onset	duration	trial_type	sample	stim_file	subject	experiment	session	trial	task	item_name	item_num	recog_resp	recog_conf	resp	color_r	color_g	color_b	case	font
-0.002	n/a	SESS_START	-1	n/a	LTP107	ltpFR	17	n/a	n/a	n/a	n/a	1	3	n/a	n/a	n/a	n/a	n/a	n/a
-0.002	n/a	WORD	-1	wordpools/wasnorm_wordpool.txt	LTP107	ltpFR	17	1	1	CHIEF	298	1	n/a	1	0.57763671875	0.412841796875	1	upper	amplitud.ttf
-0.002	n/a	WORD	-1	wordpools/wasnorm_wordpool.txt	LTP107	ltpFR	17	1	1	DASHBOARD	441	n/a	n/a	0	0.57763671875	0.412841796875	1	upper	amplitud.ttf
-0.002	n/a	WORD	-1	wordpools/wasnorm_wordpool.txt	LTP107	ltpFR	17	1	1	SNORKEL	1336	n/a	n/a	0	0.57763671875	0.412841796875	1	upper	amplitud.ttf
-0.002	n/a	WORD	-1	wordpools/wasnorm_wordpool.txt	LTP107	ltpFR	17	1	1	COMMANDER	354	n/a	n/a	1	0.57763671875	0.412841796875	1	upper	amplitud.ttf
-0.002	n/a	WORD	-1	wordpools/wasnorm_wordpool.txt	LTP107	ltpFR	17	1	0	CLIPPERS	324	n/a	n/a	0	0.422607421875	0.5869140625	0	lower	zerothre.ttf
-0.002	n/a	WORD	-1	wordpools/wasnorm_wordpool.txt	LTP107	ltpFR	17	1	0	FUNGUS	614	n/a	n/a	0	0.422607421875	0.5869140625	0	lower	zerothre.ttf
-0.002	n/a	WORD	-1	wordpools/wasnorm_wordpool.txt	LTP107	ltpFR	17	1	1	RADISH	1158	n/a	n/a	0	0.57763671875	0.412841796875	1	upper	amplitud.ttf
-0.002	n/a	WORD	-1	wordpools/wasnorm_wordpool.txt	LTP107	ltpFR	17	1	1	STREET	1393	n/a	n/a	0	0.57763671875	0.412841796875	1	upper	amplitud.ttf
-0.002	n/a	WORD	-1	wordpools/wasnorm_wordpool.txt	LTP107	ltpFR	17	1	0	SIREN	1310	n/a	n/a	1	0.422607421875	0.5869140625	0	lower	zerothre.ttf
-0.002	n/a	WORD	-1	wordpools/wasnorm_wordpool.txt	LTP107	ltpFR	17	1	0	VENT	1556	n/a	n/a	0	0.422607421875	0.5869140625	0	lower	zerothre.ttf
-0.002	n/a	WORD	-1	wordpools/wasnorm_wordpool.txt	LTP107	ltpFR	17	1	0	PENGUIN	1044	n/a	n/a	1	0.422607421875	0.5869140625	0	lower	zerothre.ttf
-0.002	n/a	WORD	-1	wordpools/wasnorm_wordpool.txt	LTP107	ltpFR	17	1	0	CLAW	319	n/a	n/a	0	0.422607421875	0.5869140625	0	lower	zerothre.ttf
-0.002	n/a	WORD	-1	wordpools/wasnorm_wordpool.txt	LTP107	ltpFR	17	1	0	ATMOSPHERE	54	n/a	n/a	1	0.422607421875	0.5869140625	0	lower	zerothre.ttf
-0.002	n/a	WORD	-1	wordpools/wasnorm_wordpool.txt	LTP107	ltpFR	17	1	0	BRAKE	166	n/a	n/a	1	0.422607421875	0.5869140625	0	lower	zerothre.ttf
-0.002	n/a	WORD	-1	wordpools/wasnorm_wordpool.txt	LTP107	ltpFR	17	1	1	TROUT	1511	n/a	n/a	1	0.57763671875	0.412841796875	1	upper	amplitud.ttf
-0.002	n/a	WORD	-1	wordpools/wasnorm_wordpool.txt	LTP107	ltpFR	17	1	1	HOOK	715	n/a	n/a	0	0.57763671875	0.412841796875	1	upper	amplitud.ttf
-0.002	n/a	REC_START	-1	n/a	LTP107	ltpFR	17	1	n/a	n/a	n/a	n/a	n/a	n/a	n/a	n/a	n/a	n/a	n/a
-0.002	n/a	REC_WORD	-1	wordpools/wasnorm_wordpool.txt	LTP107	ltpFR	17	1	1	HOOK	715	n/a	n/a	0	n/a	n/a	n/a	n/a	n/a
-0.002	n/a	REC_WORD	-1	wordpools/wasnorm_wordpool.txt	LTP107	ltpFR	17	1	1	TROUT	1511	n/a	n/a	1	n/a	n/a	n/a	n/a	n/a
-0.002	n/a	REC_WORD	-1	wordpools/wasnorm_wordpool.txt	LTP107	ltpFR	17	1	0	ATMOSPHERE	54	n/a	n/a	1	n/a	n/a	n/a	n/a	n/a
-0.002	n/a	REC_WORD	-1	wordpools/wasnorm_wordpool.txt	LTP107	ltpFR	17	1	1	CHIEF	298	n/a	n/a	1	n/a	n/a	n/a	n/a	n/a
-0.002	n/a	REC_WORD	-1	wordpools/wasnorm_wordpool.txt	LTP107	ltpFR	17	1	1	COMMANDER	354	n/a	n/a	1	n/a	n/a	n/a	n/a	n/a
-0.002	n/a	REC_WORD	-1	wordpools/wasnorm_wordpool.txt	LTP107	ltpFR	17	1	1	DASHBOARD	441	n/a	n/a	0	n/a	n/a	n/a	n/a	n/a
-0.002	n/a	REC_WORD	-1	wordpools/wasnorm_wordpool.txt	LTP107	ltpFR	17	1	1	STREET	1393	n/a	n/a	0	n/a	n/a	n/a	n/a	n/a
-0.002	n/a	REC_WORD	-1	wordpools/wasnorm_wordpool.txt	LTP107	ltpFR	17	1	n/a	DRIVEWAY	500	n/a	n/a	n/a	n/a	n/a	n/a	n/a	n/a
-0.002	n/a	REC_WORD	-1	wordpools/wasnorm_wordpool.txt	LTP107	ltpFR	17	1	n/a	CAR	241	n/a	n/a	n/a	n/a	n/a	n/a	n/a	n/a
-0.002	n/a	REC_WORD	-1	wordpools/wasnorm_wordpool.txt	LTP107	ltpFR	17	1	1	SNORKEL	1336	n/a	n/a	0	n/a	n/a	n/a	n/a	n/a
-0.002	n/a	REC_WORD	-1	wordpools/wasnorm_wordpool.txt	LTP107	ltpFR	17	1	0	CLAW	319	n/a	n/a	0	n/a	n/a	n/a	n/a	n/a
-0.002	n/a	REC_WORD	-1	wordpools/wasnorm_wordpool.txt	LTP107	ltpFR	17	1	0	PENGUIN	1044	n/a	n/a	1	n/a	n/a	n/a	n/a	n/a
-0.002	n/a	REC_WORD	-1	wordpools/wasnorm_wordpool.txt	LTP107	ltpFR	17	1	0	SIREN	1310	n/a	n/a	1	n/a	n/a	n/a	n/a	n/a
-0.002	n/a	REC_WORD	-1	wordpools/wasnorm_wordpool.txt	LTP107	ltpFR	17	1	n/a	ISLAND	745	n/a	n/a	n/a	n/a	n/a	n/a	n/a	n/a
-0.002	n/a	REC_WORD	-1	wordpools/wasnorm_wordpool.txt	LTP107	ltpFR	17	1	0	ATMOSPHERE	54	n/a	n/a	1	n/a	n/a	n/a	n/a	n/a
-0.002	n/a	WORD	-1	wordpools/wasnorm_wordpool.txt	LTP107	ltpFR	17	2	0	POSSUM	1112	n/a	n/a	1	0.422607421875	0.5869140625	0	lower	zerothre.ttf
-0.002	n/a	WORD	-1	wordpools/wasnorm_wordpool.txt	LTP107	ltpFR	17	2	0	MONGOOSE	909	n/a	n/a	0	0.422607421875	0.5869140625	0	lower	zerothre.ttf
-0.002	n/a	WORD	-1	wordpools/wasnorm_wordpool.txt	LTP107	ltpFR	17	2	0	GRASSHOPPER	656	n/a	n/a	0	0.422607421875	0.5869140625	0	lower	zerothre.ttf
-0.002	n/a	WORD	-1	wordpools/wasnorm_wordpool.txt	LTP107	ltpFR	17	2	0	CLASS	318	n/a	n/a	1	0.422607421875	0.5869140625	0	lower	zerothre.ttf
-0.002	n/a	WORD	-1	wordpools/wasnorm_wordpool.txt	LTP107	ltpFR	17	2	0	UNIVERSITY	1541	n/a	n/a	1	0.422607421875	0.5869140625	0	lower	zerothre.ttf
-0.002	n/a	WORD	-1	wordpools/wasnorm_wordpool.txt	LTP107	ltpFR	17	2	0	PIER	1063	n/a	n/a	1	0.422607421875	0.5869140625	0	lower	zerothre.ttf
-0.002	n/a	WORD	-1	wordpools/wasnorm_wordpool.txt	LTP107	ltpFR	17	2	1	SCOUT	1252	n/a	n/a	1	0.57763671875	0.412841796875	1	upper	amplitud.ttf
-0.002	n/a	WORD	-1	wordpools/wasnorm_wordpool.txt	LTP107	ltpFR	17	2	1	WHISTLE	1606	n/a	n/a	0	0.57763671875	0.412841796875	1	upper	amplitud.ttf
-0.002	n/a	WORD	-1	wordpools/wasnorm_wordpool.txt	LTP107	ltpFR	17	2	1	ENVELOPE	537	n/a	n/a	0	0.57763671875	0.412841796875	1	upper	amplitud.ttf
-0.002	n/a	WORD	-1	wordpools/wasnorm_wordpool.txt	LTP107	ltpFR	17	2	1	SECRETARY	1265	n/a	n/a	1	0.57763671875	0.412841796875	1	upper	amplitud.ttf
-0.002	n/a	WORD	-1	wordpools/wasnorm_wordpool.txt	LTP107	ltpFR	17	2	0	PHOTO	1055	n/a	n/a	0	0.422607421875	0.5869140625	0	lower	zerothre.ttf
-0.002	n/a	WORD	-1	wordpools/wasnorm_wordpool.txt	LTP107	ltpFR	17	2	0	THERMOMETER	1453	n/a	n/a	0	0.422607421875	0.5869140625	0	lower	zerothre.ttf
-0.002	n/a	WORD	-1	wordpools/wasnorm_wordpool.txt	LTP107	ltpFR	17	2	1	BURGLAR	200	n/a	n/a	1	0.57763671875	0.412841796875	1	upper	amplitud.ttf
-0.002	n/a	WORD	-1	wordpools/wasnorm_wordpool.txt	LTP107	ltpFR	17	2	1	LETTUCE	814	n/a	n/a	0	0.57763671875	0.412841796875	1	upper	amplitud.ttf
-0.002	n/a	WORD	-1	wordpools/wasnorm_wordpool.txt	LTP107	ltpFR	17	2	1	LAKE	796	n/a	n/a	0	0.57763671875	0.412841796875	1	upper	amplitud.ttf
-0.002	n/a	WORD	-1	wordpools/wasnorm_wordpool.txt	LTP107	ltpFR	17	2	1	NOTE	958	n/a	n/a	0	0.57763671875	0.412841796875	1	upper	amplitud.ttf
-0.002	n/a	REC_START	-1	n/a	LTP107	ltpFR	17	2	n/a	n/a	n/a	n/a	n/a	n/a	n/a	n/a	n/a	n/a	n/a
-0.002	n/a	REC_WORD	-1	wordpools/wasnorm_wordpool.txt	LTP107	ltpFR	17	2	1	NOTE	958	n/a	n/a	0	n/a	n/a	n/a	n/a	n/a
-0.002	n/a	REC_WORD	-1	wordpools/wasnorm_wordpool.txt	LTP107	ltpFR	17	2	1	BURGLAR	200	n/a	n/a	1	n/a	n/a	n/a	n/a	n/a
-0.002	n/a	REC_WORD	-1	wordpools/wasnorm_wordpool.txt	LTP107	ltpFR	17	2	0	UNIVERSITY	1541	n/a	n/a	1	n/a	n/a	n/a	n/a	n/a
-0.002	n/a	REC_WORD	-1	wordpools/wasnorm_wordpool.txt	LTP107	ltpFR	17	2	1	ENVELOPE	537	n/a	n/a	0	n/a	n/a	n/a	n/a	n/a
-0.002	n/a	REC_WORD	-1	wordpools/wasnorm_wordpool.txt	LTP107	ltpFR	17	2	0	PHOTO	1055	n/a	n/a	0	n/a	n/a	n/a	n/a	n/a
-0.002	n/a	REC_WORD	-1	wordpools/wasnorm_wordpool.txt	LTP107	ltpFR	17	2	n/a	PICTURE	1061	n/a	n/a	n/a	n/a	n/a	n/a	n/a	n/a
-0.002	n/a	REC_WORD	-1	wordpools/wasnorm_wordpool.txt	LTP107	ltpFR	17	2	0	CLASS	318	n/a	n/a	1	n/a	n/a	n/a	n/a	n/a
-0.002	n/a	REC_WORD	-1	wordpools/wasnorm_wordpool.txt	LTP107	ltpFR	17	2	0	MONGOOSE	909	n/a	n/a	0	n/a	n/a	n/a	n/a	n/a
-0.002	n/a	REC_WORD	-1	wordpools/wasnorm_wordpool.txt	LTP107	ltpFR	17	2	n/a	CRICKET	408	n/a	n/a	n/a	n/a	n/a	n/a	n/a	n/a
-0.002	n/a	REC_WORD	-1	wordpools/wasnorm_wordpool.txt	LTP107	ltpFR	17	2	0	GRASSHOPPER	656	n/a	n/a	0	n/a	n/a	n/a	n/a	n/a
-0.002	n/a	REC_WORD	-1	wordpools/wasnorm_wordpool.txt	LTP107	ltpFR	17	2	0	POSSUM	1112	n/a	n/a	1	n/a	n/a	n/a	n/a	n/a
-0.002	n/a	REC_WORD	-1	wordpools/wasnorm_wordpool.txt	LTP107	ltpFR	17	2	0	UNIVERSITY	1541	n/a	n/a	1	n/a	n/a	n/a	n/a	n/a
-0.002	n/a	REC_WORD	-1	wordpools/wasnorm_wordpool.txt	LTP107	ltpFR	17	2	1	LETTUCE	814	n/a	n/a	0	n/a	n/a	n/a	n/a	n/a
-0.002	n/a	REC_WORD	-1	wordpools/wasnorm_wordpool.txt	LTP107	ltpFR	17	2	1	BURGLAR	200	n/a	n/a	1	n/a	n/a	n/a	n/a	n/a
-0.002	n/a	WORD	-1	wordpools/wasnorm_wordpool.txt	LTP107	ltpFR	17	3	1	ROOST	1208	n/a	n/a	0	0.57763671875	0.412841796875	1	upper	amplitud.ttf
-0.002	n/a	WORD	-1	wordpools/wasnorm_wordpool.txt	LTP107	ltpFR	17	3	1	BIRD	129	n/a	n/a	0	0.57763671875	0.412841796875	1	upper	amplitud.ttf
-0.002	n/a	WORD	-1	wordpools/wasnorm_wordpool.txt	LTP107	ltpFR	17	3	1	COWBOY	395	n/a	n/a	1	0.57763671875	0.412841796875	1	upper	amplitud.ttf
-0.002	n/a	WORD	-1	wordpools/wasnorm_wordpool.txt	LTP107	ltpFR	17	3	1	COOK	372	n/a	n/a	1	0.57763671875	0.412841796875	1	upper	amplitud.ttf
-0.002	n/a	WORD	-1	wordpools/wasnorm_wordpool.txt	LTP107	ltpFR	17	3	1	CAB	209	n/a	n/a	0	0.57763671875	0.412841796875	1	upper	amplitud.ttf
-0.002	n/a	WORD	-1	wordpools/wasnorm_wordpool.txt	LTP107	ltpFR	17	3	1	CREEK	404	n/a	n/a	0	0.57763671875	0.412841796875	1	upper	amplitud.ttf
-0.002	n/a	WORD	-1	wordpools/wasnorm_wordpool.txt	LTP107	ltpFR	17	3	1	CANAL	226	n/a	n/a	0	0.57763671875	0.412841796875	1	upper	amplitud.ttf
-0.002	n/a	WORD	-1	wordpools/wasnorm_wordpool.txt	LTP107	ltpFR	17	3	1	COLT	349	n/a	n/a	1	0.57763671875	0.412841796875	1	upper	amplitud.ttf
-0.002	n/a	WORD	-1	wordpools/wasnorm_wordpool.txt	LTP107	ltpFR	17	3	1	SPATULA	1348	n/a	n/a	0	0.57763671875	0.412841796875	1	upper	amplitud.ttf
-0.002	n/a	WORD	-1	wordpools/wasnorm_wordpool.txt	LTP107	ltpFR	17	3	1	LINT	826	n/a	n/a	0	0.57763671875	0.412841796875	1	upper	amplitud.ttf
-0.002	n/a	WORD	-1	wordpools/wasnorm_wordpool.txt	LTP107	ltpFR	17	3	1	VEHICLE	1553	n/a	n/a	0	0.57763671875	0.412841796875	1	upper	amplitud.ttf
-0.002	n/a	WORD	-1	wordpools/wasnorm_wordpool.txt	LTP107	ltpFR	17	3	1	CONTAINER	366	n/a	n/a	0	0.57763671875	0.412841796875	1	upper	amplitud.ttf
-0.002	n/a	WORD	-1	wordpools/wasnorm_wordpool.txt	LTP107	ltpFR	17	3	1	UNDERWEAR	1537	n/a	n/a	0	0.57763671875	0.412841796875	1	upper	amplitud.ttf
-0.002	n/a	WORD	-1	wordpools/wasnorm_wordpool.txt	LTP107	ltpFR	17	3	1	CRAB	397	n/a	n/a	1	0.57763671875	0.412841796875	1	upper	amplitud.ttf
-0.002	n/a	WORD	-1	wordpools/wasnorm_wordpool.txt	LTP107	ltpFR	17	3	1	PEBBLE	1035	n/a	n/a	0	0.57763671875	0.412841796875	1	upper	amplitud.ttf
-0.002	n/a	WORD	-1	wordpools/wasnorm_wordpool.txt	LTP107	ltpFR	17	3	1	EMERALD	528	n/a	n/a	0	0.57763671875	0.412841796875	1	upper	amplitud.ttf
-0.002	n/a	REC_START	-1	n/a	LTP107	ltpFR	17	3	n/a	n/a	n/a	n/a	n/a	n/a	n/a	n/a	n/a	n/a	n/a
-0.002	n/a	REC_WORD	-1	wordpools/wasnorm_wordpool.txt	LTP107	ltpFR	17	3	1	EMERALD	528	n/a	n/a	0	n/a	n/a	n/a	n/a	n/a
-0.002	n/a	REC_WORD	-1	wordpools/wasnorm_wordpool.txt	LTP107	ltpFR	17	3	1	PEBBLE	1035	n/a	n/a	0	n/a	n/a	n/a	n/a	n/a
-0.002	n/a	REC_WORD	-1	wordpools/wasnorm_wordpool.txt	LTP107	ltpFR	17	3	1	CREEK	404	n/a	n/a	0	n/a	n/a	n/a	n/a	n/a
-0.002	n/a	REC_WORD	-1	wordpools/wasnorm_wordpool.txt	LTP107	ltpFR	17	3	1	COLT	349	n/a	n/a	1	n/a	n/a	n/a	n/a	n/a
-0.002	n/a	REC_WORD	-1	wordpools/wasnorm_wordpool.txt	LTP107	ltpFR	17	3	1	COWBOY	395	n/a	n/a	1	n/a	n/a	n/a	n/a	n/a
-0.002	n/a	REC_WORD	-1	wordpools/wasnorm_wordpool.txt	LTP107	ltpFR	17	3	1	CAB	209	n/a	n/a	0	n/a	n/a	n/a	n/a	n/a
-0.002	n/a	REC_WORD	-1	wordpools/wasnorm_wordpool.txt	LTP107	ltpFR	17	3	1	VEHICLE	1553	n/a	n/a	0	n/a	n/a	n/a	n/a	n/a
-0.002	n/a	REC_WORD	-1	wordpools/wasnorm_wordpool.txt	LTP107	ltpFR	17	3	1	LINT	826	n/a	n/a	0	n/a	n/a	n/a	n/a	n/a
-0.002	n/a	REC_WORD	-1	wordpools/wasnorm_wordpool.txt	LTP107	ltpFR	17	3	1	PEBBLE	1035	n/a	n/a	0	n/a	n/a	n/a	n/a	n/a
-0.002	n/a	REC_WORD	-1	wordpools/wasnorm_wordpool.txt	LTP107	ltpFR	17	3	1	COWBOY	395	n/a	n/a	1	n/a	n/a	n/a	n/a	n/a
-0.002	n/a	REC_WORD	-1	wordpools/wasnorm_wordpool.txt	LTP107	ltpFR	17	3	1	COOK	372	n/a	n/a	1	n/a	n/a	n/a	n/a	n/a
-0.002	n/a	REC_WORD	-1	wordpools/wasnorm_wordpool.txt	LTP107	ltpFR	17	3	1	SPATULA	1348	n/a	n/a	0	n/a	n/a	n/a	n/a	n/a
-0.002	n/a	REC_WORD	-1	wordpools/wasnorm_wordpool.txt	LTP107	ltpFR	17	3	1	CRAB	397	n/a	n/a	1	n/a	n/a	n/a	n/a	n/a
-0.002	n/a	REC_WORD	-1	wordpools/wasnorm_wordpool.txt	LTP107	ltpFR	17	3	1	ROOST	1208	n/a	n/a	0	n/a	n/a	n/a	n/a	n/a
-0.002	n/a	REC_WORD	-1	wordpools/wasnorm_wordpool.txt	LTP107	ltpFR	17	3	1	BIRD	129	n/a	n/a	0	n/a	n/a	n/a	n/a	n/a
-0.002	n/a	REC_WORD	-1	wordpools/wasnorm_wordpool.txt	LTP107	ltpFR	17	3	1	CREEK	404	n/a	n/a	0	n/a	n/a	n/a	n/a	n/a
-0.002	n/a	REC_WORD	-1	wordpools/wasnorm_wordpool.txt	LTP107	ltpFR	17	3	n/a	RIVER	1194	n/a	n/a	n/a	n/a	n/a	n/a	n/a	n/a
-0.002	n/a	REC_WORD	-1	wordpools/wasnorm_wordpool.txt	LTP107	ltpFR	17	3	1	CANAL	226	n/a	n/a	0	n/a	n/a	n/a	n/a	n/a
-0.002	n/a	REC_WORD	-1	wordpools/wasnorm_wordpool.txt	LTP107	ltpFR	17	3	1	CONTAINER	366	n/a	n/a	0	n/a	n/a	n/a	n/a	n/a
-0.002	n/a	WORD	-1	wordpools/wasnorm_wordpool.txt	LTP107	ltpFR	17	4	0	HEATER	698	n/a	n/a	1	0.422607421875	0.5869140625	0	lower	zerothre.ttf
-0.002	n/a	WORD	-1	wordpools/wasnorm_wordpool.txt	LTP107	ltpFR	17	4	0	ICE	730	n/a	n/a	0	0.422607421875	0.5869140625	0	lower	zerothre.ttf
-0.002	n/a	WORD	-1	wordpools/wasnorm_wordpool.txt	LTP107	ltpFR	17	4	0	CLAMP	316	n/a	n/a	0	0.422607421875	0.5869140625	0	lower	zerothre.ttf
-0.002	n/a	WORD	-1	wordpools/wasnorm_wordpool.txt	LTP107	ltpFR	17	4	1	ENGINE	535	n/a	n/a	0	0.57763671875	0.412841796875	1	upper	amplitud.ttf
-0.002	n/a	WORD	-1	wordpools/wasnorm_wordpool.txt	LTP107	ltpFR	17	4	1	KNOT	788	n/a	n/a	0	0.57763671875	0.412841796875	1	upper	amplitud.ttf
-0.002	n/a	WORD	-1	wordpools/wasnorm_wordpool.txt	LTP107	ltpFR	17	4	1	JET	756	n/a	n/a	0	0.57763671875	0.412841796875	1	upper	amplitud.ttf
-0.002	n/a	WORD	-1	wordpools/wasnorm_wordpool.txt	LTP107	ltpFR	17	4	1	COD	340	n/a	n/a	1	0.57763671875	0.412841796875	1	upper	amplitud.ttf
-0.002	n/a	WORD	-1	wordpools/wasnorm_wordpool.txt	LTP107	ltpFR	17	4	1	FISH	571	n/a	n/a	1	0.57763671875	0.412841796875	1	upper	amplitud.ttf
-0.002	n/a	WORD	-1	wordpools/wasnorm_wordpool.txt	LTP107	ltpFR	17	4	0	MINER	896	n/a	n/a	1	0.422607421875	0.5869140625	0	lower	zerothre.ttf
-0.002	n/a	WORD	-1	wordpools/wasnorm_wordpool.txt	LTP107	ltpFR	17	4	0	TREASURE	1500	n/a	n/a	1	0.422607421875	0.5869140625	0	lower	zerothre.ttf
-0.002	n/a	WORD	-1	wordpools/wasnorm_wordpool.txt	LTP107	ltpFR	17	4	0	BRICK	172	n/a	n/a	0	0.422607421875	0.5869140625	0	lower	zerothre.ttf
-0.002	n/a	WORD	-1	wordpools/wasnorm_wordpool.txt	LTP107	ltpFR	17	4	1	HOSTESS	723	n/a	n/a	1	0.57763671875	0.412841796875	1	upper	amplitud.ttf
-0.002	n/a	WORD	-1	wordpools/wasnorm_wordpool.txt	LTP107	ltpFR	17	4	1	DIGGER	464	n/a	n/a	1	0.57763671875	0.412841796875	1	upper	amplitud.ttf
-0.002	n/a	WORD	-1	wordpools/wasnorm_wordpool.txt	LTP107	ltpFR	17	4	1	QUARTER	1148	n/a	n/a	0	0.57763671875	0.412841796875	1	upper	amplitud.ttf
-0.002	n/a	WORD	-1	wordpools/wasnorm_wordpool.txt	LTP107	ltpFR	17	4	0	MANSION	864	n/a	n/a	1	0.422607421875	0.5869140625	0	lower	zerothre.ttf
-0.002	n/a	WORD	-1	wordpools/wasnorm_wordpool.txt	LTP107	ltpFR	17	4	0	SHOELACE	1289	n/a	n/a	0	0.422607421875	0.5869140625	0	lower	zerothre.ttf
-0.002	n/a	REC_START	-1	n/a	LTP107	ltpFR	17	4	n/a	n/a	n/a	n/a	n/a	n/a	n/a	n/a	n/a	n/a	n/a
-0.002	n/a	REC_WORD	-1	wordpools/wasnorm_wordpool.txt	LTP107	ltpFR	17	4	0	SHOELACE	1289	n/a	n/a	0	n/a	n/a	n/a	n/a	n/a
-0.002	n/a	REC_WORD	-1	wordpools/wasnorm_wordpool.txt	LTP107	ltpFR	17	4	0	MANSION	864	n/a	n/a	1	n/a	n/a	n/a	n/a	n/a
-0.002	n/a	REC_WORD	-1	wordpools/wasnorm_wordpool.txt	LTP107	ltpFR	17	4	1	COD	340	n/a	n/a	1	n/a	n/a	n/a	n/a	n/a
-0.002	n/a	REC_WORD	-1	wordpools/wasnorm_wordpool.txt	LTP107	ltpFR	17	4	1	FISH	571	n/a	n/a	1	n/a	n/a	n/a	n/a	n/a
-0.002	n/a	REC_WORD	-1	wordpools/wasnorm_wordpool.txt	LTP107	ltpFR	17	4	0	TREASURE	1500	n/a	n/a	1	n/a	n/a	n/a	n/a	n/a
-0.002	n/a	REC_WORD	-1	wordpools/wasnorm_wordpool.txt	LTP107	ltpFR	17	4	0	BRICK	172	n/a	n/a	0	n/a	n/a	n/a	n/a	n/a
-0.002	n/a	REC_WORD	-1	wordpools/wasnorm_wordpool.txt	LTP107	ltpFR	17	4	1	QUARTER	1148	n/a	n/a	0	n/a	n/a	n/a	n/a	n/a
-0.002	n/a	REC_WORD	-1	wordpools/wasnorm_wordpool.txt	LTP107	ltpFR	17	4	0	MANSION	864	n/a	n/a	1	n/a	n/a	n/a	n/a	n/a
-0.002	n/a	REC_WORD	-1	wordpools/wasnorm_wordpool.txt	LTP107	ltpFR	17	4	1	ENGINE	535	n/a	n/a	0	n/a	n/a	n/a	n/a	n/a
-0.002	n/a	REC_WORD	-1	wordpools/wasnorm_wordpool.txt	LTP107	ltpFR	17	4	0	HEATER	698	n/a	n/a	1	n/a	n/a	n/a	n/a	n/a
-0.002	n/a	REC_WORD	-1	wordpools/wasnorm_wordpool.txt	LTP107	ltpFR	17	4	0	ICE	730	n/a	n/a	0	n/a	n/a	n/a	n/a	n/a
-0.002	n/a	REC_WORD	-1	wordpools/wasnorm_wordpool.txt	LTP107	ltpFR	17	4	1	KNOT	788	n/a	n/a	0	n/a	n/a	n/a	n/a	n/a
-0.002	n/a	REC_WORD	-1	wordpools/wasnorm_wordpool.txt	LTP107	ltpFR	17	4	n/a	BOAT	144	n/a	n/a	n/a	n/a	n/a	n/a	n/a	n/a
-0.002	n/a	REC_WORD	-1	wordpools/wasnorm_wordpool.txt	LTP107	ltpFR	17	4	1	FISH	571	n/a	n/a	1	n/a	n/a	n/a	n/a	n/a
-0.002	n/a	REC_WORD	-1	wordpools/wasnorm_wordpool.txt	LTP107	ltpFR	17	4	1	SPATULA	1348	n/a	n/a	0	n/a	n/a	n/a	n/a	n/a
-0.002	n/a	REC_WORD	-1	wordpools/wasnorm_wordpool.txt	LTP107	ltpFR	17	4	1	COD	340	n/a	n/a	1	n/a	n/a	n/a	n/a	n/a
-0.002	n/a	WORD	-1	wordpools/wasnorm_wordpool.txt	LTP107	ltpFR	17	5	0	WALL	1582	n/a	n/a	1	0.422607421875	0.5869140625	0	lower	zerothre.ttf
-0.002	n/a	WORD	-1	wordpools/wasnorm_wordpool.txt	LTP107	ltpFR	17	5	0	ORCHESTRA	981	n/a	n/a	1	0.422607421875	0.5869140625	0	lower	zerothre.ttf
-0.002	n/a	WORD	-1	wordpools/wasnorm_wordpool.txt	LTP107	ltpFR	17	5	0	SAILOR	1223	n/a	n/a	1	0.422607421875	0.5869140625	0	lower	zerothre.ttf
-0.002	n/a	WORD	-1	wordpools/wasnorm_wordpool.txt	LTP107	ltpFR	17	5	0	PRISON	1127	n/a	n/a	1	0.422607421875	0.5869140625	0	lower	zerothre.ttf
-0.002	n/a	WORD	-1	wordpools/wasnorm_wordpool.txt	LTP107	ltpFR	17	5	0	SUPERVISOR	1410	n/a	n/a	1	0.422607421875	0.5869140625	0	lower	zerothre.ttf
-0.002	n/a	WORD	-1	wordpools/wasnorm_wordpool.txt	LTP107	ltpFR	17	5	0	WORKER	1621	n/a	n/a	1	0.422607421875	0.5869140625	0	lower	zerothre.ttf
-0.002	n/a	WORD	-1	wordpools/wasnorm_wordpool.txt	LTP107	ltpFR	17	5	0	VIKING	1565	n/a	n/a	1	0.422607421875	0.5869140625	0	lower	zerothre.ttf
-0.002	n/a	WORD	-1	wordpools/wasnorm_wordpool.txt	LTP107	ltpFR	17	5	0	UNCLE	1536	n/a	n/a	1	0.422607421875	0.5869140625	0	lower	zerothre.ttf
-0.002	n/a	WORD	-1	wordpools/wasnorm_wordpool.txt	LTP107	ltpFR	17	5	0	TURNIP	1521	n/a	n/a	0	0.422607421875	0.5869140625	0	lower	zerothre.ttf
-0.002	n/a	WORD	-1	wordpools/wasnorm_wordpool.txt	LTP107	ltpFR	17	5	0	OATMEAL	967	n/a	n/a	0	0.422607421875	0.5869140625	0	lower	zerothre.ttf
-0.002	n/a	WORD	-1	wordpools/wasnorm_wordpool.txt	LTP107	ltpFR	17	5	0	SUPERMARKET	1409	n/a	n/a	1	0.422607421875	0.5869140625	0	lower	zerothre.ttf
-0.002	n/a	WORD	-1	wordpools/wasnorm_wordpool.txt	LTP107	ltpFR	17	5	0	MEDICINE	886	n/a	n/a	0	0.422607421875	0.5869140625	0	lower	zerothre.ttf
-0.002	n/a	WORD	-1	wordpools/wasnorm_wordpool.txt	LTP107	ltpFR	17	5	0	ORGAN	984	n/a	n/a	1	0.422607421875	0.5869140625	0	lower	zerothre.ttf
-0.002	n/a	WORD	-1	wordpools/wasnorm_wordpool.txt	LTP107	ltpFR	17	5	0	OATS	968	n/a	n/a	0	0.422607421875	0.5869140625	0	lower	zerothre.ttf
-0.002	n/a	WORD	-1	wordpools/wasnorm_wordpool.txt	LTP107	ltpFR	17	5	0	MILK	895	n/a	n/a	0	0.422607421875	0.5869140625	0	lower	zerothre.ttf
-0.002	n/a	WORD	-1	wordpools/wasnorm_wordpool.txt	LTP107	ltpFR	17	5	0	AMBULANCE	19	n/a	n/a	1	0.422607421875	0.5869140625	0	lower	zerothre.ttf
-0.002	n/a	REC_START	-1	n/a	LTP107	ltpFR	17	5	n/a	n/a	n/a	n/a	n/a	n/a	n/a	n/a	n/a	n/a	n/a
-0.002	n/a	REC_WORD	-1	wordpools/wasnorm_wordpool.txt	LTP107	ltpFR	17	5	0	AMBULANCE	19	n/a	n/a	1	n/a	n/a	n/a	n/a	n/a
-0.002	n/a	REC_WORD	-1	wordpools/wasnorm_wordpool.txt	LTP107	ltpFR	17	5	0	MEDICINE	886	n/a	n/a	0	n/a	n/a	n/a	n/a	n/a
-0.002	n/a	REC_WORD	-1	wordpools/wasnorm_wordpool.txt	LTP107	ltpFR	17	5	0	TURNIP	1521	n/a	n/a	0	n/a	n/a	n/a	n/a	n/a
-0.002	n/a	REC_WORD	-1	wordpools/wasnorm_wordpool.txt	LTP107	ltpFR	17	5	0	OATMEAL	967	n/a	n/a	0	n/a	n/a	n/a	n/a	n/a
-0.002	n/a	REC_WORD	-1	wordpools/wasnorm_wordpool.txt	LTP107	ltpFR	17	5	0	OATS	968	n/a	n/a	0	n/a	n/a	n/a	n/a	n/a
-0.002	n/a	REC_WORD	-1	wordpools/wasnorm_wordpool.txt	LTP107	ltpFR	17	5	0	MILK	895	n/a	n/a	0	n/a	n/a	n/a	n/a	n/a
-0.002	n/a	REC_WORD	-1	wordpools/wasnorm_wordpool.txt	LTP107	ltpFR	17	5	0	VIKING	1565	n/a	n/a	1	n/a	n/a	n/a	n/a	n/a
-0.002	n/a	REC_WORD	-1	wordpools/wasnorm_wordpool.txt	LTP107	ltpFR	17	5	0	UNCLE	1536	n/a	n/a	1	n/a	n/a	n/a	n/a	n/a
-0.002	n/a	REC_WORD	-1	wordpools/wasnorm_wordpool.txt	LTP107	ltpFR	17	5	0	AMBULANCE	19	n/a	n/a	1	n/a	n/a	n/a	n/a	n/a
-0.002	n/a	REC_WORD_VV	-1	wordpools/wasnorm_wordpool.txt	LTP107	ltpFR	17	5	n/a	<>	-1	n/a	n/a	n/a	n/a	n/a	n/a	n/a	n/a
-0.002	n/a	REC_WORD	-1	wordpools/wasnorm_wordpool.txt	LTP107	ltpFR	17	5	0	PRISON	1127	n/a	n/a	1	n/a	n/a	n/a	n/a	n/a
-0.002	n/a	REC_WORD	-1	wordpools/wasnorm_wordpool.txt	LTP107	ltpFR	17	5	n/a	PRISONER	1128	n/a	n/a	n/a	n/a	n/a	n/a	n/a	n/a
-0.002	n/a	REC_WORD	-1	wordpools/wasnorm_wordpool.txt	LTP107	ltpFR	17	5	0	VIKING	1565	n/a	n/a	1	n/a	n/a	n/a	n/a	n/a
-0.002	n/a	REC_WORD	-1	wordpools/wasnorm_wordpool.txt	LTP107	ltpFR	17	5	0	SUPERVISOR	1410	n/a	n/a	1	n/a	n/a	n/a	n/a	n/a
-0.002	n/a	REC_WORD	-1	wordpools/wasnorm_wordpool.txt	LTP107	ltpFR	17	5	0	WORKER	1621	n/a	n/a	1	n/a	n/a	n/a	n/a	n/a
-0.002	n/a	REC_WORD	-1	wordpools/wasnorm_wordpool.txt	LTP107	ltpFR	17	5	0	SUPERMARKET	1409	n/a	n/a	1	n/a	n/a	n/a	n/a	n/a
-0.002	n/a	REC_WORD	-1	wordpools/wasnorm_wordpool.txt	LTP107	ltpFR	17	5	0	TURNIP	1521	n/a	n/a	0	n/a	n/a	n/a	n/a	n/a
-0.002	n/a	WORD	-1	wordpools/wasnorm_wordpool.txt	LTP107	ltpFR	17	6	1	KID	775	n/a	n/a	1	0.57763671875	0.412841796875	1	upper	amplitud.ttf
-0.002	n/a	WORD	-1	wordpools/wasnorm_wordpool.txt	LTP107	ltpFR	17	6	1	KEEPER	769	n/a	n/a	1	0.57763671875	0.412841796875	1	upper	amplitud.ttf
-0.002	n/a	WORD	-1	wordpools/wasnorm_wordpool.txt	LTP107	ltpFR	17	6	1	STEP	1377	n/a	n/a	0	0.57763671875	0.412841796875	1	upper	amplitud.ttf
-0.002	n/a	WORD	-1	wordpools/wasnorm_wordpool.txt	LTP107	ltpFR	17	6	1	AIRCRAFT	11	n/a	n/a	0	0.57763671875	0.412841796875	1	upper	amplitud.ttf
-0.002	n/a	WORD	-1	wordpools/wasnorm_wordpool.txt	LTP107	ltpFR	17	6	1	FEAST	556	n/a	n/a	0	0.57763671875	0.412841796875	1	upper	amplitud.ttf
-0.002	n/a	WORD	-1	wordpools/wasnorm_wordpool.txt	LTP107	ltpFR	17	6	1	MANAGER	863	n/a	n/a	1	0.57763671875	0.412841796875	1	upper	amplitud.ttf
-0.002	n/a	WORD	-1	wordpools/wasnorm_wordpool.txt	LTP107	ltpFR	17	6	0	MOSS	918	n/a	n/a	0	0.422607421875	0.5869140625	0	lower	zerothre.ttf
-0.002	n/a	WORD	-1	wordpools/wasnorm_wordpool.txt	LTP107	ltpFR	17	6	0	SCALLOP	1242	n/a	n/a	0	0.422607421875	0.5869140625	0	lower	zerothre.ttf
-0.002	n/a	WORD	-1	wordpools/wasnorm_wordpool.txt	LTP107	ltpFR	17	6	0	ZEBRA	1635	n/a	n/a	1	0.422607421875	0.5869140625	0	lower	zerothre.ttf
-0.002	n/a	WORD	-1	wordpools/wasnorm_wordpool.txt	LTP107	ltpFR	17	6	1	PONY	1102	n/a	n/a	1	0.57763671875	0.412841796875	1	upper	amplitud.ttf
-0.002	n/a	WORD	-1	wordpools/wasnorm_wordpool.txt	LTP107	ltpFR	17	6	1	FOUNTAIN	597	n/a	n/a	0	0.57763671875	0.412841796875	1	upper	amplitud.ttf
-0.002	n/a	WORD	-1	wordpools/wasnorm_wordpool.txt	LTP107	ltpFR	17	6	0	LODGE	839	n/a	n/a	1	0.422607421875	0.5869140625	0	lower	zerothre.ttf
-0.002	n/a	WORD	-1	wordpools/wasnorm_wordpool.txt	LTP107	ltpFR	17	6	0	PLUM	1090	n/a	n/a	0	0.422607421875	0.5869140625	0	lower	zerothre.ttf
-0.002	n/a	WORD	-1	wordpools/wasnorm_wordpool.txt	LTP107	ltpFR	17	6	0	PUDDLE	1140	n/a	n/a	0	0.422607421875	0.5869140625	0	lower	zerothre.ttf
-0.002	n/a	WORD	-1	wordpools/wasnorm_wordpool.txt	LTP107	ltpFR	17	6	0	CABBAGE	210	n/a	n/a	0	0.422607421875	0.5869140625	0	lower	zerothre.ttf
-0.002	n/a	WORD	-1	wordpools/wasnorm_wordpool.txt	LTP107	ltpFR	17	6	0	MILDEW	893	n/a	n/a	0	0.422607421875	0.5869140625	0	lower	zerothre.ttf
-0.002	n/a	REC_START	-1	n/a	LTP107	ltpFR	17	6	n/a	n/a	n/a	n/a	n/a	n/a	n/a	n/a	n/a	n/a	n/a
-0.002	n/a	REC_WORD	-1	wordpools/wasnorm_wordpool.txt	LTP107	ltpFR	17	6	0	MILDEW	893	n/a	n/a	0	n/a	n/a	n/a	n/a	n/a
-0.002	n/a	REC_WORD	-1	wordpools/wasnorm_wordpool.txt	LTP107	ltpFR	17	6	0	PLUM	1090	n/a	n/a	0	n/a	n/a	n/a	n/a	n/a
-0.002	n/a	REC_WORD	-1	wordpools/wasnorm_wordpool.txt	LTP107	ltpFR	17	6	0	CABBAGE	210	n/a	n/a	0	n/a	n/a	n/a	n/a	n/a
-0.002	n/a	REC_WORD	-1	wordpools/wasnorm_wordpool.txt	LTP107	ltpFR	17	6	0	MOSS	918	n/a	n/a	0	n/a	n/a	n/a	n/a	n/a
-0.002	n/a	REC_WORD	-1	wordpools/wasnorm_wordpool.txt	LTP107	ltpFR	17	6	1	KID	775	n/a	n/a	1	n/a	n/a	n/a	n/a	n/a
-0.002	n/a	REC_WORD	-1	wordpools/wasnorm_wordpool.txt	LTP107	ltpFR	17	6	1	KEEPER	769	n/a	n/a	1	n/a	n/a	n/a	n/a	n/a
-0.002	n/a	REC_WORD	-1	wordpools/wasnorm_wordpool.txt	LTP107	ltpFR	17	6	1	MANAGER	863	n/a	n/a	1	n/a	n/a	n/a	n/a	n/a
-0.002	n/a	REC_WORD	-1	wordpools/wasnorm_wordpool.txt	LTP107	ltpFR	17	6	1	AIRCRAFT	11	n/a	n/a	0	n/a	n/a	n/a	n/a	n/a
-0.002	n/a	REC_WORD	-1	wordpools/wasnorm_wordpool.txt	LTP107	ltpFR	17	6	1	STEP	1377	n/a	n/a	0	n/a	n/a	n/a	n/a	n/a
-0.002	n/a	REC_WORD	-1	wordpools/wasnorm_wordpool.txt	LTP107	ltpFR	17	6	0	ZEBRA	1635	n/a	n/a	1	n/a	n/a	n/a	n/a	n/a
-0.002	n/a	REC_WORD	-1	wordpools/wasnorm_wordpool.txt	LTP107	ltpFR	17	6	1	FEAST	556	n/a	n/a	0	n/a	n/a	n/a	n/a	n/a
-0.002	n/a	REC_WORD	-1	wordpools/wasnorm_wordpool.txt	LTP107	ltpFR	17	6	0	PUDDLE	1140	n/a	n/a	0	n/a	n/a	n/a	n/a	n/a
-0.002	n/a	REC_WORD	-1	wordpools/wasnorm_wordpool.txt	LTP107	ltpFR	17	6	1	FEAST	556	n/a	n/a	0	n/a	n/a	n/a	n/a	n/a
-0.002	n/a	WORD	-1	wordpools/wasnorm_wordpool.txt	LTP107	ltpFR	17	7	0	NOTEBOOK	959	n/a	n/a	0	0.422607421875	0.5869140625	0	lower	zerothre.ttf
-0.002	n/a	WORD	-1	wordpools/wasnorm_wordpool.txt	LTP107	ltpFR	17	7	0	FLUTE	585	n/a	n/a	0	0.422607421875	0.5869140625	0	lower	zerothre.ttf
-0.002	n/a	WORD	-1	wordpools/wasnorm_wordpool.txt	LTP107	ltpFR	17	7	0	GOBLIN	645	n/a	n/a	1	0.422607421875	0.5869140625	0	lower	zerothre.ttf
-0.002	n/a	WORD	-1	wordpools/wasnorm_wordpool.txt	LTP107	ltpFR	17	7	0	MONSTER	912	n/a	n/a	1	0.422607421875	0.5869140625	0	lower	zerothre.ttf
-0.002	n/a	WORD	-1	wordpools/wasnorm_wordpool.txt	LTP107	ltpFR	17	7	1	HANGER	687	n/a	n/a	0	0.57763671875	0.412841796875	1	upper	amplitud.ttf
-0.002	n/a	WORD	-1	wordpools/wasnorm_wordpool.txt	LTP107	ltpFR	17	7	1	DONOR	485	n/a	n/a	1	0.57763671875	0.412841796875	1	upper	amplitud.ttf
-0.002	n/a	WORD	-1	wordpools/wasnorm_wordpool.txt	LTP107	ltpFR	17	7	1	DESK	452	n/a	n/a	0	0.57763671875	0.412841796875	1	upper	amplitud.ttf
-0.002	n/a	WORD	-1	wordpools/wasnorm_wordpool.txt	LTP107	ltpFR	17	7	1	STOOL	1386	n/a	n/a	0	0.57763671875	0.412841796875	1	upper	amplitud.ttf
-0.002	n/a	WORD	-1	wordpools/wasnorm_wordpool.txt	LTP107	ltpFR	17	7	1	SCREEN	1253	n/a	n/a	0	0.57763671875	0.412841796875	1	upper	amplitud.ttf
-0.002	n/a	WORD	-1	wordpools/wasnorm_wordpool.txt	LTP107	ltpFR	17	7	0	MISSILE	900	n/a	n/a	1	0.422607421875	0.5869140625	0	lower	zerothre.ttf
-0.002	n/a	WORD	-1	wordpools/wasnorm_wordpool.txt	LTP107	ltpFR	17	7	0	SCRIBBLE	1256	n/a	n/a	0	0.422607421875	0.5869140625	0	lower	zerothre.ttf
-0.002	n/a	WORD	-1	wordpools/wasnorm_wordpool.txt	LTP107	ltpFR	17	7	0	COACH	331	n/a	n/a	1	0.422607421875	0.5869140625	0	lower	zerothre.ttf
-0.002	n/a	WORD	-1	wordpools/wasnorm_wordpool.txt	LTP107	ltpFR	17	7	0	IRON	744	n/a	n/a	0	0.422607421875	0.5869140625	0	lower	zerothre.ttf
-0.002	n/a	WORD	-1	wordpools/wasnorm_wordpool.txt	LTP107	ltpFR	17	7	1	VIOLA	1570	n/a	n/a	0	0.57763671875	0.412841796875	1	upper	amplitud.ttf
-0.002	n/a	WORD	-1	wordpools/wasnorm_wordpool.txt	LTP107	ltpFR	17	7	1	SPIDER	1351	n/a	n/a	1	0.57763671875	0.412841796875	1	upper	amplitud.ttf
-0.002	n/a	WORD	-1	wordpools/wasnorm_wordpool.txt	LTP107	ltpFR	17	7	1	MISTER	901	n/a	n/a	1	0.57763671875	0.412841796875	1	upper	amplitud.ttf
-0.002	n/a	REC_START	-1	n/a	LTP107	ltpFR	17	7	n/a	n/a	n/a	n/a	n/a	n/a	n/a	n/a	n/a	n/a	n/a
-0.002	n/a	REC_WORD	-1	wordpools/wasnorm_wordpool.txt	LTP107	ltpFR	17	7	1	MISTER	901	n/a	n/a	1	n/a	n/a	n/a	n/a	n/a
-0.002	n/a	REC_WORD	-1	wordpools/wasnorm_wordpool.txt	LTP107	ltpFR	17	7	1	SPIDER	1351	n/a	n/a	1	n/a	n/a	n/a	n/a	n/a
-0.002	n/a	REC_WORD	-1	wordpools/wasnorm_wordpool.txt	LTP107	ltpFR	17	7	1	DESK	452	n/a	n/a	0	n/a	n/a	n/a	n/a	n/a
-0.002	n/a	REC_WORD	-1	wordpools/wasnorm_wordpool.txt	LTP107	ltpFR	17	7	1	STOOL	1386	n/a	n/a	0	n/a	n/a	n/a	n/a	n/a
-0.002	n/a	REC_WORD	-1	wordpools/wasnorm_wordpool.txt	LTP107	ltpFR	17	7	0	MONSTER	912	n/a	n/a	1	n/a	n/a	n/a	n/a	n/a
-0.002	n/a	REC_WORD	-1	wordpools/wasnorm_wordpool.txt	LTP107	ltpFR	17	7	1	HANGER	687	n/a	n/a	0	n/a	n/a	n/a	n/a	n/a
-0.002	n/a	REC_WORD	-1	wordpools/wasnorm_wordpool.txt	LTP107	ltpFR	17	7	0	NOTEBOOK	959	n/a	n/a	0	n/a	n/a	n/a	n/a	n/a
-0.002	n/a	REC_WORD	-1	wordpools/wasnorm_wordpool.txt	LTP107	ltpFR	17	7	0	SCRIBBLE	1256	n/a	n/a	0	n/a	n/a	n/a	n/a	n/a
-0.002	n/a	REC_WORD	-1	wordpools/wasnorm_wordpool.txt	LTP107	ltpFR	17	7	0	FLUTE	585	n/a	n/a	0	n/a	n/a	n/a	n/a	n/a
-0.002	n/a	REC_WORD	-1	wordpools/wasnorm_wordpool.txt	LTP107	ltpFR	17	7	1	VIOLA	1570	n/a	n/a	0	n/a	n/a	n/a	n/a	n/a
-0.002	n/a	REC_WORD	-1	wordpools/wasnorm_wordpool.txt	LTP107	ltpFR	17	7	0	IRON	744	n/a	n/a	0	n/a	n/a	n/a	n/a	n/a
-0.002	n/a	REC_WORD	-1	wordpools/wasnorm_wordpool.txt	LTP107	ltpFR	17	7	0	COACH	331	n/a	n/a	1	n/a	n/a	n/a	n/a	n/a
-0.002	n/a	REC_WORD	-1	wordpools/wasnorm_wordpool.txt	LTP107	ltpFR	17	7	0	FLUTE	585	n/a	n/a	0	n/a	n/a	n/a	n/a	n/a
-0.002	n/a	REC_WORD	-1	wordpools/wasnorm_wordpool.txt	LTP107	ltpFR	17	7	0	MONSTER	912	n/a	n/a	1	n/a	n/a	n/a	n/a	n/a
-0.002	n/a	REC_WORD	-1	wordpools/wasnorm_wordpool.txt	LTP107	ltpFR	17	7	n/a	DRAGON	492	n/a	n/a	n/a	n/a	n/a	n/a	n/a	n/a
-0.002	n/a	REC_WORD	-1	wordpools/wasnorm_wordpool.txt	LTP107	ltpFR	17	7	0	SHOELACE	1289	n/a	n/a	0	n/a	n/a	n/a	n/a	n/a
-0.002	n/a	WORD	-1	wordpools/wasnorm_wordpool.txt	LTP107	ltpFR	17	8	-1	CHAMBER	277	n/a	n/a	-1	1.0	1.0	1	upper	Verdana.ttf
-0.002	n/a	WORD	-1	wordpools/wasnorm_wordpool.txt	LTP107	ltpFR	17	8	-1	GHETTO	633	n/a	n/a	-1	1.0	1.0	1	upper	Verdana.ttf
-0.002	n/a	WORD	-1	wordpools/wasnorm_wordpool.txt	LTP107	ltpFR	17	8	-1	CUSTOMER	430	n/a	n/a	-1	1.0	1.0	1	upper	Verdana.ttf
-0.002	n/a	WORD	-1	wordpools/wasnorm_wordpool.txt	LTP107	ltpFR	17	8	-1	OWNER	993	n/a	n/a	-1	1.0	1.0	1	upper	Verdana.ttf
-0.002	n/a	WORD	-1	wordpools/wasnorm_wordpool.txt	LTP107	ltpFR	17	8	-1	FACE	547	n/a	n/a	-1	1.0	1.0	1	upper	Verdana.ttf
-0.002	n/a	WORD	-1	wordpools/wasnorm_wordpool.txt	LTP107	ltpFR	17	8	-1	LIPSTICK	829	n/a	n/a	-1	1.0	1.0	1	upper	Verdana.ttf
-0.002	n/a	WORD	-1	wordpools/wasnorm_wordpool.txt	LTP107	ltpFR	17	8	-1	CEREAL	272	n/a	n/a	-1	1.0	1.0	1	upper	Verdana.ttf
-0.002	n/a	WORD	-1	wordpools/wasnorm_wordpool.txt	LTP107	ltpFR	17	8	-1	LIBRARY	816	n/a	n/a	-1	1.0	1.0	1	upper	Verdana.ttf
-0.002	n/a	WORD	-1	wordpools/wasnorm_wordpool.txt	LTP107	ltpFR	17	8	-1	CONVICT	371	n/a	n/a	-1	1.0	1.0	1	upper	Verdana.ttf
-0.002	n/a	WORD	-1	wordpools/wasnorm_wordpool.txt	LTP107	ltpFR	17	8	-1	CATTLE	261	n/a	n/a	-1	1.0	1.0	1	upper	Verdana.ttf
-0.002	n/a	WORD	-1	wordpools/wasnorm_wordpool.txt	LTP107	ltpFR	17	8	-1	LITERATURE	831	n/a	n/a	-1	1.0	1.0	1	upper	Verdana.ttf
-0.002	n/a	WORD	-1	wordpools/wasnorm_wordpool.txt	LTP107	ltpFR	17	8	-1	KNIFE	785	n/a	n/a	-1	1.0	1.0	1	upper	Verdana.ttf
-0.002	n/a	WORD	-1	wordpools/wasnorm_wordpool.txt	LTP107	ltpFR	17	8	-1	MOUTH	926	n/a	n/a	-1	1.0	1.0	1	upper	Verdana.ttf
-0.002	n/a	WORD	-1	wordpools/wasnorm_wordpool.txt	LTP107	ltpFR	17	8	-1	PARSLEY	1016	n/a	n/a	-1	1.0	1.0	1	upper	Verdana.ttf
-0.002	n/a	WORD	-1	wordpools/wasnorm_wordpool.txt	LTP107	ltpFR	17	8	-1	ANT	25	n/a	n/a	-1	1.0	1.0	1	upper	Verdana.ttf
-0.002	n/a	WORD	-1	wordpools/wasnorm_wordpool.txt	LTP107	ltpFR	17	8	-1	WALRUS	1585	n/a	n/a	-1	1.0	1.0	1	upper	Verdana.ttf
-0.002	n/a	REC_START	-1	n/a	LTP107	ltpFR	17	8	n/a	n/a	n/a	n/a	n/a	n/a	n/a	n/a	n/a	n/a	n/a
-0.002	n/a	REC_WORD	-1	wordpools/wasnorm_wordpool.txt	LTP107	ltpFR	17	8	-1	WALRUS	1585	n/a	n/a	-1	n/a	n/a	n/a	n/a	n/a
-0.002	n/a	REC_WORD	-1	wordpools/wasnorm_wordpool.txt	LTP107	ltpFR	17	8	-1	PARSLEY	1016	n/a	n/a	-1	n/a	n/a	n/a	n/a	n/a
-0.002	n/a	REC_WORD	-1	wordpools/wasnorm_wordpool.txt	LTP107	ltpFR	17	8	-1	ANT	25	n/a	n/a	-1	n/a	n/a	n/a	n/a	n/a
-0.002	n/a	REC_WORD	-1	wordpools/wasnorm_wordpool.txt	LTP107	ltpFR	17	8	-1	CONVICT	371	n/a	n/a	-1	n/a	n/a	n/a	n/a	n/a
-0.002	n/a	REC_WORD	-1	wordpools/wasnorm_wordpool.txt	LTP107	ltpFR	17	8	-1	CATTLE	261	n/a	n/a	-1	n/a	n/a	n/a	n/a	n/a
-0.002	n/a	REC_WORD	-1	wordpools/wasnorm_wordpool.txt	LTP107	ltpFR	17	8	-1	KNIFE	785	n/a	n/a	-1	n/a	n/a	n/a	n/a	n/a
-0.002	n/a	REC_WORD	-1	wordpools/wasnorm_wordpool.txt	LTP107	ltpFR	17	8	-1	LITERATURE	831	n/a	n/a	-1	n/a	n/a	n/a	n/a	n/a
-0.002	n/a	REC_WORD	-1	wordpools/wasnorm_wordpool.txt	LTP107	ltpFR	17	8	-1	LIBRARY	816	n/a	n/a	-1	n/a	n/a	n/a	n/a	n/a
-0.002	n/a	REC_WORD	-1	wordpools/wasnorm_wordpool.txt	LTP107	ltpFR	17	8	-1	MOUTH	926	n/a	n/a	-1	n/a	n/a	n/a	n/a	n/a
-0.002	n/a	REC_WORD	-1	wordpools/wasnorm_wordpool.txt	LTP107	ltpFR	17	8	-1	FACE	547	n/a	n/a	-1	n/a	n/a	n/a	n/a	n/a
-0.002	n/a	REC_WORD	-1	wordpools/wasnorm_wordpool.txt	LTP107	ltpFR	17	8	-1	LIPSTICK	829	n/a	n/a	-1	n/a	n/a	n/a	n/a	n/a
-0.002	n/a	REC_WORD	-1	wordpools/wasnorm_wordpool.txt	LTP107	ltpFR	17	8	-1	CHAMBER	277	n/a	n/a	-1	n/a	n/a	n/a	n/a	n/a
-0.002	n/a	REC_WORD	-1	wordpools/wasnorm_wordpool.txt	LTP107	ltpFR	17	8	n/a	BOOTH	151	n/a	n/a	n/a	n/a	n/a	n/a	n/a	n/a
-0.002	n/a	REC_WORD	-1	wordpools/wasnorm_wordpool.txt	LTP107	ltpFR	17	8	-1	GHETTO	633	n/a	n/a	-1	n/a	n/a	n/a	n/a	n/a
-0.002	n/a	REC_WORD	-1	wordpools/wasnorm_wordpool.txt	LTP107	ltpFR	17	8	-1	FACE	547	n/a	n/a	-1	n/a	n/a	n/a	n/a	n/a
-0.002	n/a	REC_WORD	-1	wordpools/wasnorm_wordpool.txt	LTP107	ltpFR	17	8	-1	WALRUS	1585	n/a	n/a	-1	n/a	n/a	n/a	n/a	n/a
-0.002	n/a	REC_WORD	-1	wordpools/wasnorm_wordpool.txt	LTP107	ltpFR	17	8	-1	CATTLE	261	n/a	n/a	-1	n/a	n/a	n/a	n/a	n/a
-0.002	n/a	REC_WORD	-1	wordpools/wasnorm_wordpool.txt	LTP107	ltpFR	17	8	-1	KNIFE	785	n/a	n/a	-1	n/a	n/a	n/a	n/a	n/a
-0.002	n/a	WORD	-1	wordpools/wasnorm_wordpool.txt	LTP107	ltpFR	17	9	0	RIBBON	1189	n/a	n/a	0	0.422607421875	0.5869140625	0	lower	zerothre.ttf
-0.002	n/a	WORD	-1	wordpools/wasnorm_wordpool.txt	LTP107	ltpFR	17	9	0	COMB	351	n/a	n/a	0	0.422607421875	0.5869140625	0	lower	zerothre.ttf
-0.002	n/a	WORD	-1	wordpools/wasnorm_wordpool.txt	LTP107	ltpFR	17	9	0	BULB	192	n/a	n/a	0	0.422607421875	0.5869140625	0	lower	zerothre.ttf
-0.002	n/a	WORD	-1	wordpools/wasnorm_wordpool.txt	LTP107	ltpFR	17	9	0	SISTER	1312	n/a	n/a	1	0.422607421875	0.5869140625	0	lower	zerothre.ttf
-0.002	n/a	WORD	-1	wordpools/wasnorm_wordpool.txt	LTP107	ltpFR	17	9	0	CUCUMBER	421	n/a	n/a	0	0.422607421875	0.5869140625	0	lower	zerothre.ttf
-0.002	n/a	WORD	-1	wordpools/wasnorm_wordpool.txt	LTP107	ltpFR	17	9	0	SERGEANT	1269	n/a	n/a	1	0.422607421875	0.5869140625	0	lower	zerothre.ttf
-0.002	n/a	WORD	-1	wordpools/wasnorm_wordpool.txt	LTP107	ltpFR	17	9	0	PAIL	1002	n/a	n/a	0	0.422607421875	0.5869140625	0	lower	zerothre.ttf
-0.002	n/a	WORD	-1	wordpools/wasnorm_wordpool.txt	LTP107	ltpFR	17	9	0	GRAVEL	659	n/a	n/a	1	0.422607421875	0.5869140625	0	lower	zerothre.ttf
-0.002	n/a	WORD	-1	wordpools/wasnorm_wordpool.txt	LTP107	ltpFR	17	9	0	BALLOT	76	n/a	n/a	0	0.422607421875	0.5869140625	0	lower	zerothre.ttf
-0.002	n/a	WORD	-1	wordpools/wasnorm_wordpool.txt	LTP107	ltpFR	17	9	0	SCULPTURE	1258	n/a	n/a	1	0.422607421875	0.5869140625	0	lower	zerothre.ttf
-0.002	n/a	WORD	-1	wordpools/wasnorm_wordpool.txt	LTP107	ltpFR	17	9	0	ARTIST	43	n/a	n/a	1	0.422607421875	0.5869140625	0	lower	zerothre.ttf
-0.002	n/a	WORD	-1	wordpools/wasnorm_wordpool.txt	LTP107	ltpFR	17	9	0	PELT	1040	n/a	n/a	0	0.422607421875	0.5869140625	0	lower	zerothre.ttf
-0.002	n/a	WORD	-1	wordpools/wasnorm_wordpool.txt	LTP107	ltpFR	17	9	0	LASH	802	n/a	n/a	0	0.422607421875	0.5869140625	0	lower	zerothre.ttf
-0.002	n/a	WORD	-1	wordpools/wasnorm_wordpool.txt	LTP107	ltpFR	17	9	0	STREAM	1392	n/a	n/a	1	0.422607421875	0.5869140625	0	lower	zerothre.ttf
-0.002	n/a	WORD	-1	wordpools/wasnorm_wordpool.txt	LTP107	ltpFR	17	9	0	ATLAS	53	n/a	n/a	1	0.422607421875	0.5869140625	0	lower	zerothre.ttf
-0.002	n/a	WORD	-1	wordpools/wasnorm_wordpool.txt	LTP107	ltpFR	17	9	0	DILL	465	n/a	n/a	0	0.422607421875	0.5869140625	0	lower	zerothre.ttf
-0.002	n/a	REC_START	-1	n/a	LTP107	ltpFR	17	9	n/a	n/a	n/a	n/a	n/a	n/a	n/a	n/a	n/a	n/a	n/a
-0.002	n/a	REC_WORD	-1	wordpools/wasnorm_wordpool.txt	LTP107	ltpFR	17	9	0	DILL	465	n/a	n/a	0	n/a	n/a	n/a	n/a	n/a
-0.002	n/a	REC_WORD	-1	wordpools/wasnorm_wordpool.txt	LTP107	ltpFR	17	9	0	ATLAS	53	n/a	n/a	1	n/a	n/a	n/a	n/a	n/a
-0.002	n/a	REC_WORD	-1	wordpools/wasnorm_wordpool.txt	LTP107	ltpFR	17	9	0	STREAM	1392	n/a	n/a	1	n/a	n/a	n/a	n/a	n/a
-0.002	n/a	REC_WORD	-1	wordpools/wasnorm_wordpool.txt	LTP107	ltpFR	17	9	0	CUCUMBER	421	n/a	n/a	0	n/a	n/a	n/a	n/a	n/a
-0.002	n/a	REC_WORD	-1	wordpools/wasnorm_wordpool.txt	LTP107	ltpFR	17	9	n/a	PICKLE	1059	n/a	n/a	n/a	n/a	n/a	n/a	n/a	n/a
-0.002	n/a	REC_WORD	-1	wordpools/wasnorm_wordpool.txt	LTP107	ltpFR	17	9	0	SISTER	1312	n/a	n/a	1	n/a	n/a	n/a	n/a	n/a
-0.002	n/a	REC_WORD	-1	wordpools/wasnorm_wordpool.txt	LTP107	ltpFR	17	9	0	SCULPTURE	1258	n/a	n/a	1	n/a	n/a	n/a	n/a	n/a
-0.002	n/a	REC_WORD	-1	wordpools/wasnorm_wordpool.txt	LTP107	ltpFR	17	9	0	ARTIST	43	n/a	n/a	1	n/a	n/a	n/a	n/a	n/a
-0.002	n/a	REC_WORD	-1	wordpools/wasnorm_wordpool.txt	LTP107	ltpFR	17	9	0	RIBBON	1189	n/a	n/a	0	n/a	n/a	n/a	n/a	n/a
-0.002	n/a	REC_WORD	-1	wordpools/wasnorm_wordpool.txt	LTP107	ltpFR	17	9	0	PAIL	1002	n/a	n/a	0	n/a	n/a	n/a	n/a	n/a
-0.002	n/a	REC_WORD	-1	wordpools/wasnorm_wordpool.txt	LTP107	ltpFR	17	9	0	LASH	802	n/a	n/a	0	n/a	n/a	n/a	n/a	n/a
-0.002	n/a	REC_WORD	-1	wordpools/wasnorm_wordpool.txt	LTP107	ltpFR	17	9	0	SISTER	1312	n/a	n/a	1	n/a	n/a	n/a	n/a	n/a
-0.002	n/a	REC_WORD	-1	wordpools/wasnorm_wordpool.txt	LTP107	ltpFR	17	9	n/a	SHERIFF	1284	n/a	n/a	n/a	n/a	n/a	n/a	n/a	n/a
-0.002	n/a	REC_WORD	-1	wordpools/wasnorm_wordpool.txt	LTP107	ltpFR	17	9	n/a	LIEUTENANT	818	n/a	n/a	n/a	n/a	n/a	n/a	n/a	n/a
-0.002	n/a	REC_WORD	-1	wordpools/wasnorm_wordpool.txt	LTP107	ltpFR	17	9	0	GRAVEL	659	n/a	n/a	1	n/a	n/a	n/a	n/a	n/a
-0.002	n/a	REC_WORD	-1	wordpools/wasnorm_wordpool.txt	LTP107	ltpFR	17	9	0	COMB	351	n/a	n/a	0	n/a	n/a	n/a	n/a	n/a
-0.002	n/a	REC_WORD	-1	wordpools/wasnorm_wordpool.txt	LTP107	ltpFR	17	9	0	BULB	192	n/a	n/a	0	n/a	n/a	n/a	n/a	n/a
-0.002	n/a	REC_WORD	-1	wordpools/wasnorm_wordpool.txt	LTP107	ltpFR	17	9	0	DILL	465	n/a	n/a	0	n/a	n/a	n/a	n/a	n/a
-0.002	n/a	WORD	-1	wordpools/wasnorm_wordpool.txt	LTP107	ltpFR	17	10	-1	REPORT	1184	n/a	n/a	-1	1.0	1.0	1	upper	Verdana.ttf
-0.002	n/a	WORD	-1	wordpools/wasnorm_wordpool.txt	LTP107	ltpFR	17	10	-1	APARTMENT	30	n/a	n/a	-1	1.0	1.0	1	upper	Verdana.ttf
-0.002	n/a	WORD	-1	wordpools/wasnorm_wordpool.txt	LTP107	ltpFR	17	10	-1	WILDERNESS	1610	n/a	n/a	-1	1.0	1.0	1	upper	Verdana.ttf
-0.002	n/a	WORD	-1	wordpools/wasnorm_wordpool.txt	LTP107	ltpFR	17	10	-1	OPERATOR	979	n/a	n/a	-1	1.0	1.0	1	upper	Verdana.ttf
-0.002	n/a	WORD	-1	wordpools/wasnorm_wordpool.txt	LTP107	ltpFR	17	10	-1	MESSAGE	888	n/a	n/a	-1	1.0	1.0	1	upper	Verdana.ttf
-0.002	n/a	WORD	-1	wordpools/wasnorm_wordpool.txt	LTP107	ltpFR	17	10	-1	BARLEY	88	n/a	n/a	-1	1.0	1.0	1	upper	Verdana.ttf
-0.002	n/a	WORD	-1	wordpools/wasnorm_wordpool.txt	LTP107	ltpFR	17	10	-1	TECHNICIAN	1443	n/a	n/a	-1	1.0	1.0	1	upper	Verdana.ttf
-0.002	n/a	WORD	-1	wordpools/wasnorm_wordpool.txt	LTP107	ltpFR	17	10	-1	PERSONNEL	1053	n/a	n/a	-1	1.0	1.0	1	upper	Verdana.ttf
-0.002	n/a	WORD	-1	wordpools/wasnorm_wordpool.txt	LTP107	ltpFR	17	10	-1	CELERY	266	n/a	n/a	-1	1.0	1.0	1	upper	Verdana.ttf
-0.002	n/a	WORD	-1	wordpools/wasnorm_wordpool.txt	LTP107	ltpFR	17	10	-1	BLUEJAY	141	n/a	n/a	-1	1.0	1.0	1	upper	Verdana.ttf
-0.002	n/a	WORD	-1	wordpools/wasnorm_wordpool.txt	LTP107	ltpFR	17	10	-1	FOLDER	588	n/a	n/a	-1	1.0	1.0	1	upper	Verdana.ttf
-0.002	n/a	WORD	-1	wordpools/wasnorm_wordpool.txt	LTP107	ltpFR	17	10	-1	PRAIRIE	1118	n/a	n/a	-1	1.0	1.0	1	upper	Verdana.ttf
-0.002	n/a	WORD	-1	wordpools/wasnorm_wordpool.txt	LTP107	ltpFR	17	10	-1	SLEIGH	1325	n/a	n/a	-1	1.0	1.0	1	upper	Verdana.ttf
-0.002	n/a	WORD	-1	wordpools/wasnorm_wordpool.txt	LTP107	ltpFR	17	10	-1	SKI	1316	n/a	n/a	-1	1.0	1.0	1	upper	Verdana.ttf
-0.002	n/a	WORD	-1	wordpools/wasnorm_wordpool.txt	LTP107	ltpFR	17	10	-1	POT	1114	n/a	n/a	-1	1.0	1.0	1	upper	Verdana.ttf
-0.002	n/a	WORD	-1	wordpools/wasnorm_wordpool.txt	LTP107	ltpFR	17	10	-1	DUNE	506	n/a	n/a	-1	1.0	1.0	1	upper	Verdana.ttf
-0.002	n/a	REC_START	-1	n/a	LTP107	ltpFR	17	10	n/a	n/a	n/a	n/a	n/a	n/a	n/a	n/a	n/a	n/a	n/a
-0.002	n/a	REC_WORD	-1	wordpools/wasnorm_wordpool.txt	LTP107	ltpFR	17	10	-1	DUNE	506	n/a	n/a	-1	n/a	n/a	n/a	n/a	n/a
-0.002	n/a	REC_WORD	-1	wordpools/wasnorm_wordpool.txt	LTP107	ltpFR	17	10	-1	SLEIGH	1325	n/a	n/a	-1	n/a	n/a	n/a	n/a	n/a
-0.002	n/a	REC_WORD	-1	wordpools/wasnorm_wordpool.txt	LTP107	ltpFR	17	10	-1	SKI	1316	n/a	n/a	-1	n/a	n/a	n/a	n/a	n/a
-0.002	n/a	REC_WORD	-1	wordpools/wasnorm_wordpool.txt	LTP107	ltpFR	17	10	-1	POT	1114	n/a	n/a	-1	n/a	n/a	n/a	n/a	n/a
-0.002	n/a	REC_WORD	-1	wordpools/wasnorm_wordpool.txt	LTP107	ltpFR	17	10	-1	WILDERNESS	1610	n/a	n/a	-1	n/a	n/a	n/a	n/a	n/a
-0.002	n/a	REC_WORD	-1	wordpools/wasnorm_wordpool.txt	LTP107	ltpFR	17	10	-1	WILDERNESS	1610	n/a	n/a	-1	n/a	n/a	n/a	n/a	n/a
-0.002	n/a	REC_WORD	-1	wordpools/wasnorm_wordpool.txt	LTP107	ltpFR	17	10	-1	REPORT	1184	n/a	n/a	-1	n/a	n/a	n/a	n/a	n/a
-0.002	n/a	REC_WORD	-1	wordpools/wasnorm_wordpool.txt	LTP107	ltpFR	17	10	-1	MESSAGE	888	n/a	n/a	-1	n/a	n/a	n/a	n/a	n/a
-0.002	n/a	REC_WORD	-1	wordpools/wasnorm_wordpool.txt	LTP107	ltpFR	17	10	-1	FOLDER	588	n/a	n/a	-1	n/a	n/a	n/a	n/a	n/a
-0.002	n/a	REC_WORD	-1	wordpools/wasnorm_wordpool.txt	LTP107	ltpFR	17	10	-1	OPERATOR	979	n/a	n/a	-1	n/a	n/a	n/a	n/a	n/a
-0.002	n/a	REC_WORD	-1	wordpools/wasnorm_wordpool.txt	LTP107	ltpFR	17	10	-1	WILDERNESS	1610	n/a	n/a	-1	n/a	n/a	n/a	n/a	n/a
-0.002	n/a	REC_WORD	-1	wordpools/wasnorm_wordpool.txt	LTP107	ltpFR	17	10	-1	APARTMENT	30	n/a	n/a	-1	n/a	n/a	n/a	n/a	n/a
-0.002	n/a	REC_WORD	-1	wordpools/wasnorm_wordpool.txt	LTP107	ltpFR	17	10	-1	BARLEY	88	n/a	n/a	-1	n/a	n/a	n/a	n/a	n/a
-0.002	n/a	REC_WORD	-1	wordpools/wasnorm_wordpool.txt	LTP107	ltpFR	17	10	-1	CELERY	266	n/a	n/a	-1	n/a	n/a	n/a	n/a	n/a
-0.002	n/a	REC_WORD	-1	wordpools/wasnorm_wordpool.txt	LTP107	ltpFR	17	10	-1	PRAIRIE	1118	n/a	n/a	-1	n/a	n/a	n/a	n/a	n/a
-0.002	n/a	REC_WORD	-1	wordpools/wasnorm_wordpool.txt	LTP107	ltpFR	17	10	-1	BLUEJAY	141	n/a	n/a	-1	n/a	n/a	n/a	n/a	n/a
-0.002	n/a	REC_WORD	-1	wordpools/wasnorm_wordpool.txt	LTP107	ltpFR	17	10	-1	CELERY	266	n/a	n/a	-1	n/a	n/a	n/a	n/a	n/a
-0.002	n/a	REC_WORD	-1	wordpools/wasnorm_wordpool.txt	LTP107	ltpFR	17	10	-1	TECHNICIAN	1443	n/a	n/a	-1	n/a	n/a	n/a	n/a	n/a
-0.002	n/a	REC_WORD	-1	wordpools/wasnorm_wordpool.txt	LTP107	ltpFR	17	10	-1	APARTMENT	30	n/a	n/a	-1	n/a	n/a	n/a	n/a	n/a
-0.002	n/a	REC_WORD	-1	wordpools/wasnorm_wordpool.txt	LTP107	ltpFR	17	10	-1	WILDERNESS	1610	n/a	n/a	-1	n/a	n/a	n/a	n/a	n/a
-0.002	n/a	WORD	-1	wordpools/wasnorm_wordpool.txt	LTP107	ltpFR	17	11	-1	CHERRY	293	n/a	n/a	-1	1.0	1.0	1	upper	Verdana.ttf
-0.002	n/a	WORD	-1	wordpools/wasnorm_wordpool.txt	LTP107	ltpFR	17	11	-1	VILLAIN	1567	n/a	n/a	-1	1.0	1.0	1	upper	Verdana.ttf
-0.002	n/a	WORD	-1	wordpools/wasnorm_wordpool.txt	LTP107	ltpFR	17	11	-1	TUNA	1518	n/a	n/a	-1	1.0	1.0	1	upper	Verdana.ttf
-0.002	n/a	WORD	-1	wordpools/wasnorm_wordpool.txt	LTP107	ltpFR	17	11	-1	DAM	436	n/a	n/a	-1	1.0	1.0	1	upper	Verdana.ttf
-0.002	n/a	WORD	-1	wordpools/wasnorm_wordpool.txt	LTP107	ltpFR	17	11	-1	SHAMPOO	1274	n/a	n/a	-1	1.0	1.0	1	upper	Verdana.ttf
-0.002	n/a	WORD	-1	wordpools/wasnorm_wordpool.txt	LTP107	ltpFR	17	11	-1	CREVICE	405	n/a	n/a	-1	1.0	1.0	1	upper	Verdana.ttf
-0.002	n/a	WORD	-1	wordpools/wasnorm_wordpool.txt	LTP107	ltpFR	17	11	-1	CAPE	237	n/a	n/a	-1	1.0	1.0	1	upper	Verdana.ttf
-0.002	n/a	WORD	-1	wordpools/wasnorm_wordpool.txt	LTP107	ltpFR	17	11	-1	CHECKERS	285	n/a	n/a	-1	1.0	1.0	1	upper	Verdana.ttf
-0.002	n/a	WORD	-1	wordpools/wasnorm_wordpool.txt	LTP107	ltpFR	17	11	-1	TUNNEL	1519	n/a	n/a	-1	1.0	1.0	1	upper	Verdana.ttf
-0.002	n/a	WORD	-1	wordpools/wasnorm_wordpool.txt	LTP107	ltpFR	17	11	-1	LASER	801	n/a	n/a	-1	1.0	1.0	1	upper	Verdana.ttf
-0.002	n/a	WORD	-1	wordpools/wasnorm_wordpool.txt	LTP107	ltpFR	17	11	-1	FRAME	600	n/a	n/a	-1	1.0	1.0	1	upper	Verdana.ttf
-0.002	n/a	WORD	-1	wordpools/wasnorm_wordpool.txt	LTP107	ltpFR	17	11	-1	DRAWING	494	n/a	n/a	-1	1.0	1.0	1	upper	Verdana.ttf
-0.002	n/a	WORD	-1	wordpools/wasnorm_wordpool.txt	LTP107	ltpFR	17	11	-1	HOSE	720	n/a	n/a	-1	1.0	1.0	1	upper	Verdana.ttf
-0.002	n/a	WORD	-1	wordpools/wasnorm_wordpool.txt	LTP107	ltpFR	17	11	-1	PIKE	1067	n/a	n/a	-1	1.0	1.0	1	upper	Verdana.ttf
-0.002	n/a	WORD	-1	wordpools/wasnorm_wordpool.txt	LTP107	ltpFR	17	11	-1	TOAST	1471	n/a	n/a	-1	1.0	1.0	1	upper	Verdana.ttf
-0.002	n/a	WORD	-1	wordpools/wasnorm_wordpool.txt	LTP107	ltpFR	17	11	-1	LOAF	835	n/a	n/a	-1	1.0	1.0	1	upper	Verdana.ttf
-0.002	n/a	REC_START	-1	n/a	LTP107	ltpFR	17	11	n/a	n/a	n/a	n/a	n/a	n/a	n/a	n/a	n/a	n/a	n/a
-0.002	n/a	REC_WORD	-1	wordpools/wasnorm_wordpool.txt	LTP107	ltpFR	17	11	-1	LOAF	835	n/a	n/a	-1	n/a	n/a	n/a	n/a	n/a
-0.002	n/a	REC_WORD	-1	wordpools/wasnorm_wordpool.txt	LTP107	ltpFR	17	11	-1	TOAST	1471	n/a	n/a	-1	n/a	n/a	n/a	n/a	n/a
-0.002	n/a	REC_WORD	-1	wordpools/wasnorm_wordpool.txt	LTP107	ltpFR	17	11	-1	PIKE	1067	n/a	n/a	-1	n/a	n/a	n/a	n/a	n/a
-0.002	n/a	REC_WORD	-1	wordpools/wasnorm_wordpool.txt	LTP107	ltpFR	17	11	-1	HOSE	720	n/a	n/a	-1	n/a	n/a	n/a	n/a	n/a
-0.002	n/a	REC_WORD	-1	wordpools/wasnorm_wordpool.txt	LTP107	ltpFR	17	11	-1	TUNNEL	1519	n/a	n/a	-1	n/a	n/a	n/a	n/a	n/a
-0.002	n/a	REC_WORD	-1	wordpools/wasnorm_wordpool.txt	LTP107	ltpFR	17	11	n/a	DIG	-1	n/a	n/a	n/a	n/a	n/a	n/a	n/a	n/a
-0.002	n/a	REC_WORD	-1	wordpools/wasnorm_wordpool.txt	LTP107	ltpFR	17	11	-1	LASER	801	n/a	n/a	-1	n/a	n/a	n/a	n/a	n/a
-0.002	n/a	REC_WORD	-1	wordpools/wasnorm_wordpool.txt	LTP107	ltpFR	17	11	-1	CREVICE	405	n/a	n/a	-1	n/a	n/a	n/a	n/a	n/a
-0.002	n/a	REC_WORD	-1	wordpools/wasnorm_wordpool.txt	LTP107	ltpFR	17	11	-1	CHERRY	293	n/a	n/a	-1	n/a	n/a	n/a	n/a	n/a
-0.002	n/a	REC_WORD	-1	wordpools/wasnorm_wordpool.txt	LTP107	ltpFR	17	11	-1	TUNA	1518	n/a	n/a	-1	n/a	n/a	n/a	n/a	n/a
-0.002	n/a	REC_WORD	-1	wordpools/wasnorm_wordpool.txt	LTP107	ltpFR	17	11	n/a	CRIMINAL	409	n/a	n/a	n/a	n/a	n/a	n/a	n/a	n/a
-0.002	n/a	REC_WORD	-1	wordpools/wasnorm_wordpool.txt	LTP107	ltpFR	17	11	-1	DAM	436	n/a	n/a	-1	n/a	n/a	n/a	n/a	n/a
-0.002	n/a	REC_WORD	-1	wordpools/wasnorm_wordpool.txt	LTP107	ltpFR	17	11	-1	CAPE	237	n/a	n/a	-1	n/a	n/a	n/a	n/a	n/a
-0.002	n/a	REC_WORD	-1	wordpools/wasnorm_wordpool.txt	LTP107	ltpFR	17	11	-1	CHECKERS	285	n/a	n/a	-1	n/a	n/a	n/a	n/a	n/a
-0.002	n/a	REC_WORD	-1	wordpools/wasnorm_wordpool.txt	LTP107	ltpFR	17	11	-1	WILDERNESS	1610	n/a	n/a	-1	n/a	n/a	n/a	n/a	n/a
-0.002	n/a	REC_WORD	-1	wordpools/wasnorm_wordpool.txt	LTP107	ltpFR	17	11	-1	FRAME	600	n/a	n/a	-1	n/a	n/a	n/a	n/a	n/a
-0.002	n/a	REC_WORD	-1	wordpools/wasnorm_wordpool.txt	LTP107	ltpFR	17	11	-1	DRAWING	494	n/a	n/a	-1	n/a	n/a	n/a	n/a	n/a
-0.002	n/a	REC_WORD	-1	wordpools/wasnorm_wordpool.txt	LTP107	ltpFR	17	11	n/a	PICTURE	1061	n/a	n/a	n/a	n/a	n/a	n/a	n/a	n/a
-0.002	n/a	REC_WORD	-1	wordpools/wasnorm_wordpool.txt	LTP107	ltpFR	17	11	-1	HOSE	720	n/a	n/a	-1	n/a	n/a	n/a	n/a	n/a
-0.002	n/a	REC_WORD	-1	wordpools/wasnorm_wordpool.txt	LTP107	ltpFR	17	11	n/a	WATERFALL	1595	n/a	n/a	n/a	n/a	n/a	n/a	n/a	n/a
-0.002	n/a	WORD	-1	wordpools/wasnorm_wordpool.txt	LTP107	ltpFR	17	12	1	STEREO	1378	n/a	n/a	0	0.57763671875	0.412841796875	1	upper	amplitud.ttf
-0.002	n/a	WORD	-1	wordpools/wasnorm_wordpool.txt	LTP107	ltpFR	17	12	1	SAUCER	1237	n/a	n/a	0	0.57763671875	0.412841796875	1	upper	amplitud.ttf
-0.002	n/a	WORD	-1	wordpools/wasnorm_wordpool.txt	LTP107	ltpFR	17	12	1	RUG	1215	n/a	n/a	0	0.57763671875	0.412841796875	1	upper	amplitud.ttf
-0.002	n/a	WORD	-1	wordpools/wasnorm_wordpool.txt	LTP107	ltpFR	17	12	1	CLOVE	329	n/a	n/a	0	0.57763671875	0.412841796875	1	upper	amplitud.ttf
-0.002	n/a	WORD	-1	wordpools/wasnorm_wordpool.txt	LTP107	ltpFR	17	12	1	HERD	705	n/a	n/a	1	0.57763671875	0.412841796875	1	upper	amplitud.ttf
-0.002	n/a	WORD	-1	wordpools/wasnorm_wordpool.txt	LTP107	ltpFR	17	12	1	POISON	1096	n/a	n/a	0	0.57763671875	0.412841796875	1	upper	amplitud.ttf
-0.002	n/a	WORD	-1	wordpools/wasnorm_wordpool.txt	LTP107	ltpFR	17	12	1	SERPENT	1270	n/a	n/a	1	0.57763671875	0.412841796875	1	upper	amplitud.ttf
-0.002	n/a	WORD	-1	wordpools/wasnorm_wordpool.txt	LTP107	ltpFR	17	12	1	PRIEST	1122	n/a	n/a	1	0.57763671875	0.412841796875	1	upper	amplitud.ttf
-0.002	n/a	WORD	-1	wordpools/wasnorm_wordpool.txt	LTP107	ltpFR	17	12	1	POPE	1105	n/a	n/a	1	0.57763671875	0.412841796875	1	upper	amplitud.ttf
-0.002	n/a	WORD	-1	wordpools/wasnorm_wordpool.txt	LTP107	ltpFR	17	12	1	LIMB	822	n/a	n/a	0	0.57763671875	0.412841796875	1	upper	amplitud.ttf
-0.002	n/a	WORD	-1	wordpools/wasnorm_wordpool.txt	LTP107	ltpFR	17	12	1	GULL	671	n/a	n/a	1	0.57763671875	0.412841796875	1	upper	amplitud.ttf
-0.002	n/a	WORD	-1	wordpools/wasnorm_wordpool.txt	LTP107	ltpFR	17	12	1	TELEVISION	1447	n/a	n/a	0	0.57763671875	0.412841796875	1	upper	amplitud.ttf
-0.002	n/a	WORD	-1	wordpools/wasnorm_wordpool.txt	LTP107	ltpFR	17	12	1	MAT	877	n/a	n/a	0	0.57763671875	0.412841796875	1	upper	amplitud.ttf
-0.002	n/a	WORD	-1	wordpools/wasnorm_wordpool.txt	LTP107	ltpFR	17	12	1	LOLLIPOP	842	n/a	n/a	0	0.57763671875	0.412841796875	1	upper	amplitud.ttf
-0.002	n/a	WORD	-1	wordpools/wasnorm_wordpool.txt	LTP107	ltpFR	17	12	1	ALMOND	18	n/a	n/a	0	0.57763671875	0.412841796875	1	upper	amplitud.ttf
-0.002	n/a	WORD	-1	wordpools/wasnorm_wordpool.txt	LTP107	ltpFR	17	12	1	ANKLE	24	n/a	n/a	0	0.57763671875	0.412841796875	1	upper	amplitud.ttf
-0.002	n/a	REC_START	-1	n/a	LTP107	ltpFR	17	12	n/a	n/a	n/a	n/a	n/a	n/a	n/a	n/a	n/a	n/a	n/a
-0.002	n/a	REC_WORD	-1	wordpools/wasnorm_wordpool.txt	LTP107	ltpFR	17	12	1	ANKLE	24	n/a	n/a	0	n/a	n/a	n/a	n/a	n/a
-0.002	n/a	REC_WORD	-1	wordpools/wasnorm_wordpool.txt	LTP107	ltpFR	17	12	1	LOLLIPOP	842	n/a	n/a	0	n/a	n/a	n/a	n/a	n/a
-0.002	n/a	REC_WORD	-1	wordpools/wasnorm_wordpool.txt	LTP107	ltpFR	17	12	1	LIMB	822	n/a	n/a	0	n/a	n/a	n/a	n/a	n/a
-0.002	n/a	REC_WORD	-1	wordpools/wasnorm_wordpool.txt	LTP107	ltpFR	17	12	1	HERD	705	n/a	n/a	1	n/a	n/a	n/a	n/a	n/a
-0.002	n/a	REC_WORD	-1	wordpools/wasnorm_wordpool.txt	LTP107	ltpFR	17	12	1	MAT	877	n/a	n/a	0	n/a	n/a	n/a	n/a	n/a
-0.002	n/a	REC_WORD	-1	wordpools/wasnorm_wordpool.txt	LTP107	ltpFR	17	12	1	RUG	1215	n/a	n/a	0	n/a	n/a	n/a	n/a	n/a
-0.002	n/a	REC_WORD	-1	wordpools/wasnorm_wordpool.txt	LTP107	ltpFR	17	12	1	SAUCER	1237	n/a	n/a	0	n/a	n/a	n/a	n/a	n/a
-0.002	n/a	REC_WORD	-1	wordpools/wasnorm_wordpool.txt	LTP107	ltpFR	17	12	1	POISON	1096	n/a	n/a	0	n/a	n/a	n/a	n/a	n/a
-0.002	n/a	REC_WORD	-1	wordpools/wasnorm_wordpool.txt	LTP107	ltpFR	17	12	1	HERD	705	n/a	n/a	1	n/a	n/a	n/a	n/a	n/a
-0.002	n/a	REC_WORD	-1	wordpools/wasnorm_wordpool.txt	LTP107	ltpFR	17	12	1	PRIEST	1122	n/a	n/a	1	n/a	n/a	n/a	n/a	n/a
-0.002	n/a	REC_WORD	-1	wordpools/wasnorm_wordpool.txt	LTP107	ltpFR	17	12	1	POPE	1105	n/a	n/a	1	n/a	n/a	n/a	n/a	n/a
-0.002	n/a	REC_WORD	-1	wordpools/wasnorm_wordpool.txt	LTP107	ltpFR	17	12	1	SERPENT	1270	n/a	n/a	1	n/a	n/a	n/a	n/a	n/a
-0.002	n/a	REC_WORD	-1	wordpools/wasnorm_wordpool.txt	LTP107	ltpFR	17	12	1	POISON	1096	n/a	n/a	0	n/a	n/a	n/a	n/a	n/a
-0.002	n/a	REC_WORD	-1	wordpools/wasnorm_wordpool.txt	LTP107	ltpFR	17	12	1	ALMOND	18	n/a	n/a	0	n/a	n/a	n/a	n/a	n/a
-0.002	n/a	REC_WORD	-1	wordpools/wasnorm_wordpool.txt	LTP107	ltpFR	17	12	1	LOLLIPOP	842	n/a	n/a	0	n/a	n/a	n/a	n/a	n/a
-0.002	n/a	REC_WORD	-1	wordpools/wasnorm_wordpool.txt	LTP107	ltpFR	17	12	1	RUG	1215	n/a	n/a	0	n/a	n/a	n/a	n/a	n/a
-0.002	n/a	REST_REWET	-1	n/a	LTP107	ltpFR	17	12	n/a	n/a	n/a	n/a	n/a	n/a	n/a	n/a	n/a	n/a	n/a
-0.002	n/a	WORD	-1	wordpools/wasnorm_wordpool.txt	LTP107	ltpFR	17	13	1	SLACKS	1323	n/a	n/a	0	0.57763671875	0.412841796875	1	upper	amplitud.ttf
-0.002	n/a	WORD	-1	wordpools/wasnorm_wordpool.txt	LTP107	ltpFR	17	13	1	DRESS	495	n/a	n/a	0	0.57763671875	0.412841796875	1	upper	amplitud.ttf
-0.002	n/a	WORD	-1	wordpools/wasnorm_wordpool.txt	LTP107	ltpFR	17	13	1	TICK	1463	n/a	n/a	1	0.57763671875	0.412841796875	1	upper	amplitud.ttf
-0.002	n/a	WORD	-1	wordpools/wasnorm_wordpool.txt	LTP107	ltpFR	17	13	1	CATCHER	258	n/a	n/a	1	0.57763671875	0.412841796875	1	upper	amplitud.ttf
-0.002	n/a	WORD	-1	wordpools/wasnorm_wordpool.txt	LTP107	ltpFR	17	13	1	BEAVER	109	n/a	n/a	1	0.57763671875	0.412841796875	1	upper	amplitud.ttf
-0.002	n/a	WORD	-1	wordpools/wasnorm_wordpool.txt	LTP107	ltpFR	17	13	1	WOLF	1619	n/a	n/a	1	0.57763671875	0.412841796875	1	upper	amplitud.ttf
-0.002	n/a	WORD	-1	wordpools/wasnorm_wordpool.txt	LTP107	ltpFR	17	13	1	LETTER	813	n/a	n/a	0	0.57763671875	0.412841796875	1	upper	amplitud.ttf
-0.002	n/a	WORD	-1	wordpools/wasnorm_wordpool.txt	LTP107	ltpFR	17	13	1	DANDRUFF	439	n/a	n/a	0	0.57763671875	0.412841796875	1	upper	amplitud.ttf
-0.002	n/a	WORD	-1	wordpools/wasnorm_wordpool.txt	LTP107	ltpFR	17	13	1	SPACE	1345	n/a	n/a	0	0.57763671875	0.412841796875	1	upper	amplitud.ttf
-0.002	n/a	WORD	-1	wordpools/wasnorm_wordpool.txt	LTP107	ltpFR	17	13	1	ASTEROID	50	n/a	n/a	0	0.57763671875	0.412841796875	1	upper	amplitud.ttf
-0.002	n/a	WORD	-1	wordpools/wasnorm_wordpool.txt	LTP107	ltpFR	17	13	1	PROTRACTOR	1133	n/a	n/a	0	0.57763671875	0.412841796875	1	upper	amplitud.ttf
-0.002	n/a	WORD	-1	wordpools/wasnorm_wordpool.txt	LTP107	ltpFR	17	13	1	BREAST	171	n/a	n/a	1	0.57763671875	0.412841796875	1	upper	amplitud.ttf
-0.002	n/a	WORD	-1	wordpools/wasnorm_wordpool.txt	LTP107	ltpFR	17	13	1	VET	1560	n/a	n/a	0	0.57763671875	0.412841796875	1	upper	amplitud.ttf
-0.002	n/a	WORD	-1	wordpools/wasnorm_wordpool.txt	LTP107	ltpFR	17	13	1	MOOSE	915	n/a	n/a	1	0.57763671875	0.412841796875	1	upper	amplitud.ttf
-0.002	n/a	WORD	-1	wordpools/wasnorm_wordpool.txt	LTP107	ltpFR	17	13	1	GROOM	665	n/a	n/a	1	0.57763671875	0.412841796875	1	upper	amplitud.ttf
-0.002	n/a	WORD	-1	wordpools/wasnorm_wordpool.txt	LTP107	ltpFR	17	13	1	LIST	830	n/a	n/a	0	0.57763671875	0.412841796875	1	upper	amplitud.ttf
-0.002	n/a	REC_START	-1	n/a	LTP107	ltpFR	17	13	n/a	n/a	n/a	n/a	n/a	n/a	n/a	n/a	n/a	n/a	n/a
-0.002	n/a	REC_WORD	-1	wordpools/wasnorm_wordpool.txt	LTP107	ltpFR	17	13	1	LIST	830	n/a	n/a	0	n/a	n/a	n/a	n/a	n/a
-0.002	n/a	REC_WORD	-1	wordpools/wasnorm_wordpool.txt	LTP107	ltpFR	17	13	1	GROOM	665	n/a	n/a	1	n/a	n/a	n/a	n/a	n/a
-0.002	n/a	REC_WORD	-1	wordpools/wasnorm_wordpool.txt	LTP107	ltpFR	17	13	1	DRESS	495	n/a	n/a	0	n/a	n/a	n/a	n/a	n/a
-0.002	n/a	REC_WORD	-1	wordpools/wasnorm_wordpool.txt	LTP107	ltpFR	17	13	1	SLACKS	1323	n/a	n/a	0	n/a	n/a	n/a	n/a	n/a
-0.002	n/a	REC_WORD	-1	wordpools/wasnorm_wordpool.txt	LTP107	ltpFR	17	13	1	BREAST	171	n/a	n/a	1	n/a	n/a	n/a	n/a	n/a
-0.002	n/a	REC_WORD	-1	wordpools/wasnorm_wordpool.txt	LTP107	ltpFR	17	13	1	MOOSE	915	n/a	n/a	1	n/a	n/a	n/a	n/a	n/a
-0.002	n/a	REC_WORD	-1	wordpools/wasnorm_wordpool.txt	LTP107	ltpFR	17	13	1	BEAVER	109	n/a	n/a	1	n/a	n/a	n/a	n/a	n/a
-0.002	n/a	REC_WORD	-1	wordpools/wasnorm_wordpool.txt	LTP107	ltpFR	17	13	1	CATCHER	258	n/a	n/a	1	n/a	n/a	n/a	n/a	n/a
-0.002	n/a	REC_WORD	-1	wordpools/wasnorm_wordpool.txt	LTP107	ltpFR	17	13	1	TICK	1463	n/a	n/a	1	n/a	n/a	n/a	n/a	n/a
-0.002	n/a	REC_WORD	-1	wordpools/wasnorm_wordpool.txt	LTP107	ltpFR	17	13	1	SPACE	1345	n/a	n/a	0	n/a	n/a	n/a	n/a	n/a
-0.002	n/a	REC_WORD	-1	wordpools/wasnorm_wordpool.txt	LTP107	ltpFR	17	13	1	ASTEROID	50	n/a	n/a	0	n/a	n/a	n/a	n/a	n/a
-0.002	n/a	REC_WORD	-1	wordpools/wasnorm_wordpool.txt	LTP107	ltpFR	17	13	1	BEAVER	109	n/a	n/a	1	n/a	n/a	n/a	n/a	n/a
-0.002	n/a	REC_WORD	-1	wordpools/wasnorm_wordpool.txt	LTP107	ltpFR	17	13	1	MOOSE	915	n/a	n/a	1	n/a	n/a	n/a	n/a	n/a
-0.002	n/a	REC_WORD	-1	wordpools/wasnorm_wordpool.txt	LTP107	ltpFR	17	13	1	GROOM	665	n/a	n/a	1	n/a	n/a	n/a	n/a	n/a
-0.002	n/a	REC_WORD	-1	wordpools/wasnorm_wordpool.txt	LTP107	ltpFR	17	13	n/a	BRIDE	173	n/a	n/a	n/a	n/a	n/a	n/a	n/a	n/a
-0.002	n/a	REC_WORD	-1	wordpools/wasnorm_wordpool.txt	LTP107	ltpFR	17	13	1	DRESS	495	n/a	n/a	0	n/a	n/a	n/a	n/a	n/a
-0.002	n/a	REC_WORD	-1	wordpools/wasnorm_wordpool.txt	LTP107	ltpFR	17	13	1	NOTE	958	n/a	n/a	0	n/a	n/a	n/a	n/a	n/a
-0.002	n/a	REC_WORD	-1	wordpools/wasnorm_wordpool.txt	LTP107	ltpFR	17	13	1	DANDRUFF	439	n/a	n/a	0	n/a	n/a	n/a	n/a	n/a
-0.002	n/a	WORD	-1	wordpools/wasnorm_wordpool.txt	LTP107	ltpFR	17	14	1	LENS	811	n/a	n/a	0	0.57763671875	0.412841796875	1	upper	amplitud.ttf
-0.002	n/a	WORD	-1	wordpools/wasnorm_wordpool.txt	LTP107	ltpFR	17	14	1	SWATTER	1418	n/a	n/a	1	0.57763671875	0.412841796875	1	upper	amplitud.ttf
-0.002	n/a	WORD	-1	wordpools/wasnorm_wordpool.txt	LTP107	ltpFR	17	14	0	BANDAGE	79	n/a	n/a	0	0.422607421875	0.5869140625	0	lower	zerothre.ttf
-0.002	n/a	WORD	-1	wordpools/wasnorm_wordpool.txt	LTP107	ltpFR	17	14	0	SCALPEL	1243	n/a	n/a	0	0.422607421875	0.5869140625	0	lower	zerothre.ttf
-0.002	n/a	WORD	-1	wordpools/wasnorm_wordpool.txt	LTP107	ltpFR	17	14	1	DOVE	491	n/a	n/a	1	0.57763671875	0.412841796875	1	upper	amplitud.ttf
-0.002	n/a	WORD	-1	wordpools/wasnorm_wordpool.txt	LTP107	ltpFR	17	14	1	BEGGAR	117	n/a	n/a	1	0.57763671875	0.412841796875	1	upper	amplitud.ttf
-0.002	n/a	WORD	-1	wordpools/wasnorm_wordpool.txt	LTP107	ltpFR	17	14	0	COURSE	390	n/a	n/a	1	0.422607421875	0.5869140625	0	lower	zerothre.ttf
-0.002	n/a	WORD	-1	wordpools/wasnorm_wordpool.txt	LTP107	ltpFR	17	14	0	DENIM	446	n/a	n/a	0	0.422607421875	0.5869140625	0	lower	zerothre.ttf
-0.002	n/a	WORD	-1	wordpools/wasnorm_wordpool.txt	LTP107	ltpFR	17	14	0	CARD	243	n/a	n/a	0	0.422607421875	0.5869140625	0	lower	zerothre.ttf
-0.002	n/a	WORD	-1	wordpools/wasnorm_wordpool.txt	LTP107	ltpFR	17	14	0	CAGE	218	n/a	n/a	1	0.422607421875	0.5869140625	0	lower	zerothre.ttf
-0.002	n/a	WORD	-1	wordpools/wasnorm_wordpool.txt	LTP107	ltpFR	17	14	0	DOG	480	n/a	n/a	1	0.422607421875	0.5869140625	0	lower	zerothre.ttf
-0.002	n/a	WORD	-1	wordpools/wasnorm_wordpool.txt	LTP107	ltpFR	17	14	0	COYOTE	396	n/a	n/a	1	0.422607421875	0.5869140625	0	lower	zerothre.ttf
-0.002	n/a	WORD	-1	wordpools/wasnorm_wordpool.txt	LTP107	ltpFR	17	14	1	FLY	586	n/a	n/a	1	0.57763671875	0.412841796875	1	upper	amplitud.ttf
-0.002	n/a	WORD	-1	wordpools/wasnorm_wordpool.txt	LTP107	ltpFR	17	14	1	PLASTER	1085	n/a	n/a	0	0.57763671875	0.412841796875	1	upper	amplitud.ttf
-0.002	n/a	WORD	-1	wordpools/wasnorm_wordpool.txt	LTP107	ltpFR	17	14	1	BASKET	95	n/a	n/a	0	0.57763671875	0.412841796875	1	upper	amplitud.ttf
-0.002	n/a	WORD	-1	wordpools/wasnorm_wordpool.txt	LTP107	ltpFR	17	14	1	GARBAGE	622	n/a	n/a	0	0.57763671875	0.412841796875	1	upper	amplitud.ttf
-0.002	n/a	REC_START	-1	n/a	LTP107	ltpFR	17	14	n/a	n/a	n/a	n/a	n/a	n/a	n/a	n/a	n/a	n/a	n/a
-0.002	n/a	REC_WORD	-1	wordpools/wasnorm_wordpool.txt	LTP107	ltpFR	17	14	1	GARBAGE	622	n/a	n/a	0	n/a	n/a	n/a	n/a	n/a
-0.002	n/a	REC_WORD	-1	wordpools/wasnorm_wordpool.txt	LTP107	ltpFR	17	14	1	BASKET	95	n/a	n/a	0	n/a	n/a	n/a	n/a	n/a
-0.002	n/a	REC_WORD	-1	wordpools/wasnorm_wordpool.txt	LTP107	ltpFR	17	14	1	FLY	586	n/a	n/a	1	n/a	n/a	n/a	n/a	n/a
-0.002	n/a	REC_WORD	-1	wordpools/wasnorm_wordpool.txt	LTP107	ltpFR	17	14	1	SWATTER	1418	n/a	n/a	1	n/a	n/a	n/a	n/a	n/a
-0.002	n/a	REC_WORD	-1	wordpools/wasnorm_wordpool.txt	LTP107	ltpFR	17	14	0	BANDAGE	79	n/a	n/a	0	n/a	n/a	n/a	n/a	n/a
-0.002	n/a	REC_WORD	-1	wordpools/wasnorm_wordpool.txt	LTP107	ltpFR	17	14	0	SCALPEL	1243	n/a	n/a	0	n/a	n/a	n/a	n/a	n/a
-0.002	n/a	REC_WORD	-1	wordpools/wasnorm_wordpool.txt	LTP107	ltpFR	17	14	1	LENS	811	n/a	n/a	0	n/a	n/a	n/a	n/a	n/a
-0.002	n/a	REC_WORD	-1	wordpools/wasnorm_wordpool.txt	LTP107	ltpFR	17	14	1	GARBAGE	622	n/a	n/a	0	n/a	n/a	n/a	n/a	n/a
-0.002	n/a	REC_WORD	-1	wordpools/wasnorm_wordpool.txt	LTP107	ltpFR	17	14	0	DENIM	446	n/a	n/a	0	n/a	n/a	n/a	n/a	n/a
-0.002	n/a	REC_WORD	-1	wordpools/wasnorm_wordpool.txt	LTP107	ltpFR	17	14	0	DOG	480	n/a	n/a	1	n/a	n/a	n/a	n/a	n/a
-0.002	n/a	REC_WORD	-1	wordpools/wasnorm_wordpool.txt	LTP107	ltpFR	17	14	1	FLY	586	n/a	n/a	1	n/a	n/a	n/a	n/a	n/a
-0.002	n/a	REC_WORD	-1	wordpools/wasnorm_wordpool.txt	LTP107	ltpFR	17	14	0	CAGE	218	n/a	n/a	1	n/a	n/a	n/a	n/a	n/a
-0.002	n/a	REC_WORD	-1	wordpools/wasnorm_wordpool.txt	LTP107	ltpFR	17	14	1	DOVE	491	n/a	n/a	1	n/a	n/a	n/a	n/a	n/a
-0.002	n/a	REC_WORD	-1	wordpools/wasnorm_wordpool.txt	LTP107	ltpFR	17	14	n/a	HOMELESS	-1	n/a	n/a	n/a	n/a	n/a	n/a	n/a	n/a
-0.002	n/a	WORD	-1	wordpools/wasnorm_wordpool.txt	LTP107	ltpFR	17	15	-1	BOOTH	151	n/a	n/a	-1	1.0	1.0	1	upper	Verdana.ttf
-0.002	n/a	WORD	-1	wordpools/wasnorm_wordpool.txt	LTP107	ltpFR	17	15	-1	WHEEL	1603	n/a	n/a	-1	1.0	1.0	1	upper	Verdana.ttf
-0.002	n/a	WORD	-1	wordpools/wasnorm_wordpool.txt	LTP107	ltpFR	17	15	-1	BASEMENT	94	n/a	n/a	-1	1.0	1.0	1	upper	Verdana.ttf
-0.002	n/a	WORD	-1	wordpools/wasnorm_wordpool.txt	LTP107	ltpFR	17	15	-1	BLUEPRINT	142	n/a	n/a	-1	1.0	1.0	1	upper	Verdana.ttf
-0.002	n/a	WORD	-1	wordpools/wasnorm_wordpool.txt	LTP107	ltpFR	17	15	-1	MARINE	869	n/a	n/a	-1	1.0	1.0	1	upper	Verdana.ttf
-0.002	n/a	WORD	-1	wordpools/wasnorm_wordpool.txt	LTP107	ltpFR	17	15	-1	JUG	762	n/a	n/a	-1	1.0	1.0	1	upper	Verdana.ttf
-0.002	n/a	WORD	-1	wordpools/wasnorm_wordpool.txt	LTP107	ltpFR	17	15	-1	HOUSE	725	n/a	n/a	-1	1.0	1.0	1	upper	Verdana.ttf
-0.002	n/a	WORD	-1	wordpools/wasnorm_wordpool.txt	LTP107	ltpFR	17	15	-1	DIAL	457	n/a	n/a	-1	1.0	1.0	1	upper	Verdana.ttf
-0.002	n/a	WORD	-1	wordpools/wasnorm_wordpool.txt	LTP107	ltpFR	17	15	-1	HAT	690	n/a	n/a	-1	1.0	1.0	1	upper	Verdana.ttf
-0.002	n/a	WORD	-1	wordpools/wasnorm_wordpool.txt	LTP107	ltpFR	17	15	-1	GREASE	660	n/a	n/a	-1	1.0	1.0	1	upper	Verdana.ttf
-0.002	n/a	WORD	-1	wordpools/wasnorm_wordpool.txt	LTP107	ltpFR	17	15	-1	SHED	1277	n/a	n/a	-1	1.0	1.0	1	upper	Verdana.ttf
-0.002	n/a	WORD	-1	wordpools/wasnorm_wordpool.txt	LTP107	ltpFR	17	15	-1	SNEAKER	1334	n/a	n/a	-1	1.0	1.0	1	upper	Verdana.ttf
-0.002	n/a	WORD	-1	wordpools/wasnorm_wordpool.txt	LTP107	ltpFR	17	15	-1	PUZZLE	1146	n/a	n/a	-1	1.0	1.0	1	upper	Verdana.ttf
-0.002	n/a	WORD	-1	wordpools/wasnorm_wordpool.txt	LTP107	ltpFR	17	15	-1	MOB	904	n/a	n/a	-1	1.0	1.0	1	upper	Verdana.ttf
-0.002	n/a	WORD	-1	wordpools/wasnorm_wordpool.txt	LTP107	ltpFR	17	15	-1	AUDIENCE	59	n/a	n/a	-1	1.0	1.0	1	upper	Verdana.ttf
-0.002	n/a	WORD	-1	wordpools/wasnorm_wordpool.txt	LTP107	ltpFR	17	15	-1	CHAUFFEUR	283	n/a	n/a	-1	1.0	1.0	1	upper	Verdana.ttf
-0.002	n/a	REC_START	-1	n/a	LTP107	ltpFR	17	15	n/a	n/a	n/a	n/a	n/a	n/a	n/a	n/a	n/a	n/a	n/a
-0.002	n/a	REC_WORD	-1	wordpools/wasnorm_wordpool.txt	LTP107	ltpFR	17	15	-1	CHAUFFEUR	283	n/a	n/a	-1	n/a	n/a	n/a	n/a	n/a
-0.002	n/a	REC_WORD	-1	wordpools/wasnorm_wordpool.txt	LTP107	ltpFR	17	15	-1	AUDIENCE	59	n/a	n/a	-1	n/a	n/a	n/a	n/a	n/a
-0.002	n/a	REC_WORD	-1	wordpools/wasnorm_wordpool.txt	LTP107	ltpFR	17	15	-1	MOB	904	n/a	n/a	-1	n/a	n/a	n/a	n/a	n/a
-0.002	n/a	REC_WORD	-1	wordpools/wasnorm_wordpool.txt	LTP107	ltpFR	17	15	-1	BOOTH	151	n/a	n/a	-1	n/a	n/a	n/a	n/a	n/a
-0.002	n/a	REC_WORD	-1	wordpools/wasnorm_wordpool.txt	LTP107	ltpFR	17	15	-1	CHAMBER	277	n/a	n/a	-1	n/a	n/a	n/a	n/a	n/a
-0.002	n/a	REC_WORD	-1	wordpools/wasnorm_wordpool.txt	LTP107	ltpFR	17	15	-1	WHEEL	1603	n/a	n/a	-1	n/a	n/a	n/a	n/a	n/a
-0.002	n/a	REC_WORD	-1	wordpools/wasnorm_wordpool.txt	LTP107	ltpFR	17	15	-1	MARINE	869	n/a	n/a	-1	n/a	n/a	n/a	n/a	n/a
-0.002	n/a	REC_WORD	-1	wordpools/wasnorm_wordpool.txt	LTP107	ltpFR	17	15	-1	JUG	762	n/a	n/a	-1	n/a	n/a	n/a	n/a	n/a
-0.002	n/a	REC_WORD	-1	wordpools/wasnorm_wordpool.txt	LTP107	ltpFR	17	15	-1	PUZZLE	1146	n/a	n/a	-1	n/a	n/a	n/a	n/a	n/a
-0.002	n/a	REC_WORD	-1	wordpools/wasnorm_wordpool.txt	LTP107	ltpFR	17	15	-1	BLUEPRINT	142	n/a	n/a	-1	n/a	n/a	n/a	n/a	n/a
-0.002	n/a	REC_WORD	-1	wordpools/wasnorm_wordpool.txt	LTP107	ltpFR	17	15	-1	GREASE	660	n/a	n/a	-1	n/a	n/a	n/a	n/a	n/a
-0.002	n/a	REC_WORD	-1	wordpools/wasnorm_wordpool.txt	LTP107	ltpFR	17	15	-1	AUDIENCE	59	n/a	n/a	-1	n/a	n/a	n/a	n/a	n/a
-0.002	n/a	REC_WORD	-1	wordpools/wasnorm_wordpool.txt	LTP107	ltpFR	17	15	-1	BASEMENT	94	n/a	n/a	-1	n/a	n/a	n/a	n/a	n/a
-0.002	n/a	REC_WORD	-1	wordpools/wasnorm_wordpool.txt	LTP107	ltpFR	17	15	-1	HOUSE	725	n/a	n/a	-1	n/a	n/a	n/a	n/a	n/a
-0.002	n/a	REC_WORD	-1	wordpools/wasnorm_wordpool.txt	LTP107	ltpFR	17	15	-1	SHED	1277	n/a	n/a	-1	n/a	n/a	n/a	n/a	n/a
-0.002	n/a	REC_WORD	-1	wordpools/wasnorm_wordpool.txt	LTP107	ltpFR	17	15	n/a	HOME	712	n/a	n/a	n/a	n/a	n/a	n/a	n/a	n/a
-0.002	n/a	REC_WORD	-1	wordpools/wasnorm_wordpool.txt	LTP107	ltpFR	17	15	-1	MOB	904	n/a	n/a	-1	n/a	n/a	n/a	n/a	n/a
-0.002	n/a	REC_WORD	-1	wordpools/wasnorm_wordpool.txt	LTP107	ltpFR	17	15	0	WALL	1582	n/a	n/a	1	n/a	n/a	n/a	n/a	n/a
-0.002	n/a	WORD	-1	wordpools/wasnorm_wordpool.txt	LTP107	ltpFR	17	16	0	GLUE	643	n/a	n/a	0	0.422607421875	0.5869140625	0	lower	zerothre.ttf
-0.002	n/a	WORD	-1	wordpools/wasnorm_wordpool.txt	LTP107	ltpFR	17	16	0	KNUCKLE	789	n/a	n/a	0	0.422607421875	0.5869140625	0	lower	zerothre.ttf
-0.002	n/a	WORD	-1	wordpools/wasnorm_wordpool.txt	LTP107	ltpFR	17	16	0	DIAGRAM	456	n/a	n/a	0	0.422607421875	0.5869140625	0	lower	zerothre.ttf
-0.002	n/a	WORD	-1	wordpools/wasnorm_wordpool.txt	LTP107	ltpFR	17	16	0	CHART	282	n/a	n/a	0	0.422607421875	0.5869140625	0	lower	zerothre.ttf
-0.002	n/a	WORD	-1	wordpools/wasnorm_wordpool.txt	LTP107	ltpFR	17	16	0	SALAD	1224	n/a	n/a	0	0.422607421875	0.5869140625	0	lower	zerothre.ttf
-0.002	n/a	WORD	-1	wordpools/wasnorm_wordpool.txt	LTP107	ltpFR	17	16	0	FLASK	576	n/a	n/a	0	0.422607421875	0.5869140625	0	lower	zerothre.ttf
-0.002	n/a	WORD	-1	wordpools/wasnorm_wordpool.txt	LTP107	ltpFR	17	16	0	TERRITORY	1452	n/a	n/a	1	0.422607421875	0.5869140625	0	lower	zerothre.ttf
-0.002	n/a	WORD	-1	wordpools/wasnorm_wordpool.txt	LTP107	ltpFR	17	16	0	REFRIGERATOR	1179	n/a	n/a	1	0.422607421875	0.5869140625	0	lower	zerothre.ttf
-0.002	n/a	WORD	-1	wordpools/wasnorm_wordpool.txt	LTP107	ltpFR	17	16	0	PLATE	1086	n/a	n/a	0	0.422607421875	0.5869140625	0	lower	zerothre.ttf
-0.002	n/a	WORD	-1	wordpools/wasnorm_wordpool.txt	LTP107	ltpFR	17	16	0	TABLE	1426	n/a	n/a	1	0.422607421875	0.5869140625	0	lower	zerothre.ttf
-0.002	n/a	WORD	-1	wordpools/wasnorm_wordpool.txt	LTP107	ltpFR	17	16	0	LAGOON	795	n/a	n/a	1	0.422607421875	0.5869140625	0	lower	zerothre.ttf
-0.002	n/a	WORD	-1	wordpools/wasnorm_wordpool.txt	LTP107	ltpFR	17	16	0	COLLEGE	346	n/a	n/a	1	0.422607421875	0.5869140625	0	lower	zerothre.ttf
-0.002	n/a	WORD	-1	wordpools/wasnorm_wordpool.txt	LTP107	ltpFR	17	16	0	MAJOR	859	n/a	n/a	1	0.422607421875	0.5869140625	0	lower	zerothre.ttf
-0.002	n/a	WORD	-1	wordpools/wasnorm_wordpool.txt	LTP107	ltpFR	17	16	0	KNAPSACK	783	n/a	n/a	0	0.422607421875	0.5869140625	0	lower	zerothre.ttf
-0.002	n/a	WORD	-1	wordpools/wasnorm_wordpool.txt	LTP107	ltpFR	17	16	0	BEAN	105	n/a	n/a	0	0.422607421875	0.5869140625	0	lower	zerothre.ttf
-0.002	n/a	WORD	-1	wordpools/wasnorm_wordpool.txt	LTP107	ltpFR	17	16	0	COUCH	386	n/a	n/a	1	0.422607421875	0.5869140625	0	lower	zerothre.ttf
-0.002	n/a	REC_START	-1	n/a	LTP107	ltpFR	17	16	n/a	n/a	n/a	n/a	n/a	n/a	n/a	n/a	n/a	n/a	n/a
-0.002	n/a	REC_WORD	-1	wordpools/wasnorm_wordpool.txt	LTP107	ltpFR	17	16	0	COUCH	386	n/a	n/a	1	n/a	n/a	n/a	n/a	n/a
-0.002	n/a	REC_WORD	-1	wordpools/wasnorm_wordpool.txt	LTP107	ltpFR	17	16	0	BEAN	105	n/a	n/a	0	n/a	n/a	n/a	n/a	n/a
-0.002	n/a	REC_WORD	-1	wordpools/wasnorm_wordpool.txt	LTP107	ltpFR	17	16	0	KNAPSACK	783	n/a	n/a	0	n/a	n/a	n/a	n/a	n/a
-0.002	n/a	REC_WORD	-1	wordpools/wasnorm_wordpool.txt	LTP107	ltpFR	17	16	0	PLATE	1086	n/a	n/a	0	n/a	n/a	n/a	n/a	n/a
-0.002	n/a	REC_WORD	-1	wordpools/wasnorm_wordpool.txt	LTP107	ltpFR	17	16	0	TABLE	1426	n/a	n/a	1	n/a	n/a	n/a	n/a	n/a
-0.002	n/a	REC_WORD	-1	wordpools/wasnorm_wordpool.txt	LTP107	ltpFR	17	16	0	COLLEGE	346	n/a	n/a	1	n/a	n/a	n/a	n/a	n/a
-0.002	n/a	REC_WORD	-1	wordpools/wasnorm_wordpool.txt	LTP107	ltpFR	17	16	0	MAJOR	859	n/a	n/a	1	n/a	n/a	n/a	n/a	n/a
-0.002	n/a	REC_WORD	-1	wordpools/wasnorm_wordpool.txt	LTP107	ltpFR	17	16	0	GLUE	643	n/a	n/a	0	n/a	n/a	n/a	n/a	n/a
-0.002	n/a	REC_WORD	-1	wordpools/wasnorm_wordpool.txt	LTP107	ltpFR	17	16	0	KNUCKLE	789	n/a	n/a	0	n/a	n/a	n/a	n/a	n/a
-0.002	n/a	REC_WORD	-1	wordpools/wasnorm_wordpool.txt	LTP107	ltpFR	17	16	0	SALAD	1224	n/a	n/a	0	n/a	n/a	n/a	n/a	n/a
-0.002	n/a	REC_WORD	-1	wordpools/wasnorm_wordpool.txt	LTP107	ltpFR	17	16	0	FLASK	576	n/a	n/a	0	n/a	n/a	n/a	n/a	n/a
-0.002	n/a	REC_WORD	-1	wordpools/wasnorm_wordpool.txt	LTP107	ltpFR	17	16	0	REFRIGERATOR	1179	n/a	n/a	1	n/a	n/a	n/a	n/a	n/a
-0.002	n/a	REC_WORD_VV	-1	wordpools/wasnorm_wordpool.txt	LTP107	ltpFR	17	16	n/a	<>	-1	n/a	n/a	n/a	n/a	n/a	n/a	n/a	n/a
-0.002	n/a	REC_WORD	-1	wordpools/wasnorm_wordpool.txt	LTP107	ltpFR	17	16	0	GLUE	643	n/a	n/a	0	n/a	n/a	n/a	n/a	n/a
-0.002	n/a	REC_WORD	-1	wordpools/wasnorm_wordpool.txt	LTP107	ltpFR	17	16	0	DIAGRAM	456	n/a	n/a	0	n/a	n/a	n/a	n/a	n/a
-0.002	n/a	REC_WORD	-1	wordpools/wasnorm_wordpool.txt	LTP107	ltpFR	17	16	-1	REPORT	1184	n/a	n/a	-1	n/a	n/a	n/a	n/a	n/a
-0.002	n/a	REC_WORD	-1	wordpools/wasnorm_wordpool.txt	LTP107	ltpFR	17	16	-1	BLUEPRINT	142	n/a	n/a	-1	n/a	n/a	n/a	n/a	n/a
-0.002	n/a	REC_WORD	-1	wordpools/wasnorm_wordpool.txt	LTP107	ltpFR	17	16	-1	PUZZLE	1146	n/a	n/a	-1	n/a	n/a	n/a	n/a	n/a
-0.002	n/a	REC_WORD	-1	wordpools/wasnorm_wordpool.txt	LTP107	ltpFR	17	16	0	DIAGRAM	456	n/a	n/a	0	n/a	n/a	n/a	n/a	n/a
-0.002	n/a	REC_WORD	-1	wordpools/wasnorm_wordpool.txt	LTP107	ltpFR	17	16	0	TERRITORY	1452	n/a	n/a	1	n/a	n/a	n/a	n/a	n/a
-0.002	n/a	REC_WORD	-1	wordpools/wasnorm_wordpool.txt	LTP107	ltpFR	17	16	n/a	MARS	873	n/a	n/a	n/a	n/a	n/a	n/a	n/a	n/a
-0.002	n/a	REC_WORD	-1	wordpools/wasnorm_wordpool.txt	LTP107	ltpFR	17	16	n/a	SWAMP	1416	n/a	n/a	n/a	n/a	n/a	n/a	n/a	n/a
-0.002	n/a	REC_WORD	-1	wordpools/wasnorm_wordpool.txt	LTP107	ltpFR	17	16	0	LAGOON	795	n/a	n/a	1	n/a	n/a	n/a	n/a	n/a
-0.002	n/a	REC_START	-1	n/a	LTP107	ltpFR	17	1	n/a	n/a	n/a	n/a	n/a	n/a	n/a	n/a	n/a	n/a	n/a
-0.002	n/a	RECOG_TARGET	-1	n/a	LTP107	ltpFR	17	1	0	MAJOR	859	1	5	1	n/a	n/a	n/a	n/a	n/a
-0.002	n/a	RECOG_RESP	-1	n/a	LTP107	ltpFR	17	1	0	MAJOR	859	1	n/a	1	n/a	n/a	n/a	n/a	n/a
-0.002	n/a	RECOG_CONF	-1	n/a	LTP107	ltpFR	17	1	0	MAJOR	859	n/a	5	1	n/a	n/a	n/a	n/a	n/a
-0.002	n/a	RECOG_TARGET	-1	n/a	LTP107	ltpFR	17	1	1	COWBOY	395	1	5	1	n/a	n/a	n/a	n/a	n/a
-0.002	n/a	RECOG_RESP	-1	n/a	LTP107	ltpFR	17	1	1	COWBOY	395	1	n/a	1	n/a	n/a	n/a	n/a	n/a
-0.002	n/a	RECOG_CONF	-1	n/a	LTP107	ltpFR	17	1	1	COWBOY	395	n/a	5	1	n/a	n/a	n/a	n/a	n/a
-0.002	n/a	RECOG_TARGET	-1	n/a	LTP107	ltpFR	17	1	1	SPATULA	1348	1	5	0	n/a	n/a	n/a	n/a	n/a
-0.002	n/a	RECOG_RESP	-1	n/a	LTP107	ltpFR	17	1	1	SPATULA	1348	1	n/a	0	n/a	n/a	n/a	n/a	n/a
-0.002	n/a	RECOG_CONF	-1	n/a	LTP107	ltpFR	17	1	1	SPATULA	1348	n/a	5	0	n/a	n/a	n/a	n/a	n/a
-0.002	n/a	RECOG_TARGET	-1	n/a	LTP107	ltpFR	17	1	-1	PUZZLE	1146	1	5	-1	n/a	n/a	n/a	n/a	n/a
-0.002	n/a	RECOG_RESP	-1	n/a	LTP107	ltpFR	17	1	-1	PUZZLE	1146	1	n/a	-1	n/a	n/a	n/a	n/a	n/a
-0.002	n/a	RECOG_CONF	-1	n/a	LTP107	ltpFR	17	1	-1	PUZZLE	1146	n/a	5	-1	n/a	n/a	n/a	n/a	n/a
-0.002	n/a	RECOG_TARGET	-1	n/a	LTP107	ltpFR	17	1	1	PLASTER	1085	1	5	0	n/a	n/a	n/a	n/a	n/a
-0.002	n/a	RECOG_RESP	-1	n/a	LTP107	ltpFR	17	1	1	PLASTER	1085	1	n/a	0	n/a	n/a	n/a	n/a	n/a
-0.002	n/a	RECOG_RESP_VV	-1	n/a	LTP107	ltpFR	17	1	1	PLASTER	1085	n/a	5	0	n/a	n/a	n/a	n/a	n/a
-0.002	n/a	RECOG_CONF	-1	n/a	LTP107	ltpFR	17	1	1	PLASTER	1085	n/a	5	0	n/a	n/a	n/a	n/a	n/a
-0.002	n/a	RECOG_TARGET	-1	n/a	LTP107	ltpFR	17	1	0	REFRIGERATOR	1179	1	5	1	n/a	n/a	n/a	n/a	n/a
-0.002	n/a	RECOG_RESP	-1	n/a	LTP107	ltpFR	17	1	0	REFRIGERATOR	1179	1	n/a	1	n/a	n/a	n/a	n/a	n/a
-0.002	n/a	RECOG_CONF	-1	n/a	LTP107	ltpFR	17	1	0	REFRIGERATOR	1179	n/a	5	1	n/a	n/a	n/a	n/a	n/a
-0.002	n/a	RECOG_TARGET	-1	n/a	LTP107	ltpFR	17	1	1	LIMB	822	1	5	0	n/a	n/a	n/a	n/a	n/a
-0.002	n/a	RECOG_RESP	-1	n/a	LTP107	ltpFR	17	1	1	LIMB	822	1	n/a	0	n/a	n/a	n/a	n/a	n/a
-0.002	n/a	RECOG_CONF	-1	n/a	LTP107	ltpFR	17	1	1	LIMB	822	n/a	5	0	n/a	n/a	n/a	n/a	n/a
-0.002	n/a	RECOG_TARGET	-1	n/a	LTP107	ltpFR	17	1	0	SCRIBBLE	1256	1	3	0	n/a	n/a	n/a	n/a	n/a
-0.002	n/a	RECOG_RESP	-1	n/a	LTP107	ltpFR	17	1	0	SCRIBBLE	1256	1	n/a	0	n/a	n/a	n/a	n/a	n/a
-0.002	n/a	RECOG_CONF	-1	n/a	LTP107	ltpFR	17	1	0	SCRIBBLE	1256	n/a	3	0	n/a	n/a	n/a	n/a	n/a
-0.002	n/a	RECOG_TARGET	-1	n/a	LTP107	ltpFR	17	1	1	FOUNTAIN	597	1	5	0	n/a	n/a	n/a	n/a	n/a
-0.002	n/a	RECOG_RESP	-1	n/a	LTP107	ltpFR	17	1	1	FOUNTAIN	597	1	n/a	0	n/a	n/a	n/a	n/a	n/a
-0.002	n/a	RECOG_CONF	-1	n/a	LTP107	ltpFR	17	1	1	FOUNTAIN	597	n/a	5	0	n/a	n/a	n/a	n/a	n/a
-0.002	n/a	RECOG_TARGET	-1	n/a	LTP107	ltpFR	17	1	0	PUDDLE	1140	1	5	0	n/a	n/a	n/a	n/a	n/a
-0.002	n/a	RECOG_RESP	-1	n/a	LTP107	ltpFR	17	1	0	PUDDLE	1140	1	n/a	0	n/a	n/a	n/a	n/a	n/a
-0.002	n/a	RECOG_CONF	-1	n/a	LTP107	ltpFR	17	1	0	PUDDLE	1140	n/a	5	0	n/a	n/a	n/a	n/a	n/a
-0.002	n/a	RECOG_TARGET	-1	n/a	LTP107	ltpFR	17	1	0	LAGOON	795	1	5	1	n/a	n/a	n/a	n/a	n/a
-0.002	n/a	RECOG_RESP	-1	n/a	LTP107	ltpFR	17	1	0	LAGOON	795	1	n/a	1	n/a	n/a	n/a	n/a	n/a
-0.002	n/a	RECOG_CONF	-1	n/a	LTP107	ltpFR	17	1	0	LAGOON	795	n/a	5	1	n/a	n/a	n/a	n/a	n/a
-0.002	n/a	RECOG_TARGET	-1	n/a	LTP107	ltpFR	17	1	-1	CHECKERS	285	1	5	-1	n/a	n/a	n/a	n/a	n/a
-0.002	n/a	RECOG_RESP	-1	n/a	LTP107	ltpFR	17	1	-1	CHECKERS	285	1	n/a	-1	n/a	n/a	n/a	n/a	n/a
-0.002	n/a	RECOG_CONF	-1	n/a	LTP107	ltpFR	17	1	-1	CHECKERS	285	n/a	5	-1	n/a	n/a	n/a	n/a	n/a
-0.002	n/a	RECOG_TARGET	-1	n/a	LTP107	ltpFR	17	1	1	RUG	1215	1	5	0	n/a	n/a	n/a	n/a	n/a
-0.002	n/a	RECOG_RESP	-1	n/a	LTP107	ltpFR	17	1	1	RUG	1215	1	n/a	0	n/a	n/a	n/a	n/a	n/a
-0.002	n/a	RECOG_CONF	-1	n/a	LTP107	ltpFR	17	1	1	RUG	1215	n/a	5	0	n/a	n/a	n/a	n/a	n/a
-0.002	n/a	RECOG_LURE	-1	n/a	LTP107	ltpFR	17	1	n/a	GAZELLE	628	0	5	n/a	n/a	n/a	n/a	n/a	n/a
-0.002	n/a	RECOG_RESP	-1	n/a	LTP107	ltpFR	17	1	n/a	GAZELLE	628	0	n/a	n/a	n/a	n/a	n/a	n/a	n/a
-0.002	n/a	RECOG_CONF	-1	n/a	LTP107	ltpFR	17	1	n/a	GAZELLE	628	n/a	5	n/a	n/a	n/a	n/a	n/a	n/a
-0.002	n/a	RECOG_LURE	-1	n/a	LTP107	ltpFR	17	1	n/a	DIRT	472	0	3	n/a	n/a	n/a	n/a	n/a	n/a
-0.002	n/a	RECOG_RESP	-1	n/a	LTP107	ltpFR	17	1	n/a	DIRT	472	0	n/a	n/a	n/a	n/a	n/a	n/a	n/a
-0.002	n/a	RECOG_CONF	-1	n/a	LTP107	ltpFR	17	1	n/a	DIRT	472	n/a	3	n/a	n/a	n/a	n/a	n/a	n/a
-0.002	n/a	RECOG_LURE	-1	n/a	LTP107	ltpFR	17	1	n/a	VOLCANO	1575	0	5	n/a	n/a	n/a	n/a	n/a	n/a
-0.002	n/a	RECOG_RESP	-1	n/a	LTP107	ltpFR	17	1	n/a	VOLCANO	1575	0	n/a	n/a	n/a	n/a	n/a	n/a	n/a
-0.002	n/a	RECOG_CONF	-1	n/a	LTP107	ltpFR	17	1	n/a	VOLCANO	1575	n/a	5	n/a	n/a	n/a	n/a	n/a	n/a
-0.002	n/a	RECOG_TARGET	-1	n/a	LTP107	ltpFR	17	1	0	POSSUM	1112	1	5	1	n/a	n/a	n/a	n/a	n/a
-0.002	n/a	RECOG_RESP	-1	n/a	LTP107	ltpFR	17	1	0	POSSUM	1112	1	n/a	1	n/a	n/a	n/a	n/a	n/a
-0.002	n/a	RECOG_CONF	-1	n/a	LTP107	ltpFR	17	1	0	POSSUM	1112	n/a	5	1	n/a	n/a	n/a	n/a	n/a
-0.002	n/a	RECOG_TARGET	-1	n/a	LTP107	ltpFR	17	1	-1	HAT	690	1	3	-1	n/a	n/a	n/a	n/a	n/a
-0.002	n/a	RECOG_RESP	-1	n/a	LTP107	ltpFR	17	1	-1	HAT	690	1	n/a	-1	n/a	n/a	n/a	n/a	n/a
-0.002	n/a	RECOG_CONF	-1	n/a	LTP107	ltpFR	17	1	-1	HAT	690	n/a	3	-1	n/a	n/a	n/a	n/a	n/a
-0.002	n/a	RECOG_LURE	-1	n/a	LTP107	ltpFR	17	1	n/a	CHEEK	287	0	3	n/a	n/a	n/a	n/a	n/a	n/a
-0.002	n/a	RECOG_RESP	-1	n/a	LTP107	ltpFR	17	1	n/a	CHEEK	287	0	n/a	n/a	n/a	n/a	n/a	n/a	n/a
-0.002	n/a	RECOG_CONF	-1	n/a	LTP107	ltpFR	17	1	n/a	CHEEK	287	n/a	3	n/a	n/a	n/a	n/a	n/a	n/a
-0.002	n/a	RECOG_TARGET	-1	n/a	LTP107	ltpFR	17	1	-1	WILDERNESS	1610	1	5	-1	n/a	n/a	n/a	n/a	n/a
-0.002	n/a	RECOG_RESP	-1	n/a	LTP107	ltpFR	17	1	-1	WILDERNESS	1610	1	n/a	-1	n/a	n/a	n/a	n/a	n/a
-0.002	n/a	RECOG_CONF	-1	n/a	LTP107	ltpFR	17	1	-1	WILDERNESS	1610	n/a	5	-1	n/a	n/a	n/a	n/a	n/a
-0.002	n/a	REC_START	-1	n/a	LTP107	ltpFR	17	2	n/a	n/a	n/a	n/a	n/a	n/a	n/a	n/a	n/a	n/a	n/a
-0.002	n/a	RECOG_LURE	-1	n/a	LTP107	ltpFR	17	2	n/a	CHEMICAL	291	0	4	n/a	n/a	n/a	n/a	n/a	n/a
-0.002	n/a	RECOG_RESP	-1	n/a	LTP107	ltpFR	17	2	n/a	CHEMICAL	291	0	n/a	n/a	n/a	n/a	n/a	n/a	n/a
-0.002	n/a	RECOG_CONF	-1	n/a	LTP107	ltpFR	17	2	n/a	CHEMICAL	291	n/a	4	n/a	n/a	n/a	n/a	n/a	n/a
-0.002	n/a	RECOG_TARGET	-1	n/a	LTP107	ltpFR	17	2	0	VIKING	1565	1	5	1	n/a	n/a	n/a	n/a	n/a
-0.002	n/a	RECOG_RESP	-1	n/a	LTP107	ltpFR	17	2	0	VIKING	1565	1	n/a	1	n/a	n/a	n/a	n/a	n/a
-0.002	n/a	RECOG_CONF	-1	n/a	LTP107	ltpFR	17	2	0	VIKING	1565	n/a	5	1	n/a	n/a	n/a	n/a	n/a
-0.002	n/a	RECOG_TARGET	-1	n/a	LTP107	ltpFR	17	2	-1	SKI	1316	1	5	-1	n/a	n/a	n/a	n/a	n/a
-0.002	n/a	RECOG_RESP	-1	n/a	LTP107	ltpFR	17	2	-1	SKI	1316	1	n/a	-1	n/a	n/a	n/a	n/a	n/a
-0.002	n/a	RECOG_CONF	-1	n/a	LTP107	ltpFR	17	2	-1	SKI	1316	n/a	5	-1	n/a	n/a	n/a	n/a	n/a
-0.002	n/a	RECOG_TARGET	-1	n/a	LTP107	ltpFR	17	2	1	BASKET	95	1	4	0	n/a	n/a	n/a	n/a	n/a
-0.002	n/a	RECOG_RESP	-1	n/a	LTP107	ltpFR	17	2	1	BASKET	95	1	n/a	0	n/a	n/a	n/a	n/a	n/a
-0.002	n/a	RECOG_CONF	-1	n/a	LTP107	ltpFR	17	2	1	BASKET	95	n/a	4	0	n/a	n/a	n/a	n/a	n/a
-0.002	n/a	RECOG_TARGET	-1	n/a	LTP107	ltpFR	17	2	1	DOVE	491	1	5	1	n/a	n/a	n/a	n/a	n/a
-0.002	n/a	RECOG_RESP	-1	n/a	LTP107	ltpFR	17	2	1	DOVE	491	1	n/a	1	n/a	n/a	n/a	n/a	n/a
-0.002	n/a	RECOG_CONF	-1	n/a	LTP107	ltpFR	17	2	1	DOVE	491	n/a	5	1	n/a	n/a	n/a	n/a	n/a
-0.002	n/a	RECOG_LURE	-1	n/a	LTP107	ltpFR	17	2	n/a	BLOUSE	139	0	4	n/a	n/a	n/a	n/a	n/a	n/a
-0.002	n/a	RECOG_RESP	-1	n/a	LTP107	ltpFR	17	2	n/a	BLOUSE	139	0	n/a	n/a	n/a	n/a	n/a	n/a	n/a
-0.002	n/a	RECOG_CONF	-1	n/a	LTP107	ltpFR	17	2	n/a	BLOUSE	139	n/a	4	n/a	n/a	n/a	n/a	n/a	n/a
-0.002	n/a	RECOG_LURE	-1	n/a	LTP107	ltpFR	17	2	n/a	VICTOR	1563	0	2	n/a	n/a	n/a	n/a	n/a	n/a
-0.002	n/a	RECOG_RESP	-1	n/a	LTP107	ltpFR	17	2	n/a	VICTOR	1563	0	n/a	n/a	n/a	n/a	n/a	n/a	n/a
-0.002	n/a	RECOG_CONF	-1	n/a	LTP107	ltpFR	17	2	n/a	VICTOR	1563	n/a	2	n/a	n/a	n/a	n/a	n/a	n/a
-0.002	n/a	RECOG_LURE	-1	n/a	LTP107	ltpFR	17	2	n/a	HONEY	713	0	4	n/a	n/a	n/a	n/a	n/a	n/a
-0.002	n/a	RECOG_RESP	-1	n/a	LTP107	ltpFR	17	2	n/a	HONEY	713	0	n/a	n/a	n/a	n/a	n/a	n/a	n/a
-0.002	n/a	RECOG_CONF	-1	n/a	LTP107	ltpFR	17	2	n/a	HONEY	713	n/a	4	n/a	n/a	n/a	n/a	n/a	n/a
-0.002	n/a	RECOG_LURE	-1	n/a	LTP107	ltpFR	17	2	n/a	STOVE	1388	0	3	n/a	n/a	n/a	n/a	n/a	n/a
-0.002	n/a	RECOG_RESP	-1	n/a	LTP107	ltpFR	17	2	n/a	STOVE	1388	0	n/a	n/a	n/a	n/a	n/a	n/a	n/a
-0.002	n/a	RECOG_CONF	-1	n/a	LTP107	ltpFR	17	2	n/a	STOVE	1388	n/a	3	n/a	n/a	n/a	n/a	n/a	n/a
-0.002	n/a	RECOG_TARGET	-1	n/a	LTP107	ltpFR	17	2	-1	HOUSE	725	1	4	-1	n/a	n/a	n/a	n/a	n/a
-0.002	n/a	RECOG_RESP	-1	n/a	LTP107	ltpFR	17	2	-1	HOUSE	725	1	n/a	-1	n/a	n/a	n/a	n/a	n/a
-0.002	n/a	RECOG_CONF	-1	n/a	LTP107	ltpFR	17	2	-1	HOUSE	725	n/a	4	-1	n/a	n/a	n/a	n/a	n/a
-0.002	n/a	RECOG_TARGET	-1	n/a	LTP107	ltpFR	17	2	-1	TOAST	1471	1	4	-1	n/a	n/a	n/a	n/a	n/a
-0.002	n/a	RECOG_RESP	-1	n/a	LTP107	ltpFR	17	2	-1	TOAST	1471	1	n/a	-1	n/a	n/a	n/a	n/a	n/a
-0.002	n/a	RECOG_CONF	-1	n/a	LTP107	ltpFR	17	2	-1	TOAST	1471	n/a	4	-1	n/a	n/a	n/a	n/a	n/a
-0.002	n/a	RECOG_TARGET	-1	n/a	LTP107	ltpFR	17	2	0	COYOTE	396	1	5	1	n/a	n/a	n/a	n/a	n/a
-0.002	n/a	RECOG_RESP	-1	n/a	LTP107	ltpFR	17	2	0	COYOTE	396	1	n/a	1	n/a	n/a	n/a	n/a	n/a
-0.002	n/a	RECOG_CONF	-1	n/a	LTP107	ltpFR	17	2	0	COYOTE	396	n/a	5	1	n/a	n/a	n/a	n/a	n/a
-0.002	n/a	RECOG_TARGET	-1	n/a	LTP107	ltpFR	17	2	1	LAKE	796	0	2	0	n/a	n/a	n/a	n/a	n/a
-0.002	n/a	RECOG_RESP	-1	n/a	LTP107	ltpFR	17	2	1	LAKE	796	0	n/a	0	n/a	n/a	n/a	n/a	n/a
-0.002	n/a	RECOG_CONF	-1	n/a	LTP107	ltpFR	17	2	1	LAKE	796	n/a	2	0	n/a	n/a	n/a	n/a	n/a
-0.002	n/a	RECOG_TARGET	-1	n/a	LTP107	ltpFR	17	2	-1	JUG	762	1	5	-1	n/a	n/a	n/a	n/a	n/a
-0.002	n/a	RECOG_RESP	-1	n/a	LTP107	ltpFR	17	2	-1	JUG	762	1	n/a	-1	n/a	n/a	n/a	n/a	n/a
-0.002	n/a	RECOG_CONF	-1	n/a	LTP107	ltpFR	17	2	-1	JUG	762	n/a	5	-1	n/a	n/a	n/a	n/a	n/a
-0.002	n/a	RECOG_TARGET	-1	n/a	LTP107	ltpFR	17	2	-1	SHAMPOO	1274	1	5	-1	n/a	n/a	n/a	n/a	n/a
-0.002	n/a	RECOG_RESP	-1	n/a	LTP107	ltpFR	17	2	-1	SHAMPOO	1274	1	n/a	-1	n/a	n/a	n/a	n/a	n/a
-0.002	n/a	RECOG_CONF	-1	n/a	LTP107	ltpFR	17	2	-1	SHAMPOO	1274	n/a	5	-1	n/a	n/a	n/a	n/a	n/a
-0.002	n/a	RECOG_TARGET	-1	n/a	LTP107	ltpFR	17	2	-1	PIKE	1067	1	5	-1	n/a	n/a	n/a	n/a	n/a
-0.002	n/a	RECOG_RESP	-1	n/a	LTP107	ltpFR	17	2	-1	PIKE	1067	1	n/a	-1	n/a	n/a	n/a	n/a	n/a
-0.002	n/a	RECOG_CONF	-1	n/a	LTP107	ltpFR	17	2	-1	PIKE	1067	n/a	5	-1	n/a	n/a	n/a	n/a	n/a
-0.002	n/a	RECOG_TARGET	-1	n/a	LTP107	ltpFR	17	2	1	FLY	586	1	5	1	n/a	n/a	n/a	n/a	n/a
-0.002	n/a	RECOG_RESP	-1	n/a	LTP107	ltpFR	17	2	1	FLY	586	1	n/a	1	n/a	n/a	n/a	n/a	n/a
-0.002	n/a	RECOG_CONF	-1	n/a	LTP107	ltpFR	17	2	1	FLY	586	n/a	5	1	n/a	n/a	n/a	n/a	n/a
-0.002	n/a	RECOG_TARGET	-1	n/a	LTP107	ltpFR	17	2	-1	FOLDER	588	1	5	-1	n/a	n/a	n/a	n/a	n/a
-0.002	n/a	RECOG_RESP	-1	n/a	LTP107	ltpFR	17	2	-1	FOLDER	588	1	n/a	-1	n/a	n/a	n/a	n/a	n/a
-0.002	n/a	RECOG_CONF	-1	n/a	LTP107	ltpFR	17	2	-1	FOLDER	588	n/a	5	-1	n/a	n/a	n/a	n/a	n/a
-0.002	n/a	RECOG_TARGET	-1	n/a	LTP107	ltpFR	17	2	-1	WHEEL	1603	1	5	-1	n/a	n/a	n/a	n/a	n/a
-0.002	n/a	RECOG_RESP	-1	n/a	LTP107	ltpFR	17	2	-1	WHEEL	1603	1	n/a	-1	n/a	n/a	n/a	n/a	n/a
-0.002	n/a	RECOG_CONF	-1	n/a	LTP107	ltpFR	17	2	-1	WHEEL	1603	n/a	5	-1	n/a	n/a	n/a	n/a	n/a
-0.002	n/a	RECOG_LURE	-1	n/a	LTP107	ltpFR	17	2	n/a	HOSPITAL	721	1	3	n/a	n/a	n/a	n/a	n/a	n/a
-0.002	n/a	RECOG_RESP	-1	n/a	LTP107	ltpFR	17	2	n/a	HOSPITAL	721	1	n/a	n/a	n/a	n/a	n/a	n/a	n/a
-0.002	n/a	RECOG_CONF	-1	n/a	LTP107	ltpFR	17	2	n/a	HOSPITAL	721	n/a	3	n/a	n/a	n/a	n/a	n/a	n/a
-0.002	n/a	REC_START	-1	n/a	LTP107	ltpFR	17	3	n/a	n/a	n/a	n/a	n/a	n/a	n/a	n/a	n/a	n/a	n/a
-0.002	n/a	RECOG_TARGET	-1	n/a	LTP107	ltpFR	17	3	0	WORKER	1621	1	5	1	n/a	n/a	n/a	n/a	n/a
-0.002	n/a	RECOG_RESP	-1	n/a	LTP107	ltpFR	17	3	0	WORKER	1621	1	n/a	1	n/a	n/a	n/a	n/a	n/a
-0.002	n/a	RECOG_CONF	-1	n/a	LTP107	ltpFR	17	3	0	WORKER	1621	n/a	5	1	n/a	n/a	n/a	n/a	n/a
-0.002	n/a	RECOG_TARGET	-1	n/a	LTP107	ltpFR	17	3	0	UNCLE	1536	1	5	1	n/a	n/a	n/a	n/a	n/a
-0.002	n/a	RECOG_RESP	-1	n/a	LTP107	ltpFR	17	3	0	UNCLE	1536	1	n/a	1	n/a	n/a	n/a	n/a	n/a
-0.002	n/a	RECOG_CONF	-1	n/a	LTP107	ltpFR	17	3	0	UNCLE	1536	n/a	5	1	n/a	n/a	n/a	n/a	n/a
-0.002	n/a	RECOG_TARGET	-1	n/a	LTP107	ltpFR	17	3	0	COACH	331	1	5	1	n/a	n/a	n/a	n/a	n/a
-0.002	n/a	RECOG_RESP	-1	n/a	LTP107	ltpFR	17	3	0	COACH	331	1	n/a	1	n/a	n/a	n/a	n/a	n/a
-0.002	n/a	RECOG_CONF	-1	n/a	LTP107	ltpFR	17	3	0	COACH	331	n/a	5	1	n/a	n/a	n/a	n/a	n/a
-0.002	n/a	RECOG_TARGET	-1	n/a	LTP107	ltpFR	17	3	0	MINER	896	1	5	1	n/a	n/a	n/a	n/a	n/a
-0.002	n/a	RECOG_RESP	-1	n/a	LTP107	ltpFR	17	3	0	MINER	896	1	n/a	1	n/a	n/a	n/a	n/a	n/a
-0.002	n/a	RECOG_CONF	-1	n/a	LTP107	ltpFR	17	3	0	MINER	896	n/a	5	1	n/a	n/a	n/a	n/a	n/a
-0.002	n/a	RECOG_TARGET	-1	n/a	LTP107	ltpFR	17	3	1	MISTER	901	1	5	1	n/a	n/a	n/a	n/a	n/a
-0.002	n/a	RECOG_RESP	-1	n/a	LTP107	ltpFR	17	3	1	MISTER	901	1	n/a	1	n/a	n/a	n/a	n/a	n/a
-0.002	n/a	RECOG_CONF	-1	n/a	LTP107	ltpFR	17	3	1	MISTER	901	n/a	5	1	n/a	n/a	n/a	n/a	n/a
-0.002	n/a	RECOG_LURE	-1	n/a	LTP107	ltpFR	17	3	n/a	MICROPHONE	890	0	5	n/a	n/a	n/a	n/a	n/a	n/a
-0.002	n/a	RECOG_RESP	-1	n/a	LTP107	ltpFR	17	3	n/a	MICROPHONE	890	0	n/a	n/a	n/a	n/a	n/a	n/a	n/a
-0.002	n/a	RECOG_CONF	-1	n/a	LTP107	ltpFR	17	3	n/a	MICROPHONE	890	n/a	5	n/a	n/a	n/a	n/a	n/a	n/a
-0.002	n/a	RECOG_TARGET	-1	n/a	LTP107	ltpFR	17	3	1	EMERALD	528	0	2	0	n/a	n/a	n/a	n/a	n/a
-0.002	n/a	RECOG_RESP	-1	n/a	LTP107	ltpFR	17	3	1	EMERALD	528	0	n/a	0	n/a	n/a	n/a	n/a	n/a
-0.002	n/a	RECOG_CONF	-1	n/a	LTP107	ltpFR	17	3	1	EMERALD	528	n/a	2	0	n/a	n/a	n/a	n/a	n/a
-0.002	n/a	RECOG_TARGET	-1	n/a	LTP107	ltpFR	17	3	0	SISTER	1312	1	5	1	n/a	n/a	n/a	n/a	n/a
-0.002	n/a	RECOG_RESP	-1	n/a	LTP107	ltpFR	17	3	0	SISTER	1312	1	n/a	1	n/a	n/a	n/a	n/a	n/a
-0.002	n/a	RECOG_CONF	-1	n/a	LTP107	ltpFR	17	3	0	SISTER	1312	n/a	5	1	n/a	n/a	n/a	n/a	n/a
-0.002	n/a	RECOG_LURE	-1	n/a	LTP107	ltpFR	17	3	n/a	PIZZA	1079	0	3	n/a	n/a	n/a	n/a	n/a	n/a
-0.002	n/a	RECOG_RESP_VV	-1	n/a	LTP107	ltpFR	17	3	n/a	PIZZA	1079	1	n/a	n/a	n/a	n/a	n/a	n/a	n/a
-0.002	n/a	RECOG_RESP	-1	n/a	LTP107	ltpFR	17	3	n/a	PIZZA	1079	0	n/a	n/a	n/a	n/a	n/a	n/a	n/a
-0.002	n/a	RECOG_CONF	-1	n/a	LTP107	ltpFR	17	3	n/a	PIZZA	1079	n/a	3	n/a	n/a	n/a	n/a	n/a	n/a
-0.002	n/a	RECOG_TARGET	-1	n/a	LTP107	ltpFR	17	3	0	FUNGUS	614	1	5	0	n/a	n/a	n/a	n/a	n/a
-0.002	n/a	RECOG_RESP	-1	n/a	LTP107	ltpFR	17	3	0	FUNGUS	614	1	n/a	0	n/a	n/a	n/a	n/a	n/a
-0.002	n/a	RECOG_CONF	-1	n/a	LTP107	ltpFR	17	3	0	FUNGUS	614	n/a	5	0	n/a	n/a	n/a	n/a	n/a
-0.002	n/a	RECOG_TARGET	-1	n/a	LTP107	ltpFR	17	3	-1	DRAWING	494	1	2	-1	n/a	n/a	n/a	n/a	n/a
-0.002	n/a	RECOG_RESP	-1	n/a	LTP107	ltpFR	17	3	-1	DRAWING	494	1	n/a	-1	n/a	n/a	n/a	n/a	n/a
-0.002	n/a	RECOG_CONF	-1	n/a	LTP107	ltpFR	17	3	-1	DRAWING	494	n/a	2	-1	n/a	n/a	n/a	n/a	n/a
-0.002	n/a	RECOG_LURE	-1	n/a	LTP107	ltpFR	17	3	n/a	SPOUSE	1358	0	3	n/a	n/a	n/a	n/a	n/a	n/a
-0.002	n/a	RECOG_RESP	-1	n/a	LTP107	ltpFR	17	3	n/a	SPOUSE	1358	0	n/a	n/a	n/a	n/a	n/a	n/a	n/a
-0.002	n/a	RECOG_CONF	-1	n/a	LTP107	ltpFR	17	3	n/a	SPOUSE	1358	n/a	3	n/a	n/a	n/a	n/a	n/a	n/a
-0.002	n/a	RECOG_LURE	-1	n/a	LTP107	ltpFR	17	3	n/a	SATURN	1236	0	4	n/a	n/a	n/a	n/a	n/a	n/a
-0.002	n/a	RECOG_RESP	-1	n/a	LTP107	ltpFR	17	3	n/a	SATURN	1236	0	n/a	n/a	n/a	n/a	n/a	n/a	n/a
-0.002	n/a	RECOG_CONF	-1	n/a	LTP107	ltpFR	17	3	n/a	SATURN	1236	n/a	4	n/a	n/a	n/a	n/a	n/a	n/a
-0.002	n/a	RECOG_TARGET	-1	n/a	LTP107	ltpFR	17	3	1	FEAST	556	1	5	0	n/a	n/a	n/a	n/a	n/a
-0.002	n/a	RECOG_RESP	-1	n/a	LTP107	ltpFR	17	3	1	FEAST	556	1	n/a	0	n/a	n/a	n/a	n/a	n/a
-0.002	n/a	RECOG_CONF	-1	n/a	LTP107	ltpFR	17	3	1	FEAST	556	n/a	5	0	n/a	n/a	n/a	n/a	n/a
-0.002	n/a	RECOG_TARGET	-1	n/a	LTP107	ltpFR	17	3	0	MOSS	918	1	5	0	n/a	n/a	n/a	n/a	n/a
-0.002	n/a	RECOG_RESP	-1	n/a	LTP107	ltpFR	17	3	0	MOSS	918	1	n/a	0	n/a	n/a	n/a	n/a	n/a
-0.002	n/a	RECOG_CONF	-1	n/a	LTP107	ltpFR	17	3	0	MOSS	918	n/a	5	0	n/a	n/a	n/a	n/a	n/a
-0.002	n/a	RECOG_TARGET	-1	n/a	LTP107	ltpFR	17	3	1	WOLF	1619	1	5	1	n/a	n/a	n/a	n/a	n/a
-0.002	n/a	RECOG_RESP	-1	n/a	LTP107	ltpFR	17	3	1	WOLF	1619	1	n/a	1	n/a	n/a	n/a	n/a	n/a
-0.002	n/a	RECOG_CONF	-1	n/a	LTP107	ltpFR	17	3	1	WOLF	1619	n/a	5	1	n/a	n/a	n/a	n/a	n/a
-0.002	n/a	RECOG_TARGET	-1	n/a	LTP107	ltpFR	17	3	0	TREASURE	1500	1	5	1	n/a	n/a	n/a	n/a	n/a
-0.002	n/a	RECOG_RESP	-1	n/a	LTP107	ltpFR	17	3	0	TREASURE	1500	1	n/a	1	n/a	n/a	n/a	n/a	n/a
-0.002	n/a	RECOG_CONF	-1	n/a	LTP107	ltpFR	17	3	0	TREASURE	1500	n/a	5	1	n/a	n/a	n/a	n/a	n/a
-0.002	n/a	RECOG_TARGET	-1	n/a	LTP107	ltpFR	17	3	1	LIST	830	0	2	0	n/a	n/a	n/a	n/a	n/a
-0.002	n/a	RECOG_RESP	-1	n/a	LTP107	ltpFR	17	3	1	LIST	830	0	n/a	0	n/a	n/a	n/a	n/a	n/a
-0.002	n/a	RECOG_CONF	-1	n/a	LTP107	ltpFR	17	3	1	LIST	830	n/a	2	0	n/a	n/a	n/a	n/a	n/a
-0.002	n/a	RECOG_LURE	-1	n/a	LTP107	ltpFR	17	3	n/a	CHIMNEY	301	0	4	n/a	n/a	n/a	n/a	n/a	n/a
-0.002	n/a	RECOG_RESP	-1	n/a	LTP107	ltpFR	17	3	n/a	CHIMNEY	301	0	n/a	n/a	n/a	n/a	n/a	n/a	n/a
-0.002	n/a	RECOG_CONF	-1	n/a	LTP107	ltpFR	17	3	n/a	CHIMNEY	301	n/a	4	n/a	n/a	n/a	n/a	n/a	n/a
-0.002	n/a	RECOG_TARGET	-1	n/a	LTP107	ltpFR	17	3	0	TABLE	1426	1	5	1	n/a	n/a	n/a	n/a	n/a
-0.002	n/a	RECOG_RESP	-1	n/a	LTP107	ltpFR	17	3	0	TABLE	1426	1	n/a	1	n/a	n/a	n/a	n/a	n/a
-0.002	n/a	RECOG_CONF	-1	n/a	LTP107	ltpFR	17	3	0	TABLE	1426	n/a	5	1	n/a	n/a	n/a	n/a	n/a
-0.002	n/a	REC_START	-1	n/a	LTP107	ltpFR	17	4	n/a	n/a	n/a	n/a	n/a	n/a	n/a	n/a	n/a	n/a	n/a
-0.002	n/a	RECOG_TARGET	-1	n/a	LTP107	ltpFR	17	4	1	CANAL	226	1	5	0	n/a	n/a	n/a	n/a	n/a
-0.002	n/a	RECOG_RESP	-1	n/a	LTP107	ltpFR	17	4	1	CANAL	226	1	n/a	0	n/a	n/a	n/a	n/a	n/a
-0.002	n/a	RECOG_CONF	-1	n/a	LTP107	ltpFR	17	4	1	CANAL	226	n/a	5	0	n/a	n/a	n/a	n/a	n/a
-0.002	n/a	RECOG_TARGET	-1	n/a	LTP107	ltpFR	17	4	1	BEAVER	109	1	5	1	n/a	n/a	n/a	n/a	n/a
-0.002	n/a	RECOG_RESP	-1	n/a	LTP107	ltpFR	17	4	1	BEAVER	109	1	n/a	1	n/a	n/a	n/a	n/a	n/a
-0.002	n/a	RECOG_CONF	-1	n/a	LTP107	ltpFR	17	4	1	BEAVER	109	n/a	5	1	n/a	n/a	n/a	n/a	n/a
-0.002	n/a	RECOG_TARGET	-1	n/a	LTP107	ltpFR	17	4	0	SCALPEL	1243	1	5	0	n/a	n/a	n/a	n/a	n/a
-0.002	n/a	RECOG_RESP	-1	n/a	LTP107	ltpFR	17	4	0	SCALPEL	1243	1	n/a	0	n/a	n/a	n/a	n/a	n/a
-0.002	n/a	RECOG_CONF	-1	n/a	LTP107	ltpFR	17	4	0	SCALPEL	1243	n/a	5	0	n/a	n/a	n/a	n/a	n/a
-0.002	n/a	RECOG_LURE	-1	n/a	LTP107	ltpFR	17	4	n/a	SPOON	1357	0	3	n/a	n/a	n/a	n/a	n/a	n/a
-0.002	n/a	RECOG_RESP	-1	n/a	LTP107	ltpFR	17	4	n/a	SPOON	1357	0	n/a	n/a	n/a	n/a	n/a	n/a	n/a
-0.002	n/a	RECOG_CONF	-1	n/a	LTP107	ltpFR	17	4	n/a	SPOON	1357	n/a	3	n/a	n/a	n/a	n/a	n/a	n/a
-0.002	n/a	RECOG_LURE	-1	n/a	LTP107	ltpFR	17	4	n/a	CRAYON	401	1	3	n/a	n/a	n/a	n/a	n/a	n/a
-0.002	n/a	RECOG_RESP	-1	n/a	LTP107	ltpFR	17	4	n/a	CRAYON	401	1	n/a	n/a	n/a	n/a	n/a	n/a	n/a
-0.002	n/a	RECOG_CONF	-1	n/a	LTP107	ltpFR	17	4	n/a	CRAYON	401	n/a	3	n/a	n/a	n/a	n/a	n/a	n/a
-0.002	n/a	RECOG_TARGET	-1	n/a	LTP107	ltpFR	17	4	0	SERGEANT	1269	1	3	1	n/a	n/a	n/a	n/a	n/a
-0.002	n/a	RECOG_RESP	-1	n/a	LTP107	ltpFR	17	4	0	SERGEANT	1269	1	n/a	1	n/a	n/a	n/a	n/a	n/a
-0.002	n/a	RECOG_CONF	-1	n/a	LTP107	ltpFR	17	4	0	SERGEANT	1269	n/a	3	1	n/a	n/a	n/a	n/a	n/a
-0.002	n/a	RECOG_TARGET	-1	n/a	LTP107	ltpFR	17	4	-1	WALRUS	1585	1	5	-1	n/a	n/a	n/a	n/a	n/a
-0.002	n/a	RECOG_RESP	-1	n/a	LTP107	ltpFR	17	4	-1	WALRUS	1585	1	n/a	-1	n/a	n/a	n/a	n/a	n/a
-0.002	n/a	RECOG_CONF	-1	n/a	LTP107	ltpFR	17	4	-1	WALRUS	1585	n/a	5	-1	n/a	n/a	n/a	n/a	n/a
-0.002	n/a	RECOG_TARGET	-1	n/a	LTP107	ltpFR	17	4	1	TROUT	1511	1	2	1	n/a	n/a	n/a	n/a	n/a
-0.002	n/a	RECOG_RESP	-1	n/a	LTP107	ltpFR	17	4	1	TROUT	1511	1	n/a	1	n/a	n/a	n/a	n/a	n/a
-0.002	n/a	RECOG_CONF	-1	n/a	LTP107	ltpFR	17	4	1	TROUT	1511	n/a	2	1	n/a	n/a	n/a	n/a	n/a
-0.002	n/a	RECOG_TARGET	-1	n/a	LTP107	ltpFR	17	4	-1	BASEMENT	94	1	5	-1	n/a	n/a	n/a	n/a	n/a
-0.002	n/a	RECOG_RESP	-1	n/a	LTP107	ltpFR	17	4	-1	BASEMENT	94	1	n/a	-1	n/a	n/a	n/a	n/a	n/a
-0.002	n/a	RECOG_CONF	-1	n/a	LTP107	ltpFR	17	4	-1	BASEMENT	94	n/a	5	-1	n/a	n/a	n/a	n/a	n/a
-0.002	n/a	RECOG_LURE	-1	n/a	LTP107	ltpFR	17	4	n/a	SCOTCH	1251	0	5	n/a	n/a	n/a	n/a	n/a	n/a
-0.002	n/a	RECOG_RESP	-1	n/a	LTP107	ltpFR	17	4	n/a	SCOTCH	1251	0	n/a	n/a	n/a	n/a	n/a	n/a	n/a
-0.002	n/a	RECOG_CONF	-1	n/a	LTP107	ltpFR	17	4	n/a	SCOTCH	1251	n/a	5	n/a	n/a	n/a	n/a	n/a	n/a
-0.002	n/a	RECOG_TARGET	-1	n/a	LTP107	ltpFR	17	4	0	LASH	802	1	4	0	n/a	n/a	n/a	n/a	n/a
-0.002	n/a	RECOG_RESP	-1	n/a	LTP107	ltpFR	17	4	0	LASH	802	1	n/a	0	n/a	n/a	n/a	n/a	n/a
-0.002	n/a	RECOG_CONF	-1	n/a	LTP107	ltpFR	17	4	0	LASH	802	n/a	4	0	n/a	n/a	n/a	n/a	n/a
-0.002	n/a	RECOG_TARGET	-1	n/a	LTP107	ltpFR	17	4	1	HOSTESS	723	1	4	1	n/a	n/a	n/a	n/a	n/a
-0.002	n/a	RECOG_RESP	-1	n/a	LTP107	ltpFR	17	4	1	HOSTESS	723	1	n/a	1	n/a	n/a	n/a	n/a	n/a
-0.002	n/a	RECOG_CONF	-1	n/a	LTP107	ltpFR	17	4	1	HOSTESS	723	n/a	4	1	n/a	n/a	n/a	n/a	n/a
-0.002	n/a	RECOG_TARGET	-1	n/a	LTP107	ltpFR	17	4	1	FISH	571	1	5	1	n/a	n/a	n/a	n/a	n/a
-0.002	n/a	RECOG_RESP	-1	n/a	LTP107	ltpFR	17	4	1	FISH	571	1	n/a	1	n/a	n/a	n/a	n/a	n/a
-0.002	n/a	RECOG_CONF	-1	n/a	LTP107	ltpFR	17	4	1	FISH	571	n/a	5	1	n/a	n/a	n/a	n/a	n/a
-0.002	n/a	RECOG_TARGET	-1	n/a	LTP107	ltpFR	17	4	1	MOOSE	915	1	5	1	n/a	n/a	n/a	n/a	n/a
-0.002	n/a	RECOG_RESP	-1	n/a	LTP107	ltpFR	17	4	1	MOOSE	915	1	n/a	1	n/a	n/a	n/a	n/a	n/a
-0.002	n/a	RECOG_CONF	-1	n/a	LTP107	ltpFR	17	4	1	MOOSE	915	n/a	5	1	n/a	n/a	n/a	n/a	n/a
-0.002	n/a	RECOG_TARGET	-1	n/a	LTP107	ltpFR	17	4	1	BIRD	129	1	5	0	n/a	n/a	n/a	n/a	n/a
-0.002	n/a	RECOG_RESP	-1	n/a	LTP107	ltpFR	17	4	1	BIRD	129	1	n/a	0	n/a	n/a	n/a	n/a	n/a
-0.002	n/a	RECOG_CONF	-1	n/a	LTP107	ltpFR	17	4	1	BIRD	129	n/a	5	0	n/a	n/a	n/a	n/a	n/a
-0.002	n/a	RECOG_TARGET	-1	n/a	LTP107	ltpFR	17	4	-1	DAM	436	1	5	-1	n/a	n/a	n/a	n/a	n/a
-0.002	n/a	RECOG_RESP	-1	n/a	LTP107	ltpFR	17	4	-1	DAM	436	1	n/a	-1	n/a	n/a	n/a	n/a	n/a
-0.002	n/a	RECOG_CONF	-1	n/a	LTP107	ltpFR	17	4	-1	DAM	436	n/a	5	-1	n/a	n/a	n/a	n/a	n/a
-0.002	n/a	RECOG_TARGET	-1	n/a	LTP107	ltpFR	17	4	-1	KNIFE	785	1	5	-1	n/a	n/a	n/a	n/a	n/a
-0.002	n/a	RECOG_RESP	-1	n/a	LTP107	ltpFR	17	4	-1	KNIFE	785	1	n/a	-1	n/a	n/a	n/a	n/a	n/a
-0.002	n/a	RECOG_CONF	-1	n/a	LTP107	ltpFR	17	4	-1	KNIFE	785	n/a	5	-1	n/a	n/a	n/a	n/a	n/a
-0.002	n/a	RECOG_LURE	-1	n/a	LTP107	ltpFR	17	4	n/a	ONION	977	0	5	n/a	n/a	n/a	n/a	n/a	n/a
-0.002	n/a	RECOG_RESP	-1	n/a	LTP107	ltpFR	17	4	n/a	ONION	977	0	n/a	n/a	n/a	n/a	n/a	n/a	n/a
-0.002	n/a	RECOG_CONF	-1	n/a	LTP107	ltpFR	17	4	n/a	ONION	977	n/a	5	n/a	n/a	n/a	n/a	n/a	n/a
-0.002	n/a	RECOG_LURE	-1	n/a	LTP107	ltpFR	17	4	n/a	NET	946	0	5	n/a	n/a	n/a	n/a	n/a	n/a
-0.002	n/a	RECOG_RESP	-1	n/a	LTP107	ltpFR	17	4	n/a	NET	946	0	n/a	n/a	n/a	n/a	n/a	n/a	n/a
-0.002	n/a	RECOG_CONF	-1	n/a	LTP107	ltpFR	17	4	n/a	NET	946	n/a	5	n/a	n/a	n/a	n/a	n/a	n/a
-0.002	n/a	RECOG_TARGET	-1	n/a	LTP107	ltpFR	17	4	1	PROTRACTOR	1133	1	5	0	n/a	n/a	n/a	n/a	n/a
-0.002	n/a	RECOG_RESP	-1	n/a	LTP107	ltpFR	17	4	1	PROTRACTOR	1133	1	n/a	0	n/a	n/a	n/a	n/a	n/a
-0.002	n/a	RECOG_CONF	-1	n/a	LTP107	ltpFR	17	4	1	PROTRACTOR	1133	n/a	5	0	n/a	n/a	n/a	n/a	n/a
-0.002	n/a	REC_START	-1	n/a	LTP107	ltpFR	17	5	n/a	n/a	n/a	n/a	n/a	n/a	n/a	n/a	n/a	n/a	n/a
-0.002	n/a	RECOG_TARGET	-1	n/a	LTP107	ltpFR	17	5	1	LENS	811	1	5	0	n/a	n/a	n/a	n/a	n/a
-0.002	n/a	RECOG_RESP	-1	n/a	LTP107	ltpFR	17	5	1	LENS	811	1	n/a	0	n/a	n/a	n/a	n/a	n/a
-0.002	n/a	RECOG_CONF	-1	n/a	LTP107	ltpFR	17	5	1	LENS	811	n/a	5	0	n/a	n/a	n/a	n/a	n/a
-0.002	n/a	RECOG_TARGET	-1	n/a	LTP107	ltpFR	17	5	0	CARD	243	1	3	0	n/a	n/a	n/a	n/a	n/a
-0.002	n/a	RECOG_RESP	-1	n/a	LTP107	ltpFR	17	5	0	CARD	243	1	n/a	0	n/a	n/a	n/a	n/a	n/a
-0.002	n/a	RECOG_CONF	-1	n/a	LTP107	ltpFR	17	5	0	CARD	243	n/a	3	0	n/a	n/a	n/a	n/a	n/a
-0.002	n/a	RECOG_LURE	-1	n/a	LTP107	ltpFR	17	5	n/a	DRUG	501	0	4	n/a	n/a	n/a	n/a	n/a	n/a
-0.002	n/a	RECOG_RESP_VV	-1	n/a	LTP107	ltpFR	17	5	n/a	DRUG	501	1	n/a	n/a	n/a	n/a	n/a	n/a	n/a
-0.002	n/a	RECOG_RESP	-1	n/a	LTP107	ltpFR	17	5	n/a	DRUG	501	0	n/a	n/a	n/a	n/a	n/a	n/a	n/a
-0.002	n/a	RECOG_CONF	-1	n/a	LTP107	ltpFR	17	5	n/a	DRUG	501	n/a	4	n/a	n/a	n/a	n/a	n/a	n/a
-0.002	n/a	RECOG_TARGET	-1	n/a	LTP107	ltpFR	17	5	0	ORCHESTRA	981	1	3	1	n/a	n/a	n/a	n/a	n/a
-0.002	n/a	RECOG_RESP	-1	n/a	LTP107	ltpFR	17	5	0	ORCHESTRA	981	1	n/a	1	n/a	n/a	n/a	n/a	n/a
-0.002	n/a	RECOG_CONF	-1	n/a	LTP107	ltpFR	17	5	0	ORCHESTRA	981	n/a	3	1	n/a	n/a	n/a	n/a	n/a
-0.002	n/a	RECOG_LURE	-1	n/a	LTP107	ltpFR	17	5	n/a	AUTOMOBILE	62	0	3	n/a	n/a	n/a	n/a	n/a	n/a
-0.002	n/a	RECOG_RESP_VV	-1	n/a	LTP107	ltpFR	17	5	n/a	AUTOMOBILE	62	1	n/a	n/a	n/a	n/a	n/a	n/a	n/a
-0.002	n/a	RECOG_RESP	-1	n/a	LTP107	ltpFR	17	5	n/a	AUTOMOBILE	62	0	n/a	n/a	n/a	n/a	n/a	n/a	n/a
-0.002	n/a	RECOG_CONF	-1	n/a	LTP107	ltpFR	17	5	n/a	AUTOMOBILE	62	n/a	3	n/a	n/a	n/a	n/a	n/a	n/a
-0.002	n/a	RECOG_TARGET	-1	n/a	LTP107	ltpFR	17	5	1	DIGGER	464	1	4	1	n/a	n/a	n/a	n/a	n/a
-0.002	n/a	RECOG_RESP	-1	n/a	LTP107	ltpFR	17	5	1	DIGGER	464	1	n/a	1	n/a	n/a	n/a	n/a	n/a
-0.002	n/a	RECOG_CONF	-1	n/a	LTP107	ltpFR	17	5	1	DIGGER	464	n/a	4	1	n/a	n/a	n/a	n/a	n/a
-0.002	n/a	RECOG_TARGET	-1	n/a	LTP107	ltpFR	17	5	0	CABBAGE	210	1	3	0	n/a	n/a	n/a	n/a	n/a
-0.002	n/a	RECOG_RESP	-1	n/a	LTP107	ltpFR	17	5	0	CABBAGE	210	1	n/a	0	n/a	n/a	n/a	n/a	n/a
-0.002	n/a	RECOG_CONF	-1	n/a	LTP107	ltpFR	17	5	0	CABBAGE	210	n/a	3	0	n/a	n/a	n/a	n/a	n/a
-0.002	n/a	RECOG_TARGET	-1	n/a	LTP107	ltpFR	17	5	1	BURGLAR	200	1	4	1	n/a	n/a	n/a	n/a	n/a
-0.002	n/a	RECOG_RESP	-1	n/a	LTP107	ltpFR	17	5	1	BURGLAR	200	1	n/a	1	n/a	n/a	n/a	n/a	n/a
-0.002	n/a	RECOG_CONF	-1	n/a	LTP107	ltpFR	17	5	1	BURGLAR	200	n/a	4	1	n/a	n/a	n/a	n/a	n/a
-0.002	n/a	RECOG_TARGET	-1	n/a	LTP107	ltpFR	17	5	-1	BARLEY	88	1	5	-1	n/a	n/a	n/a	n/a	n/a
-0.002	n/a	RECOG_RESP	-1	n/a	LTP107	ltpFR	17	5	-1	BARLEY	88	1	n/a	-1	n/a	n/a	n/a	n/a	n/a
-0.002	n/a	RECOG_CONF	-1	n/a	LTP107	ltpFR	17	5	-1	BARLEY	88	n/a	5	-1	n/a	n/a	n/a	n/a	n/a
-0.002	n/a	RECOG_TARGET	-1	n/a	LTP107	ltpFR	17	5	1	HERD	705	1	5	1	n/a	n/a	n/a	n/a	n/a
-0.002	n/a	RECOG_RESP	-1	n/a	LTP107	ltpFR	17	5	1	HERD	705	1	n/a	1	n/a	n/a	n/a	n/a	n/a
-0.002	n/a	RECOG_CONF	-1	n/a	LTP107	ltpFR	17	5	1	HERD	705	n/a	5	1	n/a	n/a	n/a	n/a	n/a
-0.002	n/a	RECOG_LURE	-1	n/a	LTP107	ltpFR	17	5	n/a	BUREAU	199	0	2	n/a	n/a	n/a	n/a	n/a	n/a
-0.002	n/a	RECOG_RESP	-1	n/a	LTP107	ltpFR	17	5	n/a	BUREAU	199	0	n/a	n/a	n/a	n/a	n/a	n/a	n/a
-0.002	n/a	RECOG_CONF	-1	n/a	LTP107	ltpFR	17	5	n/a	BUREAU	199	n/a	2	n/a	n/a	n/a	n/a	n/a	n/a
-0.002	n/a	RECOG_LURE	-1	n/a	LTP107	ltpFR	17	5	n/a	TERMITE	1451	0	4	n/a	n/a	n/a	n/a	n/a	n/a
-0.002	n/a	RECOG_RESP	-1	n/a	LTP107	ltpFR	17	5	n/a	TERMITE	1451	0	n/a	n/a	n/a	n/a	n/a	n/a	n/a
-0.002	n/a	RECOG_CONF	-1	n/a	LTP107	ltpFR	17	5	n/a	TERMITE	1451	n/a	4	n/a	n/a	n/a	n/a	n/a	n/a
-0.002	n/a	RECOG_TARGET	-1	n/a	LTP107	ltpFR	17	5	1	POPE	1105	1	5	1	n/a	n/a	n/a	n/a	n/a
-0.002	n/a	RECOG_RESP	-1	n/a	LTP107	ltpFR	17	5	1	POPE	1105	1	n/a	1	n/a	n/a	n/a	n/a	n/a
-0.002	n/a	RECOG_CONF	-1	n/a	LTP107	ltpFR	17	5	1	POPE	1105	n/a	5	1	n/a	n/a	n/a	n/a	n/a
-0.002	n/a	RECOG_TARGET	-1	n/a	LTP107	ltpFR	17	5	0	VENT	1556	1	4	0	n/a	n/a	n/a	n/a	n/a
-0.002	n/a	RECOG_RESP	-1	n/a	LTP107	ltpFR	17	5	0	VENT	1556	1	n/a	0	n/a	n/a	n/a	n/a	n/a
-0.002	n/a	RECOG_CONF	-1	n/a	LTP107	ltpFR	17	5	0	VENT	1556	n/a	4	0	n/a	n/a	n/a	n/a	n/a
-0.002	n/a	RECOG_TARGET	-1	n/a	LTP107	ltpFR	17	5	0	IRON	744	1	5	0	n/a	n/a	n/a	n/a	n/a
-0.002	n/a	RECOG_RESP	-1	n/a	LTP107	ltpFR	17	5	0	IRON	744	1	n/a	0	n/a	n/a	n/a	n/a	n/a
-0.002	n/a	RECOG_CONF	-1	n/a	LTP107	ltpFR	17	5	0	IRON	744	n/a	5	0	n/a	n/a	n/a	n/a	n/a
-0.002	n/a	RECOG_TARGET	-1	n/a	LTP107	ltpFR	17	5	0	ZEBRA	1635	1	5	1	n/a	n/a	n/a	n/a	n/a
-0.002	n/a	RECOG_RESP	-1	n/a	LTP107	ltpFR	17	5	0	ZEBRA	1635	1	n/a	1	n/a	n/a	n/a	n/a	n/a
-0.002	n/a	RECOG_CONF	-1	n/a	LTP107	ltpFR	17	5	0	ZEBRA	1635	n/a	5	1	n/a	n/a	n/a	n/a	n/a
-0.002	n/a	RECOG_TARGET	-1	n/a	LTP107	ltpFR	17	5	1	STEREO	1378	1	5	0	n/a	n/a	n/a	n/a	n/a
-0.002	n/a	RECOG_RESP	-1	n/a	LTP107	ltpFR	17	5	1	STEREO	1378	1	n/a	0	n/a	n/a	n/a	n/a	n/a
-0.002	n/a	RECOG_CONF	-1	n/a	LTP107	ltpFR	17	5	1	STEREO	1378	n/a	5	0	n/a	n/a	n/a	n/a	n/a
-0.002	n/a	RECOG_LURE	-1	n/a	LTP107	ltpFR	17	5	n/a	DECK	443	0	4	n/a	n/a	n/a	n/a	n/a	n/a
-0.002	n/a	RECOG_RESP	-1	n/a	LTP107	ltpFR	17	5	n/a	DECK	443	0	n/a	n/a	n/a	n/a	n/a	n/a	n/a
-0.002	n/a	RECOG_CONF	-1	n/a	LTP107	ltpFR	17	5	n/a	DECK	443	n/a	4	n/a	n/a	n/a	n/a	n/a	n/a
-0.002	n/a	RECOG_TARGET	-1	n/a	LTP107	ltpFR	17	5	0	STREAM	1392	1	3	1	n/a	n/a	n/a	n/a	n/a
-0.002	n/a	RECOG_RESP	-1	n/a	LTP107	ltpFR	17	5	0	STREAM	1392	1	n/a	1	n/a	n/a	n/a	n/a	n/a
-0.002	n/a	RECOG_CONF	-1	n/a	LTP107	ltpFR	17	5	0	STREAM	1392	n/a	3	1	n/a	n/a	n/a	n/a	n/a
-0.002	n/a	RECOG_LURE	-1	n/a	LTP107	ltpFR	17	5	n/a	OUTLAW	989	0	2	n/a	n/a	n/a	n/a	n/a	n/a
-0.002	n/a	RECOG_RESP	-1	n/a	LTP107	ltpFR	17	5	n/a	OUTLAW	989	0	n/a	n/a	n/a	n/a	n/a	n/a	n/a
-0.002	n/a	RECOG_CONF	-1	n/a	LTP107	ltpFR	17	5	n/a	OUTLAW	989	n/a	2	n/a	n/a	n/a	n/a	n/a	n/a
-0.002	n/a	REC_START	-1	n/a	LTP107	ltpFR	17	6	n/a	n/a	n/a	n/a	n/a	n/a	n/a	n/a	n/a	n/a	n/a
-0.002	n/a	RECOG_LURE	-1	n/a	LTP107	ltpFR	17	6	n/a	HOOP	716	0	4	n/a	n/a	n/a	n/a	n/a	n/a
-0.002	n/a	RECOG_RESP	-1	n/a	LTP107	ltpFR	17	6	n/a	HOOP	716	0	n/a	n/a	n/a	n/a	n/a	n/a	n/a
-0.002	n/a	RECOG_CONF	-1	n/a	LTP107	ltpFR	17	6	n/a	HOOP	716	n/a	4	n/a	n/a	n/a	n/a	n/a	n/a
-0.002	n/a	RECOG_LURE	-1	n/a	LTP107	ltpFR	17	6	n/a	PATH	1023	0	2	n/a	n/a	n/a	n/a	n/a	n/a
-0.002	n/a	RECOG_RESP	-1	n/a	LTP107	ltpFR	17	6	n/a	PATH	1023	0	n/a	n/a	n/a	n/a	n/a	n/a	n/a
-0.002	n/a	RECOG_CONF	-1	n/a	LTP107	ltpFR	17	6	n/a	PATH	1023	n/a	2	n/a	n/a	n/a	n/a	n/a	n/a
-0.002	n/a	RECOG_TARGET	-1	n/a	LTP107	ltpFR	17	6	-1	MARINE	869	1	5	-1	n/a	n/a	n/a	n/a	n/a
-0.002	n/a	RECOG_RESP	-1	n/a	LTP107	ltpFR	17	6	-1	MARINE	869	1	n/a	-1	n/a	n/a	n/a	n/a	n/a
-0.002	n/a	RECOG_CONF	-1	n/a	LTP107	ltpFR	17	6	-1	MARINE	869	n/a	5	-1	n/a	n/a	n/a	n/a	n/a
-0.002	n/a	RECOG_TARGET	-1	n/a	LTP107	ltpFR	17	6	-1	SLEIGH	1325	1	5	-1	n/a	n/a	n/a	n/a	n/a
-0.002	n/a	RECOG_RESP	-1	n/a	LTP107	ltpFR	17	6	-1	SLEIGH	1325	1	n/a	-1	n/a	n/a	n/a	n/a	n/a
-0.002	n/a	RECOG_CONF	-1	n/a	LTP107	ltpFR	17	6	-1	SLEIGH	1325	n/a	5	-1	n/a	n/a	n/a	n/a	n/a
-0.002	n/a	RECOG_TARGET	-1	n/a	LTP107	ltpFR	17	6	-1	DUNE	506	1	5	-1	n/a	n/a	n/a	n/a	n/a
-0.002	n/a	RECOG_RESP	-1	n/a	LTP107	ltpFR	17	6	-1	DUNE	506	1	n/a	-1	n/a	n/a	n/a	n/a	n/a
-0.002	n/a	RECOG_CONF	-1	n/a	LTP107	ltpFR	17	6	-1	DUNE	506	n/a	5	-1	n/a	n/a	n/a	n/a	n/a
-0.002	n/a	RECOG_TARGET	-1	n/a	LTP107	ltpFR	17	6	1	LINT	826	1	5	0	n/a	n/a	n/a	n/a	n/a
-0.002	n/a	RECOG_RESP	-1	n/a	LTP107	ltpFR	17	6	1	LINT	826	1	n/a	0	n/a	n/a	n/a	n/a	n/a
-0.002	n/a	RECOG_CONF	-1	n/a	LTP107	ltpFR	17	6	1	LINT	826	n/a	5	0	n/a	n/a	n/a	n/a	n/a
-0.002	n/a	RECOG_LURE	-1	n/a	LTP107	ltpFR	17	6	n/a	SUITE	1404	0	3	n/a	n/a	n/a	n/a	n/a	n/a
-0.002	n/a	RECOG_RESP	-1	n/a	LTP107	ltpFR	17	6	n/a	SUITE	1404	0	n/a	n/a	n/a	n/a	n/a	n/a	n/a
-0.002	n/a	RECOG_CONF	-1	n/a	LTP107	ltpFR	17	6	n/a	SUITE	1404	n/a	3	n/a	n/a	n/a	n/a	n/a	n/a
-0.002	n/a	RECOG_LURE	-1	n/a	LTP107	ltpFR	17	6	n/a	DEPARTMENT	449	0	2	n/a	n/a	n/a	n/a	n/a	n/a
-0.002	n/a	RECOG_RESP	-1	n/a	LTP107	ltpFR	17	6	n/a	DEPARTMENT	449	0	n/a	n/a	n/a	n/a	n/a	n/a	n/a
-0.002	n/a	RECOG_CONF	-1	n/a	LTP107	ltpFR	17	6	n/a	DEPARTMENT	449	n/a	2	n/a	n/a	n/a	n/a	n/a	n/a
-0.002	n/a	RECOG_LURE	-1	n/a	LTP107	ltpFR	17	6	n/a	ARCHITECT	36	0	4	n/a	n/a	n/a	n/a	n/a	n/a
-0.002	n/a	RECOG_RESP	-1	n/a	LTP107	ltpFR	17	6	n/a	ARCHITECT	36	0	n/a	n/a	n/a	n/a	n/a	n/a	n/a
-0.002	n/a	RECOG_CONF	-1	n/a	LTP107	ltpFR	17	6	n/a	ARCHITECT	36	n/a	4	n/a	n/a	n/a	n/a	n/a	n/a
-0.002	n/a	RECOG_LURE	-1	n/a	LTP107	ltpFR	17	6	n/a	TIE	1466	0	4	n/a	n/a	n/a	n/a	n/a	n/a
-0.002	n/a	RECOG_RESP	-1	n/a	LTP107	ltpFR	17	6	n/a	TIE	1466	0	n/a	n/a	n/a	n/a	n/a	n/a	n/a
-0.002	n/a	RECOG_CONF	-1	n/a	LTP107	ltpFR	17	6	n/a	TIE	1466	n/a	4	n/a	n/a	n/a	n/a	n/a	n/a
-0.002	n/a	RECOG_TARGET	-1	n/a	LTP107	ltpFR	17	6	1	QUARTER	1148	1	3	0	n/a	n/a	n/a	n/a	n/a
-0.002	n/a	RECOG_RESP	-1	n/a	LTP107	ltpFR	17	6	1	QUARTER	1148	1	n/a	0	n/a	n/a	n/a	n/a	n/a
-0.002	n/a	RECOG_CONF	-1	n/a	LTP107	ltpFR	17	6	1	QUARTER	1148	n/a	3	0	n/a	n/a	n/a	n/a	n/a
-0.002	n/a	RECOG_TARGET	-1	n/a	LTP107	ltpFR	17	6	1	SCREEN	1253	0	2	0	n/a	n/a	n/a	n/a	n/a
-0.002	n/a	RECOG_RESP	-1	n/a	LTP107	ltpFR	17	6	1	SCREEN	1253	0	n/a	0	n/a	n/a	n/a	n/a	n/a
-0.002	n/a	RECOG_CONF	-1	n/a	LTP107	ltpFR	17	6	1	SCREEN	1253	n/a	2	0	n/a	n/a	n/a	n/a	n/a
-0.002	n/a	RECOG_TARGET	-1	n/a	LTP107	ltpFR	17	6	0	ATLAS	53	0	1	1	n/a	n/a	n/a	n/a	n/a
-0.002	n/a	RECOG_RESP	-1	n/a	LTP107	ltpFR	17	6	0	ATLAS	53	0	n/a	1	n/a	n/a	n/a	n/a	n/a
-0.002	n/a	RECOG_CONF	-1	n/a	LTP107	ltpFR	17	6	0	ATLAS	53	n/a	1	1	n/a	n/a	n/a	n/a	n/a
