mstime	trial_type	stim_file	subject	experiment	session	trial	task	item_name	item_num	recog_conf	resp	color_b	color_g	color_r	case	font
0	SESS_START	n/a	LTP233	ltpFR	6	n/a	n/a	n/a	n/a	5	n/a	n/a	n/a	n/a	n/a	n/a
43181	WORD	wordpools/wasnorm_wordpool_less_exclusions.txt	LTP233	ltpFR	6	1	1	KLEENEX	782	n/a	0	0	0.5869140625	0.422607421875	upper	../fonts/zerothre.ttf
47327	WORD	wordpools/wasnorm_wordpool_less_exclusions.txt	LTP233	ltpFR	6	1	1	UNDERWEAR	1537	n/a	0	0	0.5869140625	0.422607421875	upper	../fonts/zerothre.ttf
51195	WORD	wordpools/wasnorm_wordpool_less_exclusions.txt	LTP233	ltpFR	6	1	0	BULL	193	n/a	0	1	0.412841796875	0.57763671875	lower	../fonts/amplitud.ttf
55210	WORD	wordpools/wasnorm_wordpool_less_exclusions.txt	LTP233	ltpFR	6	1	0	BUILDING	191	n/a	1	1	0.412841796875	0.57763671875	lower	../fonts/amplitud.ttf
59255	WORD	wordpools/wasnorm_wordpool_less_exclusions.txt	LTP233	ltpFR	6	1	1	YARD	1630	n/a	0	0	0.5869140625	0.422607421875	upper	../fonts/zerothre.ttf
63291	WORD	wordpools/wasnorm_wordpool_less_exclusions.txt	LTP233	ltpFR	6	1	1	GRASS	655	n/a	0	0	0.5869140625	0.422607421875	upper	../fonts/zerothre.ttf
67189	WORD	wordpools/wasnorm_wordpool_less_exclusions.txt	LTP233	ltpFR	6	1	0	DESIGNER	451	n/a	1	1	0.412841796875	0.57763671875	lower	../fonts/amplitud.ttf
71271	WORD	wordpools/wasnorm_wordpool_less_exclusions.txt	LTP233	ltpFR	6	1	0	BUBBLE	183	n/a	0	1	0.412841796875	0.57763671875	lower	../fonts/amplitud.ttf
75118	WORD	wordpools/wasnorm_wordpool_less_exclusions.txt	LTP233	ltpFR	6	1	0	COOK	372	n/a	1	1	0.412841796875	0.57763671875	lower	../fonts/amplitud.ttf
79251	WORD	wordpools/wasnorm_wordpool_less_exclusions.txt	LTP233	ltpFR	6	1	0	SERVER	1272	n/a	1	1	0.412841796875	0.57763671875	lower	../fonts/amplitud.ttf
83112	WORD	wordpools/wasnorm_wordpool_less_exclusions.txt	LTP233	ltpFR	6	1	0	BIKE	125	n/a	1	1	0.412841796875	0.57763671875	lower	../fonts/amplitud.ttf
86980	WORD	wordpools/wasnorm_wordpool_less_exclusions.txt	LTP233	ltpFR	6	1	0	CRAB	397	n/a	1	1	0.412841796875	0.57763671875	lower	../fonts/amplitud.ttf
90807	WORD	wordpools/wasnorm_wordpool_less_exclusions.txt	LTP233	ltpFR	6	1	1	NOSE	957	n/a	0	0	0.5869140625	0.422607421875	upper	../fonts/zerothre.ttf
95023	WORD	wordpools/wasnorm_wordpool_less_exclusions.txt	LTP233	ltpFR	6	1	1	BED	110	n/a	0	0	0.5869140625	0.422607421875	upper	../fonts/zerothre.ttf
99176	WORD	wordpools/wasnorm_wordpool_less_exclusions.txt	LTP233	ltpFR	6	1	1	BLANKET	135	n/a	0	0	0.5869140625	0.422607421875	upper	../fonts/zerothre.ttf
103275	WORD	wordpools/wasnorm_wordpool_less_exclusions.txt	LTP233	ltpFR	6	1	1	DISH	474	n/a	0	0	0.5869140625	0.422607421875	upper	../fonts/zerothre.ttf
109047	REC_START	n/a	LTP233	ltpFR	6	1	n/a	n/a	n/a	n/a	n/a	n/a	n/a	n/a	n/a	n/a
109815	REC_WORD	wordpools/wasnorm_wordpool_less_exclusions.txt	LTP233	ltpFR	6	1	1	DISH	474	n/a	0	n/a	n/a	n/a	n/a	n/a
111526	REC_WORD	wordpools/wasnorm_wordpool_less_exclusions.txt	LTP233	ltpFR	6	1	1	KLEENEX	782	n/a	0	n/a	n/a	n/a	n/a	n/a
114479	REC_WORD	wordpools/wasnorm_wordpool_less_exclusions.txt	LTP233	ltpFR	6	1	1	UNDERWEAR	1537	n/a	0	n/a	n/a	n/a	n/a	n/a
116610	REC_WORD	wordpools/wasnorm_wordpool_less_exclusions.txt	LTP233	ltpFR	6	1	1	BED	110	n/a	0	n/a	n/a	n/a	n/a	n/a
118341	REC_WORD	wordpools/wasnorm_wordpool_less_exclusions.txt	LTP233	ltpFR	6	1	1	BLANKET	135	n/a	0	n/a	n/a	n/a	n/a	n/a
120416	REC_WORD	wordpools/wasnorm_wordpool_less_exclusions.txt	LTP233	ltpFR	6	1	0	COOK	372	n/a	1	n/a	n/a	n/a	n/a	n/a
121883	REC_WORD	wordpools/wasnorm_wordpool_less_exclusions.txt	LTP233	ltpFR	6	1	0	SERVER	1272	n/a	1	n/a	n/a	n/a	n/a	n/a
222256	WORD	wordpools/wasnorm_wordpool_less_exclusions.txt	LTP233	ltpFR	6	2	0	ARTIST	43	n/a	0	1	0.412841796875	0.57763671875	lower	../fonts/amplitud.ttf
226456	WORD	wordpools/wasnorm_wordpool_less_exclusions.txt	LTP233	ltpFR	6	2	0	DRAWING	494	n/a	0	1	0.412841796875	0.57763671875	lower	../fonts/amplitud.ttf
230637	WORD	wordpools/wasnorm_wordpool_less_exclusions.txt	LTP233	ltpFR	6	2	1	FROST	609	n/a	0	0	0.5869140625	0.422607421875	upper	../fonts/zerothre.ttf
234733	WORD	wordpools/wasnorm_wordpool_less_exclusions.txt	LTP233	ltpFR	6	2	1	QUILT	1151	n/a	0	0	0.5869140625	0.422607421875	upper	../fonts/zerothre.ttf
238869	WORD	wordpools/wasnorm_wordpool_less_exclusions.txt	LTP233	ltpFR	6	2	1	RAISIN	1163	n/a	0	0	0.5869140625	0.422607421875	upper	../fonts/zerothre.ttf
242884	WORD	wordpools/wasnorm_wordpool_less_exclusions.txt	LTP233	ltpFR	6	2	1	GUEST	669	n/a	1	0	0.5869140625	0.422607421875	upper	../fonts/zerothre.ttf
247000	WORD	wordpools/wasnorm_wordpool_less_exclusions.txt	LTP233	ltpFR	6	2	0	DENIM	446	n/a	1	1	0.412841796875	0.57763671875	lower	../fonts/amplitud.ttf
251165	WORD	wordpools/wasnorm_wordpool_less_exclusions.txt	LTP233	ltpFR	6	2	0	TREE	1502	n/a	0	1	0.412841796875	0.57763671875	lower	../fonts/amplitud.ttf
255080	WORD	wordpools/wasnorm_wordpool_less_exclusions.txt	LTP233	ltpFR	6	2	0	BERRY	122	n/a	0	1	0.412841796875	0.57763671875	lower	../fonts/amplitud.ttf
259212	WORD	wordpools/wasnorm_wordpool_less_exclusions.txt	LTP233	ltpFR	6	2	1	HUMAN	726	n/a	1	0	0.5869140625	0.422607421875	upper	../fonts/zerothre.ttf
263043	WORD	wordpools/wasnorm_wordpool_less_exclusions.txt	LTP233	ltpFR	6	2	1	STALLION	1369	n/a	1	0	0.5869140625	0.422607421875	upper	../fonts/zerothre.ttf
267075	WORD	wordpools/wasnorm_wordpool_less_exclusions.txt	LTP233	ltpFR	6	2	1	COURT	391	n/a	0	0	0.5869140625	0.422607421875	upper	../fonts/zerothre.ttf
271208	WORD	wordpools/wasnorm_wordpool_less_exclusions.txt	LTP233	ltpFR	6	2	1	COLESLAW	344	n/a	0	0	0.5869140625	0.422607421875	upper	../fonts/zerothre.ttf
275290	WORD	wordpools/wasnorm_wordpool_less_exclusions.txt	LTP233	ltpFR	6	2	0	TOMATO	1476	n/a	0	1	0.412841796875	0.57763671875	lower	../fonts/amplitud.ttf
279471	WORD	wordpools/wasnorm_wordpool_less_exclusions.txt	LTP233	ltpFR	6	2	0	SLEIGH	1325	n/a	1	1	0.412841796875	0.57763671875	lower	../fonts/amplitud.ttf
283570	WORD	wordpools/wasnorm_wordpool_less_exclusions.txt	LTP233	ltpFR	6	2	0	ASSOCIATE	49	n/a	1	1	0.412841796875	0.57763671875	lower	../fonts/amplitud.ttf
289360	REC_START	n/a	LTP233	ltpFR	6	2	n/a	n/a	n/a	n/a	n/a	n/a	n/a	n/a	n/a	n/a
289764	REC_WORD	wordpools/wasnorm_wordpool_less_exclusions.txt	LTP233	ltpFR	6	2	0	ASSOCIATE	49	n/a	1	n/a	n/a	n/a	n/a	n/a
291104	REC_WORD	wordpools/wasnorm_wordpool_less_exclusions.txt	LTP233	ltpFR	6	2	1	FROST	609	n/a	0	n/a	n/a	n/a	n/a	n/a
292135	REC_WORD	wordpools/wasnorm_wordpool_less_exclusions.txt	LTP233	ltpFR	6	2	0	SLEIGH	1325	n/a	1	n/a	n/a	n/a	n/a	n/a
294513	REC_WORD	wordpools/wasnorm_wordpool_less_exclusions.txt	LTP233	ltpFR	6	2	0	ARTIST	43	n/a	0	n/a	n/a	n/a	n/a	n/a
296144	REC_WORD	wordpools/wasnorm_wordpool_less_exclusions.txt	LTP233	ltpFR	6	2	0	DRAWING	494	n/a	0	n/a	n/a	n/a	n/a	n/a
305039	REC_WORD	wordpools/wasnorm_wordpool_less_exclusions.txt	LTP233	ltpFR	6	2	0	BUILDING	191	n/a	1	n/a	n/a	n/a	n/a	n/a
307139	REC_WORD	wordpools/wasnorm_wordpool_less_exclusions.txt	LTP233	ltpFR	6	2	1	STALLION	1369	n/a	1	n/a	n/a	n/a	n/a	n/a
372054	WORD	wordpools/wasnorm_wordpool_less_exclusions.txt	LTP233	ltpFR	6	3	0	BLACKBERRY	132	n/a	0	1	0.412841796875	0.57763671875	lower	../fonts/amplitud.ttf
375936	WORD	wordpools/wasnorm_wordpool_less_exclusions.txt	LTP233	ltpFR	6	3	0	WHISKERS	1605	n/a	0	1	0.412841796875	0.57763671875	lower	../fonts/amplitud.ttf
379947	WORD	wordpools/wasnorm_wordpool_less_exclusions.txt	LTP233	ltpFR	6	3	0	RADIO	1157	n/a	0	1	0.412841796875	0.57763671875	lower	../fonts/amplitud.ttf
383849	WORD	wordpools/wasnorm_wordpool_less_exclusions.txt	LTP233	ltpFR	6	3	0	OBOE	969	n/a	0	1	0.412841796875	0.57763671875	lower	../fonts/amplitud.ttf
387977	WORD	wordpools/wasnorm_wordpool_less_exclusions.txt	LTP233	ltpFR	6	3	0	NOVEL	960	n/a	0	1	0.412841796875	0.57763671875	lower	../fonts/amplitud.ttf
391996	WORD	wordpools/wasnorm_wordpool_less_exclusions.txt	LTP233	ltpFR	6	3	0	CLOTHES	327	n/a	0	1	0.412841796875	0.57763671875	lower	../fonts/amplitud.ttf
395957	WORD	wordpools/wasnorm_wordpool_less_exclusions.txt	LTP233	ltpFR	6	3	0	DRESSER	496	n/a	0	1	0.412841796875	0.57763671875	lower	../fonts/amplitud.ttf
400026	WORD	wordpools/wasnorm_wordpool_less_exclusions.txt	LTP233	ltpFR	6	3	0	GRASSHOPPER	656	n/a	0	1	0.412841796875	0.57763671875	lower	../fonts/amplitud.ttf
403941	WORD	wordpools/wasnorm_wordpool_less_exclusions.txt	LTP233	ltpFR	6	3	0	PEACH	1031	n/a	0	1	0.412841796875	0.57763671875	lower	../fonts/amplitud.ttf
408120	WORD	wordpools/wasnorm_wordpool_less_exclusions.txt	LTP233	ltpFR	6	3	0	GENTLEMAN	631	n/a	1	1	0.412841796875	0.57763671875	lower	../fonts/amplitud.ttf
412139	WORD	wordpools/wasnorm_wordpool_less_exclusions.txt	LTP233	ltpFR	6	3	0	MUSHROOM	934	n/a	0	1	0.412841796875	0.57763671875	lower	../fonts/amplitud.ttf
416053	WORD	wordpools/wasnorm_wordpool_less_exclusions.txt	LTP233	ltpFR	6	3	0	FEAST	556	n/a	0	1	0.412841796875	0.57763671875	lower	../fonts/amplitud.ttf
420202	WORD	wordpools/wasnorm_wordpool_less_exclusions.txt	LTP233	ltpFR	6	3	0	EDITOR	516	n/a	1	1	0.412841796875	0.57763671875	lower	../fonts/amplitud.ttf
424151	WORD	wordpools/wasnorm_wordpool_less_exclusions.txt	LTP233	ltpFR	6	3	0	YOLK	1633	n/a	0	1	0.412841796875	0.57763671875	lower	../fonts/amplitud.ttf
428366	WORD	wordpools/wasnorm_wordpool_less_exclusions.txt	LTP233	ltpFR	6	3	0	DOG	480	n/a	0	1	0.412841796875	0.57763671875	lower	../fonts/amplitud.ttf
432477	WORD	wordpools/wasnorm_wordpool_less_exclusions.txt	LTP233	ltpFR	6	3	0	PASSAGE	1019	n/a	1	1	0.412841796875	0.57763671875	lower	../fonts/amplitud.ttf
438504	REC_START	n/a	LTP233	ltpFR	6	3	n/a	n/a	n/a	n/a	n/a	n/a	n/a	n/a	n/a	n/a
439252	REC_WORD	wordpools/wasnorm_wordpool_less_exclusions.txt	LTP233	ltpFR	6	3	0	DOG	480	n/a	0	n/a	n/a	n/a	n/a	n/a
439871	REC_WORD	wordpools/wasnorm_wordpool_less_exclusions.txt	LTP233	ltpFR	6	3	0	PASSAGE	1019	n/a	1	n/a	n/a	n/a	n/a	n/a
440769	REC_WORD	wordpools/wasnorm_wordpool_less_exclusions.txt	LTP233	ltpFR	6	3	0	GENTLEMAN	631	n/a	1	n/a	n/a	n/a	n/a	n/a
442869	REC_WORD	wordpools/wasnorm_wordpool_less_exclusions.txt	LTP233	ltpFR	6	3	0	BLACKBERRY	132	n/a	0	n/a	n/a	n/a	n/a	n/a
443547	REC_WORD	wordpools/wasnorm_wordpool_less_exclusions.txt	LTP233	ltpFR	6	3	0	WHISKERS	1605	n/a	0	n/a	n/a	n/a	n/a	n/a
444415	REC_WORD	wordpools/wasnorm_wordpool_less_exclusions.txt	LTP233	ltpFR	6	3	0	RADIO	1157	n/a	0	n/a	n/a	n/a	n/a	n/a
445503	REC_WORD	wordpools/wasnorm_wordpool_less_exclusions.txt	LTP233	ltpFR	6	3	0	OBOE	969	n/a	0	n/a	n/a	n/a	n/a	n/a
446730	REC_WORD	wordpools/wasnorm_wordpool_less_exclusions.txt	LTP233	ltpFR	6	3	0	DENIM	446	n/a	1	n/a	n/a	n/a	n/a	n/a
521099	WORD	wordpools/wasnorm_wordpool_less_exclusions.txt	LTP233	ltpFR	6	4	1	PENNY	1045	n/a	0	0	0.5869140625	0.422607421875	upper	../fonts/zerothre.ttf
525248	WORD	wordpools/wasnorm_wordpool_less_exclusions.txt	LTP233	ltpFR	6	4	1	GRAPE	654	n/a	1	0	0.5869140625	0.422607421875	upper	../fonts/zerothre.ttf
529213	WORD	wordpools/wasnorm_wordpool_less_exclusions.txt	LTP233	ltpFR	6	4	1	ASSISTANT	48	n/a	1	0	0.5869140625	0.422607421875	upper	../fonts/zerothre.ttf
533061	WORD	wordpools/wasnorm_wordpool_less_exclusions.txt	LTP233	ltpFR	6	4	1	ATOM	55	n/a	0	0	0.5869140625	0.422607421875	upper	../fonts/zerothre.ttf
537243	WORD	wordpools/wasnorm_wordpool_less_exclusions.txt	LTP233	ltpFR	6	4	1	WORM	1623	n/a	1	0	0.5869140625	0.422607421875	upper	../fonts/zerothre.ttf
541426	WORD	wordpools/wasnorm_wordpool_less_exclusions.txt	LTP233	ltpFR	6	4	1	BIRD	129	n/a	1	0	0.5869140625	0.422607421875	upper	../fonts/zerothre.ttf
545557	WORD	wordpools/wasnorm_wordpool_less_exclusions.txt	LTP233	ltpFR	6	4	1	FROG	608	n/a	1	0	0.5869140625	0.422607421875	upper	../fonts/zerothre.ttf
549623	WORD	wordpools/wasnorm_wordpool_less_exclusions.txt	LTP233	ltpFR	6	4	1	LABYRINTH	791	n/a	1	0	0.5869140625	0.422607421875	upper	../fonts/zerothre.ttf
553604	WORD	wordpools/wasnorm_wordpool_less_exclusions.txt	LTP233	ltpFR	6	4	1	WORKER	1621	n/a	1	0	0.5869140625	0.422607421875	upper	../fonts/zerothre.ttf
557734	WORD	wordpools/wasnorm_wordpool_less_exclusions.txt	LTP233	ltpFR	6	4	1	BAKER	71	n/a	1	0	0.5869140625	0.422607421875	upper	../fonts/zerothre.ttf
561920	WORD	wordpools/wasnorm_wordpool_less_exclusions.txt	LTP233	ltpFR	6	4	1	COOKIE	374	n/a	0	0	0.5869140625	0.422607421875	upper	../fonts/zerothre.ttf
566052	WORD	wordpools/wasnorm_wordpool_less_exclusions.txt	LTP233	ltpFR	6	4	1	KNEE	784	n/a	1	0	0.5869140625	0.422607421875	upper	../fonts/zerothre.ttf
570097	WORD	wordpools/wasnorm_wordpool_less_exclusions.txt	LTP233	ltpFR	6	4	1	PERISCOPE	1050	n/a	1	0	0.5869140625	0.422607421875	upper	../fonts/zerothre.ttf
573999	WORD	wordpools/wasnorm_wordpool_less_exclusions.txt	LTP233	ltpFR	6	4	1	QUARTER	1148	n/a	1	0	0.5869140625	0.422607421875	upper	../fonts/zerothre.ttf
578181	WORD	wordpools/wasnorm_wordpool_less_exclusions.txt	LTP233	ltpFR	6	4	1	KNOB	787	n/a	0	0	0.5869140625	0.422607421875	upper	../fonts/zerothre.ttf
582213	WORD	wordpools/wasnorm_wordpool_less_exclusions.txt	LTP233	ltpFR	6	4	1	LOCK	838	n/a	0	0	0.5869140625	0.422607421875	upper	../fonts/zerothre.ttf
587986	REC_START	n/a	LTP233	ltpFR	6	4	n/a	n/a	n/a	n/a	n/a	n/a	n/a	n/a	n/a	n/a
588614	REC_WORD	wordpools/wasnorm_wordpool_less_exclusions.txt	LTP233	ltpFR	6	4	1	KNOB	787	n/a	0	n/a	n/a	n/a	n/a	n/a
589482	REC_WORD	wordpools/wasnorm_wordpool_less_exclusions.txt	LTP233	ltpFR	6	4	1	LOCK	838	n/a	0	n/a	n/a	n/a	n/a	n/a
590650	REC_WORD	wordpools/wasnorm_wordpool_less_exclusions.txt	LTP233	ltpFR	6	4	n/a	CORRIDOR	-1	n/a	n/a	n/a	n/a	n/a	n/a	n/a
591642	REC_WORD	wordpools/wasnorm_wordpool_less_exclusions.txt	LTP233	ltpFR	6	4	1	PERISCOPE	1050	n/a	1	n/a	n/a	n/a	n/a	n/a
595444	REC_WORD	wordpools/wasnorm_wordpool_less_exclusions.txt	LTP233	ltpFR	6	4	1	WORKER	1621	n/a	1	n/a	n/a	n/a	n/a	n/a
596277	REC_WORD	wordpools/wasnorm_wordpool_less_exclusions.txt	LTP233	ltpFR	6	4	1	BAKER	71	n/a	1	n/a	n/a	n/a	n/a	n/a
597280	REC_WORD	wordpools/wasnorm_wordpool_less_exclusions.txt	LTP233	ltpFR	6	4	1	COOKIE	374	n/a	0	n/a	n/a	n/a	n/a	n/a
598247	REC_WORD	wordpools/wasnorm_wordpool_less_exclusions.txt	LTP233	ltpFR	6	4	1	KNEE	784	n/a	1	n/a	n/a	n/a	n/a	n/a
600238	REC_WORD	wordpools/wasnorm_wordpool_less_exclusions.txt	LTP233	ltpFR	6	4	1	LABYRINTH	791	n/a	1	n/a	n/a	n/a	n/a	n/a
603815	REC_WORD	wordpools/wasnorm_wordpool_less_exclusions.txt	LTP233	ltpFR	6	4	1	BIRD	129	n/a	1	n/a	n/a	n/a	n/a	n/a
604523	REC_WORD	wordpools/wasnorm_wordpool_less_exclusions.txt	LTP233	ltpFR	6	4	1	WORM	1623	n/a	1	n/a	n/a	n/a	n/a	n/a
607387	REC_WORD	wordpools/wasnorm_wordpool_less_exclusions.txt	LTP233	ltpFR	6	4	1	PENNY	1045	n/a	0	n/a	n/a	n/a	n/a	n/a
609277	REC_WORD	wordpools/wasnorm_wordpool_less_exclusions.txt	LTP233	ltpFR	6	4	1	ATOM	55	n/a	0	n/a	n/a	n/a	n/a	n/a
614925	REC_WORD	wordpools/wasnorm_wordpool_less_exclusions.txt	LTP233	ltpFR	6	4	n/a	BLUEBERRY	140	n/a	n/a	n/a	n/a	n/a	n/a	n/a
616551	REC_WORD	wordpools/wasnorm_wordpool_less_exclusions.txt	LTP233	ltpFR	6	4	1	ASSISTANT	48	n/a	1	n/a	n/a	n/a	n/a	n/a
620132	REC_WORD_VV	wordpools/wasnorm_wordpool_less_exclusions.txt	LTP233	ltpFR	6	4	n/a	<>	-1	n/a	n/a	n/a	n/a	n/a	n/a	n/a
673942	WORD	wordpools/wasnorm_wordpool_less_exclusions.txt	LTP233	ltpFR	6	5	0	VILLAGE	1566	n/a	0	1	0.412841796875	0.57763671875	lower	../fonts/amplitud.ttf
678024	WORD	wordpools/wasnorm_wordpool_less_exclusions.txt	LTP233	ltpFR	6	5	0	SHACK	1273	n/a	1	1	0.412841796875	0.57763671875	lower	../fonts/amplitud.ttf
682089	WORD	wordpools/wasnorm_wordpool_less_exclusions.txt	LTP233	ltpFR	6	5	0	CARROT	249	n/a	0	1	0.412841796875	0.57763671875	lower	../fonts/amplitud.ttf
686205	WORD	wordpools/wasnorm_wordpool_less_exclusions.txt	LTP233	ltpFR	6	5	0	SEAT	1264	n/a	1	1	0.412841796875	0.57763671875	lower	../fonts/amplitud.ttf
690120	WORD	wordpools/wasnorm_wordpool_less_exclusions.txt	LTP233	ltpFR	6	5	0	ROOST	1208	n/a	1	1	0.412841796875	0.57763671875	lower	../fonts/amplitud.ttf
694336	WORD	wordpools/wasnorm_wordpool_less_exclusions.txt	LTP233	ltpFR	6	5	0	PIGEON	1065	n/a	1	1	0.412841796875	0.57763671875	lower	../fonts/amplitud.ttf
698484	WORD	wordpools/wasnorm_wordpool_less_exclusions.txt	LTP233	ltpFR	6	5	1	BLUEJAY	141	n/a	2	0	0.5869140625	0.422607421875	upper	../fonts/zerothre.ttf
700158	KEY_MSG	n/a	LTP233	ltpFR	6	5	n/a	n/a	n/a	n/a	n/a	n/a	n/a	n/a	n/a	n/a
702700	WORD	wordpools/wasnorm_wordpool_less_exclusions.txt	LTP233	ltpFR	6	5	1	SUPERVISOR	1410	n/a	1	0	0.5869140625	0.422607421875	upper	../fonts/zerothre.ttf
706581	WORD	wordpools/wasnorm_wordpool_less_exclusions.txt	LTP233	ltpFR	6	5	1	GREASE	660	n/a	0	0	0.5869140625	0.422607421875	upper	../fonts/zerothre.ttf
710798	WORD	wordpools/wasnorm_wordpool_less_exclusions.txt	LTP233	ltpFR	6	5	0	BASEMENT	94	n/a	0	1	0.412841796875	0.57763671875	lower	../fonts/amplitud.ttf
714776	WORD	wordpools/wasnorm_wordpool_less_exclusions.txt	LTP233	ltpFR	6	5	0	PATIO	1025	n/a	1	1	0.412841796875	0.57763671875	lower	../fonts/amplitud.ttf
718676	WORD	wordpools/wasnorm_wordpool_less_exclusions.txt	LTP233	ltpFR	6	5	1	SALAD	1224	n/a	0	0	0.5869140625	0.422607421875	upper	../fonts/zerothre.ttf
722860	WORD	wordpools/wasnorm_wordpool_less_exclusions.txt	LTP233	ltpFR	6	5	1	PELICAN	1039	n/a	1	0	0.5869140625	0.422607421875	upper	../fonts/zerothre.ttf
726704	WORD	wordpools/wasnorm_wordpool_less_exclusions.txt	LTP233	ltpFR	6	5	1	FUGITIVE	612	n/a	1	0	0.5869140625	0.422607421875	upper	../fonts/zerothre.ttf
730907	WORD	wordpools/wasnorm_wordpool_less_exclusions.txt	LTP233	ltpFR	6	5	1	SOFTBALL	1343	n/a	0	0	0.5869140625	0.422607421875	upper	../fonts/zerothre.ttf
735056	WORD	wordpools/wasnorm_wordpool_less_exclusions.txt	LTP233	ltpFR	6	5	1	HOOP	716	n/a	0	0	0.5869140625	0.422607421875	upper	../fonts/zerothre.ttf
740858	REC_START	n/a	LTP233	ltpFR	6	5	n/a	n/a	n/a	n/a	n/a	n/a	n/a	n/a	n/a	n/a
741376	REC_WORD	wordpools/wasnorm_wordpool_less_exclusions.txt	LTP233	ltpFR	6	5	1	HOOP	716	n/a	0	n/a	n/a	n/a	n/a	n/a
742499	REC_WORD	wordpools/wasnorm_wordpool_less_exclusions.txt	LTP233	ltpFR	6	5	n/a	SUPERMARKET	1409	n/a	n/a	n/a	n/a	n/a	n/a	n/a
743499	REC_WORD_VV	wordpools/wasnorm_wordpool_less_exclusions.txt	LTP233	ltpFR	6	5	n/a	<>	-1	n/a	n/a	n/a	n/a	n/a	n/a	n/a
744020	REC_WORD	wordpools/wasnorm_wordpool_less_exclusions.txt	LTP233	ltpFR	6	5	1	PELICAN	1039	n/a	1	n/a	n/a	n/a	n/a	n/a
745607	REC_WORD	wordpools/wasnorm_wordpool_less_exclusions.txt	LTP233	ltpFR	6	5	1	HOOP	716	n/a	0	n/a	n/a	n/a	n/a	n/a
747069	REC_WORD	wordpools/wasnorm_wordpool_less_exclusions.txt	LTP233	ltpFR	6	5	n/a	BASEBALL	93	n/a	n/a	n/a	n/a	n/a	n/a	n/a
751708	REC_WORD	wordpools/wasnorm_wordpool_less_exclusions.txt	LTP233	ltpFR	6	5	1	SUPERVISOR	1410	n/a	1	n/a	n/a	n/a	n/a	n/a
752708	REC_WORD_VV	wordpools/wasnorm_wordpool_less_exclusions.txt	LTP233	ltpFR	6	5	n/a	<>	-1	n/a	n/a	n/a	n/a	n/a	n/a	n/a
769827	REC_WORD_VV	wordpools/wasnorm_wordpool_less_exclusions.txt	LTP233	ltpFR	6	5	n/a	<>	-1	n/a	n/a	n/a	n/a	n/a	n/a	n/a
777165	REC_WORD	wordpools/wasnorm_wordpool_less_exclusions.txt	LTP233	ltpFR	6	5	0	BUILDING	191	n/a	1	n/a	n/a	n/a	n/a	n/a
779500	REC_WORD	wordpools/wasnorm_wordpool_less_exclusions.txt	LTP233	ltpFR	6	5	0	SHACK	1273	n/a	1	n/a	n/a	n/a	n/a	n/a
782239	REC_WORD	wordpools/wasnorm_wordpool_less_exclusions.txt	LTP233	ltpFR	6	5	0	VILLAGE	1566	n/a	0	n/a	n/a	n/a	n/a	n/a
786494	REC_WORD	wordpools/wasnorm_wordpool_less_exclusions.txt	LTP233	ltpFR	6	5	0	CARROT	249	n/a	0	n/a	n/a	n/a	n/a	n/a
851812	WORD	wordpools/wasnorm_wordpool_less_exclusions.txt	LTP233	ltpFR	6	6	1	MAILBOX	857	n/a	0	0	0.5869140625	0.422607421875	upper	../fonts/zerothre.ttf
855974	WORD	wordpools/wasnorm_wordpool_less_exclusions.txt	LTP233	ltpFR	6	6	1	ORANGE	980	n/a	1	0	0.5869140625	0.422607421875	upper	../fonts/zerothre.ttf
860110	WORD	wordpools/wasnorm_wordpool_less_exclusions.txt	LTP233	ltpFR	6	6	1	CHIEF	298	n/a	1	0	0.5869140625	0.422607421875	upper	../fonts/zerothre.ttf
864075	WORD	wordpools/wasnorm_wordpool_less_exclusions.txt	LTP233	ltpFR	6	6	0	TEA	1439	n/a	1	1	0.412841796875	0.57763671875	lower	../fonts/amplitud.ttf
868057	WORD	wordpools/wasnorm_wordpool_less_exclusions.txt	LTP233	ltpFR	6	6	0	CUPBOARD	425	n/a	1	1	0.412841796875	0.57763671875	lower	../fonts/amplitud.ttf
871884	WORD	wordpools/wasnorm_wordpool_less_exclusions.txt	LTP233	ltpFR	6	6	1	FIREMAN	569	n/a	1	0	0.5869140625	0.422607421875	upper	../fonts/zerothre.ttf
875732	WORD	wordpools/wasnorm_wordpool_less_exclusions.txt	LTP233	ltpFR	6	6	1	WALLET	1583	n/a	0	0	0.5869140625	0.422607421875	upper	../fonts/zerothre.ttf
879952	WORD	wordpools/wasnorm_wordpool_less_exclusions.txt	LTP233	ltpFR	6	6	1	COLLEGE	346	n/a	0	0	0.5869140625	0.422607421875	upper	../fonts/zerothre.ttf
884030	WORD	wordpools/wasnorm_wordpool_less_exclusions.txt	LTP233	ltpFR	6	6	0	GIRL	637	n/a	1	1	0.412841796875	0.57763671875	lower	../fonts/amplitud.ttf
887882	WORD	wordpools/wasnorm_wordpool_less_exclusions.txt	LTP233	ltpFR	6	6	0	MOLECULE	905	n/a	0	1	0.412841796875	0.57763671875	lower	../fonts/amplitud.ttf
892077	WORD	wordpools/wasnorm_wordpool_less_exclusions.txt	LTP233	ltpFR	6	6	0	PROTON	1132	n/a	0	1	0.412841796875	0.57763671875	lower	../fonts/amplitud.ttf
895929	WORD	wordpools/wasnorm_wordpool_less_exclusions.txt	LTP233	ltpFR	6	6	0	REINDEER	1181	n/a	1	1	0.412841796875	0.57763671875	lower	../fonts/amplitud.ttf
899927	WORD	wordpools/wasnorm_wordpool_less_exclusions.txt	LTP233	ltpFR	6	6	0	SHOVEL	1295	n/a	1	1	0.412841796875	0.57763671875	lower	../fonts/amplitud.ttf
903842	WORD	wordpools/wasnorm_wordpool_less_exclusions.txt	LTP233	ltpFR	6	6	0	SIGNATURE	1306	n/a	0	1	0.412841796875	0.57763671875	lower	../fonts/amplitud.ttf
907903	WORD	wordpools/wasnorm_wordpool_less_exclusions.txt	LTP233	ltpFR	6	6	1	STAFF	1365	n/a	1	0	0.5869140625	0.422607421875	upper	../fonts/zerothre.ttf
912056	WORD	wordpools/wasnorm_wordpool_less_exclusions.txt	LTP233	ltpFR	6	6	1	KIWI	781	n/a	0	0	0.5869140625	0.422607421875	upper	../fonts/zerothre.ttf
917846	REC_START	n/a	LTP233	ltpFR	6	6	n/a	n/a	n/a	n/a	n/a	n/a	n/a	n/a	n/a	n/a
918230	REC_WORD	wordpools/wasnorm_wordpool_less_exclusions.txt	LTP233	ltpFR	6	6	1	KIWI	781	n/a	0	n/a	n/a	n/a	n/a	n/a
919132	REC_WORD	wordpools/wasnorm_wordpool_less_exclusions.txt	LTP233	ltpFR	6	6	1	STAFF	1365	n/a	1	n/a	n/a	n/a	n/a	n/a
934029	REC_WORD	wordpools/wasnorm_wordpool_less_exclusions.txt	LTP233	ltpFR	6	6	0	SHOVEL	1295	n/a	1	n/a	n/a	n/a	n/a	n/a
936005	REC_WORD	wordpools/wasnorm_wordpool_less_exclusions.txt	LTP233	ltpFR	6	6	0	PROTON	1132	n/a	0	n/a	n/a	n/a	n/a	n/a
936726	REC_WORD	wordpools/wasnorm_wordpool_less_exclusions.txt	LTP233	ltpFR	6	6	n/a	NEUTRON	947	n/a	n/a	n/a	n/a	n/a	n/a	n/a
937525	REC_WORD	wordpools/wasnorm_wordpool_less_exclusions.txt	LTP233	ltpFR	6	6	0	MOLECULE	905	n/a	0	n/a	n/a	n/a	n/a	n/a
999753	WORD	wordpools/wasnorm_wordpool_less_exclusions.txt	LTP233	ltpFR	6	7	1	GLASSES	640	n/a	0	0	0.5869140625	0.422607421875	upper	../fonts/zerothre.ttf
1003952	WORD	wordpools/wasnorm_wordpool_less_exclusions.txt	LTP233	ltpFR	6	7	1	BEAST	108	n/a	1	0	0.5869140625	0.422607421875	upper	../fonts/zerothre.ttf
1007784	WORD	wordpools/wasnorm_wordpool_less_exclusions.txt	LTP233	ltpFR	6	7	1	POND	1101	n/a	0	0	0.5869140625	0.422607421875	upper	../fonts/zerothre.ttf
1011799	WORD	wordpools/wasnorm_wordpool_less_exclusions.txt	LTP233	ltpFR	6	7	1	GROUND	666	n/a	0	0	0.5869140625	0.422607421875	upper	../fonts/zerothre.ttf
1015881	WORD	wordpools/wasnorm_wordpool_less_exclusions.txt	LTP233	ltpFR	6	7	1	LENS	811	n/a	0	0	0.5869140625	0.422607421875	upper	../fonts/zerothre.ttf
1020080	WORD	wordpools/wasnorm_wordpool_less_exclusions.txt	LTP233	ltpFR	6	7	1	AGENT	10	n/a	1	0	0.5869140625	0.422607421875	upper	../fonts/zerothre.ttf
1023961	WORD	wordpools/wasnorm_wordpool_less_exclusions.txt	LTP233	ltpFR	6	7	1	ESCALATOR	539	n/a	0	0	0.5869140625	0.422607421875	upper	../fonts/zerothre.ttf
1028023	WORD	wordpools/wasnorm_wordpool_less_exclusions.txt	LTP233	ltpFR	6	7	1	MOB	904	n/a	1	0	0.5869140625	0.422607421875	upper	../fonts/zerothre.ttf
1032142	WORD	wordpools/wasnorm_wordpool_less_exclusions.txt	LTP233	ltpFR	6	7	1	GANG	619	n/a	1	0	0.5869140625	0.422607421875	upper	../fonts/zerothre.ttf
1036191	WORD	wordpools/wasnorm_wordpool_less_exclusions.txt	LTP233	ltpFR	6	7	1	NECKLACE	940	n/a	0	0	0.5869140625	0.422607421875	upper	../fonts/zerothre.ttf
1040256	WORD	wordpools/wasnorm_wordpool_less_exclusions.txt	LTP233	ltpFR	6	7	1	PLUMBER	1091	n/a	1	0	0.5869140625	0.422607421875	upper	../fonts/zerothre.ttf
1044304	WORD	wordpools/wasnorm_wordpool_less_exclusions.txt	LTP233	ltpFR	6	7	1	RAG	1160	n/a	0	0	0.5869140625	0.422607421875	upper	../fonts/zerothre.ttf
1048303	WORD	wordpools/wasnorm_wordpool_less_exclusions.txt	LTP233	ltpFR	6	7	1	CAKE	219	n/a	0	0	0.5869140625	0.422607421875	upper	../fonts/zerothre.ttf
1052184	WORD	wordpools/wasnorm_wordpool_less_exclusions.txt	LTP233	ltpFR	6	7	1	CONE	363	n/a	1	0	0.5869140625	0.422607421875	upper	../fonts/zerothre.ttf
1056316	WORD	wordpools/wasnorm_wordpool_less_exclusions.txt	LTP233	ltpFR	6	7	1	SHOWER	1296	n/a	0	0	0.5869140625	0.422607421875	upper	../fonts/zerothre.ttf
1060515	WORD	wordpools/wasnorm_wordpool_less_exclusions.txt	LTP233	ltpFR	6	7	1	MONSTER	912	n/a	1	0	0.5869140625	0.422607421875	upper	../fonts/zerothre.ttf
1066288	REC_START	n/a	LTP233	ltpFR	6	7	n/a	n/a	n/a	n/a	n/a	n/a	n/a	n/a	n/a	n/a
1066627	REC_WORD	wordpools/wasnorm_wordpool_less_exclusions.txt	LTP233	ltpFR	6	7	1	MONSTER	912	n/a	1	n/a	n/a	n/a	n/a	n/a
1068034	REC_WORD	wordpools/wasnorm_wordpool_less_exclusions.txt	LTP233	ltpFR	6	7	1	RAG	1160	n/a	0	n/a	n/a	n/a	n/a	n/a
1069276	REC_WORD	wordpools/wasnorm_wordpool_less_exclusions.txt	LTP233	ltpFR	6	7	1	CAKE	219	n/a	0	n/a	n/a	n/a	n/a	n/a
1070169	REC_WORD	wordpools/wasnorm_wordpool_less_exclusions.txt	LTP233	ltpFR	6	7	1	SHOWER	1296	n/a	0	n/a	n/a	n/a	n/a	n/a
1071775	REC_WORD	wordpools/wasnorm_wordpool_less_exclusions.txt	LTP233	ltpFR	6	7	1	AGENT	10	n/a	1	n/a	n/a	n/a	n/a	n/a
1072773	REC_WORD	wordpools/wasnorm_wordpool_less_exclusions.txt	LTP233	ltpFR	6	7	1	ESCALATOR	539	n/a	0	n/a	n/a	n/a	n/a	n/a
1073716	REC_WORD	wordpools/wasnorm_wordpool_less_exclusions.txt	LTP233	ltpFR	6	7	1	MOB	904	n/a	1	n/a	n/a	n/a	n/a	n/a
1074903	REC_WORD	wordpools/wasnorm_wordpool_less_exclusions.txt	LTP233	ltpFR	6	7	1	PLUMBER	1091	n/a	1	n/a	n/a	n/a	n/a	n/a
1075841	REC_WORD	wordpools/wasnorm_wordpool_less_exclusions.txt	LTP233	ltpFR	6	7	1	NECKLACE	940	n/a	0	n/a	n/a	n/a	n/a	n/a
1077198	REC_WORD	wordpools/wasnorm_wordpool_less_exclusions.txt	LTP233	ltpFR	6	7	1	GANG	619	n/a	1	n/a	n/a	n/a	n/a	n/a
1081767	REC_WORD	wordpools/wasnorm_wordpool_less_exclusions.txt	LTP233	ltpFR	6	7	1	LENS	811	n/a	0	n/a	n/a	n/a	n/a	n/a
1082985	REC_WORD	wordpools/wasnorm_wordpool_less_exclusions.txt	LTP233	ltpFR	6	7	1	GROUND	666	n/a	0	n/a	n/a	n/a	n/a	n/a
1086796	REC_WORD	wordpools/wasnorm_wordpool_less_exclusions.txt	LTP233	ltpFR	6	7	n/a	LAKE	796	n/a	n/a	n/a	n/a	n/a	n/a	n/a
1088258	REC_WORD	wordpools/wasnorm_wordpool_less_exclusions.txt	LTP233	ltpFR	6	7	n/a	BEAR	106	n/a	n/a	n/a	n/a	n/a	n/a	n/a
1089779	REC_WORD	wordpools/wasnorm_wordpool_less_exclusions.txt	LTP233	ltpFR	6	7	1	GLASSES	640	n/a	0	n/a	n/a	n/a	n/a	n/a
1151709	WORD	wordpools/wasnorm_wordpool_less_exclusions.txt	LTP233	ltpFR	6	8	0	PEN	1041	n/a	0	1	0.412841796875	0.57763671875	lower	../fonts/amplitud.ttf
1155539	WORD	wordpools/wasnorm_wordpool_less_exclusions.txt	LTP233	ltpFR	6	8	0	SAW	1239	n/a	0	1	0.412841796875	0.57763671875	lower	../fonts/amplitud.ttf
1159488	WORD	wordpools/wasnorm_wordpool_less_exclusions.txt	LTP233	ltpFR	6	8	0	SEAFOOD	1260	n/a	1	1	0.412841796875	0.57763671875	lower	../fonts/amplitud.ttf
1163620	WORD	wordpools/wasnorm_wordpool_less_exclusions.txt	LTP233	ltpFR	6	8	0	NEST	945	n/a	0	1	0.412841796875	0.57763671875	lower	../fonts/amplitud.ttf
1167618	WORD	wordpools/wasnorm_wordpool_less_exclusions.txt	LTP233	ltpFR	6	8	0	EDITORIAL	517	n/a	1	1	0.412841796875	0.57763671875	lower	../fonts/amplitud.ttf
1171500	WORD	wordpools/wasnorm_wordpool_less_exclusions.txt	LTP233	ltpFR	6	8	0	MEAL	882	n/a	0	1	0.412841796875	0.57763671875	lower	../fonts/amplitud.ttf
1175365	WORD	wordpools/wasnorm_wordpool_less_exclusions.txt	LTP233	ltpFR	6	8	0	VALLEY	1545	n/a	1	1	0.412841796875	0.57763671875	lower	../fonts/amplitud.ttf
1179330	WORD	wordpools/wasnorm_wordpool_less_exclusions.txt	LTP233	ltpFR	6	8	0	BAND	78	n/a	1	1	0.412841796875	0.57763671875	lower	../fonts/amplitud.ttf
1183446	WORD	wordpools/wasnorm_wordpool_less_exclusions.txt	LTP233	ltpFR	6	8	0	LUNCH	849	n/a	1	1	0.412841796875	0.57763671875	lower	../fonts/amplitud.ttf
1187390	WORD	wordpools/wasnorm_wordpool_less_exclusions.txt	LTP233	ltpFR	6	8	0	CHEF	290	n/a	1	1	0.412841796875	0.57763671875	lower	../fonts/amplitud.ttf
1191292	WORD	wordpools/wasnorm_wordpool_less_exclusions.txt	LTP233	ltpFR	6	8	0	SICKLE	1302	n/a	0	1	0.412841796875	0.57763671875	lower	../fonts/amplitud.ttf
1195424	WORD	wordpools/wasnorm_wordpool_less_exclusions.txt	LTP233	ltpFR	6	8	0	AUTOMOBILE	62	n/a	1	1	0.412841796875	0.57763671875	lower	../fonts/amplitud.ttf
1199568	WORD	wordpools/wasnorm_wordpool_less_exclusions.txt	LTP233	ltpFR	6	8	0	HIGHWAY	707	n/a	1	1	0.412841796875	0.57763671875	lower	../fonts/amplitud.ttf
1203621	WORD	wordpools/wasnorm_wordpool_less_exclusions.txt	LTP233	ltpFR	6	8	0	DRIVER	499	n/a	1	1	0.412841796875	0.57763671875	lower	../fonts/amplitud.ttf
1207737	WORD	wordpools/wasnorm_wordpool_less_exclusions.txt	LTP233	ltpFR	6	8	0	TRUCK	1512	n/a	1	1	0.412841796875	0.57763671875	lower	../fonts/amplitud.ttf
1211732	WORD	wordpools/wasnorm_wordpool_less_exclusions.txt	LTP233	ltpFR	6	8	0	WINGS	1614	n/a	0	1	0.412841796875	0.57763671875	lower	../fonts/amplitud.ttf
1217671	REC_START	n/a	LTP233	ltpFR	6	8	n/a	n/a	n/a	n/a	n/a	n/a	n/a	n/a	n/a	n/a
1218269	REC_WORD	wordpools/wasnorm_wordpool_less_exclusions.txt	LTP233	ltpFR	6	8	0	WINGS	1614	n/a	0	n/a	n/a	n/a	n/a	n/a
1219117	REC_WORD	wordpools/wasnorm_wordpool_less_exclusions.txt	LTP233	ltpFR	6	8	0	DRIVER	499	n/a	1	n/a	n/a	n/a	n/a	n/a
1220180	REC_WORD	wordpools/wasnorm_wordpool_less_exclusions.txt	LTP233	ltpFR	6	8	0	AUTOMOBILE	62	n/a	1	n/a	n/a	n/a	n/a	n/a
1221163	REC_WORD	wordpools/wasnorm_wordpool_less_exclusions.txt	LTP233	ltpFR	6	8	0	HIGHWAY	707	n/a	1	n/a	n/a	n/a	n/a	n/a
1223218	REC_WORD	wordpools/wasnorm_wordpool_less_exclusions.txt	LTP233	ltpFR	6	8	0	SICKLE	1302	n/a	0	n/a	n/a	n/a	n/a	n/a
1224575	REC_WORD	wordpools/wasnorm_wordpool_less_exclusions.txt	LTP233	ltpFR	6	8	0	CHEF	290	n/a	1	n/a	n/a	n/a	n/a	n/a
1225643	REC_WORD	wordpools/wasnorm_wordpool_less_exclusions.txt	LTP233	ltpFR	6	8	0	LUNCH	849	n/a	1	n/a	n/a	n/a	n/a	n/a
1227159	REC_WORD	wordpools/wasnorm_wordpool_less_exclusions.txt	LTP233	ltpFR	6	8	n/a	BREAKFAST	-1	n/a	n/a	n/a	n/a	n/a	n/a	n/a
1232302	REC_WORD	wordpools/wasnorm_wordpool_less_exclusions.txt	LTP233	ltpFR	6	8	0	WINGS	1614	n/a	0	n/a	n/a	n/a	n/a	n/a
1237107	REC_WORD	wordpools/wasnorm_wordpool_less_exclusions.txt	LTP233	ltpFR	6	8	0	TRUCK	1512	n/a	1	n/a	n/a	n/a	n/a	n/a
1249828	REC_WORD	wordpools/wasnorm_wordpool_less_exclusions.txt	LTP233	ltpFR	6	8	0	PEN	1041	n/a	0	n/a	n/a	n/a	n/a	n/a
1301390	WORD	wordpools/wasnorm_wordpool_less_exclusions.txt	LTP233	ltpFR	6	9	0	MICROWAVE	892	n/a	0	1	0.412841796875	0.57763671875	lower	../fonts/amplitud.ttf
1305435	WORD	wordpools/wasnorm_wordpool_less_exclusions.txt	LTP233	ltpFR	6	9	0	PICNIC	1060	n/a	1	1	0.412841796875	0.57763671875	lower	../fonts/amplitud.ttf
1309583	WORD	wordpools/wasnorm_wordpool_less_exclusions.txt	LTP233	ltpFR	6	9	1	OATS	968	n/a	0	0	0.5869140625	0.422607421875	upper	../fonts/zerothre.ttf
1313415	WORD	wordpools/wasnorm_wordpool_less_exclusions.txt	LTP233	ltpFR	6	9	1	DIRT	472	n/a	0	0	0.5869140625	0.422607421875	upper	../fonts/zerothre.ttf
1317266	WORD	wordpools/wasnorm_wordpool_less_exclusions.txt	LTP233	ltpFR	6	9	0	LASH	802	n/a	0	1	0.412841796875	0.57763671875	lower	../fonts/amplitud.ttf
1321165	WORD	wordpools/wasnorm_wordpool_less_exclusions.txt	LTP233	ltpFR	6	9	0	CROCODILE	411	n/a	1	1	0.412841796875	0.57763671875	lower	../fonts/amplitud.ttf
1325280	WORD	wordpools/wasnorm_wordpool_less_exclusions.txt	LTP233	ltpFR	6	9	0	EMPEROR	529	n/a	1	1	0.412841796875	0.57763671875	lower	../fonts/amplitud.ttf
1329245	WORD	wordpools/wasnorm_wordpool_less_exclusions.txt	LTP233	ltpFR	6	9	0	WHIP	1604	n/a	0	1	0.412841796875	0.57763671875	lower	../fonts/amplitud.ttf
1333394	WORD	wordpools/wasnorm_wordpool_less_exclusions.txt	LTP233	ltpFR	6	9	1	BISON	131	n/a	1	0	0.5869140625	0.422607421875	upper	../fonts/zerothre.ttf
1337559	WORD	wordpools/wasnorm_wordpool_less_exclusions.txt	LTP233	ltpFR	6	9	1	SERGEANT	1269	n/a	1	0	0.5869140625	0.422607421875	upper	../fonts/zerothre.ttf
1341404	WORD	wordpools/wasnorm_wordpool_less_exclusions.txt	LTP233	ltpFR	6	9	1	GENERAL	630	n/a	1	0	0.5869140625	0.422607421875	upper	../fonts/zerothre.ttf
1345485	WORD	wordpools/wasnorm_wordpool_less_exclusions.txt	LTP233	ltpFR	6	9	1	PLASTER	1085	n/a	0	0	0.5869140625	0.422607421875	upper	../fonts/zerothre.ttf
1349388	WORD	wordpools/wasnorm_wordpool_less_exclusions.txt	LTP233	ltpFR	6	9	1	JEANS	752	n/a	1	0	0.5869140625	0.422607421875	upper	../fonts/zerothre.ttf
1353469	WORD	wordpools/wasnorm_wordpool_less_exclusions.txt	LTP233	ltpFR	6	9	1	CANDY	230	n/a	0	0	0.5869140625	0.422607421875	upper	../fonts/zerothre.ttf
1357547	WORD	wordpools/wasnorm_wordpool_less_exclusions.txt	LTP233	ltpFR	6	9	0	MARS	873	n/a	1	1	0.412841796875	0.57763671875	lower	../fonts/amplitud.ttf
1361717	WORD	wordpools/wasnorm_wordpool_less_exclusions.txt	LTP233	ltpFR	6	9	0	DINNER	468	n/a	1	1	0.412841796875	0.57763671875	lower	../fonts/amplitud.ttf
1367724	REC_START	n/a	LTP233	ltpFR	6	9	n/a	n/a	n/a	n/a	n/a	n/a	n/a	n/a	n/a	n/a
1368237	REC_WORD	wordpools/wasnorm_wordpool_less_exclusions.txt	LTP233	ltpFR	6	9	0	MARS	873	n/a	1	n/a	n/a	n/a	n/a	n/a
1369754	REC_WORD	wordpools/wasnorm_wordpool_less_exclusions.txt	LTP233	ltpFR	6	9	0	DINNER	468	n/a	1	n/a	n/a	n/a	n/a	n/a
1383064	REC_WORD	wordpools/wasnorm_wordpool_less_exclusions.txt	LTP233	ltpFR	6	9	0	MICROWAVE	892	n/a	0	n/a	n/a	n/a	n/a	n/a
1447888	WORD	wordpools/wasnorm_wordpool_less_exclusions.txt	LTP233	ltpFR	6	10	0	LAMB	797	n/a	1	1	0.412841796875	0.57763671875	lower	../fonts/amplitud.ttf
1452075	WORD	wordpools/wasnorm_wordpool_less_exclusions.txt	LTP233	ltpFR	6	10	0	CHOCOLATE	306	n/a	0	1	0.412841796875	0.57763671875	lower	../fonts/amplitud.ttf
1456190	WORD	wordpools/wasnorm_wordpool_less_exclusions.txt	LTP233	ltpFR	6	10	0	JAW	751	n/a	0	1	0.412841796875	0.57763671875	lower	../fonts/amplitud.ttf
1460218	WORD	wordpools/wasnorm_wordpool_less_exclusions.txt	LTP233	ltpFR	6	10	0	WALRUS	1585	n/a	1	1	0.412841796875	0.57763671875	lower	../fonts/amplitud.ttf
1464116	WORD	wordpools/wasnorm_wordpool_less_exclusions.txt	LTP233	ltpFR	6	10	0	SHELF	1280	n/a	0	1	0.412841796875	0.57763671875	lower	../fonts/amplitud.ttf
1467947	WORD	wordpools/wasnorm_wordpool_less_exclusions.txt	LTP233	ltpFR	6	10	0	ALMANAC	17	n/a	0	1	0.412841796875	0.57763671875	lower	../fonts/amplitud.ttf
1471799	WORD	wordpools/wasnorm_wordpool_less_exclusions.txt	LTP233	ltpFR	6	10	0	BARLEY	88	n/a	0	1	0.412841796875	0.57763671875	lower	../fonts/amplitud.ttf
1475831	WORD	wordpools/wasnorm_wordpool_less_exclusions.txt	LTP233	ltpFR	6	10	0	CHURCH	307	n/a	1	1	0.412841796875	0.57763671875	lower	../fonts/amplitud.ttf
1479996	WORD	wordpools/wasnorm_wordpool_less_exclusions.txt	LTP233	ltpFR	6	10	0	SNORKEL	1336	n/a	0	1	0.412841796875	0.57763671875	lower	../fonts/amplitud.ttf
1484108	WORD	wordpools/wasnorm_wordpool_less_exclusions.txt	LTP233	ltpFR	6	10	0	BRAN	167	n/a	0	1	0.412841796875	0.57763671875	lower	../fonts/amplitud.ttf
1488127	WORD	wordpools/wasnorm_wordpool_less_exclusions.txt	LTP233	ltpFR	6	10	0	CATTLE	261	n/a	1	1	0.412841796875	0.57763671875	lower	../fonts/amplitud.ttf
1492025	WORD	wordpools/wasnorm_wordpool_less_exclusions.txt	LTP233	ltpFR	6	10	0	WHALE	1601	n/a	1	1	0.412841796875	0.57763671875	lower	../fonts/amplitud.ttf
1496090	WORD	wordpools/wasnorm_wordpool_less_exclusions.txt	LTP233	ltpFR	6	10	0	CROSS	413	n/a	0	1	0.412841796875	0.57763671875	lower	../fonts/amplitud.ttf
1500156	WORD	wordpools/wasnorm_wordpool_less_exclusions.txt	LTP233	ltpFR	6	10	0	SHORTS	1293	n/a	0	1	0.412841796875	0.57763671875	lower	../fonts/amplitud.ttf
1504117	WORD	wordpools/wasnorm_wordpool_less_exclusions.txt	LTP233	ltpFR	6	10	0	DOCUMENT	479	n/a	0	1	0.412841796875	0.57763671875	lower	../fonts/amplitud.ttf
1508169	WORD	wordpools/wasnorm_wordpool_less_exclusions.txt	LTP233	ltpFR	6	10	0	MAGAZINE	853	n/a	0	1	0.412841796875	0.57763671875	lower	../fonts/amplitud.ttf
1514226	REC_START	n/a	LTP233	ltpFR	6	10	n/a	n/a	n/a	n/a	n/a	n/a	n/a	n/a	n/a	n/a
1514685	REC_WORD	wordpools/wasnorm_wordpool_less_exclusions.txt	LTP233	ltpFR	6	10	0	MAGAZINE	853	n/a	0	n/a	n/a	n/a	n/a	n/a
1515782	REC_WORD	wordpools/wasnorm_wordpool_less_exclusions.txt	LTP233	ltpFR	6	10	0	SHELF	1280	n/a	0	n/a	n/a	n/a	n/a	n/a
1516955	REC_WORD	wordpools/wasnorm_wordpool_less_exclusions.txt	LTP233	ltpFR	6	10	0	ALMANAC	17	n/a	0	n/a	n/a	n/a	n/a	n/a
1518341	REC_WORD	wordpools/wasnorm_wordpool_less_exclusions.txt	LTP233	ltpFR	6	10	0	CHURCH	307	n/a	1	n/a	n/a	n/a	n/a	n/a
1519209	REC_WORD	wordpools/wasnorm_wordpool_less_exclusions.txt	LTP233	ltpFR	6	10	0	CROSS	413	n/a	0	n/a	n/a	n/a	n/a	n/a
1520062	REC_WORD	wordpools/wasnorm_wordpool_less_exclusions.txt	LTP233	ltpFR	6	10	0	BRAN	167	n/a	0	n/a	n/a	n/a	n/a	n/a
1521794	REC_WORD	wordpools/wasnorm_wordpool_less_exclusions.txt	LTP233	ltpFR	6	10	0	CATTLE	261	n/a	1	n/a	n/a	n/a	n/a	n/a
1522452	REC_WORD	wordpools/wasnorm_wordpool_less_exclusions.txt	LTP233	ltpFR	6	10	0	WHALE	1601	n/a	1	n/a	n/a	n/a	n/a	n/a
1594913	WORD	wordpools/wasnorm_wordpool_less_exclusions.txt	LTP233	ltpFR	6	11	-1	ENEMY	534	n/a	-1	1	1.0	1.0	upper	../fonts/Verdana.ttf
1598744	WORD	wordpools/wasnorm_wordpool_less_exclusions.txt	LTP233	ltpFR	6	11	-1	IGLOO	734	n/a	-1	1	1.0	1.0	upper	../fonts/Verdana.ttf
1602674	WORD	wordpools/wasnorm_wordpool_less_exclusions.txt	LTP233	ltpFR	6	11	-1	CUBE	420	n/a	-1	1	1.0	1.0	upper	../fonts/Verdana.ttf
1606522	WORD	wordpools/wasnorm_wordpool_less_exclusions.txt	LTP233	ltpFR	6	11	-1	BEAR	106	n/a	-1	1	1.0	1.0	upper	../fonts/Verdana.ttf
1610401	WORD	wordpools/wasnorm_wordpool_less_exclusions.txt	LTP233	ltpFR	6	11	-1	DOORBELL	487	n/a	-1	1	1.0	1.0	upper	../fonts/Verdana.ttf
1614616	WORD	wordpools/wasnorm_wordpool_less_exclusions.txt	LTP233	ltpFR	6	11	-1	BELL	118	n/a	-1	1	1.0	1.0	upper	../fonts/Verdana.ttf
1618736	WORD	wordpools/wasnorm_wordpool_less_exclusions.txt	LTP233	ltpFR	6	11	-1	RESTAURANT	1187	n/a	-1	1	1.0	1.0	upper	../fonts/Verdana.ttf
1622666	WORD	wordpools/wasnorm_wordpool_less_exclusions.txt	LTP233	ltpFR	6	11	-1	FOE	587	n/a	-1	1	1.0	1.0	upper	../fonts/Verdana.ttf
1626733	WORD	wordpools/wasnorm_wordpool_less_exclusions.txt	LTP233	ltpFR	6	11	-1	MAGICIAN	854	n/a	-1	1	1.0	1.0	upper	../fonts/Verdana.ttf
1630828	WORD	wordpools/wasnorm_wordpool_less_exclusions.txt	LTP233	ltpFR	6	11	-1	HEATER	698	n/a	-1	1	1.0	1.0	upper	../fonts/Verdana.ttf
1635047	WORD	wordpools/wasnorm_wordpool_less_exclusions.txt	LTP233	ltpFR	6	11	-1	SEAL	1262	n/a	-1	1	1.0	1.0	upper	../fonts/Verdana.ttf
1639113	WORD	wordpools/wasnorm_wordpool_less_exclusions.txt	LTP233	ltpFR	6	11	-1	JUGGLER	763	n/a	-1	1	1.0	1.0	upper	../fonts/Verdana.ttf
1643145	WORD	wordpools/wasnorm_wordpool_less_exclusions.txt	LTP233	ltpFR	6	11	-1	PLATE	1086	n/a	-1	1	1.0	1.0	upper	../fonts/Verdana.ttf
1646972	WORD	wordpools/wasnorm_wordpool_less_exclusions.txt	LTP233	ltpFR	6	11	-1	VEST	1559	n/a	-1	1	1.0	1.0	upper	../fonts/Verdana.ttf
1651141	WORD	wordpools/wasnorm_wordpool_less_exclusions.txt	LTP233	ltpFR	6	11	-1	PALM	1007	n/a	-1	1	1.0	1.0	upper	../fonts/Verdana.ttf
1655341	WORD	wordpools/wasnorm_wordpool_less_exclusions.txt	LTP233	ltpFR	6	11	-1	FLANNEL	574	n/a	-1	1	1.0	1.0	upper	../fonts/Verdana.ttf
1661230	REC_START	n/a	LTP233	ltpFR	6	11	n/a	n/a	n/a	n/a	n/a	n/a	n/a	n/a	n/a	n/a
1661708	REC_WORD	wordpools/wasnorm_wordpool_less_exclusions.txt	LTP233	ltpFR	6	11	-1	FLANNEL	574	n/a	-1	n/a	n/a	n/a	n/a	n/a
1663355	REC_WORD	wordpools/wasnorm_wordpool_less_exclusions.txt	LTP233	ltpFR	6	11	-1	JUGGLER	763	n/a	-1	n/a	n/a	n/a	n/a	n/a
1664806	REC_WORD	wordpools/wasnorm_wordpool_less_exclusions.txt	LTP233	ltpFR	6	11	-1	PLATE	1086	n/a	-1	n/a	n/a	n/a	n/a	n/a
1666602	REC_WORD	wordpools/wasnorm_wordpool_less_exclusions.txt	LTP233	ltpFR	6	11	0	WALRUS	1585	n/a	1	n/a	n/a	n/a	n/a	n/a
1668074	REC_WORD	wordpools/wasnorm_wordpool_less_exclusions.txt	LTP233	ltpFR	6	11	-1	IGLOO	734	n/a	-1	n/a	n/a	n/a	n/a	n/a
1670274	REC_WORD	wordpools/wasnorm_wordpool_less_exclusions.txt	LTP233	ltpFR	6	11	-1	BEAR	106	n/a	-1	n/a	n/a	n/a	n/a	n/a
1671621	REC_WORD	wordpools/wasnorm_wordpool_less_exclusions.txt	LTP233	ltpFR	6	11	-1	DOORBELL	487	n/a	-1	n/a	n/a	n/a	n/a	n/a
1672958	REC_WORD	wordpools/wasnorm_wordpool_less_exclusions.txt	LTP233	ltpFR	6	11	-1	BELL	118	n/a	-1	n/a	n/a	n/a	n/a	n/a
1674395	REC_WORD	wordpools/wasnorm_wordpool_less_exclusions.txt	LTP233	ltpFR	6	11	-1	ENEMY	534	n/a	-1	n/a	n/a	n/a	n/a	n/a
1676280	REC_WORD	wordpools/wasnorm_wordpool_less_exclusions.txt	LTP233	ltpFR	6	11	-1	MAGICIAN	854	n/a	-1	n/a	n/a	n/a	n/a	n/a
1677792	REC_WORD	wordpools/wasnorm_wordpool_less_exclusions.txt	LTP233	ltpFR	6	11	-1	FOE	587	n/a	-1	n/a	n/a	n/a	n/a	n/a
1679274	REC_WORD	wordpools/wasnorm_wordpool_less_exclusions.txt	LTP233	ltpFR	6	11	-1	HEATER	698	n/a	-1	n/a	n/a	n/a	n/a	n/a
1748709	WORD	wordpools/wasnorm_wordpool_less_exclusions.txt	LTP233	ltpFR	6	12	-1	SCENERY	1247	n/a	-1	1	1.0	1.0	upper	../fonts/Verdana.ttf
1752589	WORD	wordpools/wasnorm_wordpool_less_exclusions.txt	LTP233	ltpFR	6	12	-1	SILK	1307	n/a	-1	1	1.0	1.0	upper	../fonts/Verdana.ttf
1756723	WORD	wordpools/wasnorm_wordpool_less_exclusions.txt	LTP233	ltpFR	6	12	-1	SHEET	1279	n/a	-1	1	1.0	1.0	upper	../fonts/Verdana.ttf
1760818	WORD	wordpools/wasnorm_wordpool_less_exclusions.txt	LTP233	ltpFR	6	12	-1	SHED	1277	n/a	-1	1	1.0	1.0	upper	../fonts/Verdana.ttf
1764904	WORD	wordpools/wasnorm_wordpool_less_exclusions.txt	LTP233	ltpFR	6	12	-1	CAT	257	n/a	-1	1	1.0	1.0	upper	../fonts/Verdana.ttf
1768802	WORD	wordpools/wasnorm_wordpool_less_exclusions.txt	LTP233	ltpFR	6	12	-1	SIDING	1304	n/a	-1	1	1.0	1.0	upper	../fonts/Verdana.ttf
1772683	WORD	wordpools/wasnorm_wordpool_less_exclusions.txt	LTP233	ltpFR	6	12	-1	WAIST	1579	n/a	-1	1	1.0	1.0	upper	../fonts/Verdana.ttf
1776563	WORD	wordpools/wasnorm_wordpool_less_exclusions.txt	LTP233	ltpFR	6	12	-1	PORTRAIT	1111	n/a	-1	1	1.0	1.0	upper	../fonts/Verdana.ttf
1780445	WORD	wordpools/wasnorm_wordpool_less_exclusions.txt	LTP233	ltpFR	6	12	-1	CLOUD	328	n/a	-1	1	1.0	1.0	upper	../fonts/Verdana.ttf
1784606	WORD	wordpools/wasnorm_wordpool_less_exclusions.txt	LTP233	ltpFR	6	12	-1	BENCH	121	n/a	-1	1	1.0	1.0	upper	../fonts/Verdana.ttf
1788706	WORD	wordpools/wasnorm_wordpool_less_exclusions.txt	LTP233	ltpFR	6	12	-1	COUCH	386	n/a	-1	1	1.0	1.0	upper	../fonts/Verdana.ttf
1792603	WORD	wordpools/wasnorm_wordpool_less_exclusions.txt	LTP233	ltpFR	6	12	-1	CONCRETE	361	n/a	-1	1	1.0	1.0	upper	../fonts/Verdana.ttf
1796723	WORD	wordpools/wasnorm_wordpool_less_exclusions.txt	LTP233	ltpFR	6	12	-1	ASTEROID	50	n/a	-1	1	1.0	1.0	upper	../fonts/Verdana.ttf
1800739	WORD	wordpools/wasnorm_wordpool_less_exclusions.txt	LTP233	ltpFR	6	12	-1	BUCKLE	185	n/a	-1	1	1.0	1.0	upper	../fonts/Verdana.ttf
1804754	WORD	wordpools/wasnorm_wordpool_less_exclusions.txt	LTP233	ltpFR	6	12	-1	APPLE	33	n/a	-1	1	1.0	1.0	upper	../fonts/Verdana.ttf
1808735	WORD	wordpools/wasnorm_wordpool_less_exclusions.txt	LTP233	ltpFR	6	12	-1	HURRICANE	727	n/a	-1	1	1.0	1.0	upper	../fonts/Verdana.ttf
1814557	REC_START	n/a	LTP233	ltpFR	6	12	n/a	n/a	n/a	n/a	n/a	n/a	n/a	n/a	n/a	n/a
1814966	REC_WORD	wordpools/wasnorm_wordpool_less_exclusions.txt	LTP233	ltpFR	6	12	-1	APPLE	33	n/a	-1	n/a	n/a	n/a	n/a	n/a
1815524	REC_WORD	wordpools/wasnorm_wordpool_less_exclusions.txt	LTP233	ltpFR	6	12	-1	HURRICANE	727	n/a	-1	n/a	n/a	n/a	n/a	n/a
1817685	REC_WORD	wordpools/wasnorm_wordpool_less_exclusions.txt	LTP233	ltpFR	6	12	-1	ASTEROID	50	n/a	-1	n/a	n/a	n/a	n/a	n/a
1818782	REC_WORD	wordpools/wasnorm_wordpool_less_exclusions.txt	LTP233	ltpFR	6	12	-1	CONCRETE	361	n/a	-1	n/a	n/a	n/a	n/a	n/a
1820498	REC_WORD	wordpools/wasnorm_wordpool_less_exclusions.txt	LTP233	ltpFR	6	12	-1	COUCH	386	n/a	-1	n/a	n/a	n/a	n/a	n/a
1821281	REC_WORD	wordpools/wasnorm_wordpool_less_exclusions.txt	LTP233	ltpFR	6	12	-1	BENCH	121	n/a	-1	n/a	n/a	n/a	n/a	n/a
1822055	REC_WORD	wordpools/wasnorm_wordpool_less_exclusions.txt	LTP233	ltpFR	6	12	-1	CONCRETE	361	n/a	-1	n/a	n/a	n/a	n/a	n/a
1890209	REST_REWET	n/a	LTP233	ltpFR	6	12	n/a	n/a	n/a	n/a	n/a	n/a	n/a	n/a	n/a	n/a
2274490	WORD	wordpools/wasnorm_wordpool_less_exclusions.txt	LTP233	ltpFR	6	13	1	PAN	1008	n/a	0	0	0.5869140625	0.422607421875	upper	../fonts/zerothre.ttf
2278385	WORD	wordpools/wasnorm_wordpool_less_exclusions.txt	LTP233	ltpFR	6	13	1	POPE	1105	n/a	1	0	0.5869140625	0.422607421875	upper	../fonts/zerothre.ttf
2282337	WORD	wordpools/wasnorm_wordpool_less_exclusions.txt	LTP233	ltpFR	6	13	1	CATHEDRAL	260	n/a	0	0	0.5869140625	0.422607421875	upper	../fonts/zerothre.ttf
2286518	WORD	wordpools/wasnorm_wordpool_less_exclusions.txt	LTP233	ltpFR	6	13	1	BEAN	105	n/a	0	0	0.5869140625	0.422607421875	upper	../fonts/zerothre.ttf
2290463	WORD	wordpools/wasnorm_wordpool_less_exclusions.txt	LTP233	ltpFR	6	13	1	SAILOR	1223	n/a	1	0	0.5869140625	0.422607421875	upper	../fonts/zerothre.ttf
2294399	WORD	wordpools/wasnorm_wordpool_less_exclusions.txt	LTP233	ltpFR	6	13	1	TRAY	1498	n/a	1	0	0.5869140625	0.422607421875	upper	../fonts/zerothre.ttf
2298427	WORD	wordpools/wasnorm_wordpool_less_exclusions.txt	LTP233	ltpFR	6	13	1	TIGER	1467	n/a	1	0	0.5869140625	0.422607421875	upper	../fonts/zerothre.ttf
2302612	WORD	wordpools/wasnorm_wordpool_less_exclusions.txt	LTP233	ltpFR	6	13	1	GRIZZLY	662	n/a	1	0	0.5869140625	0.422607421875	upper	../fonts/zerothre.ttf
2306444	WORD	wordpools/wasnorm_wordpool_less_exclusions.txt	LTP233	ltpFR	6	13	1	PIER	1063	n/a	0	0	0.5869140625	0.422607421875	upper	../fonts/zerothre.ttf
2310355	WORD	wordpools/wasnorm_wordpool_less_exclusions.txt	LTP233	ltpFR	6	13	1	ACORN	3	n/a	0	0	0.5869140625	0.422607421875	upper	../fonts/zerothre.ttf
2314357	WORD	wordpools/wasnorm_wordpool_less_exclusions.txt	LTP233	ltpFR	6	13	1	ACROBAT	4	n/a	1	0	0.5869140625	0.422607421875	upper	../fonts/zerothre.ttf
2318472	WORD	wordpools/wasnorm_wordpool_less_exclusions.txt	LTP233	ltpFR	6	13	1	PASTRY	1022	n/a	0	0	0.5869140625	0.422607421875	upper	../fonts/zerothre.ttf
2322487	WORD	wordpools/wasnorm_wordpool_less_exclusions.txt	LTP233	ltpFR	6	13	1	MOSS	918	n/a	0	0	0.5869140625	0.422607421875	upper	../fonts/zerothre.ttf
2326399	WORD	wordpools/wasnorm_wordpool_less_exclusions.txt	LTP233	ltpFR	6	13	1	NET	946	n/a	0	0	0.5869140625	0.422607421875	upper	../fonts/zerothre.ttf
2330597	WORD	wordpools/wasnorm_wordpool_less_exclusions.txt	LTP233	ltpFR	6	13	1	COCOON	339	n/a	0	0	0.5869140625	0.422607421875	upper	../fonts/zerothre.ttf
2334768	WORD	wordpools/wasnorm_wordpool_less_exclusions.txt	LTP233	ltpFR	6	13	1	MOSQUITO	917	n/a	1	0	0.5869140625	0.422607421875	upper	../fonts/zerothre.ttf
2340875	REC_START	n/a	LTP233	ltpFR	6	13	n/a	n/a	n/a	n/a	n/a	n/a	n/a	n/a	n/a	n/a
2341194	REC_WORD	wordpools/wasnorm_wordpool_less_exclusions.txt	LTP233	ltpFR	6	13	1	COCOON	339	n/a	0	n/a	n/a	n/a	n/a	n/a
2342042	REC_WORD	wordpools/wasnorm_wordpool_less_exclusions.txt	LTP233	ltpFR	6	13	1	MOSQUITO	917	n/a	1	n/a	n/a	n/a	n/a	n/a
2350368	REC_WORD	wordpools/wasnorm_wordpool_less_exclusions.txt	LTP233	ltpFR	6	13	1	GRIZZLY	662	n/a	1	n/a	n/a	n/a	n/a	n/a
2351910	REC_WORD	wordpools/wasnorm_wordpool_less_exclusions.txt	LTP233	ltpFR	6	13	1	TIGER	1467	n/a	1	n/a	n/a	n/a	n/a	n/a
2353172	REC_WORD	wordpools/wasnorm_wordpool_less_exclusions.txt	LTP233	ltpFR	6	13	1	ACROBAT	4	n/a	1	n/a	n/a	n/a	n/a	n/a
2515030	WORD	wordpools/wasnorm_wordpool_less_exclusions.txt	LTP233	ltpFR	6	14	1	NECK	939	n/a	0	0	0.5869140625	0.422607421875	upper	../fonts/zerothre.ttf
2518995	WORD	wordpools/wasnorm_wordpool_less_exclusions.txt	LTP233	ltpFR	6	14	1	HAT	690	n/a	0	0	0.5869140625	0.422607421875	upper	../fonts/zerothre.ttf
2522910	WORD	wordpools/wasnorm_wordpool_less_exclusions.txt	LTP233	ltpFR	6	14	1	CLARINET	317	n/a	0	0	0.5869140625	0.422607421875	upper	../fonts/zerothre.ttf
2526959	WORD	wordpools/wasnorm_wordpool_less_exclusions.txt	LTP233	ltpFR	6	14	0	MICROPHONE	890	n/a	0	1	0.412841796875	0.57763671875	lower	../fonts/amplitud.ttf
2531124	WORD	wordpools/wasnorm_wordpool_less_exclusions.txt	LTP233	ltpFR	6	14	0	HAWK	692	n/a	0	1	0.412841796875	0.57763671875	lower	../fonts/amplitud.ttf
2535206	WORD	wordpools/wasnorm_wordpool_less_exclusions.txt	LTP233	ltpFR	6	14	1	WASHER	1592	n/a	0	0	0.5869140625	0.422607421875	upper	../fonts/zerothre.ttf
2539205	WORD	wordpools/wasnorm_wordpool_less_exclusions.txt	LTP233	ltpFR	6	14	1	CRUMB	416	n/a	0	0	0.5869140625	0.422607421875	upper	../fonts/zerothre.ttf
2543384	WORD	wordpools/wasnorm_wordpool_less_exclusions.txt	LTP233	ltpFR	6	14	1	DOVE	491	n/a	0	0	0.5869140625	0.422607421875	upper	../fonts/zerothre.ttf
2547468	WORD	wordpools/wasnorm_wordpool_less_exclusions.txt	LTP233	ltpFR	6	14	1	PRUNE	1134	n/a	1	0	0.5869140625	0.422607421875	upper	../fonts/zerothre.ttf
2551480	WORD	wordpools/wasnorm_wordpool_less_exclusions.txt	LTP233	ltpFR	6	14	1	PEAR	1033	n/a	1	0	0.5869140625	0.422607421875	upper	../fonts/zerothre.ttf
2555549	WORD	wordpools/wasnorm_wordpool_less_exclusions.txt	LTP233	ltpFR	6	14	0	BACKBONE	66	n/a	0	1	0.412841796875	0.57763671875	lower	../fonts/amplitud.ttf
2559547	WORD	wordpools/wasnorm_wordpool_less_exclusions.txt	LTP233	ltpFR	6	14	0	DRESS	495	n/a	0	1	0.412841796875	0.57763671875	lower	../fonts/amplitud.ttf
2563626	WORD	wordpools/wasnorm_wordpool_less_exclusions.txt	LTP233	ltpFR	6	14	0	CHAIRPERSON	275	n/a	1	1	0.412841796875	0.57763671875	lower	../fonts/amplitud.ttf
2567696	WORD	wordpools/wasnorm_wordpool_less_exclusions.txt	LTP233	ltpFR	6	14	0	CHIME	300	n/a	0	1	0.412841796875	0.57763671875	lower	../fonts/amplitud.ttf
2571542	WORD	wordpools/wasnorm_wordpool_less_exclusions.txt	LTP233	ltpFR	6	14	0	CONDUCTOR	362	n/a	1	1	0.412841796875	0.57763671875	lower	../fonts/amplitud.ttf
2575671	WORD	wordpools/wasnorm_wordpool_less_exclusions.txt	LTP233	ltpFR	6	14	0	GOVERNOR	651	n/a	1	1	0.412841796875	0.57763671875	lower	../fonts/amplitud.ttf
2581581	REC_START	n/a	LTP233	ltpFR	6	14	n/a	n/a	n/a	n/a	n/a	n/a	n/a	n/a	n/a	n/a
2582189	REC_WORD	wordpools/wasnorm_wordpool_less_exclusions.txt	LTP233	ltpFR	6	14	0	GOVERNOR	651	n/a	1	n/a	n/a	n/a	n/a	n/a
2583162	REC_WORD	wordpools/wasnorm_wordpool_less_exclusions.txt	LTP233	ltpFR	6	14	0	CHIME	300	n/a	0	n/a	n/a	n/a	n/a	n/a
2586669	REC_WORD	wordpools/wasnorm_wordpool_less_exclusions.txt	LTP233	ltpFR	6	14	1	DOVE	491	n/a	0	n/a	n/a	n/a	n/a	n/a
2587931	REC_WORD	wordpools/wasnorm_wordpool_less_exclusions.txt	LTP233	ltpFR	6	14	1	SHOWER	1296	n/a	0	n/a	n/a	n/a	n/a	n/a
2590585	REC_WORD	wordpools/wasnorm_wordpool_less_exclusions.txt	LTP233	ltpFR	6	14	0	CHAIRPERSON	275	n/a	1	n/a	n/a	n/a	n/a	n/a
2806228	WORD	wordpools/wasnorm_wordpool_less_exclusions.txt	LTP233	ltpFR	6	15	-1	TOILET	1475	n/a	-1	1	1.0	1.0	upper	../fonts/Verdana.ttf
2810156	WORD	wordpools/wasnorm_wordpool_less_exclusions.txt	LTP233	ltpFR	6	15	-1	ROOSTER	1209	n/a	-1	1	1.0	1.0	upper	../fonts/Verdana.ttf
2814074	WORD	wordpools/wasnorm_wordpool_less_exclusions.txt	LTP233	ltpFR	6	15	-1	BOUILLON	154	n/a	-1	1	1.0	1.0	upper	../fonts/Verdana.ttf
2818223	WORD	wordpools/wasnorm_wordpool_less_exclusions.txt	LTP233	ltpFR	6	15	-1	CAR	241	n/a	-1	1	1.0	1.0	upper	../fonts/Verdana.ttf
2822422	WORD	wordpools/wasnorm_wordpool_less_exclusions.txt	LTP233	ltpFR	6	15	-1	NOTEBOOK	959	n/a	-1	1	1.0	1.0	upper	../fonts/Verdana.ttf
2826421	WORD	wordpools/wasnorm_wordpool_less_exclusions.txt	LTP233	ltpFR	6	15	-1	WINDSHIELD	1612	n/a	-1	1	1.0	1.0	upper	../fonts/Verdana.ttf
2830386	WORD	wordpools/wasnorm_wordpool_less_exclusions.txt	LTP233	ltpFR	6	15	-1	DIME	466	n/a	-1	1	1.0	1.0	upper	../fonts/Verdana.ttf
2834363	WORD	wordpools/wasnorm_wordpool_less_exclusions.txt	LTP233	ltpFR	6	15	-1	DOLLAR	482	n/a	-1	1	1.0	1.0	upper	../fonts/Verdana.ttf
2838499	WORD	wordpools/wasnorm_wordpool_less_exclusions.txt	LTP233	ltpFR	6	15	-1	DORM	488	n/a	-1	1	1.0	1.0	upper	../fonts/Verdana.ttf
2842543	WORD	wordpools/wasnorm_wordpool_less_exclusions.txt	LTP233	ltpFR	6	15	-1	COMMITTEE	355	n/a	-1	1	1.0	1.0	upper	../fonts/Verdana.ttf
2846446	WORD	wordpools/wasnorm_wordpool_less_exclusions.txt	LTP233	ltpFR	6	15	-1	BASKETBALL	96	n/a	-1	1	1.0	1.0	upper	../fonts/Verdana.ttf
2850627	WORD	wordpools/wasnorm_wordpool_less_exclusions.txt	LTP233	ltpFR	6	15	-1	THORN	1459	n/a	-1	1	1.0	1.0	upper	../fonts/Verdana.ttf
2854777	WORD	wordpools/wasnorm_wordpool_less_exclusions.txt	LTP233	ltpFR	6	15	-1	RUG	1215	n/a	-1	1	1.0	1.0	upper	../fonts/Verdana.ttf
2858809	WORD	wordpools/wasnorm_wordpool_less_exclusions.txt	LTP233	ltpFR	6	15	-1	COACH	331	n/a	-1	1	1.0	1.0	upper	../fonts/Verdana.ttf
2862958	WORD	wordpools/wasnorm_wordpool_less_exclusions.txt	LTP233	ltpFR	6	15	-1	CABOOSE	214	n/a	-1	1	1.0	1.0	upper	../fonts/Verdana.ttf
2867040	WORD	wordpools/wasnorm_wordpool_less_exclusions.txt	LTP233	ltpFR	6	15	-1	WAGON	1578	n/a	-1	1	1.0	1.0	upper	../fonts/Verdana.ttf
2872645	REC_START	n/a	LTP233	ltpFR	6	15	n/a	n/a	n/a	n/a	n/a	n/a	n/a	n/a	n/a	n/a
2874291	REC_WORD	wordpools/wasnorm_wordpool_less_exclusions.txt	LTP233	ltpFR	6	15	-1	DORM	488	n/a	-1	n/a	n/a	n/a	n/a	n/a
2875917	REC_WORD	wordpools/wasnorm_wordpool_less_exclusions.txt	LTP233	ltpFR	6	15	-1	COMMITTEE	355	n/a	-1	n/a	n/a	n/a	n/a	n/a
2877828	REC_WORD	wordpools/wasnorm_wordpool_less_exclusions.txt	LTP233	ltpFR	6	15	-1	BASKETBALL	96	n/a	-1	n/a	n/a	n/a	n/a	n/a
2879295	REC_WORD	wordpools/wasnorm_wordpool_less_exclusions.txt	LTP233	ltpFR	6	15	-1	COACH	331	n/a	-1	n/a	n/a	n/a	n/a	n/a
2892365	REC_WORD	wordpools/wasnorm_wordpool_less_exclusions.txt	LTP233	ltpFR	6	15	-1	RUG	1215	n/a	-1	n/a	n/a	n/a	n/a	n/a
2895084	REC_WORD	wordpools/wasnorm_wordpool_less_exclusions.txt	LTP233	ltpFR	6	15	-1	BOUILLON	154	n/a	-1	n/a	n/a	n/a	n/a	n/a
2897009	REC_WORD	wordpools/wasnorm_wordpool_less_exclusions.txt	LTP233	ltpFR	6	15	-1	ROOSTER	1209	n/a	-1	n/a	n/a	n/a	n/a	n/a
2899583	REC_WORD	wordpools/wasnorm_wordpool_less_exclusions.txt	LTP233	ltpFR	6	15	-1	TOILET	1475	n/a	-1	n/a	n/a	n/a	n/a	n/a
2902831	REC_WORD	wordpools/wasnorm_wordpool_less_exclusions.txt	LTP233	ltpFR	6	15	-1	CAR	241	n/a	-1	n/a	n/a	n/a	n/a	n/a
2904732	REC_WORD	wordpools/wasnorm_wordpool_less_exclusions.txt	LTP233	ltpFR	6	15	-1	DIME	466	n/a	-1	n/a	n/a	n/a	n/a	n/a
2906488	REC_WORD	wordpools/wasnorm_wordpool_less_exclusions.txt	LTP233	ltpFR	6	15	-1	DOLLAR	482	n/a	-1	n/a	n/a	n/a	n/a	n/a
2954499	WORD	wordpools/wasnorm_wordpool_less_exclusions.txt	LTP233	ltpFR	6	16	-1	PICKLE	1059	n/a	-1	1	1.0	1.0	upper	../fonts/Verdana.ttf
2958568	WORD	wordpools/wasnorm_wordpool_less_exclusions.txt	LTP233	ltpFR	6	16	-1	CONCERT	360	n/a	-1	1	1.0	1.0	upper	../fonts/Verdana.ttf
2962433	WORD	wordpools/wasnorm_wordpool_less_exclusions.txt	LTP233	ltpFR	6	16	-1	ALBUM	14	n/a	-1	1	1.0	1.0	upper	../fonts/Verdana.ttf
2966344	WORD	wordpools/wasnorm_wordpool_less_exclusions.txt	LTP233	ltpFR	6	16	-1	SHUTTER	1300	n/a	-1	1	1.0	1.0	upper	../fonts/Verdana.ttf
2970479	WORD	wordpools/wasnorm_wordpool_less_exclusions.txt	LTP233	ltpFR	6	16	-1	TANGERINE	1431	n/a	-1	1	1.0	1.0	upper	../fonts/Verdana.ttf
2974374	WORD	wordpools/wasnorm_wordpool_less_exclusions.txt	LTP233	ltpFR	6	16	-1	TAXI	1438	n/a	-1	1	1.0	1.0	upper	../fonts/Verdana.ttf
2978459	WORD	wordpools/wasnorm_wordpool_less_exclusions.txt	LTP233	ltpFR	6	16	-1	DOCK	477	n/a	-1	1	1.0	1.0	upper	../fonts/Verdana.ttf
2982487	WORD	wordpools/wasnorm_wordpool_less_exclusions.txt	LTP233	ltpFR	6	16	-1	SHIP	1286	n/a	-1	1	1.0	1.0	upper	../fonts/Verdana.ttf
2986590	WORD	wordpools/wasnorm_wordpool_less_exclusions.txt	LTP233	ltpFR	6	16	-1	TABLET	1427	n/a	-1	1	1.0	1.0	upper	../fonts/Verdana.ttf
2990740	WORD	wordpools/wasnorm_wordpool_less_exclusions.txt	LTP233	ltpFR	6	16	-1	NICKEL	950	n/a	-1	1	1.0	1.0	upper	../fonts/Verdana.ttf
2994755	WORD	wordpools/wasnorm_wordpool_less_exclusions.txt	LTP233	ltpFR	6	16	-1	CABIN	211	n/a	-1	1	1.0	1.0	upper	../fonts/Verdana.ttf
2998648	WORD	wordpools/wasnorm_wordpool_less_exclusions.txt	LTP233	ltpFR	6	16	-1	JEEP	753	n/a	-1	1	1.0	1.0	upper	../fonts/Verdana.ttf
3002600	WORD	wordpools/wasnorm_wordpool_less_exclusions.txt	LTP233	ltpFR	6	16	-1	LETTUCE	814	n/a	-1	1	1.0	1.0	upper	../fonts/Verdana.ttf
3006730	WORD	wordpools/wasnorm_wordpool_less_exclusions.txt	LTP233	ltpFR	6	16	-1	ATTIC	56	n/a	-1	1	1.0	1.0	upper	../fonts/Verdana.ttf
3010899	WORD	wordpools/wasnorm_wordpool_less_exclusions.txt	LTP233	ltpFR	6	16	-1	MAILMAN	858	n/a	-1	1	1.0	1.0	upper	../fonts/Verdana.ttf
3014780	WORD	wordpools/wasnorm_wordpool_less_exclusions.txt	LTP233	ltpFR	6	16	-1	VET	1560	n/a	-1	1	1.0	1.0	upper	../fonts/Verdana.ttf
3020838	REC_START	n/a	LTP233	ltpFR	6	16	n/a	n/a	n/a	n/a	n/a	n/a	n/a	n/a	n/a	n/a
3021606	REC_WORD	wordpools/wasnorm_wordpool_less_exclusions.txt	LTP233	ltpFR	6	16	-1	VET	1560	n/a	-1	n/a	n/a	n/a	n/a	n/a
3022768	REC_WORD	wordpools/wasnorm_wordpool_less_exclusions.txt	LTP233	ltpFR	6	16	-1	MAILMAN	858	n/a	-1	n/a	n/a	n/a	n/a	n/a
3025597	REC_WORD	wordpools/wasnorm_wordpool_less_exclusions.txt	LTP233	ltpFR	6	16	-1	SHUTTER	1300	n/a	-1	n/a	n/a	n/a	n/a	n/a
3027513	REC_WORD	wordpools/wasnorm_wordpool_less_exclusions.txt	LTP233	ltpFR	6	16	-1	PICKLE	1059	n/a	-1	n/a	n/a	n/a	n/a	n/a
3028934	REC_WORD	wordpools/wasnorm_wordpool_less_exclusions.txt	LTP233	ltpFR	6	16	1	ORANGE	980	n/a	1	n/a	n/a	n/a	n/a	n/a
3030491	REC_WORD	wordpools/wasnorm_wordpool_less_exclusions.txt	LTP233	ltpFR	6	16	n/a	DUCK	504	n/a	n/a	n/a	n/a	n/a	n/a	n/a
3031728	REC_WORD	wordpools/wasnorm_wordpool_less_exclusions.txt	LTP233	ltpFR	6	16	n/a	BOAT	144	n/a	n/a	n/a	n/a	n/a	n/a	n/a
3035689	REC_WORD	wordpools/wasnorm_wordpool_less_exclusions.txt	LTP233	ltpFR	6	16	-1	NICKEL	950	n/a	-1	n/a	n/a	n/a	n/a	n/a
3038303	REC_WORD	wordpools/wasnorm_wordpool_less_exclusions.txt	LTP233	ltpFR	6	16	-1	CONCERT	360	n/a	-1	n/a	n/a	n/a	n/a	n/a
3040358	REC_WORD	wordpools/wasnorm_wordpool_less_exclusions.txt	LTP233	ltpFR	6	16	-1	ALBUM	14	n/a	-1	n/a	n/a	n/a	n/a	n/a
3049518	REC_WORD	wordpools/wasnorm_wordpool_less_exclusions.txt	LTP233	ltpFR	6	16	-1	TAXI	1438	n/a	-1	n/a	n/a	n/a	n/a	n/a
3106559	REC_START	n/a	LTP233	ltpFR	6	n/a	n/a	n/a	n/a	n/a	n/a	n/a	n/a	n/a	n/a	n/a
3108050	FFR_REC_WORD	wordpools/wasnorm_wordpool_less_exclusions.txt	LTP233	ltpFR	6	n/a	-1	IGLOO	734	n/a	-1	n/a	n/a	n/a	n/a	n/a
3109228	FFR_REC_WORD	wordpools/wasnorm_wordpool_less_exclusions.txt	LTP233	ltpFR	6	n/a	-1	BEAR	106	n/a	-1	n/a	n/a	n/a	n/a	n/a
3110635	FFR_REC_WORD	wordpools/wasnorm_wordpool_less_exclusions.txt	LTP233	ltpFR	6	n/a	-1	ENEMY	534	n/a	-1	n/a	n/a	n/a	n/a	n/a
3111632	FFR_REC_WORD	wordpools/wasnorm_wordpool_less_exclusions.txt	LTP233	ltpFR	6	n/a	-1	FOE	587	n/a	-1	n/a	n/a	n/a	n/a	n/a
3116406	FFR_REC_WORD	wordpools/wasnorm_wordpool_less_exclusions.txt	LTP233	ltpFR	6	n/a	n/a	KITCHEN	778	n/a	n/a	n/a	n/a	n/a	n/a	n/a
3119903	FFR_REC_WORD	wordpools/wasnorm_wordpool_less_exclusions.txt	LTP233	ltpFR	6	n/a	-1	BEAR	106	n/a	-1	n/a	n/a	n/a	n/a	n/a
3120846	FFR_REC_WORD	wordpools/wasnorm_wordpool_less_exclusions.txt	LTP233	ltpFR	6	n/a	0	WALRUS	1585	n/a	1	n/a	n/a	n/a	n/a	n/a
3122238	FFR_REC_WORD	wordpools/wasnorm_wordpool_less_exclusions.txt	LTP233	ltpFR	6	n/a	n/a	JUGGLE	-1	n/a	n/a	n/a	n/a	n/a	n/a	n/a
3123201	FFR_REC_WORD	wordpools/wasnorm_wordpool_less_exclusions.txt	LTP233	ltpFR	6	n/a	-1	PLATE	1086	n/a	-1	n/a	n/a	n/a	n/a	n/a
3128848	FFR_REC_WORD	wordpools/wasnorm_wordpool_less_exclusions.txt	LTP233	ltpFR	6	n/a	1	STALLION	1369	n/a	1	n/a	n/a	n/a	n/a	n/a
3132490	FFR_REC_WORD	wordpools/wasnorm_wordpool_less_exclusions.txt	LTP233	ltpFR	6	n/a	-1	PICKLE	1059	n/a	-1	n/a	n/a	n/a	n/a	n/a
3133193	FFR_REC_WORD	wordpools/wasnorm_wordpool_less_exclusions.txt	LTP233	ltpFR	6	n/a	1	ORANGE	980	n/a	1	n/a	n/a	n/a	n/a	n/a
3134919	FFR_REC_WORD	wordpools/wasnorm_wordpool_less_exclusions.txt	LTP233	ltpFR	6	n/a	-1	TAXI	1438	n/a	-1	n/a	n/a	n/a	n/a	n/a
3136229	FFR_REC_WORD	wordpools/wasnorm_wordpool_less_exclusions.txt	LTP233	ltpFR	6	n/a	n/a	CAB	209	n/a	n/a	n/a	n/a	n/a	n/a	n/a
3138885	FFR_REC_WORD	wordpools/wasnorm_wordpool_less_exclusions.txt	LTP233	ltpFR	6	n/a	-1	CONCERT	360	n/a	-1	n/a	n/a	n/a	n/a	n/a
3140212	FFR_REC_WORD	wordpools/wasnorm_wordpool_less_exclusions.txt	LTP233	ltpFR	6	n/a	-1	APPLE	33	n/a	-1	n/a	n/a	n/a	n/a	n/a
3141155	FFR_REC_WORD	wordpools/wasnorm_wordpool_less_exclusions.txt	LTP233	ltpFR	6	n/a	1	ORANGE	980	n/a	1	n/a	n/a	n/a	n/a	n/a
3143909	FFR_REC_WORD	wordpools/wasnorm_wordpool_less_exclusions.txt	LTP233	ltpFR	6	n/a	0	CHAIRPERSON	275	n/a	1	n/a	n/a	n/a	n/a	n/a
3147630	FFR_REC_WORD	wordpools/wasnorm_wordpool_less_exclusions.txt	LTP233	ltpFR	6	n/a	0	BUILDING	191	n/a	1	n/a	n/a	n/a	n/a	n/a
3177991	FFR_REC_WORD	wordpools/wasnorm_wordpool_less_exclusions.txt	LTP233	ltpFR	6	n/a	n/a	POOL	1103	n/a	n/a	n/a	n/a	n/a	n/a	n/a
3178740	FFR_REC_WORD	wordpools/wasnorm_wordpool_less_exclusions.txt	LTP233	ltpFR	6	n/a	n/a	LAKE	796	n/a	n/a	n/a	n/a	n/a	n/a	n/a
3179827	FFR_REC_WORD	wordpools/wasnorm_wordpool_less_exclusions.txt	LTP233	ltpFR	6	n/a	1	GLASSES	640	n/a	0	n/a	n/a	n/a	n/a	n/a
3181024	FFR_REC_WORD	wordpools/wasnorm_wordpool_less_exclusions.txt	LTP233	ltpFR	6	n/a	1	LENS	811	n/a	0	n/a	n/a	n/a	n/a	n/a
3183644	FFR_REC_WORD	wordpools/wasnorm_wordpool_less_exclusions.txt	LTP233	ltpFR	6	n/a	1	ESCALATOR	539	n/a	0	n/a	n/a	n/a	n/a	n/a
3184567	FFR_REC_WORD	wordpools/wasnorm_wordpool_less_exclusions.txt	LTP233	ltpFR	6	n/a	n/a	ELEVATOR	524	n/a	n/a	n/a	n/a	n/a	n/a	n/a
3186158	FFR_REC_WORD	wordpools/wasnorm_wordpool_less_exclusions.txt	LTP233	ltpFR	6	n/a	1	AGENT	10	n/a	1	n/a	n/a	n/a	n/a	n/a
3187141	FFR_REC_WORD	wordpools/wasnorm_wordpool_less_exclusions.txt	LTP233	ltpFR	6	n/a	1	MOB	904	n/a	1	n/a	n/a	n/a	n/a	n/a
3188094	FFR_REC_WORD	wordpools/wasnorm_wordpool_less_exclusions.txt	LTP233	ltpFR	6	n/a	1	GANG	619	n/a	1	n/a	n/a	n/a	n/a	n/a
3188887	FFR_REC_WORD	wordpools/wasnorm_wordpool_less_exclusions.txt	LTP233	ltpFR	6	n/a	1	NECKLACE	940	n/a	0	n/a	n/a	n/a	n/a	n/a
3191127	FFR_REC_WORD	wordpools/wasnorm_wordpool_less_exclusions.txt	LTP233	ltpFR	6	n/a	1	PLUMBER	1091	n/a	1	n/a	n/a	n/a	n/a	n/a
3193825	FFR_REC_WORD	wordpools/wasnorm_wordpool_less_exclusions.txt	LTP233	ltpFR	6	n/a	-1	TOILET	1475	n/a	-1	n/a	n/a	n/a	n/a	n/a
3195197	FFR_REC_WORD	wordpools/wasnorm_wordpool_less_exclusions.txt	LTP233	ltpFR	6	n/a	-1	ROOSTER	1209	n/a	-1	n/a	n/a	n/a	n/a	n/a
3196325	FFR_REC_WORD	wordpools/wasnorm_wordpool_less_exclusions.txt	LTP233	ltpFR	6	n/a	0	ROOST	1208	n/a	1	n/a	n/a	n/a	n/a	n/a
3197966	FFR_REC_WORD	wordpools/wasnorm_wordpool_less_exclusions.txt	LTP233	ltpFR	6	n/a	0	PIGEON	1065	n/a	1	n/a	n/a	n/a	n/a	n/a
3199358	FFR_REC_WORD	wordpools/wasnorm_wordpool_less_exclusions.txt	LTP233	ltpFR	6	n/a	1	WORM	1623	n/a	1	n/a	n/a	n/a	n/a	n/a
3202286	FFR_REC_WORD	wordpools/wasnorm_wordpool_less_exclusions.txt	LTP233	ltpFR	6	n/a	-1	NICKEL	950	n/a	-1	n/a	n/a	n/a	n/a	n/a
3203279	FFR_REC_WORD	wordpools/wasnorm_wordpool_less_exclusions.txt	LTP233	ltpFR	6	n/a	1	QUARTER	1148	n/a	1	n/a	n/a	n/a	n/a	n/a
3204302	FFR_REC_WORD	wordpools/wasnorm_wordpool_less_exclusions.txt	LTP233	ltpFR	6	n/a	-1	DIME	466	n/a	-1	n/a	n/a	n/a	n/a	n/a
3205230	FFR_REC_WORD	wordpools/wasnorm_wordpool_less_exclusions.txt	LTP233	ltpFR	6	n/a	-1	CAR	241	n/a	-1	n/a	n/a	n/a	n/a	n/a
3207894	FFR_REC_WORD	wordpools/wasnorm_wordpool_less_exclusions.txt	LTP233	ltpFR	6	n/a	-1	DORM	488	n/a	-1	n/a	n/a	n/a	n/a	n/a
3208667	FFR_REC_WORD	wordpools/wasnorm_wordpool_less_exclusions.txt	LTP233	ltpFR	6	n/a	-1	COMMITTEE	355	n/a	-1	n/a	n/a	n/a	n/a	n/a
3209540	FFR_REC_WORD	wordpools/wasnorm_wordpool_less_exclusions.txt	LTP233	ltpFR	6	n/a	-1	BASKETBALL	96	n/a	-1	n/a	n/a	n/a	n/a	n/a
3212174	FFR_REC_WORD	wordpools/wasnorm_wordpool_less_exclusions.txt	LTP233	ltpFR	6	n/a	-1	COACH	331	n/a	-1	n/a	n/a	n/a	n/a	n/a
3221463	FFR_REC_WORD	wordpools/wasnorm_wordpool_less_exclusions.txt	LTP233	ltpFR	6	n/a	n/a	DASHBOARD	441	n/a	n/a	n/a	n/a	n/a	n/a	n/a
3224735	FFR_REC_WORD	wordpools/wasnorm_wordpool_less_exclusions.txt	LTP233	ltpFR	6	n/a	-1	DOLLAR	482	n/a	-1	n/a	n/a	n/a	n/a	n/a
3247833	FFR_REC_WORD	wordpools/wasnorm_wordpool_less_exclusions.txt	LTP233	ltpFR	6	n/a	0	CHEF	290	n/a	1	n/a	n/a	n/a	n/a	n/a
3260888	FFR_REC_WORD	wordpools/wasnorm_wordpool_less_exclusions.txt	LTP233	ltpFR	6	n/a	-1	BOUILLON	154	n/a	-1	n/a	n/a	n/a	n/a	n/a
3272512	FFR_REC_WORD	wordpools/wasnorm_wordpool_less_exclusions.txt	LTP233	ltpFR	6	n/a	1	KLEENEX	782	n/a	0	n/a	n/a	n/a	n/a	n/a
3274826	FFR_REC_WORD	wordpools/wasnorm_wordpool_less_exclusions.txt	LTP233	ltpFR	6	n/a	1	UNDERWEAR	1537	n/a	0	n/a	n/a	n/a	n/a	n/a
3276907	FFR_REC_WORD	wordpools/wasnorm_wordpool_less_exclusions.txt	LTP233	ltpFR	6	n/a	1	BED	110	n/a	0	n/a	n/a	n/a	n/a	n/a
3282180	FFR_REC_WORD	wordpools/wasnorm_wordpool_less_exclusions.txt	LTP233	ltpFR	6	n/a	1	SHOWER	1296	n/a	0	n/a	n/a	n/a	n/a	n/a
3290281	FFR_REC_WORD	wordpools/wasnorm_wordpool_less_exclusions.txt	LTP233	ltpFR	6	n/a	1	DOVE	491	n/a	0	n/a	n/a	n/a	n/a	n/a
3295893	FFR_REC_WORD	wordpools/wasnorm_wordpool_less_exclusions.txt	LTP233	ltpFR	6	n/a	0	VILLAGE	1566	n/a	0	n/a	n/a	n/a	n/a	n/a
3296986	FFR_REC_WORD	wordpools/wasnorm_wordpool_less_exclusions.txt	LTP233	ltpFR	6	n/a	0	SHACK	1273	n/a	1	n/a	n/a	n/a	n/a	n/a
3318617	FFR_REC_WORD	wordpools/wasnorm_wordpool_less_exclusions.txt	LTP233	ltpFR	6	n/a	n/a	CORN	381	n/a	n/a	n/a	n/a	n/a	n/a	n/a
3320777	FFR_REC_WORD	wordpools/wasnorm_wordpool_less_exclusions.txt	LTP233	ltpFR	6	n/a	n/a	CORK	380	n/a	n/a	n/a	n/a	n/a	n/a	n/a
3322757	FFR_REC_WORD	wordpools/wasnorm_wordpool_less_exclusions.txt	LTP233	ltpFR	6	n/a	n/a	COB	334	n/a	n/a	n/a	n/a	n/a	n/a	n/a
3324199	FFR_REC_WORD	wordpools/wasnorm_wordpool_less_exclusions.txt	LTP233	ltpFR	6	n/a	-1	SHED	1277	n/a	-1	n/a	n/a	n/a	n/a	n/a
3325391	FFR_REC_WORD	wordpools/wasnorm_wordpool_less_exclusions.txt	LTP233	ltpFR	6	n/a	0	SLEIGH	1325	n/a	1	n/a	n/a	n/a	n/a	n/a
3326998	FFR_REC_WORD	wordpools/wasnorm_wordpool_less_exclusions.txt	LTP233	ltpFR	6	n/a	-1	CAT	257	n/a	-1	n/a	n/a	n/a	n/a	n/a
3328424	FFR_REC_WORD	wordpools/wasnorm_wordpool_less_exclusions.txt	LTP233	ltpFR	6	n/a	-1	SILK	1307	n/a	-1	n/a	n/a	n/a	n/a	n/a
3399513	FFR_REC_WORD	wordpools/wasnorm_wordpool_less_exclusions.txt	LTP233	ltpFR	6	n/a	0	TOMATO	1476	n/a	0	n/a	n/a	n/a	n/a	n/a
3401234	FFR_REC_WORD	wordpools/wasnorm_wordpool_less_exclusions.txt	LTP233	ltpFR	6	n/a	0	CARROT	249	n/a	0	n/a	n/a	n/a	n/a	n/a
3432921	REC_START	n/a	LTP233	ltpFR	6	1	n/a	n/a	n/a	n/a	n/a	n/a	n/a	n/a	n/a	n/a
3432973	RECOG_TARGET	n/a	LTP233	ltpFR	6	1	1	MOSS	918	1	0	n/a	n/a	n/a	n/a	n/a
3435460	RECOG_RESP	n/a	LTP233	ltpFR	6	1	1	MOSS	918	n/a	0	n/a	n/a	n/a	n/a	n/a
3436688	RECOG_CONF	n/a	LTP233	ltpFR	6	1	1	MOSS	918	1	0	n/a	n/a	n/a	n/a	n/a
3438577	RECOG_LURE	n/a	LTP233	ltpFR	6	1	n/a	TART	1436	5	n/a	n/a	n/a	n/a	n/a	n/a
3439734	RECOG_RESP	n/a	LTP233	ltpFR	6	1	n/a	TART	1436	n/a	n/a	n/a	n/a	n/a	n/a	n/a
3440788	RECOG_CONF	n/a	LTP233	ltpFR	6	1	n/a	TART	1436	5	n/a	n/a	n/a	n/a	n/a	n/a
3442605	RECOG_LURE	n/a	LTP233	ltpFR	6	1	n/a	PECAN	1036	1	n/a	n/a	n/a	n/a	n/a	n/a
3443336	RECOG_RESP	n/a	LTP233	ltpFR	6	1	n/a	PECAN	1036	n/a	n/a	n/a	n/a	n/a	n/a	n/a
3444068	RECOG_CONF	n/a	LTP233	ltpFR	6	1	n/a	PECAN	1036	1	n/a	n/a	n/a	n/a	n/a	n/a
3445855	RECOG_LURE	n/a	LTP233	ltpFR	6	1	n/a	SALIVA	1226	1	n/a	n/a	n/a	n/a	n/a	n/a
3446630	RECOG_RESP	n/a	LTP233	ltpFR	6	1	n/a	SALIVA	1226	n/a	n/a	n/a	n/a	n/a	n/a	n/a
3447420	RECOG_CONF	n/a	LTP233	ltpFR	6	1	n/a	SALIVA	1226	1	n/a	n/a	n/a	n/a	n/a	n/a
3449214	RECOG_TARGET	n/a	LTP233	ltpFR	6	1	-1	CABOOSE	214	5	-1	n/a	n/a	n/a	n/a	n/a
3450236	RECOG_RESP	n/a	LTP233	ltpFR	6	1	-1	CABOOSE	214	n/a	-1	n/a	n/a	n/a	n/a	n/a
3450888	RECOG_CONF	n/a	LTP233	ltpFR	6	1	-1	CABOOSE	214	5	-1	n/a	n/a	n/a	n/a	n/a
3452630	RECOG_LURE	n/a	LTP233	ltpFR	6	1	n/a	MARBLE	867	3	n/a	n/a	n/a	n/a	n/a	n/a
3453333	RECOG_RESP	n/a	LTP233	ltpFR	6	1	n/a	MARBLE	867	n/a	n/a	n/a	n/a	n/a	n/a	n/a
3454035	RECOG_CONF	n/a	LTP233	ltpFR	6	1	n/a	MARBLE	867	3	n/a	n/a	n/a	n/a	n/a	n/a
3455709	RECOG_TARGET	n/a	LTP233	ltpFR	6	1	0	CHAIRPERSON	275	5	1	n/a	n/a	n/a	n/a	n/a
3457090	RECOG_RESP	n/a	LTP233	ltpFR	6	1	0	CHAIRPERSON	275	n/a	1	n/a	n/a	n/a	n/a	n/a
3457749	RECOG_CONF	n/a	LTP233	ltpFR	6	1	0	CHAIRPERSON	275	5	1	n/a	n/a	n/a	n/a	n/a
3459456	RECOG_TARGET	n/a	LTP233	ltpFR	6	1	0	GOVERNOR	651	1	1	n/a	n/a	n/a	n/a	n/a
3460201	RECOG_RESP	n/a	LTP233	ltpFR	6	1	0	GOVERNOR	651	n/a	1	n/a	n/a	n/a	n/a	n/a
3460920	RECOG_CONF	n/a	LTP233	ltpFR	6	1	0	GOVERNOR	651	1	1	n/a	n/a	n/a	n/a	n/a
3462786	RECOG_LURE	n/a	LTP233	ltpFR	6	1	n/a	VILLAIN	1567	2	n/a	n/a	n/a	n/a	n/a	n/a
3463637	RECOG_RESP_VV	n/a	LTP233	ltpFR	6	1	n/a	VILLAIN	1567	n/a	n/a	n/a	n/a	n/a	n/a	n/a
3464750	RECOG_RESP	n/a	LTP233	ltpFR	6	1	n/a	VILLAIN	1567	n/a	n/a	n/a	n/a	n/a	n/a	n/a
3465664	RECOG_CONF	n/a	LTP233	ltpFR	6	1	n/a	VILLAIN	1567	2	n/a	n/a	n/a	n/a	n/a	n/a
3467519	RECOG_LURE	n/a	LTP233	ltpFR	6	1	n/a	RIFLE	1192	5	n/a	n/a	n/a	n/a	n/a	n/a
3468319	RECOG_RESP	n/a	LTP233	ltpFR	6	1	n/a	RIFLE	1192	n/a	n/a	n/a	n/a	n/a	n/a	n/a
3469011	RECOG_CONF	n/a	LTP233	ltpFR	6	1	n/a	RIFLE	1192	5	n/a	n/a	n/a	n/a	n/a	n/a
3470883	RECOG_LURE	n/a	LTP233	ltpFR	6	1	n/a	CALENDAR	221	5	n/a	n/a	n/a	n/a	n/a	n/a
3471633	RECOG_RESP	n/a	LTP233	ltpFR	6	1	n/a	CALENDAR	221	n/a	n/a	n/a	n/a	n/a	n/a	n/a
3472183	RECOG_CONF	n/a	LTP233	ltpFR	6	1	n/a	CALENDAR	221	5	n/a	n/a	n/a	n/a	n/a	n/a
3474058	RECOG_TARGET	n/a	LTP233	ltpFR	6	1	1	DOVE	491	5	0	n/a	n/a	n/a	n/a	n/a
3474659	RECOG_RESP	n/a	LTP233	ltpFR	6	1	1	DOVE	491	n/a	0	n/a	n/a	n/a	n/a	n/a
3475119	RECOG_CONF	n/a	LTP233	ltpFR	6	1	1	DOVE	491	5	0	n/a	n/a	n/a	n/a	n/a
3476989	RECOG_TARGET	n/a	LTP233	ltpFR	6	1	0	WINGS	1614	5	0	n/a	n/a	n/a	n/a	n/a
3477622	RECOG_RESP	n/a	LTP233	ltpFR	6	1	0	WINGS	1614	n/a	0	n/a	n/a	n/a	n/a	n/a
3478151	RECOG_CONF	n/a	LTP233	ltpFR	6	1	0	WINGS	1614	5	0	n/a	n/a	n/a	n/a	n/a
3480067	RECOG_TARGET	n/a	LTP233	ltpFR	6	1	0	NEST	945	5	0	n/a	n/a	n/a	n/a	n/a
3480751	RECOG_RESP	n/a	LTP233	ltpFR	6	1	0	NEST	945	n/a	0	n/a	n/a	n/a	n/a	n/a
3481339	RECOG_CONF	n/a	LTP233	ltpFR	6	1	0	NEST	945	5	0	n/a	n/a	n/a	n/a	n/a
3483346	RECOG_LURE	n/a	LTP233	ltpFR	6	1	n/a	BROCCOLI	176	5	n/a	n/a	n/a	n/a	n/a	n/a
3483960	RECOG_RESP	n/a	LTP233	ltpFR	6	1	n/a	BROCCOLI	176	n/a	n/a	n/a	n/a	n/a	n/a	n/a
3484627	RECOG_CONF	n/a	LTP233	ltpFR	6	1	n/a	BROCCOLI	176	5	n/a	n/a	n/a	n/a	n/a	n/a
3486404	RECOG_TARGET	n/a	LTP233	ltpFR	6	1	-1	MAILMAN	858	5	-1	n/a	n/a	n/a	n/a	n/a
3487116	RECOG_RESP_VV	n/a	LTP233	ltpFR	6	1	-1	MAILMAN	858	n/a	-1	n/a	n/a	n/a	n/a	n/a
3487853	RECOG_RESP	n/a	LTP233	ltpFR	6	1	-1	MAILMAN	858	n/a	-1	n/a	n/a	n/a	n/a	n/a
3488643	RECOG_CONF	n/a	LTP233	ltpFR	6	1	-1	MAILMAN	858	5	-1	n/a	n/a	n/a	n/a	n/a
3490423	RECOG_LURE	n/a	LTP233	ltpFR	6	1	n/a	BOX	159	2	n/a	n/a	n/a	n/a	n/a	n/a
3492224	RECOG_RESP	n/a	LTP233	ltpFR	6	1	n/a	BOX	159	n/a	n/a	n/a	n/a	n/a	n/a	n/a
3493150	RECOG_CONF	n/a	LTP233	ltpFR	6	1	n/a	BOX	159	2	n/a	n/a	n/a	n/a	n/a	n/a
3494990	RECOG_TARGET	n/a	LTP233	ltpFR	6	1	0	WALRUS	1585	5	1	n/a	n/a	n/a	n/a	n/a
3495762	RECOG_RESP	n/a	LTP233	ltpFR	6	1	0	WALRUS	1585	n/a	1	n/a	n/a	n/a	n/a	n/a
3496320	RECOG_CONF	n/a	LTP233	ltpFR	6	1	0	WALRUS	1585	5	1	n/a	n/a	n/a	n/a	n/a
3498202	RECOG_LURE	n/a	LTP233	ltpFR	6	1	n/a	COWBOY	395	1	n/a	n/a	n/a	n/a	n/a	n/a
3498875	RECOG_RESP_VV	n/a	LTP233	ltpFR	6	1	n/a	COWBOY	395	n/a	n/a	n/a	n/a	n/a	n/a	n/a
3499861	RECOG_RESP	n/a	LTP233	ltpFR	6	1	n/a	COWBOY	395	n/a	n/a	n/a	n/a	n/a	n/a	n/a
3500752	RECOG_CONF	n/a	LTP233	ltpFR	6	1	n/a	COWBOY	395	1	n/a	n/a	n/a	n/a	n/a	n/a
3502584	RECOG_TARGET	n/a	LTP233	ltpFR	6	1	0	SERVER	1272	5	1	n/a	n/a	n/a	n/a	n/a
3503334	RECOG_RESP	n/a	LTP233	ltpFR	6	1	0	SERVER	1272	n/a	1	n/a	n/a	n/a	n/a	n/a
3503831	RECOG_CONF	n/a	LTP233	ltpFR	6	1	0	SERVER	1272	5	1	n/a	n/a	n/a	n/a	n/a
3507234	REC_START	n/a	LTP233	ltpFR	6	2	n/a	n/a	n/a	n/a	n/a	n/a	n/a	n/a	n/a	n/a
3507287	RECOG_TARGET	n/a	LTP233	ltpFR	6	2	1	YARD	1630	1	0	n/a	n/a	n/a	n/a	n/a
3507973	RECOG_RESP	n/a	LTP233	ltpFR	6	2	1	YARD	1630	n/a	0	n/a	n/a	n/a	n/a	n/a
3508551	RECOG_CONF	n/a	LTP233	ltpFR	6	2	1	YARD	1630	1	0	n/a	n/a	n/a	n/a	n/a
3510248	RECOG_LURE	n/a	LTP233	ltpFR	6	2	n/a	PLAYGROUND	1087	1	n/a	n/a	n/a	n/a	n/a	n/a
3511046	RECOG_RESP	n/a	LTP233	ltpFR	6	2	n/a	PLAYGROUND	1087	n/a	n/a	n/a	n/a	n/a	n/a	n/a
3511741	RECOG_CONF	n/a	LTP233	ltpFR	6	2	n/a	PLAYGROUND	1087	1	n/a	n/a	n/a	n/a	n/a	n/a
3513589	RECOG_TARGET	n/a	LTP233	ltpFR	6	2	1	MONSTER	912	5	1	n/a	n/a	n/a	n/a	n/a
3514203	RECOG_RESP	n/a	LTP233	ltpFR	6	2	1	MONSTER	912	n/a	1	n/a	n/a	n/a	n/a	n/a
3514617	RECOG_CONF	n/a	LTP233	ltpFR	6	2	1	MONSTER	912	5	1	n/a	n/a	n/a	n/a	n/a
3516500	RECOG_LURE	n/a	LTP233	ltpFR	6	2	n/a	CAFETERIA	217	2	n/a	n/a	n/a	n/a	n/a	n/a
3517095	RECOG_RESP_VV	n/a	LTP233	ltpFR	6	2	n/a	CAFETERIA	217	n/a	n/a	n/a	n/a	n/a	n/a	n/a
3518041	RECOG_RESP	n/a	LTP233	ltpFR	6	2	n/a	CAFETERIA	217	n/a	n/a	n/a	n/a	n/a	n/a	n/a
3518709	RECOG_CONF	n/a	LTP233	ltpFR	6	2	n/a	CAFETERIA	217	2	n/a	n/a	n/a	n/a	n/a	n/a
3520453	RECOG_TARGET	n/a	LTP233	ltpFR	6	2	1	GLASSES	640	5	0	n/a	n/a	n/a	n/a	n/a
3521100	RECOG_RESP	n/a	LTP233	ltpFR	6	2	1	GLASSES	640	n/a	0	n/a	n/a	n/a	n/a	n/a
3521503	RECOG_CONF	n/a	LTP233	ltpFR	6	2	1	GLASSES	640	5	0	n/a	n/a	n/a	n/a	n/a
3523297	RECOG_LURE	n/a	LTP233	ltpFR	6	2	n/a	HOUND	724	2	n/a	n/a	n/a	n/a	n/a	n/a
3524215	RECOG_RESP	n/a	LTP233	ltpFR	6	2	n/a	HOUND	724	n/a	n/a	n/a	n/a	n/a	n/a	n/a
3525002	RECOG_CONF	n/a	LTP233	ltpFR	6	2	n/a	HOUND	724	2	n/a	n/a	n/a	n/a	n/a	n/a
3526726	RECOG_TARGET	n/a	LTP233	ltpFR	6	2	1	CAKE	219	5	0	n/a	n/a	n/a	n/a	n/a
3527410	RECOG_RESP	n/a	LTP233	ltpFR	6	2	1	CAKE	219	n/a	0	n/a	n/a	n/a	n/a	n/a
3527858	RECOG_CONF	n/a	LTP233	ltpFR	6	2	1	CAKE	219	5	0	n/a	n/a	n/a	n/a	n/a
3529688	RECOG_TARGET	n/a	LTP233	ltpFR	6	2	0	CLOTHES	327	3	0	n/a	n/a	n/a	n/a	n/a
3530753	RECOG_RESP	n/a	LTP233	ltpFR	6	2	0	CLOTHES	327	n/a	0	n/a	n/a	n/a	n/a	n/a
3531478	RECOG_CONF	n/a	LTP233	ltpFR	6	2	0	CLOTHES	327	3	0	n/a	n/a	n/a	n/a	n/a
3533117	RECOG_LURE	n/a	LTP233	ltpFR	6	2	n/a	TRUMPET	1513	4	n/a	n/a	n/a	n/a	n/a	n/a
3534095	RECOG_RESP	n/a	LTP233	ltpFR	6	2	n/a	TRUMPET	1513	n/a	n/a	n/a	n/a	n/a	n/a	n/a
3535016	RECOG_CONF	n/a	LTP233	ltpFR	6	2	n/a	TRUMPET	1513	4	n/a	n/a	n/a	n/a	n/a	n/a
3536764	RECOG_LURE	n/a	LTP233	ltpFR	6	2	n/a	JELLY	755	4	n/a	n/a	n/a	n/a	n/a	n/a
3537725	RECOG_RESP	n/a	LTP233	ltpFR	6	2	n/a	JELLY	755	n/a	n/a	n/a	n/a	n/a	n/a	n/a
3538502	RECOG_CONF	n/a	LTP233	ltpFR	6	2	n/a	JELLY	755	4	n/a	n/a	n/a	n/a	n/a	n/a
3540307	RECOG_TARGET	n/a	LTP233	ltpFR	6	2	1	HAT	690	4	0	n/a	n/a	n/a	n/a	n/a
3541140	RECOG_RESP	n/a	LTP233	ltpFR	6	2	1	HAT	690	n/a	0	n/a	n/a	n/a	n/a	n/a
3541736	RECOG_CONF	n/a	LTP233	ltpFR	6	2	1	HAT	690	4	0	n/a	n/a	n/a	n/a	n/a
3543737	RECOG_LURE	n/a	LTP233	ltpFR	6	2	n/a	TRIBE	1505	1	n/a	n/a	n/a	n/a	n/a	n/a
3544757	RECOG_RESP	n/a	LTP233	ltpFR	6	2	n/a	TRIBE	1505	n/a	n/a	n/a	n/a	n/a	n/a	n/a
3545662	RECOG_CONF	n/a	LTP233	ltpFR	6	2	n/a	TRIBE	1505	1	n/a	n/a	n/a	n/a	n/a	n/a
3547267	RECOG_TARGET	n/a	LTP233	ltpFR	6	2	1	GROUND	666	5	0	n/a	n/a	n/a	n/a	n/a
3548229	RECOG_RESP	n/a	LTP233	ltpFR	6	2	1	GROUND	666	n/a	0	n/a	n/a	n/a	n/a	n/a
3548635	RECOG_CONF	n/a	LTP233	ltpFR	6	2	1	GROUND	666	5	0	n/a	n/a	n/a	n/a	n/a
3550532	RECOG_LURE	n/a	LTP233	ltpFR	6	2	n/a	BROOK	177	2	n/a	n/a	n/a	n/a	n/a	n/a
3551266	RECOG_RESP	n/a	LTP233	ltpFR	6	2	n/a	BROOK	177	n/a	n/a	n/a	n/a	n/a	n/a	n/a
3551963	RECOG_CONF	n/a	LTP233	ltpFR	6	2	n/a	BROOK	177	2	n/a	n/a	n/a	n/a	n/a	n/a
3553660	RECOG_TARGET	n/a	LTP233	ltpFR	6	2	1	POND	1101	4	0	n/a	n/a	n/a	n/a	n/a
3554537	RECOG_RESP	n/a	LTP233	ltpFR	6	2	1	POND	1101	n/a	0	n/a	n/a	n/a	n/a	n/a
3555320	RECOG_CONF	n/a	LTP233	ltpFR	6	2	1	POND	1101	4	0	n/a	n/a	n/a	n/a	n/a
3557158	RECOG_TARGET	n/a	LTP233	ltpFR	6	2	-1	FOE	587	5	-1	n/a	n/a	n/a	n/a	n/a
3558033	RECOG_RESP	n/a	LTP233	ltpFR	6	2	-1	FOE	587	n/a	-1	n/a	n/a	n/a	n/a	n/a
3558457	RECOG_CONF	n/a	LTP233	ltpFR	6	2	-1	FOE	587	5	-1	n/a	n/a	n/a	n/a	n/a
3560454	RECOG_TARGET	n/a	LTP233	ltpFR	6	2	-1	WAGON	1578	1	-1	n/a	n/a	n/a	n/a	n/a
3561313	RECOG_RESP	n/a	LTP233	ltpFR	6	2	-1	WAGON	1578	n/a	-1	n/a	n/a	n/a	n/a	n/a
3562047	RECOG_CONF	n/a	LTP233	ltpFR	6	2	-1	WAGON	1578	1	-1	n/a	n/a	n/a	n/a	n/a
3563883	RECOG_TARGET	n/a	LTP233	ltpFR	6	2	-1	LETTUCE	814	1	-1	n/a	n/a	n/a	n/a	n/a
3564688	RECOG_RESP	n/a	LTP233	ltpFR	6	2	-1	LETTUCE	814	n/a	-1	n/a	n/a	n/a	n/a	n/a
3565466	RECOG_CONF	n/a	LTP233	ltpFR	6	2	-1	LETTUCE	814	1	-1	n/a	n/a	n/a	n/a	n/a
3567229	RECOG_LURE	n/a	LTP233	ltpFR	6	2	n/a	PASSENGER	1020	1	n/a	n/a	n/a	n/a	n/a	n/a
3568078	RECOG_RESP	n/a	LTP233	ltpFR	6	2	n/a	PASSENGER	1020	n/a	n/a	n/a	n/a	n/a	n/a	n/a
3568682	RECOG_CONF	n/a	LTP233	ltpFR	6	2	n/a	PASSENGER	1020	1	n/a	n/a	n/a	n/a	n/a	n/a
3570424	RECOG_LURE	n/a	LTP233	ltpFR	6	2	n/a	ELECTRICIAN	521	4	n/a	n/a	n/a	n/a	n/a	n/a
3571238	RECOG_RESP	n/a	LTP233	ltpFR	6	2	n/a	ELECTRICIAN	521	n/a	n/a	n/a	n/a	n/a	n/a	n/a
3571882	RECOG_CONF	n/a	LTP233	ltpFR	6	2	n/a	ELECTRICIAN	521	4	n/a	n/a	n/a	n/a	n/a	n/a
3575918	REC_START	n/a	LTP233	ltpFR	6	3	n/a	n/a	n/a	n/a	n/a	n/a	n/a	n/a	n/a	n/a
3575975	RECOG_TARGET	n/a	LTP233	ltpFR	6	3	1	SHOWER	1296	5	0	n/a	n/a	n/a	n/a	n/a
3576644	RECOG_RESP	n/a	LTP233	ltpFR	6	3	1	SHOWER	1296	n/a	0	n/a	n/a	n/a	n/a	n/a
3577097	RECOG_CONF	n/a	LTP233	ltpFR	6	3	1	SHOWER	1296	5	0	n/a	n/a	n/a	n/a	n/a
3578923	RECOG_TARGET	n/a	LTP233	ltpFR	6	3	-1	CLOUD	328	5	-1	n/a	n/a	n/a	n/a	n/a
3579532	RECOG_RESP	n/a	LTP233	ltpFR	6	3	-1	CLOUD	328	n/a	-1	n/a	n/a	n/a	n/a	n/a
3579902	RECOG_CONF	n/a	LTP233	ltpFR	6	3	-1	CLOUD	328	5	-1	n/a	n/a	n/a	n/a	n/a
3581649	RECOG_TARGET	n/a	LTP233	ltpFR	6	3	1	COOKIE	374	5	0	n/a	n/a	n/a	n/a	n/a
3582109	RECOG_RESP	n/a	LTP233	ltpFR	6	3	1	COOKIE	374	n/a	0	n/a	n/a	n/a	n/a	n/a
3582498	RECOG_CONF	n/a	LTP233	ltpFR	6	3	1	COOKIE	374	5	0	n/a	n/a	n/a	n/a	n/a
3584360	RECOG_LURE	n/a	LTP233	ltpFR	6	3	n/a	FIGHTER	564	5	n/a	n/a	n/a	n/a	n/a	n/a
3584952	RECOG_RESP	n/a	LTP233	ltpFR	6	3	n/a	FIGHTER	564	n/a	n/a	n/a	n/a	n/a	n/a	n/a
3585463	RECOG_CONF	n/a	LTP233	ltpFR	6	3	n/a	FIGHTER	564	5	n/a	n/a	n/a	n/a	n/a	n/a
3587154	RECOG_TARGET	n/a	LTP233	ltpFR	6	3	0	NOVEL	960	5	0	n/a	n/a	n/a	n/a	n/a
3587702	RECOG_RESP	n/a	LTP233	ltpFR	6	3	0	NOVEL	960	n/a	0	n/a	n/a	n/a	n/a	n/a
3588039	RECOG_CONF	n/a	LTP233	ltpFR	6	3	0	NOVEL	960	5	0	n/a	n/a	n/a	n/a	n/a
3589928	RECOG_LURE	n/a	LTP233	ltpFR	6	3	n/a	PATH	1023	1	n/a	n/a	n/a	n/a	n/a	n/a
3590539	RECOG_RESP	n/a	LTP233	ltpFR	6	3	n/a	PATH	1023	n/a	n/a	n/a	n/a	n/a	n/a	n/a
3591126	RECOG_CONF	n/a	LTP233	ltpFR	6	3	n/a	PATH	1023	1	n/a	n/a	n/a	n/a	n/a	n/a
3592775	RECOG_TARGET	n/a	LTP233	ltpFR	6	3	0	ARTIST	43	4	0	n/a	n/a	n/a	n/a	n/a
3593806	RECOG_RESP	n/a	LTP233	ltpFR	6	3	0	ARTIST	43	n/a	0	n/a	n/a	n/a	n/a	n/a
3594411	RECOG_CONF	n/a	LTP233	ltpFR	6	3	0	ARTIST	43	4	0	n/a	n/a	n/a	n/a	n/a
3596121	RECOG_TARGET	n/a	LTP233	ltpFR	6	3	-1	COACH	331	5	-1	n/a	n/a	n/a	n/a	n/a
3596676	RECOG_RESP	n/a	LTP233	ltpFR	6	3	-1	COACH	331	n/a	-1	n/a	n/a	n/a	n/a	n/a
3597023	RECOG_CONF	n/a	LTP233	ltpFR	6	3	-1	COACH	331	5	-1	n/a	n/a	n/a	n/a	n/a
3598765	RECOG_TARGET	n/a	LTP233	ltpFR	6	3	1	PELICAN	1039	5	1	n/a	n/a	n/a	n/a	n/a
3599409	RECOG_RESP	n/a	LTP233	ltpFR	6	3	1	PELICAN	1039	n/a	1	n/a	n/a	n/a	n/a	n/a
3599735	RECOG_CONF	n/a	LTP233	ltpFR	6	3	1	PELICAN	1039	5	1	n/a	n/a	n/a	n/a	n/a
3601574	RECOG_TARGET	n/a	LTP233	ltpFR	6	3	0	BIKE	125	5	1	n/a	n/a	n/a	n/a	n/a
3602195	RECOG_RESP	n/a	LTP233	ltpFR	6	3	0	BIKE	125	n/a	1	n/a	n/a	n/a	n/a	n/a
3602527	RECOG_CONF	n/a	LTP233	ltpFR	6	3	0	BIKE	125	5	1	n/a	n/a	n/a	n/a	n/a
3604399	RECOG_TARGET	n/a	LTP233	ltpFR	6	3	1	WORKER	1621	2	1	n/a	n/a	n/a	n/a	n/a
3604945	RECOG_RESP	n/a	LTP233	ltpFR	6	3	1	WORKER	1621	n/a	1	n/a	n/a	n/a	n/a	n/a
3605574	RECOG_CONF	n/a	LTP233	ltpFR	6	3	1	WORKER	1621	2	1	n/a	n/a	n/a	n/a	n/a
3607243	RECOG_TARGET	n/a	LTP233	ltpFR	6	3	1	NOSE	957	4	0	n/a	n/a	n/a	n/a	n/a
3608005	RECOG_RESP	n/a	LTP233	ltpFR	6	3	1	NOSE	957	n/a	0	n/a	n/a	n/a	n/a	n/a
3608451	RECOG_CONF	n/a	LTP233	ltpFR	6	3	1	NOSE	957	4	0	n/a	n/a	n/a	n/a	n/a
3610275	RECOG_TARGET	n/a	LTP233	ltpFR	6	3	1	FROG	608	5	1	n/a	n/a	n/a	n/a	n/a
3610827	RECOG_RESP	n/a	LTP233	ltpFR	6	3	1	FROG	608	n/a	1	n/a	n/a	n/a	n/a	n/a
3611282	RECOG_CONF	n/a	LTP233	ltpFR	6	3	1	FROG	608	5	1	n/a	n/a	n/a	n/a	n/a
3612968	RECOG_TARGET	n/a	LTP233	ltpFR	6	3	-1	SHUTTER	1300	5	-1	n/a	n/a	n/a	n/a	n/a
3613502	RECOG_RESP	n/a	LTP233	ltpFR	6	3	-1	SHUTTER	1300	n/a	-1	n/a	n/a	n/a	n/a	n/a
3613946	RECOG_CONF	n/a	LTP233	ltpFR	6	3	-1	SHUTTER	1300	5	-1	n/a	n/a	n/a	n/a	n/a
3615677	RECOG_LURE	n/a	LTP233	ltpFR	6	3	n/a	VOLCANO	1575	5	n/a	n/a	n/a	n/a	n/a	n/a
3616221	RECOG_RESP	n/a	LTP233	ltpFR	6	3	n/a	VOLCANO	1575	n/a	n/a	n/a	n/a	n/a	n/a	n/a
3616635	RECOG_CONF	n/a	LTP233	ltpFR	6	3	n/a	VOLCANO	1575	5	n/a	n/a	n/a	n/a	n/a	n/a
3618255	RECOG_TARGET	n/a	LTP233	ltpFR	6	3	1	COURT	391	1	0	n/a	n/a	n/a	n/a	n/a
3618913	RECOG_RESP	n/a	LTP233	ltpFR	6	3	1	COURT	391	n/a	0	n/a	n/a	n/a	n/a	n/a
3619454	RECOG_CONF	n/a	LTP233	ltpFR	6	3	1	COURT	391	1	0	n/a	n/a	n/a	n/a	n/a
3621065	RECOG_TARGET	n/a	LTP233	ltpFR	6	3	0	PROTON	1132	5	0	n/a	n/a	n/a	n/a	n/a
3621845	RECOG_RESP	n/a	LTP233	ltpFR	6	3	0	PROTON	1132	n/a	0	n/a	n/a	n/a	n/a	n/a
3622310	RECOG_CONF	n/a	LTP233	ltpFR	6	3	0	PROTON	1132	5	0	n/a	n/a	n/a	n/a	n/a
3624160	RECOG_TARGET	n/a	LTP233	ltpFR	6	3	0	CHIME	300	5	0	n/a	n/a	n/a	n/a	n/a
3624708	RECOG_RESP	n/a	LTP233	ltpFR	6	3	0	CHIME	300	n/a	0	n/a	n/a	n/a	n/a	n/a
3625052	RECOG_CONF	n/a	LTP233	ltpFR	6	3	0	CHIME	300	5	0	n/a	n/a	n/a	n/a	n/a
3626917	RECOG_TARGET	n/a	LTP233	ltpFR	6	3	1	ESCALATOR	539	5	0	n/a	n/a	n/a	n/a	n/a
3627541	RECOG_RESP	n/a	LTP233	ltpFR	6	3	1	ESCALATOR	539	n/a	0	n/a	n/a	n/a	n/a	n/a
3628004	RECOG_CONF	n/a	LTP233	ltpFR	6	3	1	ESCALATOR	539	5	0	n/a	n/a	n/a	n/a	n/a
3629660	RECOG_TARGET	n/a	LTP233	ltpFR	6	3	1	CANDY	230	5	0	n/a	n/a	n/a	n/a	n/a
3630359	RECOG_RESP	n/a	LTP233	ltpFR	6	3	1	CANDY	230	n/a	0	n/a	n/a	n/a	n/a	n/a
3630759	RECOG_CONF	n/a	LTP233	ltpFR	6	3	1	CANDY	230	5	0	n/a	n/a	n/a	n/a	n/a
3634163	REC_START	n/a	LTP233	ltpFR	6	4	n/a	n/a	n/a	n/a	n/a	n/a	n/a	n/a	n/a	n/a
3634215	RECOG_TARGET	n/a	LTP233	ltpFR	6	4	0	EMPEROR	529	5	1	n/a	n/a	n/a	n/a	n/a
3634977	RECOG_RESP	n/a	LTP233	ltpFR	6	4	0	EMPEROR	529	n/a	1	n/a	n/a	n/a	n/a	n/a
3635465	RECOG_CONF	n/a	LTP233	ltpFR	6	4	0	EMPEROR	529	5	1	n/a	n/a	n/a	n/a	n/a
3637209	RECOG_TARGET	n/a	LTP233	ltpFR	6	4	1	PLASTER	1085	5	0	n/a	n/a	n/a	n/a	n/a
3637734	RECOG_RESP_VV	n/a	LTP233	ltpFR	6	4	1	PLASTER	1085	n/a	0	n/a	n/a	n/a	n/a	n/a
3638234	RECOG_RESP	n/a	LTP233	ltpFR	6	4	1	PLASTER	1085	n/a	0	n/a	n/a	n/a	n/a	n/a
3638919	RECOG_CONF	n/a	LTP233	ltpFR	6	4	1	PLASTER	1085	5	0	n/a	n/a	n/a	n/a	n/a
3640753	RECOG_LURE	n/a	LTP233	ltpFR	6	4	n/a	WAREHOUSE	1588	2	n/a	n/a	n/a	n/a	n/a	n/a
3641385	RECOG_RESP	n/a	LTP233	ltpFR	6	4	n/a	WAREHOUSE	1588	n/a	n/a	n/a	n/a	n/a	n/a	n/a
3641950	RECOG_CONF	n/a	LTP233	ltpFR	6	4	n/a	WAREHOUSE	1588	2	n/a	n/a	n/a	n/a	n/a	n/a
3643583	RECOG_LURE	n/a	LTP233	ltpFR	6	4	n/a	PONY	1102	5	n/a	n/a	n/a	n/a	n/a	n/a
3644323	RECOG_RESP	n/a	LTP233	ltpFR	6	4	n/a	PONY	1102	n/a	n/a	n/a	n/a	n/a	n/a	n/a
3644787	RECOG_CONF	n/a	LTP233	ltpFR	6	4	n/a	PONY	1102	5	n/a	n/a	n/a	n/a	n/a	n/a
3646507	RECOG_LURE	n/a	LTP233	ltpFR	6	4	n/a	HARE	688	5	n/a	n/a	n/a	n/a	n/a	n/a
3647102	RECOG_RESP	n/a	LTP233	ltpFR	6	4	n/a	HARE	688	n/a	n/a	n/a	n/a	n/a	n/a	n/a
3647634	RECOG_CONF	n/a	LTP233	ltpFR	6	4	n/a	HARE	688	5	n/a	n/a	n/a	n/a	n/a	n/a
3649335	RECOG_TARGET	n/a	LTP233	ltpFR	6	4	-1	VET	1560	5	-1	n/a	n/a	n/a	n/a	n/a
3649977	RECOG_RESP	n/a	LTP233	ltpFR	6	4	-1	VET	1560	n/a	-1	n/a	n/a	n/a	n/a	n/a
3650452	RECOG_CONF	n/a	LTP233	ltpFR	6	4	-1	VET	1560	5	-1	n/a	n/a	n/a	n/a	n/a
3652082	RECOG_TARGET	n/a	LTP233	ltpFR	6	4	-1	CABIN	211	2	-1	n/a	n/a	n/a	n/a	n/a
3653052	RECOG_RESP	n/a	LTP233	ltpFR	6	4	-1	CABIN	211	n/a	-1	n/a	n/a	n/a	n/a	n/a
3653719	RECOG_CONF	n/a	LTP233	ltpFR	6	4	-1	CABIN	211	2	-1	n/a	n/a	n/a	n/a	n/a
3655428	RECOG_TARGET	n/a	LTP233	ltpFR	6	4	1	SERGEANT	1269	5	1	n/a	n/a	n/a	n/a	n/a
3656152	RECOG_RESP	n/a	LTP233	ltpFR	6	4	1	SERGEANT	1269	n/a	1	n/a	n/a	n/a	n/a	n/a
3656627	RECOG_CONF	n/a	LTP233	ltpFR	6	4	1	SERGEANT	1269	5	1	n/a	n/a	n/a	n/a	n/a
3658222	RECOG_TARGET	n/a	LTP233	ltpFR	6	4	-1	CAT	257	5	-1	n/a	n/a	n/a	n/a	n/a
3658722	RECOG_RESP	n/a	LTP233	ltpFR	6	4	-1	CAT	257	n/a	-1	n/a	n/a	n/a	n/a	n/a
3659075	RECOG_CONF	n/a	LTP233	ltpFR	6	4	-1	CAT	257	5	-1	n/a	n/a	n/a	n/a	n/a
3660932	RECOG_TARGET	n/a	LTP233	ltpFR	6	4	1	JEANS	752	5	1	n/a	n/a	n/a	n/a	n/a
3661424	RECOG_RESP	n/a	LTP233	ltpFR	6	4	1	JEANS	752	n/a	1	n/a	n/a	n/a	n/a	n/a
3661745	RECOG_CONF	n/a	LTP233	ltpFR	6	4	1	JEANS	752	5	1	n/a	n/a	n/a	n/a	n/a
3663689	RECOG_TARGET	n/a	LTP233	ltpFR	6	4	1	LABYRINTH	791	5	1	n/a	n/a	n/a	n/a	n/a
3664470	RECOG_RESP	n/a	LTP233	ltpFR	6	4	1	LABYRINTH	791	n/a	1	n/a	n/a	n/a	n/a	n/a
3664779	RECOG_CONF	n/a	LTP233	ltpFR	6	4	1	LABYRINTH	791	5	1	n/a	n/a	n/a	n/a	n/a
3666771	RECOG_LURE	n/a	LTP233	ltpFR	6	4	n/a	TONGUE	1479	5	n/a	n/a	n/a	n/a	n/a	n/a
3667410	RECOG_RESP	n/a	LTP233	ltpFR	6	4	n/a	TONGUE	1479	n/a	n/a	n/a	n/a	n/a	n/a	n/a
3667776	RECOG_CONF	n/a	LTP233	ltpFR	6	4	n/a	TONGUE	1479	5	n/a	n/a	n/a	n/a	n/a	n/a
3669597	RECOG_TARGET	n/a	LTP233	ltpFR	6	4	0	VALLEY	1545	2	1	n/a	n/a	n/a	n/a	n/a
3670451	RECOG_RESP	n/a	LTP233	ltpFR	6	4	0	VALLEY	1545	n/a	1	n/a	n/a	n/a	n/a	n/a
3671044	RECOG_CONF	n/a	LTP233	ltpFR	6	4	0	VALLEY	1545	2	1	n/a	n/a	n/a	n/a	n/a
3672609	RECOG_TARGET	n/a	LTP233	ltpFR	6	4	0	DESIGNER	451	1	1	n/a	n/a	n/a	n/a	n/a
3673890	RECOG_RESP	n/a	LTP233	ltpFR	6	4	0	DESIGNER	451	n/a	1	n/a	n/a	n/a	n/a	n/a
3674407	RECOG_CONF	n/a	LTP233	ltpFR	6	4	0	DESIGNER	451	1	1	n/a	n/a	n/a	n/a	n/a
3676106	RECOG_TARGET	n/a	LTP233	ltpFR	6	4	-1	DOORBELL	487	5	-1	n/a	n/a	n/a	n/a	n/a
3676935	RECOG_RESP	n/a	LTP233	ltpFR	6	4	-1	DOORBELL	487	n/a	-1	n/a	n/a	n/a	n/a	n/a
3677310	RECOG_CONF	n/a	LTP233	ltpFR	6	4	-1	DOORBELL	487	5	-1	n/a	n/a	n/a	n/a	n/a
3679064	RECOG_LURE	n/a	LTP233	ltpFR	6	4	n/a	LITTER	832	5	n/a	n/a	n/a	n/a	n/a	n/a
3680688	RECOG_RESP	n/a	LTP233	ltpFR	6	4	n/a	LITTER	832	n/a	n/a	n/a	n/a	n/a	n/a	n/a
3681147	RECOG_CONF	n/a	LTP233	ltpFR	6	4	n/a	LITTER	832	5	n/a	n/a	n/a	n/a	n/a	n/a
3682965	RECOG_TARGET	n/a	LTP233	ltpFR	6	4	0	CARROT	249	5	0	n/a	n/a	n/a	n/a	n/a
3683618	RECOG_RESP	n/a	LTP233	ltpFR	6	4	0	CARROT	249	n/a	0	n/a	n/a	n/a	n/a	n/a
3683979	RECOG_CONF	n/a	LTP233	ltpFR	6	4	0	CARROT	249	5	0	n/a	n/a	n/a	n/a	n/a
3685776	RECOG_TARGET	n/a	LTP233	ltpFR	6	4	0	BAND	78	1	1	n/a	n/a	n/a	n/a	n/a
3686519	RECOG_RESP	n/a	LTP233	ltpFR	6	4	0	BAND	78	n/a	1	n/a	n/a	n/a	n/a	n/a
3687078	RECOG_CONF	n/a	LTP233	ltpFR	6	4	0	BAND	78	1	1	n/a	n/a	n/a	n/a	n/a
3688800	RECOG_TARGET	n/a	LTP233	ltpFR	6	4	1	KNEE	784	5	1	n/a	n/a	n/a	n/a	n/a
3689401	RECOG_RESP	n/a	LTP233	ltpFR	6	4	1	KNEE	784	n/a	1	n/a	n/a	n/a	n/a	n/a
3689821	RECOG_CONF	n/a	LTP233	ltpFR	6	4	1	KNEE	784	5	1	n/a	n/a	n/a	n/a	n/a
3691547	RECOG_LURE	n/a	LTP233	ltpFR	6	4	n/a	CALF	222	2	n/a	n/a	n/a	n/a	n/a	n/a
3692337	RECOG_RESP	n/a	LTP233	ltpFR	6	4	n/a	CALF	222	n/a	n/a	n/a	n/a	n/a	n/a	n/a
3693031	RECOG_CONF	n/a	LTP233	ltpFR	6	4	n/a	CALF	222	2	n/a	n/a	n/a	n/a	n/a	n/a
3696128	REC_START	n/a	LTP233	ltpFR	6	5	n/a	n/a	n/a	n/a	n/a	n/a	n/a	n/a	n/a	n/a
3696182	RECOG_TARGET	n/a	LTP233	ltpFR	6	5	1	KIWI	781	5	0	n/a	n/a	n/a	n/a	n/a
3696811	RECOG_RESP	n/a	LTP233	ltpFR	6	5	1	KIWI	781	n/a	0	n/a	n/a	n/a	n/a	n/a
3697260	RECOG_CONF	n/a	LTP233	ltpFR	6	5	1	KIWI	781	5	0	n/a	n/a	n/a	n/a	n/a
3698976	RECOG_TARGET	n/a	LTP233	ltpFR	6	5	-1	VEST	1559	5	-1	n/a	n/a	n/a	n/a	n/a
3699651	RECOG_RESP	n/a	LTP233	ltpFR	6	5	-1	VEST	1559	n/a	-1	n/a	n/a	n/a	n/a	n/a
3699994	RECOG_CONF	n/a	LTP233	ltpFR	6	5	-1	VEST	1559	5	-1	n/a	n/a	n/a	n/a	n/a
3701753	RECOG_TARGET	n/a	LTP233	ltpFR	6	5	0	EDITORIAL	517	5	1	n/a	n/a	n/a	n/a	n/a
3702702	RECOG_RESP	n/a	LTP233	ltpFR	6	5	0	EDITORIAL	517	n/a	1	n/a	n/a	n/a	n/a	n/a
3703083	RECOG_CONF	n/a	LTP233	ltpFR	6	5	0	EDITORIAL	517	5	1	n/a	n/a	n/a	n/a	n/a
3704932	RECOG_LURE	n/a	LTP233	ltpFR	6	5	n/a	STICKER	1382	5	n/a	n/a	n/a	n/a	n/a	n/a
3705563	RECOG_RESP	n/a	LTP233	ltpFR	6	5	n/a	STICKER	1382	n/a	n/a	n/a	n/a	n/a	n/a	n/a
3705925	RECOG_CONF	n/a	LTP233	ltpFR	6	5	n/a	STICKER	1382	5	n/a	n/a	n/a	n/a	n/a	n/a
3707725	RECOG_TARGET	n/a	LTP233	ltpFR	6	5	-1	JEEP	753	5	-1	n/a	n/a	n/a	n/a	n/a
3708437	RECOG_RESP	n/a	LTP233	ltpFR	6	5	-1	JEEP	753	n/a	-1	n/a	n/a	n/a	n/a	n/a
3708844	RECOG_CONF	n/a	LTP233	ltpFR	6	5	-1	JEEP	753	5	-1	n/a	n/a	n/a	n/a	n/a
3710716	RECOG_TARGET	n/a	LTP233	ltpFR	6	5	1	SALAD	1224	3	0	n/a	n/a	n/a	n/a	n/a
3711379	RECOG_RESP_VV	n/a	LTP233	ltpFR	6	5	1	SALAD	1224	n/a	0	n/a	n/a	n/a	n/a	n/a
3711794	RECOG_RESP	n/a	LTP233	ltpFR	6	5	1	SALAD	1224	n/a	0	n/a	n/a	n/a	n/a	n/a
3712378	RECOG_CONF	n/a	LTP233	ltpFR	6	5	1	SALAD	1224	3	0	n/a	n/a	n/a	n/a	n/a
3714029	RECOG_LURE	n/a	LTP233	ltpFR	6	5	n/a	AUDIENCE	59	5	n/a	n/a	n/a	n/a	n/a	n/a
3715080	RECOG_RESP_VV	n/a	LTP233	ltpFR	6	5	n/a	AUDIENCE	59	n/a	n/a	n/a	n/a	n/a	n/a	n/a
3715748	RECOG_RESP	n/a	LTP233	ltpFR	6	5	n/a	AUDIENCE	59	n/a	n/a	n/a	n/a	n/a	n/a	n/a
3716140	RECOG_CONF	n/a	LTP233	ltpFR	6	5	n/a	AUDIENCE	59	5	n/a	n/a	n/a	n/a	n/a	n/a
3717930	RECOG_TARGET	n/a	LTP233	ltpFR	6	5	1	UNDERWEAR	1537	5	0	n/a	n/a	n/a	n/a	n/a
3718582	RECOG_RESP	n/a	LTP233	ltpFR	6	5	1	UNDERWEAR	1537	n/a	0	n/a	n/a	n/a	n/a	n/a
3719049	RECOG_CONF	n/a	LTP233	ltpFR	6	5	1	UNDERWEAR	1537	5	0	n/a	n/a	n/a	n/a	n/a
3720858	RECOG_TARGET	n/a	LTP233	ltpFR	6	5	1	HOOP	716	5	0	n/a	n/a	n/a	n/a	n/a
3721514	RECOG_RESP	n/a	LTP233	ltpFR	6	5	1	HOOP	716	n/a	0	n/a	n/a	n/a	n/a	n/a
3721910	RECOG_CONF	n/a	LTP233	ltpFR	6	5	1	HOOP	716	5	0	n/a	n/a	n/a	n/a	n/a
3723732	RECOG_LURE	n/a	LTP233	ltpFR	6	5	n/a	EYE	545	5	n/a	n/a	n/a	n/a	n/a	n/a
3724327	RECOG_RESP	n/a	LTP233	ltpFR	6	5	n/a	EYE	545	n/a	n/a	n/a	n/a	n/a	n/a	n/a
3724715	RECOG_CONF	n/a	LTP233	ltpFR	6	5	n/a	EYE	545	5	n/a	n/a	n/a	n/a	n/a	n/a
3726495	RECOG_LURE	n/a	LTP233	ltpFR	6	5	n/a	ALLEY	15	5	n/a	n/a	n/a	n/a	n/a	n/a
3727308	RECOG_RESP	n/a	LTP233	ltpFR	6	5	n/a	ALLEY	15	n/a	n/a	n/a	n/a	n/a	n/a	n/a
3727761	RECOG_CONF	n/a	LTP233	ltpFR	6	5	n/a	ALLEY	15	5	n/a	n/a	n/a	n/a	n/a	n/a
3729721	RECOG_TARGET	n/a	LTP233	ltpFR	6	5	0	SHACK	1273	5	1	n/a	n/a	n/a	n/a	n/a
3730537	RECOG_RESP	n/a	LTP233	ltpFR	6	5	0	SHACK	1273	n/a	1	n/a	n/a	n/a	n/a	n/a
3730928	RECOG_CONF	n/a	LTP233	ltpFR	6	5	0	SHACK	1273	5	1	n/a	n/a	n/a	n/a	n/a
3732837	RECOG_LURE	n/a	LTP233	ltpFR	6	5	n/a	CERAMICS	271	1	n/a	n/a	n/a	n/a	n/a	n/a
3733564	RECOG_RESP_VV	n/a	LTP233	ltpFR	6	5	n/a	CERAMICS	271	n/a	n/a	n/a	n/a	n/a	n/a	n/a
3733946	RECOG_RESP	n/a	LTP233	ltpFR	6	5	n/a	CERAMICS	271	n/a	n/a	n/a	n/a	n/a	n/a	n/a
3734476	RECOG_CONF	n/a	LTP233	ltpFR	6	5	n/a	CERAMICS	271	1	n/a	n/a	n/a	n/a	n/a	n/a
3736316	RECOG_TARGET	n/a	LTP233	ltpFR	6	5	0	CROCODILE	411	5	1	n/a	n/a	n/a	n/a	n/a
3737219	RECOG_RESP	n/a	LTP233	ltpFR	6	5	0	CROCODILE	411	n/a	1	n/a	n/a	n/a	n/a	n/a
3737688	RECOG_CONF	n/a	LTP233	ltpFR	6	5	0	CROCODILE	411	5	1	n/a	n/a	n/a	n/a	n/a
3739696	RECOG_TARGET	n/a	LTP233	ltpFR	6	5	1	PEAR	1033	5	1	n/a	n/a	n/a	n/a	n/a
3740454	RECOG_RESP	n/a	LTP233	ltpFR	6	5	1	PEAR	1033	n/a	1	n/a	n/a	n/a	n/a	n/a
3740802	RECOG_CONF	n/a	LTP233	ltpFR	6	5	1	PEAR	1033	5	1	n/a	n/a	n/a	n/a	n/a
3742707	RECOG_LURE	n/a	LTP233	ltpFR	6	5	n/a	BARK	87	1	n/a	n/a	n/a	n/a	n/a	n/a
3743424	RECOG_RESP	n/a	LTP233	ltpFR	6	5	n/a	BARK	87	n/a	n/a	n/a	n/a	n/a	n/a	n/a
3743937	RECOG_CONF	n/a	LTP233	ltpFR	6	5	n/a	BARK	87	1	n/a	n/a	n/a	n/a	n/a	n/a
3745685	RECOG_LURE	n/a	LTP233	ltpFR	6	5	n/a	BRANCH	168	2	n/a	n/a	n/a	n/a	n/a	n/a
3746861	RECOG_RESP	n/a	LTP233	ltpFR	6	5	n/a	BRANCH	168	n/a	n/a	n/a	n/a	n/a	n/a	n/a
3747768	RECOG_CONF	n/a	LTP233	ltpFR	6	5	n/a	BRANCH	168	2	n/a	n/a	n/a	n/a	n/a	n/a
3749416	RECOG_LURE	n/a	LTP233	ltpFR	6	5	n/a	TECHNICIAN	1443	3	n/a	n/a	n/a	n/a	n/a	n/a
3750415	RECOG_RESP	n/a	LTP233	ltpFR	6	5	n/a	TECHNICIAN	1443	n/a	n/a	n/a	n/a	n/a	n/a	n/a
3751179	RECOG_CONF	n/a	LTP233	ltpFR	6	5	n/a	TECHNICIAN	1443	3	n/a	n/a	n/a	n/a	n/a	n/a
3752912	RECOG_LURE	n/a	LTP233	ltpFR	6	5	n/a	PARIS	1014	5	n/a	n/a	n/a	n/a	n/a	n/a
3753686	RECOG_RESP	n/a	LTP233	ltpFR	6	5	n/a	PARIS	1014	n/a	n/a	n/a	n/a	n/a	n/a	n/a
3754231	RECOG_CONF	n/a	LTP233	ltpFR	6	5	n/a	PARIS	1014	5	n/a	n/a	n/a	n/a	n/a	n/a
3756070	RECOG_LURE	n/a	LTP233	ltpFR	6	5	n/a	ARENA	37	5	n/a	n/a	n/a	n/a	n/a	n/a
3757345	RECOG_RESP	n/a	LTP233	ltpFR	6	5	n/a	ARENA	37	n/a	n/a	n/a	n/a	n/a	n/a	n/a
3757912	RECOG_CONF	n/a	LTP233	ltpFR	6	5	n/a	ARENA	37	5	n/a	n/a	n/a	n/a	n/a	n/a
3761169	REC_START	n/a	LTP233	ltpFR	6	6	n/a	n/a	n/a	n/a	n/a	n/a	n/a	n/a	n/a	n/a
3761223	RECOG_TARGET	n/a	LTP233	ltpFR	6	6	1	LOCK	838	5	0	n/a	n/a	n/a	n/a	n/a
3761816	RECOG_RESP	n/a	LTP233	ltpFR	6	6	1	LOCK	838	n/a	0	n/a	n/a	n/a	n/a	n/a
3762211	RECOG_CONF	n/a	LTP233	ltpFR	6	6	1	LOCK	838	5	0	n/a	n/a	n/a	n/a	n/a
3763803	RECOG_LURE	n/a	LTP233	ltpFR	6	6	n/a	RATTLE	1170	1	n/a	n/a	n/a	n/a	n/a	n/a
3764428	RECOG_RESP	n/a	LTP233	ltpFR	6	6	n/a	RATTLE	1170	n/a	n/a	n/a	n/a	n/a	n/a	n/a
3765030	RECOG_CONF	n/a	LTP233	ltpFR	6	6	n/a	RATTLE	1170	1	n/a	n/a	n/a	n/a	n/a	n/a
3766764	RECOG_LURE	n/a	LTP233	ltpFR	6	6	n/a	FACE	547	1	n/a	n/a	n/a	n/a	n/a	n/a
3767342	RECOG_RESP	n/a	LTP233	ltpFR	6	6	n/a	FACE	547	n/a	n/a	n/a	n/a	n/a	n/a	n/a
3767844	RECOG_CONF	n/a	LTP233	ltpFR	6	6	n/a	FACE	547	1	n/a	n/a	n/a	n/a	n/a	n/a
3769557	RECOG_TARGET	n/a	LTP233	ltpFR	6	6	1	BLANKET	135	1	0	n/a	n/a	n/a	n/a	n/a
3770410	RECOG_RESP	n/a	LTP233	ltpFR	6	6	1	BLANKET	135	n/a	0	n/a	n/a	n/a	n/a	n/a
3770953	RECOG_CONF	n/a	LTP233	ltpFR	6	6	1	BLANKET	135	1	0	n/a	n/a	n/a	n/a	n/a
3772754	RECOG_TARGET	n/a	LTP233	ltpFR	6	6	0	HAWK	692	5	0	n/a	n/a	n/a	n/a	n/a
3773399	RECOG_RESP_VV	n/a	LTP233	ltpFR	6	6	0	HAWK	692	n/a	0	n/a	n/a	n/a	n/a	n/a
3773761	RECOG_RESP	n/a	LTP233	ltpFR	6	6	0	HAWK	692	n/a	0	n/a	n/a	n/a	n/a	n/a
3774202	RECOG_CONF	n/a	LTP233	ltpFR	6	6	0	HAWK	692	5	0	n/a	n/a	n/a	n/a	n/a
3776016	RECOG_TARGET	n/a	LTP233	ltpFR	6	6	0	LAMB	797	5	1	n/a	n/a	n/a	n/a	n/a
3776539	RECOG_RESP	n/a	LTP233	ltpFR	6	6	0	LAMB	797	n/a	1	n/a	n/a	n/a	n/a	n/a
3776853	RECOG_CONF	n/a	LTP233	ltpFR	6	6	0	LAMB	797	5	1	n/a	n/a	n/a	n/a	n/a
3778977	RECOG_TARGET	n/a	LTP233	ltpFR	6	6	-1	ENEMY	534	5	-1	n/a	n/a	n/a	n/a	n/a
3779631	RECOG_RESP	n/a	LTP233	ltpFR	6	6	-1	ENEMY	534	n/a	-1	n/a	n/a	n/a	n/a	n/a
3780023	RECOG_CONF	n/a	LTP233	ltpFR	6	6	-1	ENEMY	534	5	-1	n/a	n/a	n/a	n/a	n/a
3781821	RECOG_TARGET	n/a	LTP233	ltpFR	6	6	0	ROOST	1208	5	1	n/a	n/a	n/a	n/a	n/a
3782352	RECOG_RESP	n/a	LTP233	ltpFR	6	6	0	ROOST	1208	n/a	1	n/a	n/a	n/a	n/a	n/a
3782745	RECOG_CONF	n/a	LTP233	ltpFR	6	6	0	ROOST	1208	5	1	n/a	n/a	n/a	n/a	n/a
3784530	RECOG_TARGET	n/a	LTP233	ltpFR	6	6	1	ATOM	55	5	0	n/a	n/a	n/a	n/a	n/a
3785057	RECOG_RESP	n/a	LTP233	ltpFR	6	6	1	ATOM	55	n/a	0	n/a	n/a	n/a	n/a	n/a
3785360	RECOG_CONF	n/a	LTP233	ltpFR	6	6	1	ATOM	55	5	0	n/a	n/a	n/a	n/a	n/a
3787104	RECOG_LURE	n/a	LTP233	ltpFR	6	6	n/a	FAIRY	549	5	n/a	n/a	n/a	n/a	n/a	n/a
3787828	RECOG_RESP	n/a	LTP233	ltpFR	6	6	n/a	FAIRY	549	n/a	n/a	n/a	n/a	n/a	n/a	n/a
3788168	RECOG_CONF	n/a	LTP233	ltpFR	6	6	n/a	FAIRY	549	5	n/a	n/a	n/a	n/a	n/a	n/a
3789985	RECOG_LURE	n/a	LTP233	ltpFR	6	6	n/a	RELATIVE	1182	5	n/a	n/a	n/a	n/a	n/a	n/a
3790688	RECOG_RESP	n/a	LTP233	ltpFR	6	6	n/a	RELATIVE	1182	n/a	n/a	n/a	n/a	n/a	n/a	n/a
3791038	RECOG_CONF	n/a	LTP233	ltpFR	6	6	n/a	RELATIVE	1182	5	n/a	n/a	n/a	n/a	n/a	n/a
3792909	RECOG_TARGET	n/a	LTP233	ltpFR	6	6	1	GANG	619	5	1	n/a	n/a	n/a	n/a	n/a
3793483	RECOG_RESP	n/a	LTP233	ltpFR	6	6	1	GANG	619	n/a	1	n/a	n/a	n/a	n/a	n/a
3793821	RECOG_CONF	n/a	LTP233	ltpFR	6	6	1	GANG	619	5	1	n/a	n/a	n/a	n/a	n/a
3795669	RECOG_TARGET	n/a	LTP233	ltpFR	6	6	0	TOMATO	1476	5	0	n/a	n/a	n/a	n/a	n/a
3796178	RECOG_RESP	n/a	LTP233	ltpFR	6	6	0	TOMATO	1476	n/a	0	n/a	n/a	n/a	n/a	n/a
3796543	RECOG_CONF	n/a	LTP233	ltpFR	6	6	0	TOMATO	1476	5	0	n/a	n/a	n/a	n/a	n/a
3798350	RECOG_TARGET	n/a	LTP233	ltpFR	6	6	1	BAKER	71	5	1	n/a	n/a	n/a	n/a	n/a
3798860	RECOG_RESP	n/a	LTP233	ltpFR	6	6	1	BAKER	71	n/a	1	n/a	n/a	n/a	n/a	n/a
3799226	RECOG_CONF	n/a	LTP233	ltpFR	6	6	1	BAKER	71	5	1	n/a	n/a	n/a	n/a	n/a
3801077	RECOG_LURE	n/a	LTP233	ltpFR	6	6	n/a	TOOTHBRUSH	1482	1	n/a	n/a	n/a	n/a	n/a	n/a
3802359	RECOG_RESP	n/a	LTP233	ltpFR	6	6	n/a	TOOTHBRUSH	1482	n/a	n/a	n/a	n/a	n/a	n/a	n/a
3802899	RECOG_CONF	n/a	LTP233	ltpFR	6	6	n/a	TOOTHBRUSH	1482	1	n/a	n/a	n/a	n/a	n/a	n/a
3804656	RECOG_TARGET	n/a	LTP233	ltpFR	6	6	1	PERISCOPE	1050	5	1	n/a	n/a	n/a	n/a	n/a
3805229	RECOG_RESP	n/a	LTP233	ltpFR	6	6	1	PERISCOPE	1050	n/a	1	n/a	n/a	n/a	n/a	n/a
3805563	RECOG_CONF	n/a	LTP233	ltpFR	6	6	1	PERISCOPE	1050	5	1	n/a	n/a	n/a	n/a	n/a
3807217	RECOG_TARGET	n/a	LTP233	ltpFR	6	6	1	PASTRY	1022	5	0	n/a	n/a	n/a	n/a	n/a
3807931	RECOG_RESP	n/a	LTP233	ltpFR	6	6	1	PASTRY	1022	n/a	0	n/a	n/a	n/a	n/a	n/a
3808268	RECOG_CONF	n/a	LTP233	ltpFR	6	6	1	PASTRY	1022	5	0	n/a	n/a	n/a	n/a	n/a
3810044	RECOG_LURE	n/a	LTP233	ltpFR	6	6	n/a	ANTENNA	28	1	n/a	n/a	n/a	n/a	n/a	n/a
3810916	RECOG_RESP_VV	n/a	LTP233	ltpFR	6	6	n/a	ANTENNA	28	n/a	n/a	n/a	n/a	n/a	n/a	n/a
3811897	RECOG_RESP	n/a	LTP233	ltpFR	6	6	n/a	ANTENNA	28	n/a	n/a	n/a	n/a	n/a	n/a	n/a
3812467	RECOG_CONF	n/a	LTP233	ltpFR	6	6	n/a	ANTENNA	28	1	n/a	n/a	n/a	n/a	n/a	n/a
3814156	RECOG_LURE	n/a	LTP233	ltpFR	6	6	n/a	SCARECROW	1245	5	n/a	n/a	n/a	n/a	n/a	n/a
3814861	RECOG_RESP	n/a	LTP233	ltpFR	6	6	n/a	SCARECROW	1245	n/a	n/a	n/a	n/a	n/a	n/a	n/a
3815211	RECOG_CONF	n/a	LTP233	ltpFR	6	6	n/a	SCARECROW	1245	5	n/a	n/a	n/a	n/a	n/a	n/a
3817121	RECOG_TARGET	n/a	LTP233	ltpFR	6	6	-1	CONCERT	360	5	-1	n/a	n/a	n/a	n/a	n/a
3817735	RECOG_RESP	n/a	LTP233	ltpFR	6	6	-1	CONCERT	360	n/a	-1	n/a	n/a	n/a	n/a	n/a
3818069	RECOG_CONF	n/a	LTP233	ltpFR	6	6	-1	CONCERT	360	5	-1	n/a	n/a	n/a	n/a	n/a
3833058	REC_START	n/a	LTP233	ltpFR	6	7	n/a	n/a	n/a	n/a	n/a	n/a	n/a	n/a	n/a	n/a
3833111	RECOG_LURE	n/a	LTP233	ltpFR	6	7	n/a	TWIN	1528	5	n/a	n/a	n/a	n/a	n/a	n/a
3834064	RECOG_RESP	n/a	LTP233	ltpFR	6	7	n/a	TWIN	1528	n/a	n/a	n/a	n/a	n/a	n/a	n/a
3834501	RECOG_CONF	n/a	LTP233	ltpFR	6	7	n/a	TWIN	1528	5	n/a	n/a	n/a	n/a	n/a	n/a
3836293	RECOG_LURE	n/a	LTP233	ltpFR	6	7	n/a	WILDERNESS	1610	5	n/a	n/a	n/a	n/a	n/a	n/a
3836972	RECOG_RESP	n/a	LTP233	ltpFR	6	7	n/a	WILDERNESS	1610	n/a	n/a	n/a	n/a	n/a	n/a	n/a
3837343	RECOG_CONF	n/a	LTP233	ltpFR	6	7	n/a	WILDERNESS	1610	5	n/a	n/a	n/a	n/a	n/a	n/a
3839050	RECOG_TARGET	n/a	LTP233	ltpFR	6	7	-1	HURRICANE	727	5	-1	n/a	n/a	n/a	n/a	n/a
3839787	RECOG_RESP	n/a	LTP233	ltpFR	6	7	-1	HURRICANE	727	n/a	-1	n/a	n/a	n/a	n/a	n/a
3840142	RECOG_CONF	n/a	LTP233	ltpFR	6	7	-1	HURRICANE	727	5	-1	n/a	n/a	n/a	n/a	n/a
3841998	RECOG_LURE	n/a	LTP233	ltpFR	6	7	n/a	COUNTRY	388	5	n/a	n/a	n/a	n/a	n/a	n/a
3842550	RECOG_RESP_VV	n/a	LTP233	ltpFR	6	7	n/a	COUNTRY	388	n/a	n/a	n/a	n/a	n/a	n/a	n/a
3843011	RECOG_RESP	n/a	LTP233	ltpFR	6	7	n/a	COUNTRY	388	n/a	n/a	n/a	n/a	n/a	n/a	n/a
3843400	RECOG_CONF	n/a	LTP233	ltpFR	6	7	n/a	COUNTRY	388	5	n/a	n/a	n/a	n/a	n/a	n/a
3845310	RECOG_TARGET	n/a	LTP233	ltpFR	6	7	1	SOFTBALL	1343	5	0	n/a	n/a	n/a	n/a	n/a
3846736	RECOG_RESP	n/a	LTP233	ltpFR	6	7	1	SOFTBALL	1343	n/a	0	n/a	n/a	n/a	n/a	n/a
3847201	RECOG_CONF	n/a	LTP233	ltpFR	6	7	1	SOFTBALL	1343	5	0	n/a	n/a	n/a	n/a	n/a
3849138	RECOG_TARGET	n/a	LTP233	ltpFR	6	7	1	MAILBOX	857	1	0	n/a	n/a	n/a	n/a	n/a
3849853	RECOG_RESP	n/a	LTP233	ltpFR	6	7	1	MAILBOX	857	n/a	0	n/a	n/a	n/a	n/a	n/a
3850313	RECOG_CONF	n/a	LTP233	ltpFR	6	7	1	MAILBOX	857	1	0	n/a	n/a	n/a	n/a	n/a
3852136	RECOG_TARGET	n/a	LTP233	ltpFR	6	7	0	DRIVER	499	5	1	n/a	n/a	n/a	n/a	n/a
3852749	RECOG_RESP	n/a	LTP233	ltpFR	6	7	0	DRIVER	499	n/a	1	n/a	n/a	n/a	n/a	n/a
3853094	RECOG_CONF	n/a	LTP233	ltpFR	6	7	0	DRIVER	499	5	1	n/a	n/a	n/a	n/a	n/a
3855027	RECOG_LURE	n/a	LTP233	ltpFR	6	7	n/a	WRENCH	1625	5	n/a	n/a	n/a	n/a	n/a	n/a
3856171	RECOG_RESP	n/a	LTP233	ltpFR	6	7	n/a	WRENCH	1625	n/a	n/a	n/a	n/a	n/a	n/a	n/a
3856551	RECOG_CONF	n/a	LTP233	ltpFR	6	7	n/a	WRENCH	1625	5	n/a	n/a	n/a	n/a	n/a	n/a
3858373	RECOG_LURE	n/a	LTP233	ltpFR	6	7	n/a	SHERIFF	1284	5	n/a	n/a	n/a	n/a	n/a	n/a
3859125	RECOG_RESP	n/a	LTP233	ltpFR	6	7	n/a	SHERIFF	1284	n/a	n/a	n/a	n/a	n/a	n/a	n/a
3859513	RECOG_CONF	n/a	LTP233	ltpFR	6	7	n/a	SHERIFF	1284	5	n/a	n/a	n/a	n/a	n/a	n/a
3861170	RECOG_TARGET	n/a	LTP233	ltpFR	6	7	1	GRIZZLY	662	5	1	n/a	n/a	n/a	n/a	n/a
3861868	RECOG_RESP	n/a	LTP233	ltpFR	6	7	1	GRIZZLY	662	n/a	1	n/a	n/a	n/a	n/a	n/a
3862266	RECOG_CONF	n/a	LTP233	ltpFR	6	7	1	GRIZZLY	662	5	1	n/a	n/a	n/a	n/a	n/a
3863998	RECOG_TARGET	n/a	LTP233	ltpFR	6	7	-1	NOTEBOOK	959	5	-1	n/a	n/a	n/a	n/a	n/a
3864706	RECOG_RESP	n/a	LTP233	ltpFR	6	7	-1	NOTEBOOK	959	n/a	-1	n/a	n/a	n/a	n/a	n/a
3865259	RECOG_CONF	n/a	LTP233	ltpFR	6	7	-1	NOTEBOOK	959	5	-1	n/a	n/a	n/a	n/a	n/a
3867042	RECOG_TARGET	n/a	LTP233	ltpFR	6	7	0	CONDUCTOR	362	1	1	n/a	n/a	n/a	n/a	n/a
3867591	RECOG_RESP	n/a	LTP233	ltpFR	6	7	0	CONDUCTOR	362	n/a	1	n/a	n/a	n/a	n/a	n/a
3869161	RECOG_CONF	n/a	LTP233	ltpFR	6	7	0	CONDUCTOR	362	1	1	n/a	n/a	n/a	n/a	n/a
3870890	RECOG_TARGET	n/a	LTP233	ltpFR	6	7	-1	PORTRAIT	1111	5	-1	n/a	n/a	n/a	n/a	n/a
3872019	RECOG_RESP	n/a	LTP233	ltpFR	6	7	-1	PORTRAIT	1111	n/a	-1	n/a	n/a	n/a	n/a	n/a
3872393	RECOG_CONF	n/a	LTP233	ltpFR	6	7	-1	PORTRAIT	1111	5	-1	n/a	n/a	n/a	n/a	n/a
3874253	RECOG_TARGET	n/a	LTP233	ltpFR	6	7	0	PEN	1041	5	0	n/a	n/a	n/a	n/a	n/a
3874966	RECOG_RESP	n/a	LTP233	ltpFR	6	7	0	PEN	1041	n/a	0	n/a	n/a	n/a	n/a	n/a
3875309	RECOG_CONF	n/a	LTP233	ltpFR	6	7	0	PEN	1041	5	0	n/a	n/a	n/a	n/a	n/a
3877060	RECOG_TARGET	n/a	LTP233	ltpFR	6	7	-1	NICKEL	950	5	-1	n/a	n/a	n/a	n/a	n/a
3877701	RECOG_RESP	n/a	LTP233	ltpFR	6	7	-1	NICKEL	950	n/a	-1	n/a	n/a	n/a	n/a	n/a
3878011	RECOG_CONF	n/a	LTP233	ltpFR	6	7	-1	NICKEL	950	5	-1	n/a	n/a	n/a	n/a	n/a
3879874	RECOG_TARGET	n/a	LTP233	ltpFR	6	7	0	SLEIGH	1325	5	1	n/a	n/a	n/a	n/a	n/a
3880514	RECOG_RESP	n/a	LTP233	ltpFR	6	7	0	SLEIGH	1325	n/a	1	n/a	n/a	n/a	n/a	n/a
3880830	RECOG_CONF	n/a	LTP233	ltpFR	6	7	0	SLEIGH	1325	5	1	n/a	n/a	n/a	n/a	n/a
3882630	RECOG_TARGET	n/a	LTP233	ltpFR	6	7	-1	PICKLE	1059	5	-1	n/a	n/a	n/a	n/a	n/a
