onset	duration	trial_type	sample	stim_file	subject	experiment	session	trial	item_name	item_num	list	answer	test_x	test_y	test_z
245.338	n/a	SESS_START	122669	n/a	LTP283	ltpFR2	16	n/a	n/a	n/a	n/a	n/a	0	0	0
261.184	n/a	START	130592	n/a	LTP283	ltpFR2	16	n/a	n/a	n/a	-1	n/a	n/a	n/a	n/a
261.232	n/a	PROB	130616	n/a	LTP283	ltpFR2	16	n/a	n/a	n/a	-1	14	6	3	5
263.684	n/a	PROB	131842	n/a	LTP283	ltpFR2	16	n/a	n/a	n/a	-1	16	6	1	9
265.118	n/a	PROB	132559	n/a	LTP283	ltpFR2	16	n/a	n/a	n/a	-1	13	3	4	6
266.488	n/a	PROB	133244	n/a	LTP283	ltpFR2	16	n/a	n/a	n/a	-1	17	9	6	2
268.522	n/a	PROB	134261	n/a	LTP283	ltpFR2	16	n/a	n/a	n/a	-1	21	8	8	5
270.256	n/a	PROB	135128	n/a	LTP283	ltpFR2	16	n/a	n/a	n/a	-1	21	9	4	8
271.658	n/a	PROB	135829	n/a	LTP283	ltpFR2	16	n/a	n/a	n/a	-1	10	3	5	2
272.892	n/a	STOP	136446	n/a	LTP283	ltpFR2	16	n/a	n/a	n/a	-1	n/a	n/a	n/a	n/a
308.556	n/a	DISTRACTOR	154278	n/a	LTP283	ltpFR2	16	1	n/a	n/a	n/a	n/a	0	0	0
308.556	n/a	START	154278	n/a	LTP283	ltpFR2	16	n/a	n/a	n/a	1	n/a	n/a	n/a	n/a
308.62	n/a	PROB	154310	n/a	LTP283	ltpFR2	16	n/a	n/a	n/a	1	9	6	2	1
310.038	n/a	PROB	155019	n/a	LTP283	ltpFR2	16	n/a	n/a	n/a	1	18	4	6	8
311.456	n/a	PROB	155728	n/a	LTP283	ltpFR2	16	n/a	n/a	n/a	1	13	3	7	3
312.756	n/a	PROB	156378	n/a	LTP283	ltpFR2	16	n/a	n/a	n/a	1	5	1	3	1
313.908	n/a	PROB	156954	n/a	LTP283	ltpFR2	16	n/a	n/a	n/a	1	13	2	4	7
315.71	n/a	PROB	157855	n/a	LTP283	ltpFR2	16	n/a	n/a	n/a	1	12	3	6	3
317.226	n/a	PROB	158613	n/a	LTP283	ltpFR2	16	n/a	n/a	n/a	1	20	6	8	6
319.328	n/a	PROB	159664	n/a	LTP283	ltpFR2	16	n/a	n/a	n/a	1	19	9	6	4
321.12	n/a	PROB	160560	n/a	LTP283	ltpFR2	16	n/a	n/a	n/a	1	20	7	6	7
323.014	n/a	PROB	161507	n/a	LTP283	ltpFR2	16	n/a	n/a	n/a	1	11	1	6	4
324.298	n/a	PROB	162149	n/a	LTP283	ltpFR2	16	n/a	n/a	n/a	1	15	1	5	9
325.584	n/a	PROB	162792	n/a	LTP283	ltpFR2	16	n/a	n/a	n/a	1	15	7	1	7
327.134	n/a	PROB	163567	n/a	LTP283	ltpFR2	16	n/a	n/a	n/a	1	18	7	7	4
329.044	n/a	PROB	164522	n/a	LTP283	ltpFR2	16	n/a	n/a	n/a	1	16	1	9	6
330.712	n/a	PROB	165356	n/a	LTP283	ltpFR2	16	n/a	n/a	n/a	1	11	4	1	6
331.646	n/a	STOP	165823	n/a	LTP283	ltpFR2	16	n/a	n/a	n/a	1	n/a	n/a	n/a	n/a
333.742	n/a	WORD	166871	wordpools/wasnorm_wordpool_576.txt	LTP283	ltpFR2	16	1	SADDLE	1221	n/a	n/a	0	0	0
336.416	n/a	WORD	168208	wordpools/wasnorm_wordpool_576.txt	LTP283	ltpFR2	16	1	DONKEY	484	n/a	n/a	0	0	0
339.294	n/a	WORD	169647	wordpools/wasnorm_wordpool_576.txt	LTP283	ltpFR2	16	1	ROOSTER	1209	n/a	n/a	0	0	0
342.014	n/a	WORD	171007	wordpools/wasnorm_wordpool_576.txt	LTP283	ltpFR2	16	1	TWIG	1527	n/a	n/a	0	0	0
344.634	n/a	WORD	172317	wordpools/wasnorm_wordpool_576.txt	LTP283	ltpFR2	16	1	STOVE	1388	n/a	n/a	0	0	0
347.218	n/a	WORD	173609	wordpools/wasnorm_wordpool_576.txt	LTP283	ltpFR2	16	1	COTTAGE	384	n/a	n/a	0	0	0
349.912	n/a	WORD	174956	wordpools/wasnorm_wordpool_576.txt	LTP283	ltpFR2	16	1	YOLK	1633	n/a	n/a	0	0	0
352.622	n/a	WORD	176311	wordpools/wasnorm_wordpool_576.txt	LTP283	ltpFR2	16	1	EGYPT	519	n/a	n/a	0	0	0
355.324	n/a	WORD	177662	wordpools/wasnorm_wordpool_576.txt	LTP283	ltpFR2	16	1	SPHINX	1349	n/a	n/a	0	0	0
358.058	n/a	WORD	179029	wordpools/wasnorm_wordpool_576.txt	LTP283	ltpFR2	16	1	SEAGULL	1261	n/a	n/a	0	0	0
360.81	n/a	WORD	180405	wordpools/wasnorm_wordpool_576.txt	LTP283	ltpFR2	16	1	APRON	35	n/a	n/a	0	0	0
363.53	n/a	WORD	181765	wordpools/wasnorm_wordpool_576.txt	LTP283	ltpFR2	16	1	ROD	1203	n/a	n/a	0	0	0
366.166	n/a	WORD	183083	wordpools/wasnorm_wordpool_576.txt	LTP283	ltpFR2	16	1	FEMALE	559	n/a	n/a	0	0	0
368.858	n/a	WORD	184429	wordpools/wasnorm_wordpool_576.txt	LTP283	ltpFR2	16	1	IDOL	733	n/a	n/a	0	0	0
371.436	n/a	WORD	185718	wordpools/wasnorm_wordpool_576.txt	LTP283	ltpFR2	16	1	HONEY	713	n/a	n/a	0	0	0
374.288	n/a	WORD	187144	wordpools/wasnorm_wordpool_576.txt	LTP283	ltpFR2	16	1	TWEEZERS	1526	n/a	n/a	0	0	0
376.982	n/a	WORD	188491	wordpools/wasnorm_wordpool_576.txt	LTP283	ltpFR2	16	1	GAVEL	627	n/a	n/a	0	0	0
379.594	n/a	WORD	189797	wordpools/wasnorm_wordpool_576.txt	LTP283	ltpFR2	16	1	PORK	1108	n/a	n/a	0	0	0
382.428	n/a	WORD	191214	wordpools/wasnorm_wordpool_576.txt	LTP283	ltpFR2	16	1	NOTEBOOK	959	n/a	n/a	0	0	0
385.264	n/a	WORD	192632	wordpools/wasnorm_wordpool_576.txt	LTP283	ltpFR2	16	1	RABBIT	1152	n/a	n/a	0	0	0
387.882	n/a	WORD	193941	wordpools/wasnorm_wordpool_576.txt	LTP283	ltpFR2	16	1	ROBIN	1199	n/a	n/a	0	0	0
390.468	n/a	WORD	195234	wordpools/wasnorm_wordpool_576.txt	LTP283	ltpFR2	16	1	FREEZER	604	n/a	n/a	0	0	0
393.286	n/a	WORD	196643	wordpools/wasnorm_wordpool_576.txt	LTP283	ltpFR2	16	1	CELLAR	267	n/a	n/a	0	0	0
395.856	n/a	WORD	197928	wordpools/wasnorm_wordpool_576.txt	LTP283	ltpFR2	16	1	HATCHET	691	n/a	n/a	0	0	0
397.492	n/a	START	198746	n/a	LTP283	ltpFR2	16	n/a	n/a	n/a	2	n/a	n/a	n/a	n/a
398.462	n/a	DISTRACTOR	199231	n/a	LTP283	ltpFR2	16	1	n/a	n/a	n/a	n/a	0	0	0
398.534	n/a	PROB	199267	n/a	LTP283	ltpFR2	16	n/a	n/a	n/a	2	18	5	6	7
400.992	n/a	PROB	200496	n/a	LTP283	ltpFR2	16	n/a	n/a	n/a	2	14	8	2	4
402.36	n/a	PROB	201180	n/a	LTP283	ltpFR2	16	n/a	n/a	n/a	2	17	7	8	2
403.828	n/a	PROB	201914	n/a	LTP283	ltpFR2	16	n/a	n/a	n/a	2	10	8	1	1
405.106	n/a	PROB	202553	n/a	LTP283	ltpFR2	16	n/a	n/a	n/a	2	13	3	9	1
406.396	n/a	PROB	203198	n/a	LTP283	ltpFR2	16	n/a	n/a	n/a	2	20	8	4	8
408.6	n/a	PROB	204300	n/a	LTP283	ltpFR2	16	n/a	n/a	n/a	2	21	3	9	9
410.15	n/a	PROB	205075	n/a	LTP283	ltpFR2	16	n/a	n/a	n/a	2	19	6	5	8
412.67	n/a	PROB	206335	n/a	LTP283	ltpFR2	16	n/a	n/a	n/a	2	15	4	9	2
414.394	n/a	PROB	207197	n/a	LTP283	ltpFR2	16	n/a	n/a	n/a	2	18	3	8	7
416.422	n/a	PROB	208211	n/a	LTP283	ltpFR2	16	n/a	n/a	n/a	2	15	1	6	8
418.24	n/a	PROB	209120	n/a	LTP283	ltpFR2	16	n/a	n/a	n/a	2	23	7	7	9
419.842	n/a	PROB	209921	n/a	LTP283	ltpFR2	16	n/a	n/a	n/a	2	12	3	1	8
421.096	n/a	STOP	210548	n/a	LTP283	ltpFR2	16	n/a	n/a	n/a	2	n/a	n/a	n/a	n/a
423.512	n/a	REC_START	211756	n/a	LTP283	ltpFR2	16	1	n/a	n/a	n/a	n/a	0	0	0
425.336	n/a	REC_WORD	212668	wordpools/wasnorm_wordpool_576.txt	LTP283	ltpFR2	16	1	SADDLE	1221	n/a	n/a	0	0	0
426.068	n/a	REC_WORD	213034	wordpools/wasnorm_wordpool_576.txt	LTP283	ltpFR2	16	1	DONKEY	484	n/a	n/a	0	0	0
426.632	n/a	REC_WORD	213316	wordpools/wasnorm_wordpool_576.txt	LTP283	ltpFR2	16	1	ROOSTER	1209	n/a	n/a	0	0	0
428.416	n/a	REC_WORD	214208	wordpools/wasnorm_wordpool_576.txt	LTP283	ltpFR2	16	1	COTTAGE	384	n/a	n/a	0	0	0
428.828	n/a	REC_WORD	214414	wordpools/wasnorm_wordpool_576.txt	LTP283	ltpFR2	16	1	STOVE	1388	n/a	n/a	0	0	0
429.484	n/a	REC_WORD	214742	wordpools/wasnorm_wordpool_576.txt	LTP283	ltpFR2	16	1	YOLK	1633	n/a	n/a	0	0	0
430.108	n/a	REC_WORD	215054	wordpools/wasnorm_wordpool_576.txt	LTP283	ltpFR2	16	1	APRON	35	n/a	n/a	0	0	0
430.896	n/a	REC_WORD	215448	wordpools/wasnorm_wordpool_576.txt	LTP283	ltpFR2	16	1	FEMALE	559	n/a	n/a	0	0	0
431.428	n/a	REC_WORD	215714	wordpools/wasnorm_wordpool_576.txt	LTP283	ltpFR2	16	1	ROD	1203	n/a	n/a	0	0	0
438.28	n/a	REC_WORD	219140	wordpools/wasnorm_wordpool_576.txt	LTP283	ltpFR2	16	1	PORK	1108	n/a	n/a	0	0	0
441.886	n/a	REC_WORD	220943	wordpools/wasnorm_wordpool_576.txt	LTP283	ltpFR2	16	1	RABBIT	1152	n/a	n/a	0	0	0
442.366	n/a	REC_WORD	221183	wordpools/wasnorm_wordpool_576.txt	LTP283	ltpFR2	16	1	ROBIN	1199	n/a	n/a	0	0	0
442.97	n/a	REC_WORD	221485	wordpools/wasnorm_wordpool_576.txt	LTP283	ltpFR2	16	1	FREEZER	604	n/a	n/a	0	0	0
443.524	n/a	REC_WORD	221762	wordpools/wasnorm_wordpool_576.txt	LTP283	ltpFR2	16	1	CELLAR	267	n/a	n/a	0	0	0
444.034	n/a	REC_WORD	222017	wordpools/wasnorm_wordpool_576.txt	LTP283	ltpFR2	16	1	HATCHET	691	n/a	n/a	0	0	0
448.574	n/a	REC_WORD	224287	wordpools/wasnorm_wordpool_576.txt	LTP283	ltpFR2	16	1	NOTEBOOK	959	n/a	n/a	0	0	0
450.43	n/a	REC_WORD	225215	wordpools/wasnorm_wordpool_576.txt	LTP283	ltpFR2	16	1	SEAGULL	1261	n/a	n/a	0	0	0
451.3	n/a	REC_WORD	225650	wordpools/wasnorm_wordpool_576.txt	LTP283	ltpFR2	16	1	TWEEZERS	1526	n/a	n/a	0	0	0
452.052	n/a	REC_WORD	226026	wordpools/wasnorm_wordpool_576.txt	LTP283	ltpFR2	16	1	HONEY	713	n/a	n/a	0	0	0
453.448	n/a	REC_WORD	226724	wordpools/wasnorm_wordpool_576.txt	LTP283	ltpFR2	16	1	EGYPT	519	n/a	n/a	0	0	0
453.978	n/a	REC_WORD	226989	wordpools/wasnorm_wordpool_576.txt	LTP283	ltpFR2	16	1	SPHINX	1349	n/a	n/a	0	0	0
459.896	n/a	REC_WORD	229948	wordpools/wasnorm_wordpool_576.txt	LTP283	ltpFR2	16	1	APRON	35	n/a	n/a	0	0	0
481.48	n/a	REC_WORD	240740	wordpools/wasnorm_wordpool_576.txt	LTP283	ltpFR2	16	1	FEMALE	559	n/a	n/a	0	0	0
514.434	n/a	DISTRACTOR	257217	n/a	LTP283	ltpFR2	16	2	n/a	n/a	n/a	n/a	0	0	0
514.434	n/a	START	257217	n/a	LTP283	ltpFR2	16	n/a	n/a	n/a	3	n/a	n/a	n/a	n/a
514.5	n/a	PROB	257250	n/a	LTP283	ltpFR2	16	n/a	n/a	n/a	3	11	3	7	1
515.808	n/a	PROB	257904	n/a	LTP283	ltpFR2	16	n/a	n/a	n/a	3	19	2	9	8
517.102	n/a	PROB	258551	n/a	LTP283	ltpFR2	16	n/a	n/a	n/a	3	1	3	3	9
518.738	n/a	PROB	259369	n/a	LTP283	ltpFR2	16	n/a	n/a	n/a	3	16	9	6	1
520.37	n/a	PROB	260185	n/a	LTP283	ltpFR2	16	n/a	n/a	n/a	3	6	2	1	3
521.74	n/a	PROB	260870	n/a	LTP283	ltpFR2	16	n/a	n/a	n/a	3	18	1	8	9
523.224	n/a	PROB	261612	n/a	LTP283	ltpFR2	16	n/a	n/a	n/a	3	19	9	2	8
524.824	n/a	PROB	262412	n/a	LTP283	ltpFR2	16	n/a	n/a	n/a	3	19	9	7	3
526.41	n/a	PROB	263205	n/a	LTP283	ltpFR2	16	n/a	n/a	n/a	3	12	7	3	2
527.752	n/a	PROB	263876	n/a	LTP283	ltpFR2	16	n/a	n/a	n/a	3	18	7	2	9
529.546	n/a	PROB	264773	n/a	LTP283	ltpFR2	16	n/a	n/a	n/a	3	18	4	5	9
531.214	n/a	PROB	265607	n/a	LTP283	ltpFR2	16	n/a	n/a	n/a	3	13	1	4	8
533.214	n/a	PROB	266607	n/a	LTP283	ltpFR2	16	n/a	n/a	n/a	3	10	5	2	3
535.54	n/a	PROB	267770	n/a	LTP283	ltpFR2	16	n/a	n/a	n/a	3	18	4	5	9
537.652	n/a	STOP	268826	n/a	LTP283	ltpFR2	16	n/a	n/a	n/a	3	n/a	n/a	n/a	n/a
539.352	n/a	WORD	269676	wordpools/wasnorm_wordpool_576.txt	LTP283	ltpFR2	16	2	ICEBERG	731	n/a	n/a	0	0	0
542.106	n/a	WORD	271053	wordpools/wasnorm_wordpool_576.txt	LTP283	ltpFR2	16	2	LOVER	846	n/a	n/a	0	0	0
544.798	n/a	WORD	272399	wordpools/wasnorm_wordpool_576.txt	LTP283	ltpFR2	16	2	CIGAR	308	n/a	n/a	0	0	0
547.426	n/a	WORD	273713	wordpools/wasnorm_wordpool_576.txt	LTP283	ltpFR2	16	2	ICING	732	n/a	n/a	0	0	0
549.978	n/a	WORD	274989	wordpools/wasnorm_wordpool_576.txt	LTP283	ltpFR2	16	2	LEADER	807	n/a	n/a	0	0	0
552.654	n/a	WORD	276327	wordpools/wasnorm_wordpool_576.txt	LTP283	ltpFR2	16	2	KLEENEX	782	n/a	n/a	0	0	0
555.266	n/a	WORD	277633	wordpools/wasnorm_wordpool_576.txt	LTP283	ltpFR2	16	2	BARREL	91	n/a	n/a	0	0	0
558.052	n/a	WORD	279026	wordpools/wasnorm_wordpool_576.txt	LTP283	ltpFR2	16	2	SALT	1229	n/a	n/a	0	0	0
560.82	n/a	WORD	280410	wordpools/wasnorm_wordpool_576.txt	LTP283	ltpFR2	16	2	ONION	977	n/a	n/a	0	0	0
563.338	n/a	WORD	281669	wordpools/wasnorm_wordpool_576.txt	LTP283	ltpFR2	16	2	BULLET	194	n/a	n/a	0	0	0
565.956	n/a	WORD	282978	wordpools/wasnorm_wordpool_576.txt	LTP283	ltpFR2	16	2	CAMEL	223	n/a	n/a	0	0	0
568.678	n/a	WORD	284339	wordpools/wasnorm_wordpool_576.txt	LTP283	ltpFR2	16	2	OZONE	996	n/a	n/a	0	0	0
571.38	n/a	WORD	285690	wordpools/wasnorm_wordpool_576.txt	LTP283	ltpFR2	16	2	COLONEL	348	n/a	n/a	0	0	0
574.114	n/a	WORD	287057	wordpools/wasnorm_wordpool_576.txt	LTP283	ltpFR2	16	2	PISTON	1076	n/a	n/a	0	0	0
576.932	n/a	WORD	288466	wordpools/wasnorm_wordpool_576.txt	LTP283	ltpFR2	16	2	SHOVEL	1295	n/a	n/a	0	0	0
579.468	n/a	WORD	289734	wordpools/wasnorm_wordpool_576.txt	LTP283	ltpFR2	16	2	TRUCK	1512	n/a	n/a	0	0	0
582.336	n/a	WORD	291168	wordpools/wasnorm_wordpool_576.txt	LTP283	ltpFR2	16	2	MOTOR	922	n/a	n/a	0	0	0
585.088	n/a	WORD	292544	wordpools/wasnorm_wordpool_576.txt	LTP283	ltpFR2	16	2	KIDNEY	776	n/a	n/a	0	0	0
587.924	n/a	WORD	293962	wordpools/wasnorm_wordpool_576.txt	LTP283	ltpFR2	16	2	SPOUSE	1358	n/a	n/a	0	0	0
590.728	n/a	WORD	295364	wordpools/wasnorm_wordpool_576.txt	LTP283	ltpFR2	16	2	HUMAN	726	n/a	n/a	0	0	0
593.546	n/a	WORD	296773	wordpools/wasnorm_wordpool_576.txt	LTP283	ltpFR2	16	2	POISON	1096	n/a	n/a	0	0	0
596.148	n/a	WORD	298074	wordpools/wasnorm_wordpool_576.txt	LTP283	ltpFR2	16	2	GRAVE	658	n/a	n/a	0	0	0
598.966	n/a	WORD	299483	wordpools/wasnorm_wordpool_576.txt	LTP283	ltpFR2	16	2	MASK	876	n/a	n/a	0	0	0
601.644	n/a	WORD	300822	wordpools/wasnorm_wordpool_576.txt	LTP283	ltpFR2	16	2	SALMON	1227	n/a	n/a	0	0	0
603.288	n/a	START	301644	n/a	LTP283	ltpFR2	16	n/a	n/a	n/a	4	n/a	n/a	n/a	n/a
604.324	n/a	DISTRACTOR	302162	n/a	LTP283	ltpFR2	16	2	n/a	n/a	n/a	n/a	0	0	0
604.37	n/a	PROB	302185	n/a	LTP283	ltpFR2	16	n/a	n/a	n/a	4	20	9	5	6
606.656	n/a	PROB	303328	n/a	LTP283	ltpFR2	16	n/a	n/a	n/a	4	14	2	6	6
608.464	n/a	PROB	304232	n/a	LTP283	ltpFR2	16	n/a	n/a	n/a	4	17	4	6	7
609.992	n/a	PROB	304996	n/a	LTP283	ltpFR2	16	n/a	n/a	n/a	4	10	1	3	6
611.234	n/a	PROB	305617	n/a	LTP283	ltpFR2	16	n/a	n/a	n/a	4	20	9	3	8
612.596	n/a	PROB	306298	n/a	LTP283	ltpFR2	16	n/a	n/a	n/a	4	11	4	5	2
614.244	n/a	PROB	307122	n/a	LTP283	ltpFR2	16	n/a	n/a	n/a	4	1	5	5	6
615.546	n/a	PROB	307773	n/a	LTP283	ltpFR2	16	n/a	n/a	n/a	4	21	7	9	5
619.616	n/a	PROB	309808	n/a	LTP283	ltpFR2	16	n/a	n/a	n/a	4	17	1	7	9
621.284	n/a	PROB	310642	n/a	LTP283	ltpFR2	16	n/a	n/a	n/a	4	2	9	3	9
623.118	n/a	PROB	311559	n/a	LTP283	ltpFR2	16	n/a	n/a	n/a	4	18	9	5	4
627.288	n/a	STOP	313644	n/a	LTP283	ltpFR2	16	n/a	n/a	n/a	4	n/a	n/a	n/a	n/a
629.282	n/a	REC_START	314641	n/a	LTP283	ltpFR2	16	2	n/a	n/a	n/a	n/a	0	0	0
630.306	n/a	REC_WORD	315153	wordpools/wasnorm_wordpool_576.txt	LTP283	ltpFR2	16	2	ICEBERG	731	n/a	n/a	0	0	0
631.03	n/a	REC_WORD	315515	wordpools/wasnorm_wordpool_576.txt	LTP283	ltpFR2	16	2	LOVER	846	n/a	n/a	0	0	0
635.558	n/a	REC_WORD	317779	wordpools/wasnorm_wordpool_576.txt	LTP283	ltpFR2	16	2	CIGAR	308	n/a	n/a	0	0	0
637.086	n/a	REC_WORD	318543	wordpools/wasnorm_wordpool_576.txt	LTP283	ltpFR2	16	2	ICING	732	n/a	n/a	0	0	0
641.796	n/a	REC_WORD	320898	wordpools/wasnorm_wordpool_576.txt	LTP283	ltpFR2	16	2	KLEENEX	782	n/a	n/a	0	0	0
642.548	n/a	REC_WORD	321274	wordpools/wasnorm_wordpool_576.txt	LTP283	ltpFR2	16	2	LEADER	807	n/a	n/a	0	0	0
643.606	n/a	REC_WORD	321803	wordpools/wasnorm_wordpool_576.txt	LTP283	ltpFR2	16	2	BARREL	91	n/a	n/a	0	0	0
646.528	n/a	REC_WORD	323264	wordpools/wasnorm_wordpool_576.txt	LTP283	ltpFR2	16	2	BULLET	194	n/a	n/a	0	0	0
647.142	n/a	REC_WORD	323571	wordpools/wasnorm_wordpool_576.txt	LTP283	ltpFR2	16	2	ONION	977	n/a	n/a	0	0	0
650.524	n/a	REC_WORD	325262	wordpools/wasnorm_wordpool_576.txt	LTP283	ltpFR2	16	2	CAMEL	223	n/a	n/a	0	0	0
651.128	n/a	REC_WORD	325564	wordpools/wasnorm_wordpool_576.txt	LTP283	ltpFR2	16	2	OZONE	996	n/a	n/a	0	0	0
655.356	n/a	REC_WORD	327678	wordpools/wasnorm_wordpool_576.txt	LTP283	ltpFR2	16	2	COLONEL	348	n/a	n/a	0	0	0
655.992	n/a	REC_WORD	327996	wordpools/wasnorm_wordpool_576.txt	LTP283	ltpFR2	16	2	PISTON	1076	n/a	n/a	0	0	0
662.02	n/a	REC_WORD	331010	wordpools/wasnorm_wordpool_576.txt	LTP283	ltpFR2	16	2	TRUCK	1512	n/a	n/a	0	0	0
662.46	n/a	REC_WORD	331230	wordpools/wasnorm_wordpool_576.txt	LTP283	ltpFR2	16	2	MOTOR	922	n/a	n/a	0	0	0
679.3	n/a	REC_WORD	339650	wordpools/wasnorm_wordpool_576.txt	LTP283	ltpFR2	16	2	KIDNEY	776	n/a	n/a	0	0	0
679.824	n/a	REC_WORD	339912	wordpools/wasnorm_wordpool_576.txt	LTP283	ltpFR2	16	2	HUMAN	726	n/a	n/a	0	0	0
681.468	n/a	REC_WORD	340734	wordpools/wasnorm_wordpool_576.txt	LTP283	ltpFR2	16	2	POISON	1096	n/a	n/a	0	0	0
684.34	n/a	REC_WORD	342170	wordpools/wasnorm_wordpool_576.txt	LTP283	ltpFR2	16	2	MASK	876	n/a	n/a	0	0	0
720.28	n/a	WORD	360140	wordpools/wasnorm_wordpool_576.txt	LTP283	ltpFR2	16	3	POLICE	1098	n/a	n/a	0	0	0
722.88	n/a	WORD	361440	wordpools/wasnorm_wordpool_576.txt	LTP283	ltpFR2	16	3	BADGE	68	n/a	n/a	0	0	0
725.558	n/a	WORD	362779	wordpools/wasnorm_wordpool_576.txt	LTP283	ltpFR2	16	3	BRICK	172	n/a	n/a	0	0	0
728.318	n/a	WORD	364159	wordpools/wasnorm_wordpool_576.txt	LTP283	ltpFR2	16	3	HORSE	719	n/a	n/a	0	0	0
730.888	n/a	WORD	365444	wordpools/wasnorm_wordpool_576.txt	LTP283	ltpFR2	16	3	SPARROW	1347	n/a	n/a	0	0	0
733.422	n/a	WORD	366711	wordpools/wasnorm_wordpool_576.txt	LTP283	ltpFR2	16	3	GALLON	618	n/a	n/a	0	0	0
736.224	n/a	WORD	368112	wordpools/wasnorm_wordpool_576.txt	LTP283	ltpFR2	16	3	AIRPORT	13	n/a	n/a	0	0	0
739.01	n/a	WORD	369505	wordpools/wasnorm_wordpool_576.txt	LTP283	ltpFR2	16	3	KEEPER	769	n/a	n/a	0	0	0
741.73	n/a	WORD	370865	wordpools/wasnorm_wordpool_576.txt	LTP283	ltpFR2	16	3	FOOTBALL	591	n/a	n/a	0	0	0
744.424	n/a	WORD	372212	wordpools/wasnorm_wordpool_576.txt	LTP283	ltpFR2	16	3	WHISTLE	1606	n/a	n/a	0	0	0
746.968	n/a	WORD	373484	wordpools/wasnorm_wordpool_576.txt	LTP283	ltpFR2	16	3	CORAL	378	n/a	n/a	0	0	0
749.66	n/a	WORD	374830	wordpools/wasnorm_wordpool_576.txt	LTP283	ltpFR2	16	3	SWAMP	1416	n/a	n/a	0	0	0
752.172	n/a	WORD	376086	wordpools/wasnorm_wordpool_576.txt	LTP283	ltpFR2	16	3	BUTCHER	203	n/a	n/a	0	0	0
754.756	n/a	WORD	377378	wordpools/wasnorm_wordpool_576.txt	LTP283	ltpFR2	16	3	SIDEWALK	1303	n/a	n/a	0	0	0
757.51	n/a	WORD	378755	wordpools/wasnorm_wordpool_576.txt	LTP283	ltpFR2	16	3	SNAKE	1333	n/a	n/a	0	0	0
760.184	n/a	WORD	380092	wordpools/wasnorm_wordpool_576.txt	LTP283	ltpFR2	16	3	HOSTESS	723	n/a	n/a	0	0	0
762.896	n/a	WORD	381448	wordpools/wasnorm_wordpool_576.txt	LTP283	ltpFR2	16	3	CHAUFFEUR	283	n/a	n/a	0	0	0
765.7	n/a	WORD	382850	wordpools/wasnorm_wordpool_576.txt	LTP283	ltpFR2	16	3	BIKE	125	n/a	n/a	0	0	0
768.468	n/a	WORD	384234	wordpools/wasnorm_wordpool_576.txt	LTP283	ltpFR2	16	3	SERVER	1272	n/a	n/a	0	0	0
771.186	n/a	WORD	385593	wordpools/wasnorm_wordpool_576.txt	LTP283	ltpFR2	16	3	POSSUM	1112	n/a	n/a	0	0	0
773.956	n/a	WORD	386978	wordpools/wasnorm_wordpool_576.txt	LTP283	ltpFR2	16	3	CITRUS	313	n/a	n/a	0	0	0
776.632	n/a	WORD	388316	wordpools/wasnorm_wordpool_576.txt	LTP283	ltpFR2	16	3	SHORTCAKE	1292	n/a	n/a	0	0	0
779.392	n/a	WORD	389696	wordpools/wasnorm_wordpool_576.txt	LTP283	ltpFR2	16	3	NIGHTGOWN	953	n/a	n/a	0	0	0
781.912	n/a	WORD	390956	wordpools/wasnorm_wordpool_576.txt	LTP283	ltpFR2	16	3	SUSPECT	1415	n/a	n/a	0	0	0
783.548	n/a	START	391774	n/a	LTP283	ltpFR2	16	n/a	n/a	n/a	5	n/a	n/a	n/a	n/a
784.594	n/a	DISTRACTOR	392297	n/a	LTP283	ltpFR2	16	3	n/a	n/a	n/a	n/a	0	0	0
784.632	n/a	PROB	392316	n/a	LTP283	ltpFR2	16	n/a	n/a	n/a	5	7	1	2	4
787.166	n/a	PROB	393583	n/a	LTP283	ltpFR2	16	n/a	n/a	n/a	5	11	2	1	8
788.8	n/a	PROB	394400	n/a	LTP283	ltpFR2	16	n/a	n/a	n/a	5	13	8	3	2
791.686	n/a	PROB	395843	n/a	LTP283	ltpFR2	16	n/a	n/a	n/a	5	12	2	2	8
793.786	n/a	PROB	396893	n/a	LTP283	ltpFR2	16	n/a	n/a	n/a	5	14	3	8	3
795.74	n/a	PROB	397870	n/a	LTP283	ltpFR2	16	n/a	n/a	n/a	5	18	7	8	3
797.582	n/a	PROB	398791	n/a	LTP283	ltpFR2	16	n/a	n/a	n/a	5	20	4	7	9
799.532	n/a	PROB	399766	n/a	LTP283	ltpFR2	16	n/a	n/a	n/a	5	18	6	5	7
801.216	n/a	PROB	400608	n/a	LTP283	ltpFR2	16	n/a	n/a	n/a	5	17	5	9	3
802.844	n/a	PROB	401422	n/a	LTP283	ltpFR2	16	n/a	n/a	n/a	5	1	3	7	4
807.546	n/a	STOP	403773	n/a	LTP283	ltpFR2	16	n/a	n/a	n/a	5	n/a	n/a	n/a	n/a
809.526	n/a	REC_START	404763	n/a	LTP283	ltpFR2	16	3	n/a	n/a	n/a	n/a	0	0	0
815.912	n/a	REC_WORD	407956	wordpools/wasnorm_wordpool_576.txt	LTP283	ltpFR2	16	3	SNAKE	1333	n/a	n/a	0	0	0
816.91	n/a	REC_WORD	408455	wordpools/wasnorm_wordpool_576.txt	LTP283	ltpFR2	16	3	BUTCHER	203	n/a	n/a	0	0	0
817.362	n/a	REC_WORD	408681	wordpools/wasnorm_wordpool_576.txt	LTP283	ltpFR2	16	3	SIDEWALK	1303	n/a	n/a	0	0	0
818.47	n/a	REC_WORD	409235	wordpools/wasnorm_wordpool_576.txt	LTP283	ltpFR2	16	3	POLICE	1098	n/a	n/a	0	0	0
819.294	n/a	REC_WORD	409647	wordpools/wasnorm_wordpool_576.txt	LTP283	ltpFR2	16	3	BADGE	68	n/a	n/a	0	0	0
825.63	n/a	REC_WORD	412815	wordpools/wasnorm_wordpool_576.txt	LTP283	ltpFR2	16	3	BRICK	172	n/a	n/a	0	0	0
826.132	n/a	REC_WORD	413066	wordpools/wasnorm_wordpool_576.txt	LTP283	ltpFR2	16	3	SPARROW	1347	n/a	n/a	0	0	0
827.074	n/a	REC_WORD	413537	wordpools/wasnorm_wordpool_576.txt	LTP283	ltpFR2	16	3	GALLON	618	n/a	n/a	0	0	0
828.336	n/a	REC_WORD	414168	wordpools/wasnorm_wordpool_576.txt	LTP283	ltpFR2	16	3	KEEPER	769	n/a	n/a	0	0	0
829.948	n/a	REC_WORD	414974	wordpools/wasnorm_wordpool_576.txt	LTP283	ltpFR2	16	3	AIRPORT	13	n/a	n/a	0	0	0
830.526	n/a	REC_WORD	415263	wordpools/wasnorm_wordpool_576.txt	LTP283	ltpFR2	16	3	CHAUFFEUR	283	n/a	n/a	0	0	0
831.282	n/a	REC_WORD	415641	wordpools/wasnorm_wordpool_576.txt	LTP283	ltpFR2	16	3	HOSTESS	723	n/a	n/a	0	0	0
831.978	n/a	REC_WORD	415989	wordpools/wasnorm_wordpool_576.txt	LTP283	ltpFR2	16	3	SERVER	1272	n/a	n/a	0	0	0
833.08	n/a	REC_WORD	416540	wordpools/wasnorm_wordpool_576.txt	LTP283	ltpFR2	16	3	BIKE	125	n/a	n/a	0	0	0
900.506	n/a	WORD	450253	wordpools/wasnorm_wordpool_576.txt	LTP283	ltpFR2	16	4	ORANGE	980	n/a	n/a	0	0	0
903.074	n/a	WORD	451537	wordpools/wasnorm_wordpool_576.txt	LTP283	ltpFR2	16	4	CARROT	249	n/a	n/a	0	0	0
905.642	n/a	WORD	452821	wordpools/wasnorm_wordpool_576.txt	LTP283	ltpFR2	16	4	QUEEN	1149	n/a	n/a	0	0	0
908.428	n/a	WORD	454214	wordpools/wasnorm_wordpool_576.txt	LTP283	ltpFR2	16	4	WORLD	1622	n/a	n/a	0	0	0
911.014	n/a	WORD	455507	wordpools/wasnorm_wordpool_576.txt	LTP283	ltpFR2	16	4	MARS	873	n/a	n/a	0	0	0
913.5	n/a	WORD	456750	wordpools/wasnorm_wordpool_576.txt	LTP283	ltpFR2	16	4	LOFT	840	n/a	n/a	0	0	0
915.984	n/a	WORD	457992	wordpools/wasnorm_wordpool_576.txt	LTP283	ltpFR2	16	4	ZEBRA	1635	n/a	n/a	0	0	0
918.66	n/a	WORD	459330	wordpools/wasnorm_wordpool_576.txt	LTP283	ltpFR2	16	4	BRAKE	166	n/a	n/a	0	0	0
921.222	n/a	WORD	460611	wordpools/wasnorm_wordpool_576.txt	LTP283	ltpFR2	16	4	PECAN	1036	n/a	n/a	0	0	0
924.072	n/a	WORD	462036	wordpools/wasnorm_wordpool_576.txt	LTP283	ltpFR2	16	4	MESSAGE	888	n/a	n/a	0	0	0
926.858	n/a	WORD	463429	wordpools/wasnorm_wordpool_576.txt	LTP283	ltpFR2	16	4	RAZOR	1171	n/a	n/a	0	0	0
929.554	n/a	WORD	464777	wordpools/wasnorm_wordpool_576.txt	LTP283	ltpFR2	16	4	PREACHER	1119	n/a	n/a	0	0	0
932.254	n/a	WORD	466127	wordpools/wasnorm_wordpool_576.txt	LTP283	ltpFR2	16	4	TABLET	1427	n/a	n/a	0	0	0
934.938	n/a	WORD	467469	wordpools/wasnorm_wordpool_576.txt	LTP283	ltpFR2	16	4	WHISKERS	1605	n/a	n/a	0	0	0
937.702	n/a	WORD	468851	wordpools/wasnorm_wordpool_576.txt	LTP283	ltpFR2	16	4	PERFUME	1049	n/a	n/a	0	0	0
940.22	n/a	WORD	470110	wordpools/wasnorm_wordpool_576.txt	LTP283	ltpFR2	16	4	SURVEY	1414	n/a	n/a	0	0	0
942.922	n/a	WORD	471461	wordpools/wasnorm_wordpool_576.txt	LTP283	ltpFR2	16	4	CRAB	397	n/a	n/a	0	0	0
945.624	n/a	WORD	472812	wordpools/wasnorm_wordpool_576.txt	LTP283	ltpFR2	16	4	STALLION	1369	n/a	n/a	0	0	0
948.242	n/a	WORD	474121	wordpools/wasnorm_wordpool_576.txt	LTP283	ltpFR2	16	4	GRIZZLY	662	n/a	n/a	0	0	0
951.028	n/a	WORD	475514	wordpools/wasnorm_wordpool_576.txt	LTP283	ltpFR2	16	4	SHELF	1280	n/a	n/a	0	0	0
953.722	n/a	WORD	476861	wordpools/wasnorm_wordpool_576.txt	LTP283	ltpFR2	16	4	BINDER	127	n/a	n/a	0	0	0
956.55	n/a	WORD	478275	wordpools/wasnorm_wordpool_576.txt	LTP283	ltpFR2	16	4	SHERIFF	1284	n/a	n/a	0	0	0
959.268	n/a	WORD	479634	wordpools/wasnorm_wordpool_576.txt	LTP283	ltpFR2	16	4	FRAGRANCE	599	n/a	n/a	0	0	0
962.02	n/a	WORD	481010	wordpools/wasnorm_wordpool_576.txt	LTP283	ltpFR2	16	4	HOOK	715	n/a	n/a	0	0	0
963.656	n/a	START	481828	n/a	LTP283	ltpFR2	16	n/a	n/a	n/a	6	n/a	n/a	n/a	n/a
964.752	n/a	DISTRACTOR	482376	n/a	LTP283	ltpFR2	16	4	n/a	n/a	n/a	n/a	0	0	0
964.788	n/a	PROB	482394	n/a	LTP283	ltpFR2	16	n/a	n/a	n/a	6	25	9	9	7
969.694	n/a	PROB	484847	n/a	LTP283	ltpFR2	16	n/a	n/a	n/a	6	6	3	1	3
971.01	n/a	PROB	485505	n/a	LTP283	ltpFR2	16	n/a	n/a	n/a	6	15	6	5	4
973.23	n/a	PROB	486615	n/a	LTP283	ltpFR2	16	n/a	n/a	n/a	6	13	6	3	4
974.648	n/a	PROB	487324	n/a	LTP283	ltpFR2	16	n/a	n/a	n/a	6	10	1	3	6
976.014	n/a	PROB	488007	n/a	LTP283	ltpFR2	16	n/a	n/a	n/a	6	19	7	4	8
978.9	n/a	PROB	489450	n/a	LTP283	ltpFR2	16	n/a	n/a	n/a	6	20	6	9	5
980.62	n/a	PROB	490310	n/a	LTP283	ltpFR2	16	n/a	n/a	n/a	6	10	5	2	3
982.094	n/a	PROB	491047	n/a	LTP283	ltpFR2	16	n/a	n/a	n/a	6	19	3	8	8
983.954	n/a	PROB	491977	n/a	LTP283	ltpFR2	16	n/a	n/a	n/a	6	17	1	8	8
985.524	n/a	PROB	492762	n/a	LTP283	ltpFR2	16	n/a	n/a	n/a	6	4	2	1	1
986.554	n/a	STOP	493277	n/a	LTP283	ltpFR2	16	n/a	n/a	n/a	6	n/a	n/a	n/a	n/a
989.552	n/a	REC_START	494776	n/a	LTP283	ltpFR2	16	4	n/a	n/a	n/a	n/a	0	0	0
992.796	n/a	REC_WORD	496398	wordpools/wasnorm_wordpool_576.txt	LTP283	ltpFR2	16	4	GRIZZLY	662	n/a	n/a	0	0	0
993.422	n/a	REC_WORD	496711	wordpools/wasnorm_wordpool_576.txt	LTP283	ltpFR2	16	4	FRAGRANCE	599	n/a	n/a	0	0	0
994.422	n/a	REC_WORD_VV	497211	wordpools/wasnorm_wordpool_576.txt	LTP283	ltpFR2	16	4	<>	-1	n/a	n/a	0	0	0
994.89	n/a	REC_WORD	497445	wordpools/wasnorm_wordpool_576.txt	LTP283	ltpFR2	16	4	PERFUME	1049	n/a	n/a	0	0	0
997.556	n/a	REC_WORD	498778	wordpools/wasnorm_wordpool_576.txt	LTP283	ltpFR2	16	4	MARS	873	n/a	n/a	0	0	0
998.152	n/a	REC_WORD	499076	wordpools/wasnorm_wordpool_576.txt	LTP283	ltpFR2	16	4	QUEEN	1149	n/a	n/a	0	0	0
999.46	n/a	REC_WORD	499730	wordpools/wasnorm_wordpool_576.txt	LTP283	ltpFR2	16	4	WORLD	1622	n/a	n/a	0	0	0
1001.202	n/a	REC_WORD	500601	wordpools/wasnorm_wordpool_576.txt	LTP283	ltpFR2	16	4	CARROT	249	n/a	n/a	0	0	0
1001.792	n/a	REC_WORD	500896	wordpools/wasnorm_wordpool_576.txt	LTP283	ltpFR2	16	4	ORANGE	980	n/a	n/a	0	0	0
1080.516	n/a	DISTRACTOR	540258	n/a	LTP283	ltpFR2	16	5	n/a	n/a	n/a	n/a	0	0	0
1080.516	n/a	START	540258	n/a	LTP283	ltpFR2	16	n/a	n/a	n/a	7	n/a	n/a	n/a	n/a
1080.582	n/a	PROB	540291	n/a	LTP283	ltpFR2	16	n/a	n/a	n/a	7	14	2	9	3
1082.316	n/a	PROB	541158	n/a	LTP283	ltpFR2	16	n/a	n/a	n/a	7	14	5	6	3
1084.502	n/a	PROB	542251	n/a	LTP283	ltpFR2	16	n/a	n/a	n/a	7	6	1	4	1
1085.808	n/a	PROB	542904	n/a	LTP283	ltpFR2	16	n/a	n/a	n/a	7	24	9	9	6
1087.622	n/a	PROB	543811	n/a	LTP283	ltpFR2	16	n/a	n/a	n/a	7	12	3	8	1
1089.004	n/a	PROB	544502	n/a	LTP283	ltpFR2	16	n/a	n/a	n/a	7	25	9	7	9
1091.19	n/a	PROB	545595	n/a	LTP283	ltpFR2	16	n/a	n/a	n/a	7	18	9	3	6
1093.124	n/a	PROB	546562	n/a	LTP283	ltpFR2	16	n/a	n/a	n/a	7	11	4	2	5
1095.36	n/a	PROB	547680	n/a	LTP283	ltpFR2	16	n/a	n/a	n/a	7	16	6	2	8
1096.978	n/a	PROB	548489	n/a	LTP283	ltpFR2	16	n/a	n/a	n/a	7	18	8	4	6
1098.428	n/a	PROB	549214	n/a	LTP283	ltpFR2	16	n/a	n/a	n/a	7	20	3	8	9
1099.83	n/a	PROB	549915	n/a	LTP283	ltpFR2	16	n/a	n/a	n/a	7	11	7	1	3
1101.098	n/a	PROB	550549	n/a	LTP283	ltpFR2	16	n/a	n/a	n/a	7	13	7	4	2
1102.85	n/a	PROB	551425	n/a	LTP283	ltpFR2	16	n/a	n/a	n/a	7	16	2	8	6
1104.148	n/a	STOP	552074	n/a	LTP283	ltpFR2	16	n/a	n/a	n/a	7	n/a	n/a	n/a	n/a
1105.518	n/a	WORD	552759	wordpools/wasnorm_wordpool_576.txt	LTP283	ltpFR2	16	5	PUDDING	1139	n/a	n/a	0	0	0
1108.254	n/a	WORD	554127	wordpools/wasnorm_wordpool_576.txt	LTP283	ltpFR2	16	5	COFFEE	341	n/a	n/a	0	0	0
1111.072	n/a	WORD	555536	wordpools/wasnorm_wordpool_576.txt	LTP283	ltpFR2	16	5	TRANSPLANT	1496	n/a	n/a	0	0	0
1113.774	n/a	WORD	556887	wordpools/wasnorm_wordpool_576.txt	LTP283	ltpFR2	16	5	CHAPEL	280	n/a	n/a	0	0	0
1116.468	n/a	WORD	558234	wordpools/wasnorm_wordpool_576.txt	LTP283	ltpFR2	16	5	BISON	131	n/a	n/a	0	0	0
1119.096	n/a	WORD	559548	wordpools/wasnorm_wordpool_576.txt	LTP283	ltpFR2	16	5	MOP	916	n/a	n/a	0	0	0
1121.786	n/a	WORD	560893	wordpools/wasnorm_wordpool_576.txt	LTP283	ltpFR2	16	5	KNIFE	785	n/a	n/a	0	0	0
1124.348	n/a	WORD	562174	wordpools/wasnorm_wordpool_576.txt	LTP283	ltpFR2	16	5	SCALPEL	1243	n/a	n/a	0	0	0
1126.834	n/a	WORD	563417	wordpools/wasnorm_wordpool_576.txt	LTP283	ltpFR2	16	5	TURTLE	1522	n/a	n/a	0	0	0
1129.51	n/a	WORD	564755	wordpools/wasnorm_wordpool_576.txt	LTP283	ltpFR2	16	5	SLUG	1329	n/a	n/a	0	0	0
1132.238	n/a	WORD	566119	wordpools/wasnorm_wordpool_576.txt	LTP283	ltpFR2	16	5	SWORD	1423	n/a	n/a	0	0	0
1134.93	n/a	WORD	567465	wordpools/wasnorm_wordpool_576.txt	LTP283	ltpFR2	16	5	CHEMIST	292	n/a	n/a	0	0	0
1137.808	n/a	WORD	568904	wordpools/wasnorm_wordpool_576.txt	LTP283	ltpFR2	16	5	BALLOON	75	n/a	n/a	0	0	0
1140.68	n/a	WORD	570340	wordpools/wasnorm_wordpool_576.txt	LTP283	ltpFR2	16	5	TILE	1468	n/a	n/a	0	0	0
1143.314	n/a	WORD	571657	wordpools/wasnorm_wordpool_576.txt	LTP283	ltpFR2	16	5	LONDON	843	n/a	n/a	0	0	0
1146.116	n/a	WORD	573058	wordpools/wasnorm_wordpool_576.txt	LTP283	ltpFR2	16	5	DRILL	497	n/a	n/a	0	0	0
1148.618	n/a	WORD	574309	wordpools/wasnorm_wordpool_576.txt	LTP283	ltpFR2	16	5	PICTURE	1061	n/a	n/a	0	0	0
1151.312	n/a	WORD	575656	wordpools/wasnorm_wordpool_576.txt	LTP283	ltpFR2	16	5	PARSLEY	1016	n/a	n/a	0	0	0
1153.922	n/a	WORD	576961	wordpools/wasnorm_wordpool_576.txt	LTP283	ltpFR2	16	5	SHRUB	1299	n/a	n/a	0	0	0
1156.658	n/a	WORD	578329	wordpools/wasnorm_wordpool_576.txt	LTP283	ltpFR2	16	5	SPOOL	1356	n/a	n/a	0	0	0
1159.394	n/a	WORD	579697	wordpools/wasnorm_wordpool_576.txt	LTP283	ltpFR2	16	5	PALACE	1006	n/a	n/a	0	0	0
1162.212	n/a	WORD	581106	wordpools/wasnorm_wordpool_576.txt	LTP283	ltpFR2	16	5	PRINCE	1124	n/a	n/a	0	0	0
1164.998	n/a	WORD	582499	wordpools/wasnorm_wordpool_576.txt	LTP283	ltpFR2	16	5	PROTON	1132	n/a	n/a	0	0	0
1167.634	n/a	WORD	583817	wordpools/wasnorm_wordpool_576.txt	LTP283	ltpFR2	16	5	ZIPPER	1636	n/a	n/a	0	0	0
1169.268	n/a	START	584634	n/a	LTP283	ltpFR2	16	n/a	n/a	n/a	8	n/a	n/a	n/a	n/a
1170.374	n/a	DISTRACTOR	585187	n/a	LTP283	ltpFR2	16	5	n/a	n/a	n/a	n/a	0	0	0
1170.418	n/a	PROB	585209	n/a	LTP283	ltpFR2	16	n/a	n/a	n/a	8	15	5	7	3
1172.37	n/a	PROB	586185	n/a	LTP283	ltpFR2	16	n/a	n/a	n/a	8	9	3	4	2
1174.522	n/a	PROB	587261	n/a	LTP283	ltpFR2	16	n/a	n/a	n/a	8	14	5	2	7
1176.39	n/a	PROB	588195	n/a	LTP283	ltpFR2	16	n/a	n/a	n/a	8	13	1	7	5
1178.584	n/a	PROB	589292	n/a	LTP283	ltpFR2	16	n/a	n/a	n/a	8	18	8	2	8
1179.992	n/a	PROB	589996	n/a	LTP283	ltpFR2	16	n/a	n/a	n/a	8	7	5	1	1
1181.278	n/a	PROB	590639	n/a	LTP283	ltpFR2	16	n/a	n/a	n/a	8	13	8	4	1
1182.928	n/a	PROB	591464	n/a	LTP283	ltpFR2	16	n/a	n/a	n/a	8	16	7	5	4
1184.964	n/a	PROB	592482	n/a	LTP283	ltpFR2	16	n/a	n/a	n/a	8	12	5	5	2
1186.348	n/a	PROB	593174	n/a	LTP283	ltpFR2	16	n/a	n/a	n/a	8	16	5	4	7
1189.25	n/a	PROB	594625	n/a	LTP283	ltpFR2	16	n/a	n/a	n/a	8	16	6	1	9
1192.758	n/a	STOP	596379	n/a	LTP283	ltpFR2	16	n/a	n/a	n/a	8	n/a	n/a	n/a	n/a
1195.33	n/a	REC_START	597665	n/a	LTP283	ltpFR2	16	5	n/a	n/a	n/a	n/a	0	0	0
1199.618	n/a	REC_WORD	599809	wordpools/wasnorm_wordpool_576.txt	LTP283	ltpFR2	16	5	BALLOON	75	n/a	n/a	0	0	0
1200.728	n/a	REC_WORD	600364	wordpools/wasnorm_wordpool_576.txt	LTP283	ltpFR2	16	5	TILE	1468	n/a	n/a	0	0	0
1286.244	n/a	DISTRACTOR	643122	n/a	LTP283	ltpFR2	16	6	n/a	n/a	n/a	n/a	0	0	0
1286.244	n/a	START	643122	n/a	LTP283	ltpFR2	16	n/a	n/a	n/a	9	n/a	n/a	n/a	n/a
1286.31	n/a	PROB	643155	n/a	LTP283	ltpFR2	16	n/a	n/a	n/a	9	1	2	6	8
1287.902	n/a	PROB	643951	n/a	LTP283	ltpFR2	16	n/a	n/a	n/a	9	15	5	6	4
1290.388	n/a	PROB	645194	n/a	LTP283	ltpFR2	16	n/a	n/a	n/a	9	9	4	1	4
1291.9	n/a	PROB	645950	n/a	LTP283	ltpFR2	16	n/a	n/a	n/a	9	11	5	2	4
1293.866	n/a	PROB	646933	n/a	LTP283	ltpFR2	16	n/a	n/a	n/a	9	14	7	6	1
1295.458	n/a	PROB	647729	n/a	LTP283	ltpFR2	16	n/a	n/a	n/a	9	14	8	2	4
1297.336	n/a	PROB	648668	n/a	LTP283	ltpFR2	16	n/a	n/a	n/a	9	13	7	1	5
1299.094	n/a	PROB	649547	n/a	LTP283	ltpFR2	16	n/a	n/a	n/a	9	6	2	1	3
1300.44	n/a	PROB	650220	n/a	LTP283	ltpFR2	16	n/a	n/a	n/a	9	7	2	2	3
1303.224	n/a	PROB	651612	n/a	LTP283	ltpFR2	16	n/a	n/a	n/a	9	13	8	3	2
1304.842	n/a	PROB	652421	n/a	LTP283	ltpFR2	16	n/a	n/a	n/a	9	9	1	2	6
1306.478	n/a	PROB	653239	n/a	LTP283	ltpFR2	16	n/a	n/a	n/a	9	16	1	6	9
1308.094	n/a	PROB	654047	n/a	LTP283	ltpFR2	16	n/a	n/a	n/a	9	5	2	1	3
1309.546	n/a	STOP	654773	n/a	LTP283	ltpFR2	16	n/a	n/a	n/a	9	n/a	n/a	n/a	n/a
1311.414	n/a	WORD	655707	wordpools/wasnorm_wordpool_576.txt	LTP283	ltpFR2	16	6	FOX	598	n/a	n/a	0	0	0
1313.982	n/a	WORD	656991	wordpools/wasnorm_wordpool_576.txt	LTP283	ltpFR2	16	6	TOASTER	1472	n/a	n/a	0	0	0
1316.834	n/a	WORD	658417	wordpools/wasnorm_wordpool_576.txt	LTP283	ltpFR2	16	6	SILK	1307	n/a	n/a	0	0	0
1319.538	n/a	WORD	659769	wordpools/wasnorm_wordpool_576.txt	LTP283	ltpFR2	16	6	CROSS	413	n/a	n/a	0	0	0
1322.23	n/a	WORD	661115	wordpools/wasnorm_wordpool_576.txt	LTP283	ltpFR2	16	6	GRAVEL	659	n/a	n/a	0	0	0
1324.942	n/a	WORD	662471	wordpools/wasnorm_wordpool_576.txt	LTP283	ltpFR2	16	6	VELVET	1555	n/a	n/a	0	0	0
1327.662	n/a	WORD	663831	wordpools/wasnorm_wordpool_576.txt	LTP283	ltpFR2	16	6	BATHTUB	100	n/a	n/a	0	0	0
1330.464	n/a	WORD	665232	wordpools/wasnorm_wordpool_576.txt	LTP283	ltpFR2	16	6	FRUIT	610	n/a	n/a	0	0	0
1333.08	n/a	WORD	666540	wordpools/wasnorm_wordpool_576.txt	LTP283	ltpFR2	16	6	APPLE	33	n/a	n/a	0	0	0
1335.866	n/a	WORD	667933	wordpools/wasnorm_wordpool_576.txt	LTP283	ltpFR2	16	6	SKETCH	1315	n/a	n/a	0	0	0
1338.67	n/a	WORD	669335	wordpools/wasnorm_wordpool_576.txt	LTP283	ltpFR2	16	6	HOOD	714	n/a	n/a	0	0	0
1341.504	n/a	WORD	670752	wordpools/wasnorm_wordpool_576.txt	LTP283	ltpFR2	16	6	COIN	343	n/a	n/a	0	0	0
1344.18	n/a	WORD	672090	wordpools/wasnorm_wordpool_576.txt	LTP283	ltpFR2	16	6	FLESH	579	n/a	n/a	0	0	0
1346.724	n/a	WORD	673362	wordpools/wasnorm_wordpool_576.txt	LTP283	ltpFR2	16	6	BOARD	143	n/a	n/a	0	0	0
1349.544	n/a	WORD	674772	wordpools/wasnorm_wordpool_576.txt	LTP283	ltpFR2	16	6	RACKET	1155	n/a	n/a	0	0	0
1352.362	n/a	WORD	676181	wordpools/wasnorm_wordpool_576.txt	LTP283	ltpFR2	16	6	SOFTBALL	1343	n/a	n/a	0	0	0
1355.054	n/a	WORD	677527	wordpools/wasnorm_wordpool_576.txt	LTP283	ltpFR2	16	6	FRECKLE	602	n/a	n/a	0	0	0
1357.9	n/a	WORD	678950	wordpools/wasnorm_wordpool_576.txt	LTP283	ltpFR2	16	6	POWDER	1117	n/a	n/a	0	0	0
1360.504	n/a	WORD	680252	wordpools/wasnorm_wordpool_576.txt	LTP283	ltpFR2	16	6	DIME	466	n/a	n/a	0	0	0
1363.104	n/a	WORD	681552	wordpools/wasnorm_wordpool_576.txt	LTP283	ltpFR2	16	6	JURY	766	n/a	n/a	0	0	0
1365.74	n/a	WORD	682870	wordpools/wasnorm_wordpool_576.txt	LTP283	ltpFR2	16	6	VALVE	1546	n/a	n/a	0	0	0
1368.242	n/a	WORD	684121	wordpools/wasnorm_wordpool_576.txt	LTP283	ltpFR2	16	6	OINTMENT	974	n/a	n/a	0	0	0
1371.012	n/a	WORD	685506	wordpools/wasnorm_wordpool_576.txt	LTP283	ltpFR2	16	6	COURSE	390	n/a	n/a	0	0	0
1373.714	n/a	WORD	686857	wordpools/wasnorm_wordpool_576.txt	LTP283	ltpFR2	16	6	GREASE	660	n/a	n/a	0	0	0
1375.348	n/a	START	687674	n/a	LTP283	ltpFR2	16	n/a	n/a	n/a	10	n/a	n/a	n/a	n/a
1376.468	n/a	DISTRACTOR	688234	n/a	LTP283	ltpFR2	16	6	n/a	n/a	n/a	n/a	0	0	0
1376.516	n/a	PROB	688258	n/a	LTP283	ltpFR2	16	n/a	n/a	n/a	10	19	5	7	7
1379.0	n/a	PROB	689500	n/a	LTP283	ltpFR2	16	n/a	n/a	n/a	10	16	5	5	6
1380.368	n/a	PROB	690184	n/a	LTP283	ltpFR2	16	n/a	n/a	n/a	10	11	4	6	1
1381.686	n/a	PROB	690843	n/a	LTP283	ltpFR2	16	n/a	n/a	n/a	10	17	9	1	7
1383.278	n/a	PROB	691639	n/a	LTP283	ltpFR2	16	n/a	n/a	n/a	10	18	3	9	6
1385.256	n/a	PROB	692628	n/a	LTP283	ltpFR2	16	n/a	n/a	n/a	10	18	9	5	4
1386.94	n/a	PROB	693470	n/a	LTP283	ltpFR2	16	n/a	n/a	n/a	10	1	6	1	5
1388.224	n/a	PROB	694112	n/a	LTP283	ltpFR2	16	n/a	n/a	n/a	10	13	2	2	9
1390.16	n/a	PROB	695080	n/a	LTP283	ltpFR2	16	n/a	n/a	n/a	10	9	2	3	4
1392.978	n/a	PROB	696489	n/a	LTP283	ltpFR2	16	n/a	n/a	n/a	10	16	4	8	4
1394.828	n/a	PROB	697414	n/a	LTP283	ltpFR2	16	n/a	n/a	n/a	10	12	3	1	8
1399.348	n/a	STOP	699674	n/a	LTP283	ltpFR2	16	n/a	n/a	n/a	10	n/a	n/a	n/a	n/a
1401.31	n/a	REC_START	700655	n/a	LTP283	ltpFR2	16	6	n/a	n/a	n/a	n/a	0	0	0
1429.58	n/a	REC_WORD	714790	wordpools/wasnorm_wordpool_576.txt	LTP283	ltpFR2	16	6	FRUIT	610	n/a	n/a	0	0	0
1430.642	n/a	REC_WORD	715321	wordpools/wasnorm_wordpool_576.txt	LTP283	ltpFR2	16	6	APPLE	33	n/a	n/a	0	0	0
1456.656	n/a	REC_WORD	728328	wordpools/wasnorm_wordpool_576.txt	LTP283	ltpFR2	16	6	BATHTUB	100	n/a	n/a	0	0	0
1492.306	n/a	WORD	746153	wordpools/wasnorm_wordpool_576.txt	LTP283	ltpFR2	16	7	DENTIST	447	n/a	n/a	0	0	0
1495.124	n/a	WORD	747562	wordpools/wasnorm_wordpool_576.txt	LTP283	ltpFR2	16	7	LADDER	793	n/a	n/a	0	0	0
1497.878	n/a	WORD	748939	wordpools/wasnorm_wordpool_576.txt	LTP283	ltpFR2	16	7	VALLEY	1545	n/a	n/a	0	0	0
1500.746	n/a	WORD	750373	wordpools/wasnorm_wordpool_576.txt	LTP283	ltpFR2	16	7	THIEF	1456	n/a	n/a	0	0	0
1503.532	n/a	WORD	751766	wordpools/wasnorm_wordpool_576.txt	LTP283	ltpFR2	16	7	DAUGHTER	442	n/a	n/a	0	0	0
1506.018	n/a	WORD	753009	wordpools/wasnorm_wordpool_576.txt	LTP283	ltpFR2	16	7	GARLIC	624	n/a	n/a	0	0	0
1508.52	n/a	WORD	754260	wordpools/wasnorm_wordpool_576.txt	LTP283	ltpFR2	16	7	LUNCH	849	n/a	n/a	0	0	0
1511.056	n/a	WORD	755528	wordpools/wasnorm_wordpool_576.txt	LTP283	ltpFR2	16	7	SLIME	1327	n/a	n/a	0	0	0
1513.84	n/a	WORD	756920	wordpools/wasnorm_wordpool_576.txt	LTP283	ltpFR2	16	7	CRIB	407	n/a	n/a	0	0	0
1516.342	n/a	WORD	758171	wordpools/wasnorm_wordpool_576.txt	LTP283	ltpFR2	16	7	RATTLE	1170	n/a	n/a	0	0	0
1519.018	n/a	WORD	759509	wordpools/wasnorm_wordpool_576.txt	LTP283	ltpFR2	16	7	STICKER	1382	n/a	n/a	0	0	0
1521.764	n/a	WORD	760882	wordpools/wasnorm_wordpool_576.txt	LTP283	ltpFR2	16	7	SUPPER	1411	n/a	n/a	0	0	0
1524.248	n/a	WORD	762124	wordpools/wasnorm_wordpool_576.txt	LTP283	ltpFR2	16	7	NURSE	963	n/a	n/a	0	0	0
1527.084	n/a	WORD	763542	wordpools/wasnorm_wordpool_576.txt	LTP283	ltpFR2	16	7	GIFT	635	n/a	n/a	0	0	0
1529.67	n/a	WORD	764835	wordpools/wasnorm_wordpool_576.txt	LTP283	ltpFR2	16	7	COOK	372	n/a	n/a	0	0	0
1532.188	n/a	WORD	766094	wordpools/wasnorm_wordpool_576.txt	LTP283	ltpFR2	16	7	KETCHUP	771	n/a	n/a	0	0	0
1535.024	n/a	WORD	767512	wordpools/wasnorm_wordpool_576.txt	LTP283	ltpFR2	16	7	TRIBE	1505	n/a	n/a	0	0	0
1537.728	n/a	WORD	768864	wordpools/wasnorm_wordpool_576.txt	LTP283	ltpFR2	16	7	PLASTER	1085	n/a	n/a	0	0	0
1540.562	n/a	WORD	770281	wordpools/wasnorm_wordpool_576.txt	LTP283	ltpFR2	16	7	PILOT	1070	n/a	n/a	0	0	0
1543.33	n/a	WORD	771665	wordpools/wasnorm_wordpool_576.txt	LTP283	ltpFR2	16	7	SWIMMER	1420	n/a	n/a	0	0	0
1545.9	n/a	WORD	772950	wordpools/wasnorm_wordpool_576.txt	LTP283	ltpFR2	16	7	STREAM	1392	n/a	n/a	0	0	0
1548.62	n/a	WORD	774310	wordpools/wasnorm_wordpool_576.txt	LTP283	ltpFR2	16	7	PATIENT	1024	n/a	n/a	0	0	0
1551.438	n/a	WORD	775719	wordpools/wasnorm_wordpool_576.txt	LTP283	ltpFR2	16	7	SKILLET	1317	n/a	n/a	0	0	0
1553.94	n/a	WORD	776970	wordpools/wasnorm_wordpool_576.txt	LTP283	ltpFR2	16	7	CLOUD	328	n/a	n/a	0	0	0
1555.576	n/a	START	777788	n/a	LTP283	ltpFR2	16	n/a	n/a	n/a	11	n/a	n/a	n/a	n/a
1556.734	n/a	DISTRACTOR	778367	n/a	LTP283	ltpFR2	16	7	n/a	n/a	n/a	n/a	0	0	0
1556.774	n/a	PROB	778387	n/a	LTP283	ltpFR2	16	n/a	n/a	n/a	11	10	4	1	5
1558.292	n/a	PROB	779146	n/a	LTP283	ltpFR2	16	n/a	n/a	n/a	11	19	8	3	8
1560.076	n/a	PROB	780038	n/a	LTP283	ltpFR2	16	n/a	n/a	n/a	11	13	1	5	7
1562.228	n/a	PROB	781114	n/a	LTP283	ltpFR2	16	n/a	n/a	n/a	11	21	4	9	8
1564.046	n/a	PROB	782023	n/a	LTP283	ltpFR2	16	n/a	n/a	n/a	11	10	2	7	1
1565.78	n/a	PROB	782890	n/a	LTP283	ltpFR2	16	n/a	n/a	n/a	11	14	2	8	4
1567.382	n/a	PROB	783691	n/a	LTP283	ltpFR2	16	n/a	n/a	n/a	11	19	7	3	9
1568.858	n/a	PROB	784429	n/a	LTP283	ltpFR2	16	n/a	n/a	n/a	11	18	9	5	4
1570.602	n/a	PROB	785301	n/a	LTP283	ltpFR2	16	n/a	n/a	n/a	11	12	3	7	2
1572.368	n/a	PROB	786184	n/a	LTP283	ltpFR2	16	n/a	n/a	n/a	11	14	1	4	9
1573.878	n/a	PROB	786939	n/a	LTP283	ltpFR2	16	n/a	n/a	n/a	11	14	4	4	6
1575.44	n/a	PROB	787720	n/a	LTP283	ltpFR2	16	n/a	n/a	n/a	11	20	9	9	2
1576.914	n/a	PROB	788457	n/a	LTP283	ltpFR2	16	n/a	n/a	n/a	11	12	7	4	1
1578.24	n/a	STOP	789120	n/a	LTP283	ltpFR2	16	n/a	n/a	n/a	11	n/a	n/a	n/a	n/a
1581.636	n/a	REC_START	790818	n/a	LTP283	ltpFR2	16	7	n/a	n/a	n/a	n/a	0	0	0
1584.442	n/a	REC_WORD	792221	wordpools/wasnorm_wordpool_576.txt	LTP283	ltpFR2	16	7	NURSE	963	n/a	n/a	0	0	0
1585.264	n/a	REC_WORD	792632	wordpools/wasnorm_wordpool_576.txt	LTP283	ltpFR2	16	7	PATIENT	1024	n/a	n/a	0	0	0
1643.212	n/a	REC_WORD	821606	wordpools/wasnorm_wordpool_576.txt	LTP283	ltpFR2	16	7	SWIMMER	1420	n/a	n/a	0	0	0
1644.002	n/a	REC_WORD	822001	wordpools/wasnorm_wordpool_576.txt	LTP283	ltpFR2	16	7	STREAM	1392	n/a	n/a	0	0	0
1672.634	n/a	WORD	836317	wordpools/wasnorm_wordpool_576.txt	LTP283	ltpFR2	16	8	INFANT	737	n/a	n/a	0	0	0
1675.384	n/a	WORD	837692	wordpools/wasnorm_wordpool_576.txt	LTP283	ltpFR2	16	8	LUGGAGE	847	n/a	n/a	0	0	0
1678.078	n/a	WORD	839039	wordpools/wasnorm_wordpool_576.txt	LTP283	ltpFR2	16	8	KNAPSACK	783	n/a	n/a	0	0	0
1680.872	n/a	WORD	840436	wordpools/wasnorm_wordpool_576.txt	LTP283	ltpFR2	16	8	BUNNY	198	n/a	n/a	0	0	0
1683.508	n/a	WORD	841754	wordpools/wasnorm_wordpool_576.txt	LTP283	ltpFR2	16	8	TORTOISE	1486	n/a	n/a	0	0	0
1686.36	n/a	WORD	843180	wordpools/wasnorm_wordpool_576.txt	LTP283	ltpFR2	16	8	GANGSTER	620	n/a	n/a	0	0	0
1689.178	n/a	WORD	844589	wordpools/wasnorm_wordpool_576.txt	LTP283	ltpFR2	16	8	SISTER	1312	n/a	n/a	0	0	0
1691.854	n/a	WORD	845927	wordpools/wasnorm_wordpool_576.txt	LTP283	ltpFR2	16	8	AGENT	10	n/a	n/a	0	0	0
1694.584	n/a	WORD	847292	wordpools/wasnorm_wordpool_576.txt	LTP283	ltpFR2	16	8	PLAYGROUND	1087	n/a	n/a	0	0	0
1697.278	n/a	WORD	848639	wordpools/wasnorm_wordpool_576.txt	LTP283	ltpFR2	16	8	ROBOT	1200	n/a	n/a	0	0	0
1699.988	n/a	WORD	849994	wordpools/wasnorm_wordpool_576.txt	LTP283	ltpFR2	16	8	COLLEGE	346	n/a	n/a	0	0	0
1702.474	n/a	WORD	851237	wordpools/wasnorm_wordpool_576.txt	LTP283	ltpFR2	16	8	SCOTCH	1251	n/a	n/a	0	0	0
1705.258	n/a	WORD	852629	wordpools/wasnorm_wordpool_576.txt	LTP283	ltpFR2	16	8	MUSTARD	935	n/a	n/a	0	0	0
1707.878	n/a	WORD	853939	wordpools/wasnorm_wordpool_576.txt	LTP283	ltpFR2	16	8	EMPIRE	530	n/a	n/a	0	0	0
1710.696	n/a	WORD	855348	wordpools/wasnorm_wordpool_576.txt	LTP283	ltpFR2	16	8	BEEF	113	n/a	n/a	0	0	0
1713.432	n/a	WORD	856716	wordpools/wasnorm_wordpool_576.txt	LTP283	ltpFR2	16	8	PANTHER	1009	n/a	n/a	0	0	0
1716.018	n/a	WORD	858009	wordpools/wasnorm_wordpool_576.txt	LTP283	ltpFR2	16	8	QUARTER	1148	n/a	n/a	0	0	0
1718.836	n/a	WORD	859418	wordpools/wasnorm_wordpool_576.txt	LTP283	ltpFR2	16	8	BANK	83	n/a	n/a	0	0	0
1721.54	n/a	WORD	860770	wordpools/wasnorm_wordpool_576.txt	LTP283	ltpFR2	16	8	COCKTAIL	338	n/a	n/a	0	0	0
1724.056	n/a	WORD	862028	wordpools/wasnorm_wordpool_576.txt	LTP283	ltpFR2	16	8	FOREST	593	n/a	n/a	0	0	0
1726.66	n/a	WORD	863330	wordpools/wasnorm_wordpool_576.txt	LTP283	ltpFR2	16	8	BUGGY	188	n/a	n/a	0	0	0
1729.428	n/a	WORD	864714	wordpools/wasnorm_wordpool_576.txt	LTP283	ltpFR2	16	8	BACKBONE	66	n/a	n/a	0	0	0
1731.946	n/a	WORD	865973	wordpools/wasnorm_wordpool_576.txt	LTP283	ltpFR2	16	8	LIVER	833	n/a	n/a	0	0	0
1734.816	n/a	WORD	867408	wordpools/wasnorm_wordpool_576.txt	LTP283	ltpFR2	16	8	TERMITE	1451	n/a	n/a	0	0	0
1736.452	n/a	START	868226	n/a	LTP283	ltpFR2	16	n/a	n/a	n/a	12	n/a	n/a	n/a	n/a
1737.576	n/a	DISTRACTOR	868788	n/a	LTP283	ltpFR2	16	8	n/a	n/a	n/a	n/a	0	0	0
1737.618	n/a	PROB	868809	n/a	LTP283	ltpFR2	16	n/a	n/a	n/a	12	17	2	9	6
1741.154	n/a	PROB	870577	n/a	LTP283	ltpFR2	16	n/a	n/a	n/a	12	22	7	7	8
1744.298	n/a	PROB	872149	n/a	LTP283	ltpFR2	16	n/a	n/a	n/a	12	20	7	9	4
1745.824	n/a	PROB	872912	n/a	LTP283	ltpFR2	16	n/a	n/a	n/a	12	12	4	3	5
1747.866	n/a	PROB	873933	n/a	LTP283	ltpFR2	16	n/a	n/a	n/a	12	18	4	8	6
1749.578	n/a	PROB	874789	n/a	LTP283	ltpFR2	16	n/a	n/a	n/a	12	13	3	6	4
1751.362	n/a	PROB	875681	n/a	LTP283	ltpFR2	16	n/a	n/a	n/a	12	17	3	5	9
1753.396	n/a	PROB	876698	n/a	LTP283	ltpFR2	16	n/a	n/a	n/a	12	14	4	1	9
1755.024	n/a	PROB	877512	n/a	LTP283	ltpFR2	16	n/a	n/a	n/a	12	18	9	8	1
1756.674	n/a	PROB	878337	n/a	LTP283	ltpFR2	16	n/a	n/a	n/a	12	13	2	7	4
1758.818	n/a	PROB	879409	n/a	LTP283	ltpFR2	16	n/a	n/a	n/a	12	18	3	7	8
1760.294	n/a	STOP	880147	n/a	LTP283	ltpFR2	16	n/a	n/a	n/a	12	n/a	n/a	n/a	n/a
1762.598	n/a	REC_START	881299	n/a	LTP283	ltpFR2	16	8	n/a	n/a	n/a	n/a	0	0	0
1770.09	n/a	REC_WORD	885045	wordpools/wasnorm_wordpool_576.txt	LTP283	ltpFR2	16	8	INFANT	737	n/a	n/a	0	0	0
1772.656	n/a	REC_WORD	886328	wordpools/wasnorm_wordpool_576.txt	LTP283	ltpFR2	16	8	GANGSTER	620	n/a	n/a	0	0	0
1773.336	n/a	REC_WORD	886668	wordpools/wasnorm_wordpool_576.txt	LTP283	ltpFR2	16	8	SISTER	1312	n/a	n/a	0	0	0
1774.944	n/a	REC_WORD	887472	wordpools/wasnorm_wordpool_576.txt	LTP283	ltpFR2	16	8	MUSTARD	935	n/a	n/a	0	0	0
1775.61	n/a	REC_WORD	887805	wordpools/wasnorm_wordpool_576.txt	LTP283	ltpFR2	16	8	ROBOT	1200	n/a	n/a	0	0	0
1777.988	n/a	REC_WORD	888994	wordpools/wasnorm_wordpool_576.txt	LTP283	ltpFR2	16	8	SCOTCH	1251	n/a	n/a	0	0	0
1778.91	n/a	REC_WORD	889455	wordpools/wasnorm_wordpool_576.txt	LTP283	ltpFR2	16	8	COLLEGE	346	n/a	n/a	0	0	0
1839.206	n/a	REST_REWET	919603	n/a	LTP283	ltpFR2	16	8	n/a	n/a	n/a	n/a	0	0	0
2184.438	n/a	WORD	1092219	wordpools/wasnorm_wordpool_576.txt	LTP283	ltpFR2	16	9	MAMMAL	861	n/a	n/a	0	0	0
2187.024	n/a	WORD	1093512	wordpools/wasnorm_wordpool_576.txt	LTP283	ltpFR2	16	9	BRIEFCASE	175	n/a	n/a	0	0	0
2189.66	n/a	WORD	1094830	wordpools/wasnorm_wordpool_576.txt	LTP283	ltpFR2	16	9	REPORT	1184	n/a	n/a	0	0	0
2192.528	n/a	WORD	1096264	wordpools/wasnorm_wordpool_576.txt	LTP283	ltpFR2	16	9	SODA	1341	n/a	n/a	0	0	0
2195.062	n/a	WORD	1097531	wordpools/wasnorm_wordpool_576.txt	LTP283	ltpFR2	16	9	HUSBAND	728	n/a	n/a	0	0	0
2197.882	n/a	WORD	1098941	wordpools/wasnorm_wordpool_576.txt	LTP283	ltpFR2	16	9	TUBA	1515	n/a	n/a	0	0	0
2200.584	n/a	WORD	1100292	wordpools/wasnorm_wordpool_576.txt	LTP283	ltpFR2	16	9	DRIVER	499	n/a	n/a	0	0	0
2203.12	n/a	WORD	1101560	wordpools/wasnorm_wordpool_576.txt	LTP283	ltpFR2	16	9	TAXI	1438	n/a	n/a	0	0	0
2205.922	n/a	WORD	1102961	wordpools/wasnorm_wordpool_576.txt	LTP283	ltpFR2	16	9	CASHEW	253	n/a	n/a	0	0	0
2208.458	n/a	WORD	1104229	wordpools/wasnorm_wordpool_576.txt	LTP283	ltpFR2	16	9	LION	827	n/a	n/a	0	0	0
2210.958	n/a	WORD	1105479	wordpools/wasnorm_wordpool_576.txt	LTP283	ltpFR2	16	9	GUITAR	670	n/a	n/a	0	0	0
2213.544	n/a	WORD	1106772	wordpools/wasnorm_wordpool_576.txt	LTP283	ltpFR2	16	9	OMELET	976	n/a	n/a	0	0	0
2216.062	n/a	WORD	1108031	wordpools/wasnorm_wordpool_576.txt	LTP283	ltpFR2	16	9	WARDROBE	1587	n/a	n/a	0	0	0
2218.814	n/a	WORD	1109407	wordpools/wasnorm_wordpool_576.txt	LTP283	ltpFR2	16	9	WAGON	1578	n/a	n/a	0	0	0
2221.49	n/a	WORD	1110745	wordpools/wasnorm_wordpool_576.txt	LTP283	ltpFR2	16	9	LAGOON	795	n/a	n/a	0	0	0
2224.018	n/a	WORD	1112009	wordpools/wasnorm_wordpool_576.txt	LTP283	ltpFR2	16	9	SUNSET	1408	n/a	n/a	0	0	0
2226.736	n/a	WORD	1113368	wordpools/wasnorm_wordpool_576.txt	LTP283	ltpFR2	16	9	NOMAD	955	n/a	n/a	0	0	0
2229.306	n/a	WORD	1114653	wordpools/wasnorm_wordpool_576.txt	LTP283	ltpFR2	16	9	TOURIST	1488	n/a	n/a	0	0	0
2231.998	n/a	WORD	1115999	wordpools/wasnorm_wordpool_576.txt	LTP283	ltpFR2	16	9	SERVANT	1271	n/a	n/a	0	0	0
2234.69	n/a	WORD	1117345	wordpools/wasnorm_wordpool_576.txt	LTP283	ltpFR2	16	9	PIGMENT	1066	n/a	n/a	0	0	0
2237.546	n/a	WORD	1118773	wordpools/wasnorm_wordpool_576.txt	LTP283	ltpFR2	16	9	ANKLE	24	n/a	n/a	0	0	0
2240.164	n/a	WORD	1120082	wordpools/wasnorm_wordpool_576.txt	LTP283	ltpFR2	16	9	COWBOY	395	n/a	n/a	0	0	0
2242.868	n/a	WORD	1121434	wordpools/wasnorm_wordpool_576.txt	LTP283	ltpFR2	16	9	JELLY	755	n/a	n/a	0	0	0
2245.386	n/a	WORD	1122693	wordpools/wasnorm_wordpool_576.txt	LTP283	ltpFR2	16	9	DRINK	498	n/a	n/a	0	0	0
2247.02	n/a	START	1123510	n/a	LTP283	ltpFR2	16	n/a	n/a	n/a	13	n/a	n/a	n/a	n/a
2247.904	n/a	DISTRACTOR	1123952	n/a	LTP283	ltpFR2	16	9	n/a	n/a	n/a	n/a	0	0	0
2247.954	n/a	PROB	1123977	n/a	LTP283	ltpFR2	16	n/a	n/a	n/a	13	20	9	7	4
2250.424	n/a	PROB	1125212	n/a	LTP283	ltpFR2	16	n/a	n/a	n/a	13	12	4	2	6
2251.806	n/a	PROB	1125903	n/a	LTP283	ltpFR2	16	n/a	n/a	n/a	13	8	1	3	4
2253.46	n/a	PROB	1126730	n/a	LTP283	ltpFR2	16	n/a	n/a	n/a	13	8	1	5	2
2254.926	n/a	PROB	1127463	n/a	LTP283	ltpFR2	16	n/a	n/a	n/a	13	11	3	1	7
2256.094	n/a	PROB	1128047	n/a	LTP283	ltpFR2	16	n/a	n/a	n/a	13	7	3	3	1
2257.462	n/a	PROB	1128731	n/a	LTP283	ltpFR2	16	n/a	n/a	n/a	13	20	3	8	9
2258.896	n/a	PROB	1129448	n/a	LTP283	ltpFR2	16	n/a	n/a	n/a	13	20	6	5	9
2260.264	n/a	PROB	1130132	n/a	LTP283	ltpFR2	16	n/a	n/a	n/a	13	15	2	8	5
2261.782	n/a	PROB	1130891	n/a	LTP283	ltpFR2	16	n/a	n/a	n/a	13	15	5	3	7
2264.0	n/a	PROB	1132000	n/a	LTP283	ltpFR2	16	n/a	n/a	n/a	13	1	1	7	5
2271.02	n/a	STOP	1135510	n/a	LTP283	ltpFR2	16	n/a	n/a	n/a	13	n/a	n/a	n/a	n/a
2273.116	n/a	REC_START	1136558	n/a	LTP283	ltpFR2	16	9	n/a	n/a	n/a	n/a	0	0	0
2275.708	n/a	REC_WORD	1137854	wordpools/wasnorm_wordpool_576.txt	LTP283	ltpFR2	16	9	HUSBAND	728	n/a	n/a	0	0	0
2276.418	n/a	REC_WORD	1138209	wordpools/wasnorm_wordpool_576.txt	LTP283	ltpFR2	16	9	SODA	1341	n/a	n/a	0	0	0
2277.04	n/a	REC_WORD	1138520	wordpools/wasnorm_wordpool_576.txt	LTP283	ltpFR2	16	9	MAMMAL	861	n/a	n/a	0	0	0
2277.66	n/a	REC_WORD	1138830	wordpools/wasnorm_wordpool_576.txt	LTP283	ltpFR2	16	9	BRIEFCASE	175	n/a	n/a	0	0	0
2278.51	n/a	REC_WORD	1139255	wordpools/wasnorm_wordpool_576.txt	LTP283	ltpFR2	16	9	REPORT	1184	n/a	n/a	0	0	0
2282.768	n/a	REC_WORD	1141384	wordpools/wasnorm_wordpool_576.txt	LTP283	ltpFR2	16	9	TUBA	1515	n/a	n/a	0	0	0
2287.084	n/a	REC_WORD	1143542	wordpools/wasnorm_wordpool_576.txt	LTP283	ltpFR2	16	9	CASHEW	253	n/a	n/a	0	0	0
2287.67	n/a	REC_WORD	1143835	wordpools/wasnorm_wordpool_576.txt	LTP283	ltpFR2	16	9	LION	827	n/a	n/a	0	0	0
2289.304	n/a	REC_WORD	1144652	wordpools/wasnorm_wordpool_576.txt	LTP283	ltpFR2	16	9	DRIVER	499	n/a	n/a	0	0	0
2291.312	n/a	REC_WORD	1145656	wordpools/wasnorm_wordpool_576.txt	LTP283	ltpFR2	16	9	TAXI	1438	n/a	n/a	0	0	0
2297.654	n/a	REC_WORD	1148827	wordpools/wasnorm_wordpool_576.txt	LTP283	ltpFR2	16	9	WAGON	1578	n/a	n/a	0	0	0
2298.28	n/a	REC_WORD	1149140	wordpools/wasnorm_wordpool_576.txt	LTP283	ltpFR2	16	9	GUITAR	670	n/a	n/a	0	0	0
2298.892	n/a	REC_WORD	1149446	wordpools/wasnorm_wordpool_576.txt	LTP283	ltpFR2	16	9	LAGOON	795	n/a	n/a	0	0	0
2299.446	n/a	REC_WORD	1149723	wordpools/wasnorm_wordpool_576.txt	LTP283	ltpFR2	16	9	SUNSET	1408	n/a	n/a	0	0	0
2300.226	n/a	REC_WORD	1150113	wordpools/wasnorm_wordpool_576.txt	LTP283	ltpFR2	16	9	LION	827	n/a	n/a	0	0	0
2309.484	n/a	REC_WORD	1154742	wordpools/wasnorm_wordpool_576.txt	LTP283	ltpFR2	16	9	COWBOY	395	n/a	n/a	0	0	0
2310.328	n/a	REC_WORD	1155164	wordpools/wasnorm_wordpool_576.txt	LTP283	ltpFR2	16	9	JELLY	755	n/a	n/a	0	0	0
2310.768	n/a	REC_WORD	1155384	wordpools/wasnorm_wordpool_576.txt	LTP283	ltpFR2	16	9	SERVANT	1271	n/a	n/a	0	0	0
2311.446	n/a	REC_WORD	1155723	wordpools/wasnorm_wordpool_576.txt	LTP283	ltpFR2	16	9	ANKLE	24	n/a	n/a	0	0	0
2311.936	n/a	REC_WORD	1155968	wordpools/wasnorm_wordpool_576.txt	LTP283	ltpFR2	16	9	PIGMENT	1066	n/a	n/a	0	0	0
2313.21	n/a	REC_WORD	1156605	wordpools/wasnorm_wordpool_576.txt	LTP283	ltpFR2	16	9	NOMAD	955	n/a	n/a	0	0	0
2313.88	n/a	REC_WORD	1156940	wordpools/wasnorm_wordpool_576.txt	LTP283	ltpFR2	16	9	TOURIST	1488	n/a	n/a	0	0	0
2364.112	n/a	WORD	1182056	wordpools/wasnorm_wordpool_576.txt	LTP283	ltpFR2	16	10	CRATER	400	n/a	n/a	0	0	0
2366.788	n/a	WORD	1183394	wordpools/wasnorm_wordpool_576.txt	LTP283	ltpFR2	16	10	COUNTRY	388	n/a	n/a	0	0	0
2369.46	n/a	WORD	1184730	wordpools/wasnorm_wordpool_576.txt	LTP283	ltpFR2	16	10	JAPAN	749	n/a	n/a	0	0	0
2372.32	n/a	WORD	1186160	wordpools/wasnorm_wordpool_576.txt	LTP283	ltpFR2	16	10	GRILL	661	n/a	n/a	0	0	0
2374.854	n/a	WORD	1187427	wordpools/wasnorm_wordpool_576.txt	LTP283	ltpFR2	16	10	HAWK	692	n/a	n/a	0	0	0
2377.374	n/a	WORD	1188687	wordpools/wasnorm_wordpool_576.txt	LTP283	ltpFR2	16	10	PUPPY	1144	n/a	n/a	0	0	0
2380.176	n/a	WORD	1190088	wordpools/wasnorm_wordpool_576.txt	LTP283	ltpFR2	16	10	GLOVE	642	n/a	n/a	0	0	0
2383.046	n/a	WORD	1191523	wordpools/wasnorm_wordpool_576.txt	LTP283	ltpFR2	16	10	CANYON	235	n/a	n/a	0	0	0
2385.78	n/a	WORD	1192890	wordpools/wasnorm_wordpool_576.txt	LTP283	ltpFR2	16	10	SCARECROW	1245	n/a	n/a	0	0	0
2388.456	n/a	WORD	1194228	wordpools/wasnorm_wordpool_576.txt	LTP283	ltpFR2	16	10	CUSTARD	429	n/a	n/a	0	0	0
2391.234	n/a	WORD	1195617	wordpools/wasnorm_wordpool_576.txt	LTP283	ltpFR2	16	10	HIKER	708	n/a	n/a	0	0	0
2394.004	n/a	WORD	1197002	wordpools/wasnorm_wordpool_576.txt	LTP283	ltpFR2	16	10	CROWN	415	n/a	n/a	0	0	0
2396.54	n/a	WORD	1198270	wordpools/wasnorm_wordpool_576.txt	LTP283	ltpFR2	16	10	DONOR	485	n/a	n/a	0	0	0
2399.39	n/a	WORD	1199695	wordpools/wasnorm_wordpool_576.txt	LTP283	ltpFR2	16	10	STOMACH	1384	n/a	n/a	0	0	0
2401.976	n/a	WORD	1200988	wordpools/wasnorm_wordpool_576.txt	LTP283	ltpFR2	16	10	PLAID	1080	n/a	n/a	0	0	0
2404.846	n/a	WORD	1202423	wordpools/wasnorm_wordpool_576.txt	LTP283	ltpFR2	16	10	CONCERT	360	n/a	n/a	0	0	0
2407.364	n/a	WORD	1203682	wordpools/wasnorm_wordpool_576.txt	LTP283	ltpFR2	16	10	DOUGHNUT	490	n/a	n/a	0	0	0
2410.15	n/a	WORD	1205075	wordpools/wasnorm_wordpool_576.txt	LTP283	ltpFR2	16	10	HAND	683	n/a	n/a	0	0	0
2412.736	n/a	WORD	1206368	wordpools/wasnorm_wordpool_576.txt	LTP283	ltpFR2	16	10	HANDBAG	684	n/a	n/a	0	0	0
2415.22	n/a	WORD	1207610	wordpools/wasnorm_wordpool_576.txt	LTP283	ltpFR2	16	10	POCKET	1093	n/a	n/a	0	0	0
2418.006	n/a	WORD	1209003	wordpools/wasnorm_wordpool_576.txt	LTP283	ltpFR2	16	10	YARN	1631	n/a	n/a	0	0	0
2420.592	n/a	WORD	1210296	wordpools/wasnorm_wordpool_576.txt	LTP283	ltpFR2	16	10	PAPER	1011	n/a	n/a	0	0	0
2423.094	n/a	WORD	1211547	wordpools/wasnorm_wordpool_576.txt	LTP283	ltpFR2	16	10	MATTRESS	879	n/a	n/a	0	0	0
2425.796	n/a	WORD	1212898	wordpools/wasnorm_wordpool_576.txt	LTP283	ltpFR2	16	10	BLADE	134	n/a	n/a	0	0	0
2427.432	n/a	START	1213716	n/a	LTP283	ltpFR2	16	n/a	n/a	n/a	14	n/a	n/a	n/a	n/a
2428.294	n/a	DISTRACTOR	1214147	n/a	LTP283	ltpFR2	16	10	n/a	n/a	n/a	n/a	0	0	0
2428.332	n/a	PROB	1214166	n/a	LTP283	ltpFR2	16	n/a	n/a	n/a	14	10	5	1	4
2429.948	n/a	PROB	1214974	n/a	LTP283	ltpFR2	16	n/a	n/a	n/a	14	12	1	4	7
2431.4	n/a	PROB	1215700	n/a	LTP283	ltpFR2	16	n/a	n/a	n/a	14	11	1	3	7
2432.684	n/a	PROB	1216342	n/a	LTP283	ltpFR2	16	n/a	n/a	n/a	14	14	5	6	3
2434.918	n/a	PROB	1217459	n/a	LTP283	ltpFR2	16	n/a	n/a	n/a	14	10	4	4	2
2436.32	n/a	PROB	1218160	n/a	LTP283	ltpFR2	16	n/a	n/a	n/a	14	17	1	9	7
2437.786	n/a	PROB	1218893	n/a	LTP283	ltpFR2	16	n/a	n/a	n/a	14	13	5	4	4
2439.54	n/a	PROB	1219770	n/a	LTP283	ltpFR2	16	n/a	n/a	n/a	14	16	5	6	5
2441.024	n/a	PROB	1220512	n/a	LTP283	ltpFR2	16	n/a	n/a	n/a	14	12	2	8	2
2442.916	n/a	PROB	1221458	n/a	LTP283	ltpFR2	16	n/a	n/a	n/a	14	17	8	7	2
2445.21	n/a	PROB	1222605	n/a	LTP283	ltpFR2	16	n/a	n/a	n/a	14	13	5	4	4
2447.714	n/a	PROB	1223857	n/a	LTP283	ltpFR2	16	n/a	n/a	n/a	14	11	1	6	4
2449.03	n/a	PROB	1224515	n/a	LTP283	ltpFR2	16	n/a	n/a	n/a	14	17	8	6	3
2450.746	n/a	STOP	1225373	n/a	LTP283	ltpFR2	16	n/a	n/a	n/a	14	n/a	n/a	n/a	n/a
2453.444	n/a	REC_START	1226722	n/a	LTP283	ltpFR2	16	10	n/a	n/a	n/a	n/a	0	0	0
2454.904	n/a	REC_WORD	1227452	wordpools/wasnorm_wordpool_576.txt	LTP283	ltpFR2	16	10	PUPPY	1144	n/a	n/a	0	0	0
2455.578	n/a	REC_WORD	1227789	wordpools/wasnorm_wordpool_576.txt	LTP283	ltpFR2	16	10	GLOVE	642	n/a	n/a	0	0	0
2456.006	n/a	REC_WORD	1228003	wordpools/wasnorm_wordpool_576.txt	LTP283	ltpFR2	16	10	HAND	683	n/a	n/a	0	0	0
2456.61	n/a	REC_WORD	1228305	wordpools/wasnorm_wordpool_576.txt	LTP283	ltpFR2	16	10	YARN	1631	n/a	n/a	0	0	0
2460.636	n/a	REC_WORD	1230318	wordpools/wasnorm_wordpool_576.txt	LTP283	ltpFR2	16	10	CROWN	415	n/a	n/a	0	0	0
2461.178	n/a	REC_WORD	1230589	wordpools/wasnorm_wordpool_576.txt	LTP283	ltpFR2	16	10	CRATER	400	n/a	n/a	0	0	0
2461.664	n/a	REC_WORD	1230832	wordpools/wasnorm_wordpool_576.txt	LTP283	ltpFR2	16	10	COUNTRY	388	n/a	n/a	0	0	0
2462.128	n/a	REC_WORD	1231064	wordpools/wasnorm_wordpool_576.txt	LTP283	ltpFR2	16	10	JAPAN	749	n/a	n/a	0	0	0
2464.076	n/a	REC_WORD	1232038	wordpools/wasnorm_wordpool_576.txt	LTP283	ltpFR2	16	10	HAWK	692	n/a	n/a	0	0	0
2468.222	n/a	REC_WORD	1234111	wordpools/wasnorm_wordpool_576.txt	LTP283	ltpFR2	16	10	POCKET	1093	n/a	n/a	0	0	0
2468.666	n/a	REC_WORD	1234333	wordpools/wasnorm_wordpool_576.txt	LTP283	ltpFR2	16	10	HAND	683	n/a	n/a	0	0	0
2469.074	n/a	REC_WORD	1234537	wordpools/wasnorm_wordpool_576.txt	LTP283	ltpFR2	16	10	GLOVE	642	n/a	n/a	0	0	0
2469.52	n/a	REC_WORD	1234760	wordpools/wasnorm_wordpool_576.txt	LTP283	ltpFR2	16	10	HANDBAG	684	n/a	n/a	0	0	0
2473.746	n/a	REC_WORD	1236873	wordpools/wasnorm_wordpool_576.txt	LTP283	ltpFR2	16	10	DONOR	485	n/a	n/a	0	0	0
2474.56	n/a	REC_WORD	1237280	wordpools/wasnorm_wordpool_576.txt	LTP283	ltpFR2	16	10	CONCERT	360	n/a	n/a	0	0	0
2478.004	n/a	REC_WORD	1239002	wordpools/wasnorm_wordpool_576.txt	LTP283	ltpFR2	16	10	CANYON	235	n/a	n/a	0	0	0
2478.462	n/a	REC_WORD	1239231	wordpools/wasnorm_wordpool_576.txt	LTP283	ltpFR2	16	10	SCARECROW	1245	n/a	n/a	0	0	0
2479.3	n/a	REC_WORD	1239650	wordpools/wasnorm_wordpool_576.txt	LTP283	ltpFR2	16	10	CUSTARD	429	n/a	n/a	0	0	0
2509.222	n/a	REC_WORD	1254611	wordpools/wasnorm_wordpool_576.txt	LTP283	ltpFR2	16	10	HIKER	708	n/a	n/a	0	0	0
2544.372	n/a	DISTRACTOR	1272186	n/a	LTP283	ltpFR2	16	11	n/a	n/a	n/a	n/a	0	0	0
2544.372	n/a	START	1272186	n/a	LTP283	ltpFR2	16	n/a	n/a	n/a	15	n/a	n/a	n/a	n/a
2544.44	n/a	PROB	1272220	n/a	LTP283	ltpFR2	16	n/a	n/a	n/a	15	15	3	7	5
2545.906	n/a	PROB	1272953	n/a	LTP283	ltpFR2	16	n/a	n/a	n/a	15	16	6	9	1
2547.414	n/a	PROB	1273707	n/a	LTP283	ltpFR2	16	n/a	n/a	n/a	15	11	3	7	1
2548.958	n/a	PROB	1274479	n/a	LTP283	ltpFR2	16	n/a	n/a	n/a	15	17	5	6	6
2550.61	n/a	PROB	1275305	n/a	LTP283	ltpFR2	16	n/a	n/a	n/a	15	11	3	1	7
2551.868	n/a	PROB	1275934	n/a	LTP283	ltpFR2	16	n/a	n/a	n/a	15	13	3	4	6
2553.48	n/a	PROB	1276740	n/a	LTP283	ltpFR2	16	n/a	n/a	n/a	15	6	3	2	1
2554.92	n/a	PROB	1277460	n/a	LTP283	ltpFR2	16	n/a	n/a	n/a	15	8	5	1	2
2556.398	n/a	PROB	1278199	n/a	LTP283	ltpFR2	16	n/a	n/a	n/a	15	15	6	2	7
2559.1	n/a	PROB	1279550	n/a	LTP283	ltpFR2	16	n/a	n/a	n/a	15	9	6	1	2
2560.536	n/a	PROB	1280268	n/a	LTP283	ltpFR2	16	n/a	n/a	n/a	15	1	5	3	8
2563.054	n/a	PROB	1281527	n/a	LTP283	ltpFR2	16	n/a	n/a	n/a	15	13	2	8	3
2568.372	n/a	STOP	1284186	n/a	LTP283	ltpFR2	16	n/a	n/a	n/a	15	n/a	n/a	n/a	n/a
2569.392	n/a	WORD	1284696	wordpools/wasnorm_wordpool_576.txt	LTP283	ltpFR2	16	11	ULCER	1533	n/a	n/a	0	0	0
2572.194	n/a	WORD	1286097	wordpools/wasnorm_wordpool_576.txt	LTP283	ltpFR2	16	11	BELLY	119	n/a	n/a	0	0	0
2574.68	n/a	WORD	1287340	wordpools/wasnorm_wordpool_576.txt	LTP283	ltpFR2	16	11	WRIST	1626	n/a	n/a	0	0	0
2577.182	n/a	WORD	1288591	wordpools/wasnorm_wordpool_576.txt	LTP283	ltpFR2	16	11	PLATE	1086	n/a	n/a	0	0	0
2579.734	n/a	WORD	1289867	wordpools/wasnorm_wordpool_576.txt	LTP283	ltpFR2	16	11	PIGEON	1065	n/a	n/a	0	0	0
2582.586	n/a	WORD	1291293	wordpools/wasnorm_wordpool_576.txt	LTP283	ltpFR2	16	11	PASTA	1021	n/a	n/a	0	0	0
2585.07	n/a	WORD	1292535	wordpools/wasnorm_wordpool_576.txt	LTP283	ltpFR2	16	11	AWARD	63	n/a	n/a	0	0	0
2587.764	n/a	WORD	1293882	wordpools/wasnorm_wordpool_576.txt	LTP283	ltpFR2	16	11	BRACES	164	n/a	n/a	0	0	0
2590.594	n/a	WORD	1295297	wordpools/wasnorm_wordpool_576.txt	LTP283	ltpFR2	16	11	RIFLE	1192	n/a	n/a	0	0	0
2593.11	n/a	WORD	1296555	wordpools/wasnorm_wordpool_576.txt	LTP283	ltpFR2	16	11	SPOON	1357	n/a	n/a	0	0	0
2595.93	n/a	WORD	1297965	wordpools/wasnorm_wordpool_576.txt	LTP283	ltpFR2	16	11	CAFE	216	n/a	n/a	0	0	0
2598.466	n/a	WORD	1299233	wordpools/wasnorm_wordpool_576.txt	LTP283	ltpFR2	16	11	WITNESS	1618	n/a	n/a	0	0	0
2601.018	n/a	WORD	1300509	wordpools/wasnorm_wordpool_576.txt	LTP283	ltpFR2	16	11	OUTDOORS	987	n/a	n/a	0	0	0
2603.77	n/a	WORD	1301885	wordpools/wasnorm_wordpool_576.txt	LTP283	ltpFR2	16	11	BOX	159	n/a	n/a	0	0	0
2606.338	n/a	WORD	1303169	wordpools/wasnorm_wordpool_576.txt	LTP283	ltpFR2	16	11	ROBBER	1197	n/a	n/a	0	0	0
2608.956	n/a	WORD	1304478	wordpools/wasnorm_wordpool_576.txt	LTP283	ltpFR2	16	11	HORNET	718	n/a	n/a	0	0	0
2611.742	n/a	WORD	1305871	wordpools/wasnorm_wordpool_576.txt	LTP283	ltpFR2	16	11	STAMP	1370	n/a	n/a	0	0	0
2614.42	n/a	WORD	1307210	wordpools/wasnorm_wordpool_576.txt	LTP283	ltpFR2	16	11	STAKE	1368	n/a	n/a	0	0	0
2617.03	n/a	WORD	1308515	wordpools/wasnorm_wordpool_576.txt	LTP283	ltpFR2	16	11	MARINE	869	n/a	n/a	0	0	0
2619.55	n/a	WORD	1309775	wordpools/wasnorm_wordpool_576.txt	LTP283	ltpFR2	16	11	CANAL	226	n/a	n/a	0	0	0
2622.252	n/a	WORD	1311126	wordpools/wasnorm_wordpool_576.txt	LTP283	ltpFR2	16	11	CUPBOARD	425	n/a	n/a	0	0	0
2624.77	n/a	WORD	1312385	wordpools/wasnorm_wordpool_576.txt	LTP283	ltpFR2	16	11	PERMIT	1051	n/a	n/a	0	0	0
2627.372	n/a	WORD	1313686	wordpools/wasnorm_wordpool_576.txt	LTP283	ltpFR2	16	11	BUBBLE	183	n/a	n/a	0	0	0
2630.09	n/a	WORD	1315045	wordpools/wasnorm_wordpool_576.txt	LTP283	ltpFR2	16	11	FINGER	567	n/a	n/a	0	0	0
2631.728	n/a	START	1315864	n/a	LTP283	ltpFR2	16	n/a	n/a	n/a	16	n/a	n/a	n/a	n/a
2632.902	n/a	DISTRACTOR	1316451	n/a	LTP283	ltpFR2	16	11	n/a	n/a	n/a	n/a	0	0	0
2632.944	n/a	PROB	1316472	n/a	LTP283	ltpFR2	16	n/a	n/a	n/a	16	10	4	3	3
2634.828	n/a	PROB	1317414	n/a	LTP283	ltpFR2	16	n/a	n/a	n/a	16	16	9	4	3
2637.28	n/a	PROB	1318640	n/a	LTP283	ltpFR2	16	n/a	n/a	n/a	16	9	4	1	4
2638.664	n/a	PROB	1319332	n/a	LTP283	ltpFR2	16	n/a	n/a	n/a	16	25	8	9	8
2640.5	n/a	PROB	1320250	n/a	LTP283	ltpFR2	16	n/a	n/a	n/a	16	12	3	3	6
2642.45	n/a	PROB	1321225	n/a	LTP283	ltpFR2	16	n/a	n/a	n/a	16	19	4	7	8
2644.252	n/a	PROB	1322126	n/a	LTP283	ltpFR2	16	n/a	n/a	n/a	16	19	6	6	7
2647.07	n/a	PROB	1323535	n/a	LTP283	ltpFR2	16	n/a	n/a	n/a	16	14	6	7	1
2649.59	n/a	PROB	1324795	n/a	LTP283	ltpFR2	16	n/a	n/a	n/a	16	6	3	1	2
2650.856	n/a	PROB	1325428	n/a	LTP283	ltpFR2	16	n/a	n/a	n/a	16	20	8	4	8
2652.406	n/a	PROB	1326203	n/a	LTP283	ltpFR2	16	n/a	n/a	n/a	16	13	5	4	4
2654.456	n/a	STOP	1327228	n/a	LTP283	ltpFR2	16	n/a	n/a	n/a	16	n/a	n/a	n/a	n/a
2657.77	n/a	REC_START	1328885	n/a	LTP283	ltpFR2	16	11	n/a	n/a	n/a	n/a	0	0	0
2660.154	n/a	REC_WORD	1330077	wordpools/wasnorm_wordpool_576.txt	LTP283	ltpFR2	16	11	FINGER	567	n/a	n/a	0	0	0
2660.8	n/a	REC_WORD	1330400	wordpools/wasnorm_wordpool_576.txt	LTP283	ltpFR2	16	11	BUBBLE	183	n/a	n/a	0	0	0
2661.208	n/a	REC_WORD	1330604	wordpools/wasnorm_wordpool_576.txt	LTP283	ltpFR2	16	11	MARINE	869	n/a	n/a	0	0	0
2662.024	n/a	REC_WORD	1331012	wordpools/wasnorm_wordpool_576.txt	LTP283	ltpFR2	16	11	STAKE	1368	n/a	n/a	0	0	0
2663.612	n/a	REC_WORD	1331806	wordpools/wasnorm_wordpool_576.txt	LTP283	ltpFR2	16	11	CANAL	226	n/a	n/a	0	0	0
2694.754	n/a	REC_WORD	1347377	wordpools/wasnorm_wordpool_576.txt	LTP283	ltpFR2	16	11	OUTDOORS	987	n/a	n/a	0	0	0
2695.576	n/a	REC_WORD	1347788	wordpools/wasnorm_wordpool_576.txt	LTP283	ltpFR2	16	11	PERMIT	1051	n/a	n/a	0	0	0
2719.538	n/a	REC_WORD	1359769	wordpools/wasnorm_wordpool_576.txt	LTP283	ltpFR2	16	11	BOX	159	n/a	n/a	0	0	0
2722.122	n/a	REC_WORD	1361061	wordpools/wasnorm_wordpool_576.txt	LTP283	ltpFR2	16	11	ROBBER	1197	n/a	n/a	0	0	0
2723.848	n/a	REC_WORD	1361924	wordpools/wasnorm_wordpool_576.txt	LTP283	ltpFR2	16	11	HORNET	718	n/a	n/a	0	0	0
2726.096	n/a	REC_WORD	1363048	wordpools/wasnorm_wordpool_576.txt	LTP283	ltpFR2	16	11	STAMP	1370	n/a	n/a	0	0	0
2748.72	n/a	DISTRACTOR	1374360	n/a	LTP283	ltpFR2	16	12	n/a	n/a	n/a	n/a	0	0	0
2748.72	n/a	START	1374360	n/a	LTP283	ltpFR2	16	n/a	n/a	n/a	17	n/a	n/a	n/a	n/a
2748.784	n/a	PROB	1374392	n/a	LTP283	ltpFR2	16	n/a	n/a	n/a	17	18	7	3	8
2750.944	n/a	PROB	1375472	n/a	LTP283	ltpFR2	16	n/a	n/a	n/a	17	9	3	5	1
2753.506	n/a	PROB	1376753	n/a	LTP283	ltpFR2	16	n/a	n/a	n/a	17	13	9	2	2
2755.006	n/a	PROB	1377503	n/a	LTP283	ltpFR2	16	n/a	n/a	n/a	17	18	1	8	9
2756.692	n/a	PROB	1378346	n/a	LTP283	ltpFR2	16	n/a	n/a	n/a	17	10	3	1	6
2757.992	n/a	PROB	1378996	n/a	LTP283	ltpFR2	16	n/a	n/a	n/a	17	17	3	9	5
2760.16	n/a	PROB	1380080	n/a	LTP283	ltpFR2	16	n/a	n/a	n/a	17	10	2	2	6
2761.428	n/a	PROB	1380714	n/a	LTP283	ltpFR2	16	n/a	n/a	n/a	17	17	3	8	6
2763.228	n/a	PROB	1381614	n/a	LTP283	ltpFR2	16	n/a	n/a	n/a	17	19	6	7	5
2765.632	n/a	PROB	1382816	n/a	LTP283	ltpFR2	16	n/a	n/a	n/a	17	15	3	3	9
2767.348	n/a	PROB	1383674	n/a	LTP283	ltpFR2	16	n/a	n/a	n/a	17	17	9	4	4
2768.89	n/a	PROB	1384445	n/a	LTP283	ltpFR2	16	n/a	n/a	n/a	17	15	8	3	4
2770.568	n/a	PROB	1385284	n/a	LTP283	ltpFR2	16	n/a	n/a	n/a	17	19	4	6	9
2771.724	n/a	STOP	1385862	n/a	LTP283	ltpFR2	16	n/a	n/a	n/a	17	n/a	n/a	n/a	n/a
2773.736	n/a	WORD	1386868	wordpools/wasnorm_wordpool_576.txt	LTP283	ltpFR2	16	12	GLOBE	641	n/a	n/a	0	0	0
2776.272	n/a	WORD	1388136	wordpools/wasnorm_wordpool_576.txt	LTP283	ltpFR2	16	12	JELLO	754	n/a	n/a	0	0	0
2778.908	n/a	WORD	1389454	wordpools/wasnorm_wordpool_576.txt	LTP283	ltpFR2	16	12	WOMAN	1620	n/a	n/a	0	0	0
2781.76	n/a	WORD	1390880	wordpools/wasnorm_wordpool_576.txt	LTP283	ltpFR2	16	12	REBEL	1172	n/a	n/a	0	0	0
2784.346	n/a	WORD	1392173	wordpools/wasnorm_wordpool_576.txt	LTP283	ltpFR2	16	12	LODGE	839	n/a	n/a	0	0	0
2786.898	n/a	WORD	1393449	wordpools/wasnorm_wordpool_576.txt	LTP283	ltpFR2	16	12	JUGGLER	763	n/a	n/a	0	0	0
2789.7	n/a	WORD	1394850	wordpools/wasnorm_wordpool_576.txt	LTP283	ltpFR2	16	12	CHILD	299	n/a	n/a	0	0	0
2792.502	n/a	WORD	1396251	wordpools/wasnorm_wordpool_576.txt	LTP283	ltpFR2	16	12	SCISSORS	1250	n/a	n/a	0	0	0
2795.338	n/a	WORD	1397669	wordpools/wasnorm_wordpool_576.txt	LTP283	ltpFR2	16	12	DORM	488	n/a	n/a	0	0	0
2797.922	n/a	WORD	1398961	wordpools/wasnorm_wordpool_576.txt	LTP283	ltpFR2	16	12	DAISY	435	n/a	n/a	0	0	0
2800.644	n/a	WORD	1400322	wordpools/wasnorm_wordpool_576.txt	LTP283	ltpFR2	16	12	COSTUME	383	n/a	n/a	0	0	0
2803.394	n/a	WORD	1401697	wordpools/wasnorm_wordpool_576.txt	LTP283	ltpFR2	16	12	GYMNAST	675	n/a	n/a	0	0	0
2806.18	n/a	WORD	1403090	wordpools/wasnorm_wordpool_576.txt	LTP283	ltpFR2	16	12	SHARK	1275	n/a	n/a	0	0	0
2808.874	n/a	WORD	1404437	wordpools/wasnorm_wordpool_576.txt	LTP283	ltpFR2	16	12	CATCHER	258	n/a	n/a	0	0	0
2811.734	n/a	WORD	1405867	wordpools/wasnorm_wordpool_576.txt	LTP283	ltpFR2	16	12	BRANDY	169	n/a	n/a	0	0	0
2814.41	n/a	WORD	1407205	wordpools/wasnorm_wordpool_576.txt	LTP283	ltpFR2	16	12	FLASK	576	n/a	n/a	0	0	0
2817.054	n/a	WORD	1408527	wordpools/wasnorm_wordpool_576.txt	LTP283	ltpFR2	16	12	ACTOR	5	n/a	n/a	0	0	0
2819.806	n/a	WORD	1409903	wordpools/wasnorm_wordpool_576.txt	LTP283	ltpFR2	16	12	STUDENT	1395	n/a	n/a	0	0	0
2822.342	n/a	WORD	1411171	wordpools/wasnorm_wordpool_576.txt	LTP283	ltpFR2	16	12	PEPPER	1047	n/a	n/a	0	0	0
2825.06	n/a	WORD	1412530	wordpools/wasnorm_wordpool_576.txt	LTP283	ltpFR2	16	12	TART	1436	n/a	n/a	0	0	0
2827.88	n/a	WORD	1413940	wordpools/wasnorm_wordpool_576.txt	LTP283	ltpFR2	16	12	FLAG	573	n/a	n/a	0	0	0
2830.484	n/a	WORD	1415242	wordpools/wasnorm_wordpool_576.txt	LTP283	ltpFR2	16	12	PADDLE	1000	n/a	n/a	0	0	0
2833.35	n/a	WORD	1416675	wordpools/wasnorm_wordpool_576.txt	LTP283	ltpFR2	16	12	VIKING	1565	n/a	n/a	0	0	0
2836.044	n/a	WORD	1418022	wordpools/wasnorm_wordpool_576.txt	LTP283	ltpFR2	16	12	PATROL	1027	n/a	n/a	0	0	0
2837.69	n/a	START	1418845	n/a	LTP283	ltpFR2	16	n/a	n/a	n/a	18	n/a	n/a	n/a	n/a
2838.574	n/a	DISTRACTOR	1419287	n/a	LTP283	ltpFR2	16	12	n/a	n/a	n/a	n/a	0	0	0
2838.624	n/a	PROB	1419312	n/a	LTP283	ltpFR2	16	n/a	n/a	n/a	18	19	8	7	4
2841.274	n/a	PROB	1420637	n/a	LTP283	ltpFR2	16	n/a	n/a	n/a	18	11	6	4	1
2842.55	n/a	PROB	1421275	n/a	LTP283	ltpFR2	16	n/a	n/a	n/a	18	17	9	1	7
2844.026	n/a	PROB	1422013	n/a	LTP283	ltpFR2	16	n/a	n/a	n/a	18	10	3	3	4
2845.646	n/a	PROB	1422823	n/a	LTP283	ltpFR2	16	n/a	n/a	n/a	18	15	4	2	9
2848.03	n/a	PROB	1424015	n/a	LTP283	ltpFR2	16	n/a	n/a	n/a	18	19	3	8	8
2849.548	n/a	PROB	1424774	n/a	LTP283	ltpFR2	16	n/a	n/a	n/a	18	11	2	3	6
2850.916	n/a	PROB	1425458	n/a	LTP283	ltpFR2	16	n/a	n/a	n/a	18	17	6	9	2
2853.032	n/a	PROB	1426516	n/a	LTP283	ltpFR2	16	n/a	n/a	n/a	18	12	5	6	1
2854.418	n/a	PROB	1427209	n/a	LTP283	ltpFR2	16	n/a	n/a	n/a	18	12	6	1	5
2856.186	n/a	PROB	1428093	n/a	LTP283	ltpFR2	16	n/a	n/a	n/a	18	14	1	9	4
2857.538	n/a	PROB	1428769	n/a	LTP283	ltpFR2	16	n/a	n/a	n/a	18	14	6	3	5
2860.382	n/a	STOP	1430191	n/a	LTP283	ltpFR2	16	n/a	n/a	n/a	18	n/a	n/a	n/a	n/a
2863.766	n/a	REC_START	1431883	n/a	LTP283	ltpFR2	16	12	n/a	n/a	n/a	n/a	0	0	0
2866.566	n/a	REC_WORD	1433283	wordpools/wasnorm_wordpool_576.txt	LTP283	ltpFR2	16	12	PADDLE	1000	n/a	n/a	0	0	0
2867.154	n/a	REC_WORD	1433577	wordpools/wasnorm_wordpool_576.txt	LTP283	ltpFR2	16	12	VIKING	1565	n/a	n/a	0	0	0
2867.816	n/a	REC_WORD	1433908	wordpools/wasnorm_wordpool_576.txt	LTP283	ltpFR2	16	12	PATROL	1027	n/a	n/a	0	0	0
2870.586	n/a	REC_WORD	1435293	wordpools/wasnorm_wordpool_576.txt	LTP283	ltpFR2	16	12	JELLO	754	n/a	n/a	0	0	0
2871.676	n/a	REC_WORD	1435838	wordpools/wasnorm_wordpool_576.txt	LTP283	ltpFR2	16	12	GLOBE	641	n/a	n/a	0	0	0
2873.762	n/a	REC_WORD	1436881	wordpools/wasnorm_wordpool_576.txt	LTP283	ltpFR2	16	12	WOMAN	1620	n/a	n/a	0	0	0
2874.628	n/a	REC_WORD	1437314	wordpools/wasnorm_wordpool_576.txt	LTP283	ltpFR2	16	12	JUGGLER	763	n/a	n/a	0	0	0
2875.418	n/a	REC_WORD	1437709	wordpools/wasnorm_wordpool_576.txt	LTP283	ltpFR2	16	12	LODGE	839	n/a	n/a	0	0	0
2876.244	n/a	REC_WORD	1438122	wordpools/wasnorm_wordpool_576.txt	LTP283	ltpFR2	16	12	DAISY	435	n/a	n/a	0	0	0
2879.334	n/a	REC_WORD	1439667	wordpools/wasnorm_wordpool_576.txt	LTP283	ltpFR2	16	12	SCISSORS	1250	n/a	n/a	0	0	0
2880.334	n/a	REC_WORD_VV	1440167	wordpools/wasnorm_wordpool_576.txt	LTP283	ltpFR2	16	12	<>	-1	n/a	n/a	0	0	0
2880.798	n/a	REC_WORD	1440399	wordpools/wasnorm_wordpool_576.txt	LTP283	ltpFR2	16	12	SHARK	1275	n/a	n/a	0	0	0
2881.624	n/a	REC_WORD	1440812	wordpools/wasnorm_wordpool_576.txt	LTP283	ltpFR2	16	12	BRANDY	169	n/a	n/a	0	0	0
2883.792	n/a	REC_WORD	1441896	wordpools/wasnorm_wordpool_576.txt	LTP283	ltpFR2	16	12	TART	1436	n/a	n/a	0	0	0
2886.474	n/a	REC_WORD	1443237	wordpools/wasnorm_wordpool_576.txt	LTP283	ltpFR2	16	12	SALT	1229	n/a	n/a	0	0	0
2892.41	n/a	REC_WORD	1446205	wordpools/wasnorm_wordpool_576.txt	LTP283	ltpFR2	16	12	ACTOR	5	n/a	n/a	0	0	0
2892.86	n/a	REC_WORD	1446430	wordpools/wasnorm_wordpool_576.txt	LTP283	ltpFR2	16	12	STUDENT	1395	n/a	n/a	0	0	0
2896.074	n/a	REC_WORD	1448037	wordpools/wasnorm_wordpool_576.txt	LTP283	ltpFR2	16	12	PADDLE	1000	n/a	n/a	0	0	0
2906.618	n/a	REC_WORD	1453309	wordpools/wasnorm_wordpool_576.txt	LTP283	ltpFR2	16	12	REBEL	1172	n/a	n/a	0	0	0
2954.7	n/a	DISTRACTOR	1477350	n/a	LTP283	ltpFR2	16	13	n/a	n/a	n/a	n/a	0	0	0
2954.7	n/a	START	1477350	n/a	LTP283	ltpFR2	16	n/a	n/a	n/a	19	n/a	n/a	n/a	n/a
2954.764	n/a	PROB	1477382	n/a	LTP283	ltpFR2	16	n/a	n/a	n/a	19	11	3	7	1
2956.116	n/a	PROB	1478058	n/a	LTP283	ltpFR2	16	n/a	n/a	n/a	19	13	5	1	7
2958.734	n/a	PROB	1479367	n/a	LTP283	ltpFR2	16	n/a	n/a	n/a	19	11	6	3	2
2960.402	n/a	PROB	1480201	n/a	LTP283	ltpFR2	16	n/a	n/a	n/a	19	16	2	7	7
2962.504	n/a	PROB	1481252	n/a	LTP283	ltpFR2	16	n/a	n/a	n/a	19	15	2	8	5
2964.12	n/a	PROB	1482060	n/a	LTP283	ltpFR2	16	n/a	n/a	n/a	19	20	8	8	4
2965.49	n/a	PROB	1482745	n/a	LTP283	ltpFR2	16	n/a	n/a	n/a	19	17	8	8	1
2967.116	n/a	PROB	1483558	n/a	LTP283	ltpFR2	16	n/a	n/a	n/a	19	12	2	7	3
2968.71	n/a	PROB	1484355	n/a	LTP283	ltpFR2	16	n/a	n/a	n/a	19	20	7	8	5
2970.478	n/a	PROB	1485239	n/a	LTP283	ltpFR2	16	n/a	n/a	n/a	19	13	9	3	1
2971.844	n/a	PROB	1485922	n/a	LTP283	ltpFR2	16	n/a	n/a	n/a	19	11	6	1	4
2973.078	n/a	PROB	1486539	n/a	LTP283	ltpFR2	16	n/a	n/a	n/a	19	11	3	1	7
2974.38	n/a	PROB	1487190	n/a	LTP283	ltpFR2	16	n/a	n/a	n/a	19	18	8	6	4
2975.78	n/a	PROB	1487890	n/a	LTP283	ltpFR2	16	n/a	n/a	n/a	19	20	7	4	9
2977.186	n/a	STOP	1488593	n/a	LTP283	ltpFR2	16	n/a	n/a	n/a	19	n/a	n/a	n/a	n/a
2979.818	n/a	WORD	1489909	wordpools/wasnorm_wordpool_576.txt	LTP283	ltpFR2	16	13	BLENDER	136	n/a	n/a	0	0	0
2982.67	n/a	WORD	1491335	wordpools/wasnorm_wordpool_576.txt	LTP283	ltpFR2	16	13	FLUTE	585	n/a	n/a	0	0	0
2985.404	n/a	WORD	1492702	wordpools/wasnorm_wordpool_576.txt	LTP283	ltpFR2	16	13	SHELTER	1282	n/a	n/a	0	0	0
2988.156	n/a	WORD	1494078	wordpools/wasnorm_wordpool_576.txt	LTP283	ltpFR2	16	13	PARTNER	1017	n/a	n/a	0	0	0
2991.026	n/a	WORD	1495513	wordpools/wasnorm_wordpool_576.txt	LTP283	ltpFR2	16	13	LETTUCE	814	n/a	n/a	0	0	0
2993.878	n/a	WORD	1496939	wordpools/wasnorm_wordpool_576.txt	LTP283	ltpFR2	16	13	PIANO	1057	n/a	n/a	0	0	0
2996.73	n/a	WORD	1498365	wordpools/wasnorm_wordpool_576.txt	LTP283	ltpFR2	16	13	HEADBAND	696	n/a	n/a	0	0	0
2999.25	n/a	WORD	1499625	wordpools/wasnorm_wordpool_576.txt	LTP283	ltpFR2	16	13	FOREHEAD	592	n/a	n/a	0	0	0
3002.102	n/a	WORD	1501051	wordpools/wasnorm_wordpool_576.txt	LTP283	ltpFR2	16	13	FRANCE	601	n/a	n/a	0	0	0
3004.738	n/a	WORD	1502369	wordpools/wasnorm_wordpool_576.txt	LTP283	ltpFR2	16	13	EUROPE	541	n/a	n/a	0	0	0
3007.506	n/a	WORD	1503753	wordpools/wasnorm_wordpool_576.txt	LTP283	ltpFR2	16	13	PISTOL	1075	n/a	n/a	0	0	0
3010.184	n/a	WORD	1505092	wordpools/wasnorm_wordpool_576.txt	LTP283	ltpFR2	16	13	LASER	801	n/a	n/a	0	0	0
3012.91	n/a	WORD	1506455	wordpools/wasnorm_wordpool_576.txt	LTP283	ltpFR2	16	13	ORCHID	982	n/a	n/a	0	0	0
3015.73	n/a	WORD	1507865	wordpools/wasnorm_wordpool_576.txt	LTP283	ltpFR2	16	13	TURNIP	1521	n/a	n/a	0	0	0
3018.424	n/a	WORD	1509212	wordpools/wasnorm_wordpool_576.txt	LTP283	ltpFR2	16	13	COUNTY	389	n/a	n/a	0	0	0
3021.182	n/a	WORD	1510591	wordpools/wasnorm_wordpool_576.txt	LTP283	ltpFR2	16	13	TREAT	1501	n/a	n/a	0	0	0
3024.018	n/a	WORD	1512009	wordpools/wasnorm_wordpool_576.txt	LTP283	ltpFR2	16	13	GIRL	637	n/a	n/a	0	0	0
3026.556	n/a	WORD	1513278	wordpools/wasnorm_wordpool_576.txt	LTP283	ltpFR2	16	13	BLUEPRINT	142	n/a	n/a	0	0	0
3029.248	n/a	WORD	1514624	wordpools/wasnorm_wordpool_576.txt	LTP283	ltpFR2	16	13	GARDEN	623	n/a	n/a	0	0	0
3031.842	n/a	WORD	1515921	wordpools/wasnorm_wordpool_576.txt	LTP283	ltpFR2	16	13	BODY	145	n/a	n/a	0	0	0
3034.444	n/a	WORD	1517222	wordpools/wasnorm_wordpool_576.txt	LTP283	ltpFR2	16	13	WAITER	1580	n/a	n/a	0	0	0
3037.278	n/a	WORD	1518639	wordpools/wasnorm_wordpool_576.txt	LTP283	ltpFR2	16	13	SCULPTURE	1258	n/a	n/a	0	0	0
3039.864	n/a	WORD	1519932	wordpools/wasnorm_wordpool_576.txt	LTP283	ltpFR2	16	13	CARRIAGE	248	n/a	n/a	0	0	0
3042.652	n/a	WORD	1521326	wordpools/wasnorm_wordpool_576.txt	LTP283	ltpFR2	16	13	PLIERS	1089	n/a	n/a	0	0	0
3044.286	n/a	START	1522143	n/a	LTP283	ltpFR2	16	n/a	n/a	n/a	20	n/a	n/a	n/a	n/a
3045.462	n/a	DISTRACTOR	1522731	n/a	LTP283	ltpFR2	16	13	n/a	n/a	n/a	n/a	0	0	0
3045.504	n/a	PROB	1522752	n/a	LTP283	ltpFR2	16	n/a	n/a	n/a	20	10	3	1	6
3047.07	n/a	PROB	1523535	n/a	LTP283	ltpFR2	16	n/a	n/a	n/a	20	9	2	5	2
3048.606	n/a	PROB	1524303	n/a	LTP283	ltpFR2	16	n/a	n/a	n/a	20	20	6	5	9
3049.94	n/a	PROB	1524970	n/a	LTP283	ltpFR2	16	n/a	n/a	n/a	20	14	8	1	5
3051.824	n/a	PROB	1525912	n/a	LTP283	ltpFR2	16	n/a	n/a	n/a	20	14	5	8	1
3053.542	n/a	PROB	1526771	n/a	LTP283	ltpFR2	16	n/a	n/a	n/a	20	16	3	9	4
3055.384	n/a	PROB	1527692	n/a	LTP283	ltpFR2	16	n/a	n/a	n/a	20	7	4	2	1
3056.962	n/a	PROB	1528481	n/a	LTP283	ltpFR2	16	n/a	n/a	n/a	20	14	3	9	2
3058.812	n/a	PROB	1529406	n/a	LTP283	ltpFR2	16	n/a	n/a	n/a	20	9	2	4	3
3061.048	n/a	PROB	1530524	n/a	LTP283	ltpFR2	16	n/a	n/a	n/a	20	10	8	1	1
3062.198	n/a	PROB	1531099	n/a	LTP283	ltpFR2	16	n/a	n/a	n/a	20	16	7	3	6
3063.568	n/a	PROB	1531784	n/a	LTP283	ltpFR2	16	n/a	n/a	n/a	20	22	6	9	7
3065.936	n/a	PROB	1532968	n/a	LTP283	ltpFR2	16	n/a	n/a	n/a	20	19	3	8	8
3067.268	n/a	STOP	1533634	n/a	LTP283	ltpFR2	16	n/a	n/a	n/a	20	n/a	n/a	n/a	n/a
3070.348	n/a	REC_START	1535174	n/a	LTP283	ltpFR2	16	13	n/a	n/a	n/a	n/a	0	0	0
3072.83	n/a	REC_WORD	1536415	wordpools/wasnorm_wordpool_576.txt	LTP283	ltpFR2	16	13	CARRIAGE	248	n/a	n/a	0	0	0
3073.724	n/a	REC_WORD	1536862	wordpools/wasnorm_wordpool_576.txt	LTP283	ltpFR2	16	13	PLIERS	1089	n/a	n/a	0	0	0
3075.342	n/a	REC_WORD	1537671	wordpools/wasnorm_wordpool_576.txt	LTP283	ltpFR2	16	13	SERVANT	1271	n/a	n/a	0	0	0
3076.342	n/a	REC_WORD_VV	1538171	wordpools/wasnorm_wordpool_576.txt	LTP283	ltpFR2	16	13	<>	-1	n/a	n/a	0	0	0
3077.18	n/a	REC_WORD	1538590	wordpools/wasnorm_wordpool_576.txt	LTP283	ltpFR2	16	13	FRANCE	601	n/a	n/a	0	0	0
3077.858	n/a	REC_WORD	1538929	wordpools/wasnorm_wordpool_576.txt	LTP283	ltpFR2	16	13	EUROPE	541	n/a	n/a	0	0	0
3079.936	n/a	REC_WORD	1539968	wordpools/wasnorm_wordpool_576.txt	LTP283	ltpFR2	16	13	GARDEN	623	n/a	n/a	0	0	0
3080.572	n/a	REC_WORD	1540286	wordpools/wasnorm_wordpool_576.txt	LTP283	ltpFR2	16	13	BODY	145	n/a	n/a	0	0	0
3081.026	n/a	REC_WORD	1540513	wordpools/wasnorm_wordpool_576.txt	LTP283	ltpFR2	16	13	HUMAN	726	n/a	n/a	0	0	0
3081.662	n/a	REC_WORD	1540831	wordpools/wasnorm_wordpool_576.txt	LTP283	ltpFR2	16	13	SCULPTURE	1258	n/a	n/a	0	0	0
3094.234	n/a	REC_WORD	1547117	wordpools/wasnorm_wordpool_576.txt	LTP283	ltpFR2	16	13	BLUEPRINT	142	n/a	n/a	0	0	0
3094.842	n/a	REC_WORD	1547421	wordpools/wasnorm_wordpool_576.txt	LTP283	ltpFR2	16	13	BLENDER	136	n/a	n/a	0	0	0
3095.404	n/a	REC_WORD	1547702	wordpools/wasnorm_wordpool_576.txt	LTP283	ltpFR2	16	13	FLUTE	585	n/a	n/a	0	0	0
3095.972	n/a	REC_WORD	1547986	wordpools/wasnorm_wordpool_576.txt	LTP283	ltpFR2	16	13	PIANO	1057	n/a	n/a	0	0	0
3097.49	n/a	REC_WORD	1548745	wordpools/wasnorm_wordpool_576.txt	LTP283	ltpFR2	16	13	PARTNER	1017	n/a	n/a	0	0	0
3102.574	n/a	REC_WORD	1551287	wordpools/wasnorm_wordpool_576.txt	LTP283	ltpFR2	16	13	HEADBAND	696	n/a	n/a	0	0	0
3103.208	n/a	REC_WORD	1551604	wordpools/wasnorm_wordpool_576.txt	LTP283	ltpFR2	16	13	FOREHEAD	592	n/a	n/a	0	0	0
3161.362	n/a	WORD	1580681	wordpools/wasnorm_wordpool_576.txt	LTP283	ltpFR2	16	14	CURTAIN	427	n/a	n/a	0	0	0
3163.98	n/a	WORD	1581990	wordpools/wasnorm_wordpool_576.txt	LTP283	ltpFR2	16	14	LUMBER	848	n/a	n/a	0	0	0
3166.674	n/a	WORD	1583337	wordpools/wasnorm_wordpool_576.txt	LTP283	ltpFR2	16	14	SAUSAGE	1238	n/a	n/a	0	0	0
3169.468	n/a	WORD	1584734	wordpools/wasnorm_wordpool_576.txt	LTP283	ltpFR2	16	14	BACON	67	n/a	n/a	0	0	0
3172.052	n/a	WORD	1586026	wordpools/wasnorm_wordpool_576.txt	LTP283	ltpFR2	16	14	PORTRAIT	1111	n/a	n/a	0	0	0
3174.872	n/a	WORD	1587436	wordpools/wasnorm_wordpool_576.txt	LTP283	ltpFR2	16	14	DRAWING	494	n/a	n/a	0	0	0
3177.692	n/a	WORD	1588846	wordpools/wasnorm_wordpool_576.txt	LTP283	ltpFR2	16	14	RUG	1215	n/a	n/a	0	0	0
3180.46	n/a	WORD	1590230	wordpools/wasnorm_wordpool_576.txt	LTP283	ltpFR2	16	14	SMOG	1330	n/a	n/a	0	0	0
3182.978	n/a	WORD	1591489	wordpools/wasnorm_wordpool_576.txt	LTP283	ltpFR2	16	14	FLASHLIGHT	575	n/a	n/a	0	0	0
3185.582	n/a	WORD	1592791	wordpools/wasnorm_wordpool_576.txt	LTP283	ltpFR2	16	14	HOUND	724	n/a	n/a	0	0	0
3188.348	n/a	WORD	1594174	wordpools/wasnorm_wordpool_576.txt	LTP283	ltpFR2	16	14	HEDGE	699	n/a	n/a	0	0	0
3191.05	n/a	WORD	1595525	wordpools/wasnorm_wordpool_576.txt	LTP283	ltpFR2	16	14	SCRIBBLE	1256	n/a	n/a	0	0	0
3193.744	n/a	WORD	1596872	wordpools/wasnorm_wordpool_576.txt	LTP283	ltpFR2	16	14	FLOWER	584	n/a	n/a	0	0	0
3196.556	n/a	WORD	1598278	wordpools/wasnorm_wordpool_576.txt	LTP283	ltpFR2	16	14	PENGUIN	1044	n/a	n/a	0	0	0
3199.274	n/a	WORD	1599637	wordpools/wasnorm_wordpool_576.txt	LTP283	ltpFR2	16	14	COCOON	339	n/a	n/a	0	0	0
3201.776	n/a	WORD	1600888	wordpools/wasnorm_wordpool_576.txt	LTP283	ltpFR2	16	14	RIVER	1194	n/a	n/a	0	0	0
3204.628	n/a	WORD	1602314	wordpools/wasnorm_wordpool_576.txt	LTP283	ltpFR2	16	14	BLOUSE	139	n/a	n/a	0	0	0
3207.162	n/a	WORD	1603581	wordpools/wasnorm_wordpool_576.txt	LTP283	ltpFR2	16	14	ASIA	46	n/a	n/a	0	0	0
3209.916	n/a	WORD	1604958	wordpools/wasnorm_wordpool_576.txt	LTP283	ltpFR2	16	14	SPACE	1345	n/a	n/a	0	0	0
3212.734	n/a	WORD	1606367	wordpools/wasnorm_wordpool_576.txt	LTP283	ltpFR2	16	14	PUDDLE	1140	n/a	n/a	0	0	0
3215.604	n/a	WORD	1607802	wordpools/wasnorm_wordpool_576.txt	LTP283	ltpFR2	16	14	CLIMBER	323	n/a	n/a	0	0	0
3218.322	n/a	WORD	1609161	wordpools/wasnorm_wordpool_576.txt	LTP283	ltpFR2	16	14	CABIN	211	n/a	n/a	0	0	0
3221.19	n/a	WORD	1610595	wordpools/wasnorm_wordpool_576.txt	LTP283	ltpFR2	16	14	VIRUS	1572	n/a	n/a	0	0	0
3223.894	n/a	WORD	1611947	wordpools/wasnorm_wordpool_576.txt	LTP283	ltpFR2	16	14	SHIRT	1287	n/a	n/a	0	0	0
3225.53	n/a	START	1612765	n/a	LTP283	ltpFR2	16	n/a	n/a	n/a	21	n/a	n/a	n/a	n/a
3226.516	n/a	DISTRACTOR	1613258	n/a	LTP283	ltpFR2	16	14	n/a	n/a	n/a	n/a	0	0	0
3226.588	n/a	PROB	1613294	n/a	LTP283	ltpFR2	16	n/a	n/a	n/a	21	20	3	9	8
3228.664	n/a	PROB	1614332	n/a	LTP283	ltpFR2	16	n/a	n/a	n/a	21	13	5	3	5
3230.148	n/a	PROB	1615074	n/a	LTP283	ltpFR2	16	n/a	n/a	n/a	21	18	3	7	8
3231.516	n/a	PROB	1615758	n/a	LTP283	ltpFR2	16	n/a	n/a	n/a	21	11	8	1	2
3232.85	n/a	PROB	1616425	n/a	LTP283	ltpFR2	16	n/a	n/a	n/a	21	7	1	4	2
3234.218	n/a	PROB	1617109	n/a	LTP283	ltpFR2	16	n/a	n/a	n/a	21	8	2	5	1
3235.486	n/a	PROB	1617743	n/a	LTP283	ltpFR2	16	n/a	n/a	n/a	21	13	5	6	2
3237.094	n/a	PROB	1618547	n/a	LTP283	ltpFR2	16	n/a	n/a	n/a	21	10	2	4	4
3238.456	n/a	PROB	1619228	n/a	LTP283	ltpFR2	16	n/a	n/a	n/a	21	10	1	3	6
3239.924	n/a	PROB	1619962	n/a	LTP283	ltpFR2	16	n/a	n/a	n/a	21	15	3	8	4
3242.098	n/a	PROB	1621049	n/a	LTP283	ltpFR2	16	n/a	n/a	n/a	21	15	6	3	6
3244.71	n/a	PROB	1622355	n/a	LTP283	ltpFR2	16	n/a	n/a	n/a	21	10	5	4	1
3245.894	n/a	PROB	1622947	n/a	LTP283	ltpFR2	16	n/a	n/a	n/a	21	20	5	8	7
3247.514	n/a	PROB	1623757	n/a	LTP283	ltpFR2	16	n/a	n/a	n/a	21	11	4	3	4
3248.794	n/a	STOP	1624397	n/a	LTP283	ltpFR2	16	n/a	n/a	n/a	21	n/a	n/a	n/a	n/a
3251.608	n/a	REC_START	1625804	n/a	LTP283	ltpFR2	16	14	n/a	n/a	n/a	n/a	0	0	0
3253.23	n/a	REC_WORD	1626615	wordpools/wasnorm_wordpool_576.txt	LTP283	ltpFR2	16	14	VIRUS	1572	n/a	n/a	0	0	0
3253.834	n/a	REC_WORD	1626917	wordpools/wasnorm_wordpool_576.txt	LTP283	ltpFR2	16	14	SHIRT	1287	n/a	n/a	0	0	0
3255.502	n/a	REC_WORD	1627751	wordpools/wasnorm_wordpool_576.txt	LTP283	ltpFR2	16	14	CABIN	211	n/a	n/a	0	0	0
3259.114	n/a	REC_WORD	1629557	wordpools/wasnorm_wordpool_576.txt	LTP283	ltpFR2	16	14	PENGUIN	1044	n/a	n/a	0	0	0
3259.562	n/a	REC_WORD	1629781	wordpools/wasnorm_wordpool_576.txt	LTP283	ltpFR2	16	14	COCOON	339	n/a	n/a	0	0	0
3260.166	n/a	REC_WORD	1630083	wordpools/wasnorm_wordpool_576.txt	LTP283	ltpFR2	16	14	RIVER	1194	n/a	n/a	0	0	0
3260.87	n/a	REC_WORD	1630435	wordpools/wasnorm_wordpool_576.txt	LTP283	ltpFR2	16	14	BLOUSE	139	n/a	n/a	0	0	0
3262.288	n/a	REC_WORD	1631144	wordpools/wasnorm_wordpool_576.txt	LTP283	ltpFR2	16	14	HOUND	724	n/a	n/a	0	0	0
3267.98	n/a	REC_WORD	1633990	wordpools/wasnorm_wordpool_576.txt	LTP283	ltpFR2	16	14	HEDGE	699	n/a	n/a	0	0	0
3270.378	n/a	REC_WORD	1635189	wordpools/wasnorm_wordpool_576.txt	LTP283	ltpFR2	16	14	CURTAIN	427	n/a	n/a	0	0	0
3271.302	n/a	REC_WORD	1635651	wordpools/wasnorm_wordpool_576.txt	LTP283	ltpFR2	16	14	LUMBER	848	n/a	n/a	0	0	0
3272.086	n/a	REC_WORD	1636043	wordpools/wasnorm_wordpool_576.txt	LTP283	ltpFR2	16	14	SAUSAGE	1238	n/a	n/a	0	0	0
3273.04	n/a	REC_WORD	1636520	wordpools/wasnorm_wordpool_576.txt	LTP283	ltpFR2	16	14	BACON	67	n/a	n/a	0	0	0
3273.6	n/a	REC_WORD	1636800	wordpools/wasnorm_wordpool_576.txt	LTP283	ltpFR2	16	14	DRAWING	494	n/a	n/a	0	0	0
3274.174	n/a	REC_WORD	1637087	wordpools/wasnorm_wordpool_576.txt	LTP283	ltpFR2	16	14	SKETCH	1315	n/a	n/a	0	0	0
3275.174	n/a	REC_WORD_VV	1637587	wordpools/wasnorm_wordpool_576.txt	LTP283	ltpFR2	16	14	<>	-1	n/a	n/a	0	0	0
3276.094	n/a	REC_WORD	1638047	wordpools/wasnorm_wordpool_576.txt	LTP283	ltpFR2	16	14	PORTRAIT	1111	n/a	n/a	0	0	0
3279.108	n/a	REC_WORD	1639554	wordpools/wasnorm_wordpool_576.txt	LTP283	ltpFR2	16	14	FOG	-1	n/a	n/a	0	0	0
3280.088	n/a	REC_WORD	1640044	wordpools/wasnorm_wordpool_576.txt	LTP283	ltpFR2	16	14	SMOG	1330	n/a	n/a	0	0	0
3281.162	n/a	REC_WORD	1640581	wordpools/wasnorm_wordpool_576.txt	LTP283	ltpFR2	16	14	SCRIBBLE	1256	n/a	n/a	0	0	0
3290.158	n/a	REC_WORD	1645079	wordpools/wasnorm_wordpool_576.txt	LTP283	ltpFR2	16	14	SPACE	1345	n/a	n/a	0	0	0
3308.602	n/a	REC_WORD	1654301	wordpools/wasnorm_wordpool_576.txt	LTP283	ltpFR2	16	14	FLASHLIGHT	575	n/a	n/a	0	0	0
3342.572	n/a	DISTRACTOR	1671286	n/a	LTP283	ltpFR2	16	15	n/a	n/a	n/a	n/a	0	0	0
3342.572	n/a	START	1671286	n/a	LTP283	ltpFR2	16	n/a	n/a	n/a	22	n/a	n/a	n/a	n/a
3342.638	n/a	PROB	1671319	n/a	LTP283	ltpFR2	16	n/a	n/a	n/a	22	17	3	7	7
3344.856	n/a	PROB	1672428	n/a	LTP283	ltpFR2	16	n/a	n/a	n/a	22	13	1	6	6
3346.858	n/a	PROB	1673429	n/a	LTP283	ltpFR2	16	n/a	n/a	n/a	22	18	5	5	8
3348.224	n/a	PROB	1674112	n/a	LTP283	ltpFR2	16	n/a	n/a	n/a	22	13	2	4	7
3350.844	n/a	PROB	1675422	n/a	LTP283	ltpFR2	16	n/a	n/a	n/a	22	15	6	6	3
3352.578	n/a	PROB	1676289	n/a	LTP283	ltpFR2	16	n/a	n/a	n/a	22	14	1	8	5
3354.68	n/a	PROB	1677340	n/a	LTP283	ltpFR2	16	n/a	n/a	n/a	22	21	4	8	9
3356.214	n/a	PROB	1678107	n/a	LTP283	ltpFR2	16	n/a	n/a	n/a	22	18	6	7	5
3360.15	n/a	PROB	1680075	n/a	LTP283	ltpFR2	16	n/a	n/a	n/a	22	22	6	9	7
3362.538	n/a	PROB	1681269	n/a	LTP283	ltpFR2	16	n/a	n/a	n/a	22	6	1	2	3
3363.754	n/a	PROB	1681877	n/a	LTP283	ltpFR2	16	n/a	n/a	n/a	22	23	7	8	8
3365.908	n/a	STOP	1682954	n/a	LTP283	ltpFR2	16	n/a	n/a	n/a	22	n/a	n/a	n/a	n/a
3367.574	n/a	WORD	1683787	wordpools/wasnorm_wordpool_576.txt	LTP283	ltpFR2	16	15	MAILMAN	858	n/a	n/a	0	0	0
3370.326	n/a	WORD	1685163	wordpools/wasnorm_wordpool_576.txt	LTP283	ltpFR2	16	15	CASKET	255	n/a	n/a	0	0	0
3373.096	n/a	WORD	1686548	wordpools/wasnorm_wordpool_576.txt	LTP283	ltpFR2	16	15	TOMBSTONE	1478	n/a	n/a	0	0	0
3375.698	n/a	WORD	1687849	wordpools/wasnorm_wordpool_576.txt	LTP283	ltpFR2	16	15	WRENCH	1625	n/a	n/a	0	0	0
3378.5	n/a	WORD	1689250	wordpools/wasnorm_wordpool_576.txt	LTP283	ltpFR2	16	15	ANTLER	29	n/a	n/a	0	0	0
3381.052	n/a	WORD	1690526	wordpools/wasnorm_wordpool_576.txt	LTP283	ltpFR2	16	15	XEROX	1628	n/a	n/a	0	0	0
3383.538	n/a	WORD	1691769	wordpools/wasnorm_wordpool_576.txt	LTP283	ltpFR2	16	15	BASEMENT	94	n/a	n/a	0	0	0
3386.214	n/a	WORD	1693107	wordpools/wasnorm_wordpool_576.txt	LTP283	ltpFR2	16	15	JUDGE	761	n/a	n/a	0	0	0
3388.792	n/a	WORD	1694396	wordpools/wasnorm_wordpool_576.txt	LTP283	ltpFR2	16	15	VICTIM	1562	n/a	n/a	0	0	0
3391.294	n/a	WORD	1695647	wordpools/wasnorm_wordpool_576.txt	LTP283	ltpFR2	16	15	CRITIC	410	n/a	n/a	0	0	0
3393.896	n/a	WORD	1696948	wordpools/wasnorm_wordpool_576.txt	LTP283	ltpFR2	16	15	PLAZA	1088	n/a	n/a	0	0	0
3396.514	n/a	WORD	1698257	wordpools/wasnorm_wordpool_576.txt	LTP283	ltpFR2	16	15	TUNNEL	1519	n/a	n/a	0	0	0
3399.248	n/a	WORD	1699624	wordpools/wasnorm_wordpool_576.txt	LTP283	ltpFR2	16	15	AIRPLANE	12	n/a	n/a	0	0	0
3401.8	n/a	WORD	1700900	wordpools/wasnorm_wordpool_576.txt	LTP283	ltpFR2	16	15	FRAME	600	n/a	n/a	0	0	0
3404.336	n/a	WORD	1702168	wordpools/wasnorm_wordpool_576.txt	LTP283	ltpFR2	16	15	DRUG	501	n/a	n/a	0	0	0
3406.856	n/a	WORD	1703428	wordpools/wasnorm_wordpool_576.txt	LTP283	ltpFR2	16	15	INMATE	738	n/a	n/a	0	0	0
3409.476	n/a	WORD	1704738	wordpools/wasnorm_wordpool_576.txt	LTP283	ltpFR2	16	15	OUTLAW	989	n/a	n/a	0	0	0
3411.958	n/a	WORD	1705979	wordpools/wasnorm_wordpool_576.txt	LTP283	ltpFR2	16	15	BOYFRIEND	162	n/a	n/a	0	0	0
3414.762	n/a	WORD	1707381	wordpools/wasnorm_wordpool_576.txt	LTP283	ltpFR2	16	15	CHAMPAGNE	278	n/a	n/a	0	0	0
3417.346	n/a	WORD	1708673	wordpools/wasnorm_wordpool_576.txt	LTP283	ltpFR2	16	15	DUSTPAN	509	n/a	n/a	0	0	0
3420.098	n/a	WORD	1710049	wordpools/wasnorm_wordpool_576.txt	LTP283	ltpFR2	16	15	FILM	565	n/a	n/a	0	0	0
3422.6	n/a	WORD	1711300	wordpools/wasnorm_wordpool_576.txt	LTP283	ltpFR2	16	15	NEUTRON	947	n/a	n/a	0	0	0
3425.436	n/a	WORD	1712718	wordpools/wasnorm_wordpool_576.txt	LTP283	ltpFR2	16	15	POSTAGE	1113	n/a	n/a	0	0	0
3428.206	n/a	WORD	1714103	wordpools/wasnorm_wordpool_576.txt	LTP283	ltpFR2	16	15	BURGLAR	200	n/a	n/a	0	0	0
3429.84	n/a	START	1714920	n/a	LTP283	ltpFR2	16	n/a	n/a	n/a	23	n/a	n/a	n/a	n/a
3430.884	n/a	DISTRACTOR	1715442	n/a	LTP283	ltpFR2	16	15	n/a	n/a	n/a	n/a	0	0	0
3430.924	n/a	PROB	1715462	n/a	LTP283	ltpFR2	16	n/a	n/a	n/a	23	19	9	7	3
3432.676	n/a	PROB	1716338	n/a	LTP283	ltpFR2	16	n/a	n/a	n/a	23	22	7	9	6
3434.96	n/a	PROB	1717480	n/a	LTP283	ltpFR2	16	n/a	n/a	n/a	23	21	9	7	5
3437.312	n/a	PROB	1718656	n/a	LTP283	ltpFR2	16	n/a	n/a	n/a	23	13	4	2	7
3439.37	n/a	PROB	1719685	n/a	LTP283	ltpFR2	16	n/a	n/a	n/a	23	16	4	7	5
3442.048	n/a	PROB	1721024	n/a	LTP283	ltpFR2	16	n/a	n/a	n/a	23	3	1	1	1
3443.418	n/a	PROB	1721709	n/a	LTP283	ltpFR2	16	n/a	n/a	n/a	23	20	9	7	4
3444.868	n/a	PROB	1722434	n/a	LTP283	ltpFR2	16	n/a	n/a	n/a	23	15	6	2	7
3446.752	n/a	PROB	1723376	n/a	LTP283	ltpFR2	16	n/a	n/a	n/a	23	16	1	9	6
3448.188	n/a	PROB	1724094	n/a	LTP283	ltpFR2	16	n/a	n/a	n/a	23	22	9	5	8
3450.138	n/a	PROB	1725069	n/a	LTP283	ltpFR2	16	n/a	n/a	n/a	23	19	5	9	5
3451.79	n/a	PROB	1725895	n/a	LTP283	ltpFR2	16	n/a	n/a	n/a	23	18	4	9	5
3453.214	n/a	STOP	1726607	n/a	LTP283	ltpFR2	16	n/a	n/a	n/a	23	n/a	n/a	n/a	n/a
3455.902	n/a	REC_START	1727951	n/a	LTP283	ltpFR2	16	15	n/a	n/a	n/a	n/a	0	0	0
3458.976	n/a	REC_WORD	1729488	wordpools/wasnorm_wordpool_576.txt	LTP283	ltpFR2	16	15	POSTAGE	1113	n/a	n/a	0	0	0
3459.518	n/a	REC_WORD	1729759	wordpools/wasnorm_wordpool_576.txt	LTP283	ltpFR2	16	15	MAILMAN	858	n/a	n/a	0	0	0
3461.034	n/a	REC_WORD	1730517	wordpools/wasnorm_wordpool_576.txt	LTP283	ltpFR2	16	15	NEUTRON	947	n/a	n/a	0	0	0
3461.864	n/a	REC_WORD	1730932	wordpools/wasnorm_wordpool_576.txt	LTP283	ltpFR2	16	15	WRENCH	1625	n/a	n/a	0	0	0
3466.564	n/a	REC_WORD	1733282	wordpools/wasnorm_wordpool_576.txt	LTP283	ltpFR2	16	15	TOMBSTONE	1478	n/a	n/a	0	0	0
3468.008	n/a	REC_WORD	1734004	wordpools/wasnorm_wordpool_576.txt	LTP283	ltpFR2	16	15	GRAVE	658	n/a	n/a	0	0	0
3468.462	n/a	REC_WORD	1734231	wordpools/wasnorm_wordpool_576.txt	LTP283	ltpFR2	16	15	ANTLER	29	n/a	n/a	0	0	0
3470.224	n/a	REC_WORD	1735112	wordpools/wasnorm_wordpool_576.txt	LTP283	ltpFR2	16	15	CASKET	255	n/a	n/a	0	0	0
3471.66	n/a	REC_WORD	1735830	wordpools/wasnorm_wordpool_576.txt	LTP283	ltpFR2	16	15	ANTLER	29	n/a	n/a	0	0	0
3478.266	n/a	REC_WORD	1739133	wordpools/wasnorm_wordpool_576.txt	LTP283	ltpFR2	16	15	JUDGE	761	n/a	n/a	0	0	0
3478.742	n/a	REC_WORD	1739371	wordpools/wasnorm_wordpool_576.txt	LTP283	ltpFR2	16	15	CRITIC	410	n/a	n/a	0	0	0
3479.318	n/a	REC_WORD	1739659	wordpools/wasnorm_wordpool_576.txt	LTP283	ltpFR2	16	15	OUTLAW	989	n/a	n/a	0	0	0
3480.076	n/a	REC_WORD	1740038	wordpools/wasnorm_wordpool_576.txt	LTP283	ltpFR2	16	15	INMATE	738	n/a	n/a	0	0	0
3482.51	n/a	REC_WORD	1741255	wordpools/wasnorm_wordpool_576.txt	LTP283	ltpFR2	16	15	FRAME	600	n/a	n/a	0	0	0
3483.248	n/a	REC_WORD	1741624	wordpools/wasnorm_wordpool_576.txt	LTP283	ltpFR2	16	15	FILM	565	n/a	n/a	0	0	0
3486.502	n/a	REC_WORD	1743251	wordpools/wasnorm_wordpool_576.txt	LTP283	ltpFR2	16	15	CHAMPAGNE	278	n/a	n/a	0	0	0
3487.326	n/a	REC_WORD	1743663	wordpools/wasnorm_wordpool_576.txt	LTP283	ltpFR2	16	15	BOYFRIEND	162	n/a	n/a	0	0	0
3546.916	n/a	WORD	1773458	wordpools/wasnorm_wordpool_576.txt	LTP283	ltpFR2	16	16	PEDAL	1037	n/a	n/a	0	0	0
3549.402	n/a	WORD	1774701	wordpools/wasnorm_wordpool_576.txt	LTP283	ltpFR2	16	16	PIZZA	1079	n/a	n/a	0	0	0
3551.954	n/a	WORD	1775977	wordpools/wasnorm_wordpool_576.txt	LTP283	ltpFR2	16	16	PERCH	1048	n/a	n/a	0	0	0
3554.69	n/a	WORD	1777345	wordpools/wasnorm_wordpool_576.txt	LTP283	ltpFR2	16	16	NAPKIN	937	n/a	n/a	0	0	0
3557.29	n/a	WORD	1778645	wordpools/wasnorm_wordpool_576.txt	LTP283	ltpFR2	16	16	SPONGE	1355	n/a	n/a	0	0	0
3560.06	n/a	WORD	1780030	wordpools/wasnorm_wordpool_576.txt	LTP283	ltpFR2	16	16	HARP	689	n/a	n/a	0	0	0
3562.58	n/a	WORD	1781290	wordpools/wasnorm_wordpool_576.txt	LTP283	ltpFR2	16	16	LEOPARD	812	n/a	n/a	0	0	0
3565.08	n/a	WORD	1782540	wordpools/wasnorm_wordpool_576.txt	LTP283	ltpFR2	16	16	CEILING	265	n/a	n/a	0	0	0
3567.814	n/a	WORD	1783907	wordpools/wasnorm_wordpool_576.txt	LTP283	ltpFR2	16	16	GROUND	666	n/a	n/a	0	0	0
3570.518	n/a	WORD	1785259	wordpools/wasnorm_wordpool_576.txt	LTP283	ltpFR2	16	16	BARLEY	88	n/a	n/a	0	0	0
3573.054	n/a	WORD	1786527	wordpools/wasnorm_wordpool_576.txt	LTP283	ltpFR2	16	16	TWISTER	1530	n/a	n/a	0	0	0
3575.572	n/a	WORD	1787786	wordpools/wasnorm_wordpool_576.txt	LTP283	ltpFR2	16	16	CYCLONE	431	n/a	n/a	0	0	0
3578.408	n/a	WORD	1789204	wordpools/wasnorm_wordpool_576.txt	LTP283	ltpFR2	16	16	SALAD	1224	n/a	n/a	0	0	0
3581.176	n/a	WORD	1790588	wordpools/wasnorm_wordpool_576.txt	LTP283	ltpFR2	16	16	CABBAGE	210	n/a	n/a	0	0	0
3583.912	n/a	WORD	1791956	wordpools/wasnorm_wordpool_576.txt	LTP283	ltpFR2	16	16	WASP	1593	n/a	n/a	0	0	0
3586.606	n/a	WORD	1793303	wordpools/wasnorm_wordpool_576.txt	LTP283	ltpFR2	16	16	PRIMATE	1123	n/a	n/a	0	0	0
3589.15	n/a	WORD	1794575	wordpools/wasnorm_wordpool_576.txt	LTP283	ltpFR2	16	16	BOUQUET	157	n/a	n/a	0	0	0
3591.952	n/a	WORD	1795976	wordpools/wasnorm_wordpool_576.txt	LTP283	ltpFR2	16	16	MARSH	874	n/a	n/a	0	0	0
3594.688	n/a	WORD	1797344	wordpools/wasnorm_wordpool_576.txt	LTP283	ltpFR2	16	16	FRIEND	606	n/a	n/a	0	0	0
3597.388	n/a	WORD	1798694	wordpools/wasnorm_wordpool_576.txt	LTP283	ltpFR2	16	16	JUNGLE	764	n/a	n/a	0	0	0
3600.008	n/a	WORD	1800004	wordpools/wasnorm_wordpool_576.txt	LTP283	ltpFR2	16	16	SUBWAY	1400	n/a	n/a	0	0	0
3602.844	n/a	WORD	1801422	wordpools/wasnorm_wordpool_576.txt	LTP283	ltpFR2	16	16	PARROT	1015	n/a	n/a	0	0	0
3605.522	n/a	WORD	1802761	wordpools/wasnorm_wordpool_576.txt	LTP283	ltpFR2	16	16	SNAIL	1332	n/a	n/a	0	0	0
3608.248	n/a	WORD	1804124	wordpools/wasnorm_wordpool_576.txt	LTP283	ltpFR2	16	16	SANDWICH	1232	n/a	n/a	0	0	0
3609.884	n/a	START	1804942	n/a	LTP283	ltpFR2	16	n/a	n/a	n/a	24	n/a	n/a	n/a	n/a
3610.76	n/a	DISTRACTOR	1805380	n/a	LTP283	ltpFR2	16	16	n/a	n/a	n/a	n/a	0	0	0
3610.8	n/a	PROB	1805400	n/a	LTP283	ltpFR2	16	n/a	n/a	n/a	24	14	1	9	4
3612.956	n/a	PROB	1806478	n/a	LTP283	ltpFR2	16	n/a	n/a	n/a	24	14	5	1	8
3614.752	n/a	PROB	1807376	n/a	LTP283	ltpFR2	16	n/a	n/a	n/a	24	23	5	9	9
3617.456	n/a	PROB	1808728	n/a	LTP283	ltpFR2	16	n/a	n/a	n/a	24	18	9	2	7
3619.122	n/a	PROB	1809561	n/a	LTP283	ltpFR2	16	n/a	n/a	n/a	24	20	7	7	6
3620.466	n/a	PROB	1810233	n/a	LTP283	ltpFR2	16	n/a	n/a	n/a	24	20	7	7	6
3621.792	n/a	PROB	1810896	n/a	LTP283	ltpFR2	16	n/a	n/a	n/a	24	17	2	7	8
3623.578	n/a	PROB	1811789	n/a	LTP283	ltpFR2	16	n/a	n/a	n/a	24	13	4	3	6
3625.128	n/a	PROB	1812564	n/a	LTP283	ltpFR2	16	n/a	n/a	n/a	24	19	9	5	5
3626.554	n/a	PROB	1813277	n/a	LTP283	ltpFR2	16	n/a	n/a	n/a	24	15	6	4	5
3628.03	n/a	PROB	1814015	n/a	LTP283	ltpFR2	16	n/a	n/a	n/a	24	21	8	4	9
3629.416	n/a	PROB	1814708	n/a	LTP283	ltpFR2	16	n/a	n/a	n/a	24	23	8	8	7
3631.592	n/a	PROB	1815796	n/a	LTP283	ltpFR2	16	n/a	n/a	n/a	24	8	2	3	3
3632.964	n/a	STOP	1816482	n/a	LTP283	ltpFR2	16	n/a	n/a	n/a	24	n/a	n/a	n/a	n/a
3635.928	n/a	REC_START	1817964	n/a	LTP283	ltpFR2	16	16	n/a	n/a	n/a	n/a	0	0	0
3637.688	n/a	REC_WORD	1818844	wordpools/wasnorm_wordpool_576.txt	LTP283	ltpFR2	16	16	PARROT	1015	n/a	n/a	0	0	0
3638.162	n/a	REC_WORD	1819081	wordpools/wasnorm_wordpool_576.txt	LTP283	ltpFR2	16	16	SNAIL	1332	n/a	n/a	0	0	0
3638.928	n/a	REC_WORD	1819464	wordpools/wasnorm_wordpool_576.txt	LTP283	ltpFR2	16	16	MARSH	874	n/a	n/a	0	0	0
3639.896	n/a	REC_WORD	1819948	wordpools/wasnorm_wordpool_576.txt	LTP283	ltpFR2	16	16	JUNGLE	764	n/a	n/a	0	0	0
3643.944	n/a	REC_WORD	1821972	wordpools/wasnorm_wordpool_576.txt	LTP283	ltpFR2	16	16	FRIEND	606	n/a	n/a	0	0	0
3644.56	n/a	REC_WORD	1822280	wordpools/wasnorm_wordpool_576.txt	LTP283	ltpFR2	16	16	CEILING	265	n/a	n/a	0	0	0
3645.578	n/a	REC_WORD	1822789	wordpools/wasnorm_wordpool_576.txt	LTP283	ltpFR2	16	16	GROUND	666	n/a	n/a	0	0	0
3646.416	n/a	REC_WORD	1823208	wordpools/wasnorm_wordpool_576.txt	LTP283	ltpFR2	16	16	BARLEY	88	n/a	n/a	0	0	0
3648.794	n/a	REC_WORD	1824397	wordpools/wasnorm_wordpool_576.txt	LTP283	ltpFR2	16	16	PIZZA	1079	n/a	n/a	0	0	0
3649.232	n/a	REC_WORD	1824616	wordpools/wasnorm_wordpool_576.txt	LTP283	ltpFR2	16	16	PERCH	1048	n/a	n/a	0	0	0
3649.702	n/a	REC_WORD	1824851	wordpools/wasnorm_wordpool_576.txt	LTP283	ltpFR2	16	16	PEDAL	1037	n/a	n/a	0	0	0
3650.212	n/a	REC_WORD	1825106	wordpools/wasnorm_wordpool_576.txt	LTP283	ltpFR2	16	16	SPONGE	1355	n/a	n/a	0	0	0
3651.59	n/a	REC_WORD	1825795	wordpools/wasnorm_wordpool_576.txt	LTP283	ltpFR2	16	16	NAPKIN	937	n/a	n/a	0	0	0
3652.172	n/a	REC_WORD	1826086	wordpools/wasnorm_wordpool_576.txt	LTP283	ltpFR2	16	16	HARP	689	n/a	n/a	0	0	0
3654.62	n/a	REC_WORD	1827310	wordpools/wasnorm_wordpool_576.txt	LTP283	ltpFR2	16	16	SANDWICH	1232	n/a	n/a	0	0	0
3655.62	n/a	REC_WORD_VV	1827810	wordpools/wasnorm_wordpool_576.txt	LTP283	ltpFR2	16	16	<>	-1	n/a	n/a	0	0	0
3656.446	n/a	REC_WORD	1828223	wordpools/wasnorm_wordpool_576.txt	LTP283	ltpFR2	16	16	SALAD	1224	n/a	n/a	0	0	0
3659.028	n/a	REC_WORD	1829514	wordpools/wasnorm_wordpool_576.txt	LTP283	ltpFR2	16	16	TWISTER	1530	n/a	n/a	0	0	0
3659.552	n/a	REC_WORD	1829776	wordpools/wasnorm_wordpool_576.txt	LTP283	ltpFR2	16	16	CYCLONE	431	n/a	n/a	0	0	0
3669.598	n/a	REC_WORD	1834799	wordpools/wasnorm_wordpool_576.txt	LTP283	ltpFR2	16	16	LEOPARD	812	n/a	n/a	0	0	0
3712.532	n/a	REST_REWET	1856266	n/a	LTP283	ltpFR2	16	16	n/a	n/a	n/a	n/a	0	0	0
3945.198	n/a	WORD	1972599	wordpools/wasnorm_wordpool_576.txt	LTP283	ltpFR2	16	17	CATTLE	261	n/a	n/a	0	0	0
3948.034	n/a	WORD	1974017	wordpools/wasnorm_wordpool_576.txt	LTP283	ltpFR2	16	17	COMPASS	358	n/a	n/a	0	0	0
3950.768	n/a	WORD	1975384	wordpools/wasnorm_wordpool_576.txt	LTP283	ltpFR2	16	17	BUG	187	n/a	n/a	0	0	0
3953.388	n/a	WORD	1976694	wordpools/wasnorm_wordpool_576.txt	LTP283	ltpFR2	16	17	SHOULDER	1294	n/a	n/a	0	0	0
3955.872	n/a	WORD	1977936	wordpools/wasnorm_wordpool_576.txt	LTP283	ltpFR2	16	17	IGLOO	734	n/a	n/a	0	0	0
3958.576	n/a	WORD	1979288	wordpools/wasnorm_wordpool_576.txt	LTP283	ltpFR2	16	17	SKIRT	1319	n/a	n/a	0	0	0
3961.394	n/a	WORD	1980697	wordpools/wasnorm_wordpool_576.txt	LTP283	ltpFR2	16	17	DRESS	495	n/a	n/a	0	0	0
3964.03	n/a	WORD	1982015	wordpools/wasnorm_wordpool_576.txt	LTP283	ltpFR2	16	17	SLIDE	1326	n/a	n/a	0	0	0
3966.814	n/a	WORD	1983407	wordpools/wasnorm_wordpool_576.txt	LTP283	ltpFR2	16	17	PADDING	999	n/a	n/a	0	0	0
3969.684	n/a	WORD	1984842	wordpools/wasnorm_wordpool_576.txt	LTP283	ltpFR2	16	17	FLIPPER	580	n/a	n/a	0	0	0
3972.236	n/a	WORD	1986118	wordpools/wasnorm_wordpool_576.txt	LTP283	ltpFR2	16	17	OX	994	n/a	n/a	0	0	0
3974.928	n/a	WORD	1987464	wordpools/wasnorm_wordpool_576.txt	LTP283	ltpFR2	16	17	DUST	508	n/a	n/a	0	0	0
3977.74	n/a	WORD	1988870	wordpools/wasnorm_wordpool_576.txt	LTP283	ltpFR2	16	17	HELMET	702	n/a	n/a	0	0	0
3980.434	n/a	WORD	1990217	wordpools/wasnorm_wordpool_576.txt	LTP283	ltpFR2	16	17	TEMPLE	1448	n/a	n/a	0	0	0
3982.928	n/a	WORD	1991464	wordpools/wasnorm_wordpool_576.txt	LTP283	ltpFR2	16	17	CLAMP	316	n/a	n/a	0	0	0
3985.78	n/a	WORD	1992890	wordpools/wasnorm_wordpool_576.txt	LTP283	ltpFR2	16	17	BUCKET	184	n/a	n/a	0	0	0
3988.282	n/a	WORD	1994141	wordpools/wasnorm_wordpool_576.txt	LTP283	ltpFR2	16	17	COBRA	336	n/a	n/a	0	0	0
3990.976	n/a	WORD	1995488	wordpools/wasnorm_wordpool_576.txt	LTP283	ltpFR2	16	17	CRICKET	408	n/a	n/a	0	0	0
3993.82	n/a	WORD	1996910	wordpools/wasnorm_wordpool_576.txt	LTP283	ltpFR2	16	17	PACKAGE	997	n/a	n/a	0	0	0
3996.372	n/a	WORD	1998186	wordpools/wasnorm_wordpool_576.txt	LTP283	ltpFR2	16	17	SWITCH	1422	n/a	n/a	0	0	0
3999.064	n/a	WORD	1999532	wordpools/wasnorm_wordpool_576.txt	LTP283	ltpFR2	16	17	KITCHEN	778	n/a	n/a	0	0	0
4001.876	n/a	WORD	2000938	wordpools/wasnorm_wordpool_576.txt	LTP283	ltpFR2	16	17	COD	340	n/a	n/a	0	0	0
4004.57	n/a	WORD	2002285	wordpools/wasnorm_wordpool_576.txt	LTP283	ltpFR2	16	17	FARMER	553	n/a	n/a	0	0	0
4007.38	n/a	WORD	2003690	wordpools/wasnorm_wordpool_576.txt	LTP283	ltpFR2	16	17	TRACTOR	1493	n/a	n/a	0	0	0
4009.016	n/a	START	2004508	n/a	LTP283	ltpFR2	16	n/a	n/a	n/a	25	n/a	n/a	n/a	n/a
4009.834	n/a	DISTRACTOR	2004917	n/a	LTP283	ltpFR2	16	17	n/a	n/a	n/a	n/a	0	0	0
4009.882	n/a	PROB	2004941	n/a	LTP283	ltpFR2	16	n/a	n/a	n/a	25	14	2	3	9
4011.84	n/a	PROB	2005920	n/a	LTP283	ltpFR2	16	n/a	n/a	n/a	25	12	4	7	1
4014.436	n/a	PROB	2007218	n/a	LTP283	ltpFR2	16	n/a	n/a	n/a	25	11	5	3	3
4016.754	n/a	PROB	2008377	n/a	LTP283	ltpFR2	16	n/a	n/a	n/a	25	14	3	2	9
4018.406	n/a	PROB	2009203	n/a	LTP283	ltpFR2	16	n/a	n/a	n/a	25	20	8	3	9
4019.774	n/a	PROB	2009887	n/a	LTP283	ltpFR2	16	n/a	n/a	n/a	25	13	1	8	4
4021.508	n/a	PROB	2010754	n/a	LTP283	ltpFR2	16	n/a	n/a	n/a	25	17	2	6	9
4023.444	n/a	PROB	2011722	n/a	LTP283	ltpFR2	16	n/a	n/a	n/a	25	14	4	3	7
4024.844	n/a	PROB	2012422	n/a	LTP283	ltpFR2	16	n/a	n/a	n/a	25	15	8	2	5
4026.752	n/a	PROB	2013376	n/a	LTP283	ltpFR2	16	n/a	n/a	n/a	25	9	1	3	5
4028.314	n/a	PROB	2014157	n/a	LTP283	ltpFR2	16	n/a	n/a	n/a	25	18	9	2	7
4030.104	n/a	PROB	2015052	n/a	LTP283	ltpFR2	16	n/a	n/a	n/a	25	19	5	8	6
4032.488	n/a	STOP	2016244	n/a	LTP283	ltpFR2	16	n/a	n/a	n/a	25	n/a	n/a	n/a	n/a
4034.936	n/a	REC_START	2017468	n/a	LTP283	ltpFR2	16	17	n/a	n/a	n/a	n/a	0	0	0
4038.094	n/a	REC_WORD	2019047	wordpools/wasnorm_wordpool_576.txt	LTP283	ltpFR2	16	17	FARMER	553	n/a	n/a	0	0	0
4038.558	n/a	REC_WORD	2019279	wordpools/wasnorm_wordpool_576.txt	LTP283	ltpFR2	16	17	TRACTOR	1493	n/a	n/a	0	0	0
4043.786	n/a	REC_WORD	2021893	wordpools/wasnorm_wordpool_576.txt	LTP283	ltpFR2	16	17	CATTLE	261	n/a	n/a	0	0	0
4044.544	n/a	REC_WORD	2022272	wordpools/wasnorm_wordpool_576.txt	LTP283	ltpFR2	16	17	BUG	187	n/a	n/a	0	0	0
4044.804	n/a	REC_WORD	2022402	wordpools/wasnorm_wordpool_576.txt	LTP283	ltpFR2	16	17	SHOULDER	1294	n/a	n/a	0	0	0
4045.452	n/a	REC_WORD	2022726	wordpools/wasnorm_wordpool_576.txt	LTP283	ltpFR2	16	17	COMPASS	358	n/a	n/a	0	0	0
4047.606	n/a	REC_WORD	2023803	wordpools/wasnorm_wordpool_576.txt	LTP283	ltpFR2	16	17	IGLOO	734	n/a	n/a	0	0	0
4049.88	n/a	REC_WORD	2024940	wordpools/wasnorm_wordpool_576.txt	LTP283	ltpFR2	16	17	SLIDE	1326	n/a	n/a	0	0	0
4051.124	n/a	REC_WORD	2025562	wordpools/wasnorm_wordpool_576.txt	LTP283	ltpFR2	16	17	SKIRT	1319	n/a	n/a	0	0	0
4051.888	n/a	REC_WORD	2025944	wordpools/wasnorm_wordpool_576.txt	LTP283	ltpFR2	16	17	DRESS	495	n/a	n/a	0	0	0
4052.546	n/a	REC_WORD	2026273	wordpools/wasnorm_wordpool_576.txt	LTP283	ltpFR2	16	17	PADDING	999	n/a	n/a	0	0	0
4053.058	n/a	REC_WORD	2026529	wordpools/wasnorm_wordpool_576.txt	LTP283	ltpFR2	16	17	HELMET	702	n/a	n/a	0	0	0
4054.972	n/a	REC_WORD	2027486	wordpools/wasnorm_wordpool_576.txt	LTP283	ltpFR2	16	17	OX	994	n/a	n/a	0	0	0
4056.328	n/a	REC_WORD	2028164	wordpools/wasnorm_wordpool_576.txt	LTP283	ltpFR2	16	17	DUST	508	n/a	n/a	0	0	0
4059.9	n/a	REC_WORD	2029950	wordpools/wasnorm_wordpool_576.txt	LTP283	ltpFR2	16	17	COD	340	n/a	n/a	0	0	0
4060.372	n/a	REC_WORD	2030186	wordpools/wasnorm_wordpool_576.txt	LTP283	ltpFR2	16	17	COBRA	336	n/a	n/a	0	0	0
4060.978	n/a	REC_WORD	2030489	wordpools/wasnorm_wordpool_576.txt	LTP283	ltpFR2	16	17	BUCKET	184	n/a	n/a	0	0	0
4062.088	n/a	REC_WORD	2031044	wordpools/wasnorm_wordpool_576.txt	LTP283	ltpFR2	16	17	CRICKET	408	n/a	n/a	0	0	0
4062.694	n/a	REC_WORD	2031347	wordpools/wasnorm_wordpool_576.txt	LTP283	ltpFR2	16	17	CLAMP	316	n/a	n/a	0	0	0
4066.394	n/a	REC_WORD	2033197	wordpools/wasnorm_wordpool_576.txt	LTP283	ltpFR2	16	17	KITCHEN	778	n/a	n/a	0	0	0
4079.85	n/a	REC_WORD	2039925	wordpools/wasnorm_wordpool_576.txt	LTP283	ltpFR2	16	17	FLIPPER	580	n/a	n/a	0	0	0
4088.158	n/a	REC_WORD	2044079	wordpools/wasnorm_wordpool_576.txt	LTP283	ltpFR2	16	17	TEMPLE	1448	n/a	n/a	0	0	0
4125.874	n/a	DISTRACTOR	2062937	n/a	LTP283	ltpFR2	16	18	n/a	n/a	n/a	n/a	0	0	0
4125.874	n/a	START	2062937	n/a	LTP283	ltpFR2	16	n/a	n/a	n/a	26	n/a	n/a	n/a	n/a
4125.94	n/a	PROB	2062970	n/a	LTP283	ltpFR2	16	n/a	n/a	n/a	26	11	1	1	9
4128.108	n/a	PROB	2064054	n/a	LTP283	ltpFR2	16	n/a	n/a	n/a	26	18	8	6	4
4129.694	n/a	PROB	2064847	n/a	LTP283	ltpFR2	16	n/a	n/a	n/a	26	12	5	2	5
4131.262	n/a	PROB	2065631	n/a	LTP283	ltpFR2	16	n/a	n/a	n/a	26	14	6	5	3
4133.514	n/a	PROB	2066757	n/a	LTP283	ltpFR2	16	n/a	n/a	n/a	26	22	8	6	8
