onset	duration	trial_type	sample	stim_file	subject	experiment	session	trial	task	item_name	item_num	recog_conf	resp	answer	test_x	test_y	test_z	color_b	color_g	color_r	case	font
234.414	n/a	SESS_START	117207	n/a	LTP110	ltpFR	12	n/a	n/a	n/a	n/a	4	n/a	n/a	0	0	0	n/a	n/a	n/a	n/a	n/a
251.926	n/a	START	125963	n/a	LTP110	ltpFR	12	n/a	n/a	n/a	n/a	n/a	n/a	n/a	n/a	n/a	n/a	n/a	n/a	n/a	n/a	n/a
251.952	n/a	PROB	125976	n/a	LTP110	ltpFR	12	n/a	n/a	n/a	n/a	n/a	n/a	23	9	5	9	n/a	n/a	n/a	n/a	n/a
254.076	n/a	PROB	127038	n/a	LTP110	ltpFR	12	n/a	n/a	n/a	n/a	n/a	n/a	20	8	4	8	n/a	n/a	n/a	n/a	n/a
255.576	n/a	PROB	127788	n/a	LTP110	ltpFR	12	n/a	n/a	n/a	n/a	n/a	n/a	11	1	3	7	n/a	n/a	n/a	n/a	n/a
256.658	n/a	PROB	128329	n/a	LTP110	ltpFR	12	n/a	n/a	n/a	n/a	n/a	n/a	10	4	4	2	n/a	n/a	n/a	n/a	n/a
258.24	n/a	PROB	129120	n/a	LTP110	ltpFR	12	n/a	n/a	n/a	n/a	n/a	n/a	12	8	2	2	n/a	n/a	n/a	n/a	n/a
259.372	n/a	PROB	129686	n/a	LTP110	ltpFR	12	n/a	n/a	n/a	n/a	n/a	n/a	8	5	1	2	n/a	n/a	n/a	n/a	n/a
260.674	n/a	PROB	130337	n/a	LTP110	ltpFR	12	n/a	n/a	n/a	n/a	n/a	n/a	11	4	1	6	n/a	n/a	n/a	n/a	n/a
261.74	n/a	PROB	130870	n/a	LTP110	ltpFR	12	n/a	n/a	n/a	n/a	n/a	n/a	12	6	2	4	n/a	n/a	n/a	n/a	n/a
263.04	n/a	PROB	131520	n/a	LTP110	ltpFR	12	n/a	n/a	n/a	n/a	n/a	n/a	19	9	7	3	n/a	n/a	n/a	n/a	n/a
264.406	n/a	PROB	132203	n/a	LTP110	ltpFR	12	n/a	n/a	n/a	n/a	n/a	n/a	17	8	6	3	n/a	n/a	n/a	n/a	n/a
266.098	n/a	PROB	133049	n/a	LTP110	ltpFR	12	n/a	n/a	n/a	n/a	n/a	n/a	8	5	2	1	n/a	n/a	n/a	n/a	n/a
267.304	n/a	PROB	133652	n/a	LTP110	ltpFR	12	n/a	n/a	n/a	n/a	n/a	n/a	19	5	7	7	n/a	n/a	n/a	n/a	n/a
268.83	n/a	PROB	134415	n/a	LTP110	ltpFR	12	n/a	n/a	n/a	n/a	n/a	n/a	17	4	9	4	n/a	n/a	n/a	n/a	n/a
271.926	n/a	STOP	135963	n/a	LTP110	ltpFR	12	n/a	n/a	n/a	n/a	n/a	n/a	n/a	n/a	n/a	n/a	n/a	n/a	n/a	n/a	n/a
285.892	n/a	START	142946	n/a	LTP110	ltpFR	12	n/a	n/a	n/a	n/a	n/a	n/a	n/a	n/a	n/a	n/a	n/a	n/a	n/a	n/a	n/a
287.398	n/a	PROB	143699	n/a	LTP110	ltpFR	12	n/a	n/a	n/a	n/a	n/a	n/a	15	4	2	9	n/a	n/a	n/a	n/a	n/a
288.956	n/a	PROB	144478	n/a	LTP110	ltpFR	12	n/a	n/a	n/a	n/a	n/a	n/a	19	2	9	8	n/a	n/a	n/a	n/a	n/a
290.156	n/a	PROB	145078	n/a	LTP110	ltpFR	12	n/a	n/a	n/a	n/a	n/a	n/a	19	7	8	4	n/a	n/a	n/a	n/a	n/a
291.632	n/a	PROB	145816	n/a	LTP110	ltpFR	12	n/a	n/a	n/a	n/a	n/a	n/a	11	8	1	2	n/a	n/a	n/a	n/a	n/a
292.794	n/a	STOP	146397	n/a	LTP110	ltpFR	12	n/a	n/a	n/a	n/a	n/a	n/a	n/a	n/a	n/a	n/a	n/a	n/a	n/a	n/a	n/a
295.004	n/a	WORD	147502	wordpools/wasnorm_wordpool.txt	LTP110	ltpFR	12	1	1	DIAMOND	458	n/a	0	n/a	0	0	0	1	0.412841796875	0.57763671875	upper	../fonts/amplitud.ttf
298.012	n/a	START	149006	n/a	LTP110	ltpFR	12	n/a	n/a	n/a	n/a	n/a	n/a	n/a	n/a	n/a	n/a	n/a	n/a	n/a	n/a	n/a
298.978	n/a	PROB	149489	n/a	LTP110	ltpFR	12	n/a	n/a	n/a	n/a	n/a	n/a	14	8	4	2	n/a	n/a	n/a	n/a	n/a
300.31	n/a	PROB	150155	n/a	LTP110	ltpFR	12	n/a	n/a	n/a	n/a	n/a	n/a	22	9	5	8	n/a	n/a	n/a	n/a	n/a
302.162	n/a	PROB	151081	n/a	LTP110	ltpFR	12	n/a	n/a	n/a	n/a	n/a	n/a	8	4	1	3	n/a	n/a	n/a	n/a	n/a
303.168	n/a	PROB	151584	n/a	LTP110	ltpFR	12	n/a	n/a	n/a	n/a	n/a	n/a	11	2	2	7	n/a	n/a	n/a	n/a	n/a
304.764	n/a	STOP	152382	n/a	LTP110	ltpFR	12	n/a	n/a	n/a	n/a	n/a	n/a	n/a	n/a	n/a	n/a	n/a	n/a	n/a	n/a	n/a
306.944	n/a	WORD	153472	wordpools/wasnorm_wordpool.txt	LTP110	ltpFR	12	1	1	CHIME	300	n/a	0	n/a	0	0	0	1	0.412841796875	0.57763671875	upper	../fonts/amplitud.ttf
309.952	n/a	START	154976	n/a	LTP110	ltpFR	12	n/a	n/a	n/a	n/a	n/a	n/a	n/a	n/a	n/a	n/a	n/a	n/a	n/a	n/a	n/a
311.026	n/a	PROB	155513	n/a	LTP110	ltpFR	12	n/a	n/a	n/a	n/a	n/a	n/a	6	1	4	1	n/a	n/a	n/a	n/a	n/a
312.206	n/a	PROB	156103	n/a	LTP110	ltpFR	12	n/a	n/a	n/a	n/a	n/a	n/a	17	9	7	1	n/a	n/a	n/a	n/a	n/a
314.422	n/a	PROB	157211	n/a	LTP110	ltpFR	12	n/a	n/a	n/a	n/a	n/a	n/a	16	5	6	5	n/a	n/a	n/a	n/a	n/a
316.19	n/a	PROB	158095	n/a	LTP110	ltpFR	12	n/a	n/a	n/a	n/a	n/a	n/a	8	4	1	4	n/a	n/a	n/a	n/a	n/a
317.132	n/a	STOP	158566	n/a	LTP110	ltpFR	12	n/a	n/a	n/a	n/a	n/a	n/a	n/a	n/a	n/a	n/a	n/a	n/a	n/a	n/a	n/a
318.914	n/a	WORD	159457	wordpools/wasnorm_wordpool.txt	LTP110	ltpFR	12	1	1	PEAR	1033	n/a	0	n/a	0	0	0	1	0.412841796875	0.57763671875	upper	../fonts/amplitud.ttf
321.922	n/a	START	160961	n/a	LTP110	ltpFR	12	n/a	n/a	n/a	n/a	n/a	n/a	n/a	n/a	n/a	n/a	n/a	n/a	n/a	n/a	n/a
322.806	n/a	PROB	161403	n/a	LTP110	ltpFR	12	n/a	n/a	n/a	n/a	n/a	n/a	14	4	4	6	n/a	n/a	n/a	n/a	n/a
324.696	n/a	PROB	162348	n/a	LTP110	ltpFR	12	n/a	n/a	n/a	n/a	n/a	n/a	19	7	7	5	n/a	n/a	n/a	n/a	n/a
326.062	n/a	PROB	163031	n/a	LTP110	ltpFR	12	n/a	n/a	n/a	n/a	n/a	n/a	17	4	7	6	n/a	n/a	n/a	n/a	n/a
327.978	n/a	PROB	163989	n/a	LTP110	ltpFR	12	n/a	n/a	n/a	n/a	n/a	n/a	13	6	6	1	n/a	n/a	n/a	n/a	n/a
329.052	n/a	STOP	164526	n/a	LTP110	ltpFR	12	n/a	n/a	n/a	n/a	n/a	n/a	n/a	n/a	n/a	n/a	n/a	n/a	n/a	n/a	n/a
331.036	n/a	WORD	165518	wordpools/wasnorm_wordpool.txt	LTP110	ltpFR	12	1	1	TREE	1502	n/a	0	n/a	0	0	0	1	0.412841796875	0.57763671875	upper	../fonts/amplitud.ttf
334.044	n/a	START	167022	n/a	LTP110	ltpFR	12	n/a	n/a	n/a	n/a	n/a	n/a	n/a	n/a	n/a	n/a	n/a	n/a	n/a	n/a	n/a
335.042	n/a	PROB	167521	n/a	LTP110	ltpFR	12	n/a	n/a	n/a	n/a	n/a	n/a	14	1	9	4	n/a	n/a	n/a	n/a	n/a
336.266	n/a	PROB	168133	n/a	LTP110	ltpFR	12	n/a	n/a	n/a	n/a	n/a	n/a	14	4	4	6	n/a	n/a	n/a	n/a	n/a
337.316	n/a	PROB	168658	n/a	LTP110	ltpFR	12	n/a	n/a	n/a	n/a	n/a	n/a	14	4	8	2	n/a	n/a	n/a	n/a	n/a
338.608	n/a	PROB	169304	n/a	LTP110	ltpFR	12	n/a	n/a	n/a	n/a	n/a	n/a	14	5	7	2	n/a	n/a	n/a	n/a	n/a
340.606	n/a	STOP	170303	n/a	LTP110	ltpFR	12	n/a	n/a	n/a	n/a	n/a	n/a	n/a	n/a	n/a	n/a	n/a	n/a	n/a	n/a	n/a
342.9	n/a	WORD	171450	wordpools/wasnorm_wordpool.txt	LTP110	ltpFR	12	1	1	NURSERY	964	n/a	0	n/a	0	0	0	1	0.412841796875	0.57763671875	upper	../fonts/amplitud.ttf
345.906	n/a	START	172953	n/a	LTP110	ltpFR	12	n/a	n/a	n/a	n/a	n/a	n/a	n/a	n/a	n/a	n/a	n/a	n/a	n/a	n/a	n/a
346.79	n/a	PROB	173395	n/a	LTP110	ltpFR	12	n/a	n/a	n/a	n/a	n/a	n/a	13	1	7	5	n/a	n/a	n/a	n/a	n/a
348.038	n/a	PROB	174019	n/a	LTP110	ltpFR	12	n/a	n/a	n/a	n/a	n/a	n/a	15	1	5	9	n/a	n/a	n/a	n/a	n/a
348.996	n/a	PROB	174498	n/a	LTP110	ltpFR	12	n/a	n/a	n/a	n/a	n/a	n/a	14	6	4	4	n/a	n/a	n/a	n/a	n/a
350.064	n/a	PROB	175032	n/a	LTP110	ltpFR	12	n/a	n/a	n/a	n/a	n/a	n/a	11	1	8	2	n/a	n/a	n/a	n/a	n/a
350.954	n/a	PROB	175477	n/a	LTP110	ltpFR	12	n/a	n/a	n/a	n/a	n/a	n/a	13	3	2	8	n/a	n/a	n/a	n/a	n/a
352.372	n/a	STOP	176186	n/a	LTP110	ltpFR	12	n/a	n/a	n/a	n/a	n/a	n/a	n/a	n/a	n/a	n/a	n/a	n/a	n/a	n/a	n/a
355.078	n/a	WORD	177539	wordpools/wasnorm_wordpool.txt	LTP110	ltpFR	12	1	1	SHRUB	1299	n/a	0	n/a	0	0	0	1	0.412841796875	0.57763671875	upper	../fonts/amplitud.ttf
358.086	n/a	START	179043	n/a	LTP110	ltpFR	12	n/a	n/a	n/a	n/a	n/a	n/a	n/a	n/a	n/a	n/a	n/a	n/a	n/a	n/a	n/a
358.944	n/a	PROB	179472	n/a	LTP110	ltpFR	12	n/a	n/a	n/a	n/a	n/a	n/a	21	8	8	5	n/a	n/a	n/a	n/a	n/a
361.61	n/a	PROB	180805	n/a	LTP110	ltpFR	12	n/a	n/a	n/a	n/a	n/a	n/a	9	4	4	1	n/a	n/a	n/a	n/a	n/a
362.718	n/a	PROB	181359	n/a	LTP110	ltpFR	12	n/a	n/a	n/a	n/a	n/a	n/a	174	7	3	4	n/a	n/a	n/a	n/a	n/a
366.086	n/a	STOP	183043	n/a	LTP110	ltpFR	12	n/a	n/a	n/a	n/a	n/a	n/a	n/a	n/a	n/a	n/a	n/a	n/a	n/a	n/a	n/a
367.248	n/a	WORD	183624	wordpools/wasnorm_wordpool.txt	LTP110	ltpFR	12	1	1	CLOWN	330	n/a	1	n/a	0	0	0	1	0.412841796875	0.57763671875	upper	../fonts/amplitud.ttf
370.256	n/a	START	185128	n/a	LTP110	ltpFR	12	n/a	n/a	n/a	n/a	n/a	n/a	n/a	n/a	n/a	n/a	n/a	n/a	n/a	n/a	n/a
371.448	n/a	PROB	185724	n/a	LTP110	ltpFR	12	n/a	n/a	n/a	n/a	n/a	n/a	16	8	4	4	n/a	n/a	n/a	n/a	n/a
372.956	n/a	PROB	186478	n/a	LTP110	ltpFR	12	n/a	n/a	n/a	n/a	n/a	n/a	19	8	8	3	n/a	n/a	n/a	n/a	n/a
374.922	n/a	PROB	187461	n/a	LTP110	ltpFR	12	n/a	n/a	n/a	n/a	n/a	n/a	13	2	5	6	n/a	n/a	n/a	n/a	n/a
378.256	n/a	STOP	189128	n/a	LTP110	ltpFR	12	n/a	n/a	n/a	n/a	n/a	n/a	n/a	n/a	n/a	n/a	n/a	n/a	n/a	n/a	n/a
379.17	n/a	WORD	189585	wordpools/wasnorm_wordpool.txt	LTP110	ltpFR	12	1	1	WHEAT	1602	n/a	0	n/a	0	0	0	1	0.412841796875	0.57763671875	upper	../fonts/amplitud.ttf
382.178	n/a	START	191089	n/a	LTP110	ltpFR	12	n/a	n/a	n/a	n/a	n/a	n/a	n/a	n/a	n/a	n/a	n/a	n/a	n/a	n/a	n/a
383.244	n/a	PROB	191622	n/a	LTP110	ltpFR	12	n/a	n/a	n/a	n/a	n/a	n/a	16	1	8	7	n/a	n/a	n/a	n/a	n/a
384.368	n/a	PROB	192184	n/a	LTP110	ltpFR	12	n/a	n/a	n/a	n/a	n/a	n/a	13	8	4	1	n/a	n/a	n/a	n/a	n/a
385.652	n/a	PROB	192826	n/a	LTP110	ltpFR	12	n/a	n/a	n/a	n/a	n/a	n/a	22	6	9	7	n/a	n/a	n/a	n/a	n/a
387.494	n/a	PROB	193747	n/a	LTP110	ltpFR	12	n/a	n/a	n/a	n/a	n/a	n/a	6	2	2	2	n/a	n/a	n/a	n/a	n/a
390.178	n/a	STOP	195089	n/a	LTP110	ltpFR	12	n/a	n/a	n/a	n/a	n/a	n/a	n/a	n/a	n/a	n/a	n/a	n/a	n/a	n/a	n/a
391.25	n/a	WORD	195625	wordpools/wasnorm_wordpool.txt	LTP110	ltpFR	12	1	1	MANAGER	863	n/a	1	n/a	0	0	0	1	0.412841796875	0.57763671875	upper	../fonts/amplitud.ttf
394.258	n/a	START	197129	n/a	LTP110	ltpFR	12	n/a	n/a	n/a	n/a	n/a	n/a	n/a	n/a	n/a	n/a	n/a	n/a	n/a	n/a	n/a
395.092	n/a	PROB	197546	n/a	LTP110	ltpFR	12	n/a	n/a	n/a	n/a	n/a	n/a	25	9	9	7	n/a	n/a	n/a	n/a	n/a
397.422	n/a	PROB	198711	n/a	LTP110	ltpFR	12	n/a	n/a	n/a	n/a	n/a	n/a	21	8	5	8	n/a	n/a	n/a	n/a	n/a
400.098	n/a	PROB	200049	n/a	LTP110	ltpFR	12	n/a	n/a	n/a	n/a	n/a	n/a	17	4	6	7	n/a	n/a	n/a	n/a	n/a
401.384	n/a	STOP	200692	n/a	LTP110	ltpFR	12	n/a	n/a	n/a	n/a	n/a	n/a	n/a	n/a	n/a	n/a	n/a	n/a	n/a	n/a	n/a
403.222	n/a	WORD	201611	wordpools/wasnorm_wordpool.txt	LTP110	ltpFR	12	1	1	PAPER	1011	n/a	0	n/a	0	0	0	1	0.412841796875	0.57763671875	upper	../fonts/amplitud.ttf
406.23	n/a	START	203115	n/a	LTP110	ltpFR	12	n/a	n/a	n/a	n/a	n/a	n/a	n/a	n/a	n/a	n/a	n/a	n/a	n/a	n/a	n/a
407.412	n/a	PROB	203706	n/a	LTP110	ltpFR	12	n/a	n/a	n/a	n/a	n/a	n/a	17	9	7	1	n/a	n/a	n/a	n/a	n/a
408.52	n/a	PROB	204260	n/a	LTP110	ltpFR	12	n/a	n/a	n/a	n/a	n/a	n/a	20	9	8	3	n/a	n/a	n/a	n/a	n/a
410.078	n/a	PROB	205039	n/a	LTP110	ltpFR	12	n/a	n/a	n/a	n/a	n/a	n/a	17	9	4	4	n/a	n/a	n/a	n/a	n/a
411.586	n/a	PROB	205793	n/a	LTP110	ltpFR	12	n/a	n/a	n/a	n/a	n/a	n/a	18	7	2	9	n/a	n/a	n/a	n/a	n/a
413.448	n/a	STOP	206724	n/a	LTP110	ltpFR	12	n/a	n/a	n/a	n/a	n/a	n/a	n/a	n/a	n/a	n/a	n/a	n/a	n/a	n/a	n/a
415.426	n/a	WORD	207713	wordpools/wasnorm_wordpool.txt	LTP110	ltpFR	12	1	1	KLEENEX	782	n/a	0	n/a	0	0	0	1	0.412841796875	0.57763671875	upper	../fonts/amplitud.ttf
418.434	n/a	START	209217	n/a	LTP110	ltpFR	12	n/a	n/a	n/a	n/a	n/a	n/a	n/a	n/a	n/a	n/a	n/a	n/a	n/a	n/a	n/a
419.266	n/a	PROB	209633	n/a	LTP110	ltpFR	12	n/a	n/a	n/a	n/a	n/a	n/a	18	5	4	9	n/a	n/a	n/a	n/a	n/a
420.75	n/a	PROB	210375	n/a	LTP110	ltpFR	12	n/a	n/a	n/a	n/a	n/a	n/a	11	7	3	1	n/a	n/a	n/a	n/a	n/a
422.058	n/a	PROB	211029	n/a	LTP110	ltpFR	12	n/a	n/a	n/a	n/a	n/a	n/a	15	5	2	8	n/a	n/a	n/a	n/a	n/a
423.15	n/a	PROB	211575	n/a	LTP110	ltpFR	12	n/a	n/a	n/a	n/a	n/a	n/a	11	1	7	3	n/a	n/a	n/a	n/a	n/a
424.124	n/a	PROB	212062	n/a	LTP110	ltpFR	12	n/a	n/a	n/a	n/a	n/a	n/a	11	2	2	7	n/a	n/a	n/a	n/a	n/a
425.296	n/a	STOP	212648	n/a	LTP110	ltpFR	12	n/a	n/a	n/a	n/a	n/a	n/a	n/a	n/a	n/a	n/a	n/a	n/a	n/a	n/a	n/a
427.488	n/a	WORD	213744	wordpools/wasnorm_wordpool.txt	LTP110	ltpFR	12	1	1	PAW	1029	n/a	0	n/a	0	0	0	1	0.412841796875	0.57763671875	upper	../fonts/amplitud.ttf
430.498	n/a	START	215249	n/a	LTP110	ltpFR	12	n/a	n/a	n/a	n/a	n/a	n/a	n/a	n/a	n/a	n/a	n/a	n/a	n/a	n/a	n/a
431.462	n/a	PROB	215731	n/a	LTP110	ltpFR	12	n/a	n/a	n/a	n/a	n/a	n/a	18	6	3	9	n/a	n/a	n/a	n/a	n/a
433.478	n/a	PROB	216739	n/a	LTP110	ltpFR	12	n/a	n/a	n/a	n/a	n/a	n/a	7	4	2	1	n/a	n/a	n/a	n/a	n/a
434.72	n/a	PROB	217360	n/a	LTP110	ltpFR	12	n/a	n/a	n/a	n/a	n/a	n/a	17	7	6	4	n/a	n/a	n/a	n/a	n/a
436.22	n/a	PROB	218110	n/a	LTP110	ltpFR	12	n/a	n/a	n/a	n/a	n/a	n/a	8	2	4	2	n/a	n/a	n/a	n/a	n/a
438.106	n/a	STOP	219053	n/a	LTP110	ltpFR	12	n/a	n/a	n/a	n/a	n/a	n/a	n/a	n/a	n/a	n/a	n/a	n/a	n/a	n/a	n/a
439.562	n/a	WORD	219781	wordpools/wasnorm_wordpool.txt	LTP110	ltpFR	12	1	1	FOLLOWER	589	n/a	1	n/a	0	0	0	1	0.412841796875	0.57763671875	upper	../fonts/amplitud.ttf
442.57	n/a	START	221285	n/a	LTP110	ltpFR	12	n/a	n/a	n/a	n/a	n/a	n/a	n/a	n/a	n/a	n/a	n/a	n/a	n/a	n/a	n/a
443.46	n/a	PROB	221730	n/a	LTP110	ltpFR	12	n/a	n/a	n/a	n/a	n/a	n/a	18	9	1	8	n/a	n/a	n/a	n/a	n/a
445.334	n/a	PROB	222667	n/a	LTP110	ltpFR	12	n/a	n/a	n/a	n/a	n/a	n/a	13	4	2	7	n/a	n/a	n/a	n/a	n/a
448.008	n/a	PROB	224004	n/a	LTP110	ltpFR	12	n/a	n/a	n/a	n/a	n/a	n/a	15	3	8	4	n/a	n/a	n/a	n/a	n/a
449.234	n/a	STOP	224617	n/a	LTP110	ltpFR	12	n/a	n/a	n/a	n/a	n/a	n/a	n/a	n/a	n/a	n/a	n/a	n/a	n/a	n/a	n/a
451.54	n/a	WORD	225770	wordpools/wasnorm_wordpool.txt	LTP110	ltpFR	12	1	1	CRIB	407	n/a	0	n/a	0	0	0	1	0.412841796875	0.57763671875	upper	../fonts/amplitud.ttf
454.548	n/a	START	227274	n/a	LTP110	ltpFR	12	n/a	n/a	n/a	n/a	n/a	n/a	n/a	n/a	n/a	n/a	n/a	n/a	n/a	n/a	n/a
455.464	n/a	PROB	227732	n/a	LTP110	ltpFR	12	n/a	n/a	n/a	n/a	n/a	n/a	18	9	8	1	n/a	n/a	n/a	n/a	n/a
456.498	n/a	PROB	228249	n/a	LTP110	ltpFR	12	n/a	n/a	n/a	n/a	n/a	n/a	15	6	1	8	n/a	n/a	n/a	n/a	n/a
458.246	n/a	PROB	229123	n/a	LTP110	ltpFR	12	n/a	n/a	n/a	n/a	n/a	n/a	15	5	6	4	n/a	n/a	n/a	n/a	n/a
460.088	n/a	PROB	230044	n/a	LTP110	ltpFR	12	n/a	n/a	n/a	n/a	n/a	n/a	15	7	4	4	n/a	n/a	n/a	n/a	n/a
461.466	n/a	STOP	230733	n/a	LTP110	ltpFR	12	n/a	n/a	n/a	n/a	n/a	n/a	n/a	n/a	n/a	n/a	n/a	n/a	n/a	n/a	n/a
463.37	n/a	WORD	231685	wordpools/wasnorm_wordpool.txt	LTP110	ltpFR	12	1	1	ZEBRA	1635	n/a	1	n/a	0	0	0	1	0.412841796875	0.57763671875	upper	../fonts/amplitud.ttf
466.378	n/a	START	233189	n/a	LTP110	ltpFR	12	n/a	n/a	n/a	n/a	n/a	n/a	n/a	n/a	n/a	n/a	n/a	n/a	n/a	n/a	n/a
467.41	n/a	PROB	233705	n/a	LTP110	ltpFR	12	n/a	n/a	n/a	n/a	n/a	n/a	21	8	9	4	n/a	n/a	n/a	n/a	n/a
469.926	n/a	PROB	234963	n/a	LTP110	ltpFR	12	n/a	n/a	n/a	n/a	n/a	n/a	15	4	7	4	n/a	n/a	n/a	n/a	n/a
471.476	n/a	PROB	235738	n/a	LTP110	ltpFR	12	n/a	n/a	n/a	n/a	n/a	n/a	15	2	9	4	n/a	n/a	n/a	n/a	n/a
472.66	n/a	PROB	236330	n/a	LTP110	ltpFR	12	n/a	n/a	n/a	n/a	n/a	n/a	17	8	4	5	n/a	n/a	n/a	n/a	n/a
474.186	n/a	STOP	237093	n/a	LTP110	ltpFR	12	n/a	n/a	n/a	n/a	n/a	n/a	n/a	n/a	n/a	n/a	n/a	n/a	n/a	n/a	n/a
475.474	n/a	WORD	237737	wordpools/wasnorm_wordpool.txt	LTP110	ltpFR	12	1	1	OUTFIT	988	n/a	0	n/a	0	0	0	1	0.412841796875	0.57763671875	upper	../fonts/amplitud.ttf
478.482	n/a	START	239241	n/a	LTP110	ltpFR	12	n/a	n/a	n/a	n/a	n/a	n/a	n/a	n/a	n/a	n/a	n/a	n/a	n/a	n/a	n/a
479.566	n/a	PROB	239783	n/a	LTP110	ltpFR	12	n/a	n/a	n/a	n/a	n/a	n/a	16	4	9	3	n/a	n/a	n/a	n/a	n/a
482.59	n/a	PROB	241295	n/a	LTP110	ltpFR	12	n/a	n/a	n/a	n/a	n/a	n/a	21	9	9	3	n/a	n/a	n/a	n/a	n/a
486.276	n/a	STOP	243138	n/a	LTP110	ltpFR	12	n/a	n/a	n/a	n/a	n/a	n/a	n/a	n/a	n/a	n/a	n/a	n/a	n/a	n/a	n/a
488.296	n/a	REC_START	244148	n/a	LTP110	ltpFR	12	1	n/a	n/a	n/a	n/a	n/a	n/a	0	0	0	n/a	n/a	n/a	n/a	n/a
489.928	n/a	REC_WORD	244964	wordpools/wasnorm_wordpool.txt	LTP110	ltpFR	12	1	1	CLOWN	330	n/a	1	n/a	0	0	0	n/a	n/a	n/a	n/a	n/a
490.7	n/a	REC_WORD	245350	wordpools/wasnorm_wordpool.txt	LTP110	ltpFR	12	1	1	OUTFIT	988	n/a	0	n/a	0	0	0	n/a	n/a	n/a	n/a	n/a
491.464	n/a	REC_WORD	245732	wordpools/wasnorm_wordpool.txt	LTP110	ltpFR	12	1	1	MANAGER	863	n/a	1	n/a	0	0	0	n/a	n/a	n/a	n/a	n/a
492.432	n/a	REC_WORD	246216	wordpools/wasnorm_wordpool.txt	LTP110	ltpFR	12	1	1	PAW	1029	n/a	0	n/a	0	0	0	n/a	n/a	n/a	n/a	n/a
493.056	n/a	REC_WORD	246528	wordpools/wasnorm_wordpool.txt	LTP110	ltpFR	12	1	1	KLEENEX	782	n/a	0	n/a	0	0	0	n/a	n/a	n/a	n/a	n/a
493.824	n/a	REC_WORD	246912	wordpools/wasnorm_wordpool.txt	LTP110	ltpFR	12	1	1	PAPER	1011	n/a	0	n/a	0	0	0	n/a	n/a	n/a	n/a	n/a
496.274	n/a	REC_WORD	248137	wordpools/wasnorm_wordpool.txt	LTP110	ltpFR	12	1	1	CRIB	407	n/a	0	n/a	0	0	0	n/a	n/a	n/a	n/a	n/a
496.918	n/a	REC_WORD	248459	wordpools/wasnorm_wordpool.txt	LTP110	ltpFR	12	1	1	NURSERY	964	n/a	0	n/a	0	0	0	n/a	n/a	n/a	n/a	n/a
498.024	n/a	REC_WORD	249012	wordpools/wasnorm_wordpool.txt	LTP110	ltpFR	12	1	1	ZEBRA	1635	n/a	1	n/a	0	0	0	n/a	n/a	n/a	n/a	n/a
503.468	n/a	REC_WORD	251734	wordpools/wasnorm_wordpool.txt	LTP110	ltpFR	12	1	1	FOLLOWER	589	n/a	1	n/a	0	0	0	n/a	n/a	n/a	n/a	n/a
505.662	n/a	REC_WORD	252831	wordpools/wasnorm_wordpool.txt	LTP110	ltpFR	12	1	1	TREE	1502	n/a	0	n/a	0	0	0	n/a	n/a	n/a	n/a	n/a
506.198	n/a	REC_WORD	253099	wordpools/wasnorm_wordpool.txt	LTP110	ltpFR	12	1	1	SHRUB	1299	n/a	0	n/a	0	0	0	n/a	n/a	n/a	n/a	n/a
507.15	n/a	REC_WORD	253575	wordpools/wasnorm_wordpool.txt	LTP110	ltpFR	12	1	1	WHEAT	1602	n/a	0	n/a	0	0	0	n/a	n/a	n/a	n/a	n/a
509.364	n/a	REC_WORD	254682	wordpools/wasnorm_wordpool.txt	LTP110	ltpFR	12	1	1	DIAMOND	458	n/a	0	n/a	0	0	0	n/a	n/a	n/a	n/a	n/a
510.382	n/a	REC_WORD	255191	wordpools/wasnorm_wordpool.txt	LTP110	ltpFR	12	1	1	CHIME	300	n/a	0	n/a	0	0	0	n/a	n/a	n/a	n/a	n/a
511.266	n/a	REC_WORD	255633	wordpools/wasnorm_wordpool.txt	LTP110	ltpFR	12	1	1	PEAR	1033	n/a	0	n/a	0	0	0	n/a	n/a	n/a	n/a	n/a
568.706	n/a	WORD	284353	wordpools/wasnorm_wordpool.txt	LTP110	ltpFR	12	2	1	BIRD	129	n/a	1	n/a	0	0	0	1	0.412841796875	0.57763671875	upper	../fonts/amplitud.ttf
572.904	n/a	WORD	286452	wordpools/wasnorm_wordpool.txt	LTP110	ltpFR	12	2	1	GARLIC	624	n/a	0	n/a	0	0	0	1	0.412841796875	0.57763671875	upper	../fonts/amplitud.ttf
577.094	n/a	WORD	288547	wordpools/wasnorm_wordpool.txt	LTP110	ltpFR	12	2	1	OBOE	969	n/a	0	n/a	0	0	0	1	0.412841796875	0.57763671875	upper	../fonts/amplitud.ttf
581.094	n/a	WORD	290547	wordpools/wasnorm_wordpool.txt	LTP110	ltpFR	12	2	1	ORCHESTRA	981	n/a	0	n/a	0	0	0	1	0.412841796875	0.57763671875	upper	../fonts/amplitud.ttf
585.182	n/a	WORD	292591	wordpools/wasnorm_wordpool.txt	LTP110	ltpFR	12	2	1	SPRINKLE	1359	n/a	0	n/a	0	0	0	1	0.412841796875	0.57763671875	upper	../fonts/amplitud.ttf
589.058	n/a	WORD	294529	wordpools/wasnorm_wordpool.txt	LTP110	ltpFR	12	2	1	SAGE	1222	n/a	0	n/a	0	0	0	1	0.412841796875	0.57763671875	upper	../fonts/amplitud.ttf
593.106	n/a	WORD	296553	wordpools/wasnorm_wordpool.txt	LTP110	ltpFR	12	2	1	SANDWICH	1232	n/a	0	n/a	0	0	0	1	0.412841796875	0.57763671875	upper	../fonts/amplitud.ttf
597.014	n/a	WORD	298507	wordpools/wasnorm_wordpool.txt	LTP110	ltpFR	12	2	1	YACHT	1629	n/a	0	n/a	0	0	0	1	0.412841796875	0.57763671875	upper	../fonts/amplitud.ttf
600.87	n/a	WORD	300435	wordpools/wasnorm_wordpool.txt	LTP110	ltpFR	12	2	1	HAWK	692	n/a	1	n/a	0	0	0	1	0.412841796875	0.57763671875	upper	../fonts/amplitud.ttf
604.752	n/a	WORD	302376	wordpools/wasnorm_wordpool.txt	LTP110	ltpFR	12	2	1	BANDIT	81	n/a	1	n/a	0	0	0	1	0.412841796875	0.57763671875	upper	../fonts/amplitud.ttf
608.734	n/a	WORD	304367	wordpools/wasnorm_wordpool.txt	LTP110	ltpFR	12	2	1	EGYPT	519	n/a	0	n/a	0	0	0	1	0.412841796875	0.57763671875	upper	../fonts/amplitud.ttf
612.942	n/a	WORD	306471	wordpools/wasnorm_wordpool.txt	LTP110	ltpFR	12	2	1	PENDULUM	1043	n/a	0	n/a	0	0	0	1	0.412841796875	0.57763671875	upper	../fonts/amplitud.ttf
616.866	n/a	WORD	308433	wordpools/wasnorm_wordpool.txt	LTP110	ltpFR	12	2	1	PIER	1063	n/a	0	n/a	0	0	0	1	0.412841796875	0.57763671875	upper	../fonts/amplitud.ttf
620.882	n/a	WORD	310441	wordpools/wasnorm_wordpool.txt	LTP110	ltpFR	12	2	1	DEER	444	n/a	1	n/a	0	0	0	1	0.412841796875	0.57763671875	upper	../fonts/amplitud.ttf
624.938	n/a	WORD	312469	wordpools/wasnorm_wordpool.txt	LTP110	ltpFR	12	2	1	RAFT	1159	n/a	0	n/a	0	0	0	1	0.412841796875	0.57763671875	upper	../fonts/amplitud.ttf
629.078	n/a	WORD	314539	wordpools/wasnorm_wordpool.txt	LTP110	ltpFR	12	2	1	SINK	1309	n/a	0	n/a	0	0	0	1	0.412841796875	0.57763671875	upper	../fonts/amplitud.ttf
632.086	n/a	START	316043	n/a	LTP110	ltpFR	12	n/a	n/a	n/a	n/a	n/a	n/a	n/a	n/a	n/a	n/a	n/a	n/a	n/a	n/a	n/a
633.152	n/a	PROB	316576	n/a	LTP110	ltpFR	12	n/a	n/a	n/a	n/a	n/a	n/a	12	8	3	1	n/a	n/a	n/a	n/a	n/a
634.226	n/a	PROB	317113	n/a	LTP110	ltpFR	12	n/a	n/a	n/a	n/a	n/a	n/a	15	1	7	7	n/a	n/a	n/a	n/a	n/a
635.284	n/a	PROB	317642	n/a	LTP110	ltpFR	12	n/a	n/a	n/a	n/a	n/a	n/a	21	4	8	9	n/a	n/a	n/a	n/a	n/a
636.852	n/a	PROB	318426	n/a	LTP110	ltpFR	12	n/a	n/a	n/a	n/a	n/a	n/a	15	1	7	7	n/a	n/a	n/a	n/a	n/a
637.91	n/a	PROB	318955	n/a	LTP110	ltpFR	12	n/a	n/a	n/a	n/a	n/a	n/a	14	7	6	1	n/a	n/a	n/a	n/a	n/a
639.3	n/a	STOP	319650	n/a	LTP110	ltpFR	12	n/a	n/a	n/a	n/a	n/a	n/a	n/a	n/a	n/a	n/a	n/a	n/a	n/a	n/a	n/a
641.842	n/a	REC_START	320921	n/a	LTP110	ltpFR	12	2	n/a	n/a	n/a	n/a	n/a	n/a	0	0	0	n/a	n/a	n/a	n/a	n/a
644.072	n/a	REC_WORD	322036	wordpools/wasnorm_wordpool.txt	LTP110	ltpFR	12	2	1	PIER	1063	n/a	0	n/a	0	0	0	n/a	n/a	n/a	n/a	n/a
644.706	n/a	REC_WORD	322353	wordpools/wasnorm_wordpool.txt	LTP110	ltpFR	12	2	1	YACHT	1629	n/a	0	n/a	0	0	0	n/a	n/a	n/a	n/a	n/a
646.706	n/a	REC_WORD	323353	wordpools/wasnorm_wordpool.txt	LTP110	ltpFR	12	2	1	BANDIT	81	n/a	1	n/a	0	0	0	n/a	n/a	n/a	n/a	n/a
647.524	n/a	REC_WORD	323762	wordpools/wasnorm_wordpool.txt	LTP110	ltpFR	12	2	1	DEER	444	n/a	1	n/a	0	0	0	n/a	n/a	n/a	n/a	n/a
648.342	n/a	REC_WORD	324171	wordpools/wasnorm_wordpool.txt	LTP110	ltpFR	12	2	1	BIRD	129	n/a	1	n/a	0	0	0	n/a	n/a	n/a	n/a	n/a
649.312	n/a	REC_WORD	324656	wordpools/wasnorm_wordpool.txt	LTP110	ltpFR	12	2	1	GARLIC	624	n/a	0	n/a	0	0	0	n/a	n/a	n/a	n/a	n/a
650.034	n/a	REC_WORD	325017	wordpools/wasnorm_wordpool.txt	LTP110	ltpFR	12	2	1	SPRINKLE	1359	n/a	0	n/a	0	0	0	n/a	n/a	n/a	n/a	n/a
651.436	n/a	REC_WORD	325718	wordpools/wasnorm_wordpool.txt	LTP110	ltpFR	12	2	1	OBOE	969	n/a	0	n/a	0	0	0	n/a	n/a	n/a	n/a	n/a
652.164	n/a	REC_WORD	326082	wordpools/wasnorm_wordpool.txt	LTP110	ltpFR	12	2	1	ORCHESTRA	981	n/a	0	n/a	0	0	0	n/a	n/a	n/a	n/a	n/a
653.852	n/a	REC_WORD	326926	wordpools/wasnorm_wordpool.txt	LTP110	ltpFR	12	2	1	EGYPT	519	n/a	0	n/a	0	0	0	n/a	n/a	n/a	n/a	n/a
656.436	n/a	REC_WORD	328218	wordpools/wasnorm_wordpool.txt	LTP110	ltpFR	12	2	1	PENDULUM	1043	n/a	0	n/a	0	0	0	n/a	n/a	n/a	n/a	n/a
657.842	n/a	REC_WORD	328921	wordpools/wasnorm_wordpool.txt	LTP110	ltpFR	12	2	1	RAFT	1159	n/a	0	n/a	0	0	0	n/a	n/a	n/a	n/a	n/a
660.66	n/a	REC_WORD	330330	wordpools/wasnorm_wordpool.txt	LTP110	ltpFR	12	2	1	SINK	1309	n/a	0	n/a	0	0	0	n/a	n/a	n/a	n/a	n/a
665.544	n/a	REC_WORD	332772	wordpools/wasnorm_wordpool.txt	LTP110	ltpFR	12	2	1	HAWK	692	n/a	1	n/a	0	0	0	n/a	n/a	n/a	n/a	n/a
673.248	n/a	REC_WORD	336624	wordpools/wasnorm_wordpool.txt	LTP110	ltpFR	12	2	1	SAGE	1222	n/a	0	n/a	0	0	0	n/a	n/a	n/a	n/a	n/a
721.208	n/a	WORD	360604	wordpools/wasnorm_wordpool.txt	LTP110	ltpFR	12	3	0	ROOSTER	1209	n/a	1	n/a	0	0	0	0	0.5869140625	0.422607421875	lower	../fonts/zerothre.ttf
725.198	n/a	WORD	362599	wordpools/wasnorm_wordpool.txt	LTP110	ltpFR	12	3	0	CHICKEN	297	n/a	1	n/a	0	0	0	0	0.5869140625	0.422607421875	lower	../fonts/zerothre.ttf
729.19	n/a	WORD	364595	wordpools/wasnorm_wordpool.txt	LTP110	ltpFR	12	3	1	WHALE	1601	n/a	1	n/a	0	0	0	1	0.412841796875	0.57763671875	upper	../fonts/amplitud.ttf
733.364	n/a	WORD	366682	wordpools/wasnorm_wordpool.txt	LTP110	ltpFR	12	3	1	SEAFOOD	1260	n/a	0	n/a	0	0	0	1	0.412841796875	0.57763671875	upper	../fonts/amplitud.ttf
737.462	n/a	WORD	368731	wordpools/wasnorm_wordpool.txt	LTP110	ltpFR	12	3	1	ASH	44	n/a	0	n/a	0	0	0	1	0.412841796875	0.57763671875	upper	../fonts/amplitud.ttf
741.318	n/a	WORD	370659	wordpools/wasnorm_wordpool.txt	LTP110	ltpFR	12	3	1	PATIO	1025	n/a	0	n/a	0	0	0	1	0.412841796875	0.57763671875	upper	../fonts/amplitud.ttf
745.2	n/a	WORD	372600	wordpools/wasnorm_wordpool.txt	LTP110	ltpFR	12	3	1	CAR	241	n/a	0	n/a	0	0	0	1	0.412841796875	0.57763671875	upper	../fonts/amplitud.ttf
749.316	n/a	WORD	374658	wordpools/wasnorm_wordpool.txt	LTP110	ltpFR	12	3	1	NOVEL	960	n/a	0	n/a	0	0	0	1	0.412841796875	0.57763671875	upper	../fonts/amplitud.ttf
753.348	n/a	WORD	376674	wordpools/wasnorm_wordpool.txt	LTP110	ltpFR	12	3	0	NOTEBOOK	959	n/a	0	n/a	0	0	0	0	0.5869140625	0.422607421875	lower	../fonts/zerothre.ttf
757.398	n/a	WORD	378699	wordpools/wasnorm_wordpool.txt	LTP110	ltpFR	12	3	0	BOUILLON	154	n/a	0	n/a	0	0	0	0	0.5869140625	0.422607421875	lower	../fonts/zerothre.ttf
761.538	n/a	WORD	380769	wordpools/wasnorm_wordpool.txt	LTP110	ltpFR	12	3	0	SATURN	1236	n/a	1	n/a	0	0	0	0	0.5869140625	0.422607421875	lower	../fonts/zerothre.ttf
765.746	n/a	WORD	382873	wordpools/wasnorm_wordpool.txt	LTP110	ltpFR	12	3	0	GROOM	665	n/a	1	n/a	0	0	0	0	0.5869140625	0.422607421875	lower	../fonts/zerothre.ttf
769.912	n/a	WORD	384956	wordpools/wasnorm_wordpool.txt	LTP110	ltpFR	12	3	0	BOOK	149	n/a	0	n/a	0	0	0	0	0.5869140625	0.422607421875	lower	../fonts/zerothre.ttf
773.826	n/a	WORD	386913	wordpools/wasnorm_wordpool.txt	LTP110	ltpFR	12	3	0	PORCH	1106	n/a	1	n/a	0	0	0	0	0.5869140625	0.422607421875	lower	../fonts/zerothre.ttf
778.0	n/a	WORD	389000	wordpools/wasnorm_wordpool.txt	LTP110	ltpFR	12	3	1	WARRIOR	1589	n/a	1	n/a	0	0	0	1	0.412841796875	0.57763671875	upper	../fonts/amplitud.ttf
781.982	n/a	WORD	390991	wordpools/wasnorm_wordpool.txt	LTP110	ltpFR	12	3	1	BULLY	196	n/a	1	n/a	0	0	0	1	0.412841796875	0.57763671875	upper	../fonts/amplitud.ttf
787.624	n/a	REC_START	393812	n/a	LTP110	ltpFR	12	3	n/a	n/a	n/a	n/a	n/a	n/a	0	0	0	n/a	n/a	n/a	n/a	n/a
789.344	n/a	REC_WORD	394672	wordpools/wasnorm_wordpool.txt	LTP110	ltpFR	12	3	1	WARRIOR	1589	n/a	1	n/a	0	0	0	n/a	n/a	n/a	n/a	n/a
790.322	n/a	REC_WORD	395161	wordpools/wasnorm_wordpool.txt	LTP110	ltpFR	12	3	1	BULLY	196	n/a	1	n/a	0	0	0	n/a	n/a	n/a	n/a	n/a
791.23	n/a	REC_WORD	395615	wordpools/wasnorm_wordpool.txt	LTP110	ltpFR	12	3	0	PORCH	1106	n/a	1	n/a	0	0	0	n/a	n/a	n/a	n/a	n/a
792.004	n/a	REC_WORD	396002	wordpools/wasnorm_wordpool.txt	LTP110	ltpFR	12	3	1	PATIO	1025	n/a	0	n/a	0	0	0	n/a	n/a	n/a	n/a	n/a
792.792	n/a	REC_WORD	396396	wordpools/wasnorm_wordpool.txt	LTP110	ltpFR	12	3	0	GROOM	665	n/a	1	n/a	0	0	0	n/a	n/a	n/a	n/a	n/a
794.976	n/a	REC_WORD	397488	wordpools/wasnorm_wordpool.txt	LTP110	ltpFR	12	3	0	BOUILLON	154	n/a	0	n/a	0	0	0	n/a	n/a	n/a	n/a	n/a
800.264	n/a	REC_WORD	400132	wordpools/wasnorm_wordpool.txt	LTP110	ltpFR	12	3	0	ROOSTER	1209	n/a	1	n/a	0	0	0	n/a	n/a	n/a	n/a	n/a
800.958	n/a	REC_WORD	400479	wordpools/wasnorm_wordpool.txt	LTP110	ltpFR	12	3	0	CHICKEN	297	n/a	1	n/a	0	0	0	n/a	n/a	n/a	n/a	n/a
801.856	n/a	REC_WORD	400928	wordpools/wasnorm_wordpool.txt	LTP110	ltpFR	12	3	1	WHALE	1601	n/a	1	n/a	0	0	0	n/a	n/a	n/a	n/a	n/a
802.554	n/a	REC_WORD	401277	wordpools/wasnorm_wordpool.txt	LTP110	ltpFR	12	3	1	ASH	44	n/a	0	n/a	0	0	0	n/a	n/a	n/a	n/a	n/a
803.832	n/a	REC_WORD	401916	wordpools/wasnorm_wordpool.txt	LTP110	ltpFR	12	3	0	NOTEBOOK	959	n/a	0	n/a	0	0	0	n/a	n/a	n/a	n/a	n/a
805.16	n/a	REC_WORD	402580	wordpools/wasnorm_wordpool.txt	LTP110	ltpFR	12	3	0	BOOK	149	n/a	0	n/a	0	0	0	n/a	n/a	n/a	n/a	n/a
807.698	n/a	REC_WORD	403849	wordpools/wasnorm_wordpool.txt	LTP110	ltpFR	12	3	0	SATURN	1236	n/a	1	n/a	0	0	0	n/a	n/a	n/a	n/a	n/a
865.498	n/a	START	432749	n/a	LTP110	ltpFR	12	n/a	n/a	n/a	n/a	n/a	n/a	n/a	n/a	n/a	n/a	n/a	n/a	n/a	n/a	n/a
867.006	n/a	PROB	433503	n/a	LTP110	ltpFR	12	n/a	n/a	n/a	n/a	n/a	n/a	15	5	4	5	n/a	n/a	n/a	n/a	n/a
868.114	n/a	PROB	434057	n/a	LTP110	ltpFR	12	n/a	n/a	n/a	n/a	n/a	n/a	10	1	6	3	n/a	n/a	n/a	n/a	n/a
869.864	n/a	PROB	434932	n/a	LTP110	ltpFR	12	n/a	n/a	n/a	n/a	n/a	n/a	16	5	8	3	n/a	n/a	n/a	n/a	n/a
871.746	n/a	PROB	435873	n/a	LTP110	ltpFR	12	n/a	n/a	n/a	n/a	n/a	n/a	20	8	3	9	n/a	n/a	n/a	n/a	n/a
873.312	n/a	STOP	436656	n/a	LTP110	ltpFR	12	n/a	n/a	n/a	n/a	n/a	n/a	n/a	n/a	n/a	n/a	n/a	n/a	n/a	n/a	n/a
874.58	n/a	WORD	437290	wordpools/wasnorm_wordpool.txt	LTP110	ltpFR	12	4	1	VETERAN	1561	n/a	1	n/a	0	0	0	1	0.412841796875	0.57763671875	upper	../fonts/amplitud.ttf
877.588	n/a	START	438794	n/a	LTP110	ltpFR	12	n/a	n/a	n/a	n/a	n/a	n/a	n/a	n/a	n/a	n/a	n/a	n/a	n/a	n/a	n/a
878.41	n/a	PROB	439205	n/a	LTP110	ltpFR	12	n/a	n/a	n/a	n/a	n/a	n/a	14	2	8	2	n/a	n/a	n/a	n/a	n/a
879.96	n/a	PROB	439980	n/a	LTP110	ltpFR	12	n/a	n/a	n/a	n/a	n/a	n/a	13	2	6	5	n/a	n/a	n/a	n/a	n/a
882.17	n/a	PROB	441085	n/a	LTP110	ltpFR	12	n/a	n/a	n/a	n/a	n/a	n/a	18	7	5	6	n/a	n/a	n/a	n/a	n/a
885.588	n/a	STOP	442794	n/a	LTP110	ltpFR	12	n/a	n/a	n/a	n/a	n/a	n/a	n/a	n/a	n/a	n/a	n/a	n/a	n/a	n/a	n/a
886.5	n/a	WORD	443250	wordpools/wasnorm_wordpool.txt	LTP110	ltpFR	12	4	1	CANNON	232	n/a	0	n/a	0	0	0	1	0.412841796875	0.57763671875	upper	../fonts/amplitud.ttf
889.508	n/a	START	444754	n/a	LTP110	ltpFR	12	n/a	n/a	n/a	n/a	n/a	n/a	n/a	n/a	n/a	n/a	n/a	n/a	n/a	n/a	n/a
890.542	n/a	PROB	445271	n/a	LTP110	ltpFR	12	n/a	n/a	n/a	n/a	n/a	n/a	6	2	3	1	n/a	n/a	n/a	n/a	n/a
891.64	n/a	PROB	445820	n/a	LTP110	ltpFR	12	n/a	n/a	n/a	n/a	n/a	n/a	11	2	3	6	n/a	n/a	n/a	n/a	n/a
893.166	n/a	PROB	446583	n/a	LTP110	ltpFR	12	n/a	n/a	n/a	n/a	n/a	n/a	12	8	1	3	n/a	n/a	n/a	n/a	n/a
894.214	n/a	PROB	447107	n/a	LTP110	ltpFR	12	n/a	n/a	n/a	n/a	n/a	n/a	7	2	4	1	n/a	n/a	n/a	n/a	n/a
895.422	n/a	PROB	447711	n/a	LTP110	ltpFR	12	n/a	n/a	n/a	n/a	n/a	n/a	10	1	7	2	n/a	n/a	n/a	n/a	n/a
896.906	n/a	STOP	448453	n/a	LTP110	ltpFR	12	n/a	n/a	n/a	n/a	n/a	n/a	n/a	n/a	n/a	n/a	n/a	n/a	n/a	n/a	n/a
898.556	n/a	WORD	449278	wordpools/wasnorm_wordpool.txt	LTP110	ltpFR	12	4	1	GRAVEL	659	n/a	0	n/a	0	0	0	1	0.412841796875	0.57763671875	upper	../fonts/amplitud.ttf
901.564	n/a	START	450782	n/a	LTP110	ltpFR	12	n/a	n/a	n/a	n/a	n/a	n/a	n/a	n/a	n/a	n/a	n/a	n/a	n/a	n/a	n/a
902.462	n/a	PROB	451231	n/a	LTP110	ltpFR	12	n/a	n/a	n/a	n/a	n/a	n/a	15	8	5	2	n/a	n/a	n/a	n/a	n/a
903.92	n/a	PROB	451960	n/a	LTP110	ltpFR	12	n/a	n/a	n/a	n/a	n/a	n/a	15	3	8	4	n/a	n/a	n/a	n/a	n/a
905.578	n/a	PROB	452789	n/a	LTP110	ltpFR	12	n/a	n/a	n/a	n/a	n/a	n/a	21	4	8	9	n/a	n/a	n/a	n/a	n/a
906.944	n/a	PROB	453472	n/a	LTP110	ltpFR	12	n/a	n/a	n/a	n/a	n/a	n/a	21	7	7	7	n/a	n/a	n/a	n/a	n/a
908.082	n/a	STOP	454041	n/a	LTP110	ltpFR	12	n/a	n/a	n/a	n/a	n/a	n/a	n/a	n/a	n/a	n/a	n/a	n/a	n/a	n/a	n/a
910.376	n/a	WORD	455188	wordpools/wasnorm_wordpool.txt	LTP110	ltpFR	12	4	1	MAID	856	n/a	1	n/a	0	0	0	1	0.412841796875	0.57763671875	upper	../fonts/amplitud.ttf
913.384	n/a	START	456692	n/a	LTP110	ltpFR	12	n/a	n/a	n/a	n/a	n/a	n/a	n/a	n/a	n/a	n/a	n/a	n/a	n/a	n/a	n/a
914.558	n/a	PROB	457279	n/a	LTP110	ltpFR	12	n/a	n/a	n/a	n/a	n/a	n/a	14	4	9	1	n/a	n/a	n/a	n/a	n/a
915.55	n/a	PROB	457775	n/a	LTP110	ltpFR	12	n/a	n/a	n/a	n/a	n/a	n/a	15	4	5	6	n/a	n/a	n/a	n/a	n/a
917.432	n/a	PROB	458716	n/a	LTP110	ltpFR	12	n/a	n/a	n/a	n/a	n/a	n/a	22	5	9	8	n/a	n/a	n/a	n/a	n/a
919.116	n/a	PROB	459558	n/a	LTP110	ltpFR	12	n/a	n/a	n/a	n/a	n/a	n/a	21	9	6	6	n/a	n/a	n/a	n/a	n/a
921.188	n/a	STOP	460594	n/a	LTP110	ltpFR	12	n/a	n/a	n/a	n/a	n/a	n/a	n/a	n/a	n/a	n/a	n/a	n/a	n/a	n/a	n/a
922.432	n/a	WORD	461216	wordpools/wasnorm_wordpool.txt	LTP110	ltpFR	12	4	1	CONSUMER	365	n/a	1	n/a	0	0	0	1	0.412841796875	0.57763671875	upper	../fonts/amplitud.ttf
925.438	n/a	START	462719	n/a	LTP110	ltpFR	12	n/a	n/a	n/a	n/a	n/a	n/a	n/a	n/a	n/a	n/a	n/a	n/a	n/a	n/a	n/a
926.598	n/a	PROB	463299	n/a	LTP110	ltpFR	12	n/a	n/a	n/a	n/a	n/a	n/a	18	6	8	4	n/a	n/a	n/a	n/a	n/a
928.922	n/a	PROB	464461	n/a	LTP110	ltpFR	12	n/a	n/a	n/a	n/a	n/a	n/a	17	7	7	3	n/a	n/a	n/a	n/a	n/a
930.104	n/a	PROB	465052	n/a	LTP110	ltpFR	12	n/a	n/a	n/a	n/a	n/a	n/a	12	1	3	8	n/a	n/a	n/a	n/a	n/a
931.062	n/a	PROB	465531	n/a	LTP110	ltpFR	12	n/a	n/a	n/a	n/a	n/a	n/a	12	4	5	3	n/a	n/a	n/a	n/a	n/a
933.012	n/a	STOP	466506	n/a	LTP110	ltpFR	12	n/a	n/a	n/a	n/a	n/a	n/a	n/a	n/a	n/a	n/a	n/a	n/a	n/a	n/a	n/a
934.56	n/a	WORD	467280	wordpools/wasnorm_wordpool.txt	LTP110	ltpFR	12	4	1	TAR	1435	n/a	0	n/a	0	0	0	1	0.412841796875	0.57763671875	upper	../fonts/amplitud.ttf
937.568	n/a	START	468784	n/a	LTP110	ltpFR	12	n/a	n/a	n/a	n/a	n/a	n/a	n/a	n/a	n/a	n/a	n/a	n/a	n/a	n/a	n/a
938.636	n/a	PROB	469318	n/a	LTP110	ltpFR	12	n/a	n/a	n/a	n/a	n/a	n/a	12	4	5	3	n/a	n/a	n/a	n/a	n/a
940.91	n/a	PROB	470455	n/a	LTP110	ltpFR	12	n/a	n/a	n/a	n/a	n/a	n/a	17	8	2	7	n/a	n/a	n/a	n/a	n/a
942.224	n/a	PROB	471112	n/a	LTP110	ltpFR	12	n/a	n/a	n/a	n/a	n/a	n/a	13	3	7	3	n/a	n/a	n/a	n/a	n/a
944.5	n/a	STOP	472250	n/a	LTP110	ltpFR	12	n/a	n/a	n/a	n/a	n/a	n/a	n/a	n/a	n/a	n/a	n/a	n/a	n/a	n/a	n/a
946.708	n/a	WORD	473354	wordpools/wasnorm_wordpool.txt	LTP110	ltpFR	12	4	1	SPONGE	1355	n/a	0	n/a	0	0	0	1	0.412841796875	0.57763671875	upper	../fonts/amplitud.ttf
949.716	n/a	START	474858	n/a	LTP110	ltpFR	12	n/a	n/a	n/a	n/a	n/a	n/a	n/a	n/a	n/a	n/a	n/a	n/a	n/a	n/a	n/a
950.572	n/a	PROB	475286	n/a	LTP110	ltpFR	12	n/a	n/a	n/a	n/a	n/a	n/a	21	6	7	8	n/a	n/a	n/a	n/a	n/a
951.93	n/a	PROB	475965	n/a	LTP110	ltpFR	12	n/a	n/a	n/a	n/a	n/a	n/a	20	4	7	9	n/a	n/a	n/a	n/a	n/a
953.838	n/a	PROB	476919	n/a	LTP110	ltpFR	12	n/a	n/a	n/a	n/a	n/a	n/a	23	9	8	6	n/a	n/a	n/a	n/a	n/a
956.162	n/a	PROB	478081	n/a	LTP110	ltpFR	12	n/a	n/a	n/a	n/a	n/a	n/a	15	1	7	7	n/a	n/a	n/a	n/a	n/a
957.662	n/a	STOP	478831	n/a	LTP110	ltpFR	12	n/a	n/a	n/a	n/a	n/a	n/a	n/a	n/a	n/a	n/a	n/a	n/a	n/a	n/a	n/a
958.722	n/a	WORD	479361	wordpools/wasnorm_wordpool.txt	LTP110	ltpFR	12	4	1	BUCKET	184	n/a	0	n/a	0	0	0	1	0.412841796875	0.57763671875	upper	../fonts/amplitud.ttf
961.728	n/a	START	480864	n/a	LTP110	ltpFR	12	n/a	n/a	n/a	n/a	n/a	n/a	n/a	n/a	n/a	n/a	n/a	n/a	n/a	n/a	n/a
962.694	n/a	PROB	481347	n/a	LTP110	ltpFR	12	n/a	n/a	n/a	n/a	n/a	n/a	13	4	1	8	n/a	n/a	n/a	n/a	n/a
964.12	n/a	PROB	482060	n/a	LTP110	ltpFR	12	n/a	n/a	n/a	n/a	n/a	n/a	8	3	3	2	n/a	n/a	n/a	n/a	n/a
965.768	n/a	PROB	482884	n/a	LTP110	ltpFR	12	n/a	n/a	n/a	n/a	n/a	n/a	15	6	1	8	n/a	n/a	n/a	n/a	n/a
966.752	n/a	PROB	483376	n/a	LTP110	ltpFR	12	n/a	n/a	n/a	n/a	n/a	n/a	19	1	9	9	n/a	n/a	n/a	n/a	n/a
969.396	n/a	STOP	484698	n/a	LTP110	ltpFR	12	n/a	n/a	n/a	n/a	n/a	n/a	n/a	n/a	n/a	n/a	n/a	n/a	n/a	n/a	n/a
970.934	n/a	WORD	485467	wordpools/wasnorm_wordpool.txt	LTP110	ltpFR	12	4	1	CAPTIVE	240	n/a	1	n/a	0	0	0	1	0.412841796875	0.57763671875	upper	../fonts/amplitud.ttf
973.942	n/a	START	486971	n/a	LTP110	ltpFR	12	n/a	n/a	n/a	n/a	n/a	n/a	n/a	n/a	n/a	n/a	n/a	n/a	n/a	n/a	n/a
974.858	n/a	PROB	487429	n/a	LTP110	ltpFR	12	n/a	n/a	n/a	n/a	n/a	n/a	19	9	6	4	n/a	n/a	n/a	n/a	n/a
976.388	n/a	PROB	488194	n/a	LTP110	ltpFR	12	n/a	n/a	n/a	n/a	n/a	n/a	21	6	6	9	n/a	n/a	n/a	n/a	n/a
978.28	n/a	PROB	489140	n/a	LTP110	ltpFR	12	n/a	n/a	n/a	n/a	n/a	n/a	12	1	8	3	n/a	n/a	n/a	n/a	n/a
979.222	n/a	PROB	489611	n/a	LTP110	ltpFR	12	n/a	n/a	n/a	n/a	n/a	n/a	12	3	6	3	n/a	n/a	n/a	n/a	n/a
980.51	n/a	STOP	490255	n/a	LTP110	ltpFR	12	n/a	n/a	n/a	n/a	n/a	n/a	n/a	n/a	n/a	n/a	n/a	n/a	n/a	n/a	n/a
982.996	n/a	WORD	491498	wordpools/wasnorm_wordpool.txt	LTP110	ltpFR	12	4	1	CHARCOAL	281	n/a	0	n/a	0	0	0	1	0.412841796875	0.57763671875	upper	../fonts/amplitud.ttf
986.004	n/a	START	493002	n/a	LTP110	ltpFR	12	n/a	n/a	n/a	n/a	n/a	n/a	n/a	n/a	n/a	n/a	n/a	n/a	n/a	n/a	n/a
986.82	n/a	PROB	493410	n/a	LTP110	ltpFR	12	n/a	n/a	n/a	n/a	n/a	n/a	11	6	1	4	n/a	n/a	n/a	n/a	n/a
987.878	n/a	PROB	493939	n/a	LTP110	ltpFR	12	n/a	n/a	n/a	n/a	n/a	n/a	7	4	2	1	n/a	n/a	n/a	n/a	n/a
989.562	n/a	PROB	494781	n/a	LTP110	ltpFR	12	n/a	n/a	n/a	n/a	n/a	n/a	12	5	2	5	n/a	n/a	n/a	n/a	n/a
990.586	n/a	PROB	495293	n/a	LTP110	ltpFR	12	n/a	n/a	n/a	n/a	n/a	n/a	7	3	3	1	n/a	n/a	n/a	n/a	n/a
991.702	n/a	PROB	495851	n/a	LTP110	ltpFR	12	n/a	n/a	n/a	n/a	n/a	n/a	13	4	6	3	n/a	n/a	n/a	n/a	n/a
993.126	n/a	STOP	496563	n/a	LTP110	ltpFR	12	n/a	n/a	n/a	n/a	n/a	n/a	n/a	n/a	n/a	n/a	n/a	n/a	n/a	n/a	n/a
994.968	n/a	WORD	497484	wordpools/wasnorm_wordpool.txt	LTP110	ltpFR	12	4	1	RECIPE	1175	n/a	0	n/a	0	0	0	1	0.412841796875	0.57763671875	upper	../fonts/amplitud.ttf
997.976	n/a	START	498988	n/a	LTP110	ltpFR	12	n/a	n/a	n/a	n/a	n/a	n/a	n/a	n/a	n/a	n/a	n/a	n/a	n/a	n/a	n/a
999.158	n/a	PROB	499579	n/a	LTP110	ltpFR	12	n/a	n/a	n/a	n/a	n/a	n/a	15	4	6	5	n/a	n/a	n/a	n/a	n/a
1001.092	n/a	PROB	500546	n/a	LTP110	ltpFR	12	n/a	n/a	n/a	n/a	n/a	n/a	12	7	2	3	n/a	n/a	n/a	n/a	n/a
1003.298	n/a	PROB	501649	n/a	LTP110	ltpFR	12	n/a	n/a	n/a	n/a	n/a	n/a	17	6	6	5	n/a	n/a	n/a	n/a	n/a
1004.792	n/a	STOP	502396	n/a	LTP110	ltpFR	12	n/a	n/a	n/a	n/a	n/a	n/a	n/a	n/a	n/a	n/a	n/a	n/a	n/a	n/a	n/a
1006.914	n/a	WORD	503457	wordpools/wasnorm_wordpool.txt	LTP110	ltpFR	12	4	1	TAPIOCA	1434	n/a	0	n/a	0	0	0	1	0.412841796875	0.57763671875	upper	../fonts/amplitud.ttf
1009.922	n/a	START	504961	n/a	LTP110	ltpFR	12	n/a	n/a	n/a	n/a	n/a	n/a	n/a	n/a	n/a	n/a	n/a	n/a	n/a	n/a	n/a
1010.872	n/a	PROB	505436	n/a	LTP110	ltpFR	12	n/a	n/a	n/a	n/a	n/a	n/a	11	4	2	5	n/a	n/a	n/a	n/a	n/a
1013.244	n/a	PROB	506622	n/a	LTP110	ltpFR	12	n/a	n/a	n/a	n/a	n/a	n/a	16	5	5	6	n/a	n/a	n/a	n/a	n/a
1014.37	n/a	PROB	507185	n/a	LTP110	ltpFR	12	n/a	n/a	n/a	n/a	n/a	n/a	10	4	5	1	n/a	n/a	n/a	n/a	n/a
1015.854	n/a	PROB	507927	n/a	LTP110	ltpFR	12	n/a	n/a	n/a	n/a	n/a	n/a	16	5	8	3	n/a	n/a	n/a	n/a	n/a
1017.28	n/a	STOP	508640	n/a	LTP110	ltpFR	12	n/a	n/a	n/a	n/a	n/a	n/a	n/a	n/a	n/a	n/a	n/a	n/a	n/a	n/a	n/a
1018.802	n/a	WORD	509401	wordpools/wasnorm_wordpool.txt	LTP110	ltpFR	12	4	1	CUSTOMER	430	n/a	1	n/a	0	0	0	1	0.412841796875	0.57763671875	upper	../fonts/amplitud.ttf
1021.81	n/a	START	510905	n/a	LTP110	ltpFR	12	n/a	n/a	n/a	n/a	n/a	n/a	n/a	n/a	n/a	n/a	n/a	n/a	n/a	n/a	n/a
1022.776	n/a	PROB	511388	n/a	LTP110	ltpFR	12	n/a	n/a	n/a	n/a	n/a	n/a	21	5	9	7	n/a	n/a	n/a	n/a	n/a
1024.424	n/a	PROB	512212	n/a	LTP110	ltpFR	12	n/a	n/a	n/a	n/a	n/a	n/a	22	9	7	6	n/a	n/a	n/a	n/a	n/a
1027.448	n/a	PROB	513724	n/a	LTP110	ltpFR	12	n/a	n/a	n/a	n/a	n/a	n/a	22	9	7	6	n/a	n/a	n/a	n/a	n/a
1028.368	n/a	STOP	514184	n/a	LTP110	ltpFR	12	n/a	n/a	n/a	n/a	n/a	n/a	n/a	n/a	n/a	n/a	n/a	n/a	n/a	n/a	n/a
1030.956	n/a	WORD	515478	wordpools/wasnorm_wordpool.txt	LTP110	ltpFR	12	4	1	SHOWER	1296	n/a	0	n/a	0	0	0	1	0.412841796875	0.57763671875	upper	../fonts/amplitud.ttf
1033.964	n/a	START	516982	n/a	LTP110	ltpFR	12	n/a	n/a	n/a	n/a	n/a	n/a	n/a	n/a	n/a	n/a	n/a	n/a	n/a	n/a	n/a
1034.956	n/a	PROB	517478	n/a	LTP110	ltpFR	12	n/a	n/a	n/a	n/a	n/a	n/a	11	1	1	9	n/a	n/a	n/a	n/a	n/a
1035.956	n/a	PROB	517978	n/a	LTP110	ltpFR	12	n/a	n/a	n/a	n/a	n/a	n/a	14	8	1	5	n/a	n/a	n/a	n/a	n/a
1037.672	n/a	PROB	518836	n/a	LTP110	ltpFR	12	n/a	n/a	n/a	n/a	n/a	n/a	10	2	7	1	n/a	n/a	n/a	n/a	n/a
1039.146	n/a	PROB	519573	n/a	LTP110	ltpFR	12	n/a	n/a	n/a	n/a	n/a	n/a	11	2	4	4	n/a	n/a	n/a	n/a	n/a
1040.778	n/a	STOP	520389	n/a	LTP110	ltpFR	12	n/a	n/a	n/a	n/a	n/a	n/a	n/a	n/a	n/a	n/a	n/a	n/a	n/a	n/a	n/a
1043.004	n/a	WORD	521502	wordpools/wasnorm_wordpool.txt	LTP110	ltpFR	12	4	1	STADIUM	1364	n/a	0	n/a	0	0	0	1	0.412841796875	0.57763671875	upper	../fonts/amplitud.ttf
1046.012	n/a	START	523006	n/a	LTP110	ltpFR	12	n/a	n/a	n/a	n/a	n/a	n/a	n/a	n/a	n/a	n/a	n/a	n/a	n/a	n/a	n/a
1047.06	n/a	PROB	523530	n/a	LTP110	ltpFR	12	n/a	n/a	n/a	n/a	n/a	n/a	14	5	1	8	n/a	n/a	n/a	n/a	n/a
1048.418	n/a	PROB	524209	n/a	LTP110	ltpFR	12	n/a	n/a	n/a	n/a	n/a	n/a	17	7	9	1	n/a	n/a	n/a	n/a	n/a
1050.534	n/a	PROB	525267	n/a	LTP110	ltpFR	12	n/a	n/a	n/a	n/a	n/a	n/a	15	2	4	9	n/a	n/a	n/a	n/a	n/a
1052.602	n/a	STOP	526301	n/a	LTP110	ltpFR	12	n/a	n/a	n/a	n/a	n/a	n/a	n/a	n/a	n/a	n/a	n/a	n/a	n/a	n/a	n/a
1055.116	n/a	WORD	527558	wordpools/wasnorm_wordpool.txt	LTP110	ltpFR	12	4	1	PIZZA	1079	n/a	0	n/a	0	0	0	1	0.412841796875	0.57763671875	upper	../fonts/amplitud.ttf
1058.124	n/a	START	529062	n/a	LTP110	ltpFR	12	n/a	n/a	n/a	n/a	n/a	n/a	n/a	n/a	n/a	n/a	n/a	n/a	n/a	n/a	n/a
1059.19	n/a	PROB	529595	n/a	LTP110	ltpFR	12	n/a	n/a	n/a	n/a	n/a	n/a	12	3	6	3	n/a	n/a	n/a	n/a	n/a
1061.438	n/a	PROB	530719	n/a	LTP110	ltpFR	12	n/a	n/a	n/a	n/a	n/a	n/a	15	7	6	2	n/a	n/a	n/a	n/a	n/a
1062.748	n/a	PROB	531374	n/a	LTP110	ltpFR	12	n/a	n/a	n/a	n/a	n/a	n/a	14	6	4	4	n/a	n/a	n/a	n/a	n/a
1063.814	n/a	PROB	531907	n/a	LTP110	ltpFR	12	n/a	n/a	n/a	n/a	n/a	n/a	19	8	3	8	n/a	n/a	n/a	n/a	n/a
1065.426	n/a	STOP	532713	n/a	LTP110	ltpFR	12	n/a	n/a	n/a	n/a	n/a	n/a	n/a	n/a	n/a	n/a	n/a	n/a	n/a	n/a	n/a
1067.98	n/a	REC_START	533990	n/a	LTP110	ltpFR	12	4	n/a	n/a	n/a	n/a	n/a	n/a	0	0	0	n/a	n/a	n/a	n/a	n/a
1069.67	n/a	REC_WORD	534835	wordpools/wasnorm_wordpool.txt	LTP110	ltpFR	12	4	1	CONSUMER	365	n/a	1	n/a	0	0	0	n/a	n/a	n/a	n/a	n/a
1071.216	n/a	REC_WORD	535608	wordpools/wasnorm_wordpool.txt	LTP110	ltpFR	12	4	1	CUSTOMER	430	n/a	1	n/a	0	0	0	n/a	n/a	n/a	n/a	n/a
1071.998	n/a	REC_WORD	535999	wordpools/wasnorm_wordpool.txt	LTP110	ltpFR	12	4	1	SHOWER	1296	n/a	0	n/a	0	0	0	n/a	n/a	n/a	n/a	n/a
1073.826	n/a	REC_WORD	536913	wordpools/wasnorm_wordpool.txt	LTP110	ltpFR	12	4	1	VETERAN	1561	n/a	1	n/a	0	0	0	n/a	n/a	n/a	n/a	n/a
1074.73	n/a	REC_WORD	537365	wordpools/wasnorm_wordpool.txt	LTP110	ltpFR	12	4	1	CANNON	232	n/a	0	n/a	0	0	0	n/a	n/a	n/a	n/a	n/a
1075.678	n/a	REC_WORD	537839	wordpools/wasnorm_wordpool.txt	LTP110	ltpFR	12	4	1	GRAVEL	659	n/a	0	n/a	0	0	0	n/a	n/a	n/a	n/a	n/a
1076.964	n/a	REC_WORD	538482	wordpools/wasnorm_wordpool.txt	LTP110	ltpFR	12	4	1	MAID	856	n/a	1	n/a	0	0	0	n/a	n/a	n/a	n/a	n/a
1078.148	n/a	REC_WORD	539074	wordpools/wasnorm_wordpool.txt	LTP110	ltpFR	12	4	1	SPONGE	1355	n/a	0	n/a	0	0	0	n/a	n/a	n/a	n/a	n/a
1079.18	n/a	REC_WORD	539590	wordpools/wasnorm_wordpool.txt	LTP110	ltpFR	12	4	1	BUCKET	184	n/a	0	n/a	0	0	0	n/a	n/a	n/a	n/a	n/a
1080.048	n/a	REC_WORD	540024	wordpools/wasnorm_wordpool.txt	LTP110	ltpFR	12	4	1	TAR	1435	n/a	0	n/a	0	0	0	n/a	n/a	n/a	n/a	n/a
1084.028	n/a	REC_WORD	542014	wordpools/wasnorm_wordpool.txt	LTP110	ltpFR	12	4	1	PIZZA	1079	n/a	0	n/a	0	0	0	n/a	n/a	n/a	n/a	n/a
1086.394	n/a	REC_WORD	543197	wordpools/wasnorm_wordpool.txt	LTP110	ltpFR	12	4	1	TAPIOCA	1434	n/a	0	n/a	0	0	0	n/a	n/a	n/a	n/a	n/a
1148.428	n/a	START	574214	n/a	LTP110	ltpFR	12	n/a	n/a	n/a	n/a	n/a	n/a	n/a	n/a	n/a	n/a	n/a	n/a	n/a	n/a	n/a
1149.938	n/a	PROB	574969	n/a	LTP110	ltpFR	12	n/a	n/a	n/a	n/a	n/a	n/a	19	5	7	7	n/a	n/a	n/a	n/a	n/a
1151.454	n/a	PROB	575727	n/a	LTP110	ltpFR	12	n/a	n/a	n/a	n/a	n/a	n/a	10	1	3	6	n/a	n/a	n/a	n/a	n/a
1152.47	n/a	PROB	576235	n/a	LTP110	ltpFR	12	n/a	n/a	n/a	n/a	n/a	n/a	74	5	1	1	n/a	n/a	n/a	n/a	n/a
1153.546	n/a	PROB	576773	n/a	LTP110	ltpFR	12	n/a	n/a	n/a	n/a	n/a	n/a	19	9	5	5	n/a	n/a	n/a	n/a	n/a
1155.386	n/a	PROB	577693	n/a	LTP110	ltpFR	12	n/a	n/a	n/a	n/a	n/a	n/a	18	8	3	7	n/a	n/a	n/a	n/a	n/a
1156.586	n/a	PROB	578293	n/a	LTP110	ltpFR	12	n/a	n/a	n/a	n/a	n/a	n/a	11	1	8	2	n/a	n/a	n/a	n/a	n/a
1157.544	n/a	PROB	578772	n/a	LTP110	ltpFR	12	n/a	n/a	n/a	n/a	n/a	n/a	6	3	1	2	n/a	n/a	n/a	n/a	n/a
1158.652	n/a	PROB	579326	n/a	LTP110	ltpFR	12	n/a	n/a	n/a	n/a	n/a	n/a	17	6	8	3	n/a	n/a	n/a	n/a	n/a
1160.534	n/a	PROB	580267	n/a	LTP110	ltpFR	12	n/a	n/a	n/a	n/a	n/a	n/a	16	4	9	3	n/a	n/a	n/a	n/a	n/a
1163.952	n/a	STOP	581976	n/a	LTP110	ltpFR	12	n/a	n/a	n/a	n/a	n/a	n/a	n/a	n/a	n/a	n/a	n/a	n/a	n/a	n/a	n/a
1165.348	n/a	WORD	582674	wordpools/wasnorm_wordpool.txt	LTP110	ltpFR	12	5	0	RECEPTIONIST	1174	n/a	1	n/a	0	0	0	0	0.5869140625	0.422607421875	lower	../fonts/zerothre.ttf
1168.356	n/a	START	584178	n/a	LTP110	ltpFR	12	n/a	n/a	n/a	n/a	n/a	n/a	n/a	n/a	n/a	n/a	n/a	n/a	n/a	n/a	n/a
1169.43	n/a	PROB	584715	n/a	LTP110	ltpFR	12	n/a	n/a	n/a	n/a	n/a	n/a	13	5	3	5	n/a	n/a	n/a	n/a	n/a
1170.59	n/a	PROB	585295	n/a	LTP110	ltpFR	12	n/a	n/a	n/a	n/a	n/a	n/a	14	5	6	3	n/a	n/a	n/a	n/a	n/a
1172.214	n/a	PROB	586107	n/a	LTP110	ltpFR	12	n/a	n/a	n/a	n/a	n/a	n/a	20	4	8	8	n/a	n/a	n/a	n/a	n/a
1173.648	n/a	PROB	586824	n/a	LTP110	ltpFR	12	n/a	n/a	n/a	n/a	n/a	n/a	16	7	7	2	n/a	n/a	n/a	n/a	n/a
1175.13	n/a	PROB	587565	n/a	LTP110	ltpFR	12	n/a	n/a	n/a	n/a	n/a	n/a	20	9	6	5	n/a	n/a	n/a	n/a	n/a
1177.446	n/a	PROB	588723	n/a	LTP110	ltpFR	12	n/a	n/a	n/a	n/a	n/a	n/a	1	6	2	3	n/a	n/a	n/a	n/a	n/a
1179.028	n/a	PROB	589514	n/a	LTP110	ltpFR	12	n/a	n/a	n/a	n/a	n/a	n/a	17	5	7	5	n/a	n/a	n/a	n/a	n/a
1180.646	n/a	PROB	590323	n/a	LTP110	ltpFR	12	n/a	n/a	n/a	n/a	n/a	n/a	14	3	6	5	n/a	n/a	n/a	n/a	n/a
1182.536	n/a	PROB	591268	n/a	LTP110	ltpFR	12	n/a	n/a	n/a	n/a	n/a	n/a	18	3	9	6	n/a	n/a	n/a	n/a	n/a
1184.144	n/a	STOP	592072	n/a	LTP110	ltpFR	12	n/a	n/a	n/a	n/a	n/a	n/a	n/a	n/a	n/a	n/a	n/a	n/a	n/a	n/a	n/a
1185.384	n/a	WORD	592692	wordpools/wasnorm_wordpool.txt	LTP110	ltpFR	12	5	0	BEAVER	109	n/a	1	n/a	0	0	0	0	0.5869140625	0.422607421875	lower	../fonts/zerothre.ttf
1188.392	n/a	START	594196	n/a	LTP110	ltpFR	12	n/a	n/a	n/a	n/a	n/a	n/a	n/a	n/a	n/a	n/a	n/a	n/a	n/a	n/a	n/a
1189.326	n/a	PROB	594663	n/a	LTP110	ltpFR	12	n/a	n/a	n/a	n/a	n/a	n/a	9	1	5	3	n/a	n/a	n/a	n/a	n/a
1192.7	n/a	PROB	596350	n/a	LTP110	ltpFR	12	n/a	n/a	n/a	n/a	n/a	n/a	19	8	6	5	n/a	n/a	n/a	n/a	n/a
1194.75	n/a	PROB	597375	n/a	LTP110	ltpFR	12	n/a	n/a	n/a	n/a	n/a	n/a	8	3	4	1	n/a	n/a	n/a	n/a	n/a
1196.406	n/a	PROB	598203	n/a	LTP110	ltpFR	12	n/a	n/a	n/a	n/a	n/a	n/a	20	9	5	6	n/a	n/a	n/a	n/a	n/a
1197.698	n/a	PROB	598849	n/a	LTP110	ltpFR	12	n/a	n/a	n/a	n/a	n/a	n/a	19	6	4	9	n/a	n/a	n/a	n/a	n/a
1199.156	n/a	PROB	599578	n/a	LTP110	ltpFR	12	n/a	n/a	n/a	n/a	n/a	n/a	17	8	4	5	n/a	n/a	n/a	n/a	n/a
1201.122	n/a	PROB	600561	n/a	LTP110	ltpFR	12	n/a	n/a	n/a	n/a	n/a	n/a	16	8	7	1	n/a	n/a	n/a	n/a	n/a
1202.428	n/a	PROB	601214	n/a	LTP110	ltpFR	12	n/a	n/a	n/a	n/a	n/a	n/a	10	3	1	6	n/a	n/a	n/a	n/a	n/a
1203.77	n/a	STOP	601885	n/a	LTP110	ltpFR	12	n/a	n/a	n/a	n/a	n/a	n/a	n/a	n/a	n/a	n/a	n/a	n/a	n/a	n/a	n/a
1205.428	n/a	WORD	602714	wordpools/wasnorm_wordpool.txt	LTP110	ltpFR	12	5	0	BUBBLE	183	n/a	0	n/a	0	0	0	0	0.5869140625	0.422607421875	lower	../fonts/zerothre.ttf
1208.436	n/a	START	604218	n/a	LTP110	ltpFR	12	n/a	n/a	n/a	n/a	n/a	n/a	n/a	n/a	n/a	n/a	n/a	n/a	n/a	n/a	n/a
1209.42	n/a	PROB	604710	n/a	LTP110	ltpFR	12	n/a	n/a	n/a	n/a	n/a	n/a	10	4	3	3	n/a	n/a	n/a	n/a	n/a
1210.836	n/a	PROB	605418	n/a	LTP110	ltpFR	12	n/a	n/a	n/a	n/a	n/a	n/a	3	1	1	1	n/a	n/a	n/a	n/a	n/a
1211.744	n/a	PROB	605872	n/a	LTP110	ltpFR	12	n/a	n/a	n/a	n/a	n/a	n/a	16	8	4	4	n/a	n/a	n/a	n/a	n/a
1213.002	n/a	PROB	606501	n/a	LTP110	ltpFR	12	n/a	n/a	n/a	n/a	n/a	n/a	22	8	9	5	n/a	n/a	n/a	n/a	n/a
1214.884	n/a	PROB	607442	n/a	LTP110	ltpFR	12	n/a	n/a	n/a	n/a	n/a	n/a	2	8	2	2	n/a	n/a	n/a	n/a	n/a
1216.042	n/a	PROB	608021	n/a	LTP110	ltpFR	12	n/a	n/a	n/a	n/a	n/a	n/a	13	6	1	6	n/a	n/a	n/a	n/a	n/a
1217.668	n/a	PROB	608834	n/a	LTP110	ltpFR	12	n/a	n/a	n/a	n/a	n/a	n/a	14	3	9	2	n/a	n/a	n/a	n/a	n/a
1219.424	n/a	PROB	609712	n/a	LTP110	ltpFR	12	n/a	n/a	n/a	n/a	n/a	n/a	14	3	4	7	n/a	n/a	n/a	n/a	n/a
1221.232	n/a	PROB	610616	n/a	LTP110	ltpFR	12	n/a	n/a	n/a	n/a	n/a	n/a	18	2	7	9	n/a	n/a	n/a	n/a	n/a
1223.706	n/a	STOP	611853	n/a	LTP110	ltpFR	12	n/a	n/a	n/a	n/a	n/a	n/a	n/a	n/a	n/a	n/a	n/a	n/a	n/a	n/a	n/a
1225.272	n/a	WORD	612636	wordpools/wasnorm_wordpool.txt	LTP110	ltpFR	12	5	0	HORNET	718	n/a	0	n/a	0	0	0	0	0.5869140625	0.422607421875	lower	../fonts/zerothre.ttf
1228.28	n/a	START	614140	n/a	LTP110	ltpFR	12	n/a	n/a	n/a	n/a	n/a	n/a	n/a	n/a	n/a	n/a	n/a	n/a	n/a	n/a	n/a
1229.148	n/a	PROB	614574	n/a	LTP110	ltpFR	12	n/a	n/a	n/a	n/a	n/a	n/a	11	5	3	3	n/a	n/a	n/a	n/a	n/a
1230.772	n/a	PROB	615386	n/a	LTP110	ltpFR	12	n/a	n/a	n/a	n/a	n/a	n/a	14	3	4	7	n/a	n/a	n/a	n/a	n/a
1232.146	n/a	PROB	616073	n/a	LTP110	ltpFR	12	n/a	n/a	n/a	n/a	n/a	n/a	165	8	5	3	n/a	n/a	n/a	n/a	n/a
1234.494	n/a	PROB	617247	n/a	LTP110	ltpFR	12	n/a	n/a	n/a	n/a	n/a	n/a	12	3	6	3	n/a	n/a	n/a	n/a	n/a
1236.444	n/a	PROB	618222	n/a	LTP110	ltpFR	12	n/a	n/a	n/a	n/a	n/a	n/a	16	3	5	8	n/a	n/a	n/a	n/a	n/a
1237.902	n/a	PROB	618951	n/a	LTP110	ltpFR	12	n/a	n/a	n/a	n/a	n/a	n/a	14	9	4	1	n/a	n/a	n/a	n/a	n/a
1239.018	n/a	PROB	619509	n/a	LTP110	ltpFR	12	n/a	n/a	n/a	n/a	n/a	n/a	9	2	2	5	n/a	n/a	n/a	n/a	n/a
1240.668	n/a	PROB	620334	n/a	LTP110	ltpFR	12	n/a	n/a	n/a	n/a	n/a	n/a	21	7	7	7	n/a	n/a	n/a	n/a	n/a
1242.884	n/a	STOP	621442	n/a	LTP110	ltpFR	12	n/a	n/a	n/a	n/a	n/a	n/a	n/a	n/a	n/a	n/a	n/a	n/a	n/a	n/a	n/a
1245.166	n/a	WORD	622583	wordpools/wasnorm_wordpool.txt	LTP110	ltpFR	12	5	0	WASP	1593	n/a	0	n/a	0	0	0	0	0.5869140625	0.422607421875	lower	../fonts/zerothre.ttf
1248.176	n/a	START	624088	n/a	LTP110	ltpFR	12	n/a	n/a	n/a	n/a	n/a	n/a	n/a	n/a	n/a	n/a	n/a	n/a	n/a	n/a	n/a
1249.324	n/a	PROB	624662	n/a	LTP110	ltpFR	12	n/a	n/a	n/a	n/a	n/a	n/a	7	1	5	1	n/a	n/a	n/a	n/a	n/a
1251.264	n/a	PROB	625632	n/a	LTP110	ltpFR	12	n/a	n/a	n/a	n/a	n/a	n/a	6	2	3	1	n/a	n/a	n/a	n/a	n/a
1252.148	n/a	PROB	626074	n/a	LTP110	ltpFR	12	n/a	n/a	n/a	n/a	n/a	n/a	16	1	7	8	n/a	n/a	n/a	n/a	n/a
1253.598	n/a	PROB	626799	n/a	LTP110	ltpFR	12	n/a	n/a	n/a	n/a	n/a	n/a	16	6	4	6	n/a	n/a	n/a	n/a	n/a
1254.898	n/a	PROB	627449	n/a	LTP110	ltpFR	12	n/a	n/a	n/a	n/a	n/a	n/a	13	5	5	3	n/a	n/a	n/a	n/a	n/a
1256.13	n/a	PROB	628065	n/a	LTP110	ltpFR	12	n/a	n/a	n/a	n/a	n/a	n/a	12	1	7	6	n/a	n/a	n/a	n/a	n/a
1258.762	n/a	PROB	629381	n/a	LTP110	ltpFR	12	n/a	n/a	n/a	n/a	n/a	n/a	13	2	9	2	n/a	n/a	n/a	n/a	n/a
1261.646	n/a	PROB	630823	n/a	LTP110	ltpFR	12	n/a	n/a	n/a	n/a	n/a	n/a	19	7	6	6	n/a	n/a	n/a	n/a	n/a
1263.428	n/a	STOP	631714	n/a	LTP110	ltpFR	12	n/a	n/a	n/a	n/a	n/a	n/a	n/a	n/a	n/a	n/a	n/a	n/a	n/a	n/a	n/a
1265.252	n/a	WORD	632626	wordpools/wasnorm_wordpool.txt	LTP110	ltpFR	12	5	0	WRENCH	1625	n/a	0	n/a	0	0	0	0	0.5869140625	0.422607421875	lower	../fonts/zerothre.ttf
1268.26	n/a	START	634130	n/a	LTP110	ltpFR	12	n/a	n/a	n/a	n/a	n/a	n/a	n/a	n/a	n/a	n/a	n/a	n/a	n/a	n/a	n/a
1269.152	n/a	PROB	634576	n/a	LTP110	ltpFR	12	n/a	n/a	n/a	n/a	n/a	n/a	21	9	4	8	n/a	n/a	n/a	n/a	n/a
1271.068	n/a	PROB	635534	n/a	LTP110	ltpFR	12	n/a	n/a	n/a	n/a	n/a	n/a	12	2	1	9	n/a	n/a	n/a	n/a	n/a
1272.192	n/a	PROB	636096	n/a	LTP110	ltpFR	12	n/a	n/a	n/a	n/a	n/a	n/a	10	2	1	7	n/a	n/a	n/a	n/a	n/a
1274.634	n/a	PROB	637317	n/a	LTP110	ltpFR	12	n/a	n/a	n/a	n/a	n/a	n/a	11	2	6	3	n/a	n/a	n/a	n/a	n/a
1276.974	n/a	PROB	638487	n/a	LTP110	ltpFR	12	n/a	n/a	n/a	n/a	n/a	n/a	19	9	8	2	n/a	n/a	n/a	n/a	n/a
1278.174	n/a	PROB	639087	n/a	LTP110	ltpFR	12	n/a	n/a	n/a	n/a	n/a	n/a	12	4	7	1	n/a	n/a	n/a	n/a	n/a
1279.248	n/a	PROB	639624	n/a	LTP110	ltpFR	12	n/a	n/a	n/a	n/a	n/a	n/a	17	2	7	8	n/a	n/a	n/a	n/a	n/a
1280.772	n/a	PROB	640386	n/a	LTP110	ltpFR	12	n/a	n/a	n/a	n/a	n/a	n/a	11	5	5	1	n/a	n/a	n/a	n/a	n/a
1281.69	n/a	PROB	640845	n/a	LTP110	ltpFR	12	n/a	n/a	n/a	n/a	n/a	n/a	19	7	4	8	n/a	n/a	n/a	n/a	n/a
1283.38	n/a	STOP	641690	n/a	LTP110	ltpFR	12	n/a	n/a	n/a	n/a	n/a	n/a	n/a	n/a	n/a	n/a	n/a	n/a	n/a	n/a	n/a
1285.196	n/a	WORD	642598	wordpools/wasnorm_wordpool.txt	LTP110	ltpFR	12	5	0	TECHNICIAN	1443	n/a	1	n/a	0	0	0	0	0.5869140625	0.422607421875	lower	../fonts/zerothre.ttf
1288.204	n/a	START	644102	n/a	LTP110	ltpFR	12	n/a	n/a	n/a	n/a	n/a	n/a	n/a	n/a	n/a	n/a	n/a	n/a	n/a	n/a	n/a
1289.03	n/a	PROB	644515	n/a	LTP110	ltpFR	12	n/a	n/a	n/a	n/a	n/a	n/a	15	7	6	2	n/a	n/a	n/a	n/a	n/a
1290.886	n/a	PROB	645443	n/a	LTP110	ltpFR	12	n/a	n/a	n/a	n/a	n/a	n/a	20	7	9	4	n/a	n/a	n/a	n/a	n/a
1292.944	n/a	PROB	646472	n/a	LTP110	ltpFR	12	n/a	n/a	n/a	n/a	n/a	n/a	16	6	2	8	n/a	n/a	n/a	n/a	n/a
1294.368	n/a	PROB	647184	n/a	LTP110	ltpFR	12	n/a	n/a	n/a	n/a	n/a	n/a	13	9	3	1	n/a	n/a	n/a	n/a	n/a
1295.368	n/a	PROB	647684	n/a	LTP110	ltpFR	12	n/a	n/a	n/a	n/a	n/a	n/a	14	5	3	6	n/a	n/a	n/a	n/a	n/a
1296.952	n/a	PROB	648476	n/a	LTP110	ltpFR	12	n/a	n/a	n/a	n/a	n/a	n/a	19	6	9	4	n/a	n/a	n/a	n/a	n/a
1298.534	n/a	PROB	649267	n/a	LTP110	ltpFR	12	n/a	n/a	n/a	n/a	n/a	n/a	14	4	8	2	n/a	n/a	n/a	n/a	n/a
1300.1	n/a	PROB	650050	n/a	LTP110	ltpFR	12	n/a	n/a	n/a	n/a	n/a	n/a	9	3	3	3	n/a	n/a	n/a	n/a	n/a
1301.332	n/a	PROB	650666	n/a	LTP110	ltpFR	12	n/a	n/a	n/a	n/a	n/a	n/a	13	8	3	2	n/a	n/a	n/a	n/a	n/a
1302.99	n/a	STOP	651495	n/a	LTP110	ltpFR	12	n/a	n/a	n/a	n/a	n/a	n/a	n/a	n/a	n/a	n/a	n/a	n/a	n/a	n/a	n/a
1305.224	n/a	WORD	652612	wordpools/wasnorm_wordpool.txt	LTP110	ltpFR	12	5	0	ARTERY	41	n/a	0	n/a	0	0	0	0	0.5869140625	0.422607421875	lower	../fonts/zerothre.ttf
1308.232	n/a	START	654116	n/a	LTP110	ltpFR	12	n/a	n/a	n/a	n/a	n/a	n/a	n/a	n/a	n/a	n/a	n/a	n/a	n/a	n/a	n/a
1309.264	n/a	PROB	654632	n/a	LTP110	ltpFR	12	n/a	n/a	n/a	n/a	n/a	n/a	16	4	8	4	n/a	n/a	n/a	n/a	n/a
1310.698	n/a	PROB	655349	n/a	LTP110	ltpFR	12	n/a	n/a	n/a	n/a	n/a	n/a	19	8	5	6	n/a	n/a	n/a	n/a	n/a
1312.164	n/a	PROB	656082	n/a	LTP110	ltpFR	12	n/a	n/a	n/a	n/a	n/a	n/a	19	8	3	8	n/a	n/a	n/a	n/a	n/a
1313.614	n/a	PROB	656807	n/a	LTP110	ltpFR	12	n/a	n/a	n/a	n/a	n/a	n/a	16	4	7	5	n/a	n/a	n/a	n/a	n/a
1315.386	n/a	PROB	657693	n/a	LTP110	ltpFR	12	n/a	n/a	n/a	n/a	n/a	n/a	15	4	8	3	n/a	n/a	n/a	n/a	n/a
1316.662	n/a	PROB	658331	n/a	LTP110	ltpFR	12	n/a	n/a	n/a	n/a	n/a	n/a	15	9	1	5	n/a	n/a	n/a	n/a	n/a
1317.578	n/a	PROB	658789	n/a	LTP110	ltpFR	12	n/a	n/a	n/a	n/a	n/a	n/a	13	4	5	2	n/a	n/a	n/a	n/a	n/a
1319.17	n/a	PROB	659585	n/a	LTP110	ltpFR	12	n/a	n/a	n/a	n/a	n/a	n/a	22	9	4	9	n/a	n/a	n/a	n/a	n/a
1321.976	n/a	PROB	660988	n/a	LTP110	ltpFR	12	n/a	n/a	n/a	n/a	n/a	n/a	14	4	4	6	n/a	n/a	n/a	n/a	n/a
1323.318	n/a	STOP	661659	n/a	LTP110	ltpFR	12	n/a	n/a	n/a	n/a	n/a	n/a	n/a	n/a	n/a	n/a	n/a	n/a	n/a	n/a	n/a
1325.268	n/a	WORD	662634	wordpools/wasnorm_wordpool.txt	LTP110	ltpFR	12	5	0	RACK	1154	n/a	1	n/a	0	0	0	0	0.5869140625	0.422607421875	lower	../fonts/zerothre.ttf
1328.276	n/a	START	664138	n/a	LTP110	ltpFR	12	n/a	n/a	n/a	n/a	n/a	n/a	n/a	n/a	n/a	n/a	n/a	n/a	n/a	n/a	n/a
1329.458	n/a	PROB	664729	n/a	LTP110	ltpFR	12	n/a	n/a	n/a	n/a	n/a	n/a	10	3	2	5	n/a	n/a	n/a	n/a	n/a
1331.282	n/a	PROB	665641	n/a	LTP110	ltpFR	12	n/a	n/a	n/a	n/a	n/a	n/a	21	9	5	7	n/a	n/a	n/a	n/a	n/a
1332.69	n/a	PROB	666345	n/a	LTP110	ltpFR	12	n/a	n/a	n/a	n/a	n/a	n/a	15	9	4	2	n/a	n/a	n/a	n/a	n/a
1335.306	n/a	PROB	667653	n/a	LTP110	ltpFR	12	n/a	n/a	n/a	n/a	n/a	n/a	20	7	5	8	n/a	n/a	n/a	n/a	n/a
1337.048	n/a	PROB	668524	n/a	LTP110	ltpFR	12	n/a	n/a	n/a	n/a	n/a	n/a	7	2	2	3	n/a	n/a	n/a	n/a	n/a
1338.404	n/a	PROB	669202	n/a	LTP110	ltpFR	12	n/a	n/a	n/a	n/a	n/a	n/a	17	8	6	3	n/a	n/a	n/a	n/a	n/a
1340.388	n/a	PROB	670194	n/a	LTP110	ltpFR	12	n/a	n/a	n/a	n/a	n/a	n/a	14	2	8	4	n/a	n/a	n/a	n/a	n/a
1341.462	n/a	PROB	670731	n/a	LTP110	ltpFR	12	n/a	n/a	n/a	n/a	n/a	n/a	18	5	4	9	n/a	n/a	n/a	n/a	n/a
1342.784	n/a	STOP	671392	n/a	LTP110	ltpFR	12	n/a	n/a	n/a	n/a	n/a	n/a	n/a	n/a	n/a	n/a	n/a	n/a	n/a	n/a	n/a
1345.312	n/a	WORD	672656	wordpools/wasnorm_wordpool.txt	LTP110	ltpFR	12	5	0	HANGER	687	n/a	1	n/a	0	0	0	0	0.5869140625	0.422607421875	lower	../fonts/zerothre.ttf
1348.32	n/a	START	674160	n/a	LTP110	ltpFR	12	n/a	n/a	n/a	n/a	n/a	n/a	n/a	n/a	n/a	n/a	n/a	n/a	n/a	n/a	n/a
1349.444	n/a	PROB	674722	n/a	LTP110	ltpFR	12	n/a	n/a	n/a	n/a	n/a	n/a	16	4	5	7	n/a	n/a	n/a	n/a	n/a
1351.802	n/a	PROB	675901	n/a	LTP110	ltpFR	12	n/a	n/a	n/a	n/a	n/a	n/a	21	3	9	9	n/a	n/a	n/a	n/a	n/a
1353.11	n/a	PROB	676555	n/a	LTP110	ltpFR	12	n/a	n/a	n/a	n/a	n/a	n/a	13	2	8	3	n/a	n/a	n/a	n/a	n/a
1355.266	n/a	PROB	677633	n/a	LTP110	ltpFR	12	n/a	n/a	n/a	n/a	n/a	n/a	8	1	4	3	n/a	n/a	n/a	n/a	n/a
1356.348	n/a	PROB	678174	n/a	LTP110	ltpFR	12	n/a	n/a	n/a	n/a	n/a	n/a	12	4	3	5	n/a	n/a	n/a	n/a	n/a
1357.85	n/a	PROB	678925	n/a	LTP110	ltpFR	12	n/a	n/a	n/a	n/a	n/a	n/a	17	6	2	9	n/a	n/a	n/a	n/a	n/a
1361.132	n/a	PROB	680566	n/a	LTP110	ltpFR	12	n/a	n/a	n/a	n/a	n/a	n/a	16	4	8	4	n/a	n/a	n/a	n/a	n/a
1364.32	n/a	STOP	682160	n/a	LTP110	ltpFR	12	n/a	n/a	n/a	n/a	n/a	n/a	n/a	n/a	n/a	n/a	n/a	n/a	n/a	n/a	n/a
1365.23	n/a	WORD	682615	wordpools/wasnorm_wordpool.txt	LTP110	ltpFR	12	5	0	OFFICE	972	n/a	1	n/a	0	0	0	0	0.5869140625	0.422607421875	lower	../fonts/zerothre.ttf
1368.238	n/a	START	684119	n/a	LTP110	ltpFR	12	n/a	n/a	n/a	n/a	n/a	n/a	n/a	n/a	n/a	n/a	n/a	n/a	n/a	n/a	n/a
1369.222	n/a	PROB	684611	n/a	LTP110	ltpFR	12	n/a	n/a	n/a	n/a	n/a	n/a	9	2	2	5	n/a	n/a	n/a	n/a	n/a
1371.478	n/a	PROB	685739	n/a	LTP110	ltpFR	12	n/a	n/a	n/a	n/a	n/a	n/a	13	8	4	1	n/a	n/a	n/a	n/a	n/a
1372.636	n/a	PROB	686318	n/a	LTP110	ltpFR	12	n/a	n/a	n/a	n/a	n/a	n/a	15	8	6	1	n/a	n/a	n/a	n/a	n/a
1374.836	n/a	PROB	687418	n/a	LTP110	ltpFR	12	n/a	n/a	n/a	n/a	n/a	n/a	20	4	7	9	n/a	n/a	n/a	n/a	n/a
1376.276	n/a	PROB	688138	n/a	LTP110	ltpFR	12	n/a	n/a	n/a	n/a	n/a	n/a	18	9	1	8	n/a	n/a	n/a	n/a	n/a
1377.334	n/a	PROB	688667	n/a	LTP110	ltpFR	12	n/a	n/a	n/a	n/a	n/a	n/a	21	9	4	8	n/a	n/a	n/a	n/a	n/a
1380.142	n/a	PROB	690071	n/a	LTP110	ltpFR	12	n/a	n/a	n/a	n/a	n/a	n/a	19	6	5	8	n/a	n/a	n/a	n/a	n/a
1382.234	n/a	PROB	691117	n/a	LTP110	ltpFR	12	n/a	n/a	n/a	n/a	n/a	n/a	20	5	9	6	n/a	n/a	n/a	n/a	n/a
1383.892	n/a	STOP	691946	n/a	LTP110	ltpFR	12	n/a	n/a	n/a	n/a	n/a	n/a	n/a	n/a	n/a	n/a	n/a	n/a	n/a	n/a	n/a
1385.134	n/a	WORD	692567	wordpools/wasnorm_wordpool.txt	LTP110	ltpFR	12	5	0	BALLOON	75	n/a	1	n/a	0	0	0	0	0.5869140625	0.422607421875	lower	../fonts/zerothre.ttf
1388.142	n/a	START	694071	n/a	LTP110	ltpFR	12	n/a	n/a	n/a	n/a	n/a	n/a	n/a	n/a	n/a	n/a	n/a	n/a	n/a	n/a	n/a
1389.298	n/a	PROB	694649	n/a	LTP110	ltpFR	12	n/a	n/a	n/a	n/a	n/a	n/a	5	2	2	1	n/a	n/a	n/a	n/a	n/a
1390.264	n/a	PROB	695132	n/a	LTP110	ltpFR	12	n/a	n/a	n/a	n/a	n/a	n/a	12	8	3	1	n/a	n/a	n/a	n/a	n/a
1391.19	n/a	PROB	695595	n/a	LTP110	ltpFR	12	n/a	n/a	n/a	n/a	n/a	n/a	16	8	2	6	n/a	n/a	n/a	n/a	n/a
1392.472	n/a	PROB	696236	n/a	LTP110	ltpFR	12	n/a	n/a	n/a	n/a	n/a	n/a	10	1	5	4	n/a	n/a	n/a	n/a	n/a
1393.956	n/a	PROB	696978	n/a	LTP110	ltpFR	12	n/a	n/a	n/a	n/a	n/a	n/a	12	2	2	8	n/a	n/a	n/a	n/a	n/a
1394.914	n/a	PROB	697457	n/a	LTP110	ltpFR	12	n/a	n/a	n/a	n/a	n/a	n/a	15	4	2	9	n/a	n/a	n/a	n/a	n/a
1396.596	n/a	PROB	698298	n/a	LTP110	ltpFR	12	n/a	n/a	n/a	n/a	n/a	n/a	16	6	7	3	n/a	n/a	n/a	n/a	n/a
1397.512	n/a	PROB	698756	n/a	LTP110	ltpFR	12	n/a	n/a	n/a	n/a	n/a	n/a	23	9	8	6	n/a	n/a	n/a	n/a	n/a
1399.204	n/a	PROB	699602	n/a	LTP110	ltpFR	12	n/a	n/a	n/a	n/a	n/a	n/a	12	4	6	2	n/a	n/a	n/a	n/a	n/a
1400.094	n/a	PROB	700047	n/a	LTP110	ltpFR	12	n/a	n/a	n/a	n/a	n/a	n/a	7	3	2	2	n/a	n/a	n/a	n/a	n/a
1401.352	n/a	PROB	700676	n/a	LTP110	ltpFR	12	n/a	n/a	n/a	n/a	n/a	n/a	7	3	2	2	n/a	n/a	n/a	n/a	n/a
1402.494	n/a	PROB	701247	n/a	LTP110	ltpFR	12	n/a	n/a	n/a	n/a	n/a	n/a	13	3	4	6	n/a	n/a	n/a	n/a	n/a
1403.716	n/a	STOP	701858	n/a	LTP110	ltpFR	12	n/a	n/a	n/a	n/a	n/a	n/a	n/a	n/a	n/a	n/a	n/a	n/a	n/a	n/a	n/a
1405.118	n/a	WORD	702559	wordpools/wasnorm_wordpool.txt	LTP110	ltpFR	12	5	0	PORCUPINE	1107	n/a	1	n/a	0	0	0	0	0.5869140625	0.422607421875	lower	../fonts/zerothre.ttf
1408.126	n/a	START	704063	n/a	LTP110	ltpFR	12	n/a	n/a	n/a	n/a	n/a	n/a	n/a	n/a	n/a	n/a	n/a	n/a	n/a	n/a	n/a
1409.292	n/a	PROB	704646	n/a	LTP110	ltpFR	12	n/a	n/a	n/a	n/a	n/a	n/a	10	1	3	6	n/a	n/a	n/a	n/a	n/a
1410.558	n/a	PROB	705279	n/a	LTP110	ltpFR	12	n/a	n/a	n/a	n/a	n/a	n/a	8	1	2	5	n/a	n/a	n/a	n/a	n/a
1411.608	n/a	PROB	705804	n/a	LTP110	ltpFR	12	n/a	n/a	n/a	n/a	n/a	n/a	11	2	3	6	n/a	n/a	n/a	n/a	n/a
1412.992	n/a	PROB	706496	n/a	LTP110	ltpFR	12	n/a	n/a	n/a	n/a	n/a	n/a	12	2	8	1	n/a	n/a	n/a	n/a	n/a
1413.882	n/a	PROB	706941	n/a	LTP110	ltpFR	12	n/a	n/a	n/a	n/a	n/a	n/a	10	8	1	1	n/a	n/a	n/a	n/a	n/a
1416.774	n/a	PROB	708387	n/a	LTP110	ltpFR	12	n/a	n/a	n/a	n/a	n/a	n/a	15	4	8	3	n/a	n/a	n/a	n/a	n/a
1418.132	n/a	PROB	709066	n/a	LTP110	ltpFR	12	n/a	n/a	n/a	n/a	n/a	n/a	14	9	1	4	n/a	n/a	n/a	n/a	n/a
1419.04	n/a	PROB	709520	n/a	LTP110	ltpFR	12	n/a	n/a	n/a	n/a	n/a	n/a	14	7	1	6	n/a	n/a	n/a	n/a	n/a
1420.446	n/a	PROB	710223	n/a	LTP110	ltpFR	12	n/a	n/a	n/a	n/a	n/a	n/a	20	4	8	8	n/a	n/a	n/a	n/a	n/a
1421.948	n/a	PROB	710974	n/a	LTP110	ltpFR	12	n/a	n/a	n/a	n/a	n/a	n/a	15	3	5	7	n/a	n/a	n/a	n/a	n/a
1423.316	n/a	STOP	711658	n/a	LTP110	ltpFR	12	n/a	n/a	n/a	n/a	n/a	n/a	n/a	n/a	n/a	n/a	n/a	n/a	n/a	n/a	n/a
1425.062	n/a	WORD	712531	wordpools/wasnorm_wordpool.txt	LTP110	ltpFR	12	5	0	TWIG	1527	n/a	0	n/a	0	0	0	0	0.5869140625	0.422607421875	lower	../fonts/zerothre.ttf
1428.07	n/a	START	714035	n/a	LTP110	ltpFR	12	n/a	n/a	n/a	n/a	n/a	n/a	n/a	n/a	n/a	n/a	n/a	n/a	n/a	n/a	n/a
1428.894	n/a	PROB	714447	n/a	LTP110	ltpFR	12	n/a	n/a	n/a	n/a	n/a	n/a	21	4	8	9	n/a	n/a	n/a	n/a	n/a
1430.302	n/a	PROB	715151	n/a	LTP110	ltpFR	12	n/a	n/a	n/a	n/a	n/a	n/a	9	2	4	3	n/a	n/a	n/a	n/a	n/a
1431.56	n/a	PROB	715780	n/a	LTP110	ltpFR	12	n/a	n/a	n/a	n/a	n/a	n/a	15	7	9	3	n/a	n/a	n/a	n/a	n/a
1432.918	n/a	PROB	716459	n/a	LTP110	ltpFR	12	n/a	n/a	n/a	n/a	n/a	n/a	15	3	8	4	n/a	n/a	n/a	n/a	n/a
1434.884	n/a	PROB	717442	n/a	LTP110	ltpFR	12	n/a	n/a	n/a	n/a	n/a	n/a	13	2	3	8	n/a	n/a	n/a	n/a	n/a
1436.684	n/a	PROB	718342	n/a	LTP110	ltpFR	12	n/a	n/a	n/a	n/a	n/a	n/a	11	2	6	3	n/a	n/a	n/a	n/a	n/a
1438.634	n/a	PROB	719317	n/a	LTP110	ltpFR	12	n/a	n/a	n/a	n/a	n/a	n/a	26	9	9	8	n/a	n/a	n/a	n/a	n/a
1440.416	n/a	PROB	720208	n/a	LTP110	ltpFR	12	n/a	n/a	n/a	n/a	n/a	n/a	19	8	7	4	n/a	n/a	n/a	n/a	n/a
1444.07	n/a	STOP	722035	n/a	LTP110	ltpFR	12	n/a	n/a	n/a	n/a	n/a	n/a	n/a	n/a	n/a	n/a	n/a	n/a	n/a	n/a	n/a
1445.056	n/a	WORD	722528	wordpools/wasnorm_wordpool.txt	LTP110	ltpFR	12	5	0	TRAITOR	1495	n/a	1	n/a	0	0	0	0	0.5869140625	0.422607421875	lower	../fonts/zerothre.ttf
1448.064	n/a	START	724032	n/a	LTP110	ltpFR	12	n/a	n/a	n/a	n/a	n/a	n/a	n/a	n/a	n/a	n/a	n/a	n/a	n/a	n/a	n/a
1449.254	n/a	PROB	724627	n/a	LTP110	ltpFR	12	n/a	n/a	n/a	n/a	n/a	n/a	19	9	9	1	n/a	n/a	n/a	n/a	n/a
1450.58	n/a	PROB	725290	n/a	LTP110	ltpFR	12	n/a	n/a	n/a	n/a	n/a	n/a	11	1	9	1	n/a	n/a	n/a	n/a	n/a
1452.004	n/a	PROB	726002	n/a	LTP110	ltpFR	12	n/a	n/a	n/a	n/a	n/a	n/a	15	4	6	5	n/a	n/a	n/a	n/a	n/a
1454.07	n/a	PROB	727035	n/a	LTP110	ltpFR	12	n/a	n/a	n/a	n/a	n/a	n/a	13	7	5	1	n/a	n/a	n/a	n/a	n/a
1455.094	n/a	PROB	727547	n/a	LTP110	ltpFR	12	n/a	n/a	n/a	n/a	n/a	n/a	8	1	6	1	n/a	n/a	n/a	n/a	n/a
1456.044	n/a	PROB	728022	n/a	LTP110	ltpFR	12	n/a	n/a	n/a	n/a	n/a	n/a	17	3	8	6	n/a	n/a	n/a	n/a	n/a
1457.818	n/a	PROB	728909	n/a	LTP110	ltpFR	12	n/a	n/a	n/a	n/a	n/a	n/a	13	4	2	7	n/a	n/a	n/a	n/a	n/a
1459.678	n/a	PROB	729839	n/a	LTP110	ltpFR	12	n/a	n/a	n/a	n/a	n/a	n/a	17	8	3	6	n/a	n/a	n/a	n/a	n/a
1461.46	n/a	PROB	730730	n/a	LTP110	ltpFR	12	n/a	n/a	n/a	n/a	n/a	n/a	18	8	6	4	n/a	n/a	n/a	n/a	n/a
1462.6	n/a	STOP	731300	n/a	LTP110	ltpFR	12	n/a	n/a	n/a	n/a	n/a	n/a	n/a	n/a	n/a	n/a	n/a	n/a	n/a	n/a	n/a
1465.134	n/a	WORD	732567	wordpools/wasnorm_wordpool.txt	LTP110	ltpFR	12	5	0	CHEMICAL	291	n/a	0	n/a	0	0	0	0	0.5869140625	0.422607421875	lower	../fonts/zerothre.ttf
1468.142	n/a	START	734071	n/a	LTP110	ltpFR	12	n/a	n/a	n/a	n/a	n/a	n/a	n/a	n/a	n/a	n/a	n/a	n/a	n/a	n/a	n/a
1469.05	n/a	PROB	734525	n/a	LTP110	ltpFR	12	n/a	n/a	n/a	n/a	n/a	n/a	10	1	7	2	n/a	n/a	n/a	n/a	n/a
1470.198	n/a	PROB	735099	n/a	LTP110	ltpFR	12	n/a	n/a	n/a	n/a	n/a	n/a	12	6	4	2	n/a	n/a	n/a	n/a	n/a
1471.348	n/a	PROB	735674	n/a	LTP110	ltpFR	12	n/a	n/a	n/a	n/a	n/a	n/a	13	5	4	4	n/a	n/a	n/a	n/a	n/a
1473.28	n/a	PROB	736640	n/a	LTP110	ltpFR	12	n/a	n/a	n/a	n/a	n/a	n/a	8	5	1	2	n/a	n/a	n/a	n/a	n/a
1474.106	n/a	PROB	737053	n/a	LTP110	ltpFR	12	n/a	n/a	n/a	n/a	n/a	n/a	11	5	1	5	n/a	n/a	n/a	n/a	n/a
1475.172	n/a	PROB	737586	n/a	LTP110	ltpFR	12	n/a	n/a	n/a	n/a	n/a	n/a	15	7	2	6	n/a	n/a	n/a	n/a	n/a
1476.312	n/a	PROB	738156	n/a	LTP110	ltpFR	12	n/a	n/a	n/a	n/a	n/a	n/a	8	1	3	4	n/a	n/a	n/a	n/a	n/a
1478.278	n/a	PROB	739139	n/a	LTP110	ltpFR	12	n/a	n/a	n/a	n/a	n/a	n/a	22	8	9	5	n/a	n/a	n/a	n/a	n/a
1480.046	n/a	PROB	740023	n/a	LTP110	ltpFR	12	n/a	n/a	n/a	n/a	n/a	n/a	8	2	1	5	n/a	n/a	n/a	n/a	n/a
1481.562	n/a	PROB	740781	n/a	LTP110	ltpFR	12	n/a	n/a	n/a	n/a	n/a	n/a	9	1	5	3	n/a	n/a	n/a	n/a	n/a
1482.928	n/a	STOP	741464	n/a	LTP110	ltpFR	12	n/a	n/a	n/a	n/a	n/a	n/a	n/a	n/a	n/a	n/a	n/a	n/a	n/a	n/a	n/a
1485.92	n/a	REC_START	742960	n/a	LTP110	ltpFR	12	5	n/a	n/a	n/a	n/a	n/a	n/a	0	0	0	n/a	n/a	n/a	n/a	n/a
1488.18	n/a	REC_WORD	744090	wordpools/wasnorm_wordpool.txt	LTP110	ltpFR	12	5	0	RECEPTIONIST	1174	n/a	1	n/a	0	0	0	n/a	n/a	n/a	n/a	n/a
1489.256	n/a	REC_WORD	744628	wordpools/wasnorm_wordpool.txt	LTP110	ltpFR	12	5	0	OFFICE	972	n/a	1	n/a	0	0	0	n/a	n/a	n/a	n/a	n/a
1490.17	n/a	REC_WORD	745085	wordpools/wasnorm_wordpool.txt	LTP110	ltpFR	12	5	0	BEAVER	109	n/a	1	n/a	0	0	0	n/a	n/a	n/a	n/a	n/a
1491.212	n/a	REC_WORD	745606	wordpools/wasnorm_wordpool.txt	LTP110	ltpFR	12	5	0	OFFICE	972	n/a	1	n/a	0	0	0	n/a	n/a	n/a	n/a	n/a
1491.86	n/a	REC_WORD	745930	wordpools/wasnorm_wordpool.txt	LTP110	ltpFR	12	5	0	BEAVER	109	n/a	1	n/a	0	0	0	n/a	n/a	n/a	n/a	n/a
1492.63	n/a	REC_WORD	746315	wordpools/wasnorm_wordpool.txt	LTP110	ltpFR	12	5	0	PORCUPINE	1107	n/a	1	n/a	0	0	0	n/a	n/a	n/a	n/a	n/a
1494.454	n/a	REC_WORD	747227	wordpools/wasnorm_wordpool.txt	LTP110	ltpFR	12	5	0	WASP	1593	n/a	0	n/a	0	0	0	n/a	n/a	n/a	n/a	n/a
1495.224	n/a	REC_WORD	747612	wordpools/wasnorm_wordpool.txt	LTP110	ltpFR	12	5	0	HORNET	718	n/a	0	n/a	0	0	0	n/a	n/a	n/a	n/a	n/a
1496.29	n/a	REC_WORD	748145	wordpools/wasnorm_wordpool.txt	LTP110	ltpFR	12	5	0	WRENCH	1625	n/a	0	n/a	0	0	0	n/a	n/a	n/a	n/a	n/a
1497.108	n/a	REC_WORD_VV	748554	wordpools/wasnorm_wordpool.txt	LTP110	ltpFR	12	5	n/a	<>	-1	n/a	n/a	n/a	0	0	0	n/a	n/a	n/a	n/a	n/a
1498.476	n/a	REC_WORD	749238	wordpools/wasnorm_wordpool.txt	LTP110	ltpFR	12	5	0	WRENCH	1625	n/a	0	n/a	0	0	0	n/a	n/a	n/a	n/a	n/a
1499.05	n/a	REC_WORD	749525	wordpools/wasnorm_wordpool.txt	LTP110	ltpFR	12	5	0	TECHNICIAN	1443	n/a	1	n/a	0	0	0	n/a	n/a	n/a	n/a	n/a
1500.992	n/a	REC_WORD	750496	wordpools/wasnorm_wordpool.txt	LTP110	ltpFR	12	5	0	TRAITOR	1495	n/a	1	n/a	0	0	0	n/a	n/a	n/a	n/a	n/a
1564.762	n/a	WORD	782381	wordpools/wasnorm_wordpool.txt	LTP110	ltpFR	12	6	0	COLLEGE	346	n/a	0	n/a	0	0	0	0	0.5869140625	0.422607421875	lower	../fonts/zerothre.ttf
1568.718	n/a	WORD	784359	wordpools/wasnorm_wordpool.txt	LTP110	ltpFR	12	6	0	LAWYER	806	n/a	1	n/a	0	0	0	0	0.5869140625	0.422607421875	lower	../fonts/zerothre.ttf
1572.626	n/a	WORD	786313	wordpools/wasnorm_wordpool.txt	LTP110	ltpFR	12	6	0	PERSON	1052	n/a	1	n/a	0	0	0	0	0.5869140625	0.422607421875	lower	../fonts/zerothre.ttf
1576.634	n/a	WORD	788317	wordpools/wasnorm_wordpool.txt	LTP110	ltpFR	12	6	1	BAG	69	n/a	0	n/a	0	0	0	1	0.412841796875	0.57763671875	upper	../fonts/amplitud.ttf
1580.54	n/a	WORD	790270	wordpools/wasnorm_wordpool.txt	LTP110	ltpFR	12	6	1	POND	1101	n/a	0	n/a	0	0	0	1	0.412841796875	0.57763671875	upper	../fonts/amplitud.ttf
1584.632	n/a	WORD	792316	wordpools/wasnorm_wordpool.txt	LTP110	ltpFR	12	6	0	VIOLIN	1571	n/a	1	n/a	0	0	0	0	0.5869140625	0.422607421875	lower	../fonts/zerothre.ttf
1588.536	n/a	WORD	794268	wordpools/wasnorm_wordpool.txt	LTP110	ltpFR	12	6	0	BAND	78	n/a	1	n/a	0	0	0	0	0.5869140625	0.422607421875	lower	../fonts/zerothre.ttf
1592.402	n/a	WORD	796201	wordpools/wasnorm_wordpool.txt	LTP110	ltpFR	12	6	0	TEACHER	1440	n/a	1	n/a	0	0	0	0	0.5869140625	0.422607421875	lower	../fonts/zerothre.ttf
1596.236	n/a	WORD	798118	wordpools/wasnorm_wordpool.txt	LTP110	ltpFR	12	6	0	BOX	159	n/a	1	n/a	0	0	0	0	0.5869140625	0.422607421875	lower	../fonts/zerothre.ttf
1600.218	n/a	WORD	800109	wordpools/wasnorm_wordpool.txt	LTP110	ltpFR	12	6	0	CITIZEN	312	n/a	1	n/a	0	0	0	0	0.5869140625	0.422607421875	lower	../fonts/zerothre.ttf
1604.366	n/a	WORD	802183	wordpools/wasnorm_wordpool.txt	LTP110	ltpFR	12	6	1	LANDSCAPE	799	n/a	0	n/a	0	0	0	1	0.412841796875	0.57763671875	upper	../fonts/amplitud.ttf
1608.314	n/a	WORD	804157	wordpools/wasnorm_wordpool.txt	LTP110	ltpFR	12	6	1	THICKET	1455	n/a	0	n/a	0	0	0	1	0.412841796875	0.57763671875	upper	../fonts/amplitud.ttf
1612.23	n/a	WORD	806115	wordpools/wasnorm_wordpool.txt	LTP110	ltpFR	12	6	1	ELM	527	n/a	0	n/a	0	0	0	1	0.412841796875	0.57763671875	upper	../fonts/amplitud.ttf
1616.296	n/a	WORD	808148	wordpools/wasnorm_wordpool.txt	LTP110	ltpFR	12	6	1	WINNER	1615	n/a	1	n/a	0	0	0	1	0.412841796875	0.57763671875	upper	../fonts/amplitud.ttf
1620.12	n/a	WORD	810060	wordpools/wasnorm_wordpool.txt	LTP110	ltpFR	12	6	1	COFFEE	341	n/a	0	n/a	0	0	0	1	0.412841796875	0.57763671875	upper	../fonts/amplitud.ttf
1623.978	n/a	WORD	811989	wordpools/wasnorm_wordpool.txt	LTP110	ltpFR	12	6	1	CREAM	402	n/a	0	n/a	0	0	0	1	0.412841796875	0.57763671875	upper	../fonts/amplitud.ttf
1626.984	n/a	START	813492	n/a	LTP110	ltpFR	12	n/a	n/a	n/a	n/a	n/a	n/a	n/a	n/a	n/a	n/a	n/a	n/a	n/a	n/a	n/a
1627.86	n/a	PROB	813930	n/a	LTP110	ltpFR	12	n/a	n/a	n/a	n/a	n/a	n/a	24	9	9	6	n/a	n/a	n/a	n/a	n/a
1630.158	n/a	PROB	815079	n/a	LTP110	ltpFR	12	n/a	n/a	n/a	n/a	n/a	n/a	21	6	6	9	n/a	n/a	n/a	n/a	n/a
1631.708	n/a	PROB	815854	n/a	LTP110	ltpFR	12	n/a	n/a	n/a	n/a	n/a	n/a	17	7	4	6	n/a	n/a	n/a	n/a	n/a
1633.24	n/a	PROB	816620	n/a	LTP110	ltpFR	12	n/a	n/a	n/a	n/a	n/a	n/a	12	3	5	4	n/a	n/a	n/a	n/a	n/a
1635.132	n/a	PROB	817566	n/a	LTP110	ltpFR	12	n/a	n/a	n/a	n/a	n/a	n/a	12	3	7	2	n/a	n/a	n/a	n/a	n/a
1636.232	n/a	PROB	818116	n/a	LTP110	ltpFR	12	n/a	n/a	n/a	n/a	n/a	n/a	18	7	3	8	n/a	n/a	n/a	n/a	n/a
1637.916	n/a	PROB	818958	n/a	LTP110	ltpFR	12	n/a	n/a	n/a	n/a	n/a	n/a	9	2	1	6	n/a	n/a	n/a	n/a	n/a
1639.79	n/a	PROB	819895	n/a	LTP110	ltpFR	12	n/a	n/a	n/a	n/a	n/a	n/a	18	6	4	8	n/a	n/a	n/a	n/a	n/a
1641.198	n/a	PROB	820599	n/a	LTP110	ltpFR	12	n/a	n/a	n/a	n/a	n/a	n/a	12	1	3	8	n/a	n/a	n/a	n/a	n/a
1642.624	n/a	STOP	821312	n/a	LTP110	ltpFR	12	n/a	n/a	n/a	n/a	n/a	n/a	n/a	n/a	n/a	n/a	n/a	n/a	n/a	n/a	n/a
1644.746	n/a	REC_START	822373	n/a	LTP110	ltpFR	12	6	n/a	n/a	n/a	n/a	n/a	n/a	0	0	0	n/a	n/a	n/a	n/a	n/a
1646.488	n/a	REC_WORD	823244	wordpools/wasnorm_wordpool.txt	LTP110	ltpFR	12	6	0	COLLEGE	346	n/a	0	n/a	0	0	0	n/a	n/a	n/a	n/a	n/a
1648.284	n/a	REC_WORD	824142	wordpools/wasnorm_wordpool.txt	LTP110	ltpFR	12	6	1	BAG	69	n/a	0	n/a	0	0	0	n/a	n/a	n/a	n/a	n/a
1650.328	n/a	REC_WORD	825164	wordpools/wasnorm_wordpool.txt	LTP110	ltpFR	12	6	0	LAWYER	806	n/a	1	n/a	0	0	0	n/a	n/a	n/a	n/a	n/a
1651.206	n/a	REC_WORD	825603	wordpools/wasnorm_wordpool.txt	LTP110	ltpFR	12	6	0	PERSON	1052	n/a	1	n/a	0	0	0	n/a	n/a	n/a	n/a	n/a
1652.134	n/a	REC_WORD	826067	wordpools/wasnorm_wordpool.txt	LTP110	ltpFR	12	6	0	TEACHER	1440	n/a	1	n/a	0	0	0	n/a	n/a	n/a	n/a	n/a
1653.124	n/a	REC_WORD	826562	wordpools/wasnorm_wordpool.txt	LTP110	ltpFR	12	6	0	BOX	159	n/a	1	n/a	0	0	0	n/a	n/a	n/a	n/a	n/a
1653.916	n/a	REC_WORD	826958	wordpools/wasnorm_wordpool.txt	LTP110	ltpFR	12	6	0	VIOLIN	1571	n/a	1	n/a	0	0	0	n/a	n/a	n/a	n/a	n/a
1654.874	n/a	REC_WORD	827437	wordpools/wasnorm_wordpool.txt	LTP110	ltpFR	12	6	0	BAND	78	n/a	1	n/a	0	0	0	n/a	n/a	n/a	n/a	n/a
1656.286	n/a	REC_WORD	828143	wordpools/wasnorm_wordpool.txt	LTP110	ltpFR	12	6	1	ELM	527	n/a	0	n/a	0	0	0	n/a	n/a	n/a	n/a	n/a
1657.134	n/a	REC_WORD	828567	wordpools/wasnorm_wordpool.txt	LTP110	ltpFR	12	6	1	THICKET	1455	n/a	0	n/a	0	0	0	n/a	n/a	n/a	n/a	n/a
1658.356	n/a	REC_WORD	829178	wordpools/wasnorm_wordpool.txt	LTP110	ltpFR	12	6	1	POND	1101	n/a	0	n/a	0	0	0	n/a	n/a	n/a	n/a	n/a
1659.624	n/a	REC_WORD	829812	wordpools/wasnorm_wordpool.txt	LTP110	ltpFR	12	6	1	LANDSCAPE	799	n/a	0	n/a	0	0	0	n/a	n/a	n/a	n/a	n/a
1661.738	n/a	REC_WORD	830869	wordpools/wasnorm_wordpool.txt	LTP110	ltpFR	12	6	0	CITIZEN	312	n/a	1	n/a	0	0	0	n/a	n/a	n/a	n/a	n/a
1682.044	n/a	REC_WORD	841022	wordpools/wasnorm_wordpool.txt	LTP110	ltpFR	12	6	1	WINNER	1615	n/a	1	n/a	0	0	0	n/a	n/a	n/a	n/a	n/a
1723.58	n/a	WORD	861790	wordpools/wasnorm_wordpool.txt	LTP110	ltpFR	12	7	1	CONSOLE	364	n/a	0	n/a	0	0	0	1	0.412841796875	0.57763671875	upper	../fonts/amplitud.ttf
1727.596	n/a	WORD	863798	wordpools/wasnorm_wordpool.txt	LTP110	ltpFR	12	7	1	VEAL	1551	n/a	0	n/a	0	0	0	1	0.412841796875	0.57763671875	upper	../fonts/amplitud.ttf
1731.51	n/a	WORD	865755	wordpools/wasnorm_wordpool.txt	LTP110	ltpFR	12	7	1	SIRLOIN	1311	n/a	0	n/a	0	0	0	1	0.412841796875	0.57763671875	upper	../fonts/amplitud.ttf
1735.618	n/a	WORD	867809	wordpools/wasnorm_wordpool.txt	LTP110	ltpFR	12	7	1	COURSE	390	n/a	0	n/a	0	0	0	1	0.412841796875	0.57763671875	upper	../fonts/amplitud.ttf
1739.808	n/a	WORD	869904	wordpools/wasnorm_wordpool.txt	LTP110	ltpFR	12	7	0	WORKER	1621	n/a	1	n/a	0	0	0	0	0.5869140625	0.422607421875	lower	../fonts/zerothre.ttf
1743.982	n/a	WORD	871991	wordpools/wasnorm_wordpool.txt	LTP110	ltpFR	12	7	0	APPLICATION	34	n/a	0	n/a	0	0	0	0	0.5869140625	0.422607421875	lower	../fonts/zerothre.ttf
1747.914	n/a	WORD	873957	wordpools/wasnorm_wordpool.txt	LTP110	ltpFR	12	7	0	SCREW	1254	n/a	0	n/a	0	0	0	0	0.5869140625	0.422607421875	lower	../fonts/zerothre.ttf
1751.988	n/a	WORD	875994	wordpools/wasnorm_wordpool.txt	LTP110	ltpFR	12	7	0	DIPLOMA	470	n/a	0	n/a	0	0	0	0	0.5869140625	0.422607421875	lower	../fonts/zerothre.ttf
1755.812	n/a	WORD	877906	wordpools/wasnorm_wordpool.txt	LTP110	ltpFR	12	7	1	AUDIENCE	59	n/a	0	n/a	0	0	0	1	0.412841796875	0.57763671875	upper	../fonts/amplitud.ttf
1759.986	n/a	WORD	879993	wordpools/wasnorm_wordpool.txt	LTP110	ltpFR	12	7	1	DRAGON	492	n/a	1	n/a	0	0	0	1	0.412841796875	0.57763671875	upper	../fonts/amplitud.ttf
1763.892	n/a	WORD	881946	wordpools/wasnorm_wordpool.txt	LTP110	ltpFR	12	7	0	KETTLE	772	n/a	1	n/a	0	0	0	0	0.5869140625	0.422607421875	lower	../fonts/zerothre.ttf
1768.05	n/a	WORD	884025	wordpools/wasnorm_wordpool.txt	LTP110	ltpFR	12	7	0	EMPLOYER	532	n/a	1	n/a	0	0	0	0	0.5869140625	0.422607421875	lower	../fonts/zerothre.ttf
1772.182	n/a	WORD	886091	wordpools/wasnorm_wordpool.txt	LTP110	ltpFR	12	7	0	FEMALE	559	n/a	1	n/a	0	0	0	0	0.5869140625	0.422607421875	lower	../fonts/zerothre.ttf
1776.164	n/a	WORD	888082	wordpools/wasnorm_wordpool.txt	LTP110	ltpFR	12	7	0	JUPITER	765	n/a	1	n/a	0	0	0	0	0.5869140625	0.422607421875	lower	../fonts/zerothre.ttf
1780.362	n/a	WORD	890181	wordpools/wasnorm_wordpool.txt	LTP110	ltpFR	12	7	1	AGENT	10	n/a	1	n/a	0	0	0	1	0.412841796875	0.57763671875	upper	../fonts/amplitud.ttf
1784.544	n/a	WORD	892272	wordpools/wasnorm_wordpool.txt	LTP110	ltpFR	12	7	1	MOB	904	n/a	0	n/a	0	0	0	1	0.412841796875	0.57763671875	upper	../fonts/amplitud.ttf
1787.552	n/a	START	893776	n/a	LTP110	ltpFR	12	n/a	n/a	n/a	n/a	n/a	n/a	n/a	n/a	n/a	n/a	n/a	n/a	n/a	n/a	n/a
1788.56	n/a	PROB	894280	n/a	LTP110	ltpFR	12	n/a	n/a	n/a	n/a	n/a	n/a	11	6	1	4	n/a	n/a	n/a	n/a	n/a
1789.86	n/a	PROB	894930	n/a	LTP110	ltpFR	12	n/a	n/a	n/a	n/a	n/a	n/a	10	2	4	4	n/a	n/a	n/a	n/a	n/a
1791.426	n/a	PROB	895713	n/a	LTP110	ltpFR	12	n/a	n/a	n/a	n/a	n/a	n/a	18	3	9	6	n/a	n/a	n/a	n/a	n/a
1794.296	n/a	STOP	897148	n/a	LTP110	ltpFR	12	n/a	n/a	n/a	n/a	n/a	n/a	n/a	n/a	n/a	n/a	n/a	n/a	n/a	n/a	n/a
1797.424	n/a	REC_START	898712	n/a	LTP110	ltpFR	12	7	n/a	n/a	n/a	n/a	n/a	n/a	0	0	0	n/a	n/a	n/a	n/a	n/a
1798.786	n/a	REC_WORD	899393	wordpools/wasnorm_wordpool.txt	LTP110	ltpFR	12	7	1	MOB	904	n/a	0	n/a	0	0	0	n/a	n/a	n/a	n/a	n/a
1799.454	n/a	REC_WORD	899727	wordpools/wasnorm_wordpool.txt	LTP110	ltpFR	12	7	1	AGENT	10	n/a	1	n/a	0	0	0	n/a	n/a	n/a	n/a	n/a
1800.094	n/a	REC_WORD	900047	wordpools/wasnorm_wordpool.txt	LTP110	ltpFR	12	7	0	WORKER	1621	n/a	1	n/a	0	0	0	n/a	n/a	n/a	n/a	n/a
1800.852	n/a	REC_WORD	900426	wordpools/wasnorm_wordpool.txt	LTP110	ltpFR	12	7	0	EMPLOYER	532	n/a	1	n/a	0	0	0	n/a	n/a	n/a	n/a	n/a
1801.852	n/a	REC_WORD_VV	900926	wordpools/wasnorm_wordpool.txt	LTP110	ltpFR	12	7	n/a	<>	-1	n/a	n/a	n/a	0	0	0	n/a	n/a	n/a	n/a	n/a
1807.292	n/a	REC_WORD	903646	wordpools/wasnorm_wordpool.txt	LTP110	ltpFR	12	7	0	DIPLOMA	470	n/a	0	n/a	0	0	0	n/a	n/a	n/a	n/a	n/a
1808.18	n/a	REC_WORD	904090	wordpools/wasnorm_wordpool.txt	LTP110	ltpFR	12	7	1	AUDIENCE	59	n/a	0	n/a	0	0	0	n/a	n/a	n/a	n/a	n/a
1812.24	n/a	REC_WORD	906120	wordpools/wasnorm_wordpool.txt	LTP110	ltpFR	12	7	0	APPLICATION	34	n/a	0	n/a	0	0	0	n/a	n/a	n/a	n/a	n/a
1813.26	n/a	REC_WORD	906630	wordpools/wasnorm_wordpool.txt	LTP110	ltpFR	12	7	0	SCREW	1254	n/a	0	n/a	0	0	0	n/a	n/a	n/a	n/a	n/a
1818.138	n/a	REC_WORD	909069	wordpools/wasnorm_wordpool.txt	LTP110	ltpFR	12	7	1	SIRLOIN	1311	n/a	0	n/a	0	0	0	n/a	n/a	n/a	n/a	n/a
1819.126	n/a	REC_WORD	909563	wordpools/wasnorm_wordpool.txt	LTP110	ltpFR	12	7	1	VEAL	1551	n/a	0	n/a	0	0	0	n/a	n/a	n/a	n/a	n/a
1819.92	n/a	REC_WORD	909960	wordpools/wasnorm_wordpool.txt	LTP110	ltpFR	12	7	1	CONSOLE	364	n/a	0	n/a	0	0	0	n/a	n/a	n/a	n/a	n/a
1834.014	n/a	REC_WORD	917007	wordpools/wasnorm_wordpool.txt	LTP110	ltpFR	12	7	1	MOB	904	n/a	0	n/a	0	0	0	n/a	n/a	n/a	n/a	n/a
1874.442	n/a	START	937221	n/a	LTP110	ltpFR	12	n/a	n/a	n/a	n/a	n/a	n/a	n/a	n/a	n/a	n/a	n/a	n/a	n/a	n/a	n/a
1875.95	n/a	PROB	937975	n/a	LTP110	ltpFR	12	n/a	n/a	n/a	n/a	n/a	n/a	9	5	3	1	n/a	n/a	n/a	n/a	n/a
1877.35	n/a	PROB	938675	n/a	LTP110	ltpFR	12	n/a	n/a	n/a	n/a	n/a	n/a	18	7	9	2	n/a	n/a	n/a	n/a	n/a
1879.166	n/a	PROB	939583	n/a	LTP110	ltpFR	12	n/a	n/a	n/a	n/a	n/a	n/a	20	5	9	6	n/a	n/a	n/a	n/a	n/a
1880.548	n/a	PROB	940274	n/a	LTP110	ltpFR	12	n/a	n/a	n/a	n/a	n/a	n/a	16	4	5	7	n/a	n/a	n/a	n/a	n/a
1882.148	n/a	PROB	941074	n/a	LTP110	ltpFR	12	n/a	n/a	n/a	n/a	n/a	n/a	13	7	4	2	n/a	n/a	n/a	n/a	n/a
1883.33	n/a	PROB	941665	n/a	LTP110	ltpFR	12	n/a	n/a	n/a	n/a	n/a	n/a	17	7	4	6	n/a	n/a	n/a	n/a	n/a
1884.674	n/a	PROB	942337	n/a	LTP110	ltpFR	12	n/a	n/a	n/a	n/a	n/a	n/a	9	2	5	2	n/a	n/a	n/a	n/a	n/a
1885.974	n/a	PROB	942987	n/a	LTP110	ltpFR	12	n/a	n/a	n/a	n/a	n/a	n/a	18	1	8	9	n/a	n/a	n/a	n/a	n/a
1887.214	n/a	PROB	943607	n/a	LTP110	ltpFR	12	n/a	n/a	n/a	n/a	n/a	n/a	5	1	3	1	n/a	n/a	n/a	n/a	n/a
1888.214	n/a	PROB	944107	n/a	LTP110	ltpFR	12	n/a	n/a	n/a	n/a	n/a	n/a	10	5	2	3	n/a	n/a	n/a	n/a	n/a
1889.326	n/a	STOP	944663	n/a	LTP110	ltpFR	12	n/a	n/a	n/a	n/a	n/a	n/a	n/a	n/a	n/a	n/a	n/a	n/a	n/a	n/a	n/a
1891.278	n/a	WORD	945639	wordpools/wasnorm_wordpool.txt	LTP110	ltpFR	12	8	0	CYLINDER	432	n/a	1	n/a	0	0	0	0	0.5869140625	0.422607421875	lower	../fonts/zerothre.ttf
1894.286	n/a	START	947143	n/a	LTP110	ltpFR	12	n/a	n/a	n/a	n/a	n/a	n/a	n/a	n/a	n/a	n/a	n/a	n/a	n/a	n/a	n/a
1895.112	n/a	PROB	947556	n/a	LTP110	ltpFR	12	n/a	n/a	n/a	n/a	n/a	n/a	11	4	5	2	n/a	n/a	n/a	n/a	n/a
1896.41	n/a	PROB	948205	n/a	LTP110	ltpFR	12	n/a	n/a	n/a	n/a	n/a	n/a	15	3	5	6	n/a	n/a	n/a	n/a	n/a
1898.194	n/a	PROB	949097	n/a	LTP110	ltpFR	12	n/a	n/a	n/a	n/a	n/a	n/a	10	4	5	1	n/a	n/a	n/a	n/a	n/a
1901.234	n/a	PROB	950617	n/a	LTP110	ltpFR	12	n/a	n/a	n/a	n/a	n/a	n/a	14	4	2	8	n/a	n/a	n/a	n/a	n/a
1902.61	n/a	PROB	951305	n/a	LTP110	ltpFR	12	n/a	n/a	n/a	n/a	n/a	n/a	20	3	8	9	n/a	n/a	n/a	n/a	n/a
1905.168	n/a	PROB	952584	n/a	LTP110	ltpFR	12	n/a	n/a	n/a	n/a	n/a	n/a	21	8	9	4	n/a	n/a	n/a	n/a	n/a
1906.776	n/a	PROB	953388	n/a	LTP110	ltpFR	12	n/a	n/a	n/a	n/a	n/a	n/a	13	3	1	9	n/a	n/a	n/a	n/a	n/a
1910.286	n/a	STOP	955143	n/a	LTP110	ltpFR	12	n/a	n/a	n/a	n/a	n/a	n/a	n/a	n/a	n/a	n/a	n/a	n/a	n/a	n/a	n/a
1911.314	n/a	WORD	955657	wordpools/wasnorm_wordpool.txt	LTP110	ltpFR	12	8	0	PADDLE	1000	n/a	1	n/a	0	0	0	0	0.5869140625	0.422607421875	lower	../fonts/zerothre.ttf
1914.322	n/a	START	957161	n/a	LTP110	ltpFR	12	n/a	n/a	n/a	n/a	n/a	n/a	n/a	n/a	n/a	n/a	n/a	n/a	n/a	n/a	n/a
1915.422	n/a	PROB	957711	n/a	LTP110	ltpFR	12	n/a	n/a	n/a	n/a	n/a	n/a	20	9	9	2	n/a	n/a	n/a	n/a	n/a
1917.954	n/a	PROB	958977	n/a	LTP110	ltpFR	12	n/a	n/a	n/a	n/a	n/a	n/a	17	4	9	4	n/a	n/a	n/a	n/a	n/a
1920.712	n/a	PROB	960356	n/a	LTP110	ltpFR	12	n/a	n/a	n/a	n/a	n/a	n/a	18	6	8	4	n/a	n/a	n/a	n/a	n/a
1922.212	n/a	PROB	961106	n/a	LTP110	ltpFR	12	n/a	n/a	n/a	n/a	n/a	n/a	11	1	2	8	n/a	n/a	n/a	n/a	n/a
1924.31	n/a	PROB	962155	n/a	LTP110	ltpFR	12	n/a	n/a	n/a	n/a	n/a	n/a	27	9	9	9	n/a	n/a	n/a	n/a	n/a
1925.77	n/a	PROB	962885	n/a	LTP110	ltpFR	12	n/a	n/a	n/a	n/a	n/a	n/a	20	6	8	6	n/a	n/a	n/a	n/a	n/a
1927.418	n/a	PROB	963709	n/a	LTP110	ltpFR	12	n/a	n/a	n/a	n/a	n/a	n/a	16	4	7	5	n/a	n/a	n/a	n/a	n/a
1929.366	n/a	STOP	964683	n/a	LTP110	ltpFR	12	n/a	n/a	n/a	n/a	n/a	n/a	n/a	n/a	n/a	n/a	n/a	n/a	n/a	n/a	n/a
1931.508	n/a	WORD	965754	wordpools/wasnorm_wordpool.txt	LTP110	ltpFR	12	8	0	CAFETERIA	217	n/a	1	n/a	0	0	0	0	0.5869140625	0.422607421875	lower	../fonts/zerothre.ttf
1934.516	n/a	START	967258	n/a	LTP110	ltpFR	12	n/a	n/a	n/a	n/a	n/a	n/a	n/a	n/a	n/a	n/a	n/a	n/a	n/a	n/a	n/a
1935.424	n/a	PROB	967712	n/a	LTP110	ltpFR	12	n/a	n/a	n/a	n/a	n/a	n/a	19	8	4	7	n/a	n/a	n/a	n/a	n/a
1936.824	n/a	PROB	968412	n/a	LTP110	ltpFR	12	n/a	n/a	n/a	n/a	n/a	n/a	10	1	6	3	n/a	n/a	n/a	n/a	n/a
1938.232	n/a	PROB	969116	n/a	LTP110	ltpFR	12	n/a	n/a	n/a	n/a	n/a	n/a	11	2	3	6	n/a	n/a	n/a	n/a	n/a
1940.048	n/a	PROB	970024	n/a	LTP110	ltpFR	12	n/a	n/a	n/a	n/a	n/a	n/a	10	1	3	6	n/a	n/a	n/a	n/a	n/a
1942.496	n/a	PROB	971248	n/a	LTP110	ltpFR	12	n/a	n/a	n/a	n/a	n/a	n/a	9	3	3	3	n/a	n/a	n/a	n/a	n/a
1943.64	n/a	PROB	971820	n/a	LTP110	ltpFR	12	n/a	n/a	n/a	n/a	n/a	n/a	11	5	1	5	n/a	n/a	n/a	n/a	n/a
1944.598	n/a	PROB	972299	n/a	LTP110	ltpFR	12	n/a	n/a	n/a	n/a	n/a	n/a	8	4	3	1	n/a	n/a	n/a	n/a	n/a
1945.796	n/a	PROB	972898	n/a	LTP110	ltpFR	12	n/a	n/a	n/a	n/a	n/a	n/a	10	3	4	3	n/a	n/a	n/a	n/a	n/a
1947.454	n/a	PROB	973727	n/a	LTP110	ltpFR	12	n/a	n/a	n/a	n/a	n/a	n/a	19	8	2	9	n/a	n/a	n/a	n/a	n/a
1948.654	n/a	PROB	974327	n/a	LTP110	ltpFR	12	n/a	n/a	n/a	n/a	n/a	n/a	8	4	4	1	n/a	n/a	n/a	n/a	n/a
1949.6	n/a	STOP	974800	n/a	LTP110	ltpFR	12	n/a	n/a	n/a	n/a	n/a	n/a	n/a	n/a	n/a	n/a	n/a	n/a	n/a	n/a	n/a
1951.594	n/a	WORD	975797	wordpools/wasnorm_wordpool.txt	LTP110	ltpFR	12	8	0	CUPBOARD	425	n/a	1	n/a	0	0	0	0	0.5869140625	0.422607421875	lower	../fonts/zerothre.ttf
1954.602	n/a	START	977301	n/a	LTP110	ltpFR	12	n/a	n/a	n/a	n/a	n/a	n/a	n/a	n/a	n/a	n/a	n/a	n/a	n/a	n/a	n/a
1955.576	n/a	PROB	977788	n/a	LTP110	ltpFR	12	n/a	n/a	n/a	n/a	n/a	n/a	17	5	4	8	n/a	n/a	n/a	n/a	n/a
1958.868	n/a	PROB	979434	n/a	LTP110	ltpFR	12	n/a	n/a	n/a	n/a	n/a	n/a	12	4	2	6	n/a	n/a	n/a	n/a	n/a
1961.058	n/a	PROB	980529	n/a	LTP110	ltpFR	12	n/a	n/a	n/a	n/a	n/a	n/a	13	5	4	4	n/a	n/a	n/a	n/a	n/a
1962.858	n/a	PROB	981429	n/a	LTP110	ltpFR	12	n/a	n/a	n/a	n/a	n/a	n/a	12	5	5	2	n/a	n/a	n/a	n/a	n/a
1964.092	n/a	PROB	982046	n/a	LTP110	ltpFR	12	n/a	n/a	n/a	n/a	n/a	n/a	8	1	6	1	n/a	n/a	n/a	n/a	n/a
1965.24	n/a	PROB	982620	n/a	LTP110	ltpFR	12	n/a	n/a	n/a	n/a	n/a	n/a	9	4	2	3	n/a	n/a	n/a	n/a	n/a
1966.766	n/a	PROB	983383	n/a	LTP110	ltpFR	12	n/a	n/a	n/a	n/a	n/a	n/a	15	4	2	9	n/a	n/a	n/a	n/a	n/a
1969.082	n/a	STOP	984541	n/a	LTP110	ltpFR	12	n/a	n/a	n/a	n/a	n/a	n/a	n/a	n/a	n/a	n/a	n/a	n/a	n/a	n/a	n/a
1971.538	n/a	WORD	985769	wordpools/wasnorm_wordpool.txt	LTP110	ltpFR	12	8	0	CACTUS	215	n/a	1	n/a	0	0	0	0	0.5869140625	0.422607421875	lower	../fonts/zerothre.ttf
1974.546	n/a	START	987273	n/a	LTP110	ltpFR	12	n/a	n/a	n/a	n/a	n/a	n/a	n/a	n/a	n/a	n/a	n/a	n/a	n/a	n/a	n/a
1975.712	n/a	PROB	987856	n/a	LTP110	ltpFR	12	n/a	n/a	n/a	n/a	n/a	n/a	15	2	6	7	n/a	n/a	n/a	n/a	n/a
1976.954	n/a	PROB	988477	n/a	LTP110	ltpFR	12	n/a	n/a	n/a	n/a	n/a	n/a	9	3	4	2	n/a	n/a	n/a	n/a	n/a
1978.17	n/a	PROB	989085	n/a	LTP110	ltpFR	12	n/a	n/a	n/a	n/a	n/a	n/a	18	7	3	8	n/a	n/a	n/a	n/a	n/a
1979.468	n/a	PROB	989734	n/a	LTP110	ltpFR	12	n/a	n/a	n/a	n/a	n/a	n/a	13	7	1	5	n/a	n/a	n/a	n/a	n/a
1980.604	n/a	PROB	990302	n/a	LTP110	ltpFR	12	n/a	n/a	n/a	n/a	n/a	n/a	19	9	5	5	n/a	n/a	n/a	n/a	n/a
1981.844	n/a	PROB	990922	n/a	LTP110	ltpFR	12	n/a	n/a	n/a	n/a	n/a	n/a	13	3	3	7	n/a	n/a	n/a	n/a	n/a
1982.928	n/a	PROB	991464	n/a	LTP110	ltpFR	12	n/a	n/a	n/a	n/a	n/a	n/a	11	5	2	4	n/a	n/a	n/a	n/a	n/a
1984.384	n/a	PROB	992192	n/a	LTP110	ltpFR	12	n/a	n/a	n/a	n/a	n/a	n/a	16	6	8	2	n/a	n/a	n/a	n/a	n/a
1987.06	n/a	PROB	993530	n/a	LTP110	ltpFR	12	n/a	n/a	n/a	n/a	n/a	n/a	12	3	4	5	n/a	n/a	n/a	n/a	n/a
1988.626	n/a	PROB	994313	n/a	LTP110	ltpFR	12	n/a	n/a	n/a	n/a	n/a	n/a	14	4	6	3	n/a	n/a	n/a	n/a	n/a
1989.61	n/a	STOP	994805	n/a	LTP110	ltpFR	12	n/a	n/a	n/a	n/a	n/a	n/a	n/a	n/a	n/a	n/a	n/a	n/a	n/a	n/a	n/a
1991.456	n/a	WORD	995728	wordpools/wasnorm_wordpool.txt	LTP110	ltpFR	12	8	0	HERB	704	n/a	0	n/a	0	0	0	0	0.5869140625	0.422607421875	lower	../fonts/zerothre.ttf
1994.464	n/a	START	997232	n/a	LTP110	ltpFR	12	n/a	n/a	n/a	n/a	n/a	n/a	n/a	n/a	n/a	n/a	n/a	n/a	n/a	n/a	n/a
1995.464	n/a	PROB	997732	n/a	LTP110	ltpFR	12	n/a	n/a	n/a	n/a	n/a	n/a	15	8	6	1	n/a	n/a	n/a	n/a	n/a
1996.606	n/a	PROB	998303	n/a	LTP110	ltpFR	12	n/a	n/a	n/a	n/a	n/a	n/a	16	7	3	6	n/a	n/a	n/a	n/a	n/a
1997.806	n/a	PROB	998903	n/a	LTP110	ltpFR	12	n/a	n/a	n/a	n/a	n/a	n/a	19	6	4	9	n/a	n/a	n/a	n/a	n/a
1998.954	n/a	PROB	999477	n/a	LTP110	ltpFR	12	n/a	n/a	n/a	n/a	n/a	n/a	9	4	3	2	n/a	n/a	n/a	n/a	n/a
2001.512	n/a	PROB	1000756	n/a	LTP110	ltpFR	12	n/a	n/a	n/a	n/a	n/a	n/a	22	4	9	9	n/a	n/a	n/a	n/a	n/a
2003.046	n/a	PROB	1001523	n/a	LTP110	ltpFR	12	n/a	n/a	n/a	n/a	n/a	n/a	20	3	9	8	n/a	n/a	n/a	n/a	n/a
2005.978	n/a	PROB	1002989	n/a	LTP110	ltpFR	12	n/a	n/a	n/a	n/a	n/a	n/a	8	5	1	2	n/a	n/a	n/a	n/a	n/a
2007.112	n/a	PROB	1003556	n/a	LTP110	ltpFR	12	n/a	n/a	n/a	n/a	n/a	n/a	11	1	9	1	n/a	n/a	n/a	n/a	n/a
2008.128	n/a	PROB	1004064	n/a	LTP110	ltpFR	12	n/a	n/a	n/a	n/a	n/a	n/a	11	3	4	4	n/a	n/a	n/a	n/a	n/a
2009.852	n/a	STOP	1004926	n/a	LTP110	ltpFR	12	n/a	n/a	n/a	n/a	n/a	n/a	n/a	n/a	n/a	n/a	n/a	n/a	n/a	n/a	n/a
2011.492	n/a	WORD	1005746	wordpools/wasnorm_wordpool.txt	LTP110	ltpFR	12	8	0	CORN	381	n/a	0	n/a	0	0	0	0	0.5869140625	0.422607421875	lower	../fonts/zerothre.ttf
2014.5	n/a	START	1007250	n/a	LTP110	ltpFR	12	n/a	n/a	n/a	n/a	n/a	n/a	n/a	n/a	n/a	n/a	n/a	n/a	n/a	n/a	n/a
2015.45	n/a	PROB	1007725	n/a	LTP110	ltpFR	12	n/a	n/a	n/a	n/a	n/a	n/a	16	3	4	9	n/a	n/a	n/a	n/a	n/a
2017.116	n/a	PROB	1008558	n/a	LTP110	ltpFR	12	n/a	n/a	n/a	n/a	n/a	n/a	6	2	2	2	n/a	n/a	n/a	n/a	n/a
2018.04	n/a	PROB	1009020	n/a	LTP110	ltpFR	12	n/a	n/a	n/a	n/a	n/a	n/a	14	4	7	3	n/a	n/a	n/a	n/a	n/a
2019.832	n/a	PROB	1009916	n/a	LTP110	ltpFR	12	n/a	n/a	n/a	n/a	n/a	n/a	7	4	1	2	n/a	n/a	n/a	n/a	n/a
2021.272	n/a	PROB	1010636	n/a	LTP110	ltpFR	12	n/a	n/a	n/a	n/a	n/a	n/a	12	5	1	6	n/a	n/a	n/a	n/a	n/a
2022.356	n/a	PROB	1011178	n/a	LTP110	ltpFR	12	n/a	n/a	n/a	n/a	n/a	n/a	14	9	3	2	n/a	n/a	n/a	n/a	n/a
2023.748	n/a	PROB	1011874	n/a	LTP110	ltpFR	12	n/a	n/a	n/a	n/a	n/a	n/a	18	7	3	8	n/a	n/a	n/a	n/a	n/a
2025.148	n/a	PROB	1012574	n/a	LTP110	ltpFR	12	n/a	n/a	n/a	n/a	n/a	n/a	5	2	2	1	n/a	n/a	n/a	n/a	n/a
2026.048	n/a	PROB	1013024	n/a	LTP110	ltpFR	12	n/a	n/a	n/a	n/a	n/a	n/a	19	8	8	3	n/a	n/a	n/a	n/a	n/a
2027.238	n/a	PROB	1013619	n/a	LTP110	ltpFR	12	n/a	n/a	n/a	n/a	n/a	n/a	15	7	1	7	n/a	n/a	n/a	n/a	n/a
2028.204	n/a	PROB	1014102	n/a	LTP110	ltpFR	12	n/a	n/a	n/a	n/a	n/a	n/a	9	1	4	4	n/a	n/a	n/a	n/a	n/a
2029.932	n/a	STOP	1014966	n/a	LTP110	ltpFR	12	n/a	n/a	n/a	n/a	n/a	n/a	n/a	n/a	n/a	n/a	n/a	n/a	n/a	n/a	n/a
2031.654	n/a	WORD	1015827	wordpools/wasnorm_wordpool.txt	LTP110	ltpFR	12	8	0	GUARD	667	n/a	1	n/a	0	0	0	0	0.5869140625	0.422607421875	lower	../fonts/zerothre.ttf
2034.662	n/a	START	1017331	n/a	LTP110	ltpFR	12	n/a	n/a	n/a	n/a	n/a	n/a	n/a	n/a	n/a	n/a	n/a	n/a	n/a	n/a	n/a
2035.794	n/a	PROB	1017897	n/a	LTP110	ltpFR	12	n/a	n/a	n/a	n/a	n/a	n/a	27	9	9	9	n/a	n/a	n/a	n/a	n/a
2037.334	n/a	PROB	1018667	n/a	LTP110	ltpFR	12	n/a	n/a	n/a	n/a	n/a	n/a	13	3	3	7	n/a	n/a	n/a	n/a	n/a
2038.602	n/a	PROB	1019301	n/a	LTP110	ltpFR	12	n/a	n/a	n/a	n/a	n/a	n/a	14	1	8	5	n/a	n/a	n/a	n/a	n/a
2039.668	n/a	PROB	1019834	n/a	LTP110	ltpFR	12	n/a	n/a	n/a	n/a	n/a	n/a	22	9	5	8	n/a	n/a	n/a	n/a	n/a
2041.442	n/a	PROB	1020721	n/a	LTP110	ltpFR	12	n/a	n/a	n/a	n/a	n/a	n/a	11	2	8	1	n/a	n/a	n/a	n/a	n/a
2043.608	n/a	PROB	1021804	n/a	LTP110	ltpFR	12	n/a	n/a	n/a	n/a	n/a	n/a	15	5	4	6	n/a	n/a	n/a	n/a	n/a
2044.724	n/a	PROB	1022362	n/a	LTP110	ltpFR	12	n/a	n/a	n/a	n/a	n/a	n/a	18	5	9	4	n/a	n/a	n/a	n/a	n/a
2046.298	n/a	PROB	1023149	n/a	LTP110	ltpFR	12	n/a	n/a	n/a	n/a	n/a	n/a	17	9	5	3	n/a	n/a	n/a	n/a	n/a
2047.682	n/a	PROB	1023841	n/a	LTP110	ltpFR	12	n/a	n/a	n/a	n/a	n/a	n/a	15	5	4	6	n/a	n/a	n/a	n/a	n/a
2049.422	n/a	STOP	1024711	n/a	LTP110	ltpFR	12	n/a	n/a	n/a	n/a	n/a	n/a	n/a	n/a	n/a	n/a	n/a	n/a	n/a	n/a	n/a
2051.68	n/a	WORD	1025840	wordpools/wasnorm_wordpool.txt	LTP110	ltpFR	12	8	0	CAN	225	n/a	1	n/a	0	0	0	0	0.5869140625	0.422607421875	lower	../fonts/zerothre.ttf
2054.688	n/a	START	1027344	n/a	LTP110	ltpFR	12	n/a	n/a	n/a	n/a	n/a	n/a	n/a	n/a	n/a	n/a	n/a	n/a	n/a	n/a	n/a
2055.788	n/a	PROB	1027894	n/a	LTP110	ltpFR	12	n/a	n/a	n/a	n/a	n/a	n/a	19	8	8	3	n/a	n/a	n/a	n/a	n/a
2058.238	n/a	PROB	1029119	n/a	LTP110	ltpFR	12	n/a	n/a	n/a	n/a	n/a	n/a	12	3	5	4	n/a	n/a	n/a	n/a	n/a
2059.762	n/a	PROB	1029881	n/a	LTP110	ltpFR	12	n/a	n/a	n/a	n/a	n/a	n/a	12	8	3	1	n/a	n/a	n/a	n/a	n/a
2060.604	n/a	PROB	1030302	n/a	LTP110	ltpFR	12	n/a	n/a	n/a	n/a	n/a	n/a	12	1	9	2	n/a	n/a	n/a	n/a	n/a
2061.47	n/a	PROB	1030735	n/a	LTP110	ltpFR	12	n/a	n/a	n/a	n/a	n/a	n/a	13	3	4	6	n/a	n/a	n/a	n/a	n/a
2062.694	n/a	PROB	1031347	n/a	LTP110	ltpFR	12	n/a	n/a	n/a	n/a	n/a	n/a	15	5	6	4	n/a	n/a	n/a	n/a	n/a
2063.81	n/a	PROB	1031905	n/a	LTP110	ltpFR	12	n/a	n/a	n/a	n/a	n/a	n/a	20	9	3	8	n/a	n/a	n/a	n/a	n/a
2065.236	n/a	PROB	1032618	n/a	LTP110	ltpFR	12	n/a	n/a	n/a	n/a	n/a	n/a	24	9	9	6	n/a	n/a	n/a	n/a	n/a
2066.902	n/a	PROB	1033451	n/a	LTP110	ltpFR	12	n/a	n/a	n/a	n/a	n/a	n/a	14	4	5	5	n/a	n/a	n/a	n/a	n/a
2068.0	n/a	PROB	1034000	n/a	LTP110	ltpFR	12	n/a	n/a	n/a	n/a	n/a	n/a	20	9	6	5	n/a	n/a	n/a	n/a	n/a
2069.622	n/a	STOP	1034811	n/a	LTP110	ltpFR	12	n/a	n/a	n/a	n/a	n/a	n/a	n/a	n/a	n/a	n/a	n/a	n/a	n/a	n/a	n/a
2071.624	n/a	WORD	1035812	wordpools/wasnorm_wordpool.txt	LTP110	ltpFR	12	8	0	TUB	1514	n/a	1	n/a	0	0	0	0	0.5869140625	0.422607421875	lower	../fonts/zerothre.ttf
2074.632	n/a	START	1037316	n/a	LTP110	ltpFR	12	n/a	n/a	n/a	n/a	n/a	n/a	n/a	n/a	n/a	n/a	n/a	n/a	n/a	n/a	n/a
2075.806	n/a	PROB	1037903	n/a	LTP110	ltpFR	12	n/a	n/a	n/a	n/a	n/a	n/a	17	5	4	8	n/a	n/a	n/a	n/a	n/a
2077.456	n/a	PROB	1038728	n/a	LTP110	ltpFR	12	n/a	n/a	n/a	n/a	n/a	n/a	11	3	4	4	n/a	n/a	n/a	n/a	n/a
2079.198	n/a	PROB	1039599	n/a	LTP110	ltpFR	12	n/a	n/a	n/a	n/a	n/a	n/a	12	5	5	2	n/a	n/a	n/a	n/a	n/a
2080.304	n/a	PROB	1040152	n/a	LTP110	ltpFR	12	n/a	n/a	n/a	n/a	n/a	n/a	24	9	9	6	n/a	n/a	n/a	n/a	n/a
2082.396	n/a	PROB	1041198	n/a	LTP110	ltpFR	12	n/a	n/a	n/a	n/a	n/a	n/a	17	7	3	7	n/a	n/a	n/a	n/a	n/a
2083.63	n/a	PROB	1041815	n/a	LTP110	ltpFR	12	n/a	n/a	n/a	n/a	n/a	n/a	10	6	3	1	n/a	n/a	n/a	n/a	n/a
2085.254	n/a	PROB	1042627	n/a	LTP110	ltpFR	12	n/a	n/a	n/a	n/a	n/a	n/a	9	1	5	3	n/a	n/a	n/a	n/a	n/a
2086.362	n/a	PROB	1043181	n/a	LTP110	ltpFR	12	n/a	n/a	n/a	n/a	n/a	n/a	18	8	9	1	n/a	n/a	n/a	n/a	n/a
2087.494	n/a	PROB	1043747	n/a	LTP110	ltpFR	12	n/a	n/a	n/a	n/a	n/a	n/a	21	7	8	6	n/a	n/a	n/a	n/a	n/a
2090.634	n/a	STOP	1045317	n/a	LTP110	ltpFR	12	n/a	n/a	n/a	n/a	n/a	n/a	n/a	n/a	n/a	n/a	n/a	n/a	n/a	n/a	n/a
2091.502	n/a	WORD	1045751	wordpools/wasnorm_wordpool.txt	LTP110	ltpFR	12	8	0	BRIDGE	174	n/a	1	n/a	0	0	0	0	0.5869140625	0.422607421875	lower	../fonts/zerothre.ttf
2094.508	n/a	START	1047254	n/a	LTP110	ltpFR	12	n/a	n/a	n/a	n/a	n/a	n/a	n/a	n/a	n/a	n/a	n/a	n/a	n/a	n/a	n/a
2095.532	n/a	PROB	1047766	n/a	LTP110	ltpFR	12	n/a	n/a	n/a	n/a	n/a	n/a	14	3	3	8	n/a	n/a	n/a	n/a	n/a
2097.076	n/a	PROB	1048538	n/a	LTP110	ltpFR	12	n/a	n/a	n/a	n/a	n/a	n/a	15	3	3	9	n/a	n/a	n/a	n/a	n/a
2098.592	n/a	PROB	1049296	n/a	LTP110	ltpFR	12	n/a	n/a	n/a	n/a	n/a	n/a	12	5	5	2	n/a	n/a	n/a	n/a	n/a
2099.608	n/a	PROB	1049804	n/a	LTP110	ltpFR	12	n/a	n/a	n/a	n/a	n/a	n/a	22	6	9	7	n/a	n/a	n/a	n/a	n/a
2101.232	n/a	PROB	1050616	n/a	LTP110	ltpFR	12	n/a	n/a	n/a	n/a	n/a	n/a	21	4	9	8	n/a	n/a	n/a	n/a	n/a
2103.132	n/a	PROB	1051566	n/a	LTP110	ltpFR	12	n/a	n/a	n/a	n/a	n/a	n/a	18	8	2	8	n/a	n/a	n/a	n/a	n/a
2104.414	n/a	PROB	1052207	n/a	LTP110	ltpFR	12	n/a	n/a	n/a	n/a	n/a	n/a	24	7	9	9	n/a	n/a	n/a	n/a	n/a
2106.772	n/a	PROB	1053386	n/a	LTP110	ltpFR	12	n/a	n/a	n/a	n/a	n/a	n/a	16	2	5	9	n/a	n/a	n/a	n/a	n/a
2110.168	n/a	STOP	1055084	n/a	LTP110	ltpFR	12	n/a	n/a	n/a	n/a	n/a	n/a	n/a	n/a	n/a	n/a	n/a	n/a	n/a	n/a	n/a
2111.378	n/a	WORD	1055689	wordpools/wasnorm_wordpool.txt	LTP110	ltpFR	12	8	0	RAKE	1164	n/a	1	n/a	0	0	0	0	0.5869140625	0.422607421875	lower	../fonts/zerothre.ttf
2114.386	n/a	START	1057193	n/a	LTP110	ltpFR	12	n/a	n/a	n/a	n/a	n/a	n/a	n/a	n/a	n/a	n/a	n/a	n/a	n/a	n/a	n/a
2115.352	n/a	PROB	1057676	n/a	LTP110	ltpFR	12	n/a	n/a	n/a	n/a	n/a	n/a	11	8	1	2	n/a	n/a	n/a	n/a	n/a
2116.552	n/a	PROB	1058276	n/a	LTP110	ltpFR	12	n/a	n/a	n/a	n/a	n/a	n/a	17	7	2	8	n/a	n/a	n/a	n/a	n/a
2117.978	n/a	PROB	1058989	n/a	LTP110	ltpFR	12	n/a	n/a	n/a	n/a	n/a	n/a	23	9	6	8	n/a	n/a	n/a	n/a	n/a
2119.518	n/a	PROB	1059759	n/a	LTP110	ltpFR	12	n/a	n/a	n/a	n/a	n/a	n/a	21	6	7	8	n/a	n/a	n/a	n/a	n/a
2121.136	n/a	PROB	1060568	n/a	LTP110	ltpFR	12	n/a	n/a	n/a	n/a	n/a	n/a	13	2	7	4	n/a	n/a	n/a	n/a	n/a
2122.342	n/a	PROB	1061171	n/a	LTP110	ltpFR	12	n/a	n/a	n/a	n/a	n/a	n/a	14	3	6	5	n/a	n/a	n/a	n/a	n/a
2124.184	n/a	PROB	1062092	n/a	LTP110	ltpFR	12	n/a	n/a	n/a	n/a	n/a	n/a	19	5	7	7	n/a	n/a	n/a	n/a	n/a
2125.508	n/a	PROB	1062754	n/a	LTP110	ltpFR	12	n/a	n/a	n/a	n/a	n/a	n/a	9	3	2	4	n/a	n/a	n/a	n/a	n/a
2127.942	n/a	PROB	1063971	n/a	LTP110	ltpFR	12	n/a	n/a	n/a	n/a	n/a	n/a	12	3	7	2	n/a	n/a	n/a	n/a	n/a
2129.122	n/a	STOP	1064561	n/a	LTP110	ltpFR	12	n/a	n/a	n/a	n/a	n/a	n/a	n/a	n/a	n/a	n/a	n/a	n/a	n/a	n/a	n/a
2131.448	n/a	WORD	1065724	wordpools/wasnorm_wordpool.txt	LTP110	ltpFR	12	8	0	CHEDDAR	286	n/a	0	n/a	0	0	0	0	0.5869140625	0.422607421875	lower	../fonts/zerothre.ttf
2134.456	n/a	START	1067228	n/a	LTP110	ltpFR	12	n/a	n/a	n/a	n/a	n/a	n/a	n/a	n/a	n/a	n/a	n/a	n/a	n/a	n/a	n/a
2135.58	n/a	PROB	1067790	n/a	LTP110	ltpFR	12	n/a	n/a	n/a	n/a	n/a	n/a	5	2	1	2	n/a	n/a	n/a	n/a	n/a
2136.364	n/a	PROB	1068182	n/a	LTP110	ltpFR	12	n/a	n/a	n/a	n/a	n/a	n/a	18	7	6	5	n/a	n/a	n/a	n/a	n/a
2138.138	n/a	PROB	1069069	n/a	LTP110	ltpFR	12	n/a	n/a	n/a	n/a	n/a	n/a	22	6	7	9	n/a	n/a	n/a	n/a	n/a
2140.038	n/a	PROB	1070019	n/a	LTP110	ltpFR	12	n/a	n/a	n/a	n/a	n/a	n/a	12	1	6	5	n/a	n/a	n/a	n/a	n/a
2141.004	n/a	PROB	1070502	n/a	LTP110	ltpFR	12	n/a	n/a	n/a	n/a	n/a	n/a	14	9	1	4	n/a	n/a	n/a	n/a	n/a
2141.904	n/a	PROB	1070952	n/a	LTP110	ltpFR	12	n/a	n/a	n/a	n/a	n/a	n/a	21	6	6	9	n/a	n/a	n/a	n/a	n/a
2143.604	n/a	PROB	1071802	n/a	LTP110	ltpFR	12	n/a	n/a	n/a	n/a	n/a	n/a	18	8	8	2	n/a	n/a	n/a	n/a	n/a
2145.094	n/a	PROB	1072547	n/a	LTP110	ltpFR	12	n/a	n/a	n/a	n/a	n/a	n/a	20	8	4	8	n/a	n/a	n/a	n/a	n/a
2146.56	n/a	PROB	1073280	n/a	LTP110	ltpFR	12	n/a	n/a	n/a	n/a	n/a	n/a	12	1	7	4	n/a	n/a	n/a	n/a	n/a
2147.492	n/a	PROB	1073746	n/a	LTP110	ltpFR	12	n/a	n/a	n/a	n/a	n/a	n/a	14	7	4	3	n/a	n/a	n/a	n/a	n/a
2148.93	n/a	STOP	1074465	n/a	LTP110	ltpFR	12	n/a	n/a	n/a	n/a	n/a	n/a	n/a	n/a	n/a	n/a	n/a	n/a	n/a	n/a	n/a
2151.308	n/a	WORD	1075654	wordpools/wasnorm_wordpool.txt	LTP110	ltpFR	12	8	0	SICKLE	1302	n/a	1	n/a	0	0	0	0	0.5869140625	0.422607421875	lower	../fonts/zerothre.ttf
2154.316	n/a	START	1077158	n/a	LTP110	ltpFR	12	n/a	n/a	n/a	n/a	n/a	n/a	n/a	n/a	n/a	n/a	n/a	n/a	n/a	n/a	n/a
2155.408	n/a	PROB	1077704	n/a	LTP110	ltpFR	12	n/a	n/a	n/a	n/a	n/a	n/a	6	1	4	1	n/a	n/a	n/a	n/a	n/a
2156.566	n/a	PROB	1078283	n/a	LTP110	ltpFR	12	n/a	n/a	n/a	n/a	n/a	n/a	6	1	2	3	n/a	n/a	n/a	n/a	n/a
2158.532	n/a	PROB	1079266	n/a	LTP110	ltpFR	12	n/a	n/a	n/a	n/a	n/a	n/a	20	3	8	9	n/a	n/a	n/a	n/a	n/a
2159.956	n/a	PROB	1079978	n/a	LTP110	ltpFR	12	n/a	n/a	n/a	n/a	n/a	n/a	11	1	4	6	n/a	n/a	n/a	n/a	n/a
2160.906	n/a	PROB	1080453	n/a	LTP110	ltpFR	12	n/a	n/a	n/a	n/a	n/a	n/a	12	1	3	8	n/a	n/a	n/a	n/a	n/a
2162.464	n/a	PROB	1081232	n/a	LTP110	ltpFR	12	n/a	n/a	n/a	n/a	n/a	n/a	16	4	6	6	n/a	n/a	n/a	n/a	n/a
2164.312	n/a	PROB	1082156	n/a	LTP110	ltpFR	12	n/a	n/a	n/a	n/a	n/a	n/a	15	3	6	6	n/a	n/a	n/a	n/a	n/a
2166.646	n/a	PROB	1083323	n/a	LTP110	ltpFR	12	n/a	n/a	n/a	n/a	n/a	n/a	10	1	2	7	n/a	n/a	n/a	n/a	n/a
2168.662	n/a	PROB	1084331	n/a	LTP110	ltpFR	12	n/a	n/a	n/a	n/a	n/a	n/a	7	2	1	4	n/a	n/a	n/a	n/a	n/a
2169.964	n/a	STOP	1084982	n/a	LTP110	ltpFR	12	n/a	n/a	n/a	n/a	n/a	n/a	n/a	n/a	n/a	n/a	n/a	n/a	n/a	n/a	n/a
2171.294	n/a	WORD	1085647	wordpools/wasnorm_wordpool.txt	LTP110	ltpFR	12	8	0	BOWL	158	n/a	0	n/a	0	0	0	0	0.5869140625	0.422607421875	lower	../fonts/zerothre.ttf
2174.302	n/a	START	1087151	n/a	LTP110	ltpFR	12	n/a	n/a	n/a	n/a	n/a	n/a	n/a	n/a	n/a	n/a	n/a	n/a	n/a	n/a	n/a
2175.418	n/a	PROB	1087709	n/a	LTP110	ltpFR	12	n/a	n/a	n/a	n/a	n/a	n/a	15	8	4	3	n/a	n/a	n/a	n/a	n/a
2177.052	n/a	PROB	1088526	n/a	LTP110	ltpFR	12	n/a	n/a	n/a	n/a	n/a	n/a	15	7	6	2	n/a	n/a	n/a	n/a	n/a
2178.366	n/a	PROB	1089183	n/a	LTP110	ltpFR	12	n/a	n/a	n/a	n/a	n/a	n/a	22	8	9	5	n/a	n/a	n/a	n/a	n/a
2179.942	n/a	PROB	1089971	n/a	LTP110	ltpFR	12	n/a	n/a	n/a	n/a	n/a	n/a	23	6	8	9	n/a	n/a	n/a	n/a	n/a
2181.332	n/a	PROB	1090666	n/a	LTP110	ltpFR	12	n/a	n/a	n/a	n/a	n/a	n/a	19	3	9	7	n/a	n/a	n/a	n/a	n/a
2183.406	n/a	PROB	1091703	n/a	LTP110	ltpFR	12	n/a	n/a	n/a	n/a	n/a	n/a	15	7	7	1	n/a	n/a	n/a	n/a	n/a
2184.448	n/a	PROB	1092224	n/a	LTP110	ltpFR	12	n/a	n/a	n/a	n/a	n/a	n/a	13	4	2	7	n/a	n/a	n/a	n/a	n/a
2185.79	n/a	PROB	1092895	n/a	LTP110	ltpFR	12	n/a	n/a	n/a	n/a	n/a	n/a	19	2	8	9	n/a	n/a	n/a	n/a	n/a
2190.302	n/a	STOP	1095151	n/a	LTP110	ltpFR	12	n/a	n/a	n/a	n/a	n/a	n/a	n/a	n/a	n/a	n/a	n/a	n/a	n/a	n/a	n/a
2191.454	n/a	WORD	1095727	wordpools/wasnorm_wordpool.txt	LTP110	ltpFR	12	8	0	HOE	711	n/a	1	n/a	0	0	0	0	0.5869140625	0.422607421875	lower	../fonts/zerothre.ttf
2194.462	n/a	START	1097231	n/a	LTP110	ltpFR	12	n/a	n/a	n/a	n/a	n/a	n/a	n/a	n/a	n/a	n/a	n/a	n/a	n/a	n/a	n/a
2195.362	n/a	PROB	1097681	n/a	LTP110	ltpFR	12	n/a	n/a	n/a	n/a	n/a	n/a	19	9	4	6	n/a	n/a	n/a	n/a	n/a
2196.536	n/a	PROB	1098268	n/a	LTP110	ltpFR	12	n/a	n/a	n/a	n/a	n/a	n/a	14	5	2	7	n/a	n/a	n/a	n/a	n/a
2200.744	n/a	PROB	1100372	n/a	LTP110	ltpFR	12	n/a	n/a	n/a	n/a	n/a	n/a	22	9	9	3	n/a	n/a	n/a	n/a	n/a
2202.318	n/a	PROB	1101159	n/a	LTP110	ltpFR	12	n/a	n/a	n/a	n/a	n/a	n/a	22	9	5	8	n/a	n/a	n/a	n/a	n/a
2207.424	n/a	PROB	1103712	n/a	LTP110	ltpFR	12	n/a	n/a	n/a	n/a	n/a	n/a	8	1	1	6	n/a	n/a	n/a	n/a	n/a
2208.424	n/a	PROB	1104212	n/a	LTP110	ltpFR	12	n/a	n/a	n/a	n/a	n/a	n/a	11	6	2	3	n/a	n/a	n/a	n/a	n/a
2210.404	n/a	STOP	1105202	n/a	LTP110	ltpFR	12	n/a	n/a	n/a	n/a	n/a	n/a	n/a	n/a	n/a	n/a	n/a	n/a	n/a	n/a	n/a
2212.332	n/a	REC_START	1106166	n/a	LTP110	ltpFR	12	8	n/a	n/a	n/a	n/a	n/a	n/a	0	0	0	n/a	n/a	n/a	n/a	n/a
2215.002	n/a	REC_WORD	1107501	wordpools/wasnorm_wordpool.txt	LTP110	ltpFR	12	8	0	CAFETERIA	217	n/a	1	n/a	0	0	0	n/a	n/a	n/a	n/a	n/a
2216.178	n/a	REC_WORD	1108089	wordpools/wasnorm_wordpool.txt	LTP110	ltpFR	12	8	0	TUB	1514	n/a	1	n/a	0	0	0	n/a	n/a	n/a	n/a	n/a
2217.066	n/a	REC_WORD	1108533	wordpools/wasnorm_wordpool.txt	LTP110	ltpFR	12	8	0	BRIDGE	174	n/a	1	n/a	0	0	0	n/a	n/a	n/a	n/a	n/a
2217.822	n/a	REC_WORD	1108911	wordpools/wasnorm_wordpool.txt	LTP110	ltpFR	12	8	0	SICKLE	1302	n/a	1	n/a	0	0	0	n/a	n/a	n/a	n/a	n/a
2219.378	n/a	REC_WORD	1109689	wordpools/wasnorm_wordpool.txt	LTP110	ltpFR	12	8	n/a	ROW	-1	n/a	n/a	n/a	0	0	0	n/a	n/a	n/a	n/a	n/a
2220.958	n/a	REC_WORD_VV	1110479	wordpools/wasnorm_wordpool.txt	LTP110	ltpFR	12	8	n/a	<>	-1	n/a	n/a	n/a	0	0	0	n/a	n/a	n/a	n/a	n/a
2221.956	n/a	REC_WORD	1110978	wordpools/wasnorm_wordpool.txt	LTP110	ltpFR	12	8	0	RAKE	1164	n/a	1	n/a	0	0	0	n/a	n/a	n/a	n/a	n/a
2222.606	n/a	REC_WORD	1111303	wordpools/wasnorm_wordpool.txt	LTP110	ltpFR	12	8	0	HOE	711	n/a	1	n/a	0	0	0	n/a	n/a	n/a	n/a	n/a
2225.622	n/a	REC_WORD	1112811	wordpools/wasnorm_wordpool.txt	LTP110	ltpFR	12	8	0	HERB	704	n/a	0	n/a	0	0	0	n/a	n/a	n/a	n/a	n/a
2227.972	n/a	REC_WORD	1113986	wordpools/wasnorm_wordpool.txt	LTP110	ltpFR	12	8	0	CUPBOARD	425	n/a	1	n/a	0	0	0	n/a	n/a	n/a	n/a	n/a
2230.076	n/a	REC_WORD	1115038	wordpools/wasnorm_wordpool.txt	LTP110	ltpFR	12	8	0	CACTUS	215	n/a	1	n/a	0	0	0	n/a	n/a	n/a	n/a	n/a
2232.462	n/a	REC_WORD	1116231	wordpools/wasnorm_wordpool.txt	LTP110	ltpFR	12	8	0	PADDLE	1000	n/a	1	n/a	0	0	0	n/a	n/a	n/a	n/a	n/a
2233.32	n/a	REC_WORD	1116660	wordpools/wasnorm_wordpool.txt	LTP110	ltpFR	12	8	0	CAN	225	n/a	1	n/a	0	0	0	n/a	n/a	n/a	n/a	n/a
2234.254	n/a	REC_WORD	1117127	wordpools/wasnorm_wordpool.txt	LTP110	ltpFR	12	8	0	CYLINDER	432	n/a	1	n/a	0	0	0	n/a	n/a	n/a	n/a	n/a
2236.682	n/a	REC_WORD	1118341	wordpools/wasnorm_wordpool.txt	LTP110	ltpFR	12	8	0	BOWL	158	n/a	0	n/a	0	0	0	n/a	n/a	n/a	n/a	n/a
2291.826	n/a	WORD	1145913	wordpools/wasnorm_wordpool.txt	LTP110	ltpFR	12	9	1	VALVE	1546	n/a	0	n/a	0	0	0	1	0.412841796875	0.57763671875	upper	../fonts/amplitud.ttf
2295.832	n/a	WORD	1147916	wordpools/wasnorm_wordpool.txt	LTP110	ltpFR	12	9	1	WINDSHIELD	1612	n/a	0	n/a	0	0	0	1	0.412841796875	0.57763671875	upper	../fonts/amplitud.ttf
2299.798	n/a	WORD	1149899	wordpools/wasnorm_wordpool.txt	LTP110	ltpFR	12	9	1	MUMMY	932	n/a	1	n/a	0	0	0	1	0.412841796875	0.57763671875	upper	../fonts/amplitud.ttf
2303.996	n/a	WORD	1151998	wordpools/wasnorm_wordpool.txt	LTP110	ltpFR	12	9	1	CART	250	n/a	0	n/a	0	0	0	1	0.412841796875	0.57763671875	upper	../fonts/amplitud.ttf
2308.178	n/a	WORD	1154089	wordpools/wasnorm_wordpool.txt	LTP110	ltpFR	12	9	1	HAY	693	n/a	0	n/a	0	0	0	1	0.412841796875	0.57763671875	upper	../fonts/amplitud.ttf
2312.02	n/a	WORD	1156010	wordpools/wasnorm_wordpool.txt	LTP110	ltpFR	12	9	0	PUMPKIN	1142	n/a	1	n/a	0	0	0	0	0.5869140625	0.422607421875	lower	../fonts/zerothre.ttf
2315.96	n/a	WORD	1157980	wordpools/wasnorm_wordpool.txt	LTP110	ltpFR	12	9	0	GRIZZLY	662	n/a	1	n/a	0	0	0	0	0.5869140625	0.422607421875	lower	../fonts/zerothre.ttf
2320.0	n/a	WORD	1160000	wordpools/wasnorm_wordpool.txt	LTP110	ltpFR	12	9	0	PHILOSOPHER	1054	n/a	1	n/a	0	0	0	0	0.5869140625	0.422607421875	lower	../fonts/zerothre.ttf
2324.082	n/a	WORD	1162041	wordpools/wasnorm_wordpool.txt	LTP110	ltpFR	12	9	1	WOUND	1624	n/a	0	n/a	0	0	0	1	0.412841796875	0.57763671875	upper	../fonts/amplitud.ttf
2328.006	n/a	WORD	1164003	wordpools/wasnorm_wordpool.txt	LTP110	ltpFR	12	9	1	SQUIRREL	1362	n/a	1	n/a	0	0	0	1	0.412841796875	0.57763671875	upper	../fonts/amplitud.ttf
2332.088	n/a	WORD	1166044	wordpools/wasnorm_wordpool.txt	LTP110	ltpFR	12	9	1	ELEPHANT	523	n/a	1	n/a	0	0	0	1	0.412841796875	0.57763671875	upper	../fonts/amplitud.ttf
2336.086	n/a	WORD	1168043	wordpools/wasnorm_wordpool.txt	LTP110	ltpFR	12	9	0	MAPLE	866	n/a	1	n/a	0	0	0	0	0.5869140625	0.422607421875	lower	../fonts/zerothre.ttf
2339.968	n/a	WORD	1169984	wordpools/wasnorm_wordpool.txt	LTP110	ltpFR	12	9	0	BRAIN	165	n/a	0	n/a	0	0	0	0	0.5869140625	0.422607421875	lower	../fonts/zerothre.ttf
2344.15	n/a	WORD	1172075	wordpools/wasnorm_wordpool.txt	LTP110	ltpFR	12	9	0	WILDERNESS	1610	n/a	1	n/a	0	0	0	0	0.5869140625	0.422607421875	lower	../fonts/zerothre.ttf
2348.108	n/a	WORD	1174054	wordpools/wasnorm_wordpool.txt	LTP110	ltpFR	12	9	0	CRATER	400	n/a	1	n/a	0	0	0	0	0.5869140625	0.422607421875	lower	../fonts/zerothre.ttf
2352.148	n/a	WORD	1176074	wordpools/wasnorm_wordpool.txt	LTP110	ltpFR	12	9	0	CAVITY	264	n/a	1	n/a	0	0	0	0	0.5869140625	0.422607421875	lower	../fonts/zerothre.ttf
2355.156	n/a	START	1177578	n/a	LTP110	ltpFR	12	n/a	n/a	n/a	n/a	n/a	n/a	n/a	n/a	n/a	n/a	n/a	n/a	n/a	n/a	n/a
2356.148	n/a	PROB	1178074	n/a	LTP110	ltpFR	12	n/a	n/a	n/a	n/a	n/a	n/a	20	2	9	9	n/a	n/a	n/a	n/a	n/a
2358.146	n/a	PROB	1179073	n/a	LTP110	ltpFR	12	n/a	n/a	n/a	n/a	n/a	n/a	19	6	6	9	n/a	n/a	n/a	n/a	n/a
2360.112	n/a	PROB	1180056	n/a	LTP110	ltpFR	12	n/a	n/a	n/a	n/a	n/a	n/a	13	4	4	5	n/a	n/a	n/a	n/a	n/a
2362.126	n/a	STOP	1181063	n/a	LTP110	ltpFR	12	n/a	n/a	n/a	n/a	n/a	n/a	n/a	n/a	n/a	n/a	n/a	n/a	n/a	n/a	n/a
2364.97	n/a	REC_START	1182485	n/a	LTP110	ltpFR	12	9	n/a	n/a	n/a	n/a	n/a	n/a	0	0	0	n/a	n/a	n/a	n/a	n/a
2366.702	n/a	REC_WORD	1183351	wordpools/wasnorm_wordpool.txt	LTP110	ltpFR	12	9	0	CRATER	400	n/a	1	n/a	0	0	0	n/a	n/a	n/a	n/a	n/a
2367.4	n/a	REC_WORD	1183700	wordpools/wasnorm_wordpool.txt	LTP110	ltpFR	12	9	0	CAVITY	264	n/a	1	n/a	0	0	0	n/a	n/a	n/a	n/a	n/a
2368.192	n/a	REC_WORD	1184096	wordpools/wasnorm_wordpool.txt	LTP110	ltpFR	12	9	1	ELEPHANT	523	n/a	1	n/a	0	0	0	n/a	n/a	n/a	n/a	n/a
2368.756	n/a	REC_WORD	1184378	wordpools/wasnorm_wordpool.txt	LTP110	ltpFR	12	9	1	SQUIRREL	1362	n/a	1	n/a	0	0	0	n/a	n/a	n/a	n/a	n/a
2369.578	n/a	REC_WORD	1184789	wordpools/wasnorm_wordpool.txt	LTP110	ltpFR	12	9	1	MUMMY	932	n/a	1	n/a	0	0	0	n/a	n/a	n/a	n/a	n/a
2370.284	n/a	REC_WORD	1185142	wordpools/wasnorm_wordpool.txt	LTP110	ltpFR	12	9	1	CART	250	n/a	0	n/a	0	0	0	n/a	n/a	n/a	n/a	n/a
2370.96	n/a	REC_WORD	1185480	wordpools/wasnorm_wordpool.txt	LTP110	ltpFR	12	9	1	HAY	693	n/a	0	n/a	0	0	0	n/a	n/a	n/a	n/a	n/a
2378.28	n/a	REC_WORD	1189140	wordpools/wasnorm_wordpool.txt	LTP110	ltpFR	12	9	1	WOUND	1624	n/a	0	n/a	0	0	0	n/a	n/a	n/a	n/a	n/a
