onset	duration	trial_type	sample	stim_file	subject	experiment	session	trial	task	item_name	item_num	recog_resp	recog_conf	resp	color_r	color_g	color_b	case	font
473.74	n/a	SESS_START	236870	n/a	LTP282	ltpFR	2	n/a	n/a	n/a	n/a	1	n/a	n/a	n/a	n/a	n/a	n/a	n/a
544.106	n/a	WORD	272053	wordpools/wasnorm_wordpool_less_exclusions.txt	LTP282	ltpFR	2	1	0	CART	250	n/a	n/a	1	0.57763671875	0.412841796875	1	lower	zerothre.ttf
548.102	n/a	WORD	274051	wordpools/wasnorm_wordpool_less_exclusions.txt	LTP282	ltpFR	2	1	0	BUGGY	188	n/a	n/a	1	0.57763671875	0.412841796875	1	lower	zerothre.ttf
552.202	n/a	WORD	276101	wordpools/wasnorm_wordpool_less_exclusions.txt	LTP282	ltpFR	2	1	0	WARRIOR	1589	n/a	n/a	1	0.57763671875	0.412841796875	1	lower	zerothre.ttf
556.198	n/a	WORD	278099	wordpools/wasnorm_wordpool_less_exclusions.txt	LTP282	ltpFR	2	1	0	PEACH	1031	n/a	n/a	0	0.57763671875	0.412841796875	1	lower	zerothre.ttf
560.182	n/a	WORD	280091	wordpools/wasnorm_wordpool_less_exclusions.txt	LTP282	ltpFR	2	1	1	STRAWBERRY	1391	n/a	n/a	1	0.422607421875	0.5869140625	0	upper	amplitud.ttf
564.398	n/a	WORD	282199	wordpools/wasnorm_wordpool_less_exclusions.txt	LTP282	ltpFR	2	1	1	COMET	353	n/a	n/a	0	0.422607421875	0.5869140625	0	upper	amplitud.ttf
568.58	n/a	WORD	284290	wordpools/wasnorm_wordpool_less_exclusions.txt	LTP282	ltpFR	2	1	1	FATHER	554	n/a	n/a	1	0.422607421875	0.5869140625	0	upper	amplitud.ttf
572.546	n/a	WORD	286273	wordpools/wasnorm_wordpool_less_exclusions.txt	LTP282	ltpFR	2	1	0	CONSUMER	365	n/a	n/a	1	0.57763671875	0.412841796875	1	lower	zerothre.ttf
576.378	n/a	WORD	288189	wordpools/wasnorm_wordpool_less_exclusions.txt	LTP282	ltpFR	2	1	0	WASHER	1592	n/a	n/a	1	0.57763671875	0.412841796875	1	lower	zerothre.ttf
580.36	n/a	WORD	290180	wordpools/wasnorm_wordpool_less_exclusions.txt	LTP282	ltpFR	2	1	0	OINTMENT	974	n/a	n/a	0	0.57763671875	0.412841796875	1	lower	zerothre.ttf
584.274	n/a	WORD	292137	wordpools/wasnorm_wordpool_less_exclusions.txt	LTP282	ltpFR	2	1	0	WHIP	1604	n/a	n/a	0	0.57763671875	0.412841796875	1	lower	zerothre.ttf
588.272	n/a	WORD	294136	wordpools/wasnorm_wordpool_less_exclusions.txt	LTP282	ltpFR	2	1	1	TRIBE	1505	n/a	n/a	1	0.422607421875	0.5869140625	0	upper	amplitud.ttf
592.404	n/a	WORD	296202	wordpools/wasnorm_wordpool_less_exclusions.txt	LTP282	ltpFR	2	1	1	CLERK	321	n/a	n/a	1	0.422607421875	0.5869140625	0	upper	amplitud.ttf
596.236	n/a	WORD	298118	wordpools/wasnorm_wordpool_less_exclusions.txt	LTP282	ltpFR	2	1	1	PARENT	1013	n/a	n/a	1	0.422607421875	0.5869140625	0	upper	amplitud.ttf
600.086	n/a	WORD	300043	wordpools/wasnorm_wordpool_less_exclusions.txt	LTP282	ltpFR	2	1	1	PIPE	1073	n/a	n/a	0	0.422607421875	0.5869140625	0	upper	amplitud.ttf
603.916	n/a	WORD	301958	wordpools/wasnorm_wordpool_less_exclusions.txt	LTP282	ltpFR	2	1	1	EYELASH	546	n/a	n/a	1	0.422607421875	0.5869140625	0	upper	amplitud.ttf
609.84	n/a	REC_START	304920	n/a	LTP282	ltpFR	2	1	n/a	n/a	n/a	n/a	n/a	n/a	n/a	n/a	n/a	n/a	n/a
611.158	n/a	REC_WORD	305579	wordpools/wasnorm_wordpool_less_exclusions.txt	LTP282	ltpFR	2	1	1	PARENT	1013	n/a	n/a	1	n/a	n/a	n/a	n/a	n/a
612.03	n/a	REC_WORD	306015	wordpools/wasnorm_wordpool_less_exclusions.txt	LTP282	ltpFR	2	1	1	PIPE	1073	n/a	n/a	0	n/a	n/a	n/a	n/a	n/a
612.852	n/a	REC_WORD	306426	wordpools/wasnorm_wordpool_less_exclusions.txt	LTP282	ltpFR	2	1	1	EYELASH	546	n/a	n/a	1	n/a	n/a	n/a	n/a	n/a
613.888	n/a	REC_WORD	306944	wordpools/wasnorm_wordpool_less_exclusions.txt	LTP282	ltpFR	2	1	0	OINTMENT	974	n/a	n/a	0	n/a	n/a	n/a	n/a	n/a
615.338	n/a	REC_WORD	307669	wordpools/wasnorm_wordpool_less_exclusions.txt	LTP282	ltpFR	2	1	0	WHIP	1604	n/a	n/a	0	n/a	n/a	n/a	n/a	n/a
616.678	n/a	REC_WORD	308339	wordpools/wasnorm_wordpool_less_exclusions.txt	LTP282	ltpFR	2	1	0	BUGGY	188	n/a	n/a	1	n/a	n/a	n/a	n/a	n/a
617.788	n/a	REC_WORD	308894	wordpools/wasnorm_wordpool_less_exclusions.txt	LTP282	ltpFR	2	1	0	CART	250	n/a	n/a	1	n/a	n/a	n/a	n/a	n/a
625.72	n/a	REC_WORD	312860	wordpools/wasnorm_wordpool_less_exclusions.txt	LTP282	ltpFR	2	1	0	WASHER	1592	n/a	n/a	1	n/a	n/a	n/a	n/a	n/a
635.762	n/a	REC_WORD	317881	wordpools/wasnorm_wordpool_less_exclusions.txt	LTP282	ltpFR	2	1	1	FATHER	554	n/a	n/a	1	n/a	n/a	n/a	n/a	n/a
640.762	n/a	REC_WORD	320381	wordpools/wasnorm_wordpool_less_exclusions.txt	LTP282	ltpFR	2	1	0	PEACH	1031	n/a	n/a	0	n/a	n/a	n/a	n/a	n/a
641.738	n/a	REC_WORD	320869	wordpools/wasnorm_wordpool_less_exclusions.txt	LTP282	ltpFR	2	1	1	STRAWBERRY	1391	n/a	n/a	1	n/a	n/a	n/a	n/a	n/a
673.016	n/a	REC_WORD	336508	wordpools/wasnorm_wordpool_less_exclusions.txt	LTP282	ltpFR	2	1	1	TRIBE	1505	n/a	n/a	1	n/a	n/a	n/a	n/a	n/a
704.768	n/a	WORD	352384	wordpools/wasnorm_wordpool_less_exclusions.txt	LTP282	ltpFR	2	2	1	SHELTER	1282	n/a	n/a	0	0.422607421875	0.5869140625	0	upper	amplitud.ttf
708.682	n/a	WORD	354341	wordpools/wasnorm_wordpool_less_exclusions.txt	LTP282	ltpFR	2	2	1	ANKLE	24	n/a	n/a	1	0.422607421875	0.5869140625	0	upper	amplitud.ttf
712.9	n/a	WORD	356450	wordpools/wasnorm_wordpool_less_exclusions.txt	LTP282	ltpFR	2	2	0	SALAD	1224	n/a	n/a	0	0.57763671875	0.412841796875	1	lower	zerothre.ttf
716.832	n/a	WORD	358416	wordpools/wasnorm_wordpool_less_exclusions.txt	LTP282	ltpFR	2	2	0	CARROT	249	n/a	n/a	0	0.57763671875	0.412841796875	1	lower	zerothre.ttf
720.98	n/a	WORD	360490	wordpools/wasnorm_wordpool_less_exclusions.txt	LTP282	ltpFR	2	2	0	SUPERVISOR	1410	n/a	n/a	1	0.57763671875	0.412841796875	1	lower	zerothre.ttf
725.062	n/a	WORD	362531	wordpools/wasnorm_wordpool_less_exclusions.txt	LTP282	ltpFR	2	2	0	DIVER	476	n/a	n/a	1	0.57763671875	0.412841796875	1	lower	zerothre.ttf
729.144	n/a	WORD	364572	wordpools/wasnorm_wordpool_less_exclusions.txt	LTP282	ltpFR	2	2	1	SHACK	1273	n/a	n/a	0	0.422607421875	0.5869140625	0	upper	amplitud.ttf
733.36	n/a	WORD	366680	wordpools/wasnorm_wordpool_less_exclusions.txt	LTP282	ltpFR	2	2	1	VOLLEYBALL	1576	n/a	n/a	0	0.422607421875	0.5869140625	0	upper	amplitud.ttf
737.276	n/a	WORD	368638	wordpools/wasnorm_wordpool_less_exclusions.txt	LTP282	ltpFR	2	2	1	HERD	705	n/a	n/a	1	0.422607421875	0.5869140625	0	upper	amplitud.ttf
741.19	n/a	WORD	370595	wordpools/wasnorm_wordpool_less_exclusions.txt	LTP282	ltpFR	2	2	1	MOSQUITO	917	n/a	n/a	1	0.422607421875	0.5869140625	0	upper	amplitud.ttf
745.006	n/a	WORD	372503	wordpools/wasnorm_wordpool_less_exclusions.txt	LTP282	ltpFR	2	2	0	ELBOW	520	n/a	n/a	0	0.57763671875	0.412841796875	1	lower	zerothre.ttf
748.954	n/a	WORD	374477	wordpools/wasnorm_wordpool_less_exclusions.txt	LTP282	ltpFR	2	2	0	CUSTARD	429	n/a	n/a	0	0.57763671875	0.412841796875	1	lower	zerothre.ttf
753.136	n/a	WORD	376568	wordpools/wasnorm_wordpool_less_exclusions.txt	LTP282	ltpFR	2	2	0	CHOCOLATE	306	n/a	n/a	0	0.57763671875	0.412841796875	1	lower	zerothre.ttf
757.1	n/a	WORD	378550	wordpools/wasnorm_wordpool_less_exclusions.txt	LTP282	ltpFR	2	2	0	CLIMBER	323	n/a	n/a	1	0.57763671875	0.412841796875	1	lower	zerothre.ttf
761.234	n/a	WORD	380617	wordpools/wasnorm_wordpool_less_exclusions.txt	LTP282	ltpFR	2	2	1	LODGE	839	n/a	n/a	0	0.422607421875	0.5869140625	0	upper	amplitud.ttf
765.398	n/a	WORD	382699	wordpools/wasnorm_wordpool_less_exclusions.txt	LTP282	ltpFR	2	2	1	KIDNEY	776	n/a	n/a	1	0.422607421875	0.5869140625	0	upper	amplitud.ttf
771.356	n/a	REC_START	385678	n/a	LTP282	ltpFR	2	2	n/a	n/a	n/a	n/a	n/a	n/a	n/a	n/a	n/a	n/a	n/a
772.4	n/a	REC_WORD	386200	wordpools/wasnorm_wordpool_less_exclusions.txt	LTP282	ltpFR	2	2	1	KIDNEY	776	n/a	n/a	1	n/a	n/a	n/a	n/a	n/a
773.134	n/a	REC_WORD	386567	wordpools/wasnorm_wordpool_less_exclusions.txt	LTP282	ltpFR	2	2	1	LODGE	839	n/a	n/a	0	n/a	n/a	n/a	n/a	n/a
774.074	n/a	REC_WORD	387037	wordpools/wasnorm_wordpool_less_exclusions.txt	LTP282	ltpFR	2	2	0	CLIMBER	323	n/a	n/a	1	n/a	n/a	n/a	n/a	n/a
775.498	n/a	REC_WORD	387749	wordpools/wasnorm_wordpool_less_exclusions.txt	LTP282	ltpFR	2	2	1	SHELTER	1282	n/a	n/a	0	n/a	n/a	n/a	n/a	n/a
779.928	n/a	REC_WORD	389964	wordpools/wasnorm_wordpool_less_exclusions.txt	LTP282	ltpFR	2	2	0	ELBOW	520	n/a	n/a	0	n/a	n/a	n/a	n/a	n/a
781.042	n/a	REC_WORD	390521	wordpools/wasnorm_wordpool_less_exclusions.txt	LTP282	ltpFR	2	2	1	ANKLE	24	n/a	n/a	1	n/a	n/a	n/a	n/a	n/a
792.794	n/a	REC_WORD	396397	wordpools/wasnorm_wordpool_less_exclusions.txt	LTP282	ltpFR	2	2	1	HERD	705	n/a	n/a	1	n/a	n/a	n/a	n/a	n/a
799.796	n/a	REC_WORD	399898	wordpools/wasnorm_wordpool_less_exclusions.txt	LTP282	ltpFR	2	2	0	SUPERVISOR	1410	n/a	n/a	1	n/a	n/a	n/a	n/a	n/a
800.796	n/a	REC_WORD_VV	400398	wordpools/wasnorm_wordpool_less_exclusions.txt	LTP282	ltpFR	2	2	n/a	<>	-1	n/a	n/a	n/a	n/a	n/a	n/a	n/a	n/a
815.484	n/a	REC_WORD	407742	wordpools/wasnorm_wordpool_less_exclusions.txt	LTP282	ltpFR	2	2	0	CARROT	249	n/a	n/a	0	n/a	n/a	n/a	n/a	n/a
817.44	n/a	REC_WORD	408720	wordpools/wasnorm_wordpool_less_exclusions.txt	LTP282	ltpFR	2	2	0	SALAD	1224	n/a	n/a	0	n/a	n/a	n/a	n/a	n/a
820.89	n/a	REC_WORD	410445	wordpools/wasnorm_wordpool_less_exclusions.txt	LTP282	ltpFR	2	2	0	CLIMBER	323	n/a	n/a	1	n/a	n/a	n/a	n/a	n/a
865.884	n/a	WORD	432942	wordpools/wasnorm_wordpool_less_exclusions.txt	LTP282	ltpFR	2	3	0	CANOE	233	n/a	n/a	1	0.57763671875	0.412841796875	1	lower	zerothre.ttf
869.85	n/a	WORD	434925	wordpools/wasnorm_wordpool_less_exclusions.txt	LTP282	ltpFR	2	3	0	BOAT	144	n/a	n/a	1	0.57763671875	0.412841796875	1	lower	zerothre.ttf
873.798	n/a	WORD	436899	wordpools/wasnorm_wordpool_less_exclusions.txt	LTP282	ltpFR	2	3	0	MAID	856	n/a	n/a	1	0.57763671875	0.412841796875	1	lower	zerothre.ttf
877.914	n/a	WORD	438957	wordpools/wasnorm_wordpool_less_exclusions.txt	LTP282	ltpFR	2	3	1	COMPASS	358	n/a	n/a	0	0.422607421875	0.5869140625	0	upper	amplitud.ttf
881.744	n/a	WORD	440872	wordpools/wasnorm_wordpool_less_exclusions.txt	LTP282	ltpFR	2	3	1	BIOLOGIST	128	n/a	n/a	1	0.422607421875	0.5869140625	0	upper	amplitud.ttf
885.692	n/a	WORD	442846	wordpools/wasnorm_wordpool_less_exclusions.txt	LTP282	ltpFR	2	3	1	STAR	1373	n/a	n/a	1	0.422607421875	0.5869140625	0	upper	amplitud.ttf
889.574	n/a	WORD	444787	wordpools/wasnorm_wordpool_less_exclusions.txt	LTP282	ltpFR	2	3	1	BUTLER	204	n/a	n/a	1	0.422607421875	0.5869140625	0	upper	amplitud.ttf
893.488	n/a	WORD	446744	wordpools/wasnorm_wordpool_less_exclusions.txt	LTP282	ltpFR	2	3	0	RADISH	1158	n/a	n/a	0	0.57763671875	0.412841796875	1	lower	zerothre.ttf
897.538	n/a	WORD	448769	wordpools/wasnorm_wordpool_less_exclusions.txt	LTP282	ltpFR	2	3	0	CREVICE	405	n/a	n/a	0	0.57763671875	0.412841796875	1	lower	zerothre.ttf
901.62	n/a	WORD	450810	wordpools/wasnorm_wordpool_less_exclusions.txt	LTP282	ltpFR	2	3	1	SINK	1309	n/a	n/a	0	0.422607421875	0.5869140625	0	upper	amplitud.ttf
905.82	n/a	WORD	452910	wordpools/wasnorm_wordpool_less_exclusions.txt	LTP282	ltpFR	2	3	1	TOILET	1475	n/a	n/a	0	0.422607421875	0.5869140625	0	upper	amplitud.ttf
909.936	n/a	WORD	454968	wordpools/wasnorm_wordpool_less_exclusions.txt	LTP282	ltpFR	2	3	1	GALAXY	617	n/a	n/a	0	0.422607421875	0.5869140625	0	upper	amplitud.ttf
913.984	n/a	WORD	456992	wordpools/wasnorm_wordpool_less_exclusions.txt	LTP282	ltpFR	2	3	1	HARE	688	n/a	n/a	1	0.422607421875	0.5869140625	0	upper	amplitud.ttf
918.134	n/a	WORD	459067	wordpools/wasnorm_wordpool_less_exclusions.txt	LTP282	ltpFR	2	3	0	CHALK	276	n/a	n/a	0	0.57763671875	0.412841796875	1	lower	zerothre.ttf
922.23	n/a	WORD	461115	wordpools/wasnorm_wordpool_less_exclusions.txt	LTP282	ltpFR	2	3	0	FIG	563	n/a	n/a	0	0.57763671875	0.412841796875	1	lower	zerothre.ttf
926.282	n/a	WORD	463141	wordpools/wasnorm_wordpool_less_exclusions.txt	LTP282	ltpFR	2	3	0	PEAR	1033	n/a	n/a	0	0.57763671875	0.412841796875	1	lower	zerothre.ttf
932.338	n/a	REC_START	466169	n/a	LTP282	ltpFR	2	3	n/a	n/a	n/a	n/a	n/a	n/a	n/a	n/a	n/a	n/a	n/a
933.586	n/a	REC_WORD	466793	wordpools/wasnorm_wordpool_less_exclusions.txt	LTP282	ltpFR	2	3	0	PEAR	1033	n/a	n/a	0	n/a	n/a	n/a	n/a	n/a
934.37	n/a	REC_WORD	467185	wordpools/wasnorm_wordpool_less_exclusions.txt	LTP282	ltpFR	2	3	0	FIG	563	n/a	n/a	0	n/a	n/a	n/a	n/a	n/a
935.434	n/a	REC_WORD	467717	wordpools/wasnorm_wordpool_less_exclusions.txt	LTP282	ltpFR	2	3	0	CHALK	276	n/a	n/a	0	n/a	n/a	n/a	n/a	n/a
936.776	n/a	REC_WORD	468388	wordpools/wasnorm_wordpool_less_exclusions.txt	LTP282	ltpFR	2	3	1	GALAXY	617	n/a	n/a	0	n/a	n/a	n/a	n/a	n/a
937.886	n/a	REC_WORD	468943	wordpools/wasnorm_wordpool_less_exclusions.txt	LTP282	ltpFR	2	3	1	STAR	1373	n/a	n/a	1	n/a	n/a	n/a	n/a	n/a
940.494	n/a	REC_WORD	470247	wordpools/wasnorm_wordpool_less_exclusions.txt	LTP282	ltpFR	2	3	1	HARE	688	n/a	n/a	1	n/a	n/a	n/a	n/a	n/a
944.922	n/a	REC_WORD	472461	wordpools/wasnorm_wordpool_less_exclusions.txt	LTP282	ltpFR	2	3	1	BIOLOGIST	128	n/a	n/a	1	n/a	n/a	n/a	n/a	n/a
945.922	n/a	REC_WORD_VV	472961	wordpools/wasnorm_wordpool_less_exclusions.txt	LTP282	ltpFR	2	3	n/a	<>	-1	n/a	n/a	n/a	n/a	n/a	n/a	n/a	n/a
946.172	n/a	REC_WORD	473086	wordpools/wasnorm_wordpool_less_exclusions.txt	LTP282	ltpFR	2	3	0	BOAT	144	n/a	n/a	1	n/a	n/a	n/a	n/a	n/a
946.946	n/a	REC_WORD	473473	wordpools/wasnorm_wordpool_less_exclusions.txt	LTP282	ltpFR	2	3	0	CANOE	233	n/a	n/a	1	n/a	n/a	n/a	n/a	n/a
948.032	n/a	REC_WORD	474016	wordpools/wasnorm_wordpool_less_exclusions.txt	LTP282	ltpFR	2	3	1	COMPASS	358	n/a	n/a	0	n/a	n/a	n/a	n/a	n/a
949.01	n/a	REC_WORD	474505	wordpools/wasnorm_wordpool_less_exclusions.txt	LTP282	ltpFR	2	3	0	MAID	856	n/a	n/a	1	n/a	n/a	n/a	n/a	n/a
1051.142	n/a	WORD	525571	wordpools/wasnorm_wordpool_less_exclusions.txt	LTP282	ltpFR	2	4	0	BISCUIT	130	n/a	n/a	0	0.57763671875	0.412841796875	1	lower	zerothre.ttf
1054.974	n/a	WORD	527487	wordpools/wasnorm_wordpool_less_exclusions.txt	LTP282	ltpFR	2	4	0	SUPERMARKET	1409	n/a	n/a	1	0.57763671875	0.412841796875	1	lower	zerothre.ttf
1058.94	n/a	WORD	529470	wordpools/wasnorm_wordpool_less_exclusions.txt	LTP282	ltpFR	2	4	0	SEA	1259	n/a	n/a	1	0.57763671875	0.412841796875	1	lower	zerothre.ttf
1062.82	n/a	WORD	531410	wordpools/wasnorm_wordpool_less_exclusions.txt	LTP282	ltpFR	2	4	0	CANDY	230	n/a	n/a	0	0.57763671875	0.412841796875	1	lower	zerothre.ttf
1066.802	n/a	WORD	533401	wordpools/wasnorm_wordpool_less_exclusions.txt	LTP282	ltpFR	2	4	0	LEADER	807	n/a	n/a	1	0.57763671875	0.412841796875	1	lower	zerothre.ttf
1070.684	n/a	WORD	535342	wordpools/wasnorm_wordpool_less_exclusions.txt	LTP282	ltpFR	2	4	0	DICTATOR	462	n/a	n/a	1	0.57763671875	0.412841796875	1	lower	zerothre.ttf
1074.532	n/a	WORD	537266	wordpools/wasnorm_wordpool_less_exclusions.txt	LTP282	ltpFR	2	4	0	PUPPY	1144	n/a	n/a	0	0.57763671875	0.412841796875	1	lower	zerothre.ttf
1078.546	n/a	WORD	539273	wordpools/wasnorm_wordpool_less_exclusions.txt	LTP282	ltpFR	2	4	0	FAMILY	550	n/a	n/a	1	0.57763671875	0.412841796875	1	lower	zerothre.ttf
1082.41	n/a	WORD	541205	wordpools/wasnorm_wordpool_less_exclusions.txt	LTP282	ltpFR	2	4	0	OFFICE	972	n/a	n/a	1	0.57763671875	0.412841796875	1	lower	zerothre.ttf
1086.576	n/a	WORD	543288	wordpools/wasnorm_wordpool_less_exclusions.txt	LTP282	ltpFR	2	4	0	DESK	452	n/a	n/a	1	0.57763671875	0.412841796875	1	lower	zerothre.ttf
1090.626	n/a	WORD	545313	wordpools/wasnorm_wordpool_less_exclusions.txt	LTP282	ltpFR	2	4	0	SOCIETY	1338	n/a	n/a	1	0.57763671875	0.412841796875	1	lower	zerothre.ttf
1094.574	n/a	WORD	547287	wordpools/wasnorm_wordpool_less_exclusions.txt	LTP282	ltpFR	2	4	0	SKIRT	1319	n/a	n/a	1	0.57763671875	0.412841796875	1	lower	zerothre.ttf
1098.724	n/a	WORD	549362	wordpools/wasnorm_wordpool_less_exclusions.txt	LTP282	ltpFR	2	4	0	MOTHER	921	n/a	n/a	1	0.57763671875	0.412841796875	1	lower	zerothre.ttf
1102.856	n/a	WORD	551428	wordpools/wasnorm_wordpool_less_exclusions.txt	LTP282	ltpFR	2	4	0	FLEA	577	n/a	n/a	0	0.57763671875	0.412841796875	1	lower	zerothre.ttf
1106.838	n/a	WORD	553419	wordpools/wasnorm_wordpool_less_exclusions.txt	LTP282	ltpFR	2	4	0	APPLICATION	34	n/a	n/a	0	0.57763671875	0.412841796875	1	lower	zerothre.ttf
1110.82	n/a	WORD	555410	wordpools/wasnorm_wordpool_less_exclusions.txt	LTP282	ltpFR	2	4	0	ALMOND	18	n/a	n/a	0	0.57763671875	0.412841796875	1	lower	zerothre.ttf
1116.626	n/a	REC_START	558313	n/a	LTP282	ltpFR	2	4	n/a	n/a	n/a	n/a	n/a	n/a	n/a	n/a	n/a	n/a	n/a
1117.512	n/a	REC_WORD	558756	wordpools/wasnorm_wordpool_less_exclusions.txt	LTP282	ltpFR	2	4	0	ALMOND	18	n/a	n/a	0	n/a	n/a	n/a	n/a	n/a
1118.248	n/a	REC_WORD	559124	wordpools/wasnorm_wordpool_less_exclusions.txt	LTP282	ltpFR	2	4	0	FLEA	577	n/a	n/a	0	n/a	n/a	n/a	n/a	n/a
1119.076	n/a	REC_WORD	559538	wordpools/wasnorm_wordpool_less_exclusions.txt	LTP282	ltpFR	2	4	0	APPLICATION	34	n/a	n/a	0	n/a	n/a	n/a	n/a	n/a
1120.076	n/a	REC_WORD_VV	560038	wordpools/wasnorm_wordpool_less_exclusions.txt	LTP282	ltpFR	2	4	n/a	<>	-1	n/a	n/a	n/a	n/a	n/a	n/a	n/a	n/a
1120.772	n/a	REC_WORD	560386	wordpools/wasnorm_wordpool_less_exclusions.txt	LTP282	ltpFR	2	4	0	MOTHER	921	n/a	n/a	1	n/a	n/a	n/a	n/a	n/a
1121.662	n/a	REC_WORD	560831	wordpools/wasnorm_wordpool_less_exclusions.txt	LTP282	ltpFR	2	4	0	SKIRT	1319	n/a	n/a	1	n/a	n/a	n/a	n/a	n/a
1122.662	n/a	REC_WORD_VV	561331	wordpools/wasnorm_wordpool_less_exclusions.txt	LTP282	ltpFR	2	4	n/a	<>	-1	n/a	n/a	n/a	n/a	n/a	n/a	n/a	n/a
1124.612	n/a	REC_WORD	562306	wordpools/wasnorm_wordpool_less_exclusions.txt	LTP282	ltpFR	2	4	0	ALMOND	18	n/a	n/a	0	n/a	n/a	n/a	n/a	n/a
1129.872	n/a	REC_WORD	564936	wordpools/wasnorm_wordpool_less_exclusions.txt	LTP282	ltpFR	2	4	0	DESK	452	n/a	n/a	1	n/a	n/a	n/a	n/a	n/a
1131.274	n/a	REC_WORD	565637	wordpools/wasnorm_wordpool_less_exclusions.txt	LTP282	ltpFR	2	4	0	OFFICE	972	n/a	n/a	1	n/a	n/a	n/a	n/a	n/a
1132.396	n/a	REC_WORD	566198	wordpools/wasnorm_wordpool_less_exclusions.txt	LTP282	ltpFR	2	4	0	SEA	1259	n/a	n/a	1	n/a	n/a	n/a	n/a	n/a
1137.638	n/a	REC_WORD	568819	wordpools/wasnorm_wordpool_less_exclusions.txt	LTP282	ltpFR	2	4	0	SOCIETY	1338	n/a	n/a	1	n/a	n/a	n/a	n/a	n/a
1163.65	n/a	REC_WORD	581825	wordpools/wasnorm_wordpool_less_exclusions.txt	LTP282	ltpFR	2	4	0	CANDY	230	n/a	n/a	0	n/a	n/a	n/a	n/a	n/a
1199.994	n/a	WORD	599997	wordpools/wasnorm_wordpool_less_exclusions.txt	LTP282	ltpFR	2	5	-1	SANDPAPER	1231	n/a	n/a	-1	1.0	1.0	1	upper	Verdana.ttf
1203.926	n/a	WORD	601963	wordpools/wasnorm_wordpool_less_exclusions.txt	LTP282	ltpFR	2	5	-1	SAW	1239	n/a	n/a	-1	1.0	1.0	1	upper	Verdana.ttf
1207.758	n/a	WORD	603879	wordpools/wasnorm_wordpool_less_exclusions.txt	LTP282	ltpFR	2	5	-1	DOUGHNUT	490	n/a	n/a	-1	1.0	1.0	1	upper	Verdana.ttf
1211.672	n/a	WORD	605836	wordpools/wasnorm_wordpool_less_exclusions.txt	LTP282	ltpFR	2	5	-1	RELATIVE	1182	n/a	n/a	-1	1.0	1.0	1	upper	Verdana.ttf
1215.888	n/a	WORD	607944	wordpools/wasnorm_wordpool_less_exclusions.txt	LTP282	ltpFR	2	5	-1	WALLET	1583	n/a	n/a	-1	1.0	1.0	1	upper	Verdana.ttf
1219.92	n/a	WORD	609960	wordpools/wasnorm_wordpool_less_exclusions.txt	LTP282	ltpFR	2	5	-1	QUARTER	1148	n/a	n/a	-1	1.0	1.0	1	upper	Verdana.ttf
1223.886	n/a	WORD	611943	wordpools/wasnorm_wordpool_less_exclusions.txt	LTP282	ltpFR	2	5	-1	TIMBER	1469	n/a	n/a	-1	1.0	1.0	1	upper	Verdana.ttf
1227.902	n/a	WORD	613951	wordpools/wasnorm_wordpool_less_exclusions.txt	LTP282	ltpFR	2	5	-1	ELM	527	n/a	n/a	-1	1.0	1.0	1	upper	Verdana.ttf
1231.934	n/a	WORD	615967	wordpools/wasnorm_wordpool_less_exclusions.txt	LTP282	ltpFR	2	5	-1	MALL	860	n/a	n/a	-1	1.0	1.0	1	upper	Verdana.ttf
1235.948	n/a	WORD	617974	wordpools/wasnorm_wordpool_less_exclusions.txt	LTP282	ltpFR	2	5	-1	PHILOSOPHER	1054	n/a	n/a	-1	1.0	1.0	1	upper	Verdana.ttf
1239.946	n/a	WORD	619973	wordpools/wasnorm_wordpool_less_exclusions.txt	LTP282	ltpFR	2	5	-1	CASHEW	253	n/a	n/a	-1	1.0	1.0	1	upper	Verdana.ttf
1243.964	n/a	WORD	621982	wordpools/wasnorm_wordpool_less_exclusions.txt	LTP282	ltpFR	2	5	-1	HANDBAG	684	n/a	n/a	-1	1.0	1.0	1	upper	Verdana.ttf
1247.926	n/a	WORD	623963	wordpools/wasnorm_wordpool_less_exclusions.txt	LTP282	ltpFR	2	5	-1	PIT	1077	n/a	n/a	-1	1.0	1.0	1	upper	Verdana.ttf
1251.86	n/a	WORD	625930	wordpools/wasnorm_wordpool_less_exclusions.txt	LTP282	ltpFR	2	5	-1	UNCLE	1536	n/a	n/a	-1	1.0	1.0	1	upper	Verdana.ttf
1256.042	n/a	WORD	628021	wordpools/wasnorm_wordpool_less_exclusions.txt	LTP282	ltpFR	2	5	-1	FOLDER	588	n/a	n/a	-1	1.0	1.0	1	upper	Verdana.ttf
1260.258	n/a	WORD	630129	wordpools/wasnorm_wordpool_less_exclusions.txt	LTP282	ltpFR	2	5	-1	LIST	830	n/a	n/a	-1	1.0	1.0	1	upper	Verdana.ttf
1266.198	n/a	REC_START	633099	n/a	LTP282	ltpFR	2	5	n/a	n/a	n/a	n/a	n/a	n/a	n/a	n/a	n/a	n/a	n/a
1267.066	n/a	REC_WORD	633533	wordpools/wasnorm_wordpool_less_exclusions.txt	LTP282	ltpFR	2	5	-1	FOLDER	588	n/a	n/a	-1	n/a	n/a	n/a	n/a	n/a
1267.946	n/a	REC_WORD	633973	wordpools/wasnorm_wordpool_less_exclusions.txt	LTP282	ltpFR	2	5	-1	LIST	830	n/a	n/a	-1	n/a	n/a	n/a	n/a	n/a
1268.824	n/a	REC_WORD	634412	wordpools/wasnorm_wordpool_less_exclusions.txt	LTP282	ltpFR	2	5	-1	UNCLE	1536	n/a	n/a	-1	n/a	n/a	n/a	n/a	n/a
1269.634	n/a	REC_WORD	634817	wordpools/wasnorm_wordpool_less_exclusions.txt	LTP282	ltpFR	2	5	-1	RELATIVE	1182	n/a	n/a	-1	n/a	n/a	n/a	n/a	n/a
1270.654	n/a	REC_WORD	635327	wordpools/wasnorm_wordpool_less_exclusions.txt	LTP282	ltpFR	2	5	-1	MALL	860	n/a	n/a	-1	n/a	n/a	n/a	n/a	n/a
1271.91	n/a	REC_WORD	635955	wordpools/wasnorm_wordpool_less_exclusions.txt	LTP282	ltpFR	2	5	-1	HANDBAG	684	n/a	n/a	-1	n/a	n/a	n/a	n/a	n/a
1273.08	n/a	REC_WORD	636540	wordpools/wasnorm_wordpool_less_exclusions.txt	LTP282	ltpFR	2	5	-1	PIT	1077	n/a	n/a	-1	n/a	n/a	n/a	n/a	n/a
1274.366	n/a	REC_WORD	637183	wordpools/wasnorm_wordpool_less_exclusions.txt	LTP282	ltpFR	2	5	-1	CASHEW	253	n/a	n/a	-1	n/a	n/a	n/a	n/a	n/a
1275.624	n/a	REC_WORD	637812	wordpools/wasnorm_wordpool_less_exclusions.txt	LTP282	ltpFR	2	5	-1	DOUGHNUT	490	n/a	n/a	-1	n/a	n/a	n/a	n/a	n/a
1276.558	n/a	REC_WORD	638279	wordpools/wasnorm_wordpool_less_exclusions.txt	LTP282	ltpFR	2	5	-1	ELM	527	n/a	n/a	-1	n/a	n/a	n/a	n/a	n/a
1277.83	n/a	REC_WORD	638915	wordpools/wasnorm_wordpool_less_exclusions.txt	LTP282	ltpFR	2	5	-1	SAW	1239	n/a	n/a	-1	n/a	n/a	n/a	n/a	n/a
1287.754	n/a	REC_WORD	643877	wordpools/wasnorm_wordpool_less_exclusions.txt	LTP282	ltpFR	2	5	-1	TIMBER	1469	n/a	n/a	-1	n/a	n/a	n/a	n/a	n/a
1293.908	n/a	REC_WORD	646954	wordpools/wasnorm_wordpool_less_exclusions.txt	LTP282	ltpFR	2	5	-1	PHILOSOPHER	1054	n/a	n/a	-1	n/a	n/a	n/a	n/a	n/a
1294.908	n/a	REC_WORD_VV	647454	wordpools/wasnorm_wordpool_less_exclusions.txt	LTP282	ltpFR	2	5	n/a	<>	-1	n/a	n/a	n/a	n/a	n/a	n/a	n/a	n/a
1349.632	n/a	WORD	674816	wordpools/wasnorm_wordpool_less_exclusions.txt	LTP282	ltpFR	2	6	0	BERRY	122	n/a	n/a	0	0.57763671875	0.412841796875	1	lower	zerothre.ttf
1353.464	n/a	WORD	676732	wordpools/wasnorm_wordpool_less_exclusions.txt	LTP282	ltpFR	2	6	0	RASPBERRY	1168	n/a	n/a	0	0.57763671875	0.412841796875	1	lower	zerothre.ttf
1357.346	n/a	WORD	678673	wordpools/wasnorm_wordpool_less_exclusions.txt	LTP282	ltpFR	2	6	0	FRIAR	605	n/a	n/a	1	0.57763671875	0.412841796875	1	lower	zerothre.ttf
1361.328	n/a	WORD	680664	wordpools/wasnorm_wordpool_less_exclusions.txt	LTP282	ltpFR	2	6	0	BUN	197	n/a	n/a	0	0.57763671875	0.412841796875	1	lower	zerothre.ttf
1365.426	n/a	WORD	682713	wordpools/wasnorm_wordpool_less_exclusions.txt	LTP282	ltpFR	2	6	0	ATTORNEY	58	n/a	n/a	1	0.57763671875	0.412841796875	1	lower	zerothre.ttf
1369.558	n/a	WORD	684779	wordpools/wasnorm_wordpool_less_exclusions.txt	LTP282	ltpFR	2	6	0	ROBOT	1200	n/a	n/a	1	0.57763671875	0.412841796875	1	lower	zerothre.ttf
1373.724	n/a	WORD	686862	wordpools/wasnorm_wordpool_less_exclusions.txt	LTP282	ltpFR	2	6	0	BRIDGE	174	n/a	n/a	1	0.57763671875	0.412841796875	1	lower	zerothre.ttf
1377.706	n/a	WORD	688853	wordpools/wasnorm_wordpool_less_exclusions.txt	LTP282	ltpFR	2	6	0	FOX	598	n/a	n/a	1	0.57763671875	0.412841796875	1	lower	zerothre.ttf
1381.77	n/a	WORD	690885	wordpools/wasnorm_wordpool_less_exclusions.txt	LTP282	ltpFR	2	6	0	SCROLL	1257	n/a	n/a	1	0.57763671875	0.412841796875	1	lower	zerothre.ttf
1385.67	n/a	WORD	692835	wordpools/wasnorm_wordpool_less_exclusions.txt	LTP282	ltpFR	2	6	0	ISLAND	745	n/a	n/a	1	0.57763671875	0.412841796875	1	lower	zerothre.ttf
1389.684	n/a	WORD	694842	wordpools/wasnorm_wordpool_less_exclusions.txt	LTP282	ltpFR	2	6	0	MOAT	903	n/a	n/a	1	0.57763671875	0.412841796875	1	lower	zerothre.ttf
1393.732	n/a	WORD	696866	wordpools/wasnorm_wordpool_less_exclusions.txt	LTP282	ltpFR	2	6	0	DOCUMENT	479	n/a	n/a	0	0.57763671875	0.412841796875	1	lower	zerothre.ttf
1397.766	n/a	WORD	698883	wordpools/wasnorm_wordpool_less_exclusions.txt	LTP282	ltpFR	2	6	0	PEPPER	1047	n/a	n/a	0	0.57763671875	0.412841796875	1	lower	zerothre.ttf
1401.766	n/a	WORD	700883	wordpools/wasnorm_wordpool_less_exclusions.txt	LTP282	ltpFR	2	6	0	STAKE	1368	n/a	n/a	1	0.57763671875	0.412841796875	1	lower	zerothre.ttf
1405.662	n/a	WORD	702831	wordpools/wasnorm_wordpool_less_exclusions.txt	LTP282	ltpFR	2	6	0	BRICK	172	n/a	n/a	0	0.57763671875	0.412841796875	1	lower	zerothre.ttf
1409.628	n/a	WORD	704814	wordpools/wasnorm_wordpool_less_exclusions.txt	LTP282	ltpFR	2	6	0	COYOTE	396	n/a	n/a	1	0.57763671875	0.412841796875	1	lower	zerothre.ttf
1415.468	n/a	REC_START	707734	n/a	LTP282	ltpFR	2	6	n/a	n/a	n/a	n/a	n/a	n/a	n/a	n/a	n/a	n/a	n/a
1416.544	n/a	REC_WORD	708272	wordpools/wasnorm_wordpool_less_exclusions.txt	LTP282	ltpFR	2	6	0	COYOTE	396	n/a	n/a	1	n/a	n/a	n/a	n/a	n/a
1417.5	n/a	REC_WORD	708750	wordpools/wasnorm_wordpool_less_exclusions.txt	LTP282	ltpFR	2	6	0	BRICK	172	n/a	n/a	0	n/a	n/a	n/a	n/a	n/a
1418.418	n/a	REC_WORD	709209	wordpools/wasnorm_wordpool_less_exclusions.txt	LTP282	ltpFR	2	6	0	DOCUMENT	479	n/a	n/a	0	n/a	n/a	n/a	n/a	n/a
1427.464	n/a	REC_WORD_VV	713732	wordpools/wasnorm_wordpool_less_exclusions.txt	LTP282	ltpFR	2	6	n/a	<>	-1	n/a	n/a	n/a	n/a	n/a	n/a	n/a	n/a
1430.348	n/a	REC_WORD	715174	wordpools/wasnorm_wordpool_less_exclusions.txt	LTP282	ltpFR	2	6	0	STAKE	1368	n/a	n/a	1	n/a	n/a	n/a	n/a	n/a
1435.904	n/a	REC_WORD	717952	wordpools/wasnorm_wordpool_less_exclusions.txt	LTP282	ltpFR	2	6	0	PEPPER	1047	n/a	n/a	0	n/a	n/a	n/a	n/a	n/a
1438.98	n/a	REC_WORD	719490	wordpools/wasnorm_wordpool_less_exclusions.txt	LTP282	ltpFR	2	6	0	FRIAR	605	n/a	n/a	1	n/a	n/a	n/a	n/a	n/a
1452.074	n/a	REC_WORD	726037	wordpools/wasnorm_wordpool_less_exclusions.txt	LTP282	ltpFR	2	6	0	PUPPY	1144	n/a	n/a	0	n/a	n/a	n/a	n/a	n/a
1453.93	n/a	REC_WORD	726965	wordpools/wasnorm_wordpool_less_exclusions.txt	LTP282	ltpFR	2	6	0	FOX	598	n/a	n/a	1	n/a	n/a	n/a	n/a	n/a
1455.418	n/a	REC_WORD	727709	wordpools/wasnorm_wordpool_less_exclusions.txt	LTP282	ltpFR	2	6	0	COYOTE	396	n/a	n/a	1	n/a	n/a	n/a	n/a	n/a
1470.682	n/a	REC_WORD	735341	wordpools/wasnorm_wordpool_less_exclusions.txt	LTP282	ltpFR	2	6	0	BERRY	122	n/a	n/a	0	n/a	n/a	n/a	n/a	n/a
1472.96	n/a	REC_WORD	736480	wordpools/wasnorm_wordpool_less_exclusions.txt	LTP282	ltpFR	2	6	0	RASPBERRY	1168	n/a	n/a	0	n/a	n/a	n/a	n/a	n/a
1504.574	n/a	WORD	752287	wordpools/wasnorm_wordpool_less_exclusions.txt	LTP282	ltpFR	2	7	0	SEAFOOD	1260	n/a	n/a	0	0.57763671875	0.412841796875	1	lower	zerothre.ttf
1508.624	n/a	WORD	754312	wordpools/wasnorm_wordpool_less_exclusions.txt	LTP282	ltpFR	2	7	0	DYNAMITE	511	n/a	n/a	0	0.57763671875	0.412841796875	1	lower	zerothre.ttf
1512.572	n/a	WORD	756286	wordpools/wasnorm_wordpool_less_exclusions.txt	LTP282	ltpFR	2	7	0	OCTOPUS	971	n/a	n/a	0	0.57763671875	0.412841796875	1	lower	zerothre.ttf
1516.436	n/a	WORD	758218	wordpools/wasnorm_wordpool_less_exclusions.txt	LTP282	ltpFR	2	7	0	HOOK	715	n/a	n/a	0	0.57763671875	0.412841796875	1	lower	zerothre.ttf
1520.552	n/a	WORD	760276	wordpools/wasnorm_wordpool_less_exclusions.txt	LTP282	ltpFR	2	7	0	TELESCOPE	1446	n/a	n/a	1	0.57763671875	0.412841796875	1	lower	zerothre.ttf
1524.55	n/a	WORD	762275	wordpools/wasnorm_wordpool_less_exclusions.txt	LTP282	ltpFR	2	7	0	CLOUD	328	n/a	n/a	1	0.57763671875	0.412841796875	1	lower	zerothre.ttf
1528.532	n/a	WORD	764266	wordpools/wasnorm_wordpool_less_exclusions.txt	LTP282	ltpFR	2	7	0	MARSH	874	n/a	n/a	1	0.57763671875	0.412841796875	1	lower	zerothre.ttf
1532.732	n/a	WORD	766366	wordpools/wasnorm_wordpool_less_exclusions.txt	LTP282	ltpFR	2	7	0	BANNER	85	n/a	n/a	1	0.57763671875	0.412841796875	1	lower	zerothre.ttf
1536.898	n/a	WORD	768449	wordpools/wasnorm_wordpool_less_exclusions.txt	LTP282	ltpFR	2	7	0	FAUCET	555	n/a	n/a	0	0.57763671875	0.412841796875	1	lower	zerothre.ttf
1540.81	n/a	WORD	770405	wordpools/wasnorm_wordpool_less_exclusions.txt	LTP282	ltpFR	2	7	0	POT	1114	n/a	n/a	1	0.57763671875	0.412841796875	1	lower	zerothre.ttf
1544.844	n/a	WORD	772422	wordpools/wasnorm_wordpool_less_exclusions.txt	LTP282	ltpFR	2	7	0	FIREPLACE	570	n/a	n/a	1	0.57763671875	0.412841796875	1	lower	zerothre.ttf
1548.828	n/a	WORD	774414	wordpools/wasnorm_wordpool_less_exclusions.txt	LTP282	ltpFR	2	7	0	DART	440	n/a	n/a	0	0.57763671875	0.412841796875	1	lower	zerothre.ttf
1552.994	n/a	WORD	776497	wordpools/wasnorm_wordpool_less_exclusions.txt	LTP282	ltpFR	2	7	0	BOARD	143	n/a	n/a	0	0.57763671875	0.412841796875	1	lower	zerothre.ttf
1557.126	n/a	WORD	778563	wordpools/wasnorm_wordpool_less_exclusions.txt	LTP282	ltpFR	2	7	0	COD	340	n/a	n/a	0	0.57763671875	0.412841796875	1	lower	zerothre.ttf
1561.19	n/a	WORD	780595	wordpools/wasnorm_wordpool_less_exclusions.txt	LTP282	ltpFR	2	7	0	CONVENT	370	n/a	n/a	1	0.57763671875	0.412841796875	1	lower	zerothre.ttf
1565.022	n/a	WORD	782511	wordpools/wasnorm_wordpool_less_exclusions.txt	LTP282	ltpFR	2	7	0	STREAM	1392	n/a	n/a	1	0.57763671875	0.412841796875	1	lower	zerothre.ttf
1570.812	n/a	REC_START	785406	n/a	LTP282	ltpFR	2	7	n/a	n/a	n/a	n/a	n/a	n/a	n/a	n/a	n/a	n/a	n/a
1571.63	n/a	REC_WORD	785815	wordpools/wasnorm_wordpool_less_exclusions.txt	LTP282	ltpFR	2	7	0	STREAM	1392	n/a	n/a	1	n/a	n/a	n/a	n/a	n/a
1572.616	n/a	REC_WORD	786308	wordpools/wasnorm_wordpool_less_exclusions.txt	LTP282	ltpFR	2	7	0	CONVENT	370	n/a	n/a	1	n/a	n/a	n/a	n/a	n/a
1573.74	n/a	REC_WORD	786870	wordpools/wasnorm_wordpool_less_exclusions.txt	LTP282	ltpFR	2	7	0	DART	440	n/a	n/a	0	n/a	n/a	n/a	n/a	n/a
1574.818	n/a	REC_WORD	787409	wordpools/wasnorm_wordpool_less_exclusions.txt	LTP282	ltpFR	2	7	0	BOARD	143	n/a	n/a	0	n/a	n/a	n/a	n/a	n/a
1579.676	n/a	REC_WORD	789838	wordpools/wasnorm_wordpool_less_exclusions.txt	LTP282	ltpFR	2	7	0	TELESCOPE	1446	n/a	n/a	1	n/a	n/a	n/a	n/a	n/a
1580.942	n/a	REC_WORD	790471	wordpools/wasnorm_wordpool_less_exclusions.txt	LTP282	ltpFR	2	7	0	CLOUD	328	n/a	n/a	1	n/a	n/a	n/a	n/a	n/a
1610.19	n/a	REC_WORD	805095	wordpools/wasnorm_wordpool_less_exclusions.txt	LTP282	ltpFR	2	7	0	STREAM	1392	n/a	n/a	1	n/a	n/a	n/a	n/a	n/a
1629.324	n/a	REC_WORD	814662	wordpools/wasnorm_wordpool_less_exclusions.txt	LTP282	ltpFR	2	7	0	CONVENT	370	n/a	n/a	1	n/a	n/a	n/a	n/a	n/a
1685.214	n/a	WORD	842607	wordpools/wasnorm_wordpool_less_exclusions.txt	LTP282	ltpFR	2	8	-1	FRIEND	606	n/a	n/a	-1	1.0	1.0	1	upper	Verdana.ttf
1689.164	n/a	WORD	844582	wordpools/wasnorm_wordpool_less_exclusions.txt	LTP282	ltpFR	2	8	-1	BOYFRIEND	162	n/a	n/a	-1	1.0	1.0	1	upper	Verdana.ttf
1693.212	n/a	WORD	846606	wordpools/wasnorm_wordpool_less_exclusions.txt	LTP282	ltpFR	2	8	-1	TREE	1502	n/a	n/a	-1	1.0	1.0	1	upper	Verdana.ttf
1697.344	n/a	WORD	848672	wordpools/wasnorm_wordpool_less_exclusions.txt	LTP282	ltpFR	2	8	-1	EDITORIAL	517	n/a	n/a	-1	1.0	1.0	1	upper	Verdana.ttf
1701.176	n/a	WORD	850588	wordpools/wasnorm_wordpool_less_exclusions.txt	LTP282	ltpFR	2	8	-1	HORSE	719	n/a	n/a	-1	1.0	1.0	1	upper	Verdana.ttf
1705.158	n/a	WORD	852579	wordpools/wasnorm_wordpool_less_exclusions.txt	LTP282	ltpFR	2	8	-1	RAZOR	1171	n/a	n/a	-1	1.0	1.0	1	upper	Verdana.ttf
1709.006	n/a	WORD	854503	wordpools/wasnorm_wordpool_less_exclusions.txt	LTP282	ltpFR	2	8	-1	FACE	547	n/a	n/a	-1	1.0	1.0	1	upper	Verdana.ttf
1713.072	n/a	WORD	856536	wordpools/wasnorm_wordpool_less_exclusions.txt	LTP282	ltpFR	2	8	-1	BRAN	167	n/a	n/a	-1	1.0	1.0	1	upper	Verdana.ttf
1716.902	n/a	WORD	858451	wordpools/wasnorm_wordpool_less_exclusions.txt	LTP282	ltpFR	2	8	-1	LANDSCAPE	799	n/a	n/a	-1	1.0	1.0	1	upper	Verdana.ttf
1720.952	n/a	WORD	860476	wordpools/wasnorm_wordpool_less_exclusions.txt	LTP282	ltpFR	2	8	-1	CARRIAGE	248	n/a	n/a	-1	1.0	1.0	1	upper	Verdana.ttf
1724.816	n/a	WORD	862408	wordpools/wasnorm_wordpool_less_exclusions.txt	LTP282	ltpFR	2	8	-1	CONTRACTOR	369	n/a	n/a	-1	1.0	1.0	1	upper	Verdana.ttf
1728.882	n/a	WORD	864441	wordpools/wasnorm_wordpool_less_exclusions.txt	LTP282	ltpFR	2	8	-1	TURKEY	1520	n/a	n/a	-1	1.0	1.0	1	upper	Verdana.ttf
1732.88	n/a	WORD	866440	wordpools/wasnorm_wordpool_less_exclusions.txt	LTP282	ltpFR	2	8	-1	HEDGE	699	n/a	n/a	-1	1.0	1.0	1	upper	Verdana.ttf
1736.88	n/a	WORD	868440	wordpools/wasnorm_wordpool_less_exclusions.txt	LTP282	ltpFR	2	8	-1	VENT	1556	n/a	n/a	-1	1.0	1.0	1	upper	Verdana.ttf
1741.096	n/a	WORD	870548	wordpools/wasnorm_wordpool_less_exclusions.txt	LTP282	ltpFR	2	8	-1	LUNG	850	n/a	n/a	-1	1.0	1.0	1	upper	Verdana.ttf
1744.994	n/a	WORD	872497	wordpools/wasnorm_wordpool_less_exclusions.txt	LTP282	ltpFR	2	8	-1	SHOP	1290	n/a	n/a	-1	1.0	1.0	1	upper	Verdana.ttf
1750.85	n/a	REC_START	875425	n/a	LTP282	ltpFR	2	8	n/a	n/a	n/a	n/a	n/a	n/a	n/a	n/a	n/a	n/a	n/a
1751.9	n/a	REC_WORD	875950	wordpools/wasnorm_wordpool_less_exclusions.txt	LTP282	ltpFR	2	8	-1	SHOP	1290	n/a	n/a	-1	n/a	n/a	n/a	n/a	n/a
1752.832	n/a	REC_WORD	876416	wordpools/wasnorm_wordpool_less_exclusions.txt	LTP282	ltpFR	2	8	-1	LUNG	850	n/a	n/a	-1	n/a	n/a	n/a	n/a	n/a
1753.712	n/a	REC_WORD	876856	wordpools/wasnorm_wordpool_less_exclusions.txt	LTP282	ltpFR	2	8	-1	VENT	1556	n/a	n/a	-1	n/a	n/a	n/a	n/a	n/a
1754.96	n/a	REC_WORD	877480	wordpools/wasnorm_wordpool_less_exclusions.txt	LTP282	ltpFR	2	8	-1	HEDGE	699	n/a	n/a	-1	n/a	n/a	n/a	n/a	n/a
1756.048	n/a	REC_WORD	878024	wordpools/wasnorm_wordpool_less_exclusions.txt	LTP282	ltpFR	2	8	-1	TURKEY	1520	n/a	n/a	-1	n/a	n/a	n/a	n/a	n/a
1757.454	n/a	REC_WORD	878727	wordpools/wasnorm_wordpool_less_exclusions.txt	LTP282	ltpFR	2	8	-1	CONTRACTOR	369	n/a	n/a	-1	n/a	n/a	n/a	n/a	n/a
1758.766	n/a	REC_WORD	879383	wordpools/wasnorm_wordpool_less_exclusions.txt	LTP282	ltpFR	2	8	-1	RAZOR	1171	n/a	n/a	-1	n/a	n/a	n/a	n/a	n/a
1759.834	n/a	REC_WORD	879917	wordpools/wasnorm_wordpool_less_exclusions.txt	LTP282	ltpFR	2	8	-1	EDITORIAL	517	n/a	n/a	-1	n/a	n/a	n/a	n/a	n/a
1760.834	n/a	REC_WORD_VV	880417	wordpools/wasnorm_wordpool_less_exclusions.txt	LTP282	ltpFR	2	8	n/a	<>	-1	n/a	n/a	n/a	n/a	n/a	n/a	n/a	n/a
1784.712	n/a	REC_WORD	892356	wordpools/wasnorm_wordpool_less_exclusions.txt	LTP282	ltpFR	2	8	-1	FRIEND	606	n/a	n/a	-1	n/a	n/a	n/a	n/a	n/a
1785.952	n/a	REC_WORD	892976	wordpools/wasnorm_wordpool_less_exclusions.txt	LTP282	ltpFR	2	8	-1	BOYFRIEND	162	n/a	n/a	-1	n/a	n/a	n/a	n/a	n/a
1796.998	n/a	REC_WORD	898499	wordpools/wasnorm_wordpool_less_exclusions.txt	LTP282	ltpFR	2	8	-1	HORSE	719	n/a	n/a	-1	n/a	n/a	n/a	n/a	n/a
1804.736	n/a	REC_WORD	902368	wordpools/wasnorm_wordpool_less_exclusions.txt	LTP282	ltpFR	2	8	-1	CARRIAGE	248	n/a	n/a	-1	n/a	n/a	n/a	n/a	n/a
1826.504	n/a	REST_REWET	913252	n/a	LTP282	ltpFR	2	8	n/a	n/a	n/a	n/a	n/a	n/a	n/a	n/a	n/a	n/a	n/a
2130.784	n/a	WORD	1065392	wordpools/wasnorm_wordpool_less_exclusions.txt	LTP282	ltpFR	2	9	-1	CLASS	318	n/a	n/a	-1	1.0	1.0	1	upper	Verdana.ttf
2134.664	n/a	WORD	1067332	wordpools/wasnorm_wordpool_less_exclusions.txt	LTP282	ltpFR	2	9	-1	BUTTON	207	n/a	n/a	-1	1.0	1.0	1	upper	Verdana.ttf
2138.848	n/a	WORD	1069424	wordpools/wasnorm_wordpool_less_exclusions.txt	LTP282	ltpFR	2	9	-1	KITTEN	780	n/a	n/a	-1	1.0	1.0	1	upper	Verdana.ttf
2142.83	n/a	WORD	1071415	wordpools/wasnorm_wordpool_less_exclusions.txt	LTP282	ltpFR	2	9	-1	CAR	241	n/a	n/a	-1	1.0	1.0	1	upper	Verdana.ttf
2147.046	n/a	WORD	1073523	wordpools/wasnorm_wordpool_less_exclusions.txt	LTP282	ltpFR	2	9	-1	BUCKET	184	n/a	n/a	-1	1.0	1.0	1	upper	Verdana.ttf
2151.244	n/a	WORD	1075622	wordpools/wasnorm_wordpool_less_exclusions.txt	LTP282	ltpFR	2	9	-1	WALRUS	1585	n/a	n/a	-1	1.0	1.0	1	upper	Verdana.ttf
2155.328	n/a	WORD	1077664	wordpools/wasnorm_wordpool_less_exclusions.txt	LTP282	ltpFR	2	9	-1	RADIATOR	1156	n/a	n/a	-1	1.0	1.0	1	upper	Verdana.ttf
2159.528	n/a	WORD	1079764	wordpools/wasnorm_wordpool_less_exclusions.txt	LTP282	ltpFR	2	9	-1	AUTOMOBILE	62	n/a	n/a	-1	1.0	1.0	1	upper	Verdana.ttf
2163.508	n/a	WORD	1081754	wordpools/wasnorm_wordpool_less_exclusions.txt	LTP282	ltpFR	2	9	-1	RACK	1154	n/a	n/a	-1	1.0	1.0	1	upper	Verdana.ttf
2167.506	n/a	WORD	1083753	wordpools/wasnorm_wordpool_less_exclusions.txt	LTP282	ltpFR	2	9	-1	TREAD	1499	n/a	n/a	-1	1.0	1.0	1	upper	Verdana.ttf
2171.52	n/a	WORD	1085760	wordpools/wasnorm_wordpool_less_exclusions.txt	LTP282	ltpFR	2	9	-1	OCEAN	970	n/a	n/a	-1	1.0	1.0	1	upper	Verdana.ttf
2175.706	n/a	WORD	1087853	wordpools/wasnorm_wordpool_less_exclusions.txt	LTP282	ltpFR	2	9	-1	FLANNEL	574	n/a	n/a	-1	1.0	1.0	1	upper	Verdana.ttf
2179.654	n/a	WORD	1089827	wordpools/wasnorm_wordpool_less_exclusions.txt	LTP282	ltpFR	2	9	-1	BUFFALO	186	n/a	n/a	-1	1.0	1.0	1	upper	Verdana.ttf
2183.77	n/a	WORD	1091885	wordpools/wasnorm_wordpool_less_exclusions.txt	LTP282	ltpFR	2	9	-1	TAIL	1430	n/a	n/a	-1	1.0	1.0	1	upper	Verdana.ttf
2187.734	n/a	WORD	1093867	wordpools/wasnorm_wordpool_less_exclusions.txt	LTP282	ltpFR	2	9	-1	CONTRACT	368	n/a	n/a	-1	1.0	1.0	1	upper	Verdana.ttf
2191.866	n/a	WORD	1095933	wordpools/wasnorm_wordpool_less_exclusions.txt	LTP282	ltpFR	2	9	-1	WINGS	1614	n/a	n/a	-1	1.0	1.0	1	upper	Verdana.ttf
2197.842	n/a	REC_START	1098921	n/a	LTP282	ltpFR	2	9	n/a	n/a	n/a	n/a	n/a	n/a	n/a	n/a	n/a	n/a	n/a
2198.882	n/a	REC_WORD	1099441	wordpools/wasnorm_wordpool_less_exclusions.txt	LTP282	ltpFR	2	9	-1	WINGS	1614	n/a	n/a	-1	n/a	n/a	n/a	n/a	n/a
2199.794	n/a	REC_WORD	1099897	wordpools/wasnorm_wordpool_less_exclusions.txt	LTP282	ltpFR	2	9	-1	CONTRACT	368	n/a	n/a	-1	n/a	n/a	n/a	n/a	n/a
2200.916	n/a	REC_WORD	1100458	wordpools/wasnorm_wordpool_less_exclusions.txt	LTP282	ltpFR	2	9	-1	BUFFALO	186	n/a	n/a	-1	n/a	n/a	n/a	n/a	n/a
2201.912	n/a	REC_WORD	1100956	wordpools/wasnorm_wordpool_less_exclusions.txt	LTP282	ltpFR	2	9	-1	TAIL	1430	n/a	n/a	-1	n/a	n/a	n/a	n/a	n/a
2203.084	n/a	REC_WORD	1101542	wordpools/wasnorm_wordpool_less_exclusions.txt	LTP282	ltpFR	2	9	-1	WALRUS	1585	n/a	n/a	-1	n/a	n/a	n/a	n/a	n/a
2204.27	n/a	REC_WORD	1102135	wordpools/wasnorm_wordpool_less_exclusions.txt	LTP282	ltpFR	2	9	-1	BUCKET	184	n/a	n/a	-1	n/a	n/a	n/a	n/a	n/a
2205.312	n/a	REC_WORD	1102656	wordpools/wasnorm_wordpool_less_exclusions.txt	LTP282	ltpFR	2	9	-1	KITTEN	780	n/a	n/a	-1	n/a	n/a	n/a	n/a	n/a
2206.63	n/a	REC_WORD	1103315	wordpools/wasnorm_wordpool_less_exclusions.txt	LTP282	ltpFR	2	9	-1	AUTOMOBILE	62	n/a	n/a	-1	n/a	n/a	n/a	n/a	n/a
2208.13	n/a	REC_WORD	1104065	wordpools/wasnorm_wordpool_less_exclusions.txt	LTP282	ltpFR	2	9	-1	CONTRACTOR	369	n/a	n/a	-1	n/a	n/a	n/a	n/a	n/a
2232.84	n/a	REC_WORD	1116420	wordpools/wasnorm_wordpool_less_exclusions.txt	LTP282	ltpFR	2	9	-1	BUTTON	207	n/a	n/a	-1	n/a	n/a	n/a	n/a	n/a
2256.642	n/a	REC_WORD	1128321	wordpools/wasnorm_wordpool_less_exclusions.txt	LTP282	ltpFR	2	9	-1	CONTRACT	368	n/a	n/a	-1	n/a	n/a	n/a	n/a	n/a
2278.918	n/a	WORD	1139459	wordpools/wasnorm_wordpool_less_exclusions.txt	LTP282	ltpFR	2	10	1	SWING	1421	n/a	n/a	0	0.422607421875	0.5869140625	0	upper	amplitud.ttf
2282.882	n/a	WORD	1141441	wordpools/wasnorm_wordpool_less_exclusions.txt	LTP282	ltpFR	2	10	1	SPOOL	1356	n/a	n/a	0	0.422607421875	0.5869140625	0	upper	amplitud.ttf
2286.746	n/a	WORD	1143373	wordpools/wasnorm_wordpool_less_exclusions.txt	LTP282	ltpFR	2	10	1	VETERAN	1561	n/a	n/a	1	0.422607421875	0.5869140625	0	upper	amplitud.ttf
2290.696	n/a	WORD	1145348	wordpools/wasnorm_wordpool_less_exclusions.txt	LTP282	ltpFR	2	10	1	ATMOSPHERE	54	n/a	n/a	1	0.422607421875	0.5869140625	0	upper	amplitud.ttf
2294.912	n/a	WORD	1147456	wordpools/wasnorm_wordpool_less_exclusions.txt	LTP282	ltpFR	2	10	1	CREEK	404	n/a	n/a	1	0.422607421875	0.5869140625	0	upper	amplitud.ttf
2299.078	n/a	WORD	1149539	wordpools/wasnorm_wordpool_less_exclusions.txt	LTP282	ltpFR	2	10	1	TREAT	1501	n/a	n/a	0	0.422607421875	0.5869140625	0	upper	amplitud.ttf
2303.01	n/a	WORD	1151505	wordpools/wasnorm_wordpool_less_exclusions.txt	LTP282	ltpFR	2	10	1	RANCH	1166	n/a	n/a	0	0.422607421875	0.5869140625	0	upper	amplitud.ttf
2306.856	n/a	WORD	1153428	wordpools/wasnorm_wordpool_less_exclusions.txt	LTP282	ltpFR	2	10	1	COLT	349	n/a	n/a	1	0.422607421875	0.5869140625	0	upper	amplitud.ttf
2311.074	n/a	WORD	1155537	wordpools/wasnorm_wordpool_less_exclusions.txt	LTP282	ltpFR	2	10	1	VILLAGE	1566	n/a	n/a	0	0.422607421875	0.5869140625	0	upper	amplitud.ttf
2315.206	n/a	WORD	1157603	wordpools/wasnorm_wordpool_less_exclusions.txt	LTP282	ltpFR	2	10	1	SCAPEGOAT	1244	n/a	n/a	0	0.422607421875	0.5869140625	0	upper	amplitud.ttf
2319.354	n/a	WORD	1159677	wordpools/wasnorm_wordpool_less_exclusions.txt	LTP282	ltpFR	2	10	1	MISSILE	900	n/a	n/a	0	0.422607421875	0.5869140625	0	upper	amplitud.ttf
2323.486	n/a	WORD	1161743	wordpools/wasnorm_wordpool_less_exclusions.txt	LTP282	ltpFR	2	10	1	HOME	712	n/a	n/a	0	0.422607421875	0.5869140625	0	upper	amplitud.ttf
2327.418	n/a	WORD	1163709	wordpools/wasnorm_wordpool_less_exclusions.txt	LTP282	ltpFR	2	10	1	TRACTOR	1493	n/a	n/a	0	0.422607421875	0.5869140625	0	upper	amplitud.ttf
2331.484	n/a	WORD	1165742	wordpools/wasnorm_wordpool_less_exclusions.txt	LTP282	ltpFR	2	10	1	SLIDE	1326	n/a	n/a	0	0.422607421875	0.5869140625	0	upper	amplitud.ttf
2335.65	n/a	WORD	1167825	wordpools/wasnorm_wordpool_less_exclusions.txt	LTP282	ltpFR	2	10	1	COMMUNITY	356	n/a	n/a	1	0.422607421875	0.5869140625	0	upper	amplitud.ttf
2339.514	n/a	WORD	1169757	wordpools/wasnorm_wordpool_less_exclusions.txt	LTP282	ltpFR	2	10	1	SUBURB	1399	n/a	n/a	1	0.422607421875	0.5869140625	0	upper	amplitud.ttf
2345.388	n/a	REC_START	1172694	n/a	LTP282	ltpFR	2	10	n/a	n/a	n/a	n/a	n/a	n/a	n/a	n/a	n/a	n/a	n/a
2346.226	n/a	REC_WORD	1173113	wordpools/wasnorm_wordpool_less_exclusions.txt	LTP282	ltpFR	2	10	1	SUBURB	1399	n/a	n/a	1	n/a	n/a	n/a	n/a	n/a
2347.126	n/a	REC_WORD	1173563	wordpools/wasnorm_wordpool_less_exclusions.txt	LTP282	ltpFR	2	10	1	COMMUNITY	356	n/a	n/a	1	n/a	n/a	n/a	n/a	n/a
2348.03	n/a	REC_WORD	1174015	wordpools/wasnorm_wordpool_less_exclusions.txt	LTP282	ltpFR	2	10	1	RANCH	1166	n/a	n/a	0	n/a	n/a	n/a	n/a	n/a
2351.418	n/a	REC_WORD	1175709	wordpools/wasnorm_wordpool_less_exclusions.txt	LTP282	ltpFR	2	10	1	SLIDE	1326	n/a	n/a	0	n/a	n/a	n/a	n/a	n/a
2352.902	n/a	REC_WORD	1176451	wordpools/wasnorm_wordpool_less_exclusions.txt	LTP282	ltpFR	2	10	1	VETERAN	1561	n/a	n/a	1	n/a	n/a	n/a	n/a	n/a
2365.584	n/a	REC_WORD	1182792	wordpools/wasnorm_wordpool_less_exclusions.txt	LTP282	ltpFR	2	10	1	SCAPEGOAT	1244	n/a	n/a	0	n/a	n/a	n/a	n/a	n/a
2370.478	n/a	REC_WORD	1185239	wordpools/wasnorm_wordpool_less_exclusions.txt	LTP282	ltpFR	2	10	0	STREAM	1392	n/a	n/a	1	n/a	n/a	n/a	n/a	n/a
2381.098	n/a	REC_WORD	1190549	wordpools/wasnorm_wordpool_less_exclusions.txt	LTP282	ltpFR	2	10	-1	BUFFALO	186	n/a	n/a	-1	n/a	n/a	n/a	n/a	n/a
2403.382	n/a	REC_WORD	1201691	wordpools/wasnorm_wordpool_less_exclusions.txt	LTP282	ltpFR	2	10	-1	RACK	1154	n/a	n/a	-1	n/a	n/a	n/a	n/a	n/a
2453.4	n/a	WORD	1226700	wordpools/wasnorm_wordpool_less_exclusions.txt	LTP282	ltpFR	2	11	1	EAR	513	n/a	n/a	1	0.422607421875	0.5869140625	0	upper	amplitud.ttf
2457.348	n/a	WORD	1228674	wordpools/wasnorm_wordpool_less_exclusions.txt	LTP282	ltpFR	2	11	1	PERSONNEL	1053	n/a	n/a	1	0.422607421875	0.5869140625	0	upper	amplitud.ttf
2461.482	n/a	WORD	1230741	wordpools/wasnorm_wordpool_less_exclusions.txt	LTP282	ltpFR	2	11	1	SKIN	1318	n/a	n/a	1	0.422607421875	0.5869140625	0	upper	amplitud.ttf
2465.38	n/a	WORD	1232690	wordpools/wasnorm_wordpool_less_exclusions.txt	LTP282	ltpFR	2	11	1	CORK	380	n/a	n/a	1	0.422607421875	0.5869140625	0	upper	amplitud.ttf
2469.41	n/a	WORD	1234705	wordpools/wasnorm_wordpool_less_exclusions.txt	LTP282	ltpFR	2	11	1	CHAMPAGNE	278	n/a	n/a	0	0.422607421875	0.5869140625	0	upper	amplitud.ttf
2473.326	n/a	WORD	1236663	wordpools/wasnorm_wordpool_less_exclusions.txt	LTP282	ltpFR	2	11	1	RAISIN	1163	n/a	n/a	1	0.422607421875	0.5869140625	0	upper	amplitud.ttf
2477.442	n/a	WORD	1238721	wordpools/wasnorm_wordpool_less_exclusions.txt	LTP282	ltpFR	2	11	1	MONGOOSE	909	n/a	n/a	1	0.422607421875	0.5869140625	0	upper	amplitud.ttf
2481.508	n/a	WORD	1240754	wordpools/wasnorm_wordpool_less_exclusions.txt	LTP282	ltpFR	2	11	1	GOOSE	649	n/a	n/a	1	0.422607421875	0.5869140625	0	upper	amplitud.ttf
2485.69	n/a	WORD	1242845	wordpools/wasnorm_wordpool_less_exclusions.txt	LTP282	ltpFR	2	11	1	VESSEL	1558	n/a	n/a	0	0.422607421875	0.5869140625	0	upper	amplitud.ttf
2489.554	n/a	WORD	1244777	wordpools/wasnorm_wordpool_less_exclusions.txt	LTP282	ltpFR	2	11	1	JAM	748	n/a	n/a	0	0.422607421875	0.5869140625	0	upper	amplitud.ttf
2493.57	n/a	WORD	1246785	wordpools/wasnorm_wordpool_less_exclusions.txt	LTP282	ltpFR	2	11	1	PLIERS	1089	n/a	n/a	0	0.422607421875	0.5869140625	0	upper	amplitud.ttf
2497.736	n/a	WORD	1248868	wordpools/wasnorm_wordpool_less_exclusions.txt	LTP282	ltpFR	2	11	1	NAVIGATOR	938	n/a	n/a	1	0.422607421875	0.5869140625	0	upper	amplitud.ttf
2501.836	n/a	WORD	1250918	wordpools/wasnorm_wordpool_less_exclusions.txt	LTP282	ltpFR	2	11	1	QUEEN	1149	n/a	n/a	1	0.422607421875	0.5869140625	0	upper	amplitud.ttf
2505.7	n/a	WORD	1252850	wordpools/wasnorm_wordpool_less_exclusions.txt	LTP282	ltpFR	2	11	1	KING	777	n/a	n/a	1	0.422607421875	0.5869140625	0	upper	amplitud.ttf
2509.798	n/a	WORD	1254899	wordpools/wasnorm_wordpool_less_exclusions.txt	LTP282	ltpFR	2	11	1	CHISEL	305	n/a	n/a	0	0.422607421875	0.5869140625	0	upper	amplitud.ttf
2513.966	n/a	WORD	1256983	wordpools/wasnorm_wordpool_less_exclusions.txt	LTP282	ltpFR	2	11	1	THIGH	1457	n/a	n/a	1	0.422607421875	0.5869140625	0	upper	amplitud.ttf
2519.688	n/a	REC_START	1259844	n/a	LTP282	ltpFR	2	11	n/a	n/a	n/a	n/a	n/a	n/a	n/a	n/a	n/a	n/a	n/a
2520.78	n/a	REC_WORD	1260390	wordpools/wasnorm_wordpool_less_exclusions.txt	LTP282	ltpFR	2	11	1	THIGH	1457	n/a	n/a	1	n/a	n/a	n/a	n/a	n/a
2521.604	n/a	REC_WORD	1260802	wordpools/wasnorm_wordpool_less_exclusions.txt	LTP282	ltpFR	2	11	1	EAR	513	n/a	n/a	1	n/a	n/a	n/a	n/a	n/a
2524.72	n/a	REC_WORD	1262360	wordpools/wasnorm_wordpool_less_exclusions.txt	LTP282	ltpFR	2	11	1	PLIERS	1089	n/a	n/a	0	n/a	n/a	n/a	n/a	n/a
2526.562	n/a	REC_WORD	1263281	wordpools/wasnorm_wordpool_less_exclusions.txt	LTP282	ltpFR	2	11	1	CHISEL	305	n/a	n/a	0	n/a	n/a	n/a	n/a	n/a
2527.49	n/a	REC_WORD	1263745	wordpools/wasnorm_wordpool_less_exclusions.txt	LTP282	ltpFR	2	11	1	KING	777	n/a	n/a	1	n/a	n/a	n/a	n/a	n/a
2528.298	n/a	REC_WORD	1264149	wordpools/wasnorm_wordpool_less_exclusions.txt	LTP282	ltpFR	2	11	1	QUEEN	1149	n/a	n/a	1	n/a	n/a	n/a	n/a	n/a
2529.074	n/a	REC_WORD	1264537	wordpools/wasnorm_wordpool_less_exclusions.txt	LTP282	ltpFR	2	11	1	CHAMPAGNE	278	n/a	n/a	0	n/a	n/a	n/a	n/a	n/a
2530.63	n/a	REC_WORD	1265315	wordpools/wasnorm_wordpool_less_exclusions.txt	LTP282	ltpFR	2	11	1	CORK	380	n/a	n/a	1	n/a	n/a	n/a	n/a	n/a
2531.608	n/a	REC_WORD	1265804	wordpools/wasnorm_wordpool_less_exclusions.txt	LTP282	ltpFR	2	11	1	RAISIN	1163	n/a	n/a	1	n/a	n/a	n/a	n/a	n/a
2532.696	n/a	REC_WORD	1266348	wordpools/wasnorm_wordpool_less_exclusions.txt	LTP282	ltpFR	2	11	1	JAM	748	n/a	n/a	0	n/a	n/a	n/a	n/a	n/a
2536.024	n/a	REC_WORD	1268012	wordpools/wasnorm_wordpool_less_exclusions.txt	LTP282	ltpFR	2	11	1	THIGH	1457	n/a	n/a	1	n/a	n/a	n/a	n/a	n/a
2537.184	n/a	REC_WORD	1268592	wordpools/wasnorm_wordpool_less_exclusions.txt	LTP282	ltpFR	2	11	1	EAR	513	n/a	n/a	1	n/a	n/a	n/a	n/a	n/a
2554.564	n/a	REC_WORD	1277282	wordpools/wasnorm_wordpool_less_exclusions.txt	LTP282	ltpFR	2	11	1	VESSEL	1558	n/a	n/a	0	n/a	n/a	n/a	n/a	n/a
2612.19	n/a	WORD	1306095	wordpools/wasnorm_wordpool_less_exclusions.txt	LTP282	ltpFR	2	12	1	CHAMBER	277	n/a	n/a	0	0.422607421875	0.5869140625	0	upper	amplitud.ttf
2616.322	n/a	WORD	1308161	wordpools/wasnorm_wordpool_less_exclusions.txt	LTP282	ltpFR	2	12	1	SEAGULL	1261	n/a	n/a	1	0.422607421875	0.5869140625	0	upper	amplitud.ttf
2620.438	n/a	WORD	1310219	wordpools/wasnorm_wordpool_less_exclusions.txt	LTP282	ltpFR	2	12	1	VAULT	1550	n/a	n/a	0	0.422607421875	0.5869140625	0	upper	amplitud.ttf
2624.336	n/a	WORD	1312168	wordpools/wasnorm_wordpool_less_exclusions.txt	LTP282	ltpFR	2	12	0	KIWI	781	n/a	n/a	0	0.57763671875	0.412841796875	1	lower	zerothre.ttf
2628.352	n/a	WORD	1314176	wordpools/wasnorm_wordpool_less_exclusions.txt	LTP282	ltpFR	2	12	0	SWATTER	1418	n/a	n/a	0	0.57763671875	0.412841796875	1	lower	zerothre.ttf
2632.518	n/a	WORD	1316259	wordpools/wasnorm_wordpool_less_exclusions.txt	LTP282	ltpFR	2	12	0	UMPIRE	1535	n/a	n/a	1	0.57763671875	0.412841796875	1	lower	zerothre.ttf
2636.366	n/a	WORD	1318183	wordpools/wasnorm_wordpool_less_exclusions.txt	LTP282	ltpFR	2	12	1	CLIPPERS	324	n/a	n/a	0	0.422607421875	0.5869140625	0	upper	amplitud.ttf
2640.498	n/a	WORD	1320249	wordpools/wasnorm_wordpool_less_exclusions.txt	LTP282	ltpFR	2	12	1	NEST	945	n/a	n/a	0	0.422607421875	0.5869140625	0	upper	amplitud.ttf
2644.396	n/a	WORD	1322198	wordpools/wasnorm_wordpool_less_exclusions.txt	LTP282	ltpFR	2	12	0	PILOT	1070	n/a	n/a	1	0.57763671875	0.412841796875	1	lower	zerothre.ttf
2648.528	n/a	WORD	1324264	wordpools/wasnorm_wordpool_less_exclusions.txt	LTP282	ltpFR	2	12	0	KANGAROO	768	n/a	n/a	1	0.57763671875	0.412841796875	1	lower	zerothre.ttf
2652.41	n/a	WORD	1326205	wordpools/wasnorm_wordpool_less_exclusions.txt	LTP282	ltpFR	2	12	0	RIVER	1194	n/a	n/a	1	0.57763671875	0.412841796875	1	lower	zerothre.ttf
2656.46	n/a	WORD	1328230	wordpools/wasnorm_wordpool_less_exclusions.txt	LTP282	ltpFR	2	12	0	SPONGE	1355	n/a	n/a	0	0.57763671875	0.412841796875	1	lower	zerothre.ttf
2660.592	n/a	WORD	1330296	wordpools/wasnorm_wordpool_less_exclusions.txt	LTP282	ltpFR	2	12	0	PICTURE	1061	n/a	n/a	0	0.57763671875	0.412841796875	1	lower	zerothre.ttf
2664.774	n/a	WORD	1332387	wordpools/wasnorm_wordpool_less_exclusions.txt	LTP282	ltpFR	2	12	1	CAMERA	224	n/a	n/a	0	0.422607421875	0.5869140625	0	upper	amplitud.ttf
2668.872	n/a	WORD	1334436	wordpools/wasnorm_wordpool_less_exclusions.txt	LTP282	ltpFR	2	12	1	ZEBRA	1635	n/a	n/a	1	0.422607421875	0.5869140625	0	upper	amplitud.ttf
2672.872	n/a	WORD	1336436	wordpools/wasnorm_wordpool_less_exclusions.txt	LTP282	ltpFR	2	12	1	CATTLE	261	n/a	n/a	1	0.422607421875	0.5869140625	0	upper	amplitud.ttf
2678.628	n/a	REC_START	1339314	n/a	LTP282	ltpFR	2	12	n/a	n/a	n/a	n/a	n/a	n/a	n/a	n/a	n/a	n/a	n/a
2679.78	n/a	REC_WORD	1339890	wordpools/wasnorm_wordpool_less_exclusions.txt	LTP282	ltpFR	2	12	1	CATTLE	261	n/a	n/a	1	n/a	n/a	n/a	n/a	n/a
2680.682	n/a	REC_WORD	1340341	wordpools/wasnorm_wordpool_less_exclusions.txt	LTP282	ltpFR	2	12	1	ZEBRA	1635	n/a	n/a	1	n/a	n/a	n/a	n/a	n/a
2681.618	n/a	REC_WORD	1340809	wordpools/wasnorm_wordpool_less_exclusions.txt	LTP282	ltpFR	2	12	1	SEAGULL	1261	n/a	n/a	1	n/a	n/a	n/a	n/a	n/a
2683.922	n/a	REC_WORD	1341961	wordpools/wasnorm_wordpool_less_exclusions.txt	LTP282	ltpFR	2	12	1	CAMERA	224	n/a	n/a	0	n/a	n/a	n/a	n/a	n/a
2690.06	n/a	REC_WORD	1345030	wordpools/wasnorm_wordpool_less_exclusions.txt	LTP282	ltpFR	2	12	0	KIWI	781	n/a	n/a	0	n/a	n/a	n/a	n/a	n/a
2695.824	n/a	REC_WORD	1347912	wordpools/wasnorm_wordpool_less_exclusions.txt	LTP282	ltpFR	2	12	0	PILOT	1070	n/a	n/a	1	n/a	n/a	n/a	n/a	n/a
2703.234	n/a	REC_WORD	1351617	wordpools/wasnorm_wordpool_less_exclusions.txt	LTP282	ltpFR	2	12	0	SPONGE	1355	n/a	n/a	0	n/a	n/a	n/a	n/a	n/a
2734.69	n/a	REC_WORD	1367345	wordpools/wasnorm_wordpool_less_exclusions.txt	LTP282	ltpFR	2	12	-1	WINGS	1614	n/a	n/a	-1	n/a	n/a	n/a	n/a	n/a
2749.836	n/a	REC_WORD	1374918	wordpools/wasnorm_wordpool_less_exclusions.txt	LTP282	ltpFR	2	12	0	SWATTER	1418	n/a	n/a	0	n/a	n/a	n/a	n/a	n/a
2776.318	n/a	WORD	1388159	wordpools/wasnorm_wordpool_less_exclusions.txt	LTP282	ltpFR	2	13	1	BISON	131	n/a	n/a	1	0.422607421875	0.5869140625	0	upper	amplitud.ttf
2780.166	n/a	WORD	1390083	wordpools/wasnorm_wordpool_less_exclusions.txt	LTP282	ltpFR	2	13	1	WOLF	1619	n/a	n/a	1	0.422607421875	0.5869140625	0	upper	amplitud.ttf
2783.998	n/a	WORD	1391999	wordpools/wasnorm_wordpool_less_exclusions.txt	LTP282	ltpFR	2	13	1	DRAWER	493	n/a	n/a	0	0.422607421875	0.5869140625	0	upper	amplitud.ttf
2787.912	n/a	WORD	1393956	wordpools/wasnorm_wordpool_less_exclusions.txt	LTP282	ltpFR	2	13	1	BEAVER	109	n/a	n/a	1	0.422607421875	0.5869140625	0	upper	amplitud.ttf
2791.894	n/a	WORD	1395947	wordpools/wasnorm_wordpool_less_exclusions.txt	LTP282	ltpFR	2	13	1	CAT	257	n/a	n/a	1	0.422607421875	0.5869140625	0	upper	amplitud.ttf
2795.892	n/a	WORD	1397946	wordpools/wasnorm_wordpool_less_exclusions.txt	LTP282	ltpFR	2	13	1	GALLON	618	n/a	n/a	0	0.422607421875	0.5869140625	0	upper	amplitud.ttf
2799.806	n/a	WORD	1399903	wordpools/wasnorm_wordpool_less_exclusions.txt	LTP282	ltpFR	2	13	1	WELL	1600	n/a	n/a	0	0.422607421875	0.5869140625	0	upper	amplitud.ttf
2803.74	n/a	WORD	1401870	wordpools/wasnorm_wordpool_less_exclusions.txt	LTP282	ltpFR	2	13	1	HOSE	720	n/a	n/a	0	0.422607421875	0.5869140625	0	upper	amplitud.ttf
2807.77	n/a	WORD	1403885	wordpools/wasnorm_wordpool_less_exclusions.txt	LTP282	ltpFR	2	13	1	RABBIT	1152	n/a	n/a	1	0.422607421875	0.5869140625	0	upper	amplitud.ttf
2811.954	n/a	WORD	1405977	wordpools/wasnorm_wordpool_less_exclusions.txt	LTP282	ltpFR	2	13	1	TORTOISE	1486	n/a	n/a	1	0.422607421875	0.5869140625	0	upper	amplitud.ttf
2815.818	n/a	WORD	1407909	wordpools/wasnorm_wordpool_less_exclusions.txt	LTP282	ltpFR	2	13	1	HERB	704	n/a	n/a	1	0.422607421875	0.5869140625	0	upper	amplitud.ttf
2820.034	n/a	WORD	1410017	wordpools/wasnorm_wordpool_less_exclusions.txt	LTP282	ltpFR	2	13	1	FOREHEAD	592	n/a	n/a	1	0.422607421875	0.5869140625	0	upper	amplitud.ttf
2824.184	n/a	WORD	1412092	wordpools/wasnorm_wordpool_less_exclusions.txt	LTP282	ltpFR	2	13	1	TIDE	1465	n/a	n/a	1	0.422607421875	0.5869140625	0	upper	amplitud.ttf
2828.166	n/a	WORD	1414083	wordpools/wasnorm_wordpool_less_exclusions.txt	LTP282	ltpFR	2	13	1	BROOK	177	n/a	n/a	1	0.422607421875	0.5869140625	0	upper	amplitud.ttf
2832.014	n/a	WORD	1416007	wordpools/wasnorm_wordpool_less_exclusions.txt	LTP282	ltpFR	2	13	1	PERFUME	1049	n/a	n/a	0	0.422607421875	0.5869140625	0	upper	amplitud.ttf
2836.18	n/a	WORD	1418090	wordpools/wasnorm_wordpool_less_exclusions.txt	LTP282	ltpFR	2	13	1	SHOWER	1296	n/a	n/a	0	0.422607421875	0.5869140625	0	upper	amplitud.ttf
2842.236	n/a	REC_START	1421118	n/a	LTP282	ltpFR	2	13	n/a	n/a	n/a	n/a	n/a	n/a	n/a	n/a	n/a	n/a	n/a
2843.094	n/a	REC_WORD	1421547	wordpools/wasnorm_wordpool_less_exclusions.txt	LTP282	ltpFR	2	13	1	SHOWER	1296	n/a	n/a	0	n/a	n/a	n/a	n/a	n/a
2844.924	n/a	REC_WORD	1422462	wordpools/wasnorm_wordpool_less_exclusions.txt	LTP282	ltpFR	2	13	1	BROOK	177	n/a	n/a	1	n/a	n/a	n/a	n/a	n/a
2847.374	n/a	REC_WORD	1423687	wordpools/wasnorm_wordpool_less_exclusions.txt	LTP282	ltpFR	2	13	1	TIDE	1465	n/a	n/a	1	n/a	n/a	n/a	n/a	n/a
2848.278	n/a	REC_WORD	1424139	wordpools/wasnorm_wordpool_less_exclusions.txt	LTP282	ltpFR	2	13	1	PERFUME	1049	n/a	n/a	0	n/a	n/a	n/a	n/a	n/a
2851.318	n/a	REC_WORD	1425659	wordpools/wasnorm_wordpool_less_exclusions.txt	LTP282	ltpFR	2	13	1	WELL	1600	n/a	n/a	0	n/a	n/a	n/a	n/a	n/a
2852.542	n/a	REC_WORD	1426271	wordpools/wasnorm_wordpool_less_exclusions.txt	LTP282	ltpFR	2	13	1	GALLON	618	n/a	n/a	0	n/a	n/a	n/a	n/a	n/a
2858.192	n/a	REC_WORD	1429096	wordpools/wasnorm_wordpool_less_exclusions.txt	LTP282	ltpFR	2	13	1	CAT	257	n/a	n/a	1	n/a	n/a	n/a	n/a	n/a
2859.238	n/a	REC_WORD	1429619	wordpools/wasnorm_wordpool_less_exclusions.txt	LTP282	ltpFR	2	13	1	BISON	131	n/a	n/a	1	n/a	n/a	n/a	n/a	n/a
2860.624	n/a	REC_WORD	1430312	wordpools/wasnorm_wordpool_less_exclusions.txt	LTP282	ltpFR	2	13	1	TORTOISE	1486	n/a	n/a	1	n/a	n/a	n/a	n/a	n/a
2862.05	n/a	REC_WORD	1431025	wordpools/wasnorm_wordpool_less_exclusions.txt	LTP282	ltpFR	2	13	1	WOLF	1619	n/a	n/a	1	n/a	n/a	n/a	n/a	n/a
2968.87	n/a	WORD	1484435	wordpools/wasnorm_wordpool_less_exclusions.txt	LTP282	ltpFR	2	14	1	MAT	877	n/a	n/a	0	0.422607421875	0.5869140625	0	upper	amplitud.ttf
2973.07	n/a	WORD	1486535	wordpools/wasnorm_wordpool_less_exclusions.txt	LTP282	ltpFR	2	14	1	HUT	729	n/a	n/a	0	0.422607421875	0.5869140625	0	upper	amplitud.ttf
2977.1	n/a	WORD	1488550	wordpools/wasnorm_wordpool_less_exclusions.txt	LTP282	ltpFR	2	14	0	STRAW	1390	n/a	n/a	0	0.57763671875	0.412841796875	1	lower	zerothre.ttf
2980.95	n/a	WORD	1490475	wordpools/wasnorm_wordpool_less_exclusions.txt	LTP282	ltpFR	2	14	0	SCOTCH	1251	n/a	n/a	0	0.57763671875	0.412841796875	1	lower	zerothre.ttf
2985.048	n/a	WORD	1492524	wordpools/wasnorm_wordpool_less_exclusions.txt	LTP282	ltpFR	2	14	1	UNIVERSE	1540	n/a	n/a	0	0.422607421875	0.5869140625	0	upper	amplitud.ttf
2988.878	n/a	WORD	1494439	wordpools/wasnorm_wordpool_less_exclusions.txt	LTP282	ltpFR	2	14	1	CRAB	397	n/a	n/a	1	0.422607421875	0.5869140625	0	upper	amplitud.ttf
2992.726	n/a	WORD	1496363	wordpools/wasnorm_wordpool_less_exclusions.txt	LTP282	ltpFR	2	14	1	VOLCANO	1575	n/a	n/a	1	0.422607421875	0.5869140625	0	upper	amplitud.ttf
2996.576	n/a	WORD	1498288	wordpools/wasnorm_wordpool_less_exclusions.txt	LTP282	ltpFR	2	14	1	STAPLER	1372	n/a	n/a	0	0.422607421875	0.5869140625	0	upper	amplitud.ttf
3000.59	n/a	WORD	1500295	wordpools/wasnorm_wordpool_less_exclusions.txt	LTP282	ltpFR	2	14	1	RADIO	1157	n/a	n/a	0	0.422607421875	0.5869140625	0	upper	amplitud.ttf
3004.472	n/a	WORD	1502236	wordpools/wasnorm_wordpool_less_exclusions.txt	LTP282	ltpFR	2	14	1	STEREO	1378	n/a	n/a	0	0.422607421875	0.5869140625	0	upper	amplitud.ttf
3008.672	n/a	WORD	1504336	wordpools/wasnorm_wordpool_less_exclusions.txt	LTP282	ltpFR	2	14	0	MOON	914	n/a	n/a	1	0.57763671875	0.412841796875	1	lower	zerothre.ttf
3012.754	n/a	WORD	1506377	wordpools/wasnorm_wordpool_less_exclusions.txt	LTP282	ltpFR	2	14	0	STOMACH	1384	n/a	n/a	1	0.57763671875	0.412841796875	1	lower	zerothre.ttf
3016.652	n/a	WORD	1508326	wordpools/wasnorm_wordpool_less_exclusions.txt	LTP282	ltpFR	2	14	0	THORN	1459	n/a	n/a	0	0.57763671875	0.412841796875	1	lower	zerothre.ttf
3020.65	n/a	WORD	1510325	wordpools/wasnorm_wordpool_less_exclusions.txt	LTP282	ltpFR	2	14	0	MOUSE	925	n/a	n/a	0	0.57763671875	0.412841796875	1	lower	zerothre.ttf
3024.532	n/a	WORD	1512266	wordpools/wasnorm_wordpool_less_exclusions.txt	LTP282	ltpFR	2	14	0	PAINTER	1004	n/a	n/a	1	0.57763671875	0.412841796875	1	lower	zerothre.ttf
3028.614	n/a	WORD	1514307	wordpools/wasnorm_wordpool_less_exclusions.txt	LTP282	ltpFR	2	14	0	SCALLOP	1242	n/a	n/a	0	0.57763671875	0.412841796875	1	lower	zerothre.ttf
3034.572	n/a	REC_START	1517286	n/a	LTP282	ltpFR	2	14	n/a	n/a	n/a	n/a	n/a	n/a	n/a	n/a	n/a	n/a	n/a
3035.948	n/a	REC_WORD	1517974	wordpools/wasnorm_wordpool_less_exclusions.txt	LTP282	ltpFR	2	14	0	SCALLOP	1242	n/a	n/a	0	n/a	n/a	n/a	n/a	n/a
3037.066	n/a	REC_WORD	1518533	wordpools/wasnorm_wordpool_less_exclusions.txt	LTP282	ltpFR	2	14	0	PAINTER	1004	n/a	n/a	1	n/a	n/a	n/a	n/a	n/a
3037.982	n/a	REC_WORD	1518991	wordpools/wasnorm_wordpool_less_exclusions.txt	LTP282	ltpFR	2	14	0	MOON	914	n/a	n/a	1	n/a	n/a	n/a	n/a	n/a
3041.566	n/a	REC_WORD	1520783	wordpools/wasnorm_wordpool_less_exclusions.txt	LTP282	ltpFR	2	14	1	CRAB	397	n/a	n/a	1	n/a	n/a	n/a	n/a	n/a
3061.226	n/a	REC_WORD	1530613	wordpools/wasnorm_wordpool_less_exclusions.txt	LTP282	ltpFR	2	14	1	HUT	729	n/a	n/a	0	n/a	n/a	n/a	n/a	n/a
3062.236	n/a	REC_WORD	1531118	wordpools/wasnorm_wordpool_less_exclusions.txt	LTP282	ltpFR	2	14	1	MAT	877	n/a	n/a	0	n/a	n/a	n/a	n/a	n/a
3082.84	n/a	REC_WORD	1541420	wordpools/wasnorm_wordpool_less_exclusions.txt	LTP282	ltpFR	2	14	1	GALAXY	617	n/a	n/a	0	n/a	n/a	n/a	n/a	n/a
3083.84	n/a	REC_WORD_VV	1541920	wordpools/wasnorm_wordpool_less_exclusions.txt	LTP282	ltpFR	2	14	n/a	<>	-1	n/a	n/a	n/a	n/a	n/a	n/a	n/a	n/a
3086.554	n/a	REC_WORD	1543277	wordpools/wasnorm_wordpool_less_exclusions.txt	LTP282	ltpFR	2	14	1	UNIVERSE	1540	n/a	n/a	0	n/a	n/a	n/a	n/a	n/a
3087.554	n/a	REC_WORD_VV	1543777	wordpools/wasnorm_wordpool_less_exclusions.txt	LTP282	ltpFR	2	14	n/a	<>	-1	n/a	n/a	n/a	n/a	n/a	n/a	n/a	n/a
3101.292	n/a	REC_WORD	1550646	wordpools/wasnorm_wordpool_less_exclusions.txt	LTP282	ltpFR	2	14	0	STRAW	1390	n/a	n/a	0	n/a	n/a	n/a	n/a	n/a
3107.34	n/a	REC_WORD	1553670	wordpools/wasnorm_wordpool_less_exclusions.txt	LTP282	ltpFR	2	14	0	MOUSE	925	n/a	n/a	0	n/a	n/a	n/a	n/a	n/a
3113.79	n/a	WORD	1556895	wordpools/wasnorm_wordpool_less_exclusions.txt	LTP282	ltpFR	2	15	0	WHALE	1601	n/a	n/a	1	0.57763671875	0.412841796875	1	lower	zerothre.ttf
3117.638	n/a	WORD	1558819	wordpools/wasnorm_wordpool_less_exclusions.txt	LTP282	ltpFR	2	15	0	SHORTS	1293	n/a	n/a	0	0.57763671875	0.412841796875	1	lower	zerothre.ttf
3121.736	n/a	WORD	1560868	wordpools/wasnorm_wordpool_less_exclusions.txt	LTP282	ltpFR	2	15	0	SCREW	1254	n/a	n/a	0	0.57763671875	0.412841796875	1	lower	zerothre.ttf
3125.92	n/a	WORD	1562960	wordpools/wasnorm_wordpool_less_exclusions.txt	LTP282	ltpFR	2	15	0	TOOL	1480	n/a	n/a	0	0.57763671875	0.412841796875	1	lower	zerothre.ttf
3129.986	n/a	WORD	1564993	wordpools/wasnorm_wordpool_less_exclusions.txt	LTP282	ltpFR	2	15	1	SOFTBALL	1343	n/a	n/a	0	0.422607421875	0.5869140625	0	upper	amplitud.ttf
3133.834	n/a	WORD	1566917	wordpools/wasnorm_wordpool_less_exclusions.txt	LTP282	ltpFR	2	15	1	REPORT	1184	n/a	n/a	0	0.422607421875	0.5869140625	0	upper	amplitud.ttf
3137.95	n/a	WORD	1568975	wordpools/wasnorm_wordpool_less_exclusions.txt	LTP282	ltpFR	2	15	0	VINE	1568	n/a	n/a	0	0.57763671875	0.412841796875	1	lower	zerothre.ttf
3141.83	n/a	WORD	1570915	wordpools/wasnorm_wordpool_less_exclusions.txt	LTP282	ltpFR	2	15	0	RECIPE	1175	n/a	n/a	0	0.57763671875	0.412841796875	1	lower	zerothre.ttf
3145.712	n/a	WORD	1572856	wordpools/wasnorm_wordpool_less_exclusions.txt	LTP282	ltpFR	2	15	0	PERCH	1048	n/a	n/a	0	0.57763671875	0.412841796875	1	lower	zerothre.ttf
3149.912	n/a	WORD	1574956	wordpools/wasnorm_wordpool_less_exclusions.txt	LTP282	ltpFR	2	15	0	DENIM	446	n/a	n/a	0	0.57763671875	0.412841796875	1	lower	zerothre.ttf
3154.028	n/a	WORD	1577014	wordpools/wasnorm_wordpool_less_exclusions.txt	LTP282	ltpFR	2	15	1	DUNE	506	n/a	n/a	1	0.422607421875	0.5869140625	0	upper	amplitud.ttf
3157.858	n/a	WORD	1578929	wordpools/wasnorm_wordpool_less_exclusions.txt	LTP282	ltpFR	2	15	1	SERVER	1272	n/a	n/a	1	0.422607421875	0.5869140625	0	upper	amplitud.ttf
3161.89	n/a	WORD	1580945	wordpools/wasnorm_wordpool_less_exclusions.txt	LTP282	ltpFR	2	15	1	WEED	1599	n/a	n/a	1	0.422607421875	0.5869140625	0	upper	amplitud.ttf
3165.94	n/a	WORD	1582970	wordpools/wasnorm_wordpool_less_exclusions.txt	LTP282	ltpFR	2	15	1	STEM	1376	n/a	n/a	1	0.422607421875	0.5869140625	0	upper	amplitud.ttf
3169.802	n/a	WORD	1584901	wordpools/wasnorm_wordpool_less_exclusions.txt	LTP282	ltpFR	2	15	1	OWNER	993	n/a	n/a	1	0.422607421875	0.5869140625	0	upper	amplitud.ttf
3173.802	n/a	WORD	1586901	wordpools/wasnorm_wordpool_less_exclusions.txt	LTP282	ltpFR	2	15	1	TYPIST	1532	n/a	n/a	1	0.422607421875	0.5869140625	0	upper	amplitud.ttf
3179.71	n/a	REC_START	1589855	n/a	LTP282	ltpFR	2	15	n/a	n/a	n/a	n/a	n/a	n/a	n/a	n/a	n/a	n/a	n/a
3180.518	n/a	REC_WORD	1590259	wordpools/wasnorm_wordpool_less_exclusions.txt	LTP282	ltpFR	2	15	1	TYPIST	1532	n/a	n/a	1	n/a	n/a	n/a	n/a	n/a
3181.398	n/a	REC_WORD	1590699	wordpools/wasnorm_wordpool_less_exclusions.txt	LTP282	ltpFR	2	15	1	OWNER	993	n/a	n/a	1	n/a	n/a	n/a	n/a	n/a
3181.982	n/a	REC_WORD	1590991	wordpools/wasnorm_wordpool_less_exclusions.txt	LTP282	ltpFR	2	15	1	SERVER	1272	n/a	n/a	1	n/a	n/a	n/a	n/a	n/a
3183.082	n/a	REC_WORD	1591541	wordpools/wasnorm_wordpool_less_exclusions.txt	LTP282	ltpFR	2	15	1	WEED	1599	n/a	n/a	1	n/a	n/a	n/a	n/a	n/a
3185.618	n/a	REC_WORD	1592809	wordpools/wasnorm_wordpool_less_exclusions.txt	LTP282	ltpFR	2	15	1	STEM	1376	n/a	n/a	1	n/a	n/a	n/a	n/a	n/a
3190.55	n/a	REC_WORD	1595275	wordpools/wasnorm_wordpool_less_exclusions.txt	LTP282	ltpFR	2	15	1	DUNE	506	n/a	n/a	1	n/a	n/a	n/a	n/a	n/a
3196.488	n/a	REC_WORD	1598244	wordpools/wasnorm_wordpool_less_exclusions.txt	LTP282	ltpFR	2	15	0	SHORTS	1293	n/a	n/a	0	n/a	n/a	n/a	n/a	n/a
3221.522	n/a	REC_WORD	1610761	wordpools/wasnorm_wordpool_less_exclusions.txt	LTP282	ltpFR	2	15	0	SCALLOP	1242	n/a	n/a	0	n/a	n/a	n/a	n/a	n/a
3222.522	n/a	REC_WORD_VV	1611261	wordpools/wasnorm_wordpool_less_exclusions.txt	LTP282	ltpFR	2	15	n/a	<>	-1	n/a	n/a	n/a	n/a	n/a	n/a	n/a	n/a
3290.364	n/a	WORD	1645182	wordpools/wasnorm_wordpool_less_exclusions.txt	LTP282	ltpFR	2	16	-1	RULER	1216	n/a	n/a	-1	1.0	1.0	1	upper	Verdana.ttf
3294.246	n/a	WORD	1647123	wordpools/wasnorm_wordpool_less_exclusions.txt	LTP282	ltpFR	2	16	-1	WAIST	1579	n/a	n/a	-1	1.0	1.0	1	upper	Verdana.ttf
3298.112	n/a	WORD	1649056	wordpools/wasnorm_wordpool_less_exclusions.txt	LTP282	ltpFR	2	16	-1	CABIN	211	n/a	n/a	-1	1.0	1.0	1	upper	Verdana.ttf
3302.094	n/a	WORD	1651047	wordpools/wasnorm_wordpool_less_exclusions.txt	LTP282	ltpFR	2	16	-1	ACROBAT	4	n/a	n/a	-1	1.0	1.0	1	upper	Verdana.ttf
3305.958	n/a	WORD	1652979	wordpools/wasnorm_wordpool_less_exclusions.txt	LTP282	ltpFR	2	16	-1	SILVERWARE	1308	n/a	n/a	-1	1.0	1.0	1	upper	Verdana.ttf
3309.922	n/a	WORD	1654961	wordpools/wasnorm_wordpool_less_exclusions.txt	LTP282	ltpFR	2	16	-1	RAIL	1161	n/a	n/a	-1	1.0	1.0	1	upper	Verdana.ttf
3313.854	n/a	WORD	1656927	wordpools/wasnorm_wordpool_less_exclusions.txt	LTP282	ltpFR	2	16	-1	WALL	1582	n/a	n/a	-1	1.0	1.0	1	upper	Verdana.ttf
3317.972	n/a	WORD	1658986	wordpools/wasnorm_wordpool_less_exclusions.txt	LTP282	ltpFR	2	16	-1	CIRCUS	311	n/a	n/a	-1	1.0	1.0	1	upper	Verdana.ttf
3322.054	n/a	WORD	1661027	wordpools/wasnorm_wordpool_less_exclusions.txt	LTP282	ltpFR	2	16	-1	HAT	690	n/a	n/a	-1	1.0	1.0	1	upper	Verdana.ttf
3326.018	n/a	WORD	1663009	wordpools/wasnorm_wordpool_less_exclusions.txt	LTP282	ltpFR	2	16	-1	COAT	333	n/a	n/a	-1	1.0	1.0	1	upper	Verdana.ttf
3330.218	n/a	WORD	1665109	wordpools/wasnorm_wordpool_less_exclusions.txt	LTP282	ltpFR	2	16	-1	CHIEF	298	n/a	n/a	-1	1.0	1.0	1	upper	Verdana.ttf
3334.1	n/a	WORD	1667050	wordpools/wasnorm_wordpool_less_exclusions.txt	LTP282	ltpFR	2	16	-1	BEVERAGE	123	n/a	n/a	-1	1.0	1.0	1	upper	Verdana.ttf
3338.098	n/a	WORD	1669049	wordpools/wasnorm_wordpool_less_exclusions.txt	LTP282	ltpFR	2	16	-1	COCKTAIL	338	n/a	n/a	-1	1.0	1.0	1	upper	Verdana.ttf
3342.164	n/a	WORD	1671082	wordpools/wasnorm_wordpool_less_exclusions.txt	LTP282	ltpFR	2	16	-1	BANQUET	86	n/a	n/a	-1	1.0	1.0	1	upper	Verdana.ttf
3346.312	n/a	WORD	1673156	wordpools/wasnorm_wordpool_less_exclusions.txt	LTP282	ltpFR	2	16	-1	PATH	1023	n/a	n/a	-1	1.0	1.0	1	upper	Verdana.ttf
3350.528	n/a	WORD	1675264	wordpools/wasnorm_wordpool_less_exclusions.txt	LTP282	ltpFR	2	16	-1	BOOK	149	n/a	n/a	-1	1.0	1.0	1	upper	Verdana.ttf
3356.418	n/a	REC_START	1678209	n/a	LTP282	ltpFR	2	16	n/a	n/a	n/a	n/a	n/a	n/a	n/a	n/a	n/a	n/a	n/a
3357.596	n/a	REC_WORD	1678798	wordpools/wasnorm_wordpool_less_exclusions.txt	LTP282	ltpFR	2	16	-1	BOOK	149	n/a	n/a	-1	n/a	n/a	n/a	n/a	n/a
3358.3	n/a	REC_WORD	1679150	wordpools/wasnorm_wordpool_less_exclusions.txt	LTP282	ltpFR	2	16	-1	PATH	1023	n/a	n/a	-1	n/a	n/a	n/a	n/a	n/a
3359.318	n/a	REC_WORD	1679659	wordpools/wasnorm_wordpool_less_exclusions.txt	LTP282	ltpFR	2	16	-1	BANQUET	86	n/a	n/a	-1	n/a	n/a	n/a	n/a	n/a
3360.054	n/a	REC_WORD	1680027	wordpools/wasnorm_wordpool_less_exclusions.txt	LTP282	ltpFR	2	16	-1	SILVERWARE	1308	n/a	n/a	-1	n/a	n/a	n/a	n/a	n/a
3361.888	n/a	REC_WORD	1680944	wordpools/wasnorm_wordpool_less_exclusions.txt	LTP282	ltpFR	2	16	-1	CHIEF	298	n/a	n/a	-1	n/a	n/a	n/a	n/a	n/a
3364.068	n/a	REC_WORD	1682034	wordpools/wasnorm_wordpool_less_exclusions.txt	LTP282	ltpFR	2	16	-1	CABIN	211	n/a	n/a	-1	n/a	n/a	n/a	n/a	n/a
3366.314	n/a	REC_WORD	1683157	wordpools/wasnorm_wordpool_less_exclusions.txt	LTP282	ltpFR	2	16	-1	RAIL	1161	n/a	n/a	-1	n/a	n/a	n/a	n/a	n/a
3387.766	n/a	REC_WORD	1693883	wordpools/wasnorm_wordpool_less_exclusions.txt	LTP282	ltpFR	2	16	-1	HAT	690	n/a	n/a	-1	n/a	n/a	n/a	n/a	n/a
3388.73	n/a	REC_WORD	1694365	wordpools/wasnorm_wordpool_less_exclusions.txt	LTP282	ltpFR	2	16	-1	COAT	333	n/a	n/a	-1	n/a	n/a	n/a	n/a	n/a
3458.208	n/a	REC_START	1729104	n/a	LTP282	ltpFR	2	n/a	n/a	n/a	n/a	n/a	n/a	n/a	n/a	n/a	n/a	n/a	n/a
3459.04	n/a	FFR_REC_WORD	1729520	wordpools/wasnorm_wordpool_less_exclusions.txt	LTP282	ltpFR	2	n/a	-1	HAT	690	n/a	n/a	-1	n/a	n/a	n/a	n/a	n/a
3459.864	n/a	FFR_REC_WORD	1729932	wordpools/wasnorm_wordpool_less_exclusions.txt	LTP282	ltpFR	2	n/a	-1	COAT	333	n/a	n/a	-1	n/a	n/a	n/a	n/a	n/a
3460.696	n/a	FFR_REC_WORD	1730348	wordpools/wasnorm_wordpool_less_exclusions.txt	LTP282	ltpFR	2	n/a	-1	CABIN	211	n/a	n/a	-1	n/a	n/a	n/a	n/a	n/a
3462.322	n/a	FFR_REC_WORD	1731161	wordpools/wasnorm_wordpool_less_exclusions.txt	LTP282	ltpFR	2	n/a	-1	RAIL	1161	n/a	n/a	-1	n/a	n/a	n/a	n/a	n/a
3463.3	n/a	FFR_REC_WORD	1731650	wordpools/wasnorm_wordpool_less_exclusions.txt	LTP282	ltpFR	2	n/a	1	CRAB	397	n/a	n/a	1	n/a	n/a	n/a	n/a	n/a
3466.638	n/a	FFR_REC_WORD	1733319	wordpools/wasnorm_wordpool_less_exclusions.txt	LTP282	ltpFR	2	n/a	n/a	PENCIL	1042	n/a	n/a	n/a	n/a	n/a	n/a	n/a	n/a
3467.398	n/a	FFR_REC_WORD	1733699	wordpools/wasnorm_wordpool_less_exclusions.txt	LTP282	ltpFR	2	n/a	0	HOOK	715	n/a	n/a	0	n/a	n/a	n/a	n/a	n/a
3468.368	n/a	FFR_REC_WORD	1734184	wordpools/wasnorm_wordpool_less_exclusions.txt	LTP282	ltpFR	2	n/a	1	WEED	1599	n/a	n/a	1	n/a	n/a	n/a	n/a	n/a
3469.2	n/a	FFR_REC_WORD	1734600	wordpools/wasnorm_wordpool_less_exclusions.txt	LTP282	ltpFR	2	n/a	1	STEM	1376	n/a	n/a	1	n/a	n/a	n/a	n/a	n/a
3470.616	n/a	FFR_REC_WORD	1735308	wordpools/wasnorm_wordpool_less_exclusions.txt	LTP282	ltpFR	2	n/a	0	PUPPY	1144	n/a	n/a	0	n/a	n/a	n/a	n/a	n/a
3472.162	n/a	FFR_REC_WORD	1736081	wordpools/wasnorm_wordpool_less_exclusions.txt	LTP282	ltpFR	2	n/a	1	WOLF	1619	n/a	n/a	1	n/a	n/a	n/a	n/a	n/a
3474.348	n/a	FFR_REC_WORD_VV	1737174	wordpools/wasnorm_wordpool_less_exclusions.txt	LTP282	ltpFR	2	n/a	n/a	<>	-1	n/a	n/a	n/a	n/a	n/a	n/a	n/a	n/a
3476.746	n/a	FFR_REC_WORD	1738373	wordpools/wasnorm_wordpool_less_exclusions.txt	LTP282	ltpFR	2	n/a	1	BISON	131	n/a	n/a	1	n/a	n/a	n/a	n/a	n/a
3477.574	n/a	FFR_REC_WORD	1738787	wordpools/wasnorm_wordpool_less_exclusions.txt	LTP282	ltpFR	2	n/a	-1	BUFFALO	186	n/a	n/a	-1	n/a	n/a	n/a	n/a	n/a
3478.362	n/a	FFR_REC_WORD	1739181	wordpools/wasnorm_wordpool_less_exclusions.txt	LTP282	ltpFR	2	n/a	-1	HORSE	719	n/a	n/a	-1	n/a	n/a	n/a	n/a	n/a
3481.34	n/a	FFR_REC_WORD	1740670	wordpools/wasnorm_wordpool_less_exclusions.txt	LTP282	ltpFR	2	n/a	1	RANCH	1166	n/a	n/a	0	n/a	n/a	n/a	n/a	n/a
3486.31	n/a	FFR_REC_WORD	1743155	wordpools/wasnorm_wordpool_less_exclusions.txt	LTP282	ltpFR	2	n/a	0	MOON	914	n/a	n/a	1	n/a	n/a	n/a	n/a	n/a
3487.93	n/a	FFR_REC_WORD	1743965	wordpools/wasnorm_wordpool_less_exclusions.txt	LTP282	ltpFR	2	n/a	n/a	SHORE	1291	n/a	n/a	n/a	n/a	n/a	n/a	n/a	n/a
3490.326	n/a	FFR_REC_WORD	1745163	wordpools/wasnorm_wordpool_less_exclusions.txt	LTP282	ltpFR	2	n/a	1	BROOK	177	n/a	n/a	1	n/a	n/a	n/a	n/a	n/a
3491.25	n/a	FFR_REC_WORD	1745625	wordpools/wasnorm_wordpool_less_exclusions.txt	LTP282	ltpFR	2	n/a	0	BRIDGE	174	n/a	n/a	1	n/a	n/a	n/a	n/a	n/a
3491.992	n/a	FFR_REC_WORD	1745996	wordpools/wasnorm_wordpool_less_exclusions.txt	LTP282	ltpFR	2	n/a	0	STREAM	1392	n/a	n/a	1	n/a	n/a	n/a	n/a	n/a
3493.41	n/a	FFR_REC_WORD	1746705	wordpools/wasnorm_wordpool_less_exclusions.txt	LTP282	ltpFR	2	n/a	n/a	WAVE	1596	n/a	n/a	n/a	n/a	n/a	n/a	n/a	n/a
3495.404	n/a	FFR_REC_WORD	1747702	wordpools/wasnorm_wordpool_less_exclusions.txt	LTP282	ltpFR	2	n/a	1	DUNE	506	n/a	n/a	1	n/a	n/a	n/a	n/a	n/a
3499.65	n/a	FFR_REC_WORD	1749825	wordpools/wasnorm_wordpool_less_exclusions.txt	LTP282	ltpFR	2	n/a	n/a	CHEEK	287	n/a	n/a	n/a	n/a	n/a	n/a	n/a	n/a
3500.516	n/a	FFR_REC_WORD	1750258	wordpools/wasnorm_wordpool_less_exclusions.txt	LTP282	ltpFR	2	n/a	1	FOREHEAD	592	n/a	n/a	1	n/a	n/a	n/a	n/a	n/a
3501.604	n/a	FFR_REC_WORD	1750802	wordpools/wasnorm_wordpool_less_exclusions.txt	LTP282	ltpFR	2	n/a	1	THIGH	1457	n/a	n/a	1	n/a	n/a	n/a	n/a	n/a
3502.678	n/a	FFR_REC_WORD	1751339	wordpools/wasnorm_wordpool_less_exclusions.txt	LTP282	ltpFR	2	n/a	1	EAR	513	n/a	n/a	1	n/a	n/a	n/a	n/a	n/a
3505.582	n/a	FFR_REC_WORD	1752791	wordpools/wasnorm_wordpool_less_exclusions.txt	LTP282	ltpFR	2	n/a	0	ELBOW	520	n/a	n/a	0	n/a	n/a	n/a	n/a	n/a
3508.886	n/a	FFR_REC_WORD	1754443	wordpools/wasnorm_wordpool_less_exclusions.txt	LTP282	ltpFR	2	n/a	0	CANDY	230	n/a	n/a	0	n/a	n/a	n/a	n/a	n/a
3517.9	n/a	FFR_REC_WORD	1758950	wordpools/wasnorm_wordpool_less_exclusions.txt	LTP282	ltpFR	2	n/a	0	DESK	452	n/a	n/a	1	n/a	n/a	n/a	n/a	n/a
3520.094	n/a	FFR_REC_WORD	1760047	wordpools/wasnorm_wordpool_less_exclusions.txt	LTP282	ltpFR	2	n/a	1	TYPIST	1532	n/a	n/a	1	n/a	n/a	n/a	n/a	n/a
3521.168	n/a	FFR_REC_WORD	1760584	wordpools/wasnorm_wordpool_less_exclusions.txt	LTP282	ltpFR	2	n/a	-1	CONTRACTOR	369	n/a	n/a	-1	n/a	n/a	n/a	n/a	n/a
3522.186	n/a	FFR_REC_WORD	1761093	wordpools/wasnorm_wordpool_less_exclusions.txt	LTP282	ltpFR	2	n/a	-1	AUTOMOBILE	62	n/a	n/a	-1	n/a	n/a	n/a	n/a	n/a
3523.95	n/a	FFR_REC_WORD	1761975	wordpools/wasnorm_wordpool_less_exclusions.txt	LTP282	ltpFR	2	n/a	-1	PHILOSOPHER	1054	n/a	n/a	-1	n/a	n/a	n/a	n/a	n/a
3524.95	n/a	FFR_REC_WORD_VV	1762475	wordpools/wasnorm_wordpool_less_exclusions.txt	LTP282	ltpFR	2	n/a	n/a	<>	-1	n/a	n/a	n/a	n/a	n/a	n/a	n/a	n/a
3527.164	n/a	FFR_REC_WORD	1763582	wordpools/wasnorm_wordpool_less_exclusions.txt	LTP282	ltpFR	2	n/a	0	MOTHER	921	n/a	n/a	1	n/a	n/a	n/a	n/a	n/a
3528.588	n/a	FFR_REC_WORD	1764294	wordpools/wasnorm_wordpool_less_exclusions.txt	LTP282	ltpFR	2	n/a	0	SKIRT	1319	n/a	n/a	1	n/a	n/a	n/a	n/a	n/a
3532.322	n/a	FFR_REC_WORD	1766161	wordpools/wasnorm_wordpool_less_exclusions.txt	LTP282	ltpFR	2	n/a	0	SWATTER	1418	n/a	n/a	0	n/a	n/a	n/a	n/a	n/a
3541.032	n/a	FFR_REC_WORD	1770516	wordpools/wasnorm_wordpool_less_exclusions.txt	LTP282	ltpFR	2	n/a	0	WHALE	1601	n/a	n/a	1	n/a	n/a	n/a	n/a	n/a
3551.724	n/a	FFR_REC_WORD	1775862	wordpools/wasnorm_wordpool_less_exclusions.txt	LTP282	ltpFR	2	n/a	n/a	OTTER	986	n/a	n/a	n/a	n/a	n/a	n/a	n/a	n/a
3557.816	n/a	FFR_REC_WORD	1778908	wordpools/wasnorm_wordpool_less_exclusions.txt	LTP282	ltpFR	2	n/a	-1	ACROBAT	4	n/a	n/a	-1	n/a	n/a	n/a	n/a	n/a
3558.698	n/a	FFR_REC_WORD	1779349	wordpools/wasnorm_wordpool_less_exclusions.txt	LTP282	ltpFR	2	n/a	-1	CIRCUS	311	n/a	n/a	-1	n/a	n/a	n/a	n/a	n/a
3563.702	n/a	FFR_REC_WORD	1781851	wordpools/wasnorm_wordpool_less_exclusions.txt	LTP282	ltpFR	2	n/a	n/a	HEATER	698	n/a	n/a	n/a	n/a	n/a	n/a	n/a	n/a
3577.872	n/a	FFR_REC_WORD	1788936	wordpools/wasnorm_wordpool_less_exclusions.txt	LTP282	ltpFR	2	n/a	0	SHORTS	1293	n/a	n/a	0	n/a	n/a	n/a	n/a	n/a
3586.846	n/a	FFR_REC_WORD	1793423	wordpools/wasnorm_wordpool_less_exclusions.txt	LTP282	ltpFR	2	n/a	-1	BOOK	149	n/a	n/a	-1	n/a	n/a	n/a	n/a	n/a
3587.526	n/a	FFR_REC_WORD	1793763	wordpools/wasnorm_wordpool_less_exclusions.txt	LTP282	ltpFR	2	n/a	-1	CONTRACT	368	n/a	n/a	-1	n/a	n/a	n/a	n/a	n/a
3588.602	n/a	FFR_REC_WORD	1794301	wordpools/wasnorm_wordpool_less_exclusions.txt	LTP282	ltpFR	2	n/a	-1	CONTRACTOR	369	n/a	n/a	-1	n/a	n/a	n/a	n/a	n/a
3589.602	n/a	FFR_REC_WORD_VV	1794801	wordpools/wasnorm_wordpool_less_exclusions.txt	LTP282	ltpFR	2	n/a	n/a	<>	-1	n/a	n/a	n/a	n/a	n/a	n/a	n/a	n/a
3591.776	n/a	FFR_REC_WORD	1795888	wordpools/wasnorm_wordpool_less_exclusions.txt	LTP282	ltpFR	2	n/a	-1	SAW	1239	n/a	n/a	-1	n/a	n/a	n/a	n/a	n/a
3593.632	n/a	FFR_REC_WORD	1796816	wordpools/wasnorm_wordpool_less_exclusions.txt	LTP282	ltpFR	2	n/a	-1	TIMBER	1469	n/a	n/a	-1	n/a	n/a	n/a	n/a	n/a
3594.454	n/a	FFR_REC_WORD	1797227	wordpools/wasnorm_wordpool_less_exclusions.txt	LTP282	ltpFR	2	n/a	-1	ELM	527	n/a	n/a	-1	n/a	n/a	n/a	n/a	n/a
3597.428	n/a	FFR_REC_WORD	1798714	wordpools/wasnorm_wordpool_less_exclusions.txt	LTP282	ltpFR	2	n/a	-1	DOUGHNUT	490	n/a	n/a	-1	n/a	n/a	n/a	n/a	n/a
3618.944	n/a	FFR_REC_WORD	1809472	wordpools/wasnorm_wordpool_less_exclusions.txt	LTP282	ltpFR	2	n/a	0	RADISH	1158	n/a	n/a	0	n/a	n/a	n/a	n/a	n/a
3621.16	n/a	FFR_REC_WORD	1810580	wordpools/wasnorm_wordpool_less_exclusions.txt	LTP282	ltpFR	2	n/a	0	BERRY	122	n/a	n/a	0	n/a	n/a	n/a	n/a	n/a
3621.954	n/a	FFR_REC_WORD	1810977	wordpools/wasnorm_wordpool_less_exclusions.txt	LTP282	ltpFR	2	n/a	1	STRAWBERRY	1391	n/a	n/a	1	n/a	n/a	n/a	n/a	n/a
3623.854	n/a	FFR_REC_WORD	1811927	wordpools/wasnorm_wordpool_less_exclusions.txt	LTP282	ltpFR	2	n/a	-1	FRIEND	606	n/a	n/a	-1	n/a	n/a	n/a	n/a	n/a
3624.922	n/a	FFR_REC_WORD	1812461	wordpools/wasnorm_wordpool_less_exclusions.txt	LTP282	ltpFR	2	n/a	-1	BOYFRIEND	162	n/a	n/a	-1	n/a	n/a	n/a	n/a	n/a
3631.448	n/a	FFR_REC_WORD	1815724	wordpools/wasnorm_wordpool_less_exclusions.txt	LTP282	ltpFR	2	n/a	1	GALAXY	617	n/a	n/a	0	n/a	n/a	n/a	n/a	n/a
3632.448	n/a	FFR_REC_WORD_VV	1816224	wordpools/wasnorm_wordpool_less_exclusions.txt	LTP282	ltpFR	2	n/a	n/a	<>	-1	n/a	n/a	n/a	n/a	n/a	n/a	n/a	n/a
3632.88	n/a	FFR_REC_WORD	1816440	wordpools/wasnorm_wordpool_less_exclusions.txt	LTP282	ltpFR	2	n/a	1	UNIVERSE	1540	n/a	n/a	0	n/a	n/a	n/a	n/a	n/a
3633.88	n/a	FFR_REC_WORD_VV	1816940	wordpools/wasnorm_wordpool_less_exclusions.txt	LTP282	ltpFR	2	n/a	n/a	<>	-1	n/a	n/a	n/a	n/a	n/a	n/a	n/a	n/a
3641.784	n/a	FFR_REC_WORD	1820892	wordpools/wasnorm_wordpool_less_exclusions.txt	LTP282	ltpFR	2	n/a	0	THORN	1459	n/a	n/a	0	n/a	n/a	n/a	n/a	n/a
3673.114	n/a	FFR_REC_WORD	1836557	wordpools/wasnorm_wordpool_less_exclusions.txt	LTP282	ltpFR	2	n/a	0	PUPPY	1144	n/a	n/a	0	n/a	n/a	n/a	n/a	n/a
3677.37	n/a	FFR_REC_WORD	1838685	wordpools/wasnorm_wordpool_less_exclusions.txt	LTP282	ltpFR	2	n/a	1	CAT	257	n/a	n/a	1	n/a	n/a	n/a	n/a	n/a
3681.512	n/a	FFR_REC_WORD	1840756	wordpools/wasnorm_wordpool_less_exclusions.txt	LTP282	ltpFR	2	n/a	-1	BUTTON	207	n/a	n/a	-1	n/a	n/a	n/a	n/a	n/a
3686.486	n/a	FFR_REC_WORD	1843243	wordpools/wasnorm_wordpool_less_exclusions.txt	LTP282	ltpFR	2	n/a	-1	RULER	1216	n/a	n/a	-1	n/a	n/a	n/a	n/a	n/a
3687.448	n/a	FFR_REC_WORD	1843724	wordpools/wasnorm_wordpool_less_exclusions.txt	LTP282	ltpFR	2	n/a	-1	WAIST	1579	n/a	n/a	-1	n/a	n/a	n/a	n/a	n/a
3694.656	n/a	FFR_REC_WORD	1847328	wordpools/wasnorm_wordpool_less_exclusions.txt	LTP282	ltpFR	2	n/a	1	PERFUME	1049	n/a	n/a	0	n/a	n/a	n/a	n/a	n/a
3699.072	n/a	FFR_REC_WORD	1849536	wordpools/wasnorm_wordpool_less_exclusions.txt	LTP282	ltpFR	2	n/a	n/a	FRAGRANCE	599	n/a	n/a	n/a	n/a	n/a	n/a	n/a	n/a
3700.072	n/a	FFR_REC_WORD_VV	1850036	wordpools/wasnorm_wordpool_less_exclusions.txt	LTP282	ltpFR	2	n/a	n/a	<>	-1	n/a	n/a	n/a	n/a	n/a	n/a	n/a	n/a
3732.846	n/a	FFR_REC_WORD	1866423	wordpools/wasnorm_wordpool_less_exclusions.txt	LTP282	ltpFR	2	n/a	n/a	FILE	-1	n/a	n/a	n/a	n/a	n/a	n/a	n/a	n/a
3740.814	n/a	FFR_REC_WORD	1870407	wordpools/wasnorm_wordpool_less_exclusions.txt	LTP282	ltpFR	2	n/a	-1	FOLDER	588	n/a	n/a	-1	n/a	n/a	n/a	n/a	n/a
3746.666	n/a	FFR_REC_WORD	1873333	wordpools/wasnorm_wordpool_less_exclusions.txt	LTP282	ltpFR	2	n/a	n/a	SNAKE	1333	n/a	n/a	n/a	n/a	n/a	n/a	n/a	n/a
3748.088	n/a	FFR_REC_WORD	1874044	wordpools/wasnorm_wordpool_less_exclusions.txt	LTP282	ltpFR	2	n/a	1	HOSE	720	n/a	n/a	0	n/a	n/a	n/a	n/a	n/a
4133.604	n/a	REC_START	2066802	n/a	LTP282	ltpFR	2	1	n/a	n/a	n/a	n/a	n/a	n/a	n/a	n/a	n/a	n/a	n/a
4133.654	n/a	RECOG_LURE	2066827	n/a	LTP282	ltpFR	2	1	n/a	TOWEL	1489	1	3	n/a	n/a	n/a	n/a	n/a	n/a
4135.124	n/a	RECOG_RESP	2067562	n/a	LTP282	ltpFR	2	1	n/a	TOWEL	1489	1	n/a	n/a	n/a	n/a	n/a	n/a	n/a
4136.174	n/a	RECOG_CONF	2068087	n/a	LTP282	ltpFR	2	1	n/a	TOWEL	1489	n/a	3	n/a	n/a	n/a	n/a	n/a	n/a
4138.206	n/a	RECOG_LURE	2069103	n/a	LTP282	ltpFR	2	1	n/a	ENEMY	534	0	4	n/a	n/a	n/a	n/a	n/a	n/a
4138.84	n/a	RECOG_RESP	2069420	n/a	LTP282	ltpFR	2	1	n/a	ENEMY	534	0	n/a	n/a	n/a	n/a	n/a	n/a	n/a
4139.896	n/a	RECOG_CONF	2069948	n/a	LTP282	ltpFR	2	1	n/a	ENEMY	534	n/a	4	n/a	n/a	n/a	n/a	n/a	n/a
4141.632	n/a	RECOG_LURE	2070816	n/a	LTP282	ltpFR	2	1	n/a	NEUTRON	947	0	4	n/a	n/a	n/a	n/a	n/a	n/a
4142.486	n/a	RECOG_RESP	2071243	n/a	LTP282	ltpFR	2	1	n/a	NEUTRON	947	0	n/a	n/a	n/a	n/a	n/a	n/a	n/a
4143.156	n/a	RECOG_CONF	2071578	n/a	LTP282	ltpFR	2	1	n/a	NEUTRON	947	n/a	4	n/a	n/a	n/a	n/a	n/a	n/a
4144.998	n/a	RECOG_TARGET	2072499	n/a	LTP282	ltpFR	2	1	1	NAVIGATOR	938	1	2	1	n/a	n/a	n/a	n/a	n/a
4145.816	n/a	RECOG_RESP	2072908	n/a	LTP282	ltpFR	2	1	1	NAVIGATOR	938	1	n/a	1	n/a	n/a	n/a	n/a	n/a
4146.666	n/a	RECOG_CONF	2073333	n/a	LTP282	ltpFR	2	1	1	NAVIGATOR	938	n/a	2	1	n/a	n/a	n/a	n/a	n/a
4148.376	n/a	RECOG_LURE	2074188	n/a	LTP282	ltpFR	2	1	n/a	COOLER	375	0	4	n/a	n/a	n/a	n/a	n/a	n/a
4148.966	n/a	RECOG_RESP	2074483	n/a	LTP282	ltpFR	2	1	n/a	COOLER	375	0	n/a	n/a	n/a	n/a	n/a	n/a	n/a
4149.616	n/a	RECOG_CONF	2074808	n/a	LTP282	ltpFR	2	1	n/a	COOLER	375	n/a	4	n/a	n/a	n/a	n/a	n/a	n/a
4151.52	n/a	RECOG_TARGET	2075760	n/a	LTP282	ltpFR	2	1	-1	CONTRACTOR	369	1	5	-1	n/a	n/a	n/a	n/a	n/a
4152.076	n/a	RECOG_RESP	2076038	n/a	LTP282	ltpFR	2	1	-1	CONTRACTOR	369	1	n/a	-1	n/a	n/a	n/a	n/a	n/a
4152.846	n/a	RECOG_CONF	2076423	n/a	LTP282	ltpFR	2	1	-1	CONTRACTOR	369	n/a	5	-1	n/a	n/a	n/a	n/a	n/a
4154.584	n/a	RECOG_TARGET	2077292	n/a	LTP282	ltpFR	2	1	1	OWNER	993	1	5	1	n/a	n/a	n/a	n/a	n/a
4155.4	n/a	RECOG_RESP	2077700	n/a	LTP282	ltpFR	2	1	1	OWNER	993	1	n/a	1	n/a	n/a	n/a	n/a	n/a
4156.006	n/a	RECOG_CONF	2078003	n/a	LTP282	ltpFR	2	1	1	OWNER	993	n/a	5	1	n/a	n/a	n/a	n/a	n/a
4157.864	n/a	RECOG_TARGET	2078932	n/a	LTP282	ltpFR	2	1	1	TRIBE	1505	1	5	1	n/a	n/a	n/a	n/a	n/a
4158.396	n/a	RECOG_RESP	2079198	n/a	LTP282	ltpFR	2	1	1	TRIBE	1505	1	n/a	1	n/a	n/a	n/a	n/a	n/a
4159.026	n/a	RECOG_CONF	2079513	n/a	LTP282	ltpFR	2	1	1	TRIBE	1505	n/a	5	1	n/a	n/a	n/a	n/a	n/a
4160.808	n/a	RECOG_TARGET	2080404	n/a	LTP282	ltpFR	2	1	1	BUTLER	204	1	3	1	n/a	n/a	n/a	n/a	n/a
4161.606	n/a	RECOG_RESP	2080803	n/a	LTP282	ltpFR	2	1	1	BUTLER	204	1	n/a	1	n/a	n/a	n/a	n/a	n/a
4162.306	n/a	RECOG_CONF	2081153	n/a	LTP282	ltpFR	2	1	1	BUTLER	204	n/a	3	1	n/a	n/a	n/a	n/a	n/a
4164.154	n/a	RECOG_TARGET	2082077	n/a	LTP282	ltpFR	2	1	1	CORK	380	1	5	1	n/a	n/a	n/a	n/a	n/a
4164.686	n/a	RECOG_RESP	2082343	n/a	LTP282	ltpFR	2	1	1	CORK	380	1	n/a	1	n/a	n/a	n/a	n/a	n/a
4165.336	n/a	RECOG_CONF	2082668	n/a	LTP282	ltpFR	2	1	1	CORK	380	n/a	5	1	n/a	n/a	n/a	n/a	n/a
4166.93	n/a	RECOG_LURE	2083465	n/a	LTP282	ltpFR	2	1	n/a	ABDOMEN	1	0	4	n/a	n/a	n/a	n/a	n/a	n/a
4167.812	n/a	RECOG_RESP	2083906	n/a	LTP282	ltpFR	2	1	n/a	ABDOMEN	1	0	n/a	n/a	n/a	n/a	n/a	n/a	n/a
4168.426	n/a	RECOG_CONF	2084213	n/a	LTP282	ltpFR	2	1	n/a	ABDOMEN	1	n/a	4	n/a	n/a	n/a	n/a	n/a	n/a
4170.36	n/a	RECOG_LURE	2085180	n/a	LTP282	ltpFR	2	1	n/a	STUMP	1396	0	5	n/a	n/a	n/a	n/a	n/a	n/a
4170.946	n/a	RECOG_RESP	2085473	n/a	LTP282	ltpFR	2	1	n/a	STUMP	1396	0	n/a	n/a	n/a	n/a	n/a	n/a	n/a
4171.606	n/a	RECOG_CONF	2085803	n/a	LTP282	ltpFR	2	1	n/a	STUMP	1396	n/a	5	n/a	n/a	n/a	n/a	n/a	n/a
4173.406	n/a	RECOG_LURE	2086703	n/a	LTP282	ltpFR	2	1	n/a	PROFESSIONAL	1130	1	2	n/a	n/a	n/a	n/a	n/a	n/a
4174.026	n/a	RECOG_RESP	2087013	n/a	LTP282	ltpFR	2	1	n/a	PROFESSIONAL	1130	1	n/a	n/a	n/a	n/a	n/a	n/a	n/a
4175.068	n/a	RECOG_CONF	2087534	n/a	LTP282	ltpFR	2	1	n/a	PROFESSIONAL	1130	n/a	2	n/a	n/a	n/a	n/a	n/a	n/a
4176.852	n/a	RECOG_LURE	2088426	n/a	LTP282	ltpFR	2	1	n/a	KETCHUP	771	0	3	n/a	n/a	n/a	n/a	n/a	n/a
4177.678	n/a	RECOG_RESP	2088839	n/a	LTP282	ltpFR	2	1	n/a	KETCHUP	771	0	n/a	n/a	n/a	n/a	n/a	n/a	n/a
4178.488	n/a	RECOG_CONF	2089244	n/a	LTP282	ltpFR	2	1	n/a	KETCHUP	771	n/a	3	n/a	n/a	n/a	n/a	n/a	n/a
4180.298	n/a	RECOG_TARGET	2090149	n/a	LTP282	ltpFR	2	1	0	MOUSE	925	1	5	0	n/a	n/a	n/a	n/a	n/a
4180.808	n/a	RECOG_RESP	2090404	n/a	LTP282	ltpFR	2	1	0	MOUSE	925	1	n/a	0	n/a	n/a	n/a	n/a	n/a
4181.528	n/a	RECOG_CONF	2090764	n/a	LTP282	ltpFR	2	1	0	MOUSE	925	n/a	5	0	n/a	n/a	n/a	n/a	n/a
4183.194	n/a	RECOG_LURE	2091597	n/a	LTP282	ltpFR	2	1	n/a	GARBAGE	622	0	2	n/a	n/a	n/a	n/a	n/a	n/a
4183.988	n/a	RECOG_RESP	2091994	n/a	LTP282	ltpFR	2	1	n/a	GARBAGE	622	0	n/a	n/a	n/a	n/a	n/a	n/a	n/a
4184.758	n/a	RECOG_CONF	2092379	n/a	LTP282	ltpFR	2	1	n/a	GARBAGE	622	n/a	2	n/a	n/a	n/a	n/a	n/a	n/a
4186.59	n/a	RECOG_TARGET	2093295	n/a	LTP282	ltpFR	2	1	0	BUN	197	1	5	0	n/a	n/a	n/a	n/a	n/a
4187.258	n/a	RECOG_RESP	2093629	n/a	LTP282	ltpFR	2	1	0	BUN	197	1	n/a	0	n/a	n/a	n/a	n/a	n/a
4187.918	n/a	RECOG_CONF	2093959	n/a	LTP282	ltpFR	2	1	0	BUN	197	n/a	5	0	n/a	n/a	n/a	n/a	n/a
4189.684	n/a	RECOG_TARGET	2094842	n/a	LTP282	ltpFR	2	1	0	CLIMBER	323	0	3	1	n/a	n/a	n/a	n/a	n/a
4190.428	n/a	RECOG_RESP	2095214	n/a	LTP282	ltpFR	2	1	0	CLIMBER	323	0	n/a	1	n/a	n/a	n/a	n/a	n/a
4191.408	n/a	RECOG_CONF	2095704	n/a	LTP282	ltpFR	2	1	0	CLIMBER	323	n/a	3	1	n/a	n/a	n/a	n/a	n/a
4193.298	n/a	RECOG_TARGET	2096649	n/a	LTP282	ltpFR	2	1	-1	MALL	860	1	5	-1	n/a	n/a	n/a	n/a	n/a
4193.984	n/a	RECOG_RESP	2096992	n/a	LTP282	ltpFR	2	1	-1	MALL	860	1	n/a	-1	n/a	n/a	n/a	n/a	n/a
4194.618	n/a	RECOG_CONF	2097309	n/a	LTP282	ltpFR	2	1	-1	MALL	860	n/a	5	-1	n/a	n/a	n/a	n/a	n/a
4196.178	n/a	RECOG_LURE	2098089	n/a	LTP282	ltpFR	2	1	n/a	WORLD	1622	0	4	n/a	n/a	n/a	n/a	n/a	n/a
4197.044	n/a	RECOG_RESP	2098522	n/a	LTP282	ltpFR	2	1	n/a	WORLD	1622	0	n/a	n/a	n/a	n/a	n/a	n/a	n/a
4197.728	n/a	RECOG_CONF	2098864	n/a	LTP282	ltpFR	2	1	n/a	WORLD	1622	n/a	4	n/a	n/a	n/a	n/a	n/a	n/a
4204.826	n/a	REC_START	2102413	n/a	LTP282	ltpFR	2	2	n/a	n/a	n/a	n/a	n/a	n/a	n/a	n/a	n/a	n/a	n/a
4204.876	n/a	RECOG_TARGET	2102438	n/a	LTP282	ltpFR	2	2	1	COLT	349	1	2	1	n/a	n/a	n/a	n/a	n/a
4205.67	n/a	RECOG_RESP	2102835	n/a	LTP282	ltpFR	2	2	1	COLT	349	1	n/a	1	n/a	n/a	n/a	n/a	n/a
4206.486	n/a	RECOG_CONF	2103243	n/a	LTP282	ltpFR	2	2	1	COLT	349	n/a	2	1	n/a	n/a	n/a	n/a	n/a
4208.206	n/a	RECOG_TARGET	2104103	n/a	LTP282	ltpFR	2	2	-1	TAIL	1430	1	5	-1	n/a	n/a	n/a	n/a	n/a
4208.946	n/a	RECOG_RESP	2104473	n/a	LTP282	ltpFR	2	2	-1	TAIL	1430	1	n/a	-1	n/a	n/a	n/a	n/a	n/a
4209.626	n/a	RECOG_CONF	2104813	n/a	LTP282	ltpFR	2	2	-1	TAIL	1430	n/a	5	-1	n/a	n/a	n/a	n/a	n/a
4211.234	n/a	RECOG_TARGET	2105617	n/a	LTP282	ltpFR	2	2	1	STAR	1373	1	5	1	n/a	n/a	n/a	n/a	n/a
4211.796	n/a	RECOG_RESP	2105898	n/a	LTP282	ltpFR	2	2	1	STAR	1373	1	n/a	1	n/a	n/a	n/a	n/a	n/a
4212.506	n/a	RECOG_CONF	2106253	n/a	LTP282	ltpFR	2	2	1	STAR	1373	n/a	5	1	n/a	n/a	n/a	n/a	n/a
4214.296	n/a	RECOG_LURE	2107148	n/a	LTP282	ltpFR	2	2	n/a	IDOL	733	0	5	n/a	n/a	n/a	n/a	n/a	n/a
4214.886	n/a	RECOG_RESP	2107443	n/a	LTP282	ltpFR	2	2	n/a	IDOL	733	0	n/a	n/a	n/a	n/a	n/a	n/a	n/a
4215.598	n/a	RECOG_CONF	2107799	n/a	LTP282	ltpFR	2	2	n/a	IDOL	733	n/a	5	n/a	n/a	n/a	n/a	n/a	n/a
4217.406	n/a	RECOG_TARGET	2108703	n/a	LTP282	ltpFR	2	2	-1	DOUGHNUT	490	1	5	-1	n/a	n/a	n/a	n/a	n/a
4218.036	n/a	RECOG_RESP	2109018	n/a	LTP282	ltpFR	2	2	-1	DOUGHNUT	490	1	n/a	-1	n/a	n/a	n/a	n/a	n/a
4218.716	n/a	RECOG_CONF	2109358	n/a	LTP282	ltpFR	2	2	-1	DOUGHNUT	490	n/a	5	-1	n/a	n/a	n/a	n/a	n/a
4220.336	n/a	RECOG_TARGET	2110168	n/a	LTP282	ltpFR	2	2	1	VAULT	1550	1	5	0	n/a	n/a	n/a	n/a	n/a
4220.876	n/a	RECOG_RESP	2110438	n/a	LTP282	ltpFR	2	2	1	VAULT	1550	1	n/a	0	n/a	n/a	n/a	n/a	n/a
4221.606	n/a	RECOG_CONF	2110803	n/a	LTP282	ltpFR	2	2	1	VAULT	1550	n/a	5	0	n/a	n/a	n/a	n/a	n/a
4223.146	n/a	RECOG_TARGET	2111573	n/a	LTP282	ltpFR	2	2	0	PEACH	1031	1	5	0	n/a	n/a	n/a	n/a	n/a
4223.646	n/a	RECOG_RESP	2111823	n/a	LTP282	ltpFR	2	2	0	PEACH	1031	1	n/a	0	n/a	n/a	n/a	n/a	n/a
4224.446	n/a	RECOG_CONF	2112223	n/a	LTP282	ltpFR	2	2	0	PEACH	1031	n/a	5	0	n/a	n/a	n/a	n/a	n/a
4226.124	n/a	RECOG_TARGET	2113062	n/a	LTP282	ltpFR	2	2	-1	HEDGE	699	1	5	-1	n/a	n/a	n/a	n/a	n/a
4226.776	n/a	RECOG_RESP	2113388	n/a	LTP282	ltpFR	2	2	-1	HEDGE	699	1	n/a	-1	n/a	n/a	n/a	n/a	n/a
4227.526	n/a	RECOG_CONF	2113763	n/a	LTP282	ltpFR	2	2	-1	HEDGE	699	n/a	5	-1	n/a	n/a	n/a	n/a	n/a
4229.252	n/a	RECOG_TARGET	2114626	n/a	LTP282	ltpFR	2	2	1	CLERK	321	1	3	1	n/a	n/a	n/a	n/a	n/a
4229.836	n/a	RECOG_RESP	2114918	n/a	LTP282	ltpFR	2	2	1	CLERK	321	1	n/a	1	n/a	n/a	n/a	n/a	n/a
4230.656	n/a	RECOG_CONF	2115328	n/a	LTP282	ltpFR	2	2	1	CLERK	321	n/a	3	1	n/a	n/a	n/a	n/a	n/a
4232.364	n/a	RECOG_TARGET	2116182	n/a	LTP282	ltpFR	2	2	0	PUPPY	1144	1	5	0	n/a	n/a	n/a	n/a	n/a
4232.908	n/a	RECOG_RESP	2116454	n/a	LTP282	ltpFR	2	2	0	PUPPY	1144	1	n/a	0	n/a	n/a	n/a	n/a	n/a
4233.628	n/a	RECOG_CONF	2116814	n/a	LTP282	ltpFR	2	2	0	PUPPY	1144	n/a	5	0	n/a	n/a	n/a	n/a	n/a
4235.442	n/a	RECOG_LURE	2117721	n/a	LTP282	ltpFR	2	2	n/a	CIGAR	308	0	2	n/a	n/a	n/a	n/a	n/a	n/a
4236.178	n/a	RECOG_RESP	2118089	n/a	LTP282	ltpFR	2	2	n/a	CIGAR	308	0	n/a	n/a	n/a	n/a	n/a	n/a	n/a
4237.058	n/a	RECOG_CONF	2118529	n/a	LTP282	ltpFR	2	2	n/a	CIGAR	308	n/a	2	n/a	n/a	n/a	n/a	n/a	n/a
4238.904	n/a	RECOG_TARGET	2119452	n/a	LTP282	ltpFR	2	2	1	WELL	1600	1	5	0	n/a	n/a	n/a	n/a	n/a
4239.468	n/a	RECOG_RESP	2119734	n/a	LTP282	ltpFR	2	2	1	WELL	1600	1	n/a	0	n/a	n/a	n/a	n/a	n/a
4240.198	n/a	RECOG_CONF	2120099	n/a	LTP282	ltpFR	2	2	1	WELL	1600	n/a	5	0	n/a	n/a	n/a	n/a	n/a
4241.784	n/a	RECOG_TARGET	2120892	n/a	LTP282	ltpFR	2	2	0	BUGGY	188	1	5	1	n/a	n/a	n/a	n/a	n/a
4242.378	n/a	RECOG_RESP	2121189	n/a	LTP282	ltpFR	2	2	0	BUGGY	188	1	n/a	1	n/a	n/a	n/a	n/a	n/a
4242.968	n/a	RECOG_CONF	2121484	n/a	LTP282	ltpFR	2	2	0	BUGGY	188	n/a	5	1	n/a	n/a	n/a	n/a	n/a
4244.712	n/a	RECOG_TARGET	2122356	n/a	LTP282	ltpFR	2	2	0	FIREPLACE	570	0	3	1	n/a	n/a	n/a	n/a	n/a
4245.338	n/a	RECOG_RESP	2122669	n/a	LTP282	ltpFR	2	2	0	FIREPLACE	570	0	n/a	1	n/a	n/a	n/a	n/a	n/a
4246.278	n/a	RECOG_CONF	2123139	n/a	LTP282	ltpFR	2	2	0	FIREPLACE	570	n/a	3	1	n/a	n/a	n/a	n/a	n/a
4248.208	n/a	RECOG_LURE	2124104	n/a	LTP282	ltpFR	2	2	n/a	STONE	1385	0	3	n/a	n/a	n/a	n/a	n/a	n/a
4248.918	n/a	RECOG_RESP	2124459	n/a	LTP282	ltpFR	2	2	n/a	STONE	1385	0	n/a	n/a	n/a	n/a	n/a	n/a	n/a
4249.758	n/a	RECOG_CONF	2124879	n/a	LTP282	ltpFR	2	2	n/a	STONE	1385	n/a	3	n/a	n/a	n/a	n/a	n/a	n/a
4251.604	n/a	RECOG_TARGET	2125802	n/a	LTP282	ltpFR	2	2	1	BEAVER	109	1	5	1	n/a	n/a	n/a	n/a	n/a
4252.258	n/a	RECOG_RESP	2126129	n/a	LTP282	ltpFR	2	2	1	BEAVER	109	1	n/a	1	n/a	n/a	n/a	n/a	n/a
4252.888	n/a	RECOG_CONF	2126444	n/a	LTP282	ltpFR	2	2	1	BEAVER	109	n/a	5	1	n/a	n/a	n/a	n/a	n/a
4254.9	n/a	RECOG_TARGET	2127450	n/a	LTP282	ltpFR	2	2	1	TORTOISE	1486	1	5	1	n/a	n/a	n/a	n/a	n/a
4255.508	n/a	RECOG_RESP	2127754	n/a	LTP282	ltpFR	2	2	1	TORTOISE	1486	1	n/a	1	n/a	n/a	n/a	n/a	n/a
4256.318	n/a	RECOG_CONF	2128159	n/a	LTP282	ltpFR	2	2	1	TORTOISE	1486	n/a	5	1	n/a	n/a	n/a	n/a	n/a
4257.996	n/a	RECOG_TARGET	2128998	n/a	LTP282	ltpFR	2	2	1	STAPLER	1372	1	5	0	n/a	n/a	n/a	n/a	n/a
4258.534	n/a	RECOG_RESP	2129267	n/a	LTP282	ltpFR	2	2	1	STAPLER	1372	1	n/a	0	n/a	n/a	n/a	n/a	n/a
4259.278	n/a	RECOG_CONF	2129639	n/a	LTP282	ltpFR	2	2	1	STAPLER	1372	n/a	5	0	n/a	n/a	n/a	n/a	n/a
4260.956	n/a	RECOG_TARGET	2130478	n/a	LTP282	ltpFR	2	2	0	CART	250	1	5	1	n/a	n/a	n/a	n/a	n/a
4261.738	n/a	RECOG_RESP	2130869	n/a	LTP282	ltpFR	2	2	0	CART	250	1	n/a	1	n/a	n/a	n/a	n/a	n/a
4262.608	n/a	RECOG_CONF	2131304	n/a	LTP282	ltpFR	2	2	0	CART	250	n/a	5	1	n/a	n/a	n/a	n/a	n/a
4264.286	n/a	RECOG_LURE	2132143	n/a	LTP282	ltpFR	2	2	n/a	TELEVISION	1447	0	3	n/a	n/a	n/a	n/a	n/a	n/a
4264.994	n/a	RECOG_RESP	2132497	n/a	LTP282	ltpFR	2	2	n/a	TELEVISION	1447	0	n/a	n/a	n/a	n/a	n/a	n/a	n/a
4265.828	n/a	RECOG_CONF	2132914	n/a	LTP282	ltpFR	2	2	n/a	TELEVISION	1447	n/a	3	n/a	n/a	n/a	n/a	n/a	n/a
4273.568	n/a	REC_START	2136784	n/a	LTP282	ltpFR	2	3	n/a	n/a	n/a	n/a	n/a	n/a	n/a	n/a	n/a	n/a	n/a
4273.622	n/a	RECOG_TARGET	2136811	n/a	LTP282	ltpFR	2	3	1	GOOSE	649	1	5	1	n/a	n/a	n/a	n/a	n/a
4274.328	n/a	RECOG_RESP	2137164	n/a	LTP282	ltpFR	2	3	1	GOOSE	649	1	n/a	1	n/a	n/a	n/a	n/a	n/a
4275.188	n/a	RECOG_CONF	2137594	n/a	LTP282	ltpFR	2	3	1	GOOSE	649	n/a	5	1	n/a	n/a	n/a	n/a	n/a
4276.85	n/a	RECOG_TARGET	2138425	n/a	LTP282	ltpFR	2	3	1	THIGH	1457	1	5	1	n/a	n/a	n/a	n/a	n/a
4277.418	n/a	RECOG_RESP	2138709	n/a	LTP282	ltpFR	2	3	1	THIGH	1457	1	n/a	1	n/a	n/a	n/a	n/a	n/a
4277.968	n/a	RECOG_CONF	2138984	n/a	LTP282	ltpFR	2	3	1	THIGH	1457	n/a	5	1	n/a	n/a	n/a	n/a	n/a
4279.946	n/a	RECOG_TARGET	2139973	n/a	LTP282	ltpFR	2	3	0	CHOCOLATE	306	0	2	0	n/a	n/a	n/a	n/a	n/a
4280.628	n/a	RECOG_RESP	2140314	n/a	LTP282	ltpFR	2	3	0	CHOCOLATE	306	0	n/a	0	n/a	n/a	n/a	n/a	n/a
4281.618	n/a	RECOG_CONF	2140809	n/a	LTP282	ltpFR	2	3	0	CHOCOLATE	306	n/a	2	0	n/a	n/a	n/a	n/a	n/a
4283.426	n/a	RECOG_TARGET	2141713	n/a	LTP282	ltpFR	2	3	0	RIVER	1194	1	2	1	n/a	n/a	n/a	n/a	n/a
4283.958	n/a	RECOG_RESP	2141979	n/a	LTP282	ltpFR	2	3	0	RIVER	1194	1	n/a	1	n/a	n/a	n/a	n/a	n/a
4284.808	n/a	RECOG_CONF	2142404	n/a	LTP282	ltpFR	2	3	0	RIVER	1194	n/a	2	1	n/a	n/a	n/a	n/a	n/a
4286.604	n/a	RECOG_LURE	2143302	n/a	LTP282	ltpFR	2	3	n/a	DIARY	460	0	5	n/a	n/a	n/a	n/a	n/a	n/a
4287.294	n/a	RECOG_RESP	2143647	n/a	LTP282	ltpFR	2	3	n/a	DIARY	460	0	n/a	n/a	n/a	n/a	n/a	n/a	n/a
4287.988	n/a	RECOG_CONF	2143994	n/a	LTP282	ltpFR	2	3	n/a	DIARY	460	n/a	5	n/a	n/a	n/a	n/a	n/a	n/a
4289.902	n/a	RECOG_LURE	2144951	n/a	LTP282	ltpFR	2	3	n/a	TRIGGER	1507	0	5	n/a	n/a	n/a	n/a	n/a	n/a
4290.51	n/a	RECOG_RESP	2145255	n/a	LTP282	ltpFR	2	3	n/a	TRIGGER	1507	0	n/a	n/a	n/a	n/a	n/a	n/a	n/a
4291.01	n/a	RECOG_CONF	2145505	n/a	LTP282	ltpFR	2	3	n/a	TRIGGER	1507	n/a	5	n/a	n/a	n/a	n/a	n/a	n/a
4293.064	n/a	RECOG_LURE	2146532	n/a	LTP282	ltpFR	2	3	n/a	TAPIOCA	1434	0	5	n/a	n/a	n/a	n/a	n/a	n/a
4293.744	n/a	RECOG_RESP	2146872	n/a	LTP282	ltpFR	2	3	n/a	TAPIOCA	1434	0	n/a	n/a	n/a	n/a	n/a	n/a	n/a
4295.03	n/a	RECOG_CONF	2147515	n/a	LTP282	ltpFR	2	3	n/a	TAPIOCA	1434	n/a	5	n/a	n/a	n/a	n/a	n/a	n/a
4296.828	n/a	RECOG_TARGET	2148414	n/a	LTP282	ltpFR	2	3	0	ROBOT	1200	1	5	1	n/a	n/a	n/a	n/a	n/a
4297.6	n/a	RECOG_RESP	2148800	n/a	LTP282	ltpFR	2	3	0	ROBOT	1200	1	n/a	1	n/a	n/a	n/a	n/a	n/a
4298.36	n/a	RECOG_CONF	2149180	n/a	LTP282	ltpFR	2	3	0	ROBOT	1200	n/a	5	1	n/a	n/a	n/a	n/a	n/a
4300.04	n/a	RECOG_TARGET	2150020	n/a	LTP282	ltpFR	2	3	0	BOAT	144	1	5	1	n/a	n/a	n/a	n/a	n/a
4301.44	n/a	RECOG_RESP	2150720	n/a	LTP282	ltpFR	2	3	0	BOAT	144	1	n/a	1	n/a	n/a	n/a	n/a	n/a
4302.4	n/a	RECOG_CONF	2151200	n/a	LTP282	ltpFR	2	3	0	BOAT	144	n/a	5	1	n/a	n/a	n/a	n/a	n/a
4304.19	n/a	RECOG_TARGET	2152095	n/a	LTP282	ltpFR	2	3	0	PEPPER	1047	1	5	0	n/a	n/a	n/a	n/a	n/a
4304.77	n/a	RECOG_RESP	2152385	n/a	LTP282	ltpFR	2	3	0	PEPPER	1047	1	n/a	0	n/a	n/a	n/a	n/a	n/a
4305.63	n/a	RECOG_CONF	2152815	n/a	LTP282	ltpFR	2	3	0	PEPPER	1047	n/a	5	0	n/a	n/a	n/a	n/a	n/a
4307.384	n/a	RECOG_TARGET	2153692	n/a	LTP282	ltpFR	2	3	1	CAMERA	224	1	5	0	n/a	n/a	n/a	n/a	n/a
4308.14	n/a	RECOG_RESP	2154070	n/a	LTP282	ltpFR	2	3	1	CAMERA	224	1	n/a	0	n/a	n/a	n/a	n/a	n/a
4308.97	n/a	RECOG_CONF	2154485	n/a	LTP282	ltpFR	2	3	1	CAMERA	224	n/a	5	0	n/a	n/a	n/a	n/a	n/a
4310.63	n/a	RECOG_TARGET	2155315	n/a	LTP282	ltpFR	2	3	1	VESSEL	1558	1	4	0	n/a	n/a	n/a	n/a	n/a
4311.17	n/a	RECOG_RESP	2155585	n/a	LTP282	ltpFR	2	3	1	VESSEL	1558	1	n/a	0	n/a	n/a	n/a	n/a	n/a
4311.99	n/a	RECOG_CONF	2155995	n/a	LTP282	ltpFR	2	3	1	VESSEL	1558	n/a	4	0	n/a	n/a	n/a	n/a	n/a
4313.758	n/a	RECOG_TARGET	2156879	n/a	LTP282	ltpFR	2	3	-1	HANDBAG	684	1	5	-1	n/a	n/a	n/a	n/a	n/a
4314.36	n/a	RECOG_RESP	2157180	n/a	LTP282	ltpFR	2	3	-1	HANDBAG	684	1	n/a	-1	n/a	n/a	n/a	n/a	n/a
4315.09	n/a	RECOG_CONF	2157545	n/a	LTP282	ltpFR	2	3	-1	HANDBAG	684	n/a	5	-1	n/a	n/a	n/a	n/a	n/a
4316.754	n/a	RECOG_TARGET	2158377	n/a	LTP282	ltpFR	2	3	1	RABBIT	1152	1	5	1	n/a	n/a	n/a	n/a	n/a
4317.31	n/a	RECOG_RESP	2158655	n/a	LTP282	ltpFR	2	3	1	RABBIT	1152	1	n/a	1	n/a	n/a	n/a	n/a	n/a
4318.1	n/a	RECOG_CONF	2159050	n/a	LTP282	ltpFR	2	3	1	RABBIT	1152	n/a	5	1	n/a	n/a	n/a	n/a	n/a
4319.966	n/a	RECOG_TARGET	2159983	n/a	LTP282	ltpFR	2	3	1	CHAMBER	277	1	3	0	n/a	n/a	n/a	n/a	n/a
4320.83	n/a	RECOG_RESP	2160415	n/a	LTP282	ltpFR	2	3	1	CHAMBER	277	1	n/a	0	n/a	n/a	n/a	n/a	n/a
4321.76	n/a	RECOG_CONF	2160880	n/a	LTP282	ltpFR	2	3	1	CHAMBER	277	n/a	3	0	n/a	n/a	n/a	n/a	n/a
4323.528	n/a	RECOG_TARGET	2161764	n/a	LTP282	ltpFR	2	3	-1	TURKEY	1520	1	3	-1	n/a	n/a	n/a	n/a	n/a
4324.116	n/a	RECOG_RESP	2162058	n/a	LTP282	ltpFR	2	3	-1	TURKEY	1520	1	n/a	-1	n/a	n/a	n/a	n/a	n/a
4324.95	n/a	RECOG_CONF	2162475	n/a	LTP282	ltpFR	2	3	-1	TURKEY	1520	n/a	3	-1	n/a	n/a	n/a	n/a	n/a
4326.638	n/a	RECOG_TARGET	2163319	n/a	LTP282	ltpFR	2	3	1	COMPASS	358	1	4	0	n/a	n/a	n/a	n/a	n/a
4327.186	n/a	RECOG_RESP	2163593	n/a	LTP282	ltpFR	2	3	1	COMPASS	358	1	n/a	0	n/a	n/a	n/a	n/a	n/a
4328.022	n/a	RECOG_CONF	2164011	n/a	LTP282	ltpFR	2	3	1	COMPASS	358	n/a	4	0	n/a	n/a	n/a	n/a	n/a
4329.854	n/a	RECOG_LURE	2164927	n/a	LTP282	ltpFR	2	3	n/a	CAN	225	0	3	n/a	n/a	n/a	n/a	n/a	n/a
4330.586	n/a	RECOG_RESP	2165293	n/a	LTP282	ltpFR	2	3	n/a	CAN	225	0	n/a	n/a	n/a	n/a	n/a	n/a	n/a
4331.612	n/a	RECOG_CONF	2165806	n/a	LTP282	ltpFR	2	3	n/a	CAN	225	n/a	3	n/a	n/a	n/a	n/a	n/a	n/a
4333.35	n/a	RECOG_TARGET	2166675	n/a	LTP282	ltpFR	2	3	1	COMET	353	1	5	0	n/a	n/a	n/a	n/a	n/a
4334.066	n/a	RECOG_RESP	2167033	n/a	LTP282	ltpFR	2	3	1	COMET	353	1	n/a	0	n/a	n/a	n/a	n/a	n/a
4334.932	n/a	RECOG_CONF	2167466	n/a	LTP282	ltpFR	2	3	1	COMET	353	n/a	5	0	n/a	n/a	n/a	n/a	n/a
4336.646	n/a	RECOG_TARGET	2168323	n/a	LTP282	ltpFR	2	3	0	ALMOND	18	1	3	0	n/a	n/a	n/a	n/a	n/a
4337.226	n/a	RECOG_RESP	2168613	n/a	LTP282	ltpFR	2	3	0	ALMOND	18	1	n/a	0	n/a	n/a	n/a	n/a	n/a
4338.312	n/a	RECOG_CONF	2169156	n/a	LTP282	ltpFR	2	3	0	ALMOND	18	n/a	3	0	n/a	n/a	n/a	n/a	n/a
4350.21	n/a	REC_START	2175105	n/a	LTP282	ltpFR	2	4	n/a	n/a	n/a	n/a	n/a	n/a	n/a	n/a	n/a	n/a	n/a
4350.264	n/a	RECOG_TARGET	2175132	n/a	LTP282	ltpFR	2	4	1	TREAT	1501	0	3	0	n/a	n/a	n/a	n/a	n/a
4351.06	n/a	RECOG_RESP	2175530	n/a	LTP282	ltpFR	2	4	1	TREAT	1501	0	n/a	0	n/a	n/a	n/a	n/a	n/a
4351.96	n/a	RECOG_CONF	2175980	n/a	LTP282	ltpFR	2	4	1	TREAT	1501	n/a	3	0	n/a	n/a	n/a	n/a	n/a
4353.728	n/a	RECOG_TARGET	2176864	n/a	LTP282	ltpFR	2	4	1	TIDE	1465	1	5	1	n/a	n/a	n/a	n/a	n/a
4354.4	n/a	RECOG_RESP	2177200	n/a	LTP282	ltpFR	2	4	1	TIDE	1465	1	n/a	1	n/a	n/a	n/a	n/a	n/a
4355.12	n/a	RECOG_CONF	2177560	n/a	LTP282	ltpFR	2	4	1	TIDE	1465	n/a	5	1	n/a	n/a	n/a	n/a	n/a
4356.924	n/a	RECOG_TARGET	2178462	n/a	LTP282	ltpFR	2	4	1	HOSE	720	1	5	0	n/a	n/a	n/a	n/a	n/a
4357.55	n/a	RECOG_RESP	2178775	n/a	LTP282	ltpFR	2	4	1	HOSE	720	1	n/a	0	n/a	n/a	n/a	n/a	n/a
4358.38	n/a	RECOG_CONF	2179190	n/a	LTP282	ltpFR	2	4	1	HOSE	720	n/a	5	0	n/a	n/a	n/a	n/a	n/a
4360.154	n/a	RECOG_TARGET	2180077	n/a	LTP282	ltpFR	2	4	0	PILOT	1070	1	5	1	n/a	n/a	n/a	n/a	n/a
4360.68	n/a	RECOG_RESP	2180340	n/a	LTP282	ltpFR	2	4	0	PILOT	1070	1	n/a	1	n/a	n/a	n/a	n/a	n/a
4361.58	n/a	RECOG_CONF	2180790	n/a	LTP282	ltpFR	2	4	0	PILOT	1070	n/a	5	1	n/a	n/a	n/a	n/a	n/a
4363.364	n/a	RECOG_LURE	2181682	n/a	LTP282	ltpFR	2	4	n/a	HAWK	692	0	3	n/a	n/a	n/a	n/a	n/a	n/a
4364.214	n/a	RECOG_RESP	2182107	n/a	LTP282	ltpFR	2	4	n/a	HAWK	692	0	n/a	n/a	n/a	n/a	n/a	n/a	n/a
4365.15	n/a	RECOG_CONF	2182575	n/a	LTP282	ltpFR	2	4	n/a	HAWK	692	n/a	3	n/a	n/a	n/a	n/a	n/a	n/a
4366.846	n/a	RECOG_LURE	2183423	n/a	LTP282	ltpFR	2	4	n/a	COUNTRY	388	1	2	n/a	n/a	n/a	n/a	n/a	n/a
4367.446	n/a	RECOG_RESP	2183723	n/a	LTP282	ltpFR	2	4	n/a	COUNTRY	388	1	n/a	n/a	n/a	n/a	n/a	n/a	n/a
4368.36	n/a	RECOG_CONF	2184180	n/a	LTP282	ltpFR	2	4	n/a	COUNTRY	388	n/a	2	n/a	n/a	n/a	n/a	n/a	n/a
4370.226	n/a	RECOG_TARGET	2185113	n/a	LTP282	ltpFR	2	4	0	OFFICE	972	1	5	1	n/a	n/a	n/a	n/a	n/a
4370.866	n/a	RECOG_RESP	2185433	n/a	LTP282	ltpFR	2	4	0	OFFICE	972	1	n/a	1	n/a	n/a	n/a	n/a	n/a
4371.72	n/a	RECOG_CONF	2185860	n/a	LTP282	ltpFR	2	4	0	OFFICE	972	n/a	5	1	n/a	n/a	n/a	n/a	n/a
4373.536	n/a	RECOG_TARGET	2186768	n/a	LTP282	ltpFR	2	4	-1	OCEAN	970	0	2	-1	n/a	n/a	n/a	n/a	n/a
4375.446	n/a	RECOG_RESP	2187723	n/a	LTP282	ltpFR	2	4	-1	OCEAN	970	0	n/a	-1	n/a	n/a	n/a	n/a	n/a
4376.47	n/a	RECOG_CONF	2188235	n/a	LTP282	ltpFR	2	4	-1	OCEAN	970	n/a	2	-1	n/a	n/a	n/a	n/a	n/a
4378.272	n/a	RECOG_TARGET	2189136	n/a	LTP282	ltpFR	2	4	0	TELESCOPE	1446	1	5	1	n/a	n/a	n/a	n/a	n/a
4378.95	n/a	RECOG_RESP	2189475	n/a	LTP282	ltpFR	2	4	0	TELESCOPE	1446	1	n/a	1	n/a	n/a	n/a	n/a	n/a
4379.66	n/a	RECOG_CONF	2189830	n/a	LTP282	ltpFR	2	4	0	TELESCOPE	1446	n/a	5	1	n/a	n/a	n/a	n/a	n/a
4381.334	n/a	RECOG_TARGET	2190667	n/a	LTP282	ltpFR	2	4	0	RASPBERRY	1168	1	5	0	n/a	n/a	n/a	n/a	n/a
4381.846	n/a	RECOG_RESP	2190923	n/a	LTP282	ltpFR	2	4	0	RASPBERRY	1168	1	n/a	0	n/a	n/a	n/a	n/a	n/a
4382.51	n/a	RECOG_CONF	2191255	n/a	LTP282	ltpFR	2	4	0	RASPBERRY	1168	n/a	5	0	n/a	n/a	n/a	n/a	n/a
4384.146	n/a	RECOG_TARGET	2192073	n/a	LTP282	ltpFR	2	4	1	COMMUNITY	356	1	5	1	n/a	n/a	n/a	n/a	n/a
4385.352	n/a	RECOG_RESP	2192676	n/a	LTP282	ltpFR	2	4	1	COMMUNITY	356	1	n/a	1	n/a	n/a	n/a	n/a	n/a
4386.162	n/a	RECOG_CONF	2193081	n/a	LTP282	ltpFR	2	4	1	COMMUNITY	356	n/a	5	1	n/a	n/a	n/a	n/a	n/a
4387.806	n/a	RECOG_TARGET	2193903	n/a	LTP282	ltpFR	2	4	-1	RACK	1154	1	5	-1	n/a	n/a	n/a	n/a	n/a
4388.442	n/a	RECOG_RESP	2194221	n/a	LTP282	ltpFR	2	4	-1	RACK	1154	1	n/a	-1	n/a	n/a	n/a	n/a	n/a
4389.182	n/a	RECOG_CONF	2194591	n/a	LTP282	ltpFR	2	4	-1	RACK	1154	n/a	5	-1	n/a	n/a	n/a	n/a	n/a
4390.852	n/a	RECOG_TARGET	2195426	n/a	LTP282	ltpFR	2	4	0	MARSH	874	1	2	1	n/a	n/a	n/a	n/a	n/a
4391.802	n/a	RECOG_RESP	2195901	n/a	LTP282	ltpFR	2	4	0	MARSH	874	1	n/a	1	n/a	n/a	n/a	n/a	n/a
4392.652	n/a	RECOG_CONF	2196326	n/a	LTP282	ltpFR	2	4	0	MARSH	874	n/a	2	1	n/a	n/a	n/a	n/a	n/a
4394.518	n/a	RECOG_TARGET	2197259	n/a	LTP282	ltpFR	2	4	0	BERRY	122	1	5	0	n/a	n/a	n/a	n/a	n/a
4395.132	n/a	RECOG_RESP	2197566	n/a	LTP282	ltpFR	2	4	0	BERRY	122	1	n/a	0	n/a	n/a	n/a	n/a	n/a
4395.662	n/a	RECOG_CONF	2197831	n/a	LTP282	ltpFR	2	4	0	BERRY	122	n/a	5	0	n/a	n/a	n/a	n/a	n/a
4397.612	n/a	RECOG_TARGET	2198806	n/a	LTP282	ltpFR	2	4	1	CRAB	397	1	5	1	n/a	n/a	n/a	n/a	n/a
4398.192	n/a	RECOG_RESP	2199096	n/a	LTP282	ltpFR	2	4	1	CRAB	397	1	n/a	1	n/a	n/a	n/a	n/a	n/a
4398.892	n/a	RECOG_CONF	2199446	n/a	LTP282	ltpFR	2	4	1	CRAB	397	n/a	5	1	n/a	n/a	n/a	n/a	n/a
4400.674	n/a	RECOG_TARGET	2200337	n/a	LTP282	ltpFR	2	4	1	UNIVERSE	1540	1	5	0	n/a	n/a	n/a	n/a	n/a
4401.382	n/a	RECOG_RESP	2200691	n/a	LTP282	ltpFR	2	4	1	UNIVERSE	1540	1	n/a	0	n/a	n/a	n/a	n/a	n/a
4401.972	n/a	RECOG_CONF	2200986	n/a	LTP282	ltpFR	2	4	1	UNIVERSE	1540	n/a	5	0	n/a	n/a	n/a	n/a	n/a
4403.97	n/a	RECOG_LURE	2201985	n/a	LTP282	ltpFR	2	4	n/a	BULL	193	0	3	n/a	n/a	n/a	n/a	n/a	n/a
4404.852	n/a	RECOG_RESP	2202426	n/a	LTP282	ltpFR	2	4	n/a	BULL	193	0	n/a	n/a	n/a	n/a	n/a	n/a	n/a
4405.702	n/a	RECOG_CONF	2202851	n/a	LTP282	ltpFR	2	4	n/a	BULL	193	n/a	3	n/a	n/a	n/a	n/a	n/a	n/a
4407.466	n/a	RECOG_TARGET	2203733	n/a	LTP282	ltpFR	2	4	-1	SAW	1239	1	5	-1	n/a	n/a	n/a	n/a	n/a
4408.052	n/a	RECOG_RESP	2204026	n/a	LTP282	ltpFR	2	4	-1	SAW	1239	1	n/a	-1	n/a	n/a	n/a	n/a	n/a
4408.812	n/a	RECOG_CONF	2204406	n/a	LTP282	ltpFR	2	4	-1	SAW	1239	n/a	5	-1	n/a	n/a	n/a	n/a	n/a
