onset	duration	trial_type	sample	stim_file	subject	experiment	session	trial	task	item_name	item_num	recog_resp	recog_conf	resp	answer	test_x	test_y	test_z	color_r	color_g	color_b	case	font
282.264	n/a	SESS_START	141132	n/a	LTP122	ltpFR	13	n/a	n/a	n/a	n/a	1	n/a	n/a	n/a	0	0	0	n/a	n/a	n/a	n/a	n/a
306.454	n/a	START	153227	n/a	LTP122	ltpFR	13	n/a	n/a	n/a	n/a	n/a	n/a	n/a	n/a	n/a	n/a	n/a	n/a	n/a	n/a	n/a	n/a
306.478	n/a	PROB	153239	n/a	LTP122	ltpFR	13	n/a	n/a	n/a	n/a	n/a	n/a	n/a	22	8	5	9	n/a	n/a	n/a	n/a	n/a
310.666	n/a	PROB	155333	n/a	LTP122	ltpFR	13	n/a	n/a	n/a	n/a	n/a	n/a	n/a	17	3	8	6	n/a	n/a	n/a	n/a	n/a
313.312	n/a	PROB	156656	n/a	LTP122	ltpFR	13	n/a	n/a	n/a	n/a	n/a	n/a	n/a	14	1	5	8	n/a	n/a	n/a	n/a	n/a
314.87	n/a	PROB	157435	n/a	LTP122	ltpFR	13	n/a	n/a	n/a	n/a	n/a	n/a	n/a	10	3	4	3	n/a	n/a	n/a	n/a	n/a
316.518	n/a	PROB	158259	n/a	LTP122	ltpFR	13	n/a	n/a	n/a	n/a	n/a	n/a	n/a	112	2	9	1	n/a	n/a	n/a	n/a	n/a
318.432	n/a	PROB	159216	n/a	LTP122	ltpFR	13	n/a	n/a	n/a	n/a	n/a	n/a	n/a	24	7	8	9	n/a	n/a	n/a	n/a	n/a
321.404	n/a	PROB	160702	n/a	LTP122	ltpFR	13	n/a	n/a	n/a	n/a	n/a	n/a	n/a	13	7	1	5	n/a	n/a	n/a	n/a	n/a
322.768	n/a	PROB	161384	n/a	LTP122	ltpFR	13	n/a	n/a	n/a	n/a	n/a	n/a	n/a	13	4	7	2	n/a	n/a	n/a	n/a	n/a
324.984	n/a	STOP	162492	n/a	LTP122	ltpFR	13	n/a	n/a	n/a	n/a	n/a	n/a	n/a	n/a	n/a	n/a	n/a	n/a	n/a	n/a	n/a	n/a
351.46	n/a	WORD	175730	wordpools/wasnorm_wordpool.txt	LTP122	ltpFR	13	1	1	DRESS	495	n/a	n/a	0	n/a	0	0	0	0.422607421875	0.5869140625	0	upper	amplitud.ttf
355.588	n/a	WORD	177794	wordpools/wasnorm_wordpool.txt	LTP122	ltpFR	13	1	1	PEOPLE	1046	n/a	n/a	1	n/a	0	0	0	0.422607421875	0.5869140625	0	upper	amplitud.ttf
359.558	n/a	WORD	179779	wordpools/wasnorm_wordpool.txt	LTP122	ltpFR	13	1	0	PERSON	1052	n/a	n/a	1	n/a	0	0	0	0.57763671875	0.412841796875	1	lower	zerothre.ttf
363.762	n/a	WORD	181881	wordpools/wasnorm_wordpool.txt	LTP122	ltpFR	13	1	0	CAVE	263	n/a	n/a	1	n/a	0	0	0	0.57763671875	0.412841796875	1	lower	zerothre.ttf
367.958	n/a	WORD	183979	wordpools/wasnorm_wordpool.txt	LTP122	ltpFR	13	1	0	ANKLE	24	n/a	n/a	0	n/a	0	0	0	0.57763671875	0.412841796875	1	lower	zerothre.ttf
372.086	n/a	WORD	186043	wordpools/wasnorm_wordpool.txt	LTP122	ltpFR	13	1	0	MATTRESS	879	n/a	n/a	1	n/a	0	0	0	0.57763671875	0.412841796875	1	lower	zerothre.ttf
376.222	n/a	WORD	188111	wordpools/wasnorm_wordpool.txt	LTP122	ltpFR	13	1	0	FUNGUS	614	n/a	n/a	0	n/a	0	0	0	0.57763671875	0.412841796875	1	lower	zerothre.ttf
380.402	n/a	WORD	190201	wordpools/wasnorm_wordpool.txt	LTP122	ltpFR	13	1	1	HEEL	700	n/a	n/a	0	n/a	0	0	0	0.422607421875	0.5869140625	0	upper	amplitud.ttf
384.388	n/a	WORD	192194	wordpools/wasnorm_wordpool.txt	LTP122	ltpFR	13	1	1	JOURNAL	760	n/a	n/a	0	n/a	0	0	0	0.422607421875	0.5869140625	0	upper	amplitud.ttf
388.494	n/a	WORD	194247	wordpools/wasnorm_wordpool.txt	LTP122	ltpFR	13	1	1	TANK	1432	n/a	n/a	0	n/a	0	0	0	0.422607421875	0.5869140625	0	upper	amplitud.ttf
392.488	n/a	WORD	196244	wordpools/wasnorm_wordpool.txt	LTP122	ltpFR	13	1	1	FAUCET	555	n/a	n/a	0	n/a	0	0	0	0.422607421875	0.5869140625	0	upper	amplitud.ttf
396.55	n/a	WORD	198275	wordpools/wasnorm_wordpool.txt	LTP122	ltpFR	13	1	0	LIZARD	834	n/a	n/a	0	n/a	0	0	0	0.57763671875	0.412841796875	1	lower	zerothre.ttf
400.52	n/a	WORD	200260	wordpools/wasnorm_wordpool.txt	LTP122	ltpFR	13	1	0	ALMANAC	17	n/a	n/a	1	n/a	0	0	0	0.57763671875	0.412841796875	1	lower	zerothre.ttf
404.4	n/a	WORD	202200	wordpools/wasnorm_wordpool.txt	LTP122	ltpFR	13	1	0	AUTHOR	61	n/a	n/a	1	n/a	0	0	0	0.57763671875	0.412841796875	1	lower	zerothre.ttf
408.286	n/a	WORD	204143	wordpools/wasnorm_wordpool.txt	LTP122	ltpFR	13	1	1	SCRIBBLE	1256	n/a	n/a	0	n/a	0	0	0	0.422607421875	0.5869140625	0	upper	amplitud.ttf
412.49	n/a	WORD	206245	wordpools/wasnorm_wordpool.txt	LTP122	ltpFR	13	1	1	LADY	794	n/a	n/a	1	n/a	0	0	0	0.422607421875	0.5869140625	0	upper	amplitud.ttf
415.496	n/a	START	207748	n/a	LTP122	ltpFR	13	n/a	n/a	n/a	n/a	n/a	n/a	n/a	n/a	n/a	n/a	n/a	n/a	n/a	n/a	n/a	n/a
416.352	n/a	PROB	208176	n/a	LTP122	ltpFR	13	n/a	n/a	n/a	n/a	n/a	n/a	n/a	11	2	6	3	n/a	n/a	n/a	n/a	n/a
418.308	n/a	PROB	209154	n/a	LTP122	ltpFR	13	n/a	n/a	n/a	n/a	n/a	n/a	n/a	8	2	4	2	n/a	n/a	n/a	n/a	n/a
420.032	n/a	PROB	210016	n/a	LTP122	ltpFR	13	n/a	n/a	n/a	n/a	n/a	n/a	n/a	16	5	6	5	n/a	n/a	n/a	n/a	n/a
422.21	n/a	STOP	211105	n/a	LTP122	ltpFR	13	n/a	n/a	n/a	n/a	n/a	n/a	n/a	n/a	n/a	n/a	n/a	n/a	n/a	n/a	n/a	n/a
425.292	n/a	REC_START	212646	n/a	LTP122	ltpFR	13	1	n/a	n/a	n/a	n/a	n/a	n/a	n/a	0	0	0	n/a	n/a	n/a	n/a	n/a
427.208	n/a	REC_WORD	213604	wordpools/wasnorm_wordpool.txt	LTP122	ltpFR	13	1	1	DRESS	495	n/a	n/a	0	n/a	0	0	0	n/a	n/a	n/a	n/a	n/a
428.196	n/a	REC_WORD	214098	wordpools/wasnorm_wordpool.txt	LTP122	ltpFR	13	1	1	PEOPLE	1046	n/a	n/a	1	n/a	0	0	0	n/a	n/a	n/a	n/a	n/a
429.108	n/a	REC_WORD	214554	wordpools/wasnorm_wordpool.txt	LTP122	ltpFR	13	1	0	PERSON	1052	n/a	n/a	1	n/a	0	0	0	n/a	n/a	n/a	n/a	n/a
429.906	n/a	REC_WORD	214953	wordpools/wasnorm_wordpool.txt	LTP122	ltpFR	13	1	0	MATTRESS	879	n/a	n/a	1	n/a	0	0	0	n/a	n/a	n/a	n/a	n/a
432.442	n/a	REC_WORD	216221	wordpools/wasnorm_wordpool.txt	LTP122	ltpFR	13	1	1	TANK	1432	n/a	n/a	0	n/a	0	0	0	n/a	n/a	n/a	n/a	n/a
432.89	n/a	REC_WORD	216445	wordpools/wasnorm_wordpool.txt	LTP122	ltpFR	13	1	1	FAUCET	555	n/a	n/a	0	n/a	0	0	0	n/a	n/a	n/a	n/a	n/a
433.692	n/a	REC_WORD	216846	wordpools/wasnorm_wordpool.txt	LTP122	ltpFR	13	1	0	LIZARD	834	n/a	n/a	0	n/a	0	0	0	n/a	n/a	n/a	n/a	n/a
437.924	n/a	REC_WORD	218962	wordpools/wasnorm_wordpool.txt	LTP122	ltpFR	13	1	0	ANKLE	24	n/a	n/a	0	n/a	0	0	0	n/a	n/a	n/a	n/a	n/a
438.664	n/a	REC_WORD	219332	wordpools/wasnorm_wordpool.txt	LTP122	ltpFR	13	1	0	FUNGUS	614	n/a	n/a	0	n/a	0	0	0	n/a	n/a	n/a	n/a	n/a
439.654	n/a	REC_WORD	219827	wordpools/wasnorm_wordpool.txt	LTP122	ltpFR	13	1	1	HEEL	700	n/a	n/a	0	n/a	0	0	0	n/a	n/a	n/a	n/a	n/a
441.684	n/a	REC_WORD	220842	wordpools/wasnorm_wordpool.txt	LTP122	ltpFR	13	1	1	LADY	794	n/a	n/a	1	n/a	0	0	0	n/a	n/a	n/a	n/a	n/a
443.392	n/a	REC_WORD	221696	wordpools/wasnorm_wordpool.txt	LTP122	ltpFR	13	1	0	AUTHOR	61	n/a	n/a	1	n/a	0	0	0	n/a	n/a	n/a	n/a	n/a
444.404	n/a	REC_WORD	222202	wordpools/wasnorm_wordpool.txt	LTP122	ltpFR	13	1	1	JOURNAL	760	n/a	n/a	0	n/a	0	0	0	n/a	n/a	n/a	n/a	n/a
445.152	n/a	REC_WORD	222576	wordpools/wasnorm_wordpool.txt	LTP122	ltpFR	13	1	1	SCRIBBLE	1256	n/a	n/a	0	n/a	0	0	0	n/a	n/a	n/a	n/a	n/a
455.914	n/a	REC_WORD	227957	wordpools/wasnorm_wordpool.txt	LTP122	ltpFR	13	1	0	MATTRESS	879	n/a	n/a	1	n/a	0	0	0	n/a	n/a	n/a	n/a	n/a
463.7	n/a	REC_WORD	231850	wordpools/wasnorm_wordpool.txt	LTP122	ltpFR	13	1	0	AUTHOR	61	n/a	n/a	1	n/a	0	0	0	n/a	n/a	n/a	n/a	n/a
474.622	n/a	REC_WORD	237311	wordpools/wasnorm_wordpool.txt	LTP122	ltpFR	13	1	0	CAVE	263	n/a	n/a	1	n/a	0	0	0	n/a	n/a	n/a	n/a	n/a
506.698	n/a	START	253349	n/a	LTP122	ltpFR	13	n/a	n/a	n/a	n/a	n/a	n/a	n/a	n/a	n/a	n/a	n/a	n/a	n/a	n/a	n/a	n/a
508.206	n/a	PROB	254103	n/a	LTP122	ltpFR	13	n/a	n/a	n/a	n/a	n/a	n/a	n/a	16	6	1	9	n/a	n/a	n/a	n/a	n/a
510.078	n/a	PROB	255039	n/a	LTP122	ltpFR	13	n/a	n/a	n/a	n/a	n/a	n/a	n/a	14	5	4	5	n/a	n/a	n/a	n/a	n/a
511.56	n/a	PROB	255780	n/a	LTP122	ltpFR	13	n/a	n/a	n/a	n/a	n/a	n/a	n/a	11	2	6	3	n/a	n/a	n/a	n/a	n/a
513.426	n/a	STOP	256713	n/a	LTP122	ltpFR	13	n/a	n/a	n/a	n/a	n/a	n/a	n/a	n/a	n/a	n/a	n/a	n/a	n/a	n/a	n/a	n/a
515.754	n/a	WORD	257877	wordpools/wasnorm_wordpool.txt	LTP122	ltpFR	13	2	0	BARRACUDA	90	n/a	n/a	1	n/a	0	0	0	0.57763671875	0.412841796875	1	lower	zerothre.ttf
518.76	n/a	START	259380	n/a	LTP122	ltpFR	13	n/a	n/a	n/a	n/a	n/a	n/a	n/a	n/a	n/a	n/a	n/a	n/a	n/a	n/a	n/a	n/a
519.782	n/a	PROB	259891	n/a	LTP122	ltpFR	13	n/a	n/a	n/a	n/a	n/a	n/a	n/a	18	1	9	8	n/a	n/a	n/a	n/a	n/a
521.356	n/a	PROB	260678	n/a	LTP122	ltpFR	13	n/a	n/a	n/a	n/a	n/a	n/a	n/a	18	7	2	9	n/a	n/a	n/a	n/a	n/a
523.13	n/a	PROB	261565	n/a	LTP122	ltpFR	13	n/a	n/a	n/a	n/a	n/a	n/a	n/a	17	4	4	9	n/a	n/a	n/a	n/a	n/a
524.652	n/a	PROB	262326	n/a	LTP122	ltpFR	13	n/a	n/a	n/a	n/a	n/a	n/a	n/a	19	5	9	5	n/a	n/a	n/a	n/a	n/a
526.154	n/a	STOP	263077	n/a	LTP122	ltpFR	13	n/a	n/a	n/a	n/a	n/a	n/a	n/a	n/a	n/a	n/a	n/a	n/a	n/a	n/a	n/a	n/a
527.858	n/a	WORD	263929	wordpools/wasnorm_wordpool.txt	LTP122	ltpFR	13	2	0	COD	340	n/a	n/a	0	n/a	0	0	0	0.57763671875	0.412841796875	1	lower	zerothre.ttf
530.862	n/a	START	265431	n/a	LTP122	ltpFR	13	n/a	n/a	n/a	n/a	n/a	n/a	n/a	n/a	n/a	n/a	n/a	n/a	n/a	n/a	n/a	n/a
531.82	n/a	PROB	265910	n/a	LTP122	ltpFR	13	n/a	n/a	n/a	n/a	n/a	n/a	n/a	17	4	5	8	n/a	n/a	n/a	n/a	n/a
533.958	n/a	PROB	266979	n/a	LTP122	ltpFR	13	n/a	n/a	n/a	n/a	n/a	n/a	n/a	19	2	8	9	n/a	n/a	n/a	n/a	n/a
538.862	n/a	STOP	269431	n/a	LTP122	ltpFR	13	n/a	n/a	n/a	n/a	n/a	n/a	n/a	n/a	n/a	n/a	n/a	n/a	n/a	n/a	n/a	n/a
539.918	n/a	WORD	269959	wordpools/wasnorm_wordpool.txt	LTP122	ltpFR	13	2	0	LODGE	839	n/a	n/a	1	n/a	0	0	0	0.57763671875	0.412841796875	1	lower	zerothre.ttf
542.924	n/a	START	271462	n/a	LTP122	ltpFR	13	n/a	n/a	n/a	n/a	n/a	n/a	n/a	n/a	n/a	n/a	n/a	n/a	n/a	n/a	n/a	n/a
543.906	n/a	PROB	271953	n/a	LTP122	ltpFR	13	n/a	n/a	n/a	n/a	n/a	n/a	n/a	11	1	6	4	n/a	n/a	n/a	n/a	n/a
545.612	n/a	PROB	272806	n/a	LTP122	ltpFR	13	n/a	n/a	n/a	n/a	n/a	n/a	n/a	7	3	2	2	n/a	n/a	n/a	n/a	n/a
547.044	n/a	PROB	273522	n/a	LTP122	ltpFR	13	n/a	n/a	n/a	n/a	n/a	n/a	n/a	19	9	8	2	n/a	n/a	n/a	n/a	n/a
549.024	n/a	PROB	274512	n/a	LTP122	ltpFR	13	n/a	n/a	n/a	n/a	n/a	n/a	n/a	14	8	2	4	n/a	n/a	n/a	n/a	n/a
550.234	n/a	STOP	275117	n/a	LTP122	ltpFR	13	n/a	n/a	n/a	n/a	n/a	n/a	n/a	n/a	n/a	n/a	n/a	n/a	n/a	n/a	n/a	n/a
552.046	n/a	WORD	276023	wordpools/wasnorm_wordpool.txt	LTP122	ltpFR	13	2	0	JOINT	758	n/a	n/a	0	n/a	0	0	0	0.57763671875	0.412841796875	1	lower	zerothre.ttf
555.052	n/a	START	277526	n/a	LTP122	ltpFR	13	n/a	n/a	n/a	n/a	n/a	n/a	n/a	n/a	n/a	n/a	n/a	n/a	n/a	n/a	n/a	n/a
556.008	n/a	PROB	278004	n/a	LTP122	ltpFR	13	n/a	n/a	n/a	n/a	n/a	n/a	n/a	18	3	7	8	n/a	n/a	n/a	n/a	n/a
557.598	n/a	PROB	278799	n/a	LTP122	ltpFR	13	n/a	n/a	n/a	n/a	n/a	n/a	n/a	15	3	9	3	n/a	n/a	n/a	n/a	n/a
560.736	n/a	PROB	280368	n/a	LTP122	ltpFR	13	n/a	n/a	n/a	n/a	n/a	n/a	n/a	5	1	1	3	n/a	n/a	n/a	n/a	n/a
562.036	n/a	STOP	281018	n/a	LTP122	ltpFR	13	n/a	n/a	n/a	n/a	n/a	n/a	n/a	n/a	n/a	n/a	n/a	n/a	n/a	n/a	n/a	n/a
563.892	n/a	WORD	281946	wordpools/wasnorm_wordpool.txt	LTP122	ltpFR	13	2	0	SHOULDER	1294	n/a	n/a	0	n/a	0	0	0	0.57763671875	0.412841796875	1	lower	zerothre.ttf
566.896	n/a	START	283448	n/a	LTP122	ltpFR	13	n/a	n/a	n/a	n/a	n/a	n/a	n/a	n/a	n/a	n/a	n/a	n/a	n/a	n/a	n/a	n/a
567.794	n/a	PROB	283897	n/a	LTP122	ltpFR	13	n/a	n/a	n/a	n/a	n/a	n/a	n/a	12	8	3	1	n/a	n/a	n/a	n/a	n/a
570.068	n/a	PROB	285034	n/a	LTP122	ltpFR	13	n/a	n/a	n/a	n/a	n/a	n/a	n/a	17	8	6	3	n/a	n/a	n/a	n/a	n/a
572.14	n/a	PROB	286070	n/a	LTP122	ltpFR	13	n/a	n/a	n/a	n/a	n/a	n/a	n/a	14	7	2	5	n/a	n/a	n/a	n/a	n/a
573.738	n/a	STOP	286869	n/a	LTP122	ltpFR	13	n/a	n/a	n/a	n/a	n/a	n/a	n/a	n/a	n/a	n/a	n/a	n/a	n/a	n/a	n/a	n/a
575.97	n/a	WORD	287985	wordpools/wasnorm_wordpool.txt	LTP122	ltpFR	13	2	0	DIVER	476	n/a	n/a	1	n/a	0	0	0	0.57763671875	0.412841796875	1	lower	zerothre.ttf
578.974	n/a	START	289487	n/a	LTP122	ltpFR	13	n/a	n/a	n/a	n/a	n/a	n/a	n/a	n/a	n/a	n/a	n/a	n/a	n/a	n/a	n/a	n/a
579.898	n/a	PROB	289949	n/a	LTP122	ltpFR	13	n/a	n/a	n/a	n/a	n/a	n/a	n/a	16	4	6	6	n/a	n/a	n/a	n/a	n/a
581.272	n/a	PROB	290636	n/a	LTP122	ltpFR	13	n/a	n/a	n/a	n/a	n/a	n/a	n/a	8	1	1	6	n/a	n/a	n/a	n/a	n/a
582.678	n/a	PROB	291339	n/a	LTP122	ltpFR	13	n/a	n/a	n/a	n/a	n/a	n/a	n/a	25	8	9	8	n/a	n/a	n/a	n/a	n/a
585.46	n/a	STOP	292730	n/a	LTP122	ltpFR	13	n/a	n/a	n/a	n/a	n/a	n/a	n/a	n/a	n/a	n/a	n/a	n/a	n/a	n/a	n/a	n/a
587.856	n/a	WORD	293928	wordpools/wasnorm_wordpool.txt	LTP122	ltpFR	13	2	0	MERMAID	887	n/a	n/a	1	n/a	0	0	0	0.57763671875	0.412841796875	1	lower	zerothre.ttf
590.86	n/a	START	295430	n/a	LTP122	ltpFR	13	n/a	n/a	n/a	n/a	n/a	n/a	n/a	n/a	n/a	n/a	n/a	n/a	n/a	n/a	n/a	n/a
591.968	n/a	PROB	295984	n/a	LTP122	ltpFR	13	n/a	n/a	n/a	n/a	n/a	n/a	n/a	21	6	6	9	n/a	n/a	n/a	n/a	n/a
594.814	n/a	PROB	297407	n/a	LTP122	ltpFR	13	n/a	n/a	n/a	n/a	n/a	n/a	n/a	18	5	7	6	n/a	n/a	n/a	n/a	n/a
598.052	n/a	STOP	299026	n/a	LTP122	ltpFR	13	n/a	n/a	n/a	n/a	n/a	n/a	n/a	n/a	n/a	n/a	n/a	n/a	n/a	n/a	n/a	n/a
599.924	n/a	WORD	299962	wordpools/wasnorm_wordpool.txt	LTP122	ltpFR	13	2	0	DENTIST	447	n/a	n/a	1	n/a	0	0	0	0.57763671875	0.412841796875	1	lower	zerothre.ttf
602.93	n/a	START	301465	n/a	LTP122	ltpFR	13	n/a	n/a	n/a	n/a	n/a	n/a	n/a	n/a	n/a	n/a	n/a	n/a	n/a	n/a	n/a	n/a
603.886	n/a	PROB	301943	n/a	LTP122	ltpFR	13	n/a	n/a	n/a	n/a	n/a	n/a	n/a	12	6	2	4	n/a	n/a	n/a	n/a	n/a
606.716	n/a	PROB	303358	n/a	LTP122	ltpFR	13	n/a	n/a	n/a	n/a	n/a	n/a	n/a	19	9	2	8	n/a	n/a	n/a	n/a	n/a
608.382	n/a	PROB	304191	n/a	LTP122	ltpFR	13	n/a	n/a	n/a	n/a	n/a	n/a	n/a	21	9	7	5	n/a	n/a	n/a	n/a	n/a
610.572	n/a	STOP	305286	n/a	LTP122	ltpFR	13	n/a	n/a	n/a	n/a	n/a	n/a	n/a	n/a	n/a	n/a	n/a	n/a	n/a	n/a	n/a	n/a
612.002	n/a	WORD	306001	wordpools/wasnorm_wordpool.txt	LTP122	ltpFR	13	2	0	BONE	148	n/a	n/a	0	n/a	0	0	0	0.57763671875	0.412841796875	1	lower	zerothre.ttf
615.008	n/a	START	307504	n/a	LTP122	ltpFR	13	n/a	n/a	n/a	n/a	n/a	n/a	n/a	n/a	n/a	n/a	n/a	n/a	n/a	n/a	n/a	n/a
616.064	n/a	PROB	308032	n/a	LTP122	ltpFR	13	n/a	n/a	n/a	n/a	n/a	n/a	n/a	11	2	5	4	n/a	n/a	n/a	n/a	n/a
618.02	n/a	PROB	309010	n/a	LTP122	ltpFR	13	n/a	n/a	n/a	n/a	n/a	n/a	n/a	19	9	5	5	n/a	n/a	n/a	n/a	n/a
619.386	n/a	PROB	309693	n/a	LTP122	ltpFR	13	n/a	n/a	n/a	n/a	n/a	n/a	n/a	18	9	1	8	n/a	n/a	n/a	n/a	n/a
623.008	n/a	STOP	311504	n/a	LTP122	ltpFR	13	n/a	n/a	n/a	n/a	n/a	n/a	n/a	n/a	n/a	n/a	n/a	n/a	n/a	n/a	n/a	n/a
623.988	n/a	WORD	311994	wordpools/wasnorm_wordpool.txt	LTP122	ltpFR	13	2	0	SAUCER	1237	n/a	n/a	0	n/a	0	0	0	0.57763671875	0.412841796875	1	lower	zerothre.ttf
626.994	n/a	START	313497	n/a	LTP122	ltpFR	13	n/a	n/a	n/a	n/a	n/a	n/a	n/a	n/a	n/a	n/a	n/a	n/a	n/a	n/a	n/a	n/a
628.068	n/a	PROB	314034	n/a	LTP122	ltpFR	13	n/a	n/a	n/a	n/a	n/a	n/a	n/a	16	4	7	5	n/a	n/a	n/a	n/a	n/a
629.948	n/a	PROB	314974	n/a	LTP122	ltpFR	13	n/a	n/a	n/a	n/a	n/a	n/a	n/a	18	8	2	8	n/a	n/a	n/a	n/a	n/a
631.622	n/a	PROB	315811	n/a	LTP122	ltpFR	13	n/a	n/a	n/a	n/a	n/a	n/a	n/a	19	2	8	9	n/a	n/a	n/a	n/a	n/a
633.194	n/a	PROB	316597	n/a	LTP122	ltpFR	13	n/a	n/a	n/a	n/a	n/a	n/a	n/a	12	1	8	3	n/a	n/a	n/a	n/a	n/a
634.452	n/a	STOP	317226	n/a	LTP122	ltpFR	13	n/a	n/a	n/a	n/a	n/a	n/a	n/a	n/a	n/a	n/a	n/a	n/a	n/a	n/a	n/a	n/a
635.85	n/a	WORD	317925	wordpools/wasnorm_wordpool.txt	LTP122	ltpFR	13	2	0	SNAKE	1333	n/a	n/a	0	n/a	0	0	0	0.57763671875	0.412841796875	1	lower	zerothre.ttf
638.856	n/a	START	319428	n/a	LTP122	ltpFR	13	n/a	n/a	n/a	n/a	n/a	n/a	n/a	n/a	n/a	n/a	n/a	n/a	n/a	n/a	n/a	n/a
640.044	n/a	PROB	320022	n/a	LTP122	ltpFR	13	n/a	n/a	n/a	n/a	n/a	n/a	n/a	19	2	5	5	n/a	n/a	n/a	n/a	n/a
643.4	n/a	PROB	321700	n/a	LTP122	ltpFR	13	n/a	n/a	n/a	n/a	n/a	n/a	n/a	15	2	8	5	n/a	n/a	n/a	n/a	n/a
645.348	n/a	STOP	322674	n/a	LTP122	ltpFR	13	n/a	n/a	n/a	n/a	n/a	n/a	n/a	n/a	n/a	n/a	n/a	n/a	n/a	n/a	n/a	n/a
647.678	n/a	WORD	323839	wordpools/wasnorm_wordpool.txt	LTP122	ltpFR	13	2	0	EAGLE	512	n/a	n/a	1	n/a	0	0	0	0.57763671875	0.412841796875	1	lower	zerothre.ttf
650.684	n/a	START	325342	n/a	LTP122	ltpFR	13	n/a	n/a	n/a	n/a	n/a	n/a	n/a	n/a	n/a	n/a	n/a	n/a	n/a	n/a	n/a	n/a
651.732	n/a	PROB	325866	n/a	LTP122	ltpFR	13	n/a	n/a	n/a	n/a	n/a	n/a	n/a	21	9	7	5	n/a	n/a	n/a	n/a	n/a
654.446	n/a	PROB	327223	n/a	LTP122	ltpFR	13	n/a	n/a	n/a	n/a	n/a	n/a	n/a	17	5	7	5	n/a	n/a	n/a	n/a	n/a
656.626	n/a	PROB	328313	n/a	LTP122	ltpFR	13	n/a	n/a	n/a	n/a	n/a	n/a	n/a	17	5	7	5	n/a	n/a	n/a	n/a	n/a
658.028	n/a	STOP	329014	n/a	LTP122	ltpFR	13	n/a	n/a	n/a	n/a	n/a	n/a	n/a	n/a	n/a	n/a	n/a	n/a	n/a	n/a	n/a	n/a
659.78	n/a	WORD	329890	wordpools/wasnorm_wordpool.txt	LTP122	ltpFR	13	2	0	CONCRETE	361	n/a	n/a	1	n/a	0	0	0	0.57763671875	0.412841796875	1	lower	zerothre.ttf
662.786	n/a	START	331393	n/a	LTP122	ltpFR	13	n/a	n/a	n/a	n/a	n/a	n/a	n/a	n/a	n/a	n/a	n/a	n/a	n/a	n/a	n/a	n/a
663.686	n/a	PROB	331843	n/a	LTP122	ltpFR	13	n/a	n/a	n/a	n/a	n/a	n/a	n/a	16	3	9	4	n/a	n/a	n/a	n/a	n/a
665.35	n/a	PROB	332675	n/a	LTP122	ltpFR	13	n/a	n/a	n/a	n/a	n/a	n/a	n/a	11	4	4	3	n/a	n/a	n/a	n/a	n/a
667.198	n/a	PROB	333599	n/a	LTP122	ltpFR	13	n/a	n/a	n/a	n/a	n/a	n/a	n/a	7	4	2	1	n/a	n/a	n/a	n/a	n/a
670.786	n/a	STOP	335393	n/a	LTP122	ltpFR	13	n/a	n/a	n/a	n/a	n/a	n/a	n/a	n/a	n/a	n/a	n/a	n/a	n/a	n/a	n/a	n/a
671.884	n/a	WORD	335942	wordpools/wasnorm_wordpool.txt	LTP122	ltpFR	13	2	0	PAVEMENT	1028	n/a	n/a	1	n/a	0	0	0	0.57763671875	0.412841796875	1	lower	zerothre.ttf
674.89	n/a	START	337445	n/a	LTP122	ltpFR	13	n/a	n/a	n/a	n/a	n/a	n/a	n/a	n/a	n/a	n/a	n/a	n/a	n/a	n/a	n/a	n/a
676.08	n/a	PROB	338040	n/a	LTP122	ltpFR	13	n/a	n/a	n/a	n/a	n/a	n/a	n/a	17	3	7	7	n/a	n/a	n/a	n/a	n/a
677.636	n/a	PROB	338818	n/a	LTP122	ltpFR	13	n/a	n/a	n/a	n/a	n/a	n/a	n/a	18	7	2	9	n/a	n/a	n/a	n/a	n/a
679.242	n/a	PROB	339621	n/a	LTP122	ltpFR	13	n/a	n/a	n/a	n/a	n/a	n/a	n/a	13	3	6	4	n/a	n/a	n/a	n/a	n/a
680.882	n/a	PROB	340441	n/a	LTP122	ltpFR	13	n/a	n/a	n/a	n/a	n/a	n/a	n/a	9	1	4	4	n/a	n/a	n/a	n/a	n/a
682.492	n/a	STOP	341246	n/a	LTP122	ltpFR	13	n/a	n/a	n/a	n/a	n/a	n/a	n/a	n/a	n/a	n/a	n/a	n/a	n/a	n/a	n/a	n/a
683.912	n/a	WORD	341956	wordpools/wasnorm_wordpool.txt	LTP122	ltpFR	13	2	0	KNEE	784	n/a	n/a	0	n/a	0	0	0	0.57763671875	0.412841796875	1	lower	zerothre.ttf
686.916	n/a	START	343458	n/a	LTP122	ltpFR	13	n/a	n/a	n/a	n/a	n/a	n/a	n/a	n/a	n/a	n/a	n/a	n/a	n/a	n/a	n/a	n/a
687.74	n/a	PROB	343870	n/a	LTP122	ltpFR	13	n/a	n/a	n/a	n/a	n/a	n/a	n/a	15	1	6	8	n/a	n/a	n/a	n/a	n/a
689.522	n/a	PROB	344761	n/a	LTP122	ltpFR	13	n/a	n/a	n/a	n/a	n/a	n/a	n/a	11	9	1	1	n/a	n/a	n/a	n/a	n/a
690.87	n/a	PROB	345435	n/a	LTP122	ltpFR	13	n/a	n/a	n/a	n/a	n/a	n/a	n/a	8	5	1	2	n/a	n/a	n/a	n/a	n/a
692.436	n/a	PROB	346218	n/a	LTP122	ltpFR	13	n/a	n/a	n/a	n/a	n/a	n/a	n/a	8	1	5	2	n/a	n/a	n/a	n/a	n/a
693.964	n/a	STOP	346982	n/a	LTP122	ltpFR	13	n/a	n/a	n/a	n/a	n/a	n/a	n/a	n/a	n/a	n/a	n/a	n/a	n/a	n/a	n/a	n/a
696.114	n/a	WORD	348057	wordpools/wasnorm_wordpool.txt	LTP122	ltpFR	13	2	0	CHAMBER	277	n/a	n/a	1	n/a	0	0	0	0.57763671875	0.412841796875	1	lower	zerothre.ttf
699.12	n/a	START	349560	n/a	LTP122	ltpFR	13	n/a	n/a	n/a	n/a	n/a	n/a	n/a	n/a	n/a	n/a	n/a	n/a	n/a	n/a	n/a	n/a
699.968	n/a	PROB	349984	n/a	LTP122	ltpFR	13	n/a	n/a	n/a	n/a	n/a	n/a	n/a	11	2	7	2	n/a	n/a	n/a	n/a	n/a
701.642	n/a	PROB	350821	n/a	LTP122	ltpFR	13	n/a	n/a	n/a	n/a	n/a	n/a	n/a	22	4	9	9	n/a	n/a	n/a	n/a	n/a
703.656	n/a	PROB	351828	n/a	LTP122	ltpFR	13	n/a	n/a	n/a	n/a	n/a	n/a	n/a	20	9	5	6	n/a	n/a	n/a	n/a	n/a
706.676	n/a	STOP	353338	n/a	LTP122	ltpFR	13	n/a	n/a	n/a	n/a	n/a	n/a	n/a	n/a	n/a	n/a	n/a	n/a	n/a	n/a	n/a	n/a
709.042	n/a	REC_START	354521	n/a	LTP122	ltpFR	13	2	n/a	n/a	n/a	n/a	n/a	n/a	n/a	0	0	0	n/a	n/a	n/a	n/a	n/a
711.756	n/a	REC_WORD	355878	wordpools/wasnorm_wordpool.txt	LTP122	ltpFR	13	2	0	BARRACUDA	90	n/a	n/a	1	n/a	0	0	0	n/a	n/a	n/a	n/a	n/a
712.654	n/a	REC_WORD	356327	wordpools/wasnorm_wordpool.txt	LTP122	ltpFR	13	2	0	COD	340	n/a	n/a	0	n/a	0	0	0	n/a	n/a	n/a	n/a	n/a
713.346	n/a	REC_WORD	356673	wordpools/wasnorm_wordpool.txt	LTP122	ltpFR	13	2	0	SNAKE	1333	n/a	n/a	0	n/a	0	0	0	n/a	n/a	n/a	n/a	n/a
714.41	n/a	REC_WORD	357205	wordpools/wasnorm_wordpool.txt	LTP122	ltpFR	13	2	0	LODGE	839	n/a	n/a	1	n/a	0	0	0	n/a	n/a	n/a	n/a	n/a
715.248	n/a	REC_WORD	357624	wordpools/wasnorm_wordpool.txt	LTP122	ltpFR	13	2	0	PAVEMENT	1028	n/a	n/a	1	n/a	0	0	0	n/a	n/a	n/a	n/a	n/a
715.95	n/a	REC_WORD	357975	wordpools/wasnorm_wordpool.txt	LTP122	ltpFR	13	2	n/a	CEMENT	-1	n/a	n/a	n/a	n/a	0	0	0	n/a	n/a	n/a	n/a	n/a
718.864	n/a	REC_WORD	359432	wordpools/wasnorm_wordpool.txt	LTP122	ltpFR	13	2	0	JOINT	758	n/a	n/a	0	n/a	0	0	0	n/a	n/a	n/a	n/a	n/a
719.766	n/a	REC_WORD	359883	wordpools/wasnorm_wordpool.txt	LTP122	ltpFR	13	2	0	SHOULDER	1294	n/a	n/a	0	n/a	0	0	0	n/a	n/a	n/a	n/a	n/a
721.518	n/a	REC_WORD	360759	wordpools/wasnorm_wordpool.txt	LTP122	ltpFR	13	2	0	KNEE	784	n/a	n/a	0	n/a	0	0	0	n/a	n/a	n/a	n/a	n/a
722.666	n/a	REC_WORD	361333	wordpools/wasnorm_wordpool.txt	LTP122	ltpFR	13	2	0	DIVER	476	n/a	n/a	1	n/a	0	0	0	n/a	n/a	n/a	n/a	n/a
723.464	n/a	REC_WORD	361732	wordpools/wasnorm_wordpool.txt	LTP122	ltpFR	13	2	0	MERMAID	887	n/a	n/a	1	n/a	0	0	0	n/a	n/a	n/a	n/a	n/a
725.982	n/a	REC_WORD	362991	wordpools/wasnorm_wordpool.txt	LTP122	ltpFR	13	2	0	DENTIST	447	n/a	n/a	1	n/a	0	0	0	n/a	n/a	n/a	n/a	n/a
726.946	n/a	REC_WORD	363473	wordpools/wasnorm_wordpool.txt	LTP122	ltpFR	13	2	0	BONE	148	n/a	n/a	0	n/a	0	0	0	n/a	n/a	n/a	n/a	n/a
727.624	n/a	REC_WORD	363812	wordpools/wasnorm_wordpool.txt	LTP122	ltpFR	13	2	0	SAUCER	1237	n/a	n/a	0	n/a	0	0	0	n/a	n/a	n/a	n/a	n/a
728.568	n/a	REC_WORD	364284	wordpools/wasnorm_wordpool.txt	LTP122	ltpFR	13	2	0	CHAMBER	277	n/a	n/a	1	n/a	0	0	0	n/a	n/a	n/a	n/a	n/a
729.42	n/a	REC_WORD	364710	wordpools/wasnorm_wordpool.txt	LTP122	ltpFR	13	2	0	LODGE	839	n/a	n/a	1	n/a	0	0	0	n/a	n/a	n/a	n/a	n/a
731.336	n/a	REC_WORD	365668	wordpools/wasnorm_wordpool.txt	LTP122	ltpFR	13	2	0	EAGLE	512	n/a	n/a	1	n/a	0	0	0	n/a	n/a	n/a	n/a	n/a
799.696	n/a	WORD	399848	wordpools/wasnorm_wordpool.txt	LTP122	ltpFR	13	3	0	FUDGE	611	n/a	n/a	0	n/a	0	0	0	0.57763671875	0.412841796875	1	lower	zerothre.ttf
803.764	n/a	WORD	401882	wordpools/wasnorm_wordpool.txt	LTP122	ltpFR	13	3	0	OBOE	969	n/a	n/a	1	n/a	0	0	0	0.57763671875	0.412841796875	1	lower	zerothre.ttf
807.652	n/a	WORD	403826	wordpools/wasnorm_wordpool.txt	LTP122	ltpFR	13	3	0	TORTOISE	1486	n/a	n/a	1	n/a	0	0	0	0.57763671875	0.412841796875	1	lower	zerothre.ttf
811.756	n/a	WORD	405878	wordpools/wasnorm_wordpool.txt	LTP122	ltpFR	13	3	1	SCIENTIST	1249	n/a	n/a	1	n/a	0	0	0	0.422607421875	0.5869140625	0	upper	amplitud.ttf
815.784	n/a	WORD	407892	wordpools/wasnorm_wordpool.txt	LTP122	ltpFR	13	3	1	LABYRINTH	791	n/a	n/a	1	n/a	0	0	0	0.422607421875	0.5869140625	0	upper	amplitud.ttf
819.69	n/a	WORD	409845	wordpools/wasnorm_wordpool.txt	LTP122	ltpFR	13	3	1	MEAT	883	n/a	n/a	1	n/a	0	0	0	0.422607421875	0.5869140625	0	upper	amplitud.ttf
823.502	n/a	WORD	411751	wordpools/wasnorm_wordpool.txt	LTP122	ltpFR	13	3	1	DESSERT	453	n/a	n/a	0	n/a	0	0	0	0.422607421875	0.5869140625	0	upper	amplitud.ttf
827.348	n/a	WORD	413674	wordpools/wasnorm_wordpool.txt	LTP122	ltpFR	13	3	0	SHORTCAKE	1292	n/a	n/a	0	n/a	0	0	0	0.57763671875	0.412841796875	1	lower	zerothre.ttf
831.292	n/a	WORD	415646	wordpools/wasnorm_wordpool.txt	LTP122	ltpFR	13	3	0	MARKET	871	n/a	n/a	1	n/a	0	0	0	0.57763671875	0.412841796875	1	lower	zerothre.ttf
835.372	n/a	WORD	417686	wordpools/wasnorm_wordpool.txt	LTP122	ltpFR	13	3	0	BUTCHER	203	n/a	n/a	1	n/a	0	0	0	0.57763671875	0.412841796875	1	lower	zerothre.ttf
839.376	n/a	WORD	419688	wordpools/wasnorm_wordpool.txt	LTP122	ltpFR	13	3	1	SURGEON	1413	n/a	n/a	1	n/a	0	0	0	0.422607421875	0.5869140625	0	upper	amplitud.ttf
843.404	n/a	WORD	421702	wordpools/wasnorm_wordpool.txt	LTP122	ltpFR	13	3	1	PUZZLE	1146	n/a	n/a	0	n/a	0	0	0	0.422607421875	0.5869140625	0	upper	amplitud.ttf
847.3	n/a	WORD	423650	wordpools/wasnorm_wordpool.txt	LTP122	ltpFR	13	3	1	SERVER	1272	n/a	n/a	1	n/a	0	0	0	0.422607421875	0.5869140625	0	upper	amplitud.ttf
851.144	n/a	WORD	425572	wordpools/wasnorm_wordpool.txt	LTP122	ltpFR	13	3	1	POSSUM	1112	n/a	n/a	1	n/a	0	0	0	0.422607421875	0.5869140625	0	upper	amplitud.ttf
855.324	n/a	WORD	427662	wordpools/wasnorm_wordpool.txt	LTP122	ltpFR	13	3	0	THRONE	1461	n/a	n/a	1	n/a	0	0	0	0.57763671875	0.412841796875	1	lower	zerothre.ttf
859.178	n/a	WORD	429589	wordpools/wasnorm_wordpool.txt	LTP122	ltpFR	13	3	0	QUEEN	1149	n/a	n/a	1	n/a	0	0	0	0.57763671875	0.412841796875	1	lower	zerothre.ttf
864.83	n/a	REC_START	432415	n/a	LTP122	ltpFR	13	3	n/a	n/a	n/a	n/a	n/a	n/a	n/a	0	0	0	n/a	n/a	n/a	n/a	n/a
866.356	n/a	REC_WORD_VV	433178	wordpools/wasnorm_wordpool.txt	LTP122	ltpFR	13	3	n/a	<>	-1	n/a	n/a	n/a	n/a	0	0	0	n/a	n/a	n/a	n/a	n/a
870.302	n/a	REC_WORD	435151	wordpools/wasnorm_wordpool.txt	LTP122	ltpFR	13	3	0	FUDGE	611	n/a	n/a	0	n/a	0	0	0	n/a	n/a	n/a	n/a	n/a
871.47	n/a	REC_WORD	435735	wordpools/wasnorm_wordpool.txt	LTP122	ltpFR	13	3	0	OBOE	969	n/a	n/a	1	n/a	0	0	0	n/a	n/a	n/a	n/a	n/a
873.754	n/a	REC_WORD	436877	wordpools/wasnorm_wordpool.txt	LTP122	ltpFR	13	3	0	TORTOISE	1486	n/a	n/a	1	n/a	0	0	0	n/a	n/a	n/a	n/a	n/a
876.008	n/a	REC_WORD	438004	wordpools/wasnorm_wordpool.txt	LTP122	ltpFR	13	3	1	SCIENTIST	1249	n/a	n/a	1	n/a	0	0	0	n/a	n/a	n/a	n/a	n/a
877.008	n/a	REC_WORD_VV	438504	wordpools/wasnorm_wordpool.txt	LTP122	ltpFR	13	3	n/a	<>	-1	n/a	n/a	n/a	n/a	0	0	0	n/a	n/a	n/a	n/a	n/a
879.66	n/a	REC_WORD	439830	wordpools/wasnorm_wordpool.txt	LTP122	ltpFR	13	3	1	SURGEON	1413	n/a	n/a	1	n/a	0	0	0	n/a	n/a	n/a	n/a	n/a
881.482	n/a	REC_WORD	440741	wordpools/wasnorm_wordpool.txt	LTP122	ltpFR	13	3	1	LABYRINTH	791	n/a	n/a	1	n/a	0	0	0	n/a	n/a	n/a	n/a	n/a
884.874	n/a	REC_WORD	442437	wordpools/wasnorm_wordpool.txt	LTP122	ltpFR	13	3	1	MEAT	883	n/a	n/a	1	n/a	0	0	0	n/a	n/a	n/a	n/a	n/a
885.706	n/a	REC_WORD	442853	wordpools/wasnorm_wordpool.txt	LTP122	ltpFR	13	3	0	BUTCHER	203	n/a	n/a	1	n/a	0	0	0	n/a	n/a	n/a	n/a	n/a
886.24	n/a	REC_WORD	443120	wordpools/wasnorm_wordpool.txt	LTP122	ltpFR	13	3	0	MARKET	871	n/a	n/a	1	n/a	0	0	0	n/a	n/a	n/a	n/a	n/a
887.468	n/a	REC_WORD	443734	wordpools/wasnorm_wordpool.txt	LTP122	ltpFR	13	3	1	POSSUM	1112	n/a	n/a	1	n/a	0	0	0	n/a	n/a	n/a	n/a	n/a
888.27	n/a	REC_WORD	444135	wordpools/wasnorm_wordpool.txt	LTP122	ltpFR	13	3	0	THRONE	1461	n/a	n/a	1	n/a	0	0	0	n/a	n/a	n/a	n/a	n/a
889.03	n/a	REC_WORD	444515	wordpools/wasnorm_wordpool.txt	LTP122	ltpFR	13	3	0	QUEEN	1149	n/a	n/a	1	n/a	0	0	0	n/a	n/a	n/a	n/a	n/a
890.442	n/a	REC_WORD	445221	wordpools/wasnorm_wordpool.txt	LTP122	ltpFR	13	3	1	PUZZLE	1146	n/a	n/a	0	n/a	0	0	0	n/a	n/a	n/a	n/a	n/a
892.936	n/a	REC_WORD	446468	wordpools/wasnorm_wordpool.txt	LTP122	ltpFR	13	3	0	SHORTCAKE	1292	n/a	n/a	0	n/a	0	0	0	n/a	n/a	n/a	n/a	n/a
893.624	n/a	REC_WORD	446812	wordpools/wasnorm_wordpool.txt	LTP122	ltpFR	13	3	1	DESSERT	453	n/a	n/a	0	n/a	0	0	0	n/a	n/a	n/a	n/a	n/a
910.246	n/a	REC_WORD	455123	wordpools/wasnorm_wordpool.txt	LTP122	ltpFR	13	3	1	SERVER	1272	n/a	n/a	1	n/a	0	0	0	n/a	n/a	n/a	n/a	n/a
912.432	n/a	REC_WORD	456216	wordpools/wasnorm_wordpool.txt	LTP122	ltpFR	13	3	0	MARKET	871	n/a	n/a	1	n/a	0	0	0	n/a	n/a	n/a	n/a	n/a
951.296	n/a	WORD	475648	wordpools/wasnorm_wordpool.txt	LTP122	ltpFR	13	4	1	LACE	792	n/a	n/a	0	n/a	0	0	0	0.422607421875	0.5869140625	0	upper	amplitud.ttf
955.4	n/a	WORD	477700	wordpools/wasnorm_wordpool.txt	LTP122	ltpFR	13	4	1	GOWN	652	n/a	n/a	0	n/a	0	0	0	0.422607421875	0.5869140625	0	upper	amplitud.ttf
959.238	n/a	WORD	479619	wordpools/wasnorm_wordpool.txt	LTP122	ltpFR	13	4	1	CREW	406	n/a	n/a	1	n/a	0	0	0	0.422607421875	0.5869140625	0	upper	amplitud.ttf
963.34	n/a	WORD	481670	wordpools/wasnorm_wordpool.txt	LTP122	ltpFR	13	4	1	MINK	897	n/a	n/a	1	n/a	0	0	0	0.422607421875	0.5869140625	0	upper	amplitud.ttf
967.428	n/a	WORD	483714	wordpools/wasnorm_wordpool.txt	LTP122	ltpFR	13	4	1	BARTENDER	92	n/a	n/a	1	n/a	0	0	0	0.422607421875	0.5869140625	0	upper	amplitud.ttf
971.432	n/a	WORD	485716	wordpools/wasnorm_wordpool.txt	LTP122	ltpFR	13	4	1	COOLER	375	n/a	n/a	0	n/a	0	0	0	0.422607421875	0.5869140625	0	upper	amplitud.ttf
975.294	n/a	WORD	487647	wordpools/wasnorm_wordpool.txt	LTP122	ltpFR	13	4	1	TAVERN	1437	n/a	n/a	1	n/a	0	0	0	0.422607421875	0.5869140625	0	upper	amplitud.ttf
979.456	n/a	WORD	489728	wordpools/wasnorm_wordpool.txt	LTP122	ltpFR	13	4	1	PORT	1110	n/a	n/a	1	n/a	0	0	0	0.422607421875	0.5869140625	0	upper	amplitud.ttf
983.608	n/a	WORD	491804	wordpools/wasnorm_wordpool.txt	LTP122	ltpFR	13	4	1	CHAMPAGNE	278	n/a	n/a	1	n/a	0	0	0	0.422607421875	0.5869140625	0	upper	amplitud.ttf
987.556	n/a	WORD	493778	wordpools/wasnorm_wordpool.txt	LTP122	ltpFR	13	4	1	WALRUS	1585	n/a	n/a	1	n/a	0	0	0	0.422607421875	0.5869140625	0	upper	amplitud.ttf
991.558	n/a	WORD	495779	wordpools/wasnorm_wordpool.txt	LTP122	ltpFR	13	4	1	SKULL	1320	n/a	n/a	0	n/a	0	0	0	0.422607421875	0.5869140625	0	upper	amplitud.ttf
995.43	n/a	WORD	497715	wordpools/wasnorm_wordpool.txt	LTP122	ltpFR	13	4	1	PIER	1063	n/a	n/a	0	n/a	0	0	0	0.422607421875	0.5869140625	0	upper	amplitud.ttf
999.442	n/a	WORD	499721	wordpools/wasnorm_wordpool.txt	LTP122	ltpFR	13	4	1	SKIRT	1319	n/a	n/a	1	n/a	0	0	0	0.422607421875	0.5869140625	0	upper	amplitud.ttf
1003.312	n/a	WORD	501656	wordpools/wasnorm_wordpool.txt	LTP122	ltpFR	13	4	1	OUTFIT	988	n/a	n/a	0	n/a	0	0	0	0.422607421875	0.5869140625	0	upper	amplitud.ttf
1007.44	n/a	WORD	503720	wordpools/wasnorm_wordpool.txt	LTP122	ltpFR	13	4	1	REEF	1177	n/a	n/a	0	n/a	0	0	0	0.422607421875	0.5869140625	0	upper	amplitud.ttf
1011.56	n/a	WORD	505780	wordpools/wasnorm_wordpool.txt	LTP122	ltpFR	13	4	1	MARINE	869	n/a	n/a	0	n/a	0	0	0	0.422607421875	0.5869140625	0	upper	amplitud.ttf
1014.566	n/a	START	507283	n/a	LTP122	ltpFR	13	n/a	n/a	n/a	n/a	n/a	n/a	n/a	n/a	n/a	n/a	n/a	n/a	n/a	n/a	n/a	n/a
1015.69	n/a	PROB	507845	n/a	LTP122	ltpFR	13	n/a	n/a	n/a	n/a	n/a	n/a	n/a	27	9	9	9	n/a	n/a	n/a	n/a	n/a
1017.704	n/a	PROB	508852	n/a	LTP122	ltpFR	13	n/a	n/a	n/a	n/a	n/a	n/a	n/a	17	3	6	8	n/a	n/a	n/a	n/a	n/a
1019.302	n/a	PROB	509651	n/a	LTP122	ltpFR	13	n/a	n/a	n/a	n/a	n/a	n/a	n/a	4	1	2	1	n/a	n/a	n/a	n/a	n/a
1020.808	n/a	PROB	510404	n/a	LTP122	ltpFR	13	n/a	n/a	n/a	n/a	n/a	n/a	n/a	8	1	1	6	n/a	n/a	n/a	n/a	n/a
1022.232	n/a	PROB	511116	n/a	LTP122	ltpFR	13	n/a	n/a	n/a	n/a	n/a	n/a	n/a	9	2	5	1	n/a	n/a	n/a	n/a	n/a
1023.606	n/a	PROB	511803	n/a	LTP122	ltpFR	13	n/a	n/a	n/a	n/a	n/a	n/a	n/a	15	4	3	8	n/a	n/a	n/a	n/a	n/a
1026.16	n/a	PROB	513080	n/a	LTP122	ltpFR	13	n/a	n/a	n/a	n/a	n/a	n/a	n/a	14	3	8	3	n/a	n/a	n/a	n/a	n/a
1028.134	n/a	PROB	514067	n/a	LTP122	ltpFR	13	n/a	n/a	n/a	n/a	n/a	n/a	n/a	9	2	4	3	n/a	n/a	n/a	n/a	n/a
1030.032	n/a	STOP	515016	n/a	LTP122	ltpFR	13	n/a	n/a	n/a	n/a	n/a	n/a	n/a	n/a	n/a	n/a	n/a	n/a	n/a	n/a	n/a	n/a
1032.32	n/a	REC_START	516160	n/a	LTP122	ltpFR	13	4	n/a	n/a	n/a	n/a	n/a	n/a	n/a	0	0	0	n/a	n/a	n/a	n/a	n/a
1033.194	n/a	REC_WORD	516597	wordpools/wasnorm_wordpool.txt	LTP122	ltpFR	13	4	1	LACE	792	n/a	n/a	0	n/a	0	0	0	n/a	n/a	n/a	n/a	n/a
1034.122	n/a	REC_WORD	517061	wordpools/wasnorm_wordpool.txt	LTP122	ltpFR	13	4	1	GOWN	652	n/a	n/a	0	n/a	0	0	0	n/a	n/a	n/a	n/a	n/a
1034.954	n/a	REC_WORD	517477	wordpools/wasnorm_wordpool.txt	LTP122	ltpFR	13	4	1	CREW	406	n/a	n/a	1	n/a	0	0	0	n/a	n/a	n/a	n/a	n/a
1038.048	n/a	REC_WORD	519024	wordpools/wasnorm_wordpool.txt	LTP122	ltpFR	13	4	1	BARTENDER	92	n/a	n/a	1	n/a	0	0	0	n/a	n/a	n/a	n/a	n/a
1039.444	n/a	REC_WORD	519722	wordpools/wasnorm_wordpool.txt	LTP122	ltpFR	13	4	1	COOLER	375	n/a	n/a	0	n/a	0	0	0	n/a	n/a	n/a	n/a	n/a
1041.734	n/a	REC_WORD	520867	wordpools/wasnorm_wordpool.txt	LTP122	ltpFR	13	4	1	TAVERN	1437	n/a	n/a	1	n/a	0	0	0	n/a	n/a	n/a	n/a	n/a
1043.116	n/a	REC_WORD	521558	wordpools/wasnorm_wordpool.txt	LTP122	ltpFR	13	4	1	PORT	1110	n/a	n/a	1	n/a	0	0	0	n/a	n/a	n/a	n/a	n/a
1044.282	n/a	REC_WORD	522141	wordpools/wasnorm_wordpool.txt	LTP122	ltpFR	13	4	1	SKULL	1320	n/a	n/a	0	n/a	0	0	0	n/a	n/a	n/a	n/a	n/a
1046.228	n/a	REC_WORD	523114	wordpools/wasnorm_wordpool.txt	LTP122	ltpFR	13	4	1	PIER	1063	n/a	n/a	0	n/a	0	0	0	n/a	n/a	n/a	n/a	n/a
1046.738	n/a	REC_WORD	523369	wordpools/wasnorm_wordpool.txt	LTP122	ltpFR	13	4	1	WALRUS	1585	n/a	n/a	1	n/a	0	0	0	n/a	n/a	n/a	n/a	n/a
1047.276	n/a	REC_WORD	523638	wordpools/wasnorm_wordpool.txt	LTP122	ltpFR	13	4	1	MARINE	869	n/a	n/a	0	n/a	0	0	0	n/a	n/a	n/a	n/a	n/a
1047.886	n/a	REC_WORD	523943	wordpools/wasnorm_wordpool.txt	LTP122	ltpFR	13	4	1	REEF	1177	n/a	n/a	0	n/a	0	0	0	n/a	n/a	n/a	n/a	n/a
1051.208	n/a	REC_WORD	525604	wordpools/wasnorm_wordpool.txt	LTP122	ltpFR	13	4	1	OUTFIT	988	n/a	n/a	0	n/a	0	0	0	n/a	n/a	n/a	n/a	n/a
1052.65	n/a	REC_WORD	526325	wordpools/wasnorm_wordpool.txt	LTP122	ltpFR	13	4	1	SKIRT	1319	n/a	n/a	1	n/a	0	0	0	n/a	n/a	n/a	n/a	n/a
1066.438	n/a	REC_WORD	533219	wordpools/wasnorm_wordpool.txt	LTP122	ltpFR	13	4	1	TAVERN	1437	n/a	n/a	1	n/a	0	0	0	n/a	n/a	n/a	n/a	n/a
1087.206	n/a	REC_WORD	543603	wordpools/wasnorm_wordpool.txt	LTP122	ltpFR	13	4	1	CHAMPAGNE	278	n/a	n/a	1	n/a	0	0	0	n/a	n/a	n/a	n/a	n/a
1113.426	n/a	WORD	556713	wordpools/wasnorm_wordpool.txt	LTP122	ltpFR	13	5	0	MANAGER	863	n/a	n/a	1	n/a	0	0	0	0.57763671875	0.412841796875	1	lower	zerothre.ttf
1117.456	n/a	WORD	558728	wordpools/wasnorm_wordpool.txt	LTP122	ltpFR	13	5	0	PUPPY	1144	n/a	n/a	1	n/a	0	0	0	0.57763671875	0.412841796875	1	lower	zerothre.ttf
1121.342	n/a	WORD	560671	wordpools/wasnorm_wordpool.txt	LTP122	ltpFR	13	5	0	OWNER	993	n/a	n/a	1	n/a	0	0	0	0.57763671875	0.412841796875	1	lower	zerothre.ttf
1125.222	n/a	WORD	562611	wordpools/wasnorm_wordpool.txt	LTP122	ltpFR	13	5	0	BOTTLE	153	n/a	n/a	0	n/a	0	0	0	0.57763671875	0.412841796875	1	lower	zerothre.ttf
1129.1	n/a	WORD	564550	wordpools/wasnorm_wordpool.txt	LTP122	ltpFR	13	5	1	DEODORANT	448	n/a	n/a	0	n/a	0	0	0	0.422607421875	0.5869140625	0	upper	amplitud.ttf
1133.07	n/a	WORD	566535	wordpools/wasnorm_wordpool.txt	LTP122	ltpFR	13	5	1	WIDOW	1608	n/a	n/a	1	n/a	0	0	0	0.422607421875	0.5869140625	0	upper	amplitud.ttf
1136.95	n/a	WORD	568475	wordpools/wasnorm_wordpool.txt	LTP122	ltpFR	13	5	1	CONTAINER	366	n/a	n/a	0	n/a	0	0	0	0.422607421875	0.5869140625	0	upper	amplitud.ttf
1141.144	n/a	WORD	570572	wordpools/wasnorm_wordpool.txt	LTP122	ltpFR	13	5	0	OFFICE	972	n/a	n/a	1	n/a	0	0	0	0.57763671875	0.412841796875	1	lower	zerothre.ttf
1145.066	n/a	WORD	572533	wordpools/wasnorm_wordpool.txt	LTP122	ltpFR	13	5	0	CONSUMER	365	n/a	n/a	1	n/a	0	0	0	0.57763671875	0.412841796875	1	lower	zerothre.ttf
1149.086	n/a	WORD	574543	wordpools/wasnorm_wordpool.txt	LTP122	ltpFR	13	5	0	LIBRARY	816	n/a	n/a	1	n/a	0	0	0	0.57763671875	0.412841796875	1	lower	zerothre.ttf
1153.264	n/a	WORD	576632	wordpools/wasnorm_wordpool.txt	LTP122	ltpFR	13	5	0	WRITER	1627	n/a	n/a	1	n/a	0	0	0	0.57763671875	0.412841796875	1	lower	zerothre.ttf
1157.152	n/a	WORD	578576	wordpools/wasnorm_wordpool.txt	LTP122	ltpFR	13	5	1	CHEF	290	n/a	n/a	1	n/a	0	0	0	0.422607421875	0.5869140625	0	upper	amplitud.ttf
1161.19	n/a	WORD	580595	wordpools/wasnorm_wordpool.txt	LTP122	ltpFR	13	5	1	WASHER	1592	n/a	n/a	1	n/a	0	0	0	0.422607421875	0.5869140625	0	upper	amplitud.ttf
1165.152	n/a	WORD	582576	wordpools/wasnorm_wordpool.txt	LTP122	ltpFR	13	5	1	SNORKEL	1336	n/a	n/a	0	n/a	0	0	0	0.422607421875	0.5869140625	0	upper	amplitud.ttf
1169.304	n/a	WORD	584652	wordpools/wasnorm_wordpool.txt	LTP122	ltpFR	13	5	1	WELL	1600	n/a	n/a	0	n/a	0	0	0	0.422607421875	0.5869140625	0	upper	amplitud.ttf
1173.35	n/a	WORD	586675	wordpools/wasnorm_wordpool.txt	LTP122	ltpFR	13	5	1	POWDER	1117	n/a	n/a	0	n/a	0	0	0	0.422607421875	0.5869140625	0	upper	amplitud.ttf
1176.356	n/a	START	588178	n/a	LTP122	ltpFR	13	n/a	n/a	n/a	n/a	n/a	n/a	n/a	n/a	n/a	n/a	n/a	n/a	n/a	n/a	n/a	n/a
1177.438	n/a	PROB	588719	n/a	LTP122	ltpFR	13	n/a	n/a	n/a	n/a	n/a	n/a	n/a	16	3	8	5	n/a	n/a	n/a	n/a	n/a
1179.652	n/a	PROB	589826	n/a	LTP122	ltpFR	13	n/a	n/a	n/a	n/a	n/a	n/a	n/a	22	9	8	5	n/a	n/a	n/a	n/a	n/a
1182.448	n/a	PROB	591224	n/a	LTP122	ltpFR	13	n/a	n/a	n/a	n/a	n/a	n/a	n/a	16	9	5	2	n/a	n/a	n/a	n/a	n/a
1184.098	n/a	STOP	592049	n/a	LTP122	ltpFR	13	n/a	n/a	n/a	n/a	n/a	n/a	n/a	n/a	n/a	n/a	n/a	n/a	n/a	n/a	n/a	n/a
1186.228	n/a	REC_START	593114	n/a	LTP122	ltpFR	13	5	n/a	n/a	n/a	n/a	n/a	n/a	n/a	0	0	0	n/a	n/a	n/a	n/a	n/a
1187.45	n/a	REC_WORD	593725	wordpools/wasnorm_wordpool.txt	LTP122	ltpFR	13	5	0	MANAGER	863	n/a	n/a	1	n/a	0	0	0	n/a	n/a	n/a	n/a	n/a
1188.508	n/a	REC_WORD	594254	wordpools/wasnorm_wordpool.txt	LTP122	ltpFR	13	5	0	PUPPY	1144	n/a	n/a	1	n/a	0	0	0	n/a	n/a	n/a	n/a	n/a
1189.534	n/a	REC_WORD	594767	wordpools/wasnorm_wordpool.txt	LTP122	ltpFR	13	5	0	OWNER	993	n/a	n/a	1	n/a	0	0	0	n/a	n/a	n/a	n/a	n/a
1192.402	n/a	REC_WORD	596201	wordpools/wasnorm_wordpool.txt	LTP122	ltpFR	13	5	1	WIDOW	1608	n/a	n/a	1	n/a	0	0	0	n/a	n/a	n/a	n/a	n/a
1193.162	n/a	REC_WORD	596581	wordpools/wasnorm_wordpool.txt	LTP122	ltpFR	13	5	1	DEODORANT	448	n/a	n/a	0	n/a	0	0	0	n/a	n/a	n/a	n/a	n/a
1193.884	n/a	REC_WORD	596942	wordpools/wasnorm_wordpool.txt	LTP122	ltpFR	13	5	1	WELL	1600	n/a	n/a	0	n/a	0	0	0	n/a	n/a	n/a	n/a	n/a
1194.362	n/a	REC_WORD	597181	wordpools/wasnorm_wordpool.txt	LTP122	ltpFR	13	5	1	SNORKEL	1336	n/a	n/a	0	n/a	0	0	0	n/a	n/a	n/a	n/a	n/a
1195.396	n/a	REC_WORD	597698	wordpools/wasnorm_wordpool.txt	LTP122	ltpFR	13	5	1	POWDER	1117	n/a	n/a	0	n/a	0	0	0	n/a	n/a	n/a	n/a	n/a
1197.652	n/a	REC_WORD	598826	wordpools/wasnorm_wordpool.txt	LTP122	ltpFR	13	5	1	CONTAINER	366	n/a	n/a	0	n/a	0	0	0	n/a	n/a	n/a	n/a	n/a
1198.494	n/a	REC_WORD	599247	wordpools/wasnorm_wordpool.txt	LTP122	ltpFR	13	5	0	CONSUMER	365	n/a	n/a	1	n/a	0	0	0	n/a	n/a	n/a	n/a	n/a
1199.652	n/a	REC_WORD	599826	wordpools/wasnorm_wordpool.txt	LTP122	ltpFR	13	5	0	OFFICE	972	n/a	n/a	1	n/a	0	0	0	n/a	n/a	n/a	n/a	n/a
1200.55	n/a	REC_WORD	600275	wordpools/wasnorm_wordpool.txt	LTP122	ltpFR	13	5	0	LIBRARY	816	n/a	n/a	1	n/a	0	0	0	n/a	n/a	n/a	n/a	n/a
1201.388	n/a	REC_WORD	600694	wordpools/wasnorm_wordpool.txt	LTP122	ltpFR	13	5	0	WRITER	1627	n/a	n/a	1	n/a	0	0	0	n/a	n/a	n/a	n/a	n/a
1218.844	n/a	REC_WORD	609422	wordpools/wasnorm_wordpool.txt	LTP122	ltpFR	13	5	1	WASHER	1592	n/a	n/a	1	n/a	0	0	0	n/a	n/a	n/a	n/a	n/a
1227.418	n/a	REC_WORD	613709	wordpools/wasnorm_wordpool.txt	LTP122	ltpFR	13	5	1	CHEF	290	n/a	n/a	1	n/a	0	0	0	n/a	n/a	n/a	n/a	n/a
1251.466	n/a	REC_WORD	625733	wordpools/wasnorm_wordpool.txt	LTP122	ltpFR	13	5	1	DEODORANT	448	n/a	n/a	0	n/a	0	0	0	n/a	n/a	n/a	n/a	n/a
1282.574	n/a	START	641287	n/a	LTP122	ltpFR	13	n/a	n/a	n/a	n/a	n/a	n/a	n/a	n/a	n/a	n/a	n/a	n/a	n/a	n/a	n/a	n/a
1284.082	n/a	PROB	642041	n/a	LTP122	ltpFR	13	n/a	n/a	n/a	n/a	n/a	n/a	n/a	14	7	3	4	n/a	n/a	n/a	n/a	n/a
1285.612	n/a	PROB	642806	n/a	LTP122	ltpFR	13	n/a	n/a	n/a	n/a	n/a	n/a	n/a	20	4	8	8	n/a	n/a	n/a	n/a	n/a
1290.574	n/a	STOP	645287	n/a	LTP122	ltpFR	13	n/a	n/a	n/a	n/a	n/a	n/a	n/a	n/a	n/a	n/a	n/a	n/a	n/a	n/a	n/a	n/a
1291.722	n/a	WORD	645861	wordpools/wasnorm_wordpool.txt	LTP122	ltpFR	13	6	1	CHEST	295	n/a	n/a	0	n/a	0	0	0	0.422607421875	0.5869140625	0	upper	amplitud.ttf
1294.728	n/a	START	647364	n/a	LTP122	ltpFR	13	n/a	n/a	n/a	n/a	n/a	n/a	n/a	n/a	n/a	n/a	n/a	n/a	n/a	n/a	n/a	n/a
1295.876	n/a	PROB	647938	n/a	LTP122	ltpFR	13	n/a	n/a	n/a	n/a	n/a	n/a	n/a	20	7	9	4	n/a	n/a	n/a	n/a	n/a
1298.498	n/a	PROB	649249	n/a	LTP122	ltpFR	13	n/a	n/a	n/a	n/a	n/a	n/a	n/a	16	8	3	5	n/a	n/a	n/a	n/a	n/a
1302.728	n/a	STOP	651364	n/a	LTP122	ltpFR	13	n/a	n/a	n/a	n/a	n/a	n/a	n/a	n/a	n/a	n/a	n/a	n/a	n/a	n/a	n/a	n/a
1303.85	n/a	WORD	651925	wordpools/wasnorm_wordpool.txt	LTP122	ltpFR	13	6	1	SQUID	1361	n/a	n/a	1	n/a	0	0	0	0.422607421875	0.5869140625	0	upper	amplitud.ttf
1306.856	n/a	START	653428	n/a	LTP122	ltpFR	13	n/a	n/a	n/a	n/a	n/a	n/a	n/a	n/a	n/a	n/a	n/a	n/a	n/a	n/a	n/a	n/a
1307.862	n/a	PROB	653931	n/a	LTP122	ltpFR	13	n/a	n/a	n/a	n/a	n/a	n/a	n/a	19	7	3	9	n/a	n/a	n/a	n/a	n/a
1309.202	n/a	PROB	654601	n/a	LTP122	ltpFR	13	n/a	n/a	n/a	n/a	n/a	n/a	n/a	18	7	8	3	n/a	n/a	n/a	n/a	n/a
1311.074	n/a	PROB	655537	n/a	LTP122	ltpFR	13	n/a	n/a	n/a	n/a	n/a	n/a	n/a	17	2	8	7	n/a	n/a	n/a	n/a	n/a
1314.856	n/a	STOP	657428	n/a	LTP122	ltpFR	13	n/a	n/a	n/a	n/a	n/a	n/a	n/a	n/a	n/a	n/a	n/a	n/a	n/a	n/a	n/a	n/a
1315.694	n/a	WORD	657847	wordpools/wasnorm_wordpool.txt	LTP122	ltpFR	13	6	1	LOBSTER	837	n/a	n/a	1	n/a	0	0	0	0.422607421875	0.5869140625	0	upper	amplitud.ttf
1318.7	n/a	START	659350	n/a	LTP122	ltpFR	13	n/a	n/a	n/a	n/a	n/a	n/a	n/a	n/a	n/a	n/a	n/a	n/a	n/a	n/a	n/a	n/a
1319.732	n/a	PROB	659866	n/a	LTP122	ltpFR	13	n/a	n/a	n/a	n/a	n/a	n/a	n/a	13	5	4	4	n/a	n/a	n/a	n/a	n/a
1321.52	n/a	PROB	660760	n/a	LTP122	ltpFR	13	n/a	n/a	n/a	n/a	n/a	n/a	n/a	7	2	3	2	n/a	n/a	n/a	n/a	n/a
1323.228	n/a	PROB	661614	n/a	LTP122	ltpFR	13	n/a	n/a	n/a	n/a	n/a	n/a	n/a	15	5	9	1	n/a	n/a	n/a	n/a	n/a
1324.758	n/a	PROB	662379	n/a	LTP122	ltpFR	13	n/a	n/a	n/a	n/a	n/a	n/a	n/a	17	1	8	8	n/a	n/a	n/a	n/a	n/a
1326.26	n/a	STOP	663130	n/a	LTP122	ltpFR	13	n/a	n/a	n/a	n/a	n/a	n/a	n/a	n/a	n/a	n/a	n/a	n/a	n/a	n/a	n/a	n/a
1327.564	n/a	WORD	663782	wordpools/wasnorm_wordpool.txt	LTP122	ltpFR	13	6	1	THREAD	1460	n/a	n/a	0	n/a	0	0	0	0.422607421875	0.5869140625	0	upper	amplitud.ttf
1330.57	n/a	START	665285	n/a	LTP122	ltpFR	13	n/a	n/a	n/a	n/a	n/a	n/a	n/a	n/a	n/a	n/a	n/a	n/a	n/a	n/a	n/a	n/a
1331.586	n/a	PROB	665793	n/a	LTP122	ltpFR	13	n/a	n/a	n/a	n/a	n/a	n/a	n/a	17	4	5	8	n/a	n/a	n/a	n/a	n/a
1334.432	n/a	PROB	667216	n/a	LTP122	ltpFR	13	n/a	n/a	n/a	n/a	n/a	n/a	n/a	17	9	6	2	n/a	n/a	n/a	n/a	n/a
1336.122	n/a	PROB	668061	n/a	LTP122	ltpFR	13	n/a	n/a	n/a	n/a	n/a	n/a	n/a	11	7	2	2	n/a	n/a	n/a	n/a	n/a
1337.86	n/a	STOP	668930	n/a	LTP122	ltpFR	13	n/a	n/a	n/a	n/a	n/a	n/a	n/a	n/a	n/a	n/a	n/a	n/a	n/a	n/a	n/a	n/a
1339.642	n/a	WORD	669821	wordpools/wasnorm_wordpool.txt	LTP122	ltpFR	13	6	1	NUCLEUS	961	n/a	n/a	0	n/a	0	0	0	0.422607421875	0.5869140625	0	upper	amplitud.ttf
1342.648	n/a	START	671324	n/a	LTP122	ltpFR	13	n/a	n/a	n/a	n/a	n/a	n/a	n/a	n/a	n/a	n/a	n/a	n/a	n/a	n/a	n/a	n/a
1343.622	n/a	PROB	671811	n/a	LTP122	ltpFR	13	n/a	n/a	n/a	n/a	n/a	n/a	n/a	21	5	7	9	n/a	n/a	n/a	n/a	n/a
1350.648	n/a	STOP	675324	n/a	LTP122	ltpFR	13	n/a	n/a	n/a	n/a	n/a	n/a	n/a	n/a	n/a	n/a	n/a	n/a	n/a	n/a	n/a	n/a
1351.678	n/a	WORD	675839	wordpools/wasnorm_wordpool.txt	LTP122	ltpFR	13	6	1	DIRECTOR	471	n/a	n/a	1	n/a	0	0	0	0.422607421875	0.5869140625	0	upper	amplitud.ttf
1354.684	n/a	START	677342	n/a	LTP122	ltpFR	13	n/a	n/a	n/a	n/a	n/a	n/a	n/a	n/a	n/a	n/a	n/a	n/a	n/a	n/a	n/a	n/a
1355.582	n/a	PROB	677791	n/a	LTP122	ltpFR	13	n/a	n/a	n/a	n/a	n/a	n/a	n/a	16	7	5	4	n/a	n/a	n/a	n/a	n/a
1357.446	n/a	PROB	678723	n/a	LTP122	ltpFR	13	n/a	n/a	n/a	n/a	n/a	n/a	n/a	12	2	1	9	n/a	n/a	n/a	n/a	n/a
1359.186	n/a	PROB	679593	n/a	LTP122	ltpFR	13	n/a	n/a	n/a	n/a	n/a	n/a	n/a	18	3	6	9	n/a	n/a	n/a	n/a	n/a
1360.694	n/a	PROB	680347	n/a	LTP122	ltpFR	13	n/a	n/a	n/a	n/a	n/a	n/a	n/a	14	3	4	7	n/a	n/a	n/a	n/a	n/a
1362.164	n/a	STOP	681082	n/a	LTP122	ltpFR	13	n/a	n/a	n/a	n/a	n/a	n/a	n/a	n/a	n/a	n/a	n/a	n/a	n/a	n/a	n/a	n/a
1363.582	n/a	WORD	681791	wordpools/wasnorm_wordpool.txt	LTP122	ltpFR	13	6	1	HOME	712	n/a	n/a	1	n/a	0	0	0	0.422607421875	0.5869140625	0	upper	amplitud.ttf
1366.586	n/a	START	683293	n/a	LTP122	ltpFR	13	n/a	n/a	n/a	n/a	n/a	n/a	n/a	n/a	n/a	n/a	n/a	n/a	n/a	n/a	n/a	n/a
1367.636	n/a	PROB	683818	n/a	LTP122	ltpFR	13	n/a	n/a	n/a	n/a	n/a	n/a	n/a	17	8	7	2	n/a	n/a	n/a	n/a	n/a
1369.716	n/a	PROB	684858	n/a	LTP122	ltpFR	13	n/a	n/a	n/a	n/a	n/a	n/a	n/a	8	5	2	1	n/a	n/a	n/a	n/a	n/a
1374.586	n/a	STOP	687293	n/a	LTP122	ltpFR	13	n/a	n/a	n/a	n/a	n/a	n/a	n/a	n/a	n/a	n/a	n/a	n/a	n/a	n/a	n/a	n/a
1375.65	n/a	WORD	687825	wordpools/wasnorm_wordpool.txt	LTP122	ltpFR	13	6	1	TRAITOR	1495	n/a	n/a	1	n/a	0	0	0	0.422607421875	0.5869140625	0	upper	amplitud.ttf
1378.656	n/a	START	689328	n/a	LTP122	ltpFR	13	n/a	n/a	n/a	n/a	n/a	n/a	n/a	n/a	n/a	n/a	n/a	n/a	n/a	n/a	n/a	n/a
1379.812	n/a	PROB	689906	n/a	LTP122	ltpFR	13	n/a	n/a	n/a	n/a	n/a	n/a	n/a	20	6	8	6	n/a	n/a	n/a	n/a	n/a
1382.51	n/a	PROB	691255	n/a	LTP122	ltpFR	13	n/a	n/a	n/a	n/a	n/a	n/a	n/a	10	1	7	2	n/a	n/a	n/a	n/a	n/a
1384.19	n/a	PROB	692095	n/a	LTP122	ltpFR	13	n/a	n/a	n/a	n/a	n/a	n/a	n/a	15	6	7	2	n/a	n/a	n/a	n/a	n/a
1385.804	n/a	STOP	692902	n/a	LTP122	ltpFR	13	n/a	n/a	n/a	n/a	n/a	n/a	n/a	n/a	n/a	n/a	n/a	n/a	n/a	n/a	n/a	n/a
1387.836	n/a	WORD	693918	wordpools/wasnorm_wordpool.txt	LTP122	ltpFR	13	6	1	SCAPEGOAT	1244	n/a	n/a	1	n/a	0	0	0	0.422607421875	0.5869140625	0	upper	amplitud.ttf
1390.842	n/a	START	695421	n/a	LTP122	ltpFR	13	n/a	n/a	n/a	n/a	n/a	n/a	n/a	n/a	n/a	n/a	n/a	n/a	n/a	n/a	n/a	n/a
1392.04	n/a	PROB	696020	n/a	LTP122	ltpFR	13	n/a	n/a	n/a	n/a	n/a	n/a	n/a	10	6	2	2	n/a	n/a	n/a	n/a	n/a
1393.838	n/a	PROB	696919	n/a	LTP122	ltpFR	13	n/a	n/a	n/a	n/a	n/a	n/a	n/a	15	3	4	8	n/a	n/a	n/a	n/a	n/a
1395.42	n/a	PROB	697710	n/a	LTP122	ltpFR	13	n/a	n/a	n/a	n/a	n/a	n/a	n/a	11	1	6	4	n/a	n/a	n/a	n/a	n/a
1397.234	n/a	PROB	698617	n/a	LTP122	ltpFR	13	n/a	n/a	n/a	n/a	n/a	n/a	n/a	19	5	6	8	n/a	n/a	n/a	n/a	n/a
1398.764	n/a	STOP	699382	n/a	LTP122	ltpFR	13	n/a	n/a	n/a	n/a	n/a	n/a	n/a	n/a	n/a	n/a	n/a	n/a	n/a	n/a	n/a	n/a
1399.948	n/a	WORD	699974	wordpools/wasnorm_wordpool.txt	LTP122	ltpFR	13	6	1	NEEDLE	941	n/a	n/a	0	n/a	0	0	0	0.422607421875	0.5869140625	0	upper	amplitud.ttf
1402.954	n/a	START	701477	n/a	LTP122	ltpFR	13	n/a	n/a	n/a	n/a	n/a	n/a	n/a	n/a	n/a	n/a	n/a	n/a	n/a	n/a	n/a	n/a
1404.06	n/a	PROB	702030	n/a	LTP122	ltpFR	13	n/a	n/a	n/a	n/a	n/a	n/a	n/a	6	3	2	1	n/a	n/a	n/a	n/a	n/a
1405.642	n/a	PROB	702821	n/a	LTP122	ltpFR	13	n/a	n/a	n/a	n/a	n/a	n/a	n/a	16	7	8	1	n/a	n/a	n/a	n/a	n/a
1407.314	n/a	PROB	703657	n/a	LTP122	ltpFR	13	n/a	n/a	n/a	n/a	n/a	n/a	n/a	14	7	6	2	n/a	n/a	n/a	n/a	n/a
1410.952	n/a	STOP	705476	n/a	LTP122	ltpFR	13	n/a	n/a	n/a	n/a	n/a	n/a	n/a	n/a	n/a	n/a	n/a	n/a	n/a	n/a	n/a	n/a
1411.876	n/a	WORD	705938	wordpools/wasnorm_wordpool.txt	LTP122	ltpFR	13	6	1	SATURN	1236	n/a	n/a	1	n/a	0	0	0	0.422607421875	0.5869140625	0	upper	amplitud.ttf
1414.882	n/a	START	707441	n/a	LTP122	ltpFR	13	n/a	n/a	n/a	n/a	n/a	n/a	n/a	n/a	n/a	n/a	n/a	n/a	n/a	n/a	n/a	n/a
1415.922	n/a	PROB	707961	n/a	LTP122	ltpFR	13	n/a	n/a	n/a	n/a	n/a	n/a	n/a	16	3	9	4	n/a	n/a	n/a	n/a	n/a
1417.894	n/a	PROB	708947	n/a	LTP122	ltpFR	13	n/a	n/a	n/a	n/a	n/a	n/a	n/a	18	5	5	8	n/a	n/a	n/a	n/a	n/a
1419.908	n/a	PROB	709954	n/a	LTP122	ltpFR	13	n/a	n/a	n/a	n/a	n/a	n/a	n/a	12	4	3	5	n/a	n/a	n/a	n/a	n/a
1422.718	n/a	STOP	711359	n/a	LTP122	ltpFR	13	n/a	n/a	n/a	n/a	n/a	n/a	n/a	n/a	n/a	n/a	n/a	n/a	n/a	n/a	n/a	n/a
1423.83	n/a	WORD	711915	wordpools/wasnorm_wordpool.txt	LTP122	ltpFR	13	6	1	CARAVAN	242	n/a	n/a	1	n/a	0	0	0	0.422607421875	0.5869140625	0	upper	amplitud.ttf
1426.834	n/a	START	713417	n/a	LTP122	ltpFR	13	n/a	n/a	n/a	n/a	n/a	n/a	n/a	n/a	n/a	n/a	n/a	n/a	n/a	n/a	n/a	n/a
1427.774	n/a	PROB	713887	n/a	LTP122	ltpFR	13	n/a	n/a	n/a	n/a	n/a	n/a	n/a	15	4	4	7	n/a	n/a	n/a	n/a	n/a
1430.188	n/a	PROB	715094	n/a	LTP122	ltpFR	13	n/a	n/a	n/a	n/a	n/a	n/a	n/a	18	9	4	5	n/a	n/a	n/a	n/a	n/a
1432.12	n/a	PROB	716060	n/a	LTP122	ltpFR	13	n/a	n/a	n/a	n/a	n/a	n/a	n/a	10	3	2	5	n/a	n/a	n/a	n/a	n/a
1433.382	n/a	STOP	716691	n/a	LTP122	ltpFR	13	n/a	n/a	n/a	n/a	n/a	n/a	n/a	n/a	n/a	n/a	n/a	n/a	n/a	n/a	n/a	n/a
1436.016	n/a	WORD	718008	wordpools/wasnorm_wordpool.txt	LTP122	ltpFR	13	6	1	TEACHER	1440	n/a	n/a	1	n/a	0	0	0	0.422607421875	0.5869140625	0	upper	amplitud.ttf
1439.02	n/a	START	719510	n/a	LTP122	ltpFR	13	n/a	n/a	n/a	n/a	n/a	n/a	n/a	n/a	n/a	n/a	n/a	n/a	n/a	n/a	n/a	n/a
1440.194	n/a	PROB	720097	n/a	LTP122	ltpFR	13	n/a	n/a	n/a	n/a	n/a	n/a	n/a	19	9	9	1	n/a	n/a	n/a	n/a	n/a
1443.024	n/a	PROB	721512	n/a	LTP122	ltpFR	13	n/a	n/a	n/a	n/a	n/a	n/a	n/a	13	5	1	7	n/a	n/a	n/a	n/a	n/a
1444.804	n/a	PROB	722402	n/a	LTP122	ltpFR	13	n/a	n/a	n/a	n/a	n/a	n/a	n/a	19	7	9	3	n/a	n/a	n/a	n/a	n/a
1446.838	n/a	STOP	723419	n/a	LTP122	ltpFR	13	n/a	n/a	n/a	n/a	n/a	n/a	n/a	n/a	n/a	n/a	n/a	n/a	n/a	n/a	n/a	n/a
1448.142	n/a	WORD	724071	wordpools/wasnorm_wordpool.txt	LTP122	ltpFR	13	6	1	COMET	353	n/a	n/a	1	n/a	0	0	0	0.422607421875	0.5869140625	0	upper	amplitud.ttf
1451.148	n/a	START	725574	n/a	LTP122	ltpFR	13	n/a	n/a	n/a	n/a	n/a	n/a	n/a	n/a	n/a	n/a	n/a	n/a	n/a	n/a	n/a	n/a
1452.08	n/a	PROB	726040	n/a	LTP122	ltpFR	13	n/a	n/a	n/a	n/a	n/a	n/a	n/a	16	4	7	5	n/a	n/a	n/a	n/a	n/a
1453.952	n/a	PROB	726976	n/a	LTP122	ltpFR	13	n/a	n/a	n/a	n/a	n/a	n/a	n/a	22	9	9	4	n/a	n/a	n/a	n/a	n/a
1459.148	n/a	STOP	729574	n/a	LTP122	ltpFR	13	n/a	n/a	n/a	n/a	n/a	n/a	n/a	n/a	n/a	n/a	n/a	n/a	n/a	n/a	n/a	n/a
1460.196	n/a	WORD	730098	wordpools/wasnorm_wordpool.txt	LTP122	ltpFR	13	6	1	ROBOT	1200	n/a	n/a	1	n/a	0	0	0	0.422607421875	0.5869140625	0	upper	amplitud.ttf
1463.2	n/a	START	731600	n/a	LTP122	ltpFR	13	n/a	n/a	n/a	n/a	n/a	n/a	n/a	n/a	n/a	n/a	n/a	n/a	n/a	n/a	n/a	n/a
1464.1	n/a	PROB	732050	n/a	LTP122	ltpFR	13	n/a	n/a	n/a	n/a	n/a	n/a	n/a	11	3	5	3	n/a	n/a	n/a	n/a	n/a
1466.006	n/a	PROB	733003	n/a	LTP122	ltpFR	13	n/a	n/a	n/a	n/a	n/a	n/a	n/a	10	1	8	1	n/a	n/a	n/a	n/a	n/a
1468.044	n/a	PROB	734022	n/a	LTP122	ltpFR	13	n/a	n/a	n/a	n/a	n/a	n/a	n/a	21	7	8	6	n/a	n/a	n/a	n/a	n/a
1469.918	n/a	STOP	734959	n/a	LTP122	ltpFR	13	n/a	n/a	n/a	n/a	n/a	n/a	n/a	n/a	n/a	n/a	n/a	n/a	n/a	n/a	n/a	n/a
1472.374	n/a	WORD	736187	wordpools/wasnorm_wordpool.txt	LTP122	ltpFR	13	6	1	BUILDER	190	n/a	n/a	1	n/a	0	0	0	0.422607421875	0.5869140625	0	upper	amplitud.ttf
1475.378	n/a	START	737689	n/a	LTP122	ltpFR	13	n/a	n/a	n/a	n/a	n/a	n/a	n/a	n/a	n/a	n/a	n/a	n/a	n/a	n/a	n/a	n/a
1476.526	n/a	PROB	738263	n/a	LTP122	ltpFR	13	n/a	n/a	n/a	n/a	n/a	n/a	n/a	19	5	7	7	n/a	n/a	n/a	n/a	n/a
1478.192	n/a	PROB	739096	n/a	LTP122	ltpFR	13	n/a	n/a	n/a	n/a	n/a	n/a	n/a	17	3	8	6	n/a	n/a	n/a	n/a	n/a
1480.364	n/a	PROB	740182	n/a	LTP122	ltpFR	13	n/a	n/a	n/a	n/a	n/a	n/a	n/a	17	1	8	8	n/a	n/a	n/a	n/a	n/a
1483.378	n/a	STOP	741689	n/a	LTP122	ltpFR	13	n/a	n/a	n/a	n/a	n/a	n/a	n/a	n/a	n/a	n/a	n/a	n/a	n/a	n/a	n/a	n/a
1485.226	n/a	REC_START	742613	n/a	LTP122	ltpFR	13	6	n/a	n/a	n/a	n/a	n/a	n/a	n/a	0	0	0	n/a	n/a	n/a	n/a	n/a
1487.854	n/a	REC_WORD	743927	wordpools/wasnorm_wordpool.txt	LTP122	ltpFR	13	6	1	CHEST	295	n/a	n/a	0	n/a	0	0	0	n/a	n/a	n/a	n/a	n/a
1488.666	n/a	REC_WORD	744333	wordpools/wasnorm_wordpool.txt	LTP122	ltpFR	13	6	1	SQUID	1361	n/a	n/a	1	n/a	0	0	0	n/a	n/a	n/a	n/a	n/a
1489.874	n/a	REC_WORD	744937	wordpools/wasnorm_wordpool.txt	LTP122	ltpFR	13	6	1	LOBSTER	837	n/a	n/a	1	n/a	0	0	0	n/a	n/a	n/a	n/a	n/a
1492.438	n/a	REC_WORD	746219	wordpools/wasnorm_wordpool.txt	LTP122	ltpFR	13	6	1	THREAD	1460	n/a	n/a	0	n/a	0	0	0	n/a	n/a	n/a	n/a	n/a
1493.192	n/a	REC_WORD	746596	wordpools/wasnorm_wordpool.txt	LTP122	ltpFR	13	6	1	NEEDLE	941	n/a	n/a	0	n/a	0	0	0	n/a	n/a	n/a	n/a	n/a
1493.99	n/a	REC_WORD	746995	wordpools/wasnorm_wordpool.txt	LTP122	ltpFR	13	6	1	NUCLEUS	961	n/a	n/a	0	n/a	0	0	0	n/a	n/a	n/a	n/a	n/a
1498.726	n/a	REC_WORD	749363	wordpools/wasnorm_wordpool.txt	LTP122	ltpFR	13	6	1	TRAITOR	1495	n/a	n/a	1	n/a	0	0	0	n/a	n/a	n/a	n/a	n/a
1499.308	n/a	REC_WORD	749654	wordpools/wasnorm_wordpool.txt	LTP122	ltpFR	13	6	1	SCAPEGOAT	1244	n/a	n/a	1	n/a	0	0	0	n/a	n/a	n/a	n/a	n/a
1500.242	n/a	REC_WORD	750121	wordpools/wasnorm_wordpool.txt	LTP122	ltpFR	13	6	1	HOME	712	n/a	n/a	1	n/a	0	0	0	n/a	n/a	n/a	n/a	n/a
1501.498	n/a	REC_WORD	750749	wordpools/wasnorm_wordpool.txt	LTP122	ltpFR	13	6	1	DIRECTOR	471	n/a	n/a	1	n/a	0	0	0	n/a	n/a	n/a	n/a	n/a
1502.268	n/a	REC_WORD	751134	wordpools/wasnorm_wordpool.txt	LTP122	ltpFR	13	6	1	CARAVAN	242	n/a	n/a	1	n/a	0	0	0	n/a	n/a	n/a	n/a	n/a
1503.194	n/a	REC_WORD	751597	wordpools/wasnorm_wordpool.txt	LTP122	ltpFR	13	6	1	TEACHER	1440	n/a	n/a	1	n/a	0	0	0	n/a	n/a	n/a	n/a	n/a
1504.962	n/a	REC_WORD	752481	wordpools/wasnorm_wordpool.txt	LTP122	ltpFR	13	6	1	SATURN	1236	n/a	n/a	1	n/a	0	0	0	n/a	n/a	n/a	n/a	n/a
1505.964	n/a	REC_WORD	752982	wordpools/wasnorm_wordpool.txt	LTP122	ltpFR	13	6	1	COMET	353	n/a	n/a	1	n/a	0	0	0	n/a	n/a	n/a	n/a	n/a
1508.354	n/a	REC_WORD	754177	wordpools/wasnorm_wordpool.txt	LTP122	ltpFR	13	6	1	BUILDER	190	n/a	n/a	1	n/a	0	0	0	n/a	n/a	n/a	n/a	n/a
1562.104	n/a	START	781052	n/a	LTP122	ltpFR	13	n/a	n/a	n/a	n/a	n/a	n/a	n/a	n/a	n/a	n/a	n/a	n/a	n/a	n/a	n/a	n/a
1563.61	n/a	PROB	781805	n/a	LTP122	ltpFR	13	n/a	n/a	n/a	n/a	n/a	n/a	n/a	17	3	5	9	n/a	n/a	n/a	n/a	n/a
1565.882	n/a	PROB	782941	n/a	LTP122	ltpFR	13	n/a	n/a	n/a	n/a	n/a	n/a	n/a	13	3	8	2	n/a	n/a	n/a	n/a	n/a
1567.888	n/a	PROB	783944	n/a	LTP122	ltpFR	13	n/a	n/a	n/a	n/a	n/a	n/a	n/a	19	5	6	8	n/a	n/a	n/a	n/a	n/a
1570.086	n/a	PROB	785043	n/a	LTP122	ltpFR	13	n/a	n/a	n/a	n/a	n/a	n/a	n/a	13	3	9	1	n/a	n/a	n/a	n/a	n/a
1571.926	n/a	PROB	785963	n/a	LTP122	ltpFR	13	n/a	n/a	n/a	n/a	n/a	n/a	n/a	23	7	9	7	n/a	n/a	n/a	n/a	n/a
1578.104	n/a	STOP	789052	n/a	LTP122	ltpFR	13	n/a	n/a	n/a	n/a	n/a	n/a	n/a	n/a	n/a	n/a	n/a	n/a	n/a	n/a	n/a	n/a
1578.934	n/a	WORD	789467	wordpools/wasnorm_wordpool.txt	LTP122	ltpFR	13	7	0	LOAF	835	n/a	n/a	0	n/a	0	0	0	0.57763671875	0.412841796875	1	lower	zerothre.ttf
1581.94	n/a	START	790970	n/a	LTP122	ltpFR	13	n/a	n/a	n/a	n/a	n/a	n/a	n/a	n/a	n/a	n/a	n/a	n/a	n/a	n/a	n/a	n/a
1583.004	n/a	PROB	791502	n/a	LTP122	ltpFR	13	n/a	n/a	n/a	n/a	n/a	n/a	n/a	19	7	9	3	n/a	n/a	n/a	n/a	n/a
1585.128	n/a	PROB	792564	n/a	LTP122	ltpFR	13	n/a	n/a	n/a	n/a	n/a	n/a	n/a	8	4	3	1	n/a	n/a	n/a	n/a	n/a
1586.534	n/a	PROB	793267	n/a	LTP122	ltpFR	13	n/a	n/a	n/a	n/a	n/a	n/a	n/a	22	7	7	8	n/a	n/a	n/a	n/a	n/a
1590.63	n/a	PROB	795315	n/a	LTP122	ltpFR	13	n/a	n/a	n/a	n/a	n/a	n/a	n/a	17	7	5	5	n/a	n/a	n/a	n/a	n/a
1593.402	n/a	PROB	796701	n/a	LTP122	ltpFR	13	n/a	n/a	n/a	n/a	n/a	n/a	n/a	12	7	1	4	n/a	n/a	n/a	n/a	n/a
1594.958	n/a	PROB	797479	n/a	LTP122	ltpFR	13	n/a	n/a	n/a	n/a	n/a	n/a	n/a	7	1	5	1	n/a	n/a	n/a	n/a	n/a
1596.512	n/a	STOP	798256	n/a	LTP122	ltpFR	13	n/a	n/a	n/a	n/a	n/a	n/a	n/a	n/a	n/a	n/a	n/a	n/a	n/a	n/a	n/a	n/a
1598.904	n/a	WORD	799452	wordpools/wasnorm_wordpool.txt	LTP122	ltpFR	13	7	0	PAD	998	n/a	n/a	0	n/a	0	0	0	0.57763671875	0.412841796875	1	lower	zerothre.ttf
1601.908	n/a	START	800954	n/a	LTP122	ltpFR	13	n/a	n/a	n/a	n/a	n/a	n/a	n/a	n/a	n/a	n/a	n/a	n/a	n/a	n/a	n/a	n/a
1602.832	n/a	PROB	801416	n/a	LTP122	ltpFR	13	n/a	n/a	n/a	n/a	n/a	n/a	n/a	26	9	8	9	n/a	n/a	n/a	n/a	n/a
1605.738	n/a	PROB	802869	n/a	LTP122	ltpFR	13	n/a	n/a	n/a	n/a	n/a	n/a	n/a	13	4	5	4	n/a	n/a	n/a	n/a	n/a
1607.71	n/a	PROB	803855	n/a	LTP122	ltpFR	13	n/a	n/a	n/a	n/a	n/a	n/a	n/a	20	8	3	9	n/a	n/a	n/a	n/a	n/a
1610.324	n/a	PROB	805162	n/a	LTP122	ltpFR	13	n/a	n/a	n/a	n/a	n/a	n/a	n/a	12	1	9	2	n/a	n/a	n/a	n/a	n/a
1611.714	n/a	PROB	805857	n/a	LTP122	ltpFR	13	n/a	n/a	n/a	n/a	n/a	n/a	n/a	11	2	8	1	n/a	n/a	n/a	n/a	n/a
1613.012	n/a	PROB	806506	n/a	LTP122	ltpFR	13	n/a	n/a	n/a	n/a	n/a	n/a	n/a	5	2	2	1	n/a	n/a	n/a	n/a	n/a
1614.236	n/a	PROB	807118	n/a	LTP122	ltpFR	13	n/a	n/a	n/a	n/a	n/a	n/a	n/a	17	7	4	6	n/a	n/a	n/a	n/a	n/a
1616.512	n/a	STOP	808256	n/a	LTP122	ltpFR	13	n/a	n/a	n/a	n/a	n/a	n/a	n/a	n/a	n/a	n/a	n/a	n/a	n/a	n/a	n/a	n/a
1618.98	n/a	WORD	809490	wordpools/wasnorm_wordpool.txt	LTP122	ltpFR	13	7	0	COLT	349	n/a	n/a	1	n/a	0	0	0	0.57763671875	0.412841796875	1	lower	zerothre.ttf
1621.986	n/a	START	810993	n/a	LTP122	ltpFR	13	n/a	n/a	n/a	n/a	n/a	n/a	n/a	n/a	n/a	n/a	n/a	n/a	n/a	n/a	n/a	n/a
1623.042	n/a	PROB	811521	n/a	LTP122	ltpFR	13	n/a	n/a	n/a	n/a	n/a	n/a	n/a	15	1	5	9	n/a	n/a	n/a	n/a	n/a
1625.838	n/a	PROB	812919	n/a	LTP122	ltpFR	13	n/a	n/a	n/a	n/a	n/a	n/a	n/a	16	9	1	6	n/a	n/a	n/a	n/a	n/a
1627.778	n/a	PROB	813889	n/a	LTP122	ltpFR	13	n/a	n/a	n/a	n/a	n/a	n/a	n/a	17	6	7	4	n/a	n/a	n/a	n/a	n/a
1629.46	n/a	PROB	814730	n/a	LTP122	ltpFR	13	n/a	n/a	n/a	n/a	n/a	n/a	n/a	16	6	6	4	n/a	n/a	n/a	n/a	n/a
1631.466	n/a	PROB	815733	n/a	LTP122	ltpFR	13	n/a	n/a	n/a	n/a	n/a	n/a	n/a	7	1	2	4	n/a	n/a	n/a	n/a	n/a
1633.056	n/a	PROB	816528	n/a	LTP122	ltpFR	13	n/a	n/a	n/a	n/a	n/a	n/a	n/a	17	9	1	7	n/a	n/a	n/a	n/a	n/a
1634.704	n/a	PROB	817352	n/a	LTP122	ltpFR	13	n/a	n/a	n/a	n/a	n/a	n/a	n/a	17	6	5	6	n/a	n/a	n/a	n/a	n/a
1637.986	n/a	STOP	818993	n/a	LTP122	ltpFR	13	n/a	n/a	n/a	n/a	n/a	n/a	n/a	n/a	n/a	n/a	n/a	n/a	n/a	n/a	n/a	n/a
1638.924	n/a	WORD	819462	wordpools/wasnorm_wordpool.txt	LTP122	ltpFR	13	7	0	STABLE	1363	n/a	n/a	1	n/a	0	0	0	0.57763671875	0.412841796875	1	lower	zerothre.ttf
1641.928	n/a	START	820964	n/a	LTP122	ltpFR	13	n/a	n/a	n/a	n/a	n/a	n/a	n/a	n/a	n/a	n/a	n/a	n/a	n/a	n/a	n/a	n/a
1642.744	n/a	PROB	821372	n/a	LTP122	ltpFR	13	n/a	n/a	n/a	n/a	n/a	n/a	n/a	6	2	3	1	n/a	n/a	n/a	n/a	n/a
1644.076	n/a	PROB	822038	n/a	LTP122	ltpFR	13	n/a	n/a	n/a	n/a	n/a	n/a	n/a	20	6	9	5	n/a	n/a	n/a	n/a	n/a
1645.982	n/a	PROB	822991	n/a	LTP122	ltpFR	13	n/a	n/a	n/a	n/a	n/a	n/a	n/a	17	6	3	8	n/a	n/a	n/a	n/a	n/a
1647.472	n/a	PROB	823736	n/a	LTP122	ltpFR	13	n/a	n/a	n/a	n/a	n/a	n/a	n/a	8	2	4	2	n/a	n/a	n/a	n/a	n/a
1649.02	n/a	PROB	824510	n/a	LTP122	ltpFR	13	n/a	n/a	n/a	n/a	n/a	n/a	n/a	21	4	9	8	n/a	n/a	n/a	n/a	n/a
1657.048	n/a	STOP	828524	n/a	LTP122	ltpFR	13	n/a	n/a	n/a	n/a	n/a	n/a	n/a	n/a	n/a	n/a	n/a	n/a	n/a	n/a	n/a	n/a
1658.792	n/a	WORD	829396	wordpools/wasnorm_wordpool.txt	LTP122	ltpFR	13	7	1	INMATE	738	n/a	n/a	1	n/a	0	0	0	0.422607421875	0.5869140625	0	upper	amplitud.ttf
1661.796	n/a	START	830898	n/a	LTP122	ltpFR	13	n/a	n/a	n/a	n/a	n/a	n/a	n/a	n/a	n/a	n/a	n/a	n/a	n/a	n/a	n/a	n/a
1662.68	n/a	PROB	831340	n/a	LTP122	ltpFR	13	n/a	n/a	n/a	n/a	n/a	n/a	n/a	13	8	1	4	n/a	n/a	n/a	n/a	n/a
1664.352	n/a	PROB	832176	n/a	LTP122	ltpFR	13	n/a	n/a	n/a	n/a	n/a	n/a	n/a	11	2	3	6	n/a	n/a	n/a	n/a	n/a
1665.884	n/a	PROB	832942	n/a	LTP122	ltpFR	13	n/a	n/a	n/a	n/a	n/a	n/a	n/a	12	8	1	3	n/a	n/a	n/a	n/a	n/a
1667.498	n/a	PROB	833749	n/a	LTP122	ltpFR	13	n/a	n/a	n/a	n/a	n/a	n/a	n/a	15	4	6	5	n/a	n/a	n/a	n/a	n/a
1669.446	n/a	PROB	834723	n/a	LTP122	ltpFR	13	n/a	n/a	n/a	n/a	n/a	n/a	n/a	13	1	9	3	n/a	n/a	n/a	n/a	n/a
1670.854	n/a	PROB	835427	n/a	LTP122	ltpFR	13	n/a	n/a	n/a	n/a	n/a	n/a	n/a	22	8	9	5	n/a	n/a	n/a	n/a	n/a
1677.798	n/a	STOP	838899	n/a	LTP122	ltpFR	13	n/a	n/a	n/a	n/a	n/a	n/a	n/a	n/a	n/a	n/a	n/a	n/a	n/a	n/a	n/a	n/a
1678.844	n/a	WORD	839422	wordpools/wasnorm_wordpool.txt	LTP122	ltpFR	13	7	1	QUILT	1151	n/a	n/a	1	n/a	0	0	0	0.422607421875	0.5869140625	0	upper	amplitud.ttf
1681.85	n/a	START	840925	n/a	LTP122	ltpFR	13	n/a	n/a	n/a	n/a	n/a	n/a	n/a	n/a	n/a	n/a	n/a	n/a	n/a	n/a	n/a	n/a
1682.74	n/a	PROB	841370	n/a	LTP122	ltpFR	13	n/a	n/a	n/a	n/a	n/a	n/a	n/a	15	8	2	5	n/a	n/a	n/a	n/a	n/a
1685.246	n/a	PROB	842623	n/a	LTP122	ltpFR	13	n/a	n/a	n/a	n/a	n/a	n/a	n/a	13	7	3	3	n/a	n/a	n/a	n/a	n/a
1686.552	n/a	PROB	843276	n/a	LTP122	ltpFR	13	n/a	n/a	n/a	n/a	n/a	n/a	n/a	16	5	2	9	n/a	n/a	n/a	n/a	n/a
1688.782	n/a	PROB	844391	n/a	LTP122	ltpFR	13	n/a	n/a	n/a	n/a	n/a	n/a	n/a	13	3	1	9	n/a	n/a	n/a	n/a	n/a
1690.548	n/a	PROB	845274	n/a	LTP122	ltpFR	13	n/a	n/a	n/a	n/a	n/a	n/a	n/a	15	5	3	7	n/a	n/a	n/a	n/a	n/a
1692.096	n/a	PROB	846048	n/a	LTP122	ltpFR	13	n/a	n/a	n/a	n/a	n/a	n/a	n/a	11	3	2	6	n/a	n/a	n/a	n/a	n/a
1693.936	n/a	PROB	846968	n/a	LTP122	ltpFR	13	n/a	n/a	n/a	n/a	n/a	n/a	n/a	12	3	1	8	n/a	n/a	n/a	n/a	n/a
1697.85	n/a	STOP	848925	n/a	LTP122	ltpFR	13	n/a	n/a	n/a	n/a	n/a	n/a	n/a	n/a	n/a	n/a	n/a	n/a	n/a	n/a	n/a	n/a
1698.872	n/a	WORD	849436	wordpools/wasnorm_wordpool.txt	LTP122	ltpFR	13	7	1	PASTRY	1022	n/a	n/a	0	n/a	0	0	0	0.422607421875	0.5869140625	0	upper	amplitud.ttf
1701.876	n/a	START	850938	n/a	LTP122	ltpFR	13	n/a	n/a	n/a	n/a	n/a	n/a	n/a	n/a	n/a	n/a	n/a	n/a	n/a	n/a	n/a	n/a
1702.792	n/a	PROB	851396	n/a	LTP122	ltpFR	13	n/a	n/a	n/a	n/a	n/a	n/a	n/a	12	2	6	4	n/a	n/a	n/a	n/a	n/a
1705.372	n/a	PROB	852686	n/a	LTP122	ltpFR	13	n/a	n/a	n/a	n/a	n/a	n/a	n/a	17	4	7	6	n/a	n/a	n/a	n/a	n/a
1707.512	n/a	PROB	853756	n/a	LTP122	ltpFR	13	n/a	n/a	n/a	n/a	n/a	n/a	n/a	5	1	1	3	n/a	n/a	n/a	n/a	n/a
1708.886	n/a	PROB	854443	n/a	LTP122	ltpFR	13	n/a	n/a	n/a	n/a	n/a	n/a	n/a	16	5	2	9	n/a	n/a	n/a	n/a	n/a
1710.416	n/a	PROB	855208	n/a	LTP122	ltpFR	13	n/a	n/a	n/a	n/a	n/a	n/a	n/a	22	8	7	7	n/a	n/a	n/a	n/a	n/a
1713.654	n/a	PROB	856827	n/a	LTP122	ltpFR	13	n/a	n/a	n/a	n/a	n/a	n/a	n/a	14	3	3	8	n/a	n/a	n/a	n/a	n/a
1715.52	n/a	PROB	857760	n/a	LTP122	ltpFR	13	n/a	n/a	n/a	n/a	n/a	n/a	n/a	17	8	7	2	n/a	n/a	n/a	n/a	n/a
1717.44	n/a	STOP	858720	n/a	LTP122	ltpFR	13	n/a	n/a	n/a	n/a	n/a	n/a	n/a	n/a	n/a	n/a	n/a	n/a	n/a	n/a	n/a	n/a
1718.874	n/a	WORD	859437	wordpools/wasnorm_wordpool.txt	LTP122	ltpFR	13	7	1	FUGITIVE	612	n/a	n/a	1	n/a	0	0	0	0.422607421875	0.5869140625	0	upper	amplitud.ttf
1721.878	n/a	START	860939	n/a	LTP122	ltpFR	13	n/a	n/a	n/a	n/a	n/a	n/a	n/a	n/a	n/a	n/a	n/a	n/a	n/a	n/a	n/a	n/a
1723.036	n/a	PROB	861518	n/a	LTP122	ltpFR	13	n/a	n/a	n/a	n/a	n/a	n/a	n/a	9	1	3	5	n/a	n/a	n/a	n/a	n/a
1724.816	n/a	PROB	862408	n/a	LTP122	ltpFR	13	n/a	n/a	n/a	n/a	n/a	n/a	n/a	16	6	2	6	n/a	n/a	n/a	n/a	n/a
1727.346	n/a	PROB	863673	n/a	LTP122	ltpFR	13	n/a	n/a	n/a	n/a	n/a	n/a	n/a	21	7	6	8	n/a	n/a	n/a	n/a	n/a
1733.074	n/a	PROB	866537	n/a	LTP122	ltpFR	13	n/a	n/a	n/a	n/a	n/a	n/a	n/a	11	2	7	2	n/a	n/a	n/a	n/a	n/a
1734.846	n/a	PROB	867423	n/a	LTP122	ltpFR	13	n/a	n/a	n/a	n/a	n/a	n/a	n/a	19	5	7	7	n/a	n/a	n/a	n/a	n/a
1736.896	n/a	STOP	868448	n/a	LTP122	ltpFR	13	n/a	n/a	n/a	n/a	n/a	n/a	n/a	n/a	n/a	n/a	n/a	n/a	n/a	n/a	n/a	n/a
1738.792	n/a	WORD	869396	wordpools/wasnorm_wordpool.txt	LTP122	ltpFR	13	7	0	PLAQUE	1084	n/a	n/a	0	n/a	0	0	0	0.57763671875	0.412841796875	1	lower	zerothre.ttf
1741.796	n/a	START	870898	n/a	LTP122	ltpFR	13	n/a	n/a	n/a	n/a	n/a	n/a	n/a	n/a	n/a	n/a	n/a	n/a	n/a	n/a	n/a	n/a
1742.92	n/a	PROB	871460	n/a	LTP122	ltpFR	13	n/a	n/a	n/a	n/a	n/a	n/a	n/a	5	1	1	3	n/a	n/a	n/a	n/a	n/a
1744.544	n/a	PROB	872272	n/a	LTP122	ltpFR	13	n/a	n/a	n/a	n/a	n/a	n/a	n/a	16	6	6	4	n/a	n/a	n/a	n/a	n/a
1746.284	n/a	PROB	873142	n/a	LTP122	ltpFR	13	n/a	n/a	n/a	n/a	n/a	n/a	n/a	9	2	5	2	n/a	n/a	n/a	n/a	n/a
1747.998	n/a	PROB	873999	n/a	LTP122	ltpFR	13	n/a	n/a	n/a	n/a	n/a	n/a	n/a	11	2	7	2	n/a	n/a	n/a	n/a	n/a
1750.038	n/a	PROB	875019	n/a	LTP122	ltpFR	13	n/a	n/a	n/a	n/a	n/a	n/a	n/a	22	6	7	9	n/a	n/a	n/a	n/a	n/a
1752.71	n/a	PROB	876355	n/a	LTP122	ltpFR	13	n/a	n/a	n/a	n/a	n/a	n/a	n/a	13	8	4	1	n/a	n/a	n/a	n/a	n/a
1754.348	n/a	PROB	877174	n/a	LTP122	ltpFR	13	n/a	n/a	n/a	n/a	n/a	n/a	n/a	18	2	7	9	n/a	n/a	n/a	n/a	n/a
1755.948	n/a	PROB	877974	n/a	LTP122	ltpFR	13	n/a	n/a	n/a	n/a	n/a	n/a	n/a	11	3	7	1	n/a	n/a	n/a	n/a	n/a
1757.114	n/a	STOP	878557	n/a	LTP122	ltpFR	13	n/a	n/a	n/a	n/a	n/a	n/a	n/a	n/a	n/a	n/a	n/a	n/a	n/a	n/a	n/a	n/a
1758.928	n/a	WORD	879464	wordpools/wasnorm_wordpool.txt	LTP122	ltpFR	13	7	0	GIRAFFE	636	n/a	n/a	1	n/a	0	0	0	0.57763671875	0.412841796875	1	lower	zerothre.ttf
1761.934	n/a	START	880967	n/a	LTP122	ltpFR	13	n/a	n/a	n/a	n/a	n/a	n/a	n/a	n/a	n/a	n/a	n/a	n/a	n/a	n/a	n/a	n/a
1762.89	n/a	PROB	881445	n/a	LTP122	ltpFR	13	n/a	n/a	n/a	n/a	n/a	n/a	n/a	20	8	4	8	n/a	n/a	n/a	n/a	n/a
1764.922	n/a	PROB	882461	n/a	LTP122	ltpFR	13	n/a	n/a	n/a	n/a	n/a	n/a	n/a	10	3	6	1	n/a	n/a	n/a	n/a	n/a
1766.386	n/a	PROB	883193	n/a	LTP122	ltpFR	13	n/a	n/a	n/a	n/a	n/a	n/a	n/a	14	4	3	7	n/a	n/a	n/a	n/a	n/a
1767.784	n/a	PROB	883892	n/a	LTP122	ltpFR	13	n/a	n/a	n/a	n/a	n/a	n/a	n/a	15	1	9	5	n/a	n/a	n/a	n/a	n/a
1769.132	n/a	PROB	884566	n/a	LTP122	ltpFR	13	n/a	n/a	n/a	n/a	n/a	n/a	n/a	14	6	7	1	n/a	n/a	n/a	n/a	n/a
1771.188	n/a	PROB	885594	n/a	LTP122	ltpFR	13	n/a	n/a	n/a	n/a	n/a	n/a	n/a	9	5	1	3	n/a	n/a	n/a	n/a	n/a
1772.746	n/a	PROB	886373	n/a	LTP122	ltpFR	13	n/a	n/a	n/a	n/a	n/a	n/a	n/a	14	2	8	4	n/a	n/a	n/a	n/a	n/a
1774.168	n/a	PROB	887084	n/a	LTP122	ltpFR	13	n/a	n/a	n/a	n/a	n/a	n/a	n/a	18	9	3	6	n/a	n/a	n/a	n/a	n/a
1776.554	n/a	STOP	888277	n/a	LTP122	ltpFR	13	n/a	n/a	n/a	n/a	n/a	n/a	n/a	n/a	n/a	n/a	n/a	n/a	n/a	n/a	n/a	n/a
1778.996	n/a	WORD	889498	wordpools/wasnorm_wordpool.txt	LTP122	ltpFR	13	7	0	ELEPHANT	523	n/a	n/a	1	n/a	0	0	0	0.57763671875	0.412841796875	1	lower	zerothre.ttf
1782.002	n/a	START	891001	n/a	LTP122	ltpFR	13	n/a	n/a	n/a	n/a	n/a	n/a	n/a	n/a	n/a	n/a	n/a	n/a	n/a	n/a	n/a	n/a
1782.884	n/a	PROB	891442	n/a	LTP122	ltpFR	13	n/a	n/a	n/a	n/a	n/a	n/a	n/a	10	1	5	4	n/a	n/a	n/a	n/a	n/a
1784.474	n/a	PROB	892237	n/a	LTP122	ltpFR	13	n/a	n/a	n/a	n/a	n/a	n/a	n/a	14	3	6	5	n/a	n/a	n/a	n/a	n/a
1787.776	n/a	PROB	893888	n/a	LTP122	ltpFR	13	n/a	n/a	n/a	n/a	n/a	n/a	n/a	11	5	4	2	n/a	n/a	n/a	n/a	n/a
1789.834	n/a	PROB	894917	n/a	LTP122	ltpFR	13	n/a	n/a	n/a	n/a	n/a	n/a	n/a	19	7	9	3	n/a	n/a	n/a	n/a	n/a
1792.622	n/a	PROB	896311	n/a	LTP122	ltpFR	13	n/a	n/a	n/a	n/a	n/a	n/a	n/a	21	7	5	9	n/a	n/a	n/a	n/a	n/a
1798.002	n/a	STOP	899001	n/a	LTP122	ltpFR	13	n/a	n/a	n/a	n/a	n/a	n/a	n/a	n/a	n/a	n/a	n/a	n/a	n/a	n/a	n/a	n/a
1798.948	n/a	WORD	899474	wordpools/wasnorm_wordpool.txt	LTP122	ltpFR	13	7	0	GUM	672	n/a	n/a	0	n/a	0	0	0	0.57763671875	0.412841796875	1	lower	zerothre.ttf
1801.954	n/a	START	900977	n/a	LTP122	ltpFR	13	n/a	n/a	n/a	n/a	n/a	n/a	n/a	n/a	n/a	n/a	n/a	n/a	n/a	n/a	n/a	n/a
1803.11	n/a	PROB	901555	n/a	LTP122	ltpFR	13	n/a	n/a	n/a	n/a	n/a	n/a	n/a	24	8	9	7	n/a	n/a	n/a	n/a	n/a
1807.73	n/a	PROB	903865	n/a	LTP122	ltpFR	13	n/a	n/a	n/a	n/a	n/a	n/a	n/a	9	1	6	2	n/a	n/a	n/a	n/a	n/a
1809.328	n/a	PROB	904664	n/a	LTP122	ltpFR	13	n/a	n/a	n/a	n/a	n/a	n/a	n/a	6	1	3	2	n/a	n/a	n/a	n/a	n/a
1811.042	n/a	PROB	905521	n/a	LTP122	ltpFR	13	n/a	n/a	n/a	n/a	n/a	n/a	n/a	15	4	9	2	n/a	n/a	n/a	n/a	n/a
1812.648	n/a	PROB	906324	n/a	LTP122	ltpFR	13	n/a	n/a	n/a	n/a	n/a	n/a	n/a	6	3	1	2	n/a	n/a	n/a	n/a	n/a
1814.788	n/a	PROB	907394	n/a	LTP122	ltpFR	13	n/a	n/a	n/a	n/a	n/a	n/a	n/a	14	4	3	7	n/a	n/a	n/a	n/a	n/a
1816.746	n/a	STOP	908373	n/a	LTP122	ltpFR	13	n/a	n/a	n/a	n/a	n/a	n/a	n/a	n/a	n/a	n/a	n/a	n/a	n/a	n/a	n/a	n/a
1818.976	n/a	WORD	909488	wordpools/wasnorm_wordpool.txt	LTP122	ltpFR	13	7	1	STEAM	1375	n/a	n/a	0	n/a	0	0	0	0.422607421875	0.5869140625	0	upper	amplitud.ttf
1821.98	n/a	START	910990	n/a	LTP122	ltpFR	13	n/a	n/a	n/a	n/a	n/a	n/a	n/a	n/a	n/a	n/a	n/a	n/a	n/a	n/a	n/a	n/a
1823.112	n/a	PROB	911556	n/a	LTP122	ltpFR	13	n/a	n/a	n/a	n/a	n/a	n/a	n/a	13	4	8	1	n/a	n/a	n/a	n/a	n/a
1824.66	n/a	PROB	912330	n/a	LTP122	ltpFR	13	n/a	n/a	n/a	n/a	n/a	n/a	n/a	18	5	8	5	n/a	n/a	n/a	n/a	n/a
1826.574	n/a	PROB	913287	n/a	LTP122	ltpFR	13	n/a	n/a	n/a	n/a	n/a	n/a	n/a	9	5	3	1	n/a	n/a	n/a	n/a	n/a
1828.14	n/a	PROB	914070	n/a	LTP122	ltpFR	13	n/a	n/a	n/a	n/a	n/a	n/a	n/a	21	8	9	4	n/a	n/a	n/a	n/a	n/a
1830.81	n/a	PROB	915405	n/a	LTP122	ltpFR	13	n/a	n/a	n/a	n/a	n/a	n/a	n/a	17	9	3	5	n/a	n/a	n/a	n/a	n/a
1832.8	n/a	PROB	916400	n/a	LTP122	ltpFR	13	n/a	n/a	n/a	n/a	n/a	n/a	n/a	13	6	8	1	n/a	n/a	n/a	n/a	n/a
1834.906	n/a	PROB	917453	n/a	LTP122	ltpFR	13	n/a	n/a	n/a	n/a	n/a	n/a	n/a	12	8	3	1	n/a	n/a	n/a	n/a	n/a
1837.776	n/a	STOP	918888	n/a	LTP122	ltpFR	13	n/a	n/a	n/a	n/a	n/a	n/a	n/a	n/a	n/a	n/a	n/a	n/a	n/a	n/a	n/a	n/a
1838.986	n/a	WORD	919493	wordpools/wasnorm_wordpool.txt	LTP122	ltpFR	13	7	1	MASCARA	875	n/a	n/a	0	n/a	0	0	0	0.422607421875	0.5869140625	0	upper	amplitud.ttf
1841.992	n/a	START	920996	n/a	LTP122	ltpFR	13	n/a	n/a	n/a	n/a	n/a	n/a	n/a	n/a	n/a	n/a	n/a	n/a	n/a	n/a	n/a	n/a
1842.906	n/a	PROB	921453	n/a	LTP122	ltpFR	13	n/a	n/a	n/a	n/a	n/a	n/a	n/a	110	1	3	7	n/a	n/a	n/a	n/a	n/a
1846.294	n/a	PROB	923147	n/a	LTP122	ltpFR	13	n/a	n/a	n/a	n/a	n/a	n/a	n/a	6	4	1	1	n/a	n/a	n/a	n/a	n/a
1848.326	n/a	PROB	924163	n/a	LTP122	ltpFR	13	n/a	n/a	n/a	n/a	n/a	n/a	n/a	13	3	5	5	n/a	n/a	n/a	n/a	n/a
1851.346	n/a	PROB	925673	n/a	LTP122	ltpFR	13	n/a	n/a	n/a	n/a	n/a	n/a	n/a	16	8	3	5	n/a	n/a	n/a	n/a	n/a
1853.736	n/a	PROB	926868	n/a	LTP122	ltpFR	13	n/a	n/a	n/a	n/a	n/a	n/a	n/a	17	8	3	6	n/a	n/a	n/a	n/a	n/a
1855.376	n/a	PROB	927688	n/a	LTP122	ltpFR	13	n/a	n/a	n/a	n/a	n/a	n/a	n/a	11	3	7	1	n/a	n/a	n/a	n/a	n/a
1856.65	n/a	STOP	928325	n/a	LTP122	ltpFR	13	n/a	n/a	n/a	n/a	n/a	n/a	n/a	n/a	n/a	n/a	n/a	n/a	n/a	n/a	n/a	n/a
1859.08	n/a	WORD	929540	wordpools/wasnorm_wordpool.txt	LTP122	ltpFR	13	7	1	COCOON	339	n/a	n/a	0	n/a	0	0	0	0.422607421875	0.5869140625	0	upper	amplitud.ttf
1862.084	n/a	START	931042	n/a	LTP122	ltpFR	13	n/a	n/a	n/a	n/a	n/a	n/a	n/a	n/a	n/a	n/a	n/a	n/a	n/a	n/a	n/a	n/a
1862.916	n/a	PROB	931458	n/a	LTP122	ltpFR	13	n/a	n/a	n/a	n/a	n/a	n/a	n/a	13	8	4	1	n/a	n/a	n/a	n/a	n/a
1865.056	n/a	PROB	932528	n/a	LTP122	ltpFR	13	n/a	n/a	n/a	n/a	n/a	n/a	n/a	12	9	1	2	n/a	n/a	n/a	n/a	n/a
1866.896	n/a	PROB	933448	n/a	LTP122	ltpFR	13	n/a	n/a	n/a	n/a	n/a	n/a	n/a	12	3	8	1	n/a	n/a	n/a	n/a	n/a
1869.242	n/a	PROB	934621	n/a	LTP122	ltpFR	13	n/a	n/a	n/a	n/a	n/a	n/a	n/a	16	5	2	7	n/a	n/a	n/a	n/a	n/a
1871.09	n/a	PROB	935545	n/a	LTP122	ltpFR	13	n/a	n/a	n/a	n/a	n/a	n/a	n/a	13	9	1	3	n/a	n/a	n/a	n/a	n/a
1873.096	n/a	PROB	936548	n/a	LTP122	ltpFR	13	n/a	n/a	n/a	n/a	n/a	n/a	n/a	12	7	4	1	n/a	n/a	n/a	n/a	n/a
1874.92	n/a	PROB	937460	n/a	LTP122	ltpFR	13	n/a	n/a	n/a	n/a	n/a	n/a	n/a	11	1	2	8	n/a	n/a	n/a	n/a	n/a
1878.084	n/a	STOP	939042	n/a	LTP122	ltpFR	13	n/a	n/a	n/a	n/a	n/a	n/a	n/a	n/a	n/a	n/a	n/a	n/a	n/a	n/a	n/a	n/a
1878.898	n/a	WORD	939449	wordpools/wasnorm_wordpool.txt	LTP122	ltpFR	13	7	1	DINOSAUR	469	n/a	n/a	1	n/a	0	0	0	0.422607421875	0.5869140625	0	upper	amplitud.ttf
1881.904	n/a	START	940952	n/a	LTP122	ltpFR	13	n/a	n/a	n/a	n/a	n/a	n/a	n/a	n/a	n/a	n/a	n/a	n/a	n/a	n/a	n/a	n/a
1883.068	n/a	PROB	941534	n/a	LTP122	ltpFR	13	n/a	n/a	n/a	n/a	n/a	n/a	n/a	24	7	9	8	n/a	n/a	n/a	n/a	n/a
1888.954	n/a	PROB	944477	n/a	LTP122	ltpFR	13	n/a	n/a	n/a	n/a	n/a	n/a	n/a	16	6	4	6	n/a	n/a	n/a	n/a	n/a
1890.41	n/a	PROB	945205	n/a	LTP122	ltpFR	13	n/a	n/a	n/a	n/a	n/a	n/a	n/a	15	5	8	2	n/a	n/a	n/a	n/a	n/a
1892.142	n/a	PROB	946071	n/a	LTP122	ltpFR	13	n/a	n/a	n/a	n/a	n/a	n/a	n/a	18	9	7	2	n/a	n/a	n/a	n/a	n/a
1894.18	n/a	PROB	947090	n/a	LTP122	ltpFR	13	n/a	n/a	n/a	n/a	n/a	n/a	n/a	15	7	3	5	n/a	n/a	n/a	n/a	n/a
1895.496	n/a	PROB	947748	n/a	LTP122	ltpFR	13	n/a	n/a	n/a	n/a	n/a	n/a	n/a	11	4	1	6	n/a	n/a	n/a	n/a	n/a
1897.146	n/a	STOP	948573	n/a	LTP122	ltpFR	13	n/a	n/a	n/a	n/a	n/a	n/a	n/a	n/a	n/a	n/a	n/a	n/a	n/a	n/a	n/a	n/a
1899.632	n/a	REC_START	949816	n/a	LTP122	ltpFR	13	7	n/a	n/a	n/a	n/a	n/a	n/a	n/a	0	0	0	n/a	n/a	n/a	n/a	n/a
1901.762	n/a	REC_WORD	950881	wordpools/wasnorm_wordpool.txt	LTP122	ltpFR	13	7	0	LOAF	835	n/a	n/a	0	n/a	0	0	0	n/a	n/a	n/a	n/a	n/a
1902.69	n/a	REC_WORD	951345	wordpools/wasnorm_wordpool.txt	LTP122	ltpFR	13	7	0	PAD	998	n/a	n/a	0	n/a	0	0	0	n/a	n/a	n/a	n/a	n/a
1903.388	n/a	REC_WORD	951694	wordpools/wasnorm_wordpool.txt	LTP122	ltpFR	13	7	1	QUILT	1151	n/a	n/a	1	n/a	0	0	0	n/a	n/a	n/a	n/a	n/a
1904.322	n/a	REC_WORD	952161	wordpools/wasnorm_wordpool.txt	LTP122	ltpFR	13	7	0	COLT	349	n/a	n/a	1	n/a	0	0	0	n/a	n/a	n/a	n/a	n/a
1906.05	n/a	REC_WORD	953025	wordpools/wasnorm_wordpool.txt	LTP122	ltpFR	13	7	0	STABLE	1363	n/a	n/a	1	n/a	0	0	0	n/a	n/a	n/a	n/a	n/a
1908.602	n/a	REC_WORD	954301	wordpools/wasnorm_wordpool.txt	LTP122	ltpFR	13	7	1	INMATE	738	n/a	n/a	1	n/a	0	0	0	n/a	n/a	n/a	n/a	n/a
1909.51	n/a	REC_WORD	954755	wordpools/wasnorm_wordpool.txt	LTP122	ltpFR	13	7	1	FUGITIVE	612	n/a	n/a	1	n/a	0	0	0	n/a	n/a	n/a	n/a	n/a
1911.012	n/a	REC_WORD	955506	wordpools/wasnorm_wordpool.txt	LTP122	ltpFR	13	7	1	PASTRY	1022	n/a	n/a	0	n/a	0	0	0	n/a	n/a	n/a	n/a	n/a
1913.336	n/a	REC_WORD	956668	wordpools/wasnorm_wordpool.txt	LTP122	ltpFR	13	7	0	GIRAFFE	636	n/a	n/a	1	n/a	0	0	0	n/a	n/a	n/a	n/a	n/a
1913.964	n/a	REC_WORD	956982	wordpools/wasnorm_wordpool.txt	LTP122	ltpFR	13	7	1	MASCARA	875	n/a	n/a	0	n/a	0	0	0	n/a	n/a	n/a	n/a	n/a
1914.684	n/a	REC_WORD	957342	wordpools/wasnorm_wordpool.txt	LTP122	ltpFR	13	7	0	ELEPHANT	523	n/a	n/a	1	n/a	0	0	0	n/a	n/a	n/a	n/a	n/a
1915.296	n/a	REC_WORD	957648	wordpools/wasnorm_wordpool.txt	LTP122	ltpFR	13	7	1	STEAM	1375	n/a	n/a	0	n/a	0	0	0	n/a	n/a	n/a	n/a	n/a
1917.318	n/a	REC_WORD	958659	wordpools/wasnorm_wordpool.txt	LTP122	ltpFR	13	7	1	DINOSAUR	469	n/a	n/a	1	n/a	0	0	0	n/a	n/a	n/a	n/a	n/a
1917.986	n/a	REC_WORD	958993	wordpools/wasnorm_wordpool.txt	LTP122	ltpFR	13	7	1	COCOON	339	n/a	n/a	0	n/a	0	0	0	n/a	n/a	n/a	n/a	n/a
1929.984	n/a	REC_WORD	964992	wordpools/wasnorm_wordpool.txt	LTP122	ltpFR	13	7	0	GUM	672	n/a	n/a	0	n/a	0	0	0	n/a	n/a	n/a	n/a	n/a
1935.606	n/a	REC_WORD	967803	wordpools/wasnorm_wordpool.txt	LTP122	ltpFR	13	7	0	LOAF	835	n/a	n/a	0	n/a	0	0	0	n/a	n/a	n/a	n/a	n/a
2118.348	n/a	WORD	1059174	wordpools/wasnorm_wordpool.txt	LTP122	ltpFR	13	8	1	MAT	877	n/a	n/a	0	n/a	0	0	0	0.422607421875	0.5869140625	0	upper	amplitud.ttf
2122.418	n/a	WORD	1061209	wordpools/wasnorm_wordpool.txt	LTP122	ltpFR	13	8	1	CARPET	247	n/a	n/a	0	n/a	0	0	0	0.422607421875	0.5869140625	0	upper	amplitud.ttf
2126.522	n/a	WORD	1063261	wordpools/wasnorm_wordpool.txt	LTP122	ltpFR	13	8	1	BOULEVARD	156	n/a	n/a	1	n/a	0	0	0	0.422607421875	0.5869140625	0	upper	amplitud.ttf
2130.71	n/a	WORD	1065355	wordpools/wasnorm_wordpool.txt	LTP122	ltpFR	13	8	1	OWL	992	n/a	n/a	1	n/a	0	0	0	0.422607421875	0.5869140625	0	upper	amplitud.ttf
2134.588	n/a	WORD	1067294	wordpools/wasnorm_wordpool.txt	LTP122	ltpFR	13	8	1	MARBLE	867	n/a	n/a	0	n/a	0	0	0	0.422607421875	0.5869140625	0	upper	amplitud.ttf
2138.566	n/a	WORD	1069283	wordpools/wasnorm_wordpool.txt	LTP122	ltpFR	13	8	1	LENS	811	n/a	n/a	0	n/a	0	0	0	0.422607421875	0.5869140625	0	upper	amplitud.ttf
2142.404	n/a	WORD	1071202	wordpools/wasnorm_wordpool.txt	LTP122	ltpFR	13	8	0	TAR	1435	n/a	n/a	0	n/a	0	0	0	0.57763671875	0.412841796875	1	lower	zerothre.ttf
2146.282	n/a	WORD	1073141	wordpools/wasnorm_wordpool.txt	LTP122	ltpFR	13	8	0	ROCK	1201	n/a	n/a	0	n/a	0	0	0	0.57763671875	0.412841796875	1	lower	zerothre.ttf
2150.17	n/a	WORD	1075085	wordpools/wasnorm_wordpool.txt	LTP122	ltpFR	13	8	0	TOURIST	1488	n/a	n/a	1	n/a	0	0	0	0.57763671875	0.412841796875	1	lower	zerothre.ttf
2154.29	n/a	WORD	1077145	wordpools/wasnorm_wordpool.txt	LTP122	ltpFR	13	8	0	BASSINET	97	n/a	n/a	1	n/a	0	0	0	0.57763671875	0.412841796875	1	lower	zerothre.ttf
2158.194	n/a	WORD	1079097	wordpools/wasnorm_wordpool.txt	LTP122	ltpFR	13	8	1	PUB	1135	n/a	n/a	0	n/a	0	0	0	0.422607421875	0.5869140625	0	upper	amplitud.ttf
2162.24	n/a	WORD	1081120	wordpools/wasnorm_wordpool.txt	LTP122	ltpFR	13	8	1	DUNGEON	507	n/a	n/a	0	n/a	0	0	0	0.422607421875	0.5869140625	0	upper	amplitud.ttf
2166.242	n/a	WORD	1083121	wordpools/wasnorm_wordpool.txt	LTP122	ltpFR	13	8	0	PRISONER	1128	n/a	n/a	1	n/a	0	0	0	0.57763671875	0.412841796875	1	lower	zerothre.ttf
2170.43	n/a	WORD	1085215	wordpools/wasnorm_wordpool.txt	LTP122	ltpFR	13	8	0	DOLLAR	482	n/a	n/a	0	n/a	0	0	0	0.57763671875	0.412841796875	1	lower	zerothre.ttf
2174.634	n/a	WORD	1087317	wordpools/wasnorm_wordpool.txt	LTP122	ltpFR	13	8	0	WHALE	1601	n/a	n/a	1	n/a	0	0	0	0.57763671875	0.412841796875	1	lower	zerothre.ttf
2178.604	n/a	WORD	1089302	wordpools/wasnorm_wordpool.txt	LTP122	ltpFR	13	8	0	KEEPER	769	n/a	n/a	1	n/a	0	0	0	0.57763671875	0.412841796875	1	lower	zerothre.ttf
2184.574	n/a	REC_START	1092287	n/a	LTP122	ltpFR	13	8	n/a	n/a	n/a	n/a	n/a	n/a	n/a	0	0	0	n/a	n/a	n/a	n/a	n/a
2186.698	n/a	REC_WORD	1093349	wordpools/wasnorm_wordpool.txt	LTP122	ltpFR	13	8	1	MAT	877	n/a	n/a	0	n/a	0	0	0	n/a	n/a	n/a	n/a	n/a
2187.556	n/a	REC_WORD	1093778	wordpools/wasnorm_wordpool.txt	LTP122	ltpFR	13	8	1	CARPET	247	n/a	n/a	0	n/a	0	0	0	n/a	n/a	n/a	n/a	n/a
2188.444	n/a	REC_WORD	1094222	wordpools/wasnorm_wordpool.txt	LTP122	ltpFR	13	8	1	BOULEVARD	156	n/a	n/a	1	n/a	0	0	0	n/a	n/a	n/a	n/a	n/a
2189.268	n/a	REC_WORD	1094634	wordpools/wasnorm_wordpool.txt	LTP122	ltpFR	13	8	0	TAR	1435	n/a	n/a	0	n/a	0	0	0	n/a	n/a	n/a	n/a	n/a
2190.196	n/a	REC_WORD	1095098	wordpools/wasnorm_wordpool.txt	LTP122	ltpFR	13	8	1	OWL	992	n/a	n/a	1	n/a	0	0	0	n/a	n/a	n/a	n/a	n/a
2190.918	n/a	REC_WORD	1095459	wordpools/wasnorm_wordpool.txt	LTP122	ltpFR	13	8	1	MARBLE	867	n/a	n/a	0	n/a	0	0	0	n/a	n/a	n/a	n/a	n/a
2192.006	n/a	REC_WORD	1096003	wordpools/wasnorm_wordpool.txt	LTP122	ltpFR	13	8	n/a	STONE	1385	n/a	n/a	n/a	n/a	0	0	0	n/a	n/a	n/a	n/a	n/a
2193.248	n/a	REC_WORD	1096624	wordpools/wasnorm_wordpool.txt	LTP122	ltpFR	13	8	1	LENS	811	n/a	n/a	0	n/a	0	0	0	n/a	n/a	n/a	n/a	n/a
2200.182	n/a	REC_WORD	1100091	wordpools/wasnorm_wordpool.txt	LTP122	ltpFR	13	8	1	PUB	1135	n/a	n/a	0	n/a	0	0	0	n/a	n/a	n/a	n/a	n/a
2203.46	n/a	REC_WORD	1101730	wordpools/wasnorm_wordpool.txt	LTP122	ltpFR	13	8	1	DUNGEON	507	n/a	n/a	0	n/a	0	0	0	n/a	n/a	n/a	n/a	n/a
2205.87	n/a	REC_WORD	1102935	wordpools/wasnorm_wordpool.txt	LTP122	ltpFR	13	8	0	PRISONER	1128	n/a	n/a	1	n/a	0	0	0	n/a	n/a	n/a	n/a	n/a
2207.65	n/a	REC_WORD	1103825	wordpools/wasnorm_wordpool.txt	LTP122	ltpFR	13	8	0	DOLLAR	482	n/a	n/a	0	n/a	0	0	0	n/a	n/a	n/a	n/a	n/a
2209.67	n/a	REC_WORD	1104835	wordpools/wasnorm_wordpool.txt	LTP122	ltpFR	13	8	0	KEEPER	769	n/a	n/a	1	n/a	0	0	0	n/a	n/a	n/a	n/a	n/a
2210.45	n/a	REC_WORD	1105225	wordpools/wasnorm_wordpool.txt	LTP122	ltpFR	13	8	0	WHALE	1601	n/a	n/a	1	n/a	0	0	0	n/a	n/a	n/a	n/a	n/a
2217.644	n/a	REC_WORD	1108822	wordpools/wasnorm_wordpool.txt	LTP122	ltpFR	13	8	0	BASSINET	97	n/a	n/a	1	n/a	0	0	0	n/a	n/a	n/a	n/a	n/a
2218.582	n/a	REC_WORD	1109291	wordpools/wasnorm_wordpool.txt	LTP122	ltpFR	13	8	0	TOURIST	1488	n/a	n/a	1	n/a	0	0	0	n/a	n/a	n/a	n/a	n/a
2225.25	n/a	REC_WORD	1112625	wordpools/wasnorm_wordpool.txt	LTP122	ltpFR	13	8	n/a	BAR	-1	n/a	n/a	n/a	n/a	0	0	0	n/a	n/a	n/a	n/a	n/a
2256.958	n/a	REC_WORD	1128479	wordpools/wasnorm_wordpool.txt	LTP122	ltpFR	13	8	1	CARPET	247	n/a	n/a	0	n/a	0	0	0	n/a	n/a	n/a	n/a	n/a
2261.508	n/a	START	1130754	n/a	LTP122	ltpFR	13	n/a	n/a	n/a	n/a	n/a	n/a	n/a	n/a	n/a	n/a	n/a	n/a	n/a	n/a	n/a	n/a
2263.016	n/a	PROB	1131508	n/a	LTP122	ltpFR	13	n/a	n/a	n/a	n/a	n/a	n/a	n/a	11	2	6	3	n/a	n/a	n/a	n/a	n/a
2265.62	n/a	PROB	1132810	n/a	LTP122	ltpFR	13	n/a	n/a	n/a	n/a	n/a	n/a	n/a	24	7	9	8	n/a	n/a	n/a	n/a	n/a
2268.15	n/a	PROB	1134075	n/a	LTP122	ltpFR	13	n/a	n/a	n/a	n/a	n/a	n/a	n/a	9	2	3	4	n/a	n/a	n/a	n/a	n/a
2269.49	n/a	PROB	1134745	n/a	LTP122	ltpFR	13	n/a	n/a	n/a	n/a	n/a	n/a	n/a	13	6	4	3	n/a	n/a	n/a	n/a	n/a
2270.64	n/a	PROB	1135320	n/a	LTP122	ltpFR	13	n/a	n/a	n/a	n/a	n/a	n/a	n/a	14	7	5	2	n/a	n/a	n/a	n/a	n/a
2272.962	n/a	PROB	1136481	n/a	LTP122	ltpFR	13	n/a	n/a	n/a	n/a	n/a	n/a	n/a	10	6	1	3	n/a	n/a	n/a	n/a	n/a
2274.694	n/a	PROB	1137347	n/a	LTP122	ltpFR	13	n/a	n/a	n/a	n/a	n/a	n/a	n/a	7	3	3	1	n/a	n/a	n/a	n/a	n/a
2276.2	n/a	STOP	1138100	n/a	LTP122	ltpFR	13	n/a	n/a	n/a	n/a	n/a	n/a	n/a	n/a	n/a	n/a	n/a	n/a	n/a	n/a	n/a	n/a
2278.698	n/a	WORD	1139349	wordpools/wasnorm_wordpool.txt	LTP122	ltpFR	13	9	1	FELLOW	558	n/a	n/a	1	n/a	0	0	0	0.422607421875	0.5869140625	0	upper	amplitud.ttf
2281.704	n/a	START	1140852	n/a	LTP122	ltpFR	13	n/a	n/a	n/a	n/a	n/a	n/a	n/a	n/a	n/a	n/a	n/a	n/a	n/a	n/a	n/a	n/a
2282.518	n/a	PROB	1141259	n/a	LTP122	ltpFR	13	n/a	n/a	n/a	n/a	n/a	n/a	n/a	17	8	8	1	n/a	n/a	n/a	n/a	n/a
2284.882	n/a	PROB	1142441	n/a	LTP122	ltpFR	13	n/a	n/a	n/a	n/a	n/a	n/a	n/a	13	3	8	2	n/a	n/a	n/a	n/a	n/a
2287.63	n/a	PROB	1143815	n/a	LTP122	ltpFR	13	n/a	n/a	n/a	n/a	n/a	n/a	n/a	10	3	2	5	n/a	n/a	n/a	n/a	n/a
2289.21	n/a	PROB	1144605	n/a	LTP122	ltpFR	13	n/a	n/a	n/a	n/a	n/a	n/a	n/a	12	3	1	8	n/a	n/a	n/a	n/a	n/a
2290.766	n/a	PROB	1145383	n/a	LTP122	ltpFR	13	n/a	n/a	n/a	n/a	n/a	n/a	n/a	13	6	6	1	n/a	n/a	n/a	n/a	n/a
2292.158	n/a	PROB	1146079	n/a	LTP122	ltpFR	13	n/a	n/a	n/a	n/a	n/a	n/a	n/a	14	3	2	9	n/a	n/a	n/a	n/a	n/a
2293.748	n/a	PROB	1146874	n/a	LTP122	ltpFR	13	n/a	n/a	n/a	n/a	n/a	n/a	n/a	14	2	7	5	n/a	n/a	n/a	n/a	n/a
2297.704	n/a	STOP	1148852	n/a	LTP122	ltpFR	13	n/a	n/a	n/a	n/a	n/a	n/a	n/a	n/a	n/a	n/a	n/a	n/a	n/a	n/a	n/a	n/a
2298.642	n/a	WORD	1149321	wordpools/wasnorm_wordpool.txt	LTP122	ltpFR	13	9	1	MAP	865	n/a	n/a	0	n/a	0	0	0	0.422607421875	0.5869140625	0	upper	amplitud.ttf
2301.646	n/a	START	1150823	n/a	LTP122	ltpFR	13	n/a	n/a	n/a	n/a	n/a	n/a	n/a	n/a	n/a	n/a	n/a	n/a	n/a	n/a	n/a	n/a
2302.586	n/a	PROB	1151293	n/a	LTP122	ltpFR	13	n/a	n/a	n/a	n/a	n/a	n/a	n/a	20	2	9	9	n/a	n/a	n/a	n/a	n/a
2305.542	n/a	PROB	1152771	n/a	LTP122	ltpFR	13	n/a	n/a	n/a	n/a	n/a	n/a	n/a	13	5	6	2	n/a	n/a	n/a	n/a	n/a
2306.974	n/a	PROB	1153487	n/a	LTP122	ltpFR	13	n/a	n/a	n/a	n/a	n/a	n/a	n/a	18	5	6	7	n/a	n/a	n/a	n/a	n/a
2309.92	n/a	PROB	1154960	n/a	LTP122	ltpFR	13	n/a	n/a	n/a	n/a	n/a	n/a	n/a	10	3	6	1	n/a	n/a	n/a	n/a	n/a
2312.3	n/a	PROB	1156150	n/a	LTP122	ltpFR	13	n/a	n/a	n/a	n/a	n/a	n/a	n/a	16	8	6	2	n/a	n/a	n/a	n/a	n/a
2314.64	n/a	PROB	1157320	n/a	LTP122	ltpFR	13	n/a	n/a	n/a	n/a	n/a	n/a	n/a	16	4	5	7	n/a	n/a	n/a	n/a	n/a
2316.528	n/a	STOP	1158264	n/a	LTP122	ltpFR	13	n/a	n/a	n/a	n/a	n/a	n/a	n/a	n/a	n/a	n/a	n/a	n/a	n/a	n/a	n/a	n/a
2318.766	n/a	WORD	1159383	wordpools/wasnorm_wordpool.txt	LTP122	ltpFR	13	9	1	TYPEWRITER	1531	n/a	n/a	0	n/a	0	0	0	0.422607421875	0.5869140625	0	upper	amplitud.ttf
2321.772	n/a	START	1160886	n/a	LTP122	ltpFR	13	n/a	n/a	n/a	n/a	n/a	n/a	n/a	n/a	n/a	n/a	n/a	n/a	n/a	n/a	n/a	n/a
2322.63	n/a	PROB	1161315	n/a	LTP122	ltpFR	13	n/a	n/a	n/a	n/a	n/a	n/a	n/a	10	8	1	1	n/a	n/a	n/a	n/a	n/a
2324.312	n/a	PROB	1162156	n/a	LTP122	ltpFR	13	n/a	n/a	n/a	n/a	n/a	n/a	n/a	23	8	7	8	n/a	n/a	n/a	n/a	n/a
2328.14	n/a	PROB	1164070	n/a	LTP122	ltpFR	13	n/a	n/a	n/a	n/a	n/a	n/a	n/a	11	3	7	1	n/a	n/a	n/a	n/a	n/a
2330.322	n/a	PROB	1165161	n/a	LTP122	ltpFR	13	n/a	n/a	n/a	n/a	n/a	n/a	n/a	11	4	1	6	n/a	n/a	n/a	n/a	n/a
2332.336	n/a	PROB	1166168	n/a	LTP122	ltpFR	13	n/a	n/a	n/a	n/a	n/a	n/a	n/a	6	1	4	1	n/a	n/a	n/a	n/a	n/a
2334.5	n/a	PROB	1167250	n/a	LTP122	ltpFR	13	n/a	n/a	n/a	n/a	n/a	n/a	n/a	11	1	3	7	n/a	n/a	n/a	n/a	n/a
2337.772	n/a	STOP	1168886	n/a	LTP122	ltpFR	13	n/a	n/a	n/a	n/a	n/a	n/a	n/a	n/a	n/a	n/a	n/a	n/a	n/a	n/a	n/a	n/a
2338.712	n/a	WORD	1169356	wordpools/wasnorm_wordpool.txt	LTP122	ltpFR	13	9	1	NOTEBOOK	959	n/a	n/a	0	n/a	0	0	0	0.422607421875	0.5869140625	0	upper	amplitud.ttf
2341.716	n/a	START	1170858	n/a	LTP122	ltpFR	13	n/a	n/a	n/a	n/a	n/a	n/a	n/a	n/a	n/a	n/a	n/a	n/a	n/a	n/a	n/a	n/a
2342.706	n/a	PROB	1171353	n/a	LTP122	ltpFR	13	n/a	n/a	n/a	n/a	n/a	n/a	n/a	7	2	3	2	n/a	n/a	n/a	n/a	n/a
2344.654	n/a	PROB	1172327	n/a	LTP122	ltpFR	13	n/a	n/a	n/a	n/a	n/a	n/a	n/a	11	2	8	1	n/a	n/a	n/a	n/a	n/a
2346.294	n/a	PROB	1173147	n/a	LTP122	ltpFR	13	n/a	n/a	n/a	n/a	n/a	n/a	n/a	19	7	8	4	n/a	n/a	n/a	n/a	n/a
2348.484	n/a	PROB	1174242	n/a	LTP122	ltpFR	13	n/a	n/a	n/a	n/a	n/a	n/a	n/a	13	3	8	2	n/a	n/a	n/a	n/a	n/a
2350.248	n/a	PROB	1175124	n/a	LTP122	ltpFR	13	n/a	n/a	n/a	n/a	n/a	n/a	n/a	17	2	7	8	n/a	n/a	n/a	n/a	n/a
2352.962	n/a	PROB	1176481	n/a	LTP122	ltpFR	13	n/a	n/a	n/a	n/a	n/a	n/a	n/a	17	7	4	6	n/a	n/a	n/a	n/a	n/a
2357.718	n/a	STOP	1178859	n/a	LTP122	ltpFR	13	n/a	n/a	n/a	n/a	n/a	n/a	n/a	n/a	n/a	n/a	n/a	n/a	n/a	n/a	n/a	n/a
2358.64	n/a	WORD	1179320	wordpools/wasnorm_wordpool.txt	LTP122	ltpFR	13	9	1	NEWSPAPER	948	n/a	n/a	0	n/a	0	0	0	0.422607421875	0.5869140625	0	upper	amplitud.ttf
2361.644	n/a	START	1180822	n/a	LTP122	ltpFR	13	n/a	n/a	n/a	n/a	n/a	n/a	n/a	n/a	n/a	n/a	n/a	n/a	n/a	n/a	n/a	n/a
2362.694	n/a	PROB	1181347	n/a	LTP122	ltpFR	13	n/a	n/a	n/a	n/a	n/a	n/a	n/a	17	4	7	6	n/a	n/a	n/a	n/a	n/a
2366.148	n/a	PROB	1183074	n/a	LTP122	ltpFR	13	n/a	n/a	n/a	n/a	n/a	n/a	n/a	13	5	4	4	n/a	n/a	n/a	n/a	n/a
2367.728	n/a	PROB	1183864	n/a	LTP122	ltpFR	13	n/a	n/a	n/a	n/a	n/a	n/a	n/a	12	3	4	5	n/a	n/a	n/a	n/a	n/a
2370.218	n/a	PROB	1185109	n/a	LTP122	ltpFR	13	n/a	n/a	n/a	n/a	n/a	n/a	n/a	17	6	2	9	n/a	n/a	n/a	n/a	n/a
2372.048	n/a	PROB	1186024	n/a	LTP122	ltpFR	13	n/a	n/a	n/a	n/a	n/a	n/a	n/a	9	2	6	1	n/a	n/a	n/a	n/a	n/a
2373.746	n/a	PROB	1186873	n/a	LTP122	ltpFR	13	n/a	n/a	n/a	n/a	n/a	n/a	n/a	22	5	8	9	n/a	n/a	n/a	n/a	n/a
2376.448	n/a	STOP	1188224	n/a	LTP122	ltpFR	13	n/a	n/a	n/a	n/a	n/a	n/a	n/a	n/a	n/a	n/a	n/a	n/a	n/a	n/a	n/a	n/a
2378.806	n/a	WORD	1189403	wordpools/wasnorm_wordpool.txt	LTP122	ltpFR	13	9	1	BASKET	95	n/a	n/a	0	n/a	0	0	0	0.422607421875	0.5869140625	0	upper	amplitud.ttf
2381.812	n/a	START	1190906	n/a	LTP122	ltpFR	13	n/a	n/a	n/a	n/a	n/a	n/a	n/a	n/a	n/a	n/a	n/a	n/a	n/a	n/a	n/a	n/a
2382.62	n/a	PROB	1191310	n/a	LTP122	ltpFR	13	n/a	n/a	n/a	n/a	n/a	n/a	n/a	8	4	2	2	n/a	n/a	n/a	n/a	n/a
2384.908	n/a	PROB	1192454	n/a	LTP122	ltpFR	13	n/a	n/a	n/a	n/a	n/a	n/a	n/a	20	9	5	6	n/a	n/a	n/a	n/a	n/a
2387.556	n/a	PROB	1193778	n/a	LTP122	ltpFR	13	n/a	n/a	n/a	n/a	n/a	n/a	n/a	9	2	3	4	n/a	n/a	n/a	n/a	n/a
2389.396	n/a	PROB	1194698	n/a	LTP122	ltpFR	13	n/a	n/a	n/a	n/a	n/a	n/a	n/a	15	6	2	7	n/a	n/a	n/a	n/a	n/a
2391.668	n/a	PROB	1195834	n/a	LTP122	ltpFR	13	n/a	n/a	n/a	n/a	n/a	n/a	n/a	17	6	8	3	n/a	n/a	n/a	n/a	n/a
2395.396	n/a	PROB	1197698	n/a	LTP122	ltpFR	13	n/a	n/a	n/a	n/a	n/a	n/a	n/a	5	2	2	1	n/a	n/a	n/a	n/a	n/a
2396.64	n/a	STOP	1198320	n/a	LTP122	ltpFR	13	n/a	n/a	n/a	n/a	n/a	n/a	n/a	n/a	n/a	n/a	n/a	n/a	n/a	n/a	n/a	n/a
2398.71	n/a	WORD	1199355	wordpools/wasnorm_wordpool.txt	LTP122	ltpFR	13	9	1	FOE	587	n/a	n/a	1	n/a	0	0	0	0.422607421875	0.5869140625	0	upper	amplitud.ttf
2401.714	n/a	START	1200857	n/a	LTP122	ltpFR	13	n/a	n/a	n/a	n/a	n/a	n/a	n/a	n/a	n/a	n/a	n/a	n/a	n/a	n/a	n/a	n/a
2402.796	n/a	PROB	1201398	n/a	LTP122	ltpFR	13	n/a	n/a	n/a	n/a	n/a	n/a	n/a	23	5	9	9	n/a	n/a	n/a	n/a	n/a
2405.834	n/a	PROB	1202917	n/a	LTP122	ltpFR	13	n/a	n/a	n/a	n/a	n/a	n/a	n/a	17	7	1	9	n/a	n/a	n/a	n/a	n/a
2407.806	n/a	PROB	1203903	n/a	LTP122	ltpFR	13	n/a	n/a	n/a	n/a	n/a	n/a	n/a	11	1	4	6	n/a	n/a	n/a	n/a	n/a
2409.498	n/a	PROB	1204749	n/a	LTP122	ltpFR	13	n/a	n/a	n/a	n/a	n/a	n/a	n/a	13	2	9	2	n/a	n/a	n/a	n/a	n/a
2412.378	n/a	PROB	1206189	n/a	LTP122	ltpFR	13	n/a	n/a	n/a	n/a	n/a	n/a	n/a	20	8	8	4	n/a	n/a	n/a	n/a	n/a
2414.092	n/a	PROB	1207046	n/a	LTP122	ltpFR	13	n/a	n/a	n/a	n/a	n/a	n/a	n/a	16	4	3	9	n/a	n/a	n/a	n/a	n/a
2417.714	n/a	STOP	1208857	n/a	LTP122	ltpFR	13	n/a	n/a	n/a	n/a	n/a	n/a	n/a	n/a	n/a	n/a	n/a	n/a	n/a	n/a	n/a	n/a
2418.802	n/a	WORD	1209401	wordpools/wasnorm_wordpool.txt	LTP122	ltpFR	13	9	1	STAPLE	1371	n/a	n/a	0	n/a	0	0	0	0.422607421875	0.5869140625	0	upper	amplitud.ttf
2421.808	n/a	START	1210904	n/a	LTP122	ltpFR	13	n/a	n/a	n/a	n/a	n/a	n/a	n/a	n/a	n/a	n/a	n/a	n/a	n/a	n/a	n/a	n/a
2422.89	n/a	PROB	1211445	n/a	LTP122	ltpFR	13	n/a	n/a	n/a	n/a	n/a	n/a	n/a	20	9	8	3	n/a	n/a	n/a	n/a	n/a
2426.002	n/a	PROB	1213001	n/a	LTP122	ltpFR	13	n/a	n/a	n/a	n/a	n/a	n/a	n/a	4	1	2	1	n/a	n/a	n/a	n/a	n/a
2428.326	n/a	PROB	1214163	n/a	LTP122	ltpFR	13	n/a	n/a	n/a	n/a	n/a	n/a	n/a	15	6	4	5	n/a	n/a	n/a	n/a	n/a
2429.932	n/a	PROB	1214966	n/a	LTP122	ltpFR	13	n/a	n/a	n/a	n/a	n/a	n/a	n/a	19	9	2	8	n/a	n/a	n/a	n/a	n/a
2431.68	n/a	PROB	1215840	n/a	LTP122	ltpFR	13	n/a	n/a	n/a	n/a	n/a	n/a	n/a	7	1	4	2	n/a	n/a	n/a	n/a	n/a
2434.61	n/a	PROB	1217305	n/a	LTP122	ltpFR	13	n/a	n/a	n/a	n/a	n/a	n/a	n/a	20	4	8	8	n/a	n/a	n/a	n/a	n/a
2436.576	n/a	STOP	1218288	n/a	LTP122	ltpFR	13	n/a	n/a	n/a	n/a	n/a	n/a	n/a	n/a	n/a	n/a	n/a	n/a	n/a	n/a	n/a	n/a
2439.012	n/a	WORD	1219506	wordpools/wasnorm_wordpool.txt	LTP122	ltpFR	13	9	1	PATH	1023	n/a	n/a	1	n/a	0	0	0	0.422607421875	0.5869140625	0	upper	amplitud.ttf
2442.02	n/a	START	1221010	n/a	LTP122	ltpFR	13	n/a	n/a	n/a	n/a	n/a	n/a	n/a	n/a	n/a	n/a	n/a	n/a	n/a	n/a	n/a	n/a
2442.942	n/a	PROB	1221471	n/a	LTP122	ltpFR	13	n/a	n/a	n/a	n/a	n/a	n/a	n/a	17	3	8	6	n/a	n/a	n/a	n/a	n/a
2445.796	n/a	PROB	1222898	n/a	LTP122	ltpFR	13	n/a	n/a	n/a	n/a	n/a	n/a	n/a	18	4	6	8	n/a	n/a	n/a	n/a	n/a
2448.244	n/a	PROB	1224122	n/a	LTP122	ltpFR	13	n/a	n/a	n/a	n/a	n/a	n/a	n/a	11	7	2	2	n/a	n/a	n/a	n/a	n/a
2449.752	n/a	PROB	1224876	n/a	LTP122	ltpFR	13	n/a	n/a	n/a	n/a	n/a	n/a	n/a	14	1	6	7	n/a	n/a	n/a	n/a	n/a
2451.116	n/a	PROB	1225558	n/a	LTP122	ltpFR	13	n/a	n/a	n/a	n/a	n/a	n/a	n/a	13	7	5	1	n/a	n/a	n/a	n/a	n/a
2453.13	n/a	PROB	1226565	n/a	LTP122	ltpFR	13	n/a	n/a	n/a	n/a	n/a	n/a	n/a	21	6	8	7	n/a	n/a	n/a	n/a	n/a
2455.72	n/a	PROB	1227860	n/a	LTP122	ltpFR	13	n/a	n/a	n/a	n/a	n/a	n/a	n/a	17	4	8	5	n/a	n/a	n/a	n/a	n/a
2457.946	n/a	STOP	1228973	n/a	LTP122	ltpFR	13	n/a	n/a	n/a	n/a	n/a	n/a	n/a	n/a	n/a	n/a	n/a	n/a	n/a	n/a	n/a	n/a
2459.198	n/a	WORD	1229599	wordpools/wasnorm_wordpool.txt	LTP122	ltpFR	13	9	1	HOUND	724	n/a	n/a	1	n/a	0	0	0	0.422607421875	0.5869140625	0	upper	amplitud.ttf
2462.204	n/a	START	1231102	n/a	LTP122	ltpFR	13	n/a	n/a	n/a	n/a	n/a	n/a	n/a	n/a	n/a	n/a	n/a	n/a	n/a	n/a	n/a	n/a
2463.352	n/a	PROB	1231676	n/a	LTP122	ltpFR	13	n/a	n/a	n/a	n/a	n/a	n/a	n/a	17	7	8	2	n/a	n/a	n/a	n/a	n/a
2465.416	n/a	PROB	1232708	n/a	LTP122	ltpFR	13	n/a	n/a	n/a	n/a	n/a	n/a	n/a	14	2	8	4	n/a	n/a	n/a	n/a	n/a
2466.924	n/a	PROB	1233462	n/a	LTP122	ltpFR	13	n/a	n/a	n/a	n/a	n/a	n/a	n/a	14	5	8	2	n/a	n/a	n/a	n/a	n/a
2468.97	n/a	PROB	1234485	n/a	LTP122	ltpFR	13	n/a	n/a	n/a	n/a	n/a	n/a	n/a	18	2	9	7	n/a	n/a	n/a	n/a	n/a
2471.976	n/a	PROB	1235988	n/a	LTP122	ltpFR	13	n/a	n/a	n/a	n/a	n/a	n/a	n/a	25	9	7	9	n/a	n/a	n/a	n/a	n/a
2474.34	n/a	PROB	1237170	n/a	LTP122	ltpFR	13	n/a	n/a	n/a	n/a	n/a	n/a	n/a	18	9	3	6	n/a	n/a	n/a	n/a	n/a
2476.816	n/a	STOP	1238408	n/a	LTP122	ltpFR	13	n/a	n/a	n/a	n/a	n/a	n/a	n/a	n/a	n/a	n/a	n/a	n/a	n/a	n/a	n/a	n/a
2479.25	n/a	WORD	1239625	wordpools/wasnorm_wordpool.txt	LTP122	ltpFR	13	9	1	WOLF	1619	n/a	n/a	1	n/a	0	0	0	0.422607421875	0.5869140625	0	upper	amplitud.ttf
2482.256	n/a	START	1241128	n/a	LTP122	ltpFR	13	n/a	n/a	n/a	n/a	n/a	n/a	n/a	n/a	n/a	n/a	n/a	n/a	n/a	n/a	n/a	n/a
2483.162	n/a	PROB	1241581	n/a	LTP122	ltpFR	13	n/a	n/a	n/a	n/a	n/a	n/a	n/a	14	3	3	8	n/a	n/a	n/a	n/a	n/a
2485.386	n/a	PROB	1242693	n/a	LTP122	ltpFR	13	n/a	n/a	n/a	n/a	n/a	n/a	n/a	18	8	9	1	n/a	n/a	n/a	n/a	n/a
2487.532	n/a	PROB	1243766	n/a	LTP122	ltpFR	13	n/a	n/a	n/a	n/a	n/a	n/a	n/a	17	7	3	7	n/a	n/a	n/a	n/a	n/a
2489.456	n/a	PROB	1244728	n/a	LTP122	ltpFR	13	n/a	n/a	n/a	n/a	n/a	n/a	n/a	13	6	1	6	n/a	n/a	n/a	n/a	n/a
2491.986	n/a	PROB	1245993	n/a	LTP122	ltpFR	13	n/a	n/a	n/a	n/a	n/a	n/a	n/a	23	9	9	5	n/a	n/a	n/a	n/a	n/a
2496.172	n/a	PROB	1248086	n/a	LTP122	ltpFR	13	n/a	n/a	n/a	n/a	n/a	n/a	n/a	18	2	8	8	n/a	n/a	n/a	n/a	n/a
2497.962	n/a	STOP	1248981	n/a	LTP122	ltpFR	13	n/a	n/a	n/a	n/a	n/a	n/a	n/a	n/a	n/a	n/a	n/a	n/a	n/a	n/a	n/a	n/a
2499.22	n/a	WORD	1249610	wordpools/wasnorm_wordpool.txt	LTP122	ltpFR	13	9	1	ANGEL	22	n/a	n/a	1	n/a	0	0	0	0.422607421875	0.5869140625	0	upper	amplitud.ttf
2502.224	n/a	START	1251112	n/a	LTP122	ltpFR	13	n/a	n/a	n/a	n/a	n/a	n/a	n/a	n/a	n/a	n/a	n/a	n/a	n/a	n/a	n/a	n/a
2503.34	n/a	PROB	1251670	n/a	LTP122	ltpFR	13	n/a	n/a	n/a	n/a	n/a	n/a	n/a	9	4	2	3	n/a	n/a	n/a	n/a	n/a
2505.012	n/a	PROB	1252506	n/a	LTP122	ltpFR	13	n/a	n/a	n/a	n/a	n/a	n/a	n/a	18	2	9	7	n/a	n/a	n/a	n/a	n/a
2507.252	n/a	PROB	1253626	n/a	LTP122	ltpFR	13	n/a	n/a	n/a	n/a	n/a	n/a	n/a	19	8	9	2	n/a	n/a	n/a	n/a	n/a
2509.074	n/a	PROB	1254537	n/a	LTP122	ltpFR	13	n/a	n/a	n/a	n/a	n/a	n/a	n/a	17	2	9	6	n/a	n/a	n/a	n/a	n/a
2511.778	n/a	PROB	1255889	n/a	LTP122	ltpFR	13	n/a	n/a	n/a	n/a	n/a	n/a	n/a	12	6	2	3	n/a	n/a	n/a	n/a	n/a
2518.224	n/a	STOP	1259112	n/a	LTP122	ltpFR	13	n/a	n/a	n/a	n/a	n/a	n/a	n/a	n/a	n/a	n/a	n/a	n/a	n/a	n/a	n/a	n/a
2519.27	n/a	WORD	1259635	wordpools/wasnorm_wordpool.txt	LTP122	ltpFR	13	9	1	WINDSHIELD	1612	n/a	n/a	1	n/a	0	0	0	0.422607421875	0.5869140625	0	upper	amplitud.ttf
2522.276	n/a	START	1261138	n/a	LTP122	ltpFR	13	n/a	n/a	n/a	n/a	n/a	n/a	n/a	n/a	n/a	n/a	n/a	n/a	n/a	n/a	n/a	n/a
2523.282	n/a	PROB	1261641	n/a	LTP122	ltpFR	13	n/a	n/a	n/a	n/a	n/a	n/a	n/a	15	5	4	6	n/a	n/a	n/a	n/a	n/a
2525.006	n/a	PROB	1262503	n/a	LTP122	ltpFR	13	n/a	n/a	n/a	n/a	n/a	n/a	n/a	21	5	8	9	n/a	n/a	n/a	n/a	n/a
2529.634	n/a	PROB	1264817	n/a	LTP122	ltpFR	13	n/a	n/a	n/a	n/a	n/a	n/a	n/a	16	1	9	6	n/a	n/a	n/a	n/a	n/a
2535.236	n/a	PROB	1267618	n/a	LTP122	ltpFR	13	n/a	n/a	n/a	n/a	n/a	n/a	n/a	14	4	1	9	n/a	n/a	n/a	n/a	n/a
2538.276	n/a	STOP	1269138	n/a	LTP122	ltpFR	13	n/a	n/a	n/a	n/a	n/a	n/a	n/a	n/a	n/a	n/a	n/a	n/a	n/a	n/a	n/a	n/a
2539.432	n/a	WORD	1269716	wordpools/wasnorm_wordpool.txt	LTP122	ltpFR	13	9	1	ATMOSPHERE	54	n/a	n/a	1	n/a	0	0	0	0.422607421875	0.5869140625	0	upper	amplitud.ttf
2542.438	n/a	START	1271219	n/a	LTP122	ltpFR	13	n/a	n/a	n/a	n/a	n/a	n/a	n/a	n/a	n/a	n/a	n/a	n/a	n/a	n/a	n/a	n/a
2543.626	n/a	PROB	1271813	n/a	LTP122	ltpFR	13	n/a	n/a	n/a	n/a	n/a	n/a	n/a	15	4	3	8	n/a	n/a	n/a	n/a	n/a
2545.824	n/a	PROB	1272912	n/a	LTP122	ltpFR	13	n/a	n/a	n/a	n/a	n/a	n/a	n/a	7	3	3	1	n/a	n/a	n/a	n/a	n/a
2547.348	n/a	PROB	1273674	n/a	LTP122	ltpFR	13	n/a	n/a	n/a	n/a	n/a	n/a	n/a	11	6	3	2	n/a	n/a	n/a	n/a	n/a
2549.47	n/a	PROB	1274735	n/a	LTP122	ltpFR	13	n/a	n/a	n/a	n/a	n/a	n/a	n/a	20	6	9	5	n/a	n/a	n/a	n/a	n/a
2552.658	n/a	PROB	1276329	n/a	LTP122	ltpFR	13	n/a	n/a	n/a	n/a	n/a	n/a	n/a	18	8	9	1	n/a	n/a	n/a	n/a	n/a
2554.948	n/a	PROB	1277474	n/a	LTP122	ltpFR	13	n/a	n/a	n/a	n/a	n/a	n/a	n/a	18	3	8	7	n/a	n/a	n/a	n/a	n/a
2556.844	n/a	PROB	1278422	n/a	LTP122	ltpFR	13	n/a	n/a	n/a	n/a	n/a	n/a	n/a	11	7	2	2	n/a	n/a	n/a	n/a	n/a
2558.274	n/a	STOP	1279137	n/a	LTP122	ltpFR	13	n/a	n/a	n/a	n/a	n/a	n/a	n/a	n/a	n/a	n/a	n/a	n/a	n/a	n/a	n/a	n/a
2559.384	n/a	WORD	1279692	wordpools/wasnorm_wordpool.txt	LTP122	ltpFR	13	9	1	BLOSSOM	138	n/a	n/a	0	n/a	0	0	0	0.422607421875	0.5869140625	0	upper	amplitud.ttf
2562.388	n/a	START	1281194	n/a	LTP122	ltpFR	13	n/a	n/a	n/a	n/a	n/a	n/a	n/a	n/a	n/a	n/a	n/a	n/a	n/a	n/a	n/a	n/a
2563.388	n/a	PROB	1281694	n/a	LTP122	ltpFR	13	n/a	n/a	n/a	n/a	n/a	n/a	n/a	18	6	7	5	n/a	n/a	n/a	n/a	n/a
2565.734	n/a	PROB	1282867	n/a	LTP122	ltpFR	13	n/a	n/a	n/a	n/a	n/a	n/a	n/a	12	9	2	1	n/a	n/a	n/a	n/a	n/a
2567.416	n/a	PROB	1283708	n/a	LTP122	ltpFR	13	n/a	n/a	n/a	n/a	n/a	n/a	n/a	18	6	8	4	n/a	n/a	n/a	n/a	n/a
2569.688	n/a	PROB	1284844	n/a	LTP122	ltpFR	13	n/a	n/a	n/a	n/a	n/a	n/a	n/a	17	6	4	7	n/a	n/a	n/a	n/a	n/a
2571.328	n/a	PROB	1285664	n/a	LTP122	ltpFR	13	n/a	n/a	n/a	n/a	n/a	n/a	n/a	13	8	4	1	n/a	n/a	n/a	n/a	n/a
2573.508	n/a	PROB	1286754	n/a	LTP122	ltpFR	13	n/a	n/a	n/a	n/a	n/a	n/a	n/a	20	9	3	8	n/a	n/a	n/a	n/a	n/a
2575.872	n/a	PROB	1287936	n/a	LTP122	ltpFR	13	n/a	n/a	n/a	n/a	n/a	n/a	n/a	15	4	4	5	n/a	n/a	n/a	n/a	n/a
2577.73	n/a	STOP	1288865	n/a	LTP122	ltpFR	13	n/a	n/a	n/a	n/a	n/a	n/a	n/a	n/a	n/a	n/a	n/a	n/a	n/a	n/a	n/a	n/a
2579.576	n/a	WORD	1289788	wordpools/wasnorm_wordpool.txt	LTP122	ltpFR	13	9	1	LAPEL	800	n/a	n/a	0	n/a	0	0	0	0.422607421875	0.5869140625	0	upper	amplitud.ttf
2582.582	n/a	START	1291291	n/a	LTP122	ltpFR	13	n/a	n/a	n/a	n/a	n/a	n/a	n/a	n/a	n/a	n/a	n/a	n/a	n/a	n/a	n/a	n/a
2583.714	n/a	PROB	1291857	n/a	LTP122	ltpFR	13	n/a	n/a	n/a	n/a	n/a	n/a	n/a	23	9	8	6	n/a	n/a	n/a	n/a	n/a
2587.292	n/a	PROB	1293646	n/a	LTP122	ltpFR	13	n/a	n/a	n/a	n/a	n/a	n/a	n/a	12	5	2	5	n/a	n/a	n/a	n/a	n/a
2589.482	n/a	PROB	1294741	n/a	LTP122	ltpFR	13	n/a	n/a	n/a	n/a	n/a	n/a	n/a	15	9	1	5	n/a	n/a	n/a	n/a	n/a
2590.796	n/a	PROB	1295398	n/a	LTP122	ltpFR	13	n/a	n/a	n/a	n/a	n/a	n/a	n/a	9	1	5	3	n/a	n/a	n/a	n/a	n/a
2592.162	n/a	PROB	1296081	n/a	LTP122	ltpFR	13	n/a	n/a	n/a	n/a	n/a	n/a	n/a	11	3	6	2	n/a	n/a	n/a	n/a	n/a
2593.686	n/a	PROB	1296843	n/a	LTP122	ltpFR	13	n/a	n/a	n/a	n/a	n/a	n/a	n/a	16	7	5	4	n/a	n/a	n/a	n/a	n/a
2595.9	n/a	PROB	1297950	n/a	LTP122	ltpFR	13	n/a	n/a	n/a	n/a	n/a	n/a	n/a	13	4	1	8	n/a	n/a	n/a	n/a	n/a
2597.274	n/a	STOP	1298637	n/a	LTP122	ltpFR	13	n/a	n/a	n/a	n/a	n/a	n/a	n/a	n/a	n/a	n/a	n/a	n/a	n/a	n/a	n/a	n/a
2600.42	n/a	REC_START	1300210	n/a	LTP122	ltpFR	13	9	n/a	n/a	n/a	n/a	n/a	n/a	n/a	0	0	0	n/a	n/a	n/a	n/a	n/a
2602.922	n/a	REC_WORD	1301461	wordpools/wasnorm_wordpool.txt	LTP122	ltpFR	13	9	1	FELLOW	558	n/a	n/a	1	n/a	0	0	0	n/a	n/a	n/a	n/a	n/a
2603.872	n/a	REC_WORD	1301936	wordpools/wasnorm_wordpool.txt	LTP122	ltpFR	13	9	1	MAP	865	n/a	n/a	0	n/a	0	0	0	n/a	n/a	n/a	n/a	n/a
2606.326	n/a	REC_WORD	1303163	wordpools/wasnorm_wordpool.txt	LTP122	ltpFR	13	9	1	TYPEWRITER	1531	n/a	n/a	0	n/a	0	0	0	n/a	n/a	n/a	n/a	n/a
2607.962	n/a	REC_WORD	1303981	wordpools/wasnorm_wordpool.txt	LTP122	ltpFR	13	9	1	NOTEBOOK	959	n/a	n/a	0	n/a	0	0	0	n/a	n/a	n/a	n/a	n/a
2609.686	n/a	REC_WORD	1304843	wordpools/wasnorm_wordpool.txt	LTP122	ltpFR	13	9	1	NEWSPAPER	948	n/a	n/a	0	n/a	0	0	0	n/a	n/a	n/a	n/a	n/a
2611.344	n/a	REC_WORD	1305672	wordpools/wasnorm_wordpool.txt	LTP122	ltpFR	13	9	1	LAPEL	800	n/a	n/a	0	n/a	0	0	0	n/a	n/a	n/a	n/a	n/a
2614.084	n/a	REC_WORD	1307042	wordpools/wasnorm_wordpool.txt	LTP122	ltpFR	13	9	1	PATH	1023	n/a	n/a	1	n/a	0	0	0	n/a	n/a	n/a	n/a	n/a
2614.862	n/a	REC_WORD	1307431	wordpools/wasnorm_wordpool.txt	LTP122	ltpFR	13	9	1	BASKET	95	n/a	n/a	0	n/a	0	0	0	n/a	n/a	n/a	n/a	n/a
2615.4	n/a	REC_WORD	1307700	wordpools/wasnorm_wordpool.txt	LTP122	ltpFR	13	9	1	STAPLE	1371	n/a	n/a	0	n/a	0	0	0	n/a	n/a	n/a	n/a	n/a
2616.288	n/a	REC_WORD	1308144	wordpools/wasnorm_wordpool.txt	LTP122	ltpFR	13	9	1	BLOSSOM	138	n/a	n/a	0	n/a	0	0	0	n/a	n/a	n/a	n/a	n/a
2617.9	n/a	REC_WORD	1308950	wordpools/wasnorm_wordpool.txt	LTP122	ltpFR	13	9	1	WINDSHIELD	1612	n/a	n/a	1	n/a	0	0	0	n/a	n/a	n/a	n/a	n/a
2618.578	n/a	REC_WORD	1309289	wordpools/wasnorm_wordpool.txt	LTP122	ltpFR	13	9	1	ATMOSPHERE	54	n/a	n/a	1	n/a	0	0	0	n/a	n/a	n/a	n/a	n/a
2619.526	n/a	REC_WORD	1309763	wordpools/wasnorm_wordpool.txt	LTP122	ltpFR	13	9	1	ANGEL	22	n/a	n/a	1	n/a	0	0	0	n/a	n/a	n/a	n/a	n/a
2620.212	n/a	REC_WORD	1310106	wordpools/wasnorm_wordpool.txt	LTP122	ltpFR	13	9	1	HOUND	724	n/a	n/a	1	n/a	0	0	0	n/a	n/a	n/a	n/a	n/a
2621.222	n/a	REC_WORD	1310611	wordpools/wasnorm_wordpool.txt	LTP122	ltpFR	13	9	1	WOLF	1619	n/a	n/a	1	n/a	0	0	0	n/a	n/a	n/a	n/a	n/a
2621.91	n/a	REC_WORD	1310955	wordpools/wasnorm_wordpool.txt	LTP122	ltpFR	13	9	1	FOE	587	n/a	n/a	1	n/a	0	0	0	n/a	n/a	n/a	n/a	n/a
2679.794	n/a	WORD	1339897	wordpools/wasnorm_wordpool.txt	LTP122	ltpFR	13	10	1	UNIVERSITY	1541	n/a	n/a	1	n/a	0	0	0	0.422607421875	0.5869140625	0	upper	amplitud.ttf
2683.74	n/a	WORD	1341870	wordpools/wasnorm_wordpool.txt	LTP122	ltpFR	13	10	1	COLLEGE	346	n/a	n/a	0	n/a	0	0	0	0.422607421875	0.5869140625	0	upper	amplitud.ttf
2687.944	n/a	WORD	1343972	wordpools/wasnorm_wordpool.txt	LTP122	ltpFR	13	10	0	SALAD	1224	n/a	n/a	0	n/a	0	0	0	0.57763671875	0.412841796875	1	lower	zerothre.ttf
2691.998	n/a	WORD	1345999	wordpools/wasnorm_wordpool.txt	LTP122	ltpFR	13	10	0	PICNIC	1060	n/a	n/a	0	n/a	0	0	0	0.57763671875	0.412841796875	1	lower	zerothre.ttf
2695.884	n/a	WORD	1347942	wordpools/wasnorm_wordpool.txt	LTP122	ltpFR	13	10	0	ORNAMENT	985	n/a	n/a	0	n/a	0	0	0	0.57763671875	0.412841796875	1	lower	zerothre.ttf
2699.914	n/a	WORD	1349957	wordpools/wasnorm_wordpool.txt	LTP122	ltpFR	13	10	0	PADDLE	1000	n/a	n/a	0	n/a	0	0	0	0.57763671875	0.412841796875	1	lower	zerothre.ttf
2704.01	n/a	WORD	1352005	wordpools/wasnorm_wordpool.txt	LTP122	ltpFR	13	10	1	EDITORIAL	517	n/a	n/a	0	n/a	0	0	0	0.422607421875	0.5869140625	0	upper	amplitud.ttf
2708.022	n/a	WORD	1354011	wordpools/wasnorm_wordpool.txt	LTP122	ltpFR	13	10	1	OTTER	986	n/a	n/a	1	n/a	0	0	0	0.422607421875	0.5869140625	0	upper	amplitud.ttf
2712.058	n/a	WORD	1356029	wordpools/wasnorm_wordpool.txt	LTP122	ltpFR	13	10	1	BROOK	177	n/a	n/a	1	n/a	0	0	0	0.422607421875	0.5869140625	0	upper	amplitud.ttf
2716.112	n/a	WORD	1358056	wordpools/wasnorm_wordpool.txt	LTP122	ltpFR	13	10	1	ACTOR	5	n/a	n/a	1	n/a	0	0	0	0.422607421875	0.5869140625	0	upper	amplitud.ttf
2720.266	n/a	WORD	1360133	wordpools/wasnorm_wordpool.txt	LTP122	ltpFR	13	10	1	EMPEROR	529	n/a	n/a	1	n/a	0	0	0	0.422607421875	0.5869140625	0	upper	amplitud.ttf
2724.394	n/a	WORD	1362197	wordpools/wasnorm_wordpool.txt	LTP122	ltpFR	13	10	1	SAILOR	1223	n/a	n/a	1	n/a	0	0	0	0.422607421875	0.5869140625	0	upper	amplitud.ttf
2728.306	n/a	WORD	1364153	wordpools/wasnorm_wordpool.txt	LTP122	ltpFR	13	10	0	PERCH	1048	n/a	n/a	0	n/a	0	0	0	0.57763671875	0.412841796875	1	lower	zerothre.ttf
2732.268	n/a	WORD	1366134	wordpools/wasnorm_wordpool.txt	LTP122	ltpFR	13	10	0	MONUMENT	913	n/a	n/a	1	n/a	0	0	0	0.57763671875	0.412841796875	1	lower	zerothre.ttf
2736.38	n/a	WORD	1368190	wordpools/wasnorm_wordpool.txt	LTP122	ltpFR	13	10	0	ANTENNA	28	n/a	n/a	1	n/a	0	0	0	0.57763671875	0.412841796875	1	lower	zerothre.ttf
2740.5	n/a	WORD	1370250	wordpools/wasnorm_wordpool.txt	LTP122	ltpFR	13	10	0	MOSS	918	n/a	n/a	0	n/a	0	0	0	0.57763671875	0.412841796875	1	lower	zerothre.ttf
2743.506	n/a	START	1371753	n/a	LTP122	ltpFR	13	n/a	n/a	n/a	n/a	n/a	n/a	n/a	n/a	n/a	n/a	n/a	n/a	n/a	n/a	n/a	n/a
2744.58	n/a	PROB	1372290	n/a	LTP122	ltpFR	13	n/a	n/a	n/a	n/a	n/a	n/a	n/a	16	4	3	9	n/a	n/a	n/a	n/a	n/a
2746.468	n/a	PROB	1373234	n/a	LTP122	ltpFR	13	n/a	n/a	n/a	n/a	n/a	n/a	n/a	18	5	8	5	n/a	n/a	n/a	n/a	n/a
2750.156	n/a	PROB	1375078	n/a	LTP122	ltpFR	13	n/a	n/a	n/a	n/a	n/a	n/a	n/a	16	3	8	5	n/a	n/a	n/a	n/a	n/a
2752.32	n/a	PROB	1376160	n/a	LTP122	ltpFR	13	n/a	n/a	n/a	n/a	n/a	n/a	n/a	20	7	9	4	n/a	n/a	n/a	n/a	n/a
2754.284	n/a	PROB	1377142	n/a	LTP122	ltpFR	13	n/a	n/a	n/a	n/a	n/a	n/a	n/a	11	1	9	1	n/a	n/a	n/a	n/a	n/a
2759.506	n/a	STOP	1379753	n/a	LTP122	ltpFR	13	n/a	n/a	n/a	n/a	n/a	n/a	n/a	n/a	n/a	n/a	n/a	n/a	n/a	n/a	n/a	n/a
2761.276	n/a	REC_START	1380638	n/a	LTP122	ltpFR	13	10	n/a	n/a	n/a	n/a	n/a	n/a	n/a	0	0	0	n/a	n/a	n/a	n/a	n/a
2762.798	n/a	REC_WORD	1381399	wordpools/wasnorm_wordpool.txt	LTP122	ltpFR	13	10	1	UNIVERSITY	1541	n/a	n/a	1	n/a	0	0	0	n/a	n/a	n/a	n/a	n/a
2763.592	n/a	REC_WORD	1381796	wordpools/wasnorm_wordpool.txt	LTP122	ltpFR	13	10	1	COLLEGE	346	n/a	n/a	0	n/a	0	0	0	n/a	n/a	n/a	n/a	n/a
2764.296	n/a	REC_WORD	1382148	wordpools/wasnorm_wordpool.txt	LTP122	ltpFR	13	10	0	SALAD	1224	n/a	n/a	0	n/a	0	0	0	n/a	n/a	n/a	n/a	n/a
2765.098	n/a	REC_WORD	1382549	wordpools/wasnorm_wordpool.txt	LTP122	ltpFR	13	10	0	PICNIC	1060	n/a	n/a	0	n/a	0	0	0	n/a	n/a	n/a	n/a	n/a
2768.734	n/a	REC_WORD	1384367	wordpools/wasnorm_wordpool.txt	LTP122	ltpFR	13	10	0	ORNAMENT	985	n/a	n/a	0	n/a	0	0	0	n/a	n/a	n/a	n/a	n/a
2769.588	n/a	REC_WORD	1384794	wordpools/wasnorm_wordpool.txt	LTP122	ltpFR	13	10	0	PERCH	1048	n/a	n/a	0	n/a	0	0	0	n/a	n/a	n/a	n/a	n/a
2771.198	n/a	REC_WORD	1385599	wordpools/wasnorm_wordpool.txt	LTP122	ltpFR	13	10	0	ANTENNA	28	n/a	n/a	1	n/a	0	0	0	n/a	n/a	n/a	n/a	n/a
2771.892	n/a	REC_WORD	1385946	wordpools/wasnorm_wordpool.txt	LTP122	ltpFR	13	10	0	MONUMENT	913	n/a	n/a	1	n/a	0	0	0	n/a	n/a	n/a	n/a	n/a
2773.828	n/a	REC_WORD	1386914	wordpools/wasnorm_wordpool.txt	LTP122	ltpFR	13	10	0	PADDLE	1000	n/a	n/a	0	n/a	0	0	0	n/a	n/a	n/a	n/a	n/a
2775.304	n/a	REC_WORD	1387652	wordpools/wasnorm_wordpool.txt	LTP122	ltpFR	13	10	1	BROOK	177	n/a	n/a	1	n/a	0	0	0	n/a	n/a	n/a	n/a	n/a
2776.062	n/a	REC_WORD	1388031	wordpools/wasnorm_wordpool.txt	LTP122	ltpFR	13	10	1	OTTER	986	n/a	n/a	1	n/a	0	0	0	n/a	n/a	n/a	n/a	n/a
2779.03	n/a	REC_WORD	1389515	wordpools/wasnorm_wordpool.txt	LTP122	ltpFR	13	10	1	ACTOR	5	n/a	n/a	1	n/a	0	0	0	n/a	n/a	n/a	n/a	n/a
2781.46	n/a	REC_WORD	1390730	wordpools/wasnorm_wordpool.txt	LTP122	ltpFR	13	10	1	EMPEROR	529	n/a	n/a	1	n/a	0	0	0	n/a	n/a	n/a	n/a	n/a
2816.966	n/a	REC_WORD	1408483	wordpools/wasnorm_wordpool.txt	LTP122	ltpFR	13	10	1	SAILOR	1223	n/a	n/a	1	n/a	0	0	0	n/a	n/a	n/a	n/a	n/a
2828.558	n/a	REC_WORD	1414279	wordpools/wasnorm_wordpool.txt	LTP122	ltpFR	13	10	1	EDITORIAL	517	n/a	n/a	0	n/a	0	0	0	n/a	n/a	n/a	n/a	n/a
2836.882	n/a	REST_REWET	1418441	n/a	LTP122	ltpFR	13	10	n/a	n/a	n/a	n/a	n/a	n/a	n/a	0	0	0	n/a	n/a	n/a	n/a	n/a
3187.304	n/a	WORD	1593652	wordpools/wasnorm_wordpool.txt	LTP122	ltpFR	13	11	0	NICKEL	950	n/a	n/a	0	n/a	0	0	0	0.57763671875	0.412841796875	1	lower	zerothre.ttf
3191.458	n/a	WORD	1595729	wordpools/wasnorm_wordpool.txt	LTP122	ltpFR	13	11	0	SIDING	1304	n/a	n/a	1	n/a	0	0	0	0.57763671875	0.412841796875	1	lower	zerothre.ttf
3195.386	n/a	WORD	1597693	wordpools/wasnorm_wordpool.txt	LTP122	ltpFR	13	11	0	BLACKBERRY	132	n/a	n/a	1	n/a	0	0	0	0.57763671875	0.412841796875	1	lower	zerothre.ttf
3199.59	n/a	WORD	1599795	wordpools/wasnorm_wordpool.txt	LTP122	ltpFR	13	11	0	SUPERMARKET	1409	n/a	n/a	1	n/a	0	0	0	0.57763671875	0.412841796875	1	lower	zerothre.ttf
3203.768	n/a	WORD	1601884	wordpools/wasnorm_wordpool.txt	LTP122	ltpFR	13	11	0	BRACELET	163	n/a	n/a	0	n/a	0	0	0	0.57763671875	0.412841796875	1	lower	zerothre.ttf
3207.906	n/a	WORD	1603953	wordpools/wasnorm_wordpool.txt	LTP122	ltpFR	13	11	0	CARPENTER	246	n/a	n/a	1	n/a	0	0	0	0.57763671875	0.412841796875	1	lower	zerothre.ttf
3212.116	n/a	WORD	1606058	wordpools/wasnorm_wordpool.txt	LTP122	ltpFR	13	11	0	ELM	527	n/a	n/a	1	n/a	0	0	0	0.57763671875	0.412841796875	1	lower	zerothre.ttf
