onset	duration	trial_type	sample	stim_file	subject	experiment	session	trial	task	item_name	item_num	recog_conf	resp	answer	test_x	test_y	test_z	color_b	color_g	color_r	case	font
269.604	n/a	SESS_START	134802	n/a	LTP137	ltpFR	13	n/a	n/a	n/a	n/a	n/a	n/a	n/a	0	0	0	n/a	n/a	n/a	n/a	n/a
299.46	n/a	START	149730	n/a	LTP137	ltpFR	13	n/a	n/a	n/a	n/a	n/a	n/a	n/a	n/a	n/a	n/a	n/a	n/a	n/a	n/a	n/a
299.484	n/a	PROB	149742	n/a	LTP137	ltpFR	13	n/a	n/a	n/a	n/a	n/a	n/a	17	4	9	4	n/a	n/a	n/a	n/a	n/a
303.234	n/a	PROB	151617	n/a	LTP137	ltpFR	13	n/a	n/a	n/a	n/a	n/a	n/a	17	2	9	6	n/a	n/a	n/a	n/a	n/a
306.05	n/a	PROB	153025	n/a	LTP137	ltpFR	13	n/a	n/a	n/a	n/a	n/a	n/a	17	4	9	4	n/a	n/a	n/a	n/a	n/a
308.482	n/a	PROB	154241	n/a	LTP137	ltpFR	13	n/a	n/a	n/a	n/a	n/a	n/a	18	8	5	5	n/a	n/a	n/a	n/a	n/a
309.864	n/a	PROB	154932	n/a	LTP137	ltpFR	13	n/a	n/a	n/a	n/a	n/a	n/a	21	7	9	5	n/a	n/a	n/a	n/a	n/a
312.546	n/a	PROB	156273	n/a	LTP137	ltpFR	13	n/a	n/a	n/a	n/a	n/a	n/a	16	6	2	8	n/a	n/a	n/a	n/a	n/a
314.28	n/a	PROB	157140	n/a	LTP137	ltpFR	13	n/a	n/a	n/a	n/a	n/a	n/a	6	3	1	2	n/a	n/a	n/a	n/a	n/a
316.154	n/a	PROB	158077	n/a	LTP137	ltpFR	13	n/a	n/a	n/a	n/a	n/a	n/a	18	8	3	7	n/a	n/a	n/a	n/a	n/a
318.202	n/a	STOP	159101	n/a	LTP137	ltpFR	13	n/a	n/a	n/a	n/a	n/a	n/a	n/a	n/a	n/a	n/a	n/a	n/a	n/a	n/a	n/a
341.572	n/a	START	170786	n/a	LTP137	ltpFR	13	n/a	n/a	n/a	n/a	n/a	n/a	n/a	n/a	n/a	n/a	n/a	n/a	n/a	n/a	n/a
343.08	n/a	PROB	171540	n/a	LTP137	ltpFR	13	n/a	n/a	n/a	n/a	n/a	n/a	14	8	2	4	n/a	n/a	n/a	n/a	n/a
344.554	n/a	PROB	172277	n/a	LTP137	ltpFR	13	n/a	n/a	n/a	n/a	n/a	n/a	25	9	9	7	n/a	n/a	n/a	n/a	n/a
349.236	n/a	STOP	174618	n/a	LTP137	ltpFR	13	n/a	n/a	n/a	n/a	n/a	n/a	n/a	n/a	n/a	n/a	n/a	n/a	n/a	n/a	n/a
350.692	n/a	WORD	175346	wordpools/wasnorm_wordpool.txt	LTP137	ltpFR	13	1	0	MECHANIC	884	n/a	1	n/a	0	0	0	1	0.412841796875	0.57763671875	upper	../fonts/amplitud.ttf
353.7	n/a	START	176850	n/a	LTP137	ltpFR	13	n/a	n/a	n/a	n/a	n/a	n/a	n/a	n/a	n/a	n/a	n/a	n/a	n/a	n/a	n/a
354.708	n/a	PROB	177354	n/a	LTP137	ltpFR	13	n/a	n/a	n/a	n/a	n/a	n/a	19	6	6	7	n/a	n/a	n/a	n/a	n/a
357.484	n/a	PROB	178742	n/a	LTP137	ltpFR	13	n/a	n/a	n/a	n/a	n/a	n/a	16	1	9	6	n/a	n/a	n/a	n/a	n/a
361.702	n/a	STOP	180851	n/a	LTP137	ltpFR	13	n/a	n/a	n/a	n/a	n/a	n/a	n/a	n/a	n/a	n/a	n/a	n/a	n/a	n/a	n/a
362.758	n/a	WORD	181379	wordpools/wasnorm_wordpool.txt	LTP137	ltpFR	13	1	0	NEUTRON	947	n/a	0	n/a	0	0	0	1	0.412841796875	0.57763671875	upper	../fonts/amplitud.ttf
365.764	n/a	START	182882	n/a	LTP137	ltpFR	13	n/a	n/a	n/a	n/a	n/a	n/a	n/a	n/a	n/a	n/a	n/a	n/a	n/a	n/a	n/a
366.646	n/a	PROB	183323	n/a	LTP137	ltpFR	13	n/a	n/a	n/a	n/a	n/a	n/a	15	1	7	7	n/a	n/a	n/a	n/a	n/a
367.83	n/a	PROB	183915	n/a	LTP137	ltpFR	13	n/a	n/a	n/a	n/a	n/a	n/a	20	4	9	7	n/a	n/a	n/a	n/a	n/a
370.462	n/a	PROB	185231	n/a	LTP137	ltpFR	13	n/a	n/a	n/a	n/a	n/a	n/a	16	6	6	4	n/a	n/a	n/a	n/a	n/a
373.758	n/a	STOP	186879	n/a	LTP137	ltpFR	13	n/a	n/a	n/a	n/a	n/a	n/a	n/a	n/a	n/a	n/a	n/a	n/a	n/a	n/a	n/a
374.652	n/a	WORD	187326	wordpools/wasnorm_wordpool.txt	LTP137	ltpFR	13	1	0	BILL	126	n/a	0	n/a	0	0	0	1	0.412841796875	0.57763671875	upper	../fonts/amplitud.ttf
377.66	n/a	START	188830	n/a	LTP137	ltpFR	13	n/a	n/a	n/a	n/a	n/a	n/a	n/a	n/a	n/a	n/a	n/a	n/a	n/a	n/a	n/a
378.57	n/a	PROB	189285	n/a	LTP137	ltpFR	13	n/a	n/a	n/a	n/a	n/a	n/a	16	9	2	5	n/a	n/a	n/a	n/a	n/a
381.544	n/a	PROB	190772	n/a	LTP137	ltpFR	13	n/a	n/a	n/a	n/a	n/a	n/a	16	8	4	4	n/a	n/a	n/a	n/a	n/a
383.134	n/a	PROB	191567	n/a	LTP137	ltpFR	13	n/a	n/a	n/a	n/a	n/a	n/a	18	3	8	7	n/a	n/a	n/a	n/a	n/a
384.766	n/a	STOP	192383	n/a	LTP137	ltpFR	13	n/a	n/a	n/a	n/a	n/a	n/a	n/a	n/a	n/a	n/a	n/a	n/a	n/a	n/a	n/a
386.492	n/a	WORD	193246	wordpools/wasnorm_wordpool.txt	LTP137	ltpFR	13	1	1	COIN	343	n/a	0	n/a	0	0	0	0	0.5869140625	0.422607421875	lower	../fonts/zerothre.ttf
389.5	n/a	START	194750	n/a	LTP137	ltpFR	13	n/a	n/a	n/a	n/a	n/a	n/a	n/a	n/a	n/a	n/a	n/a	n/a	n/a	n/a	n/a
390.672	n/a	PROB	195336	n/a	LTP137	ltpFR	13	n/a	n/a	n/a	n/a	n/a	n/a	18	9	4	5	n/a	n/a	n/a	n/a	n/a
392.696	n/a	PROB	196348	n/a	LTP137	ltpFR	13	n/a	n/a	n/a	n/a	n/a	n/a	19	5	5	9	n/a	n/a	n/a	n/a	n/a
393.914	n/a	PROB	196957	n/a	LTP137	ltpFR	13	n/a	n/a	n/a	n/a	n/a	n/a	13	4	6	3	n/a	n/a	n/a	n/a	n/a
395.372	n/a	PROB	197686	n/a	LTP137	ltpFR	13	n/a	n/a	n/a	n/a	n/a	n/a	7	4	1	2	n/a	n/a	n/a	n/a	n/a
397.224	n/a	STOP	198612	n/a	LTP137	ltpFR	13	n/a	n/a	n/a	n/a	n/a	n/a	n/a	n/a	n/a	n/a	n/a	n/a	n/a	n/a	n/a
398.638	n/a	WORD	199319	wordpools/wasnorm_wordpool.txt	LTP137	ltpFR	13	1	1	CREAM	402	n/a	0	n/a	0	0	0	0	0.5869140625	0.422607421875	lower	../fonts/zerothre.ttf
401.644	n/a	START	200822	n/a	LTP137	ltpFR	13	n/a	n/a	n/a	n/a	n/a	n/a	n/a	n/a	n/a	n/a	n/a	n/a	n/a	n/a	n/a
402.512	n/a	PROB	201256	n/a	LTP137	ltpFR	13	n/a	n/a	n/a	n/a	n/a	n/a	14	4	3	7	n/a	n/a	n/a	n/a	n/a
403.878	n/a	PROB	201939	n/a	LTP137	ltpFR	13	n/a	n/a	n/a	n/a	n/a	n/a	12	2	5	5	n/a	n/a	n/a	n/a	n/a
405.052	n/a	PROB	202526	n/a	LTP137	ltpFR	13	n/a	n/a	n/a	n/a	n/a	n/a	17	5	5	7	n/a	n/a	n/a	n/a	n/a
406.352	n/a	PROB	203176	n/a	LTP137	ltpFR	13	n/a	n/a	n/a	n/a	n/a	n/a	17	2	7	8	n/a	n/a	n/a	n/a	n/a
408.544	n/a	STOP	204272	n/a	LTP137	ltpFR	13	n/a	n/a	n/a	n/a	n/a	n/a	n/a	n/a	n/a	n/a	n/a	n/a	n/a	n/a	n/a
410.518	n/a	WORD	205259	wordpools/wasnorm_wordpool.txt	LTP137	ltpFR	13	1	1	SPRINKLE	1359	n/a	0	n/a	0	0	0	0	0.5869140625	0.422607421875	lower	../fonts/zerothre.ttf
413.524	n/a	START	206762	n/a	LTP137	ltpFR	13	n/a	n/a	n/a	n/a	n/a	n/a	n/a	n/a	n/a	n/a	n/a	n/a	n/a	n/a	n/a
414.6	n/a	PROB	207300	n/a	LTP137	ltpFR	13	n/a	n/a	n/a	n/a	n/a	n/a	10	6	1	3	n/a	n/a	n/a	n/a	n/a
416.466	n/a	PROB	208233	n/a	LTP137	ltpFR	13	n/a	n/a	n/a	n/a	n/a	n/a	15	5	2	8	n/a	n/a	n/a	n/a	n/a
418.732	n/a	PROB	209366	n/a	LTP137	ltpFR	13	n/a	n/a	n/a	n/a	n/a	n/a	13	4	7	2	n/a	n/a	n/a	n/a	n/a
420.8	n/a	STOP	210400	n/a	LTP137	ltpFR	13	n/a	n/a	n/a	n/a	n/a	n/a	n/a	n/a	n/a	n/a	n/a	n/a	n/a	n/a	n/a
422.598	n/a	WORD	211299	wordpools/wasnorm_wordpool.txt	LTP137	ltpFR	13	1	1	OTTER	986	n/a	1	n/a	0	0	0	0	0.5869140625	0.422607421875	lower	../fonts/zerothre.ttf
425.604	n/a	START	212802	n/a	LTP137	ltpFR	13	n/a	n/a	n/a	n/a	n/a	n/a	n/a	n/a	n/a	n/a	n/a	n/a	n/a	n/a	n/a
426.53	n/a	PROB	213265	n/a	LTP137	ltpFR	13	n/a	n/a	n/a	n/a	n/a	n/a	16	1	7	8	n/a	n/a	n/a	n/a	n/a
428.436	n/a	PROB	214218	n/a	LTP137	ltpFR	13	n/a	n/a	n/a	n/a	n/a	n/a	8	2	1	5	n/a	n/a	n/a	n/a	n/a
429.854	n/a	PROB	214927	n/a	LTP137	ltpFR	13	n/a	n/a	n/a	n/a	n/a	n/a	20	9	2	9	n/a	n/a	n/a	n/a	n/a
433.606	n/a	STOP	216803	n/a	LTP137	ltpFR	13	n/a	n/a	n/a	n/a	n/a	n/a	n/a	n/a	n/a	n/a	n/a	n/a	n/a	n/a	n/a
434.444	n/a	WORD	217222	wordpools/wasnorm_wordpool.txt	LTP137	ltpFR	13	1	1	NET	946	n/a	0	n/a	0	0	0	0	0.5869140625	0.422607421875	lower	../fonts/zerothre.ttf
437.452	n/a	START	218726	n/a	LTP137	ltpFR	13	n/a	n/a	n/a	n/a	n/a	n/a	n/a	n/a	n/a	n/a	n/a	n/a	n/a	n/a	n/a
438.35	n/a	PROB	219175	n/a	LTP137	ltpFR	13	n/a	n/a	n/a	n/a	n/a	n/a	11	1	1	9	n/a	n/a	n/a	n/a	n/a
439.968	n/a	PROB	219984	n/a	LTP137	ltpFR	13	n/a	n/a	n/a	n/a	n/a	n/a	21	4	9	8	n/a	n/a	n/a	n/a	n/a
445.452	n/a	STOP	222726	n/a	LTP137	ltpFR	13	n/a	n/a	n/a	n/a	n/a	n/a	n/a	n/a	n/a	n/a	n/a	n/a	n/a	n/a	n/a
446.474	n/a	WORD	223237	wordpools/wasnorm_wordpool.txt	LTP137	ltpFR	13	1	0	OUTFIT	988	n/a	0	n/a	0	0	0	1	0.412841796875	0.57763671875	upper	../fonts/amplitud.ttf
449.482	n/a	START	224741	n/a	LTP137	ltpFR	13	n/a	n/a	n/a	n/a	n/a	n/a	n/a	n/a	n/a	n/a	n/a	n/a	n/a	n/a	n/a
450.446	n/a	PROB	225223	n/a	LTP137	ltpFR	13	n/a	n/a	n/a	n/a	n/a	n/a	18	8	4	6	n/a	n/a	n/a	n/a	n/a
452.372	n/a	PROB	226186	n/a	LTP137	ltpFR	13	n/a	n/a	n/a	n/a	n/a	n/a	20	4	8	8	n/a	n/a	n/a	n/a	n/a
454.946	n/a	PROB	227473	n/a	LTP137	ltpFR	13	n/a	n/a	n/a	n/a	n/a	n/a	8	1	1	6	n/a	n/a	n/a	n/a	n/a
456.01	n/a	STOP	228005	n/a	LTP137	ltpFR	13	n/a	n/a	n/a	n/a	n/a	n/a	n/a	n/a	n/a	n/a	n/a	n/a	n/a	n/a	n/a
458.354	n/a	WORD	229177	wordpools/wasnorm_wordpool.txt	LTP137	ltpFR	13	1	0	CREATURE	403	n/a	1	n/a	0	0	0	1	0.412841796875	0.57763671875	upper	../fonts/amplitud.ttf
461.37	n/a	START	230685	n/a	LTP137	ltpFR	13	n/a	n/a	n/a	n/a	n/a	n/a	n/a	n/a	n/a	n/a	n/a	n/a	n/a	n/a	n/a
462.344	n/a	PROB	231172	n/a	LTP137	ltpFR	13	n/a	n/a	n/a	n/a	n/a	n/a	17	8	3	6	n/a	n/a	n/a	n/a	n/a
464.942	n/a	PROB	232471	n/a	LTP137	ltpFR	13	n/a	n/a	n/a	n/a	n/a	n/a	11	7	2	2	n/a	n/a	n/a	n/a	n/a
466.492	n/a	PROB	233246	n/a	LTP137	ltpFR	13	n/a	n/a	n/a	n/a	n/a	n/a	17	5	8	4	n/a	n/a	n/a	n/a	n/a
469.09	n/a	STOP	234545	n/a	LTP137	ltpFR	13	n/a	n/a	n/a	n/a	n/a	n/a	n/a	n/a	n/a	n/a	n/a	n/a	n/a	n/a	n/a
470.474	n/a	WORD	235237	wordpools/wasnorm_wordpool.txt	LTP137	ltpFR	13	1	0	BARN	89	n/a	1	n/a	0	0	0	1	0.412841796875	0.57763671875	upper	../fonts/amplitud.ttf
473.482	n/a	START	236741	n/a	LTP137	ltpFR	13	n/a	n/a	n/a	n/a	n/a	n/a	n/a	n/a	n/a	n/a	n/a	n/a	n/a	n/a	n/a
474.606	n/a	PROB	237303	n/a	LTP137	ltpFR	13	n/a	n/a	n/a	n/a	n/a	n/a	11	1	5	5	n/a	n/a	n/a	n/a	n/a
475.722	n/a	PROB	237861	n/a	LTP137	ltpFR	13	n/a	n/a	n/a	n/a	n/a	n/a	18	9	6	3	n/a	n/a	n/a	n/a	n/a
477.73	n/a	PROB	238865	n/a	LTP137	ltpFR	13	n/a	n/a	n/a	n/a	n/a	n/a	14	2	6	6	n/a	n/a	n/a	n/a	n/a
479.322	n/a	PROB	239661	n/a	LTP137	ltpFR	13	n/a	n/a	n/a	n/a	n/a	n/a	10	2	5	3	n/a	n/a	n/a	n/a	n/a
481.204	n/a	STOP	240602	n/a	LTP137	ltpFR	13	n/a	n/a	n/a	n/a	n/a	n/a	n/a	n/a	n/a	n/a	n/a	n/a	n/a	n/a	n/a
482.438	n/a	WORD	241219	wordpools/wasnorm_wordpool.txt	LTP137	ltpFR	13	1	1	CLOTHES	327	n/a	0	n/a	0	0	0	0	0.5869140625	0.422607421875	lower	../fonts/zerothre.ttf
485.446	n/a	START	242723	n/a	LTP137	ltpFR	13	n/a	n/a	n/a	n/a	n/a	n/a	n/a	n/a	n/a	n/a	n/a	n/a	n/a	n/a	n/a
486.428	n/a	PROB	243214	n/a	LTP137	ltpFR	13	n/a	n/a	n/a	n/a	n/a	n/a	12	2	4	6	n/a	n/a	n/a	n/a	n/a
487.676	n/a	PROB	243838	n/a	LTP137	ltpFR	13	n/a	n/a	n/a	n/a	n/a	n/a	12	3	5	4	n/a	n/a	n/a	n/a	n/a
489.91	n/a	PROB	244955	n/a	LTP137	ltpFR	13	n/a	n/a	n/a	n/a	n/a	n/a	13	4	7	2	n/a	n/a	n/a	n/a	n/a
492.036	n/a	STOP	246018	n/a	LTP137	ltpFR	13	n/a	n/a	n/a	n/a	n/a	n/a	n/a	n/a	n/a	n/a	n/a	n/a	n/a	n/a	n/a
494.568	n/a	WORD	247284	wordpools/wasnorm_wordpool.txt	LTP137	ltpFR	13	1	1	ENGINE	535	n/a	0	n/a	0	0	0	0	0.5869140625	0.422607421875	lower	../fonts/zerothre.ttf
497.576	n/a	START	248788	n/a	LTP137	ltpFR	13	n/a	n/a	n/a	n/a	n/a	n/a	n/a	n/a	n/a	n/a	n/a	n/a	n/a	n/a	n/a
498.766	n/a	PROB	249383	n/a	LTP137	ltpFR	13	n/a	n/a	n/a	n/a	n/a	n/a	20	3	8	9	n/a	n/a	n/a	n/a	n/a
501.564	n/a	PROB	250782	n/a	LTP137	ltpFR	13	n/a	n/a	n/a	n/a	n/a	n/a	13	2	8	3	n/a	n/a	n/a	n/a	n/a
503.03	n/a	PROB	251515	n/a	LTP137	ltpFR	13	n/a	n/a	n/a	n/a	n/a	n/a	15	3	4	8	n/a	n/a	n/a	n/a	n/a
505.124	n/a	STOP	252562	n/a	LTP137	ltpFR	13	n/a	n/a	n/a	n/a	n/a	n/a	n/a	n/a	n/a	n/a	n/a	n/a	n/a	n/a	n/a
506.614	n/a	WORD	253307	wordpools/wasnorm_wordpool.txt	LTP137	ltpFR	13	1	1	CONSOLE	364	n/a	0	n/a	0	0	0	0	0.5869140625	0.422607421875	lower	../fonts/zerothre.ttf
509.622	n/a	START	254811	n/a	LTP137	ltpFR	13	n/a	n/a	n/a	n/a	n/a	n/a	n/a	n/a	n/a	n/a	n/a	n/a	n/a	n/a	n/a
510.562	n/a	PROB	255281	n/a	LTP137	ltpFR	13	n/a	n/a	n/a	n/a	n/a	n/a	12	3	7	2	n/a	n/a	n/a	n/a	n/a
511.746	n/a	PROB	255873	n/a	LTP137	ltpFR	13	n/a	n/a	n/a	n/a	n/a	n/a	13	2	6	5	n/a	n/a	n/a	n/a	n/a
514.312	n/a	PROB	257156	n/a	LTP137	ltpFR	13	n/a	n/a	n/a	n/a	n/a	n/a	16	6	5	5	n/a	n/a	n/a	n/a	n/a
515.544	n/a	PROB	257772	n/a	LTP137	ltpFR	13	n/a	n/a	n/a	n/a	n/a	n/a	10	5	4	1	n/a	n/a	n/a	n/a	n/a
516.934	n/a	STOP	258467	n/a	LTP137	ltpFR	13	n/a	n/a	n/a	n/a	n/a	n/a	n/a	n/a	n/a	n/a	n/a	n/a	n/a	n/a	n/a
518.526	n/a	WORD	259263	wordpools/wasnorm_wordpool.txt	LTP137	ltpFR	13	1	0	WORM	1623	n/a	0	n/a	0	0	0	1	0.412841796875	0.57763671875	upper	../fonts/amplitud.ttf
521.534	n/a	START	260767	n/a	LTP137	ltpFR	13	n/a	n/a	n/a	n/a	n/a	n/a	n/a	n/a	n/a	n/a	n/a	n/a	n/a	n/a	n/a
522.492	n/a	PROB	261246	n/a	LTP137	ltpFR	13	n/a	n/a	n/a	n/a	n/a	n/a	17	7	2	8	n/a	n/a	n/a	n/a	n/a
524.924	n/a	PROB	262462	n/a	LTP137	ltpFR	13	n/a	n/a	n/a	n/a	n/a	n/a	24	8	8	8	n/a	n/a	n/a	n/a	n/a
526.348	n/a	PROB	263174	n/a	LTP137	ltpFR	13	n/a	n/a	n/a	n/a	n/a	n/a	12	1	4	7	n/a	n/a	n/a	n/a	n/a
527.698	n/a	PROB	263849	n/a	LTP137	ltpFR	13	n/a	n/a	n/a	n/a	n/a	n/a	16	2	6	8	n/a	n/a	n/a	n/a	n/a
529.334	n/a	STOP	264667	n/a	LTP137	ltpFR	13	n/a	n/a	n/a	n/a	n/a	n/a	n/a	n/a	n/a	n/a	n/a	n/a	n/a	n/a	n/a
530.524	n/a	WORD	265262	wordpools/wasnorm_wordpool.txt	LTP137	ltpFR	13	1	0	SHARK	1275	n/a	1	n/a	0	0	0	1	0.412841796875	0.57763671875	upper	../fonts/amplitud.ttf
533.53	n/a	START	266765	n/a	LTP137	ltpFR	13	n/a	n/a	n/a	n/a	n/a	n/a	n/a	n/a	n/a	n/a	n/a	n/a	n/a	n/a	n/a
534.564	n/a	PROB	267282	n/a	LTP137	ltpFR	13	n/a	n/a	n/a	n/a	n/a	n/a	9	5	1	3	n/a	n/a	n/a	n/a	n/a
536.104	n/a	PROB	268052	n/a	LTP137	ltpFR	13	n/a	n/a	n/a	n/a	n/a	n/a	12	3	5	4	n/a	n/a	n/a	n/a	n/a
538.188	n/a	PROB	269094	n/a	LTP137	ltpFR	13	n/a	n/a	n/a	n/a	n/a	n/a	21	7	8	6	n/a	n/a	n/a	n/a	n/a
540.078	n/a	STOP	270039	n/a	LTP137	ltpFR	13	n/a	n/a	n/a	n/a	n/a	n/a	n/a	n/a	n/a	n/a	n/a	n/a	n/a	n/a	n/a
543.402	n/a	REC_START	271701	n/a	LTP137	ltpFR	13	1	n/a	n/a	n/a	n/a	n/a	n/a	0	0	0	n/a	n/a	n/a	n/a	n/a
545.268	n/a	REC_WORD	272634	wordpools/wasnorm_wordpool.txt	LTP137	ltpFR	13	1	1	ENGINE	535	n/a	0	n/a	0	0	0	n/a	n/a	n/a	n/a	n/a
547.33	n/a	REC_WORD	273665	wordpools/wasnorm_wordpool.txt	LTP137	ltpFR	13	1	0	MECHANIC	884	n/a	1	n/a	0	0	0	n/a	n/a	n/a	n/a	n/a
550.064	n/a	REC_WORD	275032	wordpools/wasnorm_wordpool.txt	LTP137	ltpFR	13	1	1	OTTER	986	n/a	1	n/a	0	0	0	n/a	n/a	n/a	n/a	n/a
550.666	n/a	REC_WORD	275333	wordpools/wasnorm_wordpool.txt	LTP137	ltpFR	13	1	0	SHARK	1275	n/a	1	n/a	0	0	0	n/a	n/a	n/a	n/a	n/a
551.456	n/a	REC_WORD	275728	wordpools/wasnorm_wordpool.txt	LTP137	ltpFR	13	1	0	CREATURE	403	n/a	1	n/a	0	0	0	n/a	n/a	n/a	n/a	n/a
552.592	n/a	REC_WORD	276296	wordpools/wasnorm_wordpool.txt	LTP137	ltpFR	13	1	1	CONSOLE	364	n/a	0	n/a	0	0	0	n/a	n/a	n/a	n/a	n/a
553.814	n/a	REC_WORD	276907	wordpools/wasnorm_wordpool.txt	LTP137	ltpFR	13	1	0	NEUTRON	947	n/a	0	n/a	0	0	0	n/a	n/a	n/a	n/a	n/a
555.556	n/a	REC_WORD	277778	wordpools/wasnorm_wordpool.txt	LTP137	ltpFR	13	1	1	NET	946	n/a	0	n/a	0	0	0	n/a	n/a	n/a	n/a	n/a
558.842	n/a	REC_WORD	279421	wordpools/wasnorm_wordpool.txt	LTP137	ltpFR	13	1	1	SPRINKLE	1359	n/a	0	n/a	0	0	0	n/a	n/a	n/a	n/a	n/a
560.874	n/a	REC_WORD	280437	wordpools/wasnorm_wordpool.txt	LTP137	ltpFR	13	1	0	WORM	1623	n/a	0	n/a	0	0	0	n/a	n/a	n/a	n/a	n/a
570.992	n/a	REC_WORD	285496	wordpools/wasnorm_wordpool.txt	LTP137	ltpFR	13	1	0	OUTFIT	988	n/a	0	n/a	0	0	0	n/a	n/a	n/a	n/a	n/a
572.278	n/a	REC_WORD	286139	wordpools/wasnorm_wordpool.txt	LTP137	ltpFR	13	1	1	CLOTHES	327	n/a	0	n/a	0	0	0	n/a	n/a	n/a	n/a	n/a
577.032	n/a	REC_WORD	288516	wordpools/wasnorm_wordpool.txt	LTP137	ltpFR	13	1	1	CREAM	402	n/a	0	n/a	0	0	0	n/a	n/a	n/a	n/a	n/a
582.012	n/a	REC_WORD	291006	wordpools/wasnorm_wordpool.txt	LTP137	ltpFR	13	1	0	BILL	126	n/a	0	n/a	0	0	0	n/a	n/a	n/a	n/a	n/a
594.994	n/a	REC_WORD	297497	wordpools/wasnorm_wordpool.txt	LTP137	ltpFR	13	1	0	BARN	89	n/a	1	n/a	0	0	0	n/a	n/a	n/a	n/a	n/a
631.642	n/a	WORD	315821	wordpools/wasnorm_wordpool.txt	LTP137	ltpFR	13	2	1	SPY	1360	n/a	1	n/a	0	0	0	0	0.5869140625	0.422607421875	lower	../fonts/zerothre.ttf
635.524	n/a	WORD	317762	wordpools/wasnorm_wordpool.txt	LTP137	ltpFR	13	2	1	SIREN	1310	n/a	0	n/a	0	0	0	0	0.5869140625	0.422607421875	lower	../fonts/zerothre.ttf
639.44	n/a	WORD	319720	wordpools/wasnorm_wordpool.txt	LTP137	ltpFR	13	2	1	COCOON	339	n/a	0	n/a	0	0	0	0	0.5869140625	0.422607421875	lower	../fonts/zerothre.ttf
643.49	n/a	WORD	321745	wordpools/wasnorm_wordpool.txt	LTP137	ltpFR	13	2	1	BEAVER	109	n/a	1	n/a	0	0	0	0	0.5869140625	0.422607421875	lower	../fonts/zerothre.ttf
647.346	n/a	WORD	323673	wordpools/wasnorm_wordpool.txt	LTP137	ltpFR	13	2	1	HOSE	720	n/a	0	n/a	0	0	0	0	0.5869140625	0.422607421875	lower	../fonts/zerothre.ttf
651.42	n/a	WORD	325710	wordpools/wasnorm_wordpool.txt	LTP137	ltpFR	13	2	1	SPARROW	1347	n/a	1	n/a	0	0	0	0	0.5869140625	0.422607421875	lower	../fonts/zerothre.ttf
655.41	n/a	WORD	327705	wordpools/wasnorm_wordpool.txt	LTP137	ltpFR	13	2	1	SNORKEL	1336	n/a	0	n/a	0	0	0	0	0.5869140625	0.422607421875	lower	../fonts/zerothre.ttf
659.452	n/a	WORD	329726	wordpools/wasnorm_wordpool.txt	LTP137	ltpFR	13	2	1	MARINE	869	n/a	0	n/a	0	0	0	0	0.5869140625	0.422607421875	lower	../fonts/zerothre.ttf
663.474	n/a	WORD	331737	wordpools/wasnorm_wordpool.txt	LTP137	ltpFR	13	2	1	STOCKING	1383	n/a	0	n/a	0	0	0	0	0.5869140625	0.422607421875	lower	../fonts/zerothre.ttf
667.638	n/a	WORD	333819	wordpools/wasnorm_wordpool.txt	LTP137	ltpFR	13	2	1	WIDOW	1608	n/a	1	n/a	0	0	0	0	0.5869140625	0.422607421875	lower	../fonts/zerothre.ttf
671.596	n/a	WORD	335798	wordpools/wasnorm_wordpool.txt	LTP137	ltpFR	13	2	1	ROOST	1208	n/a	0	n/a	0	0	0	0	0.5869140625	0.422607421875	lower	../fonts/zerothre.ttf
675.804	n/a	WORD	337902	wordpools/wasnorm_wordpool.txt	LTP137	ltpFR	13	2	1	BUTTON	207	n/a	0	n/a	0	0	0	0	0.5869140625	0.422607421875	lower	../fonts/zerothre.ttf
679.928	n/a	WORD	339964	wordpools/wasnorm_wordpool.txt	LTP137	ltpFR	13	2	1	QUAIL	1147	n/a	1	n/a	0	0	0	0	0.5869140625	0.422607421875	lower	../fonts/zerothre.ttf
683.902	n/a	WORD	341951	wordpools/wasnorm_wordpool.txt	LTP137	ltpFR	13	2	1	POPCORN	1104	n/a	0	n/a	0	0	0	0	0.5869140625	0.422607421875	lower	../fonts/zerothre.ttf
688.016	n/a	WORD	344008	wordpools/wasnorm_wordpool.txt	LTP137	ltpFR	13	2	1	KITE	779	n/a	0	n/a	0	0	0	0	0.5869140625	0.422607421875	lower	../fonts/zerothre.ttf
692.09	n/a	WORD	346045	wordpools/wasnorm_wordpool.txt	LTP137	ltpFR	13	2	1	MAGICIAN	854	n/a	1	n/a	0	0	0	0	0.5869140625	0.422607421875	lower	../fonts/zerothre.ttf
695.098	n/a	START	347549	n/a	LTP137	ltpFR	13	n/a	n/a	n/a	n/a	n/a	n/a	n/a	n/a	n/a	n/a	n/a	n/a	n/a	n/a	n/a
696.29	n/a	PROB	348145	n/a	LTP137	ltpFR	13	n/a	n/a	n/a	n/a	n/a	n/a	19	9	1	9	n/a	n/a	n/a	n/a	n/a
697.956	n/a	PROB	348978	n/a	LTP137	ltpFR	13	n/a	n/a	n/a	n/a	n/a	n/a	14	5	3	6	n/a	n/a	n/a	n/a	n/a
700.264	n/a	PROB	350132	n/a	LTP137	ltpFR	13	n/a	n/a	n/a	n/a	n/a	n/a	10	5	4	1	n/a	n/a	n/a	n/a	n/a
703.1	n/a	STOP	351550	n/a	LTP137	ltpFR	13	n/a	n/a	n/a	n/a	n/a	n/a	n/a	n/a	n/a	n/a	n/a	n/a	n/a	n/a	n/a
704.954	n/a	REC_START	352477	n/a	LTP137	ltpFR	13	2	n/a	n/a	n/a	n/a	n/a	n/a	0	0	0	n/a	n/a	n/a	n/a	n/a
706.6	n/a	REC_WORD	353300	wordpools/wasnorm_wordpool.txt	LTP137	ltpFR	13	2	1	MAGICIAN	854	n/a	1	n/a	0	0	0	n/a	n/a	n/a	n/a	n/a
707.524	n/a	REC_WORD	353762	wordpools/wasnorm_wordpool.txt	LTP137	ltpFR	13	2	1	POPCORN	1104	n/a	0	n/a	0	0	0	n/a	n/a	n/a	n/a	n/a
708.61	n/a	REC_WORD	354305	wordpools/wasnorm_wordpool.txt	LTP137	ltpFR	13	2	1	KITE	779	n/a	0	n/a	0	0	0	n/a	n/a	n/a	n/a	n/a
709.998	n/a	REC_WORD	354999	wordpools/wasnorm_wordpool.txt	LTP137	ltpFR	13	2	1	COCOON	339	n/a	0	n/a	0	0	0	n/a	n/a	n/a	n/a	n/a
711.668	n/a	REC_WORD	355834	wordpools/wasnorm_wordpool.txt	LTP137	ltpFR	13	2	1	SPARROW	1347	n/a	1	n/a	0	0	0	n/a	n/a	n/a	n/a	n/a
713.036	n/a	REC_WORD	356518	wordpools/wasnorm_wordpool.txt	LTP137	ltpFR	13	2	1	BEAVER	109	n/a	1	n/a	0	0	0	n/a	n/a	n/a	n/a	n/a
713.844	n/a	REC_WORD	356922	wordpools/wasnorm_wordpool.txt	LTP137	ltpFR	13	2	1	QUAIL	1147	n/a	1	n/a	0	0	0	n/a	n/a	n/a	n/a	n/a
716.194	n/a	REC_WORD	358097	wordpools/wasnorm_wordpool.txt	LTP137	ltpFR	13	2	1	MARINE	869	n/a	0	n/a	0	0	0	n/a	n/a	n/a	n/a	n/a
720.306	n/a	REC_WORD	360153	wordpools/wasnorm_wordpool.txt	LTP137	ltpFR	13	2	1	SNORKEL	1336	n/a	0	n/a	0	0	0	n/a	n/a	n/a	n/a	n/a
722.42	n/a	REC_WORD	361210	wordpools/wasnorm_wordpool.txt	LTP137	ltpFR	13	2	1	STOCKING	1383	n/a	0	n/a	0	0	0	n/a	n/a	n/a	n/a	n/a
723.688	n/a	REC_WORD	361844	wordpools/wasnorm_wordpool.txt	LTP137	ltpFR	13	2	1	SPY	1360	n/a	1	n/a	0	0	0	n/a	n/a	n/a	n/a	n/a
730.328	n/a	REC_WORD	365164	wordpools/wasnorm_wordpool.txt	LTP137	ltpFR	13	2	1	WIDOW	1608	n/a	1	n/a	0	0	0	n/a	n/a	n/a	n/a	n/a
743.03	n/a	REC_WORD	371515	wordpools/wasnorm_wordpool.txt	LTP137	ltpFR	13	2	1	SIREN	1310	n/a	0	n/a	0	0	0	n/a	n/a	n/a	n/a	n/a
783.588	n/a	WORD	391794	wordpools/wasnorm_wordpool.txt	LTP137	ltpFR	13	3	0	CAGE	218	n/a	1	n/a	0	0	0	1	0.412841796875	0.57763671875	upper	../fonts/amplitud.ttf
787.62	n/a	WORD	393810	wordpools/wasnorm_wordpool.txt	LTP137	ltpFR	13	3	0	CAT	257	n/a	0	n/a	0	0	0	1	0.412841796875	0.57763671875	upper	../fonts/amplitud.ttf
791.602	n/a	WORD	395801	wordpools/wasnorm_wordpool.txt	LTP137	ltpFR	13	3	0	ALMOND	18	n/a	0	n/a	0	0	0	1	0.412841796875	0.57763671875	upper	../fonts/amplitud.ttf
795.594	n/a	WORD	397797	wordpools/wasnorm_wordpool.txt	LTP137	ltpFR	13	3	0	TUB	1514	n/a	1	n/a	0	0	0	1	0.412841796875	0.57763671875	upper	../fonts/amplitud.ttf
799.592	n/a	WORD	399796	wordpools/wasnorm_wordpool.txt	LTP137	ltpFR	13	3	0	SIBLING	1301	n/a	1	n/a	0	0	0	1	0.412841796875	0.57763671875	upper	../fonts/amplitud.ttf
803.458	n/a	WORD	401729	wordpools/wasnorm_wordpool.txt	LTP137	ltpFR	13	3	0	RAZOR	1171	n/a	0	n/a	0	0	0	1	0.412841796875	0.57763671875	upper	../fonts/amplitud.ttf
807.422	n/a	WORD	403711	wordpools/wasnorm_wordpool.txt	LTP137	ltpFR	13	3	0	PASTRY	1022	n/a	0	n/a	0	0	0	1	0.412841796875	0.57763671875	upper	../fonts/amplitud.ttf
811.538	n/a	WORD	405769	wordpools/wasnorm_wordpool.txt	LTP137	ltpFR	13	3	0	STRING	1394	n/a	0	n/a	0	0	0	1	0.412841796875	0.57763671875	upper	../fonts/amplitud.ttf
815.728	n/a	WORD	407864	wordpools/wasnorm_wordpool.txt	LTP137	ltpFR	13	3	0	SICKLE	1302	n/a	1	n/a	0	0	0	1	0.412841796875	0.57763671875	upper	../fonts/amplitud.ttf
819.552	n/a	WORD	409776	wordpools/wasnorm_wordpool.txt	LTP137	ltpFR	13	3	0	MANAGER	863	n/a	1	n/a	0	0	0	1	0.412841796875	0.57763671875	upper	../fonts/amplitud.ttf
823.568	n/a	WORD	411784	wordpools/wasnorm_wordpool.txt	LTP137	ltpFR	13	3	0	EMPLOYEE	531	n/a	1	n/a	0	0	0	1	0.412841796875	0.57763671875	upper	../fonts/amplitud.ttf
827.55	n/a	WORD	413775	wordpools/wasnorm_wordpool.txt	LTP137	ltpFR	13	3	0	DAGGER	434	n/a	0	n/a	0	0	0	1	0.412841796875	0.57763671875	upper	../fonts/amplitud.ttf
831.758	n/a	WORD	415879	wordpools/wasnorm_wordpool.txt	LTP137	ltpFR	13	3	0	KNEE	784	n/a	0	n/a	0	0	0	1	0.412841796875	0.57763671875	upper	../fonts/amplitud.ttf
835.88	n/a	WORD	417940	wordpools/wasnorm_wordpool.txt	LTP137	ltpFR	13	3	0	WRIST	1626	n/a	0	n/a	0	0	0	1	0.412841796875	0.57763671875	upper	../fonts/amplitud.ttf
840.046	n/a	WORD	420023	wordpools/wasnorm_wordpool.txt	LTP137	ltpFR	13	3	0	ANCESTOR	20	n/a	1	n/a	0	0	0	1	0.412841796875	0.57763671875	upper	../fonts/amplitud.ttf
844.194	n/a	WORD	422097	wordpools/wasnorm_wordpool.txt	LTP137	ltpFR	13	3	0	TOILET	1475	n/a	0	n/a	0	0	0	1	0.412841796875	0.57763671875	upper	../fonts/amplitud.ttf
849.994	n/a	REC_START	424997	n/a	LTP137	ltpFR	13	3	n/a	n/a	n/a	n/a	n/a	n/a	0	0	0	n/a	n/a	n/a	n/a	n/a
851.636	n/a	REC_WORD	425818	wordpools/wasnorm_wordpool.txt	LTP137	ltpFR	13	3	0	ANCESTOR	20	n/a	1	n/a	0	0	0	n/a	n/a	n/a	n/a	n/a
852.578	n/a	REC_WORD	426289	wordpools/wasnorm_wordpool.txt	LTP137	ltpFR	13	3	0	TOILET	1475	n/a	0	n/a	0	0	0	n/a	n/a	n/a	n/a	n/a
853.392	n/a	REC_WORD	426696	wordpools/wasnorm_wordpool.txt	LTP137	ltpFR	13	3	0	MANAGER	863	n/a	1	n/a	0	0	0	n/a	n/a	n/a	n/a	n/a
854.454	n/a	REC_WORD	427227	wordpools/wasnorm_wordpool.txt	LTP137	ltpFR	13	3	0	EMPLOYEE	531	n/a	1	n/a	0	0	0	n/a	n/a	n/a	n/a	n/a
855.87	n/a	REC_WORD	427935	wordpools/wasnorm_wordpool.txt	LTP137	ltpFR	13	3	0	DAGGER	434	n/a	0	n/a	0	0	0	n/a	n/a	n/a	n/a	n/a
856.928	n/a	REC_WORD	428464	wordpools/wasnorm_wordpool.txt	LTP137	ltpFR	13	3	0	KNEE	784	n/a	0	n/a	0	0	0	n/a	n/a	n/a	n/a	n/a
857.776	n/a	REC_WORD	428888	wordpools/wasnorm_wordpool.txt	LTP137	ltpFR	13	3	0	WRIST	1626	n/a	0	n/a	0	0	0	n/a	n/a	n/a	n/a	n/a
859.742	n/a	REC_WORD	429871	wordpools/wasnorm_wordpool.txt	LTP137	ltpFR	13	3	0	CAT	257	n/a	0	n/a	0	0	0	n/a	n/a	n/a	n/a	n/a
860.626	n/a	REC_WORD	430313	wordpools/wasnorm_wordpool.txt	LTP137	ltpFR	13	3	0	CAGE	218	n/a	1	n/a	0	0	0	n/a	n/a	n/a	n/a	n/a
861.618	n/a	REC_WORD	430809	wordpools/wasnorm_wordpool.txt	LTP137	ltpFR	13	3	0	RAZOR	1171	n/a	0	n/a	0	0	0	n/a	n/a	n/a	n/a	n/a
865.34	n/a	REC_WORD	432670	wordpools/wasnorm_wordpool.txt	LTP137	ltpFR	13	3	0	SICKLE	1302	n/a	1	n/a	0	0	0	n/a	n/a	n/a	n/a	n/a
867.55	n/a	REC_WORD	433775	wordpools/wasnorm_wordpool.txt	LTP137	ltpFR	13	3	0	STRING	1394	n/a	0	n/a	0	0	0	n/a	n/a	n/a	n/a	n/a
868.812	n/a	REC_WORD	434406	wordpools/wasnorm_wordpool.txt	LTP137	ltpFR	13	3	0	ALMOND	18	n/a	0	n/a	0	0	0	n/a	n/a	n/a	n/a	n/a
870.478	n/a	REC_WORD	435239	wordpools/wasnorm_wordpool.txt	LTP137	ltpFR	13	3	0	TUB	1514	n/a	1	n/a	0	0	0	n/a	n/a	n/a	n/a	n/a
874.176	n/a	REC_WORD	437088	wordpools/wasnorm_wordpool.txt	LTP137	ltpFR	13	3	0	PASTRY	1022	n/a	0	n/a	0	0	0	n/a	n/a	n/a	n/a	n/a
885.436	n/a	REC_WORD	442718	wordpools/wasnorm_wordpool.txt	LTP137	ltpFR	13	3	0	SIBLING	1301	n/a	1	n/a	0	0	0	n/a	n/a	n/a	n/a	n/a
935.05	n/a	START	467525	n/a	LTP137	ltpFR	13	n/a	n/a	n/a	n/a	n/a	n/a	n/a	n/a	n/a	n/a	n/a	n/a	n/a	n/a	n/a
936.558	n/a	PROB	468279	n/a	LTP137	ltpFR	13	n/a	n/a	n/a	n/a	n/a	n/a	19	8	4	7	n/a	n/a	n/a	n/a	n/a
938.932	n/a	PROB	469466	n/a	LTP137	ltpFR	13	n/a	n/a	n/a	n/a	n/a	n/a	21	5	9	7	n/a	n/a	n/a	n/a	n/a
942.19	n/a	PROB	471095	n/a	LTP137	ltpFR	13	n/a	n/a	n/a	n/a	n/a	n/a	17	2	9	6	n/a	n/a	n/a	n/a	n/a
944.498	n/a	PROB	472249	n/a	LTP137	ltpFR	13	n/a	n/a	n/a	n/a	n/a	n/a	12	1	4	7	n/a	n/a	n/a	n/a	n/a
945.922	n/a	PROB	472961	n/a	LTP137	ltpFR	13	n/a	n/a	n/a	n/a	n/a	n/a	9	5	3	1	n/a	n/a	n/a	n/a	n/a
947.564	n/a	PROB	473782	n/a	LTP137	ltpFR	13	n/a	n/a	n/a	n/a	n/a	n/a	17	6	4	7	n/a	n/a	n/a	n/a	n/a
948.964	n/a	PROB	474482	n/a	LTP137	ltpFR	13	n/a	n/a	n/a	n/a	n/a	n/a	16	1	7	8	n/a	n/a	n/a	n/a	n/a
950.428	n/a	STOP	475214	n/a	LTP137	ltpFR	13	n/a	n/a	n/a	n/a	n/a	n/a	n/a	n/a	n/a	n/a	n/a	n/a	n/a	n/a	n/a
952.254	n/a	WORD	476127	wordpools/wasnorm_wordpool.txt	LTP137	ltpFR	13	4	1	ELK	526	n/a	1	n/a	0	0	0	0	0.5869140625	0.422607421875	lower	../fonts/zerothre.ttf
955.262	n/a	START	477631	n/a	LTP137	ltpFR	13	n/a	n/a	n/a	n/a	n/a	n/a	n/a	n/a	n/a	n/a	n/a	n/a	n/a	n/a	n/a
956.286	n/a	PROB	478143	n/a	LTP137	ltpFR	13	n/a	n/a	n/a	n/a	n/a	n/a	11	4	3	4	n/a	n/a	n/a	n/a	n/a
958.534	n/a	PROB	479267	n/a	LTP137	ltpFR	13	n/a	n/a	n/a	n/a	n/a	n/a	16	6	6	4	n/a	n/a	n/a	n/a	n/a
959.802	n/a	PROB	479901	n/a	LTP137	ltpFR	13	n/a	n/a	n/a	n/a	n/a	n/a	16	8	6	2	n/a	n/a	n/a	n/a	n/a
961.402	n/a	PROB	480701	n/a	LTP137	ltpFR	13	n/a	n/a	n/a	n/a	n/a	n/a	19	6	5	8	n/a	n/a	n/a	n/a	n/a
964.35	n/a	PROB	482175	n/a	LTP137	ltpFR	13	n/a	n/a	n/a	n/a	n/a	n/a	6	2	2	2	n/a	n/a	n/a	n/a	n/a
965.516	n/a	PROB	482758	n/a	LTP137	ltpFR	13	n/a	n/a	n/a	n/a	n/a	n/a	10	2	7	1	n/a	n/a	n/a	n/a	n/a
967.358	n/a	PROB	483679	n/a	LTP137	ltpFR	13	n/a	n/a	n/a	n/a	n/a	n/a	14	6	7	1	n/a	n/a	n/a	n/a	n/a
971.262	n/a	STOP	485631	n/a	LTP137	ltpFR	13	n/a	n/a	n/a	n/a	n/a	n/a	n/a	n/a	n/a	n/a	n/a	n/a	n/a	n/a	n/a
972.282	n/a	WORD	486141	wordpools/wasnorm_wordpool.txt	LTP137	ltpFR	13	4	1	POET	1095	n/a	1	n/a	0	0	0	0	0.5869140625	0.422607421875	lower	../fonts/zerothre.ttf
975.288	n/a	START	487644	n/a	LTP137	ltpFR	13	n/a	n/a	n/a	n/a	n/a	n/a	n/a	n/a	n/a	n/a	n/a	n/a	n/a	n/a	n/a
976.222	n/a	PROB	488111	n/a	LTP137	ltpFR	13	n/a	n/a	n/a	n/a	n/a	n/a	24	9	7	8	n/a	n/a	n/a	n/a	n/a
980.838	n/a	PROB	490419	n/a	LTP137	ltpFR	13	n/a	n/a	n/a	n/a	n/a	n/a	18	9	8	1	n/a	n/a	n/a	n/a	n/a
983.212	n/a	PROB	491606	n/a	LTP137	ltpFR	13	n/a	n/a	n/a	n/a	n/a	n/a	16	1	9	6	n/a	n/a	n/a	n/a	n/a
984.734	n/a	PROB	492367	n/a	LTP137	ltpFR	13	n/a	n/a	n/a	n/a	n/a	n/a	22	8	7	7	n/a	n/a	n/a	n/a	n/a
986.41	n/a	PROB	493205	n/a	LTP137	ltpFR	13	n/a	n/a	n/a	n/a	n/a	n/a	11	6	4	1	n/a	n/a	n/a	n/a	n/a
987.568	n/a	PROB	493784	n/a	LTP137	ltpFR	13	n/a	n/a	n/a	n/a	n/a	n/a	14	4	6	4	n/a	n/a	n/a	n/a	n/a
989.942	n/a	STOP	494971	n/a	LTP137	ltpFR	13	n/a	n/a	n/a	n/a	n/a	n/a	n/a	n/a	n/a	n/a	n/a	n/a	n/a	n/a	n/a
992.45	n/a	WORD	496225	wordpools/wasnorm_wordpool.txt	LTP137	ltpFR	13	4	1	COBBLER	335	n/a	0	n/a	0	0	0	0	0.5869140625	0.422607421875	lower	../fonts/zerothre.ttf
995.458	n/a	START	497729	n/a	LTP137	ltpFR	13	n/a	n/a	n/a	n/a	n/a	n/a	n/a	n/a	n/a	n/a	n/a	n/a	n/a	n/a	n/a
996.656	n/a	PROB	498328	n/a	LTP137	ltpFR	13	n/a	n/a	n/a	n/a	n/a	n/a	12	9	1	2	n/a	n/a	n/a	n/a	n/a
997.924	n/a	PROB	498962	n/a	LTP137	ltpFR	13	n/a	n/a	n/a	n/a	n/a	n/a	17	5	6	6	n/a	n/a	n/a	n/a	n/a
999.982	n/a	PROB	499991	n/a	LTP137	ltpFR	13	n/a	n/a	n/a	n/a	n/a	n/a	9	1	4	4	n/a	n/a	n/a	n/a	n/a
1001.598	n/a	PROB	500799	n/a	LTP137	ltpFR	13	n/a	n/a	n/a	n/a	n/a	n/a	19	1	9	9	n/a	n/a	n/a	n/a	n/a
1003.23	n/a	PROB	501615	n/a	LTP137	ltpFR	13	n/a	n/a	n/a	n/a	n/a	n/a	26	9	8	9	n/a	n/a	n/a	n/a	n/a
1011.458	n/a	STOP	505729	n/a	LTP137	ltpFR	13	n/a	n/a	n/a	n/a	n/a	n/a	n/a	n/a	n/a	n/a	n/a	n/a	n/a	n/a	n/a
1012.494	n/a	WORD	506247	wordpools/wasnorm_wordpool.txt	LTP137	ltpFR	13	4	1	PIE	1062	n/a	0	n/a	0	0	0	0	0.5869140625	0.422607421875	lower	../fonts/zerothre.ttf
1015.502	n/a	START	507751	n/a	LTP137	ltpFR	13	n/a	n/a	n/a	n/a	n/a	n/a	n/a	n/a	n/a	n/a	n/a	n/a	n/a	n/a	n/a
1016.668	n/a	PROB	508334	n/a	LTP137	ltpFR	13	n/a	n/a	n/a	n/a	n/a	n/a	18	4	9	5	n/a	n/a	n/a	n/a	n/a
1018.642	n/a	PROB	509321	n/a	LTP137	ltpFR	13	n/a	n/a	n/a	n/a	n/a	n/a	14	7	2	5	n/a	n/a	n/a	n/a	n/a
1020.942	n/a	PROB	510471	n/a	LTP137	ltpFR	13	n/a	n/a	n/a	n/a	n/a	n/a	13	3	8	2	n/a	n/a	n/a	n/a	n/a
1022.424	n/a	PROB	511212	n/a	LTP137	ltpFR	13	n/a	n/a	n/a	n/a	n/a	n/a	17	4	9	4	n/a	n/a	n/a	n/a	n/a
1024.198	n/a	PROB	512099	n/a	LTP137	ltpFR	13	n/a	n/a	n/a	n/a	n/a	n/a	11	4	1	6	n/a	n/a	n/a	n/a	n/a
1025.68	n/a	PROB	512840	n/a	LTP137	ltpFR	13	n/a	n/a	n/a	n/a	n/a	n/a	12	1	5	6	n/a	n/a	n/a	n/a	n/a
1027.632	n/a	PROB	513816	n/a	LTP137	ltpFR	13	n/a	n/a	n/a	n/a	n/a	n/a	17	5	4	8	n/a	n/a	n/a	n/a	n/a
1031.502	n/a	STOP	515751	n/a	LTP137	ltpFR	13	n/a	n/a	n/a	n/a	n/a	n/a	n/a	n/a	n/a	n/a	n/a	n/a	n/a	n/a	n/a
1032.562	n/a	WORD	516281	wordpools/wasnorm_wordpool.txt	LTP137	ltpFR	13	4	0	IRON	744	n/a	0	n/a	0	0	0	1	0.412841796875	0.57763671875	upper	../fonts/amplitud.ttf
1035.572	n/a	START	517786	n/a	LTP137	ltpFR	13	n/a	n/a	n/a	n/a	n/a	n/a	n/a	n/a	n/a	n/a	n/a	n/a	n/a	n/a	n/a
1036.77	n/a	PROB	518385	n/a	LTP137	ltpFR	13	n/a	n/a	n/a	n/a	n/a	n/a	19	4	9	6	n/a	n/a	n/a	n/a	n/a
1038.57	n/a	PROB	519285	n/a	LTP137	ltpFR	13	n/a	n/a	n/a	n/a	n/a	n/a	15	3	5	7	n/a	n/a	n/a	n/a	n/a
1040.552	n/a	PROB	520276	n/a	LTP137	ltpFR	13	n/a	n/a	n/a	n/a	n/a	n/a	20	4	8	8	n/a	n/a	n/a	n/a	n/a
1042.252	n/a	PROB	521126	n/a	LTP137	ltpFR	13	n/a	n/a	n/a	n/a	n/a	n/a	18	9	4	5	n/a	n/a	n/a	n/a	n/a
1044.102	n/a	PROB	522051	n/a	LTP137	ltpFR	13	n/a	n/a	n/a	n/a	n/a	n/a	19	4	7	8	n/a	n/a	n/a	n/a	n/a
1046.558	n/a	PROB	523279	n/a	LTP137	ltpFR	13	n/a	n/a	n/a	n/a	n/a	n/a	20	8	7	5	n/a	n/a	n/a	n/a	n/a
1048.816	n/a	PROB	524408	n/a	LTP137	ltpFR	13	n/a	n/a	n/a	n/a	n/a	n/a	9	6	1	2	n/a	n/a	n/a	n/a	n/a
1050.498	n/a	STOP	525249	n/a	LTP137	ltpFR	13	n/a	n/a	n/a	n/a	n/a	n/a	n/a	n/a	n/a	n/a	n/a	n/a	n/a	n/a	n/a
1052.616	n/a	WORD	526308	wordpools/wasnorm_wordpool.txt	LTP137	ltpFR	13	4	0	JOKER	759	n/a	1	n/a	0	0	0	1	0.412841796875	0.57763671875	upper	../fonts/amplitud.ttf
1055.624	n/a	START	527812	n/a	LTP137	ltpFR	13	n/a	n/a	n/a	n/a	n/a	n/a	n/a	n/a	n/a	n/a	n/a	n/a	n/a	n/a	n/a
1056.688	n/a	PROB	528344	n/a	LTP137	ltpFR	13	n/a	n/a	n/a	n/a	n/a	n/a	24	8	7	9	n/a	n/a	n/a	n/a	n/a
1059.022	n/a	PROB	529511	n/a	LTP137	ltpFR	13	n/a	n/a	n/a	n/a	n/a	n/a	12	2	1	9	n/a	n/a	n/a	n/a	n/a
1060.638	n/a	PROB	530319	n/a	LTP137	ltpFR	13	n/a	n/a	n/a	n/a	n/a	n/a	13	5	2	6	n/a	n/a	n/a	n/a	n/a
1063.196	n/a	PROB	531598	n/a	LTP137	ltpFR	13	n/a	n/a	n/a	n/a	n/a	n/a	20	9	7	4	n/a	n/a	n/a	n/a	n/a
1065.852	n/a	PROB	532926	n/a	LTP137	ltpFR	13	n/a	n/a	n/a	n/a	n/a	n/a	15	7	2	6	n/a	n/a	n/a	n/a	n/a
1067.752	n/a	PROB	533876	n/a	LTP137	ltpFR	13	n/a	n/a	n/a	n/a	n/a	n/a	15	5	7	3	n/a	n/a	n/a	n/a	n/a
1069.026	n/a	PROB	534513	n/a	LTP137	ltpFR	13	n/a	n/a	n/a	n/a	n/a	n/a	15	5	5	5	n/a	n/a	n/a	n/a	n/a
1070.102	n/a	PROB	535051	n/a	LTP137	ltpFR	13	n/a	n/a	n/a	n/a	n/a	n/a	5	2	1	3	n/a	n/a	n/a	n/a	n/a
1071.54	n/a	STOP	535770	n/a	LTP137	ltpFR	13	n/a	n/a	n/a	n/a	n/a	n/a	n/a	n/a	n/a	n/a	n/a	n/a	n/a	n/a	n/a
1072.602	n/a	WORD	536301	wordpools/wasnorm_wordpool.txt	LTP137	ltpFR	13	4	0	DRIVEWAY	500	n/a	1	n/a	0	0	0	1	0.412841796875	0.57763671875	upper	../fonts/amplitud.ttf
1075.61	n/a	START	537805	n/a	LTP137	ltpFR	13	n/a	n/a	n/a	n/a	n/a	n/a	n/a	n/a	n/a	n/a	n/a	n/a	n/a	n/a	n/a
1076.642	n/a	PROB	538321	n/a	LTP137	ltpFR	13	n/a	n/a	n/a	n/a	n/a	n/a	16	3	4	9	n/a	n/a	n/a	n/a	n/a
1079.474	n/a	PROB	539737	n/a	LTP137	ltpFR	13	n/a	n/a	n/a	n/a	n/a	n/a	19	9	1	9	n/a	n/a	n/a	n/a	n/a
1080.898	n/a	PROB	540449	n/a	LTP137	ltpFR	13	n/a	n/a	n/a	n/a	n/a	n/a	13	5	5	3	n/a	n/a	n/a	n/a	n/a
1082.232	n/a	PROB	541116	n/a	LTP137	ltpFR	13	n/a	n/a	n/a	n/a	n/a	n/a	9	4	1	4	n/a	n/a	n/a	n/a	n/a
1083.73	n/a	PROB	541865	n/a	LTP137	ltpFR	13	n/a	n/a	n/a	n/a	n/a	n/a	17	2	7	8	n/a	n/a	n/a	n/a	n/a
1085.606	n/a	PROB	542803	n/a	LTP137	ltpFR	13	n/a	n/a	n/a	n/a	n/a	n/a	24	7	8	9	n/a	n/a	n/a	n/a	n/a
1087.554	n/a	PROB	543777	n/a	LTP137	ltpFR	13	n/a	n/a	n/a	n/a	n/a	n/a	16	4	3	9	n/a	n/a	n/a	n/a	n/a
1090.492	n/a	STOP	545246	n/a	LTP137	ltpFR	13	n/a	n/a	n/a	n/a	n/a	n/a	n/a	n/a	n/a	n/a	n/a	n/a	n/a	n/a	n/a
1092.546	n/a	WORD	546273	wordpools/wasnorm_wordpool.txt	LTP137	ltpFR	13	4	0	NOVEL	960	n/a	0	n/a	0	0	0	1	0.412841796875	0.57763671875	upper	../fonts/amplitud.ttf
1095.554	n/a	START	547777	n/a	LTP137	ltpFR	13	n/a	n/a	n/a	n/a	n/a	n/a	n/a	n/a	n/a	n/a	n/a	n/a	n/a	n/a	n/a
1096.51	n/a	PROB	548255	n/a	LTP137	ltpFR	13	n/a	n/a	n/a	n/a	n/a	n/a	10	2	2	6	n/a	n/a	n/a	n/a	n/a
1098.526	n/a	PROB	549263	n/a	LTP137	ltpFR	13	n/a	n/a	n/a	n/a	n/a	n/a	17	8	2	7	n/a	n/a	n/a	n/a	n/a
1100.3	n/a	PROB	550150	n/a	LTP137	ltpFR	13	n/a	n/a	n/a	n/a	n/a	n/a	17	6	6	5	n/a	n/a	n/a	n/a	n/a
1104.258	n/a	PROB	552129	n/a	LTP137	ltpFR	13	n/a	n/a	n/a	n/a	n/a	n/a	19	6	7	6	n/a	n/a	n/a	n/a	n/a
1107.756	n/a	PROB	553878	n/a	LTP137	ltpFR	13	n/a	n/a	n/a	n/a	n/a	n/a	10	3	1	6	n/a	n/a	n/a	n/a	n/a
1108.882	n/a	PROB	554441	n/a	LTP137	ltpFR	13	n/a	n/a	n/a	n/a	n/a	n/a	18	9	5	4	n/a	n/a	n/a	n/a	n/a
1110.66	n/a	STOP	555330	n/a	LTP137	ltpFR	13	n/a	n/a	n/a	n/a	n/a	n/a	n/a	n/a	n/a	n/a	n/a	n/a	n/a	n/a	n/a
1112.53	n/a	WORD	556265	wordpools/wasnorm_wordpool.txt	LTP137	ltpFR	13	4	1	FACE	547	n/a	0	n/a	0	0	0	0	0.5869140625	0.422607421875	lower	../fonts/zerothre.ttf
1115.538	n/a	START	557769	n/a	LTP137	ltpFR	13	n/a	n/a	n/a	n/a	n/a	n/a	n/a	n/a	n/a	n/a	n/a	n/a	n/a	n/a	n/a
1116.588	n/a	PROB	558294	n/a	LTP137	ltpFR	13	n/a	n/a	n/a	n/a	n/a	n/a	16	6	8	2	n/a	n/a	n/a	n/a	n/a
1118.654	n/a	PROB	559327	n/a	LTP137	ltpFR	13	n/a	n/a	n/a	n/a	n/a	n/a	18	8	7	3	n/a	n/a	n/a	n/a	n/a
1120.17	n/a	PROB	560085	n/a	LTP137	ltpFR	13	n/a	n/a	n/a	n/a	n/a	n/a	19	9	2	8	n/a	n/a	n/a	n/a	n/a
1121.828	n/a	PROB	560914	n/a	LTP137	ltpFR	13	n/a	n/a	n/a	n/a	n/a	n/a	14	1	5	8	n/a	n/a	n/a	n/a	n/a
1123.91	n/a	PROB	561955	n/a	LTP137	ltpFR	13	n/a	n/a	n/a	n/a	n/a	n/a	21	5	8	8	n/a	n/a	n/a	n/a	n/a
1125.676	n/a	PROB	562838	n/a	LTP137	ltpFR	13	n/a	n/a	n/a	n/a	n/a	n/a	13	8	2	3	n/a	n/a	n/a	n/a	n/a
1127.168	n/a	PROB	563584	n/a	LTP137	ltpFR	13	n/a	n/a	n/a	n/a	n/a	n/a	11	3	4	4	n/a	n/a	n/a	n/a	n/a
1131.54	n/a	STOP	565770	n/a	LTP137	ltpFR	13	n/a	n/a	n/a	n/a	n/a	n/a	n/a	n/a	n/a	n/a	n/a	n/a	n/a	n/a	n/a
1132.508	n/a	WORD	566254	wordpools/wasnorm_wordpool.txt	LTP137	ltpFR	13	4	1	BULLET	194	n/a	0	n/a	0	0	0	0	0.5869140625	0.422607421875	lower	../fonts/zerothre.ttf
1135.516	n/a	START	567758	n/a	LTP137	ltpFR	13	n/a	n/a	n/a	n/a	n/a	n/a	n/a	n/a	n/a	n/a	n/a	n/a	n/a	n/a	n/a
1136.616	n/a	PROB	568308	n/a	LTP137	ltpFR	13	n/a	n/a	n/a	n/a	n/a	n/a	11	3	2	6	n/a	n/a	n/a	n/a	n/a
1138.79	n/a	PROB	569395	n/a	LTP137	ltpFR	13	n/a	n/a	n/a	n/a	n/a	n/a	14	6	6	2	n/a	n/a	n/a	n/a	n/a
1140.588	n/a	PROB	570294	n/a	LTP137	ltpFR	13	n/a	n/a	n/a	n/a	n/a	n/a	24	9	8	7	n/a	n/a	n/a	n/a	n/a
1142.678	n/a	PROB	571339	n/a	LTP137	ltpFR	13	n/a	n/a	n/a	n/a	n/a	n/a	11	2	1	8	n/a	n/a	n/a	n/a	n/a
1144.078	n/a	PROB	572039	n/a	LTP137	ltpFR	13	n/a	n/a	n/a	n/a	n/a	n/a	20	4	9	7	n/a	n/a	n/a	n/a	n/a
1146.254	n/a	PROB	573127	n/a	LTP137	ltpFR	13	n/a	n/a	n/a	n/a	n/a	n/a	10	2	5	3	n/a	n/a	n/a	n/a	n/a
1148.504	n/a	PROB	574252	n/a	LTP137	ltpFR	13	n/a	n/a	n/a	n/a	n/a	n/a	17	7	9	1	n/a	n/a	n/a	n/a	n/a
1150.256	n/a	STOP	575128	n/a	LTP137	ltpFR	13	n/a	n/a	n/a	n/a	n/a	n/a	n/a	n/a	n/a	n/a	n/a	n/a	n/a	n/a	n/a
1152.518	n/a	WORD	576259	wordpools/wasnorm_wordpool.txt	LTP137	ltpFR	13	4	1	UNDERWEAR	1537	n/a	0	n/a	0	0	0	0	0.5869140625	0.422607421875	lower	../fonts/zerothre.ttf
1155.526	n/a	START	577763	n/a	LTP137	ltpFR	13	n/a	n/a	n/a	n/a	n/a	n/a	n/a	n/a	n/a	n/a	n/a	n/a	n/a	n/a	n/a
1156.716	n/a	PROB	578358	n/a	LTP137	ltpFR	13	n/a	n/a	n/a	n/a	n/a	n/a	11	2	6	3	n/a	n/a	n/a	n/a	n/a
1158.842	n/a	PROB	579421	n/a	LTP137	ltpFR	13	n/a	n/a	n/a	n/a	n/a	n/a	11	1	8	2	n/a	n/a	n/a	n/a	n/a
1160.208	n/a	PROB	580104	n/a	LTP137	ltpFR	13	n/a	n/a	n/a	n/a	n/a	n/a	17	6	2	9	n/a	n/a	n/a	n/a	n/a
1163.332	n/a	PROB	581666	n/a	LTP137	ltpFR	13	n/a	n/a	n/a	n/a	n/a	n/a	15	5	8	2	n/a	n/a	n/a	n/a	n/a
1165.148	n/a	PROB	582574	n/a	LTP137	ltpFR	13	n/a	n/a	n/a	n/a	n/a	n/a	21	8	5	8	n/a	n/a	n/a	n/a	n/a
1167.222	n/a	PROB	583611	n/a	LTP137	ltpFR	13	n/a	n/a	n/a	n/a	n/a	n/a	18	8	7	3	n/a	n/a	n/a	n/a	n/a
1168.44	n/a	PROB	584220	n/a	LTP137	ltpFR	13	n/a	n/a	n/a	n/a	n/a	n/a	11	5	1	5	n/a	n/a	n/a	n/a	n/a
1169.546	n/a	PROB	584773	n/a	LTP137	ltpFR	13	n/a	n/a	n/a	n/a	n/a	n/a	15	1	5	9	n/a	n/a	n/a	n/a	n/a
1171.064	n/a	STOP	585532	n/a	LTP137	ltpFR	13	n/a	n/a	n/a	n/a	n/a	n/a	n/a	n/a	n/a	n/a	n/a	n/a	n/a	n/a	n/a
1172.454	n/a	WORD	586227	wordpools/wasnorm_wordpool.txt	LTP137	ltpFR	13	4	1	FATHER	554	n/a	1	n/a	0	0	0	0	0.5869140625	0.422607421875	lower	../fonts/zerothre.ttf
1175.462	n/a	START	587731	n/a	LTP137	ltpFR	13	n/a	n/a	n/a	n/a	n/a	n/a	n/a	n/a	n/a	n/a	n/a	n/a	n/a	n/a	n/a
1176.628	n/a	PROB	588314	n/a	LTP137	ltpFR	13	n/a	n/a	n/a	n/a	n/a	n/a	15	6	7	2	n/a	n/a	n/a	n/a	n/a
1178.676	n/a	PROB	589338	n/a	LTP137	ltpFR	13	n/a	n/a	n/a	n/a	n/a	n/a	16	2	8	6	n/a	n/a	n/a	n/a	n/a
1180.01	n/a	PROB	590005	n/a	LTP137	ltpFR	13	n/a	n/a	n/a	n/a	n/a	n/a	12	3	7	2	n/a	n/a	n/a	n/a	n/a
1181.36	n/a	PROB	590680	n/a	LTP137	ltpFR	13	n/a	n/a	n/a	n/a	n/a	n/a	17	2	7	8	n/a	n/a	n/a	n/a	n/a
1183.508	n/a	PROB	591754	n/a	LTP137	ltpFR	13	n/a	n/a	n/a	n/a	n/a	n/a	13	5	1	7	n/a	n/a	n/a	n/a	n/a
1185.584	n/a	PROB	592792	n/a	LTP137	ltpFR	13	n/a	n/a	n/a	n/a	n/a	n/a	17	1	7	9	n/a	n/a	n/a	n/a	n/a
1187.492	n/a	PROB	593746	n/a	LTP137	ltpFR	13	n/a	n/a	n/a	n/a	n/a	n/a	26	9	9	8	n/a	n/a	n/a	n/a	n/a
1190.282	n/a	STOP	595141	n/a	LTP137	ltpFR	13	n/a	n/a	n/a	n/a	n/a	n/a	n/a	n/a	n/a	n/a	n/a	n/a	n/a	n/a	n/a
1192.44	n/a	WORD	596220	wordpools/wasnorm_wordpool.txt	LTP137	ltpFR	13	4	0	DAUGHTER	442	n/a	1	n/a	0	0	0	1	0.412841796875	0.57763671875	upper	../fonts/amplitud.ttf
1195.448	n/a	START	597724	n/a	LTP137	ltpFR	13	n/a	n/a	n/a	n/a	n/a	n/a	n/a	n/a	n/a	n/a	n/a	n/a	n/a	n/a	n/a
1196.622	n/a	PROB	598311	n/a	LTP137	ltpFR	13	n/a	n/a	n/a	n/a	n/a	n/a	13	1	9	3	n/a	n/a	n/a	n/a	n/a
1198.038	n/a	PROB	599019	n/a	LTP137	ltpFR	13	n/a	n/a	n/a	n/a	n/a	n/a	23	8	8	7	n/a	n/a	n/a	n/a	n/a
1200.946	n/a	PROB	600473	n/a	LTP137	ltpFR	13	n/a	n/a	n/a	n/a	n/a	n/a	12	3	5	4	n/a	n/a	n/a	n/a	n/a
1203.212	n/a	PROB	601606	n/a	LTP137	ltpFR	13	n/a	n/a	n/a	n/a	n/a	n/a	15	8	6	1	n/a	n/a	n/a	n/a	n/a
1205.17	n/a	PROB	602585	n/a	LTP137	ltpFR	13	n/a	n/a	n/a	n/a	n/a	n/a	18	9	8	1	n/a	n/a	n/a	n/a	n/a
1207.368	n/a	PROB	603684	n/a	LTP137	ltpFR	13	n/a	n/a	n/a	n/a	n/a	n/a	15	5	7	3	n/a	n/a	n/a	n/a	n/a
1208.81	n/a	PROB	604405	n/a	LTP137	ltpFR	13	n/a	n/a	n/a	n/a	n/a	n/a	14	1	4	9	n/a	n/a	n/a	n/a	n/a
1210.274	n/a	STOP	605137	n/a	LTP137	ltpFR	13	n/a	n/a	n/a	n/a	n/a	n/a	n/a	n/a	n/a	n/a	n/a	n/a	n/a	n/a	n/a
1212.518	n/a	WORD	606259	wordpools/wasnorm_wordpool.txt	LTP137	ltpFR	13	4	0	TECHNICIAN	1443	n/a	1	n/a	0	0	0	1	0.412841796875	0.57763671875	upper	../fonts/amplitud.ttf
1215.524	n/a	START	607762	n/a	LTP137	ltpFR	13	n/a	n/a	n/a	n/a	n/a	n/a	n/a	n/a	n/a	n/a	n/a	n/a	n/a	n/a	n/a
1216.424	n/a	PROB	608212	n/a	LTP137	ltpFR	13	n/a	n/a	n/a	n/a	n/a	n/a	18	4	9	5	n/a	n/a	n/a	n/a	n/a
1218.914	n/a	PROB	609457	n/a	LTP137	ltpFR	13	n/a	n/a	n/a	n/a	n/a	n/a	9	1	1	7	n/a	n/a	n/a	n/a	n/a
1220.43	n/a	PROB	610215	n/a	LTP137	ltpFR	13	n/a	n/a	n/a	n/a	n/a	n/a	9	2	2	5	n/a	n/a	n/a	n/a	n/a
1222.048	n/a	PROB	611024	n/a	LTP137	ltpFR	13	n/a	n/a	n/a	n/a	n/a	n/a	21	4	8	9	n/a	n/a	n/a	n/a	n/a
1226.604	n/a	PROB	613302	n/a	LTP137	ltpFR	13	n/a	n/a	n/a	n/a	n/a	n/a	10	3	1	6	n/a	n/a	n/a	n/a	n/a
1227.862	n/a	PROB	613931	n/a	LTP137	ltpFR	13	n/a	n/a	n/a	n/a	n/a	n/a	3	1	1	1	n/a	n/a	n/a	n/a	n/a
1229.204	n/a	PROB	614602	n/a	LTP137	ltpFR	13	n/a	n/a	n/a	n/a	n/a	n/a	4	1	1	2	n/a	n/a	n/a	n/a	n/a
1230.548	n/a	STOP	615274	n/a	LTP137	ltpFR	13	n/a	n/a	n/a	n/a	n/a	n/a	n/a	n/a	n/a	n/a	n/a	n/a	n/a	n/a	n/a
1232.62	n/a	WORD	616310	wordpools/wasnorm_wordpool.txt	LTP137	ltpFR	13	4	0	SALESMAN	1225	n/a	1	n/a	0	0	0	1	0.412841796875	0.57763671875	upper	../fonts/amplitud.ttf
1235.626	n/a	START	617813	n/a	LTP137	ltpFR	13	n/a	n/a	n/a	n/a	n/a	n/a	n/a	n/a	n/a	n/a	n/a	n/a	n/a	n/a	n/a
1236.708	n/a	PROB	618354	n/a	LTP137	ltpFR	13	n/a	n/a	n/a	n/a	n/a	n/a	14	5	8	1	n/a	n/a	n/a	n/a	n/a
1238.682	n/a	PROB	619341	n/a	LTP137	ltpFR	13	n/a	n/a	n/a	n/a	n/a	n/a	15	6	4	5	n/a	n/a	n/a	n/a	n/a
1240.368	n/a	PROB	620184	n/a	LTP137	ltpFR	13	n/a	n/a	n/a	n/a	n/a	n/a	14	9	2	3	n/a	n/a	n/a	n/a	n/a
1241.942	n/a	PROB	620971	n/a	LTP137	ltpFR	13	n/a	n/a	n/a	n/a	n/a	n/a	24	8	7	9	n/a	n/a	n/a	n/a	n/a
1244.466	n/a	PROB	622233	n/a	LTP137	ltpFR	13	n/a	n/a	n/a	n/a	n/a	n/a	11	1	3	7	n/a	n/a	n/a	n/a	n/a
1245.722	n/a	PROB	622861	n/a	LTP137	ltpFR	13	n/a	n/a	n/a	n/a	n/a	n/a	13	6	3	4	n/a	n/a	n/a	n/a	n/a
1247.84	n/a	PROB	623920	n/a	LTP137	ltpFR	13	n/a	n/a	n/a	n/a	n/a	n/a	12	2	9	1	n/a	n/a	n/a	n/a	n/a
1249.198	n/a	PROB	624599	n/a	LTP137	ltpFR	13	n/a	n/a	n/a	n/a	n/a	n/a	14	9	2	3	n/a	n/a	n/a	n/a	n/a
1251.388	n/a	STOP	625694	n/a	LTP137	ltpFR	13	n/a	n/a	n/a	n/a	n/a	n/a	n/a	n/a	n/a	n/a	n/a	n/a	n/a	n/a	n/a
1252.728	n/a	WORD	626364	wordpools/wasnorm_wordpool.txt	LTP137	ltpFR	13	4	0	GUN	673	n/a	0	n/a	0	0	0	1	0.412841796875	0.57763671875	upper	../fonts/amplitud.ttf
1255.736	n/a	START	627868	n/a	LTP137	ltpFR	13	n/a	n/a	n/a	n/a	n/a	n/a	n/a	n/a	n/a	n/a	n/a	n/a	n/a	n/a	n/a
1256.862	n/a	PROB	628431	n/a	LTP137	ltpFR	13	n/a	n/a	n/a	n/a	n/a	n/a	12	7	4	1	n/a	n/a	n/a	n/a	n/a
1258.312	n/a	PROB	629156	n/a	LTP137	ltpFR	13	n/a	n/a	n/a	n/a	n/a	n/a	13	8	4	1	n/a	n/a	n/a	n/a	n/a
1259.836	n/a	PROB	629918	n/a	LTP137	ltpFR	13	n/a	n/a	n/a	n/a	n/a	n/a	7	1	4	2	n/a	n/a	n/a	n/a	n/a
1261.886	n/a	PROB	630943	n/a	LTP137	ltpFR	13	n/a	n/a	n/a	n/a	n/a	n/a	14	5	3	6	n/a	n/a	n/a	n/a	n/a
1263.684	n/a	PROB	631842	n/a	LTP137	ltpFR	13	n/a	n/a	n/a	n/a	n/a	n/a	14	4	3	7	n/a	n/a	n/a	n/a	n/a
1265.468	n/a	PROB	632734	n/a	LTP137	ltpFR	13	n/a	n/a	n/a	n/a	n/a	n/a	19	5	8	6	n/a	n/a	n/a	n/a	n/a
1267.724	n/a	PROB	633862	n/a	LTP137	ltpFR	13	n/a	n/a	n/a	n/a	n/a	n/a	12	6	5	1	n/a	n/a	n/a	n/a	n/a
1269.124	n/a	PROB	634562	n/a	LTP137	ltpFR	13	n/a	n/a	n/a	n/a	n/a	n/a	10	3	5	2	n/a	n/a	n/a	n/a	n/a
1270.99	n/a	STOP	635495	n/a	LTP137	ltpFR	13	n/a	n/a	n/a	n/a	n/a	n/a	n/a	n/a	n/a	n/a	n/a	n/a	n/a	n/a	n/a
1273.54	n/a	REC_START	636770	n/a	LTP137	ltpFR	13	4	n/a	n/a	n/a	n/a	n/a	n/a	0	0	0	n/a	n/a	n/a	n/a	n/a
1275.202	n/a	REC_WORD_VV	637601	wordpools/wasnorm_wordpool.txt	LTP137	ltpFR	13	4	n/a	<>	-1	n/a	n/a	n/a	0	0	0	n/a	n/a	n/a	n/a	n/a
1275.676	n/a	REC_WORD	637838	wordpools/wasnorm_wordpool.txt	LTP137	ltpFR	13	4	0	TECHNICIAN	1443	n/a	1	n/a	0	0	0	n/a	n/a	n/a	n/a	n/a
1278.73	n/a	REC_WORD	639365	wordpools/wasnorm_wordpool.txt	LTP137	ltpFR	13	4	0	TECHNICIAN	1443	n/a	1	n/a	0	0	0	n/a	n/a	n/a	n/a	n/a
1279.572	n/a	REC_WORD	639786	wordpools/wasnorm_wordpool.txt	LTP137	ltpFR	13	4	0	SALESMAN	1225	n/a	1	n/a	0	0	0	n/a	n/a	n/a	n/a	n/a
1281.114	n/a	REC_WORD	640557	wordpools/wasnorm_wordpool.txt	LTP137	ltpFR	13	4	1	BULLET	194	n/a	0	n/a	0	0	0	n/a	n/a	n/a	n/a	n/a
1281.992	n/a	REC_WORD	640996	wordpools/wasnorm_wordpool.txt	LTP137	ltpFR	13	4	0	GUN	673	n/a	0	n/a	0	0	0	n/a	n/a	n/a	n/a	n/a
1283.468	n/a	REC_WORD	641734	wordpools/wasnorm_wordpool.txt	LTP137	ltpFR	13	4	1	FATHER	554	n/a	1	n/a	0	0	0	n/a	n/a	n/a	n/a	n/a
1284.382	n/a	REC_WORD	642191	wordpools/wasnorm_wordpool.txt	LTP137	ltpFR	13	4	0	DAUGHTER	442	n/a	1	n/a	0	0	0	n/a	n/a	n/a	n/a	n/a
1286.148	n/a	REC_WORD	643074	wordpools/wasnorm_wordpool.txt	LTP137	ltpFR	13	4	1	COBBLER	335	n/a	0	n/a	0	0	0	n/a	n/a	n/a	n/a	n/a
1287.16	n/a	REC_WORD	643580	wordpools/wasnorm_wordpool.txt	LTP137	ltpFR	13	4	1	PIE	1062	n/a	0	n/a	0	0	0	n/a	n/a	n/a	n/a	n/a
1288.044	n/a	REC_WORD	644022	wordpools/wasnorm_wordpool.txt	LTP137	ltpFR	13	4	1	POET	1095	n/a	1	n/a	0	0	0	n/a	n/a	n/a	n/a	n/a
1292.978	n/a	REC_WORD	646489	wordpools/wasnorm_wordpool.txt	LTP137	ltpFR	13	4	1	UNDERWEAR	1537	n/a	0	n/a	0	0	0	n/a	n/a	n/a	n/a	n/a
1300.65	n/a	REC_WORD	650325	wordpools/wasnorm_wordpool.txt	LTP137	ltpFR	13	4	1	ELK	526	n/a	1	n/a	0	0	0	n/a	n/a	n/a	n/a	n/a
1304.94	n/a	REC_WORD	652470	wordpools/wasnorm_wordpool.txt	LTP137	ltpFR	13	4	0	DRIVEWAY	500	n/a	1	n/a	0	0	0	n/a	n/a	n/a	n/a	n/a
1310.762	n/a	REC_WORD	655381	wordpools/wasnorm_wordpool.txt	LTP137	ltpFR	13	4	0	JOKER	759	n/a	1	n/a	0	0	0	n/a	n/a	n/a	n/a	n/a
1334.616	n/a	REC_WORD	667308	wordpools/wasnorm_wordpool.txt	LTP137	ltpFR	13	4	1	FACE	547	n/a	0	n/a	0	0	0	n/a	n/a	n/a	n/a	n/a
1399.952	n/a	START	699976	n/a	LTP137	ltpFR	13	n/a	n/a	n/a	n/a	n/a	n/a	n/a	n/a	n/a	n/a	n/a	n/a	n/a	n/a	n/a
1401.46	n/a	PROB	700730	n/a	LTP137	ltpFR	13	n/a	n/a	n/a	n/a	n/a	n/a	19	6	9	4	n/a	n/a	n/a	n/a	n/a
1403.16	n/a	PROB	701580	n/a	LTP137	ltpFR	13	n/a	n/a	n/a	n/a	n/a	n/a	15	3	4	8	n/a	n/a	n/a	n/a	n/a
1405.166	n/a	PROB	702583	n/a	LTP137	ltpFR	13	n/a	n/a	n/a	n/a	n/a	n/a	17	4	4	9	n/a	n/a	n/a	n/a	n/a
1406.836	n/a	STOP	703418	n/a	LTP137	ltpFR	13	n/a	n/a	n/a	n/a	n/a	n/a	n/a	n/a	n/a	n/a	n/a	n/a	n/a	n/a	n/a
1408.998	n/a	WORD	704499	wordpools/wasnorm_wordpool.txt	LTP137	ltpFR	13	5	0	MINER	896	n/a	1	n/a	0	0	0	1	0.412841796875	0.57763671875	upper	../fonts/amplitud.ttf
1412.008	n/a	START	706004	n/a	LTP137	ltpFR	13	n/a	n/a	n/a	n/a	n/a	n/a	n/a	n/a	n/a	n/a	n/a	n/a	n/a	n/a	n/a
1412.824	n/a	PROB	706412	n/a	LTP137	ltpFR	13	n/a	n/a	n/a	n/a	n/a	n/a	16	5	3	8	n/a	n/a	n/a	n/a	n/a
1420.008	n/a	STOP	710004	n/a	LTP137	ltpFR	13	n/a	n/a	n/a	n/a	n/a	n/a	n/a	n/a	n/a	n/a	n/a	n/a	n/a	n/a	n/a
1420.954	n/a	WORD	710477	wordpools/wasnorm_wordpool.txt	LTP137	ltpFR	13	5	0	LUGGAGE	847	n/a	1	n/a	0	0	0	1	0.412841796875	0.57763671875	upper	../fonts/amplitud.ttf
1423.962	n/a	START	711981	n/a	LTP137	ltpFR	13	n/a	n/a	n/a	n/a	n/a	n/a	n/a	n/a	n/a	n/a	n/a	n/a	n/a	n/a	n/a
1425.128	n/a	PROB	712564	n/a	LTP137	ltpFR	13	n/a	n/a	n/a	n/a	n/a	n/a	14	4	5	5	n/a	n/a	n/a	n/a	n/a
1426.368	n/a	PROB	713184	n/a	LTP137	ltpFR	13	n/a	n/a	n/a	n/a	n/a	n/a	20	7	4	9	n/a	n/a	n/a	n/a	n/a
1428.57	n/a	PROB	714285	n/a	LTP137	ltpFR	13	n/a	n/a	n/a	n/a	n/a	n/a	17	9	3	5	n/a	n/a	n/a	n/a	n/a
1430.194	n/a	PROB	715097	n/a	LTP137	ltpFR	13	n/a	n/a	n/a	n/a	n/a	n/a	19	8	3	8	n/a	n/a	n/a	n/a	n/a
1431.87	n/a	STOP	715935	n/a	LTP137	ltpFR	13	n/a	n/a	n/a	n/a	n/a	n/a	n/a	n/a	n/a	n/a	n/a	n/a	n/a	n/a	n/a
1433.16	n/a	WORD	716580	wordpools/wasnorm_wordpool.txt	LTP137	ltpFR	13	5	0	DIVER	476	n/a	1	n/a	0	0	0	1	0.412841796875	0.57763671875	upper	../fonts/amplitud.ttf
1436.166	n/a	START	718083	n/a	LTP137	ltpFR	13	n/a	n/a	n/a	n/a	n/a	n/a	n/a	n/a	n/a	n/a	n/a	n/a	n/a	n/a	n/a
1437.19	n/a	PROB	718595	n/a	LTP137	ltpFR	13	n/a	n/a	n/a	n/a	n/a	n/a	14	7	2	5	n/a	n/a	n/a	n/a	n/a
1439.44	n/a	PROB	719720	n/a	LTP137	ltpFR	13	n/a	n/a	n/a	n/a	n/a	n/a	17	6	8	3	n/a	n/a	n/a	n/a	n/a
1441.93	n/a	PROB	720965	n/a	LTP137	ltpFR	13	n/a	n/a	n/a	n/a	n/a	n/a	9	1	1	7	n/a	n/a	n/a	n/a	n/a
1443.23	n/a	STOP	721615	n/a	LTP137	ltpFR	13	n/a	n/a	n/a	n/a	n/a	n/a	n/a	n/a	n/a	n/a	n/a	n/a	n/a	n/a	n/a
1445.354	n/a	WORD	722677	wordpools/wasnorm_wordpool.txt	LTP137	ltpFR	13	5	1	DISHWASHER	475	n/a	0	n/a	0	0	0	0	0.5869140625	0.422607421875	lower	../fonts/zerothre.ttf
1448.364	n/a	START	724182	n/a	LTP137	ltpFR	13	n/a	n/a	n/a	n/a	n/a	n/a	n/a	n/a	n/a	n/a	n/a	n/a	n/a	n/a	n/a
1449.546	n/a	PROB	724773	n/a	LTP137	ltpFR	13	n/a	n/a	n/a	n/a	n/a	n/a	11	3	2	6	n/a	n/a	n/a	n/a	n/a
1451.562	n/a	PROB	725781	n/a	LTP137	ltpFR	13	n/a	n/a	n/a	n/a	n/a	n/a	9	2	2	5	n/a	n/a	n/a	n/a	n/a
1452.928	n/a	PROB	726464	n/a	LTP137	ltpFR	13	n/a	n/a	n/a	n/a	n/a	n/a	10	3	2	5	n/a	n/a	n/a	n/a	n/a
1454.57	n/a	PROB	727285	n/a	LTP137	ltpFR	13	n/a	n/a	n/a	n/a	n/a	n/a	16	2	7	7	n/a	n/a	n/a	n/a	n/a
1456.08	n/a	STOP	728040	n/a	LTP137	ltpFR	13	n/a	n/a	n/a	n/a	n/a	n/a	n/a	n/a	n/a	n/a	n/a	n/a	n/a	n/a	n/a
1457.252	n/a	WORD	728626	wordpools/wasnorm_wordpool.txt	LTP137	ltpFR	13	5	1	CRATER	400	n/a	0	n/a	0	0	0	0	0.5869140625	0.422607421875	lower	../fonts/zerothre.ttf
1460.26	n/a	START	730130	n/a	LTP137	ltpFR	13	n/a	n/a	n/a	n/a	n/a	n/a	n/a	n/a	n/a	n/a	n/a	n/a	n/a	n/a	n/a
1461.324	n/a	PROB	730662	n/a	LTP137	ltpFR	13	n/a	n/a	n/a	n/a	n/a	n/a	21	8	8	5	n/a	n/a	n/a	n/a	n/a
1464.024	n/a	PROB	732012	n/a	LTP137	ltpFR	13	n/a	n/a	n/a	n/a	n/a	n/a	18	7	7	4	n/a	n/a	n/a	n/a	n/a
1465.766	n/a	PROB	732883	n/a	LTP137	ltpFR	13	n/a	n/a	n/a	n/a	n/a	n/a	10	7	1	2	n/a	n/a	n/a	n/a	n/a
1466.952	n/a	STOP	733476	n/a	LTP137	ltpFR	13	n/a	n/a	n/a	n/a	n/a	n/a	n/a	n/a	n/a	n/a	n/a	n/a	n/a	n/a	n/a
1469.314	n/a	WORD	734657	wordpools/wasnorm_wordpool.txt	LTP137	ltpFR	13	5	0	ASTRONAUT	51	n/a	1	n/a	0	0	0	1	0.412841796875	0.57763671875	upper	../fonts/amplitud.ttf
1472.322	n/a	START	736161	n/a	LTP137	ltpFR	13	n/a	n/a	n/a	n/a	n/a	n/a	n/a	n/a	n/a	n/a	n/a	n/a	n/a	n/a	n/a
1473.256	n/a	PROB	736628	n/a	LTP137	ltpFR	13	n/a	n/a	n/a	n/a	n/a	n/a	14	3	8	3	n/a	n/a	n/a	n/a	n/a
1474.838	n/a	PROB	737419	n/a	LTP137	ltpFR	13	n/a	n/a	n/a	n/a	n/a	n/a	16	5	3	8	n/a	n/a	n/a	n/a	n/a
1476.988	n/a	PROB	738494	n/a	LTP137	ltpFR	13	n/a	n/a	n/a	n/a	n/a	n/a	12	4	3	5	n/a	n/a	n/a	n/a	n/a
1478.644	n/a	PROB	739322	n/a	LTP137	ltpFR	13	n/a	n/a	n/a	n/a	n/a	n/a	16	7	1	8	n/a	n/a	n/a	n/a	n/a
1479.952	n/a	STOP	739976	n/a	LTP137	ltpFR	13	n/a	n/a	n/a	n/a	n/a	n/a	n/a	n/a	n/a	n/a	n/a	n/a	n/a	n/a	n/a
1481.268	n/a	WORD	740634	wordpools/wasnorm_wordpool.txt	LTP137	ltpFR	13	5	0	PALACE	1006	n/a	1	n/a	0	0	0	1	0.412841796875	0.57763671875	upper	../fonts/amplitud.ttf
1484.276	n/a	START	742138	n/a	LTP137	ltpFR	13	n/a	n/a	n/a	n/a	n/a	n/a	n/a	n/a	n/a	n/a	n/a	n/a	n/a	n/a	n/a
1485.218	n/a	PROB	742609	n/a	LTP137	ltpFR	13	n/a	n/a	n/a	n/a	n/a	n/a	15	8	5	2	n/a	n/a	n/a	n/a	n/a
1486.926	n/a	PROB	743463	n/a	LTP137	ltpFR	13	n/a	n/a	n/a	n/a	n/a	n/a	19	8	8	3	n/a	n/a	n/a	n/a	n/a
1488.658	n/a	PROB	744329	n/a	LTP137	ltpFR	13	n/a	n/a	n/a	n/a	n/a	n/a	12	7	4	1	n/a	n/a	n/a	n/a	n/a
1492.278	n/a	STOP	746139	n/a	LTP137	ltpFR	13	n/a	n/a	n/a	n/a	n/a	n/a	n/a	n/a	n/a	n/a	n/a	n/a	n/a	n/a	n/a
1493.258	n/a	WORD	746629	wordpools/wasnorm_wordpool.txt	LTP137	ltpFR	13	5	0	BRICK	172	n/a	0	n/a	0	0	0	1	0.412841796875	0.57763671875	upper	../fonts/amplitud.ttf
1496.266	n/a	START	748133	n/a	LTP137	ltpFR	13	n/a	n/a	n/a	n/a	n/a	n/a	n/a	n/a	n/a	n/a	n/a	n/a	n/a	n/a	n/a
1497.414	n/a	PROB	748707	n/a	LTP137	ltpFR	13	n/a	n/a	n/a	n/a	n/a	n/a	18	7	4	7	n/a	n/a	n/a	n/a	n/a
1498.964	n/a	PROB	749482	n/a	LTP137	ltpFR	13	n/a	n/a	n/a	n/a	n/a	n/a	19	1	9	9	n/a	n/a	n/a	n/a	n/a
1500.554	n/a	PROB	750277	n/a	LTP137	ltpFR	13	n/a	n/a	n/a	n/a	n/a	n/a	6	3	2	1	n/a	n/a	n/a	n/a	n/a
1502.096	n/a	PROB	751048	n/a	LTP137	ltpFR	13	n/a	n/a	n/a	n/a	n/a	n/a	18	6	7	5	n/a	n/a	n/a	n/a	n/a
1504.21	n/a	STOP	752105	n/a	LTP137	ltpFR	13	n/a	n/a	n/a	n/a	n/a	n/a	n/a	n/a	n/a	n/a	n/a	n/a	n/a	n/a	n/a
1505.104	n/a	WORD	752552	wordpools/wasnorm_wordpool.txt	LTP137	ltpFR	13	5	0	ABDOMEN	1	n/a	0	n/a	0	0	0	1	0.412841796875	0.57763671875	upper	../fonts/amplitud.ttf
1508.112	n/a	START	754056	n/a	LTP137	ltpFR	13	n/a	n/a	n/a	n/a	n/a	n/a	n/a	n/a	n/a	n/a	n/a	n/a	n/a	n/a	n/a
1509.144	n/a	PROB	754572	n/a	LTP137	ltpFR	13	n/a	n/a	n/a	n/a	n/a	n/a	19	8	8	3	n/a	n/a	n/a	n/a	n/a
1511.176	n/a	PROB	755588	n/a	LTP137	ltpFR	13	n/a	n/a	n/a	n/a	n/a	n/a	15	9	1	5	n/a	n/a	n/a	n/a	n/a
1515.162	n/a	STOP	757581	n/a	LTP137	ltpFR	13	n/a	n/a	n/a	n/a	n/a	n/a	n/a	n/a	n/a	n/a	n/a	n/a	n/a	n/a	n/a
1517.316	n/a	WORD	758658	wordpools/wasnorm_wordpool.txt	LTP137	ltpFR	13	5	0	ULCER	1533	n/a	0	n/a	0	0	0	1	0.412841796875	0.57763671875	upper	../fonts/amplitud.ttf
1520.324	n/a	START	760162	n/a	LTP137	ltpFR	13	n/a	n/a	n/a	n/a	n/a	n/a	n/a	n/a	n/a	n/a	n/a	n/a	n/a	n/a	n/a
1521.39	n/a	PROB	760695	n/a	LTP137	ltpFR	13	n/a	n/a	n/a	n/a	n/a	n/a	4	1	1	2	n/a	n/a	n/a	n/a	n/a
1522.79	n/a	PROB	761395	n/a	LTP137	ltpFR	13	n/a	n/a	n/a	n/a	n/a	n/a	21	7	6	8	n/a	n/a	n/a	n/a	n/a
1528.326	n/a	STOP	764163	n/a	LTP137	ltpFR	13	n/a	n/a	n/a	n/a	n/a	n/a	n/a	n/a	n/a	n/a	n/a	n/a	n/a	n/a	n/a
1529.338	n/a	WORD	764669	wordpools/wasnorm_wordpool.txt	LTP137	ltpFR	13	5	1	CAPE	237	n/a	0	n/a	0	0	0	0	0.5869140625	0.422607421875	lower	../fonts/zerothre.ttf
1532.346	n/a	START	766173	n/a	LTP137	ltpFR	13	n/a	n/a	n/a	n/a	n/a	n/a	n/a	n/a	n/a	n/a	n/a	n/a	n/a	n/a	n/a
1533.32	n/a	PROB	766660	n/a	LTP137	ltpFR	13	n/a	n/a	n/a	n/a	n/a	n/a	14	5	1	8	n/a	n/a	n/a	n/a	n/a
1535.22	n/a	PROB	767610	n/a	LTP137	ltpFR	13	n/a	n/a	n/a	n/a	n/a	n/a	7	2	1	4	n/a	n/a	n/a	n/a	n/a
1536.478	n/a	PROB	768239	n/a	LTP137	ltpFR	13	n/a	n/a	n/a	n/a	n/a	n/a	18	4	6	8	n/a	n/a	n/a	n/a	n/a
1540.346	n/a	STOP	770173	n/a	LTP137	ltpFR	13	n/a	n/a	n/a	n/a	n/a	n/a	n/a	n/a	n/a	n/a	n/a	n/a	n/a	n/a	n/a
1541.234	n/a	WORD	770617	wordpools/wasnorm_wordpool.txt	LTP137	ltpFR	13	5	1	DOLPHIN	483	n/a	1	n/a	0	0	0	0	0.5869140625	0.422607421875	lower	../fonts/zerothre.ttf
1544.242	n/a	START	772121	n/a	LTP137	ltpFR	13	n/a	n/a	n/a	n/a	n/a	n/a	n/a	n/a	n/a	n/a	n/a	n/a	n/a	n/a	n/a
1545.092	n/a	PROB	772546	n/a	LTP137	ltpFR	13	n/a	n/a	n/a	n/a	n/a	n/a	21	6	9	6	n/a	n/a	n/a	n/a	n/a
1547.682	n/a	PROB	773841	n/a	LTP137	ltpFR	13	n/a	n/a	n/a	n/a	n/a	n/a	15	4	7	4	n/a	n/a	n/a	n/a	n/a
1549.198	n/a	PROB	774599	n/a	LTP137	ltpFR	13	n/a	n/a	n/a	n/a	n/a	n/a	11	1	9	1	n/a	n/a	n/a	n/a	n/a
1552.242	n/a	STOP	776121	n/a	LTP137	ltpFR	13	n/a	n/a	n/a	n/a	n/a	n/a	n/a	n/a	n/a	n/a	n/a	n/a	n/a	n/a	n/a
1553.356	n/a	WORD	776678	wordpools/wasnorm_wordpool.txt	LTP137	ltpFR	13	5	1	BRACELET	163	n/a	0	n/a	0	0	0	0	0.5869140625	0.422607421875	lower	../fonts/zerothre.ttf
1556.364	n/a	START	778182	n/a	LTP137	ltpFR	13	n/a	n/a	n/a	n/a	n/a	n/a	n/a	n/a	n/a	n/a	n/a	n/a	n/a	n/a	n/a
1557.33	n/a	PROB	778665	n/a	LTP137	ltpFR	13	n/a	n/a	n/a	n/a	n/a	n/a	10	3	6	1	n/a	n/a	n/a	n/a	n/a
1558.67	n/a	PROB	779335	n/a	LTP137	ltpFR	13	n/a	n/a	n/a	n/a	n/a	n/a	17	9	5	3	n/a	n/a	n/a	n/a	n/a
1560.454	n/a	PROB	780227	n/a	LTP137	ltpFR	13	n/a	n/a	n/a	n/a	n/a	n/a	12	8	1	3	n/a	n/a	n/a	n/a	n/a
1561.778	n/a	PROB	780889	n/a	LTP137	ltpFR	13	n/a	n/a	n/a	n/a	n/a	n/a	10	2	4	4	n/a	n/a	n/a	n/a	n/a
1563.454	n/a	STOP	781727	n/a	LTP137	ltpFR	13	n/a	n/a	n/a	n/a	n/a	n/a	n/a	n/a	n/a	n/a	n/a	n/a	n/a	n/a	n/a
1565.444	n/a	WORD	782722	wordpools/wasnorm_wordpool.txt	LTP137	ltpFR	13	5	1	CROWN	415	n/a	0	n/a	0	0	0	0	0.5869140625	0.422607421875	lower	../fonts/zerothre.ttf
1568.452	n/a	START	784226	n/a	LTP137	ltpFR	13	n/a	n/a	n/a	n/a	n/a	n/a	n/a	n/a	n/a	n/a	n/a	n/a	n/a	n/a	n/a
1569.55	n/a	PROB	784775	n/a	LTP137	ltpFR	13	n/a	n/a	n/a	n/a	n/a	n/a	23	6	9	8	n/a	n/a	n/a	n/a	n/a
1572.184	n/a	PROB	786092	n/a	LTP137	ltpFR	13	n/a	n/a	n/a	n/a	n/a	n/a	19	3	8	8	n/a	n/a	n/a	n/a	n/a
1573.706	n/a	PROB	786853	n/a	LTP137	ltpFR	13	n/a	n/a	n/a	n/a	n/a	n/a	23	6	8	9	n/a	n/a	n/a	n/a	n/a
1576.078	n/a	STOP	788039	n/a	LTP137	ltpFR	13	n/a	n/a	n/a	n/a	n/a	n/a	n/a	n/a	n/a	n/a	n/a	n/a	n/a	n/a	n/a
1577.264	n/a	WORD	788632	wordpools/wasnorm_wordpool.txt	LTP137	ltpFR	13	5	1	APE	31	n/a	1	n/a	0	0	0	0	0.5869140625	0.422607421875	lower	../fonts/zerothre.ttf
1580.274	n/a	START	790137	n/a	LTP137	ltpFR	13	n/a	n/a	n/a	n/a	n/a	n/a	n/a	n/a	n/a	n/a	n/a	n/a	n/a	n/a	n/a
1581.34	n/a	PROB	790670	n/a	LTP137	ltpFR	13	n/a	n/a	n/a	n/a	n/a	n/a	19	8	7	4	n/a	n/a	n/a	n/a	n/a
1583.28	n/a	PROB	791640	n/a	LTP137	ltpFR	13	n/a	n/a	n/a	n/a	n/a	n/a	16	9	6	1	n/a	n/a	n/a	n/a	n/a
1584.838	n/a	PROB	792419	n/a	LTP137	ltpFR	13	n/a	n/a	n/a	n/a	n/a	n/a	16	9	2	5	n/a	n/a	n/a	n/a	n/a
1587.262	n/a	STOP	793631	n/a	LTP137	ltpFR	13	n/a	n/a	n/a	n/a	n/a	n/a	n/a	n/a	n/a	n/a	n/a	n/a	n/a	n/a	n/a
1589.47	n/a	WORD	794735	wordpools/wasnorm_wordpool.txt	LTP137	ltpFR	13	5	1	BOULDER	155	n/a	0	n/a	0	0	0	0	0.5869140625	0.422607421875	lower	../fonts/zerothre.ttf
1592.478	n/a	START	796239	n/a	LTP137	ltpFR	13	n/a	n/a	n/a	n/a	n/a	n/a	n/a	n/a	n/a	n/a	n/a	n/a	n/a	n/a	n/a
1593.61	n/a	PROB	796805	n/a	LTP137	ltpFR	13	n/a	n/a	n/a	n/a	n/a	n/a	27	9	9	9	n/a	n/a	n/a	n/a	n/a
1596.134	n/a	PROB	798067	n/a	LTP137	ltpFR	13	n/a	n/a	n/a	n/a	n/a	n/a	8	2	2	4	n/a	n/a	n/a	n/a	n/a
1598.026	n/a	PROB	799013	n/a	LTP137	ltpFR	13	n/a	n/a	n/a	n/a	n/a	n/a	17	6	4	7	n/a	n/a	n/a	n/a	n/a
1599.632	n/a	STOP	799816	n/a	LTP137	ltpFR	13	n/a	n/a	n/a	n/a	n/a	n/a	n/a	n/a	n/a	n/a	n/a	n/a	n/a	n/a	n/a
1602.384	n/a	REC_START	801192	n/a	LTP137	ltpFR	13	5	n/a	n/a	n/a	n/a	n/a	n/a	0	0	0	n/a	n/a	n/a	n/a	n/a
1605.092	n/a	REC_WORD	802546	wordpools/wasnorm_wordpool.txt	LTP137	ltpFR	13	5	0	MINER	896	n/a	1	n/a	0	0	0	n/a	n/a	n/a	n/a	n/a
1607.502	n/a	REC_WORD	803751	wordpools/wasnorm_wordpool.txt	LTP137	ltpFR	13	5	0	DIVER	476	n/a	1	n/a	0	0	0	n/a	n/a	n/a	n/a	n/a
1608.634	n/a	REC_WORD	804317	wordpools/wasnorm_wordpool.txt	LTP137	ltpFR	13	5	0	ABDOMEN	1	n/a	0	n/a	0	0	0	n/a	n/a	n/a	n/a	n/a
1609.572	n/a	REC_WORD	804786	wordpools/wasnorm_wordpool.txt	LTP137	ltpFR	13	5	0	ULCER	1533	n/a	0	n/a	0	0	0	n/a	n/a	n/a	n/a	n/a
1612.934	n/a	REC_WORD	806467	wordpools/wasnorm_wordpool.txt	LTP137	ltpFR	13	5	0	LUGGAGE	847	n/a	1	n/a	0	0	0	n/a	n/a	n/a	n/a	n/a
1614.166	n/a	REC_WORD	807083	wordpools/wasnorm_wordpool.txt	LTP137	ltpFR	13	5	1	DISHWASHER	475	n/a	0	n/a	0	0	0	n/a	n/a	n/a	n/a	n/a
1619.39	n/a	REC_WORD	809695	wordpools/wasnorm_wordpool.txt	LTP137	ltpFR	13	5	1	APE	31	n/a	1	n/a	0	0	0	n/a	n/a	n/a	n/a	n/a
1620.274	n/a	REC_WORD	810137	wordpools/wasnorm_wordpool.txt	LTP137	ltpFR	13	5	1	BOULDER	155	n/a	0	n/a	0	0	0	n/a	n/a	n/a	n/a	n/a
1621.146	n/a	REC_WORD	810573	wordpools/wasnorm_wordpool.txt	LTP137	ltpFR	13	5	0	ASTRONAUT	51	n/a	1	n/a	0	0	0	n/a	n/a	n/a	n/a	n/a
1622.404	n/a	REC_WORD	811202	wordpools/wasnorm_wordpool.txt	LTP137	ltpFR	13	5	0	PALACE	1006	n/a	1	n/a	0	0	0	n/a	n/a	n/a	n/a	n/a
1623.57	n/a	REC_WORD	811785	wordpools/wasnorm_wordpool.txt	LTP137	ltpFR	13	5	1	CROWN	415	n/a	0	n/a	0	0	0	n/a	n/a	n/a	n/a	n/a
1624.474	n/a	REC_WORD	812237	wordpools/wasnorm_wordpool.txt	LTP137	ltpFR	13	5	1	BRACELET	163	n/a	0	n/a	0	0	0	n/a	n/a	n/a	n/a	n/a
1627.398	n/a	REC_WORD	813699	wordpools/wasnorm_wordpool.txt	LTP137	ltpFR	13	5	1	CRATER	400	n/a	0	n/a	0	0	0	n/a	n/a	n/a	n/a	n/a
1705.976	n/a	WORD	852988	wordpools/wasnorm_wordpool.txt	LTP137	ltpFR	13	6	0	PIZZA	1079	n/a	0	n/a	0	0	0	1	0.412841796875	0.57763671875	upper	../fonts/amplitud.ttf
1709.984	n/a	WORD	854992	wordpools/wasnorm_wordpool.txt	LTP137	ltpFR	13	6	0	SALAD	1224	n/a	0	n/a	0	0	0	1	0.412841796875	0.57763671875	upper	../fonts/amplitud.ttf
1714.082	n/a	WORD	857041	wordpools/wasnorm_wordpool.txt	LTP137	ltpFR	13	6	1	RADISH	1158	n/a	0	n/a	0	0	0	0	0.5869140625	0.422607421875	lower	../fonts/zerothre.ttf
1717.964	n/a	WORD	858982	wordpools/wasnorm_wordpool.txt	LTP137	ltpFR	13	6	1	WOLF	1619	n/a	1	n/a	0	0	0	0	0.5869140625	0.422607421875	lower	../fonts/zerothre.ttf
1721.83	n/a	WORD	860915	wordpools/wasnorm_wordpool.txt	LTP137	ltpFR	13	6	1	MUSHROOM	934	n/a	0	n/a	0	0	0	0	0.5869140625	0.422607421875	lower	../fonts/zerothre.ttf
1725.77	n/a	WORD	862885	wordpools/wasnorm_wordpool.txt	LTP137	ltpFR	13	6	1	OX	994	n/a	1	n/a	0	0	0	0	0.5869140625	0.422607421875	lower	../fonts/zerothre.ttf
1729.686	n/a	WORD	864843	wordpools/wasnorm_wordpool.txt	LTP137	ltpFR	13	6	1	MOOSE	915	n/a	1	n/a	0	0	0	0	0.5869140625	0.422607421875	lower	../fonts/zerothre.ttf
1733.768	n/a	WORD	866884	wordpools/wasnorm_wordpool.txt	LTP137	ltpFR	13	6	0	HELICOPTER	701	n/a	1	n/a	0	0	0	1	0.412841796875	0.57763671875	upper	../fonts/amplitud.ttf
1737.884	n/a	WORD	868942	wordpools/wasnorm_wordpool.txt	LTP137	ltpFR	13	6	0	GLOVE	642	n/a	2	n/a	0	0	0	1	0.412841796875	0.57763671875	upper	../fonts/amplitud.ttf
1740.14	n/a	KEY_MSG	870070	n/a	LTP137	ltpFR	13	6	n/a	n/a	n/a	n/a	n/a	n/a	0	0	0	n/a	n/a	n/a	n/a	n/a
1742.788	n/a	WORD	871394	wordpools/wasnorm_wordpool.txt	LTP137	ltpFR	13	6	0	FRANCE	601	n/a	1	n/a	0	0	0	1	0.412841796875	0.57763671875	upper	../fonts/amplitud.ttf
1746.846	n/a	WORD	873423	wordpools/wasnorm_wordpool.txt	LTP137	ltpFR	13	6	1	MASCARA	875	n/a	0	n/a	0	0	0	0	0.5869140625	0.422607421875	lower	../fonts/zerothre.ttf
1750.946	n/a	WORD	875473	wordpools/wasnorm_wordpool.txt	LTP137	ltpFR	13	6	1	STEW	1380	n/a	0	n/a	0	0	0	0	0.5869140625	0.422607421875	lower	../fonts/zerothre.ttf
1755.036	n/a	WORD	877518	wordpools/wasnorm_wordpool.txt	LTP137	ltpFR	13	6	1	PLATE	1086	n/a	0	n/a	0	0	0	0	0.5869140625	0.422607421875	lower	../fonts/zerothre.ttf
1759.044	n/a	WORD	879522	wordpools/wasnorm_wordpool.txt	LTP137	ltpFR	13	6	0	TICK	1463	n/a	0	n/a	0	0	0	1	0.412841796875	0.57763671875	upper	../fonts/amplitud.ttf
1762.868	n/a	WORD	881434	wordpools/wasnorm_wordpool.txt	LTP137	ltpFR	13	6	0	PILOT	1070	n/a	1	n/a	0	0	0	1	0.412841796875	0.57763671875	upper	../fonts/amplitud.ttf
1766.9	n/a	WORD	883450	wordpools/wasnorm_wordpool.txt	LTP137	ltpFR	13	6	0	DENIM	446	n/a	0	n/a	0	0	0	1	0.412841796875	0.57763671875	upper	../fonts/amplitud.ttf
1769.908	n/a	START	884954	n/a	LTP137	ltpFR	13	n/a	n/a	n/a	n/a	n/a	n/a	n/a	n/a	n/a	n/a	n/a	n/a	n/a	n/a	n/a
1770.974	n/a	PROB	885487	n/a	LTP137	ltpFR	13	n/a	n/a	n/a	n/a	n/a	n/a	17	6	6	5	n/a	n/a	n/a	n/a	n/a
1773.306	n/a	PROB	886653	n/a	LTP137	ltpFR	13	n/a	n/a	n/a	n/a	n/a	n/a	10	2	3	5	n/a	n/a	n/a	n/a	n/a
1774.572	n/a	PROB	887286	n/a	LTP137	ltpFR	13	n/a	n/a	n/a	n/a	n/a	n/a	11	4	2	5	n/a	n/a	n/a	n/a	n/a
1776.464	n/a	PROB	888232	n/a	LTP137	ltpFR	13	n/a	n/a	n/a	n/a	n/a	n/a	21	6	8	7	n/a	n/a	n/a	n/a	n/a
1778.004	n/a	PROB	889002	n/a	LTP137	ltpFR	13	n/a	n/a	n/a	n/a	n/a	n/a	13	6	6	1	n/a	n/a	n/a	n/a	n/a
1779.338	n/a	PROB	889669	n/a	LTP137	ltpFR	13	n/a	n/a	n/a	n/a	n/a	n/a	18	7	4	7	n/a	n/a	n/a	n/a	n/a
1781.02	n/a	PROB	890510	n/a	LTP137	ltpFR	13	n/a	n/a	n/a	n/a	n/a	n/a	13	4	4	5	n/a	n/a	n/a	n/a	n/a
1783.26	n/a	PROB	891630	n/a	LTP137	ltpFR	13	n/a	n/a	n/a	n/a	n/a	n/a	11	6	1	4	n/a	n/a	n/a	n/a	n/a
1784.376	n/a	STOP	892188	n/a	LTP137	ltpFR	13	n/a	n/a	n/a	n/a	n/a	n/a	n/a	n/a	n/a	n/a	n/a	n/a	n/a	n/a	n/a
1787.736	n/a	REC_START	893868	n/a	LTP137	ltpFR	13	6	n/a	n/a	n/a	n/a	n/a	n/a	0	0	0	n/a	n/a	n/a	n/a	n/a
1790.314	n/a	REC_WORD	895157	wordpools/wasnorm_wordpool.txt	LTP137	ltpFR	13	6	1	WOLF	1619	n/a	1	n/a	0	0	0	n/a	n/a	n/a	n/a	n/a
1791.98	n/a	REC_WORD	895990	wordpools/wasnorm_wordpool.txt	LTP137	ltpFR	13	6	0	TICK	1463	n/a	0	n/a	0	0	0	n/a	n/a	n/a	n/a	n/a
1793.328	n/a	REC_WORD	896664	wordpools/wasnorm_wordpool.txt	LTP137	ltpFR	13	6	1	MASCARA	875	n/a	0	n/a	0	0	0	n/a	n/a	n/a	n/a	n/a
1794.744	n/a	REC_WORD	897372	wordpools/wasnorm_wordpool.txt	LTP137	ltpFR	13	6	0	FRANCE	601	n/a	1	n/a	0	0	0	n/a	n/a	n/a	n/a	n/a
1799.274	n/a	REC_WORD	899637	wordpools/wasnorm_wordpool.txt	LTP137	ltpFR	13	6	1	STEW	1380	n/a	0	n/a	0	0	0	n/a	n/a	n/a	n/a	n/a
1800.282	n/a	REC_WORD	900141	wordpools/wasnorm_wordpool.txt	LTP137	ltpFR	13	6	1	PLATE	1086	n/a	0	n/a	0	0	0	n/a	n/a	n/a	n/a	n/a
1801.21	n/a	REC_WORD	900605	wordpools/wasnorm_wordpool.txt	LTP137	ltpFR	13	6	0	PIZZA	1079	n/a	0	n/a	0	0	0	n/a	n/a	n/a	n/a	n/a
1801.892	n/a	REC_WORD	900946	wordpools/wasnorm_wordpool.txt	LTP137	ltpFR	13	6	0	SALAD	1224	n/a	0	n/a	0	0	0	n/a	n/a	n/a	n/a	n/a
1802.91	n/a	REC_WORD	901455	wordpools/wasnorm_wordpool.txt	LTP137	ltpFR	13	6	1	RADISH	1158	n/a	0	n/a	0	0	0	n/a	n/a	n/a	n/a	n/a
1803.81	n/a	REC_WORD	901905	wordpools/wasnorm_wordpool.txt	LTP137	ltpFR	13	6	1	MUSHROOM	934	n/a	0	n/a	0	0	0	n/a	n/a	n/a	n/a	n/a
1806.868	n/a	REC_WORD	903434	wordpools/wasnorm_wordpool.txt	LTP137	ltpFR	13	6	1	OX	994	n/a	1	n/a	0	0	0	n/a	n/a	n/a	n/a	n/a
1808.07	n/a	REC_WORD	904035	wordpools/wasnorm_wordpool.txt	LTP137	ltpFR	13	6	1	MOOSE	915	n/a	1	n/a	0	0	0	n/a	n/a	n/a	n/a	n/a
1810.16	n/a	REC_WORD	905080	wordpools/wasnorm_wordpool.txt	LTP137	ltpFR	13	6	0	DENIM	446	n/a	0	n/a	0	0	0	n/a	n/a	n/a	n/a	n/a
1811.482	n/a	REC_WORD	905741	wordpools/wasnorm_wordpool.txt	LTP137	ltpFR	13	6	0	HELICOPTER	701	n/a	1	n/a	0	0	0	n/a	n/a	n/a	n/a	n/a
1841.126	n/a	REC_WORD	920563	wordpools/wasnorm_wordpool.txt	LTP137	ltpFR	13	6	0	GLOVE	642	n/a	2	n/a	0	0	0	n/a	n/a	n/a	n/a	n/a
1866.67	n/a	WORD	933335	wordpools/wasnorm_wordpool.txt	LTP137	ltpFR	13	7	0	ANKLE	24	n/a	0	n/a	0	0	0	1	0.412841796875	0.57763671875	upper	../fonts/amplitud.ttf
1870.56	n/a	WORD	935280	wordpools/wasnorm_wordpool.txt	LTP137	ltpFR	13	7	0	JOINT	758	n/a	0	n/a	0	0	0	1	0.412841796875	0.57763671875	upper	../fonts/amplitud.ttf
1874.45	n/a	WORD	937225	wordpools/wasnorm_wordpool.txt	LTP137	ltpFR	13	7	0	CHEF	290	n/a	1	n/a	0	0	0	1	0.412841796875	0.57763671875	upper	../fonts/amplitud.ttf
1878.348	n/a	WORD	939174	wordpools/wasnorm_wordpool.txt	LTP137	ltpFR	13	7	0	BELLY	119	n/a	0	n/a	0	0	0	1	0.412841796875	0.57763671875	upper	../fonts/amplitud.ttf
1882.532	n/a	WORD	941266	wordpools/wasnorm_wordpool.txt	LTP137	ltpFR	13	7	0	HOOD	714	n/a	0	n/a	0	0	0	1	0.412841796875	0.57763671875	upper	../fonts/amplitud.ttf
1886.456	n/a	WORD	943228	wordpools/wasnorm_wordpool.txt	LTP137	ltpFR	13	7	0	LINEN	825	n/a	0	n/a	0	0	0	1	0.412841796875	0.57763671875	upper	../fonts/amplitud.ttf
1890.37	n/a	WORD	945185	wordpools/wasnorm_wordpool.txt	LTP137	ltpFR	13	7	0	JUG	762	n/a	1	n/a	0	0	0	1	0.412841796875	0.57763671875	upper	../fonts/amplitud.ttf
1894.394	n/a	WORD	947197	wordpools/wasnorm_wordpool.txt	LTP137	ltpFR	13	7	0	LANDSCAPE	799	n/a	1	n/a	0	0	0	1	0.412841796875	0.57763671875	upper	../fonts/amplitud.ttf
1898.452	n/a	WORD	949226	wordpools/wasnorm_wordpool.txt	LTP137	ltpFR	13	7	0	KEEPER	769	n/a	1	n/a	0	0	0	1	0.412841796875	0.57763671875	upper	../fonts/amplitud.ttf
1902.658	n/a	WORD	951329	wordpools/wasnorm_wordpool.txt	LTP137	ltpFR	13	7	0	WAITER	1580	n/a	1	n/a	0	0	0	1	0.412841796875	0.57763671875	upper	../fonts/amplitud.ttf
1906.798	n/a	WORD	953399	wordpools/wasnorm_wordpool.txt	LTP137	ltpFR	13	7	0	LAWN	805	n/a	1	n/a	0	0	0	1	0.412841796875	0.57763671875	upper	../fonts/amplitud.ttf
1910.83	n/a	WORD	955415	wordpools/wasnorm_wordpool.txt	LTP137	ltpFR	13	7	0	HOUSE	725	n/a	1	n/a	0	0	0	1	0.412841796875	0.57763671875	upper	../fonts/amplitud.ttf
1914.654	n/a	WORD	957327	wordpools/wasnorm_wordpool.txt	LTP137	ltpFR	13	7	0	DANDELION	438	n/a	0	n/a	0	0	0	1	0.412841796875	0.57763671875	upper	../fonts/amplitud.ttf
1918.47	n/a	WORD	959235	wordpools/wasnorm_wordpool.txt	LTP137	ltpFR	13	7	0	SEA	1259	n/a	1	n/a	0	0	0	1	0.412841796875	0.57763671875	upper	../fonts/amplitud.ttf
1922.394	n/a	WORD	961197	wordpools/wasnorm_wordpool.txt	LTP137	ltpFR	13	7	0	CHAUFFEUR	283	n/a	1	n/a	0	0	0	1	0.412841796875	0.57763671875	upper	../fonts/amplitud.ttf
1926.534	n/a	WORD	963267	wordpools/wasnorm_wordpool.txt	LTP137	ltpFR	13	7	0	DASHBOARD	441	n/a	1	n/a	0	0	0	1	0.412841796875	0.57763671875	upper	../fonts/amplitud.ttf
1929.542	n/a	START	964771	n/a	LTP137	ltpFR	13	n/a	n/a	n/a	n/a	n/a	n/a	n/a	n/a	n/a	n/a	n/a	n/a	n/a	n/a	n/a
1930.516	n/a	PROB	965258	n/a	LTP137	ltpFR	13	n/a	n/a	n/a	n/a	n/a	n/a	17	5	8	3	n/a	n/a	n/a	n/a	n/a
1934.248	n/a	PROB	967124	n/a	LTP137	ltpFR	13	n/a	n/a	n/a	n/a	n/a	n/a	12	4	5	3	n/a	n/a	n/a	n/a	n/a
1936.666	n/a	STOP	968333	n/a	LTP137	ltpFR	13	n/a	n/a	n/a	n/a	n/a	n/a	n/a	n/a	n/a	n/a	n/a	n/a	n/a	n/a	n/a
1939.316	n/a	REC_START	969658	n/a	LTP137	ltpFR	13	7	n/a	n/a	n/a	n/a	n/a	n/a	0	0	0	n/a	n/a	n/a	n/a	n/a
1941.016	n/a	REC_WORD	970508	wordpools/wasnorm_wordpool.txt	LTP137	ltpFR	13	7	0	CHEF	290	n/a	1	n/a	0	0	0	n/a	n/a	n/a	n/a	n/a
1941.764	n/a	REC_WORD	970882	wordpools/wasnorm_wordpool.txt	LTP137	ltpFR	13	7	0	CHAUFFEUR	283	n/a	1	n/a	0	0	0	n/a	n/a	n/a	n/a	n/a
1943.086	n/a	REC_WORD	971543	wordpools/wasnorm_wordpool.txt	LTP137	ltpFR	13	7	0	BELLY	119	n/a	0	n/a	0	0	0	n/a	n/a	n/a	n/a	n/a
1946.31	n/a	REC_WORD	973155	wordpools/wasnorm_wordpool.txt	LTP137	ltpFR	13	7	0	LAWN	805	n/a	1	n/a	0	0	0	n/a	n/a	n/a	n/a	n/a
1947.132	n/a	REC_WORD	973566	wordpools/wasnorm_wordpool.txt	LTP137	ltpFR	13	7	0	LANDSCAPE	799	n/a	1	n/a	0	0	0	n/a	n/a	n/a	n/a	n/a
1949.188	n/a	REC_WORD	974594	wordpools/wasnorm_wordpool.txt	LTP137	ltpFR	13	7	0	HOUSE	725	n/a	1	n/a	0	0	0	n/a	n/a	n/a	n/a	n/a
1950.226	n/a	REC_WORD	975113	wordpools/wasnorm_wordpool.txt	LTP137	ltpFR	13	7	0	DANDELION	438	n/a	0	n/a	0	0	0	n/a	n/a	n/a	n/a	n/a
1951.182	n/a	REC_WORD	975591	wordpools/wasnorm_wordpool.txt	LTP137	ltpFR	13	7	0	SEA	1259	n/a	1	n/a	0	0	0	n/a	n/a	n/a	n/a	n/a
1956.666	n/a	REC_WORD	978333	wordpools/wasnorm_wordpool.txt	LTP137	ltpFR	13	7	0	ANKLE	24	n/a	0	n/a	0	0	0	n/a	n/a	n/a	n/a	n/a
1957.604	n/a	REC_WORD	978802	wordpools/wasnorm_wordpool.txt	LTP137	ltpFR	13	7	0	JOINT	758	n/a	0	n/a	0	0	0	n/a	n/a	n/a	n/a	n/a
1958.198	n/a	REC_WORD	979099	wordpools/wasnorm_wordpool.txt	LTP137	ltpFR	13	7	0	HOOD	714	n/a	0	n/a	0	0	0	n/a	n/a	n/a	n/a	n/a
1966.0	n/a	REC_WORD	983000	wordpools/wasnorm_wordpool.txt	LTP137	ltpFR	13	7	0	WAITER	1580	n/a	1	n/a	0	0	0	n/a	n/a	n/a	n/a	n/a
1966.824	n/a	REC_WORD	983412	wordpools/wasnorm_wordpool.txt	LTP137	ltpFR	13	7	0	KEEPER	769	n/a	1	n/a	0	0	0	n/a	n/a	n/a	n/a	n/a
2004.47	n/a	REC_WORD	1002235	wordpools/wasnorm_wordpool.txt	LTP137	ltpFR	13	7	0	JUG	762	n/a	1	n/a	0	0	0	n/a	n/a	n/a	n/a	n/a
2018.34	n/a	WORD	1009170	wordpools/wasnorm_wordpool.txt	LTP137	ltpFR	13	8	1	PORCUPINE	1107	n/a	1	n/a	0	0	0	0	0.5869140625	0.422607421875	lower	../fonts/zerothre.ttf
2022.164	n/a	WORD	1011082	wordpools/wasnorm_wordpool.txt	LTP137	ltpFR	13	8	1	HERB	704	n/a	0	n/a	0	0	0	0	0.5869140625	0.422607421875	lower	../fonts/zerothre.ttf
2026.172	n/a	WORD	1013086	wordpools/wasnorm_wordpool.txt	LTP137	ltpFR	13	8	0	STETHOSCOPE	1379	n/a	0	n/a	0	0	0	1	0.412841796875	0.57763671875	upper	../fonts/amplitud.ttf
2030.178	n/a	WORD	1015089	wordpools/wasnorm_wordpool.txt	LTP137	ltpFR	13	8	0	CATCHER	258	n/a	1	n/a	0	0	0	1	0.412841796875	0.57763671875	upper	../fonts/amplitud.ttf
2034.11	n/a	WORD	1017055	wordpools/wasnorm_wordpool.txt	LTP137	ltpFR	13	8	0	DOG	480	n/a	1	n/a	0	0	0	1	0.412841796875	0.57763671875	upper	../fonts/amplitud.ttf
2038.268	n/a	WORD	1019134	wordpools/wasnorm_wordpool.txt	LTP137	ltpFR	13	8	0	KITCHEN	778	n/a	1	n/a	0	0	0	1	0.412841796875	0.57763671875	upper	../fonts/amplitud.ttf
2042.416	n/a	WORD	1021208	wordpools/wasnorm_wordpool.txt	LTP137	ltpFR	13	8	0	COD	340	n/a	0	n/a	0	0	0	1	0.412841796875	0.57763671875	upper	../fonts/amplitud.ttf
2046.54	n/a	WORD	1023270	wordpools/wasnorm_wordpool.txt	LTP137	ltpFR	13	8	0	ACROBAT	4	n/a	1	n/a	0	0	0	1	0.412841796875	0.57763671875	upper	../fonts/amplitud.ttf
2050.672	n/a	WORD	1025336	wordpools/wasnorm_wordpool.txt	LTP137	ltpFR	13	8	1	CUE	422	n/a	0	n/a	0	0	0	0	0.5869140625	0.422607421875	lower	../fonts/zerothre.ttf
2054.504	n/a	WORD	1027252	wordpools/wasnorm_wordpool.txt	LTP137	ltpFR	13	8	1	HAYSTACK	694	n/a	0	n/a	0	0	0	0	0.5869140625	0.422607421875	lower	../fonts/zerothre.ttf
2058.594	n/a	WORD	1029297	wordpools/wasnorm_wordpool.txt	LTP137	ltpFR	13	8	1	CABINET	212	n/a	0	n/a	0	0	0	0	0.5869140625	0.422607421875	lower	../fonts/zerothre.ttf
2062.66	n/a	WORD	1031330	wordpools/wasnorm_wordpool.txt	LTP137	ltpFR	13	8	0	NITROGEN	954	n/a	0	n/a	0	0	0	1	0.412841796875	0.57763671875	upper	../fonts/amplitud.ttf
2066.852	n/a	WORD	1033426	wordpools/wasnorm_wordpool.txt	LTP137	ltpFR	13	8	0	OZONE	996	n/a	0	n/a	0	0	0	1	0.412841796875	0.57763671875	upper	../fonts/amplitud.ttf
2070.7	n/a	WORD	1035350	wordpools/wasnorm_wordpool.txt	LTP137	ltpFR	13	8	1	FUNERAL	613	n/a	0	n/a	0	0	0	0	0.5869140625	0.422607421875	lower	../fonts/zerothre.ttf
2074.706	n/a	WORD	1037353	wordpools/wasnorm_wordpool.txt	LTP137	ltpFR	13	8	1	COFFIN	342	n/a	0	n/a	0	0	0	0	0.5869140625	0.422607421875	lower	../fonts/zerothre.ttf
2078.896	n/a	WORD	1039448	wordpools/wasnorm_wordpool.txt	LTP137	ltpFR	13	8	1	ZUCCHINI	1638	n/a	1	n/a	0	0	0	0	0.5869140625	0.422607421875	lower	../fonts/zerothre.ttf
2084.77	n/a	REC_START	1042385	n/a	LTP137	ltpFR	13	8	n/a	n/a	n/a	n/a	n/a	n/a	0	0	0	n/a	n/a	n/a	n/a	n/a
2087.304	n/a	REC_WORD	1043652	wordpools/wasnorm_wordpool.txt	LTP137	ltpFR	13	8	0	NITROGEN	954	n/a	0	n/a	0	0	0	n/a	n/a	n/a	n/a	n/a
2088.308	n/a	REC_WORD	1044154	wordpools/wasnorm_wordpool.txt	LTP137	ltpFR	13	8	0	OZONE	996	n/a	0	n/a	0	0	0	n/a	n/a	n/a	n/a	n/a
2090.238	n/a	REC_WORD	1045119	wordpools/wasnorm_wordpool.txt	LTP137	ltpFR	13	8	1	HERB	704	n/a	0	n/a	0	0	0	n/a	n/a	n/a	n/a	n/a
2091.504	n/a	REC_WORD	1045752	wordpools/wasnorm_wordpool.txt	LTP137	ltpFR	13	8	1	ZUCCHINI	1638	n/a	1	n/a	0	0	0	n/a	n/a	n/a	n/a	n/a
2092.578	n/a	REC_WORD	1046289	wordpools/wasnorm_wordpool.txt	LTP137	ltpFR	13	8	1	HAYSTACK	694	n/a	0	n/a	0	0	0	n/a	n/a	n/a	n/a	n/a
2096.012	n/a	REC_WORD	1048006	wordpools/wasnorm_wordpool.txt	LTP137	ltpFR	13	8	1	PORCUPINE	1107	n/a	1	n/a	0	0	0	n/a	n/a	n/a	n/a	n/a
2097.342	n/a	REC_WORD	1048671	wordpools/wasnorm_wordpool.txt	LTP137	ltpFR	13	8	0	KITCHEN	778	n/a	1	n/a	0	0	0	n/a	n/a	n/a	n/a	n/a
2099.966	n/a	REC_WORD	1049983	wordpools/wasnorm_wordpool.txt	LTP137	ltpFR	13	8	0	CATCHER	258	n/a	1	n/a	0	0	0	n/a	n/a	n/a	n/a	n/a
2102.42	n/a	REC_WORD	1051210	wordpools/wasnorm_wordpool.txt	LTP137	ltpFR	13	8	0	DOG	480	n/a	1	n/a	0	0	0	n/a	n/a	n/a	n/a	n/a
2105.364	n/a	REC_WORD	1052682	wordpools/wasnorm_wordpool.txt	LTP137	ltpFR	13	8	1	CABINET	212	n/a	0	n/a	0	0	0	n/a	n/a	n/a	n/a	n/a
2130.842	n/a	REC_WORD	1065421	wordpools/wasnorm_wordpool.txt	LTP137	ltpFR	13	8	0	STETHOSCOPE	1379	n/a	0	n/a	0	0	0	n/a	n/a	n/a	n/a	n/a
2188.622	n/a	START	1094311	n/a	LTP137	ltpFR	13	n/a	n/a	n/a	n/a	n/a	n/a	n/a	n/a	n/a	n/a	n/a	n/a	n/a	n/a	n/a
2190.13	n/a	PROB	1095065	n/a	LTP137	ltpFR	13	n/a	n/a	n/a	n/a	n/a	n/a	14	5	3	6	n/a	n/a	n/a	n/a	n/a
2192.246	n/a	PROB	1096123	n/a	LTP137	ltpFR	13	n/a	n/a	n/a	n/a	n/a	n/a	13	8	1	4	n/a	n/a	n/a	n/a	n/a
2196.622	n/a	STOP	1098311	n/a	LTP137	ltpFR	13	n/a	n/a	n/a	n/a	n/a	n/a	n/a	n/a	n/a	n/a	n/a	n/a	n/a	n/a	n/a
2197.76	n/a	WORD	1098880	wordpools/wasnorm_wordpool.txt	LTP137	ltpFR	13	9	0	CATTLE	261	n/a	1	n/a	0	0	0	1	0.412841796875	0.57763671875	upper	../fonts/amplitud.ttf
2200.768	n/a	START	1100384	n/a	LTP137	ltpFR	13	n/a	n/a	n/a	n/a	n/a	n/a	n/a	n/a	n/a	n/a	n/a	n/a	n/a	n/a	n/a
2201.868	n/a	PROB	1100934	n/a	LTP137	ltpFR	13	n/a	n/a	n/a	n/a	n/a	n/a	6	2	2	2	n/a	n/a	n/a	n/a	n/a
2203.068	n/a	PROB	1101534	n/a	LTP137	ltpFR	13	n/a	n/a	n/a	n/a	n/a	n/a	15	8	3	4	n/a	n/a	n/a	n/a	n/a
2204.592	n/a	PROB	1102296	n/a	LTP137	ltpFR	13	n/a	n/a	n/a	n/a	n/a	n/a	10	1	3	6	n/a	n/a	n/a	n/a	n/a
2206.076	n/a	PROB	1103038	n/a	LTP137	ltpFR	13	n/a	n/a	n/a	n/a	n/a	n/a	17	1	8	8	n/a	n/a	n/a	n/a	n/a
2207.504	n/a	STOP	1103752	n/a	LTP137	ltpFR	13	n/a	n/a	n/a	n/a	n/a	n/a	n/a	n/a	n/a	n/a	n/a	n/a	n/a	n/a	n/a
2209.732	n/a	WORD	1104866	wordpools/wasnorm_wordpool.txt	LTP137	ltpFR	13	9	0	HAMBURGER	679	n/a	1	n/a	0	0	0	1	0.412841796875	0.57763671875	upper	../fonts/amplitud.ttf
2212.74	n/a	START	1106370	n/a	LTP137	ltpFR	13	n/a	n/a	n/a	n/a	n/a	n/a	n/a	n/a	n/a	n/a	n/a	n/a	n/a	n/a	n/a
2213.614	n/a	PROB	1106807	n/a	LTP137	ltpFR	13	n/a	n/a	n/a	n/a	n/a	n/a	22	6	9	7	n/a	n/a	n/a	n/a	n/a
2217.522	n/a	PROB	1108761	n/a	LTP137	ltpFR	13	n/a	n/a	n/a	n/a	n/a	n/a	13	9	3	1	n/a	n/a	n/a	n/a	n/a
2220.736	n/a	STOP	1110368	n/a	LTP137	ltpFR	13	n/a	n/a	n/a	n/a	n/a	n/a	n/a	n/a	n/a	n/a	n/a	n/a	n/a	n/a	n/a
2221.804	n/a	WORD	1110902	wordpools/wasnorm_wordpool.txt	LTP137	ltpFR	13	9	0	SHELTER	1282	n/a	1	n/a	0	0	0	1	0.412841796875	0.57763671875	upper	../fonts/amplitud.ttf
2224.81	n/a	START	1112405	n/a	LTP137	ltpFR	13	n/a	n/a	n/a	n/a	n/a	n/a	n/a	n/a	n/a	n/a	n/a	n/a	n/a	n/a	n/a
2225.794	n/a	PROB	1112897	n/a	LTP137	ltpFR	13	n/a	n/a	n/a	n/a	n/a	n/a	15	3	6	6	n/a	n/a	n/a	n/a	n/a
2227.668	n/a	PROB	1113834	n/a	LTP137	ltpFR	13	n/a	n/a	n/a	n/a	n/a	n/a	17	6	3	8	n/a	n/a	n/a	n/a	n/a
2231.594	n/a	STOP	1115797	n/a	LTP137	ltpFR	13	n/a	n/a	n/a	n/a	n/a	n/a	n/a	n/a	n/a	n/a	n/a	n/a	n/a	n/a	n/a
2233.984	n/a	WORD	1116992	wordpools/wasnorm_wordpool.txt	LTP137	ltpFR	13	9	0	DIAGRAM	456	n/a	0	n/a	0	0	0	1	0.412841796875	0.57763671875	upper	../fonts/amplitud.ttf
2236.992	n/a	START	1118496	n/a	LTP137	ltpFR	13	n/a	n/a	n/a	n/a	n/a	n/a	n/a	n/a	n/a	n/a	n/a	n/a	n/a	n/a	n/a
2238.05	n/a	PROB	1119025	n/a	LTP137	ltpFR	13	n/a	n/a	n/a	n/a	n/a	n/a	14	9	2	3	n/a	n/a	n/a	n/a	n/a
2240.024	n/a	PROB	1120012	n/a	LTP137	ltpFR	13	n/a	n/a	n/a	n/a	n/a	n/a	12	8	2	2	n/a	n/a	n/a	n/a	n/a
2241.89	n/a	PROB	1120945	n/a	LTP137	ltpFR	13	n/a	n/a	n/a	n/a	n/a	n/a	18	9	8	1	n/a	n/a	n/a	n/a	n/a
2243.642	n/a	STOP	1121821	n/a	LTP137	ltpFR	13	n/a	n/a	n/a	n/a	n/a	n/a	n/a	n/a	n/a	n/a	n/a	n/a	n/a	n/a	n/a
2246.18	n/a	WORD	1123090	wordpools/wasnorm_wordpool.txt	LTP137	ltpFR	13	9	0	SKETCH	1315	n/a	0	n/a	0	0	0	1	0.412841796875	0.57763671875	upper	../fonts/amplitud.ttf
2249.188	n/a	START	1124594	n/a	LTP137	ltpFR	13	n/a	n/a	n/a	n/a	n/a	n/a	n/a	n/a	n/a	n/a	n/a	n/a	n/a	n/a	n/a
2250.12	n/a	PROB	1125060	n/a	LTP137	ltpFR	13	n/a	n/a	n/a	n/a	n/a	n/a	13	1	3	9	n/a	n/a	n/a	n/a	n/a
2251.886	n/a	PROB	1125943	n/a	LTP137	ltpFR	13	n/a	n/a	n/a	n/a	n/a	n/a	15	9	2	4	n/a	n/a	n/a	n/a	n/a
2254.028	n/a	PROB	1127014	n/a	LTP137	ltpFR	13	n/a	n/a	n/a	n/a	n/a	n/a	9	1	5	3	n/a	n/a	n/a	n/a	n/a
2255.98	n/a	STOP	1127990	n/a	LTP137	ltpFR	13	n/a	n/a	n/a	n/a	n/a	n/a	n/a	n/a	n/a	n/a	n/a	n/a	n/a	n/a	n/a
2258.152	n/a	WORD	1129076	wordpools/wasnorm_wordpool.txt	LTP137	ltpFR	13	9	0	ZEBRA	1635	n/a	1	n/a	0	0	0	1	0.412841796875	0.57763671875	upper	../fonts/amplitud.ttf
2261.16	n/a	START	1130580	n/a	LTP137	ltpFR	13	n/a	n/a	n/a	n/a	n/a	n/a	n/a	n/a	n/a	n/a	n/a	n/a	n/a	n/a	n/a
2262.142	n/a	PROB	1131071	n/a	LTP137	ltpFR	13	n/a	n/a	n/a	n/a	n/a	n/a	18	8	4	6	n/a	n/a	n/a	n/a	n/a
2264.69	n/a	PROB	1132345	n/a	LTP137	ltpFR	13	n/a	n/a	n/a	n/a	n/a	n/a	18	7	4	7	n/a	n/a	n/a	n/a	n/a
2266.298	n/a	PROB	1133149	n/a	LTP137	ltpFR	13	n/a	n/a	n/a	n/a	n/a	n/a	18	1	9	8	n/a	n/a	n/a	n/a	n/a
2267.794	n/a	STOP	1133897	n/a	LTP137	ltpFR	13	n/a	n/a	n/a	n/a	n/a	n/a	n/a	n/a	n/a	n/a	n/a	n/a	n/a	n/a	n/a
2270.156	n/a	WORD	1135078	wordpools/wasnorm_wordpool.txt	LTP137	ltpFR	13	9	0	AFRICA	9	n/a	1	n/a	0	0	0	1	0.412841796875	0.57763671875	upper	../fonts/amplitud.ttf
2273.164	n/a	START	1136582	n/a	LTP137	ltpFR	13	n/a	n/a	n/a	n/a	n/a	n/a	n/a	n/a	n/a	n/a	n/a	n/a	n/a	n/a	n/a
2274.08	n/a	PROB	1137040	n/a	LTP137	ltpFR	13	n/a	n/a	n/a	n/a	n/a	n/a	12	8	3	1	n/a	n/a	n/a	n/a	n/a
2275.272	n/a	PROB	1137636	n/a	LTP137	ltpFR	13	n/a	n/a	n/a	n/a	n/a	n/a	11	4	2	5	n/a	n/a	n/a	n/a	n/a
2277.43	n/a	PROB	1138715	n/a	LTP137	ltpFR	13	n/a	n/a	n/a	n/a	n/a	n/a	16	7	6	3	n/a	n/a	n/a	n/a	n/a
2280.236	n/a	STOP	1140118	n/a	LTP137	ltpFR	13	n/a	n/a	n/a	n/a	n/a	n/a	n/a	n/a	n/a	n/a	n/a	n/a	n/a	n/a	n/a
2282.352	n/a	WORD	1141176	wordpools/wasnorm_wordpool.txt	LTP137	ltpFR	13	9	0	SHACK	1273	n/a	1	n/a	0	0	0	1	0.412841796875	0.57763671875	upper	../fonts/amplitud.ttf
2285.36	n/a	START	1142680	n/a	LTP137	ltpFR	13	n/a	n/a	n/a	n/a	n/a	n/a	n/a	n/a	n/a	n/a	n/a	n/a	n/a	n/a	n/a
2286.268	n/a	PROB	1143134	n/a	LTP137	ltpFR	13	n/a	n/a	n/a	n/a	n/a	n/a	9	1	3	5	n/a	n/a	n/a	n/a	n/a
2288.558	n/a	PROB	1144279	n/a	LTP137	ltpFR	13	n/a	n/a	n/a	n/a	n/a	n/a	13	2	3	8	n/a	n/a	n/a	n/a	n/a
2291.592	n/a	PROB	1145796	n/a	LTP137	ltpFR	13	n/a	n/a	n/a	n/a	n/a	n/a	12	4	2	6	n/a	n/a	n/a	n/a	n/a
2293.332	n/a	STOP	1146666	n/a	LTP137	ltpFR	13	n/a	n/a	n/a	n/a	n/a	n/a	n/a	n/a	n/a	n/a	n/a	n/a	n/a	n/a	n/a
2294.25	n/a	WORD	1147125	wordpools/wasnorm_wordpool.txt	LTP137	ltpFR	13	9	0	PIER	1063	n/a	1	n/a	0	0	0	1	0.412841796875	0.57763671875	upper	../fonts/amplitud.ttf
2297.256	n/a	START	1148628	n/a	LTP137	ltpFR	13	n/a	n/a	n/a	n/a	n/a	n/a	n/a	n/a	n/a	n/a	n/a	n/a	n/a	n/a	n/a
2298.222	n/a	PROB	1149111	n/a	LTP137	ltpFR	13	n/a	n/a	n/a	n/a	n/a	n/a	11	1	8	2	n/a	n/a	n/a	n/a	n/a
2299.78	n/a	PROB	1149890	n/a	LTP137	ltpFR	13	n/a	n/a	n/a	n/a	n/a	n/a	11	7	1	3	n/a	n/a	n/a	n/a	n/a
2301.82	n/a	PROB	1150910	n/a	LTP137	ltpFR	13	n/a	n/a	n/a	n/a	n/a	n/a	16	3	9	4	n/a	n/a	n/a	n/a	n/a
2304.838	n/a	STOP	1152419	n/a	LTP137	ltpFR	13	n/a	n/a	n/a	n/a	n/a	n/a	n/a	n/a	n/a	n/a	n/a	n/a	n/a	n/a	n/a
2306.194	n/a	WORD	1153097	wordpools/wasnorm_wordpool.txt	LTP137	ltpFR	13	9	0	OCEAN	970	n/a	1	n/a	0	0	0	1	0.412841796875	0.57763671875	upper	../fonts/amplitud.ttf
2309.21	n/a	START	1154605	n/a	LTP137	ltpFR	13	n/a	n/a	n/a	n/a	n/a	n/a	n/a	n/a	n/a	n/a	n/a	n/a	n/a	n/a	n/a
2310.21	n/a	PROB	1155105	n/a	LTP137	ltpFR	13	n/a	n/a	n/a	n/a	n/a	n/a	14	5	2	7	n/a	n/a	n/a	n/a	n/a
2312.51	n/a	PROB	1156255	n/a	LTP137	ltpFR	13	n/a	n/a	n/a	n/a	n/a	n/a	17	4	5	8	n/a	n/a	n/a	n/a	n/a
2317.212	n/a	STOP	1158606	n/a	LTP137	ltpFR	13	n/a	n/a	n/a	n/a	n/a	n/a	n/a	n/a	n/a	n/a	n/a	n/a	n/a	n/a	n/a
2318.258	n/a	WORD	1159129	wordpools/wasnorm_wordpool.txt	LTP137	ltpFR	13	9	0	MOAT	903	n/a	1	n/a	0	0	0	1	0.412841796875	0.57763671875	upper	../fonts/amplitud.ttf
2321.266	n/a	START	1160633	n/a	LTP137	ltpFR	13	n/a	n/a	n/a	n/a	n/a	n/a	n/a	n/a	n/a	n/a	n/a	n/a	n/a	n/a	n/a
2322.182	n/a	PROB	1161091	n/a	LTP137	ltpFR	13	n/a	n/a	n/a	n/a	n/a	n/a	20	4	7	9	n/a	n/a	n/a	n/a	n/a
2324.398	n/a	PROB	1162199	n/a	LTP137	ltpFR	13	n/a	n/a	n/a	n/a	n/a	n/a	19	7	7	5	n/a	n/a	n/a	n/a	n/a
2329.268	n/a	STOP	1164634	n/a	LTP137	ltpFR	13	n/a	n/a	n/a	n/a	n/a	n/a	n/a	n/a	n/a	n/a	n/a	n/a	n/a	n/a	n/a
2330.23	n/a	WORD	1165115	wordpools/wasnorm_wordpool.txt	LTP137	ltpFR	13	9	0	TOMBSTONE	1478	n/a	1	n/a	0	0	0	1	0.412841796875	0.57763671875	upper	../fonts/amplitud.ttf
2333.238	n/a	START	1166619	n/a	LTP137	ltpFR	13	n/a	n/a	n/a	n/a	n/a	n/a	n/a	n/a	n/a	n/a	n/a	n/a	n/a	n/a	n/a
2334.112	n/a	PROB	1167056	n/a	LTP137	ltpFR	13	n/a	n/a	n/a	n/a	n/a	n/a	15	5	4	6	n/a	n/a	n/a	n/a	n/a
2335.97	n/a	PROB	1167985	n/a	LTP137	ltpFR	13	n/a	n/a	n/a	n/a	n/a	n/a	13	7	5	1	n/a	n/a	n/a	n/a	n/a
2337.636	n/a	PROB	1168818	n/a	LTP137	ltpFR	13	n/a	n/a	n/a	n/a	n/a	n/a	15	1	7	7	n/a	n/a	n/a	n/a	n/a
2338.852	n/a	PROB	1169426	n/a	LTP137	ltpFR	13	n/a	n/a	n/a	n/a	n/a	n/a	17	9	6	2	n/a	n/a	n/a	n/a	n/a
2340.888	n/a	STOP	1170444	n/a	LTP137	ltpFR	13	n/a	n/a	n/a	n/a	n/a	n/a	n/a	n/a	n/a	n/a	n/a	n/a	n/a	n/a	n/a
2342.26	n/a	WORD	1171130	wordpools/wasnorm_wordpool.txt	LTP137	ltpFR	13	9	0	GOBLIN	645	n/a	0	n/a	0	0	0	1	0.412841796875	0.57763671875	upper	../fonts/amplitud.ttf
2345.266	n/a	START	1172633	n/a	LTP137	ltpFR	13	n/a	n/a	n/a	n/a	n/a	n/a	n/a	n/a	n/a	n/a	n/a	n/a	n/a	n/a	n/a
2346.074	n/a	PROB	1173037	n/a	LTP137	ltpFR	13	n/a	n/a	n/a	n/a	n/a	n/a	11	1	7	3	n/a	n/a	n/a	n/a	n/a
2347.658	n/a	PROB	1173829	n/a	LTP137	ltpFR	13	n/a	n/a	n/a	n/a	n/a	n/a	6	2	1	3	n/a	n/a	n/a	n/a	n/a
2348.866	n/a	PROB	1174433	n/a	LTP137	ltpFR	13	n/a	n/a	n/a	n/a	n/a	n/a	19	7	6	6	n/a	n/a	n/a	n/a	n/a
2353.268	n/a	STOP	1176634	n/a	LTP137	ltpFR	13	n/a	n/a	n/a	n/a	n/a	n/a	n/a	n/a	n/a	n/a	n/a	n/a	n/a	n/a	n/a
2354.106	n/a	WORD	1177053	wordpools/wasnorm_wordpool.txt	LTP137	ltpFR	13	9	0	VEAL	1551	n/a	1	n/a	0	0	0	1	0.412841796875	0.57763671875	upper	../fonts/amplitud.ttf
2357.114	n/a	START	1178557	n/a	LTP137	ltpFR	13	n/a	n/a	n/a	n/a	n/a	n/a	n/a	n/a	n/a	n/a	n/a	n/a	n/a	n/a	n/a
2358.204	n/a	PROB	1179102	n/a	LTP137	ltpFR	13	n/a	n/a	n/a	n/a	n/a	n/a	11	4	1	6	n/a	n/a	n/a	n/a	n/a
2359.496	n/a	PROB	1179748	n/a	LTP137	ltpFR	13	n/a	n/a	n/a	n/a	n/a	n/a	12	6	3	3	n/a	n/a	n/a	n/a	n/a
2361.154	n/a	PROB	1180577	n/a	LTP137	ltpFR	13	n/a	n/a	n/a	n/a	n/a	n/a	23	9	6	8	n/a	n/a	n/a	n/a	n/a
2363.764	n/a	STOP	1181882	n/a	LTP137	ltpFR	13	n/a	n/a	n/a	n/a	n/a	n/a	n/a	n/a	n/a	n/a	n/a	n/a	n/a	n/a	n/a
2366.034	n/a	WORD	1183017	wordpools/wasnorm_wordpool.txt	LTP137	ltpFR	13	9	0	POISON	1096	n/a	0	n/a	0	0	0	1	0.412841796875	0.57763671875	upper	../fonts/amplitud.ttf
2369.044	n/a	START	1184522	n/a	LTP137	ltpFR	13	n/a	n/a	n/a	n/a	n/a	n/a	n/a	n/a	n/a	n/a	n/a	n/a	n/a	n/a	n/a
2370.034	n/a	PROB	1185017	n/a	LTP137	ltpFR	13	n/a	n/a	n/a	n/a	n/a	n/a	12	6	4	2	n/a	n/a	n/a	n/a	n/a
2371.308	n/a	PROB	1185654	n/a	LTP137	ltpFR	13	n/a	n/a	n/a	n/a	n/a	n/a	18	5	7	6	n/a	n/a	n/a	n/a	n/a
2374.074	n/a	PROB	1187037	n/a	LTP137	ltpFR	13	n/a	n/a	n/a	n/a	n/a	n/a	11	1	8	2	n/a	n/a	n/a	n/a	n/a
2375.89	n/a	STOP	1187945	n/a	LTP137	ltpFR	13	n/a	n/a	n/a	n/a	n/a	n/a	n/a	n/a	n/a	n/a	n/a	n/a	n/a	n/a	n/a
2378.232	n/a	WORD	1189116	wordpools/wasnorm_wordpool.txt	LTP137	ltpFR	13	9	0	TAR	1435	n/a	0	n/a	0	0	0	1	0.412841796875	0.57763671875	upper	../fonts/amplitud.ttf
2381.24	n/a	START	1190620	n/a	LTP137	ltpFR	13	n/a	n/a	n/a	n/a	n/a	n/a	n/a	n/a	n/a	n/a	n/a	n/a	n/a	n/a	n/a
2382.264	n/a	PROB	1191132	n/a	LTP137	ltpFR	13	n/a	n/a	n/a	n/a	n/a	n/a	18	9	8	1	n/a	n/a	n/a	n/a	n/a
2383.728	n/a	PROB	1191864	n/a	LTP137	ltpFR	13	n/a	n/a	n/a	n/a	n/a	n/a	21	4	8	9	n/a	n/a	n/a	n/a	n/a
2386.264	n/a	PROB	1193132	n/a	LTP137	ltpFR	13	n/a	n/a	n/a	n/a	n/a	n/a	13	1	3	9	n/a	n/a	n/a	n/a	n/a
2388.082	n/a	STOP	1194041	n/a	LTP137	ltpFR	13	n/a	n/a	n/a	n/a	n/a	n/a	n/a	n/a	n/a	n/a	n/a	n/a	n/a	n/a	n/a
2391.128	n/a	REC_START	1195564	n/a	LTP137	ltpFR	13	9	n/a	n/a	n/a	n/a	n/a	n/a	0	0	0	n/a	n/a	n/a	n/a	n/a
2394.794	n/a	REC_WORD	1197397	wordpools/wasnorm_wordpool.txt	LTP137	ltpFR	13	9	0	TAR	1435	n/a	0	n/a	0	0	0	n/a	n/a	n/a	n/a	n/a
2395.872	n/a	REC_WORD	1197936	wordpools/wasnorm_wordpool.txt	LTP137	ltpFR	13	9	0	GOBLIN	645	n/a	0	n/a	0	0	0	n/a	n/a	n/a	n/a	n/a
2397.488	n/a	REC_WORD	1198744	wordpools/wasnorm_wordpool.txt	LTP137	ltpFR	13	9	0	SHELTER	1282	n/a	1	n/a	0	0	0	n/a	n/a	n/a	n/a	n/a
2398.722	n/a	REC_WORD	1199361	wordpools/wasnorm_wordpool.txt	LTP137	ltpFR	13	9	0	SHACK	1273	n/a	1	n/a	0	0	0	n/a	n/a	n/a	n/a	n/a
2401.2	n/a	REC_WORD	1200600	wordpools/wasnorm_wordpool.txt	LTP137	ltpFR	13	9	0	DIAGRAM	456	n/a	0	n/a	0	0	0	n/a	n/a	n/a	n/a	n/a
2402.074	n/a	REC_WORD	1201037	wordpools/wasnorm_wordpool.txt	LTP137	ltpFR	13	9	0	SKETCH	1315	n/a	0	n/a	0	0	0	n/a	n/a	n/a	n/a	n/a
2403.724	n/a	REC_WORD	1201862	wordpools/wasnorm_wordpool.txt	LTP137	ltpFR	13	9	0	MOAT	903	n/a	1	n/a	0	0	0	n/a	n/a	n/a	n/a	n/a
2405.162	n/a	REC_WORD	1202581	wordpools/wasnorm_wordpool.txt	LTP137	ltpFR	13	9	0	HAMBURGER	679	n/a	1	n/a	0	0	0	n/a	n/a	n/a	n/a	n/a
2418.636	n/a	REC_WORD	1209318	wordpools/wasnorm_wordpool.txt	LTP137	ltpFR	13	9	0	CATTLE	261	n/a	1	n/a	0	0	0	n/a	n/a	n/a	n/a	n/a
2424.504	n/a	REC_WORD	1212252	wordpools/wasnorm_wordpool.txt	LTP137	ltpFR	13	9	0	POISON	1096	n/a	0	n/a	0	0	0	n/a	n/a	n/a	n/a	n/a
2425.458	n/a	REC_WORD	1212729	wordpools/wasnorm_wordpool.txt	LTP137	ltpFR	13	9	0	GOBLIN	645	n/a	0	n/a	0	0	0	n/a	n/a	n/a	n/a	n/a
2440.876	n/a	REC_WORD	1220438	wordpools/wasnorm_wordpool.txt	LTP137	ltpFR	13	9	0	ZEBRA	1635	n/a	1	n/a	0	0	0	n/a	n/a	n/a	n/a	n/a
2441.76	n/a	REC_WORD	1220880	wordpools/wasnorm_wordpool.txt	LTP137	ltpFR	13	9	0	AFRICA	9	n/a	1	n/a	0	0	0	n/a	n/a	n/a	n/a	n/a
2455.68	n/a	REC_WORD	1227840	wordpools/wasnorm_wordpool.txt	LTP137	ltpFR	13	9	0	PIER	1063	n/a	1	n/a	0	0	0	n/a	n/a	n/a	n/a	n/a
2505.11	n/a	WORD	1252555	wordpools/wasnorm_wordpool.txt	LTP137	ltpFR	13	10	1	BOTTLE	153	n/a	0	n/a	0	0	0	0	0.5869140625	0.422607421875	lower	../fonts/zerothre.ttf
2509.226	n/a	WORD	1254613	wordpools/wasnorm_wordpool.txt	LTP137	ltpFR	13	10	1	SCENERY	1247	n/a	0	n/a	0	0	0	0	0.5869140625	0.422607421875	lower	../fonts/zerothre.ttf
2513.366	n/a	WORD	1256683	wordpools/wasnorm_wordpool.txt	LTP137	ltpFR	13	10	1	WHEAT	1602	n/a	0	n/a	0	0	0	0	0.5869140625	0.422607421875	lower	../fonts/zerothre.ttf
2517.274	n/a	WORD	1258637	wordpools/wasnorm_wordpool.txt	LTP137	ltpFR	13	10	1	CUPBOARD	425	n/a	0	n/a	0	0	0	0	0.5869140625	0.422607421875	lower	../fonts/zerothre.ttf
2521.422	n/a	WORD	1260711	wordpools/wasnorm_wordpool.txt	LTP137	ltpFR	13	10	1	FLANNEL	574	n/a	0	n/a	0	0	0	0	0.5869140625	0.422607421875	lower	../fonts/zerothre.ttf
2525.304	n/a	WORD	1262652	wordpools/wasnorm_wordpool.txt	LTP137	ltpFR	13	10	1	DEPUTY	450	n/a	1	n/a	0	0	0	0	0.5869140625	0.422607421875	lower	../fonts/zerothre.ttf
2529.12	n/a	WORD	1264560	wordpools/wasnorm_wordpool.txt	LTP137	ltpFR	13	10	1	DETECTIVE	454	n/a	1	n/a	0	0	0	0	0.5869140625	0.422607421875	lower	../fonts/zerothre.ttf
2533.226	n/a	WORD	1266613	wordpools/wasnorm_wordpool.txt	LTP137	ltpFR	13	10	1	FLY	586	n/a	1	n/a	0	0	0	0	0.5869140625	0.422607421875	lower	../fonts/zerothre.ttf
2537.21	n/a	WORD	1268605	wordpools/wasnorm_wordpool.txt	LTP137	ltpFR	13	10	1	WINGS	1614	n/a	0	n/a	0	0	0	0	0.5869140625	0.422607421875	lower	../fonts/zerothre.ttf
2541.124	n/a	WORD	1270562	wordpools/wasnorm_wordpool.txt	LTP137	ltpFR	13	10	1	BANANA	77	n/a	0	n/a	0	0	0	0	0.5869140625	0.422607421875	lower	../fonts/zerothre.ttf
2545.156	n/a	WORD	1272578	wordpools/wasnorm_wordpool.txt	LTP137	ltpFR	13	10	1	ANCHOR	21	n/a	0	n/a	0	0	0	0	0.5869140625	0.422607421875	lower	../fonts/zerothre.ttf
2549.054	n/a	WORD	1274527	wordpools/wasnorm_wordpool.txt	LTP137	ltpFR	13	10	1	PASSENGER	1020	n/a	1	n/a	0	0	0	0	0.5869140625	0.422607421875	lower	../fonts/zerothre.ttf
2553.254	n/a	WORD	1276627	wordpools/wasnorm_wordpool.txt	LTP137	ltpFR	13	10	1	NERVE	944	n/a	0	n/a	0	0	0	0	0.5869140625	0.422607421875	lower	../fonts/zerothre.ttf
2557.162	n/a	WORD	1278581	wordpools/wasnorm_wordpool.txt	LTP137	ltpFR	13	10	1	STRAWBERRY	1391	n/a	0	n/a	0	0	0	0	0.5869140625	0.422607421875	lower	../fonts/zerothre.ttf
2561.344	n/a	WORD	1280672	wordpools/wasnorm_wordpool.txt	LTP137	ltpFR	13	10	1	WATER	1594	n/a	0	n/a	0	0	0	0	0.5869140625	0.422607421875	lower	../fonts/zerothre.ttf
2565.492	n/a	WORD	1282746	wordpools/wasnorm_wordpool.txt	LTP137	ltpFR	13	10	1	FRAME	600	n/a	0	n/a	0	0	0	0	0.5869140625	0.422607421875	lower	../fonts/zerothre.ttf
2568.5	n/a	START	1284250	n/a	LTP137	ltpFR	13	n/a	n/a	n/a	n/a	n/a	n/a	n/a	n/a	n/a	n/a	n/a	n/a	n/a	n/a	n/a
2569.432	n/a	PROB	1284716	n/a	LTP137	ltpFR	13	n/a	n/a	n/a	n/a	n/a	n/a	13	2	5	6	n/a	n/a	n/a	n/a	n/a
2571.422	n/a	PROB	1285711	n/a	LTP137	ltpFR	13	n/a	n/a	n/a	n/a	n/a	n/a	16	3	9	4	n/a	n/a	n/a	n/a	n/a
2573.364	n/a	PROB	1286682	n/a	LTP137	ltpFR	13	n/a	n/a	n/a	n/a	n/a	n/a	15	4	3	8	n/a	n/a	n/a	n/a	n/a
2574.964	n/a	STOP	1287482	n/a	LTP137	ltpFR	13	n/a	n/a	n/a	n/a	n/a	n/a	n/a	n/a	n/a	n/a	n/a	n/a	n/a	n/a	n/a
2578.314	n/a	REC_START	1289157	n/a	LTP137	ltpFR	13	10	n/a	n/a	n/a	n/a	n/a	n/a	0	0	0	n/a	n/a	n/a	n/a	n/a
2580.782	n/a	REC_WORD	1290391	wordpools/wasnorm_wordpool.txt	LTP137	ltpFR	13	10	1	BOTTLE	153	n/a	0	n/a	0	0	0	n/a	n/a	n/a	n/a	n/a
2581.436	n/a	REC_WORD	1290718	wordpools/wasnorm_wordpool.txt	LTP137	ltpFR	13	10	1	SCENERY	1247	n/a	0	n/a	0	0	0	n/a	n/a	n/a	n/a	n/a
2582.504	n/a	REC_WORD	1291252	wordpools/wasnorm_wordpool.txt	LTP137	ltpFR	13	10	1	STRAWBERRY	1391	n/a	0	n/a	0	0	0	n/a	n/a	n/a	n/a	n/a
2584.768	n/a	REC_WORD	1292384	wordpools/wasnorm_wordpool.txt	LTP137	ltpFR	13	10	1	ANCHOR	21	n/a	0	n/a	0	0	0	n/a	n/a	n/a	n/a	n/a
2585.716	n/a	REC_WORD	1292858	wordpools/wasnorm_wordpool.txt	LTP137	ltpFR	13	10	1	CABINET	212	n/a	0	n/a	0	0	0	n/a	n/a	n/a	n/a	n/a
2588.484	n/a	REC_WORD	1294242	wordpools/wasnorm_wordpool.txt	LTP137	ltpFR	13	10	1	DEPUTY	450	n/a	1	n/a	0	0	0	n/a	n/a	n/a	n/a	n/a
2589.478	n/a	REC_WORD	1294739	wordpools/wasnorm_wordpool.txt	LTP137	ltpFR	13	10	1	DETECTIVE	454	n/a	1	n/a	0	0	0	n/a	n/a	n/a	n/a	n/a
2590.72	n/a	REC_WORD	1295360	wordpools/wasnorm_wordpool.txt	LTP137	ltpFR	13	10	1	NERVE	944	n/a	0	n/a	0	0	0	n/a	n/a	n/a	n/a	n/a
2592.502	n/a	REC_WORD	1296251	wordpools/wasnorm_wordpool.txt	LTP137	ltpFR	13	10	1	FLY	586	n/a	1	n/a	0	0	0	n/a	n/a	n/a	n/a	n/a
2593.55	n/a	REC_WORD	1296775	wordpools/wasnorm_wordpool.txt	LTP137	ltpFR	13	10	1	WINGS	1614	n/a	0	n/a	0	0	0	n/a	n/a	n/a	n/a	n/a
2595.556	n/a	REC_WORD	1297778	wordpools/wasnorm_wordpool.txt	LTP137	ltpFR	13	10	1	WATER	1594	n/a	0	n/a	0	0	0	n/a	n/a	n/a	n/a	n/a
2596.568	n/a	REC_WORD	1298284	wordpools/wasnorm_wordpool.txt	LTP137	ltpFR	13	10	1	BANANA	77	n/a	0	n/a	0	0	0	n/a	n/a	n/a	n/a	n/a
2602.324	n/a	REC_WORD	1301162	wordpools/wasnorm_wordpool.txt	LTP137	ltpFR	13	10	1	CUPBOARD	425	n/a	0	n/a	0	0	0	n/a	n/a	n/a	n/a	n/a
2653.898	n/a	REST_REWET	1326949	n/a	LTP137	ltpFR	13	10	n/a	n/a	n/a	n/a	n/a	n/a	0	0	0	n/a	n/a	n/a	n/a	n/a
3211.322	n/a	START	1605661	n/a	LTP137	ltpFR	13	n/a	n/a	n/a	n/a	n/a	n/a	n/a	n/a	n/a	n/a	n/a	n/a	n/a	n/a	n/a
3212.828	n/a	PROB	1606414	n/a	LTP137	ltpFR	13	n/a	n/a	n/a	n/a	n/a	n/a	13	2	8	3	n/a	n/a	n/a	n/a	n/a
3214.304	n/a	PROB	1607152	n/a	LTP137	ltpFR	13	n/a	n/a	n/a	n/a	n/a	n/a	24	9	7	8	n/a	n/a	n/a	n/a	n/a
3216.262	n/a	PROB	1608131	n/a	LTP137	ltpFR	13	n/a	n/a	n/a	n/a	n/a	n/a	19	3	9	7	n/a	n/a	n/a	n/a	n/a
3217.936	n/a	PROB	1608968	n/a	LTP137	ltpFR	13	n/a	n/a	n/a	n/a	n/a	n/a	12	5	6	1	n/a	n/a	n/a	n/a	n/a
3219.336	n/a	PROB	1609668	n/a	LTP137	ltpFR	13	n/a	n/a	n/a	n/a	n/a	n/a	12	7	1	4	n/a	n/a	n/a	n/a	n/a
3221.052	n/a	PROB	1610526	n/a	LTP137	ltpFR	13	n/a	n/a	n/a	n/a	n/a	n/a	16	3	5	8	n/a	n/a	n/a	n/a	n/a
3222.768	n/a	PROB	1611384	n/a	LTP137	ltpFR	13	n/a	n/a	n/a	n/a	n/a	n/a	22	9	7	6	n/a	n/a	n/a	n/a	n/a
3226.278	n/a	STOP	1613139	n/a	LTP137	ltpFR	13	n/a	n/a	n/a	n/a	n/a	n/a	n/a	n/a	n/a	n/a	n/a	n/a	n/a	n/a	n/a
3228.442	n/a	WORD	1614221	wordpools/wasnorm_wordpool.txt	LTP137	ltpFR	13	11	1	PEPPER	1047	n/a	0	n/a	0	0	0	0	0.5869140625	0.422607421875	lower	../fonts/zerothre.ttf
3231.45	n/a	START	1615725	n/a	LTP137	ltpFR	13	n/a	n/a	n/a	n/a	n/a	n/a	n/a	n/a	n/a	n/a	n/a	n/a	n/a	n/a	n/a
3232.258	n/a	PROB	1616129	n/a	LTP137	ltpFR	13	n/a	n/a	n/a	n/a	n/a	n/a	16	5	3	8	n/a	n/a	n/a	n/a	n/a
3235.24	n/a	PROB	1617620	n/a	LTP137	ltpFR	13	n/a	n/a	n/a	n/a	n/a	n/a	5	1	1	3	n/a	n/a	n/a	n/a	n/a
3236.28	n/a	PROB	1618140	n/a	LTP137	ltpFR	13	n/a	n/a	n/a	n/a	n/a	n/a	12	4	1	7	n/a	n/a	n/a	n/a	n/a
3237.68	n/a	PROB	1618840	n/a	LTP137	ltpFR	13	n/a	n/a	n/a	n/a	n/a	n/a	20	4	7	9	n/a	n/a	n/a	n/a	n/a
3239.93	n/a	PROB	1619965	n/a	LTP137	ltpFR	13	n/a	n/a	n/a	n/a	n/a	n/a	16	2	7	7	n/a	n/a	n/a	n/a	n/a
3241.63	n/a	PROB	1620815	n/a	LTP137	ltpFR	13	n/a	n/a	n/a	n/a	n/a	n/a	18	2	6	9	n/a	n/a	n/a	n/a	n/a
3247.448	n/a	STOP	1623724	n/a	LTP137	ltpFR	13	n/a	n/a	n/a	n/a	n/a	n/a	n/a	n/a	n/a	n/a	n/a	n/a	n/a	n/a	n/a
3248.644	n/a	WORD	1624322	wordpools/wasnorm_wordpool.txt	LTP137	ltpFR	13	11	1	CLOVE	329	n/a	0	n/a	0	0	0	0	0.5869140625	0.422607421875	lower	../fonts/zerothre.ttf
3251.652	n/a	START	1625826	n/a	LTP137	ltpFR	13	n/a	n/a	n/a	n/a	n/a	n/a	n/a	n/a	n/a	n/a	n/a	n/a	n/a	n/a	n/a
3252.534	n/a	PROB	1626267	n/a	LTP137	ltpFR	13	n/a	n/a	n/a	n/a	n/a	n/a	13	8	1	4	n/a	n/a	n/a	n/a	n/a
3253.75	n/a	PROB	1626875	n/a	LTP137	ltpFR	13	n/a	n/a	n/a	n/a	n/a	n/a	15	9	1	5	n/a	n/a	n/a	n/a	n/a
3255.808	n/a	PROB	1627904	n/a	LTP137	ltpFR	13	n/a	n/a	n/a	n/a	n/a	n/a	15	2	8	5	n/a	n/a	n/a	n/a	n/a
3258.066	n/a	PROB	1629033	n/a	LTP137	ltpFR	13	n/a	n/a	n/a	n/a	n/a	n/a	22	9	8	5	n/a	n/a	n/a	n/a	n/a
3260.656	n/a	PROB	1630328	n/a	LTP137	ltpFR	13	n/a	n/a	n/a	n/a	n/a	n/a	18	5	5	8	n/a	n/a	n/a	n/a	n/a
3262.082	n/a	PROB	1631041	n/a	LTP137	ltpFR	13	n/a	n/a	n/a	n/a	n/a	n/a	13	2	8	3	n/a	n/a	n/a	n/a	n/a
3263.564	n/a	PROB	1631782	n/a	LTP137	ltpFR	13	n/a	n/a	n/a	n/a	n/a	n/a	17	2	6	9	n/a	n/a	n/a	n/a	n/a
3266.28	n/a	STOP	1633140	n/a	LTP137	ltpFR	13	n/a	n/a	n/a	n/a	n/a	n/a	n/a	n/a	n/a	n/a	n/a	n/a	n/a	n/a	n/a
3268.746	n/a	WORD	1634373	wordpools/wasnorm_wordpool.txt	LTP137	ltpFR	13	11	1	WHALE	1601	n/a	1	n/a	0	0	0	0	0.5869140625	0.422607421875	lower	../fonts/zerothre.ttf
3271.754	n/a	START	1635877	n/a	LTP137	ltpFR	13	n/a	n/a	n/a	n/a	n/a	n/a	n/a	n/a	n/a	n/a	n/a	n/a	n/a	n/a	n/a
3272.612	n/a	PROB	1636306	n/a	LTP137	ltpFR	13	n/a	n/a	n/a	n/a	n/a	n/a	15	6	4	5	n/a	n/a	n/a	n/a	n/a
3274.02	n/a	PROB	1637010	n/a	LTP137	ltpFR	13	n/a	n/a	n/a	n/a	n/a	n/a	13	2	5	6	n/a	n/a	n/a	n/a	n/a
3275.834	n/a	PROB	1637917	n/a	LTP137	ltpFR	13	n/a	n/a	n/a	n/a	n/a	n/a	15	9	5	1	n/a	n/a	n/a	n/a	n/a
3277.476	n/a	PROB	1638738	n/a	LTP137	ltpFR	13	n/a	n/a	n/a	n/a	n/a	n/a	9	2	3	4	n/a	n/a	n/a	n/a	n/a
3279.76	n/a	PROB	1639880	n/a	LTP137	ltpFR	13	n/a	n/a	n/a	n/a	n/a	n/a	15	7	1	7	n/a	n/a	n/a	n/a	n/a
3281.0	n/a	PROB	1640500	n/a	LTP137	ltpFR	13	n/a	n/a	n/a	n/a	n/a	n/a	7	2	2	3	n/a	n/a	n/a	n/a	n/a
3283.05	n/a	PROB	1641525	n/a	LTP137	ltpFR	13	n/a	n/a	n/a	n/a	n/a	n/a	15	7	2	6	n/a	n/a	n/a	n/a	n/a
3284.774	n/a	PROB	1642387	n/a	LTP137	ltpFR	13	n/a	n/a	n/a	n/a	n/a	n/a	16	1	8	7	n/a	n/a	n/a	n/a	n/a
3285.966	n/a	PROB	1642983	n/a	LTP137	ltpFR	13	n/a	n/a	n/a	n/a	n/a	n/a	9	2	4	3	n/a	n/a	n/a	n/a	n/a
3287.514	n/a	STOP	1643757	n/a	LTP137	ltpFR	13	n/a	n/a	n/a	n/a	n/a	n/a	n/a	n/a	n/a	n/a	n/a	n/a	n/a	n/a	n/a
3288.69	n/a	WORD	1644345	wordpools/wasnorm_wordpool.txt	LTP137	ltpFR	13	11	1	DIPLOMA	470	n/a	0	n/a	0	0	0	0	0.5869140625	0.422607421875	lower	../fonts/zerothre.ttf
3291.698	n/a	START	1645849	n/a	LTP137	ltpFR	13	n/a	n/a	n/a	n/a	n/a	n/a	n/a	n/a	n/a	n/a	n/a	n/a	n/a	n/a	n/a
3292.788	n/a	PROB	1646394	n/a	LTP137	ltpFR	13	n/a	n/a	n/a	n/a	n/a	n/a	18	5	6	7	n/a	n/a	n/a	n/a	n/a
3294.704	n/a	PROB	1647352	n/a	LTP137	ltpFR	13	n/a	n/a	n/a	n/a	n/a	n/a	11	6	4	1	n/a	n/a	n/a	n/a	n/a
3295.846	n/a	PROB	1647923	n/a	LTP137	ltpFR	13	n/a	n/a	n/a	n/a	n/a	n/a	17	4	7	6	n/a	n/a	n/a	n/a	n/a
3298.154	n/a	PROB	1649077	n/a	LTP137	ltpFR	13	n/a	n/a	n/a	n/a	n/a	n/a	10	2	2	6	n/a	n/a	n/a	n/a	n/a
3299.644	n/a	PROB	1649822	n/a	LTP137	ltpFR	13	n/a	n/a	n/a	n/a	n/a	n/a	17	4	4	9	n/a	n/a	n/a	n/a	n/a
3301.444	n/a	PROB	1650722	n/a	LTP137	ltpFR	13	n/a	n/a	n/a	n/a	n/a	n/a	10	3	3	4	n/a	n/a	n/a	n/a	n/a
3303.276	n/a	PROB	1651638	n/a	LTP137	ltpFR	13	n/a	n/a	n/a	n/a	n/a	n/a	14	6	7	1	n/a	n/a	n/a	n/a	n/a
3304.684	n/a	PROB	1652342	n/a	LTP137	ltpFR	13	n/a	n/a	n/a	n/a	n/a	n/a	23	9	8	6	n/a	n/a	n/a	n/a	n/a
3307.392	n/a	STOP	1653696	n/a	LTP137	ltpFR	13	n/a	n/a	n/a	n/a	n/a	n/a	n/a	n/a	n/a	n/a	n/a	n/a	n/a	n/a	n/a
3308.892	n/a	WORD	1654446	wordpools/wasnorm_wordpool.txt	LTP137	ltpFR	13	11	1	SCALPEL	1243	n/a	0	n/a	0	0	0	0	0.5869140625	0.422607421875	lower	../fonts/zerothre.ttf
3311.9	n/a	START	1655950	n/a	LTP137	ltpFR	13	n/a	n/a	n/a	n/a	n/a	n/a	n/a	n/a	n/a	n/a	n/a	n/a	n/a	n/a	n/a
3312.758	n/a	PROB	1656379	n/a	LTP137	ltpFR	13	n/a	n/a	n/a	n/a	n/a	n/a	7	4	1	2	n/a	n/a	n/a	n/a	n/a
3314.79	n/a	PROB	1657395	n/a	LTP137	ltpFR	13	n/a	n/a	n/a	n/a	n/a	n/a	18	5	4	9	n/a	n/a	n/a	n/a	n/a
3318.298	n/a	PROB	1659149	n/a	LTP137	ltpFR	13	n/a	n/a	n/a	n/a	n/a	n/a	14	6	5	3	n/a	n/a	n/a	n/a	n/a
3321.038	n/a	PROB	1660519	n/a	LTP137	ltpFR	13	n/a	n/a	n/a	n/a	n/a	n/a	5	1	2	2	n/a	n/a	n/a	n/a	n/a
3322.212	n/a	PROB	1661106	n/a	LTP137	ltpFR	13	n/a	n/a	n/a	n/a	n/a	n/a	14	7	1	6	n/a	n/a	n/a	n/a	n/a
3323.654	n/a	PROB	1661827	n/a	LTP137	ltpFR	13	n/a	n/a	n/a	n/a	n/a	n/a	19	6	8	5	n/a	n/a	n/a	n/a	n/a
3326.812	n/a	STOP	1663406	n/a	LTP137	ltpFR	13	n/a	n/a	n/a	n/a	n/a	n/a	n/a	n/a	n/a	n/a	n/a	n/a	n/a	n/a	n/a
3329.028	n/a	WORD	1664514	wordpools/wasnorm_wordpool.txt	LTP137	ltpFR	13	11	1	BIOLOGIST	128	n/a	1	n/a	0	0	0	0	0.5869140625	0.422607421875	lower	../fonts/zerothre.ttf
3332.036	n/a	START	1666018	n/a	LTP137	ltpFR	13	n/a	n/a	n/a	n/a	n/a	n/a	n/a	n/a	n/a	n/a	n/a	n/a	n/a	n/a	n/a
3333.144	n/a	PROB	1666572	n/a	LTP137	ltpFR	13	n/a	n/a	n/a	n/a	n/a	n/a	17	9	3	5	n/a	n/a	n/a	n/a	n/a
3335.068	n/a	PROB	1667534	n/a	LTP137	ltpFR	13	n/a	n/a	n/a	n/a	n/a	n/a	15	3	5	7	n/a	n/a	n/a	n/a	n/a
3336.692	n/a	PROB	1668346	n/a	LTP137	ltpFR	13	n/a	n/a	n/a	n/a	n/a	n/a	8	1	2	5	n/a	n/a	n/a	n/a	n/a
3338.108	n/a	PROB	1669054	n/a	LTP137	ltpFR	13	n/a	n/a	n/a	n/a	n/a	n/a	15	9	1	5	n/a	n/a	n/a	n/a	n/a
3339.832	n/a	PROB	1669916	n/a	LTP137	ltpFR	13	n/a	n/a	n/a	n/a	n/a	n/a	12	3	2	7	n/a	n/a	n/a	n/a	n/a
3341.532	n/a	PROB	1670766	n/a	LTP137	ltpFR	13	n/a	n/a	n/a	n/a	n/a	n/a	19	7	5	7	n/a	n/a	n/a	n/a	n/a
3343.864	n/a	PROB	1671932	n/a	LTP137	ltpFR	13	n/a	n/a	n/a	n/a	n/a	n/a	9	1	2	6	n/a	n/a	n/a	n/a	n/a
3345.156	n/a	PROB	1672578	n/a	LTP137	ltpFR	13	n/a	n/a	n/a	n/a	n/a	n/a	20	8	5	7	n/a	n/a	n/a	n/a	n/a
3347.03	n/a	STOP	1673515	n/a	LTP137	ltpFR	13	n/a	n/a	n/a	n/a	n/a	n/a	n/a	n/a	n/a	n/a	n/a	n/a	n/a	n/a	n/a
3349.238	n/a	WORD	1674619	wordpools/wasnorm_wordpool.txt	LTP137	ltpFR	13	11	1	HOSTAGE	722	n/a	1	n/a	0	0	0	0	0.5869140625	0.422607421875	lower	../fonts/zerothre.ttf
3352.246	n/a	START	1676123	n/a	LTP137	ltpFR	13	n/a	n/a	n/a	n/a	n/a	n/a	n/a	n/a	n/a	n/a	n/a	n/a	n/a	n/a	n/a
3353.07	n/a	PROB	1676535	n/a	LTP137	ltpFR	13	n/a	n/a	n/a	n/a	n/a	n/a	9	1	7	1	n/a	n/a	n/a	n/a	n/a
3354.828	n/a	PROB	1677414	n/a	LTP137	ltpFR	13	n/a	n/a	n/a	n/a	n/a	n/a	6	1	1	4	n/a	n/a	n/a	n/a	n/a
3356.402	n/a	PROB	1678201	n/a	LTP137	ltpFR	13	n/a	n/a	n/a	n/a	n/a	n/a	16	6	2	8	n/a	n/a	n/a	n/a	n/a
3357.928	n/a	PROB	1678964	n/a	LTP137	ltpFR	13	n/a	n/a	n/a	n/a	n/a	n/a	11	6	4	1	n/a	n/a	n/a	n/a	n/a
3359.01	n/a	PROB	1679505	n/a	LTP137	ltpFR	13	n/a	n/a	n/a	n/a	n/a	n/a	20	7	9	4	n/a	n/a	n/a	n/a	n/a
3361.342	n/a	PROB	1680671	n/a	LTP137	ltpFR	13	n/a	n/a	n/a	n/a	n/a	n/a	10	1	2	7	n/a	n/a	n/a	n/a	n/a
3362.642	n/a	PROB	1681321	n/a	LTP137	ltpFR	13	n/a	n/a	n/a	n/a	n/a	n/a	13	2	9	2	n/a	n/a	n/a	n/a	n/a
3364.882	n/a	PROB	1682441	n/a	LTP137	ltpFR	13	n/a	n/a	n/a	n/a	n/a	n/a	14	4	3	7	n/a	n/a	n/a	n/a	n/a
3366.058	n/a	PROB	1683029	n/a	LTP137	ltpFR	13	n/a	n/a	n/a	n/a	n/a	n/a	6	4	1	1	n/a	n/a	n/a	n/a	n/a
3367.022	n/a	STOP	1683511	n/a	LTP137	ltpFR	13	n/a	n/a	n/a	n/a	n/a	n/a	n/a	n/a	n/a	n/a	n/a	n/a	n/a	n/a	n/a
3369.35	n/a	WORD	1684675	wordpools/wasnorm_wordpool.txt	LTP137	ltpFR	13	11	1	SLIME	1327	n/a	0	n/a	0	0	0	0	0.5869140625	0.422607421875	lower	../fonts/zerothre.ttf
3372.356	n/a	START	1686178	n/a	LTP137	ltpFR	13	n/a	n/a	n/a	n/a	n/a	n/a	n/a	n/a	n/a	n/a	n/a	n/a	n/a	n/a	n/a
3373.29	n/a	PROB	1686645	n/a	LTP137	ltpFR	13	n/a	n/a	n/a	n/a	n/a	n/a	8	1	6	1	n/a	n/a	n/a	n/a	n/a
3374.822	n/a	PROB	1687411	n/a	LTP137	ltpFR	13	n/a	n/a	n/a	n/a	n/a	n/a	10	5	1	4	n/a	n/a	n/a	n/a	n/a
3376.346	n/a	PROB	1688173	n/a	LTP137	ltpFR	13	n/a	n/a	n/a	n/a	n/a	n/a	21	6	7	8	n/a	n/a	n/a	n/a	n/a
3378.096	n/a	PROB	1689048	n/a	LTP137	ltpFR	13	n/a	n/a	n/a	n/a	n/a	n/a	11	4	4	3	n/a	n/a	n/a	n/a	n/a
3380.504	n/a	PROB	1690252	n/a	LTP137	ltpFR	13	n/a	n/a	n/a	n/a	n/a	n/a	22	7	8	7	n/a	n/a	n/a	n/a	n/a
3382.32	n/a	PROB	1691160	n/a	LTP137	ltpFR	13	n/a	n/a	n/a	n/a	n/a	n/a	18	9	4	5	n/a	n/a	n/a	n/a	n/a
3383.904	n/a	PROB	1691952	n/a	LTP137	ltpFR	13	n/a	n/a	n/a	n/a	n/a	n/a	14	9	4	1	n/a	n/a	n/a	n/a	n/a
3386.17	n/a	PROB	1693085	n/a	LTP137	ltpFR	13	n/a	n/a	n/a	n/a	n/a	n/a	13	2	4	7	n/a	n/a	n/a	n/a	n/a
3387.888	n/a	STOP	1693944	n/a	LTP137	ltpFR	13	n/a	n/a	n/a	n/a	n/a	n/a	n/a	n/a	n/a	n/a	n/a	n/a	n/a	n/a	n/a
3389.176	n/a	WORD	1694588	wordpools/wasnorm_wordpool.txt	LTP137	ltpFR	13	11	1	HOOK	715	n/a	0	n/a	0	0	0	0	0.5869140625	0.422607421875	lower	../fonts/zerothre.ttf
3392.184	n/a	START	1696092	n/a	LTP137	ltpFR	13	n/a	n/a	n/a	n/a	n/a	n/a	n/a	n/a	n/a	n/a	n/a	n/a	n/a	n/a	n/a
3393.208	n/a	PROB	1696604	n/a	LTP137	ltpFR	13	n/a	n/a	n/a	n/a	n/a	n/a	11	1	9	1	n/a	n/a	n/a	n/a	n/a
3394.758	n/a	PROB	1697379	n/a	LTP137	ltpFR	13	n/a	n/a	n/a	n/a	n/a	n/a	16	6	3	7	n/a	n/a	n/a	n/a	n/a
3396.008	n/a	PROB	1698004	n/a	LTP137	ltpFR	13	n/a	n/a	n/a	n/a	n/a	n/a	23	7	8	8	n/a	n/a	n/a	n/a	n/a
3397.974	n/a	PROB	1698987	n/a	LTP137	ltpFR	13	n/a	n/a	n/a	n/a	n/a	n/a	21	3	9	9	n/a	n/a	n/a	n/a	n/a
