onset	duration	trial_type	sample	stim_file	subject	experiment	session	trial	item_name	item_num	list	answer	test_x	test_y	test_z
207.71630859375	n/a	SESS_START	425403	n/a	LTP387	ltpFR2	5	n/a	n/a	n/a	n/a	n/a	0	0	0
222.55224609375	n/a	START	455787	n/a	LTP387	ltpFR2	5	n/a	n/a	n/a	-1	n/a	n/a	n/a	n/a
222.58203125	n/a	PROB	455848	n/a	LTP387	ltpFR2	5	n/a	n/a	n/a	-1	13	5	5	3
224.59912109375	n/a	PROB	459979	n/a	LTP387	ltpFR2	5	n/a	n/a	n/a	-1	15	1	5	9
226.51611328125	n/a	PROB	463905	n/a	LTP387	ltpFR2	5	n/a	n/a	n/a	-1	18	3	8	7
228.33203125	n/a	PROB	467624	n/a	LTP387	ltpFR2	5	n/a	n/a	n/a	-1	11	1	5	5
229.98193359375	n/a	PROB	471003	n/a	LTP387	ltpFR2	5	n/a	n/a	n/a	-1	13	4	8	1
231.7158203125	n/a	PROB	474554	n/a	LTP387	ltpFR2	5	n/a	n/a	n/a	-1	20	8	7	5
233.62158203125	n/a	STOP	478457	n/a	LTP387	ltpFR2	5	n/a	n/a	n/a	-1	n/a	n/a	n/a	n/a
272.46337890625	n/a	WORD	558005	wordpools/wasnorm_wordpool_576.txt	LTP387	ltpFR2	5	1	PADDLE	1000	n/a	n/a	0	0	0
274.896484375	n/a	WORD	562988	wordpools/wasnorm_wordpool_576.txt	LTP387	ltpFR2	5	1	FOOT	590	n/a	n/a	0	0	0
277.38037109375	n/a	WORD	568075	wordpools/wasnorm_wordpool_576.txt	LTP387	ltpFR2	5	1	LEOPARD	812	n/a	n/a	0	0	0
280.13037109375	n/a	WORD	573707	wordpools/wasnorm_wordpool_576.txt	LTP387	ltpFR2	5	1	ARM	38	n/a	n/a	0	0	0
282.93017578125	n/a	WORD	579441	wordpools/wasnorm_wordpool_576.txt	LTP387	ltpFR2	5	1	ROBIN	1199	n/a	n/a	0	0	0
285.6962890625	n/a	WORD	585106	wordpools/wasnorm_wordpool_576.txt	LTP387	ltpFR2	5	1	BARLEY	88	n/a	n/a	0	0	0
288.42919921875	n/a	WORD	590703	wordpools/wasnorm_wordpool_576.txt	LTP387	ltpFR2	5	1	GLOVE	642	n/a	n/a	0	0	0
291.2470703125	n/a	WORD	596474	wordpools/wasnorm_wordpool_576.txt	LTP387	ltpFR2	5	1	PANTHER	1009	n/a	n/a	0	0	0
293.9130859375	n/a	WORD	601934	wordpools/wasnorm_wordpool_576.txt	LTP387	ltpFR2	5	1	MARINE	869	n/a	n/a	0	0	0
296.64599609375	n/a	WORD	607531	wordpools/wasnorm_wordpool_576.txt	LTP387	ltpFR2	5	1	SWIMMER	1420	n/a	n/a	0	0	0
299.24658203125	n/a	WORD	612857	wordpools/wasnorm_wordpool_576.txt	LTP387	ltpFR2	5	1	FARMER	553	n/a	n/a	0	0	0
301.7958984375	n/a	WORD	618078	wordpools/wasnorm_wordpool_576.txt	LTP387	ltpFR2	5	1	BOARD	143	n/a	n/a	0	0	0
304.3125	n/a	WORD	623232	wordpools/wasnorm_wordpool_576.txt	LTP387	ltpFR2	5	1	BULLET	194	n/a	n/a	0	0	0
306.79541015625	n/a	WORD	628317	wordpools/wasnorm_wordpool_576.txt	LTP387	ltpFR2	5	1	PRINCE	1124	n/a	n/a	0	0	0
309.59521484375	n/a	WORD	634051	wordpools/wasnorm_wordpool_576.txt	LTP387	ltpFR2	5	1	HORSE	719	n/a	n/a	0	0	0
312.279296875	n/a	WORD	639548	wordpools/wasnorm_wordpool_576.txt	LTP387	ltpFR2	5	1	GAVEL	627	n/a	n/a	0	0	0
315.09521484375	n/a	WORD	645315	wordpools/wasnorm_wordpool_576.txt	LTP387	ltpFR2	5	1	PLIERS	1089	n/a	n/a	0	0	0
317.9111328125	n/a	WORD	651082	wordpools/wasnorm_wordpool_576.txt	LTP387	ltpFR2	5	1	SNACK	1331	n/a	n/a	0	0	0
320.7109375	n/a	WORD	656816	wordpools/wasnorm_wordpool_576.txt	LTP387	ltpFR2	5	1	STOMACH	1384	n/a	n/a	0	0	0
323.4609375	n/a	WORD	662448	wordpools/wasnorm_wordpool_576.txt	LTP387	ltpFR2	5	1	MOTOR	922	n/a	n/a	0	0	0
326.22900390625	n/a	WORD	668117	wordpools/wasnorm_wordpool_576.txt	LTP387	ltpFR2	5	1	PUDDING	1139	n/a	n/a	0	0	0
328.677734375	n/a	WORD	673132	wordpools/wasnorm_wordpool_576.txt	LTP387	ltpFR2	5	1	GARLIC	624	n/a	n/a	0	0	0
331.36083984375	n/a	WORD	678627	wordpools/wasnorm_wordpool_576.txt	LTP387	ltpFR2	5	1	SODA	1341	n/a	n/a	0	0	0
334.1435546875	n/a	WORD	684326	wordpools/wasnorm_wordpool_576.txt	LTP387	ltpFR2	5	1	BOUQUET	157	n/a	n/a	0	0	0
335.7607421875	n/a	START	687638	n/a	LTP387	ltpFR2	5	n/a	n/a	n/a	1	n/a	n/a	n/a	n/a
336.61181640625	n/a	DISTRACTOR	689381	n/a	LTP387	ltpFR2	5	1	n/a	n/a	n/a	n/a	0	0	0
336.62744140625	n/a	PROB	689413	n/a	LTP387	ltpFR2	5	n/a	n/a	n/a	1	14	9	3	2
338.6435546875	n/a	PROB	693542	n/a	LTP387	ltpFR2	5	n/a	n/a	n/a	1	6	3	1	2
340.810546875	n/a	PROB	697980	n/a	LTP387	ltpFR2	5	n/a	n/a	n/a	1	15	4	3	8
342.57763671875	n/a	PROB	701599	n/a	LTP387	ltpFR2	5	n/a	n/a	n/a	1	12	5	3	4
345.04345703125	n/a	PROB	706649	n/a	LTP387	ltpFR2	5	n/a	n/a	n/a	1	14	8	2	4
346.3935546875	n/a	PROB	709414	n/a	LTP387	ltpFR2	5	n/a	n/a	n/a	1	10	5	3	2
347.8603515625	n/a	PROB	712418	n/a	LTP387	ltpFR2	5	n/a	n/a	n/a	1	17	6	9	2
350.1103515625	n/a	PROB	717026	n/a	LTP387	ltpFR2	5	n/a	n/a	n/a	1	13	7	3	3
353.42626953125	n/a	PROB	723817	n/a	LTP387	ltpFR2	5	n/a	n/a	n/a	1	13	1	3	9
355.22705078125	n/a	PROB	727505	n/a	LTP387	ltpFR2	5	n/a	n/a	n/a	1	19	5	7	7
357.02587890625	n/a	PROB	731189	n/a	LTP387	ltpFR2	5	n/a	n/a	n/a	1	17	2	9	6
359.0927734375	n/a	STOP	735422	n/a	LTP387	ltpFR2	5	n/a	n/a	n/a	1	n/a	n/a	n/a	n/a
361.6767578125	n/a	REC_START	740714	n/a	LTP387	ltpFR2	5	1	n/a	n/a	n/a	n/a	0	0	0
363.15673828125	n/a	REC_WORD	743745	wordpools/wasnorm_wordpool_576.txt	LTP387	ltpFR2	5	1	PADDLE	1000	n/a	n/a	0	0	0
364.134765625	n/a	REC_WORD	745748	wordpools/wasnorm_wordpool_576.txt	LTP387	ltpFR2	5	1	FOOT	590	n/a	n/a	0	0	0
365.28564453125	n/a	REC_WORD	748105	wordpools/wasnorm_wordpool_576.txt	LTP387	ltpFR2	5	1	ARM	38	n/a	n/a	0	0	0
367.5498046875	n/a	REC_WORD	752742	wordpools/wasnorm_wordpool_576.txt	LTP387	ltpFR2	5	1	BOARD	143	n/a	n/a	0	0	0
368.7578125	n/a	REC_WORD	755216	wordpools/wasnorm_wordpool_576.txt	LTP387	ltpFR2	5	1	MARINE	869	n/a	n/a	0	0	0
369.970703125	n/a	REC_WORD	757700	wordpools/wasnorm_wordpool_576.txt	LTP387	ltpFR2	5	1	LEOPARD	812	n/a	n/a	0	0	0
370.91064453125	n/a	REC_WORD	759625	wordpools/wasnorm_wordpool_576.txt	LTP387	ltpFR2	5	1	JAGUAR	-1	n/a	n/a	0	0	0
373.8564453125	n/a	REC_WORD	765658	wordpools/wasnorm_wordpool_576.txt	LTP387	ltpFR2	5	1	PANTHER	1009	n/a	n/a	0	0	0
374.87353515625	n/a	REC_WORD	767741	wordpools/wasnorm_wordpool_576.txt	LTP387	ltpFR2	5	1	PRINCE	1124	n/a	n/a	0	0	0
375.974609375	n/a	REC_WORD	769996	wordpools/wasnorm_wordpool_576.txt	LTP387	ltpFR2	5	1	BULLET	194	n/a	n/a	0	0	0
378.1201171875	n/a	REC_WORD	774390	wordpools/wasnorm_wordpool_576.txt	LTP387	ltpFR2	5	1	BARLEY	88	n/a	n/a	0	0	0
379.0771484375	n/a	REC_WORD	776350	wordpools/wasnorm_wordpool_576.txt	LTP387	ltpFR2	5	1	FARMER	553	n/a	n/a	0	0	0
380.42529296875	n/a	REC_WORD	779111	wordpools/wasnorm_wordpool_576.txt	LTP387	ltpFR2	5	1	GLOVE	642	n/a	n/a	0	0	0
383.56494140625	n/a	REC_WORD	785541	wordpools/wasnorm_wordpool_576.txt	LTP387	ltpFR2	5	1	STOMACH	1384	n/a	n/a	0	0	0
384.529296875	n/a	REC_WORD	787516	wordpools/wasnorm_wordpool_576.txt	LTP387	ltpFR2	5	1	SNACK	1331	n/a	n/a	0	0	0
390.302734375	n/a	REC_WORD	799340	wordpools/wasnorm_wordpool_576.txt	LTP387	ltpFR2	5	1	SWIMMER	1420	n/a	n/a	0	0	0
396.99755859375	n/a	REC_WORD	813051	wordpools/wasnorm_wordpool_576.txt	LTP387	ltpFR2	5	1	ROBIN	1199	n/a	n/a	0	0	0
399.1845703125	n/a	REC_WORD	817530	wordpools/wasnorm_wordpool_576.txt	LTP387	ltpFR2	5	1	PLIERS	1089	n/a	n/a	0	0	0
402.07763671875	n/a	REC_WORD	823455	wordpools/wasnorm_wordpool_576.txt	LTP387	ltpFR2	5	1	PUDDING	1139	n/a	n/a	0	0	0
414.5361328125	n/a	REC_WORD	848970	wordpools/wasnorm_wordpool_576.txt	LTP387	ltpFR2	5	1	HORSE	719	n/a	n/a	0	0	0
452.1220703125	n/a	WORD	925946	wordpools/wasnorm_wordpool_576.txt	LTP387	ltpFR2	5	2	ISLAND	745	n/a	n/a	0	0	0
454.57177734375	n/a	WORD	930963	wordpools/wasnorm_wordpool_576.txt	LTP387	ltpFR2	5	2	PUPIL	1143	n/a	n/a	0	0	0
457.18896484375	n/a	WORD	936323	wordpools/wasnorm_wordpool_576.txt	LTP387	ltpFR2	5	2	FLOWER	584	n/a	n/a	0	0	0
459.8046875	n/a	WORD	941680	wordpools/wasnorm_wordpool_576.txt	LTP387	ltpFR2	5	2	LUNCH	849	n/a	n/a	0	0	0
462.53759765625	n/a	WORD	947277	wordpools/wasnorm_wordpool_576.txt	LTP387	ltpFR2	5	2	CLOCK	325	n/a	n/a	0	0	0
465.3544921875	n/a	WORD	953046	wordpools/wasnorm_wordpool_576.txt	LTP387	ltpFR2	5	2	KEEPER	769	n/a	n/a	0	0	0
468.17236328125	n/a	WORD	958817	wordpools/wasnorm_wordpool_576.txt	LTP387	ltpFR2	5	2	PIZZA	1079	n/a	n/a	0	0	0
470.654296875	n/a	WORD	963900	wordpools/wasnorm_wordpool_576.txt	LTP387	ltpFR2	5	2	SAUSAGE	1238	n/a	n/a	0	0	0
473.404296875	n/a	WORD	969532	wordpools/wasnorm_wordpool_576.txt	LTP387	ltpFR2	5	2	TEACHER	1440	n/a	n/a	0	0	0
476.0703125	n/a	WORD	974992	wordpools/wasnorm_wordpool_576.txt	LTP387	ltpFR2	5	2	PERMIT	1051	n/a	n/a	0	0	0
478.63720703125	n/a	WORD	980249	wordpools/wasnorm_wordpool_576.txt	LTP387	ltpFR2	5	2	PALACE	1006	n/a	n/a	0	0	0
481.43701171875	n/a	WORD	985983	wordpools/wasnorm_wordpool_576.txt	LTP387	ltpFR2	5	2	RADISH	1158	n/a	n/a	0	0	0
484.0703125	n/a	WORD	991376	wordpools/wasnorm_wordpool_576.txt	LTP387	ltpFR2	5	2	BREAST	171	n/a	n/a	0	0	0
486.80419921875	n/a	WORD	996975	wordpools/wasnorm_wordpool_576.txt	LTP387	ltpFR2	5	2	ROOSTER	1209	n/a	n/a	0	0	0
489.537109375	n/a	WORD	1002572	wordpools/wasnorm_wordpool_576.txt	LTP387	ltpFR2	5	2	ZIPPER	1636	n/a	n/a	0	0	0
492.0869140625	n/a	WORD	1007794	wordpools/wasnorm_wordpool_576.txt	LTP387	ltpFR2	5	2	LASER	801	n/a	n/a	0	0	0
494.8369140625	n/a	WORD	1013426	wordpools/wasnorm_wordpool_576.txt	LTP387	ltpFR2	5	2	HOSTESS	723	n/a	n/a	0	0	0
497.5029296875	n/a	WORD	1018886	wordpools/wasnorm_wordpool_576.txt	LTP387	ltpFR2	5	2	CHAMPAGNE	278	n/a	n/a	0	0	0
500.25341796875	n/a	WORD	1024519	wordpools/wasnorm_wordpool_576.txt	LTP387	ltpFR2	5	2	HIKER	708	n/a	n/a	0	0	0
502.76953125	n/a	WORD	1029672	wordpools/wasnorm_wordpool_576.txt	LTP387	ltpFR2	5	2	COUNTRY	388	n/a	n/a	0	0	0
505.3203125	n/a	WORD	1034896	wordpools/wasnorm_wordpool_576.txt	LTP387	ltpFR2	5	2	JURY	766	n/a	n/a	0	0	0
508.08642578125	n/a	WORD	1040561	wordpools/wasnorm_wordpool_576.txt	LTP387	ltpFR2	5	2	BURGLAR	200	n/a	n/a	0	0	0
510.76953125	n/a	WORD	1046056	wordpools/wasnorm_wordpool_576.txt	LTP387	ltpFR2	5	2	CAMEL	223	n/a	n/a	0	0	0
513.22021484375	n/a	WORD	1051075	wordpools/wasnorm_wordpool_576.txt	LTP387	ltpFR2	5	2	SWITCH	1422	n/a	n/a	0	0	0
514.8359375	n/a	START	1054384	n/a	LTP387	ltpFR2	5	n/a	n/a	n/a	2	n/a	n/a	n/a	n/a
515.80615234375	n/a	DISTRACTOR	1056371	n/a	LTP387	ltpFR2	5	2	n/a	n/a	n/a	n/a	0	0	0
515.8193359375	n/a	PROB	1056398	n/a	LTP387	ltpFR2	5	n/a	n/a	n/a	2	19	2	9	8
518.30322265625	n/a	PROB	1061485	n/a	LTP387	ltpFR2	5	n/a	n/a	n/a	2	13	8	3	2
519.98486328125	n/a	PROB	1064929	n/a	LTP387	ltpFR2	5	n/a	n/a	n/a	2	15	5	9	1
521.6689453125	n/a	PROB	1068378	n/a	LTP387	ltpFR2	5	n/a	n/a	n/a	2	16	6	9	1
523.384765625	n/a	PROB	1071892	n/a	LTP387	ltpFR2	5	n/a	n/a	n/a	2	16	4	3	9
525.40185546875	n/a	PROB	1076023	n/a	LTP387	ltpFR2	5	n/a	n/a	n/a	2	18	9	3	6
527.45166015625	n/a	PROB	1080221	n/a	LTP387	ltpFR2	5	n/a	n/a	n/a	2	7	3	3	1
528.8017578125	n/a	PROB	1082986	n/a	LTP387	ltpFR2	5	n/a	n/a	n/a	2	14	6	3	5
530.384765625	n/a	PROB	1086228	n/a	LTP387	ltpFR2	5	n/a	n/a	n/a	2	15	2	7	6
532.08447265625	n/a	PROB	1089709	n/a	LTP387	ltpFR2	5	n/a	n/a	n/a	2	12	8	3	1
533.83447265625	n/a	PROB	1093293	n/a	LTP387	ltpFR2	5	n/a	n/a	n/a	2	15	5	4	6
535.384765625	n/a	PROB	1096468	n/a	LTP387	ltpFR2	5	n/a	n/a	n/a	2	17	7	2	8
538.83544921875	n/a	STOP	1103535	n/a	LTP387	ltpFR2	5	n/a	n/a	n/a	2	n/a	n/a	n/a	n/a
540.701171875	n/a	REC_START	1107356	n/a	LTP387	ltpFR2	5	2	n/a	n/a	n/a	n/a	0	0	0
542.869140625	n/a	REC_WORD	1111796	wordpools/wasnorm_wordpool_576.txt	LTP387	ltpFR2	5	2	PUPIL	1143	n/a	n/a	0	0	0
545.19140625	n/a	REC_WORD	1116552	wordpools/wasnorm_wordpool_576.txt	LTP387	ltpFR2	5	2	LUNCH	849	n/a	n/a	0	0	0
546.3759765625	n/a	REC_WORD	1118978	wordpools/wasnorm_wordpool_576.txt	LTP387	ltpFR2	5	2	CLOCK	325	n/a	n/a	0	0	0
548.30419921875	n/a	REC_WORD	1122927	wordpools/wasnorm_wordpool_576.txt	LTP387	ltpFR2	5	2	SAUSAGE	1238	n/a	n/a	0	0	0
549.576171875	n/a	REC_WORD	1125532	wordpools/wasnorm_wordpool_576.txt	LTP387	ltpFR2	5	2	PIZZA	1079	n/a	n/a	0	0	0
550.865234375	n/a	REC_WORD	1128172	wordpools/wasnorm_wordpool_576.txt	LTP387	ltpFR2	5	2	RADISH	1158	n/a	n/a	0	0	0
553.94580078125	n/a	REC_WORD	1134481	wordpools/wasnorm_wordpool_576.txt	LTP387	ltpFR2	5	2	TEACHER	1440	n/a	n/a	0	0	0
555.1748046875	n/a	REC_WORD	1136998	wordpools/wasnorm_wordpool_576.txt	LTP387	ltpFR2	5	2	FLOWER	584	n/a	n/a	0	0	0
557.6328125	n/a	REC_WORD	1142032	wordpools/wasnorm_wordpool_576.txt	LTP387	ltpFR2	5	2	PERMIT	1051	n/a	n/a	0	0	0
561.23388671875	n/a	REC_WORD	1149407	wordpools/wasnorm_wordpool_576.txt	LTP387	ltpFR2	5	2	KEEPER	769	n/a	n/a	0	0	0
563.21484375	n/a	REC_WORD	1153464	wordpools/wasnorm_wordpool_576.txt	LTP387	ltpFR2	5	2	ISLAND	745	n/a	n/a	0	0	0
564.2978515625	n/a	REC_WORD	1155682	wordpools/wasnorm_wordpool_576.txt	LTP387	ltpFR2	5	2	PALACE	1006	n/a	n/a	0	0	0
565.62548828125	n/a	REC_WORD	1158401	wordpools/wasnorm_wordpool_576.txt	LTP387	ltpFR2	5	2	LASER	801	n/a	n/a	0	0	0
567.65966796875	n/a	REC_WORD	1162567	wordpools/wasnorm_wordpool_576.txt	LTP387	ltpFR2	5	2	HIKER	708	n/a	n/a	0	0	0
568.6767578125	n/a	REC_WORD	1164650	wordpools/wasnorm_wordpool_576.txt	LTP387	ltpFR2	5	2	COUNTRY	388	n/a	n/a	0	0	0
570.33935546875	n/a	REC_WORD	1168055	wordpools/wasnorm_wordpool_576.txt	LTP387	ltpFR2	5	2	JURY	766	n/a	n/a	0	0	0
571.4765625	n/a	REC_WORD	1170384	wordpools/wasnorm_wordpool_576.txt	LTP387	ltpFR2	5	2	BURGLAR	200	n/a	n/a	0	0	0
582.64892578125	n/a	REC_WORD	1193265	wordpools/wasnorm_wordpool_576.txt	LTP387	ltpFR2	5	2	ROOSTER	1209	n/a	n/a	0	0	0
589.0107421875	n/a	REC_WORD	1206294	wordpools/wasnorm_wordpool_576.txt	LTP387	ltpFR2	5	2	CHAMPAGNE	278	n/a	n/a	0	0	0
590.36181640625	n/a	REC_WORD	1209061	wordpools/wasnorm_wordpool_576.txt	LTP387	ltpFR2	5	2	BREAST	171	n/a	n/a	0	0	0
631.16455078125	n/a	WORD	1292625	wordpools/wasnorm_wordpool_576.txt	LTP387	ltpFR2	5	3	TEMPLE	1448	n/a	n/a	0	0	0
633.69677734375	n/a	WORD	1297811	wordpools/wasnorm_wordpool_576.txt	LTP387	ltpFR2	5	3	ROBOT	1200	n/a	n/a	0	0	0
636.197265625	n/a	WORD	1302932	wordpools/wasnorm_wordpool_576.txt	LTP387	ltpFR2	5	3	TUBA	1515	n/a	n/a	0	0	0
638.86328125	n/a	WORD	1308392	wordpools/wasnorm_wordpool_576.txt	LTP387	ltpFR2	5	3	CRICKET	408	n/a	n/a	0	0	0
641.49609375	n/a	WORD	1313784	wordpools/wasnorm_wordpool_576.txt	LTP387	ltpFR2	5	3	LIZARD	834	n/a	n/a	0	0	0
644.1474609375	n/a	WORD	1319214	wordpools/wasnorm_wordpool_576.txt	LTP387	ltpFR2	5	3	MAPLE	866	n/a	n/a	0	0	0
646.76318359375	n/a	WORD	1324571	wordpools/wasnorm_wordpool_576.txt	LTP387	ltpFR2	5	3	FRANCE	601	n/a	n/a	0	0	0
649.2470703125	n/a	WORD	1329658	wordpools/wasnorm_wordpool_576.txt	LTP387	ltpFR2	5	3	LOFT	840	n/a	n/a	0	0	0
651.89599609375	n/a	WORD	1335083	wordpools/wasnorm_wordpool_576.txt	LTP387	ltpFR2	5	3	MATTRESS	879	n/a	n/a	0	0	0
654.412109375	n/a	WORD	1340236	wordpools/wasnorm_wordpool_576.txt	LTP387	ltpFR2	5	3	EUROPE	541	n/a	n/a	0	0	0
657.1796875	n/a	WORD	1345904	wordpools/wasnorm_wordpool_576.txt	LTP387	ltpFR2	5	3	SCARECROW	1245	n/a	n/a	0	0	0
659.87890625	n/a	WORD	1351432	wordpools/wasnorm_wordpool_576.txt	LTP387	ltpFR2	5	3	CUPBOARD	425	n/a	n/a	0	0	0
662.49560546875	n/a	WORD	1356791	wordpools/wasnorm_wordpool_576.txt	LTP387	ltpFR2	5	3	SPHINX	1349	n/a	n/a	0	0	0
665.01171875	n/a	WORD	1361944	wordpools/wasnorm_wordpool_576.txt	LTP387	ltpFR2	5	3	PAPER	1011	n/a	n/a	0	0	0
667.82861328125	n/a	WORD	1367713	wordpools/wasnorm_wordpool_576.txt	LTP387	ltpFR2	5	3	DRAWING	494	n/a	n/a	0	0	0
670.64453125	n/a	WORD	1373480	wordpools/wasnorm_wordpool_576.txt	LTP387	ltpFR2	5	3	FRAME	600	n/a	n/a	0	0	0
673.328125	n/a	WORD	1378976	wordpools/wasnorm_wordpool_576.txt	LTP387	ltpFR2	5	3	TYPIST	1532	n/a	n/a	0	0	0
675.89404296875	n/a	WORD	1384231	wordpools/wasnorm_wordpool_576.txt	LTP387	ltpFR2	5	3	WRIST	1626	n/a	n/a	0	0	0
678.59423828125	n/a	WORD	1389761	wordpools/wasnorm_wordpool_576.txt	LTP387	ltpFR2	5	3	CROSS	413	n/a	n/a	0	0	0
681.0283203125	n/a	WORD	1394746	wordpools/wasnorm_wordpool_576.txt	LTP387	ltpFR2	5	3	HATCHET	691	n/a	n/a	0	0	0
683.578125	n/a	WORD	1399968	wordpools/wasnorm_wordpool_576.txt	LTP387	ltpFR2	5	3	COCOON	339	n/a	n/a	0	0	0
686.31201171875	n/a	WORD	1405567	wordpools/wasnorm_wordpool_576.txt	LTP387	ltpFR2	5	3	CREATURE	403	n/a	n/a	0	0	0
688.7607421875	n/a	WORD	1410582	wordpools/wasnorm_wordpool_576.txt	LTP387	ltpFR2	5	3	MUSTARD	935	n/a	n/a	0	0	0
691.47802734375	n/a	WORD	1416147	wordpools/wasnorm_wordpool_576.txt	LTP387	ltpFR2	5	3	JELLY	755	n/a	n/a	0	0	0
693.09375	n/a	START	1419456	n/a	LTP387	ltpFR2	5	n/a	n/a	n/a	3	n/a	n/a	n/a	n/a
694.02880859375	n/a	DISTRACTOR	1421371	n/a	LTP387	ltpFR2	5	3	n/a	n/a	n/a	n/a	0	0	0
694.0439453125	n/a	PROB	1421402	n/a	LTP387	ltpFR2	5	n/a	n/a	n/a	3	23	8	9	6
697.62646484375	n/a	PROB	1428739	n/a	LTP387	ltpFR2	5	n/a	n/a	n/a	3	7	3	1	3
699.21142578125	n/a	PROB	1431985	n/a	LTP387	ltpFR2	5	n/a	n/a	n/a	3	21	9	7	4
703.060546875	n/a	PROB	1439868	n/a	LTP387	ltpFR2	5	n/a	n/a	n/a	3	6	2	1	3
705.810546875	n/a	PROB	1445500	n/a	LTP387	ltpFR2	5	n/a	n/a	n/a	3	12	5	4	3
709.943359375	n/a	PROB	1453964	n/a	LTP387	ltpFR2	5	n/a	n/a	n/a	3	21	4	7	9
713.50927734375	n/a	PROB	1461267	n/a	LTP387	ltpFR2	5	n/a	n/a	n/a	3	13	1	5	7
717.0927734375	n/a	STOP	1468606	n/a	LTP387	ltpFR2	5	n/a	n/a	n/a	3	n/a	n/a	n/a	n/a
718.85986328125	n/a	REC_START	1472225	n/a	LTP387	ltpFR2	5	3	n/a	n/a	n/a	n/a	0	0	0
723.34375	n/a	REC_WORD	1481408	wordpools/wasnorm_wordpool_576.txt	LTP387	ltpFR2	5	3	LOFT	840	n/a	n/a	0	0	0
724.4306640625	n/a	REC_WORD	1483634	wordpools/wasnorm_wordpool_576.txt	LTP387	ltpFR2	5	3	MATTRESS	879	n/a	n/a	0	0	0
725.8486328125	n/a	REC_WORD	1486538	wordpools/wasnorm_wordpool_576.txt	LTP387	ltpFR2	5	3	COCOON	339	n/a	n/a	0	0	0
727.73193359375	n/a	REC_WORD	1490395	wordpools/wasnorm_wordpool_576.txt	LTP387	ltpFR2	5	3	CREATURE	403	n/a	n/a	0	0	0
729.04248046875	n/a	REC_WORD	1493079	wordpools/wasnorm_wordpool_576.txt	LTP387	ltpFR2	5	3	SCARECROW	1245	n/a	n/a	0	0	0
733.33642578125	n/a	REC_WORD	1501873	wordpools/wasnorm_wordpool_576.txt	LTP387	ltpFR2	5	3	MAPLE	866	n/a	n/a	0	0	0
736.05419921875	n/a	REC_WORD	1507439	wordpools/wasnorm_wordpool_576.txt	LTP387	ltpFR2	5	3	CRICKET	408	n/a	n/a	0	0	0
737.05224609375	n/a	REC_WORD	1509483	wordpools/wasnorm_wordpool_576.txt	LTP387	ltpFR2	5	3	LIZARD	834	n/a	n/a	0	0	0
738.25341796875	n/a	REC_WORD	1511943	wordpools/wasnorm_wordpool_576.txt	LTP387	ltpFR2	5	3	TEMPLE	1448	n/a	n/a	0	0	0
740.2841796875	n/a	REC_WORD	1516102	wordpools/wasnorm_wordpool_576.txt	LTP387	ltpFR2	5	3	ROBOT	1200	n/a	n/a	0	0	0
741.32421875	n/a	REC_WORD	1518232	wordpools/wasnorm_wordpool_576.txt	LTP387	ltpFR2	5	3	TUBA	1515	n/a	n/a	0	0	0
744.1611328125	n/a	REC_WORD	1524042	wordpools/wasnorm_wordpool_576.txt	LTP387	ltpFR2	5	3	EUROPE	541	n/a	n/a	0	0	0
748.34423828125	n/a	REC_WORD	1532609	wordpools/wasnorm_wordpool_576.txt	LTP387	ltpFR2	5	3	MUSTARD	935	n/a	n/a	0	0	0
749.26806640625	n/a	REC_WORD	1534501	wordpools/wasnorm_wordpool_576.txt	LTP387	ltpFR2	5	3	JELLY	755	n/a	n/a	0	0	0
809.33837890625	n/a	WORD	1657525	wordpools/wasnorm_wordpool_576.txt	LTP387	ltpFR2	5	4	LUGGAGE	847	n/a	n/a	0	0	0
811.9052734375	n/a	WORD	1662782	wordpools/wasnorm_wordpool_576.txt	LTP387	ltpFR2	5	4	HERO	706	n/a	n/a	0	0	0
814.68798828125	n/a	WORD	1668481	wordpools/wasnorm_wordpool_576.txt	LTP387	ltpFR2	5	4	SNAIL	1332	n/a	n/a	0	0	0
817.2890625	n/a	WORD	1673808	wordpools/wasnorm_wordpool_576.txt	LTP387	ltpFR2	5	4	LUMBER	848	n/a	n/a	0	0	0
819.955078125	n/a	WORD	1679268	wordpools/wasnorm_wordpool_576.txt	LTP387	ltpFR2	5	4	MOP	916	n/a	n/a	0	0	0
822.5546875	n/a	WORD	1684592	wordpools/wasnorm_wordpool_576.txt	LTP387	ltpFR2	5	4	VALLEY	1545	n/a	n/a	0	0	0
824.98779296875	n/a	WORD	1689575	wordpools/wasnorm_wordpool_576.txt	LTP387	ltpFR2	5	4	CAPTIVE	240	n/a	n/a	0	0	0
827.7705078125	n/a	WORD	1695274	wordpools/wasnorm_wordpool_576.txt	LTP387	ltpFR2	5	4	CONVICT	371	n/a	n/a	0	0	0
830.470703125	n/a	WORD	1700804	wordpools/wasnorm_wordpool_576.txt	LTP387	ltpFR2	5	4	TART	1436	n/a	n/a	0	0	0
832.9033203125	n/a	WORD	1705786	wordpools/wasnorm_wordpool_576.txt	LTP387	ltpFR2	5	4	SIDEWALK	1303	n/a	n/a	0	0	0
835.4375	n/a	WORD	1710976	wordpools/wasnorm_wordpool_576.txt	LTP387	ltpFR2	5	4	ROCKET	1202	n/a	n/a	0	0	0
838.1201171875	n/a	WORD	1716470	wordpools/wasnorm_wordpool_576.txt	LTP387	ltpFR2	5	4	MISSILE	900	n/a	n/a	0	0	0
840.63720703125	n/a	WORD	1721625	wordpools/wasnorm_wordpool_576.txt	LTP387	ltpFR2	5	4	CABIN	211	n/a	n/a	0	0	0
843.2880859375	n/a	WORD	1727054	wordpools/wasnorm_wordpool_576.txt	LTP387	ltpFR2	5	4	YACHT	1629	n/a	n/a	0	0	0
845.919921875	n/a	WORD	1732444	wordpools/wasnorm_wordpool_576.txt	LTP387	ltpFR2	5	4	GRIZZLY	662	n/a	n/a	0	0	0
848.73681640625	n/a	WORD	1738213	wordpools/wasnorm_wordpool_576.txt	LTP387	ltpFR2	5	4	SALT	1229	n/a	n/a	0	0	0
851.1708984375	n/a	WORD	1743198	wordpools/wasnorm_wordpool_576.txt	LTP387	ltpFR2	5	4	FLUTE	585	n/a	n/a	0	0	0
853.7529296875	n/a	WORD	1748486	wordpools/wasnorm_wordpool_576.txt	LTP387	ltpFR2	5	4	SLIME	1327	n/a	n/a	0	0	0
856.3857421875	n/a	WORD	1753878	wordpools/wasnorm_wordpool_576.txt	LTP387	ltpFR2	5	4	DUSTPAN	509	n/a	n/a	0	0	0
858.81982421875	n/a	WORD	1758863	wordpools/wasnorm_wordpool_576.txt	LTP387	ltpFR2	5	4	BANKER	84	n/a	n/a	0	0	0
861.56982421875	n/a	WORD	1764495	wordpools/wasnorm_wordpool_576.txt	LTP387	ltpFR2	5	4	MARKET	871	n/a	n/a	0	0	0
864.0693359375	n/a	WORD	1769614	wordpools/wasnorm_wordpool_576.txt	LTP387	ltpFR2	5	4	SCALLOP	1242	n/a	n/a	0	0	0
866.83544921875	n/a	WORD	1775279	wordpools/wasnorm_wordpool_576.txt	LTP387	ltpFR2	5	4	VIRUS	1572	n/a	n/a	0	0	0
869.30322265625	n/a	WORD	1780333	wordpools/wasnorm_wordpool_576.txt	LTP387	ltpFR2	5	4	LADDER	793	n/a	n/a	0	0	0
870.91943359375	n/a	START	1783643	n/a	LTP387	ltpFR2	5	n/a	n/a	n/a	4	n/a	n/a	n/a	n/a
871.97412109375	n/a	DISTRACTOR	1785803	n/a	LTP387	ltpFR2	5	4	n/a	n/a	n/a	n/a	0	0	0
871.9853515625	n/a	PROB	1785826	n/a	LTP387	ltpFR2	5	n/a	n/a	n/a	4	13	1	5	7
874.21923828125	n/a	PROB	1790401	n/a	LTP387	ltpFR2	5	n/a	n/a	n/a	4	14	6	1	7
876.18603515625	n/a	PROB	1794429	n/a	LTP387	ltpFR2	5	n/a	n/a	n/a	4	19	8	8	3
878.01806640625	n/a	PROB	1798181	n/a	LTP387	ltpFR2	5	n/a	n/a	n/a	4	21	9	7	5
885.76806640625	n/a	PROB	1814053	n/a	LTP387	ltpFR2	5	n/a	n/a	n/a	4	6	1	2	3
887.48486328125	n/a	PROB	1817569	n/a	LTP387	ltpFR2	5	n/a	n/a	n/a	4	7	1	3	3
889.001953125	n/a	PROB	1820676	n/a	LTP387	ltpFR2	5	n/a	n/a	n/a	4	15	8	4	3
891.08447265625	n/a	PROB	1824941	n/a	LTP387	ltpFR2	5	n/a	n/a	n/a	4	13	1	7	5
894.91845703125	n/a	STOP	1832793	n/a	LTP387	ltpFR2	5	n/a	n/a	n/a	4	n/a	n/a	n/a	n/a
896.78466796875	n/a	REC_START	1836615	n/a	LTP387	ltpFR2	5	4	n/a	n/a	n/a	n/a	0	0	0
904.021484375	n/a	REC_WORD	1851436	wordpools/wasnorm_wordpool_576.txt	LTP387	ltpFR2	5	4	MOP	916	n/a	n/a	0	0	0
905.34423828125	n/a	REC_WORD	1854145	wordpools/wasnorm_wordpool_576.txt	LTP387	ltpFR2	5	4	CONVICT	371	n/a	n/a	0	0	0
906.38330078125	n/a	REC_WORD	1856273	wordpools/wasnorm_wordpool_576.txt	LTP387	ltpFR2	5	4	HERO	706	n/a	n/a	0	0	0
907.67236328125	n/a	REC_WORD	1858913	wordpools/wasnorm_wordpool_576.txt	LTP387	ltpFR2	5	4	LUGGAGE	847	n/a	n/a	0	0	0
910.67724609375	n/a	REC_WORD	1865067	wordpools/wasnorm_wordpool_576.txt	LTP387	ltpFR2	5	4	SNAIL	1332	n/a	n/a	0	0	0
912.47216796875	n/a	REC_WORD	1868743	wordpools/wasnorm_wordpool_576.txt	LTP387	ltpFR2	5	4	LUMBER	848	n/a	n/a	0	0	0
913.6328125	n/a	REC_WORD	1871120	wordpools/wasnorm_wordpool_576.txt	LTP387	ltpFR2	5	4	SIDEWALK	1303	n/a	n/a	0	0	0
915.384765625	n/a	REC_WORD	1874708	wordpools/wasnorm_wordpool_576.txt	LTP387	ltpFR2	5	4	VALLEY	1545	n/a	n/a	0	0	0
917.24609375	n/a	REC_WORD	1878520	wordpools/wasnorm_wordpool_576.txt	LTP387	ltpFR2	5	4	CAPTIVE	240	n/a	n/a	0	0	0
924.5537109375	n/a	REC_WORD	1893486	wordpools/wasnorm_wordpool_576.txt	LTP387	ltpFR2	5	4	MISSILE	900	n/a	n/a	0	0	0
987.21484375	n/a	DISTRACTOR	2021816	n/a	LTP387	ltpFR2	5	5	n/a	n/a	n/a	n/a	0	0	0
987.21484375	n/a	START	2021816	n/a	LTP387	ltpFR2	5	n/a	n/a	n/a	5	n/a	n/a	n/a	n/a
987.23095703125	n/a	PROB	2021849	n/a	LTP387	ltpFR2	5	n/a	n/a	n/a	5	14	4	4	6
989.19775390625	n/a	PROB	2025877	n/a	LTP387	ltpFR2	5	n/a	n/a	n/a	5	19	9	4	6
991.23046875	n/a	PROB	2030040	n/a	LTP387	ltpFR2	5	n/a	n/a	n/a	5	11	2	4	5
993.24755859375	n/a	PROB	2034171	n/a	LTP387	ltpFR2	5	n/a	n/a	n/a	5	18	8	7	3
994.8466796875	n/a	PROB	2037446	n/a	LTP387	ltpFR2	5	n/a	n/a	n/a	5	14	3	2	9
998.16357421875	n/a	PROB	2044239	n/a	LTP387	ltpFR2	5	n/a	n/a	n/a	5	16	5	6	5
1000.16357421875	n/a	PROB	2048335	n/a	LTP387	ltpFR2	5	n/a	n/a	n/a	5	20	7	6	7
1002.24755859375	n/a	PROB	2052603	n/a	LTP387	ltpFR2	5	n/a	n/a	n/a	5	15	4	8	3
1004.646484375	n/a	PROB	2057516	n/a	LTP387	ltpFR2	5	n/a	n/a	n/a	5	19	9	7	3
1006.2802734375	n/a	PROB	2060862	n/a	LTP387	ltpFR2	5	n/a	n/a	n/a	5	21	8	5	8
1010.10888671875	n/a	STOP	2068703	n/a	LTP387	ltpFR2	5	n/a	n/a	n/a	5	n/a	n/a	n/a	n/a
1012.1630859375	n/a	WORD	2072910	wordpools/wasnorm_wordpool_576.txt	LTP387	ltpFR2	5	5	EYELASH	546	n/a	n/a	0	0	0
1014.69580078125	n/a	WORD	2078097	wordpools/wasnorm_wordpool_576.txt	LTP387	ltpFR2	5	5	COSTUME	383	n/a	n/a	0	0	0
1017.4619140625	n/a	WORD	2083762	wordpools/wasnorm_wordpool_576.txt	LTP387	ltpFR2	5	5	MAILMAN	858	n/a	n/a	0	0	0
1019.97900390625	n/a	WORD	2088917	wordpools/wasnorm_wordpool_576.txt	LTP387	ltpFR2	5	5	STAMP	1370	n/a	n/a	0	0	0
1022.61181640625	n/a	WORD	2094309	wordpools/wasnorm_wordpool_576.txt	LTP387	ltpFR2	5	5	ASIA	46	n/a	n/a	0	0	0
1025.0615234375	n/a	WORD	2099326	wordpools/wasnorm_wordpool_576.txt	LTP387	ltpFR2	5	5	BEAST	108	n/a	n/a	0	0	0
1027.79443359375	n/a	WORD	2104923	wordpools/wasnorm_wordpool_576.txt	LTP387	ltpFR2	5	5	HAWK	692	n/a	n/a	0	0	0
1030.361328125	n/a	WORD	2110180	wordpools/wasnorm_wordpool_576.txt	LTP387	ltpFR2	5	5	GYMNAST	675	n/a	n/a	0	0	0
1033.07861328125	n/a	WORD	2115745	wordpools/wasnorm_wordpool_576.txt	LTP387	ltpFR2	5	5	CYCLONE	431	n/a	n/a	0	0	0
1035.77734375	n/a	WORD	2121272	wordpools/wasnorm_wordpool_576.txt	LTP387	ltpFR2	5	5	FOX	598	n/a	n/a	0	0	0
1038.37744140625	n/a	WORD	2126597	wordpools/wasnorm_wordpool_576.txt	LTP387	ltpFR2	5	5	QUEEN	1149	n/a	n/a	0	0	0
1041.06103515625	n/a	WORD	2132093	wordpools/wasnorm_wordpool_576.txt	LTP387	ltpFR2	5	5	PICTURE	1061	n/a	n/a	0	0	0
1043.744140625	n/a	WORD	2137588	wordpools/wasnorm_wordpool_576.txt	LTP387	ltpFR2	5	5	RECORD	1176	n/a	n/a	0	0	0
1046.376953125	n/a	WORD	2142980	wordpools/wasnorm_wordpool_576.txt	LTP387	ltpFR2	5	5	OUTDOORS	987	n/a	n/a	0	0	0
1048.9609375	n/a	WORD	2148272	wordpools/wasnorm_wordpool_576.txt	LTP387	ltpFR2	5	5	OYSTER	995	n/a	n/a	0	0	0
1051.7109375	n/a	WORD	2153904	wordpools/wasnorm_wordpool_576.txt	LTP387	ltpFR2	5	5	MUFFIN	929	n/a	n/a	0	0	0
1054.16162109375	n/a	WORD	2158923	wordpools/wasnorm_wordpool_576.txt	LTP387	ltpFR2	5	5	FINGER	567	n/a	n/a	0	0	0
1056.87646484375	n/a	WORD	2164483	wordpools/wasnorm_wordpool_576.txt	LTP387	ltpFR2	5	5	PIGEON	1065	n/a	n/a	0	0	0
1059.443359375	n/a	WORD	2169740	wordpools/wasnorm_wordpool_576.txt	LTP387	ltpFR2	5	5	AIRPLANE	12	n/a	n/a	0	0	0
1062.109375	n/a	WORD	2175200	wordpools/wasnorm_wordpool_576.txt	LTP387	ltpFR2	5	5	EGYPT	519	n/a	n/a	0	0	0
1064.79345703125	n/a	WORD	2180697	wordpools/wasnorm_wordpool_576.txt	LTP387	ltpFR2	5	5	LONDON	843	n/a	n/a	0	0	0
1067.5595703125	n/a	WORD	2186362	wordpools/wasnorm_wordpool_576.txt	LTP387	ltpFR2	5	5	SKETCH	1315	n/a	n/a	0	0	0
1070.14404296875	n/a	WORD	2191655	wordpools/wasnorm_wordpool_576.txt	LTP387	ltpFR2	5	5	COOK	372	n/a	n/a	0	0	0
1072.6591796875	n/a	WORD	2196806	wordpools/wasnorm_wordpool_576.txt	LTP387	ltpFR2	5	5	SEAFOOD	1260	n/a	n/a	0	0	0
1074.26025390625	n/a	START	2200085	n/a	LTP387	ltpFR2	5	n/a	n/a	n/a	6	n/a	n/a	n/a	n/a
1075.14306640625	n/a	DISTRACTOR	2201893	n/a	LTP387	ltpFR2	5	5	n/a	n/a	n/a	n/a	0	0	0
1075.16015625	n/a	PROB	2201928	n/a	LTP387	ltpFR2	5	n/a	n/a	n/a	6	7	1	2	4
1077.22705078125	n/a	PROB	2206161	n/a	LTP387	ltpFR2	5	n/a	n/a	n/a	6	16	4	6	6
1079.0419921875	n/a	PROB	2209878	n/a	LTP387	ltpFR2	5	n/a	n/a	n/a	6	18	8	3	7
1080.99169921875	n/a	PROB	2213871	n/a	LTP387	ltpFR2	5	n/a	n/a	n/a	6	16	7	2	7
1082.94189453125	n/a	PROB	2217865	n/a	LTP387	ltpFR2	5	n/a	n/a	n/a	6	8	1	2	5
1084.74169921875	n/a	PROB	2221551	n/a	LTP387	ltpFR2	5	n/a	n/a	n/a	6	16	1	8	7
1086.60888671875	n/a	PROB	2225375	n/a	LTP387	ltpFR2	5	n/a	n/a	n/a	6	16	7	4	5
1089.341796875	n/a	PROB	2230972	n/a	LTP387	ltpFR2	5	n/a	n/a	n/a	6	15	3	7	5
1091.07568359375	n/a	PROB	2234523	n/a	LTP387	ltpFR2	5	n/a	n/a	n/a	6	14	9	3	2
1093.12548828125	n/a	PROB	2238721	n/a	LTP387	ltpFR2	5	n/a	n/a	n/a	6	6	3	2	1
1095.45849609375	n/a	PROB	2243499	n/a	LTP387	ltpFR2	5	n/a	n/a	n/a	6	20	2	9	9
1097.3486328125	n/a	STOP	2247370	n/a	LTP387	ltpFR2	5	n/a	n/a	n/a	6	n/a	n/a	n/a	n/a
1100.20947265625	n/a	REC_START	2253229	n/a	LTP387	ltpFR2	5	5	n/a	n/a	n/a	n/a	0	0	0
1102.05615234375	n/a	REC_WORD	2257011	wordpools/wasnorm_wordpool_576.txt	LTP387	ltpFR2	5	5	SEAFOOD	1260	n/a	n/a	0	0	0
1103.09912109375	n/a	REC_WORD	2259147	wordpools/wasnorm_wordpool_576.txt	LTP387	ltpFR2	5	5	COOK	372	n/a	n/a	0	0	0
1104.63330078125	n/a	REC_WORD	2262289	wordpools/wasnorm_wordpool_576.txt	LTP387	ltpFR2	5	5	SCALLOP	1242	n/a	n/a	0	0	0
1106.6962890625	n/a	REC_WORD	2266514	wordpools/wasnorm_wordpool_576.txt	LTP387	ltpFR2	5	5	EGYPT	519	n/a	n/a	0	0	0
1108.09130859375	n/a	REC_WORD	2269371	wordpools/wasnorm_wordpool_576.txt	LTP387	ltpFR2	5	5	AIRPLANE	12	n/a	n/a	0	0	0
1109.36328125	n/a	REC_WORD	2271976	wordpools/wasnorm_wordpool_576.txt	LTP387	ltpFR2	5	5	EYELASH	546	n/a	n/a	0	0	0
1110.3740234375	n/a	REC_WORD	2274046	wordpools/wasnorm_wordpool_576.txt	LTP387	ltpFR2	5	5	COSTUME	383	n/a	n/a	0	0	0
1111.5478515625	n/a	REC_WORD	2276450	wordpools/wasnorm_wordpool_576.txt	LTP387	ltpFR2	5	5	GYMNAST	675	n/a	n/a	0	0	0
1113.94970703125	n/a	REC_WORD	2281369	wordpools/wasnorm_wordpool_576.txt	LTP387	ltpFR2	5	5	MAILMAN	858	n/a	n/a	0	0	0
1114.94287109375	n/a	REC_WORD	2283403	wordpools/wasnorm_wordpool_576.txt	LTP387	ltpFR2	5	5	STAMP	1370	n/a	n/a	0	0	0
1116.27197265625	n/a	REC_WORD	2286125	wordpools/wasnorm_wordpool_576.txt	LTP387	ltpFR2	5	5	ASIA	46	n/a	n/a	0	0	0
1117.93603515625	n/a	REC_WORD	2289533	wordpools/wasnorm_wordpool_576.txt	LTP387	ltpFR2	5	5	FOX	598	n/a	n/a	0	0	0
1119.32666015625	n/a	REC_WORD	2292381	wordpools/wasnorm_wordpool_576.txt	LTP387	ltpFR2	5	5	BEAST	108	n/a	n/a	0	0	0
1122.52685546875	n/a	REC_WORD	2298935	wordpools/wasnorm_wordpool_576.txt	LTP387	ltpFR2	5	5	CYCLONE	431	n/a	n/a	0	0	0
1190.6376953125	n/a	DISTRACTOR	2438426	n/a	LTP387	ltpFR2	5	6	n/a	n/a	n/a	n/a	0	0	0
1190.6376953125	n/a	START	2438426	n/a	LTP387	ltpFR2	5	n/a	n/a	n/a	7	n/a	n/a	n/a	n/a
1190.65380859375	n/a	PROB	2438459	n/a	LTP387	ltpFR2	5	n/a	n/a	n/a	7	18	6	3	9
1192.67041015625	n/a	PROB	2442589	n/a	LTP387	ltpFR2	5	n/a	n/a	n/a	7	11	5	5	1
1194.138671875	n/a	PROB	2445596	n/a	LTP387	ltpFR2	5	n/a	n/a	n/a	7	11	2	6	3
1196.00341796875	n/a	PROB	2449415	n/a	LTP387	ltpFR2	5	n/a	n/a	n/a	7	15	7	3	5
1197.603515625	n/a	PROB	2452692	n/a	LTP387	ltpFR2	5	n/a	n/a	n/a	7	18	4	8	6
1199.6865234375	n/a	PROB	2456958	n/a	LTP387	ltpFR2	5	n/a	n/a	n/a	7	26	8	9	9
1204.02001953125	n/a	PROB	2465833	n/a	LTP387	ltpFR2	5	n/a	n/a	n/a	7	12	1	2	9
1205.88623046875	n/a	PROB	2469655	n/a	LTP387	ltpFR2	5	n/a	n/a	n/a	7	12	4	7	1
1207.73583984375	n/a	PROB	2473443	n/a	LTP387	ltpFR2	5	n/a	n/a	n/a	7	14	2	4	8
1209.287109375	n/a	PROB	2476620	n/a	LTP387	ltpFR2	5	n/a	n/a	n/a	7	20	7	8	5
1211.8857421875	n/a	PROB	2481942	n/a	LTP387	ltpFR2	5	n/a	n/a	n/a	7	17	6	2	9
1213.9248046875	n/a	STOP	2486118	n/a	LTP387	ltpFR2	5	n/a	n/a	n/a	7	n/a	n/a	n/a	n/a
1215.56982421875	n/a	WORD	2489487	wordpools/wasnorm_wordpool_576.txt	LTP387	ltpFR2	5	6	ATOM	55	n/a	n/a	0	0	0
1218.0029296875	n/a	WORD	2494470	wordpools/wasnorm_wordpool_576.txt	LTP387	ltpFR2	5	6	CLIMBER	323	n/a	n/a	0	0	0
1220.45263671875	n/a	WORD	2499487	wordpools/wasnorm_wordpool_576.txt	LTP387	ltpFR2	5	6	LAGOON	795	n/a	n/a	0	0	0
1223.00244140625	n/a	WORD	2504709	wordpools/wasnorm_wordpool_576.txt	LTP387	ltpFR2	5	6	SUMMIT	1405	n/a	n/a	0	0	0
1225.70263671875	n/a	WORD	2510239	wordpools/wasnorm_wordpool_576.txt	LTP387	ltpFR2	5	6	BLOCKADE	137	n/a	n/a	0	0	0
1228.33544921875	n/a	WORD	2515631	wordpools/wasnorm_wordpool_576.txt	LTP387	ltpFR2	5	6	COMPASS	358	n/a	n/a	0	0	0
1230.935546875	n/a	WORD	2520956	wordpools/wasnorm_wordpool_576.txt	LTP387	ltpFR2	5	6	AWARD	63	n/a	n/a	0	0	0
1233.4521484375	n/a	WORD	2526110	wordpools/wasnorm_wordpool_576.txt	LTP387	ltpFR2	5	6	SERVANT	1271	n/a	n/a	0	0	0
1235.96826171875	n/a	WORD	2531263	wordpools/wasnorm_wordpool_576.txt	LTP387	ltpFR2	5	6	HIGHWAY	707	n/a	n/a	0	0	0
1238.65234375	n/a	WORD	2536760	wordpools/wasnorm_wordpool_576.txt	LTP387	ltpFR2	5	6	BUBBLE	183	n/a	n/a	0	0	0
1241.251953125	n/a	WORD	2542084	wordpools/wasnorm_wordpool_576.txt	LTP387	ltpFR2	5	6	SIBLING	1301	n/a	n/a	0	0	0
1244.05078125	n/a	WORD	2547816	wordpools/wasnorm_wordpool_576.txt	LTP387	ltpFR2	5	6	CHILD	299	n/a	n/a	0	0	0
1246.81787109375	n/a	WORD	2553483	wordpools/wasnorm_wordpool_576.txt	LTP387	ltpFR2	5	6	FUNGUS	614	n/a	n/a	0	0	0
1249.36767578125	n/a	WORD	2558705	wordpools/wasnorm_wordpool_576.txt	LTP387	ltpFR2	5	6	COUCH	386	n/a	n/a	0	0	0
1251.884765625	n/a	WORD	2563860	wordpools/wasnorm_wordpool_576.txt	LTP387	ltpFR2	5	6	ORANGE	980	n/a	n/a	0	0	0
1254.6845703125	n/a	WORD	2569594	wordpools/wasnorm_wordpool_576.txt	LTP387	ltpFR2	5	6	DIVER	476	n/a	n/a	0	0	0
1257.41748046875	n/a	WORD	2575191	wordpools/wasnorm_wordpool_576.txt	LTP387	ltpFR2	5	6	CORAL	378	n/a	n/a	0	0	0
1259.984375	n/a	WORD	2580448	wordpools/wasnorm_wordpool_576.txt	LTP387	ltpFR2	5	6	FIREPLACE	570	n/a	n/a	0	0	0
1262.80029296875	n/a	WORD	2586215	wordpools/wasnorm_wordpool_576.txt	LTP387	ltpFR2	5	6	FIREMAN	569	n/a	n/a	0	0	0
1265.400390625	n/a	WORD	2591540	wordpools/wasnorm_wordpool_576.txt	LTP387	ltpFR2	5	6	LAVA	804	n/a	n/a	0	0	0
1268.21826171875	n/a	WORD	2597311	wordpools/wasnorm_wordpool_576.txt	LTP387	ltpFR2	5	6	GRAVEL	659	n/a	n/a	0	0	0
1270.7001953125	n/a	WORD	2602394	wordpools/wasnorm_wordpool_576.txt	LTP387	ltpFR2	5	6	ANKLE	24	n/a	n/a	0	0	0
1273.31689453125	n/a	WORD	2607753	wordpools/wasnorm_wordpool_576.txt	LTP387	ltpFR2	5	6	HUMAN	726	n/a	n/a	0	0	0
1276.1171875	n/a	WORD	2613488	wordpools/wasnorm_wordpool_576.txt	LTP387	ltpFR2	5	6	SLOPE	1328	n/a	n/a	0	0	0
1277.73291015625	n/a	START	2616797	n/a	LTP387	ltpFR2	5	n/a	n/a	n/a	8	n/a	n/a	n/a	n/a
1278.7060546875	n/a	DISTRACTOR	2618790	n/a	LTP387	ltpFR2	5	6	n/a	n/a	n/a	n/a	0	0	0
1278.716796875	n/a	PROB	2618812	n/a	LTP387	ltpFR2	5	n/a	n/a	n/a	8	15	2	6	7
1280.98291015625	n/a	PROB	2623453	n/a	LTP387	ltpFR2	5	n/a	n/a	n/a	8	13	6	1	6
1282.78271484375	n/a	PROB	2627139	n/a	LTP387	ltpFR2	5	n/a	n/a	n/a	8	22	8	6	7
1286.83251953125	n/a	PROB	2635433	n/a	LTP387	ltpFR2	5	n/a	n/a	n/a	8	19	7	3	9
1288.53271484375	n/a	PROB	2638915	n/a	LTP387	ltpFR2	5	n/a	n/a	n/a	8	19	1	9	9
1290.2333984375	n/a	PROB	2642398	n/a	LTP387	ltpFR2	5	n/a	n/a	n/a	8	11	1	8	2
1292.2333984375	n/a	PROB	2646494	n/a	LTP387	ltpFR2	5	n/a	n/a	n/a	8	8	2	1	5
1293.8994140625	n/a	PROB	2649906	n/a	LTP387	ltpFR2	5	n/a	n/a	n/a	8	10	1	6	3
1295.71533203125	n/a	PROB	2653625	n/a	LTP387	ltpFR2	5	n/a	n/a	n/a	8	14	2	4	8
1297.51513671875	n/a	PROB	2657311	n/a	LTP387	ltpFR2	5	n/a	n/a	n/a	8	23	7	9	7
1299.71533203125	n/a	PROB	2661817	n/a	LTP387	ltpFR2	5	n/a	n/a	n/a	8	17	7	8	2
1301.4130859375	n/a	STOP	2665294	n/a	LTP387	ltpFR2	5	n/a	n/a	n/a	8	n/a	n/a	n/a	n/a
1303.68212890625	n/a	REC_START	2669941	n/a	LTP387	ltpFR2	5	6	n/a	n/a	n/a	n/a	0	0	0
1306.576171875	n/a	REC_WORD	2675868	wordpools/wasnorm_wordpool_576.txt	LTP387	ltpFR2	5	6	SUMMIT	1405	n/a	n/a	0	0	0
1308.97705078125	n/a	REC_WORD	2680785	wordpools/wasnorm_wordpool_576.txt	LTP387	ltpFR2	5	6	CLIMBER	323	n/a	n/a	0	0	0
1310.29296875	n/a	REC_WORD	2683480	wordpools/wasnorm_wordpool_576.txt	LTP387	ltpFR2	5	6	ATOM	55	n/a	n/a	0	0	0
1311.18994140625	n/a	REC_WORD	2685317	wordpools/wasnorm_wordpool_576.txt	LTP387	ltpFR2	5	6	LAGOON	795	n/a	n/a	0	0	0
1312.62109375	n/a	REC_WORD	2688248	wordpools/wasnorm_wordpool_576.txt	LTP387	ltpFR2	5	6	CORAL	378	n/a	n/a	0	0	0
1313.85693359375	n/a	REC_WORD	2690779	wordpools/wasnorm_wordpool_576.txt	LTP387	ltpFR2	5	6	DIVER	476	n/a	n/a	0	0	0
1317.0986328125	n/a	REC_WORD	2697418	wordpools/wasnorm_wordpool_576.txt	LTP387	ltpFR2	5	6	AWARD	63	n/a	n/a	0	0	0
1318.40478515625	n/a	REC_WORD	2700093	wordpools/wasnorm_wordpool_576.txt	LTP387	ltpFR2	5	6	BLOCKADE	137	n/a	n/a	0	0	0
1320.0224609375	n/a	REC_WORD	2703406	wordpools/wasnorm_wordpool_576.txt	LTP387	ltpFR2	5	6	HIGHWAY	707	n/a	n/a	0	0	0
1321.57958984375	n/a	REC_WORD	2706595	wordpools/wasnorm_wordpool_576.txt	LTP387	ltpFR2	5	6	LAVA	804	n/a	n/a	0	0	0
1324.07568359375	n/a	REC_WORD	2711707	wordpools/wasnorm_wordpool_576.txt	LTP387	ltpFR2	5	6	HUMAN	726	n/a	n/a	0	0	0
1332.52734375	n/a	REC_WORD	2729016	wordpools/wasnorm_wordpool_576.txt	LTP387	ltpFR2	5	6	COMPASS	358	n/a	n/a	0	0	0
1354.45458984375	n/a	REC_WORD	2773923	wordpools/wasnorm_wordpool_576.txt	LTP387	ltpFR2	5	6	SLOPE	1328	n/a	n/a	0	0	0
1394.12841796875	n/a	DISTRACTOR	2855175	n/a	LTP387	ltpFR2	5	7	n/a	n/a	n/a	n/a	0	0	0
1394.12841796875	n/a	START	2855175	n/a	LTP387	ltpFR2	5	n/a	n/a	n/a	9	n/a	n/a	n/a	n/a
1394.1455078125	n/a	PROB	2855210	n/a	LTP387	ltpFR2	5	n/a	n/a	n/a	9	16	7	1	8
1396.0771484375	n/a	PROB	2859166	n/a	LTP387	ltpFR2	5	n/a	n/a	n/a	9	14	6	2	6
1398.04443359375	n/a	PROB	2863195	n/a	LTP387	ltpFR2	5	n/a	n/a	n/a	9	17	6	3	8
1399.67724609375	n/a	PROB	2866539	n/a	LTP387	ltpFR2	5	n/a	n/a	n/a	9	11	1	5	5
1400.9599609375	n/a	PROB	2869166	n/a	LTP387	ltpFR2	5	n/a	n/a	n/a	9	19	6	8	5
1403.85986328125	n/a	PROB	2875105	n/a	LTP387	ltpFR2	5	n/a	n/a	n/a	9	15	3	6	6
1406.06005859375	n/a	PROB	2879611	n/a	LTP387	ltpFR2	5	n/a	n/a	n/a	9	24	6	8	8
1408.19482421875	n/a	PROB	2883983	n/a	LTP387	ltpFR2	5	n/a	n/a	n/a	9	19	9	1	9
1409.90966796875	n/a	PROB	2887495	n/a	LTP387	ltpFR2	5	n/a	n/a	n/a	9	15	1	7	7
1411.39404296875	n/a	PROB	2890535	n/a	LTP387	ltpFR2	5	n/a	n/a	n/a	9	18	2	9	7
1414.52685546875	n/a	PROB	2896951	n/a	LTP387	ltpFR2	5	n/a	n/a	n/a	9	20	7	7	6
1416.61279296875	n/a	STOP	2901223	n/a	LTP387	ltpFR2	5	n/a	n/a	n/a	9	n/a	n/a	n/a	n/a
1419.177734375	n/a	WORD	2906476	wordpools/wasnorm_wordpool_576.txt	LTP387	ltpFR2	5	7	COURSE	390	n/a	n/a	0	0	0
1421.87646484375	n/a	WORD	2912003	wordpools/wasnorm_wordpool_576.txt	LTP387	ltpFR2	5	7	PUDDLE	1140	n/a	n/a	0	0	0
1424.45947265625	n/a	WORD	2917293	wordpools/wasnorm_wordpool_576.txt	LTP387	ltpFR2	5	7	FOREST	593	n/a	n/a	0	0	0
1427.09228515625	n/a	WORD	2922685	wordpools/wasnorm_wordpool_576.txt	LTP387	ltpFR2	5	7	JELLO	754	n/a	n/a	0	0	0
1429.609375	n/a	WORD	2927840	wordpools/wasnorm_wordpool_576.txt	LTP387	ltpFR2	5	7	SHELTER	1282	n/a	n/a	0	0	0
1432.359375	n/a	WORD	2933472	wordpools/wasnorm_wordpool_576.txt	LTP387	ltpFR2	5	7	ICEBERG	731	n/a	n/a	0	0	0
1434.84228515625	n/a	WORD	2938557	wordpools/wasnorm_wordpool_576.txt	LTP387	ltpFR2	5	7	PEBBLE	1035	n/a	n/a	0	0	0
1437.44189453125	n/a	WORD	2943881	wordpools/wasnorm_wordpool_576.txt	LTP387	ltpFR2	5	7	KIDNEY	776	n/a	n/a	0	0	0
1440.259765625	n/a	WORD	2949652	wordpools/wasnorm_wordpool_576.txt	LTP387	ltpFR2	5	7	PARROT	1015	n/a	n/a	0	0	0
1443.02587890625	n/a	WORD	2955317	wordpools/wasnorm_wordpool_576.txt	LTP387	ltpFR2	5	7	EAGLE	512	n/a	n/a	0	0	0
1445.591796875	n/a	WORD	2960572	wordpools/wasnorm_wordpool_576.txt	LTP387	ltpFR2	5	7	GALLON	618	n/a	n/a	0	0	0
1448.02490234375	n/a	WORD	2965555	wordpools/wasnorm_wordpool_576.txt	LTP387	ltpFR2	5	7	BRANCH	168	n/a	n/a	0	0	0
1450.591796875	n/a	WORD	2970812	wordpools/wasnorm_wordpool_576.txt	LTP387	ltpFR2	5	7	DORM	488	n/a	n/a	0	0	0
1453.3583984375	n/a	WORD	2976478	wordpools/wasnorm_wordpool_576.txt	LTP387	ltpFR2	5	7	THRONE	1461	n/a	n/a	0	0	0
1455.8916015625	n/a	WORD	2981666	wordpools/wasnorm_wordpool_576.txt	LTP387	ltpFR2	5	7	CELLAR	267	n/a	n/a	0	0	0
1458.69140625	n/a	WORD	2987400	wordpools/wasnorm_wordpool_576.txt	LTP387	ltpFR2	5	7	POSSUM	1112	n/a	n/a	0	0	0
1461.5244140625	n/a	WORD	2993202	wordpools/wasnorm_wordpool_576.txt	LTP387	ltpFR2	5	7	APPLE	33	n/a	n/a	0	0	0
1463.94140625	n/a	WORD	2998152	wordpools/wasnorm_wordpool_576.txt	LTP387	ltpFR2	5	7	PRINCESS	1125	n/a	n/a	0	0	0
1466.7412109375	n/a	WORD	3003886	wordpools/wasnorm_wordpool_576.txt	LTP387	ltpFR2	5	7	FLEET	578	n/a	n/a	0	0	0
1469.2919921875	n/a	WORD	3009110	wordpools/wasnorm_wordpool_576.txt	LTP387	ltpFR2	5	7	NURSE	963	n/a	n/a	0	0	0
1472.0068359375	n/a	WORD	3014670	wordpools/wasnorm_wordpool_576.txt	LTP387	ltpFR2	5	7	SCOTCH	1251	n/a	n/a	0	0	0
1474.7568359375	n/a	WORD	3020302	wordpools/wasnorm_wordpool_576.txt	LTP387	ltpFR2	5	7	SHRUB	1299	n/a	n/a	0	0	0
1477.52392578125	n/a	WORD	3025969	wordpools/wasnorm_wordpool_576.txt	LTP387	ltpFR2	5	7	JUNGLE	764	n/a	n/a	0	0	0
1480.0068359375	n/a	WORD	3031054	wordpools/wasnorm_wordpool_576.txt	LTP387	ltpFR2	5	7	CRAB	397	n/a	n/a	0	0	0
1481.62353515625	n/a	START	3034365	n/a	LTP387	ltpFR2	5	n/a	n/a	n/a	10	n/a	n/a	n/a	n/a
1482.79443359375	n/a	DISTRACTOR	3036763	n/a	LTP387	ltpFR2	5	7	n/a	n/a	n/a	n/a	0	0	0
1482.806640625	n/a	PROB	3036788	n/a	LTP387	ltpFR2	5	n/a	n/a	n/a	10	15	8	6	1
1485.0234375	n/a	PROB	3041328	n/a	LTP387	ltpFR2	5	n/a	n/a	n/a	10	18	2	9	7
1487.00634765625	n/a	PROB	3045389	n/a	LTP387	ltpFR2	5	n/a	n/a	n/a	10	15	5	5	5
1488.7734375	n/a	PROB	3049008	n/a	LTP387	ltpFR2	5	n/a	n/a	n/a	10	19	9	9	1
1490.40625	n/a	PROB	3052352	n/a	LTP387	ltpFR2	5	n/a	n/a	n/a	10	16	3	8	5
1492.47314453125	n/a	PROB	3056585	n/a	LTP387	ltpFR2	5	n/a	n/a	n/a	10	10	3	2	5
1494.40625	n/a	PROB	3060544	n/a	LTP387	ltpFR2	5	n/a	n/a	n/a	10	8	1	5	2
1495.92333984375	n/a	PROB	3063651	n/a	LTP387	ltpFR2	5	n/a	n/a	n/a	10	14	2	7	5
1497.88916015625	n/a	PROB	3067677	n/a	LTP387	ltpFR2	5	n/a	n/a	n/a	10	18	5	9	4
1500.38916015625	n/a	PROB	3072797	n/a	LTP387	ltpFR2	5	n/a	n/a	n/a	10	14	1	8	5
1502.18994140625	n/a	PROB	3076485	n/a	LTP387	ltpFR2	5	n/a	n/a	n/a	10	18	7	5	6
1504.125	n/a	STOP	3080448	n/a	LTP387	ltpFR2	5	n/a	n/a	n/a	10	n/a	n/a	n/a	n/a
1507.55712890625	n/a	REC_START	3087477	n/a	LTP387	ltpFR2	5	7	n/a	n/a	n/a	n/a	0	0	0
1509.919921875	n/a	REC_WORD	3092316	wordpools/wasnorm_wordpool_576.txt	LTP387	ltpFR2	5	7	PRINCESS	1125	n/a	n/a	0	0	0
1511.03662109375	n/a	REC_WORD	3094603	wordpools/wasnorm_wordpool_576.txt	LTP387	ltpFR2	5	7	FLEET	578	n/a	n/a	0	0	0
1531.6962890625	n/a	REC_WORD	3136914	wordpools/wasnorm_wordpool_576.txt	LTP387	ltpFR2	5	7	FOREST	593	n/a	n/a	0	0	0
1534.06494140625	n/a	REC_WORD	3141765	wordpools/wasnorm_wordpool_576.txt	LTP387	ltpFR2	5	7	PUDDLE	1140	n/a	n/a	0	0	0
1535.01806640625	n/a	REC_WORD	3143717	wordpools/wasnorm_wordpool_576.txt	LTP387	ltpFR2	5	7	COURSE	390	n/a	n/a	0	0	0
1537.48388671875	n/a	REC_WORD	3148767	wordpools/wasnorm_wordpool_576.txt	LTP387	ltpFR2	5	7	EAGLE	512	n/a	n/a	0	0	0
1538.65576171875	n/a	REC_WORD	3151167	wordpools/wasnorm_wordpool_576.txt	LTP387	ltpFR2	5	7	PARROT	1015	n/a	n/a	0	0	0
1539.77685546875	n/a	REC_WORD	3153463	wordpools/wasnorm_wordpool_576.txt	LTP387	ltpFR2	5	7	KIDNEY	776	n/a	n/a	0	0	0
1540.8720703125	n/a	REC_WORD	3155706	wordpools/wasnorm_wordpool_576.txt	LTP387	ltpFR2	5	7	THRONE	1461	n/a	n/a	0	0	0
1550.55859375	n/a	REC_WORD	3175544	wordpools/wasnorm_wordpool_576.txt	LTP387	ltpFR2	5	7	BRANCH	168	n/a	n/a	0	0	0
1555.8125	n/a	REC_WORD	3186304	wordpools/wasnorm_wordpool_576.txt	LTP387	ltpFR2	5	7	PEBBLE	1035	n/a	n/a	0	0	0
1598.0009765625	n/a	DISTRACTOR	3272706	n/a	LTP387	ltpFR2	5	8	n/a	n/a	n/a	n/a	0	0	0
1598.001953125	n/a	START	3272708	n/a	LTP387	ltpFR2	5	n/a	n/a	n/a	11	n/a	n/a	n/a	n/a
1598.01806640625	n/a	PROB	3272741	n/a	LTP387	ltpFR2	5	n/a	n/a	n/a	11	20	8	8	4
1600.18603515625	n/a	PROB	3277181	n/a	LTP387	ltpFR2	5	n/a	n/a	n/a	11	22	8	6	6
1604.0849609375	n/a	PROB	3285166	n/a	LTP387	ltpFR2	5	n/a	n/a	n/a	11	22	9	6	7
1606.73388671875	n/a	PROB	3290591	n/a	LTP387	ltpFR2	5	n/a	n/a	n/a	11	15	8	3	4
1609.0009765625	n/a	PROB	3295234	n/a	LTP387	ltpFR2	5	n/a	n/a	n/a	11	14	4	1	9
1610.45068359375	n/a	PROB	3298203	n/a	LTP387	ltpFR2	5	n/a	n/a	n/a	11	14	2	7	5
1612.7177734375	n/a	PROB	3302846	n/a	LTP387	ltpFR2	5	n/a	n/a	n/a	11	16	6	6	4
1614.58349609375	n/a	PROB	3306667	n/a	LTP387	ltpFR2	5	n/a	n/a	n/a	11	20	6	7	7
1616.55078125	n/a	PROB	3310696	n/a	LTP387	ltpFR2	5	n/a	n/a	n/a	11	16	5	7	4
1618.767578125	n/a	PROB	3315236	n/a	LTP387	ltpFR2	5	n/a	n/a	n/a	11	12	2	2	8
1622.00146484375	n/a	STOP	3321859	n/a	LTP387	ltpFR2	5	n/a	n/a	n/a	11	n/a	n/a	n/a	n/a
1622.8505859375	n/a	WORD	3323598	wordpools/wasnorm_wordpool_576.txt	LTP387	ltpFR2	5	8	RAZOR	1171	n/a	n/a	0	0	0
1625.46728515625	n/a	WORD	3328957	wordpools/wasnorm_wordpool_576.txt	LTP387	ltpFR2	5	8	TILE	1468	n/a	n/a	0	0	0
1628.06640625	n/a	WORD	3334280	wordpools/wasnorm_wordpool_576.txt	LTP387	ltpFR2	5	8	LION	827	n/a	n/a	0	0	0
1630.5830078125	n/a	WORD	3339434	wordpools/wasnorm_wordpool_576.txt	LTP387	ltpFR2	5	8	LAKE	796	n/a	n/a	0	0	0
1633.0	n/a	WORD	3344384	wordpools/wasnorm_wordpool_576.txt	LTP387	ltpFR2	5	8	TURTLE	1522	n/a	n/a	0	0	0
1635.75	n/a	WORD	3350016	wordpools/wasnorm_wordpool_576.txt	LTP387	ltpFR2	5	8	CLAM	315	n/a	n/a	0	0	0
1638.416015625	n/a	WORD	3355476	wordpools/wasnorm_wordpool_576.txt	LTP387	ltpFR2	5	8	CHEST	295	n/a	n/a	0	0	0
1641.0	n/a	WORD	3360768	wordpools/wasnorm_wordpool_576.txt	LTP387	ltpFR2	5	8	BACKBONE	66	n/a	n/a	0	0	0
1643.73291015625	n/a	WORD	3366365	wordpools/wasnorm_wordpool_576.txt	LTP387	ltpFR2	5	8	GROUND	666	n/a	n/a	0	0	0
1646.2998046875	n/a	WORD	3371622	wordpools/wasnorm_wordpool_576.txt	LTP387	ltpFR2	5	8	CASKET	255	n/a	n/a	0	0	0
1648.8486328125	n/a	WORD	3376842	wordpools/wasnorm_wordpool_576.txt	LTP387	ltpFR2	5	8	YOLK	1633	n/a	n/a	0	0	0
1651.54833984375	n/a	WORD	3382371	wordpools/wasnorm_wordpool_576.txt	LTP387	ltpFR2	5	8	PIANO	1057	n/a	n/a	0	0	0
1654.33251953125	n/a	WORD	3388073	wordpools/wasnorm_wordpool_576.txt	LTP387	ltpFR2	5	8	SUSPECT	1415	n/a	n/a	0	0	0
1656.99853515625	n/a	WORD	3393533	wordpools/wasnorm_wordpool_576.txt	LTP387	ltpFR2	5	8	INMATE	738	n/a	n/a	0	0	0
1659.68212890625	n/a	WORD	3399029	wordpools/wasnorm_wordpool_576.txt	LTP387	ltpFR2	5	8	DRUG	501	n/a	n/a	0	0	0
1662.43212890625	n/a	WORD	3404661	wordpools/wasnorm_wordpool_576.txt	LTP387	ltpFR2	5	8	BLADE	134	n/a	n/a	0	0	0
1664.98193359375	n/a	WORD	3409883	wordpools/wasnorm_wordpool_576.txt	LTP387	ltpFR2	5	8	SALMON	1227	n/a	n/a	0	0	0
1667.56494140625	n/a	WORD	3415173	wordpools/wasnorm_wordpool_576.txt	LTP387	ltpFR2	5	8	MARSH	874	n/a	n/a	0	0	0
1670.01513671875	n/a	WORD	3420191	wordpools/wasnorm_wordpool_576.txt	LTP387	ltpFR2	5	8	CUSTARD	429	n/a	n/a	0	0	0
1672.7646484375	n/a	WORD	3425822	wordpools/wasnorm_wordpool_576.txt	LTP387	ltpFR2	5	8	BASEMENT	94	n/a	n/a	0	0	0
1675.46484375	n/a	WORD	3431352	wordpools/wasnorm_wordpool_576.txt	LTP387	ltpFR2	5	8	VICTIM	1562	n/a	n/a	0	0	0
1677.9306640625	n/a	WORD	3436402	wordpools/wasnorm_wordpool_576.txt	LTP387	ltpFR2	5	8	BLENDER	136	n/a	n/a	0	0	0
1680.630859375	n/a	WORD	3441932	wordpools/wasnorm_wordpool_576.txt	LTP387	ltpFR2	5	8	PAIL	1002	n/a	n/a	0	0	0
1683.29736328125	n/a	WORD	3447393	wordpools/wasnorm_wordpool_576.txt	LTP387	ltpFR2	5	8	RATTLE	1170	n/a	n/a	0	0	0
1684.91455078125	n/a	START	3450705	n/a	LTP387	ltpFR2	5	n/a	n/a	n/a	12	n/a	n/a	n/a	n/a
1686.0146484375	n/a	DISTRACTOR	3452958	n/a	LTP387	ltpFR2	5	8	n/a	n/a	n/a	n/a	0	0	0
1686.0302734375	n/a	PROB	3452990	n/a	LTP387	ltpFR2	5	n/a	n/a	n/a	12	19	9	9	1
1687.814453125	n/a	PROB	3456644	n/a	LTP387	ltpFR2	5	n/a	n/a	n/a	12	20	3	8	9
1690.1982421875	n/a	PROB	3461526	n/a	LTP387	ltpFR2	5	n/a	n/a	n/a	12	12	6	2	4
1691.8974609375	n/a	PROB	3465006	n/a	LTP387	ltpFR2	5	n/a	n/a	n/a	12	13	8	4	1
1693.8134765625	n/a	PROB	3468930	n/a	LTP387	ltpFR2	5	n/a	n/a	n/a	12	16	5	5	6
1695.28125	n/a	PROB	3471936	n/a	LTP387	ltpFR2	5	n/a	n/a	n/a	12	22	7	7	8
1700.09716796875	n/a	PROB	3481799	n/a	LTP387	ltpFR2	5	n/a	n/a	n/a	12	19	4	9	6
1702.52978515625	n/a	PROB	3486781	n/a	LTP387	ltpFR2	5	n/a	n/a	n/a	12	15	6	6	3
1704.462890625	n/a	PROB	3490740	n/a	LTP387	ltpFR2	5	n/a	n/a	n/a	12	23	7	9	7
1706.81298828125	n/a	PROB	3495553	n/a	LTP387	ltpFR2	5	n/a	n/a	n/a	12	7	2	1	4
1708.4765625	n/a	STOP	3498960	n/a	LTP387	ltpFR2	5	n/a	n/a	n/a	12	n/a	n/a	n/a	n/a
1710.8466796875	n/a	REC_START	3503814	n/a	LTP387	ltpFR2	5	8	n/a	n/a	n/a	n/a	0	0	0
1713.552734375	n/a	REC_WORD	3509356	wordpools/wasnorm_wordpool_576.txt	LTP387	ltpFR2	5	8	RAZOR	1171	n/a	n/a	0	0	0
1714.52880859375	n/a	REC_WORD	3511355	wordpools/wasnorm_wordpool_576.txt	LTP387	ltpFR2	5	8	TILE	1468	n/a	n/a	0	0	0
1715.62255859375	n/a	REC_WORD	3513595	wordpools/wasnorm_wordpool_576.txt	LTP387	ltpFR2	5	8	CHEST	295	n/a	n/a	0	0	0
1717.0205078125	n/a	REC_WORD	3516458	wordpools/wasnorm_wordpool_576.txt	LTP387	ltpFR2	5	8	BACKBONE	66	n/a	n/a	0	0	0
1718.12548828125	n/a	REC_WORD	3518721	wordpools/wasnorm_wordpool_576.txt	LTP387	ltpFR2	5	8	CASKET	255	n/a	n/a	0	0	0
1719.9052734375	n/a	REC_WORD	3522366	wordpools/wasnorm_wordpool_576.txt	LTP387	ltpFR2	5	8	VICTIM	1562	n/a	n/a	0	0	0
1720.95458984375	n/a	REC_WORD	3524515	wordpools/wasnorm_wordpool_576.txt	LTP387	ltpFR2	5	8	SUSPECT	1415	n/a	n/a	0	0	0
1722.0771484375	n/a	REC_WORD	3526814	wordpools/wasnorm_wordpool_576.txt	LTP387	ltpFR2	5	8	INMATE	738	n/a	n/a	0	0	0
1723.328125	n/a	REC_WORD	3529376	wordpools/wasnorm_wordpool_576.txt	LTP387	ltpFR2	5	8	PUDDING	1139	n/a	n/a	0	0	0
1727.43603515625	n/a	REC_WORD	3537789	wordpools/wasnorm_wordpool_576.txt	LTP387	ltpFR2	5	8	BLENDER	136	n/a	n/a	0	0	0
1729.71533203125	n/a	REC_WORD	3542457	wordpools/wasnorm_wordpool_576.txt	LTP387	ltpFR2	5	8	LAKE	796	n/a	n/a	0	0	0
1730.80419921875	n/a	REC_WORD	3544687	wordpools/wasnorm_wordpool_576.txt	LTP387	ltpFR2	5	8	LION	827	n/a	n/a	0	0	0
1732.1171875	n/a	REC_WORD	3547376	wordpools/wasnorm_wordpool_576.txt	LTP387	ltpFR2	5	8	YOLK	1633	n/a	n/a	0	0	0
1733.39794921875	n/a	REC_WORD	3549999	wordpools/wasnorm_wordpool_576.txt	LTP387	ltpFR2	5	8	CLAM	315	n/a	n/a	0	0	0
1734.5732421875	n/a	REC_WORD	3552406	wordpools/wasnorm_wordpool_576.txt	LTP387	ltpFR2	5	8	SALMON	1227	n/a	n/a	0	0	0
1768.8271484375	n/a	REC_WORD	3622558	wordpools/wasnorm_wordpool_576.txt	LTP387	ltpFR2	5	8	BLADE	134	n/a	n/a	0	0	0
1787.392578125	n/a	REST_REWET	3660580	n/a	LTP387	ltpFR2	5	8	n/a	n/a	n/a	n/a	0	0	0
1941.48583984375	n/a	WORD	3976163	wordpools/wasnorm_wordpool_576.txt	LTP387	ltpFR2	5	9	MASK	876	n/a	n/a	0	0	0
1943.98583984375	n/a	WORD	3981283	wordpools/wasnorm_wordpool_576.txt	LTP387	ltpFR2	5	9	HANDBAG	684	n/a	n/a	0	0	0
1946.50146484375	n/a	WORD	3986435	wordpools/wasnorm_wordpool_576.txt	LTP387	ltpFR2	5	9	TRENCH	1503	n/a	n/a	0	0	0
1949.13623046875	n/a	WORD	3991831	wordpools/wasnorm_wordpool_576.txt	LTP387	ltpFR2	5	9	CHAUFFEUR	283	n/a	n/a	0	0	0
1951.63525390625	n/a	WORD	3996949	wordpools/wasnorm_wordpool_576.txt	LTP387	ltpFR2	5	9	WAGON	1578	n/a	n/a	0	0	0
1954.318359375	n/a	WORD	4002444	wordpools/wasnorm_wordpool_576.txt	LTP387	ltpFR2	5	9	SCULPTURE	1258	n/a	n/a	0	0	0
1956.93505859375	n/a	WORD	4007803	wordpools/wasnorm_wordpool_576.txt	LTP387	ltpFR2	5	9	PEPPER	1047	n/a	n/a	0	0	0
1959.3681640625	n/a	WORD	4012786	wordpools/wasnorm_wordpool_576.txt	LTP387	ltpFR2	5	9	SHOULDER	1294	n/a	n/a	0	0	0
1961.85107421875	n/a	WORD	4017871	wordpools/wasnorm_wordpool_576.txt	LTP387	ltpFR2	5	9	COUSIN	392	n/a	n/a	0	0	0
1964.583984375	n/a	WORD	4023468	wordpools/wasnorm_wordpool_576.txt	LTP387	ltpFR2	5	9	NOTEBOOK	959	n/a	n/a	0	0	0
1967.134765625	n/a	WORD	4028692	wordpools/wasnorm_wordpool_576.txt	LTP387	ltpFR2	5	9	PARSLEY	1016	n/a	n/a	0	0	0
1969.70068359375	n/a	WORD	4033947	wordpools/wasnorm_wordpool_576.txt	LTP387	ltpFR2	5	9	VELVET	1555	n/a	n/a	0	0	0
1972.134765625	n/a	WORD	4038932	wordpools/wasnorm_wordpool_576.txt	LTP387	ltpFR2	5	9	TOURIST	1488	n/a	n/a	0	0	0
1974.7177734375	n/a	WORD	4044222	wordpools/wasnorm_wordpool_576.txt	LTP387	ltpFR2	5	9	REPORT	1184	n/a	n/a	0	0	0
1977.30078125	n/a	WORD	4049512	wordpools/wasnorm_wordpool_576.txt	LTP387	ltpFR2	5	9	BARREL	91	n/a	n/a	0	0	0
1979.75048828125	n/a	WORD	4054529	wordpools/wasnorm_wordpool_576.txt	LTP387	ltpFR2	5	9	GIRL	637	n/a	n/a	0	0	0
1982.20166015625	n/a	WORD	4059549	wordpools/wasnorm_wordpool_576.txt	LTP387	ltpFR2	5	9	MUMMY	932	n/a	n/a	0	0	0
1984.8662109375	n/a	WORD	4065006	wordpools/wasnorm_wordpool_576.txt	LTP387	ltpFR2	5	9	TUTU	1524	n/a	n/a	0	0	0
1987.55029296875	n/a	WORD	4070503	wordpools/wasnorm_wordpool_576.txt	LTP387	ltpFR2	5	9	POISON	1096	n/a	n/a	0	0	0
1990.0	n/a	WORD	4075520	wordpools/wasnorm_wordpool_576.txt	LTP387	ltpFR2	5	9	WIDOW	1608	n/a	n/a	0	0	0
1992.81591796875	n/a	WORD	4081287	wordpools/wasnorm_wordpool_576.txt	LTP387	ltpFR2	5	9	SCARF	1246	n/a	n/a	0	0	0
1995.25	n/a	WORD	4086272	wordpools/wasnorm_wordpool_576.txt	LTP387	ltpFR2	5	9	PASTRY	1022	n/a	n/a	0	0	0
1997.7490234375	n/a	WORD	4091390	wordpools/wasnorm_wordpool_576.txt	LTP387	ltpFR2	5	9	ICING	732	n/a	n/a	0	0	0
2000.53271484375	n/a	WORD	4097091	wordpools/wasnorm_wordpool_576.txt	LTP387	ltpFR2	5	9	IGLOO	734	n/a	n/a	0	0	0
2002.15087890625	n/a	START	4100405	n/a	LTP387	ltpFR2	5	n/a	n/a	n/a	13	n/a	n/a	n/a	n/a
2003.267578125	n/a	DISTRACTOR	4102692	n/a	LTP387	ltpFR2	5	9	n/a	n/a	n/a	n/a	0	0	0
2003.28271484375	n/a	PROB	4102723	n/a	LTP387	ltpFR2	5	n/a	n/a	n/a	13	13	2	2	9
2005.69873046875	n/a	PROB	4107671	n/a	LTP387	ltpFR2	5	n/a	n/a	n/a	13	15	9	2	4
2007.69873046875	n/a	PROB	4111767	n/a	LTP387	ltpFR2	5	n/a	n/a	n/a	13	23	6	9	8
2010.6826171875	n/a	PROB	4117878	n/a	LTP387	ltpFR2	5	n/a	n/a	n/a	13	23	7	9	7
2012.69873046875	n/a	PROB	4122007	n/a	LTP387	ltpFR2	5	n/a	n/a	n/a	13	11	5	3	3
2015.0322265625	n/a	PROB	4126786	n/a	LTP387	ltpFR2	5	n/a	n/a	n/a	13	14	6	6	2
2017.0654296875	n/a	PROB	4130950	n/a	LTP387	ltpFR2	5	n/a	n/a	n/a	13	13	1	8	4
2019.6982421875	n/a	PROB	4136342	n/a	LTP387	ltpFR2	5	n/a	n/a	n/a	13	24	7	7	8
2026.14990234375	n/a	STOP	4149555	n/a	LTP387	ltpFR2	5	n/a	n/a	n/a	13	n/a	n/a	n/a	n/a
2028.08203125	n/a	REC_START	4153512	n/a	LTP387	ltpFR2	5	9	n/a	n/a	n/a	n/a	0	0	0
2030.3662109375	n/a	REC_WORD	4158190	wordpools/wasnorm_wordpool_576.txt	LTP387	ltpFR2	5	9	MASK	876	n/a	n/a	0	0	0
2031.73291015625	n/a	REC_WORD	4160989	wordpools/wasnorm_wordpool_576.txt	LTP387	ltpFR2	5	9	HANDBAG	684	n/a	n/a	0	0	0
2033.32568359375	n/a	REC_WORD	4164251	wordpools/wasnorm_wordpool_576.txt	LTP387	ltpFR2	5	9	VELVET	1555	n/a	n/a	0	0	0
2034.7578125	n/a	REC_WORD	4167184	wordpools/wasnorm_wordpool_576.txt	LTP387	ltpFR2	5	9	CHAUFFEUR	283	n/a	n/a	0	0	0
2036.43798828125	n/a	REC_WORD	4170625	wordpools/wasnorm_wordpool_576.txt	LTP387	ltpFR2	5	9	PEPPER	1047	n/a	n/a	0	0	0
2037.90673828125	n/a	REC_WORD	4173633	wordpools/wasnorm_wordpool_576.txt	LTP387	ltpFR2	5	9	PARSLEY	1016	n/a	n/a	0	0	0
2043.4833984375	n/a	REC_WORD	4185054	wordpools/wasnorm_wordpool_576.txt	LTP387	ltpFR2	5	9	TRENCH	1503	n/a	n/a	0	0	0
2045.5146484375	n/a	REC_WORD	4189214	wordpools/wasnorm_wordpool_576.txt	LTP387	ltpFR2	5	9	TOURIST	1488	n/a	n/a	0	0	0
2047.17626953125	n/a	REC_WORD	4192617	wordpools/wasnorm_wordpool_576.txt	LTP387	ltpFR2	5	9	WAGON	1578	n/a	n/a	0	0	0
2048.42822265625	n/a	REC_WORD	4195181	wordpools/wasnorm_wordpool_576.txt	LTP387	ltpFR2	5	9	GIRL	637	n/a	n/a	0	0	0
2049.6923828125	n/a	REC_WORD	4197770	wordpools/wasnorm_wordpool_576.txt	LTP387	ltpFR2	5	9	TUTU	1524	n/a	n/a	0	0	0
2051.04248046875	n/a	REC_WORD	4200535	wordpools/wasnorm_wordpool_576.txt	LTP387	ltpFR2	5	9	ICING	732	n/a	n/a	0	0	0
2052.1953125	n/a	REC_WORD	4202896	wordpools/wasnorm_wordpool_576.txt	LTP387	ltpFR2	5	9	PASTRY	1022	n/a	n/a	0	0	0
2056.71533203125	n/a	REC_WORD	4212153	wordpools/wasnorm_wordpool_576.txt	LTP387	ltpFR2	5	9	BARREL	91	n/a	n/a	0	0	0
2062.884765625	n/a	REC_WORD	4224788	wordpools/wasnorm_wordpool_576.txt	LTP387	ltpFR2	5	9	SCULPTURE	1258	n/a	n/a	0	0	0
2085.6904296875	n/a	REC_WORD	4271494	wordpools/wasnorm_wordpool_576.txt	LTP387	ltpFR2	5	9	POISON	1096	n/a	n/a	0	0	0
2118.52734375	n/a	WORD	4338744	wordpools/wasnorm_wordpool_576.txt	LTP387	ltpFR2	5	10	THIEF	1456	n/a	n/a	0	0	0
2121.1611328125	n/a	WORD	4344138	wordpools/wasnorm_wordpool_576.txt	LTP387	ltpFR2	5	10	SHORTS	1293	n/a	n/a	0	0	0
2123.84326171875	n/a	WORD	4349631	wordpools/wasnorm_wordpool_576.txt	LTP387	ltpFR2	5	10	TREAT	1501	n/a	n/a	0	0	0
2126.56005859375	n/a	WORD	4355195	wordpools/wasnorm_wordpool_576.txt	LTP387	ltpFR2	5	10	MILK	895	n/a	n/a	0	0	0
2129.31005859375	n/a	WORD	4360827	wordpools/wasnorm_wordpool_576.txt	LTP387	ltpFR2	5	10	KITCHEN	778	n/a	n/a	0	0	0
2131.99267578125	n/a	WORD	4366321	wordpools/wasnorm_wordpool_576.txt	LTP387	ltpFR2	5	10	DINER	467	n/a	n/a	0	0	0
2134.54296875	n/a	WORD	4371544	wordpools/wasnorm_wordpool_576.txt	LTP387	ltpFR2	5	10	STICKER	1382	n/a	n/a	0	0	0
2137.0927734375	n/a	WORD	4376766	wordpools/wasnorm_wordpool_576.txt	LTP387	ltpFR2	5	10	HOOK	715	n/a	n/a	0	0	0
2139.62548828125	n/a	WORD	4381953	wordpools/wasnorm_wordpool_576.txt	LTP387	ltpFR2	5	10	REBEL	1172	n/a	n/a	0	0	0
2142.2607421875	n/a	WORD	4387350	wordpools/wasnorm_wordpool_576.txt	LTP387	ltpFR2	5	10	COTTAGE	384	n/a	n/a	0	0	0
2144.7763671875	n/a	WORD	4392502	wordpools/wasnorm_wordpool_576.txt	LTP387	ltpFR2	5	10	GRILL	661	n/a	n/a	0	0	0
2147.275390625	n/a	WORD	4397620	wordpools/wasnorm_wordpool_576.txt	LTP387	ltpFR2	5	10	MARKER	870	n/a	n/a	0	0	0
2150.09228515625	n/a	WORD	4403389	wordpools/wasnorm_wordpool_576.txt	LTP387	ltpFR2	5	10	POPCORN	1104	n/a	n/a	0	0	0
2152.525390625	n/a	WORD	4408372	wordpools/wasnorm_wordpool_576.txt	LTP387	ltpFR2	5	10	SEAGULL	1261	n/a	n/a	0	0	0
2155.16015625	n/a	WORD	4413768	wordpools/wasnorm_wordpool_576.txt	LTP387	ltpFR2	5	10	BANK	83	n/a	n/a	0	0	0
2157.77490234375	n/a	WORD	4419123	wordpools/wasnorm_wordpool_576.txt	LTP387	ltpFR2	5	10	LABEL	790	n/a	n/a	0	0	0
2160.591796875	n/a	WORD	4424892	wordpools/wasnorm_wordpool_576.txt	LTP387	ltpFR2	5	10	BUG	187	n/a	n/a	0	0	0
2163.30810546875	n/a	WORD	4430455	wordpools/wasnorm_wordpool_576.txt	LTP387	ltpFR2	5	10	JEANS	752	n/a	n/a	0	0	0
2166.1259765625	n/a	WORD	4436226	wordpools/wasnorm_wordpool_576.txt	LTP387	ltpFR2	5	10	LODGE	839	n/a	n/a	0	0	0
2168.85791015625	n/a	WORD	4441821	wordpools/wasnorm_wordpool_576.txt	LTP387	ltpFR2	5	10	CRAYON	401	n/a	n/a	0	0	0
2171.62451171875	n/a	WORD	4447487	wordpools/wasnorm_wordpool_576.txt	LTP387	ltpFR2	5	10	DRESS	495	n/a	n/a	0	0	0
2174.142578125	n/a	WORD	4452644	wordpools/wasnorm_wordpool_576.txt	LTP387	ltpFR2	5	10	LACE	792	n/a	n/a	0	0	0
2176.87451171875	n/a	WORD	4458239	wordpools/wasnorm_wordpool_576.txt	LTP387	ltpFR2	5	10	SHELF	1280	n/a	n/a	0	0	0
2179.607421875	n/a	WORD	4463836	wordpools/wasnorm_wordpool_576.txt	LTP387	ltpFR2	5	10	DRESSER	496	n/a	n/a	0	0	0
2181.20849609375	n/a	START	4467115	n/a	LTP387	ltpFR2	5	n/a	n/a	n/a	14	n/a	n/a	n/a	n/a
2182.3955078125	n/a	DISTRACTOR	4469546	n/a	LTP387	ltpFR2	5	10	n/a	n/a	n/a	n/a	0	0	0
2182.4072265625	n/a	PROB	4469570	n/a	LTP387	ltpFR2	5	n/a	n/a	n/a	14	15	7	2	6
2184.50732421875	n/a	PROB	4473871	n/a	LTP387	ltpFR2	5	n/a	n/a	n/a	14	19	5	5	9
2186.1083984375	n/a	PROB	4477150	n/a	LTP387	ltpFR2	5	n/a	n/a	n/a	14	8	5	2	1
2187.72412109375	n/a	PROB	4480459	n/a	LTP387	ltpFR2	5	n/a	n/a	n/a	14	18	9	8	1
2189.93994140625	n/a	PROB	4484997	n/a	LTP387	ltpFR2	5	n/a	n/a	n/a	14	13	3	6	4
2191.7900390625	n/a	PROB	4488786	n/a	LTP387	ltpFR2	5	n/a	n/a	n/a	14	15	4	9	2
2193.52392578125	n/a	PROB	4492337	n/a	LTP387	ltpFR2	5	n/a	n/a	n/a	14	15	8	2	5
2194.95703125	n/a	PROB	4495272	n/a	LTP387	ltpFR2	5	n/a	n/a	n/a	14	14	5	7	4
2197.5400390625	n/a	PROB	4500562	n/a	LTP387	ltpFR2	5	n/a	n/a	n/a	14	11	2	6	3
2199.58984375	n/a	PROB	4504760	n/a	LTP387	ltpFR2	5	n/a	n/a	n/a	14	16	5	3	8
2205.20654296875	n/a	STOP	4516263	n/a	LTP387	ltpFR2	5	n/a	n/a	n/a	14	n/a	n/a	n/a	n/a
2207.04052734375	n/a	REC_START	4520019	n/a	LTP387	ltpFR2	5	10	n/a	n/a	n/a	n/a	0	0	0
2211.115234375	n/a	REC_WORD	4528364	wordpools/wasnorm_wordpool_576.txt	LTP387	ltpFR2	5	10	CRAYON	401	n/a	n/a	0	0	0
2217.896484375	n/a	REC_WORD	4542252	wordpools/wasnorm_wordpool_576.txt	LTP387	ltpFR2	5	10	LODGE	839	n/a	n/a	0	0	0
2265.458984375	n/a	REC_WORD	4639660	wordpools/wasnorm_wordpool_576.txt	LTP387	ltpFR2	5	10	CABIN	211	n/a	n/a	0	0	0
2274.4853515625	n/a	REC_WORD	4658146	wordpools/wasnorm_wordpool_576.txt	LTP387	ltpFR2	5	10	SHELF	1280	n/a	n/a	0	0	0
2275.8984375	n/a	REC_WORD	4661040	wordpools/wasnorm_wordpool_576.txt	LTP387	ltpFR2	5	10	GRILL	661	n/a	n/a	0	0	0
2297.501953125	n/a	WORD	4705284	wordpools/wasnorm_wordpool_576.txt	LTP387	ltpFR2	5	11	CLOTHES	327	n/a	n/a	0	0	0
2300.2685546875	n/a	WORD	4710950	wordpools/wasnorm_wordpool_576.txt	LTP387	ltpFR2	5	11	POCKET	1093	n/a	n/a	0	0	0
2303.00146484375	n/a	WORD	4716547	wordpools/wasnorm_wordpool_576.txt	LTP387	ltpFR2	5	11	COLONEL	348	n/a	n/a	0	0	0
2305.48583984375	n/a	WORD	4721635	wordpools/wasnorm_wordpool_576.txt	LTP387	ltpFR2	5	11	MISTER	901	n/a	n/a	0	0	0
2308.15234375	n/a	WORD	4727096	wordpools/wasnorm_wordpool_576.txt	LTP387	ltpFR2	5	11	HAMPER	682	n/a	n/a	0	0	0
2310.9345703125	n/a	WORD	4732794	wordpools/wasnorm_wordpool_576.txt	LTP387	ltpFR2	5	11	JUDGE	761	n/a	n/a	0	0	0
2313.75146484375	n/a	WORD	4738563	wordpools/wasnorm_wordpool_576.txt	LTP387	ltpFR2	5	11	COBRA	336	n/a	n/a	0	0	0
2316.484375	n/a	WORD	4744160	wordpools/wasnorm_wordpool_576.txt	LTP387	ltpFR2	5	11	SNAKE	1333	n/a	n/a	0	0	0
2319.0009765625	n/a	WORD	4749314	wordpools/wasnorm_wordpool_576.txt	LTP387	ltpFR2	5	11	AIRPORT	13	n/a	n/a	0	0	0
2321.80126953125	n/a	WORD	4755049	wordpools/wasnorm_wordpool_576.txt	LTP387	ltpFR2	5	11	CATTLE	261	n/a	n/a	0	0	0
2324.51806640625	n/a	WORD	4760613	wordpools/wasnorm_wordpool_576.txt	LTP387	ltpFR2	5	11	RACKET	1155	n/a	n/a	0	0	0
2326.98388671875	n/a	WORD	4765663	wordpools/wasnorm_wordpool_576.txt	LTP387	ltpFR2	5	11	BOYFRIEND	162	n/a	n/a	0	0	0
2329.7509765625	n/a	WORD	4771330	wordpools/wasnorm_wordpool_576.txt	LTP387	ltpFR2	5	11	TUNNEL	1519	n/a	n/a	0	0	0
2332.23486328125	n/a	WORD	4776417	wordpools/wasnorm_wordpool_576.txt	LTP387	ltpFR2	5	11	JUGGLER	763	n/a	n/a	0	0	0
2334.78369140625	n/a	WORD	4781637	wordpools/wasnorm_wordpool_576.txt	LTP387	ltpFR2	5	11	GARBAGE	622	n/a	n/a	0	0	0
2337.41650390625	n/a	WORD	4787029	wordpools/wasnorm_wordpool_576.txt	LTP387	ltpFR2	5	11	BACON	67	n/a	n/a	0	0	0
2340.20166015625	n/a	WORD	4792733	wordpools/wasnorm_wordpool_576.txt	LTP387	ltpFR2	5	11	WOMAN	1620	n/a	n/a	0	0	0
2342.80029296875	n/a	WORD	4798055	wordpools/wasnorm_wordpool_576.txt	LTP387	ltpFR2	5	11	SPONGE	1355	n/a	n/a	0	0	0
2345.3662109375	n/a	WORD	4803310	wordpools/wasnorm_wordpool_576.txt	LTP387	ltpFR2	5	11	STREAM	1392	n/a	n/a	0	0	0
2347.81640625	n/a	WORD	4808328	wordpools/wasnorm_wordpool_576.txt	LTP387	ltpFR2	5	11	FREEZER	604	n/a	n/a	0	0	0
2350.5830078125	n/a	WORD	4813994	wordpools/wasnorm_wordpool_576.txt	LTP387	ltpFR2	5	11	PENGUIN	1044	n/a	n/a	0	0	0
2353.13427734375	n/a	WORD	4819219	wordpools/wasnorm_wordpool_576.txt	LTP387	ltpFR2	5	11	PASTA	1021	n/a	n/a	0	0	0
2355.916015625	n/a	WORD	4824916	wordpools/wasnorm_wordpool_576.txt	LTP387	ltpFR2	5	11	ACTRESS	6	n/a	n/a	0	0	0
2358.48291015625	n/a	WORD	4830173	wordpools/wasnorm_wordpool_576.txt	LTP387	ltpFR2	5	11	PLAZA	1088	n/a	n/a	0	0	0
2360.10009765625	n/a	START	4833485	n/a	LTP387	ltpFR2	5	n/a	n/a	n/a	15	n/a	n/a	n/a	n/a
2360.970703125	n/a	DISTRACTOR	4835268	n/a	LTP387	ltpFR2	5	11	n/a	n/a	n/a	n/a	0	0	0
2360.98291015625	n/a	PROB	4835293	n/a	LTP387	ltpFR2	5	n/a	n/a	n/a	15	11	3	4	4
2363.36572265625	n/a	PROB	4840173	n/a	LTP387	ltpFR2	5	n/a	n/a	n/a	15	14	6	6	2
2365.798828125	n/a	PROB	4845156	n/a	LTP387	ltpFR2	5	n/a	n/a	n/a	15	14	3	4	7
2367.53173828125	n/a	PROB	4848705	n/a	LTP387	ltpFR2	5	n/a	n/a	n/a	15	16	5	4	7
2371.1494140625	n/a	PROB	4856114	n/a	LTP387	ltpFR2	5	n/a	n/a	n/a	15	13	4	1	8
2372.83154296875	n/a	PROB	4859559	n/a	LTP387	ltpFR2	5	n/a	n/a	n/a	15	18	6	9	3
2375.28125	n/a	PROB	4864576	n/a	LTP387	ltpFR2	5	n/a	n/a	n/a	15	14	1	9	4
2377.0654296875	n/a	PROB	4868230	n/a	LTP387	ltpFR2	5	n/a	n/a	n/a	15	26	5	9	8
2382.748046875	n/a	STOP	4879868	n/a	LTP387	ltpFR2	5	n/a	n/a	n/a	15	n/a	n/a	n/a	n/a
2385.98193359375	n/a	REC_START	4886491	n/a	LTP387	ltpFR2	5	11	n/a	n/a	n/a	n/a	0	0	0
2389.19091796875	n/a	REC_WORD	4893063	wordpools/wasnorm_wordpool_576.txt	LTP387	ltpFR2	5	11	COLONEL	348	n/a	n/a	0	0	0
2390.14306640625	n/a	REC_WORD	4895013	wordpools/wasnorm_wordpool_576.txt	LTP387	ltpFR2	5	11	MISTER	901	n/a	n/a	0	0	0
2391.2861328125	n/a	REC_WORD	4897354	wordpools/wasnorm_wordpool_576.txt	LTP387	ltpFR2	5	11	CLOTHES	327	n/a	n/a	0	0	0
2392.375	n/a	REC_WORD	4899584	wordpools/wasnorm_wordpool_576.txt	LTP387	ltpFR2	5	11	POCKET	1093	n/a	n/a	0	0	0
2393.6279296875	n/a	REC_WORD	4902150	wordpools/wasnorm_wordpool_576.txt	LTP387	ltpFR2	5	11	HAMPER	682	n/a	n/a	0	0	0
2394.99267578125	n/a	REC_WORD	4904945	wordpools/wasnorm_wordpool_576.txt	LTP387	ltpFR2	5	11	AIRPORT	13	n/a	n/a	0	0	0
2396.291015625	n/a	REC_WORD	4907604	wordpools/wasnorm_wordpool_576.txt	LTP387	ltpFR2	5	11	TUNNEL	1519	n/a	n/a	0	0	0
2397.49755859375	n/a	REC_WORD	4910075	wordpools/wasnorm_wordpool_576.txt	LTP387	ltpFR2	5	11	JUGGLER	763	n/a	n/a	0	0	0
2398.66552734375	n/a	REC_WORD	4912467	wordpools/wasnorm_wordpool_576.txt	LTP387	ltpFR2	5	11	BOYFRIEND	162	n/a	n/a	0	0	0
2400.146484375	n/a	REC_WORD	4915500	wordpools/wasnorm_wordpool_576.txt	LTP387	ltpFR2	5	11	WOMAN	1620	n/a	n/a	0	0	0
2401.19580078125	n/a	REC_WORD	4917649	wordpools/wasnorm_wordpool_576.txt	LTP387	ltpFR2	5	11	ACTRESS	6	n/a	n/a	0	0	0
2404.24755859375	n/a	REC_WORD	4923899	wordpools/wasnorm_wordpool_576.txt	LTP387	ltpFR2	5	11	PASTA	1021	n/a	n/a	0	0	0
2405.29931640625	n/a	REC_WORD	4926053	wordpools/wasnorm_wordpool_576.txt	LTP387	ltpFR2	5	11	BACON	67	n/a	n/a	0	0	0
2406.20458984375	n/a	REC_WORD	4927907	wordpools/wasnorm_wordpool_576.txt	LTP387	ltpFR2	5	11	FREEZER	604	n/a	n/a	0	0	0
2407.33154296875	n/a	REC_WORD	4930215	wordpools/wasnorm_wordpool_576.txt	LTP387	ltpFR2	5	11	PENGUIN	1044	n/a	n/a	0	0	0
2416.3583984375	n/a	REC_WORD	4948702	wordpools/wasnorm_wordpool_576.txt	LTP387	ltpFR2	5	11	JUDGE	761	n/a	n/a	0	0	0
2476.443359375	n/a	WORD	5071756	wordpools/wasnorm_wordpool_576.txt	LTP387	ltpFR2	5	12	WHISKERS	1605	n/a	n/a	0	0	0
2479.14453125	n/a	WORD	5077288	wordpools/wasnorm_wordpool_576.txt	LTP387	ltpFR2	5	12	TWEEZERS	1526	n/a	n/a	0	0	0
2481.693359375	n/a	WORD	5082508	wordpools/wasnorm_wordpool_576.txt	LTP387	ltpFR2	5	12	FLAG	573	n/a	n/a	0	0	0
2484.47705078125	n/a	WORD	5088209	wordpools/wasnorm_wordpool_576.txt	LTP387	ltpFR2	5	12	BRIEFCASE	175	n/a	n/a	0	0	0
2487.26123046875	n/a	WORD	5093911	wordpools/wasnorm_wordpool_576.txt	LTP387	ltpFR2	5	12	DANCER	437	n/a	n/a	0	0	0
2489.8427734375	n/a	WORD	5099198	wordpools/wasnorm_wordpool_576.txt	LTP387	ltpFR2	5	12	BALLOON	75	n/a	n/a	0	0	0
2492.5927734375	n/a	WORD	5104830	wordpools/wasnorm_wordpool_576.txt	LTP387	ltpFR2	5	12	LILY	821	n/a	n/a	0	0	0
2495.07568359375	n/a	WORD	5109915	wordpools/wasnorm_wordpool_576.txt	LTP387	ltpFR2	5	12	SISTER	1312	n/a	n/a	0	0	0
2497.69287109375	n/a	WORD	5115275	wordpools/wasnorm_wordpool_576.txt	LTP387	ltpFR2	5	12	DRAGON	492	n/a	n/a	0	0	0
2500.3095703125	n/a	WORD	5120634	wordpools/wasnorm_wordpool_576.txt	LTP387	ltpFR2	5	12	CIGAR	308	n/a	n/a	0	0	0
2503.09375	n/a	WORD	5126336	wordpools/wasnorm_wordpool_576.txt	LTP387	ltpFR2	5	12	GLOBE	641	n/a	n/a	0	0	0
2505.67529296875	n/a	WORD	5131623	wordpools/wasnorm_wordpool_576.txt	LTP387	ltpFR2	5	12	WORLD	1622	n/a	n/a	0	0	0
2508.16064453125	n/a	WORD	5136713	wordpools/wasnorm_wordpool_576.txt	LTP387	ltpFR2	5	12	TRANSPLANT	1496	n/a	n/a	0	0	0
2510.775390625	n/a	WORD	5142068	wordpools/wasnorm_wordpool_576.txt	LTP387	ltpFR2	5	12	RIFLE	1192	n/a	n/a	0	0	0
2513.42529296875	n/a	WORD	5147495	wordpools/wasnorm_wordpool_576.txt	LTP387	ltpFR2	5	12	SUITCASE	1403	n/a	n/a	0	0	0
2516.0751953125	n/a	WORD	5152922	wordpools/wasnorm_wordpool_576.txt	LTP387	ltpFR2	5	12	MATCH	878	n/a	n/a	0	0	0
2518.84228515625	n/a	WORD	5158589	wordpools/wasnorm_wordpool_576.txt	LTP387	ltpFR2	5	12	MOTEL	919	n/a	n/a	0	0	0
2521.408203125	n/a	WORD	5163844	wordpools/wasnorm_wordpool_576.txt	LTP387	ltpFR2	5	12	SCALPEL	1243	n/a	n/a	0	0	0
2523.85791015625	n/a	WORD	5168861	wordpools/wasnorm_wordpool_576.txt	LTP387	ltpFR2	5	12	STONE	1385	n/a	n/a	0	0	0
2526.32470703125	n/a	WORD	5173913	wordpools/wasnorm_wordpool_576.txt	LTP387	ltpFR2	5	12	PISTOL	1075	n/a	n/a	0	0	0
2529.0078125	n/a	WORD	5179408	wordpools/wasnorm_wordpool_576.txt	LTP387	ltpFR2	5	12	BROTHER	179	n/a	n/a	0	0	0
2531.74072265625	n/a	WORD	5185005	wordpools/wasnorm_wordpool_576.txt	LTP387	ltpFR2	5	12	GRAVE	658	n/a	n/a	0	0	0
2534.5078125	n/a	WORD	5190672	wordpools/wasnorm_wordpool_576.txt	LTP387	ltpFR2	5	12	TOASTER	1472	n/a	n/a	0	0	0
2537.15869140625	n/a	WORD	5196101	wordpools/wasnorm_wordpool_576.txt	LTP387	ltpFR2	5	12	STALLION	1369	n/a	n/a	0	0	0
2538.7744140625	n/a	START	5199410	n/a	LTP387	ltpFR2	5	n/a	n/a	n/a	16	n/a	n/a	n/a	n/a
2539.92724609375	n/a	DISTRACTOR	5201771	n/a	LTP387	ltpFR2	5	12	n/a	n/a	n/a	n/a	0	0	0
2539.9404296875	n/a	PROB	5201798	n/a	LTP387	ltpFR2	5	n/a	n/a	n/a	16	27	9	9	9
2543.84033203125	n/a	PROB	5209785	n/a	LTP387	ltpFR2	5	n/a	n/a	n/a	16	13	6	4	3
2546.17529296875	n/a	PROB	5214567	n/a	LTP387	ltpFR2	5	n/a	n/a	n/a	16	12	1	5	6
2548.2734375	n/a	PROB	5218864	n/a	LTP387	ltpFR2	5	n/a	n/a	n/a	16	14	7	4	3
2549.89013671875	n/a	PROB	5222175	n/a	LTP387	ltpFR2	5	n/a	n/a	n/a	16	20	9	7	4
2552.5400390625	n/a	PROB	5227602	n/a	LTP387	ltpFR2	5	n/a	n/a	n/a	16	16	9	6	1
2554.58984375	n/a	PROB	5231800	n/a	LTP387	ltpFR2	5	n/a	n/a	n/a	16	15	8	5	2
2556.45703125	n/a	PROB	5235624	n/a	LTP387	ltpFR2	5	n/a	n/a	n/a	16	9	3	2	4
2558.22412109375	n/a	PROB	5239243	n/a	LTP387	ltpFR2	5	n/a	n/a	n/a	16	6	1	2	3
2560.5400390625	n/a	PROB	5243986	n/a	LTP387	ltpFR2	5	n/a	n/a	n/a	16	13	3	2	8
2562.1728515625	n/a	STOP	5247330	n/a	LTP387	ltpFR2	5	n/a	n/a	n/a	16	n/a	n/a	n/a	n/a
2564.7236328125	n/a	REC_START	5252554	n/a	LTP387	ltpFR2	5	12	n/a	n/a	n/a	n/a	0	0	0
2567.19580078125	n/a	REC_WORD	5257617	wordpools/wasnorm_wordpool_576.txt	LTP387	ltpFR2	5	12	WHISKERS	1605	n/a	n/a	0	0	0
2568.2578125	n/a	REC_WORD	5259792	wordpools/wasnorm_wordpool_576.txt	LTP387	ltpFR2	5	12	TWEEZERS	1526	n/a	n/a	0	0	0
2569.29443359375	n/a	REC_WORD	5261915	wordpools/wasnorm_wordpool_576.txt	LTP387	ltpFR2	5	12	BRIEFCASE	175	n/a	n/a	0	0	0
2570.23876953125	n/a	REC_WORD	5263849	wordpools/wasnorm_wordpool_576.txt	LTP387	ltpFR2	5	12	FLAG	573	n/a	n/a	0	0	0
2571.359375	n/a	REC_WORD	5266144	wordpools/wasnorm_wordpool_576.txt	LTP387	ltpFR2	5	12	SUITCASE	1403	n/a	n/a	0	0	0
2572.83642578125	n/a	REC_WORD	5269169	wordpools/wasnorm_wordpool_576.txt	LTP387	ltpFR2	5	12	MOTEL	919	n/a	n/a	0	0	0
2577.1953125	n/a	REC_WORD	5278096	wordpools/wasnorm_wordpool_576.txt	LTP387	ltpFR2	5	12	SISTER	1312	n/a	n/a	0	0	0
2578.46044921875	n/a	REC_WORD	5280687	wordpools/wasnorm_wordpool_576.txt	LTP387	ltpFR2	5	12	BROTHER	179	n/a	n/a	0	0	0
2579.6494140625	n/a	REC_WORD	5283122	wordpools/wasnorm_wordpool_576.txt	LTP387	ltpFR2	5	12	LILY	821	n/a	n/a	0	0	0
2580.64599609375	n/a	REC_WORD	5285163	wordpools/wasnorm_wordpool_576.txt	LTP387	ltpFR2	5	12	BALLOON	75	n/a	n/a	0	0	0
2581.818359375	n/a	REC_WORD	5287564	wordpools/wasnorm_wordpool_576.txt	LTP387	ltpFR2	5	12	DRAGON	492	n/a	n/a	0	0	0
2582.71435546875	n/a	REC_WORD	5289399	wordpools/wasnorm_wordpool_576.txt	LTP387	ltpFR2	5	12	STONE	1385	n/a	n/a	0	0	0
2583.97509765625	n/a	REC_WORD	5291981	wordpools/wasnorm_wordpool_576.txt	LTP387	ltpFR2	5	12	RIFLE	1192	n/a	n/a	0	0	0
2585.19921875	n/a	REC_WORD	5294488	wordpools/wasnorm_wordpool_576.txt	LTP387	ltpFR2	5	12	PISTOL	1075	n/a	n/a	0	0	0
2586.6220703125	n/a	REC_WORD	5297402	wordpools/wasnorm_wordpool_576.txt	LTP387	ltpFR2	5	12	GRAVE	658	n/a	n/a	0	0	0
2655.1357421875	n/a	DISTRACTOR	5437718	n/a	LTP387	ltpFR2	5	13	n/a	n/a	n/a	n/a	0	0	0
2655.13671875	n/a	START	5437720	n/a	LTP387	ltpFR2	5	n/a	n/a	n/a	17	n/a	n/a	n/a	n/a
2655.15283203125	n/a	PROB	5437753	n/a	LTP387	ltpFR2	5	n/a	n/a	n/a	17	10	2	6	2
2657.1357421875	n/a	PROB	5441814	n/a	LTP387	ltpFR2	5	n/a	n/a	n/a	17	15	1	9	5
2658.634765625	n/a	PROB	5444884	n/a	LTP387	ltpFR2	5	n/a	n/a	n/a	17	19	3	8	8
2660.96875	n/a	PROB	5449664	n/a	LTP387	ltpFR2	5	n/a	n/a	n/a	17	13	7	1	5
2662.81884765625	n/a	PROB	5453453	n/a	LTP387	ltpFR2	5	n/a	n/a	n/a	17	11	1	3	7
2664.36865234375	n/a	PROB	5456627	n/a	LTP387	ltpFR2	5	n/a	n/a	n/a	17	13	6	2	5
2667.71875	n/a	PROB	5463488	n/a	LTP387	ltpFR2	5	n/a	n/a	n/a	17	16	9	6	1
2669.36865234375	n/a	PROB	5466867	n/a	LTP387	ltpFR2	5	n/a	n/a	n/a	17	17	6	5	6
2671.1025390625	n/a	PROB	5470418	n/a	LTP387	ltpFR2	5	n/a	n/a	n/a	17	11	2	3	6
2672.6845703125	n/a	PROB	5473658	n/a	LTP387	ltpFR2	5	n/a	n/a	n/a	17	16	4	3	9
2674.4013671875	n/a	PROB	5477174	n/a	LTP387	ltpFR2	5	n/a	n/a	n/a	17	9	1	5	3
2679.13623046875	n/a	STOP	5486871	n/a	LTP387	ltpFR2	5	n/a	n/a	n/a	17	n/a	n/a	n/a	n/a
2680.10205078125	n/a	WORD	5488849	wordpools/wasnorm_wordpool_576.txt	LTP387	ltpFR2	5	13	HEART	697	n/a	n/a	0	0	0
2682.93408203125	n/a	WORD	5494649	wordpools/wasnorm_wordpool_576.txt	LTP387	ltpFR2	5	13	PORK	1108	n/a	n/a	0	0	0
2685.5009765625	n/a	WORD	5499906	wordpools/wasnorm_wordpool_576.txt	LTP387	ltpFR2	5	13	OUTLAW	989	n/a	n/a	0	0	0
2688.28369140625	n/a	WORD	5505605	wordpools/wasnorm_wordpool_576.txt	LTP387	ltpFR2	5	13	BRANDY	169	n/a	n/a	0	0	0
2691.03369140625	n/a	WORD	5511237	wordpools/wasnorm_wordpool_576.txt	LTP387	ltpFR2	5	13	CRATER	400	n/a	n/a	0	0	0
2693.5	n/a	WORD	5516288	wordpools/wasnorm_wordpool_576.txt	LTP387	ltpFR2	5	13	CANYON	235	n/a	n/a	0	0	0
2696.2998046875	n/a	WORD	5522022	wordpools/wasnorm_wordpool_576.txt	LTP387	ltpFR2	5	13	CONTRACT	368	n/a	n/a	0	0	0
2698.7998046875	n/a	WORD	5527142	wordpools/wasnorm_wordpool_576.txt	LTP387	ltpFR2	5	13	KLEENEX	782	n/a	n/a	0	0	0
2701.599609375	n/a	WORD	5532876	wordpools/wasnorm_wordpool_576.txt	LTP387	ltpFR2	5	13	HUSBAND	728	n/a	n/a	0	0	0
2704.234375	n/a	WORD	5538272	wordpools/wasnorm_wordpool_576.txt	LTP387	ltpFR2	5	13	SPOUSE	1358	n/a	n/a	0	0	0
2706.88330078125	n/a	WORD	5543697	wordpools/wasnorm_wordpool_576.txt	LTP387	ltpFR2	5	13	SUBWAY	1400	n/a	n/a	0	0	0
2709.56640625	n/a	WORD	5549192	wordpools/wasnorm_wordpool_576.txt	LTP387	ltpFR2	5	13	NAPKIN	937	n/a	n/a	0	0	0
2712.26611328125	n/a	WORD	5554721	wordpools/wasnorm_wordpool_576.txt	LTP387	ltpFR2	5	13	GOBLIN	645	n/a	n/a	0	0	0
2714.783203125	n/a	WORD	5559876	wordpools/wasnorm_wordpool_576.txt	LTP387	ltpFR2	5	13	MONSTER	912	n/a	n/a	0	0	0
2717.548828125	n/a	WORD	5565540	wordpools/wasnorm_wordpool_576.txt	LTP387	ltpFR2	5	13	CREVICE	405	n/a	n/a	0	0	0
2720.03173828125	n/a	WORD	5570625	wordpools/wasnorm_wordpool_576.txt	LTP387	ltpFR2	5	13	HEDGE	699	n/a	n/a	0	0	0
2722.69873046875	n/a	WORD	5576087	wordpools/wasnorm_wordpool_576.txt	LTP387	ltpFR2	5	13	CAFE	216	n/a	n/a	0	0	0
2725.44873046875	n/a	WORD	5581719	wordpools/wasnorm_wordpool_576.txt	LTP387	ltpFR2	5	13	CASHEW	253	n/a	n/a	0	0	0
2728.08154296875	n/a	WORD	5587111	wordpools/wasnorm_wordpool_576.txt	LTP387	ltpFR2	5	13	TWIG	1527	n/a	n/a	0	0	0
2730.86572265625	n/a	WORD	5592813	wordpools/wasnorm_wordpool_576.txt	LTP387	ltpFR2	5	13	COCKTAIL	338	n/a	n/a	0	0	0
2733.314453125	n/a	WORD	5597828	wordpools/wasnorm_wordpool_576.txt	LTP387	ltpFR2	5	13	GIFT	635	n/a	n/a	0	0	0
2736.099609375	n/a	WORD	5603532	wordpools/wasnorm_wordpool_576.txt	LTP387	ltpFR2	5	13	ACTOR	5	n/a	n/a	0	0	0
2738.8984375	n/a	WORD	5609264	wordpools/wasnorm_wordpool_576.txt	LTP387	ltpFR2	5	13	SWORD	1423	n/a	n/a	0	0	0
2741.4482421875	n/a	WORD	5614486	wordpools/wasnorm_wordpool_576.txt	LTP387	ltpFR2	5	13	HARP	689	n/a	n/a	0	0	0
2743.0654296875	n/a	START	5617798	n/a	LTP387	ltpFR2	5	n/a	n/a	n/a	18	n/a	n/a	n/a	n/a
2744.0400390625	n/a	DISTRACTOR	5619794	n/a	LTP387	ltpFR2	5	13	n/a	n/a	n/a	n/a	0	0	0
2744.04833984375	n/a	PROB	5619811	n/a	LTP387	ltpFR2	5	n/a	n/a	n/a	18	19	9	3	7
2746.115234375	n/a	PROB	5624044	n/a	LTP387	ltpFR2	5	n/a	n/a	n/a	18	15	7	7	1
2747.78125	n/a	PROB	5627456	n/a	LTP387	ltpFR2	5	n/a	n/a	n/a	18	8	1	4	3
2749.78125	n/a	PROB	5631552	n/a	LTP387	ltpFR2	5	n/a	n/a	n/a	18	12	4	5	3
2752.4140625	n/a	PROB	5636944	n/a	LTP387	ltpFR2	5	n/a	n/a	n/a	18	12	5	2	4
2755.11474609375	n/a	PROB	5642475	n/a	LTP387	ltpFR2	5	n/a	n/a	n/a	18	25	9	8	8
2757.66357421875	n/a	PROB	5647695	n/a	LTP387	ltpFR2	5	n/a	n/a	n/a	18	18	4	8	6
2759.630859375	n/a	PROB	5651724	n/a	LTP387	ltpFR2	5	n/a	n/a	n/a	18	9	5	1	3
2761.33056640625	n/a	PROB	5655205	n/a	LTP387	ltpFR2	5	n/a	n/a	n/a	18	11	2	2	7
2762.83056640625	n/a	PROB	5658277	n/a	LTP387	ltpFR2	5	n/a	n/a	n/a	18	15	2	5	8
2764.86376953125	n/a	PROB	5662441	n/a	LTP387	ltpFR2	5	n/a	n/a	n/a	18	8	4	3	1
2766.41162109375	n/a	STOP	5665611	n/a	LTP387	ltpFR2	5	n/a	n/a	n/a	18	n/a	n/a	n/a	n/a
2768.98046875	n/a	REC_START	5670872	n/a	LTP387	ltpFR2	5	13	n/a	n/a	n/a	n/a	0	0	0
2771.03759765625	n/a	REC_WORD	5675085	wordpools/wasnorm_wordpool_576.txt	LTP387	ltpFR2	5	13	CANYON	235	n/a	n/a	0	0	0
2771.92041015625	n/a	REC_WORD	5676893	wordpools/wasnorm_wordpool_576.txt	LTP387	ltpFR2	5	13	CRATER	400	n/a	n/a	0	0	0
2773.029296875	n/a	REC_WORD	5679164	wordpools/wasnorm_wordpool_576.txt	LTP387	ltpFR2	5	13	CREVICE	405	n/a	n/a	0	0	0
2774.26513671875	n/a	REC_WORD	5681695	wordpools/wasnorm_wordpool_576.txt	LTP387	ltpFR2	5	13	OUTLAW	989	n/a	n/a	0	0	0
2775.6083984375	n/a	REC_WORD	5684446	wordpools/wasnorm_wordpool_576.txt	LTP387	ltpFR2	5	13	BRANDY	169	n/a	n/a	0	0	0
2776.6123046875	n/a	REC_WORD	5686502	wordpools/wasnorm_wordpool_576.txt	LTP387	ltpFR2	5	13	PORK	1108	n/a	n/a	0	0	0
2777.72314453125	n/a	REC_WORD	5688777	wordpools/wasnorm_wordpool_576.txt	LTP387	ltpFR2	5	13	HEART	697	n/a	n/a	0	0	0
2779.96728515625	n/a	REC_WORD	5693373	wordpools/wasnorm_wordpool_576.txt	LTP387	ltpFR2	5	13	HUSBAND	728	n/a	n/a	0	0	0
2781.419921875	n/a	REC_WORD	5696348	wordpools/wasnorm_wordpool_576.txt	LTP387	ltpFR2	5	13	SPOUSE	1358	n/a	n/a	0	0	0
2782.7802734375	n/a	REC_WORD	5699134	wordpools/wasnorm_wordpool_576.txt	LTP387	ltpFR2	5	13	ACTOR	5	n/a	n/a	0	0	0
2783.72802734375	n/a	REC_WORD	5701075	wordpools/wasnorm_wordpool_576.txt	LTP387	ltpFR2	5	13	KLEENEX	782	n/a	n/a	0	0	0
2784.7412109375	n/a	REC_WORD	5703150	wordpools/wasnorm_wordpool_576.txt	LTP387	ltpFR2	5	13	NAPKIN	937	n/a	n/a	0	0	0
2787.1708984375	n/a	REC_WORD	5708126	wordpools/wasnorm_wordpool_576.txt	LTP387	ltpFR2	5	13	SUBWAY	1400	n/a	n/a	0	0	0
2789.71484375	n/a	REC_WORD	5713336	wordpools/wasnorm_wordpool_576.txt	LTP387	ltpFR2	5	13	HEDGE	699	n/a	n/a	0	0	0
2793.390625	n/a	REC_WORD	5720864	wordpools/wasnorm_wordpool_576.txt	LTP387	ltpFR2	5	13	CAFE	216	n/a	n/a	0	0	0
2794.70751953125	n/a	REC_WORD	5723561	wordpools/wasnorm_wordpool_576.txt	LTP387	ltpFR2	5	13	COCKTAIL	338	n/a	n/a	0	0	0
2804.17041015625	n/a	REC_WORD	5742941	wordpools/wasnorm_wordpool_576.txt	LTP387	ltpFR2	5	13	TWIG	1527	n/a	n/a	0	0	0
2859.42578125	n/a	DISTRACTOR	5856104	n/a	LTP387	ltpFR2	5	14	n/a	n/a	n/a	n/a	0	0	0
2859.42578125	n/a	START	5856104	n/a	LTP387	ltpFR2	5	n/a	n/a	n/a	19	n/a	n/a	n/a	n/a
2859.44287109375	n/a	PROB	5856139	n/a	LTP387	ltpFR2	5	n/a	n/a	n/a	19	16	2	9	5
2861.4755859375	n/a	PROB	5860302	n/a	LTP387	ltpFR2	5	n/a	n/a	n/a	19	22	7	9	6
2864.5927734375	n/a	PROB	5866686	n/a	LTP387	ltpFR2	5	n/a	n/a	n/a	19	12	5	3	4
2866.4755859375	n/a	PROB	5870542	n/a	LTP387	ltpFR2	5	n/a	n/a	n/a	19	24	9	6	9
2869.87548828125	n/a	PROB	5877505	n/a	LTP387	ltpFR2	5	n/a	n/a	n/a	19	17	2	9	6
2872.00830078125	n/a	PROB	5881873	n/a	LTP387	ltpFR2	5	n/a	n/a	n/a	19	15	5	8	2
2874.3251953125	n/a	PROB	5886618	n/a	LTP387	ltpFR2	5	n/a	n/a	n/a	19	10	7	2	1
2875.775390625	n/a	PROB	5889588	n/a	LTP387	ltpFR2	5	n/a	n/a	n/a	19	23	6	9	6
2878.1923828125	n/a	PROB	5894538	n/a	LTP387	ltpFR2	5	n/a	n/a	n/a	19	13	3	7	3
2879.9921875	n/a	PROB	5898224	n/a	LTP387	ltpFR2	5	n/a	n/a	n/a	19	19	9	9	1
2882.68408203125	n/a	STOP	5903737	n/a	LTP387	ltpFR2	5	n/a	n/a	n/a	19	n/a	n/a	n/a	n/a
2884.64111328125	n/a	WORD	5907745	wordpools/wasnorm_wordpool_576.txt	LTP387	ltpFR2	5	14	COIN	343	n/a	n/a	0	0	0
2887.30810546875	n/a	WORD	5913207	wordpools/wasnorm_wordpool_576.txt	LTP387	ltpFR2	5	14	CHIPMUNK	304	n/a	n/a	0	0	0
2889.875	n/a	WORD	5918464	wordpools/wasnorm_wordpool_576.txt	LTP387	ltpFR2	5	14	SWAMP	1416	n/a	n/a	0	0	0
2892.40771484375	n/a	WORD	5923651	wordpools/wasnorm_wordpool_576.txt	LTP387	ltpFR2	5	14	DRINK	498	n/a	n/a	0	0	0
2895.04052734375	n/a	WORD	5929043	wordpools/wasnorm_wordpool_576.txt	LTP387	ltpFR2	5	14	RECEIPT	1173	n/a	n/a	0	0	0
2897.5576171875	n/a	WORD	5934198	wordpools/wasnorm_wordpool_576.txt	LTP387	ltpFR2	5	14	SHORTCAKE	1292	n/a	n/a	0	0	0
2900.00732421875	n/a	WORD	5939215	wordpools/wasnorm_wordpool_576.txt	LTP387	ltpFR2	5	14	PEACH	1031	n/a	n/a	0	0	0
2902.67333984375	n/a	WORD	5944675	wordpools/wasnorm_wordpool_576.txt	LTP387	ltpFR2	5	14	SURVEY	1414	n/a	n/a	0	0	0
2905.37353515625	n/a	WORD	5950205	wordpools/wasnorm_wordpool_576.txt	LTP387	ltpFR2	5	14	PICNIC	1060	n/a	n/a	0	0	0
2907.95703125	n/a	WORD	5955496	wordpools/wasnorm_wordpool_576.txt	LTP387	ltpFR2	5	14	ANTLER	29	n/a	n/a	0	0	0
2910.75732421875	n/a	WORD	5961231	wordpools/wasnorm_wordpool_576.txt	LTP387	ltpFR2	5	14	BEAVER	109	n/a	n/a	0	0	0
2913.27294921875	n/a	WORD	5966383	wordpools/wasnorm_wordpool_576.txt	LTP387	ltpFR2	5	14	BATHTUB	100	n/a	n/a	0	0	0
2916.0908203125	n/a	WORD	5972154	wordpools/wasnorm_wordpool_576.txt	LTP387	ltpFR2	5	14	CHURCH	307	n/a	n/a	0	0	0
2918.55712890625	n/a	WORD	5977205	wordpools/wasnorm_wordpool_576.txt	LTP387	ltpFR2	5	14	TRUCK	1512	n/a	n/a	0	0	0
2921.005859375	n/a	WORD	5982220	wordpools/wasnorm_wordpool_576.txt	LTP387	ltpFR2	5	14	JOURNAL	760	n/a	n/a	0	0	0
2923.5556640625	n/a	WORD	5987442	wordpools/wasnorm_wordpool_576.txt	LTP387	ltpFR2	5	14	BELLY	119	n/a	n/a	0	0	0
2926.15673828125	n/a	WORD	5992769	wordpools/wasnorm_wordpool_576.txt	LTP387	ltpFR2	5	14	CARRIAGE	248	n/a	n/a	0	0	0
2928.75537109375	n/a	WORD	5998091	wordpools/wasnorm_wordpool_576.txt	LTP387	ltpFR2	5	14	INFANT	737	n/a	n/a	0	0	0
2931.3056640625	n/a	WORD	6003314	wordpools/wasnorm_wordpool_576.txt	LTP387	ltpFR2	5	14	SLUG	1329	n/a	n/a	0	0	0
2933.95556640625	n/a	WORD	6008741	wordpools/wasnorm_wordpool_576.txt	LTP387	ltpFR2	5	14	AGENT	10	n/a	n/a	0	0	0
2936.4052734375	n/a	WORD	6013758	wordpools/wasnorm_wordpool_576.txt	LTP387	ltpFR2	5	14	HOOD	714	n/a	n/a	0	0	0
2938.98828125	n/a	WORD	6019048	wordpools/wasnorm_wordpool_576.txt	LTP387	ltpFR2	5	14	OZONE	996	n/a	n/a	0	0	0
2941.58837890625	n/a	WORD	6024373	wordpools/wasnorm_wordpool_576.txt	LTP387	ltpFR2	5	14	BLUEPRINT	142	n/a	n/a	0	0	0
2944.3720703125	n/a	WORD	6030074	wordpools/wasnorm_wordpool_576.txt	LTP387	ltpFR2	5	14	HONEY	713	n/a	n/a	0	0	0
2945.9892578125	n/a	START	6033386	n/a	LTP387	ltpFR2	5	n/a	n/a	n/a	20	n/a	n/a	n/a	n/a
2947.18115234375	n/a	DISTRACTOR	6035827	n/a	LTP387	ltpFR2	5	14	n/a	n/a	n/a	n/a	0	0	0
2947.18896484375	n/a	PROB	6035843	n/a	LTP387	ltpFR2	5	n/a	n/a	n/a	20	17	3	7	7
2949.2880859375	n/a	PROB	6040142	n/a	LTP387	ltpFR2	5	n/a	n/a	n/a	20	15	5	6	4
2951.0380859375	n/a	PROB	6043726	n/a	LTP387	ltpFR2	5	n/a	n/a	n/a	20	21	9	5	7
2954.23876953125	n/a	PROB	6050281	n/a	LTP387	ltpFR2	5	n/a	n/a	n/a	20	9	1	5	3
2956.7705078125	n/a	PROB	6055466	n/a	LTP387	ltpFR2	5	n/a	n/a	n/a	20	18	8	6	4
2958.337890625	n/a	PROB	6058676	n/a	LTP387	ltpFR2	5	n/a	n/a	n/a	20	13	7	2	4
2960.7705078125	n/a	PROB	6063658	n/a	LTP387	ltpFR2	5	n/a	n/a	n/a	20	13	4	3	6
2963.08837890625	n/a	PROB	6068405	n/a	LTP387	ltpFR2	5	n/a	n/a	n/a	20	18	9	5	4
2969.98828125	n/a	STOP	6082536	n/a	LTP387	ltpFR2	5	n/a	n/a	n/a	20	n/a	n/a	n/a	n/a
2971.88720703125	n/a	REC_START	6086425	n/a	LTP387	ltpFR2	5	14	n/a	n/a	n/a	n/a	0	0	0
2987.2998046875	n/a	REC_WORD	6117990	wordpools/wasnorm_wordpool_576.txt	LTP387	ltpFR2	5	14	SLUG	1329	n/a	n/a	0	0	0
2991.837890625	n/a	REC_WORD	6127284	wordpools/wasnorm_wordpool_576.txt	LTP387	ltpFR2	5	14	AGENT	10	n/a	n/a	0	0	0
3006.50146484375	n/a	REC_WORD	6157315	wordpools/wasnorm_wordpool_576.txt	LTP387	ltpFR2	5	14	CHURCH	307	n/a	n/a	0	0	0
3014.68017578125	n/a	REC_WORD	6174065	wordpools/wasnorm_wordpool_576.txt	LTP387	ltpFR2	5	14	PICNIC	1060	n/a	n/a	0	0	0
3015.65771484375	n/a	REC_WORD	6176067	wordpools/wasnorm_wordpool_576.txt	LTP387	ltpFR2	5	14	TRUCK	1512	n/a	n/a	0	0	0
3025.49462890625	n/a	REC_WORD	6196213	wordpools/wasnorm_wordpool_576.txt	LTP387	ltpFR2	5	14	JOURNAL	760	n/a	n/a	0	0	0
3062.33251953125	n/a	DISTRACTOR	6271657	n/a	LTP387	ltpFR2	5	15	n/a	n/a	n/a	n/a	0	0	0
3062.33349609375	n/a	START	6271659	n/a	LTP387	ltpFR2	5	n/a	n/a	n/a	21	n/a	n/a	n/a	n/a
3062.349609375	n/a	PROB	6271692	n/a	LTP387	ltpFR2	5	n/a	n/a	n/a	21	15	7	4	4
3064.3994140625	n/a	PROB	6275890	n/a	LTP387	ltpFR2	5	n/a	n/a	n/a	21	10	6	1	3
3066.2822265625	n/a	PROB	6279746	n/a	LTP387	ltpFR2	5	n/a	n/a	n/a	21	9	1	6	2
3067.84912109375	n/a	PROB	6282955	n/a	LTP387	ltpFR2	5	n/a	n/a	n/a	21	15	6	4	5
3069.46630859375	n/a	PROB	6286267	n/a	LTP387	ltpFR2	5	n/a	n/a	n/a	21	18	9	4	5
3071.34912109375	n/a	PROB	6290123	n/a	LTP387	ltpFR2	5	n/a	n/a	n/a	21	11	1	5	5
3072.76611328125	n/a	PROB	6293025	n/a	LTP387	ltpFR2	5	n/a	n/a	n/a	21	23	7	7	9
3074.7822265625	n/a	PROB	6297154	n/a	LTP387	ltpFR2	5	n/a	n/a	n/a	21	24	9	9	6
3077.7490234375	n/a	PROB	6303230	n/a	LTP387	ltpFR2	5	n/a	n/a	n/a	21	16	5	5	6
3079.216796875	n/a	PROB	6306236	n/a	LTP387	ltpFR2	5	n/a	n/a	n/a	21	20	8	8	4
3080.89892578125	n/a	PROB	6309681	n/a	LTP387	ltpFR2	5	n/a	n/a	n/a	21	17	2	9	6
3083.10009765625	n/a	PROB	6314189	n/a	LTP387	ltpFR2	5	n/a	n/a	n/a	21	16	7	1	8
3085.02001953125	n/a	STOP	6318121	n/a	LTP387	ltpFR2	5	n/a	n/a	n/a	21	n/a	n/a	n/a	n/a
3087.3486328125	n/a	WORD	6322890	wordpools/wasnorm_wordpool_576.txt	LTP387	ltpFR2	5	15	ONION	977	n/a	n/a	0	0	0
3090.16552734375	n/a	WORD	6328659	wordpools/wasnorm_wordpool_576.txt	LTP387	ltpFR2	5	15	GLASS	639	n/a	n/a	0	0	0
3092.6318359375	n/a	WORD	6333710	wordpools/wasnorm_wordpool_576.txt	LTP387	ltpFR2	5	15	PEANUT	1032	n/a	n/a	0	0	0
3095.36474609375	n/a	WORD	6339307	wordpools/wasnorm_wordpool_576.txt	LTP387	ltpFR2	5	15	POSTAGE	1113	n/a	n/a	0	0	0
3098.1826171875	n/a	WORD	6345078	wordpools/wasnorm_wordpool_576.txt	LTP387	ltpFR2	5	15	PACKAGE	997	n/a	n/a	0	0	0
3100.99853515625	n/a	WORD	6350845	wordpools/wasnorm_wordpool_576.txt	LTP387	ltpFR2	5	15	PATIENT	1024	n/a	n/a	0	0	0
3103.498046875	n/a	WORD	6355964	wordpools/wasnorm_wordpool_576.txt	LTP387	ltpFR2	5	15	LAPEL	800	n/a	n/a	0	0	0
3106.1982421875	n/a	WORD	6361494	wordpools/wasnorm_wordpool_576.txt	LTP387	ltpFR2	5	15	WASP	1593	n/a	n/a	0	0	0
3108.64697265625	n/a	WORD	6366509	wordpools/wasnorm_wordpool_576.txt	LTP387	ltpFR2	5	15	WINDOW	1611	n/a	n/a	0	0	0
3111.4140625	n/a	WORD	6372176	wordpools/wasnorm_wordpool_576.txt	LTP387	ltpFR2	5	15	CITRUS	313	n/a	n/a	0	0	0
3114.21484375	n/a	WORD	6377912	wordpools/wasnorm_wordpool_576.txt	LTP387	ltpFR2	5	15	EXPERT	543	n/a	n/a	0	0	0
3116.9140625	n/a	WORD	6383440	wordpools/wasnorm_wordpool_576.txt	LTP387	ltpFR2	5	15	LIVER	833	n/a	n/a	0	0	0
3119.48095703125	n/a	WORD	6388697	wordpools/wasnorm_wordpool_576.txt	LTP387	ltpFR2	5	15	STOVE	1388	n/a	n/a	0	0	0
3122.08056640625	n/a	WORD	6394021	wordpools/wasnorm_wordpool_576.txt	LTP387	ltpFR2	5	15	HEADBAND	696	n/a	n/a	0	0	0
3124.7294921875	n/a	WORD	6399446	wordpools/wasnorm_wordpool_576.txt	LTP387	ltpFR2	5	15	CLOUD	328	n/a	n/a	0	0	0
3127.54638671875	n/a	WORD	6405215	wordpools/wasnorm_wordpool_576.txt	LTP387	ltpFR2	5	15	RELISH	1183	n/a	n/a	0	0	0
3130.29638671875	n/a	WORD	6410847	wordpools/wasnorm_wordpool_576.txt	LTP387	ltpFR2	5	15	KETCHUP	771	n/a	n/a	0	0	0
3132.8134765625	n/a	WORD	6416002	wordpools/wasnorm_wordpool_576.txt	LTP387	ltpFR2	5	15	CHEMIST	292	n/a	n/a	0	0	0
3135.24609375	n/a	WORD	6420984	wordpools/wasnorm_wordpool_576.txt	LTP387	ltpFR2	5	15	LIPSTICK	829	n/a	n/a	0	0	0
3137.8291015625	n/a	WORD	6426274	wordpools/wasnorm_wordpool_576.txt	LTP387	ltpFR2	5	15	APRON	35	n/a	n/a	0	0	0
3140.64599609375	n/a	WORD	6432043	wordpools/wasnorm_wordpool_576.txt	LTP387	ltpFR2	5	15	TROMBONE	1508	n/a	n/a	0	0	0
3143.080078125	n/a	WORD	6437028	wordpools/wasnorm_wordpool_576.txt	LTP387	ltpFR2	5	15	TROUT	1511	n/a	n/a	0	0	0
3145.74609375	n/a	WORD	6442488	wordpools/wasnorm_wordpool_576.txt	LTP387	ltpFR2	5	15	GANGSTER	620	n/a	n/a	0	0	0
3148.51171875	n/a	WORD	6448152	wordpools/wasnorm_wordpool_576.txt	LTP387	ltpFR2	5	15	PISTON	1076	n/a	n/a	0	0	0
3150.11376953125	n/a	START	6451433	n/a	LTP387	ltpFR2	5	n/a	n/a	n/a	22	n/a	n/a	n/a	n/a
3150.93603515625	n/a	DISTRACTOR	6453117	n/a	LTP387	ltpFR2	5	15	n/a	n/a	n/a	n/a	0	0	0
3150.94580078125	n/a	PROB	6453137	n/a	LTP387	ltpFR2	5	n/a	n/a	n/a	22	18	7	6	5
3153.27880859375	n/a	PROB	6457915	n/a	LTP387	ltpFR2	5	n/a	n/a	n/a	22	14	2	4	8
3155.0615234375	n/a	PROB	6461566	n/a	LTP387	ltpFR2	5	n/a	n/a	n/a	22	14	4	3	7
3156.595703125	n/a	PROB	6464708	n/a	LTP387	ltpFR2	5	n/a	n/a	n/a	22	8	6	1	1
3158.01171875	n/a	PROB	6467608	n/a	LTP387	ltpFR2	5	n/a	n/a	n/a	22	23	9	6	7
3160.978515625	n/a	PROB	6473684	n/a	LTP387	ltpFR2	5	n/a	n/a	n/a	22	10	2	1	7
3162.57861328125	n/a	PROB	6476961	n/a	LTP387	ltpFR2	5	n/a	n/a	n/a	22	17	6	7	4
3164.41162109375	n/a	PROB	6480715	n/a	LTP387	ltpFR2	5	n/a	n/a	n/a	22	12	3	6	3
3167.1455078125	n/a	PROB	6486314	n/a	LTP387	ltpFR2	5	n/a	n/a	n/a	22	12	5	6	1
3170.04443359375	n/a	PROB	6492251	n/a	LTP387	ltpFR2	5	n/a	n/a	n/a	22	12	2	5	4
3173.0673828125	n/a	STOP	6498442	n/a	LTP387	ltpFR2	5	n/a	n/a	n/a	22	n/a	n/a	n/a	n/a
3175.92822265625	n/a	REC_START	6504301	n/a	LTP387	ltpFR2	5	15	n/a	n/a	n/a	n/a	0	0	0
3177.56884765625	n/a	REC_WORD	6507661	wordpools/wasnorm_wordpool_576.txt	LTP387	ltpFR2	5	15	WASP	1593	n/a	n/a	0	0	0
3178.56201171875	n/a	REC_WORD	6509695	wordpools/wasnorm_wordpool_576.txt	LTP387	ltpFR2	5	15	WINDOW	1611	n/a	n/a	0	0	0
3180.0810546875	n/a	REC_WORD	6512806	wordpools/wasnorm_wordpool_576.txt	LTP387	ltpFR2	5	15	EXPERT	543	n/a	n/a	0	0	0
3181.32080078125	n/a	REC_WORD	6515345	wordpools/wasnorm_wordpool_576.txt	LTP387	ltpFR2	5	15	CHEMIST	292	n/a	n/a	0	0	0
3183.333984375	n/a	REC_WORD	6519468	wordpools/wasnorm_wordpool_576.txt	LTP387	ltpFR2	5	15	LIPSTICK	829	n/a	n/a	0	0	0
3184.599609375	n/a	REC_WORD	6522060	wordpools/wasnorm_wordpool_576.txt	LTP387	ltpFR2	5	15	APRON	35	n/a	n/a	0	0	0
3188.5185546875	n/a	REC_WORD	6530086	wordpools/wasnorm_wordpool_576.txt	LTP387	ltpFR2	5	15	GLASS	639	n/a	n/a	0	0	0
3189.9765625	n/a	REC_WORD	6533072	wordpools/wasnorm_wordpool_576.txt	LTP387	ltpFR2	5	15	ONION	977	n/a	n/a	0	0	0
3191.7724609375	n/a	REC_WORD	6536750	wordpools/wasnorm_wordpool_576.txt	LTP387	ltpFR2	5	15	RELISH	1183	n/a	n/a	0	0	0
3193.12158203125	n/a	REC_WORD	6539513	wordpools/wasnorm_wordpool_576.txt	LTP387	ltpFR2	5	15	KETCHUP	771	n/a	n/a	0	0	0
3194.62060546875	n/a	REC_WORD	6542583	wordpools/wasnorm_wordpool_576.txt	LTP387	ltpFR2	5	15	TROUT	1511	n/a	n/a	0	0	0
3266.37353515625	n/a	DISTRACTOR	6689533	n/a	LTP387	ltpFR2	5	16	n/a	n/a	n/a	n/a	0	0	0
3266.37353515625	n/a	START	6689533	n/a	LTP387	ltpFR2	5	n/a	n/a	n/a	23	n/a	n/a	n/a	n/a
3266.39013671875	n/a	PROB	6689567	n/a	LTP387	ltpFR2	5	n/a	n/a	n/a	23	11	1	9	1
3268.0234375	n/a	PROB	6692912	n/a	LTP387	ltpFR2	5	n/a	n/a	n/a	23	5	1	3	1
3269.7734375	n/a	PROB	6696496	n/a	LTP387	ltpFR2	5	n/a	n/a	n/a	23	19	3	8	8
3271.8232421875	n/a	PROB	6700694	n/a	LTP387	ltpFR2	5	n/a	n/a	n/a	23	21	8	7	6
3276.35595703125	n/a	PROB	6709977	n/a	LTP387	ltpFR2	5	n/a	n/a	n/a	23	19	9	9	1
3278.93994140625	n/a	PROB	6715269	n/a	LTP387	ltpFR2	5	n/a	n/a	n/a	23	20	9	4	7
3284.48974609375	n/a	PROB	6726635	n/a	LTP387	ltpFR2	5	n/a	n/a	n/a	23	9	1	4	4
3286.72265625	n/a	PROB	6731208	n/a	LTP387	ltpFR2	5	n/a	n/a	n/a	23	15	3	9	3
3290.37255859375	n/a	STOP	6738683	n/a	LTP387	ltpFR2	5	n/a	n/a	n/a	23	n/a	n/a	n/a	n/a
3291.25537109375	n/a	WORD	6740491	wordpools/wasnorm_wordpool_576.txt	LTP387	ltpFR2	5	16	LEG	809	n/a	n/a	0	0	0
3293.87255859375	n/a	WORD	6745851	wordpools/wasnorm_wordpool_576.txt	LTP387	ltpFR2	5	16	WITNESS	1618	n/a	n/a	0	0	0
3296.33837890625	n/a	WORD	6750901	wordpools/wasnorm_wordpool_576.txt	LTP387	ltpFR2	5	16	FRAGRANCE	599	n/a	n/a	0	0	0
3298.85546875	n/a	WORD	6756056	wordpools/wasnorm_wordpool_576.txt	LTP387	ltpFR2	5	16	FRIEND	606	n/a	n/a	0	0	0
3301.55517578125	n/a	WORD	6761585	wordpools/wasnorm_wordpool_576.txt	LTP387	ltpFR2	5	16	LOVER	846	n/a	n/a	0	0	0
3304.33837890625	n/a	WORD	6767285	wordpools/wasnorm_wordpool_576.txt	LTP387	ltpFR2	5	16	CURTAIN	427	n/a	n/a	0	0	0
3307.05517578125	n/a	WORD	6772849	wordpools/wasnorm_wordpool_576.txt	LTP387	ltpFR2	5	16	DENIM	446	n/a	n/a	0	0	0
3309.60498046875	n/a	WORD	6778071	wordpools/wasnorm_wordpool_576.txt	LTP387	ltpFR2	5	16	RIVER	1194	n/a	n/a	0	0	0
3312.2880859375	n/a	WORD	6783566	wordpools/wasnorm_wordpool_576.txt	LTP387	ltpFR2	5	16	STATUE	1374	n/a	n/a	0	0	0
3314.98779296875	n/a	WORD	6789095	wordpools/wasnorm_wordpool_576.txt	LTP387	ltpFR2	5	16	BUGGY	188	n/a	n/a	0	0	0
3317.65478515625	n/a	WORD	6794557	wordpools/wasnorm_wordpool_576.txt	LTP387	ltpFR2	5	16	TRACTOR	1493	n/a	n/a	0	0	0
3320.337890625	n/a	WORD	6800052	wordpools/wasnorm_wordpool_576.txt	LTP387	ltpFR2	5	16	FLESH	579	n/a	n/a	0	0	0
3323.08837890625	n/a	WORD	6805685	wordpools/wasnorm_wordpool_576.txt	LTP387	ltpFR2	5	16	MEDAL	885	n/a	n/a	0	0	0
3325.8203125	n/a	WORD	6811280	wordpools/wasnorm_wordpool_576.txt	LTP387	ltpFR2	5	16	COLLEGE	346	n/a	n/a	0	0	0
3328.38720703125	n/a	WORD	6816537	wordpools/wasnorm_wordpool_576.txt	LTP387	ltpFR2	5	16	BIKE	125	n/a	n/a	0	0	0
3330.9033203125	n/a	WORD	6821690	wordpools/wasnorm_wordpool_576.txt	LTP387	ltpFR2	5	16	PLAID	1080	n/a	n/a	0	0	0
3333.4375	n/a	WORD	6826880	wordpools/wasnorm_wordpool_576.txt	LTP387	ltpFR2	5	16	BLACKBOARD	133	n/a	n/a	0	0	0
3336.154296875	n/a	WORD	6832444	wordpools/wasnorm_wordpool_576.txt	LTP387	ltpFR2	5	16	NOVEL	960	n/a	n/a	0	0	0
3338.703125	n/a	WORD	6837664	wordpools/wasnorm_wordpool_576.txt	LTP387	ltpFR2	5	16	POET	1095	n/a	n/a	0	0	0
3341.43701171875	n/a	WORD	6843263	wordpools/wasnorm_wordpool_576.txt	LTP387	ltpFR2	5	16	NECKLACE	940	n/a	n/a	0	0	0
3344.07080078125	n/a	WORD	6848657	wordpools/wasnorm_wordpool_576.txt	LTP387	ltpFR2	5	16	ATLAS	53	n/a	n/a	0	0	0
3346.85302734375	n/a	WORD	6854355	wordpools/wasnorm_wordpool_576.txt	LTP387	ltpFR2	5	16	DUST	508	n/a	n/a	0	0	0
3349.669921875	n/a	WORD	6860124	wordpools/wasnorm_wordpool_576.txt	LTP387	ltpFR2	5	16	POLICE	1098	n/a	n/a	0	0	0
3352.31982421875	n/a	WORD	6865551	wordpools/wasnorm_wordpool_576.txt	LTP387	ltpFR2	5	16	BLOUSE	139	n/a	n/a	0	0	0
3353.9365234375	n/a	START	6868862	n/a	LTP387	ltpFR2	5	n/a	n/a	n/a	24	n/a	n/a	n/a	n/a
3355.03857421875	n/a	DISTRACTOR	6871119	n/a	LTP387	ltpFR2	5	16	n/a	n/a	n/a	n/a	0	0	0
3355.052734375	n/a	PROB	6871148	n/a	LTP387	ltpFR2	5	n/a	n/a	n/a	24	20	7	8	5
3358.01953125	n/a	PROB	6877224	n/a	LTP387	ltpFR2	5	n/a	n/a	n/a	24	15	2	9	4
3360.7353515625	n/a	PROB	6882786	n/a	LTP387	ltpFR2	5	n/a	n/a	n/a	24	21	8	6	7
3363.8525390625	n/a	PROB	6889170	n/a	LTP387	ltpFR2	5	n/a	n/a	n/a	24	18	1	9	8
3365.43505859375	n/a	PROB	6892411	n/a	LTP387	ltpFR2	5	n/a	n/a	n/a	24	11	4	5	2
3367.9521484375	n/a	PROB	6897566	n/a	LTP387	ltpFR2	5	n/a	n/a	n/a	24	12	3	6	3
3371.0859375	n/a	PROB	6903984	n/a	LTP387	ltpFR2	5	n/a	n/a	n/a	24	13	7	4	2
3373.31787109375	n/a	PROB	6908555	n/a	LTP387	ltpFR2	5	n/a	n/a	n/a	24	15	5	5	5
3374.68505859375	n/a	PROB	6911355	n/a	LTP387	ltpFR2	5	n/a	n/a	n/a	24	20	5	8	7
3376.90673828125	n/a	STOP	6915905	n/a	LTP387	ltpFR2	5	n/a	n/a	n/a	24	n/a	n/a	n/a	n/a
3379.8017578125	n/a	REC_START	6921834	n/a	LTP387	ltpFR2	5	16	n/a	n/a	n/a	n/a	0	0	0
3382.4228515625	n/a	REC_WORD	6927202	wordpools/wasnorm_wordpool_576.txt	LTP387	ltpFR2	5	16	WITNESS	1618	n/a	n/a	0	0	0
3383.32177734375	n/a	REC_WORD	6929043	wordpools/wasnorm_wordpool_576.txt	LTP387	ltpFR2	5	16	LEG	809	n/a	n/a	0	0	0
3384.4208984375	n/a	REC_WORD	6931294	wordpools/wasnorm_wordpool_576.txt	LTP387	ltpFR2	5	16	FRAGRANCE	599	n/a	n/a	0	0	0
3385.6025390625	n/a	REC_WORD	6933714	wordpools/wasnorm_wordpool_576.txt	LTP387	ltpFR2	5	16	SUSPECT	1415	n/a	n/a	0	0	0
3389.5234375	n/a	REC_WORD	6941744	wordpools/wasnorm_wordpool_576.txt	LTP387	ltpFR2	5	16	LOVER	846	n/a	n/a	0	0	0
3390.484375	n/a	REC_WORD	6943712	wordpools/wasnorm_wordpool_576.txt	LTP387	ltpFR2	5	16	FRIEND	606	n/a	n/a	0	0	0
3391.83251953125	n/a	REC_WORD	6946473	wordpools/wasnorm_wordpool_576.txt	LTP387	ltpFR2	5	16	CURTAIN	427	n/a	n/a	0	0	0
3393.23046875	n/a	REC_WORD	6949336	wordpools/wasnorm_wordpool_576.txt	LTP387	ltpFR2	5	16	FLESH	579	n/a	n/a	0	0	0
3395.2021484375	n/a	REC_WORD	6953374	wordpools/wasnorm_wordpool_576.txt	LTP387	ltpFR2	5	16	DENIM	446	n/a	n/a	0	0	0
3396.18359375	n/a	REC_WORD	6955384	wordpools/wasnorm_wordpool_576.txt	LTP387	ltpFR2	5	16	PLAID	1080	n/a	n/a	0	0	0
3397.46923828125	n/a	REC_WORD	6958017	wordpools/wasnorm_wordpool_576.txt	LTP387	ltpFR2	5	16	COLLEGE	346	n/a	n/a	0	0	0
3398.96826171875	n/a	REC_WORD	6961087	wordpools/wasnorm_wordpool_576.txt	LTP387	ltpFR2	5	16	BIKE	125	n/a	n/a	0	0	0
3400.1591796875	n/a	REC_WORD	6963526	wordpools/wasnorm_wordpool_576.txt	LTP387	ltpFR2	5	16	POET	1095	n/a	n/a	0	0	0
3402.25732421875	n/a	REC_WORD	6967823	wordpools/wasnorm_wordpool_576.txt	LTP387	ltpFR2	5	16	BOOK	149	n/a	n/a	0	0	0
3412.5986328125	n/a	REC_WORD	6989002	wordpools/wasnorm_wordpool_576.txt	LTP387	ltpFR2	5	16	STATUE	1374	n/a	n/a	0	0	0
3414.22900390625	n/a	REC_WORD	6992341	wordpools/wasnorm_wordpool_576.txt	LTP387	ltpFR2	5	16	RIVER	1194	n/a	n/a	0	0	0
3416.56396484375	n/a	REC_WORD	6997123	wordpools/wasnorm_wordpool_576.txt	LTP387	ltpFR2	5	16	TRACTOR	1493	n/a	n/a	0	0	0
3420.271484375	n/a	REC_WORD	7004716	wordpools/wasnorm_wordpool_576.txt	LTP387	ltpFR2	5	16	CARRIAGE	248	n/a	n/a	0	0	0
3428.015625	n/a	REC_WORD	7020576	wordpools/wasnorm_wordpool_576.txt	LTP387	ltpFR2	5	16	DUST	508	n/a	n/a	0	0	0
3429.38232421875	n/a	REC_WORD	7023375	wordpools/wasnorm_wordpool_576.txt	LTP387	ltpFR2	5	16	ATLAS	53	n/a	n/a	0	0	0
3456.34765625	n/a	REST_REWET	7078600	n/a	LTP387	ltpFR2	5	16	n/a	n/a	n/a	n/a	0	0	0
3719.40234375	n/a	DISTRACTOR	7617336	n/a	LTP387	ltpFR2	5	17	n/a	n/a	n/a	n/a	0	0	0
3719.40234375	n/a	START	7617336	n/a	LTP387	ltpFR2	5	n/a	n/a	n/a	25	n/a	n/a	n/a	n/a
3719.41845703125	n/a	PROB	7617369	n/a	LTP387	ltpFR2	5	n/a	n/a	n/a	25	17	6	6	5
3721.78564453125	n/a	PROB	7622217	n/a	LTP387	ltpFR2	5	n/a	n/a	n/a	25	18	7	6	5
3724.40234375	n/a	PROB	7627576	n/a	LTP387	ltpFR2	5	n/a	n/a	n/a	25	21	7	9	5
3727.119140625	n/a	PROB	7633140	n/a	LTP387	ltpFR2	5	n/a	n/a	n/a	25	20	4	8	7
3731.10302734375	n/a	PROB	7641299	n/a	LTP387	ltpFR2	5	n/a	n/a	n/a	25	21	5	7	9
3735.119140625	n/a	PROB	7649524	n/a	LTP387	ltpFR2	5	n/a	n/a	n/a	25	15	3	4	8
3736.9677734375	n/a	PROB	7653310	n/a	LTP387	ltpFR2	5	n/a	n/a	n/a	25	11	2	6	3
3738.68505859375	n/a	PROB	7656827	n/a	LTP387	ltpFR2	5	n/a	n/a	n/a	25	20	6	6	8
3743.40087890625	n/a	STOP	7666485	n/a	LTP387	ltpFR2	5	n/a	n/a	n/a	25	n/a	n/a	n/a	n/a
3744.40087890625	n/a	WORD	7668533	wordpools/wasnorm_wordpool_576.txt	LTP387	ltpFR2	5	17	MILDEW	893	n/a	n/a	0	0	0
3746.9345703125	n/a	WORD	7673722	wordpools/wasnorm_wordpool_576.txt	LTP387	ltpFR2	5	17	HOUND	724	n/a	n/a	0	0	0
3749.384765625	n/a	WORD	7678740	wordpools/wasnorm_wordpool_576.txt	LTP387	ltpFR2	5	17	PIGMENT	1066	n/a	n/a	0	0	0
3752.20166015625	n/a	WORD	7684509	wordpools/wasnorm_wordpool_576.txt	LTP387	ltpFR2	5	17	FRUIT	610	n/a	n/a	0	0	0
3754.767578125	n/a	WORD	7689764	wordpools/wasnorm_wordpool_576.txt	LTP387	ltpFR2	5	17	GRAPE	654	n/a	n/a	0	0	0
3757.58349609375	n/a	WORD	7695531	wordpools/wasnorm_wordpool_576.txt	LTP387	ltpFR2	5	17	CARROT	249	n/a	n/a	0	0	0
3760.18408203125	n/a	WORD	7700857	wordpools/wasnorm_wordpool_576.txt	LTP387	ltpFR2	5	17	BUNNY	198	n/a	n/a	0	0	0
3762.96728515625	n/a	WORD	7706557	wordpools/wasnorm_wordpool_576.txt	LTP387	ltpFR2	5	17	FLASK	576	n/a	n/a	0	0	0
3765.4169921875	n/a	WORD	7711574	wordpools/wasnorm_wordpool_576.txt	LTP387	ltpFR2	5	17	TURKEY	1520	n/a	n/a	0	0	0
3767.8828125	n/a	WORD	7716624	wordpools/wasnorm_wordpool_576.txt	LTP387	ltpFR2	5	17	PERFUME	1049	n/a	n/a	0	0	0
3770.64990234375	n/a	WORD	7722291	wordpools/wasnorm_wordpool_576.txt	LTP387	ltpFR2	5	17	MAMMAL	861	n/a	n/a	0	0	0
3773.2177734375	n/a	WORD	7727550	wordpools/wasnorm_wordpool_576.txt	LTP387	ltpFR2	5	17	NOMAD	955	n/a	n/a	0	0	0
3775.9326171875	n/a	WORD	7733110	wordpools/wasnorm_wordpool_576.txt	LTP387	ltpFR2	5	17	DENTIST	447	n/a	n/a	0	0	0
3778.44970703125	n/a	WORD	7738265	wordpools/wasnorm_wordpool_576.txt	LTP387	ltpFR2	5	17	ULCER	1533	n/a	n/a	0	0	0
3781.03271484375	n/a	WORD	7743555	wordpools/wasnorm_wordpool_576.txt	LTP387	ltpFR2	5	17	SHOVEL	1295	n/a	n/a	0	0	0
3783.5654296875	n/a	WORD	7748742	wordpools/wasnorm_wordpool_576.txt	LTP387	ltpFR2	5	17	OMELET	976	n/a	n/a	0	0	0
3786.20068359375	n/a	WORD	7754139	wordpools/wasnorm_wordpool_576.txt	LTP387	ltpFR2	5	17	SUNSET	1408	n/a	n/a	0	0	0
3788.6494140625	n/a	WORD	7759154	wordpools/wasnorm_wordpool_576.txt	LTP387	ltpFR2	5	17	SPIDER	1351	n/a	n/a	0	0	0
3791.21630859375	n/a	WORD	7764411	wordpools/wasnorm_wordpool_576.txt	LTP387	ltpFR2	5	17	FLIPPER	580	n/a	n/a	0	0	0
3793.7822265625	n/a	WORD	7769666	wordpools/wasnorm_wordpool_576.txt	LTP387	ltpFR2	5	17	SUPPER	1411	n/a	n/a	0	0	0
3796.4150390625	n/a	WORD	7775058	wordpools/wasnorm_wordpool_576.txt	LTP387	ltpFR2	5	17	FLASHLIGHT	575	n/a	n/a	0	0	0
3799.0830078125	n/a	WORD	7780522	wordpools/wasnorm_wordpool_576.txt	LTP387	ltpFR2	5	17	OINTMENT	974	n/a	n/a	0	0	0
3801.68212890625	n/a	WORD	7785845	wordpools/wasnorm_wordpool_576.txt	LTP387	ltpFR2	5	17	WIFE	1609	n/a	n/a	0	0	0
3804.1328125	n/a	WORD	7790864	wordpools/wasnorm_wordpool_576.txt	LTP387	ltpFR2	5	17	PARTNER	1017	n/a	n/a	0	0	0
3805.7490234375	n/a	START	7794174	n/a	LTP387	ltpFR2	5	n/a	n/a	n/a	26	n/a	n/a	n/a	n/a
3806.56201171875	n/a	DISTRACTOR	7795839	n/a	LTP387	ltpFR2	5	17	n/a	n/a	n/a	n/a	0	0	0
3806.56494140625	n/a	PROB	7795845	n/a	LTP387	ltpFR2	5	n/a	n/a	n/a	26	19	6	5	8
3808.73193359375	n/a	PROB	7800283	n/a	LTP387	ltpFR2	5	n/a	n/a	n/a	26	24	6	9	9
3813.1328125	n/a	PROB	7809296	n/a	LTP387	ltpFR2	5	n/a	n/a	n/a	26	10	3	4	3
3815.16552734375	n/a	PROB	7813459	n/a	LTP387	ltpFR2	5	n/a	n/a	n/a	26	16	5	9	2
3817.13134765625	n/a	PROB	7817485	n/a	LTP387	ltpFR2	5	n/a	n/a	n/a	26	5	3	1	1
3818.4306640625	n/a	PROB	7820146	n/a	LTP387	ltpFR2	5	n/a	n/a	n/a	26	10	3	1	6
3820.13134765625	n/a	PROB	7823629	n/a	LTP387	ltpFR2	5	n/a	n/a	n/a	26	23	8	9	4
3823.33056640625	n/a	PROB	7830181	n/a	LTP387	ltpFR2	5	n/a	n/a	n/a	26	14	3	8	3
3825.84716796875	n/a	PROB	7835335	n/a	LTP387	ltpFR2	5	n/a	n/a	n/a	26	14	1	6	7
3827.447265625	n/a	PROB	7838612	n/a	LTP387	ltpFR2	5	n/a	n/a	n/a	26	14	5	4	5
3829.06005859375	n/a	STOP	7841915	n/a	LTP387	ltpFR2	5	n/a	n/a	n/a	26	n/a	n/a	n/a	n/a
3831.6142578125	n/a	REC_START	7847146	n/a	LTP387	ltpFR2	5	17	n/a	n/a	n/a	n/a	0	0	0
3833.1611328125	n/a	REC_WORD	7850314	wordpools/wasnorm_wordpool_576.txt	LTP387	ltpFR2	5	17	MILDEW	893	n/a	n/a	0	0	0
3834.51513671875	n/a	REC_WORD	7853087	wordpools/wasnorm_wordpool_576.txt	LTP387	ltpFR2	5	17	PIGMENT	1066	n/a	n/a	0	0	0
3837.48681640625	n/a	REC_WORD	7859173	wordpools/wasnorm_wordpool_576.txt	LTP387	ltpFR2	5	17	GRAPE	654	n/a	n/a	0	0	0
