onset	duration	trial_type	sample	stim_file	subject	experiment	session	trial	item_name	item_num	list	answer	test_x	test_y	test_z
238.142	n/a	SESS_START	119071	n/a	LTP115	ltpFR2	4	n/a	n/a	n/a	n/a	n/a	0	0	0
265.82	n/a	START	132910	n/a	LTP115	ltpFR2	4	n/a	n/a	n/a	-1	n/a	n/a	n/a	n/a
265.87	n/a	PROB	132935	n/a	LTP115	ltpFR2	4	n/a	n/a	n/a	-1	15	6	1	8
268.112	n/a	PROB	134056	n/a	LTP115	ltpFR2	4	n/a	n/a	n/a	-1	10	3	1	6
269.266	n/a	PROB	134633	n/a	LTP115	ltpFR2	4	n/a	n/a	n/a	-1	10	2	7	1
270.422	n/a	PROB	135211	n/a	LTP115	ltpFR2	4	n/a	n/a	n/a	-1	13	1	3	9
271.792	n/a	PROB	135896	n/a	LTP115	ltpFR2	4	n/a	n/a	n/a	-1	15	7	5	3
273.096	n/a	PROB	136548	n/a	LTP115	ltpFR2	4	n/a	n/a	n/a	-1	21	7	9	6
275.288	n/a	PROB	137644	n/a	LTP115	ltpFR2	4	n/a	n/a	n/a	-1	18	6	8	4
277.35	n/a	STOP	138675	n/a	LTP115	ltpFR2	4	n/a	n/a	n/a	-1	n/a	n/a	n/a	n/a
335.87	n/a	DISTRACTOR	167935	n/a	LTP115	ltpFR2	4	1	n/a	n/a	n/a	n/a	0	0	0
335.87	n/a	START	167935	n/a	LTP115	ltpFR2	4	n/a	n/a	n/a	1	n/a	n/a	n/a	n/a
335.92	n/a	PROB	167960	n/a	LTP115	ltpFR2	4	n/a	n/a	n/a	1	19	7	3	9
337.828	n/a	PROB	168914	n/a	LTP115	ltpFR2	4	n/a	n/a	n/a	1	16	3	9	4
340.188	n/a	PROB	170094	n/a	LTP115	ltpFR2	4	n/a	n/a	n/a	1	13	2	5	6
341.594	n/a	PROB	170797	n/a	LTP115	ltpFR2	4	n/a	n/a	n/a	1	14	3	6	5
342.948	n/a	PROB	171474	n/a	LTP115	ltpFR2	4	n/a	n/a	n/a	1	8	2	1	5
344.068	n/a	PROB	172034	n/a	LTP115	ltpFR2	4	n/a	n/a	n/a	1	13	2	3	8
345.524	n/a	PROB	172762	n/a	LTP115	ltpFR2	4	n/a	n/a	n/a	1	13	3	4	6
347.13	n/a	PROB	173565	n/a	LTP115	ltpFR2	4	n/a	n/a	n/a	1	22	6	8	8
348.854	n/a	PROB	174427	n/a	LTP115	ltpFR2	4	n/a	n/a	n/a	1	12	2	6	4
350.994	n/a	PROB	175497	n/a	LTP115	ltpFR2	4	n/a	n/a	n/a	1	15	7	7	1
352.648	n/a	PROB	176324	n/a	LTP115	ltpFR2	4	n/a	n/a	n/a	1	12	6	3	3
354.37	n/a	PROB	177185	n/a	LTP115	ltpFR2	4	n/a	n/a	n/a	1	6	1	4	1
355.39	n/a	PROB	177695	n/a	LTP115	ltpFR2	4	n/a	n/a	n/a	1	12	8	1	3
357.096	n/a	PROB	178548	n/a	LTP115	ltpFR2	4	n/a	n/a	n/a	1	18	8	2	8
358.268	n/a	PROB	179134	n/a	LTP115	ltpFR2	4	n/a	n/a	n/a	1	21	7	7	7
359.434	n/a	STOP	179717	n/a	LTP115	ltpFR2	4	n/a	n/a	n/a	1	n/a	n/a	n/a	n/a
360.728	n/a	WORD	180364	wordpools/wasnorm_wordpool_576.txt	LTP115	ltpFR2	4	1	HEADBAND	696	n/a	n/a	0	0	0
363.276	n/a	WORD	181638	wordpools/wasnorm_wordpool_576.txt	LTP115	ltpFR2	4	1	PASSAGE	1019	n/a	n/a	0	0	0
365.936	n/a	WORD	182968	wordpools/wasnorm_wordpool_576.txt	LTP115	ltpFR2	4	1	DASHBOARD	441	n/a	n/a	0	0	0
368.708	n/a	WORD	184354	wordpools/wasnorm_wordpool_576.txt	LTP115	ltpFR2	4	1	QUEEN	1149	n/a	n/a	0	0	0
371.502	n/a	WORD	185751	wordpools/wasnorm_wordpool_576.txt	LTP115	ltpFR2	4	1	SHORTCAKE	1292	n/a	n/a	0	0	0
374.044	n/a	WORD	187022	wordpools/wasnorm_wordpool_576.txt	LTP115	ltpFR2	4	1	MESSAGE	888	n/a	n/a	0	0	0
376.844	n/a	WORD	188422	wordpools/wasnorm_wordpool_576.txt	LTP115	ltpFR2	4	1	PATROL	1027	n/a	n/a	0	0	0
379.556	n/a	WORD	189778	wordpools/wasnorm_wordpool_576.txt	LTP115	ltpFR2	4	1	ICEBERG	731	n/a	n/a	0	0	0
382.298	n/a	WORD	191149	wordpools/wasnorm_wordpool_576.txt	LTP115	ltpFR2	4	1	VIRUS	1572	n/a	n/a	0	0	0
385.058	n/a	WORD	192529	wordpools/wasnorm_wordpool_576.txt	LTP115	ltpFR2	4	1	WITNESS	1618	n/a	n/a	0	0	0
387.586	n/a	WORD	193793	wordpools/wasnorm_wordpool_576.txt	LTP115	ltpFR2	4	1	TREAT	1501	n/a	n/a	0	0	0
390.06	n/a	WORD	195030	wordpools/wasnorm_wordpool_576.txt	LTP115	ltpFR2	4	1	WINDOW	1611	n/a	n/a	0	0	0
392.588	n/a	WORD	196294	wordpools/wasnorm_wordpool_576.txt	LTP115	ltpFR2	4	1	SADDLE	1221	n/a	n/a	0	0	0
395.148	n/a	WORD	197574	wordpools/wasnorm_wordpool_576.txt	LTP115	ltpFR2	4	1	CROWN	415	n/a	n/a	0	0	0
397.786	n/a	WORD	198893	wordpools/wasnorm_wordpool_576.txt	LTP115	ltpFR2	4	1	TART	1436	n/a	n/a	0	0	0
400.352	n/a	WORD	200176	wordpools/wasnorm_wordpool_576.txt	LTP115	ltpFR2	4	1	PICNIC	1060	n/a	n/a	0	0	0
402.994	n/a	WORD	201497	wordpools/wasnorm_wordpool_576.txt	LTP115	ltpFR2	4	1	SWITCH	1422	n/a	n/a	0	0	0
405.538	n/a	WORD	202769	wordpools/wasnorm_wordpool_576.txt	LTP115	ltpFR2	4	1	CARROT	249	n/a	n/a	0	0	0
407.996	n/a	WORD	203998	wordpools/wasnorm_wordpool_576.txt	LTP115	ltpFR2	4	1	DONKEY	484	n/a	n/a	0	0	0
410.606	n/a	WORD	205303	wordpools/wasnorm_wordpool_576.txt	LTP115	ltpFR2	4	1	FOREHEAD	592	n/a	n/a	0	0	0
413.114	n/a	WORD	206557	wordpools/wasnorm_wordpool_576.txt	LTP115	ltpFR2	4	1	FRECKLE	602	n/a	n/a	0	0	0
415.894	n/a	WORD	207947	wordpools/wasnorm_wordpool_576.txt	LTP115	ltpFR2	4	1	CLOCK	325	n/a	n/a	0	0	0
418.336	n/a	WORD	209168	wordpools/wasnorm_wordpool_576.txt	LTP115	ltpFR2	4	1	TABLET	1427	n/a	n/a	0	0	0
420.924	n/a	WORD	210462	wordpools/wasnorm_wordpool_576.txt	LTP115	ltpFR2	4	1	OINTMENT	974	n/a	n/a	0	0	0
422.536	n/a	START	211268	n/a	LTP115	ltpFR2	4	n/a	n/a	n/a	2	n/a	n/a	n/a	n/a
423.662	n/a	DISTRACTOR	211831	n/a	LTP115	ltpFR2	4	1	n/a	n/a	n/a	n/a	0	0	0
423.674	n/a	PROB	211837	n/a	LTP115	ltpFR2	4	n/a	n/a	n/a	2	7	1	5	1
425.078	n/a	PROB	212539	n/a	LTP115	ltpFR2	4	n/a	n/a	n/a	2	14	6	6	2
426.384	n/a	PROB	213192	n/a	LTP115	ltpFR2	4	n/a	n/a	n/a	2	13	3	3	7
428.688	n/a	PROB	214344	n/a	LTP115	ltpFR2	4	n/a	n/a	n/a	2	20	6	8	6
430.646	n/a	PROB	215323	n/a	LTP115	ltpFR2	4	n/a	n/a	n/a	2	11	4	1	6
432.436	n/a	PROB	216218	n/a	LTP115	ltpFR2	4	n/a	n/a	n/a	2	21	5	7	9
436.048	n/a	PROB	218024	n/a	LTP115	ltpFR2	4	n/a	n/a	n/a	2	6	2	1	3
437.174	n/a	PROB	218587	n/a	LTP115	ltpFR2	4	n/a	n/a	n/a	2	15	7	5	3
438.46	n/a	PROB	219230	n/a	LTP115	ltpFR2	4	n/a	n/a	n/a	2	20	6	7	7
439.884	n/a	PROB	219942	n/a	LTP115	ltpFR2	4	n/a	n/a	n/a	2	21	8	7	6
441.286	n/a	PROB	220643	n/a	LTP115	ltpFR2	4	n/a	n/a	n/a	2	21	3	9	9
442.624	n/a	PROB	221312	n/a	LTP115	ltpFR2	4	n/a	n/a	n/a	2	10	2	2	6
443.782	n/a	PROB	221891	n/a	LTP115	ltpFR2	4	n/a	n/a	n/a	2	14	7	3	4
445.038	n/a	PROB	222519	n/a	LTP115	ltpFR2	4	n/a	n/a	n/a	2	8	3	1	4
446.246	n/a	STOP	223123	n/a	LTP115	ltpFR2	4	n/a	n/a	n/a	2	n/a	n/a	n/a	n/a
448.498	n/a	REC_START	224249	n/a	LTP115	ltpFR2	4	1	n/a	n/a	n/a	n/a	0	0	0
449.074	n/a	REC_WORD	224537	wordpools/wasnorm_wordpool_576.txt	LTP115	ltpFR2	4	1	HEADBAND	696	n/a	n/a	0	0	0
449.838	n/a	REC_WORD	224919	wordpools/wasnorm_wordpool_576.txt	LTP115	ltpFR2	4	1	DASHBOARD	441	n/a	n/a	0	0	0
450.948	n/a	REC_WORD	225474	wordpools/wasnorm_wordpool_576.txt	LTP115	ltpFR2	4	1	CLOCK	325	n/a	n/a	0	0	0
451.916	n/a	REC_WORD	225958	wordpools/wasnorm_wordpool_576.txt	LTP115	ltpFR2	4	1	WINDOW	1611	n/a	n/a	0	0	0
452.578	n/a	REC_WORD	226289	wordpools/wasnorm_wordpool_576.txt	LTP115	ltpFR2	4	1	QUEEN	1149	n/a	n/a	0	0	0
453.626	n/a	REC_WORD	226813	wordpools/wasnorm_wordpool_576.txt	LTP115	ltpFR2	4	1	CROWN	415	n/a	n/a	0	0	0
455.048	n/a	REC_WORD	227524	wordpools/wasnorm_wordpool_576.txt	LTP115	ltpFR2	4	1	FOREHEAD	592	n/a	n/a	0	0	0
456.934	n/a	REC_WORD	228467	wordpools/wasnorm_wordpool_576.txt	LTP115	ltpFR2	4	1	HEADBAND	696	n/a	n/a	0	0	0
458.108	n/a	REC_WORD	229054	wordpools/wasnorm_wordpool_576.txt	LTP115	ltpFR2	4	1	FRECKLE	602	n/a	n/a	0	0	0
459.002	n/a	REC_WORD	229501	wordpools/wasnorm_wordpool_576.txt	LTP115	ltpFR2	4	1	OINTMENT	974	n/a	n/a	0	0	0
460.708	n/a	REC_WORD	230354	wordpools/wasnorm_wordpool_576.txt	LTP115	ltpFR2	4	1	MESSAGE	888	n/a	n/a	0	0	0
461.614	n/a	REC_WORD	230807	wordpools/wasnorm_wordpool_576.txt	LTP115	ltpFR2	4	1	ICEBERG	731	n/a	n/a	0	0	0
464.374	n/a	REC_WORD	232187	wordpools/wasnorm_wordpool_576.txt	LTP115	ltpFR2	4	1	WINDOW	1611	n/a	n/a	0	0	0
467.414	n/a	REC_WORD	233707	wordpools/wasnorm_wordpool_576.txt	LTP115	ltpFR2	4	1	TREAT	1501	n/a	n/a	0	0	0
468.16	n/a	REC_WORD	234080	wordpools/wasnorm_wordpool_576.txt	LTP115	ltpFR2	4	1	TART	1436	n/a	n/a	0	0	0
468.798	n/a	REC_WORD	234399	wordpools/wasnorm_wordpool_576.txt	LTP115	ltpFR2	4	1	CARROT	249	n/a	n/a	0	0	0
493.874	n/a	REC_WORD	246937	wordpools/wasnorm_wordpool_576.txt	LTP115	ltpFR2	4	1	PICNIC	1060	n/a	n/a	0	0	0
515.506	n/a	REC_WORD	257753	wordpools/wasnorm_wordpool_576.txt	LTP115	ltpFR2	4	1	PASSAGE	1019	n/a	n/a	0	0	0
539.634	n/a	WORD	269817	wordpools/wasnorm_wordpool_576.txt	LTP115	ltpFR2	4	2	THIEF	1456	n/a	n/a	0	0	0
542.304	n/a	WORD	271152	wordpools/wasnorm_wordpool_576.txt	LTP115	ltpFR2	4	2	OUTLAW	989	n/a	n/a	0	0	0
544.798	n/a	WORD	272399	wordpools/wasnorm_wordpool_576.txt	LTP115	ltpFR2	4	2	SNACK	1331	n/a	n/a	0	0	0
547.598	n/a	WORD	273799	wordpools/wasnorm_wordpool_576.txt	LTP115	ltpFR2	4	2	WAITER	1580	n/a	n/a	0	0	0
550.09	n/a	WORD	275045	wordpools/wasnorm_wordpool_576.txt	LTP115	ltpFR2	4	2	EYELASH	546	n/a	n/a	0	0	0
552.516	n/a	WORD	276258	wordpools/wasnorm_wordpool_576.txt	LTP115	ltpFR2	4	2	LUNCH	849	n/a	n/a	0	0	0
555.092	n/a	WORD	277546	wordpools/wasnorm_wordpool_576.txt	LTP115	ltpFR2	4	2	HANDBAG	684	n/a	n/a	0	0	0
557.652	n/a	WORD	278826	wordpools/wasnorm_wordpool_576.txt	LTP115	ltpFR2	4	2	MUSTARD	935	n/a	n/a	0	0	0
560.374	n/a	WORD	280187	wordpools/wasnorm_wordpool_576.txt	LTP115	ltpFR2	4	2	RAFT	1159	n/a	n/a	0	0	0
563.0	n/a	WORD	281500	wordpools/wasnorm_wordpool_576.txt	LTP115	ltpFR2	4	2	PORTRAIT	1111	n/a	n/a	0	0	0
565.532	n/a	WORD	282766	wordpools/wasnorm_wordpool_576.txt	LTP115	ltpFR2	4	2	LIPSTICK	829	n/a	n/a	0	0	0
568.07	n/a	WORD	284035	wordpools/wasnorm_wordpool_576.txt	LTP115	ltpFR2	4	2	HONEY	713	n/a	n/a	0	0	0
570.784	n/a	WORD	285392	wordpools/wasnorm_wordpool_576.txt	LTP115	ltpFR2	4	2	BOARD	143	n/a	n/a	0	0	0
573.412	n/a	WORD	286706	wordpools/wasnorm_wordpool_576.txt	LTP115	ltpFR2	4	2	BREAST	171	n/a	n/a	0	0	0
576.238	n/a	WORD	288119	wordpools/wasnorm_wordpool_576.txt	LTP115	ltpFR2	4	2	SCISSORS	1250	n/a	n/a	0	0	0
578.978	n/a	WORD	289489	wordpools/wasnorm_wordpool_576.txt	LTP115	ltpFR2	4	2	HARP	689	n/a	n/a	0	0	0
581.44	n/a	WORD	290720	wordpools/wasnorm_wordpool_576.txt	LTP115	ltpFR2	4	2	HORNET	718	n/a	n/a	0	0	0
584.254	n/a	WORD	292127	wordpools/wasnorm_wordpool_576.txt	LTP115	ltpFR2	4	2	DIVER	476	n/a	n/a	0	0	0
586.68	n/a	WORD	293340	wordpools/wasnorm_wordpool_576.txt	LTP115	ltpFR2	4	2	PEPPER	1047	n/a	n/a	0	0	0
589.44	n/a	WORD	294720	wordpools/wasnorm_wordpool_576.txt	LTP115	ltpFR2	4	2	CHAMPAGNE	278	n/a	n/a	0	0	0
592.216	n/a	WORD	296108	wordpools/wasnorm_wordpool_576.txt	LTP115	ltpFR2	4	2	SCALLOP	1242	n/a	n/a	0	0	0
594.894	n/a	WORD	297447	wordpools/wasnorm_wordpool_576.txt	LTP115	ltpFR2	4	2	SALT	1229	n/a	n/a	0	0	0
597.554	n/a	WORD	298777	wordpools/wasnorm_wordpool_576.txt	LTP115	ltpFR2	4	2	ARM	38	n/a	n/a	0	0	0
600.114	n/a	WORD	300057	wordpools/wasnorm_wordpool_576.txt	LTP115	ltpFR2	4	2	BROOK	177	n/a	n/a	0	0	0
601.722	n/a	START	300861	n/a	LTP115	ltpFR2	4	n/a	n/a	n/a	3	n/a	n/a	n/a	n/a
602.588	n/a	DISTRACTOR	301294	n/a	LTP115	ltpFR2	4	2	n/a	n/a	n/a	n/a	0	0	0
602.604	n/a	PROB	301302	n/a	LTP115	ltpFR2	4	n/a	n/a	n/a	3	17	3	5	9
604.962	n/a	PROB	302481	n/a	LTP115	ltpFR2	4	n/a	n/a	n/a	3	24	9	6	9
606.968	n/a	PROB	303484	n/a	LTP115	ltpFR2	4	n/a	n/a	n/a	3	15	3	3	9
608.328	n/a	PROB	304164	n/a	LTP115	ltpFR2	4	n/a	n/a	n/a	3	10	5	3	2
610.286	n/a	PROB	305143	n/a	LTP115	ltpFR2	4	n/a	n/a	n/a	3	17	6	5	6
612.072	n/a	PROB	306036	n/a	LTP115	ltpFR2	4	n/a	n/a	n/a	3	19	7	4	8
613.746	n/a	PROB	306873	n/a	LTP115	ltpFR2	4	n/a	n/a	n/a	3	11	2	4	5
615.116	n/a	PROB	307558	n/a	LTP115	ltpFR2	4	n/a	n/a	n/a	3	15	5	1	9
617.024	n/a	PROB	308512	n/a	LTP115	ltpFR2	4	n/a	n/a	n/a	3	14	2	4	8
618.396	n/a	PROB	309198	n/a	LTP115	ltpFR2	4	n/a	n/a	n/a	3	13	6	6	1
619.472	n/a	PROB	309736	n/a	LTP115	ltpFR2	4	n/a	n/a	n/a	3	13	1	4	8
622.346	n/a	PROB	311173	n/a	LTP115	ltpFR2	4	n/a	n/a	n/a	3	17	9	3	5
624.496	n/a	STOP	312248	n/a	LTP115	ltpFR2	4	n/a	n/a	n/a	3	n/a	n/a	n/a	n/a
627.566	n/a	REC_START	313783	n/a	LTP115	ltpFR2	4	2	n/a	n/a	n/a	n/a	0	0	0
629.222	n/a	REC_WORD	314611	wordpools/wasnorm_wordpool_576.txt	LTP115	ltpFR2	4	2	THIEF	1456	n/a	n/a	0	0	0
630.184	n/a	REC_WORD	315092	wordpools/wasnorm_wordpool_576.txt	LTP115	ltpFR2	4	2	OUTLAW	989	n/a	n/a	0	0	0
631.636	n/a	REC_WORD	315818	wordpools/wasnorm_wordpool_576.txt	LTP115	ltpFR2	4	2	WAITER	1580	n/a	n/a	0	0	0
633.252	n/a	REC_WORD	316626	wordpools/wasnorm_wordpool_576.txt	LTP115	ltpFR2	4	2	SNACK	1331	n/a	n/a	0	0	0
634.516	n/a	REC_WORD	317258	wordpools/wasnorm_wordpool_576.txt	LTP115	ltpFR2	4	2	LUNCH	849	n/a	n/a	0	0	0
635.34	n/a	REC_WORD	317670	wordpools/wasnorm_wordpool_576.txt	LTP115	ltpFR2	4	2	EYELASH	546	n/a	n/a	0	0	0
636.612	n/a	REC_WORD	318306	wordpools/wasnorm_wordpool_576.txt	LTP115	ltpFR2	4	2	LIPSTICK	829	n/a	n/a	0	0	0
638.544	n/a	REC_WORD	319272	wordpools/wasnorm_wordpool_576.txt	LTP115	ltpFR2	4	2	SALT	1229	n/a	n/a	0	0	0
639.332	n/a	REC_WORD	319666	wordpools/wasnorm_wordpool_576.txt	LTP115	ltpFR2	4	2	PEPPER	1047	n/a	n/a	0	0	0
640.076	n/a	REC_WORD	320038	wordpools/wasnorm_wordpool_576.txt	LTP115	ltpFR2	4	2	SCALLOP	1242	n/a	n/a	0	0	0
643.884	n/a	REC_WORD	321942	wordpools/wasnorm_wordpool_576.txt	LTP115	ltpFR2	4	2	HONEY	713	n/a	n/a	0	0	0
645.642	n/a	REC_WORD	322821	wordpools/wasnorm_wordpool_576.txt	LTP115	ltpFR2	4	2	BROOK	177	n/a	n/a	0	0	0
652.926	n/a	REC_WORD	326463	wordpools/wasnorm_wordpool_576.txt	LTP115	ltpFR2	4	2	BREAST	171	n/a	n/a	0	0	0
660.122	n/a	REC_WORD_VV	330061	wordpools/wasnorm_wordpool_576.txt	LTP115	ltpFR2	4	2	<>	-1	n/a	n/a	0	0	0
661.122	n/a	REC_WORD_VV	330561	wordpools/wasnorm_wordpool_576.txt	LTP115	ltpFR2	4	2	<>	-1	n/a	n/a	0	0	0
692.02	n/a	REC_WORD	346010	wordpools/wasnorm_wordpool_576.txt	LTP115	ltpFR2	4	2	CHAMPAGNE	278	n/a	n/a	0	0	0
718.634	n/a	WORD	359317	wordpools/wasnorm_wordpool_576.txt	LTP115	ltpFR2	4	3	APRON	35	n/a	n/a	0	0	0
721.16	n/a	WORD	360580	wordpools/wasnorm_wordpool_576.txt	LTP115	ltpFR2	4	3	LUGGAGE	847	n/a	n/a	0	0	0
723.852	n/a	WORD	361926	wordpools/wasnorm_wordpool_576.txt	LTP115	ltpFR2	4	3	STAKE	1368	n/a	n/a	0	0	0
726.548	n/a	WORD	363274	wordpools/wasnorm_wordpool_576.txt	LTP115	ltpFR2	4	3	PLAZA	1088	n/a	n/a	0	0	0
729.224	n/a	WORD	364612	wordpools/wasnorm_wordpool_576.txt	LTP115	ltpFR2	4	3	MONEY	908	n/a	n/a	0	0	0
731.746	n/a	WORD	365873	wordpools/wasnorm_wordpool_576.txt	LTP115	ltpFR2	4	3	NOMAD	955	n/a	n/a	0	0	0
734.326	n/a	WORD	367163	wordpools/wasnorm_wordpool_576.txt	LTP115	ltpFR2	4	3	CANDY	230	n/a	n/a	0	0	0
736.852	n/a	WORD	368426	wordpools/wasnorm_wordpool_576.txt	LTP115	ltpFR2	4	3	ROD	1203	n/a	n/a	0	0	0
739.53	n/a	WORD	369765	wordpools/wasnorm_wordpool_576.txt	LTP115	ltpFR2	4	3	SUITCASE	1403	n/a	n/a	0	0	0
742.106	n/a	WORD	371053	wordpools/wasnorm_wordpool_576.txt	LTP115	ltpFR2	4	3	VENUS	1557	n/a	n/a	0	0	0
744.896	n/a	WORD	372448	wordpools/wasnorm_wordpool_576.txt	LTP115	ltpFR2	4	3	BEEF	113	n/a	n/a	0	0	0
747.524	n/a	WORD	373762	wordpools/wasnorm_wordpool_576.txt	LTP115	ltpFR2	4	3	CHURCH	307	n/a	n/a	0	0	0
750.02	n/a	WORD	375010	wordpools/wasnorm_wordpool_576.txt	LTP115	ltpFR2	4	3	SCALPEL	1243	n/a	n/a	0	0	0
752.682	n/a	WORD	376341	wordpools/wasnorm_wordpool_576.txt	LTP115	ltpFR2	4	3	MUFFIN	929	n/a	n/a	0	0	0
755.34	n/a	WORD	377670	wordpools/wasnorm_wordpool_576.txt	LTP115	ltpFR2	4	3	SHOULDER	1294	n/a	n/a	0	0	0
757.796	n/a	WORD	378898	wordpools/wasnorm_wordpool_576.txt	LTP115	ltpFR2	4	3	FARMER	553	n/a	n/a	0	0	0
760.612	n/a	WORD	380306	wordpools/wasnorm_wordpool_576.txt	LTP115	ltpFR2	4	3	POET	1095	n/a	n/a	0	0	0
763.316	n/a	WORD	381658	wordpools/wasnorm_wordpool_576.txt	LTP115	ltpFR2	4	3	CURTAIN	427	n/a	n/a	0	0	0
765.846	n/a	WORD	382923	wordpools/wasnorm_wordpool_576.txt	LTP115	ltpFR2	4	3	SWORD	1423	n/a	n/a	0	0	0
768.442	n/a	WORD	384221	wordpools/wasnorm_wordpool_576.txt	LTP115	ltpFR2	4	3	KNIFE	785	n/a	n/a	0	0	0
771.15	n/a	WORD	385575	wordpools/wasnorm_wordpool_576.txt	LTP115	ltpFR2	4	3	DRILL	497	n/a	n/a	0	0	0
773.674	n/a	WORD	386837	wordpools/wasnorm_wordpool_576.txt	LTP115	ltpFR2	4	3	FIREPLACE	570	n/a	n/a	0	0	0
776.232	n/a	WORD	388116	wordpools/wasnorm_wordpool_576.txt	LTP115	ltpFR2	4	3	ROBBER	1197	n/a	n/a	0	0	0
778.83	n/a	WORD	389415	wordpools/wasnorm_wordpool_576.txt	LTP115	ltpFR2	4	3	BURGLAR	200	n/a	n/a	0	0	0
780.438	n/a	START	390219	n/a	LTP115	ltpFR2	4	n/a	n/a	n/a	4	n/a	n/a	n/a	n/a
781.29	n/a	DISTRACTOR	390645	n/a	LTP115	ltpFR2	4	3	n/a	n/a	n/a	n/a	0	0	0
781.306	n/a	PROB	390653	n/a	LTP115	ltpFR2	4	n/a	n/a	n/a	4	16	9	3	4
782.978	n/a	PROB	391489	n/a	LTP115	ltpFR2	4	n/a	n/a	n/a	4	24	6	7	9
784.754	n/a	PROB	392377	n/a	LTP115	ltpFR2	4	n/a	n/a	n/a	4	16	4	3	9
786.204	n/a	PROB	393102	n/a	LTP115	ltpFR2	4	n/a	n/a	n/a	4	15	8	1	6
787.826	n/a	PROB	393913	n/a	LTP115	ltpFR2	4	n/a	n/a	n/a	4	14	7	2	5
789.266	n/a	PROB	394633	n/a	LTP115	ltpFR2	4	n/a	n/a	n/a	4	12	1	5	6
790.672	n/a	PROB	395336	n/a	LTP115	ltpFR2	4	n/a	n/a	n/a	4	15	7	2	6
792.562	n/a	PROB	396281	n/a	LTP115	ltpFR2	4	n/a	n/a	n/a	4	24	8	8	8
794.306	n/a	PROB	397153	n/a	LTP115	ltpFR2	4	n/a	n/a	n/a	4	24	8	7	9
796.426	n/a	PROB	398213	n/a	LTP115	ltpFR2	4	n/a	n/a	n/a	4	19	9	4	6
798.506	n/a	PROB	399253	n/a	LTP115	ltpFR2	4	n/a	n/a	n/a	4	19	8	6	5
800.056	n/a	PROB	400028	n/a	LTP115	ltpFR2	4	n/a	n/a	n/a	4	21	8	9	4
802.098	n/a	PROB	401049	n/a	LTP115	ltpFR2	4	n/a	n/a	n/a	4	20	3	9	8
803.69	n/a	STOP	401845	n/a	LTP115	ltpFR2	4	n/a	n/a	n/a	4	n/a	n/a	n/a	n/a
806.252	n/a	REC_START	403126	n/a	LTP115	ltpFR2	4	3	n/a	n/a	n/a	n/a	0	0	0
807.298	n/a	REC_WORD	403649	wordpools/wasnorm_wordpool_576.txt	LTP115	ltpFR2	4	3	BURGLAR	200	n/a	n/a	0	0	0
808.084	n/a	REC_WORD	404042	wordpools/wasnorm_wordpool_576.txt	LTP115	ltpFR2	4	3	ROBBER	1197	n/a	n/a	0	0	0
810.834	n/a	REC_WORD	405417	wordpools/wasnorm_wordpool_576.txt	LTP115	ltpFR2	4	3	CURTAIN	427	n/a	n/a	0	0	0
811.722	n/a	REC_WORD	405861	wordpools/wasnorm_wordpool_576.txt	LTP115	ltpFR2	4	3	ROD	1203	n/a	n/a	0	0	0
811.726	n/a	REC_WORD	405863	wordpools/wasnorm_wordpool_576.txt	LTP115	ltpFR2	4	3	ROBBER	1197	n/a	n/a	0	0	0
813.148	n/a	REC_WORD	406574	wordpools/wasnorm_wordpool_576.txt	LTP115	ltpFR2	4	3	SUITCASE	1403	n/a	n/a	0	0	0
814.114	n/a	REC_WORD	407057	wordpools/wasnorm_wordpool_576.txt	LTP115	ltpFR2	4	3	LUGGAGE	847	n/a	n/a	0	0	0
815.256	n/a	REC_WORD	407628	wordpools/wasnorm_wordpool_576.txt	LTP115	ltpFR2	4	3	MONEY	908	n/a	n/a	0	0	0
816.676	n/a	REC_WORD	408338	wordpools/wasnorm_wordpool_576.txt	LTP115	ltpFR2	4	3	VENUS	1557	n/a	n/a	0	0	0
818.966	n/a	REC_WORD	409483	wordpools/wasnorm_wordpool_576.txt	LTP115	ltpFR2	4	3	NOMAD	955	n/a	n/a	0	0	0
819.822	n/a	REC_WORD	409911	wordpools/wasnorm_wordpool_576.txt	LTP115	ltpFR2	4	3	FARMER	553	n/a	n/a	0	0	0
821.498	n/a	REC_WORD	410749	wordpools/wasnorm_wordpool_576.txt	LTP115	ltpFR2	4	3	KNIFE	785	n/a	n/a	0	0	0
822.412	n/a	REC_WORD	411206	wordpools/wasnorm_wordpool_576.txt	LTP115	ltpFR2	4	3	SWORD	1423	n/a	n/a	0	0	0
827.162	n/a	REC_WORD	413581	wordpools/wasnorm_wordpool_576.txt	LTP115	ltpFR2	4	3	POET	1095	n/a	n/a	0	0	0
834.306	n/a	REC_WORD	417153	wordpools/wasnorm_wordpool_576.txt	LTP115	ltpFR2	4	3	APRON	35	n/a	n/a	0	0	0
835.408	n/a	REC_WORD	417704	wordpools/wasnorm_wordpool_576.txt	LTP115	ltpFR2	4	3	STAKE	1368	n/a	n/a	0	0	0
854.938	n/a	REC_WORD	427469	wordpools/wasnorm_wordpool_576.txt	LTP115	ltpFR2	4	3	SHOULDER	1294	n/a	n/a	0	0	0
897.282	n/a	DISTRACTOR	448641	n/a	LTP115	ltpFR2	4	4	n/a	n/a	n/a	n/a	0	0	0
897.282	n/a	START	448641	n/a	LTP115	ltpFR2	4	n/a	n/a	n/a	5	n/a	n/a	n/a	n/a
897.332	n/a	PROB	448666	n/a	LTP115	ltpFR2	4	n/a	n/a	n/a	5	20	3	9	8
899.286	n/a	PROB	449643	n/a	LTP115	ltpFR2	4	n/a	n/a	n/a	5	14	2	5	7
901.248	n/a	PROB	450624	n/a	LTP115	ltpFR2	4	n/a	n/a	n/a	5	18	8	1	9
903.786	n/a	PROB	451893	n/a	LTP115	ltpFR2	4	n/a	n/a	n/a	5	11	7	2	2
905.844	n/a	PROB	452922	n/a	LTP115	ltpFR2	4	n/a	n/a	n/a	5	16	3	9	5
907.418	n/a	PROB	453709	n/a	LTP115	ltpFR2	4	n/a	n/a	n/a	5	15	5	2	9
909.19	n/a	PROB	454595	n/a	LTP115	ltpFR2	4	n/a	n/a	n/a	5	17	4	4	9
911.5	n/a	PROB	455750	n/a	LTP115	ltpFR2	4	n/a	n/a	n/a	5	23	8	8	7
913.34	n/a	PROB	456670	n/a	LTP115	ltpFR2	4	n/a	n/a	n/a	5	14	3	8	3
914.828	n/a	PROB	457414	n/a	LTP115	ltpFR2	4	n/a	n/a	n/a	5	16	8	2	6
915.966	n/a	PROB	457983	n/a	LTP115	ltpFR2	4	n/a	n/a	n/a	5	22	9	5	8
918.146	n/a	PROB	459073	n/a	LTP115	ltpFR2	4	n/a	n/a	n/a	5	10	5	3	2
919.992	n/a	STOP	459996	n/a	LTP115	ltpFR2	4	n/a	n/a	n/a	5	n/a	n/a	n/a	n/a
922.228	n/a	WORD	461114	wordpools/wasnorm_wordpool_576.txt	LTP115	ltpFR2	4	4	FLUTE	585	n/a	n/a	0	0	0
924.816	n/a	WORD	462408	wordpools/wasnorm_wordpool_576.txt	LTP115	ltpFR2	4	4	BANJO	82	n/a	n/a	0	0	0
927.516	n/a	WORD	463758	wordpools/wasnorm_wordpool_576.txt	LTP115	ltpFR2	4	4	TOURIST	1488	n/a	n/a	0	0	0
930.208	n/a	WORD	465104	wordpools/wasnorm_wordpool_576.txt	LTP115	ltpFR2	4	4	SLIDE	1326	n/a	n/a	0	0	0
932.952	n/a	WORD	466476	wordpools/wasnorm_wordpool_576.txt	LTP115	ltpFR2	4	4	BLOUSE	139	n/a	n/a	0	0	0
935.496	n/a	WORD	467748	wordpools/wasnorm_wordpool_576.txt	LTP115	ltpFR2	4	4	DRESS	495	n/a	n/a	0	0	0
938.24	n/a	WORD	469120	wordpools/wasnorm_wordpool_576.txt	LTP115	ltpFR2	4	4	RUST	1219	n/a	n/a	0	0	0
940.966	n/a	WORD	470483	wordpools/wasnorm_wordpool_576.txt	LTP115	ltpFR2	4	4	BUTCHER	203	n/a	n/a	0	0	0
943.594	n/a	WORD	471797	wordpools/wasnorm_wordpool_576.txt	LTP115	ltpFR2	4	4	PAPER	1011	n/a	n/a	0	0	0
946.416	n/a	WORD	473208	wordpools/wasnorm_wordpool_576.txt	LTP115	ltpFR2	4	4	MAILMAN	858	n/a	n/a	0	0	0
949.03	n/a	WORD	474515	wordpools/wasnorm_wordpool_576.txt	LTP115	ltpFR2	4	4	HUMAN	726	n/a	n/a	0	0	0
951.724	n/a	WORD	475862	wordpools/wasnorm_wordpool_576.txt	LTP115	ltpFR2	4	4	JUNGLE	764	n/a	n/a	0	0	0
954.536	n/a	WORD	477268	wordpools/wasnorm_wordpool_576.txt	LTP115	ltpFR2	4	4	IGLOO	734	n/a	n/a	0	0	0
957.358	n/a	WORD	478679	wordpools/wasnorm_wordpool_576.txt	LTP115	ltpFR2	4	4	PIZZA	1079	n/a	n/a	0	0	0
960.156	n/a	WORD	480078	wordpools/wasnorm_wordpool_576.txt	LTP115	ltpFR2	4	4	OUTFIT	988	n/a	n/a	0	0	0
962.75	n/a	WORD	481375	wordpools/wasnorm_wordpool_576.txt	LTP115	ltpFR2	4	4	SPIDER	1351	n/a	n/a	0	0	0
965.326	n/a	WORD	482663	wordpools/wasnorm_wordpool_576.txt	LTP115	ltpFR2	4	4	MOTEL	919	n/a	n/a	0	0	0
968.136	n/a	WORD	484068	wordpools/wasnorm_wordpool_576.txt	LTP115	ltpFR2	4	4	PARTNER	1017	n/a	n/a	0	0	0
970.68	n/a	WORD	485340	wordpools/wasnorm_wordpool_576.txt	LTP115	ltpFR2	4	4	DRUG	501	n/a	n/a	0	0	0
973.156	n/a	WORD	486578	wordpools/wasnorm_wordpool_576.txt	LTP115	ltpFR2	4	4	SIDEWALK	1303	n/a	n/a	0	0	0
975.95	n/a	WORD	487975	wordpools/wasnorm_wordpool_576.txt	LTP115	ltpFR2	4	4	MAILBOX	857	n/a	n/a	0	0	0
978.54	n/a	WORD	489270	wordpools/wasnorm_wordpool_576.txt	LTP115	ltpFR2	4	4	REBEL	1172	n/a	n/a	0	0	0
980.998	n/a	WORD	490499	wordpools/wasnorm_wordpool_576.txt	LTP115	ltpFR2	4	4	PLAYGROUND	1087	n/a	n/a	0	0	0
983.546	n/a	WORD	491773	wordpools/wasnorm_wordpool_576.txt	LTP115	ltpFR2	4	4	JUDGE	761	n/a	n/a	0	0	0
985.152	n/a	START	492576	n/a	LTP115	ltpFR2	4	n/a	n/a	n/a	6	n/a	n/a	n/a	n/a
986.128	n/a	DISTRACTOR	493064	n/a	LTP115	ltpFR2	4	4	n/a	n/a	n/a	n/a	0	0	0
986.138	n/a	PROB	493069	n/a	LTP115	ltpFR2	4	n/a	n/a	n/a	6	20	9	9	2
989.128	n/a	PROB	494564	n/a	LTP115	ltpFR2	4	n/a	n/a	n/a	6	21	5	9	7
990.852	n/a	PROB	495426	n/a	LTP115	ltpFR2	4	n/a	n/a	n/a	6	9	3	4	2
993.35	n/a	PROB	496675	n/a	LTP115	ltpFR2	4	n/a	n/a	n/a	6	11	8	2	1
994.686	n/a	PROB	497343	n/a	LTP115	ltpFR2	4	n/a	n/a	n/a	6	7	3	1	3
995.956	n/a	PROB	497978	n/a	LTP115	ltpFR2	4	n/a	n/a	n/a	6	1	4	4	4
997.026	n/a	PROB	498513	n/a	LTP115	ltpFR2	4	n/a	n/a	n/a	6	18	9	5	4
999.87	n/a	PROB	499935	n/a	LTP115	ltpFR2	4	n/a	n/a	n/a	6	19	8	4	7
1001.582	n/a	PROB	500791	n/a	LTP115	ltpFR2	4	n/a	n/a	n/a	6	9	3	1	5
1002.902	n/a	PROB	501451	n/a	LTP115	ltpFR2	4	n/a	n/a	n/a	6	10	3	6	1
1004.02	n/a	PROB	502010	n/a	LTP115	ltpFR2	4	n/a	n/a	n/a	6	12	8	2	2
1005.342	n/a	PROB	502671	n/a	LTP115	ltpFR2	4	n/a	n/a	n/a	6	19	8	7	4
1007.114	n/a	PROB	503557	n/a	LTP115	ltpFR2	4	n/a	n/a	n/a	6	10	2	4	4
1008.756	n/a	STOP	504378	n/a	LTP115	ltpFR2	4	n/a	n/a	n/a	6	n/a	n/a	n/a	n/a
1010.968	n/a	REC_START	505484	n/a	LTP115	ltpFR2	4	4	n/a	n/a	n/a	n/a	0	0	0
1011.73	n/a	REC_WORD	505865	wordpools/wasnorm_wordpool_576.txt	LTP115	ltpFR2	4	4	JUDGE	761	n/a	n/a	0	0	0
1012.926	n/a	REC_WORD	506463	wordpools/wasnorm_wordpool_576.txt	LTP115	ltpFR2	4	4	DRUG	501	n/a	n/a	0	0	0
1014.206	n/a	REC_WORD	507103	wordpools/wasnorm_wordpool_576.txt	LTP115	ltpFR2	4	4	PLAYGROUND	1087	n/a	n/a	0	0	0
1015.15	n/a	REC_WORD	507575	wordpools/wasnorm_wordpool_576.txt	LTP115	ltpFR2	4	4	SLIDE	1326	n/a	n/a	0	0	0
1016.72	n/a	REC_WORD	508360	wordpools/wasnorm_wordpool_576.txt	LTP115	ltpFR2	4	4	BLOUSE	139	n/a	n/a	0	0	0
1018.724	n/a	REC_WORD	509362	wordpools/wasnorm_wordpool_576.txt	LTP115	ltpFR2	4	4	SHIRT	1287	n/a	n/a	0	0	0
1020.098	n/a	REC_WORD	510049	wordpools/wasnorm_wordpool_576.txt	LTP115	ltpFR2	4	4	OUTFIT	988	n/a	n/a	0	0	0
1022.06	n/a	REC_WORD	511030	wordpools/wasnorm_wordpool_576.txt	LTP115	ltpFR2	4	4	FLUTE	585	n/a	n/a	0	0	0
1023.014	n/a	REC_WORD	511507	wordpools/wasnorm_wordpool_576.txt	LTP115	ltpFR2	4	4	BANJO	82	n/a	n/a	0	0	0
1024.056	n/a	REC_WORD	512028	wordpools/wasnorm_wordpool_576.txt	LTP115	ltpFR2	4	4	PARTNER	1017	n/a	n/a	0	0	0
1024.652	n/a	REC_WORD	512326	wordpools/wasnorm_wordpool_576.txt	LTP115	ltpFR2	4	4	MOTEL	919	n/a	n/a	0	0	0
1025.782	n/a	REC_WORD	512891	wordpools/wasnorm_wordpool_576.txt	LTP115	ltpFR2	4	4	SPIDER	1351	n/a	n/a	0	0	0
1031.408	n/a	REC_WORD	515704	wordpools/wasnorm_wordpool_576.txt	LTP115	ltpFR2	4	4	TOURIST	1488	n/a	n/a	0	0	0
1033.23	n/a	REC_WORD	516615	wordpools/wasnorm_wordpool_576.txt	LTP115	ltpFR2	4	4	JUNGLE	764	n/a	n/a	0	0	0
1034.76	n/a	REC_WORD	517380	wordpools/wasnorm_wordpool_576.txt	LTP115	ltpFR2	4	4	IGLOO	734	n/a	n/a	0	0	0
1041.862	n/a	REC_WORD	520931	wordpools/wasnorm_wordpool_576.txt	LTP115	ltpFR2	4	4	RUST	1219	n/a	n/a	0	0	0
1042.94	n/a	REC_WORD	521470	wordpools/wasnorm_wordpool_576.txt	LTP115	ltpFR2	4	4	BUTCHER	203	n/a	n/a	0	0	0
1043.878	n/a	REC_WORD	521939	wordpools/wasnorm_wordpool_576.txt	LTP115	ltpFR2	4	4	PAPER	1011	n/a	n/a	0	0	0
1044.792	n/a	REC_WORD	522396	wordpools/wasnorm_wordpool_576.txt	LTP115	ltpFR2	4	4	MAILMAN	858	n/a	n/a	0	0	0
1045.986	n/a	REC_WORD	522993	wordpools/wasnorm_wordpool_576.txt	LTP115	ltpFR2	4	4	SIDEWALK	1303	n/a	n/a	0	0	0
1047.636	n/a	REC_WORD	523818	wordpools/wasnorm_wordpool_576.txt	LTP115	ltpFR2	4	4	MAILBOX	857	n/a	n/a	0	0	0
1101.998	n/a	DISTRACTOR	550999	n/a	LTP115	ltpFR2	4	5	n/a	n/a	n/a	n/a	0	0	0
1101.998	n/a	START	550999	n/a	LTP115	ltpFR2	4	n/a	n/a	n/a	7	n/a	n/a	n/a	n/a
1102.048	n/a	PROB	551024	n/a	LTP115	ltpFR2	4	n/a	n/a	n/a	7	16	5	9	2
1104.09	n/a	PROB	552045	n/a	LTP115	ltpFR2	4	n/a	n/a	n/a	7	11	3	4	4
1105.564	n/a	PROB	552782	n/a	LTP115	ltpFR2	4	n/a	n/a	n/a	7	4	1	2	1
1106.684	n/a	PROB	553342	n/a	LTP115	ltpFR2	4	n/a	n/a	n/a	7	16	8	7	1
1108.134	n/a	PROB	554067	n/a	LTP115	ltpFR2	4	n/a	n/a	n/a	7	11	5	4	2
1109.462	n/a	PROB	554731	n/a	LTP115	ltpFR2	4	n/a	n/a	n/a	7	19	7	4	8
1110.944	n/a	PROB	555472	n/a	LTP115	ltpFR2	4	n/a	n/a	n/a	7	7	2	4	1
1112.138	n/a	PROB	556069	n/a	LTP115	ltpFR2	4	n/a	n/a	n/a	7	24	6	9	9
1113.84	n/a	PROB	556920	n/a	LTP115	ltpFR2	4	n/a	n/a	n/a	7	15	1	6	8
1115.294	n/a	PROB	557647	n/a	LTP115	ltpFR2	4	n/a	n/a	n/a	7	15	5	2	8
1116.466	n/a	PROB	558233	n/a	LTP115	ltpFR2	4	n/a	n/a	n/a	7	9	4	3	2
1118.29	n/a	PROB	559145	n/a	LTP115	ltpFR2	4	n/a	n/a	n/a	7	13	3	9	1
1120.13	n/a	PROB	560065	n/a	LTP115	ltpFR2	4	n/a	n/a	n/a	7	16	9	4	3
1121.406	n/a	PROB	560703	n/a	LTP115	ltpFR2	4	n/a	n/a	n/a	7	15	7	3	5
1122.558	n/a	PROB	561279	n/a	LTP115	ltpFR2	4	n/a	n/a	n/a	7	12	2	4	6
1125.978	n/a	STOP	562989	n/a	LTP115	ltpFR2	4	n/a	n/a	n/a	7	n/a	n/a	n/a	n/a
1127.196	n/a	WORD	563598	wordpools/wasnorm_wordpool_576.txt	LTP115	ltpFR2	4	5	CYCLONE	431	n/a	n/a	0	0	0
1129.938	n/a	WORD	564969	wordpools/wasnorm_wordpool_576.txt	LTP115	ltpFR2	4	5	HOOK	715	n/a	n/a	0	0	0
1132.612	n/a	WORD	566306	wordpools/wasnorm_wordpool_576.txt	LTP115	ltpFR2	4	5	LABEL	790	n/a	n/a	0	0	0
1135.074	n/a	WORD	567537	wordpools/wasnorm_wordpool_576.txt	LTP115	ltpFR2	4	5	GANGSTER	620	n/a	n/a	0	0	0
1137.802	n/a	WORD	568901	wordpools/wasnorm_wordpool_576.txt	LTP115	ltpFR2	4	5	SPACE	1345	n/a	n/a	0	0	0
1140.244	n/a	WORD	570122	wordpools/wasnorm_wordpool_576.txt	LTP115	ltpFR2	4	5	COMET	353	n/a	n/a	0	0	0
1142.788	n/a	WORD	571394	wordpools/wasnorm_wordpool_576.txt	LTP115	ltpFR2	4	5	CRUTCH	417	n/a	n/a	0	0	0
1145.28	n/a	WORD	572640	wordpools/wasnorm_wordpool_576.txt	LTP115	ltpFR2	4	5	PISTON	1076	n/a	n/a	0	0	0
1147.908	n/a	WORD	573954	wordpools/wasnorm_wordpool_576.txt	LTP115	ltpFR2	4	5	BISON	131	n/a	n/a	0	0	0
1150.468	n/a	WORD	575234	wordpools/wasnorm_wordpool_576.txt	LTP115	ltpFR2	4	5	ZEBRA	1635	n/a	n/a	0	0	0
1152.944	n/a	WORD	576472	wordpools/wasnorm_wordpool_576.txt	LTP115	ltpFR2	4	5	SURVEY	1414	n/a	n/a	0	0	0
1155.738	n/a	WORD	577869	wordpools/wasnorm_wordpool_576.txt	LTP115	ltpFR2	4	5	CATTLE	261	n/a	n/a	0	0	0
1158.382	n/a	WORD	579191	wordpools/wasnorm_wordpool_576.txt	LTP115	ltpFR2	4	5	AUTHOR	61	n/a	n/a	0	0	0
1161.158	n/a	WORD	580579	wordpools/wasnorm_wordpool_576.txt	LTP115	ltpFR2	4	5	WIFE	1609	n/a	n/a	0	0	0
1163.618	n/a	WORD	581809	wordpools/wasnorm_wordpool_576.txt	LTP115	ltpFR2	4	5	MONSTER	912	n/a	n/a	0	0	0
1166.16	n/a	WORD	583080	wordpools/wasnorm_wordpool_576.txt	LTP115	ltpFR2	4	5	SERVANT	1271	n/a	n/a	0	0	0
1168.588	n/a	WORD	584294	wordpools/wasnorm_wordpool_576.txt	LTP115	ltpFR2	4	5	WAITRESS	1581	n/a	n/a	0	0	0
1171.28	n/a	WORD	585640	wordpools/wasnorm_wordpool_576.txt	LTP115	ltpFR2	4	5	PRINCE	1124	n/a	n/a	0	0	0
1174.006	n/a	WORD	587003	wordpools/wasnorm_wordpool_576.txt	LTP115	ltpFR2	4	5	THRONE	1461	n/a	n/a	0	0	0
1176.684	n/a	WORD	588342	wordpools/wasnorm_wordpool_576.txt	LTP115	ltpFR2	4	5	CHAPEL	280	n/a	n/a	0	0	0
1179.294	n/a	WORD	589647	wordpools/wasnorm_wordpool_576.txt	LTP115	ltpFR2	4	5	AWARD	63	n/a	n/a	0	0	0
1181.954	n/a	WORD	590977	wordpools/wasnorm_wordpool_576.txt	LTP115	ltpFR2	4	5	TUTU	1524	n/a	n/a	0	0	0
1184.75	n/a	WORD	592375	wordpools/wasnorm_wordpool_576.txt	LTP115	ltpFR2	4	5	CARRIAGE	248	n/a	n/a	0	0	0
1187.46	n/a	WORD	593730	wordpools/wasnorm_wordpool_576.txt	LTP115	ltpFR2	4	5	VALLEY	1545	n/a	n/a	0	0	0
1189.078	n/a	START	594539	n/a	LTP115	ltpFR2	4	n/a	n/a	n/a	8	n/a	n/a	n/a	n/a
1190.136	n/a	DISTRACTOR	595068	n/a	LTP115	ltpFR2	4	5	n/a	n/a	n/a	n/a	0	0	0
1190.152	n/a	PROB	595076	n/a	LTP115	ltpFR2	4	n/a	n/a	n/a	8	12	6	5	1
1191.592	n/a	PROB	595796	n/a	LTP115	ltpFR2	4	n/a	n/a	n/a	8	17	7	3	7
1193.41	n/a	PROB	596705	n/a	LTP115	ltpFR2	4	n/a	n/a	n/a	8	12	1	2	9
1195.606	n/a	PROB	597803	n/a	LTP115	ltpFR2	4	n/a	n/a	n/a	8	9	3	5	1
1196.74	n/a	PROB	598370	n/a	LTP115	ltpFR2	4	n/a	n/a	n/a	8	19	4	8	7
1199.434	n/a	PROB	599717	n/a	LTP115	ltpFR2	4	n/a	n/a	n/a	8	21	9	8	4
1201.156	n/a	PROB	600578	n/a	LTP115	ltpFR2	4	n/a	n/a	n/a	8	13	2	4	7
1202.496	n/a	PROB	601248	n/a	LTP115	ltpFR2	4	n/a	n/a	n/a	8	15	7	1	9
1204.088	n/a	PROB	602044	n/a	LTP115	ltpFR2	4	n/a	n/a	n/a	8	25	9	7	9
1207.2	n/a	PROB	603600	n/a	LTP115	ltpFR2	4	n/a	n/a	n/a	8	13	2	3	8
1208.674	n/a	PROB	604337	n/a	LTP115	ltpFR2	4	n/a	n/a	n/a	8	17	8	2	7
1209.99	n/a	PROB	604995	n/a	LTP115	ltpFR2	4	n/a	n/a	n/a	8	16	4	6	6
1211.194	n/a	PROB	605597	n/a	LTP115	ltpFR2	4	n/a	n/a	n/a	8	17	1	9	7
1212.286	n/a	STOP	606143	n/a	LTP115	ltpFR2	4	n/a	n/a	n/a	8	n/a	n/a	n/a	n/a
1214.994	n/a	REC_START	607497	n/a	LTP115	ltpFR2	4	5	n/a	n/a	n/a	n/a	0	0	0
1215.954	n/a	REC_WORD	607977	wordpools/wasnorm_wordpool_576.txt	LTP115	ltpFR2	4	5	CHAPEL	280	n/a	n/a	0	0	0
1217.31	n/a	REC_WORD	608655	wordpools/wasnorm_wordpool_576.txt	LTP115	ltpFR2	4	5	LABEL	790	n/a	n/a	0	0	0
1218.506	n/a	REC_WORD	609253	wordpools/wasnorm_wordpool_576.txt	LTP115	ltpFR2	4	5	HOOK	715	n/a	n/a	0	0	0
1219.58	n/a	REC_WORD	609790	wordpools/wasnorm_wordpool_576.txt	LTP115	ltpFR2	4	5	CRUTCH	417	n/a	n/a	0	0	0
1221.732	n/a	REC_WORD	610866	wordpools/wasnorm_wordpool_576.txt	LTP115	ltpFR2	4	5	MONSTER	912	n/a	n/a	0	0	0
1222.746	n/a	REC_WORD	611373	wordpools/wasnorm_wordpool_576.txt	LTP115	ltpFR2	4	5	CYCLONE	431	n/a	n/a	0	0	0
1223.71	n/a	REC_WORD	611855	wordpools/wasnorm_wordpool_576.txt	LTP115	ltpFR2	4	5	SPACE	1345	n/a	n/a	0	0	0
1224.914	n/a	REC_WORD	612457	wordpools/wasnorm_wordpool_576.txt	LTP115	ltpFR2	4	5	COMET	353	n/a	n/a	0	0	0
1226.28	n/a	REC_WORD	613140	wordpools/wasnorm_wordpool_576.txt	LTP115	ltpFR2	4	5	WIFE	1609	n/a	n/a	0	0	0
1228.004	n/a	REC_WORD	614002	wordpools/wasnorm_wordpool_576.txt	LTP115	ltpFR2	4	5	AWARD	63	n/a	n/a	0	0	0
1233.316	n/a	REC_WORD	616658	wordpools/wasnorm_wordpool_576.txt	LTP115	ltpFR2	4	5	PRINCE	1124	n/a	n/a	0	0	0
1234.182	n/a	REC_WORD	617091	wordpools/wasnorm_wordpool_576.txt	LTP115	ltpFR2	4	5	THRONE	1461	n/a	n/a	0	0	0
1235.24	n/a	REC_WORD	617620	wordpools/wasnorm_wordpool_576.txt	LTP115	ltpFR2	4	5	CARRIAGE	248	n/a	n/a	0	0	0
1236.318	n/a	REC_WORD	618159	wordpools/wasnorm_wordpool_576.txt	LTP115	ltpFR2	4	5	VALLEY	1545	n/a	n/a	0	0	0
1241.078	n/a	REC_WORD	620539	wordpools/wasnorm_wordpool_576.txt	LTP115	ltpFR2	4	5	WAITRESS	1581	n/a	n/a	0	0	0
1242.11	n/a	REC_WORD	621055	wordpools/wasnorm_wordpool_576.txt	LTP115	ltpFR2	4	5	SERVANT	1271	n/a	n/a	0	0	0
1306.062	n/a	WORD	653031	wordpools/wasnorm_wordpool_576.txt	LTP115	ltpFR2	4	6	COUNTRY	388	n/a	n/a	0	0	0
1308.874	n/a	WORD	654437	wordpools/wasnorm_wordpool_576.txt	LTP115	ltpFR2	4	6	COD	340	n/a	n/a	0	0	0
1311.614	n/a	WORD	655807	wordpools/wasnorm_wordpool_576.txt	LTP115	ltpFR2	4	6	FLESH	579	n/a	n/a	0	0	0
1314.276	n/a	WORD	657138	wordpools/wasnorm_wordpool_576.txt	LTP115	ltpFR2	4	6	PLASTER	1085	n/a	n/a	0	0	0
1316.704	n/a	WORD	658352	wordpools/wasnorm_wordpool_576.txt	LTP115	ltpFR2	4	6	DRAWING	494	n/a	n/a	0	0	0
1319.228	n/a	WORD	659614	wordpools/wasnorm_wordpool_576.txt	LTP115	ltpFR2	4	6	SALMON	1227	n/a	n/a	0	0	0
1321.668	n/a	WORD	660834	wordpools/wasnorm_wordpool_576.txt	LTP115	ltpFR2	4	6	VELVET	1555	n/a	n/a	0	0	0
1324.214	n/a	WORD	662107	wordpools/wasnorm_wordpool_576.txt	LTP115	ltpFR2	4	6	BELLY	119	n/a	n/a	0	0	0
1326.942	n/a	WORD	663471	wordpools/wasnorm_wordpool_576.txt	LTP115	ltpFR2	4	6	HEART	697	n/a	n/a	0	0	0
1329.616	n/a	WORD	664808	wordpools/wasnorm_wordpool_576.txt	LTP115	ltpFR2	4	6	VALVE	1546	n/a	n/a	0	0	0
1332.074	n/a	WORD	666037	wordpools/wasnorm_wordpool_576.txt	LTP115	ltpFR2	4	6	CLOTHES	327	n/a	n/a	0	0	0
1334.6	n/a	WORD	667300	wordpools/wasnorm_wordpool_576.txt	LTP115	ltpFR2	4	6	EUROPE	541	n/a	n/a	0	0	0
1337.244	n/a	WORD	668622	wordpools/wasnorm_wordpool_576.txt	LTP115	ltpFR2	4	6	FRANCE	601	n/a	n/a	0	0	0
1339.692	n/a	WORD	669846	wordpools/wasnorm_wordpool_576.txt	LTP115	ltpFR2	4	6	OYSTER	995	n/a	n/a	0	0	0
1342.468	n/a	WORD	671234	wordpools/wasnorm_wordpool_576.txt	LTP115	ltpFR2	4	6	FUNGUS	614	n/a	n/a	0	0	0
1345.026	n/a	WORD	672513	wordpools/wasnorm_wordpool_576.txt	LTP115	ltpFR2	4	6	RADISH	1158	n/a	n/a	0	0	0
1347.822	n/a	WORD	673911	wordpools/wasnorm_wordpool_576.txt	LTP115	ltpFR2	4	6	WAGON	1578	n/a	n/a	0	0	0
1350.532	n/a	WORD	675266	wordpools/wasnorm_wordpool_576.txt	LTP115	ltpFR2	4	6	RECORD	1176	n/a	n/a	0	0	0
1353.004	n/a	WORD	676502	wordpools/wasnorm_wordpool_576.txt	LTP115	ltpFR2	4	6	ASIA	46	n/a	n/a	0	0	0
1355.664	n/a	WORD	677832	wordpools/wasnorm_wordpool_576.txt	LTP115	ltpFR2	4	6	FEMALE	559	n/a	n/a	0	0	0
1358.194	n/a	WORD	679097	wordpools/wasnorm_wordpool_576.txt	LTP115	ltpFR2	4	6	FRUIT	610	n/a	n/a	0	0	0
1360.954	n/a	WORD	680477	wordpools/wasnorm_wordpool_576.txt	LTP115	ltpFR2	4	6	JAPAN	749	n/a	n/a	0	0	0
1363.598	n/a	WORD	681799	wordpools/wasnorm_wordpool_576.txt	LTP115	ltpFR2	4	6	LEADER	807	n/a	n/a	0	0	0
1366.238	n/a	WORD	683119	wordpools/wasnorm_wordpool_576.txt	LTP115	ltpFR2	4	6	HAWK	692	n/a	n/a	0	0	0
1367.848	n/a	START	683924	n/a	LTP115	ltpFR2	4	n/a	n/a	n/a	9	n/a	n/a	n/a	n/a
1368.7	n/a	DISTRACTOR	684350	n/a	LTP115	ltpFR2	4	6	n/a	n/a	n/a	n/a	0	0	0
1368.714	n/a	PROB	684357	n/a	LTP115	ltpFR2	4	n/a	n/a	n/a	9	16	4	8	4
1370.252	n/a	PROB	685126	n/a	LTP115	ltpFR2	4	n/a	n/a	n/a	9	19	9	8	2
1371.842	n/a	PROB	685921	n/a	LTP115	ltpFR2	4	n/a	n/a	n/a	9	17	8	6	3
1373.938	n/a	PROB	686969	n/a	LTP115	ltpFR2	4	n/a	n/a	n/a	9	6	4	2	1
1374.938	n/a	PROB	687469	n/a	LTP115	ltpFR2	4	n/a	n/a	n/a	9	13	9	1	3
1376.562	n/a	PROB	688281	n/a	LTP115	ltpFR2	4	n/a	n/a	n/a	9	15	4	2	7
1377.82	n/a	PROB	688910	n/a	LTP115	ltpFR2	4	n/a	n/a	n/a	9	13	5	2	6
1379.972	n/a	PROB	689986	n/a	LTP115	ltpFR2	4	n/a	n/a	n/a	9	16	7	6	3
1381.73	n/a	PROB	690865	n/a	LTP115	ltpFR2	4	n/a	n/a	n/a	9	19	3	9	7
1383.174	n/a	PROB	691587	n/a	LTP115	ltpFR2	4	n/a	n/a	n/a	9	9	1	2	6
1385.68	n/a	PROB	692840	n/a	LTP115	ltpFR2	4	n/a	n/a	n/a	9	18	6	7	5
1387.954	n/a	PROB	693977	n/a	LTP115	ltpFR2	4	n/a	n/a	n/a	9	13	6	1	6
1389.142	n/a	PROB	694571	n/a	LTP115	ltpFR2	4	n/a	n/a	n/a	9	8	4	1	3
1390.304	n/a	STOP	695152	n/a	LTP115	ltpFR2	4	n/a	n/a	n/a	9	n/a	n/a	n/a	n/a
1393.794	n/a	REC_START	696897	n/a	LTP115	ltpFR2	4	6	n/a	n/a	n/a	n/a	0	0	0
1396.668	n/a	REC_WORD	698334	wordpools/wasnorm_wordpool_576.txt	LTP115	ltpFR2	4	6	HAWK	692	n/a	n/a	0	0	0
1399.508	n/a	REC_WORD_VV	699754	wordpools/wasnorm_wordpool_576.txt	LTP115	ltpFR2	4	6	<>	-1	n/a	n/a	0	0	0
1400.328	n/a	REC_WORD	700164	wordpools/wasnorm_wordpool_576.txt	LTP115	ltpFR2	4	6	COD	340	n/a	n/a	0	0	0
1401.11	n/a	REC_WORD	700555	wordpools/wasnorm_wordpool_576.txt	LTP115	ltpFR2	4	6	SALMON	1227	n/a	n/a	0	0	0
1402.796	n/a	REC_WORD	701398	wordpools/wasnorm_wordpool_576.txt	LTP115	ltpFR2	4	6	COUNTRY	388	n/a	n/a	0	0	0
1404.684	n/a	REC_WORD	702342	wordpools/wasnorm_wordpool_576.txt	LTP115	ltpFR2	4	6	FEMALE	559	n/a	n/a	0	0	0
1406.836	n/a	REC_WORD	703418	wordpools/wasnorm_wordpool_576.txt	LTP115	ltpFR2	4	6	ASIA	46	n/a	n/a	0	0	0
1407.686	n/a	REC_WORD	703843	wordpools/wasnorm_wordpool_576.txt	LTP115	ltpFR2	4	6	EUROPE	541	n/a	n/a	0	0	0
1408.628	n/a	REC_WORD	704314	wordpools/wasnorm_wordpool_576.txt	LTP115	ltpFR2	4	6	FRANCE	601	n/a	n/a	0	0	0
1409.734	n/a	REC_WORD	704867	wordpools/wasnorm_wordpool_576.txt	LTP115	ltpFR2	4	6	JAPAN	749	n/a	n/a	0	0	0
1410.902	n/a	REC_WORD	705451	wordpools/wasnorm_wordpool_576.txt	LTP115	ltpFR2	4	6	LEADER	807	n/a	n/a	0	0	0
1420.838	n/a	REC_WORD	710419	wordpools/wasnorm_wordpool_576.txt	LTP115	ltpFR2	4	6	OYSTER	995	n/a	n/a	0	0	0
1426.982	n/a	REC_WORD	713491	wordpools/wasnorm_wordpool_576.txt	LTP115	ltpFR2	4	6	WAGON	1578	n/a	n/a	0	0	0
1427.888	n/a	REC_WORD	713944	wordpools/wasnorm_wordpool_576.txt	LTP115	ltpFR2	4	6	RECORD	1176	n/a	n/a	0	0	0
1430.218	n/a	REC_WORD	715109	wordpools/wasnorm_wordpool_576.txt	LTP115	ltpFR2	4	6	FRUIT	610	n/a	n/a	0	0	0
1484.828	n/a	WORD	742414	wordpools/wasnorm_wordpool_576.txt	LTP115	ltpFR2	4	7	COLONEL	348	n/a	n/a	0	0	0
1487.422	n/a	WORD	743711	wordpools/wasnorm_wordpool_576.txt	LTP115	ltpFR2	4	7	CLOUD	328	n/a	n/a	0	0	0
1490.132	n/a	WORD	745066	wordpools/wasnorm_wordpool_576.txt	LTP115	ltpFR2	4	7	LONDON	843	n/a	n/a	0	0	0
1492.692	n/a	WORD	746346	wordpools/wasnorm_wordpool_576.txt	LTP115	ltpFR2	4	7	CUPBOARD	425	n/a	n/a	0	0	0
1495.516	n/a	WORD	747758	wordpools/wasnorm_wordpool_576.txt	LTP115	ltpFR2	4	7	PEACH	1031	n/a	n/a	0	0	0
1498.18	n/a	WORD	749090	wordpools/wasnorm_wordpool_576.txt	LTP115	ltpFR2	4	7	ORANGE	980	n/a	n/a	0	0	0
1500.936	n/a	WORD	750468	wordpools/wasnorm_wordpool_576.txt	LTP115	ltpFR2	4	7	ICING	732	n/a	n/a	0	0	0
1503.418	n/a	WORD	751709	wordpools/wasnorm_wordpool_576.txt	LTP115	ltpFR2	4	7	ROCKET	1202	n/a	n/a	0	0	0
1506.076	n/a	WORD	753038	wordpools/wasnorm_wordpool_576.txt	LTP115	ltpFR2	4	7	YARN	1631	n/a	n/a	0	0	0
1508.716	n/a	WORD	754358	wordpools/wasnorm_wordpool_576.txt	LTP115	ltpFR2	4	7	BLENDER	136	n/a	n/a	0	0	0
1511.208	n/a	WORD	755604	wordpools/wasnorm_wordpool_576.txt	LTP115	ltpFR2	4	7	FILM	565	n/a	n/a	0	0	0
1513.856	n/a	WORD	756928	wordpools/wasnorm_wordpool_576.txt	LTP115	ltpFR2	4	7	COFFEE	341	n/a	n/a	0	0	0
1516.5	n/a	WORD	758250	wordpools/wasnorm_wordpool_576.txt	LTP115	ltpFR2	4	7	ACTOR	5	n/a	n/a	0	0	0
1519.176	n/a	WORD	759588	wordpools/wasnorm_wordpool_576.txt	LTP115	ltpFR2	4	7	ACTRESS	6	n/a	n/a	0	0	0
1521.77	n/a	WORD	760885	wordpools/wasnorm_wordpool_576.txt	LTP115	ltpFR2	4	7	FOREST	593	n/a	n/a	0	0	0
1524.246	n/a	WORD	762123	wordpools/wasnorm_wordpool_576.txt	LTP115	ltpFR2	4	7	SCARECROW	1245	n/a	n/a	0	0	0
1526.888	n/a	WORD	763444	wordpools/wasnorm_wordpool_576.txt	LTP115	ltpFR2	4	7	BEAVER	109	n/a	n/a	0	0	0
1529.566	n/a	WORD	764783	wordpools/wasnorm_wordpool_576.txt	LTP115	ltpFR2	4	7	PACKAGE	997	n/a	n/a	0	0	0
1532.272	n/a	WORD	766136	wordpools/wasnorm_wordpool_576.txt	LTP115	ltpFR2	4	7	SUPPER	1411	n/a	n/a	0	0	0
1534.954	n/a	WORD	767477	wordpools/wasnorm_wordpool_576.txt	LTP115	ltpFR2	4	7	DINER	467	n/a	n/a	0	0	0
1537.526	n/a	WORD	768763	wordpools/wasnorm_wordpool_576.txt	LTP115	ltpFR2	4	7	POPCORN	1104	n/a	n/a	0	0	0
1540.14	n/a	WORD	770070	wordpools/wasnorm_wordpool_576.txt	LTP115	ltpFR2	4	7	HUSBAND	728	n/a	n/a	0	0	0
1542.9	n/a	WORD	771450	wordpools/wasnorm_wordpool_576.txt	LTP115	ltpFR2	4	7	MAMMAL	861	n/a	n/a	0	0	0
1545.712	n/a	WORD	772856	wordpools/wasnorm_wordpool_576.txt	LTP115	ltpFR2	4	7	CHIPMUNK	304	n/a	n/a	0	0	0
1547.318	n/a	START	773659	n/a	LTP115	ltpFR2	4	n/a	n/a	n/a	10	n/a	n/a	n/a	n/a
1548.458	n/a	DISTRACTOR	774229	n/a	LTP115	ltpFR2	4	7	n/a	n/a	n/a	n/a	0	0	0
1548.472	n/a	PROB	774236	n/a	LTP115	ltpFR2	4	n/a	n/a	n/a	10	14	8	4	2
1549.922	n/a	PROB	774961	n/a	LTP115	ltpFR2	4	n/a	n/a	n/a	10	18	5	7	6
1551.918	n/a	PROB	775959	n/a	LTP115	ltpFR2	4	n/a	n/a	n/a	10	11	5	1	5
1553.018	n/a	PROB	776509	n/a	LTP115	ltpFR2	4	n/a	n/a	n/a	10	23	9	9	5
1554.842	n/a	PROB	777421	n/a	LTP115	ltpFR2	4	n/a	n/a	n/a	10	23	9	9	5
1556.198	n/a	PROB	778099	n/a	LTP115	ltpFR2	4	n/a	n/a	n/a	10	19	8	4	6
1557.854	n/a	PROB	778927	n/a	LTP115	ltpFR2	4	n/a	n/a	n/a	10	9	5	1	3
1559.262	n/a	PROB	779631	n/a	LTP115	ltpFR2	4	n/a	n/a	n/a	10	19	8	4	7
1560.948	n/a	PROB	780474	n/a	LTP115	ltpFR2	4	n/a	n/a	n/a	10	23	6	8	9
1563.66	n/a	PROB	781830	n/a	LTP115	ltpFR2	4	n/a	n/a	n/a	10	8	4	1	3
1565.048	n/a	PROB	782524	n/a	LTP115	ltpFR2	4	n/a	n/a	n/a	10	18	9	1	8
1566.608	n/a	PROB	783304	n/a	LTP115	ltpFR2	4	n/a	n/a	n/a	10	15	7	1	7
1567.84	n/a	PROB	783920	n/a	LTP115	ltpFR2	4	n/a	n/a	n/a	10	13	6	1	2
1568.98	n/a	PROB	784490	n/a	LTP115	ltpFR2	4	n/a	n/a	n/a	10	17	2	8	7
1570.524	n/a	STOP	785262	n/a	LTP115	ltpFR2	4	n/a	n/a	n/a	10	n/a	n/a	n/a	n/a
1573.212	n/a	REC_START	786606	n/a	LTP115	ltpFR2	4	7	n/a	n/a	n/a	n/a	0	0	0
1573.694	n/a	REC_WORD	786847	wordpools/wasnorm_wordpool_576.txt	LTP115	ltpFR2	4	7	BEAVER	109	n/a	n/a	0	0	0
1574.342	n/a	REC_WORD	787171	wordpools/wasnorm_wordpool_576.txt	LTP115	ltpFR2	4	7	MAMMAL	861	n/a	n/a	0	0	0
1575.002	n/a	REC_WORD	787501	wordpools/wasnorm_wordpool_576.txt	LTP115	ltpFR2	4	7	CHIPMUNK	304	n/a	n/a	0	0	0
1575.534	n/a	REC_WORD	787767	wordpools/wasnorm_wordpool_576.txt	LTP115	ltpFR2	4	7	FOREST	593	n/a	n/a	0	0	0
1577.77	n/a	REC_WORD	788885	wordpools/wasnorm_wordpool_576.txt	LTP115	ltpFR2	4	7	LONDON	843	n/a	n/a	0	0	0
1578.544	n/a	REC_WORD	789272	wordpools/wasnorm_wordpool_576.txt	LTP115	ltpFR2	4	7	CLOUD	328	n/a	n/a	0	0	0
1579.834	n/a	REC_WORD	789917	wordpools/wasnorm_wordpool_576.txt	LTP115	ltpFR2	4	7	COLONEL	348	n/a	n/a	0	0	0
1580.938	n/a	REC_WORD	790469	wordpools/wasnorm_wordpool_576.txt	LTP115	ltpFR2	4	7	CUPBOARD	425	n/a	n/a	0	0	0
1581.998	n/a	REC_WORD	790999	wordpools/wasnorm_wordpool_576.txt	LTP115	ltpFR2	4	7	PEACH	1031	n/a	n/a	0	0	0
1582.898	n/a	REC_WORD	791449	wordpools/wasnorm_wordpool_576.txt	LTP115	ltpFR2	4	7	ORANGE	980	n/a	n/a	0	0	0
1583.928	n/a	REC_WORD	791964	wordpools/wasnorm_wordpool_576.txt	LTP115	ltpFR2	4	7	HUSBAND	728	n/a	n/a	0	0	0
1585.176	n/a	REC_WORD	792588	wordpools/wasnorm_wordpool_576.txt	LTP115	ltpFR2	4	7	DINER	467	n/a	n/a	0	0	0
1586.17	n/a	REC_WORD	793085	wordpools/wasnorm_wordpool_576.txt	LTP115	ltpFR2	4	7	SUPPER	1411	n/a	n/a	0	0	0
1587.394	n/a	REC_WORD	793697	wordpools/wasnorm_wordpool_576.txt	LTP115	ltpFR2	4	7	BLENDER	136	n/a	n/a	0	0	0
1589.11	n/a	REC_WORD	794555	wordpools/wasnorm_wordpool_576.txt	LTP115	ltpFR2	4	7	ICING	732	n/a	n/a	0	0	0
1594.482	n/a	REC_WORD	797241	wordpools/wasnorm_wordpool_576.txt	LTP115	ltpFR2	4	7	ROCKET	1202	n/a	n/a	0	0	0
1603.174	n/a	REC_WORD	801587	wordpools/wasnorm_wordpool_576.txt	LTP115	ltpFR2	4	7	ACTOR	5	n/a	n/a	0	0	0
1604.09	n/a	REC_WORD	802045	wordpools/wasnorm_wordpool_576.txt	LTP115	ltpFR2	4	7	ACTRESS	6	n/a	n/a	0	0	0
1604.896	n/a	REC_WORD	802448	wordpools/wasnorm_wordpool_576.txt	LTP115	ltpFR2	4	7	FILM	565	n/a	n/a	0	0	0
1605.882	n/a	REC_WORD	802941	wordpools/wasnorm_wordpool_576.txt	LTP115	ltpFR2	4	7	YARN	1631	n/a	n/a	0	0	0
1664.248	n/a	DISTRACTOR	832124	n/a	LTP115	ltpFR2	4	8	n/a	n/a	n/a	n/a	0	0	0
1664.248	n/a	START	832124	n/a	LTP115	ltpFR2	4	n/a	n/a	n/a	11	n/a	n/a	n/a	n/a
1664.298	n/a	PROB	832149	n/a	LTP115	ltpFR2	4	n/a	n/a	n/a	11	12	2	4	6
1665.666	n/a	PROB	832833	n/a	LTP115	ltpFR2	4	n/a	n/a	n/a	11	19	8	9	2
1667.628	n/a	PROB	833814	n/a	LTP115	ltpFR2	4	n/a	n/a	n/a	11	23	8	8	7
1669.632	n/a	PROB	834816	n/a	LTP115	ltpFR2	4	n/a	n/a	n/a	11	16	5	7	4
1671.292	n/a	PROB	835646	n/a	LTP115	ltpFR2	4	n/a	n/a	n/a	11	19	9	6	4
1673.412	n/a	PROB	836706	n/a	LTP115	ltpFR2	4	n/a	n/a	n/a	11	15	2	4	9
1674.734	n/a	PROB	837367	n/a	LTP115	ltpFR2	4	n/a	n/a	n/a	11	13	2	2	9
1676.288	n/a	PROB	838144	n/a	LTP115	ltpFR2	4	n/a	n/a	n/a	11	20	6	5	9
1678.548	n/a	PROB	839274	n/a	LTP115	ltpFR2	4	n/a	n/a	n/a	11	16	1	6	9
1680.224	n/a	PROB	840112	n/a	LTP115	ltpFR2	4	n/a	n/a	n/a	11	19	9	8	2
1681.75	n/a	PROB	840875	n/a	LTP115	ltpFR2	4	n/a	n/a	n/a	11	17	8	7	2
1684.906	n/a	PROB	842453	n/a	LTP115	ltpFR2	4	n/a	n/a	n/a	11	21	6	8	7
1686.696	n/a	PROB	843348	n/a	LTP115	ltpFR2	4	n/a	n/a	n/a	11	11	4	6	1
1687.626	n/a	STOP	843813	n/a	LTP115	ltpFR2	4	n/a	n/a	n/a	11	n/a	n/a	n/a	n/a
1689.26	n/a	WORD	844630	wordpools/wasnorm_wordpool_576.txt	LTP115	ltpFR2	4	8	LAMP	798	n/a	n/a	0	0	0
1691.904	n/a	WORD	845952	wordpools/wasnorm_wordpool_576.txt	LTP115	ltpFR2	4	8	MATCH	878	n/a	n/a	0	0	0
1694.43	n/a	WORD	847215	wordpools/wasnorm_wordpool_576.txt	LTP115	ltpFR2	4	8	COUNTY	389	n/a	n/a	0	0	0
1697.168	n/a	WORD	848584	wordpools/wasnorm_wordpool_576.txt	LTP115	ltpFR2	4	8	MAPLE	866	n/a	n/a	0	0	0
1699.684	n/a	WORD	849842	wordpools/wasnorm_wordpool_576.txt	LTP115	ltpFR2	4	8	LION	827	n/a	n/a	0	0	0
1702.188	n/a	WORD	851094	wordpools/wasnorm_wordpool_576.txt	LTP115	ltpFR2	4	8	PAIL	1002	n/a	n/a	0	0	0
1704.754	n/a	WORD	852377	wordpools/wasnorm_wordpool_576.txt	LTP115	ltpFR2	4	8	RIFLE	1192	n/a	n/a	0	0	0
1707.262	n/a	WORD	853631	wordpools/wasnorm_wordpool_576.txt	LTP115	ltpFR2	4	8	SNAIL	1332	n/a	n/a	0	0	0
1709.772	n/a	WORD	854886	wordpools/wasnorm_wordpool_576.txt	LTP115	ltpFR2	4	8	HOUND	724	n/a	n/a	0	0	0
1712.314	n/a	WORD	856157	wordpools/wasnorm_wordpool_576.txt	LTP115	ltpFR2	4	8	PUPPY	1144	n/a	n/a	0	0	0
1715.126	n/a	WORD	857563	wordpools/wasnorm_wordpool_576.txt	LTP115	ltpFR2	4	8	GLOVE	642	n/a	n/a	0	0	0
1717.82	n/a	WORD	858910	wordpools/wasnorm_wordpool_576.txt	LTP115	ltpFR2	4	8	LAGOON	795	n/a	n/a	0	0	0
1720.58	n/a	WORD	860290	wordpools/wasnorm_wordpool_576.txt	LTP115	ltpFR2	4	8	ROBIN	1199	n/a	n/a	0	0	0
1723.056	n/a	WORD	861528	wordpools/wasnorm_wordpool_576.txt	LTP115	ltpFR2	4	8	WRENCH	1625	n/a	n/a	0	0	0
1725.646	n/a	WORD	862823	wordpools/wasnorm_wordpool_576.txt	LTP115	ltpFR2	4	8	BIKE	125	n/a	n/a	0	0	0
1728.258	n/a	WORD	864129	wordpools/wasnorm_wordpool_576.txt	LTP115	ltpFR2	4	8	BLUEPRINT	142	n/a	n/a	0	0	0
1731.066	n/a	WORD	865533	wordpools/wasnorm_wordpool_576.txt	LTP115	ltpFR2	4	8	TERMITE	1451	n/a	n/a	0	0	0
1733.592	n/a	WORD	866796	wordpools/wasnorm_wordpool_576.txt	LTP115	ltpFR2	4	8	LOFT	840	n/a	n/a	0	0	0
1736.222	n/a	WORD	868111	wordpools/wasnorm_wordpool_576.txt	LTP115	ltpFR2	4	8	BEAKER	104	n/a	n/a	0	0	0
1738.816	n/a	WORD	869408	wordpools/wasnorm_wordpool_576.txt	LTP115	ltpFR2	4	8	GROUND	666	n/a	n/a	0	0	0
1741.528	n/a	WORD	870764	wordpools/wasnorm_wordpool_576.txt	LTP115	ltpFR2	4	8	PANTHER	1009	n/a	n/a	0	0	0
1744.236	n/a	WORD	872118	wordpools/wasnorm_wordpool_576.txt	LTP115	ltpFR2	4	8	MARKER	870	n/a	n/a	0	0	0
1746.98	n/a	WORD	873490	wordpools/wasnorm_wordpool_576.txt	LTP115	ltpFR2	4	8	SWAMP	1416	n/a	n/a	0	0	0
1749.436	n/a	WORD	874718	wordpools/wasnorm_wordpool_576.txt	LTP115	ltpFR2	4	8	SLOPE	1328	n/a	n/a	0	0	0
1751.046	n/a	START	875523	n/a	LTP115	ltpFR2	4	n/a	n/a	n/a	12	n/a	n/a	n/a	n/a
1751.89	n/a	DISTRACTOR	875945	n/a	LTP115	ltpFR2	4	8	n/a	n/a	n/a	n/a	0	0	0
1751.898	n/a	PROB	875949	n/a	LTP115	ltpFR2	4	n/a	n/a	n/a	12	21	7	5	9
1754.522	n/a	PROB	877261	n/a	LTP115	ltpFR2	4	n/a	n/a	n/a	12	11	7	3	1
1756.418	n/a	PROB	878209	n/a	LTP115	ltpFR2	4	n/a	n/a	n/a	12	5	1	3	1
1757.618	n/a	PROB	878809	n/a	LTP115	ltpFR2	4	n/a	n/a	n/a	12	13	8	3	2
1759.144	n/a	PROB	879572	n/a	LTP115	ltpFR2	4	n/a	n/a	n/a	12	18	9	8	1
1760.668	n/a	PROB	880334	n/a	LTP115	ltpFR2	4	n/a	n/a	n/a	12	12	9	1	2
1761.854	n/a	PROB	880927	n/a	LTP115	ltpFR2	4	n/a	n/a	n/a	12	20	2	9	9
1764.594	n/a	PROB	882297	n/a	LTP115	ltpFR2	4	n/a	n/a	n/a	12	10	2	5	3
1766.384	n/a	PROB	883192	n/a	LTP115	ltpFR2	4	n/a	n/a	n/a	12	7	5	1	1
1767.872	n/a	PROB	883936	n/a	LTP115	ltpFR2	4	n/a	n/a	n/a	12	16	8	4	4
1770.098	n/a	PROB	885049	n/a	LTP115	ltpFR2	4	n/a	n/a	n/a	12	16	2	9	5
1771.87	n/a	PROB	885935	n/a	LTP115	ltpFR2	4	n/a	n/a	n/a	12	10	4	4	2
1773.026	n/a	PROB	886513	n/a	LTP115	ltpFR2	4	n/a	n/a	n/a	12	20	8	8	4
1774.278	n/a	STOP	887139	n/a	LTP115	ltpFR2	4	n/a	n/a	n/a	12	n/a	n/a	n/a	n/a
1776.858	n/a	REC_START	888429	n/a	LTP115	ltpFR2	4	8	n/a	n/a	n/a	n/a	0	0	0
1778.146	n/a	REC_WORD	889073	wordpools/wasnorm_wordpool_576.txt	LTP115	ltpFR2	4	8	LION	827	n/a	n/a	0	0	0
1778.928	n/a	REC_WORD	889464	wordpools/wasnorm_wordpool_576.txt	LTP115	ltpFR2	4	8	PANTHER	1009	n/a	n/a	0	0	0
1779.768	n/a	REC_WORD	889884	wordpools/wasnorm_wordpool_576.txt	LTP115	ltpFR2	4	8	GROUND	666	n/a	n/a	0	0	0
1780.51	n/a	REC_WORD	890255	wordpools/wasnorm_wordpool_576.txt	LTP115	ltpFR2	4	8	MAPLE	866	n/a	n/a	0	0	0
1781.232	n/a	REC_WORD	890616	wordpools/wasnorm_wordpool_576.txt	LTP115	ltpFR2	4	8	SLOPE	1328	n/a	n/a	0	0	0
1782.282	n/a	REC_WORD	891141	wordpools/wasnorm_wordpool_576.txt	LTP115	ltpFR2	4	8	PAIL	1002	n/a	n/a	0	0	0
1783.336	n/a	REC_WORD	891668	wordpools/wasnorm_wordpool_576.txt	LTP115	ltpFR2	4	8	SNAIL	1332	n/a	n/a	0	0	0
1786.712	n/a	REC_WORD	893356	wordpools/wasnorm_wordpool_576.txt	LTP115	ltpFR2	4	8	RIFLE	1192	n/a	n/a	0	0	0
1787.786	n/a	REC_WORD	893893	wordpools/wasnorm_wordpool_576.txt	LTP115	ltpFR2	4	8	GLOVE	642	n/a	n/a	0	0	0
1794.04	n/a	REC_WORD	897020	wordpools/wasnorm_wordpool_576.txt	LTP115	ltpFR2	4	8	LAMP	798	n/a	n/a	0	0	0
1794.762	n/a	REC_WORD	897381	wordpools/wasnorm_wordpool_576.txt	LTP115	ltpFR2	4	8	MATCH	878	n/a	n/a	0	0	0
1806.786	n/a	REC_WORD	903393	wordpools/wasnorm_wordpool_576.txt	LTP115	ltpFR2	4	8	BLUEPRINT	142	n/a	n/a	0	0	0
1811.434	n/a	REC_WORD	905717	wordpools/wasnorm_wordpool_576.txt	LTP115	ltpFR2	4	8	TERMITE	1451	n/a	n/a	0	0	0
1812.24	n/a	REC_WORD	906120	wordpools/wasnorm_wordpool_576.txt	LTP115	ltpFR2	4	8	LOFT	840	n/a	n/a	0	0	0
1813.53	n/a	REC_WORD	906765	wordpools/wasnorm_wordpool_576.txt	LTP115	ltpFR2	4	8	BEAKER	104	n/a	n/a	0	0	0
1853.672	n/a	REST_REWET	926836	n/a	LTP115	ltpFR2	4	8	n/a	n/a	n/a	n/a	0	0	0
2245.954	n/a	WORD	1122977	wordpools/wasnorm_wordpool_576.txt	LTP115	ltpFR2	4	9	CRATER	400	n/a	n/a	0	0	0
2248.598	n/a	WORD	1124299	wordpools/wasnorm_wordpool_576.txt	LTP115	ltpFR2	4	9	PRIMATE	1123	n/a	n/a	0	0	0
2251.324	n/a	WORD	1125662	wordpools/wasnorm_wordpool_576.txt	LTP115	ltpFR2	4	9	DIME	466	n/a	n/a	0	0	0
2253.846	n/a	WORD	1126923	wordpools/wasnorm_wordpool_576.txt	LTP115	ltpFR2	4	9	DOUGHNUT	490	n/a	n/a	0	0	0
2256.578	n/a	WORD	1128289	wordpools/wasnorm_wordpool_576.txt	LTP115	ltpFR2	4	9	COWBOY	395	n/a	n/a	0	0	0
2259.088	n/a	WORD	1129544	wordpools/wasnorm_wordpool_576.txt	LTP115	ltpFR2	4	9	SLIME	1327	n/a	n/a	0	0	0
2261.882	n/a	WORD	1130941	wordpools/wasnorm_wordpool_576.txt	LTP115	ltpFR2	4	9	PORK	1108	n/a	n/a	0	0	0
2264.678	n/a	WORD	1132339	wordpools/wasnorm_wordpool_576.txt	LTP115	ltpFR2	4	9	ISLAND	745	n/a	n/a	0	0	0
2267.404	n/a	WORD	1133702	wordpools/wasnorm_wordpool_576.txt	LTP115	ltpFR2	4	9	SPOOL	1356	n/a	n/a	0	0	0
2269.842	n/a	WORD	1134921	wordpools/wasnorm_wordpool_576.txt	LTP115	ltpFR2	4	9	SKIRT	1319	n/a	n/a	0	0	0
2272.318	n/a	WORD	1136159	wordpools/wasnorm_wordpool_576.txt	LTP115	ltpFR2	4	9	CAMEL	223	n/a	n/a	0	0	0
2275.048	n/a	WORD	1137524	wordpools/wasnorm_wordpool_576.txt	LTP115	ltpFR2	4	9	CRITIC	410	n/a	n/a	0	0	0
2277.476	n/a	WORD	1138738	wordpools/wasnorm_wordpool_576.txt	LTP115	ltpFR2	4	9	CROSS	413	n/a	n/a	0	0	0
2279.918	n/a	WORD	1139959	wordpools/wasnorm_wordpool_576.txt	LTP115	ltpFR2	4	9	CHEMIST	292	n/a	n/a	0	0	0
2282.596	n/a	WORD	1141298	wordpools/wasnorm_wordpool_576.txt	LTP115	ltpFR2	4	9	PALACE	1006	n/a	n/a	0	0	0
2285.304	n/a	WORD	1142652	wordpools/wasnorm_wordpool_576.txt	LTP115	ltpFR2	4	9	TROMBONE	1508	n/a	n/a	0	0	0
2287.816	n/a	WORD	1143908	wordpools/wasnorm_wordpool_576.txt	LTP115	ltpFR2	4	9	PLUTO	1092	n/a	n/a	0	0	0
2290.374	n/a	WORD	1145187	wordpools/wasnorm_wordpool_576.txt	LTP115	ltpFR2	4	9	CONVICT	371	n/a	n/a	0	0	0
2293.018	n/a	WORD	1146509	wordpools/wasnorm_wordpool_576.txt	LTP115	ltpFR2	4	9	VICTIM	1562	n/a	n/a	0	0	0
2295.662	n/a	WORD	1147831	wordpools/wasnorm_wordpool_576.txt	LTP115	ltpFR2	4	9	ANKLE	24	n/a	n/a	0	0	0
2298.388	n/a	WORD	1149194	wordpools/wasnorm_wordpool_576.txt	LTP115	ltpFR2	4	9	OUTDOORS	987	n/a	n/a	0	0	0
2300.964	n/a	WORD	1150482	wordpools/wasnorm_wordpool_576.txt	LTP115	ltpFR2	4	9	OMELET	976	n/a	n/a	0	0	0
2303.692	n/a	WORD	1151846	wordpools/wasnorm_wordpool_576.txt	LTP115	ltpFR2	4	9	BACON	67	n/a	n/a	0	0	0
2306.252	n/a	WORD	1153126	wordpools/wasnorm_wordpool_576.txt	LTP115	ltpFR2	4	9	MILDEW	893	n/a	n/a	0	0	0
2307.858	n/a	START	1153929	n/a	LTP115	ltpFR2	4	n/a	n/a	n/a	13	n/a	n/a	n/a	n/a
2309.022	n/a	DISTRACTOR	1154511	n/a	LTP115	ltpFR2	4	9	n/a	n/a	n/a	n/a	0	0	0
2309.028	n/a	PROB	1154514	n/a	LTP115	ltpFR2	4	n/a	n/a	n/a	13	15	2	7	6
2313.646	n/a	PROB	1156823	n/a	LTP115	ltpFR2	4	n/a	n/a	n/a	13	8	2	5	1
2316.402	n/a	PROB	1158201	n/a	LTP115	ltpFR2	4	n/a	n/a	n/a	13	17	7	9	1
2318.176	n/a	PROB	1159088	n/a	LTP115	ltpFR2	4	n/a	n/a	n/a	13	11	3	7	1
2319.364	n/a	PROB	1159682	n/a	LTP115	ltpFR2	4	n/a	n/a	n/a	13	15	3	7	3
2321.724	n/a	PROB	1160862	n/a	LTP115	ltpFR2	4	n/a	n/a	n/a	13	11	2	3	6
2323.518	n/a	PROB	1161759	n/a	LTP115	ltpFR2	4	n/a	n/a	n/a	13	15	7	5	3
2324.974	n/a	PROB	1162487	n/a	LTP115	ltpFR2	4	n/a	n/a	n/a	13	25	8	8	9
2328.834	n/a	PROB	1164417	n/a	LTP115	ltpFR2	4	n/a	n/a	n/a	13	20	7	5	8
2330.508	n/a	STOP	1165254	n/a	LTP115	ltpFR2	4	n/a	n/a	n/a	13	n/a	n/a	n/a	n/a
2333.692	n/a	REC_START	1166846	n/a	LTP115	ltpFR2	4	9	n/a	n/a	n/a	n/a	0	0	0
2335.188	n/a	REC_WORD	1167594	wordpools/wasnorm_wordpool_576.txt	LTP115	ltpFR2	4	9	CONVICT	371	n/a	n/a	0	0	0
2335.81	n/a	REC_WORD	1167905	wordpools/wasnorm_wordpool_576.txt	LTP115	ltpFR2	4	9	VICTIM	1562	n/a	n/a	0	0	0
2336.57	n/a	REC_WORD	1168285	wordpools/wasnorm_wordpool_576.txt	LTP115	ltpFR2	4	9	CROSS	413	n/a	n/a	0	0	0
2337.364	n/a	REC_WORD	1168682	wordpools/wasnorm_wordpool_576.txt	LTP115	ltpFR2	4	9	ANKLE	24	n/a	n/a	0	0	0
2338.006	n/a	REC_WORD	1169003	wordpools/wasnorm_wordpool_576.txt	LTP115	ltpFR2	4	9	PALACE	1006	n/a	n/a	0	0	0
2339.232	n/a	REC_WORD	1169616	wordpools/wasnorm_wordpool_576.txt	LTP115	ltpFR2	4	9	ISLAND	745	n/a	n/a	0	0	0
2339.95	n/a	REC_WORD	1169975	wordpools/wasnorm_wordpool_576.txt	LTP115	ltpFR2	4	9	CHEMIST	292	n/a	n/a	0	0	0
2344.57	n/a	REC_WORD_VV	1172285	wordpools/wasnorm_wordpool_576.txt	LTP115	ltpFR2	4	9	<>	-1	n/a	n/a	0	0	0
2346.948	n/a	REC_WORD	1173474	wordpools/wasnorm_wordpool_576.txt	LTP115	ltpFR2	4	9	ISLAND	745	n/a	n/a	0	0	0
2347.948	n/a	REC_WORD_VV	1173974	wordpools/wasnorm_wordpool_576.txt	LTP115	ltpFR2	4	9	<>	-1	n/a	n/a	0	0	0
2353.446	n/a	REC_WORD	1176723	wordpools/wasnorm_wordpool_576.txt	LTP115	ltpFR2	4	9	CRATER	400	n/a	n/a	0	0	0
2355.098	n/a	REC_WORD	1177549	wordpools/wasnorm_wordpool_576.txt	LTP115	ltpFR2	4	9	PRIMATE	1123	n/a	n/a	0	0	0
2356.182	n/a	REC_WORD	1178091	wordpools/wasnorm_wordpool_576.txt	LTP115	ltpFR2	4	9	COWBOY	395	n/a	n/a	0	0	0
2357.084	n/a	REC_WORD	1178542	wordpools/wasnorm_wordpool_576.txt	LTP115	ltpFR2	4	9	SLIME	1327	n/a	n/a	0	0	0
2358.042	n/a	REC_WORD	1179021	wordpools/wasnorm_wordpool_576.txt	LTP115	ltpFR2	4	9	PIG	1064	n/a	n/a	0	0	0
2361.218	n/a	REC_WORD	1180609	wordpools/wasnorm_wordpool_576.txt	LTP115	ltpFR2	4	9	SPOOL	1356	n/a	n/a	0	0	0
2368.45	n/a	REC_WORD	1184225	wordpools/wasnorm_wordpool_576.txt	LTP115	ltpFR2	4	9	DIME	466	n/a	n/a	0	0	0
2369.222	n/a	REC_WORD	1184611	wordpools/wasnorm_wordpool_576.txt	LTP115	ltpFR2	4	9	DOUGHNUT	490	n/a	n/a	0	0	0
2372.122	n/a	REC_WORD	1186061	wordpools/wasnorm_wordpool_576.txt	LTP115	ltpFR2	4	9	PLUTO	1092	n/a	n/a	0	0	0
2424.738	n/a	DISTRACTOR	1212369	n/a	LTP115	ltpFR2	4	10	n/a	n/a	n/a	n/a	0	0	0
2424.738	n/a	START	1212369	n/a	LTP115	ltpFR2	4	n/a	n/a	n/a	14	n/a	n/a	n/a	n/a
2424.788	n/a	PROB	1212394	n/a	LTP115	ltpFR2	4	n/a	n/a	n/a	14	11	2	4	5
2426.78	n/a	PROB	1213390	n/a	LTP115	ltpFR2	4	n/a	n/a	n/a	14	15	7	3	5
2427.88	n/a	PROB	1213940	n/a	LTP115	ltpFR2	4	n/a	n/a	n/a	14	14	7	2	5
2430.038	n/a	PROB	1215019	n/a	LTP115	ltpFR2	4	n/a	n/a	n/a	14	17	6	5	6
2431.994	n/a	PROB	1215997	n/a	LTP115	ltpFR2	4	n/a	n/a	n/a	14	7	2	1	4
2433.166	n/a	PROB	1216583	n/a	LTP115	ltpFR2	4	n/a	n/a	n/a	14	15	2	7	6
2434.588	n/a	PROB	1217294	n/a	LTP115	ltpFR2	4	n/a	n/a	n/a	14	19	5	8	6
2435.914	n/a	PROB	1217957	n/a	LTP115	ltpFR2	4	n/a	n/a	n/a	14	10	3	3	4
2437.13	n/a	PROB	1218565	n/a	LTP115	ltpFR2	4	n/a	n/a	n/a	14	18	8	3	7
2438.574	n/a	PROB	1219287	n/a	LTP115	ltpFR2	4	n/a	n/a	n/a	14	13	1	6	6
2440.894	n/a	PROB	1220447	n/a	LTP115	ltpFR2	4	n/a	n/a	n/a	14	19	8	7	4
2442.4	n/a	PROB	1221200	n/a	LTP115	ltpFR2	4	n/a	n/a	n/a	14	14	8	1	3
2444.258	n/a	PROB	1222129	n/a	LTP115	ltpFR2	4	n/a	n/a	n/a	14	18	9	4	5
2447.938	n/a	STOP	1223969	n/a	LTP115	ltpFR2	4	n/a	n/a	n/a	14	n/a	n/a	n/a	n/a
2449.9	n/a	WORD	1224950	wordpools/wasnorm_wordpool_576.txt	LTP115	ltpFR2	4	10	PRINCESS	1125	n/a	n/a	0	0	0
2452.692	n/a	WORD	1226346	wordpools/wasnorm_wordpool_576.txt	LTP115	ltpFR2	4	10	HEDGE	699	n/a	n/a	0	0	0
2455.132	n/a	WORD	1227566	wordpools/wasnorm_wordpool_576.txt	LTP115	ltpFR2	4	10	BUBBLE	183	n/a	n/a	0	0	0
2457.698	n/a	WORD	1228849	wordpools/wasnorm_wordpool_576.txt	LTP115	ltpFR2	4	10	CRAYON	401	n/a	n/a	0	0	0
2460.19	n/a	WORD	1230095	wordpools/wasnorm_wordpool_576.txt	LTP115	ltpFR2	4	10	PIGMENT	1066	n/a	n/a	0	0	0
2462.716	n/a	WORD	1231358	wordpools/wasnorm_wordpool_576.txt	LTP115	ltpFR2	4	10	GLASS	639	n/a	n/a	0	0	0
2465.458	n/a	WORD	1232729	wordpools/wasnorm_wordpool_576.txt	LTP115	ltpFR2	4	10	SUNRISE	1407	n/a	n/a	0	0	0
2467.986	n/a	WORD	1233993	wordpools/wasnorm_wordpool_576.txt	LTP115	ltpFR2	4	10	KEEPER	769	n/a	n/a	0	0	0
2470.698	n/a	WORD	1235349	wordpools/wasnorm_wordpool_576.txt	LTP115	ltpFR2	4	10	BRICK	172	n/a	n/a	0	0	0
2473.39	n/a	WORD	1236695	wordpools/wasnorm_wordpool_576.txt	LTP115	ltpFR2	4	10	RUG	1215	n/a	n/a	0	0	0
2475.866	n/a	WORD	1237933	wordpools/wasnorm_wordpool_576.txt	LTP115	ltpFR2	4	10	DOLPHIN	483	n/a	n/a	0	0	0
2478.326	n/a	WORD	1239163	wordpools/wasnorm_wordpool_576.txt	LTP115	ltpFR2	4	10	STUDENT	1395	n/a	n/a	0	0	0
2481.116	n/a	WORD	1240558	wordpools/wasnorm_wordpool_576.txt	LTP115	ltpFR2	4	10	MARS	873	n/a	n/a	0	0	0
2483.592	n/a	WORD	1241796	wordpools/wasnorm_wordpool_576.txt	LTP115	ltpFR2	4	10	BUGGY	188	n/a	n/a	0	0	0
2486.374	n/a	WORD	1243187	wordpools/wasnorm_wordpool_576.txt	LTP115	ltpFR2	4	10	BACKBONE	66	n/a	n/a	0	0	0
2488.95	n/a	WORD	1244475	wordpools/wasnorm_wordpool_576.txt	LTP115	ltpFR2	4	10	TUBA	1515	n/a	n/a	0	0	0
2491.522	n/a	WORD	1245761	wordpools/wasnorm_wordpool_576.txt	LTP115	ltpFR2	4	10	SHRUB	1299	n/a	n/a	0	0	0
2493.986	n/a	WORD	1246993	wordpools/wasnorm_wordpool_576.txt	LTP115	ltpFR2	4	10	DANCER	437	n/a	n/a	0	0	0
2496.63	n/a	WORD	1248315	wordpools/wasnorm_wordpool_576.txt	LTP115	ltpFR2	4	10	GYMNAST	675	n/a	n/a	0	0	0
2499.368	n/a	WORD	1249684	wordpools/wasnorm_wordpool_576.txt	LTP115	ltpFR2	4	10	MEDAL	885	n/a	n/a	0	0	0
2502.18	n/a	WORD	1251090	wordpools/wasnorm_wordpool_576.txt	LTP115	ltpFR2	4	10	CHAUFFEUR	283	n/a	n/a	0	0	0
2504.824	n/a	WORD	1252412	wordpools/wasnorm_wordpool_576.txt	LTP115	ltpFR2	4	10	TRACTOR	1493	n/a	n/a	0	0	0
2507.382	n/a	WORD	1253691	wordpools/wasnorm_wordpool_576.txt	LTP115	ltpFR2	4	10	BOUQUET	157	n/a	n/a	0	0	0
2509.864	n/a	WORD	1254932	wordpools/wasnorm_wordpool_576.txt	LTP115	ltpFR2	4	10	WORKER	1621	n/a	n/a	0	0	0
2511.47	n/a	START	1255735	n/a	LTP115	ltpFR2	4	n/a	n/a	n/a	15	n/a	n/a	n/a	n/a
2512.502	n/a	DISTRACTOR	1256251	n/a	LTP115	ltpFR2	4	10	n/a	n/a	n/a	n/a	0	0	0
2512.52	n/a	PROB	1256260	n/a	LTP115	ltpFR2	4	n/a	n/a	n/a	15	10	2	7	1
2513.762	n/a	PROB	1256881	n/a	LTP115	ltpFR2	4	n/a	n/a	n/a	15	9	6	1	2
2515.62	n/a	PROB	1257810	n/a	LTP115	ltpFR2	4	n/a	n/a	n/a	15	11	1	2	8
2516.952	n/a	PROB	1258476	n/a	LTP115	ltpFR2	4	n/a	n/a	n/a	15	19	6	9	4
2518.442	n/a	PROB	1259221	n/a	LTP115	ltpFR2	4	n/a	n/a	n/a	15	10	3	1	6
2519.714	n/a	PROB	1259857	n/a	LTP115	ltpFR2	4	n/a	n/a	n/a	15	10	5	2	3
2521.056	n/a	PROB	1260528	n/a	LTP115	ltpFR2	4	n/a	n/a	n/a	15	21	9	6	6
2522.96	n/a	PROB	1261480	n/a	LTP115	ltpFR2	4	n/a	n/a	n/a	15	15	7	6	2
2524.55	n/a	PROB	1262275	n/a	LTP115	ltpFR2	4	n/a	n/a	n/a	15	8	1	5	2
2526.724	n/a	PROB	1263362	n/a	LTP115	ltpFR2	4	n/a	n/a	n/a	15	18	5	6	7
2528.648	n/a	PROB	1264324	n/a	LTP115	ltpFR2	4	n/a	n/a	n/a	15	15	6	5	4
2530.728	n/a	PROB	1265364	n/a	LTP115	ltpFR2	4	n/a	n/a	n/a	15	17	4	4	9
2532.764	n/a	PROB	1266382	n/a	LTP115	ltpFR2	4	n/a	n/a	n/a	15	24	8	8	8
2534.03	n/a	STOP	1267015	n/a	LTP115	ltpFR2	4	n/a	n/a	n/a	15	n/a	n/a	n/a	n/a
2537.414	n/a	REC_START	1268707	n/a	LTP115	ltpFR2	4	10	n/a	n/a	n/a	n/a	0	0	0
2538.796	n/a	REC_WORD	1269398	wordpools/wasnorm_wordpool_576.txt	LTP115	ltpFR2	4	10	TUBA	1515	n/a	n/a	0	0	0
2541.094	n/a	REC_WORD	1270547	wordpools/wasnorm_wordpool_576.txt	LTP115	ltpFR2	4	10	DANCER	437	n/a	n/a	0	0	0
2543.634	n/a	REC_WORD	1271817	wordpools/wasnorm_wordpool_576.txt	LTP115	ltpFR2	4	10	GYMNAST	675	n/a	n/a	0	0	0
2544.446	n/a	REC_WORD	1272223	wordpools/wasnorm_wordpool_576.txt	LTP115	ltpFR2	4	10	MEDAL	885	n/a	n/a	0	0	0
2545.478	n/a	REC_WORD	1272739	wordpools/wasnorm_wordpool_576.txt	LTP115	ltpFR2	4	10	CHAUFFEUR	283	n/a	n/a	0	0	0
2546.378	n/a	REC_WORD	1273189	wordpools/wasnorm_wordpool_576.txt	LTP115	ltpFR2	4	10	BUGGY	188	n/a	n/a	0	0	0
2547.232	n/a	REC_WORD	1273616	wordpools/wasnorm_wordpool_576.txt	LTP115	ltpFR2	4	10	TRACTOR	1493	n/a	n/a	0	0	0
2548.094	n/a	REC_WORD	1274047	wordpools/wasnorm_wordpool_576.txt	LTP115	ltpFR2	4	10	PRINCESS	1125	n/a	n/a	0	0	0
2549.75	n/a	REC_WORD	1274875	wordpools/wasnorm_wordpool_576.txt	LTP115	ltpFR2	4	10	HEDGE	699	n/a	n/a	0	0	0
2550.482	n/a	REC_WORD	1275241	wordpools/wasnorm_wordpool_576.txt	LTP115	ltpFR2	4	10	SHRUB	1299	n/a	n/a	0	0	0
2551.418	n/a	REC_WORD	1275709	wordpools/wasnorm_wordpool_576.txt	LTP115	ltpFR2	4	10	BRICK	172	n/a	n/a	0	0	0
2552.5	n/a	REC_WORD	1276250	wordpools/wasnorm_wordpool_576.txt	LTP115	ltpFR2	4	10	GLASS	639	n/a	n/a	0	0	0
2553.632	n/a	REC_WORD	1276816	wordpools/wasnorm_wordpool_576.txt	LTP115	ltpFR2	4	10	CRAYON	401	n/a	n/a	0	0	0
2559.676	n/a	REC_WORD	1279838	wordpools/wasnorm_wordpool_576.txt	LTP115	ltpFR2	4	10	OUTDOORS	987	n/a	n/a	0	0	0
2560.676	n/a	REC_WORD_VV	1280338	wordpools/wasnorm_wordpool_576.txt	LTP115	ltpFR2	4	10	<>	-1	n/a	n/a	0	0	0
2560.91	n/a	REC_WORD	1280455	wordpools/wasnorm_wordpool_576.txt	LTP115	ltpFR2	4	10	MILDEW	893	n/a	n/a	0	0	0
2563.342	n/a	REC_WORD	1281671	wordpools/wasnorm_wordpool_576.txt	LTP115	ltpFR2	4	10	BUBBLE	183	n/a	n/a	0	0	0
2565.35	n/a	REC_WORD	1282675	wordpools/wasnorm_wordpool_576.txt	LTP115	ltpFR2	4	10	GLASS	639	n/a	n/a	0	0	0
2588.924	n/a	REC_WORD	1294462	wordpools/wasnorm_wordpool_576.txt	LTP115	ltpFR2	4	10	RUG	1215	n/a	n/a	0	0	0
2591.884	n/a	REC_WORD	1295942	wordpools/wasnorm_wordpool_576.txt	LTP115	ltpFR2	4	10	DOLPHIN	483	n/a	n/a	0	0	0
2592.652	n/a	REC_WORD	1296326	wordpools/wasnorm_wordpool_576.txt	LTP115	ltpFR2	4	10	STUDENT	1395	n/a	n/a	0	0	0
2603.4	n/a	REC_WORD	1301700	wordpools/wasnorm_wordpool_576.txt	LTP115	ltpFR2	4	10	MARS	873	n/a	n/a	0	0	0
2628.484	n/a	DISTRACTOR	1314242	n/a	LTP115	ltpFR2	4	11	n/a	n/a	n/a	n/a	0	0	0
2628.484	n/a	START	1314242	n/a	LTP115	ltpFR2	4	n/a	n/a	n/a	16	n/a	n/a	n/a	n/a
2628.534	n/a	PROB	1314267	n/a	LTP115	ltpFR2	4	n/a	n/a	n/a	16	10	1	4	5
2629.784	n/a	PROB	1314892	n/a	LTP115	ltpFR2	4	n/a	n/a	n/a	16	17	9	6	2
2632.126	n/a	PROB	1316063	n/a	LTP115	ltpFR2	4	n/a	n/a	n/a	16	14	4	5	5
2633.684	n/a	PROB	1316842	n/a	LTP115	ltpFR2	4	n/a	n/a	n/a	16	10	3	5	2
2634.87	n/a	PROB	1317435	n/a	LTP115	ltpFR2	4	n/a	n/a	n/a	16	10	1	8	1
2635.862	n/a	PROB	1317931	n/a	LTP115	ltpFR2	4	n/a	n/a	n/a	16	12	5	3	4
2637.48	n/a	PROB	1318740	n/a	LTP115	ltpFR2	4	n/a	n/a	n/a	16	11	6	1	4
2638.668	n/a	PROB	1319334	n/a	LTP115	ltpFR2	4	n/a	n/a	n/a	16	24	8	7	9
2640.09	n/a	PROB	1320045	n/a	LTP115	ltpFR2	4	n/a	n/a	n/a	16	12	5	1	6
2641.428	n/a	PROB	1320714	n/a	LTP115	ltpFR2	4	n/a	n/a	n/a	16	20	9	7	4
2644.038	n/a	PROB	1322019	n/a	LTP115	ltpFR2	4	n/a	n/a	n/a	16	13	5	6	2
2645.376	n/a	PROB	1322688	n/a	LTP115	ltpFR2	4	n/a	n/a	n/a	16	16	7	7	2
2647.702	n/a	PROB	1323851	n/a	LTP115	ltpFR2	4	n/a	n/a	n/a	16	21	5	7	9
2649.228	n/a	PROB	1324614	n/a	LTP115	ltpFR2	4	n/a	n/a	n/a	16	19	7	5	7
2650.682	n/a	PROB	1325341	n/a	LTP115	ltpFR2	4	n/a	n/a	n/a	16	18	4	6	8
2651.838	n/a	STOP	1325919	n/a	LTP115	ltpFR2	4	n/a	n/a	n/a	16	n/a	n/a	n/a	n/a
2653.446	n/a	WORD	1326723	wordpools/wasnorm_wordpool_576.txt	LTP115	ltpFR2	4	11	PATIENT	1024	n/a	n/a	0	0	0
2656.256	n/a	WORD	1328128	wordpools/wasnorm_wordpool_576.txt	LTP115	ltpFR2	4	11	BINDER	127	n/a	n/a	0	0	0
2658.946	n/a	WORD	1329473	wordpools/wasnorm_wordpool_576.txt	LTP115	ltpFR2	4	11	LACE	792	n/a	n/a	0	0	0
2661.678	n/a	WORD	1330839	wordpools/wasnorm_wordpool_576.txt	LTP115	ltpFR2	4	11	LUMBER	848	n/a	n/a	0	0	0
2664.386	n/a	WORD	1332193	wordpools/wasnorm_wordpool_576.txt	LTP115	ltpFR2	4	11	STATUE	1374	n/a	n/a	0	0	0
2666.914	n/a	WORD	1333457	wordpools/wasnorm_wordpool_576.txt	LTP115	ltpFR2	4	11	FRAGRANCE	599	n/a	n/a	0	0	0
2669.642	n/a	WORD	1334821	wordpools/wasnorm_wordpool_576.txt	LTP115	ltpFR2	4	11	SODA	1341	n/a	n/a	0	0	0
2672.33	n/a	WORD	1336165	wordpools/wasnorm_wordpool_576.txt	LTP115	ltpFR2	4	11	PEANUT	1032	n/a	n/a	0	0	0
2674.812	n/a	WORD	1337406	wordpools/wasnorm_wordpool_576.txt	LTP115	ltpFR2	4	11	NAPKIN	937	n/a	n/a	0	0	0
2677.416	n/a	WORD	1338708	wordpools/wasnorm_wordpool_576.txt	LTP115	ltpFR2	4	11	FOOT	590	n/a	n/a	0	0	0
2679.88	n/a	WORD	1339940	wordpools/wasnorm_wordpool_576.txt	LTP115	ltpFR2	4	11	TURNIP	1521	n/a	n/a	0	0	0
2682.508	n/a	WORD	1341254	wordpools/wasnorm_wordpool_576.txt	LTP115	ltpFR2	4	11	BRANCH	168	n/a	n/a	0	0	0
2685.2	n/a	WORD	1342600	wordpools/wasnorm_wordpool_576.txt	LTP115	ltpFR2	4	11	SHARK	1275	n/a	n/a	0	0	0
2687.944	n/a	WORD	1343972	wordpools/wasnorm_wordpool_576.txt	LTP115	ltpFR2	4	11	FLIPPER	580	n/a	n/a	0	0	0
2690.622	n/a	WORD	1345311	wordpools/wasnorm_wordpool_576.txt	LTP115	ltpFR2	4	11	OZONE	996	n/a	n/a	0	0	0
2693.414	n/a	WORD	1346707	wordpools/wasnorm_wordpool_576.txt	LTP115	ltpFR2	4	11	CANYON	235	n/a	n/a	0	0	0
2696.158	n/a	WORD	1348079	wordpools/wasnorm_wordpool_576.txt	LTP115	ltpFR2	4	11	CONCERT	360	n/a	n/a	0	0	0
2698.82	n/a	WORD	1349410	wordpools/wasnorm_wordpool_576.txt	LTP115	ltpFR2	4	11	SCULPTURE	1258	n/a	n/a	0	0	0
2701.458	n/a	WORD	1350729	wordpools/wasnorm_wordpool_576.txt	LTP115	ltpFR2	4	11	QUAIL	1147	n/a	n/a	0	0	0
2703.938	n/a	WORD	1351969	wordpools/wasnorm_wordpool_576.txt	LTP115	ltpFR2	4	11	PECAN	1036	n/a	n/a	0	0	0
2706.414	n/a	WORD	1353207	wordpools/wasnorm_wordpool_576.txt	LTP115	ltpFR2	4	11	JEANS	752	n/a	n/a	0	0	0
2708.958	n/a	WORD	1354479	wordpools/wasnorm_wordpool_576.txt	LTP115	ltpFR2	4	11	CIGAR	308	n/a	n/a	0	0	0
2711.434	n/a	WORD	1355717	wordpools/wasnorm_wordpool_576.txt	LTP115	ltpFR2	4	11	FIREMAN	569	n/a	n/a	0	0	0
2714.228	n/a	WORD	1357114	wordpools/wasnorm_wordpool_576.txt	LTP115	ltpFR2	4	11	DRAGON	492	n/a	n/a	0	0	0
2715.834	n/a	START	1357917	n/a	LTP115	ltpFR2	4	n/a	n/a	n/a	17	n/a	n/a	n/a	n/a
2716.91	n/a	DISTRACTOR	1358455	n/a	LTP115	ltpFR2	4	11	n/a	n/a	n/a	n/a	0	0	0
2716.922	n/a	PROB	1358461	n/a	LTP115	ltpFR2	4	n/a	n/a	n/a	17	12	1	3	8
2718.388	n/a	PROB	1359194	n/a	LTP115	ltpFR2	4	n/a	n/a	n/a	17	16	3	5	8
2720.514	n/a	PROB	1360257	n/a	LTP115	ltpFR2	4	n/a	n/a	n/a	17	11	4	2	5
2721.94	n/a	PROB	1360970	n/a	LTP115	ltpFR2	4	n/a	n/a	n/a	17	16	2	9	5
2724.112	n/a	PROB	1362056	n/a	LTP115	ltpFR2	4	n/a	n/a	n/a	17	19	7	5	7
2725.42	n/a	PROB	1362710	n/a	LTP115	ltpFR2	4	n/a	n/a	n/a	17	14	9	3	2
2727.39	n/a	PROB	1363695	n/a	LTP115	ltpFR2	4	n/a	n/a	n/a	17	16	2	7	7
2730.302	n/a	PROB	1365151	n/a	LTP115	ltpFR2	4	n/a	n/a	n/a	17	24	8	9	7
2733.28	n/a	PROB	1366640	n/a	LTP115	ltpFR2	4	n/a	n/a	n/a	17	11	5	1	5
2734.434	n/a	PROB	1367217	n/a	LTP115	ltpFR2	4	n/a	n/a	n/a	17	21	6	9	6
2737.362	n/a	PROB	1368681	n/a	LTP115	ltpFR2	4	n/a	n/a	n/a	17	19	3	9	7
2738.754	n/a	STOP	1369377	n/a	LTP115	ltpFR2	4	n/a	n/a	n/a	17	n/a	n/a	n/a	n/a
2741.696	n/a	REC_START	1370848	n/a	LTP115	ltpFR2	4	11	n/a	n/a	n/a	n/a	0	0	0
2742.792	n/a	REC_WORD	1371396	wordpools/wasnorm_wordpool_576.txt	LTP115	ltpFR2	4	11	STATUE	1374	n/a	n/a	0	0	0
2743.966	n/a	REC_WORD	1371983	wordpools/wasnorm_wordpool_576.txt	LTP115	ltpFR2	4	11	SCULPTURE	1258	n/a	n/a	0	0	0
2745.48	n/a	REC_WORD	1372740	wordpools/wasnorm_wordpool_576.txt	LTP115	ltpFR2	4	11	FOOT	590	n/a	n/a	0	0	0
2746.626	n/a	REC_WORD	1373313	wordpools/wasnorm_wordpool_576.txt	LTP115	ltpFR2	4	11	TURNIP	1521	n/a	n/a	0	0	0
2747.52	n/a	REC_WORD	1373760	wordpools/wasnorm_wordpool_576.txt	LTP115	ltpFR2	4	11	BRANCH	168	n/a	n/a	0	0	0
2748.474	n/a	REC_WORD	1374237	wordpools/wasnorm_wordpool_576.txt	LTP115	ltpFR2	4	11	LUMBER	848	n/a	n/a	0	0	0
2749.554	n/a	REC_WORD	1374777	wordpools/wasnorm_wordpool_576.txt	LTP115	ltpFR2	4	11	CONCERT	360	n/a	n/a	0	0	0
2756.272	n/a	REC_WORD	1378136	wordpools/wasnorm_wordpool_576.txt	LTP115	ltpFR2	4	11	CASHEW	253	n/a	n/a	0	0	0
2757.48	n/a	REC_WORD	1378740	wordpools/wasnorm_wordpool_576.txt	LTP115	ltpFR2	4	11	PECAN	1036	n/a	n/a	0	0	0
2763.654	n/a	REC_WORD	1381827	wordpools/wasnorm_wordpool_576.txt	LTP115	ltpFR2	4	11	PATIENT	1024	n/a	n/a	0	0	0
2764.266	n/a	REC_WORD	1382133	wordpools/wasnorm_wordpool_576.txt	LTP115	ltpFR2	4	11	CIGAR	308	n/a	n/a	0	0	0
2765.37	n/a	REC_WORD	1382685	wordpools/wasnorm_wordpool_576.txt	LTP115	ltpFR2	4	11	FIREMAN	569	n/a	n/a	0	0	0
2769.726	n/a	REC_WORD	1384863	wordpools/wasnorm_wordpool_576.txt	LTP115	ltpFR2	4	11	BINDER	127	n/a	n/a	0	0	0
2770.452	n/a	REC_WORD	1385226	wordpools/wasnorm_wordpool_576.txt	LTP115	ltpFR2	4	11	LACE	792	n/a	n/a	0	0	0
2771.794	n/a	REC_WORD	1385897	wordpools/wasnorm_wordpool_576.txt	LTP115	ltpFR2	4	11	FRAGRANCE	599	n/a	n/a	0	0	0
2772.794	n/a	REC_WORD_VV	1386397	wordpools/wasnorm_wordpool_576.txt	LTP115	ltpFR2	4	11	<>	-1	n/a	n/a	0	0	0
2832.782	n/a	WORD	1416391	wordpools/wasnorm_wordpool_576.txt	LTP115	ltpFR2	4	12	SHELF	1280	n/a	n/a	0	0	0
2835.558	n/a	WORD	1417779	wordpools/wasnorm_wordpool_576.txt	LTP115	ltpFR2	4	12	COOKBOOK	373	n/a	n/a	0	0	0
2838.098	n/a	WORD	1419049	wordpools/wasnorm_wordpool_576.txt	LTP115	ltpFR2	4	12	PLATE	1086	n/a	n/a	0	0	0
2840.612	n/a	WORD	1420306	wordpools/wasnorm_wordpool_576.txt	LTP115	ltpFR2	4	12	RECEIPT	1173	n/a	n/a	0	0	0
2843.054	n/a	WORD	1421527	wordpools/wasnorm_wordpool_576.txt	LTP115	ltpFR2	4	12	BRIEFCASE	175	n/a	n/a	0	0	0
2845.828	n/a	WORD	1422914	wordpools/wasnorm_wordpool_576.txt	LTP115	ltpFR2	4	12	FINGER	567	n/a	n/a	0	0	0
2848.526	n/a	WORD	1424263	wordpools/wasnorm_wordpool_576.txt	LTP115	ltpFR2	4	12	LIVER	833	n/a	n/a	0	0	0
2851.234	n/a	WORD	1425617	wordpools/wasnorm_wordpool_576.txt	LTP115	ltpFR2	4	12	SUMMIT	1405	n/a	n/a	0	0	0
2854.006	n/a	WORD	1427003	wordpools/wasnorm_wordpool_576.txt	LTP115	ltpFR2	4	12	PIGEON	1065	n/a	n/a	0	0	0
2856.64	n/a	WORD	1428320	wordpools/wasnorm_wordpool_576.txt	LTP115	ltpFR2	4	12	TEACHER	1440	n/a	n/a	0	0	0
2859.382	n/a	WORD	1429691	wordpools/wasnorm_wordpool_576.txt	LTP115	ltpFR2	4	12	RIVER	1194	n/a	n/a	0	0	0
2861.892	n/a	WORD	1430946	wordpools/wasnorm_wordpool_576.txt	LTP115	ltpFR2	4	12	KNAPSACK	783	n/a	n/a	0	0	0
2864.334	n/a	WORD	1432167	wordpools/wasnorm_wordpool_576.txt	LTP115	ltpFR2	4	12	CRIB	407	n/a	n/a	0	0	0
2866.878	n/a	WORD	1433439	wordpools/wasnorm_wordpool_576.txt	LTP115	ltpFR2	4	12	LEG	809	n/a	n/a	0	0	0
2869.37	n/a	WORD	1434685	wordpools/wasnorm_wordpool_576.txt	LTP115	ltpFR2	4	12	EGYPT	519	n/a	n/a	0	0	0
2871.792	n/a	WORD	1435896	wordpools/wasnorm_wordpool_576.txt	LTP115	ltpFR2	4	12	SERVER	1272	n/a	n/a	0	0	0
2874.576	n/a	WORD	1437288	wordpools/wasnorm_wordpool_576.txt	LTP115	ltpFR2	4	12	CLAM	315	n/a	n/a	0	0	0
2877.168	n/a	WORD	1438584	wordpools/wasnorm_wordpool_576.txt	LTP115	ltpFR2	4	12	CLAMP	316	n/a	n/a	0	0	0
2879.894	n/a	WORD	1439947	wordpools/wasnorm_wordpool_576.txt	LTP115	ltpFR2	4	12	GARBAGE	622	n/a	n/a	0	0	0
2882.588	n/a	WORD	1441294	wordpools/wasnorm_wordpool_576.txt	LTP115	ltpFR2	4	12	SKILLET	1317	n/a	n/a	0	0	0
2885.198	n/a	WORD	1442599	wordpools/wasnorm_wordpool_576.txt	LTP115	ltpFR2	4	12	TROUT	1511	n/a	n/a	0	0	0
2887.724	n/a	WORD	1443862	wordpools/wasnorm_wordpool_576.txt	LTP115	ltpFR2	4	12	CRAB	397	n/a	n/a	0	0	0
2890.216	n/a	WORD	1445108	wordpools/wasnorm_wordpool_576.txt	LTP115	ltpFR2	4	12	BANQUET	86	n/a	n/a	0	0	0
2892.828	n/a	WORD	1446414	wordpools/wasnorm_wordpool_576.txt	LTP115	ltpFR2	4	12	YOLK	1633	n/a	n/a	0	0	0
2894.446	n/a	START	1447223	n/a	LTP115	ltpFR2	4	n/a	n/a	n/a	18	n/a	n/a	n/a	n/a
2895.518	n/a	DISTRACTOR	1447759	n/a	LTP115	ltpFR2	4	12	n/a	n/a	n/a	n/a	0	0	0
2895.534	n/a	PROB	1447767	n/a	LTP115	ltpFR2	4	n/a	n/a	n/a	18	10	4	1	5
2896.788	n/a	PROB	1448394	n/a	LTP115	ltpFR2	4	n/a	n/a	n/a	18	17	6	8	3
2899.03	n/a	PROB	1449515	n/a	LTP115	ltpFR2	4	n/a	n/a	n/a	18	21	6	8	7
2902.494	n/a	PROB	1451247	n/a	LTP115	ltpFR2	4	n/a	n/a	n/a	18	16	8	5	3
2903.998	n/a	PROB	1451999	n/a	LTP115	ltpFR2	4	n/a	n/a	n/a	18	18	8	7	3
2905.492	n/a	PROB	1452746	n/a	LTP115	ltpFR2	4	n/a	n/a	n/a	18	16	4	7	5
2906.96	n/a	PROB	1453480	n/a	LTP115	ltpFR2	4	n/a	n/a	n/a	18	11	3	2	6
2908.5	n/a	PROB	1454250	n/a	LTP115	ltpFR2	4	n/a	n/a	n/a	18	17	6	8	3
2910.942	n/a	PROB	1455471	n/a	LTP115	ltpFR2	4	n/a	n/a	n/a	18	19	8	9	2
2914.928	n/a	PROB	1457464	n/a	LTP115	ltpFR2	4	n/a	n/a	n/a	18	18	7	5	6
2917.194	n/a	STOP	1458597	n/a	LTP115	ltpFR2	4	n/a	n/a	n/a	18	n/a	n/a	n/a	n/a
2920.294	n/a	REC_START	1460147	n/a	LTP115	ltpFR2	4	12	n/a	n/a	n/a	n/a	0	0	0
2921.832	n/a	REC_WORD	1460916	wordpools/wasnorm_wordpool_576.txt	LTP115	ltpFR2	4	12	BANQUET	86	n/a	n/a	0	0	0
2922.556	n/a	REC_WORD	1461278	wordpools/wasnorm_wordpool_576.txt	LTP115	ltpFR2	4	12	SHELF	1280	n/a	n/a	0	0	0
2923.57	n/a	REC_WORD	1461785	wordpools/wasnorm_wordpool_576.txt	LTP115	ltpFR2	4	12	COOKBOOK	373	n/a	n/a	0	0	0
2924.61	n/a	REC_WORD	1462305	wordpools/wasnorm_wordpool_576.txt	LTP115	ltpFR2	4	12	PLATE	1086	n/a	n/a	0	0	0
2925.45	n/a	REC_WORD	1462725	wordpools/wasnorm_wordpool_576.txt	LTP115	ltpFR2	4	12	FINGER	567	n/a	n/a	0	0	0
2927.168	n/a	REC_WORD	1463584	wordpools/wasnorm_wordpool_576.txt	LTP115	ltpFR2	4	12	RECEIPT	1173	n/a	n/a	0	0	0
2928.648	n/a	REC_WORD	1464324	wordpools/wasnorm_wordpool_576.txt	LTP115	ltpFR2	4	12	BRIEFCASE	175	n/a	n/a	0	0	0
2929.646	n/a	REC_WORD	1464823	wordpools/wasnorm_wordpool_576.txt	LTP115	ltpFR2	4	12	TEACHER	1440	n/a	n/a	0	0	0
2931.01	n/a	REC_WORD	1465505	wordpools/wasnorm_wordpool_576.txt	LTP115	ltpFR2	4	12	CLAMP	316	n/a	n/a	0	0	0
2932.026	n/a	REC_WORD	1466013	wordpools/wasnorm_wordpool_576.txt	LTP115	ltpFR2	4	12	CLAM	315	n/a	n/a	0	0	0
2934.254	n/a	REC_WORD	1467127	wordpools/wasnorm_wordpool_576.txt	LTP115	ltpFR2	4	12	CRAB	397	n/a	n/a	0	0	0
2937.198	n/a	REC_WORD	1468599	wordpools/wasnorm_wordpool_576.txt	LTP115	ltpFR2	4	12	OYSTER	995	n/a	n/a	0	0	0
2949.224	n/a	REC_WORD	1474612	wordpools/wasnorm_wordpool_576.txt	LTP115	ltpFR2	4	12	COOKBOOK	373	n/a	n/a	0	0	0
2955.56	n/a	REC_WORD	1477780	wordpools/wasnorm_wordpool_576.txt	LTP115	ltpFR2	4	12	SUMMIT	1405	n/a	n/a	0	0	0
2956.442	n/a	REC_WORD	1478221	wordpools/wasnorm_wordpool_576.txt	LTP115	ltpFR2	4	12	PIGEON	1065	n/a	n/a	0	0	0
2967.582	n/a	REC_WORD	1483791	wordpools/wasnorm_wordpool_576.txt	LTP115	ltpFR2	4	12	RIVER	1194	n/a	n/a	0	0	0
2968.654	n/a	REC_WORD	1484327	wordpools/wasnorm_wordpool_576.txt	LTP115	ltpFR2	4	12	EGYPT	519	n/a	n/a	0	0	0
2971.652	n/a	REC_WORD	1485826	wordpools/wasnorm_wordpool_576.txt	LTP115	ltpFR2	4	12	SERVANT	1271	n/a	n/a	0	0	0
3011.346	n/a	WORD	1505673	wordpools/wasnorm_wordpool_576.txt	LTP115	ltpFR2	4	13	MUMMY	932	n/a	n/a	0	0	0
3013.974	n/a	WORD	1506987	wordpools/wasnorm_wordpool_576.txt	LTP115	ltpFR2	4	13	SPOON	1357	n/a	n/a	0	0	0
3016.5	n/a	WORD	1508250	wordpools/wasnorm_wordpool_576.txt	LTP115	ltpFR2	4	13	RAZOR	1171	n/a	n/a	0	0	0
3019.042	n/a	WORD	1509521	wordpools/wasnorm_wordpool_576.txt	LTP115	ltpFR2	4	13	COUCH	386	n/a	n/a	0	0	0
3021.804	n/a	WORD	1510902	wordpools/wasnorm_wordpool_576.txt	LTP115	ltpFR2	4	13	LADY	794	n/a	n/a	0	0	0
3024.448	n/a	WORD	1512224	wordpools/wasnorm_wordpool_576.txt	LTP115	ltpFR2	4	13	LIZARD	834	n/a	n/a	0	0	0
3026.974	n/a	WORD	1513487	wordpools/wasnorm_wordpool_576.txt	LTP115	ltpFR2	4	13	HOSTESS	723	n/a	n/a	0	0	0
3029.584	n/a	WORD	1514792	wordpools/wasnorm_wordpool_576.txt	LTP115	ltpFR2	4	13	CREVICE	405	n/a	n/a	0	0	0
3032.126	n/a	WORD	1516063	wordpools/wasnorm_wordpool_576.txt	LTP115	ltpFR2	4	13	JELLY	755	n/a	n/a	0	0	0
3034.754	n/a	WORD	1517377	wordpools/wasnorm_wordpool_576.txt	LTP115	ltpFR2	4	13	SPHINX	1349	n/a	n/a	0	0	0
3037.514	n/a	WORD	1518757	wordpools/wasnorm_wordpool_576.txt	LTP115	ltpFR2	4	13	TWIG	1527	n/a	n/a	0	0	0
3040.324	n/a	WORD	1520162	wordpools/wasnorm_wordpool_576.txt	LTP115	ltpFR2	4	13	AIRPLANE	12	n/a	n/a	0	0	0
3042.836	n/a	WORD	1521418	wordpools/wasnorm_wordpool_576.txt	LTP115	ltpFR2	4	13	GRAVEL	659	n/a	n/a	0	0	0
3045.528	n/a	WORD	1522764	wordpools/wasnorm_wordpool_576.txt	LTP115	ltpFR2	4	13	BANKER	84	n/a	n/a	0	0	0
3048.304	n/a	WORD	1524152	wordpools/wasnorm_wordpool_576.txt	LTP115	ltpFR2	4	13	COMPASS	358	n/a	n/a	0	0	0
3050.778	n/a	WORD	1525389	wordpools/wasnorm_wordpool_576.txt	LTP115	ltpFR2	4	13	TOMBSTONE	1478	n/a	n/a	0	0	0
3053.306	n/a	WORD	1526653	wordpools/wasnorm_wordpool_576.txt	LTP115	ltpFR2	4	13	POSSUM	1112	n/a	n/a	0	0	0
3056.068	n/a	WORD	1528034	wordpools/wasnorm_wordpool_576.txt	LTP115	ltpFR2	4	13	SNAKE	1333	n/a	n/a	0	0	0
3058.808	n/a	WORD	1529404	wordpools/wasnorm_wordpool_576.txt	LTP115	ltpFR2	4	13	HIGHWAY	707	n/a	n/a	0	0	0
3061.624	n/a	WORD	1530812	wordpools/wasnorm_wordpool_576.txt	LTP115	ltpFR2	4	13	PLIERS	1089	n/a	n/a	0	0	0
3064.25	n/a	WORD	1532125	wordpools/wasnorm_wordpool_576.txt	LTP115	ltpFR2	4	13	MASK	876	n/a	n/a	0	0	0
3066.892	n/a	WORD	1533446	wordpools/wasnorm_wordpool_576.txt	LTP115	ltpFR2	4	13	TURTLE	1522	n/a	n/a	0	0	0
3069.468	n/a	WORD	1534734	wordpools/wasnorm_wordpool_576.txt	LTP115	ltpFR2	4	13	TORTOISE	1486	n/a	n/a	0	0	0
3072.046	n/a	WORD	1536023	wordpools/wasnorm_wordpool_576.txt	LTP115	ltpFR2	4	13	MATTRESS	879	n/a	n/a	0	0	0
3073.652	n/a	START	1536826	n/a	LTP115	ltpFR2	4	n/a	n/a	n/a	19	n/a	n/a	n/a	n/a
3074.574	n/a	DISTRACTOR	1537287	n/a	LTP115	ltpFR2	4	13	n/a	n/a	n/a	n/a	0	0	0
3074.59	n/a	PROB	1537295	n/a	LTP115	ltpFR2	4	n/a	n/a	n/a	19	16	6	6	4
3077.31	n/a	PROB	1538655	n/a	LTP115	ltpFR2	4	n/a	n/a	n/a	19	18	7	6	5
3079.408	n/a	PROB	1539704	n/a	LTP115	ltpFR2	4	n/a	n/a	n/a	19	25	9	9	7
3081.242	n/a	PROB	1540621	n/a	LTP115	ltpFR2	4	n/a	n/a	n/a	19	4	1	2	1
3082.146	n/a	PROB	1541073	n/a	LTP115	ltpFR2	4	n/a	n/a	n/a	19	11	1	3	7
3083.586	n/a	PROB	1541793	n/a	LTP115	ltpFR2	4	n/a	n/a	n/a	19	22	7	6	9
3085.85	n/a	PROB	1542925	n/a	LTP115	ltpFR2	4	n/a	n/a	n/a	19	13	5	1	7
3087.568	n/a	PROB	1543784	n/a	LTP115	ltpFR2	4	n/a	n/a	n/a	19	17	2	9	6
3089.742	n/a	PROB	1544871	n/a	LTP115	ltpFR2	4	n/a	n/a	n/a	19	19	9	6	4
3091.13	n/a	PROB	1545565	n/a	LTP115	ltpFR2	4	n/a	n/a	n/a	19	6	1	4	1
3092.184	n/a	PROB	1546092	n/a	LTP115	ltpFR2	4	n/a	n/a	n/a	19	14	2	8	4
3093.658	n/a	PROB	1546829	n/a	LTP115	ltpFR2	4	n/a	n/a	n/a	19	19	8	8	3
3095.464	n/a	PROB	1547732	n/a	LTP115	ltpFR2	4	n/a	n/a	n/a	19	16	3	7	6
3096.654	n/a	STOP	1548327	n/a	LTP115	ltpFR2	4	n/a	n/a	n/a	19	n/a	n/a	n/a	n/a
3099.548	n/a	REC_START	1549774	n/a	LTP115	ltpFR2	4	13	n/a	n/a	n/a	n/a	0	0	0
3100.892	n/a	REC_WORD	1550446	wordpools/wasnorm_wordpool_576.txt	LTP115	ltpFR2	4	13	MUMMY	932	n/a	n/a	0	0	0
3102.998	n/a	REC_WORD	1551499	wordpools/wasnorm_wordpool_576.txt	LTP115	ltpFR2	4	13	SPHINX	1349	n/a	n/a	0	0	0
3106.264	n/a	REC_WORD	1553132	wordpools/wasnorm_wordpool_576.txt	LTP115	ltpFR2	4	13	LADY	794	n/a	n/a	0	0	0
3107.582	n/a	REC_WORD	1553791	wordpools/wasnorm_wordpool_576.txt	LTP115	ltpFR2	4	13	HOSTESS	723	n/a	n/a	0	0	0
3108.582	n/a	REC_WORD_VV	1554291	wordpools/wasnorm_wordpool_576.txt	LTP115	ltpFR2	4	13	<>	-1	n/a	n/a	0	0	0
3110.286	n/a	REC_WORD	1555143	wordpools/wasnorm_wordpool_576.txt	LTP115	ltpFR2	4	13	TORTOISE	1486	n/a	n/a	0	0	0
3111.122	n/a	REC_WORD	1555561	wordpools/wasnorm_wordpool_576.txt	LTP115	ltpFR2	4	13	TURTLE	1522	n/a	n/a	0	0	0
3111.832	n/a	REC_WORD	1555916	wordpools/wasnorm_wordpool_576.txt	LTP115	ltpFR2	4	13	LIZARD	834	n/a	n/a	0	0	0
3113.41	n/a	REC_WORD	1556705	wordpools/wasnorm_wordpool_576.txt	LTP115	ltpFR2	4	13	CREVICE	405	n/a	n/a	0	0	0
3114.394	n/a	REC_WORD	1557197	wordpools/wasnorm_wordpool_576.txt	LTP115	ltpFR2	4	13	SPOON	1357	n/a	n/a	0	0	0
3127.558	n/a	REC_WORD	1563779	wordpools/wasnorm_wordpool_576.txt	LTP115	ltpFR2	4	13	BANKER	84	n/a	n/a	0	0	0
3130.578	n/a	REC_WORD	1565289	wordpools/wasnorm_wordpool_576.txt	LTP115	ltpFR2	4	13	GRAVEL	659	n/a	n/a	0	0	0
3131.708	n/a	REC_WORD	1565854	wordpools/wasnorm_wordpool_576.txt	LTP115	ltpFR2	4	13	AIRPLANE	12	n/a	n/a	0	0	0
3132.824	n/a	REC_WORD	1566412	wordpools/wasnorm_wordpool_576.txt	LTP115	ltpFR2	4	13	HIGHWAY	707	n/a	n/a	0	0	0
3133.92	n/a	REC_WORD	1566960	wordpools/wasnorm_wordpool_576.txt	LTP115	ltpFR2	4	13	SNAKE	1333	n/a	n/a	0	0	0
3135.054	n/a	REC_WORD	1567527	wordpools/wasnorm_wordpool_576.txt	LTP115	ltpFR2	4	13	TOMBSTONE	1478	n/a	n/a	0	0	0
3136.062	n/a	REC_WORD	1568031	wordpools/wasnorm_wordpool_576.txt	LTP115	ltpFR2	4	13	POSSUM	1112	n/a	n/a	0	0	0
3140.462	n/a	REC_WORD	1570231	wordpools/wasnorm_wordpool_576.txt	LTP115	ltpFR2	4	13	COMPASS	358	n/a	n/a	0	0	0
3156.084	n/a	REC_WORD	1578042	wordpools/wasnorm_wordpool_576.txt	LTP115	ltpFR2	4	13	COUCH	386	n/a	n/a	0	0	0
3156.75	n/a	REC_WORD	1578375	wordpools/wasnorm_wordpool_576.txt	LTP115	ltpFR2	4	13	MATTRESS	879	n/a	n/a	0	0	0
3190.6	n/a	DISTRACTOR	1595300	n/a	LTP115	ltpFR2	4	14	n/a	n/a	n/a	n/a	0	0	0
3190.6	n/a	START	1595300	n/a	LTP115	ltpFR2	4	n/a	n/a	n/a	20	n/a	n/a	n/a	n/a
3190.65	n/a	PROB	1595325	n/a	LTP115	ltpFR2	4	n/a	n/a	n/a	20	18	7	7	4
3192.586	n/a	PROB	1596293	n/a	LTP115	ltpFR2	4	n/a	n/a	n/a	20	5	1	3	1
3193.828	n/a	PROB	1596914	n/a	LTP115	ltpFR2	4	n/a	n/a	n/a	20	20	9	4	7
3196.484	n/a	PROB	1598242	n/a	LTP115	ltpFR2	4	n/a	n/a	n/a	20	14	5	6	3
3197.822	n/a	PROB	1598911	n/a	LTP115	ltpFR2	4	n/a	n/a	n/a	20	6	2	2	2
3198.76	n/a	PROB	1599380	n/a	LTP115	ltpFR2	4	n/a	n/a	n/a	20	18	2	7	9
3200.148	n/a	PROB	1600074	n/a	LTP115	ltpFR2	4	n/a	n/a	n/a	20	18	4	6	8
3201.302	n/a	PROB	1600651	n/a	LTP115	ltpFR2	4	n/a	n/a	n/a	20	24	9	7	8
3204.296	n/a	PROB	1602148	n/a	LTP115	ltpFR2	4	n/a	n/a	n/a	20	18	6	4	8
3205.35	n/a	PROB	1602675	n/a	LTP115	ltpFR2	4	n/a	n/a	n/a	20	19	7	9	3
3207.526	n/a	PROB	1603763	n/a	LTP115	ltpFR2	4	n/a	n/a	n/a	20	15	5	2	8
3208.898	n/a	PROB	1604449	n/a	LTP115	ltpFR2	4	n/a	n/a	n/a	20	20	8	7	5
3210.894	n/a	PROB	1605447	n/a	LTP115	ltpFR2	4	n/a	n/a	n/a	20	14	6	6	2
3213.058	n/a	STOP	1606529	n/a	LTP115	ltpFR2	4	n/a	n/a	n/a	20	n/a	n/a	n/a	n/a
3215.808	n/a	WORD	1607904	wordpools/wasnorm_wordpool_576.txt	LTP115	ltpFR2	4	14	POISON	1096	n/a	n/a	0	0	0
3218.322	n/a	WORD	1609161	wordpools/wasnorm_wordpool_576.txt	LTP115	ltpFR2	4	14	HAND	683	n/a	n/a	0	0	0
3221.082	n/a	WORD	1610541	wordpools/wasnorm_wordpool_576.txt	LTP115	ltpFR2	4	14	NIGHTGOWN	953	n/a	n/a	0	0	0
3223.542	n/a	WORD	1611771	wordpools/wasnorm_wordpool_576.txt	LTP115	ltpFR2	4	14	NOVEL	960	n/a	n/a	0	0	0
3226.318	n/a	WORD	1613159	wordpools/wasnorm_wordpool_576.txt	LTP115	ltpFR2	4	14	JOURNAL	760	n/a	n/a	0	0	0
3229.058	n/a	WORD	1614529	wordpools/wasnorm_wordpool_576.txt	LTP115	ltpFR2	4	14	TILE	1468	n/a	n/a	0	0	0
3231.502	n/a	WORD	1615751	wordpools/wasnorm_wordpool_576.txt	LTP115	ltpFR2	4	14	GOBLIN	645	n/a	n/a	0	0	0
3234.114	n/a	WORD	1617057	wordpools/wasnorm_wordpool_576.txt	LTP115	ltpFR2	4	14	GARLIC	624	n/a	n/a	0	0	0
3236.822	n/a	WORD	1618411	wordpools/wasnorm_wordpool_576.txt	LTP115	ltpFR2	4	14	LAKE	796	n/a	n/a	0	0	0
3239.48	n/a	WORD	1619740	wordpools/wasnorm_wordpool_576.txt	LTP115	ltpFR2	4	14	SEAL	1262	n/a	n/a	0	0	0
3242.146	n/a	WORD	1621073	wordpools/wasnorm_wordpool_576.txt	LTP115	ltpFR2	4	14	PASTA	1021	n/a	n/a	0	0	0
3244.706	n/a	WORD	1622353	wordpools/wasnorm_wordpool_576.txt	LTP115	ltpFR2	4	14	WRIST	1626	n/a	n/a	0	0	0
3247.232	n/a	WORD	1623616	wordpools/wasnorm_wordpool_576.txt	LTP115	ltpFR2	4	14	PLAID	1080	n/a	n/a	0	0	0
3249.658	n/a	WORD	1624829	wordpools/wasnorm_wordpool_576.txt	LTP115	ltpFR2	4	14	ZIPPER	1636	n/a	n/a	0	0	0
3252.234	n/a	WORD	1626117	wordpools/wasnorm_wordpool_576.txt	LTP115	ltpFR2	4	14	PILOT	1070	n/a	n/a	0	0	0
3254.928	n/a	WORD	1627464	wordpools/wasnorm_wordpool_576.txt	LTP115	ltpFR2	4	14	GLOBE	641	n/a	n/a	0	0	0
3257.386	n/a	WORD	1628693	wordpools/wasnorm_wordpool_576.txt	LTP115	ltpFR2	4	14	MARINE	869	n/a	n/a	0	0	0
3259.964	n/a	WORD	1629982	wordpools/wasnorm_wordpool_576.txt	LTP115	ltpFR2	4	14	AIRPORT	13	n/a	n/a	0	0	0
3262.658	n/a	WORD	1631329	wordpools/wasnorm_wordpool_576.txt	LTP115	ltpFR2	4	14	ULCER	1533	n/a	n/a	0	0	0
3265.418	n/a	WORD	1632709	wordpools/wasnorm_wordpool_576.txt	LTP115	ltpFR2	4	14	SEAFOOD	1260	n/a	n/a	0	0	0
3268.146	n/a	WORD	1634073	wordpools/wasnorm_wordpool_576.txt	LTP115	ltpFR2	4	14	SPOUSE	1358	n/a	n/a	0	0	0
3270.888	n/a	WORD	1635444	wordpools/wasnorm_wordpool_576.txt	LTP115	ltpFR2	4	14	MILK	895	n/a	n/a	0	0	0
3273.466	n/a	WORD	1636733	wordpools/wasnorm_wordpool_576.txt	LTP115	ltpFR2	4	14	REPORT	1184	n/a	n/a	0	0	0
3275.892	n/a	WORD	1637946	wordpools/wasnorm_wordpool_576.txt	LTP115	ltpFR2	4	14	GREASE	660	n/a	n/a	0	0	0
3277.498	n/a	START	1638749	n/a	LTP115	ltpFR2	4	n/a	n/a	n/a	21	n/a	n/a	n/a	n/a
3278.404	n/a	DISTRACTOR	1639202	n/a	LTP115	ltpFR2	4	14	n/a	n/a	n/a	n/a	0	0	0
3278.418	n/a	PROB	1639209	n/a	LTP115	ltpFR2	4	n/a	n/a	n/a	21	14	2	3	9
3280.136	n/a	PROB	1640068	n/a	LTP115	ltpFR2	4	n/a	n/a	n/a	21	22	7	8	7
3282.344	n/a	PROB	1641172	n/a	LTP115	ltpFR2	4	n/a	n/a	n/a	21	12	6	2	4
3284.386	n/a	PROB	1642193	n/a	LTP115	ltpFR2	4	n/a	n/a	n/a	21	15	5	9	1
3285.658	n/a	PROB	1642829	n/a	LTP115	ltpFR2	4	n/a	n/a	n/a	21	3	1	1	1
3286.578	n/a	PROB	1643289	n/a	LTP115	ltpFR2	4	n/a	n/a	n/a	21	13	1	8	4
3288.57	n/a	PROB	1644285	n/a	LTP115	ltpFR2	4	n/a	n/a	n/a	21	12	3	7	2
3289.858	n/a	PROB	1644929	n/a	LTP115	ltpFR2	4	n/a	n/a	n/a	21	15	6	1	8
3291.116	n/a	PROB	1645558	n/a	LTP115	ltpFR2	4	n/a	n/a	n/a	21	17	5	3	9
3292.686	n/a	PROB	1646343	n/a	LTP115	ltpFR2	4	n/a	n/a	n/a	21	5	3	1	1
3293.626	n/a	PROB	1646813	n/a	LTP115	ltpFR2	4	n/a	n/a	n/a	21	13	5	7	1
3294.976	n/a	PROB	1647488	n/a	LTP115	ltpFR2	4	n/a	n/a	n/a	21	18	6	8	4
3296.7	n/a	PROB	1648350	n/a	LTP115	ltpFR2	4	n/a	n/a	n/a	21	22	7	7	8
3299.112	n/a	PROB	1649556	n/a	LTP115	ltpFR2	4	n/a	n/a	n/a	21	16	5	7	4
3301.44	n/a	STOP	1650720	n/a	LTP115	ltpFR2	4	n/a	n/a	n/a	21	n/a	n/a	n/a	n/a
3303.444	n/a	REC_START	1651722	n/a	LTP115	ltpFR2	4	14	n/a	n/a	n/a	n/a	0	0	0
3304.398	n/a	REC_WORD	1652199	wordpools/wasnorm_wordpool_576.txt	LTP115	ltpFR2	4	14	GREASE	660	n/a	n/a	0	0	0
3305.282	n/a	REC_WORD	1652641	wordpools/wasnorm_wordpool_576.txt	LTP115	ltpFR2	4	14	GOBLIN	645	n/a	n/a	0	0	0
3306.148	n/a	REC_WORD	1653074	wordpools/wasnorm_wordpool_576.txt	LTP115	ltpFR2	4	14	REPORT	1184	n/a	n/a	0	0	0
3307.65	n/a	REC_WORD	1653825	wordpools/wasnorm_wordpool_576.txt	LTP115	ltpFR2	4	14	PILOT	1070	n/a	n/a	0	0	0
3308.7	n/a	REC_WORD	1654350	wordpools/wasnorm_wordpool_576.txt	LTP115	ltpFR2	4	14	AIRPORT	13	n/a	n/a	0	0	0
3309.75	n/a	REC_WORD	1654875	wordpools/wasnorm_wordpool_576.txt	LTP115	ltpFR2	4	14	GLOBE	641	n/a	n/a	0	0	0
3312.656	n/a	REC_WORD	1656328	wordpools/wasnorm_wordpool_576.txt	LTP115	ltpFR2	4	14	GARLIC	624	n/a	n/a	0	0	0
3313.908	n/a	REC_WORD	1656954	wordpools/wasnorm_wordpool_576.txt	LTP115	ltpFR2	4	14	NIGHTGOWN	953	n/a	n/a	0	0	0
3314.792	n/a	REC_WORD	1657396	wordpools/wasnorm_wordpool_576.txt	LTP115	ltpFR2	4	14	PLAID	1080	n/a	n/a	0	0	0
3315.52	n/a	REC_WORD	1657760	wordpools/wasnorm_wordpool_576.txt	LTP115	ltpFR2	4	14	ZIPPER	1636	n/a	n/a	0	0	0
3317.244	n/a	REC_WORD	1658622	wordpools/wasnorm_wordpool_576.txt	LTP115	ltpFR2	4	14	HAND	683	n/a	n/a	0	0	0
3318.284	n/a	REC_WORD	1659142	wordpools/wasnorm_wordpool_576.txt	LTP115	ltpFR2	4	14	TILE	1468	n/a	n/a	0	0	0
3319.196	n/a	REC_WORD	1659598	wordpools/wasnorm_wordpool_576.txt	LTP115	ltpFR2	4	14	WRIST	1626	n/a	n/a	0	0	0
3325.236	n/a	REC_WORD	1662618	wordpools/wasnorm_wordpool_576.txt	LTP115	ltpFR2	4	14	POISON	1096	n/a	n/a	0	0	0
3329.35	n/a	REC_WORD	1664675	wordpools/wasnorm_wordpool_576.txt	LTP115	ltpFR2	4	14	SPOUSE	1358	n/a	n/a	0	0	0
3330.35	n/a	REC_WORD_VV	1665175	wordpools/wasnorm_wordpool_576.txt	LTP115	ltpFR2	4	14	<>	-1	n/a	n/a	0	0	0
3334.388	n/a	REC_WORD	1667194	wordpools/wasnorm_wordpool_576.txt	LTP115	ltpFR2	4	14	SPOUSE	1358	n/a	n/a	0	0	0
3334.868	n/a	REC_WORD_VV	1667434	wordpools/wasnorm_wordpool_576.txt	LTP115	ltpFR2	4	14	<>	-1	n/a	n/a	0	0	0
3344.666	n/a	REC_WORD	1672333	wordpools/wasnorm_wordpool_576.txt	LTP115	ltpFR2	4	14	LAKE	796	n/a	n/a	0	0	0
3346.266	n/a	REC_WORD	1673133	wordpools/wasnorm_wordpool_576.txt	LTP115	ltpFR2	4	14	SEAL	1262	n/a	n/a	0	0	0
3394.53	n/a	WORD	1697265	wordpools/wasnorm_wordpool_576.txt	LTP115	ltpFR2	4	15	MEAT	883	n/a	n/a	0	0	0
3397.234	n/a	WORD	1698617	wordpools/wasnorm_wordpool_576.txt	LTP115	ltpFR2	4	15	PROTON	1132	n/a	n/a	0	0	0
3399.716	n/a	WORD	1699858	wordpools/wasnorm_wordpool_576.txt	LTP115	ltpFR2	4	15	GALLON	618	n/a	n/a	0	0	0
3402.24	n/a	WORD	1701120	wordpools/wasnorm_wordpool_576.txt	LTP115	ltpFR2	4	15	IDOL	733	n/a	n/a	0	0	0
3404.696	n/a	WORD	1702348	wordpools/wasnorm_wordpool_576.txt	LTP115	ltpFR2	4	15	COCOON	339	n/a	n/a	0	0	0
3407.176	n/a	WORD	1703588	wordpools/wasnorm_wordpool_576.txt	LTP115	ltpFR2	4	15	BUG	187	n/a	n/a	0	0	0
3409.838	n/a	WORD	1704919	wordpools/wasnorm_wordpool_576.txt	LTP115	ltpFR2	4	15	BLADE	134	n/a	n/a	0	0	0
3412.38	n/a	WORD	1706190	wordpools/wasnorm_wordpool_576.txt	LTP115	ltpFR2	4	15	CORAL	378	n/a	n/a	0	0	0
3414.84	n/a	WORD	1707420	wordpools/wasnorm_wordpool_576.txt	LTP115	ltpFR2	4	15	LIGHTNING	820	n/a	n/a	0	0	0
3417.398	n/a	WORD	1708699	wordpools/wasnorm_wordpool_576.txt	LTP115	ltpFR2	4	15	CASHEW	253	n/a	n/a	0	0	0
3419.97	n/a	WORD	1709985	wordpools/wasnorm_wordpool_576.txt	LTP115	ltpFR2	4	15	STOVE	1388	n/a	n/a	0	0	0
3422.586	n/a	WORD	1711293	wordpools/wasnorm_wordpool_576.txt	LTP115	ltpFR2	4	15	TRANSPLANT	1496	n/a	n/a	0	0	0
3425.328	n/a	WORD	1712664	wordpools/wasnorm_wordpool_576.txt	LTP115	ltpFR2	4	15	STAR	1373	n/a	n/a	0	0	0
3427.938	n/a	WORD	1713969	wordpools/wasnorm_wordpool_576.txt	LTP115	ltpFR2	4	15	SCOTCH	1251	n/a	n/a	0	0	0
3430.532	n/a	WORD	1715266	wordpools/wasnorm_wordpool_576.txt	LTP115	ltpFR2	4	15	STREAM	1392	n/a	n/a	0	0	0
3433.058	n/a	WORD	1716529	wordpools/wasnorm_wordpool_576.txt	LTP115	ltpFR2	4	15	PARROT	1015	n/a	n/a	0	0	0
3435.704	n/a	WORD	1717852	wordpools/wasnorm_wordpool_576.txt	LTP115	ltpFR2	4	15	SEAGULL	1261	n/a	n/a	0	0	0
3438.158	n/a	WORD	1719079	wordpools/wasnorm_wordpool_576.txt	LTP115	ltpFR2	4	15	COIN	343	n/a	n/a	0	0	0
3440.634	n/a	WORD	1720317	wordpools/wasnorm_wordpool_576.txt	LTP115	ltpFR2	4	15	PIANO	1057	n/a	n/a	0	0	0
3443.214	n/a	WORD	1721607	wordpools/wasnorm_wordpool_576.txt	LTP115	ltpFR2	4	15	GAZELLE	628	n/a	n/a	0	0	0
3445.808	n/a	WORD	1722904	wordpools/wasnorm_wordpool_576.txt	LTP115	ltpFR2	4	15	KITCHEN	778	n/a	n/a	0	0	0
3448.602	n/a	WORD	1724301	wordpools/wasnorm_wordpool_576.txt	LTP115	ltpFR2	4	15	CONTRACT	368	n/a	n/a	0	0	0
3451.274	n/a	WORD	1725637	wordpools/wasnorm_wordpool_576.txt	LTP115	ltpFR2	4	15	SISTER	1312	n/a	n/a	0	0	0
3453.822	n/a	WORD	1726911	wordpools/wasnorm_wordpool_576.txt	LTP115	ltpFR2	4	15	SIBLING	1301	n/a	n/a	0	0	0
3455.428	n/a	START	1727714	n/a	LTP115	ltpFR2	4	n/a	n/a	n/a	22	n/a	n/a	n/a	n/a
3456.33	n/a	DISTRACTOR	1728165	n/a	LTP115	ltpFR2	4	15	n/a	n/a	n/a	n/a	0	0	0
3456.344	n/a	PROB	1728172	n/a	LTP115	ltpFR2	4	n/a	n/a	n/a	22	18	4	6	8
3459.188	n/a	PROB	1729594	n/a	LTP115	ltpFR2	4	n/a	n/a	n/a	22	23	9	5	9
3461.212	n/a	PROB	1730606	n/a	LTP115	ltpFR2	4	n/a	n/a	n/a	22	20	6	7	7
3462.818	n/a	PROB	1731409	n/a	LTP115	ltpFR2	4	n/a	n/a	n/a	22	18	4	8	6
3464.324	n/a	PROB	1732162	n/a	LTP115	ltpFR2	4	n/a	n/a	n/a	22	9	2	4	3
3466.23	n/a	PROB	1733115	n/a	LTP115	ltpFR2	4	n/a	n/a	n/a	22	12	2	9	1
3467.854	n/a	PROB	1733927	n/a	LTP115	ltpFR2	4	n/a	n/a	n/a	22	18	1	9	8
3469.076	n/a	PROB	1734538	n/a	LTP115	ltpFR2	4	n/a	n/a	n/a	22	8	4	2	2
3470.916	n/a	PROB	1735458	n/a	LTP115	ltpFR2	4	n/a	n/a	n/a	22	17	8	5	4
3473.09	n/a	PROB	1736545	n/a	LTP115	ltpFR2	4	n/a	n/a	n/a	22	12	1	3	8
3475.518	n/a	PROB	1737759	n/a	LTP115	ltpFR2	4	n/a	n/a	n/a	22	12	3	8	1
3476.922	n/a	PROB	1738461	n/a	LTP115	ltpFR2	4	n/a	n/a	n/a	22	11	3	1	7
3478.04	n/a	STOP	1739020	n/a	LTP115	ltpFR2	4	n/a	n/a	n/a	22	n/a	n/a	n/a	n/a
3481.29	n/a	REC_START	1740645	n/a	LTP115	ltpFR2	4	15	n/a	n/a	n/a	n/a	0	0	0
3481.976	n/a	REC_WORD	1740988	wordpools/wasnorm_wordpool_576.txt	LTP115	ltpFR2	4	15	SISTER	1312	n/a	n/a	0	0	0
3482.87	n/a	REC_WORD	1741435	wordpools/wasnorm_wordpool_576.txt	LTP115	ltpFR2	4	15	SIBLING	1301	n/a	n/a	0	0	0
3483.69	n/a	REC_WORD	1741845	wordpools/wasnorm_wordpool_576.txt	LTP115	ltpFR2	4	15	CONTRACT	368	n/a	n/a	0	0	0
3484.57	n/a	REC_WORD	1742285	wordpools/wasnorm_wordpool_576.txt	LTP115	ltpFR2	4	15	KITCHEN	778	n/a	n/a	0	0	0
3485.844	n/a	REC_WORD	1742922	wordpools/wasnorm_wordpool_576.txt	LTP115	ltpFR2	4	15	MEAT	883	n/a	n/a	0	0	0
3487.202	n/a	REC_WORD	1743601	wordpools/wasnorm_wordpool_576.txt	LTP115	ltpFR2	4	15	STAR	1373	n/a	n/a	0	0	0
3488.52	n/a	REC_WORD	1744260	wordpools/wasnorm_wordpool_576.txt	LTP115	ltpFR2	4	15	IDOL	733	n/a	n/a	0	0	0
3489.07	n/a	REC_WORD	1744535	wordpools/wasnorm_wordpool_576.txt	LTP115	ltpFR2	4	15	COCOON	339	n/a	n/a	0	0	0
3489.994	n/a	REC_WORD	1744997	wordpools/wasnorm_wordpool_576.txt	LTP115	ltpFR2	4	15	BLADE	134	n/a	n/a	0	0	0
3490.892	n/a	REC_WORD	1745446	wordpools/wasnorm_wordpool_576.txt	LTP115	ltpFR2	4	15	BUG	187	n/a	n/a	0	0	0
3491.856	n/a	REC_WORD	1745928	wordpools/wasnorm_wordpool_576.txt	LTP115	ltpFR2	4	15	LIGHTNING	820	n/a	n/a	0	0	0
3492.794	n/a	REC_WORD	1746397	wordpools/wasnorm_wordpool_576.txt	LTP115	ltpFR2	4	15	CASHEW	253	n/a	n/a	0	0	0
3494.416	n/a	REC_WORD	1747208	wordpools/wasnorm_wordpool_576.txt	LTP115	ltpFR2	4	15	STREAM	1392	n/a	n/a	0	0	0
3497.686	n/a	REC_WORD	1748843	wordpools/wasnorm_wordpool_576.txt	LTP115	ltpFR2	4	15	CORAL	378	n/a	n/a	0	0	0
3511.2	n/a	REC_WORD	1755600	wordpools/wasnorm_wordpool_576.txt	LTP115	ltpFR2	4	15	PROTON	1132	n/a	n/a	0	0	0
3512.618	n/a	REC_WORD	1756309	wordpools/wasnorm_wordpool_576.txt	LTP115	ltpFR2	4	15	GALLON	618	n/a	n/a	0	0	0
3572.308	n/a	DISTRACTOR	1786154	n/a	LTP115	ltpFR2	4	16	n/a	n/a	n/a	n/a	0	0	0
3572.308	n/a	START	1786154	n/a	LTP115	ltpFR2	4	n/a	n/a	n/a	23	n/a	n/a	n/a	n/a
3572.358	n/a	PROB	1786179	n/a	LTP115	ltpFR2	4	n/a	n/a	n/a	23	26	9	8	9
3576.808	n/a	PROB	1788404	n/a	LTP115	ltpFR2	4	n/a	n/a	n/a	23	9	3	4	2
3578.346	n/a	PROB	1789173	n/a	LTP115	ltpFR2	4	n/a	n/a	n/a	23	21	7	7	7
3579.452	n/a	PROB	1789726	n/a	LTP115	ltpFR2	4	n/a	n/a	n/a	23	13	8	2	3
3580.706	n/a	PROB	1790353	n/a	LTP115	ltpFR2	4	n/a	n/a	n/a	23	12	8	1	3
3582.408	n/a	PROB	1791204	n/a	LTP115	ltpFR2	4	n/a	n/a	n/a	23	15	7	1	7
3584.116	n/a	PROB	1792058	n/a	LTP115	ltpFR2	4	n/a	n/a	n/a	23	13	4	2	7
3585.458	n/a	PROB	1792729	n/a	LTP115	ltpFR2	4	n/a	n/a	n/a	23	12	2	4	6
3586.614	n/a	PROB	1793307	n/a	LTP115	ltpFR2	4	n/a	n/a	n/a	23	12	2	8	2
3587.852	n/a	PROB	1793926	n/a	LTP115	ltpFR2	4	n/a	n/a	n/a	23	10	3	6	1
3589.49	n/a	PROB	1794745	n/a	LTP115	ltpFR2	4	n/a	n/a	n/a	23	16	9	3	4
3590.842	n/a	PROB	1795421	n/a	LTP115	ltpFR2	4	n/a	n/a	n/a	23	12	3	2	7
3592.146	n/a	PROB	1796073	n/a	LTP115	ltpFR2	4	n/a	n/a	n/a	23	13	7	5	1
3593.89	n/a	PROB	1796945	n/a	LTP115	ltpFR2	4	n/a	n/a	n/a	23	18	7	2	9
3595.182	n/a	STOP	1797591	n/a	LTP115	ltpFR2	4	n/a	n/a	n/a	23	n/a	n/a	n/a	n/a
3597.504	n/a	WORD	1798752	wordpools/wasnorm_wordpool_576.txt	LTP115	ltpFR2	4	16	RACKET	1155	n/a	n/a	0	0	0
3599.93	n/a	WORD	1799965	wordpools/wasnorm_wordpool_576.txt	LTP115	ltpFR2	4	16	COURSE	390	n/a	n/a	0	0	0
3602.524	n/a	WORD	1801262	wordpools/wasnorm_wordpool_576.txt	LTP115	ltpFR2	4	16	EMPIRE	530	n/a	n/a	0	0	0
3605.116	n/a	WORD	1802558	wordpools/wasnorm_wordpool_576.txt	LTP115	ltpFR2	4	16	PUDDING	1139	n/a	n/a	0	0	0
3607.606	n/a	WORD	1803803	wordpools/wasnorm_wordpool_576.txt	LTP115	ltpFR2	4	16	MISTER	901	n/a	n/a	0	0	0
3610.182	n/a	WORD	1805091	wordpools/wasnorm_wordpool_576.txt	LTP115	ltpFR2	4	16	MARSH	874	n/a	n/a	0	0	0
3612.974	n/a	WORD	1806487	wordpools/wasnorm_wordpool_576.txt	LTP115	ltpFR2	4	16	UMPIRE	1535	n/a	n/a	0	0	0
3615.69	n/a	WORD	1807845	wordpools/wasnorm_wordpool_576.txt	LTP115	ltpFR2	4	16	SUNSET	1408	n/a	n/a	0	0	0
3618.418	n/a	WORD	1809209	wordpools/wasnorm_wordpool_576.txt	LTP115	ltpFR2	4	16	APPLE	33	n/a	n/a	0	0	0
3620.894	n/a	WORD	1810447	wordpools/wasnorm_wordpool_576.txt	LTP115	ltpFR2	4	16	VAGRANT	1544	n/a	n/a	0	0	0
3623.622	n/a	WORD	1811811	wordpools/wasnorm_wordpool_576.txt	LTP115	ltpFR2	4	16	WOMAN	1620	n/a	n/a	0	0	0
3626.38	n/a	WORD	1813190	wordpools/wasnorm_wordpool_576.txt	LTP115	ltpFR2	4	16	NECKLACE	940	n/a	n/a	0	0	0
3628.99	n/a	WORD	1814495	wordpools/wasnorm_wordpool_576.txt	LTP115	ltpFR2	4	16	TRIBE	1505	n/a	n/a	0	0	0
3631.546	n/a	WORD	1815773	wordpools/wasnorm_wordpool_576.txt	LTP115	ltpFR2	4	16	BUCKET	184	n/a	n/a	0	0	0
3634.294	n/a	WORD	1817147	wordpools/wasnorm_wordpool_576.txt	LTP115	ltpFR2	4	16	DUSTPAN	509	n/a	n/a	0	0	0
3636.902	n/a	WORD	1818451	wordpools/wasnorm_wordpool_576.txt	LTP115	ltpFR2	4	16	HOOD	714	n/a	n/a	0	0	0
3639.432	n/a	WORD	1819716	wordpools/wasnorm_wordpool_576.txt	LTP115	ltpFR2	4	16	GAVEL	627	n/a	n/a	0	0	0
3641.94	n/a	WORD	1820970	wordpools/wasnorm_wordpool_576.txt	LTP115	ltpFR2	4	16	COSTUME	383	n/a	n/a	0	0	0
3644.602	n/a	WORD	1822301	wordpools/wasnorm_wordpool_576.txt	LTP115	ltpFR2	4	16	WARDROBE	1587	n/a	n/a	0	0	0
3647.36	n/a	WORD	1823680	wordpools/wasnorm_wordpool_576.txt	LTP115	ltpFR2	4	16	HIKER	708	n/a	n/a	0	0	0
3649.904	n/a	WORD	1824952	wordpools/wasnorm_wordpool_576.txt	LTP115	ltpFR2	4	16	BLACKBOARD	133	n/a	n/a	0	0	0
3652.51	n/a	WORD	1826255	wordpools/wasnorm_wordpool_576.txt	LTP115	ltpFR2	4	16	SCRIBBLE	1256	n/a	n/a	0	0	0
3655.324	n/a	WORD	1827662	wordpools/wasnorm_wordpool_576.txt	LTP115	ltpFR2	4	16	CUSTARD	429	n/a	n/a	0	0	0
3658.064	n/a	WORD	1829032	wordpools/wasnorm_wordpool_576.txt	LTP115	ltpFR2	4	16	JELLO	754	n/a	n/a	0	0	0
3659.676	n/a	START	1829838	n/a	LTP115	ltpFR2	4	n/a	n/a	n/a	24	n/a	n/a	n/a	n/a
3660.698	n/a	DISTRACTOR	1830349	n/a	LTP115	ltpFR2	4	16	n/a	n/a	n/a	n/a	0	0	0
3660.714	n/a	PROB	1830357	n/a	LTP115	ltpFR2	4	n/a	n/a	n/a	24	18	9	8	1
3662.134	n/a	PROB	1831067	n/a	LTP115	ltpFR2	4	n/a	n/a	n/a	24	15	9	2	4
3664.31	n/a	PROB	1832155	n/a	LTP115	ltpFR2	4	n/a	n/a	n/a	24	15	9	1	5
3665.392	n/a	PROB	1832696	n/a	LTP115	ltpFR2	4	n/a	n/a	n/a	24	18	7	6	5
3666.682	n/a	PROB	1833341	n/a	LTP115	ltpFR2	4	n/a	n/a	n/a	24	11	3	5	3
3668.454	n/a	PROB	1834227	n/a	LTP115	ltpFR2	4	n/a	n/a	n/a	24	7	1	1	5
3669.542	n/a	PROB	1834771	n/a	LTP115	ltpFR2	4	n/a	n/a	n/a	24	23	8	9	6
3671.452	n/a	PROB	1835726	n/a	LTP115	ltpFR2	4	n/a	n/a	n/a	24	17	7	3	7
3672.92	n/a	PROB	1836460	n/a	LTP115	ltpFR2	4	n/a	n/a	n/a	24	18	9	3	6
3674.276	n/a	PROB	1837138	n/a	LTP115	ltpFR2	4	n/a	n/a	n/a	24	18	8	7	3
3675.632	n/a	PROB	1837816	n/a	LTP115	ltpFR2	4	n/a	n/a	n/a	24	16	2	9	5
3677.024	n/a	PROB	1838512	n/a	LTP115	ltpFR2	4	n/a	n/a	n/a	24	11	3	2	6
3678.208	n/a	PROB	1839104	n/a	LTP115	ltpFR2	4	n/a	n/a	n/a	24	7	5	1	1
3679.48	n/a	PROB	1839740	n/a	LTP115	ltpFR2	4	n/a	n/a	n/a	24	21	8	4	9
3680.886	n/a	PROB	1840443	n/a	LTP115	ltpFR2	4	n/a	n/a	n/a	24	9	6	2	1
3682.508	n/a	STOP	1841254	n/a	LTP115	ltpFR2	4	n/a	n/a	n/a	24	n/a	n/a	n/a	n/a
3685.44	n/a	REC_START	1842720	n/a	LTP115	ltpFR2	4	16	n/a	n/a	n/a	n/a	0	0	0
3686.102	n/a	REC_WORD	1843051	wordpools/wasnorm_wordpool_576.txt	LTP115	ltpFR2	4	16	VAGRANT	1544	n/a	n/a	0	0	0
3688.312	n/a	REC_WORD	1844156	wordpools/wasnorm_wordpool_576.txt	LTP115	ltpFR2	4	16	WIFE	1609	n/a	n/a	0	0	0
3693.04	n/a	REC_WORD	1846520	wordpools/wasnorm_wordpool_576.txt	LTP115	ltpFR2	4	16	EMPIRE	530	n/a	n/a	0	0	0
3693.94	n/a	REC_WORD	1846970	wordpools/wasnorm_wordpool_576.txt	LTP115	ltpFR2	4	16	UMPIRE	1535	n/a	n/a	0	0	0
3694.906	n/a	REC_WORD	1847453	wordpools/wasnorm_wordpool_576.txt	LTP115	ltpFR2	4	16	JELLO	754	n/a	n/a	0	0	0
3696.15	n/a	REC_WORD	1848075	wordpools/wasnorm_wordpool_576.txt	LTP115	ltpFR2	4	16	MISTER	901	n/a	n/a	0	0	0
3697.818	n/a	REC_WORD	1848909	wordpools/wasnorm_wordpool_576.txt	LTP115	ltpFR2	4	16	CUSTARD	429	n/a	n/a	0	0	0
3699.184	n/a	REC_WORD	1849592	wordpools/wasnorm_wordpool_576.txt	LTP115	ltpFR2	4	16	PUDDING	1139	n/a	n/a	0	0	0
3702.29	n/a	REC_WORD	1851145	wordpools/wasnorm_wordpool_576.txt	LTP115	ltpFR2	4	16	RACKET	1155	n/a	n/a	0	0	0
3704.74	n/a	REC_WORD	1852370	wordpools/wasnorm_wordpool_576.txt	LTP115	ltpFR2	4	16	COURSE	390	n/a	n/a	0	0	0
3706.82	n/a	REC_WORD	1853410	wordpools/wasnorm_wordpool_576.txt	LTP115	ltpFR2	4	16	APPLE	33	n/a	n/a	0	0	0
3716.642	n/a	REC_WORD	1858321	wordpools/wasnorm_wordpool_576.txt	LTP115	ltpFR2	4	16	NECKLACE	940	n/a	n/a	0	0	0
3719.86	n/a	REC_WORD	1859930	wordpools/wasnorm_wordpool_576.txt	LTP115	ltpFR2	4	16	HOOD	714	n/a	n/a	0	0	0
3723.316	n/a	REC_WORD	1861658	wordpools/wasnorm_wordpool_576.txt	LTP115	ltpFR2	4	16	SUNSET	1408	n/a	n/a	0	0	0
3724.316	n/a	REC_WORD_VV	1862158	wordpools/wasnorm_wordpool_576.txt	LTP115	ltpFR2	4	16	<>	-1	n/a	n/a	0	0	0
3733.388	n/a	REC_WORD	1866694	wordpools/wasnorm_wordpool_576.txt	LTP115	ltpFR2	4	16	EUROPE	541	n/a	n/a	0	0	0
3750.802	n/a	REC_WORD	1875401	wordpools/wasnorm_wordpool_576.txt	LTP115	ltpFR2	4	16	GAVEL	627	n/a	n/a	0	0	0
3762.228	n/a	REST_REWET	1881114	n/a	LTP115	ltpFR2	4	16	n/a	n/a	n/a	n/a	0	0	0
4195.658	n/a	DISTRACTOR	2097829	n/a	LTP115	ltpFR2	4	17	n/a	n/a	n/a	n/a	0	0	0
4195.658	n/a	START	2097829	n/a	LTP115	ltpFR2	4	n/a	n/a	n/a	25	n/a	n/a	n/a	n/a
4195.708	n/a	PROB	2097854	n/a	LTP115	ltpFR2	4	n/a	n/a	n/a	25	10	6	3	1
4197.042	n/a	PROB	2098521	n/a	LTP115	ltpFR2	4	n/a	n/a	n/a	25	14	4	2	8
