onset	duration	trial_type	sample	stim_file	subject	experiment	session	trial	item_name	item_num	list	answer	test_x	test_y	test_z
268.618	n/a	SESS_START	134309	n/a	LTP298	ltpFR2	8	n/a	n/a	n/a	n/a	n/a	0	0	0
302.038	n/a	START	151019	n/a	LTP298	ltpFR2	8	n/a	n/a	n/a	-1	n/a	n/a	n/a	n/a
302.054	n/a	PROB	151027	n/a	LTP298	ltpFR2	8	n/a	n/a	n/a	-1	12	6	3	3
304.688	n/a	PROB	152344	n/a	LTP298	ltpFR2	8	n/a	n/a	n/a	-1	16	9	2	5
306.972	n/a	PROB	153486	n/a	LTP298	ltpFR2	8	n/a	n/a	n/a	-1	16	5	9	2
308.708	n/a	PROB	154354	n/a	LTP298	ltpFR2	8	n/a	n/a	n/a	-1	21	5	8	8
314.038	n/a	STOP	157019	n/a	LTP298	ltpFR2	8	n/a	n/a	n/a	-1	n/a	n/a	n/a	n/a
351.61	n/a	DISTRACTOR	175805	n/a	LTP298	ltpFR2	8	1	n/a	n/a	n/a	n/a	0	0	0
351.61	n/a	START	175805	n/a	LTP298	ltpFR2	8	n/a	n/a	n/a	1	n/a	n/a	n/a	n/a
351.624	n/a	PROB	175812	n/a	LTP298	ltpFR2	8	n/a	n/a	n/a	1	9	4	1	4
354.38	n/a	PROB	177190	n/a	LTP298	ltpFR2	8	n/a	n/a	n/a	1	18	9	7	2
357.782	n/a	PROB	178891	n/a	LTP298	ltpFR2	8	n/a	n/a	n/a	1	18	3	6	9
362.584	n/a	PROB	181292	n/a	LTP298	ltpFR2	8	n/a	n/a	n/a	1	8	2	2	3
367.62	n/a	PROB	183810	n/a	LTP298	ltpFR2	8	n/a	n/a	n/a	1	13	5	6	2
374.71	n/a	STOP	187355	n/a	LTP298	ltpFR2	8	n/a	n/a	n/a	1	n/a	n/a	n/a	n/a
376.526	n/a	WORD	188263	wordpools/wasnorm_wordpool_576.txt	LTP298	ltpFR2	8	1	SLOPE	1328	n/a	n/a	0	0	0
379.146	n/a	WORD	189573	wordpools/wasnorm_wordpool_576.txt	LTP298	ltpFR2	8	1	VAGRANT	1544	n/a	n/a	0	0	0
381.898	n/a	WORD	190949	wordpools/wasnorm_wordpool_576.txt	LTP298	ltpFR2	8	1	XEROX	1628	n/a	n/a	0	0	0
384.518	n/a	WORD	192259	wordpools/wasnorm_wordpool_576.txt	LTP298	ltpFR2	8	1	PRINCE	1124	n/a	n/a	0	0	0
387.02	n/a	WORD	193510	wordpools/wasnorm_wordpool_576.txt	LTP298	ltpFR2	8	1	ITEM	746	n/a	n/a	0	0	0
389.622	n/a	WORD	194811	wordpools/wasnorm_wordpool_576.txt	LTP298	ltpFR2	8	1	NEUTRON	947	n/a	n/a	0	0	0
392.292	n/a	WORD	196146	wordpools/wasnorm_wordpool_576.txt	LTP298	ltpFR2	8	1	DORM	488	n/a	n/a	0	0	0
394.96	n/a	WORD	197480	wordpools/wasnorm_wordpool_576.txt	LTP298	ltpFR2	8	1	HEDGE	699	n/a	n/a	0	0	0
397.68	n/a	WORD	198840	wordpools/wasnorm_wordpool_576.txt	LTP298	ltpFR2	8	1	SCISSORS	1250	n/a	n/a	0	0	0
400.382	n/a	WORD	200191	wordpools/wasnorm_wordpool_576.txt	LTP298	ltpFR2	8	1	BACON	67	n/a	n/a	0	0	0
402.884	n/a	WORD	201442	wordpools/wasnorm_wordpool_576.txt	LTP298	ltpFR2	8	1	OMELET	976	n/a	n/a	0	0	0
405.634	n/a	WORD	202817	wordpools/wasnorm_wordpool_576.txt	LTP298	ltpFR2	8	1	LODGE	839	n/a	n/a	0	0	0
408.372	n/a	WORD	204186	wordpools/wasnorm_wordpool_576.txt	LTP298	ltpFR2	8	1	CABIN	211	n/a	n/a	0	0	0
410.872	n/a	WORD	205436	wordpools/wasnorm_wordpool_576.txt	LTP298	ltpFR2	8	1	SPOUSE	1358	n/a	n/a	0	0	0
413.51	n/a	WORD	206755	wordpools/wasnorm_wordpool_576.txt	LTP298	ltpFR2	8	1	BLADE	134	n/a	n/a	0	0	0
416.06	n/a	WORD	208030	wordpools/wasnorm_wordpool_576.txt	LTP298	ltpFR2	8	1	SCALPEL	1243	n/a	n/a	0	0	0
418.646	n/a	WORD	209323	wordpools/wasnorm_wordpool_576.txt	LTP298	ltpFR2	8	1	FRUIT	610	n/a	n/a	0	0	0
421.08	n/a	WORD	210540	wordpools/wasnorm_wordpool_576.txt	LTP298	ltpFR2	8	1	WASHER	1592	n/a	n/a	0	0	0
423.902	n/a	WORD	211951	wordpools/wasnorm_wordpool_576.txt	LTP298	ltpFR2	8	1	WIFE	1609	n/a	n/a	0	0	0
426.686	n/a	WORD	213343	wordpools/wasnorm_wordpool_576.txt	LTP298	ltpFR2	8	1	VALVE	1546	n/a	n/a	0	0	0
429.472	n/a	WORD	214736	wordpools/wasnorm_wordpool_576.txt	LTP298	ltpFR2	8	1	JAPAN	749	n/a	n/a	0	0	0
431.99	n/a	WORD	215995	wordpools/wasnorm_wordpool_576.txt	LTP298	ltpFR2	8	1	JURY	766	n/a	n/a	0	0	0
434.676	n/a	WORD	217338	wordpools/wasnorm_wordpool_576.txt	LTP298	ltpFR2	8	1	RAFT	1159	n/a	n/a	0	0	0
437.144	n/a	WORD	218572	wordpools/wasnorm_wordpool_576.txt	LTP298	ltpFR2	8	1	PALACE	1006	n/a	n/a	0	0	0
438.762	n/a	START	219381	n/a	LTP298	ltpFR2	8	n/a	n/a	n/a	2	n/a	n/a	n/a	n/a
439.876	n/a	DISTRACTOR	219938	n/a	LTP298	ltpFR2	8	1	n/a	n/a	n/a	n/a	0	0	0
439.882	n/a	PROB	219941	n/a	LTP298	ltpFR2	8	n/a	n/a	n/a	2	10	2	4	4
446.4	n/a	PROB	223200	n/a	LTP298	ltpFR2	8	n/a	n/a	n/a	2	14	1	7	6
448.718	n/a	PROB	224359	n/a	LTP298	ltpFR2	8	n/a	n/a	n/a	2	11	3	7	1
450.536	n/a	PROB	225268	n/a	LTP298	ltpFR2	8	n/a	n/a	n/a	2	13	4	8	1
453.022	n/a	PROB	226511	n/a	LTP298	ltpFR2	8	n/a	n/a	n/a	2	13	2	9	2
455.476	n/a	PROB	227738	n/a	LTP298	ltpFR2	8	n/a	n/a	n/a	2	10	2	4	4
457.66	n/a	PROB	228830	n/a	LTP298	ltpFR2	8	n/a	n/a	n/a	2	15	9	2	4
459.944	n/a	PROB	229972	n/a	LTP298	ltpFR2	8	n/a	n/a	n/a	2	12	2	3	7
462.09	n/a	STOP	231045	n/a	LTP298	ltpFR2	8	n/a	n/a	n/a	2	n/a	n/a	n/a	n/a
464.566	n/a	REC_START	232283	n/a	LTP298	ltpFR2	8	1	n/a	n/a	n/a	n/a	0	0	0
465.63	n/a	REC_WORD	232815	wordpools/wasnorm_wordpool_576.txt	LTP298	ltpFR2	8	1	SLOPE	1328	n/a	n/a	0	0	0
467.154	n/a	REC_WORD	233577	wordpools/wasnorm_wordpool_576.txt	LTP298	ltpFR2	8	1	VAGRANT	1544	n/a	n/a	0	0	0
470.566	n/a	REC_WORD	235283	wordpools/wasnorm_wordpool_576.txt	LTP298	ltpFR2	8	1	XEROX	1628	n/a	n/a	0	0	0
472.21	n/a	REC_WORD	236105	wordpools/wasnorm_wordpool_576.txt	LTP298	ltpFR2	8	1	PRINCE	1124	n/a	n/a	0	0	0
476.046	n/a	REC_WORD	238023	wordpools/wasnorm_wordpool_576.txt	LTP298	ltpFR2	8	1	ITEM	746	n/a	n/a	0	0	0
478.944	n/a	REC_WORD	239472	wordpools/wasnorm_wordpool_576.txt	LTP298	ltpFR2	8	1	NEUTRON	947	n/a	n/a	0	0	0
480.154	n/a	REC_WORD	240077	wordpools/wasnorm_wordpool_576.txt	LTP298	ltpFR2	8	1	DORM	488	n/a	n/a	0	0	0
482.154	n/a	REC_WORD	241077	wordpools/wasnorm_wordpool_576.txt	LTP298	ltpFR2	8	1	HEDGE	699	n/a	n/a	0	0	0
483.214	n/a	REC_WORD	241607	wordpools/wasnorm_wordpool_576.txt	LTP298	ltpFR2	8	1	SCISSORS	1250	n/a	n/a	0	0	0
485.46	n/a	REC_WORD	242730	wordpools/wasnorm_wordpool_576.txt	LTP298	ltpFR2	8	1	BACON	67	n/a	n/a	0	0	0
486.91	n/a	REC_WORD	243455	wordpools/wasnorm_wordpool_576.txt	LTP298	ltpFR2	8	1	OMELET	976	n/a	n/a	0	0	0
489.19	n/a	REC_WORD	244595	wordpools/wasnorm_wordpool_576.txt	LTP298	ltpFR2	8	1	SPOUSE	1358	n/a	n/a	0	0	0
492.084	n/a	REC_WORD	246042	wordpools/wasnorm_wordpool_576.txt	LTP298	ltpFR2	8	1	BLADE	134	n/a	n/a	0	0	0
492.902	n/a	REC_WORD	246451	wordpools/wasnorm_wordpool_576.txt	LTP298	ltpFR2	8	1	SCALPEL	1243	n/a	n/a	0	0	0
494.174	n/a	REC_WORD	247087	wordpools/wasnorm_wordpool_576.txt	LTP298	ltpFR2	8	1	FRUIT	610	n/a	n/a	0	0	0
500.65	n/a	REC_WORD	250325	wordpools/wasnorm_wordpool_576.txt	LTP298	ltpFR2	8	1	WASHER	1592	n/a	n/a	0	0	0
501.682	n/a	REC_WORD	250841	wordpools/wasnorm_wordpool_576.txt	LTP298	ltpFR2	8	1	WIFE	1609	n/a	n/a	0	0	0
502.622	n/a	REC_WORD	251311	wordpools/wasnorm_wordpool_576.txt	LTP298	ltpFR2	8	1	VALVE	1546	n/a	n/a	0	0	0
503.478	n/a	REC_WORD	251739	wordpools/wasnorm_wordpool_576.txt	LTP298	ltpFR2	8	1	JAPAN	749	n/a	n/a	0	0	0
504.612	n/a	REC_WORD	252306	wordpools/wasnorm_wordpool_576.txt	LTP298	ltpFR2	8	1	JURY	766	n/a	n/a	0	0	0
506.63	n/a	REC_WORD	253315	wordpools/wasnorm_wordpool_576.txt	LTP298	ltpFR2	8	1	RAFT	1159	n/a	n/a	0	0	0
507.838	n/a	REC_WORD	253919	wordpools/wasnorm_wordpool_576.txt	LTP298	ltpFR2	8	1	PALACE	1006	n/a	n/a	0	0	0
554.988	n/a	DISTRACTOR	277494	n/a	LTP298	ltpFR2	8	2	n/a	n/a	n/a	n/a	0	0	0
554.988	n/a	START	277494	n/a	LTP298	ltpFR2	8	n/a	n/a	n/a	3	n/a	n/a	n/a	n/a
555.002	n/a	PROB	277501	n/a	LTP298	ltpFR2	8	n/a	n/a	n/a	3	11	2	3	6
558.74	n/a	PROB	279370	n/a	LTP298	ltpFR2	8	n/a	n/a	n/a	3	13	2	2	9
561.776	n/a	PROB	280888	n/a	LTP298	ltpFR2	8	n/a	n/a	n/a	3	23	7	8	8
569.25	n/a	PROB	284625	n/a	LTP298	ltpFR2	8	n/a	n/a	n/a	3	11	2	5	4
572.9	n/a	PROB	286450	n/a	LTP298	ltpFR2	8	n/a	n/a	n/a	3	12	8	8	4
578.988	n/a	STOP	289494	n/a	LTP298	ltpFR2	8	n/a	n/a	n/a	3	n/a	n/a	n/a	n/a
580.102	n/a	WORD	290051	wordpools/wasnorm_wordpool_576.txt	LTP298	ltpFR2	8	2	BLOCKADE	137	n/a	n/a	0	0	0
582.554	n/a	WORD	291277	wordpools/wasnorm_wordpool_576.txt	LTP298	ltpFR2	8	2	BRAKE	166	n/a	n/a	0	0	0
585.006	n/a	WORD	292503	wordpools/wasnorm_wordpool_576.txt	LTP298	ltpFR2	8	2	DRIVER	499	n/a	n/a	0	0	0
587.592	n/a	WORD	293796	wordpools/wasnorm_wordpool_576.txt	LTP298	ltpFR2	8	2	SERVER	1272	n/a	n/a	0	0	0
590.244	n/a	WORD	295122	wordpools/wasnorm_wordpool_576.txt	LTP298	ltpFR2	8	2	WORLD	1622	n/a	n/a	0	0	0
592.886	n/a	WORD	296443	wordpools/wasnorm_wordpool_576.txt	LTP298	ltpFR2	8	2	AWARD	63	n/a	n/a	0	0	0
595.388	n/a	WORD	297694	wordpools/wasnorm_wordpool_576.txt	LTP298	ltpFR2	8	2	BLUEPRINT	142	n/a	n/a	0	0	0
598.084	n/a	WORD	299042	wordpools/wasnorm_wordpool_576.txt	LTP298	ltpFR2	8	2	STOVE	1388	n/a	n/a	0	0	0
600.724	n/a	WORD	300362	wordpools/wasnorm_wordpool_576.txt	LTP298	ltpFR2	8	2	HIKER	708	n/a	n/a	0	0	0
603.21	n/a	WORD	301605	wordpools/wasnorm_wordpool_576.txt	LTP298	ltpFR2	8	2	COUNTRY	388	n/a	n/a	0	0	0
605.762	n/a	WORD	302881	wordpools/wasnorm_wordpool_576.txt	LTP298	ltpFR2	8	2	TRIBE	1505	n/a	n/a	0	0	0
608.58	n/a	WORD	304290	wordpools/wasnorm_wordpool_576.txt	LTP298	ltpFR2	8	2	PARENT	1013	n/a	n/a	0	0	0
611.062	n/a	WORD	305531	wordpools/wasnorm_wordpool_576.txt	LTP298	ltpFR2	8	2	SISTER	1312	n/a	n/a	0	0	0
613.514	n/a	WORD	306757	wordpools/wasnorm_wordpool_576.txt	LTP298	ltpFR2	8	2	SUMMIT	1405	n/a	n/a	0	0	0
616.186	n/a	WORD	308093	wordpools/wasnorm_wordpool_576.txt	LTP298	ltpFR2	8	2	GROUND	666	n/a	n/a	0	0	0
618.618	n/a	WORD	309309	wordpools/wasnorm_wordpool_576.txt	LTP298	ltpFR2	8	2	FRAME	600	n/a	n/a	0	0	0
621.204	n/a	WORD	310602	wordpools/wasnorm_wordpool_576.txt	LTP298	ltpFR2	8	2	LADDER	793	n/a	n/a	0	0	0
623.742	n/a	WORD	311871	wordpools/wasnorm_wordpool_576.txt	LTP298	ltpFR2	8	2	DIME	466	n/a	n/a	0	0	0
626.378	n/a	WORD	313189	wordpools/wasnorm_wordpool_576.txt	LTP298	ltpFR2	8	2	ARM	38	n/a	n/a	0	0	0
629.078	n/a	WORD	314539	wordpools/wasnorm_wordpool_576.txt	LTP298	ltpFR2	8	2	TOASTER	1472	n/a	n/a	0	0	0
631.764	n/a	WORD	315882	wordpools/wasnorm_wordpool_576.txt	LTP298	ltpFR2	8	2	CABBAGE	210	n/a	n/a	0	0	0
634.316	n/a	WORD	317158	wordpools/wasnorm_wordpool_576.txt	LTP298	ltpFR2	8	2	OUTLAW	989	n/a	n/a	0	0	0
637.034	n/a	WORD	318517	wordpools/wasnorm_wordpool_576.txt	LTP298	ltpFR2	8	2	VICTIM	1562	n/a	n/a	0	0	0
639.554	n/a	WORD	319777	wordpools/wasnorm_wordpool_576.txt	LTP298	ltpFR2	8	2	SEAFOOD	1260	n/a	n/a	0	0	0
641.174	n/a	START	320587	n/a	LTP298	ltpFR2	8	n/a	n/a	n/a	4	n/a	n/a	n/a	n/a
642.178	n/a	DISTRACTOR	321089	n/a	LTP298	ltpFR2	8	2	n/a	n/a	n/a	n/a	0	0	0
642.19	n/a	PROB	321095	n/a	LTP298	ltpFR2	8	n/a	n/a	n/a	4	18	8	1	9
644.526	n/a	PROB	322263	n/a	LTP298	ltpFR2	8	n/a	n/a	n/a	4	17	7	3	7
647.276	n/a	PROB	323638	n/a	LTP298	ltpFR2	8	n/a	n/a	n/a	4	16	6	7	3
651.278	n/a	PROB	325639	n/a	LTP298	ltpFR2	8	n/a	n/a	n/a	4	22	8	7	7
654.382	n/a	PROB	327191	n/a	LTP298	ltpFR2	8	n/a	n/a	n/a	4	21	7	8	6
657.452	n/a	PROB	328726	n/a	LTP298	ltpFR2	8	n/a	n/a	n/a	4	16	6	9	1
659.252	n/a	PROB	329626	n/a	LTP298	ltpFR2	8	n/a	n/a	n/a	4	17	9	2	6
665.174	n/a	STOP	332587	n/a	LTP298	ltpFR2	8	n/a	n/a	n/a	4	n/a	n/a	n/a	n/a
667.06	n/a	REC_START	333530	n/a	LTP298	ltpFR2	8	2	n/a	n/a	n/a	n/a	0	0	0
668.216	n/a	REC_WORD	334108	wordpools/wasnorm_wordpool_576.txt	LTP298	ltpFR2	8	2	BLOCKADE	137	n/a	n/a	0	0	0
669.488	n/a	REC_WORD	334744	wordpools/wasnorm_wordpool_576.txt	LTP298	ltpFR2	8	2	BRAKE	166	n/a	n/a	0	0	0
670.438	n/a	REC_WORD	335219	wordpools/wasnorm_wordpool_576.txt	LTP298	ltpFR2	8	2	DRIVER	499	n/a	n/a	0	0	0
672.372	n/a	REC_WORD	336186	wordpools/wasnorm_wordpool_576.txt	LTP298	ltpFR2	8	2	SERVER	1272	n/a	n/a	0	0	0
673.776	n/a	REC_WORD	336888	wordpools/wasnorm_wordpool_576.txt	LTP298	ltpFR2	8	2	WORLD	1622	n/a	n/a	0	0	0
675.958	n/a	REC_WORD	337979	wordpools/wasnorm_wordpool_576.txt	LTP298	ltpFR2	8	2	AWARD	63	n/a	n/a	0	0	0
684.074	n/a	REC_WORD	342037	wordpools/wasnorm_wordpool_576.txt	LTP298	ltpFR2	8	2	DIME	466	n/a	n/a	0	0	0
686.082	n/a	REC_WORD	343041	wordpools/wasnorm_wordpool_576.txt	LTP298	ltpFR2	8	2	TOASTER	1472	n/a	n/a	0	0	0
686.97	n/a	REC_WORD	343485	wordpools/wasnorm_wordpool_576.txt	LTP298	ltpFR2	8	2	ARM	38	n/a	n/a	0	0	0
687.792	n/a	REC_WORD	343896	wordpools/wasnorm_wordpool_576.txt	LTP298	ltpFR2	8	2	CABBAGE	210	n/a	n/a	0	0	0
701.012	n/a	REC_WORD	350506	wordpools/wasnorm_wordpool_576.txt	LTP298	ltpFR2	8	2	OUTLAW	989	n/a	n/a	0	0	0
701.726	n/a	REC_WORD	350863	wordpools/wasnorm_wordpool_576.txt	LTP298	ltpFR2	8	2	VICTIM	1562	n/a	n/a	0	0	0
702.218	n/a	REC_WORD	351109	wordpools/wasnorm_wordpool_576.txt	LTP298	ltpFR2	8	2	SEAFOOD	1260	n/a	n/a	0	0	0
757.5	n/a	WORD	378750	wordpools/wasnorm_wordpool_576.txt	LTP298	ltpFR2	8	3	RECORD	1176	n/a	n/a	0	0	0
760.14	n/a	WORD	380070	wordpools/wasnorm_wordpool_576.txt	LTP298	ltpFR2	8	3	BLOUSE	139	n/a	n/a	0	0	0
762.66	n/a	WORD	381330	wordpools/wasnorm_wordpool_576.txt	LTP298	ltpFR2	8	3	FIREPLACE	570	n/a	n/a	0	0	0
765.39	n/a	WORD	382695	wordpools/wasnorm_wordpool_576.txt	LTP298	ltpFR2	8	3	SHELTER	1282	n/a	n/a	0	0	0
768.174	n/a	WORD	384087	wordpools/wasnorm_wordpool_576.txt	LTP298	ltpFR2	8	3	TILE	1468	n/a	n/a	0	0	0
770.8	n/a	WORD	385400	wordpools/wasnorm_wordpool_576.txt	LTP298	ltpFR2	8	3	RABBIT	1152	n/a	n/a	0	0	0
773.252	n/a	WORD	386626	wordpools/wasnorm_wordpool_576.txt	LTP298	ltpFR2	8	3	HARP	689	n/a	n/a	0	0	0
775.796	n/a	WORD	387898	wordpools/wasnorm_wordpool_576.txt	LTP298	ltpFR2	8	3	PERCH	1048	n/a	n/a	0	0	0
778.34	n/a	WORD	389170	wordpools/wasnorm_wordpool_576.txt	LTP298	ltpFR2	8	3	CROSS	413	n/a	n/a	0	0	0
780.842	n/a	WORD	390421	wordpools/wasnorm_wordpool_576.txt	LTP298	ltpFR2	8	3	TORTOISE	1486	n/a	n/a	0	0	0
783.302	n/a	WORD	391651	wordpools/wasnorm_wordpool_576.txt	LTP298	ltpFR2	8	3	HELMET	702	n/a	n/a	0	0	0
785.83	n/a	WORD	392915	wordpools/wasnorm_wordpool_576.txt	LTP298	ltpFR2	8	3	PLASTER	1085	n/a	n/a	0	0	0
788.506	n/a	WORD	394253	wordpools/wasnorm_wordpool_576.txt	LTP298	ltpFR2	8	3	FRIAR	605	n/a	n/a	0	0	0
791.284	n/a	WORD	395642	wordpools/wasnorm_wordpool_576.txt	LTP298	ltpFR2	8	3	COSTUME	383	n/a	n/a	0	0	0
794.01	n/a	WORD	397005	wordpools/wasnorm_wordpool_576.txt	LTP298	ltpFR2	8	3	DRESS	495	n/a	n/a	0	0	0
796.79	n/a	WORD	398395	wordpools/wasnorm_wordpool_576.txt	LTP298	ltpFR2	8	3	OFFICE	972	n/a	n/a	0	0	0
799.392	n/a	WORD	399696	wordpools/wasnorm_wordpool_576.txt	LTP298	ltpFR2	8	3	LADY	794	n/a	n/a	0	0	0
802.084	n/a	WORD	401042	wordpools/wasnorm_wordpool_576.txt	LTP298	ltpFR2	8	3	EXPERT	543	n/a	n/a	0	0	0
804.746	n/a	WORD	402373	wordpools/wasnorm_wordpool_576.txt	LTP298	ltpFR2	8	3	SALT	1229	n/a	n/a	0	0	0
807.4	n/a	WORD	403700	wordpools/wasnorm_wordpool_576.txt	LTP298	ltpFR2	8	3	FLAG	573	n/a	n/a	0	0	0
810.056	n/a	WORD	405028	wordpools/wasnorm_wordpool_576.txt	LTP298	ltpFR2	8	3	DIVER	476	n/a	n/a	0	0	0
812.504	n/a	WORD	406252	wordpools/wasnorm_wordpool_576.txt	LTP298	ltpFR2	8	3	BROOK	177	n/a	n/a	0	0	0
815.044	n/a	WORD	407522	wordpools/wasnorm_wordpool_576.txt	LTP298	ltpFR2	8	3	REBEL	1172	n/a	n/a	0	0	0
817.524	n/a	WORD	408762	wordpools/wasnorm_wordpool_576.txt	LTP298	ltpFR2	8	3	ROD	1203	n/a	n/a	0	0	0
819.13	n/a	START	409565	n/a	LTP298	ltpFR2	8	n/a	n/a	n/a	5	n/a	n/a	n/a	n/a
820.138	n/a	DISTRACTOR	410069	n/a	LTP298	ltpFR2	8	3	n/a	n/a	n/a	n/a	0	0	0
820.146	n/a	PROB	410073	n/a	LTP298	ltpFR2	8	n/a	n/a	n/a	5	16	1	9	6
822.916	n/a	PROB	411458	n/a	LTP298	ltpFR2	8	n/a	n/a	n/a	5	16	4	3	9
828.154	n/a	PROB	414077	n/a	LTP298	ltpFR2	8	n/a	n/a	n/a	5	11	7	3	1
829.972	n/a	PROB	414986	n/a	LTP298	ltpFR2	8	n/a	n/a	n/a	5	20	8	6	6
833.476	n/a	PROB	416738	n/a	LTP298	ltpFR2	8	n/a	n/a	n/a	5	10	1	1	8
835.278	n/a	PROB	417639	n/a	LTP298	ltpFR2	8	n/a	n/a	n/a	5	21	9	3	9
838.058	n/a	PROB	419029	n/a	LTP298	ltpFR2	8	n/a	n/a	n/a	5	21	8	4	9
841.892	n/a	STOP	420946	n/a	LTP298	ltpFR2	8	n/a	n/a	n/a	5	n/a	n/a	n/a	n/a
845.03	n/a	REC_START	422515	n/a	LTP298	ltpFR2	8	3	n/a	n/a	n/a	n/a	0	0	0
851.492	n/a	REC_WORD	425746	wordpools/wasnorm_wordpool_576.txt	LTP298	ltpFR2	8	3	DIVER	476	n/a	n/a	0	0	0
852.226	n/a	REC_WORD	426113	wordpools/wasnorm_wordpool_576.txt	LTP298	ltpFR2	8	3	BROOK	177	n/a	n/a	0	0	0
853.1	n/a	REC_WORD	426550	wordpools/wasnorm_wordpool_576.txt	LTP298	ltpFR2	8	3	REBEL	1172	n/a	n/a	0	0	0
854.472	n/a	REC_WORD	427236	wordpools/wasnorm_wordpool_576.txt	LTP298	ltpFR2	8	3	REBEL	1172	n/a	n/a	0	0	0
867.556	n/a	REC_WORD	433778	wordpools/wasnorm_wordpool_576.txt	LTP298	ltpFR2	8	3	FRIAR	605	n/a	n/a	0	0	0
868.478	n/a	REC_WORD	434239	wordpools/wasnorm_wordpool_576.txt	LTP298	ltpFR2	8	3	COSTUME	383	n/a	n/a	0	0	0
869.218	n/a	REC_WORD	434609	wordpools/wasnorm_wordpool_576.txt	LTP298	ltpFR2	8	3	DRESS	495	n/a	n/a	0	0	0
869.83	n/a	REC_WORD	434915	wordpools/wasnorm_wordpool_576.txt	LTP298	ltpFR2	8	3	OFFICE	972	n/a	n/a	0	0	0
870.51	n/a	REC_WORD	435255	wordpools/wasnorm_wordpool_576.txt	LTP298	ltpFR2	8	3	LADY	794	n/a	n/a	0	0	0
871.024	n/a	REC_WORD	435512	wordpools/wasnorm_wordpool_576.txt	LTP298	ltpFR2	8	3	EXPERT	543	n/a	n/a	0	0	0
935.476	n/a	DISTRACTOR	467738	n/a	LTP298	ltpFR2	8	4	n/a	n/a	n/a	n/a	0	0	0
935.478	n/a	START	467739	n/a	LTP298	ltpFR2	8	n/a	n/a	n/a	6	n/a	n/a	n/a	n/a
935.49	n/a	PROB	467745	n/a	LTP298	ltpFR2	8	n/a	n/a	n/a	6	23	9	9	5
942.496	n/a	PROB	471248	n/a	LTP298	ltpFR2	8	n/a	n/a	n/a	6	15	2	5	8
946.012	n/a	PROB	473006	n/a	LTP298	ltpFR2	8	n/a	n/a	n/a	6	18	9	4	5
951.966	n/a	PROB	475983	n/a	LTP298	ltpFR2	8	n/a	n/a	n/a	6	8	1	1	6
954.62	n/a	PROB	477310	n/a	LTP298	ltpFR2	8	n/a	n/a	n/a	6	13	6	5	2
959.232	n/a	STOP	479616	n/a	LTP298	ltpFR2	8	n/a	n/a	n/a	6	n/a	n/a	n/a	n/a
960.516	n/a	WORD	480258	wordpools/wasnorm_wordpool_576.txt	LTP298	ltpFR2	8	4	ULCER	1533	n/a	n/a	0	0	0
963.094	n/a	WORD	481547	wordpools/wasnorm_wordpool_576.txt	LTP298	ltpFR2	8	4	LEADER	807	n/a	n/a	0	0	0
965.698	n/a	WORD	482849	wordpools/wasnorm_wordpool_576.txt	LTP298	ltpFR2	8	4	MARINE	869	n/a	n/a	0	0	0
968.382	n/a	WORD	484191	wordpools/wasnorm_wordpool_576.txt	LTP298	ltpFR2	8	4	COCOON	339	n/a	n/a	0	0	0
970.906	n/a	WORD	485453	wordpools/wasnorm_wordpool_576.txt	LTP298	ltpFR2	8	4	HAWK	692	n/a	n/a	0	0	0
973.454	n/a	WORD	486727	wordpools/wasnorm_wordpool_576.txt	LTP298	ltpFR2	8	4	DASHBOARD	441	n/a	n/a	0	0	0
976.072	n/a	WORD	488036	wordpools/wasnorm_wordpool_576.txt	LTP298	ltpFR2	8	4	TYPIST	1532	n/a	n/a	0	0	0
978.858	n/a	WORD	489429	wordpools/wasnorm_wordpool_576.txt	LTP298	ltpFR2	8	4	PORTRAIT	1111	n/a	n/a	0	0	0
981.66	n/a	WORD	490830	wordpools/wasnorm_wordpool_576.txt	LTP298	ltpFR2	8	4	TART	1436	n/a	n/a	0	0	0
984.262	n/a	WORD	492131	wordpools/wasnorm_wordpool_576.txt	LTP298	ltpFR2	8	4	CANAL	226	n/a	n/a	0	0	0
987.03	n/a	WORD	493515	wordpools/wasnorm_wordpool_576.txt	LTP298	ltpFR2	8	4	STATUE	1374	n/a	n/a	0	0	0
989.654	n/a	WORD	494827	wordpools/wasnorm_wordpool_576.txt	LTP298	ltpFR2	8	4	ROCKET	1202	n/a	n/a	0	0	0
992.218	n/a	WORD	496109	wordpools/wasnorm_wordpool_576.txt	LTP298	ltpFR2	8	4	THIEF	1456	n/a	n/a	0	0	0
995.028	n/a	WORD	497514	wordpools/wasnorm_wordpool_576.txt	LTP298	ltpFR2	8	4	MARKER	870	n/a	n/a	0	0	0
997.496	n/a	WORD	498748	wordpools/wasnorm_wordpool_576.txt	LTP298	ltpFR2	8	4	CRAYON	401	n/a	n/a	0	0	0
999.998	n/a	WORD	499999	wordpools/wasnorm_wordpool_576.txt	LTP298	ltpFR2	8	4	PASTA	1021	n/a	n/a	0	0	0
1002.816	n/a	WORD	501408	wordpools/wasnorm_wordpool_576.txt	LTP298	ltpFR2	8	4	WORKER	1621	n/a	n/a	0	0	0
1005.312	n/a	WORD	502656	wordpools/wasnorm_wordpool_576.txt	LTP298	ltpFR2	8	4	AUTHOR	61	n/a	n/a	0	0	0
1007.938	n/a	WORD	503969	wordpools/wasnorm_wordpool_576.txt	LTP298	ltpFR2	8	4	SPIDER	1351	n/a	n/a	0	0	0
1010.716	n/a	WORD	505358	wordpools/wasnorm_wordpool_576.txt	LTP298	ltpFR2	8	4	FOREHEAD	592	n/a	n/a	0	0	0
1013.242	n/a	WORD	506621	wordpools/wasnorm_wordpool_576.txt	LTP298	ltpFR2	8	4	CHAUFFEUR	283	n/a	n/a	0	0	0
1015.994	n/a	WORD	507997	wordpools/wasnorm_wordpool_576.txt	LTP298	ltpFR2	8	4	SHELF	1280	n/a	n/a	0	0	0
1018.638	n/a	WORD	509319	wordpools/wasnorm_wordpool_576.txt	LTP298	ltpFR2	8	4	PASSAGE	1019	n/a	n/a	0	0	0
1021.082	n/a	WORD	510541	wordpools/wasnorm_wordpool_576.txt	LTP298	ltpFR2	8	4	FLESH	579	n/a	n/a	0	0	0
1022.692	n/a	START	511346	n/a	LTP298	ltpFR2	8	n/a	n/a	n/a	7	n/a	n/a	n/a	n/a
1023.562	n/a	DISTRACTOR	511781	n/a	LTP298	ltpFR2	8	4	n/a	n/a	n/a	n/a	0	0	0
1023.568	n/a	PROB	511784	n/a	LTP298	ltpFR2	8	n/a	n/a	n/a	7	19	8	9	2
1026.412	n/a	PROB	513206	n/a	LTP298	ltpFR2	8	n/a	n/a	n/a	7	9	5	1	3
1029.312	n/a	PROB	514656	n/a	LTP298	ltpFR2	8	n/a	n/a	n/a	7	9	5	3	1
1031.28	n/a	PROB	515640	n/a	LTP298	ltpFR2	8	n/a	n/a	n/a	7	25	8	9	8
1037.502	n/a	PROB	518751	n/a	LTP298	ltpFR2	8	n/a	n/a	n/a	7	10	3	4	3
1046.484	n/a	STOP	523242	n/a	LTP298	ltpFR2	8	n/a	n/a	n/a	7	n/a	n/a	n/a	n/a
1048.464	n/a	REC_START	524232	n/a	LTP298	ltpFR2	8	4	n/a	n/a	n/a	n/a	0	0	0
1051.894	n/a	REC_WORD	525947	wordpools/wasnorm_wordpool_576.txt	LTP298	ltpFR2	8	4	SPIDER	1351	n/a	n/a	0	0	0
1052.586	n/a	REC_WORD	526293	wordpools/wasnorm_wordpool_576.txt	LTP298	ltpFR2	8	4	FOREHEAD	592	n/a	n/a	0	0	0
1065.488	n/a	REC_WORD_VV	532744	wordpools/wasnorm_wordpool_576.txt	LTP298	ltpFR2	8	4	<>	-1	n/a	n/a	0	0	0
1065.96	n/a	REC_WORD	532980	wordpools/wasnorm_wordpool_576.txt	LTP298	ltpFR2	8	4	CRAYON	401	n/a	n/a	0	0	0
1066.71	n/a	REC_WORD	533355	wordpools/wasnorm_wordpool_576.txt	LTP298	ltpFR2	8	4	PASTA	1021	n/a	n/a	0	0	0
1067.328	n/a	REC_WORD	533664	wordpools/wasnorm_wordpool_576.txt	LTP298	ltpFR2	8	4	WORKER	1621	n/a	n/a	0	0	0
1068.618	n/a	REC_WORD	534309	wordpools/wasnorm_wordpool_576.txt	LTP298	ltpFR2	8	4	AUTHOR	61	n/a	n/a	0	0	0
1071.076	n/a	REC_WORD	535538	wordpools/wasnorm_wordpool_576.txt	LTP298	ltpFR2	8	4	CHAUFFEUR	283	n/a	n/a	0	0	0
1072.358	n/a	REC_WORD	536179	wordpools/wasnorm_wordpool_576.txt	LTP298	ltpFR2	8	4	SHELF	1280	n/a	n/a	0	0	0
1138.918	n/a	DISTRACTOR	569459	n/a	LTP298	ltpFR2	8	5	n/a	n/a	n/a	n/a	0	0	0
1138.918	n/a	START	569459	n/a	LTP298	ltpFR2	8	n/a	n/a	n/a	8	n/a	n/a	n/a	n/a
1138.932	n/a	PROB	569466	n/a	LTP298	ltpFR2	8	n/a	n/a	n/a	8	20	5	7	8
1146.204	n/a	PROB	573102	n/a	LTP298	ltpFR2	8	n/a	n/a	n/a	8	19	7	6	6
1152.076	n/a	PROB	576038	n/a	LTP298	ltpFR2	8	n/a	n/a	n/a	8	15	9	2	4
1156.38	n/a	PROB	578190	n/a	LTP298	ltpFR2	8	n/a	n/a	n/a	8	11	8	1	2
1158.4	n/a	PROB	579200	n/a	LTP298	ltpFR2	8	n/a	n/a	n/a	8	15	8	6	1
1161.408	n/a	STOP	580704	n/a	LTP298	ltpFR2	8	n/a	n/a	n/a	8	n/a	n/a	n/a	n/a
1164.086	n/a	WORD	582043	wordpools/wasnorm_wordpool_576.txt	LTP298	ltpFR2	8	5	BINDER	127	n/a	n/a	0	0	0
1166.656	n/a	WORD	583328	wordpools/wasnorm_wordpool_576.txt	LTP298	ltpFR2	8	5	LAKE	796	n/a	n/a	0	0	0
1169.142	n/a	WORD	584571	wordpools/wasnorm_wordpool_576.txt	LTP298	ltpFR2	8	5	CRATER	400	n/a	n/a	0	0	0
1171.926	n/a	WORD	585963	wordpools/wasnorm_wordpool_576.txt	LTP298	ltpFR2	8	5	BLACKBOARD	133	n/a	n/a	0	0	0
1174.68	n/a	WORD	587340	wordpools/wasnorm_wordpool_576.txt	LTP298	ltpFR2	8	5	MUMMY	932	n/a	n/a	0	0	0
1177.314	n/a	WORD	588657	wordpools/wasnorm_wordpool_576.txt	LTP298	ltpFR2	8	5	STAPLE	1371	n/a	n/a	0	0	0
1179.852	n/a	WORD	589926	wordpools/wasnorm_wordpool_576.txt	LTP298	ltpFR2	8	5	CAPTIVE	240	n/a	n/a	0	0	0
1182.486	n/a	WORD	591243	wordpools/wasnorm_wordpool_576.txt	LTP298	ltpFR2	8	5	PARSLEY	1016	n/a	n/a	0	0	0
1185.236	n/a	WORD	592618	wordpools/wasnorm_wordpool_576.txt	LTP298	ltpFR2	8	5	KLEENEX	782	n/a	n/a	0	0	0
1187.888	n/a	WORD	593944	wordpools/wasnorm_wordpool_576.txt	LTP298	ltpFR2	8	5	IGLOO	734	n/a	n/a	0	0	0
1190.408	n/a	WORD	595204	wordpools/wasnorm_wordpool_576.txt	LTP298	ltpFR2	8	5	WINDOW	1611	n/a	n/a	0	0	0
1192.882	n/a	WORD	596441	wordpools/wasnorm_wordpool_576.txt	LTP298	ltpFR2	8	5	PISTOL	1075	n/a	n/a	0	0	0
1195.38	n/a	WORD	597690	wordpools/wasnorm_wordpool_576.txt	LTP298	ltpFR2	8	5	RIFLE	1192	n/a	n/a	0	0	0
1198.014	n/a	WORD	599007	wordpools/wasnorm_wordpool_576.txt	LTP298	ltpFR2	8	5	MUSTARD	935	n/a	n/a	0	0	0
1200.638	n/a	WORD	600319	wordpools/wasnorm_wordpool_576.txt	LTP298	ltpFR2	8	5	TERMITE	1451	n/a	n/a	0	0	0
1203.222	n/a	WORD	601611	wordpools/wasnorm_wordpool_576.txt	LTP298	ltpFR2	8	5	EUROPE	541	n/a	n/a	0	0	0
1205.926	n/a	WORD	602963	wordpools/wasnorm_wordpool_576.txt	LTP298	ltpFR2	8	5	STONE	1385	n/a	n/a	0	0	0
1208.738	n/a	WORD	604369	wordpools/wasnorm_wordpool_576.txt	LTP298	ltpFR2	8	5	SUNRISE	1407	n/a	n/a	0	0	0
1211.442	n/a	WORD	605721	wordpools/wasnorm_wordpool_576.txt	LTP298	ltpFR2	8	5	PICTURE	1061	n/a	n/a	0	0	0
1214.144	n/a	WORD	607072	wordpools/wasnorm_wordpool_576.txt	LTP298	ltpFR2	8	5	CREATURE	403	n/a	n/a	0	0	0
1216.694	n/a	WORD	608347	wordpools/wasnorm_wordpool_576.txt	LTP298	ltpFR2	8	5	GRIZZLY	662	n/a	n/a	0	0	0
1219.18	n/a	WORD	609590	wordpools/wasnorm_wordpool_576.txt	LTP298	ltpFR2	8	5	CHURCH	307	n/a	n/a	0	0	0
1221.832	n/a	WORD	610916	wordpools/wasnorm_wordpool_576.txt	LTP298	ltpFR2	8	5	SPHINX	1349	n/a	n/a	0	0	0
1224.634	n/a	WORD	612317	wordpools/wasnorm_wordpool_576.txt	LTP298	ltpFR2	8	5	FREEZER	604	n/a	n/a	0	0	0
1226.244	n/a	START	613122	n/a	LTP298	ltpFR2	8	n/a	n/a	n/a	9	n/a	n/a	n/a	n/a
1227.286	n/a	DISTRACTOR	613643	n/a	LTP298	ltpFR2	8	5	n/a	n/a	n/a	n/a	0	0	0
1227.294	n/a	PROB	613647	n/a	LTP298	ltpFR2	8	n/a	n/a	n/a	9	18	9	1	8
1229.472	n/a	PROB	614736	n/a	LTP298	ltpFR2	8	n/a	n/a	n/a	9	14	4	9	1
1231.606	n/a	PROB	615803	n/a	LTP298	ltpFR2	8	n/a	n/a	n/a	9	20	8	9	3
1236.644	n/a	PROB	618322	n/a	LTP298	ltpFR2	8	n/a	n/a	n/a	9	15	7	2	6
1243.314	n/a	PROB	621657	n/a	LTP298	ltpFR2	8	n/a	n/a	n/a	9	19	8	9	2
1250.242	n/a	STOP	625121	n/a	LTP298	ltpFR2	8	n/a	n/a	n/a	9	n/a	n/a	n/a	n/a
1252.09	n/a	REC_START	626045	n/a	LTP298	ltpFR2	8	5	n/a	n/a	n/a	n/a	0	0	0
1255.65	n/a	REC_WORD	627825	wordpools/wasnorm_wordpool_576.txt	LTP298	ltpFR2	8	5	SPHINX	1349	n/a	n/a	0	0	0
1257.314	n/a	REC_WORD	628657	wordpools/wasnorm_wordpool_576.txt	LTP298	ltpFR2	8	5	EUROPE	541	n/a	n/a	0	0	0
1265.86	n/a	REC_WORD	632930	wordpools/wasnorm_wordpool_576.txt	LTP298	ltpFR2	8	5	COFFEE	341	n/a	n/a	0	0	0
1342.562	n/a	WORD	671281	wordpools/wasnorm_wordpool_576.txt	LTP298	ltpFR2	8	6	MATTRESS	879	n/a	n/a	0	0	0
1345.178	n/a	WORD	672589	wordpools/wasnorm_wordpool_576.txt	LTP298	ltpFR2	8	6	PADDING	999	n/a	n/a	0	0	0
1347.746	n/a	WORD	673873	wordpools/wasnorm_wordpool_576.txt	LTP298	ltpFR2	8	6	LACE	792	n/a	n/a	0	0	0
1350.298	n/a	WORD	675149	wordpools/wasnorm_wordpool_576.txt	LTP298	ltpFR2	8	6	SHERIFF	1284	n/a	n/a	0	0	0
1352.752	n/a	WORD	676376	wordpools/wasnorm_wordpool_576.txt	LTP298	ltpFR2	8	6	CRIB	407	n/a	n/a	0	0	0
1355.32	n/a	WORD	677660	wordpools/wasnorm_wordpool_576.txt	LTP298	ltpFR2	8	6	DUST	508	n/a	n/a	0	0	0
1357.788	n/a	WORD	678894	wordpools/wasnorm_wordpool_576.txt	LTP298	ltpFR2	8	6	MOP	916	n/a	n/a	0	0	0
1360.476	n/a	WORD	680238	wordpools/wasnorm_wordpool_576.txt	LTP298	ltpFR2	8	6	GANGSTER	620	n/a	n/a	0	0	0
1363.01	n/a	WORD	681505	wordpools/wasnorm_wordpool_576.txt	LTP298	ltpFR2	8	6	PUDDING	1139	n/a	n/a	0	0	0
1365.546	n/a	WORD	682773	wordpools/wasnorm_wordpool_576.txt	LTP298	ltpFR2	8	6	FUNGUS	614	n/a	n/a	0	0	0
1367.982	n/a	WORD	683991	wordpools/wasnorm_wordpool_576.txt	LTP298	ltpFR2	8	6	MILK	895	n/a	n/a	0	0	0
1370.616	n/a	WORD	685308	wordpools/wasnorm_wordpool_576.txt	LTP298	ltpFR2	8	6	COCKTAIL	338	n/a	n/a	0	0	0
1373.438	n/a	WORD	686719	wordpools/wasnorm_wordpool_576.txt	LTP298	ltpFR2	8	6	MISTER	901	n/a	n/a	0	0	0
1376.072	n/a	WORD	688036	wordpools/wasnorm_wordpool_576.txt	LTP298	ltpFR2	8	6	CLOCK	325	n/a	n/a	0	0	0
1378.856	n/a	WORD	689428	wordpools/wasnorm_wordpool_576.txt	LTP298	ltpFR2	8	6	MONEY	908	n/a	n/a	0	0	0
1381.676	n/a	WORD	690838	wordpools/wasnorm_wordpool_576.txt	LTP298	ltpFR2	8	6	SKIRT	1319	n/a	n/a	0	0	0
1384.478	n/a	WORD	692239	wordpools/wasnorm_wordpool_576.txt	LTP298	ltpFR2	8	6	AIRPLANE	12	n/a	n/a	0	0	0
1387.03	n/a	WORD	693515	wordpools/wasnorm_wordpool_576.txt	LTP298	ltpFR2	8	6	BOARD	143	n/a	n/a	0	0	0
1389.584	n/a	WORD	694792	wordpools/wasnorm_wordpool_576.txt	LTP298	ltpFR2	8	6	ZEBRA	1635	n/a	n/a	0	0	0
1392.318	n/a	WORD	696159	wordpools/wasnorm_wordpool_576.txt	LTP298	ltpFR2	8	6	STALLION	1369	n/a	n/a	0	0	0
1395.004	n/a	WORD	697502	wordpools/wasnorm_wordpool_576.txt	LTP298	ltpFR2	8	6	YARN	1631	n/a	n/a	0	0	0
1397.638	n/a	WORD	698819	wordpools/wasnorm_wordpool_576.txt	LTP298	ltpFR2	8	6	FARMER	553	n/a	n/a	0	0	0
1400.108	n/a	WORD	700054	wordpools/wasnorm_wordpool_576.txt	LTP298	ltpFR2	8	6	COIN	343	n/a	n/a	0	0	0
1402.842	n/a	WORD	701421	wordpools/wasnorm_wordpool_576.txt	LTP298	ltpFR2	8	6	PIANO	1057	n/a	n/a	0	0	0
1404.448	n/a	START	702224	n/a	LTP298	ltpFR2	8	n/a	n/a	n/a	10	n/a	n/a	n/a	n/a
1405.626	n/a	DISTRACTOR	702813	n/a	LTP298	ltpFR2	8	6	n/a	n/a	n/a	n/a	0	0	0
1405.646	n/a	PROB	702823	n/a	LTP298	ltpFR2	8	n/a	n/a	n/a	10	17	5	6	6
1416.57	n/a	PROB	708285	n/a	LTP298	ltpFR2	8	n/a	n/a	n/a	10	18	6	5	7
1420.188	n/a	PROB	710094	n/a	LTP298	ltpFR2	8	n/a	n/a	n/a	10	14	2	3	9
1425.626	n/a	PROB	712813	n/a	LTP298	ltpFR2	8	n/a	n/a	n/a	10	17	5	6	6
1428.102	n/a	STOP	714051	n/a	LTP298	ltpFR2	8	n/a	n/a	n/a	10	n/a	n/a	n/a	n/a
1430.384	n/a	REC_START	715192	n/a	LTP298	ltpFR2	8	6	n/a	n/a	n/a	n/a	0	0	0
1431.61	n/a	REC_WORD	715805	wordpools/wasnorm_wordpool_576.txt	LTP298	ltpFR2	8	6	MATTRESS	879	n/a	n/a	0	0	0
1432.954	n/a	REC_WORD	716477	wordpools/wasnorm_wordpool_576.txt	LTP298	ltpFR2	8	6	PADDING	999	n/a	n/a	0	0	0
1434.19	n/a	REC_WORD	717095	wordpools/wasnorm_wordpool_576.txt	LTP298	ltpFR2	8	6	LACE	792	n/a	n/a	0	0	0
1435.47	n/a	REC_WORD	717735	wordpools/wasnorm_wordpool_576.txt	LTP298	ltpFR2	8	6	SHERIFF	1284	n/a	n/a	0	0	0
1436.938	n/a	REC_WORD	718469	wordpools/wasnorm_wordpool_576.txt	LTP298	ltpFR2	8	6	CRIB	407	n/a	n/a	0	0	0
1438.208	n/a	REC_WORD	719104	wordpools/wasnorm_wordpool_576.txt	LTP298	ltpFR2	8	6	DUST	508	n/a	n/a	0	0	0
1447.89	n/a	REC_WORD	723945	wordpools/wasnorm_wordpool_576.txt	LTP298	ltpFR2	8	6	GANGSTER	620	n/a	n/a	0	0	0
1448.934	n/a	REC_WORD	724467	wordpools/wasnorm_wordpool_576.txt	LTP298	ltpFR2	8	6	PUDDING	1139	n/a	n/a	0	0	0
1450.808	n/a	REC_WORD	725404	wordpools/wasnorm_wordpool_576.txt	LTP298	ltpFR2	8	6	FUNGUS	614	n/a	n/a	0	0	0
1452.148	n/a	REC_WORD	726074	wordpools/wasnorm_wordpool_576.txt	LTP298	ltpFR2	8	6	MILK	895	n/a	n/a	0	0	0
1453.296	n/a	REC_WORD	726648	wordpools/wasnorm_wordpool_576.txt	LTP298	ltpFR2	8	6	COCKTAIL	338	n/a	n/a	0	0	0
1461.962	n/a	REC_WORD	730981	wordpools/wasnorm_wordpool_576.txt	LTP298	ltpFR2	8	6	MISTER	901	n/a	n/a	0	0	0
1462.914	n/a	REC_WORD	731457	wordpools/wasnorm_wordpool_576.txt	LTP298	ltpFR2	8	6	CLOCK	325	n/a	n/a	0	0	0
1464.044	n/a	REC_WORD	732022	wordpools/wasnorm_wordpool_576.txt	LTP298	ltpFR2	8	6	MONEY	908	n/a	n/a	0	0	0
1464.922	n/a	REC_WORD	732461	wordpools/wasnorm_wordpool_576.txt	LTP298	ltpFR2	8	6	SKIRT	1319	n/a	n/a	0	0	0
1466.202	n/a	REC_WORD	733101	wordpools/wasnorm_wordpool_576.txt	LTP298	ltpFR2	8	6	FARMER	553	n/a	n/a	0	0	0
1467.258	n/a	REC_WORD	733629	wordpools/wasnorm_wordpool_576.txt	LTP298	ltpFR2	8	6	COIN	343	n/a	n/a	0	0	0
1468.74	n/a	REC_WORD	734370	wordpools/wasnorm_wordpool_576.txt	LTP298	ltpFR2	8	6	PIANO	1057	n/a	n/a	0	0	0
1479.244	n/a	REC_WORD_VV	739622	wordpools/wasnorm_wordpool_576.txt	LTP298	ltpFR2	8	6	<>	-1	n/a	n/a	0	0	0
1520.82	n/a	DISTRACTOR	760410	n/a	LTP298	ltpFR2	8	7	n/a	n/a	n/a	n/a	0	0	0
1520.82	n/a	START	760410	n/a	LTP298	ltpFR2	8	n/a	n/a	n/a	11	n/a	n/a	n/a	n/a
1520.836	n/a	PROB	760418	n/a	LTP298	ltpFR2	8	n/a	n/a	n/a	11	16	9	3	4
1525.024	n/a	PROB	762512	n/a	LTP298	ltpFR2	8	n/a	n/a	n/a	11	11	8	1	2
1526.924	n/a	PROB	763462	n/a	LTP298	ltpFR2	8	n/a	n/a	n/a	11	11	1	7	3
1528.708	n/a	PROB	764354	n/a	LTP298	ltpFR2	8	n/a	n/a	n/a	11	12	5	4	3
1532.662	n/a	PROB	766331	n/a	LTP298	ltpFR2	8	n/a	n/a	n/a	11	7	1	2	4
1537.468	n/a	PROB	768734	n/a	LTP298	ltpFR2	8	n/a	n/a	n/a	11	15	7	2	6
1544.82	n/a	STOP	772410	n/a	LTP298	ltpFR2	8	n/a	n/a	n/a	11	n/a	n/a	n/a	n/a
1545.672	n/a	WORD	772836	wordpools/wasnorm_wordpool_576.txt	LTP298	ltpFR2	8	7	MAILBOX	857	n/a	n/a	0	0	0
1548.454	n/a	WORD	774227	wordpools/wasnorm_wordpool_576.txt	LTP298	ltpFR2	8	7	POSTAGE	1113	n/a	n/a	0	0	0
1551.194	n/a	WORD	775597	wordpools/wasnorm_wordpool_576.txt	LTP298	ltpFR2	8	7	SLIDE	1326	n/a	n/a	0	0	0
1553.858	n/a	WORD	776929	wordpools/wasnorm_wordpool_576.txt	LTP298	ltpFR2	8	7	MAILMAN	858	n/a	n/a	0	0	0
1556.378	n/a	WORD	778189	wordpools/wasnorm_wordpool_576.txt	LTP298	ltpFR2	8	7	AIRPORT	13	n/a	n/a	0	0	0
1559.112	n/a	WORD	779556	wordpools/wasnorm_wordpool_576.txt	LTP298	ltpFR2	8	7	BACKBONE	66	n/a	n/a	0	0	0
1561.682	n/a	WORD	780841	wordpools/wasnorm_wordpool_576.txt	LTP298	ltpFR2	8	7	STAKE	1368	n/a	n/a	0	0	0
1564.3	n/a	WORD	782150	wordpools/wasnorm_wordpool_576.txt	LTP298	ltpFR2	8	7	NURSE	963	n/a	n/a	0	0	0
1566.824	n/a	WORD	783412	wordpools/wasnorm_wordpool_576.txt	LTP298	ltpFR2	8	7	BUNNY	198	n/a	n/a	0	0	0
1569.44	n/a	WORD	784720	wordpools/wasnorm_wordpool_576.txt	LTP298	ltpFR2	8	7	STREAM	1392	n/a	n/a	0	0	0
1571.978	n/a	WORD	785989	wordpools/wasnorm_wordpool_576.txt	LTP298	ltpFR2	8	7	CREVICE	405	n/a	n/a	0	0	0
1574.576	n/a	WORD	787288	wordpools/wasnorm_wordpool_576.txt	LTP298	ltpFR2	8	7	TEMPLE	1448	n/a	n/a	0	0	0
1577.178	n/a	WORD	788589	wordpools/wasnorm_wordpool_576.txt	LTP298	ltpFR2	8	7	PACKAGE	997	n/a	n/a	0	0	0
1579.696	n/a	WORD	789848	wordpools/wasnorm_wordpool_576.txt	LTP298	ltpFR2	8	7	BOX	159	n/a	n/a	0	0	0
1582.468	n/a	WORD	791234	wordpools/wasnorm_wordpool_576.txt	LTP298	ltpFR2	8	7	SNAKE	1333	n/a	n/a	0	0	0
1585.086	n/a	WORD	792543	wordpools/wasnorm_wordpool_576.txt	LTP298	ltpFR2	8	7	VALLEY	1545	n/a	n/a	0	0	0
1587.772	n/a	WORD	793886	wordpools/wasnorm_wordpool_576.txt	LTP298	ltpFR2	8	7	COLLEGE	346	n/a	n/a	0	0	0
1590.222	n/a	WORD	795111	wordpools/wasnorm_wordpool_576.txt	LTP298	ltpFR2	8	7	TEACHER	1440	n/a	n/a	0	0	0
1592.926	n/a	WORD	796463	wordpools/wasnorm_wordpool_576.txt	LTP298	ltpFR2	8	7	CRITIC	410	n/a	n/a	0	0	0
1595.628	n/a	WORD	797814	wordpools/wasnorm_wordpool_576.txt	LTP298	ltpFR2	8	7	CHAMPAGNE	278	n/a	n/a	0	0	0
1598.098	n/a	WORD	799049	wordpools/wasnorm_wordpool_576.txt	LTP298	ltpFR2	8	7	MARROW	872	n/a	n/a	0	0	0
1600.716	n/a	WORD	800358	wordpools/wasnorm_wordpool_576.txt	LTP298	ltpFR2	8	7	YOLK	1633	n/a	n/a	0	0	0
1603.318	n/a	WORD	801659	wordpools/wasnorm_wordpool_576.txt	LTP298	ltpFR2	8	7	CHEMIST	292	n/a	n/a	0	0	0
1605.868	n/a	WORD	802934	wordpools/wasnorm_wordpool_576.txt	LTP298	ltpFR2	8	7	ATOM	55	n/a	n/a	0	0	0
1607.488	n/a	START	803744	n/a	LTP298	ltpFR2	8	n/a	n/a	n/a	12	n/a	n/a	n/a	n/a
1608.602	n/a	DISTRACTOR	804301	n/a	LTP298	ltpFR2	8	7	n/a	n/a	n/a	n/a	0	0	0
1608.622	n/a	PROB	804311	n/a	LTP298	ltpFR2	8	n/a	n/a	n/a	12	15	1	9	5
1611.74	n/a	PROB	805870	n/a	LTP298	ltpFR2	8	n/a	n/a	n/a	12	14	3	2	9
1615.96	n/a	PROB	807980	n/a	LTP298	ltpFR2	8	n/a	n/a	n/a	12	18	7	3	8
1618.596	n/a	PROB	809298	n/a	LTP298	ltpFR2	8	n/a	n/a	n/a	12	12	6	2	4
1621.45	n/a	PROB	810725	n/a	LTP298	ltpFR2	8	n/a	n/a	n/a	12	15	2	7	6
1626.654	n/a	PROB	813327	n/a	LTP298	ltpFR2	8	n/a	n/a	n/a	12	11	4	5	2
1631.49	n/a	STOP	815745	n/a	LTP298	ltpFR2	8	n/a	n/a	n/a	12	n/a	n/a	n/a	n/a
1633.326	n/a	REC_START	816663	n/a	LTP298	ltpFR2	8	7	n/a	n/a	n/a	n/a	0	0	0
1638.824	n/a	REC_WORD	819412	wordpools/wasnorm_wordpool_576.txt	LTP298	ltpFR2	8	7	MAILBOX	857	n/a	n/a	0	0	0
1640.42	n/a	REC_WORD	820210	wordpools/wasnorm_wordpool_576.txt	LTP298	ltpFR2	8	7	POSTAGE	1113	n/a	n/a	0	0	0
1641.428	n/a	REC_WORD	820714	wordpools/wasnorm_wordpool_576.txt	LTP298	ltpFR2	8	7	MAILMAN	858	n/a	n/a	0	0	0
1643.196	n/a	REC_WORD	821598	wordpools/wasnorm_wordpool_576.txt	LTP298	ltpFR2	8	7	PACKAGE	997	n/a	n/a	0	0	0
1644.182	n/a	REC_WORD	822091	wordpools/wasnorm_wordpool_576.txt	LTP298	ltpFR2	8	7	BOX	159	n/a	n/a	0	0	0
1645.764	n/a	REC_WORD	822882	wordpools/wasnorm_wordpool_576.txt	LTP298	ltpFR2	8	7	SNAKE	1333	n/a	n/a	0	0	0
1646.702	n/a	REC_WORD	823351	wordpools/wasnorm_wordpool_576.txt	LTP298	ltpFR2	8	7	VALLEY	1545	n/a	n/a	0	0	0
1647.366	n/a	REC_WORD	823683	wordpools/wasnorm_wordpool_576.txt	LTP298	ltpFR2	8	7	COLLEGE	346	n/a	n/a	0	0	0
1648.22	n/a	REC_WORD	824110	wordpools/wasnorm_wordpool_576.txt	LTP298	ltpFR2	8	7	TEACHER	1440	n/a	n/a	0	0	0
1649.85	n/a	REC_WORD	824925	wordpools/wasnorm_wordpool_576.txt	LTP298	ltpFR2	8	7	CRITIC	410	n/a	n/a	0	0	0
1650.602	n/a	REC_WORD	825301	wordpools/wasnorm_wordpool_576.txt	LTP298	ltpFR2	8	7	CHAMPAGNE	278	n/a	n/a	0	0	0
1651.89	n/a	REC_WORD	825945	wordpools/wasnorm_wordpool_576.txt	LTP298	ltpFR2	8	7	MARROW	872	n/a	n/a	0	0	0
1652.684	n/a	REC_WORD	826342	wordpools/wasnorm_wordpool_576.txt	LTP298	ltpFR2	8	7	YOLK	1633	n/a	n/a	0	0	0
1723.764	n/a	WORD	861882	wordpools/wasnorm_wordpool_576.txt	LTP298	ltpFR2	8	8	HORSE	719	n/a	n/a	0	0	0
1726.466	n/a	WORD	863233	wordpools/wasnorm_wordpool_576.txt	LTP298	ltpFR2	8	8	CASHEW	253	n/a	n/a	0	0	0
1728.992	n/a	WORD	864496	wordpools/wasnorm_wordpool_576.txt	LTP298	ltpFR2	8	8	WIDOW	1608	n/a	n/a	0	0	0
1731.496	n/a	WORD	865748	wordpools/wasnorm_wordpool_576.txt	LTP298	ltpFR2	8	8	CROWN	415	n/a	n/a	0	0	0
1734.256	n/a	WORD	867128	wordpools/wasnorm_wordpool_576.txt	LTP298	ltpFR2	8	8	CARROT	249	n/a	n/a	0	0	0
1736.892	n/a	WORD	868446	wordpools/wasnorm_wordpool_576.txt	LTP298	ltpFR2	8	8	TURTLE	1522	n/a	n/a	0	0	0
1739.668	n/a	WORD	869834	wordpools/wasnorm_wordpool_576.txt	LTP298	ltpFR2	8	8	OUTDOORS	987	n/a	n/a	0	0	0
1742.228	n/a	WORD	871114	wordpools/wasnorm_wordpool_576.txt	LTP298	ltpFR2	8	8	PATROL	1027	n/a	n/a	0	0	0
1744.99	n/a	WORD	872495	wordpools/wasnorm_wordpool_576.txt	LTP298	ltpFR2	8	8	FLASK	576	n/a	n/a	0	0	0
1747.532	n/a	WORD	873766	wordpools/wasnorm_wordpool_576.txt	LTP298	ltpFR2	8	8	GOBLIN	645	n/a	n/a	0	0	0
1750.318	n/a	WORD	875159	wordpools/wasnorm_wordpool_576.txt	LTP298	ltpFR2	8	8	WRENCH	1625	n/a	n/a	0	0	0
1752.962	n/a	WORD	876481	wordpools/wasnorm_wordpool_576.txt	LTP298	ltpFR2	8	8	SHOVEL	1295	n/a	n/a	0	0	0
1755.382	n/a	WORD	877691	wordpools/wasnorm_wordpool_576.txt	LTP298	ltpFR2	8	8	LION	827	n/a	n/a	0	0	0
1757.824	n/a	WORD	878912	wordpools/wasnorm_wordpool_576.txt	LTP298	ltpFR2	8	8	BABY	64	n/a	n/a	0	0	0
1760.32	n/a	WORD	880160	wordpools/wasnorm_wordpool_576.txt	LTP298	ltpFR2	8	8	CHIPMUNK	304	n/a	n/a	0	0	0
1762.878	n/a	WORD	881439	wordpools/wasnorm_wordpool_576.txt	LTP298	ltpFR2	8	8	LEOPARD	812	n/a	n/a	0	0	0
1765.64	n/a	WORD	882820	wordpools/wasnorm_wordpool_576.txt	LTP298	ltpFR2	8	8	GYMNAST	675	n/a	n/a	0	0	0
1768.092	n/a	WORD	884046	wordpools/wasnorm_wordpool_576.txt	LTP298	ltpFR2	8	8	POET	1095	n/a	n/a	0	0	0
1770.752	n/a	WORD	885376	wordpools/wasnorm_wordpool_576.txt	LTP298	ltpFR2	8	8	JOURNAL	760	n/a	n/a	0	0	0
1773.57	n/a	WORD	886785	wordpools/wasnorm_wordpool_576.txt	LTP298	ltpFR2	8	8	TWEEZERS	1526	n/a	n/a	0	0	0
1776.132	n/a	WORD	888066	wordpools/wasnorm_wordpool_576.txt	LTP298	ltpFR2	8	8	FOREST	593	n/a	n/a	0	0	0
1778.652	n/a	WORD	889326	wordpools/wasnorm_wordpool_576.txt	LTP298	ltpFR2	8	8	TWIG	1527	n/a	n/a	0	0	0
1781.188	n/a	WORD	890594	wordpools/wasnorm_wordpool_576.txt	LTP298	ltpFR2	8	8	HOSTESS	723	n/a	n/a	0	0	0
1783.622	n/a	WORD	891811	wordpools/wasnorm_wordpool_576.txt	LTP298	ltpFR2	8	8	SCALLOP	1242	n/a	n/a	0	0	0
1785.23	n/a	START	892615	n/a	LTP298	ltpFR2	8	n/a	n/a	n/a	13	n/a	n/a	n/a	n/a
1786.402	n/a	DISTRACTOR	893201	n/a	LTP298	ltpFR2	8	8	n/a	n/a	n/a	n/a	0	0	0
1786.41	n/a	PROB	893205	n/a	LTP298	ltpFR2	8	n/a	n/a	n/a	13	15	4	8	3
1790.55	n/a	PROB	895275	n/a	LTP298	ltpFR2	8	n/a	n/a	n/a	13	16	3	7	6
1793.504	n/a	PROB	896752	n/a	LTP298	ltpFR2	8	n/a	n/a	n/a	13	19	6	6	7
1796.304	n/a	PROB	898152	n/a	LTP298	ltpFR2	8	n/a	n/a	n/a	13	13	5	7	1
1800.358	n/a	PROB	900179	n/a	LTP298	ltpFR2	8	n/a	n/a	n/a	13	19	8	2	9
1804.106	n/a	PROB	902053	n/a	LTP298	ltpFR2	8	n/a	n/a	n/a	13	23	8	5	9
1807.946	n/a	STOP	903973	n/a	LTP298	ltpFR2	8	n/a	n/a	n/a	13	n/a	n/a	n/a	n/a
1811.036	n/a	REC_START	905518	n/a	LTP298	ltpFR2	8	8	n/a	n/a	n/a	n/a	0	0	0
1813.914	n/a	REC_WORD	906957	wordpools/wasnorm_wordpool_576.txt	LTP298	ltpFR2	8	8	SCALLOP	1242	n/a	n/a	0	0	0
1822.896	n/a	REC_WORD	911448	wordpools/wasnorm_wordpool_576.txt	LTP298	ltpFR2	8	8	HOSTESS	723	n/a	n/a	0	0	0
1887.576	n/a	REST_REWET	943788	n/a	LTP298	ltpFR2	8	8	n/a	n/a	n/a	n/a	0	0	0
2182.092	n/a	WORD	1091046	wordpools/wasnorm_wordpool_576.txt	LTP298	ltpFR2	8	9	FRANCE	601	n/a	n/a	0	0	0
2184.698	n/a	WORD	1092349	wordpools/wasnorm_wordpool_576.txt	LTP298	ltpFR2	8	9	PANTHER	1009	n/a	n/a	0	0	0
2187.148	n/a	WORD	1093574	wordpools/wasnorm_wordpool_576.txt	LTP298	ltpFR2	8	9	WHISKERS	1605	n/a	n/a	0	0	0
2189.6	n/a	WORD	1094800	wordpools/wasnorm_wordpool_576.txt	LTP298	ltpFR2	8	9	JELLO	754	n/a	n/a	0	0	0
2192.408	n/a	WORD	1096204	wordpools/wasnorm_wordpool_576.txt	LTP298	ltpFR2	8	9	COMET	353	n/a	n/a	0	0	0
2195.078	n/a	WORD	1097539	wordpools/wasnorm_wordpool_576.txt	LTP298	ltpFR2	8	9	BULLET	194	n/a	n/a	0	0	0
2197.822	n/a	WORD	1098911	wordpools/wasnorm_wordpool_576.txt	LTP298	ltpFR2	8	9	MISSILE	900	n/a	n/a	0	0	0
2200.642	n/a	WORD	1100321	wordpools/wasnorm_wordpool_576.txt	LTP298	ltpFR2	8	9	DRAWING	494	n/a	n/a	0	0	0
2203.444	n/a	WORD	1101722	wordpools/wasnorm_wordpool_576.txt	LTP298	ltpFR2	8	9	TABLE	1426	n/a	n/a	0	0	0
2206.062	n/a	WORD	1103031	wordpools/wasnorm_wordpool_576.txt	LTP298	ltpFR2	8	9	RAZOR	1171	n/a	n/a	0	0	0
2208.772	n/a	WORD	1104386	wordpools/wasnorm_wordpool_576.txt	LTP298	ltpFR2	8	9	EMPIRE	530	n/a	n/a	0	0	0
2211.59	n/a	WORD	1105795	wordpools/wasnorm_wordpool_576.txt	LTP298	ltpFR2	8	9	QUARTER	1148	n/a	n/a	0	0	0
2214.168	n/a	WORD	1107084	wordpools/wasnorm_wordpool_576.txt	LTP298	ltpFR2	8	9	SALMON	1227	n/a	n/a	0	0	0
2216.738	n/a	WORD	1108369	wordpools/wasnorm_wordpool_576.txt	LTP298	ltpFR2	8	9	VENUS	1557	n/a	n/a	0	0	0
2219.34	n/a	WORD	1109670	wordpools/wasnorm_wordpool_576.txt	LTP298	ltpFR2	8	9	BUREAU	199	n/a	n/a	0	0	0
2222.134	n/a	WORD	1111067	wordpools/wasnorm_wordpool_576.txt	LTP298	ltpFR2	8	9	KITCHEN	778	n/a	n/a	0	0	0
2224.768	n/a	WORD	1112384	wordpools/wasnorm_wordpool_576.txt	LTP298	ltpFR2	8	9	COOK	372	n/a	n/a	0	0	0
2227.322	n/a	WORD	1113661	wordpools/wasnorm_wordpool_576.txt	LTP298	ltpFR2	8	9	MARSH	874	n/a	n/a	0	0	0
2229.906	n/a	WORD	1114953	wordpools/wasnorm_wordpool_576.txt	LTP298	ltpFR2	8	9	PLATE	1086	n/a	n/a	0	0	0
2232.428	n/a	WORD	1116214	wordpools/wasnorm_wordpool_576.txt	LTP298	ltpFR2	8	9	LUMBER	848	n/a	n/a	0	0	0
2235.212	n/a	WORD	1117606	wordpools/wasnorm_wordpool_576.txt	LTP298	ltpFR2	8	9	IDOL	733	n/a	n/a	0	0	0
2237.854	n/a	WORD	1118927	wordpools/wasnorm_wordpool_576.txt	LTP298	ltpFR2	8	9	SWAMP	1416	n/a	n/a	0	0	0
2240.574	n/a	WORD	1120287	wordpools/wasnorm_wordpool_576.txt	LTP298	ltpFR2	8	9	CHAPEL	280	n/a	n/a	0	0	0
2243.252	n/a	WORD	1121626	wordpools/wasnorm_wordpool_576.txt	LTP298	ltpFR2	8	9	BANK	83	n/a	n/a	0	0	0
2244.86	n/a	START	1122430	n/a	LTP298	ltpFR2	8	n/a	n/a	n/a	14	n/a	n/a	n/a	n/a
2245.958	n/a	DISTRACTOR	1122979	n/a	LTP298	ltpFR2	8	9	n/a	n/a	n/a	n/a	0	0	0
2245.97	n/a	PROB	1122985	n/a	LTP298	ltpFR2	8	n/a	n/a	n/a	14	15	8	1	6
2250.68	n/a	PROB	1125340	n/a	LTP298	ltpFR2	8	n/a	n/a	n/a	14	8	1	5	2
2255.016	n/a	PROB	1127508	n/a	LTP298	ltpFR2	8	n/a	n/a	n/a	14	20	7	8	5
2259.988	n/a	PROB	1129994	n/a	LTP298	ltpFR2	8	n/a	n/a	n/a	14	11	6	3	2
2268.86	n/a	STOP	1134430	n/a	LTP298	ltpFR2	8	n/a	n/a	n/a	14	n/a	n/a	n/a	n/a
2270.648	n/a	REC_START	1135324	n/a	LTP298	ltpFR2	8	9	n/a	n/a	n/a	n/a	0	0	0
2273.204	n/a	REC_WORD	1136602	wordpools/wasnorm_wordpool_576.txt	LTP298	ltpFR2	8	9	FRANCE	601	n/a	n/a	0	0	0
2274.298	n/a	REC_WORD	1137149	wordpools/wasnorm_wordpool_576.txt	LTP298	ltpFR2	8	9	PANTHER	1009	n/a	n/a	0	0	0
2275.732	n/a	REC_WORD_VV	1137866	wordpools/wasnorm_wordpool_576.txt	LTP298	ltpFR2	8	9	<>	-1	n/a	n/a	0	0	0
2275.928	n/a	REC_WORD	1137964	wordpools/wasnorm_wordpool_576.txt	LTP298	ltpFR2	8	9	WHISKERS	1605	n/a	n/a	0	0	0
2277.104	n/a	REC_WORD	1138552	wordpools/wasnorm_wordpool_576.txt	LTP298	ltpFR2	8	9	JELLO	754	n/a	n/a	0	0	0
2278.8	n/a	REC_WORD	1139400	wordpools/wasnorm_wordpool_576.txt	LTP298	ltpFR2	8	9	COMET	353	n/a	n/a	0	0	0
2279.832	n/a	REC_WORD	1139916	wordpools/wasnorm_wordpool_576.txt	LTP298	ltpFR2	8	9	BULLET	194	n/a	n/a	0	0	0
2281.478	n/a	REC_WORD	1140739	wordpools/wasnorm_wordpool_576.txt	LTP298	ltpFR2	8	9	MISSILE	900	n/a	n/a	0	0	0
2284.792	n/a	REC_WORD	1142396	wordpools/wasnorm_wordpool_576.txt	LTP298	ltpFR2	8	9	DRAWING	494	n/a	n/a	0	0	0
2285.854	n/a	REC_WORD	1142927	wordpools/wasnorm_wordpool_576.txt	LTP298	ltpFR2	8	9	TABLE	1426	n/a	n/a	0	0	0
2288.834	n/a	REC_WORD	1144417	wordpools/wasnorm_wordpool_576.txt	LTP298	ltpFR2	8	9	RAZOR	1171	n/a	n/a	0	0	0
2290.102	n/a	REC_WORD	1145051	wordpools/wasnorm_wordpool_576.txt	LTP298	ltpFR2	8	9	SURVEY	1414	n/a	n/a	0	0	0
2292.11	n/a	REC_WORD	1146055	wordpools/wasnorm_wordpool_576.txt	LTP298	ltpFR2	8	9	EMPIRE	530	n/a	n/a	0	0	0
2293.212	n/a	REC_WORD	1146606	wordpools/wasnorm_wordpool_576.txt	LTP298	ltpFR2	8	9	QUARTER	1148	n/a	n/a	0	0	0
2294.258	n/a	REC_WORD	1147129	wordpools/wasnorm_wordpool_576.txt	LTP298	ltpFR2	8	9	SALMON	1227	n/a	n/a	0	0	0
2295.562	n/a	REC_WORD	1147781	wordpools/wasnorm_wordpool_576.txt	LTP298	ltpFR2	8	9	VENUS	1557	n/a	n/a	0	0	0
2296.628	n/a	REC_WORD	1148314	wordpools/wasnorm_wordpool_576.txt	LTP298	ltpFR2	8	9	BUREAU	199	n/a	n/a	0	0	0
2298.616	n/a	REC_WORD	1149308	wordpools/wasnorm_wordpool_576.txt	LTP298	ltpFR2	8	9	KITCHEN	778	n/a	n/a	0	0	0
2299.454	n/a	REC_WORD	1149727	wordpools/wasnorm_wordpool_576.txt	LTP298	ltpFR2	8	9	COOK	372	n/a	n/a	0	0	0
2300.414	n/a	REC_WORD	1150207	wordpools/wasnorm_wordpool_576.txt	LTP298	ltpFR2	8	9	PLATE	1086	n/a	n/a	0	0	0
2301.382	n/a	REC_WORD	1150691	wordpools/wasnorm_wordpool_576.txt	LTP298	ltpFR2	8	9	LUMBER	848	n/a	n/a	0	0	0
2302.332	n/a	REC_WORD	1151166	wordpools/wasnorm_wordpool_576.txt	LTP298	ltpFR2	8	9	IDOL	733	n/a	n/a	0	0	0
2306.528	n/a	REC_WORD	1153264	wordpools/wasnorm_wordpool_576.txt	LTP298	ltpFR2	8	9	SWAMP	1416	n/a	n/a	0	0	0
2307.838	n/a	REC_WORD	1153919	wordpools/wasnorm_wordpool_576.txt	LTP298	ltpFR2	8	9	CHAPEL	280	n/a	n/a	0	0	0
2308.836	n/a	REC_WORD	1154418	wordpools/wasnorm_wordpool_576.txt	LTP298	ltpFR2	8	9	BANK	83	n/a	n/a	0	0	0
2361.116	n/a	WORD	1180558	wordpools/wasnorm_wordpool_576.txt	LTP298	ltpFR2	8	10	BEAVER	109	n/a	n/a	0	0	0
2363.704	n/a	WORD	1181852	wordpools/wasnorm_wordpool_576.txt	LTP298	ltpFR2	8	10	GAZELLE	628	n/a	n/a	0	0	0
2366.19	n/a	WORD	1183095	wordpools/wasnorm_wordpool_576.txt	LTP298	ltpFR2	8	10	APRON	35	n/a	n/a	0	0	0
2369.008	n/a	WORD	1184504	wordpools/wasnorm_wordpool_576.txt	LTP298	ltpFR2	8	10	FIREMAN	569	n/a	n/a	0	0	0
2371.794	n/a	WORD	1185897	wordpools/wasnorm_wordpool_576.txt	LTP298	ltpFR2	8	10	FLEET	578	n/a	n/a	0	0	0
2374.414	n/a	WORD	1187207	wordpools/wasnorm_wordpool_576.txt	LTP298	ltpFR2	8	10	POCKET	1093	n/a	n/a	0	0	0
2376.918	n/a	WORD	1188459	wordpools/wasnorm_wordpool_576.txt	LTP298	ltpFR2	8	10	SALAD	1224	n/a	n/a	0	0	0
2379.666	n/a	WORD	1189833	wordpools/wasnorm_wordpool_576.txt	LTP298	ltpFR2	8	10	GRAVE	658	n/a	n/a	0	0	0
2382.234	n/a	WORD	1191117	wordpools/wasnorm_wordpool_576.txt	LTP298	ltpFR2	8	10	PLIERS	1089	n/a	n/a	0	0	0
2384.82	n/a	WORD	1192410	wordpools/wasnorm_wordpool_576.txt	LTP298	ltpFR2	8	10	DONKEY	484	n/a	n/a	0	0	0
2387.506	n/a	WORD	1193753	wordpools/wasnorm_wordpool_576.txt	LTP298	ltpFR2	8	10	CASHIER	254	n/a	n/a	0	0	0
2389.958	n/a	WORD	1194979	wordpools/wasnorm_wordpool_576.txt	LTP298	ltpFR2	8	10	QUAIL	1147	n/a	n/a	0	0	0
2392.644	n/a	WORD	1196322	wordpools/wasnorm_wordpool_576.txt	LTP298	ltpFR2	8	10	FLASHLIGHT	575	n/a	n/a	0	0	0
2395.414	n/a	WORD	1197707	wordpools/wasnorm_wordpool_576.txt	LTP298	ltpFR2	8	10	POLICE	1098	n/a	n/a	0	0	0
2398.082	n/a	WORD	1199041	wordpools/wasnorm_wordpool_576.txt	LTP298	ltpFR2	8	10	TOMBSTONE	1478	n/a	n/a	0	0	0
2400.55	n/a	WORD	1200275	wordpools/wasnorm_wordpool_576.txt	LTP298	ltpFR2	8	10	FILM	565	n/a	n/a	0	0	0
2403.302	n/a	WORD	1201651	wordpools/wasnorm_wordpool_576.txt	LTP298	ltpFR2	8	10	POPCORN	1104	n/a	n/a	0	0	0
2406.042	n/a	WORD	1203021	wordpools/wasnorm_wordpool_576.txt	LTP298	ltpFR2	8	10	CEILING	265	n/a	n/a	0	0	0
2408.758	n/a	WORD	1204379	wordpools/wasnorm_wordpool_576.txt	LTP298	ltpFR2	8	10	COUCH	386	n/a	n/a	0	0	0
2411.482	n/a	WORD	1205741	wordpools/wasnorm_wordpool_576.txt	LTP298	ltpFR2	8	10	SCOTCH	1251	n/a	n/a	0	0	0
2414.276	n/a	WORD	1207138	wordpools/wasnorm_wordpool_576.txt	LTP298	ltpFR2	8	10	PERMIT	1051	n/a	n/a	0	0	0
2417.034	n/a	WORD	1208517	wordpools/wasnorm_wordpool_576.txt	LTP298	ltpFR2	8	10	STICKER	1382	n/a	n/a	0	0	0
2419.532	n/a	WORD	1209766	wordpools/wasnorm_wordpool_576.txt	LTP298	ltpFR2	8	10	SKILLET	1317	n/a	n/a	0	0	0
2422.016	n/a	WORD	1211008	wordpools/wasnorm_wordpool_576.txt	LTP298	ltpFR2	8	10	TUNNEL	1519	n/a	n/a	0	0	0
2423.624	n/a	START	1211812	n/a	LTP298	ltpFR2	8	n/a	n/a	n/a	15	n/a	n/a	n/a	n/a
2424.676	n/a	DISTRACTOR	1212338	n/a	LTP298	ltpFR2	8	10	n/a	n/a	n/a	n/a	0	0	0
2424.684	n/a	PROB	1212342	n/a	LTP298	ltpFR2	8	n/a	n/a	n/a	15	18	7	8	3
2427.12	n/a	PROB	1213560	n/a	LTP298	ltpFR2	8	n/a	n/a	n/a	15	14	4	5	5
2429.104	n/a	PROB	1214552	n/a	LTP298	ltpFR2	8	n/a	n/a	n/a	15	4	1	1	2
2431.024	n/a	PROB	1215512	n/a	LTP298	ltpFR2	8	n/a	n/a	n/a	15	21	4	9	8
2436.91	n/a	PROB	1218455	n/a	LTP298	ltpFR2	8	n/a	n/a	n/a	15	16	7	5	4
2440.214	n/a	PROB	1220107	n/a	LTP298	ltpFR2	8	n/a	n/a	n/a	15	21	6	6	9
2447.626	n/a	STOP	1223813	n/a	LTP298	ltpFR2	8	n/a	n/a	n/a	15	n/a	n/a	n/a	n/a
2449.538	n/a	REC_START	1224769	n/a	LTP298	ltpFR2	8	10	n/a	n/a	n/a	n/a	0	0	0
2452.332	n/a	REC_WORD	1226166	wordpools/wasnorm_wordpool_576.txt	LTP298	ltpFR2	8	10	BEAVER	109	n/a	n/a	0	0	0
2453.026	n/a	REC_WORD	1226513	wordpools/wasnorm_wordpool_576.txt	LTP298	ltpFR2	8	10	GAZELLE	628	n/a	n/a	0	0	0
2453.936	n/a	REC_WORD	1226968	wordpools/wasnorm_wordpool_576.txt	LTP298	ltpFR2	8	10	APRON	35	n/a	n/a	0	0	0
2455.228	n/a	REC_WORD	1227614	wordpools/wasnorm_wordpool_576.txt	LTP298	ltpFR2	8	10	FIREMAN	569	n/a	n/a	0	0	0
2456.69	n/a	REC_WORD	1228345	wordpools/wasnorm_wordpool_576.txt	LTP298	ltpFR2	8	10	FLEET	578	n/a	n/a	0	0	0
2458.44	n/a	REC_WORD	1229220	wordpools/wasnorm_wordpool_576.txt	LTP298	ltpFR2	8	10	POCKET	1093	n/a	n/a	0	0	0
2459.004	n/a	REC_WORD	1229502	wordpools/wasnorm_wordpool_576.txt	LTP298	ltpFR2	8	10	SALAD	1224	n/a	n/a	0	0	0
2461.506	n/a	REC_WORD	1230753	wordpools/wasnorm_wordpool_576.txt	LTP298	ltpFR2	8	10	GRAVE	658	n/a	n/a	0	0	0
2462.912	n/a	REC_WORD	1231456	wordpools/wasnorm_wordpool_576.txt	LTP298	ltpFR2	8	10	PLIERS	1089	n/a	n/a	0	0	0
2465.596	n/a	REC_WORD	1232798	wordpools/wasnorm_wordpool_576.txt	LTP298	ltpFR2	8	10	DONKEY	484	n/a	n/a	0	0	0
2467.938	n/a	REC_WORD	1233969	wordpools/wasnorm_wordpool_576.txt	LTP298	ltpFR2	8	10	CASHIER	254	n/a	n/a	0	0	0
2468.724	n/a	REC_WORD	1234362	wordpools/wasnorm_wordpool_576.txt	LTP298	ltpFR2	8	10	QUAIL	1147	n/a	n/a	0	0	0
2470.926	n/a	REC_WORD	1235463	wordpools/wasnorm_wordpool_576.txt	LTP298	ltpFR2	8	10	FLASHLIGHT	575	n/a	n/a	0	0	0
2471.894	n/a	REC_WORD	1235947	wordpools/wasnorm_wordpool_576.txt	LTP298	ltpFR2	8	10	POLICE	1098	n/a	n/a	0	0	0
2472.756	n/a	REC_WORD	1236378	wordpools/wasnorm_wordpool_576.txt	LTP298	ltpFR2	8	10	TOMBSTONE	1478	n/a	n/a	0	0	0
2474.406	n/a	REC_WORD	1237203	wordpools/wasnorm_wordpool_576.txt	LTP298	ltpFR2	8	10	FILM	565	n/a	n/a	0	0	0
2475.202	n/a	REC_WORD	1237601	wordpools/wasnorm_wordpool_576.txt	LTP298	ltpFR2	8	10	POPCORN	1104	n/a	n/a	0	0	0
2475.93	n/a	REC_WORD	1237965	wordpools/wasnorm_wordpool_576.txt	LTP298	ltpFR2	8	10	CEILING	265	n/a	n/a	0	0	0
2477.396	n/a	REC_WORD	1238698	wordpools/wasnorm_wordpool_576.txt	LTP298	ltpFR2	8	10	COUCH	386	n/a	n/a	0	0	0
2484.356	n/a	REC_WORD	1242178	wordpools/wasnorm_wordpool_576.txt	LTP298	ltpFR2	8	10	TUNNEL	1519	n/a	n/a	0	0	0
2540.01	n/a	WORD	1270005	wordpools/wasnorm_wordpool_576.txt	LTP298	ltpFR2	8	11	JUDGE	761	n/a	n/a	0	0	0
2542.544	n/a	WORD	1271272	wordpools/wasnorm_wordpool_576.txt	LTP298	ltpFR2	8	11	NIGHTGOWN	953	n/a	n/a	0	0	0
2545.164	n/a	WORD	1272582	wordpools/wasnorm_wordpool_576.txt	LTP298	ltpFR2	8	11	SLIME	1327	n/a	n/a	0	0	0
2547.682	n/a	WORD	1273841	wordpools/wasnorm_wordpool_576.txt	LTP298	ltpFR2	8	11	COTTAGE	384	n/a	n/a	0	0	0
2550.418	n/a	WORD	1275209	wordpools/wasnorm_wordpool_576.txt	LTP298	ltpFR2	8	11	BOUQUET	157	n/a	n/a	0	0	0
2553.168	n/a	WORD	1276584	wordpools/wasnorm_wordpool_576.txt	LTP298	ltpFR2	8	11	PIMPLE	1071	n/a	n/a	0	0	0
2555.688	n/a	WORD	1277844	wordpools/wasnorm_wordpool_576.txt	LTP298	ltpFR2	8	11	NOTEBOOK	959	n/a	n/a	0	0	0
2558.372	n/a	WORD	1279186	wordpools/wasnorm_wordpool_576.txt	LTP298	ltpFR2	8	11	HOUND	724	n/a	n/a	0	0	0
2560.992	n/a	WORD	1280496	wordpools/wasnorm_wordpool_576.txt	LTP298	ltpFR2	8	11	PRINCESS	1125	n/a	n/a	0	0	0
2563.528	n/a	WORD	1281764	wordpools/wasnorm_wordpool_576.txt	LTP298	ltpFR2	8	11	TWISTER	1530	n/a	n/a	0	0	0
2566.214	n/a	WORD	1283107	wordpools/wasnorm_wordpool_576.txt	LTP298	ltpFR2	8	11	HOOK	715	n/a	n/a	0	0	0
2568.882	n/a	WORD	1284441	wordpools/wasnorm_wordpool_576.txt	LTP298	ltpFR2	8	11	PLAID	1080	n/a	n/a	0	0	0
2571.42	n/a	WORD	1285710	wordpools/wasnorm_wordpool_576.txt	LTP298	ltpFR2	8	11	SOFTBALL	1343	n/a	n/a	0	0	0
2573.936	n/a	WORD	1286968	wordpools/wasnorm_wordpool_576.txt	LTP298	ltpFR2	8	11	FOOTBALL	591	n/a	n/a	0	0	0
2576.756	n/a	WORD	1288378	wordpools/wasnorm_wordpool_576.txt	LTP298	ltpFR2	8	11	PIZZA	1079	n/a	n/a	0	0	0
2579.358	n/a	WORD	1289679	wordpools/wasnorm_wordpool_576.txt	LTP298	ltpFR2	8	11	DONOR	485	n/a	n/a	0	0	0
2581.91	n/a	WORD	1290955	wordpools/wasnorm_wordpool_576.txt	LTP298	ltpFR2	8	11	TRANSPLANT	1496	n/a	n/a	0	0	0
2584.58	n/a	WORD	1292290	wordpools/wasnorm_wordpool_576.txt	LTP298	ltpFR2	8	11	CURTAIN	427	n/a	n/a	0	0	0
2587.08	n/a	WORD	1293540	wordpools/wasnorm_wordpool_576.txt	LTP298	ltpFR2	8	11	COLONEL	348	n/a	n/a	0	0	0
2589.732	n/a	WORD	1294866	wordpools/wasnorm_wordpool_576.txt	LTP298	ltpFR2	8	11	PEANUT	1032	n/a	n/a	0	0	0
2592.184	n/a	WORD	1296092	wordpools/wasnorm_wordpool_576.txt	LTP298	ltpFR2	8	11	WITNESS	1618	n/a	n/a	0	0	0
2594.804	n/a	WORD	1297402	wordpools/wasnorm_wordpool_576.txt	LTP298	ltpFR2	8	11	TURNIP	1521	n/a	n/a	0	0	0
2597.306	n/a	WORD	1298653	wordpools/wasnorm_wordpool_576.txt	LTP298	ltpFR2	8	11	SLUG	1329	n/a	n/a	0	0	0
2599.826	n/a	WORD	1299913	wordpools/wasnorm_wordpool_576.txt	LTP298	ltpFR2	8	11	MILDEW	893	n/a	n/a	0	0	0
2601.446	n/a	START	1300723	n/a	LTP298	ltpFR2	8	n/a	n/a	n/a	16	n/a	n/a	n/a	n/a
2602.304	n/a	DISTRACTOR	1301152	n/a	LTP298	ltpFR2	8	11	n/a	n/a	n/a	n/a	0	0	0
2602.31	n/a	PROB	1301155	n/a	LTP298	ltpFR2	8	n/a	n/a	n/a	16	12	5	6	1
2605.028	n/a	PROB	1302514	n/a	LTP298	ltpFR2	8	n/a	n/a	n/a	16	10	6	1	3
2608.932	n/a	PROB	1304466	n/a	LTP298	ltpFR2	8	n/a	n/a	n/a	16	12	3	2	7
2610.8	n/a	PROB	1305400	n/a	LTP298	ltpFR2	8	n/a	n/a	n/a	16	16	8	4	4
2613.786	n/a	PROB	1306893	n/a	LTP298	ltpFR2	8	n/a	n/a	n/a	16	14	4	5	5
2616.052	n/a	PROB	1308026	n/a	LTP298	ltpFR2	8	n/a	n/a	n/a	16	12	7	2	3
2621.71	n/a	PROB	1310855	n/a	LTP298	ltpFR2	8	n/a	n/a	n/a	16	22	4	9	9
2624.914	n/a	STOP	1312457	n/a	LTP298	ltpFR2	8	n/a	n/a	n/a	16	n/a	n/a	n/a	n/a
2627.312	n/a	REC_START	1313656	n/a	LTP298	ltpFR2	8	11	n/a	n/a	n/a	n/a	0	0	0
2630.94	n/a	REC_WORD	1315470	wordpools/wasnorm_wordpool_576.txt	LTP298	ltpFR2	8	11	JUDGE	761	n/a	n/a	0	0	0
2631.768	n/a	REC_WORD	1315884	wordpools/wasnorm_wordpool_576.txt	LTP298	ltpFR2	8	11	NIGHTGOWN	953	n/a	n/a	0	0	0
2632.724	n/a	REC_WORD	1316362	wordpools/wasnorm_wordpool_576.txt	LTP298	ltpFR2	8	11	SLIME	1327	n/a	n/a	0	0	0
2633.832	n/a	REC_WORD	1316916	wordpools/wasnorm_wordpool_576.txt	LTP298	ltpFR2	8	11	COTTAGE	384	n/a	n/a	0	0	0
2634.882	n/a	REC_WORD	1317441	wordpools/wasnorm_wordpool_576.txt	LTP298	ltpFR2	8	11	BOUQUET	157	n/a	n/a	0	0	0
2635.874	n/a	REC_WORD	1317937	wordpools/wasnorm_wordpool_576.txt	LTP298	ltpFR2	8	11	PIMPLE	1071	n/a	n/a	0	0	0
2636.9	n/a	REC_WORD	1318450	wordpools/wasnorm_wordpool_576.txt	LTP298	ltpFR2	8	11	NOTEBOOK	959	n/a	n/a	0	0	0
2639.166	n/a	REC_WORD	1319583	wordpools/wasnorm_wordpool_576.txt	LTP298	ltpFR2	8	11	HOUND	724	n/a	n/a	0	0	0
2641.346	n/a	REC_WORD	1320673	wordpools/wasnorm_wordpool_576.txt	LTP298	ltpFR2	8	11	PRINCESS	1125	n/a	n/a	0	0	0
2644.824	n/a	REC_WORD	1322412	wordpools/wasnorm_wordpool_576.txt	LTP298	ltpFR2	8	11	SOFTBALL	1343	n/a	n/a	0	0	0
2646.54	n/a	REC_WORD	1323270	wordpools/wasnorm_wordpool_576.txt	LTP298	ltpFR2	8	11	FOOTBALL	591	n/a	n/a	0	0	0
2647.7	n/a	REC_WORD	1323850	wordpools/wasnorm_wordpool_576.txt	LTP298	ltpFR2	8	11	PIZZA	1079	n/a	n/a	0	0	0
2650.264	n/a	REC_WORD	1325132	wordpools/wasnorm_wordpool_576.txt	LTP298	ltpFR2	8	11	DONOR	485	n/a	n/a	0	0	0
2651.248	n/a	REC_WORD	1325624	wordpools/wasnorm_wordpool_576.txt	LTP298	ltpFR2	8	11	TRANSPLANT	1496	n/a	n/a	0	0	0
2653.158	n/a	REC_WORD	1326579	wordpools/wasnorm_wordpool_576.txt	LTP298	ltpFR2	8	11	CURTAIN	427	n/a	n/a	0	0	0
2654.858	n/a	REC_WORD	1327429	wordpools/wasnorm_wordpool_576.txt	LTP298	ltpFR2	8	11	COLONEL	348	n/a	n/a	0	0	0
2655.898	n/a	REC_WORD	1327949	wordpools/wasnorm_wordpool_576.txt	LTP298	ltpFR2	8	11	PEANUT	1032	n/a	n/a	0	0	0
2659.572	n/a	REC_WORD	1329786	wordpools/wasnorm_wordpool_576.txt	LTP298	ltpFR2	8	11	WITNESS	1618	n/a	n/a	0	0	0
2660.788	n/a	REC_WORD	1330394	wordpools/wasnorm_wordpool_576.txt	LTP298	ltpFR2	8	11	TURNIP	1521	n/a	n/a	0	0	0
2661.832	n/a	REC_WORD	1330916	wordpools/wasnorm_wordpool_576.txt	LTP298	ltpFR2	8	11	SLUG	1329	n/a	n/a	0	0	0
2717.736	n/a	DISTRACTOR	1358868	n/a	LTP298	ltpFR2	8	12	n/a	n/a	n/a	n/a	0	0	0
2717.736	n/a	START	1358868	n/a	LTP298	ltpFR2	8	n/a	n/a	n/a	17	n/a	n/a	n/a	n/a
2717.75	n/a	PROB	1358875	n/a	LTP298	ltpFR2	8	n/a	n/a	n/a	17	6	3	1	2
2720.838	n/a	PROB	1360419	n/a	LTP298	ltpFR2	8	n/a	n/a	n/a	17	20	9	9	2
2723.906	n/a	PROB	1361953	n/a	LTP298	ltpFR2	8	n/a	n/a	n/a	17	19	9	5	5
2727.742	n/a	PROB	1363871	n/a	LTP298	ltpFR2	8	n/a	n/a	n/a	17	16	9	1	6
2730.326	n/a	PROB	1365163	n/a	LTP298	ltpFR2	8	n/a	n/a	n/a	17	13	4	5	6
2741.736	n/a	STOP	1370868	n/a	LTP298	ltpFR2	8	n/a	n/a	n/a	17	n/a	n/a	n/a	n/a
2742.65	n/a	WORD	1371325	wordpools/wasnorm_wordpool_576.txt	LTP298	ltpFR2	8	12	SIDEWALK	1303	n/a	n/a	0	0	0
2745.134	n/a	WORD	1372567	wordpools/wasnorm_wordpool_576.txt	LTP298	ltpFR2	8	12	VELVET	1555	n/a	n/a	0	0	0
2747.908	n/a	WORD	1373954	wordpools/wasnorm_wordpool_576.txt	LTP298	ltpFR2	8	12	POWDER	1117	n/a	n/a	0	0	0
2750.344	n/a	WORD	1375172	wordpools/wasnorm_wordpool_576.txt	LTP298	ltpFR2	8	12	HAND	683	n/a	n/a	0	0	0
2752.774	n/a	WORD	1376387	wordpools/wasnorm_wordpool_576.txt	LTP298	ltpFR2	8	12	SKETCH	1315	n/a	n/a	0	0	0
2755.326	n/a	WORD	1377663	wordpools/wasnorm_wordpool_576.txt	LTP298	ltpFR2	8	12	SCRIBBLE	1256	n/a	n/a	0	0	0
2757.978	n/a	WORD	1378989	wordpools/wasnorm_wordpool_576.txt	LTP298	ltpFR2	8	12	GIFT	635	n/a	n/a	0	0	0
2760.748	n/a	WORD	1380374	wordpools/wasnorm_wordpool_576.txt	LTP298	ltpFR2	8	12	WASP	1593	n/a	n/a	0	0	0
2763.436	n/a	WORD	1381718	wordpools/wasnorm_wordpool_576.txt	LTP298	ltpFR2	8	12	CLOTHES	327	n/a	n/a	0	0	0
2765.886	n/a	WORD	1382943	wordpools/wasnorm_wordpool_576.txt	LTP298	ltpFR2	8	12	FOX	598	n/a	n/a	0	0	0
2768.688	n/a	WORD	1384344	wordpools/wasnorm_wordpool_576.txt	LTP298	ltpFR2	8	12	REPORT	1184	n/a	n/a	0	0	0
2771.492	n/a	WORD	1385746	wordpools/wasnorm_wordpool_576.txt	LTP298	ltpFR2	8	12	BARLEY	88	n/a	n/a	0	0	0
2774.208	n/a	WORD	1387104	wordpools/wasnorm_wordpool_576.txt	LTP298	ltpFR2	8	12	WHISTLE	1606	n/a	n/a	0	0	0
2776.644	n/a	WORD	1388322	wordpools/wasnorm_wordpool_576.txt	LTP298	ltpFR2	8	12	DOLPHIN	483	n/a	n/a	0	0	0
2779.23	n/a	WORD	1389615	wordpools/wasnorm_wordpool_576.txt	LTP298	ltpFR2	8	12	MAMMAL	861	n/a	n/a	0	0	0
2781.698	n/a	WORD	1390849	wordpools/wasnorm_wordpool_576.txt	LTP298	ltpFR2	8	12	GLOVE	642	n/a	n/a	0	0	0
2784.402	n/a	WORD	1392201	wordpools/wasnorm_wordpool_576.txt	LTP298	ltpFR2	8	12	UNCLE	1536	n/a	n/a	0	0	0
2787.054	n/a	WORD	1393527	wordpools/wasnorm_wordpool_576.txt	LTP298	ltpFR2	8	12	COUSIN	392	n/a	n/a	0	0	0
2789.622	n/a	WORD	1394811	wordpools/wasnorm_wordpool_576.txt	LTP298	ltpFR2	8	12	ROOSTER	1209	n/a	n/a	0	0	0
2792.324	n/a	WORD	1396162	wordpools/wasnorm_wordpool_576.txt	LTP298	ltpFR2	8	12	ANTLER	29	n/a	n/a	0	0	0
2794.91	n/a	WORD	1397455	wordpools/wasnorm_wordpool_576.txt	LTP298	ltpFR2	8	12	DANDRUFF	439	n/a	n/a	0	0	0
2797.68	n/a	WORD	1398840	wordpools/wasnorm_wordpool_576.txt	LTP298	ltpFR2	8	12	GRAVEL	659	n/a	n/a	0	0	0
2800.416	n/a	WORD	1400208	wordpools/wasnorm_wordpool_576.txt	LTP298	ltpFR2	8	12	FLUTE	585	n/a	n/a	0	0	0
2803.018	n/a	WORD	1401509	wordpools/wasnorm_wordpool_576.txt	LTP298	ltpFR2	8	12	CHEST	295	n/a	n/a	0	0	0
2804.636	n/a	START	1402318	n/a	LTP298	ltpFR2	8	n/a	n/a	n/a	18	n/a	n/a	n/a	n/a
2805.814	n/a	DISTRACTOR	1402907	n/a	LTP298	ltpFR2	8	12	n/a	n/a	n/a	n/a	0	0	0
2805.82	n/a	PROB	1402910	n/a	LTP298	ltpFR2	8	n/a	n/a	n/a	18	15	8	1	6
2808.858	n/a	PROB	1404429	n/a	LTP298	ltpFR2	8	n/a	n/a	n/a	18	7	1	3	3
2813.36	n/a	PROB	1406680	n/a	LTP298	ltpFR2	8	n/a	n/a	n/a	18	9	6	1	2
2815.728	n/a	PROB	1407864	n/a	LTP298	ltpFR2	8	n/a	n/a	n/a	18	23	9	6	8
2827.72	n/a	STOP	1413860	n/a	LTP298	ltpFR2	8	n/a	n/a	n/a	18	n/a	n/a	n/a	n/a
2830.442	n/a	REC_START	1415221	n/a	LTP298	ltpFR2	8	12	n/a	n/a	n/a	n/a	0	0	0
2832.476	n/a	REC_WORD	1416238	wordpools/wasnorm_wordpool_576.txt	LTP298	ltpFR2	8	12	ANTLER	29	n/a	n/a	0	0	0
2836.232	n/a	REC_WORD_VV	1418116	wordpools/wasnorm_wordpool_576.txt	LTP298	ltpFR2	8	12	<>	-1	n/a	n/a	0	0	0
2841.328	n/a	REC_WORD_VV	1420664	wordpools/wasnorm_wordpool_576.txt	LTP298	ltpFR2	8	12	<>	-1	n/a	n/a	0	0	0
2920.878	n/a	WORD	1460439	wordpools/wasnorm_wordpool_576.txt	LTP298	ltpFR2	8	13	BUG	187	n/a	n/a	0	0	0
2923.314	n/a	WORD	1461657	wordpools/wasnorm_wordpool_576.txt	LTP298	ltpFR2	8	13	LOVER	846	n/a	n/a	0	0	0
2926.032	n/a	WORD	1463016	wordpools/wasnorm_wordpool_576.txt	LTP298	ltpFR2	8	13	GARBAGE	622	n/a	n/a	0	0	0
2928.586	n/a	WORD	1464293	wordpools/wasnorm_wordpool_576.txt	LTP298	ltpFR2	8	13	CRICKET	408	n/a	n/a	0	0	0
2931.378	n/a	WORD	1465689	wordpools/wasnorm_wordpool_576.txt	LTP298	ltpFR2	8	13	CLAMP	316	n/a	n/a	0	0	0
2934.114	n/a	WORD	1467057	wordpools/wasnorm_wordpool_576.txt	LTP298	ltpFR2	8	13	LUGGAGE	847	n/a	n/a	0	0	0
2936.55	n/a	WORD	1468275	wordpools/wasnorm_wordpool_576.txt	LTP298	ltpFR2	8	13	SUITCASE	1403	n/a	n/a	0	0	0
2939.036	n/a	WORD	1469518	wordpools/wasnorm_wordpool_576.txt	LTP298	ltpFR2	8	13	SUBWAY	1400	n/a	n/a	0	0	0
2941.696	n/a	WORD	1470848	wordpools/wasnorm_wordpool_576.txt	LTP298	ltpFR2	8	13	SANDWICH	1232	n/a	n/a	0	0	0
2944.44	n/a	WORD	1472220	wordpools/wasnorm_wordpool_576.txt	LTP298	ltpFR2	8	13	MONSTER	912	n/a	n/a	0	0	0
2947.05	n/a	WORD	1473525	wordpools/wasnorm_wordpool_576.txt	LTP298	ltpFR2	8	13	BIKE	125	n/a	n/a	0	0	0
2949.694	n/a	WORD	1474847	wordpools/wasnorm_wordpool_576.txt	LTP298	ltpFR2	8	13	OINTMENT	974	n/a	n/a	0	0	0
2952.488	n/a	WORD	1476244	wordpools/wasnorm_wordpool_576.txt	LTP298	ltpFR2	8	13	WOMAN	1620	n/a	n/a	0	0	0
2954.906	n/a	WORD	1477453	wordpools/wasnorm_wordpool_576.txt	LTP298	ltpFR2	8	13	RADISH	1158	n/a	n/a	0	0	0
2957.332	n/a	WORD	1478666	wordpools/wasnorm_wordpool_576.txt	LTP298	ltpFR2	8	13	HUSBAND	728	n/a	n/a	0	0	0
2959.868	n/a	WORD	1479934	wordpools/wasnorm_wordpool_576.txt	LTP298	ltpFR2	8	13	PENGUIN	1044	n/a	n/a	0	0	0
2962.48	n/a	WORD	1481240	wordpools/wasnorm_wordpool_576.txt	LTP298	ltpFR2	8	13	ICEBERG	731	n/a	n/a	0	0	0
2965.248	n/a	WORD	1482624	wordpools/wasnorm_wordpool_576.txt	LTP298	ltpFR2	8	13	FEMALE	559	n/a	n/a	0	0	0
2967.85	n/a	WORD	1483925	wordpools/wasnorm_wordpool_576.txt	LTP298	ltpFR2	8	13	SEAL	1262	n/a	n/a	0	0	0
2970.396	n/a	WORD	1485198	wordpools/wasnorm_wordpool_576.txt	LTP298	ltpFR2	8	13	RELISH	1183	n/a	n/a	0	0	0
2972.88	n/a	WORD	1486440	wordpools/wasnorm_wordpool_576.txt	LTP298	ltpFR2	8	13	BOYFRIEND	162	n/a	n/a	0	0	0
2975.306	n/a	WORD	1487653	wordpools/wasnorm_wordpool_576.txt	LTP298	ltpFR2	8	13	PADDLE	1000	n/a	n/a	0	0	0
2978.108	n/a	WORD	1489054	wordpools/wasnorm_wordpool_576.txt	LTP298	ltpFR2	8	13	LIZARD	834	n/a	n/a	0	0	0
2980.77	n/a	WORD	1490385	wordpools/wasnorm_wordpool_576.txt	LTP298	ltpFR2	8	13	PIGMENT	1066	n/a	n/a	0	0	0
2982.378	n/a	START	1491189	n/a	LTP298	ltpFR2	8	n/a	n/a	n/a	19	n/a	n/a	n/a	n/a
2983.234	n/a	DISTRACTOR	1491617	n/a	LTP298	ltpFR2	8	13	n/a	n/a	n/a	n/a	0	0	0
2983.24	n/a	PROB	1491620	n/a	LTP298	ltpFR2	8	n/a	n/a	n/a	19	18	7	3	8
2985.946	n/a	PROB	1492973	n/a	LTP298	ltpFR2	8	n/a	n/a	n/a	19	14	4	2	8
2988.75	n/a	PROB	1494375	n/a	LTP298	ltpFR2	8	n/a	n/a	n/a	19	16	4	8	4
2994.686	n/a	PROB	1497343	n/a	LTP298	ltpFR2	8	n/a	n/a	n/a	19	23	6	7	9
3006.38	n/a	STOP	1503190	n/a	LTP298	ltpFR2	8	n/a	n/a	n/a	19	n/a	n/a	n/a	n/a
3008.194	n/a	REC_START	1504097	n/a	LTP298	ltpFR2	8	13	n/a	n/a	n/a	n/a	0	0	0
3015.06	n/a	REC_WORD	1507530	wordpools/wasnorm_wordpool_576.txt	LTP298	ltpFR2	8	13	BUG	187	n/a	n/a	0	0	0
3015.764	n/a	REC_WORD	1507882	wordpools/wasnorm_wordpool_576.txt	LTP298	ltpFR2	8	13	LOVER	846	n/a	n/a	0	0	0
3016.552	n/a	REC_WORD	1508276	wordpools/wasnorm_wordpool_576.txt	LTP298	ltpFR2	8	13	GARBAGE	622	n/a	n/a	0	0	0
3017.438	n/a	REC_WORD	1508719	wordpools/wasnorm_wordpool_576.txt	LTP298	ltpFR2	8	13	CRICKET	408	n/a	n/a	0	0	0
3018.35	n/a	REC_WORD	1509175	wordpools/wasnorm_wordpool_576.txt	LTP298	ltpFR2	8	13	CLAMP	316	n/a	n/a	0	0	0
3020.05	n/a	REC_WORD	1510025	wordpools/wasnorm_wordpool_576.txt	LTP298	ltpFR2	8	13	SUITCASE	1403	n/a	n/a	0	0	0
3021.106	n/a	REC_WORD	1510553	wordpools/wasnorm_wordpool_576.txt	LTP298	ltpFR2	8	13	LUGGAGE	847	n/a	n/a	0	0	0
3022.5	n/a	REC_WORD	1511250	wordpools/wasnorm_wordpool_576.txt	LTP298	ltpFR2	8	13	SUBWAY	1400	n/a	n/a	0	0	0
3023.41	n/a	REC_WORD	1511705	wordpools/wasnorm_wordpool_576.txt	LTP298	ltpFR2	8	13	SANDWICH	1232	n/a	n/a	0	0	0
3026.966	n/a	REC_WORD	1513483	wordpools/wasnorm_wordpool_576.txt	LTP298	ltpFR2	8	13	MONSTER	912	n/a	n/a	0	0	0
3027.912	n/a	REC_WORD	1513956	wordpools/wasnorm_wordpool_576.txt	LTP298	ltpFR2	8	13	BIKE	125	n/a	n/a	0	0	0
3028.856	n/a	REC_WORD	1514428	wordpools/wasnorm_wordpool_576.txt	LTP298	ltpFR2	8	13	OINTMENT	974	n/a	n/a	0	0	0
3029.624	n/a	REC_WORD	1514812	wordpools/wasnorm_wordpool_576.txt	LTP298	ltpFR2	8	13	WOMAN	1620	n/a	n/a	0	0	0
3032.43	n/a	REC_WORD	1516215	wordpools/wasnorm_wordpool_576.txt	LTP298	ltpFR2	8	13	RADISH	1158	n/a	n/a	0	0	0
3033.194	n/a	REC_WORD	1516597	wordpools/wasnorm_wordpool_576.txt	LTP298	ltpFR2	8	13	HUSBAND	728	n/a	n/a	0	0	0
3034.034	n/a	REC_WORD	1517017	wordpools/wasnorm_wordpool_576.txt	LTP298	ltpFR2	8	13	PENGUIN	1044	n/a	n/a	0	0	0
3034.846	n/a	REC_WORD	1517423	wordpools/wasnorm_wordpool_576.txt	LTP298	ltpFR2	8	13	ICEBERG	731	n/a	n/a	0	0	0
3039.014	n/a	REC_WORD	1519507	wordpools/wasnorm_wordpool_576.txt	LTP298	ltpFR2	8	13	FEMALE	559	n/a	n/a	0	0	0
3039.614	n/a	REC_WORD	1519807	wordpools/wasnorm_wordpool_576.txt	LTP298	ltpFR2	8	13	SEAL	1262	n/a	n/a	0	0	0
3098.67	n/a	WORD	1549335	wordpools/wasnorm_wordpool_576.txt	LTP298	ltpFR2	8	14	HIGHWAY	707	n/a	n/a	0	0	0
3101.29	n/a	WORD	1550645	wordpools/wasnorm_wordpool_576.txt	LTP298	ltpFR2	8	14	AGENT	10	n/a	n/a	0	0	0
3103.856	n/a	WORD	1551928	wordpools/wasnorm_wordpool_576.txt	LTP298	ltpFR2	8	14	GIRL	637	n/a	n/a	0	0	0
3106.498	n/a	WORD	1553249	wordpools/wasnorm_wordpool_576.txt	LTP298	ltpFR2	8	14	ONION	977	n/a	n/a	0	0	0
3108.978	n/a	WORD	1554489	wordpools/wasnorm_wordpool_576.txt	LTP298	ltpFR2	8	14	STAR	1373	n/a	n/a	0	0	0
3111.414	n/a	WORD	1555707	wordpools/wasnorm_wordpool_576.txt	LTP298	ltpFR2	8	14	STAMP	1370	n/a	n/a	0	0	0
3114.2	n/a	WORD	1557100	wordpools/wasnorm_wordpool_576.txt	LTP298	ltpFR2	8	14	TABLET	1427	n/a	n/a	0	0	0
3116.818	n/a	WORD	1558409	wordpools/wasnorm_wordpool_576.txt	LTP298	ltpFR2	8	14	PECAN	1036	n/a	n/a	0	0	0
3119.538	n/a	WORD	1559769	wordpools/wasnorm_wordpool_576.txt	LTP298	ltpFR2	8	14	BRACES	164	n/a	n/a	0	0	0
3122.138	n/a	WORD	1561069	wordpools/wasnorm_wordpool_576.txt	LTP298	ltpFR2	8	14	ACTOR	5	n/a	n/a	0	0	0
3124.658	n/a	WORD	1562329	wordpools/wasnorm_wordpool_576.txt	LTP298	ltpFR2	8	14	DRESSER	496	n/a	n/a	0	0	0
3127.426	n/a	WORD	1563713	wordpools/wasnorm_wordpool_576.txt	LTP298	ltpFR2	8	14	SPOOL	1356	n/a	n/a	0	0	0
3129.91	n/a	WORD	1564955	wordpools/wasnorm_wordpool_576.txt	LTP298	ltpFR2	8	14	EAGLE	512	n/a	n/a	0	0	0
3132.402	n/a	WORD	1566201	wordpools/wasnorm_wordpool_576.txt	LTP298	ltpFR2	8	14	PIGEON	1065	n/a	n/a	0	0	0
3134.848	n/a	WORD	1567424	wordpools/wasnorm_wordpool_576.txt	LTP298	ltpFR2	8	14	PUDDLE	1140	n/a	n/a	0	0	0
3137.474	n/a	WORD	1568737	wordpools/wasnorm_wordpool_576.txt	LTP298	ltpFR2	8	14	FRAGRANCE	599	n/a	n/a	0	0	0
3140.036	n/a	WORD	1570018	wordpools/wasnorm_wordpool_576.txt	LTP298	ltpFR2	8	14	TOURIST	1488	n/a	n/a	0	0	0
3142.506	n/a	WORD	1571253	wordpools/wasnorm_wordpool_576.txt	LTP298	ltpFR2	8	14	BANKER	84	n/a	n/a	0	0	0
3145.028	n/a	WORD	1572514	wordpools/wasnorm_wordpool_576.txt	LTP298	ltpFR2	8	14	PEBBLE	1035	n/a	n/a	0	0	0
3147.598	n/a	WORD	1573799	wordpools/wasnorm_wordpool_576.txt	LTP298	ltpFR2	8	14	CORAL	378	n/a	n/a	0	0	0
3150.2	n/a	WORD	1575100	wordpools/wasnorm_wordpool_576.txt	LTP298	ltpFR2	8	14	PEACH	1031	n/a	n/a	0	0	0
3152.696	n/a	WORD	1576348	wordpools/wasnorm_wordpool_576.txt	LTP298	ltpFR2	8	14	PAPER	1011	n/a	n/a	0	0	0
3155.382	n/a	WORD	1577691	wordpools/wasnorm_wordpool_576.txt	LTP298	ltpFR2	8	14	DENTIST	447	n/a	n/a	0	0	0
3158.1	n/a	WORD	1579050	wordpools/wasnorm_wordpool_576.txt	LTP298	ltpFR2	8	14	LAPEL	800	n/a	n/a	0	0	0
3159.708	n/a	START	1579854	n/a	LTP298	ltpFR2	8	n/a	n/a	n/a	20	n/a	n/a	n/a	n/a
3160.81	n/a	DISTRACTOR	1580405	n/a	LTP298	ltpFR2	8	14	n/a	n/a	n/a	n/a	0	0	0
3160.818	n/a	PROB	1580409	n/a	LTP298	ltpFR2	8	n/a	n/a	n/a	20	24	8	7	9
3167.608	n/a	PROB	1583804	n/a	LTP298	ltpFR2	8	n/a	n/a	n/a	20	11	9	1	1
3169.292	n/a	PROB	1584646	n/a	LTP298	ltpFR2	8	n/a	n/a	n/a	20	11	3	6	2
3172.396	n/a	PROB	1586198	n/a	LTP298	ltpFR2	8	n/a	n/a	n/a	20	14	4	2	8
3174.98	n/a	PROB	1587490	n/a	LTP298	ltpFR2	8	n/a	n/a	n/a	20	11	2	6	3
3177.832	n/a	PROB	1588916	n/a	LTP298	ltpFR2	8	n/a	n/a	n/a	20	9	3	4	2
3182.508	n/a	STOP	1591254	n/a	LTP298	ltpFR2	8	n/a	n/a	n/a	20	n/a	n/a	n/a	n/a
3185.54	n/a	REC_START	1592770	n/a	LTP298	ltpFR2	8	14	n/a	n/a	n/a	n/a	0	0	0
3186.644	n/a	REC_WORD	1593322	wordpools/wasnorm_wordpool_576.txt	LTP298	ltpFR2	8	14	HIGHWAY	707	n/a	n/a	0	0	0
3188.392	n/a	REC_WORD	1594196	wordpools/wasnorm_wordpool_576.txt	LTP298	ltpFR2	8	14	AGENT	10	n/a	n/a	0	0	0
3189.456	n/a	REC_WORD	1594728	wordpools/wasnorm_wordpool_576.txt	LTP298	ltpFR2	8	14	GIRL	637	n/a	n/a	0	0	0
3190.266	n/a	REC_WORD	1595133	wordpools/wasnorm_wordpool_576.txt	LTP298	ltpFR2	8	14	ONION	977	n/a	n/a	0	0	0
3190.996	n/a	REC_WORD	1595498	wordpools/wasnorm_wordpool_576.txt	LTP298	ltpFR2	8	14	STAR	1373	n/a	n/a	0	0	0
3191.756	n/a	REC_WORD	1595878	wordpools/wasnorm_wordpool_576.txt	LTP298	ltpFR2	8	14	STAMP	1370	n/a	n/a	0	0	0
3193.152	n/a	REC_WORD	1596576	wordpools/wasnorm_wordpool_576.txt	LTP298	ltpFR2	8	14	TABLET	1427	n/a	n/a	0	0	0
3194.286	n/a	REC_WORD	1597143	wordpools/wasnorm_wordpool_576.txt	LTP298	ltpFR2	8	14	PECAN	1036	n/a	n/a	0	0	0
3195.414	n/a	REC_WORD	1597707	wordpools/wasnorm_wordpool_576.txt	LTP298	ltpFR2	8	14	BRACES	164	n/a	n/a	0	0	0
3197.898	n/a	REC_WORD	1598949	wordpools/wasnorm_wordpool_576.txt	LTP298	ltpFR2	8	14	ACTOR	5	n/a	n/a	0	0	0
3198.648	n/a	REC_WORD	1599324	wordpools/wasnorm_wordpool_576.txt	LTP298	ltpFR2	8	14	DRESSER	496	n/a	n/a	0	0	0
3210.434	n/a	REC_WORD	1605217	wordpools/wasnorm_wordpool_576.txt	LTP298	ltpFR2	8	14	LAPEL	800	n/a	n/a	0	0	0
3223.632	n/a	REC_WORD	1611816	wordpools/wasnorm_wordpool_576.txt	LTP298	ltpFR2	8	14	TOURIST	1488	n/a	n/a	0	0	0
3224.302	n/a	REC_WORD	1612151	wordpools/wasnorm_wordpool_576.txt	LTP298	ltpFR2	8	14	BANKER	84	n/a	n/a	0	0	0
3225.434	n/a	REC_WORD	1612717	wordpools/wasnorm_wordpool_576.txt	LTP298	ltpFR2	8	14	PEBBLE	1035	n/a	n/a	0	0	0
3228.108	n/a	REC_WORD	1614054	wordpools/wasnorm_wordpool_576.txt	LTP298	ltpFR2	8	14	CORAL	378	n/a	n/a	0	0	0
3229.124	n/a	REC_WORD	1614562	wordpools/wasnorm_wordpool_576.txt	LTP298	ltpFR2	8	14	PEACH	1031	n/a	n/a	0	0	0
3230.022	n/a	REC_WORD_VV	1615011	wordpools/wasnorm_wordpool_576.txt	LTP298	ltpFR2	8	14	<>	-1	n/a	n/a	0	0	0
3230.764	n/a	REC_WORD	1615382	wordpools/wasnorm_wordpool_576.txt	LTP298	ltpFR2	8	14	PAPER	1011	n/a	n/a	0	0	0
3232.792	n/a	REC_WORD	1616396	wordpools/wasnorm_wordpool_576.txt	LTP298	ltpFR2	8	14	DENTIST	447	n/a	n/a	0	0	0
3275.994	n/a	DISTRACTOR	1637997	n/a	LTP298	ltpFR2	8	15	n/a	n/a	n/a	n/a	0	0	0
3275.994	n/a	START	1637997	n/a	LTP298	ltpFR2	8	n/a	n/a	n/a	21	n/a	n/a	n/a	n/a
3276.01	n/a	PROB	1638005	n/a	LTP298	ltpFR2	8	n/a	n/a	n/a	21	12	1	6	5
3278.494	n/a	PROB	1639247	n/a	LTP298	ltpFR2	8	n/a	n/a	n/a	21	15	7	7	1
3282.514	n/a	PROB	1641257	n/a	LTP298	ltpFR2	8	n/a	n/a	n/a	21	13	7	4	2
3286.166	n/a	PROB	1643083	n/a	LTP298	ltpFR2	8	n/a	n/a	n/a	21	11	2	4	5
3289.92	n/a	PROB	1644960	n/a	LTP298	ltpFR2	8	n/a	n/a	n/a	21	18	7	3	8
3291.756	n/a	PROB	1645878	n/a	LTP298	ltpFR2	8	n/a	n/a	n/a	21	10	5	3	2
3296.14	n/a	PROB	1648070	n/a	LTP298	ltpFR2	8	n/a	n/a	n/a	21	16	3	4	9
3299.894	n/a	STOP	1649947	n/a	LTP298	ltpFR2	8	n/a	n/a	n/a	21	n/a	n/a	n/a	n/a
3301.198	n/a	WORD	1650599	wordpools/wasnorm_wordpool_576.txt	LTP298	ltpFR2	8	15	OYSTER	995	n/a	n/a	0	0	0
3303.798	n/a	WORD	1651899	wordpools/wasnorm_wordpool_576.txt	LTP298	ltpFR2	8	15	YACHT	1629	n/a	n/a	0	0	0
3306.468	n/a	WORD	1653234	wordpools/wasnorm_wordpool_576.txt	LTP298	ltpFR2	8	15	MOTOR	922	n/a	n/a	0	0	0
3309.02	n/a	WORD	1654510	wordpools/wasnorm_wordpool_576.txt	LTP298	ltpFR2	8	15	GREASE	660	n/a	n/a	0	0	0
3311.822	n/a	WORD	1655911	wordpools/wasnorm_wordpool_576.txt	LTP298	ltpFR2	8	15	TRUCK	1512	n/a	n/a	0	0	0
3314.442	n/a	WORD	1657221	wordpools/wasnorm_wordpool_576.txt	LTP298	ltpFR2	8	15	SHARK	1275	n/a	n/a	0	0	0
3317.142	n/a	WORD	1658571	wordpools/wasnorm_wordpool_576.txt	LTP298	ltpFR2	8	15	NOMAD	955	n/a	n/a	0	0	0
3319.728	n/a	WORD	1659864	wordpools/wasnorm_wordpool_576.txt	LTP298	ltpFR2	8	15	SHORTS	1293	n/a	n/a	0	0	0
3322.264	n/a	WORD	1661132	wordpools/wasnorm_wordpool_576.txt	LTP298	ltpFR2	8	15	SHIRT	1287	n/a	n/a	0	0	0
3324.766	n/a	WORD	1662383	wordpools/wasnorm_wordpool_576.txt	LTP298	ltpFR2	8	15	ORCHID	982	n/a	n/a	0	0	0
3327.434	n/a	WORD	1663717	wordpools/wasnorm_wordpool_576.txt	LTP298	ltpFR2	8	15	HATCHET	691	n/a	n/a	0	0	0
3330.238	n/a	WORD	1665119	wordpools/wasnorm_wordpool_576.txt	LTP298	ltpFR2	8	15	PUPIL	1143	n/a	n/a	0	0	0
3332.972	n/a	WORD	1666486	wordpools/wasnorm_wordpool_576.txt	LTP298	ltpFR2	8	15	SUPPER	1411	n/a	n/a	0	0	0
3335.69	n/a	WORD	1667845	wordpools/wasnorm_wordpool_576.txt	LTP298	ltpFR2	8	15	PREACHER	1119	n/a	n/a	0	0	0
3338.478	n/a	WORD	1669239	wordpools/wasnorm_wordpool_576.txt	LTP298	ltpFR2	8	15	SPACE	1345	n/a	n/a	0	0	0
3341.212	n/a	WORD	1670606	wordpools/wasnorm_wordpool_576.txt	LTP298	ltpFR2	8	15	LASER	801	n/a	n/a	0	0	0
3343.898	n/a	WORD	1671949	wordpools/wasnorm_wordpool_576.txt	LTP298	ltpFR2	8	15	RUST	1219	n/a	n/a	0	0	0
3346.45	n/a	WORD	1673225	wordpools/wasnorm_wordpool_576.txt	LTP298	ltpFR2	8	15	HUMAN	726	n/a	n/a	0	0	0
3349.234	n/a	WORD	1674617	wordpools/wasnorm_wordpool_576.txt	LTP298	ltpFR2	8	15	STUDENT	1395	n/a	n/a	0	0	0
3351.72	n/a	WORD	1675860	wordpools/wasnorm_wordpool_576.txt	LTP298	ltpFR2	8	15	NECKLACE	940	n/a	n/a	0	0	0
3354.506	n/a	WORD	1677253	wordpools/wasnorm_wordpool_576.txt	LTP298	ltpFR2	8	15	RUG	1215	n/a	n/a	0	0	0
3357.29	n/a	WORD	1678645	wordpools/wasnorm_wordpool_576.txt	LTP298	ltpFR2	8	15	KNIFE	785	n/a	n/a	0	0	0
3360.06	n/a	WORD	1680030	wordpools/wasnorm_wordpool_576.txt	LTP298	ltpFR2	8	15	CAMEL	223	n/a	n/a	0	0	0
3362.812	n/a	WORD	1681406	wordpools/wasnorm_wordpool_576.txt	LTP298	ltpFR2	8	15	GUITAR	670	n/a	n/a	0	0	0
3364.42	n/a	START	1682210	n/a	LTP298	ltpFR2	8	n/a	n/a	n/a	22	n/a	n/a	n/a	n/a
3365.25	n/a	DISTRACTOR	1682625	n/a	LTP298	ltpFR2	8	15	n/a	n/a	n/a	n/a	0	0	0
3365.264	n/a	PROB	1682632	n/a	LTP298	ltpFR2	8	n/a	n/a	n/a	22	18	5	9	4
3369.35	n/a	PROB	1684675	n/a	LTP298	ltpFR2	8	n/a	n/a	n/a	22	19	9	1	9
3371.986	n/a	PROB	1685993	n/a	LTP298	ltpFR2	8	n/a	n/a	n/a	22	5	1	2	3
3374.07	n/a	PROB	1687035	n/a	LTP298	ltpFR2	8	n/a	n/a	n/a	22	17	3	7	7
3380.56	n/a	PROB	1690280	n/a	LTP298	ltpFR2	8	n/a	n/a	n/a	22	9	5	2	2
3383.044	n/a	PROB	1691522	n/a	LTP298	ltpFR2	8	n/a	n/a	n/a	22	12	3	1	8
3388.42	n/a	STOP	1694210	n/a	LTP298	ltpFR2	8	n/a	n/a	n/a	22	n/a	n/a	n/a	n/a
3390.268	n/a	REC_START	1695134	n/a	LTP298	ltpFR2	8	15	n/a	n/a	n/a	n/a	0	0	0
3391.202	n/a	REC_WORD	1695601	wordpools/wasnorm_wordpool_576.txt	LTP298	ltpFR2	8	15	OYSTER	995	n/a	n/a	0	0	0
3392.342	n/a	REC_WORD	1696171	wordpools/wasnorm_wordpool_576.txt	LTP298	ltpFR2	8	15	YACHT	1629	n/a	n/a	0	0	0
3480.702	n/a	DISTRACTOR	1740351	n/a	LTP298	ltpFR2	8	16	n/a	n/a	n/a	n/a	0	0	0
3480.702	n/a	START	1740351	n/a	LTP298	ltpFR2	8	n/a	n/a	n/a	23	n/a	n/a	n/a	n/a
3480.716	n/a	PROB	1740358	n/a	LTP298	ltpFR2	8	n/a	n/a	n/a	23	16	6	5	5
3483.64	n/a	PROB	1741820	n/a	LTP298	ltpFR2	8	n/a	n/a	n/a	23	18	9	7	2
3489.094	n/a	PROB	1744547	n/a	LTP298	ltpFR2	8	n/a	n/a	n/a	23	10	6	2	2
3492.894	n/a	PROB	1746447	n/a	LTP298	ltpFR2	8	n/a	n/a	n/a	23	16	3	5	8
3497.588	n/a	PROB	1748794	n/a	LTP298	ltpFR2	8	n/a	n/a	n/a	23	6	2	1	3
3500.574	n/a	PROB	1750287	n/a	LTP298	ltpFR2	8	n/a	n/a	n/a	23	9	3	1	5
3504.704	n/a	STOP	1752352	n/a	LTP298	ltpFR2	8	n/a	n/a	n/a	23	n/a	n/a	n/a	n/a
3505.59	n/a	WORD	1752795	wordpools/wasnorm_wordpool_576.txt	LTP298	ltpFR2	8	16	BANJO	82	n/a	n/a	0	0	0
3508.208	n/a	WORD	1754104	wordpools/wasnorm_wordpool_576.txt	LTP298	ltpFR2	8	16	RECEIPT	1173	n/a	n/a	0	0	0
3510.694	n/a	WORD	1755347	wordpools/wasnorm_wordpool_576.txt	LTP298	ltpFR2	8	16	CASKET	255	n/a	n/a	0	0	0
3513.146	n/a	WORD	1756573	wordpools/wasnorm_wordpool_576.txt	LTP298	ltpFR2	8	16	GAVEL	627	n/a	n/a	0	0	0
3515.966	n/a	WORD	1757983	wordpools/wasnorm_wordpool_576.txt	LTP298	ltpFR2	8	16	PLUTO	1092	n/a	n/a	0	0	0
3518.4	n/a	WORD	1759200	wordpools/wasnorm_wordpool_576.txt	LTP298	ltpFR2	8	16	BISON	131	n/a	n/a	0	0	0
3520.986	n/a	WORD	1760493	wordpools/wasnorm_wordpool_576.txt	LTP298	ltpFR2	8	16	OX	994	n/a	n/a	0	0	0
3523.79	n/a	WORD	1761895	wordpools/wasnorm_wordpool_576.txt	LTP298	ltpFR2	8	16	MOTEL	919	n/a	n/a	0	0	0
3526.542	n/a	WORD	1763271	wordpools/wasnorm_wordpool_576.txt	LTP298	ltpFR2	8	16	ROBBER	1197	n/a	n/a	0	0	0
3528.992	n/a	WORD	1764496	wordpools/wasnorm_wordpool_576.txt	LTP298	ltpFR2	8	16	SUSPECT	1415	n/a	n/a	0	0	0
3531.796	n/a	WORD	1765898	wordpools/wasnorm_wordpool_576.txt	LTP298	ltpFR2	8	16	INFANT	737	n/a	n/a	0	0	0
3534.582	n/a	WORD	1767291	wordpools/wasnorm_wordpool_576.txt	LTP298	ltpFR2	8	16	GLASS	639	n/a	n/a	0	0	0
3537.284	n/a	WORD	1768642	wordpools/wasnorm_wordpool_576.txt	LTP298	ltpFR2	8	16	DRILL	497	n/a	n/a	0	0	0
3539.852	n/a	WORD	1769926	wordpools/wasnorm_wordpool_576.txt	LTP298	ltpFR2	8	16	ROBIN	1199	n/a	n/a	0	0	0
3542.472	n/a	WORD	1771236	wordpools/wasnorm_wordpool_576.txt	LTP298	ltpFR2	8	16	BELLY	119	n/a	n/a	0	0	0
3545.14	n/a	WORD	1772570	wordpools/wasnorm_wordpool_576.txt	LTP298	ltpFR2	8	16	EGYPT	519	n/a	n/a	0	0	0
3547.842	n/a	WORD	1773921	wordpools/wasnorm_wordpool_576.txt	LTP298	ltpFR2	8	16	SODA	1341	n/a	n/a	0	0	0
3550.512	n/a	WORD	1775256	wordpools/wasnorm_wordpool_576.txt	LTP298	ltpFR2	8	16	TROUT	1511	n/a	n/a	0	0	0
3553.064	n/a	WORD	1776532	wordpools/wasnorm_wordpool_576.txt	LTP298	ltpFR2	8	16	APPLE	33	n/a	n/a	0	0	0
3555.664	n/a	WORD	1777832	wordpools/wasnorm_wordpool_576.txt	LTP298	ltpFR2	8	16	LETTUCE	814	n/a	n/a	0	0	0
3558.25	n/a	WORD	1779125	wordpools/wasnorm_wordpool_576.txt	LTP298	ltpFR2	8	16	COOKBOOK	373	n/a	n/a	0	0	0
3560.752	n/a	WORD	1780376	wordpools/wasnorm_wordpool_576.txt	LTP298	ltpFR2	8	16	DRAGON	492	n/a	n/a	0	0	0
3563.322	n/a	WORD	1781661	wordpools/wasnorm_wordpool_576.txt	LTP298	ltpFR2	8	16	PLAYGROUND	1087	n/a	n/a	0	0	0
3565.806	n/a	WORD	1782903	wordpools/wasnorm_wordpool_576.txt	LTP298	ltpFR2	8	16	STOMACH	1384	n/a	n/a	0	0	0
3567.428	n/a	START	1783714	n/a	LTP298	ltpFR2	8	n/a	n/a	n/a	24	n/a	n/a	n/a	n/a
3568.532	n/a	DISTRACTOR	1784266	n/a	LTP298	ltpFR2	8	16	n/a	n/a	n/a	n/a	0	0	0
3568.544	n/a	PROB	1784272	n/a	LTP298	ltpFR2	8	n/a	n/a	n/a	24	17	5	3	9
3578.418	n/a	PROB	1789209	n/a	LTP298	ltpFR2	8	n/a	n/a	n/a	24	15	6	6	3
3585.922	n/a	PROB	1792961	n/a	LTP298	ltpFR2	8	n/a	n/a	n/a	24	15	2	4	9
3590.694	n/a	STOP	1795347	n/a	LTP298	ltpFR2	8	n/a	n/a	n/a	24	n/a	n/a	n/a	n/a
3593.194	n/a	REC_START	1796597	n/a	LTP298	ltpFR2	8	16	n/a	n/a	n/a	n/a	0	0	0
3594.15	n/a	REC_WORD	1797075	wordpools/wasnorm_wordpool_576.txt	LTP298	ltpFR2	8	16	EGYPT	519	n/a	n/a	0	0	0
3594.956	n/a	REC_WORD	1797478	wordpools/wasnorm_wordpool_576.txt	LTP298	ltpFR2	8	16	SODA	1341	n/a	n/a	0	0	0
3595.778	n/a	REC_WORD	1797889	wordpools/wasnorm_wordpool_576.txt	LTP298	ltpFR2	8	16	TROUT	1511	n/a	n/a	0	0	0
3596.52	n/a	REC_WORD	1798260	wordpools/wasnorm_wordpool_576.txt	LTP298	ltpFR2	8	16	APPLE	33	n/a	n/a	0	0	0
3602.184	n/a	REC_WORD	1801092	wordpools/wasnorm_wordpool_576.txt	LTP298	ltpFR2	8	16	INFANT	737	n/a	n/a	0	0	0
3602.854	n/a	REC_WORD	1801427	wordpools/wasnorm_wordpool_576.txt	LTP298	ltpFR2	8	16	GLASS	639	n/a	n/a	0	0	0
3603.554	n/a	REC_WORD	1801777	wordpools/wasnorm_wordpool_576.txt	LTP298	ltpFR2	8	16	DRILL	497	n/a	n/a	0	0	0
3604.72	n/a	REC_WORD	1802360	wordpools/wasnorm_wordpool_576.txt	LTP298	ltpFR2	8	16	BELLY	119	n/a	n/a	0	0	0
3605.486	n/a	REC_WORD	1802743	wordpools/wasnorm_wordpool_576.txt	LTP298	ltpFR2	8	16	ROBIN	1199	n/a	n/a	0	0	0
3669.724	n/a	REST_REWET	1834862	n/a	LTP298	ltpFR2	8	16	n/a	n/a	n/a	n/a	0	0	0
3942.088	n/a	WORD	1971044	wordpools/wasnorm_wordpool_576.txt	LTP298	ltpFR2	8	17	MEAT	883	n/a	n/a	0	0	0
3944.806	n/a	WORD	1972403	wordpools/wasnorm_wordpool_576.txt	LTP298	ltpFR2	8	17	BEEF	113	n/a	n/a	0	0	0
3947.504	n/a	WORD	1973752	wordpools/wasnorm_wordpool_576.txt	LTP298	ltpFR2	8	17	SILK	1307	n/a	n/a	0	0	0
3950.272	n/a	WORD	1975136	wordpools/wasnorm_wordpool_576.txt	LTP298	ltpFR2	8	17	CRUTCH	417	n/a	n/a	0	0	0
3952.842	n/a	WORD	1976421	wordpools/wasnorm_wordpool_576.txt	LTP298	ltpFR2	8	17	KIDNEY	776	n/a	n/a	0	0	0
3955.612	n/a	WORD	1977806	wordpools/wasnorm_wordpool_576.txt	LTP298	ltpFR2	8	17	MAPLE	866	n/a	n/a	0	0	0
3958.112	n/a	WORD	1979056	wordpools/wasnorm_wordpool_576.txt	LTP298	ltpFR2	8	17	RATTLE	1170	n/a	n/a	0	0	0
3960.614	n/a	WORD	1980307	wordpools/wasnorm_wordpool_576.txt	LTP298	ltpFR2	8	17	CARRIAGE	248	n/a	n/a	0	0	0
3963.216	n/a	WORD	1981608	wordpools/wasnorm_wordpool_576.txt	LTP298	ltpFR2	8	17	PICNIC	1060	n/a	n/a	0	0	0
3965.968	n/a	WORD	1982984	wordpools/wasnorm_wordpool_576.txt	LTP298	ltpFR2	8	17	VIKING	1565	n/a	n/a	0	0	0
3968.524	n/a	WORD	1984262	wordpools/wasnorm_wordpool_576.txt	LTP298	ltpFR2	8	17	HEART	697	n/a	n/a	0	0	0
3971.058	n/a	WORD	1985529	wordpools/wasnorm_wordpool_576.txt	LTP298	ltpFR2	8	17	PERFUME	1049	n/a	n/a	0	0	0
3973.842	n/a	WORD	1986921	wordpools/wasnorm_wordpool_576.txt	LTP298	ltpFR2	8	17	SPONGE	1355	n/a	n/a	0	0	0
3976.378	n/a	WORD	1988189	wordpools/wasnorm_wordpool_576.txt	LTP298	ltpFR2	8	17	CONCERT	360	n/a	n/a	0	0	0
3979.03	n/a	WORD	1989515	wordpools/wasnorm_wordpool_576.txt	LTP298	ltpFR2	8	17	SWORD	1423	n/a	n/a	0	0	0
3981.816	n/a	WORD	1990908	wordpools/wasnorm_wordpool_576.txt	LTP298	ltpFR2	8	17	NOVEL	960	n/a	n/a	0	0	0
3984.52	n/a	WORD	1992260	wordpools/wasnorm_wordpool_576.txt	LTP298	ltpFR2	8	17	GARLIC	624	n/a	n/a	0	0	0
3987.186	n/a	WORD	1993593	wordpools/wasnorm_wordpool_576.txt	LTP298	ltpFR2	8	17	PEPPER	1047	n/a	n/a	0	0	0
3989.692	n/a	WORD	1994846	wordpools/wasnorm_wordpool_576.txt	LTP298	ltpFR2	8	17	SHRUB	1299	n/a	n/a	0	0	0
3992.324	n/a	WORD	1996162	wordpools/wasnorm_wordpool_576.txt	LTP298	ltpFR2	8	17	ISLAND	745	n/a	n/a	0	0	0
3995.026	n/a	WORD	1997513	wordpools/wasnorm_wordpool_576.txt	LTP298	ltpFR2	8	17	ARMY	39	n/a	n/a	0	0	0
3997.564	n/a	WORD	1998782	wordpools/wasnorm_wordpool_576.txt	LTP298	ltpFR2	8	17	FRIEND	606	n/a	n/a	0	0	0
4000.382	n/a	WORD	2000191	wordpools/wasnorm_wordpool_576.txt	LTP298	ltpFR2	8	17	UMPIRE	1535	n/a	n/a	0	0	0
4003.068	n/a	WORD	2001534	wordpools/wasnorm_wordpool_576.txt	LTP298	ltpFR2	8	17	FIDDLE	561	n/a	n/a	0	0	0
4004.688	n/a	START	2002344	n/a	LTP298	ltpFR2	8	n/a	n/a	n/a	25	n/a	n/a	n/a	n/a
4005.686	n/a	DISTRACTOR	2002843	n/a	LTP298	ltpFR2	8	17	n/a	n/a	n/a	n/a	0	0	0
4005.704	n/a	PROB	2002852	n/a	LTP298	ltpFR2	8	n/a	n/a	n/a	25	16	4	6	6
4010.86	n/a	PROB	2005430	n/a	LTP298	ltpFR2	8	n/a	n/a	n/a	25	19	7	3	9
4015.062	n/a	PROB	2007531	n/a	LTP298	ltpFR2	8	n/a	n/a	n/a	25	15	4	2	9
4017.848	n/a	PROB	2008924	n/a	LTP298	ltpFR2	8	n/a	n/a	n/a	25	16	9	1	6
4019.45	n/a	PROB	2009725	n/a	LTP298	ltpFR2	8	n/a	n/a	n/a	25	12	1	7	4
4024.422	n/a	PROB	2012211	n/a	LTP298	ltpFR2	8	n/a	n/a	n/a	25	15	6	4	5
4028.688	n/a	STOP	2014344	n/a	LTP298	ltpFR2	8	n/a	n/a	n/a	25	n/a	n/a	n/a	n/a
4030.51	n/a	REC_START	2015255	n/a	LTP298	ltpFR2	8	17	n/a	n/a	n/a	n/a	0	0	0
4032.912	n/a	REC_WORD	2016456	wordpools/wasnorm_wordpool_576.txt	LTP298	ltpFR2	8	17	ISLAND	745	n/a	n/a	0	0	0
4034.356	n/a	REC_WORD	2017178	wordpools/wasnorm_wordpool_576.txt	LTP298	ltpFR2	8	17	ARMY	39	n/a	n/a	0	0	0
4035.46	n/a	REC_WORD	2017730	wordpools/wasnorm_wordpool_576.txt	LTP298	ltpFR2	8	17	FRIEND	606	n/a	n/a	0	0	0
4036.742	n/a	REC_WORD	2018371	wordpools/wasnorm_wordpool_576.txt	LTP298	ltpFR2	8	17	UMPIRE	1535	n/a	n/a	0	0	0
4040.778	n/a	REC_WORD	2020389	wordpools/wasnorm_wordpool_576.txt	LTP298	ltpFR2	8	17	MEAT	883	n/a	n/a	0	0	0
4041.898	n/a	REC_WORD	2020949	wordpools/wasnorm_wordpool_576.txt	LTP298	ltpFR2	8	17	BEEF	113	n/a	n/a	0	0	0
4120.946	n/a	WORD	2060473	wordpools/wasnorm_wordpool_576.txt	LTP298	ltpFR2	8	18	HORNET	718	n/a	n/a	0	0	0
4123.364	n/a	WORD	2061682	wordpools/wasnorm_wordpool_576.txt	LTP298	ltpFR2	8	18	HONEY	713	n/a	n/a	0	0	0
4125.958	n/a	WORD	2062979	wordpools/wasnorm_wordpool_576.txt	LTP298	ltpFR2	8	18	SHOULDER	1294	n/a	n/a	0	0	0
4128.76	n/a	WORD	2064380	wordpools/wasnorm_wordpool_576.txt	LTP298	ltpFR2	8	18	BEAST	108	n/a	n/a	0	0	0
4131.53	n/a	WORD	2065765	wordpools/wasnorm_wordpool_576.txt	LTP298	ltpFR2	8	18	ATLAS	53	n/a	n/a	0	0	0
4134.264	n/a	WORD	2067132	wordpools/wasnorm_wordpool_576.txt	LTP298	ltpFR2	8	18	PUPPY	1144	n/a	n/a	0	0	0
4137.06	n/a	WORD	2068530	wordpools/wasnorm_wordpool_576.txt	LTP298	ltpFR2	8	18	CATCHER	258	n/a	n/a	0	0	0
4139.686	n/a	WORD	2069843	wordpools/wasnorm_wordpool_576.txt	LTP298	ltpFR2	8	18	COUNTY	389	n/a	n/a	0	0	0
4142.154	n/a	WORD	2071077	wordpools/wasnorm_wordpool_576.txt	LTP298	ltpFR2	8	18	BEAKER	104	n/a	n/a	0	0	0
4144.766	n/a	WORD	2072383	wordpools/wasnorm_wordpool_576.txt	LTP298	ltpFR2	8	18	SURVEY	1414	n/a	n/a	0	0	0
4147.2	n/a	WORD	2073600	wordpools/wasnorm_wordpool_576.txt	LTP298	ltpFR2	8	18	DANCER	437	n/a	n/a	0	0	0
4149.944	n/a	WORD	2074972	wordpools/wasnorm_wordpool_576.txt	LTP298	ltpFR2	8	18	OUTFIT	988	n/a	n/a	0	0	0
4152.388	n/a	WORD	2076194	wordpools/wasnorm_wordpool_576.txt	LTP298	ltpFR2	8	18	DOUGHNUT	490	n/a	n/a	0	0	0
4155.106	n/a	WORD	2077553	wordpools/wasnorm_wordpool_576.txt	LTP298	ltpFR2	8	18	GUARD	667	n/a	n/a	0	0	0
4157.752	n/a	WORD	2078876	wordpools/wasnorm_wordpool_576.txt	LTP298	ltpFR2	8	18	COD	340	n/a	n/a	0	0	0
4160.244	n/a	WORD	2080122	wordpools/wasnorm_wordpool_576.txt	LTP298	ltpFR2	8	18	CIGAR	308	n/a	n/a	0	0	0
4162.922	n/a	WORD	2081461	wordpools/wasnorm_wordpool_576.txt	LTP298	ltpFR2	8	18	CELLAR	267	n/a	n/a	0	0	0
4165.708	n/a	WORD	2082854	wordpools/wasnorm_wordpool_576.txt	LTP298	ltpFR2	8	18	PASTRY	1022	n/a	n/a	0	0	0
4168.26	n/a	WORD	2084130	wordpools/wasnorm_wordpool_576.txt	LTP298	ltpFR2	8	18	DENIM	446	n/a	n/a	0	0	0
4170.696	n/a	WORD	2085348	wordpools/wasnorm_wordpool_576.txt	LTP298	ltpFR2	8	18	BASEMENT	94	n/a	n/a	0	0	0
4173.23	n/a	WORD	2086615	wordpools/wasnorm_wordpool_576.txt	LTP298	ltpFR2	8	18	HAMPER	682	n/a	n/a	0	0	0
4175.834	n/a	WORD	2087917	wordpools/wasnorm_wordpool_576.txt	LTP298	ltpFR2	8	18	MESSAGE	888	n/a	n/a	0	0	0
4178.302	n/a	WORD	2089151	wordpools/wasnorm_wordpool_576.txt	LTP298	ltpFR2	8	18	WAGON	1578	n/a	n/a	0	0	0
4180.788	n/a	WORD	2090394	wordpools/wasnorm_wordpool_576.txt	LTP298	ltpFR2	8	18	GLOBE	641	n/a	n/a	0	0	0
4182.396	n/a	START	2091198	n/a	LTP298	ltpFR2	8	n/a	n/a	n/a	26	n/a	n/a	n/a	n/a
4183.378	n/a	DISTRACTOR	2091689	n/a	LTP298	ltpFR2	8	18	n/a	n/a	n/a	n/a	0	0	0
4183.39	n/a	PROB	2091695	n/a	LTP298	ltpFR2	8	n/a	n/a	n/a	26	17	6	7	4
4187.966	n/a	PROB	2093983	n/a	LTP298	ltpFR2	8	n/a	n/a	n/a	26	11	5	5	1
4189.434	n/a	PROB	2094717	n/a	LTP298	ltpFR2	8	n/a	n/a	n/a	26	20	8	4	8
4206.398	n/a	STOP	2103199	n/a	LTP298	ltpFR2	8	n/a	n/a	n/a	26	n/a	n/a	n/a	n/a
4208.152	n/a	REC_START	2104076	n/a	LTP298	ltpFR2	8	18	n/a	n/a	n/a	n/a	0	0	0
4211.11	n/a	REC_WORD_VV	2105555	wordpools/wasnorm_wordpool_576.txt	LTP298	ltpFR2	8	18	<>	-1	n/a	n/a	0	0	0
4211.886	n/a	REC_WORD	2105943	wordpools/wasnorm_wordpool_576.txt	LTP298	ltpFR2	8	18	WOLF	1619	n/a	n/a	0	0	0
4212.906	n/a	REC_WORD	2106453	wordpools/wasnorm_wordpool_576.txt	LTP298	ltpFR2	8	18	ATLAS	53	n/a	n/a	0	0	0
4214.668	n/a	REC_WORD	2107334	wordpools/wasnorm_wordpool_576.txt	LTP298	ltpFR2	8	18	PUPPY	1144	n/a	n/a	0	0	0
4231.196	n/a	REC_WORD	2115598	wordpools/wasnorm_wordpool_576.txt	LTP298	ltpFR2	8	18	BEAKER	104	n/a	n/a	0	0	0
4231.686	n/a	REC_WORD	2115843	wordpools/wasnorm_wordpool_576.txt	LTP298	ltpFR2	8	18	SURVEY	1414	n/a	n/a	0	0	0
4232.534	n/a	REC_WORD	2116267	wordpools/wasnorm_wordpool_576.txt	LTP298	ltpFR2	8	18	DANCER	437	n/a	n/a	0	0	0
4233.262	n/a	REC_WORD	2116631	wordpools/wasnorm_wordpool_576.txt	LTP298	ltpFR2	8	18	OUTFIT	988	n/a	n/a	0	0	0
4234.03	n/a	REC_WORD	2117015	wordpools/wasnorm_wordpool_576.txt	LTP298	ltpFR2	8	18	DOUGHNUT	490	n/a	n/a	0	0	0
4238.314	n/a	REC_WORD	2119157	wordpools/wasnorm_wordpool_576.txt	LTP298	ltpFR2	8	18	GUARD	667	n/a	n/a	0	0	0
4238.87	n/a	REC_WORD	2119435	wordpools/wasnorm_wordpool_576.txt	LTP298	ltpFR2	8	18	COD	340	n/a	n/a	0	0	0
4298.622	n/a	DISTRACTOR	2149311	n/a	LTP298	ltpFR2	8	19	n/a	n/a	n/a	n/a	0	0	0
4298.622	n/a	START	2149311	n/a	LTP298	ltpFR2	8	n/a	n/a	n/a	27	n/a	n/a	n/a	n/a
4298.636	n/a	PROB	2149318	n/a	LTP298	ltpFR2	8	n/a	n/a	n/a	27	17	5	9	3
4306.826	n/a	PROB	2153413	n/a	LTP298	ltpFR2	8	n/a	n/a	n/a	27	12	1	5	6
4309.644	n/a	PROB	2154822	n/a	LTP298	ltpFR2	8	n/a	n/a	n/a	27	17	4	5	8
4315.516	n/a	PROB	2157758	n/a	LTP298	ltpFR2	8	n/a	n/a	n/a	27	9	7	1	1
4322.624	n/a	STOP	2161312	n/a	LTP298	ltpFR2	8	n/a	n/a	n/a	27	n/a	n/a	n/a	n/a
4323.524	n/a	WORD	2161762	wordpools/wasnorm_wordpool_576.txt	LTP298	ltpFR2	8	19	ORANGE	980	n/a	n/a	0	0	0
4326.258	n/a	WORD	2163129	wordpools/wasnorm_wordpool_576.txt	LTP298	ltpFR2	8	19	PLAZA	1088	n/a	n/a	0	0	0
4328.866	n/a	WORD	2164433	wordpools/wasnorm_wordpool_576.txt	LTP298	ltpFR2	8	19	PILOT	1070	n/a	n/a	0	0	0
4331.614	n/a	WORD	2165807	wordpools/wasnorm_wordpool_576.txt	LTP298	ltpFR2	8	19	THRONE	1461	n/a	n/a	0	0	0
4334.266	n/a	WORD	2167133	wordpools/wasnorm_wordpool_576.txt	LTP298	ltpFR2	8	19	SPARROW	1347	n/a	n/a	0	0	0
4336.756	n/a	WORD	2168378	wordpools/wasnorm_wordpool_576.txt	LTP298	ltpFR2	8	19	SHORTCAKE	1292	n/a	n/a	0	0	0
4339.404	n/a	WORD	2169702	wordpools/wasnorm_wordpool_576.txt	LTP298	ltpFR2	8	19	ICING	732	n/a	n/a	0	0	0
4342.044	n/a	WORD	2171022	wordpools/wasnorm_wordpool_576.txt	LTP298	ltpFR2	8	19	PEDAL	1037	n/a	n/a	0	0	0
4344.626	n/a	WORD	2172313	wordpools/wasnorm_wordpool_576.txt	LTP298	ltpFR2	8	19	CITRUS	313	n/a	n/a	0	0	0
4347.226	n/a	WORD	2173613	wordpools/wasnorm_wordpool_576.txt	LTP298	ltpFR2	8	19	DAUGHTER	442	n/a	n/a	0	0	0
4350.034	n/a	WORD	2175017	wordpools/wasnorm_wordpool_576.txt	LTP298	ltpFR2	8	19	HOOD	714	n/a	n/a	0	0	0
4352.786	n/a	WORD	2176393	wordpools/wasnorm_wordpool_576.txt	LTP298	ltpFR2	8	19	COBRA	336	n/a	n/a	0	0	0
4355.582	n/a	WORD	2177791	wordpools/wasnorm_wordpool_576.txt	LTP298	ltpFR2	8	19	WAITRESS	1581	n/a	n/a	0	0	0
4358.324	n/a	WORD	2179162	wordpools/wasnorm_wordpool_576.txt	LTP298	ltpFR2	8	19	SCARECROW	1245	n/a	n/a	0	0	0
4361.06	n/a	WORD	2180530	wordpools/wasnorm_wordpool_576.txt	LTP298	ltpFR2	8	19	HANDBAG	684	n/a	n/a	0	0	0
4363.806	n/a	WORD	2181903	wordpools/wasnorm_wordpool_576.txt	LTP298	ltpFR2	8	19	SERVANT	1271	n/a	n/a	0	0	0
4366.28	n/a	WORD	2183140	wordpools/wasnorm_wordpool_576.txt	LTP298	ltpFR2	8	19	PRIMATE	1123	n/a	n/a	0	0	0
4368.9	n/a	WORD	2184450	wordpools/wasnorm_wordpool_576.txt	LTP298	ltpFR2	8	19	JUNGLE	764	n/a	n/a	0	0	0
4371.712	n/a	WORD	2185856	wordpools/wasnorm_wordpool_576.txt	LTP298	ltpFR2	8	19	LILY	821	n/a	n/a	0	0	0
4374.338	n/a	WORD	2187169	wordpools/wasnorm_wordpool_576.txt	LTP298	ltpFR2	8	19	POSSUM	1112	n/a	n/a	0	0	0
4376.874	n/a	WORD	2188437	wordpools/wasnorm_wordpool_576.txt	LTP298	ltpFR2	8	19	TRENCH	1503	n/a	n/a	0	0	0
4379.318	n/a	WORD	2189659	wordpools/wasnorm_wordpool_576.txt	LTP298	ltpFR2	8	19	SEAGULL	1261	n/a	n/a	0	0	0
4381.954	n/a	WORD	2190977	wordpools/wasnorm_wordpool_576.txt	LTP298	ltpFR2	8	19	TURKEY	1520	n/a	n/a	0	0	0
4384.498	n/a	WORD	2192249	wordpools/wasnorm_wordpool_576.txt	LTP298	ltpFR2	8	19	CHILD	299	n/a	n/a	0	0	0
4386.108	n/a	START	2193054	n/a	LTP298	ltpFR2	8	n/a	n/a	n/a	28	n/a	n/a	n/a	n/a
4387.076	n/a	DISTRACTOR	2193538	n/a	LTP298	ltpFR2	8	19	n/a	n/a	n/a	n/a	0	0	0
4387.082	n/a	PROB	2193541	n/a	LTP298	ltpFR2	8	n/a	n/a	n/a	28	14	5	5	4
4390.226	n/a	PROB	2195113	n/a	LTP298	ltpFR2	8	n/a	n/a	n/a	28	14	3	2	9
4394.53	n/a	PROB	2197265	n/a	LTP298	ltpFR2	8	n/a	n/a	n/a	28	25	7	9	9
4398.566	n/a	PROB	2199283	n/a	LTP298	ltpFR2	8	n/a	n/a	n/a	28	16	7	3	6
4401.1	n/a	PROB	2200550	n/a	LTP298	ltpFR2	8	n/a	n/a	n/a	28	20	9	6	5
4405.488	n/a	PROB	2202744	n/a	LTP298	ltpFR2	8	n/a	n/a	n/a	28	17	9	3	5
4408.952	n/a	STOP	2204476	n/a	LTP298	ltpFR2	8	n/a	n/a	n/a	28	n/a	n/a	n/a	n/a
4411.91	n/a	REC_START	2205955	n/a	LTP298	ltpFR2	8	19	n/a	n/a	n/a	n/a	0	0	0
4414.852	n/a	REC_WORD	2207426	wordpools/wasnorm_wordpool_576.txt	LTP298	ltpFR2	8	19	ORANGE	980	n/a	n/a	0	0	0
4415.498	n/a	REC_WORD	2207749	wordpools/wasnorm_wordpool_576.txt	LTP298	ltpFR2	8	19	PLAZA	1088	n/a	n/a	0	0	0
4416.192	n/a	REC_WORD	2208096	wordpools/wasnorm_wordpool_576.txt	LTP298	ltpFR2	8	19	PILOT	1070	n/a	n/a	0	0	0
4416.838	n/a	REC_WORD	2208419	wordpools/wasnorm_wordpool_576.txt	LTP298	ltpFR2	8	19	THRONE	1461	n/a	n/a	0	0	0
4424.868	n/a	REC_WORD	2212434	wordpools/wasnorm_wordpool_576.txt	LTP298	ltpFR2	8	19	SHORTCAKE	1292	n/a	n/a	0	0	0
4425.852	n/a	REC_WORD	2212926	wordpools/wasnorm_wordpool_576.txt	LTP298	ltpFR2	8	19	ICING	732	n/a	n/a	0	0	0
4431.956	n/a	REC_WORD	2215978	wordpools/wasnorm_wordpool_576.txt	LTP298	ltpFR2	8	19	PEDAL	1037	n/a	n/a	0	0	0
4432.75	n/a	REC_WORD	2216375	wordpools/wasnorm_wordpool_576.txt	LTP298	ltpFR2	8	19	CITRUS	313	n/a	n/a	0	0	0
4434.624	n/a	REC_WORD	2217312	wordpools/wasnorm_wordpool_576.txt	LTP298	ltpFR2	8	19	DAUGHTER	442	n/a	n/a	0	0	0
4435.926	n/a	REC_WORD	2217963	wordpools/wasnorm_wordpool_576.txt	LTP298	ltpFR2	8	19	HOOD	714	n/a	n/a	0	0	0
4437.074	n/a	REC_WORD	2218537	wordpools/wasnorm_wordpool_576.txt	LTP298	ltpFR2	8	19	COBRA	336	n/a	n/a	0	0	0
4440.574	n/a	REC_WORD_VV	2220287	wordpools/wasnorm_wordpool_576.txt	LTP298	ltpFR2	8	19	<>	-1	n/a	n/a	0	0	0
4441.254	n/a	REC_WORD	2220627	wordpools/wasnorm_wordpool_576.txt	LTP298	ltpFR2	8	19	WAITRESS	1581	n/a	n/a	0	0	0
4442.42	n/a	REC_WORD	2221210	wordpools/wasnorm_wordpool_576.txt	LTP298	ltpFR2	8	19	SCARECROW	1245	n/a	n/a	0	0	0
4443.422	n/a	REC_WORD	2221711	wordpools/wasnorm_wordpool_576.txt	LTP298	ltpFR2	8	19	HANDBAG	684	n/a	n/a	0	0	0
4448.836	n/a	REC_WORD	2224418	wordpools/wasnorm_wordpool_576.txt	LTP298	ltpFR2	8	19	SERVANT	1271	n/a	n/a	0	0	0
4449.514	n/a	REC_WORD	2224757	wordpools/wasnorm_wordpool_576.txt	LTP298	ltpFR2	8	19	PRIMATE	1123	n/a	n/a	0	0	0
4450.162	n/a	REC_WORD	2225081	wordpools/wasnorm_wordpool_576.txt	LTP298	ltpFR2	8	19	JUNGLE	764	n/a	n/a	0	0	0
4456.868	n/a	REC_WORD	2228434	wordpools/wasnorm_wordpool_576.txt	LTP298	ltpFR2	8	19	POSSUM	1112	n/a	n/a	0	0	0
4457.432	n/a	REC_WORD	2228716	wordpools/wasnorm_wordpool_576.txt	LTP298	ltpFR2	8	19	TRENCH	1503	n/a	n/a	0	0	0
4459.586	n/a	REC_WORD	2229793	wordpools/wasnorm_wordpool_576.txt	LTP298	ltpFR2	8	19	SEAGULL	1261	n/a	n/a	0	0	0
4470.088	n/a	REC_WORD	2235044	wordpools/wasnorm_wordpool_576.txt	LTP298	ltpFR2	8	19	CHILD	299	n/a	n/a	0	0	0
4502.382	n/a	WORD	2251191	wordpools/wasnorm_wordpool_576.txt	LTP298	ltpFR2	8	20	MATCH	878	n/a	n/a	0	0	0
4504.968	n/a	WORD	2252484	wordpools/wasnorm_wordpool_576.txt	LTP298	ltpFR2	8	20	RIVER	1194	n/a	n/a	0	0	0
4507.604	n/a	WORD	2253802	wordpools/wasnorm_wordpool_576.txt	LTP298	ltpFR2	8	20	KETCHUP	771	n/a	n/a	0	0	0
4510.172	n/a	WORD	2255086	wordpools/wasnorm_wordpool_576.txt	LTP298	ltpFR2	8	20	PISTON	1076	n/a	n/a	0	0	0
4512.774	n/a	WORD	2256387	wordpools/wasnorm_wordpool_576.txt	LTP298	ltpFR2	8	20	TREAT	1501	n/a	n/a	0	0	0
4515.26	n/a	WORD	2257630	wordpools/wasnorm_wordpool_576.txt	LTP298	ltpFR2	8	20	CANDY	230	n/a	n/a	0	0	0
4517.978	n/a	WORD	2258989	wordpools/wasnorm_wordpool_576.txt	LTP298	ltpFR2	8	20	CLOUD	328	n/a	n/a	0	0	0
4520.614	n/a	WORD	2260307	wordpools/wasnorm_wordpool_576.txt	LTP298	ltpFR2	8	20	VIRUS	1572	n/a	n/a	0	0	0
4523.064	n/a	WORD	2261532	wordpools/wasnorm_wordpool_576.txt	LTP298	ltpFR2	8	20	PATIENT	1024	n/a	n/a	0	0	0
4525.636	n/a	WORD	2262818	wordpools/wasnorm_wordpool_576.txt	LTP298	ltpFR2	8	20	FOOT	590	n/a	n/a	0	0	0
4528.202	n/a	WORD	2264101	wordpools/wasnorm_wordpool_576.txt	LTP298	ltpFR2	8	20	SCARF	1246	n/a	n/a	0	0	0
4530.904	n/a	WORD	2265452	wordpools/wasnorm_wordpool_576.txt	LTP298	ltpFR2	8	20	SUNSET	1408	n/a	n/a	0	0	0
4533.542	n/a	WORD	2266771	wordpools/wasnorm_wordpool_576.txt	LTP298	ltpFR2	8	20	COURSE	390	n/a	n/a	0	0	0
4535.976	n/a	WORD	2267988	wordpools/wasnorm_wordpool_576.txt	LTP298	ltpFR2	8	20	BRICK	172	n/a	n/a	0	0	0
4538.628	n/a	WORD	2269314	wordpools/wasnorm_wordpool_576.txt	LTP298	ltpFR2	8	20	PROTON	1132	n/a	n/a	0	0	0
4541.146	n/a	WORD	2270573	wordpools/wasnorm_wordpool_576.txt	LTP298	ltpFR2	8	20	BUBBLE	183	n/a	n/a	0	0	0
4543.916	n/a	WORD	2271958	wordpools/wasnorm_wordpool_576.txt	LTP298	ltpFR2	8	20	BRANDY	169	n/a	n/a	0	0	0
4546.384	n/a	WORD	2273192	wordpools/wasnorm_wordpool_576.txt	LTP298	ltpFR2	8	20	GALLON	618	n/a	n/a	0	0	0
4549.022	n/a	WORD	2274511	wordpools/wasnorm_wordpool_576.txt	LTP298	ltpFR2	8	20	KEEPER	769	n/a	n/a	0	0	0
4551.738	n/a	WORD	2275869	wordpools/wasnorm_wordpool_576.txt	LTP298	ltpFR2	8	20	DRINK	498	n/a	n/a	0	0	0
4554.29	n/a	WORD	2277145	wordpools/wasnorm_wordpool_576.txt	LTP298	ltpFR2	8	20	WRIST	1626	n/a	n/a	0	0	0
4557.096	n/a	WORD	2278548	wordpools/wasnorm_wordpool_576.txt	LTP298	ltpFR2	8	20	LEG	809	n/a	n/a	0	0	0
4559.578	n/a	WORD	2279789	wordpools/wasnorm_wordpool_576.txt	LTP298	ltpFR2	8	20	BURGLAR	200	n/a	n/a	0	0	0
4562.132	n/a	WORD	2281066	wordpools/wasnorm_wordpool_576.txt	LTP298	ltpFR2	8	20	LABEL	790	n/a	n/a	0	0	0
4563.748	n/a	START	2281874	n/a	LTP298	ltpFR2	8	n/a	n/a	n/a	29	n/a	n/a	n/a	n/a
4564.866	n/a	DISTRACTOR	2282433	n/a	LTP298	ltpFR2	8	20	n/a	n/a	n/a	n/a	0	0	0
4564.88	n/a	PROB	2282440	n/a	LTP298	ltpFR2	8	n/a	n/a	n/a	29	12	1	6	5
4566.716	n/a	PROB	2283358	n/a	LTP298	ltpFR2	8	n/a	n/a	n/a	29	5	1	1	3
4568.918	n/a	PROB	2284459	n/a	LTP298	ltpFR2	8	n/a	n/a	n/a	29	16	9	5	2
4571.42	n/a	PROB	2285710	n/a	LTP298	ltpFR2	8	n/a	n/a	n/a	29	1	5	2	5
4573.506	n/a	PROB	2286753	n/a	LTP298	ltpFR2	8	n/a	n/a	n/a	29	10	8	1	1
4575.99	n/a	PROB	2287995	n/a	LTP298	ltpFR2	8	n/a	n/a	n/a	29	22	8	7	7
4579.544	n/a	PROB	2289772	n/a	LTP298	ltpFR2	8	n/a	n/a	n/a	29	16	4	8	4
4582.396	n/a	PROB	2291198	n/a	LTP298	ltpFR2	8	n/a	n/a	n/a	29	16	5	3	8
4587.748	n/a	STOP	2293874	n/a	LTP298	ltpFR2	8	n/a	n/a	n/a	29	n/a	n/a	n/a	n/a
4589.568	n/a	REC_START	2294784	n/a	LTP298	ltpFR2	8	20	n/a	n/a	n/a	n/a	0	0	0
4590.522	n/a	REC_WORD	2295261	wordpools/wasnorm_wordpool_576.txt	LTP298	ltpFR2	8	20	MATCH	878	n/a	n/a	0	0	0
4595.856	n/a	REC_WORD	2297928	wordpools/wasnorm_wordpool_576.txt	LTP298	ltpFR2	8	20	BUTTON	207	n/a	n/a	0	0	0
4596.41	n/a	REC_WORD	2298205	wordpools/wasnorm_wordpool_576.txt	LTP298	ltpFR2	8	20	BRANDY	169	n/a	n/a	0	0	0
4597.156	n/a	REC_WORD	2298578	wordpools/wasnorm_wordpool_576.txt	LTP298	ltpFR2	8	20	KEEPER	769	n/a	n/a	0	0	0
4599.608	n/a	REC_WORD	2299804	wordpools/wasnorm_wordpool_576.txt	LTP298	ltpFR2	8	20	GALLON	618	n/a	n/a	0	0	0
4600.694	n/a	REC_WORD	2300347	wordpools/wasnorm_wordpool_576.txt	LTP298	ltpFR2	8	20	DRINK	498	n/a	n/a	0	0	0
4604.486	n/a	REC_WORD	2302243	wordpools/wasnorm_wordpool_576.txt	LTP298	ltpFR2	8	20	LEG	809	n/a	n/a	0	0	0
4679.99	n/a	DISTRACTOR	2339995	n/a	LTP298	ltpFR2	8	21	n/a	n/a	n/a	n/a	0	0	0
4679.99	n/a	START	2339995	n/a	LTP298	ltpFR2	8	n/a	n/a	n/a	30	n/a	n/a	n/a	n/a
4680.006	n/a	PROB	2340003	n/a	LTP298	ltpFR2	8	n/a	n/a	n/a	30	9	1	2	6
4682.724	n/a	PROB	2341362	n/a	LTP298	ltpFR2	8	n/a	n/a	n/a	30	14	4	7	3
4685.176	n/a	PROB	2342588	n/a	LTP298	ltpFR2	8	n/a	n/a	n/a	30	7	2	3	2
4693.332	n/a	PROB	2346666	n/a	LTP298	ltpFR2	8	n/a	n/a	n/a	30	11	2	7	2
4695.57	n/a	PROB	2347785	n/a	LTP298	ltpFR2	8	n/a	n/a	n/a	30	20	4	9	7
4700.268	n/a	PROB	2350134	n/a	LTP298	ltpFR2	8	n/a	n/a	n/a	30	17	1	7	9
4703.424	n/a	STOP	2351712	n/a	LTP298	ltpFR2	8	n/a	n/a	n/a	30	n/a	n/a	n/a	n/a
4704.824	n/a	WORD	2352412	wordpools/wasnorm_wordpool_576.txt	LTP298	ltpFR2	8	21	MUFFIN	929	n/a	n/a	0	0	0
4707.56	n/a	WORD	2353780	wordpools/wasnorm_wordpool_576.txt	LTP298	ltpFR2	8	21	MARKET	871	n/a	n/a	0	0	0
4710.36	n/a	WORD	2355180	wordpools/wasnorm_wordpool_576.txt	LTP298	ltpFR2	8	21	MEDAL	885	n/a	n/a	0	0	0
4712.846	n/a	WORD	2356423	wordpools/wasnorm_wordpool_576.txt	LTP298	ltpFR2	8	21	GHETTO	633	n/a	n/a	0	0	0
4715.414	n/a	WORD	2357707	wordpools/wasnorm_wordpool_576.txt	LTP298	ltpFR2	8	21	LIGHTNING	820	n/a	n/a	0	0	0
4718.018	n/a	WORD	2359009	wordpools/wasnorm_wordpool_576.txt	LTP298	ltpFR2	8	21	BREAST	171	n/a	n/a	0	0	0
4720.622	n/a	WORD	2360311	wordpools/wasnorm_wordpool_576.txt	LTP298	ltpFR2	8	21	WAITER	1580	n/a	n/a	0	0	0
4723.422	n/a	WORD	2361711	wordpools/wasnorm_wordpool_576.txt	LTP298	ltpFR2	8	21	LIPSTICK	829	n/a	n/a	0	0	0
4726.192	n/a	WORD	2363096	wordpools/wasnorm_wordpool_576.txt	LTP298	ltpFR2	8	21	TROMBONE	1508	n/a	n/a	0	0	0
4728.71	n/a	WORD	2364355	wordpools/wasnorm_wordpool_576.txt	LTP298	ltpFR2	8	21	TUBA	1515	n/a	n/a	0	0	0
4731.278	n/a	WORD	2365639	wordpools/wasnorm_wordpool_576.txt	LTP298	ltpFR2	8	21	DAISY	435	n/a	n/a	0	0	0
4733.898	n/a	WORD	2366949	wordpools/wasnorm_wordpool_576.txt	LTP298	ltpFR2	8	21	FINGER	567	n/a	n/a	0	0	0
4736.734	n/a	WORD	2368367	wordpools/wasnorm_wordpool_576.txt	LTP298	ltpFR2	8	21	ANKLE	24	n/a	n/a	0	0	0
4739.486	n/a	WORD	2369743	wordpools/wasnorm_wordpool_576.txt	LTP298	ltpFR2	8	21	BODY	145	n/a	n/a	0	0	0
4741.938	n/a	WORD	2370969	wordpools/wasnorm_wordpool_576.txt	LTP298	ltpFR2	8	21	HERO	706	n/a	n/a	0	0	0
4744.69	n/a	WORD	2372345	wordpools/wasnorm_wordpool_576.txt	LTP298	ltpFR2	8	21	CAFE	216	n/a	n/a	0	0	0
4747.176	n/a	WORD	2373588	wordpools/wasnorm_wordpool_576.txt	LTP298	ltpFR2	8	21	TRACTOR	1493	n/a	n/a	0	0	0
4749.662	n/a	WORD	2374831	wordpools/wasnorm_wordpool_576.txt	LTP298	ltpFR2	8	21	ACTRESS	6	n/a	n/a	0	0	0
4752.464	n/a	WORD	2376232	wordpools/wasnorm_wordpool_576.txt	LTP298	ltpFR2	8	21	LAMP	798	n/a	n/a	0	0	0
4755.25	n/a	WORD	2377625	wordpools/wasnorm_wordpool_576.txt	LTP298	ltpFR2	8	21	SWITCH	1422	n/a	n/a	0	0	0
