onset	duration	trial_type	sample	stim_file	subject	experiment	session	trial	item_name	item_num	list	answer	test_x	test_y	test_z
-0.00048828125	n/a	SESS_START	-1	n/a	LTP336	ltpFR2	9	n/a	n/a	n/a	n/a	n/a	0	0	0
207.01123046875	n/a	SESS_START	423959	n/a	LTP336	ltpFR2	9	n/a	n/a	n/a	n/a	n/a	0	0	0
250.958984375	n/a	START	513964	n/a	LTP336	ltpFR2	9	n/a	n/a	n/a	-1	n/a	n/a	n/a	n/a
250.98974609375	n/a	PROB	514027	n/a	LTP336	ltpFR2	9	n/a	n/a	n/a	-1	19	8	8	3
254.38671875	n/a	PROB	520984	n/a	LTP336	ltpFR2	9	n/a	n/a	n/a	-1	13	9	2	2
256.5029296875	n/a	PROB	525318	n/a	LTP336	ltpFR2	9	n/a	n/a	n/a	-1	17	1	8	8
258.1865234375	n/a	PROB	528766	n/a	LTP336	ltpFR2	9	n/a	n/a	n/a	-1	21	4	9	8
261.00146484375	n/a	PROB	534531	n/a	LTP336	ltpFR2	9	n/a	n/a	n/a	-1	13	3	7	3
262.40869140625	n/a	STOP	537413	n/a	LTP336	ltpFR2	9	n/a	n/a	n/a	-1	n/a	n/a	n/a	n/a
293.40185546875	n/a	DISTRACTOR	600887	n/a	LTP336	ltpFR2	9	1	n/a	n/a	n/a	n/a	0	0	0
293.40185546875	n/a	START	600887	n/a	LTP336	ltpFR2	9	n/a	n/a	n/a	1	n/a	n/a	n/a	n/a
293.41845703125	n/a	PROB	600921	n/a	LTP336	ltpFR2	9	n/a	n/a	n/a	1	12	7	3	2
295.3017578125	n/a	PROB	604778	n/a	LTP336	ltpFR2	9	n/a	n/a	n/a	1	21	6	6	9
297.4833984375	n/a	PROB	609246	n/a	LTP336	ltpFR2	9	n/a	n/a	n/a	1	9	4	2	3
299.13330078125	n/a	PROB	612625	n/a	LTP336	ltpFR2	9	n/a	n/a	n/a	1	14	2	4	8
301.982421875	n/a	PROB	618460	n/a	LTP336	ltpFR2	9	n/a	n/a	n/a	1	14	6	4	4
303.29833984375	n/a	PROB	621155	n/a	LTP336	ltpFR2	9	n/a	n/a	n/a	1	12	5	3	4
305.38037109375	n/a	PROB	625419	n/a	LTP336	ltpFR2	9	n/a	n/a	n/a	1	17	1	8	8
306.7451171875	n/a	PROB	628214	n/a	LTP336	ltpFR2	9	n/a	n/a	n/a	1	15	5	1	9
310.26123046875	n/a	PROB	635415	n/a	LTP336	ltpFR2	9	n/a	n/a	n/a	1	19	2	8	9
311.6259765625	n/a	PROB	638210	n/a	LTP336	ltpFR2	9	n/a	n/a	n/a	1	9	4	3	2
313.5751953125	n/a	PROB	642202	n/a	LTP336	ltpFR2	9	n/a	n/a	n/a	1	19	1	9	9
317.40087890625	n/a	STOP	650037	n/a	LTP336	ltpFR2	9	n/a	n/a	n/a	1	n/a	n/a	n/a	n/a
318.30712890625	n/a	WORD	651893	wordpools/wasnorm_wordpool_576.txt	LTP336	ltpFR2	9	1	PERFUME	1049	n/a	n/a	0	0	0
320.85498046875	n/a	WORD	657111	wordpools/wasnorm_wordpool_576.txt	LTP336	ltpFR2	9	1	BLOUSE	139	n/a	n/a	0	0	0
323.2890625	n/a	WORD	662096	wordpools/wasnorm_wordpool_576.txt	LTP336	ltpFR2	9	1	PLAID	1080	n/a	n/a	0	0	0
326.0537109375	n/a	WORD	667758	wordpools/wasnorm_wordpool_576.txt	LTP336	ltpFR2	9	1	SWITCH	1422	n/a	n/a	0	0	0
328.83447265625	n/a	WORD	673453	wordpools/wasnorm_wordpool_576.txt	LTP336	ltpFR2	9	1	GUITAR	670	n/a	n/a	0	0	0
331.466796875	n/a	WORD	678844	wordpools/wasnorm_wordpool_576.txt	LTP336	ltpFR2	9	1	FLOWER	584	n/a	n/a	0	0	0
334.06640625	n/a	WORD	684168	wordpools/wasnorm_wordpool_576.txt	LTP336	ltpFR2	9	1	LADDER	793	n/a	n/a	0	0	0
336.49755859375	n/a	WORD	689147	wordpools/wasnorm_wordpool_576.txt	LTP336	ltpFR2	9	1	BADGE	68	n/a	n/a	0	0	0
338.9306640625	n/a	WORD	694130	wordpools/wasnorm_wordpool_576.txt	LTP336	ltpFR2	9	1	BODY	145	n/a	n/a	0	0	0
341.42822265625	n/a	WORD	699245	wordpools/wasnorm_wordpool_576.txt	LTP336	ltpFR2	9	1	SOFTBALL	1343	n/a	n/a	0	0	0
344.078125	n/a	WORD	704672	wordpools/wasnorm_wordpool_576.txt	LTP336	ltpFR2	9	1	FRECKLE	602	n/a	n/a	0	0	0
346.826171875	n/a	WORD	710300	wordpools/wasnorm_wordpool_576.txt	LTP336	ltpFR2	9	1	KLEENEX	782	n/a	n/a	0	0	0
349.541015625	n/a	WORD	715860	wordpools/wasnorm_wordpool_576.txt	LTP336	ltpFR2	9	1	PLAZA	1088	n/a	n/a	0	0	0
352.125	n/a	WORD	721152	wordpools/wasnorm_wordpool_576.txt	LTP336	ltpFR2	9	1	CUSTARD	429	n/a	n/a	0	0	0
354.68896484375	n/a	WORD	726403	wordpools/wasnorm_wordpool_576.txt	LTP336	ltpFR2	9	1	LEOPARD	812	n/a	n/a	0	0	0
357.27197265625	n/a	WORD	731693	wordpools/wasnorm_wordpool_576.txt	LTP336	ltpFR2	9	1	BURGLAR	200	n/a	n/a	0	0	0
359.73681640625	n/a	WORD	736741	wordpools/wasnorm_wordpool_576.txt	LTP336	ltpFR2	9	1	LAMP	798	n/a	n/a	0	0	0
362.28662109375	n/a	WORD	741963	wordpools/wasnorm_wordpool_576.txt	LTP336	ltpFR2	9	1	CHIPMUNK	304	n/a	n/a	0	0	0
365.001953125	n/a	WORD	747524	wordpools/wasnorm_wordpool_576.txt	LTP336	ltpFR2	9	1	SEAL	1262	n/a	n/a	0	0	0
367.6328125	n/a	WORD	752912	wordpools/wasnorm_wordpool_576.txt	LTP336	ltpFR2	9	1	SLIDE	1326	n/a	n/a	0	0	0
370.16552734375	n/a	WORD	758099	wordpools/wasnorm_wordpool_576.txt	LTP336	ltpFR2	9	1	MARKET	871	n/a	n/a	0	0	0
372.63037109375	n/a	WORD	763147	wordpools/wasnorm_wordpool_576.txt	LTP336	ltpFR2	9	1	BOARD	143	n/a	n/a	0	0	0
375.33056640625	n/a	WORD	768677	wordpools/wasnorm_wordpool_576.txt	LTP336	ltpFR2	9	1	PARTNER	1017	n/a	n/a	0	0	0
378.078125	n/a	WORD	774304	wordpools/wasnorm_wordpool_576.txt	LTP336	ltpFR2	9	1	THIEF	1456	n/a	n/a	0	0	0
379.6943359375	n/a	START	777614	n/a	LTP336	ltpFR2	9	n/a	n/a	n/a	2	n/a	n/a	n/a	n/a
380.5673828125	n/a	DISTRACTOR	779402	n/a	LTP336	ltpFR2	9	1	n/a	n/a	n/a	n/a	0	0	0
380.576171875	n/a	PROB	779420	n/a	LTP336	ltpFR2	9	n/a	n/a	n/a	2	6	4	1	1
382.55908203125	n/a	PROB	783481	n/a	LTP336	ltpFR2	9	n/a	n/a	n/a	2	19	9	3	7
384.97509765625	n/a	PROB	788429	n/a	LTP336	ltpFR2	9	n/a	n/a	n/a	2	6	3	2	1
386.908203125	n/a	PROB	792388	n/a	LTP336	ltpFR2	9	n/a	n/a	n/a	2	12	9	1	2
388.19091796875	n/a	PROB	795015	n/a	LTP336	ltpFR2	9	n/a	n/a	n/a	2	17	5	8	4
390.240234375	n/a	PROB	799212	n/a	LTP336	ltpFR2	9	n/a	n/a	n/a	2	16	3	7	6
391.85498046875	n/a	PROB	802519	n/a	LTP336	ltpFR2	9	n/a	n/a	n/a	2	13	8	4	1
393.77001953125	n/a	PROB	806441	n/a	LTP336	ltpFR2	9	n/a	n/a	n/a	2	20	7	8	5
395.68603515625	n/a	PROB	810365	n/a	LTP336	ltpFR2	9	n/a	n/a	n/a	2	14	9	3	2
397.169921875	n/a	PROB	813404	n/a	LTP336	ltpFR2	9	n/a	n/a	n/a	2	15	2	5	8
398.96875	n/a	PROB	817088	n/a	LTP336	ltpFR2	9	n/a	n/a	n/a	2	16	4	3	9
401.3837890625	n/a	PROB	822034	n/a	LTP336	ltpFR2	9	n/a	n/a	n/a	2	10	2	3	5
403.3056640625	n/a	STOP	825970	n/a	LTP336	ltpFR2	9	n/a	n/a	n/a	2	n/a	n/a	n/a	n/a
405.49853515625	n/a	REC_START	830461	n/a	LTP336	ltpFR2	9	1	n/a	n/a	n/a	n/a	0	0	0
406.1494140625	n/a	REC_WORD	831794	wordpools/wasnorm_wordpool_576.txt	LTP336	ltpFR2	9	1	PARTNER	1017	n/a	n/a	0	0	0
407.2763671875	n/a	REC_WORD	834102	wordpools/wasnorm_wordpool_576.txt	LTP336	ltpFR2	9	1	THIEF	1456	n/a	n/a	0	0	0
408.5703125	n/a	REC_WORD	836752	wordpools/wasnorm_wordpool_576.txt	LTP336	ltpFR2	9	1	BADGE	68	n/a	n/a	0	0	0
409.8095703125	n/a	REC_WORD	839290	wordpools/wasnorm_wordpool_576.txt	LTP336	ltpFR2	9	1	BODY	145	n/a	n/a	0	0	0
410.8056640625	n/a	REC_WORD	841330	wordpools/wasnorm_wordpool_576.txt	LTP336	ltpFR2	9	1	GUITAR	670	n/a	n/a	0	0	0
413.34326171875	n/a	REC_WORD	846527	wordpools/wasnorm_wordpool_576.txt	LTP336	ltpFR2	9	1	PERFUME	1049	n/a	n/a	0	0	0
414.7841796875	n/a	REC_WORD	849478	wordpools/wasnorm_wordpool_576.txt	LTP336	ltpFR2	9	1	BLOUSE	139	n/a	n/a	0	0	0
416.09033203125	n/a	REC_WORD	852153	wordpools/wasnorm_wordpool_576.txt	LTP336	ltpFR2	9	1	FLOWER	584	n/a	n/a	0	0	0
417.55810546875	n/a	REC_WORD	855159	wordpools/wasnorm_wordpool_576.txt	LTP336	ltpFR2	9	1	SWITCH	1422	n/a	n/a	0	0	0
495.955078125	n/a	WORD	1015716	wordpools/wasnorm_wordpool_576.txt	LTP336	ltpFR2	9	2	MACHINE	852	n/a	n/a	0	0	0
498.65283203125	n/a	WORD	1021241	wordpools/wasnorm_wordpool_576.txt	LTP336	ltpFR2	9	2	STICKER	1382	n/a	n/a	0	0	0
501.22021484375	n/a	WORD	1026499	wordpools/wasnorm_wordpool_576.txt	LTP336	ltpFR2	9	2	MARKER	870	n/a	n/a	0	0	0
503.80078125	n/a	WORD	1031784	wordpools/wasnorm_wordpool_576.txt	LTP336	ltpFR2	9	2	PILOT	1070	n/a	n/a	0	0	0
506.333984375	n/a	WORD	1036972	wordpools/wasnorm_wordpool_576.txt	LTP336	ltpFR2	9	2	DORM	488	n/a	n/a	0	0	0
509.0830078125	n/a	WORD	1042602	wordpools/wasnorm_wordpool_576.txt	LTP336	ltpFR2	9	2	PICTURE	1061	n/a	n/a	0	0	0
511.8134765625	n/a	WORD	1048194	wordpools/wasnorm_wordpool_576.txt	LTP336	ltpFR2	9	2	FLEET	578	n/a	n/a	0	0	0
514.44580078125	n/a	WORD	1053585	wordpools/wasnorm_wordpool_576.txt	LTP336	ltpFR2	9	2	SURVEY	1414	n/a	n/a	0	0	0
517.0126953125	n/a	WORD	1058842	wordpools/wasnorm_wordpool_576.txt	LTP336	ltpFR2	9	2	XEROX	1628	n/a	n/a	0	0	0
519.693359375	n/a	WORD	1064332	wordpools/wasnorm_wordpool_576.txt	LTP336	ltpFR2	9	2	BRICK	172	n/a	n/a	0	0	0
522.326171875	n/a	WORD	1069724	wordpools/wasnorm_wordpool_576.txt	LTP336	ltpFR2	9	2	EYELASH	546	n/a	n/a	0	0	0
525.025390625	n/a	WORD	1075252	wordpools/wasnorm_wordpool_576.txt	LTP336	ltpFR2	9	2	VENUS	1557	n/a	n/a	0	0	0
527.5234375	n/a	WORD	1080368	wordpools/wasnorm_wordpool_576.txt	LTP336	ltpFR2	9	2	PLUTO	1092	n/a	n/a	0	0	0
530.08935546875	n/a	WORD	1085623	wordpools/wasnorm_wordpool_576.txt	LTP336	ltpFR2	9	2	SWIMMER	1420	n/a	n/a	0	0	0
532.8369140625	n/a	WORD	1091250	wordpools/wasnorm_wordpool_576.txt	LTP336	ltpFR2	9	2	BATHTUB	100	n/a	n/a	0	0	0
535.287109375	n/a	WORD	1096268	wordpools/wasnorm_wordpool_576.txt	LTP336	ltpFR2	9	2	OINTMENT	974	n/a	n/a	0	0	0
537.98486328125	n/a	WORD	1101793	wordpools/wasnorm_wordpool_576.txt	LTP336	ltpFR2	9	2	COUNTRY	388	n/a	n/a	0	0	0
540.53271484375	n/a	WORD	1107011	wordpools/wasnorm_wordpool_576.txt	LTP336	ltpFR2	9	2	SHOULDER	1294	n/a	n/a	0	0	0
543.19970703125	n/a	WORD	1112473	wordpools/wasnorm_wordpool_576.txt	LTP336	ltpFR2	9	2	PADDING	999	n/a	n/a	0	0	0
545.64794921875	n/a	WORD	1117487	wordpools/wasnorm_wordpool_576.txt	LTP336	ltpFR2	9	2	ULCER	1533	n/a	n/a	0	0	0
548.146484375	n/a	WORD	1122604	wordpools/wasnorm_wordpool_576.txt	LTP336	ltpFR2	9	2	AIRPORT	13	n/a	n/a	0	0	0
550.94580078125	n/a	WORD	1128337	wordpools/wasnorm_wordpool_576.txt	LTP336	ltpFR2	9	2	BUNNY	198	n/a	n/a	0	0	0
553.46044921875	n/a	WORD	1133487	wordpools/wasnorm_wordpool_576.txt	LTP336	ltpFR2	9	2	OMELET	976	n/a	n/a	0	0	0
556.21044921875	n/a	WORD	1139119	wordpools/wasnorm_wordpool_576.txt	LTP336	ltpFR2	9	2	CHAPEL	280	n/a	n/a	0	0	0
557.8251953125	n/a	START	1142426	n/a	LTP336	ltpFR2	9	n/a	n/a	n/a	3	n/a	n/a	n/a	n/a
558.70458984375	n/a	DISTRACTOR	1144227	n/a	LTP336	ltpFR2	9	2	n/a	n/a	n/a	n/a	0	0	0
558.724609375	n/a	PROB	1144268	n/a	LTP336	ltpFR2	9	n/a	n/a	n/a	3	18	9	6	3
561.4892578125	n/a	PROB	1149930	n/a	LTP336	ltpFR2	9	n/a	n/a	n/a	3	16	5	7	4
563.50537109375	n/a	PROB	1154059	n/a	LTP336	ltpFR2	9	n/a	n/a	n/a	3	22	6	8	8
565.7041015625	n/a	PROB	1158562	n/a	LTP336	ltpFR2	9	n/a	n/a	n/a	3	14	7	6	1
567.18798828125	n/a	PROB	1161601	n/a	LTP336	ltpFR2	9	n/a	n/a	n/a	3	23	9	9	5
568.904296875	n/a	PROB	1165116	n/a	LTP336	ltpFR2	9	n/a	n/a	n/a	3	16	5	3	8
571.701171875	n/a	PROB	1170844	n/a	LTP336	ltpFR2	9	n/a	n/a	n/a	3	12	7	1	4
573.48388671875	n/a	PROB	1174495	n/a	LTP336	ltpFR2	9	n/a	n/a	n/a	3	8	4	1	3
575.85009765625	n/a	PROB	1179341	n/a	LTP336	ltpFR2	9	n/a	n/a	n/a	3	23	6	8	9
578.86474609375	n/a	PROB	1185515	n/a	LTP336	ltpFR2	9	n/a	n/a	n/a	3	15	1	7	7
580.36279296875	n/a	STOP	1188583	n/a	LTP336	ltpFR2	9	n/a	n/a	n/a	3	n/a	n/a	n/a	n/a
583.57958984375	n/a	REC_START	1195171	n/a	LTP336	ltpFR2	9	2	n/a	n/a	n/a	n/a	0	0	0
584.45751953125	n/a	REC_WORD	1196969	wordpools/wasnorm_wordpool_576.txt	LTP336	ltpFR2	9	2	OINTMENT	974	n/a	n/a	0	0	0
586.046875	n/a	REC_WORD	1200224	wordpools/wasnorm_wordpool_576.txt	LTP336	ltpFR2	9	2	OMELET	976	n/a	n/a	0	0	0
587.3544921875	n/a	REC_WORD	1202902	wordpools/wasnorm_wordpool_576.txt	LTP336	ltpFR2	9	2	BATHTUB	100	n/a	n/a	0	0	0
589.35546875	n/a	REC_WORD	1207000	wordpools/wasnorm_wordpool_576.txt	LTP336	ltpFR2	9	2	MARKER	870	n/a	n/a	0	0	0
591.99072265625	n/a	REC_WORD	1212397	wordpools/wasnorm_wordpool_576.txt	LTP336	ltpFR2	9	2	PILOT	1070	n/a	n/a	0	0	0
600.0712890625	n/a	REC_WORD	1228946	wordpools/wasnorm_wordpool_576.txt	LTP336	ltpFR2	9	2	CHAPEL	280	n/a	n/a	0	0	0
674.02001953125	n/a	WORD	1380393	wordpools/wasnorm_wordpool_576.txt	LTP336	ltpFR2	9	3	CABIN	211	n/a	n/a	0	0	0
676.734375	n/a	WORD	1385952	wordpools/wasnorm_wordpool_576.txt	LTP336	ltpFR2	9	3	POCKET	1093	n/a	n/a	0	0	0
679.416015625	n/a	WORD	1391444	wordpools/wasnorm_wordpool_576.txt	LTP336	ltpFR2	9	3	HAMPER	682	n/a	n/a	0	0	0
682.0498046875	n/a	WORD	1396838	wordpools/wasnorm_wordpool_576.txt	LTP336	ltpFR2	9	3	APRON	35	n/a	n/a	0	0	0
684.4970703125	n/a	WORD	1401850	wordpools/wasnorm_wordpool_576.txt	LTP336	ltpFR2	9	3	FREEZER	604	n/a	n/a	0	0	0
687.130859375	n/a	WORD	1407244	wordpools/wasnorm_wordpool_576.txt	LTP336	ltpFR2	9	3	RIFLE	1192	n/a	n/a	0	0	0
689.74462890625	n/a	WORD	1412597	wordpools/wasnorm_wordpool_576.txt	LTP336	ltpFR2	9	3	STAPLE	1371	n/a	n/a	0	0	0
692.32763671875	n/a	WORD	1417887	wordpools/wasnorm_wordpool_576.txt	LTP336	ltpFR2	9	3	SHORTS	1293	n/a	n/a	0	0	0
694.759765625	n/a	WORD	1422868	wordpools/wasnorm_wordpool_576.txt	LTP336	ltpFR2	9	3	LACE	792	n/a	n/a	0	0	0
697.24267578125	n/a	WORD	1427953	wordpools/wasnorm_wordpool_576.txt	LTP336	ltpFR2	9	3	NIGHTGOWN	953	n/a	n/a	0	0	0
699.94140625	n/a	WORD	1433480	wordpools/wasnorm_wordpool_576.txt	LTP336	ltpFR2	9	3	FRANCE	601	n/a	n/a	0	0	0
702.42236328125	n/a	WORD	1438561	wordpools/wasnorm_wordpool_576.txt	LTP336	ltpFR2	9	3	BACON	67	n/a	n/a	0	0	0
705.1552734375	n/a	WORD	1444158	wordpools/wasnorm_wordpool_576.txt	LTP336	ltpFR2	9	3	BLACKBOARD	133	n/a	n/a	0	0	0
707.603515625	n/a	WORD	1449172	wordpools/wasnorm_wordpool_576.txt	LTP336	ltpFR2	9	3	SUMMIT	1405	n/a	n/a	0	0	0
710.35205078125	n/a	WORD	1454801	wordpools/wasnorm_wordpool_576.txt	LTP336	ltpFR2	9	3	LIZARD	834	n/a	n/a	0	0	0
713.03515625	n/a	WORD	1460296	wordpools/wasnorm_wordpool_576.txt	LTP336	ltpFR2	9	3	SUPPER	1411	n/a	n/a	0	0	0
715.51611328125	n/a	WORD	1465377	wordpools/wasnorm_wordpool_576.txt	LTP336	ltpFR2	9	3	LONDON	843	n/a	n/a	0	0	0
718.0322265625	n/a	WORD	1470530	wordpools/wasnorm_wordpool_576.txt	LTP336	ltpFR2	9	3	FOOT	590	n/a	n/a	0	0	0
720.59716796875	n/a	WORD	1475783	wordpools/wasnorm_wordpool_576.txt	LTP336	ltpFR2	9	3	CEILING	265	n/a	n/a	0	0	0
723.14697265625	n/a	WORD	1481005	wordpools/wasnorm_wordpool_576.txt	LTP336	ltpFR2	9	3	LADY	794	n/a	n/a	0	0	0
725.57763671875	n/a	WORD	1485983	wordpools/wasnorm_wordpool_576.txt	LTP336	ltpFR2	9	3	JUGGLER	763	n/a	n/a	0	0	0
728.2939453125	n/a	WORD	1491546	wordpools/wasnorm_wordpool_576.txt	LTP336	ltpFR2	9	3	GYMNAST	675	n/a	n/a	0	0	0
730.9755859375	n/a	WORD	1497038	wordpools/wasnorm_wordpool_576.txt	LTP336	ltpFR2	9	3	CANYON	235	n/a	n/a	0	0	0
733.49072265625	n/a	WORD	1502189	wordpools/wasnorm_wordpool_576.txt	LTP336	ltpFR2	9	3	CRUTCH	417	n/a	n/a	0	0	0
735.107421875	n/a	START	1505500	n/a	LTP336	ltpFR2	9	n/a	n/a	n/a	4	n/a	n/a	n/a	n/a
736.21533203125	n/a	DISTRACTOR	1507769	n/a	LTP336	ltpFR2	9	3	n/a	n/a	n/a	n/a	0	0	0
736.2236328125	n/a	PROB	1507786	n/a	LTP336	ltpFR2	9	n/a	n/a	n/a	4	20	7	9	4
742.5693359375	n/a	PROB	1520782	n/a	LTP336	ltpFR2	9	n/a	n/a	n/a	4	15	3	6	6
745.13623046875	n/a	PROB	1526039	n/a	LTP336	ltpFR2	9	n/a	n/a	n/a	4	17	8	4	5
747.4501953125	n/a	PROB	1530778	n/a	LTP336	ltpFR2	9	n/a	n/a	n/a	4	19	7	7	5
749.0009765625	n/a	PROB	1533954	n/a	LTP336	ltpFR2	9	n/a	n/a	n/a	4	14	9	3	2
750.69921875	n/a	PROB	1537432	n/a	LTP336	ltpFR2	9	n/a	n/a	n/a	4	18	6	3	9
752.8818359375	n/a	PROB	1541902	n/a	LTP336	ltpFR2	9	n/a	n/a	n/a	4	14	1	6	7
754.33203125	n/a	PROB	1544872	n/a	LTP336	ltpFR2	9	n/a	n/a	n/a	4	12	5	2	5
755.68017578125	n/a	PROB	1547633	n/a	LTP336	ltpFR2	9	n/a	n/a	n/a	4	16	3	5	8
757.69091796875	n/a	STOP	1551751	n/a	LTP336	ltpFR2	9	n/a	n/a	n/a	4	n/a	n/a	n/a	n/a
761.0458984375	n/a	REC_START	1558622	n/a	LTP336	ltpFR2	9	3	n/a	n/a	n/a	n/a	0	0	0
762.27880859375	n/a	REC_WORD	1561147	wordpools/wasnorm_wordpool_576.txt	LTP336	ltpFR2	9	3	JUGGLER	763	n/a	n/a	0	0	0
763.57275390625	n/a	REC_WORD	1563797	wordpools/wasnorm_wordpool_576.txt	LTP336	ltpFR2	9	3	GYMNAST	675	n/a	n/a	0	0	0
764.9228515625	n/a	REC_WORD	1566562	wordpools/wasnorm_wordpool_576.txt	LTP336	ltpFR2	9	3	STAPLE	1371	n/a	n/a	0	0	0
766.8466796875	n/a	REC_WORD	1570502	wordpools/wasnorm_wordpool_576.txt	LTP336	ltpFR2	9	3	RIFLE	1192	n/a	n/a	0	0	0
771.3056640625	n/a	REC_WORD	1579634	wordpools/wasnorm_wordpool_576.txt	LTP336	ltpFR2	9	3	SHORTS	1293	n/a	n/a	0	0	0
786.47705078125	n/a	REC_WORD	1610705	wordpools/wasnorm_wordpool_576.txt	LTP336	ltpFR2	9	3	CEILING	265	n/a	n/a	0	0	0
851.50048828125	n/a	WORD	1743873	wordpools/wasnorm_wordpool_576.txt	LTP336	ltpFR2	9	4	SLUG	1329	n/a	n/a	0	0	0
854.18310546875	n/a	WORD	1749367	wordpools/wasnorm_wordpool_576.txt	LTP336	ltpFR2	9	4	PREACHER	1119	n/a	n/a	0	0	0
856.76513671875	n/a	WORD	1754655	wordpools/wasnorm_wordpool_576.txt	LTP336	ltpFR2	9	4	TURNIP	1521	n/a	n/a	0	0	0
859.4970703125	n/a	WORD	1760250	wordpools/wasnorm_wordpool_576.txt	LTP336	ltpFR2	9	4	POPCORN	1104	n/a	n/a	0	0	0
862.2958984375	n/a	WORD	1765982	wordpools/wasnorm_wordpool_576.txt	LTP336	ltpFR2	9	4	CRITIC	410	n/a	n/a	0	0	0
864.92822265625	n/a	WORD	1771373	wordpools/wasnorm_wordpool_576.txt	LTP336	ltpFR2	9	4	TABLET	1427	n/a	n/a	0	0	0
867.5927734375	n/a	WORD	1776830	wordpools/wasnorm_wordpool_576.txt	LTP336	ltpFR2	9	4	OUTLAW	989	n/a	n/a	0	0	0
870.30908203125	n/a	WORD	1782393	wordpools/wasnorm_wordpool_576.txt	LTP336	ltpFR2	9	4	INMATE	738	n/a	n/a	0	0	0
872.9580078125	n/a	WORD	1787818	wordpools/wasnorm_wordpool_576.txt	LTP336	ltpFR2	9	4	THRONE	1461	n/a	n/a	0	0	0
875.638671875	n/a	WORD	1793308	wordpools/wasnorm_wordpool_576.txt	LTP336	ltpFR2	9	4	HOOD	714	n/a	n/a	0	0	0
878.12255859375	n/a	WORD	1798395	wordpools/wasnorm_wordpool_576.txt	LTP336	ltpFR2	9	4	PEDAL	1037	n/a	n/a	0	0	0
880.8876953125	n/a	WORD	1804058	wordpools/wasnorm_wordpool_576.txt	LTP336	ltpFR2	9	4	SLOPE	1328	n/a	n/a	0	0	0
883.45263671875	n/a	WORD	1809311	wordpools/wasnorm_wordpool_576.txt	LTP336	ltpFR2	9	4	POSTAGE	1113	n/a	n/a	0	0	0
886.03564453125	n/a	WORD	1814601	wordpools/wasnorm_wordpool_576.txt	LTP336	ltpFR2	9	4	TEMPLE	1448	n/a	n/a	0	0	0
888.69921875	n/a	WORD	1820056	wordpools/wasnorm_wordpool_576.txt	LTP336	ltpFR2	9	4	VIKING	1565	n/a	n/a	0	0	0
891.34912109375	n/a	WORD	1825483	wordpools/wasnorm_wordpool_576.txt	LTP336	ltpFR2	9	4	SNAIL	1332	n/a	n/a	0	0	0
893.9482421875	n/a	WORD	1830806	wordpools/wasnorm_wordpool_576.txt	LTP336	ltpFR2	9	4	PICNIC	1060	n/a	n/a	0	0	0
896.67919921875	n/a	WORD	1836399	wordpools/wasnorm_wordpool_576.txt	LTP336	ltpFR2	9	4	CURTAIN	427	n/a	n/a	0	0	0
899.279296875	n/a	WORD	1841724	wordpools/wasnorm_wordpool_576.txt	LTP336	ltpFR2	9	4	BANKER	84	n/a	n/a	0	0	0
901.85986328125	n/a	WORD	1847009	wordpools/wasnorm_wordpool_576.txt	LTP336	ltpFR2	9	4	BACKBONE	66	n/a	n/a	0	0	0
904.5087890625	n/a	WORD	1852434	wordpools/wasnorm_wordpool_576.txt	LTP336	ltpFR2	9	4	KNIFE	785	n/a	n/a	0	0	0
907.02490234375	n/a	WORD	1857587	wordpools/wasnorm_wordpool_576.txt	LTP336	ltpFR2	9	4	LAGOON	795	n/a	n/a	0	0	0
909.5556640625	n/a	WORD	1862770	wordpools/wasnorm_wordpool_576.txt	LTP336	ltpFR2	9	4	PRINCE	1124	n/a	n/a	0	0	0
912.20556640625	n/a	WORD	1868197	wordpools/wasnorm_wordpool_576.txt	LTP336	ltpFR2	9	4	RAFT	1159	n/a	n/a	0	0	0
913.82080078125	n/a	START	1871505	n/a	LTP336	ltpFR2	9	n/a	n/a	n/a	5	n/a	n/a	n/a	n/a
914.8583984375	n/a	DISTRACTOR	1873630	n/a	LTP336	ltpFR2	9	4	n/a	n/a	n/a	n/a	0	0	0
914.87060546875	n/a	PROB	1873655	n/a	LTP336	ltpFR2	9	n/a	n/a	n/a	5	10	5	4	1
916.81982421875	n/a	PROB	1877647	n/a	LTP336	ltpFR2	9	n/a	n/a	n/a	5	12	1	5	6
918.66845703125	n/a	PROB	1881433	n/a	LTP336	ltpFR2	9	n/a	n/a	n/a	5	15	1	6	8
921.36767578125	n/a	PROB	1886961	n/a	LTP336	ltpFR2	9	n/a	n/a	n/a	5	13	3	2	8
923.08447265625	n/a	PROB	1890477	n/a	LTP336	ltpFR2	9	n/a	n/a	n/a	5	19	7	3	9
924.4326171875	n/a	PROB	1893238	n/a	LTP336	ltpFR2	9	n/a	n/a	n/a	5	7	1	2	4
926.24951171875	n/a	PROB	1896959	n/a	LTP336	ltpFR2	9	n/a	n/a	n/a	5	16	7	5	4
928.01513671875	n/a	PROB	1900575	n/a	LTP336	ltpFR2	9	n/a	n/a	n/a	5	7	2	1	4
929.81298828125	n/a	PROB	1904257	n/a	LTP336	ltpFR2	9	n/a	n/a	n/a	5	16	6	9	1
931.4453125	n/a	PROB	1907600	n/a	LTP336	ltpFR2	9	n/a	n/a	n/a	5	11	7	1	3
933.0458984375	n/a	PROB	1910878	n/a	LTP336	ltpFR2	9	n/a	n/a	n/a	5	15	7	7	1
934.494140625	n/a	PROB	1913844	n/a	LTP336	ltpFR2	9	n/a	n/a	n/a	5	16	3	4	9
936.458984375	n/a	STOP	1917868	n/a	LTP336	ltpFR2	9	n/a	n/a	n/a	5	n/a	n/a	n/a	n/a
939.64208984375	n/a	REC_START	1924387	n/a	LTP336	ltpFR2	9	4	n/a	n/a	n/a	n/a	0	0	0
940.5078125	n/a	REC_WORD	1926160	wordpools/wasnorm_wordpool_576.txt	LTP336	ltpFR2	9	4	LAGOON	795	n/a	n/a	0	0	0
941.68603515625	n/a	REC_WORD	1928573	wordpools/wasnorm_wordpool_576.txt	LTP336	ltpFR2	9	4	PRINCE	1124	n/a	n/a	0	0	0
943.06884765625	n/a	REC_WORD	1931405	wordpools/wasnorm_wordpool_576.txt	LTP336	ltpFR2	9	4	RAFT	1159	n/a	n/a	0	0	0
944.45458984375	n/a	REC_WORD	1934243	wordpools/wasnorm_wordpool_576.txt	LTP336	ltpFR2	9	4	BACKBONE	66	n/a	n/a	0	0	0
945.89892578125	n/a	REC_WORD	1937201	wordpools/wasnorm_wordpool_576.txt	LTP336	ltpFR2	9	4	BLACKBOARD	133	n/a	n/a	0	0	0
947.9755859375	n/a	REC_WORD	1941454	wordpools/wasnorm_wordpool_576.txt	LTP336	ltpFR2	9	4	KNIFE	785	n/a	n/a	0	0	0
954.9697265625	n/a	REC_WORD	1955778	wordpools/wasnorm_wordpool_576.txt	LTP336	ltpFR2	9	4	TABLET	1427	n/a	n/a	0	0	0
956.6923828125	n/a	REC_WORD	1959306	wordpools/wasnorm_wordpool_576.txt	LTP336	ltpFR2	9	4	SLUG	1329	n/a	n/a	0	0	0
958.283203125	n/a	REC_WORD	1962564	wordpools/wasnorm_wordpool_576.txt	LTP336	ltpFR2	9	4	SNAIL	1332	n/a	n/a	0	0	0
1030.0654296875	n/a	DISTRACTOR	2109574	n/a	LTP336	ltpFR2	9	5	n/a	n/a	n/a	n/a	0	0	0
1030.06640625	n/a	START	2109576	n/a	LTP336	ltpFR2	9	n/a	n/a	n/a	6	n/a	n/a	n/a	n/a
1030.08251953125	n/a	PROB	2109609	n/a	LTP336	ltpFR2	9	n/a	n/a	n/a	6	12	3	7	2
1034.24755859375	n/a	PROB	2118139	n/a	LTP336	ltpFR2	9	n/a	n/a	n/a	6	10	1	5	4
1035.662109375	n/a	PROB	2121036	n/a	LTP336	ltpFR2	9	n/a	n/a	n/a	6	7	3	3	1
1036.9794921875	n/a	PROB	2123734	n/a	LTP336	ltpFR2	9	n/a	n/a	n/a	6	14	9	3	2
1038.42724609375	n/a	PROB	2126699	n/a	LTP336	ltpFR2	9	n/a	n/a	n/a	6	12	6	3	3
1041.31005859375	n/a	PROB	2132603	n/a	LTP336	ltpFR2	9	n/a	n/a	n/a	6	17	5	8	4
1043.26025390625	n/a	PROB	2136597	n/a	LTP336	ltpFR2	9	n/a	n/a	n/a	6	16	7	7	2
1044.89208984375	n/a	PROB	2139939	n/a	LTP336	ltpFR2	9	n/a	n/a	n/a	6	22	9	9	4
1046.4072265625	n/a	PROB	2143042	n/a	LTP336	ltpFR2	9	n/a	n/a	n/a	6	23	9	9	5
1049.5888671875	n/a	PROB	2149558	n/a	LTP336	ltpFR2	9	n/a	n/a	n/a	6	19	9	1	9
1051.005859375	n/a	PROB	2152460	n/a	LTP336	ltpFR2	9	n/a	n/a	n/a	6	18	8	8	2
1054.06494140625	n/a	STOP	2158725	n/a	LTP336	ltpFR2	9	n/a	n/a	n/a	6	n/a	n/a	n/a	n/a
1055.12060546875	n/a	WORD	2160887	wordpools/wasnorm_wordpool_576.txt	LTP336	ltpFR2	9	5	CLOTHES	327	n/a	n/a	0	0	0
1057.9189453125	n/a	WORD	2166618	wordpools/wasnorm_wordpool_576.txt	LTP336	ltpFR2	9	5	DRESS	495	n/a	n/a	0	0	0
1060.4833984375	n/a	WORD	2171870	wordpools/wasnorm_wordpool_576.txt	LTP336	ltpFR2	9	5	DINER	467	n/a	n/a	0	0	0
1063.1337890625	n/a	WORD	2177298	wordpools/wasnorm_wordpool_576.txt	LTP336	ltpFR2	9	5	JUDGE	761	n/a	n/a	0	0	0
1065.58154296875	n/a	WORD	2182311	wordpools/wasnorm_wordpool_576.txt	LTP336	ltpFR2	9	5	SKIRT	1319	n/a	n/a	0	0	0
1068.064453125	n/a	WORD	2187396	wordpools/wasnorm_wordpool_576.txt	LTP336	ltpFR2	9	5	TABLE	1426	n/a	n/a	0	0	0
1070.6953125	n/a	WORD	2192784	wordpools/wasnorm_wordpool_576.txt	LTP336	ltpFR2	9	5	COUCH	386	n/a	n/a	0	0	0
1073.29541015625	n/a	WORD	2198109	wordpools/wasnorm_wordpool_576.txt	LTP336	ltpFR2	9	5	BEAKER	104	n/a	n/a	0	0	0
1075.92724609375	n/a	WORD	2203499	wordpools/wasnorm_wordpool_576.txt	LTP336	ltpFR2	9	5	OYSTER	995	n/a	n/a	0	0	0
1078.4580078125	n/a	WORD	2208682	wordpools/wasnorm_wordpool_576.txt	LTP336	ltpFR2	9	5	GREASE	660	n/a	n/a	0	0	0
1081.2412109375	n/a	WORD	2214382	wordpools/wasnorm_wordpool_576.txt	LTP336	ltpFR2	9	5	DAUGHTER	442	n/a	n/a	0	0	0
1083.8388671875	n/a	WORD	2219702	wordpools/wasnorm_wordpool_576.txt	LTP336	ltpFR2	9	5	CHILD	299	n/a	n/a	0	0	0
1086.455078125	n/a	WORD	2225060	wordpools/wasnorm_wordpool_576.txt	LTP336	ltpFR2	9	5	CASHIER	254	n/a	n/a	0	0	0
1088.9208984375	n/a	WORD	2230110	wordpools/wasnorm_wordpool_576.txt	LTP336	ltpFR2	9	5	SHIRT	1287	n/a	n/a	0	0	0
1091.5859375	n/a	WORD	2235568	wordpools/wasnorm_wordpool_576.txt	LTP336	ltpFR2	9	5	VALVE	1546	n/a	n/a	0	0	0
1094.40087890625	n/a	WORD	2241333	wordpools/wasnorm_wordpool_576.txt	LTP336	ltpFR2	9	5	LUGGAGE	847	n/a	n/a	0	0	0
1096.90087890625	n/a	WORD	2246453	wordpools/wasnorm_wordpool_576.txt	LTP336	ltpFR2	9	5	QUARTER	1148	n/a	n/a	0	0	0
1099.71435546875	n/a	WORD	2252215	wordpools/wasnorm_wordpool_576.txt	LTP336	ltpFR2	9	5	ONION	977	n/a	n/a	0	0	0
1102.2314453125	n/a	WORD	2257370	wordpools/wasnorm_wordpool_576.txt	LTP336	ltpFR2	9	5	EAGLE	512	n/a	n/a	0	0	0
1105.01318359375	n/a	WORD	2263067	wordpools/wasnorm_wordpool_576.txt	LTP336	ltpFR2	9	5	HANDBAG	684	n/a	n/a	0	0	0
1107.4443359375	n/a	WORD	2268046	wordpools/wasnorm_wordpool_576.txt	LTP336	ltpFR2	9	5	POSSUM	1112	n/a	n/a	0	0	0
1110.1611328125	n/a	WORD	2273610	wordpools/wasnorm_wordpool_576.txt	LTP336	ltpFR2	9	5	TRACTOR	1493	n/a	n/a	0	0	0
1112.97607421875	n/a	WORD	2279375	wordpools/wasnorm_wordpool_576.txt	LTP336	ltpFR2	9	5	LION	827	n/a	n/a	0	0	0
1115.4912109375	n/a	WORD	2284526	wordpools/wasnorm_wordpool_576.txt	LTP336	ltpFR2	9	5	BEAST	108	n/a	n/a	0	0	0
1117.10791015625	n/a	START	2287837	n/a	LTP336	ltpFR2	9	n/a	n/a	n/a	7	n/a	n/a	n/a	n/a
1117.9228515625	n/a	DISTRACTOR	2289506	n/a	LTP336	ltpFR2	9	5	n/a	n/a	n/a	n/a	0	0	0
1117.93994140625	n/a	PROB	2289541	n/a	LTP336	ltpFR2	9	n/a	n/a	n/a	7	16	7	6	3
1120.7880859375	n/a	PROB	2295374	n/a	LTP336	ltpFR2	9	n/a	n/a	n/a	7	22	7	8	7
1123.3046875	n/a	PROB	2300528	n/a	LTP336	ltpFR2	9	n/a	n/a	n/a	7	18	7	4	7
1125.037109375	n/a	PROB	2304076	n/a	LTP336	ltpFR2	9	n/a	n/a	n/a	7	11	1	3	7
1126.36865234375	n/a	PROB	2306803	n/a	LTP336	ltpFR2	9	n/a	n/a	n/a	7	17	9	4	4
1128.5009765625	n/a	PROB	2311170	n/a	LTP336	ltpFR2	9	n/a	n/a	n/a	7	14	8	1	5
1131.06787109375	n/a	PROB	2316427	n/a	LTP336	ltpFR2	9	n/a	n/a	n/a	7	9	1	3	5
1132.69970703125	n/a	PROB	2319769	n/a	LTP336	ltpFR2	9	n/a	n/a	n/a	7	13	7	3	3
1134.265625	n/a	PROB	2322976	n/a	LTP336	ltpFR2	9	n/a	n/a	n/a	7	18	4	8	6
1136.03173828125	n/a	PROB	2326593	n/a	LTP336	ltpFR2	9	n/a	n/a	n/a	7	23	9	7	7
1138.99658203125	n/a	PROB	2332665	n/a	LTP336	ltpFR2	9	n/a	n/a	n/a	7	12	4	1	7
1141.029296875	n/a	STOP	2336828	n/a	LTP336	ltpFR2	9	n/a	n/a	n/a	7	n/a	n/a	n/a	n/a
1142.9453125	n/a	REC_START	2340752	n/a	LTP336	ltpFR2	9	5	n/a	n/a	n/a	n/a	0	0	0
1144.0185546875	n/a	REC_WORD	2342950	wordpools/wasnorm_wordpool_576.txt	LTP336	ltpFR2	9	5	QUARTER	1148	n/a	n/a	0	0	0
1145.00537109375	n/a	REC_WORD	2344971	wordpools/wasnorm_wordpool_576.txt	LTP336	ltpFR2	9	5	DINER	467	n/a	n/a	0	0	0
1145.771484375	n/a	REC_WORD	2346540	wordpools/wasnorm_wordpool_576.txt	LTP336	ltpFR2	9	5	TABLE	1426	n/a	n/a	0	0	0
1147.4150390625	n/a	REC_WORD_VV	2349906	wordpools/wasnorm_wordpool_576.txt	LTP336	ltpFR2	9	5	<>	-1	n/a	n/a	0	0	0
1150.6669921875	n/a	REC_WORD	2356566	wordpools/wasnorm_wordpool_576.txt	LTP336	ltpFR2	9	5	SHIRT	1287	n/a	n/a	0	0	0
1151.669921875	n/a	REC_WORD	2358620	wordpools/wasnorm_wordpool_576.txt	LTP336	ltpFR2	9	5	SKIRT	1319	n/a	n/a	0	0	0
1153.40087890625	n/a	REC_WORD	2362165	wordpools/wasnorm_wordpool_576.txt	LTP336	ltpFR2	9	5	LUGGAGE	847	n/a	n/a	0	0	0
1159.55712890625	n/a	REC_WORD	2374773	wordpools/wasnorm_wordpool_576.txt	LTP336	ltpFR2	9	5	VALVE	1546	n/a	n/a	0	0	0
1233.3837890625	n/a	DISTRACTOR	2525970	n/a	LTP336	ltpFR2	9	6	n/a	n/a	n/a	n/a	0	0	0
1233.3837890625	n/a	START	2525970	n/a	LTP336	ltpFR2	9	n/a	n/a	n/a	8	n/a	n/a	n/a	n/a
1233.40087890625	n/a	PROB	2526005	n/a	LTP336	ltpFR2	9	n/a	n/a	n/a	8	14	3	3	8
1235.98388671875	n/a	PROB	2531295	n/a	LTP336	ltpFR2	9	n/a	n/a	n/a	8	18	9	7	2
1238.16552734375	n/a	PROB	2535763	n/a	LTP336	ltpFR2	9	n/a	n/a	n/a	8	12	4	7	1
1239.931640625	n/a	PROB	2539380	n/a	LTP336	ltpFR2	9	n/a	n/a	n/a	8	13	3	5	5
1241.44677734375	n/a	PROB	2542483	n/a	LTP336	ltpFR2	9	n/a	n/a	n/a	8	14	8	1	5
1243.3955078125	n/a	PROB	2546474	n/a	LTP336	ltpFR2	9	n/a	n/a	n/a	8	14	6	2	6
1245.51171875	n/a	PROB	2550808	n/a	LTP336	ltpFR2	9	n/a	n/a	n/a	8	19	9	3	7
1247.111328125	n/a	PROB	2554084	n/a	LTP336	ltpFR2	9	n/a	n/a	n/a	8	17	3	8	6
1249.642578125	n/a	PROB	2559268	n/a	LTP336	ltpFR2	9	n/a	n/a	n/a	8	23	6	9	8
1252.6083984375	n/a	PROB	2565342	n/a	LTP336	ltpFR2	9	n/a	n/a	n/a	8	12	4	1	7
1254.158203125	n/a	PROB	2568516	n/a	LTP336	ltpFR2	9	n/a	n/a	n/a	8	21	7	9	5
1256.9013671875	n/a	STOP	2574134	n/a	LTP336	ltpFR2	9	n/a	n/a	n/a	8	n/a	n/a	n/a	n/a
1258.2900390625	n/a	WORD	2576978	wordpools/wasnorm_wordpool_576.txt	LTP336	ltpFR2	9	6	PATROL	1027	n/a	n/a	0	0	0
1260.8212890625	n/a	WORD	2582162	wordpools/wasnorm_wordpool_576.txt	LTP336	ltpFR2	9	6	POLICE	1098	n/a	n/a	0	0	0
1263.4189453125	n/a	WORD	2587482	wordpools/wasnorm_wordpool_576.txt	LTP336	ltpFR2	9	6	MARROW	872	n/a	n/a	0	0	0
1266.0029296875	n/a	WORD	2592774	wordpools/wasnorm_wordpool_576.txt	LTP336	ltpFR2	9	6	MATCH	878	n/a	n/a	0	0	0
1268.6669921875	n/a	WORD	2598230	wordpools/wasnorm_wordpool_576.txt	LTP336	ltpFR2	9	6	DANDRUFF	439	n/a	n/a	0	0	0
1271.416015625	n/a	WORD	2603860	wordpools/wasnorm_wordpool_576.txt	LTP336	ltpFR2	9	6	SCULPTURE	1258	n/a	n/a	0	0	0
1274.048828125	n/a	WORD	2609252	wordpools/wasnorm_wordpool_576.txt	LTP336	ltpFR2	9	6	PUPPY	1144	n/a	n/a	0	0	0
1276.7138671875	n/a	WORD	2614710	wordpools/wasnorm_wordpool_576.txt	LTP336	ltpFR2	9	6	AUTHOR	61	n/a	n/a	0	0	0
1279.2626953125	n/a	WORD	2619930	wordpools/wasnorm_wordpool_576.txt	LTP336	ltpFR2	9	6	POET	1095	n/a	n/a	0	0	0
1281.8447265625	n/a	WORD	2625218	wordpools/wasnorm_wordpool_576.txt	LTP336	ltpFR2	9	6	OUTDOORS	987	n/a	n/a	0	0	0
1284.5595703125	n/a	WORD	2630778	wordpools/wasnorm_wordpool_576.txt	LTP336	ltpFR2	9	6	FOREST	593	n/a	n/a	0	0	0
1287.34228515625	n/a	WORD	2636477	wordpools/wasnorm_wordpool_576.txt	LTP336	ltpFR2	9	6	REBEL	1172	n/a	n/a	0	0	0
1289.80712890625	n/a	WORD	2641525	wordpools/wasnorm_wordpool_576.txt	LTP336	ltpFR2	9	6	BOYFRIEND	162	n/a	n/a	0	0	0
1292.42236328125	n/a	WORD	2646881	wordpools/wasnorm_wordpool_576.txt	LTP336	ltpFR2	9	6	CATCHER	258	n/a	n/a	0	0	0
1295.17236328125	n/a	WORD	2652513	wordpools/wasnorm_wordpool_576.txt	LTP336	ltpFR2	9	6	STREAM	1392	n/a	n/a	0	0	0
1297.6201171875	n/a	WORD	2657526	wordpools/wasnorm_wordpool_576.txt	LTP336	ltpFR2	9	6	FIREMAN	569	n/a	n/a	0	0	0
1300.3359375	n/a	WORD	2663088	wordpools/wasnorm_wordpool_576.txt	LTP336	ltpFR2	9	6	WORLD	1622	n/a	n/a	0	0	0
1303.10205078125	n/a	WORD	2668753	wordpools/wasnorm_wordpool_576.txt	LTP336	ltpFR2	9	6	PASTRY	1022	n/a	n/a	0	0	0
1305.68310546875	n/a	WORD	2674039	wordpools/wasnorm_wordpool_576.txt	LTP336	ltpFR2	9	6	COMPASS	358	n/a	n/a	0	0	0
1308.11572265625	n/a	WORD	2679021	wordpools/wasnorm_wordpool_576.txt	LTP336	ltpFR2	9	6	PLASTER	1085	n/a	n/a	0	0	0
1310.880859375	n/a	WORD	2684684	wordpools/wasnorm_wordpool_576.txt	LTP336	ltpFR2	9	6	HUSBAND	728	n/a	n/a	0	0	0
1313.3466796875	n/a	WORD	2689734	wordpools/wasnorm_wordpool_576.txt	LTP336	ltpFR2	9	6	GLASS	639	n/a	n/a	0	0	0
1315.8955078125	n/a	WORD	2694954	wordpools/wasnorm_wordpool_576.txt	LTP336	ltpFR2	9	6	POWDER	1117	n/a	n/a	0	0	0
1318.5595703125	n/a	WORD	2700410	wordpools/wasnorm_wordpool_576.txt	LTP336	ltpFR2	9	6	BISON	131	n/a	n/a	0	0	0
1320.177734375	n/a	START	2703724	n/a	LTP336	ltpFR2	9	n/a	n/a	n/a	9	n/a	n/a	n/a	n/a
1320.9873046875	n/a	DISTRACTOR	2705382	n/a	LTP336	ltpFR2	9	6	n/a	n/a	n/a	n/a	0	0	0
1320.99267578125	n/a	PROB	2705393	n/a	LTP336	ltpFR2	9	n/a	n/a	n/a	9	13	1	4	8
1324.84033203125	n/a	PROB	2713273	n/a	LTP336	ltpFR2	9	n/a	n/a	n/a	9	11	5	3	3
1326.65625	n/a	PROB	2716992	n/a	LTP336	ltpFR2	9	n/a	n/a	n/a	9	23	9	7	7
1329.08935546875	n/a	PROB	2721975	n/a	LTP336	ltpFR2	9	n/a	n/a	n/a	9	13	3	1	9
1330.68701171875	n/a	PROB	2725247	n/a	LTP336	ltpFR2	9	n/a	n/a	n/a	9	11	8	2	1
1332.13720703125	n/a	PROB	2728217	n/a	LTP336	ltpFR2	9	n/a	n/a	n/a	9	14	4	7	3
1333.80224609375	n/a	PROB	2731627	n/a	LTP336	ltpFR2	9	n/a	n/a	n/a	9	20	3	8	9
1336.48388671875	n/a	PROB	2737119	n/a	LTP336	ltpFR2	9	n/a	n/a	n/a	9	17	8	8	1
1338.06787109375	n/a	PROB	2740363	n/a	LTP336	ltpFR2	9	n/a	n/a	n/a	9	20	3	8	9
1341.1669921875	n/a	PROB	2746710	n/a	LTP336	ltpFR2	9	n/a	n/a	n/a	9	8	4	1	3
1342.94189453125	n/a	STOP	2750345	n/a	LTP336	ltpFR2	9	n/a	n/a	n/a	9	n/a	n/a	n/a	n/a
1346.06494140625	n/a	REC_START	2756741	n/a	LTP336	ltpFR2	9	6	n/a	n/a	n/a	n/a	0	0	0
1346.888671875	n/a	REC_WORD	2758428	wordpools/wasnorm_wordpool_576.txt	LTP336	ltpFR2	9	6	PLASTER	1085	n/a	n/a	0	0	0
1347.8935546875	n/a	REC_WORD_VV	2760486	wordpools/wasnorm_wordpool_576.txt	LTP336	ltpFR2	9	6	<>	-1	n/a	n/a	0	0	0
1348.419921875	n/a	REC_WORD	2761564	wordpools/wasnorm_wordpool_576.txt	LTP336	ltpFR2	9	6	GLASS	639	n/a	n/a	0	0	0
1349.24560546875	n/a	REC_WORD_VV	2763255	wordpools/wasnorm_wordpool_576.txt	LTP336	ltpFR2	9	6	<>	-1	n/a	n/a	0	0	0
1350.2666015625	n/a	REC_WORD	2765346	wordpools/wasnorm_wordpool_576.txt	LTP336	ltpFR2	9	6	POWDER	1117	n/a	n/a	0	0	0
1352.0986328125	n/a	REC_WORD	2769098	wordpools/wasnorm_wordpool_576.txt	LTP336	ltpFR2	9	6	BISON	131	n/a	n/a	0	0	0
1354.3447265625	n/a	REC_WORD	2773698	wordpools/wasnorm_wordpool_576.txt	LTP336	ltpFR2	9	6	DANDRUFF	439	n/a	n/a	0	0	0
1355.79736328125	n/a	REC_WORD	2776673	wordpools/wasnorm_wordpool_576.txt	LTP336	ltpFR2	9	6	POLICE	1098	n/a	n/a	0	0	0
1357.3974609375	n/a	REC_WORD	2779950	wordpools/wasnorm_wordpool_576.txt	LTP336	ltpFR2	9	6	MATCH	878	n/a	n/a	0	0	0
1358.435546875	n/a	REC_WORD	2782076	wordpools/wasnorm_wordpool_576.txt	LTP336	ltpFR2	9	6	PATROL	1027	n/a	n/a	0	0	0
1360.12158203125	n/a	REC_WORD	2785529	wordpools/wasnorm_wordpool_576.txt	LTP336	ltpFR2	9	6	MARROW	872	n/a	n/a	0	0	0
1361.3984375	n/a	REC_WORD	2788144	wordpools/wasnorm_wordpool_576.txt	LTP336	ltpFR2	9	6	PUPPY	1144	n/a	n/a	0	0	0
1363.04736328125	n/a	REC_WORD	2791521	wordpools/wasnorm_wordpool_576.txt	LTP336	ltpFR2	9	6	BOYFRIEND	162	n/a	n/a	0	0	0
1436.50341796875	n/a	DISTRACTOR	2941959	n/a	LTP336	ltpFR2	9	7	n/a	n/a	n/a	n/a	0	0	0
1436.50341796875	n/a	START	2941959	n/a	LTP336	ltpFR2	9	n/a	n/a	n/a	10	n/a	n/a	n/a	n/a
1436.5205078125	n/a	PROB	2941994	n/a	LTP336	ltpFR2	9	n/a	n/a	n/a	10	21	4	8	9
1440.90234375	n/a	PROB	2950968	n/a	LTP336	ltpFR2	9	n/a	n/a	n/a	10	17	8	2	7
1442.400390625	n/a	PROB	2954036	n/a	LTP336	ltpFR2	9	n/a	n/a	n/a	10	14	6	4	4
1443.85009765625	n/a	PROB	2957005	n/a	LTP336	ltpFR2	9	n/a	n/a	n/a	10	11	2	5	4
1445.68212890625	n/a	PROB	2960757	n/a	LTP336	ltpFR2	9	n/a	n/a	n/a	10	13	3	3	7
1447.39794921875	n/a	PROB	2964271	n/a	LTP336	ltpFR2	9	n/a	n/a	n/a	10	23	7	8	8
1450.6298828125	n/a	PROB	2970890	n/a	LTP336	ltpFR2	9	n/a	n/a	n/a	10	16	7	3	6
1452.52880859375	n/a	PROB	2974779	n/a	LTP336	ltpFR2	9	n/a	n/a	n/a	10	20	5	6	9
1455.69384765625	n/a	PROB	2981261	n/a	LTP336	ltpFR2	9	n/a	n/a	n/a	10	10	7	2	1
1457.060546875	n/a	PROB	2984060	n/a	LTP336	ltpFR2	9	n/a	n/a	n/a	10	16	9	3	4
1459.50146484375	n/a	STOP	2989059	n/a	LTP336	ltpFR2	9	n/a	n/a	n/a	10	n/a	n/a	n/a	n/a
1461.3427734375	n/a	WORD	2992830	wordpools/wasnorm_wordpool_576.txt	LTP336	ltpFR2	9	7	ITEM	746	n/a	n/a	0	0	0
1463.7734375	n/a	WORD	2997808	wordpools/wasnorm_wordpool_576.txt	LTP336	ltpFR2	9	7	SALAD	1224	n/a	n/a	0	0	0
1466.388671875	n/a	WORD	3003164	wordpools/wasnorm_wordpool_576.txt	LTP336	ltpFR2	9	7	CORAL	378	n/a	n/a	0	0	0
1469.08837890625	n/a	WORD	3008693	wordpools/wasnorm_wordpool_576.txt	LTP336	ltpFR2	9	7	BRAKE	166	n/a	n/a	0	0	0
1471.6533203125	n/a	WORD	3013946	wordpools/wasnorm_wordpool_576.txt	LTP336	ltpFR2	9	7	RUST	1219	n/a	n/a	0	0	0
1474.13623046875	n/a	WORD	3019031	wordpools/wasnorm_wordpool_576.txt	LTP336	ltpFR2	9	7	PISTON	1076	n/a	n/a	0	0	0
1476.6669921875	n/a	WORD	3024214	wordpools/wasnorm_wordpool_576.txt	LTP336	ltpFR2	9	7	BUGGY	188	n/a	n/a	0	0	0
1479.18408203125	n/a	WORD	3029369	wordpools/wasnorm_wordpool_576.txt	LTP336	ltpFR2	9	7	TURTLE	1522	n/a	n/a	0	0	0
1481.76513671875	n/a	WORD	3034655	wordpools/wasnorm_wordpool_576.txt	LTP336	ltpFR2	9	7	HAND	683	n/a	n/a	0	0	0
1484.580078125	n/a	WORD	3040420	wordpools/wasnorm_wordpool_576.txt	LTP336	ltpFR2	9	7	PASTA	1021	n/a	n/a	0	0	0
1487.27978515625	n/a	WORD	3045949	wordpools/wasnorm_wordpool_576.txt	LTP336	ltpFR2	9	7	QUEEN	1149	n/a	n/a	0	0	0
1489.77783203125	n/a	WORD	3051065	wordpools/wasnorm_wordpool_576.txt	LTP336	ltpFR2	9	7	TOASTER	1472	n/a	n/a	0	0	0
1492.2109375	n/a	WORD	3056048	wordpools/wasnorm_wordpool_576.txt	LTP336	ltpFR2	9	7	STOVE	1388	n/a	n/a	0	0	0
1494.92578125	n/a	WORD	3061608	wordpools/wasnorm_wordpool_576.txt	LTP336	ltpFR2	9	7	PACKAGE	997	n/a	n/a	0	0	0
1497.49072265625	n/a	WORD	3066861	wordpools/wasnorm_wordpool_576.txt	LTP336	ltpFR2	9	7	MILDEW	893	n/a	n/a	0	0	0
1500.24072265625	n/a	WORD	3072493	wordpools/wasnorm_wordpool_576.txt	LTP336	ltpFR2	9	7	FLIPPER	580	n/a	n/a	0	0	0
1502.78759765625	n/a	WORD	3077709	wordpools/wasnorm_wordpool_576.txt	LTP336	ltpFR2	9	7	ARMY	39	n/a	n/a	0	0	0
1505.28759765625	n/a	WORD	3082829	wordpools/wasnorm_wordpool_576.txt	LTP336	ltpFR2	9	7	PORTRAIT	1111	n/a	n/a	0	0	0
1507.88623046875	n/a	WORD	3088151	wordpools/wasnorm_wordpool_576.txt	LTP336	ltpFR2	9	7	PLATE	1086	n/a	n/a	0	0	0
1510.50146484375	n/a	WORD	3093507	wordpools/wasnorm_wordpool_576.txt	LTP336	ltpFR2	9	7	SEAGULL	1261	n/a	n/a	0	0	0
1513.3173828125	n/a	WORD	3099274	wordpools/wasnorm_wordpool_576.txt	LTP336	ltpFR2	9	7	PRINCESS	1125	n/a	n/a	0	0	0
1516.04931640625	n/a	WORD	3104869	wordpools/wasnorm_wordpool_576.txt	LTP336	ltpFR2	9	7	MAILMAN	858	n/a	n/a	0	0	0
1518.796875	n/a	WORD	3110496	wordpools/wasnorm_wordpool_576.txt	LTP336	ltpFR2	9	7	CUPBOARD	425	n/a	n/a	0	0	0
1521.47900390625	n/a	WORD	3115989	wordpools/wasnorm_wordpool_576.txt	LTP336	ltpFR2	9	7	HORNET	718	n/a	n/a	0	0	0
1523.09619140625	n/a	START	3119301	n/a	LTP336	ltpFR2	9	n/a	n/a	n/a	11	n/a	n/a	n/a	n/a
1524.24609375	n/a	DISTRACTOR	3121656	n/a	LTP336	ltpFR2	9	7	n/a	n/a	n/a	n/a	0	0	0
1524.26171875	n/a	PROB	3121688	n/a	LTP336	ltpFR2	9	n/a	n/a	n/a	11	16	1	9	6
1526.39306640625	n/a	PROB	3126053	n/a	LTP336	ltpFR2	9	n/a	n/a	n/a	11	20	8	4	8
1528.0439453125	n/a	PROB	3129434	n/a	LTP336	ltpFR2	9	n/a	n/a	n/a	11	16	5	7	4
1529.841796875	n/a	PROB	3133116	n/a	LTP336	ltpFR2	9	n/a	n/a	n/a	11	24	9	6	9
1532.15869140625	n/a	PROB	3137861	n/a	LTP336	ltpFR2	9	n/a	n/a	n/a	11	11	1	6	4
1533.5234375	n/a	PROB	3140656	n/a	LTP336	ltpFR2	9	n/a	n/a	n/a	11	19	8	3	8
1535.47265625	n/a	PROB	3144648	n/a	LTP336	ltpFR2	9	n/a	n/a	n/a	11	16	5	5	6
1536.771484375	n/a	PROB	3147308	n/a	LTP336	ltpFR2	9	n/a	n/a	n/a	11	13	2	4	7
1539.25439453125	n/a	PROB	3152393	n/a	LTP336	ltpFR2	9	n/a	n/a	n/a	11	19	7	5	7
1541.4365234375	n/a	PROB	3156862	n/a	LTP336	ltpFR2	9	n/a	n/a	n/a	11	11	4	2	5
1543.53515625	n/a	PROB	3161160	n/a	LTP336	ltpFR2	9	n/a	n/a	n/a	11	13	1	9	3
1547.09521484375	n/a	STOP	3168451	n/a	LTP336	ltpFR2	9	n/a	n/a	n/a	11	n/a	n/a	n/a	n/a
1548.96728515625	n/a	REC_START	3172285	n/a	LTP336	ltpFR2	9	7	n/a	n/a	n/a	n/a	0	0	0
1549.97607421875	n/a	REC_WORD_VV	3174351	wordpools/wasnorm_wordpool_576.txt	LTP336	ltpFR2	9	7	<>	-1	n/a	n/a	0	0	0
1550.76220703125	n/a	REC_WORD	3175961	wordpools/wasnorm_wordpool_576.txt	LTP336	ltpFR2	9	7	SEAGULL	1261	n/a	n/a	0	0	0
1551.9970703125	n/a	REC_WORD	3178490	wordpools/wasnorm_wordpool_576.txt	LTP336	ltpFR2	9	7	PRINCESS	1125	n/a	n/a	0	0	0
1553.39892578125	n/a	REC_WORD	3181361	wordpools/wasnorm_wordpool_576.txt	LTP336	ltpFR2	9	7	CORAL	378	n/a	n/a	0	0	0
1566.52783203125	n/a	REC_WORD	3208249	wordpools/wasnorm_wordpool_576.txt	LTP336	ltpFR2	9	7	BRAKE	166	n/a	n/a	0	0	0
1572.03564453125	n/a	REC_WORD_VV	3219529	wordpools/wasnorm_wordpool_576.txt	LTP336	ltpFR2	9	7	<>	-1	n/a	n/a	0	0	0
1582.68115234375	n/a	REC_WORD_VV	3241331	wordpools/wasnorm_wordpool_576.txt	LTP336	ltpFR2	9	7	<>	-1	n/a	n/a	0	0	0
1586.64208984375	n/a	REC_WORD_VV	3249443	wordpools/wasnorm_wordpool_576.txt	LTP336	ltpFR2	9	7	<>	-1	n/a	n/a	0	0	0
1639.4228515625	n/a	WORD	3357538	wordpools/wasnorm_wordpool_576.txt	LTP336	ltpFR2	9	8	SCALLOP	1242	n/a	n/a	0	0	0
1641.8544921875	n/a	WORD	3362518	wordpools/wasnorm_wordpool_576.txt	LTP336	ltpFR2	9	8	HAWK	692	n/a	n/a	0	0	0
1644.53662109375	n/a	WORD	3368011	wordpools/wasnorm_wordpool_576.txt	LTP336	ltpFR2	9	8	KIDNEY	776	n/a	n/a	0	0	0
1647.28662109375	n/a	WORD	3373643	wordpools/wasnorm_wordpool_576.txt	LTP336	ltpFR2	9	8	TWIG	1527	n/a	n/a	0	0	0
1649.767578125	n/a	WORD	3378724	wordpools/wasnorm_wordpool_576.txt	LTP336	ltpFR2	9	8	PARROT	1015	n/a	n/a	0	0	0
1652.25048828125	n/a	WORD	3383809	wordpools/wasnorm_wordpool_576.txt	LTP336	ltpFR2	9	8	PIGEON	1065	n/a	n/a	0	0	0
1655.06640625	n/a	WORD	3389576	wordpools/wasnorm_wordpool_576.txt	LTP336	ltpFR2	9	8	NEUTRON	947	n/a	n/a	0	0	0
1657.71337890625	n/a	WORD	3394997	wordpools/wasnorm_wordpool_576.txt	LTP336	ltpFR2	9	8	FRUIT	610	n/a	n/a	0	0	0
1660.529296875	n/a	WORD	3400764	wordpools/wasnorm_wordpool_576.txt	LTP336	ltpFR2	9	8	SPOON	1357	n/a	n/a	0	0	0
1663.1123046875	n/a	WORD	3406054	wordpools/wasnorm_wordpool_576.txt	LTP336	ltpFR2	9	8	SMOG	1330	n/a	n/a	0	0	0
1665.64306640625	n/a	WORD	3411237	wordpools/wasnorm_wordpool_576.txt	LTP336	ltpFR2	9	8	COTTAGE	384	n/a	n/a	0	0	0
1668.326171875	n/a	WORD	3416732	wordpools/wasnorm_wordpool_576.txt	LTP336	ltpFR2	9	8	SHELTER	1282	n/a	n/a	0	0	0
1671.10791015625	n/a	WORD	3422429	wordpools/wasnorm_wordpool_576.txt	LTP336	ltpFR2	9	8	FOREHEAD	592	n/a	n/a	0	0	0
1673.8896484375	n/a	WORD	3428126	wordpools/wasnorm_wordpool_576.txt	LTP336	ltpFR2	9	8	CHEST	295	n/a	n/a	0	0	0
1676.53759765625	n/a	WORD	3433549	wordpools/wasnorm_wordpool_576.txt	LTP336	ltpFR2	9	8	SEAFOOD	1260	n/a	n/a	0	0	0
1679.2548828125	n/a	WORD	3439114	wordpools/wasnorm_wordpool_576.txt	LTP336	ltpFR2	9	8	TRANSPLANT	1496	n/a	n/a	0	0	0
1681.91943359375	n/a	WORD	3444571	wordpools/wasnorm_wordpool_576.txt	LTP336	ltpFR2	9	8	TROUT	1511	n/a	n/a	0	0	0
1684.3505859375	n/a	WORD	3449550	wordpools/wasnorm_wordpool_576.txt	LTP336	ltpFR2	9	8	JEANS	752	n/a	n/a	0	0	0
1686.849609375	n/a	WORD	3454668	wordpools/wasnorm_wordpool_576.txt	LTP336	ltpFR2	9	8	BUBBLE	183	n/a	n/a	0	0	0
1689.5986328125	n/a	WORD	3460298	wordpools/wasnorm_wordpool_576.txt	LTP336	ltpFR2	9	8	WRENCH	1625	n/a	n/a	0	0	0
1692.09814453125	n/a	WORD	3465417	wordpools/wasnorm_wordpool_576.txt	LTP336	ltpFR2	9	8	REPORT	1184	n/a	n/a	0	0	0
1694.76220703125	n/a	WORD	3470873	wordpools/wasnorm_wordpool_576.txt	LTP336	ltpFR2	9	8	FILM	565	n/a	n/a	0	0	0
1697.4111328125	n/a	WORD	3476298	wordpools/wasnorm_wordpool_576.txt	LTP336	ltpFR2	9	8	SHARK	1275	n/a	n/a	0	0	0
1700.0439453125	n/a	WORD	3481690	wordpools/wasnorm_wordpool_576.txt	LTP336	ltpFR2	9	8	ZIPPER	1636	n/a	n/a	0	0	0
1701.6591796875	n/a	START	3484998	n/a	LTP336	ltpFR2	9	n/a	n/a	n/a	12	n/a	n/a	n/a	n/a
1702.64794921875	n/a	DISTRACTOR	3487023	n/a	LTP336	ltpFR2	9	8	n/a	n/a	n/a	n/a	0	0	0
1702.6591796875	n/a	PROB	3487046	n/a	LTP336	ltpFR2	9	n/a	n/a	n/a	12	12	8	1	3
1704.4912109375	n/a	PROB	3490798	n/a	LTP336	ltpFR2	9	n/a	n/a	n/a	12	20	9	8	3
1707.0078125	n/a	PROB	3495952	n/a	LTP336	ltpFR2	9	n/a	n/a	n/a	12	13	5	5	3
1708.3408203125	n/a	PROB	3498682	n/a	LTP336	ltpFR2	9	n/a	n/a	n/a	12	17	8	7	2
1711.138671875	n/a	PROB	3504412	n/a	LTP336	ltpFR2	9	n/a	n/a	n/a	12	24	9	6	9
1713.353515625	n/a	PROB	3508948	n/a	LTP336	ltpFR2	9	n/a	n/a	n/a	12	15	7	3	5
1715.28662109375	n/a	PROB	3512907	n/a	LTP336	ltpFR2	9	n/a	n/a	n/a	12	20	2	9	9
1716.73583984375	n/a	PROB	3515875	n/a	LTP336	ltpFR2	9	n/a	n/a	n/a	12	16	7	2	7
1718.6513671875	n/a	PROB	3519798	n/a	LTP336	ltpFR2	9	n/a	n/a	n/a	12	10	5	2	3
1720.36669921875	n/a	PROB	3523311	n/a	LTP336	ltpFR2	9	n/a	n/a	n/a	12	21	7	8	6
1725.658203125	n/a	STOP	3534148	n/a	LTP336	ltpFR2	9	n/a	n/a	n/a	12	n/a	n/a	n/a	n/a
1727.58154296875	n/a	REC_START	3538087	n/a	LTP336	ltpFR2	9	8	n/a	n/a	n/a	n/a	0	0	0
1728.65234375	n/a	REC_WORD	3540280	wordpools/wasnorm_wordpool_576.txt	LTP336	ltpFR2	9	8	JEANS	752	n/a	n/a	0	0	0
1729.5693359375	n/a	REC_WORD_VV	3542158	wordpools/wasnorm_wordpool_576.txt	LTP336	ltpFR2	9	8	<>	-1	n/a	n/a	0	0	0
1730.29638671875	n/a	REC_WORD	3543647	wordpools/wasnorm_wordpool_576.txt	LTP336	ltpFR2	9	8	BUBBLE	183	n/a	n/a	0	0	0
1731.2900390625	n/a	REC_WORD	3545682	wordpools/wasnorm_wordpool_576.txt	LTP336	ltpFR2	9	8	SHARK	1275	n/a	n/a	0	0	0
1732.791015625	n/a	REC_WORD	3548756	wordpools/wasnorm_wordpool_576.txt	LTP336	ltpFR2	9	8	TWIG	1527	n/a	n/a	0	0	0
1734.06005859375	n/a	REC_WORD	3551355	wordpools/wasnorm_wordpool_576.txt	LTP336	ltpFR2	9	8	WRENCH	1625	n/a	n/a	0	0	0
1735.236328125	n/a	REC_WORD	3553764	wordpools/wasnorm_wordpool_576.txt	LTP336	ltpFR2	9	8	FILM	565	n/a	n/a	0	0	0
1736.75	n/a	REC_WORD	3556864	wordpools/wasnorm_wordpool_576.txt	LTP336	ltpFR2	9	8	REPORT	1184	n/a	n/a	0	0	0
1738.14501953125	n/a	REC_WORD	3559721	wordpools/wasnorm_wordpool_576.txt	LTP336	ltpFR2	9	8	TRANSPLANT	1496	n/a	n/a	0	0	0
1739.89013671875	n/a	REC_WORD	3563295	wordpools/wasnorm_wordpool_576.txt	LTP336	ltpFR2	9	8	TROUT	1511	n/a	n/a	0	0	0
1740.98486328125	n/a	REC_WORD	3565537	wordpools/wasnorm_wordpool_576.txt	LTP336	ltpFR2	9	8	SCALLOP	1242	n/a	n/a	0	0	0
1742.3408203125	n/a	REC_WORD	3568314	wordpools/wasnorm_wordpool_576.txt	LTP336	ltpFR2	9	8	SEAFOOD	1260	n/a	n/a	0	0	0
1748.255859375	n/a	REC_WORD	3580428	wordpools/wasnorm_wordpool_576.txt	LTP336	ltpFR2	9	8	PARROT	1015	n/a	n/a	0	0	0
1804.111328125	n/a	REST_REWET	3694820	n/a	LTP336	ltpFR2	9	8	n/a	n/a	n/a	n/a	0	0	0
1924.65185546875	n/a	WORD	3941687	wordpools/wasnorm_wordpool_576.txt	LTP336	ltpFR2	9	9	MARSH	874	n/a	n/a	0	0	0
1927.35107421875	n/a	WORD	3947215	wordpools/wasnorm_wordpool_576.txt	LTP336	ltpFR2	9	9	HEDGE	699	n/a	n/a	0	0	0
1930.1669921875	n/a	WORD	3952982	wordpools/wasnorm_wordpool_576.txt	LTP336	ltpFR2	9	9	VAGRANT	1544	n/a	n/a	0	0	0
1932.64892578125	n/a	WORD	3958065	wordpools/wasnorm_wordpool_576.txt	LTP336	ltpFR2	9	9	ROBBER	1197	n/a	n/a	0	0	0
1935.2646484375	n/a	WORD	3963422	wordpools/wasnorm_wordpool_576.txt	LTP336	ltpFR2	9	9	SCALPEL	1243	n/a	n/a	0	0	0
1937.71240234375	n/a	WORD	3968435	wordpools/wasnorm_wordpool_576.txt	LTP336	ltpFR2	9	9	NURSE	963	n/a	n/a	0	0	0
1940.46142578125	n/a	WORD	3974065	wordpools/wasnorm_wordpool_576.txt	LTP336	ltpFR2	9	9	BRANCH	168	n/a	n/a	0	0	0
1943.16162109375	n/a	WORD	3979595	wordpools/wasnorm_wordpool_576.txt	LTP336	ltpFR2	9	9	ROD	1203	n/a	n/a	0	0	0
1945.9091796875	n/a	WORD	3985222	wordpools/wasnorm_wordpool_576.txt	LTP336	ltpFR2	9	9	LASER	801	n/a	n/a	0	0	0
1948.34130859375	n/a	WORD	3990203	wordpools/wasnorm_wordpool_576.txt	LTP336	ltpFR2	9	9	FLASHLIGHT	575	n/a	n/a	0	0	0
1950.92431640625	n/a	WORD	3995493	wordpools/wasnorm_wordpool_576.txt	LTP336	ltpFR2	9	9	LAKE	796	n/a	n/a	0	0	0
1953.43798828125	n/a	WORD	4000641	wordpools/wasnorm_wordpool_576.txt	LTP336	ltpFR2	9	9	SCRIBBLE	1256	n/a	n/a	0	0	0
1955.88818359375	n/a	WORD	4005659	wordpools/wasnorm_wordpool_576.txt	LTP336	ltpFR2	9	9	FINGER	567	n/a	n/a	0	0	0
1958.40283203125	n/a	WORD	4010809	wordpools/wasnorm_wordpool_576.txt	LTP336	ltpFR2	9	9	COLONEL	348	n/a	n/a	0	0	0
1960.9189453125	n/a	WORD	4015962	wordpools/wasnorm_wordpool_576.txt	LTP336	ltpFR2	9	9	MARINE	869	n/a	n/a	0	0	0
1963.53369140625	n/a	WORD	4021317	wordpools/wasnorm_wordpool_576.txt	LTP336	ltpFR2	9	9	ROBOT	1200	n/a	n/a	0	0	0
1966.28271484375	n/a	WORD	4026947	wordpools/wasnorm_wordpool_576.txt	LTP336	ltpFR2	9	9	RECORD	1176	n/a	n/a	0	0	0
1968.83056640625	n/a	WORD	4032165	wordpools/wasnorm_wordpool_576.txt	LTP336	ltpFR2	9	9	WRIST	1626	n/a	n/a	0	0	0
1971.5966796875	n/a	WORD	4037830	wordpools/wasnorm_wordpool_576.txt	LTP336	ltpFR2	9	9	STAR	1373	n/a	n/a	0	0	0
1974.0625	n/a	WORD	4042880	wordpools/wasnorm_wordpool_576.txt	LTP336	ltpFR2	9	9	DANCER	437	n/a	n/a	0	0	0
1976.52734375	n/a	WORD	4047928	wordpools/wasnorm_wordpool_576.txt	LTP336	ltpFR2	9	9	BUREAU	199	n/a	n/a	0	0	0
1979.02734375	n/a	WORD	4053048	wordpools/wasnorm_wordpool_576.txt	LTP336	ltpFR2	9	9	COMET	353	n/a	n/a	0	0	0
1981.4912109375	n/a	WORD	4058094	wordpools/wasnorm_wordpool_576.txt	LTP336	ltpFR2	9	9	GARDEN	623	n/a	n/a	0	0	0
1983.94140625	n/a	WORD	4063112	wordpools/wasnorm_wordpool_576.txt	LTP336	ltpFR2	9	9	SLIME	1327	n/a	n/a	0	0	0
1985.55615234375	n/a	START	4066419	n/a	LTP336	ltpFR2	9	n/a	n/a	n/a	13	n/a	n/a	n/a	n/a
1986.64013671875	n/a	DISTRACTOR	4068639	n/a	LTP336	ltpFR2	9	9	n/a	n/a	n/a	n/a	0	0	0
1986.6552734375	n/a	PROB	4068670	n/a	LTP336	ltpFR2	9	n/a	n/a	n/a	13	16	6	7	3
1989.5380859375	n/a	PROB	4074574	n/a	LTP336	ltpFR2	9	n/a	n/a	n/a	13	24	9	6	9
1991.419921875	n/a	PROB	4078428	n/a	LTP336	ltpFR2	9	n/a	n/a	n/a	13	11	8	1	2
1993.93701171875	n/a	PROB	4083583	n/a	LTP336	ltpFR2	9	n/a	n/a	n/a	13	19	2	9	8
1996.21875	n/a	PROB	4088256	n/a	LTP336	ltpFR2	9	n/a	n/a	n/a	13	8	1	5	2
1998.5498046875	n/a	PROB	4093030	n/a	LTP336	ltpFR2	9	n/a	n/a	n/a	13	13	1	6	6
2000.25	n/a	PROB	4096512	n/a	LTP336	ltpFR2	9	n/a	n/a	n/a	13	11	4	5	2
2002.06591796875	n/a	PROB	4100231	n/a	LTP336	ltpFR2	9	n/a	n/a	n/a	13	17	7	6	4
2004.66357421875	n/a	PROB	4105551	n/a	LTP336	ltpFR2	9	n/a	n/a	n/a	13	12	4	5	3
2006.8466796875	n/a	PROB	4110022	n/a	LTP336	ltpFR2	9	n/a	n/a	n/a	13	21	8	5	8
2009.0166015625	n/a	STOP	4114466	n/a	LTP336	ltpFR2	9	n/a	n/a	n/a	13	n/a	n/a	n/a	n/a
2011.32861328125	n/a	REC_START	4119201	n/a	LTP336	ltpFR2	9	9	n/a	n/a	n/a	n/a	0	0	0
2012.29833984375	n/a	REC_WORD	4121187	wordpools/wasnorm_wordpool_576.txt	LTP336	ltpFR2	9	9	SLIME	1327	n/a	n/a	0	0	0
2013.48828125	n/a	REC_WORD	4123624	wordpools/wasnorm_wordpool_576.txt	LTP336	ltpFR2	9	9	ROBOT	1200	n/a	n/a	0	0	0
2014.71240234375	n/a	REC_WORD	4126131	wordpools/wasnorm_wordpool_576.txt	LTP336	ltpFR2	9	9	COLONEL	348	n/a	n/a	0	0	0
2015.63623046875	n/a	REC_WORD	4128023	wordpools/wasnorm_wordpool_576.txt	LTP336	ltpFR2	9	9	MARINE	869	n/a	n/a	0	0	0
2016.8125	n/a	REC_WORD	4130432	wordpools/wasnorm_wordpool_576.txt	LTP336	ltpFR2	9	9	NURSE	963	n/a	n/a	0	0	0
2017.79736328125	n/a	REC_WORD	4132449	wordpools/wasnorm_wordpool_576.txt	LTP336	ltpFR2	9	9	SCALPEL	1243	n/a	n/a	0	0	0
2019.15625	n/a	REC_WORD	4135232	wordpools/wasnorm_wordpool_576.txt	LTP336	ltpFR2	9	9	VAGRANT	1544	n/a	n/a	0	0	0
2020.41455078125	n/a	REC_WORD	4137809	wordpools/wasnorm_wordpool_576.txt	LTP336	ltpFR2	9	9	COLONEL	348	n/a	n/a	0	0	0
2022.00244140625	n/a	REC_WORD	4141061	wordpools/wasnorm_wordpool_576.txt	LTP336	ltpFR2	9	9	WRIST	1626	n/a	n/a	0	0	0
2028.44921875	n/a	REC_WORD	4154264	wordpools/wasnorm_wordpool_576.txt	LTP336	ltpFR2	9	9	RECORD	1176	n/a	n/a	0	0	0
2031.14013671875	n/a	REC_WORD	4159775	wordpools/wasnorm_wordpool_576.txt	LTP336	ltpFR2	9	9	LAKE	796	n/a	n/a	0	0	0
2047.6943359375	n/a	REC_WORD_VV	4193678	wordpools/wasnorm_wordpool_576.txt	LTP336	ltpFR2	9	9	<>	-1	n/a	n/a	0	0	0
2101.76708984375	n/a	WORD	4304419	wordpools/wasnorm_wordpool_576.txt	LTP336	ltpFR2	9	10	PORK	1108	n/a	n/a	0	0	0
2104.25	n/a	WORD	4309504	wordpools/wasnorm_wordpool_576.txt	LTP336	ltpFR2	9	10	BIKE	125	n/a	n/a	0	0	0
2106.93212890625	n/a	WORD	4314997	wordpools/wasnorm_wordpool_576.txt	LTP336	ltpFR2	9	10	MUFFIN	929	n/a	n/a	0	0	0
2109.7138671875	n/a	WORD	4320694	wordpools/wasnorm_wordpool_576.txt	LTP336	ltpFR2	9	10	LUMBER	848	n/a	n/a	0	0	0
2112.2626953125	n/a	WORD	4325914	wordpools/wasnorm_wordpool_576.txt	LTP336	ltpFR2	9	10	GRILL	661	n/a	n/a	0	0	0
2114.86181640625	n/a	WORD	4331237	wordpools/wasnorm_wordpool_576.txt	LTP336	ltpFR2	9	10	MISTER	901	n/a	n/a	0	0	0
2117.4267578125	n/a	WORD	4336490	wordpools/wasnorm_wordpool_576.txt	LTP336	ltpFR2	9	10	CITRUS	313	n/a	n/a	0	0	0
2120.17578125	n/a	WORD	4342120	wordpools/wasnorm_wordpool_576.txt	LTP336	ltpFR2	9	10	RABBIT	1152	n/a	n/a	0	0	0
2122.640625	n/a	WORD	4347168	wordpools/wasnorm_wordpool_576.txt	LTP336	ltpFR2	9	10	HELMET	702	n/a	n/a	0	0	0
2125.3076171875	n/a	WORD	4352630	wordpools/wasnorm_wordpool_576.txt	LTP336	ltpFR2	9	10	LEADER	807	n/a	n/a	0	0	0
2127.78857421875	n/a	WORD	4357711	wordpools/wasnorm_wordpool_576.txt	LTP336	ltpFR2	9	10	MAPLE	866	n/a	n/a	0	0	0
2130.4365234375	n/a	WORD	4363134	wordpools/wasnorm_wordpool_576.txt	LTP336	ltpFR2	9	10	SPONGE	1355	n/a	n/a	0	0	0
2133.00341796875	n/a	WORD	4368391	wordpools/wasnorm_wordpool_576.txt	LTP336	ltpFR2	9	10	SWAMP	1416	n/a	n/a	0	0	0
2135.583984375	n/a	WORD	4373676	wordpools/wasnorm_wordpool_576.txt	LTP336	ltpFR2	9	10	PARSLEY	1016	n/a	n/a	0	0	0
2138.10107421875	n/a	WORD	4378831	wordpools/wasnorm_wordpool_576.txt	LTP336	ltpFR2	9	10	RATTLE	1170	n/a	n/a	0	0	0
2140.6650390625	n/a	WORD	4384082	wordpools/wasnorm_wordpool_576.txt	LTP336	ltpFR2	9	10	SNAKE	1333	n/a	n/a	0	0	0
2143.34716796875	n/a	WORD	4389575	wordpools/wasnorm_wordpool_576.txt	LTP336	ltpFR2	9	10	YARN	1631	n/a	n/a	0	0	0
2146.046875	n/a	WORD	4395104	wordpools/wasnorm_wordpool_576.txt	LTP336	ltpFR2	9	10	EUROPE	541	n/a	n/a	0	0	0
2148.66064453125	n/a	WORD	4400457	wordpools/wasnorm_wordpool_576.txt	LTP336	ltpFR2	9	10	HOSTESS	723	n/a	n/a	0	0	0
2151.177734375	n/a	WORD	4405612	wordpools/wasnorm_wordpool_576.txt	LTP336	ltpFR2	9	10	IDOL	733	n/a	n/a	0	0	0
2153.80859375	n/a	WORD	4411000	wordpools/wasnorm_wordpool_576.txt	LTP336	ltpFR2	9	10	COOK	372	n/a	n/a	0	0	0
2156.37451171875	n/a	WORD	4416255	wordpools/wasnorm_wordpool_576.txt	LTP336	ltpFR2	9	10	STALLION	1369	n/a	n/a	0	0	0
2158.890625	n/a	WORD	4421408	wordpools/wasnorm_wordpool_576.txt	LTP336	ltpFR2	9	10	BANJO	82	n/a	n/a	0	0	0
2161.6552734375	n/a	WORD	4427070	wordpools/wasnorm_wordpool_576.txt	LTP336	ltpFR2	9	10	WHISTLE	1606	n/a	n/a	0	0	0
2163.2724609375	n/a	START	4430382	n/a	LTP336	ltpFR2	9	n/a	n/a	n/a	14	n/a	n/a	n/a	n/a
2164.18017578125	n/a	DISTRACTOR	4432241	n/a	LTP336	ltpFR2	9	10	n/a	n/a	n/a	n/a	0	0	0
2164.1884765625	n/a	PROB	4432258	n/a	LTP336	ltpFR2	9	n/a	n/a	n/a	14	17	3	7	7
2166.736328125	n/a	PROB	4437476	n/a	LTP336	ltpFR2	9	n/a	n/a	n/a	14	18	2	9	7
2169.3681640625	n/a	PROB	4442866	n/a	LTP336	ltpFR2	9	n/a	n/a	n/a	14	17	5	6	6
2171.6669921875	n/a	PROB	4447574	n/a	LTP336	ltpFR2	9	n/a	n/a	n/a	14	19	6	9	4
2174.56591796875	n/a	PROB	4453511	n/a	LTP336	ltpFR2	9	n/a	n/a	n/a	14	15	4	5	6
2176.81396484375	n/a	PROB	4458115	n/a	LTP336	ltpFR2	9	n/a	n/a	n/a	14	17	6	3	8
2179.462890625	n/a	PROB	4463540	n/a	LTP336	ltpFR2	9	n/a	n/a	n/a	14	12	3	5	4
2181.5791015625	n/a	PROB	4467874	n/a	LTP336	ltpFR2	9	n/a	n/a	n/a	14	11	1	3	7
2183.095703125	n/a	PROB	4470980	n/a	LTP336	ltpFR2	9	n/a	n/a	n/a	14	11	5	2	4
2187.2705078125	n/a	STOP	4479530	n/a	LTP336	ltpFR2	9	n/a	n/a	n/a	14	n/a	n/a	n/a	n/a
2189.07666015625	n/a	REC_START	4483229	n/a	LTP336	ltpFR2	9	10	n/a	n/a	n/a	n/a	0	0	0
2189.11865234375	n/a	REC_WORD_VV	4483315	wordpools/wasnorm_wordpool_576.txt	LTP336	ltpFR2	9	10	<>	-1	n/a	n/a	0	0	0
2189.720703125	n/a	REC_WORD_VV	4484548	wordpools/wasnorm_wordpool_576.txt	LTP336	ltpFR2	9	10	<>	-1	n/a	n/a	0	0	0
2192.03466796875	n/a	REC_WORD	4489287	wordpools/wasnorm_wordpool_576.txt	LTP336	ltpFR2	9	10	WHISTLE	1606	n/a	n/a	0	0	0
2193.0166015625	n/a	REC_WORD	4491298	wordpools/wasnorm_wordpool_576.txt	LTP336	ltpFR2	9	10	MUFFIN	929	n/a	n/a	0	0	0
2194.30078125	n/a	REC_WORD	4493928	wordpools/wasnorm_wordpool_576.txt	LTP336	ltpFR2	9	10	RATTLE	1170	n/a	n/a	0	0	0
2195.58740234375	n/a	REC_WORD	4496563	wordpools/wasnorm_wordpool_576.txt	LTP336	ltpFR2	9	10	PORK	1108	n/a	n/a	0	0	0
2196.63134765625	n/a	REC_WORD	4498701	wordpools/wasnorm_wordpool_576.txt	LTP336	ltpFR2	9	10	MISTER	901	n/a	n/a	0	0	0
2203.1640625	n/a	REC_WORD	4512080	wordpools/wasnorm_wordpool_576.txt	LTP336	ltpFR2	9	10	STALLION	1369	n/a	n/a	0	0	0
2262.78662109375	n/a	REC_WORD_VV	4634187	wordpools/wasnorm_wordpool_576.txt	LTP336	ltpFR2	9	10	<>	-1	n/a	n/a	0	0	0
2279.51513671875	n/a	WORD	4668447	wordpools/wasnorm_wordpool_576.txt	LTP336	ltpFR2	9	11	IGLOO	734	n/a	n/a	0	0	0
2281.96533203125	n/a	WORD	4673465	wordpools/wasnorm_wordpool_576.txt	LTP336	ltpFR2	9	11	BUCKET	184	n/a	n/a	0	0	0
2284.42919921875	n/a	WORD	4678511	wordpools/wasnorm_wordpool_576.txt	LTP336	ltpFR2	9	11	DONKEY	484	n/a	n/a	0	0	0
2286.87890625	n/a	WORD	4683528	wordpools/wasnorm_wordpool_576.txt	LTP336	ltpFR2	9	11	DIVER	476	n/a	n/a	0	0	0
2289.494140625	n/a	WORD	4688884	wordpools/wasnorm_wordpool_576.txt	LTP336	ltpFR2	9	11	FIDDLE	561	n/a	n/a	0	0	0
2292.1767578125	n/a	WORD	4694378	wordpools/wasnorm_wordpool_576.txt	LTP336	ltpFR2	9	11	DENIM	446	n/a	n/a	0	0	0
2294.8916015625	n/a	WORD	4699938	wordpools/wasnorm_wordpool_576.txt	LTP336	ltpFR2	9	11	PIZZA	1079	n/a	n/a	0	0	0
2297.58984375	n/a	WORD	4705464	wordpools/wasnorm_wordpool_576.txt	LTP336	ltpFR2	9	11	HIKER	708	n/a	n/a	0	0	0
2300.1064453125	n/a	WORD	4710618	wordpools/wasnorm_wordpool_576.txt	LTP336	ltpFR2	9	11	TUBA	1515	n/a	n/a	0	0	0
2302.8544921875	n/a	WORD	4716246	wordpools/wasnorm_wordpool_576.txt	LTP336	ltpFR2	9	11	FOOTBALL	591	n/a	n/a	0	0	0
2305.51953125	n/a	WORD	4721704	wordpools/wasnorm_wordpool_576.txt	LTP336	ltpFR2	9	11	CLIMBER	323	n/a	n/a	0	0	0
2308.0693359375	n/a	WORD	4726926	wordpools/wasnorm_wordpool_576.txt	LTP336	ltpFR2	9	11	COOKBOOK	373	n/a	n/a	0	0	0
2310.7333984375	n/a	WORD	4732382	wordpools/wasnorm_wordpool_576.txt	LTP336	ltpFR2	9	11	SHORTCAKE	1292	n/a	n/a	0	0	0
2313.4150390625	n/a	WORD	4737874	wordpools/wasnorm_wordpool_576.txt	LTP336	ltpFR2	9	11	UMPIRE	1535	n/a	n/a	0	0	0
2316.0654296875	n/a	WORD	4743302	wordpools/wasnorm_wordpool_576.txt	LTP336	ltpFR2	9	11	BUG	187	n/a	n/a	0	0	0
2318.72998046875	n/a	WORD	4748759	wordpools/wasnorm_wordpool_576.txt	LTP336	ltpFR2	9	11	DUST	508	n/a	n/a	0	0	0
2321.31298828125	n/a	WORD	4754049	wordpools/wasnorm_wordpool_576.txt	LTP336	ltpFR2	9	11	FRIEND	606	n/a	n/a	0	0	0
2323.744140625	n/a	WORD	4759028	wordpools/wasnorm_wordpool_576.txt	LTP336	ltpFR2	9	11	LOVER	846	n/a	n/a	0	0	0
2326.22705078125	n/a	WORD	4764113	wordpools/wasnorm_wordpool_576.txt	LTP336	ltpFR2	9	11	COBRA	336	n/a	n/a	0	0	0
2328.7578125	n/a	WORD	4769296	wordpools/wasnorm_wordpool_576.txt	LTP336	ltpFR2	9	11	CATTLE	261	n/a	n/a	0	0	0
2331.390625	n/a	WORD	4774688	wordpools/wasnorm_wordpool_576.txt	LTP336	ltpFR2	9	11	HUMAN	726	n/a	n/a	0	0	0
2334.12353515625	n/a	WORD	4780285	wordpools/wasnorm_wordpool_576.txt	LTP336	ltpFR2	9	11	TYPIST	1532	n/a	n/a	0	0	0
2336.8046875	n/a	WORD	4785776	wordpools/wasnorm_wordpool_576.txt	LTP336	ltpFR2	9	11	WORKER	1621	n/a	n/a	0	0	0
2339.33642578125	n/a	WORD	4790961	wordpools/wasnorm_wordpool_576.txt	LTP336	ltpFR2	9	11	MAILBOX	857	n/a	n/a	0	0	0
2340.95361328125	n/a	START	4794273	n/a	LTP336	ltpFR2	9	n/a	n/a	n/a	15	n/a	n/a	n/a	n/a
2341.78564453125	n/a	DISTRACTOR	4795977	n/a	LTP336	ltpFR2	9	11	n/a	n/a	n/a	n/a	0	0	0
2341.80126953125	n/a	PROB	4796009	n/a	LTP336	ltpFR2	9	n/a	n/a	n/a	15	22	4	9	9
2344.68359375	n/a	PROB	4801912	n/a	LTP336	ltpFR2	9	n/a	n/a	n/a	15	19	8	7	4
2347.54931640625	n/a	PROB	4807781	n/a	LTP336	ltpFR2	9	n/a	n/a	n/a	15	16	8	7	1
2349.78125	n/a	PROB	4812352	n/a	LTP336	ltpFR2	9	n/a	n/a	n/a	15	21	8	4	9
2354.9130859375	n/a	PROB	4822862	n/a	LTP336	ltpFR2	9	n/a	n/a	n/a	15	19	8	4	7
2358.4111328125	n/a	PROB	4830026	n/a	LTP336	ltpFR2	9	n/a	n/a	n/a	15	17	7	7	3
2360.2109375	n/a	PROB	4833712	n/a	LTP336	ltpFR2	9	n/a	n/a	n/a	15	8	1	1	6
2361.5419921875	n/a	PROB	4836438	n/a	LTP336	ltpFR2	9	n/a	n/a	n/a	15	16	6	9	1
2364.95166015625	n/a	STOP	4843421	n/a	LTP336	ltpFR2	9	n/a	n/a	n/a	15	n/a	n/a	n/a	n/a
2366.90771484375	n/a	REC_START	4847427	n/a	LTP336	ltpFR2	9	11	n/a	n/a	n/a	n/a	0	0	0
2367.69873046875	n/a	REC_WORD	4849047	wordpools/wasnorm_wordpool_576.txt	LTP336	ltpFR2	9	11	CATTLE	261	n/a	n/a	0	0	0
2368.5517578125	n/a	REC_WORD_VV	4850794	wordpools/wasnorm_wordpool_576.txt	LTP336	ltpFR2	9	11	<>	-1	n/a	n/a	0	0	0
2369.12158203125	n/a	REC_WORD	4851961	wordpools/wasnorm_wordpool_576.txt	LTP336	ltpFR2	9	11	HUMAN	726	n/a	n/a	0	0	0
2371.28955078125	n/a	REC_WORD	4856401	wordpools/wasnorm_wordpool_576.txt	LTP336	ltpFR2	9	11	TYPIST	1532	n/a	n/a	0	0	0
2373.15869140625	n/a	REC_WORD	4860229	wordpools/wasnorm_wordpool_576.txt	LTP336	ltpFR2	9	11	WORKER	1621	n/a	n/a	0	0	0
2375.2578125	n/a	REC_WORD	4864528	wordpools/wasnorm_wordpool_576.txt	LTP336	ltpFR2	9	11	TWITTER	-1	n/a	n/a	0	0	0
2457.36328125	n/a	WORD	5032680	wordpools/wasnorm_wordpool_576.txt	LTP336	ltpFR2	9	12	POISON	1096	n/a	n/a	0	0	0
2459.96337890625	n/a	WORD	5038005	wordpools/wasnorm_wordpool_576.txt	LTP336	ltpFR2	9	12	DRIVER	499	n/a	n/a	0	0	0
2462.77734375	n/a	WORD	5043768	wordpools/wasnorm_wordpool_576.txt	LTP336	ltpFR2	9	12	FRAGRANCE	599	n/a	n/a	0	0	0
2465.5419921875	n/a	WORD	5049430	wordpools/wasnorm_wordpool_576.txt	LTP336	ltpFR2	9	12	FOX	598	n/a	n/a	0	0	0
2468.27587890625	n/a	WORD	5055029	wordpools/wasnorm_wordpool_576.txt	LTP336	ltpFR2	9	12	GRAVE	658	n/a	n/a	0	0	0
2470.8408203125	n/a	WORD	5060282	wordpools/wasnorm_wordpool_576.txt	LTP336	ltpFR2	9	12	RADISH	1158	n/a	n/a	0	0	0
2473.6220703125	n/a	WORD	5065978	wordpools/wasnorm_wordpool_576.txt	LTP336	ltpFR2	9	12	HERO	706	n/a	n/a	0	0	0
2476.32177734375	n/a	WORD	5071507	wordpools/wasnorm_wordpool_576.txt	LTP336	ltpFR2	9	12	FLAG	573	n/a	n/a	0	0	0
2479.103515625	n/a	WORD	5077204	wordpools/wasnorm_wordpool_576.txt	LTP336	ltpFR2	9	12	ORANGE	980	n/a	n/a	0	0	0
2481.66845703125	n/a	WORD	5082457	wordpools/wasnorm_wordpool_576.txt	LTP336	ltpFR2	9	12	NOMAD	955	n/a	n/a	0	0	0
2484.25146484375	n/a	WORD	5087747	wordpools/wasnorm_wordpool_576.txt	LTP336	ltpFR2	9	12	CASKET	255	n/a	n/a	0	0	0
2486.69970703125	n/a	WORD	5092761	wordpools/wasnorm_wordpool_576.txt	LTP336	ltpFR2	9	12	TOMBSTONE	1478	n/a	n/a	0	0	0
2489.38134765625	n/a	WORD	5098253	wordpools/wasnorm_wordpool_576.txt	LTP336	ltpFR2	9	12	FIREPLACE	570	n/a	n/a	0	0	0
2491.8134765625	n/a	WORD	5103234	wordpools/wasnorm_wordpool_576.txt	LTP336	ltpFR2	9	12	HONEY	713	n/a	n/a	0	0	0
2494.412109375	n/a	WORD	5108556	wordpools/wasnorm_wordpool_576.txt	LTP336	ltpFR2	9	12	HIGHWAY	707	n/a	n/a	0	0	0
2496.9453125	n/a	WORD	5113744	wordpools/wasnorm_wordpool_576.txt	LTP336	ltpFR2	9	12	CRICKET	408	n/a	n/a	0	0	0
2499.443359375	n/a	WORD	5118860	wordpools/wasnorm_wordpool_576.txt	LTP336	ltpFR2	9	12	NOTEBOOK	959	n/a	n/a	0	0	0
2501.8759765625	n/a	WORD	5123842	wordpools/wasnorm_wordpool_576.txt	LTP336	ltpFR2	9	12	LILY	821	n/a	n/a	0	0	0
2504.490234375	n/a	WORD	5129196	wordpools/wasnorm_wordpool_576.txt	LTP336	ltpFR2	9	12	SILK	1307	n/a	n/a	0	0	0
2507.18994140625	n/a	WORD	5134725	wordpools/wasnorm_wordpool_576.txt	LTP336	ltpFR2	9	12	VELVET	1555	n/a	n/a	0	0	0
2509.921875	n/a	WORD	5140320	wordpools/wasnorm_wordpool_576.txt	LTP336	ltpFR2	9	12	ARM	38	n/a	n/a	0	0	0
2512.70263671875	n/a	WORD	5146015	wordpools/wasnorm_wordpool_576.txt	LTP336	ltpFR2	9	12	ANKLE	24	n/a	n/a	0	0	0
2515.31982421875	n/a	WORD	5151375	wordpools/wasnorm_wordpool_576.txt	LTP336	ltpFR2	9	12	KNAPSACK	783	n/a	n/a	0	0	0
2517.78466796875	n/a	WORD	5156423	wordpools/wasnorm_wordpool_576.txt	LTP336	ltpFR2	9	12	STAKE	1368	n/a	n/a	0	0	0
2519.400390625	n/a	START	5159732	n/a	LTP336	ltpFR2	9	n/a	n/a	n/a	16	n/a	n/a	n/a	n/a
2520.3525390625	n/a	DISTRACTOR	5161682	n/a	LTP336	ltpFR2	9	12	n/a	n/a	n/a	n/a	0	0	0
2520.36669921875	n/a	PROB	5161711	n/a	LTP336	ltpFR2	9	n/a	n/a	n/a	16	12	4	2	6
2523.4814453125	n/a	PROB	5168090	n/a	LTP336	ltpFR2	9	n/a	n/a	n/a	16	14	5	6	3
2525.88134765625	n/a	PROB	5173005	n/a	LTP336	ltpFR2	9	n/a	n/a	n/a	16	19	7	8	4
2528.146484375	n/a	PROB	5177644	n/a	LTP336	ltpFR2	9	n/a	n/a	n/a	16	5	3	1	1
2529.4453125	n/a	PROB	5180304	n/a	LTP336	ltpFR2	9	n/a	n/a	n/a	16	20	7	9	4
2531.59423828125	n/a	PROB	5184705	n/a	LTP336	ltpFR2	9	n/a	n/a	n/a	16	12	1	3	8
2533.1611328125	n/a	PROB	5187914	n/a	LTP336	ltpFR2	9	n/a	n/a	n/a	16	12	1	4	7
2534.75927734375	n/a	PROB	5191187	n/a	LTP336	ltpFR2	9	n/a	n/a	n/a	16	20	7	4	9
2537.77392578125	n/a	PROB	5197361	n/a	LTP336	ltpFR2	9	n/a	n/a	n/a	16	24	6	9	9
2539.77392578125	n/a	PROB	5201457	n/a	LTP336	ltpFR2	9	n/a	n/a	n/a	16	21	7	5	9
2542.337890625	n/a	STOP	5206708	n/a	LTP336	ltpFR2	9	n/a	n/a	n/a	16	n/a	n/a	n/a	n/a
2545.2060546875	n/a	REC_START	5212582	n/a	LTP336	ltpFR2	9	12	n/a	n/a	n/a	n/a	0	0	0
2546.3857421875	n/a	REC_WORD	5214998	wordpools/wasnorm_wordpool_576.txt	LTP336	ltpFR2	9	12	TOMBSTONE	1478	n/a	n/a	0	0	0
2547.61865234375	n/a	REC_WORD	5217523	wordpools/wasnorm_wordpool_576.txt	LTP336	ltpFR2	9	12	POISON	1096	n/a	n/a	0	0	0
2549.28076171875	n/a	REC_WORD_VV	5220927	wordpools/wasnorm_wordpool_576.txt	LTP336	ltpFR2	9	12	<>	-1	n/a	n/a	0	0	0
2549.9658203125	n/a	REC_WORD	5222330	wordpools/wasnorm_wordpool_576.txt	LTP336	ltpFR2	9	12	ORANGE	980	n/a	n/a	0	0	0
2550.93896484375	n/a	REC_WORD	5224323	wordpools/wasnorm_wordpool_576.txt	LTP336	ltpFR2	9	12	NOMAD	955	n/a	n/a	0	0	0
2552.212890625	n/a	REC_WORD	5226932	wordpools/wasnorm_wordpool_576.txt	LTP336	ltpFR2	9	12	FIREPLACE	570	n/a	n/a	0	0	0
2553.212890625	n/a	REC_WORD_VV	5228980	wordpools/wasnorm_wordpool_576.txt	LTP336	ltpFR2	9	12	<>	-1	n/a	n/a	0	0	0
2606.34130859375	n/a	REC_WORD_VV	5337787	wordpools/wasnorm_wordpool_576.txt	LTP336	ltpFR2	9	12	<>	-1	n/a	n/a	0	0	0
2635.64453125	n/a	DISTRACTOR	5397800	n/a	LTP336	ltpFR2	9	13	n/a	n/a	n/a	n/a	0	0	0
2635.64453125	n/a	START	5397800	n/a	LTP336	ltpFR2	9	n/a	n/a	n/a	17	n/a	n/a	n/a	n/a
2635.66162109375	n/a	PROB	5397835	n/a	LTP336	ltpFR2	9	n/a	n/a	n/a	17	19	7	6	6
2638.0771484375	n/a	PROB	5402782	n/a	LTP336	ltpFR2	9	n/a	n/a	n/a	17	14	4	2	8
2640.34228515625	n/a	PROB	5407421	n/a	LTP336	ltpFR2	9	n/a	n/a	n/a	17	13	5	4	4
2643.8583984375	n/a	PROB	5414622	n/a	LTP336	ltpFR2	9	n/a	n/a	n/a	17	11	2	5	4
2645.80615234375	n/a	PROB	5418611	n/a	LTP336	ltpFR2	9	n/a	n/a	n/a	17	6	3	1	2
2647.6220703125	n/a	PROB	5422330	n/a	LTP336	ltpFR2	9	n/a	n/a	n/a	17	20	4	8	8
2649.18896484375	n/a	PROB	5425539	n/a	LTP336	ltpFR2	9	n/a	n/a	n/a	17	14	2	6	6
2650.93798828125	n/a	PROB	5429121	n/a	LTP336	ltpFR2	9	n/a	n/a	n/a	17	23	6	8	9
2654.4521484375	n/a	PROB	5436318	n/a	LTP336	ltpFR2	9	n/a	n/a	n/a	17	13	6	5	2
2656.26904296875	n/a	PROB	5440039	n/a	LTP336	ltpFR2	9	n/a	n/a	n/a	17	14	2	5	7
2659.642578125	n/a	STOP	5446948	n/a	LTP336	ltpFR2	9	n/a	n/a	n/a	17	n/a	n/a	n/a	n/a
2660.53271484375	n/a	WORD	5448771	wordpools/wasnorm_wordpool_576.txt	LTP336	ltpFR2	9	13	APPLE	33	n/a	n/a	0	0	0
2663.11572265625	n/a	WORD	5454061	wordpools/wasnorm_wordpool_576.txt	LTP336	ltpFR2	9	13	HOOK	715	n/a	n/a	0	0	0
2665.57958984375	n/a	WORD	5459107	wordpools/wasnorm_wordpool_576.txt	LTP336	ltpFR2	9	13	ANTLER	29	n/a	n/a	0	0	0
2668.07958984375	n/a	WORD	5464227	wordpools/wasnorm_wordpool_576.txt	LTP336	ltpFR2	9	13	PEACH	1031	n/a	n/a	0	0	0
2670.845703125	n/a	WORD	5469892	wordpools/wasnorm_wordpool_576.txt	LTP336	ltpFR2	9	13	TORTOISE	1486	n/a	n/a	0	0	0
2673.4921875	n/a	WORD	5475312	wordpools/wasnorm_wordpool_576.txt	LTP336	ltpFR2	9	13	CROWN	415	n/a	n/a	0	0	0
2676.2421875	n/a	WORD	5480944	wordpools/wasnorm_wordpool_576.txt	LTP336	ltpFR2	9	13	MAMMAL	861	n/a	n/a	0	0	0
2678.95849609375	n/a	WORD	5486507	wordpools/wasnorm_wordpool_576.txt	LTP336	ltpFR2	9	13	DAISY	435	n/a	n/a	0	0	0
2681.7890625	n/a	WORD	5492304	wordpools/wasnorm_wordpool_576.txt	LTP336	ltpFR2	9	13	WAITER	1580	n/a	n/a	0	0	0
2684.47119140625	n/a	WORD	5497797	wordpools/wasnorm_wordpool_576.txt	LTP336	ltpFR2	9	13	STONE	1385	n/a	n/a	0	0	0
2687.037109375	n/a	WORD	5503052	wordpools/wasnorm_wordpool_576.txt	LTP336	ltpFR2	9	13	LAVA	804	n/a	n/a	0	0	0
2689.81787109375	n/a	WORD	5508747	wordpools/wasnorm_wordpool_576.txt	LTP336	ltpFR2	9	13	PALACE	1006	n/a	n/a	0	0	0
2692.5	n/a	WORD	5514240	wordpools/wasnorm_wordpool_576.txt	LTP336	ltpFR2	9	13	CRIB	407	n/a	n/a	0	0	0
2695.11669921875	n/a	WORD	5519599	wordpools/wasnorm_wordpool_576.txt	LTP336	ltpFR2	9	13	CARRIAGE	248	n/a	n/a	0	0	0
2697.56494140625	n/a	WORD	5524613	wordpools/wasnorm_wordpool_576.txt	LTP336	ltpFR2	9	13	CARROT	249	n/a	n/a	0	0	0
2700.11474609375	n/a	WORD	5529835	wordpools/wasnorm_wordpool_576.txt	LTP336	ltpFR2	9	13	PASSAGE	1019	n/a	n/a	0	0	0
2702.87939453125	n/a	WORD	5535497	wordpools/wasnorm_wordpool_576.txt	LTP336	ltpFR2	9	13	SPOOL	1356	n/a	n/a	0	0	0
2705.560546875	n/a	WORD	5540988	wordpools/wasnorm_wordpool_576.txt	LTP336	ltpFR2	9	13	PATIENT	1024	n/a	n/a	0	0	0
2708.02734375	n/a	WORD	5546040	wordpools/wasnorm_wordpool_576.txt	LTP336	ltpFR2	9	13	DOLPHIN	483	n/a	n/a	0	0	0
2710.6083984375	n/a	WORD	5551326	wordpools/wasnorm_wordpool_576.txt	LTP336	ltpFR2	9	13	BARREL	91	n/a	n/a	0	0	0
2713.2744140625	n/a	WORD	5556786	wordpools/wasnorm_wordpool_576.txt	LTP336	ltpFR2	9	13	DASHBOARD	441	n/a	n/a	0	0	0
2715.7724609375	n/a	WORD	5561902	wordpools/wasnorm_wordpool_576.txt	LTP336	ltpFR2	9	13	SALT	1229	n/a	n/a	0	0	0
2718.22216796875	n/a	WORD	5566919	wordpools/wasnorm_wordpool_576.txt	LTP336	ltpFR2	9	13	HORSE	719	n/a	n/a	0	0	0
2721.00390625	n/a	WORD	5572616	wordpools/wasnorm_wordpool_576.txt	LTP336	ltpFR2	9	13	ZEBRA	1635	n/a	n/a	0	0	0
2722.619140625	n/a	START	5575924	n/a	LTP336	ltpFR2	9	n/a	n/a	n/a	18	n/a	n/a	n/a	n/a
2723.716796875	n/a	DISTRACTOR	5578172	n/a	LTP336	ltpFR2	9	13	n/a	n/a	n/a	n/a	0	0	0
2723.71923828125	n/a	PROB	5578177	n/a	LTP336	ltpFR2	9	n/a	n/a	n/a	18	20	9	6	5
2728.75	n/a	PROB	5588480	n/a	LTP336	ltpFR2	9	n/a	n/a	n/a	18	18	3	9	6
2731.98291015625	n/a	PROB	5595101	n/a	LTP336	ltpFR2	9	n/a	n/a	n/a	18	18	7	7	4
2733.6806640625	n/a	PROB	5598578	n/a	LTP336	ltpFR2	9	n/a	n/a	n/a	18	9	6	1	2
2735.796875	n/a	PROB	5602912	n/a	LTP336	ltpFR2	9	n/a	n/a	n/a	18	15	4	2	9
2738.478515625	n/a	PROB	5608404	n/a	LTP336	ltpFR2	9	n/a	n/a	n/a	18	18	3	7	8
2740.1787109375	n/a	PROB	5611886	n/a	LTP336	ltpFR2	9	n/a	n/a	n/a	18	16	5	6	5
2741.89453125	n/a	PROB	5615400	n/a	LTP336	ltpFR2	9	n/a	n/a	n/a	18	14	6	5	3
2746.6181640625	n/a	STOP	5625074	n/a	LTP336	ltpFR2	9	n/a	n/a	n/a	18	n/a	n/a	n/a	n/a
2748.55712890625	n/a	REC_START	5629045	n/a	LTP336	ltpFR2	9	13	n/a	n/a	n/a	n/a	0	0	0
2749.3564453125	n/a	REC_WORD	5630682	wordpools/wasnorm_wordpool_576.txt	LTP336	ltpFR2	9	13	HORSE	719	n/a	n/a	0	0	0
2750.779296875	n/a	REC_WORD	5633596	wordpools/wasnorm_wordpool_576.txt	LTP336	ltpFR2	9	13	DASHBOARD	441	n/a	n/a	0	0	0
2752.623046875	n/a	REC_WORD	5637372	wordpools/wasnorm_wordpool_576.txt	LTP336	ltpFR2	9	13	SALT	1229	n/a	n/a	0	0	0
2838.998046875	n/a	DISTRACTOR	5814268	n/a	LTP336	ltpFR2	9	14	n/a	n/a	n/a	n/a	0	0	0
2838.998046875	n/a	START	5814268	n/a	LTP336	ltpFR2	9	n/a	n/a	n/a	19	n/a	n/a	n/a	n/a
2839.013671875	n/a	PROB	5814300	n/a	LTP336	ltpFR2	9	n/a	n/a	n/a	19	17	7	1	9
2842.212890625	n/a	PROB	5820852	n/a	LTP336	ltpFR2	9	n/a	n/a	n/a	19	11	2	8	1
2844.27880859375	n/a	PROB	5825083	n/a	LTP336	ltpFR2	9	n/a	n/a	n/a	19	14	6	5	3
2846.52685546875	n/a	PROB	5829687	n/a	LTP336	ltpFR2	9	n/a	n/a	n/a	19	8	1	1	6
2847.9267578125	n/a	PROB	5832554	n/a	LTP336	ltpFR2	9	n/a	n/a	n/a	19	14	3	4	7
2849.859375	n/a	PROB	5836512	n/a	LTP336	ltpFR2	9	n/a	n/a	n/a	19	13	8	1	4
2852.6064453125	n/a	PROB	5842138	n/a	LTP336	ltpFR2	9	n/a	n/a	n/a	19	15	8	6	1
2855.0732421875	n/a	PROB	5847190	n/a	LTP336	ltpFR2	9	n/a	n/a	n/a	19	15	8	6	1
2857.3544921875	n/a	PROB	5851862	n/a	LTP336	ltpFR2	9	n/a	n/a	n/a	19	12	9	2	1
2858.8203125	n/a	PROB	5854864	n/a	LTP336	ltpFR2	9	n/a	n/a	n/a	19	10	4	4	2
2860.7861328125	n/a	PROB	5858890	n/a	LTP336	ltpFR2	9	n/a	n/a	n/a	19	10	1	4	5
2862.1884765625	n/a	STOP	5861762	n/a	LTP336	ltpFR2	9	n/a	n/a	n/a	19	n/a	n/a	n/a	n/a
2864.13525390625	n/a	WORD	5865749	wordpools/wasnorm_wordpool_576.txt	LTP336	ltpFR2	9	14	ELBOW	520	n/a	n/a	0	0	0
2866.64990234375	n/a	WORD	5870899	wordpools/wasnorm_wordpool_576.txt	LTP336	ltpFR2	9	14	ROOSTER	1209	n/a	n/a	0	0	0
2869.23291015625	n/a	WORD	5876189	wordpools/wasnorm_wordpool_576.txt	LTP336	ltpFR2	9	14	CRATER	400	n/a	n/a	0	0	0
2872.03173828125	n/a	WORD	5881921	wordpools/wasnorm_wordpool_576.txt	LTP336	ltpFR2	9	14	COCKTAIL	338	n/a	n/a	0	0	0
2874.7626953125	n/a	WORD	5887514	wordpools/wasnorm_wordpool_576.txt	LTP336	ltpFR2	9	14	FLASK	576	n/a	n/a	0	0	0
2877.2958984375	n/a	WORD	5892702	wordpools/wasnorm_wordpool_576.txt	LTP336	ltpFR2	9	14	BROTHER	179	n/a	n/a	0	0	0
2879.82763671875	n/a	WORD	5897887	wordpools/wasnorm_wordpool_576.txt	LTP336	ltpFR2	9	14	JELLY	755	n/a	n/a	0	0	0
2882.5927734375	n/a	WORD	5903550	wordpools/wasnorm_wordpool_576.txt	LTP336	ltpFR2	9	14	VICTIM	1562	n/a	n/a	0	0	0
2885.17578125	n/a	WORD	5908840	wordpools/wasnorm_wordpool_576.txt	LTP336	ltpFR2	9	14	TRENCH	1503	n/a	n/a	0	0	0
2887.65673828125	n/a	WORD	5913921	wordpools/wasnorm_wordpool_576.txt	LTP336	ltpFR2	9	14	ICING	732	n/a	n/a	0	0	0
2890.189453125	n/a	WORD	5919108	wordpools/wasnorm_wordpool_576.txt	LTP336	ltpFR2	9	14	LIPSTICK	829	n/a	n/a	0	0	0
2892.80419921875	n/a	WORD	5924463	wordpools/wasnorm_wordpool_576.txt	LTP336	ltpFR2	9	14	GRAVEL	659	n/a	n/a	0	0	0
2895.33642578125	n/a	WORD	5929649	wordpools/wasnorm_wordpool_576.txt	LTP336	ltpFR2	9	14	LEG	809	n/a	n/a	0	0	0
2897.93603515625	n/a	WORD	5934973	wordpools/wasnorm_wordpool_576.txt	LTP336	ltpFR2	9	14	COUNTY	389	n/a	n/a	0	0	0
2900.6171875	n/a	WORD	5940464	wordpools/wasnorm_wordpool_576.txt	LTP336	ltpFR2	9	14	GHETTO	633	n/a	n/a	0	0	0
2903.34912109375	n/a	WORD	5946059	wordpools/wasnorm_wordpool_576.txt	LTP336	ltpFR2	9	14	MONEY	908	n/a	n/a	0	0	0
2905.8662109375	n/a	WORD	5951214	wordpools/wasnorm_wordpool_576.txt	LTP336	ltpFR2	9	14	TUNNEL	1519	n/a	n/a	0	0	0
2908.36279296875	n/a	WORD	5956327	wordpools/wasnorm_wordpool_576.txt	LTP336	ltpFR2	9	14	BRACES	164	n/a	n/a	0	0	0
2910.9970703125	n/a	WORD	5961722	wordpools/wasnorm_wordpool_576.txt	LTP336	ltpFR2	9	14	DENTIST	447	n/a	n/a	0	0	0
2913.77783203125	n/a	WORD	5967417	wordpools/wasnorm_wordpool_576.txt	LTP336	ltpFR2	9	14	HOUND	724	n/a	n/a	0	0	0
2916.57568359375	n/a	WORD	5973147	wordpools/wasnorm_wordpool_576.txt	LTP336	ltpFR2	9	14	SIDEWALK	1303	n/a	n/a	0	0	0
2919.2255859375	n/a	WORD	5978574	wordpools/wasnorm_wordpool_576.txt	LTP336	ltpFR2	9	14	HEADBAND	696	n/a	n/a	0	0	0
2921.94140625	n/a	WORD	5984136	wordpools/wasnorm_wordpool_576.txt	LTP336	ltpFR2	9	14	LABEL	790	n/a	n/a	0	0	0
2924.70556640625	n/a	WORD	5989797	wordpools/wasnorm_wordpool_576.txt	LTP336	ltpFR2	9	14	WARDROBE	1587	n/a	n/a	0	0	0
2926.3212890625	n/a	START	5993106	n/a	LTP336	ltpFR2	9	n/a	n/a	n/a	20	n/a	n/a	n/a	n/a
2927.45263671875	n/a	DISTRACTOR	5995423	n/a	LTP336	ltpFR2	9	14	n/a	n/a	n/a	n/a	0	0	0
2927.45458984375	n/a	PROB	5995427	n/a	LTP336	ltpFR2	9	n/a	n/a	n/a	20	14	2	5	7
2929.76953125	n/a	PROB	6000168	n/a	LTP336	ltpFR2	9	n/a	n/a	n/a	20	17	4	6	7
2931.91943359375	n/a	PROB	6004571	n/a	LTP336	ltpFR2	9	n/a	n/a	n/a	20	18	8	3	7
2933.91943359375	n/a	PROB	6008667	n/a	LTP336	ltpFR2	9	n/a	n/a	n/a	20	20	7	5	8
2935.6669921875	n/a	PROB	6012246	n/a	LTP336	ltpFR2	9	n/a	n/a	n/a	20	14	2	9	3
2937.73193359375	n/a	PROB	6016475	n/a	LTP336	ltpFR2	9	n/a	n/a	n/a	20	16	4	8	4
2939.84912109375	n/a	PROB	6020811	n/a	LTP336	ltpFR2	9	n/a	n/a	n/a	20	16	7	6	3
2942.18115234375	n/a	PROB	6025587	n/a	LTP336	ltpFR2	9	n/a	n/a	n/a	20	16	7	3	6
2944.1640625	n/a	PROB	6029648	n/a	LTP336	ltpFR2	9	n/a	n/a	n/a	20	15	2	4	9
2946.1796875	n/a	PROB	6033776	n/a	LTP336	ltpFR2	9	n/a	n/a	n/a	20	19	8	3	8
2950.31982421875	n/a	STOP	6042255	n/a	LTP336	ltpFR2	9	n/a	n/a	n/a	20	n/a	n/a	n/a	n/a
2952.19384765625	n/a	REC_START	6046093	n/a	LTP336	ltpFR2	9	14	n/a	n/a	n/a	n/a	0	0	0
2952.6337890625	n/a	REC_WORD_VV	6046994	wordpools/wasnorm_wordpool_576.txt	LTP336	ltpFR2	9	14	<>	-1	n/a	n/a	0	0	0
2954.2119140625	n/a	REC_WORD	6050226	wordpools/wasnorm_wordpool_576.txt	LTP336	ltpFR2	9	14	HEADBAND	696	n/a	n/a	0	0	0
2955.44189453125	n/a	REC_WORD	6052745	wordpools/wasnorm_wordpool_576.txt	LTP336	ltpFR2	9	14	LABEL	790	n/a	n/a	0	0	0
2956.69970703125	n/a	REC_WORD	6055321	wordpools/wasnorm_wordpool_576.txt	LTP336	ltpFR2	9	14	WARDROBE	1587	n/a	n/a	0	0	0
2959.3935546875	n/a	REC_WORD	6060838	wordpools/wasnorm_wordpool_576.txt	LTP336	ltpFR2	9	14	LEG	809	n/a	n/a	0	0	0
2960.90576171875	n/a	REC_WORD	6063935	wordpools/wasnorm_wordpool_576.txt	LTP336	ltpFR2	9	14	GHETTO	633	n/a	n/a	0	0	0
2965.30224609375	n/a	REC_WORD	6072939	wordpools/wasnorm_wordpool_576.txt	LTP336	ltpFR2	9	14	GRAVEL	659	n/a	n/a	0	0	0
2966.63134765625	n/a	REC_WORD	6075661	wordpools/wasnorm_wordpool_576.txt	LTP336	ltpFR2	9	14	LIPSTICK	829	n/a	n/a	0	0	0
2969.55224609375	n/a	REC_WORD	6081643	wordpools/wasnorm_wordpool_576.txt	LTP336	ltpFR2	9	14	DENTIST	447	n/a	n/a	0	0	0
2977.5009765625	n/a	REC_WORD	6097922	wordpools/wasnorm_wordpool_576.txt	LTP336	ltpFR2	9	14	COCKTAIL	338	n/a	n/a	0	0	0
3042.63232421875	n/a	DISTRACTOR	6231311	n/a	LTP336	ltpFR2	9	15	n/a	n/a	n/a	n/a	0	0	0
3042.63232421875	n/a	START	6231311	n/a	LTP336	ltpFR2	9	n/a	n/a	n/a	21	n/a	n/a	n/a	n/a
3042.6494140625	n/a	PROB	6231346	n/a	LTP336	ltpFR2	9	n/a	n/a	n/a	21	20	9	3	8
3045.4814453125	n/a	PROB	6237146	n/a	LTP336	ltpFR2	9	n/a	n/a	n/a	21	23	9	6	8
3048.36328125	n/a	PROB	6243048	n/a	LTP336	ltpFR2	9	n/a	n/a	n/a	21	13	3	3	7
3050.4453125	n/a	PROB	6247312	n/a	LTP336	ltpFR2	9	n/a	n/a	n/a	21	12	3	1	8
3053.19482421875	n/a	PROB	6252943	n/a	LTP336	ltpFR2	9	n/a	n/a	n/a	21	18	7	4	7
3054.86083984375	n/a	PROB	6256355	n/a	LTP336	ltpFR2	9	n/a	n/a	n/a	21	12	2	2	8
3056.259765625	n/a	PROB	6259220	n/a	LTP336	ltpFR2	9	n/a	n/a	n/a	21	10	5	2	3
3058.208984375	n/a	PROB	6263212	n/a	LTP336	ltpFR2	9	n/a	n/a	n/a	21	19	5	6	8
3060.44091796875	n/a	PROB	6267783	n/a	LTP336	ltpFR2	9	n/a	n/a	n/a	21	10	5	3	2
3062.53955078125	n/a	PROB	6272081	n/a	LTP336	ltpFR2	9	n/a	n/a	n/a	21	11	2	8	1
3064.12255859375	n/a	PROB	6275323	n/a	LTP336	ltpFR2	9	n/a	n/a	n/a	21	14	2	6	6
3065.8935546875	n/a	STOP	6278950	n/a	LTP336	ltpFR2	9	n/a	n/a	n/a	21	n/a	n/a	n/a	n/a
3067.45361328125	n/a	WORD	6282145	wordpools/wasnorm_wordpool_576.txt	LTP336	ltpFR2	9	15	THREAD	1460	n/a	n/a	0	0	0
3070.00341796875	n/a	WORD	6287367	wordpools/wasnorm_wordpool_576.txt	LTP336	ltpFR2	9	15	SHOVEL	1295	n/a	n/a	0	0	0
3072.734375	n/a	WORD	6292960	wordpools/wasnorm_wordpool_576.txt	LTP336	ltpFR2	9	15	KETCHUP	771	n/a	n/a	0	0	0
3075.21728515625	n/a	WORD	6298045	wordpools/wasnorm_wordpool_576.txt	LTP336	ltpFR2	9	15	MILK	895	n/a	n/a	0	0	0
3077.6484375	n/a	WORD	6303024	wordpools/wasnorm_wordpool_576.txt	LTP336	ltpFR2	9	15	OFFICE	972	n/a	n/a	0	0	0
3080.2822265625	n/a	WORD	6308418	wordpools/wasnorm_wordpool_576.txt	LTP336	ltpFR2	9	15	MEDAL	885	n/a	n/a	0	0	0
3082.79638671875	n/a	WORD	6313567	wordpools/wasnorm_wordpool_576.txt	LTP336	ltpFR2	9	15	CREATURE	403	n/a	n/a	0	0	0
3085.544921875	n/a	WORD	6319196	wordpools/wasnorm_wordpool_576.txt	LTP336	ltpFR2	9	15	BEAVER	109	n/a	n/a	0	0	0
3088.02783203125	n/a	WORD	6324281	wordpools/wasnorm_wordpool_576.txt	LTP336	ltpFR2	9	15	TAXI	1438	n/a	n/a	0	0	0
3090.52587890625	n/a	WORD	6329397	wordpools/wasnorm_wordpool_576.txt	LTP336	ltpFR2	9	15	RELISH	1183	n/a	n/a	0	0	0
3092.97607421875	n/a	WORD	6334415	wordpools/wasnorm_wordpool_576.txt	LTP336	ltpFR2	9	15	KITCHEN	778	n/a	n/a	0	0	0
3095.73974609375	n/a	WORD	6340075	wordpools/wasnorm_wordpool_576.txt	LTP336	ltpFR2	9	15	DOUGHNUT	490	n/a	n/a	0	0	0
3098.421875	n/a	WORD	6345568	wordpools/wasnorm_wordpool_576.txt	LTP336	ltpFR2	9	15	SCISSORS	1250	n/a	n/a	0	0	0
3100.98876953125	n/a	WORD	6350825	wordpools/wasnorm_wordpool_576.txt	LTP336	ltpFR2	9	15	LAPEL	800	n/a	n/a	0	0	0
3103.65283203125	n/a	WORD	6356281	wordpools/wasnorm_wordpool_576.txt	LTP336	ltpFR2	9	15	VALLEY	1545	n/a	n/a	0	0	0
3106.4013671875	n/a	WORD	6361910	wordpools/wasnorm_wordpool_576.txt	LTP336	ltpFR2	9	15	TREAT	1501	n/a	n/a	0	0	0
3109.13427734375	n/a	WORD	6367507	wordpools/wasnorm_wordpool_576.txt	LTP336	ltpFR2	9	15	BULLET	194	n/a	n/a	0	0	0
3111.71533203125	n/a	WORD	6372793	wordpools/wasnorm_wordpool_576.txt	LTP336	ltpFR2	9	15	AGENT	10	n/a	n/a	0	0	0
3114.3642578125	n/a	WORD	6378218	wordpools/wasnorm_wordpool_576.txt	LTP336	ltpFR2	9	15	SHERIFF	1284	n/a	n/a	0	0	0
3116.9814453125	n/a	WORD	6383578	wordpools/wasnorm_wordpool_576.txt	LTP336	ltpFR2	9	15	SANDWICH	1232	n/a	n/a	0	0	0
3119.54541015625	n/a	WORD	6388829	wordpools/wasnorm_wordpool_576.txt	LTP336	ltpFR2	9	15	TERMITE	1451	n/a	n/a	0	0	0
3122.06201171875	n/a	WORD	6393983	wordpools/wasnorm_wordpool_576.txt	LTP336	ltpFR2	9	15	WINDOW	1611	n/a	n/a	0	0	0
3124.54296875	n/a	WORD	6399064	wordpools/wasnorm_wordpool_576.txt	LTP336	ltpFR2	9	15	CELLAR	267	n/a	n/a	0	0	0
3126.9931640625	n/a	WORD	6404082	wordpools/wasnorm_wordpool_576.txt	LTP336	ltpFR2	9	15	AWARD	63	n/a	n/a	0	0	0
3128.60791015625	n/a	START	6407389	n/a	LTP336	ltpFR2	9	n/a	n/a	n/a	22	n/a	n/a	n/a	n/a
3129.6328125	n/a	DISTRACTOR	6409488	n/a	LTP336	ltpFR2	9	15	n/a	n/a	n/a	n/a	0	0	0
3129.64111328125	n/a	PROB	6409505	n/a	LTP336	ltpFR2	9	n/a	n/a	n/a	22	20	5	8	7
3134.0556640625	n/a	PROB	6418546	n/a	LTP336	ltpFR2	9	n/a	n/a	n/a	22	12	5	3	4
3137.12158203125	n/a	PROB	6424825	n/a	LTP336	ltpFR2	9	n/a	n/a	n/a	22	10	2	1	7
3138.88671875	n/a	PROB	6428440	n/a	LTP336	ltpFR2	9	n/a	n/a	n/a	22	14	2	9	3
3142.2353515625	n/a	PROB	6435298	n/a	LTP336	ltpFR2	9	n/a	n/a	n/a	22	15	6	6	3
3144.50048828125	n/a	PROB	6439937	n/a	LTP336	ltpFR2	9	n/a	n/a	n/a	22	19	9	6	4
3147.4482421875	n/a	PROB	6445974	n/a	LTP336	ltpFR2	9	n/a	n/a	n/a	22	16	8	7	1
3149.29833984375	n/a	PROB	6449763	n/a	LTP336	ltpFR2	9	n/a	n/a	n/a	22	13	5	6	2
3151.6201171875	n/a	STOP	6454518	n/a	LTP336	ltpFR2	9	n/a	n/a	n/a	22	n/a	n/a	n/a	n/a
3154.37939453125	n/a	REC_START	6460169	n/a	LTP336	ltpFR2	9	15	n/a	n/a	n/a	n/a	0	0	0
3155.10302734375	n/a	REC_WORD	6461651	wordpools/wasnorm_wordpool_576.txt	LTP336	ltpFR2	9	15	BULLET	194	n/a	n/a	0	0	0
3156.1171875	n/a	REC_WORD	6463728	wordpools/wasnorm_wordpool_576.txt	LTP336	ltpFR2	9	15	AGENT	10	n/a	n/a	0	0	0
3157.67236328125	n/a	REC_WORD	6466913	wordpools/wasnorm_wordpool_576.txt	LTP336	ltpFR2	9	15	BEAVER	109	n/a	n/a	0	0	0
3159.18701171875	n/a	REC_WORD	6470015	wordpools/wasnorm_wordpool_576.txt	LTP336	ltpFR2	9	15	DOUGHNUT	490	n/a	n/a	0	0	0
3160.3818359375	n/a	REC_WORD	6472462	wordpools/wasnorm_wordpool_576.txt	LTP336	ltpFR2	9	15	TREAT	1501	n/a	n/a	0	0	0
3161.8408203125	n/a	REC_WORD	6475450	wordpools/wasnorm_wordpool_576.txt	LTP336	ltpFR2	9	15	KITCHEN	778	n/a	n/a	0	0	0
3163.18994140625	n/a	REC_WORD	6478213	wordpools/wasnorm_wordpool_576.txt	LTP336	ltpFR2	9	15	CREATURE	403	n/a	n/a	0	0	0
3164.67578125	n/a	REC_WORD	6481256	wordpools/wasnorm_wordpool_576.txt	LTP336	ltpFR2	9	15	SHOVEL	1295	n/a	n/a	0	0	0
3166.0869140625	n/a	REC_WORD	6484146	wordpools/wasnorm_wordpool_576.txt	LTP336	ltpFR2	9	15	THREAD	1460	n/a	n/a	0	0	0
3167.2626953125	n/a	REC_WORD	6486554	wordpools/wasnorm_wordpool_576.txt	LTP336	ltpFR2	9	15	SCISSORS	1250	n/a	n/a	0	0	0
3168.9990234375	n/a	REC_WORD	6490110	wordpools/wasnorm_wordpool_576.txt	LTP336	ltpFR2	9	15	MILK	895	n/a	n/a	0	0	0
3171.419921875	n/a	REC_WORD	6495068	wordpools/wasnorm_wordpool_576.txt	LTP336	ltpFR2	9	15	KETCHUP	771	n/a	n/a	0	0	0
3172.61181640625	n/a	REC_WORD	6497509	wordpools/wasnorm_wordpool_576.txt	LTP336	ltpFR2	9	15	RELISH	1183	n/a	n/a	0	0	0
3174.8154296875	n/a	REC_WORD	6502022	wordpools/wasnorm_wordpool_576.txt	LTP336	ltpFR2	9	15	TAXI	1438	n/a	n/a	0	0	0
3176.6005859375	n/a	REC_WORD	6505678	wordpools/wasnorm_wordpool_576.txt	LTP336	ltpFR2	9	15	OFFICE	972	n/a	n/a	0	0	0
3244.8017578125	n/a	DISTRACTOR	6645354	n/a	LTP336	ltpFR2	9	16	n/a	n/a	n/a	n/a	0	0	0
3244.8017578125	n/a	START	6645354	n/a	LTP336	ltpFR2	9	n/a	n/a	n/a	23	n/a	n/a	n/a	n/a
3244.81982421875	n/a	PROB	6645391	n/a	LTP336	ltpFR2	9	n/a	n/a	n/a	23	19	9	5	5
3247.55078125	n/a	PROB	6650984	n/a	LTP336	ltpFR2	9	n/a	n/a	n/a	23	16	1	7	8
3249.08447265625	n/a	PROB	6654125	n/a	LTP336	ltpFR2	9	n/a	n/a	n/a	23	17	4	7	6
3251.2666015625	n/a	PROB	6658594	n/a	LTP336	ltpFR2	9	n/a	n/a	n/a	23	17	7	9	1
3253.04833984375	n/a	PROB	6662243	n/a	LTP336	ltpFR2	9	n/a	n/a	n/a	23	21	9	5	7
3256.8134765625	n/a	PROB	6669954	n/a	LTP336	ltpFR2	9	n/a	n/a	n/a	23	22	4	9	9
3259.07958984375	n/a	PROB	6674595	n/a	LTP336	ltpFR2	9	n/a	n/a	n/a	23	17	3	5	9
3261.72705078125	n/a	PROB	6680017	n/a	LTP336	ltpFR2	9	n/a	n/a	n/a	23	16	4	7	5
3264.09326171875	n/a	PROB	6684863	n/a	LTP336	ltpFR2	9	n/a	n/a	n/a	23	7	1	2	4
3268.80126953125	n/a	STOP	6694505	n/a	LTP336	ltpFR2	9	n/a	n/a	n/a	23	n/a	n/a	n/a	n/a
3269.64013671875	n/a	WORD	6696223	wordpools/wasnorm_wordpool_576.txt	LTP336	ltpFR2	9	16	CREVICE	405	n/a	n/a	0	0	0
3272.18994140625	n/a	WORD	6701445	wordpools/wasnorm_wordpool_576.txt	LTP336	ltpFR2	9	16	SISTER	1312	n/a	n/a	0	0	0
3274.9716796875	n/a	WORD	6707142	wordpools/wasnorm_wordpool_576.txt	LTP336	ltpFR2	9	16	JUNGLE	764	n/a	n/a	0	0	0
3277.5859375	n/a	WORD	6712496	wordpools/wasnorm_wordpool_576.txt	LTP336	ltpFR2	9	16	FARMER	553	n/a	n/a	0	0	0
3280.185546875	n/a	WORD	6717820	wordpools/wasnorm_wordpool_576.txt	LTP336	ltpFR2	9	16	GOBLIN	645	n/a	n/a	0	0	0
3282.716796875	n/a	WORD	6723004	wordpools/wasnorm_wordpool_576.txt	LTP336	ltpFR2	9	16	PENGUIN	1044	n/a	n/a	0	0	0
3285.30078125	n/a	WORD	6728296	wordpools/wasnorm_wordpool_576.txt	LTP336	ltpFR2	9	16	PEPPER	1047	n/a	n/a	0	0	0
3288.08251953125	n/a	WORD	6733993	wordpools/wasnorm_wordpool_576.txt	LTP336	ltpFR2	9	16	DUSTPAN	509	n/a	n/a	0	0	0
3290.6796875	n/a	WORD	6739312	wordpools/wasnorm_wordpool_576.txt	LTP336	ltpFR2	9	16	FLESH	579	n/a	n/a	0	0	0
3293.3623046875	n/a	WORD	6744806	wordpools/wasnorm_wordpool_576.txt	LTP336	ltpFR2	9	16	BABY	64	n/a	n/a	0	0	0
3296.01123046875	n/a	WORD	6750231	wordpools/wasnorm_wordpool_576.txt	LTP336	ltpFR2	9	16	ICEBERG	731	n/a	n/a	0	0	0
3298.576171875	n/a	WORD	6755484	wordpools/wasnorm_wordpool_576.txt	LTP336	ltpFR2	9	16	VIRUS	1572	n/a	n/a	0	0	0
3301.22607421875	n/a	WORD	6760911	wordpools/wasnorm_wordpool_576.txt	LTP336	ltpFR2	9	16	PRIMATE	1123	n/a	n/a	0	0	0
3303.67333984375	n/a	WORD	6765923	wordpools/wasnorm_wordpool_576.txt	LTP336	ltpFR2	9	16	CRAYON	401	n/a	n/a	0	0	0
3306.14013671875	n/a	WORD	6770975	wordpools/wasnorm_wordpool_576.txt	LTP336	ltpFR2	9	16	CANDY	230	n/a	n/a	0	0	0
3308.62109375	n/a	WORD	6776056	wordpools/wasnorm_wordpool_576.txt	LTP336	ltpFR2	9	16	SHRUB	1299	n/a	n/a	0	0	0
3311.43701171875	n/a	WORD	6781823	wordpools/wasnorm_wordpool_576.txt	LTP336	ltpFR2	9	16	STAMP	1370	n/a	n/a	0	0	0
3314.23583984375	n/a	WORD	6787555	wordpools/wasnorm_wordpool_576.txt	LTP336	ltpFR2	9	16	MESSAGE	888	n/a	n/a	0	0	0
3317.03466796875	n/a	WORD	6793287	wordpools/wasnorm_wordpool_576.txt	LTP336	ltpFR2	9	16	PANTHER	1009	n/a	n/a	0	0	0
3319.81689453125	n/a	WORD	6798985	wordpools/wasnorm_wordpool_576.txt	LTP336	ltpFR2	9	16	ROCKET	1202	n/a	n/a	0	0	0
3322.298828125	n/a	WORD	6804068	wordpools/wasnorm_wordpool_576.txt	LTP336	ltpFR2	9	16	SPACE	1345	n/a	n/a	0	0	0
3324.931640625	n/a	WORD	6809460	wordpools/wasnorm_wordpool_576.txt	LTP336	ltpFR2	9	16	RIVER	1194	n/a	n/a	0	0	0
3327.66259765625	n/a	WORD	6815053	wordpools/wasnorm_wordpool_576.txt	LTP336	ltpFR2	9	16	WASP	1593	n/a	n/a	0	0	0
3330.228515625	n/a	WORD	6820308	wordpools/wasnorm_wordpool_576.txt	LTP336	ltpFR2	9	16	BEEF	113	n/a	n/a	0	0	0
3331.84423828125	n/a	START	6823617	n/a	LTP336	ltpFR2	9	n/a	n/a	n/a	24	n/a	n/a	n/a	n/a
3332.734375	n/a	DISTRACTOR	6825440	n/a	LTP336	ltpFR2	9	16	n/a	n/a	n/a	n/a	0	0	0
3332.7431640625	n/a	PROB	6825458	n/a	LTP336	ltpFR2	9	n/a	n/a	n/a	24	20	6	7	7
3335.408203125	n/a	PROB	6830916	n/a	LTP336	ltpFR2	9	n/a	n/a	n/a	24	12	1	3	8
3337.275390625	n/a	PROB	6834740	n/a	LTP336	ltpFR2	9	n/a	n/a	n/a	24	19	4	8	7
3339.4560546875	n/a	PROB	6839206	n/a	LTP336	ltpFR2	9	n/a	n/a	n/a	24	11	2	3	6
3341.80517578125	n/a	PROB	6844017	n/a	LTP336	ltpFR2	9	n/a	n/a	n/a	24	12	2	8	2
3343.2060546875	n/a	PROB	6846886	n/a	LTP336	ltpFR2	9	n/a	n/a	n/a	24	20	2	9	9
3344.7041015625	n/a	PROB	6849954	n/a	LTP336	ltpFR2	9	n/a	n/a	n/a	24	10	2	7	1
3346.13818359375	n/a	PROB	6852891	n/a	LTP336	ltpFR2	9	n/a	n/a	n/a	24	14	1	5	8
3348.3359375	n/a	PROB	6857392	n/a	LTP336	ltpFR2	9	n/a	n/a	n/a	24	21	3	9	9
3349.8857421875	n/a	PROB	6860566	n/a	LTP336	ltpFR2	9	n/a	n/a	n/a	24	14	5	2	7
3352.5166015625	n/a	PROB	6865954	n/a	LTP336	ltpFR2	9	n/a	n/a	n/a	24	17	7	3	7
3354.8056640625	n/a	STOP	6870642	n/a	LTP336	ltpFR2	9	n/a	n/a	n/a	24	n/a	n/a	n/a	n/a
3357.74755859375	n/a	REC_START	6876667	n/a	LTP336	ltpFR2	9	16	n/a	n/a	n/a	n/a	0	0	0
3358.50048828125	n/a	REC_WORD_VV	6878209	wordpools/wasnorm_wordpool_576.txt	LTP336	ltpFR2	9	16	<>	-1	n/a	n/a	0	0	0
3359.12646484375	n/a	REC_WORD	6879491	wordpools/wasnorm_wordpool_576.txt	LTP336	ltpFR2	9	16	STAMP	1370	n/a	n/a	0	0	0
3360.138671875	n/a	REC_WORD	6881564	wordpools/wasnorm_wordpool_576.txt	LTP336	ltpFR2	9	16	MESSAGE	888	n/a	n/a	0	0	0
3362.29638671875	n/a	REC_WORD	6885983	wordpools/wasnorm_wordpool_576.txt	LTP336	ltpFR2	9	16	PANTHER	1009	n/a	n/a	0	0	0
3363.9306640625	n/a	REC_WORD	6889330	wordpools/wasnorm_wordpool_576.txt	LTP336	ltpFR2	9	16	PRIMATE	1123	n/a	n/a	0	0	0
3365.6494140625	n/a	REC_WORD	6892850	wordpools/wasnorm_wordpool_576.txt	LTP336	ltpFR2	9	16	VIRUS	1572	n/a	n/a	0	0	0
3367.599609375	n/a	REC_WORD	6896844	wordpools/wasnorm_wordpool_576.txt	LTP336	ltpFR2	9	16	PENGUIN	1044	n/a	n/a	0	0	0
3369.322265625	n/a	REC_WORD	6900372	wordpools/wasnorm_wordpool_576.txt	LTP336	ltpFR2	9	16	CANDY	230	n/a	n/a	0	0	0
3370.9873046875	n/a	REC_WORD	6903782	wordpools/wasnorm_wordpool_576.txt	LTP336	ltpFR2	9	16	SHRUB	1299	n/a	n/a	0	0	0
3372.6982421875	n/a	REC_WORD	6907286	wordpools/wasnorm_wordpool_576.txt	LTP336	ltpFR2	9	16	GOBLIN	645	n/a	n/a	0	0	0
3374.1552734375	n/a	REC_WORD	6910270	wordpools/wasnorm_wordpool_576.txt	LTP336	ltpFR2	9	16	FARMER	553	n/a	n/a	0	0	0
3375.96435546875	n/a	REC_WORD	6913975	wordpools/wasnorm_wordpool_576.txt	LTP336	ltpFR2	9	16	ICEBERG	731	n/a	n/a	0	0	0
3377.35888671875	n/a	REC_WORD	6916831	wordpools/wasnorm_wordpool_576.txt	LTP336	ltpFR2	9	16	PEPPER	1047	n/a	n/a	0	0	0
3379.40087890625	n/a	REC_WORD	6921013	wordpools/wasnorm_wordpool_576.txt	LTP336	ltpFR2	9	16	SISTER	1312	n/a	n/a	0	0	0
3380.48193359375	n/a	REC_WORD	6923227	wordpools/wasnorm_wordpool_576.txt	LTP336	ltpFR2	9	16	FLESH	579	n/a	n/a	0	0	0
3381.912109375	n/a	REC_WORD	6926156	wordpools/wasnorm_wordpool_576.txt	LTP336	ltpFR2	9	16	BABY	64	n/a	n/a	0	0	0
3383.40283203125	n/a	REC_WORD	6929209	wordpools/wasnorm_wordpool_576.txt	LTP336	ltpFR2	9	16	CREVICE	405	n/a	n/a	0	0	0
3384.99072265625	n/a	REC_WORD	6932461	wordpools/wasnorm_wordpool_576.txt	LTP336	ltpFR2	9	16	DUSTPAN	509	n/a	n/a	0	0	0
3434.2783203125	n/a	REST_REWET	7033402	n/a	LTP336	ltpFR2	9	16	n/a	n/a	n/a	n/a	0	0	0
3634.6650390625	n/a	DISTRACTOR	7443794	n/a	LTP336	ltpFR2	9	17	n/a	n/a	n/a	n/a	0	0	0
3634.6650390625	n/a	START	7443794	n/a	LTP336	ltpFR2	9	n/a	n/a	n/a	25	n/a	n/a	n/a	n/a
3634.68115234375	n/a	PROB	7443827	n/a	LTP336	ltpFR2	9	n/a	n/a	n/a	25	19	9	9	1
3637.23095703125	n/a	PROB	7449049	n/a	LTP336	ltpFR2	9	n/a	n/a	n/a	25	21	7	9	5
3641.845703125	n/a	PROB	7458500	n/a	LTP336	ltpFR2	9	n/a	n/a	n/a	25	5	1	3	1
3643.34375	n/a	PROB	7461568	n/a	LTP336	ltpFR2	9	n/a	n/a	n/a	25	25	8	9	8
3646.84375	n/a	PROB	7468736	n/a	LTP336	ltpFR2	9	n/a	n/a	n/a	25	10	6	3	1
3648.20947265625	n/a	PROB	7471533	n/a	LTP336	ltpFR2	9	n/a	n/a	n/a	25	22	7	7	8
3651.33935546875	n/a	PROB	7477943	n/a	LTP336	ltpFR2	9	n/a	n/a	n/a	25	14	1	8	5
3653.33935546875	n/a	PROB	7482039	n/a	LTP336	ltpFR2	9	n/a	n/a	n/a	25	18	8	2	8
3654.822265625	n/a	PROB	7485076	n/a	LTP336	ltpFR2	9	n/a	n/a	n/a	25	15	1	8	6
3657.95947265625	n/a	STOP	7491501	n/a	LTP336	ltpFR2	9	n/a	n/a	n/a	25	n/a	n/a	n/a	n/a
3659.7021484375	n/a	WORD	7495070	wordpools/wasnorm_wordpool_576.txt	LTP336	ltpFR2	9	17	BASEMENT	94	n/a	n/a	0	0	0
3662.15234375	n/a	WORD	7500088	wordpools/wasnorm_wordpool_576.txt	LTP336	ltpFR2	9	17	TWISTER	1530	n/a	n/a	0	0	0
3664.75	n/a	WORD	7505408	wordpools/wasnorm_wordpool_576.txt	LTP336	ltpFR2	9	17	SODA	1341	n/a	n/a	0	0	0
3667.25	n/a	WORD	7510528	wordpools/wasnorm_wordpool_576.txt	LTP336	ltpFR2	9	17	PISTOL	1075	n/a	n/a	0	0	0
3669.81494140625	n/a	WORD	7515781	wordpools/wasnorm_wordpool_576.txt	LTP336	ltpFR2	9	17	MISSILE	900	n/a	n/a	0	0	0
3672.23095703125	n/a	WORD	7520729	wordpools/wasnorm_wordpool_576.txt	LTP336	ltpFR2	9	17	SPOUSE	1358	n/a	n/a	0	0	0
3674.93017578125	n/a	WORD	7526257	wordpools/wasnorm_wordpool_576.txt	LTP336	ltpFR2	9	17	SHELF	1280	n/a	n/a	0	0	0
3677.49365234375	n/a	WORD	7531507	wordpools/wasnorm_wordpool_576.txt	LTP336	ltpFR2	9	17	CLOCK	325	n/a	n/a	0	0	0
3680.09375	n/a	WORD	7536832	wordpools/wasnorm_wordpool_576.txt	LTP336	ltpFR2	9	17	RAZOR	1171	n/a	n/a	0	0	0
3682.60888671875	n/a	WORD	7541983	wordpools/wasnorm_wordpool_576.txt	LTP336	ltpFR2	9	17	INFANT	737	n/a	n/a	0	0	0
3685.091796875	n/a	WORD	7547068	wordpools/wasnorm_wordpool_576.txt	LTP336	ltpFR2	9	17	CLAMP	316	n/a	n/a	0	0	0
3687.90673828125	n/a	WORD	7552833	wordpools/wasnorm_wordpool_576.txt	LTP336	ltpFR2	9	17	LETTUCE	814	n/a	n/a	0	0	0
3690.4716796875	n/a	WORD	7558086	wordpools/wasnorm_wordpool_576.txt	LTP336	ltpFR2	9	17	FUNGUS	614	n/a	n/a	0	0	0
3693.20458984375	n/a	WORD	7563683	wordpools/wasnorm_wordpool_576.txt	LTP336	ltpFR2	9	17	CAPTIVE	240	n/a	n/a	0	0	0
3695.7685546875	n/a	WORD	7568934	wordpools/wasnorm_wordpool_576.txt	LTP336	ltpFR2	9	17	ACTOR	5	n/a	n/a	0	0	0
3698.33447265625	n/a	WORD	7574189	wordpools/wasnorm_wordpool_576.txt	LTP336	ltpFR2	9	17	EXPERT	543	n/a	n/a	0	0	0
3700.900390625	n/a	WORD	7579444	wordpools/wasnorm_wordpool_576.txt	LTP336	ltpFR2	9	17	MASK	876	n/a	n/a	0	0	0
3703.4150390625	n/a	WORD	7584594	wordpools/wasnorm_wordpool_576.txt	LTP336	ltpFR2	9	17	WIFE	1609	n/a	n/a	0	0	0
3705.865234375	n/a	WORD	7589612	wordpools/wasnorm_wordpool_576.txt	LTP336	ltpFR2	9	17	TEACHER	1440	n/a	n/a	0	0	0
3708.4130859375	n/a	WORD	7594830	wordpools/wasnorm_wordpool_576.txt	LTP336	ltpFR2	9	17	COUSIN	392	n/a	n/a	0	0	0
3710.962890625	n/a	WORD	7600052	wordpools/wasnorm_wordpool_576.txt	LTP336	ltpFR2	9	17	LODGE	839	n/a	n/a	0	0	0
3713.44384765625	n/a	WORD	7605133	wordpools/wasnorm_wordpool_576.txt	LTP336	ltpFR2	9	17	MOTEL	919	n/a	n/a	0	0	0
3716.0927734375	n/a	WORD	7610558	wordpools/wasnorm_wordpool_576.txt	LTP336	ltpFR2	9	17	SWORD	1423	n/a	n/a	0	0	0
3718.80859375	n/a	WORD	7616120	wordpools/wasnorm_wordpool_576.txt	LTP336	ltpFR2	9	17	GRAPE	654	n/a	n/a	0	0	0
3720.423828125	n/a	START	7619428	n/a	LTP336	ltpFR2	9	n/a	n/a	n/a	26	n/a	n/a	n/a	n/a
3721.25390625	n/a	DISTRACTOR	7621128	n/a	LTP336	ltpFR2	9	17	n/a	n/a	n/a	n/a	0	0	0
3721.2578125	n/a	PROB	7621136	n/a	LTP336	ltpFR2	9	n/a	n/a	n/a	26	20	9	4	7
3723.90673828125	n/a	PROB	7626561	n/a	LTP336	ltpFR2	9	n/a	n/a	n/a	26	19	8	5	6
3726.138671875	n/a	PROB	7631132	n/a	LTP336	ltpFR2	9	n/a	n/a	n/a	26	12	4	5	3
3727.8876953125	n/a	PROB	7634714	n/a	LTP336	ltpFR2	9	n/a	n/a	n/a	26	9	5	3	1
3729.71923828125	n/a	PROB	7638465	n/a	LTP336	ltpFR2	9	n/a	n/a	n/a	26	14	4	4	6
3731.83544921875	n/a	PROB	7642799	n/a	LTP336	ltpFR2	9	n/a	n/a	n/a	26	22	6	9	7
3734.951171875	n/a	PROB	7649180	n/a	LTP336	ltpFR2	9	n/a	n/a	n/a	26	20	6	9	5
3737.88330078125	n/a	PROB	7655185	n/a	LTP336	ltpFR2	9	n/a	n/a	n/a	26	17	6	8	3
3740.18212890625	n/a	PROB	7659893	n/a	LTP336	ltpFR2	9	n/a	n/a	n/a	26	15	8	4	3
3741.947265625	n/a	PROB	7663508	n/a	LTP336	ltpFR2	9	n/a	n/a	n/a	26	16	9	1	6
3743.447265625	n/a	STOP	7666580	n/a	LTP336	ltpFR2	9	n/a	n/a	n/a	26	n/a	n/a	n/a	n/a
3746.34521484375	n/a	REC_START	7672515	n/a	LTP336	ltpFR2	9	17	n/a	n/a	n/a	n/a	0	0	0
3747.05615234375	n/a	REC_WORD	7673971	wordpools/wasnorm_wordpool_576.txt	LTP336	ltpFR2	9	17	LODGE	839	n/a	n/a	0	0	0
3747.81103515625	n/a	REC_WORD	7675517	wordpools/wasnorm_wordpool_576.txt	LTP336	ltpFR2	9	17	MOTEL	919	n/a	n/a	0	0	0
3748.8349609375	n/a	REC_WORD	7677614	wordpools/wasnorm_wordpool_576.txt	LTP336	ltpFR2	9	17	SWORD	1423	n/a	n/a	0	0	0
3750.10498046875	n/a	REC_WORD	7680215	wordpools/wasnorm_wordpool_576.txt	LTP336	ltpFR2	9	17	GRAPE	654	n/a	n/a	0	0	0
3751.52099609375	n/a	REC_WORD	7683115	wordpools/wasnorm_wordpool_576.txt	LTP336	ltpFR2	9	17	TWISTER	1530	n/a	n/a	0	0	0
3752.65283203125	n/a	REC_WORD	7685433	wordpools/wasnorm_wordpool_576.txt	LTP336	ltpFR2	9	17	SODA	1341	n/a	n/a	0	0	0
3754.3408203125	n/a	REC_WORD	7688890	wordpools/wasnorm_wordpool_576.txt	LTP336	ltpFR2	9	17	PISTOL	1075	n/a	n/a	0	0	0
3755.58251953125	n/a	REC_WORD	7691433	wordpools/wasnorm_wordpool_576.txt	LTP336	ltpFR2	9	17	MISSILE	900	n/a	n/a	0	0	0
3757.23681640625	n/a	REC_WORD	7694821	wordpools/wasnorm_wordpool_576.txt	LTP336	ltpFR2	9	17	RAZOR	1171	n/a	n/a	0	0	0
3758.36181640625	n/a	REC_WORD	7697125	wordpools/wasnorm_wordpool_576.txt	LTP336	ltpFR2	9	17	SHELF	1280	n/a	n/a	0	0	0
3760.1064453125	n/a	REC_WORD	7700698	wordpools/wasnorm_wordpool_576.txt	LTP336	ltpFR2	9	17	SPOUSE	1358	n/a	n/a	0	0	0
3761.79248046875	n/a	REC_WORD	7704151	wordpools/wasnorm_wordpool_576.txt	LTP336	ltpFR2	9	17	INFANT	737	n/a	n/a	0	0	0
3764.5634765625	n/a	REC_WORD	7709826	wordpools/wasnorm_wordpool_576.txt	LTP336	ltpFR2	9	17	FUNGUS	614	n/a	n/a	0	0	0
3765.5634765625	n/a	REC_WORD_VV	7711874	wordpools/wasnorm_wordpool_576.txt	LTP336	ltpFR2	9	17	<>	-1	n/a	n/a	0	0	0
3766.09423828125	n/a	REC_WORD	7712961	wordpools/wasnorm_wordpool_576.txt	LTP336	ltpFR2	9	17	LETTUCE	814	n/a	n/a	0	0	0
3767.24755859375	n/a	REC_WORD	7715323	wordpools/wasnorm_wordpool_576.txt	LTP336	ltpFR2	9	17	MASK	876	n/a	n/a	0	0	0
3768.80517578125	n/a	REC_WORD	7718513	wordpools/wasnorm_wordpool_576.txt	LTP336	ltpFR2	9	17	AUTHOR	61	n/a	n/a	0	0	0
3770.064453125	n/a	REC_WORD	7721092	wordpools/wasnorm_wordpool_576.txt	LTP336	ltpFR2	9	17	CAPTIVE	240	n/a	n/a	0	0	0
3771.61328125	n/a	REC_WORD	7724264	wordpools/wasnorm_wordpool_576.txt	LTP336	ltpFR2	9	17	EXPERT	543	n/a	n/a	0	0	0
3836.78466796875	n/a	WORD	7857735	wordpools/wasnorm_wordpool_576.txt	LTP336	ltpFR2	9	18	AIRPLANE	12	n/a	n/a	0	0	0
3839.58349609375	n/a	WORD	7863467	wordpools/wasnorm_wordpool_576.txt	LTP336	ltpFR2	9	18	PLIERS	1089	n/a	n/a	0	0	0
3842.13232421875	n/a	WORD	7868687	wordpools/wasnorm_wordpool_576.txt	LTP336	ltpFR2	9	18	CLOUD	328	n/a	n/a	0	0	0
3844.79833984375	n/a	WORD	7874147	wordpools/wasnorm_wordpool_576.txt	LTP336	ltpFR2	9	18	PROTON	1132	n/a	n/a	0	0	0
3847.529296875	n/a	WORD	7879740	wordpools/wasnorm_wordpool_576.txt	LTP336	ltpFR2	9	18	SAUSAGE	1238	n/a	n/a	0	0	0
3850.12890625	n/a	WORD	7885064	wordpools/wasnorm_wordpool_576.txt	LTP336	ltpFR2	9	18	LIGHTNING	820	n/a	n/a	0	0	0
3852.56005859375	n/a	WORD	7890043	wordpools/wasnorm_wordpool_576.txt	LTP336	ltpFR2	9	18	LUNCH	849	n/a	n/a	0	0	0
3855.27587890625	n/a	WORD	7895605	wordpools/wasnorm_wordpool_576.txt	LTP336	ltpFR2	9	18	RUG	1215	n/a	n/a	0	0	0
3857.77392578125	n/a	WORD	7900721	wordpools/wasnorm_wordpool_576.txt	LTP336	ltpFR2	9	18	MOP	916	n/a	n/a	0	0	0
3860.24072265625	n/a	WORD	7905773	wordpools/wasnorm_wordpool_576.txt	LTP336	ltpFR2	9	18	YACHT	1629	n/a	n/a	0	0	0
3862.8896484375	n/a	WORD	7911198	wordpools/wasnorm_wordpool_576.txt	LTP336	ltpFR2	9	18	JURY	766	n/a	n/a	0	0	0
3865.337890625	n/a	WORD	7916212	wordpools/wasnorm_wordpool_576.txt	LTP336	ltpFR2	9	18	SIBLING	1301	n/a	n/a	0	0	0
3868.07080078125	n/a	WORD	7921809	wordpools/wasnorm_wordpool_576.txt	LTP336	ltpFR2	9	18	SALMON	1227	n/a	n/a	0	0	0
3870.734375	n/a	WORD	7927264	wordpools/wasnorm_wordpool_576.txt	LTP336	ltpFR2	9	18	GLOVE	642	n/a	n/a	0	0	0
3873.20166015625	n/a	WORD	7932317	wordpools/wasnorm_wordpool_576.txt	LTP336	ltpFR2	9	18	PADDLE	1000	n/a	n/a	0	0	0
3875.74951171875	n/a	WORD	7937535	wordpools/wasnorm_wordpool_576.txt	LTP336	ltpFR2	9	18	TART	1436	n/a	n/a	0	0	0
3878.54736328125	n/a	WORD	7943265	wordpools/wasnorm_wordpool_576.txt	LTP336	ltpFR2	9	18	NAPKIN	937	n/a	n/a	0	0	0
3881.1142578125	n/a	WORD	7948522	wordpools/wasnorm_wordpool_576.txt	LTP336	ltpFR2	9	18	BANK	83	n/a	n/a	0	0	0
3883.8623046875	n/a	WORD	7954150	wordpools/wasnorm_wordpool_576.txt	LTP336	ltpFR2	9	18	SCOTCH	1251	n/a	n/a	0	0	0
3886.64404296875	n/a	WORD	7959847	wordpools/wasnorm_wordpool_576.txt	LTP336	ltpFR2	9	18	BARLEY	88	n/a	n/a	0	0	0
3889.27685546875	n/a	WORD	7965239	wordpools/wasnorm_wordpool_576.txt	LTP336	ltpFR2	9	18	STATUE	1374	n/a	n/a	0	0	0
3891.958984375	n/a	WORD	7970732	wordpools/wasnorm_wordpool_576.txt	LTP336	ltpFR2	9	18	PAIL	1002	n/a	n/a	0	0	0
3894.70703125	n/a	WORD	7976360	wordpools/wasnorm_wordpool_576.txt	LTP336	ltpFR2	9	18	BROOK	177	n/a	n/a	0	0	0
3897.35498046875	n/a	WORD	7981783	wordpools/wasnorm_wordpool_576.txt	LTP336	ltpFR2	9	18	CRAB	397	n/a	n/a	0	0	0
3898.97265625	n/a	START	7985096	n/a	LTP336	ltpFR2	9	n/a	n/a	n/a	27	n/a	n/a	n/a	n/a
3899.95166015625	n/a	DISTRACTOR	7987101	n/a	LTP336	ltpFR2	9	18	n/a	n/a	n/a	n/a	0	0	0
3899.95458984375	n/a	PROB	7987107	n/a	LTP336	ltpFR2	9	n/a	n/a	n/a	27	11	5	1	5
3903.81982421875	n/a	PROB	7995023	n/a	LTP336	ltpFR2	9	n/a	n/a	n/a	27	19	7	6	6
3905.935546875	n/a	PROB	7999356	n/a	LTP336	ltpFR2	9	n/a	n/a	n/a	27	18	7	4	7
3908.599609375	n/a	PROB	8004812	n/a	LTP336	ltpFR2	9	n/a	n/a	n/a	27	15	5	5	5
3910.05029296875	n/a	PROB	8007783	n/a	LTP336	ltpFR2	9	n/a	n/a	n/a	27	24	9	8	7
3913.68017578125	n/a	PROB	8015217	n/a	LTP336	ltpFR2	9	n/a	n/a	n/a	27	14	8	4	2
3915.814453125	n/a	PROB	8019588	n/a	LTP336	ltpFR2	9	n/a	n/a	n/a	27	20	6	6	8
3917.529296875	n/a	PROB	8023100	n/a	LTP336	ltpFR2	9	n/a	n/a	n/a	27	10	1	2	7
3919.01220703125	n/a	PROB	8026137	n/a	LTP336	ltpFR2	9	n/a	n/a	n/a	27	16	4	6	6
3922.13720703125	n/a	STOP	8032537	n/a	LTP336	ltpFR2	9	n/a	n/a	n/a	27	n/a	n/a	n/a	n/a
3924.84326171875	n/a	REC_START	8038079	n/a	LTP336	ltpFR2	9	18	n/a	n/a	n/a	n/a	0	0	0
3925.68408203125	n/a	REC_WORD	8039801	wordpools/wasnorm_wordpool_576.txt	LTP336	ltpFR2	9	18	STATUE	1374	n/a	n/a	0	0	0
3926.9150390625	n/a	REC_WORD	8042322	wordpools/wasnorm_wordpool_576.txt	LTP336	ltpFR2	9	18	PAIL	1002	n/a	n/a	0	0	0
3928.091796875	n/a	REC_WORD	8044732	wordpools/wasnorm_wordpool_576.txt	LTP336	ltpFR2	9	18	MILK	895	n/a	n/a	0	0	0
3929.72998046875	n/a	REC_WORD	8048087	wordpools/wasnorm_wordpool_576.txt	LTP336	ltpFR2	9	18	GLOVE	642	n/a	n/a	0	0	0
3931.2548828125	n/a	REC_WORD	8051210	wordpools/wasnorm_wordpool_576.txt	LTP336	ltpFR2	9	18	BANK	83	n/a	n/a	0	0	0
3932.68505859375	n/a	REC_WORD	8054139	wordpools/wasnorm_wordpool_576.txt	LTP336	ltpFR2	9	18	TART	1436	n/a	n/a	0	0	0
3933.98681640625	n/a	REC_WORD	8056805	wordpools/wasnorm_wordpool_576.txt	LTP336	ltpFR2	9	18	SALMON	1227	n/a	n/a	0	0	0
3936.2177734375	n/a	REC_WORD	8061374	wordpools/wasnorm_wordpool_576.txt	LTP336	ltpFR2	9	18	NAPKIN	937	n/a	n/a	0	0	0
3940.83349609375	n/a	REC_WORD	8070827	wordpools/wasnorm_wordpool_576.txt	LTP336	ltpFR2	9	18	LIGHTNING	820	n/a	n/a	0	0	0
3943.08740234375	n/a	REC_WORD	8075443	wordpools/wasnorm_wordpool_576.txt	LTP336	ltpFR2	9	18	PAIL	1002	n/a	n/a	0	0	0
3948.8984375	n/a	REC_WORD	8087344	wordpools/wasnorm_wordpool_576.txt	LTP336	ltpFR2	9	18	MOP	916	n/a	n/a	0	0	0
3950.60546875	n/a	REC_WORD	8090840	wordpools/wasnorm_wordpool_576.txt	LTP336	ltpFR2	9	18	RUG	1215	n/a	n/a	0	0	0
3953.4375	n/a	REC_WORD	8096640	wordpools/wasnorm_wordpool_576.txt	LTP336	ltpFR2	9	18	YACHT	1629	n/a	n/a	0	0	0
4015.3154296875	n/a	WORD	8223366	wordpools/wasnorm_wordpool_576.txt	LTP336	ltpFR2	9	19	TUTU	1524	n/a	n/a	0	0	0
4018.064453125	n/a	WORD	8228996	wordpools/wasnorm_wordpool_576.txt	LTP336	ltpFR2	9	19	TWEEZERS	1526	n/a	n/a	0	0	0
4020.6962890625	n/a	WORD	8234386	wordpools/wasnorm_wordpool_576.txt	LTP336	ltpFR2	9	19	DRINK	498	n/a	n/a	0	0	0
4023.279296875	n/a	WORD	8239676	wordpools/wasnorm_wordpool_576.txt	LTP336	ltpFR2	9	19	PIANO	1057	n/a	n/a	0	0	0
4025.79443359375	n/a	WORD	8244827	wordpools/wasnorm_wordpool_576.txt	LTP336	ltpFR2	9	19	CAFE	216	n/a	n/a	0	0	0
