onset	duration	trial_type	sample	stim_file	subject	experiment	session	trial	task	item_name	item_num	recog_conf	resp	color_b	color_g	color_r	case	font
269.096	n/a	SESS_START	134548	n/a	LTP092	ltpFR	2	n/a	n/a	n/a	n/a	1	n/a	n/a	n/a	n/a	n/a	n/a
327.928	n/a	WORD	163964	wordpools/wasnorm_wordpool.txt	LTP092	ltpFR	2	1	0	PUMPKIN	1142	1	0	0	0.5869140625	0.422607421875	lower	../fonts/amplitud.ttf
332.088	n/a	WORD	166044	wordpools/wasnorm_wordpool.txt	LTP092	ltpFR	2	1	0	SHORTCAKE	1292	n/a	0	0	0.5869140625	0.422607421875	lower	../fonts/amplitud.ttf
336.21	n/a	WORD	168105	wordpools/wasnorm_wordpool.txt	LTP092	ltpFR	2	1	1	VAULT	1550	n/a	0	1	0.412841796875	0.57763671875	upper	../fonts/zerothre.ttf
340.064	n/a	WORD	170032	wordpools/wasnorm_wordpool.txt	LTP092	ltpFR	2	1	1	ENEMY	534	n/a	1	1	0.412841796875	0.57763671875	upper	../fonts/zerothre.ttf
344.042	n/a	WORD	172021	wordpools/wasnorm_wordpool.txt	LTP092	ltpFR	2	1	1	WORM	1623	n/a	1	1	0.412841796875	0.57763671875	upper	../fonts/zerothre.ttf
348.112	n/a	WORD	174056	wordpools/wasnorm_wordpool.txt	LTP092	ltpFR	2	1	1	ROACH	1195	n/a	1	1	0.412841796875	0.57763671875	upper	../fonts/zerothre.ttf
352.29	n/a	WORD	176145	wordpools/wasnorm_wordpool.txt	LTP092	ltpFR	2	1	0	TYPEWRITER	1531	n/a	1	0	0.5869140625	0.422607421875	lower	../fonts/amplitud.ttf
356.302	n/a	WORD	178151	wordpools/wasnorm_wordpool.txt	LTP092	ltpFR	2	1	0	LIST	830	n/a	1	0	0.5869140625	0.422607421875	lower	../fonts/amplitud.ttf
360.348	n/a	WORD	180174	wordpools/wasnorm_wordpool.txt	LTP092	ltpFR	2	1	1	PLATE	1086	n/a	0	1	0.412841796875	0.57763671875	upper	../fonts/zerothre.ttf
364.552	n/a	WORD	182276	wordpools/wasnorm_wordpool.txt	LTP092	ltpFR	2	1	1	LOVER	846	n/a	1	1	0.412841796875	0.57763671875	upper	../fonts/zerothre.ttf
368.73	n/a	WORD	184365	wordpools/wasnorm_wordpool.txt	LTP092	ltpFR	2	1	1	HAWK	692	n/a	1	1	0.412841796875	0.57763671875	upper	../fonts/zerothre.ttf
372.726	n/a	WORD	186363	wordpools/wasnorm_wordpool.txt	LTP092	ltpFR	2	1	1	BIRD	129	n/a	1	1	0.412841796875	0.57763671875	upper	../fonts/zerothre.ttf
376.896	n/a	WORD	188448	wordpools/wasnorm_wordpool.txt	LTP092	ltpFR	2	1	0	WRITER	1627	n/a	n/a	0	0.5869140625	0.422607421875	lower	../fonts/amplitud.ttf
379.916	n/a	SLOW_MSG	189958	n/a	LTP092	ltpFR	2	1	n/a	n/a	n/a	n/a	n/a	n/a	n/a	n/a	n/a	n/a
382.348	n/a	WORD	191174	wordpools/wasnorm_wordpool.txt	LTP092	ltpFR	2	1	0	TROMBONE	1508	n/a	1	0	0.5869140625	0.422607421875	lower	../fonts/amplitud.ttf
386.194	n/a	WORD	193097	wordpools/wasnorm_wordpool.txt	LTP092	ltpFR	2	1	0	SARDINE	1235	n/a	0	0	0.5869140625	0.422607421875	lower	../fonts/amplitud.ttf
390.164	n/a	WORD	195082	wordpools/wasnorm_wordpool.txt	LTP092	ltpFR	2	1	0	BANK	83	n/a	1	0	0.5869140625	0.422607421875	lower	../fonts/amplitud.ttf
395.776	n/a	REC_START	197888	n/a	LTP092	ltpFR	2	1	n/a	n/a	n/a	n/a	n/a	n/a	n/a	n/a	n/a	n/a
397.296	n/a	REC_WORD	198648	wordpools/wasnorm_wordpool.txt	LTP092	ltpFR	2	1	1	ENEMY	534	n/a	1	n/a	n/a	n/a	n/a	n/a
398.07	n/a	REC_WORD	199035	wordpools/wasnorm_wordpool.txt	LTP092	ltpFR	2	1	1	LOVER	846	n/a	1	n/a	n/a	n/a	n/a	n/a
399.054	n/a	REC_WORD	199527	wordpools/wasnorm_wordpool.txt	LTP092	ltpFR	2	1	1	VAULT	1550	n/a	0	n/a	n/a	n/a	n/a	n/a
400.37	n/a	REC_WORD	200185	wordpools/wasnorm_wordpool.txt	LTP092	ltpFR	2	1	1	WORM	1623	n/a	1	n/a	n/a	n/a	n/a	n/a
401.852	n/a	REC_WORD	200926	wordpools/wasnorm_wordpool.txt	LTP092	ltpFR	2	1	0	PUMPKIN	1142	n/a	0	n/a	n/a	n/a	n/a	n/a
402.698	n/a	REC_WORD	201349	wordpools/wasnorm_wordpool.txt	LTP092	ltpFR	2	1	0	SHORTCAKE	1292	n/a	0	n/a	n/a	n/a	n/a	n/a
405.444	n/a	REC_WORD	202722	wordpools/wasnorm_wordpool.txt	LTP092	ltpFR	2	1	0	TYPEWRITER	1531	n/a	1	n/a	n/a	n/a	n/a	n/a
406.432	n/a	REC_WORD	203216	wordpools/wasnorm_wordpool.txt	LTP092	ltpFR	2	1	0	WRITER	1627	n/a	n/a	n/a	n/a	n/a	n/a	n/a
409.894	n/a	REC_WORD	204947	wordpools/wasnorm_wordpool.txt	LTP092	ltpFR	2	1	0	SARDINE	1235	n/a	0	n/a	n/a	n/a	n/a	n/a
413.3	n/a	REC_WORD	206650	wordpools/wasnorm_wordpool.txt	LTP092	ltpFR	2	1	1	HAWK	692	n/a	1	n/a	n/a	n/a	n/a	n/a
414.294	n/a	REC_WORD	207147	wordpools/wasnorm_wordpool.txt	LTP092	ltpFR	2	1	1	BIRD	129	n/a	1	n/a	n/a	n/a	n/a	n/a
422.38	n/a	REC_WORD	211190	wordpools/wasnorm_wordpool.txt	LTP092	ltpFR	2	1	0	LIST	830	n/a	1	n/a	n/a	n/a	n/a	n/a
461.702	n/a	REC_WORD	230851	wordpools/wasnorm_wordpool.txt	LTP092	ltpFR	2	1	0	TROMBONE	1508	n/a	1	n/a	n/a	n/a	n/a	n/a
483.59	n/a	WORD	241795	wordpools/wasnorm_wordpool.txt	LTP092	ltpFR	2	2	1	LIEUTENANT	818	n/a	1	1	0.412841796875	0.57763671875	upper	../fonts/zerothre.ttf
487.636	n/a	WORD	243818	wordpools/wasnorm_wordpool.txt	LTP092	ltpFR	2	2	1	AMBULANCE	19	n/a	0	1	0.412841796875	0.57763671875	upper	../fonts/zerothre.ttf
491.756	n/a	WORD	245878	wordpools/wasnorm_wordpool.txt	LTP092	ltpFR	2	2	0	WINDSHIELD	1612	n/a	1	0	0.5869140625	0.422607421875	lower	../fonts/amplitud.ttf
495.568	n/a	WORD	247784	wordpools/wasnorm_wordpool.txt	LTP092	ltpFR	2	2	0	FAUCET	555	n/a	0	0	0.5869140625	0.422607421875	lower	../fonts/amplitud.ttf
499.522	n/a	WORD	249761	wordpools/wasnorm_wordpool.txt	LTP092	ltpFR	2	2	0	FOUNTAIN	597	n/a	1	0	0.5869140625	0.422607421875	lower	../fonts/amplitud.ttf
503.492	n/a	WORD	251746	wordpools/wasnorm_wordpool.txt	LTP092	ltpFR	2	2	0	ICEBERG	731	n/a	1	0	0.5869140625	0.422607421875	lower	../fonts/amplitud.ttf
507.578	n/a	WORD	253789	wordpools/wasnorm_wordpool.txt	LTP092	ltpFR	2	2	0	TURKEY	1520	n/a	0	0	0.5869140625	0.422607421875	lower	../fonts/amplitud.ttf
511.54	n/a	WORD	255770	wordpools/wasnorm_wordpool.txt	LTP092	ltpFR	2	2	1	SIRLOIN	1311	n/a	0	1	0.412841796875	0.57763671875	upper	../fonts/zerothre.ttf
515.636	n/a	WORD	257818	wordpools/wasnorm_wordpool.txt	LTP092	ltpFR	2	2	1	OVAL	990	n/a	0	1	0.412841796875	0.57763671875	upper	../fonts/zerothre.ttf
519.706	n/a	WORD	259853	wordpools/wasnorm_wordpool.txt	LTP092	ltpFR	2	2	1	CANDIDATE	228	n/a	1	1	0.412841796875	0.57763671875	upper	../fonts/zerothre.ttf
523.71	n/a	WORD	261855	wordpools/wasnorm_wordpool.txt	LTP092	ltpFR	2	2	1	SQUIRREL	1362	n/a	1	1	0.412841796875	0.57763671875	upper	../fonts/zerothre.ttf
527.548	n/a	WORD	263774	wordpools/wasnorm_wordpool.txt	LTP092	ltpFR	2	2	1	COOKIE	374	n/a	0	1	0.412841796875	0.57763671875	upper	../fonts/zerothre.ttf
531.744	n/a	WORD	265872	wordpools/wasnorm_wordpool.txt	LTP092	ltpFR	2	2	1	SPACE	1345	n/a	0	1	0.412841796875	0.57763671875	upper	../fonts/zerothre.ttf
535.63	n/a	WORD	267815	wordpools/wasnorm_wordpool.txt	LTP092	ltpFR	2	2	0	FREEZER	604	n/a	1	0	0.5869140625	0.422607421875	lower	../fonts/amplitud.ttf
539.442	n/a	WORD	269721	wordpools/wasnorm_wordpool.txt	LTP092	ltpFR	2	2	0	CUBE	420	n/a	0	0	0.5869140625	0.422607421875	lower	../fonts/amplitud.ttf
543.264	n/a	WORD	271632	wordpools/wasnorm_wordpool.txt	LTP092	ltpFR	2	2	0	RODENT	1204	n/a	0	0	0.5869140625	0.422607421875	lower	../fonts/amplitud.ttf
549.032	n/a	REC_START	274516	n/a	LTP092	ltpFR	2	2	n/a	n/a	n/a	n/a	n/a	n/a	n/a	n/a	n/a	n/a
551.132	n/a	REC_WORD	275566	wordpools/wasnorm_wordpool.txt	LTP092	ltpFR	2	2	1	LIEUTENANT	818	n/a	1	n/a	n/a	n/a	n/a	n/a
552.6	n/a	REC_WORD	276300	wordpools/wasnorm_wordpool.txt	LTP092	ltpFR	2	2	1	AMBULANCE	19	n/a	0	n/a	n/a	n/a	n/a	n/a
554.66	n/a	REC_WORD	277330	wordpools/wasnorm_wordpool.txt	LTP092	ltpFR	2	2	0	ICEBERG	731	n/a	1	n/a	n/a	n/a	n/a	n/a
555.636	n/a	REC_WORD	277818	wordpools/wasnorm_wordpool.txt	LTP092	ltpFR	2	2	0	FREEZER	604	n/a	1	n/a	n/a	n/a	n/a	n/a
556.864	n/a	REC_WORD	278432	wordpools/wasnorm_wordpool.txt	LTP092	ltpFR	2	2	0	CUBE	420	n/a	0	n/a	n/a	n/a	n/a	n/a
558.182	n/a	REC_WORD	279091	wordpools/wasnorm_wordpool.txt	LTP092	ltpFR	2	2	0	FAUCET	555	n/a	0	n/a	n/a	n/a	n/a	n/a
559.732	n/a	REC_WORD	279866	wordpools/wasnorm_wordpool.txt	LTP092	ltpFR	2	2	0	FOUNTAIN	597	n/a	1	n/a	n/a	n/a	n/a	n/a
574.156	n/a	REC_WORD	287078	wordpools/wasnorm_wordpool.txt	LTP092	ltpFR	2	2	1	SQUIRREL	1362	n/a	1	n/a	n/a	n/a	n/a	n/a
597.646	n/a	REC_WORD	298823	wordpools/wasnorm_wordpool.txt	LTP092	ltpFR	2	2	0	TURKEY	1520	n/a	0	n/a	n/a	n/a	n/a	n/a
632.278	n/a	WORD	316139	wordpools/wasnorm_wordpool.txt	LTP092	ltpFR	2	3	0	CLERK	321	n/a	1	0	0.5869140625	0.422607421875	lower	../fonts/amplitud.ttf
636.29	n/a	WORD	318145	wordpools/wasnorm_wordpool.txt	LTP092	ltpFR	2	3	0	OCEAN	970	n/a	1	0	0.5869140625	0.422607421875	lower	../fonts/amplitud.ttf
640.334	n/a	WORD	320167	wordpools/wasnorm_wordpool.txt	LTP092	ltpFR	2	3	0	SEASHORE	1263	n/a	1	0	0.5869140625	0.422607421875	lower	../fonts/amplitud.ttf
644.214	n/a	WORD	322107	wordpools/wasnorm_wordpool.txt	LTP092	ltpFR	2	3	0	FREEWAY	603	n/a	1	0	0.5869140625	0.422607421875	lower	../fonts/amplitud.ttf
648.25	n/a	WORD	324125	wordpools/wasnorm_wordpool.txt	LTP092	ltpFR	2	3	0	SYRINGE	1424	n/a	0	0	0.5869140625	0.422607421875	lower	../fonts/amplitud.ttf
652.112	n/a	WORD	326056	wordpools/wasnorm_wordpool.txt	LTP092	ltpFR	2	3	0	LETTER	813	n/a	0	0	0.5869140625	0.422607421875	lower	../fonts/amplitud.ttf
656.108	n/a	WORD	328054	wordpools/wasnorm_wordpool.txt	LTP092	ltpFR	2	3	0	DIRECTOR	471	n/a	1	0	0.5869140625	0.422607421875	lower	../fonts/amplitud.ttf
660.236	n/a	WORD	330118	wordpools/wasnorm_wordpool.txt	LTP092	ltpFR	2	3	0	PASSENGER	1020	n/a	1	0	0.5869140625	0.422607421875	lower	../fonts/amplitud.ttf
664.108	n/a	WORD	332054	wordpools/wasnorm_wordpool.txt	LTP092	ltpFR	2	3	0	ENGINE	535	n/a	1	0	0.5869140625	0.422607421875	lower	../fonts/amplitud.ttf
668.244	n/a	WORD	334122	wordpools/wasnorm_wordpool.txt	LTP092	ltpFR	2	3	0	PACKAGE	997	n/a	1	0	0.5869140625	0.422607421875	lower	../fonts/amplitud.ttf
672.406	n/a	WORD	336203	wordpools/wasnorm_wordpool.txt	LTP092	ltpFR	2	3	0	KNAPSACK	783	n/a	1	0	0.5869140625	0.422607421875	lower	../fonts/amplitud.ttf
676.334	n/a	WORD	338167	wordpools/wasnorm_wordpool.txt	LTP092	ltpFR	2	3	0	BOUILLON	154	n/a	0	0	0.5869140625	0.422607421875	lower	../fonts/amplitud.ttf
680.364	n/a	WORD	340182	wordpools/wasnorm_wordpool.txt	LTP092	ltpFR	2	3	0	PIN	1072	n/a	0	0	0.5869140625	0.422607421875	lower	../fonts/amplitud.ttf
684.218	n/a	WORD	342109	wordpools/wasnorm_wordpool.txt	LTP092	ltpFR	2	3	0	HAMMOCK	681	n/a	1	0	0.5869140625	0.422607421875	lower	../fonts/amplitud.ttf
688.088	n/a	WORD	344044	wordpools/wasnorm_wordpool.txt	LTP092	ltpFR	2	3	0	SPOON	1357	n/a	0	0	0.5869140625	0.422607421875	lower	../fonts/amplitud.ttf
692.176	n/a	WORD	346088	wordpools/wasnorm_wordpool.txt	LTP092	ltpFR	2	3	0	BOULEVARD	156	n/a	1	0	0.5869140625	0.422607421875	lower	../fonts/amplitud.ttf
698.178	n/a	REC_START	349089	n/a	LTP092	ltpFR	2	3	n/a	n/a	n/a	n/a	n/a	n/a	n/a	n/a	n/a	n/a
699.264	n/a	REC_WORD	349632	wordpools/wasnorm_wordpool.txt	LTP092	ltpFR	2	3	0	BOULEVARD	156	n/a	1	n/a	n/a	n/a	n/a	n/a
700.162	n/a	REC_WORD	350081	wordpools/wasnorm_wordpool.txt	LTP092	ltpFR	2	3	0	FREEWAY	603	n/a	1	n/a	n/a	n/a	n/a	n/a
701.156	n/a	REC_WORD	350578	wordpools/wasnorm_wordpool.txt	LTP092	ltpFR	2	3	0	ENGINE	535	n/a	1	n/a	n/a	n/a	n/a	n/a
702.608	n/a	REC_WORD	351304	wordpools/wasnorm_wordpool.txt	LTP092	ltpFR	2	3	0	SEASHORE	1263	n/a	1	n/a	n/a	n/a	n/a	n/a
703.734	n/a	REC_WORD	351867	wordpools/wasnorm_wordpool.txt	LTP092	ltpFR	2	3	0	OCEAN	970	n/a	1	n/a	n/a	n/a	n/a	n/a
704.758	n/a	REC_WORD	352379	wordpools/wasnorm_wordpool.txt	LTP092	ltpFR	2	3	0	PASSENGER	1020	n/a	1	n/a	n/a	n/a	n/a	n/a
706.12	n/a	REC_WORD	353060	wordpools/wasnorm_wordpool.txt	LTP092	ltpFR	2	3	0	PACKAGE	997	n/a	1	n/a	n/a	n/a	n/a	n/a
707.566	n/a	REC_WORD	353783	wordpools/wasnorm_wordpool.txt	LTP092	ltpFR	2	3	0	KNAPSACK	783	n/a	1	n/a	n/a	n/a	n/a	n/a
708.908	n/a	REC_WORD	354454	wordpools/wasnorm_wordpool.txt	LTP092	ltpFR	2	3	0	SYRINGE	1424	n/a	0	n/a	n/a	n/a	n/a	n/a
710.39	n/a	REC_WORD	355195	wordpools/wasnorm_wordpool.txt	LTP092	ltpFR	2	3	0	BOUILLON	154	n/a	0	n/a	n/a	n/a	n/a	n/a
712.036	n/a	REC_WORD	356018	wordpools/wasnorm_wordpool.txt	LTP092	ltpFR	2	3	0	PIN	1072	n/a	0	n/a	n/a	n/a	n/a	n/a
714.27	n/a	REC_WORD	357135	wordpools/wasnorm_wordpool.txt	LTP092	ltpFR	2	3	0	SPOON	1357	n/a	0	n/a	n/a	n/a	n/a	n/a
779.092	n/a	WORD	389546	wordpools/wasnorm_wordpool.txt	LTP092	ltpFR	2	4	-1	GANGSTER	620	n/a	-1	1	1.0	1.0	upper	../fonts/Verdana.ttf
783.188	n/a	WORD	391594	wordpools/wasnorm_wordpool.txt	LTP092	ltpFR	2	4	-1	BUBBLE	183	n/a	-1	1	1.0	1.0	upper	../fonts/Verdana.ttf
787.374	n/a	WORD	393687	wordpools/wasnorm_wordpool.txt	LTP092	ltpFR	2	4	-1	NECKLACE	940	n/a	-1	1	1.0	1.0	upper	../fonts/Verdana.ttf
791.454	n/a	WORD	395727	wordpools/wasnorm_wordpool.txt	LTP092	ltpFR	2	4	-1	NOMAD	955	n/a	-1	1	1.0	1.0	upper	../fonts/Verdana.ttf
795.606	n/a	WORD	397803	wordpools/wasnorm_wordpool.txt	LTP092	ltpFR	2	4	-1	FUNERAL	613	n/a	-1	1	1.0	1.0	upper	../fonts/Verdana.ttf
799.726	n/a	WORD	399863	wordpools/wasnorm_wordpool.txt	LTP092	ltpFR	2	4	-1	MATCH	878	n/a	-1	1	1.0	1.0	upper	../fonts/Verdana.ttf
803.58	n/a	WORD	401790	wordpools/wasnorm_wordpool.txt	LTP092	ltpFR	2	4	-1	BLENDER	136	n/a	-1	1	1.0	1.0	upper	../fonts/Verdana.ttf
807.552	n/a	WORD	403776	wordpools/wasnorm_wordpool.txt	LTP092	ltpFR	2	4	-1	TIMBER	1469	n/a	-1	1	1.0	1.0	upper	../fonts/Verdana.ttf
811.438	n/a	WORD	405719	wordpools/wasnorm_wordpool.txt	LTP092	ltpFR	2	4	-1	SKIN	1318	n/a	-1	1	1.0	1.0	upper	../fonts/Verdana.ttf
815.466	n/a	WORD	407733	wordpools/wasnorm_wordpool.txt	LTP092	ltpFR	2	4	-1	FLESH	579	n/a	-1	1	1.0	1.0	upper	../fonts/Verdana.ttf
819.62	n/a	WORD	409810	wordpools/wasnorm_wordpool.txt	LTP092	ltpFR	2	4	-1	WALL	1582	n/a	-1	1	1.0	1.0	upper	../fonts/Verdana.ttf
823.808	n/a	WORD	411904	wordpools/wasnorm_wordpool.txt	LTP092	ltpFR	2	4	-1	TILE	1468	n/a	-1	1	1.0	1.0	upper	../fonts/Verdana.ttf
827.778	n/a	WORD	413889	wordpools/wasnorm_wordpool.txt	LTP092	ltpFR	2	4	-1	CABIN	211	n/a	-1	1	1.0	1.0	upper	../fonts/Verdana.ttf
831.698	n/a	WORD	415849	wordpools/wasnorm_wordpool.txt	LTP092	ltpFR	2	4	-1	CHAMPAGNE	278	n/a	-1	1	1.0	1.0	upper	../fonts/Verdana.ttf
835.728	n/a	WORD	417864	wordpools/wasnorm_wordpool.txt	LTP092	ltpFR	2	4	-1	CHAIN	273	n/a	-1	1	1.0	1.0	upper	../fonts/Verdana.ttf
839.772	n/a	WORD	419886	wordpools/wasnorm_wordpool.txt	LTP092	ltpFR	2	4	-1	RUST	1219	n/a	-1	1	1.0	1.0	upper	../fonts/Verdana.ttf
845.85	n/a	REC_START	422925	n/a	LTP092	ltpFR	2	4	n/a	n/a	n/a	n/a	n/a	n/a	n/a	n/a	n/a	n/a
846.812	n/a	REC_WORD	423406	wordpools/wasnorm_wordpool.txt	LTP092	ltpFR	2	4	-1	GANGSTER	620	n/a	-1	n/a	n/a	n/a	n/a	n/a
847.734	n/a	REC_WORD	423867	wordpools/wasnorm_wordpool.txt	LTP092	ltpFR	2	4	-1	NOMAD	955	n/a	-1	n/a	n/a	n/a	n/a	n/a
849.326	n/a	REC_WORD	424663	wordpools/wasnorm_wordpool.txt	LTP092	ltpFR	2	4	-1	BUBBLE	183	n/a	-1	n/a	n/a	n/a	n/a	n/a
849.814	n/a	REC_WORD	424907	wordpools/wasnorm_wordpool.txt	LTP092	ltpFR	2	4	-1	NECKLACE	940	n/a	-1	n/a	n/a	n/a	n/a	n/a
851.198	n/a	REC_WORD	425599	wordpools/wasnorm_wordpool.txt	LTP092	ltpFR	2	4	-1	MATCH	878	n/a	-1	n/a	n/a	n/a	n/a	n/a
852.568	n/a	REC_WORD	426284	wordpools/wasnorm_wordpool.txt	LTP092	ltpFR	2	4	-1	SKIN	1318	n/a	-1	n/a	n/a	n/a	n/a	n/a
853.398	n/a	REC_WORD	426699	wordpools/wasnorm_wordpool.txt	LTP092	ltpFR	2	4	-1	FLESH	579	n/a	-1	n/a	n/a	n/a	n/a	n/a
854.43	n/a	REC_WORD	427215	wordpools/wasnorm_wordpool.txt	LTP092	ltpFR	2	4	-1	BLENDER	136	n/a	-1	n/a	n/a	n/a	n/a	n/a
856.0	n/a	REC_WORD	428000	wordpools/wasnorm_wordpool.txt	LTP092	ltpFR	2	4	-1	WALL	1582	n/a	-1	n/a	n/a	n/a	n/a	n/a
856.934	n/a	REC_WORD	428467	wordpools/wasnorm_wordpool.txt	LTP092	ltpFR	2	4	-1	TILE	1468	n/a	-1	n/a	n/a	n/a	n/a	n/a
858.396	n/a	REC_WORD	429198	wordpools/wasnorm_wordpool.txt	LTP092	ltpFR	2	4	-1	TIMBER	1469	n/a	-1	n/a	n/a	n/a	n/a	n/a
860.994	n/a	REC_WORD	430497	wordpools/wasnorm_wordpool.txt	LTP092	ltpFR	2	4	-1	FUNERAL	613	n/a	-1	n/a	n/a	n/a	n/a	n/a
862.91	n/a	REC_WORD	431455	wordpools/wasnorm_wordpool.txt	LTP092	ltpFR	2	4	-1	CABIN	211	n/a	-1	n/a	n/a	n/a	n/a	n/a
897.642	n/a	REC_WORD	448821	wordpools/wasnorm_wordpool.txt	LTP092	ltpFR	2	4	-1	CHAIN	273	n/a	-1	n/a	n/a	n/a	n/a	n/a
936.462	n/a	WORD	468231	wordpools/wasnorm_wordpool.txt	LTP092	ltpFR	2	5	1	CHICK	296	n/a	1	1	0.412841796875	0.57763671875	upper	../fonts/zerothre.ttf
940.498	n/a	WORD	470249	wordpools/wasnorm_wordpool.txt	LTP092	ltpFR	2	5	1	RABBIT	1152	n/a	1	1	0.412841796875	0.57763671875	upper	../fonts/zerothre.ttf
944.552	n/a	WORD	472276	wordpools/wasnorm_wordpool.txt	LTP092	ltpFR	2	5	1	MAGICIAN	854	n/a	1	1	0.412841796875	0.57763671875	upper	../fonts/zerothre.ttf
948.63	n/a	WORD	474315	wordpools/wasnorm_wordpool.txt	LTP092	ltpFR	2	5	0	SWING	1421	n/a	1	0	0.5869140625	0.422607421875	lower	../fonts/amplitud.ttf
952.792	n/a	WORD	476396	wordpools/wasnorm_wordpool.txt	LTP092	ltpFR	2	5	0	SHACK	1273	n/a	1	0	0.5869140625	0.422607421875	lower	../fonts/amplitud.ttf
956.604	n/a	WORD	478302	wordpools/wasnorm_wordpool.txt	LTP092	ltpFR	2	5	0	ZEBRA	1635	n/a	1	0	0.5869140625	0.422607421875	lower	../fonts/amplitud.ttf
960.426	n/a	WORD	480213	wordpools/wasnorm_wordpool.txt	LTP092	ltpFR	2	5	0	SANDWICH	1232	n/a	0	0	0.5869140625	0.422607421875	lower	../fonts/amplitud.ttf
964.546	n/a	WORD	482273	wordpools/wasnorm_wordpool.txt	LTP092	ltpFR	2	5	1	NOTEBOOK	959	n/a	0	1	0.412841796875	0.57763671875	upper	../fonts/zerothre.ttf
968.5	n/a	WORD	484250	wordpools/wasnorm_wordpool.txt	LTP092	ltpFR	2	5	1	CHICKEN	297	n/a	1	1	0.412841796875	0.57763671875	upper	../fonts/zerothre.ttf
972.312	n/a	WORD	486156	wordpools/wasnorm_wordpool.txt	LTP092	ltpFR	2	5	0	GYMNAST	675	n/a	1	0	0.5869140625	0.422607421875	lower	../fonts/amplitud.ttf
976.14	n/a	WORD	488070	wordpools/wasnorm_wordpool.txt	LTP092	ltpFR	2	5	0	PILLOW	1069	n/a	0	0	0.5869140625	0.422607421875	lower	../fonts/amplitud.ttf
980.036	n/a	WORD	490018	wordpools/wasnorm_wordpool.txt	LTP092	ltpFR	2	5	0	COLESLAW	344	n/a	0	0	0.5869140625	0.422607421875	lower	../fonts/amplitud.ttf
984.198	n/a	WORD	492099	wordpools/wasnorm_wordpool.txt	LTP092	ltpFR	2	5	0	OFFICE	972	n/a	1	0	0.5869140625	0.422607421875	lower	../fonts/amplitud.ttf
988.228	n/a	WORD	494114	wordpools/wasnorm_wordpool.txt	LTP092	ltpFR	2	5	1	PARSLEY	1016	n/a	0	1	0.412841796875	0.57763671875	upper	../fonts/zerothre.ttf
992.098	n/a	WORD	496049	wordpools/wasnorm_wordpool.txt	LTP092	ltpFR	2	5	1	BADGE	68	n/a	0	1	0.412841796875	0.57763671875	upper	../fonts/zerothre.ttf
996.086	n/a	WORD	498043	wordpools/wasnorm_wordpool.txt	LTP092	ltpFR	2	5	1	HANDCUFFS	685	n/a	0	1	0.412841796875	0.57763671875	upper	../fonts/zerothre.ttf
1001.688	n/a	REC_START	500844	n/a	LTP092	ltpFR	2	5	n/a	n/a	n/a	n/a	n/a	n/a	n/a	n/a	n/a	n/a
1002.704	n/a	REC_WORD	501352	wordpools/wasnorm_wordpool.txt	LTP092	ltpFR	2	5	1	MAGICIAN	854	n/a	1	n/a	n/a	n/a	n/a	n/a
1003.71	n/a	REC_WORD	501855	wordpools/wasnorm_wordpool.txt	LTP092	ltpFR	2	5	1	BADGE	68	n/a	0	n/a	n/a	n/a	n/a	n/a
1004.384	n/a	REC_WORD	502192	wordpools/wasnorm_wordpool.txt	LTP092	ltpFR	2	5	1	HANDCUFFS	685	n/a	0	n/a	n/a	n/a	n/a	n/a
1006.138	n/a	REC_WORD	503069	wordpools/wasnorm_wordpool.txt	LTP092	ltpFR	2	5	1	CHICK	296	n/a	1	n/a	n/a	n/a	n/a	n/a
1007.21	n/a	REC_WORD	503605	wordpools/wasnorm_wordpool.txt	LTP092	ltpFR	2	5	1	CHICKEN	297	n/a	1	n/a	n/a	n/a	n/a	n/a
1008.312	n/a	REC_WORD	504156	wordpools/wasnorm_wordpool.txt	LTP092	ltpFR	2	5	1	RABBIT	1152	n/a	1	n/a	n/a	n/a	n/a	n/a
1020.928	n/a	REC_WORD	510464	wordpools/wasnorm_wordpool.txt	LTP092	ltpFR	2	5	0	PILLOW	1069	n/a	0	n/a	n/a	n/a	n/a	n/a
1021.796	n/a	REC_WORD	510898	wordpools/wasnorm_wordpool.txt	LTP092	ltpFR	2	5	0	GYMNAST	675	n/a	1	n/a	n/a	n/a	n/a	n/a
1024.43	n/a	REC_WORD	512215	wordpools/wasnorm_wordpool.txt	LTP092	ltpFR	2	5	1	PARSLEY	1016	n/a	0	n/a	n/a	n/a	n/a	n/a
1025.822	n/a	REC_WORD	512911	wordpools/wasnorm_wordpool.txt	LTP092	ltpFR	2	5	0	SANDWICH	1232	n/a	0	n/a	n/a	n/a	n/a	n/a
1026.678	n/a	REC_WORD	513339	wordpools/wasnorm_wordpool.txt	LTP092	ltpFR	2	5	0	COLESLAW	344	n/a	0	n/a	n/a	n/a	n/a	n/a
1101.13	n/a	WORD	550565	wordpools/wasnorm_wordpool.txt	LTP092	ltpFR	2	6	1	LOAF	835	n/a	0	1	0.412841796875	0.57763671875	upper	../fonts/zerothre.ttf
1105.06	n/a	WORD	552530	wordpools/wasnorm_wordpool.txt	LTP092	ltpFR	2	6	1	PORCH	1106	n/a	0	1	0.412841796875	0.57763671875	upper	../fonts/zerothre.ttf
1109.114	n/a	WORD	554557	wordpools/wasnorm_wordpool.txt	LTP092	ltpFR	2	6	1	HATCHET	691	n/a	0	1	0.412841796875	0.57763671875	upper	../fonts/zerothre.ttf
1113.066	n/a	WORD	556533	wordpools/wasnorm_wordpool.txt	LTP092	ltpFR	2	6	1	RACCOON	1153	n/a	1	1	0.412841796875	0.57763671875	upper	../fonts/zerothre.ttf
1117.17	n/a	WORD	558585	wordpools/wasnorm_wordpool.txt	LTP092	ltpFR	2	6	1	MINK	897	n/a	1	1	0.412841796875	0.57763671875	upper	../fonts/zerothre.ttf
1121.29	n/a	WORD	560645	wordpools/wasnorm_wordpool.txt	LTP092	ltpFR	2	6	1	KEG	770	n/a	0	1	0.412841796875	0.57763671875	upper	../fonts/zerothre.ttf
1125.478	n/a	WORD	562739	wordpools/wasnorm_wordpool.txt	LTP092	ltpFR	2	6	1	VINEGAR	1569	n/a	0	1	0.412841796875	0.57763671875	upper	../fonts/zerothre.ttf
1129.456	n/a	WORD	564728	wordpools/wasnorm_wordpool.txt	LTP092	ltpFR	2	6	1	OWNER	993	n/a	1	1	0.412841796875	0.57763671875	upper	../fonts/zerothre.ttf
1133.66	n/a	WORD	566830	wordpools/wasnorm_wordpool.txt	LTP092	ltpFR	2	6	1	MINER	896	n/a	1	1	0.412841796875	0.57763671875	upper	../fonts/zerothre.ttf
1137.498	n/a	WORD	568749	wordpools/wasnorm_wordpool.txt	LTP092	ltpFR	2	6	1	COMMITTEE	355	n/a	0	1	0.412841796875	0.57763671875	upper	../fonts/zerothre.ttf
1141.702	n/a	WORD	570851	wordpools/wasnorm_wordpool.txt	LTP092	ltpFR	2	6	1	SERPENT	1270	n/a	1	1	0.412841796875	0.57763671875	upper	../fonts/zerothre.ttf
1145.606	n/a	WORD	572803	wordpools/wasnorm_wordpool.txt	LTP092	ltpFR	2	6	1	BLADE	134	n/a	0	1	0.412841796875	0.57763671875	upper	../fonts/zerothre.ttf
1149.434	n/a	WORD	574717	wordpools/wasnorm_wordpool.txt	LTP092	ltpFR	2	6	1	BATHROOM	99	n/a	0	1	0.412841796875	0.57763671875	upper	../fonts/zerothre.ttf
1153.312	n/a	WORD	576656	wordpools/wasnorm_wordpool.txt	LTP092	ltpFR	2	6	1	PLUMBER	1091	n/a	1	1	0.412841796875	0.57763671875	upper	../fonts/zerothre.ttf
1157.5	n/a	WORD	578750	wordpools/wasnorm_wordpool.txt	LTP092	ltpFR	2	6	1	AFRICA	9	n/a	0	1	0.412841796875	0.57763671875	upper	../fonts/zerothre.ttf
1161.42	n/a	WORD	580710	wordpools/wasnorm_wordpool.txt	LTP092	ltpFR	2	6	1	MARGARINE	868	n/a	0	1	0.412841796875	0.57763671875	upper	../fonts/zerothre.ttf
1167.23	n/a	REC_START	583615	n/a	LTP092	ltpFR	2	6	n/a	n/a	n/a	n/a	n/a	n/a	n/a	n/a	n/a	n/a
1168.252	n/a	REC_WORD	584126	wordpools/wasnorm_wordpool.txt	LTP092	ltpFR	2	6	1	MARGARINE	868	n/a	0	n/a	n/a	n/a	n/a	n/a
1169.624	n/a	REC_WORD	584812	wordpools/wasnorm_wordpool.txt	LTP092	ltpFR	2	6	1	VINEGAR	1569	n/a	0	n/a	n/a	n/a	n/a	n/a
1170.802	n/a	REC_WORD	585401	wordpools/wasnorm_wordpool.txt	LTP092	ltpFR	2	6	1	PORCH	1106	n/a	0	n/a	n/a	n/a	n/a	n/a
1172.428	n/a	REC_WORD	586214	wordpools/wasnorm_wordpool.txt	LTP092	ltpFR	2	6	1	RACCOON	1153	n/a	1	n/a	n/a	n/a	n/a	n/a
1174.144	n/a	REC_WORD	587072	wordpools/wasnorm_wordpool.txt	LTP092	ltpFR	2	6	n/a	PELT	1040	n/a	n/a	n/a	n/a	n/a	n/a	n/a
1175.312	n/a	REC_WORD	587656	wordpools/wasnorm_wordpool.txt	LTP092	ltpFR	2	6	1	MINER	896	n/a	1	n/a	n/a	n/a	n/a	n/a
1176.58	n/a	REC_WORD	588290	wordpools/wasnorm_wordpool.txt	LTP092	ltpFR	2	6	1	OWNER	993	n/a	1	n/a	n/a	n/a	n/a	n/a
1177.856	n/a	REC_WORD	588928	wordpools/wasnorm_wordpool.txt	LTP092	ltpFR	2	6	1	AFRICA	9	n/a	0	n/a	n/a	n/a	n/a	n/a
1179.472	n/a	REC_WORD	589736	wordpools/wasnorm_wordpool.txt	LTP092	ltpFR	2	6	1	COMMITTEE	355	n/a	0	n/a	n/a	n/a	n/a	n/a
1182.282	n/a	REC_WORD	591141	wordpools/wasnorm_wordpool.txt	LTP092	ltpFR	2	6	1	MINK	897	n/a	1	n/a	n/a	n/a	n/a	n/a
1189.4	n/a	REC_WORD_VV	594700	wordpools/wasnorm_wordpool.txt	LTP092	ltpFR	2	6	n/a	<>	-1	n/a	n/a	n/a	n/a	n/a	n/a	n/a
1191.366	n/a	REC_WORD	595683	wordpools/wasnorm_wordpool.txt	LTP092	ltpFR	2	6	1	HATCHET	691	n/a	0	n/a	n/a	n/a	n/a	n/a
1193.276	n/a	REC_WORD	596638	wordpools/wasnorm_wordpool.txt	LTP092	ltpFR	2	6	1	BLADE	134	n/a	0	n/a	n/a	n/a	n/a	n/a
1195.7	n/a	REC_WORD	597850	wordpools/wasnorm_wordpool.txt	LTP092	ltpFR	2	6	1	LOAF	835	n/a	0	n/a	n/a	n/a	n/a	n/a
1200.964	n/a	REC_WORD	600482	wordpools/wasnorm_wordpool.txt	LTP092	ltpFR	2	6	1	MARGARINE	868	n/a	0	n/a	n/a	n/a	n/a	n/a
1249.526	n/a	WORD	624763	wordpools/wasnorm_wordpool.txt	LTP092	ltpFR	2	7	-1	SUBMARINE	1398	n/a	-1	1	1.0	1.0	upper	../fonts/Verdana.ttf
1253.48	n/a	WORD	626740	wordpools/wasnorm_wordpool.txt	LTP092	ltpFR	2	7	-1	SHERIFF	1284	n/a	-1	1	1.0	1.0	upper	../fonts/Verdana.ttf
1257.302	n/a	WORD	628651	wordpools/wasnorm_wordpool.txt	LTP092	ltpFR	2	7	-1	CHECK	284	n/a	-1	1	1.0	1.0	upper	../fonts/Verdana.ttf
1261.138	n/a	WORD	630569	wordpools/wasnorm_wordpool.txt	LTP092	ltpFR	2	7	-1	SKATE	1313	n/a	-1	1	1.0	1.0	upper	../fonts/Verdana.ttf
1265.284	n/a	WORD	632642	wordpools/wasnorm_wordpool.txt	LTP092	ltpFR	2	7	-1	JAR	750	n/a	-1	1	1.0	1.0	upper	../fonts/Verdana.ttf
1269.454	n/a	WORD	634727	wordpools/wasnorm_wordpool.txt	LTP092	ltpFR	2	7	-1	PIER	1063	n/a	-1	1	1.0	1.0	upper	../fonts/Verdana.ttf
1273.3	n/a	WORD	636650	wordpools/wasnorm_wordpool.txt	LTP092	ltpFR	2	7	-1	REEF	1177	n/a	-1	1	1.0	1.0	upper	../fonts/Verdana.ttf
1277.204	n/a	WORD	638602	wordpools/wasnorm_wordpool.txt	LTP092	ltpFR	2	7	-1	TEA	1439	n/a	-1	1	1.0	1.0	upper	../fonts/Verdana.ttf
1281.058	n/a	WORD	640529	wordpools/wasnorm_wordpool.txt	LTP092	ltpFR	2	7	-1	LIME	823	n/a	-1	1	1.0	1.0	upper	../fonts/Verdana.ttf
1284.87	n/a	WORD	642435	wordpools/wasnorm_wordpool.txt	LTP092	ltpFR	2	7	-1	ASPIRIN	47	n/a	-1	1	1.0	1.0	upper	../fonts/Verdana.ttf
1288.782	n/a	WORD	644391	wordpools/wasnorm_wordpool.txt	LTP092	ltpFR	2	7	-1	INCENSE	735	n/a	-1	1	1.0	1.0	upper	../fonts/Verdana.ttf
1292.878	n/a	WORD	646439	wordpools/wasnorm_wordpool.txt	LTP092	ltpFR	2	7	-1	SURVEY	1414	n/a	-1	1	1.0	1.0	upper	../fonts/Verdana.ttf
1296.724	n/a	WORD	648362	wordpools/wasnorm_wordpool.txt	LTP092	ltpFR	2	7	-1	DART	440	n/a	-1	1	1.0	1.0	upper	../fonts/Verdana.ttf
1300.744	n/a	WORD	650372	wordpools/wasnorm_wordpool.txt	LTP092	ltpFR	2	7	-1	OAR	966	n/a	-1	1	1.0	1.0	upper	../fonts/Verdana.ttf
1304.956	n/a	WORD	652478	wordpools/wasnorm_wordpool.txt	LTP092	ltpFR	2	7	-1	INSTRUCTOR	741	n/a	-1	1	1.0	1.0	upper	../fonts/Verdana.ttf
1309.15	n/a	WORD	654575	wordpools/wasnorm_wordpool.txt	LTP092	ltpFR	2	7	-1	GRADUATE	653	n/a	-1	1	1.0	1.0	upper	../fonts/Verdana.ttf
1314.928	n/a	REC_START	657464	n/a	LTP092	ltpFR	2	7	n/a	n/a	n/a	n/a	n/a	n/a	n/a	n/a	n/a	n/a
1316.404	n/a	REC_WORD	658202	wordpools/wasnorm_wordpool.txt	LTP092	ltpFR	2	7	-1	SHERIFF	1284	n/a	-1	n/a	n/a	n/a	n/a	n/a
1317.152	n/a	REC_WORD	658576	wordpools/wasnorm_wordpool.txt	LTP092	ltpFR	2	7	-1	GRADUATE	653	n/a	-1	n/a	n/a	n/a	n/a	n/a
1317.86	n/a	REC_WORD	658930	wordpools/wasnorm_wordpool.txt	LTP092	ltpFR	2	7	-1	INSTRUCTOR	741	n/a	-1	n/a	n/a	n/a	n/a	n/a
1319.572	n/a	REC_WORD	659786	wordpools/wasnorm_wordpool.txt	LTP092	ltpFR	2	7	-1	SKATE	1313	n/a	-1	n/a	n/a	n/a	n/a	n/a
1320.584	n/a	REC_WORD	660292	wordpools/wasnorm_wordpool.txt	LTP092	ltpFR	2	7	-1	PIER	1063	n/a	-1	n/a	n/a	n/a	n/a	n/a
1321.756	n/a	REC_WORD	660878	wordpools/wasnorm_wordpool.txt	LTP092	ltpFR	2	7	-1	REEF	1177	n/a	-1	n/a	n/a	n/a	n/a	n/a
1322.86	n/a	REC_WORD	661430	wordpools/wasnorm_wordpool.txt	LTP092	ltpFR	2	7	-1	SUBMARINE	1398	n/a	-1	n/a	n/a	n/a	n/a	n/a
1324.526	n/a	REC_WORD	662263	wordpools/wasnorm_wordpool.txt	LTP092	ltpFR	2	7	-1	LIME	823	n/a	-1	n/a	n/a	n/a	n/a	n/a
1325.702	n/a	REC_WORD	662851	wordpools/wasnorm_wordpool.txt	LTP092	ltpFR	2	7	-1	TEA	1439	n/a	-1	n/a	n/a	n/a	n/a	n/a
1326.85	n/a	REC_WORD	663425	wordpools/wasnorm_wordpool.txt	LTP092	ltpFR	2	7	-1	INCENSE	735	n/a	-1	n/a	n/a	n/a	n/a	n/a
1328.028	n/a	REC_WORD	664014	wordpools/wasnorm_wordpool.txt	LTP092	ltpFR	2	7	-1	JAR	750	n/a	-1	n/a	n/a	n/a	n/a	n/a
1336.538	n/a	REC_WORD	668269	wordpools/wasnorm_wordpool.txt	LTP092	ltpFR	2	7	-1	OAR	966	n/a	-1	n/a	n/a	n/a	n/a	n/a
1341.662	n/a	REC_WORD	670831	wordpools/wasnorm_wordpool.txt	LTP092	ltpFR	2	7	-1	CHECK	284	n/a	-1	n/a	n/a	n/a	n/a	n/a
1342.074	n/a	REC_WORD	671037	wordpools/wasnorm_wordpool.txt	LTP092	ltpFR	2	7	-1	SURVEY	1414	n/a	-1	n/a	n/a	n/a	n/a	n/a
1365.848	n/a	REC_WORD	682924	wordpools/wasnorm_wordpool.txt	LTP092	ltpFR	2	7	-1	ASPIRIN	47	n/a	-1	n/a	n/a	n/a	n/a	n/a
1411.6	n/a	WORD	705800	wordpools/wasnorm_wordpool.txt	LTP092	ltpFR	2	8	0	COWARD	394	n/a	1	0	0.5869140625	0.422607421875	lower	../fonts/amplitud.ttf
1415.528	n/a	WORD	707764	wordpools/wasnorm_wordpool.txt	LTP092	ltpFR	2	8	0	REPTILE	1185	n/a	1	0	0.5869140625	0.422607421875	lower	../fonts/amplitud.ttf
1419.54	n/a	WORD	709770	wordpools/wasnorm_wordpool.txt	LTP092	ltpFR	2	8	1	WICK	1607	n/a	0	1	0.412841796875	0.57763671875	upper	../fonts/zerothre.ttf
1423.626	n/a	WORD	711813	wordpools/wasnorm_wordpool.txt	LTP092	ltpFR	2	8	1	COW	393	n/a	1	1	0.412841796875	0.57763671875	upper	../fonts/zerothre.ttf
1427.464	n/a	WORD	713732	wordpools/wasnorm_wordpool.txt	LTP092	ltpFR	2	8	0	HAYSTACK	694	n/a	1	0	0.5869140625	0.422607421875	lower	../fonts/amplitud.ttf
1431.302	n/a	WORD	715651	wordpools/wasnorm_wordpool.txt	LTP092	ltpFR	2	8	0	DRAGON	492	n/a	1	0	0.5869140625	0.422607421875	lower	../fonts/amplitud.ttf
1435.388	n/a	WORD	717694	wordpools/wasnorm_wordpool.txt	LTP092	ltpFR	2	8	1	LIZARD	834	n/a	1	1	0.412841796875	0.57763671875	upper	../fonts/zerothre.ttf
1439.468	n/a	WORD	719734	wordpools/wasnorm_wordpool.txt	LTP092	ltpFR	2	8	1	WHEAT	1602	n/a	1	1	0.412841796875	0.57763671875	upper	../fonts/zerothre.ttf
1443.654	n/a	WORD	721827	wordpools/wasnorm_wordpool.txt	LTP092	ltpFR	2	8	1	STEM	1376	n/a	1	1	0.412841796875	0.57763671875	upper	../fonts/zerothre.ttf
1447.65	n/a	WORD	723825	wordpools/wasnorm_wordpool.txt	LTP092	ltpFR	2	8	1	WEED	1599	n/a	1	1	0.412841796875	0.57763671875	upper	../fonts/zerothre.ttf
1451.662	n/a	WORD	725831	wordpools/wasnorm_wordpool.txt	LTP092	ltpFR	2	8	1	COB	334	n/a	1	1	0.412841796875	0.57763671875	upper	../fonts/zerothre.ttf
1455.766	n/a	WORD	727883	wordpools/wasnorm_wordpool.txt	LTP092	ltpFR	2	8	1	VIRUS	1572	n/a	1	1	0.412841796875	0.57763671875	upper	../fonts/zerothre.ttf
1459.936	n/a	WORD	729968	wordpools/wasnorm_wordpool.txt	LTP092	ltpFR	2	8	0	SQUID	1361	n/a	0	0	0.5869140625	0.422607421875	lower	../fonts/amplitud.ttf
1463.79	n/a	WORD	731895	wordpools/wasnorm_wordpool.txt	LTP092	ltpFR	2	8	0	SALMON	1227	n/a	0	0	0.5869140625	0.422607421875	lower	../fonts/amplitud.ttf
1467.794	n/a	WORD	733897	wordpools/wasnorm_wordpool.txt	LTP092	ltpFR	2	8	0	BUREAU	199	n/a	1	0	0.5869140625	0.422607421875	lower	../fonts/amplitud.ttf
1471.922	n/a	WORD	735961	wordpools/wasnorm_wordpool.txt	LTP092	ltpFR	2	8	0	SEED	1266	n/a	0	0	0.5869140625	0.422607421875	lower	../fonts/amplitud.ttf
1477.874	n/a	REC_START	738937	n/a	LTP092	ltpFR	2	8	n/a	n/a	n/a	n/a	n/a	n/a	n/a	n/a	n/a	n/a
1479.186	n/a	REC_WORD	739593	wordpools/wasnorm_wordpool.txt	LTP092	ltpFR	2	8	0	SEED	1266	n/a	0	n/a	n/a	n/a	n/a	n/a
1480.368	n/a	REC_WORD	740184	wordpools/wasnorm_wordpool.txt	LTP092	ltpFR	2	8	1	STEM	1376	n/a	1	n/a	n/a	n/a	n/a	n/a
1481.654	n/a	REC_WORD	740827	wordpools/wasnorm_wordpool.txt	LTP092	ltpFR	2	8	1	WEED	1599	n/a	1	n/a	n/a	n/a	n/a	n/a
1482.758	n/a	REC_WORD	741379	wordpools/wasnorm_wordpool.txt	LTP092	ltpFR	2	8	1	WHEAT	1602	n/a	1	n/a	n/a	n/a	n/a	n/a
1484.12	n/a	REC_WORD	742060	wordpools/wasnorm_wordpool.txt	LTP092	ltpFR	2	8	0	HAYSTACK	694	n/a	1	n/a	n/a	n/a	n/a	n/a
1487.79	n/a	REC_WORD	743895	wordpools/wasnorm_wordpool.txt	LTP092	ltpFR	2	8	0	REPTILE	1185	n/a	1	n/a	n/a	n/a	n/a	n/a
1490.978	n/a	REC_WORD	745489	wordpools/wasnorm_wordpool.txt	LTP092	ltpFR	2	8	1	COW	393	n/a	1	n/a	n/a	n/a	n/a	n/a
1493.522	n/a	REC_WORD	746761	wordpools/wasnorm_wordpool.txt	LTP092	ltpFR	2	8	1	LIZARD	834	n/a	1	n/a	n/a	n/a	n/a	n/a
1495.13	n/a	REC_WORD	747565	wordpools/wasnorm_wordpool.txt	LTP092	ltpFR	2	8	0	DRAGON	492	n/a	1	n/a	n/a	n/a	n/a	n/a
1503.944	n/a	REC_WORD	751972	wordpools/wasnorm_wordpool.txt	LTP092	ltpFR	2	8	0	SQUID	1361	n/a	0	n/a	n/a	n/a	n/a	n/a
1533.218	n/a	REC_WORD_VV	766609	wordpools/wasnorm_wordpool.txt	LTP092	ltpFR	2	8	n/a	<>	-1	n/a	n/a	n/a	n/a	n/a	n/a	n/a
1548.808	n/a	REC_WORD	774404	wordpools/wasnorm_wordpool.txt	LTP092	ltpFR	2	8	0	SALMON	1227	n/a	0	n/a	n/a	n/a	n/a	n/a
1564.724	n/a	WORD	782362	wordpools/wasnorm_wordpool.txt	LTP092	ltpFR	2	9	0	SPONGE	1355	n/a	0	0	0.5869140625	0.422607421875	lower	../fonts/amplitud.ttf
1568.61	n/a	WORD	784305	wordpools/wasnorm_wordpool.txt	LTP092	ltpFR	2	9	0	CHAIRPERSON	275	n/a	1	0	0.5869140625	0.422607421875	lower	../fonts/amplitud.ttf
1572.472	n/a	WORD	786236	wordpools/wasnorm_wordpool.txt	LTP092	ltpFR	2	9	0	ASSOCIATE	49	n/a	1	0	0.5869140625	0.422607421875	lower	../fonts/amplitud.ttf
1576.476	n/a	WORD	788238	wordpools/wasnorm_wordpool.txt	LTP092	ltpFR	2	9	0	STRANGER	1389	n/a	1	0	0.5869140625	0.422607421875	lower	../fonts/amplitud.ttf
1580.522	n/a	WORD	790261	wordpools/wasnorm_wordpool.txt	LTP092	ltpFR	2	9	0	KING	777	n/a	1	0	0.5869140625	0.422607421875	lower	../fonts/amplitud.ttf
1584.484	n/a	WORD	792242	wordpools/wasnorm_wordpool.txt	LTP092	ltpFR	2	9	0	MANSION	864	n/a	1	0	0.5869140625	0.422607421875	lower	../fonts/amplitud.ttf
1588.588	n/a	WORD	794294	wordpools/wasnorm_wordpool.txt	LTP092	ltpFR	2	9	0	PLAID	1080	n/a	0	0	0.5869140625	0.422607421875	lower	../fonts/amplitud.ttf
1592.416	n/a	WORD	796208	wordpools/wasnorm_wordpool.txt	LTP092	ltpFR	2	9	0	BAY	102	n/a	1	0	0.5869140625	0.422607421875	lower	../fonts/amplitud.ttf
1596.47	n/a	WORD	798235	wordpools/wasnorm_wordpool.txt	LTP092	ltpFR	2	9	0	WITNESS	1618	n/a	1	0	0.5869140625	0.422607421875	lower	../fonts/amplitud.ttf
1600.382	n/a	WORD	800191	wordpools/wasnorm_wordpool.txt	LTP092	ltpFR	2	9	0	NITROGEN	954	n/a	0	0	0.5869140625	0.422607421875	lower	../fonts/amplitud.ttf
1604.294	n/a	WORD	802147	wordpools/wasnorm_wordpool.txt	LTP092	ltpFR	2	9	0	SWEATER	1419	n/a	1	0	0.5869140625	0.422607421875	lower	../fonts/amplitud.ttf
1608.274	n/a	WORD	804137	wordpools/wasnorm_wordpool.txt	LTP092	ltpFR	2	9	0	BACON	67	n/a	0	0	0.5869140625	0.422607421875	lower	../fonts/amplitud.ttf
1612.418	n/a	WORD	806209	wordpools/wasnorm_wordpool.txt	LTP092	ltpFR	2	9	0	TABLET	1427	n/a	1	0	0.5869140625	0.422607421875	lower	../fonts/amplitud.ttf
1616.506	n/a	WORD	808253	wordpools/wasnorm_wordpool.txt	LTP092	ltpFR	2	9	0	FOLDER	588	n/a	0	0	0.5869140625	0.422607421875	lower	../fonts/amplitud.ttf
1620.692	n/a	WORD	810346	wordpools/wasnorm_wordpool.txt	LTP092	ltpFR	2	9	0	OZONE	996	n/a	1	0	0.5869140625	0.422607421875	lower	../fonts/amplitud.ttf
1624.762	n/a	WORD	812381	wordpools/wasnorm_wordpool.txt	LTP092	ltpFR	2	9	0	CRAYON	401	n/a	0	0	0.5869140625	0.422607421875	lower	../fonts/amplitud.ttf
1630.814	n/a	REC_START	815407	n/a	LTP092	ltpFR	2	9	n/a	n/a	n/a	n/a	n/a	n/a	n/a	n/a	n/a	n/a
1632.48	n/a	REC_WORD	816240	wordpools/wasnorm_wordpool.txt	LTP092	ltpFR	2	9	0	KING	777	n/a	1	n/a	n/a	n/a	n/a	n/a
1633.428	n/a	REC_WORD	816714	wordpools/wasnorm_wordpool.txt	LTP092	ltpFR	2	9	0	BAY	102	n/a	1	n/a	n/a	n/a	n/a	n/a
1633.884	n/a	REC_WORD	816942	wordpools/wasnorm_wordpool.txt	LTP092	ltpFR	2	9	0	MANSION	864	n/a	1	n/a	n/a	n/a	n/a	n/a
1637.234	n/a	REC_WORD	818617	wordpools/wasnorm_wordpool.txt	LTP092	ltpFR	2	9	0	ASSOCIATE	49	n/a	1	n/a	n/a	n/a	n/a	n/a
1638.248	n/a	REC_WORD	819124	wordpools/wasnorm_wordpool.txt	LTP092	ltpFR	2	9	0	CHAIRPERSON	275	n/a	1	n/a	n/a	n/a	n/a	n/a
1640.788	n/a	REC_WORD	820394	wordpools/wasnorm_wordpool.txt	LTP092	ltpFR	2	9	0	SPONGE	1355	n/a	0	n/a	n/a	n/a	n/a	n/a
1642.912	n/a	REC_WORD	821456	wordpools/wasnorm_wordpool.txt	LTP092	ltpFR	2	9	0	WITNESS	1618	n/a	1	n/a	n/a	n/a	n/a	n/a
1646.678	n/a	REC_WORD	823339	wordpools/wasnorm_wordpool.txt	LTP092	ltpFR	2	9	0	TABLET	1427	n/a	1	n/a	n/a	n/a	n/a	n/a
1648.404	n/a	REC_WORD	824202	wordpools/wasnorm_wordpool.txt	LTP092	ltpFR	2	9	0	CRAYON	401	n/a	0	n/a	n/a	n/a	n/a	n/a
1734.262	n/a	WORD	867131	wordpools/wasnorm_wordpool.txt	LTP092	ltpFR	2	10	-1	CEMETERY	269	n/a	-1	1	1.0	1.0	upper	../fonts/Verdana.ttf
1738.15	n/a	WORD	869075	wordpools/wasnorm_wordpool.txt	LTP092	ltpFR	2	10	-1	HAIL	676	n/a	-1	1	1.0	1.0	upper	../fonts/Verdana.ttf
1742.086	n/a	WORD	871043	wordpools/wasnorm_wordpool.txt	LTP092	ltpFR	2	10	-1	AIRCRAFT	11	n/a	-1	1	1.0	1.0	upper	../fonts/Verdana.ttf
1745.966	n/a	WORD	872983	wordpools/wasnorm_wordpool.txt	LTP092	ltpFR	2	10	-1	MOTH	920	n/a	-1	1	1.0	1.0	upper	../fonts/Verdana.ttf
1749.812	n/a	WORD	874906	wordpools/wasnorm_wordpool.txt	LTP092	ltpFR	2	10	-1	CRUTCH	417	n/a	-1	1	1.0	1.0	upper	../fonts/Verdana.ttf
1753.924	n/a	WORD	876962	wordpools/wasnorm_wordpool.txt	LTP092	ltpFR	2	10	-1	SURF	1412	n/a	-1	1	1.0	1.0	upper	../fonts/Verdana.ttf
1757.926	n/a	WORD	878963	wordpools/wasnorm_wordpool.txt	LTP092	ltpFR	2	10	-1	STAKE	1368	n/a	-1	1	1.0	1.0	upper	../fonts/Verdana.ttf
1762.064	n/a	WORD	881032	wordpools/wasnorm_wordpool.txt	LTP092	ltpFR	2	10	-1	BANQUET	86	n/a	-1	1	1.0	1.0	upper	../fonts/Verdana.ttf
1766.142	n/a	WORD	883071	wordpools/wasnorm_wordpool.txt	LTP092	ltpFR	2	10	-1	TUB	1514	n/a	-1	1	1.0	1.0	upper	../fonts/Verdana.ttf
1770.188	n/a	WORD	885094	wordpools/wasnorm_wordpool.txt	LTP092	ltpFR	2	10	-1	NOTE	958	n/a	-1	1	1.0	1.0	upper	../fonts/Verdana.ttf
1774.39	n/a	WORD	887195	wordpools/wasnorm_wordpool.txt	LTP092	ltpFR	2	10	-1	FIDDLE	561	n/a	-1	1	1.0	1.0	upper	../fonts/Verdana.ttf
1778.244	n/a	WORD	889122	wordpools/wasnorm_wordpool.txt	LTP092	ltpFR	2	10	-1	SLIDE	1326	n/a	-1	1	1.0	1.0	upper	../fonts/Verdana.ttf
1782.332	n/a	WORD	891166	wordpools/wasnorm_wordpool.txt	LTP092	ltpFR	2	10	-1	ELM	527	n/a	-1	1	1.0	1.0	upper	../fonts/Verdana.ttf
1786.244	n/a	WORD	893122	wordpools/wasnorm_wordpool.txt	LTP092	ltpFR	2	10	-1	RIB	1188	n/a	-1	1	1.0	1.0	upper	../fonts/Verdana.ttf
1790.256	n/a	WORD	895128	wordpools/wasnorm_wordpool.txt	LTP092	ltpFR	2	10	-1	GRILL	661	n/a	-1	1	1.0	1.0	upper	../fonts/Verdana.ttf
1794.352	n/a	WORD	897176	wordpools/wasnorm_wordpool.txt	LTP092	ltpFR	2	10	-1	CAFE	216	n/a	-1	1	1.0	1.0	upper	../fonts/Verdana.ttf
1799.996	n/a	REC_START	899998	n/a	LTP092	ltpFR	2	10	n/a	n/a	n/a	n/a	n/a	n/a	n/a	n/a	n/a	n/a
1801.398	n/a	REC_WORD	900699	wordpools/wasnorm_wordpool.txt	LTP092	ltpFR	2	10	-1	CEMETERY	269	n/a	-1	n/a	n/a	n/a	n/a	n/a
1802.352	n/a	REC_WORD	901176	wordpools/wasnorm_wordpool.txt	LTP092	ltpFR	2	10	-1	HAIL	676	n/a	-1	n/a	n/a	n/a	n/a	n/a
1803.178	n/a	REC_WORD	901589	wordpools/wasnorm_wordpool.txt	LTP092	ltpFR	2	10	n/a	AIRPLANE	12	n/a	n/a	n/a	n/a	n/a	n/a	n/a
1806.426	n/a	REC_WORD	903213	wordpools/wasnorm_wordpool.txt	LTP092	ltpFR	2	10	-1	MOTH	920	n/a	-1	n/a	n/a	n/a	n/a	n/a
1809.564	n/a	REC_WORD	904782	wordpools/wasnorm_wordpool.txt	LTP092	ltpFR	2	10	-1	SLIDE	1326	n/a	-1	n/a	n/a	n/a	n/a	n/a
1810.896	n/a	REC_WORD	905448	wordpools/wasnorm_wordpool.txt	LTP092	ltpFR	2	10	-1	CRUTCH	417	n/a	-1	n/a	n/a	n/a	n/a	n/a
1813.79	n/a	REC_WORD	906895	wordpools/wasnorm_wordpool.txt	LTP092	ltpFR	2	10	-1	NOTE	958	n/a	-1	n/a	n/a	n/a	n/a	n/a
1814.658	n/a	REC_WORD	907329	wordpools/wasnorm_wordpool.txt	LTP092	ltpFR	2	10	n/a	STUB	-1	n/a	n/a	n/a	n/a	n/a	n/a	n/a
1817.386	n/a	REC_WORD	908693	wordpools/wasnorm_wordpool.txt	LTP092	ltpFR	2	10	-1	BANQUET	86	n/a	-1	n/a	n/a	n/a	n/a	n/a
1818.404	n/a	REC_WORD	909202	wordpools/wasnorm_wordpool.txt	LTP092	ltpFR	2	10	-1	STAKE	1368	n/a	-1	n/a	n/a	n/a	n/a	n/a
1840.26	n/a	REC_WORD	920130	wordpools/wasnorm_wordpool.txt	LTP092	ltpFR	2	10	-1	RIB	1188	n/a	-1	n/a	n/a	n/a	n/a	n/a
1884.264	n/a	WORD	942132	wordpools/wasnorm_wordpool.txt	LTP092	ltpFR	2	11	1	CHEERLEADER	288	n/a	1	1	0.412841796875	0.57763671875	upper	../fonts/zerothre.ttf
1888.352	n/a	WORD	944176	wordpools/wasnorm_wordpool.txt	LTP092	ltpFR	2	11	1	BEETLE	116	n/a	1	1	0.412841796875	0.57763671875	upper	../fonts/zerothre.ttf
1892.464	n/a	WORD	946232	wordpools/wasnorm_wordpool.txt	LTP092	ltpFR	2	11	1	CASH	252	n/a	0	1	0.412841796875	0.57763671875	upper	../fonts/zerothre.ttf
1896.392	n/a	WORD	948196	wordpools/wasnorm_wordpool.txt	LTP092	ltpFR	2	11	1	LUMBER	848	n/a	0	1	0.412841796875	0.57763671875	upper	../fonts/zerothre.ttf
1900.388	n/a	WORD	950194	wordpools/wasnorm_wordpool.txt	LTP092	ltpFR	2	11	1	BOXER	160	n/a	1	1	0.412841796875	0.57763671875	upper	../fonts/zerothre.ttf
1904.45	n/a	WORD	952225	wordpools/wasnorm_wordpool.txt	LTP092	ltpFR	2	11	1	ALBUM	14	n/a	0	1	0.412841796875	0.57763671875	upper	../fonts/zerothre.ttf
1908.412	n/a	WORD	954206	wordpools/wasnorm_wordpool.txt	LTP092	ltpFR	2	11	1	KEY	773	n/a	0	1	0.412841796875	0.57763671875	upper	../fonts/zerothre.ttf
1912.274	n/a	WORD	956137	wordpools/wasnorm_wordpool.txt	LTP092	ltpFR	2	11	1	DASHBOARD	441	n/a	0	1	0.412841796875	0.57763671875	upper	../fonts/zerothre.ttf
1916.462	n/a	WORD	958231	wordpools/wasnorm_wordpool.txt	LTP092	ltpFR	2	11	1	TUNA	1518	n/a	1	1	0.412841796875	0.57763671875	upper	../fonts/zerothre.ttf
1920.582	n/a	WORD	960291	wordpools/wasnorm_wordpool.txt	LTP092	ltpFR	2	11	1	SEA	1259	n/a	1	1	0.412841796875	0.57763671875	upper	../fonts/zerothre.ttf
1924.768	n/a	WORD	962384	wordpools/wasnorm_wordpool.txt	LTP092	ltpFR	2	11	1	DISC	473	n/a	0	1	0.412841796875	0.57763671875	upper	../fonts/zerothre.ttf
1928.58	n/a	WORD	964290	wordpools/wasnorm_wordpool.txt	LTP092	ltpFR	2	11	1	FLEA	577	n/a	1	1	0.412841796875	0.57763671875	upper	../fonts/zerothre.ttf
1932.676	n/a	WORD	966338	wordpools/wasnorm_wordpool.txt	LTP092	ltpFR	2	11	1	CASHIER	254	n/a	1	1	0.412841796875	0.57763671875	upper	../fonts/zerothre.ttf
1936.704	n/a	WORD	968352	wordpools/wasnorm_wordpool.txt	LTP092	ltpFR	2	11	1	RADIO	1157	n/a	0	1	0.412841796875	0.57763671875	upper	../fonts/zerothre.ttf
1940.724	n/a	WORD	970362	wordpools/wasnorm_wordpool.txt	LTP092	ltpFR	2	11	1	STEREO	1378	n/a	0	1	0.412841796875	0.57763671875	upper	../fonts/zerothre.ttf
1944.894	n/a	WORD	972447	wordpools/wasnorm_wordpool.txt	LTP092	ltpFR	2	11	1	BANDANNA	80	n/a	0	1	0.412841796875	0.57763671875	upper	../fonts/zerothre.ttf
1950.564	n/a	REC_START	975282	n/a	LTP092	ltpFR	2	11	n/a	n/a	n/a	n/a	n/a	n/a	n/a	n/a	n/a	n/a
1952.274	n/a	REC_WORD	976137	wordpools/wasnorm_wordpool.txt	LTP092	ltpFR	2	11	1	BOXER	160	n/a	1	n/a	n/a	n/a	n/a	n/a
1953.122	n/a	REC_WORD	976561	wordpools/wasnorm_wordpool.txt	LTP092	ltpFR	2	11	1	CHEERLEADER	288	n/a	1	n/a	n/a	n/a	n/a	n/a
1955.412	n/a	REC_WORD	977706	wordpools/wasnorm_wordpool.txt	LTP092	ltpFR	2	11	1	BEETLE	116	n/a	1	n/a	n/a	n/a	n/a	n/a
1958.066	n/a	REC_WORD	979033	wordpools/wasnorm_wordpool.txt	LTP092	ltpFR	2	11	1	CASH	252	n/a	0	n/a	n/a	n/a	n/a	n/a
1959.832	n/a	REC_WORD	979916	wordpools/wasnorm_wordpool.txt	LTP092	ltpFR	2	11	1	LUMBER	848	n/a	0	n/a	n/a	n/a	n/a	n/a
1961.258	n/a	REC_WORD	980629	wordpools/wasnorm_wordpool.txt	LTP092	ltpFR	2	11	1	KEY	773	n/a	0	n/a	n/a	n/a	n/a	n/a
1962.132	n/a	REC_WORD	981066	wordpools/wasnorm_wordpool.txt	LTP092	ltpFR	2	11	1	DASHBOARD	441	n/a	0	n/a	n/a	n/a	n/a	n/a
1964.008	n/a	REC_WORD	982004	wordpools/wasnorm_wordpool.txt	LTP092	ltpFR	2	11	1	CASHIER	254	n/a	1	n/a	n/a	n/a	n/a	n/a
1965.086	n/a	REC_WORD	982543	wordpools/wasnorm_wordpool.txt	LTP092	ltpFR	2	11	1	BANDANNA	80	n/a	0	n/a	n/a	n/a	n/a	n/a
1969.018	n/a	REC_WORD	984509	wordpools/wasnorm_wordpool.txt	LTP092	ltpFR	2	11	1	SEA	1259	n/a	1	n/a	n/a	n/a	n/a	n/a
1970.2	n/a	REC_WORD	985100	wordpools/wasnorm_wordpool.txt	LTP092	ltpFR	2	11	1	TUNA	1518	n/a	1	n/a	n/a	n/a	n/a	n/a
1996.056	n/a	REC_WORD	998028	wordpools/wasnorm_wordpool.txt	LTP092	ltpFR	2	11	1	FLEA	577	n/a	1	n/a	n/a	n/a	n/a	n/a
2038.288	n/a	WORD	1019144	wordpools/wasnorm_wordpool.txt	LTP092	ltpFR	2	12	1	CARDINAL	244	n/a	1	1	0.412841796875	0.57763671875	upper	../fonts/zerothre.ttf
2042.234	n/a	WORD	1021117	wordpools/wasnorm_wordpool.txt	LTP092	ltpFR	2	12	1	RUBY	1214	n/a	0	1	0.412841796875	0.57763671875	upper	../fonts/zerothre.ttf
2046.238	n/a	WORD	1023119	wordpools/wasnorm_wordpool.txt	LTP092	ltpFR	2	12	1	GOLD	647	n/a	0	1	0.412841796875	0.57763671875	upper	../fonts/zerothre.ttf
2050.208	n/a	WORD	1025104	wordpools/wasnorm_wordpool.txt	LTP092	ltpFR	2	12	1	BARN	89	n/a	0	1	0.412841796875	0.57763671875	upper	../fonts/zerothre.ttf
2054.178	n/a	WORD	1027089	wordpools/wasnorm_wordpool.txt	LTP092	ltpFR	2	12	1	CHIPMUNK	304	n/a	1	1	0.412841796875	0.57763671875	upper	../fonts/zerothre.ttf
2058.306	n/a	WORD	1029153	wordpools/wasnorm_wordpool.txt	LTP092	ltpFR	2	12	1	FARM	552	n/a	0	1	0.412841796875	0.57763671875	upper	../fonts/zerothre.ttf
2062.236	n/a	WORD	1031118	wordpools/wasnorm_wordpool.txt	LTP092	ltpFR	2	12	0	FIELD	562	n/a	1	0	0.5869140625	0.422607421875	lower	../fonts/amplitud.ttf
2066.214	n/a	WORD	1033107	wordpools/wasnorm_wordpool.txt	LTP092	ltpFR	2	12	0	FIG	563	n/a	0	0	0.5869140625	0.422607421875	lower	../fonts/amplitud.ttf
2070.26	n/a	WORD	1035130	wordpools/wasnorm_wordpool.txt	LTP092	ltpFR	2	12	0	CHEMIST	292	n/a	1	0	0.5869140625	0.422607421875	lower	../fonts/amplitud.ttf
2074.246	n/a	WORD	1037123	wordpools/wasnorm_wordpool.txt	LTP092	ltpFR	2	12	1	JET	756	n/a	0	1	0.412841796875	0.57763671875	upper	../fonts/zerothre.ttf
2078.376	n/a	WORD	1039188	wordpools/wasnorm_wordpool.txt	LTP092	ltpFR	2	12	1	SUBURB	1399	n/a	0	1	0.412841796875	0.57763671875	upper	../fonts/zerothre.ttf
2082.446	n/a	WORD	1041223	wordpools/wasnorm_wordpool.txt	LTP092	ltpFR	2	12	0	CITY	314	n/a	1	0	0.5869140625	0.422607421875	lower	../fonts/amplitud.ttf
2086.49	n/a	WORD	1043245	wordpools/wasnorm_wordpool.txt	LTP092	ltpFR	2	12	0	SAP	1233	n/a	0	0	0.5869140625	0.422607421875	lower	../fonts/amplitud.ttf
2090.544	n/a	WORD	1045272	wordpools/wasnorm_wordpool.txt	LTP092	ltpFR	2	12	0	NAVIGATOR	938	n/a	1	0	0.5869140625	0.422607421875	lower	../fonts/amplitud.ttf
2094.74	n/a	WORD	1047370	wordpools/wasnorm_wordpool.txt	LTP092	ltpFR	2	12	0	FOREHEAD	592	n/a	0	0	0.5869140625	0.422607421875	lower	../fonts/amplitud.ttf
2098.702	n/a	WORD	1049351	wordpools/wasnorm_wordpool.txt	LTP092	ltpFR	2	12	0	FLASK	576	n/a	0	0	0.5869140625	0.422607421875	lower	../fonts/amplitud.ttf
2104.52	n/a	REC_START	1052260	n/a	LTP092	ltpFR	2	12	n/a	n/a	n/a	n/a	n/a	n/a	n/a	n/a	n/a	n/a
2106.032	n/a	REC_WORD	1053016	wordpools/wasnorm_wordpool.txt	LTP092	ltpFR	2	12	1	JET	756	n/a	0	n/a	n/a	n/a	n/a	n/a
2106.726	n/a	REC_WORD	1053363	wordpools/wasnorm_wordpool.txt	LTP092	ltpFR	2	12	0	FLASK	576	n/a	0	n/a	n/a	n/a	n/a	n/a
2109.48	n/a	REC_WORD_VV	1054740	wordpools/wasnorm_wordpool.txt	LTP092	ltpFR	2	12	n/a	<>	-1	n/a	n/a	n/a	n/a	n/a	n/a	n/a
2110.426	n/a	REC_WORD	1055213	wordpools/wasnorm_wordpool.txt	LTP092	ltpFR	2	12	1	RUBY	1214	n/a	0	n/a	n/a	n/a	n/a	n/a
2111.604	n/a	REC_WORD	1055802	wordpools/wasnorm_wordpool.txt	LTP092	ltpFR	2	12	1	GOLD	647	n/a	0	n/a	n/a	n/a	n/a	n/a
2113.714	n/a	REC_WORD	1056857	wordpools/wasnorm_wordpool.txt	LTP092	ltpFR	2	12	0	FIELD	562	n/a	1	n/a	n/a	n/a	n/a	n/a
2114.46	n/a	REC_WORD	1057230	wordpools/wasnorm_wordpool.txt	LTP092	ltpFR	2	12	1	FARM	552	n/a	0	n/a	n/a	n/a	n/a	n/a
2115.462	n/a	REC_WORD	1057731	wordpools/wasnorm_wordpool.txt	LTP092	ltpFR	2	12	1	BARN	89	n/a	0	n/a	n/a	n/a	n/a	n/a
2116.544	n/a	REC_WORD	1058272	wordpools/wasnorm_wordpool.txt	LTP092	ltpFR	2	12	1	CHIPMUNK	304	n/a	1	n/a	n/a	n/a	n/a	n/a
2137.492	n/a	REC_WORD	1068746	wordpools/wasnorm_wordpool.txt	LTP092	ltpFR	2	12	1	SUBURB	1399	n/a	0	n/a	n/a	n/a	n/a	n/a
2138.326	n/a	REC_WORD	1069163	wordpools/wasnorm_wordpool.txt	LTP092	ltpFR	2	12	0	CITY	314	n/a	1	n/a	n/a	n/a	n/a	n/a
2139.582	n/a	REC_WORD	1069791	wordpools/wasnorm_wordpool.txt	LTP092	ltpFR	2	12	0	NAVIGATOR	938	n/a	1	n/a	n/a	n/a	n/a	n/a
2180.116	n/a	REST_REWET	1090058	n/a	LTP092	ltpFR	2	12	n/a	n/a	n/a	n/a	n/a	n/a	n/a	n/a	n/a	n/a
2978.624	n/a	WORD	1489312	wordpools/wasnorm_wordpool.txt	LTP092	ltpFR	2	13	1	EMPLOYEE	531	n/a	1	1	0.412841796875	0.57763671875	upper	../fonts/zerothre.ttf
2982.454	n/a	WORD	1491227	wordpools/wasnorm_wordpool.txt	LTP092	ltpFR	2	13	1	BUS	201	n/a	1	1	0.412841796875	0.57763671875	upper	../fonts/zerothre.ttf
2986.432	n/a	WORD	1493216	wordpools/wasnorm_wordpool.txt	LTP092	ltpFR	2	13	1	DRIVEWAY	500	n/a	0	1	0.412841796875	0.57763671875	upper	../fonts/zerothre.ttf
2990.402	n/a	WORD	1495201	wordpools/wasnorm_wordpool.txt	LTP092	ltpFR	2	13	1	DOUGHNUT	490	n/a	0	1	0.412841796875	0.57763671875	upper	../fonts/zerothre.ttf
2994.324	n/a	WORD	1497162	wordpools/wasnorm_wordpool.txt	LTP092	ltpFR	2	13	1	DUNGEON	507	n/a	0	1	0.412841796875	0.57763671875	upper	../fonts/zerothre.ttf
2998.384	n/a	WORD	1499192	wordpools/wasnorm_wordpool.txt	LTP092	ltpFR	2	13	1	DOLL	481	n/a	0	1	0.412841796875	0.57763671875	upper	../fonts/zerothre.ttf
3002.438	n/a	WORD	1501219	wordpools/wasnorm_wordpool.txt	LTP092	ltpFR	2	13	1	SHELTER	1282	n/a	0	1	0.412841796875	0.57763671875	upper	../fonts/zerothre.ttf
3006.268	n/a	WORD	1503134	wordpools/wasnorm_wordpool.txt	LTP092	ltpFR	2	13	1	BRIDGE	174	n/a	1	1	0.412841796875	0.57763671875	upper	../fonts/zerothre.ttf
3010.262	n/a	WORD	1505131	wordpools/wasnorm_wordpool.txt	LTP092	ltpFR	2	13	1	BIOLOGIST	128	n/a	1	1	0.412841796875	0.57763671875	upper	../fonts/zerothre.ttf
3014.1	n/a	WORD	1507050	wordpools/wasnorm_wordpool.txt	LTP092	ltpFR	2	13	1	RECEPTIONIST	1174	n/a	1	1	0.412841796875	0.57763671875	upper	../fonts/zerothre.ttf
3018.138	n/a	WORD	1509069	wordpools/wasnorm_wordpool.txt	LTP092	ltpFR	2	13	1	BEEF	113	n/a	0	1	0.412841796875	0.57763671875	upper	../fonts/zerothre.ttf
3022.066	n/a	WORD	1511033	wordpools/wasnorm_wordpool.txt	LTP092	ltpFR	2	13	1	CALF	222	n/a	0	1	0.412841796875	0.57763671875	upper	../fonts/zerothre.ttf
3026.128	n/a	WORD	1513064	wordpools/wasnorm_wordpool.txt	LTP092	ltpFR	2	13	1	CATHEDRAL	260	n/a	0	1	0.412841796875	0.57763671875	upper	../fonts/zerothre.ttf
3029.94	n/a	WORD	1514970	wordpools/wasnorm_wordpool.txt	LTP092	ltpFR	2	13	1	VITAMIN	1574	n/a	0	1	0.412841796875	0.57763671875	upper	../fonts/zerothre.ttf
3034.036	n/a	WORD	1517018	wordpools/wasnorm_wordpool.txt	LTP092	ltpFR	2	13	1	CATTLE	261	n/a	1	1	0.412841796875	0.57763671875	upper	../fonts/zerothre.ttf
3037.998	n/a	WORD	1518999	wordpools/wasnorm_wordpool.txt	LTP092	ltpFR	2	13	1	COMEDIAN	352	n/a	1	1	0.412841796875	0.57763671875	upper	../fonts/zerothre.ttf
3043.85	n/a	REC_START	1521925	n/a	LTP092	ltpFR	2	13	n/a	n/a	n/a	n/a	n/a	n/a	n/a	n/a	n/a	n/a
3044.784	n/a	REC_WORD	1522392	wordpools/wasnorm_wordpool.txt	LTP092	ltpFR	2	13	1	CATTLE	261	n/a	1	n/a	n/a	n/a	n/a	n/a
3045.986	n/a	REC_WORD	1522993	wordpools/wasnorm_wordpool.txt	LTP092	ltpFR	2	13	1	CALF	222	n/a	0	n/a	n/a	n/a	n/a	n/a
3047.072	n/a	REC_WORD	1523536	wordpools/wasnorm_wordpool.txt	LTP092	ltpFR	2	13	1	BEEF	113	n/a	0	n/a	n/a	n/a	n/a	n/a
3048.28	n/a	REC_WORD	1524140	wordpools/wasnorm_wordpool.txt	LTP092	ltpFR	2	13	1	COMEDIAN	352	n/a	1	n/a	n/a	n/a	n/a	n/a
3051.698	n/a	REC_WORD	1525849	wordpools/wasnorm_wordpool.txt	LTP092	ltpFR	2	13	1	EMPLOYEE	531	n/a	1	n/a	n/a	n/a	n/a	n/a
3054.416	n/a	REC_WORD	1527208	wordpools/wasnorm_wordpool.txt	LTP092	ltpFR	2	13	1	DUNGEON	507	n/a	0	n/a	n/a	n/a	n/a	n/a
3057.25	n/a	REC_WORD	1528625	wordpools/wasnorm_wordpool.txt	LTP092	ltpFR	2	13	1	CATHEDRAL	260	n/a	0	n/a	n/a	n/a	n/a	n/a
3059.974	n/a	REC_WORD	1529987	wordpools/wasnorm_wordpool.txt	LTP092	ltpFR	2	13	1	SHELTER	1282	n/a	0	n/a	n/a	n/a	n/a	n/a
3061.476	n/a	REC_WORD	1530738	wordpools/wasnorm_wordpool.txt	LTP092	ltpFR	2	13	1	DRIVEWAY	500	n/a	0	n/a	n/a	n/a	n/a	n/a
3063.362	n/a	REC_WORD	1531681	wordpools/wasnorm_wordpool.txt	LTP092	ltpFR	2	13	1	DOUGHNUT	490	n/a	0	n/a	n/a	n/a	n/a	n/a
3064.548	n/a	REC_WORD	1532274	wordpools/wasnorm_wordpool.txt	LTP092	ltpFR	2	13	1	BUS	201	n/a	1	n/a	n/a	n/a	n/a	n/a
3094.422	n/a	REC_WORD	1547211	wordpools/wasnorm_wordpool.txt	LTP092	ltpFR	2	13	1	RECEPTIONIST	1174	n/a	1	n/a	n/a	n/a	n/a	n/a
3123.384	n/a	WORD	1561692	wordpools/wasnorm_wordpool.txt	LTP092	ltpFR	2	14	0	BRACES	164	n/a	0	0	0.5869140625	0.422607421875	lower	../fonts/amplitud.ttf
3127.32	n/a	WORD	1563660	wordpools/wasnorm_wordpool.txt	LTP092	ltpFR	2	14	0	AWARD	63	n/a	1	0	0.5869140625	0.422607421875	lower	../fonts/amplitud.ttf
3131.416	n/a	WORD	1565708	wordpools/wasnorm_wordpool.txt	LTP092	ltpFR	2	14	0	SAPPHIRE	1234	n/a	0	0	0.5869140625	0.422607421875	lower	../fonts/amplitud.ttf
3135.61	n/a	WORD	1567805	wordpools/wasnorm_wordpool.txt	LTP092	ltpFR	2	14	0	PARROT	1015	n/a	0	0	0.5869140625	0.422607421875	lower	../fonts/amplitud.ttf
3139.722	n/a	WORD	1569861	wordpools/wasnorm_wordpool.txt	LTP092	ltpFR	2	14	1	PERCH	1048	n/a	0	1	0.412841796875	0.57763671875	upper	../fonts/zerothre.ttf
3143.852	n/a	WORD	1571926	wordpools/wasnorm_wordpool.txt	LTP092	ltpFR	2	14	1	SALT	1229	n/a	0	1	0.412841796875	0.57763671875	upper	../fonts/zerothre.ttf
3147.73	n/a	WORD	1573865	wordpools/wasnorm_wordpool.txt	LTP092	ltpFR	2	14	1	DELINQUENT	445	n/a	1	1	0.412841796875	0.57763671875	upper	../fonts/zerothre.ttf
3151.676	n/a	WORD	1575838	wordpools/wasnorm_wordpool.txt	LTP092	ltpFR	2	14	1	KIDNEY	776	n/a	1	1	0.412841796875	0.57763671875	upper	../fonts/zerothre.ttf
3155.712	n/a	WORD	1577856	wordpools/wasnorm_wordpool.txt	LTP092	ltpFR	2	14	1	ISLAND	745	n/a	0	1	0.412841796875	0.57763671875	upper	../fonts/zerothre.ttf
3159.674	n/a	WORD	1579837	wordpools/wasnorm_wordpool.txt	LTP092	ltpFR	2	14	1	RAT	1169	n/a	1	1	0.412841796875	0.57763671875	upper	../fonts/zerothre.ttf
3163.636	n/a	WORD	1581818	wordpools/wasnorm_wordpool.txt	LTP092	ltpFR	2	14	0	BOAT	144	n/a	1	0	0.5869140625	0.422607421875	lower	../fonts/amplitud.ttf
3167.482	n/a	WORD	1583741	wordpools/wasnorm_wordpool.txt	LTP092	ltpFR	2	14	0	THRONE	1461	n/a	1	0	0.5869140625	0.422607421875	lower	../fonts/amplitud.ttf
3171.438	n/a	WORD	1585719	wordpools/wasnorm_wordpool.txt	LTP092	ltpFR	2	14	0	PRINCESS	1125	n/a	1	0	0.5869140625	0.422607421875	lower	../fonts/amplitud.ttf
3175.416	n/a	WORD	1587708	wordpools/wasnorm_wordpool.txt	LTP092	ltpFR	2	14	0	CANE	231	n/a	1	0	0.5869140625	0.422607421875	lower	../fonts/amplitud.ttf
3179.278	n/a	WORD	1589639	wordpools/wasnorm_wordpool.txt	LTP092	ltpFR	2	14	1	CRYSTAL	418	n/a	0	1	0.412841796875	0.57763671875	upper	../fonts/zerothre.ttf
3183.448	n/a	WORD	1591724	wordpools/wasnorm_wordpool.txt	LTP092	ltpFR	2	14	1	SAILOR	1223	n/a	1	1	0.412841796875	0.57763671875	upper	../fonts/zerothre.ttf
3189.208	n/a	REC_START	1594604	n/a	LTP092	ltpFR	2	14	n/a	n/a	n/a	n/a	n/a	n/a	n/a	n/a	n/a	n/a
3191.03	n/a	REC_WORD	1595515	wordpools/wasnorm_wordpool.txt	LTP092	ltpFR	2	14	1	SAILOR	1223	n/a	1	n/a	n/a	n/a	n/a	n/a
3192.076	n/a	REC_WORD	1596038	wordpools/wasnorm_wordpool.txt	LTP092	ltpFR	2	14	0	PRINCESS	1125	n/a	1	n/a	n/a	n/a	n/a	n/a
3195.484	n/a	REC_WORD	1597742	wordpools/wasnorm_wordpool.txt	LTP092	ltpFR	2	14	1	ISLAND	745	n/a	0	n/a	n/a	n/a	n/a	n/a
3198.064	n/a	REC_WORD	1599032	wordpools/wasnorm_wordpool.txt	LTP092	ltpFR	2	14	0	THRONE	1461	n/a	1	n/a	n/a	n/a	n/a	n/a
3199.898	n/a	REC_WORD	1599949	wordpools/wasnorm_wordpool.txt	LTP092	ltpFR	2	14	1	RAT	1169	n/a	1	n/a	n/a	n/a	n/a	n/a
3201.132	n/a	REC_WORD	1600566	wordpools/wasnorm_wordpool.txt	LTP092	ltpFR	2	14	1	DELINQUENT	445	n/a	1	n/a	n/a	n/a	n/a	n/a
3205.896	n/a	REC_WORD	1602948	wordpools/wasnorm_wordpool.txt	LTP092	ltpFR	2	14	0	AWARD	63	n/a	1	n/a	n/a	n/a	n/a	n/a
3207.248	n/a	REC_WORD	1603624	wordpools/wasnorm_wordpool.txt	LTP092	ltpFR	2	14	0	BRACES	164	n/a	0	n/a	n/a	n/a	n/a	n/a
3211.004	n/a	REC_WORD	1605502	wordpools/wasnorm_wordpool.txt	LTP092	ltpFR	2	14	0	SAPPHIRE	1234	n/a	0	n/a	n/a	n/a	n/a	n/a
3235.982	n/a	REC_WORD	1617991	wordpools/wasnorm_wordpool.txt	LTP092	ltpFR	2	14	n/a	LIVER	833	n/a	n/a	n/a	n/a	n/a	n/a	n/a
3244.852	n/a	REC_WORD	1622426	wordpools/wasnorm_wordpool.txt	LTP092	ltpFR	2	14	0	PARROT	1015	n/a	0	n/a	n/a	n/a	n/a	n/a
3245.506	n/a	REC_WORD	1622753	wordpools/wasnorm_wordpool.txt	LTP092	ltpFR	2	14	1	PERCH	1048	n/a	0	n/a	n/a	n/a	n/a	n/a
3268.342	n/a	WORD	1634171	wordpools/wasnorm_wordpool.txt	LTP092	ltpFR	2	15	-1	SUPERMARKET	1409	n/a	-1	1	1.0	1.0	upper	../fonts/Verdana.ttf
3272.262	n/a	WORD	1636131	wordpools/wasnorm_wordpool.txt	LTP092	ltpFR	2	15	-1	REFRIGERATOR	1179	n/a	-1	1	1.0	1.0	upper	../fonts/Verdana.ttf
3276.282	n/a	WORD	1638141	wordpools/wasnorm_wordpool.txt	LTP092	ltpFR	2	15	-1	BUTTERFLY	206	n/a	-1	1	1.0	1.0	upper	../fonts/Verdana.ttf
3280.47	n/a	WORD	1640235	wordpools/wasnorm_wordpool.txt	LTP092	ltpFR	2	15	-1	GRASSHOPPER	656	n/a	-1	1	1.0	1.0	upper	../fonts/Verdana.ttf
3284.564	n/a	WORD	1642282	wordpools/wasnorm_wordpool.txt	LTP092	ltpFR	2	15	-1	COMB	351	n/a	-1	1	1.0	1.0	upper	../fonts/Verdana.ttf
3288.402	n/a	WORD	1644201	wordpools/wasnorm_wordpool.txt	LTP092	ltpFR	2	15	-1	HONEY	713	n/a	-1	1	1.0	1.0	upper	../fonts/Verdana.ttf
3292.538	n/a	WORD	1646269	wordpools/wasnorm_wordpool.txt	LTP092	ltpFR	2	15	-1	AGENT	10	n/a	-1	1	1.0	1.0	upper	../fonts/Verdana.ttf
3296.634	n/a	WORD	1648317	wordpools/wasnorm_wordpool.txt	LTP092	ltpFR	2	15	-1	SHAMPOO	1274	n/a	-1	1	1.0	1.0	upper	../fonts/Verdana.ttf
3300.696	n/a	WORD	1650348	wordpools/wasnorm_wordpool.txt	LTP092	ltpFR	2	15	-1	POTATO	1115	n/a	-1	1	1.0	1.0	upper	../fonts/Verdana.ttf
3304.642	n/a	WORD	1652321	wordpools/wasnorm_wordpool.txt	LTP092	ltpFR	2	15	-1	REFEREE	1178	n/a	-1	1	1.0	1.0	upper	../fonts/Verdana.ttf
3308.828	n/a	WORD	1654414	wordpools/wasnorm_wordpool.txt	LTP092	ltpFR	2	15	-1	MACHINE	852	n/a	-1	1	1.0	1.0	upper	../fonts/Verdana.ttf
3312.99	n/a	WORD	1656495	wordpools/wasnorm_wordpool.txt	LTP092	ltpFR	2	15	-1	DINER	467	n/a	-1	1	1.0	1.0	upper	../fonts/Verdana.ttf
3316.828	n/a	WORD	1658414	wordpools/wasnorm_wordpool.txt	LTP092	ltpFR	2	15	-1	ATTIC	56	n/a	-1	1	1.0	1.0	upper	../fonts/Verdana.ttf
3320.898	n/a	WORD	1660449	wordpools/wasnorm_wordpool.txt	LTP092	ltpFR	2	15	-1	BEE	112	n/a	-1	1	1.0	1.0	upper	../fonts/Verdana.ttf
3324.778	n/a	WORD	1662389	wordpools/wasnorm_wordpool.txt	LTP092	ltpFR	2	15	-1	STAPLE	1371	n/a	-1	1	1.0	1.0	upper	../fonts/Verdana.ttf
3328.806	n/a	WORD	1664403	wordpools/wasnorm_wordpool.txt	LTP092	ltpFR	2	15	-1	PUBLICATION	1136	n/a	-1	1	1.0	1.0	upper	../fonts/Verdana.ttf
3334.492	n/a	REC_START	1667246	n/a	LTP092	ltpFR	2	15	n/a	n/a	n/a	n/a	n/a	n/a	n/a	n/a	n/a	n/a
3338.178	n/a	REC_WORD	1669089	wordpools/wasnorm_wordpool.txt	LTP092	ltpFR	2	15	-1	SUPERMARKET	1409	n/a	-1	n/a	n/a	n/a	n/a	n/a
3339.78	n/a	REC_WORD	1669890	wordpools/wasnorm_wordpool.txt	LTP092	ltpFR	2	15	-1	POTATO	1115	n/a	-1	n/a	n/a	n/a	n/a	n/a
3340.836	n/a	REC_WORD	1670418	wordpools/wasnorm_wordpool.txt	LTP092	ltpFR	2	15	-1	SHAMPOO	1274	n/a	-1	n/a	n/a	n/a	n/a	n/a
3342.424	n/a	REC_WORD	1671212	wordpools/wasnorm_wordpool.txt	LTP092	ltpFR	2	15	-1	REFRIGERATOR	1179	n/a	-1	n/a	n/a	n/a	n/a	n/a
3344.164	n/a	REC_WORD	1672082	wordpools/wasnorm_wordpool.txt	LTP092	ltpFR	2	15	-1	ATTIC	56	n/a	-1	n/a	n/a	n/a	n/a	n/a
3345.362	n/a	REC_WORD	1672681	wordpools/wasnorm_wordpool.txt	LTP092	ltpFR	2	15	-1	DINER	467	n/a	-1	n/a	n/a	n/a	n/a	n/a
3346.644	n/a	REC_WORD	1673322	wordpools/wasnorm_wordpool.txt	LTP092	ltpFR	2	15	-1	STAPLE	1371	n/a	-1	n/a	n/a	n/a	n/a	n/a
3347.732	n/a	REC_WORD	1673866	wordpools/wasnorm_wordpool.txt	LTP092	ltpFR	2	15	-1	PUBLICATION	1136	n/a	-1	n/a	n/a	n/a	n/a	n/a
3349.392	n/a	REC_WORD	1674696	wordpools/wasnorm_wordpool.txt	LTP092	ltpFR	2	15	-1	BEE	112	n/a	-1	n/a	n/a	n/a	n/a	n/a
3350.72	n/a	REC_WORD	1675360	wordpools/wasnorm_wordpool.txt	LTP092	ltpFR	2	15	-1	BUTTERFLY	206	n/a	-1	n/a	n/a	n/a	n/a	n/a
3351.992	n/a	REC_WORD	1675996	wordpools/wasnorm_wordpool.txt	LTP092	ltpFR	2	15	-1	GRASSHOPPER	656	n/a	-1	n/a	n/a	n/a	n/a	n/a
3355.074	n/a	REC_WORD	1677537	wordpools/wasnorm_wordpool.txt	LTP092	ltpFR	2	15	-1	REFEREE	1178	n/a	-1	n/a	n/a	n/a	n/a	n/a
3374.674	n/a	REC_WORD	1687337	wordpools/wasnorm_wordpool.txt	LTP092	ltpFR	2	15	-1	MACHINE	852	n/a	-1	n/a	n/a	n/a	n/a	n/a
3415.074	n/a	WORD	1707537	wordpools/wasnorm_wordpool.txt	LTP092	ltpFR	2	16	0	AUTOMOBILE	62	n/a	1	0	0.5869140625	0.422607421875	lower	../fonts/amplitud.ttf
3419.244	n/a	WORD	1709622	wordpools/wasnorm_wordpool.txt	LTP092	ltpFR	2	16	0	RESTAURANT	1187	n/a	1	0	0.5869140625	0.422607421875	lower	../fonts/amplitud.ttf
3423.438	n/a	WORD	1711719	wordpools/wasnorm_wordpool.txt	LTP092	ltpFR	2	16	0	UNIFORM	1539	n/a	1	0	0.5869140625	0.422607421875	lower	../fonts/amplitud.ttf
3427.626	n/a	WORD	1713813	wordpools/wasnorm_wordpool.txt	LTP092	ltpFR	2	16	0	JOURNAL	760	n/a	0	0	0.5869140625	0.422607421875	lower	../fonts/amplitud.ttf
3431.704	n/a	WORD	1715852	wordpools/wasnorm_wordpool.txt	LTP092	ltpFR	2	16	0	CAP	236	n/a	0	0	0.5869140625	0.422607421875	lower	../fonts/amplitud.ttf
3435.616	n/a	WORD	1717808	wordpools/wasnorm_wordpool.txt	LTP092	ltpFR	2	16	0	COP	376	n/a	1	0	0.5869140625	0.422607421875	lower	../fonts/amplitud.ttf
3439.754	n/a	WORD	1719877	wordpools/wasnorm_wordpool.txt	LTP092	ltpFR	2	16	0	APPLE	33	n/a	0	0	0.5869140625	0.422607421875	lower	../fonts/amplitud.ttf
3443.94	n/a	WORD	1721970	wordpools/wasnorm_wordpool.txt	LTP092	ltpFR	2	16	0	POCKET	1093	n/a	0	0	0.5869140625	0.422607421875	lower	../fonts/amplitud.ttf
3448.036	n/a	WORD	1724018	wordpools/wasnorm_wordpool.txt	LTP092	ltpFR	2	16	0	MEAL	882	n/a	1	0	0.5869140625	0.422607421875	lower	../fonts/amplitud.ttf
3451.906	n/a	WORD	1725953	wordpools/wasnorm_wordpool.txt	LTP092	ltpFR	2	16	0	COLONEL	348	n/a	1	0	0.5869140625	0.422607421875	lower	../fonts/amplitud.ttf
3456.092	n/a	WORD	1728046	wordpools/wasnorm_wordpool.txt	LTP092	ltpFR	2	16	0	FOLLOWER	589	n/a	1	0	0.5869140625	0.422607421875	lower	../fonts/amplitud.ttf
3460.18	n/a	WORD	1730090	wordpools/wasnorm_wordpool.txt	LTP092	ltpFR	2	16	0	ATOM	55	n/a	0	0	0.5869140625	0.422607421875	lower	../fonts/amplitud.ttf
3464.2	n/a	WORD	1732100	wordpools/wasnorm_wordpool.txt	LTP092	ltpFR	2	16	0	PROTON	1132	n/a	0	0	0.5869140625	0.422607421875	lower	../fonts/amplitud.ttf
3468.362	n/a	WORD	1734181	wordpools/wasnorm_wordpool.txt	LTP092	ltpFR	2	16	0	COMMANDER	354	n/a	1	0	0.5869140625	0.422607421875	lower	../fonts/amplitud.ttf
3472.366	n/a	WORD	1736183	wordpools/wasnorm_wordpool.txt	LTP092	ltpFR	2	16	0	TRICYCLE	1506	n/a	1	0	0.5869140625	0.422607421875	lower	../fonts/amplitud.ttf
3476.196	n/a	WORD	1738098	wordpools/wasnorm_wordpool.txt	LTP092	ltpFR	2	16	0	NURSERY	964	n/a	1	0	0.5869140625	0.422607421875	lower	../fonts/amplitud.ttf
3481.864	n/a	REC_START	1740932	n/a	LTP092	ltpFR	2	16	n/a	n/a	n/a	n/a	n/a	n/a	n/a	n/a	n/a	n/a
3483.092	n/a	REC_WORD	1741546	wordpools/wasnorm_wordpool.txt	LTP092	ltpFR	2	16	0	AUTOMOBILE	62	n/a	1	n/a	n/a	n/a	n/a	n/a
3484.554	n/a	REC_WORD	1742277	wordpools/wasnorm_wordpool.txt	LTP092	ltpFR	2	16	0	RESTAURANT	1187	n/a	1	n/a	n/a	n/a	n/a	n/a
3485.432	n/a	REC_WORD	1742716	wordpools/wasnorm_wordpool.txt	LTP092	ltpFR	2	16	0	APPLE	33	n/a	0	n/a	n/a	n/a	n/a	n/a
3486.214	n/a	REC_WORD	1743107	wordpools/wasnorm_wordpool.txt	LTP092	ltpFR	2	16	0	MEAL	882	n/a	1	n/a	n/a	n/a	n/a	n/a
3488.27	n/a	REC_WORD	1744135	wordpools/wasnorm_wordpool.txt	LTP092	ltpFR	2	16	0	UNIFORM	1539	n/a	1	n/a	n/a	n/a	n/a	n/a
3489.646	n/a	REC_WORD	1744823	wordpools/wasnorm_wordpool.txt	LTP092	ltpFR	2	16	0	JOURNAL	760	n/a	0	n/a	n/a	n/a	n/a	n/a
3491.522	n/a	REC_WORD	1745761	wordpools/wasnorm_wordpool.txt	LTP092	ltpFR	2	16	0	CAP	236	n/a	0	n/a	n/a	n/a	n/a	n/a
3493.278	n/a	REC_WORD	1746639	wordpools/wasnorm_wordpool.txt	LTP092	ltpFR	2	16	0	COP	376	n/a	1	n/a	n/a	n/a	n/a	n/a
3495.254	n/a	REC_WORD	1747627	wordpools/wasnorm_wordpool.txt	LTP092	ltpFR	2	16	0	POCKET	1093	n/a	0	n/a	n/a	n/a	n/a	n/a
3500.96	n/a	REC_WORD	1750480	wordpools/wasnorm_wordpool.txt	LTP092	ltpFR	2	16	0	COMMANDER	354	n/a	1	n/a	n/a	n/a	n/a	n/a
3538.91	n/a	REC_WORD	1769455	wordpools/wasnorm_wordpool.txt	LTP092	ltpFR	2	16	0	ATOM	55	n/a	0	n/a	n/a	n/a	n/a	n/a
3539.402	n/a	REC_WORD	1769701	wordpools/wasnorm_wordpool.txt	LTP092	ltpFR	2	16	0	PROTON	1132	n/a	0	n/a	n/a	n/a	n/a	n/a
3575.032	n/a	REC_START	1787516	n/a	LTP092	ltpFR	2	n/a	n/a	n/a	n/a	n/a	n/a	n/a	n/a	n/a	n/a	n/a
3576.618	n/a	FFR_REC_WORD	1788309	wordpools/wasnorm_wordpool.txt	LTP092	ltpFR	2	n/a	0	AUTOMOBILE	62	n/a	1	n/a	n/a	n/a	n/a	n/a
3577.95	n/a	FFR_REC_WORD	1788975	wordpools/wasnorm_wordpool.txt	LTP092	ltpFR	2	n/a	0	APPLE	33	n/a	0	n/a	n/a	n/a	n/a	n/a
3578.736	n/a	FFR_REC_WORD	1789368	wordpools/wasnorm_wordpool.txt	LTP092	ltpFR	2	n/a	0	RESTAURANT	1187	n/a	1	n/a	n/a	n/a	n/a	n/a
3580.664	n/a	FFR_REC_WORD	1790332	wordpools/wasnorm_wordpool.txt	LTP092	ltpFR	2	n/a	0	MEAL	882	n/a	1	n/a	n/a	n/a	n/a	n/a
3581.866	n/a	FFR_REC_WORD	1790933	wordpools/wasnorm_wordpool.txt	LTP092	ltpFR	2	n/a	0	UNIFORM	1539	n/a	1	n/a	n/a	n/a	n/a	n/a
3583.328	n/a	FFR_REC_WORD	1791664	wordpools/wasnorm_wordpool.txt	LTP092	ltpFR	2	n/a	0	JOURNAL	760	n/a	0	n/a	n/a	n/a	n/a	n/a
3584.57	n/a	FFR_REC_WORD	1792285	wordpools/wasnorm_wordpool.txt	LTP092	ltpFR	2	n/a	0	CAP	236	n/a	0	n/a	n/a	n/a	n/a	n/a
3586.052	n/a	FFR_REC_WORD	1793026	wordpools/wasnorm_wordpool.txt	LTP092	ltpFR	2	n/a	0	COP	376	n/a	1	n/a	n/a	n/a	n/a	n/a
3587.44	n/a	FFR_REC_WORD	1793720	wordpools/wasnorm_wordpool.txt	LTP092	ltpFR	2	n/a	0	POCKET	1093	n/a	0	n/a	n/a	n/a	n/a	n/a
3588.756	n/a	FFR_REC_WORD	1794378	wordpools/wasnorm_wordpool.txt	LTP092	ltpFR	2	n/a	0	ATOM	55	n/a	0	n/a	n/a	n/a	n/a	n/a
3589.968	n/a	FFR_REC_WORD	1794984	wordpools/wasnorm_wordpool.txt	LTP092	ltpFR	2	n/a	0	PROTON	1132	n/a	0	n/a	n/a	n/a	n/a	n/a
3591.634	n/a	FFR_REC_WORD	1795817	wordpools/wasnorm_wordpool.txt	LTP092	ltpFR	2	n/a	-1	SUPERMARKET	1409	n/a	-1	n/a	n/a	n/a	n/a	n/a
3592.698	n/a	FFR_REC_WORD	1796349	wordpools/wasnorm_wordpool.txt	LTP092	ltpFR	2	n/a	-1	REFRIGERATOR	1179	n/a	-1	n/a	n/a	n/a	n/a	n/a
3593.744	n/a	FFR_REC_WORD	1796872	wordpools/wasnorm_wordpool.txt	LTP092	ltpFR	2	n/a	-1	MACHINE	852	n/a	-1	n/a	n/a	n/a	n/a	n/a
3595.286	n/a	FFR_REC_WORD	1797643	wordpools/wasnorm_wordpool.txt	LTP092	ltpFR	2	n/a	-1	ATTIC	56	n/a	-1	n/a	n/a	n/a	n/a	n/a
3596.392	n/a	FFR_REC_WORD	1798196	wordpools/wasnorm_wordpool.txt	LTP092	ltpFR	2	n/a	-1	DINER	467	n/a	-1	n/a	n/a	n/a	n/a	n/a
3597.786	n/a	FFR_REC_WORD	1798893	wordpools/wasnorm_wordpool.txt	LTP092	ltpFR	2	n/a	-1	BUTTERFLY	206	n/a	-1	n/a	n/a	n/a	n/a	n/a
3598.768	n/a	FFR_REC_WORD	1799384	wordpools/wasnorm_wordpool.txt	LTP092	ltpFR	2	n/a	-1	GRASSHOPPER	656	n/a	-1	n/a	n/a	n/a	n/a	n/a
3600.15	n/a	FFR_REC_WORD	1800075	wordpools/wasnorm_wordpool.txt	LTP092	ltpFR	2	n/a	-1	BEE	112	n/a	-1	n/a	n/a	n/a	n/a	n/a
3601.562	n/a	FFR_REC_WORD	1800781	wordpools/wasnorm_wordpool.txt	LTP092	ltpFR	2	n/a	-1	POTATO	1115	n/a	-1	n/a	n/a	n/a	n/a	n/a
3602.914	n/a	FFR_REC_WORD	1801457	wordpools/wasnorm_wordpool.txt	LTP092	ltpFR	2	n/a	-1	SHAMPOO	1274	n/a	-1	n/a	n/a	n/a	n/a	n/a
3609.934	n/a	FFR_REC_WORD	1804967	wordpools/wasnorm_wordpool.txt	LTP092	ltpFR	2	n/a	1	DUNGEON	507	n/a	0	n/a	n/a	n/a	n/a	n/a
3611.1	n/a	FFR_REC_WORD	1805550	wordpools/wasnorm_wordpool.txt	LTP092	ltpFR	2	n/a	1	CATHEDRAL	260	n/a	0	n/a	n/a	n/a	n/a	n/a
3612.396	n/a	FFR_REC_WORD	1806198	wordpools/wasnorm_wordpool.txt	LTP092	ltpFR	2	n/a	1	SHELTER	1282	n/a	0	n/a	n/a	n/a	n/a	n/a
3616.898	n/a	FFR_REC_WORD	1808449	wordpools/wasnorm_wordpool.txt	LTP092	ltpFR	2	n/a	1	EMPLOYEE	531	n/a	1	n/a	n/a	n/a	n/a	n/a
3617.898	n/a	FFR_REC_WORD_VV	1808949	wordpools/wasnorm_wordpool.txt	LTP092	ltpFR	2	n/a	n/a	<>	-1	n/a	n/a	n/a	n/a	n/a	n/a	n/a
3620.764	n/a	FFR_REC_WORD	1810382	wordpools/wasnorm_wordpool.txt	LTP092	ltpFR	2	n/a	1	CASHIER	254	n/a	1	n/a	n/a	n/a	n/a	n/a
3622.012	n/a	FFR_REC_WORD	1811006	wordpools/wasnorm_wordpool.txt	LTP092	ltpFR	2	n/a	0	CLERK	321	n/a	1	n/a	n/a	n/a	n/a	n/a
3622.884	n/a	FFR_REC_WORD	1811442	wordpools/wasnorm_wordpool.txt	LTP092	ltpFR	2	n/a	1	BANDANNA	80	n/a	0	n/a	n/a	n/a	n/a	n/a
3625.888	n/a	FFR_REC_WORD	1812944	wordpools/wasnorm_wordpool.txt	LTP092	ltpFR	2	n/a	0	SEED	1266	n/a	0	n/a	n/a	n/a	n/a	n/a
3627.1	n/a	FFR_REC_WORD	1813550	wordpools/wasnorm_wordpool.txt	LTP092	ltpFR	2	n/a	1	STEM	1376	n/a	1	n/a	n/a	n/a	n/a	n/a
3628.268	n/a	FFR_REC_WORD	1814134	wordpools/wasnorm_wordpool.txt	LTP092	ltpFR	2	n/a	1	WEED	1599	n/a	1	n/a	n/a	n/a	n/a	n/a
3629.42	n/a	FFR_REC_WORD	1814710	wordpools/wasnorm_wordpool.txt	LTP092	ltpFR	2	n/a	1	WHEAT	1602	n/a	1	n/a	n/a	n/a	n/a	n/a
3630.472	n/a	FFR_REC_WORD	1815236	wordpools/wasnorm_wordpool.txt	LTP092	ltpFR	2	n/a	0	HAYSTACK	694	n/a	1	n/a	n/a	n/a	n/a	n/a
3632.058	n/a	FFR_REC_WORD	1816029	wordpools/wasnorm_wordpool.txt	LTP092	ltpFR	2	n/a	1	CALF	222	n/a	0	n/a	n/a	n/a	n/a	n/a
3633.196	n/a	FFR_REC_WORD	1816598	wordpools/wasnorm_wordpool.txt	LTP092	ltpFR	2	n/a	1	CATTLE	261	n/a	1	n/a	n/a	n/a	n/a	n/a
3634.304	n/a	FFR_REC_WORD	1817152	wordpools/wasnorm_wordpool.txt	LTP092	ltpFR	2	n/a	1	COW	393	n/a	1	n/a	n/a	n/a	n/a	n/a
3635.46	n/a	FFR_REC_WORD	1817730	wordpools/wasnorm_wordpool.txt	LTP092	ltpFR	2	n/a	1	BEEF	113	n/a	0	n/a	n/a	n/a	n/a	n/a
3640.51	n/a	FFR_REC_WORD	1820255	wordpools/wasnorm_wordpool.txt	LTP092	ltpFR	2	n/a	0	PRINCESS	1125	n/a	1	n/a	n/a	n/a	n/a	n/a
3641.442	n/a	FFR_REC_WORD	1820721	wordpools/wasnorm_wordpool.txt	LTP092	ltpFR	2	n/a	0	THRONE	1461	n/a	1	n/a	n/a	n/a	n/a	n/a
3643.798	n/a	FFR_REC_WORD	1821899	wordpools/wasnorm_wordpool.txt	LTP092	ltpFR	2	n/a	0	BOAT	144	n/a	1	n/a	n/a	n/a	n/a	n/a
3644.944	n/a	FFR_REC_WORD	1822472	wordpools/wasnorm_wordpool.txt	LTP092	ltpFR	2	n/a	-1	OAR	966	n/a	-1	n/a	n/a	n/a	n/a	n/a
3646.196	n/a	FFR_REC_WORD	1823098	wordpools/wasnorm_wordpool.txt	LTP092	ltpFR	2	n/a	1	SEA	1259	n/a	1	n/a	n/a	n/a	n/a	n/a
3647.504	n/a	FFR_REC_WORD	1823752	wordpools/wasnorm_wordpool.txt	LTP092	ltpFR	2	n/a	n/a	SHORE	1291	n/a	n/a	n/a	n/a	n/a	n/a	n/a
3648.85	n/a	FFR_REC_WORD	1824425	wordpools/wasnorm_wordpool.txt	LTP092	ltpFR	2	n/a	0	SEASHORE	1263	n/a	1	n/a	n/a	n/a	n/a	n/a
3650.128	n/a	FFR_REC_WORD	1825064	wordpools/wasnorm_wordpool.txt	LTP092	ltpFR	2	n/a	0	OCEAN	970	n/a	1	n/a	n/a	n/a	n/a	n/a
3653.92	n/a	FFR_REC_WORD	1826960	wordpools/wasnorm_wordpool.txt	LTP092	ltpFR	2	n/a	1	TUNA	1518	n/a	1	n/a	n/a	n/a	n/a	n/a
3656.234	n/a	FFR_REC_WORD	1828117	wordpools/wasnorm_wordpool.txt	LTP092	ltpFR	2	n/a	0	SALMON	1227	n/a	0	n/a	n/a	n/a	n/a	n/a
3659.058	n/a	FFR_REC_WORD	1829529	wordpools/wasnorm_wordpool.txt	LTP092	ltpFR	2	n/a	0	PUMPKIN	1142	n/a	0	n/a	n/a	n/a	n/a	n/a
3659.78	n/a	FFR_REC_WORD	1829890	wordpools/wasnorm_wordpool.txt	LTP092	ltpFR	2	n/a	0	SHORTCAKE	1292	n/a	0	n/a	n/a	n/a	n/a	n/a
3662.824	n/a	FFR_REC_WORD	1831412	wordpools/wasnorm_wordpool.txt	LTP092	ltpFR	2	n/a	0	BRACES	164	n/a	0	n/a	n/a	n/a	n/a	n/a
3663.932	n/a	FFR_REC_WORD	1831966	wordpools/wasnorm_wordpool.txt	LTP092	ltpFR	2	n/a	0	SAPPHIRE	1234	n/a	0	n/a	n/a	n/a	n/a	n/a
3665.612	n/a	FFR_REC_WORD	1832806	wordpools/wasnorm_wordpool.txt	LTP092	ltpFR	2	n/a	0	AWARD	63	n/a	1	n/a	n/a	n/a	n/a	n/a
3666.6	n/a	FFR_REC_WORD	1833300	wordpools/wasnorm_wordpool.txt	LTP092	ltpFR	2	n/a	1	GOLD	647	n/a	0	n/a	n/a	n/a	n/a	n/a
3667.29	n/a	FFR_REC_WORD	1833645	wordpools/wasnorm_wordpool.txt	LTP092	ltpFR	2	n/a	1	RUBY	1214	n/a	0	n/a	n/a	n/a	n/a	n/a
3670.786	n/a	FFR_REC_WORD	1835393	wordpools/wasnorm_wordpool.txt	LTP092	ltpFR	2	n/a	1	BARN	89	n/a	0	n/a	n/a	n/a	n/a	n/a
3671.714	n/a	FFR_REC_WORD	1835857	wordpools/wasnorm_wordpool.txt	LTP092	ltpFR	2	n/a	1	FARM	552	n/a	0	n/a	n/a	n/a	n/a	n/a
3672.686	n/a	FFR_REC_WORD	1836343	wordpools/wasnorm_wordpool.txt	LTP092	ltpFR	2	n/a	0	FIELD	562	n/a	1	n/a	n/a	n/a	n/a	n/a
3673.58	n/a	FFR_REC_WORD	1836790	wordpools/wasnorm_wordpool.txt	LTP092	ltpFR	2	n/a	0	CITY	314	n/a	1	n/a	n/a	n/a	n/a	n/a
3674.254	n/a	FFR_REC_WORD	1837127	wordpools/wasnorm_wordpool.txt	LTP092	ltpFR	2	n/a	1	SUBURB	1399	n/a	0	n/a	n/a	n/a	n/a	n/a
3675.66	n/a	FFR_REC_WORD	1837830	wordpools/wasnorm_wordpool.txt	LTP092	ltpFR	2	n/a	0	FREEWAY	603	n/a	1	n/a	n/a	n/a	n/a	n/a
3677.136	n/a	FFR_REC_WORD	1838568	wordpools/wasnorm_wordpool.txt	LTP092	ltpFR	2	n/a	n/a	AIRPLANE	12	n/a	n/a	n/a	n/a	n/a	n/a	n/a
3678.218	n/a	FFR_REC_WORD	1839109	wordpools/wasnorm_wordpool.txt	LTP092	ltpFR	2	n/a	-1	HAIL	676	n/a	-1	n/a	n/a	n/a	n/a	n/a
3679.836	n/a	FFR_REC_WORD	1839918	wordpools/wasnorm_wordpool.txt	LTP092	ltpFR	2	n/a	-1	FUNERAL	613	n/a	-1	n/a	n/a	n/a	n/a	n/a
3681.068	n/a	FFR_REC_WORD	1840534	wordpools/wasnorm_wordpool.txt	LTP092	ltpFR	2	n/a	-1	CEMETERY	269	n/a	-1	n/a	n/a	n/a	n/a	n/a
3682.274	n/a	FFR_REC_WORD	1841137	wordpools/wasnorm_wordpool.txt	LTP092	ltpFR	2	n/a	-1	MOTH	920	n/a	-1	n/a	n/a	n/a	n/a	n/a
3683.188	n/a	FFR_REC_WORD	1841594	wordpools/wasnorm_wordpool.txt	LTP092	ltpFR	2	n/a	-1	CRUTCH	417	n/a	-1	n/a	n/a	n/a	n/a	n/a
3684.15	n/a	FFR_REC_WORD	1842075	wordpools/wasnorm_wordpool.txt	LTP092	ltpFR	2	n/a	-1	RIB	1188	n/a	-1	n/a	n/a	n/a	n/a	n/a
3686.564	n/a	FFR_REC_WORD	1843282	wordpools/wasnorm_wordpool.txt	LTP092	ltpFR	2	n/a	-1	SLIDE	1326	n/a	-1	n/a	n/a	n/a	n/a	n/a
3688.51	n/a	FFR_REC_WORD	1844255	wordpools/wasnorm_wordpool.txt	LTP092	ltpFR	2	n/a	-1	SHERIFF	1284	n/a	-1	n/a	n/a	n/a	n/a	n/a
3690.02	n/a	FFR_REC_WORD	1845010	wordpools/wasnorm_wordpool.txt	LTP092	ltpFR	2	n/a	-1	SKATE	1313	n/a	-1	n/a	n/a	n/a	n/a	n/a
3692.138	n/a	FFR_REC_WORD	1846069	wordpools/wasnorm_wordpool.txt	LTP092	ltpFR	2	n/a	-1	PIER	1063	n/a	-1	n/a	n/a	n/a	n/a	n/a
3694.172	n/a	FFR_REC_WORD	1847086	wordpools/wasnorm_wordpool.txt	LTP092	ltpFR	2	n/a	-1	SUBMARINE	1398	n/a	-1	n/a	n/a	n/a	n/a	n/a
3695.63	n/a	FFR_REC_WORD	1847815	wordpools/wasnorm_wordpool.txt	LTP092	ltpFR	2	n/a	-1	REEF	1177	n/a	-1	n/a	n/a	n/a	n/a	n/a
3699.592	n/a	FFR_REC_WORD	1849796	wordpools/wasnorm_wordpool.txt	LTP092	ltpFR	2	n/a	-1	ASPIRIN	47	n/a	-1	n/a	n/a	n/a	n/a	n/a
3701.248	n/a	FFR_REC_WORD	1850624	wordpools/wasnorm_wordpool.txt	LTP092	ltpFR	2	n/a	-1	TEA	1439	n/a	-1	n/a	n/a	n/a	n/a	n/a
3702.36	n/a	FFR_REC_WORD	1851180	wordpools/wasnorm_wordpool.txt	LTP092	ltpFR	2	n/a	-1	LIME	823	n/a	-1	n/a	n/a	n/a	n/a	n/a
3705.882	n/a	FFR_REC_WORD	1852941	wordpools/wasnorm_wordpool.txt	LTP092	ltpFR	2	n/a	-1	INCENSE	735	n/a	-1	n/a	n/a	n/a	n/a	n/a
3721.76	n/a	FFR_REC_WORD	1860880	wordpools/wasnorm_wordpool.txt	LTP092	ltpFR	2	n/a	1	COMMITTEE	355	n/a	0	n/a	n/a	n/a	n/a	n/a
3724.818	n/a	FFR_REC_WORD	1862409	wordpools/wasnorm_wordpool.txt	LTP092	ltpFR	2	n/a	0	SPOON	1357	n/a	0	n/a	n/a	n/a	n/a	n/a
3733.958	n/a	FFR_REC_WORD	1866979	wordpools/wasnorm_wordpool.txt	LTP092	ltpFR	2	n/a	0	PARROT	1015	n/a	0	n/a	n/a	n/a	n/a	n/a
3734.616	n/a	FFR_REC_WORD	1867308	wordpools/wasnorm_wordpool.txt	LTP092	ltpFR	2	n/a	1	PERCH	1048	n/a	0	n/a	n/a	n/a	n/a	n/a
3735.25	n/a	FFR_REC_WORD	1867625	wordpools/wasnorm_wordpool.txt	LTP092	ltpFR	2	n/a	1	DELINQUENT	445	n/a	1	n/a	n/a	n/a	n/a	n/a
3736.234	n/a	FFR_REC_WORD	1868117	wordpools/wasnorm_wordpool.txt	LTP092	ltpFR	2	n/a	1	RAT	1169	n/a	1	n/a	n/a	n/a	n/a	n/a
3743.666	n/a	FFR_REC_WORD	1871833	wordpools/wasnorm_wordpool.txt	LTP092	ltpFR	2	n/a	0	TABLET	1427	n/a	1	n/a	n/a	n/a	n/a	n/a
3744.744	n/a	FFR_REC_WORD	1872372	wordpools/wasnorm_wordpool.txt	LTP092	ltpFR	2	n/a	0	CRAYON	401	n/a	0	n/a	n/a	n/a	n/a	n/a
3747.024	n/a	FFR_REC_WORD	1873512	wordpools/wasnorm_wordpool.txt	LTP092	ltpFR	2	n/a	0	SPONGE	1355	n/a	0	n/a	n/a	n/a	n/a	n/a
3748.406	n/a	FFR_REC_WORD	1874203	wordpools/wasnorm_wordpool.txt	LTP092	ltpFR	2	n/a	0	ASSOCIATE	49	n/a	1	n/a	n/a	n/a	n/a	n/a
3749.406	n/a	FFR_REC_WORD	1874703	wordpools/wasnorm_wordpool.txt	LTP092	ltpFR	2	n/a	0	CHAIRPERSON	275	n/a	1	n/a	n/a	n/a	n/a	n/a
3750.686	n/a	FFR_REC_WORD	1875343	wordpools/wasnorm_wordpool.txt	LTP092	ltpFR	2	n/a	0	KING	777	n/a	1	n/a	n/a	n/a	n/a	n/a
3755.02	n/a	FFR_REC_WORD	1877510	wordpools/wasnorm_wordpool.txt	LTP092	ltpFR	2	n/a	0	MANSION	864	n/a	1	n/a	n/a	n/a	n/a	n/a
3756.178	n/a	FFR_REC_WORD	1878089	wordpools/wasnorm_wordpool.txt	LTP092	ltpFR	2	n/a	0	BAY	102	n/a	1	n/a	n/a	n/a	n/a	n/a
3758.412	n/a	FFR_REC_WORD	1879206	wordpools/wasnorm_wordpool.txt	LTP092	ltpFR	2	n/a	0	WITNESS	1618	n/a	1	n/a	n/a	n/a	n/a	n/a
3787.028	n/a	FFR_REC_WORD	1893514	wordpools/wasnorm_wordpool.txt	LTP092	ltpFR	2	n/a	0	MEAL	882	n/a	1	n/a	n/a	n/a	n/a	n/a
3796.896	n/a	FFR_REC_WORD	1898448	wordpools/wasnorm_wordpool.txt	LTP092	ltpFR	2	n/a	1	WORM	1623	n/a	1	n/a	n/a	n/a	n/a	n/a
3817.658	n/a	FFR_REC_WORD	1908829	wordpools/wasnorm_wordpool.txt	LTP092	ltpFR	2	n/a	-1	GANGSTER	620	n/a	-1	n/a	n/a	n/a	n/a	n/a
3819.854	n/a	FFR_REC_WORD	1909927	wordpools/wasnorm_wordpool.txt	LTP092	ltpFR	2	n/a	0	GYMNAST	675	n/a	1	n/a	n/a	n/a	n/a	n/a
3820.69	n/a	FFR_REC_WORD	1910345	wordpools/wasnorm_wordpool.txt	LTP092	ltpFR	2	n/a	1	CHEERLEADER	288	n/a	1	n/a	n/a	n/a	n/a	n/a
3822.462	n/a	FFR_REC_WORD	1911231	wordpools/wasnorm_wordpool.txt	LTP092	ltpFR	2	n/a	1	BEETLE	116	n/a	1	n/a	n/a	n/a	n/a	n/a
3823.58	n/a	FFR_REC_WORD	1911790	wordpools/wasnorm_wordpool.txt	LTP092	ltpFR	2	n/a	1	KEY	773	n/a	0	n/a	n/a	n/a	n/a	n/a
3824.732	n/a	FFR_REC_WORD	1912366	wordpools/wasnorm_wordpool.txt	LTP092	ltpFR	2	n/a	1	DASHBOARD	441	n/a	0	n/a	n/a	n/a	n/a	n/a
3826.928	n/a	FFR_REC_WORD	1913464	wordpools/wasnorm_wordpool.txt	LTP092	ltpFR	2	n/a	1	CASH	252	n/a	0	n/a	n/a	n/a	n/a	n/a
3828.59	n/a	FFR_REC_WORD	1914295	wordpools/wasnorm_wordpool.txt	LTP092	ltpFR	2	n/a	1	LUMBER	848	n/a	0	n/a	n/a	n/a	n/a	n/a
3829.856	n/a	FFR_REC_WORD	1914928	wordpools/wasnorm_wordpool.txt	LTP092	ltpFR	2	n/a	-1	MATCH	878	n/a	-1	n/a	n/a	n/a	n/a	n/a
3831.418	n/a	FFR_REC_WORD	1915709	wordpools/wasnorm_wordpool.txt	LTP092	ltpFR	2	n/a	-1	TIMBER	1469	n/a	-1	n/a	n/a	n/a	n/a	n/a
3833.124	n/a	FFR_REC_WORD	1916562	wordpools/wasnorm_wordpool.txt	LTP092	ltpFR	2	n/a	-1	WALL	1582	n/a	-1	n/a	n/a	n/a	n/a	n/a
3834.5	n/a	FFR_REC_WORD	1917250	wordpools/wasnorm_wordpool.txt	LTP092	ltpFR	2	n/a	-1	TILE	1468	n/a	-1	n/a	n/a	n/a	n/a	n/a
3837.688	n/a	FFR_REC_WORD	1918844	wordpools/wasnorm_wordpool.txt	LTP092	ltpFR	2	n/a	-1	CABIN	211	n/a	-1	n/a	n/a	n/a	n/a	n/a
3845.262	n/a	FFR_REC_WORD	1922631	wordpools/wasnorm_wordpool.txt	LTP092	ltpFR	2	n/a	-1	NOTE	958	n/a	-1	n/a	n/a	n/a	n/a	n/a
3845.836	n/a	FFR_REC_WORD	1922918	wordpools/wasnorm_wordpool.txt	LTP092	ltpFR	2	n/a	n/a	STUB	-1	n/a	n/a	n/a	n/a	n/a	n/a	n/a
3851.492	n/a	FFR_REC_WORD	1925746	wordpools/wasnorm_wordpool.txt	LTP092	ltpFR	2	n/a	1	BRIDGE	174	n/a	1	n/a	n/a	n/a	n/a	n/a
3865.068	n/a	FFR_REC_WORD	1932534	wordpools/wasnorm_wordpool.txt	LTP092	ltpFR	2	n/a	0	SQUID	1361	n/a	0	n/a	n/a	n/a	n/a	n/a
3867.326	n/a	FFR_REC_WORD	1933663	wordpools/wasnorm_wordpool.txt	LTP092	ltpFR	2	n/a	0	REPTILE	1185	n/a	1	n/a	n/a	n/a	n/a	n/a
3868.45	n/a	FFR_REC_WORD	1934225	wordpools/wasnorm_wordpool.txt	LTP092	ltpFR	2	n/a	1	LIZARD	834	n/a	1	n/a	n/a	n/a	n/a	n/a
3869.746	n/a	FFR_REC_WORD	1934873	wordpools/wasnorm_wordpool.txt	LTP092	ltpFR	2	n/a	0	DRAGON	492	n/a	1	n/a	n/a	n/a	n/a	n/a
3897.736	n/a	REC_START	1948868	n/a	LTP092	ltpFR	2	1	n/a	n/a	n/a	n/a	n/a	n/a	n/a	n/a	n/a	n/a
3897.76	n/a	RECOG_LURE	1948880	n/a	LTP092	ltpFR	2	1	n/a	COUCH	386	1	n/a	n/a	n/a	n/a	n/a	n/a
3899.588	n/a	RECOG_RESP	1949794	n/a	LTP092	ltpFR	2	1	n/a	COUCH	386	n/a	n/a	n/a	n/a	n/a	n/a	n/a
3902.69	n/a	RECOG_CONF	1951345	n/a	LTP092	ltpFR	2	1	n/a	COUCH	386	1	n/a	n/a	n/a	n/a	n/a	n/a
3904.52	n/a	RECOG_TARGET	1952260	n/a	LTP092	ltpFR	2	1	-1	SHAMPOO	1274	5	-1	n/a	n/a	n/a	n/a	n/a
3905.304	n/a	RECOG_RESP	1952652	n/a	LTP092	ltpFR	2	1	-1	SHAMPOO	1274	n/a	-1	n/a	n/a	n/a	n/a	n/a
3906.73	n/a	RECOG_CONF	1953365	n/a	LTP092	ltpFR	2	1	-1	SHAMPOO	1274	5	-1	n/a	n/a	n/a	n/a	n/a
3908.298	n/a	RECOG_TARGET	1954149	n/a	LTP092	ltpFR	2	1	-1	GRADUATE	653	5	-1	n/a	n/a	n/a	n/a	n/a
3909.25	n/a	RECOG_RESP	1954625	n/a	LTP092	ltpFR	2	1	-1	GRADUATE	653	n/a	-1	n/a	n/a	n/a	n/a	n/a
3910.482	n/a	RECOG_CONF	1955241	n/a	LTP092	ltpFR	2	1	-1	GRADUATE	653	5	-1	n/a	n/a	n/a	n/a	n/a
3912.068	n/a	RECOG_LURE	1956034	n/a	LTP092	ltpFR	2	1	n/a	CHAIR	274	1	n/a	n/a	n/a	n/a	n/a	n/a
3913.012	n/a	RECOG_RESP	1956506	n/a	LTP092	ltpFR	2	1	n/a	CHAIR	274	n/a	n/a	n/a	n/a	n/a	n/a	n/a
3914.154	n/a	RECOG_CONF	1957077	n/a	LTP092	ltpFR	2	1	n/a	CHAIR	274	1	n/a	n/a	n/a	n/a	n/a	n/a
3915.698	n/a	RECOG_TARGET	1957849	n/a	LTP092	ltpFR	2	1	-1	INCENSE	735	5	-1	n/a	n/a	n/a	n/a	n/a
3916.344	n/a	RECOG_RESP	1958172	n/a	LTP092	ltpFR	2	1	-1	INCENSE	735	n/a	-1	n/a	n/a	n/a	n/a	n/a
3918.184	n/a	RECOG_CONF	1959092	n/a	LTP092	ltpFR	2	1	-1	INCENSE	735	5	-1	n/a	n/a	n/a	n/a	n/a
3919.726	n/a	RECOG_TARGET	1959863	n/a	LTP092	ltpFR	2	1	-1	CAFE	216	1	-1	n/a	n/a	n/a	n/a	n/a
3920.758	n/a	RECOG_RESP	1960379	n/a	LTP092	ltpFR	2	1	-1	CAFE	216	n/a	-1	n/a	n/a	n/a	n/a	n/a
3922.456	n/a	RECOG_CONF	1961228	n/a	LTP092	ltpFR	2	1	-1	CAFE	216	1	-1	n/a	n/a	n/a	n/a	n/a
3924.264	n/a	RECOG_LURE	1962132	n/a	LTP092	ltpFR	2	1	n/a	ANTEATER	26	4	n/a	n/a	n/a	n/a	n/a	n/a
3925.09	n/a	RECOG_RESP	1962545	n/a	LTP092	ltpFR	2	1	n/a	ANTEATER	26	n/a	n/a	n/a	n/a	n/a	n/a	n/a
3926.458	n/a	RECOG_CONF	1963229	n/a	LTP092	ltpFR	2	1	n/a	ANTEATER	26	4	n/a	n/a	n/a	n/a	n/a	n/a
3927.934	n/a	RECOG_TARGET	1963967	n/a	LTP092	ltpFR	2	1	1	CRYSTAL	418	5	0	n/a	n/a	n/a	n/a	n/a
3929.216	n/a	RECOG_RESP	1964608	n/a	LTP092	ltpFR	2	1	1	CRYSTAL	418	n/a	0	n/a	n/a	n/a	n/a	n/a
3930.088	n/a	RECOG_CONF	1965044	n/a	LTP092	ltpFR	2	1	1	CRYSTAL	418	5	0	n/a	n/a	n/a	n/a	n/a
3931.606	n/a	RECOG_LURE	1965803	n/a	LTP092	ltpFR	2	1	n/a	WHISTLE	1606	1	n/a	n/a	n/a	n/a	n/a	n/a
3932.942	n/a	RECOG_RESP	1966471	n/a	LTP092	ltpFR	2	1	n/a	WHISTLE	1606	n/a	n/a	n/a	n/a	n/a	n/a	n/a
3934.418	n/a	RECOG_CONF	1967209	n/a	LTP092	ltpFR	2	1	n/a	WHISTLE	1606	1	n/a	n/a	n/a	n/a	n/a	n/a
3936.05	n/a	RECOG_TARGET	1968025	n/a	LTP092	ltpFR	2	1	0	COMMANDER	354	2	1	n/a	n/a	n/a	n/a	n/a
3937.428	n/a	RECOG_RESP	1968714	n/a	LTP092	ltpFR	2	1	0	COMMANDER	354	n/a	1	n/a	n/a	n/a	n/a	n/a
3938.46	n/a	RECOG_CONF	1969230	n/a	LTP092	ltpFR	2	1	0	COMMANDER	354	2	1	n/a	n/a	n/a	n/a	n/a
3939.996	n/a	RECOG_LURE	1969998	n/a	LTP092	ltpFR	2	1	n/a	TICK	1463	1	n/a	n/a	n/a	n/a	n/a	n/a
3941.378	n/a	RECOG_RESP	1970689	n/a	LTP092	ltpFR	2	1	n/a	TICK	1463	n/a	n/a	n/a	n/a	n/a	n/a	n/a
3942.53	n/a	RECOG_CONF	1971265	n/a	LTP092	ltpFR	2	1	n/a	TICK	1463	1	n/a	n/a	n/a	n/a	n/a	n/a
3944.15	n/a	RECOG_LURE	1972075	n/a	LTP092	ltpFR	2	1	n/a	BROOK	177	3	n/a	n/a	n/a	n/a	n/a	n/a
3944.974	n/a	RECOG_RESP	1972487	n/a	LTP092	ltpFR	2	1	n/a	BROOK	177	n/a	n/a	n/a	n/a	n/a	n/a	n/a
3946.412	n/a	RECOG_CONF	1973206	n/a	LTP092	ltpFR	2	1	n/a	BROOK	177	3	n/a	n/a	n/a	n/a	n/a	n/a
3947.936	n/a	RECOG_TARGET	1973968	n/a	LTP092	ltpFR	2	1	1	VINEGAR	1569	5	0	n/a	n/a	n/a	n/a	n/a
3948.862	n/a	RECOG_RESP	1974431	n/a	LTP092	ltpFR	2	1	1	VINEGAR	1569	n/a	0	n/a	n/a	n/a	n/a	n/a
3949.854	n/a	RECOG_CONF	1974927	n/a	LTP092	ltpFR	2	1	1	VINEGAR	1569	5	0	n/a	n/a	n/a	n/a	n/a
3951.35	n/a	RECOG_LURE	1975675	n/a	LTP092	ltpFR	2	1	n/a	COLLEGE	346	3	n/a	n/a	n/a	n/a	n/a	n/a
3952.168	n/a	RECOG_RESP	1976084	n/a	LTP092	ltpFR	2	1	n/a	COLLEGE	346	n/a	n/a	n/a	n/a	n/a	n/a	n/a
3953.366	n/a	RECOG_CONF	1976683	n/a	LTP092	ltpFR	2	1	n/a	COLLEGE	346	3	n/a	n/a	n/a	n/a	n/a	n/a
3954.928	n/a	RECOG_TARGET	1977464	n/a	LTP092	ltpFR	2	1	1	MINER	896	5	1	n/a	n/a	n/a	n/a	n/a
3955.766	n/a	RECOG_RESP	1977883	n/a	LTP092	ltpFR	2	1	1	MINER	896	n/a	1	n/a	n/a	n/a	n/a	n/a
3957.188	n/a	RECOG_CONF	1978594	n/a	LTP092	ltpFR	2	1	1	MINER	896	5	1	n/a	n/a	n/a	n/a	n/a
3958.724	n/a	RECOG_TARGET	1979362	n/a	LTP092	ltpFR	2	1	0	PILLOW	1069	5	0	n/a	n/a	n/a	n/a	n/a
3959.382	n/a	RECOG_RESP	1979691	n/a	LTP092	ltpFR	2	1	0	PILLOW	1069	n/a	0	n/a	n/a	n/a	n/a	n/a
3960.38	n/a	RECOG_CONF	1980190	n/a	LTP092	ltpFR	2	1	0	PILLOW	1069	5	0	n/a	n/a	n/a	n/a	n/a
3961.838	n/a	RECOG_LURE	1980919	n/a	LTP092	ltpFR	2	1	n/a	PEACH	1031	1	n/a	n/a	n/a	n/a	n/a	n/a
3962.71	n/a	RECOG_RESP	1981355	n/a	LTP092	ltpFR	2	1	n/a	PEACH	1031	n/a	n/a	n/a	n/a	n/a	n/a	n/a
3963.802	n/a	RECOG_CONF	1981901	n/a	LTP092	ltpFR	2	1	n/a	PEACH	1031	1	n/a	n/a	n/a	n/a	n/a	n/a
3965.566	n/a	RECOG_LURE	1982783	n/a	LTP092	ltpFR	2	1	n/a	COAT	333	2	n/a	n/a	n/a	n/a	n/a	n/a
3966.566	n/a	RECOG_RESP	1983283	n/a	LTP092	ltpFR	2	1	n/a	COAT	333	n/a	n/a	n/a	n/a	n/a	n/a	n/a
3967.634	n/a	RECOG_CONF	1983817	n/a	LTP092	ltpFR	2	1	n/a	COAT	333	2	n/a	n/a	n/a	n/a	n/a	n/a
3969.286	n/a	RECOG_LURE	1984643	n/a	LTP092	ltpFR	2	1	n/a	CATCHER	258	3	n/a	n/a	n/a	n/a	n/a	n/a
3970.348	n/a	RECOG_RESP	1985174	n/a	LTP092	ltpFR	2	1	n/a	CATCHER	258	n/a	n/a	n/a	n/a	n/a	n/a	n/a
3971.524	n/a	RECOG_CONF	1985762	n/a	LTP092	ltpFR	2	1	n/a	CATCHER	258	3	n/a	n/a	n/a	n/a	n/a	n/a
3972.982	n/a	RECOG_LURE	1986491	n/a	LTP092	ltpFR	2	1	n/a	SPOUSE	1358	2	n/a	n/a	n/a	n/a	n/a	n/a
3973.97	n/a	RECOG_RESP	1986985	n/a	LTP092	ltpFR	2	1	n/a	SPOUSE	1358	n/a	n/a	n/a	n/a	n/a	n/a	n/a
3974.946	n/a	RECOG_CONF	1987473	n/a	LTP092	ltpFR	2	1	n/a	SPOUSE	1358	2	n/a	n/a	n/a	n/a	n/a	n/a
3980.856	n/a	REC_START	1990428	n/a	LTP092	ltpFR	2	2	n/a	n/a	n/a	n/a	n/a	n/a	n/a	n/a	n/a	n/a
3980.882	n/a	RECOG_TARGET	1990441	n/a	LTP092	ltpFR	2	2	0	PACKAGE	997	5	1	n/a	n/a	n/a	n/a	n/a
3981.634	n/a	RECOG_RESP	1990817	n/a	LTP092	ltpFR	2	2	0	PACKAGE	997	n/a	1	n/a	n/a	n/a	n/a	n/a
3982.676	n/a	RECOG_CONF	1991338	n/a	LTP092	ltpFR	2	2	0	PACKAGE	997	5	1	n/a	n/a	n/a	n/a	n/a
3984.152	n/a	RECOG_TARGET	1992076	n/a	LTP092	ltpFR	2	2	0	BUREAU	199	4	1	n/a	n/a	n/a	n/a	n/a
3984.97	n/a	RECOG_RESP	1992485	n/a	LTP092	ltpFR	2	2	0	BUREAU	199	n/a	1	n/a	n/a	n/a	n/a	n/a
3986.248	n/a	RECOG_CONF	1993124	n/a	LTP092	ltpFR	2	2	0	BUREAU	199	4	1	n/a	n/a	n/a	n/a	n/a
3987.708	n/a	RECOG_LURE	1993854	n/a	LTP092	ltpFR	2	2	n/a	TOE	1473	4	n/a	n/a	n/a	n/a	n/a	n/a
3988.448	n/a	RECOG_RESP	1994224	n/a	LTP092	ltpFR	2	2	n/a	TOE	1473	n/a	n/a	n/a	n/a	n/a	n/a	n/a
3989.39	n/a	RECOG_CONF	1994695	n/a	LTP092	ltpFR	2	2	n/a	TOE	1473	4	n/a	n/a	n/a	n/a	n/a	n/a
3990.836	n/a	RECOG_TARGET	1995418	n/a	LTP092	ltpFR	2	2	1	PORCH	1106	5	0	n/a	n/a	n/a	n/a	n/a
3991.73	n/a	RECOG_RESP	1995865	n/a	LTP092	ltpFR	2	2	1	PORCH	1106	n/a	0	n/a	n/a	n/a	n/a	n/a
3993.272	n/a	RECOG_CONF	1996636	n/a	LTP092	ltpFR	2	2	1	PORCH	1106	5	0	n/a	n/a	n/a	n/a	n/a
3994.824	n/a	RECOG_LURE	1997412	n/a	LTP092	ltpFR	2	2	n/a	LINEN	825	3	n/a	n/a	n/a	n/a	n/a	n/a
3995.682	n/a	RECOG_RESP	1997841	n/a	LTP092	ltpFR	2	2	n/a	LINEN	825	n/a	n/a	n/a	n/a	n/a	n/a	n/a
3996.574	n/a	RECOG_CONF	1998287	n/a	LTP092	ltpFR	2	2	n/a	LINEN	825	3	n/a	n/a	n/a	n/a	n/a	n/a
3998.02	n/a	RECOG_LURE	1999010	n/a	LTP092	ltpFR	2	2	n/a	BERRY	122	3	n/a	n/a	n/a	n/a	n/a	n/a
3999.064	n/a	RECOG_RESP	1999532	n/a	LTP092	ltpFR	2	2	n/a	BERRY	122	n/a	n/a	n/a	n/a	n/a	n/a	n/a
4000.318	n/a	RECOG_CONF	2000159	n/a	LTP092	ltpFR	2	2	n/a	BERRY	122	3	n/a	n/a	n/a	n/a	n/a	n/a
4001.874	n/a	RECOG_LURE	2000937	n/a	LTP092	ltpFR	2	2	n/a	REINDEER	1181	4	n/a	n/a	n/a	n/a	n/a	n/a
4002.952	n/a	RECOG_RESP	2001476	n/a	LTP092	ltpFR	2	2	n/a	REINDEER	1181	n/a	n/a	n/a	n/a	n/a	n/a	n/a
4003.898	n/a	RECOG_CONF	2001949	n/a	LTP092	ltpFR	2	2	n/a	REINDEER	1181	4	n/a	n/a	n/a	n/a	n/a	n/a
4005.43	n/a	RECOG_LURE	2002715	n/a	LTP092	ltpFR	2	2	n/a	DOOR	486	2	n/a	n/a	n/a	n/a	n/a	n/a
4006.468	n/a	RECOG_RESP	2003234	n/a	LTP092	ltpFR	2	2	n/a	DOOR	486	n/a	n/a	n/a	n/a	n/a	n/a	n/a
4007.75	n/a	RECOG_CONF	2003875	n/a	LTP092	ltpFR	2	2	n/a	DOOR	486	2	n/a	n/a	n/a	n/a	n/a	n/a
4009.308	n/a	RECOG_LURE	2004654	n/a	LTP092	ltpFR	2	2	n/a	BOUQUET	157	2	n/a	n/a	n/a	n/a	n/a	n/a
4010.554	n/a	RECOG_RESP	2005277	n/a	LTP092	ltpFR	2	2	n/a	BOUQUET	157	n/a	n/a	n/a	n/a	n/a	n/a	n/a
4011.562	n/a	RECOG_CONF	2005781	n/a	LTP092	ltpFR	2	2	n/a	BOUQUET	157	2	n/a	n/a	n/a	n/a	n/a	n/a
4013.07	n/a	RECOG_LURE	2006535	n/a	LTP092	ltpFR	2	2	n/a	VAMPIRE	1547	3	n/a	n/a	n/a	n/a	n/a	n/a
4013.982	n/a	RECOG_RESP	2006991	n/a	LTP092	ltpFR	2	2	n/a	VAMPIRE	1547	n/a	n/a	n/a	n/a	n/a	n/a	n/a
4016.86	n/a	RECOG_CONF	2008430	n/a	LTP092	ltpFR	2	2	n/a	VAMPIRE	1547	3	n/a	n/a	n/a	n/a	n/a	n/a
4018.38	n/a	RECOG_LURE	2009190	n/a	LTP092	ltpFR	2	2	n/a	SCARECROW	1245	3	n/a	n/a	n/a	n/a	n/a	n/a
4019.204	n/a	RECOG_RESP	2009602	n/a	LTP092	ltpFR	2	2	n/a	SCARECROW	1245	n/a	n/a	n/a	n/a	n/a	n/a	n/a
4020.012	n/a	RECOG_CONF	2010006	n/a	LTP092	ltpFR	2	2	n/a	SCARECROW	1245	3	n/a	n/a	n/a	n/a	n/a	n/a
4021.528	n/a	RECOG_TARGET	2010764	n/a	LTP092	ltpFR	2	2	1	HANDCUFFS	685	5	0	n/a	n/a	n/a	n/a	n/a
4022.382	n/a	RECOG_RESP	2011191	n/a	LTP092	ltpFR	2	2	1	HANDCUFFS	685	n/a	0	n/a	n/a	n/a	n/a	n/a
4023.474	n/a	RECOG_CONF	2011737	n/a	LTP092	ltpFR	2	2	1	HANDCUFFS	685	5	0	n/a	n/a	n/a	n/a	n/a
4024.974	n/a	RECOG_LURE	2012487	n/a	LTP092	ltpFR	2	2	n/a	MILK	895	4	n/a	n/a	n/a	n/a	n/a	n/a
4025.868	n/a	RECOG_RESP	2012934	n/a	LTP092	ltpFR	2	2	n/a	MILK	895	n/a	n/a	n/a	n/a	n/a	n/a	n/a
4026.638	n/a	RECOG_CONF	2013319	n/a	LTP092	ltpFR	2	2	n/a	MILK	895	4	n/a	n/a	n/a	n/a	n/a	n/a
4028.136	n/a	RECOG_LURE	2014068	n/a	LTP092	ltpFR	2	2	n/a	MOVIE	927	3	n/a	n/a	n/a	n/a	n/a	n/a
4028.932	n/a	RECOG_RESP	2014466	n/a	LTP092	ltpFR	2	2	n/a	MOVIE	927	n/a	n/a	n/a	n/a	n/a	n/a	n/a
4029.96	n/a	RECOG_CONF	2014980	n/a	LTP092	ltpFR	2	2	n/a	MOVIE	927	3	n/a	n/a	n/a	n/a	n/a	n/a
4031.648	n/a	RECOG_LURE	2015824	n/a	LTP092	ltpFR	2	2	n/a	VIKING	1565	4	n/a	n/a	n/a	n/a	n/a	n/a
4032.494	n/a	RECOG_RESP	2016247	n/a	LTP092	ltpFR	2	2	n/a	VIKING	1565	n/a	n/a	n/a	n/a	n/a	n/a	n/a
4033.412	n/a	RECOG_CONF	2016706	n/a	LTP092	ltpFR	2	2	n/a	VIKING	1565	4	n/a	n/a	n/a	n/a	n/a	n/a
4035.004	n/a	RECOG_TARGET	2017502	n/a	LTP092	ltpFR	2	2	0	PIN	1072	5	0	n/a	n/a	n/a	n/a	n/a
4035.936	n/a	RECOG_RESP	2017968	n/a	LTP092	ltpFR	2	2	0	PIN	1072	n/a	0	n/a	n/a	n/a	n/a	n/a
4036.954	n/a	RECOG_CONF	2018477	n/a	LTP092	ltpFR	2	2	0	PIN	1072	5	0	n/a	n/a	n/a	n/a	n/a
4038.5	n/a	RECOG_TARGET	2019250	n/a	LTP092	ltpFR	2	2	1	COMEDIAN	352	1	1	n/a	n/a	n/a	n/a	n/a
4040.456	n/a	RECOG_RESP	2020228	n/a	LTP092	ltpFR	2	2	1	COMEDIAN	352	n/a	1	n/a	n/a	n/a	n/a	n/a
4041.484	n/a	RECOG_CONF	2020742	n/a	LTP092	ltpFR	2	2	1	COMEDIAN	352	1	1	n/a	n/a	n/a	n/a	n/a
4043.01	n/a	RECOG_TARGET	2021505	n/a	LTP092	ltpFR	2	2	0	CITY	314	5	1	n/a	n/a	n/a	n/a	n/a
4043.778	n/a	RECOG_RESP	2021889	n/a	LTP092	ltpFR	2	2	0	CITY	314	n/a	1	n/a	n/a	n/a	n/a	n/a
4044.646	n/a	RECOG_CONF	2022323	n/a	LTP092	ltpFR	2	2	0	CITY	314	5	1	n/a	n/a	n/a	n/a	n/a
4046.116	n/a	RECOG_LURE	2023058	n/a	LTP092	ltpFR	2	2	n/a	THIEF	1456	1	n/a	n/a	n/a	n/a	n/a	n/a
4047.406	n/a	RECOG_RESP	2023703	n/a	LTP092	ltpFR	2	2	n/a	THIEF	1456	n/a	n/a	n/a	n/a	n/a	n/a	n/a
4048.328	n/a	RECOG_CONF	2024164	n/a	LTP092	ltpFR	2	2	n/a	THIEF	1456	1	n/a	n/a	n/a	n/a	n/a	n/a
4049.86	n/a	RECOG_TARGET	2024930	n/a	LTP092	ltpFR	2	2	0	DRAGON	492	5	1	n/a	n/a	n/a	n/a	n/a
4050.518	n/a	RECOG_RESP	2025259	n/a	LTP092	ltpFR	2	2	0	DRAGON	492	n/a	1	n/a	n/a	n/a	n/a	n/a
4051.46	n/a	RECOG_CONF	2025730	n/a	LTP092	ltpFR	2	2	0	DRAGON	492	5	1	n/a	n/a	n/a	n/a	n/a
4056.326	n/a	REC_START	2028163	n/a	LTP092	ltpFR	2	3	n/a	n/a	n/a	n/a	n/a	n/a	n/a	n/a	n/a	n/a
4056.354	n/a	RECOG_TARGET	2028177	n/a	LTP092	ltpFR	2	3	-1	SKIN	1318	5	-1	n/a	n/a	n/a	n/a	n/a
4057.124	n/a	RECOG_RESP	2028562	n/a	LTP092	ltpFR	2	3	-1	SKIN	1318	n/a	-1	n/a	n/a	n/a	n/a	n/a
4058.068	n/a	RECOG_CONF	2029034	n/a	LTP092	ltpFR	2	3	-1	SKIN	1318	5	-1	n/a	n/a	n/a	n/a	n/a
4059.582	n/a	RECOG_LURE	2029791	n/a	LTP092	ltpFR	2	3	n/a	TEACHER	1440	4	n/a	n/a	n/a	n/a	n/a	n/a
4061.3	n/a	RECOG_RESP	2030650	n/a	LTP092	ltpFR	2	3	n/a	TEACHER	1440	n/a	n/a	n/a	n/a	n/a	n/a	n/a
4062.338	n/a	RECOG_CONF	2031169	n/a	LTP092	ltpFR	2	3	n/a	TEACHER	1440	4	n/a	n/a	n/a	n/a	n/a	n/a
4063.852	n/a	RECOG_LURE	2031926	n/a	LTP092	ltpFR	2	3	n/a	PHYSICIAN	1056	2	n/a	n/a	n/a	n/a	n/a	n/a
4064.852	n/a	RECOG_RESP	2032426	n/a	LTP092	ltpFR	2	3	n/a	PHYSICIAN	1056	n/a	n/a	n/a	n/a	n/a	n/a	n/a
4065.93	n/a	RECOG_CONF	2032965	n/a	LTP092	ltpFR	2	3	n/a	PHYSICIAN	1056	2	n/a	n/a	n/a	n/a	n/a	n/a
4067.466	n/a	RECOG_LURE	2033733	n/a	LTP092	ltpFR	2	3	n/a	CAR	241	1	n/a	n/a	n/a	n/a	n/a	n/a
4069.092	n/a	RECOG_RESP	2034546	n/a	LTP092	ltpFR	2	3	n/a	CAR	241	n/a	n/a	n/a	n/a	n/a	n/a	n/a
4070.0	n/a	RECOG_CONF	2035000	n/a	LTP092	ltpFR	2	3	n/a	CAR	241	1	n/a	n/a	n/a	n/a	n/a	n/a
4071.568	n/a	RECOG_LURE	2035784	n/a	LTP092	ltpFR	2	3	n/a	BROCCOLI	176	2	n/a	n/a	n/a	n/a	n/a	n/a
4072.62	n/a	RECOG_RESP	2036310	n/a	LTP092	ltpFR	2	3	n/a	BROCCOLI	176	n/a	n/a	n/a	n/a	n/a	n/a	n/a
4074.53	n/a	RECOG_CONF	2037265	n/a	LTP092	ltpFR	2	3	n/a	BROCCOLI	176	2	n/a	n/a	n/a	n/a	n/a	n/a
4076.232	n/a	RECOG_LURE	2038116	n/a	LTP092	ltpFR	2	3	n/a	ANTLER	29	4	n/a	n/a	n/a	n/a	n/a	n/a
4077.43	n/a	RECOG_RESP	2038715	n/a	LTP092	ltpFR	2	3	n/a	ANTLER	29	n/a	n/a	n/a	n/a	n/a	n/a	n/a
4078.422	n/a	RECOG_CONF	2039211	n/a	LTP092	ltpFR	2	3	n/a	ANTLER	29	4	n/a	n/a	n/a	n/a	n/a	n/a
4080.086	n/a	RECOG_LURE	2040043	n/a	LTP092	ltpFR	2	3	n/a	OCTOPUS	971	4	n/a	n/a	n/a	n/a	n/a	n/a
4083.35	n/a	RECOG_RESP	2041675	n/a	LTP092	ltpFR	2	3	n/a	OCTOPUS	971	n/a	n/a	n/a	n/a	n/a	n/a	n/a
4085.048	n/a	RECOG_CONF	2042524	n/a	LTP092	ltpFR	2	3	n/a	OCTOPUS	971	4	n/a	n/a	n/a	n/a	n/a	n/a
4086.778	n/a	RECOG_LURE	2043389	n/a	LTP092	ltpFR	2	3	n/a	CITRUS	313	4	n/a	n/a	n/a	n/a	n/a	n/a
4087.91	n/a	RECOG_RESP	2043955	n/a	LTP092	ltpFR	2	3	n/a	CITRUS	313	n/a	n/a	n/a	n/a	n/a	n/a	n/a
4088.868	n/a	RECOG_CONF	2044434	n/a	LTP092	ltpFR	2	3	n/a	CITRUS	313	4	n/a	n/a	n/a	n/a	n/a	n/a
4090.306	n/a	RECOG_TARGET	2045153	n/a	LTP092	ltpFR	2	3	0	BACON	67	5	0	n/a	n/a	n/a	n/a	n/a
4091.054	n/a	RECOG_RESP	2045527	n/a	LTP092	ltpFR	2	3	0	BACON	67	n/a	0	n/a	n/a	n/a	n/a	n/a
4092.15	n/a	RECOG_CONF	2046075	n/a	LTP092	ltpFR	2	3	0	BACON	67	5	0	n/a	n/a	n/a	n/a	n/a
4093.952	n/a	RECOG_LURE	2046976	n/a	LTP092	ltpFR	2	3	n/a	MONK	910	4	n/a	n/a	n/a	n/a	n/a	n/a
4095.554	n/a	RECOG_RESP	2047777	n/a	LTP092	ltpFR	2	3	n/a	MONK	910	n/a	n/a	n/a	n/a	n/a	n/a	n/a
4096.65	n/a	RECOG_CONF	2048325	n/a	LTP092	ltpFR	2	3	n/a	MONK	910	4	n/a	n/a	n/a	n/a	n/a	n/a
4098.356	n/a	RECOG_LURE	2049178	n/a	LTP092	ltpFR	2	3	n/a	JUPITER	765	5	n/a	n/a	n/a	n/a	n/a	n/a
4099.256	n/a	RECOG_RESP	2049628	n/a	LTP092	ltpFR	2	3	n/a	JUPITER	765	n/a	n/a	n/a	n/a	n/a	n/a	n/a
4100.332	n/a	RECOG_CONF	2050166	n/a	LTP092	ltpFR	2	3	n/a	JUPITER	765	5	n/a	n/a	n/a	n/a	n/a	n/a
4102.084	n/a	RECOG_TARGET	2051042	n/a	LTP092	ltpFR	2	3	0	CRAYON	401	5	0	n/a	n/a	n/a	n/a	n/a
4102.866	n/a	RECOG_RESP	2051433	n/a	LTP092	ltpFR	2	3	0	CRAYON	401	n/a	0	n/a	n/a	n/a	n/a	n/a
4104.672	n/a	RECOG_CONF	2052336	n/a	LTP092	ltpFR	2	3	0	CRAYON	401	5	0	n/a	n/a	n/a	n/a	n/a
4106.204	n/a	RECOG_TARGET	2053102	n/a	LTP092	ltpFR	2	3	0	WITNESS	1618	5	1	n/a	n/a	n/a	n/a	n/a
4106.872	n/a	RECOG_RESP	2053436	n/a	LTP092	ltpFR	2	3	0	WITNESS	1618	n/a	1	n/a	n/a	n/a	n/a	n/a
4107.816	n/a	RECOG_CONF	2053908	n/a	LTP092	ltpFR	2	3	0	WITNESS	1618	5	1	n/a	n/a	n/a	n/a	n/a
4109.318	n/a	RECOG_LURE	2054659	n/a	LTP092	ltpFR	2	3	n/a	ONION	977	4	n/a	n/a	n/a	n/a	n/a	n/a
4110.22	n/a	RECOG_RESP	2055110	n/a	LTP092	ltpFR	2	3	n/a	ONION	977	n/a	n/a	n/a	n/a	n/a	n/a	n/a
4111.556	n/a	RECOG_CONF	2055778	n/a	LTP092	ltpFR	2	3	n/a	ONION	977	4	n/a	n/a	n/a	n/a	n/a	n/a
4113.404	n/a	RECOG_TARGET	2056702	n/a	LTP092	ltpFR	2	3	0	AWARD	63	5	1	n/a	n/a	n/a	n/a	n/a
4114.13	n/a	RECOG_RESP	2057065	n/a	LTP092	ltpFR	2	3	0	AWARD	63	n/a	1	n/a	n/a	n/a	n/a	n/a
4115.068	n/a	RECOG_CONF	2057534	n/a	LTP092	ltpFR	2	3	0	AWARD	63	5	1	n/a	n/a	n/a	n/a	n/a
4116.568	n/a	RECOG_LURE	2058284	n/a	LTP092	ltpFR	2	3	n/a	ASTEROID	50	5	n/a	n/a	n/a	n/a	n/a	n/a
4117.544	n/a	RECOG_RESP	2058772	n/a	LTP092	ltpFR	2	3	n/a	ASTEROID	50	n/a	n/a	n/a	n/a	n/a	n/a	n/a
4118.52	n/a	RECOG_CONF	2059260	n/a	LTP092	ltpFR	2	3	n/a	ASTEROID	50	5	n/a	n/a	n/a	n/a	n/a	n/a
4119.872	n/a	RECOG_LURE	2059936	n/a	LTP092	ltpFR	2	3	n/a	BANDAGE	79	4	n/a	n/a	n/a	n/a	n/a	n/a
4120.856	n/a	RECOG_RESP	2060428	n/a	LTP092	ltpFR	2	3	n/a	BANDAGE	79	n/a	n/a	n/a	n/a	n/a	n/a	n/a
4121.764	n/a	RECOG_CONF	2060882	n/a	LTP092	ltpFR	2	3	n/a	BANDAGE	79	4	n/a	n/a	n/a	n/a	n/a	n/a
4123.168	n/a	RECOG_LURE	2061584	n/a	LTP092	ltpFR	2	3	n/a	RAISIN	1163	5	n/a	n/a	n/a	n/a	n/a	n/a
4123.998	n/a	RECOG_RESP	2061999	n/a	LTP092	ltpFR	2	3	n/a	RAISIN	1163	n/a	n/a	n/a	n/a	n/a	n/a	n/a
4125.096	n/a	RECOG_CONF	2062548	n/a	LTP092	ltpFR	2	3	n/a	RAISIN	1163	5	n/a	n/a	n/a	n/a	n/a	n/a
4126.64	n/a	RECOG_TARGET	2063320	n/a	LTP092	ltpFR	2	3	1	PERCH	1048	5	0	n/a	n/a	n/a	n/a	n/a
4127.48	n/a	RECOG_RESP	2063740	n/a	LTP092	ltpFR	2	3	1	PERCH	1048	n/a	0	n/a	n/a	n/a	n/a	n/a
4128.498	n/a	RECOG_CONF	2064249	n/a	LTP092	ltpFR	2	3	1	PERCH	1048	5	0	n/a	n/a	n/a	n/a	n/a
4130.068	n/a	RECOG_LURE	2065034	n/a	LTP092	ltpFR	2	3	n/a	FORT	595	4	n/a	n/a	n/a	n/a	n/a	n/a
4130.892	n/a	RECOG_RESP	2065446	n/a	LTP092	ltpFR	2	3	n/a	FORT	595	n/a	n/a	n/a	n/a	n/a	n/a	n/a
4131.93	n/a	RECOG_CONF	2065965	n/a	LTP092	ltpFR	2	3	n/a	FORT	595	4	n/a	n/a	n/a	n/a	n/a	n/a
4135.0	n/a	REC_START	2067500	n/a	LTP092	ltpFR	2	4	n/a	n/a	n/a	n/a	n/a	n/a	n/a	n/a	n/a	n/a
4135.03	n/a	RECOG_TARGET	2067515	n/a	LTP092	ltpFR	2	4	-1	SHERIFF	1284	5	-1	n/a	n/a	n/a	n/a	n/a
4135.792	n/a	RECOG_RESP	2067896	n/a	LTP092	ltpFR	2	4	-1	SHERIFF	1284	n/a	-1	n/a	n/a	n/a	n/a	n/a
4136.73	n/a	RECOG_CONF	2068365	n/a	LTP092	ltpFR	2	4	-1	SHERIFF	1284	5	-1	n/a	n/a	n/a	n/a	n/a
4138.15	n/a	RECOG_TARGET	2069075	n/a	LTP092	ltpFR	2	4	0	KNAPSACK	783	5	1	n/a	n/a	n/a	n/a	n/a
4138.826	n/a	RECOG_RESP	2069413	n/a	LTP092	ltpFR	2	4	0	KNAPSACK	783	n/a	1	n/a	n/a	n/a	n/a	n/a
4139.754	n/a	RECOG_CONF	2069877	n/a	LTP092	ltpFR	2	4	0	KNAPSACK	783	5	1	n/a	n/a	n/a	n/a	n/a
4141.164	n/a	RECOG_TARGET	2070582	n/a	LTP092	ltpFR	2	4	0	WRITER	1627	3	n/a	n/a	n/a	n/a	n/a	n/a
4142.832	n/a	RECOG_RESP	2071416	n/a	LTP092	ltpFR	2	4	0	WRITER	1627	n/a	n/a	n/a	n/a	n/a	n/a	n/a
4144.164	n/a	RECOG_CONF	2072082	n/a	LTP092	ltpFR	2	4	0	WRITER	1627	3	n/a	n/a	n/a	n/a	n/a	n/a
4145.626	n/a	RECOG_TARGET	2072813	n/a	LTP092	ltpFR	2	4	-1	BANQUET	86	5	-1	n/a	n/a	n/a	n/a	n/a
4146.318	n/a	RECOG_RESP	2073159	n/a	LTP092	ltpFR	2	4	-1	BANQUET	86	n/a	-1	n/a	n/a	n/a	n/a	n/a
4147.046	n/a	RECOG_CONF	2073523	n/a	LTP092	ltpFR	2	4	-1	BANQUET	86	5	-1	n/a	n/a	n/a	n/a	n/a
4148.514	n/a	RECOG_TARGET	2074257	n/a	LTP092	ltpFR	2	4	0	COLESLAW	344	5	0	n/a	n/a	n/a	n/a	n/a
4149.182	n/a	RECOG_RESP	2074591	n/a	LTP092	ltpFR	2	4	0	COLESLAW	344	n/a	0	n/a	n/a	n/a	n/a	n/a
4150.11	n/a	RECOG_CONF	2075055	n/a	LTP092	ltpFR	2	4	0	COLESLAW	344	5	0	n/a	n/a	n/a	n/a	n/a
4151.702	n/a	RECOG_TARGET	2075851	n/a	LTP092	ltpFR	2	4	1	BIRD	129	3	1	n/a	n/a	n/a	n/a	n/a
4152.586	n/a	RECOG_RESP	2076293	n/a	LTP092	ltpFR	2	4	1	BIRD	129	n/a	1	n/a	n/a	n/a	n/a	n/a
4154.282	n/a	RECOG_CONF	2077141	n/a	LTP092	ltpFR	2	4	1	BIRD	129	3	1	n/a	n/a	n/a	n/a	n/a
4155.782	n/a	RECOG_TARGET	2077891	n/a	LTP092	ltpFR	2	4	0	PARROT	1015	5	0	n/a	n/a	n/a	n/a	n/a
4156.506	n/a	RECOG_RESP	2078253	n/a	LTP092	ltpFR	2	4	0	PARROT	1015	n/a	0	n/a	n/a	n/a	n/a	n/a
4157.374	n/a	RECOG_CONF	2078687	n/a	LTP092	ltpFR	2	4	0	PARROT	1015	5	0	n/a	n/a	n/a	n/a	n/a
4158.902	n/a	RECOG_TARGET	2079451	n/a	LTP092	ltpFR	2	4	1	KEY	773	5	0	n/a	n/a	n/a	n/a	n/a
4159.49	n/a	RECOG_RESP	2079745	n/a	LTP092	ltpFR	2	4	1	KEY	773	n/a	0	n/a	n/a	n/a	n/a	n/a
4160.498	n/a	RECOG_CONF	2080249	n/a	LTP092	ltpFR	2	4	1	KEY	773	5	0	n/a	n/a	n/a	n/a	n/a
4162.05	n/a	RECOG_LURE	2081025	n/a	LTP092	ltpFR	2	4	n/a	GALLON	618	3	n/a	n/a	n/a	n/a	n/a	n/a
4162.862	n/a	RECOG_RESP	2081431	n/a	LTP092	ltpFR	2	4	n/a	GALLON	618	n/a	n/a	n/a	n/a	n/a	n/a	n/a
4163.77	n/a	RECOG_CONF	2081885	n/a	LTP092	ltpFR	2	4	n/a	GALLON	618	3	n/a	n/a	n/a	n/a	n/a	n/a
4165.246	n/a	RECOG_LURE	2082623	n/a	LTP092	ltpFR	2	4	n/a	LIMOUSINE	824	3	n/a	n/a	n/a	n/a	n/a	n/a
4165.994	n/a	RECOG_RESP	2082997	n/a	LTP092	ltpFR	2	4	n/a	LIMOUSINE	824	n/a	n/a	n/a	n/a	n/a	n/a	n/a
4166.932	n/a	RECOG_CONF	2083466	n/a	LTP092	ltpFR	2	4	n/a	LIMOUSINE	824	3	n/a	n/a	n/a	n/a	n/a	n/a
4168.476	n/a	RECOG_LURE	2084238	n/a	LTP092	ltpFR	2	4	n/a	DESK	452	1	n/a	n/a	n/a	n/a	n/a	n/a
4169.298	n/a	RECOG_RESP	2084649	n/a	LTP092	ltpFR	2	4	n/a	DESK	452	n/a	n/a	n/a	n/a	n/a	n/a	n/a
4170.126	n/a	RECOG_CONF	2085063	n/a	LTP092	ltpFR	2	4	n/a	DESK	452	1	n/a	n/a	n/a	n/a	n/a	n/a
4171.572	n/a	RECOG_TARGET	2085786	n/a	LTP092	ltpFR	2	4	-1	GANGSTER	620	5	-1	n/a	n/a	n/a	n/a	n/a
4172.27	n/a	RECOG_RESP	2086135	n/a	LTP092	ltpFR	2	4	-1	GANGSTER	620	n/a	-1	n/a	n/a	n/a	n/a	n/a
4173.268	n/a	RECOG_CONF	2086634	n/a	LTP092	ltpFR	2	4	-1	GANGSTER	620	5	-1	n/a	n/a	n/a	n/a	n/a
4174.71	n/a	RECOG_TARGET	2087355	n/a	LTP092	ltpFR	2	4	0	SHORTCAKE	1292	5	0	n/a	n/a	n/a	n/a	n/a
4175.314	n/a	RECOG_RESP	2087657	n/a	LTP092	ltpFR	2	4	0	SHORTCAKE	1292	n/a	0	n/a	n/a	n/a	n/a	n/a
4176.302	n/a	RECOG_CONF	2088151	n/a	LTP092	ltpFR	2	4	0	SHORTCAKE	1292	5	0	n/a	n/a	n/a	n/a	n/a
4177.88	n/a	RECOG_TARGET	2088940	n/a	LTP092	ltpFR	2	4	-1	BUBBLE	183	5	-1	n/a	n/a	n/a	n/a	n/a
4178.73	n/a	RECOG_RESP	2089365	n/a	LTP092	ltpFR	2	4	-1	BUBBLE	183	n/a	-1	n/a	n/a	n/a	n/a	n/a
4179.784	n/a	RECOG_CONF	2089892	n/a	LTP092	ltpFR	2	4	-1	BUBBLE	183	5	-1	n/a	n/a	n/a	n/a	n/a
4181.344	n/a	RECOG_TARGET	2090672	n/a	LTP092	ltpFR	2	4	0	FIELD	562	5	1	n/a	n/a	n/a	n/a	n/a
4181.998	n/a	RECOG_RESP	2090999	n/a	LTP092	ltpFR	2	4	0	FIELD	562	n/a	1	n/a	n/a	n/a	n/a	n/a
4183.046	n/a	RECOG_CONF	2091523	n/a	LTP092	ltpFR	2	4	0	FIELD	562	5	1	n/a	n/a	n/a	n/a	n/a
4184.682	n/a	RECOG_LURE	2092341	n/a	LTP092	ltpFR	2	4	n/a	MONKEY	911	5	n/a	n/a	n/a	n/a	n/a	n/a
4185.39	n/a	RECOG_RESP	2092695	n/a	LTP092	ltpFR	2	4	n/a	MONKEY	911	n/a	n/a	n/a	n/a	n/a	n/a	n/a
4186.418	n/a	RECOG_CONF	2093209	n/a	LTP092	ltpFR	2	4	n/a	MONKEY	911	5	n/a	n/a	n/a	n/a	n/a	n/a
4188.044	n/a	RECOG_LURE	2094022	n/a	LTP092	ltpFR	2	4	n/a	MAILMAN	858	5	n/a	n/a	n/a	n/a	n/a	n/a
4188.754	n/a	RECOG_RESP	2094377	n/a	LTP092	ltpFR	2	4	n/a	MAILMAN	858	n/a	n/a	n/a	n/a	n/a	n/a	n/a
4189.73	n/a	RECOG_CONF	2094865	n/a	LTP092	ltpFR	2	4	n/a	MAILMAN	858	5	n/a	n/a	n/a	n/a	n/a	n/a
4191.256	n/a	RECOG_TARGET	2095628	n/a	LTP092	ltpFR	2	4	0	BOULEVARD	156	1	1	n/a	n/a	n/a	n/a	n/a
4192.166	n/a	RECOG_RESP	2096083	n/a	LTP092	ltpFR	2	4	0	BOULEVARD	156	n/a	1	n/a	n/a	n/a	n/a	n/a
4193.252	n/a	RECOG_CONF	2096626	n/a	LTP092	ltpFR	2	4	0	BOULEVARD	156	1	1	n/a	n/a	n/a	n/a	n/a
4194.812	n/a	RECOG_LURE	2097406	n/a	LTP092	ltpFR	2	4	n/a	PITCHFORK	1078	1	n/a	n/a	n/a	n/a	n/a	n/a
4195.642	n/a	RECOG_RESP	2097821	n/a	LTP092	ltpFR	2	4	n/a	PITCHFORK	1078	n/a	n/a	n/a	n/a	n/a	n/a	n/a
4196.716	n/a	RECOG_CONF	2098358	n/a	LTP092	ltpFR	2	4	n/a	PITCHFORK	1078	1	n/a	n/a	n/a	n/a	n/a	n/a
4198.316	n/a	RECOG_LURE	2099158	n/a	LTP092	ltpFR	2	4	n/a	SNEAKER	1334	2	n/a	n/a	n/a	n/a	n/a	n/a
4199.05	n/a	RECOG_RESP	2099525	n/a	LTP092	ltpFR	2	4	n/a	SNEAKER	1334	n/a	n/a	n/a	n/a	n/a	n/a	n/a
4200.436	n/a	RECOG_CONF	2100218	n/a	LTP092	ltpFR	2	4	n/a	SNEAKER	1334	2	n/a	n/a	n/a	n/a	n/a	n/a
4204.136	n/a	REC_START	2102068	n/a	LTP092	ltpFR	2	5	n/a	n/a	n/a	n/a	n/a	n/a	n/a	n/a	n/a	n/a
4204.166	n/a	RECOG_LURE	2102083	n/a	LTP092	ltpFR	2	5	n/a	CONCERT	360	4	n/a	n/a	n/a	n/a	n/a	n/a
4204.91	n/a	RECOG_RESP	2102455	n/a	LTP092	ltpFR	2	5	n/a	CONCERT	360	n/a	n/a	n/a	n/a	n/a	n/a	n/a
4205.948	n/a	RECOG_CONF	2102974	n/a	LTP092	ltpFR	2	5	n/a	CONCERT	360	4	n/a	n/a	n/a	n/a	n/a	n/a
4207.33	n/a	RECOG_TARGET	2103665	n/a	LTP092	ltpFR	2	5	0	THRONE	1461	5	1	n/a	n/a	n/a	n/a	n/a
4208.052	n/a	RECOG_RESP	2104026	n/a	LTP092	ltpFR	2	5	0	THRONE	1461	n/a	1	n/a	n/a	n/a	n/a	n/a
4208.98	n/a	RECOG_CONF	2104490	n/a	LTP092	ltpFR	2	5	0	THRONE	1461	5	1	n/a	n/a	n/a	n/a	n/a
4210.56	n/a	RECOG_TARGET	2105280	n/a	LTP092	ltpFR	2	5	1	SQUIRREL	1362	5	1	n/a	n/a	n/a	n/a	n/a
