mstime	trial_type	stim_file	subject	experiment	session	trial	task	item_name	item_num	recog_conf	resp	color_b	color_g	color_r	case	font
0	SESS_START	n/a	LTP283	ltpFR	1	n/a	n/a	n/a	n/a	n/a	n/a	n/a	n/a	n/a	n/a	n/a
125731	WORD	wordpools/wasnorm_wordpool_less_exclusions.txt	LTP283	ltpFR	1	1	0	HORIZON	717	n/a	0	1	0.412841796875	0.57763671875	lower	../fonts/zerothre.ttf
129876	WORD	wordpools/wasnorm_wordpool_less_exclusions.txt	LTP283	ltpFR	1	1	0	KANGAROO	768	4	1	1	0.412841796875	0.57763671875	lower	../fonts/zerothre.ttf
134069	WORD	wordpools/wasnorm_wordpool_less_exclusions.txt	LTP283	ltpFR	1	1	0	GIRAFFE	636	n/a	1	1	0.412841796875	0.57763671875	lower	../fonts/zerothre.ttf
138130	WORD	wordpools/wasnorm_wordpool_less_exclusions.txt	LTP283	ltpFR	1	1	0	BANDANNA	80	n/a	0	1	0.412841796875	0.57763671875	lower	../fonts/zerothre.ttf
141958	WORD	wordpools/wasnorm_wordpool_less_exclusions.txt	LTP283	ltpFR	1	1	1	RUNNER	1218	n/a	1	0	0.5869140625	0.422607421875	upper	../fonts/amplitud.ttf
145869	WORD	wordpools/wasnorm_wordpool_less_exclusions.txt	LTP283	ltpFR	1	1	1	NIECE	952	n/a	1	0	0.5869140625	0.422607421875	upper	../fonts/amplitud.ttf
149846	WORD	wordpools/wasnorm_wordpool_less_exclusions.txt	LTP283	ltpFR	1	1	1	JEWEL	757	n/a	0	0	0.5869140625	0.422607421875	upper	../fonts/amplitud.ttf
153673	WORD	wordpools/wasnorm_wordpool_less_exclusions.txt	LTP283	ltpFR	1	1	0	POLYESTER	1100	n/a	0	1	0.412841796875	0.57763671875	lower	../fonts/zerothre.ttf
157700	WORD	wordpools/wasnorm_wordpool_less_exclusions.txt	LTP283	ltpFR	1	1	0	RELATIVE	1182	n/a	1	1	0.412841796875	0.57763671875	lower	../fonts/zerothre.ttf
161677	WORD	wordpools/wasnorm_wordpool_less_exclusions.txt	LTP283	ltpFR	1	1	0	BARLEY	88	n/a	0	1	0.412841796875	0.57763671875	lower	../fonts/zerothre.ttf
165688	WORD	wordpools/wasnorm_wordpool_less_exclusions.txt	LTP283	ltpFR	1	1	0	SAPPHIRE	1234	n/a	0	1	0.412841796875	0.57763671875	lower	../fonts/zerothre.ttf
169632	WORD	wordpools/wasnorm_wordpool_less_exclusions.txt	LTP283	ltpFR	1	1	1	FRANCE	601	n/a	0	0	0.5869140625	0.422607421875	upper	../fonts/amplitud.ttf
173793	WORD	wordpools/wasnorm_wordpool_less_exclusions.txt	LTP283	ltpFR	1	1	1	PLASTER	1085	n/a	0	0	0.5869140625	0.422607421875	upper	../fonts/amplitud.ttf
177687	WORD	wordpools/wasnorm_wordpool_less_exclusions.txt	LTP283	ltpFR	1	1	1	PRUNE	1134	n/a	1	0	0.5869140625	0.422607421875	upper	../fonts/amplitud.ttf
181714	WORD	wordpools/wasnorm_wordpool_less_exclusions.txt	LTP283	ltpFR	1	1	1	BANANA	77	n/a	1	0	0.5869140625	0.422607421875	upper	../fonts/amplitud.ttf
185892	WORD	wordpools/wasnorm_wordpool_less_exclusions.txt	LTP283	ltpFR	1	1	1	COOLER	375	n/a	0	0	0.5869140625	0.422607421875	upper	../fonts/amplitud.ttf
191600	REC_START	n/a	LTP283	ltpFR	1	1	n/a	n/a	n/a	n/a	n/a	n/a	n/a	n/a	n/a	n/a
194165	REC_WORD	wordpools/wasnorm_wordpool_less_exclusions.txt	LTP283	ltpFR	1	1	1	COOLER	375	n/a	0	n/a	n/a	n/a	n/a	n/a
195290	REC_WORD	wordpools/wasnorm_wordpool_less_exclusions.txt	LTP283	ltpFR	1	1	1	BANANA	77	n/a	1	n/a	n/a	n/a	n/a	n/a
196576	REC_WORD	wordpools/wasnorm_wordpool_less_exclusions.txt	LTP283	ltpFR	1	1	0	SAPPHIRE	1234	n/a	0	n/a	n/a	n/a	n/a	n/a
198620	REC_WORD	wordpools/wasnorm_wordpool_less_exclusions.txt	LTP283	ltpFR	1	1	0	POLYESTER	1100	n/a	0	n/a	n/a	n/a	n/a	n/a
201828	REC_WORD	wordpools/wasnorm_wordpool_less_exclusions.txt	LTP283	ltpFR	1	1	0	GIRAFFE	636	n/a	1	n/a	n/a	n/a	n/a	n/a
204674	REC_WORD	wordpools/wasnorm_wordpool_less_exclusions.txt	LTP283	ltpFR	1	1	1	BANANA	77	n/a	1	n/a	n/a	n/a	n/a	n/a
216147	REC_WORD	wordpools/wasnorm_wordpool_less_exclusions.txt	LTP283	ltpFR	1	1	0	RELATIVE	1182	n/a	1	n/a	n/a	n/a	n/a	n/a
217570	REC_WORD	wordpools/wasnorm_wordpool_less_exclusions.txt	LTP283	ltpFR	1	1	1	NIECE	952	n/a	1	n/a	n/a	n/a	n/a	n/a
258192	REC_WORD	wordpools/wasnorm_wordpool_less_exclusions.txt	LTP283	ltpFR	1	1	1	PRUNE	1134	n/a	1	n/a	n/a	n/a	n/a	n/a
260971	REC_WORD	wordpools/wasnorm_wordpool_less_exclusions.txt	LTP283	ltpFR	1	1	1	BANANA	77	n/a	1	n/a	n/a	n/a	n/a	n/a
282964	WORD	wordpools/wasnorm_wordpool_less_exclusions.txt	LTP283	ltpFR	1	2	1	GOWN	652	n/a	0	0	0.5869140625	0.422607421875	upper	../fonts/amplitud.ttf
286991	WORD	wordpools/wasnorm_wordpool_less_exclusions.txt	LTP283	ltpFR	1	2	1	CUB	419	n/a	1	0	0.5869140625	0.422607421875	upper	../fonts/amplitud.ttf
291202	WORD	wordpools/wasnorm_wordpool_less_exclusions.txt	LTP283	ltpFR	1	2	0	LOAF	835	n/a	0	1	0.412841796875	0.57763671875	lower	../fonts/zerothre.ttf
295362	WORD	wordpools/wasnorm_wordpool_less_exclusions.txt	LTP283	ltpFR	1	2	0	FAUCET	555	n/a	0	1	0.412841796875	0.57763671875	lower	../fonts/zerothre.ttf
299439	WORD	wordpools/wasnorm_wordpool_less_exclusions.txt	LTP283	ltpFR	1	2	0	PAIL	1002	n/a	0	1	0.412841796875	0.57763671875	lower	../fonts/zerothre.ttf
303450	WORD	wordpools/wasnorm_wordpool_less_exclusions.txt	LTP283	ltpFR	1	2	0	BEAST	108	n/a	1	1	0.412841796875	0.57763671875	lower	../fonts/zerothre.ttf
307576	WORD	wordpools/wasnorm_wordpool_less_exclusions.txt	LTP283	ltpFR	1	2	0	SMOG	1330	n/a	1	1	0.412841796875	0.57763671875	lower	../fonts/zerothre.ttf
311703	WORD	wordpools/wasnorm_wordpool_less_exclusions.txt	LTP283	ltpFR	1	2	1	ATMOSPHERE	54	n/a	0	0	0.5869140625	0.422607421875	upper	../fonts/amplitud.ttf
315765	WORD	wordpools/wasnorm_wordpool_less_exclusions.txt	LTP283	ltpFR	1	2	1	GRIZZLY	662	n/a	1	0	0.5869140625	0.422607421875	upper	../fonts/amplitud.ttf
319892	WORD	wordpools/wasnorm_wordpool_less_exclusions.txt	LTP283	ltpFR	1	2	1	WILDERNESS	1610	n/a	1	0	0.5869140625	0.422607421875	upper	../fonts/amplitud.ttf
323853	WORD	wordpools/wasnorm_wordpool_less_exclusions.txt	LTP283	ltpFR	1	2	0	HOOK	715	n/a	0	1	0.412841796875	0.57763671875	lower	../fonts/zerothre.ttf
328063	WORD	wordpools/wasnorm_wordpool_less_exclusions.txt	LTP283	ltpFR	1	2	0	CINNAMON	310	n/a	0	1	0.412841796875	0.57763671875	lower	../fonts/zerothre.ttf
332140	WORD	wordpools/wasnorm_wordpool_less_exclusions.txt	LTP283	ltpFR	1	2	0	BLUEBERRY	140	n/a	0	1	0.412841796875	0.57763671875	lower	../fonts/zerothre.ttf
336085	WORD	wordpools/wasnorm_wordpool_less_exclusions.txt	LTP283	ltpFR	1	2	1	GAZELLE	628	n/a	1	0	0.5869140625	0.422607421875	upper	../fonts/amplitud.ttf
340245	WORD	wordpools/wasnorm_wordpool_less_exclusions.txt	LTP283	ltpFR	1	2	1	TURNIP	1521	n/a	1	0	0.5869140625	0.422607421875	upper	../fonts/amplitud.ttf
344339	WORD	wordpools/wasnorm_wordpool_less_exclusions.txt	LTP283	ltpFR	1	2	1	PARSLEY	1016	n/a	1	0	0.5869140625	0.422607421875	upper	../fonts/amplitud.ttf
350397	REC_START	n/a	LTP283	ltpFR	1	2	n/a	n/a	n/a	n/a	n/a	n/a	n/a	n/a	n/a	n/a
352335	REC_WORD	wordpools/wasnorm_wordpool_less_exclusions.txt	LTP283	ltpFR	1	2	1	PARSLEY	1016	n/a	1	n/a	n/a	n/a	n/a	n/a
353555	REC_WORD	wordpools/wasnorm_wordpool_less_exclusions.txt	LTP283	ltpFR	1	2	1	GRIZZLY	662	n/a	1	n/a	n/a	n/a	n/a	n/a
354672	REC_WORD	wordpools/wasnorm_wordpool_less_exclusions.txt	LTP283	ltpFR	1	2	0	CINNAMON	310	n/a	0	n/a	n/a	n/a	n/a	n/a
356569	REC_WORD	wordpools/wasnorm_wordpool_less_exclusions.txt	LTP283	ltpFR	1	2	0	BLUEBERRY	140	n/a	0	n/a	n/a	n/a	n/a	n/a
358128	REC_WORD	wordpools/wasnorm_wordpool_less_exclusions.txt	LTP283	ltpFR	1	2	1	GAZELLE	628	n/a	1	n/a	n/a	n/a	n/a	n/a
361815	REC_WORD	wordpools/wasnorm_wordpool_less_exclusions.txt	LTP283	ltpFR	1	2	0	PAIL	1002	n/a	0	n/a	n/a	n/a	n/a	n/a
365120	REC_WORD	wordpools/wasnorm_wordpool_less_exclusions.txt	LTP283	ltpFR	1	2	0	HOOK	715	n/a	0	n/a	n/a	n/a	n/a	n/a
374982	REC_WORD	wordpools/wasnorm_wordpool_less_exclusions.txt	LTP283	ltpFR	1	2	0	SMOG	1330	n/a	1	n/a	n/a	n/a	n/a	n/a
380512	REC_WORD	wordpools/wasnorm_wordpool_less_exclusions.txt	LTP283	ltpFR	1	2	1	WILDERNESS	1610	n/a	1	n/a	n/a	n/a	n/a	n/a
382325	REC_WORD	wordpools/wasnorm_wordpool_less_exclusions.txt	LTP283	ltpFR	1	2	1	ATMOSPHERE	54	n/a	0	n/a	n/a	n/a	n/a	n/a
400475	REC_WORD	wordpools/wasnorm_wordpool_less_exclusions.txt	LTP283	ltpFR	1	2	0	LOAF	835	n/a	0	n/a	n/a	n/a	n/a	n/a
408823	REC_WORD	wordpools/wasnorm_wordpool_less_exclusions.txt	LTP283	ltpFR	1	2	0	PAIL	1002	n/a	0	n/a	n/a	n/a	n/a	n/a
431126	WORD	wordpools/wasnorm_wordpool_less_exclusions.txt	LTP283	ltpFR	1	3	1	HEAD	695	n/a	0	0	0.5869140625	0.422607421875	upper	../fonts/amplitud.ttf
435153	WORD	wordpools/wasnorm_wordpool_less_exclusions.txt	LTP283	ltpFR	1	3	1	FOLLOWER	589	n/a	1	0	0.5869140625	0.422607421875	upper	../fonts/amplitud.ttf
439364	WORD	wordpools/wasnorm_wordpool_less_exclusions.txt	LTP283	ltpFR	1	3	1	EWE	542	n/a	1	0	0.5869140625	0.422607421875	upper	../fonts/amplitud.ttf
443391	WORD	wordpools/wasnorm_wordpool_less_exclusions.txt	LTP283	ltpFR	1	3	1	SHED	1277	n/a	0	0	0.5869140625	0.422607421875	upper	../fonts/amplitud.ttf
447402	WORD	wordpools/wasnorm_wordpool_less_exclusions.txt	LTP283	ltpFR	1	3	1	GRAVEL	659	n/a	0	0	0.5869140625	0.422607421875	upper	../fonts/amplitud.ttf
451263	WORD	wordpools/wasnorm_wordpool_less_exclusions.txt	LTP283	ltpFR	1	3	1	OVEN	991	n/a	0	0	0.5869140625	0.422607421875	upper	../fonts/amplitud.ttf
455140	WORD	wordpools/wasnorm_wordpool_less_exclusions.txt	LTP283	ltpFR	1	3	1	BALLERINA	74	n/a	1	0	0.5869140625	0.422607421875	upper	../fonts/amplitud.ttf
458968	WORD	wordpools/wasnorm_wordpool_less_exclusions.txt	LTP283	ltpFR	1	3	1	PASSAGE	1019	n/a	0	0	0.5869140625	0.422607421875	upper	../fonts/amplitud.ttf
462978	WORD	wordpools/wasnorm_wordpool_less_exclusions.txt	LTP283	ltpFR	1	3	1	LAGOON	795	n/a	0	0	0.5869140625	0.422607421875	upper	../fonts/amplitud.ttf
467006	WORD	wordpools/wasnorm_wordpool_less_exclusions.txt	LTP283	ltpFR	1	3	1	HOSE	720	n/a	0	0	0.5869140625	0.422607421875	upper	../fonts/amplitud.ttf
471100	WORD	wordpools/wasnorm_wordpool_less_exclusions.txt	LTP283	ltpFR	1	3	1	WOLF	1619	n/a	1	0	0.5869140625	0.422607421875	upper	../fonts/amplitud.ttf
475143	WORD	wordpools/wasnorm_wordpool_less_exclusions.txt	LTP283	ltpFR	1	3	1	DOLL	481	n/a	0	0	0.5869140625	0.422607421875	upper	../fonts/amplitud.ttf
479271	WORD	wordpools/wasnorm_wordpool_less_exclusions.txt	LTP283	ltpFR	1	3	1	CABIN	211	n/a	0	0	0.5869140625	0.422607421875	upper	../fonts/amplitud.ttf
483115	WORD	wordpools/wasnorm_wordpool_less_exclusions.txt	LTP283	ltpFR	1	3	1	CHEF	290	n/a	1	0	0.5869140625	0.422607421875	upper	../fonts/amplitud.ttf
487092	WORD	wordpools/wasnorm_wordpool_less_exclusions.txt	LTP283	ltpFR	1	3	1	VEIN	1554	n/a	0	0	0.5869140625	0.422607421875	upper	../fonts/amplitud.ttf
491020	WORD	wordpools/wasnorm_wordpool_less_exclusions.txt	LTP283	ltpFR	1	3	1	CONE	363	n/a	0	0	0.5869140625	0.422607421875	upper	../fonts/amplitud.ttf
496762	REC_START	n/a	LTP283	ltpFR	1	3	n/a	n/a	n/a	n/a	n/a	n/a	n/a	n/a	n/a	n/a
498406	REC_WORD	wordpools/wasnorm_wordpool_less_exclusions.txt	LTP283	ltpFR	1	3	1	CONE	363	n/a	0	n/a	n/a	n/a	n/a	n/a
499559	REC_WORD	wordpools/wasnorm_wordpool_less_exclusions.txt	LTP283	ltpFR	1	3	1	SHED	1277	n/a	0	n/a	n/a	n/a	n/a	n/a
500955	REC_WORD	wordpools/wasnorm_wordpool_less_exclusions.txt	LTP283	ltpFR	1	3	1	VEIN	1554	n/a	0	n/a	n/a	n/a	n/a	n/a
502508	REC_WORD	wordpools/wasnorm_wordpool_less_exclusions.txt	LTP283	ltpFR	1	3	1	EWE	542	n/a	1	n/a	n/a	n/a	n/a	n/a
504007	REC_WORD	wordpools/wasnorm_wordpool_less_exclusions.txt	LTP283	ltpFR	1	3	1	WOLF	1619	n/a	1	n/a	n/a	n/a	n/a	n/a
505509	REC_WORD	wordpools/wasnorm_wordpool_less_exclusions.txt	LTP283	ltpFR	1	3	1	CABIN	211	n/a	0	n/a	n/a	n/a	n/a	n/a
507344	REC_WORD	wordpools/wasnorm_wordpool_less_exclusions.txt	LTP283	ltpFR	1	3	1	FOLLOWER	589	n/a	1	n/a	n/a	n/a	n/a	n/a
510041	REC_WORD	wordpools/wasnorm_wordpool_less_exclusions.txt	LTP283	ltpFR	1	3	1	CHEF	290	n/a	1	n/a	n/a	n/a	n/a	n/a
519064	REC_WORD	wordpools/wasnorm_wordpool_less_exclusions.txt	LTP283	ltpFR	1	3	1	GRAVEL	659	n/a	0	n/a	n/a	n/a	n/a	n/a
538416	REC_WORD	wordpools/wasnorm_wordpool_less_exclusions.txt	LTP283	ltpFR	1	3	1	DOLL	481	n/a	0	n/a	n/a	n/a	n/a	n/a
541858	REC_WORD	wordpools/wasnorm_wordpool_less_exclusions.txt	LTP283	ltpFR	1	3	1	BALLERINA	74	n/a	1	n/a	n/a	n/a	n/a	n/a
544865	REC_WORD	wordpools/wasnorm_wordpool_less_exclusions.txt	LTP283	ltpFR	1	3	1	OVEN	991	n/a	0	n/a	n/a	n/a	n/a	n/a
578521	WORD	wordpools/wasnorm_wordpool_less_exclusions.txt	LTP283	ltpFR	1	4	0	BEAN	105	n/a	0	1	0.412841796875	0.57763671875	lower	../fonts/zerothre.ttf
582599	WORD	wordpools/wasnorm_wordpool_less_exclusions.txt	LTP283	ltpFR	1	4	0	VEGETABLE	1552	n/a	0	1	0.412841796875	0.57763671875	lower	../fonts/zerothre.ttf
586777	WORD	wordpools/wasnorm_wordpool_less_exclusions.txt	LTP283	ltpFR	1	4	0	SALOON	1228	n/a	1	1	0.412841796875	0.57763671875	lower	../fonts/zerothre.ttf
590854	WORD	wordpools/wasnorm_wordpool_less_exclusions.txt	LTP283	ltpFR	1	4	0	BUS	201	n/a	1	1	0.412841796875	0.57763671875	lower	../fonts/zerothre.ttf
594832	WORD	wordpools/wasnorm_wordpool_less_exclusions.txt	LTP283	ltpFR	1	4	0	MOTOR	922	n/a	1	1	0.412841796875	0.57763671875	lower	../fonts/zerothre.ttf
598691	WORD	wordpools/wasnorm_wordpool_less_exclusions.txt	LTP283	ltpFR	1	4	0	BUGLE	189	n/a	1	1	0.412841796875	0.57763671875	lower	../fonts/zerothre.ttf
602619	WORD	wordpools/wasnorm_wordpool_less_exclusions.txt	LTP283	ltpFR	1	4	0	TROMBONE	1508	n/a	1	1	0.412841796875	0.57763671875	lower	../fonts/zerothre.ttf
606696	WORD	wordpools/wasnorm_wordpool_less_exclusions.txt	LTP283	ltpFR	1	4	0	CHIMNEY	301	n/a	1	1	0.412841796875	0.57763671875	lower	../fonts/zerothre.ttf
610824	WORD	wordpools/wasnorm_wordpool_less_exclusions.txt	LTP283	ltpFR	1	4	0	COBBLER	335	n/a	0	1	0.412841796875	0.57763671875	lower	../fonts/zerothre.ttf
615035	WORD	wordpools/wasnorm_wordpool_less_exclusions.txt	LTP283	ltpFR	1	4	0	KNOT	788	n/a	0	1	0.412841796875	0.57763671875	lower	../fonts/zerothre.ttf
619095	WORD	wordpools/wasnorm_wordpool_less_exclusions.txt	LTP283	ltpFR	1	4	0	FOOT	590	n/a	0	1	0.412841796875	0.57763671875	lower	../fonts/zerothre.ttf
623106	WORD	wordpools/wasnorm_wordpool_less_exclusions.txt	LTP283	ltpFR	1	4	0	BEVERAGE	123	n/a	0	1	0.412841796875	0.57763671875	lower	../fonts/zerothre.ttf
627200	WORD	wordpools/wasnorm_wordpool_less_exclusions.txt	LTP283	ltpFR	1	4	0	SAXOPHONE	1240	n/a	1	1	0.412841796875	0.57763671875	lower	../fonts/zerothre.ttf
631210	WORD	wordpools/wasnorm_wordpool_less_exclusions.txt	LTP283	ltpFR	1	4	0	HARE	688	n/a	1	1	0.412841796875	0.57763671875	lower	../fonts/zerothre.ttf
635171	WORD	wordpools/wasnorm_wordpool_less_exclusions.txt	LTP283	ltpFR	1	4	0	CELERY	266	n/a	0	1	0.412841796875	0.57763671875	lower	../fonts/zerothre.ttf
639249	WORD	wordpools/wasnorm_wordpool_less_exclusions.txt	LTP283	ltpFR	1	4	0	CORAL	378	n/a	1	1	0.412841796875	0.57763671875	lower	../fonts/zerothre.ttf
644891	REC_START	n/a	LTP283	ltpFR	1	4	n/a	n/a	n/a	n/a	n/a	n/a	n/a	n/a	n/a	n/a
647314	REC_WORD	wordpools/wasnorm_wordpool_less_exclusions.txt	LTP283	ltpFR	1	4	0	CORAL	378	n/a	1	n/a	n/a	n/a	n/a	n/a
649347	REC_WORD	wordpools/wasnorm_wordpool_less_exclusions.txt	LTP283	ltpFR	1	4	0	VEGETABLE	1552	n/a	0	n/a	n/a	n/a	n/a	n/a
650689	REC_WORD	wordpools/wasnorm_wordpool_less_exclusions.txt	LTP283	ltpFR	1	4	0	CELERY	266	n/a	0	n/a	n/a	n/a	n/a	n/a
652528	REC_WORD	wordpools/wasnorm_wordpool_less_exclusions.txt	LTP283	ltpFR	1	4	0	COBBLER	335	n/a	0	n/a	n/a	n/a	n/a	n/a
654402	REC_WORD	wordpools/wasnorm_wordpool_less_exclusions.txt	LTP283	ltpFR	1	4	0	TROMBONE	1508	n/a	1	n/a	n/a	n/a	n/a	n/a
655925	REC_WORD	wordpools/wasnorm_wordpool_less_exclusions.txt	LTP283	ltpFR	1	4	0	BUGLE	189	n/a	1	n/a	n/a	n/a	n/a	n/a
657147	REC_WORD	wordpools/wasnorm_wordpool_less_exclusions.txt	LTP283	ltpFR	1	4	0	SAXOPHONE	1240	n/a	1	n/a	n/a	n/a	n/a	n/a
659904	REC_WORD	wordpools/wasnorm_wordpool_less_exclusions.txt	LTP283	ltpFR	1	4	0	FOOT	590	n/a	0	n/a	n/a	n/a	n/a	n/a
661715	REC_WORD	wordpools/wasnorm_wordpool_less_exclusions.txt	LTP283	ltpFR	1	4	0	HARE	688	n/a	1	n/a	n/a	n/a	n/a	n/a
715911	REC_WORD	wordpools/wasnorm_wordpool_less_exclusions.txt	LTP283	ltpFR	1	4	0	SALOON	1228	n/a	1	n/a	n/a	n/a	n/a	n/a
726984	WORD	wordpools/wasnorm_wordpool_less_exclusions.txt	LTP283	ltpFR	1	5	0	PUBLISHER	1137	n/a	1	1	0.412841796875	0.57763671875	lower	../fonts/zerothre.ttf
730812	WORD	wordpools/wasnorm_wordpool_less_exclusions.txt	LTP283	ltpFR	1	5	0	AUTHOR	61	n/a	1	1	0.412841796875	0.57763671875	lower	../fonts/zerothre.ttf
735022	WORD	wordpools/wasnorm_wordpool_less_exclusions.txt	LTP283	ltpFR	1	5	0	BARTENDER	92	n/a	1	1	0.412841796875	0.57763671875	lower	../fonts/zerothre.ttf
738883	WORD	wordpools/wasnorm_wordpool_less_exclusions.txt	LTP283	ltpFR	1	5	1	BAKER	71	n/a	1	0	0.5869140625	0.422607421875	upper	../fonts/amplitud.ttf
743027	WORD	wordpools/wasnorm_wordpool_less_exclusions.txt	LTP283	ltpFR	1	5	1	FUDGE	611	n/a	0	0	0.5869140625	0.422607421875	upper	../fonts/amplitud.ttf
746988	WORD	wordpools/wasnorm_wordpool_less_exclusions.txt	LTP283	ltpFR	1	5	1	SODA	1341	n/a	0	0	0.5869140625	0.422607421875	upper	../fonts/amplitud.ttf
750882	WORD	wordpools/wasnorm_wordpool_less_exclusions.txt	LTP283	ltpFR	1	5	1	CREVICE	405	n/a	0	0	0.5869140625	0.422607421875	upper	../fonts/amplitud.ttf
754909	WORD	wordpools/wasnorm_wordpool_less_exclusions.txt	LTP283	ltpFR	1	5	1	MONUMENT	913	n/a	0	0	0.5869140625	0.422607421875	upper	../fonts/amplitud.ttf
758753	WORD	wordpools/wasnorm_wordpool_less_exclusions.txt	LTP283	ltpFR	1	5	0	DUCK	504	n/a	1	1	0.412841796875	0.57763671875	lower	../fonts/zerothre.ttf
762847	WORD	wordpools/wasnorm_wordpool_less_exclusions.txt	LTP283	ltpFR	1	5	0	RAFT	1159	n/a	1	1	0.412841796875	0.57763671875	lower	../fonts/zerothre.ttf
766841	WORD	wordpools/wasnorm_wordpool_less_exclusions.txt	LTP283	ltpFR	1	5	0	AUTOMOBILE	62	n/a	1	1	0.412841796875	0.57763671875	lower	../fonts/zerothre.ttf
770685	WORD	wordpools/wasnorm_wordpool_less_exclusions.txt	LTP283	ltpFR	1	5	0	WAGON	1578	n/a	1	1	0.412841796875	0.57763671875	lower	../fonts/zerothre.ttf
774813	WORD	wordpools/wasnorm_wordpool_less_exclusions.txt	LTP283	ltpFR	1	5	0	SNORKEL	1336	n/a	0	1	0.412841796875	0.57763671875	lower	../fonts/zerothre.ttf
778940	WORD	wordpools/wasnorm_wordpool_less_exclusions.txt	LTP283	ltpFR	1	5	1	MARROW	872	n/a	1	0	0.5869140625	0.422607421875	upper	../fonts/amplitud.ttf
782867	WORD	wordpools/wasnorm_wordpool_less_exclusions.txt	LTP283	ltpFR	1	5	1	LIP	828	n/a	0	0	0.5869140625	0.422607421875	upper	../fonts/amplitud.ttf
786878	WORD	wordpools/wasnorm_wordpool_less_exclusions.txt	LTP283	ltpFR	1	5	1	PASTRY	1022	n/a	0	0	0.5869140625	0.422607421875	upper	../fonts/amplitud.ttf
792787	REC_START	n/a	LTP283	ltpFR	1	5	n/a	n/a	n/a	n/a	n/a	n/a	n/a	n/a	n/a	n/a
795182	REC_WORD	wordpools/wasnorm_wordpool_less_exclusions.txt	LTP283	ltpFR	1	5	1	PASTRY	1022	n/a	0	n/a	n/a	n/a	n/a	n/a
796677	REC_WORD	wordpools/wasnorm_wordpool_less_exclusions.txt	LTP283	ltpFR	1	5	1	MARROW	872	n/a	1	n/a	n/a	n/a	n/a	n/a
798074	REC_WORD	wordpools/wasnorm_wordpool_less_exclusions.txt	LTP283	ltpFR	1	5	1	LIP	828	n/a	0	n/a	n/a	n/a	n/a	n/a
799946	REC_WORD	wordpools/wasnorm_wordpool_less_exclusions.txt	LTP283	ltpFR	1	5	0	RAFT	1159	n/a	1	n/a	n/a	n/a	n/a	n/a
812344	REC_WORD	wordpools/wasnorm_wordpool_less_exclusions.txt	LTP283	ltpFR	1	5	0	AUTOMOBILE	62	n/a	1	n/a	n/a	n/a	n/a	n/a
821057	REC_WORD	wordpools/wasnorm_wordpool_less_exclusions.txt	LTP283	ltpFR	1	5	1	MONUMENT	913	n/a	0	n/a	n/a	n/a	n/a	n/a
822057	REC_WORD_VV	wordpools/wasnorm_wordpool_less_exclusions.txt	LTP283	ltpFR	1	5	n/a	<>	-1	n/a	n/a	n/a	n/a	n/a	n/a	n/a
851524	REC_WORD	wordpools/wasnorm_wordpool_less_exclusions.txt	LTP283	ltpFR	1	5	0	AUTHOR	61	n/a	1	n/a	n/a	n/a	n/a	n/a
853389	REC_WORD	wordpools/wasnorm_wordpool_less_exclusions.txt	LTP283	ltpFR	1	5	0	PUBLISHER	1137	n/a	1	n/a	n/a	n/a	n/a	n/a
886230	WORD	wordpools/wasnorm_wordpool_less_exclusions.txt	LTP283	ltpFR	1	6	-1	BARN	89	n/a	-1	1	1.0	1.0	upper	../fonts/Verdana.ttf
890357	WORD	wordpools/wasnorm_wordpool_less_exclusions.txt	LTP283	ltpFR	1	6	-1	LEOPARD	812	n/a	-1	1	1.0	1.0	upper	../fonts/Verdana.ttf
894384	WORD	wordpools/wasnorm_wordpool_less_exclusions.txt	LTP283	ltpFR	1	6	-1	LUNG	850	n/a	-1	1	1.0	1.0	upper	../fonts/Verdana.ttf
898560	WORD	wordpools/wasnorm_wordpool_less_exclusions.txt	LTP283	ltpFR	1	6	-1	TUB	1514	n/a	-1	1	1.0	1.0	upper	../fonts/Verdana.ttf
902721	WORD	wordpools/wasnorm_wordpool_less_exclusions.txt	LTP283	ltpFR	1	6	-1	OAR	966	n/a	-1	1	1.0	1.0	upper	../fonts/Verdana.ttf
906916	WORD	wordpools/wasnorm_wordpool_less_exclusions.txt	LTP283	ltpFR	1	6	-1	LINEN	825	n/a	-1	1	1.0	1.0	upper	../fonts/Verdana.ttf
910993	WORD	wordpools/wasnorm_wordpool_less_exclusions.txt	LTP283	ltpFR	1	6	-1	LOFT	840	n/a	-1	1	1.0	1.0	upper	../fonts/Verdana.ttf
914837	WORD	wordpools/wasnorm_wordpool_less_exclusions.txt	LTP283	ltpFR	1	6	-1	NEPTUNE	943	n/a	-1	1	1.0	1.0	upper	../fonts/Verdana.ttf
918664	WORD	wordpools/wasnorm_wordpool_less_exclusions.txt	LTP283	ltpFR	1	6	-1	MALL	860	n/a	-1	1	1.0	1.0	upper	../fonts/Verdana.ttf
922591	WORD	wordpools/wasnorm_wordpool_less_exclusions.txt	LTP283	ltpFR	1	6	-1	MARKET	871	n/a	-1	1	1.0	1.0	upper	../fonts/Verdana.ttf
926436	WORD	wordpools/wasnorm_wordpool_less_exclusions.txt	LTP283	ltpFR	1	6	-1	POOL	1103	n/a	-1	1	1.0	1.0	upper	../fonts/Verdana.ttf
930596	WORD	wordpools/wasnorm_wordpool_less_exclusions.txt	LTP283	ltpFR	1	6	-1	LIVER	833	n/a	-1	1	1.0	1.0	upper	../fonts/Verdana.ttf
934607	WORD	wordpools/wasnorm_wordpool_less_exclusions.txt	LTP283	ltpFR	1	6	-1	KNOB	787	n/a	-1	1	1.0	1.0	upper	../fonts/Verdana.ttf
938502	WORD	wordpools/wasnorm_wordpool_less_exclusions.txt	LTP283	ltpFR	1	6	-1	CAGE	218	n/a	-1	1	1.0	1.0	upper	../fonts/Verdana.ttf
942396	WORD	wordpools/wasnorm_wordpool_less_exclusions.txt	LTP283	ltpFR	1	6	-1	APPENDAGE	32	n/a	-1	1	1.0	1.0	upper	../fonts/Verdana.ttf
946605	WORD	wordpools/wasnorm_wordpool_less_exclusions.txt	LTP283	ltpFR	1	6	-1	BOAT	144	n/a	-1	1	1.0	1.0	upper	../fonts/Verdana.ttf
952215	REC_START	n/a	LTP283	ltpFR	1	6	n/a	n/a	n/a	n/a	n/a	n/a	n/a	n/a	n/a	n/a
954644	REC_WORD	wordpools/wasnorm_wordpool_less_exclusions.txt	LTP283	ltpFR	1	6	-1	BOAT	144	n/a	-1	n/a	n/a	n/a	n/a	n/a
955759	REC_WORD	wordpools/wasnorm_wordpool_less_exclusions.txt	LTP283	ltpFR	1	6	-1	APPENDAGE	32	n/a	-1	n/a	n/a	n/a	n/a	n/a
957150	REC_WORD	wordpools/wasnorm_wordpool_less_exclusions.txt	LTP283	ltpFR	1	6	-1	LIVER	833	n/a	-1	n/a	n/a	n/a	n/a	n/a
958668	REC_WORD	wordpools/wasnorm_wordpool_less_exclusions.txt	LTP283	ltpFR	1	6	-1	CAGE	218	n/a	-1	n/a	n/a	n/a	n/a	n/a
960221	REC_WORD	wordpools/wasnorm_wordpool_less_exclusions.txt	LTP283	ltpFR	1	6	-1	LEOPARD	812	n/a	-1	n/a	n/a	n/a	n/a	n/a
962015	REC_WORD	wordpools/wasnorm_wordpool_less_exclusions.txt	LTP283	ltpFR	1	6	-1	MALL	860	n/a	-1	n/a	n/a	n/a	n/a	n/a
963488	REC_WORD	wordpools/wasnorm_wordpool_less_exclusions.txt	LTP283	ltpFR	1	6	-1	MARKET	871	n/a	-1	n/a	n/a	n/a	n/a	n/a
965147	REC_WORD	wordpools/wasnorm_wordpool_less_exclusions.txt	LTP283	ltpFR	1	6	-1	LINEN	825	n/a	-1	n/a	n/a	n/a	n/a	n/a
967019	REC_WORD	wordpools/wasnorm_wordpool_less_exclusions.txt	LTP283	ltpFR	1	6	-1	KNOB	787	n/a	-1	n/a	n/a	n/a	n/a	n/a
968935	REC_WORD	wordpools/wasnorm_wordpool_less_exclusions.txt	LTP283	ltpFR	1	6	-1	POOL	1103	n/a	-1	n/a	n/a	n/a	n/a	n/a
971151	REC_WORD	wordpools/wasnorm_wordpool_less_exclusions.txt	LTP283	ltpFR	1	6	-1	NEPTUNE	943	n/a	-1	n/a	n/a	n/a	n/a	n/a
976613	REC_WORD	wordpools/wasnorm_wordpool_less_exclusions.txt	LTP283	ltpFR	1	6	-1	BARN	89	n/a	-1	n/a	n/a	n/a	n/a	n/a
978474	REC_WORD	wordpools/wasnorm_wordpool_less_exclusions.txt	LTP283	ltpFR	1	6	-1	LOFT	840	n/a	-1	n/a	n/a	n/a	n/a	n/a
995067	REC_WORD	wordpools/wasnorm_wordpool_less_exclusions.txt	LTP283	ltpFR	1	6	-1	OAR	966	n/a	-1	n/a	n/a	n/a	n/a	n/a
1035357	WORD	wordpools/wasnorm_wordpool_less_exclusions.txt	LTP283	ltpFR	1	7	0	POSTAGE	1113	n/a	0	1	0.412841796875	0.57763671875	lower	../fonts/zerothre.ttf
1039468	WORD	wordpools/wasnorm_wordpool_less_exclusions.txt	LTP283	ltpFR	1	7	0	CANAL	226	n/a	1	1	0.412841796875	0.57763671875	lower	../fonts/zerothre.ttf
1043362	WORD	wordpools/wasnorm_wordpool_less_exclusions.txt	LTP283	ltpFR	1	7	0	WORKER	1621	n/a	1	1	0.412841796875	0.57763671875	lower	../fonts/zerothre.ttf
1047505	WORD	wordpools/wasnorm_wordpool_less_exclusions.txt	LTP283	ltpFR	1	7	0	LUMBER	848	n/a	1	1	0.412841796875	0.57763671875	lower	../fonts/zerothre.ttf
1051400	WORD	wordpools/wasnorm_wordpool_less_exclusions.txt	LTP283	ltpFR	1	7	0	ELM	527	n/a	1	1	0.412841796875	0.57763671875	lower	../fonts/zerothre.ttf
1055394	WORD	wordpools/wasnorm_wordpool_less_exclusions.txt	LTP283	ltpFR	1	7	0	APPLE	33	n/a	0	1	0.412841796875	0.57763671875	lower	../fonts/zerothre.ttf
1059271	WORD	wordpools/wasnorm_wordpool_less_exclusions.txt	LTP283	ltpFR	1	7	0	SUMMIT	1405	n/a	1	1	0.412841796875	0.57763671875	lower	../fonts/zerothre.ttf
1063449	WORD	wordpools/wasnorm_wordpool_less_exclusions.txt	LTP283	ltpFR	1	7	0	CUPBOARD	425	n/a	1	1	0.412841796875	0.57763671875	lower	../fonts/zerothre.ttf
1067409	WORD	wordpools/wasnorm_wordpool_less_exclusions.txt	LTP283	ltpFR	1	7	0	BAND	78	n/a	1	1	0.412841796875	0.57763671875	lower	../fonts/zerothre.ttf
1071337	WORD	wordpools/wasnorm_wordpool_less_exclusions.txt	LTP283	ltpFR	1	7	0	TART	1436	n/a	0	1	0.412841796875	0.57763671875	lower	../fonts/zerothre.ttf
1075347	WORD	wordpools/wasnorm_wordpool_less_exclusions.txt	LTP283	ltpFR	1	7	0	VACUUM	1543	n/a	1	1	0.412841796875	0.57763671875	lower	../fonts/zerothre.ttf
1079175	WORD	wordpools/wasnorm_wordpool_less_exclusions.txt	LTP283	ltpFR	1	7	0	DUSTPAN	509	n/a	0	1	0.412841796875	0.57763671875	lower	../fonts/zerothre.ttf
1083335	WORD	wordpools/wasnorm_wordpool_less_exclusions.txt	LTP283	ltpFR	1	7	0	LID	817	n/a	0	1	0.412841796875	0.57763671875	lower	../fonts/zerothre.ttf
1087512	WORD	wordpools/wasnorm_wordpool_less_exclusions.txt	LTP283	ltpFR	1	7	0	SUPPER	1411	n/a	1	1	0.412841796875	0.57763671875	lower	../fonts/zerothre.ttf
1091672	WORD	wordpools/wasnorm_wordpool_less_exclusions.txt	LTP283	ltpFR	1	7	0	TAXI	1438	n/a	1	1	0.412841796875	0.57763671875	lower	../fonts/zerothre.ttf
1095716	WORD	wordpools/wasnorm_wordpool_less_exclusions.txt	LTP283	ltpFR	1	7	0	COUGAR	387	n/a	1	1	0.412841796875	0.57763671875	lower	../fonts/zerothre.ttf
1101558	REC_START	n/a	LTP283	ltpFR	1	7	n/a	n/a	n/a	n/a	n/a	n/a	n/a	n/a	n/a	n/a
1104060	REC_WORD	wordpools/wasnorm_wordpool_less_exclusions.txt	LTP283	ltpFR	1	7	0	COUGAR	387	n/a	1	n/a	n/a	n/a	n/a	n/a
1105328	REC_WORD	wordpools/wasnorm_wordpool_less_exclusions.txt	LTP283	ltpFR	1	7	0	TAXI	1438	n/a	1	n/a	n/a	n/a	n/a	n/a
1106579	REC_WORD	wordpools/wasnorm_wordpool_less_exclusions.txt	LTP283	ltpFR	1	7	0	LUMBER	848	n/a	1	n/a	n/a	n/a	n/a	n/a
1108070	REC_WORD	wordpools/wasnorm_wordpool_less_exclusions.txt	LTP283	ltpFR	1	7	0	ELM	527	n/a	1	n/a	n/a	n/a	n/a	n/a
1109568	REC_WORD	wordpools/wasnorm_wordpool_less_exclusions.txt	LTP283	ltpFR	1	7	0	CANAL	226	n/a	1	n/a	n/a	n/a	n/a	n/a
1111681	REC_WORD	wordpools/wasnorm_wordpool_less_exclusions.txt	LTP283	ltpFR	1	7	0	TART	1436	n/a	0	n/a	n/a	n/a	n/a	n/a
1113101	REC_WORD	wordpools/wasnorm_wordpool_less_exclusions.txt	LTP283	ltpFR	1	7	0	APPLE	33	n/a	0	n/a	n/a	n/a	n/a	n/a
1132915	REC_WORD	wordpools/wasnorm_wordpool_less_exclusions.txt	LTP283	ltpFR	1	7	0	COUGAR	387	n/a	1	n/a	n/a	n/a	n/a	n/a
1142428	REC_WORD	wordpools/wasnorm_wordpool_less_exclusions.txt	LTP283	ltpFR	1	7	0	DUSTPAN	509	n/a	0	n/a	n/a	n/a	n/a	n/a
1143689	REC_WORD	wordpools/wasnorm_wordpool_less_exclusions.txt	LTP283	ltpFR	1	7	0	LID	817	n/a	0	n/a	n/a	n/a	n/a	n/a
1194286	WORD	wordpools/wasnorm_wordpool_less_exclusions.txt	LTP283	ltpFR	1	8	1	PLUM	1090	n/a	1	0	0.5869140625	0.422607421875	upper	../fonts/amplitud.ttf
1198280	WORD	wordpools/wasnorm_wordpool_less_exclusions.txt	LTP283	ltpFR	1	8	1	FOREST	593	n/a	1	0	0.5869140625	0.422607421875	upper	../fonts/amplitud.ttf
1202258	WORD	wordpools/wasnorm_wordpool_less_exclusions.txt	LTP283	ltpFR	1	8	1	LIZARD	834	n/a	1	0	0.5869140625	0.422607421875	upper	../fonts/amplitud.ttf
1206152	WORD	wordpools/wasnorm_wordpool_less_exclusions.txt	LTP283	ltpFR	1	8	1	CHEST	295	n/a	0	0	0.5869140625	0.422607421875	upper	../fonts/amplitud.ttf
1210213	WORD	wordpools/wasnorm_wordpool_less_exclusions.txt	LTP283	ltpFR	1	8	1	INFANT	737	n/a	1	0	0.5869140625	0.422607421875	upper	../fonts/amplitud.ttf
1214090	WORD	wordpools/wasnorm_wordpool_less_exclusions.txt	LTP283	ltpFR	1	8	1	COUSIN	392	n/a	1	0	0.5869140625	0.422607421875	upper	../fonts/amplitud.ttf
1218068	WORD	wordpools/wasnorm_wordpool_less_exclusions.txt	LTP283	ltpFR	1	8	1	SNAKE	1333	n/a	1	0	0.5869140625	0.422607421875	upper	../fonts/amplitud.ttf
1222245	WORD	wordpools/wasnorm_wordpool_less_exclusions.txt	LTP283	ltpFR	1	8	1	MAN	862	n/a	1	0	0.5869140625	0.422607421875	upper	../fonts/amplitud.ttf
1226422	WORD	wordpools/wasnorm_wordpool_less_exclusions.txt	LTP283	ltpFR	1	8	1	SATURN	1236	n/a	0	0	0.5869140625	0.422607421875	upper	../fonts/amplitud.ttf
1230366	WORD	wordpools/wasnorm_wordpool_less_exclusions.txt	LTP283	ltpFR	1	8	1	JUPITER	765	n/a	0	0	0.5869140625	0.422607421875	upper	../fonts/amplitud.ttf
1234260	WORD	wordpools/wasnorm_wordpool_less_exclusions.txt	LTP283	ltpFR	1	8	1	TRIBE	1505	n/a	1	0	0.5869140625	0.422607421875	upper	../fonts/amplitud.ttf
1238421	WORD	wordpools/wasnorm_wordpool_less_exclusions.txt	LTP283	ltpFR	1	8	1	MOTHER	921	n/a	1	0	0.5869140625	0.422607421875	upper	../fonts/amplitud.ttf
1242464	WORD	wordpools/wasnorm_wordpool_less_exclusions.txt	LTP283	ltpFR	1	8	1	FISH	571	n/a	1	0	0.5869140625	0.422607421875	upper	../fonts/amplitud.ttf
1246475	WORD	wordpools/wasnorm_wordpool_less_exclusions.txt	LTP283	ltpFR	1	8	1	TANK	1432	n/a	0	0	0.5869140625	0.422607421875	upper	../fonts/amplitud.ttf
1250369	WORD	wordpools/wasnorm_wordpool_less_exclusions.txt	LTP283	ltpFR	1	8	1	ASTEROID	50	n/a	0	0	0.5869140625	0.422607421875	upper	../fonts/amplitud.ttf
1254413	WORD	wordpools/wasnorm_wordpool_less_exclusions.txt	LTP283	ltpFR	1	8	1	NEPHEW	942	n/a	1	0	0.5869140625	0.422607421875	upper	../fonts/amplitud.ttf
1260155	REC_START	n/a	LTP283	ltpFR	1	8	n/a	n/a	n/a	n/a	n/a	n/a	n/a	n/a	n/a	n/a
1262936	REC_WORD	wordpools/wasnorm_wordpool_less_exclusions.txt	LTP283	ltpFR	1	8	1	JUPITER	765	n/a	0	n/a	n/a	n/a	n/a	n/a
1266353	REC_WORD	wordpools/wasnorm_wordpool_less_exclusions.txt	LTP283	ltpFR	1	8	1	SATURN	1236	n/a	0	n/a	n/a	n/a	n/a	n/a
1268327	REC_WORD	wordpools/wasnorm_wordpool_less_exclusions.txt	LTP283	ltpFR	1	8	1	NEPHEW	942	n/a	1	n/a	n/a	n/a	n/a	n/a
1270919	REC_WORD	wordpools/wasnorm_wordpool_less_exclusions.txt	LTP283	ltpFR	1	8	1	COUSIN	392	n/a	1	n/a	n/a	n/a	n/a	n/a
1272140	REC_WORD	wordpools/wasnorm_wordpool_less_exclusions.txt	LTP283	ltpFR	1	8	1	MOTHER	921	n/a	1	n/a	n/a	n/a	n/a	n/a
1274154	REC_WORD	wordpools/wasnorm_wordpool_less_exclusions.txt	LTP283	ltpFR	1	8	1	MAN	862	n/a	1	n/a	n/a	n/a	n/a	n/a
1277651	REC_WORD	wordpools/wasnorm_wordpool_less_exclusions.txt	LTP283	ltpFR	1	8	1	SNAKE	1333	n/a	1	n/a	n/a	n/a	n/a	n/a
1278849	REC_WORD	wordpools/wasnorm_wordpool_less_exclusions.txt	LTP283	ltpFR	1	8	1	LIZARD	834	n/a	1	n/a	n/a	n/a	n/a	n/a
1279874	REC_WORD	wordpools/wasnorm_wordpool_less_exclusions.txt	LTP283	ltpFR	1	8	1	FISH	571	n/a	1	n/a	n/a	n/a	n/a	n/a
1281669	REC_WORD	wordpools/wasnorm_wordpool_less_exclusions.txt	LTP283	ltpFR	1	8	1	TRIBE	1505	n/a	1	n/a	n/a	n/a	n/a	n/a
1282826	REC_WORD	wordpools/wasnorm_wordpool_less_exclusions.txt	LTP283	ltpFR	1	8	1	FOREST	593	n/a	1	n/a	n/a	n/a	n/a	n/a
1283826	REC_WORD_VV	wordpools/wasnorm_wordpool_less_exclusions.txt	LTP283	ltpFR	1	8	n/a	<>	-1	n/a	n/a	n/a	n/a	n/a	n/a	n/a
1284476	REC_WORD	wordpools/wasnorm_wordpool_less_exclusions.txt	LTP283	ltpFR	1	8	1	PLUM	1090	n/a	1	n/a	n/a	n/a	n/a	n/a
1295502	REC_WORD	wordpools/wasnorm_wordpool_less_exclusions.txt	LTP283	ltpFR	1	8	1	ASTEROID	50	n/a	0	n/a	n/a	n/a	n/a	n/a
1302932	REC_WORD	wordpools/wasnorm_wordpool_less_exclusions.txt	LTP283	ltpFR	1	8	1	CHEST	295	n/a	0	n/a	n/a	n/a	n/a	n/a
1335775	REST_REWET	n/a	LTP283	ltpFR	1	8	n/a	n/a	n/a	n/a	n/a	n/a	n/a	n/a	n/a	n/a
1996938	WORD	wordpools/wasnorm_wordpool_less_exclusions.txt	LTP283	ltpFR	1	9	1	WALRUS	1585	n/a	n/a	0	0.5869140625	0.422607421875	upper	../fonts/amplitud.ttf
1999967	SLOW_MSG	n/a	LTP283	ltpFR	1	9	n/a	n/a	n/a	n/a	n/a	n/a	n/a	n/a	n/a	n/a
2002313	WORD	wordpools/wasnorm_wordpool_less_exclusions.txt	LTP283	ltpFR	1	9	1	APE	31	n/a	0	0	0.5869140625	0.422607421875	upper	../fonts/amplitud.ttf
2006490	WORD	wordpools/wasnorm_wordpool_less_exclusions.txt	LTP283	ltpFR	1	9	1	SHACK	1273	n/a	0	0	0.5869140625	0.422607421875	upper	../fonts/amplitud.ttf
2010517	WORD	wordpools/wasnorm_wordpool_less_exclusions.txt	LTP283	ltpFR	1	9	1	FINGER	567	n/a	0	0	0.5869140625	0.422607421875	upper	../fonts/amplitud.ttf
2014445	WORD	wordpools/wasnorm_wordpool_less_exclusions.txt	LTP283	ltpFR	1	9	1	BIBLE	124	n/a	0	0	0.5869140625	0.422607421875	upper	../fonts/amplitud.ttf
2018389	WORD	wordpools/wasnorm_wordpool_less_exclusions.txt	LTP283	ltpFR	1	9	1	SHELF	1280	n/a	0	0	0.5869140625	0.422607421875	upper	../fonts/amplitud.ttf
2022582	WORD	wordpools/wasnorm_wordpool_less_exclusions.txt	LTP283	ltpFR	1	9	1	DOORBELL	487	n/a	0	0	0.5869140625	0.422607421875	upper	../fonts/amplitud.ttf
2026626	WORD	wordpools/wasnorm_wordpool_less_exclusions.txt	LTP283	ltpFR	1	9	1	EMERALD	528	n/a	0	0	0.5869140625	0.422607421875	upper	../fonts/amplitud.ttf
2030804	WORD	wordpools/wasnorm_wordpool_less_exclusions.txt	LTP283	ltpFR	1	9	1	BAY	102	n/a	0	0	0.5869140625	0.422607421875	upper	../fonts/amplitud.ttf
2034865	WORD	wordpools/wasnorm_wordpool_less_exclusions.txt	LTP283	ltpFR	1	9	1	DIVER	476	n/a	n/a	0	0.5869140625	0.422607421875	upper	../fonts/amplitud.ttf
2037894	SLOW_MSG	n/a	LTP283	ltpFR	1	9	n/a	n/a	n/a	n/a	n/a	n/a	n/a	n/a	n/a	n/a
2040622	WORD	wordpools/wasnorm_wordpool_less_exclusions.txt	LTP283	ltpFR	1	9	1	DOCUMENT	479	n/a	0	0	0.5869140625	0.422607421875	upper	../fonts/amplitud.ttf
2044566	WORD	wordpools/wasnorm_wordpool_less_exclusions.txt	LTP283	ltpFR	1	9	1	SHINGLE	1285	n/a	0	0	0.5869140625	0.422607421875	upper	../fonts/amplitud.ttf
2048494	WORD	wordpools/wasnorm_wordpool_less_exclusions.txt	LTP283	ltpFR	1	9	1	GLOVE	642	n/a	0	0	0.5869140625	0.422607421875	upper	../fonts/amplitud.ttf
2052372	WORD	wordpools/wasnorm_wordpool_less_exclusions.txt	LTP283	ltpFR	1	9	1	MOOSE	915	n/a	1	0	0.5869140625	0.422607421875	upper	../fonts/amplitud.ttf
2056299	WORD	wordpools/wasnorm_wordpool_less_exclusions.txt	LTP283	ltpFR	1	9	1	FLY	586	n/a	1	0	0.5869140625	0.422607421875	upper	../fonts/amplitud.ttf
2060310	WORD	wordpools/wasnorm_wordpool_less_exclusions.txt	LTP283	ltpFR	1	9	1	TAR	1435	n/a	0	0	0.5869140625	0.422607421875	upper	../fonts/amplitud.ttf
2066219	REC_START	n/a	LTP283	ltpFR	1	9	n/a	n/a	n/a	n/a	n/a	n/a	n/a	n/a	n/a	n/a
2068438	REC_WORD	wordpools/wasnorm_wordpool_less_exclusions.txt	LTP283	ltpFR	1	9	1	TAR	1435	n/a	0	n/a	n/a	n/a	n/a	n/a
2069244	REC_WORD	wordpools/wasnorm_wordpool_less_exclusions.txt	LTP283	ltpFR	1	9	1	FLY	586	n/a	1	n/a	n/a	n/a	n/a	n/a
2070508	REC_WORD	wordpools/wasnorm_wordpool_less_exclusions.txt	LTP283	ltpFR	1	9	1	APE	31	n/a	0	n/a	n/a	n/a	n/a	n/a
2071562	REC_WORD	wordpools/wasnorm_wordpool_less_exclusions.txt	LTP283	ltpFR	1	9	1	MOOSE	915	n/a	1	n/a	n/a	n/a	n/a	n/a
2075525	REC_WORD	wordpools/wasnorm_wordpool_less_exclusions.txt	LTP283	ltpFR	1	9	1	SHACK	1273	n/a	0	n/a	n/a	n/a	n/a	n/a
2085158	REC_WORD	wordpools/wasnorm_wordpool_less_exclusions.txt	LTP283	ltpFR	1	9	1	BIBLE	124	n/a	0	n/a	n/a	n/a	n/a	n/a
2086951	REC_WORD	wordpools/wasnorm_wordpool_less_exclusions.txt	LTP283	ltpFR	1	9	1	DOORBELL	487	n/a	0	n/a	n/a	n/a	n/a	n/a
2147813	WORD	wordpools/wasnorm_wordpool_less_exclusions.txt	LTP283	ltpFR	1	10	-1	INN	739	n/a	-1	1	1.0	1.0	upper	../fonts/Verdana.ttf
2151873	WORD	wordpools/wasnorm_wordpool_less_exclusions.txt	LTP283	ltpFR	1	10	-1	PLAID	1080	n/a	-1	1	1.0	1.0	upper	../fonts/Verdana.ttf
2155901	WORD	wordpools/wasnorm_wordpool_less_exclusions.txt	LTP283	ltpFR	1	10	-1	LAPEL	800	n/a	-1	1	1.0	1.0	upper	../fonts/Verdana.ttf
2159778	WORD	wordpools/wasnorm_wordpool_less_exclusions.txt	LTP283	ltpFR	1	10	-1	TOE	1473	n/a	-1	1	1.0	1.0	upper	../fonts/Verdana.ttf
2163889	WORD	wordpools/wasnorm_wordpool_less_exclusions.txt	LTP283	ltpFR	1	10	-1	ANKLE	24	n/a	-1	1	1.0	1.0	upper	../fonts/Verdana.ttf
2167999	WORD	wordpools/wasnorm_wordpool_less_exclusions.txt	LTP283	ltpFR	1	10	-1	PEDAL	1037	n/a	-1	1	1.0	1.0	upper	../fonts/Verdana.ttf
2171860	WORD	wordpools/wasnorm_wordpool_less_exclusions.txt	LTP283	ltpFR	1	10	-1	VEHICLE	1553	n/a	-1	1	1.0	1.0	upper	../fonts/Verdana.ttf
2175838	WORD	wordpools/wasnorm_wordpool_less_exclusions.txt	LTP283	ltpFR	1	10	-1	SPOON	1357	n/a	-1	1	1.0	1.0	upper	../fonts/Verdana.ttf
2179832	WORD	wordpools/wasnorm_wordpool_less_exclusions.txt	LTP283	ltpFR	1	10	-1	TRIGGER	1507	n/a	-1	1	1.0	1.0	upper	../fonts/Verdana.ttf
2183708	WORD	wordpools/wasnorm_wordpool_less_exclusions.txt	LTP283	ltpFR	1	10	-1	ORCHID	982	n/a	-1	1	1.0	1.0	upper	../fonts/Verdana.ttf
2187753	WORD	wordpools/wasnorm_wordpool_less_exclusions.txt	LTP283	ltpFR	1	10	-1	BOOT	150	n/a	-1	1	1.0	1.0	upper	../fonts/Verdana.ttf
2191830	WORD	wordpools/wasnorm_wordpool_less_exclusions.txt	LTP283	ltpFR	1	10	-1	UNIFORM	1539	n/a	-1	1	1.0	1.0	upper	../fonts/Verdana.ttf
2195958	WORD	wordpools/wasnorm_wordpool_less_exclusions.txt	LTP283	ltpFR	1	10	-1	COURSE	390	n/a	-1	1	1.0	1.0	upper	../fonts/Verdana.ttf
2200118	WORD	wordpools/wasnorm_wordpool_less_exclusions.txt	LTP283	ltpFR	1	10	-1	OATMEAL	967	n/a	-1	1	1.0	1.0	upper	../fonts/Verdana.ttf
2204145	WORD	wordpools/wasnorm_wordpool_less_exclusions.txt	LTP283	ltpFR	1	10	-1	SUITE	1404	n/a	-1	1	1.0	1.0	upper	../fonts/Verdana.ttf
2208239	WORD	wordpools/wasnorm_wordpool_less_exclusions.txt	LTP283	ltpFR	1	10	-1	OFFICER	973	n/a	-1	1	1.0	1.0	upper	../fonts/Verdana.ttf
2214081	REC_START	n/a	LTP283	ltpFR	1	10	n/a	n/a	n/a	n/a	n/a	n/a	n/a	n/a	n/a	n/a
2215848	REC_WORD	wordpools/wasnorm_wordpool_less_exclusions.txt	LTP283	ltpFR	1	10	-1	OFFICER	973	n/a	-1	n/a	n/a	n/a	n/a	n/a
2216966	REC_WORD	wordpools/wasnorm_wordpool_less_exclusions.txt	LTP283	ltpFR	1	10	-1	SUITE	1404	n/a	-1	n/a	n/a	n/a	n/a	n/a
2218931	REC_WORD	wordpools/wasnorm_wordpool_less_exclusions.txt	LTP283	ltpFR	1	10	-1	COURSE	390	n/a	-1	n/a	n/a	n/a	n/a	n/a
2220637	REC_WORD	wordpools/wasnorm_wordpool_less_exclusions.txt	LTP283	ltpFR	1	10	-1	BOOT	150	n/a	-1	n/a	n/a	n/a	n/a	n/a
2222249	REC_WORD	wordpools/wasnorm_wordpool_less_exclusions.txt	LTP283	ltpFR	1	10	-1	UNIFORM	1539	n/a	-1	n/a	n/a	n/a	n/a	n/a
2225049	REC_WORD	wordpools/wasnorm_wordpool_less_exclusions.txt	LTP283	ltpFR	1	10	-1	PEDAL	1037	n/a	-1	n/a	n/a	n/a	n/a	n/a
2230397	REC_WORD	wordpools/wasnorm_wordpool_less_exclusions.txt	LTP283	ltpFR	1	10	-1	VEHICLE	1553	n/a	-1	n/a	n/a	n/a	n/a	n/a
2233339	REC_WORD	wordpools/wasnorm_wordpool_less_exclusions.txt	LTP283	ltpFR	1	10	0	FOOT	590	n/a	0	n/a	n/a	n/a	n/a	n/a
2235398	REC_WORD	wordpools/wasnorm_wordpool_less_exclusions.txt	LTP283	ltpFR	1	10	-1	TOE	1473	n/a	-1	n/a	n/a	n/a	n/a	n/a
2238785	REC_WORD	wordpools/wasnorm_wordpool_less_exclusions.txt	LTP283	ltpFR	1	10	-1	INN	739	n/a	-1	n/a	n/a	n/a	n/a	n/a
2240468	REC_WORD	wordpools/wasnorm_wordpool_less_exclusions.txt	LTP283	ltpFR	1	10	-1	PLAID	1080	n/a	-1	n/a	n/a	n/a	n/a	n/a
2242500	REC_WORD	wordpools/wasnorm_wordpool_less_exclusions.txt	LTP283	ltpFR	1	10	-1	LAPEL	800	n/a	-1	n/a	n/a	n/a	n/a	n/a
2253918	REC_WORD	wordpools/wasnorm_wordpool_less_exclusions.txt	LTP283	ltpFR	1	10	-1	TRIGGER	1507	n/a	-1	n/a	n/a	n/a	n/a	n/a
2255900	REC_WORD	wordpools/wasnorm_wordpool_less_exclusions.txt	LTP283	ltpFR	1	10	-1	ORCHID	982	n/a	-1	n/a	n/a	n/a	n/a	n/a
2295842	WORD	wordpools/wasnorm_wordpool_less_exclusions.txt	LTP283	ltpFR	1	11	1	SOFA	1342	n/a	0	0	0.5869140625	0.422607421875	upper	../fonts/amplitud.ttf
2299836	WORD	wordpools/wasnorm_wordpool_less_exclusions.txt	LTP283	ltpFR	1	11	1	CREW	406	n/a	1	0	0.5869140625	0.422607421875	upper	../fonts/amplitud.ttf
2303712	WORD	wordpools/wasnorm_wordpool_less_exclusions.txt	LTP283	ltpFR	1	11	0	SUBMARINE	1398	n/a	1	1	0.412841796875	0.57763671875	lower	../fonts/zerothre.ttf
2307824	WORD	wordpools/wasnorm_wordpool_less_exclusions.txt	LTP283	ltpFR	1	11	0	BLANKET	135	n/a	1	1	0.412841796875	0.57763671875	lower	../fonts/zerothre.ttf
2311984	WORD	wordpools/wasnorm_wordpool_less_exclusions.txt	LTP283	ltpFR	1	11	1	TYPIST	1532	n/a	1	0	0.5869140625	0.422607421875	upper	../fonts/amplitud.ttf
2316145	WORD	wordpools/wasnorm_wordpool_less_exclusions.txt	LTP283	ltpFR	1	11	1	SPONGE	1355	n/a	0	0	0.5869140625	0.422607421875	upper	../fonts/amplitud.ttf
2319972	WORD	wordpools/wasnorm_wordpool_less_exclusions.txt	LTP283	ltpFR	1	11	1	CLARINET	317	n/a	0	0	0.5869140625	0.422607421875	upper	../fonts/amplitud.ttf
2323800	WORD	wordpools/wasnorm_wordpool_less_exclusions.txt	LTP283	ltpFR	1	11	1	BEETLE	116	n/a	1	0	0.5869140625	0.422607421875	upper	../fonts/amplitud.ttf
2327744	WORD	wordpools/wasnorm_wordpool_less_exclusions.txt	LTP283	ltpFR	1	11	1	SPIDER	1351	n/a	1	0	0.5869140625	0.422607421875	upper	../fonts/amplitud.ttf
2331637	WORD	wordpools/wasnorm_wordpool_less_exclusions.txt	LTP283	ltpFR	1	11	1	MUSTARD	935	n/a	0	0	0.5869140625	0.422607421875	upper	../fonts/amplitud.ttf
2335782	WORD	wordpools/wasnorm_wordpool_less_exclusions.txt	LTP283	ltpFR	1	11	0	CABBAGE	210	n/a	0	1	0.412841796875	0.57763671875	lower	../fonts/zerothre.ttf
2339859	WORD	wordpools/wasnorm_wordpool_less_exclusions.txt	LTP283	ltpFR	1	11	0	TAPE	1433	n/a	0	1	0.412841796875	0.57763671875	lower	../fonts/zerothre.ttf
2344020	WORD	wordpools/wasnorm_wordpool_less_exclusions.txt	LTP283	ltpFR	1	11	0	SHORE	1291	n/a	1	1	0.412841796875	0.57763671875	lower	../fonts/zerothre.ttf
2348014	WORD	wordpools/wasnorm_wordpool_less_exclusions.txt	LTP283	ltpFR	1	11	0	CATERPILLAR	259	n/a	0	1	0.412841796875	0.57763671875	lower	../fonts/zerothre.ttf
2351925	WORD	wordpools/wasnorm_wordpool_less_exclusions.txt	LTP283	ltpFR	1	11	0	PANTHER	1009	n/a	1	1	0.412841796875	0.57763671875	lower	../fonts/zerothre.ttf
2355819	WORD	wordpools/wasnorm_wordpool_less_exclusions.txt	LTP283	ltpFR	1	11	0	JUG	762	n/a	1	1	0.412841796875	0.57763671875	lower	../fonts/zerothre.ttf
2361593	REC_START	n/a	LTP283	ltpFR	1	11	n/a	n/a	n/a	n/a	n/a	n/a	n/a	n/a	n/a	n/a
2364451	REC_WORD	wordpools/wasnorm_wordpool_less_exclusions.txt	LTP283	ltpFR	1	11	0	JUG	762	n/a	1	n/a	n/a	n/a	n/a	n/a
2365889	REC_WORD	wordpools/wasnorm_wordpool_less_exclusions.txt	LTP283	ltpFR	1	11	0	PANTHER	1009	n/a	1	n/a	n/a	n/a	n/a	n/a
2367484	REC_WORD	wordpools/wasnorm_wordpool_less_exclusions.txt	LTP283	ltpFR	1	11	1	BEETLE	116	n/a	1	n/a	n/a	n/a	n/a	n/a
2371655	REC_WORD_VV	wordpools/wasnorm_wordpool_less_exclusions.txt	LTP283	ltpFR	1	11	n/a	<>	-1	n/a	n/a	n/a	n/a	n/a	n/a	n/a
2397466	REC_WORD	wordpools/wasnorm_wordpool_less_exclusions.txt	LTP283	ltpFR	1	11	1	CREW	406	n/a	1	n/a	n/a	n/a	n/a	n/a
2400546	REC_WORD	wordpools/wasnorm_wordpool_less_exclusions.txt	LTP283	ltpFR	1	11	0	SUBMARINE	1398	n/a	1	n/a	n/a	n/a	n/a	n/a
2427323	REC_WORD	wordpools/wasnorm_wordpool_less_exclusions.txt	LTP283	ltpFR	1	11	0	JUG	762	n/a	1	n/a	n/a	n/a	n/a	n/a
2450061	WORD	wordpools/wasnorm_wordpool_less_exclusions.txt	LTP283	ltpFR	1	12	1	EMPLOYEE	531	n/a	1	0	0.5869140625	0.422607421875	upper	../fonts/amplitud.ttf
2454072	WORD	wordpools/wasnorm_wordpool_less_exclusions.txt	LTP283	ltpFR	1	12	1	PAINT	1003	n/a	0	0	0.5869140625	0.422607421875	upper	../fonts/amplitud.ttf
2458133	WORD	wordpools/wasnorm_wordpool_less_exclusions.txt	LTP283	ltpFR	1	12	1	SHELTER	1282	n/a	0	0	0.5869140625	0.422607421875	upper	../fonts/amplitud.ttf
2462044	WORD	wordpools/wasnorm_wordpool_less_exclusions.txt	LTP283	ltpFR	1	12	1	COYOTE	396	n/a	1	0	0.5869140625	0.422607421875	upper	../fonts/amplitud.ttf
2466004	WORD	wordpools/wasnorm_wordpool_less_exclusions.txt	LTP283	ltpFR	1	12	0	BROOK	177	n/a	1	1	0.412841796875	0.57763671875	lower	../fonts/zerothre.ttf
2470048	WORD	wordpools/wasnorm_wordpool_less_exclusions.txt	LTP283	ltpFR	1	12	0	TREAD	1499	n/a	1	1	0.412841796875	0.57763671875	lower	../fonts/zerothre.ttf
2474192	WORD	wordpools/wasnorm_wordpool_less_exclusions.txt	LTP283	ltpFR	1	12	1	MULE	931	n/a	1	0	0.5869140625	0.422607421875	upper	../fonts/amplitud.ttf
2478369	WORD	wordpools/wasnorm_wordpool_less_exclusions.txt	LTP283	ltpFR	1	12	1	LIGHTNING	820	n/a	0	0	0.5869140625	0.422607421875	upper	../fonts/amplitud.ttf
2482280	WORD	wordpools/wasnorm_wordpool_less_exclusions.txt	LTP283	ltpFR	1	12	0	PEBBLE	1035	n/a	0	1	0.412841796875	0.57763671875	lower	../fonts/zerothre.ttf
2486424	WORD	wordpools/wasnorm_wordpool_less_exclusions.txt	LTP283	ltpFR	1	12	0	ORANGE	980	n/a	0	1	0.412841796875	0.57763671875	lower	../fonts/zerothre.ttf
2490368	WORD	wordpools/wasnorm_wordpool_less_exclusions.txt	LTP283	ltpFR	1	12	0	SHEPHERD	1283	n/a	1	1	0.412841796875	0.57763671875	lower	../fonts/zerothre.ttf
2494527	WORD	wordpools/wasnorm_wordpool_less_exclusions.txt	LTP283	ltpFR	1	12	0	CORPORATION	382	n/a	1	1	0.412841796875	0.57763671875	lower	../fonts/zerothre.ttf
2498356	WORD	wordpools/wasnorm_wordpool_less_exclusions.txt	LTP283	ltpFR	1	12	0	DONKEY	484	n/a	1	1	0.412841796875	0.57763671875	lower	../fonts/zerothre.ttf
2502500	WORD	wordpools/wasnorm_wordpool_less_exclusions.txt	LTP283	ltpFR	1	12	0	ESSAY	540	n/a	1	1	0.412841796875	0.57763671875	lower	../fonts/zerothre.ttf
2506327	WORD	wordpools/wasnorm_wordpool_less_exclusions.txt	LTP283	ltpFR	1	12	1	JOURNAL	760	n/a	0	0	0.5869140625	0.422607421875	upper	../fonts/amplitud.ttf
2510537	WORD	wordpools/wasnorm_wordpool_less_exclusions.txt	LTP283	ltpFR	1	12	1	ERASER	538	n/a	0	0	0.5869140625	0.422607421875	upper	../fonts/amplitud.ttf
2516180	REC_START	n/a	LTP283	ltpFR	1	12	n/a	n/a	n/a	n/a	n/a	n/a	n/a	n/a	n/a	n/a
2518177	REC_WORD	wordpools/wasnorm_wordpool_less_exclusions.txt	LTP283	ltpFR	1	12	1	ERASER	538	n/a	0	n/a	n/a	n/a	n/a	n/a
2520017	REC_WORD	wordpools/wasnorm_wordpool_less_exclusions.txt	LTP283	ltpFR	1	12	0	ESSAY	540	n/a	1	n/a	n/a	n/a	n/a	n/a
2521416	REC_WORD	wordpools/wasnorm_wordpool_less_exclusions.txt	LTP283	ltpFR	1	12	1	TYPIST	1532	n/a	1	n/a	n/a	n/a	n/a	n/a
2531752	REC_WORD	wordpools/wasnorm_wordpool_less_exclusions.txt	LTP283	ltpFR	1	12	1	SHELTER	1282	n/a	0	n/a	n/a	n/a	n/a	n/a
2534410	REC_WORD	wordpools/wasnorm_wordpool_less_exclusions.txt	LTP283	ltpFR	1	12	1	LIGHTNING	820	n/a	0	n/a	n/a	n/a	n/a	n/a
2537807	REC_WORD	wordpools/wasnorm_wordpool_less_exclusions.txt	LTP283	ltpFR	1	12	0	DONKEY	484	n/a	1	n/a	n/a	n/a	n/a	n/a
2538611	REC_WORD	wordpools/wasnorm_wordpool_less_exclusions.txt	LTP283	ltpFR	1	12	1	MULE	931	n/a	1	n/a	n/a	n/a	n/a	n/a
2542549	REC_WORD	wordpools/wasnorm_wordpool_less_exclusions.txt	LTP283	ltpFR	1	12	0	ORANGE	980	n/a	0	n/a	n/a	n/a	n/a	n/a
2544645	REC_WORD	wordpools/wasnorm_wordpool_less_exclusions.txt	LTP283	ltpFR	1	12	0	PEBBLE	1035	n/a	0	n/a	n/a	n/a	n/a	n/a
2558986	REC_WORD	wordpools/wasnorm_wordpool_less_exclusions.txt	LTP283	ltpFR	1	12	1	COYOTE	396	n/a	1	n/a	n/a	n/a	n/a	n/a
2569702	REC_WORD	wordpools/wasnorm_wordpool_less_exclusions.txt	LTP283	ltpFR	1	12	0	TREAD	1499	n/a	1	n/a	n/a	n/a	n/a	n/a
2575812	REC_WORD	wordpools/wasnorm_wordpool_less_exclusions.txt	LTP283	ltpFR	1	12	0	CORPORATION	382	n/a	1	n/a	n/a	n/a	n/a	n/a
2598740	WORD	wordpools/wasnorm_wordpool_less_exclusions.txt	LTP283	ltpFR	1	13	0	VISITOR	1573	n/a	1	1	0.412841796875	0.57763671875	lower	../fonts/zerothre.ttf
2602900	WORD	wordpools/wasnorm_wordpool_less_exclusions.txt	LTP283	ltpFR	1	13	0	TAG	1429	n/a	0	1	0.412841796875	0.57763671875	lower	../fonts/zerothre.ttf
2606894	WORD	wordpools/wasnorm_wordpool_less_exclusions.txt	LTP283	ltpFR	1	13	0	GUARDIAN	668	n/a	1	1	0.412841796875	0.57763671875	lower	../fonts/zerothre.ttf
2610971	WORD	wordpools/wasnorm_wordpool_less_exclusions.txt	LTP283	ltpFR	1	13	1	VALVE	1546	n/a	0	0	0.5869140625	0.422607421875	upper	../fonts/amplitud.ttf
2615098	WORD	wordpools/wasnorm_wordpool_less_exclusions.txt	LTP283	ltpFR	1	13	1	WAX	1597	n/a	0	0	0.5869140625	0.422607421875	upper	../fonts/amplitud.ttf
2619176	WORD	wordpools/wasnorm_wordpool_less_exclusions.txt	LTP283	ltpFR	1	13	0	BOMB	147	n/a	1	1	0.412841796875	0.57763671875	lower	../fonts/zerothre.ttf
2623236	WORD	wordpools/wasnorm_wordpool_less_exclusions.txt	LTP283	ltpFR	1	13	0	SUITCASE	1403	n/a	1	1	0.412841796875	0.57763671875	lower	../fonts/zerothre.ttf
2627397	WORD	wordpools/wasnorm_wordpool_less_exclusions.txt	LTP283	ltpFR	1	13	1	POTATO	1115	n/a	1	0	0.5869140625	0.422607421875	upper	../fonts/amplitud.ttf
2631474	WORD	wordpools/wasnorm_wordpool_less_exclusions.txt	LTP283	ltpFR	1	13	1	RIB	1188	n/a	0	0	0.5869140625	0.422607421875	upper	../fonts/amplitud.ttf
2635633	WORD	wordpools/wasnorm_wordpool_less_exclusions.txt	LTP283	ltpFR	1	13	1	BUG	187	n/a	1	0	0.5869140625	0.422607421875	upper	../fonts/amplitud.ttf
2639661	WORD	wordpools/wasnorm_wordpool_less_exclusions.txt	LTP283	ltpFR	1	13	1	CLOWN	330	n/a	1	0	0.5869140625	0.422607421875	upper	../fonts/amplitud.ttf
2643855	WORD	wordpools/wasnorm_wordpool_less_exclusions.txt	LTP283	ltpFR	1	13	1	JUGGLER	763	n/a	1	0	0.5869140625	0.422607421875	upper	../fonts/amplitud.ttf
2648016	WORD	wordpools/wasnorm_wordpool_less_exclusions.txt	LTP283	ltpFR	1	13	1	MOTH	920	n/a	1	0	0.5869140625	0.422607421875	upper	../fonts/amplitud.ttf
2651877	WORD	wordpools/wasnorm_wordpool_less_exclusions.txt	LTP283	ltpFR	1	13	0	COMPUTER	359	n/a	1	1	0.412841796875	0.57763671875	lower	../fonts/zerothre.ttf
2655937	WORD	wordpools/wasnorm_wordpool_less_exclusions.txt	LTP283	ltpFR	1	13	0	PITCHFORK	1078	n/a	1	1	0.412841796875	0.57763671875	lower	../fonts/zerothre.ttf
2660048	WORD	wordpools/wasnorm_wordpool_less_exclusions.txt	LTP283	ltpFR	1	13	0	GARAGE	621	n/a	1	1	0.412841796875	0.57763671875	lower	../fonts/zerothre.ttf
2665923	REC_START	n/a	LTP283	ltpFR	1	13	n/a	n/a	n/a	n/a	n/a	n/a	n/a	n/a	n/a	n/a
2668753	REC_WORD	wordpools/wasnorm_wordpool_less_exclusions.txt	LTP283	ltpFR	1	13	0	GARAGE	621	n/a	1	n/a	n/a	n/a	n/a	n/a
2671565	REC_WORD	wordpools/wasnorm_wordpool_less_exclusions.txt	LTP283	ltpFR	1	13	1	JUGGLER	763	n/a	1	n/a	n/a	n/a	n/a	n/a
2672970	REC_WORD	wordpools/wasnorm_wordpool_less_exclusions.txt	LTP283	ltpFR	1	13	1	CLOWN	330	n/a	1	n/a	n/a	n/a	n/a	n/a
2675290	REC_WORD	wordpools/wasnorm_wordpool_less_exclusions.txt	LTP283	ltpFR	1	13	0	BOMB	147	n/a	1	n/a	n/a	n/a	n/a	n/a
2676712	REC_WORD	wordpools/wasnorm_wordpool_less_exclusions.txt	LTP283	ltpFR	1	13	0	SUITCASE	1403	n/a	1	n/a	n/a	n/a	n/a	n/a
2677712	REC_WORD_VV	wordpools/wasnorm_wordpool_less_exclusions.txt	LTP283	ltpFR	1	13	n/a	<>	-1	n/a	n/a	n/a	n/a	n/a	n/a	n/a
2680106	REC_WORD	wordpools/wasnorm_wordpool_less_exclusions.txt	LTP283	ltpFR	1	13	0	PITCHFORK	1078	n/a	1	n/a	n/a	n/a	n/a	n/a
2681106	REC_WORD_VV	wordpools/wasnorm_wordpool_less_exclusions.txt	LTP283	ltpFR	1	13	n/a	<>	-1	n/a	n/a	n/a	n/a	n/a	n/a	n/a
2684249	REC_WORD	wordpools/wasnorm_wordpool_less_exclusions.txt	LTP283	ltpFR	1	13	1	MOTH	920	n/a	1	n/a	n/a	n/a	n/a	n/a
2687556	REC_WORD	wordpools/wasnorm_wordpool_less_exclusions.txt	LTP283	ltpFR	1	13	0	VISITOR	1573	n/a	1	n/a	n/a	n/a	n/a	n/a
2689896	REC_WORD	wordpools/wasnorm_wordpool_less_exclusions.txt	LTP283	ltpFR	1	13	0	TAG	1429	n/a	0	n/a	n/a	n/a	n/a	n/a
2717469	REC_WORD	wordpools/wasnorm_wordpool_less_exclusions.txt	LTP283	ltpFR	1	13	0	GUARDIAN	668	n/a	1	n/a	n/a	n/a	n/a	n/a
2746734	WORD	wordpools/wasnorm_wordpool_less_exclusions.txt	LTP283	ltpFR	1	14	-1	SOFTBALL	1343	n/a	-1	1	1.0	1.0	upper	../fonts/Verdana.ttf
2750662	WORD	wordpools/wasnorm_wordpool_less_exclusions.txt	LTP283	ltpFR	1	14	-1	REFEREE	1178	n/a	-1	1	1.0	1.0	upper	../fonts/Verdana.ttf
2754740	WORD	wordpools/wasnorm_wordpool_less_exclusions.txt	LTP283	ltpFR	1	14	-1	PORCUPINE	1107	n/a	-1	1	1.0	1.0	upper	../fonts/Verdana.ttf
2758583	WORD	wordpools/wasnorm_wordpool_less_exclusions.txt	LTP283	ltpFR	1	14	-1	VIKING	1565	n/a	-1	1	1.0	1.0	upper	../fonts/Verdana.ttf
2762795	WORD	wordpools/wasnorm_wordpool_less_exclusions.txt	LTP283	ltpFR	1	14	-1	ATHLETE	52	n/a	-1	1	1.0	1.0	upper	../fonts/Verdana.ttf
2766739	WORD	wordpools/wasnorm_wordpool_less_exclusions.txt	LTP283	ltpFR	1	14	-1	STAMP	1370	n/a	-1	1	1.0	1.0	upper	../fonts/Verdana.ttf
2770899	WORD	wordpools/wasnorm_wordpool_less_exclusions.txt	LTP283	ltpFR	1	14	-1	NOTE	958	n/a	-1	1	1.0	1.0	upper	../fonts/Verdana.ttf
2775043	WORD	wordpools/wasnorm_wordpool_less_exclusions.txt	LTP283	ltpFR	1	14	-1	YARN	1631	n/a	-1	1	1.0	1.0	upper	../fonts/Verdana.ttf
2779203	WORD	wordpools/wasnorm_wordpool_less_exclusions.txt	LTP283	ltpFR	1	14	-1	BLACKBERRY	132	n/a	-1	1	1.0	1.0	upper	../fonts/Verdana.ttf
2783114	WORD	wordpools/wasnorm_wordpool_less_exclusions.txt	LTP283	ltpFR	1	14	-1	TOOTH	1481	n/a	-1	1	1.0	1.0	upper	../fonts/Verdana.ttf
2787075	WORD	wordpools/wasnorm_wordpool_less_exclusions.txt	LTP283	ltpFR	1	14	-1	OVAL	990	n/a	-1	1	1.0	1.0	upper	../fonts/Verdana.ttf
2791202	WORD	wordpools/wasnorm_wordpool_less_exclusions.txt	LTP283	ltpFR	1	14	-1	WITNESS	1618	n/a	-1	1	1.0	1.0	upper	../fonts/Verdana.ttf
2795113	WORD	wordpools/wasnorm_wordpool_less_exclusions.txt	LTP283	ltpFR	1	14	-1	SANDPAPER	1231	n/a	-1	1	1.0	1.0	upper	../fonts/Verdana.ttf
2798941	WORD	wordpools/wasnorm_wordpool_less_exclusions.txt	LTP283	ltpFR	1	14	-1	RASPBERRY	1168	n/a	-1	1	1.0	1.0	upper	../fonts/Verdana.ttf
2802802	WORD	wordpools/wasnorm_wordpool_less_exclusions.txt	LTP283	ltpFR	1	14	-1	SKUNK	1321	n/a	-1	1	1.0	1.0	upper	../fonts/Verdana.ttf
2806728	WORD	wordpools/wasnorm_wordpool_less_exclusions.txt	LTP283	ltpFR	1	14	-1	RAG	1160	n/a	-1	1	1.0	1.0	upper	../fonts/Verdana.ttf
2812737	REC_START	n/a	LTP283	ltpFR	1	14	n/a	n/a	n/a	n/a	n/a	n/a	n/a	n/a	n/a	n/a
2814979	REC_WORD	wordpools/wasnorm_wordpool_less_exclusions.txt	LTP283	ltpFR	1	14	-1	RAG	1160	n/a	-1	n/a	n/a	n/a	n/a	n/a
2817243	REC_WORD	wordpools/wasnorm_wordpool_less_exclusions.txt	LTP283	ltpFR	1	14	-1	RASPBERRY	1168	n/a	-1	n/a	n/a	n/a	n/a	n/a
2818243	REC_WORD_VV	wordpools/wasnorm_wordpool_less_exclusions.txt	LTP283	ltpFR	1	14	n/a	<>	-1	n/a	n/a	n/a	n/a	n/a	n/a	n/a
2820311	REC_WORD	wordpools/wasnorm_wordpool_less_exclusions.txt	LTP283	ltpFR	1	14	-1	BLACKBERRY	132	n/a	-1	n/a	n/a	n/a	n/a	n/a
2822032	REC_WORD	wordpools/wasnorm_wordpool_less_exclusions.txt	LTP283	ltpFR	1	14	-1	VIKING	1565	n/a	-1	n/a	n/a	n/a	n/a	n/a
2823544	REC_WORD	wordpools/wasnorm_wordpool_less_exclusions.txt	LTP283	ltpFR	1	14	-1	SKUNK	1321	n/a	-1	n/a	n/a	n/a	n/a	n/a
2825683	REC_WORD	wordpools/wasnorm_wordpool_less_exclusions.txt	LTP283	ltpFR	1	14	-1	PORCUPINE	1107	n/a	-1	n/a	n/a	n/a	n/a	n/a
2830214	REC_WORD	wordpools/wasnorm_wordpool_less_exclusions.txt	LTP283	ltpFR	1	14	-1	REFEREE	1178	n/a	-1	n/a	n/a	n/a	n/a	n/a
2831492	REC_WORD	wordpools/wasnorm_wordpool_less_exclusions.txt	LTP283	ltpFR	1	14	-1	SOFTBALL	1343	n/a	-1	n/a	n/a	n/a	n/a	n/a
2833334	REC_WORD	wordpools/wasnorm_wordpool_less_exclusions.txt	LTP283	ltpFR	1	14	-1	ATHLETE	52	n/a	-1	n/a	n/a	n/a	n/a	n/a
2835533	REC_WORD	wordpools/wasnorm_wordpool_less_exclusions.txt	LTP283	ltpFR	1	14	-1	YARN	1631	n/a	-1	n/a	n/a	n/a	n/a	n/a
2837345	REC_WORD	wordpools/wasnorm_wordpool_less_exclusions.txt	LTP283	ltpFR	1	14	-1	NOTE	958	n/a	-1	n/a	n/a	n/a	n/a	n/a
2839402	REC_WORD	wordpools/wasnorm_wordpool_less_exclusions.txt	LTP283	ltpFR	1	14	-1	STAMP	1370	n/a	-1	n/a	n/a	n/a	n/a	n/a
2840402	REC_WORD_VV	wordpools/wasnorm_wordpool_less_exclusions.txt	LTP283	ltpFR	1	14	n/a	<>	-1	n/a	n/a	n/a	n/a	n/a	n/a	n/a
2874805	REC_WORD	wordpools/wasnorm_wordpool_less_exclusions.txt	LTP283	ltpFR	1	14	-1	OVAL	990	n/a	-1	n/a	n/a	n/a	n/a	n/a
2892135	WORD	wordpools/wasnorm_wordpool_less_exclusions.txt	LTP283	ltpFR	1	15	0	CHERRY	293	n/a	0	1	0.412841796875	0.57763671875	lower	../fonts/zerothre.ttf
2896145	WORD	wordpools/wasnorm_wordpool_less_exclusions.txt	LTP283	ltpFR	1	15	0	LAMP	798	n/a	1	1	0.412841796875	0.57763671875	lower	../fonts/zerothre.ttf
2900090	WORD	wordpools/wasnorm_wordpool_less_exclusions.txt	LTP283	ltpFR	1	15	0	BANQUET	86	n/a	1	1	0.412841796875	0.57763671875	lower	../fonts/zerothre.ttf
2904134	WORD	wordpools/wasnorm_wordpool_less_exclusions.txt	LTP283	ltpFR	1	15	0	SILVERWARE	1308	n/a	0	1	0.412841796875	0.57763671875	lower	../fonts/zerothre.ttf
2908128	WORD	wordpools/wasnorm_wordpool_less_exclusions.txt	LTP283	ltpFR	1	15	0	GRATE	657	n/a	1	1	0.412841796875	0.57763671875	lower	../fonts/zerothre.ttf
2912038	WORD	wordpools/wasnorm_wordpool_less_exclusions.txt	LTP283	ltpFR	1	15	0	GRILL	661	n/a	1	1	0.412841796875	0.57763671875	lower	../fonts/zerothre.ttf
2916016	WORD	wordpools/wasnorm_wordpool_less_exclusions.txt	LTP283	ltpFR	1	15	0	DORM	488	n/a	1	1	0.412841796875	0.57763671875	lower	../fonts/zerothre.ttf
2919977	WORD	wordpools/wasnorm_wordpool_less_exclusions.txt	LTP283	ltpFR	1	15	0	CASH	252	n/a	0	1	0.412841796875	0.57763671875	lower	../fonts/zerothre.ttf
2923971	WORD	wordpools/wasnorm_wordpool_less_exclusions.txt	LTP283	ltpFR	1	15	0	BANK	83	n/a	1	1	0.412841796875	0.57763671875	lower	../fonts/zerothre.ttf
2928098	WORD	wordpools/wasnorm_wordpool_less_exclusions.txt	LTP283	ltpFR	1	15	0	LAWN	805	n/a	1	1	0.412841796875	0.57763671875	lower	../fonts/zerothre.ttf
2932308	WORD	wordpools/wasnorm_wordpool_less_exclusions.txt	LTP283	ltpFR	1	15	0	PEAR	1033	n/a	0	1	0.412841796875	0.57763671875	lower	../fonts/zerothre.ttf
2936518	WORD	wordpools/wasnorm_wordpool_less_exclusions.txt	LTP283	ltpFR	1	15	0	OPERATOR	979	n/a	1	1	0.412841796875	0.57763671875	lower	../fonts/zerothre.ttf
2940745	WORD	wordpools/wasnorm_wordpool_less_exclusions.txt	LTP283	ltpFR	1	15	0	BANDIT	81	n/a	1	1	0.412841796875	0.57763671875	lower	../fonts/zerothre.ttf
2944856	WORD	wordpools/wasnorm_wordpool_less_exclusions.txt	LTP283	ltpFR	1	15	0	SWITCH	1422	n/a	0	1	0.412841796875	0.57763671875	lower	../fonts/zerothre.ttf
2948817	WORD	wordpools/wasnorm_wordpool_less_exclusions.txt	LTP283	ltpFR	1	15	0	TERMITE	1451	n/a	0	1	0.412841796875	0.57763671875	lower	../fonts/zerothre.ttf
2952710	WORD	wordpools/wasnorm_wordpool_less_exclusions.txt	LTP283	ltpFR	1	15	0	SICKLE	1302	n/a	0	1	0.412841796875	0.57763671875	lower	../fonts/zerothre.ttf
2958702	REC_START	n/a	LTP283	ltpFR	1	15	n/a	n/a	n/a	n/a	n/a	n/a	n/a	n/a	n/a	n/a
2960319	REC_WORD	wordpools/wasnorm_wordpool_less_exclusions.txt	LTP283	ltpFR	1	15	0	SICKLE	1302	n/a	0	n/a	n/a	n/a	n/a	n/a
2961828	REC_WORD	wordpools/wasnorm_wordpool_less_exclusions.txt	LTP283	ltpFR	1	15	0	TERMITE	1451	n/a	0	n/a	n/a	n/a	n/a	n/a
2963194	REC_WORD	wordpools/wasnorm_wordpool_less_exclusions.txt	LTP283	ltpFR	1	15	0	BANDIT	81	n/a	1	n/a	n/a	n/a	n/a	n/a
2964845	REC_WORD	wordpools/wasnorm_wordpool_less_exclusions.txt	LTP283	ltpFR	1	15	0	CHERRY	293	n/a	0	n/a	n/a	n/a	n/a	n/a
2966309	REC_WORD	wordpools/wasnorm_wordpool_less_exclusions.txt	LTP283	ltpFR	1	15	0	PEAR	1033	n/a	0	n/a	n/a	n/a	n/a	n/a
2967906	REC_WORD	wordpools/wasnorm_wordpool_less_exclusions.txt	LTP283	ltpFR	1	15	0	LAWN	805	n/a	1	n/a	n/a	n/a	n/a	n/a
2970022	REC_WORD	wordpools/wasnorm_wordpool_less_exclusions.txt	LTP283	ltpFR	1	15	0	BANQUET	86	n/a	1	n/a	n/a	n/a	n/a	n/a
2971710	REC_WORD	wordpools/wasnorm_wordpool_less_exclusions.txt	LTP283	ltpFR	1	15	0	GRATE	657	n/a	1	n/a	n/a	n/a	n/a	n/a
2973606	REC_WORD	wordpools/wasnorm_wordpool_less_exclusions.txt	LTP283	ltpFR	1	15	0	GRILL	661	n/a	1	n/a	n/a	n/a	n/a	n/a
2976998	REC_WORD	wordpools/wasnorm_wordpool_less_exclusions.txt	LTP283	ltpFR	1	15	0	SILVERWARE	1308	n/a	0	n/a	n/a	n/a	n/a	n/a
2978693	REC_WORD	wordpools/wasnorm_wordpool_less_exclusions.txt	LTP283	ltpFR	1	15	0	CASH	252	n/a	0	n/a	n/a	n/a	n/a	n/a
2980610	REC_WORD	wordpools/wasnorm_wordpool_less_exclusions.txt	LTP283	ltpFR	1	15	0	BANK	83	n/a	1	n/a	n/a	n/a	n/a	n/a
2982032	REC_WORD	wordpools/wasnorm_wordpool_less_exclusions.txt	LTP283	ltpFR	1	15	0	OPERATOR	979	n/a	1	n/a	n/a	n/a	n/a	n/a
3033043	REC_WORD	wordpools/wasnorm_wordpool_less_exclusions.txt	LTP283	ltpFR	1	15	0	SICKLE	1302	n/a	0	n/a	n/a	n/a	n/a	n/a
3042960	WORD	wordpools/wasnorm_wordpool_less_exclusions.txt	LTP283	ltpFR	1	16	-1	FROG	608	n/a	-1	1	1.0	1.0	upper	../fonts/Verdana.ttf
3047153	WORD	wordpools/wasnorm_wordpool_less_exclusions.txt	LTP283	ltpFR	1	16	-1	IDOL	733	n/a	-1	1	1.0	1.0	upper	../fonts/Verdana.ttf
3051380	WORD	wordpools/wasnorm_wordpool_less_exclusions.txt	LTP283	ltpFR	1	16	-1	GODDESS	646	n/a	-1	1	1.0	1.0	upper	../fonts/Verdana.ttf
3055507	WORD	wordpools/wasnorm_wordpool_less_exclusions.txt	LTP283	ltpFR	1	16	-1	HERB	704	n/a	-1	1	1.0	1.0	upper	../fonts/Verdana.ttf
3059600	WORD	wordpools/wasnorm_wordpool_less_exclusions.txt	LTP283	ltpFR	1	16	-1	SAUSAGE	1238	n/a	-1	1	1.0	1.0	upper	../fonts/Verdana.ttf
3063528	WORD	wordpools/wasnorm_wordpool_less_exclusions.txt	LTP283	ltpFR	1	16	-1	CASTLE	256	n/a	-1	1	1.0	1.0	upper	../fonts/Verdana.ttf
3067589	WORD	wordpools/wasnorm_wordpool_less_exclusions.txt	LTP283	ltpFR	1	16	-1	CUP	424	n/a	-1	1	1.0	1.0	upper	../fonts/Verdana.ttf
3071434	WORD	wordpools/wasnorm_wordpool_less_exclusions.txt	LTP283	ltpFR	1	16	-1	SHEET	1279	n/a	-1	1	1.0	1.0	upper	../fonts/Verdana.ttf
3075378	WORD	wordpools/wasnorm_wordpool_less_exclusions.txt	LTP283	ltpFR	1	16	-1	SPINACH	1352	n/a	-1	1	1.0	1.0	upper	../fonts/Verdana.ttf
3079372	WORD	wordpools/wasnorm_wordpool_less_exclusions.txt	LTP283	ltpFR	1	16	-1	BREAST	171	n/a	-1	1	1.0	1.0	upper	../fonts/Verdana.ttf
3083266	WORD	wordpools/wasnorm_wordpool_less_exclusions.txt	LTP283	ltpFR	1	16	-1	SAND	1230	n/a	-1	1	1.0	1.0	upper	../fonts/Verdana.ttf
3087177	WORD	wordpools/wasnorm_wordpool_less_exclusions.txt	LTP283	ltpFR	1	16	-1	SAGE	1222	n/a	-1	1	1.0	1.0	upper	../fonts/Verdana.ttf
3091287	WORD	wordpools/wasnorm_wordpool_less_exclusions.txt	LTP283	ltpFR	1	16	-1	HOUND	724	n/a	-1	1	1.0	1.0	upper	../fonts/Verdana.ttf
3095182	WORD	wordpools/wasnorm_wordpool_less_exclusions.txt	LTP283	ltpFR	1	16	-1	DINER	467	n/a	-1	1	1.0	1.0	upper	../fonts/Verdana.ttf
3099176	WORD	wordpools/wasnorm_wordpool_less_exclusions.txt	LTP283	ltpFR	1	16	-1	DICTATOR	462	n/a	-1	1	1.0	1.0	upper	../fonts/Verdana.ttf
3103353	WORD	wordpools/wasnorm_wordpool_less_exclusions.txt	LTP283	ltpFR	1	16	-1	RULER	1216	n/a	-1	1	1.0	1.0	upper	../fonts/Verdana.ttf
3109428	REC_START	n/a	LTP283	ltpFR	1	16	n/a	n/a	n/a	n/a	n/a	n/a	n/a	n/a	n/a	n/a
3111120	REC_WORD	wordpools/wasnorm_wordpool_less_exclusions.txt	LTP283	ltpFR	1	16	-1	RULER	1216	n/a	-1	n/a	n/a	n/a	n/a	n/a
3112580	REC_WORD	wordpools/wasnorm_wordpool_less_exclusions.txt	LTP283	ltpFR	1	16	n/a	DICTATE	-1	n/a	n/a	n/a	n/a	n/a	n/a	n/a
3114187	REC_WORD	wordpools/wasnorm_wordpool_less_exclusions.txt	LTP283	ltpFR	1	16	-1	DICTATOR	462	n/a	-1	n/a	n/a	n/a	n/a	n/a
3116813	REC_WORD	wordpools/wasnorm_wordpool_less_exclusions.txt	LTP283	ltpFR	1	16	-1	SAGE	1222	n/a	-1	n/a	n/a	n/a	n/a	n/a
3118595	REC_WORD	wordpools/wasnorm_wordpool_less_exclusions.txt	LTP283	ltpFR	1	16	-1	HERB	704	n/a	-1	n/a	n/a	n/a	n/a	n/a
3119799	REC_WORD	wordpools/wasnorm_wordpool_less_exclusions.txt	LTP283	ltpFR	1	16	-1	SAUSAGE	1238	n/a	-1	n/a	n/a	n/a	n/a	n/a
3121763	REC_WORD	wordpools/wasnorm_wordpool_less_exclusions.txt	LTP283	ltpFR	1	16	-1	SAND	1230	n/a	-1	n/a	n/a	n/a	n/a	n/a
3123706	REC_WORD	wordpools/wasnorm_wordpool_less_exclusions.txt	LTP283	ltpFR	1	16	-1	CASTLE	256	n/a	-1	n/a	n/a	n/a	n/a	n/a
3126681	REC_WORD	wordpools/wasnorm_wordpool_less_exclusions.txt	LTP283	ltpFR	1	16	-1	SHEET	1279	n/a	-1	n/a	n/a	n/a	n/a	n/a
3128932	REC_WORD	wordpools/wasnorm_wordpool_less_exclusions.txt	LTP283	ltpFR	1	16	-1	IDOL	733	n/a	-1	n/a	n/a	n/a	n/a	n/a
3130610	REC_WORD	wordpools/wasnorm_wordpool_less_exclusions.txt	LTP283	ltpFR	1	16	n/a	PRINCESS	1125	n/a	n/a	n/a	n/a	n/a	n/a	n/a
3132354	REC_WORD	wordpools/wasnorm_wordpool_less_exclusions.txt	LTP283	ltpFR	1	16	-1	FROG	608	n/a	-1	n/a	n/a	n/a	n/a	n/a
3140314	REC_WORD	wordpools/wasnorm_wordpool_less_exclusions.txt	LTP283	ltpFR	1	16	-1	DINER	467	n/a	-1	n/a	n/a	n/a	n/a	n/a
3141600	REC_WORD	wordpools/wasnorm_wordpool_less_exclusions.txt	LTP283	ltpFR	1	16	-1	DICTATOR	462	n/a	-1	n/a	n/a	n/a	n/a	n/a
3142655	REC_WORD	wordpools/wasnorm_wordpool_less_exclusions.txt	LTP283	ltpFR	1	16	-1	RULER	1216	n/a	-1	n/a	n/a	n/a	n/a	n/a
3145301	REC_WORD	wordpools/wasnorm_wordpool_less_exclusions.txt	LTP283	ltpFR	1	16	-1	SPINACH	1352	n/a	-1	n/a	n/a	n/a	n/a	n/a
3146301	REC_WORD_VV	wordpools/wasnorm_wordpool_less_exclusions.txt	LTP283	ltpFR	1	16	n/a	<>	-1	n/a	n/a	n/a	n/a	n/a	n/a	n/a
3147812	REC_WORD	wordpools/wasnorm_wordpool_less_exclusions.txt	LTP283	ltpFR	1	16	-1	BREAST	171	n/a	-1	n/a	n/a	n/a	n/a	n/a
3153514	REC_WORD	wordpools/wasnorm_wordpool_less_exclusions.txt	LTP283	ltpFR	1	16	-1	CASTLE	256	n/a	-1	n/a	n/a	n/a	n/a	n/a
3163227	REC_WORD	wordpools/wasnorm_wordpool_less_exclusions.txt	LTP283	ltpFR	1	16	-1	CUP	424	n/a	-1	n/a	n/a	n/a	n/a	n/a
3181400	REC_WORD	wordpools/wasnorm_wordpool_less_exclusions.txt	LTP283	ltpFR	1	16	-1	HOUND	724	n/a	-1	n/a	n/a	n/a	n/a	n/a
3201257	REC_START	n/a	LTP283	ltpFR	1	n/a	n/a	n/a	n/a	n/a	n/a	n/a	n/a	n/a	n/a	n/a
3202654	FFR_REC_WORD	wordpools/wasnorm_wordpool_less_exclusions.txt	LTP283	ltpFR	1	n/a	-1	HOUND	724	n/a	-1	n/a	n/a	n/a	n/a	n/a
3203861	FFR_REC_WORD	wordpools/wasnorm_wordpool_less_exclusions.txt	LTP283	ltpFR	1	n/a	-1	SAUSAGE	1238	n/a	-1	n/a	n/a	n/a	n/a	n/a
3205543	FFR_REC_WORD	wordpools/wasnorm_wordpool_less_exclusions.txt	LTP283	ltpFR	1	n/a	-1	DICTATOR	462	n/a	-1	n/a	n/a	n/a	n/a	n/a
3206829	FFR_REC_WORD	wordpools/wasnorm_wordpool_less_exclusions.txt	LTP283	ltpFR	1	n/a	-1	RULER	1216	n/a	-1	n/a	n/a	n/a	n/a	n/a
3208396	FFR_REC_WORD	wordpools/wasnorm_wordpool_less_exclusions.txt	LTP283	ltpFR	1	n/a	-1	HERB	704	n/a	-1	n/a	n/a	n/a	n/a	n/a
3210191	FFR_REC_WORD	wordpools/wasnorm_wordpool_less_exclusions.txt	LTP283	ltpFR	1	n/a	-1	SAGE	1222	n/a	-1	n/a	n/a	n/a	n/a	n/a
3211798	FFR_REC_WORD	wordpools/wasnorm_wordpool_less_exclusions.txt	LTP283	ltpFR	1	n/a	-1	CASTLE	256	n/a	-1	n/a	n/a	n/a	n/a	n/a
3213120	FFR_REC_WORD	wordpools/wasnorm_wordpool_less_exclusions.txt	LTP283	ltpFR	1	n/a	-1	SAND	1230	n/a	-1	n/a	n/a	n/a	n/a	n/a
3214726	FFR_REC_WORD	wordpools/wasnorm_wordpool_less_exclusions.txt	LTP283	ltpFR	1	n/a	-1	SHEET	1279	n/a	-1	n/a	n/a	n/a	n/a	n/a
3216407	FFR_REC_WORD	wordpools/wasnorm_wordpool_less_exclusions.txt	LTP283	ltpFR	1	n/a	-1	LINEN	825	n/a	-1	n/a	n/a	n/a	n/a	n/a
3218313	FFR_REC_WORD	wordpools/wasnorm_wordpool_less_exclusions.txt	LTP283	ltpFR	1	n/a	-1	CUP	424	n/a	-1	n/a	n/a	n/a	n/a	n/a
3221087	FFR_REC_WORD	wordpools/wasnorm_wordpool_less_exclusions.txt	LTP283	ltpFR	1	n/a	-1	FROG	608	n/a	-1	n/a	n/a	n/a	n/a	n/a
3228999	FFR_REC_WORD	wordpools/wasnorm_wordpool_less_exclusions.txt	LTP283	ltpFR	1	n/a	1	JUPITER	765	n/a	0	n/a	n/a	n/a	n/a	n/a
3230465	FFR_REC_WORD	wordpools/wasnorm_wordpool_less_exclusions.txt	LTP283	ltpFR	1	n/a	1	SATURN	1236	n/a	0	n/a	n/a	n/a	n/a	n/a
3231802	FFR_REC_WORD	wordpools/wasnorm_wordpool_less_exclusions.txt	LTP283	ltpFR	1	n/a	-1	NEPTUNE	943	n/a	-1	n/a	n/a	n/a	n/a	n/a
3234252	FFR_REC_WORD	wordpools/wasnorm_wordpool_less_exclusions.txt	LTP283	ltpFR	1	n/a	-1	POOL	1103	n/a	-1	n/a	n/a	n/a	n/a	n/a
3236317	FFR_REC_WORD	wordpools/wasnorm_wordpool_less_exclusions.txt	LTP283	ltpFR	1	n/a	-1	MARKET	871	n/a	-1	n/a	n/a	n/a	n/a	n/a
3243386	FFR_REC_WORD	wordpools/wasnorm_wordpool_less_exclusions.txt	LTP283	ltpFR	1	n/a	0	PITCHFORK	1078	n/a	1	n/a	n/a	n/a	n/a	n/a
3244933	FFR_REC_WORD	wordpools/wasnorm_wordpool_less_exclusions.txt	LTP283	ltpFR	1	n/a	1	CLOWN	330	n/a	1	n/a	n/a	n/a	n/a	n/a
3246753	FFR_REC_WORD	wordpools/wasnorm_wordpool_less_exclusions.txt	LTP283	ltpFR	1	n/a	1	JUGGLER	763	n/a	1	n/a	n/a	n/a	n/a	n/a
3249896	FFR_REC_WORD	wordpools/wasnorm_wordpool_less_exclusions.txt	LTP283	ltpFR	1	n/a	-1	BARN	89	n/a	-1	n/a	n/a	n/a	n/a	n/a
3251084	FFR_REC_WORD	wordpools/wasnorm_wordpool_less_exclusions.txt	LTP283	ltpFR	1	n/a	1	SHACK	1273	n/a	0	n/a	n/a	n/a	n/a	n/a
3253443	FFR_REC_WORD	wordpools/wasnorm_wordpool_less_exclusions.txt	LTP283	ltpFR	1	n/a	0	COUGAR	387	n/a	1	n/a	n/a	n/a	n/a	n/a
3254790	FFR_REC_WORD	wordpools/wasnorm_wordpool_less_exclusions.txt	LTP283	ltpFR	1	n/a	0	PANTHER	1009	n/a	1	n/a	n/a	n/a	n/a	n/a
3256401	FFR_REC_WORD	wordpools/wasnorm_wordpool_less_exclusions.txt	LTP283	ltpFR	1	n/a	-1	LEOPARD	812	n/a	-1	n/a	n/a	n/a	n/a	n/a
3258003	FFR_REC_WORD	wordpools/wasnorm_wordpool_less_exclusions.txt	LTP283	ltpFR	1	n/a	-1	CAGE	218	n/a	-1	n/a	n/a	n/a	n/a	n/a
3260327	FFR_REC_WORD	wordpools/wasnorm_wordpool_less_exclusions.txt	LTP283	ltpFR	1	n/a	-1	SKUNK	1321	n/a	-1	n/a	n/a	n/a	n/a	n/a
3262458	FFR_REC_WORD	wordpools/wasnorm_wordpool_less_exclusions.txt	LTP283	ltpFR	1	n/a	-1	PORCUPINE	1107	n/a	-1	n/a	n/a	n/a	n/a	n/a
3264897	FFR_REC_WORD	wordpools/wasnorm_wordpool_less_exclusions.txt	LTP283	ltpFR	1	n/a	-1	YARN	1631	n/a	-1	n/a	n/a	n/a	n/a	n/a
3267132	FFR_REC_WORD	wordpools/wasnorm_wordpool_less_exclusions.txt	LTP283	ltpFR	1	n/a	n/a	LETTER	813	n/a	n/a	n/a	n/a	n/a	n/a	n/a
3270021	FFR_REC_WORD	wordpools/wasnorm_wordpool_less_exclusions.txt	LTP283	ltpFR	1	n/a	-1	NOTE	958	n/a	-1	n/a	n/a	n/a	n/a	n/a
3271756	FFR_REC_WORD	wordpools/wasnorm_wordpool_less_exclusions.txt	LTP283	ltpFR	1	n/a	-1	STAMP	1370	n/a	-1	n/a	n/a	n/a	n/a	n/a
3274420	FFR_REC_WORD	wordpools/wasnorm_wordpool_less_exclusions.txt	LTP283	ltpFR	1	n/a	-1	SOFTBALL	1343	n/a	-1	n/a	n/a	n/a	n/a	n/a
3275972	FFR_REC_WORD	wordpools/wasnorm_wordpool_less_exclusions.txt	LTP283	ltpFR	1	n/a	-1	OVAL	990	n/a	-1	n/a	n/a	n/a	n/a	n/a
3278067	FFR_REC_WORD	wordpools/wasnorm_wordpool_less_exclusions.txt	LTP283	ltpFR	1	n/a	-1	ATHLETE	52	n/a	-1	n/a	n/a	n/a	n/a	n/a
3279384	FFR_REC_WORD	wordpools/wasnorm_wordpool_less_exclusions.txt	LTP283	ltpFR	1	n/a	-1	REFEREE	1178	n/a	-1	n/a	n/a	n/a	n/a	n/a
3282268	FFR_REC_WORD	wordpools/wasnorm_wordpool_less_exclusions.txt	LTP283	ltpFR	1	n/a	0	LAWN	805	n/a	1	n/a	n/a	n/a	n/a	n/a
3284099	FFR_REC_WORD	wordpools/wasnorm_wordpool_less_exclusions.txt	LTP283	ltpFR	1	n/a	0	BANQUET	86	n/a	1	n/a	n/a	n/a	n/a	n/a
3285790	FFR_REC_WORD	wordpools/wasnorm_wordpool_less_exclusions.txt	LTP283	ltpFR	1	n/a	0	CHERRY	293	n/a	0	n/a	n/a	n/a	n/a	n/a
3287655	FFR_REC_WORD	wordpools/wasnorm_wordpool_less_exclusions.txt	LTP283	ltpFR	1	n/a	0	PEAR	1033	n/a	0	n/a	n/a	n/a	n/a	n/a
3289466	FFR_REC_WORD	wordpools/wasnorm_wordpool_less_exclusions.txt	LTP283	ltpFR	1	n/a	0	SILVERWARE	1308	n/a	0	n/a	n/a	n/a	n/a	n/a
3290466	FFR_REC_WORD_VV	wordpools/wasnorm_wordpool_less_exclusions.txt	LTP283	ltpFR	1	n/a	n/a	<>	-1	n/a	n/a	n/a	n/a	n/a	n/a	n/a
3291676	FFR_REC_WORD	wordpools/wasnorm_wordpool_less_exclusions.txt	LTP283	ltpFR	1	n/a	0	CASH	252	n/a	0	n/a	n/a	n/a	n/a	n/a
3293502	FFR_REC_WORD	wordpools/wasnorm_wordpool_less_exclusions.txt	LTP283	ltpFR	1	n/a	0	BANK	83	n/a	1	n/a	n/a	n/a	n/a	n/a
3294879	FFR_REC_WORD	wordpools/wasnorm_wordpool_less_exclusions.txt	LTP283	ltpFR	1	n/a	0	OPERATOR	979	n/a	1	n/a	n/a	n/a	n/a	n/a
3303509	FFR_REC_WORD	wordpools/wasnorm_wordpool_less_exclusions.txt	LTP283	ltpFR	1	n/a	0	GRILL	661	n/a	1	n/a	n/a	n/a	n/a	n/a
3305006	FFR_REC_WORD	wordpools/wasnorm_wordpool_less_exclusions.txt	LTP283	ltpFR	1	n/a	0	GRATE	657	n/a	1	n/a	n/a	n/a	n/a	n/a
3306902	FFR_REC_WORD	wordpools/wasnorm_wordpool_less_exclusions.txt	LTP283	ltpFR	1	n/a	0	GARAGE	621	n/a	1	n/a	n/a	n/a	n/a	n/a
3309022	FFR_REC_WORD	wordpools/wasnorm_wordpool_less_exclusions.txt	LTP283	ltpFR	1	n/a	0	VISITOR	1573	n/a	1	n/a	n/a	n/a	n/a	n/a
3310474	FFR_REC_WORD	wordpools/wasnorm_wordpool_less_exclusions.txt	LTP283	ltpFR	1	n/a	0	TAG	1429	n/a	0	n/a	n/a	n/a	n/a	n/a
3312080	FFR_REC_WORD	wordpools/wasnorm_wordpool_less_exclusions.txt	LTP283	ltpFR	1	n/a	0	GUARDIAN	668	n/a	1	n/a	n/a	n/a	n/a	n/a
3316640	FFR_REC_WORD	wordpools/wasnorm_wordpool_less_exclusions.txt	LTP283	ltpFR	1	n/a	0	LAWN	805	n/a	1	n/a	n/a	n/a	n/a	n/a
3317707	FFR_REC_WORD	wordpools/wasnorm_wordpool_less_exclusions.txt	LTP283	ltpFR	1	n/a	1	COUSIN	392	n/a	1	n/a	n/a	n/a	n/a	n/a
3318785	FFR_REC_WORD	wordpools/wasnorm_wordpool_less_exclusions.txt	LTP283	ltpFR	1	n/a	1	NEPHEW	942	n/a	1	n/a	n/a	n/a	n/a	n/a
3320865	FFR_REC_WORD	wordpools/wasnorm_wordpool_less_exclusions.txt	LTP283	ltpFR	1	n/a	-1	BOOT	150	n/a	-1	n/a	n/a	n/a	n/a	n/a
3321918	FFR_REC_WORD	wordpools/wasnorm_wordpool_less_exclusions.txt	LTP283	ltpFR	1	n/a	0	FOOT	590	n/a	0	n/a	n/a	n/a	n/a	n/a
3323454	FFR_REC_WORD	wordpools/wasnorm_wordpool_less_exclusions.txt	LTP283	ltpFR	1	n/a	-1	TOE	1473	n/a	-1	n/a	n/a	n/a	n/a	n/a
3327320	FFR_REC_WORD	wordpools/wasnorm_wordpool_less_exclusions.txt	LTP283	ltpFR	1	n/a	-1	UNIFORM	1539	n/a	-1	n/a	n/a	n/a	n/a	n/a
3330917	FFR_REC_WORD	wordpools/wasnorm_wordpool_less_exclusions.txt	LTP283	ltpFR	1	n/a	-1	COURSE	390	n/a	-1	n/a	n/a	n/a	n/a	n/a
3345963	FFR_REC_WORD	wordpools/wasnorm_wordpool_less_exclusions.txt	LTP283	ltpFR	1	n/a	1	FOREST	593	n/a	1	n/a	n/a	n/a	n/a	n/a
3347479	FFR_REC_WORD	wordpools/wasnorm_wordpool_less_exclusions.txt	LTP283	ltpFR	1	n/a	1	TRIBE	1505	n/a	1	n/a	n/a	n/a	n/a	n/a
3349216	FFR_REC_WORD	wordpools/wasnorm_wordpool_less_exclusions.txt	LTP283	ltpFR	1	n/a	0	ELM	527	n/a	1	n/a	n/a	n/a	n/a	n/a
3352643	FFR_REC_WORD	wordpools/wasnorm_wordpool_less_exclusions.txt	LTP283	ltpFR	1	n/a	0	LUMBER	848	n/a	1	n/a	n/a	n/a	n/a	n/a
3356509	FFR_REC_WORD	wordpools/wasnorm_wordpool_less_exclusions.txt	LTP283	ltpFR	1	n/a	0	SHORE	1291	n/a	1	n/a	n/a	n/a	n/a	n/a
3358185	FFR_REC_WORD	wordpools/wasnorm_wordpool_less_exclusions.txt	LTP283	ltpFR	1	n/a	0	CANAL	226	n/a	1	n/a	n/a	n/a	n/a	n/a
3360091	FFR_REC_WORD	wordpools/wasnorm_wordpool_less_exclusions.txt	LTP283	ltpFR	1	n/a	0	ESSAY	540	n/a	1	n/a	n/a	n/a	n/a	n/a
3361557	FFR_REC_WORD	wordpools/wasnorm_wordpool_less_exclusions.txt	LTP283	ltpFR	1	n/a	1	TYPIST	1532	n/a	1	n/a	n/a	n/a	n/a	n/a
3369719	FFR_REC_WORD	wordpools/wasnorm_wordpool_less_exclusions.txt	LTP283	ltpFR	1	n/a	0	PEBBLE	1035	n/a	0	n/a	n/a	n/a	n/a	n/a
3371196	FFR_REC_WORD	wordpools/wasnorm_wordpool_less_exclusions.txt	LTP283	ltpFR	1	n/a	0	ORANGE	980	n/a	0	n/a	n/a	n/a	n/a	n/a
3408461	FFR_REC_WORD	wordpools/wasnorm_wordpool_less_exclusions.txt	LTP283	ltpFR	1	n/a	1	COYOTE	396	n/a	1	n/a	n/a	n/a	n/a	n/a
3416423	FFR_REC_WORD	wordpools/wasnorm_wordpool_less_exclusions.txt	LTP283	ltpFR	1	n/a	1	APE	31	n/a	0	n/a	n/a	n/a	n/a	n/a
3417540	FFR_REC_WORD	wordpools/wasnorm_wordpool_less_exclusions.txt	LTP283	ltpFR	1	n/a	1	MOOSE	915	n/a	1	n/a	n/a	n/a	n/a	n/a
3424734	FFR_REC_WORD	wordpools/wasnorm_wordpool_less_exclusions.txt	LTP283	ltpFR	1	n/a	1	PRUNE	1134	n/a	1	n/a	n/a	n/a	n/a	n/a
3425782	FFR_REC_WORD	wordpools/wasnorm_wordpool_less_exclusions.txt	LTP283	ltpFR	1	n/a	1	PLUM	1090	n/a	1	n/a	n/a	n/a	n/a	n/a
3432007	FFR_REC_WORD	wordpools/wasnorm_wordpool_less_exclusions.txt	LTP283	ltpFR	1	n/a	0	SUITCASE	1403	n/a	1	n/a	n/a	n/a	n/a	n/a
3433007	FFR_REC_WORD_VV	wordpools/wasnorm_wordpool_less_exclusions.txt	LTP283	ltpFR	1	n/a	n/a	<>	-1	n/a	n/a	n/a	n/a	n/a	n/a	n/a
3433733	FFR_REC_WORD	wordpools/wasnorm_wordpool_less_exclusions.txt	LTP283	ltpFR	1	n/a	0	BOMB	147	n/a	1	n/a	n/a	n/a	n/a	n/a
3453713	FFR_REC_WORD	wordpools/wasnorm_wordpool_less_exclusions.txt	LTP283	ltpFR	1	n/a	1	ATMOSPHERE	54	n/a	0	n/a	n/a	n/a	n/a	n/a
3459265	FFR_REC_WORD	wordpools/wasnorm_wordpool_less_exclusions.txt	LTP283	ltpFR	1	n/a	0	TROMBONE	1508	n/a	1	n/a	n/a	n/a	n/a	n/a
3461216	FFR_REC_WORD	wordpools/wasnorm_wordpool_less_exclusions.txt	LTP283	ltpFR	1	n/a	1	CLARINET	317	n/a	0	n/a	n/a	n/a	n/a	n/a
3462216	FFR_REC_WORD_VV	wordpools/wasnorm_wordpool_less_exclusions.txt	LTP283	ltpFR	1	n/a	n/a	<>	-1	n/a	n/a	n/a	n/a	n/a	n/a	n/a
3463980	FFR_REC_WORD	wordpools/wasnorm_wordpool_less_exclusions.txt	LTP283	ltpFR	1	n/a	0	SAXOPHONE	1240	n/a	1	n/a	n/a	n/a	n/a	n/a
3491886	FFR_REC_WORD	wordpools/wasnorm_wordpool_less_exclusions.txt	LTP283	ltpFR	1	n/a	0	CORPORATION	382	n/a	1	n/a	n/a	n/a	n/a	n/a
3960790	REC_START	n/a	LTP283	ltpFR	1	1	n/a	n/a	n/a	n/a	n/a	n/a	n/a	n/a	n/a	n/a
3960822	RECOG_LURE	n/a	LTP283	ltpFR	1	1	n/a	AUNT	60	5	n/a	n/a	n/a	n/a	n/a	n/a
3963930	RECOG_RESP	n/a	LTP283	ltpFR	1	1	n/a	AUNT	60	n/a	n/a	n/a	n/a	n/a	n/a	n/a
3965700	RECOG_CONF	n/a	LTP283	ltpFR	1	1	n/a	AUNT	60	5	n/a	n/a	n/a	n/a	n/a	n/a
3967728	RECOG_TARGET	n/a	LTP283	ltpFR	1	1	1	DOORBELL	487	4	0	n/a	n/a	n/a	n/a	n/a
3969105	RECOG_RESP	n/a	LTP283	ltpFR	1	1	1	DOORBELL	487	n/a	0	n/a	n/a	n/a	n/a	n/a
3970290	RECOG_CONF	n/a	LTP283	ltpFR	1	1	1	DOORBELL	487	4	0	n/a	n/a	n/a	n/a	n/a
3972172	RECOG_TARGET	n/a	LTP283	ltpFR	1	1	1	MOTH	920	5	1	n/a	n/a	n/a	n/a	n/a
3973015	RECOG_RESP	n/a	LTP283	ltpFR	1	1	1	MOTH	920	n/a	1	n/a	n/a	n/a	n/a	n/a
3973920	RECOG_CONF	n/a	LTP283	ltpFR	1	1	1	MOTH	920	5	1	n/a	n/a	n/a	n/a	n/a
3976731	RECOG_TARGET	n/a	LTP283	ltpFR	1	1	0	CASH	252	5	0	n/a	n/a	n/a	n/a	n/a
3977735	RECOG_RESP	n/a	LTP283	ltpFR	1	1	0	CASH	252	n/a	0	n/a	n/a	n/a	n/a	n/a
3978660	RECOG_CONF	n/a	LTP283	ltpFR	1	1	0	CASH	252	5	0	n/a	n/a	n/a	n/a	n/a
3980592	RECOG_TARGET	n/a	LTP283	ltpFR	1	1	0	FOOT	590	5	0	n/a	n/a	n/a	n/a	n/a
3981505	RECOG_RESP	n/a	LTP283	ltpFR	1	1	0	FOOT	590	n/a	0	n/a	n/a	n/a	n/a	n/a
3982520	RECOG_CONF	n/a	LTP283	ltpFR	1	1	0	FOOT	590	5	0	n/a	n/a	n/a	n/a	n/a
3984504	RECOG_TARGET	n/a	LTP283	ltpFR	1	1	1	BAKER	71	3	1	n/a	n/a	n/a	n/a	n/a
3985585	RECOG_RESP	n/a	LTP283	ltpFR	1	1	1	BAKER	71	n/a	1	n/a	n/a	n/a	n/a	n/a
3986930	RECOG_CONF	n/a	LTP283	ltpFR	1	1	1	BAKER	71	3	1	n/a	n/a	n/a	n/a	n/a
3988647	RECOG_TARGET	n/a	LTP283	ltpFR	1	1	0	MOTOR	922	4	1	n/a	n/a	n/a	n/a	n/a
3989880	RECOG_RESP	n/a	LTP283	ltpFR	1	1	0	MOTOR	922	n/a	1	n/a	n/a	n/a	n/a	n/a
3991090	RECOG_CONF	n/a	LTP283	ltpFR	1	1	0	MOTOR	922	4	1	n/a	n/a	n/a	n/a	n/a
3992758	RECOG_LURE	n/a	LTP283	ltpFR	1	1	n/a	ENCYCLOPEDIA	533	2	n/a	n/a	n/a	n/a	n/a	n/a
3993605	RECOG_RESP	n/a	LTP283	ltpFR	1	1	n/a	ENCYCLOPEDIA	533	n/a	n/a	n/a	n/a	n/a	n/a	n/a
3995010	RECOG_CONF	n/a	LTP283	ltpFR	1	1	n/a	ENCYCLOPEDIA	533	2	n/a	n/a	n/a	n/a	n/a	n/a
3996802	RECOG_TARGET	n/a	LTP283	ltpFR	1	1	1	WOLF	1619	4	1	n/a	n/a	n/a	n/a	n/a
3997700	RECOG_RESP	n/a	LTP283	ltpFR	1	1	1	WOLF	1619	n/a	1	n/a	n/a	n/a	n/a	n/a
3998860	RECOG_CONF	n/a	LTP283	ltpFR	1	1	1	WOLF	1619	4	1	n/a	n/a	n/a	n/a	n/a
4000746	RECOG_TARGET	n/a	LTP283	ltpFR	1	1	-1	WITNESS	1618	1	-1	n/a	n/a	n/a	n/a	n/a
4001765	RECOG_RESP	n/a	LTP283	ltpFR	1	1	-1	WITNESS	1618	n/a	-1	n/a	n/a	n/a	n/a	n/a
4003020	RECOG_CONF	n/a	LTP283	ltpFR	1	1	-1	WITNESS	1618	1	-1	n/a	n/a	n/a	n/a	n/a
4004740	RECOG_TARGET	n/a	LTP283	ltpFR	1	1	-1	BLACKBERRY	132	5	-1	n/a	n/a	n/a	n/a	n/a
4005660	RECOG_RESP	n/a	LTP283	ltpFR	1	1	-1	BLACKBERRY	132	n/a	-1	n/a	n/a	n/a	n/a	n/a
4006760	RECOG_CONF	n/a	LTP283	ltpFR	1	1	-1	BLACKBERRY	132	5	-1	n/a	n/a	n/a	n/a	n/a
4008717	RECOG_TARGET	n/a	LTP283	ltpFR	1	1	1	BUG	187	2	1	n/a	n/a	n/a	n/a	n/a
4010060	RECOG_RESP	n/a	LTP283	ltpFR	1	1	1	BUG	187	n/a	1	n/a	n/a	n/a	n/a	n/a
4011370	RECOG_CONF	n/a	LTP283	ltpFR	1	1	1	BUG	187	2	1	n/a	n/a	n/a	n/a	n/a
4013477	RECOG_TARGET	n/a	LTP283	ltpFR	1	1	0	VACUUM	1543	5	1	n/a	n/a	n/a	n/a	n/a
4014570	RECOG_RESP	n/a	LTP283	ltpFR	1	1	0	VACUUM	1543	n/a	1	n/a	n/a	n/a	n/a	n/a
4015660	RECOG_CONF	n/a	LTP283	ltpFR	1	1	0	VACUUM	1543	5	1	n/a	n/a	n/a	n/a	n/a
4017653	RECOG_TARGET	n/a	LTP283	ltpFR	1	1	1	SHED	1277	2	0	n/a	n/a	n/a	n/a	n/a
4018550	RECOG_RESP	n/a	LTP283	ltpFR	1	1	1	SHED	1277	n/a	0	n/a	n/a	n/a	n/a	n/a
4019990	RECOG_CONF	n/a	LTP283	ltpFR	1	1	1	SHED	1277	2	0	n/a	n/a	n/a	n/a	n/a
4021765	RECOG_TARGET	n/a	LTP283	ltpFR	1	1	1	FUDGE	611	1	0	n/a	n/a	n/a	n/a	n/a
4022720	RECOG_RESP	n/a	LTP283	ltpFR	1	1	1	FUDGE	611	n/a	0	n/a	n/a	n/a	n/a	n/a
4023860	RECOG_CONF	n/a	LTP283	ltpFR	1	1	1	FUDGE	611	1	0	n/a	n/a	n/a	n/a	n/a
4025759	RECOG_TARGET	n/a	LTP283	ltpFR	1	1	0	LID	817	5	0	n/a	n/a	n/a	n/a	n/a
4027220	RECOG_RESP	n/a	LTP283	ltpFR	1	1	0	LID	817	n/a	0	n/a	n/a	n/a	n/a	n/a
4028470	RECOG_CONF	n/a	LTP283	ltpFR	1	1	0	LID	817	5	0	n/a	n/a	n/a	n/a	n/a
4030402	RECOG_TARGET	n/a	LTP283	ltpFR	1	1	0	GIRAFFE	636	4	1	n/a	n/a	n/a	n/a	n/a
4031400	RECOG_RESP	n/a	LTP283	ltpFR	1	1	0	GIRAFFE	636	n/a	1	n/a	n/a	n/a	n/a	n/a
4032840	RECOG_CONF	n/a	LTP283	ltpFR	1	1	0	GIRAFFE	636	4	1	n/a	n/a	n/a	n/a	n/a
4034661	RECOG_TARGET	n/a	LTP283	ltpFR	1	1	-1	LEOPARD	812	5	-1	n/a	n/a	n/a	n/a	n/a
4035285	RECOG_RESP	n/a	LTP283	ltpFR	1	1	-1	LEOPARD	812	n/a	-1	n/a	n/a	n/a	n/a	n/a
4036810	RECOG_CONF	n/a	LTP283	ltpFR	1	1	-1	LEOPARD	812	5	-1	n/a	n/a	n/a	n/a	n/a
4038672	RECOG_TARGET	n/a	LTP283	ltpFR	1	1	0	WORKER	1621	3	1	n/a	n/a	n/a	n/a	n/a
4039700	RECOG_RESP	n/a	LTP283	ltpFR	1	1	0	WORKER	1621	n/a	1	n/a	n/a	n/a	n/a	n/a
4040800	RECOG_CONF	n/a	LTP283	ltpFR	1	1	0	WORKER	1621	3	1	n/a	n/a	n/a	n/a	n/a
4043083	RECOG_TARGET	n/a	LTP283	ltpFR	1	1	1	TURNIP	1521	5	1	n/a	n/a	n/a	n/a	n/a
4044085	RECOG_RESP	n/a	LTP283	ltpFR	1	1	1	TURNIP	1521	n/a	1	n/a	n/a	n/a	n/a	n/a
4045100	RECOG_CONF	n/a	LTP283	ltpFR	1	1	1	TURNIP	1521	5	1	n/a	n/a	n/a	n/a	n/a
4050886	REC_START	n/a	LTP283	ltpFR	1	2	n/a	n/a	n/a	n/a	n/a	n/a	n/a	n/a	n/a	n/a
4050921	RECOG_LURE	n/a	LTP283	ltpFR	1	2	n/a	FLOUR	583	3	n/a	n/a	n/a	n/a	n/a	n/a
4052366	RECOG_RESP	n/a	LTP283	ltpFR	1	2	n/a	FLOUR	583	n/a	n/a	n/a	n/a	n/a	n/a	n/a
4053336	RECOG_CONF	n/a	LTP283	ltpFR	1	2	n/a	FLOUR	583	3	n/a	n/a	n/a	n/a	n/a	n/a
4055148	RECOG_TARGET	n/a	LTP283	ltpFR	1	2	1	JEWEL	757	2	0	n/a	n/a	n/a	n/a	n/a
4055926	RECOG_RESP	n/a	LTP283	ltpFR	1	2	1	JEWEL	757	n/a	0	n/a	n/a	n/a	n/a	n/a
4056936	RECOG_CONF	n/a	LTP283	ltpFR	1	2	1	JEWEL	757	2	0	n/a	n/a	n/a	n/a	n/a
4058692	RECOG_TARGET	n/a	LTP283	ltpFR	1	2	1	MARROW	872	5	1	n/a	n/a	n/a	n/a	n/a
4059516	RECOG_RESP	n/a	LTP283	ltpFR	1	2	1	MARROW	872	n/a	1	n/a	n/a	n/a	n/a	n/a
4060316	RECOG_CONF	n/a	LTP283	ltpFR	1	2	1	MARROW	872	5	1	n/a	n/a	n/a	n/a	n/a
4062121	RECOG_TARGET	n/a	LTP283	ltpFR	1	2	1	PRUNE	1134	5	1	n/a	n/a	n/a	n/a	n/a
4062816	RECOG_RESP	n/a	LTP283	ltpFR	1	2	1	PRUNE	1134	n/a	1	n/a	n/a	n/a	n/a	n/a
4063806	RECOG_CONF	n/a	LTP283	ltpFR	1	2	1	PRUNE	1134	5	1	n/a	n/a	n/a	n/a	n/a
4065982	RECOG_LURE	n/a	LTP283	ltpFR	1	2	n/a	CHEEK	287	4	n/a	n/a	n/a	n/a	n/a	n/a
4066881	RECOG_RESP	n/a	LTP283	ltpFR	1	2	n/a	CHEEK	287	n/a	n/a	n/a	n/a	n/a	n/a	n/a
4068266	RECOG_CONF	n/a	LTP283	ltpFR	1	2	n/a	CHEEK	287	4	n/a	n/a	n/a	n/a	n/a	n/a
4069993	RECOG_TARGET	n/a	LTP283	ltpFR	1	2	-1	BREAST	171	5	-1	n/a	n/a	n/a	n/a	n/a
4070661	RECOG_RESP	n/a	LTP283	ltpFR	1	2	-1	BREAST	171	n/a	-1	n/a	n/a	n/a	n/a	n/a
4071606	RECOG_CONF	n/a	LTP283	ltpFR	1	2	-1	BREAST	171	5	-1	n/a	n/a	n/a	n/a	n/a
4073404	RECOG_LURE	n/a	LTP283	ltpFR	1	2	n/a	FIG	563	4	n/a	n/a	n/a	n/a	n/a	n/a
4074541	RECOG_RESP	n/a	LTP283	ltpFR	1	2	n/a	FIG	563	n/a	n/a	n/a	n/a	n/a	n/a	n/a
4075496	RECOG_CONF	n/a	LTP283	ltpFR	1	2	n/a	FIG	563	4	n/a	n/a	n/a	n/a	n/a	n/a
4077448	RECOG_TARGET	n/a	LTP283	ltpFR	1	2	1	GOWN	652	1	0	n/a	n/a	n/a	n/a	n/a
4078611	RECOG_RESP	n/a	LTP283	ltpFR	1	2	1	GOWN	652	n/a	0	n/a	n/a	n/a	n/a	n/a
4079656	RECOG_CONF	n/a	LTP283	ltpFR	1	2	1	GOWN	652	1	0	n/a	n/a	n/a	n/a	n/a
4081359	RECOG_TARGET	n/a	LTP283	ltpFR	1	2	0	SUITCASE	1403	5	1	n/a	n/a	n/a	n/a	n/a
4082226	RECOG_RESP	n/a	LTP283	ltpFR	1	2	0	SUITCASE	1403	n/a	1	n/a	n/a	n/a	n/a	n/a
4083566	RECOG_CONF	n/a	LTP283	ltpFR	1	2	0	SUITCASE	1403	5	1	n/a	n/a	n/a	n/a	n/a
4085735	RECOG_LURE	n/a	LTP283	ltpFR	1	2	n/a	LITERATURE	831	4	n/a	n/a	n/a	n/a	n/a	n/a
4086806	RECOG_RESP	n/a	LTP283	ltpFR	1	2	n/a	LITERATURE	831	n/a	n/a	n/a	n/a	n/a	n/a	n/a
4087866	RECOG_CONF	n/a	LTP283	ltpFR	1	2	n/a	LITERATURE	831	4	n/a	n/a	n/a	n/a	n/a	n/a
4089546	RECOG_TARGET	n/a	LTP283	ltpFR	1	2	0	CELERY	266	5	0	n/a	n/a	n/a	n/a	n/a
4090291	RECOG_RESP	n/a	LTP283	ltpFR	1	2	0	CELERY	266	n/a	0	n/a	n/a	n/a	n/a	n/a
4091336	RECOG_CONF	n/a	LTP283	ltpFR	1	2	0	CELERY	266	5	0	n/a	n/a	n/a	n/a	n/a
4093142	RECOG_LURE	n/a	LTP283	ltpFR	1	2	n/a	SNOB	1335	5	n/a	n/a	n/a	n/a	n/a	n/a
4094101	RECOG_RESP	n/a	LTP283	ltpFR	1	2	n/a	SNOB	1335	n/a	n/a	n/a	n/a	n/a	n/a	n/a
4095606	RECOG_CONF	n/a	LTP283	ltpFR	1	2	n/a	SNOB	1335	5	n/a	n/a	n/a	n/a	n/a	n/a
4097551	RECOG_TARGET	n/a	LTP283	ltpFR	1	2	0	WAGON	1578	3	1	n/a	n/a	n/a	n/a	n/a
4098841	RECOG_RESP	n/a	LTP283	ltpFR	1	2	0	WAGON	1578	n/a	1	n/a	n/a	n/a	n/a	n/a
4099836	RECOG_CONF	n/a	LTP283	ltpFR	1	2	0	WAGON	1578	3	1	n/a	n/a	n/a	n/a	n/a
4101845	RECOG_TARGET	n/a	LTP283	ltpFR	1	2	-1	KNOB	787	5	-1	n/a	n/a	n/a	n/a	n/a
4102566	RECOG_RESP	n/a	LTP283	ltpFR	1	2	-1	KNOB	787	n/a	-1	n/a	n/a	n/a	n/a	n/a
4103886	RECOG_CONF	n/a	LTP283	ltpFR	1	2	-1	KNOB	787	5	-1	n/a	n/a	n/a	n/a	n/a
4106089	RECOG_TARGET	n/a	LTP283	ltpFR	1	2	0	BANDANNA	80	4	0	n/a	n/a	n/a	n/a	n/a
4107671	RECOG_RESP	n/a	LTP283	ltpFR	1	2	0	BANDANNA	80	n/a	0	n/a	n/a	n/a	n/a	n/a
4109626	RECOG_CONF	n/a	LTP283	ltpFR	1	2	0	BANDANNA	80	4	0	n/a	n/a	n/a	n/a	n/a
4111364	RECOG_LURE	n/a	LTP283	ltpFR	1	2	n/a	TAPIOCA	1434	5	n/a	n/a	n/a	n/a	n/a	n/a
4112266	RECOG_RESP	n/a	LTP283	ltpFR	1	2	n/a	TAPIOCA	1434	n/a	n/a	n/a	n/a	n/a	n/a	n/a
4113176	RECOG_CONF	n/a	LTP283	ltpFR	1	2	n/a	TAPIOCA	1434	5	n/a	n/a	n/a	n/a	n/a	n/a
4115175	RECOG_LURE	n/a	LTP283	ltpFR	1	2	n/a	DAISY	435	5	n/a	n/a	n/a	n/a	n/a	n/a
4116136	RECOG_RESP	n/a	LTP283	ltpFR	1	2	n/a	DAISY	435	n/a	n/a	n/a	n/a	n/a	n/a	n/a
4117116	RECOG_CONF	n/a	LTP283	ltpFR	1	2	n/a	DAISY	435	5	n/a	n/a	n/a	n/a	n/a	n/a
4119186	RECOG_LURE	n/a	LTP283	ltpFR	1	2	n/a	TRIANGLE	1504	5	n/a	n/a	n/a	n/a	n/a	n/a
4119986	RECOG_RESP	n/a	LTP283	ltpFR	1	2	n/a	TRIANGLE	1504	n/a	n/a	n/a	n/a	n/a	n/a	n/a
4120886	RECOG_CONF	n/a	LTP283	ltpFR	1	2	n/a	TRIANGLE	1504	5	n/a	n/a	n/a	n/a	n/a	n/a
4122613	RECOG_TARGET	n/a	LTP283	ltpFR	1	2	1	MAN	862	5	1	n/a	n/a	n/a	n/a	n/a
4123396	RECOG_RESP	n/a	LTP283	ltpFR	1	2	1	MAN	862	n/a	1	n/a	n/a	n/a	n/a	n/a
4124286	RECOG_CONF	n/a	LTP283	ltpFR	1	2	1	MAN	862	5	1	n/a	n/a	n/a	n/a	n/a
4126126	RECOG_LURE	n/a	LTP283	ltpFR	1	2	n/a	BUCKET	184	2	n/a	n/a	n/a	n/a	n/a	n/a
4127251	RECOG_RESP	n/a	LTP283	ltpFR	1	2	n/a	BUCKET	184	n/a	n/a	n/a	n/a	n/a	n/a	n/a
4128246	RECOG_CONF	n/a	LTP283	ltpFR	1	2	n/a	BUCKET	184	2	n/a	n/a	n/a	n/a	n/a	n/a
4139515	REC_START	n/a	LTP283	ltpFR	1	3	n/a	n/a	n/a	n/a	n/a	n/a	n/a	n/a	n/a	n/a
4139555	RECOG_TARGET	n/a	LTP283	ltpFR	1	3	1	HOSE	720	3	0	n/a	n/a	n/a	n/a	n/a
4140595	RECOG_RESP	n/a	LTP283	ltpFR	1	3	1	HOSE	720	n/a	0	n/a	n/a	n/a	n/a	n/a
4141895	RECOG_CONF	n/a	LTP283	ltpFR	1	3	1	HOSE	720	3	0	n/a	n/a	n/a	n/a	n/a
4143632	RECOG_TARGET	n/a	LTP283	ltpFR	1	3	-1	DINER	467	5	-1	n/a	n/a	n/a	n/a	n/a
4144315	RECOG_RESP	n/a	LTP283	ltpFR	1	3	-1	DINER	467	n/a	-1	n/a	n/a	n/a	n/a	n/a
4145165	RECOG_CONF	n/a	LTP283	ltpFR	1	3	-1	DINER	467	5	-1	n/a	n/a	n/a	n/a	n/a
4146995	RECOG_TARGET	n/a	LTP283	ltpFR	1	3	1	FINGER	567	2	0	n/a	n/a	n/a	n/a	n/a
4148100	RECOG_RESP	n/a	LTP283	ltpFR	1	3	1	FINGER	567	n/a	0	n/a	n/a	n/a	n/a	n/a
4149605	RECOG_CONF	n/a	LTP283	ltpFR	1	3	1	FINGER	567	2	0	n/a	n/a	n/a	n/a	n/a
4151371	RECOG_TARGET	n/a	LTP283	ltpFR	1	3	1	PLUM	1090	5	1	n/a	n/a	n/a	n/a	n/a
4152190	RECOG_RESP	n/a	LTP283	ltpFR	1	3	1	PLUM	1090	n/a	1	n/a	n/a	n/a	n/a	n/a
4153065	RECOG_CONF	n/a	LTP283	ltpFR	1	3	1	PLUM	1090	5	1	n/a	n/a	n/a	n/a	n/a
4154800	RECOG_TARGET	n/a	LTP283	ltpFR	1	3	-1	VIKING	1565	5	-1	n/a	n/a	n/a	n/a	n/a
4155630	RECOG_RESP	n/a	LTP283	ltpFR	1	3	-1	VIKING	1565	n/a	-1	n/a	n/a	n/a	n/a	n/a
4156985	RECOG_CONF	n/a	LTP283	ltpFR	1	3	-1	VIKING	1565	5	-1	n/a	n/a	n/a	n/a	n/a
4158643	RECOG_LURE	n/a	LTP283	ltpFR	1	3	n/a	CLOUD	328	3	n/a	n/a	n/a	n/a	n/a	n/a
4159675	RECOG_RESP	n/a	LTP283	ltpFR	1	3	n/a	CLOUD	328	n/a	n/a	n/a	n/a	n/a	n/a	n/a
4160845	RECOG_CONF	n/a	LTP283	ltpFR	1	3	n/a	CLOUD	328	3	n/a	n/a	n/a	n/a	n/a	n/a
4162687	RECOG_TARGET	n/a	LTP283	ltpFR	1	3	-1	SUITE	1404	5	-1	n/a	n/a	n/a	n/a	n/a
4163445	RECOG_RESP	n/a	LTP283	ltpFR	1	3	-1	SUITE	1404	n/a	-1	n/a	n/a	n/a	n/a	n/a
4164365	RECOG_CONF	n/a	LTP283	ltpFR	1	3	-1	SUITE	1404	5	-1	n/a	n/a	n/a	n/a	n/a
4166449	RECOG_LURE	n/a	LTP283	ltpFR	1	3	n/a	VOLUNTEER	1577	2	n/a	n/a	n/a	n/a	n/a	n/a
4167605	RECOG_RESP	n/a	LTP283	ltpFR	1	3	n/a	VOLUNTEER	1577	n/a	n/a	n/a	n/a	n/a	n/a	n/a
4169105	RECOG_CONF	n/a	LTP283	ltpFR	1	3	n/a	VOLUNTEER	1577	2	n/a	n/a	n/a	n/a	n/a	n/a
4171042	RECOG_TARGET	n/a	LTP283	ltpFR	1	3	1	BANANA	77	4	1	n/a	n/a	n/a	n/a	n/a
4171875	RECOG_RESP	n/a	LTP283	ltpFR	1	3	1	BANANA	77	n/a	1	n/a	n/a	n/a	n/a	n/a
4173105	RECOG_CONF	n/a	LTP283	ltpFR	1	3	1	BANANA	77	4	1	n/a	n/a	n/a	n/a	n/a
4175202	RECOG_LURE	n/a	LTP283	ltpFR	1	3	n/a	FAMILY	550	2	n/a	n/a	n/a	n/a	n/a	n/a
4176100	RECOG_RESP	n/a	LTP283	ltpFR	1	3	n/a	FAMILY	550	n/a	n/a	n/a	n/a	n/a	n/a	n/a
4178245	RECOG_CONF	n/a	LTP283	ltpFR	1	3	n/a	FAMILY	550	2	n/a	n/a	n/a	n/a	n/a	n/a
4180577	RECOG_TARGET	n/a	LTP283	ltpFR	1	3	0	DUCK	504	2	1	n/a	n/a	n/a	n/a	n/a
4181635	RECOG_RESP	n/a	LTP283	ltpFR	1	3	0	DUCK	504	n/a	1	n/a	n/a	n/a	n/a	n/a
4183115	RECOG_CONF	n/a	LTP283	ltpFR	1	3	0	DUCK	504	2	1	n/a	n/a	n/a	n/a	n/a
4184955	RECOG_TARGET	n/a	LTP283	ltpFR	1	3	-1	COURSE	390	5	-1	n/a	n/a	n/a	n/a	n/a
4185885	RECOG_RESP	n/a	LTP283	ltpFR	1	3	-1	COURSE	390	n/a	-1	n/a	n/a	n/a	n/a	n/a
4186805	RECOG_CONF	n/a	LTP283	ltpFR	1	3	-1	COURSE	390	5	-1	n/a	n/a	n/a	n/a	n/a
4188915	RECOG_TARGET	n/a	LTP283	ltpFR	1	3	1	VALVE	1546	5	0	n/a	n/a	n/a	n/a	n/a
4189655	RECOG_RESP	n/a	LTP283	ltpFR	1	3	1	VALVE	1546	n/a	0	n/a	n/a	n/a	n/a	n/a
4190715	RECOG_CONF	n/a	LTP283	ltpFR	1	3	1	VALVE	1546	5	0	n/a	n/a	n/a	n/a	n/a
4192709	RECOG_TARGET	n/a	LTP283	ltpFR	1	3	0	BAND	78	1	1	n/a	n/a	n/a	n/a	n/a
4194815	RECOG_RESP	n/a	LTP283	ltpFR	1	3	0	BAND	78	n/a	1	n/a	n/a	n/a	n/a	n/a
4196555	RECOG_CONF	n/a	LTP283	ltpFR	1	3	0	BAND	78	1	1	n/a	n/a	n/a	n/a	n/a
4198751	RECOG_TARGET	n/a	LTP283	ltpFR	1	3	1	RUNNER	1218	4	1	n/a	n/a	n/a	n/a	n/a
4199660	RECOG_RESP	n/a	LTP283	ltpFR	1	3	1	RUNNER	1218	n/a	1	n/a	n/a	n/a	n/a	n/a
4201135	RECOG_CONF	n/a	LTP283	ltpFR	1	3	1	RUNNER	1218	4	1	n/a	n/a	n/a	n/a	n/a
4202994	RECOG_LURE	n/a	LTP283	ltpFR	1	3	n/a	POCKETBOOK	1094	4	n/a	n/a	n/a	n/a	n/a	n/a
4204860	RECOG_RESP	n/a	LTP283	ltpFR	1	3	n/a	POCKETBOOK	1094	n/a	n/a	n/a	n/a	n/a	n/a	n/a
4205865	RECOG_CONF	n/a	LTP283	ltpFR	1	3	n/a	POCKETBOOK	1094	4	n/a	n/a	n/a	n/a	n/a	n/a
4207636	RECOG_TARGET	n/a	LTP283	ltpFR	1	3	0	GUARDIAN	668	5	1	n/a	n/a	n/a	n/a	n/a
4208415	RECOG_RESP	n/a	LTP283	ltpFR	1	3	0	GUARDIAN	668	n/a	1	n/a	n/a	n/a	n/a	n/a
4209235	RECOG_CONF	n/a	LTP283	ltpFR	1	3	0	GUARDIAN	668	5	1	n/a	n/a	n/a	n/a	n/a
4211498	RECOG_TARGET	n/a	LTP283	ltpFR	1	3	-1	CAGE	218	5	-1	n/a	n/a	n/a	n/a	n/a
4212190	RECOG_RESP	n/a	LTP283	ltpFR	1	3	-1	CAGE	218	n/a	-1	n/a	n/a	n/a	n/a	n/a
4213025	RECOG_CONF	n/a	LTP283	ltpFR	1	3	-1	CAGE	218	5	-1	n/a	n/a	n/a	n/a	n/a
4214743	RECOG_LURE	n/a	LTP283	ltpFR	1	3	n/a	CANNON	232	3	n/a	n/a	n/a	n/a	n/a	n/a
4216140	RECOG_RESP	n/a	LTP283	ltpFR	1	3	n/a	CANNON	232	n/a	n/a	n/a	n/a	n/a	n/a	n/a
4216945	RECOG_CONF	n/a	LTP283	ltpFR	1	3	n/a	CANNON	232	3	n/a	n/a	n/a	n/a	n/a	n/a
4218771	RECOG_TARGET	n/a	LTP283	ltpFR	1	3	-1	FROG	608	5	-1	n/a	n/a	n/a	n/a	n/a
4219580	RECOG_RESP	n/a	LTP283	ltpFR	1	3	-1	FROG	608	n/a	-1	n/a	n/a	n/a	n/a	n/a
4220755	RECOG_CONF	n/a	LTP283	ltpFR	1	3	-1	FROG	608	5	-1	n/a	n/a	n/a	n/a	n/a
4234051	REC_START	n/a	LTP283	ltpFR	1	4	n/a	n/a	n/a	n/a	n/a	n/a	n/a	n/a	n/a	n/a
4234081	RECOG_LURE	n/a	LTP283	ltpFR	1	4	n/a	COOKBOOK	373	1	n/a	n/a	n/a	n/a	n/a	n/a
4235131	RECOG_RESP	n/a	LTP283	ltpFR	1	4	n/a	COOKBOOK	373	n/a	n/a	n/a	n/a	n/a	n/a	n/a
4237001	RECOG_CONF	n/a	LTP283	ltpFR	1	4	n/a	COOKBOOK	373	1	n/a	n/a	n/a	n/a	n/a	n/a
4238758	RECOG_TARGET	n/a	LTP283	ltpFR	1	4	-1	NEPTUNE	943	5	-1	n/a	n/a	n/a	n/a	n/a
4239521	RECOG_RESP	n/a	LTP283	ltpFR	1	4	-1	NEPTUNE	943	n/a	-1	n/a	n/a	n/a	n/a	n/a
4240621	RECOG_CONF	n/a	LTP283	ltpFR	1	4	-1	NEPTUNE	943	5	-1	n/a	n/a	n/a	n/a	n/a
4242469	RECOG_LURE	n/a	LTP283	ltpFR	1	4	n/a	MILITARY	894	2	n/a	n/a	n/a	n/a	n/a	n/a
4243996	RECOG_RESP	n/a	LTP283	ltpFR	1	4	n/a	MILITARY	894	n/a	n/a	n/a	n/a	n/a	n/a	n/a
4245481	RECOG_CONF	n/a	LTP283	ltpFR	1	4	n/a	MILITARY	894	2	n/a	n/a	n/a	n/a	n/a	n/a
4247178	RECOG_TARGET	n/a	LTP283	ltpFR	1	4	0	CHERRY	293	5	0	n/a	n/a	n/a	n/a	n/a
4247831	RECOG_RESP	n/a	LTP283	ltpFR	1	4	0	CHERRY	293	n/a	0	n/a	n/a	n/a	n/a	n/a
4248891	RECOG_CONF	n/a	LTP283	ltpFR	1	4	0	CHERRY	293	5	0	n/a	n/a	n/a	n/a	n/a
4250689	RECOG_TARGET	n/a	LTP283	ltpFR	1	4	-1	SAND	1230	5	-1	n/a	n/a	n/a	n/a	n/a
4251431	RECOG_RESP	n/a	LTP283	ltpFR	1	4	-1	SAND	1230	n/a	-1	n/a	n/a	n/a	n/a	n/a
4252261	RECOG_CONF	n/a	LTP283	ltpFR	1	4	-1	SAND	1230	5	-1	n/a	n/a	n/a	n/a	n/a
4254068	RECOG_TARGET	n/a	LTP283	ltpFR	1	4	1	SATURN	1236	5	0	n/a	n/a	n/a	n/a	n/a
4254641	RECOG_RESP	n/a	LTP283	ltpFR	1	4	1	SATURN	1236	n/a	0	n/a	n/a	n/a	n/a	n/a
4255481	RECOG_CONF	n/a	LTP283	ltpFR	1	4	1	SATURN	1236	5	0	n/a	n/a	n/a	n/a	n/a
4257296	RECOG_TARGET	n/a	LTP283	ltpFR	1	4	0	GARAGE	621	5	1	n/a	n/a	n/a	n/a	n/a
4258001	RECOG_RESP	n/a	LTP283	ltpFR	1	4	0	GARAGE	621	n/a	1	n/a	n/a	n/a	n/a	n/a
4259131	RECOG_CONF	n/a	LTP283	ltpFR	1	4	0	GARAGE	621	5	1	n/a	n/a	n/a	n/a	n/a
4260841	RECOG_TARGET	n/a	LTP283	ltpFR	1	4	1	LAGOON	795	3	0	n/a	n/a	n/a	n/a	n/a
4261851	RECOG_RESP	n/a	LTP283	ltpFR	1	4	1	LAGOON	795	n/a	0	n/a	n/a	n/a	n/a	n/a
4263211	RECOG_CONF	n/a	LTP283	ltpFR	1	4	1	LAGOON	795	3	0	n/a	n/a	n/a	n/a	n/a
4265052	RECOG_TARGET	n/a	LTP283	ltpFR	1	4	0	BUS	201	4	1	n/a	n/a	n/a	n/a	n/a
4266806	RECOG_RESP	n/a	LTP283	ltpFR	1	4	0	BUS	201	n/a	1	n/a	n/a	n/a	n/a	n/a
4267701	RECOG_CONF	n/a	LTP283	ltpFR	1	4	0	BUS	201	4	1	n/a	n/a	n/a	n/a	n/a
4269511	RECOG_LURE	n/a	LTP283	ltpFR	1	4	n/a	KEG	770	2	n/a	n/a	n/a	n/a	n/a	n/a
4270476	RECOG_RESP	n/a	LTP283	ltpFR	1	4	n/a	KEG	770	n/a	n/a	n/a	n/a	n/a	n/a	n/a
4271441	RECOG_CONF	n/a	LTP283	ltpFR	1	4	n/a	KEG	770	2	n/a	n/a	n/a	n/a	n/a	n/a
4273256	RECOG_TARGET	n/a	LTP283	ltpFR	1	4	0	POLYESTER	1100	4	0	n/a	n/a	n/a	n/a	n/a
4274041	RECOG_RESP	n/a	LTP283	ltpFR	1	4	0	POLYESTER	1100	n/a	0	n/a	n/a	n/a	n/a	n/a
4275081	RECOG_CONF	n/a	LTP283	ltpFR	1	4	0	POLYESTER	1100	4	0	n/a	n/a	n/a	n/a	n/a
4276851	RECOG_TARGET	n/a	LTP283	ltpFR	1	4	0	CABBAGE	210	1	0	n/a	n/a	n/a	n/a	n/a
4277911	RECOG_RESP	n/a	LTP283	ltpFR	1	4	0	CABBAGE	210	n/a	0	n/a	n/a	n/a	n/a	n/a
4279341	RECOG_CONF	n/a	LTP283	ltpFR	1	4	0	CABBAGE	210	1	0	n/a	n/a	n/a	n/a	n/a
4281061	RECOG_TARGET	n/a	LTP283	ltpFR	1	4	0	PANTHER	1009	5	1	n/a	n/a	n/a	n/a	n/a
4281706	RECOG_RESP	n/a	LTP283	ltpFR	1	4	0	PANTHER	1009	n/a	1	n/a	n/a	n/a	n/a	n/a
4282961	RECOG_CONF	n/a	LTP283	ltpFR	1	4	0	PANTHER	1009	5	1	n/a	n/a	n/a	n/a	n/a
4284805	RECOG_TARGET	n/a	LTP283	ltpFR	1	4	-1	OAR	966	4	-1	n/a	n/a	n/a	n/a	n/a
4285561	RECOG_RESP	n/a	LTP283	ltpFR	1	4	-1	OAR	966	n/a	-1	n/a	n/a	n/a	n/a	n/a
4286701	RECOG_CONF	n/a	LTP283	ltpFR	1	4	-1	OAR	966	4	-1	n/a	n/a	n/a	n/a	n/a
4288682	RECOG_TARGET	n/a	LTP283	ltpFR	1	4	-1	INN	739	5	-1	n/a	n/a	n/a	n/a	n/a
4289371	RECOG_RESP	n/a	LTP283	ltpFR	1	4	-1	INN	739	n/a	-1	n/a	n/a	n/a	n/a	n/a
4290331	RECOG_CONF	n/a	LTP283	ltpFR	1	4	-1	INN	739	5	-1	n/a	n/a	n/a	n/a	n/a
4292278	RECOG_LURE	n/a	LTP283	ltpFR	1	4	n/a	TUTU	1524	5	n/a	n/a	n/a	n/a	n/a	n/a
4293101	RECOG_RESP	n/a	LTP283	ltpFR	1	4	n/a	TUTU	1524	n/a	n/a	n/a	n/a	n/a	n/a	n/a
4295441	RECOG_CONF	n/a	LTP283	ltpFR	1	4	n/a	TUTU	1524	5	n/a	n/a	n/a	n/a	n/a	n/a
4297187	RECOG_TARGET	n/a	LTP283	ltpFR	1	4	1	GAZELLE	628	5	1	n/a	n/a	n/a	n/a	n/a
4297851	RECOG_RESP	n/a	LTP283	ltpFR	1	4	1	GAZELLE	628	n/a	1	n/a	n/a	n/a	n/a	n/a
4298981	RECOG_CONF	n/a	LTP283	ltpFR	1	4	1	GAZELLE	628	5	1	n/a	n/a	n/a	n/a	n/a
4300798	RECOG_TARGET	n/a	LTP283	ltpFR	1	4	0	LOAF	835	5	0	n/a	n/a	n/a	n/a	n/a
4301511	RECOG_RESP	n/a	LTP283	ltpFR	1	4	0	LOAF	835	n/a	0	n/a	n/a	n/a	n/a	n/a
4302451	RECOG_CONF	n/a	LTP283	ltpFR	1	4	0	LOAF	835	5	0	n/a	n/a	n/a	n/a	n/a
4304742	RECOG_TARGET	n/a	LTP283	ltpFR	1	4	1	CREVICE	405	5	0	n/a	n/a	n/a	n/a	n/a
4305591	RECOG_RESP	n/a	LTP283	ltpFR	1	4	1	CREVICE	405	n/a	0	n/a	n/a	n/a	n/a	n/a
4306571	RECOG_CONF	n/a	LTP283	ltpFR	1	4	1	CREVICE	405	5	0	n/a	n/a	n/a	n/a	n/a
4308586	RECOG_TARGET	n/a	LTP283	ltpFR	1	4	-1	BOAT	144	4	-1	n/a	n/a	n/a	n/a	n/a
4309666	RECOG_RESP	n/a	LTP283	ltpFR	1	4	-1	BOAT	144	n/a	-1	n/a	n/a	n/a	n/a	n/a
4310811	RECOG_CONF	n/a	LTP283	ltpFR	1	4	-1	BOAT	144	4	-1	n/a	n/a	n/a	n/a	n/a
4317438	REC_START	n/a	LTP283	ltpFR	1	5	n/a	n/a	n/a	n/a	n/a	n/a	n/a	n/a	n/a	n/a
4317473	RECOG_TARGET	n/a	LTP283	ltpFR	1	5	-1	LOFT	840	5	-1	n/a	n/a	n/a	n/a	n/a
4318238	RECOG_RESP	n/a	LTP283	ltpFR	1	5	-1	LOFT	840	n/a	-1	n/a	n/a	n/a	n/a	n/a
4318968	RECOG_CONF	n/a	LTP283	ltpFR	1	5	-1	LOFT	840	5	-1	n/a	n/a	n/a	n/a	n/a
4320717	RECOG_LURE	n/a	LTP283	ltpFR	1	5	n/a	WASHER	1592	2	n/a	n/a	n/a	n/a	n/a	n/a
4321993	RECOG_RESP	n/a	LTP283	ltpFR	1	5	n/a	WASHER	1592	n/a	n/a	n/a	n/a	n/a	n/a	n/a
4322898	RECOG_CONF	n/a	LTP283	ltpFR	1	5	n/a	WASHER	1592	2	n/a	n/a	n/a	n/a	n/a	n/a
4324595	RECOG_TARGET	n/a	LTP283	ltpFR	1	5	1	FISH	571	5	1	n/a	n/a	n/a	n/a	n/a
4325228	RECOG_RESP	n/a	LTP283	ltpFR	1	5	1	FISH	571	n/a	1	n/a	n/a	n/a	n/a	n/a
4326208	RECOG_CONF	n/a	LTP283	ltpFR	1	5	1	FISH	571	5	1	n/a	n/a	n/a	n/a	n/a
4328291	RECOG_TARGET	n/a	LTP283	ltpFR	1	5	0	SMOG	1330	5	1	n/a	n/a	n/a	n/a	n/a
4328968	RECOG_RESP	n/a	LTP283	ltpFR	1	5	0	SMOG	1330	n/a	1	n/a	n/a	n/a	n/a	n/a
4329678	RECOG_CONF	n/a	LTP283	ltpFR	1	5	0	SMOG	1330	5	1	n/a	n/a	n/a	n/a	n/a
4332002	RECOG_TARGET	n/a	LTP283	ltpFR	1	5	1	NEPHEW	942	5	1	n/a	n/a	n/a	n/a	n/a
4332658	RECOG_RESP	n/a	LTP283	ltpFR	1	5	1	NEPHEW	942	n/a	1	n/a	n/a	n/a	n/a	n/a
4333678	RECOG_CONF	n/a	LTP283	ltpFR	1	5	1	NEPHEW	942	5	1	n/a	n/a	n/a	n/a	n/a
4335679	RECOG_TARGET	n/a	LTP283	ltpFR	1	5	1	ATMOSPHERE	54	5	0	n/a	n/a	n/a	n/a	n/a
4336493	RECOG_RESP	n/a	LTP283	ltpFR	1	5	1	ATMOSPHERE	54	n/a	0	n/a	n/a	n/a	n/a	n/a
4337588	RECOG_CONF	n/a	LTP283	ltpFR	1	5	1	ATMOSPHERE	54	5	0	n/a	n/a	n/a	n/a	n/a
4339490	RECOG_TARGET	n/a	LTP283	ltpFR	1	5	1	LIZARD	834	5	1	n/a	n/a	n/a	n/a	n/a
4340103	RECOG_RESP	n/a	LTP283	ltpFR	1	5	1	LIZARD	834	n/a	1	n/a	n/a	n/a	n/a	n/a
4341498	RECOG_CONF	n/a	LTP283	ltpFR	1	5	1	LIZARD	834	5	1	n/a	n/a	n/a	n/a	n/a
4343218	RECOG_TARGET	n/a	LTP283	ltpFR	1	5	0	APPLE	33	5	0	n/a	n/a	n/a	n/a	n/a
4343863	RECOG_RESP	n/a	LTP283	ltpFR	1	5	0	APPLE	33	n/a	0	n/a	n/a	n/a	n/a	n/a
4344978	RECOG_CONF	n/a	LTP283	ltpFR	1	5	0	APPLE	33	5	0	n/a	n/a	n/a	n/a	n/a
4346996	RECOG_TARGET	n/a	LTP283	ltpFR	1	5	0	BLUEBERRY	140	4	0	n/a	n/a	n/a	n/a	n/a
4347573	RECOG_RESP_VV	n/a	LTP283	ltpFR	1	5	0	BLUEBERRY	140	n/a	0	n/a	n/a	n/a	n/a	n/a
4349243	RECOG_RESP_VV	n/a	LTP283	ltpFR	1	5	0	BLUEBERRY	140	n/a	0	n/a	n/a	n/a	n/a	n/a
4352408	RECOG_CONF	n/a	LTP283	ltpFR	1	5	0	BLUEBERRY	140	4	0	n/a	n/a	n/a	n/a	n/a
4353758	RECOG_RESP	n/a	LTP283	ltpFR	1	5	0	BLUEBERRY	140	n/a	0	n/a	n/a	n/a	n/a	n/a
4354717	RECOG_TARGET	n/a	LTP283	ltpFR	1	5	-1	RULER	1216	5	-1	n/a	n/a	n/a	n/a	n/a
4355958	RECOG_RESP	n/a	LTP283	ltpFR	1	5	-1	RULER	1216	n/a	-1	n/a	n/a	n/a	n/a	n/a
4357048	RECOG_CONF	n/a	LTP283	ltpFR	1	5	-1	RULER	1216	5	-1	n/a	n/a	n/a	n/a	n/a
4358928	RECOG_TARGET	n/a	LTP283	ltpFR	1	5	0	BANK	83	5	1	n/a	n/a	n/a	n/a	n/a
4359543	RECOG_RESP	n/a	LTP283	ltpFR	1	5	0	BANK	83	n/a	1	n/a	n/a	n/a	n/a	n/a
4360458	RECOG_CONF	n/a	LTP283	ltpFR	1	5	0	BANK	83	5	1	n/a	n/a	n/a	n/a	n/a
4362356	RECOG_TARGET	n/a	LTP283	ltpFR	1	5	1	PLASTER	1085	3	0	n/a	n/a	n/a	n/a	n/a
4363493	RECOG_RESP	n/a	LTP283	ltpFR	1	5	1	PLASTER	1085	n/a	0	n/a	n/a	n/a	n/a	n/a
4364778	RECOG_CONF	n/a	LTP283	ltpFR	1	5	1	PLASTER	1085	3	0	n/a	n/a	n/a	n/a	n/a
4366682	RECOG_TARGET	n/a	LTP283	ltpFR	1	5	0	BANQUET	86	5	1	n/a	n/a	n/a	n/a	n/a
4367293	RECOG_RESP	n/a	LTP283	ltpFR	1	5	0	BANQUET	86	n/a	1	n/a	n/a	n/a	n/a	n/a
4368428	RECOG_CONF	n/a	LTP283	ltpFR	1	5	0	BANQUET	86	5	1	n/a	n/a	n/a	n/a	n/a
4370228	RECOG_TARGET	n/a	LTP283	ltpFR	1	5	0	CATERPILLAR	259	5	0	n/a	n/a	n/a	n/a	n/a
4371003	RECOG_RESP	n/a	LTP283	ltpFR	1	5	0	CATERPILLAR	259	n/a	0	n/a	n/a	n/a	n/a	n/a
4372078	RECOG_CONF	n/a	LTP283	ltpFR	1	5	0	CATERPILLAR	259	5	0	n/a	n/a	n/a	n/a	n/a
4373922	RECOG_LURE	n/a	LTP283	ltpFR	1	5	n/a	FLEA	577	5	n/a	n/a	n/a	n/a	n/a	n/a
4374888	RECOG_RESP	n/a	LTP283	ltpFR	1	5	n/a	FLEA	577	n/a	n/a	n/a	n/a	n/a	n/a	n/a
4376098	RECOG_CONF	n/a	LTP283	ltpFR	1	5	n/a	FLEA	577	5	n/a	n/a	n/a	n/a	n/a	n/a
4378066	RECOG_TARGET	n/a	LTP283	ltpFR	1	5	1	TAR	1435	5	0	n/a	n/a	n/a	n/a	n/a
4378988	RECOG_RESP	n/a	LTP283	ltpFR	1	5	1	TAR	1435	n/a	0	n/a	n/a	n/a	n/a	n/a
4380188	RECOG_CONF	n/a	LTP283	ltpFR	1	5	1	TAR	1435	5	0	n/a	n/a	n/a	n/a	n/a
4381910	RECOG_TARGET	n/a	LTP283	ltpFR	1	5	0	SHORE	1291	5	1	n/a	n/a	n/a	n/a	n/a
4382533	RECOG_RESP	n/a	LTP283	ltpFR	1	5	0	SHORE	1291	n/a	1	n/a	n/a	n/a	n/a	n/a
4383528	RECOG_CONF	n/a	LTP283	ltpFR	1	5	0	SHORE	1291	5	1	n/a	n/a	n/a	n/a	n/a
4385687	RECOG_TARGET	n/a	LTP283	ltpFR	1	5	1	SHACK	1273	5	0	n/a	n/a	n/a	n/a	n/a
4386308	RECOG_RESP	n/a	LTP283	ltpFR	1	5	1	SHACK	1273	n/a	0	n/a	n/a	n/a	n/a	n/a
4387348	RECOG_CONF	n/a	LTP283	ltpFR	1	5	1	SHACK	1273	5	0	n/a	n/a	n/a	n/a	n/a
4389233	RECOG_LURE	n/a	LTP283	ltpFR	1	5	n/a	BUCKLE	185	4	n/a	n/a	n/a	n/a	n/a	n/a
4390143	RECOG_RESP	n/a	LTP283	ltpFR	1	5	n/a	BUCKLE	185	n/a	n/a	n/a	n/a	n/a	n/a	n/a
4391368	RECOG_CONF	n/a	LTP283	ltpFR	1	5	n/a	BUCKLE	185	4	n/a	n/a	n/a	n/a	n/a	n/a
4393310	RECOG_LURE	n/a	LTP283	ltpFR	1	5	n/a	DIAGRAM	456	3	n/a	n/a	n/a	n/a	n/a	n/a
4394543	RECOG_RESP	n/a	LTP283	ltpFR	1	5	n/a	DIAGRAM	456	n/a	n/a	n/a	n/a	n/a	n/a	n/a
4395498	RECOG_CONF	n/a	LTP283	ltpFR	1	5	n/a	DIAGRAM	456	3	n/a	n/a	n/a	n/a	n/a	n/a
4401931	REC_START	n/a	LTP283	ltpFR	1	6	n/a	n/a	n/a	n/a	n/a	n/a	n/a	n/a	n/a	n/a
4401964	RECOG_TARGET	n/a	LTP283	ltpFR	1	6	-1	HERB	704	5	-1	n/a	n/a	n/a	n/a	n/a
4402821	RECOG_RESP	n/a	LTP283	ltpFR	1	6	-1	HERB	704	n/a	-1	n/a	n/a	n/a	n/a	n/a
4403561	RECOG_CONF	n/a	LTP283	ltpFR	1	6	-1	HERB	704	5	-1	n/a	n/a	n/a	n/a	n/a
4405607	RECOG_LURE	n/a	LTP283	ltpFR	1	6	n/a	BACKBONE	66	4	n/a	n/a	n/a	n/a	n/a	n/a
4406856	RECOG_RESP	n/a	LTP283	ltpFR	1	6	n/a	BACKBONE	66	n/a	n/a	n/a	n/a	n/a	n/a	n/a
4408581	RECOG_CONF	n/a	LTP283	ltpFR	1	6	n/a	BACKBONE	66	4	n/a	n/a	n/a	n/a	n/a	n/a
4410318	RECOG_TARGET	n/a	LTP283	ltpFR	1	6	0	KANGAROO	768	4	1	n/a	n/a	n/a	n/a	n/a
4411141	RECOG_RESP	n/a	LTP283	ltpFR	1	6	0	KANGAROO	768	n/a	1	n/a	n/a	n/a	n/a	n/a
4412501	RECOG_CONF	n/a	LTP283	ltpFR	1	6	0	KANGAROO	768	4	1	n/a	n/a	n/a	n/a	n/a
4414412	RECOG_TARGET	n/a	LTP283	ltpFR	1	6	0	PEBBLE	1035	5	0	n/a	n/a	n/a	n/a	n/a
4415086	RECOG_RESP	n/a	LTP283	ltpFR	1	6	0	PEBBLE	1035	n/a	0	n/a	n/a	n/a	n/a	n/a
4416091	RECOG_CONF	n/a	LTP283	ltpFR	1	6	0	PEBBLE	1035	5	0	n/a	n/a	n/a	n/a	n/a
4417990	RECOG_LURE	n/a	LTP283	ltpFR	1	6	n/a	OATS	968	3	n/a	n/a	n/a	n/a	n/a	n/a
4419601	RECOG_RESP	n/a	LTP283	ltpFR	1	6	n/a	OATS	968	n/a	n/a	n/a	n/a	n/a	n/a	n/a
4420841	RECOG_CONF	n/a	LTP283	ltpFR	1	6	n/a	OATS	968	3	n/a	n/a	n/a	n/a	n/a	n/a
4422715	RECOG_TARGET	n/a	LTP283	ltpFR	1	6	-1	LIVER	833	5	-1	n/a	n/a	n/a	n/a	n/a
4423446	RECOG_RESP	n/a	LTP283	ltpFR	1	6	-1	LIVER	833	n/a	-1	n/a	n/a	n/a	n/a	n/a
