onset	duration	trial_type	sample	stim_file	subject	experiment	session	trial	task	item_name	item_num	recog_conf	resp	color_b	color_g	color_r	case	font
237.084	n/a	SESS_START	118542	n/a	LTP195	ltpFR	5	n/a	n/a	n/a	n/a	5	n/a	n/a	n/a	n/a	n/a	n/a
277.192	n/a	WORD	138596	wordpools/wasnorm_wordpool_less_exclusions.txt	LTP195	ltpFR	5	1	0	CRAB	397	1	0	0	0.5869140625	0.422607421875	lower	../fonts/amplitud.ttf
281.274	n/a	WORD	140637	wordpools/wasnorm_wordpool_less_exclusions.txt	LTP195	ltpFR	5	1	0	TUNA	1518	n/a	0	0	0.5869140625	0.422607421875	lower	../fonts/amplitud.ttf
285.19	n/a	WORD	142595	wordpools/wasnorm_wordpool_less_exclusions.txt	LTP195	ltpFR	5	1	0	JUPITER	765	n/a	1	0	0.5869140625	0.422607421875	lower	../fonts/amplitud.ttf
289.354	n/a	WORD	144677	wordpools/wasnorm_wordpool_less_exclusions.txt	LTP195	ltpFR	5	1	0	BOTTLE	153	n/a	0	0	0.5869140625	0.422607421875	lower	../fonts/amplitud.ttf
293.37	n/a	WORD	146685	wordpools/wasnorm_wordpool_less_exclusions.txt	LTP195	ltpFR	5	1	0	FACTORY	548	n/a	1	0	0.5869140625	0.422607421875	lower	../fonts/amplitud.ttf
297.252	n/a	WORD	148626	wordpools/wasnorm_wordpool_less_exclusions.txt	LTP195	ltpFR	5	1	0	EARTH	515	n/a	1	0	0.5869140625	0.422607421875	lower	../fonts/amplitud.ttf
301.318	n/a	WORD	150659	wordpools/wasnorm_wordpool_less_exclusions.txt	LTP195	ltpFR	5	1	1	DIRECTOR	471	n/a	1	1	0.412841796875	0.57763671875	upper	../fonts/zerothre.ttf
305.216	n/a	WORD	152608	wordpools/wasnorm_wordpool_less_exclusions.txt	LTP195	ltpFR	5	1	1	POPCORN	1104	n/a	0	1	0.412841796875	0.57763671875	upper	../fonts/zerothre.ttf
309.13	n/a	WORD	154565	wordpools/wasnorm_wordpool_less_exclusions.txt	LTP195	ltpFR	5	1	1	MOAT	903	n/a	0	1	0.412841796875	0.57763671875	upper	../fonts/zerothre.ttf
313.046	n/a	WORD	156523	wordpools/wasnorm_wordpool_less_exclusions.txt	LTP195	ltpFR	5	1	1	HOSE	720	n/a	0	1	0.412841796875	0.57763671875	upper	../fonts/zerothre.ttf
316.928	n/a	WORD	158464	wordpools/wasnorm_wordpool_less_exclusions.txt	LTP195	ltpFR	5	1	0	ELECTRICIAN	521	n/a	1	0	0.5869140625	0.422607421875	lower	../fonts/amplitud.ttf
321.01	n/a	WORD	160505	wordpools/wasnorm_wordpool_less_exclusions.txt	LTP195	ltpFR	5	1	0	PAW	1029	n/a	0	0	0.5869140625	0.422607421875	lower	../fonts/amplitud.ttf
325.226	n/a	WORD	162613	wordpools/wasnorm_wordpool_less_exclusions.txt	LTP195	ltpFR	5	1	1	SEAL	1262	n/a	1	1	0.412841796875	0.57763671875	upper	../fonts/zerothre.ttf
329.212	n/a	WORD	164606	wordpools/wasnorm_wordpool_less_exclusions.txt	LTP195	ltpFR	5	1	1	MAJOR	859	n/a	0	1	0.412841796875	0.57763671875	upper	../fonts/zerothre.ttf
333.09	n/a	WORD	166545	wordpools/wasnorm_wordpool_less_exclusions.txt	LTP195	ltpFR	5	1	1	PALACE	1006	n/a	1	1	0.412841796875	0.57763671875	upper	../fonts/zerothre.ttf
337.02	n/a	WORD	168510	wordpools/wasnorm_wordpool_less_exclusions.txt	LTP195	ltpFR	5	1	1	FOUNTAIN	597	n/a	1	1	0.412841796875	0.57763671875	upper	../fonts/zerothre.ttf
342.76	n/a	REC_START	171380	n/a	LTP195	ltpFR	5	1	n/a	n/a	n/a	n/a	n/a	n/a	n/a	n/a	n/a	n/a
344.864	n/a	REC_WORD	172432	wordpools/wasnorm_wordpool_less_exclusions.txt	LTP195	ltpFR	5	1	1	FOUNTAIN	597	n/a	1	n/a	n/a	n/a	n/a	n/a
346.346	n/a	REC_WORD	173173	wordpools/wasnorm_wordpool_less_exclusions.txt	LTP195	ltpFR	5	1	1	HOSE	720	n/a	0	n/a	n/a	n/a	n/a	n/a
347.654	n/a	REC_WORD	173827	wordpools/wasnorm_wordpool_less_exclusions.txt	LTP195	ltpFR	5	1	1	MOAT	903	n/a	0	n/a	n/a	n/a	n/a	n/a
349.23	n/a	REC_WORD	174615	wordpools/wasnorm_wordpool_less_exclusions.txt	LTP195	ltpFR	5	1	1	PALACE	1006	n/a	1	n/a	n/a	n/a	n/a	n/a
352.868	n/a	REC_WORD	176434	wordpools/wasnorm_wordpool_less_exclusions.txt	LTP195	ltpFR	5	1	1	MAJOR	859	n/a	0	n/a	n/a	n/a	n/a	n/a
354.194	n/a	REC_WORD	177097	wordpools/wasnorm_wordpool_less_exclusions.txt	LTP195	ltpFR	5	1	1	DIRECTOR	471	n/a	1	n/a	n/a	n/a	n/a	n/a
355.536	n/a	REC_WORD	177768	wordpools/wasnorm_wordpool_less_exclusions.txt	LTP195	ltpFR	5	1	0	BOTTLE	153	n/a	0	n/a	n/a	n/a	n/a	n/a
356.914	n/a	REC_WORD	178457	wordpools/wasnorm_wordpool_less_exclusions.txt	LTP195	ltpFR	5	1	0	JUPITER	765	n/a	1	n/a	n/a	n/a	n/a	n/a
358.13	n/a	REC_WORD	179065	wordpools/wasnorm_wordpool_less_exclusions.txt	LTP195	ltpFR	5	1	0	EARTH	515	n/a	1	n/a	n/a	n/a	n/a	n/a
359.252	n/a	REC_WORD	179626	wordpools/wasnorm_wordpool_less_exclusions.txt	LTP195	ltpFR	5	1	0	PAW	1029	n/a	0	n/a	n/a	n/a	n/a	n/a
361.308	n/a	REC_WORD	180654	wordpools/wasnorm_wordpool_less_exclusions.txt	LTP195	ltpFR	5	1	0	TUNA	1518	n/a	0	n/a	n/a	n/a	n/a	n/a
362.784	n/a	REC_WORD	181392	wordpools/wasnorm_wordpool_less_exclusions.txt	LTP195	ltpFR	5	1	0	CRAB	397	n/a	0	n/a	n/a	n/a	n/a	n/a
368.022	n/a	REC_WORD	184011	wordpools/wasnorm_wordpool_less_exclusions.txt	LTP195	ltpFR	5	1	0	ELECTRICIAN	521	n/a	1	n/a	n/a	n/a	n/a	n/a
372.234	n/a	REC_WORD	186117	wordpools/wasnorm_wordpool_less_exclusions.txt	LTP195	ltpFR	5	1	1	SEAL	1262	n/a	1	n/a	n/a	n/a	n/a	n/a
406.028	n/a	REC_WORD	203014	wordpools/wasnorm_wordpool_less_exclusions.txt	LTP195	ltpFR	5	1	n/a	MOSS	918	n/a	n/a	n/a	n/a	n/a	n/a	n/a
427.582	n/a	WORD	213791	wordpools/wasnorm_wordpool_less_exclusions.txt	LTP195	ltpFR	5	2	1	CUBE	420	n/a	0	1	0.412841796875	0.57763671875	upper	../fonts/zerothre.ttf
431.786	n/a	WORD	215893	wordpools/wasnorm_wordpool_less_exclusions.txt	LTP195	ltpFR	5	2	1	WOMAN	1620	n/a	1	1	0.412841796875	0.57763671875	upper	../fonts/zerothre.ttf
435.85	n/a	WORD	217925	wordpools/wasnorm_wordpool_less_exclusions.txt	LTP195	ltpFR	5	2	1	BISON	131	n/a	1	1	0.412841796875	0.57763671875	upper	../fonts/zerothre.ttf
439.83	n/a	WORD	219915	wordpools/wasnorm_wordpool_less_exclusions.txt	LTP195	ltpFR	5	2	1	CHIMPANZEE	302	n/a	1	1	0.412841796875	0.57763671875	upper	../fonts/zerothre.ttf
443.828	n/a	WORD	221914	wordpools/wasnorm_wordpool_less_exclusions.txt	LTP195	ltpFR	5	2	0	DUSTPAN	509	n/a	0	0	0.5869140625	0.422607421875	lower	../fonts/amplitud.ttf
447.778	n/a	WORD	223889	wordpools/wasnorm_wordpool_less_exclusions.txt	LTP195	ltpFR	5	2	0	PAINTER	1004	n/a	1	0	0.5869140625	0.422607421875	lower	../fonts/amplitud.ttf
451.776	n/a	WORD	225888	wordpools/wasnorm_wordpool_less_exclusions.txt	LTP195	ltpFR	5	2	0	CANVAS	234	n/a	0	0	0.5869140625	0.422607421875	lower	../fonts/amplitud.ttf
455.824	n/a	WORD	227912	wordpools/wasnorm_wordpool_less_exclusions.txt	LTP195	ltpFR	5	2	0	ICE	730	n/a	0	0	0.5869140625	0.422607421875	lower	../fonts/amplitud.ttf
459.946	n/a	WORD	229973	wordpools/wasnorm_wordpool_less_exclusions.txt	LTP195	ltpFR	5	2	0	ITEM	746	n/a	0	0	0.5869140625	0.422607421875	lower	../fonts/amplitud.ttf
463.972	n/a	WORD	231986	wordpools/wasnorm_wordpool_less_exclusions.txt	LTP195	ltpFR	5	2	0	TERMITE	1451	n/a	0	0	0.5869140625	0.422607421875	lower	../fonts/amplitud.ttf
468.156	n/a	WORD	234078	wordpools/wasnorm_wordpool_less_exclusions.txt	LTP195	ltpFR	5	2	1	MAN	862	n/a	1	1	0.412841796875	0.57763671875	upper	../fonts/zerothre.ttf
472.106	n/a	WORD	236053	wordpools/wasnorm_wordpool_less_exclusions.txt	LTP195	ltpFR	5	2	1	ENGINE	535	n/a	0	1	0.412841796875	0.57763671875	upper	../fonts/zerothre.ttf
476.018	n/a	WORD	238009	wordpools/wasnorm_wordpool_less_exclusions.txt	LTP195	ltpFR	5	2	1	TRUCK	1512	n/a	0	1	0.412841796875	0.57763671875	upper	../fonts/zerothre.ttf
480.072	n/a	WORD	240036	wordpools/wasnorm_wordpool_less_exclusions.txt	LTP195	ltpFR	5	2	1	COLUMN	350	n/a	0	1	0.412841796875	0.57763671875	upper	../fonts/zerothre.ttf
484.266	n/a	WORD	242133	wordpools/wasnorm_wordpool_less_exclusions.txt	LTP195	ltpFR	5	2	0	TOASTER	1472	n/a	0	0	0.5869140625	0.422607421875	lower	../fonts/amplitud.ttf
488.298	n/a	WORD	244149	wordpools/wasnorm_wordpool_less_exclusions.txt	LTP195	ltpFR	5	2	0	SCALLOP	1242	n/a	0	0	0.5869140625	0.422607421875	lower	../fonts/amplitud.ttf
494.088	n/a	REC_START	247044	n/a	LTP195	ltpFR	5	2	n/a	n/a	n/a	n/a	n/a	n/a	n/a	n/a	n/a	n/a
494.512	n/a	REC_WORD	247256	wordpools/wasnorm_wordpool_less_exclusions.txt	LTP195	ltpFR	5	2	0	SCALLOP	1242	n/a	0	n/a	n/a	n/a	n/a	n/a
496.512	n/a	REC_WORD	248256	wordpools/wasnorm_wordpool_less_exclusions.txt	LTP195	ltpFR	5	2	1	COLUMN	350	n/a	0	n/a	n/a	n/a	n/a	n/a
497.904	n/a	REC_WORD	248952	wordpools/wasnorm_wordpool_less_exclusions.txt	LTP195	ltpFR	5	2	1	TRUCK	1512	n/a	0	n/a	n/a	n/a	n/a	n/a
498.792	n/a	REC_WORD	249396	wordpools/wasnorm_wordpool_less_exclusions.txt	LTP195	ltpFR	5	2	1	ENGINE	535	n/a	0	n/a	n/a	n/a	n/a	n/a
500.414	n/a	REC_WORD	250207	wordpools/wasnorm_wordpool_less_exclusions.txt	LTP195	ltpFR	5	2	1	MAN	862	n/a	1	n/a	n/a	n/a	n/a	n/a
501.376	n/a	REC_WORD	250688	wordpools/wasnorm_wordpool_less_exclusions.txt	LTP195	ltpFR	5	2	1	WOMAN	1620	n/a	1	n/a	n/a	n/a	n/a	n/a
502.434	n/a	REC_WORD	251217	wordpools/wasnorm_wordpool_less_exclusions.txt	LTP195	ltpFR	5	2	1	BISON	131	n/a	1	n/a	n/a	n/a	n/a	n/a
504.026	n/a	REC_WORD	252013	wordpools/wasnorm_wordpool_less_exclusions.txt	LTP195	ltpFR	5	2	0	BOTTLE	153	n/a	0	n/a	n/a	n/a	n/a	n/a
505.154	n/a	REC_WORD	252577	wordpools/wasnorm_wordpool_less_exclusions.txt	LTP195	ltpFR	5	2	0	ICE	730	n/a	0	n/a	n/a	n/a	n/a	n/a
506.136	n/a	REC_WORD	253068	wordpools/wasnorm_wordpool_less_exclusions.txt	LTP195	ltpFR	5	2	0	ITEM	746	n/a	0	n/a	n/a	n/a	n/a	n/a
516.358	n/a	REC_WORD	258179	wordpools/wasnorm_wordpool_less_exclusions.txt	LTP195	ltpFR	5	2	1	CUBE	420	n/a	0	n/a	n/a	n/a	n/a	n/a
545.758	n/a	REC_WORD	272879	wordpools/wasnorm_wordpool_less_exclusions.txt	LTP195	ltpFR	5	2	0	PAINTER	1004	n/a	1	n/a	n/a	n/a	n/a	n/a
546.926	n/a	REC_WORD	273463	wordpools/wasnorm_wordpool_less_exclusions.txt	LTP195	ltpFR	5	2	0	CANVAS	234	n/a	0	n/a	n/a	n/a	n/a	n/a
585.89	n/a	WORD	292945	wordpools/wasnorm_wordpool_less_exclusions.txt	LTP195	ltpFR	5	3	0	DRINK	498	n/a	0	0	0.5869140625	0.422607421875	lower	../fonts/amplitud.ttf
589.82	n/a	WORD	294910	wordpools/wasnorm_wordpool_less_exclusions.txt	LTP195	ltpFR	5	3	0	RAG	1160	n/a	0	0	0.5869140625	0.422607421875	lower	../fonts/amplitud.ttf
593.92	n/a	WORD	296960	wordpools/wasnorm_wordpool_less_exclusions.txt	LTP195	ltpFR	5	3	0	TRICYCLE	1506	n/a	1	0	0.5869140625	0.422607421875	lower	../fonts/amplitud.ttf
598.134	n/a	WORD	299067	wordpools/wasnorm_wordpool_less_exclusions.txt	LTP195	ltpFR	5	3	0	CARRIAGE	248	n/a	1	0	0.5869140625	0.422607421875	lower	../fonts/amplitud.ttf
602.15	n/a	WORD	301075	wordpools/wasnorm_wordpool_less_exclusions.txt	LTP195	ltpFR	5	3	0	INSECT	740	n/a	0	0	0.5869140625	0.422607421875	lower	../fonts/amplitud.ttf
606.166	n/a	WORD	303083	wordpools/wasnorm_wordpool_less_exclusions.txt	LTP195	ltpFR	5	3	0	BUYER	208	n/a	1	0	0.5869140625	0.422607421875	lower	../fonts/amplitud.ttf
610.18	n/a	WORD	305090	wordpools/wasnorm_wordpool_less_exclusions.txt	LTP195	ltpFR	5	3	0	TOWEL	1489	n/a	1	0	0.5869140625	0.422607421875	lower	../fonts/amplitud.ttf
614.062	n/a	WORD	307031	wordpools/wasnorm_wordpool_less_exclusions.txt	LTP195	ltpFR	5	3	0	WINE	1613	n/a	0	0	0.5869140625	0.422607421875	lower	../fonts/amplitud.ttf
618.162	n/a	WORD	309081	wordpools/wasnorm_wordpool_less_exclusions.txt	LTP195	ltpFR	5	3	0	OZONE	996	n/a	1	0	0.5869140625	0.422607421875	lower	../fonts/amplitud.ttf
622.31	n/a	WORD	311155	wordpools/wasnorm_wordpool_less_exclusions.txt	LTP195	ltpFR	5	3	0	UMBRELLA	1534	n/a	0	0	0.5869140625	0.422607421875	lower	../fonts/amplitud.ttf
626.526	n/a	WORD	313263	wordpools/wasnorm_wordpool_less_exclusions.txt	LTP195	ltpFR	5	3	0	TORCH	1484	n/a	0	0	0.5869140625	0.422607421875	lower	../fonts/amplitud.ttf
630.664	n/a	WORD	315332	wordpools/wasnorm_wordpool_less_exclusions.txt	LTP195	ltpFR	5	3	0	FIREPLACE	570	n/a	1	0	0.5869140625	0.422607421875	lower	../fonts/amplitud.ttf
634.774	n/a	WORD	317387	wordpools/wasnorm_wordpool_less_exclusions.txt	LTP195	ltpFR	5	3	0	STAPLER	1372	n/a	0	0	0.5869140625	0.422607421875	lower	../fonts/amplitud.ttf
638.69	n/a	WORD	319345	wordpools/wasnorm_wordpool_less_exclusions.txt	LTP195	ltpFR	5	3	0	CHECKERS	285	n/a	0	0	0.5869140625	0.422607421875	lower	../fonts/amplitud.ttf
642.588	n/a	WORD	321294	wordpools/wasnorm_wordpool_less_exclusions.txt	LTP195	ltpFR	5	3	0	FOOTBALL	591	n/a	0	0	0.5869140625	0.422607421875	lower	../fonts/amplitud.ttf
646.72	n/a	WORD	323360	wordpools/wasnorm_wordpool_less_exclusions.txt	LTP195	ltpFR	5	3	0	HONEY	713	n/a	1	0	0.5869140625	0.422607421875	lower	../fonts/amplitud.ttf
652.644	n/a	REC_START	326322	n/a	LTP195	ltpFR	5	3	n/a	n/a	n/a	n/a	n/a	n/a	n/a	n/a	n/a	n/a
653.486	n/a	REC_WORD	326743	wordpools/wasnorm_wordpool_less_exclusions.txt	LTP195	ltpFR	5	3	0	HONEY	713	n/a	1	n/a	n/a	n/a	n/a	n/a
655.886	n/a	REC_WORD	327943	wordpools/wasnorm_wordpool_less_exclusions.txt	LTP195	ltpFR	5	3	0	CHECKERS	285	n/a	0	n/a	n/a	n/a	n/a	n/a
656.944	n/a	REC_WORD	328472	wordpools/wasnorm_wordpool_less_exclusions.txt	LTP195	ltpFR	5	3	0	FOOTBALL	591	n/a	0	n/a	n/a	n/a	n/a	n/a
658.256	n/a	REC_WORD	329128	wordpools/wasnorm_wordpool_less_exclusions.txt	LTP195	ltpFR	5	3	0	TRICYCLE	1506	n/a	1	n/a	n/a	n/a	n/a	n/a
659.394	n/a	REC_WORD	329697	wordpools/wasnorm_wordpool_less_exclusions.txt	LTP195	ltpFR	5	3	0	CARRIAGE	248	n/a	1	n/a	n/a	n/a	n/a	n/a
660.492	n/a	REC_WORD	330246	wordpools/wasnorm_wordpool_less_exclusions.txt	LTP195	ltpFR	5	3	0	BUYER	208	n/a	1	n/a	n/a	n/a	n/a	n/a
661.454	n/a	REC_WORD	330727	wordpools/wasnorm_wordpool_less_exclusions.txt	LTP195	ltpFR	5	3	0	OZONE	996	n/a	1	n/a	n/a	n/a	n/a	n/a
662.562	n/a	REC_WORD	331281	wordpools/wasnorm_wordpool_less_exclusions.txt	LTP195	ltpFR	5	3	0	UMBRELLA	1534	n/a	0	n/a	n/a	n/a	n/a	n/a
665.614	n/a	REC_WORD	332807	wordpools/wasnorm_wordpool_less_exclusions.txt	LTP195	ltpFR	5	3	0	DRINK	498	n/a	0	n/a	n/a	n/a	n/a	n/a
666.638	n/a	REC_WORD	333319	wordpools/wasnorm_wordpool_less_exclusions.txt	LTP195	ltpFR	5	3	0	WINE	1613	n/a	0	n/a	n/a	n/a	n/a	n/a
667.934	n/a	REC_WORD	333967	wordpools/wasnorm_wordpool_less_exclusions.txt	LTP195	ltpFR	5	3	0	RAG	1160	n/a	0	n/a	n/a	n/a	n/a	n/a
669.242	n/a	REC_WORD	334621	wordpools/wasnorm_wordpool_less_exclusions.txt	LTP195	ltpFR	5	3	0	TOWEL	1489	n/a	1	n/a	n/a	n/a	n/a	n/a
683.71	n/a	REC_WORD	341855	wordpools/wasnorm_wordpool_less_exclusions.txt	LTP195	ltpFR	5	3	0	TORCH	1484	n/a	0	n/a	n/a	n/a	n/a	n/a
684.354	n/a	REC_WORD	342177	wordpools/wasnorm_wordpool_less_exclusions.txt	LTP195	ltpFR	5	3	0	FIREPLACE	570	n/a	1	n/a	n/a	n/a	n/a	n/a
685.354	n/a	REC_WORD_VV	342677	wordpools/wasnorm_wordpool_less_exclusions.txt	LTP195	ltpFR	5	3	n/a	<>	-1	n/a	n/a	n/a	n/a	n/a	n/a	n/a
733.804	n/a	WORD	366902	wordpools/wasnorm_wordpool_less_exclusions.txt	LTP195	ltpFR	5	4	0	RIBBON	1189	n/a	0	0	0.5869140625	0.422607421875	lower	../fonts/amplitud.ttf
737.768	n/a	WORD	368884	wordpools/wasnorm_wordpool_less_exclusions.txt	LTP195	ltpFR	5	4	0	SHED	1277	n/a	1	0	0.5869140625	0.422607421875	lower	../fonts/amplitud.ttf
741.87	n/a	WORD	370935	wordpools/wasnorm_wordpool_less_exclusions.txt	LTP195	ltpFR	5	4	0	BAIT	70	n/a	0	0	0.5869140625	0.422607421875	lower	../fonts/amplitud.ttf
746.016	n/a	WORD	373008	wordpools/wasnorm_wordpool_less_exclusions.txt	LTP195	ltpFR	5	4	0	OCTOPUS	971	n/a	1	0	0.5869140625	0.422607421875	lower	../fonts/amplitud.ttf
750.15	n/a	WORD	375075	wordpools/wasnorm_wordpool_less_exclusions.txt	LTP195	ltpFR	5	4	1	TIE	1466	n/a	0	1	0.412841796875	0.57763671875	upper	../fonts/zerothre.ttf
754.356	n/a	WORD	377178	wordpools/wasnorm_wordpool_less_exclusions.txt	LTP195	ltpFR	5	4	1	SPONGE	1355	n/a	0	1	0.412841796875	0.57763671875	upper	../fonts/zerothre.ttf
758.548	n/a	WORD	379274	wordpools/wasnorm_wordpool_less_exclusions.txt	LTP195	ltpFR	5	4	1	SHOWER	1296	n/a	1	1	0.412841796875	0.57763671875	upper	../fonts/zerothre.ttf
762.746	n/a	WORD	381373	wordpools/wasnorm_wordpool_less_exclusions.txt	LTP195	ltpFR	5	4	1	SALOON	1228	n/a	1	1	0.412841796875	0.57763671875	upper	../fonts/zerothre.ttf
766.646	n/a	WORD	383323	wordpools/wasnorm_wordpool_less_exclusions.txt	LTP195	ltpFR	5	4	1	ELF	525	n/a	1	1	0.412841796875	0.57763671875	upper	../fonts/zerothre.ttf
770.51	n/a	WORD	385255	wordpools/wasnorm_wordpool_less_exclusions.txt	LTP195	ltpFR	5	4	1	ASSOCIATE	49	n/a	1	1	0.412841796875	0.57763671875	upper	../fonts/zerothre.ttf
774.358	n/a	WORD	387179	wordpools/wasnorm_wordpool_less_exclusions.txt	LTP195	ltpFR	5	4	0	CORK	380	n/a	0	0	0.5869140625	0.422607421875	lower	../fonts/amplitud.ttf
778.222	n/a	WORD	389111	wordpools/wasnorm_wordpool_less_exclusions.txt	LTP195	ltpFR	5	4	0	TECHNICIAN	1443	n/a	1	0	0.5869140625	0.422607421875	lower	../fonts/amplitud.ttf
782.39	n/a	WORD	391195	wordpools/wasnorm_wordpool_less_exclusions.txt	LTP195	ltpFR	5	4	0	PLANET	1082	n/a	1	0	0.5869140625	0.422607421875	lower	../fonts/amplitud.ttf
786.304	n/a	WORD	393152	wordpools/wasnorm_wordpool_less_exclusions.txt	LTP195	ltpFR	5	4	0	FIN	566	n/a	1	0	0.5869140625	0.422607421875	lower	../fonts/amplitud.ttf
790.472	n/a	WORD	395236	wordpools/wasnorm_wordpool_less_exclusions.txt	LTP195	ltpFR	5	4	1	COMPANION	357	n/a	1	1	0.412841796875	0.57763671875	upper	../fonts/zerothre.ttf
794.334	n/a	WORD	397167	wordpools/wasnorm_wordpool_less_exclusions.txt	LTP195	ltpFR	5	4	1	NIGHTGOWN	953	n/a	0	1	0.412841796875	0.57763671875	upper	../fonts/zerothre.ttf
800.174	n/a	REC_START	400087	n/a	LTP195	ltpFR	5	4	n/a	n/a	n/a	n/a	n/a	n/a	n/a	n/a	n/a	n/a
800.594	n/a	REC_WORD	400297	wordpools/wasnorm_wordpool_less_exclusions.txt	LTP195	ltpFR	5	4	1	NIGHTGOWN	953	n/a	0	n/a	n/a	n/a	n/a	n/a
801.77	n/a	REC_WORD	400885	wordpools/wasnorm_wordpool_less_exclusions.txt	LTP195	ltpFR	5	4	1	COMPANION	357	n/a	1	n/a	n/a	n/a	n/a	n/a
803.238	n/a	REC_WORD	401619	wordpools/wasnorm_wordpool_less_exclusions.txt	LTP195	ltpFR	5	4	1	ELF	525	n/a	1	n/a	n/a	n/a	n/a	n/a
804.3	n/a	REC_WORD	402150	wordpools/wasnorm_wordpool_less_exclusions.txt	LTP195	ltpFR	5	4	1	ASSOCIATE	49	n/a	1	n/a	n/a	n/a	n/a	n/a
806.964	n/a	REC_WORD	403482	wordpools/wasnorm_wordpool_less_exclusions.txt	LTP195	ltpFR	5	4	0	FIN	566	n/a	1	n/a	n/a	n/a	n/a	n/a
808.632	n/a	REC_WORD	404316	wordpools/wasnorm_wordpool_less_exclusions.txt	LTP195	ltpFR	5	4	0	PLANET	1082	n/a	1	n/a	n/a	n/a	n/a	n/a
811.036	n/a	REC_WORD	405518	wordpools/wasnorm_wordpool_less_exclusions.txt	LTP195	ltpFR	5	4	0	SHED	1277	n/a	1	n/a	n/a	n/a	n/a	n/a
812.686	n/a	REC_WORD	406343	wordpools/wasnorm_wordpool_less_exclusions.txt	LTP195	ltpFR	5	4	0	CORK	380	n/a	0	n/a	n/a	n/a	n/a	n/a
814.044	n/a	REC_WORD	407022	wordpools/wasnorm_wordpool_less_exclusions.txt	LTP195	ltpFR	5	4	0	RIBBON	1189	n/a	0	n/a	n/a	n/a	n/a	n/a
831.296	n/a	REC_WORD	415648	wordpools/wasnorm_wordpool_less_exclusions.txt	LTP195	ltpFR	5	4	1	SALOON	1228	n/a	1	n/a	n/a	n/a	n/a	n/a
860.614	n/a	REC_WORD	430307	wordpools/wasnorm_wordpool_less_exclusions.txt	LTP195	ltpFR	5	4	1	SHOWER	1296	n/a	1	n/a	n/a	n/a	n/a	n/a
861.912	n/a	REC_WORD	430956	wordpools/wasnorm_wordpool_less_exclusions.txt	LTP195	ltpFR	5	4	1	SPONGE	1355	n/a	0	n/a	n/a	n/a	n/a	n/a
878.624	n/a	WORD	439312	wordpools/wasnorm_wordpool_less_exclusions.txt	LTP195	ltpFR	5	5	0	WINGS	1614	n/a	0	0	0.5869140625	0.422607421875	lower	../fonts/amplitud.ttf
882.69	n/a	WORD	441345	wordpools/wasnorm_wordpool_less_exclusions.txt	LTP195	ltpFR	5	5	0	PEACH	1031	n/a	0	0	0.5869140625	0.422607421875	lower	../fonts/amplitud.ttf
886.688	n/a	WORD	443344	wordpools/wasnorm_wordpool_less_exclusions.txt	LTP195	ltpFR	5	5	0	CHERRY	293	n/a	0	0	0.5869140625	0.422607421875	lower	../fonts/amplitud.ttf
890.84	n/a	WORD	445420	wordpools/wasnorm_wordpool_less_exclusions.txt	LTP195	ltpFR	5	5	0	WALL	1582	n/a	1	0	0.5869140625	0.422607421875	lower	../fonts/amplitud.ttf
895.052	n/a	WORD	447526	wordpools/wasnorm_wordpool_less_exclusions.txt	LTP195	ltpFR	5	5	0	SAUCER	1237	n/a	0	0	0.5869140625	0.422607421875	lower	../fonts/amplitud.ttf
899.084	n/a	WORD	449542	wordpools/wasnorm_wordpool_less_exclusions.txt	LTP195	ltpFR	5	5	0	GLASS	639	n/a	0	0	0.5869140625	0.422607421875	lower	../fonts/amplitud.ttf
903.0	n/a	WORD	451500	wordpools/wasnorm_wordpool_less_exclusions.txt	LTP195	ltpFR	5	5	0	SWAMP	1416	n/a	1	0	0.5869140625	0.422607421875	lower	../fonts/amplitud.ttf
906.932	n/a	WORD	453466	wordpools/wasnorm_wordpool_less_exclusions.txt	LTP195	ltpFR	5	5	0	FAMILY	550	n/a	1	0	0.5869140625	0.422607421875	lower	../fonts/amplitud.ttf
910.9	n/a	WORD	455450	wordpools/wasnorm_wordpool_less_exclusions.txt	LTP195	ltpFR	5	5	0	LEG	809	n/a	0	0	0.5869140625	0.422607421875	lower	../fonts/amplitud.ttf
914.762	n/a	WORD	457381	wordpools/wasnorm_wordpool_less_exclusions.txt	LTP195	ltpFR	5	5	0	BAY	102	n/a	1	0	0.5869140625	0.422607421875	lower	../fonts/amplitud.ttf
918.878	n/a	WORD	459439	wordpools/wasnorm_wordpool_less_exclusions.txt	LTP195	ltpFR	5	5	0	APARTMENT	30	n/a	1	0	0.5869140625	0.422607421875	lower	../fonts/amplitud.ttf
922.928	n/a	WORD	461464	wordpools/wasnorm_wordpool_less_exclusions.txt	LTP195	ltpFR	5	5	0	SPRINKLE	1359	n/a	0	0	0.5869140625	0.422607421875	lower	../fonts/amplitud.ttf
927.08	n/a	WORD	463540	wordpools/wasnorm_wordpool_less_exclusions.txt	LTP195	ltpFR	5	5	0	DUNE	506	n/a	0	0	0.5869140625	0.422607421875	lower	../fonts/amplitud.ttf
931.192	n/a	WORD	465596	wordpools/wasnorm_wordpool_less_exclusions.txt	LTP195	ltpFR	5	5	0	SHOULDER	1294	n/a	1	0	0.5869140625	0.422607421875	lower	../fonts/amplitud.ttf
935.33	n/a	WORD	467665	wordpools/wasnorm_wordpool_less_exclusions.txt	LTP195	ltpFR	5	5	0	BUTTERFLY	206	n/a	0	0	0.5869140625	0.422607421875	lower	../fonts/amplitud.ttf
939.242	n/a	WORD	469621	wordpools/wasnorm_wordpool_less_exclusions.txt	LTP195	ltpFR	5	5	0	SCREEN	1253	n/a	1	0	0.5869140625	0.422607421875	lower	../fonts/amplitud.ttf
945.196	n/a	REC_START	472598	n/a	LTP195	ltpFR	5	5	n/a	n/a	n/a	n/a	n/a	n/a	n/a	n/a	n/a	n/a
946.806	n/a	REC_WORD	473403	wordpools/wasnorm_wordpool_less_exclusions.txt	LTP195	ltpFR	5	5	0	BUTTERFLY	206	n/a	0	n/a	n/a	n/a	n/a	n/a
948.214	n/a	REC_WORD	474107	wordpools/wasnorm_wordpool_less_exclusions.txt	LTP195	ltpFR	5	5	0	SCREEN	1253	n/a	1	n/a	n/a	n/a	n/a	n/a
949.556	n/a	REC_WORD	474778	wordpools/wasnorm_wordpool_less_exclusions.txt	LTP195	ltpFR	5	5	0	SWAMP	1416	n/a	1	n/a	n/a	n/a	n/a	n/a
950.832	n/a	REC_WORD	475416	wordpools/wasnorm_wordpool_less_exclusions.txt	LTP195	ltpFR	5	5	0	BAY	102	n/a	1	n/a	n/a	n/a	n/a	n/a
951.92	n/a	REC_WORD	475960	wordpools/wasnorm_wordpool_less_exclusions.txt	LTP195	ltpFR	5	5	0	DUNE	506	n/a	0	n/a	n/a	n/a	n/a	n/a
953.106	n/a	REC_WORD	476553	wordpools/wasnorm_wordpool_less_exclusions.txt	LTP195	ltpFR	5	5	0	FAMILY	550	n/a	1	n/a	n/a	n/a	n/a	n/a
962.192	n/a	REC_WORD	481096	wordpools/wasnorm_wordpool_less_exclusions.txt	LTP195	ltpFR	5	5	0	LEG	809	n/a	0	n/a	n/a	n/a	n/a	n/a
963.1	n/a	REC_WORD	481550	wordpools/wasnorm_wordpool_less_exclusions.txt	LTP195	ltpFR	5	5	0	SHOULDER	1294	n/a	1	n/a	n/a	n/a	n/a	n/a
966.748	n/a	REC_WORD	483374	wordpools/wasnorm_wordpool_less_exclusions.txt	LTP195	ltpFR	5	5	0	GLASS	639	n/a	0	n/a	n/a	n/a	n/a	n/a
967.42	n/a	REC_WORD	483710	wordpools/wasnorm_wordpool_less_exclusions.txt	LTP195	ltpFR	5	5	0	SAUCER	1237	n/a	0	n/a	n/a	n/a	n/a	n/a
968.908	n/a	REC_WORD	484454	wordpools/wasnorm_wordpool_less_exclusions.txt	LTP195	ltpFR	5	5	0	CHERRY	293	n/a	0	n/a	n/a	n/a	n/a	n/a
969.84	n/a	REC_WORD	484920	wordpools/wasnorm_wordpool_less_exclusions.txt	LTP195	ltpFR	5	5	0	PEACH	1031	n/a	0	n/a	n/a	n/a	n/a	n/a
970.708	n/a	REC_WORD	485354	wordpools/wasnorm_wordpool_less_exclusions.txt	LTP195	ltpFR	5	5	0	WINGS	1614	n/a	0	n/a	n/a	n/a	n/a	n/a
977.284	n/a	REC_WORD	488642	wordpools/wasnorm_wordpool_less_exclusions.txt	LTP195	ltpFR	5	5	0	BUTTERFLY	206	n/a	0	n/a	n/a	n/a	n/a	n/a
1023.744	n/a	WORD	511872	wordpools/wasnorm_wordpool_less_exclusions.txt	LTP195	ltpFR	5	6	1	CONTRACT	368	n/a	0	1	0.412841796875	0.57763671875	upper	../fonts/zerothre.ttf
1027.632	n/a	WORD	513816	wordpools/wasnorm_wordpool_less_exclusions.txt	LTP195	ltpFR	5	6	1	NECK	939	n/a	0	1	0.412841796875	0.57763671875	upper	../fonts/zerothre.ttf
1031.59	n/a	WORD	515795	wordpools/wasnorm_wordpool_less_exclusions.txt	LTP195	ltpFR	5	6	1	BLOUSE	139	n/a	0	1	0.412841796875	0.57763671875	upper	../fonts/zerothre.ttf
1035.574	n/a	WORD	517787	wordpools/wasnorm_wordpool_less_exclusions.txt	LTP195	ltpFR	5	6	1	CORAL	378	n/a	0	1	0.412841796875	0.57763671875	upper	../fonts/zerothre.ttf
1039.46	n/a	WORD	519730	wordpools/wasnorm_wordpool_less_exclusions.txt	LTP195	ltpFR	5	6	1	ATOM	55	n/a	0	1	0.412841796875	0.57763671875	upper	../fonts/zerothre.ttf
1043.288	n/a	WORD	521644	wordpools/wasnorm_wordpool_less_exclusions.txt	LTP195	ltpFR	5	6	1	NEUTRON	947	n/a	1	1	0.412841796875	0.57763671875	upper	../fonts/zerothre.ttf
1047.452	n/a	WORD	523726	wordpools/wasnorm_wordpool_less_exclusions.txt	LTP195	ltpFR	5	6	1	TYPIST	1532	n/a	1	1	0.412841796875	0.57763671875	upper	../fonts/zerothre.ttf
1051.3	n/a	WORD	525650	wordpools/wasnorm_wordpool_less_exclusions.txt	LTP195	ltpFR	5	6	1	WAVE	1596	n/a	1	1	0.412841796875	0.57763671875	upper	../fonts/zerothre.ttf
1055.382	n/a	WORD	527691	wordpools/wasnorm_wordpool_less_exclusions.txt	LTP195	ltpFR	5	6	1	NITROGEN	954	n/a	0	1	0.412841796875	0.57763671875	upper	../fonts/zerothre.ttf
1059.33	n/a	WORD	529665	wordpools/wasnorm_wordpool_less_exclusions.txt	LTP195	ltpFR	5	6	1	PAN	1008	n/a	0	1	0.412841796875	0.57763671875	upper	../fonts/zerothre.ttf
1063.246	n/a	WORD	531623	wordpools/wasnorm_wordpool_less_exclusions.txt	LTP195	ltpFR	5	6	1	OREGANO	983	n/a	0	1	0.412841796875	0.57763671875	upper	../fonts/zerothre.ttf
1067.31	n/a	WORD	533655	wordpools/wasnorm_wordpool_less_exclusions.txt	LTP195	ltpFR	5	6	1	WALLET	1583	n/a	0	1	0.412841796875	0.57763671875	upper	../fonts/zerothre.ttf
1071.258	n/a	WORD	535629	wordpools/wasnorm_wordpool_less_exclusions.txt	LTP195	ltpFR	5	6	1	SQUID	1361	n/a	1	1	0.412841796875	0.57763671875	upper	../fonts/zerothre.ttf
1075.444	n/a	WORD	537722	wordpools/wasnorm_wordpool_less_exclusions.txt	LTP195	ltpFR	5	6	1	ANTEATER	26	n/a	1	1	0.412841796875	0.57763671875	upper	../fonts/zerothre.ttf
1079.39	n/a	WORD	539695	wordpools/wasnorm_wordpool_less_exclusions.txt	LTP195	ltpFR	5	6	1	GRASSHOPPER	656	n/a	1	1	0.412841796875	0.57763671875	upper	../fonts/zerothre.ttf
1083.59	n/a	WORD	541795	wordpools/wasnorm_wordpool_less_exclusions.txt	LTP195	ltpFR	5	6	1	CINNAMON	310	n/a	0	1	0.412841796875	0.57763671875	upper	../fonts/zerothre.ttf
1089.462	n/a	REC_START	544731	n/a	LTP195	ltpFR	5	6	n/a	n/a	n/a	n/a	n/a	n/a	n/a	n/a	n/a	n/a
1090.664	n/a	REC_WORD	545332	wordpools/wasnorm_wordpool_less_exclusions.txt	LTP195	ltpFR	5	6	1	CINNAMON	310	n/a	0	n/a	n/a	n/a	n/a	n/a
1091.872	n/a	REC_WORD	545936	wordpools/wasnorm_wordpool_less_exclusions.txt	LTP195	ltpFR	5	6	1	OREGANO	983	n/a	0	n/a	n/a	n/a	n/a	n/a
1093.04	n/a	REC_WORD	546520	wordpools/wasnorm_wordpool_less_exclusions.txt	LTP195	ltpFR	5	6	1	PAN	1008	n/a	0	n/a	n/a	n/a	n/a	n/a
1094.422	n/a	REC_WORD	547211	wordpools/wasnorm_wordpool_less_exclusions.txt	LTP195	ltpFR	5	6	1	SQUID	1361	n/a	1	n/a	n/a	n/a	n/a	n/a
1095.988	n/a	REC_WORD	547994	wordpools/wasnorm_wordpool_less_exclusions.txt	LTP195	ltpFR	5	6	1	GRASSHOPPER	656	n/a	1	n/a	n/a	n/a	n/a	n/a
1098.348	n/a	REC_WORD	549174	wordpools/wasnorm_wordpool_less_exclusions.txt	LTP195	ltpFR	5	6	1	ANTEATER	26	n/a	1	n/a	n/a	n/a	n/a	n/a
1101.964	n/a	REC_WORD	550982	wordpools/wasnorm_wordpool_less_exclusions.txt	LTP195	ltpFR	5	6	1	WAVE	1596	n/a	1	n/a	n/a	n/a	n/a	n/a
1104.33	n/a	REC_WORD	552165	wordpools/wasnorm_wordpool_less_exclusions.txt	LTP195	ltpFR	5	6	1	NECK	939	n/a	0	n/a	n/a	n/a	n/a	n/a
1105.318	n/a	REC_WORD	552659	wordpools/wasnorm_wordpool_less_exclusions.txt	LTP195	ltpFR	5	6	1	BLOUSE	139	n/a	0	n/a	n/a	n/a	n/a	n/a
1106.768	n/a	REC_WORD	553384	wordpools/wasnorm_wordpool_less_exclusions.txt	LTP195	ltpFR	5	6	1	CORAL	378	n/a	0	n/a	n/a	n/a	n/a	n/a
1114.472	n/a	REC_WORD	557236	wordpools/wasnorm_wordpool_less_exclusions.txt	LTP195	ltpFR	5	6	1	ATOM	55	n/a	0	n/a	n/a	n/a	n/a	n/a
1120.744	n/a	REC_WORD	560372	wordpools/wasnorm_wordpool_less_exclusions.txt	LTP195	ltpFR	5	6	1	NEUTRON	947	n/a	1	n/a	n/a	n/a	n/a	n/a
1169.286	n/a	WORD	584643	wordpools/wasnorm_wordpool_less_exclusions.txt	LTP195	ltpFR	5	7	1	REINDEER	1181	n/a	1	1	0.412841796875	0.57763671875	upper	../fonts/zerothre.ttf
1173.25	n/a	WORD	586625	wordpools/wasnorm_wordpool_less_exclusions.txt	LTP195	ltpFR	5	7	1	FLY	586	n/a	1	1	0.412841796875	0.57763671875	upper	../fonts/zerothre.ttf
1177.368	n/a	WORD	588684	wordpools/wasnorm_wordpool_less_exclusions.txt	LTP195	ltpFR	5	7	1	CONCERT	360	n/a	0	1	0.412841796875	0.57763671875	upper	../fonts/zerothre.ttf
1181.246	n/a	WORD	590623	wordpools/wasnorm_wordpool_less_exclusions.txt	LTP195	ltpFR	5	7	1	NAIL	936	n/a	0	1	0.412841796875	0.57763671875	upper	../fonts/zerothre.ttf
1185.15	n/a	WORD	592575	wordpools/wasnorm_wordpool_less_exclusions.txt	LTP195	ltpFR	5	7	1	WRENCH	1625	n/a	0	1	0.412841796875	0.57763671875	upper	../fonts/zerothre.ttf
1188.996	n/a	WORD	594498	wordpools/wasnorm_wordpool_less_exclusions.txt	LTP195	ltpFR	5	7	1	CLOSET	326	n/a	0	1	0.412841796875	0.57763671875	upper	../fonts/zerothre.ttf
1192.908	n/a	WORD	596454	wordpools/wasnorm_wordpool_less_exclusions.txt	LTP195	ltpFR	5	7	1	ROBE	1198	n/a	0	1	0.412841796875	0.57763671875	upper	../fonts/zerothre.ttf
1197.09	n/a	WORD	598545	wordpools/wasnorm_wordpool_less_exclusions.txt	LTP195	ltpFR	5	7	1	BUSH	202	n/a	0	1	0.412841796875	0.57763671875	upper	../fonts/zerothre.ttf
1200.922	n/a	WORD	600461	wordpools/wasnorm_wordpool_less_exclusions.txt	LTP195	ltpFR	5	7	1	ROOT	1210	n/a	1	1	0.412841796875	0.57763671875	upper	../fonts/zerothre.ttf
1205.104	n/a	WORD	602552	wordpools/wasnorm_wordpool_less_exclusions.txt	LTP195	ltpFR	5	7	1	POSSUM	1112	n/a	1	1	0.412841796875	0.57763671875	upper	../fonts/zerothre.ttf
1209.186	n/a	WORD	604593	wordpools/wasnorm_wordpool_less_exclusions.txt	LTP195	ltpFR	5	7	1	JUDGE	761	n/a	1	1	0.412841796875	0.57763671875	upper	../fonts/zerothre.ttf
1213.202	n/a	WORD	606601	wordpools/wasnorm_wordpool_less_exclusions.txt	LTP195	ltpFR	5	7	1	BUG	187	n/a	1	1	0.412841796875	0.57763671875	upper	../fonts/zerothre.ttf
1217.216	n/a	WORD	608608	wordpools/wasnorm_wordpool_less_exclusions.txt	LTP195	ltpFR	5	7	1	PIANO	1057	n/a	0	1	0.412841796875	0.57763671875	upper	../fonts/zerothre.ttf
1221.366	n/a	WORD	610683	wordpools/wasnorm_wordpool_less_exclusions.txt	LTP195	ltpFR	5	7	1	GARDEN	623	n/a	1	1	0.412841796875	0.57763671875	upper	../fonts/zerothre.ttf
1225.482	n/a	WORD	612741	wordpools/wasnorm_wordpool_less_exclusions.txt	LTP195	ltpFR	5	7	1	CANOE	233	n/a	0	1	0.412841796875	0.57763671875	upper	../fonts/zerothre.ttf
1229.648	n/a	WORD	614824	wordpools/wasnorm_wordpool_less_exclusions.txt	LTP195	ltpFR	5	7	1	APPENDAGE	32	n/a	0	1	0.412841796875	0.57763671875	upper	../fonts/zerothre.ttf
1235.336	n/a	REC_START	617668	n/a	LTP195	ltpFR	5	7	n/a	n/a	n/a	n/a	n/a	n/a	n/a	n/a	n/a	n/a
1235.764	n/a	REC_WORD	617882	wordpools/wasnorm_wordpool_less_exclusions.txt	LTP195	ltpFR	5	7	1	APPENDAGE	32	n/a	0	n/a	n/a	n/a	n/a	n/a
1237.796	n/a	REC_WORD	618898	wordpools/wasnorm_wordpool_less_exclusions.txt	LTP195	ltpFR	5	7	1	GARDEN	623	n/a	1	n/a	n/a	n/a	n/a	n/a
1239.048	n/a	REC_WORD	619524	wordpools/wasnorm_wordpool_less_exclusions.txt	LTP195	ltpFR	5	7	1	BUSH	202	n/a	0	n/a	n/a	n/a	n/a	n/a
1239.91	n/a	REC_WORD	619955	wordpools/wasnorm_wordpool_less_exclusions.txt	LTP195	ltpFR	5	7	1	ROOT	1210	n/a	1	n/a	n/a	n/a	n/a	n/a
1241.082	n/a	REC_WORD	620541	wordpools/wasnorm_wordpool_less_exclusions.txt	LTP195	ltpFR	5	7	1	FLY	586	n/a	1	n/a	n/a	n/a	n/a	n/a
1242.426	n/a	REC_WORD	621213	wordpools/wasnorm_wordpool_less_exclusions.txt	LTP195	ltpFR	5	7	1	BUG	187	n/a	1	n/a	n/a	n/a	n/a	n/a
1243.638	n/a	REC_WORD	621819	wordpools/wasnorm_wordpool_less_exclusions.txt	LTP195	ltpFR	5	7	1	REINDEER	1181	n/a	1	n/a	n/a	n/a	n/a	n/a
1250.472	n/a	REC_WORD	625236	wordpools/wasnorm_wordpool_less_exclusions.txt	LTP195	ltpFR	5	7	1	CANOE	233	n/a	0	n/a	n/a	n/a	n/a	n/a
1256.19	n/a	REC_WORD	628095	wordpools/wasnorm_wordpool_less_exclusions.txt	LTP195	ltpFR	5	7	n/a	RIVER	1194	n/a	n/a	n/a	n/a	n/a	n/a	n/a
1266.952	n/a	REC_WORD	633476	wordpools/wasnorm_wordpool_less_exclusions.txt	LTP195	ltpFR	5	7	1	PIANO	1057	n/a	0	n/a	n/a	n/a	n/a	n/a
1314.658	n/a	WORD	657329	wordpools/wasnorm_wordpool_less_exclusions.txt	LTP195	ltpFR	5	8	1	BRACELET	163	n/a	0	1	0.412841796875	0.57763671875	upper	../fonts/zerothre.ttf
1318.488	n/a	WORD	659244	wordpools/wasnorm_wordpool_less_exclusions.txt	LTP195	ltpFR	5	8	1	LETTER	813	n/a	0	1	0.412841796875	0.57763671875	upper	../fonts/zerothre.ttf
1322.574	n/a	WORD	661287	wordpools/wasnorm_wordpool_less_exclusions.txt	LTP195	ltpFR	5	8	1	PRIEST	1122	n/a	1	1	0.412841796875	0.57763671875	upper	../fonts/zerothre.ttf
1326.752	n/a	WORD	663376	wordpools/wasnorm_wordpool_less_exclusions.txt	LTP195	ltpFR	5	8	1	BEGGAR	117	n/a	1	1	0.412841796875	0.57763671875	upper	../fonts/zerothre.ttf
1330.92	n/a	WORD	665460	wordpools/wasnorm_wordpool_less_exclusions.txt	LTP195	ltpFR	5	8	0	COUNTRY	388	n/a	1	0	0.5869140625	0.422607421875	lower	../fonts/amplitud.ttf
1334.852	n/a	WORD	667426	wordpools/wasnorm_wordpool_less_exclusions.txt	LTP195	ltpFR	5	8	0	MAILBOX	857	n/a	0	0	0.5869140625	0.422607421875	lower	../fonts/amplitud.ttf
1339.066	n/a	WORD	669533	wordpools/wasnorm_wordpool_less_exclusions.txt	LTP195	ltpFR	5	8	0	FLOWER	584	n/a	0	0	0.5869140625	0.422607421875	lower	../fonts/amplitud.ttf
1342.982	n/a	WORD	671491	wordpools/wasnorm_wordpool_less_exclusions.txt	LTP195	ltpFR	5	8	1	LILY	821	n/a	1	1	0.412841796875	0.57763671875	upper	../fonts/zerothre.ttf
1346.896	n/a	WORD	673448	wordpools/wasnorm_wordpool_less_exclusions.txt	LTP195	ltpFR	5	8	1	MAPLE	866	n/a	1	1	0.412841796875	0.57763671875	upper	../fonts/zerothre.ttf
1351.096	n/a	WORD	675548	wordpools/wasnorm_wordpool_less_exclusions.txt	LTP195	ltpFR	5	8	1	DIAMOND	458	n/a	0	1	0.412841796875	0.57763671875	upper	../fonts/zerothre.ttf
1355.26	n/a	WORD	677630	wordpools/wasnorm_wordpool_less_exclusions.txt	LTP195	ltpFR	5	8	1	ANIMAL	23	n/a	0	1	0.412841796875	0.57763671875	upper	../fonts/zerothre.ttf
1359.328	n/a	WORD	679664	wordpools/wasnorm_wordpool_less_exclusions.txt	LTP195	ltpFR	5	8	0	MOOSE	915	n/a	1	0	0.5869140625	0.422607421875	lower	../fonts/amplitud.ttf
1363.208	n/a	WORD	681604	wordpools/wasnorm_wordpool_less_exclusions.txt	LTP195	ltpFR	5	8	0	YACHT	1629	n/a	0	0	0.5869140625	0.422607421875	lower	../fonts/amplitud.ttf
1367.224	n/a	WORD	683612	wordpools/wasnorm_wordpool_less_exclusions.txt	LTP195	ltpFR	5	8	0	KEEPER	769	n/a	1	0	0.5869140625	0.422607421875	lower	../fonts/amplitud.ttf
1371.094	n/a	WORD	685547	wordpools/wasnorm_wordpool_less_exclusions.txt	LTP195	ltpFR	5	8	0	OWNER	993	n/a	1	0	0.5869140625	0.422607421875	lower	../fonts/amplitud.ttf
1375.304	n/a	WORD	687652	wordpools/wasnorm_wordpool_less_exclusions.txt	LTP195	ltpFR	5	8	0	RAKE	1164	n/a	0	0	0.5869140625	0.422607421875	lower	../fonts/amplitud.ttf
1381.012	n/a	REC_START	690506	n/a	LTP195	ltpFR	5	8	n/a	n/a	n/a	n/a	n/a	n/a	n/a	n/a	n/a	n/a
1383.016	n/a	REC_WORD	691508	wordpools/wasnorm_wordpool_less_exclusions.txt	LTP195	ltpFR	5	8	0	MOOSE	915	n/a	1	n/a	n/a	n/a	n/a	n/a
1384.044	n/a	REC_WORD	692022	wordpools/wasnorm_wordpool_less_exclusions.txt	LTP195	ltpFR	5	8	0	YACHT	1629	n/a	0	n/a	n/a	n/a	n/a	n/a
1385.482	n/a	REC_WORD	692741	wordpools/wasnorm_wordpool_less_exclusions.txt	LTP195	ltpFR	5	8	0	KEEPER	769	n/a	1	n/a	n/a	n/a	n/a	n/a
1386.764	n/a	REC_WORD	693382	wordpools/wasnorm_wordpool_less_exclusions.txt	LTP195	ltpFR	5	8	0	OWNER	993	n/a	1	n/a	n/a	n/a	n/a	n/a
1388.07	n/a	REC_WORD	694035	wordpools/wasnorm_wordpool_less_exclusions.txt	LTP195	ltpFR	5	8	0	RAKE	1164	n/a	0	n/a	n/a	n/a	n/a	n/a
1389.472	n/a	REC_WORD	694736	wordpools/wasnorm_wordpool_less_exclusions.txt	LTP195	ltpFR	5	8	1	BRACELET	163	n/a	0	n/a	n/a	n/a	n/a	n/a
1390.784	n/a	REC_WORD	695392	wordpools/wasnorm_wordpool_less_exclusions.txt	LTP195	ltpFR	5	8	1	LETTER	813	n/a	0	n/a	n/a	n/a	n/a	n/a
1392.156	n/a	REC_WORD	696078	wordpools/wasnorm_wordpool_less_exclusions.txt	LTP195	ltpFR	5	8	1	PRIEST	1122	n/a	1	n/a	n/a	n/a	n/a	n/a
1393.478	n/a	REC_WORD	696739	wordpools/wasnorm_wordpool_less_exclusions.txt	LTP195	ltpFR	5	8	1	BEGGAR	117	n/a	1	n/a	n/a	n/a	n/a	n/a
1420.504	n/a	REC_WORD	710252	wordpools/wasnorm_wordpool_less_exclusions.txt	LTP195	ltpFR	5	8	1	LILY	821	n/a	1	n/a	n/a	n/a	n/a	n/a
1431.054	n/a	REC_WORD	715527	wordpools/wasnorm_wordpool_less_exclusions.txt	LTP195	ltpFR	5	8	0	FLOWER	584	n/a	0	n/a	n/a	n/a	n/a	n/a
1436.004	n/a	REC_WORD	718002	wordpools/wasnorm_wordpool_less_exclusions.txt	LTP195	ltpFR	5	8	0	MAILBOX	857	n/a	0	n/a	n/a	n/a	n/a	n/a
1437.004	n/a	REC_WORD_VV	718502	wordpools/wasnorm_wordpool_less_exclusions.txt	LTP195	ltpFR	5	8	n/a	<>	-1	n/a	n/a	n/a	n/a	n/a	n/a	n/a
1459.644	n/a	WORD	729822	wordpools/wasnorm_wordpool_less_exclusions.txt	LTP195	ltpFR	5	9	1	FARM	552	n/a	1	1	0.412841796875	0.57763671875	upper	../fonts/zerothre.ttf
1463.592	n/a	WORD	731796	wordpools/wasnorm_wordpool_less_exclusions.txt	LTP195	ltpFR	5	9	1	BRUNETTE	181	n/a	1	1	0.412841796875	0.57763671875	upper	../fonts/zerothre.ttf
1467.422	n/a	WORD	733711	wordpools/wasnorm_wordpool_less_exclusions.txt	LTP195	ltpFR	5	9	1	LOCK	838	n/a	0	1	0.412841796875	0.57763671875	upper	../fonts/zerothre.ttf
1471.504	n/a	WORD	735752	wordpools/wasnorm_wordpool_less_exclusions.txt	LTP195	ltpFR	5	9	1	WEED	1599	n/a	0	1	0.412841796875	0.57763671875	upper	../fonts/zerothre.ttf
1475.722	n/a	WORD	737861	wordpools/wasnorm_wordpool_less_exclusions.txt	LTP195	ltpFR	5	9	1	PLANT	1083	n/a	1	1	0.412841796875	0.57763671875	upper	../fonts/zerothre.ttf
1479.754	n/a	WORD	739877	wordpools/wasnorm_wordpool_less_exclusions.txt	LTP195	ltpFR	5	9	1	BOULDER	155	n/a	1	1	0.412841796875	0.57763671875	upper	../fonts/zerothre.ttf
1483.656	n/a	WORD	741828	wordpools/wasnorm_wordpool_less_exclusions.txt	LTP195	ltpFR	5	9	1	CAGE	218	n/a	0	1	0.412841796875	0.57763671875	upper	../fonts/zerothre.ttf
1487.784	n/a	WORD	743892	wordpools/wasnorm_wordpool_less_exclusions.txt	LTP195	ltpFR	5	9	1	FINGERNAIL	568	n/a	0	1	0.412841796875	0.57763671875	upper	../fonts/zerothre.ttf
1491.986	n/a	WORD	745993	wordpools/wasnorm_wordpool_less_exclusions.txt	LTP195	ltpFR	5	9	1	ELBOW	520	n/a	0	1	0.412841796875	0.57763671875	upper	../fonts/zerothre.ttf
1496.082	n/a	WORD	748041	wordpools/wasnorm_wordpool_less_exclusions.txt	LTP195	ltpFR	5	9	1	DOOR	486	n/a	0	1	0.412841796875	0.57763671875	upper	../fonts/zerothre.ttf
1500.216	n/a	WORD	750108	wordpools/wasnorm_wordpool_less_exclusions.txt	LTP195	ltpFR	5	9	1	PILL	1068	n/a	0	1	0.412841796875	0.57763671875	upper	../fonts/zerothre.ttf
1504.214	n/a	WORD	752107	wordpools/wasnorm_wordpool_less_exclusions.txt	LTP195	ltpFR	5	9	1	MONSTER	912	n/a	1	1	0.412841796875	0.57763671875	upper	../fonts/zerothre.ttf
1508.228	n/a	WORD	754114	wordpools/wasnorm_wordpool_less_exclusions.txt	LTP195	ltpFR	5	9	1	WICK	1607	n/a	0	1	0.412841796875	0.57763671875	upper	../fonts/zerothre.ttf
1512.194	n/a	WORD	756097	wordpools/wasnorm_wordpool_less_exclusions.txt	LTP195	ltpFR	5	9	1	PERCH	1048	n/a	0	1	0.412841796875	0.57763671875	upper	../fonts/zerothre.ttf
1516.06	n/a	WORD	758030	wordpools/wasnorm_wordpool_less_exclusions.txt	LTP195	ltpFR	5	9	1	SPARROW	1347	n/a	1	1	0.412841796875	0.57763671875	upper	../fonts/zerothre.ttf
1520.158	n/a	WORD	760079	wordpools/wasnorm_wordpool_less_exclusions.txt	LTP195	ltpFR	5	9	1	BAND	78	n/a	0	1	0.412841796875	0.57763671875	upper	../fonts/zerothre.ttf
1526.048	n/a	REC_START	763024	n/a	LTP195	ltpFR	5	9	n/a	n/a	n/a	n/a	n/a	n/a	n/a	n/a	n/a	n/a
1527.514	n/a	REC_WORD	763757	wordpools/wasnorm_wordpool_less_exclusions.txt	LTP195	ltpFR	5	9	1	BAND	78	n/a	0	n/a	n/a	n/a	n/a	n/a
1528.87	n/a	REC_WORD	764435	wordpools/wasnorm_wordpool_less_exclusions.txt	LTP195	ltpFR	5	9	1	PERCH	1048	n/a	0	n/a	n/a	n/a	n/a	n/a
1530.798	n/a	REC_WORD	765399	wordpools/wasnorm_wordpool_less_exclusions.txt	LTP195	ltpFR	5	9	1	FARM	552	n/a	1	n/a	n/a	n/a	n/a	n/a
1532.16	n/a	REC_WORD	766080	wordpools/wasnorm_wordpool_less_exclusions.txt	LTP195	ltpFR	5	9	1	DOOR	486	n/a	0	n/a	n/a	n/a	n/a	n/a
1533.416	n/a	REC_WORD	766708	wordpools/wasnorm_wordpool_less_exclusions.txt	LTP195	ltpFR	5	9	1	LOCK	838	n/a	0	n/a	n/a	n/a	n/a	n/a
1534.604	n/a	REC_WORD	767302	wordpools/wasnorm_wordpool_less_exclusions.txt	LTP195	ltpFR	5	9	1	PILL	1068	n/a	0	n/a	n/a	n/a	n/a	n/a
1535.926	n/a	REC_WORD	767963	wordpools/wasnorm_wordpool_less_exclusions.txt	LTP195	ltpFR	5	9	1	WICK	1607	n/a	0	n/a	n/a	n/a	n/a	n/a
1537.212	n/a	REC_WORD	768606	wordpools/wasnorm_wordpool_less_exclusions.txt	LTP195	ltpFR	5	9	1	BRUNETTE	181	n/a	1	n/a	n/a	n/a	n/a	n/a
1538.654	n/a	REC_WORD	769327	wordpools/wasnorm_wordpool_less_exclusions.txt	LTP195	ltpFR	5	9	1	CAGE	218	n/a	0	n/a	n/a	n/a	n/a	n/a
1540.202	n/a	REC_WORD	770101	wordpools/wasnorm_wordpool_less_exclusions.txt	LTP195	ltpFR	5	9	1	BOULDER	155	n/a	1	n/a	n/a	n/a	n/a	n/a
1541.732	n/a	REC_WORD	770866	wordpools/wasnorm_wordpool_less_exclusions.txt	LTP195	ltpFR	5	9	1	WEED	1599	n/a	0	n/a	n/a	n/a	n/a	n/a
1543.184	n/a	REC_WORD	771592	wordpools/wasnorm_wordpool_less_exclusions.txt	LTP195	ltpFR	5	9	1	PLANT	1083	n/a	1	n/a	n/a	n/a	n/a	n/a
1544.83	n/a	REC_WORD	772415	wordpools/wasnorm_wordpool_less_exclusions.txt	LTP195	ltpFR	5	9	1	ELBOW	520	n/a	0	n/a	n/a	n/a	n/a	n/a
1546.436	n/a	REC_WORD	773218	wordpools/wasnorm_wordpool_less_exclusions.txt	LTP195	ltpFR	5	9	1	FINGERNAIL	568	n/a	0	n/a	n/a	n/a	n/a	n/a
1605.232	n/a	WORD	802616	wordpools/wasnorm_wordpool_less_exclusions.txt	LTP195	ltpFR	5	10	0	WATERFALL	1595	n/a	0	0	0.5869140625	0.422607421875	lower	../fonts/amplitud.ttf
1609.416	n/a	WORD	804708	wordpools/wasnorm_wordpool_less_exclusions.txt	LTP195	ltpFR	5	10	0	WELL	1600	n/a	1	0	0.5869140625	0.422607421875	lower	../fonts/amplitud.ttf
1613.564	n/a	WORD	806782	wordpools/wasnorm_wordpool_less_exclusions.txt	LTP195	ltpFR	5	10	0	DOVE	491	n/a	0	0	0.5869140625	0.422607421875	lower	../fonts/amplitud.ttf
1617.6	n/a	WORD	808800	wordpools/wasnorm_wordpool_less_exclusions.txt	LTP195	ltpFR	5	10	1	REPTILE	1185	n/a	1	1	0.412841796875	0.57763671875	upper	../fonts/zerothre.ttf
1621.628	n/a	WORD	810814	wordpools/wasnorm_wordpool_less_exclusions.txt	LTP195	ltpFR	5	10	1	TORNADO	1485	n/a	0	1	0.412841796875	0.57763671875	upper	../fonts/zerothre.ttf
1625.746	n/a	WORD	812873	wordpools/wasnorm_wordpool_less_exclusions.txt	LTP195	ltpFR	5	10	1	PLAYGROUND	1087	n/a	0	1	0.412841796875	0.57763671875	upper	../fonts/zerothre.ttf
1629.896	n/a	WORD	814948	wordpools/wasnorm_wordpool_less_exclusions.txt	LTP195	ltpFR	5	10	1	NUCLEUS	961	n/a	0	1	0.412841796875	0.57763671875	upper	../fonts/zerothre.ttf
1634.026	n/a	WORD	817013	wordpools/wasnorm_wordpool_less_exclusions.txt	LTP195	ltpFR	5	10	1	CROSS	413	n/a	0	1	0.412841796875	0.57763671875	upper	../fonts/zerothre.ttf
1637.978	n/a	WORD	818989	wordpools/wasnorm_wordpool_less_exclusions.txt	LTP195	ltpFR	5	10	1	MECHANIC	884	n/a	1	1	0.412841796875	0.57763671875	upper	../fonts/zerothre.ttf
1641.906	n/a	WORD	820953	wordpools/wasnorm_wordpool_less_exclusions.txt	LTP195	ltpFR	5	10	0	CARAVAN	242	n/a	1	0	0.5869140625	0.422607421875	lower	../fonts/amplitud.ttf
1645.974	n/a	WORD	822987	wordpools/wasnorm_wordpool_less_exclusions.txt	LTP195	ltpFR	5	10	0	OUTFIT	988	n/a	0	0	0.5869140625	0.422607421875	lower	../fonts/amplitud.ttf
1649.924	n/a	WORD	824962	wordpools/wasnorm_wordpool_less_exclusions.txt	LTP195	ltpFR	5	10	0	IRON	744	n/a	0	0	0.5869140625	0.422607421875	lower	../fonts/amplitud.ttf
1653.768	n/a	WORD	826884	wordpools/wasnorm_wordpool_less_exclusions.txt	LTP195	ltpFR	5	10	1	QUAIL	1147	n/a	1	1	0.412841796875	0.57763671875	upper	../fonts/zerothre.ttf
1657.816	n/a	WORD	828908	wordpools/wasnorm_wordpool_less_exclusions.txt	LTP195	ltpFR	5	10	1	HOE	711	n/a	0	1	0.412841796875	0.57763671875	upper	../fonts/zerothre.ttf
1661.9	n/a	WORD	830950	wordpools/wasnorm_wordpool_less_exclusions.txt	LTP195	ltpFR	5	10	0	PROTON	1132	n/a	0	0	0.5869140625	0.422607421875	lower	../fonts/amplitud.ttf
1665.764	n/a	WORD	832882	wordpools/wasnorm_wordpool_less_exclusions.txt	LTP195	ltpFR	5	10	0	PREACHER	1119	n/a	1	0	0.5869140625	0.422607421875	lower	../fonts/amplitud.ttf
1671.638	n/a	REC_START	835819	n/a	LTP195	ltpFR	5	10	n/a	n/a	n/a	n/a	n/a	n/a	n/a	n/a	n/a	n/a
1672.47	n/a	REC_WORD	836235	wordpools/wasnorm_wordpool_less_exclusions.txt	LTP195	ltpFR	5	10	0	PROTON	1132	n/a	0	n/a	n/a	n/a	n/a	n/a
1673.758	n/a	REC_WORD	836879	wordpools/wasnorm_wordpool_less_exclusions.txt	LTP195	ltpFR	5	10	0	PREACHER	1119	n/a	1	n/a	n/a	n/a	n/a	n/a
1675.488	n/a	REC_WORD	837744	wordpools/wasnorm_wordpool_less_exclusions.txt	LTP195	ltpFR	5	10	1	HOE	711	n/a	0	n/a	n/a	n/a	n/a	n/a
1676.956	n/a	REC_WORD	838478	wordpools/wasnorm_wordpool_less_exclusions.txt	LTP195	ltpFR	5	10	1	PLAYGROUND	1087	n/a	0	n/a	n/a	n/a	n/a	n/a
1679.324	n/a	REC_WORD	839662	wordpools/wasnorm_wordpool_less_exclusions.txt	LTP195	ltpFR	5	10	1	MECHANIC	884	n/a	1	n/a	n/a	n/a	n/a	n/a
1681.86	n/a	REC_WORD	840930	wordpools/wasnorm_wordpool_less_exclusions.txt	LTP195	ltpFR	5	10	0	CARAVAN	242	n/a	1	n/a	n/a	n/a	n/a	n/a
1691.314	n/a	REC_WORD	845657	wordpools/wasnorm_wordpool_less_exclusions.txt	LTP195	ltpFR	5	10	0	WATERFALL	1595	n/a	0	n/a	n/a	n/a	n/a	n/a
1692.272	n/a	REC_WORD	846136	wordpools/wasnorm_wordpool_less_exclusions.txt	LTP195	ltpFR	5	10	0	WELL	1600	n/a	1	n/a	n/a	n/a	n/a	n/a
1695.23	n/a	REC_WORD	847615	wordpools/wasnorm_wordpool_less_exclusions.txt	LTP195	ltpFR	5	10	0	DOVE	491	n/a	0	n/a	n/a	n/a	n/a	n/a
1696.252	n/a	REC_WORD	848126	wordpools/wasnorm_wordpool_less_exclusions.txt	LTP195	ltpFR	5	10	1	REPTILE	1185	n/a	1	n/a	n/a	n/a	n/a	n/a
1700.932	n/a	REC_WORD	850466	wordpools/wasnorm_wordpool_less_exclusions.txt	LTP195	ltpFR	5	10	1	CROSS	413	n/a	0	n/a	n/a	n/a	n/a	n/a
1704.434	n/a	REC_WORD	852217	wordpools/wasnorm_wordpool_less_exclusions.txt	LTP195	ltpFR	5	10	1	NUCLEUS	961	n/a	0	n/a	n/a	n/a	n/a	n/a
1706.64	n/a	REC_WORD	853320	wordpools/wasnorm_wordpool_less_exclusions.txt	LTP195	ltpFR	5	10	0	PROTON	1132	n/a	0	n/a	n/a	n/a	n/a	n/a
1750.372	n/a	WORD	875186	wordpools/wasnorm_wordpool_less_exclusions.txt	LTP195	ltpFR	5	11	-1	LITTER	832	n/a	-1	1	1.0	1.0	upper	../fonts/Verdana.ttf
1754.302	n/a	WORD	877151	wordpools/wasnorm_wordpool_less_exclusions.txt	LTP195	ltpFR	5	11	-1	BASKET	95	n/a	-1	1	1.0	1.0	upper	../fonts/Verdana.ttf
1758.288	n/a	WORD	879144	wordpools/wasnorm_wordpool_less_exclusions.txt	LTP195	ltpFR	5	11	-1	DRAGON	492	n/a	-1	1	1.0	1.0	upper	../fonts/Verdana.ttf
1762.284	n/a	WORD	881142	wordpools/wasnorm_wordpool_less_exclusions.txt	LTP195	ltpFR	5	11	-1	STEWARDESS	1381	n/a	-1	1	1.0	1.0	upper	../fonts/Verdana.ttf
1766.382	n/a	WORD	883191	wordpools/wasnorm_wordpool_less_exclusions.txt	LTP195	ltpFR	5	11	-1	HAMMER	680	n/a	-1	1	1.0	1.0	upper	../fonts/Verdana.ttf
1770.532	n/a	WORD	885266	wordpools/wasnorm_wordpool_less_exclusions.txt	LTP195	ltpFR	5	11	-1	UNDERWEAR	1537	n/a	-1	1	1.0	1.0	upper	../fonts/Verdana.ttf
1774.396	n/a	WORD	887198	wordpools/wasnorm_wordpool_less_exclusions.txt	LTP195	ltpFR	5	11	-1	HANGER	687	n/a	-1	1	1.0	1.0	upper	../fonts/Verdana.ttf
1778.498	n/a	WORD	889249	wordpools/wasnorm_wordpool_less_exclusions.txt	LTP195	ltpFR	5	11	-1	GLUE	643	n/a	-1	1	1.0	1.0	upper	../fonts/Verdana.ttf
1782.394	n/a	WORD	891197	wordpools/wasnorm_wordpool_less_exclusions.txt	LTP195	ltpFR	5	11	-1	LEOPARD	812	n/a	-1	1	1.0	1.0	upper	../fonts/Verdana.ttf
1786.426	n/a	WORD	893213	wordpools/wasnorm_wordpool_less_exclusions.txt	LTP195	ltpFR	5	11	-1	MINK	897	n/a	-1	1	1.0	1.0	upper	../fonts/Verdana.ttf
1790.39	n/a	WORD	895195	wordpools/wasnorm_wordpool_less_exclusions.txt	LTP195	ltpFR	5	11	-1	ENCYCLOPEDIA	533	n/a	-1	1	1.0	1.0	upper	../fonts/Verdana.ttf
1794.556	n/a	WORD	897278	wordpools/wasnorm_wordpool_less_exclusions.txt	LTP195	ltpFR	5	11	-1	VAGRANT	1544	n/a	-1	1	1.0	1.0	upper	../fonts/Verdana.ttf
1798.672	n/a	WORD	899336	wordpools/wasnorm_wordpool_less_exclusions.txt	LTP195	ltpFR	5	11	-1	BLANKET	135	n/a	-1	1	1.0	1.0	upper	../fonts/Verdana.ttf
1802.588	n/a	WORD	901294	wordpools/wasnorm_wordpool_less_exclusions.txt	LTP195	ltpFR	5	11	-1	MAGAZINE	853	n/a	-1	1	1.0	1.0	upper	../fonts/Verdana.ttf
1806.702	n/a	WORD	903351	wordpools/wasnorm_wordpool_less_exclusions.txt	LTP195	ltpFR	5	11	-1	CARPENTER	246	n/a	-1	1	1.0	1.0	upper	../fonts/Verdana.ttf
1810.65	n/a	WORD	905325	wordpools/wasnorm_wordpool_less_exclusions.txt	LTP195	ltpFR	5	11	-1	LAMB	797	n/a	-1	1	1.0	1.0	upper	../fonts/Verdana.ttf
1816.24	n/a	REC_START	908120	n/a	LTP195	ltpFR	5	11	n/a	n/a	n/a	n/a	n/a	n/a	n/a	n/a	n/a	n/a
1816.968	n/a	REC_WORD	908484	wordpools/wasnorm_wordpool_less_exclusions.txt	LTP195	ltpFR	5	11	-1	LAMB	797	n/a	-1	n/a	n/a	n/a	n/a	n/a
1818.23	n/a	REC_WORD	909115	wordpools/wasnorm_wordpool_less_exclusions.txt	LTP195	ltpFR	5	11	-1	CARPENTER	246	n/a	-1	n/a	n/a	n/a	n/a	n/a
1820.824	n/a	REC_WORD	910412	wordpools/wasnorm_wordpool_less_exclusions.txt	LTP195	ltpFR	5	11	-1	VAGRANT	1544	n/a	-1	n/a	n/a	n/a	n/a	n/a
1822.436	n/a	REC_WORD	911218	wordpools/wasnorm_wordpool_less_exclusions.txt	LTP195	ltpFR	5	11	-1	LEOPARD	812	n/a	-1	n/a	n/a	n/a	n/a	n/a
1823.748	n/a	REC_WORD	911874	wordpools/wasnorm_wordpool_less_exclusions.txt	LTP195	ltpFR	5	11	-1	DRAGON	492	n/a	-1	n/a	n/a	n/a	n/a	n/a
1825.748	n/a	REC_WORD	912874	wordpools/wasnorm_wordpool_less_exclusions.txt	LTP195	ltpFR	5	11	-1	MINK	897	n/a	-1	n/a	n/a	n/a	n/a	n/a
1826.876	n/a	REC_WORD	913438	wordpools/wasnorm_wordpool_less_exclusions.txt	LTP195	ltpFR	5	11	-1	ENCYCLOPEDIA	533	n/a	-1	n/a	n/a	n/a	n/a	n/a
1827.876	n/a	REC_WORD_VV	913938	wordpools/wasnorm_wordpool_less_exclusions.txt	LTP195	ltpFR	5	11	n/a	<>	-1	n/a	n/a	n/a	n/a	n/a	n/a	n/a
1830.492	n/a	REC_WORD	915246	wordpools/wasnorm_wordpool_less_exclusions.txt	LTP195	ltpFR	5	11	-1	BLANKET	135	n/a	-1	n/a	n/a	n/a	n/a	n/a
1832.184	n/a	REC_WORD	916092	wordpools/wasnorm_wordpool_less_exclusions.txt	LTP195	ltpFR	5	11	-1	HAMMER	680	n/a	-1	n/a	n/a	n/a	n/a	n/a
1834.246	n/a	REC_WORD	917123	wordpools/wasnorm_wordpool_less_exclusions.txt	LTP195	ltpFR	5	11	-1	STEWARDESS	1381	n/a	-1	n/a	n/a	n/a	n/a	n/a
1835.246	n/a	REC_WORD_VV	917623	wordpools/wasnorm_wordpool_less_exclusions.txt	LTP195	ltpFR	5	11	n/a	<>	-1	n/a	n/a	n/a	n/a	n/a	n/a	n/a
1837.782	n/a	REC_WORD	918891	wordpools/wasnorm_wordpool_less_exclusions.txt	LTP195	ltpFR	5	11	-1	HANGER	687	n/a	-1	n/a	n/a	n/a	n/a	n/a
1841.952	n/a	REC_WORD	920976	wordpools/wasnorm_wordpool_less_exclusions.txt	LTP195	ltpFR	5	11	-1	MAGAZINE	853	n/a	-1	n/a	n/a	n/a	n/a	n/a
1856.446	n/a	REC_WORD	928223	wordpools/wasnorm_wordpool_less_exclusions.txt	LTP195	ltpFR	5	11	-1	GLUE	643	n/a	-1	n/a	n/a	n/a	n/a	n/a
1895.09	n/a	WORD	947545	wordpools/wasnorm_wordpool_less_exclusions.txt	LTP195	ltpFR	5	12	-1	MANSION	864	n/a	-1	1	1.0	1.0	upper	../fonts/Verdana.ttf
1899.11	n/a	WORD	949555	wordpools/wasnorm_wordpool_less_exclusions.txt	LTP195	ltpFR	5	12	-1	BUILDER	190	n/a	-1	1	1.0	1.0	upper	../fonts/Verdana.ttf
1903.172	n/a	WORD	951586	wordpools/wasnorm_wordpool_less_exclusions.txt	LTP195	ltpFR	5	12	-1	SPATULA	1348	n/a	-1	1	1.0	1.0	upper	../fonts/Verdana.ttf
1906.986	n/a	WORD	953493	wordpools/wasnorm_wordpool_less_exclusions.txt	LTP195	ltpFR	5	12	-1	TOTE	1487	n/a	-1	1	1.0	1.0	upper	../fonts/Verdana.ttf
1911.054	n/a	WORD	955527	wordpools/wasnorm_wordpool_less_exclusions.txt	LTP195	ltpFR	5	12	-1	SHORTS	1293	n/a	-1	1	1.0	1.0	upper	../fonts/Verdana.ttf
1915.1	n/a	WORD	957550	wordpools/wasnorm_wordpool_less_exclusions.txt	LTP195	ltpFR	5	12	-1	LAUNDRY	803	n/a	-1	1	1.0	1.0	upper	../fonts/Verdana.ttf
1919.098	n/a	WORD	959549	wordpools/wasnorm_wordpool_less_exclusions.txt	LTP195	ltpFR	5	12	-1	PIGMENT	1066	n/a	-1	1	1.0	1.0	upper	../fonts/Verdana.ttf
1922.998	n/a	WORD	961499	wordpools/wasnorm_wordpool_less_exclusions.txt	LTP195	ltpFR	5	12	-1	RAFT	1159	n/a	-1	1	1.0	1.0	upper	../fonts/Verdana.ttf
1926.946	n/a	WORD	963473	wordpools/wasnorm_wordpool_less_exclusions.txt	LTP195	ltpFR	5	12	-1	PADDLE	1000	n/a	-1	1	1.0	1.0	upper	../fonts/Verdana.ttf
1930.864	n/a	WORD	965432	wordpools/wasnorm_wordpool_less_exclusions.txt	LTP195	ltpFR	5	12	-1	GAZELLE	628	n/a	-1	1	1.0	1.0	upper	../fonts/Verdana.ttf
1934.928	n/a	WORD	967464	wordpools/wasnorm_wordpool_less_exclusions.txt	LTP195	ltpFR	5	12	-1	BOUILLON	154	n/a	-1	1	1.0	1.0	upper	../fonts/Verdana.ttf
1939.096	n/a	WORD	969548	wordpools/wasnorm_wordpool_less_exclusions.txt	LTP195	ltpFR	5	12	-1	STREAM	1392	n/a	-1	1	1.0	1.0	upper	../fonts/Verdana.ttf
1942.974	n/a	WORD	971487	wordpools/wasnorm_wordpool_less_exclusions.txt	LTP195	ltpFR	5	12	-1	POLYESTER	1100	n/a	-1	1	1.0	1.0	upper	../fonts/Verdana.ttf
1946.854	n/a	WORD	973427	wordpools/wasnorm_wordpool_less_exclusions.txt	LTP195	ltpFR	5	12	-1	BINDER	127	n/a	-1	1	1.0	1.0	upper	../fonts/Verdana.ttf
1950.87	n/a	WORD	975435	wordpools/wasnorm_wordpool_less_exclusions.txt	LTP195	ltpFR	5	12	-1	FAUCET	555	n/a	-1	1	1.0	1.0	upper	../fonts/Verdana.ttf
1954.786	n/a	WORD	977393	wordpools/wasnorm_wordpool_less_exclusions.txt	LTP195	ltpFR	5	12	-1	FLANNEL	574	n/a	-1	1	1.0	1.0	upper	../fonts/Verdana.ttf
1960.726	n/a	REC_START	980363	n/a	LTP195	ltpFR	5	12	n/a	n/a	n/a	n/a	n/a	n/a	n/a	n/a	n/a	n/a
1961.594	n/a	REC_WORD	980797	wordpools/wasnorm_wordpool_less_exclusions.txt	LTP195	ltpFR	5	12	-1	BUILDER	190	n/a	-1	n/a	n/a	n/a	n/a	n/a
1962.846	n/a	REC_WORD	981423	wordpools/wasnorm_wordpool_less_exclusions.txt	LTP195	ltpFR	5	12	-1	TOTE	1487	n/a	-1	n/a	n/a	n/a	n/a	n/a
1964.426	n/a	REC_WORD	982213	wordpools/wasnorm_wordpool_less_exclusions.txt	LTP195	ltpFR	5	12	-1	SHORTS	1293	n/a	-1	n/a	n/a	n/a	n/a	n/a
1965.384	n/a	REC_WORD	982692	wordpools/wasnorm_wordpool_less_exclusions.txt	LTP195	ltpFR	5	12	-1	FLANNEL	574	n/a	-1	n/a	n/a	n/a	n/a	n/a
1966.388	n/a	REC_WORD	983194	wordpools/wasnorm_wordpool_less_exclusions.txt	LTP195	ltpFR	5	12	-1	POLYESTER	1100	n/a	-1	n/a	n/a	n/a	n/a	n/a
1969.266	n/a	REC_WORD	984633	wordpools/wasnorm_wordpool_less_exclusions.txt	LTP195	ltpFR	5	12	-1	GAZELLE	628	n/a	-1	n/a	n/a	n/a	n/a	n/a
1970.914	n/a	REC_WORD	985457	wordpools/wasnorm_wordpool_less_exclusions.txt	LTP195	ltpFR	5	12	-1	RAFT	1159	n/a	-1	n/a	n/a	n/a	n/a	n/a
1971.742	n/a	REC_WORD	985871	wordpools/wasnorm_wordpool_less_exclusions.txt	LTP195	ltpFR	5	12	-1	PADDLE	1000	n/a	-1	n/a	n/a	n/a	n/a	n/a
1973.886	n/a	REC_WORD	986943	wordpools/wasnorm_wordpool_less_exclusions.txt	LTP195	ltpFR	5	12	-1	STREAM	1392	n/a	-1	n/a	n/a	n/a	n/a	n/a
1977.878	n/a	REC_WORD	988939	wordpools/wasnorm_wordpool_less_exclusions.txt	LTP195	ltpFR	5	12	-1	MANSION	864	n/a	-1	n/a	n/a	n/a	n/a	n/a
1978.616	n/a	REC_WORD	989308	wordpools/wasnorm_wordpool_less_exclusions.txt	LTP195	ltpFR	5	12	1	SHOWER	1296	n/a	1	n/a	n/a	n/a	n/a	n/a
1981.938	n/a	REC_WORD	990969	wordpools/wasnorm_wordpool_less_exclusions.txt	LTP195	ltpFR	5	12	-1	LAUNDRY	803	n/a	-1	n/a	n/a	n/a	n/a	n/a
2036.35	n/a	REST_REWET	1018175	n/a	LTP195	ltpFR	5	12	n/a	n/a	n/a	n/a	n/a	n/a	n/a	n/a	n/a	n/a
2294.554	n/a	WORD	1147277	wordpools/wasnorm_wordpool_less_exclusions.txt	LTP195	ltpFR	5	13	-1	RESTAURANT	1187	n/a	-1	1	1.0	1.0	upper	../fonts/Verdana.ttf
2298.582	n/a	WORD	1149291	wordpools/wasnorm_wordpool_less_exclusions.txt	LTP195	ltpFR	5	13	-1	MOSS	918	n/a	-1	1	1.0	1.0	upper	../fonts/Verdana.ttf
2302.564	n/a	WORD	1151282	wordpools/wasnorm_wordpool_less_exclusions.txt	LTP195	ltpFR	5	13	-1	ACROBAT	4	n/a	-1	1	1.0	1.0	upper	../fonts/Verdana.ttf
2306.68	n/a	WORD	1153340	wordpools/wasnorm_wordpool_less_exclusions.txt	LTP195	ltpFR	5	13	-1	TABLET	1427	n/a	-1	1	1.0	1.0	upper	../fonts/Verdana.ttf
2310.512	n/a	WORD	1155256	wordpools/wasnorm_wordpool_less_exclusions.txt	LTP195	ltpFR	5	13	-1	PAPER	1011	n/a	-1	1	1.0	1.0	upper	../fonts/Verdana.ttf
2314.646	n/a	WORD	1157323	wordpools/wasnorm_wordpool_less_exclusions.txt	LTP195	ltpFR	5	13	-1	BALLOT	76	n/a	-1	1	1.0	1.0	upper	../fonts/Verdana.ttf
2318.776	n/a	WORD	1159388	wordpools/wasnorm_wordpool_less_exclusions.txt	LTP195	ltpFR	5	13	-1	REGISTER	1180	n/a	-1	1	1.0	1.0	upper	../fonts/Verdana.ttf
2322.858	n/a	WORD	1161429	wordpools/wasnorm_wordpool_less_exclusions.txt	LTP195	ltpFR	5	13	-1	EYE	545	n/a	-1	1	1.0	1.0	upper	../fonts/Verdana.ttf
2326.722	n/a	WORD	1163361	wordpools/wasnorm_wordpool_less_exclusions.txt	LTP195	ltpFR	5	13	-1	BALCONY	72	n/a	-1	1	1.0	1.0	upper	../fonts/Verdana.ttf
2330.622	n/a	WORD	1165311	wordpools/wasnorm_wordpool_less_exclusions.txt	LTP195	ltpFR	5	13	-1	CHEMIST	292	n/a	-1	1	1.0	1.0	upper	../fonts/Verdana.ttf
2334.738	n/a	WORD	1167369	wordpools/wasnorm_wordpool_less_exclusions.txt	LTP195	ltpFR	5	13	-1	CHOCOLATE	306	n/a	-1	1	1.0	1.0	upper	../fonts/Verdana.ttf
2338.72	n/a	WORD	1169360	wordpools/wasnorm_wordpool_less_exclusions.txt	LTP195	ltpFR	5	13	-1	PEAR	1033	n/a	-1	1	1.0	1.0	upper	../fonts/Verdana.ttf
2342.756	n/a	WORD	1171378	wordpools/wasnorm_wordpool_less_exclusions.txt	LTP195	ltpFR	5	13	-1	BANANA	77	n/a	-1	1	1.0	1.0	upper	../fonts/Verdana.ttf
2346.65	n/a	WORD	1173325	wordpools/wasnorm_wordpool_less_exclusions.txt	LTP195	ltpFR	5	13	-1	BIOLOGIST	128	n/a	-1	1	1.0	1.0	upper	../fonts/Verdana.ttf
2350.798	n/a	WORD	1175399	wordpools/wasnorm_wordpool_less_exclusions.txt	LTP195	ltpFR	5	13	-1	MARKET	871	n/a	-1	1	1.0	1.0	upper	../fonts/Verdana.ttf
2354.78	n/a	WORD	1177390	wordpools/wasnorm_wordpool_less_exclusions.txt	LTP195	ltpFR	5	13	-1	MATTRESS	879	n/a	-1	1	1.0	1.0	upper	../fonts/Verdana.ttf
2360.502	n/a	REC_START	1180251	n/a	LTP195	ltpFR	5	13	n/a	n/a	n/a	n/a	n/a	n/a	n/a	n/a	n/a	n/a
2361.544	n/a	REC_WORD	1180772	wordpools/wasnorm_wordpool_less_exclusions.txt	LTP195	ltpFR	5	13	-1	MARKET	871	n/a	-1	n/a	n/a	n/a	n/a	n/a
2362.692	n/a	REC_WORD	1181346	wordpools/wasnorm_wordpool_less_exclusions.txt	LTP195	ltpFR	5	13	-1	MATTRESS	879	n/a	-1	n/a	n/a	n/a	n/a	n/a
2364.832	n/a	REC_WORD	1182416	wordpools/wasnorm_wordpool_less_exclusions.txt	LTP195	ltpFR	5	13	-1	RESTAURANT	1187	n/a	-1	n/a	n/a	n/a	n/a	n/a
2366.02	n/a	REC_WORD	1183010	wordpools/wasnorm_wordpool_less_exclusions.txt	LTP195	ltpFR	5	13	-1	MOSS	918	n/a	-1	n/a	n/a	n/a	n/a	n/a
2367.164	n/a	REC_WORD	1183582	wordpools/wasnorm_wordpool_less_exclusions.txt	LTP195	ltpFR	5	13	-1	BALCONY	72	n/a	-1	n/a	n/a	n/a	n/a	n/a
2368.22	n/a	REC_WORD	1184110	wordpools/wasnorm_wordpool_less_exclusions.txt	LTP195	ltpFR	5	13	-1	REGISTER	1180	n/a	-1	n/a	n/a	n/a	n/a	n/a
2370.964	n/a	REC_WORD	1185482	wordpools/wasnorm_wordpool_less_exclusions.txt	LTP195	ltpFR	5	13	-1	ACROBAT	4	n/a	-1	n/a	n/a	n/a	n/a	n/a
2372.068	n/a	REC_WORD	1186034	wordpools/wasnorm_wordpool_less_exclusions.txt	LTP195	ltpFR	5	13	-1	EYE	545	n/a	-1	n/a	n/a	n/a	n/a	n/a
2373.11	n/a	REC_WORD	1186555	wordpools/wasnorm_wordpool_less_exclusions.txt	LTP195	ltpFR	5	13	n/a	BALLET	-1	n/a	n/a	n/a	n/a	n/a	n/a	n/a
2374.248	n/a	REC_WORD_VV	1187124	wordpools/wasnorm_wordpool_less_exclusions.txt	LTP195	ltpFR	5	13	n/a	<>	-1	n/a	n/a	n/a	n/a	n/a	n/a	n/a
2374.546	n/a	REC_WORD	1187273	wordpools/wasnorm_wordpool_less_exclusions.txt	LTP195	ltpFR	5	13	-1	BALLOT	76	n/a	-1	n/a	n/a	n/a	n/a	n/a
2379.486	n/a	REC_WORD	1189743	wordpools/wasnorm_wordpool_less_exclusions.txt	LTP195	ltpFR	5	13	-1	CHEMIST	292	n/a	-1	n/a	n/a	n/a	n/a	n/a
2380.778	n/a	REC_WORD	1190389	wordpools/wasnorm_wordpool_less_exclusions.txt	LTP195	ltpFR	5	13	-1	BIOLOGIST	128	n/a	-1	n/a	n/a	n/a	n/a	n/a
2382.638	n/a	REC_WORD	1191319	wordpools/wasnorm_wordpool_less_exclusions.txt	LTP195	ltpFR	5	13	-1	CHEMIST	292	n/a	-1	n/a	n/a	n/a	n/a	n/a
2383.92	n/a	REC_WORD	1191960	wordpools/wasnorm_wordpool_less_exclusions.txt	LTP195	ltpFR	5	13	-1	CHOCOLATE	306	n/a	-1	n/a	n/a	n/a	n/a	n/a
2385.168	n/a	REC_WORD	1192584	wordpools/wasnorm_wordpool_less_exclusions.txt	LTP195	ltpFR	5	13	-1	PEAR	1033	n/a	-1	n/a	n/a	n/a	n/a	n/a
2386.236	n/a	REC_WORD	1193118	wordpools/wasnorm_wordpool_less_exclusions.txt	LTP195	ltpFR	5	13	-1	BANANA	77	n/a	-1	n/a	n/a	n/a	n/a	n/a
2388.222	n/a	REC_WORD	1194111	wordpools/wasnorm_wordpool_less_exclusions.txt	LTP195	ltpFR	5	13	-1	PAPER	1011	n/a	-1	n/a	n/a	n/a	n/a	n/a
2443.324	n/a	WORD	1221662	wordpools/wasnorm_wordpool_less_exclusions.txt	LTP195	ltpFR	5	14	-1	WORLD	1622	n/a	-1	1	1.0	1.0	upper	../fonts/Verdana.ttf
2447.336	n/a	WORD	1223668	wordpools/wasnorm_wordpool_less_exclusions.txt	LTP195	ltpFR	5	14	-1	CUE	422	n/a	-1	1	1.0	1.0	upper	../fonts/Verdana.ttf
2451.198	n/a	WORD	1225599	wordpools/wasnorm_wordpool_less_exclusions.txt	LTP195	ltpFR	5	14	-1	CRITIC	410	n/a	-1	1	1.0	1.0	upper	../fonts/Verdana.ttf
2455.084	n/a	WORD	1227542	wordpools/wasnorm_wordpool_less_exclusions.txt	LTP195	ltpFR	5	14	-1	SCENERY	1247	n/a	-1	1	1.0	1.0	upper	../fonts/Verdana.ttf
2458.896	n/a	WORD	1229448	wordpools/wasnorm_wordpool_less_exclusions.txt	LTP195	ltpFR	5	14	-1	SCREW	1254	n/a	-1	1	1.0	1.0	upper	../fonts/Verdana.ttf
2462.928	n/a	WORD	1231464	wordpools/wasnorm_wordpool_less_exclusions.txt	LTP195	ltpFR	5	14	-1	MASK	876	n/a	-1	1	1.0	1.0	upper	../fonts/Verdana.ttf
2467.06	n/a	WORD	1233530	wordpools/wasnorm_wordpool_less_exclusions.txt	LTP195	ltpFR	5	14	-1	CAR	241	n/a	-1	1	1.0	1.0	upper	../fonts/Verdana.ttf
2471.258	n/a	WORD	1235629	wordpools/wasnorm_wordpool_less_exclusions.txt	LTP195	ltpFR	5	14	-1	EUROPE	541	n/a	-1	1	1.0	1.0	upper	../fonts/Verdana.ttf
2475.14	n/a	WORD	1237570	wordpools/wasnorm_wordpool_less_exclusions.txt	LTP195	ltpFR	5	14	-1	SHINGLE	1285	n/a	-1	1	1.0	1.0	upper	../fonts/Verdana.ttf
2478.972	n/a	WORD	1239486	wordpools/wasnorm_wordpool_less_exclusions.txt	LTP195	ltpFR	5	14	-1	THORN	1459	n/a	-1	1	1.0	1.0	upper	../fonts/Verdana.ttf
2482.904	n/a	WORD	1241452	wordpools/wasnorm_wordpool_less_exclusions.txt	LTP195	ltpFR	5	14	-1	HUT	729	n/a	-1	1	1.0	1.0	upper	../fonts/Verdana.ttf
2486.886	n/a	WORD	1243443	wordpools/wasnorm_wordpool_less_exclusions.txt	LTP195	ltpFR	5	14	-1	VILLAGE	1566	n/a	-1	1	1.0	1.0	upper	../fonts/Verdana.ttf
2490.952	n/a	WORD	1245476	wordpools/wasnorm_wordpool_less_exclusions.txt	LTP195	ltpFR	5	14	-1	SHELF	1280	n/a	-1	1	1.0	1.0	upper	../fonts/Verdana.ttf
2495.082	n/a	WORD	1247541	wordpools/wasnorm_wordpool_less_exclusions.txt	LTP195	ltpFR	5	14	-1	LITERATURE	831	n/a	-1	1	1.0	1.0	upper	../fonts/Verdana.ttf
2499.2	n/a	WORD	1249600	wordpools/wasnorm_wordpool_less_exclusions.txt	LTP195	ltpFR	5	14	-1	ROOF	1205	n/a	-1	1	1.0	1.0	upper	../fonts/Verdana.ttf
2503.182	n/a	WORD	1251591	wordpools/wasnorm_wordpool_less_exclusions.txt	LTP195	ltpFR	5	14	-1	CONTINENT	367	n/a	-1	1	1.0	1.0	upper	../fonts/Verdana.ttf
2509.188	n/a	REC_START	1254594	n/a	LTP195	ltpFR	5	14	n/a	n/a	n/a	n/a	n/a	n/a	n/a	n/a	n/a	n/a
2510.182	n/a	REC_WORD	1255091	wordpools/wasnorm_wordpool_less_exclusions.txt	LTP195	ltpFR	5	14	-1	CONTINENT	367	n/a	-1	n/a	n/a	n/a	n/a	n/a
2511.592	n/a	REC_WORD	1255796	wordpools/wasnorm_wordpool_less_exclusions.txt	LTP195	ltpFR	5	14	-1	EUROPE	541	n/a	-1	n/a	n/a	n/a	n/a	n/a
2512.77	n/a	REC_WORD	1256385	wordpools/wasnorm_wordpool_less_exclusions.txt	LTP195	ltpFR	5	14	-1	WORLD	1622	n/a	-1	n/a	n/a	n/a	n/a	n/a
2514.078	n/a	REC_WORD	1257039	wordpools/wasnorm_wordpool_less_exclusions.txt	LTP195	ltpFR	5	14	-1	VILLAGE	1566	n/a	-1	n/a	n/a	n/a	n/a	n/a
2515.31	n/a	REC_WORD	1257655	wordpools/wasnorm_wordpool_less_exclusions.txt	LTP195	ltpFR	5	14	-1	HUT	729	n/a	-1	n/a	n/a	n/a	n/a	n/a
2517.212	n/a	REC_WORD	1258606	wordpools/wasnorm_wordpool_less_exclusions.txt	LTP195	ltpFR	5	14	-1	SHINGLE	1285	n/a	-1	n/a	n/a	n/a	n/a	n/a
2521.466	n/a	REC_WORD	1260733	wordpools/wasnorm_wordpool_less_exclusions.txt	LTP195	ltpFR	5	14	-1	CUE	422	n/a	-1	n/a	n/a	n/a	n/a	n/a
2522.714	n/a	REC_WORD	1261357	wordpools/wasnorm_wordpool_less_exclusions.txt	LTP195	ltpFR	5	14	-1	CRITIC	410	n/a	-1	n/a	n/a	n/a	n/a	n/a
2523.866	n/a	REC_WORD_VV	1261933	wordpools/wasnorm_wordpool_less_exclusions.txt	LTP195	ltpFR	5	14	n/a	<>	-1	n/a	n/a	n/a	n/a	n/a	n/a	n/a
2524.424	n/a	REC_WORD	1262212	wordpools/wasnorm_wordpool_less_exclusions.txt	LTP195	ltpFR	5	14	-1	LITERATURE	831	n/a	-1	n/a	n/a	n/a	n/a	n/a
2525.996	n/a	REC_WORD	1262998	wordpools/wasnorm_wordpool_less_exclusions.txt	LTP195	ltpFR	5	14	-1	MASK	876	n/a	-1	n/a	n/a	n/a	n/a	n/a
2527.154	n/a	REC_WORD	1263577	wordpools/wasnorm_wordpool_less_exclusions.txt	LTP195	ltpFR	5	14	-1	SCREW	1254	n/a	-1	n/a	n/a	n/a	n/a	n/a
2531.468	n/a	REC_WORD	1265734	wordpools/wasnorm_wordpool_less_exclusions.txt	LTP195	ltpFR	5	14	-1	SHELF	1280	n/a	-1	n/a	n/a	n/a	n/a	n/a
2609.206	n/a	WORD	1304603	wordpools/wasnorm_wordpool_less_exclusions.txt	LTP195	ltpFR	5	15	1	CAFE	216	n/a	0	1	0.412841796875	0.57763671875	upper	../fonts/zerothre.ttf
2613.184	n/a	WORD	1306592	wordpools/wasnorm_wordpool_less_exclusions.txt	LTP195	ltpFR	5	15	1	LUNCH	849	n/a	0	1	0.412841796875	0.57763671875	upper	../fonts/zerothre.ttf
2617.384	n/a	WORD	1308692	wordpools/wasnorm_wordpool_less_exclusions.txt	LTP195	ltpFR	5	15	1	BROOK	177	n/a	0	1	0.412841796875	0.57763671875	upper	../fonts/zerothre.ttf
2621.55	n/a	WORD	1310775	wordpools/wasnorm_wordpool_less_exclusions.txt	LTP195	ltpFR	5	15	0	LONDON	843	n/a	1	0	0.5869140625	0.422607421875	lower	../fonts/amplitud.ttf
2625.666	n/a	WORD	1312833	wordpools/wasnorm_wordpool_less_exclusions.txt	LTP195	ltpFR	5	15	0	OX	994	n/a	1	0	0.5869140625	0.422607421875	lower	../fonts/amplitud.ttf
2629.848	n/a	WORD	1314924	wordpools/wasnorm_wordpool_less_exclusions.txt	LTP195	ltpFR	5	15	0	FOREST	593	n/a	1	0	0.5869140625	0.422607421875	lower	../fonts/amplitud.ttf
2633.898	n/a	WORD	1316949	wordpools/wasnorm_wordpool_less_exclusions.txt	LTP195	ltpFR	5	15	0	TREAD	1499	n/a	0	0	0.5869140625	0.422607421875	lower	../fonts/amplitud.ttf
2638.048	n/a	WORD	1319024	wordpools/wasnorm_wordpool_less_exclusions.txt	LTP195	ltpFR	5	15	1	CYLINDER	432	n/a	0	1	0.412841796875	0.57763671875	upper	../fonts/zerothre.ttf
2641.91	n/a	WORD	1320955	wordpools/wasnorm_wordpool_less_exclusions.txt	LTP195	ltpFR	5	15	1	GARAGE	621	n/a	0	1	0.412841796875	0.57763671875	upper	../fonts/zerothre.ttf
2646.08	n/a	WORD	1323040	wordpools/wasnorm_wordpool_less_exclusions.txt	LTP195	ltpFR	5	15	0	INSTRUCTOR	741	n/a	1	0	0.5869140625	0.422607421875	lower	../fonts/amplitud.ttf
2649.994	n/a	WORD	1324997	wordpools/wasnorm_wordpool_less_exclusions.txt	LTP195	ltpFR	5	15	0	TOE	1473	n/a	0	0	0.5869140625	0.422607421875	lower	../fonts/amplitud.ttf
2654.174	n/a	WORD	1327087	wordpools/wasnorm_wordpool_less_exclusions.txt	LTP195	ltpFR	5	15	0	LIGHTNING	820	n/a	0	0	0.5869140625	0.422607421875	lower	../fonts/amplitud.ttf
2658.14	n/a	WORD	1329070	wordpools/wasnorm_wordpool_less_exclusions.txt	LTP195	ltpFR	5	15	0	BIRD	129	n/a	0	0	0.5869140625	0.422607421875	lower	../fonts/amplitud.ttf
2662.188	n/a	WORD	1331094	wordpools/wasnorm_wordpool_less_exclusions.txt	LTP195	ltpFR	5	15	1	PENGUIN	1044	n/a	1	1	0.412841796875	0.57763671875	upper	../fonts/zerothre.ttf
2666.086	n/a	WORD	1333043	wordpools/wasnorm_wordpool_less_exclusions.txt	LTP195	ltpFR	5	15	1	MANAGER	863	n/a	1	1	0.412841796875	0.57763671875	upper	../fonts/zerothre.ttf
2670.12	n/a	WORD	1335060	wordpools/wasnorm_wordpool_less_exclusions.txt	LTP195	ltpFR	5	15	1	HAIL	676	n/a	0	1	0.412841796875	0.57763671875	upper	../fonts/zerothre.ttf
2675.792	n/a	REC_START	1337896	n/a	LTP195	ltpFR	5	15	n/a	n/a	n/a	n/a	n/a	n/a	n/a	n/a	n/a	n/a
2677.248	n/a	REC_WORD	1338624	wordpools/wasnorm_wordpool_less_exclusions.txt	LTP195	ltpFR	5	15	1	HAIL	676	n/a	0	n/a	n/a	n/a	n/a	n/a
2678.5	n/a	REC_WORD	1339250	wordpools/wasnorm_wordpool_less_exclusions.txt	LTP195	ltpFR	5	15	0	LIGHTNING	820	n/a	0	n/a	n/a	n/a	n/a	n/a
2679.778	n/a	REC_WORD	1339889	wordpools/wasnorm_wordpool_less_exclusions.txt	LTP195	ltpFR	5	15	1	GARAGE	621	n/a	0	n/a	n/a	n/a	n/a	n/a
2681.224	n/a	REC_WORD	1340612	wordpools/wasnorm_wordpool_less_exclusions.txt	LTP195	ltpFR	5	15	0	INSTRUCTOR	741	n/a	1	n/a	n/a	n/a	n/a	n/a
2682.7	n/a	REC_WORD	1341350	wordpools/wasnorm_wordpool_less_exclusions.txt	LTP195	ltpFR	5	15	1	MANAGER	863	n/a	1	n/a	n/a	n/a	n/a	n/a
2683.982	n/a	REC_WORD	1341991	wordpools/wasnorm_wordpool_less_exclusions.txt	LTP195	ltpFR	5	15	0	TOE	1473	n/a	0	n/a	n/a	n/a	n/a	n/a
2685.244	n/a	REC_WORD	1342622	wordpools/wasnorm_wordpool_less_exclusions.txt	LTP195	ltpFR	5	15	1	CYLINDER	432	n/a	0	n/a	n/a	n/a	n/a	n/a
2687.11	n/a	REC_WORD	1343555	wordpools/wasnorm_wordpool_less_exclusions.txt	LTP195	ltpFR	5	15	1	PENGUIN	1044	n/a	1	n/a	n/a	n/a	n/a	n/a
2688.588	n/a	REC_WORD	1344294	wordpools/wasnorm_wordpool_less_exclusions.txt	LTP195	ltpFR	5	15	0	FOREST	593	n/a	1	n/a	n/a	n/a	n/a	n/a
2690.144	n/a	REC_WORD	1345072	wordpools/wasnorm_wordpool_less_exclusions.txt	LTP195	ltpFR	5	15	0	OX	994	n/a	1	n/a	n/a	n/a	n/a	n/a
2691.536	n/a	REC_WORD	1345768	wordpools/wasnorm_wordpool_less_exclusions.txt	LTP195	ltpFR	5	15	0	LONDON	843	n/a	1	n/a	n/a	n/a	n/a	n/a
2693.522	n/a	REC_WORD	1346761	wordpools/wasnorm_wordpool_less_exclusions.txt	LTP195	ltpFR	5	15	1	CAFE	216	n/a	0	n/a	n/a	n/a	n/a	n/a
2695.124	n/a	REC_WORD	1347562	wordpools/wasnorm_wordpool_less_exclusions.txt	LTP195	ltpFR	5	15	1	LUNCH	849	n/a	0	n/a	n/a	n/a	n/a	n/a
2696.634	n/a	REC_WORD	1348317	wordpools/wasnorm_wordpool_less_exclusions.txt	LTP195	ltpFR	5	15	1	BROOK	177	n/a	0	n/a	n/a	n/a	n/a	n/a
2759.258	n/a	WORD	1379629	wordpools/wasnorm_wordpool_less_exclusions.txt	LTP195	ltpFR	5	16	0	SWEATER	1419	n/a	1	0	0.5869140625	0.422607421875	lower	../fonts/amplitud.ttf
2763.424	n/a	WORD	1381712	wordpools/wasnorm_wordpool_less_exclusions.txt	LTP195	ltpFR	5	16	0	TIDE	1465	n/a	1	0	0.5869140625	0.422607421875	lower	../fonts/amplitud.ttf
2767.458	n/a	WORD	1383729	wordpools/wasnorm_wordpool_less_exclusions.txt	LTP195	ltpFR	5	16	0	PLUM	1090	n/a	0	0	0.5869140625	0.422607421875	lower	../fonts/amplitud.ttf
2771.422	n/a	WORD	1385711	wordpools/wasnorm_wordpool_less_exclusions.txt	LTP195	ltpFR	5	16	0	UTENSIL	1542	n/a	0	0	0.5869140625	0.422607421875	lower	../fonts/amplitud.ttf
2775.24	n/a	WORD	1387620	wordpools/wasnorm_wordpool_less_exclusions.txt	LTP195	ltpFR	5	16	0	PIGEON	1065	n/a	0	0	0.5869140625	0.422607421875	lower	../fonts/amplitud.ttf
2779.168	n/a	WORD	1389584	wordpools/wasnorm_wordpool_less_exclusions.txt	LTP195	ltpFR	5	16	0	CARDINAL	244	n/a	0	0	0.5869140625	0.422607421875	lower	../fonts/amplitud.ttf
2783.002	n/a	WORD	1391501	wordpools/wasnorm_wordpool_less_exclusions.txt	LTP195	ltpFR	5	16	0	FREEZER	604	n/a	1	0	0.5869140625	0.422607421875	lower	../fonts/amplitud.ttf
2786.948	n/a	WORD	1393474	wordpools/wasnorm_wordpool_less_exclusions.txt	LTP195	ltpFR	5	16	0	CITRUS	313	n/a	0	0	0.5869140625	0.422607421875	lower	../fonts/amplitud.ttf
2791.114	n/a	WORD	1395557	wordpools/wasnorm_wordpool_less_exclusions.txt	LTP195	ltpFR	5	16	0	PIER	1063	n/a	1	0	0.5869140625	0.422607421875	lower	../fonts/amplitud.ttf
2795.23	n/a	WORD	1397615	wordpools/wasnorm_wordpool_less_exclusions.txt	LTP195	ltpFR	5	16	0	RIVER	1194	n/a	1	0	0.5869140625	0.422607421875	lower	../fonts/amplitud.ttf
2799.094	n/a	WORD	1399547	wordpools/wasnorm_wordpool_less_exclusions.txt	LTP195	ltpFR	5	16	0	HEN	703	n/a	0	0	0.5869140625	0.422607421875	lower	../fonts/amplitud.ttf
2803.044	n/a	WORD	1401522	wordpools/wasnorm_wordpool_less_exclusions.txt	LTP195	ltpFR	5	16	0	MAGNET	855	n/a	0	0	0.5869140625	0.422607421875	lower	../fonts/amplitud.ttf
2807.044	n/a	WORD	1403522	wordpools/wasnorm_wordpool_less_exclusions.txt	LTP195	ltpFR	5	16	0	HEATER	698	n/a	0	0	0.5869140625	0.422607421875	lower	../fonts/amplitud.ttf
2811.208	n/a	WORD	1405604	wordpools/wasnorm_wordpool_less_exclusions.txt	LTP195	ltpFR	5	16	0	GENTLEMAN	631	n/a	1	0	0.5869140625	0.422607421875	lower	../fonts/amplitud.ttf
2815.19	n/a	WORD	1407595	wordpools/wasnorm_wordpool_less_exclusions.txt	LTP195	ltpFR	5	16	0	PUPIL	1143	n/a	0	0	0.5869140625	0.422607421875	lower	../fonts/amplitud.ttf
2819.24	n/a	WORD	1409620	wordpools/wasnorm_wordpool_less_exclusions.txt	LTP195	ltpFR	5	16	0	CONDUCTOR	362	n/a	1	0	0.5869140625	0.422607421875	lower	../fonts/amplitud.ttf
2825.046	n/a	REC_START	1412523	n/a	LTP195	ltpFR	5	16	n/a	n/a	n/a	n/a	n/a	n/a	n/a	n/a	n/a	n/a
2825.864	n/a	REC_WORD	1412932	wordpools/wasnorm_wordpool_less_exclusions.txt	LTP195	ltpFR	5	16	0	GENTLEMAN	631	n/a	1	n/a	n/a	n/a	n/a	n/a
2827.182	n/a	REC_WORD	1413591	wordpools/wasnorm_wordpool_less_exclusions.txt	LTP195	ltpFR	5	16	0	CONDUCTOR	362	n/a	1	n/a	n/a	n/a	n/a	n/a
2828.654	n/a	REC_WORD	1414327	wordpools/wasnorm_wordpool_less_exclusions.txt	LTP195	ltpFR	5	16	0	PUPIL	1143	n/a	0	n/a	n/a	n/a	n/a	n/a
2829.846	n/a	REC_WORD	1414923	wordpools/wasnorm_wordpool_less_exclusions.txt	LTP195	ltpFR	5	16	0	SWEATER	1419	n/a	1	n/a	n/a	n/a	n/a	n/a
2833.542	n/a	REC_WORD	1416771	wordpools/wasnorm_wordpool_less_exclusions.txt	LTP195	ltpFR	5	16	0	TIDE	1465	n/a	1	n/a	n/a	n/a	n/a	n/a
2835.034	n/a	REC_WORD	1417517	wordpools/wasnorm_wordpool_less_exclusions.txt	LTP195	ltpFR	5	16	0	PLUM	1090	n/a	0	n/a	n/a	n/a	n/a	n/a
2836.584	n/a	REC_WORD	1418292	wordpools/wasnorm_wordpool_less_exclusions.txt	LTP195	ltpFR	5	16	0	UTENSIL	1542	n/a	0	n/a	n/a	n/a	n/a	n/a
2841.046	n/a	REC_WORD	1420523	wordpools/wasnorm_wordpool_less_exclusions.txt	LTP195	ltpFR	5	16	0	RIVER	1194	n/a	1	n/a	n/a	n/a	n/a	n/a
2842.368	n/a	REC_WORD	1421184	wordpools/wasnorm_wordpool_less_exclusions.txt	LTP195	ltpFR	5	16	0	PIER	1063	n/a	1	n/a	n/a	n/a	n/a	n/a
2844.01	n/a	REC_WORD	1422005	wordpools/wasnorm_wordpool_less_exclusions.txt	LTP195	ltpFR	5	16	0	FREEZER	604	n/a	1	n/a	n/a	n/a	n/a	n/a
2845.48	n/a	REC_WORD	1422740	wordpools/wasnorm_wordpool_less_exclusions.txt	LTP195	ltpFR	5	16	0	MAGNET	855	n/a	0	n/a	n/a	n/a	n/a	n/a
2846.968	n/a	REC_WORD	1423484	wordpools/wasnorm_wordpool_less_exclusions.txt	LTP195	ltpFR	5	16	0	HEATER	698	n/a	0	n/a	n/a	n/a	n/a	n/a
2858.128	n/a	REC_WORD	1429064	wordpools/wasnorm_wordpool_less_exclusions.txt	LTP195	ltpFR	5	16	0	PIGEON	1065	n/a	0	n/a	n/a	n/a	n/a	n/a
2859.704	n/a	REC_WORD	1429852	wordpools/wasnorm_wordpool_less_exclusions.txt	LTP195	ltpFR	5	16	0	CARDINAL	244	n/a	0	n/a	n/a	n/a	n/a	n/a
2861.894	n/a	REC_WORD	1430947	wordpools/wasnorm_wordpool_less_exclusions.txt	LTP195	ltpFR	5	16	0	HEN	703	n/a	0	n/a	n/a	n/a	n/a	n/a
2924.826	n/a	REC_START	1462413	n/a	LTP195	ltpFR	5	n/a	n/a	n/a	n/a	n/a	n/a	n/a	n/a	n/a	n/a	n/a
2926.042	n/a	FFR_REC_WORD	1463021	wordpools/wasnorm_wordpool_less_exclusions.txt	LTP195	ltpFR	5	n/a	1	BROOK	177	n/a	0	n/a	n/a	n/a	n/a	n/a
2927.046	n/a	FFR_REC_WORD_VV	1463523	wordpools/wasnorm_wordpool_less_exclusions.txt	LTP195	ltpFR	5	n/a	n/a	<>	-1	n/a	n/a	n/a	n/a	n/a	n/a	n/a
2927.51	n/a	FFR_REC_WORD	1463755	wordpools/wasnorm_wordpool_less_exclusions.txt	LTP195	ltpFR	5	n/a	0	RIVER	1194	n/a	1	n/a	n/a	n/a	n/a	n/a
2929.206	n/a	FFR_REC_WORD	1464603	wordpools/wasnorm_wordpool_less_exclusions.txt	LTP195	ltpFR	5	n/a	0	TIDE	1465	n/a	1	n/a	n/a	n/a	n/a	n/a
2930.528	n/a	FFR_REC_WORD	1465264	wordpools/wasnorm_wordpool_less_exclusions.txt	LTP195	ltpFR	5	n/a	0	PIER	1063	n/a	1	n/a	n/a	n/a	n/a	n/a
2931.85	n/a	FFR_REC_WORD	1465925	wordpools/wasnorm_wordpool_less_exclusions.txt	LTP195	ltpFR	5	n/a	0	SWEATER	1419	n/a	1	n/a	n/a	n/a	n/a	n/a
2932.972	n/a	FFR_REC_WORD	1466486	wordpools/wasnorm_wordpool_less_exclusions.txt	LTP195	ltpFR	5	n/a	0	HEATER	698	n/a	0	n/a	n/a	n/a	n/a	n/a
2934.258	n/a	FFR_REC_WORD	1467129	wordpools/wasnorm_wordpool_less_exclusions.txt	LTP195	ltpFR	5	n/a	0	GENTLEMAN	631	n/a	1	n/a	n/a	n/a	n/a	n/a
2935.426	n/a	FFR_REC_WORD	1467713	wordpools/wasnorm_wordpool_less_exclusions.txt	LTP195	ltpFR	5	n/a	0	CONDUCTOR	362	n/a	1	n/a	n/a	n/a	n/a	n/a
2936.898	n/a	FFR_REC_WORD	1468449	wordpools/wasnorm_wordpool_less_exclusions.txt	LTP195	ltpFR	5	n/a	1	MAN	862	n/a	1	n/a	n/a	n/a	n/a	n/a
2937.902	n/a	FFR_REC_WORD	1468951	wordpools/wasnorm_wordpool_less_exclusions.txt	LTP195	ltpFR	5	n/a	1	WOMAN	1620	n/a	1	n/a	n/a	n/a	n/a	n/a
2939.054	n/a	FFR_REC_WORD	1469527	wordpools/wasnorm_wordpool_less_exclusions.txt	LTP195	ltpFR	5	n/a	0	PLUM	1090	n/a	0	n/a	n/a	n/a	n/a	n/a
2940.216	n/a	FFR_REC_WORD_VV	1470108	wordpools/wasnorm_wordpool_less_exclusions.txt	LTP195	ltpFR	5	n/a	n/a	<>	-1	n/a	n/a	n/a	n/a	n/a	n/a	n/a
2942.876	n/a	FFR_REC_WORD	1471438	wordpools/wasnorm_wordpool_less_exclusions.txt	LTP195	ltpFR	5	n/a	0	UTENSIL	1542	n/a	0	n/a	n/a	n/a	n/a	n/a
2946.462	n/a	FFR_REC_WORD	1473231	wordpools/wasnorm_wordpool_less_exclusions.txt	LTP195	ltpFR	5	n/a	-1	BANANA	77	n/a	-1	n/a	n/a	n/a	n/a	n/a
2948.668	n/a	FFR_REC_WORD	1474334	wordpools/wasnorm_wordpool_less_exclusions.txt	LTP195	ltpFR	5	n/a	-1	CHOCOLATE	306	n/a	-1	n/a	n/a	n/a	n/a	n/a
2952.314	n/a	FFR_REC_WORD	1476157	wordpools/wasnorm_wordpool_less_exclusions.txt	LTP195	ltpFR	5	n/a	0	MAGNET	855	n/a	0	n/a	n/a	n/a	n/a	n/a
2956.58	n/a	FFR_REC_WORD	1478290	wordpools/wasnorm_wordpool_less_exclusions.txt	LTP195	ltpFR	5	n/a	-1	ACROBAT	4	n/a	-1	n/a	n/a	n/a	n/a	n/a
2957.972	n/a	FFR_REC_WORD	1478986	wordpools/wasnorm_wordpool_less_exclusions.txt	LTP195	ltpFR	5	n/a	-1	BALLOT	76	n/a	-1	n/a	n/a	n/a	n/a	n/a
2958.826	n/a	FFR_REC_WORD	1479413	wordpools/wasnorm_wordpool_less_exclusions.txt	LTP195	ltpFR	5	n/a	-1	CHEMIST	292	n/a	-1	n/a	n/a	n/a	n/a	n/a
2959.668	n/a	FFR_REC_WORD	1479834	wordpools/wasnorm_wordpool_less_exclusions.txt	LTP195	ltpFR	5	n/a	-1	BIOLOGIST	128	n/a	-1	n/a	n/a	n/a	n/a	n/a
2960.626	n/a	FFR_REC_WORD	1480313	wordpools/wasnorm_wordpool_less_exclusions.txt	LTP195	ltpFR	5	n/a	-1	PAPER	1011	n/a	-1	n/a	n/a	n/a	n/a	n/a
2961.708	n/a	FFR_REC_WORD	1480854	wordpools/wasnorm_wordpool_less_exclusions.txt	LTP195	ltpFR	5	n/a	-1	TABLET	1427	n/a	-1	n/a	n/a	n/a	n/a	n/a
2962.89	n/a	FFR_REC_WORD	1481445	wordpools/wasnorm_wordpool_less_exclusions.txt	LTP195	ltpFR	5	n/a	-1	RESTAURANT	1187	n/a	-1	n/a	n/a	n/a	n/a	n/a
2963.994	n/a	FFR_REC_WORD	1481997	wordpools/wasnorm_wordpool_less_exclusions.txt	LTP195	ltpFR	5	n/a	-1	MOSS	918	n/a	-1	n/a	n/a	n/a	n/a	n/a
2966.034	n/a	FFR_REC_WORD	1483017	wordpools/wasnorm_wordpool_less_exclusions.txt	LTP195	ltpFR	5	n/a	-1	REGISTER	1180	n/a	-1	n/a	n/a	n/a	n/a	n/a
2968.862	n/a	FFR_REC_WORD	1484431	wordpools/wasnorm_wordpool_less_exclusions.txt	LTP195	ltpFR	5	n/a	-1	EYE	545	n/a	-1	n/a	n/a	n/a	n/a	n/a
2969.55	n/a	FFR_REC_WORD	1484775	wordpools/wasnorm_wordpool_less_exclusions.txt	LTP195	ltpFR	5	n/a	0	PUPIL	1143	n/a	0	n/a	n/a	n/a	n/a	n/a
2974.102	n/a	FFR_REC_WORD	1487051	wordpools/wasnorm_wordpool_less_exclusions.txt	LTP195	ltpFR	5	n/a	1	APPENDAGE	32	n/a	0	n/a	n/a	n/a	n/a	n/a
2975.064	n/a	FFR_REC_WORD	1487532	wordpools/wasnorm_wordpool_less_exclusions.txt	LTP195	ltpFR	5	n/a	0	SHOULDER	1294	n/a	1	n/a	n/a	n/a	n/a	n/a
2976.776	n/a	FFR_REC_WORD	1488388	wordpools/wasnorm_wordpool_less_exclusions.txt	LTP195	ltpFR	5	n/a	1	NECK	939	n/a	0	n/a	n/a	n/a	n/a	n/a
2977.738	n/a	FFR_REC_WORD	1488869	wordpools/wasnorm_wordpool_less_exclusions.txt	LTP195	ltpFR	5	n/a	1	BLOUSE	139	n/a	0	n/a	n/a	n/a	n/a	n/a
2978.986	n/a	FFR_REC_WORD	1489493	wordpools/wasnorm_wordpool_less_exclusions.txt	LTP195	ltpFR	5	n/a	1	CORAL	378	n/a	0	n/a	n/a	n/a	n/a	n/a
2981.53	n/a	FFR_REC_WORD	1490765	wordpools/wasnorm_wordpool_less_exclusions.txt	LTP195	ltpFR	5	n/a	-1	RAFT	1159	n/a	-1	n/a	n/a	n/a	n/a	n/a
2982.342	n/a	FFR_REC_WORD	1491171	wordpools/wasnorm_wordpool_less_exclusions.txt	LTP195	ltpFR	5	n/a	-1	PADDLE	1000	n/a	-1	n/a	n/a	n/a	n/a	n/a
2985.232	n/a	FFR_REC_WORD	1492616	wordpools/wasnorm_wordpool_less_exclusions.txt	LTP195	ltpFR	5	n/a	1	DIRECTOR	471	n/a	1	n/a	n/a	n/a	n/a	n/a
2986.404	n/a	FFR_REC_WORD	1493202	wordpools/wasnorm_wordpool_less_exclusions.txt	LTP195	ltpFR	5	n/a	1	MAJOR	859	n/a	0	n/a	n/a	n/a	n/a	n/a
2989.232	n/a	FFR_REC_WORD	1494616	wordpools/wasnorm_wordpool_less_exclusions.txt	LTP195	ltpFR	5	n/a	-1	MANSION	864	n/a	-1	n/a	n/a	n/a	n/a	n/a
2990.184	n/a	FFR_REC_WORD	1495092	wordpools/wasnorm_wordpool_less_exclusions.txt	LTP195	ltpFR	5	n/a	1	PALACE	1006	n/a	1	n/a	n/a	n/a	n/a	n/a
2991.228	n/a	FFR_REC_WORD	1495614	wordpools/wasnorm_wordpool_less_exclusions.txt	LTP195	ltpFR	5	n/a	1	MOAT	903	n/a	0	n/a	n/a	n/a	n/a	n/a
2992.156	n/a	FFR_REC_WORD	1496078	wordpools/wasnorm_wordpool_less_exclusions.txt	LTP195	ltpFR	5	n/a	1	SEAL	1262	n/a	1	n/a	n/a	n/a	n/a	n/a
2993.294	n/a	FFR_REC_WORD	1496647	wordpools/wasnorm_wordpool_less_exclusions.txt	LTP195	ltpFR	5	n/a	0	MOOSE	915	n/a	1	n/a	n/a	n/a	n/a	n/a
2994.676	n/a	FFR_REC_WORD	1497338	wordpools/wasnorm_wordpool_less_exclusions.txt	LTP195	ltpFR	5	n/a	0	OX	994	n/a	1	n/a	n/a	n/a	n/a	n/a
2995.778	n/a	FFR_REC_WORD	1497889	wordpools/wasnorm_wordpool_less_exclusions.txt	LTP195	ltpFR	5	n/a	0	LONDON	843	n/a	1	n/a	n/a	n/a	n/a	n/a
2997.314	n/a	FFR_REC_WORD	1498657	wordpools/wasnorm_wordpool_less_exclusions.txt	LTP195	ltpFR	5	n/a	-1	CONTINENT	367	n/a	-1	n/a	n/a	n/a	n/a	n/a
2999.226	n/a	FFR_REC_WORD	1499613	wordpools/wasnorm_wordpool_less_exclusions.txt	LTP195	ltpFR	5	n/a	-1	WORLD	1622	n/a	-1	n/a	n/a	n/a	n/a	n/a
3000.238	n/a	FFR_REC_WORD	1500119	wordpools/wasnorm_wordpool_less_exclusions.txt	LTP195	ltpFR	5	n/a	0	JUPITER	765	n/a	1	n/a	n/a	n/a	n/a	n/a
3005.442	n/a	FFR_REC_WORD	1502721	wordpools/wasnorm_wordpool_less_exclusions.txt	LTP195	ltpFR	5	n/a	0	TUNA	1518	n/a	0	n/a	n/a	n/a	n/a	n/a
3006.868	n/a	FFR_REC_WORD	1503434	wordpools/wasnorm_wordpool_less_exclusions.txt	LTP195	ltpFR	5	n/a	0	FIN	566	n/a	1	n/a	n/a	n/a	n/a	n/a
3019.934	n/a	FFR_REC_WORD	1509967	wordpools/wasnorm_wordpool_less_exclusions.txt	LTP195	ltpFR	5	n/a	1	LUNCH	849	n/a	0	n/a	n/a	n/a	n/a	n/a
3020.772	n/a	FFR_REC_WORD	1510386	wordpools/wasnorm_wordpool_less_exclusions.txt	LTP195	ltpFR	5	n/a	1	CAFE	216	n/a	0	n/a	n/a	n/a	n/a	n/a
3024.604	n/a	FFR_REC_WORD	1512302	wordpools/wasnorm_wordpool_less_exclusions.txt	LTP195	ltpFR	5	n/a	-1	GAZELLE	628	n/a	-1	n/a	n/a	n/a	n/a	n/a
3026.324	n/a	FFR_REC_WORD	1513162	wordpools/wasnorm_wordpool_less_exclusions.txt	LTP195	ltpFR	5	n/a	1	SHOWER	1296	n/a	1	n/a	n/a	n/a	n/a	n/a
3034.388	n/a	FFR_REC_WORD	1517194	wordpools/wasnorm_wordpool_less_exclusions.txt	LTP195	ltpFR	5	n/a	0	ICE	730	n/a	0	n/a	n/a	n/a	n/a	n/a
3035.176	n/a	FFR_REC_WORD	1517588	wordpools/wasnorm_wordpool_less_exclusions.txt	LTP195	ltpFR	5	n/a	0	ITEM	746	n/a	0	n/a	n/a	n/a	n/a	n/a
3045.782	n/a	FFR_REC_WORD	1522891	wordpools/wasnorm_wordpool_less_exclusions.txt	LTP195	ltpFR	5	n/a	1	TRUCK	1512	n/a	0	n/a	n/a	n/a	n/a	n/a
3046.48	n/a	FFR_REC_WORD	1523240	wordpools/wasnorm_wordpool_less_exclusions.txt	LTP195	ltpFR	5	n/a	1	ENGINE	535	n/a	0	n/a	n/a	n/a	n/a	n/a
3047.288	n/a	FFR_REC_WORD	1523644	wordpools/wasnorm_wordpool_less_exclusions.txt	LTP195	ltpFR	5	n/a	1	GARAGE	621	n/a	0	n/a	n/a	n/a	n/a	n/a
3048.076	n/a	FFR_REC_WORD	1524038	wordpools/wasnorm_wordpool_less_exclusions.txt	LTP195	ltpFR	5	n/a	0	INSTRUCTOR	741	n/a	1	n/a	n/a	n/a	n/a	n/a
3050.208	n/a	FFR_REC_WORD	1525104	wordpools/wasnorm_wordpool_less_exclusions.txt	LTP195	ltpFR	5	n/a	0	LIGHTNING	820	n/a	0	n/a	n/a	n/a	n/a	n/a
3050.95	n/a	FFR_REC_WORD	1525475	wordpools/wasnorm_wordpool_less_exclusions.txt	LTP195	ltpFR	5	n/a	1	HAIL	676	n/a	0	n/a	n/a	n/a	n/a	n/a
3051.898	n/a	FFR_REC_WORD	1525949	wordpools/wasnorm_wordpool_less_exclusions.txt	LTP195	ltpFR	5	n/a	1	CYLINDER	432	n/a	0	n/a	n/a	n/a	n/a	n/a
3054.622	n/a	FFR_REC_WORD	1527311	wordpools/wasnorm_wordpool_less_exclusions.txt	LTP195	ltpFR	5	n/a	1	CONTRACT	368	n/a	0	n/a	n/a	n/a	n/a	n/a
3055.622	n/a	FFR_REC_WORD_VV	1527811	wordpools/wasnorm_wordpool_less_exclusions.txt	LTP195	ltpFR	5	n/a	n/a	<>	-1	n/a	n/a	n/a	n/a	n/a	n/a	n/a
3061.706	n/a	FFR_REC_WORD	1530853	wordpools/wasnorm_wordpool_less_exclusions.txt	LTP195	ltpFR	5	n/a	0	FAMILY	550	n/a	1	n/a	n/a	n/a	n/a	n/a
3062.924	n/a	FFR_REC_WORD	1531462	wordpools/wasnorm_wordpool_less_exclusions.txt	LTP195	ltpFR	5	n/a	0	SWAMP	1416	n/a	1	n/a	n/a	n/a	n/a	n/a
3064.336	n/a	FFR_REC_WORD	1532168	wordpools/wasnorm_wordpool_less_exclusions.txt	LTP195	ltpFR	5	n/a	0	BUTTERFLY	206	n/a	0	n/a	n/a	n/a	n/a	n/a
3065.348	n/a	FFR_REC_WORD	1532674	wordpools/wasnorm_wordpool_less_exclusions.txt	LTP195	ltpFR	5	n/a	1	BUG	187	n/a	1	n/a	n/a	n/a	n/a	n/a
3066.714	n/a	FFR_REC_WORD	1533357	wordpools/wasnorm_wordpool_less_exclusions.txt	LTP195	ltpFR	5	n/a	1	REINDEER	1181	n/a	1	n/a	n/a	n/a	n/a	n/a
3068.87	n/a	FFR_REC_WORD	1534435	wordpools/wasnorm_wordpool_less_exclusions.txt	LTP195	ltpFR	5	n/a	0	BAY	102	n/a	1	n/a	n/a	n/a	n/a	n/a
3085.218	n/a	FFR_REC_WORD	1542609	wordpools/wasnorm_wordpool_less_exclusions.txt	LTP195	ltpFR	5	n/a	1	NUCLEUS	961	n/a	0	n/a	n/a	n/a	n/a	n/a
3086.082	n/a	FFR_REC_WORD	1543041	wordpools/wasnorm_wordpool_less_exclusions.txt	LTP195	ltpFR	5	n/a	1	ATOM	55	n/a	0	n/a	n/a	n/a	n/a	n/a
3086.85	n/a	FFR_REC_WORD	1543425	wordpools/wasnorm_wordpool_less_exclusions.txt	LTP195	ltpFR	5	n/a	0	PROTON	1132	n/a	0	n/a	n/a	n/a	n/a	n/a
3087.658	n/a	FFR_REC_WORD	1543829	wordpools/wasnorm_wordpool_less_exclusions.txt	LTP195	ltpFR	5	n/a	1	NEUTRON	947	n/a	1	n/a	n/a	n/a	n/a	n/a
3100.87	n/a	FFR_REC_WORD	1550435	wordpools/wasnorm_wordpool_less_exclusions.txt	LTP195	ltpFR	5	n/a	0	CARRIAGE	248	n/a	1	n/a	n/a	n/a	n/a	n/a
3101.678	n/a	FFR_REC_WORD	1550839	wordpools/wasnorm_wordpool_less_exclusions.txt	LTP195	ltpFR	5	n/a	0	TRICYCLE	1506	n/a	1	n/a	n/a	n/a	n/a	n/a
3147.736	n/a	FFR_REC_WORD	1573868	wordpools/wasnorm_wordpool_less_exclusions.txt	LTP195	ltpFR	5	n/a	0	FOOTBALL	591	n/a	0	n/a	n/a	n/a	n/a	n/a
3155.188	n/a	FFR_REC_WORD	1577594	wordpools/wasnorm_wordpool_less_exclusions.txt	LTP195	ltpFR	5	n/a	0	SCREEN	1253	n/a	1	n/a	n/a	n/a	n/a	n/a
3175.598	n/a	FFR_REC_WORD	1587799	wordpools/wasnorm_wordpool_less_exclusions.txt	LTP195	ltpFR	5	n/a	0	UMBRELLA	1534	n/a	0	n/a	n/a	n/a	n/a	n/a
3178.028	n/a	FFR_REC_WORD	1589014	wordpools/wasnorm_wordpool_less_exclusions.txt	LTP195	ltpFR	5	n/a	-1	HAMMER	680	n/a	-1	n/a	n/a	n/a	n/a	n/a
3180.916	n/a	FFR_REC_WORD	1590458	wordpools/wasnorm_wordpool_less_exclusions.txt	LTP195	ltpFR	5	n/a	-1	CARPENTER	246	n/a	-1	n/a	n/a	n/a	n/a	n/a
3183.072	n/a	FFR_REC_WORD	1591536	wordpools/wasnorm_wordpool_less_exclusions.txt	LTP195	ltpFR	5	n/a	-1	DRAGON	492	n/a	-1	n/a	n/a	n/a	n/a	n/a
3184.07	n/a	FFR_REC_WORD	1592035	wordpools/wasnorm_wordpool_less_exclusions.txt	LTP195	ltpFR	5	n/a	-1	STEWARDESS	1381	n/a	-1	n/a	n/a	n/a	n/a	n/a
3185.068	n/a	FFR_REC_WORD	1592534	wordpools/wasnorm_wordpool_less_exclusions.txt	LTP195	ltpFR	5	n/a	-1	HANGER	687	n/a	-1	n/a	n/a	n/a	n/a	n/a
3189.028	n/a	FFR_REC_WORD	1594514	wordpools/wasnorm_wordpool_less_exclusions.txt	LTP195	ltpFR	5	n/a	-1	VAGRANT	1544	n/a	-1	n/a	n/a	n/a	n/a	n/a
3193.644	n/a	FFR_REC_WORD	1596822	wordpools/wasnorm_wordpool_less_exclusions.txt	LTP195	ltpFR	5	n/a	-1	GLUE	643	n/a	-1	n/a	n/a	n/a	n/a	n/a
3194.602	n/a	FFR_REC_WORD	1597301	wordpools/wasnorm_wordpool_less_exclusions.txt	LTP195	ltpFR	5	n/a	-1	BLANKET	135	n/a	-1	n/a	n/a	n/a	n/a	n/a
3195.42	n/a	FFR_REC_WORD	1597710	wordpools/wasnorm_wordpool_less_exclusions.txt	LTP195	ltpFR	5	n/a	-1	MAGAZINE	853	n/a	-1	n/a	n/a	n/a	n/a	n/a
3196.83	n/a	FFR_REC_WORD	1598415	wordpools/wasnorm_wordpool_less_exclusions.txt	LTP195	ltpFR	5	n/a	-1	ENCYCLOPEDIA	533	n/a	-1	n/a	n/a	n/a	n/a	n/a
3197.83	n/a	FFR_REC_WORD_VV	1598915	wordpools/wasnorm_wordpool_less_exclusions.txt	LTP195	ltpFR	5	n/a	n/a	<>	-1	n/a	n/a	n/a	n/a	n/a	n/a	n/a
3198.232	n/a	FFR_REC_WORD	1599116	wordpools/wasnorm_wordpool_less_exclusions.txt	LTP195	ltpFR	5	n/a	-1	POLYESTER	1100	n/a	-1	n/a	n/a	n/a	n/a	n/a
3199.674	n/a	FFR_REC_WORD	1599837	wordpools/wasnorm_wordpool_less_exclusions.txt	LTP195	ltpFR	5	n/a	-1	FLANNEL	574	n/a	-1	n/a	n/a	n/a	n/a	n/a
3200.992	n/a	FFR_REC_WORD	1600496	wordpools/wasnorm_wordpool_less_exclusions.txt	LTP195	ltpFR	5	n/a	-1	SHORTS	1293	n/a	-1	n/a	n/a	n/a	n/a	n/a
3254.486	n/a	REC_START	1627243	n/a	LTP195	ltpFR	5	1	n/a	n/a	n/a	n/a	n/a	n/a	n/a	n/a	n/a	n/a
3254.534	n/a	RECOG_LURE	1627267	n/a	LTP195	ltpFR	5	1	n/a	WART	1590	4	n/a	n/a	n/a	n/a	n/a	n/a
3255.892	n/a	RECOG_RESP	1627946	n/a	LTP195	ltpFR	5	1	n/a	WART	1590	n/a	n/a	n/a	n/a	n/a	n/a	n/a
3257.364	n/a	RECOG_CONF	1628682	n/a	LTP195	ltpFR	5	1	n/a	WART	1590	4	n/a	n/a	n/a	n/a	n/a	n/a
3259.304	n/a	RECOG_TARGET	1629652	n/a	LTP195	ltpFR	5	1	1	APPENDAGE	32	5	0	n/a	n/a	n/a	n/a	n/a
3259.97	n/a	RECOG_RESP	1629985	n/a	LTP195	ltpFR	5	1	1	APPENDAGE	32	n/a	0	n/a	n/a	n/a	n/a	n/a
3260.976	n/a	RECOG_CONF	1630488	n/a	LTP195	ltpFR	5	1	1	APPENDAGE	32	5	0	n/a	n/a	n/a	n/a	n/a
3262.784	n/a	RECOG_TARGET	1631392	n/a	LTP195	ltpFR	5	1	1	TIE	1466	1	0	n/a	n/a	n/a	n/a	n/a
3263.594	n/a	RECOG_RESP	1631797	n/a	LTP195	ltpFR	5	1	1	TIE	1466	n/a	0	n/a	n/a	n/a	n/a	n/a
3264.466	n/a	RECOG_CONF	1632233	n/a	LTP195	ltpFR	5	1	1	TIE	1466	1	0	n/a	n/a	n/a	n/a	n/a
3266.316	n/a	RECOG_TARGET	1633158	n/a	LTP195	ltpFR	5	1	1	COLUMN	350	5	0	n/a	n/a	n/a	n/a	n/a
3267.018	n/a	RECOG_RESP	1633509	n/a	LTP195	ltpFR	5	1	1	COLUMN	350	n/a	0	n/a	n/a	n/a	n/a	n/a
3268.022	n/a	RECOG_CONF	1634011	n/a	LTP195	ltpFR	5	1	1	COLUMN	350	5	0	n/a	n/a	n/a	n/a	n/a
3269.794	n/a	RECOG_TARGET	1634897	n/a	LTP195	ltpFR	5	1	0	SWEATER	1419	5	1	n/a	n/a	n/a	n/a	n/a
3270.696	n/a	RECOG_RESP	1635348	n/a	LTP195	ltpFR	5	1	0	SWEATER	1419	n/a	1	n/a	n/a	n/a	n/a	n/a
3271.516	n/a	RECOG_CONF	1635758	n/a	LTP195	ltpFR	5	1	0	SWEATER	1419	5	1	n/a	n/a	n/a	n/a	n/a
3273.39	n/a	RECOG_TARGET	1636695	n/a	LTP195	ltpFR	5	1	1	TYPIST	1532	2	1	n/a	n/a	n/a	n/a	n/a
3274.172	n/a	RECOG_RESP	1637086	n/a	LTP195	ltpFR	5	1	1	TYPIST	1532	n/a	1	n/a	n/a	n/a	n/a	n/a
3275.094	n/a	RECOG_CONF	1637547	n/a	LTP195	ltpFR	5	1	1	TYPIST	1532	2	1	n/a	n/a	n/a	n/a	n/a
3276.786	n/a	RECOG_LURE	1638393	n/a	LTP195	ltpFR	5	1	n/a	KNOT	788	1	n/a	n/a	n/a	n/a	n/a	n/a
3278.136	n/a	RECOG_RESP	1639068	n/a	LTP195	ltpFR	5	1	n/a	KNOT	788	n/a	n/a	n/a	n/a	n/a	n/a	n/a
3279.29	n/a	RECOG_CONF	1639645	n/a	LTP195	ltpFR	5	1	n/a	KNOT	788	1	n/a	n/a	n/a	n/a	n/a	n/a
3281.092	n/a	RECOG_TARGET	1640546	n/a	LTP195	ltpFR	5	1	-1	HAMMER	680	5	-1	n/a	n/a	n/a	n/a	n/a
3281.758	n/a	RECOG_RESP	1640879	n/a	LTP195	ltpFR	5	1	-1	HAMMER	680	n/a	-1	n/a	n/a	n/a	n/a	n/a
3282.578	n/a	RECOG_CONF	1641289	n/a	LTP195	ltpFR	5	1	-1	HAMMER	680	5	-1	n/a	n/a	n/a	n/a	n/a
3284.402	n/a	RECOG_TARGET	1642201	n/a	LTP195	ltpFR	5	1	1	CAFE	216	5	0	n/a	n/a	n/a	n/a	n/a
3285.208	n/a	RECOG_RESP	1642604	n/a	LTP195	ltpFR	5	1	1	CAFE	216	n/a	0	n/a	n/a	n/a	n/a	n/a
3286.15	n/a	RECOG_CONF	1643075	n/a	LTP195	ltpFR	5	1	1	CAFE	216	5	0	n/a	n/a	n/a	n/a	n/a
3288.014	n/a	RECOG_TARGET	1644007	n/a	LTP195	ltpFR	5	1	0	LEG	809	1	0	n/a	n/a	n/a	n/a	n/a
3290.278	n/a	RECOG_RESP	1645139	n/a	LTP195	ltpFR	5	1	0	LEG	809	n/a	0	n/a	n/a	n/a	n/a	n/a
3291.256	n/a	RECOG_CONF	1645628	n/a	LTP195	ltpFR	5	1	0	LEG	809	1	0	n/a	n/a	n/a	n/a	n/a
3293.066	n/a	RECOG_TARGET	1646533	n/a	LTP195	ltpFR	5	1	1	ATOM	55	5	0	n/a	n/a	n/a	n/a	n/a
3294.078	n/a	RECOG_RESP	1647039	n/a	LTP195	ltpFR	5	1	1	ATOM	55	n/a	0	n/a	n/a	n/a	n/a	n/a
3295.194	n/a	RECOG_CONF	1647597	n/a	LTP195	ltpFR	5	1	1	ATOM	55	5	0	n/a	n/a	n/a	n/a	n/a
3297.048	n/a	RECOG_TARGET	1648524	n/a	LTP195	ltpFR	5	1	1	GARDEN	623	5	1	n/a	n/a	n/a	n/a	n/a
3298.43	n/a	RECOG_RESP	1649215	n/a	LTP195	ltpFR	5	1	1	GARDEN	623	n/a	1	n/a	n/a	n/a	n/a	n/a
3299.326	n/a	RECOG_CONF	1649663	n/a	LTP195	ltpFR	5	1	1	GARDEN	623	5	1	n/a	n/a	n/a	n/a	n/a
3301.234	n/a	RECOG_TARGET	1650617	n/a	LTP195	ltpFR	5	1	-1	SHINGLE	1285	5	-1	n/a	n/a	n/a	n/a	n/a
3302.366	n/a	RECOG_RESP	1651183	n/a	LTP195	ltpFR	5	1	-1	SHINGLE	1285	n/a	-1	n/a	n/a	n/a	n/a	n/a
3303.22	n/a	RECOG_CONF	1651610	n/a	LTP195	ltpFR	5	1	-1	SHINGLE	1285	5	-1	n/a	n/a	n/a	n/a	n/a
3305.028	n/a	RECOG_TARGET	1652514	n/a	LTP195	ltpFR	5	1	-1	VAGRANT	1544	5	-1	n/a	n/a	n/a	n/a	n/a
3305.682	n/a	RECOG_RESP	1652841	n/a	LTP195	ltpFR	5	1	-1	VAGRANT	1544	n/a	-1	n/a	n/a	n/a	n/a	n/a
3306.654	n/a	RECOG_CONF	1653327	n/a	LTP195	ltpFR	5	1	-1	VAGRANT	1544	5	-1	n/a	n/a	n/a	n/a	n/a
3308.44	n/a	RECOG_TARGET	1654220	n/a	LTP195	ltpFR	5	1	1	PLANT	1083	1	1	n/a	n/a	n/a	n/a	n/a
3310.68	n/a	RECOG_RESP	1655340	n/a	LTP195	ltpFR	5	1	1	PLANT	1083	n/a	1	n/a	n/a	n/a	n/a	n/a
3311.674	n/a	RECOG_CONF	1655837	n/a	LTP195	ltpFR	5	1	1	PLANT	1083	1	1	n/a	n/a	n/a	n/a	n/a
3313.41	n/a	RECOG_TARGET	1656705	n/a	LTP195	ltpFR	5	1	0	SWAMP	1416	5	1	n/a	n/a	n/a	n/a	n/a
3314.238	n/a	RECOG_RESP	1657119	n/a	LTP195	ltpFR	5	1	0	SWAMP	1416	n/a	1	n/a	n/a	n/a	n/a	n/a
3315.074	n/a	RECOG_CONF	1657537	n/a	LTP195	ltpFR	5	1	0	SWAMP	1416	5	1	n/a	n/a	n/a	n/a	n/a
3316.824	n/a	RECOG_TARGET	1658412	n/a	LTP195	ltpFR	5	1	0	MAGNET	855	5	0	n/a	n/a	n/a	n/a	n/a
3317.584	n/a	RECOG_RESP	1658792	n/a	LTP195	ltpFR	5	1	0	MAGNET	855	n/a	0	n/a	n/a	n/a	n/a	n/a
3318.356	n/a	RECOG_CONF	1659178	n/a	LTP195	ltpFR	5	1	0	MAGNET	855	5	0	n/a	n/a	n/a	n/a	n/a
3320.27	n/a	RECOG_TARGET	1660135	n/a	LTP195	ltpFR	5	1	1	BUG	187	5	1	n/a	n/a	n/a	n/a	n/a
3320.95	n/a	RECOG_RESP	1660475	n/a	LTP195	ltpFR	5	1	1	BUG	187	n/a	1	n/a	n/a	n/a	n/a	n/a
3321.866	n/a	RECOG_CONF	1660933	n/a	LTP195	ltpFR	5	1	1	BUG	187	5	1	n/a	n/a	n/a	n/a	n/a
3323.632	n/a	RECOG_LURE	1661816	n/a	LTP195	ltpFR	5	1	n/a	BANKER	84	2	n/a	n/a	n/a	n/a	n/a	n/a
3324.602	n/a	RECOG_RESP	1662301	n/a	LTP195	ltpFR	5	1	n/a	BANKER	84	n/a	n/a	n/a	n/a	n/a	n/a	n/a
3325.508	n/a	RECOG_CONF	1662754	n/a	LTP195	ltpFR	5	1	n/a	BANKER	84	2	n/a	n/a	n/a	n/a	n/a	n/a
3327.246	n/a	RECOG_TARGET	1663623	n/a	LTP195	ltpFR	5	1	1	JUDGE	761	5	1	n/a	n/a	n/a	n/a	n/a
3327.99	n/a	RECOG_RESP	1663995	n/a	LTP195	ltpFR	5	1	1	JUDGE	761	n/a	1	n/a	n/a	n/a	n/a	n/a
3328.84	n/a	RECOG_CONF	1664420	n/a	LTP195	ltpFR	5	1	1	JUDGE	761	5	1	n/a	n/a	n/a	n/a	n/a
3333.708	n/a	REC_START	1666854	n/a	LTP195	ltpFR	5	2	n/a	n/a	n/a	n/a	n/a	n/a	n/a	n/a	n/a	n/a
3333.754	n/a	RECOG_TARGET	1666877	n/a	LTP195	ltpFR	5	2	0	LONDON	843	5	1	n/a	n/a	n/a	n/a	n/a
3334.502	n/a	RECOG_RESP	1667251	n/a	LTP195	ltpFR	5	2	0	LONDON	843	n/a	1	n/a	n/a	n/a	n/a	n/a
3335.236	n/a	RECOG_CONF	1667618	n/a	LTP195	ltpFR	5	2	0	LONDON	843	5	1	n/a	n/a	n/a	n/a	n/a
3337.068	n/a	RECOG_LURE	1668534	n/a	LTP195	ltpFR	5	2	n/a	DRUG	501	2	n/a	n/a	n/a	n/a	n/a	n/a
3338.606	n/a	RECOG_RESP	1669303	n/a	LTP195	ltpFR	5	2	n/a	DRUG	501	n/a	n/a	n/a	n/a	n/a	n/a	n/a
3339.452	n/a	RECOG_CONF	1669726	n/a	LTP195	ltpFR	5	2	n/a	DRUG	501	2	n/a	n/a	n/a	n/a	n/a	n/a
3341.05	n/a	RECOG_TARGET	1670525	n/a	LTP195	ltpFR	5	2	-1	BALCONY	72	5	-1	n/a	n/a	n/a	n/a	n/a
3341.964	n/a	RECOG_RESP	1670982	n/a	LTP195	ltpFR	5	2	-1	BALCONY	72	n/a	-1	n/a	n/a	n/a	n/a	n/a
3342.732	n/a	RECOG_CONF	1671366	n/a	LTP195	ltpFR	5	2	-1	BALCONY	72	5	-1	n/a	n/a	n/a	n/a	n/a
3344.446	n/a	RECOG_TARGET	1672223	n/a	LTP195	ltpFR	5	2	1	ROBE	1198	2	0	n/a	n/a	n/a	n/a	n/a
3345.248	n/a	RECOG_RESP	1672624	n/a	LTP195	ltpFR	5	2	1	ROBE	1198	n/a	0	n/a	n/a	n/a	n/a	n/a
3346.162	n/a	RECOG_CONF	1673081	n/a	LTP195	ltpFR	5	2	1	ROBE	1198	2	0	n/a	n/a	n/a	n/a	n/a
3347.908	n/a	RECOG_LURE	1673954	n/a	LTP195	ltpFR	5	2	n/a	EXPLOSION	544	5	n/a	n/a	n/a	n/a	n/a	n/a
3348.72	n/a	RECOG_RESP	1674360	n/a	LTP195	ltpFR	5	2	n/a	EXPLOSION	544	n/a	n/a	n/a	n/a	n/a	n/a	n/a
3349.608	n/a	RECOG_CONF	1674804	n/a	LTP195	ltpFR	5	2	n/a	EXPLOSION	544	5	n/a	n/a	n/a	n/a	n/a	n/a
3351.408	n/a	RECOG_LURE	1675704	n/a	LTP195	ltpFR	5	2	n/a	CART	250	1	n/a	n/a	n/a	n/a	n/a	n/a
3352.474	n/a	RECOG_RESP	1676237	n/a	LTP195	ltpFR	5	2	n/a	CART	250	n/a	n/a	n/a	n/a	n/a	n/a	n/a
3353.402	n/a	RECOG_CONF	1676701	n/a	LTP195	ltpFR	5	2	n/a	CART	250	1	n/a	n/a	n/a	n/a	n/a	n/a
3355.12	n/a	RECOG_TARGET	1677560	n/a	LTP195	ltpFR	5	2	-1	CARPENTER	246	5	-1	n/a	n/a	n/a	n/a	n/a
3355.844	n/a	RECOG_RESP	1677922	n/a	LTP195	ltpFR	5	2	-1	CARPENTER	246	n/a	-1	n/a	n/a	n/a	n/a	n/a
3356.872	n/a	RECOG_CONF	1678436	n/a	LTP195	ltpFR	5	2	-1	CARPENTER	246	5	-1	n/a	n/a	n/a	n/a	n/a
3358.632	n/a	RECOG_TARGET	1679316	n/a	LTP195	ltpFR	5	2	1	REINDEER	1181	5	1	n/a	n/a	n/a	n/a	n/a
3359.266	n/a	RECOG_RESP	1679633	n/a	LTP195	ltpFR	5	2	1	REINDEER	1181	n/a	1	n/a	n/a	n/a	n/a	n/a
3360.108	n/a	RECOG_CONF	1680054	n/a	LTP195	ltpFR	5	2	1	REINDEER	1181	5	1	n/a	n/a	n/a	n/a	n/a
3361.912	n/a	RECOG_LURE	1680956	n/a	LTP195	ltpFR	5	2	n/a	SCOUT	1252	3	n/a	n/a	n/a	n/a	n/a	n/a
3362.68	n/a	RECOG_RESP	1681340	n/a	LTP195	ltpFR	5	2	n/a	SCOUT	1252	n/a	n/a	n/a	n/a	n/a	n/a	n/a
3363.596	n/a	RECOG_CONF	1681798	n/a	LTP195	ltpFR	5	2	n/a	SCOUT	1252	3	n/a	n/a	n/a	n/a	n/a	n/a
3365.408	n/a	RECOG_TARGET	1682704	n/a	LTP195	ltpFR	5	2	-1	DRAGON	492	5	-1	n/a	n/a	n/a	n/a	n/a
3366.088	n/a	RECOG_RESP	1683044	n/a	LTP195	ltpFR	5	2	-1	DRAGON	492	n/a	-1	n/a	n/a	n/a	n/a	n/a
3366.946	n/a	RECOG_CONF	1683473	n/a	LTP195	ltpFR	5	2	-1	DRAGON	492	5	-1	n/a	n/a	n/a	n/a	n/a
3368.788	n/a	RECOG_TARGET	1684394	n/a	LTP195	ltpFR	5	2	0	UMBRELLA	1534	5	0	n/a	n/a	n/a	n/a	n/a
3369.344	n/a	RECOG_RESP	1684672	n/a	LTP195	ltpFR	5	2	0	UMBRELLA	1534	n/a	0	n/a	n/a	n/a	n/a	n/a
3370.234	n/a	RECOG_CONF	1685117	n/a	LTP195	ltpFR	5	2	0	UMBRELLA	1534	5	0	n/a	n/a	n/a	n/a	n/a
3372.168	n/a	RECOG_TARGET	1686084	n/a	LTP195	ltpFR	5	2	0	PAW	1029	5	0	n/a	n/a	n/a	n/a	n/a
3372.828	n/a	RECOG_RESP	1686414	n/a	LTP195	ltpFR	5	2	0	PAW	1029	n/a	0	n/a	n/a	n/a	n/a	n/a
3373.606	n/a	RECOG_CONF	1686803	n/a	LTP195	ltpFR	5	2	0	PAW	1029	5	0	n/a	n/a	n/a	n/a	n/a
3375.48	n/a	RECOG_TARGET	1687740	n/a	LTP195	ltpFR	5	2	-1	SHELF	1280	5	-1	n/a	n/a	n/a	n/a	n/a
3376.06	n/a	RECOG_RESP	1688030	n/a	LTP195	ltpFR	5	2	-1	SHELF	1280	n/a	-1	n/a	n/a	n/a	n/a	n/a
3377.004	n/a	RECOG_CONF	1688502	n/a	LTP195	ltpFR	5	2	-1	SHELF	1280	5	-1	n/a	n/a	n/a	n/a	n/a
3378.778	n/a	RECOG_LURE	1689389	n/a	LTP195	ltpFR	5	2	n/a	CANYON	235	2	n/a	n/a	n/a	n/a	n/a	n/a
3379.692	n/a	RECOG_RESP	1689846	n/a	LTP195	ltpFR	5	2	n/a	CANYON	235	n/a	n/a	n/a	n/a	n/a	n/a	n/a
3380.586	n/a	RECOG_CONF	1690293	n/a	LTP195	ltpFR	5	2	n/a	CANYON	235	2	n/a	n/a	n/a	n/a	n/a	n/a
3382.29	n/a	RECOG_TARGET	1691145	n/a	LTP195	ltpFR	5	2	1	MONSTER	912	5	1	n/a	n/a	n/a	n/a	n/a
3382.998	n/a	RECOG_RESP	1691499	n/a	LTP195	ltpFR	5	2	1	MONSTER	912	n/a	1	n/a	n/a	n/a	n/a	n/a
3383.774	n/a	RECOG_CONF	1691887	n/a	LTP195	ltpFR	5	2	1	MONSTER	912	5	1	n/a	n/a	n/a	n/a	n/a
3385.736	n/a	RECOG_TARGET	1692868	n/a	LTP195	ltpFR	5	2	0	SPRINKLE	1359	5	0	n/a	n/a	n/a	n/a	n/a
3386.372	n/a	RECOG_RESP	1693186	n/a	LTP195	ltpFR	5	2	0	SPRINKLE	1359	n/a	0	n/a	n/a	n/a	n/a	n/a
3387.524	n/a	RECOG_CONF	1693762	n/a	LTP195	ltpFR	5	2	0	SPRINKLE	1359	5	0	n/a	n/a	n/a	n/a	n/a
3389.434	n/a	RECOG_TARGET	1694717	n/a	LTP195	ltpFR	5	2	1	MANAGER	863	5	1	n/a	n/a	n/a	n/a	n/a
3390.316	n/a	RECOG_RESP	1695158	n/a	LTP195	ltpFR	5	2	1	MANAGER	863	n/a	1	n/a	n/a	n/a	n/a	n/a
3391.262	n/a	RECOG_CONF	1695631	n/a	LTP195	ltpFR	5	2	1	MANAGER	863	5	1	n/a	n/a	n/a	n/a	n/a
3393.216	n/a	RECOG_TARGET	1696608	n/a	LTP195	ltpFR	5	2	0	CARDINAL	244	5	0	n/a	n/a	n/a	n/a	n/a
3393.982	n/a	RECOG_RESP	1696991	n/a	LTP195	ltpFR	5	2	0	CARDINAL	244	n/a	0	n/a	n/a	n/a	n/a	n/a
3394.882	n/a	RECOG_CONF	1697441	n/a	LTP195	ltpFR	5	2	0	CARDINAL	244	5	0	n/a	n/a	n/a	n/a	n/a
3396.666	n/a	RECOG_TARGET	1698333	n/a	LTP195	ltpFR	5	2	-1	MOSS	918	5	-1	n/a	n/a	n/a	n/a	n/a
3397.18	n/a	RECOG_RESP	1698590	n/a	LTP195	ltpFR	5	2	-1	MOSS	918	n/a	-1	n/a	n/a	n/a	n/a	n/a
3398.196	n/a	RECOG_CONF	1699098	n/a	LTP195	ltpFR	5	2	-1	MOSS	918	5	-1	n/a	n/a	n/a	n/a	n/a
3399.94	n/a	RECOG_TARGET	1699970	n/a	LTP195	ltpFR	5	2	1	SALOON	1228	5	1	n/a	n/a	n/a	n/a	n/a
3400.538	n/a	RECOG_RESP	1700269	n/a	LTP195	ltpFR	5	2	1	SALOON	1228	n/a	1	n/a	n/a	n/a	n/a	n/a
3401.464	n/a	RECOG_CONF	1700732	n/a	LTP195	ltpFR	5	2	1	SALOON	1228	5	1	n/a	n/a	n/a	n/a	n/a
3405.19	n/a	REC_START	1702595	n/a	LTP195	ltpFR	5	3	n/a	n/a	n/a	n/a	n/a	n/a	n/a	n/a	n/a	n/a
3405.23	n/a	RECOG_TARGET	1702615	n/a	LTP195	ltpFR	5	3	0	PLUM	1090	5	0	n/a	n/a	n/a	n/a	n/a
3406.292	n/a	RECOG_RESP	1703146	n/a	LTP195	ltpFR	5	3	0	PLUM	1090	n/a	0	n/a	n/a	n/a	n/a	n/a
3407.292	n/a	RECOG_CONF	1703646	n/a	LTP195	ltpFR	5	3	0	PLUM	1090	5	0	n/a	n/a	n/a	n/a	n/a
3408.874	n/a	RECOG_TARGET	1704437	n/a	LTP195	ltpFR	5	3	-1	GAZELLE	628	5	-1	n/a	n/a	n/a	n/a	n/a
3409.436	n/a	RECOG_RESP	1704718	n/a	LTP195	ltpFR	5	3	-1	GAZELLE	628	n/a	-1	n/a	n/a	n/a	n/a	n/a
3410.386	n/a	RECOG_CONF	1705193	n/a	LTP195	ltpFR	5	3	-1	GAZELLE	628	5	-1	n/a	n/a	n/a	n/a	n/a
3412.272	n/a	RECOG_TARGET	1706136	n/a	LTP195	ltpFR	5	3	-1	WORLD	1622	5	-1	n/a	n/a	n/a	n/a	n/a
3412.922	n/a	RECOG_RESP	1706461	n/a	LTP195	ltpFR	5	3	-1	WORLD	1622	n/a	-1	n/a	n/a	n/a	n/a	n/a
3413.766	n/a	RECOG_CONF	1706883	n/a	LTP195	ltpFR	5	3	-1	WORLD	1622	5	-1	n/a	n/a	n/a	n/a	n/a
3415.534	n/a	RECOG_TARGET	1707767	n/a	LTP195	ltpFR	5	3	0	TOASTER	1472	5	0	n/a	n/a	n/a	n/a	n/a
3416.228	n/a	RECOG_RESP	1708114	n/a	LTP195	ltpFR	5	3	0	TOASTER	1472	n/a	0	n/a	n/a	n/a	n/a	n/a
3417.036	n/a	RECOG_CONF	1708518	n/a	LTP195	ltpFR	5	3	0	TOASTER	1472	5	0	n/a	n/a	n/a	n/a	n/a
3418.762	n/a	RECOG_TARGET	1709381	n/a	LTP195	ltpFR	5	3	0	SHOULDER	1294	5	1	n/a	n/a	n/a	n/a	n/a
3419.494	n/a	RECOG_RESP	1709747	n/a	LTP195	ltpFR	5	3	0	SHOULDER	1294	n/a	1	n/a	n/a	n/a	n/a	n/a
3420.662	n/a	RECOG_CONF	1710331	n/a	LTP195	ltpFR	5	3	0	SHOULDER	1294	5	1	n/a	n/a	n/a	n/a	n/a
3422.426	n/a	RECOG_TARGET	1711213	n/a	LTP195	ltpFR	5	3	-1	BIOLOGIST	128	5	-1	n/a	n/a	n/a	n/a	n/a
3423.074	n/a	RECOG_RESP	1711537	n/a	LTP195	ltpFR	5	3	-1	BIOLOGIST	128	n/a	-1	n/a	n/a	n/a	n/a	n/a
3424.04	n/a	RECOG_CONF	1712020	n/a	LTP195	ltpFR	5	3	-1	BIOLOGIST	128	5	-1	n/a	n/a	n/a	n/a	n/a
3425.638	n/a	RECOG_TARGET	1712819	n/a	LTP195	ltpFR	5	3	1	WAVE	1596	5	1	n/a	n/a	n/a	n/a	n/a
3426.27	n/a	RECOG_RESP	1713135	n/a	LTP195	ltpFR	5	3	1	WAVE	1596	n/a	1	n/a	n/a	n/a	n/a	n/a
3427.158	n/a	RECOG_CONF	1713579	n/a	LTP195	ltpFR	5	3	1	WAVE	1596	5	1	n/a	n/a	n/a	n/a	n/a
3428.92	n/a	RECOG_LURE	1714460	n/a	LTP195	ltpFR	5	3	n/a	LOG	841	2	n/a	n/a	n/a	n/a	n/a	n/a
3429.866	n/a	RECOG_RESP	1714933	n/a	LTP195	ltpFR	5	3	n/a	LOG	841	n/a	n/a	n/a	n/a	n/a	n/a	n/a
3430.798	n/a	RECOG_CONF	1715399	n/a	LTP195	ltpFR	5	3	n/a	LOG	841	2	n/a	n/a	n/a	n/a	n/a	n/a
3432.432	n/a	RECOG_TARGET	1716216	n/a	LTP195	ltpFR	5	3	0	RAKE	1164	5	0	n/a	n/a	n/a	n/a	n/a
3433.104	n/a	RECOG_RESP	1716552	n/a	LTP195	ltpFR	5	3	0	RAKE	1164	n/a	0	n/a	n/a	n/a	n/a	n/a
3433.932	n/a	RECOG_CONF	1716966	n/a	LTP195	ltpFR	5	3	0	RAKE	1164	5	0	n/a	n/a	n/a	n/a	n/a
3435.694	n/a	RECOG_TARGET	1717847	n/a	LTP195	ltpFR	5	3	-1	LITERATURE	831	5	-1	n/a	n/a	n/a	n/a	n/a
3436.342	n/a	RECOG_RESP	1718171	n/a	LTP195	ltpFR	5	3	-1	LITERATURE	831	n/a	-1	n/a	n/a	n/a	n/a	n/a
3438.09	n/a	RECOG_CONF	1719045	n/a	LTP195	ltpFR	5	3	-1	LITERATURE	831	5	-1	n/a	n/a	n/a	n/a	n/a
3439.876	n/a	RECOG_TARGET	1719938	n/a	LTP195	ltpFR	5	3	0	BAY	102	5	1	n/a	n/a	n/a	n/a	n/a
3440.462	n/a	RECOG_RESP	1720231	n/a	LTP195	ltpFR	5	3	0	BAY	102	n/a	1	n/a	n/a	n/a	n/a	n/a
3441.348	n/a	RECOG_CONF	1720674	n/a	LTP195	ltpFR	5	3	0	BAY	102	5	1	n/a	n/a	n/a	n/a	n/a
3443.056	n/a	RECOG_TARGET	1721528	n/a	LTP195	ltpFR	5	3	1	CANOE	233	2	0	n/a	n/a	n/a	n/a	n/a
3449.182	n/a	RECOG_RESP	1724591	n/a	LTP195	ltpFR	5	3	1	CANOE	233	n/a	0	n/a	n/a	n/a	n/a	n/a
