onset	duration	trial_type	sample	stim_file	subject	experiment	session	trial	item_name	item_num	list	answer	test_x	test_y	test_z
248.578	n/a	SESS_START	124289	n/a	LTP302	ltpFR2	3	n/a	n/a	n/a	n/a	n/a	0	0	0
270.278	n/a	START	135139	n/a	LTP302	ltpFR2	3	n/a	n/a	n/a	-1	n/a	n/a	n/a	n/a
270.294	n/a	PROB	135147	n/a	LTP302	ltpFR2	3	n/a	n/a	n/a	-1	18	2	7	9
272.512	n/a	PROB	136256	n/a	LTP302	ltpFR2	3	n/a	n/a	n/a	-1	18	7	9	2
274.58	n/a	PROB	137290	n/a	LTP302	ltpFR2	3	n/a	n/a	n/a	-1	13	4	1	8
276.48	n/a	PROB	138240	n/a	LTP302	ltpFR2	3	n/a	n/a	n/a	-1	18	8	5	5
278.014	n/a	PROB	139007	n/a	LTP302	ltpFR2	3	n/a	n/a	n/a	-1	10	4	5	1
282.278	n/a	STOP	141139	n/a	LTP302	ltpFR2	3	n/a	n/a	n/a	-1	n/a	n/a	n/a	n/a
318.232	n/a	DISTRACTOR	159116	n/a	LTP302	ltpFR2	3	1	n/a	n/a	n/a	n/a	0	0	0
318.232	n/a	START	159116	n/a	LTP302	ltpFR2	3	n/a	n/a	n/a	1	n/a	n/a	n/a	n/a
318.248	n/a	PROB	159124	n/a	LTP302	ltpFR2	3	n/a	n/a	n/a	1	14	2	6	6
321.166	n/a	PROB	160583	n/a	LTP302	ltpFR2	3	n/a	n/a	n/a	1	18	3	7	8
322.836	n/a	PROB	161418	n/a	LTP302	ltpFR2	3	n/a	n/a	n/a	1	17	9	3	5
324.986	n/a	PROB	162493	n/a	LTP302	ltpFR2	3	n/a	n/a	n/a	1	20	8	4	8
326.922	n/a	PROB	163461	n/a	LTP302	ltpFR2	3	n/a	n/a	n/a	1	19	3	9	7
328.872	n/a	PROB	164436	n/a	LTP302	ltpFR2	3	n/a	n/a	n/a	1	20	7	6	7
331.09	n/a	PROB	165545	n/a	LTP302	ltpFR2	3	n/a	n/a	n/a	1	21	9	7	5
333.208	n/a	PROB	166604	n/a	LTP302	ltpFR2	3	n/a	n/a	n/a	1	14	4	7	3
334.694	n/a	PROB	167347	n/a	LTP302	ltpFR2	3	n/a	n/a	n/a	1	8	3	4	1
336.528	n/a	PROB	168264	n/a	LTP302	ltpFR2	3	n/a	n/a	n/a	1	20	5	8	7
338.48	n/a	PROB	169240	n/a	LTP302	ltpFR2	3	n/a	n/a	n/a	1	12	6	1	5
340.216	n/a	PROB	170108	n/a	LTP302	ltpFR2	3	n/a	n/a	n/a	1	8	4	2	2
341.702	n/a	STOP	170851	n/a	LTP302	ltpFR2	3	n/a	n/a	n/a	1	n/a	n/a	n/a	n/a
343.16	n/a	WORD	171580	wordpools/wasnorm_wordpool_576.txt	LTP302	ltpFR2	3	1	EXPERT	543	n/a	n/a	0	0	0
345.804	n/a	WORD	172902	wordpools/wasnorm_wordpool_576.txt	LTP302	ltpFR2	3	1	GAZELLE	628	n/a	n/a	0	0	0
348.448	n/a	WORD	174224	wordpools/wasnorm_wordpool_576.txt	LTP302	ltpFR2	3	1	COWBOY	395	n/a	n/a	0	0	0
350.95	n/a	WORD	175475	wordpools/wasnorm_wordpool_576.txt	LTP302	ltpFR2	3	1	OUTFIT	988	n/a	n/a	0	0	0
353.41	n/a	WORD	176705	wordpools/wasnorm_wordpool_576.txt	LTP302	ltpFR2	3	1	STAPLE	1371	n/a	n/a	0	0	0
355.896	n/a	WORD	177948	wordpools/wasnorm_wordpool_576.txt	LTP302	ltpFR2	3	1	PROTON	1132	n/a	n/a	0	0	0
358.656	n/a	WORD	179328	wordpools/wasnorm_wordpool_576.txt	LTP302	ltpFR2	3	1	OX	994	n/a	n/a	0	0	0
361.4	n/a	WORD	180700	wordpools/wasnorm_wordpool_576.txt	LTP302	ltpFR2	3	1	GRAPE	654	n/a	n/a	0	0	0
363.944	n/a	WORD	181972	wordpools/wasnorm_wordpool_576.txt	LTP302	ltpFR2	3	1	SUNSET	1408	n/a	n/a	0	0	0
366.614	n/a	WORD	183307	wordpools/wasnorm_wordpool_576.txt	LTP302	ltpFR2	3	1	KITCHEN	778	n/a	n/a	0	0	0
369.172	n/a	WORD	184586	wordpools/wasnorm_wordpool_576.txt	LTP302	ltpFR2	3	1	BREAST	171	n/a	n/a	0	0	0
371.908	n/a	WORD	185954	wordpools/wasnorm_wordpool_576.txt	LTP302	ltpFR2	3	1	PICNIC	1060	n/a	n/a	0	0	0
374.594	n/a	WORD	187297	wordpools/wasnorm_wordpool_576.txt	LTP302	ltpFR2	3	1	SUPPER	1411	n/a	n/a	0	0	0
377.206	n/a	WORD	188603	wordpools/wasnorm_wordpool_576.txt	LTP302	ltpFR2	3	1	CONTRACT	368	n/a	n/a	0	0	0
379.808	n/a	WORD	189904	wordpools/wasnorm_wordpool_576.txt	LTP302	ltpFR2	3	1	GRIZZLY	662	n/a	n/a	0	0	0
382.31	n/a	WORD	191155	wordpools/wasnorm_wordpool_576.txt	LTP302	ltpFR2	3	1	SUITCASE	1403	n/a	n/a	0	0	0
384.862	n/a	WORD	192431	wordpools/wasnorm_wordpool_576.txt	LTP302	ltpFR2	3	1	LADDER	793	n/a	n/a	0	0	0
387.582	n/a	WORD	193791	wordpools/wasnorm_wordpool_576.txt	LTP302	ltpFR2	3	1	SLOPE	1328	n/a	n/a	0	0	0
390.238	n/a	WORD	195119	wordpools/wasnorm_wordpool_576.txt	LTP302	ltpFR2	3	1	BRIEFCASE	175	n/a	n/a	0	0	0
392.97	n/a	WORD	196485	wordpools/wasnorm_wordpool_576.txt	LTP302	ltpFR2	3	1	CROSS	413	n/a	n/a	0	0	0
395.638	n/a	WORD	197819	wordpools/wasnorm_wordpool_576.txt	LTP302	ltpFR2	3	1	WARDROBE	1587	n/a	n/a	0	0	0
398.424	n/a	WORD	199212	wordpools/wasnorm_wordpool_576.txt	LTP302	ltpFR2	3	1	PARENT	1013	n/a	n/a	0	0	0
400.86	n/a	WORD	200430	wordpools/wasnorm_wordpool_576.txt	LTP302	ltpFR2	3	1	CHILD	299	n/a	n/a	0	0	0
403.378	n/a	WORD	201689	wordpools/wasnorm_wordpool_576.txt	LTP302	ltpFR2	3	1	HOUND	724	n/a	n/a	0	0	0
404.984	n/a	START	202492	n/a	LTP302	ltpFR2	3	n/a	n/a	n/a	2	n/a	n/a	n/a	n/a
406.094	n/a	DISTRACTOR	203047	n/a	LTP302	ltpFR2	3	1	n/a	n/a	n/a	n/a	0	0	0
406.1	n/a	PROB	203050	n/a	LTP302	ltpFR2	3	n/a	n/a	n/a	2	9	2	5	2
408.548	n/a	PROB	204274	n/a	LTP302	ltpFR2	3	n/a	n/a	n/a	2	10	3	5	2
410.77	n/a	PROB	205385	n/a	LTP302	ltpFR2	3	n/a	n/a	n/a	2	19	9	3	7
412.218	n/a	PROB	206109	n/a	LTP302	ltpFR2	3	n/a	n/a	n/a	2	14	5	6	3
415.104	n/a	PROB	207552	n/a	LTP302	ltpFR2	3	n/a	n/a	n/a	2	13	5	6	2
418.808	n/a	PROB	209404	n/a	LTP302	ltpFR2	3	n/a	n/a	n/a	2	14	1	5	8
421.292	n/a	PROB	210646	n/a	LTP302	ltpFR2	3	n/a	n/a	n/a	2	10	7	2	1
423.244	n/a	PROB	211622	n/a	LTP302	ltpFR2	3	n/a	n/a	n/a	2	15	6	5	4
425.346	n/a	PROB	212673	n/a	LTP302	ltpFR2	3	n/a	n/a	n/a	2	18	8	9	1
426.83	n/a	PROB	213415	n/a	LTP302	ltpFR2	3	n/a	n/a	n/a	2	13	5	3	5
428.336	n/a	STOP	214168	n/a	LTP302	ltpFR2	3	n/a	n/a	n/a	2	n/a	n/a	n/a	n/a
430.804	n/a	REC_START	215402	n/a	LTP302	ltpFR2	3	1	n/a	n/a	n/a	n/a	0	0	0
433.408	n/a	REC_WORD	216704	wordpools/wasnorm_wordpool_576.txt	LTP302	ltpFR2	3	1	PARENT	1013	n/a	n/a	0	0	0
436.124	n/a	REC_WORD	218062	wordpools/wasnorm_wordpool_576.txt	LTP302	ltpFR2	3	1	CHILD	299	n/a	n/a	0	0	0
439.718	n/a	REC_WORD	219859	wordpools/wasnorm_wordpool_576.txt	LTP302	ltpFR2	3	1	BRIEFCASE	175	n/a	n/a	0	0	0
440.718	n/a	REC_WORD_VV	220359	wordpools/wasnorm_wordpool_576.txt	LTP302	ltpFR2	3	1	<>	-1	n/a	n/a	0	0	0
442.404	n/a	REC_WORD	221202	wordpools/wasnorm_wordpool_576.txt	LTP302	ltpFR2	3	1	SUITCASE	1403	n/a	n/a	0	0	0
443.404	n/a	REC_WORD_VV	221702	wordpools/wasnorm_wordpool_576.txt	LTP302	ltpFR2	3	1	<>	-1	n/a	n/a	0	0	0
445.202	n/a	REC_WORD	222601	wordpools/wasnorm_wordpool_576.txt	LTP302	ltpFR2	3	1	GRIZZLY	662	n/a	n/a	0	0	0
447.686	n/a	REC_WORD	223843	wordpools/wasnorm_wordpool_576.txt	LTP302	ltpFR2	3	1	PROTON	1132	n/a	n/a	0	0	0
450.242	n/a	REC_WORD	225121	wordpools/wasnorm_wordpool_576.txt	LTP302	ltpFR2	3	1	EXPERT	543	n/a	n/a	0	0	0
454.758	n/a	REC_WORD	227379	wordpools/wasnorm_wordpool_576.txt	LTP302	ltpFR2	3	1	GAZELLE	628	n/a	n/a	0	0	0
461.678	n/a	REC_WORD	230839	wordpools/wasnorm_wordpool_576.txt	LTP302	ltpFR2	3	1	KITCHEN	778	n/a	n/a	0	0	0
463.832	n/a	REC_WORD	231916	wordpools/wasnorm_wordpool_576.txt	LTP302	ltpFR2	3	1	PICNIC	1060	n/a	n/a	0	0	0
465.712	n/a	REC_WORD	232856	wordpools/wasnorm_wordpool_576.txt	LTP302	ltpFR2	3	1	SUPPER	1411	n/a	n/a	0	0	0
521.258	n/a	WORD	260629	wordpools/wasnorm_wordpool_576.txt	LTP302	ltpFR2	3	2	WAGON	1578	n/a	n/a	0	0	0
524.01	n/a	WORD	262005	wordpools/wasnorm_wordpool_576.txt	LTP302	ltpFR2	3	2	BODY	145	n/a	n/a	0	0	0
526.71	n/a	WORD	263355	wordpools/wasnorm_wordpool_576.txt	LTP302	ltpFR2	3	2	RACKET	1155	n/a	n/a	0	0	0
529.246	n/a	WORD	264623	wordpools/wasnorm_wordpool_576.txt	LTP302	ltpFR2	3	2	SPOON	1357	n/a	n/a	0	0	0
531.898	n/a	WORD	265949	wordpools/wasnorm_wordpool_576.txt	LTP302	ltpFR2	3	2	FRANCE	601	n/a	n/a	0	0	0
534.434	n/a	WORD	267217	wordpools/wasnorm_wordpool_576.txt	LTP302	ltpFR2	3	2	PEBBLE	1035	n/a	n/a	0	0	0
537.108	n/a	WORD	268554	wordpools/wasnorm_wordpool_576.txt	LTP302	ltpFR2	3	2	BASEMENT	94	n/a	n/a	0	0	0
539.738	n/a	WORD	269869	wordpools/wasnorm_wordpool_576.txt	LTP302	ltpFR2	3	2	TABLET	1427	n/a	n/a	0	0	0
542.356	n/a	WORD	271178	wordpools/wasnorm_wordpool_576.txt	LTP302	ltpFR2	3	2	MOTOR	922	n/a	n/a	0	0	0
544.892	n/a	WORD	272446	wordpools/wasnorm_wordpool_576.txt	LTP302	ltpFR2	3	2	CASHIER	254	n/a	n/a	0	0	0
547.544	n/a	WORD	273772	wordpools/wasnorm_wordpool_576.txt	LTP302	ltpFR2	3	2	LUNCH	849	n/a	n/a	0	0	0
550.186	n/a	WORD	275093	wordpools/wasnorm_wordpool_576.txt	LTP302	ltpFR2	3	2	BLUEPRINT	142	n/a	n/a	0	0	0
552.766	n/a	WORD	276383	wordpools/wasnorm_wordpool_576.txt	LTP302	ltpFR2	3	2	COTTAGE	384	n/a	n/a	0	0	0
555.452	n/a	WORD	277726	wordpools/wasnorm_wordpool_576.txt	LTP302	ltpFR2	3	2	ITEM	746	n/a	n/a	0	0	0
558.052	n/a	WORD	279026	wordpools/wasnorm_wordpool_576.txt	LTP302	ltpFR2	3	2	CHURCH	307	n/a	n/a	0	0	0
560.62	n/a	WORD	280310	wordpools/wasnorm_wordpool_576.txt	LTP302	ltpFR2	3	2	FREEZER	604	n/a	n/a	0	0	0
563.424	n/a	WORD	281712	wordpools/wasnorm_wordpool_576.txt	LTP302	ltpFR2	3	2	IGLOO	734	n/a	n/a	0	0	0
565.976	n/a	WORD	282988	wordpools/wasnorm_wordpool_576.txt	LTP302	ltpFR2	3	2	TURTLE	1522	n/a	n/a	0	0	0
568.776	n/a	WORD	284388	wordpools/wasnorm_wordpool_576.txt	LTP302	ltpFR2	3	2	NOMAD	955	n/a	n/a	0	0	0
571.596	n/a	WORD	285798	wordpools/wasnorm_wordpool_576.txt	LTP302	ltpFR2	3	2	CAFE	216	n/a	n/a	0	0	0
574.182	n/a	WORD	287091	wordpools/wasnorm_wordpool_576.txt	LTP302	ltpFR2	3	2	TRUCK	1512	n/a	n/a	0	0	0
576.642	n/a	WORD	288321	wordpools/wasnorm_wordpool_576.txt	LTP302	ltpFR2	3	2	BLOCKADE	137	n/a	n/a	0	0	0
579.218	n/a	WORD	289609	wordpools/wasnorm_wordpool_576.txt	LTP302	ltpFR2	3	2	LONDON	843	n/a	n/a	0	0	0
581.846	n/a	WORD	290923	wordpools/wasnorm_wordpool_576.txt	LTP302	ltpFR2	3	2	PAPER	1011	n/a	n/a	0	0	0
583.456	n/a	START	291728	n/a	LTP302	ltpFR2	3	n/a	n/a	n/a	3	n/a	n/a	n/a	n/a
584.6	n/a	DISTRACTOR	292300	n/a	LTP302	ltpFR2	3	2	n/a	n/a	n/a	n/a	0	0	0
584.606	n/a	PROB	292303	n/a	LTP302	ltpFR2	3	n/a	n/a	n/a	3	8	4	2	2
586.458	n/a	PROB	293229	n/a	LTP302	ltpFR2	3	n/a	n/a	n/a	3	13	2	8	3
588.842	n/a	PROB	294421	n/a	LTP302	ltpFR2	3	n/a	n/a	n/a	3	12	2	2	8
591.228	n/a	PROB	295614	n/a	LTP302	ltpFR2	3	n/a	n/a	n/a	3	19	8	5	6
593.478	n/a	PROB	296739	n/a	LTP302	ltpFR2	3	n/a	n/a	n/a	3	18	8	3	7
594.882	n/a	PROB	297441	n/a	LTP302	ltpFR2	3	n/a	n/a	n/a	3	16	5	7	4
597.832	n/a	PROB	298916	n/a	LTP302	ltpFR2	3	n/a	n/a	n/a	3	8	1	6	1
599.098	n/a	PROB	299549	n/a	LTP302	ltpFR2	3	n/a	n/a	n/a	3	17	5	8	4
601.084	n/a	PROB	300542	n/a	LTP302	ltpFR2	3	n/a	n/a	n/a	3	15	7	4	4
603.488	n/a	PROB	301744	n/a	LTP302	ltpFR2	3	n/a	n/a	n/a	3	13	3	3	7
604.954	n/a	PROB	302477	n/a	LTP302	ltpFR2	3	n/a	n/a	n/a	3	15	5	3	7
606.292	n/a	STOP	303146	n/a	LTP302	ltpFR2	3	n/a	n/a	n/a	3	n/a	n/a	n/a	n/a
609.342	n/a	REC_START	304671	n/a	LTP302	ltpFR2	3	2	n/a	n/a	n/a	n/a	0	0	0
613.484	n/a	REC_WORD	306742	wordpools/wasnorm_wordpool_576.txt	LTP302	ltpFR2	3	2	LONDON	843	n/a	n/a	0	0	0
615.534	n/a	REC_WORD	307767	wordpools/wasnorm_wordpool_576.txt	LTP302	ltpFR2	3	2	FRANCE	601	n/a	n/a	0	0	0
619.362	n/a	REC_WORD	309681	wordpools/wasnorm_wordpool_576.txt	LTP302	ltpFR2	3	2	TRUCK	1512	n/a	n/a	0	0	0
622.4	n/a	REC_WORD	311200	wordpools/wasnorm_wordpool_576.txt	LTP302	ltpFR2	3	2	NOMAD	955	n/a	n/a	0	0	0
627.158	n/a	REC_WORD	313579	wordpools/wasnorm_wordpool_576.txt	LTP302	ltpFR2	3	2	BASEMENT	94	n/a	n/a	0	0	0
629.198	n/a	REC_WORD	314599	wordpools/wasnorm_wordpool_576.txt	LTP302	ltpFR2	3	2	SPOON	1357	n/a	n/a	0	0	0
632.066	n/a	REC_WORD	316033	wordpools/wasnorm_wordpool_576.txt	LTP302	ltpFR2	3	2	BODY	145	n/a	n/a	0	0	0
651.808	n/a	REC_WORD	325904	wordpools/wasnorm_wordpool_576.txt	LTP302	ltpFR2	3	2	CHURCH	307	n/a	n/a	0	0	0
699.828	n/a	WORD	349914	wordpools/wasnorm_wordpool_576.txt	LTP302	ltpFR2	3	3	LEADER	807	n/a	n/a	0	0	0
702.532	n/a	WORD	351266	wordpools/wasnorm_wordpool_576.txt	LTP302	ltpFR2	3	3	TUTU	1524	n/a	n/a	0	0	0
705.35	n/a	WORD	352675	wordpools/wasnorm_wordpool_576.txt	LTP302	ltpFR2	3	3	HERO	706	n/a	n/a	0	0	0
708.018	n/a	WORD	354009	wordpools/wasnorm_wordpool_576.txt	LTP302	ltpFR2	3	3	SNAIL	1332	n/a	n/a	0	0	0
710.538	n/a	WORD	355269	wordpools/wasnorm_wordpool_576.txt	LTP302	ltpFR2	3	3	SWIMMER	1420	n/a	n/a	0	0	0
713.022	n/a	WORD	356511	wordpools/wasnorm_wordpool_576.txt	LTP302	ltpFR2	3	3	EMPIRE	530	n/a	n/a	0	0	0
715.476	n/a	WORD	357738	wordpools/wasnorm_wordpool_576.txt	LTP302	ltpFR2	3	3	BUBBLE	183	n/a	n/a	0	0	0
718.028	n/a	WORD	359014	wordpools/wasnorm_wordpool_576.txt	LTP302	ltpFR2	3	3	DIME	466	n/a	n/a	0	0	0
720.662	n/a	WORD	360331	wordpools/wasnorm_wordpool_576.txt	LTP302	ltpFR2	3	3	EGYPT	519	n/a	n/a	0	0	0
723.484	n/a	WORD	361742	wordpools/wasnorm_wordpool_576.txt	LTP302	ltpFR2	3	3	BALLOON	75	n/a	n/a	0	0	0
726.284	n/a	WORD	363142	wordpools/wasnorm_wordpool_576.txt	LTP302	ltpFR2	3	3	TURKEY	1520	n/a	n/a	0	0	0
729.002	n/a	WORD	364501	wordpools/wasnorm_wordpool_576.txt	LTP302	ltpFR2	3	3	TRENCH	1503	n/a	n/a	0	0	0
731.604	n/a	WORD	365802	wordpools/wasnorm_wordpool_576.txt	LTP302	ltpFR2	3	3	SPHINX	1349	n/a	n/a	0	0	0
734.424	n/a	WORD	367212	wordpools/wasnorm_wordpool_576.txt	LTP302	ltpFR2	3	3	WORKER	1621	n/a	n/a	0	0	0
736.992	n/a	WORD	368496	wordpools/wasnorm_wordpool_576.txt	LTP302	ltpFR2	3	3	SODA	1341	n/a	n/a	0	0	0
739.592	n/a	WORD	369796	wordpools/wasnorm_wordpool_576.txt	LTP302	ltpFR2	3	3	SHELF	1280	n/a	n/a	0	0	0
742.044	n/a	WORD	371022	wordpools/wasnorm_wordpool_576.txt	LTP302	ltpFR2	3	3	BINDER	127	n/a	n/a	0	0	0
744.582	n/a	WORD	372291	wordpools/wasnorm_wordpool_576.txt	LTP302	ltpFR2	3	3	BUGGY	188	n/a	n/a	0	0	0
747.304	n/a	WORD	373652	wordpools/wasnorm_wordpool_576.txt	LTP302	ltpFR2	3	3	FRIEND	606	n/a	n/a	0	0	0
749.736	n/a	WORD	374868	wordpools/wasnorm_wordpool_576.txt	LTP302	ltpFR2	3	3	BOYFRIEND	162	n/a	n/a	0	0	0
752.308	n/a	WORD	376154	wordpools/wasnorm_wordpool_576.txt	LTP302	ltpFR2	3	3	SHORTCAKE	1292	n/a	n/a	0	0	0
754.84	n/a	WORD	377420	wordpools/wasnorm_wordpool_576.txt	LTP302	ltpFR2	3	3	COOKBOOK	373	n/a	n/a	0	0	0
757.658	n/a	WORD	378829	wordpools/wasnorm_wordpool_576.txt	LTP302	ltpFR2	3	3	CHAPEL	280	n/a	n/a	0	0	0
760.148	n/a	WORD	380074	wordpools/wasnorm_wordpool_576.txt	LTP302	ltpFR2	3	3	IDOL	733	n/a	n/a	0	0	0
761.762	n/a	START	380881	n/a	LTP302	ltpFR2	3	n/a	n/a	n/a	4	n/a	n/a	n/a	n/a
762.75	n/a	DISTRACTOR	381375	n/a	LTP302	ltpFR2	3	3	n/a	n/a	n/a	n/a	0	0	0
762.762	n/a	PROB	381381	n/a	LTP302	ltpFR2	3	n/a	n/a	n/a	4	20	3	9	8
765.6	n/a	PROB	382800	n/a	LTP302	ltpFR2	3	n/a	n/a	n/a	4	10	4	5	1
768.364	n/a	PROB	384182	n/a	LTP302	ltpFR2	3	n/a	n/a	n/a	4	14	5	5	4
770.066	n/a	PROB	385033	n/a	LTP302	ltpFR2	3	n/a	n/a	n/a	4	14	6	2	6
771.786	n/a	PROB	385893	n/a	LTP302	ltpFR2	3	n/a	n/a	n/a	4	16	7	8	1
773.504	n/a	PROB	386752	n/a	LTP302	ltpFR2	3	n/a	n/a	n/a	4	20	6	3	9
776.222	n/a	PROB	388111	n/a	LTP302	ltpFR2	3	n/a	n/a	n/a	4	15	5	2	8
780.858	n/a	PROB	390429	n/a	LTP302	ltpFR2	3	n/a	n/a	n/a	4	8	2	1	5
782.626	n/a	PROB	391313	n/a	LTP302	ltpFR2	3	n/a	n/a	n/a	4	21	5	8	8
784.574	n/a	STOP	392287	n/a	LTP302	ltpFR2	3	n/a	n/a	n/a	4	n/a	n/a	n/a	n/a
787.58	n/a	REC_START	393790	n/a	LTP302	ltpFR2	3	3	n/a	n/a	n/a	n/a	0	0	0
790.274	n/a	REC_WORD	395137	wordpools/wasnorm_wordpool_576.txt	LTP302	ltpFR2	3	3	FRIEND	606	n/a	n/a	0	0	0
792.266	n/a	REC_WORD	396133	wordpools/wasnorm_wordpool_576.txt	LTP302	ltpFR2	3	3	WORKER	1621	n/a	n/a	0	0	0
794.262	n/a	REC_WORD	397131	wordpools/wasnorm_wordpool_576.txt	LTP302	ltpFR2	3	3	TUTU	1524	n/a	n/a	0	0	0
796.238	n/a	REC_WORD	398119	wordpools/wasnorm_wordpool_576.txt	LTP302	ltpFR2	3	3	SPHINX	1349	n/a	n/a	0	0	0
797.238	n/a	REC_WORD_VV	398619	wordpools/wasnorm_wordpool_576.txt	LTP302	ltpFR2	3	3	<>	-1	n/a	n/a	0	0	0
801.018	n/a	REC_WORD	400509	wordpools/wasnorm_wordpool_576.txt	LTP302	ltpFR2	3	3	SHORTCAKE	1292	n/a	n/a	0	0	0
802.018	n/a	REC_WORD_VV	401009	wordpools/wasnorm_wordpool_576.txt	LTP302	ltpFR2	3	3	<>	-1	n/a	n/a	0	0	0
803.868	n/a	REC_WORD	401934	wordpools/wasnorm_wordpool_576.txt	LTP302	ltpFR2	3	3	COOKBOOK	373	n/a	n/a	0	0	0
809.942	n/a	REC_WORD	404971	wordpools/wasnorm_wordpool_576.txt	LTP302	ltpFR2	3	3	CHAPEL	280	n/a	n/a	0	0	0
821.894	n/a	REC_WORD	410947	wordpools/wasnorm_wordpool_576.txt	LTP302	ltpFR2	3	3	TURKEY	1520	n/a	n/a	0	0	0
877.998	n/a	DISTRACTOR	438999	n/a	LTP302	ltpFR2	3	4	n/a	n/a	n/a	n/a	0	0	0
877.998	n/a	START	438999	n/a	LTP302	ltpFR2	3	n/a	n/a	n/a	5	n/a	n/a	n/a	n/a
878.012	n/a	PROB	439006	n/a	LTP302	ltpFR2	3	n/a	n/a	n/a	5	18	5	8	5
879.718	n/a	PROB	439859	n/a	LTP302	ltpFR2	3	n/a	n/a	n/a	5	11	5	2	4
882.222	n/a	PROB	441111	n/a	LTP302	ltpFR2	3	n/a	n/a	n/a	5	11	3	7	1
883.606	n/a	PROB	441803	n/a	LTP302	ltpFR2	3	n/a	n/a	n/a	5	13	1	9	3
885.72	n/a	PROB	442860	n/a	LTP302	ltpFR2	3	n/a	n/a	n/a	5	20	7	5	8
888.69	n/a	PROB	444345	n/a	LTP302	ltpFR2	3	n/a	n/a	n/a	5	17	2	6	9
891.022	n/a	PROB	445511	n/a	LTP302	ltpFR2	3	n/a	n/a	n/a	5	13	9	1	3
894.094	n/a	PROB	447047	n/a	LTP302	ltpFR2	3	n/a	n/a	n/a	5	20	9	4	7
896.45	n/a	PROB	448225	n/a	LTP302	ltpFR2	3	n/a	n/a	n/a	5	12	1	5	6
897.98	n/a	PROB	448990	n/a	LTP302	ltpFR2	3	n/a	n/a	n/a	5	8	3	4	1
899.616	n/a	PROB	449808	n/a	LTP302	ltpFR2	3	n/a	n/a	n/a	5	11	2	4	5
901.936	n/a	STOP	450968	n/a	LTP302	ltpFR2	3	n/a	n/a	n/a	5	n/a	n/a	n/a	n/a
902.852	n/a	WORD	451426	wordpools/wasnorm_wordpool_576.txt	LTP302	ltpFR2	3	4	FOOTBALL	591	n/a	n/a	0	0	0
905.472	n/a	WORD	452736	wordpools/wasnorm_wordpool_576.txt	LTP302	ltpFR2	3	4	ULCER	1533	n/a	n/a	0	0	0
908.29	n/a	WORD	454145	wordpools/wasnorm_wordpool_576.txt	LTP302	ltpFR2	3	4	SWORD	1423	n/a	n/a	0	0	0
911.11	n/a	WORD	455555	wordpools/wasnorm_wordpool_576.txt	LTP302	ltpFR2	3	4	CURTAIN	427	n/a	n/a	0	0	0
913.91	n/a	WORD	456955	wordpools/wasnorm_wordpool_576.txt	LTP302	ltpFR2	3	4	DASHBOARD	441	n/a	n/a	0	0	0
916.446	n/a	WORD	458223	wordpools/wasnorm_wordpool_576.txt	LTP302	ltpFR2	3	4	AUTHOR	61	n/a	n/a	0	0	0
919.25	n/a	WORD	459625	wordpools/wasnorm_wordpool_576.txt	LTP302	ltpFR2	3	4	WORLD	1622	n/a	n/a	0	0	0
921.952	n/a	WORD	460976	wordpools/wasnorm_wordpool_576.txt	LTP302	ltpFR2	3	4	ATLAS	53	n/a	n/a	0	0	0
924.688	n/a	WORD	462344	wordpools/wasnorm_wordpool_576.txt	LTP302	ltpFR2	3	4	SKILLET	1317	n/a	n/a	0	0	0
927.206	n/a	WORD	463603	wordpools/wasnorm_wordpool_576.txt	LTP302	ltpFR2	3	4	PRINCE	1124	n/a	n/a	0	0	0
930.008	n/a	WORD	465004	wordpools/wasnorm_wordpool_576.txt	LTP302	ltpFR2	3	4	MONEY	908	n/a	n/a	0	0	0
932.496	n/a	WORD	466248	wordpools/wasnorm_wordpool_576.txt	LTP302	ltpFR2	3	4	YOLK	1633	n/a	n/a	0	0	0
934.996	n/a	WORD	467498	wordpools/wasnorm_wordpool_576.txt	LTP302	ltpFR2	3	4	CRUTCH	417	n/a	n/a	0	0	0
937.564	n/a	WORD	468782	wordpools/wasnorm_wordpool_576.txt	LTP302	ltpFR2	3	4	JAPAN	749	n/a	n/a	0	0	0
940.25	n/a	WORD	470125	wordpools/wasnorm_wordpool_576.txt	LTP302	ltpFR2	3	4	TILE	1468	n/a	n/a	0	0	0
942.87	n/a	WORD	471435	wordpools/wasnorm_wordpool_576.txt	LTP302	ltpFR2	3	4	DENIM	446	n/a	n/a	0	0	0
945.706	n/a	WORD	472853	wordpools/wasnorm_wordpool_576.txt	LTP302	ltpFR2	3	4	TOMBSTONE	1478	n/a	n/a	0	0	0
948.39	n/a	WORD	474195	wordpools/wasnorm_wordpool_576.txt	LTP302	ltpFR2	3	4	SALT	1229	n/a	n/a	0	0	0
951.024	n/a	WORD	475512	wordpools/wasnorm_wordpool_576.txt	LTP302	ltpFR2	3	4	STREAM	1392	n/a	n/a	0	0	0
953.66	n/a	WORD	476830	wordpools/wasnorm_wordpool_576.txt	LTP302	ltpFR2	3	4	ISLAND	745	n/a	n/a	0	0	0
956.38	n/a	WORD	478190	wordpools/wasnorm_wordpool_576.txt	LTP302	ltpFR2	3	4	PARROT	1015	n/a	n/a	0	0	0
959.03	n/a	WORD	479515	wordpools/wasnorm_wordpool_576.txt	LTP302	ltpFR2	3	4	RUG	1215	n/a	n/a	0	0	0
961.734	n/a	WORD	480867	wordpools/wasnorm_wordpool_576.txt	LTP302	ltpFR2	3	4	VELVET	1555	n/a	n/a	0	0	0
964.402	n/a	WORD	482201	wordpools/wasnorm_wordpool_576.txt	LTP302	ltpFR2	3	4	UMPIRE	1535	n/a	n/a	0	0	0
966.02	n/a	START	483010	n/a	LTP302	ltpFR2	3	n/a	n/a	n/a	6	n/a	n/a	n/a	n/a
967.126	n/a	DISTRACTOR	483563	n/a	LTP302	ltpFR2	3	4	n/a	n/a	n/a	n/a	0	0	0
967.138	n/a	PROB	483569	n/a	LTP302	ltpFR2	3	n/a	n/a	n/a	6	5	1	2	2
968.822	n/a	PROB	484411	n/a	LTP302	ltpFR2	3	n/a	n/a	n/a	6	16	5	9	2
971.474	n/a	PROB	485737	n/a	LTP302	ltpFR2	3	n/a	n/a	n/a	6	20	8	6	6
974.074	n/a	PROB	487037	n/a	LTP302	ltpFR2	3	n/a	n/a	n/a	6	11	3	7	1
975.36	n/a	PROB	487680	n/a	LTP302	ltpFR2	3	n/a	n/a	n/a	6	13	1	6	6
976.896	n/a	PROB	488448	n/a	LTP302	ltpFR2	3	n/a	n/a	n/a	6	17	5	8	4
978.946	n/a	PROB	489473	n/a	LTP302	ltpFR2	3	n/a	n/a	n/a	6	23	9	9	5
981.332	n/a	PROB	490666	n/a	LTP302	ltpFR2	3	n/a	n/a	n/a	6	17	3	9	5
984.402	n/a	PROB	492201	n/a	LTP302	ltpFR2	3	n/a	n/a	n/a	6	23	9	9	6
990.02	n/a	STOP	495010	n/a	LTP302	ltpFR2	3	n/a	n/a	n/a	6	n/a	n/a	n/a	n/a
991.89	n/a	REC_START	495945	n/a	LTP302	ltpFR2	3	4	n/a	n/a	n/a	n/a	0	0	0
993.538	n/a	REC_WORD	496769	wordpools/wasnorm_wordpool_576.txt	LTP302	ltpFR2	3	4	VELVET	1555	n/a	n/a	0	0	0
995.6	n/a	REC_WORD	497800	wordpools/wasnorm_wordpool_576.txt	LTP302	ltpFR2	3	4	TILE	1468	n/a	n/a	0	0	0
998.924	n/a	REC_WORD	499462	wordpools/wasnorm_wordpool_576.txt	LTP302	ltpFR2	3	4	AUTHOR	61	n/a	n/a	0	0	0
1000.856	n/a	REC_WORD	500428	wordpools/wasnorm_wordpool_576.txt	LTP302	ltpFR2	3	4	FOOTBALL	591	n/a	n/a	0	0	0
1003.11	n/a	REC_WORD	501555	wordpools/wasnorm_wordpool_576.txt	LTP302	ltpFR2	3	4	ULCER	1533	n/a	n/a	0	0	0
1005.416	n/a	REC_WORD	502708	wordpools/wasnorm_wordpool_576.txt	LTP302	ltpFR2	3	4	WORLD	1622	n/a	n/a	0	0	0
1007.49	n/a	REC_WORD	503745	wordpools/wasnorm_wordpool_576.txt	LTP302	ltpFR2	3	4	ATLAS	53	n/a	n/a	0	0	0
1082.312	n/a	DISTRACTOR	541156	n/a	LTP302	ltpFR2	3	5	n/a	n/a	n/a	n/a	0	0	0
1082.312	n/a	START	541156	n/a	LTP302	ltpFR2	3	n/a	n/a	n/a	7	n/a	n/a	n/a	n/a
1082.326	n/a	PROB	541163	n/a	LTP302	ltpFR2	3	n/a	n/a	n/a	7	18	3	7	8
1084.646	n/a	PROB	542323	n/a	LTP302	ltpFR2	3	n/a	n/a	n/a	7	18	8	6	4
1086.68	n/a	PROB	543340	n/a	LTP302	ltpFR2	3	n/a	n/a	n/a	7	17	4	4	9
1089.4	n/a	PROB	544700	n/a	LTP302	ltpFR2	3	n/a	n/a	n/a	7	19	6	8	5
1091.6	n/a	PROB	545800	n/a	LTP302	ltpFR2	3	n/a	n/a	n/a	7	10	4	5	1
1093.034	n/a	PROB	546517	n/a	LTP302	ltpFR2	3	n/a	n/a	n/a	7	12	2	4	6
1094.37	n/a	PROB	547185	n/a	LTP302	ltpFR2	3	n/a	n/a	n/a	7	17	5	5	7
1095.804	n/a	PROB	547902	n/a	LTP302	ltpFR2	3	n/a	n/a	n/a	7	21	7	9	5
1099.056	n/a	PROB	549528	n/a	LTP302	ltpFR2	3	n/a	n/a	n/a	7	10	6	1	3
1100.558	n/a	PROB	550279	n/a	LTP302	ltpFR2	3	n/a	n/a	n/a	7	7	2	2	3
1102.676	n/a	PROB	551338	n/a	LTP302	ltpFR2	3	n/a	n/a	n/a	7	15	3	8	4
1104.844	n/a	STOP	552422	n/a	LTP302	ltpFR2	3	n/a	n/a	n/a	7	n/a	n/a	n/a	n/a
1107.426	n/a	WORD	553713	wordpools/wasnorm_wordpool_576.txt	LTP302	ltpFR2	3	5	FRAGRANCE	599	n/a	n/a	0	0	0
1110.112	n/a	WORD	555056	wordpools/wasnorm_wordpool_576.txt	LTP302	ltpFR2	3	5	HARP	689	n/a	n/a	0	0	0
1112.73	n/a	WORD	556365	wordpools/wasnorm_wordpool_576.txt	LTP302	ltpFR2	3	5	PEANUT	1032	n/a	n/a	0	0	0
1115.35	n/a	WORD	557675	wordpools/wasnorm_wordpool_576.txt	LTP302	ltpFR2	3	5	MONSTER	912	n/a	n/a	0	0	0
1118.1	n/a	WORD	559050	wordpools/wasnorm_wordpool_576.txt	LTP302	ltpFR2	3	5	ARMY	39	n/a	n/a	0	0	0
1120.674	n/a	WORD	560337	wordpools/wasnorm_wordpool_576.txt	LTP302	ltpFR2	3	5	MAILBOX	857	n/a	n/a	0	0	0
1123.34	n/a	WORD	561670	wordpools/wasnorm_wordpool_576.txt	LTP302	ltpFR2	3	5	SUMMIT	1405	n/a	n/a	0	0	0
1126.04	n/a	WORD	563020	wordpools/wasnorm_wordpool_576.txt	LTP302	ltpFR2	3	5	SIDEWALK	1303	n/a	n/a	0	0	0
1128.56	n/a	WORD	564280	wordpools/wasnorm_wordpool_576.txt	LTP302	ltpFR2	3	5	SNAKE	1333	n/a	n/a	0	0	0
1131.296	n/a	WORD	565648	wordpools/wasnorm_wordpool_576.txt	LTP302	ltpFR2	3	5	ANTLER	29	n/a	n/a	0	0	0
1133.714	n/a	WORD	566857	wordpools/wasnorm_wordpool_576.txt	LTP302	ltpFR2	3	5	KNAPSACK	783	n/a	n/a	0	0	0
1136.518	n/a	WORD	568259	wordpools/wasnorm_wordpool_576.txt	LTP302	ltpFR2	3	5	COLLEGE	346	n/a	n/a	0	0	0
1139.136	n/a	WORD	569568	wordpools/wasnorm_wordpool_576.txt	LTP302	ltpFR2	3	5	SUBWAY	1400	n/a	n/a	0	0	0
1141.892	n/a	WORD	570946	wordpools/wasnorm_wordpool_576.txt	LTP302	ltpFR2	3	5	CRICKET	408	n/a	n/a	0	0	0
1144.658	n/a	WORD	572329	wordpools/wasnorm_wordpool_576.txt	LTP302	ltpFR2	3	5	COCOON	339	n/a	n/a	0	0	0
1147.41	n/a	WORD	573705	wordpools/wasnorm_wordpool_576.txt	LTP302	ltpFR2	3	5	WINDOW	1611	n/a	n/a	0	0	0
1150.01	n/a	WORD	575005	wordpools/wasnorm_wordpool_576.txt	LTP302	ltpFR2	3	5	CRIB	407	n/a	n/a	0	0	0
1152.548	n/a	WORD	576274	wordpools/wasnorm_wordpool_576.txt	LTP302	ltpFR2	3	5	PECAN	1036	n/a	n/a	0	0	0
1155.266	n/a	WORD	577633	wordpools/wasnorm_wordpool_576.txt	LTP302	ltpFR2	3	5	LILY	821	n/a	n/a	0	0	0
1157.902	n/a	WORD	578951	wordpools/wasnorm_wordpool_576.txt	LTP302	ltpFR2	3	5	GLOBE	641	n/a	n/a	0	0	0
1160.554	n/a	WORD	580277	wordpools/wasnorm_wordpool_576.txt	LTP302	ltpFR2	3	5	DANCER	437	n/a	n/a	0	0	0
1163.256	n/a	WORD	581628	wordpools/wasnorm_wordpool_576.txt	LTP302	ltpFR2	3	5	CLIMBER	323	n/a	n/a	0	0	0
1165.692	n/a	WORD	582846	wordpools/wasnorm_wordpool_576.txt	LTP302	ltpFR2	3	5	CARRIAGE	248	n/a	n/a	0	0	0
1168.378	n/a	WORD	584189	wordpools/wasnorm_wordpool_576.txt	LTP302	ltpFR2	3	5	ZEBRA	1635	n/a	n/a	0	0	0
1169.994	n/a	START	584997	n/a	LTP302	ltpFR2	3	n/a	n/a	n/a	8	n/a	n/a	n/a	n/a
1170.846	n/a	DISTRACTOR	585423	n/a	LTP302	ltpFR2	3	5	n/a	n/a	n/a	n/a	0	0	0
1170.862	n/a	PROB	585431	n/a	LTP302	ltpFR2	3	n/a	n/a	n/a	8	16	7	8	1
1172.698	n/a	PROB	586349	n/a	LTP302	ltpFR2	3	n/a	n/a	n/a	8	13	4	8	1
1174.732	n/a	PROB	587366	n/a	LTP302	ltpFR2	3	n/a	n/a	n/a	8	8	2	4	2
1176.684	n/a	PROB	588342	n/a	LTP302	ltpFR2	3	n/a	n/a	n/a	8	8	5	2	1
1178.552	n/a	PROB	589276	n/a	LTP302	ltpFR2	3	n/a	n/a	n/a	8	14	8	1	5
1181.286	n/a	PROB	590643	n/a	LTP302	ltpFR2	3	n/a	n/a	n/a	8	16	7	2	7
1183.224	n/a	PROB	591612	n/a	LTP302	ltpFR2	3	n/a	n/a	n/a	8	5	1	1	3
1184.606	n/a	PROB	592303	n/a	LTP302	ltpFR2	3	n/a	n/a	n/a	8	11	5	5	1
1186.676	n/a	PROB	593338	n/a	LTP302	ltpFR2	3	n/a	n/a	n/a	8	6	1	1	4
1188.642	n/a	PROB	594321	n/a	LTP302	ltpFR2	3	n/a	n/a	n/a	8	14	4	3	7
1190.262	n/a	PROB	595131	n/a	LTP302	ltpFR2	3	n/a	n/a	n/a	8	13	4	6	3
1193.994	n/a	STOP	596997	n/a	LTP302	ltpFR2	3	n/a	n/a	n/a	8	n/a	n/a	n/a	n/a
1195.9	n/a	REC_START	597950	n/a	LTP302	ltpFR2	3	5	n/a	n/a	n/a	n/a	0	0	0
1197.308	n/a	REC_WORD	598654	wordpools/wasnorm_wordpool_576.txt	LTP302	ltpFR2	3	5	ZEBRA	1635	n/a	n/a	0	0	0
1200.1	n/a	REC_WORD	600050	wordpools/wasnorm_wordpool_576.txt	LTP302	ltpFR2	3	5	COLLEGE	346	n/a	n/a	0	0	0
1202.534	n/a	REC_WORD	601267	wordpools/wasnorm_wordpool_576.txt	LTP302	ltpFR2	3	5	GLOBE	641	n/a	n/a	0	0	0
1233.012	n/a	REC_WORD	616506	wordpools/wasnorm_wordpool_576.txt	LTP302	ltpFR2	3	5	DANCER	437	n/a	n/a	0	0	0
1286.336	n/a	WORD	643168	wordpools/wasnorm_wordpool_576.txt	LTP302	ltpFR2	3	6	KLEENEX	782	n/a	n/a	0	0	0
1288.912	n/a	WORD	644456	wordpools/wasnorm_wordpool_576.txt	LTP302	ltpFR2	3	6	SPARROW	1347	n/a	n/a	0	0	0
1291.358	n/a	WORD	645679	wordpools/wasnorm_wordpool_576.txt	LTP302	ltpFR2	3	6	TUBA	1515	n/a	n/a	0	0	0
1294.118	n/a	WORD	647059	wordpools/wasnorm_wordpool_576.txt	LTP302	ltpFR2	3	6	BRAKE	166	n/a	n/a	0	0	0
1296.646	n/a	WORD	648323	wordpools/wasnorm_wordpool_576.txt	LTP302	ltpFR2	3	6	SCALLOP	1242	n/a	n/a	0	0	0
1299.198	n/a	WORD	649599	wordpools/wasnorm_wordpool_576.txt	LTP302	ltpFR2	3	6	TURNIP	1521	n/a	n/a	0	0	0
1301.95	n/a	WORD	650975	wordpools/wasnorm_wordpool_576.txt	LTP302	ltpFR2	3	6	SLIDE	1326	n/a	n/a	0	0	0
1304.46	n/a	WORD	652230	wordpools/wasnorm_wordpool_576.txt	LTP302	ltpFR2	3	6	DONKEY	484	n/a	n/a	0	0	0
1306.896	n/a	WORD	653448	wordpools/wasnorm_wordpool_576.txt	LTP302	ltpFR2	3	6	DRINK	498	n/a	n/a	0	0	0
1309.588	n/a	WORD	654794	wordpools/wasnorm_wordpool_576.txt	LTP302	ltpFR2	3	6	STUDENT	1395	n/a	n/a	0	0	0
1312.29	n/a	WORD	656145	wordpools/wasnorm_wordpool_576.txt	LTP302	ltpFR2	3	6	TEACHER	1440	n/a	n/a	0	0	0
1314.992	n/a	WORD	657496	wordpools/wasnorm_wordpool_576.txt	LTP302	ltpFR2	3	6	LABEL	790	n/a	n/a	0	0	0
1317.494	n/a	WORD	658747	wordpools/wasnorm_wordpool_576.txt	LTP302	ltpFR2	3	6	POET	1095	n/a	n/a	0	0	0
1320.298	n/a	WORD	660149	wordpools/wasnorm_wordpool_576.txt	LTP302	ltpFR2	3	6	PATIENT	1024	n/a	n/a	0	0	0
1322.908	n/a	WORD	661454	wordpools/wasnorm_wordpool_576.txt	LTP302	ltpFR2	3	6	PILOT	1070	n/a	n/a	0	0	0
1325.662	n/a	WORD	662831	wordpools/wasnorm_wordpool_576.txt	LTP302	ltpFR2	3	6	HAMPER	682	n/a	n/a	0	0	0
1328.136	n/a	WORD	664068	wordpools/wasnorm_wordpool_576.txt	LTP302	ltpFR2	3	6	LOFT	840	n/a	n/a	0	0	0
1330.682	n/a	WORD	665341	wordpools/wasnorm_wordpool_576.txt	LTP302	ltpFR2	3	6	EYELASH	546	n/a	n/a	0	0	0
1333.324	n/a	WORD	666662	wordpools/wasnorm_wordpool_576.txt	LTP302	ltpFR2	3	6	ACTRESS	6	n/a	n/a	0	0	0
1335.86	n/a	WORD	667930	wordpools/wasnorm_wordpool_576.txt	LTP302	ltpFR2	3	6	FILM	565	n/a	n/a	0	0	0
1338.462	n/a	WORD	669231	wordpools/wasnorm_wordpool_576.txt	LTP302	ltpFR2	3	6	VAGRANT	1544	n/a	n/a	0	0	0
1341.196	n/a	WORD	670598	wordpools/wasnorm_wordpool_576.txt	LTP302	ltpFR2	3	6	CLAM	315	n/a	n/a	0	0	0
1343.792	n/a	WORD	671896	wordpools/wasnorm_wordpool_576.txt	LTP302	ltpFR2	3	6	FUNGUS	614	n/a	n/a	0	0	0
1346.444	n/a	WORD	673222	wordpools/wasnorm_wordpool_576.txt	LTP302	ltpFR2	3	6	PIZZA	1079	n/a	n/a	0	0	0
1348.052	n/a	START	674026	n/a	LTP302	ltpFR2	3	n/a	n/a	n/a	9	n/a	n/a	n/a	n/a
1348.918	n/a	DISTRACTOR	674459	n/a	LTP302	ltpFR2	3	6	n/a	n/a	n/a	n/a	0	0	0
1348.93	n/a	PROB	674465	n/a	LTP302	ltpFR2	3	n/a	n/a	n/a	9	18	1	9	8
1351.036	n/a	PROB	675518	n/a	LTP302	ltpFR2	3	n/a	n/a	n/a	9	17	7	3	7
1352.604	n/a	PROB	676302	n/a	LTP302	ltpFR2	3	n/a	n/a	n/a	9	10	6	1	3
1355.708	n/a	PROB	677854	n/a	LTP302	ltpFR2	3	n/a	n/a	n/a	9	15	9	1	5
1357.826	n/a	PROB	678913	n/a	LTP302	ltpFR2	3	n/a	n/a	n/a	9	16	8	3	5
1359.91	n/a	PROB	679955	n/a	LTP302	ltpFR2	3	n/a	n/a	n/a	9	16	3	7	6
1361.346	n/a	PROB	680673	n/a	LTP302	ltpFR2	3	n/a	n/a	n/a	9	13	1	3	9
1363.28	n/a	PROB	681640	n/a	LTP302	ltpFR2	3	n/a	n/a	n/a	9	20	8	8	4
1366.7	n/a	PROB	683350	n/a	LTP302	ltpFR2	3	n/a	n/a	n/a	9	19	4	6	9
1368.548	n/a	PROB	684274	n/a	LTP302	ltpFR2	3	n/a	n/a	n/a	9	9	1	3	5
1370.736	n/a	STOP	685368	n/a	LTP302	ltpFR2	3	n/a	n/a	n/a	9	n/a	n/a	n/a	n/a
1373.806	n/a	REC_START	686903	n/a	LTP302	ltpFR2	3	6	n/a	n/a	n/a	n/a	0	0	0
1376.742	n/a	REC_WORD	688371	wordpools/wasnorm_wordpool_576.txt	LTP302	ltpFR2	3	6	VAGRANT	1544	n/a	n/a	0	0	0
1380.012	n/a	REC_WORD	690006	wordpools/wasnorm_wordpool_576.txt	LTP302	ltpFR2	3	6	STUDENT	1395	n/a	n/a	0	0	0
1382.21	n/a	REC_WORD	691105	wordpools/wasnorm_wordpool_576.txt	LTP302	ltpFR2	3	6	TEACHER	1440	n/a	n/a	0	0	0
1384.938	n/a	REC_WORD	692469	wordpools/wasnorm_wordpool_576.txt	LTP302	ltpFR2	3	6	POET	1095	n/a	n/a	0	0	0
1387.098	n/a	REC_WORD	693549	wordpools/wasnorm_wordpool_576.txt	LTP302	ltpFR2	3	6	PILOT	1070	n/a	n/a	0	0	0
1389.848	n/a	REC_WORD	694924	wordpools/wasnorm_wordpool_576.txt	LTP302	ltpFR2	3	6	PATIENT	1024	n/a	n/a	0	0	0
1398.842	n/a	REC_WORD	699421	wordpools/wasnorm_wordpool_576.txt	LTP302	ltpFR2	3	6	KLEENEX	782	n/a	n/a	0	0	0
1402.636	n/a	REC_WORD	701318	wordpools/wasnorm_wordpool_576.txt	LTP302	ltpFR2	3	6	SPARROW	1347	n/a	n/a	0	0	0
1403.636	n/a	REC_WORD_VV	701818	wordpools/wasnorm_wordpool_576.txt	LTP302	ltpFR2	3	6	<>	-1	n/a	n/a	0	0	0
1404.746	n/a	REC_WORD	702373	wordpools/wasnorm_wordpool_576.txt	LTP302	ltpFR2	3	6	SCALLOP	1242	n/a	n/a	0	0	0
1464.246	n/a	DISTRACTOR	732123	n/a	LTP302	ltpFR2	3	7	n/a	n/a	n/a	n/a	0	0	0
1464.246	n/a	START	732123	n/a	LTP302	ltpFR2	3	n/a	n/a	n/a	10	n/a	n/a	n/a	n/a
1464.258	n/a	PROB	732129	n/a	LTP302	ltpFR2	3	n/a	n/a	n/a	10	19	9	7	3
1466.076	n/a	PROB	733038	n/a	LTP302	ltpFR2	3	n/a	n/a	n/a	10	21	7	6	8
1468.028	n/a	PROB	734014	n/a	LTP302	ltpFR2	3	n/a	n/a	n/a	10	14	3	8	3
1471.896	n/a	PROB	735948	n/a	LTP302	ltpFR2	3	n/a	n/a	n/a	10	10	2	5	3
1474.7	n/a	PROB	737350	n/a	LTP302	ltpFR2	3	n/a	n/a	n/a	10	20	9	6	5
1476.984	n/a	PROB	738492	n/a	LTP302	ltpFR2	3	n/a	n/a	n/a	10	9	7	1	1
1478.502	n/a	PROB	739251	n/a	LTP302	ltpFR2	3	n/a	n/a	n/a	10	17	3	8	6
1480.87	n/a	PROB	740435	n/a	LTP302	ltpFR2	3	n/a	n/a	n/a	10	11	2	8	1
1482.856	n/a	PROB	741428	n/a	LTP302	ltpFR2	3	n/a	n/a	n/a	10	14	2	8	4
1486.142	n/a	PROB	743071	n/a	LTP302	ltpFR2	3	n/a	n/a	n/a	10	14	5	5	4
1488.13	n/a	STOP	744065	n/a	LTP302	ltpFR2	3	n/a	n/a	n/a	10	n/a	n/a	n/a	n/a
1489.196	n/a	WORD	744598	wordpools/wasnorm_wordpool_576.txt	LTP302	ltpFR2	3	7	FINGER	567	n/a	n/a	0	0	0
1491.736	n/a	WORD	745868	wordpools/wasnorm_wordpool_576.txt	LTP302	ltpFR2	3	7	MATCH	878	n/a	n/a	0	0	0
1494.354	n/a	WORD	747177	wordpools/wasnorm_wordpool_576.txt	LTP302	ltpFR2	3	7	PRINCESS	1125	n/a	n/a	0	0	0
1497.084	n/a	WORD	748542	wordpools/wasnorm_wordpool_576.txt	LTP302	ltpFR2	3	7	BACKBONE	66	n/a	n/a	0	0	0
1499.886	n/a	WORD	749943	wordpools/wasnorm_wordpool_576.txt	LTP302	ltpFR2	3	7	SOFTBALL	1343	n/a	n/a	0	0	0
1502.428	n/a	WORD	751214	wordpools/wasnorm_wordpool_576.txt	LTP302	ltpFR2	3	7	GLOVE	642	n/a	n/a	0	0	0
1505.146	n/a	WORD	752573	wordpools/wasnorm_wordpool_576.txt	LTP302	ltpFR2	3	7	SPOUSE	1358	n/a	n/a	0	0	0
1507.916	n/a	WORD	753958	wordpools/wasnorm_wordpool_576.txt	LTP302	ltpFR2	3	7	OUTDOORS	987	n/a	n/a	0	0	0
1510.728	n/a	WORD	755364	wordpools/wasnorm_wordpool_576.txt	LTP302	ltpFR2	3	7	TOASTER	1472	n/a	n/a	0	0	0
1513.514	n/a	WORD	756757	wordpools/wasnorm_wordpool_576.txt	LTP302	ltpFR2	3	7	CYCLONE	431	n/a	n/a	0	0	0
1516.266	n/a	WORD	758133	wordpools/wasnorm_wordpool_576.txt	LTP302	ltpFR2	3	7	STALLION	1369	n/a	n/a	0	0	0
1519.018	n/a	WORD	759509	wordpools/wasnorm_wordpool_576.txt	LTP302	ltpFR2	3	7	HORSE	719	n/a	n/a	0	0	0
1521.822	n/a	WORD	760911	wordpools/wasnorm_wordpool_576.txt	LTP302	ltpFR2	3	7	SILK	1307	n/a	n/a	0	0	0
1524.29	n/a	WORD	762145	wordpools/wasnorm_wordpool_576.txt	LTP302	ltpFR2	3	7	WIFE	1609	n/a	n/a	0	0	0
1527.108	n/a	WORD	763554	wordpools/wasnorm_wordpool_576.txt	LTP302	ltpFR2	3	7	DRILL	497	n/a	n/a	0	0	0
1529.634	n/a	WORD	764817	wordpools/wasnorm_wordpool_576.txt	LTP302	ltpFR2	3	7	CATCHER	258	n/a	n/a	0	0	0
1532.338	n/a	WORD	766169	wordpools/wasnorm_wordpool_576.txt	LTP302	ltpFR2	3	7	COCKTAIL	338	n/a	n/a	0	0	0
1535.098	n/a	WORD	767549	wordpools/wasnorm_wordpool_576.txt	LTP302	ltpFR2	3	7	MOP	916	n/a	n/a	0	0	0
1537.8	n/a	WORD	768900	wordpools/wasnorm_wordpool_576.txt	LTP302	ltpFR2	3	7	NECKLACE	940	n/a	n/a	0	0	0
1540.478	n/a	WORD	770239	wordpools/wasnorm_wordpool_576.txt	LTP302	ltpFR2	3	7	MEDAL	885	n/a	n/a	0	0	0
1543.154	n/a	WORD	771577	wordpools/wasnorm_wordpool_576.txt	LTP302	ltpFR2	3	7	BRACES	164	n/a	n/a	0	0	0
1545.956	n/a	WORD	772978	wordpools/wasnorm_wordpool_576.txt	LTP302	ltpFR2	3	7	BUCKET	184	n/a	n/a	0	0	0
1548.742	n/a	WORD	774371	wordpools/wasnorm_wordpool_576.txt	LTP302	ltpFR2	3	7	CROWN	415	n/a	n/a	0	0	0
1551.226	n/a	WORD	775613	wordpools/wasnorm_wordpool_576.txt	LTP302	ltpFR2	3	7	JUGGLER	763	n/a	n/a	0	0	0
1552.838	n/a	START	776419	n/a	LTP302	ltpFR2	3	n/a	n/a	n/a	11	n/a	n/a	n/a	n/a
1553.732	n/a	DISTRACTOR	776866	n/a	LTP302	ltpFR2	3	7	n/a	n/a	n/a	n/a	0	0	0
1553.738	n/a	PROB	776869	n/a	LTP302	ltpFR2	3	n/a	n/a	n/a	11	17	8	8	1
1555.898	n/a	PROB	777949	n/a	LTP302	ltpFR2	3	n/a	n/a	n/a	11	17	5	6	6
1558.882	n/a	PROB	779441	n/a	LTP302	ltpFR2	3	n/a	n/a	n/a	11	18	9	3	6
1560.718	n/a	PROB	780359	n/a	LTP302	ltpFR2	3	n/a	n/a	n/a	11	24	8	9	7
1564.92	n/a	PROB	782460	n/a	LTP302	ltpFR2	3	n/a	n/a	n/a	11	24	8	7	9
1566.872	n/a	PROB	783436	n/a	LTP302	ltpFR2	3	n/a	n/a	n/a	11	10	5	3	2
1568.906	n/a	PROB	784453	n/a	LTP302	ltpFR2	3	n/a	n/a	n/a	11	14	2	4	8
1572.024	n/a	PROB	786012	n/a	LTP302	ltpFR2	3	n/a	n/a	n/a	11	22	6	8	8
1574.344	n/a	PROB	787172	n/a	LTP302	ltpFR2	3	n/a	n/a	n/a	11	11	6	1	4
1576.492	n/a	STOP	788246	n/a	LTP302	ltpFR2	3	n/a	n/a	n/a	11	n/a	n/a	n/a	n/a
1578.75	n/a	REC_START	789375	n/a	LTP302	ltpFR2	3	7	n/a	n/a	n/a	n/a	0	0	0
1581.312	n/a	REC_WORD	790656	wordpools/wasnorm_wordpool_576.txt	LTP302	ltpFR2	3	7	PRINCESS	1125	n/a	n/a	0	0	0
1582.914	n/a	REC_WORD	791457	wordpools/wasnorm_wordpool_576.txt	LTP302	ltpFR2	3	7	CROWN	415	n/a	n/a	0	0	0
1584.94	n/a	REC_WORD	792470	wordpools/wasnorm_wordpool_576.txt	LTP302	ltpFR2	3	7	NECKLACE	940	n/a	n/a	0	0	0
1586.73	n/a	REC_WORD	793365	wordpools/wasnorm_wordpool_576.txt	LTP302	ltpFR2	3	7	WIFE	1609	n/a	n/a	0	0	0
1588.892	n/a	REC_WORD	794446	wordpools/wasnorm_wordpool_576.txt	LTP302	ltpFR2	3	7	SPOUSE	1358	n/a	n/a	0	0	0
1589.892	n/a	REC_WORD_VV	794946	wordpools/wasnorm_wordpool_576.txt	LTP302	ltpFR2	3	7	<>	-1	n/a	n/a	0	0	0
1593.112	n/a	REC_WORD	796556	wordpools/wasnorm_wordpool_576.txt	LTP302	ltpFR2	3	7	CATCHER	258	n/a	n/a	0	0	0
1594.53	n/a	REC_WORD	797265	wordpools/wasnorm_wordpool_576.txt	LTP302	ltpFR2	3	7	SOFTBALL	1343	n/a	n/a	0	0	0
1595.53	n/a	REC_WORD_VV	797765	wordpools/wasnorm_wordpool_576.txt	LTP302	ltpFR2	3	7	<>	-1	n/a	n/a	0	0	0
1596.508	n/a	REC_WORD	798254	wordpools/wasnorm_wordpool_576.txt	LTP302	ltpFR2	3	7	GLOVE	642	n/a	n/a	0	0	0
1599.228	n/a	REC_WORD	799614	wordpools/wasnorm_wordpool_576.txt	LTP302	ltpFR2	3	7	DRILL	497	n/a	n/a	0	0	0
1600.998	n/a	REC_WORD	800499	wordpools/wasnorm_wordpool_576.txt	LTP302	ltpFR2	3	7	FINGER	567	n/a	n/a	0	0	0
1604.73	n/a	REC_WORD	802365	wordpools/wasnorm_wordpool_576.txt	LTP302	ltpFR2	3	7	MATCH	878	n/a	n/a	0	0	0
1669.218	n/a	WORD	834609	wordpools/wasnorm_wordpool_576.txt	LTP302	ltpFR2	3	8	LIVER	833	n/a	n/a	0	0	0
1671.82	n/a	WORD	835910	wordpools/wasnorm_wordpool_576.txt	LTP302	ltpFR2	3	8	HIGHWAY	707	n/a	n/a	0	0	0
1674.29	n/a	WORD	837145	wordpools/wasnorm_wordpool_576.txt	LTP302	ltpFR2	3	8	PARSLEY	1016	n/a	n/a	0	0	0
1677.058	n/a	WORD	838529	wordpools/wasnorm_wordpool_576.txt	LTP302	ltpFR2	3	8	ROCKET	1202	n/a	n/a	0	0	0
1679.56	n/a	WORD	839780	wordpools/wasnorm_wordpool_576.txt	LTP302	ltpFR2	3	8	FIREPLACE	570	n/a	n/a	0	0	0
1682.128	n/a	WORD	841064	wordpools/wasnorm_wordpool_576.txt	LTP302	ltpFR2	3	8	BUG	187	n/a	n/a	0	0	0
1684.58	n/a	WORD	842290	wordpools/wasnorm_wordpool_576.txt	LTP302	ltpFR2	3	8	TERMITE	1451	n/a	n/a	0	0	0
1687.216	n/a	WORD	843608	wordpools/wasnorm_wordpool_576.txt	LTP302	ltpFR2	3	8	BUREAU	199	n/a	n/a	0	0	0
1690.034	n/a	WORD	845017	wordpools/wasnorm_wordpool_576.txt	LTP302	ltpFR2	3	8	CHEST	295	n/a	n/a	0	0	0
1692.638	n/a	WORD	846319	wordpools/wasnorm_wordpool_576.txt	LTP302	ltpFR2	3	8	GOBLIN	645	n/a	n/a	0	0	0
1695.274	n/a	WORD	847637	wordpools/wasnorm_wordpool_576.txt	LTP302	ltpFR2	3	8	DORM	488	n/a	n/a	0	0	0
1697.742	n/a	WORD	848871	wordpools/wasnorm_wordpool_576.txt	LTP302	ltpFR2	3	8	GARDEN	623	n/a	n/a	0	0	0
1700.312	n/a	WORD	850156	wordpools/wasnorm_wordpool_576.txt	LTP302	ltpFR2	3	8	FIREMAN	569	n/a	n/a	0	0	0
1702.93	n/a	WORD	851465	wordpools/wasnorm_wordpool_576.txt	LTP302	ltpFR2	3	8	XEROX	1628	n/a	n/a	0	0	0
1705.648	n/a	WORD	852824	wordpools/wasnorm_wordpool_576.txt	LTP302	ltpFR2	3	8	WASHER	1592	n/a	n/a	0	0	0
1708.416	n/a	WORD	854208	wordpools/wasnorm_wordpool_576.txt	LTP302	ltpFR2	3	8	BLENDER	136	n/a	n/a	0	0	0
1711.002	n/a	WORD	855501	wordpools/wasnorm_wordpool_576.txt	LTP302	ltpFR2	3	8	DAISY	435	n/a	n/a	0	0	0
1713.49	n/a	WORD	856745	wordpools/wasnorm_wordpool_576.txt	LTP302	ltpFR2	3	8	BRICK	172	n/a	n/a	0	0	0
1715.988	n/a	WORD	857994	wordpools/wasnorm_wordpool_576.txt	LTP302	ltpFR2	3	8	SCRIBBLE	1256	n/a	n/a	0	0	0
1718.79	n/a	WORD	859395	wordpools/wasnorm_wordpool_576.txt	LTP302	ltpFR2	3	8	PUPPY	1144	n/a	n/a	0	0	0
1721.542	n/a	WORD	860771	wordpools/wasnorm_wordpool_576.txt	LTP302	ltpFR2	3	8	SHELTER	1282	n/a	n/a	0	0	0
1724.166	n/a	WORD	862083	wordpools/wasnorm_wordpool_576.txt	LTP302	ltpFR2	3	8	POCKET	1093	n/a	n/a	0	0	0
1726.696	n/a	WORD	863348	wordpools/wasnorm_wordpool_576.txt	LTP302	ltpFR2	3	8	THRONE	1461	n/a	n/a	0	0	0
1729.25	n/a	WORD	864625	wordpools/wasnorm_wordpool_576.txt	LTP302	ltpFR2	3	8	MACHINE	852	n/a	n/a	0	0	0
1730.856	n/a	START	865428	n/a	LTP302	ltpFR2	3	n/a	n/a	n/a	12	n/a	n/a	n/a	n/a
1732.02	n/a	DISTRACTOR	866010	n/a	LTP302	ltpFR2	3	8	n/a	n/a	n/a	n/a	0	0	0
1732.034	n/a	PROB	866017	n/a	LTP302	ltpFR2	3	n/a	n/a	n/a	12	19	6	7	6
1734.918	n/a	PROB	867459	n/a	LTP302	ltpFR2	3	n/a	n/a	n/a	12	22	9	8	5
1738.522	n/a	PROB	869261	n/a	LTP302	ltpFR2	3	n/a	n/a	n/a	12	18	4	6	8
1740.792	n/a	PROB	870396	n/a	LTP302	ltpFR2	3	n/a	n/a	n/a	12	17	1	9	7
1742.326	n/a	PROB	871163	n/a	LTP302	ltpFR2	3	n/a	n/a	n/a	12	14	6	3	5
1744.678	n/a	PROB	872339	n/a	LTP302	ltpFR2	3	n/a	n/a	n/a	12	16	5	6	5
1746.412	n/a	PROB	873206	n/a	LTP302	ltpFR2	3	n/a	n/a	n/a	12	15	7	2	6
1748.598	n/a	PROB	874299	n/a	LTP302	ltpFR2	3	n/a	n/a	n/a	12	11	1	2	8
1750.182	n/a	PROB	875091	n/a	LTP302	ltpFR2	3	n/a	n/a	n/a	12	16	6	2	8
1751.832	n/a	PROB	875916	n/a	LTP302	ltpFR2	3	n/a	n/a	n/a	12	16	4	4	8
1754.254	n/a	STOP	877127	n/a	LTP302	ltpFR2	3	n/a	n/a	n/a	12	n/a	n/a	n/a	n/a
1756.654	n/a	REC_START	878327	n/a	LTP302	ltpFR2	3	8	n/a	n/a	n/a	n/a	0	0	0
1759.984	n/a	REC_WORD	879992	wordpools/wasnorm_wordpool_576.txt	LTP302	ltpFR2	3	8	POCKET	1093	n/a	n/a	0	0	0
1766.754	n/a	REC_WORD	883377	wordpools/wasnorm_wordpool_576.txt	LTP302	ltpFR2	3	8	THRONE	1461	n/a	n/a	0	0	0
1769.018	n/a	REC_WORD	884509	wordpools/wasnorm_wordpool_576.txt	LTP302	ltpFR2	3	8	FIREPLACE	570	n/a	n/a	0	0	0
1770.018	n/a	REC_WORD_VV	885009	wordpools/wasnorm_wordpool_576.txt	LTP302	ltpFR2	3	8	<>	-1	n/a	n/a	0	0	0
1771.258	n/a	REC_WORD	885629	wordpools/wasnorm_wordpool_576.txt	LTP302	ltpFR2	3	8	FIREMAN	569	n/a	n/a	0	0	0
1772.258	n/a	REC_WORD_VV	886129	wordpools/wasnorm_wordpool_576.txt	LTP302	ltpFR2	3	8	<>	-1	n/a	n/a	0	0	0
1773.84	n/a	REC_WORD	886920	wordpools/wasnorm_wordpool_576.txt	LTP302	ltpFR2	3	8	ROCKET	1202	n/a	n/a	0	0	0
1789.918	n/a	REC_WORD	894959	wordpools/wasnorm_wordpool_576.txt	LTP302	ltpFR2	3	8	LIVER	833	n/a	n/a	0	0	0
1812.924	n/a	REC_WORD	906462	wordpools/wasnorm_wordpool_576.txt	LTP302	ltpFR2	3	8	XEROX	1628	n/a	n/a	0	0	0
1813.924	n/a	REC_WORD_VV	906962	wordpools/wasnorm_wordpool_576.txt	LTP302	ltpFR2	3	8	<>	-1	n/a	n/a	0	0	0
1815.718	n/a	REC_WORD	907859	wordpools/wasnorm_wordpool_576.txt	LTP302	ltpFR2	3	8	WASHER	1592	n/a	n/a	0	0	0
1833.192	n/a	REST_REWET	916596	n/a	LTP302	ltpFR2	3	8	n/a	n/a	n/a	n/a	0	0	0
1952.212	n/a	DISTRACTOR	976106	n/a	LTP302	ltpFR2	3	9	n/a	n/a	n/a	n/a	0	0	0
1952.212	n/a	START	976106	n/a	LTP302	ltpFR2	3	n/a	n/a	n/a	13	n/a	n/a	n/a	n/a
1952.226	n/a	PROB	976113	n/a	LTP302	ltpFR2	3	n/a	n/a	n/a	13	11	2	4	5
1955.124	n/a	PROB	977562	n/a	LTP302	ltpFR2	3	n/a	n/a	n/a	13	17	9	6	2
1959.21	n/a	PROB	979605	n/a	LTP302	ltpFR2	3	n/a	n/a	n/a	13	22	9	5	8
1965.584	n/a	PROB	982792	n/a	LTP302	ltpFR2	3	n/a	n/a	n/a	13	6	1	4	1
1967.166	n/a	PROB	983583	n/a	LTP302	ltpFR2	3	n/a	n/a	n/a	13	9	1	6	2
1970.088	n/a	PROB	985044	n/a	LTP302	ltpFR2	3	n/a	n/a	n/a	13	13	5	5	3
1971.504	n/a	PROB	985752	n/a	LTP302	ltpFR2	3	n/a	n/a	n/a	13	13	1	4	8
1976.21	n/a	STOP	988105	n/a	LTP302	ltpFR2	3	n/a	n/a	n/a	13	n/a	n/a	n/a	n/a
1977.28	n/a	WORD	988640	wordpools/wasnorm_wordpool_576.txt	LTP302	ltpFR2	3	9	ANKLE	24	n/a	n/a	0	0	0
1980.084	n/a	WORD	990042	wordpools/wasnorm_wordpool_576.txt	LTP302	ltpFR2	3	9	MILK	895	n/a	n/a	0	0	0
1982.73	n/a	WORD	991365	wordpools/wasnorm_wordpool_576.txt	LTP302	ltpFR2	3	9	MARROW	872	n/a	n/a	0	0	0
1985.538	n/a	WORD	992769	wordpools/wasnorm_wordpool_576.txt	LTP302	ltpFR2	3	9	UNCLE	1536	n/a	n/a	0	0	0
1988.152	n/a	WORD	994076	wordpools/wasnorm_wordpool_576.txt	LTP302	ltpFR2	3	9	PRIMATE	1123	n/a	n/a	0	0	0
1990.66	n/a	WORD	995330	wordpools/wasnorm_wordpool_576.txt	LTP302	ltpFR2	3	9	SCOTCH	1251	n/a	n/a	0	0	0
1993.172	n/a	WORD	996586	wordpools/wasnorm_wordpool_576.txt	LTP302	ltpFR2	3	9	SCULPTURE	1258	n/a	n/a	0	0	0
1995.99	n/a	WORD	997995	wordpools/wasnorm_wordpool_576.txt	LTP302	ltpFR2	3	9	VICTIM	1562	n/a	n/a	0	0	0
1998.45	n/a	WORD	999225	wordpools/wasnorm_wordpool_576.txt	LTP302	ltpFR2	3	9	FLASHLIGHT	575	n/a	n/a	0	0	0
2001.244	n/a	WORD	1000622	wordpools/wasnorm_wordpool_576.txt	LTP302	ltpFR2	3	9	JUDGE	761	n/a	n/a	0	0	0
2003.938	n/a	WORD	1001969	wordpools/wasnorm_wordpool_576.txt	LTP302	ltpFR2	3	9	STATUE	1374	n/a	n/a	0	0	0
2006.716	n/a	WORD	1003358	wordpools/wasnorm_wordpool_576.txt	LTP302	ltpFR2	3	9	KIDNEY	776	n/a	n/a	0	0	0
2009.418	n/a	WORD	1004709	wordpools/wasnorm_wordpool_576.txt	LTP302	ltpFR2	3	9	BATHTUB	100	n/a	n/a	0	0	0
2012.104	n/a	WORD	1006052	wordpools/wasnorm_wordpool_576.txt	LTP302	ltpFR2	3	9	JURY	766	n/a	n/a	0	0	0
2014.862	n/a	WORD	1007431	wordpools/wasnorm_wordpool_576.txt	LTP302	ltpFR2	3	9	INMATE	738	n/a	n/a	0	0	0
2017.364	n/a	WORD	1008682	wordpools/wasnorm_wordpool_576.txt	LTP302	ltpFR2	3	9	CONVICT	371	n/a	n/a	0	0	0
2019.942	n/a	WORD	1009971	wordpools/wasnorm_wordpool_576.txt	LTP302	ltpFR2	3	9	MAILMAN	858	n/a	n/a	0	0	0
2022.646	n/a	WORD	1011323	wordpools/wasnorm_wordpool_576.txt	LTP302	ltpFR2	3	9	PACKAGE	997	n/a	n/a	0	0	0
2025.346	n/a	WORD	1012673	wordpools/wasnorm_wordpool_576.txt	LTP302	ltpFR2	3	9	TEMPLE	1448	n/a	n/a	0	0	0
2027.89	n/a	WORD	1013945	wordpools/wasnorm_wordpool_576.txt	LTP302	ltpFR2	3	9	FIDDLE	561	n/a	n/a	0	0	0
2030.384	n/a	WORD	1015192	wordpools/wasnorm_wordpool_576.txt	LTP302	ltpFR2	3	9	HAND	683	n/a	n/a	0	0	0
2033.196	n/a	WORD	1016598	wordpools/wasnorm_wordpool_576.txt	LTP302	ltpFR2	3	9	TROUT	1511	n/a	n/a	0	0	0
2035.756	n/a	WORD	1017878	wordpools/wasnorm_wordpool_576.txt	LTP302	ltpFR2	3	9	SHERIFF	1284	n/a	n/a	0	0	0
2038.174	n/a	WORD	1019087	wordpools/wasnorm_wordpool_576.txt	LTP302	ltpFR2	3	9	FLUTE	585	n/a	n/a	0	0	0
2039.786	n/a	START	1019893	n/a	LTP302	ltpFR2	3	n/a	n/a	n/a	14	n/a	n/a	n/a	n/a
2040.804	n/a	DISTRACTOR	1020402	n/a	LTP302	ltpFR2	3	9	n/a	n/a	n/a	n/a	0	0	0
2040.81	n/a	PROB	1020405	n/a	LTP302	ltpFR2	3	n/a	n/a	n/a	14	6	1	4	1
2042.478	n/a	PROB	1021239	n/a	LTP302	ltpFR2	3	n/a	n/a	n/a	14	20	4	9	7
2044.63	n/a	PROB	1022315	n/a	LTP302	ltpFR2	3	n/a	n/a	n/a	14	18	6	5	7
2046.562	n/a	PROB	1023281	n/a	LTP302	ltpFR2	3	n/a	n/a	n/a	14	14	8	2	4
2049.298	n/a	PROB	1024649	n/a	LTP302	ltpFR2	3	n/a	n/a	n/a	14	15	3	8	4
2052.266	n/a	PROB	1026133	n/a	LTP302	ltpFR2	3	n/a	n/a	n/a	14	13	4	7	2
2055.418	n/a	PROB	1027709	n/a	LTP302	ltpFR2	3	n/a	n/a	n/a	14	16	2	5	9
2058.372	n/a	PROB	1029186	n/a	LTP302	ltpFR2	3	n/a	n/a	n/a	14	18	8	1	9
2060.106	n/a	PROB	1030053	n/a	LTP302	ltpFR2	3	n/a	n/a	n/a	14	15	4	3	8
2063.784	n/a	STOP	1031892	n/a	LTP302	ltpFR2	3	n/a	n/a	n/a	14	n/a	n/a	n/a	n/a
2065.528	n/a	REC_START	1032764	n/a	LTP302	ltpFR2	3	9	n/a	n/a	n/a	n/a	0	0	0
2070.592	n/a	REC_WORD	1035296	wordpools/wasnorm_wordpool_576.txt	LTP302	ltpFR2	3	9	MAILMAN	858	n/a	n/a	0	0	0
2073.528	n/a	REC_WORD	1036764	wordpools/wasnorm_wordpool_576.txt	LTP302	ltpFR2	3	9	PACKAGE	997	n/a	n/a	0	0	0
2076.008	n/a	REC_WORD	1038004	wordpools/wasnorm_wordpool_576.txt	LTP302	ltpFR2	3	9	HAND	683	n/a	n/a	0	0	0
2078.716	n/a	REC_WORD	1039358	wordpools/wasnorm_wordpool_576.txt	LTP302	ltpFR2	3	9	ANKLE	24	n/a	n/a	0	0	0
2086.774	n/a	REC_WORD	1043387	wordpools/wasnorm_wordpool_576.txt	LTP302	ltpFR2	3	9	VICTIM	1562	n/a	n/a	0	0	0
2089.132	n/a	REC_WORD	1044566	wordpools/wasnorm_wordpool_576.txt	LTP302	ltpFR2	3	9	CONVICT	371	n/a	n/a	0	0	0
2091.488	n/a	REC_WORD	1045744	wordpools/wasnorm_wordpool_576.txt	LTP302	ltpFR2	3	9	INMATE	738	n/a	n/a	0	0	0
2093.75	n/a	REC_WORD	1046875	wordpools/wasnorm_wordpool_576.txt	LTP302	ltpFR2	3	9	JUDGE	761	n/a	n/a	0	0	0
2095.904	n/a	REC_WORD	1047952	wordpools/wasnorm_wordpool_576.txt	LTP302	ltpFR2	3	9	JURY	766	n/a	n/a	0	0	0
2155.998	n/a	WORD	1077999	wordpools/wasnorm_wordpool_576.txt	LTP302	ltpFR2	3	10	TRIBE	1505	n/a	n/a	0	0	0
2158.518	n/a	WORD	1079259	wordpools/wasnorm_wordpool_576.txt	LTP302	ltpFR2	3	10	RADISH	1158	n/a	n/a	0	0	0
2161.304	n/a	WORD	1080652	wordpools/wasnorm_wordpool_576.txt	LTP302	ltpFR2	3	10	LAPEL	800	n/a	n/a	0	0	0
2163.84	n/a	WORD	1081920	wordpools/wasnorm_wordpool_576.txt	LTP302	ltpFR2	3	10	PERFUME	1049	n/a	n/a	0	0	0
2166.59	n/a	WORD	1083295	wordpools/wasnorm_wordpool_576.txt	LTP302	ltpFR2	3	10	ROD	1203	n/a	n/a	0	0	0
2169.41	n/a	WORD	1084705	wordpools/wasnorm_wordpool_576.txt	LTP302	ltpFR2	3	10	ATOM	55	n/a	n/a	0	0	0
2172.194	n/a	WORD	1086097	wordpools/wasnorm_wordpool_576.txt	LTP302	ltpFR2	3	10	THIEF	1456	n/a	n/a	0	0	0
2174.982	n/a	WORD	1087491	wordpools/wasnorm_wordpool_576.txt	LTP302	ltpFR2	3	10	JELLY	755	n/a	n/a	0	0	0
2177.666	n/a	WORD	1088833	wordpools/wasnorm_wordpool_576.txt	LTP302	ltpFR2	3	10	POWDER	1117	n/a	n/a	0	0	0
2180.136	n/a	WORD	1090068	wordpools/wasnorm_wordpool_576.txt	LTP302	ltpFR2	3	10	COMPASS	358	n/a	n/a	0	0	0
2182.602	n/a	WORD	1091301	wordpools/wasnorm_wordpool_576.txt	LTP302	ltpFR2	3	10	MAMMAL	861	n/a	n/a	0	0	0
2185.138	n/a	WORD	1092569	wordpools/wasnorm_wordpool_576.txt	LTP302	ltpFR2	3	10	DOLPHIN	483	n/a	n/a	0	0	0
2187.91	n/a	WORD	1093955	wordpools/wasnorm_wordpool_576.txt	LTP302	ltpFR2	3	10	SADDLE	1221	n/a	n/a	0	0	0
2190.578	n/a	WORD	1095289	wordpools/wasnorm_wordpool_576.txt	LTP302	ltpFR2	3	10	GAVEL	627	n/a	n/a	0	0	0
2193.348	n/a	WORD	1096674	wordpools/wasnorm_wordpool_576.txt	LTP302	ltpFR2	3	10	NEUTRON	947	n/a	n/a	0	0	0
2196.146	n/a	WORD	1098073	wordpools/wasnorm_wordpool_576.txt	LTP302	ltpFR2	3	10	CRATER	400	n/a	n/a	0	0	0
2198.916	n/a	WORD	1099458	wordpools/wasnorm_wordpool_576.txt	LTP302	ltpFR2	3	10	SHOVEL	1295	n/a	n/a	0	0	0
2201.568	n/a	WORD	1100784	wordpools/wasnorm_wordpool_576.txt	LTP302	ltpFR2	3	10	PUDDLE	1140	n/a	n/a	0	0	0
2204.302	n/a	WORD	1102151	wordpools/wasnorm_wordpool_576.txt	LTP302	ltpFR2	3	10	REPORT	1184	n/a	n/a	0	0	0
2206.988	n/a	WORD	1103494	wordpools/wasnorm_wordpool_576.txt	LTP302	ltpFR2	3	10	DIVER	476	n/a	n/a	0	0	0
2209.562	n/a	WORD	1104781	wordpools/wasnorm_wordpool_576.txt	LTP302	ltpFR2	3	10	MARSH	874	n/a	n/a	0	0	0
2212.364	n/a	WORD	1106182	wordpools/wasnorm_wordpool_576.txt	LTP302	ltpFR2	3	10	RUST	1219	n/a	n/a	0	0	0
2215.134	n/a	WORD	1107567	wordpools/wasnorm_wordpool_576.txt	LTP302	ltpFR2	3	10	STICKER	1382	n/a	n/a	0	0	0
2217.636	n/a	WORD	1108818	wordpools/wasnorm_wordpool_576.txt	LTP302	ltpFR2	3	10	SUSPECT	1415	n/a	n/a	0	0	0
2219.25	n/a	START	1109625	n/a	LTP302	ltpFR2	3	n/a	n/a	n/a	15	n/a	n/a	n/a	n/a
2220.144	n/a	DISTRACTOR	1110072	n/a	LTP302	ltpFR2	3	10	n/a	n/a	n/a	n/a	0	0	0
2220.148	n/a	PROB	1110074	n/a	LTP302	ltpFR2	3	n/a	n/a	n/a	15	15	7	2	6
2223.668	n/a	PROB	1111834	n/a	LTP302	ltpFR2	3	n/a	n/a	n/a	15	8	3	1	4
2225.436	n/a	PROB	1112718	n/a	LTP302	ltpFR2	3	n/a	n/a	n/a	15	11	9	1	1
2227.72	n/a	PROB	1113860	n/a	LTP302	ltpFR2	3	n/a	n/a	n/a	15	10	4	1	5
2229.938	n/a	PROB	1114969	n/a	LTP302	ltpFR2	3	n/a	n/a	n/a	15	24	8	9	7
2232.64	n/a	PROB	1116320	n/a	LTP302	ltpFR2	3	n/a	n/a	n/a	15	6	1	1	4
2233.99	n/a	PROB	1116995	n/a	LTP302	ltpFR2	3	n/a	n/a	n/a	15	14	4	7	3
2235.51	n/a	PROB	1117755	n/a	LTP302	ltpFR2	3	n/a	n/a	n/a	15	13	2	7	4
2237.578	n/a	PROB	1118789	n/a	LTP302	ltpFR2	3	n/a	n/a	n/a	15	14	8	1	5
2239.73	n/a	PROB	1119865	n/a	LTP302	ltpFR2	3	n/a	n/a	n/a	15	23	8	9	6
2242.352	n/a	STOP	1121176	n/a	LTP302	ltpFR2	3	n/a	n/a	n/a	15	n/a	n/a	n/a	n/a
2245.152	n/a	REC_START	1122576	n/a	LTP302	ltpFR2	3	10	n/a	n/a	n/a	n/a	0	0	0
2247.204	n/a	REC_WORD	1123602	wordpools/wasnorm_wordpool_576.txt	LTP302	ltpFR2	3	10	DIVER	476	n/a	n/a	0	0	0
2249.204	n/a	REC_WORD	1124602	wordpools/wasnorm_wordpool_576.txt	LTP302	ltpFR2	3	10	REPORT	1184	n/a	n/a	0	0	0
2252.42	n/a	REC_WORD	1126210	wordpools/wasnorm_wordpool_576.txt	LTP302	ltpFR2	3	10	THIEF	1456	n/a	n/a	0	0	0
2254.476	n/a	REC_WORD	1127238	wordpools/wasnorm_wordpool_576.txt	LTP302	ltpFR2	3	10	SUSPECT	1415	n/a	n/a	0	0	0
2255.476	n/a	REC_WORD_VV	1127738	wordpools/wasnorm_wordpool_576.txt	LTP302	ltpFR2	3	10	<>	-1	n/a	n/a	0	0	0
2258.9	n/a	REC_WORD	1129450	wordpools/wasnorm_wordpool_576.txt	LTP302	ltpFR2	3	10	NEUTRON	947	n/a	n/a	0	0	0
2265.918	n/a	REC_WORD	1132959	wordpools/wasnorm_wordpool_576.txt	LTP302	ltpFR2	3	10	LAPEL	800	n/a	n/a	0	0	0
2335.604	n/a	WORD	1167802	wordpools/wasnorm_wordpool_576.txt	LTP302	ltpFR2	3	11	FLASK	576	n/a	n/a	0	0	0
2338.404	n/a	WORD	1169202	wordpools/wasnorm_wordpool_576.txt	LTP302	ltpFR2	3	11	ICEBERG	731	n/a	n/a	0	0	0
2341.226	n/a	WORD	1170613	wordpools/wasnorm_wordpool_576.txt	LTP302	ltpFR2	3	11	INFANT	737	n/a	n/a	0	0	0
2343.88	n/a	WORD	1171940	wordpools/wasnorm_wordpool_576.txt	LTP302	ltpFR2	3	11	HEADBAND	696	n/a	n/a	0	0	0
2346.462	n/a	WORD	1173231	wordpools/wasnorm_wordpool_576.txt	LTP302	ltpFR2	3	11	WHISKERS	1605	n/a	n/a	0	0	0
2349.214	n/a	WORD	1174607	wordpools/wasnorm_wordpool_576.txt	LTP302	ltpFR2	3	11	CAMEL	223	n/a	n/a	0	0	0
2351.814	n/a	WORD	1175907	wordpools/wasnorm_wordpool_576.txt	LTP302	ltpFR2	3	11	COFFEE	341	n/a	n/a	0	0	0
2354.304	n/a	WORD	1177152	wordpools/wasnorm_wordpool_576.txt	LTP302	ltpFR2	3	11	SPIDER	1351	n/a	n/a	0	0	0
2356.804	n/a	WORD	1178402	wordpools/wasnorm_wordpool_576.txt	LTP302	ltpFR2	3	11	GREASE	660	n/a	n/a	0	0	0
2359.256	n/a	WORD	1179628	wordpools/wasnorm_wordpool_576.txt	LTP302	ltpFR2	3	11	GARLIC	624	n/a	n/a	0	0	0
2361.79	n/a	WORD	1180895	wordpools/wasnorm_wordpool_576.txt	LTP302	ltpFR2	3	11	SALAD	1224	n/a	n/a	0	0	0
2364.242	n/a	WORD	1182121	wordpools/wasnorm_wordpool_576.txt	LTP302	ltpFR2	3	11	LETTUCE	814	n/a	n/a	0	0	0
2367.01	n/a	WORD	1183505	wordpools/wasnorm_wordpool_576.txt	LTP302	ltpFR2	3	11	RECEIPT	1173	n/a	n/a	0	0	0
2369.53	n/a	WORD	1184765	wordpools/wasnorm_wordpool_576.txt	LTP302	ltpFR2	3	11	MARKET	871	n/a	n/a	0	0	0
2372.3	n/a	WORD	1186150	wordpools/wasnorm_wordpool_576.txt	LTP302	ltpFR2	3	11	RELISH	1183	n/a	n/a	0	0	0
2375.018	n/a	WORD	1187509	wordpools/wasnorm_wordpool_576.txt	LTP302	ltpFR2	3	11	RABBIT	1152	n/a	n/a	0	0	0
2377.672	n/a	WORD	1188836	wordpools/wasnorm_wordpool_576.txt	LTP302	ltpFR2	3	11	CHAMPAGNE	278	n/a	n/a	0	0	0
2380.124	n/a	WORD	1190062	wordpools/wasnorm_wordpool_576.txt	LTP302	ltpFR2	3	11	OFFICE	972	n/a	n/a	0	0	0
2382.876	n/a	WORD	1191438	wordpools/wasnorm_wordpool_576.txt	LTP302	ltpFR2	3	11	FRAME	600	n/a	n/a	0	0	0
2385.544	n/a	WORD	1192772	wordpools/wasnorm_wordpool_576.txt	LTP302	ltpFR2	3	11	PEPPER	1047	n/a	n/a	0	0	0
2388.13	n/a	WORD	1194065	wordpools/wasnorm_wordpool_576.txt	LTP302	ltpFR2	3	11	FOREHEAD	592	n/a	n/a	0	0	0
2390.648	n/a	WORD	1195324	wordpools/wasnorm_wordpool_576.txt	LTP302	ltpFR2	3	11	CANDY	230	n/a	n/a	0	0	0
2393.384	n/a	WORD	1196692	wordpools/wasnorm_wordpool_576.txt	LTP302	ltpFR2	3	11	GYMNAST	675	n/a	n/a	0	0	0
2395.886	n/a	WORD	1197943	wordpools/wasnorm_wordpool_576.txt	LTP302	ltpFR2	3	11	SHIRT	1287	n/a	n/a	0	0	0
2397.504	n/a	START	1198752	n/a	LTP302	ltpFR2	3	n/a	n/a	n/a	16	n/a	n/a	n/a	n/a
2398.34	n/a	DISTRACTOR	1199170	n/a	LTP302	ltpFR2	3	11	n/a	n/a	n/a	n/a	0	0	0
2398.354	n/a	PROB	1199177	n/a	LTP302	ltpFR2	3	n/a	n/a	n/a	16	14	8	4	2
2400.656	n/a	PROB	1200328	n/a	LTP302	ltpFR2	3	n/a	n/a	n/a	16	14	4	5	5
2402.122	n/a	PROB	1201061	n/a	LTP302	ltpFR2	3	n/a	n/a	n/a	16	15	8	5	2
2404.908	n/a	PROB	1202454	n/a	LTP302	ltpFR2	3	n/a	n/a	n/a	16	8	4	1	3
2406.992	n/a	PROB	1203496	n/a	LTP302	ltpFR2	3	n/a	n/a	n/a	16	11	1	4	6
2408.478	n/a	PROB	1204239	n/a	LTP302	ltpFR2	3	n/a	n/a	n/a	16	18	6	3	9
2410.346	n/a	PROB	1205173	n/a	LTP302	ltpFR2	3	n/a	n/a	n/a	16	25	8	9	9
2414.45	n/a	PROB	1207225	n/a	LTP302	ltpFR2	3	n/a	n/a	n/a	16	9	2	3	4
2420.066	n/a	STOP	1210033	n/a	LTP302	ltpFR2	3	n/a	n/a	n/a	16	n/a	n/a	n/a	n/a
2423.372	n/a	REC_START	1211686	n/a	LTP302	ltpFR2	3	11	n/a	n/a	n/a	n/a	0	0	0
2425.86	n/a	REC_WORD	1212930	wordpools/wasnorm_wordpool_576.txt	LTP302	ltpFR2	3	11	GYMNAST	675	n/a	n/a	0	0	0
2427.998	n/a	REC_WORD	1213999	wordpools/wasnorm_wordpool_576.txt	LTP302	ltpFR2	3	11	FOREHEAD	592	n/a	n/a	0	0	0
2428.998	n/a	REC_WORD_VV	1214499	wordpools/wasnorm_wordpool_576.txt	LTP302	ltpFR2	3	11	<>	-1	n/a	n/a	0	0	0
2430.162	n/a	REC_WORD	1215081	wordpools/wasnorm_wordpool_576.txt	LTP302	ltpFR2	3	11	HEADBAND	696	n/a	n/a	0	0	0
2431.162	n/a	REC_WORD_VV	1215581	wordpools/wasnorm_wordpool_576.txt	LTP302	ltpFR2	3	11	<>	-1	n/a	n/a	0	0	0
2434.324	n/a	REC_WORD	1217162	wordpools/wasnorm_wordpool_576.txt	LTP302	ltpFR2	3	11	ICEBERG	731	n/a	n/a	0	0	0
2436.278	n/a	REC_WORD	1218139	wordpools/wasnorm_wordpool_576.txt	LTP302	ltpFR2	3	11	SALAD	1224	n/a	n/a	0	0	0
2438.252	n/a	REC_WORD	1219126	wordpools/wasnorm_wordpool_576.txt	LTP302	ltpFR2	3	11	PEPPER	1047	n/a	n/a	0	0	0
2440.022	n/a	REC_WORD	1220011	wordpools/wasnorm_wordpool_576.txt	LTP302	ltpFR2	3	11	LETTUCE	814	n/a	n/a	0	0	0
2513.81	n/a	WORD	1256905	wordpools/wasnorm_wordpool_576.txt	LTP302	ltpFR2	3	12	BEAVER	109	n/a	n/a	0	0	0
2516.246	n/a	WORD	1258123	wordpools/wasnorm_wordpool_576.txt	LTP302	ltpFR2	3	12	CHIPMUNK	304	n/a	n/a	0	0	0
2518.906	n/a	WORD	1259453	wordpools/wasnorm_wordpool_576.txt	LTP302	ltpFR2	3	12	DAUGHTER	442	n/a	n/a	0	0	0
2521.384	n/a	WORD	1260692	wordpools/wasnorm_wordpool_576.txt	LTP302	ltpFR2	3	12	KEEPER	769	n/a	n/a	0	0	0
2523.868	n/a	WORD	1261934	wordpools/wasnorm_wordpool_576.txt	LTP302	ltpFR2	3	12	CAPTIVE	240	n/a	n/a	0	0	0
2526.58	n/a	WORD	1263290	wordpools/wasnorm_wordpool_576.txt	LTP302	ltpFR2	3	12	BANK	83	n/a	n/a	0	0	0
2529.4	n/a	WORD	1264700	wordpools/wasnorm_wordpool_576.txt	LTP302	ltpFR2	3	12	COUNTY	389	n/a	n/a	0	0	0
2532.086	n/a	WORD	1266043	wordpools/wasnorm_wordpool_576.txt	LTP302	ltpFR2	3	12	MUSTARD	935	n/a	n/a	0	0	0
2534.838	n/a	WORD	1267419	wordpools/wasnorm_wordpool_576.txt	LTP302	ltpFR2	3	12	CLOCK	325	n/a	n/a	0	0	0
2537.64	n/a	WORD	1268820	wordpools/wasnorm_wordpool_576.txt	LTP302	ltpFR2	3	12	COOK	372	n/a	n/a	0	0	0
2540.426	n/a	WORD	1270213	wordpools/wasnorm_wordpool_576.txt	LTP302	ltpFR2	3	12	SEAGULL	1261	n/a	n/a	0	0	0
2542.912	n/a	WORD	1271456	wordpools/wasnorm_wordpool_576.txt	LTP302	ltpFR2	3	12	GLASS	639	n/a	n/a	0	0	0
2545.398	n/a	WORD	1272699	wordpools/wasnorm_wordpool_576.txt	LTP302	ltpFR2	3	12	PLASTER	1085	n/a	n/a	0	0	0
2547.832	n/a	WORD	1273916	wordpools/wasnorm_wordpool_576.txt	LTP302	ltpFR2	3	12	LUMBER	848	n/a	n/a	0	0	0
2550.59	n/a	WORD	1275295	wordpools/wasnorm_wordpool_576.txt	LTP302	ltpFR2	3	12	NAPKIN	937	n/a	n/a	0	0	0
2553.176	n/a	WORD	1276588	wordpools/wasnorm_wordpool_576.txt	LTP302	ltpFR2	3	12	QUAIL	1147	n/a	n/a	0	0	0
2555.972	n/a	WORD	1277986	wordpools/wasnorm_wordpool_576.txt	LTP302	ltpFR2	3	12	OUTLAW	989	n/a	n/a	0	0	0
2558.592	n/a	WORD	1279296	wordpools/wasnorm_wordpool_576.txt	LTP302	ltpFR2	3	12	LADY	794	n/a	n/a	0	0	0
2561.11	n/a	WORD	1280555	wordpools/wasnorm_wordpool_576.txt	LTP302	ltpFR2	3	12	WOMAN	1620	n/a	n/a	0	0	0
2563.85	n/a	WORD	1281925	wordpools/wasnorm_wordpool_576.txt	LTP302	ltpFR2	3	12	BRANDY	169	n/a	n/a	0	0	0
2566.298	n/a	WORD	1283149	wordpools/wasnorm_wordpool_576.txt	LTP302	ltpFR2	3	12	APRON	35	n/a	n/a	0	0	0
2569.032	n/a	WORD	1284516	wordpools/wasnorm_wordpool_576.txt	LTP302	ltpFR2	3	12	CASHEW	253	n/a	n/a	0	0	0
2571.772	n/a	WORD	1285886	wordpools/wasnorm_wordpool_576.txt	LTP302	ltpFR2	3	12	KETCHUP	771	n/a	n/a	0	0	0
2574.358	n/a	WORD	1287179	wordpools/wasnorm_wordpool_576.txt	LTP302	ltpFR2	3	12	GALLON	618	n/a	n/a	0	0	0
2575.972	n/a	START	1287986	n/a	LTP302	ltpFR2	3	n/a	n/a	n/a	17	n/a	n/a	n/a	n/a
2577.048	n/a	DISTRACTOR	1288524	n/a	LTP302	ltpFR2	3	12	n/a	n/a	n/a	n/a	0	0	0
2577.056	n/a	PROB	1288528	n/a	LTP302	ltpFR2	3	n/a	n/a	n/a	17	10	7	1	2
2578.774	n/a	PROB	1289387	n/a	LTP302	ltpFR2	3	n/a	n/a	n/a	17	16	7	4	5
2581.028	n/a	PROB	1290514	n/a	LTP302	ltpFR2	3	n/a	n/a	n/a	17	17	9	5	3
2583.23	n/a	PROB	1291615	n/a	LTP302	ltpFR2	3	n/a	n/a	n/a	17	7	3	1	3
2585.562	n/a	PROB	1292781	n/a	LTP302	ltpFR2	3	n/a	n/a	n/a	17	12	5	6	1
2587.198	n/a	PROB	1293599	n/a	LTP302	ltpFR2	3	n/a	n/a	n/a	17	8	3	4	1
2588.87	n/a	PROB	1294435	n/a	LTP302	ltpFR2	3	n/a	n/a	n/a	17	11	2	3	6
2590.984	n/a	PROB	1295492	n/a	LTP302	ltpFR2	3	n/a	n/a	n/a	17	17	6	5	6
2594.338	n/a	PROB	1297169	n/a	LTP302	ltpFR2	3	n/a	n/a	n/a	17	10	1	4	5
2596.274	n/a	PROB	1298137	n/a	LTP302	ltpFR2	3	n/a	n/a	n/a	17	19	5	6	8
2599.972	n/a	STOP	1299986	n/a	LTP302	ltpFR2	3	n/a	n/a	n/a	17	n/a	n/a	n/a	n/a
2601.846	n/a	REC_START	1300923	n/a	LTP302	ltpFR2	3	12	n/a	n/a	n/a	n/a	0	0	0
2604.596	n/a	REC_WORD	1302298	wordpools/wasnorm_wordpool_576.txt	LTP302	ltpFR2	3	12	LADY	794	n/a	n/a	0	0	0
2606.73	n/a	REC_WORD	1303365	wordpools/wasnorm_wordpool_576.txt	LTP302	ltpFR2	3	12	WOMAN	1620	n/a	n/a	0	0	0
2609.034	n/a	REC_WORD	1304517	wordpools/wasnorm_wordpool_576.txt	LTP302	ltpFR2	3	12	DAUGHTER	442	n/a	n/a	0	0	0
2612.356	n/a	REC_WORD	1306178	wordpools/wasnorm_wordpool_576.txt	LTP302	ltpFR2	3	12	BEAVER	109	n/a	n/a	0	0	0
2614.282	n/a	REC_WORD	1307141	wordpools/wasnorm_wordpool_576.txt	LTP302	ltpFR2	3	12	CHIPMUNK	304	n/a	n/a	0	0	0
2616.596	n/a	REC_WORD	1308298	wordpools/wasnorm_wordpool_576.txt	LTP302	ltpFR2	3	12	BRANDY	169	n/a	n/a	0	0	0
2623.778	n/a	REC_WORD	1311889	wordpools/wasnorm_wordpool_576.txt	LTP302	ltpFR2	3	12	APRON	35	n/a	n/a	0	0	0
2634.328	n/a	REC_WORD	1317164	wordpools/wasnorm_wordpool_576.txt	LTP302	ltpFR2	3	12	COOK	372	n/a	n/a	0	0	0
2636.016	n/a	REC_WORD	1318008	wordpools/wasnorm_wordpool_576.txt	LTP302	ltpFR2	3	12	CLOCK	325	n/a	n/a	0	0	0
2692.298	n/a	WORD	1346149	wordpools/wasnorm_wordpool_576.txt	LTP302	ltpFR2	3	13	BANKER	84	n/a	n/a	0	0	0
2694.786	n/a	WORD	1347393	wordpools/wasnorm_wordpool_576.txt	LTP302	ltpFR2	3	13	WRIST	1626	n/a	n/a	0	0	0
2697.492	n/a	WORD	1348746	wordpools/wasnorm_wordpool_576.txt	LTP302	ltpFR2	3	13	LIZARD	834	n/a	n/a	0	0	0
2700.262	n/a	WORD	1350131	wordpools/wasnorm_wordpool_576.txt	LTP302	ltpFR2	3	13	CLOTHES	327	n/a	n/a	0	0	0
2702.996	n/a	WORD	1351498	wordpools/wasnorm_wordpool_576.txt	LTP302	ltpFR2	3	13	OZONE	996	n/a	n/a	0	0	0
2705.628	n/a	WORD	1352814	wordpools/wasnorm_wordpool_576.txt	LTP302	ltpFR2	3	13	SANDWICH	1232	n/a	n/a	0	0	0
2708.284	n/a	WORD	1354142	wordpools/wasnorm_wordpool_576.txt	LTP302	ltpFR2	3	13	BROTHER	179	n/a	n/a	0	0	0
2710.946	n/a	WORD	1355473	wordpools/wasnorm_wordpool_576.txt	LTP302	ltpFR2	3	13	PERCH	1048	n/a	n/a	0	0	0
2713.5	n/a	WORD	1356750	wordpools/wasnorm_wordpool_576.txt	LTP302	ltpFR2	3	13	PISTON	1076	n/a	n/a	0	0	0
2715.95	n/a	WORD	1357975	wordpools/wasnorm_wordpool_576.txt	LTP302	ltpFR2	3	13	BEAKER	104	n/a	n/a	0	0	0
2718.544	n/a	WORD	1359272	wordpools/wasnorm_wordpool_576.txt	LTP302	ltpFR2	3	13	SPONGE	1355	n/a	n/a	0	0	0
2721.106	n/a	WORD	1360553	wordpools/wasnorm_wordpool_576.txt	LTP302	ltpFR2	3	13	CREATURE	403	n/a	n/a	0	0	0
2723.776	n/a	WORD	1361888	wordpools/wasnorm_wordpool_576.txt	LTP302	ltpFR2	3	13	DRESS	495	n/a	n/a	0	0	0
2726.278	n/a	WORD	1363139	wordpools/wasnorm_wordpool_576.txt	LTP302	ltpFR2	3	13	SISTER	1312	n/a	n/a	0	0	0
2728.812	n/a	WORD	1364406	wordpools/wasnorm_wordpool_576.txt	LTP302	ltpFR2	3	13	STONE	1385	n/a	n/a	0	0	0
2731.314	n/a	WORD	1365657	wordpools/wasnorm_wordpool_576.txt	LTP302	ltpFR2	3	13	RAFT	1159	n/a	n/a	0	0	0
2733.806	n/a	WORD	1366903	wordpools/wasnorm_wordpool_576.txt	LTP302	ltpFR2	3	13	BLADE	134	n/a	n/a	0	0	0
2736.484	n/a	WORD	1368242	wordpools/wasnorm_wordpool_576.txt	LTP302	ltpFR2	3	13	SIBLING	1301	n/a	n/a	0	0	0
2739.12	n/a	WORD	1369560	wordpools/wasnorm_wordpool_576.txt	LTP302	ltpFR2	3	13	COUSIN	392	n/a	n/a	0	0	0
2741.564	n/a	WORD	1370782	wordpools/wasnorm_wordpool_576.txt	LTP302	ltpFR2	3	13	GUARD	667	n/a	n/a	0	0	0
2744.048	n/a	WORD	1372024	wordpools/wasnorm_wordpool_576.txt	LTP302	ltpFR2	3	13	PATROL	1027	n/a	n/a	0	0	0
2746.526	n/a	WORD	1373263	wordpools/wasnorm_wordpool_576.txt	LTP302	ltpFR2	3	13	LAKE	796	n/a	n/a	0	0	0
2749.12	n/a	WORD	1374560	wordpools/wasnorm_wordpool_576.txt	LTP302	ltpFR2	3	13	LAGOON	795	n/a	n/a	0	0	0
2751.538	n/a	WORD	1375769	wordpools/wasnorm_wordpool_576.txt	LTP302	ltpFR2	3	13	FARMER	553	n/a	n/a	0	0	0
2753.148	n/a	START	1376574	n/a	LTP302	ltpFR2	3	n/a	n/a	n/a	18	n/a	n/a	n/a	n/a
2753.98	n/a	DISTRACTOR	1376990	n/a	LTP302	ltpFR2	3	13	n/a	n/a	n/a	n/a	0	0	0
2753.99	n/a	PROB	1376995	n/a	LTP302	ltpFR2	3	n/a	n/a	n/a	18	21	5	8	8
2755.998	n/a	PROB	1377999	n/a	LTP302	ltpFR2	3	n/a	n/a	n/a	18	9	3	2	4
2758.95	n/a	PROB	1379475	n/a	LTP302	ltpFR2	3	n/a	n/a	n/a	18	7	1	5	1
2760.404	n/a	PROB	1380202	n/a	LTP302	ltpFR2	3	n/a	n/a	n/a	18	22	9	9	4
2762.604	n/a	PROB	1381302	n/a	LTP302	ltpFR2	3	n/a	n/a	n/a	18	10	1	6	3
2764.656	n/a	PROB	1382328	n/a	LTP302	ltpFR2	3	n/a	n/a	n/a	18	19	6	4	9
2766.392	n/a	PROB	1383196	n/a	LTP302	ltpFR2	3	n/a	n/a	n/a	18	13	8	2	3
2768.442	n/a	PROB	1384221	n/a	LTP302	ltpFR2	3	n/a	n/a	n/a	18	15	6	8	1
2770.676	n/a	PROB	1385338	n/a	LTP302	ltpFR2	3	n/a	n/a	n/a	18	12	6	3	3
2777.146	n/a	STOP	1388573	n/a	LTP302	ltpFR2	3	n/a	n/a	n/a	18	n/a	n/a	n/a	n/a
2778.982	n/a	REC_START	1389491	n/a	LTP302	ltpFR2	3	13	n/a	n/a	n/a	n/a	0	0	0
2781.88	n/a	REC_WORD	1390940	wordpools/wasnorm_wordpool_576.txt	LTP302	ltpFR2	3	13	LAKE	796	n/a	n/a	0	0	0
2784.29	n/a	REC_WORD	1392145	wordpools/wasnorm_wordpool_576.txt	LTP302	ltpFR2	3	13	LAGOON	795	n/a	n/a	0	0	0
2828.294	n/a	REC_WORD	1414147	wordpools/wasnorm_wordpool_576.txt	LTP302	ltpFR2	3	13	GUARD	667	n/a	n/a	0	0	0
2833.538	n/a	REC_WORD	1416769	wordpools/wasnorm_wordpool_576.txt	LTP302	ltpFR2	3	13	WRIST	1626	n/a	n/a	0	0	0
2869.454	n/a	WORD	1434727	wordpools/wasnorm_wordpool_576.txt	LTP302	ltpFR2	3	14	PORTRAIT	1111	n/a	n/a	0	0	0
2871.924	n/a	WORD	1435962	wordpools/wasnorm_wordpool_576.txt	LTP302	ltpFR2	3	14	BISON	131	n/a	n/a	0	0	0
2874.626	n/a	WORD	1437313	wordpools/wasnorm_wordpool_576.txt	LTP302	ltpFR2	3	14	BEAST	108	n/a	n/a	0	0	0
2877.178	n/a	WORD	1438589	wordpools/wasnorm_wordpool_576.txt	LTP302	ltpFR2	3	14	CHAUFFEUR	283	n/a	n/a	0	0	0
2879.896	n/a	WORD	1439948	wordpools/wasnorm_wordpool_576.txt	LTP302	ltpFR2	3	14	BELLY	119	n/a	n/a	0	0	0
2882.464	n/a	WORD	1441232	wordpools/wasnorm_wordpool_576.txt	LTP302	ltpFR2	3	14	NOVEL	960	n/a	n/a	0	0	0
2884.95	n/a	WORD	1442475	wordpools/wasnorm_wordpool_576.txt	LTP302	ltpFR2	3	14	PASSAGE	1019	n/a	n/a	0	0	0
2887.42	n/a	WORD	1443710	wordpools/wasnorm_wordpool_576.txt	LTP302	ltpFR2	3	14	PIANO	1057	n/a	n/a	0	0	0
2889.988	n/a	WORD	1444994	wordpools/wasnorm_wordpool_576.txt	LTP302	ltpFR2	3	14	CASKET	255	n/a	n/a	0	0	0
2892.674	n/a	WORD	1446337	wordpools/wasnorm_wordpool_576.txt	LTP302	ltpFR2	3	14	RATTLE	1170	n/a	n/a	0	0	0
2895.442	n/a	WORD	1447721	wordpools/wasnorm_wordpool_576.txt	LTP302	ltpFR2	3	14	SKETCH	1315	n/a	n/a	0	0	0
2898.092	n/a	WORD	1449046	wordpools/wasnorm_wordpool_576.txt	LTP302	ltpFR2	3	14	SLIME	1327	n/a	n/a	0	0	0
2900.63	n/a	WORD	1450315	wordpools/wasnorm_wordpool_576.txt	LTP302	ltpFR2	3	14	SCARF	1246	n/a	n/a	0	0	0
2903.416	n/a	WORD	1451708	wordpools/wasnorm_wordpool_576.txt	LTP302	ltpFR2	3	14	COURSE	390	n/a	n/a	0	0	0
2905.85	n/a	WORD	1452925	wordpools/wasnorm_wordpool_576.txt	LTP302	ltpFR2	3	14	PENGUIN	1044	n/a	n/a	0	0	0
2908.268	n/a	WORD	1454134	wordpools/wasnorm_wordpool_576.txt	LTP302	ltpFR2	3	14	VALVE	1546	n/a	n/a	0	0	0
2910.888	n/a	WORD	1455444	wordpools/wasnorm_wordpool_576.txt	LTP302	ltpFR2	3	14	AWARD	63	n/a	n/a	0	0	0
2913.59	n/a	WORD	1456795	wordpools/wasnorm_wordpool_576.txt	LTP302	ltpFR2	3	14	BABY	64	n/a	n/a	0	0	0
2916.174	n/a	WORD	1458087	wordpools/wasnorm_wordpool_576.txt	LTP302	ltpFR2	3	14	CLAMP	316	n/a	n/a	0	0	0
2918.594	n/a	WORD	1459297	wordpools/wasnorm_wordpool_576.txt	LTP302	ltpFR2	3	14	WIDOW	1608	n/a	n/a	0	0	0
2921.25	n/a	WORD	1460625	wordpools/wasnorm_wordpool_576.txt	LTP302	ltpFR2	3	14	HUSBAND	728	n/a	n/a	0	0	0
2923.68	n/a	WORD	1461840	wordpools/wasnorm_wordpool_576.txt	LTP302	ltpFR2	3	14	DRAWING	494	n/a	n/a	0	0	0
2926.216	n/a	WORD	1463108	wordpools/wasnorm_wordpool_576.txt	LTP302	ltpFR2	3	14	MUMMY	932	n/a	n/a	0	0	0
2928.806	n/a	WORD	1464403	wordpools/wasnorm_wordpool_576.txt	LTP302	ltpFR2	3	14	HOOD	714	n/a	n/a	0	0	0
2930.42	n/a	START	1465210	n/a	LTP302	ltpFR2	3	n/a	n/a	n/a	19	n/a	n/a	n/a	n/a
2931.554	n/a	DISTRACTOR	1465777	n/a	LTP302	ltpFR2	3	14	n/a	n/a	n/a	n/a	0	0	0
2931.572	n/a	PROB	1465786	n/a	LTP302	ltpFR2	3	n/a	n/a	n/a	19	20	9	5	6
2934.036	n/a	PROB	1467018	n/a	LTP302	ltpFR2	3	n/a	n/a	n/a	19	15	9	3	3
2937.374	n/a	PROB	1468687	n/a	LTP302	ltpFR2	3	n/a	n/a	n/a	19	12	8	3	1
2939.69	n/a	PROB	1469845	n/a	LTP302	ltpFR2	3	n/a	n/a	n/a	19	18	2	8	8
2941.626	n/a	PROB	1470813	n/a	LTP302	ltpFR2	3	n/a	n/a	n/a	19	18	6	1	9
2943.944	n/a	PROB	1471972	n/a	LTP302	ltpFR2	3	n/a	n/a	n/a	19	14	5	4	5
2946.78	n/a	PROB	1473390	n/a	LTP302	ltpFR2	3	n/a	n/a	n/a	19	13	3	6	4
2948.382	n/a	PROB	1474191	n/a	LTP302	ltpFR2	3	n/a	n/a	n/a	19	13	5	4	4
2951.302	n/a	PROB	1475651	n/a	LTP302	ltpFR2	3	n/a	n/a	n/a	19	14	3	4	7
2953.276	n/a	STOP	1476638	n/a	LTP302	ltpFR2	3	n/a	n/a	n/a	19	n/a	n/a	n/a	n/a
2956.254	n/a	REC_START	1478127	n/a	LTP302	ltpFR2	3	14	n/a	n/a	n/a	n/a	0	0	0
2958.456	n/a	REC_WORD	1479228	wordpools/wasnorm_wordpool_576.txt	LTP302	ltpFR2	3	14	HUSBAND	728	n/a	n/a	0	0	0
2961.406	n/a	REC_WORD	1480703	wordpools/wasnorm_wordpool_576.txt	LTP302	ltpFR2	3	14	AWARD	63	n/a	n/a	0	0	0
2976.068	n/a	REC_WORD	1488034	wordpools/wasnorm_wordpool_576.txt	LTP302	ltpFR2	3	14	BABY	64	n/a	n/a	0	0	0
2978.29	n/a	REC_WORD	1489145	wordpools/wasnorm_wordpool_576.txt	LTP302	ltpFR2	3	14	BELLY	119	n/a	n/a	0	0	0
3003.846	n/a	REC_WORD	1501923	wordpools/wasnorm_wordpool_576.txt	LTP302	ltpFR2	3	14	CHAUFFEUR	283	n/a	n/a	0	0	0
3046.678	n/a	DISTRACTOR	1523339	n/a	LTP302	ltpFR2	3	15	n/a	n/a	n/a	n/a	0	0	0
3046.678	n/a	START	1523339	n/a	LTP302	ltpFR2	3	n/a	n/a	n/a	20	n/a	n/a	n/a	n/a
3046.692	n/a	PROB	1523346	n/a	LTP302	ltpFR2	3	n/a	n/a	n/a	20	18	6	9	3
3049.812	n/a	PROB	1524906	n/a	LTP302	ltpFR2	3	n/a	n/a	n/a	20	18	2	9	7
3053.55	n/a	PROB	1526775	n/a	LTP302	ltpFR2	3	n/a	n/a	n/a	20	18	8	1	9
3055.712	n/a	PROB	1527856	n/a	LTP302	ltpFR2	3	n/a	n/a	n/a	20	17	6	3	8
3058.046	n/a	PROB	1529023	n/a	LTP302	ltpFR2	3	n/a	n/a	n/a	20	14	4	1	9
3060.504	n/a	PROB	1530252	n/a	LTP302	ltpFR2	3	n/a	n/a	n/a	20	15	9	4	2
3063.786	n/a	PROB	1531893	n/a	LTP302	ltpFR2	3	n/a	n/a	n/a	20	18	8	7	3
3065.888	n/a	PROB	1532944	n/a	LTP302	ltpFR2	3	n/a	n/a	n/a	20	15	8	4	3
3068.106	n/a	PROB	1534053	n/a	LTP302	ltpFR2	3	n/a	n/a	n/a	20	21	5	8	8
3070.132	n/a	STOP	1535066	n/a	LTP302	ltpFR2	3	n/a	n/a	n/a	20	n/a	n/a	n/a	n/a
3071.728	n/a	WORD	1535864	wordpools/wasnorm_wordpool_576.txt	LTP302	ltpFR2	3	15	HONEY	713	n/a	n/a	0	0	0
3074.246	n/a	WORD	1537123	wordpools/wasnorm_wordpool_576.txt	LTP302	ltpFR2	3	15	LION	827	n/a	n/a	0	0	0
3077.014	n/a	WORD	1538507	wordpools/wasnorm_wordpool_576.txt	LTP302	ltpFR2	3	15	GRAVEL	659	n/a	n/a	0	0	0
3079.818	n/a	WORD	1539909	wordpools/wasnorm_wordpool_576.txt	LTP302	ltpFR2	3	15	THREAD	1460	n/a	n/a	0	0	0
3082.386	n/a	WORD	1541193	wordpools/wasnorm_wordpool_576.txt	LTP302	ltpFR2	3	15	ROOSTER	1209	n/a	n/a	0	0	0
3084.972	n/a	WORD	1542486	wordpools/wasnorm_wordpool_576.txt	LTP302	ltpFR2	3	15	PERMIT	1051	n/a	n/a	0	0	0
3087.506	n/a	WORD	1543753	wordpools/wasnorm_wordpool_576.txt	LTP302	ltpFR2	3	15	GRILL	661	n/a	n/a	0	0	0
3090.292	n/a	WORD	1545146	wordpools/wasnorm_wordpool_576.txt	LTP302	ltpFR2	3	15	LUGGAGE	847	n/a	n/a	0	0	0
3093.028	n/a	WORD	1546514	wordpools/wasnorm_wordpool_576.txt	LTP302	ltpFR2	3	15	GRAVE	658	n/a	n/a	0	0	0
3095.814	n/a	WORD	1547907	wordpools/wasnorm_wordpool_576.txt	LTP302	ltpFR2	3	15	CRAB	397	n/a	n/a	0	0	0
3098.4	n/a	WORD	1549200	wordpools/wasnorm_wordpool_576.txt	LTP302	ltpFR2	3	15	DINER	467	n/a	n/a	0	0	0
3101.118	n/a	WORD	1550559	wordpools/wasnorm_wordpool_576.txt	LTP302	ltpFR2	3	15	DENTIST	447	n/a	n/a	0	0	0
3103.654	n/a	WORD	1551827	wordpools/wasnorm_wordpool_576.txt	LTP302	ltpFR2	3	15	TOURIST	1488	n/a	n/a	0	0	0
3106.19	n/a	WORD	1553095	wordpools/wasnorm_wordpool_576.txt	LTP302	ltpFR2	3	15	TWIG	1527	n/a	n/a	0	0	0
3108.642	n/a	WORD	1554321	wordpools/wasnorm_wordpool_576.txt	LTP302	ltpFR2	3	15	CABIN	211	n/a	n/a	0	0	0
3111.442	n/a	WORD	1555721	wordpools/wasnorm_wordpool_576.txt	LTP302	ltpFR2	3	15	DRESSER	496	n/a	n/a	0	0	0
3113.994	n/a	WORD	1556997	wordpools/wasnorm_wordpool_576.txt	LTP302	ltpFR2	3	15	FOOT	590	n/a	n/a	0	0	0
3116.53	n/a	WORD	1558265	wordpools/wasnorm_wordpool_576.txt	LTP302	ltpFR2	3	15	SURVEY	1414	n/a	n/a	0	0	0
3119.15	n/a	WORD	1559575	wordpools/wasnorm_wordpool_576.txt	LTP302	ltpFR2	3	15	LEOPARD	812	n/a	n/a	0	0	0
3121.852	n/a	WORD	1560926	wordpools/wasnorm_wordpool_576.txt	LTP302	ltpFR2	3	15	STAKE	1368	n/a	n/a	0	0	0
3124.62	n/a	WORD	1562310	wordpools/wasnorm_wordpool_576.txt	LTP302	ltpFR2	3	15	TROMBONE	1508	n/a	n/a	0	0	0
3127.156	n/a	WORD	1563578	wordpools/wasnorm_wordpool_576.txt	LTP302	ltpFR2	3	15	DUSTPAN	509	n/a	n/a	0	0	0
3129.676	n/a	WORD	1564838	wordpools/wasnorm_wordpool_576.txt	LTP302	ltpFR2	3	15	HOOK	715	n/a	n/a	0	0	0
3132.244	n/a	WORD	1566122	wordpools/wasnorm_wordpool_576.txt	LTP302	ltpFR2	3	15	COD	340	n/a	n/a	0	0	0
3133.862	n/a	START	1566931	n/a	LTP302	ltpFR2	3	n/a	n/a	n/a	21	n/a	n/a	n/a	n/a
3134.91	n/a	DISTRACTOR	1567455	n/a	LTP302	ltpFR2	3	15	n/a	n/a	n/a	n/a	0	0	0
3134.914	n/a	PROB	1567457	n/a	LTP302	ltpFR2	3	n/a	n/a	n/a	21	22	7	8	7
3138.08	n/a	PROB	1569040	n/a	LTP302	ltpFR2	3	n/a	n/a	n/a	21	12	5	3	4
3141.434	n/a	PROB	1570717	n/a	LTP302	ltpFR2	3	n/a	n/a	n/a	21	23	7	7	9
3144.152	n/a	PROB	1572076	n/a	LTP302	ltpFR2	3	n/a	n/a	n/a	21	10	7	1	2
3145.968	n/a	PROB	1572984	n/a	LTP302	ltpFR2	3	n/a	n/a	n/a	21	21	8	6	7
3148.556	n/a	PROB	1574278	n/a	LTP302	ltpFR2	3	n/a	n/a	n/a	21	9	5	1	3
3150.956	n/a	PROB	1575478	n/a	LTP302	ltpFR2	3	n/a	n/a	n/a	21	8	5	1	2
3152.208	n/a	PROB	1576104	n/a	LTP302	ltpFR2	3	n/a	n/a	n/a	21	7	1	1	5
3153.99	n/a	PROB	1576995	n/a	LTP302	ltpFR2	3	n/a	n/a	n/a	21	14	2	7	5
3157.014	n/a	STOP	1578507	n/a	LTP302	ltpFR2	3	n/a	n/a	n/a	21	n/a	n/a	n/a	n/a
3159.814	n/a	REC_START	1579907	n/a	LTP302	ltpFR2	3	15	n/a	n/a	n/a	n/a	0	0	0
3162.696	n/a	REC_WORD	1581348	wordpools/wasnorm_wordpool_576.txt	LTP302	ltpFR2	3	15	TROMBONE	1508	n/a	n/a	0	0	0
3166.056	n/a	REC_WORD	1583028	wordpools/wasnorm_wordpool_576.txt	LTP302	ltpFR2	3	15	FOOT	590	n/a	n/a	0	0	0
3171.0	n/a	REC_WORD	1585500	wordpools/wasnorm_wordpool_576.txt	LTP302	ltpFR2	3	15	DUSTPAN	509	n/a	n/a	0	0	0
3172.914	n/a	REC_WORD	1586457	wordpools/wasnorm_wordpool_576.txt	LTP302	ltpFR2	3	15	GRILL	661	n/a	n/a	0	0	0
3174.89	n/a	REC_WORD	1587445	wordpools/wasnorm_wordpool_576.txt	LTP302	ltpFR2	3	15	PERMIT	1051	n/a	n/a	0	0	0
3188.056	n/a	REC_WORD	1594028	wordpools/wasnorm_wordpool_576.txt	LTP302	ltpFR2	3	15	LION	827	n/a	n/a	0	0	0
3190.382	n/a	REC_WORD	1595191	wordpools/wasnorm_wordpool_576.txt	LTP302	ltpFR2	3	15	LEOPARD	812	n/a	n/a	0	0	0
3250.236	n/a	DISTRACTOR	1625118	n/a	LTP302	ltpFR2	3	16	n/a	n/a	n/a	n/a	0	0	0
3250.236	n/a	START	1625118	n/a	LTP302	ltpFR2	3	n/a	n/a	n/a	22	n/a	n/a	n/a	n/a
3250.252	n/a	PROB	1625126	n/a	LTP302	ltpFR2	3	n/a	n/a	n/a	22	17	8	7	2
3252.67	n/a	PROB	1626335	n/a	LTP302	ltpFR2	3	n/a	n/a	n/a	22	12	1	4	7
3254.738	n/a	PROB	1627369	n/a	LTP302	ltpFR2	3	n/a	n/a	n/a	22	17	8	4	5
3257.574	n/a	PROB	1628787	n/a	LTP302	ltpFR2	3	n/a	n/a	n/a	22	20	3	8	9
3261.51	n/a	PROB	1630755	n/a	LTP302	ltpFR2	3	n/a	n/a	n/a	22	20	8	7	5
3263.394	n/a	PROB	1631697	n/a	LTP302	ltpFR2	3	n/a	n/a	n/a	22	12	6	1	5
3266.28	n/a	PROB	1633140	n/a	LTP302	ltpFR2	3	n/a	n/a	n/a	22	20	7	9	4
3268.2	n/a	PROB	1634100	n/a	LTP302	ltpFR2	3	n/a	n/a	n/a	22	8	5	1	2
3270.016	n/a	PROB	1635008	n/a	LTP302	ltpFR2	3	n/a	n/a	n/a	22	15	6	5	4
3274.236	n/a	STOP	1637118	n/a	LTP302	ltpFR2	3	n/a	n/a	n/a	22	n/a	n/a	n/a	n/a
3275.4	n/a	WORD	1637700	wordpools/wasnorm_wordpool_576.txt	LTP302	ltpFR2	3	16	POISON	1096	n/a	n/a	0	0	0
3278.034	n/a	WORD	1639017	wordpools/wasnorm_wordpool_576.txt	LTP302	ltpFR2	3	16	KNIFE	785	n/a	n/a	0	0	0
3280.486	n/a	WORD	1640243	wordpools/wasnorm_wordpool_576.txt	LTP302	ltpFR2	3	16	FEMALE	559	n/a	n/a	0	0	0
3283.14	n/a	WORD	1641570	wordpools/wasnorm_wordpool_576.txt	LTP302	ltpFR2	3	16	HELMET	702	n/a	n/a	0	0	0
3285.758	n/a	WORD	1642879	wordpools/wasnorm_wordpool_576.txt	LTP302	ltpFR2	3	16	PEDAL	1037	n/a	n/a	0	0	0
3288.294	n/a	WORD	1644147	wordpools/wasnorm_wordpool_576.txt	LTP302	ltpFR2	3	16	BOUQUET	157	n/a	n/a	0	0	0
3290.734	n/a	WORD	1645367	wordpools/wasnorm_wordpool_576.txt	LTP302	ltpFR2	3	16	SERVER	1272	n/a	n/a	0	0	0
3293.518	n/a	WORD	1646759	wordpools/wasnorm_wordpool_576.txt	LTP302	ltpFR2	3	16	HUMAN	726	n/a	n/a	0	0	0
3296.084	n/a	WORD	1648042	wordpools/wasnorm_wordpool_576.txt	LTP302	ltpFR2	3	16	PADDLE	1000	n/a	n/a	0	0	0
3298.602	n/a	WORD	1649301	wordpools/wasnorm_wordpool_576.txt	LTP302	ltpFR2	3	16	OYSTER	995	n/a	n/a	0	0	0
3301.342	n/a	WORD	1650671	wordpools/wasnorm_wordpool_576.txt	LTP302	ltpFR2	3	16	CORAL	378	n/a	n/a	0	0	0
3304.124	n/a	WORD	1652062	wordpools/wasnorm_wordpool_576.txt	LTP302	ltpFR2	3	16	MARKER	870	n/a	n/a	0	0	0
3306.644	n/a	WORD	1653322	wordpools/wasnorm_wordpool_576.txt	LTP302	ltpFR2	3	16	RAZOR	1171	n/a	n/a	0	0	0
3309.412	n/a	WORD	1654706	wordpools/wasnorm_wordpool_576.txt	LTP302	ltpFR2	3	16	ONION	977	n/a	n/a	0	0	0
3312.164	n/a	WORD	1656082	wordpools/wasnorm_wordpool_576.txt	LTP302	ltpFR2	3	16	BUNNY	198	n/a	n/a	0	0	0
3314.634	n/a	WORD	1657317	wordpools/wasnorm_wordpool_576.txt	LTP302	ltpFR2	3	16	CARROT	249	n/a	n/a	0	0	0
3317.252	n/a	WORD	1658626	wordpools/wasnorm_wordpool_576.txt	LTP302	ltpFR2	3	16	FRUIT	610	n/a	n/a	0	0	0
3319.986	n/a	WORD	1659993	wordpools/wasnorm_wordpool_576.txt	LTP302	ltpFR2	3	16	OINTMENT	974	n/a	n/a	0	0	0
3322.472	n/a	WORD	1661236	wordpools/wasnorm_wordpool_576.txt	LTP302	ltpFR2	3	16	BLOUSE	139	n/a	n/a	0	0	0
3325.26	n/a	WORD	1662630	wordpools/wasnorm_wordpool_576.txt	LTP302	ltpFR2	3	16	LASER	801	n/a	n/a	0	0	0
3328.06	n/a	WORD	1664030	wordpools/wasnorm_wordpool_576.txt	LTP302	ltpFR2	3	16	HEART	697	n/a	n/a	0	0	0
3330.812	n/a	WORD	1665406	wordpools/wasnorm_wordpool_576.txt	LTP302	ltpFR2	3	16	HANDBAG	684	n/a	n/a	0	0	0
3333.516	n/a	WORD	1666758	wordpools/wasnorm_wordpool_576.txt	LTP302	ltpFR2	3	16	REBEL	1172	n/a	n/a	0	0	0
3336.318	n/a	WORD	1668159	wordpools/wasnorm_wordpool_576.txt	LTP302	ltpFR2	3	16	SNACK	1331	n/a	n/a	0	0	0
3337.936	n/a	START	1668968	n/a	LTP302	ltpFR2	3	n/a	n/a	n/a	23	n/a	n/a	n/a	n/a
3338.75	n/a	DISTRACTOR	1669375	n/a	LTP302	ltpFR2	3	16	n/a	n/a	n/a	n/a	0	0	0
3338.77	n/a	PROB	1669385	n/a	LTP302	ltpFR2	3	n/a	n/a	n/a	23	9	7	1	1
3340.622	n/a	PROB	1670311	n/a	LTP302	ltpFR2	3	n/a	n/a	n/a	23	11	2	4	5
3343.19	n/a	PROB	1671595	n/a	LTP302	ltpFR2	3	n/a	n/a	n/a	23	20	7	4	9
3345.576	n/a	PROB	1672788	n/a	LTP302	ltpFR2	3	n/a	n/a	n/a	23	18	7	4	5
3348.446	n/a	PROB	1674223	n/a	LTP302	ltpFR2	3	n/a	n/a	n/a	23	11	1	8	2
3351.164	n/a	PROB	1675582	n/a	LTP302	ltpFR2	3	n/a	n/a	n/a	23	12	3	2	7
3352.648	n/a	PROB	1676324	n/a	LTP302	ltpFR2	3	n/a	n/a	n/a	23	6	1	2	3
3354.95	n/a	PROB	1677475	n/a	LTP302	ltpFR2	3	n/a	n/a	n/a	23	20	5	7	8
3357.084	n/a	PROB	1678542	n/a	LTP302	ltpFR2	3	n/a	n/a	n/a	23	13	2	6	5
3360.802	n/a	STOP	1680401	n/a	LTP302	ltpFR2	3	n/a	n/a	n/a	23	n/a	n/a	n/a	n/a
3363.806	n/a	REC_START	1681903	n/a	LTP302	ltpFR2	3	16	n/a	n/a	n/a	n/a	0	0	0
3366.698	n/a	REC_WORD	1683349	wordpools/wasnorm_wordpool_576.txt	LTP302	ltpFR2	3	16	BLOUSE	139	n/a	n/a	0	0	0
3368.792	n/a	REC_WORD	1684396	wordpools/wasnorm_wordpool_576.txt	LTP302	ltpFR2	3	16	HANDBAG	684	n/a	n/a	0	0	0
3369.792	n/a	REC_WORD_VV	1684896	wordpools/wasnorm_wordpool_576.txt	LTP302	ltpFR2	3	16	<>	-1	n/a	n/a	0	0	0
3371.944	n/a	REC_WORD	1685972	wordpools/wasnorm_wordpool_576.txt	LTP302	ltpFR2	3	16	CARROT	249	n/a	n/a	0	0	0
3374.574	n/a	REC_WORD	1687287	wordpools/wasnorm_wordpool_576.txt	LTP302	ltpFR2	3	16	ONION	977	n/a	n/a	0	0	0
3376.534	n/a	REC_WORD	1688267	wordpools/wasnorm_wordpool_576.txt	LTP302	ltpFR2	3	16	SNACK	1331	n/a	n/a	0	0	0
3377.534	n/a	REC_WORD_VV	1688767	wordpools/wasnorm_wordpool_576.txt	LTP302	ltpFR2	3	16	<>	-1	n/a	n/a	0	0	0
3378.82	n/a	REC_WORD	1689410	wordpools/wasnorm_wordpool_576.txt	LTP302	ltpFR2	3	16	BUNNY	198	n/a	n/a	0	0	0
3380.81	n/a	REC_WORD	1690405	wordpools/wasnorm_wordpool_576.txt	LTP302	ltpFR2	3	16	FRUIT	610	n/a	n/a	0	0	0
3440.334	n/a	REST_REWET	1720167	n/a	LTP302	ltpFR2	3	16	n/a	n/a	n/a	n/a	0	0	0
3645.578	n/a	WORD	1822789	wordpools/wasnorm_wordpool_576.txt	LTP302	ltpFR2	3	17	JELLO	754	n/a	n/a	0	0	0
3648.216	n/a	WORD	1824108	wordpools/wasnorm_wordpool_576.txt	LTP302	ltpFR2	3	17	AIRPORT	13	n/a	n/a	0	0	0
3650.996	n/a	WORD	1825498	wordpools/wasnorm_wordpool_576.txt	LTP302	ltpFR2	3	17	MISTER	901	n/a	n/a	0	0	0
3653.434	n/a	WORD	1826717	wordpools/wasnorm_wordpool_576.txt	LTP302	ltpFR2	3	17	MUFFIN	929	n/a	n/a	0	0	0
3656.134	n/a	WORD	1828067	wordpools/wasnorm_wordpool_576.txt	LTP302	ltpFR2	3	17	PLAZA	1088	n/a	n/a	0	0	0
3658.904	n/a	WORD	1829452	wordpools/wasnorm_wordpool_576.txt	LTP302	ltpFR2	3	17	COBRA	336	n/a	n/a	0	0	0
3661.522	n/a	WORD	1830761	wordpools/wasnorm_wordpool_576.txt	LTP302	ltpFR2	3	17	MISSILE	900	n/a	n/a	0	0	0
3664.108	n/a	WORD	1832054	wordpools/wasnorm_wordpool_576.txt	LTP302	ltpFR2	3	17	PUDDING	1139	n/a	n/a	0	0	0
3666.61	n/a	WORD	1833305	wordpools/wasnorm_wordpool_576.txt	LTP302	ltpFR2	3	17	SWAMP	1416	n/a	n/a	0	0	0
3669.262	n/a	WORD	1834631	wordpools/wasnorm_wordpool_576.txt	LTP302	ltpFR2	3	17	WRENCH	1625	n/a	n/a	0	0	0
3672.03	n/a	WORD	1836015	wordpools/wasnorm_wordpool_576.txt	LTP302	ltpFR2	3	17	ELBOW	520	n/a	n/a	0	0	0
3674.482	n/a	WORD	1837241	wordpools/wasnorm_wordpool_576.txt	LTP302	ltpFR2	3	17	ROBBER	1197	n/a	n/a	0	0	0
3677.134	n/a	WORD	1838567	wordpools/wasnorm_wordpool_576.txt	LTP302	ltpFR2	3	17	STOVE	1388	n/a	n/a	0	0	0
3679.952	n/a	WORD	1839976	wordpools/wasnorm_wordpool_576.txt	LTP302	ltpFR2	3	17	TRACTOR	1493	n/a	n/a	0	0	0
3682.678	n/a	WORD	1841339	wordpools/wasnorm_wordpool_576.txt	LTP302	ltpFR2	3	17	SEAL	1262	n/a	n/a	0	0	0
3685.442	n/a	WORD	1842721	wordpools/wasnorm_wordpool_576.txt	LTP302	ltpFR2	3	17	SHARK	1275	n/a	n/a	0	0	0
3688.134	n/a	WORD	1844067	wordpools/wasnorm_wordpool_576.txt	LTP302	ltpFR2	3	17	GHETTO	633	n/a	n/a	0	0	0
3690.952	n/a	WORD	1845476	wordpools/wasnorm_wordpool_576.txt	LTP302	ltpFR2	3	17	JEANS	752	n/a	n/a	0	0	0
3693.682	n/a	WORD	1846841	wordpools/wasnorm_wordpool_576.txt	LTP302	ltpFR2	3	17	BADGE	68	n/a	n/a	0	0	0
3696.2	n/a	WORD	1848100	wordpools/wasnorm_wordpool_576.txt	LTP302	ltpFR2	3	17	AGENT	10	n/a	n/a	0	0	0
3698.958	n/a	WORD	1849479	wordpools/wasnorm_wordpool_576.txt	LTP302	ltpFR2	3	17	FLOWER	584	n/a	n/a	0	0	0
3701.72	n/a	WORD	1850860	wordpools/wasnorm_wordpool_576.txt	LTP302	ltpFR2	3	17	ORCHID	982	n/a	n/a	0	0	0
3704.322	n/a	WORD	1852161	wordpools/wasnorm_wordpool_576.txt	LTP302	ltpFR2	3	17	VIRUS	1572	n/a	n/a	0	0	0
3706.964	n/a	WORD	1853482	wordpools/wasnorm_wordpool_576.txt	LTP302	ltpFR2	3	17	RIVER	1194	n/a	n/a	0	0	0
3708.576	n/a	START	1854288	n/a	LTP302	ltpFR2	3	n/a	n/a	n/a	24	n/a	n/a	n/a	n/a
3709.484	n/a	DISTRACTOR	1854742	n/a	LTP302	ltpFR2	3	17	n/a	n/a	n/a	n/a	0	0	0
3709.492	n/a	PROB	1854746	n/a	LTP302	ltpFR2	3	n/a	n/a	n/a	24	16	6	1	9
3712.944	n/a	PROB	1856472	n/a	LTP302	ltpFR2	3	n/a	n/a	n/a	24	20	9	5	6
3714.914	n/a	PROB	1857457	n/a	LTP302	ltpFR2	3	n/a	n/a	n/a	24	10	2	1	7
3716.398	n/a	PROB	1858199	n/a	LTP302	ltpFR2	3	n/a	n/a	n/a	24	18	9	6	3
3718.166	n/a	PROB	1859083	n/a	LTP302	ltpFR2	3	n/a	n/a	n/a	24	17	6	4	7
3721.786	n/a	PROB	1860893	n/a	LTP302	ltpFR2	3	n/a	n/a	n/a	24	11	3	7	1
3723.32	n/a	PROB	1861660	n/a	LTP302	ltpFR2	3	n/a	n/a	n/a	24	17	6	8	3
3731.456	n/a	STOP	1865728	n/a	LTP302	ltpFR2	3	n/a	n/a	n/a	24	n/a	n/a	n/a	n/a
3734.38	n/a	REC_START	1867190	n/a	LTP302	ltpFR2	3	17	n/a	n/a	n/a	n/a	0	0	0
3736.024	n/a	REC_WORD	1868012	wordpools/wasnorm_wordpool_576.txt	LTP302	ltpFR2	3	17	ELBOW	520	n/a	n/a	0	0	0
3737.89	n/a	REC_WORD	1868945	wordpools/wasnorm_wordpool_576.txt	LTP302	ltpFR2	3	17	VIRUS	1572	n/a	n/a	0	0	0
3739.826	n/a	REC_WORD	1869913	wordpools/wasnorm_wordpool_576.txt	LTP302	ltpFR2	3	17	RIVER	1194	n/a	n/a	0	0	0
3756.352	n/a	REC_WORD	1878176	wordpools/wasnorm_wordpool_576.txt	LTP302	ltpFR2	3	17	SHARK	1275	n/a	n/a	0	0	0
3758.49	n/a	REC_WORD	1879245	wordpools/wasnorm_wordpool_576.txt	LTP302	ltpFR2	3	17	SEAL	1262	n/a	n/a	0	0	0
3824.834	n/a	DISTRACTOR	1912417	n/a	LTP302	ltpFR2	3	18	n/a	n/a	n/a	n/a	0	0	0
3824.834	n/a	START	1912417	n/a	LTP302	ltpFR2	3	n/a	n/a	n/a	25	n/a	n/a	n/a	n/a
3824.85	n/a	PROB	1912425	n/a	LTP302	ltpFR2	3	n/a	n/a	n/a	25	17	5	6	6
3828.404	n/a	PROB	1914202	n/a	LTP302	ltpFR2	3	n/a	n/a	n/a	25	16	2	7	7
3831.036	n/a	PROB	1915518	n/a	LTP302	ltpFR2	3	n/a	n/a	n/a	25	15	8	3	4
3833.838	n/a	PROB	1916919	n/a	LTP302	ltpFR2	3	n/a	n/a	n/a	25	18	3	6	9
3835.674	n/a	PROB	1917837	n/a	LTP302	ltpFR2	3	n/a	n/a	n/a	25	17	9	6	2
3839.042	n/a	PROB	1919521	n/a	LTP302	ltpFR2	3	n/a	n/a	n/a	25	14	1	9	4
3840.71	n/a	PROB	1920355	n/a	LTP302	ltpFR2	3	n/a	n/a	n/a	25	7	1	4	2
3843.396	n/a	PROB	1921698	n/a	LTP302	ltpFR2	3	n/a	n/a	n/a	25	24	7	9	8
3847.49	n/a	STOP	1923745	n/a	LTP302	ltpFR2	3	n/a	n/a	n/a	25	n/a	n/a	n/a	n/a
3849.852	n/a	WORD	1924926	wordpools/wasnorm_wordpool_576.txt	LTP302	ltpFR2	3	18	COMET	353	n/a	n/a	0	0	0
3852.338	n/a	WORD	1926169	wordpools/wasnorm_wordpool_576.txt	LTP302	ltpFR2	3	18	STAR	1373	n/a	n/a	0	0	0
3854.94	n/a	WORD	1927470	wordpools/wasnorm_wordpool_576.txt	LTP302	ltpFR2	3	18	TREAT	1501	n/a	n/a	0	0	0
3857.676	n/a	WORD	1928838	wordpools/wasnorm_wordpool_576.txt	LTP302	ltpFR2	3	18	VIKING	1565	n/a	n/a	0	0	0
3860.164	n/a	WORD	1930082	wordpools/wasnorm_wordpool_576.txt	LTP302	ltpFR2	3	18	BANJO	82	n/a	n/a	0	0	0
3862.746	n/a	WORD	1931373	wordpools/wasnorm_wordpool_576.txt	LTP302	ltpFR2	3	18	RECORD	1176	n/a	n/a	0	0	0
3865.5	n/a	WORD	1932750	wordpools/wasnorm_wordpool_576.txt	LTP302	ltpFR2	3	18	WITNESS	1618	n/a	n/a	0	0	0
3868.17	n/a	WORD	1934085	wordpools/wasnorm_wordpool_576.txt	LTP302	ltpFR2	3	18	LAVA	804	n/a	n/a	0	0	0
3870.938	n/a	WORD	1935469	wordpools/wasnorm_wordpool_576.txt	LTP302	ltpFR2	3	18	SMOG	1330	n/a	n/a	0	0	0
3873.62	n/a	WORD	1936810	wordpools/wasnorm_wordpool_576.txt	LTP302	ltpFR2	3	18	VALLEY	1545	n/a	n/a	0	0	0
3876.09	n/a	WORD	1938045	wordpools/wasnorm_wordpool_576.txt	LTP302	ltpFR2	3	18	PALACE	1006	n/a	n/a	0	0	0
3878.558	n/a	WORD	1939279	wordpools/wasnorm_wordpool_576.txt	LTP302	ltpFR2	3	18	BANQUET	86	n/a	n/a	0	0	0
3881.078	n/a	WORD	1940539	wordpools/wasnorm_wordpool_576.txt	LTP302	ltpFR2	3	18	DRIVER	499	n/a	n/a	0	0	0
3883.628	n/a	WORD	1941814	wordpools/wasnorm_wordpool_576.txt	LTP302	ltpFR2	3	18	WASP	1593	n/a	n/a	0	0	0
3886.386	n/a	WORD	1943193	wordpools/wasnorm_wordpool_576.txt	LTP302	ltpFR2	3	18	ASIA	46	n/a	n/a	0	0	0
3888.986	n/a	WORD	1944493	wordpools/wasnorm_wordpool_576.txt	LTP302	ltpFR2	3	18	MOTEL	919	n/a	n/a	0	0	0
3891.602	n/a	WORD	1945801	wordpools/wasnorm_wordpool_576.txt	LTP302	ltpFR2	3	18	SLUG	1329	n/a	n/a	0	0	0
3894.104	n/a	WORD	1947052	wordpools/wasnorm_wordpool_576.txt	LTP302	ltpFR2	3	18	MILDEW	893	n/a	n/a	0	0	0
3896.69	n/a	WORD	1948345	wordpools/wasnorm_wordpool_576.txt	LTP302	ltpFR2	3	18	PIGMENT	1066	n/a	n/a	0	0	0
3899.242	n/a	WORD	1949621	wordpools/wasnorm_wordpool_576.txt	LTP302	ltpFR2	3	18	CREVICE	405	n/a	n/a	0	0	0
3901.76	n/a	WORD	1950880	wordpools/wasnorm_wordpool_576.txt	LTP302	ltpFR2	3	18	PORK	1108	n/a	n/a	0	0	0
3904.528	n/a	WORD	1952264	wordpools/wasnorm_wordpool_576.txt	LTP302	ltpFR2	3	18	GIRL	637	n/a	n/a	0	0	0
3907.232	n/a	WORD	1953616	wordpools/wasnorm_wordpool_576.txt	LTP302	ltpFR2	3	18	WAITRESS	1581	n/a	n/a	0	0	0
3909.882	n/a	WORD	1954941	wordpools/wasnorm_wordpool_576.txt	LTP302	ltpFR2	3	18	COUNTRY	388	n/a	n/a	0	0	0
3911.49	n/a	START	1955745	n/a	LTP302	ltpFR2	3	n/a	n/a	n/a	26	n/a	n/a	n/a	n/a
3912.388	n/a	DISTRACTOR	1956194	n/a	LTP302	ltpFR2	3	18	n/a	n/a	n/a	n/a	0	0	0
3912.402	n/a	PROB	1956201	n/a	LTP302	ltpFR2	3	n/a	n/a	n/a	26	11	5	1	5
3914.468	n/a	PROB	1957234	n/a	LTP302	ltpFR2	3	n/a	n/a	n/a	26	5	1	2	2
3916.388	n/a	PROB	1958194	n/a	LTP302	ltpFR2	3	n/a	n/a	n/a	26	15	8	6	1
3918.688	n/a	PROB	1959344	n/a	LTP302	ltpFR2	3	n/a	n/a	n/a	26	11	5	5	1
3920.074	n/a	PROB	1960037	n/a	LTP302	ltpFR2	3	n/a	n/a	n/a	26	16	8	2	6
3922.392	n/a	PROB	1961196	n/a	LTP302	ltpFR2	3	n/a	n/a	n/a	26	16	9	4	3
3928.328	n/a	PROB	1964164	n/a	LTP302	ltpFR2	3	n/a	n/a	n/a	26	8	3	1	4
3930.582	n/a	PROB	1965291	n/a	LTP302	ltpFR2	3	n/a	n/a	n/a	26	16	3	7	6
3932.718	n/a	PROB	1966359	n/a	LTP302	ltpFR2	3	n/a	n/a	n/a	26	21	8	5	8
3934.74	n/a	STOP	1967370	n/a	LTP302	ltpFR2	3	n/a	n/a	n/a	26	n/a	n/a	n/a	n/a
3937.338	n/a	REC_START	1968669	n/a	LTP302	ltpFR2	3	18	n/a	n/a	n/a	n/a	0	0	0
3940.074	n/a	REC_WORD	1970037	wordpools/wasnorm_wordpool_576.txt	LTP302	ltpFR2	3	18	MILDEW	893	n/a	n/a	0	0	0
3941.944	n/a	REC_WORD	1970972	wordpools/wasnorm_wordpool_576.txt	LTP302	ltpFR2	3	18	SMOG	1330	n/a	n/a	0	0	0
3942.944	n/a	REC_WORD_VV	1971472	wordpools/wasnorm_wordpool_576.txt	LTP302	ltpFR2	3	18	<>	-1	n/a	n/a	0	0	0
3944.226	n/a	REC_WORD	1972113	wordpools/wasnorm_wordpool_576.txt	LTP302	ltpFR2	3	18	PORK	1108	n/a	n/a	0	0	0
3946.438	n/a	REC_WORD	1973219	wordpools/wasnorm_wordpool_576.txt	LTP302	ltpFR2	3	18	GIRL	637	n/a	n/a	0	0	0
3948.682	n/a	REC_WORD	1974341	wordpools/wasnorm_wordpool_576.txt	LTP302	ltpFR2	3	18	WAITRESS	1581	n/a	n/a	0	0	0
4027.776	n/a	DISTRACTOR	2013888	n/a	LTP302	ltpFR2	3	19	n/a	n/a	n/a	n/a	0	0	0
4027.776	n/a	START	2013888	n/a	LTP302	ltpFR2	3	n/a	n/a	n/a	27	n/a	n/a	n/a	n/a
4027.79	n/a	PROB	2013895	n/a	LTP302	ltpFR2	3	n/a	n/a	n/a	27	24	9	7	8
4030.272	n/a	PROB	2015136	n/a	LTP302	ltpFR2	3	n/a	n/a	n/a	27	7	5	1	1
4031.674	n/a	PROB	2015837	n/a	LTP302	ltpFR2	3	n/a	n/a	n/a	27	16	2	5	9
4036.962	n/a	PROB	2018481	n/a	LTP302	ltpFR2	3	n/a	n/a	n/a	27	18	3	4	9
4039.83	n/a	PROB	2019915	n/a	LTP302	ltpFR2	3	n/a	n/a	n/a	27	18	9	6	3
4044.368	n/a	PROB	2022184	n/a	LTP302	ltpFR2	3	n/a	n/a	n/a	27	22	7	8	7
4047.606	n/a	PROB	2023803	n/a	LTP302	ltpFR2	3	n/a	n/a	n/a	27	18	9	6	3
4051.774	n/a	STOP	2025887	n/a	LTP302	ltpFR2	3	n/a	n/a	n/a	27	n/a	n/a	n/a	n/a
4052.794	n/a	WORD	2026397	wordpools/wasnorm_wordpool_576.txt	LTP302	ltpFR2	3	19	HEDGE	699	n/a	n/a	0	0	0
4055.394	n/a	WORD	2027697	wordpools/wasnorm_wordpool_576.txt	LTP302	ltpFR2	3	19	LODGE	839	n/a	n/a	0	0	0
4058.064	n/a	WORD	2029032	wordpools/wasnorm_wordpool_576.txt	LTP302	ltpFR2	3	19	SWITCH	1422	n/a	n/a	0	0	0
4060.684	n/a	WORD	2030342	wordpools/wasnorm_wordpool_576.txt	LTP302	ltpFR2	3	19	COIN	343	n/a	n/a	0	0	0
4063.368	n/a	WORD	2031684	wordpools/wasnorm_wordpool_576.txt	LTP302	ltpFR2	3	19	BUTCHER	203	n/a	n/a	0	0	0
4065.854	n/a	WORD	2032927	wordpools/wasnorm_wordpool_576.txt	LTP302	ltpFR2	3	19	FRIAR	605	n/a	n/a	0	0	0
4068.524	n/a	WORD	2034262	wordpools/wasnorm_wordpool_576.txt	LTP302	ltpFR2	3	19	CITRUS	313	n/a	n/a	0	0	0
4071.076	n/a	WORD	2035538	wordpools/wasnorm_wordpool_576.txt	LTP302	ltpFR2	3	19	TABLE	1426	n/a	n/a	0	0	0
4073.81	n/a	WORD	2036905	wordpools/wasnorm_wordpool_576.txt	LTP302	ltpFR2	3	19	SCARECROW	1245	n/a	n/a	0	0	0
4076.496	n/a	WORD	2038248	wordpools/wasnorm_wordpool_576.txt	LTP302	ltpFR2	3	19	SPACE	1345	n/a	n/a	0	0	0
4079.232	n/a	WORD	2039616	wordpools/wasnorm_wordpool_576.txt	LTP302	ltpFR2	3	19	SPOOL	1356	n/a	n/a	0	0	0
4081.684	n/a	WORD	2040842	wordpools/wasnorm_wordpool_576.txt	LTP302	ltpFR2	3	19	PADDING	999	n/a	n/a	0	0	0
4084.468	n/a	WORD	2042234	wordpools/wasnorm_wordpool_576.txt	LTP302	ltpFR2	3	19	ROBOT	1200	n/a	n/a	0	0	0
4087.072	n/a	WORD	2043536	wordpools/wasnorm_wordpool_576.txt	LTP302	ltpFR2	3	19	YARN	1631	n/a	n/a	0	0	0
4089.674	n/a	WORD	2044837	wordpools/wasnorm_wordpool_576.txt	LTP302	ltpFR2	3	19	TART	1436	n/a	n/a	0	0	0
4092.242	n/a	WORD	2046121	wordpools/wasnorm_wordpool_576.txt	LTP302	ltpFR2	3	19	TWISTER	1530	n/a	n/a	0	0	0
4094.842	n/a	WORD	2047421	wordpools/wasnorm_wordpool_576.txt	LTP302	ltpFR2	3	19	PICTURE	1061	n/a	n/a	0	0	0
4097.446	n/a	WORD	2048723	wordpools/wasnorm_wordpool_576.txt	LTP302	ltpFR2	3	19	BARLEY	88	n/a	n/a	0	0	0
4099.946	n/a	WORD	2049973	wordpools/wasnorm_wordpool_576.txt	LTP302	ltpFR2	3	19	PARTNER	1017	n/a	n/a	0	0	0
4102.586	n/a	WORD	2051293	wordpools/wasnorm_wordpool_576.txt	LTP302	ltpFR2	3	19	LOVER	846	n/a	n/a	0	0	0
4105.252	n/a	WORD	2052626	wordpools/wasnorm_wordpool_576.txt	LTP302	ltpFR2	3	19	PIMPLE	1071	n/a	n/a	0	0	0
4107.986	n/a	WORD	2053993	wordpools/wasnorm_wordpool_576.txt	LTP302	ltpFR2	3	19	FRECKLE	602	n/a	n/a	0	0	0
4110.59	n/a	WORD	2055295	wordpools/wasnorm_wordpool_576.txt	LTP302	ltpFR2	3	19	ROBIN	1199	n/a	n/a	0	0	0
4113.124	n/a	WORD	2056562	wordpools/wasnorm_wordpool_576.txt	LTP302	ltpFR2	3	19	HORNET	718	n/a	n/a	0	0	0
4114.73	n/a	START	2057365	n/a	LTP302	ltpFR2	3	n/a	n/a	n/a	28	n/a	n/a	n/a	n/a
4115.684	n/a	DISTRACTOR	2057842	n/a	LTP302	ltpFR2	3	19	n/a	n/a	n/a	n/a	0	0	0
4115.694	n/a	PROB	2057847	n/a	LTP302	ltpFR2	3	n/a	n/a	n/a	28	6	4	1	1
4118.044	n/a	PROB	2059022	n/a	LTP302	ltpFR2	3	n/a	n/a	n/a	28	6	1	3	2
4120.28	n/a	PROB	2060140	n/a	LTP302	ltpFR2	3	n/a	n/a	n/a	28	14	6	3	5
4123.866	n/a	PROB	2061933	n/a	LTP302	ltpFR2	3	n/a	n/a	n/a	28	21	8	9	4
4126.368	n/a	PROB	2063184	n/a	LTP302	ltpFR2	3	n/a	n/a	n/a	28	21	9	9	3
4128.602	n/a	PROB	2064301	n/a	LTP302	ltpFR2	3	n/a	n/a	n/a	28	11	6	2	3
4130.904	n/a	PROB	2065452	n/a	LTP302	ltpFR2	3	n/a	n/a	n/a	28	12	9	1	2
4133.456	n/a	PROB	2066728	n/a	LTP302	ltpFR2	3	n/a	n/a	n/a	28	17	6	5	6
4138.728	n/a	STOP	2069364	n/a	LTP302	ltpFR2	3	n/a	n/a	n/a	28	n/a	n/a	n/a	n/a
4140.562	n/a	REC_START	2070281	n/a	LTP302	ltpFR2	3	19	n/a	n/a	n/a	n/a	0	0	0
4146.13	n/a	REC_WORD	2073065	wordpools/wasnorm_wordpool_576.txt	LTP302	ltpFR2	3	19	ROBIN	1199	n/a	n/a	0	0	0
4148.186	n/a	REC_WORD	2074093	wordpools/wasnorm_wordpool_576.txt	LTP302	ltpFR2	3	19	HORNET	718	n/a	n/a	0	0	0
4150.312	n/a	REC_WORD	2075156	wordpools/wasnorm_wordpool_576.txt	LTP302	ltpFR2	3	19	FRECKLE	602	n/a	n/a	0	0	0
4152.546	n/a	REC_WORD	2076273	wordpools/wasnorm_wordpool_576.txt	LTP302	ltpFR2	3	19	PIMPLE	1071	n/a	n/a	0	0	0
4154.776	n/a	REC_WORD	2077388	wordpools/wasnorm_wordpool_576.txt	LTP302	ltpFR2	3	19	LOVER	846	n/a	n/a	0	0	0
4156.62	n/a	REC_WORD	2078310	wordpools/wasnorm_wordpool_576.txt	LTP302	ltpFR2	3	19	PARTNER	1017	n/a	n/a	0	0	0
4230.982	n/a	DISTRACTOR	2115491	n/a	LTP302	ltpFR2	3	20	n/a	n/a	n/a	n/a	0	0	0
4230.984	n/a	START	2115492	n/a	LTP302	ltpFR2	3	n/a	n/a	n/a	29	n/a	n/a	n/a	n/a
4230.998	n/a	PROB	2115499	n/a	LTP302	ltpFR2	3	n/a	n/a	n/a	29	13	7	3	3
4232.966	n/a	PROB	2116483	n/a	LTP302	ltpFR2	3	n/a	n/a	n/a	29	16	9	6	1
4235.854	n/a	PROB	2117927	n/a	LTP302	ltpFR2	3	n/a	n/a	n/a	29	16	2	8	6
4237.37	n/a	PROB	2118685	n/a	LTP302	ltpFR2	3	n/a	n/a	n/a	29	13	3	1	9
4238.954	n/a	PROB	2119477	n/a	LTP302	ltpFR2	3	n/a	n/a	n/a	29	16	7	1	8
4240.79	n/a	PROB	2120395	n/a	LTP302	ltpFR2	3	n/a	n/a	n/a	29	20	8	4	8
4243.226	n/a	PROB	2121613	n/a	LTP302	ltpFR2	3	n/a	n/a	n/a	29	12	9	2	1
4245.678	n/a	PROB	2122839	n/a	LTP302	ltpFR2	3	n/a	n/a	n/a	29	13	8	2	3
4247.88	n/a	PROB	2123940	n/a	LTP302	ltpFR2	3	n/a	n/a	n/a	29	15	4	2	9
4251.484	n/a	PROB	2125742	n/a	LTP302	ltpFR2	3	n/a	n/a	n/a	29	15	5	5	5
4254.982	n/a	STOP	2127491	n/a	LTP302	ltpFR2	3	n/a	n/a	n/a	29	n/a	n/a	n/a	n/a
4256.186	n/a	WORD	2128093	wordpools/wasnorm_wordpool_576.txt	LTP302	ltpFR2	3	20	QUEEN	1149	n/a	n/a	0	0	0
4258.85	n/a	WORD	2129425	wordpools/wasnorm_wordpool_576.txt	LTP302	ltpFR2	3	20	MESSAGE	888	n/a	n/a	0	0	0
4261.352	n/a	WORD	2130676	wordpools/wasnorm_wordpool_576.txt	LTP302	ltpFR2	3	20	NURSE	963	n/a	n/a	0	0	0
4263.838	n/a	WORD	2131919	wordpools/wasnorm_wordpool_576.txt	LTP302	ltpFR2	3	20	NOTEBOOK	959	n/a	n/a	0	0	0
4266.424	n/a	WORD	2133212	wordpools/wasnorm_wordpool_576.txt	LTP302	ltpFR2	3	20	BACON	67	n/a	n/a	0	0	0
4268.958	n/a	WORD	2134479	wordpools/wasnorm_wordpool_576.txt	LTP302	ltpFR2	3	20	SUNRISE	1407	n/a	n/a	0	0	0
4271.494	n/a	WORD	2135747	wordpools/wasnorm_wordpool_576.txt	LTP302	ltpFR2	3	20	COUCH	386	n/a	n/a	0	0	0
4273.962	n/a	WORD	2136981	wordpools/wasnorm_wordpool_576.txt	LTP302	ltpFR2	3	20	SKIRT	1319	n/a	n/a	0	0	0
4276.57	n/a	WORD	2138285	wordpools/wasnorm_wordpool_576.txt	LTP302	ltpFR2	3	20	ZIPPER	1636	n/a	n/a	0	0	0
4279.186	n/a	WORD	2139593	wordpools/wasnorm_wordpool_576.txt	LTP302	ltpFR2	3	20	STAMP	1370	n/a	n/a	0	0	0
4281.97	n/a	WORD	2140985	wordpools/wasnorm_wordpool_576.txt	LTP302	ltpFR2	3	20	CHEMIST	292	n/a	n/a	0	0	0
4284.722	n/a	WORD	2142361	wordpools/wasnorm_wordpool_576.txt	LTP302	ltpFR2	3	20	TAXI	1438	n/a	n/a	0	0	0
4287.426	n/a	WORD	2143713	wordpools/wasnorm_wordpool_576.txt	LTP302	ltpFR2	3	20	BURGLAR	200	n/a	n/a	0	0	0
4289.894	n/a	WORD	2144947	wordpools/wasnorm_wordpool_576.txt	LTP302	ltpFR2	3	20	DOUGHNUT	490	n/a	n/a	0	0	0
4292.496	n/a	WORD	2146248	wordpools/wasnorm_wordpool_576.txt	LTP302	ltpFR2	3	20	HOSTESS	723	n/a	n/a	0	0	0
4294.93	n/a	WORD	2147465	wordpools/wasnorm_wordpool_576.txt	LTP302	ltpFR2	3	20	PLATE	1086	n/a	n/a	0	0	0
4297.584	n/a	WORD	2148792	wordpools/wasnorm_wordpool_576.txt	LTP302	ltpFR2	3	20	BOARD	143	n/a	n/a	0	0	0
4300.302	n/a	WORD	2150151	wordpools/wasnorm_wordpool_576.txt	LTP302	ltpFR2	3	20	BLACKBOARD	133	n/a	n/a	0	0	0
4302.986	n/a	WORD	2151493	wordpools/wasnorm_wordpool_576.txt	LTP302	ltpFR2	3	20	BULLET	194	n/a	n/a	0	0	0
4305.706	n/a	WORD	2152853	wordpools/wasnorm_wordpool_576.txt	LTP302	ltpFR2	3	20	TYPIST	1532	n/a	n/a	0	0	0
4308.276	n/a	WORD	2154138	wordpools/wasnorm_wordpool_576.txt	LTP302	ltpFR2	3	20	CUSTARD	429	n/a	n/a	0	0	0
4310.844	n/a	WORD	2155422	wordpools/wasnorm_wordpool_576.txt	LTP302	ltpFR2	3	20	DRUG	501	n/a	n/a	0	0	0
4313.548	n/a	WORD	2156774	wordpools/wasnorm_wordpool_576.txt	LTP302	ltpFR2	3	20	JUNGLE	764	n/a	n/a	0	0	0
4316.266	n/a	WORD	2158133	wordpools/wasnorm_wordpool_576.txt	LTP302	ltpFR2	3	20	OMELET	976	n/a	n/a	0	0	0
4317.884	n/a	START	2158942	n/a	LTP302	ltpFR2	3	n/a	n/a	n/a	30	n/a	n/a	n/a	n/a
4319.076	n/a	DISTRACTOR	2159538	n/a	LTP302	ltpFR2	3	20	n/a	n/a	n/a	n/a	0	0	0
4319.086	n/a	PROB	2159543	n/a	LTP302	ltpFR2	3	n/a	n/a	n/a	30	20	8	9	3
4322.77	n/a	PROB	2161385	n/a	LTP302	ltpFR2	3	n/a	n/a	n/a	30	14	6	2	6
4324.872	n/a	PROB	2162436	n/a	LTP302	ltpFR2	3	n/a	n/a	n/a	30	20	6	6	8
4327.492	n/a	PROB	2163746	n/a	LTP302	ltpFR2	3	n/a	n/a	n/a	30	9	1	4	4
4329.392	n/a	PROB	2164696	n/a	LTP302	ltpFR2	3	n/a	n/a	n/a	30	21	7	5	9
4335.064	n/a	PROB	2167532	n/a	LTP302	ltpFR2	3	n/a	n/a	n/a	30	9	1	6	2
4336.464	n/a	PROB	2168232	n/a	LTP302	ltpFR2	3	n/a	n/a	n/a	30	8	4	1	3
4338.632	n/a	PROB	2169316	n/a	LTP302	ltpFR2	3	n/a	n/a	n/a	30	15	6	1	8
4341.258	n/a	STOP	2170629	n/a	LTP302	ltpFR2	3	n/a	n/a	n/a	30	n/a	n/a	n/a	n/a
4343.654	n/a	REC_START	2171827	n/a	LTP302	ltpFR2	3	20	n/a	n/a	n/a	n/a	0	0	0
4346.212	n/a	REC_WORD	2173106	wordpools/wasnorm_wordpool_576.txt	LTP302	ltpFR2	3	20	TYPIST	1532	n/a	n/a	0	0	0
4348.292	n/a	REC_WORD	2174146	wordpools/wasnorm_wordpool_576.txt	LTP302	ltpFR2	3	20	MESSAGE	888	n/a	n/a	0	0	0
4350.36	n/a	REC_WORD	2175180	wordpools/wasnorm_wordpool_576.txt	LTP302	ltpFR2	3	20	QUEEN	1149	n/a	n/a	0	0	0
4354.462	n/a	REC_WORD	2177231	wordpools/wasnorm_wordpool_576.txt	LTP302	ltpFR2	3	20	BOARD	143	n/a	n/a	0	0	0
4356.28	n/a	REC_WORD	2178140	wordpools/wasnorm_wordpool_576.txt	LTP302	ltpFR2	3	20	BLACKBOARD	133	n/a	n/a	0	0	0
4357.28	n/a	REC_WORD_VV	2178640	wordpools/wasnorm_wordpool_576.txt	LTP302	ltpFR2	3	20	<>	-1	n/a	n/a	0	0	0
4359.812	n/a	REC_WORD	2179906	wordpools/wasnorm_wordpool_576.txt	LTP302	ltpFR2	3	20	CUSTARD	429	n/a	n/a	0	0	0
4361.676	n/a	REC_WORD	2180838	wordpools/wasnorm_wordpool_576.txt	LTP302	ltpFR2	3	20	DRUG	501	n/a	n/a	0	0	0
4434.076	n/a	DISTRACTOR	2217038	n/a	LTP302	ltpFR2	3	21	n/a	n/a	n/a	n/a	0	0	0
4434.076	n/a	START	2217038	n/a	LTP302	ltpFR2	3	n/a	n/a	n/a	31	n/a	n/a	n/a	n/a
4434.09	n/a	PROB	2217045	n/a	LTP302	ltpFR2	3	n/a	n/a	n/a	31	19	8	3	8
4437.026	n/a	PROB	2218513	n/a	LTP302	ltpFR2	3	n/a	n/a	n/a	31	19	6	7	6
4439.646	n/a	PROB	2219823	n/a	LTP302	ltpFR2	3	n/a	n/a	n/a	31	15	2	4	9
4441.878	n/a	PROB	2220939	n/a	LTP302	ltpFR2	3	n/a	n/a	n/a	31	11	5	2	4
4444.248	n/a	PROB	2222124	n/a	LTP302	ltpFR2	3	n/a	n/a	n/a	31	16	5	2	9
4446.718	n/a	PROB	2223359	n/a	LTP302	ltpFR2	3	n/a	n/a	n/a	31	20	8	4	8
4448.668	n/a	PROB	2224334	n/a	LTP302	ltpFR2	3	n/a	n/a	n/a	31	10	6	1	3
4451.306	n/a	PROB	2225653	n/a	LTP302	ltpFR2	3	n/a	n/a	n/a	31	15	4	7	4
4453.672	n/a	PROB	2226836	n/a	LTP302	ltpFR2	3	n/a	n/a	n/a	31	11	1	8	2
4458.076	n/a	STOP	2229038	n/a	LTP302	ltpFR2	3	n/a	n/a	n/a	31	n/a	n/a	n/a	n/a
4459.228	n/a	WORD	2229614	wordpools/wasnorm_wordpool_576.txt	LTP302	ltpFR2	3	21	JOURNAL	760	n/a	n/a	0	0	0
4461.856	n/a	WORD	2230928	wordpools/wasnorm_wordpool_576.txt	LTP302	ltpFR2	3	21	PLAID	1080	n/a	n/a	0	0	0
4464.292	n/a	WORD	2232146	wordpools/wasnorm_wordpool_576.txt	LTP302	ltpFR2	3	21	PLIERS	1089	n/a	n/a	0	0	0
4466.784	n/a	WORD	2233392	wordpools/wasnorm_wordpool_576.txt	LTP302	ltpFR2	3	21	FOX	598	n/a	n/a	0	0	0
4469.346	n/a	WORD	2234673	wordpools/wasnorm_wordpool_576.txt	LTP302	ltpFR2	3	21	PISTOL	1075	n/a	n/a	0	0	0
4471.848	n/a	WORD	2235924	wordpools/wasnorm_wordpool_576.txt	LTP302	ltpFR2	3	21	ICING	732	n/a	n/a	0	0	0
4474.284	n/a	WORD	2237142	wordpools/wasnorm_wordpool_576.txt	LTP302	ltpFR2	3	21	BIKE	125	n/a	n/a	0	0	0
4476.968	n/a	WORD	2238484	wordpools/wasnorm_wordpool_576.txt	LTP302	ltpFR2	3	21	POSSUM	1112	n/a	n/a	0	0	0
4479.738	n/a	WORD	2239869	wordpools/wasnorm_wordpool_576.txt	LTP302	ltpFR2	3	21	MEAT	883	n/a	n/a	0	0	0
4482.474	n/a	WORD	2241237	wordpools/wasnorm_wordpool_576.txt	LTP302	ltpFR2	3	21	SAUSAGE	1238	n/a	n/a	0	0	0
4485.276	n/a	WORD	2242638	wordpools/wasnorm_wordpool_576.txt	LTP302	ltpFR2	3	21	CRAYON	401	n/a	n/a	0	0	0
4487.778	n/a	WORD	2243889	wordpools/wasnorm_wordpool_576.txt	LTP302	ltpFR2	3	21	CIGAR	308	n/a	n/a	0	0	0
4490.33	n/a	WORD	2245165	wordpools/wasnorm_wordpool_576.txt	LTP302	ltpFR2	3	21	ORANGE	980	n/a	n/a	0	0	0
4493.066	n/a	WORD	2246533	wordpools/wasnorm_wordpool_576.txt	LTP302	ltpFR2	3	21	SEAFOOD	1260	n/a	n/a	0	0	0
4495.502	n/a	WORD	2247751	wordpools/wasnorm_wordpool_576.txt	LTP302	ltpFR2	3	21	TUNNEL	1519	n/a	n/a	0	0	0
4498.226	n/a	WORD	2249113	wordpools/wasnorm_wordpool_576.txt	LTP302	ltpFR2	3	21	CONCERT	360	n/a	n/a	0	0	0
4500.89	n/a	WORD	2250445	wordpools/wasnorm_wordpool_576.txt	LTP302	ltpFR2	3	21	GUITAR	670	n/a	n/a	0	0	0
4503.476	n/a	WORD	2251738	wordpools/wasnorm_wordpool_576.txt	LTP302	ltpFR2	3	21	POSTAGE	1113	n/a	n/a	0	0	0
4506.044	n/a	WORD	2253022	wordpools/wasnorm_wordpool_576.txt	LTP302	ltpFR2	3	21	GIFT	635	n/a	n/a	0	0	0
4508.512	n/a	WORD	2254256	wordpools/wasnorm_wordpool_576.txt	LTP302	ltpFR2	3	21	PANTHER	1009	n/a	n/a	0	0	0
4511.1	n/a	WORD	2255550	wordpools/wasnorm_wordpool_576.txt	LTP302	ltpFR2	3	21	PUPIL	1143	n/a	n/a	0	0	0
4513.7	n/a	WORD	2256850	wordpools/wasnorm_wordpool_576.txt	LTP302	ltpFR2	3	21	FLAG	573	n/a	n/a	0	0	0
4516.402	n/a	WORD	2258201	wordpools/wasnorm_wordpool_576.txt	LTP302	ltpFR2	3	21	LAMP	798	n/a	n/a	0	0	0
4519.154	n/a	WORD	2259577	wordpools/wasnorm_wordpool_576.txt	LTP302	ltpFR2	3	21	SHORTS	1293	n/a	n/a	0	0	0
4520.76	n/a	START	2260380	n/a	LTP302	ltpFR2	3	n/a	n/a	n/a	32	n/a	n/a	n/a	n/a
4521.952	n/a	DISTRACTOR	2260976	n/a	LTP302	ltpFR2	3	21	n/a	n/a	n/a	n/a	0	0	0
4521.958	n/a	PROB	2260979	n/a	LTP302	ltpFR2	3	n/a	n/a	n/a	32	23	8	9	6
4531.802	n/a	PROB	2265901	n/a	LTP302	ltpFR2	3	n/a	n/a	n/a	32	18	9	5	4
4533.866	n/a	PROB	2266933	n/a	LTP302	ltpFR2	3	n/a	n/a	n/a	32	8	4	1	3
4535.47	n/a	PROB	2267735	n/a	LTP302	ltpFR2	3	n/a	n/a	n/a	32	17	9	3	5
4537.54	n/a	PROB	2268770	n/a	LTP302	ltpFR2	3	n/a	n/a	n/a	32	13	1	6	6
4539.158	n/a	PROB	2269579	n/a	LTP302	ltpFR2	3	n/a	n/a	n/a	32	25	8	8	9
4542.026	n/a	PROB	2271013	n/a	LTP302	ltpFR2	3	n/a	n/a	n/a	32	18	2	8	8
4544.414	n/a	STOP	2272207	n/a	LTP302	ltpFR2	3	n/a	n/a	n/a	32	n/a	n/a	n/a	n/a
4546.714	n/a	REC_START	2273357	n/a	LTP302	ltpFR2	3	21	n/a	n/a	n/a	n/a	0	0	0
4547.606	n/a	REC_WORD	2273803	wordpools/wasnorm_wordpool_576.txt	LTP302	ltpFR2	3	21	LAMP	798	n/a	n/a	0	0	0
4549.482	n/a	REC_WORD	2274741	wordpools/wasnorm_wordpool_576.txt	LTP302	ltpFR2	3	21	SHORTS	1293	n/a	n/a	0	0	0
4564.434	n/a	REC_WORD	2282217	wordpools/wasnorm_wordpool_576.txt	LTP302	ltpFR2	3	21	PLAID	1080	n/a	n/a	0	0	0
4567.644	n/a	REC_WORD	2283822	wordpools/wasnorm_wordpool_576.txt	LTP302	ltpFR2	3	21	PLIERS	1089	n/a	n/a	0	0	0
