mstime	trial_type	stim_file	subject	experiment	session	trial	task	item_name	item_num	recog_resp	recog_conf	resp	answer	test_x	test_y	test_z	color_r	color_g	color_b	case	font
0	SESS_START	n/a	LTP197	ltpFR	9	n/a	n/a	n/a	n/a	1	n/a	n/a	n/a	0	0	0	n/a	n/a	n/a	n/a	n/a
28871	START	n/a	LTP197	ltpFR	9	n/a	n/a	n/a	n/a	n/a	n/a	n/a	n/a	n/a	n/a	n/a	n/a	n/a	n/a	n/a	n/a
28921	PROB	n/a	LTP197	ltpFR	9	n/a	n/a	n/a	n/a	n/a	n/a	n/a	7	2	3	2	n/a	n/a	n/a	n/a	n/a
31030	PROB	n/a	LTP197	ltpFR	9	n/a	n/a	n/a	n/a	n/a	n/a	n/a	15	7	1	7	n/a	n/a	n/a	n/a	n/a
32819	PROB	n/a	LTP197	ltpFR	9	n/a	n/a	n/a	n/a	n/a	n/a	n/a	10	3	4	3	n/a	n/a	n/a	n/a	n/a
35313	PROB	n/a	LTP197	ltpFR	9	n/a	n/a	n/a	n/a	n/a	n/a	n/a	11	3	5	3	n/a	n/a	n/a	n/a	n/a
36975	PROB	n/a	LTP197	ltpFR	9	n/a	n/a	n/a	n/a	n/a	n/a	n/a	16	9	1	6	n/a	n/a	n/a	n/a	n/a
38413	PROB	n/a	LTP197	ltpFR	9	n/a	n/a	n/a	n/a	n/a	n/a	n/a	4	1	1	2	n/a	n/a	n/a	n/a	n/a
39795	PROB	n/a	LTP197	ltpFR	9	n/a	n/a	n/a	n/a	n/a	n/a	n/a	15	9	5	1	n/a	n/a	n/a	n/a	n/a
41709	PROB	n/a	LTP197	ltpFR	9	n/a	n/a	n/a	n/a	n/a	n/a	n/a	16	9	1	6	n/a	n/a	n/a	n/a	n/a
43293	PROB	n/a	LTP197	ltpFR	9	n/a	n/a	n/a	n/a	n/a	n/a	n/a	13	1	6	6	n/a	n/a	n/a	n/a	n/a
45083	PROB	n/a	LTP197	ltpFR	9	n/a	n/a	n/a	n/a	n/a	n/a	n/a	14	5	8	2	n/a	n/a	n/a	n/a	n/a
46996	PROB	n/a	LTP197	ltpFR	9	n/a	n/a	n/a	n/a	n/a	n/a	n/a	5	1	1	3	n/a	n/a	n/a	n/a	n/a
48711	STOP	n/a	LTP197	ltpFR	9	n/a	n/a	n/a	n/a	n/a	n/a	n/a	n/a	n/a	n/a	n/a	n/a	n/a	n/a	n/a	n/a
81425	WORD	wordpools/wasnorm_wordpool_less_exclusions.txt	LTP197	ltpFR	9	1	0	TUXEDO	1525	n/a	n/a	1	n/a	0	0	0	0.422607421875	0.5869140625	0	upper	amplitud.ttf
85335	WORD	wordpools/wasnorm_wordpool_less_exclusions.txt	LTP197	ltpFR	9	1	0	POCKET	1093	n/a	n/a	0	n/a	0	0	0	0.422607421875	0.5869140625	0	upper	amplitud.ttf
89483	WORD	wordpools/wasnorm_wordpool_less_exclusions.txt	LTP197	ltpFR	9	1	0	LAPEL	800	n/a	n/a	0	n/a	0	0	0	0.422607421875	0.5869140625	0	upper	amplitud.ttf
93699	WORD	wordpools/wasnorm_wordpool_less_exclusions.txt	LTP197	ltpFR	9	1	0	MANSION	864	n/a	n/a	1	n/a	0	0	0	0.422607421875	0.5869140625	0	upper	amplitud.ttf
97737	WORD	wordpools/wasnorm_wordpool_less_exclusions.txt	LTP197	ltpFR	9	1	0	SHUTTER	1300	n/a	n/a	1	n/a	0	0	0	0.422607421875	0.5869140625	0	upper	amplitud.ttf
101779	WORD	wordpools/wasnorm_wordpool_less_exclusions.txt	LTP197	ltpFR	9	1	0	VIKING	1565	n/a	n/a	1	n/a	0	0	0	0.422607421875	0.5869140625	0	upper	amplitud.ttf
105777	WORD	wordpools/wasnorm_wordpool_less_exclusions.txt	LTP197	ltpFR	9	1	0	DRESS	495	n/a	n/a	1	n/a	0	0	0	0.422607421875	0.5869140625	0	upper	amplitud.ttf
109698	WORD	wordpools/wasnorm_wordpool_less_exclusions.txt	LTP197	ltpFR	9	1	0	WALLET	1583	n/a	n/a	0	n/a	0	0	0	0.422607421875	0.5869140625	0	upper	amplitud.ttf
113590	WORD	wordpools/wasnorm_wordpool_less_exclusions.txt	LTP197	ltpFR	9	1	0	ROSE	1212	n/a	n/a	0	n/a	0	0	0	0.422607421875	0.5869140625	0	upper	amplitud.ttf
117796	WORD	wordpools/wasnorm_wordpool_less_exclusions.txt	LTP197	ltpFR	9	1	0	MEADOW	881	n/a	n/a	1	n/a	0	0	0	0.422607421875	0.5869140625	0	upper	amplitud.ttf
121990	WORD	wordpools/wasnorm_wordpool_less_exclusions.txt	LTP197	ltpFR	9	1	0	COMPANION	357	n/a	n/a	1	n/a	0	0	0	0.422607421875	0.5869140625	0	upper	amplitud.ttf
126145	WORD	wordpools/wasnorm_wordpool_less_exclusions.txt	LTP197	ltpFR	9	1	0	VISITOR	1573	n/a	n/a	1	n/a	0	0	0	0.422607421875	0.5869140625	0	upper	amplitud.ttf
130227	WORD	wordpools/wasnorm_wordpool_less_exclusions.txt	LTP197	ltpFR	9	1	0	ZIPPER	1636	n/a	n/a	0	n/a	0	0	0	0.422607421875	0.5869140625	0	upper	amplitud.ttf
134091	WORD	wordpools/wasnorm_wordpool_less_exclusions.txt	LTP197	ltpFR	9	1	0	GIFT	635	n/a	n/a	0	n/a	0	0	0	0.422607421875	0.5869140625	0	upper	amplitud.ttf
138173	WORD	wordpools/wasnorm_wordpool_less_exclusions.txt	LTP197	ltpFR	9	1	0	ELF	525	n/a	n/a	1	n/a	0	0	0	0.422607421875	0.5869140625	0	upper	amplitud.ttf
142055	WORD	wordpools/wasnorm_wordpool_less_exclusions.txt	LTP197	ltpFR	9	1	0	TROPHY	1509	n/a	n/a	1	n/a	0	0	0	0.422607421875	0.5869140625	0	upper	amplitud.ttf
145066	START	n/a	LTP197	ltpFR	9	n/a	n/a	n/a	n/a	n/a	n/a	n/a	n/a	n/a	n/a	n/a	n/a	n/a	n/a	n/a	n/a
146231	PROB	n/a	LTP197	ltpFR	9	n/a	n/a	n/a	n/a	n/a	n/a	n/a	18	9	1	8	n/a	n/a	n/a	n/a	n/a
147944	PROB	n/a	LTP197	ltpFR	9	n/a	n/a	n/a	n/a	n/a	n/a	n/a	18	4	6	8	n/a	n/a	n/a	n/a	n/a
149276	PROB	n/a	LTP197	ltpFR	9	n/a	n/a	n/a	n/a	n/a	n/a	n/a	25	7	9	9	n/a	n/a	n/a	n/a	n/a
151607	STOP	n/a	LTP197	ltpFR	9	n/a	n/a	n/a	n/a	n/a	n/a	n/a	n/a	n/a	n/a	n/a	n/a	n/a	n/a	n/a	n/a
154948	REC_START	n/a	LTP197	ltpFR	9	1	n/a	n/a	n/a	n/a	n/a	n/a	n/a	0	0	0	n/a	n/a	n/a	n/a	n/a
156395	REC_WORD	wordpools/wasnorm_wordpool_less_exclusions.txt	LTP197	ltpFR	9	1	0	TUXEDO	1525	n/a	n/a	1	n/a	0	0	0	n/a	n/a	n/a	n/a	n/a
157382	REC_WORD	wordpools/wasnorm_wordpool_less_exclusions.txt	LTP197	ltpFR	9	1	0	POCKET	1093	n/a	n/a	0	n/a	0	0	0	n/a	n/a	n/a	n/a	n/a
158081	REC_WORD	wordpools/wasnorm_wordpool_less_exclusions.txt	LTP197	ltpFR	9	1	0	LAPEL	800	n/a	n/a	0	n/a	0	0	0	n/a	n/a	n/a	n/a	n/a
159053	REC_WORD	wordpools/wasnorm_wordpool_less_exclusions.txt	LTP197	ltpFR	9	1	0	VIKING	1565	n/a	n/a	1	n/a	0	0	0	n/a	n/a	n/a	n/a	n/a
160390	REC_WORD	wordpools/wasnorm_wordpool_less_exclusions.txt	LTP197	ltpFR	9	1	0	MANSION	864	n/a	n/a	1	n/a	0	0	0	n/a	n/a	n/a	n/a	n/a
161343	REC_WORD	wordpools/wasnorm_wordpool_less_exclusions.txt	LTP197	ltpFR	9	1	0	SHUTTER	1300	n/a	n/a	1	n/a	0	0	0	n/a	n/a	n/a	n/a	n/a
163538	REC_WORD	wordpools/wasnorm_wordpool_less_exclusions.txt	LTP197	ltpFR	9	1	0	MEADOW	881	n/a	n/a	1	n/a	0	0	0	n/a	n/a	n/a	n/a	n/a
164795	REC_WORD	wordpools/wasnorm_wordpool_less_exclusions.txt	LTP197	ltpFR	9	1	0	DRESS	495	n/a	n/a	1	n/a	0	0	0	n/a	n/a	n/a	n/a	n/a
165703	REC_WORD	wordpools/wasnorm_wordpool_less_exclusions.txt	LTP197	ltpFR	9	1	0	ZIPPER	1636	n/a	n/a	0	n/a	0	0	0	n/a	n/a	n/a	n/a	n/a
166951	REC_WORD	wordpools/wasnorm_wordpool_less_exclusions.txt	LTP197	ltpFR	9	1	0	ELF	525	n/a	n/a	1	n/a	0	0	0	n/a	n/a	n/a	n/a	n/a
168667	REC_WORD	wordpools/wasnorm_wordpool_less_exclusions.txt	LTP197	ltpFR	9	1	0	WALLET	1583	n/a	n/a	0	n/a	0	0	0	n/a	n/a	n/a	n/a	n/a
169310	REC_WORD	wordpools/wasnorm_wordpool_less_exclusions.txt	LTP197	ltpFR	9	1	0	ROSE	1212	n/a	n/a	0	n/a	0	0	0	n/a	n/a	n/a	n/a	n/a
170133	REC_WORD	wordpools/wasnorm_wordpool_less_exclusions.txt	LTP197	ltpFR	9	1	0	GIFT	635	n/a	n/a	0	n/a	0	0	0	n/a	n/a	n/a	n/a	n/a
172099	REC_WORD	wordpools/wasnorm_wordpool_less_exclusions.txt	LTP197	ltpFR	9	1	0	TROPHY	1509	n/a	n/a	1	n/a	0	0	0	n/a	n/a	n/a	n/a	n/a
174234	REC_WORD	wordpools/wasnorm_wordpool_less_exclusions.txt	LTP197	ltpFR	9	1	0	COMPANION	357	n/a	n/a	1	n/a	0	0	0	n/a	n/a	n/a	n/a	n/a
175970	REC_WORD	wordpools/wasnorm_wordpool_less_exclusions.txt	LTP197	ltpFR	9	1	0	VISITOR	1573	n/a	n/a	1	n/a	0	0	0	n/a	n/a	n/a	n/a	n/a
232880	START	n/a	LTP197	ltpFR	9	n/a	n/a	n/a	n/a	n/a	n/a	n/a	n/a	n/a	n/a	n/a	n/a	n/a	n/a	n/a	n/a
234396	PROB	n/a	LTP197	ltpFR	9	n/a	n/a	n/a	n/a	n/a	n/a	n/a	12	6	4	2	n/a	n/a	n/a	n/a	n/a
235774	PROB	n/a	LTP197	ltpFR	9	n/a	n/a	n/a	n/a	n/a	n/a	n/a	13	4	6	3	n/a	n/a	n/a	n/a	n/a
237524	PROB	n/a	LTP197	ltpFR	9	n/a	n/a	n/a	n/a	n/a	n/a	n/a	18	7	2	9	n/a	n/a	n/a	n/a	n/a
240879	STOP	n/a	LTP197	ltpFR	9	n/a	n/a	n/a	n/a	n/a	n/a	n/a	n/a	n/a	n/a	n/a	n/a	n/a	n/a	n/a	n/a
241958	WORD	wordpools/wasnorm_wordpool_less_exclusions.txt	LTP197	ltpFR	9	2	1	STREET	1393	n/a	n/a	0	n/a	0	0	0	0.57763671875	0.412841796875	1	lower	zerothre.ttf
244970	START	n/a	LTP197	ltpFR	9	n/a	n/a	n/a	n/a	n/a	n/a	n/a	n/a	n/a	n/a	n/a	n/a	n/a	n/a	n/a	n/a
246164	PROB	n/a	LTP197	ltpFR	9	n/a	n/a	n/a	n/a	n/a	n/a	n/a	20	8	8	4	n/a	n/a	n/a	n/a	n/a
248221	PROB	n/a	LTP197	ltpFR	9	n/a	n/a	n/a	n/a	n/a	n/a	n/a	16	8	7	1	n/a	n/a	n/a	n/a	n/a
250445	PROB	n/a	LTP197	ltpFR	9	n/a	n/a	n/a	n/a	n/a	n/a	n/a	16	4	6	6	n/a	n/a	n/a	n/a	n/a
251759	STOP	n/a	LTP197	ltpFR	9	n/a	n/a	n/a	n/a	n/a	n/a	n/a	n/a	n/a	n/a	n/a	n/a	n/a	n/a	n/a	n/a
253943	WORD	wordpools/wasnorm_wordpool_less_exclusions.txt	LTP197	ltpFR	9	2	1	VEIN	1554	n/a	n/a	1	n/a	0	0	0	0.57763671875	0.412841796875	1	lower	zerothre.ttf
256955	START	n/a	LTP197	ltpFR	9	n/a	n/a	n/a	n/a	n/a	n/a	n/a	n/a	n/a	n/a	n/a	n/a	n/a	n/a	n/a	n/a
258136	PROB	n/a	LTP197	ltpFR	9	n/a	n/a	n/a	n/a	n/a	n/a	n/a	15	1	7	7	n/a	n/a	n/a	n/a	n/a
259674	PROB	n/a	LTP197	ltpFR	9	n/a	n/a	n/a	n/a	n/a	n/a	n/a	7	1	3	3	n/a	n/a	n/a	n/a	n/a
261531	PROB	n/a	LTP197	ltpFR	9	n/a	n/a	n/a	n/a	n/a	n/a	n/a	19	9	1	9	n/a	n/a	n/a	n/a	n/a
262769	PROB	n/a	LTP197	ltpFR	9	n/a	n/a	n/a	n/a	n/a	n/a	n/a	15	1	8	6	n/a	n/a	n/a	n/a	n/a
264232	STOP	n/a	LTP197	ltpFR	9	n/a	n/a	n/a	n/a	n/a	n/a	n/a	n/a	n/a	n/a	n/a	n/a	n/a	n/a	n/a	n/a
265897	WORD	wordpools/wasnorm_wordpool_less_exclusions.txt	LTP197	ltpFR	9	2	0	VITAMIN	1574	n/a	n/a	2	n/a	0	0	0	0.422607421875	0.5869140625	0	upper	amplitud.ttf
267610	KEY_MSG	n/a	LTP197	ltpFR	9	2	n/a	n/a	n/a	n/a	n/a	n/a	n/a	0	0	0	n/a	n/a	n/a	n/a	n/a
269145	START	n/a	LTP197	ltpFR	9	n/a	n/a	n/a	n/a	n/a	n/a	n/a	n/a	n/a	n/a	n/a	n/a	n/a	n/a	n/a	n/a
270305	PROB	n/a	LTP197	ltpFR	9	n/a	n/a	n/a	n/a	n/a	n/a	n/a	16	2	8	6	n/a	n/a	n/a	n/a	n/a
272824	PROB	n/a	LTP197	ltpFR	9	n/a	n/a	n/a	n/a	n/a	n/a	n/a	9	2	3	3	n/a	n/a	n/a	n/a	n/a
274888	PROB	n/a	LTP197	ltpFR	9	n/a	n/a	n/a	n/a	n/a	n/a	n/a	8	2	2	4	n/a	n/a	n/a	n/a	n/a
276264	STOP	n/a	LTP197	ltpFR	9	n/a	n/a	n/a	n/a	n/a	n/a	n/a	n/a	n/a	n/a	n/a	n/a	n/a	n/a	n/a	n/a
278017	WORD	wordpools/wasnorm_wordpool_less_exclusions.txt	LTP197	ltpFR	9	2	0	CHAIR	274	n/a	n/a	0	n/a	0	0	0	0.422607421875	0.5869140625	0	upper	amplitud.ttf
281029	START	n/a	LTP197	ltpFR	9	n/a	n/a	n/a	n/a	n/a	n/a	n/a	n/a	n/a	n/a	n/a	n/a	n/a	n/a	n/a	n/a
282216	PROB	n/a	LTP197	ltpFR	9	n/a	n/a	n/a	n/a	n/a	n/a	n/a	15	9	5	1	n/a	n/a	n/a	n/a	n/a
284100	PROB	n/a	LTP197	ltpFR	9	n/a	n/a	n/a	n/a	n/a	n/a	n/a	9	2	3	4	n/a	n/a	n/a	n/a	n/a
286431	PROB	n/a	LTP197	ltpFR	9	n/a	n/a	n/a	n/a	n/a	n/a	n/a	11	1	9	1	n/a	n/a	n/a	n/a	n/a
287855	STOP	n/a	LTP197	ltpFR	9	n/a	n/a	n/a	n/a	n/a	n/a	n/a	n/a	n/a	n/a	n/a	n/a	n/a	n/a	n/a	n/a
289871	WORD	wordpools/wasnorm_wordpool_less_exclusions.txt	LTP197	ltpFR	9	2	0	BASKET	95	n/a	n/a	2	n/a	0	0	0	0.422607421875	0.5869140625	0	upper	amplitud.ttf
291317	KEY_MSG	n/a	LTP197	ltpFR	9	2	n/a	n/a	n/a	n/a	n/a	n/a	n/a	0	0	0	n/a	n/a	n/a	n/a	n/a
292883	START	n/a	LTP197	ltpFR	9	n/a	n/a	n/a	n/a	n/a	n/a	n/a	n/a	n/a	n/a	n/a	n/a	n/a	n/a	n/a	n/a
293792	PROB	n/a	LTP197	ltpFR	9	n/a	n/a	n/a	n/a	n/a	n/a	n/a	16	6	1	9	n/a	n/a	n/a	n/a	n/a
295616	PROB	n/a	LTP197	ltpFR	9	n/a	n/a	n/a	n/a	n/a	n/a	n/a	19	7	8	4	n/a	n/a	n/a	n/a	n/a
297953	PROB	n/a	LTP197	ltpFR	9	n/a	n/a	n/a	n/a	n/a	n/a	n/a	14	4	1	9	n/a	n/a	n/a	n/a	n/a
299487	STOP	n/a	LTP197	ltpFR	9	n/a	n/a	n/a	n/a	n/a	n/a	n/a	n/a	n/a	n/a	n/a	n/a	n/a	n/a	n/a	n/a
301923	WORD	wordpools/wasnorm_wordpool_less_exclusions.txt	LTP197	ltpFR	9	2	1	ROAD	1196	n/a	n/a	0	n/a	0	0	0	0.57763671875	0.412841796875	1	lower	zerothre.ttf
304936	START	n/a	LTP197	ltpFR	9	n/a	n/a	n/a	n/a	n/a	n/a	n/a	n/a	n/a	n/a	n/a	n/a	n/a	n/a	n/a	n/a
306083	PROB	n/a	LTP197	ltpFR	9	n/a	n/a	n/a	n/a	n/a	n/a	n/a	8	4	2	2	n/a	n/a	n/a	n/a	n/a
307980	PROB	n/a	LTP197	ltpFR	9	n/a	n/a	n/a	n/a	n/a	n/a	n/a	16	3	8	5	n/a	n/a	n/a	n/a	n/a
309796	PROB	n/a	LTP197	ltpFR	9	n/a	n/a	n/a	n/a	n/a	n/a	n/a	20	9	5	6	n/a	n/a	n/a	n/a	n/a
311519	STOP	n/a	LTP197	ltpFR	9	n/a	n/a	n/a	n/a	n/a	n/a	n/a	n/a	n/a	n/a	n/a	n/a	n/a	n/a	n/a	n/a
313851	WORD	wordpools/wasnorm_wordpool_less_exclusions.txt	LTP197	ltpFR	9	2	1	RECEPTIONIST	1174	n/a	n/a	0	n/a	0	0	0	0.57763671875	0.412841796875	1	lower	zerothre.ttf
316863	START	n/a	LTP197	ltpFR	9	n/a	n/a	n/a	n/a	n/a	n/a	n/a	n/a	n/a	n/a	n/a	n/a	n/a	n/a	n/a	n/a
318045	PROB	n/a	LTP197	ltpFR	9	n/a	n/a	n/a	n/a	n/a	n/a	n/a	13	2	2	9	n/a	n/a	n/a	n/a	n/a
319969	PROB	n/a	LTP197	ltpFR	9	n/a	n/a	n/a	n/a	n/a	n/a	n/a	17	3	9	4	n/a	n/a	n/a	n/a	n/a
321949	PROB	n/a	LTP197	ltpFR	9	n/a	n/a	n/a	n/a	n/a	n/a	n/a	13	6	5	2	n/a	n/a	n/a	n/a	n/a
324128	STOP	n/a	LTP197	ltpFR	9	n/a	n/a	n/a	n/a	n/a	n/a	n/a	n/a	n/a	n/a	n/a	n/a	n/a	n/a	n/a	n/a
325907	WORD	wordpools/wasnorm_wordpool_less_exclusions.txt	LTP197	ltpFR	9	2	1	EAGLE	512	n/a	n/a	1	n/a	0	0	0	0.57763671875	0.412841796875	1	lower	zerothre.ttf
328919	START	n/a	LTP197	ltpFR	9	n/a	n/a	n/a	n/a	n/a	n/a	n/a	n/a	n/a	n/a	n/a	n/a	n/a	n/a	n/a	n/a
329973	PROB	n/a	LTP197	ltpFR	9	n/a	n/a	n/a	n/a	n/a	n/a	n/a	19	5	6	8	n/a	n/a	n/a	n/a	n/a
331618	PROB	n/a	LTP197	ltpFR	9	n/a	n/a	n/a	n/a	n/a	n/a	n/a	24	7	8	9	n/a	n/a	n/a	n/a	n/a
333536	PROB	n/a	LTP197	ltpFR	9	n/a	n/a	n/a	n/a	n/a	n/a	n/a	12	2	2	8	n/a	n/a	n/a	n/a	n/a
335199	PROB	n/a	LTP197	ltpFR	9	n/a	n/a	n/a	n/a	n/a	n/a	n/a	12	7	3	2	n/a	n/a	n/a	n/a	n/a
336495	STOP	n/a	LTP197	ltpFR	9	n/a	n/a	n/a	n/a	n/a	n/a	n/a	n/a	n/a	n/a	n/a	n/a	n/a	n/a	n/a	n/a
337885	WORD	wordpools/wasnorm_wordpool_less_exclusions.txt	LTP197	ltpFR	9	2	0	OATMEAL	967	n/a	n/a	0	n/a	0	0	0	0.422607421875	0.5869140625	0	upper	amplitud.ttf
340897	START	n/a	LTP197	ltpFR	9	n/a	n/a	n/a	n/a	n/a	n/a	n/a	n/a	n/a	n/a	n/a	n/a	n/a	n/a	n/a	n/a
341958	PROB	n/a	LTP197	ltpFR	9	n/a	n/a	n/a	n/a	n/a	n/a	n/a	10	2	6	2	n/a	n/a	n/a	n/a	n/a
343680	PROB	n/a	LTP197	ltpFR	9	n/a	n/a	n/a	n/a	n/a	n/a	n/a	12	6	1	5	n/a	n/a	n/a	n/a	n/a
345537	PROB	n/a	LTP197	ltpFR	9	n/a	n/a	n/a	n/a	n/a	n/a	n/a	10	1	1	8	n/a	n/a	n/a	n/a	n/a
348895	STOP	n/a	LTP197	ltpFR	9	n/a	n/a	n/a	n/a	n/a	n/a	n/a	n/a	n/a	n/a	n/a	n/a	n/a	n/a	n/a	n/a
349955	WORD	wordpools/wasnorm_wordpool_less_exclusions.txt	LTP197	ltpFR	9	2	0	JEWEL	757	n/a	n/a	0	n/a	0	0	0	0.422607421875	0.5869140625	0	upper	amplitud.ttf
352967	START	n/a	LTP197	ltpFR	9	n/a	n/a	n/a	n/a	n/a	n/a	n/a	n/a	n/a	n/a	n/a	n/a	n/a	n/a	n/a	n/a
354054	PROB	n/a	LTP197	ltpFR	9	n/a	n/a	n/a	n/a	n/a	n/a	n/a	12	1	6	5	n/a	n/a	n/a	n/a	n/a
355887	PROB	n/a	LTP197	ltpFR	9	n/a	n/a	n/a	n/a	n/a	n/a	n/a	15	4	4	7	n/a	n/a	n/a	n/a	n/a
357777	PROB	n/a	LTP197	ltpFR	9	n/a	n/a	n/a	n/a	n/a	n/a	n/a	16	1	8	7	n/a	n/a	n/a	n/a	n/a
359284	PROB	n/a	LTP197	ltpFR	9	n/a	n/a	n/a	n/a	n/a	n/a	n/a	17	2	8	7	n/a	n/a	n/a	n/a	n/a
360671	STOP	n/a	LTP197	ltpFR	9	n/a	n/a	n/a	n/a	n/a	n/a	n/a	n/a	n/a	n/a	n/a	n/a	n/a	n/a	n/a	n/a
362050	WORD	wordpools/wasnorm_wordpool_less_exclusions.txt	LTP197	ltpFR	9	2	0	SAPPHIRE	1234	n/a	n/a	0	n/a	0	0	0	0.422607421875	0.5869140625	0	upper	amplitud.ttf
365062	START	n/a	LTP197	ltpFR	9	n/a	n/a	n/a	n/a	n/a	n/a	n/a	n/a	n/a	n/a	n/a	n/a	n/a	n/a	n/a	n/a
366109	PROB	n/a	LTP197	ltpFR	9	n/a	n/a	n/a	n/a	n/a	n/a	n/a	9	3	4	2	n/a	n/a	n/a	n/a	n/a
368033	PROB	n/a	LTP197	ltpFR	9	n/a	n/a	n/a	n/a	n/a	n/a	n/a	21	9	5	7	n/a	n/a	n/a	n/a	n/a
369947	PROB	n/a	LTP197	ltpFR	9	n/a	n/a	n/a	n/a	n/a	n/a	n/a	12	7	4	1	n/a	n/a	n/a	n/a	n/a
371703	STOP	n/a	LTP197	ltpFR	9	n/a	n/a	n/a	n/a	n/a	n/a	n/a	n/a	n/a	n/a	n/a	n/a	n/a	n/a	n/a	n/a
374056	WORD	wordpools/wasnorm_wordpool_less_exclusions.txt	LTP197	ltpFR	9	2	0	CLIMBER	323	n/a	n/a	1	n/a	0	0	0	0.422607421875	0.5869140625	0	upper	amplitud.ttf
377068	START	n/a	LTP197	ltpFR	9	n/a	n/a	n/a	n/a	n/a	n/a	n/a	n/a	n/a	n/a	n/a	n/a	n/a	n/a	n/a	n/a
378144	PROB	n/a	LTP197	ltpFR	9	n/a	n/a	n/a	n/a	n/a	n/a	n/a	12	4	7	1	n/a	n/a	n/a	n/a	n/a
379432	PROB	n/a	LTP197	ltpFR	9	n/a	n/a	n/a	n/a	n/a	n/a	n/a	26	9	8	8	n/a	n/a	n/a	n/a	n/a
381623	PROB	n/a	LTP197	ltpFR	9	n/a	n/a	n/a	n/a	n/a	n/a	n/a	14	7	5	2	n/a	n/a	n/a	n/a	n/a
383130	PROB	n/a	LTP197	ltpFR	9	n/a	n/a	n/a	n/a	n/a	n/a	n/a	13	3	5	5	n/a	n/a	n/a	n/a	n/a
384799	STOP	n/a	LTP197	ltpFR	9	n/a	n/a	n/a	n/a	n/a	n/a	n/a	n/a	n/a	n/a	n/a	n/a	n/a	n/a	n/a	n/a
386135	WORD	wordpools/wasnorm_wordpool_less_exclusions.txt	LTP197	ltpFR	9	2	0	BUTTERFLY	206	n/a	n/a	0	n/a	0	0	0	0.422607421875	0.5869140625	0	upper	amplitud.ttf
389147	START	n/a	LTP197	ltpFR	9	n/a	n/a	n/a	n/a	n/a	n/a	n/a	n/a	n/a	n/a	n/a	n/a	n/a	n/a	n/a	n/a
390357	PROB	n/a	LTP197	ltpFR	9	n/a	n/a	n/a	n/a	n/a	n/a	n/a	18	7	4	7	n/a	n/a	n/a	n/a	n/a
391906	PROB	n/a	LTP197	ltpFR	9	n/a	n/a	n/a	n/a	n/a	n/a	n/a	15	9	2	4	n/a	n/a	n/a	n/a	n/a
393478	PROB	n/a	LTP197	ltpFR	9	n/a	n/a	n/a	n/a	n/a	n/a	n/a	12	1	8	3	n/a	n/a	n/a	n/a	n/a
395018	PROB	n/a	LTP197	ltpFR	9	n/a	n/a	n/a	n/a	n/a	n/a	n/a	18	6	9	4	n/a	n/a	n/a	n/a	n/a
396703	STOP	n/a	LTP197	ltpFR	9	n/a	n/a	n/a	n/a	n/a	n/a	n/a	n/a	n/a	n/a	n/a	n/a	n/a	n/a	n/a	n/a
398304	WORD	wordpools/wasnorm_wordpool_less_exclusions.txt	LTP197	ltpFR	9	2	1	SUPERVISOR	1410	n/a	n/a	1	n/a	0	0	0	0.57763671875	0.412841796875	1	lower	zerothre.ttf
401316	START	n/a	LTP197	ltpFR	9	n/a	n/a	n/a	n/a	n/a	n/a	n/a	n/a	n/a	n/a	n/a	n/a	n/a	n/a	n/a	n/a
402386	PROB	n/a	LTP197	ltpFR	9	n/a	n/a	n/a	n/a	n/a	n/a	n/a	20	9	4	7	n/a	n/a	n/a	n/a	n/a
404209	PROB	n/a	LTP197	ltpFR	9	n/a	n/a	n/a	n/a	n/a	n/a	n/a	10	6	3	1	n/a	n/a	n/a	n/a	n/a
405731	PROB	n/a	LTP197	ltpFR	9	n/a	n/a	n/a	n/a	n/a	n/a	n/a	21	8	5	8	n/a	n/a	n/a	n/a	n/a
407448	PROB	n/a	LTP197	ltpFR	9	n/a	n/a	n/a	n/a	n/a	n/a	n/a	15	2	7	6	n/a	n/a	n/a	n/a	n/a
409280	STOP	n/a	LTP197	ltpFR	9	n/a	n/a	n/a	n/a	n/a	n/a	n/a	n/a	n/a	n/a	n/a	n/a	n/a	n/a	n/a	n/a
410343	WORD	wordpools/wasnorm_wordpool_less_exclusions.txt	LTP197	ltpFR	9	2	1	CHAMPAGNE	278	n/a	n/a	0	n/a	0	0	0	0.57763671875	0.412841796875	1	lower	zerothre.ttf
413355	START	n/a	LTP197	ltpFR	9	n/a	n/a	n/a	n/a	n/a	n/a	n/a	n/a	n/a	n/a	n/a	n/a	n/a	n/a	n/a	n/a
414564	PROB	n/a	LTP197	ltpFR	9	n/a	n/a	n/a	n/a	n/a	n/a	n/a	19	6	9	4	n/a	n/a	n/a	n/a	n/a
416365	PROB	n/a	LTP197	ltpFR	9	n/a	n/a	n/a	n/a	n/a	n/a	n/a	12	2	5	5	n/a	n/a	n/a	n/a	n/a
418162	PROB	n/a	LTP197	ltpFR	9	n/a	n/a	n/a	n/a	n/a	n/a	n/a	16	7	7	2	n/a	n/a	n/a	n/a	n/a
419694	PROB	n/a	LTP197	ltpFR	9	n/a	n/a	n/a	n/a	n/a	n/a	n/a	14	3	2	9	n/a	n/a	n/a	n/a	n/a
421208	STOP	n/a	LTP197	ltpFR	9	n/a	n/a	n/a	n/a	n/a	n/a	n/a	n/a	n/a	n/a	n/a	n/a	n/a	n/a	n/a	n/a
422288	WORD	wordpools/wasnorm_wordpool_less_exclusions.txt	LTP197	ltpFR	9	2	1	CUP	424	n/a	n/a	0	n/a	0	0	0	0.57763671875	0.412841796875	1	lower	zerothre.ttf
425299	START	n/a	LTP197	ltpFR	9	n/a	n/a	n/a	n/a	n/a	n/a	n/a	n/a	n/a	n/a	n/a	n/a	n/a	n/a	n/a	n/a
426186	PROB	n/a	LTP197	ltpFR	9	n/a	n/a	n/a	n/a	n/a	n/a	n/a	16	7	6	3	n/a	n/a	n/a	n/a	n/a
427791	PROB	n/a	LTP197	ltpFR	9	n/a	n/a	n/a	n/a	n/a	n/a	n/a	5	2	1	2	n/a	n/a	n/a	n/a	n/a
429420	PROB	n/a	LTP197	ltpFR	9	n/a	n/a	n/a	n/a	n/a	n/a	n/a	11	5	5	1	n/a	n/a	n/a	n/a	n/a
430752	PROB	n/a	LTP197	ltpFR	9	n/a	n/a	n/a	n/a	n/a	n/a	n/a	9	1	4	4	n/a	n/a	n/a	n/a	n/a
432096	STOP	n/a	LTP197	ltpFR	9	n/a	n/a	n/a	n/a	n/a	n/a	n/a	n/a	n/a	n/a	n/a	n/a	n/a	n/a	n/a	n/a
435210	REC_START	n/a	LTP197	ltpFR	9	2	n/a	n/a	n/a	n/a	n/a	n/a	n/a	0	0	0	n/a	n/a	n/a	n/a	n/a
436751	REC_WORD	wordpools/wasnorm_wordpool_less_exclusions.txt	LTP197	ltpFR	9	2	1	CHAMPAGNE	278	n/a	n/a	0	n/a	0	0	0	n/a	n/a	n/a	n/a	n/a
437979	REC_WORD	wordpools/wasnorm_wordpool_less_exclusions.txt	LTP197	ltpFR	9	2	1	CUP	424	n/a	n/a	0	n/a	0	0	0	n/a	n/a	n/a	n/a	n/a
439455	REC_WORD	wordpools/wasnorm_wordpool_less_exclusions.txt	LTP197	ltpFR	9	2	1	SUPERVISOR	1410	n/a	n/a	1	n/a	0	0	0	n/a	n/a	n/a	n/a	n/a
440455	REC_WORD_VV	wordpools/wasnorm_wordpool_less_exclusions.txt	LTP197	ltpFR	9	2	n/a	<>	-1	n/a	n/a	n/a	n/a	0	0	0	n/a	n/a	n/a	n/a	n/a
440677	REC_WORD	wordpools/wasnorm_wordpool_less_exclusions.txt	LTP197	ltpFR	9	2	0	OATMEAL	967	n/a	n/a	0	n/a	0	0	0	n/a	n/a	n/a	n/a	n/a
442842	REC_WORD	wordpools/wasnorm_wordpool_less_exclusions.txt	LTP197	ltpFR	9	2	n/a	SECRETARY	1265	n/a	n/a	n/a	n/a	0	0	0	n/a	n/a	n/a	n/a	n/a
443842	REC_WORD_VV	wordpools/wasnorm_wordpool_less_exclusions.txt	LTP197	ltpFR	9	2	n/a	<>	-1	n/a	n/a	n/a	n/a	0	0	0	n/a	n/a	n/a	n/a	n/a
447622	REC_WORD	wordpools/wasnorm_wordpool_less_exclusions.txt	LTP197	ltpFR	9	2	1	STREET	1393	n/a	n/a	0	n/a	0	0	0	n/a	n/a	n/a	n/a	n/a
448420	REC_WORD	wordpools/wasnorm_wordpool_less_exclusions.txt	LTP197	ltpFR	9	2	1	ROAD	1196	n/a	n/a	0	n/a	0	0	0	n/a	n/a	n/a	n/a	n/a
449722	REC_WORD	wordpools/wasnorm_wordpool_less_exclusions.txt	LTP197	ltpFR	9	2	1	VEIN	1554	n/a	n/a	1	n/a	0	0	0	n/a	n/a	n/a	n/a	n/a
451084	REC_WORD	wordpools/wasnorm_wordpool_less_exclusions.txt	LTP197	ltpFR	9	2	0	JEWEL	757	n/a	n/a	0	n/a	0	0	0	n/a	n/a	n/a	n/a	n/a
451652	REC_WORD	wordpools/wasnorm_wordpool_less_exclusions.txt	LTP197	ltpFR	9	2	0	SAPPHIRE	1234	n/a	n/a	0	n/a	0	0	0	n/a	n/a	n/a	n/a	n/a
452770	REC_WORD	wordpools/wasnorm_wordpool_less_exclusions.txt	LTP197	ltpFR	9	2	1	EAGLE	512	n/a	n/a	1	n/a	0	0	0	n/a	n/a	n/a	n/a	n/a
460846	REC_WORD	wordpools/wasnorm_wordpool_less_exclusions.txt	LTP197	ltpFR	9	2	1	RECEPTIONIST	1174	n/a	n/a	0	n/a	0	0	0	n/a	n/a	n/a	n/a	n/a
461846	REC_WORD_VV	wordpools/wasnorm_wordpool_less_exclusions.txt	LTP197	ltpFR	9	2	n/a	<>	-1	n/a	n/a	n/a	n/a	0	0	0	n/a	n/a	n/a	n/a	n/a
518455	WORD	wordpools/wasnorm_wordpool_less_exclusions.txt	LTP197	ltpFR	9	3	1	BEAVER	109	n/a	n/a	1	n/a	0	0	0	0.57763671875	0.412841796875	1	lower	zerothre.ttf
522287	WORD	wordpools/wasnorm_wordpool_less_exclusions.txt	LTP197	ltpFR	9	3	1	MAMMAL	861	n/a	n/a	1	n/a	0	0	0	0.57763671875	0.412841796875	1	lower	zerothre.ttf
526186	WORD	wordpools/wasnorm_wordpool_less_exclusions.txt	LTP197	ltpFR	9	3	1	UNICORN	1538	n/a	n/a	1	n/a	0	0	0	0.57763671875	0.412841796875	1	lower	zerothre.ttf
530311	WORD	wordpools/wasnorm_wordpool_less_exclusions.txt	LTP197	ltpFR	9	3	1	ANIMAL	23	n/a	n/a	1	n/a	0	0	0	0.57763671875	0.412841796875	1	lower	zerothre.ttf
534276	WORD	wordpools/wasnorm_wordpool_less_exclusions.txt	LTP197	ltpFR	9	3	1	BLUEPRINT	142	n/a	n/a	0	n/a	0	0	0	0.57763671875	0.412841796875	1	lower	zerothre.ttf
538359	WORD	wordpools/wasnorm_wordpool_less_exclusions.txt	LTP197	ltpFR	9	3	1	IDOL	733	n/a	n/a	1	n/a	0	0	0	0.57763671875	0.412841796875	1	lower	zerothre.ttf
542397	WORD	wordpools/wasnorm_wordpool_less_exclusions.txt	LTP197	ltpFR	9	3	1	UNIFORM	1539	n/a	n/a	0	n/a	0	0	0	0.57763671875	0.412841796875	1	lower	zerothre.ttf
546555	WORD	wordpools/wasnorm_wordpool_less_exclusions.txt	LTP197	ltpFR	9	3	1	WINDSHIELD	1612	n/a	n/a	0	n/a	0	0	0	0.57763671875	0.412841796875	1	lower	zerothre.ttf
550587	WORD	wordpools/wasnorm_wordpool_less_exclusions.txt	LTP197	ltpFR	9	3	1	TURNIP	1521	n/a	n/a	1	n/a	0	0	0	0.57763671875	0.412841796875	1	lower	zerothre.ttf
554441	WORD	wordpools/wasnorm_wordpool_less_exclusions.txt	LTP197	ltpFR	9	3	1	STEM	1376	n/a	n/a	1	n/a	0	0	0	0.57763671875	0.412841796875	1	lower	zerothre.ttf
558617	WORD	wordpools/wasnorm_wordpool_less_exclusions.txt	LTP197	ltpFR	9	3	1	DOLL	481	n/a	n/a	0	n/a	0	0	0	0.57763671875	0.412841796875	1	lower	zerothre.ttf
562655	WORD	wordpools/wasnorm_wordpool_less_exclusions.txt	LTP197	ltpFR	9	3	1	RATTLE	1170	n/a	n/a	0	n/a	0	0	0	0.57763671875	0.412841796875	1	lower	zerothre.ttf
566737	WORD	wordpools/wasnorm_wordpool_less_exclusions.txt	LTP197	ltpFR	9	3	1	DOOR	486	n/a	n/a	0	n/a	0	0	0	0.57763671875	0.412841796875	1	lower	zerothre.ttf
570619	WORD	wordpools/wasnorm_wordpool_less_exclusions.txt	LTP197	ltpFR	9	3	1	LAGOON	795	n/a	n/a	1	n/a	0	0	0	0.57763671875	0.412841796875	1	lower	zerothre.ttf
574717	WORD	wordpools/wasnorm_wordpool_less_exclusions.txt	LTP197	ltpFR	9	3	1	BUREAU	199	n/a	n/a	0	n/a	0	0	0	0.57763671875	0.412841796875	1	lower	zerothre.ttf
578699	WORD	wordpools/wasnorm_wordpool_less_exclusions.txt	LTP197	ltpFR	9	3	1	BUS	201	n/a	n/a	0	n/a	0	0	0	0.57763671875	0.412841796875	1	lower	zerothre.ttf
581711	START	n/a	LTP197	ltpFR	9	n/a	n/a	n/a	n/a	n/a	n/a	n/a	n/a	n/a	n/a	n/a	n/a	n/a	n/a	n/a	n/a
582675	PROB	n/a	LTP197	ltpFR	9	n/a	n/a	n/a	n/a	n/a	n/a	n/a	11	9	1	1	n/a	n/a	n/a	n/a	n/a
584338	PROB	n/a	LTP197	ltpFR	9	n/a	n/a	n/a	n/a	n/a	n/a	n/a	11	3	6	2	n/a	n/a	n/a	n/a	n/a
585920	PROB	n/a	LTP197	ltpFR	9	n/a	n/a	n/a	n/a	n/a	n/a	n/a	16	2	7	9	n/a	n/a	n/a	n/a	n/a
587962	PROB	n/a	LTP197	ltpFR	9	n/a	n/a	n/a	n/a	n/a	n/a	n/a	8	5	1	2	n/a	n/a	n/a	n/a	n/a
589908	PROB	n/a	LTP197	ltpFR	9	n/a	n/a	n/a	n/a	n/a	n/a	n/a	6	1	4	1	n/a	n/a	n/a	n/a	n/a
591275	PROB	n/a	LTP197	ltpFR	9	n/a	n/a	n/a	n/a	n/a	n/a	n/a	9	4	2	3	n/a	n/a	n/a	n/a	n/a
592679	PROB	n/a	LTP197	ltpFR	9	n/a	n/a	n/a	n/a	n/a	n/a	n/a	11	4	2	5	n/a	n/a	n/a	n/a	n/a
594225	PROB	n/a	LTP197	ltpFR	9	n/a	n/a	n/a	n/a	n/a	n/a	n/a	10	1	1	8	n/a	n/a	n/a	n/a	n/a
596607	STOP	n/a	LTP197	ltpFR	9	n/a	n/a	n/a	n/a	n/a	n/a	n/a	n/a	n/a	n/a	n/a	n/a	n/a	n/a	n/a	n/a
599539	REC_START	n/a	LTP197	ltpFR	9	3	n/a	n/a	n/a	n/a	n/a	n/a	n/a	0	0	0	n/a	n/a	n/a	n/a	n/a
600985	REC_WORD	wordpools/wasnorm_wordpool_less_exclusions.txt	LTP197	ltpFR	9	3	1	BEAVER	109	n/a	n/a	1	n/a	0	0	0	n/a	n/a	n/a	n/a	n/a
601637	REC_WORD_VV	wordpools/wasnorm_wordpool_less_exclusions.txt	LTP197	ltpFR	9	3	n/a	<>	-1	n/a	n/a	n/a	n/a	0	0	0	n/a	n/a	n/a	n/a	n/a
602407	REC_WORD	wordpools/wasnorm_wordpool_less_exclusions.txt	LTP197	ltpFR	9	3	1	UNICORN	1538	n/a	n/a	1	n/a	0	0	0	n/a	n/a	n/a	n/a	n/a
603784	REC_WORD	wordpools/wasnorm_wordpool_less_exclusions.txt	LTP197	ltpFR	9	3	1	UNIFORM	1539	n/a	n/a	0	n/a	0	0	0	n/a	n/a	n/a	n/a	n/a
605136	REC_WORD	wordpools/wasnorm_wordpool_less_exclusions.txt	LTP197	ltpFR	9	3	1	MAMMAL	861	n/a	n/a	1	n/a	0	0	0	n/a	n/a	n/a	n/a	n/a
605834	REC_WORD	wordpools/wasnorm_wordpool_less_exclusions.txt	LTP197	ltpFR	9	3	1	ANIMAL	23	n/a	n/a	1	n/a	0	0	0	n/a	n/a	n/a	n/a	n/a
608713	REC_WORD	wordpools/wasnorm_wordpool_less_exclusions.txt	LTP197	ltpFR	9	3	1	UNIFORM	1539	n/a	n/a	0	n/a	0	0	0	n/a	n/a	n/a	n/a	n/a
609713	REC_WORD_VV	wordpools/wasnorm_wordpool_less_exclusions.txt	LTP197	ltpFR	9	3	n/a	<>	-1	n/a	n/a	n/a	n/a	0	0	0	n/a	n/a	n/a	n/a	n/a
613113	REC_WORD	wordpools/wasnorm_wordpool_less_exclusions.txt	LTP197	ltpFR	9	3	1	TURNIP	1521	n/a	n/a	1	n/a	0	0	0	n/a	n/a	n/a	n/a	n/a
613746	REC_WORD	wordpools/wasnorm_wordpool_less_exclusions.txt	LTP197	ltpFR	9	3	1	STEM	1376	n/a	n/a	1	n/a	0	0	0	n/a	n/a	n/a	n/a	n/a
614804	REC_WORD	wordpools/wasnorm_wordpool_less_exclusions.txt	LTP197	ltpFR	9	3	1	BLUEPRINT	142	n/a	n/a	0	n/a	0	0	0	n/a	n/a	n/a	n/a	n/a
618496	REC_WORD	wordpools/wasnorm_wordpool_less_exclusions.txt	LTP197	ltpFR	9	3	1	IDOL	733	n/a	n/a	1	n/a	0	0	0	n/a	n/a	n/a	n/a	n/a
621528	REC_WORD	wordpools/wasnorm_wordpool_less_exclusions.txt	LTP197	ltpFR	9	3	1	LAGOON	795	n/a	n/a	1	n/a	0	0	0	n/a	n/a	n/a	n/a	n/a
622891	REC_WORD	wordpools/wasnorm_wordpool_less_exclusions.txt	LTP197	ltpFR	9	3	1	WINDSHIELD	1612	n/a	n/a	0	n/a	0	0	0	n/a	n/a	n/a	n/a	n/a
623958	REC_WORD	wordpools/wasnorm_wordpool_less_exclusions.txt	LTP197	ltpFR	9	3	1	DOLL	481	n/a	n/a	0	n/a	0	0	0	n/a	n/a	n/a	n/a	n/a
624707	REC_WORD	wordpools/wasnorm_wordpool_less_exclusions.txt	LTP197	ltpFR	9	3	1	RATTLE	1170	n/a	n/a	0	n/a	0	0	0	n/a	n/a	n/a	n/a	n/a
625924	REC_WORD	wordpools/wasnorm_wordpool_less_exclusions.txt	LTP197	ltpFR	9	3	1	BUS	201	n/a	n/a	0	n/a	0	0	0	n/a	n/a	n/a	n/a	n/a
628114	REC_WORD	wordpools/wasnorm_wordpool_less_exclusions.txt	LTP197	ltpFR	9	3	1	DOOR	486	n/a	n/a	0	n/a	0	0	0	n/a	n/a	n/a	n/a	n/a
630458	REC_WORD	wordpools/wasnorm_wordpool_less_exclusions.txt	LTP197	ltpFR	9	3	1	BUREAU	199	n/a	n/a	0	n/a	0	0	0	n/a	n/a	n/a	n/a	n/a
678776	WORD	wordpools/wasnorm_wordpool_less_exclusions.txt	LTP197	ltpFR	9	4	1	FRIEND	606	n/a	n/a	1	n/a	0	0	0	0.57763671875	0.412841796875	1	lower	zerothre.ttf
682819	WORD	wordpools/wasnorm_wordpool_less_exclusions.txt	LTP197	ltpFR	9	4	1	SEAL	1262	n/a	n/a	1	n/a	0	0	0	0.57763671875	0.412841796875	1	lower	zerothre.ttf
686790	WORD	wordpools/wasnorm_wordpool_less_exclusions.txt	LTP197	ltpFR	9	4	0	WASHCLOTH	1591	n/a	n/a	0	n/a	0	0	0	0.422607421875	0.5869140625	0	upper	amplitud.ttf
690805	WORD	wordpools/wasnorm_wordpool_less_exclusions.txt	LTP197	ltpFR	9	4	0	RAG	1160	n/a	n/a	0	n/a	0	0	0	0.422607421875	0.5869140625	0	upper	amplitud.ttf
694703	WORD	wordpools/wasnorm_wordpool_less_exclusions.txt	LTP197	ltpFR	9	4	1	MAILMAN	858	n/a	n/a	1	n/a	0	0	0	0.57763671875	0.412841796875	1	lower	zerothre.ttf
698812	WORD	wordpools/wasnorm_wordpool_less_exclusions.txt	LTP197	ltpFR	9	4	1	STEW	1380	n/a	n/a	0	n/a	0	0	0	0.57763671875	0.412841796875	1	lower	zerothre.ttf
702733	WORD	wordpools/wasnorm_wordpool_less_exclusions.txt	LTP197	ltpFR	9	4	1	CARROT	249	n/a	n/a	0	n/a	0	0	0	0.57763671875	0.412841796875	1	lower	zerothre.ttf
706882	WORD	wordpools/wasnorm_wordpool_less_exclusions.txt	LTP197	ltpFR	9	4	1	SPICE	1350	n/a	n/a	1	n/a	0	0	0	0.57763671875	0.412841796875	1	lower	zerothre.ttf
710797	WORD	wordpools/wasnorm_wordpool_less_exclusions.txt	LTP197	ltpFR	9	4	1	DRAGON	492	n/a	n/a	1	n/a	0	0	0	0.57763671875	0.412841796875	1	lower	zerothre.ttf
714689	WORD	wordpools/wasnorm_wordpool_less_exclusions.txt	LTP197	ltpFR	9	4	1	CHECKERS	285	n/a	n/a	0	n/a	0	0	0	0.57763671875	0.412841796875	1	lower	zerothre.ttf
718744	WORD	wordpools/wasnorm_wordpool_less_exclusions.txt	LTP197	ltpFR	9	4	0	DOUGH	489	n/a	n/a	0	n/a	0	0	0	0.422607421875	0.5869140625	0	upper	amplitud.ttf
722602	WORD	wordpools/wasnorm_wordpool_less_exclusions.txt	LTP197	ltpFR	9	4	0	GARLIC	624	n/a	n/a	0	n/a	0	0	0	0.422607421875	0.5869140625	0	upper	amplitud.ttf
726790	WORD	wordpools/wasnorm_wordpool_less_exclusions.txt	LTP197	ltpFR	9	4	0	HARE	688	n/a	n/a	0	n/a	0	0	0	0.422607421875	0.5869140625	0	upper	amplitud.ttf
730806	WORD	wordpools/wasnorm_wordpool_less_exclusions.txt	LTP197	ltpFR	9	4	0	FREEZER	604	n/a	n/a	1	n/a	0	0	0	0.422607421875	0.5869140625	0	upper	amplitud.ttf
735000	WORD	wordpools/wasnorm_wordpool_less_exclusions.txt	LTP197	ltpFR	9	4	0	SALT	1229	n/a	n/a	0	n/a	0	0	0	0.422607421875	0.5869140625	0	upper	amplitud.ttf
739031	WORD	wordpools/wasnorm_wordpool_less_exclusions.txt	LTP197	ltpFR	9	4	0	STEAM	1375	n/a	n/a	0	n/a	0	0	0	0.422607421875	0.5869140625	0	upper	amplitud.ttf
744926	REC_START	n/a	LTP197	ltpFR	9	4	n/a	n/a	n/a	n/a	n/a	n/a	n/a	0	0	0	n/a	n/a	n/a	n/a	n/a
746161	REC_WORD	wordpools/wasnorm_wordpool_less_exclusions.txt	LTP197	ltpFR	9	4	0	STEAM	1375	n/a	n/a	0	n/a	0	0	0	n/a	n/a	n/a	n/a	n/a
747295	REC_WORD	wordpools/wasnorm_wordpool_less_exclusions.txt	LTP197	ltpFR	9	4	0	GARLIC	624	n/a	n/a	0	n/a	0	0	0	n/a	n/a	n/a	n/a	n/a
748403	REC_WORD	wordpools/wasnorm_wordpool_less_exclusions.txt	LTP197	ltpFR	9	4	1	SPICE	1350	n/a	n/a	1	n/a	0	0	0	n/a	n/a	n/a	n/a	n/a
749061	REC_WORD	wordpools/wasnorm_wordpool_less_exclusions.txt	LTP197	ltpFR	9	4	0	SALT	1229	n/a	n/a	0	n/a	0	0	0	n/a	n/a	n/a	n/a	n/a
749969	REC_WORD	wordpools/wasnorm_wordpool_less_exclusions.txt	LTP197	ltpFR	9	4	1	STEW	1380	n/a	n/a	0	n/a	0	0	0	n/a	n/a	n/a	n/a	n/a
750758	REC_WORD	wordpools/wasnorm_wordpool_less_exclusions.txt	LTP197	ltpFR	9	4	1	CARROT	249	n/a	n/a	0	n/a	0	0	0	n/a	n/a	n/a	n/a	n/a
752454	REC_WORD	wordpools/wasnorm_wordpool_less_exclusions.txt	LTP197	ltpFR	9	4	0	DOUGH	489	n/a	n/a	0	n/a	0	0	0	n/a	n/a	n/a	n/a	n/a
753975	REC_WORD	wordpools/wasnorm_wordpool_less_exclusions.txt	LTP197	ltpFR	9	4	0	RAG	1160	n/a	n/a	0	n/a	0	0	0	n/a	n/a	n/a	n/a	n/a
754584	REC_WORD	wordpools/wasnorm_wordpool_less_exclusions.txt	LTP197	ltpFR	9	4	0	WASHCLOTH	1591	n/a	n/a	0	n/a	0	0	0	n/a	n/a	n/a	n/a	n/a
755990	REC_WORD	wordpools/wasnorm_wordpool_less_exclusions.txt	LTP197	ltpFR	9	4	1	FRIEND	606	n/a	n/a	1	n/a	0	0	0	n/a	n/a	n/a	n/a	n/a
760016	REC_WORD	wordpools/wasnorm_wordpool_less_exclusions.txt	LTP197	ltpFR	9	4	1	SEAL	1262	n/a	n/a	1	n/a	0	0	0	n/a	n/a	n/a	n/a	n/a
760875	REC_WORD	wordpools/wasnorm_wordpool_less_exclusions.txt	LTP197	ltpFR	9	4	1	DRAGON	492	n/a	n/a	1	n/a	0	0	0	n/a	n/a	n/a	n/a	n/a
761947	REC_WORD	wordpools/wasnorm_wordpool_less_exclusions.txt	LTP197	ltpFR	9	4	0	HARE	688	n/a	n/a	0	n/a	0	0	0	n/a	n/a	n/a	n/a	n/a
763429	REC_WORD	wordpools/wasnorm_wordpool_less_exclusions.txt	LTP197	ltpFR	9	4	1	CHECKERS	285	n/a	n/a	0	n/a	0	0	0	n/a	n/a	n/a	n/a	n/a
783173	REC_WORD	wordpools/wasnorm_wordpool_less_exclusions.txt	LTP197	ltpFR	9	4	0	FREEZER	604	n/a	n/a	1	n/a	0	0	0	n/a	n/a	n/a	n/a	n/a
830376	WORD	wordpools/wasnorm_wordpool_less_exclusions.txt	LTP197	ltpFR	9	5	1	WARDROBE	1587	n/a	n/a	1	n/a	0	0	0	0.57763671875	0.412841796875	1	lower	zerothre.ttf
834196	WORD	wordpools/wasnorm_wordpool_less_exclusions.txt	LTP197	ltpFR	9	5	1	WATER	1594	n/a	n/a	0	n/a	0	0	0	0.57763671875	0.412841796875	1	lower	zerothre.ttf
838255	WORD	wordpools/wasnorm_wordpool_less_exclusions.txt	LTP197	ltpFR	9	5	1	ATTORNEY	58	n/a	n/a	1	n/a	0	0	0	0.57763671875	0.412841796875	1	lower	zerothre.ttf
842454	WORD	wordpools/wasnorm_wordpool_less_exclusions.txt	LTP197	ltpFR	9	5	1	JUDGE	761	n/a	n/a	1	n/a	0	0	0	0.57763671875	0.412841796875	1	lower	zerothre.ttf
846403	WORD	wordpools/wasnorm_wordpool_less_exclusions.txt	LTP197	ltpFR	9	5	1	DETERGENT	455	n/a	n/a	0	n/a	0	0	0	0.57763671875	0.412841796875	1	lower	zerothre.ttf
850351	WORD	wordpools/wasnorm_wordpool_less_exclusions.txt	LTP197	ltpFR	9	5	1	ENCYCLOPEDIA	533	n/a	n/a	0	n/a	0	0	0	0.57763671875	0.412841796875	1	lower	zerothre.ttf
854372	WORD	wordpools/wasnorm_wordpool_less_exclusions.txt	LTP197	ltpFR	9	5	1	MONASTERY	907	n/a	n/a	0	n/a	0	0	0	0.57763671875	0.412841796875	1	lower	zerothre.ttf
858514	WORD	wordpools/wasnorm_wordpool_less_exclusions.txt	LTP197	ltpFR	9	5	1	BASKETBALL	96	n/a	n/a	0	n/a	0	0	0	0.57763671875	0.412841796875	1	lower	zerothre.ttf
862696	WORD	wordpools/wasnorm_wordpool_less_exclusions.txt	LTP197	ltpFR	9	5	1	ROOT	1210	n/a	n/a	1	n/a	0	0	0	0.57763671875	0.412841796875	1	lower	zerothre.ttf
866595	WORD	wordpools/wasnorm_wordpool_less_exclusions.txt	LTP197	ltpFR	9	5	1	GAZELLE	628	n/a	n/a	1	n/a	0	0	0	0.57763671875	0.412841796875	1	lower	zerothre.ttf
870693	WORD	wordpools/wasnorm_wordpool_less_exclusions.txt	LTP197	ltpFR	9	5	1	RAM	1165	n/a	n/a	1	n/a	0	0	0	0.57763671875	0.412841796875	1	lower	zerothre.ttf
874708	WORD	wordpools/wasnorm_wordpool_less_exclusions.txt	LTP197	ltpFR	9	5	1	MOUSE	925	n/a	n/a	1	n/a	0	0	0	0.57763671875	0.412841796875	1	lower	zerothre.ttf
878713	WORD	wordpools/wasnorm_wordpool_less_exclusions.txt	LTP197	ltpFR	9	5	1	POSSUM	1112	n/a	n/a	1	n/a	0	0	0	0.57763671875	0.412841796875	1	lower	zerothre.ttf
882688	WORD	wordpools/wasnorm_wordpool_less_exclusions.txt	LTP197	ltpFR	9	5	1	ATTIC	56	n/a	n/a	0	n/a	0	0	0	0.57763671875	0.412841796875	1	lower	zerothre.ttf
886743	WORD	wordpools/wasnorm_wordpool_less_exclusions.txt	LTP197	ltpFR	9	5	1	BOOK	149	n/a	n/a	0	n/a	0	0	0	0.57763671875	0.412841796875	1	lower	zerothre.ttf
890658	WORD	wordpools/wasnorm_wordpool_less_exclusions.txt	LTP197	ltpFR	9	5	1	BARLEY	88	n/a	n/a	1	n/a	0	0	0	0.57763671875	0.412841796875	1	lower	zerothre.ttf
893670	START	n/a	LTP197	ltpFR	9	n/a	n/a	n/a	n/a	n/a	n/a	n/a	n/a	n/a	n/a	n/a	n/a	n/a	n/a	n/a	n/a
894606	PROB	n/a	LTP197	ltpFR	9	n/a	n/a	n/a	n/a	n/a	n/a	n/a	17	7	3	7	n/a	n/a	n/a	n/a	n/a
897016	PROB	n/a	LTP197	ltpFR	9	n/a	n/a	n/a	n/a	n/a	n/a	n/a	17	4	4	9	n/a	n/a	n/a	n/a	n/a
898766	PROB	n/a	LTP197	ltpFR	9	n/a	n/a	n/a	n/a	n/a	n/a	n/a	7	1	1	5	n/a	n/a	n/a	n/a	n/a
901670	STOP	n/a	LTP197	ltpFR	9	n/a	n/a	n/a	n/a	n/a	n/a	n/a	n/a	n/a	n/a	n/a	n/a	n/a	n/a	n/a	n/a
903601	REC_START	n/a	LTP197	ltpFR	9	5	n/a	n/a	n/a	n/a	n/a	n/a	n/a	0	0	0	n/a	n/a	n/a	n/a	n/a
905077	REC_WORD	wordpools/wasnorm_wordpool_less_exclusions.txt	LTP197	ltpFR	9	5	1	JUDGE	761	n/a	n/a	1	n/a	0	0	0	n/a	n/a	n/a	n/a	n/a
905835	REC_WORD	wordpools/wasnorm_wordpool_less_exclusions.txt	LTP197	ltpFR	9	5	1	ATTORNEY	58	n/a	n/a	1	n/a	0	0	0	n/a	n/a	n/a	n/a	n/a
906823	REC_WORD	wordpools/wasnorm_wordpool_less_exclusions.txt	LTP197	ltpFR	9	5	1	WARDROBE	1587	n/a	n/a	1	n/a	0	0	0	n/a	n/a	n/a	n/a	n/a
907673	REC_WORD	wordpools/wasnorm_wordpool_less_exclusions.txt	LTP197	ltpFR	9	5	1	WATER	1594	n/a	n/a	0	n/a	0	0	0	n/a	n/a	n/a	n/a	n/a
908834	REC_WORD	wordpools/wasnorm_wordpool_less_exclusions.txt	LTP197	ltpFR	9	5	1	DETERGENT	455	n/a	n/a	0	n/a	0	0	0	n/a	n/a	n/a	n/a	n/a
910914	REC_WORD	wordpools/wasnorm_wordpool_less_exclusions.txt	LTP197	ltpFR	9	5	1	MONASTERY	907	n/a	n/a	0	n/a	0	0	0	n/a	n/a	n/a	n/a	n/a
911947	REC_WORD	wordpools/wasnorm_wordpool_less_exclusions.txt	LTP197	ltpFR	9	5	1	ATTIC	56	n/a	n/a	0	n/a	0	0	0	n/a	n/a	n/a	n/a	n/a
913039	REC_WORD	wordpools/wasnorm_wordpool_less_exclusions.txt	LTP197	ltpFR	9	5	1	BASKETBALL	96	n/a	n/a	0	n/a	0	0	0	n/a	n/a	n/a	n/a	n/a
914721	REC_WORD	wordpools/wasnorm_wordpool_less_exclusions.txt	LTP197	ltpFR	9	5	1	GAZELLE	628	n/a	n/a	1	n/a	0	0	0	n/a	n/a	n/a	n/a	n/a
915324	REC_WORD	wordpools/wasnorm_wordpool_less_exclusions.txt	LTP197	ltpFR	9	5	1	RAM	1165	n/a	n/a	1	n/a	0	0	0	n/a	n/a	n/a	n/a	n/a
916112	REC_WORD	wordpools/wasnorm_wordpool_less_exclusions.txt	LTP197	ltpFR	9	5	1	POSSUM	1112	n/a	n/a	1	n/a	0	0	0	n/a	n/a	n/a	n/a	n/a
917060	REC_WORD	wordpools/wasnorm_wordpool_less_exclusions.txt	LTP197	ltpFR	9	5	1	MOUSE	925	n/a	n/a	1	n/a	0	0	0	n/a	n/a	n/a	n/a	n/a
917759	REC_WORD	wordpools/wasnorm_wordpool_less_exclusions.txt	LTP197	ltpFR	9	5	1	ROOT	1210	n/a	n/a	1	n/a	0	0	0	n/a	n/a	n/a	n/a	n/a
918572	REC_WORD	wordpools/wasnorm_wordpool_less_exclusions.txt	LTP197	ltpFR	9	5	1	BARLEY	88	n/a	n/a	1	n/a	0	0	0	n/a	n/a	n/a	n/a	n/a
923111	REC_WORD	wordpools/wasnorm_wordpool_less_exclusions.txt	LTP197	ltpFR	9	5	1	ENCYCLOPEDIA	533	n/a	n/a	0	n/a	0	0	0	n/a	n/a	n/a	n/a	n/a
924234	REC_WORD	wordpools/wasnorm_wordpool_less_exclusions.txt	LTP197	ltpFR	9	5	1	BOOK	149	n/a	n/a	0	n/a	0	0	0	n/a	n/a	n/a	n/a	n/a
1001979	START	n/a	LTP197	ltpFR	9	n/a	n/a	n/a	n/a	n/a	n/a	n/a	n/a	n/a	n/a	n/a	n/a	n/a	n/a	n/a	n/a
1003500	PROB	n/a	LTP197	ltpFR	9	n/a	n/a	n/a	n/a	n/a	n/a	n/a	20	5	7	8	n/a	n/a	n/a	n/a	n/a
1005937	PROB	n/a	LTP197	ltpFR	9	n/a	n/a	n/a	n/a	n/a	n/a	n/a	10	6	1	3	n/a	n/a	n/a	n/a	n/a
1008095	PROB	n/a	LTP197	ltpFR	9	n/a	n/a	n/a	n/a	n/a	n/a	n/a	17	9	7	1	n/a	n/a	n/a	n/a	n/a
1010443	PROB	n/a	LTP197	ltpFR	9	n/a	n/a	n/a	n/a	n/a	n/a	n/a	17	3	6	8	n/a	n/a	n/a	n/a	n/a
1012077	PROB	n/a	LTP197	ltpFR	9	n/a	n/a	n/a	n/a	n/a	n/a	n/a	10	6	2	2	n/a	n/a	n/a	n/a	n/a
1013906	PROB	n/a	LTP197	ltpFR	9	n/a	n/a	n/a	n/a	n/a	n/a	n/a	9	3	4	3	n/a	n/a	n/a	n/a	n/a
1015439	PROB	n/a	LTP197	ltpFR	9	n/a	n/a	n/a	n/a	n/a	n/a	n/a	12	6	3	3	n/a	n/a	n/a	n/a	n/a
1017048	STOP	n/a	LTP197	ltpFR	9	n/a	n/a	n/a	n/a	n/a	n/a	n/a	n/a	n/a	n/a	n/a	n/a	n/a	n/a	n/a	n/a
1019026	WORD	wordpools/wasnorm_wordpool_less_exclusions.txt	LTP197	ltpFR	9	6	0	NET	946	n/a	n/a	0	n/a	0	0	0	0.422607421875	0.5869140625	0	upper	amplitud.ttf
1022038	START	n/a	LTP197	ltpFR	9	n/a	n/a	n/a	n/a	n/a	n/a	n/a	n/a	n/a	n/a	n/a	n/a	n/a	n/a	n/a	n/a
1023018	PROB	n/a	LTP197	ltpFR	9	n/a	n/a	n/a	n/a	n/a	n/a	n/a	14	4	3	7	n/a	n/a	n/a	n/a	n/a
1024763	PROB	n/a	LTP197	ltpFR	9	n/a	n/a	n/a	n/a	n/a	n/a	n/a	21	8	7	6	n/a	n/a	n/a	n/a	n/a
1026631	PROB	n/a	LTP197	ltpFR	9	n/a	n/a	n/a	n/a	n/a	n/a	n/a	19	3	8	8	n/a	n/a	n/a	n/a	n/a
1028421	PROB	n/a	LTP197	ltpFR	9	n/a	n/a	n/a	n/a	n/a	n/a	n/a	21	8	7	6	n/a	n/a	n/a	n/a	n/a
1030369	PROB	n/a	LTP197	ltpFR	9	n/a	n/a	n/a	n/a	n/a	n/a	n/a	19	7	7	5	n/a	n/a	n/a	n/a	n/a
1033163	PROB	n/a	LTP197	ltpFR	9	n/a	n/a	n/a	n/a	n/a	n/a	n/a	16	4	5	7	n/a	n/a	n/a	n/a	n/a
1035354	PROB	n/a	LTP197	ltpFR	9	n/a	n/a	n/a	n/a	n/a	n/a	n/a	19	6	8	5	n/a	n/a	n/a	n/a	n/a
1037536	STOP	n/a	LTP197	ltpFR	9	n/a	n/a	n/a	n/a	n/a	n/a	n/a	n/a	n/a	n/a	n/a	n/a	n/a	n/a	n/a	n/a
1038945	WORD	wordpools/wasnorm_wordpool_less_exclusions.txt	LTP197	ltpFR	9	6	0	SARDINE	1235	n/a	n/a	0	n/a	0	0	0	0.422607421875	0.5869140625	0	upper	amplitud.ttf
1041957	START	n/a	LTP197	ltpFR	9	n/a	n/a	n/a	n/a	n/a	n/a	n/a	n/a	n/a	n/a	n/a	n/a	n/a	n/a	n/a	n/a
1042926	PROB	n/a	LTP197	ltpFR	9	n/a	n/a	n/a	n/a	n/a	n/a	n/a	11	1	3	7	n/a	n/a	n/a	n/a	n/a
1044431	PROB	n/a	LTP197	ltpFR	9	n/a	n/a	n/a	n/a	n/a	n/a	n/a	11	3	5	4	n/a	n/a	n/a	n/a	n/a
1046612	PROB	n/a	LTP197	ltpFR	9	n/a	n/a	n/a	n/a	n/a	n/a	n/a	13	4	8	1	n/a	n/a	n/a	n/a	n/a
1048086	PROB	n/a	LTP197	ltpFR	9	n/a	n/a	n/a	n/a	n/a	n/a	n/a	12	4	2	6	n/a	n/a	n/a	n/a	n/a
1051041	PROB	n/a	LTP197	ltpFR	9	n/a	n/a	n/a	n/a	n/a	n/a	n/a	12	7	4	1	n/a	n/a	n/a	n/a	n/a
1052512	PROB	n/a	LTP197	ltpFR	9	n/a	n/a	n/a	n/a	n/a	n/a	n/a	16	5	9	2	n/a	n/a	n/a	n/a	n/a
1054292	PROB	n/a	LTP197	ltpFR	9	n/a	n/a	n/a	n/a	n/a	n/a	n/a	18	9	7	2	n/a	n/a	n/a	n/a	n/a
1056283	PROB	n/a	LTP197	ltpFR	9	n/a	n/a	n/a	n/a	n/a	n/a	n/a	19	7	4	8	n/a	n/a	n/a	n/a	n/a
1057879	STOP	n/a	LTP197	ltpFR	9	n/a	n/a	n/a	n/a	n/a	n/a	n/a	n/a	n/a	n/a	n/a	n/a	n/a	n/a	n/a	n/a
1058836	WORD	wordpools/wasnorm_wordpool_less_exclusions.txt	LTP197	ltpFR	9	6	0	MOAT	903	n/a	n/a	1	n/a	0	0	0	0.422607421875	0.5869140625	0	upper	amplitud.ttf
1061854	START	n/a	LTP197	ltpFR	9	n/a	n/a	n/a	n/a	n/a	n/a	n/a	n/a	n/a	n/a	n/a	n/a	n/a	n/a	n/a	n/a
1062807	PROB	n/a	LTP197	ltpFR	9	n/a	n/a	n/a	n/a	n/a	n/a	n/a	15	3	9	3	n/a	n/a	n/a	n/a	n/a
1064490	PROB	n/a	LTP197	ltpFR	9	n/a	n/a	n/a	n/a	n/a	n/a	n/a	13	9	3	1	n/a	n/a	n/a	n/a	n/a
1066281	PROB	n/a	LTP197	ltpFR	9	n/a	n/a	n/a	n/a	n/a	n/a	n/a	15	1	7	7	n/a	n/a	n/a	n/a	n/a
1067819	PROB	n/a	LTP197	ltpFR	9	n/a	n/a	n/a	n/a	n/a	n/a	n/a	16	3	4	9	n/a	n/a	n/a	n/a	n/a
1070045	PROB	n/a	LTP197	ltpFR	9	n/a	n/a	n/a	n/a	n/a	n/a	n/a	15	8	3	4	n/a	n/a	n/a	n/a	n/a
1071824	PROB	n/a	LTP197	ltpFR	9	n/a	n/a	n/a	n/a	n/a	n/a	n/a	15	6	6	3	n/a	n/a	n/a	n/a	n/a
1073497	PROB	n/a	LTP197	ltpFR	9	n/a	n/a	n/a	n/a	n/a	n/a	n/a	15	1	9	5	n/a	n/a	n/a	n/a	n/a
1074852	PROB	n/a	LTP197	ltpFR	9	n/a	n/a	n/a	n/a	n/a	n/a	n/a	7	3	1	3	n/a	n/a	n/a	n/a	n/a
1077400	STOP	n/a	LTP197	ltpFR	9	n/a	n/a	n/a	n/a	n/a	n/a	n/a	n/a	n/a	n/a	n/a	n/a	n/a	n/a	n/a	n/a
1078918	WORD	wordpools/wasnorm_wordpool_less_exclusions.txt	LTP197	ltpFR	9	6	1	CABIN	211	n/a	n/a	0	n/a	0	0	0	0.57763671875	0.412841796875	1	lower	zerothre.ttf
1081930	START	n/a	LTP197	ltpFR	9	n/a	n/a	n/a	n/a	n/a	n/a	n/a	n/a	n/a	n/a	n/a	n/a	n/a	n/a	n/a	n/a
1083051	PROB	n/a	LTP197	ltpFR	9	n/a	n/a	n/a	n/a	n/a	n/a	n/a	14	6	3	5	n/a	n/a	n/a	n/a	n/a
1085336	PROB	n/a	LTP197	ltpFR	9	n/a	n/a	n/a	n/a	n/a	n/a	n/a	12	1	7	4	n/a	n/a	n/a	n/a	n/a
1086764	PROB	n/a	LTP197	ltpFR	9	n/a	n/a	n/a	n/a	n/a	n/a	n/a	13	4	8	1	n/a	n/a	n/a	n/a	n/a
1088204	PROB	n/a	LTP197	ltpFR	9	n/a	n/a	n/a	n/a	n/a	n/a	n/a	14	8	5	1	n/a	n/a	n/a	n/a	n/a
1089802	PROB	n/a	LTP197	ltpFR	9	n/a	n/a	n/a	n/a	n/a	n/a	n/a	5	1	1	3	n/a	n/a	n/a	n/a	n/a
1091058	PROB	n/a	LTP197	ltpFR	9	n/a	n/a	n/a	n/a	n/a	n/a	n/a	18	5	7	6	n/a	n/a	n/a	n/a	n/a
1092904	PROB	n/a	LTP197	ltpFR	9	n/a	n/a	n/a	n/a	n/a	n/a	n/a	19	7	7	5	n/a	n/a	n/a	n/a	n/a
1094637	PROB	n/a	LTP197	ltpFR	9	n/a	n/a	n/a	n/a	n/a	n/a	n/a	13	3	9	1	n/a	n/a	n/a	n/a	n/a
1096278	PROB	n/a	LTP197	ltpFR	9	n/a	n/a	n/a	n/a	n/a	n/a	n/a	15	7	4	3	n/a	n/a	n/a	n/a	n/a
1097703	STOP	n/a	LTP197	ltpFR	9	n/a	n/a	n/a	n/a	n/a	n/a	n/a	n/a	n/a	n/a	n/a	n/a	n/a	n/a	n/a	n/a
1099044	WORD	wordpools/wasnorm_wordpool_less_exclusions.txt	LTP197	ltpFR	9	6	1	COMEDIAN	352	n/a	n/a	1	n/a	0	0	0	0.57763671875	0.412841796875	1	lower	zerothre.ttf
1102056	START	n/a	LTP197	ltpFR	9	n/a	n/a	n/a	n/a	n/a	n/a	n/a	n/a	n/a	n/a	n/a	n/a	n/a	n/a	n/a	n/a
1103193	PROB	n/a	LTP197	ltpFR	9	n/a	n/a	n/a	n/a	n/a	n/a	n/a	20	5	8	7	n/a	n/a	n/a	n/a	n/a
1105417	PROB	n/a	LTP197	ltpFR	9	n/a	n/a	n/a	n/a	n/a	n/a	n/a	19	8	8	3	n/a	n/a	n/a	n/a	n/a
1107252	PROB	n/a	LTP197	ltpFR	9	n/a	n/a	n/a	n/a	n/a	n/a	n/a	21	7	9	5	n/a	n/a	n/a	n/a	n/a
1111357	PROB	n/a	LTP197	ltpFR	9	n/a	n/a	n/a	n/a	n/a	n/a	n/a	20	6	5	9	n/a	n/a	n/a	n/a	n/a
1113091	PROB	n/a	LTP197	ltpFR	9	n/a	n/a	n/a	n/a	n/a	n/a	n/a	10	2	1	7	n/a	n/a	n/a	n/a	n/a
1114635	PROB	n/a	LTP197	ltpFR	9	n/a	n/a	n/a	n/a	n/a	n/a	n/a	21	6	7	8	n/a	n/a	n/a	n/a	n/a
1116751	STOP	n/a	LTP197	ltpFR	9	n/a	n/a	n/a	n/a	n/a	n/a	n/a	n/a	n/a	n/a	n/a	n/a	n/a	n/a	n/a	n/a
1119080	WORD	wordpools/wasnorm_wordpool_less_exclusions.txt	LTP197	ltpFR	9	6	1	KANGAROO	768	n/a	n/a	1	n/a	0	0	0	0.57763671875	0.412841796875	1	lower	zerothre.ttf
1122092	START	n/a	LTP197	ltpFR	9	n/a	n/a	n/a	n/a	n/a	n/a	n/a	n/a	n/a	n/a	n/a	n/a	n/a	n/a	n/a	n/a
1123102	PROB	n/a	LTP197	ltpFR	9	n/a	n/a	n/a	n/a	n/a	n/a	n/a	11	2	5	4	n/a	n/a	n/a	n/a	n/a
1125304	PROB	n/a	LTP197	ltpFR	9	n/a	n/a	n/a	n/a	n/a	n/a	n/a	15	1	8	6	n/a	n/a	n/a	n/a	n/a
1126859	PROB	n/a	LTP197	ltpFR	9	n/a	n/a	n/a	n/a	n/a	n/a	n/a	14	8	2	4	n/a	n/a	n/a	n/a	n/a
1128481	PROB	n/a	LTP197	ltpFR	9	n/a	n/a	n/a	n/a	n/a	n/a	n/a	17	6	7	4	n/a	n/a	n/a	n/a	n/a
1130422	PROB	n/a	LTP197	ltpFR	9	n/a	n/a	n/a	n/a	n/a	n/a	n/a	20	7	6	7	n/a	n/a	n/a	n/a	n/a
1132530	PROB	n/a	LTP197	ltpFR	9	n/a	n/a	n/a	n/a	n/a	n/a	n/a	23	8	8	7	n/a	n/a	n/a	n/a	n/a
1135114	PROB	n/a	LTP197	ltpFR	9	n/a	n/a	n/a	n/a	n/a	n/a	n/a	18	8	9	1	n/a	n/a	n/a	n/a	n/a
1137064	STOP	n/a	LTP197	ltpFR	9	n/a	n/a	n/a	n/a	n/a	n/a	n/a	n/a	n/a	n/a	n/a	n/a	n/a	n/a	n/a	n/a
1139072	WORD	wordpools/wasnorm_wordpool_less_exclusions.txt	LTP197	ltpFR	9	6	1	SKUNK	1321	n/a	n/a	1	n/a	0	0	0	0.57763671875	0.412841796875	1	lower	zerothre.ttf
1142084	START	n/a	LTP197	ltpFR	9	n/a	n/a	n/a	n/a	n/a	n/a	n/a	n/a	n/a	n/a	n/a	n/a	n/a	n/a	n/a	n/a
1143094	PROB	n/a	LTP197	ltpFR	9	n/a	n/a	n/a	n/a	n/a	n/a	n/a	14	3	7	4	n/a	n/a	n/a	n/a	n/a
1144910	PROB	n/a	LTP197	ltpFR	9	n/a	n/a	n/a	n/a	n/a	n/a	n/a	18	6	4	8	n/a	n/a	n/a	n/a	n/a
1146189	PROB	n/a	LTP197	ltpFR	9	n/a	n/a	n/a	n/a	n/a	n/a	n/a	14	1	8	5	n/a	n/a	n/a	n/a	n/a
1148380	PROB	n/a	LTP197	ltpFR	9	n/a	n/a	n/a	n/a	n/a	n/a	n/a	12	5	1	6	n/a	n/a	n/a	n/a	n/a
1149930	PROB	n/a	LTP197	ltpFR	9	n/a	n/a	n/a	n/a	n/a	n/a	n/a	15	6	1	8	n/a	n/a	n/a	n/a	n/a
1151435	PROB	n/a	LTP197	ltpFR	9	n/a	n/a	n/a	n/a	n/a	n/a	n/a	19	5	8	6	n/a	n/a	n/a	n/a	n/a
1153442	PROB	n/a	LTP197	ltpFR	9	n/a	n/a	n/a	n/a	n/a	n/a	n/a	22	9	7	6	n/a	n/a	n/a	n/a	n/a
1155590	PROB	n/a	LTP197	ltpFR	9	n/a	n/a	n/a	n/a	n/a	n/a	n/a	7	5	1	1	n/a	n/a	n/a	n/a	n/a
1157032	STOP	n/a	LTP197	ltpFR	9	n/a	n/a	n/a	n/a	n/a	n/a	n/a	n/a	n/a	n/a	n/a	n/a	n/a	n/a	n/a	n/a
1159238	WORD	wordpools/wasnorm_wordpool_less_exclusions.txt	LTP197	ltpFR	9	6	0	COB	334	n/a	n/a	0	n/a	0	0	0	0.422607421875	0.5869140625	0	upper	amplitud.ttf
1162250	START	n/a	LTP197	ltpFR	9	n/a	n/a	n/a	n/a	n/a	n/a	n/a	n/a	n/a	n/a	n/a	n/a	n/a	n/a	n/a	n/a
1163280	PROB	n/a	LTP197	ltpFR	9	n/a	n/a	n/a	n/a	n/a	n/a	n/a	17	7	8	2	n/a	n/a	n/a	n/a	n/a
1165889	PROB	n/a	LTP197	ltpFR	9	n/a	n/a	n/a	n/a	n/a	n/a	n/a	11	2	6	3	n/a	n/a	n/a	n/a	n/a
1167652	PROB	n/a	LTP197	ltpFR	9	n/a	n/a	n/a	n/a	n/a	n/a	n/a	11	3	4	4	n/a	n/a	n/a	n/a	n/a
1169326	PROB	n/a	LTP197	ltpFR	9	n/a	n/a	n/a	n/a	n/a	n/a	n/a	12	1	4	7	n/a	n/a	n/a	n/a	n/a
1170841	PROB	n/a	LTP197	ltpFR	9	n/a	n/a	n/a	n/a	n/a	n/a	n/a	20	2	9	9	n/a	n/a	n/a	n/a	n/a
1172698	PROB	n/a	LTP197	ltpFR	9	n/a	n/a	n/a	n/a	n/a	n/a	n/a	16	7	6	3	n/a	n/a	n/a	n/a	n/a
1174405	PROB	n/a	LTP197	ltpFR	9	n/a	n/a	n/a	n/a	n/a	n/a	n/a	11	2	3	6	n/a	n/a	n/a	n/a	n/a
1175995	PROB	n/a	LTP197	ltpFR	9	n/a	n/a	n/a	n/a	n/a	n/a	n/a	20	9	5	6	n/a	n/a	n/a	n/a	n/a
1177536	STOP	n/a	LTP197	ltpFR	9	n/a	n/a	n/a	n/a	n/a	n/a	n/a	n/a	n/a	n/a	n/a	n/a	n/a	n/a	n/a	n/a
1179490	WORD	wordpools/wasnorm_wordpool_less_exclusions.txt	LTP197	ltpFR	9	6	0	BULLETIN	195	n/a	n/a	1	n/a	0	0	0	0.422607421875	0.5869140625	0	upper	amplitud.ttf
1182502	START	n/a	LTP197	ltpFR	9	n/a	n/a	n/a	n/a	n/a	n/a	n/a	n/a	n/a	n/a	n/a	n/a	n/a	n/a	n/a	n/a
1183322	PROB	n/a	LTP197	ltpFR	9	n/a	n/a	n/a	n/a	n/a	n/a	n/a	9	5	1	3	n/a	n/a	n/a	n/a	n/a
1184945	PROB	n/a	LTP197	ltpFR	9	n/a	n/a	n/a	n/a	n/a	n/a	n/a	15	7	3	5	n/a	n/a	n/a	n/a	n/a
1186284	PROB	n/a	LTP197	ltpFR	9	n/a	n/a	n/a	n/a	n/a	n/a	n/a	21	6	8	7	n/a	n/a	n/a	n/a	n/a
1188625	PROB	n/a	LTP197	ltpFR	9	n/a	n/a	n/a	n/a	n/a	n/a	n/a	5	2	1	2	n/a	n/a	n/a	n/a	n/a
1190282	PROB	n/a	LTP197	ltpFR	9	n/a	n/a	n/a	n/a	n/a	n/a	n/a	10	2	2	6	n/a	n/a	n/a	n/a	n/a
1191810	PROB	n/a	LTP197	ltpFR	9	n/a	n/a	n/a	n/a	n/a	n/a	n/a	7	3	1	3	n/a	n/a	n/a	n/a	n/a
1193516	PROB	n/a	LTP197	ltpFR	9	n/a	n/a	n/a	n/a	n/a	n/a	n/a	19	6	8	5	n/a	n/a	n/a	n/a	n/a
1198501	STOP	n/a	LTP197	ltpFR	9	n/a	n/a	n/a	n/a	n/a	n/a	n/a	n/a	n/a	n/a	n/a	n/a	n/a	n/a	n/a	n/a
1199482	WORD	wordpools/wasnorm_wordpool_less_exclusions.txt	LTP197	ltpFR	9	6	0	PERFUME	1049	n/a	n/a	2	n/a	0	0	0	0.422607421875	0.5869140625	0	upper	amplitud.ttf
1201530	KEY_MSG	n/a	LTP197	ltpFR	9	6	n/a	n/a	n/a	n/a	n/a	n/a	n/a	0	0	0	n/a	n/a	n/a	n/a	n/a
1203064	START	n/a	LTP197	ltpFR	9	n/a	n/a	n/a	n/a	n/a	n/a	n/a	n/a	n/a	n/a	n/a	n/a	n/a	n/a	n/a	n/a
1204258	PROB	n/a	LTP197	ltpFR	9	n/a	n/a	n/a	n/a	n/a	n/a	n/a	14	2	7	5	n/a	n/a	n/a	n/a	n/a
1206091	PROB	n/a	LTP197	ltpFR	9	n/a	n/a	n/a	n/a	n/a	n/a	n/a	15	4	6	5	n/a	n/a	n/a	n/a	n/a
1207403	PROB	n/a	LTP197	ltpFR	9	n/a	n/a	n/a	n/a	n/a	n/a	n/a	17	5	6	6	n/a	n/a	n/a	n/a	n/a
1209019	PROB	n/a	LTP197	ltpFR	9	n/a	n/a	n/a	n/a	n/a	n/a	n/a	11	5	1	5	n/a	n/a	n/a	n/a	n/a
1210457	PROB	n/a	LTP197	ltpFR	9	n/a	n/a	n/a	n/a	n/a	n/a	n/a	17	9	4	4	n/a	n/a	n/a	n/a	n/a
1212465	PROB	n/a	LTP197	ltpFR	9	n/a	n/a	n/a	n/a	n/a	n/a	n/a	5	1	2	2	n/a	n/a	n/a	n/a	n/a
1213810	PROB	n/a	LTP197	ltpFR	9	n/a	n/a	n/a	n/a	n/a	n/a	n/a	12	8	1	5	n/a	n/a	n/a	n/a	n/a
1215393	PROB	n/a	LTP197	ltpFR	9	n/a	n/a	n/a	n/a	n/a	n/a	n/a	16	4	9	3	n/a	n/a	n/a	n/a	n/a
1218112	STOP	n/a	LTP197	ltpFR	9	n/a	n/a	n/a	n/a	n/a	n/a	n/a	n/a	n/a	n/a	n/a	n/a	n/a	n/a	n/a	n/a
1220034	WORD	wordpools/wasnorm_wordpool_less_exclusions.txt	LTP197	ltpFR	9	6	1	RAIL	1161	n/a	n/a	0	n/a	0	0	0	0.57763671875	0.412841796875	1	lower	zerothre.ttf
1223046	START	n/a	LTP197	ltpFR	9	n/a	n/a	n/a	n/a	n/a	n/a	n/a	n/a	n/a	n/a	n/a	n/a	n/a	n/a	n/a	n/a
1224082	PROB	n/a	LTP197	ltpFR	9	n/a	n/a	n/a	n/a	n/a	n/a	n/a	9	1	4	4	n/a	n/a	n/a	n/a	n/a
1225798	PROB	n/a	LTP197	ltpFR	9	n/a	n/a	n/a	n/a	n/a	n/a	n/a	23	6	9	8	n/a	n/a	n/a	n/a	n/a
1228659	PROB	n/a	LTP197	ltpFR	9	n/a	n/a	n/a	n/a	n/a	n/a	n/a	16	5	4	7	n/a	n/a	n/a	n/a	n/a
1230366	PROB	n/a	LTP197	ltpFR	9	n/a	n/a	n/a	n/a	n/a	n/a	n/a	12	3	2	7	n/a	n/a	n/a	n/a	n/a
1231921	PROB	n/a	LTP197	ltpFR	9	n/a	n/a	n/a	n/a	n/a	n/a	n/a	16	4	5	7	n/a	n/a	n/a	n/a	n/a
1233311	PROB	n/a	LTP197	ltpFR	9	n/a	n/a	n/a	n/a	n/a	n/a	n/a	18	2	3	9	n/a	n/a	n/a	n/a	n/a
1235067	PROB	n/a	LTP197	ltpFR	9	n/a	n/a	n/a	n/a	n/a	n/a	n/a	14	1	6	7	n/a	n/a	n/a	n/a	n/a
1236981	PROB	n/a	LTP197	ltpFR	9	n/a	n/a	n/a	n/a	n/a	n/a	n/a	14	7	5	2	n/a	n/a	n/a	n/a	n/a
1238519	STOP	n/a	LTP197	ltpFR	9	n/a	n/a	n/a	n/a	n/a	n/a	n/a	n/a	n/a	n/a	n/a	n/a	n/a	n/a	n/a	n/a
1240070	WORD	wordpools/wasnorm_wordpool_less_exclusions.txt	LTP197	ltpFR	9	6	1	SCARECROW	1245	n/a	n/a	3	n/a	0	0	0	0.57763671875	0.412841796875	1	lower	zerothre.ttf
1241798	KEY_MSG	n/a	LTP197	ltpFR	9	6	n/a	n/a	n/a	n/a	n/a	n/a	n/a	0	0	0	n/a	n/a	n/a	n/a	n/a
1243332	START	n/a	LTP197	ltpFR	9	n/a	n/a	n/a	n/a	n/a	n/a	n/a	n/a	n/a	n/a	n/a	n/a	n/a	n/a	n/a	n/a
1244369	PROB	n/a	LTP197	ltpFR	9	n/a	n/a	n/a	n/a	n/a	n/a	n/a	16	8	6	2	n/a	n/a	n/a	n/a	n/a
1246059	PROB	n/a	LTP197	ltpFR	9	n/a	n/a	n/a	n/a	n/a	n/a	n/a	14	5	8	2	n/a	n/a	n/a	n/a	n/a
1248835	PROB	n/a	LTP197	ltpFR	9	n/a	n/a	n/a	n/a	n/a	n/a	n/a	12	7	1	4	n/a	n/a	n/a	n/a	n/a
1250944	PROB	n/a	LTP197	ltpFR	9	n/a	n/a	n/a	n/a	n/a	n/a	n/a	17	3	6	8	n/a	n/a	n/a	n/a	n/a
1253018	PROB	n/a	LTP197	ltpFR	9	n/a	n/a	n/a	n/a	n/a	n/a	n/a	19	8	3	8	n/a	n/a	n/a	n/a	n/a
1256136	PROB	n/a	LTP197	ltpFR	9	n/a	n/a	n/a	n/a	n/a	n/a	n/a	16	5	2	9	n/a	n/a	n/a	n/a	n/a
1257799	STOP	n/a	LTP197	ltpFR	9	n/a	n/a	n/a	n/a	n/a	n/a	n/a	n/a	n/a	n/a	n/a	n/a	n/a	n/a	n/a	n/a
1260185	WORD	wordpools/wasnorm_wordpool_less_exclusions.txt	LTP197	ltpFR	9	6	1	MARINE	869	n/a	n/a	1	n/a	0	0	0	0.57763671875	0.412841796875	1	lower	zerothre.ttf
1263197	START	n/a	LTP197	ltpFR	9	n/a	n/a	n/a	n/a	n/a	n/a	n/a	n/a	n/a	n/a	n/a	n/a	n/a	n/a	n/a	n/a
1264384	PROB	n/a	LTP197	ltpFR	9	n/a	n/a	n/a	n/a	n/a	n/a	n/a	21	9	6	6	n/a	n/a	n/a	n/a	n/a
1267138	PROB	n/a	LTP197	ltpFR	9	n/a	n/a	n/a	n/a	n/a	n/a	n/a	15	9	3	3	n/a	n/a	n/a	n/a	n/a
1269219	PROB	n/a	LTP197	ltpFR	9	n/a	n/a	n/a	n/a	n/a	n/a	n/a	16	5	6	5	n/a	n/a	n/a	n/a	n/a
1271120	PROB	n/a	LTP197	ltpFR	9	n/a	n/a	n/a	n/a	n/a	n/a	n/a	20	6	9	5	n/a	n/a	n/a	n/a	n/a
1274716	PROB	n/a	LTP197	ltpFR	9	n/a	n/a	n/a	n/a	n/a	n/a	n/a	15	2	4	9	n/a	n/a	n/a	n/a	n/a
1277149	PROB	n/a	LTP197	ltpFR	9	n/a	n/a	n/a	n/a	n/a	n/a	n/a	16	4	4	6	n/a	n/a	n/a	n/a	n/a
1278455	STOP	n/a	LTP197	ltpFR	9	n/a	n/a	n/a	n/a	n/a	n/a	n/a	n/a	n/a	n/a	n/a	n/a	n/a	n/a	n/a	n/a
1280338	WORD	wordpools/wasnorm_wordpool_less_exclusions.txt	LTP197	ltpFR	9	6	1	SERGEANT	1269	n/a	n/a	1	n/a	0	0	0	0.57763671875	0.412841796875	1	lower	zerothre.ttf
1283350	START	n/a	LTP197	ltpFR	9	n/a	n/a	n/a	n/a	n/a	n/a	n/a	n/a	n/a	n/a	n/a	n/a	n/a	n/a	n/a	n/a
1284309	PROB	n/a	LTP197	ltpFR	9	n/a	n/a	n/a	n/a	n/a	n/a	n/a	18	7	3	8	n/a	n/a	n/a	n/a	n/a
1285824	PROB	n/a	LTP197	ltpFR	9	n/a	n/a	n/a	n/a	n/a	n/a	n/a	17	9	5	3	n/a	n/a	n/a	n/a	n/a
1288084	PROB	n/a	LTP197	ltpFR	9	n/a	n/a	n/a	n/a	n/a	n/a	n/a	21	9	7	5	n/a	n/a	n/a	n/a	n/a
1290008	PROB	n/a	LTP197	ltpFR	9	n/a	n/a	n/a	n/a	n/a	n/a	n/a	10	6	3	1	n/a	n/a	n/a	n/a	n/a
1292072	PROB	n/a	LTP197	ltpFR	9	n/a	n/a	n/a	n/a	n/a	n/a	n/a	8	3	4	1	n/a	n/a	n/a	n/a	n/a
1293553	PROB	n/a	LTP197	ltpFR	9	n/a	n/a	n/a	n/a	n/a	n/a	n/a	14	6	4	4	n/a	n/a	n/a	n/a	n/a
1295100	PROB	n/a	LTP197	ltpFR	9	n/a	n/a	n/a	n/a	n/a	n/a	n/a	10	4	2	2	n/a	n/a	n/a	n/a	n/a
1296967	PROB	n/a	LTP197	ltpFR	9	n/a	n/a	n/a	n/a	n/a	n/a	n/a	19	1	9	9	n/a	n/a	n/a	n/a	n/a
1298464	STOP	n/a	LTP197	ltpFR	9	n/a	n/a	n/a	n/a	n/a	n/a	n/a	n/a	n/a	n/a	n/a	n/a	n/a	n/a	n/a	n/a
1300219	WORD	wordpools/wasnorm_wordpool_less_exclusions.txt	LTP197	ltpFR	9	6	0	BRAN	167	n/a	n/a	0	n/a	0	0	0	0.422607421875	0.5869140625	0	upper	amplitud.ttf
1303231	START	n/a	LTP197	ltpFR	9	n/a	n/a	n/a	n/a	n/a	n/a	n/a	n/a	n/a	n/a	n/a	n/a	n/a	n/a	n/a	n/a
1304167	PROB	n/a	LTP197	ltpFR	9	n/a	n/a	n/a	n/a	n/a	n/a	n/a	15	5	9	1	n/a	n/a	n/a	n/a	n/a
1305532	PROB	n/a	LTP197	ltpFR	9	n/a	n/a	n/a	n/a	n/a	n/a	n/a	19	4	7	8	n/a	n/a	n/a	n/a	n/a
1307590	PROB	n/a	LTP197	ltpFR	9	n/a	n/a	n/a	n/a	n/a	n/a	n/a	11	4	1	6	n/a	n/a	n/a	n/a	n/a
1309347	PROB	n/a	LTP197	ltpFR	9	n/a	n/a	n/a	n/a	n/a	n/a	n/a	19	3	9	7	n/a	n/a	n/a	n/a	n/a
1312057	PROB	n/a	LTP197	ltpFR	9	n/a	n/a	n/a	n/a	n/a	n/a	n/a	19	7	7	5	n/a	n/a	n/a	n/a	n/a
1314189	PROB	n/a	LTP197	ltpFR	9	n/a	n/a	n/a	n/a	n/a	n/a	n/a	16	9	2	2	n/a	n/a	n/a	n/a	n/a
1319230	STOP	n/a	LTP197	ltpFR	9	n/a	n/a	n/a	n/a	n/a	n/a	n/a	n/a	n/a	n/a	n/a	n/a	n/a	n/a	n/a	n/a
1320395	WORD	wordpools/wasnorm_wordpool_less_exclusions.txt	LTP197	ltpFR	9	6	0	GATE	625	n/a	n/a	1	n/a	0	0	0	0.422607421875	0.5869140625	0	upper	amplitud.ttf
1323407	START	n/a	LTP197	ltpFR	9	n/a	n/a	n/a	n/a	n/a	n/a	n/a	n/a	n/a	n/a	n/a	n/a	n/a	n/a	n/a	n/a
1324587	PROB	n/a	LTP197	ltpFR	9	n/a	n/a	n/a	n/a	n/a	n/a	n/a	17	6	3	8	n/a	n/a	n/a	n/a	n/a
1326284	PROB	n/a	LTP197	ltpFR	9	n/a	n/a	n/a	n/a	n/a	n/a	n/a	16	7	7	2	n/a	n/a	n/a	n/a	n/a
1327699	PROB	n/a	LTP197	ltpFR	9	n/a	n/a	n/a	n/a	n/a	n/a	n/a	9	4	3	4	n/a	n/a	n/a	n/a	n/a
1329656	PROB	n/a	LTP197	ltpFR	9	n/a	n/a	n/a	n/a	n/a	n/a	n/a	15	4	5	6	n/a	n/a	n/a	n/a	n/a
1331280	PROB	n/a	LTP197	ltpFR	9	n/a	n/a	n/a	n/a	n/a	n/a	n/a	20	4	8	8	n/a	n/a	n/a	n/a	n/a
1333053	PROB	n/a	LTP197	ltpFR	9	n/a	n/a	n/a	n/a	n/a	n/a	n/a	21	9	5	7	n/a	n/a	n/a	n/a	n/a
1335434	PROB	n/a	LTP197	ltpFR	9	n/a	n/a	n/a	n/a	n/a	n/a	n/a	12	4	6	2	n/a	n/a	n/a	n/a	n/a
1336756	PROB	n/a	LTP197	ltpFR	9	n/a	n/a	n/a	n/a	n/a	n/a	n/a	10	4	5	1	n/a	n/a	n/a	n/a	n/a
1338112	STOP	n/a	LTP197	ltpFR	9	n/a	n/a	n/a	n/a	n/a	n/a	n/a	n/a	n/a	n/a	n/a	n/a	n/a	n/a	n/a	n/a
1341185	REC_START	n/a	LTP197	ltpFR	9	6	n/a	n/a	n/a	n/a	n/a	n/a	n/a	0	0	0	n/a	n/a	n/a	n/a	n/a
1343634	REC_WORD	wordpools/wasnorm_wordpool_less_exclusions.txt	LTP197	ltpFR	9	6	1	RAIL	1161	n/a	n/a	0	n/a	0	0	0	n/a	n/a	n/a	n/a	n/a
1344707	REC_WORD	wordpools/wasnorm_wordpool_less_exclusions.txt	LTP197	ltpFR	9	6	0	GATE	625	n/a	n/a	1	n/a	0	0	0	n/a	n/a	n/a	n/a	n/a
1345799	REC_WORD	wordpools/wasnorm_wordpool_less_exclusions.txt	LTP197	ltpFR	9	6	1	MARINE	869	n/a	n/a	1	n/a	0	0	0	n/a	n/a	n/a	n/a	n/a
1346533	REC_WORD	wordpools/wasnorm_wordpool_less_exclusions.txt	LTP197	ltpFR	9	6	1	SERGEANT	1269	n/a	n/a	1	n/a	0	0	0	n/a	n/a	n/a	n/a	n/a
1348029	REC_WORD	wordpools/wasnorm_wordpool_less_exclusions.txt	LTP197	ltpFR	9	6	1	COMEDIAN	352	n/a	n/a	1	n/a	0	0	0	n/a	n/a	n/a	n/a	n/a
1349651	REC_WORD	wordpools/wasnorm_wordpool_less_exclusions.txt	LTP197	ltpFR	9	6	1	KANGAROO	768	n/a	n/a	1	n/a	0	0	0	n/a	n/a	n/a	n/a	n/a
1350608	REC_WORD	wordpools/wasnorm_wordpool_less_exclusions.txt	LTP197	ltpFR	9	6	1	CABIN	211	n/a	n/a	0	n/a	0	0	0	n/a	n/a	n/a	n/a	n/a
1352200	REC_WORD	wordpools/wasnorm_wordpool_less_exclusions.txt	LTP197	ltpFR	9	6	0	SARDINE	1235	n/a	n/a	0	n/a	0	0	0	n/a	n/a	n/a	n/a	n/a
1353357	REC_WORD	wordpools/wasnorm_wordpool_less_exclusions.txt	LTP197	ltpFR	9	6	0	NET	946	n/a	n/a	0	n/a	0	0	0	n/a	n/a	n/a	n/a	n/a
1354395	REC_WORD	wordpools/wasnorm_wordpool_less_exclusions.txt	LTP197	ltpFR	9	6	n/a	NOTE	958	n/a	n/a	n/a	n/a	0	0	0	n/a	n/a	n/a	n/a	n/a
1356974	REC_WORD	wordpools/wasnorm_wordpool_less_exclusions.txt	LTP197	ltpFR	9	6	0	PERFUME	1049	n/a	n/a	2	n/a	0	0	0	n/a	n/a	n/a	n/a	n/a
1430643	START	n/a	LTP197	ltpFR	9	n/a	n/a	n/a	n/a	n/a	n/a	n/a	n/a	n/a	n/a	n/a	n/a	n/a	n/a	n/a	n/a
1432160	PROB	n/a	LTP197	ltpFR	9	n/a	n/a	n/a	n/a	n/a	n/a	n/a	13	3	9	1	n/a	n/a	n/a	n/a	n/a
1433665	PROB	n/a	LTP197	ltpFR	9	n/a	n/a	n/a	n/a	n/a	n/a	n/a	15	4	9	2	n/a	n/a	n/a	n/a	n/a
1435222	PROB	n/a	LTP197	ltpFR	9	n/a	n/a	n/a	n/a	n/a	n/a	n/a	5	1	2	1	n/a	n/a	n/a	n/a	n/a
1436425	PROB	n/a	LTP197	ltpFR	9	n/a	n/a	n/a	n/a	n/a	n/a	n/a	1	3	7	4	n/a	n/a	n/a	n/a	n/a
1438056	STOP	n/a	LTP197	ltpFR	9	n/a	n/a	n/a	n/a	n/a	n/a	n/a	n/a	n/a	n/a	n/a	n/a	n/a	n/a	n/a	n/a
1439560	WORD	wordpools/wasnorm_wordpool_less_exclusions.txt	LTP197	ltpFR	9	7	1	DIGGER	464	n/a	n/a	1	n/a	0	0	0	0.57763671875	0.412841796875	1	lower	zerothre.ttf
1442572	START	n/a	LTP197	ltpFR	9	n/a	n/a	n/a	n/a	n/a	n/a	n/a	n/a	n/a	n/a	n/a	n/a	n/a	n/a	n/a	n/a
1443709	PROB	n/a	LTP197	ltpFR	9	n/a	n/a	n/a	n/a	n/a	n/a	n/a	18	9	2	7	n/a	n/a	n/a	n/a	n/a
1445482	PROB	n/a	LTP197	ltpFR	9	n/a	n/a	n/a	n/a	n/a	n/a	n/a	21	8	6	7	n/a	n/a	n/a	n/a	n/a
1449217	STOP	n/a	LTP197	ltpFR	9	n/a	n/a	n/a	n/a	n/a	n/a	n/a	n/a	n/a	n/a	n/a	n/a	n/a	n/a	n/a	n/a
1451633	WORD	wordpools/wasnorm_wordpool_less_exclusions.txt	LTP197	ltpFR	9	7	1	JOKER	759	n/a	n/a	1	n/a	0	0	0	0.57763671875	0.412841796875	1	lower	zerothre.ttf
1454651	START	n/a	LTP197	ltpFR	9	n/a	n/a	n/a	n/a	n/a	n/a	n/a	n/a	n/a	n/a	n/a	n/a	n/a	n/a	n/a	n/a
1455514	PROB	n/a	LTP197	ltpFR	9	n/a	n/a	n/a	n/a	n/a	n/a	n/a	12	3	3	6	n/a	n/a	n/a	n/a	n/a
1457154	PROB	n/a	LTP197	ltpFR	9	n/a	n/a	n/a	n/a	n/a	n/a	n/a	13	4	6	3	n/a	n/a	n/a	n/a	n/a
1459229	PROB	n/a	LTP197	ltpFR	9	n/a	n/a	n/a	n/a	n/a	n/a	n/a	7	2	3	2	n/a	n/a	n/a	n/a	n/a
1462651	STOP	n/a	LTP197	ltpFR	9	n/a	n/a	n/a	n/a	n/a	n/a	n/a	n/a	n/a	n/a	n/a	n/a	n/a	n/a	n/a	n/a
1463500	WORD	wordpools/wasnorm_wordpool_less_exclusions.txt	LTP197	ltpFR	9	7	1	GROUND	666	n/a	n/a	0	n/a	0	0	0	0.57763671875	0.412841796875	1	lower	zerothre.ttf
1466512	START	n/a	LTP197	ltpFR	9	n/a	n/a	n/a	n/a	n/a	n/a	n/a	n/a	n/a	n/a	n/a	n/a	n/a	n/a	n/a	n/a
1467693	PROB	n/a	LTP197	ltpFR	9	n/a	n/a	n/a	n/a	n/a	n/a	n/a	24	6	9	9	n/a	n/a	n/a	n/a	n/a
1470979	PROB	n/a	LTP197	ltpFR	9	n/a	n/a	n/a	n/a	n/a	n/a	n/a	21	9	5	7	n/a	n/a	n/a	n/a	n/a
1472785	PROB	n/a	LTP197	ltpFR	9	n/a	n/a	n/a	n/a	n/a	n/a	n/a	15	8	3	4	n/a	n/a	n/a	n/a	n/a
1474401	STOP	n/a	LTP197	ltpFR	9	n/a	n/a	n/a	n/a	n/a	n/a	n/a	n/a	n/a	n/a	n/a	n/a	n/a	n/a	n/a	n/a
1475523	WORD	wordpools/wasnorm_wordpool_less_exclusions.txt	LTP197	ltpFR	9	7	1	TILE	1468	n/a	n/a	0	n/a	0	0	0	0.57763671875	0.412841796875	1	lower	zerothre.ttf
1478541	START	n/a	LTP197	ltpFR	9	n/a	n/a	n/a	n/a	n/a	n/a	n/a	n/a	n/a	n/a	n/a	n/a	n/a	n/a	n/a	n/a
1479678	PROB	n/a	LTP197	ltpFR	9	n/a	n/a	n/a	n/a	n/a	n/a	n/a	17	3	8	6	n/a	n/a	n/a	n/a	n/a
1482205	PROB	n/a	LTP197	ltpFR	9	n/a	n/a	n/a	n/a	n/a	n/a	n/a	7	1	5	1	n/a	n/a	n/a	n/a	n/a
1483837	PROB	n/a	LTP197	ltpFR	9	n/a	n/a	n/a	n/a	n/a	n/a	n/a	18	8	8	2	n/a	n/a	n/a	n/a	n/a
1485759	STOP	n/a	LTP197	ltpFR	9	n/a	n/a	n/a	n/a	n/a	n/a	n/a	n/a	n/a	n/a	n/a	n/a	n/a	n/a	n/a	n/a
1487624	WORD	wordpools/wasnorm_wordpool_less_exclusions.txt	LTP197	ltpFR	9	7	1	TRIGGER	1507	n/a	n/a	0	n/a	0	0	0	0.57763671875	0.412841796875	1	lower	zerothre.ttf
1490636	START	n/a	LTP197	ltpFR	9	n/a	n/a	n/a	n/a	n/a	n/a	n/a	n/a	n/a	n/a	n/a	n/a	n/a	n/a	n/a	n/a
1491606	PROB	n/a	LTP197	ltpFR	9	n/a	n/a	n/a	n/a	n/a	n/a	n/a	9	6	1	2	n/a	n/a	n/a	n/a	n/a
1493163	PROB	n/a	LTP197	ltpFR	9	n/a	n/a	n/a	n/a	n/a	n/a	n/a	17	2	8	7	n/a	n/a	n/a	n/a	n/a
1495064	PROB	n/a	LTP197	ltpFR	9	n/a	n/a	n/a	n/a	n/a	n/a	n/a	15	7	2	6	n/a	n/a	n/a	n/a	n/a
1498632	STOP	n/a	LTP197	ltpFR	9	n/a	n/a	n/a	n/a	n/a	n/a	n/a	n/a	n/a	n/a	n/a	n/a	n/a	n/a	n/a	n/a
1499513	WORD	wordpools/wasnorm_wordpool_less_exclusions.txt	LTP197	ltpFR	9	7	1	DRIVER	499	n/a	n/a	1	n/a	0	0	0	0.57763671875	0.412841796875	1	lower	zerothre.ttf
1502525	START	n/a	LTP197	ltpFR	9	n/a	n/a	n/a	n/a	n/a	n/a	n/a	n/a	n/a	n/a	n/a	n/a	n/a	n/a	n/a	n/a
1503335	PROB	n/a	LTP197	ltpFR	9	n/a	n/a	n/a	n/a	n/a	n/a	n/a	14	6	3	5	n/a	n/a	n/a	n/a	n/a
1504900	PROB	n/a	LTP197	ltpFR	9	n/a	n/a	n/a	n/a	n/a	n/a	n/a	17	5	6	5	n/a	n/a	n/a	n/a	n/a
1506579	PROB	n/a	LTP197	ltpFR	9	n/a	n/a	n/a	n/a	n/a	n/a	n/a	13	3	9	1	n/a	n/a	n/a	n/a	n/a
1508731	PROB	n/a	LTP197	ltpFR	9	n/a	n/a	n/a	n/a	n/a	n/a	n/a	14	5	5	4	n/a	n/a	n/a	n/a	n/a
1510104	STOP	n/a	LTP197	ltpFR	9	n/a	n/a	n/a	n/a	n/a	n/a	n/a	n/a	n/a	n/a	n/a	n/a	n/a	n/a	n/a	n/a
1511609	WORD	wordpools/wasnorm_wordpool_less_exclusions.txt	LTP197	ltpFR	9	7	1	RADIATOR	1156	n/a	n/a	0	n/a	0	0	0	0.57763671875	0.412841796875	1	lower	zerothre.ttf
1514627	START	n/a	LTP197	ltpFR	9	n/a	n/a	n/a	n/a	n/a	n/a	n/a	n/a	n/a	n/a	n/a	n/a	n/a	n/a	n/a	n/a
1515563	PROB	n/a	LTP197	ltpFR	9	n/a	n/a	n/a	n/a	n/a	n/a	n/a	8	1	3	4	n/a	n/a	n/a	n/a	n/a
1517437	PROB	n/a	LTP197	ltpFR	9	n/a	n/a	n/a	n/a	n/a	n/a	n/a	21	7	9	5	n/a	n/a	n/a	n/a	n/a
1520242	PROB	n/a	LTP197	ltpFR	9	n/a	n/a	n/a	n/a	n/a	n/a	n/a	12	1	6	5	n/a	n/a	n/a	n/a	n/a
1521807	STOP	n/a	LTP197	ltpFR	9	n/a	n/a	n/a	n/a	n/a	n/a	n/a	n/a	n/a	n/a	n/a	n/a	n/a	n/a	n/a	n/a
1523744	WORD	wordpools/wasnorm_wordpool_less_exclusions.txt	LTP197	ltpFR	9	7	1	CUSHION	428	n/a	n/a	0	n/a	0	0	0	0.57763671875	0.412841796875	1	lower	zerothre.ttf
1526756	START	n/a	LTP197	ltpFR	9	n/a	n/a	n/a	n/a	n/a	n/a	n/a	n/a	n/a	n/a	n/a	n/a	n/a	n/a	n/a	n/a
1527675	PROB	n/a	LTP197	ltpFR	9	n/a	n/a	n/a	n/a	n/a	n/a	n/a	19	6	9	4	n/a	n/a	n/a	n/a	n/a
1529744	PROB	n/a	LTP197	ltpFR	9	n/a	n/a	n/a	n/a	n/a	n/a	n/a	14	5	5	4	n/a	n/a	n/a	n/a	n/a
1531123	PROB	n/a	LTP197	ltpFR	9	n/a	n/a	n/a	n/a	n/a	n/a	n/a	6	1	1	4	n/a	n/a	n/a	n/a	n/a
1532354	PROB	n/a	LTP197	ltpFR	9	n/a	n/a	n/a	n/a	n/a	n/a	n/a	8	6	1	1	n/a	n/a	n/a	n/a	n/a
1533479	STOP	n/a	LTP197	ltpFR	9	n/a	n/a	n/a	n/a	n/a	n/a	n/a	n/a	n/a	n/a	n/a	n/a	n/a	n/a	n/a	n/a
1535588	WORD	wordpools/wasnorm_wordpool_less_exclusions.txt	LTP197	ltpFR	9	7	1	WAITER	1580	n/a	n/a	1	n/a	0	0	0	0.57763671875	0.412841796875	1	lower	zerothre.ttf
1538600	START	n/a	LTP197	ltpFR	9	n/a	n/a	n/a	n/a	n/a	n/a	n/a	n/a	n/a	n/a	n/a	n/a	n/a	n/a	n/a	n/a
1539781	PROB	n/a	LTP197	ltpFR	9	n/a	n/a	n/a	n/a	n/a	n/a	n/a	27	9	9	9	n/a	n/a	n/a	n/a	n/a
1542108	PROB	n/a	LTP197	ltpFR	9	n/a	n/a	n/a	n/a	n/a	n/a	n/a	13	7	5	1	n/a	n/a	n/a	n/a	n/a
1544633	PROB	n/a	LTP197	ltpFR	9	n/a	n/a	n/a	n/a	n/a	n/a	n/a	12	6	2	4	n/a	n/a	n/a	n/a	n/a
1546249	STOP	n/a	LTP197	ltpFR	9	n/a	n/a	n/a	n/a	n/a	n/a	n/a	n/a	n/a	n/a	n/a	n/a	n/a	n/a	n/a	n/a
1547567	WORD	wordpools/wasnorm_wordpool_less_exclusions.txt	LTP197	ltpFR	9	7	1	SWITCH	1422	n/a	n/a	0	n/a	0	0	0	0.57763671875	0.412841796875	1	lower	zerothre.ttf
1550579	START	n/a	LTP197	ltpFR	9	n/a	n/a	n/a	n/a	n/a	n/a	n/a	n/a	n/a	n/a	n/a	n/a	n/a	n/a	n/a	n/a
1551475	PROB	n/a	LTP197	ltpFR	9	n/a	n/a	n/a	n/a	n/a	n/a	n/a	13	4	5	4	n/a	n/a	n/a	n/a	n/a
1553066	PROB	n/a	LTP197	ltpFR	9	n/a	n/a	n/a	n/a	n/a	n/a	n/a	13	7	2	4	n/a	n/a	n/a	n/a	n/a
1554996	PROB	n/a	LTP197	ltpFR	9	n/a	n/a	n/a	n/a	n/a	n/a	n/a	14	2	9	3	n/a	n/a	n/a	n/a	n/a
1557120	STOP	n/a	LTP197	ltpFR	9	n/a	n/a	n/a	n/a	n/a	n/a	n/a	n/a	n/a	n/a	n/a	n/a	n/a	n/a	n/a	n/a
1559545	WORD	wordpools/wasnorm_wordpool_less_exclusions.txt	LTP197	ltpFR	9	7	1	CIGARETTE	309	n/a	n/a	0	n/a	0	0	0	0.57763671875	0.412841796875	1	lower	zerothre.ttf
1562557	START	n/a	LTP197	ltpFR	9	n/a	n/a	n/a	n/a	n/a	n/a	n/a	n/a	n/a	n/a	n/a	n/a	n/a	n/a	n/a	n/a
1563688	PROB	n/a	LTP197	ltpFR	9	n/a	n/a	n/a	n/a	n/a	n/a	n/a	13	2	2	9	n/a	n/a	n/a	n/a	n/a
1565501	PROB	n/a	LTP197	ltpFR	9	n/a	n/a	n/a	n/a	n/a	n/a	n/a	17	3	9	5	n/a	n/a	n/a	n/a	n/a
1567469	PROB	n/a	LTP197	ltpFR	9	n/a	n/a	n/a	n/a	n/a	n/a	n/a	12	3	5	4	n/a	n/a	n/a	n/a	n/a
1569232	STOP	n/a	LTP197	ltpFR	9	n/a	n/a	n/a	n/a	n/a	n/a	n/a	n/a	n/a	n/a	n/a	n/a	n/a	n/a	n/a	n/a
1571402	WORD	wordpools/wasnorm_wordpool_less_exclusions.txt	LTP197	ltpFR	9	7	1	TAIL	1430	n/a	n/a	1	n/a	0	0	0	0.57763671875	0.412841796875	1	lower	zerothre.ttf
1574419	START	n/a	LTP197	ltpFR	9	n/a	n/a	n/a	n/a	n/a	n/a	n/a	n/a	n/a	n/a	n/a	n/a	n/a	n/a	n/a	n/a
1575466	PROB	n/a	LTP197	ltpFR	9	n/a	n/a	n/a	n/a	n/a	n/a	n/a	17	3	6	8	n/a	n/a	n/a	n/a	n/a
1577274	PROB	n/a	LTP197	ltpFR	9	n/a	n/a	n/a	n/a	n/a	n/a	n/a	20	4	8	8	n/a	n/a	n/a	n/a	n/a
1579131	PROB	n/a	LTP197	ltpFR	9	n/a	n/a	n/a	n/a	n/a	n/a	n/a	14	4	4	6	n/a	n/a	n/a	n/a	n/a
1580856	STOP	n/a	LTP197	ltpFR	9	n/a	n/a	n/a	n/a	n/a	n/a	n/a	n/a	n/a	n/a	n/a	n/a	n/a	n/a	n/a	n/a
1583319	WORD	wordpools/wasnorm_wordpool_less_exclusions.txt	LTP197	ltpFR	9	7	1	TOE	1473	n/a	n/a	1	n/a	0	0	0	0.57763671875	0.412841796875	1	lower	zerothre.ttf
1586331	START	n/a	LTP197	ltpFR	9	n/a	n/a	n/a	n/a	n/a	n/a	n/a	n/a	n/a	n/a	n/a	n/a	n/a	n/a	n/a	n/a
1587150	PROB	n/a	LTP197	ltpFR	9	n/a	n/a	n/a	n/a	n/a	n/a	n/a	13	6	4	3	n/a	n/a	n/a	n/a	n/a
1588968	PROB	n/a	LTP197	ltpFR	9	n/a	n/a	n/a	n/a	n/a	n/a	n/a	10	4	5	1	n/a	n/a	n/a	n/a	n/a
1590396	PROB	n/a	LTP197	ltpFR	9	n/a	n/a	n/a	n/a	n/a	n/a	n/a	18	8	6	3	n/a	n/a	n/a	n/a	n/a
1592029	PROB	n/a	LTP197	ltpFR	9	n/a	n/a	n/a	n/a	n/a	n/a	n/a	11	1	8	2	n/a	n/a	n/a	n/a	n/a
1593832	STOP	n/a	LTP197	ltpFR	9	n/a	n/a	n/a	n/a	n/a	n/a	n/a	n/a	n/a	n/a	n/a	n/a	n/a	n/a	n/a	n/a
1595447	WORD	wordpools/wasnorm_wordpool_less_exclusions.txt	LTP197	ltpFR	9	7	1	CHIMNEY	301	n/a	n/a	0	n/a	0	0	0	0.57763671875	0.412841796875	1	lower	zerothre.ttf
1598459	START	n/a	LTP197	ltpFR	9	n/a	n/a	n/a	n/a	n/a	n/a	n/a	n/a	n/a	n/a	n/a	n/a	n/a	n/a	n/a	n/a
1599647	PROB	n/a	LTP197	ltpFR	9	n/a	n/a	n/a	n/a	n/a	n/a	n/a	8	2	2	4	n/a	n/a	n/a	n/a	n/a
1601437	PROB	n/a	LTP197	ltpFR	9	n/a	n/a	n/a	n/a	n/a	n/a	n/a	19	9	7	3	n/a	n/a	n/a	n/a	n/a
1602769	PROB	n/a	LTP197	ltpFR	9	n/a	n/a	n/a	n/a	n/a	n/a	n/a	20	9	6	5	n/a	n/a	n/a	n/a	n/a
1604465	PROB	n/a	LTP197	ltpFR	9	n/a	n/a	n/a	n/a	n/a	n/a	n/a	8	3	3	4	n/a	n/a	n/a	n/a	n/a
1606073	STOP	n/a	LTP197	ltpFR	9	n/a	n/a	n/a	n/a	n/a	n/a	n/a	n/a	n/a	n/a	n/a	n/a	n/a	n/a	n/a	n/a
1607420	WORD	wordpools/wasnorm_wordpool_less_exclusions.txt	LTP197	ltpFR	9	7	1	RESTAURANT	1187	n/a	n/a	0	n/a	0	0	0	0.57763671875	0.412841796875	1	lower	zerothre.ttf
1610438	START	n/a	LTP197	ltpFR	9	n/a	n/a	n/a	n/a	n/a	n/a	n/a	n/a	n/a	n/a	n/a	n/a	n/a	n/a	n/a	n/a
1611285	PROB	n/a	LTP197	ltpFR	9	n/a	n/a	n/a	n/a	n/a	n/a	n/a	9	1	6	2	n/a	n/a	n/a	n/a	n/a
1612907	PROB	n/a	LTP197	ltpFR	9	n/a	n/a	n/a	n/a	n/a	n/a	n/a	10	3	3	4	n/a	n/a	n/a	n/a	n/a
1614647	PROB	n/a	LTP197	ltpFR	9	n/a	n/a	n/a	n/a	n/a	n/a	n/a	12	3	7	2	n/a	n/a	n/a	n/a	n/a
1616126	PROB	n/a	LTP197	ltpFR	9	n/a	n/a	n/a	n/a	n/a	n/a	n/a	14	5	8	1	n/a	n/a	n/a	n/a	n/a
1617823	STOP	n/a	LTP197	ltpFR	9	n/a	n/a	n/a	n/a	n/a	n/a	n/a	n/a	n/a	n/a	n/a	n/a	n/a	n/a	n/a	n/a
1619639	WORD	wordpools/wasnorm_wordpool_less_exclusions.txt	LTP197	ltpFR	9	7	1	BLANKET	135	n/a	n/a	0	n/a	0	0	0	0.57763671875	0.412841796875	1	lower	zerothre.ttf
1622650	START	n/a	LTP197	ltpFR	9	n/a	n/a	n/a	n/a	n/a	n/a	n/a	n/a	n/a	n/a	n/a	n/a	n/a	n/a	n/a	n/a
1623614	PROB	n/a	LTP197	ltpFR	9	n/a	n/a	n/a	n/a	n/a	n/a	n/a	16	5	5	6	n/a	n/a	n/a	n/a	n/a
1624841	PROB	n/a	LTP197	ltpFR	9	n/a	n/a	n/a	n/a	n/a	n/a	n/a	9	1	2	6	n/a	n/a	n/a	n/a	n/a
1626782	PROB	n/a	LTP197	ltpFR	9	n/a	n/a	n/a	n/a	n/a	n/a	n/a	17	8	7	2	n/a	n/a	n/a	n/a	n/a
1628783	PROB	n/a	LTP197	ltpFR	9	n/a	n/a	n/a	n/a	n/a	n/a	n/a	17	6	2	9	n/a	n/a	n/a	n/a	n/a
1630456	STOP	n/a	LTP197	ltpFR	9	n/a	n/a	n/a	n/a	n/a	n/a	n/a	n/a	n/a	n/a	n/a	n/a	n/a	n/a	n/a	n/a
1632532	REC_START	n/a	LTP197	ltpFR	9	7	n/a	n/a	n/a	n/a	n/a	n/a	n/a	0	0	0	n/a	n/a	n/a	n/a	n/a
1634178	REC_WORD	wordpools/wasnorm_wordpool_less_exclusions.txt	LTP197	ltpFR	9	7	1	TAIL	1430	n/a	n/a	1	n/a	0	0	0	n/a	n/a	n/a	n/a	n/a
1634951	REC_WORD	wordpools/wasnorm_wordpool_less_exclusions.txt	LTP197	ltpFR	9	7	1	TOE	1473	n/a	n/a	1	n/a	0	0	0	n/a	n/a	n/a	n/a	n/a
1635939	REC_WORD	wordpools/wasnorm_wordpool_less_exclusions.txt	LTP197	ltpFR	9	7	1	BLANKET	135	n/a	n/a	0	n/a	0	0	0	n/a	n/a	n/a	n/a	n/a
1637047	REC_WORD	wordpools/wasnorm_wordpool_less_exclusions.txt	LTP197	ltpFR	9	7	1	CHIMNEY	301	n/a	n/a	0	n/a	0	0	0	n/a	n/a	n/a	n/a	n/a
1637969	REC_WORD	wordpools/wasnorm_wordpool_less_exclusions.txt	LTP197	ltpFR	9	7	1	RESTAURANT	1187	n/a	n/a	0	n/a	0	0	0	n/a	n/a	n/a	n/a	n/a
1641721	REC_WORD	wordpools/wasnorm_wordpool_less_exclusions.txt	LTP197	ltpFR	9	7	1	DIGGER	464	n/a	n/a	1	n/a	0	0	0	n/a	n/a	n/a	n/a	n/a
1642973	REC_WORD	wordpools/wasnorm_wordpool_less_exclusions.txt	LTP197	ltpFR	9	7	1	JOKER	759	n/a	n/a	1	n/a	0	0	0	n/a	n/a	n/a	n/a	n/a
1644779	REC_WORD	wordpools/wasnorm_wordpool_less_exclusions.txt	LTP197	ltpFR	9	7	1	TILE	1468	n/a	n/a	0	n/a	0	0	0	n/a	n/a	n/a	n/a	n/a
1645637	REC_WORD	wordpools/wasnorm_wordpool_less_exclusions.txt	LTP197	ltpFR	9	7	1	GROUND	666	n/a	n/a	0	n/a	0	0	0	n/a	n/a	n/a	n/a	n/a
1718790	START	n/a	LTP197	ltpFR	9	n/a	n/a	n/a	n/a	n/a	n/a	n/a	n/a	n/a	n/a	n/a	n/a	n/a	n/a	n/a	n/a
1720302	PROB	n/a	LTP197	ltpFR	9	n/a	n/a	n/a	n/a	n/a	n/a	n/a	18	5	7	6	n/a	n/a	n/a	n/a	n/a
1722721	PROB	n/a	LTP197	ltpFR	9	n/a	n/a	n/a	n/a	n/a	n/a	n/a	11	6	1	4	n/a	n/a	n/a	n/a	n/a
1726790	STOP	n/a	LTP197	ltpFR	9	n/a	n/a	n/a	n/a	n/a	n/a	n/a	n/a	n/a	n/a	n/a	n/a	n/a	n/a	n/a	n/a
1727807	WORD	wordpools/wasnorm_wordpool_less_exclusions.txt	LTP197	ltpFR	9	8	0	CANOE	233	n/a	n/a	1	n/a	0	0	0	0.422607421875	0.5869140625	0	upper	amplitud.ttf
1730825	START	n/a	LTP197	ltpFR	9	n/a	n/a	n/a	n/a	n/a	n/a	n/a	n/a	n/a	n/a	n/a	n/a	n/a	n/a	n/a	n/a
1731839	PROB	n/a	LTP197	ltpFR	9	n/a	n/a	n/a	n/a	n/a	n/a	n/a	14	4	9	1	n/a	n/a	n/a	n/a	n/a
1733218	PROB	n/a	LTP197	ltpFR	9	n/a	n/a	n/a	n/a	n/a	n/a	n/a	12	2	4	4	n/a	n/a	n/a	n/a	n/a
1735303	PROB	n/a	LTP197	ltpFR	9	n/a	n/a	n/a	n/a	n/a	n/a	n/a	20	9	8	3	n/a	n/a	n/a	n/a	n/a
1737439	STOP	n/a	LTP197	ltpFR	9	n/a	n/a	n/a	n/a	n/a	n/a	n/a	n/a	n/a	n/a	n/a	n/a	n/a	n/a	n/a	n/a
1739775	WORD	wordpools/wasnorm_wordpool_less_exclusions.txt	LTP197	ltpFR	9	8	0	CELERY	266	n/a	n/a	0	n/a	0	0	0	0.422607421875	0.5869140625	0	upper	amplitud.ttf
1742787	START	n/a	LTP197	ltpFR	9	n/a	n/a	n/a	n/a	n/a	n/a	n/a	n/a	n/a	n/a	n/a	n/a	n/a	n/a	n/a	n/a
1743606	PROB	n/a	LTP197	ltpFR	9	n/a	n/a	n/a	n/a	n/a	n/a	n/a	8	1	6	1	n/a	n/a	n/a	n/a	n/a
1745079	PROB	n/a	LTP197	ltpFR	9	n/a	n/a	n/a	n/a	n/a	n/a	n/a	11	2	7	2	n/a	n/a	n/a	n/a	n/a
1746778	PROB	n/a	LTP197	ltpFR	9	n/a	n/a	n/a	n/a	n/a	n/a	n/a	19	3	7	9	n/a	n/a	n/a	n/a	n/a
1750787	STOP	n/a	LTP197	ltpFR	9	n/a	n/a	n/a	n/a	n/a	n/a	n/a	n/a	n/a	n/a	n/a	n/a	n/a	n/a	n/a	n/a
1751864	WORD	wordpools/wasnorm_wordpool_less_exclusions.txt	LTP197	ltpFR	9	8	1	TOMATO	1476	n/a	n/a	1	n/a	0	0	0	0.57763671875	0.412841796875	1	lower	zerothre.ttf
1754876	START	n/a	LTP197	ltpFR	9	n/a	n/a	n/a	n/a	n/a	n/a	n/a	n/a	n/a	n/a	n/a	n/a	n/a	n/a	n/a	n/a
1756087	PROB	n/a	LTP197	ltpFR	9	n/a	n/a	n/a	n/a	n/a	n/a	n/a	17	6	9	2	n/a	n/a	n/a	n/a	n/a
1757809	PROB	n/a	LTP197	ltpFR	9	n/a	n/a	n/a	n/a	n/a	n/a	n/a	8	5	1	2	n/a	n/a	n/a	n/a	n/a
1759650	PROB	n/a	LTP197	ltpFR	9	n/a	n/a	n/a	n/a	n/a	n/a	n/a	16	7	8	1	n/a	n/a	n/a	n/a	n/a
1761377	STOP	n/a	LTP197	ltpFR	9	n/a	n/a	n/a	n/a	n/a	n/a	n/a	n/a	n/a	n/a	n/a	n/a	n/a	n/a	n/a	n/a
1763715	WORD	wordpools/wasnorm_wordpool_less_exclusions.txt	LTP197	ltpFR	9	8	1	AUTHOR	61	n/a	n/a	1	n/a	0	0	0	0.57763671875	0.412841796875	1	lower	zerothre.ttf
1766727	START	n/a	LTP197	ltpFR	9	n/a	n/a	n/a	n/a	n/a	n/a	n/a	n/a	n/a	n/a	n/a	n/a	n/a	n/a	n/a	n/a
1767730	PROB	n/a	LTP197	ltpFR	9	n/a	n/a	n/a	n/a	n/a	n/a	n/a	19	6	5	8	n/a	n/a	n/a	n/a	n/a
1769130	PROB	n/a	LTP197	ltpFR	9	n/a	n/a	n/a	n/a	n/a	n/a	n/a	10	3	1	6	n/a	n/a	n/a	n/a	n/a
1770835	PROB	n/a	LTP197	ltpFR	9	n/a	n/a	n/a	n/a	n/a	n/a	n/a	21	6	6	9	n/a	n/a	n/a	n/a	n/a
1772475	PROB	n/a	LTP197	ltpFR	9	n/a	n/a	n/a	n/a	n/a	n/a	n/a	22	9	9	4	n/a	n/a	n/a	n/a	n/a
1774145	STOP	n/a	LTP197	ltpFR	9	n/a	n/a	n/a	n/a	n/a	n/a	n/a	n/a	n/a	n/a	n/a	n/a	n/a	n/a	n/a	n/a
1775945	WORD	wordpools/wasnorm_wordpool_less_exclusions.txt	LTP197	ltpFR	9	8	0	WEED	1599	n/a	n/a	1	n/a	0	0	0	0.422607421875	0.5869140625	0	upper	amplitud.ttf
1778957	START	n/a	LTP197	ltpFR	9	n/a	n/a	n/a	n/a	n/a	n/a	n/a	n/a	n/a	n/a	n/a	n/a	n/a	n/a	n/a	n/a
1780061	PROB	n/a	LTP197	ltpFR	9	n/a	n/a	n/a	n/a	n/a	n/a	n/a	11	6	3	2	n/a	n/a	n/a	n/a	n/a
1781393	PROB	n/a	LTP197	ltpFR	9	n/a	n/a	n/a	n/a	n/a	n/a	n/a	5	1	2	2	n/a	n/a	n/a	n/a	n/a
1782713	PROB	n/a	LTP197	ltpFR	9	n/a	n/a	n/a	n/a	n/a	n/a	n/a	17	3	6	8	n/a	n/a	n/a	n/a	n/a
1784594	PROB	n/a	LTP197	ltpFR	9	n/a	n/a	n/a	n/a	n/a	n/a	n/a	10	7	1	2	n/a	n/a	n/a	n/a	n/a
1786065	STOP	n/a	LTP197	ltpFR	9	n/a	n/a	n/a	n/a	n/a	n/a	n/a	n/a	n/a	n/a	n/a	n/a	n/a	n/a	n/a	n/a
1788091	WORD	wordpools/wasnorm_wordpool_less_exclusions.txt	LTP197	ltpFR	9	8	0	SWAMP	1416	n/a	n/a	3	n/a	0	0	0	0.422607421875	0.5869140625	0	upper	amplitud.ttf
1789696	KEY_MSG	n/a	LTP197	ltpFR	9	8	n/a	n/a	n/a	n/a	n/a	n/a	n/a	0	0	0	n/a	n/a	n/a	n/a	n/a
1791231	START	n/a	LTP197	ltpFR	9	n/a	n/a	n/a	n/a	n/a	n/a	n/a	n/a	n/a	n/a	n/a	n/a	n/a	n/a	n/a	n/a
1792207	PROB	n/a	LTP197	ltpFR	9	n/a	n/a	n/a	n/a	n/a	n/a	n/a	13	6	4	3	n/a	n/a	n/a	n/a	n/a
1794007	PROB	n/a	LTP197	ltpFR	9	n/a	n/a	n/a	n/a	n/a	n/a	n/a	18	3	7	8	n/a	n/a	n/a	n/a	n/a
1799230	STOP	n/a	LTP197	ltpFR	9	n/a	n/a	n/a	n/a	n/a	n/a	n/a	n/a	n/a	n/a	n/a	n/a	n/a	n/a	n/a	n/a
1800430	WORD	wordpools/wasnorm_wordpool_less_exclusions.txt	LTP197	ltpFR	9	8	0	FOLLOWER	589	n/a	n/a	1	n/a	0	0	0	0.422607421875	0.5869140625	0	upper	amplitud.ttf
1803442	START	n/a	LTP197	ltpFR	9	n/a	n/a	n/a	n/a	n/a	n/a	n/a	n/a	n/a	n/a	n/a	n/a	n/a	n/a	n/a	n/a
1804502	PROB	n/a	LTP197	ltpFR	9	n/a	n/a	n/a	n/a	n/a	n/a	n/a	7	1	4	2	n/a	n/a	n/a	n/a	n/a
1806142	PROB	n/a	LTP197	ltpFR	9	n/a	n/a	n/a	n/a	n/a	n/a	n/a	11	2	2	7	n/a	n/a	n/a	n/a	n/a
1807530	PROB	n/a	LTP197	ltpFR	9	n/a	n/a	n/a	n/a	n/a	n/a	n/a	27	9	9	9	n/a	n/a	n/a	n/a	n/a
1809221	PROB	n/a	LTP197	ltpFR	9	n/a	n/a	n/a	n/a	n/a	n/a	n/a	17	1	7	9	n/a	n/a	n/a	n/a	n/a
1811105	STOP	n/a	LTP197	ltpFR	9	n/a	n/a	n/a	n/a	n/a	n/a	n/a	n/a	n/a	n/a	n/a	n/a	n/a	n/a	n/a	n/a
1812509	WORD	wordpools/wasnorm_wordpool_less_exclusions.txt	LTP197	ltpFR	9	8	1	WITCH	1617	n/a	n/a	1	n/a	0	0	0	0.57763671875	0.412841796875	1	lower	zerothre.ttf
1815527	START	n/a	LTP197	ltpFR	9	n/a	n/a	n/a	n/a	n/a	n/a	n/a	n/a	n/a	n/a	n/a	n/a	n/a	n/a	n/a	n/a
1816564	PROB	n/a	LTP197	ltpFR	9	n/a	n/a	n/a	n/a	n/a	n/a	n/a	21	6	9	7	n/a	n/a	n/a	n/a	n/a
1820673	PROB	n/a	LTP197	ltpFR	9	n/a	n/a	n/a	n/a	n/a	n/a	n/a	18	2	8	8	n/a	n/a	n/a	n/a	n/a
1822273	STOP	n/a	LTP197	ltpFR	9	n/a	n/a	n/a	n/a	n/a	n/a	n/a	n/a	n/a	n/a	n/a	n/a	n/a	n/a	n/a	n/a
1824527	WORD	wordpools/wasnorm_wordpool_less_exclusions.txt	LTP197	ltpFR	9	8	1	YARD	1630	n/a	n/a	0	n/a	0	0	0	0.57763671875	0.412841796875	1	lower	zerothre.ttf
1827539	START	n/a	LTP197	ltpFR	9	n/a	n/a	n/a	n/a	n/a	n/a	n/a	n/a	n/a	n/a	n/a	n/a	n/a	n/a	n/a	n/a
1828403	PROB	n/a	LTP197	ltpFR	9	n/a	n/a	n/a	n/a	n/a	n/a	n/a	16	6	2	8	n/a	n/a	n/a	n/a	n/a
1829908	PROB	n/a	LTP197	ltpFR	9	n/a	n/a	n/a	n/a	n/a	n/a	n/a	23	9	6	8	n/a	n/a	n/a	n/a	n/a
1832919	PROB	n/a	LTP197	ltpFR	9	n/a	n/a	n/a	n/a	n/a	n/a	n/a	14	5	3	6	n/a	n/a	n/a	n/a	n/a
1834584	STOP	n/a	LTP197	ltpFR	9	n/a	n/a	n/a	n/a	n/a	n/a	n/a	n/a	n/a	n/a	n/a	n/a	n/a	n/a	n/a	n/a
1836539	WORD	wordpools/wasnorm_wordpool_less_exclusions.txt	LTP197	ltpFR	9	8	1	BOULEVARD	156	n/a	n/a	0	n/a	0	0	0	0.57763671875	0.412841796875	1	lower	zerothre.ttf
1839562	START	n/a	LTP197	ltpFR	9	n/a	n/a	n/a	n/a	n/a	n/a	n/a	n/a	n/a	n/a	n/a	n/a	n/a	n/a	n/a	n/a
1840405	PROB	n/a	LTP197	ltpFR	9	n/a	n/a	n/a	n/a	n/a	n/a	n/a	9	2	1	6	n/a	n/a	n/a	n/a	n/a
1842155	PROB	n/a	LTP197	ltpFR	9	n/a	n/a	n/a	n/a	n/a	n/a	n/a	10	7	2	1	n/a	n/a	n/a	n/a	n/a
1843583	PROB	n/a	LTP197	ltpFR	9	n/a	n/a	n/a	n/a	n/a	n/a	n/a	15	3	6	6	n/a	n/a	n/a	n/a	n/a
1845223	PROB	n/a	LTP197	ltpFR	9	n/a	n/a	n/a	n/a	n/a	n/a	n/a	9	3	4	2	n/a	n/a	n/a	n/a	n/a
1846792	STOP	n/a	LTP197	ltpFR	9	n/a	n/a	n/a	n/a	n/a	n/a	n/a	n/a	n/a	n/a	n/a	n/a	n/a	n/a	n/a	n/a
1848451	WORD	wordpools/wasnorm_wordpool_less_exclusions.txt	LTP197	ltpFR	9	8	1	SIDEWALK	1303	n/a	n/a	0	n/a	0	0	0	0.57763671875	0.412841796875	1	lower	zerothre.ttf
1851463	START	n/a	LTP197	ltpFR	9	n/a	n/a	n/a	n/a	n/a	n/a	n/a	n/a	n/a	n/a	n/a	n/a	n/a	n/a	n/a	n/a
1852483	PROB	n/a	LTP197	ltpFR	9	n/a	n/a	n/a	n/a	n/a	n/a	n/a	21	9	8	4	n/a	n/a	n/a	n/a	n/a
1855238	PROB	n/a	LTP197	ltpFR	9	n/a	n/a	n/a	n/a	n/a	n/a	n/a	15	5	1	9	n/a	n/a	n/a	n/a	n/a
1856843	PROB	n/a	LTP197	ltpFR	9	n/a	n/a	n/a	n/a	n/a	n/a	n/a	16	3	7	6	n/a	n/a	n/a	n/a	n/a
1858512	STOP	n/a	LTP197	ltpFR	9	n/a	n/a	n/a	n/a	n/a	n/a	n/a	n/a	n/a	n/a	n/a	n/a	n/a	n/a	n/a	n/a
1860557	WORD	wordpools/wasnorm_wordpool_less_exclusions.txt	LTP197	ltpFR	9	8	1	ALLIGATOR	16	n/a	n/a	1	n/a	0	0	0	0.57763671875	0.412841796875	1	lower	zerothre.ttf
1863569	START	n/a	LTP197	ltpFR	9	n/a	n/a	n/a	n/a	n/a	n/a	n/a	n/a	n/a	n/a	n/a	n/a	n/a	n/a	n/a	n/a
1864628	PROB	n/a	LTP197	ltpFR	9	n/a	n/a	n/a	n/a	n/a	n/a	n/a	21	6	9	7	n/a	n/a	n/a	n/a	n/a
1867300	PROB	n/a	LTP197	ltpFR	9	n/a	n/a	n/a	n/a	n/a	n/a	n/a	16	3	4	9	n/a	n/a	n/a	n/a	n/a
1868922	PROB	n/a	LTP197	ltpFR	9	n/a	n/a	n/a	n/a	n/a	n/a	n/a	10	5	2	3	n/a	n/a	n/a	n/a	n/a
1870552	STOP	n/a	LTP197	ltpFR	9	n/a	n/a	n/a	n/a	n/a	n/a	n/a	n/a	n/a	n/a	n/a	n/a	n/a	n/a	n/a	n/a
1872502	WORD	wordpools/wasnorm_wordpool_less_exclusions.txt	LTP197	ltpFR	9	8	1	PLUMBER	1091	n/a	n/a	1	n/a	0	0	0	0.57763671875	0.412841796875	1	lower	zerothre.ttf
1875514	START	n/a	LTP197	ltpFR	9	n/a	n/a	n/a	n/a	n/a	n/a	n/a	n/a	n/a	n/a	n/a	n/a	n/a	n/a	n/a	n/a
1876534	PROB	n/a	LTP197	ltpFR	9	n/a	n/a	n/a	n/a	n/a	n/a	n/a	9	4	3	2	n/a	n/a	n/a	n/a	n/a
1877940	PROB	n/a	LTP197	ltpFR	9	n/a	n/a	n/a	n/a	n/a	n/a	n/a	14	1	8	5	n/a	n/a	n/a	n/a	n/a
1879948	PROB	n/a	LTP197	ltpFR	9	n/a	n/a	n/a	n/a	n/a	n/a	n/a	11	4	6	1	n/a	n/a	n/a	n/a	n/a
1881342	PROB	n/a	LTP197	ltpFR	9	n/a	n/a	n/a	n/a	n/a	n/a	n/a	9	1	3	5	n/a	n/a	n/a	n/a	n/a
1883025	STOP	n/a	LTP197	ltpFR	9	n/a	n/a	n/a	n/a	n/a	n/a	n/a	n/a	n/a	n/a	n/a	n/a	n/a	n/a	n/a	n/a
1884587	WORD	wordpools/wasnorm_wordpool_less_exclusions.txt	LTP197	ltpFR	9	8	0	SILVERWARE	1308	n/a	n/a	0	n/a	0	0	0	0.422607421875	0.5869140625	0	upper	amplitud.ttf
1887599	START	n/a	LTP197	ltpFR	9	n/a	n/a	n/a	n/a	n/a	n/a	n/a	n/a	n/a	n/a	n/a	n/a	n/a	n/a	n/a	n/a
1888535	PROB	n/a	LTP197	ltpFR	9	n/a	n/a	n/a	n/a	n/a	n/a	n/a	15	8	2	5	n/a	n/a	n/a	n/a	n/a
1890393	PROB	n/a	LTP197	ltpFR	9	n/a	n/a	n/a	n/a	n/a	n/a	n/a	6	2	1	3	n/a	n/a	n/a	n/a	n/a
1891781	PROB	n/a	LTP197	ltpFR	9	n/a	n/a	n/a	n/a	n/a	n/a	n/a	18	5	6	7	n/a	n/a	n/a	n/a	n/a
1893298	PROB	n/a	LTP197	ltpFR	9	n/a	n/a	n/a	n/a	n/a	n/a	n/a	12	2	8	2	n/a	n/a	n/a	n/a	n/a
1894696	STOP	n/a	LTP197	ltpFR	9	n/a	n/a	n/a	n/a	n/a	n/a	n/a	n/a	n/a	n/a	n/a	n/a	n/a	n/a	n/a	n/a
1896710	WORD	wordpools/wasnorm_wordpool_less_exclusions.txt	LTP197	ltpFR	9	8	0	GROCERIES	663	n/a	n/a	1	n/a	0	0	0	0.422607421875	0.5869140625	0	upper	amplitud.ttf
1899722	START	n/a	LTP197	ltpFR	9	n/a	n/a	n/a	n/a	n/a	n/a	n/a	n/a	n/a	n/a	n/a	n/a	n/a	n/a	n/a	n/a
1900742	PROB	n/a	LTP197	ltpFR	9	n/a	n/a	n/a	n/a	n/a	n/a	n/a	10	2	5	3	n/a	n/a	n/a	n/a	n/a
1902755	PROB	n/a	LTP197	ltpFR	9	n/a	n/a	n/a	n/a	n/a	n/a	n/a	17	4	6	7	n/a	n/a	n/a	n/a	n/a
1904189	PROB	n/a	LTP197	ltpFR	9	n/a	n/a	n/a	n/a	n/a	n/a	n/a	13	2	5	6	n/a	n/a	n/a	n/a	n/a
1905946	PROB	n/a	LTP197	ltpFR	9	n/a	n/a	n/a	n/a	n/a	n/a	n/a	16	1	8	7	n/a	n/a	n/a	n/a	n/a
1907376	STOP	n/a	LTP197	ltpFR	9	n/a	n/a	n/a	n/a	n/a	n/a	n/a	n/a	n/a	n/a	n/a	n/a	n/a	n/a	n/a	n/a
1908577	WORD	wordpools/wasnorm_wordpool_less_exclusions.txt	LTP197	ltpFR	9	8	0	CRUMB	416	n/a	n/a	0	n/a	0	0	0	0.422607421875	0.5869140625	0	upper	amplitud.ttf
1911589	START	n/a	LTP197	ltpFR	9	n/a	n/a	n/a	n/a	n/a	n/a	n/a	n/a	n/a	n/a	n/a	n/a	n/a	n/a	n/a	n/a
1912609	PROB	n/a	LTP197	ltpFR	9	n/a	n/a	n/a	n/a	n/a	n/a	n/a	18	8	2	8	n/a	n/a	n/a	n/a	n/a
1913932	PROB	n/a	LTP197	ltpFR	9	n/a	n/a	n/a	n/a	n/a	n/a	n/a	26	8	9	9	n/a	n/a	n/a	n/a	n/a
1916758	PROB	n/a	LTP197	ltpFR	9	n/a	n/a	n/a	n/a	n/a	n/a	n/a	23	9	7	7	n/a	n/a	n/a	n/a	n/a
1918504	STOP	n/a	LTP197	ltpFR	9	n/a	n/a	n/a	n/a	n/a	n/a	n/a	n/a	n/a	n/a	n/a	n/a	n/a	n/a	n/a	n/a
1921544	REC_START	n/a	LTP197	ltpFR	9	8	n/a	n/a	n/a	n/a	n/a	n/a	n/a	0	0	0	n/a	n/a	n/a	n/a	n/a
1923879	REC_WORD	wordpools/wasnorm_wordpool_less_exclusions.txt	LTP197	ltpFR	9	8	0	CRUMB	416	n/a	n/a	0	n/a	0	0	0	n/a	n/a	n/a	n/a	n/a
1924681	REC_WORD	wordpools/wasnorm_wordpool_less_exclusions.txt	LTP197	ltpFR	9	8	0	FOLLOWER	589	n/a	n/a	1	n/a	0	0	0	n/a	n/a	n/a	n/a	n/a
1925681	REC_WORD_VV	wordpools/wasnorm_wordpool_less_exclusions.txt	LTP197	ltpFR	9	8	n/a	<>	-1	n/a	n/a	n/a	n/a	0	0	0	n/a	n/a	n/a	n/a	n/a
1925984	REC_WORD	wordpools/wasnorm_wordpool_less_exclusions.txt	LTP197	ltpFR	9	8	1	WITCH	1617	n/a	n/a	1	n/a	0	0	0	n/a	n/a	n/a	n/a	n/a
1927046	REC_WORD	wordpools/wasnorm_wordpool_less_exclusions.txt	LTP197	ltpFR	9	8	0	CANOE	233	n/a	n/a	1	n/a	0	0	0	n/a	n/a	n/a	n/a	n/a
1928563	REC_WORD	wordpools/wasnorm_wordpool_less_exclusions.txt	LTP197	ltpFR	9	8	0	CELERY	266	n/a	n/a	0	n/a	0	0	0	n/a	n/a	n/a	n/a	n/a
1929496	REC_WORD	wordpools/wasnorm_wordpool_less_exclusions.txt	LTP197	ltpFR	9	8	1	TOMATO	1476	n/a	n/a	1	n/a	0	0	0	n/a	n/a	n/a	n/a	n/a
1930763	REC_WORD	wordpools/wasnorm_wordpool_less_exclusions.txt	LTP197	ltpFR	9	8	1	AUTHOR	61	n/a	n/a	1	n/a	0	0	0	n/a	n/a	n/a	n/a	n/a
1932005	REC_WORD	wordpools/wasnorm_wordpool_less_exclusions.txt	LTP197	ltpFR	9	8	0	WEED	1599	n/a	n/a	1	n/a	0	0	0	n/a	n/a	n/a	n/a	n/a
1948712	REC_WORD	wordpools/wasnorm_wordpool_less_exclusions.txt	LTP197	ltpFR	9	8	1	YARD	1630	n/a	n/a	0	n/a	0	0	0	n/a	n/a	n/a	n/a	n/a
1949590	REC_WORD	wordpools/wasnorm_wordpool_less_exclusions.txt	LTP197	ltpFR	9	8	1	BOULEVARD	156	n/a	n/a	0	n/a	0	0	0	n/a	n/a	n/a	n/a	n/a
2007200	WORD	wordpools/wasnorm_wordpool_less_exclusions.txt	LTP197	ltpFR	9	9	0	LOFT	840	n/a	n/a	1	n/a	0	0	0	0.422607421875	0.5869140625	0	upper	amplitud.ttf
2011282	WORD	wordpools/wasnorm_wordpool_less_exclusions.txt	LTP197	ltpFR	9	9	0	JUG	762	n/a	n/a	0	n/a	0	0	0	0.422607421875	0.5869140625	0	upper	amplitud.ttf
2015347	WORD	wordpools/wasnorm_wordpool_less_exclusions.txt	LTP197	ltpFR	9	9	0	DESSERT	453	n/a	n/a	0	n/a	0	0	0	0.422607421875	0.5869140625	0	upper	amplitud.ttf
2019273	WORD	wordpools/wasnorm_wordpool_less_exclusions.txt	LTP197	ltpFR	9	9	0	AIRCRAFT	11	n/a	n/a	1	n/a	0	0	0	0.422607421875	0.5869140625	0	upper	amplitud.ttf
2023344	WORD	wordpools/wasnorm_wordpool_less_exclusions.txt	LTP197	ltpFR	9	9	0	BALCONY	72	n/a	n/a	1	n/a	0	0	0	0.422607421875	0.5869140625	0	upper	amplitud.ttf
2027320	WORD	wordpools/wasnorm_wordpool_less_exclusions.txt	LTP197	ltpFR	9	9	0	LIMOUSINE	824	n/a	n/a	1	n/a	0	0	0	0.422607421875	0.5869140625	0	upper	amplitud.ttf
2031501	WORD	wordpools/wasnorm_wordpool_less_exclusions.txt	LTP197	ltpFR	9	9	0	CHEERLEADER	288	n/a	n/a	1	n/a	0	0	0	0.422607421875	0.5869140625	0	upper	amplitud.ttf
2035539	WORD	wordpools/wasnorm_wordpool_less_exclusions.txt	LTP197	ltpFR	9	9	0	GRADUATE	653	n/a	n/a	1	n/a	0	0	0	0.422607421875	0.5869140625	0	upper	amplitud.ttf
2039498	WORD	wordpools/wasnorm_wordpool_less_exclusions.txt	LTP197	ltpFR	9	9	0	COTTAGE	384	n/a	n/a	0	n/a	0	0	0	0.422607421875	0.5869140625	0	upper	amplitud.ttf
2043687	WORD	wordpools/wasnorm_wordpool_less_exclusions.txt	LTP197	ltpFR	9	9	0	SUBMARINE	1398	n/a	n/a	1	n/a	0	0	0	0.422607421875	0.5869140625	0	upper	amplitud.ttf
2047635	WORD	wordpools/wasnorm_wordpool_less_exclusions.txt	LTP197	ltpFR	9	9	0	PARROT	1015	n/a	n/a	0	n/a	0	0	0	0.422607421875	0.5869140625	0	upper	amplitud.ttf
2051627	WORD	wordpools/wasnorm_wordpool_less_exclusions.txt	LTP197	ltpFR	9	9	0	PANTS	1010	n/a	n/a	0	n/a	0	0	0	0.422607421875	0.5869140625	0	upper	amplitud.ttf
2055475	WORD	wordpools/wasnorm_wordpool_less_exclusions.txt	LTP197	ltpFR	9	9	0	JEANS	752	n/a	n/a	0	n/a	0	0	0	0.422607421875	0.5869140625	0	upper	amplitud.ttf
2059407	WORD	wordpools/wasnorm_wordpool_less_exclusions.txt	LTP197	ltpFR	9	9	0	CLAW	319	n/a	n/a	0	n/a	0	0	0	0.422607421875	0.5869140625	0	upper	amplitud.ttf
2063328	WORD	wordpools/wasnorm_wordpool_less_exclusions.txt	LTP197	ltpFR	9	9	0	BEAR	106	n/a	n/a	1	n/a	0	0	0	0.422607421875	0.5869140625	0	upper	amplitud.ttf
2067276	WORD	wordpools/wasnorm_wordpool_less_exclusions.txt	LTP197	ltpFR	9	9	0	FEATHER	557	n/a	n/a	0	n/a	0	0	0	0.422607421875	0.5869140625	0	upper	amplitud.ttf
2073126	REC_START	n/a	LTP197	ltpFR	9	9	n/a	n/a	n/a	n/a	n/a	n/a	n/a	0	0	0	n/a	n/a	n/a	n/a	n/a
2074054	REC_WORD	wordpools/wasnorm_wordpool_less_exclusions.txt	LTP197	ltpFR	9	9	0	FEATHER	557	n/a	n/a	0	n/a	0	0	0	n/a	n/a	n/a	n/a	n/a
2075146	REC_WORD	wordpools/wasnorm_wordpool_less_exclusions.txt	LTP197	ltpFR	9	9	0	CLAW	319	n/a	n/a	0	n/a	0	0	0	n/a	n/a	n/a	n/a	n/a
2075994	REC_WORD	wordpools/wasnorm_wordpool_less_exclusions.txt	LTP197	ltpFR	9	9	0	BEAR	106	n/a	n/a	1	n/a	0	0	0	n/a	n/a	n/a	n/a	n/a
2076708	REC_WORD	wordpools/wasnorm_wordpool_less_exclusions.txt	LTP197	ltpFR	9	9	0	JEANS	752	n/a	n/a	0	n/a	0	0	0	n/a	n/a	n/a	n/a	n/a
2077665	REC_WORD	wordpools/wasnorm_wordpool_less_exclusions.txt	LTP197	ltpFR	9	9	0	PANTS	1010	n/a	n/a	0	n/a	0	0	0	n/a	n/a	n/a	n/a	n/a
2079850	REC_WORD	wordpools/wasnorm_wordpool_less_exclusions.txt	LTP197	ltpFR	9	9	0	LIMOUSINE	824	n/a	n/a	1	n/a	0	0	0	n/a	n/a	n/a	n/a	n/a
2080729	REC_WORD	wordpools/wasnorm_wordpool_less_exclusions.txt	LTP197	ltpFR	9	9	0	CHEERLEADER	288	n/a	n/a	1	n/a	0	0	0	n/a	n/a	n/a	n/a	n/a
2081607	REC_WORD	wordpools/wasnorm_wordpool_less_exclusions.txt	LTP197	ltpFR	9	9	0	GRADUATE	653	n/a	n/a	1	n/a	0	0	0	n/a	n/a	n/a	n/a	n/a
2082714	REC_WORD	wordpools/wasnorm_wordpool_less_exclusions.txt	LTP197	ltpFR	9	9	0	SUBMARINE	1398	n/a	n/a	1	n/a	0	0	0	n/a	n/a	n/a	n/a	n/a
2083881	REC_WORD	wordpools/wasnorm_wordpool_less_exclusions.txt	LTP197	ltpFR	9	9	0	AIRCRAFT	11	n/a	n/a	1	n/a	0	0	0	n/a	n/a	n/a	n/a	n/a
2084979	REC_WORD	wordpools/wasnorm_wordpool_less_exclusions.txt	LTP197	ltpFR	9	9	0	COTTAGE	384	n/a	n/a	0	n/a	0	0	0	n/a	n/a	n/a	n/a	n/a
2085996	REC_WORD	wordpools/wasnorm_wordpool_less_exclusions.txt	LTP197	ltpFR	9	9	0	LOFT	840	n/a	n/a	1	n/a	0	0	0	n/a	n/a	n/a	n/a	n/a
2088431	REC_WORD	wordpools/wasnorm_wordpool_less_exclusions.txt	LTP197	ltpFR	9	9	0	JUG	762	n/a	n/a	0	n/a	0	0	0	n/a	n/a	n/a	n/a	n/a
2089294	REC_WORD	wordpools/wasnorm_wordpool_less_exclusions.txt	LTP197	ltpFR	9	9	0	DESSERT	453	n/a	n/a	0	n/a	0	0	0	n/a	n/a	n/a	n/a	n/a
2165948	WORD	wordpools/wasnorm_wordpool_less_exclusions.txt	LTP197	ltpFR	9	10	1	CHAIRPERSON	275	n/a	n/a	1	n/a	0	0	0	0.57763671875	0.412841796875	1	lower	zerothre.ttf
2169896	WORD	wordpools/wasnorm_wordpool_less_exclusions.txt	LTP197	ltpFR	9	10	1	SOCIETY	1338	n/a	n/a	1	n/a	0	0	0	0.57763671875	0.412841796875	1	lower	zerothre.ttf
2173871	WORD	wordpools/wasnorm_wordpool_less_exclusions.txt	LTP197	ltpFR	9	10	1	SCARF	1246	n/a	n/a	0	n/a	0	0	0	0.57763671875	0.412841796875	1	lower	zerothre.ttf
2178010	WORD	wordpools/wasnorm_wordpool_less_exclusions.txt	LTP197	ltpFR	9	10	1	HOOK	715	n/a	n/a	0	n/a	0	0	0	0.57763671875	0.412841796875	1	lower	zerothre.ttf
2182176	WORD	wordpools/wasnorm_wordpool_less_exclusions.txt	LTP197	ltpFR	9	10	0	HERB	704	n/a	n/a	0	n/a	0	0	0	0.422607421875	0.5869140625	0	upper	amplitud.ttf
2186108	WORD	wordpools/wasnorm_wordpool_less_exclusions.txt	LTP197	ltpFR	9	10	0	BRUNETTE	181	n/a	n/a	0	n/a	0	0	0	0.422607421875	0.5869140625	0	upper	amplitud.ttf
2190223	WORD	wordpools/wasnorm_wordpool_less_exclusions.txt	LTP197	ltpFR	9	10	0	BANDANNA	80	n/a	n/a	0	n/a	0	0	0	0.422607421875	0.5869140625	0	upper	amplitud.ttf
2194054	WORD	wordpools/wasnorm_wordpool_less_exclusions.txt	LTP197	ltpFR	9	10	1	BANK	83	n/a	n/a	0	n/a	0	0	0	0.57763671875	0.412841796875	1	lower	zerothre.ttf
2198113	WORD	wordpools/wasnorm_wordpool_less_exclusions.txt	LTP197	ltpFR	9	10	1	ANTENNA	28	n/a	n/a	0	n/a	0	0	0	0.57763671875	0.412841796875	1	lower	zerothre.ttf
2202051	WORD	wordpools/wasnorm_wordpool_less_exclusions.txt	LTP197	ltpFR	9	10	1	COAT	333	n/a	n/a	0	n/a	0	0	0	0.57763671875	0.412841796875	1	lower	zerothre.ttf
2206043	WORD	wordpools/wasnorm_wordpool_less_exclusions.txt	LTP197	ltpFR	9	10	1	MACARONI	851	n/a	n/a	0	n/a	0	0	0	0.57763671875	0.412841796875	1	lower	zerothre.ttf
2209880	WORD	wordpools/wasnorm_wordpool_less_exclusions.txt	LTP197	ltpFR	9	10	0	VENUS	1557	n/a	n/a	1	n/a	0	0	0	0.422607421875	0.5869140625	0	upper	amplitud.ttf
2213838	WORD	wordpools/wasnorm_wordpool_less_exclusions.txt	LTP197	ltpFR	9	10	0	EARTH	515	n/a	n/a	1	n/a	0	0	0	0.422607421875	0.5869140625	0	upper	amplitud.ttf
2218038	WORD	wordpools/wasnorm_wordpool_less_exclusions.txt	LTP197	ltpFR	9	10	0	PIZZA	1079	n/a	n/a	0	n/a	0	0	0	0.422607421875	0.5869140625	0	upper	amplitud.ttf
2221885	WORD	wordpools/wasnorm_wordpool_less_exclusions.txt	LTP197	ltpFR	9	10	0	QUAIL	1147	n/a	n/a	1	n/a	0	0	0	0.422607421875	0.5869140625	0	upper	amplitud.ttf
2225890	WORD	wordpools/wasnorm_wordpool_less_exclusions.txt	LTP197	ltpFR	9	10	0	COD	340	n/a	n/a	1	n/a	0	0	0	0.422607421875	0.5869140625	0	upper	amplitud.ttf
2228902	START	n/a	LTP197	ltpFR	9	n/a	n/a	n/a	n/a	n/a	n/a	n/a	n/a	n/a	n/a	n/a	n/a	n/a	n/a	n/a	n/a
2229738	PROB	n/a	LTP197	ltpFR	9	n/a	n/a	n/a	n/a	n/a	n/a	n/a	15	8	1	6	n/a	n/a	n/a	n/a	n/a
2232181	PROB	n/a	LTP197	ltpFR	9	n/a	n/a	n/a	n/a	n/a	n/a	n/a	10	4	1	5	n/a	n/a	n/a	n/a	n/a
2233797	PROB	n/a	LTP197	ltpFR	9	n/a	n/a	n/a	n/a	n/a	n/a	n/a	20	9	2	9	n/a	n/a	n/a	n/a	n/a
2235956	PROB	n/a	LTP197	ltpFR	9	n/a	n/a	n/a	n/a	n/a	n/a	n/a	19	4	8	7	n/a	n/a	n/a	n/a	n/a
2238984	PROB	n/a	LTP197	ltpFR	9	n/a	n/a	n/a	n/a	n/a	n/a	n/a	15	3	3	9	n/a	n/a	n/a	n/a	n/a
2240622	PROB	n/a	LTP197	ltpFR	9	n/a	n/a	n/a	n/a	n/a	n/a	n/a	23	7	8	7	n/a	n/a	n/a	n/a	n/a
2244081	STOP	n/a	LTP197	ltpFR	9	n/a	n/a	n/a	n/a	n/a	n/a	n/a	n/a	n/a	n/a	n/a	n/a	n/a	n/a	n/a	n/a
2246702	REC_START	n/a	LTP197	ltpFR	9	10	n/a	n/a	n/a	n/a	n/a	n/a	n/a	0	0	0	n/a	n/a	n/a	n/a	n/a
2247724	REC_WORD	wordpools/wasnorm_wordpool_less_exclusions.txt	LTP197	ltpFR	9	10	0	VENUS	1557	n/a	n/a	1	n/a	0	0	0	n/a	n/a	n/a	n/a	n/a
2248577	REC_WORD	wordpools/wasnorm_wordpool_less_exclusions.txt	LTP197	ltpFR	9	10	0	EARTH	515	n/a	n/a	1	n/a	0	0	0	n/a	n/a	n/a	n/a	n/a
2249460	REC_WORD	wordpools/wasnorm_wordpool_less_exclusions.txt	LTP197	ltpFR	9	10	0	QUAIL	1147	n/a	n/a	1	n/a	0	0	0	n/a	n/a	n/a	n/a	n/a
2251491	REC_WORD	wordpools/wasnorm_wordpool_less_exclusions.txt	LTP197	ltpFR	9	10	0	PIZZA	1079	n/a	n/a	0	n/a	0	0	0	n/a	n/a	n/a	n/a	n/a
2252319	REC_WORD	wordpools/wasnorm_wordpool_less_exclusions.txt	LTP197	ltpFR	9	10	0	COD	340	n/a	n/a	1	n/a	0	0	0	n/a	n/a	n/a	n/a	n/a
2253441	REC_WORD	wordpools/wasnorm_wordpool_less_exclusions.txt	LTP197	ltpFR	9	10	1	MACARONI	851	n/a	n/a	0	n/a	0	0	0	n/a	n/a	n/a	n/a	n/a
2254609	REC_WORD	wordpools/wasnorm_wordpool_less_exclusions.txt	LTP197	ltpFR	9	10	1	CHAIRPERSON	275	n/a	n/a	1	n/a	0	0	0	n/a	n/a	n/a	n/a	n/a
2255771	REC_WORD	wordpools/wasnorm_wordpool_less_exclusions.txt	LTP197	ltpFR	9	10	1	BANK	83	n/a	n/a	0	n/a	0	0	0	n/a	n/a	n/a	n/a	n/a
2256351	REC_WORD	wordpools/wasnorm_wordpool_less_exclusions.txt	LTP197	ltpFR	9	10	1	SOCIETY	1338	n/a	n/a	1	n/a	0	0	0	n/a	n/a	n/a	n/a	n/a
2257351	REC_WORD_VV	wordpools/wasnorm_wordpool_less_exclusions.txt	LTP197	ltpFR	9	10	n/a	<>	-1	n/a	n/a	n/a	n/a	0	0	0	n/a	n/a	n/a	n/a	n/a
2258056	REC_WORD	wordpools/wasnorm_wordpool_less_exclusions.txt	LTP197	ltpFR	9	10	1	ANTENNA	28	n/a	n/a	0	n/a	0	0	0	n/a	n/a	n/a	n/a	n/a
2265489	REC_WORD	wordpools/wasnorm_wordpool_less_exclusions.txt	LTP197	ltpFR	9	10	1	HOOK	715	n/a	n/a	0	n/a	0	0	0	n/a	n/a	n/a	n/a	n/a
2266587	REC_WORD	wordpools/wasnorm_wordpool_less_exclusions.txt	LTP197	ltpFR	9	10	1	COAT	333	n/a	n/a	0	n/a	0	0	0	n/a	n/a	n/a	n/a	n/a
2267085	REC_WORD	wordpools/wasnorm_wordpool_less_exclusions.txt	LTP197	ltpFR	9	10	1	SCARF	1246	n/a	n/a	0	n/a	0	0	0	n/a	n/a	n/a	n/a	n/a
2322354	REST_REWET	n/a	LTP197	ltpFR	9	10	n/a	n/a	n/a	n/a	n/a	n/a	n/a	0	0	0	n/a	n/a	n/a	n/a	n/a
2846088	WORD	wordpools/wasnorm_wordpool_less_exclusions.txt	LTP197	ltpFR	9	11	0	PARENT	1013	n/a	n/a	1	n/a	0	0	0	0.422607421875	0.5869140625	0	upper	amplitud.ttf
2849919	WORD	wordpools/wasnorm_wordpool_less_exclusions.txt	LTP197	ltpFR	9	11	0	OUTFIT	988	n/a	n/a	1	n/a	0	0	0	0.422607421875	0.5869140625	0	upper	amplitud.ttf
2853991	WORD	wordpools/wasnorm_wordpool_less_exclusions.txt	LTP197	ltpFR	9	11	0	COLESLAW	344	n/a	n/a	0	n/a	0	0	0	0.422607421875	0.5869140625	0	upper	amplitud.ttf
2858050	WORD	wordpools/wasnorm_wordpool_less_exclusions.txt	LTP197	ltpFR	9	11	0	RICE	1190	n/a	n/a	0	n/a	0	0	0	0.422607421875	0.5869140625	0	upper	amplitud.ttf
2862155	WORD	wordpools/wasnorm_wordpool_less_exclusions.txt	LTP197	ltpFR	9	11	0	CARAVAN	242	n/a	n/a	1	n/a	0	0	0	0.422607421875	0.5869140625	0	upper	amplitud.ttf
2866354	WORD	wordpools/wasnorm_wordpool_less_exclusions.txt	LTP197	ltpFR	9	11	0	JUPITER	765	n/a	n/a	1	n/a	0	0	0	0.422607421875	0.5869140625	0	upper	amplitud.ttf
2870429	WORD	wordpools/wasnorm_wordpool_less_exclusions.txt	LTP197	ltpFR	9	11	0	BANKER	84	n/a	n/a	1	n/a	0	0	0	0.422607421875	0.5869140625	0	upper	amplitud.ttf
2874628	WORD	wordpools/wasnorm_wordpool_less_exclusions.txt	LTP197	ltpFR	9	11	0	HERD	705	n/a	n/a	1	n/a	0	0	0	0.422607421875	0.5869140625	0	upper	amplitud.ttf
2878733	WORD	wordpools/wasnorm_wordpool_less_exclusions.txt	LTP197	ltpFR	9	11	0	COW	393	n/a	n/a	1	n/a	0	0	0	0.422607421875	0.5869140625	0	upper	amplitud.ttf
2882944	WORD	wordpools/wasnorm_wordpool_less_exclusions.txt	LTP197	ltpFR	9	11	0	SCREW	1254	n/a	n/a	0	n/a	0	0	0	0.422607421875	0.5869140625	0	upper	amplitud.ttf
2887099	WORD	wordpools/wasnorm_wordpool_less_exclusions.txt	LTP197	ltpFR	9	11	0	BOTTLE	153	n/a	n/a	0	n/a	0	0	0	0.422607421875	0.5869140625	0	upper	amplitud.ttf
2891148	WORD	wordpools/wasnorm_wordpool_less_exclusions.txt	LTP197	ltpFR	9	11	0	COMMANDER	354	n/a	n/a	1	n/a	0	0	0	0.422607421875	0.5869140625	0	upper	amplitud.ttf
2895263	WORD	wordpools/wasnorm_wordpool_less_exclusions.txt	LTP197	ltpFR	9	11	0	GOWN	652	n/a	n/a	1	n/a	0	0	0	0.422607421875	0.5869140625	0	upper	amplitud.ttf
2899094	WORD	wordpools/wasnorm_wordpool_less_exclusions.txt	LTP197	ltpFR	9	11	0	TURTLE	1522	n/a	n/a	0	n/a	0	0	0	0.422607421875	0.5869140625	0	upper	amplitud.ttf
2903110	WORD	wordpools/wasnorm_wordpool_less_exclusions.txt	LTP197	ltpFR	9	11	0	LIEUTENANT	818	n/a	n/a	1	n/a	0	0	0	0.422607421875	0.5869140625	0	upper	amplitud.ttf
2907024	WORD	wordpools/wasnorm_wordpool_less_exclusions.txt	LTP197	ltpFR	9	11	0	VEHICLE	1553	n/a	n/a	1	n/a	0	0	0	0.422607421875	0.5869140625	0	upper	amplitud.ttf
2910036	START	n/a	LTP197	ltpFR	9	n/a	n/a	n/a	n/a	n/a	n/a	n/a	n/a	n/a	n/a	n/a	n/a	n/a	n/a	n/a	n/a
2910921	PROB	n/a	LTP197	ltpFR	9	n/a	n/a	n/a	n/a	n/a	n/a	n/a	19	7	9	3	n/a	n/a	n/a	n/a	n/a
2912997	PROB	n/a	LTP197	ltpFR	9	n/a	n/a	n/a	n/a	n/a	n/a	n/a	13	4	7	2	n/a	n/a	n/a	n/a	n/a
2914913	PROB	n/a	LTP197	ltpFR	9	n/a	n/a	n/a	n/a	n/a	n/a	n/a	16	6	1	9	n/a	n/a	n/a	n/a	n/a
2916419	PROB	n/a	LTP197	ltpFR	9	n/a	n/a	n/a	n/a	n/a	n/a	n/a	18	1	9	8	n/a	n/a	n/a	n/a	n/a
2917800	STOP	n/a	LTP197	ltpFR	9	n/a	n/a	n/a	n/a	n/a	n/a	n/a	n/a	n/a	n/a	n/a	n/a	n/a	n/a	n/a	n/a
2919873	REC_START	n/a	LTP197	ltpFR	9	11	n/a	n/a	n/a	n/a	n/a	n/a	n/a	0	0	0	n/a	n/a	n/a	n/a	n/a
2921459	REC_WORD	wordpools/wasnorm_wordpool_less_exclusions.txt	LTP197	ltpFR	9	11	0	LIEUTENANT	818	n/a	n/a	1	n/a	0	0	0	n/a	n/a	n/a	n/a	n/a
2922158	REC_WORD	wordpools/wasnorm_wordpool_less_exclusions.txt	LTP197	ltpFR	9	11	0	COMMANDER	354	n/a	n/a	1	n/a	0	0	0	n/a	n/a	n/a	n/a	n/a
2923290	REC_WORD	wordpools/wasnorm_wordpool_less_exclusions.txt	LTP197	ltpFR	9	11	0	GOWN	652	n/a	n/a	1	n/a	0	0	0	n/a	n/a	n/a	n/a	n/a
2924747	REC_WORD	wordpools/wasnorm_wordpool_less_exclusions.txt	LTP197	ltpFR	9	11	0	HERD	705	n/a	n/a	1	n/a	0	0	0	n/a	n/a	n/a	n/a	n/a
2925570	REC_WORD	wordpools/wasnorm_wordpool_less_exclusions.txt	LTP197	ltpFR	9	11	0	COW	393	n/a	n/a	1	n/a	0	0	0	n/a	n/a	n/a	n/a	n/a
2928304	REC_WORD	wordpools/wasnorm_wordpool_less_exclusions.txt	LTP197	ltpFR	9	11	0	VEHICLE	1553	n/a	n/a	1	n/a	0	0	0	n/a	n/a	n/a	n/a	n/a
2929202	REC_WORD	wordpools/wasnorm_wordpool_less_exclusions.txt	LTP197	ltpFR	9	11	0	CARAVAN	242	n/a	n/a	1	n/a	0	0	0	n/a	n/a	n/a	n/a	n/a
2930339	REC_WORD	wordpools/wasnorm_wordpool_less_exclusions.txt	LTP197	ltpFR	9	11	0	TURTLE	1522	n/a	n/a	0	n/a	0	0	0	n/a	n/a	n/a	n/a	n/a
2931232	REC_WORD	wordpools/wasnorm_wordpool_less_exclusions.txt	LTP197	ltpFR	9	11	0	SCREW	1254	n/a	n/a	0	n/a	0	0	0	n/a	n/a	n/a	n/a	n/a
2933342	REC_WORD	wordpools/wasnorm_wordpool_less_exclusions.txt	LTP197	ltpFR	9	11	0	PARENT	1013	n/a	n/a	1	n/a	0	0	0	n/a	n/a	n/a	n/a	n/a
2935253	REC_WORD	wordpools/wasnorm_wordpool_less_exclusions.txt	LTP197	ltpFR	9	11	0	BANKER	84	n/a	n/a	1	n/a	0	0	0	n/a	n/a	n/a	n/a	n/a
2936335	REC_WORD	wordpools/wasnorm_wordpool_less_exclusions.txt	LTP197	ltpFR	9	11	0	OUTFIT	988	n/a	n/a	1	n/a	0	0	0	n/a	n/a	n/a	n/a	n/a
2937607	REC_WORD	wordpools/wasnorm_wordpool_less_exclusions.txt	LTP197	ltpFR	9	11	0	COLESLAW	344	n/a	n/a	0	n/a	0	0	0	n/a	n/a	n/a	n/a	n/a
2939204	REC_WORD	wordpools/wasnorm_wordpool_less_exclusions.txt	LTP197	ltpFR	9	11	0	RICE	1190	n/a	n/a	0	n/a	0	0	0	n/a	n/a	n/a	n/a	n/a
2997242	START	n/a	LTP197	ltpFR	9	n/a	n/a	n/a	n/a	n/a	n/a	n/a	n/a	n/a	n/a	n/a	n/a	n/a	n/a	n/a	n/a
2998752	PROB	n/a	LTP197	ltpFR	9	n/a	n/a	n/a	n/a	n/a	n/a	n/a	7	1	5	1	n/a	n/a	n/a	n/a	n/a
3000436	PROB	n/a	LTP197	ltpFR	9	n/a	n/a	n/a	n/a	n/a	n/a	n/a	23	5	9	9	n/a	n/a	n/a	n/a	n/a
3002878	PROB	n/a	LTP197	ltpFR	9	n/a	n/a	n/a	n/a	n/a	n/a	n/a	13	4	1	8	n/a	n/a	n/a	n/a	n/a
3006475	PROB	n/a	LTP197	ltpFR	9	n/a	n/a	n/a	n/a	n/a	n/a	n/a	11	5	4	2	n/a	n/a	n/a	n/a	n/a
3007938	PROB	n/a	LTP197	ltpFR	9	n/a	n/a	n/a	n/a	n/a	n/a	n/a	18	4	8	6	n/a	n/a	n/a	n/a	n/a
3009844	PROB	n/a	LTP197	ltpFR	9	n/a	n/a	n/a	n/a	n/a	n/a	n/a	14	2	3	9	n/a	n/a	n/a	n/a	n/a
3012009	STOP	n/a	LTP197	ltpFR	9	n/a	n/a	n/a	n/a	n/a	n/a	n/a	n/a	n/a	n/a	n/a	n/a	n/a	n/a	n/a	n/a
3014455	WORD	wordpools/wasnorm_wordpool_less_exclusions.txt	LTP197	ltpFR	9	12	0	WINGS	1614	n/a	n/a	3	n/a	0	0	0	0.422607421875	0.5869140625	0	upper	amplitud.ttf
3016387	KEY_MSG	n/a	LTP197	ltpFR	9	12	n/a	n/a	n/a	n/a	n/a	n/a	n/a	0	0	0	n/a	n/a	n/a	n/a	n/a
3017919	START	n/a	LTP197	ltpFR	9	n/a	n/a	n/a	n/a	n/a	n/a	n/a	n/a	n/a	n/a	n/a	n/a	n/a	n/a	n/a	n/a
3019080	PROB	n/a	LTP197	ltpFR	9	n/a	n/a	n/a	n/a	n/a	n/a	n/a	5	2	1	2	n/a	n/a	n/a	n/a	n/a
3020931	PROB	n/a	LTP197	ltpFR	9	n/a	n/a	n/a	n/a	n/a	n/a	n/a	11	5	2	4	n/a	n/a	n/a	n/a	n/a
3022793	PROB	n/a	LTP197	ltpFR	9	n/a	n/a	n/a	n/a	n/a	n/a	n/a	14	2	7	5	n/a	n/a	n/a	n/a	n/a
3024683	PROB	n/a	LTP197	ltpFR	9	n/a	n/a	n/a	n/a	n/a	n/a	n/a	12	3	2	7	n/a	n/a	n/a	n/a	n/a
3027505	PROB	n/a	LTP197	ltpFR	9	n/a	n/a	n/a	n/a	n/a	n/a	n/a	15	3	8	7	n/a	n/a	n/a	n/a	n/a
3029897	PROB	n/a	LTP197	ltpFR	9	n/a	n/a	n/a	n/a	n/a	n/a	n/a	20	5	3	9	n/a	n/a	n/a	n/a	n/a
3032552	STOP	n/a	LTP197	ltpFR	9	n/a	n/a	n/a	n/a	n/a	n/a	n/a	n/a	n/a	n/a	n/a	n/a	n/a	n/a	n/a	n/a
3034950	WORD	wordpools/wasnorm_wordpool_less_exclusions.txt	LTP197	ltpFR	9	12	0	SKATE	1313	n/a	n/a	1	n/a	0	0	0	0.422607421875	0.5869140625	0	upper	amplitud.ttf
3037962	START	n/a	LTP197	ltpFR	9	n/a	n/a	n/a	n/a	n/a	n/a	n/a	n/a	n/a	n/a	n/a	n/a	n/a	n/a	n/a	n/a
3038770	PROB	n/a	LTP197	ltpFR	9	n/a	n/a	n/a	n/a	n/a	n/a	n/a	13	8	4	1	n/a	n/a	n/a	n/a	n/a
3040287	PROB	n/a	LTP197	ltpFR	9	n/a	n/a	n/a	n/a	n/a	n/a	n/a	17	8	6	3	n/a	n/a	n/a	n/a	n/a
3041977	PROB	n/a	LTP197	ltpFR	9	n/a	n/a	n/a	n/a	n/a	n/a	n/a	12	1	7	4	n/a	n/a	n/a	n/a	n/a
3044392	PROB	n/a	LTP197	ltpFR	9	n/a	n/a	n/a	n/a	n/a	n/a	n/a	10	3	3	4	n/a	n/a	n/a	n/a	n/a
3045913	PROB	n/a	LTP197	ltpFR	9	n/a	n/a	n/a	n/a	n/a	n/a	n/a	9	1	1	7	n/a	n/a	n/a	n/a	n/a
3047364	PROB	n/a	LTP197	ltpFR	9	n/a	n/a	n/a	n/a	n/a	n/a	n/a	19	7	4	8	n/a	n/a	n/a	n/a	n/a
3049221	PROB	n/a	LTP197	ltpFR	9	n/a	n/a	n/a	n/a	n/a	n/a	n/a	16	4	9	3	n/a	n/a	n/a	n/a	n/a
3051128	PROB	n/a	LTP197	ltpFR	9	n/a	n/a	n/a	n/a	n/a	n/a	n/a	12	1	3	8	n/a	n/a	n/a	n/a	n/a
3052848	STOP	n/a	LTP197	ltpFR	9	n/a	n/a	n/a	n/a	n/a	n/a	n/a	n/a	n/a	n/a	n/a	n/a	n/a	n/a	n/a	n/a
3055116	WORD	wordpools/wasnorm_wordpool_less_exclusions.txt	LTP197	ltpFR	9	12	0	COLLAR	345	n/a	n/a	0	n/a	0	0	0	0.422607421875	0.5869140625	0	upper	amplitud.ttf
3058128	START	n/a	LTP197	ltpFR	9	n/a	n/a	n/a	n/a	n/a	n/a	n/a	n/a	n/a	n/a	n/a	n/a	n/a	n/a	n/a	n/a
3059298	PROB	n/a	LTP197	ltpFR	9	n/a	n/a	n/a	n/a	n/a	n/a	n/a	19	7	3	9	n/a	n/a	n/a	n/a	n/a
3061416	PROB	n/a	LTP197	ltpFR	9	n/a	n/a	n/a	n/a	n/a	n/a	n/a	15	6	8	1	n/a	n/a	n/a	n/a	n/a
3062939	PROB	n/a	LTP197	ltpFR	9	n/a	n/a	n/a	n/a	n/a	n/a	n/a	19	3	7	9	n/a	n/a	n/a	n/a	n/a
3064450	PROB	n/a	LTP197	ltpFR	9	n/a	n/a	n/a	n/a	n/a	n/a	n/a	11	3	3	5	n/a	n/a	n/a	n/a	n/a
3066051	PROB	n/a	LTP197	ltpFR	9	n/a	n/a	n/a	n/a	n/a	n/a	n/a	15	8	6	1	n/a	n/a	n/a	n/a	n/a
3067595	PROB	n/a	LTP197	ltpFR	9	n/a	n/a	n/a	n/a	n/a	n/a	n/a	21	5	8	8	n/a	n/a	n/a	n/a	n/a
3070022	PROB	n/a	LTP197	ltpFR	9	n/a	n/a	n/a	n/a	n/a	n/a	n/a	16	1	6	9	n/a	n/a	n/a	n/a	n/a
3071554	PROB	n/a	LTP197	ltpFR	9	n/a	n/a	n/a	n/a	n/a	n/a	n/a	23	8	9	6	n/a	n/a	n/a	n/a	n/a
3073824	STOP	n/a	LTP197	ltpFR	9	n/a	n/a	n/a	n/a	n/a	n/a	n/a	n/a	n/a	n/a	n/a	n/a	n/a	n/a	n/a	n/a
3074984	WORD	wordpools/wasnorm_wordpool_less_exclusions.txt	LTP197	ltpFR	9	12	1	FLY	586	n/a	n/a	1	n/a	0	0	0	0.57763671875	0.412841796875	1	lower	zerothre.ttf
3077996	START	n/a	LTP197	ltpFR	9	n/a	n/a	n/a	n/a	n/a	n/a	n/a	n/a	n/a	n/a	n/a	n/a	n/a	n/a	n/a	n/a
3078838	PROB	n/a	LTP197	ltpFR	9	n/a	n/a	n/a	n/a	n/a	n/a	n/a	16	3	4	9	n/a	n/a	n/a	n/a	n/a
3080678	PROB	n/a	LTP197	ltpFR	9	n/a	n/a	n/a	n/a	n/a	n/a	n/a	10	6	1	3	n/a	n/a	n/a	n/a	n/a
3082402	PROB	n/a	LTP197	ltpFR	9	n/a	n/a	n/a	n/a	n/a	n/a	n/a	12	1	5	6	n/a	n/a	n/a	n/a	n/a
3084102	PROB	n/a	LTP197	ltpFR	9	n/a	n/a	n/a	n/a	n/a	n/a	n/a	12	1	5	6	n/a	n/a	n/a	n/a	n/a
3085764	PROB	n/a	LTP197	ltpFR	9	n/a	n/a	n/a	n/a	n/a	n/a	n/a	19	2	9	8	n/a	n/a	n/a	n/a	n/a
3087715	PROB	n/a	LTP197	ltpFR	9	n/a	n/a	n/a	n/a	n/a	n/a	n/a	11	1	9	1	n/a	n/a	n/a	n/a	n/a
3089505	PROB	n/a	LTP197	ltpFR	9	n/a	n/a	n/a	n/a	n/a	n/a	n/a	9	2	4	3	n/a	n/a	n/a	n/a	n/a
3091445	PROB	n/a	LTP197	ltpFR	9	n/a	n/a	n/a	n/a	n/a	n/a	n/a	18	9	8	1	n/a	n/a	n/a	n/a	n/a
3093616	STOP	n/a	LTP197	ltpFR	9	n/a	n/a	n/a	n/a	n/a	n/a	n/a	n/a	n/a	n/a	n/a	n/a	n/a	n/a	n/a	n/a
3094949	WORD	wordpools/wasnorm_wordpool_less_exclusions.txt	LTP197	ltpFR	9	12	1	HIKER	708	n/a	n/a	1	n/a	0	0	0	0.57763671875	0.412841796875	1	lower	zerothre.ttf
3097961	START	n/a	LTP197	ltpFR	9	n/a	n/a	n/a	n/a	n/a	n/a	n/a	n/a	n/a	n/a	n/a	n/a	n/a	n/a	n/a	n/a
3098975	PROB	n/a	LTP197	ltpFR	9	n/a	n/a	n/a	n/a	n/a	n/a	n/a	18	6	7	5	n/a	n/a	n/a	n/a	n/a
3101099	PROB	n/a	LTP197	ltpFR	9	n/a	n/a	n/a	n/a	n/a	n/a	n/a	11	6	4	1	n/a	n/a	n/a	n/a	n/a
3102621	PROB	n/a	LTP197	ltpFR	9	n/a	n/a	n/a	n/a	n/a	n/a	n/a	16	4	7	5	n/a	n/a	n/a	n/a	n/a
3104812	PROB	n/a	LTP197	ltpFR	9	n/a	n/a	n/a	n/a	n/a	n/a	n/a	18	3	9	6	n/a	n/a	n/a	n/a	n/a
3107363	PROB	n/a	LTP197	ltpFR	9	n/a	n/a	n/a	n/a	n/a	n/a	n/a	7	1	2	4	n/a	n/a	n/a	n/a	n/a
3109637	PROB	n/a	LTP197	ltpFR	9	n/a	n/a	n/a	n/a	n/a	n/a	n/a	12	1	2	9	n/a	n/a	n/a	n/a	n/a
3111395	PROB	n/a	LTP197	ltpFR	9	n/a	n/a	n/a	n/a	n/a	n/a	n/a	11	3	3	5	n/a	n/a	n/a	n/a	n/a
