onset	duration	trial_type	sample	stim_file	subject	experiment	session	trial	task	item_name	item_num	recog_resp	recog_conf	resp	color_r	color_g	color_b	case	font
265.798	n/a	SESS_START	132899	n/a	LTP147	ltpFR	16	n/a	n/a	n/a	n/a	1	5	n/a	n/a	n/a	n/a	n/a	n/a
325.012	n/a	WORD	162506	wordpools/wasnorm_wordpool.txt	LTP147	ltpFR	16	1	1	MONARCH	906	0	5	0	0.422607421875	0.5869140625	0	upper	zerothre.ttf
328.836	n/a	WORD	164418	wordpools/wasnorm_wordpool.txt	LTP147	ltpFR	16	1	1	THESAURUS	1454	1	n/a	0	0.422607421875	0.5869140625	0	upper	zerothre.ttf
332.842	n/a	WORD	166421	wordpools/wasnorm_wordpool.txt	LTP147	ltpFR	16	1	1	STREAM	1392	n/a	n/a	1	0.422607421875	0.5869140625	0	upper	zerothre.ttf
336.708	n/a	WORD	168354	wordpools/wasnorm_wordpool.txt	LTP147	ltpFR	16	1	1	BAY	102	n/a	n/a	0	0.422607421875	0.5869140625	0	upper	zerothre.ttf
340.59	n/a	WORD	170295	wordpools/wasnorm_wordpool.txt	LTP147	ltpFR	16	1	0	ELEPHANT	523	n/a	n/a	1	0.57763671875	0.412841796875	1	lower	amplitud.ttf
344.58	n/a	WORD	172290	wordpools/wasnorm_wordpool.txt	LTP147	ltpFR	16	1	0	PORCH	1106	n/a	n/a	0	0.57763671875	0.412841796875	1	lower	amplitud.ttf
348.554	n/a	WORD	174277	wordpools/wasnorm_wordpool.txt	LTP147	ltpFR	16	1	1	HANDBAG	684	n/a	n/a	0	0.422607421875	0.5869140625	0	upper	zerothre.ttf
352.578	n/a	WORD	176289	wordpools/wasnorm_wordpool.txt	LTP147	ltpFR	16	1	1	NERVE	944	n/a	n/a	0	0.422607421875	0.5869140625	0	upper	zerothre.ttf
356.536	n/a	WORD	178268	wordpools/wasnorm_wordpool.txt	LTP147	ltpFR	16	1	0	MAGAZINE	853	n/a	n/a	0	0.57763671875	0.412841796875	1	lower	amplitud.ttf
360.542	n/a	WORD	180271	wordpools/wasnorm_wordpool.txt	LTP147	ltpFR	16	1	0	LAKE	796	n/a	n/a	1	0.57763671875	0.412841796875	1	lower	amplitud.ttf
364.666	n/a	WORD	182333	wordpools/wasnorm_wordpool.txt	LTP147	ltpFR	16	1	0	SICKLE	1302	n/a	n/a	0	0.57763671875	0.412841796875	1	lower	amplitud.ttf
368.84	n/a	WORD	184420	wordpools/wasnorm_wordpool.txt	LTP147	ltpFR	16	1	0	CORPORATION	382	n/a	n/a	1	0.57763671875	0.412841796875	1	lower	amplitud.ttf
372.654	n/a	WORD	186327	wordpools/wasnorm_wordpool.txt	LTP147	ltpFR	16	1	0	TECHNICIAN	1443	n/a	n/a	1	0.57763671875	0.412841796875	1	lower	amplitud.ttf
376.638	n/a	WORD	188319	wordpools/wasnorm_wordpool.txt	LTP147	ltpFR	16	1	0	KING	777	n/a	n/a	1	0.57763671875	0.412841796875	1	lower	amplitud.ttf
380.494	n/a	WORD	190247	wordpools/wasnorm_wordpool.txt	LTP147	ltpFR	16	1	1	BEAN	105	n/a	n/a	1	0.422607421875	0.5869140625	0	upper	zerothre.ttf
384.478	n/a	WORD	192239	wordpools/wasnorm_wordpool.txt	LTP147	ltpFR	16	1	1	CAFETERIA	217	n/a	n/a	1	0.422607421875	0.5869140625	0	upper	zerothre.ttf
390.234	n/a	REC_START	195117	n/a	LTP147	ltpFR	16	1	n/a	n/a	n/a	n/a	n/a	n/a	n/a	n/a	n/a	n/a	n/a
392.55	n/a	REC_WORD	196275	wordpools/wasnorm_wordpool.txt	LTP147	ltpFR	16	1	1	MONARCH	906	n/a	n/a	0	n/a	n/a	n/a	n/a	n/a
393.886	n/a	REC_WORD	196943	wordpools/wasnorm_wordpool.txt	LTP147	ltpFR	16	1	1	THESAURUS	1454	n/a	n/a	0	n/a	n/a	n/a	n/a	n/a
394.886	n/a	REC_WORD_VV	197443	wordpools/wasnorm_wordpool.txt	LTP147	ltpFR	16	1	n/a	<>	-1	n/a	n/a	n/a	n/a	n/a	n/a	n/a	n/a
397.432	n/a	REC_WORD	198716	wordpools/wasnorm_wordpool.txt	LTP147	ltpFR	16	1	0	KING	777	n/a	n/a	1	n/a	n/a	n/a	n/a	n/a
398.166	n/a	REC_WORD	199083	wordpools/wasnorm_wordpool.txt	LTP147	ltpFR	16	1	1	BEAN	105	n/a	n/a	1	n/a	n/a	n/a	n/a	n/a
398.854	n/a	REC_WORD	199427	wordpools/wasnorm_wordpool.txt	LTP147	ltpFR	16	1	0	CORPORATION	382	n/a	n/a	1	n/a	n/a	n/a	n/a	n/a
400.984	n/a	REC_WORD	200492	wordpools/wasnorm_wordpool.txt	LTP147	ltpFR	16	1	0	ELEPHANT	523	n/a	n/a	1	n/a	n/a	n/a	n/a	n/a
401.598	n/a	REC_WORD	200799	wordpools/wasnorm_wordpool.txt	LTP147	ltpFR	16	1	0	LAKE	796	n/a	n/a	1	n/a	n/a	n/a	n/a	n/a
402.206	n/a	REC_WORD	201103	wordpools/wasnorm_wordpool.txt	LTP147	ltpFR	16	1	1	BAY	102	n/a	n/a	0	n/a	n/a	n/a	n/a	n/a
402.856	n/a	REC_WORD	201428	wordpools/wasnorm_wordpool.txt	LTP147	ltpFR	16	1	1	STREAM	1392	n/a	n/a	1	n/a	n/a	n/a	n/a	n/a
404.292	n/a	REC_WORD	202146	wordpools/wasnorm_wordpool.txt	LTP147	ltpFR	16	1	0	PORCH	1106	n/a	n/a	0	n/a	n/a	n/a	n/a	n/a
408.462	n/a	REC_WORD	204231	wordpools/wasnorm_wordpool.txt	LTP147	ltpFR	16	1	0	SICKLE	1302	n/a	n/a	0	n/a	n/a	n/a	n/a	n/a
410.554	n/a	REC_WORD	205277	wordpools/wasnorm_wordpool.txt	LTP147	ltpFR	16	1	0	MAGAZINE	853	n/a	n/a	0	n/a	n/a	n/a	n/a	n/a
414.46	n/a	REC_WORD	207230	wordpools/wasnorm_wordpool.txt	LTP147	ltpFR	16	1	0	KING	777	n/a	n/a	1	n/a	n/a	n/a	n/a	n/a
426.208	n/a	REC_WORD	213104	wordpools/wasnorm_wordpool.txt	LTP147	ltpFR	16	1	1	STREAM	1392	n/a	n/a	1	n/a	n/a	n/a	n/a	n/a
432.674	n/a	REC_WORD	216337	wordpools/wasnorm_wordpool.txt	LTP147	ltpFR	16	1	1	MONARCH	906	n/a	n/a	0	n/a	n/a	n/a	n/a	n/a
453.204	n/a	REC_WORD	226602	wordpools/wasnorm_wordpool.txt	LTP147	ltpFR	16	1	0	LAKE	796	n/a	n/a	1	n/a	n/a	n/a	n/a	n/a
468.0	n/a	WORD	234000	wordpools/wasnorm_wordpool.txt	LTP147	ltpFR	16	2	0	TANK	1432	n/a	n/a	3	0.57763671875	0.412841796875	1	lower	amplitud.ttf
469.102	n/a	KEY_MSG	234551	n/a	LTP147	ltpFR	16	2	n/a	n/a	n/a	n/a	n/a	n/a	n/a	n/a	n/a	n/a	n/a
472.076	n/a	WORD	236038	wordpools/wasnorm_wordpool.txt	LTP147	ltpFR	16	2	0	GRAVE	658	n/a	n/a	1	0.57763671875	0.412841796875	1	lower	amplitud.ttf
475.924	n/a	WORD	237962	wordpools/wasnorm_wordpool.txt	LTP147	ltpFR	16	2	0	PEACH	1031	n/a	n/a	0	0.57763671875	0.412841796875	1	lower	amplitud.ttf
479.98	n/a	WORD	239990	wordpools/wasnorm_wordpool.txt	LTP147	ltpFR	16	2	1	RIDER	1191	n/a	n/a	1	0.422607421875	0.5869140625	0	upper	zerothre.ttf
483.896	n/a	WORD	241948	wordpools/wasnorm_wordpool.txt	LTP147	ltpFR	16	2	1	STABLE	1363	n/a	n/a	0	0.422607421875	0.5869140625	0	upper	zerothre.ttf
487.962	n/a	WORD	243981	wordpools/wasnorm_wordpool.txt	LTP147	ltpFR	16	2	1	WINGS	1614	n/a	n/a	0	0.422607421875	0.5869140625	0	upper	zerothre.ttf
491.97	n/a	WORD	245985	wordpools/wasnorm_wordpool.txt	LTP147	ltpFR	16	2	1	SPIDER	1351	n/a	n/a	1	0.422607421875	0.5869140625	0	upper	zerothre.ttf
495.984	n/a	WORD	247992	wordpools/wasnorm_wordpool.txt	LTP147	ltpFR	16	2	0	WIDOW	1608	n/a	n/a	1	0.57763671875	0.412841796875	1	lower	amplitud.ttf
499.992	n/a	WORD	249996	wordpools/wasnorm_wordpool.txt	LTP147	ltpFR	16	2	0	FORK	594	n/a	n/a	0	0.57763671875	0.412841796875	1	lower	amplitud.ttf
503.974	n/a	WORD	251987	wordpools/wasnorm_wordpool.txt	LTP147	ltpFR	16	2	1	FLUTE	585	n/a	n/a	0	0.422607421875	0.5869140625	0	upper	zerothre.ttf
508.04	n/a	WORD	254020	wordpools/wasnorm_wordpool.txt	LTP147	ltpFR	16	2	1	ELF	525	n/a	n/a	1	0.422607421875	0.5869140625	0	upper	zerothre.ttf
512.154	n/a	WORD	256077	wordpools/wasnorm_wordpool.txt	LTP147	ltpFR	16	2	1	BULLET	194	n/a	n/a	0	0.422607421875	0.5869140625	0	upper	zerothre.ttf
516.078	n/a	WORD	258039	wordpools/wasnorm_wordpool.txt	LTP147	ltpFR	16	2	1	ORANGE	980	n/a	n/a	0	0.422607421875	0.5869140625	0	upper	zerothre.ttf
519.96	n/a	WORD	259980	wordpools/wasnorm_wordpool.txt	LTP147	ltpFR	16	2	0	VILLAIN	1567	n/a	n/a	1	0.57763671875	0.412841796875	1	lower	amplitud.ttf
524.042	n/a	WORD	262021	wordpools/wasnorm_wordpool.txt	LTP147	ltpFR	16	2	0	BANDIT	81	n/a	n/a	1	0.57763671875	0.412841796875	1	lower	amplitud.ttf
528.2	n/a	WORD	264100	wordpools/wasnorm_wordpool.txt	LTP147	ltpFR	16	2	0	PUB	1135	n/a	n/a	1	0.57763671875	0.412841796875	1	lower	amplitud.ttf
533.966	n/a	REC_START	266983	n/a	LTP147	ltpFR	16	2	n/a	n/a	n/a	n/a	n/a	n/a	n/a	n/a	n/a	n/a	n/a
534.558	n/a	REC_WORD	267279	wordpools/wasnorm_wordpool.txt	LTP147	ltpFR	16	2	0	VILLAIN	1567	n/a	n/a	1	n/a	n/a	n/a	n/a	n/a
535.058	n/a	REC_WORD	267529	wordpools/wasnorm_wordpool.txt	LTP147	ltpFR	16	2	0	BANDIT	81	n/a	n/a	1	n/a	n/a	n/a	n/a	n/a
535.532	n/a	REC_WORD	267766	wordpools/wasnorm_wordpool.txt	LTP147	ltpFR	16	2	0	PUB	1135	n/a	n/a	1	n/a	n/a	n/a	n/a	n/a
537.802	n/a	REC_WORD	268901	wordpools/wasnorm_wordpool.txt	LTP147	ltpFR	16	2	1	BULLET	194	n/a	n/a	0	n/a	n/a	n/a	n/a	n/a
539.008	n/a	REC_WORD	269504	wordpools/wasnorm_wordpool.txt	LTP147	ltpFR	16	2	0	WIDOW	1608	n/a	n/a	1	n/a	n/a	n/a	n/a	n/a
542.51	n/a	REC_WORD	271255	wordpools/wasnorm_wordpool.txt	LTP147	ltpFR	16	2	1	WINGS	1614	n/a	n/a	0	n/a	n/a	n/a	n/a	n/a
544.382	n/a	REC_WORD	272191	wordpools/wasnorm_wordpool.txt	LTP147	ltpFR	16	2	1	STABLE	1363	n/a	n/a	0	n/a	n/a	n/a	n/a	n/a
546.268	n/a	REC_WORD	273134	wordpools/wasnorm_wordpool.txt	LTP147	ltpFR	16	2	1	ORANGE	980	n/a	n/a	0	n/a	n/a	n/a	n/a	n/a
547.744	n/a	REC_WORD	273872	wordpools/wasnorm_wordpool.txt	LTP147	ltpFR	16	2	1	ELF	525	n/a	n/a	1	n/a	n/a	n/a	n/a	n/a
550.35	n/a	REC_WORD	275175	wordpools/wasnorm_wordpool.txt	LTP147	ltpFR	16	2	0	PUB	1135	n/a	n/a	1	n/a	n/a	n/a	n/a	n/a
551.92	n/a	REC_WORD	275960	wordpools/wasnorm_wordpool.txt	LTP147	ltpFR	16	2	1	RIDER	1191	n/a	n/a	1	n/a	n/a	n/a	n/a	n/a
571.626	n/a	REC_WORD	285813	wordpools/wasnorm_wordpool.txt	LTP147	ltpFR	16	2	1	RIDER	1191	n/a	n/a	1	n/a	n/a	n/a	n/a	n/a
580.94	n/a	REC_WORD	290470	wordpools/wasnorm_wordpool.txt	LTP147	ltpFR	16	2	0	TANK	1432	n/a	n/a	3	n/a	n/a	n/a	n/a	n/a
582.772	n/a	REC_WORD	291386	wordpools/wasnorm_wordpool.txt	LTP147	ltpFR	16	2	0	PEACH	1031	n/a	n/a	0	n/a	n/a	n/a	n/a	n/a
598.846	n/a	REC_WORD	299423	wordpools/wasnorm_wordpool.txt	LTP147	ltpFR	16	2	1	BULLET	194	n/a	n/a	0	n/a	n/a	n/a	n/a	n/a
611.708	n/a	WORD	305854	wordpools/wasnorm_wordpool.txt	LTP147	ltpFR	16	3	0	LEG	809	n/a	n/a	1	0.57763671875	0.412841796875	1	lower	amplitud.ttf
615.682	n/a	WORD	307841	wordpools/wasnorm_wordpool.txt	LTP147	ltpFR	16	3	0	WRITER	1627	n/a	n/a	1	0.57763671875	0.412841796875	1	lower	amplitud.ttf
619.714	n/a	WORD	309857	wordpools/wasnorm_wordpool.txt	LTP147	ltpFR	16	3	0	SANDWICH	1232	n/a	n/a	0	0.57763671875	0.412841796875	1	lower	amplitud.ttf
623.788	n/a	WORD	311894	wordpools/wasnorm_wordpool.txt	LTP147	ltpFR	16	3	0	COUCH	386	n/a	n/a	0	0.57763671875	0.412841796875	1	lower	amplitud.ttf
627.886	n/a	WORD	313943	wordpools/wasnorm_wordpool.txt	LTP147	ltpFR	16	3	1	NUT	965	n/a	n/a	1	0.422607421875	0.5869140625	0	upper	zerothre.ttf
632.06	n/a	WORD	316030	wordpools/wasnorm_wordpool.txt	LTP147	ltpFR	16	3	1	CHIPMUNK	304	n/a	n/a	1	0.422607421875	0.5869140625	0	upper	zerothre.ttf
635.992	n/a	WORD	317996	wordpools/wasnorm_wordpool.txt	LTP147	ltpFR	16	3	1	CROWN	415	n/a	n/a	0	0.422607421875	0.5869140625	0	upper	zerothre.ttf
640.05	n/a	WORD	320025	wordpools/wasnorm_wordpool.txt	LTP147	ltpFR	16	3	1	QUEEN	1149	n/a	n/a	1	0.422607421875	0.5869140625	0	upper	zerothre.ttf
644.114	n/a	WORD	322057	wordpools/wasnorm_wordpool.txt	LTP147	ltpFR	16	3	1	TERMITE	1451	n/a	n/a	1	0.422607421875	0.5869140625	0	upper	zerothre.ttf
648.172	n/a	WORD	324086	wordpools/wasnorm_wordpool.txt	LTP147	ltpFR	16	3	0	SHOULDER	1294	n/a	n/a	1	0.57763671875	0.412841796875	1	lower	amplitud.ttf
652.296	n/a	WORD	326148	wordpools/wasnorm_wordpool.txt	LTP147	ltpFR	16	3	0	BASKET	95	n/a	n/a	0	0.57763671875	0.412841796875	1	lower	amplitud.ttf
656.436	n/a	WORD	328218	wordpools/wasnorm_wordpool.txt	LTP147	ltpFR	16	3	0	TYPEWRITER	1531	n/a	n/a	1	0.57763671875	0.412841796875	1	lower	amplitud.ttf
660.36	n/a	WORD	330180	wordpools/wasnorm_wordpool.txt	LTP147	ltpFR	16	3	0	PENDULUM	1043	n/a	n/a	1	0.57763671875	0.412841796875	1	lower	amplitud.ttf
664.502	n/a	WORD	332251	wordpools/wasnorm_wordpool.txt	LTP147	ltpFR	16	3	1	TICK	1463	n/a	n/a	0	0.422607421875	0.5869140625	0	upper	zerothre.ttf
668.566	n/a	WORD	334283	wordpools/wasnorm_wordpool.txt	LTP147	ltpFR	16	3	1	CATTLE	261	n/a	n/a	1	0.422607421875	0.5869140625	0	upper	zerothre.ttf
672.588	n/a	WORD	336294	wordpools/wasnorm_wordpool.txt	LTP147	ltpFR	16	3	1	LABYRINTH	791	n/a	n/a	0	0.422607421875	0.5869140625	0	upper	zerothre.ttf
678.498	n/a	REC_START	339249	n/a	LTP147	ltpFR	16	3	n/a	n/a	n/a	n/a	n/a	n/a	n/a	n/a	n/a	n/a	n/a
679.03	n/a	REC_WORD	339515	wordpools/wasnorm_wordpool.txt	LTP147	ltpFR	16	3	1	TICK	1463	n/a	n/a	0	n/a	n/a	n/a	n/a	n/a
679.604	n/a	REC_WORD	339802	wordpools/wasnorm_wordpool.txt	LTP147	ltpFR	16	3	1	CATTLE	261	n/a	n/a	1	n/a	n/a	n/a	n/a	n/a
680.402	n/a	REC_WORD	340201	wordpools/wasnorm_wordpool.txt	LTP147	ltpFR	16	3	1	LABYRINTH	791	n/a	n/a	0	n/a	n/a	n/a	n/a	n/a
682.718	n/a	REC_WORD	341359	wordpools/wasnorm_wordpool.txt	LTP147	ltpFR	16	3	0	LEG	809	n/a	n/a	1	n/a	n/a	n/a	n/a	n/a
683.62	n/a	REC_WORD	341810	wordpools/wasnorm_wordpool.txt	LTP147	ltpFR	16	3	0	SHOULDER	1294	n/a	n/a	1	n/a	n/a	n/a	n/a	n/a
684.792	n/a	REC_WORD	342396	wordpools/wasnorm_wordpool.txt	LTP147	ltpFR	16	3	1	RIDER	1191	n/a	n/a	1	n/a	n/a	n/a	n/a	n/a
686.738	n/a	REC_WORD	343369	wordpools/wasnorm_wordpool.txt	LTP147	ltpFR	16	3	1	TERMITE	1451	n/a	n/a	1	n/a	n/a	n/a	n/a	n/a
687.746	n/a	REC_WORD	343873	wordpools/wasnorm_wordpool.txt	LTP147	ltpFR	16	3	1	QUEEN	1149	n/a	n/a	1	n/a	n/a	n/a	n/a	n/a
688.824	n/a	REC_WORD	344412	wordpools/wasnorm_wordpool.txt	LTP147	ltpFR	16	3	1	CROWN	415	n/a	n/a	0	n/a	n/a	n/a	n/a	n/a
705.606	n/a	REC_WORD	352803	wordpools/wasnorm_wordpool.txt	LTP147	ltpFR	16	3	0	TYPEWRITER	1531	n/a	n/a	1	n/a	n/a	n/a	n/a	n/a
713.988	n/a	REC_WORD	356994	wordpools/wasnorm_wordpool.txt	LTP147	ltpFR	16	3	0	LEG	809	n/a	n/a	1	n/a	n/a	n/a	n/a	n/a
722.274	n/a	REC_WORD	361137	wordpools/wasnorm_wordpool.txt	LTP147	ltpFR	16	3	0	COUCH	386	n/a	n/a	0	n/a	n/a	n/a	n/a	n/a
726.904	n/a	REC_WORD	363452	wordpools/wasnorm_wordpool.txt	LTP147	ltpFR	16	3	1	TICK	1463	n/a	n/a	0	n/a	n/a	n/a	n/a	n/a
782.04	n/a	WORD	391020	wordpools/wasnorm_wordpool.txt	LTP147	ltpFR	16	4	1	BROOK	177	n/a	n/a	1	0.422607421875	0.5869140625	0	upper	zerothre.ttf
786.122	n/a	WORD	393061	wordpools/wasnorm_wordpool.txt	LTP147	ltpFR	16	4	1	CRYSTAL	418	n/a	n/a	0	0.422607421875	0.5869140625	0	upper	zerothre.ttf
790.094	n/a	WORD	395047	wordpools/wasnorm_wordpool.txt	LTP147	ltpFR	16	4	1	CANDY	230	n/a	n/a	0	0.422607421875	0.5869140625	0	upper	zerothre.ttf
794.062	n/a	WORD	397031	wordpools/wasnorm_wordpool.txt	LTP147	ltpFR	16	4	0	FIELD	562	n/a	n/a	1	0.57763671875	0.412841796875	1	lower	amplitud.ttf
797.976	n/a	WORD	398988	wordpools/wasnorm_wordpool.txt	LTP147	ltpFR	16	4	0	TEAM	1441	n/a	n/a	1	0.57763671875	0.412841796875	1	lower	amplitud.ttf
802.1	n/a	WORD	401050	wordpools/wasnorm_wordpool.txt	LTP147	ltpFR	16	4	1	SUBMARINE	1398	n/a	n/a	1	0.422607421875	0.5869140625	0	upper	zerothre.ttf
806.074	n/a	WORD	403037	wordpools/wasnorm_wordpool.txt	LTP147	ltpFR	16	4	1	DIVER	476	n/a	n/a	0	0.422607421875	0.5869140625	0	upper	zerothre.ttf
810.156	n/a	WORD	405078	wordpools/wasnorm_wordpool.txt	LTP147	ltpFR	16	4	1	DRINK	498	n/a	n/a	0	0.422607421875	0.5869140625	0	upper	zerothre.ttf
814.338	n/a	WORD	407169	wordpools/wasnorm_wordpool.txt	LTP147	ltpFR	16	4	1	TUBE	1516	n/a	n/a	0	0.422607421875	0.5869140625	0	upper	zerothre.ttf
818.262	n/a	WORD	409131	wordpools/wasnorm_wordpool.txt	LTP147	ltpFR	16	4	1	OVAL	990	n/a	n/a	0	0.422607421875	0.5869140625	0	upper	zerothre.ttf
822.318	n/a	WORD	411159	wordpools/wasnorm_wordpool.txt	LTP147	ltpFR	16	4	0	DOVE	491	n/a	n/a	0	0.57763671875	0.412841796875	1	lower	amplitud.ttf
826.242	n/a	WORD	413121	wordpools/wasnorm_wordpool.txt	LTP147	ltpFR	16	4	0	BABY	64	n/a	n/a	0	0.57763671875	0.412841796875	1	lower	amplitud.ttf
830.1	n/a	WORD	415050	wordpools/wasnorm_wordpool.txt	LTP147	ltpFR	16	4	0	VET	1560	n/a	n/a	1	0.57763671875	0.412841796875	1	lower	amplitud.ttf
833.958	n/a	WORD	416979	wordpools/wasnorm_wordpool.txt	LTP147	ltpFR	16	4	0	CARDINAL	244	n/a	n/a	1	0.57763671875	0.412841796875	1	lower	amplitud.ttf
837.856	n/a	WORD	418928	wordpools/wasnorm_wordpool.txt	LTP147	ltpFR	16	4	0	GLUE	643	n/a	n/a	1	0.57763671875	0.412841796875	1	lower	amplitud.ttf
841.704	n/a	WORD	420852	wordpools/wasnorm_wordpool.txt	LTP147	ltpFR	16	4	0	ADULT	8	n/a	n/a	1	0.57763671875	0.412841796875	1	lower	amplitud.ttf
847.762	n/a	REC_START	423881	n/a	LTP147	ltpFR	16	4	n/a	n/a	n/a	n/a	n/a	n/a	n/a	n/a	n/a	n/a	n/a
848.7	n/a	REC_WORD	424350	wordpools/wasnorm_wordpool.txt	LTP147	ltpFR	16	4	0	GLUE	643	n/a	n/a	1	n/a	n/a	n/a	n/a	n/a
849.264	n/a	REC_WORD	424632	wordpools/wasnorm_wordpool.txt	LTP147	ltpFR	16	4	0	ADULT	8	n/a	n/a	1	n/a	n/a	n/a	n/a	n/a
851.044	n/a	REC_WORD	425522	wordpools/wasnorm_wordpool.txt	LTP147	ltpFR	16	4	0	CARDINAL	244	n/a	n/a	1	n/a	n/a	n/a	n/a	n/a
854.542	n/a	REC_WORD	427271	wordpools/wasnorm_wordpool.txt	LTP147	ltpFR	16	4	1	BROOK	177	n/a	n/a	1	n/a	n/a	n/a	n/a	n/a
856.174	n/a	REC_WORD_VV	428087	wordpools/wasnorm_wordpool.txt	LTP147	ltpFR	16	4	n/a	<>	-1	n/a	n/a	n/a	n/a	n/a	n/a	n/a	n/a
856.518	n/a	REC_WORD	428259	wordpools/wasnorm_wordpool.txt	LTP147	ltpFR	16	4	1	CRYSTAL	418	n/a	n/a	0	n/a	n/a	n/a	n/a	n/a
858.144	n/a	REC_WORD	429072	wordpools/wasnorm_wordpool.txt	LTP147	ltpFR	16	4	1	CANDY	230	n/a	n/a	0	n/a	n/a	n/a	n/a	n/a
859.59	n/a	REC_WORD	429795	wordpools/wasnorm_wordpool.txt	LTP147	ltpFR	16	4	0	FIELD	562	n/a	n/a	1	n/a	n/a	n/a	n/a	n/a
860.818	n/a	REC_WORD	430409	wordpools/wasnorm_wordpool.txt	LTP147	ltpFR	16	4	1	SUBMARINE	1398	n/a	n/a	1	n/a	n/a	n/a	n/a	n/a
862.594	n/a	REC_WORD	431297	wordpools/wasnorm_wordpool.txt	LTP147	ltpFR	16	4	1	DIVER	476	n/a	n/a	0	n/a	n/a	n/a	n/a	n/a
863.766	n/a	REC_WORD	431883	wordpools/wasnorm_wordpool.txt	LTP147	ltpFR	16	4	1	DRINK	498	n/a	n/a	0	n/a	n/a	n/a	n/a	n/a
869.144	n/a	REC_WORD	434572	wordpools/wasnorm_wordpool.txt	LTP147	ltpFR	16	4	0	PUB	1135	n/a	n/a	1	n/a	n/a	n/a	n/a	n/a
875.764	n/a	REC_WORD	437882	wordpools/wasnorm_wordpool.txt	LTP147	ltpFR	16	4	1	OVAL	990	n/a	n/a	0	n/a	n/a	n/a	n/a	n/a
877.112	n/a	REC_WORD	438556	wordpools/wasnorm_wordpool.txt	LTP147	ltpFR	16	4	1	TUBE	1516	n/a	n/a	0	n/a	n/a	n/a	n/a	n/a
878.652	n/a	REC_WORD	439326	wordpools/wasnorm_wordpool.txt	LTP147	ltpFR	16	4	0	DOVE	491	n/a	n/a	0	n/a	n/a	n/a	n/a	n/a
925.63	n/a	WORD	462815	wordpools/wasnorm_wordpool.txt	LTP147	ltpFR	16	5	-1	ORCHID	982	n/a	n/a	-1	1.0	1.0	1	upper	Verdana.ttf
929.686	n/a	WORD	464843	wordpools/wasnorm_wordpool.txt	LTP147	ltpFR	16	5	-1	RUG	1215	n/a	n/a	-1	1.0	1.0	1	upper	Verdana.ttf
933.536	n/a	WORD	466768	wordpools/wasnorm_wordpool.txt	LTP147	ltpFR	16	5	-1	CRIMINAL	409	n/a	n/a	-1	1.0	1.0	1	upper	Verdana.ttf
937.55	n/a	WORD	468775	wordpools/wasnorm_wordpool.txt	LTP147	ltpFR	16	5	-1	THORN	1459	n/a	n/a	-1	1.0	1.0	1	upper	Verdana.ttf
941.382	n/a	WORD	470691	wordpools/wasnorm_wordpool.txt	LTP147	ltpFR	16	5	-1	ANTELOPE	27	n/a	n/a	-1	1.0	1.0	1	upper	Verdana.ttf
945.574	n/a	WORD	472787	wordpools/wasnorm_wordpool.txt	LTP147	ltpFR	16	5	-1	BARN	89	n/a	n/a	-1	1.0	1.0	1	upper	Verdana.ttf
949.63	n/a	WORD	474815	wordpools/wasnorm_wordpool.txt	LTP147	ltpFR	16	5	-1	PRISONER	1128	n/a	n/a	-1	1.0	1.0	1	upper	Verdana.ttf
953.678	n/a	WORD	476839	wordpools/wasnorm_wordpool.txt	LTP147	ltpFR	16	5	-1	BELL	118	n/a	n/a	-1	1.0	1.0	1	upper	Verdana.ttf
957.504	n/a	WORD	478752	wordpools/wasnorm_wordpool.txt	LTP147	ltpFR	16	5	-1	SALESMAN	1225	n/a	n/a	-1	1.0	1.0	1	upper	Verdana.ttf
961.686	n/a	WORD	480843	wordpools/wasnorm_wordpool.txt	LTP147	ltpFR	16	5	-1	VALVE	1546	n/a	n/a	-1	1.0	1.0	1	upper	Verdana.ttf
965.726	n/a	WORD	482863	wordpools/wasnorm_wordpool.txt	LTP147	ltpFR	16	5	-1	SKIN	1318	n/a	n/a	-1	1.0	1.0	1	upper	Verdana.ttf
969.858	n/a	WORD	484929	wordpools/wasnorm_wordpool.txt	LTP147	ltpFR	16	5	-1	DANCER	437	n/a	n/a	-1	1.0	1.0	1	upper	Verdana.ttf
973.698	n/a	WORD	486849	wordpools/wasnorm_wordpool.txt	LTP147	ltpFR	16	5	-1	MITTEN	902	n/a	n/a	-1	1.0	1.0	1	upper	Verdana.ttf
977.564	n/a	WORD	488782	wordpools/wasnorm_wordpool.txt	LTP147	ltpFR	16	5	-1	KNUCKLE	789	n/a	n/a	-1	1.0	1.0	1	upper	Verdana.ttf
981.546	n/a	WORD	490773	wordpools/wasnorm_wordpool.txt	LTP147	ltpFR	16	5	-1	ASH	44	n/a	n/a	-1	1.0	1.0	1	upper	Verdana.ttf
985.612	n/a	WORD	492806	wordpools/wasnorm_wordpool.txt	LTP147	ltpFR	16	5	-1	LABEL	790	n/a	n/a	-1	1.0	1.0	1	upper	Verdana.ttf
991.394	n/a	REC_START	495697	n/a	LTP147	ltpFR	16	5	n/a	n/a	n/a	n/a	n/a	n/a	n/a	n/a	n/a	n/a	n/a
992.626	n/a	REC_WORD	496313	wordpools/wasnorm_wordpool.txt	LTP147	ltpFR	16	5	-1	DANCER	437	n/a	n/a	-1	n/a	n/a	n/a	n/a	n/a
993.078	n/a	REC_WORD	496539	wordpools/wasnorm_wordpool.txt	LTP147	ltpFR	16	5	-1	SKIN	1318	n/a	n/a	-1	n/a	n/a	n/a	n/a	n/a
993.484	n/a	REC_WORD	496742	wordpools/wasnorm_wordpool.txt	LTP147	ltpFR	16	5	-1	LABEL	790	n/a	n/a	-1	n/a	n/a	n/a	n/a	n/a
994.032	n/a	REC_WORD	497016	wordpools/wasnorm_wordpool.txt	LTP147	ltpFR	16	5	-1	ASH	44	n/a	n/a	-1	n/a	n/a	n/a	n/a	n/a
996.752	n/a	REC_WORD	498376	wordpools/wasnorm_wordpool.txt	LTP147	ltpFR	16	5	-1	BARN	89	n/a	n/a	-1	n/a	n/a	n/a	n/a	n/a
997.524	n/a	REC_WORD	498762	wordpools/wasnorm_wordpool.txt	LTP147	ltpFR	16	5	-1	ANTELOPE	27	n/a	n/a	-1	n/a	n/a	n/a	n/a	n/a
999.332	n/a	REC_WORD	499666	wordpools/wasnorm_wordpool.txt	LTP147	ltpFR	16	5	-1	ORCHID	982	n/a	n/a	-1	n/a	n/a	n/a	n/a	n/a
999.994	n/a	REC_WORD	499997	wordpools/wasnorm_wordpool.txt	LTP147	ltpFR	16	5	-1	THORN	1459	n/a	n/a	-1	n/a	n/a	n/a	n/a	n/a
1000.838	n/a	REC_WORD	500419	wordpools/wasnorm_wordpool.txt	LTP147	ltpFR	16	5	-1	CRIMINAL	409	n/a	n/a	-1	n/a	n/a	n/a	n/a	n/a
1002.274	n/a	REC_WORD	501137	wordpools/wasnorm_wordpool.txt	LTP147	ltpFR	16	5	n/a	PAINTING	1005	n/a	n/a	n/a	n/a	n/a	n/a	n/a	n/a
1006.366	n/a	REC_WORD	503183	wordpools/wasnorm_wordpool.txt	LTP147	ltpFR	16	5	-1	PRISONER	1128	n/a	n/a	-1	n/a	n/a	n/a	n/a	n/a
1011.194	n/a	REC_WORD	505597	wordpools/wasnorm_wordpool.txt	LTP147	ltpFR	16	5	-1	BARN	89	n/a	n/a	-1	n/a	n/a	n/a	n/a	n/a
1032.452	n/a	REC_WORD	516226	wordpools/wasnorm_wordpool.txt	LTP147	ltpFR	16	5	-1	BELL	118	n/a	n/a	-1	n/a	n/a	n/a	n/a	n/a
1037.95	n/a	REC_WORD	518975	wordpools/wasnorm_wordpool.txt	LTP147	ltpFR	16	5	-1	SKIN	1318	n/a	n/a	-1	n/a	n/a	n/a	n/a	n/a
1042.186	n/a	REC_WORD	521093	wordpools/wasnorm_wordpool.txt	LTP147	ltpFR	16	5	-1	LABEL	790	n/a	n/a	-1	n/a	n/a	n/a	n/a	n/a
1079.408	n/a	WORD	539704	wordpools/wasnorm_wordpool.txt	LTP147	ltpFR	16	6	-1	LASER	801	n/a	n/a	-1	1.0	1.0	1	upper	Verdana.ttf
1083.382	n/a	WORD	541691	wordpools/wasnorm_wordpool.txt	LTP147	ltpFR	16	6	-1	ASIA	46	n/a	n/a	-1	1.0	1.0	1	upper	Verdana.ttf
1087.546	n/a	WORD	543773	wordpools/wasnorm_wordpool.txt	LTP147	ltpFR	16	6	-1	MARINE	869	n/a	n/a	-1	1.0	1.0	1	upper	Verdana.ttf
1091.612	n/a	WORD	545806	wordpools/wasnorm_wordpool.txt	LTP147	ltpFR	16	6	-1	STICKER	1382	n/a	n/a	-1	1.0	1.0	1	upper	Verdana.ttf
1095.644	n/a	WORD	547822	wordpools/wasnorm_wordpool.txt	LTP147	ltpFR	16	6	-1	AFRICA	9	n/a	n/a	-1	1.0	1.0	1	upper	Verdana.ttf
1099.544	n/a	WORD	549772	wordpools/wasnorm_wordpool.txt	LTP147	ltpFR	16	6	-1	GIRAFFE	636	n/a	n/a	-1	1.0	1.0	1	upper	Verdana.ttf
1103.566	n/a	WORD	551783	wordpools/wasnorm_wordpool.txt	LTP147	ltpFR	16	6	-1	CREATURE	403	n/a	n/a	-1	1.0	1.0	1	upper	Verdana.ttf
1107.716	n/a	WORD	553858	wordpools/wasnorm_wordpool.txt	LTP147	ltpFR	16	6	-1	BATTERY	101	n/a	n/a	-1	1.0	1.0	1	upper	Verdana.ttf
1111.78	n/a	WORD	555890	wordpools/wasnorm_wordpool.txt	LTP147	ltpFR	16	6	-1	GIFT	635	n/a	n/a	-1	1.0	1.0	1	upper	Verdana.ttf
1115.722	n/a	WORD	557861	wordpools/wasnorm_wordpool.txt	LTP147	ltpFR	16	6	-1	LIGHTER	819	n/a	n/a	-1	1.0	1.0	1	upper	Verdana.ttf
1119.728	n/a	WORD	559864	wordpools/wasnorm_wordpool.txt	LTP147	ltpFR	16	6	-1	CIGAR	308	n/a	n/a	-1	1.0	1.0	1	upper	Verdana.ttf
1123.718	n/a	WORD	561859	wordpools/wasnorm_wordpool.txt	LTP147	ltpFR	16	6	-1	FARM	552	n/a	n/a	-1	1.0	1.0	1	upper	Verdana.ttf
1127.768	n/a	WORD	563884	wordpools/wasnorm_wordpool.txt	LTP147	ltpFR	16	6	-1	BEEF	113	n/a	n/a	-1	1.0	1.0	1	upper	Verdana.ttf
1131.968	n/a	WORD	565984	wordpools/wasnorm_wordpool.txt	LTP147	ltpFR	16	6	-1	TIDE	1465	n/a	n/a	-1	1.0	1.0	1	upper	Verdana.ttf
1135.782	n/a	WORD	567891	wordpools/wasnorm_wordpool.txt	LTP147	ltpFR	16	6	-1	ASHTRAY	45	n/a	n/a	-1	1.0	1.0	1	upper	Verdana.ttf
1139.78	n/a	WORD	569890	wordpools/wasnorm_wordpool.txt	LTP147	ltpFR	16	6	-1	FLEA	577	n/a	n/a	-1	1.0	1.0	1	upper	Verdana.ttf
1145.554	n/a	REC_START	572777	n/a	LTP147	ltpFR	16	6	n/a	n/a	n/a	n/a	n/a	n/a	n/a	n/a	n/a	n/a	n/a
1146.382	n/a	REC_WORD	573191	wordpools/wasnorm_wordpool.txt	LTP147	ltpFR	16	6	-1	FARM	552	n/a	n/a	-1	n/a	n/a	n/a	n/a	n/a
1147.04	n/a	REC_WORD	573520	wordpools/wasnorm_wordpool.txt	LTP147	ltpFR	16	6	-1	BEEF	113	n/a	n/a	-1	n/a	n/a	n/a	n/a	n/a
1148.068	n/a	REC_WORD	574034	wordpools/wasnorm_wordpool.txt	LTP147	ltpFR	16	6	-1	ASHTRAY	45	n/a	n/a	-1	n/a	n/a	n/a	n/a	n/a
1155.168	n/a	REC_WORD	577584	wordpools/wasnorm_wordpool.txt	LTP147	ltpFR	16	6	-1	ASHTRAY	45	n/a	n/a	-1	n/a	n/a	n/a	n/a	n/a
1159.514	n/a	REC_WORD	579757	wordpools/wasnorm_wordpool.txt	LTP147	ltpFR	16	6	-1	MARINE	869	n/a	n/a	-1	n/a	n/a	n/a	n/a	n/a
1161.324	n/a	REC_WORD	580662	wordpools/wasnorm_wordpool.txt	LTP147	ltpFR	16	6	-1	ASIA	46	n/a	n/a	-1	n/a	n/a	n/a	n/a	n/a
1163.994	n/a	REC_WORD	581997	wordpools/wasnorm_wordpool.txt	LTP147	ltpFR	16	6	-1	LASER	801	n/a	n/a	-1	n/a	n/a	n/a	n/a	n/a
1166.418	n/a	REC_WORD	583209	wordpools/wasnorm_wordpool.txt	LTP147	ltpFR	16	6	-1	AFRICA	9	n/a	n/a	-1	n/a	n/a	n/a	n/a	n/a
1168.298	n/a	REC_WORD	584149	wordpools/wasnorm_wordpool.txt	LTP147	ltpFR	16	6	n/a	CONTINENT	367	n/a	n/a	n/a	n/a	n/a	n/a	n/a	n/a
1171.212	n/a	REC_WORD	585606	wordpools/wasnorm_wordpool.txt	LTP147	ltpFR	16	6	-1	GIRAFFE	636	n/a	n/a	-1	n/a	n/a	n/a	n/a	n/a
1174.132	n/a	REC_WORD	587066	wordpools/wasnorm_wordpool.txt	LTP147	ltpFR	16	6	n/a	ANIMAL	23	n/a	n/a	n/a	n/a	n/a	n/a	n/a	n/a
1175.622	n/a	REC_WORD	587811	wordpools/wasnorm_wordpool.txt	LTP147	ltpFR	16	6	-1	CREATURE	403	n/a	n/a	-1	n/a	n/a	n/a	n/a	n/a
1188.914	n/a	REC_WORD	594457	wordpools/wasnorm_wordpool.txt	LTP147	ltpFR	16	6	-1	BATTERY	101	n/a	n/a	-1	n/a	n/a	n/a	n/a	n/a
1200.348	n/a	REC_WORD	600174	wordpools/wasnorm_wordpool.txt	LTP147	ltpFR	16	6	n/a	CLEAN	-1	n/a	n/a	n/a	n/a	n/a	n/a	n/a	n/a
1224.472	n/a	WORD	612236	wordpools/wasnorm_wordpool.txt	LTP147	ltpFR	16	7	-1	COAT	333	n/a	n/a	-1	1.0	1.0	1	upper	Verdana.ttf
1228.506	n/a	WORD	614253	wordpools/wasnorm_wordpool.txt	LTP147	ltpFR	16	7	-1	LEADER	807	n/a	n/a	-1	1.0	1.0	1	upper	Verdana.ttf
1232.352	n/a	WORD	616176	wordpools/wasnorm_wordpool.txt	LTP147	ltpFR	16	7	-1	PORCUPINE	1107	n/a	n/a	-1	1.0	1.0	1	upper	Verdana.ttf
1236.502	n/a	WORD	618251	wordpools/wasnorm_wordpool.txt	LTP147	ltpFR	16	7	-1	SAND	1230	n/a	n/a	-1	1.0	1.0	1	upper	Verdana.ttf
1240.492	n/a	WORD	620246	wordpools/wasnorm_wordpool.txt	LTP147	ltpFR	16	7	-1	COMMANDER	354	n/a	n/a	-1	1.0	1.0	1	upper	Verdana.ttf
1244.69	n/a	WORD	622345	wordpools/wasnorm_wordpool.txt	LTP147	ltpFR	16	7	-1	JAW	751	n/a	n/a	-1	1.0	1.0	1	upper	Verdana.ttf
1248.656	n/a	WORD	624328	wordpools/wasnorm_wordpool.txt	LTP147	ltpFR	16	7	-1	FIGHTER	564	n/a	n/a	-1	1.0	1.0	1	upper	Verdana.ttf
1252.722	n/a	WORD	626361	wordpools/wasnorm_wordpool.txt	LTP147	ltpFR	16	7	-1	BOOK	149	n/a	n/a	-1	1.0	1.0	1	upper	Verdana.ttf
1256.546	n/a	WORD	628273	wordpools/wasnorm_wordpool.txt	LTP147	ltpFR	16	7	-1	PAGE	1001	n/a	n/a	-1	1.0	1.0	1	upper	Verdana.ttf
1260.718	n/a	WORD	630359	wordpools/wasnorm_wordpool.txt	LTP147	ltpFR	16	7	-1	TELESCOPE	1446	n/a	n/a	-1	1.0	1.0	1	upper	Verdana.ttf
1264.768	n/a	WORD	632384	wordpools/wasnorm_wordpool.txt	LTP147	ltpFR	16	7	-1	ASTEROID	50	n/a	n/a	-1	1.0	1.0	1	upper	Verdana.ttf
1268.776	n/a	WORD	634388	wordpools/wasnorm_wordpool.txt	LTP147	ltpFR	16	7	-1	CACTUS	215	n/a	n/a	-1	1.0	1.0	1	upper	Verdana.ttf
1272.64	n/a	WORD	636320	wordpools/wasnorm_wordpool.txt	LTP147	ltpFR	16	7	-1	WAVE	1596	n/a	n/a	-1	1.0	1.0	1	upper	Verdana.ttf
1276.564	n/a	WORD	638282	wordpools/wasnorm_wordpool.txt	LTP147	ltpFR	16	7	-1	CANYON	235	n/a	n/a	-1	1.0	1.0	1	upper	Verdana.ttf
1280.704	n/a	WORD	640352	wordpools/wasnorm_wordpool.txt	LTP147	ltpFR	16	7	-1	DRILL	497	n/a	n/a	-1	1.0	1.0	1	upper	Verdana.ttf
1284.838	n/a	WORD	642419	wordpools/wasnorm_wordpool.txt	LTP147	ltpFR	16	7	-1	ANIMAL	23	n/a	n/a	-1	1.0	1.0	1	upper	Verdana.ttf
1290.686	n/a	REC_START	645343	n/a	LTP147	ltpFR	16	7	n/a	n/a	n/a	n/a	n/a	n/a	n/a	n/a	n/a	n/a	n/a
1291.05	n/a	REC_WORD	645525	wordpools/wasnorm_wordpool.txt	LTP147	ltpFR	16	7	-1	CANYON	235	n/a	n/a	-1	n/a	n/a	n/a	n/a	n/a
1291.724	n/a	REC_WORD	645862	wordpools/wasnorm_wordpool.txt	LTP147	ltpFR	16	7	-1	ANIMAL	23	n/a	n/a	-1	n/a	n/a	n/a	n/a	n/a
1292.298	n/a	REC_WORD	646149	wordpools/wasnorm_wordpool.txt	LTP147	ltpFR	16	7	-1	TIDE	1465	n/a	n/a	-1	n/a	n/a	n/a	n/a	n/a
1293.624	n/a	REC_WORD	646812	wordpools/wasnorm_wordpool.txt	LTP147	ltpFR	16	7	-1	WAVE	1596	n/a	n/a	-1	n/a	n/a	n/a	n/a	n/a
1295.256	n/a	REC_WORD	647628	wordpools/wasnorm_wordpool.txt	LTP147	ltpFR	16	7	-1	BOOK	149	n/a	n/a	-1	n/a	n/a	n/a	n/a	n/a
1299.442	n/a	REC_WORD	649721	wordpools/wasnorm_wordpool.txt	LTP147	ltpFR	16	7	-1	PAGE	1001	n/a	n/a	-1	n/a	n/a	n/a	n/a	n/a
1309.016	n/a	REC_WORD	654508	wordpools/wasnorm_wordpool.txt	LTP147	ltpFR	16	7	-1	PORCUPINE	1107	n/a	n/a	-1	n/a	n/a	n/a	n/a	n/a
1309.934	n/a	REC_WORD	654967	wordpools/wasnorm_wordpool.txt	LTP147	ltpFR	16	7	-1	COAT	333	n/a	n/a	-1	n/a	n/a	n/a	n/a	n/a
1310.558	n/a	REC_WORD	655279	wordpools/wasnorm_wordpool.txt	LTP147	ltpFR	16	7	-1	LEADER	807	n/a	n/a	-1	n/a	n/a	n/a	n/a	n/a
1311.13	n/a	REC_WORD	655565	wordpools/wasnorm_wordpool.txt	LTP147	ltpFR	16	7	-1	COMMANDER	354	n/a	n/a	-1	n/a	n/a	n/a	n/a	n/a
1336.424	n/a	REC_WORD	668212	wordpools/wasnorm_wordpool.txt	LTP147	ltpFR	16	7	-1	FLEA	577	n/a	n/a	-1	n/a	n/a	n/a	n/a	n/a
1352.054	n/a	REC_WORD	676027	wordpools/wasnorm_wordpool.txt	LTP147	ltpFR	16	7	n/a	SIBLING	1301	n/a	n/a	n/a	n/a	n/a	n/a	n/a	n/a
1384.492	n/a	WORD	692246	wordpools/wasnorm_wordpool.txt	LTP147	ltpFR	16	8	0	PIE	1062	n/a	n/a	0	0.57763671875	0.412841796875	1	lower	amplitud.ttf
1388.314	n/a	WORD	694157	wordpools/wasnorm_wordpool.txt	LTP147	ltpFR	16	8	0	TWIG	1527	n/a	n/a	1	0.57763671875	0.412841796875	1	lower	amplitud.ttf
1392.362	n/a	WORD	696181	wordpools/wasnorm_wordpool.txt	LTP147	ltpFR	16	8	0	CAMEL	223	n/a	n/a	1	0.57763671875	0.412841796875	1	lower	amplitud.ttf
1396.478	n/a	WORD	698239	wordpools/wasnorm_wordpool.txt	LTP147	ltpFR	16	8	1	CATERPILLAR	259	n/a	n/a	1	0.422607421875	0.5869140625	0	upper	zerothre.ttf
1400.602	n/a	WORD	700301	wordpools/wasnorm_wordpool.txt	LTP147	ltpFR	16	8	1	SHINGLE	1285	n/a	n/a	0	0.422607421875	0.5869140625	0	upper	zerothre.ttf
1404.7	n/a	WORD	702350	wordpools/wasnorm_wordpool.txt	LTP147	ltpFR	16	8	1	WALL	1582	n/a	n/a	0	0.422607421875	0.5869140625	0	upper	zerothre.ttf
1408.6	n/a	WORD	704300	wordpools/wasnorm_wordpool.txt	LTP147	ltpFR	16	8	1	GUITAR	670	n/a	n/a	0	0.422607421875	0.5869140625	0	upper	zerothre.ttf
1412.44	n/a	WORD	706220	wordpools/wasnorm_wordpool.txt	LTP147	ltpFR	16	8	0	VISITOR	1573	n/a	n/a	1	0.57763671875	0.412841796875	1	lower	amplitud.ttf
1416.422	n/a	WORD	708211	wordpools/wasnorm_wordpool.txt	LTP147	ltpFR	16	8	0	BERRY	122	n/a	n/a	0	0.57763671875	0.412841796875	1	lower	amplitud.ttf
1420.246	n/a	WORD	710123	wordpools/wasnorm_wordpool.txt	LTP147	ltpFR	16	8	0	PIT	1077	n/a	n/a	0	0.57763671875	0.412841796875	1	lower	amplitud.ttf
1424.394	n/a	WORD	712197	wordpools/wasnorm_wordpool.txt	LTP147	ltpFR	16	8	1	GRASSHOPPER	656	n/a	n/a	1	0.422607421875	0.5869140625	0	upper	zerothre.ttf
1428.494	n/a	WORD	714247	wordpools/wasnorm_wordpool.txt	LTP147	ltpFR	16	8	1	FLEET	578	n/a	n/a	0	0.422607421875	0.5869140625	0	upper	zerothre.ttf
1432.434	n/a	WORD	716217	wordpools/wasnorm_wordpool.txt	LTP147	ltpFR	16	8	1	MILITARY	894	n/a	n/a	1	0.422607421875	0.5869140625	0	upper	zerothre.ttf
1436.282	n/a	WORD	718141	wordpools/wasnorm_wordpool.txt	LTP147	ltpFR	16	8	1	CORAL	378	n/a	n/a	1	0.422607421875	0.5869140625	0	upper	zerothre.ttf
1440.406	n/a	WORD	720203	wordpools/wasnorm_wordpool.txt	LTP147	ltpFR	16	8	0	BAKER	71	n/a	n/a	1	0.57763671875	0.412841796875	1	lower	amplitud.ttf
1444.306	n/a	WORD	722153	wordpools/wasnorm_wordpool.txt	LTP147	ltpFR	16	8	0	BUN	197	n/a	n/a	0	0.57763671875	0.412841796875	1	lower	amplitud.ttf
1450.078	n/a	REC_START	725039	n/a	LTP147	ltpFR	16	8	n/a	n/a	n/a	n/a	n/a	n/a	n/a	n/a	n/a	n/a	n/a
1450.592	n/a	REC_WORD	725296	wordpools/wasnorm_wordpool.txt	LTP147	ltpFR	16	8	1	CORAL	378	n/a	n/a	1	n/a	n/a	n/a	n/a	n/a
1451.086	n/a	REC_WORD	725543	wordpools/wasnorm_wordpool.txt	LTP147	ltpFR	16	8	1	MILITARY	894	n/a	n/a	1	n/a	n/a	n/a	n/a	n/a
1451.724	n/a	REC_WORD	725862	wordpools/wasnorm_wordpool.txt	LTP147	ltpFR	16	8	1	FLEET	578	n/a	n/a	0	n/a	n/a	n/a	n/a	n/a
1452.318	n/a	REC_WORD	726159	wordpools/wasnorm_wordpool.txt	LTP147	ltpFR	16	8	0	BAKER	71	n/a	n/a	1	n/a	n/a	n/a	n/a	n/a
1452.742	n/a	REC_WORD	726371	wordpools/wasnorm_wordpool.txt	LTP147	ltpFR	16	8	0	BUN	197	n/a	n/a	0	n/a	n/a	n/a	n/a	n/a
1455.478	n/a	REC_WORD	727739	wordpools/wasnorm_wordpool.txt	LTP147	ltpFR	16	8	0	TWIG	1527	n/a	n/a	1	n/a	n/a	n/a	n/a	n/a
1456.366	n/a	REC_WORD	728183	wordpools/wasnorm_wordpool.txt	LTP147	ltpFR	16	8	0	PIE	1062	n/a	n/a	0	n/a	n/a	n/a	n/a	n/a
1457.298	n/a	REC_WORD	728649	wordpools/wasnorm_wordpool.txt	LTP147	ltpFR	16	8	1	GRASSHOPPER	656	n/a	n/a	1	n/a	n/a	n/a	n/a	n/a
1458.298	n/a	REC_WORD_VV	729149	wordpools/wasnorm_wordpool.txt	LTP147	ltpFR	16	8	n/a	<>	-1	n/a	n/a	n/a	n/a	n/a	n/a	n/a	n/a
1458.984	n/a	REC_WORD	729492	wordpools/wasnorm_wordpool.txt	LTP147	ltpFR	16	8	1	CATERPILLAR	259	n/a	n/a	1	n/a	n/a	n/a	n/a	n/a
1459.794	n/a	REC_WORD	729897	wordpools/wasnorm_wordpool.txt	LTP147	ltpFR	16	8	1	SHINGLE	1285	n/a	n/a	0	n/a	n/a	n/a	n/a	n/a
1460.456	n/a	REC_WORD	730228	wordpools/wasnorm_wordpool.txt	LTP147	ltpFR	16	8	1	WALL	1582	n/a	n/a	0	n/a	n/a	n/a	n/a	n/a
1462.56	n/a	REC_WORD	731280	wordpools/wasnorm_wordpool.txt	LTP147	ltpFR	16	8	0	PIE	1062	n/a	n/a	0	n/a	n/a	n/a	n/a	n/a
1481.024	n/a	REC_WORD	740512	wordpools/wasnorm_wordpool.txt	LTP147	ltpFR	16	8	0	BAKER	71	n/a	n/a	1	n/a	n/a	n/a	n/a	n/a
1485.45	n/a	REC_WORD	742725	wordpools/wasnorm_wordpool.txt	LTP147	ltpFR	16	8	0	BERRY	122	n/a	n/a	0	n/a	n/a	n/a	n/a	n/a
1489.88	n/a	REC_WORD	744940	wordpools/wasnorm_wordpool.txt	LTP147	ltpFR	16	8	0	PIT	1077	n/a	n/a	0	n/a	n/a	n/a	n/a	n/a
1499.588	n/a	REC_WORD	749794	wordpools/wasnorm_wordpool.txt	LTP147	ltpFR	16	8	1	MILITARY	894	n/a	n/a	1	n/a	n/a	n/a	n/a	n/a
1507.526	n/a	REC_WORD_VV	753763	wordpools/wasnorm_wordpool.txt	LTP147	ltpFR	16	8	n/a	<>	-1	n/a	n/a	n/a	n/a	n/a	n/a	n/a	n/a
1509.272	n/a	REC_WORD	754636	wordpools/wasnorm_wordpool.txt	LTP147	ltpFR	16	8	n/a	JOB	-1	n/a	n/a	n/a	n/a	n/a	n/a	n/a	n/a
1528.538	n/a	WORD	764269	wordpools/wasnorm_wordpool.txt	LTP147	ltpFR	16	9	-1	DOUGHNUT	490	n/a	n/a	-1	1.0	1.0	1	upper	Verdana.ttf
1532.404	n/a	WORD	766202	wordpools/wasnorm_wordpool.txt	LTP147	ltpFR	16	9	-1	STEAM	1375	n/a	n/a	-1	1.0	1.0	1	upper	Verdana.ttf
1536.478	n/a	WORD	768239	wordpools/wasnorm_wordpool.txt	LTP147	ltpFR	16	9	-1	ORGAN	984	n/a	n/a	-1	1.0	1.0	1	upper	Verdana.ttf
1540.56	n/a	WORD	770280	wordpools/wasnorm_wordpool.txt	LTP147	ltpFR	16	9	-1	FLESH	579	n/a	n/a	-1	1.0	1.0	1	upper	Verdana.ttf
1544.674	n/a	WORD	772337	wordpools/wasnorm_wordpool.txt	LTP147	ltpFR	16	9	-1	LOOP	844	n/a	n/a	-1	1.0	1.0	1	upper	Verdana.ttf
1548.598	n/a	WORD	774299	wordpools/wasnorm_wordpool.txt	LTP147	ltpFR	16	9	-1	CAB	209	n/a	n/a	-1	1.0	1.0	1	upper	Verdana.ttf
1552.49	n/a	WORD	776245	wordpools/wasnorm_wordpool.txt	LTP147	ltpFR	16	9	-1	VAN	1548	n/a	n/a	-1	1.0	1.0	1	upper	Verdana.ttf
1556.562	n/a	WORD	778281	wordpools/wasnorm_wordpool.txt	LTP147	ltpFR	16	9	-1	PUPIL	1143	n/a	n/a	-1	1.0	1.0	1	upper	Verdana.ttf
1560.628	n/a	WORD	780314	wordpools/wasnorm_wordpool.txt	LTP147	ltpFR	16	9	-1	TREAD	1499	n/a	n/a	-1	1.0	1.0	1	upper	Verdana.ttf
1564.726	n/a	WORD	782363	wordpools/wasnorm_wordpool.txt	LTP147	ltpFR	16	9	-1	MONEY	908	n/a	n/a	-1	1.0	1.0	1	upper	Verdana.ttf
1568.734	n/a	WORD	784367	wordpools/wasnorm_wordpool.txt	LTP147	ltpFR	16	9	-1	FIREMAN	569	n/a	n/a	-1	1.0	1.0	1	upper	Verdana.ttf
1572.742	n/a	WORD	786371	wordpools/wasnorm_wordpool.txt	LTP147	ltpFR	16	9	-1	CHIMNEY	301	n/a	n/a	-1	1.0	1.0	1	upper	Verdana.ttf
1576.614	n/a	WORD	788307	wordpools/wasnorm_wordpool.txt	LTP147	ltpFR	16	9	-1	KETTLE	772	n/a	n/a	-1	1.0	1.0	1	upper	Verdana.ttf
1580.54	n/a	WORD	790270	wordpools/wasnorm_wordpool.txt	LTP147	ltpFR	16	9	-1	VAULT	1550	n/a	n/a	-1	1.0	1.0	1	upper	Verdana.ttf
1584.388	n/a	WORD	792194	wordpools/wasnorm_wordpool.txt	LTP147	ltpFR	16	9	-1	TROUSERS	1510	n/a	n/a	-1	1.0	1.0	1	upper	Verdana.ttf
1588.312	n/a	WORD	794156	wordpools/wasnorm_wordpool.txt	LTP147	ltpFR	16	9	-1	ISLAND	745	n/a	n/a	-1	1.0	1.0	1	upper	Verdana.ttf
1593.944	n/a	REC_START	796972	n/a	LTP147	ltpFR	16	9	n/a	n/a	n/a	n/a	n/a	n/a	n/a	n/a	n/a	n/a	n/a
1596.254	n/a	REC_WORD	798127	wordpools/wasnorm_wordpool.txt	LTP147	ltpFR	16	9	-1	PUPIL	1143	n/a	n/a	-1	n/a	n/a	n/a	n/a	n/a
1596.766	n/a	REC_WORD	798383	wordpools/wasnorm_wordpool.txt	LTP147	ltpFR	16	9	-1	VAULT	1550	n/a	n/a	-1	n/a	n/a	n/a	n/a	n/a
1597.316	n/a	REC_WORD	798658	wordpools/wasnorm_wordpool.txt	LTP147	ltpFR	16	9	-1	TROUSERS	1510	n/a	n/a	-1	n/a	n/a	n/a	n/a	n/a
1601.402	n/a	REC_WORD	800701	wordpools/wasnorm_wordpool.txt	LTP147	ltpFR	16	9	-1	DOUGHNUT	490	n/a	n/a	-1	n/a	n/a	n/a	n/a	n/a
1612.328	n/a	REC_WORD	806164	wordpools/wasnorm_wordpool.txt	LTP147	ltpFR	16	9	n/a	FIREFIGHTER	-1	n/a	n/a	n/a	n/a	n/a	n/a	n/a	n/a
1613.74	n/a	REC_WORD	806870	wordpools/wasnorm_wordpool.txt	LTP147	ltpFR	16	9	-1	MONEY	908	n/a	n/a	-1	n/a	n/a	n/a	n/a	n/a
1622.998	n/a	REC_WORD	811499	wordpools/wasnorm_wordpool.txt	LTP147	ltpFR	16	9	-1	ORGAN	984	n/a	n/a	-1	n/a	n/a	n/a	n/a	n/a
1625.862	n/a	REC_WORD	812931	wordpools/wasnorm_wordpool.txt	LTP147	ltpFR	16	9	-1	CAB	209	n/a	n/a	-1	n/a	n/a	n/a	n/a	n/a
1626.87	n/a	REC_WORD	813435	wordpools/wasnorm_wordpool.txt	LTP147	ltpFR	16	9	-1	VAN	1548	n/a	n/a	-1	n/a	n/a	n/a	n/a	n/a
1631.424	n/a	REC_WORD	815712	wordpools/wasnorm_wordpool.txt	LTP147	ltpFR	16	9	-1	FLESH	579	n/a	n/a	-1	n/a	n/a	n/a	n/a	n/a
1672.802	n/a	WORD	836401	wordpools/wasnorm_wordpool.txt	LTP147	ltpFR	16	10	1	GARLIC	624	n/a	n/a	1	0.422607421875	0.5869140625	0	upper	zerothre.ttf
1676.81	n/a	WORD	838405	wordpools/wasnorm_wordpool.txt	LTP147	ltpFR	16	10	1	TOAST	1471	n/a	n/a	1	0.422607421875	0.5869140625	0	upper	zerothre.ttf
1680.908	n/a	WORD	840454	wordpools/wasnorm_wordpool.txt	LTP147	ltpFR	16	10	1	TOMATO	1476	n/a	n/a	1	0.422607421875	0.5869140625	0	upper	zerothre.ttf
1684.766	n/a	WORD	842383	wordpools/wasnorm_wordpool.txt	LTP147	ltpFR	16	10	1	BLUEBERRY	140	n/a	n/a	1	0.422607421875	0.5869140625	0	upper	zerothre.ttf
1688.948	n/a	WORD	844474	wordpools/wasnorm_wordpool.txt	LTP147	ltpFR	16	10	1	PERCH	1048	n/a	n/a	0	0.422607421875	0.5869140625	0	upper	zerothre.ttf
1692.988	n/a	WORD	846494	wordpools/wasnorm_wordpool.txt	LTP147	ltpFR	16	10	1	MOP	916	n/a	n/a	0	0.422607421875	0.5869140625	0	upper	zerothre.ttf
1696.844	n/a	WORD	848422	wordpools/wasnorm_wordpool.txt	LTP147	ltpFR	16	10	1	CROW	414	n/a	n/a	1	0.422607421875	0.5869140625	0	upper	zerothre.ttf
1701.044	n/a	WORD	850522	wordpools/wasnorm_wordpool.txt	LTP147	ltpFR	16	10	1	SUPERMARKET	1409	n/a	n/a	0	0.422607421875	0.5869140625	0	upper	zerothre.ttf
1705.202	n/a	WORD	852601	wordpools/wasnorm_wordpool.txt	LTP147	ltpFR	16	10	1	GODDESS	646	n/a	n/a	1	0.422607421875	0.5869140625	0	upper	zerothre.ttf
1709.042	n/a	WORD	854521	wordpools/wasnorm_wordpool.txt	LTP147	ltpFR	16	10	1	SWAN	1417	n/a	n/a	1	0.422607421875	0.5869140625	0	upper	zerothre.ttf
1712.99	n/a	WORD	856495	wordpools/wasnorm_wordpool.txt	LTP147	ltpFR	16	10	1	BLUEJAY	141	n/a	n/a	1	0.422607421875	0.5869140625	0	upper	zerothre.ttf
1716.846	n/a	WORD	858423	wordpools/wasnorm_wordpool.txt	LTP147	ltpFR	16	10	1	PLAID	1080	n/a	n/a	0	0.422607421875	0.5869140625	0	upper	zerothre.ttf
1720.888	n/a	WORD	860444	wordpools/wasnorm_wordpool.txt	LTP147	ltpFR	16	10	1	BARRACUDA	90	n/a	n/a	1	0.422607421875	0.5869140625	0	upper	zerothre.ttf
1725.07	n/a	WORD	862535	wordpools/wasnorm_wordpool.txt	LTP147	ltpFR	16	10	1	DANDELION	438	n/a	n/a	1	0.422607421875	0.5869140625	0	upper	zerothre.ttf
1729.026	n/a	WORD	864513	wordpools/wasnorm_wordpool.txt	LTP147	ltpFR	16	10	1	DAISY	435	n/a	n/a	1	0.422607421875	0.5869140625	0	upper	zerothre.ttf
1732.918	n/a	WORD	866459	wordpools/wasnorm_wordpool.txt	LTP147	ltpFR	16	10	1	BELLY	119	n/a	n/a	0	0.422607421875	0.5869140625	0	upper	zerothre.ttf
1738.95	n/a	REC_START	869475	n/a	LTP147	ltpFR	16	10	n/a	n/a	n/a	n/a	n/a	n/a	n/a	n/a	n/a	n/a	n/a
1739.604	n/a	REC_WORD	869802	wordpools/wasnorm_wordpool.txt	LTP147	ltpFR	16	10	1	BARRACUDA	90	n/a	n/a	1	n/a	n/a	n/a	n/a	n/a
1740.656	n/a	REC_WORD	870328	wordpools/wasnorm_wordpool.txt	LTP147	ltpFR	16	10	1	BELLY	119	n/a	n/a	0	n/a	n/a	n/a	n/a	n/a
1741.854	n/a	REC_WORD	870927	wordpools/wasnorm_wordpool.txt	LTP147	ltpFR	16	10	1	DAISY	435	n/a	n/a	1	n/a	n/a	n/a	n/a	n/a
1742.532	n/a	REC_WORD	871266	wordpools/wasnorm_wordpool.txt	LTP147	ltpFR	16	10	1	DANDELION	438	n/a	n/a	1	n/a	n/a	n/a	n/a	n/a
1743.476	n/a	REC_WORD	871738	wordpools/wasnorm_wordpool.txt	LTP147	ltpFR	16	10	1	SWAN	1417	n/a	n/a	1	n/a	n/a	n/a	n/a	n/a
1744.254	n/a	REC_WORD	872127	wordpools/wasnorm_wordpool.txt	LTP147	ltpFR	16	10	1	BLUEJAY	141	n/a	n/a	1	n/a	n/a	n/a	n/a	n/a
1744.896	n/a	REC_WORD	872448	wordpools/wasnorm_wordpool.txt	LTP147	ltpFR	16	10	1	PLAID	1080	n/a	n/a	0	n/a	n/a	n/a	n/a	n/a
1749.876	n/a	REC_WORD	874938	wordpools/wasnorm_wordpool.txt	LTP147	ltpFR	16	10	1	GARLIC	624	n/a	n/a	1	n/a	n/a	n/a	n/a	n/a
1751.072	n/a	REC_WORD	875536	wordpools/wasnorm_wordpool.txt	LTP147	ltpFR	16	10	1	TOMATO	1476	n/a	n/a	1	n/a	n/a	n/a	n/a	n/a
1752.016	n/a	REC_WORD	876008	wordpools/wasnorm_wordpool.txt	LTP147	ltpFR	16	10	1	TOAST	1471	n/a	n/a	1	n/a	n/a	n/a	n/a	n/a
1753.726	n/a	REC_WORD	876863	wordpools/wasnorm_wordpool.txt	LTP147	ltpFR	16	10	1	BLUEBERRY	140	n/a	n/a	1	n/a	n/a	n/a	n/a	n/a
1754.726	n/a	REC_WORD_VV	877363	wordpools/wasnorm_wordpool.txt	LTP147	ltpFR	16	10	n/a	<>	-1	n/a	n/a	n/a	n/a	n/a	n/a	n/a	n/a
1756.74	n/a	REC_WORD	878370	wordpools/wasnorm_wordpool.txt	LTP147	ltpFR	16	10	1	PERCH	1048	n/a	n/a	0	n/a	n/a	n/a	n/a	n/a
1757.884	n/a	REC_WORD	878942	wordpools/wasnorm_wordpool.txt	LTP147	ltpFR	16	10	1	CROW	414	n/a	n/a	1	n/a	n/a	n/a	n/a	n/a
1759.166	n/a	REC_WORD	879583	wordpools/wasnorm_wordpool.txt	LTP147	ltpFR	16	10	1	SUPERMARKET	1409	n/a	n/a	0	n/a	n/a	n/a	n/a	n/a
1760.166	n/a	REC_WORD_VV	880083	wordpools/wasnorm_wordpool.txt	LTP147	ltpFR	16	10	n/a	<>	-1	n/a	n/a	n/a	n/a	n/a	n/a	n/a	n/a
1782.09	n/a	REC_WORD	891045	wordpools/wasnorm_wordpool.txt	LTP147	ltpFR	16	10	1	SUPERMARKET	1409	n/a	n/a	0	n/a	n/a	n/a	n/a	n/a
1787.238	n/a	REC_WORD	893619	wordpools/wasnorm_wordpool.txt	LTP147	ltpFR	16	10	1	PLAID	1080	n/a	n/a	0	n/a	n/a	n/a	n/a	n/a
1809.444	n/a	REC_WORD	904722	wordpools/wasnorm_wordpool.txt	LTP147	ltpFR	16	10	1	GODDESS	646	n/a	n/a	1	n/a	n/a	n/a	n/a	n/a
1818.126	n/a	WORD	909063	wordpools/wasnorm_wordpool.txt	LTP147	ltpFR	16	11	1	AGENT	10	n/a	n/a	1	0.422607421875	0.5869140625	0	upper	zerothre.ttf
1822.258	n/a	WORD	911129	wordpools/wasnorm_wordpool.txt	LTP147	ltpFR	16	11	1	GULL	671	n/a	n/a	1	0.422607421875	0.5869140625	0	upper	zerothre.ttf
1826.356	n/a	WORD	913178	wordpools/wasnorm_wordpool.txt	LTP147	ltpFR	16	11	1	GREASE	660	n/a	n/a	0	0.422607421875	0.5869140625	0	upper	zerothre.ttf
1830.53	n/a	WORD	915265	wordpools/wasnorm_wordpool.txt	LTP147	ltpFR	16	11	1	BUILDING	191	n/a	n/a	0	0.422607421875	0.5869140625	0	upper	zerothre.ttf
1834.53	n/a	WORD	917265	wordpools/wasnorm_wordpool.txt	LTP147	ltpFR	16	11	0	SCHOOL	1248	n/a	n/a	1	0.57763671875	0.412841796875	1	lower	amplitud.ttf
1838.494	n/a	WORD	919247	wordpools/wasnorm_wordpool.txt	LTP147	ltpFR	16	11	0	QUARTER	1148	n/a	n/a	0	0.57763671875	0.412841796875	1	lower	amplitud.ttf
1842.434	n/a	WORD	921217	wordpools/wasnorm_wordpool.txt	LTP147	ltpFR	16	11	1	SHERIFF	1284	n/a	n/a	3	0.422607421875	0.5869140625	0	upper	zerothre.ttf
1843.608	n/a	KEY_MSG	921804	n/a	LTP147	ltpFR	16	11	n/a	n/a	n/a	n/a	n/a	n/a	n/a	n/a	n/a	n/a	n/a
1846.432	n/a	WORD	923216	wordpools/wasnorm_wordpool.txt	LTP147	ltpFR	16	11	1	BEAST	108	n/a	n/a	1	0.422607421875	0.5869140625	0	upper	zerothre.ttf
1850.364	n/a	WORD	925182	wordpools/wasnorm_wordpool.txt	LTP147	ltpFR	16	11	0	CASHIER	254	n/a	n/a	1	0.57763671875	0.412841796875	1	lower	amplitud.ttf
1854.24	n/a	WORD	927120	wordpools/wasnorm_wordpool.txt	LTP147	ltpFR	16	11	0	RAT	1169	n/a	n/a	1	0.57763671875	0.412841796875	1	lower	amplitud.ttf
1858.08	n/a	WORD	929040	wordpools/wasnorm_wordpool.txt	LTP147	ltpFR	16	11	0	COUNTRY	388	n/a	n/a	1	0.57763671875	0.412841796875	1	lower	amplitud.ttf
1862.204	n/a	WORD	931102	wordpools/wasnorm_wordpool.txt	LTP147	ltpFR	16	11	0	CITY	314	n/a	n/a	1	0.57763671875	0.412841796875	1	lower	amplitud.ttf
1866.344	n/a	WORD	933172	wordpools/wasnorm_wordpool.txt	LTP147	ltpFR	16	11	0	CAT	257	n/a	n/a	1	0.57763671875	0.412841796875	1	lower	amplitud.ttf
1870.216	n/a	WORD	935108	wordpools/wasnorm_wordpool.txt	LTP147	ltpFR	16	11	0	CHEMICAL	291	n/a	n/a	0	0.57763671875	0.412841796875	1	lower	amplitud.ttf
1874.342	n/a	WORD	937171	wordpools/wasnorm_wordpool.txt	LTP147	ltpFR	16	11	1	BRACES	164	n/a	n/a	1	0.422607421875	0.5869140625	0	upper	zerothre.ttf
1878.24	n/a	WORD	939120	wordpools/wasnorm_wordpool.txt	LTP147	ltpFR	16	11	1	DENTIST	447	n/a	n/a	1	0.422607421875	0.5869140625	0	upper	zerothre.ttf
1884.014	n/a	REC_START	942007	n/a	LTP147	ltpFR	16	11	n/a	n/a	n/a	n/a	n/a	n/a	n/a	n/a	n/a	n/a	n/a
1884.652	n/a	REC_WORD	942326	wordpools/wasnorm_wordpool.txt	LTP147	ltpFR	16	11	0	CAT	257	n/a	n/a	1	n/a	n/a	n/a	n/a	n/a
1885.09	n/a	REC_WORD	942545	wordpools/wasnorm_wordpool.txt	LTP147	ltpFR	16	11	0	RAT	1169	n/a	n/a	1	n/a	n/a	n/a	n/a	n/a
1887.226	n/a	REC_WORD	943613	wordpools/wasnorm_wordpool.txt	LTP147	ltpFR	16	11	1	AGENT	10	n/a	n/a	1	n/a	n/a	n/a	n/a	n/a
1889.102	n/a	REC_WORD	944551	wordpools/wasnorm_wordpool.txt	LTP147	ltpFR	16	11	1	DENTIST	447	n/a	n/a	1	n/a	n/a	n/a	n/a	n/a
1889.856	n/a	REC_WORD	944928	wordpools/wasnorm_wordpool.txt	LTP147	ltpFR	16	11	1	BRACES	164	n/a	n/a	1	n/a	n/a	n/a	n/a	n/a
1891.726	n/a	REC_WORD	945863	wordpools/wasnorm_wordpool.txt	LTP147	ltpFR	16	11	0	COUNTRY	388	n/a	n/a	1	n/a	n/a	n/a	n/a	n/a
1893.068	n/a	REC_WORD	946534	wordpools/wasnorm_wordpool.txt	LTP147	ltpFR	16	11	0	CITY	314	n/a	n/a	1	n/a	n/a	n/a	n/a	n/a
1894.136	n/a	REC_WORD	947068	wordpools/wasnorm_wordpool.txt	LTP147	ltpFR	16	11	1	SHERIFF	1284	n/a	n/a	3	n/a	n/a	n/a	n/a	n/a
1896.64	n/a	REC_WORD	948320	wordpools/wasnorm_wordpool.txt	LTP147	ltpFR	16	11	0	SCHOOL	1248	n/a	n/a	1	n/a	n/a	n/a	n/a	n/a
1898.108	n/a	REC_WORD	949054	wordpools/wasnorm_wordpool.txt	LTP147	ltpFR	16	11	1	BUILDING	191	n/a	n/a	0	n/a	n/a	n/a	n/a	n/a
1898.916	n/a	REC_WORD	949458	wordpools/wasnorm_wordpool.txt	LTP147	ltpFR	16	11	0	QUARTER	1148	n/a	n/a	0	n/a	n/a	n/a	n/a	n/a
1904.912	n/a	REC_WORD	952456	wordpools/wasnorm_wordpool.txt	LTP147	ltpFR	16	11	1	AGENT	10	n/a	n/a	1	n/a	n/a	n/a	n/a	n/a
1909.622	n/a	REC_WORD	954811	wordpools/wasnorm_wordpool.txt	LTP147	ltpFR	16	11	1	GREASE	660	n/a	n/a	0	n/a	n/a	n/a	n/a	n/a
1976.794	n/a	WORD	988397	wordpools/wasnorm_wordpool.txt	LTP147	ltpFR	16	12	1	ESCALATOR	539	n/a	n/a	0	0.422607421875	0.5869140625	0	upper	zerothre.ttf
1980.716	n/a	WORD	990358	wordpools/wasnorm_wordpool.txt	LTP147	ltpFR	16	12	1	BEAR	106	n/a	n/a	1	0.422607421875	0.5869140625	0	upper	zerothre.ttf
1984.766	n/a	WORD	992383	wordpools/wasnorm_wordpool.txt	LTP147	ltpFR	16	12	1	COLESLAW	344	n/a	n/a	0	0.422607421875	0.5869140625	0	upper	zerothre.ttf
1988.964	n/a	WORD	994482	wordpools/wasnorm_wordpool.txt	LTP147	ltpFR	16	12	1	RACCOON	1153	n/a	n/a	1	0.422607421875	0.5869140625	0	upper	zerothre.ttf
1993.146	n/a	WORD	996573	wordpools/wasnorm_wordpool.txt	LTP147	ltpFR	16	12	1	LID	817	n/a	n/a	0	0.422607421875	0.5869140625	0	upper	zerothre.ttf
1997.262	n/a	WORD	998631	wordpools/wasnorm_wordpool.txt	LTP147	ltpFR	16	12	1	CYLINDER	432	n/a	n/a	0	0.422607421875	0.5869140625	0	upper	zerothre.ttf
2001.244	n/a	WORD	1000622	wordpools/wasnorm_wordpool.txt	LTP147	ltpFR	16	12	1	BLUEPRINT	142	n/a	n/a	0	0.422607421875	0.5869140625	0	upper	zerothre.ttf
2005.352	n/a	WORD	1002676	wordpools/wasnorm_wordpool.txt	LTP147	ltpFR	16	12	1	ARCHITECT	36	n/a	n/a	0	0.422607421875	0.5869140625	0	upper	zerothre.ttf
2009.408	n/a	WORD	1004704	wordpools/wasnorm_wordpool.txt	LTP147	ltpFR	16	12	1	CHIMPANZEE	302	n/a	n/a	1	0.422607421875	0.5869140625	0	upper	zerothre.ttf
2013.558	n/a	WORD	1006779	wordpools/wasnorm_wordpool.txt	LTP147	ltpFR	16	12	1	SCRIBBLE	1256	n/a	n/a	0	0.422607421875	0.5869140625	0	upper	zerothre.ttf
2017.598	n/a	WORD	1008799	wordpools/wasnorm_wordpool.txt	LTP147	ltpFR	16	12	1	PANTHER	1009	n/a	n/a	1	0.422607421875	0.5869140625	0	upper	zerothre.ttf
2021.53	n/a	WORD	1010765	wordpools/wasnorm_wordpool.txt	LTP147	ltpFR	16	12	1	SNACK	1331	n/a	n/a	0	0.422607421875	0.5869140625	0	upper	zerothre.ttf
2025.588	n/a	WORD	1012794	wordpools/wasnorm_wordpool.txt	LTP147	ltpFR	16	12	1	DINNER	468	n/a	n/a	0	0.422607421875	0.5869140625	0	upper	zerothre.ttf
2029.61	n/a	WORD	1014805	wordpools/wasnorm_wordpool.txt	LTP147	ltpFR	16	12	1	STEP	1377	n/a	n/a	1	0.422607421875	0.5869140625	0	upper	zerothre.ttf
2033.494	n/a	WORD	1016747	wordpools/wasnorm_wordpool.txt	LTP147	ltpFR	16	12	1	TURNIP	1521	n/a	n/a	1	0.422607421875	0.5869140625	0	upper	zerothre.ttf
2037.574	n/a	WORD	1018787	wordpools/wasnorm_wordpool.txt	LTP147	ltpFR	16	12	1	BOWL	158	n/a	n/a	0	0.422607421875	0.5869140625	0	upper	zerothre.ttf
2043.2	n/a	REC_START	1021600	n/a	LTP147	ltpFR	16	12	n/a	n/a	n/a	n/a	n/a	n/a	n/a	n/a	n/a	n/a	n/a
2044.416	n/a	REC_WORD	1022208	wordpools/wasnorm_wordpool.txt	LTP147	ltpFR	16	12	1	DINNER	468	n/a	n/a	0	n/a	n/a	n/a	n/a	n/a
2044.964	n/a	REC_WORD	1022482	wordpools/wasnorm_wordpool.txt	LTP147	ltpFR	16	12	1	TURNIP	1521	n/a	n/a	1	n/a	n/a	n/a	n/a	n/a
2045.544	n/a	REC_WORD	1022772	wordpools/wasnorm_wordpool.txt	LTP147	ltpFR	16	12	1	BOWL	158	n/a	n/a	0	n/a	n/a	n/a	n/a	n/a
2047.284	n/a	REC_WORD	1023642	wordpools/wasnorm_wordpool.txt	LTP147	ltpFR	16	12	1	ESCALATOR	539	n/a	n/a	0	n/a	n/a	n/a	n/a	n/a
2048.302	n/a	REC_WORD	1024151	wordpools/wasnorm_wordpool.txt	LTP147	ltpFR	16	12	1	BEAR	106	n/a	n/a	1	n/a	n/a	n/a	n/a	n/a
2057.098	n/a	REC_WORD	1028549	wordpools/wasnorm_wordpool.txt	LTP147	ltpFR	16	12	1	COLESLAW	344	n/a	n/a	0	n/a	n/a	n/a	n/a	n/a
2059.906	n/a	REC_WORD	1029953	wordpools/wasnorm_wordpool.txt	LTP147	ltpFR	16	12	1	RACCOON	1153	n/a	n/a	1	n/a	n/a	n/a	n/a	n/a
2061.474	n/a	REC_WORD	1030737	wordpools/wasnorm_wordpool.txt	LTP147	ltpFR	16	12	1	LID	817	n/a	n/a	0	n/a	n/a	n/a	n/a	n/a
2062.73	n/a	REC_WORD	1031365	wordpools/wasnorm_wordpool.txt	LTP147	ltpFR	16	12	1	CYLINDER	432	n/a	n/a	0	n/a	n/a	n/a	n/a	n/a
2063.978	n/a	REC_WORD	1031989	wordpools/wasnorm_wordpool.txt	LTP147	ltpFR	16	12	1	BLUEPRINT	142	n/a	n/a	0	n/a	n/a	n/a	n/a	n/a
2067.96	n/a	REC_WORD	1033980	wordpools/wasnorm_wordpool.txt	LTP147	ltpFR	16	12	1	ARCHITECT	36	n/a	n/a	0	n/a	n/a	n/a	n/a	n/a
2069.086	n/a	REC_WORD	1034543	wordpools/wasnorm_wordpool.txt	LTP147	ltpFR	16	12	1	CHIMPANZEE	302	n/a	n/a	1	n/a	n/a	n/a	n/a	n/a
2070.086	n/a	REC_WORD_VV	1035043	wordpools/wasnorm_wordpool.txt	LTP147	ltpFR	16	12	n/a	<>	-1	n/a	n/a	n/a	n/a	n/a	n/a	n/a	n/a
2072.074	n/a	REC_WORD	1036037	wordpools/wasnorm_wordpool.txt	LTP147	ltpFR	16	12	1	SCRIBBLE	1256	n/a	n/a	0	n/a	n/a	n/a	n/a	n/a
2074.52	n/a	REC_WORD	1037260	wordpools/wasnorm_wordpool.txt	LTP147	ltpFR	16	12	1	PANTHER	1009	n/a	n/a	1	n/a	n/a	n/a	n/a	n/a
2086.832	n/a	REC_WORD	1043416	wordpools/wasnorm_wordpool.txt	LTP147	ltpFR	16	12	n/a	PLOT	-1	n/a	n/a	n/a	n/a	n/a	n/a	n/a	n/a
2096.914	n/a	REC_WORD	1048457	wordpools/wasnorm_wordpool.txt	LTP147	ltpFR	16	12	1	DINNER	468	n/a	n/a	0	n/a	n/a	n/a	n/a	n/a
2101.066	n/a	REC_WORD	1050533	wordpools/wasnorm_wordpool.txt	LTP147	ltpFR	16	12	1	TURNIP	1521	n/a	n/a	1	n/a	n/a	n/a	n/a	n/a
2102.952	n/a	REC_WORD	1051476	wordpools/wasnorm_wordpool.txt	LTP147	ltpFR	16	12	1	BOWL	158	n/a	n/a	0	n/a	n/a	n/a	n/a	n/a
2118.81	n/a	REST_REWET	1059405	n/a	LTP147	ltpFR	16	12	n/a	n/a	n/a	n/a	n/a	n/a	n/a	n/a	n/a	n/a	n/a
2429.49	n/a	WORD	1214745	wordpools/wasnorm_wordpool.txt	LTP147	ltpFR	16	13	0	JUPITER	765	n/a	n/a	1	0.57763671875	0.412841796875	1	lower	amplitud.ttf
2433.506	n/a	WORD	1216753	wordpools/wasnorm_wordpool.txt	LTP147	ltpFR	16	13	0	OREGANO	983	n/a	n/a	0	0.57763671875	0.412841796875	1	lower	amplitud.ttf
2437.504	n/a	WORD	1218752	wordpools/wasnorm_wordpool.txt	LTP147	ltpFR	16	13	0	SAGE	1222	n/a	n/a	0	0.57763671875	0.412841796875	1	lower	amplitud.ttf
2441.444	n/a	WORD	1220722	wordpools/wasnorm_wordpool.txt	LTP147	ltpFR	16	13	0	POTTERY	1116	n/a	n/a	1	0.57763671875	0.412841796875	1	lower	amplitud.ttf
2445.318	n/a	WORD	1222659	wordpools/wasnorm_wordpool.txt	LTP147	ltpFR	16	13	0	VASE	1549	n/a	n/a	0	0.57763671875	0.412841796875	1	lower	amplitud.ttf
2449.51	n/a	WORD	1224755	wordpools/wasnorm_wordpool.txt	LTP147	ltpFR	16	13	0	ASSISTANT	48	n/a	n/a	1	0.57763671875	0.412841796875	1	lower	amplitud.ttf
2453.574	n/a	WORD	1226787	wordpools/wasnorm_wordpool.txt	LTP147	ltpFR	16	13	0	SPACE	1345	n/a	n/a	1	0.57763671875	0.412841796875	1	lower	amplitud.ttf
2457.638	n/a	WORD	1228819	wordpools/wasnorm_wordpool.txt	LTP147	ltpFR	16	13	0	DOLL	481	n/a	n/a	0	0.57763671875	0.412841796875	1	lower	amplitud.ttf
2461.496	n/a	WORD	1230748	wordpools/wasnorm_wordpool.txt	LTP147	ltpFR	16	13	0	FRUIT	610	n/a	n/a	0	0.57763671875	0.412841796875	1	lower	amplitud.ttf
2465.446	n/a	WORD	1232723	wordpools/wasnorm_wordpool.txt	LTP147	ltpFR	16	13	0	COFFEE	341	n/a	n/a	0	0.57763671875	0.412841796875	1	lower	amplitud.ttf
2469.26	n/a	WORD	1234630	wordpools/wasnorm_wordpool.txt	LTP147	ltpFR	16	13	0	CUPBOARD	425	n/a	n/a	1	0.57763671875	0.412841796875	1	lower	amplitud.ttf
2473.242	n/a	WORD	1236621	wordpools/wasnorm_wordpool.txt	LTP147	ltpFR	16	13	0	MOLECULE	905	n/a	n/a	0	0.57763671875	0.412841796875	1	lower	amplitud.ttf
2477.076	n/a	WORD	1238538	wordpools/wasnorm_wordpool.txt	LTP147	ltpFR	16	13	0	COBRA	336	n/a	n/a	1	0.57763671875	0.412841796875	1	lower	amplitud.ttf
2480.966	n/a	WORD	1240483	wordpools/wasnorm_wordpool.txt	LTP147	ltpFR	16	13	0	BRUNETTE	181	n/a	n/a	1	0.57763671875	0.412841796875	1	lower	amplitud.ttf
2485.014	n/a	WORD	1242507	wordpools/wasnorm_wordpool.txt	LTP147	ltpFR	16	13	0	BIOLOGIST	128	n/a	n/a	1	0.57763671875	0.412841796875	1	lower	amplitud.ttf
2489.122	n/a	WORD	1244561	wordpools/wasnorm_wordpool.txt	LTP147	ltpFR	16	13	0	REPTILE	1185	n/a	n/a	1	0.57763671875	0.412841796875	1	lower	amplitud.ttf
2495.02	n/a	REC_START	1247510	n/a	LTP147	ltpFR	16	13	n/a	n/a	n/a	n/a	n/a	n/a	n/a	n/a	n/a	n/a	n/a
2496.712	n/a	REC_WORD	1248356	wordpools/wasnorm_wordpool.txt	LTP147	ltpFR	16	13	0	BRUNETTE	181	n/a	n/a	1	n/a	n/a	n/a	n/a	n/a
2497.37	n/a	REC_WORD	1248685	wordpools/wasnorm_wordpool.txt	LTP147	ltpFR	16	13	0	BIOLOGIST	128	n/a	n/a	1	n/a	n/a	n/a	n/a	n/a
2498.37	n/a	REC_WORD_VV	1249185	wordpools/wasnorm_wordpool.txt	LTP147	ltpFR	16	13	n/a	<>	-1	n/a	n/a	n/a	n/a	n/a	n/a	n/a	n/a
2499.88	n/a	REC_WORD	1249940	wordpools/wasnorm_wordpool.txt	LTP147	ltpFR	16	13	0	REPTILE	1185	n/a	n/a	1	n/a	n/a	n/a	n/a	n/a
2501.72	n/a	REC_WORD	1250860	wordpools/wasnorm_wordpool.txt	LTP147	ltpFR	16	13	0	COBRA	336	n/a	n/a	1	n/a	n/a	n/a	n/a	n/a
2503.71	n/a	REC_WORD	1251855	wordpools/wasnorm_wordpool.txt	LTP147	ltpFR	16	13	0	MOLECULE	905	n/a	n/a	0	n/a	n/a	n/a	n/a	n/a
2506.414	n/a	REC_WORD	1253207	wordpools/wasnorm_wordpool.txt	LTP147	ltpFR	16	13	0	FRUIT	610	n/a	n/a	0	n/a	n/a	n/a	n/a	n/a
2507.042	n/a	REC_WORD	1253521	wordpools/wasnorm_wordpool.txt	LTP147	ltpFR	16	13	0	COFFEE	341	n/a	n/a	0	n/a	n/a	n/a	n/a	n/a
2507.556	n/a	REC_WORD	1253778	wordpools/wasnorm_wordpool.txt	LTP147	ltpFR	16	13	0	CUPBOARD	425	n/a	n/a	1	n/a	n/a	n/a	n/a	n/a
2508.938	n/a	REC_WORD	1254469	wordpools/wasnorm_wordpool.txt	LTP147	ltpFR	16	13	0	SPACE	1345	n/a	n/a	1	n/a	n/a	n/a	n/a	n/a
2509.966	n/a	REC_WORD	1254983	wordpools/wasnorm_wordpool.txt	LTP147	ltpFR	16	13	0	ASSISTANT	48	n/a	n/a	1	n/a	n/a	n/a	n/a	n/a
2511.058	n/a	REC_WORD	1255529	wordpools/wasnorm_wordpool.txt	LTP147	ltpFR	16	13	0	JUPITER	765	n/a	n/a	1	n/a	n/a	n/a	n/a	n/a
2512.726	n/a	REC_WORD	1256363	wordpools/wasnorm_wordpool.txt	LTP147	ltpFR	16	13	0	OREGANO	983	n/a	n/a	0	n/a	n/a	n/a	n/a	n/a
2513.418	n/a	REC_WORD	1256709	wordpools/wasnorm_wordpool.txt	LTP147	ltpFR	16	13	0	SAGE	1222	n/a	n/a	0	n/a	n/a	n/a	n/a	n/a
2519.62	n/a	REC_WORD	1259810	wordpools/wasnorm_wordpool.txt	LTP147	ltpFR	16	13	0	POTTERY	1116	n/a	n/a	1	n/a	n/a	n/a	n/a	n/a
2520.622	n/a	REC_WORD	1260311	wordpools/wasnorm_wordpool.txt	LTP147	ltpFR	16	13	0	VASE	1549	n/a	n/a	0	n/a	n/a	n/a	n/a	n/a
2531.198	n/a	REC_WORD	1265599	wordpools/wasnorm_wordpool.txt	LTP147	ltpFR	16	13	0	DOLL	481	n/a	n/a	0	n/a	n/a	n/a	n/a	n/a
2551.684	n/a	REC_WORD	1275842	wordpools/wasnorm_wordpool.txt	LTP147	ltpFR	16	13	0	POTTERY	1116	n/a	n/a	1	n/a	n/a	n/a	n/a	n/a
2556.822	n/a	REC_WORD	1278411	wordpools/wasnorm_wordpool.txt	LTP147	ltpFR	16	13	0	COBRA	336	n/a	n/a	1	n/a	n/a	n/a	n/a	n/a
2573.446	n/a	WORD	1286723	wordpools/wasnorm_wordpool.txt	LTP147	ltpFR	16	14	0	DRAWING	494	n/a	n/a	1	0.57763671875	0.412841796875	1	lower	amplitud.ttf
2577.294	n/a	WORD	1288647	wordpools/wasnorm_wordpool.txt	LTP147	ltpFR	16	14	0	DORM	488	n/a	n/a	1	0.57763671875	0.412841796875	1	lower	amplitud.ttf
2581.326	n/a	WORD	1290663	wordpools/wasnorm_wordpool.txt	LTP147	ltpFR	16	14	0	VINEGAR	1569	n/a	n/a	1	0.57763671875	0.412841796875	1	lower	amplitud.ttf
2585.366	n/a	WORD	1292683	wordpools/wasnorm_wordpool.txt	LTP147	ltpFR	16	14	0	SEA	1259	n/a	n/a	1	0.57763671875	0.412841796875	1	lower	amplitud.ttf
2589.274	n/a	WORD	1294637	wordpools/wasnorm_wordpool.txt	LTP147	ltpFR	16	14	0	NAPKIN	937	n/a	n/a	0	0.57763671875	0.412841796875	1	lower	amplitud.ttf
2593.29	n/a	WORD	1296645	wordpools/wasnorm_wordpool.txt	LTP147	ltpFR	16	14	0	JOKER	759	n/a	n/a	0	0.57763671875	0.412841796875	1	lower	amplitud.ttf
2597.488	n/a	WORD	1298744	wordpools/wasnorm_wordpool.txt	LTP147	ltpFR	16	14	0	TOOTHPASTE	1483	n/a	n/a	1	0.57763671875	0.412841796875	1	lower	amplitud.ttf
2601.362	n/a	WORD	1300681	wordpools/wasnorm_wordpool.txt	LTP147	ltpFR	16	14	0	TONGUE	1479	n/a	n/a	1	0.57763671875	0.412841796875	1	lower	amplitud.ttf
2605.352	n/a	WORD	1302676	wordpools/wasnorm_wordpool.txt	LTP147	ltpFR	16	14	0	PAINTER	1004	n/a	n/a	1	0.57763671875	0.412841796875	1	lower	amplitud.ttf
2609.51	n/a	WORD	1304755	wordpools/wasnorm_wordpool.txt	LTP147	ltpFR	16	14	0	MOTEL	919	n/a	n/a	1	0.57763671875	0.412841796875	1	lower	amplitud.ttf
2613.634	n/a	WORD	1306817	wordpools/wasnorm_wordpool.txt	LTP147	ltpFR	16	14	0	MAILMAN	858	n/a	n/a	1	0.57763671875	0.412841796875	1	lower	amplitud.ttf
2617.584	n/a	WORD	1308792	wordpools/wasnorm_wordpool.txt	LTP147	ltpFR	16	14	0	APPENDAGE	32	n/a	n/a	1	0.57763671875	0.412841796875	1	lower	amplitud.ttf
2621.43	n/a	WORD	1310715	wordpools/wasnorm_wordpool.txt	LTP147	ltpFR	16	14	0	HEAD	695	n/a	n/a	1	0.57763671875	0.412841796875	1	lower	amplitud.ttf
2625.272	n/a	WORD	1312636	wordpools/wasnorm_wordpool.txt	LTP147	ltpFR	16	14	0	FOREHEAD	592	n/a	n/a	0	0.57763671875	0.412841796875	1	lower	amplitud.ttf
2629.43	n/a	WORD	1314715	wordpools/wasnorm_wordpool.txt	LTP147	ltpFR	16	14	0	VIOLA	1570	n/a	n/a	1	0.57763671875	0.412841796875	1	lower	amplitud.ttf
2633.604	n/a	WORD	1316802	wordpools/wasnorm_wordpool.txt	LTP147	ltpFR	16	14	0	FINGERNAIL	568	n/a	n/a	1	0.57763671875	0.412841796875	1	lower	amplitud.ttf
2639.31	n/a	REC_START	1319655	n/a	LTP147	ltpFR	16	14	n/a	n/a	n/a	n/a	n/a	n/a	n/a	n/a	n/a	n/a	n/a
2640.286	n/a	REC_WORD	1320143	wordpools/wasnorm_wordpool.txt	LTP147	ltpFR	16	14	0	FOREHEAD	592	n/a	n/a	0	n/a	n/a	n/a	n/a	n/a
2640.98	n/a	REC_WORD	1320490	wordpools/wasnorm_wordpool.txt	LTP147	ltpFR	16	14	0	VIOLA	1570	n/a	n/a	1	n/a	n/a	n/a	n/a	n/a
2641.634	n/a	REC_WORD	1320817	wordpools/wasnorm_wordpool.txt	LTP147	ltpFR	16	14	0	FINGERNAIL	568	n/a	n/a	1	n/a	n/a	n/a	n/a	n/a
2643.44	n/a	REC_WORD	1321720	wordpools/wasnorm_wordpool.txt	LTP147	ltpFR	16	14	0	HEAD	695	n/a	n/a	1	n/a	n/a	n/a	n/a	n/a
2644.558	n/a	REC_WORD	1322279	wordpools/wasnorm_wordpool.txt	LTP147	ltpFR	16	14	0	APPENDAGE	32	n/a	n/a	1	n/a	n/a	n/a	n/a	n/a
2645.466	n/a	REC_WORD	1322733	wordpools/wasnorm_wordpool.txt	LTP147	ltpFR	16	14	0	MAILMAN	858	n/a	n/a	1	n/a	n/a	n/a	n/a	n/a
2646.438	n/a	REC_WORD	1323219	wordpools/wasnorm_wordpool.txt	LTP147	ltpFR	16	14	0	MOTEL	919	n/a	n/a	1	n/a	n/a	n/a	n/a	n/a
2648.176	n/a	REC_WORD	1324088	wordpools/wasnorm_wordpool.txt	LTP147	ltpFR	16	14	0	PAINTER	1004	n/a	n/a	1	n/a	n/a	n/a	n/a	n/a
2651.492	n/a	REC_WORD	1325746	wordpools/wasnorm_wordpool.txt	LTP147	ltpFR	16	14	0	DRAWING	494	n/a	n/a	1	n/a	n/a	n/a	n/a	n/a
2652.86	n/a	REC_WORD	1326430	wordpools/wasnorm_wordpool.txt	LTP147	ltpFR	16	14	0	DORM	488	n/a	n/a	1	n/a	n/a	n/a	n/a	n/a
2654.082	n/a	REC_WORD	1327041	wordpools/wasnorm_wordpool.txt	LTP147	ltpFR	16	14	0	VINEGAR	1569	n/a	n/a	1	n/a	n/a	n/a	n/a	n/a
2656.048	n/a	REC_WORD	1328024	wordpools/wasnorm_wordpool.txt	LTP147	ltpFR	16	14	0	SEA	1259	n/a	n/a	1	n/a	n/a	n/a	n/a	n/a
2659.988	n/a	REC_WORD	1329994	wordpools/wasnorm_wordpool.txt	LTP147	ltpFR	16	14	0	TOOTHPASTE	1483	n/a	n/a	1	n/a	n/a	n/a	n/a	n/a
2685.852	n/a	REC_WORD	1342926	wordpools/wasnorm_wordpool.txt	LTP147	ltpFR	16	14	0	FINGERNAIL	568	n/a	n/a	1	n/a	n/a	n/a	n/a	n/a
2689.892	n/a	REC_WORD	1344946	wordpools/wasnorm_wordpool.txt	LTP147	ltpFR	16	14	0	MOTEL	919	n/a	n/a	1	n/a	n/a	n/a	n/a	n/a
2717.668	n/a	WORD	1358834	wordpools/wasnorm_wordpool.txt	LTP147	ltpFR	16	15	1	ROACH	1195	n/a	n/a	1	0.422607421875	0.5869140625	0	upper	zerothre.ttf
2721.552	n/a	WORD	1360776	wordpools/wasnorm_wordpool.txt	LTP147	ltpFR	16	15	1	CRICKET	408	n/a	n/a	1	0.422607421875	0.5869140625	0	upper	zerothre.ttf
2725.584	n/a	WORD	1362792	wordpools/wasnorm_wordpool.txt	LTP147	ltpFR	16	15	1	REFRIGERATOR	1179	n/a	n/a	0	0.422607421875	0.5869140625	0	upper	zerothre.ttf
2729.558	n/a	WORD	1364779	wordpools/wasnorm_wordpool.txt	LTP147	ltpFR	16	15	1	LUNCH	849	n/a	n/a	1	0.422607421875	0.5869140625	0	upper	zerothre.ttf
2733.714	n/a	WORD	1366857	wordpools/wasnorm_wordpool.txt	LTP147	ltpFR	16	15	1	GRILL	661	n/a	n/a	0	0.422607421875	0.5869140625	0	upper	zerothre.ttf
2737.804	n/a	WORD	1368902	wordpools/wasnorm_wordpool.txt	LTP147	ltpFR	16	15	1	NOTE	958	n/a	n/a	0	0.422607421875	0.5869140625	0	upper	zerothre.ttf
2741.628	n/a	WORD	1370814	wordpools/wasnorm_wordpool.txt	LTP147	ltpFR	16	15	1	LOBSTER	837	n/a	n/a	1	0.422607421875	0.5869140625	0	upper	zerothre.ttf
2745.486	n/a	WORD	1372743	wordpools/wasnorm_wordpool.txt	LTP147	ltpFR	16	15	1	COTTAGE	384	n/a	n/a	0	0.422607421875	0.5869140625	0	upper	zerothre.ttf
2749.426	n/a	WORD	1374713	wordpools/wasnorm_wordpool.txt	LTP147	ltpFR	16	15	1	LINT	826	n/a	n/a	1	0.422607421875	0.5869140625	0	upper	zerothre.ttf
2753.44	n/a	WORD	1376720	wordpools/wasnorm_wordpool.txt	LTP147	ltpFR	16	15	1	VACUUM	1543	n/a	n/a	0	0.422607421875	0.5869140625	0	upper	zerothre.ttf
2757.264	n/a	WORD	1378632	wordpools/wasnorm_wordpool.txt	LTP147	ltpFR	16	15	1	LIMOUSINE	824	n/a	n/a	0	0.422607421875	0.5869140625	0	upper	zerothre.ttf
2761.096	n/a	WORD	1380548	wordpools/wasnorm_wordpool.txt	LTP147	ltpFR	16	15	1	EDITOR	516	n/a	n/a	0	0.422607421875	0.5869140625	0	upper	zerothre.ttf
2764.98	n/a	WORD	1382490	wordpools/wasnorm_wordpool.txt	LTP147	ltpFR	16	15	1	ROOST	1208	n/a	n/a	0	0.422607421875	0.5869140625	0	upper	zerothre.ttf
2769.112	n/a	WORD	1384556	wordpools/wasnorm_wordpool.txt	LTP147	ltpFR	16	15	1	SARDINE	1235	n/a	n/a	1	0.422607421875	0.5869140625	0	upper	zerothre.ttf
2772.994	n/a	WORD	1386497	wordpools/wasnorm_wordpool.txt	LTP147	ltpFR	16	15	1	COOKBOOK	373	n/a	n/a	0	0.422607421875	0.5869140625	0	upper	zerothre.ttf
2776.892	n/a	WORD	1388446	wordpools/wasnorm_wordpool.txt	LTP147	ltpFR	16	15	1	BULLY	196	n/a	n/a	0	0.422607421875	0.5869140625	0	upper	zerothre.ttf
2782.842	n/a	REC_START	1391421	n/a	LTP147	ltpFR	16	15	n/a	n/a	n/a	n/a	n/a	n/a	n/a	n/a	n/a	n/a	n/a
2783.592	n/a	REC_WORD_VV	1391796	wordpools/wasnorm_wordpool.txt	LTP147	ltpFR	16	15	n/a	<>	-1	n/a	n/a	n/a	n/a	n/a	n/a	n/a	n/a
2784.258	n/a	REC_WORD	1392129	wordpools/wasnorm_wordpool.txt	LTP147	ltpFR	16	15	1	ROOST	1208	n/a	n/a	0	n/a	n/a	n/a	n/a	n/a
2784.94	n/a	REC_WORD	1392470	wordpools/wasnorm_wordpool.txt	LTP147	ltpFR	16	15	1	SARDINE	1235	n/a	n/a	1	n/a	n/a	n/a	n/a	n/a
2785.91	n/a	REC_WORD	1392955	wordpools/wasnorm_wordpool.txt	LTP147	ltpFR	16	15	1	COOKBOOK	373	n/a	n/a	0	n/a	n/a	n/a	n/a	n/a
2787.85	n/a	REC_WORD	1393925	wordpools/wasnorm_wordpool.txt	LTP147	ltpFR	16	15	1	BULLY	196	n/a	n/a	0	n/a	n/a	n/a	n/a	n/a
2793.412	n/a	REC_WORD	1396706	wordpools/wasnorm_wordpool.txt	LTP147	ltpFR	16	15	1	ROACH	1195	n/a	n/a	1	n/a	n/a	n/a	n/a	n/a
2796.056	n/a	REC_WORD	1398028	wordpools/wasnorm_wordpool.txt	LTP147	ltpFR	16	15	1	CRICKET	408	n/a	n/a	1	n/a	n/a	n/a	n/a	n/a
2802.308	n/a	REC_WORD	1401154	wordpools/wasnorm_wordpool.txt	LTP147	ltpFR	16	15	n/a	DATE	-1	n/a	n/a	n/a	n/a	n/a	n/a	n/a	n/a
2803.212	n/a	REC_WORD	1401606	wordpools/wasnorm_wordpool.txt	LTP147	ltpFR	16	15	1	DINNER	468	n/a	n/a	0	n/a	n/a	n/a	n/a	n/a
2804.348	n/a	REC_WORD	1402174	wordpools/wasnorm_wordpool.txt	LTP147	ltpFR	16	15	1	LUNCH	849	n/a	n/a	1	n/a	n/a	n/a	n/a	n/a
2806.664	n/a	REC_WORD	1403332	wordpools/wasnorm_wordpool.txt	LTP147	ltpFR	16	15	1	REFRIGERATOR	1179	n/a	n/a	0	n/a	n/a	n/a	n/a	n/a
2808.026	n/a	REC_WORD	1404013	wordpools/wasnorm_wordpool.txt	LTP147	ltpFR	16	15	1	REFRIGERATOR	1179	n/a	n/a	0	n/a	n/a	n/a	n/a	n/a
2810.904	n/a	REC_WORD	1405452	wordpools/wasnorm_wordpool.txt	LTP147	ltpFR	16	15	1	LOBSTER	837	n/a	n/a	1	n/a	n/a	n/a	n/a	n/a
2812.23	n/a	REC_WORD	1406115	wordpools/wasnorm_wordpool.txt	LTP147	ltpFR	16	15	1	LINT	826	n/a	n/a	1	n/a	n/a	n/a	n/a	n/a
2813.638	n/a	REC_WORD	1406819	wordpools/wasnorm_wordpool.txt	LTP147	ltpFR	16	15	1	VACUUM	1543	n/a	n/a	0	n/a	n/a	n/a	n/a	n/a
2820.882	n/a	REC_WORD	1410441	wordpools/wasnorm_wordpool.txt	LTP147	ltpFR	16	15	1	NOTE	958	n/a	n/a	0	n/a	n/a	n/a	n/a	n/a
2840.064	n/a	REC_WORD	1420032	wordpools/wasnorm_wordpool.txt	LTP147	ltpFR	16	15	1	LIMOUSINE	824	n/a	n/a	0	n/a	n/a	n/a	n/a	n/a
2843.476	n/a	REC_WORD	1421738	wordpools/wasnorm_wordpool.txt	LTP147	ltpFR	16	15	1	EDITOR	516	n/a	n/a	0	n/a	n/a	n/a	n/a	n/a
2861.692	n/a	WORD	1430846	wordpools/wasnorm_wordpool.txt	LTP147	ltpFR	16	16	0	GAUZE	626	n/a	n/a	0	0.57763671875	0.412841796875	1	lower	amplitud.ttf
2865.798	n/a	WORD	1432899	wordpools/wasnorm_wordpool.txt	LTP147	ltpFR	16	16	0	TRANSPLANT	1496	n/a	n/a	1	0.57763671875	0.412841796875	1	lower	amplitud.ttf
2869.948	n/a	WORD	1434974	wordpools/wasnorm_wordpool.txt	LTP147	ltpFR	16	16	0	LODGE	839	n/a	n/a	1	0.57763671875	0.412841796875	1	lower	amplitud.ttf
2873.988	n/a	WORD	1436994	wordpools/wasnorm_wordpool.txt	LTP147	ltpFR	16	16	0	PLANT	1083	n/a	n/a	0	0.57763671875	0.412841796875	1	lower	amplitud.ttf
2877.912	n/a	WORD	1438956	wordpools/wasnorm_wordpool.txt	LTP147	ltpFR	16	16	0	STUMP	1396	n/a	n/a	0	0.57763671875	0.412841796875	1	lower	amplitud.ttf
2881.852	n/a	WORD	1440926	wordpools/wasnorm_wordpool.txt	LTP147	ltpFR	16	16	0	NAIL	936	n/a	n/a	0	0.57763671875	0.412841796875	1	lower	amplitud.ttf
2886.026	n/a	WORD	1443013	wordpools/wasnorm_wordpool.txt	LTP147	ltpFR	16	16	0	BUGGY	188	n/a	n/a	1	0.57763671875	0.412841796875	1	lower	amplitud.ttf
2890.09	n/a	WORD	1445045	wordpools/wasnorm_wordpool.txt	LTP147	ltpFR	16	16	0	DIAMOND	458	n/a	n/a	0	0.57763671875	0.412841796875	1	lower	amplitud.ttf
2894.282	n/a	WORD	1447141	wordpools/wasnorm_wordpool.txt	LTP147	ltpFR	16	16	0	BOYFRIEND	162	n/a	n/a	0	0.57763671875	0.412841796875	1	lower	amplitud.ttf
2898.214	n/a	WORD	1449107	wordpools/wasnorm_wordpool.txt	LTP147	ltpFR	16	16	0	SKI	1316	n/a	n/a	1	0.57763671875	0.412841796875	1	lower	amplitud.ttf
2902.054	n/a	WORD	1451027	wordpools/wasnorm_wordpool.txt	LTP147	ltpFR	16	16	0	ICING	732	n/a	n/a	1	0.57763671875	0.412841796875	1	lower	amplitud.ttf
2906.128	n/a	WORD	1453064	wordpools/wasnorm_wordpool.txt	LTP147	ltpFR	16	16	0	CARPENTER	246	n/a	n/a	1	0.57763671875	0.412841796875	1	lower	amplitud.ttf
2910.176	n/a	WORD	1455088	wordpools/wasnorm_wordpool.txt	LTP147	ltpFR	16	16	0	GOVERNOR	651	n/a	n/a	1	0.57763671875	0.412841796875	1	lower	amplitud.ttf
2914.168	n/a	WORD	1457084	wordpools/wasnorm_wordpool.txt	LTP147	ltpFR	16	16	0	CRUMB	416	n/a	n/a	0	0.57763671875	0.412841796875	1	lower	amplitud.ttf
2918.208	n/a	WORD	1459104	wordpools/wasnorm_wordpool.txt	LTP147	ltpFR	16	16	0	RADIO	1157	n/a	n/a	1	0.57763671875	0.412841796875	1	lower	amplitud.ttf
2922.14	n/a	WORD	1461070	wordpools/wasnorm_wordpool.txt	LTP147	ltpFR	16	16	0	CABLE	213	n/a	n/a	1	0.57763671875	0.412841796875	1	lower	amplitud.ttf
2928.264	n/a	REC_START	1464132	n/a	LTP147	ltpFR	16	16	n/a	n/a	n/a	n/a	n/a	n/a	n/a	n/a	n/a	n/a	n/a
2929.296	n/a	REC_WORD	1464648	wordpools/wasnorm_wordpool.txt	LTP147	ltpFR	16	16	0	CRUMB	416	n/a	n/a	0	n/a	n/a	n/a	n/a	n/a
2929.984	n/a	REC_WORD	1464992	wordpools/wasnorm_wordpool.txt	LTP147	ltpFR	16	16	0	RADIO	1157	n/a	n/a	1	n/a	n/a	n/a	n/a	n/a
2930.752	n/a	REC_WORD	1465376	wordpools/wasnorm_wordpool.txt	LTP147	ltpFR	16	16	0	CABLE	213	n/a	n/a	1	n/a	n/a	n/a	n/a	n/a
2932.52	n/a	REC_WORD	1466260	wordpools/wasnorm_wordpool.txt	LTP147	ltpFR	16	16	0	CARPENTER	246	n/a	n/a	1	n/a	n/a	n/a	n/a	n/a
2933.946	n/a	REC_WORD	1466973	wordpools/wasnorm_wordpool.txt	LTP147	ltpFR	16	16	0	GAUZE	626	n/a	n/a	0	n/a	n/a	n/a	n/a	n/a
2934.654	n/a	REC_WORD	1467327	wordpools/wasnorm_wordpool.txt	LTP147	ltpFR	16	16	0	TRANSPLANT	1496	n/a	n/a	1	n/a	n/a	n/a	n/a	n/a
2935.654	n/a	REC_WORD_VV	1467827	wordpools/wasnorm_wordpool.txt	LTP147	ltpFR	16	16	n/a	<>	-1	n/a	n/a	n/a	n/a	n/a	n/a	n/a	n/a
2935.832	n/a	REC_WORD	1467916	wordpools/wasnorm_wordpool.txt	LTP147	ltpFR	16	16	0	LODGE	839	n/a	n/a	1	n/a	n/a	n/a	n/a	n/a
2937.118	n/a	REC_WORD	1468559	wordpools/wasnorm_wordpool.txt	LTP147	ltpFR	16	16	0	PLANT	1083	n/a	n/a	0	n/a	n/a	n/a	n/a	n/a
2940.884	n/a	REC_WORD	1470442	wordpools/wasnorm_wordpool.txt	LTP147	ltpFR	16	16	0	STUMP	1396	n/a	n/a	0	n/a	n/a	n/a	n/a	n/a
2942.208	n/a	REC_WORD	1471104	wordpools/wasnorm_wordpool.txt	LTP147	ltpFR	16	16	0	NAIL	936	n/a	n/a	0	n/a	n/a	n/a	n/a	n/a
2946.458	n/a	REC_WORD	1473229	wordpools/wasnorm_wordpool.txt	LTP147	ltpFR	16	16	0	BOYFRIEND	162	n/a	n/a	0	n/a	n/a	n/a	n/a	n/a
2949.776	n/a	REC_WORD	1474888	wordpools/wasnorm_wordpool.txt	LTP147	ltpFR	16	16	0	GOVERNOR	651	n/a	n/a	1	n/a	n/a	n/a	n/a	n/a
2951.526	n/a	REC_WORD	1475763	wordpools/wasnorm_wordpool.txt	LTP147	ltpFR	16	16	0	SKI	1316	n/a	n/a	1	n/a	n/a	n/a	n/a	n/a
2956.062	n/a	REC_WORD	1478031	wordpools/wasnorm_wordpool.txt	LTP147	ltpFR	16	16	n/a	SOUP	-1	n/a	n/a	n/a	n/a	n/a	n/a	n/a	n/a
2970.012	n/a	REC_WORD	1485006	wordpools/wasnorm_wordpool.txt	LTP147	ltpFR	16	16	0	BUGGY	188	n/a	n/a	1	n/a	n/a	n/a	n/a	n/a
2971.194	n/a	REC_WORD	1485597	wordpools/wasnorm_wordpool.txt	LTP147	ltpFR	16	16	0	DIAMOND	458	n/a	n/a	0	n/a	n/a	n/a	n/a	n/a
3011.846	n/a	REC_START	1505923	n/a	LTP147	ltpFR	16	n/a	n/a	n/a	n/a	n/a	n/a	n/a	n/a	n/a	n/a	n/a	n/a
3012.544	n/a	FFR_REC_WORD	1506272	wordpools/wasnorm_wordpool.txt	LTP147	ltpFR	16	n/a	0	BUGGY	188	n/a	n/a	1	n/a	n/a	n/a	n/a	n/a
3012.998	n/a	FFR_REC_WORD	1506499	wordpools/wasnorm_wordpool.txt	LTP147	ltpFR	16	n/a	0	DIAMOND	458	n/a	n/a	0	n/a	n/a	n/a	n/a	n/a
3013.498	n/a	FFR_REC_WORD_VV	1506749	wordpools/wasnorm_wordpool.txt	LTP147	ltpFR	16	n/a	n/a	<>	-1	n/a	n/a	n/a	n/a	n/a	n/a	n/a	n/a
3013.772	n/a	FFR_REC_WORD	1506886	wordpools/wasnorm_wordpool.txt	LTP147	ltpFR	16	n/a	n/a	DUNE	506	n/a	n/a	n/a	n/a	n/a	n/a	n/a	n/a
3015.852	n/a	FFR_REC_WORD	1507926	wordpools/wasnorm_wordpool.txt	LTP147	ltpFR	16	n/a	0	RADIO	1157	n/a	n/a	1	n/a	n/a	n/a	n/a	n/a
3016.646	n/a	FFR_REC_WORD	1508323	wordpools/wasnorm_wordpool.txt	LTP147	ltpFR	16	n/a	0	CABLE	213	n/a	n/a	1	n/a	n/a	n/a	n/a	n/a
3017.374	n/a	FFR_REC_WORD	1508687	wordpools/wasnorm_wordpool.txt	LTP147	ltpFR	16	n/a	0	BOYFRIEND	162	n/a	n/a	0	n/a	n/a	n/a	n/a	n/a
3018.202	n/a	FFR_REC_WORD	1509101	wordpools/wasnorm_wordpool.txt	LTP147	ltpFR	16	n/a	0	GOVERNOR	651	n/a	n/a	1	n/a	n/a	n/a	n/a	n/a
3018.89	n/a	FFR_REC_WORD	1509445	wordpools/wasnorm_wordpool.txt	LTP147	ltpFR	16	n/a	0	CRUMB	416	n/a	n/a	0	n/a	n/a	n/a	n/a	n/a
3021.016	n/a	FFR_REC_WORD	1510508	wordpools/wasnorm_wordpool.txt	LTP147	ltpFR	16	n/a	1	TOMATO	1476	n/a	n/a	1	n/a	n/a	n/a	n/a	n/a
3021.778	n/a	FFR_REC_WORD	1510889	wordpools/wasnorm_wordpool.txt	LTP147	ltpFR	16	n/a	1	GARLIC	624	n/a	n/a	1	n/a	n/a	n/a	n/a	n/a
3023.12	n/a	FFR_REC_WORD	1511560	wordpools/wasnorm_wordpool.txt	LTP147	ltpFR	16	n/a	0	TRANSPLANT	1496	n/a	n/a	1	n/a	n/a	n/a	n/a	n/a
3024.014	n/a	FFR_REC_WORD	1512007	wordpools/wasnorm_wordpool.txt	LTP147	ltpFR	16	n/a	0	PLANT	1083	n/a	n/a	0	n/a	n/a	n/a	n/a	n/a
3024.516	n/a	FFR_REC_WORD	1512258	wordpools/wasnorm_wordpool.txt	LTP147	ltpFR	16	n/a	n/a	STOMACH	1384	n/a	n/a	n/a	n/a	n/a	n/a	n/a	n/a
3026.478	n/a	FFR_REC_WORD	1513239	wordpools/wasnorm_wordpool.txt	LTP147	ltpFR	16	n/a	0	STUMP	1396	n/a	n/a	0	n/a	n/a	n/a	n/a	n/a
3027.86	n/a	FFR_REC_WORD	1513930	wordpools/wasnorm_wordpool.txt	LTP147	ltpFR	16	n/a	1	BELLY	119	n/a	n/a	0	n/a	n/a	n/a	n/a	n/a
3030.894	n/a	FFR_REC_WORD	1515447	wordpools/wasnorm_wordpool.txt	LTP147	ltpFR	16	n/a	0	NAIL	936	n/a	n/a	0	n/a	n/a	n/a	n/a	n/a
3031.986	n/a	FFR_REC_WORD	1515993	wordpools/wasnorm_wordpool.txt	LTP147	ltpFR	16	n/a	0	FINGERNAIL	568	n/a	n/a	1	n/a	n/a	n/a	n/a	n/a
3032.938	n/a	FFR_REC_WORD	1516469	wordpools/wasnorm_wordpool.txt	LTP147	ltpFR	16	n/a	0	VIOLA	1570	n/a	n/a	1	n/a	n/a	n/a	n/a	n/a
3036.132	n/a	FFR_REC_WORD	1518066	wordpools/wasnorm_wordpool.txt	LTP147	ltpFR	16	n/a	0	GAUZE	626	n/a	n/a	0	n/a	n/a	n/a	n/a	n/a
3036.926	n/a	FFR_REC_WORD	1518463	wordpools/wasnorm_wordpool.txt	LTP147	ltpFR	16	n/a	0	LODGE	839	n/a	n/a	1	n/a	n/a	n/a	n/a	n/a
3038.422	n/a	FFR_REC_WORD	1519211	wordpools/wasnorm_wordpool.txt	LTP147	ltpFR	16	n/a	0	BUGGY	188	n/a	n/a	1	n/a	n/a	n/a	n/a	n/a
3040.93	n/a	FFR_REC_WORD	1520465	wordpools/wasnorm_wordpool.txt	LTP147	ltpFR	16	n/a	1	BLUEPRINT	142	n/a	n/a	0	n/a	n/a	n/a	n/a	n/a
3041.93	n/a	FFR_REC_WORD_VV	1520965	wordpools/wasnorm_wordpool.txt	LTP147	ltpFR	16	n/a	n/a	<>	-1	n/a	n/a	n/a	n/a	n/a	n/a	n/a	n/a
3043.416	n/a	FFR_REC_WORD	1521708	wordpools/wasnorm_wordpool.txt	LTP147	ltpFR	16	n/a	1	PANTHER	1009	n/a	n/a	1	n/a	n/a	n/a	n/a	n/a
3045.016	n/a	FFR_REC_WORD	1522508	wordpools/wasnorm_wordpool.txt	LTP147	ltpFR	16	n/a	1	BEAR	106	n/a	n/a	1	n/a	n/a	n/a	n/a	n/a
3046.964	n/a	FFR_REC_WORD	1523482	wordpools/wasnorm_wordpool.txt	LTP147	ltpFR	16	n/a	1	RACCOON	1153	n/a	n/a	1	n/a	n/a	n/a	n/a	n/a
3047.964	n/a	FFR_REC_WORD_VV	1523982	wordpools/wasnorm_wordpool.txt	LTP147	ltpFR	16	n/a	n/a	<>	-1	n/a	n/a	n/a	n/a	n/a	n/a	n/a	n/a
3048.25	n/a	FFR_REC_WORD	1524125	wordpools/wasnorm_wordpool.txt	LTP147	ltpFR	16	n/a	1	CHIMPANZEE	302	n/a	n/a	1	n/a	n/a	n/a	n/a	n/a
3049.25	n/a	FFR_REC_WORD_VV	1524625	wordpools/wasnorm_wordpool.txt	LTP147	ltpFR	16	n/a	n/a	<>	-1	n/a	n/a	n/a	n/a	n/a	n/a	n/a	n/a
3049.892	n/a	FFR_REC_WORD	1524946	wordpools/wasnorm_wordpool.txt	LTP147	ltpFR	16	n/a	1	ARCHITECT	36	n/a	n/a	0	n/a	n/a	n/a	n/a	n/a
3053.812	n/a	FFR_REC_WORD	1526906	wordpools/wasnorm_wordpool.txt	LTP147	ltpFR	16	n/a	1	ESCALATOR	539	n/a	n/a	0	n/a	n/a	n/a	n/a	n/a
3057.056	n/a	FFR_REC_WORD	1528528	wordpools/wasnorm_wordpool.txt	LTP147	ltpFR	16	n/a	1	DINNER	468	n/a	n/a	0	n/a	n/a	n/a	n/a	n/a
3068.85	n/a	FFR_REC_WORD	1534425	wordpools/wasnorm_wordpool.txt	LTP147	ltpFR	16	n/a	1	NOTE	958	n/a	n/a	0	n/a	n/a	n/a	n/a	n/a
3070.222	n/a	FFR_REC_WORD	1535111	wordpools/wasnorm_wordpool.txt	LTP147	ltpFR	16	n/a	1	SCRIBBLE	1256	n/a	n/a	0	n/a	n/a	n/a	n/a	n/a
3071.918	n/a	FFR_REC_WORD	1535959	wordpools/wasnorm_wordpool.txt	LTP147	ltpFR	16	n/a	1	ARCHITECT	36	n/a	n/a	0	n/a	n/a	n/a	n/a	n/a
3079.57	n/a	FFR_REC_WORD	1539785	wordpools/wasnorm_wordpool.txt	LTP147	ltpFR	16	n/a	n/a	VICTIM	1562	n/a	n/a	n/a	n/a	n/a	n/a	n/a	n/a
3080.464	n/a	FFR_REC_WORD	1540232	wordpools/wasnorm_wordpool.txt	LTP147	ltpFR	16	n/a	n/a	OUTLAW	989	n/a	n/a	n/a	n/a	n/a	n/a	n/a	n/a
3082.674	n/a	FFR_REC_WORD	1541337	wordpools/wasnorm_wordpool.txt	LTP147	ltpFR	16	n/a	-1	CRIMINAL	409	n/a	n/a	-1	n/a	n/a	n/a	n/a	n/a
3085.528	n/a	FFR_REC_WORD	1542764	wordpools/wasnorm_wordpool.txt	LTP147	ltpFR	16	n/a	n/a	THIEF	1456	n/a	n/a	n/a	n/a	n/a	n/a	n/a	n/a
3088.306	n/a	FFR_REC_WORD	1544153	wordpools/wasnorm_wordpool.txt	LTP147	ltpFR	16	n/a	1	TOMATO	1476	n/a	n/a	1	n/a	n/a	n/a	n/a	n/a
3091.42	n/a	FFR_REC_WORD	1545710	wordpools/wasnorm_wordpool.txt	LTP147	ltpFR	16	n/a	1	BLUEBERRY	140	n/a	n/a	1	n/a	n/a	n/a	n/a	n/a
3093.754	n/a	FFR_REC_WORD	1546877	wordpools/wasnorm_wordpool.txt	LTP147	ltpFR	16	n/a	1	TOAST	1471	n/a	n/a	1	n/a	n/a	n/a	n/a	n/a
3096.114	n/a	FFR_REC_WORD	1548057	wordpools/wasnorm_wordpool.txt	LTP147	ltpFR	16	n/a	1	REFRIGERATOR	1179	n/a	n/a	0	n/a	n/a	n/a	n/a	n/a
3097.114	n/a	FFR_REC_WORD_VV	1548557	wordpools/wasnorm_wordpool.txt	LTP147	ltpFR	16	n/a	n/a	<>	-1	n/a	n/a	n/a	n/a	n/a	n/a	n/a	n/a
3097.48	n/a	FFR_REC_WORD	1548740	wordpools/wasnorm_wordpool.txt	LTP147	ltpFR	16	n/a	1	ROACH	1195	n/a	n/a	1	n/a	n/a	n/a	n/a	n/a
3098.832	n/a	FFR_REC_WORD	1549416	wordpools/wasnorm_wordpool.txt	LTP147	ltpFR	16	n/a	1	CRICKET	408	n/a	n/a	1	n/a	n/a	n/a	n/a	n/a
3100.952	n/a	FFR_REC_WORD	1550476	wordpools/wasnorm_wordpool.txt	LTP147	ltpFR	16	n/a	n/a	DATE	-1	n/a	n/a	n/a	n/a	n/a	n/a	n/a	n/a
3102.26	n/a	FFR_REC_WORD	1551130	wordpools/wasnorm_wordpool.txt	LTP147	ltpFR	16	n/a	1	NOTE	958	n/a	n/a	0	n/a	n/a	n/a	n/a	n/a
3104.122	n/a	FFR_REC_WORD	1552061	wordpools/wasnorm_wordpool.txt	LTP147	ltpFR	16	n/a	1	GRILL	661	n/a	n/a	0	n/a	n/a	n/a	n/a	n/a
3106.636	n/a	FFR_REC_WORD	1553318	wordpools/wasnorm_wordpool.txt	LTP147	ltpFR	16	n/a	1	LOBSTER	837	n/a	n/a	1	n/a	n/a	n/a	n/a	n/a
3108.82	n/a	FFR_REC_WORD	1554410	wordpools/wasnorm_wordpool.txt	LTP147	ltpFR	16	n/a	1	LIMOUSINE	824	n/a	n/a	0	n/a	n/a	n/a	n/a	n/a
3111.286	n/a	FFR_REC_WORD	1555643	wordpools/wasnorm_wordpool.txt	LTP147	ltpFR	16	n/a	1	EDITOR	516	n/a	n/a	0	n/a	n/a	n/a	n/a	n/a
3113.466	n/a	FFR_REC_WORD	1556733	wordpools/wasnorm_wordpool.txt	LTP147	ltpFR	16	n/a	1	SARDINE	1235	n/a	n/a	1	n/a	n/a	n/a	n/a	n/a
3115.47	n/a	FFR_REC_WORD	1557735	wordpools/wasnorm_wordpool.txt	LTP147	ltpFR	16	n/a	1	COOKBOOK	373	n/a	n/a	0	n/a	n/a	n/a	n/a	n/a
3120.608	n/a	FFR_REC_WORD	1560304	wordpools/wasnorm_wordpool.txt	LTP147	ltpFR	16	n/a	1	BULLY	196	n/a	n/a	0	n/a	n/a	n/a	n/a	n/a
3125.314	n/a	FFR_REC_WORD	1562657	wordpools/wasnorm_wordpool.txt	LTP147	ltpFR	16	n/a	0	MAILMAN	858	n/a	n/a	1	n/a	n/a	n/a	n/a	n/a
3126.436	n/a	FFR_REC_WORD	1563218	wordpools/wasnorm_wordpool.txt	LTP147	ltpFR	16	n/a	0	HEAD	695	n/a	n/a	1	n/a	n/a	n/a	n/a	n/a
3127.1	n/a	FFR_REC_WORD	1563550	wordpools/wasnorm_wordpool.txt	LTP147	ltpFR	16	n/a	0	APPENDAGE	32	n/a	n/a	1	n/a	n/a	n/a	n/a	n/a
3128.008	n/a	FFR_REC_WORD	1564004	wordpools/wasnorm_wordpool.txt	LTP147	ltpFR	16	n/a	0	VIOLA	1570	n/a	n/a	1	n/a	n/a	n/a	n/a	n/a
3129.83	n/a	FFR_REC_WORD	1564915	wordpools/wasnorm_wordpool.txt	LTP147	ltpFR	16	n/a	0	FINGERNAIL	568	n/a	n/a	1	n/a	n/a	n/a	n/a	n/a
3133.172	n/a	FFR_REC_WORD	1566586	wordpools/wasnorm_wordpool.txt	LTP147	ltpFR	16	n/a	0	PAINTER	1004	n/a	n/a	1	n/a	n/a	n/a	n/a	n/a
3134.3	n/a	FFR_REC_WORD	1567150	wordpools/wasnorm_wordpool.txt	LTP147	ltpFR	16	n/a	0	MOTEL	919	n/a	n/a	1	n/a	n/a	n/a	n/a	n/a
3135.68	n/a	FFR_REC_WORD	1567840	wordpools/wasnorm_wordpool.txt	LTP147	ltpFR	16	n/a	0	DORM	488	n/a	n/a	1	n/a	n/a	n/a	n/a	n/a
3137.032	n/a	FFR_REC_WORD	1568516	wordpools/wasnorm_wordpool.txt	LTP147	ltpFR	16	n/a	0	DRAWING	494	n/a	n/a	1	n/a	n/a	n/a	n/a	n/a
3139.178	n/a	FFR_REC_WORD	1569589	wordpools/wasnorm_wordpool.txt	LTP147	ltpFR	16	n/a	0	VINEGAR	1569	n/a	n/a	1	n/a	n/a	n/a	n/a	n/a
3139.96	n/a	FFR_REC_WORD	1569980	wordpools/wasnorm_wordpool.txt	LTP147	ltpFR	16	n/a	0	SEA	1259	n/a	n/a	1	n/a	n/a	n/a	n/a	n/a
3148.688	n/a	FFR_REC_WORD	1574344	wordpools/wasnorm_wordpool.txt	LTP147	ltpFR	16	n/a	1	CORAL	378	n/a	n/a	1	n/a	n/a	n/a	n/a	n/a
3152.568	n/a	FFR_REC_WORD	1576284	wordpools/wasnorm_wordpool.txt	LTP147	ltpFR	16	n/a	1	CANDY	230	n/a	n/a	0	n/a	n/a	n/a	n/a	n/a
3153.386	n/a	FFR_REC_WORD	1576693	wordpools/wasnorm_wordpool.txt	LTP147	ltpFR	16	n/a	1	STREAM	1392	n/a	n/a	1	n/a	n/a	n/a	n/a	n/a
3155.012	n/a	FFR_REC_WORD	1577506	wordpools/wasnorm_wordpool.txt	LTP147	ltpFR	16	n/a	1	CRYSTAL	418	n/a	n/a	0	n/a	n/a	n/a	n/a	n/a
3162.188	n/a	FFR_REC_WORD	1581094	wordpools/wasnorm_wordpool.txt	LTP147	ltpFR	16	n/a	1	WALL	1582	n/a	n/a	0	n/a	n/a	n/a	n/a	n/a
3167.566	n/a	FFR_REC_WORD	1583783	wordpools/wasnorm_wordpool.txt	LTP147	ltpFR	16	n/a	n/a	PLASTER	1085	n/a	n/a	n/a	n/a	n/a	n/a	n/a	n/a
3171.286	n/a	FFR_REC_WORD	1585643	wordpools/wasnorm_wordpool.txt	LTP147	ltpFR	16	n/a	1	SHINGLE	1285	n/a	n/a	0	n/a	n/a	n/a	n/a	n/a
3175.148	n/a	FFR_REC_WORD	1587574	wordpools/wasnorm_wordpool.txt	LTP147	ltpFR	16	n/a	1	GRASSHOPPER	656	n/a	n/a	1	n/a	n/a	n/a	n/a	n/a
3190.066	n/a	FFR_REC_WORD	1595033	wordpools/wasnorm_wordpool.txt	LTP147	ltpFR	16	n/a	1	DRINK	498	n/a	n/a	0	n/a	n/a	n/a	n/a	n/a
3193.388	n/a	FFR_REC_WORD	1596694	wordpools/wasnorm_wordpool.txt	LTP147	ltpFR	16	n/a	0	PUB	1135	n/a	n/a	1	n/a	n/a	n/a	n/a	n/a
3196.88	n/a	FFR_REC_WORD	1598440	wordpools/wasnorm_wordpool.txt	LTP147	ltpFR	16	n/a	1	BULLET	194	n/a	n/a	0	n/a	n/a	n/a	n/a	n/a
3203.002	n/a	FFR_REC_WORD	1601501	wordpools/wasnorm_wordpool.txt	LTP147	ltpFR	16	n/a	0	DOLL	481	n/a	n/a	0	n/a	n/a	n/a	n/a	n/a
3204.22	n/a	FFR_REC_WORD	1602110	wordpools/wasnorm_wordpool.txt	LTP147	ltpFR	16	n/a	0	JUPITER	765	n/a	n/a	1	n/a	n/a	n/a	n/a	n/a
3205.182	n/a	FFR_REC_WORD	1602591	wordpools/wasnorm_wordpool.txt	LTP147	ltpFR	16	n/a	0	OREGANO	983	n/a	n/a	0	n/a	n/a	n/a	n/a	n/a
3207.048	n/a	FFR_REC_WORD	1603524	wordpools/wasnorm_wordpool.txt	LTP147	ltpFR	16	n/a	0	SAGE	1222	n/a	n/a	0	n/a	n/a	n/a	n/a	n/a
3208.838	n/a	FFR_REC_WORD	1604419	wordpools/wasnorm_wordpool.txt	LTP147	ltpFR	16	n/a	0	ASSISTANT	48	n/a	n/a	1	n/a	n/a	n/a	n/a	n/a
3210.494	n/a	FFR_REC_WORD	1605247	wordpools/wasnorm_wordpool.txt	LTP147	ltpFR	16	n/a	0	SPACE	1345	n/a	n/a	1	n/a	n/a	n/a	n/a	n/a
3225.082	n/a	FFR_REC_WORD	1612541	wordpools/wasnorm_wordpool.txt	LTP147	ltpFR	16	n/a	n/a	CELERY	266	n/a	n/a	n/a	n/a	n/a	n/a	n/a	n/a
3233.19	n/a	FFR_REC_WORD	1616595	wordpools/wasnorm_wordpool.txt	LTP147	ltpFR	16	n/a	1	ROOST	1208	n/a	n/a	0	n/a	n/a	n/a	n/a	n/a
3236.224	n/a	FFR_REC_WORD	1618112	wordpools/wasnorm_wordpool.txt	LTP147	ltpFR	16	n/a	0	TWIG	1527	n/a	n/a	1	n/a	n/a	n/a	n/a	n/a
3237.266	n/a	FFR_REC_WORD	1618633	wordpools/wasnorm_wordpool.txt	LTP147	ltpFR	16	n/a	0	PIE	1062	n/a	n/a	0	n/a	n/a	n/a	n/a	n/a
3239.876	n/a	FFR_REC_WORD	1619938	wordpools/wasnorm_wordpool.txt	LTP147	ltpFR	16	n/a	1	PERCH	1048	n/a	n/a	0	n/a	n/a	n/a	n/a	n/a
3240.872	n/a	FFR_REC_WORD	1620436	wordpools/wasnorm_wordpool.txt	LTP147	ltpFR	16	n/a	1	CROW	414	n/a	n/a	1	n/a	n/a	n/a	n/a	n/a
3246.614	n/a	FFR_REC_WORD	1623307	wordpools/wasnorm_wordpool.txt	LTP147	ltpFR	16	n/a	n/a	CANDLE	229	n/a	n/a	n/a	n/a	n/a	n/a	n/a	n/a
3251.992	n/a	FFR_REC_WORD	1625996	wordpools/wasnorm_wordpool.txt	LTP147	ltpFR	16	n/a	1	SUPERMARKET	1409	n/a	n/a	0	n/a	n/a	n/a	n/a	n/a
3257.402	n/a	FFR_REC_WORD	1628701	wordpools/wasnorm_wordpool.txt	LTP147	ltpFR	16	n/a	1	LUNCH	849	n/a	n/a	1	n/a	n/a	n/a	n/a	n/a
3263.866	n/a	FFR_REC_WORD	1631933	wordpools/wasnorm_wordpool.txt	LTP147	ltpFR	16	n/a	0	MAGAZINE	853	n/a	n/a	0	n/a	n/a	n/a	n/a	n/a
3270.212	n/a	FFR_REC_WORD	1635106	wordpools/wasnorm_wordpool.txt	LTP147	ltpFR	16	n/a	n/a	CONTRACTOR	369	n/a	n/a	n/a	n/a	n/a	n/a	n/a	n/a
3271.212	n/a	FFR_REC_WORD_VV	1635606	wordpools/wasnorm_wordpool.txt	LTP147	ltpFR	16	n/a	n/a	<>	-1	n/a	n/a	n/a	n/a	n/a	n/a	n/a	n/a
3277.268	n/a	FFR_REC_WORD	1638634	wordpools/wasnorm_wordpool.txt	LTP147	ltpFR	16	n/a	-1	AFRICA	9	n/a	n/a	-1	n/a	n/a	n/a	n/a	n/a
3278.24	n/a	FFR_REC_WORD	1639120	wordpools/wasnorm_wordpool.txt	LTP147	ltpFR	16	n/a	-1	ASIA	46	n/a	n/a	-1	n/a	n/a	n/a	n/a	n/a
3279.282	n/a	FFR_REC_WORD	1639641	wordpools/wasnorm_wordpool.txt	LTP147	ltpFR	16	n/a	-1	LASER	801	n/a	n/a	-1	n/a	n/a	n/a	n/a	n/a
3280.296	n/a	FFR_REC_WORD	1640148	wordpools/wasnorm_wordpool.txt	LTP147	ltpFR	16	n/a	-1	BATTERY	101	n/a	n/a	-1	n/a	n/a	n/a	n/a	n/a
3287.26	n/a	FFR_REC_WORD	1643630	wordpools/wasnorm_wordpool.txt	LTP147	ltpFR	16	n/a	1	BULLET	194	n/a	n/a	0	n/a	n/a	n/a	n/a	n/a
3293.098	n/a	FFR_REC_WORD	1646549	wordpools/wasnorm_wordpool.txt	LTP147	ltpFR	16	n/a	-1	MITTEN	902	n/a	n/a	-1	n/a	n/a	n/a	n/a	n/a
3294.43	n/a	FFR_REC_WORD	1647215	wordpools/wasnorm_wordpool.txt	LTP147	ltpFR	16	n/a	0	CAT	257	n/a	n/a	1	n/a	n/a	n/a	n/a	n/a
3295.048	n/a	FFR_REC_WORD	1647524	wordpools/wasnorm_wordpool.txt	LTP147	ltpFR	16	n/a	0	RAT	1169	n/a	n/a	1	n/a	n/a	n/a	n/a	n/a
3303.278	n/a	FFR_REC_WORD	1651639	wordpools/wasnorm_wordpool.txt	LTP147	ltpFR	16	n/a	-1	MONEY	908	n/a	n/a	-1	n/a	n/a	n/a	n/a	n/a
3311.306	n/a	FFR_REC_WORD	1655653	wordpools/wasnorm_wordpool.txt	LTP147	ltpFR	16	n/a	n/a	FACE	547	n/a	n/a	n/a	n/a	n/a	n/a	n/a	n/a
3327.034	n/a	REC_START	1663517	n/a	LTP147	ltpFR	16	1	n/a	n/a	n/a	n/a	n/a	n/a	n/a	n/a	n/a	n/a	n/a
3327.074	n/a	RECOG_TARGET	1663537	n/a	LTP147	ltpFR	16	1	0	FOREHEAD	592	1	5	0	n/a	n/a	n/a	n/a	n/a
3328.244	n/a	RECOG_RESP	1664122	n/a	LTP147	ltpFR	16	1	0	FOREHEAD	592	1	n/a	0	n/a	n/a	n/a	n/a	n/a
3329.374	n/a	RECOG_CONF	1664687	n/a	LTP147	ltpFR	16	1	0	FOREHEAD	592	n/a	5	0	n/a	n/a	n/a	n/a	n/a
3330.9	n/a	RECOG_LURE	1665450	n/a	LTP147	ltpFR	16	1	n/a	ANT	25	0	5	n/a	n/a	n/a	n/a	n/a	n/a
3331.588	n/a	RECOG_RESP	1665794	n/a	LTP147	ltpFR	16	1	n/a	ANT	25	0	n/a	n/a	n/a	n/a	n/a	n/a	n/a
3332.344	n/a	RECOG_CONF	1666172	n/a	LTP147	ltpFR	16	1	n/a	ANT	25	n/a	5	n/a	n/a	n/a	n/a	n/a	n/a
3333.624	n/a	RECOG_LURE	1666812	n/a	LTP147	ltpFR	16	1	n/a	COURSE	390	0	5	n/a	n/a	n/a	n/a	n/a	n/a
3334.388	n/a	RECOG_RESP	1667194	n/a	LTP147	ltpFR	16	1	n/a	COURSE	390	0	n/a	n/a	n/a	n/a	n/a	n/a	n/a
3335.136	n/a	RECOG_CONF	1667568	n/a	LTP147	ltpFR	16	1	n/a	COURSE	390	n/a	5	n/a	n/a	n/a	n/a	n/a	n/a
3336.256	n/a	RECOG_TARGET	1668128	n/a	LTP147	ltpFR	16	1	1	FLUTE	585	1	1	0	n/a	n/a	n/a	n/a	n/a
3337.014	n/a	RECOG_RESP	1668507	n/a	LTP147	ltpFR	16	1	1	FLUTE	585	1	n/a	0	n/a	n/a	n/a	n/a	n/a
3337.864	n/a	RECOG_CONF	1668932	n/a	LTP147	ltpFR	16	1	1	FLUTE	585	n/a	1	0	n/a	n/a	n/a	n/a	n/a
3339.138	n/a	RECOG_LURE	1669569	n/a	LTP147	ltpFR	16	1	n/a	CLOVE	329	0	5	n/a	n/a	n/a	n/a	n/a	n/a
3339.844	n/a	RECOG_RESP	1669922	n/a	LTP147	ltpFR	16	1	n/a	CLOVE	329	0	n/a	n/a	n/a	n/a	n/a	n/a	n/a
3340.58	n/a	RECOG_CONF	1670290	n/a	LTP147	ltpFR	16	1	n/a	CLOVE	329	n/a	5	n/a	n/a	n/a	n/a	n/a	n/a
3341.804	n/a	RECOG_TARGET	1670902	n/a	LTP147	ltpFR	16	1	1	STREAM	1392	1	5	1	n/a	n/a	n/a	n/a	n/a
3342.442	n/a	RECOG_RESP	1671221	n/a	LTP147	ltpFR	16	1	1	STREAM	1392	1	n/a	1	n/a	n/a	n/a	n/a	n/a
3343.148	n/a	RECOG_CONF	1671574	n/a	LTP147	ltpFR	16	1	1	STREAM	1392	n/a	5	1	n/a	n/a	n/a	n/a	n/a
3344.328	n/a	RECOG_TARGET	1672164	n/a	LTP147	ltpFR	16	1	-1	TROUSERS	1510	0	4	-1	n/a	n/a	n/a	n/a	n/a
3345.306	n/a	RECOG_RESP	1672653	n/a	LTP147	ltpFR	16	1	-1	TROUSERS	1510	0	n/a	-1	n/a	n/a	n/a	n/a	n/a
3345.792	n/a	RECOG_CONF	1672896	n/a	LTP147	ltpFR	16	1	-1	TROUSERS	1510	n/a	4	-1	n/a	n/a	n/a	n/a	n/a
3347.118	n/a	RECOG_TARGET	1673559	n/a	LTP147	ltpFR	16	1	0	TOOTHPASTE	1483	1	5	1	n/a	n/a	n/a	n/a	n/a
3347.786	n/a	RECOG_RESP	1673893	n/a	LTP147	ltpFR	16	1	0	TOOTHPASTE	1483	1	n/a	1	n/a	n/a	n/a	n/a	n/a
3348.506	n/a	RECOG_CONF	1674253	n/a	LTP147	ltpFR	16	1	0	TOOTHPASTE	1483	n/a	5	1	n/a	n/a	n/a	n/a	n/a
3349.694	n/a	RECOG_LURE	1674847	n/a	LTP147	ltpFR	16	1	n/a	JURY	766	0	5	n/a	n/a	n/a	n/a	n/a	n/a
3350.348	n/a	RECOG_RESP	1675174	n/a	LTP147	ltpFR	16	1	n/a	JURY	766	0	n/a	n/a	n/a	n/a	n/a	n/a	n/a
3350.954	n/a	RECOG_CONF	1675477	n/a	LTP147	ltpFR	16	1	n/a	JURY	766	n/a	5	n/a	n/a	n/a	n/a	n/a	n/a
3352.152	n/a	RECOG_TARGET	1676076	n/a	LTP147	ltpFR	16	1	0	TRANSPLANT	1496	1	5	1	n/a	n/a	n/a	n/a	n/a
3352.794	n/a	RECOG_RESP	1676397	n/a	LTP147	ltpFR	16	1	0	TRANSPLANT	1496	1	n/a	1	n/a	n/a	n/a	n/a	n/a
3353.564	n/a	RECOG_CONF	1676782	n/a	LTP147	ltpFR	16	1	0	TRANSPLANT	1496	n/a	5	1	n/a	n/a	n/a	n/a	n/a
3354.592	n/a	RECOG_LURE	1677296	n/a	LTP147	ltpFR	16	1	n/a	CANVAS	234	0	5	n/a	n/a	n/a	n/a	n/a	n/a
3355.268	n/a	RECOG_RESP	1677634	n/a	LTP147	ltpFR	16	1	n/a	CANVAS	234	0	n/a	n/a	n/a	n/a	n/a	n/a	n/a
3355.85	n/a	RECOG_CONF	1677925	n/a	LTP147	ltpFR	16	1	n/a	CANVAS	234	n/a	5	n/a	n/a	n/a	n/a	n/a	n/a
3357.042	n/a	RECOG_TARGET	1678521	n/a	LTP147	ltpFR	16	1	1	TOAST	1471	1	5	1	n/a	n/a	n/a	n/a	n/a
3357.56	n/a	RECOG_RESP	1678780	n/a	LTP147	ltpFR	16	1	1	TOAST	1471	1	n/a	1	n/a	n/a	n/a	n/a	n/a
3358.258	n/a	RECOG_CONF	1679129	n/a	LTP147	ltpFR	16	1	1	TOAST	1471	n/a	5	1	n/a	n/a	n/a	n/a	n/a
3359.366	n/a	RECOG_TARGET	1679683	n/a	LTP147	ltpFR	16	1	1	LUNCH	849	1	5	1	n/a	n/a	n/a	n/a	n/a
3360.044	n/a	RECOG_RESP	1680022	n/a	LTP147	ltpFR	16	1	1	LUNCH	849	1	n/a	1	n/a	n/a	n/a	n/a	n/a
3360.714	n/a	RECOG_CONF	1680357	n/a	LTP147	ltpFR	16	1	1	LUNCH	849	n/a	5	1	n/a	n/a	n/a	n/a	n/a
3361.79	n/a	RECOG_LURE	1680895	n/a	LTP147	ltpFR	16	1	n/a	WART	1590	0	5	n/a	n/a	n/a	n/a	n/a	n/a
3362.46	n/a	RECOG_RESP	1681230	n/a	LTP147	ltpFR	16	1	n/a	WART	1590	0	n/a	n/a	n/a	n/a	n/a	n/a	n/a
3363.14	n/a	RECOG_CONF	1681570	n/a	LTP147	ltpFR	16	1	n/a	WART	1590	n/a	5	n/a	n/a	n/a	n/a	n/a	n/a
3364.206	n/a	RECOG_TARGET	1682103	n/a	LTP147	ltpFR	16	1	0	GAUZE	626	1	5	0	n/a	n/a	n/a	n/a	n/a
3364.798	n/a	RECOG_RESP	1682399	n/a	LTP147	ltpFR	16	1	0	GAUZE	626	1	n/a	0	n/a	n/a	n/a	n/a	n/a
3365.49	n/a	RECOG_CONF	1682745	n/a	LTP147	ltpFR	16	1	0	GAUZE	626	n/a	5	0	n/a	n/a	n/a	n/a	n/a
3366.572	n/a	RECOG_LURE	1683286	n/a	LTP147	ltpFR	16	1	n/a	VILLAGE	1566	0	5	n/a	n/a	n/a	n/a	n/a	n/a
3367.102	n/a	RECOG_RESP_VV	1683551	n/a	LTP147	ltpFR	16	1	n/a	VILLAGE	1566	1	n/a	n/a	n/a	n/a	n/a	n/a	n/a
3367.426	n/a	RECOG_RESP	1683713	n/a	LTP147	ltpFR	16	1	n/a	VILLAGE	1566	0	n/a	n/a	n/a	n/a	n/a	n/a	n/a
3368.054	n/a	RECOG_CONF	1684027	n/a	LTP147	ltpFR	16	1	n/a	VILLAGE	1566	n/a	5	n/a	n/a	n/a	n/a	n/a	n/a
3369.288	n/a	RECOG_TARGET	1684644	n/a	LTP147	ltpFR	16	1	0	CASHIER	254	1	5	1	n/a	n/a	n/a	n/a	n/a
3369.868	n/a	RECOG_RESP	1684934	n/a	LTP147	ltpFR	16	1	0	CASHIER	254	1	n/a	1	n/a	n/a	n/a	n/a	n/a
3370.528	n/a	RECOG_CONF	1685264	n/a	LTP147	ltpFR	16	1	0	CASHIER	254	n/a	5	1	n/a	n/a	n/a	n/a	n/a
3371.746	n/a	RECOG_LURE	1685873	n/a	LTP147	ltpFR	16	1	n/a	ATTORNEY	58	0	5	n/a	n/a	n/a	n/a	n/a	n/a
3372.33	n/a	RECOG_RESP	1686165	n/a	LTP147	ltpFR	16	1	n/a	ATTORNEY	58	0	n/a	n/a	n/a	n/a	n/a	n/a	n/a
3372.998	n/a	RECOG_CONF	1686499	n/a	LTP147	ltpFR	16	1	n/a	ATTORNEY	58	n/a	5	n/a	n/a	n/a	n/a	n/a	n/a
3374.078	n/a	RECOG_LURE	1687039	n/a	LTP147	ltpFR	16	1	n/a	NICKEL	950	0	5	n/a	n/a	n/a	n/a	n/a	n/a
3374.836	n/a	RECOG_RESP	1687418	n/a	LTP147	ltpFR	16	1	n/a	NICKEL	950	0	n/a	n/a	n/a	n/a	n/a	n/a	n/a
3375.562	n/a	RECOG_CONF	1687781	n/a	LTP147	ltpFR	16	1	n/a	NICKEL	950	n/a	5	n/a	n/a	n/a	n/a	n/a	n/a
3376.628	n/a	RECOG_TARGET	1688314	n/a	LTP147	ltpFR	16	1	0	WRITER	1627	1	5	1	n/a	n/a	n/a	n/a	n/a
3377.37	n/a	RECOG_RESP	1688685	n/a	LTP147	ltpFR	16	1	0	WRITER	1627	1	n/a	1	n/a	n/a	n/a	n/a	n/a
3378.008	n/a	RECOG_CONF	1689004	n/a	LTP147	ltpFR	16	1	0	WRITER	1627	n/a	5	1	n/a	n/a	n/a	n/a	n/a
3380.676	n/a	REC_START	1690338	n/a	LTP147	ltpFR	16	2	n/a	n/a	n/a	n/a	n/a	n/a	n/a	n/a	n/a	n/a	n/a
3380.708	n/a	RECOG_TARGET	1690354	n/a	LTP147	ltpFR	16	2	0	MOTEL	919	1	5	1	n/a	n/a	n/a	n/a	n/a
3381.306	n/a	RECOG_RESP	1690653	n/a	LTP147	ltpFR	16	2	0	MOTEL	919	1	n/a	1	n/a	n/a	n/a	n/a	n/a
3381.978	n/a	RECOG_CONF	1690989	n/a	LTP147	ltpFR	16	2	0	MOTEL	919	n/a	5	1	n/a	n/a	n/a	n/a	n/a
3383.024	n/a	RECOG_TARGET	1691512	n/a	LTP147	ltpFR	16	2	1	BROOK	177	1	5	1	n/a	n/a	n/a	n/a	n/a
3383.524	n/a	RECOG_RESP	1691762	n/a	LTP147	ltpFR	16	2	1	BROOK	177	1	n/a	1	n/a	n/a	n/a	n/a	n/a
3384.126	n/a	RECOG_CONF	1692063	n/a	LTP147	ltpFR	16	2	1	BROOK	177	n/a	5	1	n/a	n/a	n/a	n/a	n/a
3385.166	n/a	RECOG_TARGET	1692583	n/a	LTP147	ltpFR	16	2	-1	BARN	89	1	5	-1	n/a	n/a	n/a	n/a	n/a
3385.81	n/a	RECOG_RESP	1692905	n/a	LTP147	ltpFR	16	2	-1	BARN	89	1	n/a	-1	n/a	n/a	n/a	n/a	n/a
3386.472	n/a	RECOG_CONF	1693236	n/a	LTP147	ltpFR	16	2	-1	BARN	89	n/a	5	-1	n/a	n/a	n/a	n/a	n/a
3387.666	n/a	RECOG_LURE	1693833	n/a	LTP147	ltpFR	16	2	n/a	SCALE	1241	0	4	n/a	n/a	n/a	n/a	n/a	n/a
3388.324	n/a	RECOG_RESP	1694162	n/a	LTP147	ltpFR	16	2	n/a	SCALE	1241	0	n/a	n/a	n/a	n/a	n/a	n/a	n/a
3388.82	n/a	RECOG_CONF	1694410	n/a	LTP147	ltpFR	16	2	n/a	SCALE	1241	n/a	4	n/a	n/a	n/a	n/a	n/a	n/a
3389.974	n/a	RECOG_TARGET	1694987	n/a	LTP147	ltpFR	16	2	-1	LOOP	844	0	5	-1	n/a	n/a	n/a	n/a	n/a
3390.644	n/a	RECOG_RESP	1695322	n/a	LTP147	ltpFR	16	2	-1	LOOP	844	0	n/a	-1	n/a	n/a	n/a	n/a	n/a
3391.376	n/a	RECOG_CONF	1695688	n/a	LTP147	ltpFR	16	2	-1	LOOP	844	n/a	5	-1	n/a	n/a	n/a	n/a	n/a
3392.556	n/a	RECOG_LURE	1696278	n/a	LTP147	ltpFR	16	2	n/a	STADIUM	1364	1	1	n/a	n/a	n/a	n/a	n/a	n/a
3393.486	n/a	RECOG_RESP	1696743	n/a	LTP147	ltpFR	16	2	n/a	STADIUM	1364	1	n/a	n/a	n/a	n/a	n/a	n/a	n/a
3394.148	n/a	RECOG_CONF	1697074	n/a	LTP147	ltpFR	16	2	n/a	STADIUM	1364	n/a	1	n/a	n/a	n/a	n/a	n/a	n/a
3395.388	n/a	RECOG_TARGET	1697694	n/a	LTP147	ltpFR	16	2	0	NAIL	936	1	5	0	n/a	n/a	n/a	n/a	n/a
3396.086	n/a	RECOG_RESP	1698043	n/a	LTP147	ltpFR	16	2	0	NAIL	936	1	n/a	0	n/a	n/a	n/a	n/a	n/a
3396.764	n/a	RECOG_CONF	1698382	n/a	LTP147	ltpFR	16	2	0	NAIL	936	n/a	5	0	n/a	n/a	n/a	n/a	n/a
3397.936	n/a	RECOG_LURE	1698968	n/a	LTP147	ltpFR	16	2	n/a	GOO	648	0	5	n/a	n/a	n/a	n/a	n/a	n/a
3398.604	n/a	RECOG_RESP	1699302	n/a	LTP147	ltpFR	16	2	n/a	GOO	648	0	n/a	n/a	n/a	n/a	n/a	n/a	n/a
3399.148	n/a	RECOG_CONF	1699574	n/a	LTP147	ltpFR	16	2	n/a	GOO	648	n/a	5	n/a	n/a	n/a	n/a	n/a	n/a
3400.312	n/a	RECOG_TARGET	1700156	n/a	LTP147	ltpFR	16	2	1	PERCH	1048	1	5	0	n/a	n/a	n/a	n/a	n/a
3400.918	n/a	RECOG_RESP	1700459	n/a	LTP147	ltpFR	16	2	1	PERCH	1048	1	n/a	0	n/a	n/a	n/a	n/a	n/a
3401.582	n/a	RECOG_CONF	1700791	n/a	LTP147	ltpFR	16	2	1	PERCH	1048	n/a	5	0	n/a	n/a	n/a	n/a	n/a
3402.826	n/a	RECOG_LURE	1701413	n/a	LTP147	ltpFR	16	2	n/a	CANARY	227	1	5	n/a	n/a	n/a	n/a	n/a	n/a
3403.346	n/a	RECOG_RESP	1701673	n/a	LTP147	ltpFR	16	2	n/a	CANARY	227	1	n/a	n/a	n/a	n/a	n/a	n/a	n/a
3404.518	n/a	RECOG_CONF	1702259	n/a	LTP147	ltpFR	16	2	n/a	CANARY	227	n/a	5	n/a	n/a	n/a	n/a	n/a	n/a
3405.736	n/a	RECOG_LURE	1702868	n/a	LTP147	ltpFR	16	2	n/a	SKIRT	1319	0	5	n/a	n/a	n/a	n/a	n/a	n/a
3406.456	n/a	RECOG_RESP	1703228	n/a	LTP147	ltpFR	16	2	n/a	SKIRT	1319	0	n/a	n/a	n/a	n/a	n/a	n/a	n/a
3407.13	n/a	RECOG_CONF	1703565	n/a	LTP147	ltpFR	16	2	n/a	SKIRT	1319	n/a	5	n/a	n/a	n/a	n/a	n/a	n/a
3408.4	n/a	RECOG_LURE	1704200	n/a	LTP147	ltpFR	16	2	n/a	NEST	945	0	4	n/a	n/a	n/a	n/a	n/a	n/a
3409.2	n/a	RECOG_RESP	1704600	n/a	LTP147	ltpFR	16	2	n/a	NEST	945	0	n/a	n/a	n/a	n/a	n/a	n/a	n/a
3409.876	n/a	RECOG_CONF	1704938	n/a	LTP147	ltpFR	16	2	n/a	NEST	945	n/a	4	n/a	n/a	n/a	n/a	n/a	n/a
3411.042	n/a	RECOG_LURE	1705521	n/a	LTP147	ltpFR	16	2	n/a	PEPPER	1047	0	4	n/a	n/a	n/a	n/a	n/a	n/a
3411.762	n/a	RECOG_RESP_VV	1705881	n/a	LTP147	ltpFR	16	2	n/a	PEPPER	1047	1	n/a	n/a	n/a	n/a	n/a	n/a	n/a
3412.184	n/a	RECOG_RESP	1706092	n/a	LTP147	ltpFR	16	2	n/a	PEPPER	1047	0	n/a	n/a	n/a	n/a	n/a	n/a	n/a
3413.032	n/a	RECOG_CONF	1706516	n/a	LTP147	ltpFR	16	2	n/a	PEPPER	1047	n/a	4	n/a	n/a	n/a	n/a	n/a	n/a
3413.948	n/a	RECOG_TARGET	1706974	n/a	LTP147	ltpFR	16	2	0	VASE	1549	1	5	0	n/a	n/a	n/a	n/a	n/a
3414.868	n/a	RECOG_RESP	1707434	n/a	LTP147	ltpFR	16	2	0	VASE	1549	1	n/a	0	n/a	n/a	n/a	n/a	n/a
3415.582	n/a	RECOG_CONF	1707791	n/a	LTP147	ltpFR	16	2	0	VASE	1549	n/a	5	0	n/a	n/a	n/a	n/a	n/a
3416.948	n/a	RECOG_LURE	1708474	n/a	LTP147	ltpFR	16	2	n/a	BOULDER	155	0	5	n/a	n/a	n/a	n/a	n/a	n/a
3417.578	n/a	RECOG_RESP	1708789	n/a	LTP147	ltpFR	16	2	n/a	BOULDER	155	0	n/a	n/a	n/a	n/a	n/a	n/a	n/a
3418.178	n/a	RECOG_CONF	1709089	n/a	LTP147	ltpFR	16	2	n/a	BOULDER	155	n/a	5	n/a	n/a	n/a	n/a	n/a	n/a
3419.314	n/a	RECOG_LURE	1709657	n/a	LTP147	ltpFR	16	2	n/a	VOLLEYBALL	1576	0	5	n/a	n/a	n/a	n/a	n/a	n/a
3420.066	n/a	RECOG_RESP	1710033	n/a	LTP147	ltpFR	16	2	n/a	VOLLEYBALL	1576	0	n/a	n/a	n/a	n/a	n/a	n/a	n/a
3420.652	n/a	RECOG_CONF	1710326	n/a	LTP147	ltpFR	16	2	n/a	VOLLEYBALL	1576	n/a	5	n/a	n/a	n/a	n/a	n/a	n/a
3421.804	n/a	RECOG_LURE	1710902	n/a	LTP147	ltpFR	16	2	n/a	KITTEN	780	0	4	n/a	n/a	n/a	n/a	n/a	n/a
3422.89	n/a	RECOG_RESP	1711445	n/a	LTP147	ltpFR	16	2	n/a	KITTEN	780	0	n/a	n/a	n/a	n/a	n/a	n/a	n/a
3423.462	n/a	RECOG_CONF	1711731	n/a	LTP147	ltpFR	16	2	n/a	KITTEN	780	n/a	4	n/a	n/a	n/a	n/a	n/a	n/a
3424.862	n/a	RECOG_LURE	1712431	n/a	LTP147	ltpFR	16	2	n/a	DEODORANT	448	0	5	n/a	n/a	n/a	n/a	n/a	n/a
3425.562	n/a	RECOG_RESP	1712781	n/a	LTP147	ltpFR	16	2	n/a	DEODORANT	448	0	n/a	n/a	n/a	n/a	n/a	n/a	n/a
3426.058	n/a	RECOG_CONF	1713029	n/a	LTP147	ltpFR	16	2	n/a	DEODORANT	448	n/a	5	n/a	n/a	n/a	n/a	n/a	n/a
3427.32	n/a	RECOG_TARGET	1713660	n/a	LTP147	ltpFR	16	2	1	RIDER	1191	1	5	1	n/a	n/a	n/a	n/a	n/a
3428.038	n/a	RECOG_RESP	1714019	n/a	LTP147	ltpFR	16	2	1	RIDER	1191	1	n/a	1	n/a	n/a	n/a	n/a	n/a
3428.744	n/a	RECOG_CONF	1714372	n/a	LTP147	ltpFR	16	2	1	RIDER	1191	n/a	5	1	n/a	n/a	n/a	n/a	n/a
3429.82	n/a	RECOG_LURE	1714910	n/a	LTP147	ltpFR	16	2	n/a	BRICK	172	0	4	n/a	n/a	n/a	n/a	n/a	n/a
3430.696	n/a	RECOG_RESP	1715348	n/a	LTP147	ltpFR	16	2	n/a	BRICK	172	0	n/a	n/a	n/a	n/a	n/a	n/a	n/a
3431.342	n/a	RECOG_CONF	1715671	n/a	LTP147	ltpFR	16	2	n/a	BRICK	172	n/a	4	n/a	n/a	n/a	n/a	n/a	n/a
3435.22	n/a	REC_START	1717610	n/a	LTP147	ltpFR	16	3	n/a	n/a	n/a	n/a	n/a	n/a	n/a	n/a	n/a	n/a	n/a
3435.258	n/a	RECOG_LURE	1717629	n/a	LTP147	ltpFR	16	3	n/a	OMELET	976	0	5	n/a	n/a	n/a	n/a	n/a	n/a
3436.07	n/a	RECOG_RESP	1718035	n/a	LTP147	ltpFR	16	3	n/a	OMELET	976	0	n/a	n/a	n/a	n/a	n/a	n/a	n/a
3436.606	n/a	RECOG_CONF	1718303	n/a	LTP147	ltpFR	16	3	n/a	OMELET	976	n/a	5	n/a	n/a	n/a	n/a	n/a	n/a
3437.708	n/a	RECOG_TARGET	1718854	n/a	LTP147	ltpFR	16	3	1	BARRACUDA	90	1	5	1	n/a	n/a	n/a	n/a	n/a
3438.396	n/a	RECOG_RESP	1719198	n/a	LTP147	ltpFR	16	3	1	BARRACUDA	90	1	n/a	1	n/a	n/a	n/a	n/a	n/a
3439.01	n/a	RECOG_CONF	1719505	n/a	LTP147	ltpFR	16	3	1	BARRACUDA	90	n/a	5	1	n/a	n/a	n/a	n/a	n/a
3440.158	n/a	RECOG_TARGET	1720079	n/a	LTP147	ltpFR	16	3	1	PANTHER	1009	1	5	1	n/a	n/a	n/a	n/a	n/a
3440.678	n/a	RECOG_RESP	1720339	n/a	LTP147	ltpFR	16	3	1	PANTHER	1009	1	n/a	1	n/a	n/a	n/a	n/a	n/a
3441.304	n/a	RECOG_CONF	1720652	n/a	LTP147	ltpFR	16	3	1	PANTHER	1009	n/a	5	1	n/a	n/a	n/a	n/a	n/a
3442.382	n/a	RECOG_TARGET	1721191	n/a	LTP147	ltpFR	16	3	1	ARCHITECT	36	1	5	0	n/a	n/a	n/a	n/a	n/a
3442.892	n/a	RECOG_RESP	1721446	n/a	LTP147	ltpFR	16	3	1	ARCHITECT	36	1	n/a	0	n/a	n/a	n/a	n/a	n/a
3443.576	n/a	RECOG_CONF	1721788	n/a	LTP147	ltpFR	16	3	1	ARCHITECT	36	n/a	5	0	n/a	n/a	n/a	n/a	n/a
3444.682	n/a	RECOG_LURE	1722341	n/a	LTP147	ltpFR	16	3	n/a	COB	334	1	5	n/a	n/a	n/a	n/a	n/a	n/a
3445.158	n/a	RECOG_RESP	1722579	n/a	LTP147	ltpFR	16	3	n/a	COB	334	1	n/a	n/a	n/a	n/a	n/a	n/a	n/a
3445.784	n/a	RECOG_CONF	1722892	n/a	LTP147	ltpFR	16	3	n/a	COB	334	n/a	5	n/a	n/a	n/a	n/a	n/a	n/a
3446.848	n/a	RECOG_TARGET	1723424	n/a	LTP147	ltpFR	16	3	0	CAT	257	1	5	1	n/a	n/a	n/a	n/a	n/a
3447.292	n/a	RECOG_RESP	1723646	n/a	LTP147	ltpFR	16	3	0	CAT	257	1	n/a	1	n/a	n/a	n/a	n/a	n/a
3447.878	n/a	RECOG_CONF	1723939	n/a	LTP147	ltpFR	16	3	0	CAT	257	n/a	5	1	n/a	n/a	n/a	n/a	n/a
3448.956	n/a	RECOG_LURE	1724478	n/a	LTP147	ltpFR	16	3	n/a	JET	756	0	5	n/a	n/a	n/a	n/a	n/a	n/a
3449.396	n/a	RECOG_RESP_VV	1724698	n/a	LTP147	ltpFR	16	3	n/a	JET	756	1	n/a	n/a	n/a	n/a	n/a	n/a	n/a
3449.894	n/a	RECOG_RESP	1724947	n/a	LTP147	ltpFR	16	3	n/a	JET	756	0	n/a	n/a	n/a	n/a	n/a	n/a	n/a
3450.396	n/a	RECOG_CONF	1725198	n/a	LTP147	ltpFR	16	3	n/a	JET	756	n/a	5	n/a	n/a	n/a	n/a	n/a	n/a
3451.572	n/a	RECOG_LURE	1725786	n/a	LTP147	ltpFR	16	3	n/a	SOFA	1342	0	5	n/a	n/a	n/a	n/a	n/a	n/a
3452.104	n/a	RECOG_RESP	1726052	n/a	LTP147	ltpFR	16	3	n/a	SOFA	1342	0	n/a	n/a	n/a	n/a	n/a	n/a	n/a
3452.588	n/a	RECOG_CONF	1726294	n/a	LTP147	ltpFR	16	3	n/a	SOFA	1342	n/a	5	n/a	n/a	n/a	n/a	n/a	n/a
3453.828	n/a	RECOG_LURE	1726914	n/a	LTP147	ltpFR	16	3	n/a	PRESIDENT	1121	0	5	n/a	n/a	n/a	n/a	n/a	n/a
3454.45	n/a	RECOG_RESP	1727225	n/a	LTP147	ltpFR	16	3	n/a	PRESIDENT	1121	0	n/a	n/a	n/a	n/a	n/a	n/a	n/a
3455.012	n/a	RECOG_CONF	1727506	n/a	LTP147	ltpFR	16	3	n/a	PRESIDENT	1121	n/a	5	n/a	n/a	n/a	n/a	n/a	n/a
3456.136	n/a	RECOG_LURE	1728068	n/a	LTP147	ltpFR	16	3	n/a	NEPTUNE	943	0	5	n/a	n/a	n/a	n/a	n/a	n/a
3456.736	n/a	RECOG_RESP	1728368	n/a	LTP147	ltpFR	16	3	n/a	NEPTUNE	943	0	n/a	n/a	n/a	n/a	n/a	n/a	n/a
3457.356	n/a	RECOG_CONF	1728678	n/a	LTP147	ltpFR	16	3	n/a	NEPTUNE	943	n/a	5	n/a	n/a	n/a	n/a	n/a	n/a
3458.468	n/a	RECOG_LURE	1729234	n/a	LTP147	ltpFR	16	3	n/a	BOARD	143	1	4	n/a	n/a	n/a	n/a	n/a	n/a
3459.046	n/a	RECOG_RESP	1729523	n/a	LTP147	ltpFR	16	3	n/a	BOARD	143	1	n/a	n/a	n/a	n/a	n/a	n/a	n/a
3459.888	n/a	RECOG_CONF	1729944	n/a	LTP147	ltpFR	16	3	n/a	BOARD	143	n/a	4	n/a	n/a	n/a	n/a	n/a	n/a
3461.184	n/a	RECOG_TARGET	1730592	n/a	LTP147	ltpFR	16	3	-1	SAND	1230	1	1	-1	n/a	n/a	n/a	n/a	n/a
3462.216	n/a	RECOG_RESP	1731108	n/a	LTP147	ltpFR	16	3	-1	SAND	1230	1	n/a	-1	n/a	n/a	n/a	n/a	n/a
3462.924	n/a	RECOG_CONF	1731462	n/a	LTP147	ltpFR	16	3	-1	SAND	1230	n/a	1	-1	n/a	n/a	n/a	n/a	n/a
3464.192	n/a	RECOG_LURE	1732096	n/a	LTP147	ltpFR	16	3	n/a	CHAMBER	277	0	4	n/a	n/a	n/a	n/a	n/a	n/a
3464.804	n/a	RECOG_RESP	1732402	n/a	LTP147	ltpFR	16	3	n/a	CHAMBER	277	0	n/a	n/a	n/a	n/a	n/a	n/a	n/a
3465.474	n/a	RECOG_CONF	1732737	n/a	LTP147	ltpFR	16	3	n/a	CHAMBER	277	n/a	4	n/a	n/a	n/a	n/a	n/a	n/a
3466.784	n/a	RECOG_LURE	1733392	n/a	LTP147	ltpFR	16	3	n/a	PENNY	1045	0	5	n/a	n/a	n/a	n/a	n/a	n/a
3467.422	n/a	RECOG_RESP	1733711	n/a	LTP147	ltpFR	16	3	n/a	PENNY	1045	0	n/a	n/a	n/a	n/a	n/a	n/a	n/a
3467.896	n/a	RECOG_CONF	1733948	n/a	LTP147	ltpFR	16	3	n/a	PENNY	1045	n/a	5	n/a	n/a	n/a	n/a	n/a	n/a
3469.148	n/a	RECOG_LURE	1734574	n/a	LTP147	ltpFR	16	3	n/a	STRAW	1390	0	5	n/a	n/a	n/a	n/a	n/a	n/a
3469.804	n/a	RECOG_RESP	1734902	n/a	LTP147	ltpFR	16	3	n/a	STRAW	1390	0	n/a	n/a	n/a	n/a	n/a	n/a	n/a
3470.368	n/a	RECOG_CONF	1735184	n/a	LTP147	ltpFR	16	3	n/a	STRAW	1390	n/a	5	n/a	n/a	n/a	n/a	n/a	n/a
3471.448	n/a	RECOG_LURE	1735724	n/a	LTP147	ltpFR	16	3	n/a	PRIEST	1122	0	5	n/a	n/a	n/a	n/a	n/a	n/a
3472.006	n/a	RECOG_RESP	1736003	n/a	LTP147	ltpFR	16	3	n/a	PRIEST	1122	0	n/a	n/a	n/a	n/a	n/a	n/a	n/a
3472.592	n/a	RECOG_CONF	1736296	n/a	LTP147	ltpFR	16	3	n/a	PRIEST	1122	n/a	5	n/a	n/a	n/a	n/a	n/a	n/a
3473.632	n/a	RECOG_TARGET	1736816	n/a	LTP147	ltpFR	16	3	1	BULLET	194	1	5	0	n/a	n/a	n/a	n/a	n/a
3474.21	n/a	RECOG_RESP	1737105	n/a	LTP147	ltpFR	16	3	1	BULLET	194	1	n/a	0	n/a	n/a	n/a	n/a	n/a
3474.728	n/a	RECOG_CONF	1737364	n/a	LTP147	ltpFR	16	3	1	BULLET	194	n/a	5	0	n/a	n/a	n/a	n/a	n/a
