onset	duration	trial_type	sample	stim_file	subject	experiment	session	trial	item_name	item_num	list	answer	test_x	test_y	test_z
210.99853515625	n/a	SESS_START	432125	n/a	LTP379	ltpFR2	3	n/a	n/a	n/a	n/a	n/a	0	0	0
246.08251953125	n/a	START	503977	n/a	LTP379	ltpFR2	3	n/a	n/a	n/a	-1	n/a	n/a	n/a	n/a
246.09765625	n/a	PROB	504008	n/a	LTP379	ltpFR2	3	n/a	n/a	n/a	-1	17	4	9	4
248.53125	n/a	PROB	508992	n/a	LTP379	ltpFR2	3	n/a	n/a	n/a	-1	12	3	7	2
249.86328125	n/a	PROB	511720	n/a	LTP379	ltpFR2	3	n/a	n/a	n/a	-1	15	7	4	4
251.66455078125	n/a	PROB	515409	n/a	LTP379	ltpFR2	3	n/a	n/a	n/a	-1	10	2	3	5
252.8974609375	n/a	PROB	517934	n/a	LTP379	ltpFR2	3	n/a	n/a	n/a	-1	21	7	8	6
254.38037109375	n/a	PROB	520971	n/a	LTP379	ltpFR2	3	n/a	n/a	n/a	-1	18	8	7	3
256.21337890625	n/a	PROB	524725	n/a	LTP379	ltpFR2	3	n/a	n/a	n/a	-1	19	7	9	3
257.833984375	n/a	STOP	528044	n/a	LTP379	ltpFR2	3	n/a	n/a	n/a	-1	n/a	n/a	n/a	n/a
310.177734375	n/a	WORD	635244	wordpools/wasnorm_wordpool_576.txt	LTP379	ltpFR2	3	1	BEAST	108	n/a	n/a	0	0	0
312.8603515625	n/a	WORD	640738	wordpools/wasnorm_wordpool_576.txt	LTP379	ltpFR2	3	1	BIKE	125	n/a	n/a	0	0	0
315.66162109375	n/a	WORD	646475	wordpools/wasnorm_wordpool_576.txt	LTP379	ltpFR2	3	1	SHERIFF	1284	n/a	n/a	0	0	0
318.09423828125	n/a	WORD	651457	wordpools/wasnorm_wordpool_576.txt	LTP379	ltpFR2	3	1	CORAL	378	n/a	n/a	0	0	0
320.84423828125	n/a	WORD	657089	wordpools/wasnorm_wordpool_576.txt	LTP379	ltpFR2	3	1	CHEMIST	292	n/a	n/a	0	0	0
323.494140625	n/a	WORD	662516	wordpools/wasnorm_wordpool_576.txt	LTP379	ltpFR2	3	1	POSSUM	1112	n/a	n/a	0	0	0
326.2431640625	n/a	WORD	668146	wordpools/wasnorm_wordpool_576.txt	LTP379	ltpFR2	3	1	AGENT	10	n/a	n/a	0	0	0
328.69384765625	n/a	WORD	673165	wordpools/wasnorm_wordpool_576.txt	LTP379	ltpFR2	3	1	CHILD	299	n/a	n/a	0	0	0
331.3271484375	n/a	WORD	678558	wordpools/wasnorm_wordpool_576.txt	LTP379	ltpFR2	3	1	FRIAR	605	n/a	n/a	0	0	0
333.77685546875	n/a	WORD	683575	wordpools/wasnorm_wordpool_576.txt	LTP379	ltpFR2	3	1	DANDRUFF	439	n/a	n/a	0	0	0
336.29296875	n/a	WORD	688728	wordpools/wasnorm_wordpool_576.txt	LTP379	ltpFR2	3	1	HEADBAND	696	n/a	n/a	0	0	0
338.74365234375	n/a	WORD	693747	wordpools/wasnorm_wordpool_576.txt	LTP379	ltpFR2	3	1	CROWN	415	n/a	n/a	0	0	0
341.49365234375	n/a	WORD	699379	wordpools/wasnorm_wordpool_576.txt	LTP379	ltpFR2	3	1	CRATER	400	n/a	n/a	0	0	0
344.142578125	n/a	WORD	704804	wordpools/wasnorm_wordpool_576.txt	LTP379	ltpFR2	3	1	COUNTY	389	n/a	n/a	0	0	0
346.92529296875	n/a	WORD	710503	wordpools/wasnorm_wordpool_576.txt	LTP379	ltpFR2	3	1	FOOTBALL	591	n/a	n/a	0	0	0
349.59326171875	n/a	WORD	715967	wordpools/wasnorm_wordpool_576.txt	LTP379	ltpFR2	3	1	CARRIAGE	248	n/a	n/a	0	0	0
352.25927734375	n/a	WORD	721427	wordpools/wasnorm_wordpool_576.txt	LTP379	ltpFR2	3	1	SODA	1341	n/a	n/a	0	0	0
355.0751953125	n/a	WORD	727194	wordpools/wasnorm_wordpool_576.txt	LTP379	ltpFR2	3	1	PANTHER	1009	n/a	n/a	0	0	0
357.4931640625	n/a	WORD	732146	wordpools/wasnorm_wordpool_576.txt	LTP379	ltpFR2	3	1	CHIPMUNK	304	n/a	n/a	0	0	0
360.2421875	n/a	WORD	737776	wordpools/wasnorm_wordpool_576.txt	LTP379	ltpFR2	3	1	PIZZA	1079	n/a	n/a	0	0	0
362.875	n/a	WORD	743168	wordpools/wasnorm_wordpool_576.txt	LTP379	ltpFR2	3	1	COUSIN	392	n/a	n/a	0	0	0
365.39208984375	n/a	WORD	748323	wordpools/wasnorm_wordpool_576.txt	LTP379	ltpFR2	3	1	UNCLE	1536	n/a	n/a	0	0	0
368.0419921875	n/a	WORD	753750	wordpools/wasnorm_wordpool_576.txt	LTP379	ltpFR2	3	1	TROMBONE	1508	n/a	n/a	0	0	0
370.60888671875	n/a	WORD	759007	wordpools/wasnorm_wordpool_576.txt	LTP379	ltpFR2	3	1	BRANCH	168	n/a	n/a	0	0	0
372.224609375	n/a	START	762316	n/a	LTP379	ltpFR2	3	n/a	n/a	n/a	1	n/a	n/a	n/a	n/a
373.02783203125	n/a	DISTRACTOR	763961	n/a	LTP379	ltpFR2	3	1	n/a	n/a	n/a	n/a	0	0	0
373.04150390625	n/a	PROB	763989	n/a	LTP379	ltpFR2	3	n/a	n/a	n/a	1	17	9	5	3
375.15771484375	n/a	PROB	768323	n/a	LTP379	ltpFR2	3	n/a	n/a	n/a	1	5	2	2	1
376.15771484375	n/a	PROB	770371	n/a	LTP379	ltpFR2	3	n/a	n/a	n/a	1	13	5	5	3
377.357421875	n/a	PROB	772828	n/a	LTP379	ltpFR2	3	n/a	n/a	n/a	1	20	6	8	6
379.24169921875	n/a	PROB	776687	n/a	LTP379	ltpFR2	3	n/a	n/a	n/a	1	20	6	7	7
381.00732421875	n/a	PROB	780303	n/a	LTP379	ltpFR2	3	n/a	n/a	n/a	1	14	7	6	1
382.857421875	n/a	PROB	784092	n/a	LTP379	ltpFR2	3	n/a	n/a	n/a	1	18	3	6	9
384.22412109375	n/a	PROB	786891	n/a	LTP379	ltpFR2	3	n/a	n/a	n/a	1	13	6	5	2
386.20703125	n/a	PROB	790952	n/a	LTP379	ltpFR2	3	n/a	n/a	n/a	1	21	8	6	7
388.32421875	n/a	PROB	795288	n/a	LTP379	ltpFR2	3	n/a	n/a	n/a	1	13	3	1	9
389.75830078125	n/a	PROB	798225	n/a	LTP379	ltpFR2	3	n/a	n/a	n/a	1	10	1	6	3
391.541015625	n/a	PROB	801876	n/a	LTP379	ltpFR2	3	n/a	n/a	n/a	1	18	6	8	4
393.35693359375	n/a	PROB	805595	n/a	LTP379	ltpFR2	3	n/a	n/a	n/a	1	16	7	4	5
396.22412109375	n/a	STOP	811467	n/a	LTP379	ltpFR2	3	n/a	n/a	n/a	1	n/a	n/a	n/a	n/a
398.10693359375	n/a	REC_START	815323	n/a	LTP379	ltpFR2	3	1	n/a	n/a	n/a	n/a	0	0	0
398.5908203125	n/a	REC_WORD_VV	816314	wordpools/wasnorm_wordpool_576.txt	LTP379	ltpFR2	3	1	<>	-1	n/a	n/a	0	0	0
402.31298828125	n/a	REC_WORD	823937	wordpools/wasnorm_wordpool_576.txt	LTP379	ltpFR2	3	1	BEAST	108	n/a	n/a	0	0	0
403.560546875	n/a	REC_WORD	826492	wordpools/wasnorm_wordpool_576.txt	LTP379	ltpFR2	3	1	BIKE	125	n/a	n/a	0	0	0
406.4794921875	n/a	REC_WORD	832470	wordpools/wasnorm_wordpool_576.txt	LTP379	ltpFR2	3	1	SHERIFF	1284	n/a	n/a	0	0	0
407.9267578125	n/a	REC_WORD	835434	wordpools/wasnorm_wordpool_576.txt	LTP379	ltpFR2	3	1	CORAL	378	n/a	n/a	0	0	0
409.83544921875	n/a	REC_WORD	839343	wordpools/wasnorm_wordpool_576.txt	LTP379	ltpFR2	3	1	CHEMIST	292	n/a	n/a	0	0	0
411.29248046875	n/a	REC_WORD	842327	wordpools/wasnorm_wordpool_576.txt	LTP379	ltpFR2	3	1	POSSUM	1112	n/a	n/a	0	0	0
412.6982421875	n/a	REC_WORD	845206	wordpools/wasnorm_wordpool_576.txt	LTP379	ltpFR2	3	1	AGENT	10	n/a	n/a	0	0	0
414.1142578125	n/a	REC_WORD	848106	wordpools/wasnorm_wordpool_576.txt	LTP379	ltpFR2	3	1	CHILD	299	n/a	n/a	0	0	0
419.87841796875	n/a	REC_WORD	859911	wordpools/wasnorm_wordpool_576.txt	LTP379	ltpFR2	3	1	FRIAR	605	n/a	n/a	0	0	0
421.67626953125	n/a	REC_WORD	863593	wordpools/wasnorm_wordpool_576.txt	LTP379	ltpFR2	3	1	DANDRUFF	439	n/a	n/a	0	0	0
422.93115234375	n/a	REC_WORD	866163	wordpools/wasnorm_wordpool_576.txt	LTP379	ltpFR2	3	1	HEADBAND	696	n/a	n/a	0	0	0
424.63427734375	n/a	REC_WORD	869651	wordpools/wasnorm_wordpool_576.txt	LTP379	ltpFR2	3	1	CROWN	415	n/a	n/a	0	0	0
427.48095703125	n/a	REC_WORD	875481	wordpools/wasnorm_wordpool_576.txt	LTP379	ltpFR2	3	1	CRATER	400	n/a	n/a	0	0	0
429.10400390625	n/a	REC_WORD	878805	wordpools/wasnorm_wordpool_576.txt	LTP379	ltpFR2	3	1	COUNTY	389	n/a	n/a	0	0	0
430.744140625	n/a	REC_WORD	882164	wordpools/wasnorm_wordpool_576.txt	LTP379	ltpFR2	3	1	FOOTBALL	591	n/a	n/a	0	0	0
433.8076171875	n/a	REC_WORD	888438	wordpools/wasnorm_wordpool_576.txt	LTP379	ltpFR2	3	1	CARRIAGE	248	n/a	n/a	0	0	0
435.8818359375	n/a	REC_WORD	892686	wordpools/wasnorm_wordpool_576.txt	LTP379	ltpFR2	3	1	PANTHER	1009	n/a	n/a	0	0	0
437.37255859375	n/a	REC_WORD	895739	wordpools/wasnorm_wordpool_576.txt	LTP379	ltpFR2	3	1	SODA	1341	n/a	n/a	0	0	0
439.07080078125	n/a	REC_WORD	899217	wordpools/wasnorm_wordpool_576.txt	LTP379	ltpFR2	3	1	CHIPMUNK	304	n/a	n/a	0	0	0
440.9404296875	n/a	REC_WORD	903046	wordpools/wasnorm_wordpool_576.txt	LTP379	ltpFR2	3	1	PIZZA	1079	n/a	n/a	0	0	0
442.6865234375	n/a	REC_WORD	906622	wordpools/wasnorm_wordpool_576.txt	LTP379	ltpFR2	3	1	COUSIN	392	n/a	n/a	0	0	0
444.193359375	n/a	REC_WORD	909708	wordpools/wasnorm_wordpool_576.txt	LTP379	ltpFR2	3	1	UNCLE	1536	n/a	n/a	0	0	0
445.50146484375	n/a	REC_WORD	912387	wordpools/wasnorm_wordpool_576.txt	LTP379	ltpFR2	3	1	TROMBONE	1508	n/a	n/a	0	0	0
447.232421875	n/a	REC_WORD	915932	wordpools/wasnorm_wordpool_576.txt	LTP379	ltpFR2	3	1	BRANCH	168	n/a	n/a	0	0	0
488.55322265625	n/a	WORD	1000557	wordpools/wasnorm_wordpool_576.txt	LTP379	ltpFR2	3	2	SOFTBALL	1343	n/a	n/a	0	0	0
491.236328125	n/a	WORD	1006052	wordpools/wasnorm_wordpool_576.txt	LTP379	ltpFR2	3	2	CATCHER	258	n/a	n/a	0	0	0
494.06884765625	n/a	WORD	1011853	wordpools/wasnorm_wordpool_576.txt	LTP379	ltpFR2	3	2	EMPIRE	530	n/a	n/a	0	0	0
496.8857421875	n/a	WORD	1017622	wordpools/wasnorm_wordpool_576.txt	LTP379	ltpFR2	3	2	YOLK	1633	n/a	n/a	0	0	0
499.40185546875	n/a	WORD	1022775	wordpools/wasnorm_wordpool_576.txt	LTP379	ltpFR2	3	2	OINTMENT	974	n/a	n/a	0	0	0
502.03466796875	n/a	WORD	1028167	wordpools/wasnorm_wordpool_576.txt	LTP379	ltpFR2	3	2	SKETCH	1315	n/a	n/a	0	0	0
504.50244140625	n/a	WORD	1033221	wordpools/wasnorm_wordpool_576.txt	LTP379	ltpFR2	3	2	THRONE	1461	n/a	n/a	0	0	0
507.28466796875	n/a	WORD	1038919	wordpools/wasnorm_wordpool_576.txt	LTP379	ltpFR2	3	2	BADGE	68	n/a	n/a	0	0	0
509.95166015625	n/a	WORD	1044381	wordpools/wasnorm_wordpool_576.txt	LTP379	ltpFR2	3	2	VALLEY	1545	n/a	n/a	0	0	0
512.4013671875	n/a	WORD	1049398	wordpools/wasnorm_wordpool_576.txt	LTP379	ltpFR2	3	2	SCRIBBLE	1256	n/a	n/a	0	0	0
515.16845703125	n/a	WORD	1055065	wordpools/wasnorm_wordpool_576.txt	LTP379	ltpFR2	3	2	VENUS	1557	n/a	n/a	0	0	0
517.93408203125	n/a	WORD	1060729	wordpools/wasnorm_wordpool_576.txt	LTP379	ltpFR2	3	2	JELLY	755	n/a	n/a	0	0	0
520.51806640625	n/a	WORD	1066021	wordpools/wasnorm_wordpool_576.txt	LTP379	ltpFR2	3	2	MAPLE	866	n/a	n/a	0	0	0
523.06689453125	n/a	WORD	1071241	wordpools/wasnorm_wordpool_576.txt	LTP379	ltpFR2	3	2	COSTUME	383	n/a	n/a	0	0	0
525.60205078125	n/a	WORD	1076433	wordpools/wasnorm_wordpool_576.txt	LTP379	ltpFR2	3	2	FOREHEAD	592	n/a	n/a	0	0	0
528.216796875	n/a	WORD	1081788	wordpools/wasnorm_wordpool_576.txt	LTP379	ltpFR2	3	2	IDOL	733	n/a	n/a	0	0	0
530.66796875	n/a	WORD	1086808	wordpools/wasnorm_wordpool_576.txt	LTP379	ltpFR2	3	2	SKILLET	1317	n/a	n/a	0	0	0
533.4677734375	n/a	WORD	1092542	wordpools/wasnorm_wordpool_576.txt	LTP379	ltpFR2	3	2	DENIM	446	n/a	n/a	0	0	0
536.03369140625	n/a	WORD	1097797	wordpools/wasnorm_wordpool_576.txt	LTP379	ltpFR2	3	2	YACHT	1629	n/a	n/a	0	0	0
538.70166015625	n/a	WORD	1103261	wordpools/wasnorm_wordpool_576.txt	LTP379	ltpFR2	3	2	NEUTRON	947	n/a	n/a	0	0	0
541.2666015625	n/a	WORD	1108514	wordpools/wasnorm_wordpool_576.txt	LTP379	ltpFR2	3	2	FRIEND	606	n/a	n/a	0	0	0
543.75048828125	n/a	WORD	1113601	wordpools/wasnorm_wordpool_576.txt	LTP379	ltpFR2	3	2	STUDENT	1395	n/a	n/a	0	0	0
546.484375	n/a	WORD	1119200	wordpools/wasnorm_wordpool_576.txt	LTP379	ltpFR2	3	2	COLLEGE	346	n/a	n/a	0	0	0
548.93310546875	n/a	WORD	1124215	wordpools/wasnorm_wordpool_576.txt	LTP379	ltpFR2	3	2	BOUQUET	157	n/a	n/a	0	0	0
550.55126953125	n/a	START	1127529	n/a	LTP379	ltpFR2	3	n/a	n/a	n/a	2	n/a	n/a	n/a	n/a
551.689453125	n/a	DISTRACTOR	1129860	n/a	LTP379	ltpFR2	3	2	n/a	n/a	n/a	n/a	0	0	0
551.7001953125	n/a	PROB	1129882	n/a	LTP379	ltpFR2	3	n/a	n/a	n/a	2	15	5	8	2
553.31640625	n/a	PROB	1133192	n/a	LTP379	ltpFR2	3	n/a	n/a	n/a	2	12	8	1	3
555.51708984375	n/a	PROB	1137699	n/a	LTP379	ltpFR2	3	n/a	n/a	n/a	2	17	7	7	3
557.75	n/a	PROB	1142272	n/a	LTP379	ltpFR2	3	n/a	n/a	n/a	2	7	5	1	1
559.798828125	n/a	PROB	1146468	n/a	LTP379	ltpFR2	3	n/a	n/a	n/a	2	18	1	8	9
561.5341796875	n/a	PROB	1150022	n/a	LTP379	ltpFR2	3	n/a	n/a	n/a	2	7	2	3	2
563.916015625	n/a	PROB	1154900	n/a	LTP379	ltpFR2	3	n/a	n/a	n/a	2	14	8	2	4
565.1328125	n/a	PROB	1157392	n/a	LTP379	ltpFR2	3	n/a	n/a	n/a	2	16	4	4	8
566.8330078125	n/a	PROB	1160874	n/a	LTP379	ltpFR2	3	n/a	n/a	n/a	2	16	5	3	8
568.06689453125	n/a	PROB	1163401	n/a	LTP379	ltpFR2	3	n/a	n/a	n/a	2	14	6	4	4
569.3486328125	n/a	PROB	1166026	n/a	LTP379	ltpFR2	3	n/a	n/a	n/a	2	23	9	5	9
570.99853515625	n/a	PROB	1169405	n/a	LTP379	ltpFR2	3	n/a	n/a	n/a	2	9	1	4	4
572.431640625	n/a	PROB	1172340	n/a	LTP379	ltpFR2	3	n/a	n/a	n/a	2	22	6	8	8
573.9775390625	n/a	STOP	1175506	n/a	LTP379	ltpFR2	3	n/a	n/a	n/a	2	n/a	n/a	n/a	n/a
576.49951171875	n/a	REC_START	1180671	n/a	LTP379	ltpFR2	3	2	n/a	n/a	n/a	n/a	0	0	0
578.474609375	n/a	REC_WORD_VV	1184716	wordpools/wasnorm_wordpool_576.txt	LTP379	ltpFR2	3	2	<>	-1	n/a	n/a	0	0	0
581.5244140625	n/a	REC_WORD	1190962	wordpools/wasnorm_wordpool_576.txt	LTP379	ltpFR2	3	2	SOFTBALL	1343	n/a	n/a	0	0	0
583.21728515625	n/a	REC_WORD	1194429	wordpools/wasnorm_wordpool_576.txt	LTP379	ltpFR2	3	2	CATCHER	258	n/a	n/a	0	0	0
584.60107421875	n/a	REC_WORD	1197263	wordpools/wasnorm_wordpool_576.txt	LTP379	ltpFR2	3	2	EMPIRE	530	n/a	n/a	0	0	0
586.08642578125	n/a	REC_WORD	1200305	wordpools/wasnorm_wordpool_576.txt	LTP379	ltpFR2	3	2	YOLK	1633	n/a	n/a	0	0	0
587.6669921875	n/a	REC_WORD	1203542	wordpools/wasnorm_wordpool_576.txt	LTP379	ltpFR2	3	2	OINTMENT	974	n/a	n/a	0	0	0
589.8720703125	n/a	REC_WORD	1208058	wordpools/wasnorm_wordpool_576.txt	LTP379	ltpFR2	3	2	SKETCH	1315	n/a	n/a	0	0	0
592.10302734375	n/a	REC_WORD	1212627	wordpools/wasnorm_wordpool_576.txt	LTP379	ltpFR2	3	2	THRONE	1461	n/a	n/a	0	0	0
593.798828125	n/a	REC_WORD	1216100	wordpools/wasnorm_wordpool_576.txt	LTP379	ltpFR2	3	2	BADGE	68	n/a	n/a	0	0	0
595.27197265625	n/a	REC_WORD	1219117	wordpools/wasnorm_wordpool_576.txt	LTP379	ltpFR2	3	2	VALLEY	1545	n/a	n/a	0	0	0
602.53955078125	n/a	REC_WORD	1234001	wordpools/wasnorm_wordpool_576.txt	LTP379	ltpFR2	3	2	SCRIBBLE	1256	n/a	n/a	0	0	0
604.58251953125	n/a	REC_WORD	1238185	wordpools/wasnorm_wordpool_576.txt	LTP379	ltpFR2	3	2	VENUS	1557	n/a	n/a	0	0	0
606.80078125	n/a	REC_WORD	1242728	wordpools/wasnorm_wordpool_576.txt	LTP379	ltpFR2	3	2	JELLY	755	n/a	n/a	0	0	0
608.16650390625	n/a	REC_WORD	1245525	wordpools/wasnorm_wordpool_576.txt	LTP379	ltpFR2	3	2	MAPLE	866	n/a	n/a	0	0	0
613.5234375	n/a	REC_WORD	1256496	wordpools/wasnorm_wordpool_576.txt	LTP379	ltpFR2	3	2	SKILLET	1317	n/a	n/a	0	0	0
615.9970703125	n/a	REC_WORD	1261562	wordpools/wasnorm_wordpool_576.txt	LTP379	ltpFR2	3	2	DENIM	446	n/a	n/a	0	0	0
618.443359375	n/a	REC_WORD	1266572	wordpools/wasnorm_wordpool_576.txt	LTP379	ltpFR2	3	2	YACHT	1629	n/a	n/a	0	0	0
620.00634765625	n/a	REC_WORD	1269773	wordpools/wasnorm_wordpool_576.txt	LTP379	ltpFR2	3	2	NEUTRON	947	n/a	n/a	0	0	0
624.86181640625	n/a	REC_WORD	1279717	wordpools/wasnorm_wordpool_576.txt	LTP379	ltpFR2	3	2	FRIEND	606	n/a	n/a	0	0	0
626.494140625	n/a	REC_WORD	1283060	wordpools/wasnorm_wordpool_576.txt	LTP379	ltpFR2	3	2	STUDENT	1395	n/a	n/a	0	0	0
628.32275390625	n/a	REC_WORD	1286805	wordpools/wasnorm_wordpool_576.txt	LTP379	ltpFR2	3	2	COLLEGE	346	n/a	n/a	0	0	0
629.86572265625	n/a	REC_WORD	1289965	wordpools/wasnorm_wordpool_576.txt	LTP379	ltpFR2	3	2	BOUQUET	157	n/a	n/a	0	0	0
666.9775390625	n/a	DISTRACTOR	1365970	n/a	LTP379	ltpFR2	3	3	n/a	n/a	n/a	n/a	0	0	0
666.9775390625	n/a	START	1365970	n/a	LTP379	ltpFR2	3	n/a	n/a	n/a	3	n/a	n/a	n/a	n/a
666.99365234375	n/a	PROB	1366003	n/a	LTP379	ltpFR2	3	n/a	n/a	n/a	3	13	6	6	1
668.2275390625	n/a	PROB	1368530	n/a	LTP379	ltpFR2	3	n/a	n/a	n/a	3	11	8	1	2
669.49462890625	n/a	PROB	1371125	n/a	LTP379	ltpFR2	3	n/a	n/a	n/a	3	17	8	7	2
671.32763671875	n/a	PROB	1374879	n/a	LTP379	ltpFR2	3	n/a	n/a	n/a	3	11	1	8	2
672.64453125	n/a	PROB	1377576	n/a	LTP379	ltpFR2	3	n/a	n/a	n/a	3	11	4	3	4
674.91064453125	n/a	PROB	1382217	n/a	LTP379	ltpFR2	3	n/a	n/a	n/a	3	19	3	7	9
676.21044921875	n/a	PROB	1384879	n/a	LTP379	ltpFR2	3	n/a	n/a	n/a	3	13	7	4	2
677.8935546875	n/a	PROB	1388326	n/a	LTP379	ltpFR2	3	n/a	n/a	n/a	3	17	7	6	4
679.6943359375	n/a	PROB	1392014	n/a	LTP379	ltpFR2	3	n/a	n/a	n/a	3	8	1	2	5
680.92724609375	n/a	PROB	1394539	n/a	LTP379	ltpFR2	3	n/a	n/a	n/a	3	15	2	6	7
682.42724609375	n/a	PROB	1397611	n/a	LTP379	ltpFR2	3	n/a	n/a	n/a	3	15	3	6	6
684.04345703125	n/a	PROB	1400921	n/a	LTP379	ltpFR2	3	n/a	n/a	n/a	3	14	3	4	7
685.37744140625	n/a	PROB	1403653	n/a	LTP379	ltpFR2	3	n/a	n/a	n/a	3	7	2	3	2
686.91015625	n/a	PROB	1406792	n/a	LTP379	ltpFR2	3	n/a	n/a	n/a	3	10	6	3	1
688.1103515625	n/a	PROB	1409250	n/a	LTP379	ltpFR2	3	n/a	n/a	n/a	3	13	2	6	5
689.43408203125	n/a	STOP	1411961	n/a	LTP379	ltpFR2	3	n/a	n/a	n/a	3	n/a	n/a	n/a	n/a
691.9599609375	n/a	WORD	1417134	wordpools/wasnorm_wordpool_576.txt	LTP379	ltpFR2	3	3	BRAKE	166	n/a	n/a	0	0	0
694.72705078125	n/a	WORD	1422801	wordpools/wasnorm_wordpool_576.txt	LTP379	ltpFR2	3	3	TRENCH	1503	n/a	n/a	0	0	0
697.2099609375	n/a	WORD	1427886	wordpools/wasnorm_wordpool_576.txt	LTP379	ltpFR2	3	3	JURY	766	n/a	n/a	0	0	0
699.79296875	n/a	WORD	1433176	wordpools/wasnorm_wordpool_576.txt	LTP379	ltpFR2	3	3	LUGGAGE	847	n/a	n/a	0	0	0
702.59375	n/a	WORD	1438912	wordpools/wasnorm_wordpool_576.txt	LTP379	ltpFR2	3	3	SHARK	1275	n/a	n/a	0	0	0
705.0927734375	n/a	WORD	1444030	wordpools/wasnorm_wordpool_576.txt	LTP379	ltpFR2	3	3	LADY	794	n/a	n/a	0	0	0
707.71044921875	n/a	WORD	1449391	wordpools/wasnorm_wordpool_576.txt	LTP379	ltpFR2	3	3	WRENCH	1625	n/a	n/a	0	0	0
710.392578125	n/a	WORD	1454884	wordpools/wasnorm_wordpool_576.txt	LTP379	ltpFR2	3	3	FOREST	593	n/a	n/a	0	0	0
712.84228515625	n/a	WORD	1459901	wordpools/wasnorm_wordpool_576.txt	LTP379	ltpFR2	3	3	RACKET	1155	n/a	n/a	0	0	0
715.5263671875	n/a	WORD	1465398	wordpools/wasnorm_wordpool_576.txt	LTP379	ltpFR2	3	3	SCALPEL	1243	n/a	n/a	0	0	0
718.17529296875	n/a	WORD	1470823	wordpools/wasnorm_wordpool_576.txt	LTP379	ltpFR2	3	3	SWORD	1423	n/a	n/a	0	0	0
720.7919921875	n/a	WORD	1476182	wordpools/wasnorm_wordpool_576.txt	LTP379	ltpFR2	3	3	FLOWER	584	n/a	n/a	0	0	0
723.2919921875	n/a	WORD	1481302	wordpools/wasnorm_wordpool_576.txt	LTP379	ltpFR2	3	3	DIVER	476	n/a	n/a	0	0	0
725.89111328125	n/a	WORD	1486625	wordpools/wasnorm_wordpool_576.txt	LTP379	ltpFR2	3	3	MARSH	874	n/a	n/a	0	0	0
728.60888671875	n/a	WORD	1492191	wordpools/wasnorm_wordpool_576.txt	LTP379	ltpFR2	3	3	GUARD	667	n/a	n/a	0	0	0
731.341796875	n/a	WORD	1497788	wordpools/wasnorm_wordpool_576.txt	LTP379	ltpFR2	3	3	RIVER	1194	n/a	n/a	0	0	0
733.85791015625	n/a	WORD	1502941	wordpools/wasnorm_wordpool_576.txt	LTP379	ltpFR2	3	3	TWISTER	1530	n/a	n/a	0	0	0
736.57568359375	n/a	WORD	1508507	wordpools/wasnorm_wordpool_576.txt	LTP379	ltpFR2	3	3	JUGGLER	763	n/a	n/a	0	0	0
739.107421875	n/a	WORD	1513692	wordpools/wasnorm_wordpool_576.txt	LTP379	ltpFR2	3	3	FUNGUS	614	n/a	n/a	0	0	0
741.65869140625	n/a	WORD	1518917	wordpools/wasnorm_wordpool_576.txt	LTP379	ltpFR2	3	3	CRICKET	408	n/a	n/a	0	0	0
744.42431640625	n/a	WORD	1524581	wordpools/wasnorm_wordpool_576.txt	LTP379	ltpFR2	3	3	BUG	187	n/a	n/a	0	0	0
746.87451171875	n/a	WORD	1529599	wordpools/wasnorm_wordpool_576.txt	LTP379	ltpFR2	3	3	CLOUD	328	n/a	n/a	0	0	0
749.55810546875	n/a	WORD	1535095	wordpools/wasnorm_wordpool_576.txt	LTP379	ltpFR2	3	3	KITCHEN	778	n/a	n/a	0	0	0
752.30712890625	n/a	WORD	1540725	wordpools/wasnorm_wordpool_576.txt	LTP379	ltpFR2	3	3	SCALLOP	1242	n/a	n/a	0	0	0
753.92431640625	n/a	START	1544037	n/a	LTP379	ltpFR2	3	n/a	n/a	n/a	4	n/a	n/a	n/a	n/a
754.80517578125	n/a	DISTRACTOR	1545841	n/a	LTP379	ltpFR2	3	3	n/a	n/a	n/a	n/a	0	0	0
754.80712890625	n/a	PROB	1545845	n/a	LTP379	ltpFR2	3	n/a	n/a	n/a	4	16	3	8	5
756.95703125	n/a	PROB	1550248	n/a	LTP379	ltpFR2	3	n/a	n/a	n/a	4	13	3	5	5
758.27294921875	n/a	PROB	1552943	n/a	LTP379	ltpFR2	3	n/a	n/a	n/a	4	14	7	4	3
760.05712890625	n/a	PROB	1556597	n/a	LTP379	ltpFR2	3	n/a	n/a	n/a	4	8	1	1	6
761.2568359375	n/a	PROB	1559054	n/a	LTP379	ltpFR2	3	n/a	n/a	n/a	4	13	6	1	6
762.6240234375	n/a	PROB	1561854	n/a	LTP379	ltpFR2	3	n/a	n/a	n/a	4	18	9	4	5
764.22265625	n/a	PROB	1565128	n/a	LTP379	ltpFR2	3	n/a	n/a	n/a	4	21	5	7	9
765.9228515625	n/a	PROB	1568610	n/a	LTP379	ltpFR2	3	n/a	n/a	n/a	4	9	3	5	1
767.18994140625	n/a	PROB	1571205	n/a	LTP379	ltpFR2	3	n/a	n/a	n/a	4	19	8	5	6
768.98974609375	n/a	PROB	1574891	n/a	LTP379	ltpFR2	3	n/a	n/a	n/a	4	12	1	4	7
770.57373046875	n/a	PROB	1578135	n/a	LTP379	ltpFR2	3	n/a	n/a	n/a	4	11	7	2	2
772.32275390625	n/a	PROB	1581717	n/a	LTP379	ltpFR2	3	n/a	n/a	n/a	4	22	9	7	6
775.59033203125	n/a	PROB	1588409	n/a	LTP379	ltpFR2	3	n/a	n/a	n/a	4	18	7	2	9
776.96923828125	n/a	STOP	1591233	n/a	LTP379	ltpFR2	3	n/a	n/a	n/a	4	n/a	n/a	n/a	n/a
779.7724609375	n/a	REC_START	1596974	n/a	LTP379	ltpFR2	3	3	n/a	n/a	n/a	n/a	0	0	0
787.45703125	n/a	REC_WORD	1612712	wordpools/wasnorm_wordpool_576.txt	LTP379	ltpFR2	3	3	BRAKE	166	n/a	n/a	0	0	0
788.71484375	n/a	REC_WORD	1615288	wordpools/wasnorm_wordpool_576.txt	LTP379	ltpFR2	3	3	TRENCH	1503	n/a	n/a	0	0	0
791.85498046875	n/a	REC_WORD	1621719	wordpools/wasnorm_wordpool_576.txt	LTP379	ltpFR2	3	3	LUGGAGE	847	n/a	n/a	0	0	0
793.453125	n/a	REC_WORD	1624992	wordpools/wasnorm_wordpool_576.txt	LTP379	ltpFR2	3	3	JURY	766	n/a	n/a	0	0	0
795.01904296875	n/a	REC_WORD_VV	1628199	wordpools/wasnorm_wordpool_576.txt	LTP379	ltpFR2	3	3	<>	-1	n/a	n/a	0	0	0
795.78076171875	n/a	REC_WORD	1629759	wordpools/wasnorm_wordpool_576.txt	LTP379	ltpFR2	3	3	SHARK	1275	n/a	n/a	0	0	0
797.31201171875	n/a	REC_WORD	1632895	wordpools/wasnorm_wordpool_576.txt	LTP379	ltpFR2	3	3	LADY	794	n/a	n/a	0	0	0
799.11279296875	n/a	REC_WORD	1636583	wordpools/wasnorm_wordpool_576.txt	LTP379	ltpFR2	3	3	WRENCH	1625	n/a	n/a	0	0	0
800.640625	n/a	REC_WORD	1639712	wordpools/wasnorm_wordpool_576.txt	LTP379	ltpFR2	3	3	FOREST	593	n/a	n/a	0	0	0
804.49658203125	n/a	REC_WORD	1647609	wordpools/wasnorm_wordpool_576.txt	LTP379	ltpFR2	3	3	RACKET	1155	n/a	n/a	0	0	0
805.7607421875	n/a	REC_WORD	1650198	wordpools/wasnorm_wordpool_576.txt	LTP379	ltpFR2	3	3	SCALPEL	1243	n/a	n/a	0	0	0
807.3916015625	n/a	REC_WORD	1653538	wordpools/wasnorm_wordpool_576.txt	LTP379	ltpFR2	3	3	SWORD	1423	n/a	n/a	0	0	0
809.15966796875	n/a	REC_WORD	1657159	wordpools/wasnorm_wordpool_576.txt	LTP379	ltpFR2	3	3	FLOWER	584	n/a	n/a	0	0	0
812.91015625	n/a	REC_WORD	1664840	wordpools/wasnorm_wordpool_576.txt	LTP379	ltpFR2	3	3	DIVER	476	n/a	n/a	0	0	0
814.30126953125	n/a	REC_WORD	1667689	wordpools/wasnorm_wordpool_576.txt	LTP379	ltpFR2	3	3	MARSH	874	n/a	n/a	0	0	0
816.416015625	n/a	REC_WORD	1672020	wordpools/wasnorm_wordpool_576.txt	LTP379	ltpFR2	3	3	GUARD	667	n/a	n/a	0	0	0
817.6640625	n/a	REC_WORD	1674576	wordpools/wasnorm_wordpool_576.txt	LTP379	ltpFR2	3	3	RIVER	1194	n/a	n/a	0	0	0
819.365234375	n/a	REC_WORD	1678060	wordpools/wasnorm_wordpool_576.txt	LTP379	ltpFR2	3	3	TWISTER	1530	n/a	n/a	0	0	0
820.904296875	n/a	REC_WORD	1681212	wordpools/wasnorm_wordpool_576.txt	LTP379	ltpFR2	3	3	JUGGLER	763	n/a	n/a	0	0	0
822.6171875	n/a	REC_WORD	1684720	wordpools/wasnorm_wordpool_576.txt	LTP379	ltpFR2	3	3	FUNGUS	614	n/a	n/a	0	0	0
827.35302734375	n/a	REC_WORD	1694419	wordpools/wasnorm_wordpool_576.txt	LTP379	ltpFR2	3	3	CRICKET	408	n/a	n/a	0	0	0
828.94677734375	n/a	REC_WORD	1697683	wordpools/wasnorm_wordpool_576.txt	LTP379	ltpFR2	3	3	BUG	187	n/a	n/a	0	0	0
830.94384765625	n/a	REC_WORD	1701773	wordpools/wasnorm_wordpool_576.txt	LTP379	ltpFR2	3	3	CLOUD	328	n/a	n/a	0	0	0
833.20751953125	n/a	REC_WORD	1706409	wordpools/wasnorm_wordpool_576.txt	LTP379	ltpFR2	3	3	KITCHEN	778	n/a	n/a	0	0	0
834.82470703125	n/a	REC_WORD	1709721	wordpools/wasnorm_wordpool_576.txt	LTP379	ltpFR2	3	3	SCALLOP	1242	n/a	n/a	0	0	0
870.20166015625	n/a	DISTRACTOR	1782173	n/a	LTP379	ltpFR2	3	4	n/a	n/a	n/a	n/a	0	0	0
870.20166015625	n/a	START	1782173	n/a	LTP379	ltpFR2	3	n/a	n/a	n/a	5	n/a	n/a	n/a	n/a
870.2177734375	n/a	PROB	1782206	n/a	LTP379	ltpFR2	3	n/a	n/a	n/a	5	12	4	3	5
872.25146484375	n/a	PROB	1786371	n/a	LTP379	ltpFR2	3	n/a	n/a	n/a	5	27	9	9	9
874.1015625	n/a	PROB	1790160	n/a	LTP379	ltpFR2	3	n/a	n/a	n/a	5	13	3	3	7
875.55224609375	n/a	PROB	1793131	n/a	LTP379	ltpFR2	3	n/a	n/a	n/a	5	19	4	8	7
876.96728515625	n/a	PROB	1796029	n/a	LTP379	ltpFR2	3	n/a	n/a	n/a	5	10	3	5	2
878.3671875	n/a	PROB	1798896	n/a	LTP379	ltpFR2	3	n/a	n/a	n/a	5	19	7	7	5
879.65234375	n/a	PROB	1801528	n/a	LTP379	ltpFR2	3	n/a	n/a	n/a	5	18	4	9	5
881.68505859375	n/a	PROB	1805691	n/a	LTP379	ltpFR2	3	n/a	n/a	n/a	5	18	1	9	8
882.951171875	n/a	PROB	1808284	n/a	LTP379	ltpFR2	3	n/a	n/a	n/a	5	19	8	9	2
884.53515625	n/a	PROB	1811528	n/a	LTP379	ltpFR2	3	n/a	n/a	n/a	5	26	9	8	9
886.201171875	n/a	PROB	1814940	n/a	LTP379	ltpFR2	3	n/a	n/a	n/a	5	18	6	3	9
887.53515625	n/a	PROB	1817672	n/a	LTP379	ltpFR2	3	n/a	n/a	n/a	5	13	2	3	8
888.833984375	n/a	PROB	1820332	n/a	LTP379	ltpFR2	3	n/a	n/a	n/a	5	15	6	2	7
890.3671875	n/a	PROB	1823472	n/a	LTP379	ltpFR2	3	n/a	n/a	n/a	5	17	7	7	3
891.966796875	n/a	PROB	1826748	n/a	LTP379	ltpFR2	3	n/a	n/a	n/a	5	17	6	6	5
893.56298828125	n/a	STOP	1830017	n/a	LTP379	ltpFR2	3	n/a	n/a	n/a	5	n/a	n/a	n/a	n/a
895.14990234375	n/a	WORD	1833267	wordpools/wasnorm_wordpool_576.txt	LTP379	ltpFR2	3	4	TWEEZERS	1526	n/a	n/a	0	0	0
897.7666015625	n/a	WORD	1838626	wordpools/wasnorm_wordpool_576.txt	LTP379	ltpFR2	3	4	PAIL	1002	n/a	n/a	0	0	0
900.517578125	n/a	WORD	1844260	wordpools/wasnorm_wordpool_576.txt	LTP379	ltpFR2	3	4	SEAFOOD	1260	n/a	n/a	0	0	0
903.33349609375	n/a	WORD	1850027	wordpools/wasnorm_wordpool_576.txt	LTP379	ltpFR2	3	4	OYSTER	995	n/a	n/a	0	0	0
905.93359375	n/a	WORD	1855352	wordpools/wasnorm_wordpool_576.txt	LTP379	ltpFR2	3	4	DUSTPAN	509	n/a	n/a	0	0	0
908.484375	n/a	WORD	1860576	wordpools/wasnorm_wordpool_576.txt	LTP379	ltpFR2	3	4	BOYFRIEND	162	n/a	n/a	0	0	0
911.033203125	n/a	WORD	1865796	wordpools/wasnorm_wordpool_576.txt	LTP379	ltpFR2	3	4	LOVER	846	n/a	n/a	0	0	0
913.4833984375	n/a	WORD	1870814	wordpools/wasnorm_wordpool_576.txt	LTP379	ltpFR2	3	4	MEDAL	885	n/a	n/a	0	0	0
915.9990234375	n/a	WORD	1875966	wordpools/wasnorm_wordpool_576.txt	LTP379	ltpFR2	3	4	CLAM	315	n/a	n/a	0	0	0
918.4833984375	n/a	WORD	1881054	wordpools/wasnorm_wordpool_576.txt	LTP379	ltpFR2	3	4	COCOON	339	n/a	n/a	0	0	0
921.1162109375	n/a	WORD	1886446	wordpools/wasnorm_wordpool_576.txt	LTP379	ltpFR2	3	4	CRITIC	410	n/a	n/a	0	0	0
923.5498046875	n/a	WORD	1891430	wordpools/wasnorm_wordpool_576.txt	LTP379	ltpFR2	3	4	SEAGULL	1261	n/a	n/a	0	0	0
926.34912109375	n/a	WORD	1897163	wordpools/wasnorm_wordpool_576.txt	LTP379	ltpFR2	3	4	ROCKET	1202	n/a	n/a	0	0	0
928.86572265625	n/a	WORD	1902317	wordpools/wasnorm_wordpool_576.txt	LTP379	ltpFR2	3	4	HAWK	692	n/a	n/a	0	0	0
931.58251953125	n/a	WORD	1907881	wordpools/wasnorm_wordpool_576.txt	LTP379	ltpFR2	3	4	BEAVER	109	n/a	n/a	0	0	0
934.16455078125	n/a	WORD	1913169	wordpools/wasnorm_wordpool_576.txt	LTP379	ltpFR2	3	4	LIVER	833	n/a	n/a	0	0	0
936.83154296875	n/a	WORD	1918631	wordpools/wasnorm_wordpool_576.txt	LTP379	ltpFR2	3	4	GREASE	660	n/a	n/a	0	0	0
939.6494140625	n/a	WORD	1924402	wordpools/wasnorm_wordpool_576.txt	LTP379	ltpFR2	3	4	CATTLE	261	n/a	n/a	0	0	0
942.29833984375	n/a	WORD	1929827	wordpools/wasnorm_wordpool_576.txt	LTP379	ltpFR2	3	4	TRACTOR	1493	n/a	n/a	0	0	0
944.83154296875	n/a	WORD	1935015	wordpools/wasnorm_wordpool_576.txt	LTP379	ltpFR2	3	4	PADDLE	1000	n/a	n/a	0	0	0
947.58251953125	n/a	WORD	1940649	wordpools/wasnorm_wordpool_576.txt	LTP379	ltpFR2	3	4	KIDNEY	776	n/a	n/a	0	0	0
950.1484375	n/a	WORD	1945904	wordpools/wasnorm_wordpool_576.txt	LTP379	ltpFR2	3	4	GAZELLE	628	n/a	n/a	0	0	0
952.63232421875	n/a	WORD	1950991	wordpools/wasnorm_wordpool_576.txt	LTP379	ltpFR2	3	4	BURGLAR	200	n/a	n/a	0	0	0
955.34716796875	n/a	WORD	1956551	wordpools/wasnorm_wordpool_576.txt	LTP379	ltpFR2	3	4	BISON	131	n/a	n/a	0	0	0
956.9638671875	n/a	START	1959862	n/a	LTP379	ltpFR2	3	n/a	n/a	n/a	6	n/a	n/a	n/a	n/a
957.7998046875	n/a	DISTRACTOR	1961574	n/a	LTP379	ltpFR2	3	4	n/a	n/a	n/a	n/a	0	0	0
957.81396484375	n/a	PROB	1961603	n/a	LTP379	ltpFR2	3	n/a	n/a	n/a	6	11	7	3	1
959.498046875	n/a	PROB	1965052	n/a	LTP379	ltpFR2	3	n/a	n/a	n/a	6	10	5	1	4
961.64794921875	n/a	PROB	1969455	n/a	LTP379	ltpFR2	3	n/a	n/a	n/a	6	17	4	8	5
963.1806640625	n/a	PROB	1972594	n/a	LTP379	ltpFR2	3	n/a	n/a	n/a	6	10	4	1	5
964.94677734375	n/a	PROB	1976211	n/a	LTP379	ltpFR2	3	n/a	n/a	n/a	6	9	1	4	4
966.19677734375	n/a	PROB	1978771	n/a	LTP379	ltpFR2	3	n/a	n/a	n/a	6	15	5	9	1
967.69775390625	n/a	PROB	1981845	n/a	LTP379	ltpFR2	3	n/a	n/a	n/a	6	19	4	7	8
970.08056640625	n/a	PROB	1986725	n/a	LTP379	ltpFR2	3	n/a	n/a	n/a	6	15	7	5	3
971.86376953125	n/a	PROB	1990377	n/a	LTP379	ltpFR2	3	n/a	n/a	n/a	6	14	5	6	3
973.263671875	n/a	PROB	1993244	n/a	LTP379	ltpFR2	3	n/a	n/a	n/a	6	11	7	2	2
974.697265625	n/a	PROB	1996180	n/a	LTP379	ltpFR2	3	n/a	n/a	n/a	6	16	7	8	1
976.51416015625	n/a	PROB	1999901	n/a	LTP379	ltpFR2	3	n/a	n/a	n/a	6	9	5	3	1
977.74658203125	n/a	PROB	2002425	n/a	LTP379	ltpFR2	3	n/a	n/a	n/a	6	12	8	1	3
980.96240234375	n/a	STOP	2009011	n/a	LTP379	ltpFR2	3	n/a	n/a	n/a	6	n/a	n/a	n/a	n/a
982.9130859375	n/a	REC_START	2013006	n/a	LTP379	ltpFR2	3	4	n/a	n/a	n/a	n/a	0	0	0
984.83935546875	n/a	REC_WORD_VV	2016951	wordpools/wasnorm_wordpool_576.txt	LTP379	ltpFR2	3	4	<>	-1	n/a	n/a	0	0	0
990.634765625	n/a	REC_WORD	2028820	wordpools/wasnorm_wordpool_576.txt	LTP379	ltpFR2	3	4	TWEEZERS	1526	n/a	n/a	0	0	0
992.4130859375	n/a	REC_WORD	2032462	wordpools/wasnorm_wordpool_576.txt	LTP379	ltpFR2	3	4	PAIL	1002	n/a	n/a	0	0	0
994.7900390625	n/a	REC_WORD	2037330	wordpools/wasnorm_wordpool_576.txt	LTP379	ltpFR2	3	4	SEAFOOD	1260	n/a	n/a	0	0	0
996.6240234375	n/a	REC_WORD	2041086	wordpools/wasnorm_wordpool_576.txt	LTP379	ltpFR2	3	4	OYSTER	995	n/a	n/a	0	0	0
998.087890625	n/a	REC_WORD	2044084	wordpools/wasnorm_wordpool_576.txt	LTP379	ltpFR2	3	4	DUSTPAN	509	n/a	n/a	0	0	0
999.85791015625	n/a	REC_WORD	2047709	wordpools/wasnorm_wordpool_576.txt	LTP379	ltpFR2	3	4	BOYFRIEND	162	n/a	n/a	0	0	0
1001.2216796875	n/a	REC_WORD	2050502	wordpools/wasnorm_wordpool_576.txt	LTP379	ltpFR2	3	4	LOVER	846	n/a	n/a	0	0	0
1003.16259765625	n/a	REC_WORD	2054477	wordpools/wasnorm_wordpool_576.txt	LTP379	ltpFR2	3	4	MEDAL	885	n/a	n/a	0	0	0
1005.90234375	n/a	REC_WORD	2060088	wordpools/wasnorm_wordpool_576.txt	LTP379	ltpFR2	3	4	CLAM	315	n/a	n/a	0	0	0
1008.20166015625	n/a	REC_WORD	2064797	wordpools/wasnorm_wordpool_576.txt	LTP379	ltpFR2	3	4	COCOON	339	n/a	n/a	0	0	0
1009.66259765625	n/a	REC_WORD	2067789	wordpools/wasnorm_wordpool_576.txt	LTP379	ltpFR2	3	4	CRITIC	410	n/a	n/a	0	0	0
1011.46630859375	n/a	REC_WORD	2071483	wordpools/wasnorm_wordpool_576.txt	LTP379	ltpFR2	3	4	SEAGULL	1261	n/a	n/a	0	0	0
1013.05419921875	n/a	REC_WORD	2074735	wordpools/wasnorm_wordpool_576.txt	LTP379	ltpFR2	3	4	ROCKET	1202	n/a	n/a	0	0	0
1014.40625	n/a	REC_WORD	2077504	wordpools/wasnorm_wordpool_576.txt	LTP379	ltpFR2	3	4	HAWK	692	n/a	n/a	0	0	0
1016.234375	n/a	REC_WORD	2081248	wordpools/wasnorm_wordpool_576.txt	LTP379	ltpFR2	3	4	BEAVER	109	n/a	n/a	0	0	0
1017.701171875	n/a	REC_WORD	2084252	wordpools/wasnorm_wordpool_576.txt	LTP379	ltpFR2	3	4	LIVER	833	n/a	n/a	0	0	0
1019.46826171875	n/a	REC_WORD	2087871	wordpools/wasnorm_wordpool_576.txt	LTP379	ltpFR2	3	4	GREASE	660	n/a	n/a	0	0	0
1021.2958984375	n/a	REC_WORD	2091614	wordpools/wasnorm_wordpool_576.txt	LTP379	ltpFR2	3	4	CATTLE	261	n/a	n/a	0	0	0
1023.23095703125	n/a	REC_WORD	2095577	wordpools/wasnorm_wordpool_576.txt	LTP379	ltpFR2	3	4	TRACTOR	1493	n/a	n/a	0	0	0
1025.0087890625	n/a	REC_WORD	2099218	wordpools/wasnorm_wordpool_576.txt	LTP379	ltpFR2	3	4	PADDLE	1000	n/a	n/a	0	0	0
1026.8291015625	n/a	REC_WORD	2102946	wordpools/wasnorm_wordpool_576.txt	LTP379	ltpFR2	3	4	KIDNEY	776	n/a	n/a	0	0	0
1030.083984375	n/a	REC_WORD	2109612	wordpools/wasnorm_wordpool_576.txt	LTP379	ltpFR2	3	4	BURGLAR	200	n/a	n/a	0	0	0
1031.45458984375	n/a	REC_WORD	2112419	wordpools/wasnorm_wordpool_576.txt	LTP379	ltpFR2	3	4	GAZELLE	628	n/a	n/a	0	0	0
1033.03369140625	n/a	REC_WORD	2115653	wordpools/wasnorm_wordpool_576.txt	LTP379	ltpFR2	3	4	BISON	131	n/a	n/a	0	0	0
1073.37548828125	n/a	WORD	2198273	wordpools/wasnorm_wordpool_576.txt	LTP379	ltpFR2	3	5	DOLPHIN	483	n/a	n/a	0	0	0
1076.09130859375	n/a	WORD	2203835	wordpools/wasnorm_wordpool_576.txt	LTP379	ltpFR2	3	5	MAMMAL	861	n/a	n/a	0	0	0
1078.79150390625	n/a	WORD	2209365	wordpools/wasnorm_wordpool_576.txt	LTP379	ltpFR2	3	5	COOKBOOK	373	n/a	n/a	0	0	0
1081.62646484375	n/a	WORD	2215171	wordpools/wasnorm_wordpool_576.txt	LTP379	ltpFR2	3	5	BOX	159	n/a	n/a	0	0	0
1084.2080078125	n/a	WORD	2220458	wordpools/wasnorm_wordpool_576.txt	LTP379	ltpFR2	3	5	PACKAGE	997	n/a	n/a	0	0	0
1087.00830078125	n/a	WORD	2226193	wordpools/wasnorm_wordpool_576.txt	LTP379	ltpFR2	3	5	WIDOW	1608	n/a	n/a	0	0	0
1089.55908203125	n/a	WORD	2231417	wordpools/wasnorm_wordpool_576.txt	LTP379	ltpFR2	3	5	AWARD	63	n/a	n/a	0	0	0
1092.19091796875	n/a	WORD	2236807	wordpools/wasnorm_wordpool_576.txt	LTP379	ltpFR2	3	5	CROSS	413	n/a	n/a	0	0	0
1094.85791015625	n/a	WORD	2242269	wordpools/wasnorm_wordpool_576.txt	LTP379	ltpFR2	3	5	BUTCHER	203	n/a	n/a	0	0	0
1097.3408203125	n/a	WORD	2247354	wordpools/wasnorm_wordpool_576.txt	LTP379	ltpFR2	3	5	GIFT	635	n/a	n/a	0	0	0
1100.0234375	n/a	WORD	2252848	wordpools/wasnorm_wordpool_576.txt	LTP379	ltpFR2	3	5	DIME	466	n/a	n/a	0	0	0
1102.44140625	n/a	WORD	2257800	wordpools/wasnorm_wordpool_576.txt	LTP379	ltpFR2	3	5	SLUG	1329	n/a	n/a	0	0	0
1104.890625	n/a	WORD	2262816	wordpools/wasnorm_wordpool_576.txt	LTP379	ltpFR2	3	5	ROBBER	1197	n/a	n/a	0	0	0
1107.5244140625	n/a	WORD	2268210	wordpools/wasnorm_wordpool_576.txt	LTP379	ltpFR2	3	5	VICTIM	1562	n/a	n/a	0	0	0
1110.12353515625	n/a	WORD	2273533	wordpools/wasnorm_wordpool_576.txt	LTP379	ltpFR2	3	5	DRESS	495	n/a	n/a	0	0	0
1112.7734375	n/a	WORD	2278960	wordpools/wasnorm_wordpool_576.txt	LTP379	ltpFR2	3	5	QUARTER	1148	n/a	n/a	0	0	0
1115.4072265625	n/a	WORD	2284354	wordpools/wasnorm_wordpool_576.txt	LTP379	ltpFR2	3	5	BANK	83	n/a	n/a	0	0	0
1118.05615234375	n/a	WORD	2289779	wordpools/wasnorm_wordpool_576.txt	LTP379	ltpFR2	3	5	SANDWICH	1232	n/a	n/a	0	0	0
1120.47412109375	n/a	WORD	2294731	wordpools/wasnorm_wordpool_576.txt	LTP379	ltpFR2	3	5	NIGHTGOWN	953	n/a	n/a	0	0	0
1123.2900390625	n/a	WORD	2300498	wordpools/wasnorm_wordpool_576.txt	LTP379	ltpFR2	3	5	LODGE	839	n/a	n/a	0	0	0
1126.0400390625	n/a	WORD	2306130	wordpools/wasnorm_wordpool_576.txt	LTP379	ltpFR2	3	5	DORM	488	n/a	n/a	0	0	0
1128.7236328125	n/a	WORD	2311626	wordpools/wasnorm_wordpool_576.txt	LTP379	ltpFR2	3	5	PRINCE	1124	n/a	n/a	0	0	0
1131.4228515625	n/a	WORD	2317154	wordpools/wasnorm_wordpool_576.txt	LTP379	ltpFR2	3	5	SURVEY	1414	n/a	n/a	0	0	0
1133.939453125	n/a	WORD	2322308	wordpools/wasnorm_wordpool_576.txt	LTP379	ltpFR2	3	5	HAMPER	682	n/a	n/a	0	0	0
1135.556640625	n/a	START	2325620	n/a	LTP379	ltpFR2	3	n/a	n/a	n/a	7	n/a	n/a	n/a	n/a
1136.54833984375	n/a	DISTRACTOR	2327651	n/a	LTP379	ltpFR2	3	5	n/a	n/a	n/a	n/a	0	0	0
1136.556640625	n/a	PROB	2327668	n/a	LTP379	ltpFR2	3	n/a	n/a	n/a	7	15	3	5	7
1138.0556640625	n/a	PROB	2330738	n/a	LTP379	ltpFR2	3	n/a	n/a	n/a	7	14	5	1	8
1139.5732421875	n/a	PROB	2333846	n/a	LTP379	ltpFR2	3	n/a	n/a	n/a	7	22	8	6	8
1141.23828125	n/a	PROB	2337256	n/a	LTP379	ltpFR2	3	n/a	n/a	n/a	7	19	8	3	8
1143.10546875	n/a	PROB	2341080	n/a	LTP379	ltpFR2	3	n/a	n/a	n/a	7	14	9	4	1
1144.6064453125	n/a	PROB	2344154	n/a	LTP379	ltpFR2	3	n/a	n/a	n/a	7	17	2	7	8
1146.205078125	n/a	PROB	2347428	n/a	LTP379	ltpFR2	3	n/a	n/a	n/a	7	12	5	3	4
1147.9052734375	n/a	PROB	2350910	n/a	LTP379	ltpFR2	3	n/a	n/a	n/a	7	15	2	7	6
1149.18798828125	n/a	PROB	2353537	n/a	LTP379	ltpFR2	3	n/a	n/a	n/a	7	13	5	4	4
1150.98828125	n/a	PROB	2357224	n/a	LTP379	ltpFR2	3	n/a	n/a	n/a	7	20	7	6	7
1152.7060546875	n/a	PROB	2360742	n/a	LTP379	ltpFR2	3	n/a	n/a	n/a	7	14	3	7	4
1153.93798828125	n/a	PROB	2363265	n/a	LTP379	ltpFR2	3	n/a	n/a	n/a	7	16	7	2	7
1155.3720703125	n/a	PROB	2366202	n/a	LTP379	ltpFR2	3	n/a	n/a	n/a	7	15	4	9	2
1156.9208984375	n/a	PROB	2369374	n/a	LTP379	ltpFR2	3	n/a	n/a	n/a	7	13	3	7	3
1158.10595703125	n/a	STOP	2371801	n/a	LTP379	ltpFR2	3	n/a	n/a	n/a	7	n/a	n/a	n/a	n/a
1161.43994140625	n/a	REC_START	2378629	n/a	LTP379	ltpFR2	3	5	n/a	n/a	n/a	n/a	0	0	0
1163.3876953125	n/a	REC_WORD_VV	2382618	wordpools/wasnorm_wordpool_576.txt	LTP379	ltpFR2	3	5	<>	-1	n/a	n/a	0	0	0
1168.68359375	n/a	REC_WORD	2393464	wordpools/wasnorm_wordpool_576.txt	LTP379	ltpFR2	3	5	DOLPHIN	483	n/a	n/a	0	0	0
1170.146484375	n/a	REC_WORD	2396460	wordpools/wasnorm_wordpool_576.txt	LTP379	ltpFR2	3	5	MAMMAL	861	n/a	n/a	0	0	0
1172.4853515625	n/a	REC_WORD	2401250	wordpools/wasnorm_wordpool_576.txt	LTP379	ltpFR2	3	5	COOKBOOK	373	n/a	n/a	0	0	0
1174.07958984375	n/a	REC_WORD	2404515	wordpools/wasnorm_wordpool_576.txt	LTP379	ltpFR2	3	5	BOX	159	n/a	n/a	0	0	0
1175.7021484375	n/a	REC_WORD	2407838	wordpools/wasnorm_wordpool_576.txt	LTP379	ltpFR2	3	5	PACKAGE	997	n/a	n/a	0	0	0
1178.73828125	n/a	REC_WORD	2414056	wordpools/wasnorm_wordpool_576.txt	LTP379	ltpFR2	3	5	WIDOW	1608	n/a	n/a	0	0	0
1181.64208984375	n/a	REC_WORD	2420003	wordpools/wasnorm_wordpool_576.txt	LTP379	ltpFR2	3	5	AWARD	63	n/a	n/a	0	0	0
1183.1640625	n/a	REC_WORD	2423120	wordpools/wasnorm_wordpool_576.txt	LTP379	ltpFR2	3	5	CROSS	413	n/a	n/a	0	0	0
1185.8271484375	n/a	REC_WORD	2428574	wordpools/wasnorm_wordpool_576.txt	LTP379	ltpFR2	3	5	BUTCHER	203	n/a	n/a	0	0	0
1187.43212890625	n/a	REC_WORD	2431861	wordpools/wasnorm_wordpool_576.txt	LTP379	ltpFR2	3	5	GIFT	635	n/a	n/a	0	0	0
1190.8408203125	n/a	REC_WORD	2438842	wordpools/wasnorm_wordpool_576.txt	LTP379	ltpFR2	3	5	DIME	466	n/a	n/a	0	0	0
1193.24169921875	n/a	REC_WORD	2443759	wordpools/wasnorm_wordpool_576.txt	LTP379	ltpFR2	3	5	SLUG	1329	n/a	n/a	0	0	0
1197.642578125	n/a	REC_WORD	2452772	wordpools/wasnorm_wordpool_576.txt	LTP379	ltpFR2	3	5	ROBBER	1197	n/a	n/a	0	0	0
1199.2158203125	n/a	REC_WORD	2455994	wordpools/wasnorm_wordpool_576.txt	LTP379	ltpFR2	3	5	VICTIM	1562	n/a	n/a	0	0	0
1200.99267578125	n/a	REC_WORD	2459633	wordpools/wasnorm_wordpool_576.txt	LTP379	ltpFR2	3	5	DRESS	495	n/a	n/a	0	0	0
1204.45263671875	n/a	REC_WORD	2466719	wordpools/wasnorm_wordpool_576.txt	LTP379	ltpFR2	3	5	QUARTER	1148	n/a	n/a	0	0	0
1206.20849609375	n/a	REC_WORD	2470315	wordpools/wasnorm_wordpool_576.txt	LTP379	ltpFR2	3	5	BANK	83	n/a	n/a	0	0	0
1207.62255859375	n/a	REC_WORD	2473211	wordpools/wasnorm_wordpool_576.txt	LTP379	ltpFR2	3	5	SANDWICH	1232	n/a	n/a	0	0	0
1209.953125	n/a	REC_WORD	2477984	wordpools/wasnorm_wordpool_576.txt	LTP379	ltpFR2	3	5	NIGHTGOWN	953	n/a	n/a	0	0	0
1211.79638671875	n/a	REC_WORD	2481759	wordpools/wasnorm_wordpool_576.txt	LTP379	ltpFR2	3	5	LODGE	839	n/a	n/a	0	0	0
1213.64306640625	n/a	REC_WORD	2485541	wordpools/wasnorm_wordpool_576.txt	LTP379	ltpFR2	3	5	DORM	488	n/a	n/a	0	0	0
1215.04638671875	n/a	REC_WORD	2488415	wordpools/wasnorm_wordpool_576.txt	LTP379	ltpFR2	3	5	PRINCE	1124	n/a	n/a	0	0	0
1216.5751953125	n/a	REC_WORD	2491546	wordpools/wasnorm_wordpool_576.txt	LTP379	ltpFR2	3	5	SURVEY	1414	n/a	n/a	0	0	0
1217.94189453125	n/a	REC_WORD	2494345	wordpools/wasnorm_wordpool_576.txt	LTP379	ltpFR2	3	5	HAMPER	682	n/a	n/a	0	0	0
1251.89990234375	n/a	WORD	2563891	wordpools/wasnorm_wordpool_576.txt	LTP379	ltpFR2	3	6	PADDING	999	n/a	n/a	0	0	0
1254.451171875	n/a	WORD	2569116	wordpools/wasnorm_wordpool_576.txt	LTP379	ltpFR2	3	6	TURNIP	1521	n/a	n/a	0	0	0
1257.216796875	n/a	WORD	2574780	wordpools/wasnorm_wordpool_576.txt	LTP379	ltpFR2	3	6	HOOD	714	n/a	n/a	0	0	0
1259.73388671875	n/a	WORD	2579935	wordpools/wasnorm_wordpool_576.txt	LTP379	ltpFR2	3	6	FLASK	576	n/a	n/a	0	0	0
1262.1826171875	n/a	WORD	2584950	wordpools/wasnorm_wordpool_576.txt	LTP379	ltpFR2	3	6	GARDEN	623	n/a	n/a	0	0	0
1264.61767578125	n/a	WORD	2589937	wordpools/wasnorm_wordpool_576.txt	LTP379	ltpFR2	3	6	AUTHOR	61	n/a	n/a	0	0	0
1267.41650390625	n/a	WORD	2595669	wordpools/wasnorm_wordpool_576.txt	LTP379	ltpFR2	3	6	MAILMAN	858	n/a	n/a	0	0	0
1270.04931640625	n/a	WORD	2601061	wordpools/wasnorm_wordpool_576.txt	LTP379	ltpFR2	3	6	SLOPE	1328	n/a	n/a	0	0	0
1272.7333984375	n/a	WORD	2606558	wordpools/wasnorm_wordpool_576.txt	LTP379	ltpFR2	3	6	ROBIN	1199	n/a	n/a	0	0	0
1275.34912109375	n/a	WORD	2611915	wordpools/wasnorm_wordpool_576.txt	LTP379	ltpFR2	3	6	FLASHLIGHT	575	n/a	n/a	0	0	0
1278.115234375	n/a	WORD	2617580	wordpools/wasnorm_wordpool_576.txt	LTP379	ltpFR2	3	6	LAGOON	795	n/a	n/a	0	0	0
1280.7822265625	n/a	WORD	2623042	wordpools/wasnorm_wordpool_576.txt	LTP379	ltpFR2	3	6	ICEBERG	731	n/a	n/a	0	0	0
1283.39892578125	n/a	WORD	2628401	wordpools/wasnorm_wordpool_576.txt	LTP379	ltpFR2	3	6	FREEZER	604	n/a	n/a	0	0	0
1285.94921875	n/a	WORD	2633624	wordpools/wasnorm_wordpool_576.txt	LTP379	ltpFR2	3	6	CONVICT	371	n/a	n/a	0	0	0
1288.6328125	n/a	WORD	2639120	wordpools/wasnorm_wordpool_576.txt	LTP379	ltpFR2	3	6	BRANDY	169	n/a	n/a	0	0	0
1291.2490234375	n/a	WORD	2644478	wordpools/wasnorm_wordpool_576.txt	LTP379	ltpFR2	3	6	SNACK	1331	n/a	n/a	0	0	0
1293.8486328125	n/a	WORD	2649802	wordpools/wasnorm_wordpool_576.txt	LTP379	ltpFR2	3	6	FEMALE	559	n/a	n/a	0	0	0
1296.44873046875	n/a	WORD	2655127	wordpools/wasnorm_wordpool_576.txt	LTP379	ltpFR2	3	6	FIREPLACE	570	n/a	n/a	0	0	0
1298.931640625	n/a	WORD	2660212	wordpools/wasnorm_wordpool_576.txt	LTP379	ltpFR2	3	6	BRICK	172	n/a	n/a	0	0	0
1301.44873046875	n/a	WORD	2665367	wordpools/wasnorm_wordpool_576.txt	LTP379	ltpFR2	3	6	OZONE	996	n/a	n/a	0	0	0
1304.24755859375	n/a	WORD	2671099	wordpools/wasnorm_wordpool_576.txt	LTP379	ltpFR2	3	6	BALLOON	75	n/a	n/a	0	0	0
1306.732421875	n/a	WORD	2676188	wordpools/wasnorm_wordpool_576.txt	LTP379	ltpFR2	3	6	MOTEL	919	n/a	n/a	0	0	0
1309.51513671875	n/a	WORD	2681887	wordpools/wasnorm_wordpool_576.txt	LTP379	ltpFR2	3	6	KEEPER	769	n/a	n/a	0	0	0
1311.947265625	n/a	WORD	2686868	wordpools/wasnorm_wordpool_576.txt	LTP379	ltpFR2	3	6	STOMACH	1384	n/a	n/a	0	0	0
1313.54931640625	n/a	START	2690149	n/a	LTP379	ltpFR2	3	n/a	n/a	n/a	8	n/a	n/a	n/a	n/a
1314.7080078125	n/a	DISTRACTOR	2692522	n/a	LTP379	ltpFR2	3	6	n/a	n/a	n/a	n/a	0	0	0
1314.71533203125	n/a	PROB	2692537	n/a	LTP379	ltpFR2	3	n/a	n/a	n/a	8	21	5	9	7
1317.197265625	n/a	PROB	2697620	n/a	LTP379	ltpFR2	3	n/a	n/a	n/a	8	13	8	4	1
1318.48095703125	n/a	PROB	2700249	n/a	LTP379	ltpFR2	3	n/a	n/a	n/a	8	26	9	9	8
1320.31396484375	n/a	PROB	2704003	n/a	LTP379	ltpFR2	3	n/a	n/a	n/a	8	24	9	7	8
1322.53076171875	n/a	PROB	2708543	n/a	LTP379	ltpFR2	3	n/a	n/a	n/a	8	15	8	4	3
1323.9140625	n/a	PROB	2711376	n/a	LTP379	ltpFR2	3	n/a	n/a	n/a	8	21	5	8	8
1325.44775390625	n/a	PROB	2714517	n/a	LTP379	ltpFR2	3	n/a	n/a	n/a	8	14	2	8	4
1326.763671875	n/a	PROB	2717212	n/a	LTP379	ltpFR2	3	n/a	n/a	n/a	8	10	4	1	5
1328.48095703125	n/a	PROB	2720729	n/a	LTP379	ltpFR2	3	n/a	n/a	n/a	8	9	1	1	7
1329.6806640625	n/a	PROB	2723186	n/a	LTP379	ltpFR2	3	n/a	n/a	n/a	8	12	4	6	2
1330.82958984375	n/a	PROB	2725539	n/a	LTP379	ltpFR2	3	n/a	n/a	n/a	8	11	3	1	7
1332.046875	n/a	PROB	2728032	n/a	LTP379	ltpFR2	3	n/a	n/a	n/a	8	15	3	8	4
1333.564453125	n/a	PROB	2731140	n/a	LTP379	ltpFR2	3	n/a	n/a	n/a	8	9	3	3	3
1334.79638671875	n/a	PROB	2733663	n/a	LTP379	ltpFR2	3	n/a	n/a	n/a	8	16	9	2	5
1336.1376953125	n/a	STOP	2736410	n/a	LTP379	ltpFR2	3	n/a	n/a	n/a	8	n/a	n/a	n/a	n/a
1339.36328125	n/a	REC_START	2743016	n/a	LTP379	ltpFR2	3	6	n/a	n/a	n/a	n/a	0	0	0
1354.73876953125	n/a	REC_WORD	2774505	wordpools/wasnorm_wordpool_576.txt	LTP379	ltpFR2	3	6	PADDING	999	n/a	n/a	0	0	0
1356.32275390625	n/a	REC_WORD	2777749	wordpools/wasnorm_wordpool_576.txt	LTP379	ltpFR2	3	6	TURNIP	1521	n/a	n/a	0	0	0
1358.03466796875	n/a	REC_WORD	2781255	wordpools/wasnorm_wordpool_576.txt	LTP379	ltpFR2	3	6	HOOD	714	n/a	n/a	0	0	0
1361.07861328125	n/a	REC_WORD	2787489	wordpools/wasnorm_wordpool_576.txt	LTP379	ltpFR2	3	6	FLASK	576	n/a	n/a	0	0	0
1370.1416015625	n/a	REC_WORD	2806050	wordpools/wasnorm_wordpool_576.txt	LTP379	ltpFR2	3	6	AUTHOR	61	n/a	n/a	0	0	0
1372.2333984375	n/a	REC_WORD	2810334	wordpools/wasnorm_wordpool_576.txt	LTP379	ltpFR2	3	6	MAILMAN	858	n/a	n/a	0	0	0
1373.55517578125	n/a	REC_WORD	2813041	wordpools/wasnorm_wordpool_576.txt	LTP379	ltpFR2	3	6	SLOPE	1328	n/a	n/a	0	0	0
1375.369140625	n/a	REC_WORD	2816756	wordpools/wasnorm_wordpool_576.txt	LTP379	ltpFR2	3	6	ROBIN	1199	n/a	n/a	0	0	0
1377.6884765625	n/a	REC_WORD	2821506	wordpools/wasnorm_wordpool_576.txt	LTP379	ltpFR2	3	6	ROBIN	1199	n/a	n/a	0	0	0
1379.443359375	n/a	REC_WORD	2825100	wordpools/wasnorm_wordpool_576.txt	LTP379	ltpFR2	3	6	LAGOON	795	n/a	n/a	0	0	0
1381.21923828125	n/a	REC_WORD	2828737	wordpools/wasnorm_wordpool_576.txt	LTP379	ltpFR2	3	6	ICEBERG	731	n/a	n/a	0	0	0
1382.79833984375	n/a	REC_WORD	2831971	wordpools/wasnorm_wordpool_576.txt	LTP379	ltpFR2	3	6	FREEZER	604	n/a	n/a	0	0	0
1385.26513671875	n/a	REC_WORD	2837023	wordpools/wasnorm_wordpool_576.txt	LTP379	ltpFR2	3	6	CONVICT	371	n/a	n/a	0	0	0
1386.9658203125	n/a	REC_WORD_VV	2840506	wordpools/wasnorm_wordpool_576.txt	LTP379	ltpFR2	3	6	<>	-1	n/a	n/a	0	0	0
1388.716796875	n/a	REC_WORD	2844092	wordpools/wasnorm_wordpool_576.txt	LTP379	ltpFR2	3	6	BRANDY	169	n/a	n/a	0	0	0
1390.0	n/a	REC_WORD	2846720	wordpools/wasnorm_wordpool_576.txt	LTP379	ltpFR2	3	6	SNACK	1331	n/a	n/a	0	0	0
1393.548828125	n/a	REC_WORD	2853988	wordpools/wasnorm_wordpool_576.txt	LTP379	ltpFR2	3	6	FEMALE	559	n/a	n/a	0	0	0
1395.11767578125	n/a	REC_WORD	2857201	wordpools/wasnorm_wordpool_576.txt	LTP379	ltpFR2	3	6	FIREPLACE	570	n/a	n/a	0	0	0
1396.724609375	n/a	REC_WORD	2860492	wordpools/wasnorm_wordpool_576.txt	LTP379	ltpFR2	3	6	BRICK	172	n/a	n/a	0	0	0
1398.79443359375	n/a	REC_WORD	2864731	wordpools/wasnorm_wordpool_576.txt	LTP379	ltpFR2	3	6	OZONE	996	n/a	n/a	0	0	0
1400.62451171875	n/a	REC_WORD	2868479	wordpools/wasnorm_wordpool_576.txt	LTP379	ltpFR2	3	6	BALLOON	75	n/a	n/a	0	0	0
1429.82568359375	n/a	WORD	2928283	wordpools/wasnorm_wordpool_576.txt	LTP379	ltpFR2	3	7	SPOOL	1356	n/a	n/a	0	0	0
1432.4423828125	n/a	WORD	2933642	wordpools/wasnorm_wordpool_576.txt	LTP379	ltpFR2	3	7	SKIRT	1319	n/a	n/a	0	0	0
1435.025390625	n/a	WORD	2938932	wordpools/wasnorm_wordpool_576.txt	LTP379	ltpFR2	3	7	ITEM	746	n/a	n/a	0	0	0
1437.45947265625	n/a	WORD	2943917	wordpools/wasnorm_wordpool_576.txt	LTP379	ltpFR2	3	7	LIZARD	834	n/a	n/a	0	0	0
1440.17529296875	n/a	WORD	2949479	wordpools/wasnorm_wordpool_576.txt	LTP379	ltpFR2	3	7	CREATURE	403	n/a	n/a	0	0	0
1442.67529296875	n/a	WORD	2954599	wordpools/wasnorm_wordpool_576.txt	LTP379	ltpFR2	3	7	MOTOR	922	n/a	n/a	0	0	0
1445.4423828125	n/a	WORD	2960266	wordpools/wasnorm_wordpool_576.txt	LTP379	ltpFR2	3	7	BASEMENT	94	n/a	n/a	0	0	0
1448.19091796875	n/a	WORD	2965895	wordpools/wasnorm_wordpool_576.txt	LTP379	ltpFR2	3	7	DRAWING	494	n/a	n/a	0	0	0
1450.89111328125	n/a	WORD	2971425	wordpools/wasnorm_wordpool_576.txt	LTP379	ltpFR2	3	7	SCISSORS	1250	n/a	n/a	0	0	0
1453.6748046875	n/a	WORD	2977126	wordpools/wasnorm_wordpool_576.txt	LTP379	ltpFR2	3	7	SWITCH	1422	n/a	n/a	0	0	0
1456.15673828125	n/a	WORD	2982209	wordpools/wasnorm_wordpool_576.txt	LTP379	ltpFR2	3	7	BRACES	164	n/a	n/a	0	0	0
1458.9580078125	n/a	WORD	2987946	wordpools/wasnorm_wordpool_576.txt	LTP379	ltpFR2	3	7	DENTIST	447	n/a	n/a	0	0	0
1461.4248046875	n/a	WORD	2992998	wordpools/wasnorm_wordpool_576.txt	LTP379	ltpFR2	3	7	HORSE	719	n/a	n/a	0	0	0
1464.2236328125	n/a	WORD	2998730	wordpools/wasnorm_wordpool_576.txt	LTP379	ltpFR2	3	7	EUROPE	541	n/a	n/a	0	0	0
1466.90673828125	n/a	WORD	3004225	wordpools/wasnorm_wordpool_576.txt	LTP379	ltpFR2	3	7	WAITER	1580	n/a	n/a	0	0	0
1469.42431640625	n/a	WORD	3009381	wordpools/wasnorm_wordpool_576.txt	LTP379	ltpFR2	3	7	PATIENT	1024	n/a	n/a	0	0	0
1472.00634765625	n/a	WORD	3014669	wordpools/wasnorm_wordpool_576.txt	LTP379	ltpFR2	3	7	FLEET	578	n/a	n/a	0	0	0
1474.7734375	n/a	WORD	3020336	wordpools/wasnorm_wordpool_576.txt	LTP379	ltpFR2	3	7	CABIN	211	n/a	n/a	0	0	0
1477.40625	n/a	WORD	3025728	wordpools/wasnorm_wordpool_576.txt	LTP379	ltpFR2	3	7	SUITCASE	1403	n/a	n/a	0	0	0
1479.873046875	n/a	WORD	3030780	wordpools/wasnorm_wordpool_576.txt	LTP379	ltpFR2	3	7	TOURIST	1488	n/a	n/a	0	0	0
1482.45703125	n/a	WORD	3036072	wordpools/wasnorm_wordpool_576.txt	LTP379	ltpFR2	3	7	PLASTER	1085	n/a	n/a	0	0	0
1484.9228515625	n/a	WORD	3041122	wordpools/wasnorm_wordpool_576.txt	LTP379	ltpFR2	3	7	CURTAIN	427	n/a	n/a	0	0	0
1487.70703125	n/a	WORD	3046824	wordpools/wasnorm_wordpool_576.txt	LTP379	ltpFR2	3	7	HUMAN	726	n/a	n/a	0	0	0
1490.52392578125	n/a	WORD	3052593	wordpools/wasnorm_wordpool_576.txt	LTP379	ltpFR2	3	7	SADDLE	1221	n/a	n/a	0	0	0
1492.1396484375	n/a	START	3055902	n/a	LTP379	ltpFR2	3	n/a	n/a	n/a	9	n/a	n/a	n/a	n/a
1493.24560546875	n/a	DISTRACTOR	3058167	n/a	LTP379	ltpFR2	3	7	n/a	n/a	n/a	n/a	0	0	0
1493.255859375	n/a	PROB	3058188	n/a	LTP379	ltpFR2	3	n/a	n/a	n/a	9	24	9	7	8
1497.8388671875	n/a	PROB	3067574	n/a	LTP379	ltpFR2	3	n/a	n/a	n/a	9	17	5	8	4
1499.57373046875	n/a	PROB	3071127	n/a	LTP379	ltpFR2	3	n/a	n/a	n/a	9	6	1	4	1
1501.0712890625	n/a	PROB	3074194	n/a	LTP379	ltpFR2	3	n/a	n/a	n/a	9	20	7	7	6
1502.87158203125	n/a	PROB	3077881	n/a	LTP379	ltpFR2	3	n/a	n/a	n/a	9	11	3	6	2
1504.1884765625	n/a	PROB	3080578	n/a	LTP379	ltpFR2	3	n/a	n/a	n/a	9	13	6	6	1
1505.4052734375	n/a	PROB	3083070	n/a	LTP379	ltpFR2	3	n/a	n/a	n/a	9	18	6	7	5
1507.00537109375	n/a	PROB	3086347	n/a	LTP379	ltpFR2	3	n/a	n/a	n/a	9	18	1	9	8
1508.30517578125	n/a	PROB	3089009	n/a	LTP379	ltpFR2	3	n/a	n/a	n/a	9	13	7	1	5
1509.98828125	n/a	PROB	3092456	n/a	LTP379	ltpFR2	3	n/a	n/a	n/a	9	19	8	5	6
1512.05517578125	n/a	PROB	3096689	n/a	LTP379	ltpFR2	3	n/a	n/a	n/a	9	11	1	8	2
1513.205078125	n/a	PROB	3099044	n/a	LTP379	ltpFR2	3	n/a	n/a	n/a	9	14	7	1	6
1514.72216796875	n/a	STOP	3102151	n/a	LTP379	ltpFR2	3	n/a	n/a	n/a	9	n/a	n/a	n/a	n/a
1518.0048828125	n/a	REC_START	3108874	n/a	LTP379	ltpFR2	3	7	n/a	n/a	n/a	n/a	0	0	0
1519.12109375	n/a	REC_WORD_VV	3111160	wordpools/wasnorm_wordpool_576.txt	LTP379	ltpFR2	3	7	<>	-1	n/a	n/a	0	0	0
1521.833984375	n/a	REC_WORD	3116716	wordpools/wasnorm_wordpool_576.txt	LTP379	ltpFR2	3	7	SPOOL	1356	n/a	n/a	0	0	0
1523.26708984375	n/a	REC_WORD	3119651	wordpools/wasnorm_wordpool_576.txt	LTP379	ltpFR2	3	7	SKIRT	1319	n/a	n/a	0	0	0
1525.2138671875	n/a	REC_WORD	3123638	wordpools/wasnorm_wordpool_576.txt	LTP379	ltpFR2	3	7	ITEM	746	n/a	n/a	0	0	0
1526.77685546875	n/a	REC_WORD	3126839	wordpools/wasnorm_wordpool_576.txt	LTP379	ltpFR2	3	7	LIZARD	834	n/a	n/a	0	0	0
1528.40673828125	n/a	REC_WORD	3130177	wordpools/wasnorm_wordpool_576.txt	LTP379	ltpFR2	3	7	CREATURE	403	n/a	n/a	0	0	0
1529.85986328125	n/a	REC_WORD	3133153	wordpools/wasnorm_wordpool_576.txt	LTP379	ltpFR2	3	7	MOTOR	922	n/a	n/a	0	0	0
1531.45166015625	n/a	REC_WORD	3136413	wordpools/wasnorm_wordpool_576.txt	LTP379	ltpFR2	3	7	BASEMENT	94	n/a	n/a	0	0	0
1533.060546875	n/a	REC_WORD	3139708	wordpools/wasnorm_wordpool_576.txt	LTP379	ltpFR2	3	7	DRAWING	494	n/a	n/a	0	0	0
1534.53955078125	n/a	REC_WORD_VV	3142737	wordpools/wasnorm_wordpool_576.txt	LTP379	ltpFR2	3	7	<>	-1	n/a	n/a	0	0	0
1535.427734375	n/a	REC_WORD	3144556	wordpools/wasnorm_wordpool_576.txt	LTP379	ltpFR2	3	7	SCISSORS	1250	n/a	n/a	0	0	0
1536.8916015625	n/a	REC_WORD	3147554	wordpools/wasnorm_wordpool_576.txt	LTP379	ltpFR2	3	7	SWITCH	1422	n/a	n/a	0	0	0
1538.685546875	n/a	REC_WORD	3151228	wordpools/wasnorm_wordpool_576.txt	LTP379	ltpFR2	3	7	BRACES	164	n/a	n/a	0	0	0
1540.1962890625	n/a	REC_WORD	3154322	wordpools/wasnorm_wordpool_576.txt	LTP379	ltpFR2	3	7	DENTIST	447	n/a	n/a	0	0	0
1541.49609375	n/a	REC_WORD	3156984	wordpools/wasnorm_wordpool_576.txt	LTP379	ltpFR2	3	7	HORSE	719	n/a	n/a	0	0	0
1544.42919921875	n/a	REC_WORD	3162991	wordpools/wasnorm_wordpool_576.txt	LTP379	ltpFR2	3	7	EUROPE	541	n/a	n/a	0	0	0
1546.00830078125	n/a	REC_WORD	3166225	wordpools/wasnorm_wordpool_576.txt	LTP379	ltpFR2	3	7	PATIENT	1024	n/a	n/a	0	0	0
1547.7841796875	n/a	REC_WORD	3169862	wordpools/wasnorm_wordpool_576.txt	LTP379	ltpFR2	3	7	FLEET	578	n/a	n/a	0	0	0
1549.5361328125	n/a	REC_WORD	3173450	wordpools/wasnorm_wordpool_576.txt	LTP379	ltpFR2	3	7	CABIN	211	n/a	n/a	0	0	0
1552.47314453125	n/a	REC_WORD	3179465	wordpools/wasnorm_wordpool_576.txt	LTP379	ltpFR2	3	7	SUITCASE	1403	n/a	n/a	0	0	0
1554.19873046875	n/a	REC_WORD	3182999	wordpools/wasnorm_wordpool_576.txt	LTP379	ltpFR2	3	7	TOURIST	1488	n/a	n/a	0	0	0
1557.11572265625	n/a	REC_WORD	3188973	wordpools/wasnorm_wordpool_576.txt	LTP379	ltpFR2	3	7	PLASTER	1085	n/a	n/a	0	0	0
1558.916015625	n/a	REC_WORD	3192660	wordpools/wasnorm_wordpool_576.txt	LTP379	ltpFR2	3	7	CURTAIN	427	n/a	n/a	0	0	0
1560.6357421875	n/a	REC_WORD	3196182	wordpools/wasnorm_wordpool_576.txt	LTP379	ltpFR2	3	7	HUMAN	726	n/a	n/a	0	0	0
1562.3798828125	n/a	REC_WORD	3199754	wordpools/wasnorm_wordpool_576.txt	LTP379	ltpFR2	3	7	SADDLE	1221	n/a	n/a	0	0	0
1608.43408203125	n/a	DISTRACTOR	3294073	n/a	LTP379	ltpFR2	3	8	n/a	n/a	n/a	n/a	0	0	0
1608.43505859375	n/a	START	3294075	n/a	LTP379	ltpFR2	3	n/a	n/a	n/a	10	n/a	n/a	n/a	n/a
1608.451171875	n/a	PROB	3294108	n/a	LTP379	ltpFR2	3	n/a	n/a	n/a	10	12	4	1	7
1610.43408203125	n/a	PROB	3298169	n/a	LTP379	ltpFR2	3	n/a	n/a	n/a	10	27	9	9	9
1611.900390625	n/a	PROB	3301172	n/a	LTP379	ltpFR2	3	n/a	n/a	n/a	10	12	5	3	4
1613.23291015625	n/a	PROB	3303901	n/a	LTP379	ltpFR2	3	n/a	n/a	n/a	10	7	3	3	1
1614.43408203125	n/a	PROB	3306361	n/a	LTP379	ltpFR2	3	n/a	n/a	n/a	10	18	1	8	9
1615.75	n/a	PROB	3309056	n/a	LTP379	ltpFR2	3	n/a	n/a	n/a	10	18	9	7	2
1617.5341796875	n/a	PROB	3312710	n/a	LTP379	ltpFR2	3	n/a	n/a	n/a	10	19	3	7	9
1618.8828125	n/a	PROB	3315472	n/a	LTP379	ltpFR2	3	n/a	n/a	n/a	10	17	9	7	1
1620.60107421875	n/a	PROB	3318991	n/a	LTP379	ltpFR2	3	n/a	n/a	n/a	10	18	8	1	9
1622.1328125	n/a	PROB	3322128	n/a	LTP379	ltpFR2	3	n/a	n/a	n/a	10	15	4	2	9
1623.61767578125	n/a	PROB	3325169	n/a	LTP379	ltpFR2	3	n/a	n/a	n/a	10	19	4	8	7
1625.31591796875	n/a	PROB	3328647	n/a	LTP379	ltpFR2	3	n/a	n/a	n/a	10	18	6	6	6
1626.48388671875	n/a	PROB	3331039	n/a	LTP379	ltpFR2	3	n/a	n/a	n/a	10	17	9	5	3
1628.2666015625	n/a	PROB	3334690	n/a	LTP379	ltpFR2	3	n/a	n/a	n/a	10	15	3	9	3
1629.9658203125	n/a	PROB	3338170	n/a	LTP379	ltpFR2	3	n/a	n/a	n/a	10	20	9	2	9
1631.5625	n/a	STOP	3341440	n/a	LTP379	ltpFR2	3	n/a	n/a	n/a	10	n/a	n/a	n/a	n/a
1633.3994140625	n/a	WORD	3345202	wordpools/wasnorm_wordpool_576.txt	LTP379	ltpFR2	3	8	HELMET	702	n/a	n/a	0	0	0
1635.8994140625	n/a	WORD	3350322	wordpools/wasnorm_wordpool_576.txt	LTP379	ltpFR2	3	8	PLAID	1080	n/a	n/a	0	0	0
1638.49951171875	n/a	WORD	3355647	wordpools/wasnorm_wordpool_576.txt	LTP379	ltpFR2	3	8	PIGMENT	1066	n/a	n/a	0	0	0
1641.2822265625	n/a	WORD	3361346	wordpools/wasnorm_wordpool_576.txt	LTP379	ltpFR2	3	8	ROBOT	1200	n/a	n/a	0	0	0
1644.01513671875	n/a	WORD	3366943	wordpools/wasnorm_wordpool_576.txt	LTP379	ltpFR2	3	8	RABBIT	1152	n/a	n/a	0	0	0
1646.71630859375	n/a	WORD	3372475	wordpools/wasnorm_wordpool_576.txt	LTP379	ltpFR2	3	8	QUEEN	1149	n/a	n/a	0	0	0
1649.48291015625	n/a	WORD	3378141	wordpools/wasnorm_wordpool_576.txt	LTP379	ltpFR2	3	8	BEEF	113	n/a	n/a	0	0	0
1652.08203125	n/a	WORD	3383464	wordpools/wasnorm_wordpool_576.txt	LTP379	ltpFR2	3	8	STAR	1373	n/a	n/a	0	0	0
1654.83203125	n/a	WORD	3389096	wordpools/wasnorm_wordpool_576.txt	LTP379	ltpFR2	3	8	PLIERS	1089	n/a	n/a	0	0	0
1657.53271484375	n/a	WORD	3394627	wordpools/wasnorm_wordpool_576.txt	LTP379	ltpFR2	3	8	HATCHET	691	n/a	n/a	0	0	0
1660.21484375	n/a	WORD	3400120	wordpools/wasnorm_wordpool_576.txt	LTP379	ltpFR2	3	8	THREAD	1460	n/a	n/a	0	0	0
1662.6484375	n/a	WORD	3405104	wordpools/wasnorm_wordpool_576.txt	LTP379	ltpFR2	3	8	YARN	1631	n/a	n/a	0	0	0
1665.08154296875	n/a	WORD	3410087	wordpools/wasnorm_wordpool_576.txt	LTP379	ltpFR2	3	8	LABEL	790	n/a	n/a	0	0	0
1667.8642578125	n/a	WORD	3415786	wordpools/wasnorm_wordpool_576.txt	LTP379	ltpFR2	3	8	PEDAL	1037	n/a	n/a	0	0	0
1670.33056640625	n/a	WORD	3420837	wordpools/wasnorm_wordpool_576.txt	LTP379	ltpFR2	3	8	PENGUIN	1044	n/a	n/a	0	0	0
1672.8642578125	n/a	WORD	3426026	wordpools/wasnorm_wordpool_576.txt	LTP379	ltpFR2	3	8	CAFE	216	n/a	n/a	0	0	0
1675.4150390625	n/a	WORD	3431250	wordpools/wasnorm_wordpool_576.txt	LTP379	ltpFR2	3	8	HONEY	713	n/a	n/a	0	0	0
1678.04736328125	n/a	WORD	3436641	wordpools/wasnorm_wordpool_576.txt	LTP379	ltpFR2	3	8	PUPPY	1144	n/a	n/a	0	0	0
1680.71533203125	n/a	WORD	3442105	wordpools/wasnorm_wordpool_576.txt	LTP379	ltpFR2	3	8	COWBOY	395	n/a	n/a	0	0	0
1683.212890625	n/a	WORD	3447220	wordpools/wasnorm_wordpool_576.txt	LTP379	ltpFR2	3	8	POLICE	1098	n/a	n/a	0	0	0
1685.9140625	n/a	WORD	3452752	wordpools/wasnorm_wordpool_576.txt	LTP379	ltpFR2	3	8	PASTRY	1022	n/a	n/a	0	0	0
1688.69775390625	n/a	WORD	3458453	wordpools/wasnorm_wordpool_576.txt	LTP379	ltpFR2	3	8	PRINCESS	1125	n/a	n/a	0	0	0
1691.22998046875	n/a	WORD	3463639	wordpools/wasnorm_wordpool_576.txt	LTP379	ltpFR2	3	8	WAGON	1578	n/a	n/a	0	0	0
1693.77978515625	n/a	WORD	3468861	wordpools/wasnorm_wordpool_576.txt	LTP379	ltpFR2	3	8	BARREL	91	n/a	n/a	0	0	0
1695.396484375	n/a	START	3472172	n/a	LTP379	ltpFR2	3	n/a	n/a	n/a	11	n/a	n/a	n/a	n/a
1696.4296875	n/a	DISTRACTOR	3474288	n/a	LTP379	ltpFR2	3	8	n/a	n/a	n/a	n/a	0	0	0
1696.44775390625	n/a	PROB	3474325	n/a	LTP379	ltpFR2	3	n/a	n/a	n/a	11	15	8	6	1
1699.279296875	n/a	PROB	3480124	n/a	LTP379	ltpFR2	3	n/a	n/a	n/a	11	21	9	6	6
1701.0126953125	n/a	PROB	3483674	n/a	LTP379	ltpFR2	3	n/a	n/a	n/a	11	10	2	3	5
1702.34521484375	n/a	PROB	3486403	n/a	LTP379	ltpFR2	3	n/a	n/a	n/a	11	18	6	3	9
1703.74658203125	n/a	PROB	3489273	n/a	LTP379	ltpFR2	3	n/a	n/a	n/a	11	20	4	9	7
1705.49658203125	n/a	PROB	3492857	n/a	LTP379	ltpFR2	3	n/a	n/a	n/a	11	14	9	2	3
1706.92919921875	n/a	PROB	3495791	n/a	LTP379	ltpFR2	3	n/a	n/a	n/a	11	14	6	1	7
1708.7451171875	n/a	PROB	3499510	n/a	LTP379	ltpFR2	3	n/a	n/a	n/a	11	23	7	8	8
1712.01220703125	n/a	PROB	3506201	n/a	LTP379	ltpFR2	3	n/a	n/a	n/a	11	21	8	8	5
1713.4130859375	n/a	PROB	3509070	n/a	LTP379	ltpFR2	3	n/a	n/a	n/a	11	22	9	7	6
1715.69580078125	n/a	PROB	3513745	n/a	LTP379	ltpFR2	3	n/a	n/a	n/a	11	21	8	5	8
1717.34521484375	n/a	PROB	3517123	n/a	LTP379	ltpFR2	3	n/a	n/a	n/a	11	16	9	6	1
1718.60986328125	n/a	STOP	3519713	n/a	LTP379	ltpFR2	3	n/a	n/a	n/a	11	n/a	n/a	n/a	n/a
1721.27880859375	n/a	REC_START	3525179	n/a	LTP379	ltpFR2	3	8	n/a	n/a	n/a	n/a	0	0	0
1723.0888671875	n/a	REC_WORD_VV	3528886	wordpools/wasnorm_wordpool_576.txt	LTP379	ltpFR2	3	8	<>	-1	n/a	n/a	0	0	0
1738.7021484375	n/a	REC_WORD	3560862	wordpools/wasnorm_wordpool_576.txt	LTP379	ltpFR2	3	8	HELMET	702	n/a	n/a	0	0	0
1740.29833984375	n/a	REC_WORD	3564131	wordpools/wasnorm_wordpool_576.txt	LTP379	ltpFR2	3	8	PLAID	1080	n/a	n/a	0	0	0
1741.81005859375	n/a	REC_WORD	3567227	wordpools/wasnorm_wordpool_576.txt	LTP379	ltpFR2	3	8	PIGMENT	1066	n/a	n/a	0	0	0
1743.26025390625	n/a	REC_WORD	3570197	wordpools/wasnorm_wordpool_576.txt	LTP379	ltpFR2	3	8	ROBOT	1200	n/a	n/a	0	0	0
1744.76513671875	n/a	REC_WORD	3573279	wordpools/wasnorm_wordpool_576.txt	LTP379	ltpFR2	3	8	RABBIT	1152	n/a	n/a	0	0	0
1746.3623046875	n/a	REC_WORD	3576550	wordpools/wasnorm_wordpool_576.txt	LTP379	ltpFR2	3	8	QUEEN	1149	n/a	n/a	0	0	0
1748.06298828125	n/a	REC_WORD	3580033	wordpools/wasnorm_wordpool_576.txt	LTP379	ltpFR2	3	8	BEEF	113	n/a	n/a	0	0	0
1749.85009765625	n/a	REC_WORD	3583693	wordpools/wasnorm_wordpool_576.txt	LTP379	ltpFR2	3	8	STAR	1373	n/a	n/a	0	0	0
1751.716796875	n/a	REC_WORD	3587516	wordpools/wasnorm_wordpool_576.txt	LTP379	ltpFR2	3	8	PLIERS	1089	n/a	n/a	0	0	0
1753.2607421875	n/a	REC_WORD	3590678	wordpools/wasnorm_wordpool_576.txt	LTP379	ltpFR2	3	8	THREAD	1460	n/a	n/a	0	0	0
1755.1376953125	n/a	REC_WORD	3594522	wordpools/wasnorm_wordpool_576.txt	LTP379	ltpFR2	3	8	YARN	1631	n/a	n/a	0	0	0
1756.78564453125	n/a	REC_WORD	3597897	wordpools/wasnorm_wordpool_576.txt	LTP379	ltpFR2	3	8	HATCHET	691	n/a	n/a	0	0	0
1758.923828125	n/a	REC_WORD	3602276	wordpools/wasnorm_wordpool_576.txt	LTP379	ltpFR2	3	8	LABEL	790	n/a	n/a	0	0	0
1760.60888671875	n/a	REC_WORD	3605727	wordpools/wasnorm_wordpool_576.txt	LTP379	ltpFR2	3	8	PEDAL	1037	n/a	n/a	0	0	0
1762.36083984375	n/a	REC_WORD	3609315	wordpools/wasnorm_wordpool_576.txt	LTP379	ltpFR2	3	8	PENGUIN	1044	n/a	n/a	0	0	0
1767.1982421875	n/a	REC_WORD	3619222	wordpools/wasnorm_wordpool_576.txt	LTP379	ltpFR2	3	8	CAFE	216	n/a	n/a	0	0	0
1769.3251953125	n/a	REC_WORD	3623578	wordpools/wasnorm_wordpool_576.txt	LTP379	ltpFR2	3	8	HONEY	713	n/a	n/a	0	0	0
1770.8095703125	n/a	REC_WORD	3626618	wordpools/wasnorm_wordpool_576.txt	LTP379	ltpFR2	3	8	PUPPY	1144	n/a	n/a	0	0	0
1772.154296875	n/a	REC_WORD	3629372	wordpools/wasnorm_wordpool_576.txt	LTP379	ltpFR2	3	8	COWBOY	395	n/a	n/a	0	0	0
1773.771484375	n/a	REC_WORD	3632684	wordpools/wasnorm_wordpool_576.txt	LTP379	ltpFR2	3	8	POLICE	1098	n/a	n/a	0	0	0
1775.43408203125	n/a	REC_WORD	3636089	wordpools/wasnorm_wordpool_576.txt	LTP379	ltpFR2	3	8	PASTRY	1022	n/a	n/a	0	0	0
1777.3779296875	n/a	REC_WORD	3640070	wordpools/wasnorm_wordpool_576.txt	LTP379	ltpFR2	3	8	PRINCESS	1125	n/a	n/a	0	0	0
1780.04296875	n/a	REC_WORD	3645528	wordpools/wasnorm_wordpool_576.txt	LTP379	ltpFR2	3	8	WAGON	1578	n/a	n/a	0	0	0
1781.48193359375	n/a	REC_WORD	3648475	wordpools/wasnorm_wordpool_576.txt	LTP379	ltpFR2	3	8	BARREL	91	n/a	n/a	0	0	0
1797.82470703125	n/a	REST_REWET	3681945	n/a	LTP379	ltpFR2	3	8	n/a	n/a	n/a	n/a	0	0	0
1934.03564453125	n/a	DISTRACTOR	3960905	n/a	LTP379	ltpFR2	3	9	n/a	n/a	n/a	n/a	0	0	0
1934.03564453125	n/a	START	3960905	n/a	LTP379	ltpFR2	3	n/a	n/a	n/a	12	n/a	n/a	n/a	n/a
1934.05126953125	n/a	PROB	3960937	n/a	LTP379	ltpFR2	3	n/a	n/a	n/a	12	10	4	1	5
1936.4365234375	n/a	PROB	3965822	n/a	LTP379	ltpFR2	3	n/a	n/a	n/a	12	23	8	8	7
1939.05126953125	n/a	PROB	3971177	n/a	LTP379	ltpFR2	3	n/a	n/a	n/a	12	27	9	9	9
1940.50244140625	n/a	PROB	3974149	n/a	LTP379	ltpFR2	3	n/a	n/a	n/a	12	21	8	6	7
1943.13525390625	n/a	PROB	3979541	n/a	LTP379	ltpFR2	3	n/a	n/a	n/a	12	11	4	1	6
1944.55224609375	n/a	PROB	3982443	n/a	LTP379	ltpFR2	3	n/a	n/a	n/a	12	11	6	4	1
1945.88525390625	n/a	PROB	3985173	n/a	LTP379	ltpFR2	3	n/a	n/a	n/a	12	14	9	4	1
1947.43505859375	n/a	PROB	3988347	n/a	LTP379	ltpFR2	3	n/a	n/a	n/a	12	7	4	1	2
1949.43505859375	n/a	PROB	3992443	n/a	LTP379	ltpFR2	3	n/a	n/a	n/a	12	9	2	4	3
1950.8349609375	n/a	PROB	3995310	n/a	LTP379	ltpFR2	3	n/a	n/a	n/a	12	18	3	7	8
1952.16796875	n/a	PROB	3998040	n/a	LTP379	ltpFR2	3	n/a	n/a	n/a	12	8	1	6	1
1953.26806640625	n/a	PROB	4000293	n/a	LTP379	ltpFR2	3	n/a	n/a	n/a	12	18	4	8	6
1954.81787109375	n/a	PROB	4003467	n/a	LTP379	ltpFR2	3	n/a	n/a	n/a	12	17	8	2	7
1957.4189453125	n/a	STOP	4008794	n/a	LTP379	ltpFR2	3	n/a	n/a	n/a	12	n/a	n/a	n/a	n/a
1959.1005859375	n/a	WORD	4012238	wordpools/wasnorm_wordpool_576.txt	LTP379	ltpFR2	3	9	JEANS	752	n/a	n/a	0	0	0
1961.53466796875	n/a	WORD	4017223	wordpools/wasnorm_wordpool_576.txt	LTP379	ltpFR2	3	9	LILY	821	n/a	n/a	0	0	0
1964.0673828125	n/a	WORD	4022410	wordpools/wasnorm_wordpool_576.txt	LTP379	ltpFR2	3	9	BINDER	127	n/a	n/a	0	0	0
1966.61767578125	n/a	WORD	4027633	wordpools/wasnorm_wordpool_576.txt	LTP379	ltpFR2	3	9	PREACHER	1119	n/a	n/a	0	0	0
1969.38330078125	n/a	WORD	4033297	wordpools/wasnorm_wordpool_576.txt	LTP379	ltpFR2	3	9	CLIMBER	323	n/a	n/a	0	0	0
1972.21630859375	n/a	WORD	4039099	wordpools/wasnorm_wordpool_576.txt	LTP379	ltpFR2	3	9	MISTER	901	n/a	n/a	0	0	0
1974.916015625	n/a	WORD	4044628	wordpools/wasnorm_wordpool_576.txt	LTP379	ltpFR2	3	9	WOMAN	1620	n/a	n/a	0	0	0
1977.40087890625	n/a	WORD	4049717	wordpools/wasnorm_wordpool_576.txt	LTP379	ltpFR2	3	9	GIRL	637	n/a	n/a	0	0	0
1980.10009765625	n/a	WORD	4055245	wordpools/wasnorm_wordpool_576.txt	LTP379	ltpFR2	3	9	JOURNAL	760	n/a	n/a	0	0	0
1982.701171875	n/a	WORD	4060572	wordpools/wasnorm_wordpool_576.txt	LTP379	ltpFR2	3	9	JUNGLE	764	n/a	n/a	0	0	0
1985.1328125	n/a	WORD	4065552	wordpools/wasnorm_wordpool_576.txt	LTP379	ltpFR2	3	9	GRILL	661	n/a	n/a	0	0	0
1987.70068359375	n/a	WORD	4070811	wordpools/wasnorm_wordpool_576.txt	LTP379	ltpFR2	3	9	BROOK	177	n/a	n/a	0	0	0
1990.23291015625	n/a	WORD	4075997	wordpools/wasnorm_wordpool_576.txt	LTP379	ltpFR2	3	9	NOVEL	960	n/a	n/a	0	0	0
1992.765625	n/a	WORD	4081184	wordpools/wasnorm_wordpool_576.txt	LTP379	ltpFR2	3	9	LAMP	798	n/a	n/a	0	0	0
1995.3154296875	n/a	WORD	4086406	wordpools/wasnorm_wordpool_576.txt	LTP379	ltpFR2	3	9	ACTRESS	6	n/a	n/a	0	0	0
1997.78271484375	n/a	WORD	4091459	wordpools/wasnorm_wordpool_576.txt	LTP379	ltpFR2	3	9	LEADER	807	n/a	n/a	0	0	0
2000.41650390625	n/a	WORD	4096853	wordpools/wasnorm_wordpool_576.txt	LTP379	ltpFR2	3	9	SHOVEL	1295	n/a	n/a	0	0	0
2002.91552734375	n/a	WORD	4101971	wordpools/wasnorm_wordpool_576.txt	LTP379	ltpFR2	3	9	DOUGHNUT	490	n/a	n/a	0	0	0
2005.71533203125	n/a	WORD	4107705	wordpools/wasnorm_wordpool_576.txt	LTP379	ltpFR2	3	9	LOFT	840	n/a	n/a	0	0	0
2008.248046875	n/a	WORD	4112892	wordpools/wasnorm_wordpool_576.txt	LTP379	ltpFR2	3	9	SILK	1307	n/a	n/a	0	0	0
2010.8310546875	n/a	WORD	4118182	wordpools/wasnorm_wordpool_576.txt	LTP379	ltpFR2	3	9	SALAD	1224	n/a	n/a	0	0	0
2013.416015625	n/a	WORD	4123476	wordpools/wasnorm_wordpool_576.txt	LTP379	ltpFR2	3	9	MATCH	878	n/a	n/a	0	0	0
2015.84814453125	n/a	WORD	4128457	wordpools/wasnorm_wordpool_576.txt	LTP379	ltpFR2	3	9	MILK	895	n/a	n/a	0	0	0
2018.39892578125	n/a	WORD	4133681	wordpools/wasnorm_wordpool_576.txt	LTP379	ltpFR2	3	9	DRAGON	492	n/a	n/a	0	0	0
2020.0146484375	n/a	START	4136990	n/a	LTP379	ltpFR2	3	n/a	n/a	n/a	13	n/a	n/a	n/a	n/a
2020.8857421875	n/a	DISTRACTOR	4138774	n/a	LTP379	ltpFR2	3	9	n/a	n/a	n/a	n/a	0	0	0
2020.89794921875	n/a	PROB	4138799	n/a	LTP379	ltpFR2	3	n/a	n/a	n/a	13	16	5	4	7
2022.681640625	n/a	PROB	4142452	n/a	LTP379	ltpFR2	3	n/a	n/a	n/a	13	11	1	8	2
2024.39892578125	n/a	PROB	4145969	n/a	LTP379	ltpFR2	3	n/a	n/a	n/a	13	19	6	8	5
2027.1806640625	n/a	PROB	4151666	n/a	LTP379	ltpFR2	3	n/a	n/a	n/a	13	21	9	3	9
2029.11474609375	n/a	PROB	4155627	n/a	LTP379	ltpFR2	3	n/a	n/a	n/a	13	21	8	4	9
2030.73046875	n/a	PROB	4158936	n/a	LTP379	ltpFR2	3	n/a	n/a	n/a	13	17	4	6	7
2032.46435546875	n/a	PROB	4162487	n/a	LTP379	ltpFR2	3	n/a	n/a	n/a	13	15	5	5	5
2033.681640625	n/a	PROB	4164980	n/a	LTP379	ltpFR2	3	n/a	n/a	n/a	13	16	9	6	1
2034.91357421875	n/a	PROB	4167503	n/a	LTP379	ltpFR2	3	n/a	n/a	n/a	13	12	4	5	3
2036.16357421875	n/a	PROB	4170063	n/a	LTP379	ltpFR2	3	n/a	n/a	n/a	13	15	8	5	2
2039.13037109375	n/a	PROB	4176139	n/a	LTP379	ltpFR2	3	n/a	n/a	n/a	13	21	8	4	9
2041.330078125	n/a	PROB	4180644	n/a	LTP379	ltpFR2	3	n/a	n/a	n/a	13	10	2	6	2
2042.96923828125	n/a	STOP	4184001	n/a	LTP379	ltpFR2	3	n/a	n/a	n/a	13	n/a	n/a	n/a	n/a
2045.9638671875	n/a	REC_START	4190134	n/a	LTP379	ltpFR2	3	9	n/a	n/a	n/a	n/a	0	0	0
2050.18701171875	n/a	REC_WORD_VV	4198783	wordpools/wasnorm_wordpool_576.txt	LTP379	ltpFR2	3	9	<>	-1	n/a	n/a	0	0	0
2060.81640625	n/a	REC_WORD	4220552	wordpools/wasnorm_wordpool_576.txt	LTP379	ltpFR2	3	9	JEANS	752	n/a	n/a	0	0	0
2062.49658203125	n/a	REC_WORD	4223993	wordpools/wasnorm_wordpool_576.txt	LTP379	ltpFR2	3	9	LILY	821	n/a	n/a	0	0	0
2067.0712890625	n/a	REC_WORD	4233362	wordpools/wasnorm_wordpool_576.txt	LTP379	ltpFR2	3	9	BINDER	127	n/a	n/a	0	0	0
2068.46630859375	n/a	REC_WORD	4236219	wordpools/wasnorm_wordpool_576.txt	LTP379	ltpFR2	3	9	PREACHER	1119	n/a	n/a	0	0	0
2070.04248046875	n/a	REC_WORD	4239447	wordpools/wasnorm_wordpool_576.txt	LTP379	ltpFR2	3	9	CLIMBER	323	n/a	n/a	0	0	0
2071.63720703125	n/a	REC_WORD	4242713	wordpools/wasnorm_wordpool_576.txt	LTP379	ltpFR2	3	9	MISTER	901	n/a	n/a	0	0	0
2072.91845703125	n/a	REC_WORD	4245337	wordpools/wasnorm_wordpool_576.txt	LTP379	ltpFR2	3	9	WOMAN	1620	n/a	n/a	0	0	0
2074.541015625	n/a	REC_WORD	4248660	wordpools/wasnorm_wordpool_576.txt	LTP379	ltpFR2	3	9	GIRL	637	n/a	n/a	0	0	0
2076.7880859375	n/a	REC_WORD	4253262	wordpools/wasnorm_wordpool_576.txt	LTP379	ltpFR2	3	9	JOURNAL	760	n/a	n/a	0	0	0
2078.330078125	n/a	REC_WORD	4256420	wordpools/wasnorm_wordpool_576.txt	LTP379	ltpFR2	3	9	JUNGLE	764	n/a	n/a	0	0	0
2079.88720703125	n/a	REC_WORD	4259609	wordpools/wasnorm_wordpool_576.txt	LTP379	ltpFR2	3	9	GRILL	661	n/a	n/a	0	0	0
2081.77587890625	n/a	REC_WORD	4263477	wordpools/wasnorm_wordpool_576.txt	LTP379	ltpFR2	3	9	BROOK	177	n/a	n/a	0	0	0
2083.98876953125	n/a	REC_WORD	4268009	wordpools/wasnorm_wordpool_576.txt	LTP379	ltpFR2	3	9	NOVEL	960	n/a	n/a	0	0	0
2085.666015625	n/a	REC_WORD	4271444	wordpools/wasnorm_wordpool_576.txt	LTP379	ltpFR2	3	9	LAMP	798	n/a	n/a	0	0	0
2087.2685546875	n/a	REC_WORD	4274726	wordpools/wasnorm_wordpool_576.txt	LTP379	ltpFR2	3	9	ACTRESS	6	n/a	n/a	0	0	0
2088.79296875	n/a	REC_WORD	4277848	wordpools/wasnorm_wordpool_576.txt	LTP379	ltpFR2	3	9	LEADER	807	n/a	n/a	0	0	0
2090.3056640625	n/a	REC_WORD	4280946	wordpools/wasnorm_wordpool_576.txt	LTP379	ltpFR2	3	9	SHOVEL	1295	n/a	n/a	0	0	0
2092.603515625	n/a	REC_WORD	4285652	wordpools/wasnorm_wordpool_576.txt	LTP379	ltpFR2	3	9	DOUGHNUT	490	n/a	n/a	0	0	0
2102.01025390625	n/a	REC_WORD	4304917	wordpools/wasnorm_wordpool_576.txt	LTP379	ltpFR2	3	9	SILK	1307	n/a	n/a	0	0	0
2103.0341796875	n/a	REC_WORD	4307014	wordpools/wasnorm_wordpool_576.txt	LTP379	ltpFR2	3	9	SALAD	1224	n/a	n/a	0	0	0
2110.89404296875	n/a	REC_WORD	4323111	wordpools/wasnorm_wordpool_576.txt	LTP379	ltpFR2	3	9	MATCH	878	n/a	n/a	0	0	0
2112.1162109375	n/a	REC_WORD	4325614	wordpools/wasnorm_wordpool_576.txt	LTP379	ltpFR2	3	9	MILK	895	n/a	n/a	0	0	0
2113.4658203125	n/a	REC_WORD	4328378	wordpools/wasnorm_wordpool_576.txt	LTP379	ltpFR2	3	9	DRAGON	492	n/a	n/a	0	0	0
2136.39208984375	n/a	DISTRACTOR	4375331	n/a	LTP379	ltpFR2	3	10	n/a	n/a	n/a	n/a	0	0	0
2136.39208984375	n/a	START	4375331	n/a	LTP379	ltpFR2	3	n/a	n/a	n/a	14	n/a	n/a	n/a	n/a
2136.41015625	n/a	PROB	4375368	n/a	LTP379	ltpFR2	3	n/a	n/a	n/a	14	13	3	2	8
2138.75927734375	n/a	PROB	4380179	n/a	LTP379	ltpFR2	3	n/a	n/a	n/a	14	11	9	1	1
2140.0751953125	n/a	PROB	4382874	n/a	LTP379	ltpFR2	3	n/a	n/a	n/a	14	13	4	7	2
2141.84228515625	n/a	PROB	4386493	n/a	LTP379	ltpFR2	3	n/a	n/a	n/a	14	16	2	5	9
2143.375	n/a	PROB	4389632	n/a	LTP379	ltpFR2	3	n/a	n/a	n/a	14	16	4	4	8
2145.576171875	n/a	PROB	4394140	n/a	LTP379	ltpFR2	3	n/a	n/a	n/a	14	19	7	6	6
2147.2421875	n/a	PROB	4397552	n/a	LTP379	ltpFR2	3	n/a	n/a	n/a	14	12	2	4	6
2148.47607421875	n/a	PROB	4400079	n/a	LTP379	ltpFR2	3	n/a	n/a	n/a	14	16	5	3	8
2149.74169921875	n/a	PROB	4402671	n/a	LTP379	ltpFR2	3	n/a	n/a	n/a	14	14	2	3	9
2151.05810546875	n/a	PROB	4405367	n/a	LTP379	ltpFR2	3	n/a	n/a	n/a	14	16	3	5	8
2152.2919921875	n/a	PROB	4407894	n/a	LTP379	ltpFR2	3	n/a	n/a	n/a	14	16	7	8	1
2153.85791015625	n/a	PROB	4411101	n/a	LTP379	ltpFR2	3	n/a	n/a	n/a	14	17	7	5	5
2155.40869140625	n/a	PROB	4414277	n/a	LTP379	ltpFR2	3	n/a	n/a	n/a	14	5	1	3	1
2156.52587890625	n/a	PROB	4416565	n/a	LTP379	ltpFR2	3	n/a	n/a	n/a	14	15	5	7	3
2158.19189453125	n/a	PROB	4419977	n/a	LTP379	ltpFR2	3	n/a	n/a	n/a	14	11	1	9	1
2159.2578125	n/a	STOP	4422160	n/a	LTP379	ltpFR2	3	n/a	n/a	n/a	14	n/a	n/a	n/a	n/a
2161.3076171875	n/a	WORD	4426358	wordpools/wasnorm_wordpool_576.txt	LTP379	ltpFR2	3	10	ROD	1203	n/a	n/a	0	0	0
2163.87451171875	n/a	WORD	4431615	wordpools/wasnorm_wordpool_576.txt	LTP379	ltpFR2	3	10	PUDDLE	1140	n/a	n/a	0	0	0
2166.45849609375	n/a	WORD	4436907	wordpools/wasnorm_wordpool_576.txt	LTP379	ltpFR2	3	10	COOK	372	n/a	n/a	0	0	0
2169.19140625	n/a	WORD	4442504	wordpools/wasnorm_wordpool_576.txt	LTP379	ltpFR2	3	10	WIFE	1609	n/a	n/a	0	0	0
2171.95703125	n/a	WORD	4448168	wordpools/wasnorm_wordpool_576.txt	LTP379	ltpFR2	3	10	SPOUSE	1358	n/a	n/a	0	0	0
2174.69091796875	n/a	WORD	4453767	wordpools/wasnorm_wordpool_576.txt	LTP379	ltpFR2	3	10	CAMEL	223	n/a	n/a	0	0	0
2177.408203125	n/a	WORD	4459332	wordpools/wasnorm_wordpool_576.txt	LTP379	ltpFR2	3	10	LEOPARD	812	n/a	n/a	0	0	0
2179.95703125	n/a	WORD	4464552	wordpools/wasnorm_wordpool_576.txt	LTP379	ltpFR2	3	10	GALLON	618	n/a	n/a	0	0	0
2182.69091796875	n/a	WORD	4470151	wordpools/wasnorm_wordpool_576.txt	LTP379	ltpFR2	3	10	LACE	792	n/a	n/a	0	0	0
2185.306640625	n/a	WORD	4475508	wordpools/wasnorm_wordpool_576.txt	LTP379	ltpFR2	3	10	LION	827	n/a	n/a	0	0	0
2187.7568359375	n/a	WORD	4480526	wordpools/wasnorm_wordpool_576.txt	LTP379	ltpFR2	3	10	DRIVER	499	n/a	n/a	0	0	0
2190.28955078125	n/a	WORD	4485713	wordpools/wasnorm_wordpool_576.txt	LTP379	ltpFR2	3	10	NAPKIN	937	n/a	n/a	0	0	0
2192.90673828125	n/a	WORD	4491073	wordpools/wasnorm_wordpool_576.txt	LTP379	ltpFR2	3	10	SHELTER	1282	n/a	n/a	0	0	0
2195.37255859375	n/a	WORD	4496123	wordpools/wasnorm_wordpool_576.txt	LTP379	ltpFR2	3	10	TRANSPLANT	1496	n/a	n/a	0	0	0
2198.1064453125	n/a	WORD	4501722	wordpools/wasnorm_wordpool_576.txt	LTP379	ltpFR2	3	10	BUNNY	198	n/a	n/a	0	0	0
2200.607421875	n/a	WORD	4506844	wordpools/wasnorm_wordpool_576.txt	LTP379	ltpFR2	3	10	STREAM	1392	n/a	n/a	0	0	0
2203.42333984375	n/a	WORD	4512611	wordpools/wasnorm_wordpool_576.txt	LTP379	ltpFR2	3	10	ASIA	46	n/a	n/a	0	0	0
2206.15625	n/a	WORD	4518208	wordpools/wasnorm_wordpool_576.txt	LTP379	ltpFR2	3	10	DUST	508	n/a	n/a	0	0	0
2208.75634765625	n/a	WORD	4523533	wordpools/wasnorm_wordpool_576.txt	LTP379	ltpFR2	3	10	CASKET	255	n/a	n/a	0	0	0
2211.22216796875	n/a	WORD	4528583	wordpools/wasnorm_wordpool_576.txt	LTP379	ltpFR2	3	10	MUMMY	932	n/a	n/a	0	0	0
2213.6728515625	n/a	WORD	4533602	wordpools/wasnorm_wordpool_576.txt	LTP379	ltpFR2	3	10	TYPIST	1532	n/a	n/a	0	0	0
2216.15478515625	n/a	WORD	4538685	wordpools/wasnorm_wordpool_576.txt	LTP379	ltpFR2	3	10	WORKER	1621	n/a	n/a	0	0	0
2218.85498046875	n/a	WORD	4544215	wordpools/wasnorm_wordpool_576.txt	LTP379	ltpFR2	3	10	LONDON	843	n/a	n/a	0	0	0
2221.5556640625	n/a	WORD	4549746	wordpools/wasnorm_wordpool_576.txt	LTP379	ltpFR2	3	10	SHOULDER	1294	n/a	n/a	0	0	0
2223.171875	n/a	START	4553056	n/a	LTP379	ltpFR2	3	n/a	n/a	n/a	15	n/a	n/a	n/a	n/a
2224.24072265625	n/a	DISTRACTOR	4555245	n/a	LTP379	ltpFR2	3	10	n/a	n/a	n/a	n/a	0	0	0
2224.2548828125	n/a	PROB	4555274	n/a	LTP379	ltpFR2	3	n/a	n/a	n/a	15	18	8	2	8
2226.8046875	n/a	PROB	4560496	n/a	LTP379	ltpFR2	3	n/a	n/a	n/a	15	18	5	7	6
2229.4052734375	n/a	PROB	4565822	n/a	LTP379	ltpFR2	3	n/a	n/a	n/a	15	21	8	8	5
2230.771484375	n/a	PROB	4568620	n/a	LTP379	ltpFR2	3	n/a	n/a	n/a	15	13	4	5	4
2232.30419921875	n/a	PROB	4571759	n/a	LTP379	ltpFR2	3	n/a	n/a	n/a	15	26	9	8	9
2233.95458984375	n/a	PROB	4575139	n/a	LTP379	ltpFR2	3	n/a	n/a	n/a	15	17	3	9	5
2235.4892578125	n/a	PROB	4578282	n/a	LTP379	ltpFR2	3	n/a	n/a	n/a	15	15	8	2	5
2236.60546875	n/a	PROB	4580568	n/a	LTP379	ltpFR2	3	n/a	n/a	n/a	15	16	4	3	9
2238.12109375	n/a	PROB	4583672	n/a	LTP379	ltpFR2	3	n/a	n/a	n/a	15	15	3	7	5
2239.48828125	n/a	PROB	4586472	n/a	LTP379	ltpFR2	3	n/a	n/a	n/a	15	17	3	5	9
2241.0869140625	n/a	PROB	4589746	n/a	LTP379	ltpFR2	3	n/a	n/a	n/a	15	17	9	6	2
2243.00390625	n/a	PROB	4593672	n/a	LTP379	ltpFR2	3	n/a	n/a	n/a	15	9	4	2	3
2244.43798828125	n/a	PROB	4596609	n/a	LTP379	ltpFR2	3	n/a	n/a	n/a	15	21	5	7	9
2246.8251953125	n/a	STOP	4601498	n/a	LTP379	ltpFR2	3	n/a	n/a	n/a	15	n/a	n/a	n/a	n/a
2249.00390625	n/a	REC_START	4605960	n/a	LTP379	ltpFR2	3	10	n/a	n/a	n/a	n/a	0	0	0
2250.3798828125	n/a	REC_WORD_VV	4608778	wordpools/wasnorm_wordpool_576.txt	LTP379	ltpFR2	3	10	<>	-1	n/a	n/a	0	0	0
2252.27294921875	n/a	REC_WORD_VV	4612655	wordpools/wasnorm_wordpool_576.txt	LTP379	ltpFR2	3	10	<>	-1	n/a	n/a	0	0	0
2254.1865234375	n/a	REC_WORD	4616574	wordpools/wasnorm_wordpool_576.txt	LTP379	ltpFR2	3	10	ROD	1203	n/a	n/a	0	0	0
2255.794921875	n/a	REC_WORD	4619868	wordpools/wasnorm_wordpool_576.txt	LTP379	ltpFR2	3	10	PUDDLE	1140	n/a	n/a	0	0	0
2257.3955078125	n/a	REC_WORD	4623146	wordpools/wasnorm_wordpool_576.txt	LTP379	ltpFR2	3	10	COOK	372	n/a	n/a	0	0	0
2260.3125	n/a	REC_WORD	4629120	wordpools/wasnorm_wordpool_576.txt	LTP379	ltpFR2	3	10	WIFE	1609	n/a	n/a	0	0	0
2261.61865234375	n/a	REC_WORD	4631795	wordpools/wasnorm_wordpool_576.txt	LTP379	ltpFR2	3	10	SPOUSE	1358	n/a	n/a	0	0	0
2264.66064453125	n/a	REC_WORD	4638025	wordpools/wasnorm_wordpool_576.txt	LTP379	ltpFR2	3	10	CAMEL	223	n/a	n/a	0	0	0
2266.2333984375	n/a	REC_WORD	4641246	wordpools/wasnorm_wordpool_576.txt	LTP379	ltpFR2	3	10	LEOPARD	812	n/a	n/a	0	0	0
2268.38916015625	n/a	REC_WORD	4645661	wordpools/wasnorm_wordpool_576.txt	LTP379	ltpFR2	3	10	GALLON	618	n/a	n/a	0	0	0
2269.80029296875	n/a	REC_WORD	4648551	wordpools/wasnorm_wordpool_576.txt	LTP379	ltpFR2	3	10	LACE	792	n/a	n/a	0	0	0
2272.72119140625	n/a	REC_WORD	4654533	wordpools/wasnorm_wordpool_576.txt	LTP379	ltpFR2	3	10	LION	827	n/a	n/a	0	0	0
2274.5322265625	n/a	REC_WORD	4658242	wordpools/wasnorm_wordpool_576.txt	LTP379	ltpFR2	3	10	DRIVER	499	n/a	n/a	0	0	0
2276.712890625	n/a	REC_WORD	4662708	wordpools/wasnorm_wordpool_576.txt	LTP379	ltpFR2	3	10	NAPKIN	937	n/a	n/a	0	0	0
2278.22705078125	n/a	REC_WORD	4665809	wordpools/wasnorm_wordpool_576.txt	LTP379	ltpFR2	3	10	SHELTER	1282	n/a	n/a	0	0	0
2280.36572265625	n/a	REC_WORD	4670189	wordpools/wasnorm_wordpool_576.txt	LTP379	ltpFR2	3	10	BUNNY	198	n/a	n/a	0	0	0
2283.7236328125	n/a	REC_WORD	4677066	wordpools/wasnorm_wordpool_576.txt	LTP379	ltpFR2	3	10	TRANSPLANT	1496	n/a	n/a	0	0	0
2287.53955078125	n/a	REC_WORD	4684881	wordpools/wasnorm_wordpool_576.txt	LTP379	ltpFR2	3	10	STREAM	1392	n/a	n/a	0	0	0
2289.38671875	n/a	REC_WORD	4688664	wordpools/wasnorm_wordpool_576.txt	LTP379	ltpFR2	3	10	ASIA	46	n/a	n/a	0	0	0
2290.927734375	n/a	REC_WORD	4691820	wordpools/wasnorm_wordpool_576.txt	LTP379	ltpFR2	3	10	DUST	508	n/a	n/a	0	0	0
2292.58447265625	n/a	REC_WORD	4695213	wordpools/wasnorm_wordpool_576.txt	LTP379	ltpFR2	3	10	CASKET	255	n/a	n/a	0	0	0
2294.11962890625	n/a	REC_WORD	4698357	wordpools/wasnorm_wordpool_576.txt	LTP379	ltpFR2	3	10	MUMMY	932	n/a	n/a	0	0	0
2339.43408203125	n/a	DISTRACTOR	4791161	n/a	LTP379	ltpFR2	3	11	n/a	n/a	n/a	n/a	0	0	0
2339.43408203125	n/a	START	4791161	n/a	LTP379	ltpFR2	3	n/a	n/a	n/a	16	n/a	n/a	n/a	n/a
2339.4501953125	n/a	PROB	4791194	n/a	LTP379	ltpFR2	3	n/a	n/a	n/a	16	15	7	2	6
2341.09912109375	n/a	PROB	4794571	n/a	LTP379	ltpFR2	3	n/a	n/a	n/a	16	10	4	4	2
2343.14892578125	n/a	PROB	4798769	n/a	LTP379	ltpFR2	3	n/a	n/a	n/a	16	10	7	1	2
2344.76611328125	n/a	PROB	4802081	n/a	LTP379	ltpFR2	3	n/a	n/a	n/a	16	18	7	4	7
2346.81591796875	n/a	PROB	4806279	n/a	LTP379	ltpFR2	3	n/a	n/a	n/a	16	13	1	4	8
2348.2490234375	n/a	PROB	4809214	n/a	LTP379	ltpFR2	3	n/a	n/a	n/a	16	23	8	6	9
2351.06591796875	n/a	PROB	4814983	n/a	LTP379	ltpFR2	3	n/a	n/a	n/a	16	22	9	5	8
2354.23291015625	n/a	PROB	4821469	n/a	LTP379	ltpFR2	3	n/a	n/a	n/a	16	21	5	8	8
2355.6328125	n/a	PROB	4824336	n/a	LTP379	ltpFR2	3	n/a	n/a	n/a	16	13	6	5	2
2358.49951171875	n/a	PROB	4830207	n/a	LTP379	ltpFR2	3	n/a	n/a	n/a	16	16	5	2	9
2360.41650390625	n/a	PROB	4834133	n/a	LTP379	ltpFR2	3	n/a	n/a	n/a	16	14	5	4	5
2361.71533203125	n/a	PROB	4836793	n/a	LTP379	ltpFR2	3	n/a	n/a	n/a	16	10	1	1	8
2362.7294921875	n/a	STOP	4838870	n/a	LTP379	ltpFR2	3	n/a	n/a	n/a	16	n/a	n/a	n/a	n/a
2364.482421875	n/a	WORD	4842460	wordpools/wasnorm_wordpool_576.txt	LTP379	ltpFR2	3	11	JELLO	754	n/a	n/a	0	0	0
2366.99853515625	n/a	WORD	4847613	wordpools/wasnorm_wordpool_576.txt	LTP379	ltpFR2	3	11	PUDDING	1139	n/a	n/a	0	0	0
2369.46630859375	n/a	WORD	4852667	wordpools/wasnorm_wordpool_576.txt	LTP379	ltpFR2	3	11	APRON	35	n/a	n/a	0	0	0
2372.04833984375	n/a	WORD	4857955	wordpools/wasnorm_wordpool_576.txt	LTP379	ltpFR2	3	11	TREAT	1501	n/a	n/a	0	0	0
2374.58203125	n/a	WORD	4863144	wordpools/wasnorm_wordpool_576.txt	LTP379	ltpFR2	3	11	BROTHER	179	n/a	n/a	0	0	0
2377.3310546875	n/a	WORD	4868774	wordpools/wasnorm_wordpool_576.txt	LTP379	ltpFR2	3	11	TOASTER	1472	n/a	n/a	0	0	0
2380.11376953125	n/a	WORD	4874473	wordpools/wasnorm_wordpool_576.txt	LTP379	ltpFR2	3	11	SIDEWALK	1303	n/a	n/a	0	0	0
2382.58203125	n/a	WORD	4879528	wordpools/wasnorm_wordpool_576.txt	LTP379	ltpFR2	3	11	HUSBAND	728	n/a	n/a	0	0	0
2385.28076171875	n/a	WORD	4885055	wordpools/wasnorm_wordpool_576.txt	LTP379	ltpFR2	3	11	FARMER	553	n/a	n/a	0	0	0
2387.73046875	n/a	WORD	4890072	wordpools/wasnorm_wordpool_576.txt	LTP379	ltpFR2	3	11	CONTRACT	368	n/a	n/a	0	0	0
2390.431640625	n/a	WORD	4895604	wordpools/wasnorm_wordpool_576.txt	LTP379	ltpFR2	3	11	PORK	1108	n/a	n/a	0	0	0
2393.23046875	n/a	WORD	4901336	wordpools/wasnorm_wordpool_576.txt	LTP379	ltpFR2	3	11	MEAT	883	n/a	n/a	0	0	0
2395.74658203125	n/a	WORD	4906489	wordpools/wasnorm_wordpool_576.txt	LTP379	ltpFR2	3	11	SWAMP	1416	n/a	n/a	0	0	0
2398.51416015625	n/a	WORD	4912157	wordpools/wasnorm_wordpool_576.txt	LTP379	ltpFR2	3	11	LUNCH	849	n/a	n/a	0	0	0
2400.98046875	n/a	WORD	4917208	wordpools/wasnorm_wordpool_576.txt	LTP379	ltpFR2	3	11	DRESSER	496	n/a	n/a	0	0	0
2403.76318359375	n/a	WORD	4922907	wordpools/wasnorm_wordpool_576.txt	LTP379	ltpFR2	3	11	WASHER	1592	n/a	n/a	0	0	0
2406.5810546875	n/a	WORD	4928678	wordpools/wasnorm_wordpool_576.txt	LTP379	ltpFR2	3	11	FRAME	600	n/a	n/a	0	0	0
2409.24609375	n/a	WORD	4934136	wordpools/wasnorm_wordpool_576.txt	LTP379	ltpFR2	3	11	OUTDOORS	987	n/a	n/a	0	0	0
2411.84619140625	n/a	WORD	4939461	wordpools/wasnorm_wordpool_576.txt	LTP379	ltpFR2	3	11	COURSE	390	n/a	n/a	0	0	0
2414.64697265625	n/a	WORD	4945197	wordpools/wasnorm_wordpool_576.txt	LTP379	ltpFR2	3	11	HERO	706	n/a	n/a	0	0	0
2417.19580078125	n/a	WORD	4950417	wordpools/wasnorm_wordpool_576.txt	LTP379	ltpFR2	3	11	WINDOW	1611	n/a	n/a	0	0	0
2419.8955078125	n/a	WORD	4955946	wordpools/wasnorm_wordpool_576.txt	LTP379	ltpFR2	3	11	BACKBONE	66	n/a	n/a	0	0	0
2422.6298828125	n/a	WORD	4961546	wordpools/wasnorm_wordpool_576.txt	LTP379	ltpFR2	3	11	KLEENEX	782	n/a	n/a	0	0	0
2425.32861328125	n/a	WORD	4967073	wordpools/wasnorm_wordpool_576.txt	LTP379	ltpFR2	3	11	SISTER	1312	n/a	n/a	0	0	0
2426.9453125	n/a	START	4970384	n/a	LTP379	ltpFR2	3	n/a	n/a	n/a	17	n/a	n/a	n/a	n/a
2427.767578125	n/a	DISTRACTOR	4972068	n/a	LTP379	ltpFR2	3	11	n/a	n/a	n/a	n/a	0	0	0
2427.7783203125	n/a	PROB	4972090	n/a	LTP379	ltpFR2	3	n/a	n/a	n/a	17	9	4	3	2
2431.228515625	n/a	PROB	4979156	n/a	LTP379	ltpFR2	3	n/a	n/a	n/a	17	20	4	8	8
2434.3115234375	n/a	PROB	4985470	n/a	LTP379	ltpFR2	3	n/a	n/a	n/a	17	11	1	2	8
2435.5625	n/a	PROB	4988032	n/a	LTP379	ltpFR2	3	n/a	n/a	n/a	17	11	2	8	1
2437.111328125	n/a	PROB	4991204	n/a	LTP379	ltpFR2	3	n/a	n/a	n/a	17	19	5	8	6
2438.72802734375	n/a	PROB	4994515	n/a	LTP379	ltpFR2	3	n/a	n/a	n/a	17	16	4	9	3
2440.9111328125	n/a	PROB	4998986	n/a	LTP379	ltpFR2	3	n/a	n/a	n/a	17	16	4	3	9
2442.34521484375	n/a	PROB	5001923	n/a	LTP379	ltpFR2	3	n/a	n/a	n/a	17	18	6	4	8
2443.56201171875	n/a	PROB	5004415	n/a	LTP379	ltpFR2	3	n/a	n/a	n/a	17	6	1	1	4
2444.72802734375	n/a	PROB	5006803	n/a	LTP379	ltpFR2	3	n/a	n/a	n/a	17	16	8	2	6
2445.89501953125	n/a	PROB	5009193	n/a	LTP379	ltpFR2	3	n/a	n/a	n/a	17	14	4	1	9
2447.2451171875	n/a	PROB	5011958	n/a	LTP379	ltpFR2	3	n/a	n/a	n/a	17	18	9	4	5
2448.81103515625	n/a	PROB	5015165	n/a	LTP379	ltpFR2	3	n/a	n/a	n/a	17	14	7	1	6
2450.7900390625	n/a	STOP	5019218	n/a	LTP379	ltpFR2	3	n/a	n/a	n/a	17	n/a	n/a	n/a	n/a
2452.86181640625	n/a	REC_START	5023461	n/a	LTP379	ltpFR2	3	11	n/a	n/a	n/a	n/a	0	0	0
2457.42578125	n/a	REC_WORD	5032808	wordpools/wasnorm_wordpool_576.txt	LTP379	ltpFR2	3	11	JELLO	754	n/a	n/a	0	0	0
2459.29248046875	n/a	REC_WORD	5036631	wordpools/wasnorm_wordpool_576.txt	LTP379	ltpFR2	3	11	PUDDING	1139	n/a	n/a	0	0	0
2460.87841796875	n/a	REC_WORD	5039879	wordpools/wasnorm_wordpool_576.txt	LTP379	ltpFR2	3	11	APRON	35	n/a	n/a	0	0	0
2462.13525390625	n/a	REC_WORD	5042453	wordpools/wasnorm_wordpool_576.txt	LTP379	ltpFR2	3	11	TREAT	1501	n/a	n/a	0	0	0
2463.65625	n/a	REC_WORD	5045568	wordpools/wasnorm_wordpool_576.txt	LTP379	ltpFR2	3	11	BROTHER	179	n/a	n/a	0	0	0
2465.3271484375	n/a	REC_WORD	5048990	wordpools/wasnorm_wordpool_576.txt	LTP379	ltpFR2	3	11	TOASTER	1472	n/a	n/a	0	0	0
2473.00732421875	n/a	REC_WORD	5064719	wordpools/wasnorm_wordpool_576.txt	LTP379	ltpFR2	3	11	HUSBAND	728	n/a	n/a	0	0	0
2474.06201171875	n/a	REC_WORD	5066879	wordpools/wasnorm_wordpool_576.txt	LTP379	ltpFR2	3	11	FARMER	553	n/a	n/a	0	0	0
2475.6318359375	n/a	REC_WORD	5070094	wordpools/wasnorm_wordpool_576.txt	LTP379	ltpFR2	3	11	SIDEWALK	1303	n/a	n/a	0	0	0
2477.4990234375	n/a	REC_WORD	5073918	wordpools/wasnorm_wordpool_576.txt	LTP379	ltpFR2	3	11	CONTRACT	368	n/a	n/a	0	0	0
2479.330078125	n/a	REC_WORD	5077668	wordpools/wasnorm_wordpool_576.txt	LTP379	ltpFR2	3	11	PORK	1108	n/a	n/a	0	0	0
2480.77197265625	n/a	REC_WORD	5080621	wordpools/wasnorm_wordpool_576.txt	LTP379	ltpFR2	3	11	MEAT	883	n/a	n/a	0	0	0
2482.96484375	n/a	REC_WORD	5085112	wordpools/wasnorm_wordpool_576.txt	LTP379	ltpFR2	3	11	SWAMP	1416	n/a	n/a	0	0	0
2484.57861328125	n/a	REC_WORD	5088417	wordpools/wasnorm_wordpool_576.txt	LTP379	ltpFR2	3	11	LUNCH	849	n/a	n/a	0	0	0
2486.2646484375	n/a	REC_WORD	5091870	wordpools/wasnorm_wordpool_576.txt	LTP379	ltpFR2	3	11	DRESSER	496	n/a	n/a	0	0	0
2487.9716796875	n/a	REC_WORD	5095366	wordpools/wasnorm_wordpool_576.txt	LTP379	ltpFR2	3	11	WASHER	1592	n/a	n/a	0	0	0
2489.32080078125	n/a	REC_WORD	5098129	wordpools/wasnorm_wordpool_576.txt	LTP379	ltpFR2	3	11	FRAME	600	n/a	n/a	0	0	0
2491.40576171875	n/a	REC_WORD	5102399	wordpools/wasnorm_wordpool_576.txt	LTP379	ltpFR2	3	11	OUTDOORS	987	n/a	n/a	0	0	0
2493.0166015625	n/a	REC_WORD	5105698	wordpools/wasnorm_wordpool_576.txt	LTP379	ltpFR2	3	11	COURSE	390	n/a	n/a	0	0	0
2494.57763671875	n/a	REC_WORD	5108895	wordpools/wasnorm_wordpool_576.txt	LTP379	ltpFR2	3	11	HERO	706	n/a	n/a	0	0	0
2496.5283203125	n/a	REC_WORD	5112890	wordpools/wasnorm_wordpool_576.txt	LTP379	ltpFR2	3	11	WINDOW	1611	n/a	n/a	0	0	0
2498.1123046875	n/a	REC_WORD	5116134	wordpools/wasnorm_wordpool_576.txt	LTP379	ltpFR2	3	11	BACKBONE	66	n/a	n/a	0	0	0
2499.734375	n/a	REC_WORD	5119456	wordpools/wasnorm_wordpool_576.txt	LTP379	ltpFR2	3	11	KLEENEX	782	n/a	n/a	0	0	0
2501.37939453125	n/a	REC_WORD	5122825	wordpools/wasnorm_wordpool_576.txt	LTP379	ltpFR2	3	11	SISTER	1312	n/a	n/a	0	0	0
2543.30712890625	n/a	DISTRACTOR	5208693	n/a	LTP379	ltpFR2	3	12	n/a	n/a	n/a	n/a	0	0	0
2543.30712890625	n/a	START	5208693	n/a	LTP379	ltpFR2	3	n/a	n/a	n/a	18	n/a	n/a	n/a	n/a
2543.3232421875	n/a	PROB	5208726	n/a	LTP379	ltpFR2	3	n/a	n/a	n/a	18	21	8	4	9
2547.44091796875	n/a	PROB	5217159	n/a	LTP379	ltpFR2	3	n/a	n/a	n/a	18	14	3	6	5
2548.8896484375	n/a	PROB	5220126	n/a	LTP379	ltpFR2	3	n/a	n/a	n/a	18	19	4	6	9
2550.27294921875	n/a	PROB	5222959	n/a	LTP379	ltpFR2	3	n/a	n/a	n/a	18	18	7	3	8
2551.4736328125	n/a	PROB	5225418	n/a	LTP379	ltpFR2	3	n/a	n/a	n/a	18	17	6	9	2
2553.33984375	n/a	PROB	5229240	n/a	LTP379	ltpFR2	3	n/a	n/a	n/a	18	9	4	3	2
2554.73974609375	n/a	PROB	5232107	n/a	LTP379	ltpFR2	3	n/a	n/a	n/a	18	12	4	3	5
2556.40673828125	n/a	PROB	5235521	n/a	LTP379	ltpFR2	3	n/a	n/a	n/a	18	19	8	9	2
2558.2724609375	n/a	PROB	5239342	n/a	LTP379	ltpFR2	3	n/a	n/a	n/a	18	10	5	2	3
2561.12255859375	n/a	PROB	5245179	n/a	LTP379	ltpFR2	3	n/a	n/a	n/a	18	10	1	2	6
2562.4736328125	n/a	PROB	5247946	n/a	LTP379	ltpFR2	3	n/a	n/a	n/a	18	6	1	2	3
2564.05517578125	n/a	PROB	5251185	n/a	LTP379	ltpFR2	3	n/a	n/a	n/a	18	15	5	9	1
2566.6904296875	n/a	STOP	5256582	n/a	LTP379	ltpFR2	3	n/a	n/a	n/a	18	n/a	n/a	n/a	n/a
2568.17236328125	n/a	WORD	5259617	wordpools/wasnorm_wordpool_576.txt	LTP379	ltpFR2	3	12	PASTA	1021	n/a	n/a	0	0	0
2570.72216796875	n/a	WORD	5264839	wordpools/wasnorm_wordpool_576.txt	LTP379	ltpFR2	3	12	MONSTER	912	n/a	n/a	0	0	0
2573.47314453125	n/a	WORD	5270473	wordpools/wasnorm_wordpool_576.txt	LTP379	ltpFR2	3	12	CANDY	230	n/a	n/a	0	0	0
2576.18798828125	n/a	WORD	5276033	wordpools/wasnorm_wordpool_576.txt	LTP379	ltpFR2	3	12	RECEIPT	1173	n/a	n/a	0	0	0
2578.85498046875	n/a	WORD	5281495	wordpools/wasnorm_wordpool_576.txt	LTP379	ltpFR2	3	12	CASHIER	254	n/a	n/a	0	0	0
2581.43896484375	n/a	WORD	5286787	wordpools/wasnorm_wordpool_576.txt	LTP379	ltpFR2	3	12	PERCH	1048	n/a	n/a	0	0	0
2583.90478515625	n/a	WORD	5291837	wordpools/wasnorm_wordpool_576.txt	LTP379	ltpFR2	3	12	GOBLIN	645	n/a	n/a	0	0	0
2586.6884765625	n/a	WORD	5297538	wordpools/wasnorm_wordpool_576.txt	LTP379	ltpFR2	3	12	ORCHID	982	n/a	n/a	0	0	0
2589.47265625	n/a	WORD	5303240	wordpools/wasnorm_wordpool_576.txt	LTP379	ltpFR2	3	12	OX	994	n/a	n/a	0	0	0
2592.154296875	n/a	WORD	5308732	wordpools/wasnorm_wordpool_576.txt	LTP379	ltpFR2	3	12	BUGGY	188	n/a	n/a	0	0	0
2594.9375	n/a	WORD	5314432	wordpools/wasnorm_wordpool_576.txt	LTP379	ltpFR2	3	12	AIRPORT	13	n/a	n/a	0	0	0
2597.63818359375	n/a	WORD	5319963	wordpools/wasnorm_wordpool_576.txt	LTP379	ltpFR2	3	12	POWDER	1117	n/a	n/a	0	0	0
2600.2373046875	n/a	WORD	5325286	wordpools/wasnorm_wordpool_576.txt	LTP379	ltpFR2	3	12	SUNSET	1408	n/a	n/a	0	0	0
2602.92041015625	n/a	WORD	5330781	wordpools/wasnorm_wordpool_576.txt	LTP379	ltpFR2	3	12	TART	1436	n/a	n/a	0	0	0
2605.5380859375	n/a	WORD	5336142	wordpools/wasnorm_wordpool_576.txt	LTP379	ltpFR2	3	12	BATHTUB	100	n/a	n/a	0	0	0
2608.037109375	n/a	WORD	5341260	wordpools/wasnorm_wordpool_576.txt	LTP379	ltpFR2	3	12	PUPIL	1143	n/a	n/a	0	0	0
2610.77001953125	n/a	WORD	5346857	wordpools/wasnorm_wordpool_576.txt	LTP379	ltpFR2	3	12	GRAVEL	659	n/a	n/a	0	0	0
2613.2197265625	n/a	WORD	5351874	wordpools/wasnorm_wordpool_576.txt	LTP379	ltpFR2	3	12	HIGHWAY	707	n/a	n/a	0	0	0
2615.77001953125	n/a	WORD	5357097	wordpools/wasnorm_wordpool_576.txt	LTP379	ltpFR2	3	12	CUPBOARD	425	n/a	n/a	0	0	0
2618.50390625	n/a	WORD	5362696	wordpools/wasnorm_wordpool_576.txt	LTP379	ltpFR2	3	12	CRAB	397	n/a	n/a	0	0	0
2621.23681640625	n/a	WORD	5368293	wordpools/wasnorm_wordpool_576.txt	LTP379	ltpFR2	3	12	CLOCK	325	n/a	n/a	0	0	0
2623.75244140625	n/a	WORD	5373445	wordpools/wasnorm_wordpool_576.txt	LTP379	ltpFR2	3	12	SALMON	1227	n/a	n/a	0	0	0
2626.4375	n/a	WORD	5378944	wordpools/wasnorm_wordpool_576.txt	LTP379	ltpFR2	3	12	TRUCK	1512	n/a	n/a	0	0	0
2628.9365234375	n/a	WORD	5384062	wordpools/wasnorm_wordpool_576.txt	LTP379	ltpFR2	3	12	VELVET	1555	n/a	n/a	0	0	0
2630.55322265625	n/a	START	5387373	n/a	LTP379	ltpFR2	3	n/a	n/a	n/a	19	n/a	n/a	n/a	n/a
2631.64453125	n/a	DISTRACTOR	5389608	n/a	LTP379	ltpFR2	3	12	n/a	n/a	n/a	n/a	0	0	0
2631.6533203125	n/a	PROB	5389626	n/a	LTP379	ltpFR2	3	n/a	n/a	n/a	19	17	2	8	7
2633.76904296875	n/a	PROB	5393959	n/a	LTP379	ltpFR2	3	n/a	n/a	n/a	19	11	2	1	8
2635.71923828125	n/a	PROB	5397953	n/a	LTP379	ltpFR2	3	n/a	n/a	n/a	19	24	9	8	7
2639.7021484375	n/a	PROB	5406110	n/a	LTP379	ltpFR2	3	n/a	n/a	n/a	19	24	8	9	7
2641.56982421875	n/a	PROB	5409935	n/a	LTP379	ltpFR2	3	n/a	n/a	n/a	19	5	1	2	2
2642.76904296875	n/a	PROB	5412391	n/a	LTP379	ltpFR2	3	n/a	n/a	n/a	19	20	5	6	9
2644.43603515625	n/a	PROB	5415805	n/a	LTP379	ltpFR2	3	n/a	n/a	n/a	19	15	7	2	6
2645.751953125	n/a	PROB	5418500	n/a	LTP379	ltpFR2	3	n/a	n/a	n/a	19	17	4	7	6
2647.78466796875	n/a	PROB	5422663	n/a	LTP379	ltpFR2	3	n/a	n/a	n/a	19	10	1	7	2
2649.28466796875	n/a	PROB	5425735	n/a	LTP379	ltpFR2	3	n/a	n/a	n/a	19	17	7	2	8
2651.2685546875	n/a	PROB	5429798	n/a	LTP379	ltpFR2	3	n/a	n/a	n/a	19	11	4	3	4
2653.60986328125	n/a	STOP	5434593	n/a	LTP379	ltpFR2	3	n/a	n/a	n/a	19	n/a	n/a	n/a	n/a
2656.4365234375	n/a	REC_START	5440382	n/a	LTP379	ltpFR2	3	12	n/a	n/a	n/a	n/a	0	0	0
2674.701171875	n/a	REC_WORD	5477788	wordpools/wasnorm_wordpool_576.txt	LTP379	ltpFR2	3	12	PASTA	1021	n/a	n/a	0	0	0
2676.0751953125	n/a	REC_WORD	5480602	wordpools/wasnorm_wordpool_576.txt	LTP379	ltpFR2	3	12	MONSTER	912	n/a	n/a	0	0	0
2678.23095703125	n/a	REC_WORD	5485017	wordpools/wasnorm_wordpool_576.txt	LTP379	ltpFR2	3	12	CANDY	230	n/a	n/a	0	0	0
2680.18408203125	n/a	REC_WORD	5489017	wordpools/wasnorm_wordpool_576.txt	LTP379	ltpFR2	3	12	RECEIPT	1173	n/a	n/a	0	0	0
2682.21484375	n/a	REC_WORD	5493176	wordpools/wasnorm_wordpool_576.txt	LTP379	ltpFR2	3	12	CASHIER	254	n/a	n/a	0	0	0
2683.7939453125	n/a	REC_WORD	5496410	wordpools/wasnorm_wordpool_576.txt	LTP379	ltpFR2	3	12	PERCH	1048	n/a	n/a	0	0	0
2685.728515625	n/a	REC_WORD	5500372	wordpools/wasnorm_wordpool_576.txt	LTP379	ltpFR2	3	12	GOBLIN	645	n/a	n/a	0	0	0
2687.70849609375	n/a	REC_WORD	5504427	wordpools/wasnorm_wordpool_576.txt	LTP379	ltpFR2	3	12	ORCHID	982	n/a	n/a	0	0	0
2689.5498046875	n/a	REC_WORD	5508198	wordpools/wasnorm_wordpool_576.txt	LTP379	ltpFR2	3	12	OX	994	n/a	n/a	0	0	0
2691.33642578125	n/a	REC_WORD	5511857	wordpools/wasnorm_wordpool_576.txt	LTP379	ltpFR2	3	12	BUGGY	188	n/a	n/a	0	0	0
2692.75244140625	n/a	REC_WORD	5514757	wordpools/wasnorm_wordpool_576.txt	LTP379	ltpFR2	3	12	AIRPORT	13	n/a	n/a	0	0	0
2694.46435546875	n/a	REC_WORD	5518263	wordpools/wasnorm_wordpool_576.txt	LTP379	ltpFR2	3	12	POWDER	1117	n/a	n/a	0	0	0
2696.20458984375	n/a	REC_WORD	5521827	wordpools/wasnorm_wordpool_576.txt	LTP379	ltpFR2	3	12	SUNSET	1408	n/a	n/a	0	0	0
2698.33642578125	n/a	REC_WORD	5526193	wordpools/wasnorm_wordpool_576.txt	LTP379	ltpFR2	3	12	BATHTUB	100	n/a	n/a	0	0	0
2700.1650390625	n/a	REC_WORD	5529938	wordpools/wasnorm_wordpool_576.txt	LTP379	ltpFR2	3	12	TART	1436	n/a	n/a	0	0	0
2701.7861328125	n/a	REC_WORD	5533258	wordpools/wasnorm_wordpool_576.txt	LTP379	ltpFR2	3	12	PUPIL	1143	n/a	n/a	0	0	0
2703.47314453125	n/a	REC_WORD	5536713	wordpools/wasnorm_wordpool_576.txt	LTP379	ltpFR2	3	12	GRAVEL	659	n/a	n/a	0	0	0
2705.13427734375	n/a	REC_WORD	5540115	wordpools/wasnorm_wordpool_576.txt	LTP379	ltpFR2	3	12	HIGHWAY	707	n/a	n/a	0	0	0
2706.98388671875	n/a	REC_WORD	5543903	wordpools/wasnorm_wordpool_576.txt	LTP379	ltpFR2	3	12	CUPBOARD	425	n/a	n/a	0	0	0
2708.712890625	n/a	REC_WORD	5547444	wordpools/wasnorm_wordpool_576.txt	LTP379	ltpFR2	3	12	CRAB	397	n/a	n/a	0	0	0
2710.419921875	n/a	REC_WORD	5550940	wordpools/wasnorm_wordpool_576.txt	LTP379	ltpFR2	3	12	CLOCK	325	n/a	n/a	0	0	0
2712.1796875	n/a	REC_WORD	5554544	wordpools/wasnorm_wordpool_576.txt	LTP379	ltpFR2	3	12	SALMON	1227	n/a	n/a	0	0	0
2715.0166015625	n/a	REC_WORD	5560354	wordpools/wasnorm_wordpool_576.txt	LTP379	ltpFR2	3	12	TRUCK	1512	n/a	n/a	0	0	0
2716.80078125	n/a	REC_WORD	5564008	wordpools/wasnorm_wordpool_576.txt	LTP379	ltpFR2	3	12	VELVET	1555	n/a	n/a	0	0	0
2746.89697265625	n/a	DISTRACTOR	5625645	n/a	LTP379	ltpFR2	3	13	n/a	n/a	n/a	n/a	0	0	0
2746.89697265625	n/a	START	5625645	n/a	LTP379	ltpFR2	3	n/a	n/a	n/a	20	n/a	n/a	n/a	n/a
2746.9140625	n/a	PROB	5625680	n/a	LTP379	ltpFR2	3	n/a	n/a	n/a	20	17	5	3	9
2749.013671875	n/a	PROB	5629980	n/a	LTP379	ltpFR2	3	n/a	n/a	n/a	20	13	8	4	1
2751.146484375	n/a	PROB	5634348	n/a	LTP379	ltpFR2	3	n/a	n/a	n/a	20	17	6	8	3
2752.94677734375	n/a	PROB	5638035	n/a	LTP379	ltpFR2	3	n/a	n/a	n/a	20	19	3	7	9
2754.1806640625	n/a	PROB	5640562	n/a	LTP379	ltpFR2	3	n/a	n/a	n/a	20	16	2	7	7
2755.5146484375	n/a	PROB	5643294	n/a	LTP379	ltpFR2	3	n/a	n/a	n/a	20	17	9	2	6
2757.11376953125	n/a	PROB	5646569	n/a	LTP379	ltpFR2	3	n/a	n/a	n/a	20	14	6	3	5
2758.779296875	n/a	PROB	5649980	n/a	LTP379	ltpFR2	3	n/a	n/a	n/a	20	14	1	5	8
2760.29638671875	n/a	PROB	5653087	n/a	LTP379	ltpFR2	3	n/a	n/a	n/a	20	11	5	4	2
2761.51416015625	n/a	PROB	5655581	n/a	LTP379	ltpFR2	3	n/a	n/a	n/a	20	18	8	7	3
2762.9794921875	n/a	PROB	5658582	n/a	LTP379	ltpFR2	3	n/a	n/a	n/a	20	18	8	3	7
2764.564453125	n/a	PROB	5661828	n/a	LTP379	ltpFR2	3	n/a	n/a	n/a	20	5	2	2	1
2765.5302734375	n/a	PROB	5663806	n/a	LTP379	ltpFR2	3	n/a	n/a	n/a	20	14	9	1	4
2766.68017578125	n/a	PROB	5666161	n/a	LTP379	ltpFR2	3	n/a	n/a	n/a	20	13	4	6	3
2767.89599609375	n/a	PROB	5668651	n/a	LTP379	ltpFR2	3	n/a	n/a	n/a	20	14	3	4	7
2769.48193359375	n/a	STOP	5671899	n/a	LTP379	ltpFR2	3	n/a	n/a	n/a	20	n/a	n/a	n/a	n/a
2771.8291015625	n/a	WORD	5676706	wordpools/wasnorm_wordpool_576.txt	LTP379	ltpFR2	3	13	SHORTS	1293	n/a	n/a	0	0	0
2774.34619140625	n/a	WORD	5681861	wordpools/wasnorm_wordpool_576.txt	LTP379	ltpFR2	3	13	TILE	1468	n/a	n/a	0	0	0
2777.1787109375	n/a	WORD	5687662	wordpools/wasnorm_wordpool_576.txt	LTP379	ltpFR2	3	13	SUMMIT	1405	n/a	n/a	0	0	0
2779.7119140625	n/a	WORD	5692850	wordpools/wasnorm_wordpool_576.txt	LTP379	ltpFR2	3	13	GYMNAST	675	n/a	n/a	0	0	0
2782.2958984375	n/a	WORD	5698142	wordpools/wasnorm_wordpool_576.txt	LTP379	ltpFR2	3	13	SALT	1229	n/a	n/a	0	0	0
2784.87890625	n/a	WORD	5703432	wordpools/wasnorm_wordpool_576.txt	LTP379	ltpFR2	3	13	CEILING	265	n/a	n/a	0	0	0
2787.646484375	n/a	WORD	5709100	wordpools/wasnorm_wordpool_576.txt	LTP379	ltpFR2	3	13	CRAYON	401	n/a	n/a	0	0	0
2790.16162109375	n/a	WORD	5714251	wordpools/wasnorm_wordpool_576.txt	LTP379	ltpFR2	3	13	MARKER	870	n/a	n/a	0	0	0
2792.646484375	n/a	WORD	5719340	wordpools/wasnorm_wordpool_576.txt	LTP379	ltpFR2	3	13	STOVE	1388	n/a	n/a	0	0	0
2795.24560546875	n/a	WORD	5724663	wordpools/wasnorm_wordpool_576.txt	LTP379	ltpFR2	3	13	ICING	732	n/a	n/a	0	0	0
2797.6943359375	n/a	WORD	5729678	wordpools/wasnorm_wordpool_576.txt	LTP379	ltpFR2	3	13	XEROX	1628	n/a	n/a	0	0	0
2800.2783203125	n/a	WORD	5734970	wordpools/wasnorm_wordpool_576.txt	LTP379	ltpFR2	3	13	UMPIRE	1535	n/a	n/a	0	0	0
2803.078125	n/a	WORD	5740704	wordpools/wasnorm_wordpool_576.txt	LTP379	ltpFR2	3	13	BELLY	119	n/a	n/a	0	0	0
2805.64501953125	n/a	WORD	5745961	wordpools/wasnorm_wordpool_576.txt	LTP379	ltpFR2	3	13	PLAZA	1088	n/a	n/a	0	0	0
2808.27783203125	n/a	WORD	5751353	wordpools/wasnorm_wordpool_576.txt	LTP379	ltpFR2	3	13	DAISY	435	n/a	n/a	0	0	0
2811.0439453125	n/a	WORD	5757018	wordpools/wasnorm_wordpool_576.txt	LTP379	ltpFR2	3	13	WARDROBE	1587	n/a	n/a	0	0	0
2813.66162109375	n/a	WORD	5762379	wordpools/wasnorm_wordpool_576.txt	LTP379	ltpFR2	3	13	FIDDLE	561	n/a	n/a	0	0	0
2816.11083984375	n/a	WORD	5767395	wordpools/wasnorm_wordpool_576.txt	LTP379	ltpFR2	3	13	MASK	876	n/a	n/a	0	0	0
2818.7265625	n/a	WORD	5772752	wordpools/wasnorm_wordpool_576.txt	LTP379	ltpFR2	3	13	PLATE	1086	n/a	n/a	0	0	0
2821.46142578125	n/a	WORD	5778353	wordpools/wasnorm_wordpool_576.txt	LTP379	ltpFR2	3	13	OUTFIT	988	n/a	n/a	0	0	0
2823.92626953125	n/a	WORD	5783401	wordpools/wasnorm_wordpool_576.txt	LTP379	ltpFR2	3	13	HIKER	708	n/a	n/a	0	0	0
2826.3603515625	n/a	WORD	5788386	wordpools/wasnorm_wordpool_576.txt	LTP379	ltpFR2	3	13	CITRUS	313	n/a	n/a	0	0	0
2828.826171875	n/a	WORD	5793436	wordpools/wasnorm_wordpool_576.txt	LTP379	ltpFR2	3	13	FRECKLE	602	n/a	n/a	0	0	0
2831.5771484375	n/a	WORD	5799070	wordpools/wasnorm_wordpool_576.txt	LTP379	ltpFR2	3	13	PIMPLE	1071	n/a	n/a	0	0	0
2833.193359375	n/a	START	5802380	n/a	LTP379	ltpFR2	3	n/a	n/a	n/a	21	n/a	n/a	n/a	n/a
2834.1201171875	n/a	DISTRACTOR	5804278	n/a	LTP379	ltpFR2	3	13	n/a	n/a	n/a	n/a	0	0	0
2834.1259765625	n/a	PROB	5804290	n/a	LTP379	ltpFR2	3	n/a	n/a	n/a	21	12	2	8	2
2836.29296875	n/a	PROB	5808728	n/a	LTP379	ltpFR2	3	n/a	n/a	n/a	21	14	2	9	3
2838.39404296875	n/a	PROB	5813031	n/a	LTP379	ltpFR2	3	n/a	n/a	n/a	21	9	2	6	1
2840.759765625	n/a	PROB	5817876	n/a	LTP379	ltpFR2	3	n/a	n/a	n/a	21	15	1	5	9
2842.17578125	n/a	PROB	5820776	n/a	LTP379	ltpFR2	3	n/a	n/a	n/a	21	18	9	1	8
2843.52685546875	n/a	PROB	5823543	n/a	LTP379	ltpFR2	3	n/a	n/a	n/a	21	25	7	9	9
2845.17578125	n/a	PROB	5826920	n/a	LTP379	ltpFR2	3	n/a	n/a	n/a	21	16	7	5	4
2846.82568359375	n/a	PROB	5830299	n/a	LTP379	ltpFR2	3	n/a	n/a	n/a	21	16	6	9	1
2848.19287109375	n/a	PROB	5833099	n/a	LTP379	ltpFR2	3	n/a	n/a	n/a	21	16	7	8	1
2849.5439453125	n/a	PROB	5835866	n/a	LTP379	ltpFR2	3	n/a	n/a	n/a	21	25	7	9	9
2852.4765625	n/a	PROB	5841872	n/a	LTP379	ltpFR2	3	n/a	n/a	n/a	21	13	9	1	3
2853.70849609375	n/a	PROB	5844395	n/a	LTP379	ltpFR2	3	n/a	n/a	n/a	21	15	5	6	4
2855.275390625	n/a	PROB	5847604	n/a	LTP379	ltpFR2	3	n/a	n/a	n/a	21	17	3	8	6
2856.86474609375	n/a	STOP	5850859	n/a	LTP379	ltpFR2	3	n/a	n/a	n/a	21	n/a	n/a	n/a	n/a
2859.0595703125	n/a	REC_START	5855354	n/a	LTP379	ltpFR2	3	13	n/a	n/a	n/a	n/a	0	0	0
2866.47119140625	n/a	REC_WORD_VV	5870533	wordpools/wasnorm_wordpool_576.txt	LTP379	ltpFR2	3	13	<>	-1	n/a	n/a	0	0	0
2868.93603515625	n/a	REC_WORD	5875581	wordpools/wasnorm_wordpool_576.txt	LTP379	ltpFR2	3	13	SHORTS	1293	n/a	n/a	0	0	0
2870.4091796875	n/a	REC_WORD	5878598	wordpools/wasnorm_wordpool_576.txt	LTP379	ltpFR2	3	13	TILE	1468	n/a	n/a	0	0	0
2871.8212890625	n/a	REC_WORD	5881490	wordpools/wasnorm_wordpool_576.txt	LTP379	ltpFR2	3	13	SUMMIT	1405	n/a	n/a	0	0	0
2874.5791015625	n/a	REC_WORD	5887138	wordpools/wasnorm_wordpool_576.txt	LTP379	ltpFR2	3	13	CEILING	265	n/a	n/a	0	0	0
2876.095703125	n/a	REC_WORD	5890244	wordpools/wasnorm_wordpool_576.txt	LTP379	ltpFR2	3	13	SALT	1229	n/a	n/a	0	0	0
2878.43603515625	n/a	REC_WORD	5895037	wordpools/wasnorm_wordpool_576.txt	LTP379	ltpFR2	3	13	CRAYON	401	n/a	n/a	0	0	0
2879.99072265625	n/a	REC_WORD	5898221	wordpools/wasnorm_wordpool_576.txt	LTP379	ltpFR2	3	13	MARKER	870	n/a	n/a	0	0	0
2881.6416015625	n/a	REC_WORD	5901602	wordpools/wasnorm_wordpool_576.txt	LTP379	ltpFR2	3	13	STOVE	1388	n/a	n/a	0	0	0
2884.76171875	n/a	REC_WORD	5907992	wordpools/wasnorm_wordpool_576.txt	LTP379	ltpFR2	3	13	ICING	732	n/a	n/a	0	0	0
2886.32958984375	n/a	REC_WORD	5911203	wordpools/wasnorm_wordpool_576.txt	LTP379	ltpFR2	3	13	XEROX	1628	n/a	n/a	0	0	0
2889.09130859375	n/a	REC_WORD	5916859	wordpools/wasnorm_wordpool_576.txt	LTP379	ltpFR2	3	13	UMPIRE	1535	n/a	n/a	0	0	0
2890.67041015625	n/a	REC_WORD	5920093	wordpools/wasnorm_wordpool_576.txt	LTP379	ltpFR2	3	13	BELLY	119	n/a	n/a	0	0	0
2892.34228515625	n/a	REC_WORD	5923517	wordpools/wasnorm_wordpool_576.txt	LTP379	ltpFR2	3	13	PLAZA	1088	n/a	n/a	0	0	0
2894.697265625	n/a	REC_WORD	5928340	wordpools/wasnorm_wordpool_576.txt	LTP379	ltpFR2	3	13	DAISY	435	n/a	n/a	0	0	0
2896.107421875	n/a	REC_WORD	5931228	wordpools/wasnorm_wordpool_576.txt	LTP379	ltpFR2	3	13	WARDROBE	1587	n/a	n/a	0	0	0
2897.72314453125	n/a	REC_WORD	5934537	wordpools/wasnorm_wordpool_576.txt	LTP379	ltpFR2	3	13	FIDDLE	561	n/a	n/a	0	0	0
2899.56201171875	n/a	REC_WORD	5938303	wordpools/wasnorm_wordpool_576.txt	LTP379	ltpFR2	3	13	MASK	876	n/a	n/a	0	0	0
2901.5283203125	n/a	REC_WORD	5942330	wordpools/wasnorm_wordpool_576.txt	LTP379	ltpFR2	3	13	OUTFIT	988	n/a	n/a	0	0	0
2903.42333984375	n/a	REC_WORD	5946211	wordpools/wasnorm_wordpool_576.txt	LTP379	ltpFR2	3	13	PLATE	1086	n/a	n/a	0	0	0
2949.4716796875	n/a	DISTRACTOR	6040518	n/a	LTP379	ltpFR2	3	14	n/a	n/a	n/a	n/a	0	0	0
2949.47265625	n/a	START	6040520	n/a	LTP379	ltpFR2	3	n/a	n/a	n/a	22	n/a	n/a	n/a	n/a
2949.48876953125	n/a	PROB	6040553	n/a	LTP379	ltpFR2	3	n/a	n/a	n/a	22	18	6	8	4
2951.388671875	n/a	PROB	6044444	n/a	LTP379	ltpFR2	3	n/a	n/a	n/a	22	15	6	8	1
2953.8876953125	n/a	PROB	6049562	n/a	LTP379	ltpFR2	3	n/a	n/a	n/a	22	11	2	4	5
2956.0546875	n/a	PROB	6054000	n/a	LTP379	ltpFR2	3	n/a	n/a	n/a	22	18	9	6	3
2957.5556640625	n/a	PROB	6057074	n/a	LTP379	ltpFR2	3	n/a	n/a	n/a	22	7	1	4	2
2959.3203125	n/a	PROB	6060688	n/a	LTP379	ltpFR2	3	n/a	n/a	n/a	22	17	9	1	7
2960.7705078125	n/a	PROB	6063658	n/a	LTP379	ltpFR2	3	n/a	n/a	n/a	22	17	6	4	7
2962.0703125	n/a	PROB	6066320	n/a	LTP379	ltpFR2	3	n/a	n/a	n/a	22	8	3	3	2
2963.25341796875	n/a	PROB	6068743	n/a	LTP379	ltpFR2	3	n/a	n/a	n/a	22	14	1	9	4
2964.42138671875	n/a	PROB	6071135	n/a	LTP379	ltpFR2	3	n/a	n/a	n/a	22	18	5	5	8
2965.58837890625	n/a	PROB	6073525	n/a	LTP379	ltpFR2	3	n/a	n/a	n/a	22	10	6	2	2
2967.10302734375	n/a	PROB	6076627	n/a	LTP379	ltpFR2	3	n/a	n/a	n/a	22	19	5	8	6
2969.63818359375	n/a	PROB	6081819	n/a	LTP379	ltpFR2	3	n/a	n/a	n/a	22	11	1	4	6
2970.85302734375	n/a	PROB	6084307	n/a	LTP379	ltpFR2	3	n/a	n/a	n/a	22	17	9	1	7
2972.05712890625	n/a	STOP	6086773	n/a	LTP379	ltpFR2	3	n/a	n/a	n/a	22	n/a	n/a	n/a	n/a
2974.52099609375	n/a	WORD	6091819	wordpools/wasnorm_wordpool_576.txt	LTP379	ltpFR2	3	14	BLOCKADE	137	n/a	n/a	0	0	0
2977.31982421875	n/a	WORD	6097551	wordpools/wasnorm_wordpool_576.txt	LTP379	ltpFR2	3	14	MUFFIN	929	n/a	n/a	0	0	0
