onset	duration	trial_type	sample	stim_file	subject	experiment	session	trial	task	item_name	item_num	recog_conf	resp	color_b	color_g	color_r	case	font
303.708	n/a	SESS_START	151854	n/a	LTP220	ltpFR	2	n/a	n/a	n/a	n/a	n/a	n/a	n/a	n/a	n/a	n/a	n/a
481.372	n/a	WORD	240686	wordpools/wasnorm_wordpool_less_exclusions.txt	LTP220	ltpFR	2	1	0	SHOE	1288	n/a	0	1	0.412841796875	0.57763671875	lower	../fonts/amplitud.ttf
485.554	n/a	WORD	242777	wordpools/wasnorm_wordpool_less_exclusions.txt	LTP220	ltpFR	2	1	0	SCAPEGOAT	1244	n/a	0	1	0.412841796875	0.57763671875	lower	../fonts/amplitud.ttf
489.484	n/a	WORD	244742	wordpools/wasnorm_wordpool_less_exclusions.txt	LTP220	ltpFR	2	1	0	STUDENT	1395	n/a	0	1	0.412841796875	0.57763671875	lower	../fonts/amplitud.ttf
493.348	n/a	WORD	246674	wordpools/wasnorm_wordpool_less_exclusions.txt	LTP220	ltpFR	2	1	1	COLLEGE	346	n/a	3	0	0.5869140625	0.422607421875	upper	../fonts/zerothre.ttf
494.622	n/a	KEY_MSG	247311	n/a	LTP220	ltpFR	2	1	n/a	n/a	n/a	n/a	n/a	n/a	n/a	n/a	n/a	n/a
497.18	n/a	WORD	248590	wordpools/wasnorm_wordpool_less_exclusions.txt	LTP220	ltpFR	2	1	1	CROCODILE	411	n/a	1	0	0.5869140625	0.422607421875	upper	../fonts/zerothre.ttf
501.296	n/a	WORD	250648	wordpools/wasnorm_wordpool_less_exclusions.txt	LTP220	ltpFR	2	1	0	BOOT	150	n/a	n/a	1	0.412841796875	0.57763671875	lower	../fonts/amplitud.ttf
504.334	n/a	SLOW_MSG	252167	n/a	LTP220	ltpFR	2	1	n/a	n/a	n/a	n/a	n/a	n/a	n/a	n/a	n/a	n/a
506.802	n/a	WORD	253401	wordpools/wasnorm_wordpool_less_exclusions.txt	LTP220	ltpFR	2	1	0	CHOCOLATE	306	n/a	n/a	1	0.412841796875	0.57763671875	lower	../fonts/amplitud.ttf
509.846	n/a	SLOW_MSG	254923	n/a	LTP220	ltpFR	2	1	n/a	n/a	n/a	n/a	n/a	n/a	n/a	n/a	n/a	n/a
512.388	n/a	WORD	256194	wordpools/wasnorm_wordpool_less_exclusions.txt	LTP220	ltpFR	2	1	0	CUSTARD	429	n/a	n/a	1	0.412841796875	0.57763671875	lower	../fonts/amplitud.ttf
515.434	n/a	SLOW_MSG	257717	n/a	LTP220	ltpFR	2	1	n/a	n/a	n/a	n/a	n/a	n/a	n/a	n/a	n/a	n/a
517.91	n/a	WORD	258955	wordpools/wasnorm_wordpool_less_exclusions.txt	LTP220	ltpFR	2	1	0	FOLDER	588	n/a	n/a	1	0.412841796875	0.57763671875	lower	../fonts/amplitud.ttf
520.956	n/a	SLOW_MSG	260478	n/a	LTP220	ltpFR	2	1	n/a	n/a	n/a	n/a	n/a	n/a	n/a	n/a	n/a	n/a
523.616	n/a	WORD	261808	wordpools/wasnorm_wordpool_less_exclusions.txt	LTP220	ltpFR	2	1	0	CURB	426	n/a	n/a	1	0.412841796875	0.57763671875	lower	../fonts/amplitud.ttf
526.66	n/a	SLOW_MSG	263330	n/a	LTP220	ltpFR	2	1	n/a	n/a	n/a	n/a	n/a	n/a	n/a	n/a	n/a	n/a
529.162	n/a	WORD	264581	wordpools/wasnorm_wordpool_less_exclusions.txt	LTP220	ltpFR	2	1	1	MAMMAL	861	n/a	2	0	0.5869140625	0.422607421875	upper	../fonts/zerothre.ttf
530.19	n/a	KEY_MSG	265095	n/a	LTP220	ltpFR	2	1	n/a	n/a	n/a	n/a	n/a	n/a	n/a	n/a	n/a	n/a
533.202	n/a	WORD	266601	wordpools/wasnorm_wordpool_less_exclusions.txt	LTP220	ltpFR	2	1	1	MANAGER	863	n/a	1	0	0.5869140625	0.422607421875	upper	../fonts/zerothre.ttf
537.344	n/a	WORD	268672	wordpools/wasnorm_wordpool_less_exclusions.txt	LTP220	ltpFR	2	1	1	SCROLL	1257	n/a	0	0	0.5869140625	0.422607421875	upper	../fonts/zerothre.ttf
541.434	n/a	WORD	270717	wordpools/wasnorm_wordpool_less_exclusions.txt	LTP220	ltpFR	2	1	1	KEG	770	n/a	0	0	0.5869140625	0.422607421875	upper	../fonts/zerothre.ttf
545.558	n/a	WORD	272779	wordpools/wasnorm_wordpool_less_exclusions.txt	LTP220	ltpFR	2	1	1	ANIMAL	23	n/a	1	0	0.5869140625	0.422607421875	upper	../fonts/zerothre.ttf
549.524	n/a	WORD	274762	wordpools/wasnorm_wordpool_less_exclusions.txt	LTP220	ltpFR	2	1	1	BRIEFCASE	175	n/a	0	0	0.5869140625	0.422607421875	upper	../fonts/zerothre.ttf
555.522	n/a	REC_START	277761	n/a	LTP220	ltpFR	2	1	n/a	n/a	n/a	n/a	n/a	n/a	n/a	n/a	n/a	n/a
556.594	n/a	REC_WORD	278297	wordpools/wasnorm_wordpool_less_exclusions.txt	LTP220	ltpFR	2	1	1	BRIEFCASE	175	n/a	0	n/a	n/a	n/a	n/a	n/a
557.582	n/a	REC_WORD	278791	wordpools/wasnorm_wordpool_less_exclusions.txt	LTP220	ltpFR	2	1	1	ANIMAL	23	n/a	1	n/a	n/a	n/a	n/a	n/a
575.512	n/a	REC_WORD	287756	wordpools/wasnorm_wordpool_less_exclusions.txt	LTP220	ltpFR	2	1	1	MANAGER	863	n/a	1	n/a	n/a	n/a	n/a	n/a
579.41	n/a	REC_WORD	289705	wordpools/wasnorm_wordpool_less_exclusions.txt	LTP220	ltpFR	2	1	1	COLLEGE	346	n/a	3	n/a	n/a	n/a	n/a	n/a
587.026	n/a	REC_WORD	293513	wordpools/wasnorm_wordpool_less_exclusions.txt	LTP220	ltpFR	2	1	1	SCROLL	1257	n/a	0	n/a	n/a	n/a	n/a	n/a
594.126	n/a	REC_WORD	297063	wordpools/wasnorm_wordpool_less_exclusions.txt	LTP220	ltpFR	2	1	1	MAMMAL	861	n/a	2	n/a	n/a	n/a	n/a	n/a
627.442	n/a	REC_WORD	313721	wordpools/wasnorm_wordpool_less_exclusions.txt	LTP220	ltpFR	2	1	1	BRIEFCASE	175	n/a	0	n/a	n/a	n/a	n/a	n/a
639.926	n/a	WORD	319963	wordpools/wasnorm_wordpool_less_exclusions.txt	LTP220	ltpFR	2	2	1	FLESH	579	n/a	1	0	0.5869140625	0.422607421875	upper	../fonts/zerothre.ttf
644.076	n/a	WORD	322038	wordpools/wasnorm_wordpool_less_exclusions.txt	LTP220	ltpFR	2	2	1	CASHIER	254	n/a	1	0	0.5869140625	0.422607421875	upper	../fonts/zerothre.ttf
648.074	n/a	WORD	324037	wordpools/wasnorm_wordpool_less_exclusions.txt	LTP220	ltpFR	2	2	1	ANCHOR	21	n/a	0	0	0.5869140625	0.422607421875	upper	../fonts/zerothre.ttf
652.066	n/a	WORD	326033	wordpools/wasnorm_wordpool_less_exclusions.txt	LTP220	ltpFR	2	2	1	HANDBAG	684	n/a	0	0	0.5869140625	0.422607421875	upper	../fonts/zerothre.ttf
656.12	n/a	WORD	328060	wordpools/wasnorm_wordpool_less_exclusions.txt	LTP220	ltpFR	2	2	0	CHEF	290	n/a	3	1	0.412841796875	0.57763671875	lower	../fonts/amplitud.ttf
657.946	n/a	KEY_MSG	328973	n/a	LTP220	ltpFR	2	2	n/a	n/a	n/a	n/a	n/a	n/a	n/a	n/a	n/a	n/a
660.572	n/a	WORD	330286	wordpools/wasnorm_wordpool_less_exclusions.txt	LTP220	ltpFR	2	2	0	PARSLEY	1016	n/a	n/a	1	0.412841796875	0.57763671875	lower	../fonts/amplitud.ttf
663.616	n/a	SLOW_MSG	331808	n/a	LTP220	ltpFR	2	2	n/a	n/a	n/a	n/a	n/a	n/a	n/a	n/a	n/a	n/a
666.02	n/a	WORD	333010	wordpools/wasnorm_wordpool_less_exclusions.txt	LTP220	ltpFR	2	2	0	ROSE	1212	n/a	n/a	1	0.412841796875	0.57763671875	lower	../fonts/amplitud.ttf
669.064	n/a	SLOW_MSG	334532	n/a	LTP220	ltpFR	2	2	n/a	n/a	n/a	n/a	n/a	n/a	n/a	n/a	n/a	n/a
671.448	n/a	WORD	335724	wordpools/wasnorm_wordpool_less_exclusions.txt	LTP220	ltpFR	2	2	1	ORCHID	982	n/a	n/a	0	0.5869140625	0.422607421875	upper	../fonts/zerothre.ttf
674.492	n/a	SLOW_MSG	337246	n/a	LTP220	ltpFR	2	2	n/a	n/a	n/a	n/a	n/a	n/a	n/a	n/a	n/a	n/a
677.068	n/a	WORD	338534	wordpools/wasnorm_wordpool_less_exclusions.txt	LTP220	ltpFR	2	2	1	KNOT	788	n/a	n/a	0	0.5869140625	0.422607421875	upper	../fonts/zerothre.ttf
680.112	n/a	SLOW_MSG	340056	n/a	LTP220	ltpFR	2	2	n/a	n/a	n/a	n/a	n/a	n/a	n/a	n/a	n/a	n/a
682.782	n/a	WORD	341391	wordpools/wasnorm_wordpool_less_exclusions.txt	LTP220	ltpFR	2	2	1	COIN	343	n/a	n/a	0	0.5869140625	0.422607421875	upper	../fonts/zerothre.ttf
685.828	n/a	SLOW_MSG	342914	n/a	LTP220	ltpFR	2	2	n/a	n/a	n/a	n/a	n/a	n/a	n/a	n/a	n/a	n/a
688.26	n/a	WORD	344130	wordpools/wasnorm_wordpool_less_exclusions.txt	LTP220	ltpFR	2	2	1	ALLIGATOR	16	n/a	n/a	0	0.5869140625	0.422607421875	upper	../fonts/zerothre.ttf
691.306	n/a	SLOW_MSG	345653	n/a	LTP220	ltpFR	2	2	n/a	n/a	n/a	n/a	n/a	n/a	n/a	n/a	n/a	n/a
693.8	n/a	WORD	346900	wordpools/wasnorm_wordpool_less_exclusions.txt	LTP220	ltpFR	2	2	0	SUIT	1402	n/a	2	1	0.412841796875	0.57763671875	lower	../fonts/amplitud.ttf
695.288	n/a	KEY_MSG	347644	n/a	LTP220	ltpFR	2	2	n/a	n/a	n/a	n/a	n/a	n/a	n/a	n/a	n/a	n/a
697.706	n/a	WORD	348853	wordpools/wasnorm_wordpool_less_exclusions.txt	LTP220	ltpFR	2	2	0	TUXEDO	1525	n/a	0	1	0.412841796875	0.57763671875	lower	../fonts/amplitud.ttf
701.864	n/a	WORD	350932	wordpools/wasnorm_wordpool_less_exclusions.txt	LTP220	ltpFR	2	2	0	MARSH	874	n/a	n/a	1	0.412841796875	0.57763671875	lower	../fonts/amplitud.ttf
704.908	n/a	SLOW_MSG	352454	n/a	LTP220	ltpFR	2	2	n/a	n/a	n/a	n/a	n/a	n/a	n/a	n/a	n/a	n/a
707.536	n/a	WORD	353768	wordpools/wasnorm_wordpool_less_exclusions.txt	LTP220	ltpFR	2	2	0	LIVER	833	n/a	n/a	1	0.412841796875	0.57763671875	lower	../fonts/amplitud.ttf
710.58	n/a	SLOW_MSG	355290	n/a	LTP220	ltpFR	2	2	n/a	n/a	n/a	n/a	n/a	n/a	n/a	n/a	n/a	n/a
713.19	n/a	WORD	356595	wordpools/wasnorm_wordpool_less_exclusions.txt	LTP220	ltpFR	2	2	0	CYLINDER	432	n/a	n/a	1	0.412841796875	0.57763671875	lower	../fonts/amplitud.ttf
716.234	n/a	SLOW_MSG	358117	n/a	LTP220	ltpFR	2	2	n/a	n/a	n/a	n/a	n/a	n/a	n/a	n/a	n/a	n/a
720.67	n/a	REC_START	360335	n/a	LTP220	ltpFR	2	2	n/a	n/a	n/a	n/a	n/a	n/a	n/a	n/a	n/a	n/a
722.906	n/a	REC_WORD_VV	361453	wordpools/wasnorm_wordpool_less_exclusions.txt	LTP220	ltpFR	2	2	n/a	<>	-1	n/a	n/a	n/a	n/a	n/a	n/a	n/a
725.858	n/a	REC_WORD	362929	wordpools/wasnorm_wordpool_less_exclusions.txt	LTP220	ltpFR	2	2	1	BRIEFCASE	175	n/a	0	n/a	n/a	n/a	n/a	n/a
733.314	n/a	REC_WORD	366657	wordpools/wasnorm_wordpool_less_exclusions.txt	LTP220	ltpFR	2	2	1	ALLIGATOR	16	n/a	n/a	n/a	n/a	n/a	n/a	n/a
738.6	n/a	REC_WORD	369300	wordpools/wasnorm_wordpool_less_exclusions.txt	LTP220	ltpFR	2	2	0	ROSE	1212	n/a	n/a	n/a	n/a	n/a	n/a	n/a
803.166	n/a	WORD	401583	wordpools/wasnorm_wordpool_less_exclusions.txt	LTP220	ltpFR	2	3	1	TACK	1428	n/a	0	0	0.5869140625	0.422607421875	upper	../fonts/zerothre.ttf
807.198	n/a	WORD	403599	wordpools/wasnorm_wordpool_less_exclusions.txt	LTP220	ltpFR	2	3	1	GENTLEMAN	631	n/a	1	0	0.5869140625	0.422607421875	upper	../fonts/zerothre.ttf
811.03	n/a	WORD	405515	wordpools/wasnorm_wordpool_less_exclusions.txt	LTP220	ltpFR	2	3	1	ARTIST	43	n/a	1	0	0.5869140625	0.422607421875	upper	../fonts/zerothre.ttf
814.978	n/a	WORD	407489	wordpools/wasnorm_wordpool_less_exclusions.txt	LTP220	ltpFR	2	3	1	VEST	1559	n/a	0	0	0.5869140625	0.422607421875	upper	../fonts/zerothre.ttf
818.828	n/a	WORD	409414	wordpools/wasnorm_wordpool_less_exclusions.txt	LTP220	ltpFR	2	3	1	ROBE	1198	n/a	0	0	0.5869140625	0.422607421875	upper	../fonts/zerothre.ttf
822.784	n/a	WORD	411392	wordpools/wasnorm_wordpool_less_exclusions.txt	LTP220	ltpFR	2	3	1	MISTER	901	n/a	1	0	0.5869140625	0.422607421875	upper	../fonts/zerothre.ttf
826.858	n/a	WORD	413429	wordpools/wasnorm_wordpool_less_exclusions.txt	LTP220	ltpFR	2	3	1	PAD	998	n/a	0	0	0.5869140625	0.422607421875	upper	../fonts/zerothre.ttf
830.816	n/a	WORD	415408	wordpools/wasnorm_wordpool_less_exclusions.txt	LTP220	ltpFR	2	3	1	EDITORIAL	517	n/a	0	0	0.5869140625	0.422607421875	upper	../fonts/zerothre.ttf
834.764	n/a	WORD	417382	wordpools/wasnorm_wordpool_less_exclusions.txt	LTP220	ltpFR	2	3	1	PUDDLE	1140	n/a	0	0	0.5869140625	0.422607421875	upper	../fonts/zerothre.ttf
838.88	n/a	WORD	419440	wordpools/wasnorm_wordpool_less_exclusions.txt	LTP220	ltpFR	2	3	1	TAVERN	1437	n/a	0	0	0.5869140625	0.422607421875	upper	../fonts/zerothre.ttf
842.92	n/a	WORD	421460	wordpools/wasnorm_wordpool_less_exclusions.txt	LTP220	ltpFR	2	3	1	WAIST	1579	n/a	1	0	0.5869140625	0.422607421875	upper	../fonts/zerothre.ttf
847.086	n/a	WORD	423543	wordpools/wasnorm_wordpool_less_exclusions.txt	LTP220	ltpFR	2	3	1	WALRUS	1585	n/a	1	0	0.5869140625	0.422607421875	upper	../fonts/zerothre.ttf
851.276	n/a	WORD	425638	wordpools/wasnorm_wordpool_less_exclusions.txt	LTP220	ltpFR	2	3	1	CLAY	320	n/a	0	0	0.5869140625	0.422607421875	upper	../fonts/zerothre.ttf
855.484	n/a	WORD	427742	wordpools/wasnorm_wordpool_less_exclusions.txt	LTP220	ltpFR	2	3	1	SNACK	1331	n/a	0	0	0.5869140625	0.422607421875	upper	../fonts/zerothre.ttf
859.616	n/a	WORD	429808	wordpools/wasnorm_wordpool_less_exclusions.txt	LTP220	ltpFR	2	3	1	PICNIC	1060	n/a	0	0	0.5869140625	0.422607421875	upper	../fonts/zerothre.ttf
863.774	n/a	WORD	431887	wordpools/wasnorm_wordpool_less_exclusions.txt	LTP220	ltpFR	2	3	1	ISLAND	745	n/a	1	0	0.5869140625	0.422607421875	upper	../fonts/zerothre.ttf
869.748	n/a	REC_START	434874	n/a	LTP220	ltpFR	2	3	n/a	n/a	n/a	n/a	n/a	n/a	n/a	n/a	n/a	n/a
871.036	n/a	REC_WORD	435518	wordpools/wasnorm_wordpool_less_exclusions.txt	LTP220	ltpFR	2	3	1	ISLAND	745	n/a	1	n/a	n/a	n/a	n/a	n/a
871.874	n/a	REC_WORD	435937	wordpools/wasnorm_wordpool_less_exclusions.txt	LTP220	ltpFR	2	3	1	PICNIC	1060	n/a	0	n/a	n/a	n/a	n/a	n/a
872.784	n/a	REC_WORD	436392	wordpools/wasnorm_wordpool_less_exclusions.txt	LTP220	ltpFR	2	3	1	WALRUS	1585	n/a	1	n/a	n/a	n/a	n/a	n/a
873.786	n/a	REC_WORD_VV	436893	wordpools/wasnorm_wordpool_less_exclusions.txt	LTP220	ltpFR	2	3	n/a	<>	-1	n/a	n/a	n/a	n/a	n/a	n/a	n/a
875.442	n/a	REC_WORD	437721	wordpools/wasnorm_wordpool_less_exclusions.txt	LTP220	ltpFR	2	3	1	ARTIST	43	n/a	1	n/a	n/a	n/a	n/a	n/a
876.448	n/a	REC_WORD_VV	438224	wordpools/wasnorm_wordpool_less_exclusions.txt	LTP220	ltpFR	2	3	n/a	<>	-1	n/a	n/a	n/a	n/a	n/a	n/a	n/a
878.686	n/a	REC_WORD_VV	439343	wordpools/wasnorm_wordpool_less_exclusions.txt	LTP220	ltpFR	2	3	n/a	<>	-1	n/a	n/a	n/a	n/a	n/a	n/a	n/a
879.696	n/a	REC_WORD_VV	439848	wordpools/wasnorm_wordpool_less_exclusions.txt	LTP220	ltpFR	2	3	n/a	<>	-1	n/a	n/a	n/a	n/a	n/a	n/a	n/a
891.794	n/a	REC_WORD	445897	wordpools/wasnorm_wordpool_less_exclusions.txt	LTP220	ltpFR	2	3	n/a	ART	-1	n/a	n/a	n/a	n/a	n/a	n/a	n/a
913.916	n/a	REC_WORD	456958	wordpools/wasnorm_wordpool_less_exclusions.txt	LTP220	ltpFR	2	3	1	BRIEFCASE	175	n/a	0	n/a	n/a	n/a	n/a	n/a
926.028	n/a	REC_WORD	463014	wordpools/wasnorm_wordpool_less_exclusions.txt	LTP220	ltpFR	2	3	n/a	SWAMP	1416	n/a	n/a	n/a	n/a	n/a	n/a	n/a
927.136	n/a	REC_WORD	463568	wordpools/wasnorm_wordpool_less_exclusions.txt	LTP220	ltpFR	2	3	1	ISLAND	745	n/a	1	n/a	n/a	n/a	n/a	n/a
935.31	n/a	REC_WORD	467655	wordpools/wasnorm_wordpool_less_exclusions.txt	LTP220	ltpFR	2	3	1	PUDDLE	1140	n/a	0	n/a	n/a	n/a	n/a	n/a
952.086	n/a	WORD	476043	wordpools/wasnorm_wordpool_less_exclusions.txt	LTP220	ltpFR	2	4	1	AWARD	63	n/a	0	0	0.5869140625	0.422607421875	upper	../fonts/zerothre.ttf
956.168	n/a	WORD	478084	wordpools/wasnorm_wordpool_less_exclusions.txt	LTP220	ltpFR	2	4	1	MEDAL	885	n/a	0	0	0.5869140625	0.422607421875	upper	../fonts/zerothre.ttf
960.034	n/a	WORD	480017	wordpools/wasnorm_wordpool_less_exclusions.txt	LTP220	ltpFR	2	4	0	DOCK	477	n/a	1	1	0.412841796875	0.57763671875	lower	../fonts/amplitud.ttf
964.208	n/a	WORD	482104	wordpools/wasnorm_wordpool_less_exclusions.txt	LTP220	ltpFR	2	4	0	SPONGE	1355	n/a	n/a	1	0.412841796875	0.57763671875	lower	../fonts/amplitud.ttf
967.252	n/a	SLOW_MSG	483626	n/a	LTP220	ltpFR	2	4	n/a	n/a	n/a	n/a	n/a	n/a	n/a	n/a	n/a	n/a
969.704	n/a	WORD	484852	wordpools/wasnorm_wordpool_less_exclusions.txt	LTP220	ltpFR	2	4	0	GRILL	661	n/a	0	1	0.412841796875	0.57763671875	lower	../fonts/amplitud.ttf
973.602	n/a	WORD	486801	wordpools/wasnorm_wordpool_less_exclusions.txt	LTP220	ltpFR	2	4	0	MICROWAVE	892	n/a	0	1	0.412841796875	0.57763671875	lower	../fonts/amplitud.ttf
977.694	n/a	WORD	488847	wordpools/wasnorm_wordpool_less_exclusions.txt	LTP220	ltpFR	2	4	0	CANNON	232	n/a	0	1	0.412841796875	0.57763671875	lower	../fonts/amplitud.ttf
981.624	n/a	WORD	490812	wordpools/wasnorm_wordpool_less_exclusions.txt	LTP220	ltpFR	2	4	0	STOOL	1386	n/a	0	1	0.412841796875	0.57763671875	lower	../fonts/amplitud.ttf
985.522	n/a	WORD	492761	wordpools/wasnorm_wordpool_less_exclusions.txt	LTP220	ltpFR	2	4	1	WORM	1623	n/a	1	0	0.5869140625	0.422607421875	upper	../fonts/zerothre.ttf
989.462	n/a	WORD	494731	wordpools/wasnorm_wordpool_less_exclusions.txt	LTP220	ltpFR	2	4	1	WINGS	1614	n/a	1	0	0.5869140625	0.422607421875	upper	../fonts/zerothre.ttf
993.444	n/a	WORD	496722	wordpools/wasnorm_wordpool_less_exclusions.txt	LTP220	ltpFR	2	4	1	REEF	1177	n/a	1	0	0.5869140625	0.422607421875	upper	../fonts/zerothre.ttf
997.308	n/a	WORD	498654	wordpools/wasnorm_wordpool_less_exclusions.txt	LTP220	ltpFR	2	4	1	CHIME	300	n/a	0	0	0.5869140625	0.422607421875	upper	../fonts/zerothre.ttf
1001.458	n/a	WORD	500729	wordpools/wasnorm_wordpool_less_exclusions.txt	LTP220	ltpFR	2	4	0	PRESIDENT	1121	n/a	1	1	0.412841796875	0.57763671875	lower	../fonts/amplitud.ttf
1005.684	n/a	WORD	502842	wordpools/wasnorm_wordpool_less_exclusions.txt	LTP220	ltpFR	2	4	0	DUNGEON	507	n/a	1	1	0.412841796875	0.57763671875	lower	../fonts/amplitud.ttf
1009.908	n/a	WORD	504954	wordpools/wasnorm_wordpool_less_exclusions.txt	LTP220	ltpFR	2	4	1	VIKING	1565	n/a	1	0	0.5869140625	0.422607421875	upper	../fonts/zerothre.ttf
1013.982	n/a	WORD	506991	wordpools/wasnorm_wordpool_less_exclusions.txt	LTP220	ltpFR	2	4	1	DIRECTOR	471	n/a	1	0	0.5869140625	0.422607421875	upper	../fonts/zerothre.ttf
1019.822	n/a	REC_START	509911	n/a	LTP220	ltpFR	2	4	n/a	n/a	n/a	n/a	n/a	n/a	n/a	n/a	n/a	n/a
1021.208	n/a	REC_WORD	510604	wordpools/wasnorm_wordpool_less_exclusions.txt	LTP220	ltpFR	2	4	1	DIRECTOR	471	n/a	1	n/a	n/a	n/a	n/a	n/a
1022.014	n/a	REC_WORD	511007	wordpools/wasnorm_wordpool_less_exclusions.txt	LTP220	ltpFR	2	4	1	VIKING	1565	n/a	1	n/a	n/a	n/a	n/a	n/a
1066.712	n/a	REC_WORD	533356	wordpools/wasnorm_wordpool_less_exclusions.txt	LTP220	ltpFR	2	4	0	STOOL	1386	n/a	0	n/a	n/a	n/a	n/a	n/a
1102.168	n/a	WORD	551084	wordpools/wasnorm_wordpool_less_exclusions.txt	LTP220	ltpFR	2	5	1	DETERGENT	455	n/a	0	0	0.5869140625	0.422607421875	upper	../fonts/zerothre.ttf
1106.274	n/a	WORD	553137	wordpools/wasnorm_wordpool_less_exclusions.txt	LTP220	ltpFR	2	5	1	DISHWASHER	475	n/a	0	0	0.5869140625	0.422607421875	upper	../fonts/zerothre.ttf
1110.224	n/a	WORD	555112	wordpools/wasnorm_wordpool_less_exclusions.txt	LTP220	ltpFR	2	5	1	BRICK	172	n/a	0	0	0.5869140625	0.422607421875	upper	../fonts/zerothre.ttf
1114.298	n/a	WORD	557149	wordpools/wasnorm_wordpool_less_exclusions.txt	LTP220	ltpFR	2	5	1	LITERATURE	831	n/a	1	0	0.5869140625	0.422607421875	upper	../fonts/zerothre.ttf
1118.43	n/a	WORD	559215	wordpools/wasnorm_wordpool_less_exclusions.txt	LTP220	ltpFR	2	5	1	PRINCESS	1125	n/a	1	0	0.5869140625	0.422607421875	upper	../fonts/zerothre.ttf
1122.58	n/a	WORD	561290	wordpools/wasnorm_wordpool_less_exclusions.txt	LTP220	ltpFR	2	5	1	CLAM	315	n/a	1	0	0.5869140625	0.422607421875	upper	../fonts/zerothre.ttf
1126.754	n/a	WORD	563377	wordpools/wasnorm_wordpool_less_exclusions.txt	LTP220	ltpFR	2	5	1	BARRACUDA	90	n/a	1	0	0.5869140625	0.422607421875	upper	../fonts/zerothre.ttf
1130.928	n/a	WORD	565464	wordpools/wasnorm_wordpool_less_exclusions.txt	LTP220	ltpFR	2	5	1	PAIL	1002	n/a	0	0	0.5869140625	0.422607421875	upper	../fonts/zerothre.ttf
1134.86	n/a	WORD	567430	wordpools/wasnorm_wordpool_less_exclusions.txt	LTP220	ltpFR	2	5	1	ITEM	746	n/a	0	0	0.5869140625	0.422607421875	upper	../fonts/zerothre.ttf
1138.726	n/a	WORD	569363	wordpools/wasnorm_wordpool_less_exclusions.txt	LTP220	ltpFR	2	5	1	HOOD	714	n/a	0	0	0.5869140625	0.422607421875	upper	../fonts/zerothre.ttf
1142.842	n/a	WORD	571421	wordpools/wasnorm_wordpool_less_exclusions.txt	LTP220	ltpFR	2	5	1	TECHNICIAN	1443	n/a	1	0	0.5869140625	0.422607421875	upper	../fonts/zerothre.ttf
1147.014	n/a	WORD	573507	wordpools/wasnorm_wordpool_less_exclusions.txt	LTP220	ltpFR	2	5	1	CORAL	378	n/a	1	0	0.5869140625	0.422607421875	upper	../fonts/zerothre.ttf
1151.072	n/a	WORD	575536	wordpools/wasnorm_wordpool_less_exclusions.txt	LTP220	ltpFR	2	5	1	LOBSTER	837	n/a	1	0	0.5869140625	0.422607421875	upper	../fonts/zerothre.ttf
1155.27	n/a	WORD	577635	wordpools/wasnorm_wordpool_less_exclusions.txt	LTP220	ltpFR	2	5	1	FAUCET	555	n/a	0	0	0.5869140625	0.422607421875	upper	../fonts/zerothre.ttf
1159.21	n/a	WORD	579605	wordpools/wasnorm_wordpool_less_exclusions.txt	LTP220	ltpFR	2	5	1	CHILD	299	n/a	1	0	0.5869140625	0.422607421875	upper	../fonts/zerothre.ttf
1163.242	n/a	WORD	581621	wordpools/wasnorm_wordpool_less_exclusions.txt	LTP220	ltpFR	2	5	1	DIAPER	459	n/a	0	0	0.5869140625	0.422607421875	upper	../fonts/zerothre.ttf
1169.058	n/a	REC_START	584529	n/a	LTP220	ltpFR	2	5	n/a	n/a	n/a	n/a	n/a	n/a	n/a	n/a	n/a	n/a
1170.256	n/a	REC_WORD	585128	wordpools/wasnorm_wordpool_less_exclusions.txt	LTP220	ltpFR	2	5	1	DIAPER	459	n/a	0	n/a	n/a	n/a	n/a	n/a
1170.804	n/a	REC_WORD	585402	wordpools/wasnorm_wordpool_less_exclusions.txt	LTP220	ltpFR	2	5	1	CHILD	299	n/a	1	n/a	n/a	n/a	n/a	n/a
1171.902	n/a	REC_WORD	585951	wordpools/wasnorm_wordpool_less_exclusions.txt	LTP220	ltpFR	2	5	1	BARRACUDA	90	n/a	1	n/a	n/a	n/a	n/a	n/a
1172.904	n/a	REC_WORD_VV	586452	wordpools/wasnorm_wordpool_less_exclusions.txt	LTP220	ltpFR	2	5	n/a	<>	-1	n/a	n/a	n/a	n/a	n/a	n/a	n/a
1175.438	n/a	REC_WORD	587719	wordpools/wasnorm_wordpool_less_exclusions.txt	LTP220	ltpFR	2	5	1	REEF	1177	n/a	1	n/a	n/a	n/a	n/a	n/a
1176.648	n/a	REC_WORD	588324	wordpools/wasnorm_wordpool_less_exclusions.txt	LTP220	ltpFR	2	5	1	CORAL	378	n/a	1	n/a	n/a	n/a	n/a	n/a
1186.086	n/a	REC_WORD	593043	wordpools/wasnorm_wordpool_less_exclusions.txt	LTP220	ltpFR	2	5	1	CLAM	315	n/a	1	n/a	n/a	n/a	n/a	n/a
1200.768	n/a	REC_WORD	600384	wordpools/wasnorm_wordpool_less_exclusions.txt	LTP220	ltpFR	2	5	1	PRINCESS	1125	n/a	1	n/a	n/a	n/a	n/a	n/a
1213.85	n/a	REC_WORD	606925	wordpools/wasnorm_wordpool_less_exclusions.txt	LTP220	ltpFR	2	5	1	ITEM	746	n/a	0	n/a	n/a	n/a	n/a	n/a
1220.02	n/a	REC_WORD	610010	wordpools/wasnorm_wordpool_less_exclusions.txt	LTP220	ltpFR	2	5	1	TECHNICIAN	1443	n/a	1	n/a	n/a	n/a	n/a	n/a
1251.078	n/a	WORD	625539	wordpools/wasnorm_wordpool_less_exclusions.txt	LTP220	ltpFR	2	6	-1	STORE	1387	n/a	-1	1	1.0	1.0	upper	../fonts/Verdana.ttf
1255.094	n/a	WORD	627547	wordpools/wasnorm_wordpool_less_exclusions.txt	LTP220	ltpFR	2	6	-1	STONE	1385	n/a	-1	1	1.0	1.0	upper	../fonts/Verdana.ttf
1259.076	n/a	WORD	629538	wordpools/wasnorm_wordpool_less_exclusions.txt	LTP220	ltpFR	2	6	-1	DECK	443	n/a	-1	1	1.0	1.0	upper	../fonts/Verdana.ttf
1263.024	n/a	WORD	631512	wordpools/wasnorm_wordpool_less_exclusions.txt	LTP220	ltpFR	2	6	-1	YACHT	1629	n/a	-1	1	1.0	1.0	upper	../fonts/Verdana.ttf
1267.04	n/a	WORD	633520	wordpools/wasnorm_wordpool_less_exclusions.txt	LTP220	ltpFR	2	6	-1	ELEPHANT	523	n/a	-1	1	1.0	1.0	upper	../fonts/Verdana.ttf
1271.006	n/a	WORD	635503	wordpools/wasnorm_wordpool_less_exclusions.txt	LTP220	ltpFR	2	6	-1	OFFICE	972	n/a	-1	1	1.0	1.0	upper	../fonts/Verdana.ttf
1274.938	n/a	WORD	637469	wordpools/wasnorm_wordpool_less_exclusions.txt	LTP220	ltpFR	2	6	-1	BALLERINA	74	n/a	-1	1	1.0	1.0	upper	../fonts/Verdana.ttf
1278.844	n/a	WORD	639422	wordpools/wasnorm_wordpool_less_exclusions.txt	LTP220	ltpFR	2	6	-1	PEBBLE	1035	n/a	-1	1	1.0	1.0	upper	../fonts/Verdana.ttf
1283.0	n/a	WORD	641500	wordpools/wasnorm_wordpool_less_exclusions.txt	LTP220	ltpFR	2	6	-1	PIE	1062	n/a	-1	1	1.0	1.0	upper	../fonts/Verdana.ttf
1287.216	n/a	WORD	643608	wordpools/wasnorm_wordpool_less_exclusions.txt	LTP220	ltpFR	2	6	-1	MICROPHONE	890	n/a	-1	1	1.0	1.0	upper	../fonts/Verdana.ttf
1291.366	n/a	WORD	645683	wordpools/wasnorm_wordpool_less_exclusions.txt	LTP220	ltpFR	2	6	-1	SIRLOIN	1311	n/a	-1	1	1.0	1.0	upper	../fonts/Verdana.ttf
1295.482	n/a	WORD	647741	wordpools/wasnorm_wordpool_less_exclusions.txt	LTP220	ltpFR	2	6	-1	PASTRY	1022	n/a	-1	1	1.0	1.0	upper	../fonts/Verdana.ttf
1299.664	n/a	WORD	649832	wordpools/wasnorm_wordpool_less_exclusions.txt	LTP220	ltpFR	2	6	-1	COLOGNE	347	n/a	-1	1	1.0	1.0	upper	../fonts/Verdana.ttf
1303.622	n/a	WORD	651811	wordpools/wasnorm_wordpool_less_exclusions.txt	LTP220	ltpFR	2	6	-1	GIRAFFE	636	n/a	-1	1	1.0	1.0	upper	../fonts/Verdana.ttf
1307.62	n/a	WORD	653810	wordpools/wasnorm_wordpool_less_exclusions.txt	LTP220	ltpFR	2	6	-1	MAPLE	866	n/a	-1	1	1.0	1.0	upper	../fonts/Verdana.ttf
1311.552	n/a	WORD	655776	wordpools/wasnorm_wordpool_less_exclusions.txt	LTP220	ltpFR	2	6	-1	BUSH	202	n/a	-1	1	1.0	1.0	upper	../fonts/Verdana.ttf
1317.544	n/a	REC_START	658772	n/a	LTP220	ltpFR	2	6	n/a	n/a	n/a	n/a	n/a	n/a	n/a	n/a	n/a	n/a
1318.76	n/a	REC_WORD	659380	wordpools/wasnorm_wordpool_less_exclusions.txt	LTP220	ltpFR	2	6	-1	MAPLE	866	n/a	-1	n/a	n/a	n/a	n/a	n/a
1319.424	n/a	REC_WORD	659712	wordpools/wasnorm_wordpool_less_exclusions.txt	LTP220	ltpFR	2	6	-1	BUSH	202	n/a	-1	n/a	n/a	n/a	n/a	n/a
1320.446	n/a	REC_WORD	660223	wordpools/wasnorm_wordpool_less_exclusions.txt	LTP220	ltpFR	2	6	-1	PEBBLE	1035	n/a	-1	n/a	n/a	n/a	n/a	n/a
1325.072	n/a	REC_WORD	662536	wordpools/wasnorm_wordpool_less_exclusions.txt	LTP220	ltpFR	2	6	-1	ELEPHANT	523	n/a	-1	n/a	n/a	n/a	n/a	n/a
1326.712	n/a	REC_WORD	663356	wordpools/wasnorm_wordpool_less_exclusions.txt	LTP220	ltpFR	2	6	-1	BALLERINA	74	n/a	-1	n/a	n/a	n/a	n/a	n/a
1330.05	n/a	REC_WORD	665025	wordpools/wasnorm_wordpool_less_exclusions.txt	LTP220	ltpFR	2	6	-1	DECK	443	n/a	-1	n/a	n/a	n/a	n/a	n/a
1347.262	n/a	REC_WORD	673631	wordpools/wasnorm_wordpool_less_exclusions.txt	LTP220	ltpFR	2	6	-1	PIE	1062	n/a	-1	n/a	n/a	n/a	n/a	n/a
1400.876	n/a	WORD	700438	wordpools/wasnorm_wordpool_less_exclusions.txt	LTP220	ltpFR	2	7	1	COUCH	386	n/a	0	0	0.5869140625	0.422607421875	upper	../fonts/zerothre.ttf
1404.842	n/a	WORD	702421	wordpools/wasnorm_wordpool_less_exclusions.txt	LTP220	ltpFR	2	7	1	SOFA	1342	n/a	0	0	0.5869140625	0.422607421875	upper	../fonts/zerothre.ttf
1408.966	n/a	WORD	704483	wordpools/wasnorm_wordpool_less_exclusions.txt	LTP220	ltpFR	2	7	1	FLIPPER	580	n/a	1	0	0.5869140625	0.422607421875	upper	../fonts/zerothre.ttf
1412.898	n/a	WORD	706449	wordpools/wasnorm_wordpool_less_exclusions.txt	LTP220	ltpFR	2	7	1	CARDINAL	244	n/a	1	0	0.5869140625	0.422607421875	upper	../fonts/zerothre.ttf
1416.828	n/a	WORD	708414	wordpools/wasnorm_wordpool_less_exclusions.txt	LTP220	ltpFR	2	7	1	POTATO	1115	n/a	1	0	0.5869140625	0.422607421875	upper	../fonts/zerothre.ttf
1420.928	n/a	WORD	710464	wordpools/wasnorm_wordpool_less_exclusions.txt	LTP220	ltpFR	2	7	1	SARDINE	1235	n/a	1	0	0.5869140625	0.422607421875	upper	../fonts/zerothre.ttf
1424.87	n/a	WORD	712435	wordpools/wasnorm_wordpool_less_exclusions.txt	LTP220	ltpFR	2	7	1	POWDER	1117	n/a	0	0	0.5869140625	0.422607421875	upper	../fonts/zerothre.ttf
1429.018	n/a	WORD	714509	wordpools/wasnorm_wordpool_less_exclusions.txt	LTP220	ltpFR	2	7	1	CARRIAGE	248	n/a	0	0	0.5869140625	0.422607421875	upper	../fonts/zerothre.ttf
1433.058	n/a	WORD	716529	wordpools/wasnorm_wordpool_less_exclusions.txt	LTP220	ltpFR	2	7	1	IGLOO	734	n/a	0	0	0.5869140625	0.422607421875	upper	../fonts/zerothre.ttf
1436.922	n/a	WORD	718461	wordpools/wasnorm_wordpool_less_exclusions.txt	LTP220	ltpFR	2	7	1	CITY	314	n/a	1	0	0.5869140625	0.422607421875	upper	../fonts/zerothre.ttf
1440.78	n/a	WORD	720390	wordpools/wasnorm_wordpool_less_exclusions.txt	LTP220	ltpFR	2	7	1	GRIZZLY	662	n/a	0	0	0.5869140625	0.422607421875	upper	../fonts/zerothre.ttf
1444.696	n/a	WORD	722348	wordpools/wasnorm_wordpool_less_exclusions.txt	LTP220	ltpFR	2	7	1	DONKEY	484	n/a	1	0	0.5869140625	0.422607421875	upper	../fonts/zerothre.ttf
1448.726	n/a	WORD	724363	wordpools/wasnorm_wordpool_less_exclusions.txt	LTP220	ltpFR	2	7	1	RIVER	1194	n/a	1	0	0.5869140625	0.422607421875	upper	../fonts/zerothre.ttf
1452.616	n/a	WORD	726308	wordpools/wasnorm_wordpool_less_exclusions.txt	LTP220	ltpFR	2	7	1	SPRINKLE	1359	n/a	0	0	0.5869140625	0.422607421875	upper	../fonts/zerothre.ttf
1456.764	n/a	WORD	728382	wordpools/wasnorm_wordpool_less_exclusions.txt	LTP220	ltpFR	2	7	1	SWAMP	1416	n/a	1	0	0.5869140625	0.422607421875	upper	../fonts/zerothre.ttf
1460.84	n/a	WORD	730420	wordpools/wasnorm_wordpool_less_exclusions.txt	LTP220	ltpFR	2	7	1	ROBIN	1199	n/a	1	0	0.5869140625	0.422607421875	upper	../fonts/zerothre.ttf
1466.854	n/a	REC_START	733427	n/a	LTP220	ltpFR	2	7	n/a	n/a	n/a	n/a	n/a	n/a	n/a	n/a	n/a	n/a
1469.038	n/a	REC_WORD	734519	wordpools/wasnorm_wordpool_less_exclusions.txt	LTP220	ltpFR	2	7	1	SWAMP	1416	n/a	1	n/a	n/a	n/a	n/a	n/a
1470.416	n/a	REC_WORD	735208	wordpools/wasnorm_wordpool_less_exclusions.txt	LTP220	ltpFR	2	7	1	ROBIN	1199	n/a	1	n/a	n/a	n/a	n/a	n/a
1485.224	n/a	REC_WORD	742612	wordpools/wasnorm_wordpool_less_exclusions.txt	LTP220	ltpFR	2	7	1	CITY	314	n/a	1	n/a	n/a	n/a	n/a	n/a
1489.154	n/a	REC_WORD	744577	wordpools/wasnorm_wordpool_less_exclusions.txt	LTP220	ltpFR	2	7	1	GRIZZLY	662	n/a	0	n/a	n/a	n/a	n/a	n/a
1502.63	n/a	REC_WORD	751315	wordpools/wasnorm_wordpool_less_exclusions.txt	LTP220	ltpFR	2	7	1	RIVER	1194	n/a	1	n/a	n/a	n/a	n/a	n/a
1513.51	n/a	REC_WORD	756755	wordpools/wasnorm_wordpool_less_exclusions.txt	LTP220	ltpFR	2	7	1	BARRACUDA	90	n/a	1	n/a	n/a	n/a	n/a	n/a
1517.59	n/a	REC_WORD	758795	wordpools/wasnorm_wordpool_less_exclusions.txt	LTP220	ltpFR	2	7	1	CORAL	378	n/a	1	n/a	n/a	n/a	n/a	n/a
1523.214	n/a	REC_WORD	761607	wordpools/wasnorm_wordpool_less_exclusions.txt	LTP220	ltpFR	2	7	1	REEF	1177	n/a	1	n/a	n/a	n/a	n/a	n/a
1549.478	n/a	WORD	774739	wordpools/wasnorm_wordpool_less_exclusions.txt	LTP220	ltpFR	2	8	1	VESSEL	1558	n/a	n/a	0	0.5869140625	0.422607421875	upper	../fonts/zerothre.ttf
1552.524	n/a	SLOW_MSG	776262	n/a	LTP220	ltpFR	2	8	n/a	n/a	n/a	n/a	n/a	n/a	n/a	n/a	n/a	n/a
1555.042	n/a	WORD	777521	wordpools/wasnorm_wordpool_less_exclusions.txt	LTP220	ltpFR	2	8	1	SIDEWALK	1303	n/a	0	0	0.5869140625	0.422607421875	upper	../fonts/zerothre.ttf
1558.898	n/a	WORD	779449	wordpools/wasnorm_wordpool_less_exclusions.txt	LTP220	ltpFR	2	8	0	HORSE	719	n/a	n/a	1	0.412841796875	0.57763671875	lower	../fonts/amplitud.ttf
1561.942	n/a	SLOW_MSG	780971	n/a	LTP220	ltpFR	2	8	n/a	n/a	n/a	n/a	n/a	n/a	n/a	n/a	n/a	n/a
1564.444	n/a	WORD	782222	wordpools/wasnorm_wordpool_less_exclusions.txt	LTP220	ltpFR	2	8	0	WAITER	1580	n/a	0	1	0.412841796875	0.57763671875	lower	../fonts/amplitud.ttf
1568.306	n/a	WORD	784153	wordpools/wasnorm_wordpool_less_exclusions.txt	LTP220	ltpFR	2	8	0	RACKET	1155	n/a	0	1	0.412841796875	0.57763671875	lower	../fonts/amplitud.ttf
1572.322	n/a	WORD	786161	wordpools/wasnorm_wordpool_less_exclusions.txt	LTP220	ltpFR	2	8	0	STALLION	1369	n/a	1	1	0.412841796875	0.57763671875	lower	../fonts/amplitud.ttf
1576.348	n/a	WORD	788174	wordpools/wasnorm_wordpool_less_exclusions.txt	LTP220	ltpFR	2	8	0	GATE	625	n/a	0	1	0.412841796875	0.57763671875	lower	../fonts/amplitud.ttf
1580.196	n/a	WORD	790098	wordpools/wasnorm_wordpool_less_exclusions.txt	LTP220	ltpFR	2	8	0	DAUGHTER	442	n/a	0	1	0.412841796875	0.57763671875	lower	../fonts/amplitud.ttf
1584.226	n/a	WORD	792113	wordpools/wasnorm_wordpool_less_exclusions.txt	LTP220	ltpFR	2	8	1	FATHER	554	n/a	3	0	0.5869140625	0.422607421875	upper	../fonts/zerothre.ttf
1585.808	n/a	KEY_MSG	792904	n/a	LTP220	ltpFR	2	8	n/a	n/a	n/a	n/a	n/a	n/a	n/a	n/a	n/a	n/a
1588.384	n/a	WORD	794192	wordpools/wasnorm_wordpool_less_exclusions.txt	LTP220	ltpFR	2	8	1	BASKETBALL	96	n/a	0	0	0.5869140625	0.422607421875	upper	../fonts/zerothre.ttf
1592.332	n/a	WORD	796166	wordpools/wasnorm_wordpool_less_exclusions.txt	LTP220	ltpFR	2	8	1	PORTRAIT	1111	n/a	0	0	0.5869140625	0.422607421875	upper	../fonts/zerothre.ttf
1596.28	n/a	WORD	798140	wordpools/wasnorm_wordpool_less_exclusions.txt	LTP220	ltpFR	2	8	1	RIB	1188	n/a	1	0	0.5869140625	0.422607421875	upper	../fonts/zerothre.ttf
1600.406	n/a	WORD	800203	wordpools/wasnorm_wordpool_less_exclusions.txt	LTP220	ltpFR	2	8	1	JUG	762	n/a	0	0	0.5869140625	0.422607421875	upper	../fonts/zerothre.ttf
1604.546	n/a	WORD	802273	wordpools/wasnorm_wordpool_less_exclusions.txt	LTP220	ltpFR	2	8	1	BEVERAGE	123	n/a	0	0	0.5869140625	0.422607421875	upper	../fonts/zerothre.ttf
1608.562	n/a	WORD	804281	wordpools/wasnorm_wordpool_less_exclusions.txt	LTP220	ltpFR	2	8	0	NECKLACE	940	n/a	0	1	0.412841796875	0.57763671875	lower	../fonts/amplitud.ttf
1612.628	n/a	WORD	806314	wordpools/wasnorm_wordpool_less_exclusions.txt	LTP220	ltpFR	2	8	0	WRIST	1626	n/a	0	1	0.412841796875	0.57763671875	lower	../fonts/amplitud.ttf
1618.4	n/a	REC_START	809200	n/a	LTP220	ltpFR	2	8	n/a	n/a	n/a	n/a	n/a	n/a	n/a	n/a	n/a	n/a
1621.01	n/a	REC_WORD	810505	wordpools/wasnorm_wordpool_less_exclusions.txt	LTP220	ltpFR	2	8	0	WRIST	1626	n/a	0	n/a	n/a	n/a	n/a	n/a
1622.01	n/a	REC_WORD_VV	811005	wordpools/wasnorm_wordpool_less_exclusions.txt	LTP220	ltpFR	2	8	n/a	<>	-1	n/a	n/a	n/a	n/a	n/a	n/a	n/a
1626.316	n/a	REC_WORD	813158	wordpools/wasnorm_wordpool_less_exclusions.txt	LTP220	ltpFR	2	8	0	DAUGHTER	442	n/a	0	n/a	n/a	n/a	n/a	n/a
1629.558	n/a	REC_WORD	814779	wordpools/wasnorm_wordpool_less_exclusions.txt	LTP220	ltpFR	2	8	0	STALLION	1369	n/a	1	n/a	n/a	n/a	n/a	n/a
1678.736	n/a	REC_WORD	839368	wordpools/wasnorm_wordpool_less_exclusions.txt	LTP220	ltpFR	2	8	0	GATE	625	n/a	0	n/a	n/a	n/a	n/a	n/a
1683.39	n/a	REC_WORD	841695	wordpools/wasnorm_wordpool_less_exclusions.txt	LTP220	ltpFR	2	8	1	CITY	314	n/a	1	n/a	n/a	n/a	n/a	n/a
1686.408	n/a	REC_WORD	843204	wordpools/wasnorm_wordpool_less_exclusions.txt	LTP220	ltpFR	2	8	1	ISLAND	745	n/a	1	n/a	n/a	n/a	n/a	n/a
1699.266	n/a	WORD	849633	wordpools/wasnorm_wordpool_less_exclusions.txt	LTP220	ltpFR	2	9	-1	SOCK	1339	n/a	-1	1	1.0	1.0	upper	../fonts/Verdana.ttf
1703.098	n/a	WORD	851549	wordpools/wasnorm_wordpool_less_exclusions.txt	LTP220	ltpFR	2	9	-1	CONCRETE	361	n/a	-1	1	1.0	1.0	upper	../fonts/Verdana.ttf
1706.954	n/a	WORD	853477	wordpools/wasnorm_wordpool_less_exclusions.txt	LTP220	ltpFR	2	9	-1	SWING	1421	n/a	-1	1	1.0	1.0	upper	../fonts/Verdana.ttf
1710.87	n/a	WORD	855435	wordpools/wasnorm_wordpool_less_exclusions.txt	LTP220	ltpFR	2	9	-1	CANDY	230	n/a	-1	1	1.0	1.0	upper	../fonts/Verdana.ttf
1714.744	n/a	WORD	857372	wordpools/wasnorm_wordpool_less_exclusions.txt	LTP220	ltpFR	2	9	-1	MINT	898	n/a	-1	1	1.0	1.0	upper	../fonts/Verdana.ttf
1718.916	n/a	WORD	859458	wordpools/wasnorm_wordpool_less_exclusions.txt	LTP220	ltpFR	2	9	-1	DEPUTY	450	n/a	-1	1	1.0	1.0	upper	../fonts/Verdana.ttf
1722.814	n/a	WORD	861407	wordpools/wasnorm_wordpool_less_exclusions.txt	LTP220	ltpFR	2	9	-1	EMPLOYER	532	n/a	-1	1	1.0	1.0	upper	../fonts/Verdana.ttf
1726.898	n/a	WORD	863449	wordpools/wasnorm_wordpool_less_exclusions.txt	LTP220	ltpFR	2	9	-1	HAMPER	682	n/a	-1	1	1.0	1.0	upper	../fonts/Verdana.ttf
1730.754	n/a	WORD	865377	wordpools/wasnorm_wordpool_less_exclusions.txt	LTP220	ltpFR	2	9	-1	TIE	1466	n/a	-1	1	1.0	1.0	upper	../fonts/Verdana.ttf
1734.736	n/a	WORD	867368	wordpools/wasnorm_wordpool_less_exclusions.txt	LTP220	ltpFR	2	9	-1	FACTORY	548	n/a	-1	1	1.0	1.0	upper	../fonts/Verdana.ttf
1738.868	n/a	WORD	869434	wordpools/wasnorm_wordpool_less_exclusions.txt	LTP220	ltpFR	2	9	-1	MOUNTAIN	924	n/a	-1	1	1.0	1.0	upper	../fonts/Verdana.ttf
1743.042	n/a	WORD	871521	wordpools/wasnorm_wordpool_less_exclusions.txt	LTP220	ltpFR	2	9	-1	CLIFF	322	n/a	-1	1	1.0	1.0	upper	../fonts/Verdana.ttf
1747.258	n/a	WORD	873629	wordpools/wasnorm_wordpool_less_exclusions.txt	LTP220	ltpFR	2	9	-1	RAM	1165	n/a	-1	1	1.0	1.0	upper	../fonts/Verdana.ttf
1751.282	n/a	WORD	875641	wordpools/wasnorm_wordpool_less_exclusions.txt	LTP220	ltpFR	2	9	-1	CLOSET	326	n/a	-1	1	1.0	1.0	upper	../fonts/Verdana.ttf
1755.204	n/a	WORD	877602	wordpools/wasnorm_wordpool_less_exclusions.txt	LTP220	ltpFR	2	9	-1	RACCOON	1153	n/a	-1	1	1.0	1.0	upper	../fonts/Verdana.ttf
1759.286	n/a	WORD	879643	wordpools/wasnorm_wordpool_less_exclusions.txt	LTP220	ltpFR	2	9	-1	ACROBAT	4	n/a	-1	1	1.0	1.0	upper	../fonts/Verdana.ttf
1765.228	n/a	REC_START	882614	n/a	LTP220	ltpFR	2	9	n/a	n/a	n/a	n/a	n/a	n/a	n/a	n/a	n/a	n/a
1766.5	n/a	REC_WORD	883250	wordpools/wasnorm_wordpool_less_exclusions.txt	LTP220	ltpFR	2	9	-1	RAM	1165	n/a	-1	n/a	n/a	n/a	n/a	n/a
1768.416	n/a	REC_WORD	884208	wordpools/wasnorm_wordpool_less_exclusions.txt	LTP220	ltpFR	2	9	-1	ACROBAT	4	n/a	-1	n/a	n/a	n/a	n/a	n/a
1769.986	n/a	REC_WORD	884993	wordpools/wasnorm_wordpool_less_exclusions.txt	LTP220	ltpFR	2	9	-1	RACCOON	1153	n/a	-1	n/a	n/a	n/a	n/a	n/a
1771.926	n/a	REC_WORD	885963	wordpools/wasnorm_wordpool_less_exclusions.txt	LTP220	ltpFR	2	9	-1	CLIFF	322	n/a	-1	n/a	n/a	n/a	n/a	n/a
1775.364	n/a	REC_WORD	887682	wordpools/wasnorm_wordpool_less_exclusions.txt	LTP220	ltpFR	2	9	-1	MOUNTAIN	924	n/a	-1	n/a	n/a	n/a	n/a	n/a
1778.008	n/a	REC_WORD	889004	wordpools/wasnorm_wordpool_less_exclusions.txt	LTP220	ltpFR	2	9	-1	TIE	1466	n/a	-1	n/a	n/a	n/a	n/a	n/a
1778.666	n/a	REC_WORD	889333	wordpools/wasnorm_wordpool_less_exclusions.txt	LTP220	ltpFR	2	9	-1	HAMPER	682	n/a	-1	n/a	n/a	n/a	n/a	n/a
1785.532	n/a	REC_WORD	892766	wordpools/wasnorm_wordpool_less_exclusions.txt	LTP220	ltpFR	2	9	-1	CANDY	230	n/a	-1	n/a	n/a	n/a	n/a	n/a
1787.582	n/a	REC_WORD	893791	wordpools/wasnorm_wordpool_less_exclusions.txt	LTP220	ltpFR	2	9	-1	MINT	898	n/a	-1	n/a	n/a	n/a	n/a	n/a
1809.414	n/a	REC_WORD_VV	904707	wordpools/wasnorm_wordpool_less_exclusions.txt	LTP220	ltpFR	2	9	n/a	<>	-1	n/a	n/a	n/a	n/a	n/a	n/a	n/a
1839.39	n/a	REC_WORD	919695	wordpools/wasnorm_wordpool_less_exclusions.txt	LTP220	ltpFR	2	9	-1	RACCOON	1153	n/a	-1	n/a	n/a	n/a	n/a	n/a
1853.59	n/a	WORD	926795	wordpools/wasnorm_wordpool_less_exclusions.txt	LTP220	ltpFR	2	10	-1	BEAN	105	n/a	-1	1	1.0	1.0	upper	../fonts/Verdana.ttf
1857.614	n/a	WORD	928807	wordpools/wasnorm_wordpool_less_exclusions.txt	LTP220	ltpFR	2	10	-1	SPINACH	1352	n/a	-1	1	1.0	1.0	upper	../fonts/Verdana.ttf
1861.688	n/a	WORD	930844	wordpools/wasnorm_wordpool_less_exclusions.txt	LTP220	ltpFR	2	10	-1	BLUEBERRY	140	n/a	-1	1	1.0	1.0	upper	../fonts/Verdana.ttf
1865.844	n/a	WORD	932922	wordpools/wasnorm_wordpool_less_exclusions.txt	LTP220	ltpFR	2	10	-1	PELICAN	1039	n/a	-1	1	1.0	1.0	upper	../fonts/Verdana.ttf
1869.952	n/a	WORD	934976	wordpools/wasnorm_wordpool_less_exclusions.txt	LTP220	ltpFR	2	10	-1	NAPKIN	937	n/a	-1	1	1.0	1.0	upper	../fonts/Verdana.ttf
1874.008	n/a	WORD	937004	wordpools/wasnorm_wordpool_less_exclusions.txt	LTP220	ltpFR	2	10	-1	SHINGLE	1285	n/a	-1	1	1.0	1.0	upper	../fonts/Verdana.ttf
1877.85	n/a	WORD	938925	wordpools/wasnorm_wordpool_less_exclusions.txt	LTP220	ltpFR	2	10	-1	SEAGULL	1261	n/a	-1	1	1.0	1.0	upper	../fonts/Verdana.ttf
1881.982	n/a	WORD	940991	wordpools/wasnorm_wordpool_less_exclusions.txt	LTP220	ltpFR	2	10	-1	STAPLER	1372	n/a	-1	1	1.0	1.0	upper	../fonts/Verdana.ttf
1885.848	n/a	WORD	942924	wordpools/wasnorm_wordpool_less_exclusions.txt	LTP220	ltpFR	2	10	-1	MOUSE	925	n/a	-1	1	1.0	1.0	upper	../fonts/Verdana.ttf
1889.862	n/a	WORD	944931	wordpools/wasnorm_wordpool_less_exclusions.txt	LTP220	ltpFR	2	10	-1	BRAN	167	n/a	-1	1	1.0	1.0	upper	../fonts/Verdana.ttf
1893.726	n/a	WORD	946863	wordpools/wasnorm_wordpool_less_exclusions.txt	LTP220	ltpFR	2	10	-1	BUCKLE	185	n/a	-1	1	1.0	1.0	upper	../fonts/Verdana.ttf
1897.66	n/a	WORD	948830	wordpools/wasnorm_wordpool_less_exclusions.txt	LTP220	ltpFR	2	10	-1	POLE	1097	n/a	-1	1	1.0	1.0	upper	../fonts/Verdana.ttf
1901.616	n/a	WORD	950808	wordpools/wasnorm_wordpool_less_exclusions.txt	LTP220	ltpFR	2	10	-1	BUG	187	n/a	-1	1	1.0	1.0	upper	../fonts/Verdana.ttf
1905.506	n/a	WORD	952753	wordpools/wasnorm_wordpool_less_exclusions.txt	LTP220	ltpFR	2	10	-1	ANT	25	n/a	-1	1	1.0	1.0	upper	../fonts/Verdana.ttf
1909.402	n/a	WORD	954701	wordpools/wasnorm_wordpool_less_exclusions.txt	LTP220	ltpFR	2	10	-1	PIANO	1057	n/a	-1	1	1.0	1.0	upper	../fonts/Verdana.ttf
1913.35	n/a	WORD	956675	wordpools/wasnorm_wordpool_less_exclusions.txt	LTP220	ltpFR	2	10	-1	ARTERY	41	n/a	-1	1	1.0	1.0	upper	../fonts/Verdana.ttf
1919.066	n/a	REC_START	959533	n/a	LTP220	ltpFR	2	10	n/a	n/a	n/a	n/a	n/a	n/a	n/a	n/a	n/a	n/a
1921.094	n/a	REC_WORD	960547	wordpools/wasnorm_wordpool_less_exclusions.txt	LTP220	ltpFR	2	10	-1	ARTERY	41	n/a	-1	n/a	n/a	n/a	n/a	n/a
1922.082	n/a	REC_WORD_VV	961041	wordpools/wasnorm_wordpool_less_exclusions.txt	LTP220	ltpFR	2	10	n/a	<>	-1	n/a	n/a	n/a	n/a	n/a	n/a	n/a
1924.814	n/a	REC_WORD	962407	wordpools/wasnorm_wordpool_less_exclusions.txt	LTP220	ltpFR	2	10	-1	MOUSE	925	n/a	-1	n/a	n/a	n/a	n/a	n/a
1928.874	n/a	REC_WORD	964437	wordpools/wasnorm_wordpool_less_exclusions.txt	LTP220	ltpFR	2	10	-1	BEAN	105	n/a	-1	n/a	n/a	n/a	n/a	n/a
1930.41	n/a	REC_WORD	965205	wordpools/wasnorm_wordpool_less_exclusions.txt	LTP220	ltpFR	2	10	-1	SPINACH	1352	n/a	-1	n/a	n/a	n/a	n/a	n/a
1992.566	n/a	REC_WORD	996283	wordpools/wasnorm_wordpool_less_exclusions.txt	LTP220	ltpFR	2	10	-1	ARTERY	41	n/a	-1	n/a	n/a	n/a	n/a	n/a
2015.374	n/a	WORD	1007687	wordpools/wasnorm_wordpool_less_exclusions.txt	LTP220	ltpFR	2	11	0	BILL	126	n/a	0	1	0.412841796875	0.57763671875	lower	../fonts/amplitud.ttf
2019.466	n/a	WORD	1009733	wordpools/wasnorm_wordpool_less_exclusions.txt	LTP220	ltpFR	2	11	0	GOO	648	n/a	0	1	0.412841796875	0.57763671875	lower	../fonts/amplitud.ttf
2023.346	n/a	WORD	1011673	wordpools/wasnorm_wordpool_less_exclusions.txt	LTP220	ltpFR	2	11	0	DRIVEWAY	500	n/a	1	1	0.412841796875	0.57763671875	lower	../fonts/amplitud.ttf
2027.302	n/a	WORD	1013651	wordpools/wasnorm_wordpool_less_exclusions.txt	LTP220	ltpFR	2	11	0	BARLEY	88	n/a	0	1	0.412841796875	0.57763671875	lower	../fonts/amplitud.ttf
2031.444	n/a	WORD	1015722	wordpools/wasnorm_wordpool_less_exclusions.txt	LTP220	ltpFR	2	11	0	LOUNGE	845	n/a	1	1	0.412841796875	0.57763671875	lower	../fonts/amplitud.ttf
2035.494	n/a	WORD	1017747	wordpools/wasnorm_wordpool_less_exclusions.txt	LTP220	ltpFR	2	11	0	WIRE	1616	n/a	0	1	0.412841796875	0.57763671875	lower	../fonts/amplitud.ttf
2039.484	n/a	WORD	1019742	wordpools/wasnorm_wordpool_less_exclusions.txt	LTP220	ltpFR	2	11	0	SECRETARY	1265	n/a	1	1	0.412841796875	0.57763671875	lower	../fonts/amplitud.ttf
2043.5	n/a	WORD	1021750	wordpools/wasnorm_wordpool_less_exclusions.txt	LTP220	ltpFR	2	11	0	PILLOW	1069	n/a	0	1	0.412841796875	0.57763671875	lower	../fonts/amplitud.ttf
2047.348	n/a	WORD	1023674	wordpools/wasnorm_wordpool_less_exclusions.txt	LTP220	ltpFR	2	11	0	POPCORN	1104	n/a	0	1	0.412841796875	0.57763671875	lower	../fonts/amplitud.ttf
2051.378	n/a	WORD	1025689	wordpools/wasnorm_wordpool_less_exclusions.txt	LTP220	ltpFR	2	11	0	CRAYON	401	n/a	0	1	0.412841796875	0.57763671875	lower	../fonts/amplitud.ttf
2055.234	n/a	WORD	1027617	wordpools/wasnorm_wordpool_less_exclusions.txt	LTP220	ltpFR	2	11	0	OX	994	n/a	1	1	0.412841796875	0.57763671875	lower	../fonts/amplitud.ttf
2059.266	n/a	WORD	1029633	wordpools/wasnorm_wordpool_less_exclusions.txt	LTP220	ltpFR	2	11	0	BARN	89	n/a	1	1	0.412841796875	0.57763671875	lower	../fonts/amplitud.ttf
2063.358	n/a	WORD	1031679	wordpools/wasnorm_wordpool_less_exclusions.txt	LTP220	ltpFR	2	11	0	BOTTLE	153	n/a	0	1	0.412841796875	0.57763671875	lower	../fonts/amplitud.ttf
2067.23	n/a	WORD	1033615	wordpools/wasnorm_wordpool_less_exclusions.txt	LTP220	ltpFR	2	11	0	KITTEN	780	n/a	0	1	0.412841796875	0.57763671875	lower	../fonts/amplitud.ttf
2071.062	n/a	WORD	1035531	wordpools/wasnorm_wordpool_less_exclusions.txt	LTP220	ltpFR	2	11	0	RODENT	1204	n/a	0	1	0.412841796875	0.57763671875	lower	../fonts/amplitud.ttf
2075.178	n/a	WORD	1037589	wordpools/wasnorm_wordpool_less_exclusions.txt	LTP220	ltpFR	2	11	0	JEEP	753	n/a	1	1	0.412841796875	0.57763671875	lower	../fonts/amplitud.ttf
2080.926	n/a	REC_START	1040463	n/a	LTP220	ltpFR	2	11	n/a	n/a	n/a	n/a	n/a	n/a	n/a	n/a	n/a	n/a
2083.646	n/a	REC_WORD	1041823	wordpools/wasnorm_wordpool_less_exclusions.txt	LTP220	ltpFR	2	11	0	JEEP	753	n/a	1	n/a	n/a	n/a	n/a	n/a
2103.196	n/a	REC_WORD	1051598	wordpools/wasnorm_wordpool_less_exclusions.txt	LTP220	ltpFR	2	11	0	CRAYON	401	n/a	0	n/a	n/a	n/a	n/a	n/a
2125.338	n/a	REC_WORD	1062669	wordpools/wasnorm_wordpool_less_exclusions.txt	LTP220	ltpFR	2	11	0	SECRETARY	1265	n/a	1	n/a	n/a	n/a	n/a	n/a
2166.554	n/a	WORD	1083277	wordpools/wasnorm_wordpool_less_exclusions.txt	LTP220	ltpFR	2	12	-1	WAITRESS	1581	n/a	-1	1	1.0	1.0	upper	../fonts/Verdana.ttf
2170.61	n/a	WORD	1085305	wordpools/wasnorm_wordpool_less_exclusions.txt	LTP220	ltpFR	2	12	-1	LUNCH	849	n/a	-1	1	1.0	1.0	upper	../fonts/Verdana.ttf
2174.724	n/a	WORD	1087362	wordpools/wasnorm_wordpool_less_exclusions.txt	LTP220	ltpFR	2	12	-1	BOMB	147	n/a	-1	1	1.0	1.0	upper	../fonts/Verdana.ttf
2178.732	n/a	WORD	1089366	wordpools/wasnorm_wordpool_less_exclusions.txt	LTP220	ltpFR	2	12	-1	SHOELACE	1289	n/a	-1	1	1.0	1.0	upper	../fonts/Verdana.ttf
2182.598	n/a	WORD	1091299	wordpools/wasnorm_wordpool_less_exclusions.txt	LTP220	ltpFR	2	12	-1	PARCEL	1012	n/a	-1	1	1.0	1.0	upper	../fonts/Verdana.ttf
2186.788	n/a	WORD	1093394	wordpools/wasnorm_wordpool_less_exclusions.txt	LTP220	ltpFR	2	12	-1	ANTLER	29	n/a	-1	1	1.0	1.0	upper	../fonts/Verdana.ttf
2190.712	n/a	WORD	1095356	wordpools/wasnorm_wordpool_less_exclusions.txt	LTP220	ltpFR	2	12	-1	DEER	444	n/a	-1	1	1.0	1.0	upper	../fonts/Verdana.ttf
2194.818	n/a	WORD	1097409	wordpools/wasnorm_wordpool_less_exclusions.txt	LTP220	ltpFR	2	12	-1	LETTER	813	n/a	-1	1	1.0	1.0	upper	../fonts/Verdana.ttf
2198.76	n/a	WORD	1099380	wordpools/wasnorm_wordpool_less_exclusions.txt	LTP220	ltpFR	2	12	-1	WELL	1600	n/a	-1	1	1.0	1.0	upper	../fonts/Verdana.ttf
2202.582	n/a	WORD	1101291	wordpools/wasnorm_wordpool_less_exclusions.txt	LTP220	ltpFR	2	12	-1	TREAD	1499	n/a	-1	1	1.0	1.0	upper	../fonts/Verdana.ttf
2206.706	n/a	WORD	1103353	wordpools/wasnorm_wordpool_less_exclusions.txt	LTP220	ltpFR	2	12	-1	CANDIDATE	228	n/a	-1	1	1.0	1.0	upper	../fonts/Verdana.ttf
2210.914	n/a	WORD	1105457	wordpools/wasnorm_wordpool_less_exclusions.txt	LTP220	ltpFR	2	12	-1	TURKEY	1520	n/a	-1	1	1.0	1.0	upper	../fonts/Verdana.ttf
2214.754	n/a	WORD	1107377	wordpools/wasnorm_wordpool_less_exclusions.txt	LTP220	ltpFR	2	12	-1	SHRIMP	1297	n/a	-1	1	1.0	1.0	upper	../fonts/Verdana.ttf
2218.91	n/a	WORD	1109455	wordpools/wasnorm_wordpool_less_exclusions.txt	LTP220	ltpFR	2	12	-1	SHRUB	1299	n/a	-1	1	1.0	1.0	upper	../fonts/Verdana.ttf
2222.826	n/a	WORD	1111413	wordpools/wasnorm_wordpool_less_exclusions.txt	LTP220	ltpFR	2	12	-1	TRIANGLE	1504	n/a	-1	1	1.0	1.0	upper	../fonts/Verdana.ttf
2226.918	n/a	WORD	1113459	wordpools/wasnorm_wordpool_less_exclusions.txt	LTP220	ltpFR	2	12	-1	COD	340	n/a	-1	1	1.0	1.0	upper	../fonts/Verdana.ttf
2232.58	n/a	REC_START	1116290	n/a	LTP220	ltpFR	2	12	n/a	n/a	n/a	n/a	n/a	n/a	n/a	n/a	n/a	n/a
2233.796	n/a	REC_WORD	1116898	wordpools/wasnorm_wordpool_less_exclusions.txt	LTP220	ltpFR	2	12	-1	COD	340	n/a	-1	n/a	n/a	n/a	n/a	n/a
2234.446	n/a	REC_WORD	1117223	wordpools/wasnorm_wordpool_less_exclusions.txt	LTP220	ltpFR	2	12	-1	TRIANGLE	1504	n/a	-1	n/a	n/a	n/a	n/a	n/a
2235.444	n/a	REC_WORD_VV	1117722	wordpools/wasnorm_wordpool_less_exclusions.txt	LTP220	ltpFR	2	12	n/a	<>	-1	n/a	n/a	n/a	n/a	n/a	n/a	n/a
2235.812	n/a	REC_WORD	1117906	wordpools/wasnorm_wordpool_less_exclusions.txt	LTP220	ltpFR	2	12	-1	ANTLER	29	n/a	-1	n/a	n/a	n/a	n/a	n/a
2236.814	n/a	REC_WORD_VV	1118407	wordpools/wasnorm_wordpool_less_exclusions.txt	LTP220	ltpFR	2	12	n/a	<>	-1	n/a	n/a	n/a	n/a	n/a	n/a	n/a
2237.11	n/a	REC_WORD	1118555	wordpools/wasnorm_wordpool_less_exclusions.txt	LTP220	ltpFR	2	12	-1	DEER	444	n/a	-1	n/a	n/a	n/a	n/a	n/a
2238.616	n/a	REC_WORD	1119308	wordpools/wasnorm_wordpool_less_exclusions.txt	LTP220	ltpFR	2	12	-1	WAITRESS	1581	n/a	-1	n/a	n/a	n/a	n/a	n/a
2239.324	n/a	REC_WORD	1119662	wordpools/wasnorm_wordpool_less_exclusions.txt	LTP220	ltpFR	2	12	-1	LUNCH	849	n/a	-1	n/a	n/a	n/a	n/a	n/a
2242.192	n/a	REC_WORD_VV	1121096	wordpools/wasnorm_wordpool_less_exclusions.txt	LTP220	ltpFR	2	12	n/a	<>	-1	n/a	n/a	n/a	n/a	n/a	n/a	n/a
2248.264	n/a	REC_WORD	1124132	wordpools/wasnorm_wordpool_less_exclusions.txt	LTP220	ltpFR	2	12	-1	SHRIMP	1297	n/a	-1	n/a	n/a	n/a	n/a	n/a
2250.286	n/a	REC_WORD	1125143	wordpools/wasnorm_wordpool_less_exclusions.txt	LTP220	ltpFR	2	12	-1	TURKEY	1520	n/a	-1	n/a	n/a	n/a	n/a	n/a
2255.44	n/a	REC_WORD	1127720	wordpools/wasnorm_wordpool_less_exclusions.txt	LTP220	ltpFR	2	12	-1	WELL	1600	n/a	-1	n/a	n/a	n/a	n/a	n/a
2257.474	n/a	REC_WORD	1128737	wordpools/wasnorm_wordpool_less_exclusions.txt	LTP220	ltpFR	2	12	-1	LETTER	813	n/a	-1	n/a	n/a	n/a	n/a	n/a
2258.892	n/a	REC_WORD	1129446	wordpools/wasnorm_wordpool_less_exclusions.txt	LTP220	ltpFR	2	12	-1	TREAD	1499	n/a	-1	n/a	n/a	n/a	n/a	n/a
2274.052	n/a	REC_WORD	1137026	wordpools/wasnorm_wordpool_less_exclusions.txt	LTP220	ltpFR	2	12	-1	TRIANGLE	1504	n/a	-1	n/a	n/a	n/a	n/a	n/a
2308.226	n/a	REST_REWET	1154113	n/a	LTP220	ltpFR	2	12	n/a	n/a	n/a	n/a	n/a	n/a	n/a	n/a	n/a	n/a
2678.568	n/a	WORD	1339284	wordpools/wasnorm_wordpool_less_exclusions.txt	LTP220	ltpFR	2	13	0	FLEA	577	n/a	0	1	0.412841796875	0.57763671875	lower	../fonts/amplitud.ttf
2682.608	n/a	WORD	1341304	wordpools/wasnorm_wordpool_less_exclusions.txt	LTP220	ltpFR	2	13	0	CHERRY	293	n/a	0	1	0.412841796875	0.57763671875	lower	../fonts/amplitud.ttf
2686.708	n/a	WORD	1343354	wordpools/wasnorm_wordpool_less_exclusions.txt	LTP220	ltpFR	2	13	0	BISON	131	n/a	1	1	0.412841796875	0.57763671875	lower	../fonts/amplitud.ttf
2690.806	n/a	WORD	1345403	wordpools/wasnorm_wordpool_less_exclusions.txt	LTP220	ltpFR	2	13	0	COLLAR	345	n/a	0	1	0.412841796875	0.57763671875	lower	../fonts/amplitud.ttf
2695.006	n/a	WORD	1347503	wordpools/wasnorm_wordpool_less_exclusions.txt	LTP220	ltpFR	2	13	0	NEST	945	n/a	0	1	0.412841796875	0.57763671875	lower	../fonts/amplitud.ttf
2699.038	n/a	WORD	1349519	wordpools/wasnorm_wordpool_less_exclusions.txt	LTP220	ltpFR	2	13	0	PENGUIN	1044	n/a	0	1	0.412841796875	0.57763671875	lower	../fonts/amplitud.ttf
2703.044	n/a	WORD	1351522	wordpools/wasnorm_wordpool_less_exclusions.txt	LTP220	ltpFR	2	13	0	LANDSCAPE	799	n/a	1	1	0.412841796875	0.57763671875	lower	../fonts/amplitud.ttf
2707.076	n/a	WORD	1353538	wordpools/wasnorm_wordpool_less_exclusions.txt	LTP220	ltpFR	2	13	0	CELERY	266	n/a	0	1	0.412841796875	0.57763671875	lower	../fonts/amplitud.ttf
2711.152	n/a	WORD	1355576	wordpools/wasnorm_wordpool_less_exclusions.txt	LTP220	ltpFR	2	13	0	VISITOR	1573	n/a	0	1	0.412841796875	0.57763671875	lower	../fonts/amplitud.ttf
2715.35	n/a	WORD	1357675	wordpools/wasnorm_wordpool_less_exclusions.txt	LTP220	ltpFR	2	13	0	SNAKE	1333	n/a	0	1	0.412841796875	0.57763671875	lower	../fonts/amplitud.ttf
2719.406	n/a	WORD	1359703	wordpools/wasnorm_wordpool_less_exclusions.txt	LTP220	ltpFR	2	13	0	BLACKBOARD	133	n/a	1	1	0.412841796875	0.57763671875	lower	../fonts/amplitud.ttf
2723.404	n/a	WORD	1361702	wordpools/wasnorm_wordpool_less_exclusions.txt	LTP220	ltpFR	2	13	0	FELLOW	558	n/a	0	1	0.412841796875	0.57763671875	lower	../fonts/amplitud.ttf
2727.53	n/a	WORD	1363765	wordpools/wasnorm_wordpool_less_exclusions.txt	LTP220	ltpFR	2	13	0	SALT	1229	n/a	0	1	0.412841796875	0.57763671875	lower	../fonts/amplitud.ttf
2731.554	n/a	WORD	1365777	wordpools/wasnorm_wordpool_less_exclusions.txt	LTP220	ltpFR	2	13	0	CASH	252	n/a	0	1	0.412841796875	0.57763671875	lower	../fonts/amplitud.ttf
2735.416	n/a	WORD	1367708	wordpools/wasnorm_wordpool_less_exclusions.txt	LTP220	ltpFR	2	13	0	GREASE	660	n/a	0	1	0.412841796875	0.57763671875	lower	../fonts/amplitud.ttf
2739.492	n/a	WORD	1369746	wordpools/wasnorm_wordpool_less_exclusions.txt	LTP220	ltpFR	2	13	0	VALVE	1546	n/a	0	1	0.412841796875	0.57763671875	lower	../fonts/amplitud.ttf
2745.532	n/a	REC_START	1372766	n/a	LTP220	ltpFR	2	13	n/a	n/a	n/a	n/a	n/a	n/a	n/a	n/a	n/a	n/a
2747.1	n/a	REC_WORD	1373550	wordpools/wasnorm_wordpool_less_exclusions.txt	LTP220	ltpFR	2	13	0	GREASE	660	n/a	0	n/a	n/a	n/a	n/a	n/a
2748.236	n/a	REC_WORD	1374118	wordpools/wasnorm_wordpool_less_exclusions.txt	LTP220	ltpFR	2	13	0	VALVE	1546	n/a	0	n/a	n/a	n/a	n/a	n/a
2749.234	n/a	REC_WORD_VV	1374617	wordpools/wasnorm_wordpool_less_exclusions.txt	LTP220	ltpFR	2	13	n/a	<>	-1	n/a	n/a	n/a	n/a	n/a	n/a	n/a
2751.47	n/a	REC_WORD_VV	1375735	wordpools/wasnorm_wordpool_less_exclusions.txt	LTP220	ltpFR	2	13	n/a	<>	-1	n/a	n/a	n/a	n/a	n/a	n/a	n/a
2752.47	n/a	REC_WORD_VV	1376235	wordpools/wasnorm_wordpool_less_exclusions.txt	LTP220	ltpFR	2	13	n/a	<>	-1	n/a	n/a	n/a	n/a	n/a	n/a	n/a
2753.474	n/a	REC_WORD_VV	1376737	wordpools/wasnorm_wordpool_less_exclusions.txt	LTP220	ltpFR	2	13	n/a	<>	-1	n/a	n/a	n/a	n/a	n/a	n/a	n/a
2778.12	n/a	REC_WORD	1389060	wordpools/wasnorm_wordpool_less_exclusions.txt	LTP220	ltpFR	2	13	0	NEST	945	n/a	0	n/a	n/a	n/a	n/a	n/a
2834.74	n/a	WORD	1417370	wordpools/wasnorm_wordpool_less_exclusions.txt	LTP220	ltpFR	2	14	0	STEAM	1375	n/a	0	1	0.412841796875	0.57763671875	lower	../fonts/amplitud.ttf
2838.594	n/a	WORD	1419297	wordpools/wasnorm_wordpool_less_exclusions.txt	LTP220	ltpFR	2	14	0	WALLET	1583	n/a	0	1	0.412841796875	0.57763671875	lower	../fonts/amplitud.ttf
2842.594	n/a	WORD	1421297	wordpools/wasnorm_wordpool_less_exclusions.txt	LTP220	ltpFR	2	14	0	LEMON	810	n/a	0	1	0.412841796875	0.57763671875	lower	../fonts/amplitud.ttf
2846.794	n/a	WORD	1423397	wordpools/wasnorm_wordpool_less_exclusions.txt	LTP220	ltpFR	2	14	0	STAMP	1370	n/a	0	1	0.412841796875	0.57763671875	lower	../fonts/amplitud.ttf
2850.758	n/a	WORD	1425379	wordpools/wasnorm_wordpool_less_exclusions.txt	LTP220	ltpFR	2	14	0	CARPENTER	246	n/a	1	1	0.412841796875	0.57763671875	lower	../fonts/amplitud.ttf
2854.95	n/a	WORD	1427475	wordpools/wasnorm_wordpool_less_exclusions.txt	LTP220	ltpFR	2	14	0	DRAGON	492	n/a	1	1	0.412841796875	0.57763671875	lower	../fonts/amplitud.ttf
2859.106	n/a	WORD	1429553	wordpools/wasnorm_wordpool_less_exclusions.txt	LTP220	ltpFR	2	14	0	BRIDGE	174	n/a	1	1	0.412841796875	0.57763671875	lower	../fonts/amplitud.ttf
2863.056	n/a	WORD	1431528	wordpools/wasnorm_wordpool_less_exclusions.txt	LTP220	ltpFR	2	14	0	DANDELION	438	n/a	0	1	0.412841796875	0.57763671875	lower	../fonts/amplitud.ttf
2867.146	n/a	WORD	1433573	wordpools/wasnorm_wordpool_less_exclusions.txt	LTP220	ltpFR	2	14	0	CACTUS	215	n/a	1	1	0.412841796875	0.57763671875	lower	../fonts/amplitud.ttf
2870.994	n/a	WORD	1435497	wordpools/wasnorm_wordpool_less_exclusions.txt	LTP220	ltpFR	2	14	0	SUPERMARKET	1409	n/a	1	1	0.412841796875	0.57763671875	lower	../fonts/amplitud.ttf
2874.96	n/a	WORD	1437480	wordpools/wasnorm_wordpool_less_exclusions.txt	LTP220	ltpFR	2	14	0	TAPE	1433	n/a	0	1	0.412841796875	0.57763671875	lower	../fonts/amplitud.ttf
2879.0	n/a	WORD	1439500	wordpools/wasnorm_wordpool_less_exclusions.txt	LTP220	ltpFR	2	14	0	DETECTIVE	454	n/a	1	1	0.412841796875	0.57763671875	lower	../fonts/amplitud.ttf
2882.94	n/a	WORD	1441470	wordpools/wasnorm_wordpool_less_exclusions.txt	LTP220	ltpFR	2	14	0	SHERIFF	1284	n/a	1	1	0.412841796875	0.57763671875	lower	../fonts/amplitud.ttf
2887.09	n/a	WORD	1443545	wordpools/wasnorm_wordpool_less_exclusions.txt	LTP220	ltpFR	2	14	0	BLACKBERRY	132	n/a	0	1	0.412841796875	0.57763671875	lower	../fonts/amplitud.ttf
2891.172	n/a	WORD	1445586	wordpools/wasnorm_wordpool_less_exclusions.txt	LTP220	ltpFR	2	14	0	TROMBONE	1508	n/a	0	1	0.412841796875	0.57763671875	lower	../fonts/amplitud.ttf
2895.01	n/a	WORD	1447505	wordpools/wasnorm_wordpool_less_exclusions.txt	LTP220	ltpFR	2	14	0	TOOTHBRUSH	1482	n/a	0	1	0.412841796875	0.57763671875	lower	../fonts/amplitud.ttf
2900.994	n/a	REC_START	1450497	n/a	LTP220	ltpFR	2	14	n/a	n/a	n/a	n/a	n/a	n/a	n/a	n/a	n/a	n/a
2902.71	n/a	REC_WORD	1451355	wordpools/wasnorm_wordpool_less_exclusions.txt	LTP220	ltpFR	2	14	0	TOOTHBRUSH	1482	n/a	0	n/a	n/a	n/a	n/a	n/a
2903.712	n/a	REC_WORD_VV	1451856	wordpools/wasnorm_wordpool_less_exclusions.txt	LTP220	ltpFR	2	14	n/a	<>	-1	n/a	n/a	n/a	n/a	n/a	n/a	n/a
2904.238	n/a	REC_WORD	1452119	wordpools/wasnorm_wordpool_less_exclusions.txt	LTP220	ltpFR	2	14	0	BLACKBERRY	132	n/a	0	n/a	n/a	n/a	n/a	n/a
2905.236	n/a	REC_WORD_VV	1452618	wordpools/wasnorm_wordpool_less_exclusions.txt	LTP220	ltpFR	2	14	n/a	<>	-1	n/a	n/a	n/a	n/a	n/a	n/a	n/a
2905.768	n/a	REC_WORD	1452884	wordpools/wasnorm_wordpool_less_exclusions.txt	LTP220	ltpFR	2	14	0	CARPENTER	246	n/a	1	n/a	n/a	n/a	n/a	n/a
2932.464	n/a	REC_WORD	1466232	wordpools/wasnorm_wordpool_less_exclusions.txt	LTP220	ltpFR	2	14	0	DANDELION	438	n/a	0	n/a	n/a	n/a	n/a	n/a
2947.93	n/a	REC_WORD	1473965	wordpools/wasnorm_wordpool_less_exclusions.txt	LTP220	ltpFR	2	14	0	SHERIFF	1284	n/a	1	n/a	n/a	n/a	n/a	n/a
2949.88	n/a	REC_WORD	1474940	wordpools/wasnorm_wordpool_less_exclusions.txt	LTP220	ltpFR	2	14	0	DETECTIVE	454	n/a	1	n/a	n/a	n/a	n/a	n/a
2950.882	n/a	REC_WORD_VV	1475441	wordpools/wasnorm_wordpool_less_exclusions.txt	LTP220	ltpFR	2	14	n/a	<>	-1	n/a	n/a	n/a	n/a	n/a	n/a	n/a
2984.68	n/a	WORD	1492340	wordpools/wasnorm_wordpool_less_exclusions.txt	LTP220	ltpFR	2	15	0	ORNAMENT	985	n/a	0	1	0.412841796875	0.57763671875	lower	../fonts/amplitud.ttf
2988.786	n/a	WORD	1494393	wordpools/wasnorm_wordpool_less_exclusions.txt	LTP220	ltpFR	2	15	0	ROOT	1210	n/a	0	1	0.412841796875	0.57763671875	lower	../fonts/amplitud.ttf
2992.912	n/a	WORD	1496456	wordpools/wasnorm_wordpool_less_exclusions.txt	LTP220	ltpFR	2	15	1	CHAIN	273	n/a	n/a	0	0.5869140625	0.422607421875	upper	../fonts/zerothre.ttf
2995.956	n/a	SLOW_MSG	1497978	n/a	LTP220	ltpFR	2	15	n/a	n/a	n/a	n/a	n/a	n/a	n/a	n/a	n/a	n/a
2998.566	n/a	WORD	1499283	wordpools/wasnorm_wordpool_less_exclusions.txt	LTP220	ltpFR	2	15	1	PIKE	1067	n/a	0	0	0.5869140625	0.422607421875	upper	../fonts/zerothre.ttf
3002.748	n/a	WORD	1501374	wordpools/wasnorm_wordpool_less_exclusions.txt	LTP220	ltpFR	2	15	1	SALMON	1227	n/a	1	0	0.5869140625	0.422607421875	upper	../fonts/zerothre.ttf
3006.888	n/a	WORD	1503444	wordpools/wasnorm_wordpool_less_exclusions.txt	LTP220	ltpFR	2	15	1	HAYSTACK	694	n/a	0	0	0.5869140625	0.422607421875	upper	../fonts/zerothre.ttf
3010.802	n/a	WORD	1505401	wordpools/wasnorm_wordpool_less_exclusions.txt	LTP220	ltpFR	2	15	0	WITCH	1617	n/a	0	1	0.412841796875	0.57763671875	lower	../fonts/amplitud.ttf
3015.012	n/a	WORD	1507506	wordpools/wasnorm_wordpool_less_exclusions.txt	LTP220	ltpFR	2	15	0	SEAL	1262	n/a	1	1	0.412841796875	0.57763671875	lower	../fonts/amplitud.ttf
3019.028	n/a	WORD	1509514	wordpools/wasnorm_wordpool_less_exclusions.txt	LTP220	ltpFR	2	15	0	STICKER	1382	n/a	0	1	0.412841796875	0.57763671875	lower	../fonts/amplitud.ttf
3023.134	n/a	WORD	1511567	wordpools/wasnorm_wordpool_less_exclusions.txt	LTP220	ltpFR	2	15	0	CHAUFFEUR	283	n/a	1	1	0.412841796875	0.57763671875	lower	../fonts/amplitud.ttf
3027.274	n/a	WORD	1513637	wordpools/wasnorm_wordpool_less_exclusions.txt	LTP220	ltpFR	2	15	0	PADDING	999	n/a	0	1	0.412841796875	0.57763671875	lower	../fonts/amplitud.ttf
3031.348	n/a	WORD	1515674	wordpools/wasnorm_wordpool_less_exclusions.txt	LTP220	ltpFR	2	15	0	COB	334	n/a	0	1	0.412841796875	0.57763671875	lower	../fonts/amplitud.ttf
3035.388	n/a	WORD	1517694	wordpools/wasnorm_wordpool_less_exclusions.txt	LTP220	ltpFR	2	15	1	PUMPKIN	1142	n/a	n/a	0	0.5869140625	0.422607421875	upper	../fonts/zerothre.ttf
3038.434	n/a	SLOW_MSG	1519217	n/a	LTP220	ltpFR	2	15	n/a	n/a	n/a	n/a	n/a	n/a	n/a	n/a	n/a	n/a
3040.894	n/a	WORD	1520447	wordpools/wasnorm_wordpool_less_exclusions.txt	LTP220	ltpFR	2	15	1	GAZELLE	628	n/a	1	0	0.5869140625	0.422607421875	upper	../fonts/zerothre.ttf
3044.9	n/a	WORD	1522450	wordpools/wasnorm_wordpool_less_exclusions.txt	LTP220	ltpFR	2	15	1	OPERA	978	n/a	1	0	0.5869140625	0.422607421875	upper	../fonts/zerothre.ttf
3048.932	n/a	WORD	1524466	wordpools/wasnorm_wordpool_less_exclusions.txt	LTP220	ltpFR	2	15	1	THIMBLE	1458	n/a	0	0	0.5869140625	0.422607421875	upper	../fonts/zerothre.ttf
3054.514	n/a	REC_START	1527257	n/a	LTP220	ltpFR	2	15	n/a	n/a	n/a	n/a	n/a	n/a	n/a	n/a	n/a	n/a
3055.75	n/a	REC_WORD	1527875	wordpools/wasnorm_wordpool_less_exclusions.txt	LTP220	ltpFR	2	15	1	THIMBLE	1458	n/a	0	n/a	n/a	n/a	n/a	n/a
3056.724	n/a	REC_WORD	1528362	wordpools/wasnorm_wordpool_less_exclusions.txt	LTP220	ltpFR	2	15	1	OPERA	978	n/a	1	n/a	n/a	n/a	n/a	n/a
3064.9	n/a	REC_WORD	1532450	wordpools/wasnorm_wordpool_less_exclusions.txt	LTP220	ltpFR	2	15	0	COB	334	n/a	0	n/a	n/a	n/a	n/a	n/a
3089.782	n/a	REC_WORD	1544891	wordpools/wasnorm_wordpool_less_exclusions.txt	LTP220	ltpFR	2	15	0	LANDSCAPE	799	n/a	1	n/a	n/a	n/a	n/a	n/a
3097.0	n/a	REC_WORD	1548500	wordpools/wasnorm_wordpool_less_exclusions.txt	LTP220	ltpFR	2	15	0	WITCH	1617	n/a	0	n/a	n/a	n/a	n/a	n/a
3101.914	n/a	REC_WORD	1550957	wordpools/wasnorm_wordpool_less_exclusions.txt	LTP220	ltpFR	2	15	1	GAZELLE	628	n/a	1	n/a	n/a	n/a	n/a	n/a
3103.474	n/a	REC_WORD	1551737	wordpools/wasnorm_wordpool_less_exclusions.txt	LTP220	ltpFR	2	15	-1	GIRAFFE	636	n/a	-1	n/a	n/a	n/a	n/a	n/a
3134.266	n/a	WORD	1567133	wordpools/wasnorm_wordpool_less_exclusions.txt	LTP220	ltpFR	2	16	0	LUMBER	848	n/a	0	1	0.412841796875	0.57763671875	lower	../fonts/amplitud.ttf
3138.382	n/a	WORD	1569191	wordpools/wasnorm_wordpool_less_exclusions.txt	LTP220	ltpFR	2	16	0	SHOULDER	1294	n/a	0	1	0.412841796875	0.57763671875	lower	../fonts/amplitud.ttf
3142.388	n/a	WORD	1571194	wordpools/wasnorm_wordpool_less_exclusions.txt	LTP220	ltpFR	2	16	0	COCKTAIL	338	n/a	0	1	0.412841796875	0.57763671875	lower	../fonts/amplitud.ttf
3146.346	n/a	WORD	1573173	wordpools/wasnorm_wordpool_less_exclusions.txt	LTP220	ltpFR	2	16	0	TOWEL	1489	n/a	0	1	0.412841796875	0.57763671875	lower	../fonts/amplitud.ttf
3150.344	n/a	WORD	1575172	wordpools/wasnorm_wordpool_less_exclusions.txt	LTP220	ltpFR	2	16	1	MOAT	903	n/a	n/a	0	0.5869140625	0.422607421875	upper	../fonts/zerothre.ttf
3153.39	n/a	SLOW_MSG	1576695	n/a	LTP220	ltpFR	2	16	n/a	n/a	n/a	n/a	n/a	n/a	n/a	n/a	n/a	n/a
3155.84	n/a	WORD	1577920	wordpools/wasnorm_wordpool_less_exclusions.txt	LTP220	ltpFR	2	16	1	MICROSCOPE	891	n/a	0	0	0.5869140625	0.422607421875	upper	../fonts/zerothre.ttf
3159.672	n/a	WORD	1579836	wordpools/wasnorm_wordpool_less_exclusions.txt	LTP220	ltpFR	2	16	1	CROWN	415	n/a	0	0	0.5869140625	0.422607421875	upper	../fonts/zerothre.ttf
3163.764	n/a	WORD	1581882	wordpools/wasnorm_wordpool_less_exclusions.txt	LTP220	ltpFR	2	16	1	RULER	1216	n/a	0	0	0.5869140625	0.422607421875	upper	../fonts/zerothre.ttf
3167.786	n/a	WORD	1583893	wordpools/wasnorm_wordpool_less_exclusions.txt	LTP220	ltpFR	2	16	1	COMEDIAN	352	n/a	0	0	0.5869140625	0.422607421875	upper	../fonts/zerothre.ttf
3171.978	n/a	WORD	1585989	wordpools/wasnorm_wordpool_less_exclusions.txt	LTP220	ltpFR	2	16	0	GUARDIAN	668	n/a	1	1	0.412841796875	0.57763671875	lower	../fonts/amplitud.ttf
3176.044	n/a	WORD	1588022	wordpools/wasnorm_wordpool_less_exclusions.txt	LTP220	ltpFR	2	16	0	WINE	1613	n/a	0	1	0.412841796875	0.57763671875	lower	../fonts/amplitud.ttf
3180.1	n/a	WORD	1590050	wordpools/wasnorm_wordpool_less_exclusions.txt	LTP220	ltpFR	2	16	1	WHIP	1604	n/a	n/a	0	0.5869140625	0.422607421875	upper	../fonts/zerothre.ttf
3183.146	n/a	SLOW_MSG	1591573	n/a	LTP220	ltpFR	2	16	n/a	n/a	n/a	n/a	n/a	n/a	n/a	n/a	n/a	n/a
3185.604	n/a	WORD	1592802	wordpools/wasnorm_wordpool_less_exclusions.txt	LTP220	ltpFR	2	16	1	PREACHER	1119	n/a	1	0	0.5869140625	0.422607421875	upper	../fonts/zerothre.ttf
3189.78	n/a	WORD	1594890	wordpools/wasnorm_wordpool_less_exclusions.txt	LTP220	ltpFR	2	16	1	CHURCH	307	n/a	0	0	0.5869140625	0.422607421875	upper	../fonts/zerothre.ttf
3193.744	n/a	WORD	1596872	wordpools/wasnorm_wordpool_less_exclusions.txt	LTP220	ltpFR	2	16	0	PONY	1102	n/a	0	1	0.412841796875	0.57763671875	lower	../fonts/amplitud.ttf
3197.634	n/a	WORD	1598817	wordpools/wasnorm_wordpool_less_exclusions.txt	LTP220	ltpFR	2	16	0	ANGEL	22	n/a	0	1	0.412841796875	0.57763671875	lower	../fonts/amplitud.ttf
3203.416	n/a	REC_START	1601708	n/a	LTP220	ltpFR	2	16	n/a	n/a	n/a	n/a	n/a	n/a	n/a	n/a	n/a	n/a
3204.592	n/a	REC_WORD	1602296	wordpools/wasnorm_wordpool_less_exclusions.txt	LTP220	ltpFR	2	16	0	ANGEL	22	n/a	0	n/a	n/a	n/a	n/a	n/a
3205.3	n/a	REC_WORD	1602650	wordpools/wasnorm_wordpool_less_exclusions.txt	LTP220	ltpFR	2	16	0	PONY	1102	n/a	0	n/a	n/a	n/a	n/a	n/a
3206.204	n/a	REC_WORD	1603102	wordpools/wasnorm_wordpool_less_exclusions.txt	LTP220	ltpFR	2	16	1	CHURCH	307	n/a	0	n/a	n/a	n/a	n/a	n/a
3216.756	n/a	REC_WORD_VV	1608378	wordpools/wasnorm_wordpool_less_exclusions.txt	LTP220	ltpFR	2	16	n/a	<>	-1	n/a	n/a	n/a	n/a	n/a	n/a	n/a
3217.726	n/a	REC_WORD_VV	1608863	wordpools/wasnorm_wordpool_less_exclusions.txt	LTP220	ltpFR	2	16	n/a	<>	-1	n/a	n/a	n/a	n/a	n/a	n/a	n/a
3363.068	n/a	REC_START	1681534	n/a	LTP220	ltpFR	2	1	n/a	n/a	n/a	n/a	n/a	n/a	n/a	n/a	n/a	n/a
3363.116	n/a	RECOG_LURE	1681558	n/a	LTP220	ltpFR	2	1	n/a	AIRPORT	13	1	n/a	n/a	n/a	n/a	n/a	n/a
3367.702	n/a	RECOG_RESP	1683851	n/a	LTP220	ltpFR	2	1	n/a	AIRPORT	13	n/a	n/a	n/a	n/a	n/a	n/a	n/a
3370.114	n/a	RECOG_RESP_VV	1685057	n/a	LTP220	ltpFR	2	1	n/a	AIRPORT	13	1	n/a	n/a	n/a	n/a	n/a	n/a
3372.844	n/a	RECOG_CONF	1686422	n/a	LTP220	ltpFR	2	1	n/a	AIRPORT	13	1	n/a	n/a	n/a	n/a	n/a	n/a
3374.82	n/a	RECOG_LURE	1687410	n/a	LTP220	ltpFR	2	1	n/a	QUILT	1151	2	n/a	n/a	n/a	n/a	n/a	n/a
3378.226	n/a	RECOG_RESP	1689113	n/a	LTP220	ltpFR	2	1	n/a	QUILT	1151	n/a	n/a	n/a	n/a	n/a	n/a	n/a
3380.458	n/a	RECOG_CONF	1690229	n/a	LTP220	ltpFR	2	1	n/a	QUILT	1151	2	n/a	n/a	n/a	n/a	n/a	n/a
3382.472	n/a	RECOG_TARGET	1691236	n/a	LTP220	ltpFR	2	1	1	FATHER	554	5	3	n/a	n/a	n/a	n/a	n/a
3384.256	n/a	RECOG_RESP	1692128	n/a	LTP220	ltpFR	2	1	1	FATHER	554	n/a	3	n/a	n/a	n/a	n/a	n/a
3386.35	n/a	RECOG_CONF	1693175	n/a	LTP220	ltpFR	2	1	1	FATHER	554	5	3	n/a	n/a	n/a	n/a	n/a
3388.848	n/a	RECOG_LURE	1694424	n/a	LTP220	ltpFR	2	1	n/a	SILK	1307	2	n/a	n/a	n/a	n/a	n/a	n/a
3391.16	n/a	RECOG_RESP	1695580	n/a	LTP220	ltpFR	2	1	n/a	SILK	1307	n/a	n/a	n/a	n/a	n/a	n/a	n/a
3392.906	n/a	RECOG_CONF	1696453	n/a	LTP220	ltpFR	2	1	n/a	SILK	1307	2	n/a	n/a	n/a	n/a	n/a	n/a
3395.038	n/a	RECOG_LURE	1697519	n/a	LTP220	ltpFR	2	1	n/a	ROBBER	1197	4	n/a	n/a	n/a	n/a	n/a	n/a
3398.2	n/a	RECOG_RESP	1699100	n/a	LTP220	ltpFR	2	1	n/a	ROBBER	1197	n/a	n/a	n/a	n/a	n/a	n/a	n/a
3399.556	n/a	RECOG_CONF	1699778	n/a	LTP220	ltpFR	2	1	n/a	ROBBER	1197	4	n/a	n/a	n/a	n/a	n/a	n/a
3401.672	n/a	RECOG_LURE	1700836	n/a	LTP220	ltpFR	2	1	n/a	MATTRESS	879	4	n/a	n/a	n/a	n/a	n/a	n/a
3405.698	n/a	RECOG_RESP	1702849	n/a	LTP220	ltpFR	2	1	n/a	MATTRESS	879	n/a	n/a	n/a	n/a	n/a	n/a	n/a
3407.576	n/a	RECOG_CONF	1703788	n/a	LTP220	ltpFR	2	1	n/a	MATTRESS	879	4	n/a	n/a	n/a	n/a	n/a	n/a
3409.854	n/a	RECOG_LURE	1704927	n/a	LTP220	ltpFR	2	1	n/a	ICE	730	4	n/a	n/a	n/a	n/a	n/a	n/a
3412.794	n/a	RECOG_RESP	1706397	n/a	LTP220	ltpFR	2	1	n/a	ICE	730	n/a	n/a	n/a	n/a	n/a	n/a	n/a
3414.568	n/a	RECOG_CONF	1707284	n/a	LTP220	ltpFR	2	1	n/a	ICE	730	4	n/a	n/a	n/a	n/a	n/a	n/a
3416.696	n/a	RECOG_LURE	1708348	n/a	LTP220	ltpFR	2	1	n/a	VIOLA	1570	4	n/a	n/a	n/a	n/a	n/a	n/a
3419.67	n/a	RECOG_RESP	1709835	n/a	LTP220	ltpFR	2	1	n/a	VIOLA	1570	n/a	n/a	n/a	n/a	n/a	n/a	n/a
3421.34	n/a	RECOG_CONF	1710670	n/a	LTP220	ltpFR	2	1	n/a	VIOLA	1570	4	n/a	n/a	n/a	n/a	n/a	n/a
3423.338	n/a	RECOG_TARGET	1711669	n/a	LTP220	ltpFR	2	1	-1	BUG	187	5	-1	n/a	n/a	n/a	n/a	n/a
3424.942	n/a	RECOG_RESP	1712471	n/a	LTP220	ltpFR	2	1	-1	BUG	187	n/a	-1	n/a	n/a	n/a	n/a	n/a
3426.212	n/a	RECOG_CONF	1713106	n/a	LTP220	ltpFR	2	1	-1	BUG	187	5	-1	n/a	n/a	n/a	n/a	n/a
3428.198	n/a	RECOG_TARGET	1714099	n/a	LTP220	ltpFR	2	1	0	DANDELION	438	5	0	n/a	n/a	n/a	n/a	n/a
3429.438	n/a	RECOG_RESP	1714719	n/a	LTP220	ltpFR	2	1	0	DANDELION	438	n/a	0	n/a	n/a	n/a	n/a	n/a
3430.692	n/a	RECOG_CONF	1715346	n/a	LTP220	ltpFR	2	1	0	DANDELION	438	5	0	n/a	n/a	n/a	n/a	n/a
3432.766	n/a	RECOG_TARGET	1716383	n/a	LTP220	ltpFR	2	1	0	DOCK	477	5	1	n/a	n/a	n/a	n/a	n/a
3434.122	n/a	RECOG_RESP	1717061	n/a	LTP220	ltpFR	2	1	0	DOCK	477	n/a	1	n/a	n/a	n/a	n/a	n/a
3435.474	n/a	RECOG_CONF	1717737	n/a	LTP220	ltpFR	2	1	0	DOCK	477	5	1	n/a	n/a	n/a	n/a	n/a
3437.526	n/a	RECOG_LURE	1718763	n/a	LTP220	ltpFR	2	1	n/a	PADDLE	1000	3	n/a	n/a	n/a	n/a	n/a	n/a
3440.048	n/a	RECOG_RESP	1720024	n/a	LTP220	ltpFR	2	1	n/a	PADDLE	1000	n/a	n/a	n/a	n/a	n/a	n/a	n/a
3441.824	n/a	RECOG_CONF	1720912	n/a	LTP220	ltpFR	2	1	n/a	PADDLE	1000	3	n/a	n/a	n/a	n/a	n/a	n/a
3444.052	n/a	RECOG_TARGET	1722026	n/a	LTP220	ltpFR	2	1	1	CASHIER	254	5	1	n/a	n/a	n/a	n/a	n/a
3445.346	n/a	RECOG_RESP	1722673	n/a	LTP220	ltpFR	2	1	1	CASHIER	254	n/a	1	n/a	n/a	n/a	n/a	n/a
3446.806	n/a	RECOG_CONF	1723403	n/a	LTP220	ltpFR	2	1	1	CASHIER	254	5	1	n/a	n/a	n/a	n/a	n/a
3448.72	n/a	RECOG_LURE	1724360	n/a	LTP220	ltpFR	2	1	n/a	SKELETON	1314	4	n/a	n/a	n/a	n/a	n/a	n/a
3450.24	n/a	RECOG_RESP	1725120	n/a	LTP220	ltpFR	2	1	n/a	SKELETON	1314	n/a	n/a	n/a	n/a	n/a	n/a	n/a
3451.65	n/a	RECOG_CONF	1725825	n/a	LTP220	ltpFR	2	1	n/a	SKELETON	1314	4	n/a	n/a	n/a	n/a	n/a	n/a
3453.68	n/a	RECOG_TARGET	1726840	n/a	LTP220	ltpFR	2	1	1	CLAM	315	5	1	n/a	n/a	n/a	n/a	n/a
3454.804	n/a	RECOG_RESP	1727402	n/a	LTP220	ltpFR	2	1	1	CLAM	315	n/a	1	n/a	n/a	n/a	n/a	n/a
3456.186	n/a	RECOG_CONF	1728093	n/a	LTP220	ltpFR	2	1	1	CLAM	315	5	1	n/a	n/a	n/a	n/a	n/a
3458.328	n/a	RECOG_TARGET	1729164	n/a	LTP220	ltpFR	2	1	0	PILLOW	1069	4	0	n/a	n/a	n/a	n/a	n/a
3459.928	n/a	RECOG_RESP	1729964	n/a	LTP220	ltpFR	2	1	0	PILLOW	1069	n/a	0	n/a	n/a	n/a	n/a	n/a
3461.452	n/a	RECOG_CONF	1730726	n/a	LTP220	ltpFR	2	1	0	PILLOW	1069	4	0	n/a	n/a	n/a	n/a	n/a
3463.634	n/a	RECOG_LURE	1731817	n/a	LTP220	ltpFR	2	1	n/a	MAILBOX	857	3	n/a	n/a	n/a	n/a	n/a	n/a
3466.648	n/a	RECOG_RESP	1733324	n/a	LTP220	ltpFR	2	1	n/a	MAILBOX	857	n/a	n/a	n/a	n/a	n/a	n/a	n/a
3468.312	n/a	RECOG_CONF	1734156	n/a	LTP220	ltpFR	2	1	n/a	MAILBOX	857	3	n/a	n/a	n/a	n/a	n/a	n/a
3470.62	n/a	RECOG_LURE	1735310	n/a	LTP220	ltpFR	2	1	n/a	PORPOISE	1109	5	n/a	n/a	n/a	n/a	n/a	n/a
3472.2	n/a	RECOG_RESP	1736100	n/a	LTP220	ltpFR	2	1	n/a	PORPOISE	1109	n/a	n/a	n/a	n/a	n/a	n/a	n/a
3473.608	n/a	RECOG_CONF	1736804	n/a	LTP220	ltpFR	2	1	n/a	PORPOISE	1109	5	n/a	n/a	n/a	n/a	n/a	n/a
3475.512	n/a	RECOG_TARGET	1737756	n/a	LTP220	ltpFR	2	1	0	CHOCOLATE	306	4	n/a	n/a	n/a	n/a	n/a	n/a
3480.424	n/a	RECOG_RESP	1740212	n/a	LTP220	ltpFR	2	1	0	CHOCOLATE	306	n/a	n/a	n/a	n/a	n/a	n/a	n/a
3482.04	n/a	RECOG_CONF	1741020	n/a	LTP220	ltpFR	2	1	0	CHOCOLATE	306	4	n/a	n/a	n/a	n/a	n/a	n/a
3484.146	n/a	RECOG_LURE	1742073	n/a	LTP220	ltpFR	2	1	n/a	SPOOL	1356	2	n/a	n/a	n/a	n/a	n/a	n/a
3486.116	n/a	RECOG_RESP	1743058	n/a	LTP220	ltpFR	2	1	n/a	SPOOL	1356	n/a	n/a	n/a	n/a	n/a	n/a	n/a
3488.966	n/a	RECOG_CONF	1744483	n/a	LTP220	ltpFR	2	1	n/a	SPOOL	1356	2	n/a	n/a	n/a	n/a	n/a	n/a
3496.93	n/a	REC_START	1748465	n/a	LTP220	ltpFR	2	2	n/a	n/a	n/a	n/a	n/a	n/a	n/a	n/a	n/a	n/a
3496.994	n/a	RECOG_TARGET	1748497	n/a	LTP220	ltpFR	2	2	1	DONKEY	484	4	1	n/a	n/a	n/a	n/a	n/a
3498.642	n/a	RECOG_RESP	1749321	n/a	LTP220	ltpFR	2	2	1	DONKEY	484	n/a	1	n/a	n/a	n/a	n/a	n/a
3500.398	n/a	RECOG_CONF	1750199	n/a	LTP220	ltpFR	2	2	1	DONKEY	484	4	1	n/a	n/a	n/a	n/a	n/a
3502.264	n/a	RECOG_TARGET	1751132	n/a	LTP220	ltpFR	2	2	-1	COD	340	5	-1	n/a	n/a	n/a	n/a	n/a
3503.31	n/a	RECOG_RESP	1751655	n/a	LTP220	ltpFR	2	2	-1	COD	340	n/a	-1	n/a	n/a	n/a	n/a	n/a
3504.67	n/a	RECOG_CONF	1752335	n/a	LTP220	ltpFR	2	2	-1	COD	340	5	-1	n/a	n/a	n/a	n/a	n/a
3506.614	n/a	RECOG_TARGET	1753307	n/a	LTP220	ltpFR	2	2	0	RODENT	1204	4	0	n/a	n/a	n/a	n/a	n/a
3508.896	n/a	RECOG_RESP	1754448	n/a	LTP220	ltpFR	2	2	0	RODENT	1204	n/a	0	n/a	n/a	n/a	n/a	n/a
3510.712	n/a	RECOG_CONF	1755356	n/a	LTP220	ltpFR	2	2	0	RODENT	1204	4	0	n/a	n/a	n/a	n/a	n/a
3512.838	n/a	RECOG_LURE	1756419	n/a	LTP220	ltpFR	2	2	n/a	SKATE	1313	3	n/a	n/a	n/a	n/a	n/a	n/a
3515.482	n/a	RECOG_RESP	1757741	n/a	LTP220	ltpFR	2	2	n/a	SKATE	1313	n/a	n/a	n/a	n/a	n/a	n/a	n/a
3518.618	n/a	RECOG_CONF	1759309	n/a	LTP220	ltpFR	2	2	n/a	SKATE	1313	3	n/a	n/a	n/a	n/a	n/a	n/a
3520.516	n/a	RECOG_LURE	1760258	n/a	LTP220	ltpFR	2	2	n/a	CAPITAL	238	2	n/a	n/a	n/a	n/a	n/a	n/a
3522.834	n/a	RECOG_RESP	1761417	n/a	LTP220	ltpFR	2	2	n/a	CAPITAL	238	n/a	n/a	n/a	n/a	n/a	n/a	n/a
3525.75	n/a	RECOG_CONF	1762875	n/a	LTP220	ltpFR	2	2	n/a	CAPITAL	238	2	n/a	n/a	n/a	n/a	n/a	n/a
3527.746	n/a	RECOG_LURE	1763873	n/a	LTP220	ltpFR	2	2	n/a	FIST	572	2	n/a	n/a	n/a	n/a	n/a	n/a
3529.694	n/a	RECOG_RESP	1764847	n/a	LTP220	ltpFR	2	2	n/a	FIST	572	n/a	n/a	n/a	n/a	n/a	n/a	n/a
3532.316	n/a	RECOG_CONF	1766158	n/a	LTP220	ltpFR	2	2	n/a	FIST	572	2	n/a	n/a	n/a	n/a	n/a	n/a
3534.302	n/a	RECOG_LURE	1767151	n/a	LTP220	ltpFR	2	2	n/a	TRASH	1497	2	n/a	n/a	n/a	n/a	n/a	n/a
3538.592	n/a	RECOG_RESP	1769296	n/a	LTP220	ltpFR	2	2	n/a	TRASH	1497	n/a	n/a	n/a	n/a	n/a	n/a	n/a
3540.54	n/a	RECOG_CONF	1770270	n/a	LTP220	ltpFR	2	2	n/a	TRASH	1497	2	n/a	n/a	n/a	n/a	n/a	n/a
3542.552	n/a	RECOG_TARGET	1771276	n/a	LTP220	ltpFR	2	2	1	CHIME	300	4	0	n/a	n/a	n/a	n/a	n/a
3543.948	n/a	RECOG_RESP	1771974	n/a	LTP220	ltpFR	2	2	1	CHIME	300	n/a	0	n/a	n/a	n/a	n/a	n/a
3545.374	n/a	RECOG_CONF	1772687	n/a	LTP220	ltpFR	2	2	1	CHIME	300	4	0	n/a	n/a	n/a	n/a	n/a
3547.47	n/a	RECOG_LURE	1773735	n/a	LTP220	ltpFR	2	2	n/a	SHELF	1280	4	n/a	n/a	n/a	n/a	n/a	n/a
3551.126	n/a	RECOG_RESP	1775563	n/a	LTP220	ltpFR	2	2	n/a	SHELF	1280	n/a	n/a	n/a	n/a	n/a	n/a	n/a
3552.88	n/a	RECOG_CONF	1776440	n/a	LTP220	ltpFR	2	2	n/a	SHELF	1280	4	n/a	n/a	n/a	n/a	n/a	n/a
3555.082	n/a	RECOG_LURE	1777541	n/a	LTP220	ltpFR	2	2	n/a	SHACK	1273	3	n/a	n/a	n/a	n/a	n/a	n/a
3560.428	n/a	RECOG_RESP	1780214	n/a	LTP220	ltpFR	2	2	n/a	SHACK	1273	n/a	n/a	n/a	n/a	n/a	n/a	n/a
3562.58	n/a	RECOG_CONF	1781290	n/a	LTP220	ltpFR	2	2	n/a	SHACK	1273	3	n/a	n/a	n/a	n/a	n/a	n/a
3564.762	n/a	RECOG_LURE	1782381	n/a	LTP220	ltpFR	2	2	n/a	COURT	391	4	n/a	n/a	n/a	n/a	n/a	n/a
3567.536	n/a	RECOG_RESP	1783768	n/a	LTP220	ltpFR	2	2	n/a	COURT	391	n/a	n/a	n/a	n/a	n/a	n/a	n/a
3571.284	n/a	RECOG_CONF	1785642	n/a	LTP220	ltpFR	2	2	n/a	COURT	391	4	n/a	n/a	n/a	n/a	n/a	n/a
3573.202	n/a	RECOG_TARGET	1786601	n/a	LTP220	ltpFR	2	2	1	HAYSTACK	694	5	0	n/a	n/a	n/a	n/a	n/a
3574.634	n/a	RECOG_RESP	1787317	n/a	LTP220	ltpFR	2	2	1	HAYSTACK	694	n/a	0	n/a	n/a	n/a	n/a	n/a
3575.954	n/a	RECOG_CONF	1787977	n/a	LTP220	ltpFR	2	2	1	HAYSTACK	694	5	0	n/a	n/a	n/a	n/a	n/a
3578.12	n/a	RECOG_LURE	1789060	n/a	LTP220	ltpFR	2	2	n/a	DRUG	501	4	n/a	n/a	n/a	n/a	n/a	n/a
3579.72	n/a	RECOG_RESP	1789860	n/a	LTP220	ltpFR	2	2	n/a	DRUG	501	n/a	n/a	n/a	n/a	n/a	n/a	n/a
3581.25	n/a	RECOG_CONF	1790625	n/a	LTP220	ltpFR	2	2	n/a	DRUG	501	4	n/a	n/a	n/a	n/a	n/a	n/a
3583.274	n/a	RECOG_LURE	1791637	n/a	LTP220	ltpFR	2	2	n/a	VENUS	1557	4	n/a	n/a	n/a	n/a	n/a	n/a
3585.008	n/a	RECOG_RESP	1792504	n/a	LTP220	ltpFR	2	2	n/a	VENUS	1557	n/a	n/a	n/a	n/a	n/a	n/a	n/a
3586.384	n/a	RECOG_CONF	1793192	n/a	LTP220	ltpFR	2	2	n/a	VENUS	1557	4	n/a	n/a	n/a	n/a	n/a	n/a
3588.476	n/a	RECOG_TARGET	1794238	n/a	LTP220	ltpFR	2	2	0	SEAL	1262	4	1	n/a	n/a	n/a	n/a	n/a
3591.008	n/a	RECOG_RESP	1795504	n/a	LTP220	ltpFR	2	2	0	SEAL	1262	n/a	1	n/a	n/a	n/a	n/a	n/a
3592.456	n/a	RECOG_CONF	1796228	n/a	LTP220	ltpFR	2	2	0	SEAL	1262	4	1	n/a	n/a	n/a	n/a	n/a
3594.358	n/a	RECOG_LURE	1797179	n/a	LTP220	ltpFR	2	2	n/a	QUARTER	1148	n/a	n/a	n/a	n/a	n/a	n/a	n/a
3599.806	n/a	RECOG_RESP	1799903	n/a	LTP220	ltpFR	2	2	n/a	QUARTER	1148	n/a	n/a	n/a	n/a	n/a	n/a	n/a
3604.238	n/a	RECOG_LURE	1802119	n/a	LTP220	ltpFR	2	2	n/a	HOUSE	725	3	n/a	n/a	n/a	n/a	n/a	n/a
3609.156	n/a	RECOG_RESP	1804578	n/a	LTP220	ltpFR	2	2	n/a	HOUSE	725	n/a	n/a	n/a	n/a	n/a	n/a	n/a
3611.82	n/a	RECOG_CONF	1805910	n/a	LTP220	ltpFR	2	2	n/a	HOUSE	725	3	n/a	n/a	n/a	n/a	n/a	n/a
3613.724	n/a	RECOG_TARGET	1806862	n/a	LTP220	ltpFR	2	2	0	PADDING	999	4	0	n/a	n/a	n/a	n/a	n/a
3616.996	n/a	RECOG_RESP	1808498	n/a	LTP220	ltpFR	2	2	0	PADDING	999	n/a	0	n/a	n/a	n/a	n/a	n/a
3618.486	n/a	RECOG_CONF	1809243	n/a	LTP220	ltpFR	2	2	0	PADDING	999	4	0	n/a	n/a	n/a	n/a	n/a
3620.734	n/a	RECOG_TARGET	1810367	n/a	LTP220	ltpFR	2	2	0	LIVER	833	5	n/a	n/a	n/a	n/a	n/a	n/a
3621.924	n/a	RECOG_RESP	1810962	n/a	LTP220	ltpFR	2	2	0	LIVER	833	n/a	n/a	n/a	n/a	n/a	n/a	n/a
3623.404	n/a	RECOG_CONF	1811702	n/a	LTP220	ltpFR	2	2	0	LIVER	833	5	n/a	n/a	n/a	n/a	n/a	n/a
3625.786	n/a	RECOG_LURE	1812893	n/a	LTP220	ltpFR	2	2	n/a	RACK	1154	4	n/a	n/a	n/a	n/a	n/a	n/a
3627.278	n/a	RECOG_RESP	1813639	n/a	LTP220	ltpFR	2	2	n/a	RACK	1154	n/a	n/a	n/a	n/a	n/a	n/a	n/a
3628.682	n/a	RECOG_CONF	1814341	n/a	LTP220	ltpFR	2	2	n/a	RACK	1154	4	n/a	n/a	n/a	n/a	n/a	n/a
3642.466	n/a	REC_START	1821233	n/a	LTP220	ltpFR	2	3	n/a	n/a	n/a	n/a	n/a	n/a	n/a	n/a	n/a	n/a
3642.516	n/a	RECOG_TARGET	1821258	n/a	LTP220	ltpFR	2	3	0	SHOULDER	1294	4	0	n/a	n/a	n/a	n/a	n/a
3644.752	n/a	RECOG_RESP	1822376	n/a	LTP220	ltpFR	2	3	0	SHOULDER	1294	n/a	0	n/a	n/a	n/a	n/a	n/a
3646.87	n/a	RECOG_CONF	1823435	n/a	LTP220	ltpFR	2	3	0	SHOULDER	1294	4	0	n/a	n/a	n/a	n/a	n/a
3648.9	n/a	RECOG_LURE	1824450	n/a	LTP220	ltpFR	2	3	n/a	MONEY	908	5	n/a	n/a	n/a	n/a	n/a	n/a
3650.282	n/a	RECOG_RESP	1825141	n/a	LTP220	ltpFR	2	3	n/a	MONEY	908	n/a	n/a	n/a	n/a	n/a	n/a	n/a
3651.898	n/a	RECOG_CONF	1825949	n/a	LTP220	ltpFR	2	3	n/a	MONEY	908	5	n/a	n/a	n/a	n/a	n/a	n/a
3654.178	n/a	RECOG_LURE	1827089	n/a	LTP220	ltpFR	2	3	n/a	UNCLE	1536	4	n/a	n/a	n/a	n/a	n/a	n/a
3658.588	n/a	RECOG_RESP	1829294	n/a	LTP220	ltpFR	2	3	n/a	UNCLE	1536	n/a	n/a	n/a	n/a	n/a	n/a	n/a
3659.918	n/a	RECOG_CONF	1829959	n/a	LTP220	ltpFR	2	3	n/a	UNCLE	1536	4	n/a	n/a	n/a	n/a	n/a	n/a
3662.0	n/a	RECOG_TARGET	1831000	n/a	LTP220	ltpFR	2	3	1	FAUCET	555	4	0	n/a	n/a	n/a	n/a	n/a
3667.468	n/a	RECOG_RESP	1833734	n/a	LTP220	ltpFR	2	3	1	FAUCET	555	n/a	0	n/a	n/a	n/a	n/a	n/a
3668.968	n/a	RECOG_CONF	1834484	n/a	LTP220	ltpFR	2	3	1	FAUCET	555	4	0	n/a	n/a	n/a	n/a	n/a
3671.068	n/a	RECOG_LURE	1835534	n/a	LTP220	ltpFR	2	3	n/a	CHAIR	274	2	n/a	n/a	n/a	n/a	n/a	n/a
3672.638	n/a	RECOG_RESP	1836319	n/a	LTP220	ltpFR	2	3	n/a	CHAIR	274	n/a	n/a	n/a	n/a	n/a	n/a	n/a
3676.146	n/a	RECOG_CONF	1838073	n/a	LTP220	ltpFR	2	3	n/a	CHAIR	274	2	n/a	n/a	n/a	n/a	n/a	n/a
3677.952	n/a	RECOG_TARGET	1838976	n/a	LTP220	ltpFR	2	3	1	CITY	314	5	1	n/a	n/a	n/a	n/a	n/a
3679.278	n/a	RECOG_RESP	1839639	n/a	LTP220	ltpFR	2	3	1	CITY	314	n/a	1	n/a	n/a	n/a	n/a	n/a
3680.706	n/a	RECOG_CONF	1840353	n/a	LTP220	ltpFR	2	3	1	CITY	314	5	1	n/a	n/a	n/a	n/a	n/a
3683.332	n/a	RECOG_TARGET	1841666	n/a	LTP220	ltpFR	2	3	1	POWDER	1117	3	0	n/a	n/a	n/a	n/a	n/a
3691.836	n/a	RECOG_RESP	1845918	n/a	LTP220	ltpFR	2	3	1	POWDER	1117	n/a	0	n/a	n/a	n/a	n/a	n/a
3695.298	n/a	RECOG_CONF	1847649	n/a	LTP220	ltpFR	2	3	1	POWDER	1117	3	0	n/a	n/a	n/a	n/a	n/a
3697.578	n/a	RECOG_TARGET	1848789	n/a	LTP220	ltpFR	2	3	-1	SHRIMP	1297	5	-1	n/a	n/a	n/a	n/a	n/a
3698.738	n/a	RECOG_RESP	1849369	n/a	LTP220	ltpFR	2	3	-1	SHRIMP	1297	n/a	-1	n/a	n/a	n/a	n/a	n/a
3700.144	n/a	RECOG_CONF	1850072	n/a	LTP220	ltpFR	2	3	-1	SHRIMP	1297	5	-1	n/a	n/a	n/a	n/a	n/a
3702.504	n/a	RECOG_LURE	1851252	n/a	LTP220	ltpFR	2	3	n/a	MITTEN	902	2	n/a	n/a	n/a	n/a	n/a	n/a
3703.968	n/a	RECOG_RESP	1851984	n/a	LTP220	ltpFR	2	3	n/a	MITTEN	902	n/a	n/a	n/a	n/a	n/a	n/a	n/a
3709.658	n/a	RECOG_CONF	1854829	n/a	LTP220	ltpFR	2	3	n/a	MITTEN	902	2	n/a	n/a	n/a	n/a	n/a	n/a
3711.564	n/a	RECOG_TARGET	1855782	n/a	LTP220	ltpFR	2	3	1	WAIST	1579	5	1	n/a	n/a	n/a	n/a	n/a
3712.972	n/a	RECOG_RESP	1856486	n/a	LTP220	ltpFR	2	3	1	WAIST	1579	n/a	1	n/a	n/a	n/a	n/a	n/a
3714.642	n/a	RECOG_CONF	1857321	n/a	LTP220	ltpFR	2	3	1	WAIST	1579	5	1	n/a	n/a	n/a	n/a	n/a
3717.788	n/a	RECOG_TARGET	1858894	n/a	LTP220	ltpFR	2	3	0	LOUNGE	845	2	1	n/a	n/a	n/a	n/a	n/a
3722.468	n/a	RECOG_RESP	1861234	n/a	LTP220	ltpFR	2	3	0	LOUNGE	845	n/a	1	n/a	n/a	n/a	n/a	n/a
3725.144	n/a	RECOG_CONF	1862572	n/a	LTP220	ltpFR	2	3	0	LOUNGE	845	2	1	n/a	n/a	n/a	n/a	n/a
3726.94	n/a	RECOG_LURE	1863470	n/a	LTP220	ltpFR	2	3	n/a	TOAD	1470	2	n/a	n/a	n/a	n/a	n/a	n/a
3733.55	n/a	RECOG_RESP	1866775	n/a	LTP220	ltpFR	2	3	n/a	TOAD	1470	n/a	n/a	n/a	n/a	n/a	n/a	n/a
3735.784	n/a	RECOG_CONF	1867892	n/a	LTP220	ltpFR	2	3	n/a	TOAD	1470	2	n/a	n/a	n/a	n/a	n/a	n/a
3737.932	n/a	RECOG_LURE	1868966	n/a	LTP220	ltpFR	2	3	n/a	FACE	547	4	n/a	n/a	n/a	n/a	n/a	n/a
3740.144	n/a	RECOG_RESP	1870072	n/a	LTP220	ltpFR	2	3	n/a	FACE	547	n/a	n/a	n/a	n/a	n/a	n/a	n/a
3741.708	n/a	RECOG_CONF	1870854	n/a	LTP220	ltpFR	2	3	n/a	FACE	547	4	n/a	n/a	n/a	n/a	n/a	n/a
3744.172	n/a	RECOG_TARGET	1872086	n/a	LTP220	ltpFR	2	3	1	CARDINAL	244	4	1	n/a	n/a	n/a	n/a	n/a
3746.926	n/a	RECOG_RESP	1873463	n/a	LTP220	ltpFR	2	3	1	CARDINAL	244	n/a	1	n/a	n/a	n/a	n/a	n/a
3748.624	n/a	RECOG_CONF	1874312	n/a	LTP220	ltpFR	2	3	1	CARDINAL	244	4	1	n/a	n/a	n/a	n/a	n/a
3750.966	n/a	RECOG_LURE	1875483	n/a	LTP220	ltpFR	2	3	n/a	TUNA	1518	4	n/a	n/a	n/a	n/a	n/a	n/a
3752.96	n/a	RECOG_RESP	1876480	n/a	LTP220	ltpFR	2	3	n/a	TUNA	1518	n/a	n/a	n/a	n/a	n/a	n/a	n/a
3754.464	n/a	RECOG_CONF	1877232	n/a	LTP220	ltpFR	2	3	n/a	TUNA	1518	4	n/a	n/a	n/a	n/a	n/a	n/a
3756.596	n/a	RECOG_LURE	1878298	n/a	LTP220	ltpFR	2	3	n/a	STAKE	1368	2	n/a	n/a	n/a	n/a	n/a	n/a
3759.372	n/a	RECOG_RESP	1879686	n/a	LTP220	ltpFR	2	3	n/a	STAKE	1368	n/a	n/a	n/a	n/a	n/a	n/a	n/a
3763.612	n/a	RECOG_CONF	1881806	n/a	LTP220	ltpFR	2	3	n/a	STAKE	1368	2	n/a	n/a	n/a	n/a	n/a	n/a
3765.58	n/a	RECOG_LURE	1882790	n/a	LTP220	ltpFR	2	3	n/a	SPIDER	1351	2	n/a	n/a	n/a	n/a	n/a	n/a
3770.48	n/a	RECOG_RESP	1885240	n/a	LTP220	ltpFR	2	3	n/a	SPIDER	1351	n/a	n/a	n/a	n/a	n/a	n/a	n/a
3773.522	n/a	RECOG_CONF	1886761	n/a	LTP220	ltpFR	2	3	n/a	SPIDER	1351	2	n/a	n/a	n/a	n/a	n/a	n/a
3775.474	n/a	RECOG_LURE	1887737	n/a	LTP220	ltpFR	2	3	n/a	SIREN	1310	2	n/a	n/a	n/a	n/a	n/a	n/a
3777.64	n/a	RECOG_RESP	1888820	n/a	LTP220	ltpFR	2	3	n/a	SIREN	1310	n/a	n/a	n/a	n/a	n/a	n/a	n/a
3781.446	n/a	RECOG_CONF	1890723	n/a	LTP220	ltpFR	2	3	n/a	SIREN	1310	2	n/a	n/a	n/a	n/a	n/a	n/a
3783.806	n/a	RECOG_TARGET	1891903	n/a	LTP220	ltpFR	2	3	1	DETERGENT	455	4	0	n/a	n/a	n/a	n/a	n/a
3786.964	n/a	RECOG_RESP	1893482	n/a	LTP220	ltpFR	2	3	1	DETERGENT	455	n/a	0	n/a	n/a	n/a	n/a	n/a
3789.726	n/a	RECOG_CONF	1894863	n/a	LTP220	ltpFR	2	3	1	DETERGENT	455	4	0	n/a	n/a	n/a	n/a	n/a
3791.72	n/a	RECOG_LURE	1895860	n/a	LTP220	ltpFR	2	3	n/a	PIN	1072	4	n/a	n/a	n/a	n/a	n/a	n/a
3796.404	n/a	RECOG_RESP	1898202	n/a	LTP220	ltpFR	2	3	n/a	PIN	1072	n/a	n/a	n/a	n/a	n/a	n/a	n/a
3797.996	n/a	RECOG_CONF	1898998	n/a	LTP220	ltpFR	2	3	n/a	PIN	1072	4	n/a	n/a	n/a	n/a	n/a	n/a
3808.038	n/a	REC_START	1904019	n/a	LTP220	ltpFR	2	4	n/a	n/a	n/a	n/a	n/a	n/a	n/a	n/a	n/a	n/a
3808.092	n/a	RECOG_LURE	1904046	n/a	LTP220	ltpFR	2	4	n/a	TERMINAL	1450	4	n/a	n/a	n/a	n/a	n/a	n/a
3814.788	n/a	RECOG_RESP	1907394	n/a	LTP220	ltpFR	2	4	n/a	TERMINAL	1450	n/a	n/a	n/a	n/a	n/a	n/a	n/a
3816.856	n/a	RECOG_CONF	1908428	n/a	LTP220	ltpFR	2	4	n/a	TERMINAL	1450	4	n/a	n/a	n/a	n/a	n/a	n/a
3819.102	n/a	RECOG_TARGET	1909551	n/a	LTP220	ltpFR	2	4	-1	FACTORY	548	4	-1	n/a	n/a	n/a	n/a	n/a
3824.266	n/a	RECOG_RESP	1912133	n/a	LTP220	ltpFR	2	4	-1	FACTORY	548	n/a	-1	n/a	n/a	n/a	n/a	n/a
3826.42	n/a	RECOG_CONF	1913210	n/a	LTP220	ltpFR	2	4	-1	FACTORY	548	4	-1	n/a	n/a	n/a	n/a	n/a
3828.662	n/a	RECOG_TARGET	1914331	n/a	LTP220	ltpFR	2	4	1	THIMBLE	1458	5	0	n/a	n/a	n/a	n/a	n/a
3830.258	n/a	RECOG_RESP	1915129	n/a	LTP220	ltpFR	2	4	1	THIMBLE	1458	n/a	0	n/a	n/a	n/a	n/a	n/a
3831.874	n/a	RECOG_CONF	1915937	n/a	LTP220	ltpFR	2	4	1	THIMBLE	1458	5	0	n/a	n/a	n/a	n/a	n/a
3833.992	n/a	RECOG_LURE	1916996	n/a	LTP220	ltpFR	2	4	n/a	PARENT	1013	4	n/a	n/a	n/a	n/a	n/a	n/a
3836.52	n/a	RECOG_RESP	1918260	n/a	LTP220	ltpFR	2	4	n/a	PARENT	1013	n/a	n/a	n/a	n/a	n/a	n/a	n/a
3837.99	n/a	RECOG_CONF	1918995	n/a	LTP220	ltpFR	2	4	n/a	PARENT	1013	4	n/a	n/a	n/a	n/a	n/a	n/a
3840.298	n/a	RECOG_LURE	1920149	n/a	LTP220	ltpFR	2	4	n/a	PENCIL	1042	3	n/a	n/a	n/a	n/a	n/a	n/a
3845.806	n/a	RECOG_RESP	1922903	n/a	LTP220	ltpFR	2	4	n/a	PENCIL	1042	n/a	n/a	n/a	n/a	n/a	n/a	n/a
3847.284	n/a	RECOG_CONF	1923642	n/a	LTP220	ltpFR	2	4	n/a	PENCIL	1042	3	n/a	n/a	n/a	n/a	n/a	n/a
3849.926	n/a	RECOG_TARGET	1924963	n/a	LTP220	ltpFR	2	4	0	STICKER	1382	5	0	n/a	n/a	n/a	n/a	n/a
3851.462	n/a	RECOG_RESP	1925731	n/a	LTP220	ltpFR	2	4	0	STICKER	1382	n/a	0	n/a	n/a	n/a	n/a	n/a
3852.974	n/a	RECOG_CONF	1926487	n/a	LTP220	ltpFR	2	4	0	STICKER	1382	5	0	n/a	n/a	n/a	n/a	n/a
3855.608	n/a	RECOG_TARGET	1927804	n/a	LTP220	ltpFR	2	4	-1	PIE	1062	5	-1	n/a	n/a	n/a	n/a	n/a
3856.624	n/a	RECOG_RESP	1928312	n/a	LTP220	ltpFR	2	4	-1	PIE	1062	n/a	-1	n/a	n/a	n/a	n/a	n/a
3858.16	n/a	RECOG_CONF	1929080	n/a	LTP220	ltpFR	2	4	-1	PIE	1062	5	-1	n/a	n/a	n/a	n/a	n/a
3860.516	n/a	RECOG_LURE	1930258	n/a	LTP220	ltpFR	2	4	n/a	MARKET	871	4	n/a	n/a	n/a	n/a	n/a	n/a
3866.562	n/a	RECOG_RESP	1933281	n/a	LTP220	ltpFR	2	4	n/a	MARKET	871	n/a	n/a	n/a	n/a	n/a	n/a	n/a
3868.138	n/a	RECOG_CONF	1934069	n/a	LTP220	ltpFR	2	4	n/a	MARKET	871	4	n/a	n/a	n/a	n/a	n/a	n/a
3870.924	n/a	RECOG_TARGET	1935462	n/a	LTP220	ltpFR	2	4	1	PRINCESS	1125	5	1	n/a	n/a	n/a	n/a	n/a
3872.632	n/a	RECOG_RESP	1936316	n/a	LTP220	ltpFR	2	4	1	PRINCESS	1125	n/a	1	n/a	n/a	n/a	n/a	n/a
3874.594	n/a	RECOG_CONF	1937297	n/a	LTP220	ltpFR	2	4	1	PRINCESS	1125	5	1	n/a	n/a	n/a	n/a	n/a
3877.172	n/a	RECOG_LURE	1938586	n/a	LTP220	ltpFR	2	4	n/a	BONE	148	4	n/a	n/a	n/a	n/a	n/a	n/a
3879.078	n/a	RECOG_RESP	1939539	n/a	LTP220	ltpFR	2	4	n/a	BONE	148	n/a	n/a	n/a	n/a	n/a	n/a	n/a
3880.74	n/a	RECOG_CONF	1940370	n/a	LTP220	ltpFR	2	4	n/a	BONE	148	4	n/a	n/a	n/a	n/a	n/a	n/a
3884.084	n/a	RECOG_TARGET	1942042	n/a	LTP220	ltpFR	2	4	0	ORNAMENT	985	4	0	n/a	n/a	n/a	n/a	n/a
3885.694	n/a	RECOG_RESP	1942847	n/a	LTP220	ltpFR	2	4	0	ORNAMENT	985	n/a	0	n/a	n/a	n/a	n/a	n/a
3888.678	n/a	RECOG_CONF	1944339	n/a	LTP220	ltpFR	2	4	0	ORNAMENT	985	4	0	n/a	n/a	n/a	n/a	n/a
3891.434	n/a	RECOG_LURE	1945717	n/a	LTP220	ltpFR	2	4	n/a	ICING	732	2	n/a	n/a	n/a	n/a	n/a	n/a
3898.826	n/a	RECOG_RESP	1949413	n/a	LTP220	ltpFR	2	4	n/a	ICING	732	n/a	n/a	n/a	n/a	n/a	n/a	n/a
3900.57	n/a	RECOG_CONF	1950285	n/a	LTP220	ltpFR	2	4	n/a	ICING	732	2	n/a	n/a	n/a	n/a	n/a	n/a
3903.942	n/a	RECOG_TARGET	1951971	n/a	LTP220	ltpFR	2	4	0	LUMBER	848	5	0	n/a	n/a	n/a	n/a	n/a
3905.548	n/a	RECOG_RESP	1952774	n/a	LTP220	ltpFR	2	4	0	LUMBER	848	n/a	0	n/a	n/a	n/a	n/a	n/a
3907.134	n/a	RECOG_CONF	1953567	n/a	LTP220	ltpFR	2	4	0	LUMBER	848	5	0	n/a	n/a	n/a	n/a	n/a
3909.512	n/a	RECOG_LURE	1954756	n/a	LTP220	ltpFR	2	4	n/a	CASHEW	253	4	n/a	n/a	n/a	n/a	n/a	n/a
3912.28	n/a	RECOG_RESP	1956140	n/a	LTP220	ltpFR	2	4	n/a	CASHEW	253	n/a	n/a	n/a	n/a	n/a	n/a	n/a
3913.652	n/a	RECOG_CONF	1956826	n/a	LTP220	ltpFR	2	4	n/a	CASHEW	253	4	n/a	n/a	n/a	n/a	n/a	n/a
3916.38	n/a	RECOG_TARGET	1958190	n/a	LTP220	ltpFR	2	4	0	WITCH	1617	5	0	n/a	n/a	n/a	n/a	n/a
3917.978	n/a	RECOG_RESP	1958989	n/a	LTP220	ltpFR	2	4	0	WITCH	1617	n/a	0	n/a	n/a	n/a	n/a	n/a
3919.52	n/a	RECOG_CONF	1959760	n/a	LTP220	ltpFR	2	4	0	WITCH	1617	5	0	n/a	n/a	n/a	n/a	n/a
3921.852	n/a	RECOG_TARGET	1960926	n/a	LTP220	ltpFR	2	4	0	CANNON	232	5	0	n/a	n/a	n/a	n/a	n/a
3923.23	n/a	RECOG_RESP	1961615	n/a	LTP220	ltpFR	2	4	0	CANNON	232	n/a	0	n/a	n/a	n/a	n/a	n/a
3924.934	n/a	RECOG_CONF	1962467	n/a	LTP220	ltpFR	2	4	0	CANNON	232	5	0	n/a	n/a	n/a	n/a	n/a
3927.348	n/a	RECOG_LURE	1963674	n/a	LTP220	ltpFR	2	4	n/a	ROCK	1201	2	n/a	n/a	n/a	n/a	n/a	n/a
3933.344	n/a	RECOG_RESP	1966672	n/a	LTP220	ltpFR	2	4	n/a	ROCK	1201	n/a	n/a	n/a	n/a	n/a	n/a	n/a
3935.034	n/a	RECOG_CONF	1967517	n/a	LTP220	ltpFR	2	4	n/a	ROCK	1201	2	n/a	n/a	n/a	n/a	n/a	n/a
3937.46	n/a	RECOG_LURE	1968730	n/a	LTP220	ltpFR	2	4	n/a	GROOM	665	4	n/a	n/a	n/a	n/a	n/a	n/a
3939.928	n/a	RECOG_RESP	1969964	n/a	LTP220	ltpFR	2	4	n/a	GROOM	665	n/a	n/a	n/a	n/a	n/a	n/a	n/a
3942.076	n/a	RECOG_CONF	1971038	n/a	LTP220	ltpFR	2	4	n/a	GROOM	665	4	n/a	n/a	n/a	n/a	n/a	n/a
3944.614	n/a	RECOG_TARGET	1972307	n/a	LTP220	ltpFR	2	4	1	CROCODILE	411	2	1	n/a	n/a	n/a	n/a	n/a
3950.744	n/a	RECOG_RESP	1975372	n/a	LTP220	ltpFR	2	4	1	CROCODILE	411	n/a	1	n/a	n/a	n/a	n/a	n/a
3954.088	n/a	RECOG_CONF	1977044	n/a	LTP220	ltpFR	2	4	1	CROCODILE	411	2	1	n/a	n/a	n/a	n/a	n/a
3956.952	n/a	RECOG_LURE	1978476	n/a	LTP220	ltpFR	2	4	n/a	SAUCER	1237	4	n/a	n/a	n/a	n/a	n/a	n/a
3960.39	n/a	RECOG_RESP	1980195	n/a	LTP220	ltpFR	2	4	n/a	SAUCER	1237	n/a	n/a	n/a	n/a	n/a	n/a	n/a
3962.76	n/a	RECOG_CONF	1981380	n/a	LTP220	ltpFR	2	4	n/a	SAUCER	1237	4	n/a	n/a	n/a	n/a	n/a	n/a
3972.608	n/a	REC_START	1986304	n/a	LTP220	ltpFR	2	5	n/a	n/a	n/a	n/a	n/a	n/a	n/a	n/a	n/a	n/a
3972.662	n/a	RECOG_TARGET	1986331	n/a	LTP220	ltpFR	2	5	1	SIDEWALK	1303	3	0	n/a	n/a	n/a	n/a	n/a
3974.508	n/a	RECOG_RESP	1987254	n/a	LTP220	ltpFR	2	5	1	SIDEWALK	1303	n/a	0	n/a	n/a	n/a	n/a	n/a
3976.634	n/a	RECOG_CONF	1988317	n/a	LTP220	ltpFR	2	5	1	SIDEWALK	1303	3	0	n/a	n/a	n/a	n/a	n/a
3978.946	n/a	RECOG_LURE	1989473	n/a	LTP220	ltpFR	2	5	n/a	HURRICANE	727	2	n/a	n/a	n/a	n/a	n/a	n/a
3983.818	n/a	RECOG_RESP	1991909	n/a	LTP220	ltpFR	2	5	n/a	HURRICANE	727	n/a	n/a	n/a	n/a	n/a	n/a	n/a
3987.72	n/a	RECOG_CONF	1993860	n/a	LTP220	ltpFR	2	5	n/a	HURRICANE	727	2	n/a	n/a	n/a	n/a	n/a	n/a
3989.81	n/a	RECOG_TARGET	1994905	n/a	LTP220	ltpFR	2	5	0	BLACKBERRY	132	5	0	n/a	n/a	n/a	n/a	n/a
3991.258	n/a	RECOG_RESP	1995629	n/a	LTP220	ltpFR	2	5	0	BLACKBERRY	132	n/a	0	n/a	n/a	n/a	n/a	n/a
3993.214	n/a	RECOG_CONF	1996607	n/a	LTP220	ltpFR	2	5	0	BLACKBERRY	132	5	0	n/a	n/a	n/a	n/a	n/a
3996.202	n/a	RECOG_LURE	1998101	n/a	LTP220	ltpFR	2	5	n/a	VOLCANO	1575	4	n/a	n/a	n/a	n/a	n/a	n/a
3997.69	n/a	RECOG_RESP	1998845	n/a	LTP220	ltpFR	2	5	n/a	VOLCANO	1575	n/a	n/a	n/a	n/a	n/a	n/a	n/a
3999.676	n/a	RECOG_CONF	1999838	n/a	LTP220	ltpFR	2	5	n/a	VOLCANO	1575	4	n/a	n/a	n/a	n/a	n/a	n/a
4001.95	n/a	RECOG_TARGET	2000975	n/a	LTP220	ltpFR	2	5	1	HANDBAG	684	4	0	n/a	n/a	n/a	n/a	n/a
4003.312	n/a	RECOG_RESP	2001656	n/a	LTP220	ltpFR	2	5	1	HANDBAG	684	n/a	0	n/a	n/a	n/a	n/a	n/a
4005.062	n/a	RECOG_CONF	2002531	n/a	LTP220	ltpFR	2	5	1	HANDBAG	684	4	0	n/a	n/a	n/a	n/a	n/a
4007.378	n/a	RECOG_TARGET	2003689	n/a	LTP220	ltpFR	2	5	-1	TRIANGLE	1504	5	-1	n/a	n/a	n/a	n/a	n/a
4009.86	n/a	RECOG_RESP	2004930	n/a	LTP220	ltpFR	2	5	-1	TRIANGLE	1504	n/a	-1	n/a	n/a	n/a	n/a	n/a
4011.042	n/a	RECOG_CONF	2005521	n/a	LTP220	ltpFR	2	5	-1	TRIANGLE	1504	5	-1	n/a	n/a	n/a	n/a	n/a
4013.812	n/a	RECOG_LURE	2006906	n/a	LTP220	ltpFR	2	5	n/a	CUSTOMER	430	4	n/a	n/a	n/a	n/a	n/a	n/a
4015.576	n/a	RECOG_RESP	2007788	n/a	LTP220	ltpFR	2	5	n/a	CUSTOMER	430	n/a	n/a	n/a	n/a	n/a	n/a	n/a
4017.12	n/a	RECOG_CONF	2008560	n/a	LTP220	ltpFR	2	5	n/a	CUSTOMER	430	4	n/a	n/a	n/a	n/a	n/a	n/a
4019.986	n/a	RECOG_TARGET	2009993	n/a	LTP220	ltpFR	2	5	-1	MAPLE	866	5	-1	n/a	n/a	n/a	n/a	n/a
4021.994	n/a	RECOG_RESP	2010997	n/a	LTP220	ltpFR	2	5	-1	MAPLE	866	n/a	-1	n/a	n/a	n/a	n/a	n/a
4023.6	n/a	RECOG_CONF	2011800	n/a	LTP220	ltpFR	2	5	-1	MAPLE	866	5	-1	n/a	n/a	n/a	n/a	n/a
4025.64	n/a	RECOG_TARGET	2012820	n/a	LTP220	ltpFR	2	5	-1	MOUSE	925	5	-1	n/a	n/a	n/a	n/a	n/a
4027.006	n/a	RECOG_RESP	2013503	n/a	LTP220	ltpFR	2	5	-1	MOUSE	925	n/a	-1	n/a	n/a	n/a	n/a	n/a
4028.698	n/a	RECOG_CONF	2014349	n/a	LTP220	ltpFR	2	5	-1	MOUSE	925	5	-1	n/a	n/a	n/a	n/a	n/a
4030.768	n/a	RECOG_TARGET	2015384	n/a	LTP220	ltpFR	2	5	0	WALLET	1583	5	0	n/a	n/a	n/a	n/a	n/a
4032.106	n/a	RECOG_RESP	2016053	n/a	LTP220	ltpFR	2	5	0	WALLET	1583	n/a	0	n/a	n/a	n/a	n/a	n/a
4033.652	n/a	RECOG_CONF	2016826	n/a	LTP220	ltpFR	2	5	0	WALLET	1583	5	0	n/a	n/a	n/a	n/a	n/a
4036.33	n/a	RECOG_TARGET	2018165	n/a	LTP220	ltpFR	2	5	1	ALLIGATOR	16	5	n/a	n/a	n/a	n/a	n/a	n/a
4038.036	n/a	RECOG_RESP	2019018	n/a	LTP220	ltpFR	2	5	1	ALLIGATOR	16	n/a	n/a	n/a	n/a	n/a	n/a	n/a
4039.446	n/a	RECOG_CONF	2019723	n/a	LTP220	ltpFR	2	5	1	ALLIGATOR	16	5	n/a	n/a	n/a	n/a	n/a	n/a
4041.97	n/a	RECOG_LURE	2020985	n/a	LTP220	ltpFR	2	5	n/a	BULLET	194	2	n/a	n/a	n/a	n/a	n/a	n/a
4046.05	n/a	RECOG_RESP	2023025	n/a	LTP220	ltpFR	2	5	n/a	BULLET	194	n/a	n/a	n/a	n/a	n/a	n/a	n/a
4048.924	n/a	RECOG_CONF	2024462	n/a	LTP220	ltpFR	2	5	n/a	BULLET	194	2	n/a	n/a	n/a	n/a	n/a	n/a
4052.952	n/a	RECOG_TARGET	2026476	n/a	LTP220	ltpFR	2	5	-1	POLE	1097	2	-1	n/a	n/a	n/a	n/a	n/a
4057.638	n/a	RECOG_RESP	2028819	n/a	LTP220	ltpFR	2	5	-1	POLE	1097	n/a	-1	n/a	n/a	n/a	n/a	n/a
4059.548	n/a	RECOG_CONF	2029774	n/a	LTP220	ltpFR	2	5	-1	POLE	1097	2	-1	n/a	n/a	n/a	n/a	n/a
4062.17	n/a	RECOG_LURE	2031085	n/a	LTP220	ltpFR	2	5	n/a	NUT	965	5	n/a	n/a	n/a	n/a	n/a	n/a
4063.644	n/a	RECOG_RESP	2031822	n/a	LTP220	ltpFR	2	5	n/a	NUT	965	n/a	n/a	n/a	n/a	n/a	n/a	n/a
4065.686	n/a	RECOG_CONF	2032843	n/a	LTP220	ltpFR	2	5	n/a	NUT	965	5	n/a	n/a	n/a	n/a	n/a	n/a
4068.068	n/a	RECOG_TARGET	2034034	n/a	LTP220	ltpFR	2	5	1	FLESH	579	4	1	n/a	n/a	n/a	n/a	n/a
4069.944	n/a	RECOG_RESP	2034972	n/a	LTP220	ltpFR	2	5	1	FLESH	579	n/a	1	n/a	n/a	n/a	n/a	n/a
4071.97	n/a	RECOG_CONF	2035985	n/a	LTP220	ltpFR	2	5	1	FLESH	579	4	1	n/a	n/a	n/a	n/a	n/a
4074.694	n/a	RECOG_LURE	2037347	n/a	LTP220	ltpFR	2	5	n/a	COP	376	2	n/a	n/a	n/a	n/a	n/a	n/a
4076.896	n/a	RECOG_RESP	2038448	n/a	LTP220	ltpFR	2	5	n/a	COP	376	n/a	n/a	n/a	n/a	n/a	n/a	n/a
4080.874	n/a	RECOG_CONF	2040437	n/a	LTP220	ltpFR	2	5	n/a	COP	376	2	n/a	n/a	n/a	n/a	n/a	n/a
4082.826	n/a	RECOG_LURE	2041413	n/a	LTP220	ltpFR	2	5	n/a	CONSOLE	364	4	n/a	n/a	n/a	n/a	n/a	n/a
4085.332	n/a	RECOG_RESP	2042666	n/a	LTP220	ltpFR	2	5	n/a	CONSOLE	364	n/a	n/a	n/a	n/a	n/a	n/a	n/a
4087.5	n/a	RECOG_CONF	2043750	n/a	LTP220	ltpFR	2	5	n/a	CONSOLE	364	4	n/a	n/a	n/a	n/a	n/a	n/a
4089.634	n/a	RECOG_LURE	2044817	n/a	LTP220	ltpFR	2	5	n/a	MOTOR	922	4	n/a	n/a	n/a	n/a	n/a	n/a
4094.086	n/a	RECOG_RESP	2047043	n/a	LTP220	ltpFR	2	5	n/a	MOTOR	922	n/a	n/a	n/a	n/a	n/a	n/a	n/a
4096.688	n/a	RECOG_CONF	2048344	n/a	LTP220	ltpFR	2	5	n/a	MOTOR	922	4	n/a	n/a	n/a	n/a	n/a	n/a
4099.798	n/a	RECOG_TARGET	2049899	n/a	LTP220	ltpFR	2	5	1	LITERATURE	831	2	1	n/a	n/a	n/a	n/a	n/a
4106.7	n/a	RECOG_RESP	2053350	n/a	LTP220	ltpFR	2	5	1	LITERATURE	831	n/a	1	n/a	n/a	n/a	n/a	n/a
4110.178	n/a	RECOG_CONF	2055089	n/a	LTP220	ltpFR	2	5	1	LITERATURE	831	2	1	n/a	n/a	n/a	n/a	n/a
4112.28	n/a	RECOG_TARGET	2056140	n/a	LTP220	ltpFR	2	5	0	COCKTAIL	338	4	0	n/a	n/a	n/a	n/a	n/a
4114.476	n/a	RECOG_RESP	2057238	n/a	LTP220	ltpFR	2	5	0	COCKTAIL	338	n/a	0	n/a	n/a	n/a	n/a	n/a
4117.152	n/a	RECOG_CONF	2058576	n/a	LTP220	ltpFR	2	5	0	COCKTAIL	338	4	0	n/a	n/a	n/a	n/a	n/a
4129.12	n/a	REC_START	2064560	n/a	LTP220	ltpFR	2	6	n/a	n/a	n/a	n/a	n/a	n/a	n/a	n/a	n/a	n/a
4129.17	n/a	RECOG_TARGET	2064585	n/a	LTP220	ltpFR	2	6	0	DRAGON	492	5	1	n/a	n/a	n/a	n/a	n/a
4130.666	n/a	RECOG_RESP	2065333	n/a	LTP220	ltpFR	2	6	0	DRAGON	492	n/a	1	n/a	n/a	n/a	n/a	n/a
4132.15	n/a	RECOG_CONF	2066075	n/a	LTP220	ltpFR	2	6	0	DRAGON	492	5	1	n/a	n/a	n/a	n/a	n/a
4134.506	n/a	RECOG_TARGET	2067253	n/a	LTP220	ltpFR	2	6	0	CASH	252	4	0	n/a	n/a	n/a	n/a	n/a
4136.184	n/a	RECOG_RESP	2068092	n/a	LTP220	ltpFR	2	6	0	CASH	252	n/a	0	n/a	n/a	n/a	n/a	n/a
4138.742	n/a	RECOG_CONF	2069371	n/a	LTP220	ltpFR	2	6	0	CASH	252	4	0	n/a	n/a	n/a	n/a	n/a
4140.738	n/a	RECOG_TARGET	2070369	n/a	LTP220	ltpFR	2	6	0	RACKET	1155	4	0	n/a	n/a	n/a	n/a	n/a
4141.986	n/a	RECOG_RESP	2070993	n/a	LTP220	ltpFR	2	6	0	RACKET	1155	n/a	0	n/a	n/a	n/a	n/a	n/a
4143.996	n/a	RECOG_CONF	2071998	n/a	LTP220	ltpFR	2	6	0	RACKET	1155	4	0	n/a	n/a	n/a	n/a	n/a
4146.124	n/a	RECOG_TARGET	2073062	n/a	LTP220	ltpFR	2	6	0	CUSTARD	429	2	n/a	n/a	n/a	n/a	n/a	n/a
4152.634	n/a	RECOG_RESP	2076317	n/a	LTP220	ltpFR	2	6	0	CUSTARD	429	n/a	n/a	n/a	n/a	n/a	n/a	n/a
4154.694	n/a	RECOG_CONF	2077347	n/a	LTP220	ltpFR	2	6	0	CUSTARD	429	2	n/a	n/a	n/a	n/a	n/a	n/a
4157.168	n/a	RECOG_LURE	2078584	n/a	LTP220	ltpFR	2	6	n/a	STAR	1373	4	n/a	n/a	n/a	n/a	n/a	n/a
4159.716	n/a	RECOG_RESP	2079858	n/a	LTP220	ltpFR	2	6	n/a	STAR	1373	n/a	n/a	n/a	n/a	n/a	n/a	n/a
4162.194	n/a	RECOG_CONF	2081097	n/a	LTP220	ltpFR	2	6	n/a	STAR	1373	4	n/a	n/a	n/a	n/a	n/a	n/a
4164.638	n/a	RECOG_LURE	2082319	n/a	LTP220	ltpFR	2	6	n/a	LENS	811	2	n/a	n/a	n/a	n/a	n/a	n/a
4168.592	n/a	RECOG_RESP	2084296	n/a	LTP220	ltpFR	2	6	n/a	LENS	811	n/a	n/a	n/a	n/a	n/a	n/a	n/a
4173.924	n/a	RECOG_CONF	2086962	n/a	LTP220	ltpFR	2	6	n/a	LENS	811	2	n/a	n/a	n/a	n/a	n/a	n/a
4175.922	n/a	RECOG_TARGET	2087961	n/a	LTP220	ltpFR	2	6	0	TROMBONE	1508	5	0	n/a	n/a	n/a	n/a	n/a
4177.224	n/a	RECOG_RESP	2088612	n/a	LTP220	ltpFR	2	6	0	TROMBONE	1508	n/a	0	n/a	n/a	n/a	n/a	n/a
4179.48	n/a	RECOG_CONF	2089740	n/a	LTP220	ltpFR	2	6	0	TROMBONE	1508	5	0	n/a	n/a	n/a	n/a	n/a
4181.844	n/a	RECOG_LURE	2090922	n/a	LTP220	ltpFR	2	6	n/a	OATS	968	4	n/a	n/a	n/a	n/a	n/a	n/a
4186.66	n/a	RECOG_RESP	2093330	n/a	LTP220	ltpFR	2	6	n/a	OATS	968	n/a	n/a	n/a	n/a	n/a	n/a	n/a
4191.692	n/a	RECOG_CONF	2095846	n/a	LTP220	ltpFR	2	6	n/a	OATS	968	4	n/a	n/a	n/a	n/a	n/a	n/a
4193.766	n/a	RECOG_LURE	2096883	n/a	LTP220	ltpFR	2	6	n/a	ATOM	55	4	n/a	n/a	n/a	n/a	n/a	n/a
4197.14	n/a	RECOG_RESP	2098570	n/a	LTP220	ltpFR	2	6	n/a	ATOM	55	n/a	n/a	n/a	n/a	n/a	n/a	n/a
4199.318	n/a	RECOG_CONF	2099659	n/a	LTP220	ltpFR	2	6	n/a	ATOM	55	4	n/a	n/a	n/a	n/a	n/a	n/a
4201.378	n/a	RECOG_TARGET	2100689	n/a	LTP220	ltpFR	2	6	-1	BALLERINA	74	5	-1	n/a	n/a	n/a	n/a	n/a
4202.906	n/a	RECOG_RESP	2101453	n/a	LTP220	ltpFR	2	6	-1	BALLERINA	74	n/a	-1	n/a	n/a	n/a	n/a	n/a
4204.4	n/a	RECOG_CONF	2102200	n/a	LTP220	ltpFR	2	6	-1	BALLERINA	74	5	-1	n/a	n/a	n/a	n/a	n/a
4206.716	n/a	RECOG_TARGET	2103358	n/a	LTP220	ltpFR	2	6	0	GATE	625	5	0	n/a	n/a	n/a	n/a	n/a
4208.132	n/a	RECOG_RESP	2104066	n/a	LTP220	ltpFR	2	6	0	GATE	625	n/a	0	n/a	n/a	n/a	n/a	n/a
4209.43	n/a	RECOG_CONF	2104715	n/a	LTP220	ltpFR	2	6	0	GATE	625	5	0	n/a	n/a	n/a	n/a	n/a
4211.684	n/a	RECOG_LURE	2105842	n/a	LTP220	ltpFR	2	6	n/a	DUNE	506	4	n/a	n/a	n/a	n/a	n/a	n/a
4213.124	n/a	RECOG_RESP	2106562	n/a	LTP220	ltpFR	2	6	n/a	DUNE	506	n/a	n/a	n/a	n/a	n/a	n/a	n/a
4214.824	n/a	RECOG_CONF	2107412	n/a	LTP220	ltpFR	2	6	n/a	DUNE	506	4	n/a	n/a	n/a	n/a	n/a	n/a
4217.632	n/a	RECOG_LURE	2108816	n/a	LTP220	ltpFR	2	6	n/a	CHISEL	305	4	n/a	n/a	n/a	n/a	n/a	n/a
4219.128	n/a	RECOG_RESP	2109564	n/a	LTP220	ltpFR	2	6	n/a	CHISEL	305	n/a	n/a	n/a	n/a	n/a	n/a	n/a
4222.33	n/a	RECOG_CONF	2111165	n/a	LTP220	ltpFR	2	6	n/a	CHISEL	305	4	n/a	n/a	n/a	n/a	n/a	n/a
4225.144	n/a	RECOG_LURE	2112572	n/a	LTP220	ltpFR	2	6	n/a	PORCH	1106	4	n/a	n/a	n/a	n/a	n/a	n/a
4226.844	n/a	RECOG_RESP	2113422	n/a	LTP220	ltpFR	2	6	n/a	PORCH	1106	n/a	n/a	n/a	n/a	n/a	n/a	n/a
4229.778	n/a	RECOG_CONF	2114889	n/a	LTP220	ltpFR	2	6	n/a	PORCH	1106	4	n/a	n/a	n/a	n/a	n/a	n/a
4232.572	n/a	RECOG_LURE	2116286	n/a	LTP220	ltpFR	2	6	n/a	DOLLAR	482	5	n/a	n/a	n/a	n/a	n/a	n/a
4235.336	n/a	RECOG_RESP	2117668	n/a	LTP220	ltpFR	2	6	n/a	DOLLAR	482	n/a	n/a	n/a	n/a	n/a	n/a	n/a
4239.112	n/a	RECOG_CONF	2119556	n/a	LTP220	ltpFR	2	6	n/a	DOLLAR	482	5	n/a	n/a	n/a	n/a	n/a	n/a
4241.204	n/a	RECOG_TARGET	2120602	n/a	LTP220	ltpFR	2	6	-1	STORE	1387	5	-1	n/a	n/a	n/a	n/a	n/a
4243.6	n/a	RECOG_RESP	2121800	n/a	LTP220	ltpFR	2	6	-1	STORE	1387	n/a	-1	n/a	n/a	n/a	n/a	n/a
4245.776	n/a	RECOG_CONF	2122888	n/a	LTP220	ltpFR	2	6	-1	STORE	1387	5	-1	n/a	n/a	n/a	n/a	n/a
4248.04	n/a	RECOG_LURE	2124020	n/a	LTP220	ltpFR	2	6	n/a	WOLF	1619	5	n/a	n/a	n/a	n/a	n/a	n/a
4249.412	n/a	RECOG_RESP	2124706	n/a	LTP220	ltpFR	2	6	n/a	WOLF	1619	n/a	n/a	n/a	n/a	n/a	n/a	n/a
4252.572	n/a	RECOG_CONF	2126286	n/a	LTP220	ltpFR	2	6	n/a	WOLF	1619	5	n/a	n/a	n/a	n/a	n/a	n/a
4254.64	n/a	RECOG_TARGET	2127320	n/a	LTP220	ltpFR	2	6	1	COMEDIAN	352	5	0	n/a	n/a	n/a	n/a	n/a
4256.22	n/a	RECOG_RESP	2128110	n/a	LTP220	ltpFR	2	6	1	COMEDIAN	352	n/a	0	n/a	n/a	n/a	n/a	n/a
4258.256	n/a	RECOG_CONF	2129128	n/a	LTP220	ltpFR	2	6	1	COMEDIAN	352	5	0	n/a	n/a	n/a	n/a	n/a
4260.26	n/a	RECOG_LURE	2130130	n/a	LTP220	ltpFR	2	6	n/a	CAULIFLOWER	262	2	n/a	n/a	n/a	n/a	n/a	n/a
4264.414	n/a	RECOG_RESP	2132207	n/a	LTP220	ltpFR	2	6	n/a	CAULIFLOWER	262	n/a	n/a	n/a	n/a	n/a	n/a	n/a
4266.29	n/a	RECOG_CONF	2133145	n/a	LTP220	ltpFR	2	6	n/a	CAULIFLOWER	262	2	n/a	n/a	n/a	n/a	n/a	n/a
4268.894	n/a	RECOG_TARGET	2134447	n/a	LTP220	ltpFR	2	6	-1	MOUNTAIN	924	5	-1	n/a	n/a	n/a	n/a	n/a
4270.25	n/a	RECOG_RESP	2135125	n/a	LTP220	ltpFR	2	6	-1	MOUNTAIN	924	n/a	-1	n/a	n/a	n/a	n/a	n/a
4271.846	n/a	RECOG_CONF	2135923	n/a	LTP220	ltpFR	2	6	-1	MOUNTAIN	924	5	-1	n/a	n/a	n/a	n/a	n/a
4284.852	n/a	REC_START	2142426	n/a	LTP220	ltpFR	2	7	n/a	n/a	n/a	n/a	n/a	n/a	n/a	n/a	n/a	n/a
4284.906	n/a	RECOG_TARGET	2142453	n/a	LTP220	ltpFR	2	7	1	ORCHID	982	4	n/a	n/a	n/a	n/a	n/a	n/a
4290.342	n/a	RECOG_RESP	2145171	n/a	LTP220	ltpFR	2	7	1	ORCHID	982	n/a	n/a	n/a	n/a	n/a	n/a	n/a
4292.06	n/a	RECOG_CONF	2146030	n/a	LTP220	ltpFR	2	7	1	ORCHID	982	4	n/a	n/a	n/a	n/a	n/a	n/a
4295.294	n/a	RECOG_LURE	2147647	n/a	LTP220	ltpFR	2	7	n/a	EYE	545	4	n/a	n/a	n/a	n/a	n/a	n/a
4296.788	n/a	RECOG_RESP	2148394	n/a	LTP220	ltpFR	2	7	n/a	EYE	545	n/a	n/a	n/a	n/a	n/a	n/a	n/a
4299.836	n/a	RECOG_CONF	2149918	n/a	LTP220	ltpFR	2	7	n/a	EYE	545	4	n/a	n/a	n/a	n/a	n/a	n/a
4302.8	n/a	RECOG_LURE	2151400	n/a	LTP220	ltpFR	2	7	n/a	NEEDLE	941	4	n/a	n/a	n/a	n/a	n/a	n/a
4305.548	n/a	RECOG_RESP	2152774	n/a	LTP220	ltpFR	2	7	n/a	NEEDLE	941	n/a	n/a	n/a	n/a	n/a	n/a	n/a
4312.164	n/a	RECOG_CONF	2156082	n/a	LTP220	ltpFR	2	7	n/a	NEEDLE	941	4	n/a	n/a	n/a	n/a	n/a	n/a
4314.3	n/a	RECOG_TARGET	2157150	n/a	LTP220	ltpFR	2	7	0	BARLEY	88	5	0	n/a	n/a	n/a	n/a	n/a
4315.924	n/a	RECOG_RESP	2157962	n/a	LTP220	ltpFR	2	7	0	BARLEY	88	n/a	0	n/a	n/a	n/a	n/a	n/a
4317.754	n/a	RECOG_CONF	2158877	n/a	LTP220	ltpFR	2	7	0	BARLEY	88	5	0	n/a	n/a	n/a	n/a	n/a
4319.882	n/a	RECOG_LURE	2159941	n/a	LTP220	ltpFR	2	7	n/a	POISON	1096	4	n/a	n/a	n/a	n/a	n/a	n/a
4321.152	n/a	RECOG_RESP	2160576	n/a	LTP220	ltpFR	2	7	n/a	POISON	1096	n/a	n/a	n/a	n/a	n/a	n/a	n/a
4322.808	n/a	RECOG_CONF	2161404	n/a	LTP220	ltpFR	2	7	n/a	POISON	1096	4	n/a	n/a	n/a	n/a	n/a	n/a
4325.426	n/a	RECOG_LURE	2162713	n/a	LTP220	ltpFR	2	7	n/a	CORN	381	2	n/a	n/a	n/a	n/a	n/a	n/a
4332.578	n/a	RECOG_RESP	2166289	n/a	LTP220	ltpFR	2	7	n/a	CORN	381	n/a	n/a	n/a	n/a	n/a	n/a	n/a
4334.956	n/a	RECOG_CONF	2167478	n/a	LTP220	ltpFR	2	7	n/a	CORN	381	2	n/a	n/a	n/a	n/a	n/a	n/a
4337.498	n/a	RECOG_LURE	2168749	n/a	LTP220	ltpFR	2	7	n/a	OCTOPUS	971	4	n/a	n/a	n/a	n/a	n/a	n/a
4339.436	n/a	RECOG_RESP	2169718	n/a	LTP220	ltpFR	2	7	n/a	OCTOPUS	971	n/a	n/a	n/a	n/a	n/a	n/a	n/a
4341.424	n/a	RECOG_CONF	2170712	n/a	LTP220	ltpFR	2	7	n/a	OCTOPUS	971	4	n/a	n/a	n/a	n/a	n/a	n/a
4344.014	n/a	RECOG_TARGET	2172007	n/a	LTP220	ltpFR	2	7	-1	ANT	25	4	-1	n/a	n/a	n/a	n/a	n/a
4346.126	n/a	RECOG_RESP	2173063	n/a	LTP220	ltpFR	2	7	-1	ANT	25	n/a	-1	n/a	n/a	n/a	n/a	n/a
4348.406	n/a	RECOG_CONF	2174203	n/a	LTP220	ltpFR	2	7	-1	ANT	25	4	-1	n/a	n/a	n/a	n/a	n/a
4351.042	n/a	RECOG_TARGET	2175521	n/a	LTP220	ltpFR	2	7	-1	NAPKIN	937	5	-1	n/a	n/a	n/a	n/a	n/a
4352.438	n/a	RECOG_RESP	2176219	n/a	LTP220	ltpFR	2	7	-1	NAPKIN	937	n/a	-1	n/a	n/a	n/a	n/a	n/a
4353.93	n/a	RECOG_CONF	2176965	n/a	LTP220	ltpFR	2	7	-1	NAPKIN	937	5	-1	n/a	n/a	n/a	n/a	n/a
4356.462	n/a	RECOG_LURE	2178231	n/a	LTP220	ltpFR	2	7	n/a	OUTLAW	989	2	n/a	n/a	n/a	n/a	n/a	n/a
4359.718	n/a	RECOG_RESP	2179859	n/a	LTP220	ltpFR	2	7	n/a	OUTLAW	989	n/a	n/a	n/a	n/a	n/a	n/a	n/a
4368.482	n/a	RECOG_CONF	2184241	n/a	LTP220	ltpFR	2	7	n/a	OUTLAW	989	2	n/a	n/a	n/a	n/a	n/a	n/a
4370.842	n/a	RECOG_LURE	2185421	n/a	LTP220	ltpFR	2	7	n/a	DIME	466	2	n/a	n/a	n/a	n/a	n/a	n/a
4373.39	n/a	RECOG_RESP	2186695	n/a	LTP220	ltpFR	2	7	n/a	DIME	466	n/a	n/a	n/a	n/a	n/a	n/a	n/a
4378.856	n/a	RECOG_CONF	2189428	n/a	LTP220	ltpFR	2	7	n/a	DIME	466	2	n/a	n/a	n/a	n/a	n/a	n/a
4380.848	n/a	RECOG_TARGET	2190424	n/a	LTP220	ltpFR	2	7	-1	CANDY	230	5	-1	n/a	n/a	n/a	n/a	n/a
4384.752	n/a	RECOG_RESP	2192376	n/a	LTP220	ltpFR	2	7	-1	CANDY	230	n/a	-1	n/a	n/a	n/a	n/a	n/a
4386.67	n/a	RECOG_CONF	2193335	n/a	LTP220	ltpFR	2	7	-1	CANDY	230	5	-1	n/a	n/a	n/a	n/a	n/a
4388.594	n/a	RECOG_LURE	2194297	n/a	LTP220	ltpFR	2	7	n/a	NOOSE	956	4	n/a	n/a	n/a	n/a	n/a	n/a
4390.584	n/a	RECOG_RESP	2195292	n/a	LTP220	ltpFR	2	7	n/a	NOOSE	956	n/a	n/a	n/a	n/a	n/a	n/a	n/a
4393.188	n/a	RECOG_CONF	2196594	n/a	LTP220	ltpFR	2	7	n/a	NOOSE	956	4	n/a	n/a	n/a	n/a	n/a	n/a
