mstime	trial_type	stim_file	subject	experiment	session	trial	task	item_name	item_num	recog_conf	resp	color_b	color_g	color_r	case	font
0	SESS_START	n/a	LTP248	ltpFR	0	n/a	n/a	n/a	n/a	5	n/a	n/a	n/a	n/a	n/a	n/a
91852	WORD	wordpools/wasnorm_wordpool_less_exclusions.txt	LTP248	ltpFR	0	1	-1	FLIPPER	580	n/a	-1	1	1.0	1.0	upper	../fonts/Verdana.ttf
95763	WORD	wordpools/wasnorm_wordpool_less_exclusions.txt	LTP248	ltpFR	0	1	-1	CHEF	290	n/a	-1	1	1.0	1.0	upper	../fonts/Verdana.ttf
99974	WORD	wordpools/wasnorm_wordpool_less_exclusions.txt	LTP248	ltpFR	0	1	-1	COIN	343	n/a	-1	1	1.0	1.0	upper	../fonts/Verdana.ttf
104018	WORD	wordpools/wasnorm_wordpool_less_exclusions.txt	LTP248	ltpFR	0	1	-1	NICKEL	950	n/a	-1	1	1.0	1.0	upper	../fonts/Verdana.ttf
108112	WORD	wordpools/wasnorm_wordpool_less_exclusions.txt	LTP248	ltpFR	0	1	-1	JUG	762	n/a	-1	1	1.0	1.0	upper	../fonts/Verdana.ttf
111940	WORD	wordpools/wasnorm_wordpool_less_exclusions.txt	LTP248	ltpFR	0	1	-1	COTTAGE	384	n/a	-1	1	1.0	1.0	upper	../fonts/Verdana.ttf
115967	WORD	wordpools/wasnorm_wordpool_less_exclusions.txt	LTP248	ltpFR	0	1	-1	HUT	729	n/a	-1	1	1.0	1.0	upper	../fonts/Verdana.ttf
119810	WORD	wordpools/wasnorm_wordpool_less_exclusions.txt	LTP248	ltpFR	0	1	-1	COLUMN	350	n/a	-1	1	1.0	1.0	upper	../fonts/Verdana.ttf
123771	WORD	wordpools/wasnorm_wordpool_less_exclusions.txt	LTP248	ltpFR	0	1	-1	POTTERY	1116	n/a	-1	1	1.0	1.0	upper	../fonts/Verdana.ttf
127915	WORD	wordpools/wasnorm_wordpool_less_exclusions.txt	LTP248	ltpFR	0	1	-1	MONUMENT	913	n/a	-1	1	1.0	1.0	upper	../fonts/Verdana.ttf
131892	WORD	wordpools/wasnorm_wordpool_less_exclusions.txt	LTP248	ltpFR	0	1	-1	PANTS	1010	n/a	-1	1	1.0	1.0	upper	../fonts/Verdana.ttf
135820	WORD	wordpools/wasnorm_wordpool_less_exclusions.txt	LTP248	ltpFR	0	1	-1	KETCHUP	771	n/a	-1	1	1.0	1.0	upper	../fonts/Verdana.ttf
139797	WORD	wordpools/wasnorm_wordpool_less_exclusions.txt	LTP248	ltpFR	0	1	-1	STAR	1373	n/a	-1	1	1.0	1.0	upper	../fonts/Verdana.ttf
143791	WORD	wordpools/wasnorm_wordpool_less_exclusions.txt	LTP248	ltpFR	0	1	-1	BRANDY	169	n/a	-1	1	1.0	1.0	upper	../fonts/Verdana.ttf
147669	WORD	wordpools/wasnorm_wordpool_less_exclusions.txt	LTP248	ltpFR	0	1	-1	BEET	115	n/a	-1	1	1.0	1.0	upper	../fonts/Verdana.ttf
151679	WORD	wordpools/wasnorm_wordpool_less_exclusions.txt	LTP248	ltpFR	0	1	-1	COMET	353	n/a	-1	1	1.0	1.0	upper	../fonts/Verdana.ttf
157422	REC_START	n/a	LTP248	ltpFR	0	1	n/a	n/a	n/a	n/a	n/a	n/a	n/a	n/a	n/a	n/a
159776	REC_WORD	wordpools/wasnorm_wordpool_less_exclusions.txt	LTP248	ltpFR	0	1	-1	COMET	353	n/a	-1	n/a	n/a	n/a	n/a	n/a
161128	REC_WORD	wordpools/wasnorm_wordpool_less_exclusions.txt	LTP248	ltpFR	0	1	-1	STAR	1373	n/a	-1	n/a	n/a	n/a	n/a	n/a
162894	REC_WORD	wordpools/wasnorm_wordpool_less_exclusions.txt	LTP248	ltpFR	0	1	-1	COLUMN	350	n/a	-1	n/a	n/a	n/a	n/a	n/a
164655	REC_WORD	wordpools/wasnorm_wordpool_less_exclusions.txt	LTP248	ltpFR	0	1	-1	CHEF	290	n/a	-1	n/a	n/a	n/a	n/a	n/a
166456	REC_WORD	wordpools/wasnorm_wordpool_less_exclusions.txt	LTP248	ltpFR	0	1	-1	KETCHUP	771	n/a	-1	n/a	n/a	n/a	n/a	n/a
168262	REC_WORD	wordpools/wasnorm_wordpool_less_exclusions.txt	LTP248	ltpFR	0	1	-1	BEET	115	n/a	-1	n/a	n/a	n/a	n/a	n/a
170313	REC_WORD	wordpools/wasnorm_wordpool_less_exclusions.txt	LTP248	ltpFR	0	1	-1	COTTAGE	384	n/a	-1	n/a	n/a	n/a	n/a	n/a
172917	REC_WORD	wordpools/wasnorm_wordpool_less_exclusions.txt	LTP248	ltpFR	0	1	-1	MONUMENT	913	n/a	-1	n/a	n/a	n/a	n/a	n/a
177052	REC_WORD	wordpools/wasnorm_wordpool_less_exclusions.txt	LTP248	ltpFR	0	1	-1	COIN	343	n/a	-1	n/a	n/a	n/a	n/a	n/a
179237	REC_WORD	wordpools/wasnorm_wordpool_less_exclusions.txt	LTP248	ltpFR	0	1	-1	NICKEL	950	n/a	-1	n/a	n/a	n/a	n/a	n/a
194148	REC_WORD	wordpools/wasnorm_wordpool_less_exclusions.txt	LTP248	ltpFR	0	1	-1	COLUMN	350	n/a	-1	n/a	n/a	n/a	n/a	n/a
203054	REC_WORD	wordpools/wasnorm_wordpool_less_exclusions.txt	LTP248	ltpFR	0	1	n/a	POT	1114	n/a	n/a	n/a	n/a	n/a	n/a	n/a
223551	REC_WORD	wordpools/wasnorm_wordpool_less_exclusions.txt	LTP248	ltpFR	0	1	n/a	PATH	1023	n/a	n/a	n/a	n/a	n/a	n/a	n/a
252629	WORD	wordpools/wasnorm_wordpool_less_exclusions.txt	LTP248	ltpFR	0	2	-1	SPARROW	1347	n/a	-1	1	1.0	1.0	upper	../fonts/Verdana.ttf
256806	WORD	wordpools/wasnorm_wordpool_less_exclusions.txt	LTP248	ltpFR	0	2	-1	SPONGE	1355	n/a	-1	1	1.0	1.0	upper	../fonts/Verdana.ttf
260800	WORD	wordpools/wasnorm_wordpool_less_exclusions.txt	LTP248	ltpFR	0	2	-1	KETTLE	772	n/a	-1	1	1.0	1.0	upper	../fonts/Verdana.ttf
264794	WORD	wordpools/wasnorm_wordpool_less_exclusions.txt	LTP248	ltpFR	0	2	-1	SKATE	1313	n/a	-1	1	1.0	1.0	upper	../fonts/Verdana.ttf
268755	WORD	wordpools/wasnorm_wordpool_less_exclusions.txt	LTP248	ltpFR	0	2	-1	CHALK	276	n/a	-1	1	1.0	1.0	upper	../fonts/Verdana.ttf
272632	WORD	wordpools/wasnorm_wordpool_less_exclusions.txt	LTP248	ltpFR	0	2	-1	LOOP	844	n/a	-1	1	1.0	1.0	upper	../fonts/Verdana.ttf
276726	WORD	wordpools/wasnorm_wordpool_less_exclusions.txt	LTP248	ltpFR	0	2	-1	BRIDE	173	n/a	-1	1	1.0	1.0	upper	../fonts/Verdana.ttf
280837	WORD	wordpools/wasnorm_wordpool_less_exclusions.txt	LTP248	ltpFR	0	2	-1	BEVERAGE	123	n/a	-1	1	1.0	1.0	upper	../fonts/Verdana.ttf
284948	WORD	wordpools/wasnorm_wordpool_less_exclusions.txt	LTP248	ltpFR	0	2	-1	MARSH	874	n/a	-1	1	1.0	1.0	upper	../fonts/Verdana.ttf
289142	WORD	wordpools/wasnorm_wordpool_less_exclusions.txt	LTP248	ltpFR	0	2	-1	BIRD	129	n/a	-1	1	1.0	1.0	upper	../fonts/Verdana.ttf
293053	WORD	wordpools/wasnorm_wordpool_less_exclusions.txt	LTP248	ltpFR	0	2	-1	HEDGE	699	n/a	-1	1	1.0	1.0	upper	../fonts/Verdana.ttf
297213	WORD	wordpools/wasnorm_wordpool_less_exclusions.txt	LTP248	ltpFR	0	2	-1	VEGETABLE	1552	n/a	-1	1	1.0	1.0	upper	../fonts/Verdana.ttf
301290	WORD	wordpools/wasnorm_wordpool_less_exclusions.txt	LTP248	ltpFR	0	2	-1	PEAR	1033	n/a	-1	1	1.0	1.0	upper	../fonts/Verdana.ttf
305450	WORD	wordpools/wasnorm_wordpool_less_exclusions.txt	LTP248	ltpFR	0	2	-1	CONTAINER	366	n/a	-1	1	1.0	1.0	upper	../fonts/Verdana.ttf
309394	WORD	wordpools/wasnorm_wordpool_less_exclusions.txt	LTP248	ltpFR	0	2	-1	SURF	1412	n/a	-1	1	1.0	1.0	upper	../fonts/Verdana.ttf
313455	WORD	wordpools/wasnorm_wordpool_less_exclusions.txt	LTP248	ltpFR	0	2	-1	ARCHITECT	36	n/a	-1	1	1.0	1.0	upper	../fonts/Verdana.ttf
319346	REC_START	n/a	LTP248	ltpFR	0	2	n/a	n/a	n/a	n/a	n/a	n/a	n/a	n/a	n/a	n/a
319949	REC_WORD	wordpools/wasnorm_wordpool_less_exclusions.txt	LTP248	ltpFR	0	2	-1	SURF	1412	n/a	-1	n/a	n/a	n/a	n/a	n/a
321077	REC_WORD	wordpools/wasnorm_wordpool_less_exclusions.txt	LTP248	ltpFR	0	2	-1	ARCHITECT	36	n/a	-1	n/a	n/a	n/a	n/a	n/a
322633	REC_WORD	wordpools/wasnorm_wordpool_less_exclusions.txt	LTP248	ltpFR	0	2	-1	SKATE	1313	n/a	-1	n/a	n/a	n/a	n/a	n/a
324130	REC_WORD	wordpools/wasnorm_wordpool_less_exclusions.txt	LTP248	ltpFR	0	2	-1	LOOP	844	n/a	-1	n/a	n/a	n/a	n/a	n/a
326085	REC_WORD	wordpools/wasnorm_wordpool_less_exclusions.txt	LTP248	ltpFR	0	2	-1	SPARROW	1347	n/a	-1	n/a	n/a	n/a	n/a	n/a
330061	REC_WORD	wordpools/wasnorm_wordpool_less_exclusions.txt	LTP248	ltpFR	0	2	-1	BIRD	129	n/a	-1	n/a	n/a	n/a	n/a	n/a
332261	REC_WORD	wordpools/wasnorm_wordpool_less_exclusions.txt	LTP248	ltpFR	0	2	-1	KETTLE	772	n/a	-1	n/a	n/a	n/a	n/a	n/a
333523	REC_WORD	wordpools/wasnorm_wordpool_less_exclusions.txt	LTP248	ltpFR	0	2	-1	CONTAINER	366	n/a	-1	n/a	n/a	n/a	n/a	n/a
339829	REC_WORD	wordpools/wasnorm_wordpool_less_exclusions.txt	LTP248	ltpFR	0	2	n/a	SINK	1309	n/a	n/a	n/a	n/a	n/a	n/a	n/a
342972	REC_WORD	wordpools/wasnorm_wordpool_less_exclusions.txt	LTP248	ltpFR	0	2	-1	BRIDE	173	n/a	-1	n/a	n/a	n/a	n/a	n/a
344479	REC_WORD	wordpools/wasnorm_wordpool_less_exclusions.txt	LTP248	ltpFR	0	2	-1	HEDGE	699	n/a	-1	n/a	n/a	n/a	n/a	n/a
348719	REC_WORD	wordpools/wasnorm_wordpool_less_exclusions.txt	LTP248	ltpFR	0	2	-1	SPONGE	1355	n/a	-1	n/a	n/a	n/a	n/a	n/a
370420	REC_WORD	wordpools/wasnorm_wordpool_less_exclusions.txt	LTP248	ltpFR	0	2	-1	SURF	1412	n/a	-1	n/a	n/a	n/a	n/a	n/a
371296	REC_WORD_VV	wordpools/wasnorm_wordpool_less_exclusions.txt	LTP248	ltpFR	0	2	n/a	<>	-1	n/a	n/a	n/a	n/a	n/a	n/a	n/a
401025	WORD	wordpools/wasnorm_wordpool_less_exclusions.txt	LTP248	ltpFR	0	3	-1	CHERRY	293	n/a	-1	1	1.0	1.0	upper	../fonts/Verdana.ttf
404901	WORD	wordpools/wasnorm_wordpool_less_exclusions.txt	LTP248	ltpFR	0	3	-1	RADIO	1157	n/a	-1	1	1.0	1.0	upper	../fonts/Verdana.ttf
408779	WORD	wordpools/wasnorm_wordpool_less_exclusions.txt	LTP248	ltpFR	0	3	-1	QUARTER	1148	n/a	-1	1	1.0	1.0	upper	../fonts/Verdana.ttf
412923	WORD	wordpools/wasnorm_wordpool_less_exclusions.txt	LTP248	ltpFR	0	3	-1	HOUND	724	n/a	-1	1	1.0	1.0	upper	../fonts/Verdana.ttf
417067	WORD	wordpools/wasnorm_wordpool_less_exclusions.txt	LTP248	ltpFR	0	3	-1	VET	1560	n/a	-1	1	1.0	1.0	upper	../fonts/Verdana.ttf
421195	WORD	wordpools/wasnorm_wordpool_less_exclusions.txt	LTP248	ltpFR	0	3	-1	PLAID	1080	n/a	-1	1	1.0	1.0	upper	../fonts/Verdana.ttf
425139	WORD	wordpools/wasnorm_wordpool_less_exclusions.txt	LTP248	ltpFR	0	3	-1	SLACKS	1323	n/a	-1	1	1.0	1.0	upper	../fonts/Verdana.ttf
429199	WORD	wordpools/wasnorm_wordpool_less_exclusions.txt	LTP248	ltpFR	0	3	-1	DIARY	460	n/a	-1	1	1.0	1.0	upper	../fonts/Verdana.ttf
433342	WORD	wordpools/wasnorm_wordpool_less_exclusions.txt	LTP248	ltpFR	0	3	-1	DINNER	468	n/a	-1	1	1.0	1.0	upper	../fonts/Verdana.ttf
437369	WORD	wordpools/wasnorm_wordpool_less_exclusions.txt	LTP248	ltpFR	0	3	-1	SKILLET	1317	n/a	-1	1	1.0	1.0	upper	../fonts/Verdana.ttf
441248	WORD	wordpools/wasnorm_wordpool_less_exclusions.txt	LTP248	ltpFR	0	3	-1	CAR	241	n/a	-1	1	1.0	1.0	upper	../fonts/Verdana.ttf
445292	WORD	wordpools/wasnorm_wordpool_less_exclusions.txt	LTP248	ltpFR	0	3	-1	BED	110	n/a	-1	1	1.0	1.0	upper	../fonts/Verdana.ttf
449435	WORD	wordpools/wasnorm_wordpool_less_exclusions.txt	LTP248	ltpFR	0	3	-1	TURNIP	1521	n/a	-1	1	1.0	1.0	upper	../fonts/Verdana.ttf
453628	WORD	wordpools/wasnorm_wordpool_less_exclusions.txt	LTP248	ltpFR	0	3	-1	CACTUS	215	n/a	-1	1	1.0	1.0	upper	../fonts/Verdana.ttf
457506	WORD	wordpools/wasnorm_wordpool_less_exclusions.txt	LTP248	ltpFR	0	3	-1	ALMANAC	17	n/a	-1	1	1.0	1.0	upper	../fonts/Verdana.ttf
461350	WORD	wordpools/wasnorm_wordpool_less_exclusions.txt	LTP248	ltpFR	0	3	-1	BANKER	84	n/a	-1	1	1.0	1.0	upper	../fonts/Verdana.ttf
467127	REC_START	n/a	LTP248	ltpFR	0	3	n/a	n/a	n/a	n/a	n/a	n/a	n/a	n/a	n/a	n/a
467446	REC_WORD	wordpools/wasnorm_wordpool_less_exclusions.txt	LTP248	ltpFR	0	3	-1	ALMANAC	17	n/a	-1	n/a	n/a	n/a	n/a	n/a
468843	REC_WORD	wordpools/wasnorm_wordpool_less_exclusions.txt	LTP248	ltpFR	0	3	-1	BANKER	84	n/a	-1	n/a	n/a	n/a	n/a	n/a
470339	REC_WORD	wordpools/wasnorm_wordpool_less_exclusions.txt	LTP248	ltpFR	0	3	-1	HOUND	724	n/a	-1	n/a	n/a	n/a	n/a	n/a
471701	REC_WORD	wordpools/wasnorm_wordpool_less_exclusions.txt	LTP248	ltpFR	0	3	-1	CHERRY	293	n/a	-1	n/a	n/a	n/a	n/a	n/a
474310	REC_WORD	wordpools/wasnorm_wordpool_less_exclusions.txt	LTP248	ltpFR	0	3	-1	TURNIP	1521	n/a	-1	n/a	n/a	n/a	n/a	n/a
478676	REC_WORD	wordpools/wasnorm_wordpool_less_exclusions.txt	LTP248	ltpFR	0	3	-1	CACTUS	215	n/a	-1	n/a	n/a	n/a	n/a	n/a
486093	REC_WORD	wordpools/wasnorm_wordpool_less_exclusions.txt	LTP248	ltpFR	0	3	-1	QUARTER	1148	n/a	-1	n/a	n/a	n/a	n/a	n/a
488573	REC_WORD	wordpools/wasnorm_wordpool_less_exclusions.txt	LTP248	ltpFR	0	3	n/a	CLOCK	325	n/a	n/a	n/a	n/a	n/a	n/a	n/a
490912	REC_WORD	wordpools/wasnorm_wordpool_less_exclusions.txt	LTP248	ltpFR	0	3	-1	PLAID	1080	n/a	-1	n/a	n/a	n/a	n/a	n/a
494567	REC_WORD	wordpools/wasnorm_wordpool_less_exclusions.txt	LTP248	ltpFR	0	3	-1	PLAID	1080	n/a	-1	n/a	n/a	n/a	n/a	n/a
495217	REC_WORD_VV	wordpools/wasnorm_wordpool_less_exclusions.txt	LTP248	ltpFR	0	3	n/a	<>	-1	n/a	n/a	n/a	n/a	n/a	n/a	n/a
496974	REC_WORD_VV	wordpools/wasnorm_wordpool_less_exclusions.txt	LTP248	ltpFR	0	3	n/a	<>	-1	n/a	n/a	n/a	n/a	n/a	n/a	n/a
501464	REC_WORD	wordpools/wasnorm_wordpool_less_exclusions.txt	LTP248	ltpFR	0	3	-1	PANTS	1010	n/a	-1	n/a	n/a	n/a	n/a	n/a
505406	REC_WORD_VV	wordpools/wasnorm_wordpool_less_exclusions.txt	LTP248	ltpFR	0	3	n/a	<>	-1	n/a	n/a	n/a	n/a	n/a	n/a	n/a
506406	REC_WORD_VV	wordpools/wasnorm_wordpool_less_exclusions.txt	LTP248	ltpFR	0	3	n/a	<>	-1	n/a	n/a	n/a	n/a	n/a	n/a	n/a
507261	REC_WORD	wordpools/wasnorm_wordpool_less_exclusions.txt	LTP248	ltpFR	0	3	n/a	DRESS	495	n/a	n/a	n/a	n/a	n/a	n/a	n/a
513404	REC_WORD_VV	wordpools/wasnorm_wordpool_less_exclusions.txt	LTP248	ltpFR	0	3	n/a	<>	-1	n/a	n/a	n/a	n/a	n/a	n/a	n/a
628401	WORD	wordpools/wasnorm_wordpool_less_exclusions.txt	LTP248	ltpFR	0	4	-1	FIG	563	n/a	-1	1	1.0	1.0	upper	../fonts/Verdana.ttf
632378	WORD	wordpools/wasnorm_wordpool_less_exclusions.txt	LTP248	ltpFR	0	4	-1	ZUCCHINI	1638	n/a	-1	1	1.0	1.0	upper	../fonts/Verdana.ttf
636472	WORD	wordpools/wasnorm_wordpool_less_exclusions.txt	LTP248	ltpFR	0	4	-1	LIPSTICK	829	n/a	-1	1	1.0	1.0	upper	../fonts/Verdana.ttf
640599	WORD	wordpools/wasnorm_wordpool_less_exclusions.txt	LTP248	ltpFR	0	4	-1	DASHBOARD	441	n/a	-1	1	1.0	1.0	upper	../fonts/Verdana.ttf
644510	WORD	wordpools/wasnorm_wordpool_less_exclusions.txt	LTP248	ltpFR	0	4	-1	RUST	1219	n/a	-1	1	1.0	1.0	upper	../fonts/Verdana.ttf
648354	WORD	wordpools/wasnorm_wordpool_less_exclusions.txt	LTP248	ltpFR	0	4	-1	BOOTH	151	n/a	-1	1	1.0	1.0	upper	../fonts/Verdana.ttf
652398	WORD	wordpools/wasnorm_wordpool_less_exclusions.txt	LTP248	ltpFR	0	4	-1	SIREN	1310	n/a	-1	1	1.0	1.0	upper	../fonts/Verdana.ttf
656509	WORD	wordpools/wasnorm_wordpool_less_exclusions.txt	LTP248	ltpFR	0	4	-1	POLICE	1098	n/a	-1	1	1.0	1.0	upper	../fonts/Verdana.ttf
660536	WORD	wordpools/wasnorm_wordpool_less_exclusions.txt	LTP248	ltpFR	0	4	-1	LETTER	813	n/a	-1	1	1.0	1.0	upper	../fonts/Verdana.ttf
664580	WORD	wordpools/wasnorm_wordpool_less_exclusions.txt	LTP248	ltpFR	0	4	-1	CRICKET	408	n/a	-1	1	1.0	1.0	upper	../fonts/Verdana.ttf
668541	WORD	wordpools/wasnorm_wordpool_less_exclusions.txt	LTP248	ltpFR	0	4	-1	NOSE	957	n/a	-1	1	1.0	1.0	upper	../fonts/Verdana.ttf
672685	WORD	wordpools/wasnorm_wordpool_less_exclusions.txt	LTP248	ltpFR	0	4	-1	BILL	126	n/a	-1	1	1.0	1.0	upper	../fonts/Verdana.ttf
676512	WORD	wordpools/wasnorm_wordpool_less_exclusions.txt	LTP248	ltpFR	0	4	-1	PEANUT	1032	n/a	-1	1	1.0	1.0	upper	../fonts/Verdana.ttf
680606	WORD	wordpools/wasnorm_wordpool_less_exclusions.txt	LTP248	ltpFR	0	4	-1	FOOT	590	n/a	-1	1	1.0	1.0	upper	../fonts/Verdana.ttf
684683	WORD	wordpools/wasnorm_wordpool_less_exclusions.txt	LTP248	ltpFR	0	4	-1	CENT	270	n/a	-1	1	1.0	1.0	upper	../fonts/Verdana.ttf
688594	WORD	wordpools/wasnorm_wordpool_less_exclusions.txt	LTP248	ltpFR	0	4	-1	NOTE	958	n/a	-1	1	1.0	1.0	upper	../fonts/Verdana.ttf
694420	REC_START	n/a	LTP248	ltpFR	0	4	n/a	n/a	n/a	n/a	n/a	n/a	n/a	n/a	n/a	n/a
694968	REC_WORD	wordpools/wasnorm_wordpool_less_exclusions.txt	LTP248	ltpFR	0	4	-1	FIG	563	n/a	-1	n/a	n/a	n/a	n/a	n/a
695851	REC_WORD	wordpools/wasnorm_wordpool_less_exclusions.txt	LTP248	ltpFR	0	4	-1	ZUCCHINI	1638	n/a	-1	n/a	n/a	n/a	n/a	n/a
697707	REC_WORD	wordpools/wasnorm_wordpool_less_exclusions.txt	LTP248	ltpFR	0	4	n/a	KNOT	788	n/a	n/a	n/a	n/a	n/a	n/a	n/a
699314	REC_WORD	wordpools/wasnorm_wordpool_less_exclusions.txt	LTP248	ltpFR	0	4	-1	RUST	1219	n/a	-1	n/a	n/a	n/a	n/a	n/a
700216	REC_WORD	wordpools/wasnorm_wordpool_less_exclusions.txt	LTP248	ltpFR	0	4	-1	FOOT	590	n/a	-1	n/a	n/a	n/a	n/a	n/a
701758	REC_WORD	wordpools/wasnorm_wordpool_less_exclusions.txt	LTP248	ltpFR	0	4	-1	POLICE	1098	n/a	-1	n/a	n/a	n/a	n/a	n/a
703100	REC_WORD	wordpools/wasnorm_wordpool_less_exclusions.txt	LTP248	ltpFR	0	4	-1	BILL	126	n/a	-1	n/a	n/a	n/a	n/a	n/a
705165	REC_WORD	wordpools/wasnorm_wordpool_less_exclusions.txt	LTP248	ltpFR	0	4	-1	NOTE	958	n/a	-1	n/a	n/a	n/a	n/a	n/a
707405	REC_WORD	wordpools/wasnorm_wordpool_less_exclusions.txt	LTP248	ltpFR	0	4	-1	LETTER	813	n/a	-1	n/a	n/a	n/a	n/a	n/a
708927	REC_WORD	wordpools/wasnorm_wordpool_less_exclusions.txt	LTP248	ltpFR	0	4	-1	BOOTH	151	n/a	-1	n/a	n/a	n/a	n/a	n/a
710279	REC_WORD	wordpools/wasnorm_wordpool_less_exclusions.txt	LTP248	ltpFR	0	4	-1	DASHBOARD	441	n/a	-1	n/a	n/a	n/a	n/a	n/a
711875	REC_WORD	wordpools/wasnorm_wordpool_less_exclusions.txt	LTP248	ltpFR	0	4	-1	SIREN	1310	n/a	-1	n/a	n/a	n/a	n/a	n/a
729670	REC_WORD	wordpools/wasnorm_wordpool_less_exclusions.txt	LTP248	ltpFR	0	4	-1	POLICE	1098	n/a	-1	n/a	n/a	n/a	n/a	n/a
744720	REC_WORD	wordpools/wasnorm_wordpool_less_exclusions.txt	LTP248	ltpFR	0	4	-1	LIPSTICK	829	n/a	-1	n/a	n/a	n/a	n/a	n/a
759068	REC_WORD	wordpools/wasnorm_wordpool_less_exclusions.txt	LTP248	ltpFR	0	4	-1	CENT	270	n/a	-1	n/a	n/a	n/a	n/a	n/a
1144930	WORD	wordpools/wasnorm_wordpool_less_exclusions.txt	LTP248	ltpFR	0	5	0	SANDWICH	1232	n/a	n/a	0	0.5869140625	0.422607421875	lower	../fonts/amplitud.ttf
1147959	SLOW_MSG	n/a	LTP248	ltpFR	0	5	n/a	n/a	n/a	n/a	n/a	n/a	n/a	n/a	n/a	n/a
1150588	WORD	wordpools/wasnorm_wordpool_less_exclusions.txt	LTP248	ltpFR	0	5	0	STEW	1380	n/a	0	0	0.5869140625	0.422607421875	lower	../fonts/amplitud.ttf
1154415	WORD	wordpools/wasnorm_wordpool_less_exclusions.txt	LTP248	ltpFR	0	5	0	SHRIMP	1297	n/a	0	0	0.5869140625	0.422607421875	lower	../fonts/amplitud.ttf
1158376	WORD	wordpools/wasnorm_wordpool_less_exclusions.txt	LTP248	ltpFR	0	5	0	GATE	625	n/a	1	0	0.5869140625	0.422607421875	lower	../fonts/amplitud.ttf
1162503	WORD	wordpools/wasnorm_wordpool_less_exclusions.txt	LTP248	ltpFR	0	5	0	CROSS	413	n/a	0	0	0.5869140625	0.422607421875	lower	../fonts/amplitud.ttf
1166714	WORD	wordpools/wasnorm_wordpool_less_exclusions.txt	LTP248	ltpFR	0	5	0	DEER	444	n/a	1	0	0.5869140625	0.422607421875	lower	../fonts/amplitud.ttf
1170708	WORD	wordpools/wasnorm_wordpool_less_exclusions.txt	LTP248	ltpFR	0	5	0	COD	340	n/a	0	0	0.5869140625	0.422607421875	lower	../fonts/amplitud.ttf
1174652	WORD	wordpools/wasnorm_wordpool_less_exclusions.txt	LTP248	ltpFR	0	5	0	AUTHOR	61	n/a	1	0	0.5869140625	0.422607421875	lower	../fonts/amplitud.ttf
1178496	WORD	wordpools/wasnorm_wordpool_less_exclusions.txt	LTP248	ltpFR	0	5	0	PUBLICATION	1136	n/a	0	0	0.5869140625	0.422607421875	lower	../fonts/amplitud.ttf
1182457	WORD	wordpools/wasnorm_wordpool_less_exclusions.txt	LTP248	ltpFR	0	5	0	HEEL	700	n/a	0	0	0.5869140625	0.422607421875	lower	../fonts/amplitud.ttf
1186634	WORD	wordpools/wasnorm_wordpool_less_exclusions.txt	LTP248	ltpFR	0	5	0	LASER	801	n/a	0	0	0.5869140625	0.422607421875	lower	../fonts/amplitud.ttf
1190595	WORD	wordpools/wasnorm_wordpool_less_exclusions.txt	LTP248	ltpFR	0	5	0	HEATER	698	n/a	1	0	0.5869140625	0.422607421875	lower	../fonts/amplitud.ttf
1194655	WORD	wordpools/wasnorm_wordpool_less_exclusions.txt	LTP248	ltpFR	0	5	0	CARNIVAL	245	n/a	1	0	0.5869140625	0.422607421875	lower	../fonts/amplitud.ttf
1198832	WORD	wordpools/wasnorm_wordpool_less_exclusions.txt	LTP248	ltpFR	0	5	0	CRAB	397	n/a	0	0	0.5869140625	0.422607421875	lower	../fonts/amplitud.ttf
1202826	WORD	wordpools/wasnorm_wordpool_less_exclusions.txt	LTP248	ltpFR	0	5	0	REFRIGERATOR	1179	n/a	0	0	0.5869140625	0.422607421875	lower	../fonts/amplitud.ttf
1206787	WORD	wordpools/wasnorm_wordpool_less_exclusions.txt	LTP248	ltpFR	0	5	0	CABINET	212	n/a	1	0	0.5869140625	0.422607421875	lower	../fonts/amplitud.ttf
1212579	REC_START	n/a	LTP248	ltpFR	0	5	n/a	n/a	n/a	n/a	n/a	n/a	n/a	n/a	n/a	n/a
1214405	REC_WORD	wordpools/wasnorm_wordpool_less_exclusions.txt	LTP248	ltpFR	0	5	0	CRAB	397	n/a	0	n/a	n/a	n/a	n/a	n/a
1215771	REC_WORD	wordpools/wasnorm_wordpool_less_exclusions.txt	LTP248	ltpFR	0	5	0	SHRIMP	1297	n/a	0	n/a	n/a	n/a	n/a	n/a
1217118	REC_WORD	wordpools/wasnorm_wordpool_less_exclusions.txt	LTP248	ltpFR	0	5	0	LASER	801	n/a	0	n/a	n/a	n/a	n/a	n/a
1218700	REC_WORD	wordpools/wasnorm_wordpool_less_exclusions.txt	LTP248	ltpFR	0	5	0	GATE	625	n/a	1	n/a	n/a	n/a	n/a	n/a
1220087	REC_WORD	wordpools/wasnorm_wordpool_less_exclusions.txt	LTP248	ltpFR	0	5	0	CARNIVAL	245	n/a	1	n/a	n/a	n/a	n/a	n/a
1221713	REC_WORD	wordpools/wasnorm_wordpool_less_exclusions.txt	LTP248	ltpFR	0	5	0	AUTHOR	61	n/a	1	n/a	n/a	n/a	n/a	n/a
1226866	REC_WORD	wordpools/wasnorm_wordpool_less_exclusions.txt	LTP248	ltpFR	0	5	0	REFRIGERATOR	1179	n/a	0	n/a	n/a	n/a	n/a	n/a
1358179	WORD	wordpools/wasnorm_wordpool_less_exclusions.txt	LTP248	ltpFR	0	6	0	SLEEVE	1324	n/a	0	0	0.5869140625	0.422607421875	lower	../fonts/amplitud.ttf
1362123	WORD	wordpools/wasnorm_wordpool_less_exclusions.txt	LTP248	ltpFR	0	6	0	PALM	1007	n/a	0	0	0.5869140625	0.422607421875	lower	../fonts/amplitud.ttf
1366067	WORD	wordpools/wasnorm_wordpool_less_exclusions.txt	LTP248	ltpFR	0	6	0	BASSINET	97	n/a	1	0	0.5869140625	0.422607421875	lower	../fonts/amplitud.ttf
1369927	WORD	wordpools/wasnorm_wordpool_less_exclusions.txt	LTP248	ltpFR	0	6	0	PIRATE	1074	n/a	1	0	0.5869140625	0.422607421875	lower	../fonts/amplitud.ttf
1373821	WORD	wordpools/wasnorm_wordpool_less_exclusions.txt	LTP248	ltpFR	0	6	0	MAGAZINE	853	n/a	0	0	0.5869140625	0.422607421875	lower	../fonts/amplitud.ttf
1377682	WORD	wordpools/wasnorm_wordpool_less_exclusions.txt	LTP248	ltpFR	0	6	0	ARTICLE	42	n/a	0	0	0.5869140625	0.422607421875	lower	../fonts/amplitud.ttf
1381643	WORD	wordpools/wasnorm_wordpool_less_exclusions.txt	LTP248	ltpFR	0	6	0	ANTENNA	28	n/a	0	0	0.5869140625	0.422607421875	lower	../fonts/amplitud.ttf
1385520	WORD	wordpools/wasnorm_wordpool_less_exclusions.txt	LTP248	ltpFR	0	6	0	TRENCH	1503	n/a	1	0	0.5869140625	0.422607421875	lower	../fonts/amplitud.ttf
1389365	WORD	wordpools/wasnorm_wordpool_less_exclusions.txt	LTP248	ltpFR	0	6	0	RECORD	1176	n/a	0	0	0.5869140625	0.422607421875	lower	../fonts/amplitud.ttf
1393542	WORD	wordpools/wasnorm_wordpool_less_exclusions.txt	LTP248	ltpFR	0	6	0	CELLO	268	n/a	1	0	0.5869140625	0.422607421875	lower	../fonts/amplitud.ttf
1397669	WORD	wordpools/wasnorm_wordpool_less_exclusions.txt	LTP248	ltpFR	0	6	0	TWIG	1527	n/a	0	0	0.5869140625	0.422607421875	lower	../fonts/amplitud.ttf
1401779	WORD	wordpools/wasnorm_wordpool_less_exclusions.txt	LTP248	ltpFR	0	6	0	CREW	406	n/a	1	0	0.5869140625	0.422607421875	lower	../fonts/amplitud.ttf
1405923	WORD	wordpools/wasnorm_wordpool_less_exclusions.txt	LTP248	ltpFR	0	6	0	CLIMBER	323	n/a	0	0	0.5869140625	0.422607421875	lower	../fonts/amplitud.ttf
1410085	WORD	wordpools/wasnorm_wordpool_less_exclusions.txt	LTP248	ltpFR	0	6	0	WATERFALL	1595	n/a	1	0	0.5869140625	0.422607421875	lower	../fonts/amplitud.ttf
1414212	WORD	wordpools/wasnorm_wordpool_less_exclusions.txt	LTP248	ltpFR	0	6	0	ARENA	37	n/a	1	0	0.5869140625	0.422607421875	lower	../fonts/amplitud.ttf
1418056	WORD	wordpools/wasnorm_wordpool_less_exclusions.txt	LTP248	ltpFR	0	6	0	FAUCET	555	n/a	1	0	0.5869140625	0.422607421875	lower	../fonts/amplitud.ttf
1423948	REC_START	n/a	LTP248	ltpFR	0	6	n/a	n/a	n/a	n/a	n/a	n/a	n/a	n/a	n/a	n/a
1424331	REC_WORD	wordpools/wasnorm_wordpool_less_exclusions.txt	LTP248	ltpFR	0	6	0	FAUCET	555	n/a	1	n/a	n/a	n/a	n/a	n/a
1426682	REC_WORD	wordpools/wasnorm_wordpool_less_exclusions.txt	LTP248	ltpFR	0	6	0	BASSINET	97	n/a	1	n/a	n/a	n/a	n/a	n/a
1427959	REC_WORD	wordpools/wasnorm_wordpool_less_exclusions.txt	LTP248	ltpFR	0	6	0	CELLO	268	n/a	1	n/a	n/a	n/a	n/a	n/a
1429725	REC_WORD	wordpools/wasnorm_wordpool_less_exclusions.txt	LTP248	ltpFR	0	6	0	ANTENNA	28	n/a	0	n/a	n/a	n/a	n/a	n/a
1434469	REC_WORD	wordpools/wasnorm_wordpool_less_exclusions.txt	LTP248	ltpFR	0	6	0	TWIG	1527	n/a	0	n/a	n/a	n/a	n/a	n/a
1448652	REC_WORD	wordpools/wasnorm_wordpool_less_exclusions.txt	LTP248	ltpFR	0	6	0	WATERFALL	1595	n/a	1	n/a	n/a	n/a	n/a	n/a
1449904	REC_WORD	wordpools/wasnorm_wordpool_less_exclusions.txt	LTP248	ltpFR	0	6	0	CLIMBER	323	n/a	0	n/a	n/a	n/a	n/a	n/a
1502895	WORD	wordpools/wasnorm_wordpool_less_exclusions.txt	LTP248	ltpFR	0	7	0	WOLF	1619	n/a	1	0	0.5869140625	0.422607421875	lower	../fonts/amplitud.ttf
1507007	WORD	wordpools/wasnorm_wordpool_less_exclusions.txt	LTP248	ltpFR	0	7	0	CART	250	n/a	1	0	0.5869140625	0.422607421875	lower	../fonts/amplitud.ttf
1510967	WORD	wordpools/wasnorm_wordpool_less_exclusions.txt	LTP248	ltpFR	0	7	0	MARKET	871	n/a	1	0	0.5869140625	0.422607421875	lower	../fonts/amplitud.ttf
1514811	WORD	wordpools/wasnorm_wordpool_less_exclusions.txt	LTP248	ltpFR	0	7	0	BEAVER	109	n/a	1	0	0.5869140625	0.422607421875	lower	../fonts/amplitud.ttf
1518989	WORD	wordpools/wasnorm_wordpool_less_exclusions.txt	LTP248	ltpFR	0	7	0	CHEDDAR	286	n/a	0	0	0.5869140625	0.422607421875	lower	../fonts/amplitud.ttf
1523132	WORD	wordpools/wasnorm_wordpool_less_exclusions.txt	LTP248	ltpFR	0	7	0	MACARONI	851	n/a	0	0	0.5869140625	0.422607421875	lower	../fonts/amplitud.ttf
1527010	WORD	wordpools/wasnorm_wordpool_less_exclusions.txt	LTP248	ltpFR	0	7	0	APPLE	33	n/a	0	0	0.5869140625	0.422607421875	lower	../fonts/amplitud.ttf
1530920	WORD	wordpools/wasnorm_wordpool_less_exclusions.txt	LTP248	ltpFR	0	7	0	PLUM	1090	n/a	0	0	0.5869140625	0.422607421875	lower	../fonts/amplitud.ttf
1535015	WORD	wordpools/wasnorm_wordpool_less_exclusions.txt	LTP248	ltpFR	0	7	0	SWING	1421	n/a	1	0	0.5869140625	0.422607421875	lower	../fonts/amplitud.ttf
1538858	WORD	wordpools/wasnorm_wordpool_less_exclusions.txt	LTP248	ltpFR	0	7	0	STRAWBERRY	1391	n/a	0	0	0.5869140625	0.422607421875	lower	../fonts/amplitud.ttf
1542885	WORD	wordpools/wasnorm_wordpool_less_exclusions.txt	LTP248	ltpFR	0	7	0	MATCH	878	n/a	0	0	0.5869140625	0.422607421875	lower	../fonts/amplitud.ttf
1547047	WORD	wordpools/wasnorm_wordpool_less_exclusions.txt	LTP248	ltpFR	0	7	0	DANCER	437	n/a	1	0	0.5869140625	0.422607421875	lower	../fonts/amplitud.ttf
1551207	WORD	wordpools/wasnorm_wordpool_less_exclusions.txt	LTP248	ltpFR	0	7	0	WALL	1582	n/a	1	0	0.5869140625	0.422607421875	lower	../fonts/amplitud.ttf
1555035	WORD	wordpools/wasnorm_wordpool_less_exclusions.txt	LTP248	ltpFR	0	7	0	KITCHEN	778	n/a	1	0	0.5869140625	0.422607421875	lower	../fonts/amplitud.ttf
1558928	WORD	wordpools/wasnorm_wordpool_less_exclusions.txt	LTP248	ltpFR	0	7	0	IGLOO	734	n/a	1	0	0.5869140625	0.422607421875	lower	../fonts/amplitud.ttf
1562872	WORD	wordpools/wasnorm_wordpool_less_exclusions.txt	LTP248	ltpFR	0	7	0	SKI	1316	n/a	1	0	0.5869140625	0.422607421875	lower	../fonts/amplitud.ttf
1568897	REC_START	n/a	LTP248	ltpFR	0	7	n/a	n/a	n/a	n/a	n/a	n/a	n/a	n/a	n/a	n/a
1569116	REC_WORD	wordpools/wasnorm_wordpool_less_exclusions.txt	LTP248	ltpFR	0	7	0	SKI	1316	n/a	1	n/a	n/a	n/a	n/a	n/a
1570458	REC_WORD	wordpools/wasnorm_wordpool_less_exclusions.txt	LTP248	ltpFR	0	7	0	IGLOO	734	n/a	1	n/a	n/a	n/a	n/a	n/a
1571501	REC_WORD	wordpools/wasnorm_wordpool_less_exclusions.txt	LTP248	ltpFR	0	7	0	WALL	1582	n/a	1	n/a	n/a	n/a	n/a	n/a
1572713	REC_WORD	wordpools/wasnorm_wordpool_less_exclusions.txt	LTP248	ltpFR	0	7	0	KITCHEN	778	n/a	1	n/a	n/a	n/a	n/a	n/a
1575497	REC_WORD	wordpools/wasnorm_wordpool_less_exclusions.txt	LTP248	ltpFR	0	7	0	WOLF	1619	n/a	1	n/a	n/a	n/a	n/a	n/a
1576574	REC_WORD	wordpools/wasnorm_wordpool_less_exclusions.txt	LTP248	ltpFR	0	7	0	CART	250	n/a	1	n/a	n/a	n/a	n/a	n/a
1577807	REC_WORD	wordpools/wasnorm_wordpool_less_exclusions.txt	LTP248	ltpFR	0	7	0	MARKET	871	n/a	1	n/a	n/a	n/a	n/a	n/a
1579343	REC_WORD	wordpools/wasnorm_wordpool_less_exclusions.txt	LTP248	ltpFR	0	7	0	CHEDDAR	286	n/a	0	n/a	n/a	n/a	n/a	n/a
1580919	REC_WORD	wordpools/wasnorm_wordpool_less_exclusions.txt	LTP248	ltpFR	0	7	0	MACARONI	851	n/a	0	n/a	n/a	n/a	n/a	n/a
1583933	REC_WORD	wordpools/wasnorm_wordpool_less_exclusions.txt	LTP248	ltpFR	0	7	0	APPLE	33	n/a	0	n/a	n/a	n/a	n/a	n/a
1584890	REC_WORD	wordpools/wasnorm_wordpool_less_exclusions.txt	LTP248	ltpFR	0	7	0	PLUM	1090	n/a	0	n/a	n/a	n/a	n/a	n/a
1586701	REC_WORD	wordpools/wasnorm_wordpool_less_exclusions.txt	LTP248	ltpFR	0	7	0	BEAVER	109	n/a	1	n/a	n/a	n/a	n/a	n/a
1601767	REC_WORD	wordpools/wasnorm_wordpool_less_exclusions.txt	LTP248	ltpFR	0	7	0	MARKET	871	n/a	1	n/a	n/a	n/a	n/a	n/a
1667599	WORD	wordpools/wasnorm_wordpool_less_exclusions.txt	LTP248	ltpFR	0	8	0	FOUNTAIN	597	n/a	1	0	0.5869140625	0.422607421875	lower	../fonts/amplitud.ttf
1671643	WORD	wordpools/wasnorm_wordpool_less_exclusions.txt	LTP248	ltpFR	0	8	0	PEDAL	1037	n/a	0	0	0.5869140625	0.422607421875	lower	../fonts/amplitud.ttf
1675787	WORD	wordpools/wasnorm_wordpool_less_exclusions.txt	LTP248	ltpFR	0	8	0	SHOP	1290	n/a	1	0	0.5869140625	0.422607421875	lower	../fonts/amplitud.ttf
1679781	WORD	wordpools/wasnorm_wordpool_less_exclusions.txt	LTP248	ltpFR	0	8	0	ANIMAL	23	n/a	1	0	0.5869140625	0.422607421875	lower	../fonts/amplitud.ttf
1683658	WORD	wordpools/wasnorm_wordpool_less_exclusions.txt	LTP248	ltpFR	0	8	0	FOX	598	n/a	1	0	0.5869140625	0.422607421875	lower	../fonts/amplitud.ttf
1687802	WORD	wordpools/wasnorm_wordpool_less_exclusions.txt	LTP248	ltpFR	0	8	0	PAIL	1002	n/a	0	0	0.5869140625	0.422607421875	lower	../fonts/amplitud.ttf
1691813	WORD	wordpools/wasnorm_wordpool_less_exclusions.txt	LTP248	ltpFR	0	8	0	TABLET	1427	n/a	0	0	0.5869140625	0.422607421875	lower	../fonts/amplitud.ttf
1695774	WORD	wordpools/wasnorm_wordpool_less_exclusions.txt	LTP248	ltpFR	0	8	0	WHEAT	1602	n/a	1	0	0.5869140625	0.422607421875	lower	../fonts/amplitud.ttf
1699868	WORD	wordpools/wasnorm_wordpool_less_exclusions.txt	LTP248	ltpFR	0	8	0	KEYBOARD	774	n/a	1	0	0.5869140625	0.422607421875	lower	../fonts/amplitud.ttf
1703928	WORD	wordpools/wasnorm_wordpool_less_exclusions.txt	LTP248	ltpFR	0	8	0	PRUNE	1134	n/a	0	0	0.5869140625	0.422607421875	lower	../fonts/amplitud.ttf
1707957	WORD	wordpools/wasnorm_wordpool_less_exclusions.txt	LTP248	ltpFR	0	8	0	NOTEBOOK	959	n/a	0	0	0.5869140625	0.422607421875	lower	../fonts/amplitud.ttf
1712134	WORD	wordpools/wasnorm_wordpool_less_exclusions.txt	LTP248	ltpFR	0	8	0	LIBRARY	816	n/a	1	0	0.5869140625	0.422607421875	lower	../fonts/amplitud.ttf
1716011	WORD	wordpools/wasnorm_wordpool_less_exclusions.txt	LTP248	ltpFR	0	8	0	BUS	201	n/a	1	0	0.5869140625	0.422607421875	lower	../fonts/amplitud.ttf
1720122	WORD	wordpools/wasnorm_wordpool_less_exclusions.txt	LTP248	ltpFR	0	8	0	DRIVER	499	n/a	1	0	0.5869140625	0.422607421875	lower	../fonts/amplitud.ttf
1724215	WORD	wordpools/wasnorm_wordpool_less_exclusions.txt	LTP248	ltpFR	0	8	0	RAISIN	1163	n/a	0	0	0.5869140625	0.422607421875	lower	../fonts/amplitud.ttf
1728276	WORD	wordpools/wasnorm_wordpool_less_exclusions.txt	LTP248	ltpFR	0	8	0	HARP	689	n/a	1	0	0.5869140625	0.422607421875	lower	../fonts/amplitud.ttf
1734333	REC_START	n/a	LTP248	ltpFR	0	8	n/a	n/a	n/a	n/a	n/a	n/a	n/a	n/a	n/a	n/a
1734757	REC_WORD	wordpools/wasnorm_wordpool_less_exclusions.txt	LTP248	ltpFR	0	8	0	HARP	689	n/a	1	n/a	n/a	n/a	n/a	n/a
1736133	REC_WORD	wordpools/wasnorm_wordpool_less_exclusions.txt	LTP248	ltpFR	0	8	0	RAISIN	1163	n/a	0	n/a	n/a	n/a	n/a	n/a
1742050	REC_WORD	wordpools/wasnorm_wordpool_less_exclusions.txt	LTP248	ltpFR	0	8	0	NOTEBOOK	959	n/a	0	n/a	n/a	n/a	n/a	n/a
1745672	REC_WORD	wordpools/wasnorm_wordpool_less_exclusions.txt	LTP248	ltpFR	0	8	0	PEDAL	1037	n/a	0	n/a	n/a	n/a	n/a	n/a
1748675	REC_WORD	wordpools/wasnorm_wordpool_less_exclusions.txt	LTP248	ltpFR	0	8	0	FOUNTAIN	597	n/a	1	n/a	n/a	n/a	n/a	n/a
1750481	REC_WORD	wordpools/wasnorm_wordpool_less_exclusions.txt	LTP248	ltpFR	0	8	0	SHOP	1290	n/a	1	n/a	n/a	n/a	n/a	n/a
1760299	REC_WORD	wordpools/wasnorm_wordpool_less_exclusions.txt	LTP248	ltpFR	0	8	0	PAIL	1002	n/a	0	n/a	n/a	n/a	n/a	n/a
1767168	REC_WORD	wordpools/wasnorm_wordpool_less_exclusions.txt	LTP248	ltpFR	0	8	0	BUS	201	n/a	1	n/a	n/a	n/a	n/a	n/a
1782648	REC_WORD	wordpools/wasnorm_wordpool_less_exclusions.txt	LTP248	ltpFR	0	8	0	GATE	625	n/a	1	n/a	n/a	n/a	n/a	n/a
1825198	WORD	wordpools/wasnorm_wordpool_less_exclusions.txt	LTP248	ltpFR	0	9	1	BAY	102	n/a	0	1	0.412841796875	0.57763671875	upper	../fonts/zerothre.ttf
1829391	WORD	wordpools/wasnorm_wordpool_less_exclusions.txt	LTP248	ltpFR	0	9	1	FIELD	562	n/a	1	1	0.412841796875	0.57763671875	upper	../fonts/zerothre.ttf
1833286	WORD	wordpools/wasnorm_wordpool_less_exclusions.txt	LTP248	ltpFR	0	9	1	TEAM	1441	n/a	1	1	0.412841796875	0.57763671875	upper	../fonts/zerothre.ttf
1837313	WORD	wordpools/wasnorm_wordpool_less_exclusions.txt	LTP248	ltpFR	0	9	1	CREATURE	403	n/a	1	1	0.412841796875	0.57763671875	upper	../fonts/zerothre.ttf
1841158	WORD	wordpools/wasnorm_wordpool_less_exclusions.txt	LTP248	ltpFR	0	9	1	EMPLOYEE	531	n/a	1	1	0.412841796875	0.57763671875	upper	../fonts/zerothre.ttf
1845035	WORD	wordpools/wasnorm_wordpool_less_exclusions.txt	LTP248	ltpFR	0	9	1	CANARY	227	n/a	1	1	0.412841796875	0.57763671875	upper	../fonts/zerothre.ttf
1848912	WORD	wordpools/wasnorm_wordpool_less_exclusions.txt	LTP248	ltpFR	0	9	1	QUAIL	1147	n/a	1	1	0.412841796875	0.57763671875	upper	../fonts/zerothre.ttf
1852839	WORD	wordpools/wasnorm_wordpool_less_exclusions.txt	LTP248	ltpFR	0	9	1	PLANT	1083	n/a	1	1	0.412841796875	0.57763671875	upper	../fonts/zerothre.ttf
1856717	WORD	wordpools/wasnorm_wordpool_less_exclusions.txt	LTP248	ltpFR	0	9	1	ROBOT	1200	n/a	0	1	0.412841796875	0.57763671875	upper	../fonts/zerothre.ttf
1860827	WORD	wordpools/wasnorm_wordpool_less_exclusions.txt	LTP248	ltpFR	0	9	1	MARINE	869	n/a	1	1	0.412841796875	0.57763671875	upper	../fonts/zerothre.ttf
1864788	WORD	wordpools/wasnorm_wordpool_less_exclusions.txt	LTP248	ltpFR	0	9	1	ALLIGATOR	16	n/a	1	1	0.412841796875	0.57763671875	upper	../fonts/zerothre.ttf
1868950	WORD	wordpools/wasnorm_wordpool_less_exclusions.txt	LTP248	ltpFR	0	9	1	COOKBOOK	373	n/a	0	1	0.412841796875	0.57763671875	upper	../fonts/zerothre.ttf
1872892	WORD	wordpools/wasnorm_wordpool_less_exclusions.txt	LTP248	ltpFR	0	9	1	ASTRONAUT	51	n/a	1	1	0.412841796875	0.57763671875	upper	../fonts/zerothre.ttf
1877071	WORD	wordpools/wasnorm_wordpool_less_exclusions.txt	LTP248	ltpFR	0	9	1	WHIP	1604	n/a	0	1	0.412841796875	0.57763671875	upper	../fonts/zerothre.ttf
1880998	WORD	wordpools/wasnorm_wordpool_less_exclusions.txt	LTP248	ltpFR	0	9	1	BEAN	105	n/a	1	1	0.412841796875	0.57763671875	upper	../fonts/zerothre.ttf
1884841	WORD	wordpools/wasnorm_wordpool_less_exclusions.txt	LTP248	ltpFR	0	9	1	SUBMARINE	1398	n/a	0	1	0.412841796875	0.57763671875	upper	../fonts/zerothre.ttf
1890850	REC_START	n/a	LTP248	ltpFR	0	9	n/a	n/a	n/a	n/a	n/a	n/a	n/a	n/a	n/a	n/a
1891458	REC_WORD_VV	wordpools/wasnorm_wordpool_less_exclusions.txt	LTP248	ltpFR	0	9	n/a	<>	-1	n/a	n/a	n/a	n/a	n/a	n/a	n/a
1892458	REC_WORD_VV	wordpools/wasnorm_wordpool_less_exclusions.txt	LTP248	ltpFR	0	9	n/a	<>	-1	n/a	n/a	n/a	n/a	n/a	n/a	n/a
1893454	REC_WORD	wordpools/wasnorm_wordpool_less_exclusions.txt	LTP248	ltpFR	0	9	1	SUBMARINE	1398	n/a	0	n/a	n/a	n/a	n/a	n/a
1894454	REC_WORD_VV	wordpools/wasnorm_wordpool_less_exclusions.txt	LTP248	ltpFR	0	9	n/a	<>	-1	n/a	n/a	n/a	n/a	n/a	n/a	n/a
1895978	REC_WORD	wordpools/wasnorm_wordpool_less_exclusions.txt	LTP248	ltpFR	0	9	1	MARINE	869	n/a	1	n/a	n/a	n/a	n/a	n/a
1898228	REC_WORD	wordpools/wasnorm_wordpool_less_exclusions.txt	LTP248	ltpFR	0	9	1	FIELD	562	n/a	1	n/a	n/a	n/a	n/a	n/a
1908804	REC_WORD	wordpools/wasnorm_wordpool_less_exclusions.txt	LTP248	ltpFR	0	9	1	ASTRONAUT	51	n/a	1	n/a	n/a	n/a	n/a	n/a
1911169	REC_WORD	wordpools/wasnorm_wordpool_less_exclusions.txt	LTP248	ltpFR	0	9	1	BEAN	105	n/a	1	n/a	n/a	n/a	n/a	n/a
1927256	REC_WORD	wordpools/wasnorm_wordpool_less_exclusions.txt	LTP248	ltpFR	0	9	n/a	SEED	1266	n/a	n/a	n/a	n/a	n/a	n/a	n/a
1929672	REC_WORD	wordpools/wasnorm_wordpool_less_exclusions.txt	LTP248	ltpFR	0	9	0	WHEAT	1602	n/a	1	n/a	n/a	n/a	n/a	n/a
1947172	REC_WORD	wordpools/wasnorm_wordpool_less_exclusions.txt	LTP248	ltpFR	0	9	1	ALLIGATOR	16	n/a	1	n/a	n/a	n/a	n/a	n/a
1983511	WORD	wordpools/wasnorm_wordpool_less_exclusions.txt	LTP248	ltpFR	0	10	1	EGG	518	n/a	1	1	0.412841796875	0.57763671875	upper	../fonts/zerothre.ttf
1987571	WORD	wordpools/wasnorm_wordpool_less_exclusions.txt	LTP248	ltpFR	0	10	1	HOOP	716	n/a	0	1	0.412841796875	0.57763671875	upper	../fonts/zerothre.ttf
1991765	WORD	wordpools/wasnorm_wordpool_less_exclusions.txt	LTP248	ltpFR	0	10	1	OUTFIT	988	n/a	0	1	0.412841796875	0.57763671875	upper	../fonts/zerothre.ttf
1995792	WORD	wordpools/wasnorm_wordpool_less_exclusions.txt	LTP248	ltpFR	0	10	1	MUFFIN	929	n/a	0	1	0.412841796875	0.57763671875	upper	../fonts/zerothre.ttf
1999886	WORD	wordpools/wasnorm_wordpool_less_exclusions.txt	LTP248	ltpFR	0	10	1	FLESH	579	n/a	1	1	0.412841796875	0.57763671875	upper	../fonts/zerothre.ttf
2003730	WORD	wordpools/wasnorm_wordpool_less_exclusions.txt	LTP248	ltpFR	0	10	1	ARTERY	41	n/a	1	1	0.412841796875	0.57763671875	upper	../fonts/zerothre.ttf
2007808	WORD	wordpools/wasnorm_wordpool_less_exclusions.txt	LTP248	ltpFR	0	10	1	BARRACUDA	90	n/a	0	1	0.412841796875	0.57763671875	upper	../fonts/zerothre.ttf
2011785	WORD	wordpools/wasnorm_wordpool_less_exclusions.txt	LTP248	ltpFR	0	10	1	DESIGNER	451	n/a	0	1	0.412841796875	0.57763671875	upper	../fonts/zerothre.ttf
2015629	WORD	wordpools/wasnorm_wordpool_less_exclusions.txt	LTP248	ltpFR	0	10	1	CHURCH	307	n/a	0	1	0.412841796875	0.57763671875	upper	../fonts/zerothre.ttf
2019607	WORD	wordpools/wasnorm_wordpool_less_exclusions.txt	LTP248	ltpFR	0	10	1	POPE	1105	n/a	1	1	0.412841796875	0.57763671875	upper	../fonts/zerothre.ttf
2023800	WORD	wordpools/wasnorm_wordpool_less_exclusions.txt	LTP248	ltpFR	0	10	1	VAGRANT	1544	n/a	0	1	0.412841796875	0.57763671875	upper	../fonts/zerothre.ttf
2027861	WORD	wordpools/wasnorm_wordpool_less_exclusions.txt	LTP248	ltpFR	0	10	1	CABIN	211	n/a	0	1	0.412841796875	0.57763671875	upper	../fonts/zerothre.ttf
2031888	WORD	wordpools/wasnorm_wordpool_less_exclusions.txt	LTP248	ltpFR	0	10	1	FEAST	556	n/a	1	1	0.412841796875	0.57763671875	upper	../fonts/zerothre.ttf
2035816	WORD	wordpools/wasnorm_wordpool_less_exclusions.txt	LTP248	ltpFR	0	10	1	SENATE	1267	n/a	1	1	0.412841796875	0.57763671875	upper	../fonts/zerothre.ttf
2039876	WORD	wordpools/wasnorm_wordpool_less_exclusions.txt	LTP248	ltpFR	0	10	1	CHAIRPERSON	275	n/a	1	1	0.412841796875	0.57763671875	upper	../fonts/zerothre.ttf
2043737	WORD	wordpools/wasnorm_wordpool_less_exclusions.txt	LTP248	ltpFR	0	10	1	OVAL	990	n/a	0	1	0.412841796875	0.57763671875	upper	../fonts/zerothre.ttf
2049746	REC_START	n/a	LTP248	ltpFR	0	10	n/a	n/a	n/a	n/a	n/a	n/a	n/a	n/a	n/a	n/a
2050220	REC_WORD	wordpools/wasnorm_wordpool_less_exclusions.txt	LTP248	ltpFR	0	10	1	OVAL	990	n/a	0	n/a	n/a	n/a	n/a	n/a
2051332	REC_WORD	wordpools/wasnorm_wordpool_less_exclusions.txt	LTP248	ltpFR	0	10	1	CHAIRPERSON	275	n/a	1	n/a	n/a	n/a	n/a	n/a
2052733	REC_WORD	wordpools/wasnorm_wordpool_less_exclusions.txt	LTP248	ltpFR	0	10	1	SENATE	1267	n/a	1	n/a	n/a	n/a	n/a	n/a
2054310	REC_WORD	wordpools/wasnorm_wordpool_less_exclusions.txt	LTP248	ltpFR	0	10	1	EGG	518	n/a	1	n/a	n/a	n/a	n/a	n/a
2056161	REC_WORD	wordpools/wasnorm_wordpool_less_exclusions.txt	LTP248	ltpFR	0	10	1	FLESH	579	n/a	1	n/a	n/a	n/a	n/a	n/a
2062906	REC_WORD	wordpools/wasnorm_wordpool_less_exclusions.txt	LTP248	ltpFR	0	10	1	ARTERY	41	n/a	1	n/a	n/a	n/a	n/a	n/a
2072050	REC_WORD	wordpools/wasnorm_wordpool_less_exclusions.txt	LTP248	ltpFR	0	10	1	CHURCH	307	n/a	0	n/a	n/a	n/a	n/a	n/a
2077129	REC_WORD	wordpools/wasnorm_wordpool_less_exclusions.txt	LTP248	ltpFR	0	10	1	POPE	1105	n/a	1	n/a	n/a	n/a	n/a	n/a
2144603	WORD	wordpools/wasnorm_wordpool_less_exclusions.txt	LTP248	ltpFR	0	11	1	CUPBOARD	425	n/a	0	1	0.412841796875	0.57763671875	upper	../fonts/zerothre.ttf
2148764	WORD	wordpools/wasnorm_wordpool_less_exclusions.txt	LTP248	ltpFR	0	11	1	BANQUET	86	n/a	0	1	0.412841796875	0.57763671875	upper	../fonts/zerothre.ttf
2152758	WORD	wordpools/wasnorm_wordpool_less_exclusions.txt	LTP248	ltpFR	0	11	1	BEAR	106	n/a	1	1	0.412841796875	0.57763671875	upper	../fonts/zerothre.ttf
2156585	WORD	wordpools/wasnorm_wordpool_less_exclusions.txt	LTP248	ltpFR	0	11	1	HERD	705	n/a	1	1	0.412841796875	0.57763671875	upper	../fonts/zerothre.ttf
2160596	WORD	wordpools/wasnorm_wordpool_less_exclusions.txt	LTP248	ltpFR	0	11	1	BULL	193	n/a	1	1	0.412841796875	0.57763671875	upper	../fonts/zerothre.ttf
2164640	WORD	wordpools/wasnorm_wordpool_less_exclusions.txt	LTP248	ltpFR	0	11	1	SOCIETY	1338	n/a	1	1	0.412841796875	0.57763671875	upper	../fonts/zerothre.ttf
2168601	WORD	wordpools/wasnorm_wordpool_less_exclusions.txt	LTP248	ltpFR	0	11	1	EYE	545	n/a	1	1	0.412841796875	0.57763671875	upper	../fonts/zerothre.ttf
2172695	WORD	wordpools/wasnorm_wordpool_less_exclusions.txt	LTP248	ltpFR	0	11	1	HEN	703	n/a	1	1	0.412841796875	0.57763671875	upper	../fonts/zerothre.ttf
2176622	WORD	wordpools/wasnorm_wordpool_less_exclusions.txt	LTP248	ltpFR	0	11	1	NEST	945	n/a	1	1	0.412841796875	0.57763671875	upper	../fonts/zerothre.ttf
2180666	WORD	wordpools/wasnorm_wordpool_less_exclusions.txt	LTP248	ltpFR	0	11	1	BEEF	113	n/a	1	1	0.412841796875	0.57763671875	upper	../fonts/zerothre.ttf
2184577	WORD	wordpools/wasnorm_wordpool_less_exclusions.txt	LTP248	ltpFR	0	11	1	CALF	222	n/a	1	1	0.412841796875	0.57763671875	upper	../fonts/zerothre.ttf
2188471	WORD	wordpools/wasnorm_wordpool_less_exclusions.txt	LTP248	ltpFR	0	11	1	SACK	1220	n/a	0	1	0.412841796875	0.57763671875	upper	../fonts/zerothre.ttf
2192415	WORD	wordpools/wasnorm_wordpool_less_exclusions.txt	LTP248	ltpFR	0	11	1	FOREST	593	n/a	1	1	0.412841796875	0.57763671875	upper	../fonts/zerothre.ttf
2196277	WORD	wordpools/wasnorm_wordpool_less_exclusions.txt	LTP248	ltpFR	0	11	1	DAISY	435	n/a	1	1	0.412841796875	0.57763671875	upper	../fonts/zerothre.ttf
2200238	WORD	wordpools/wasnorm_wordpool_less_exclusions.txt	LTP248	ltpFR	0	11	1	POCKET	1093	n/a	0	1	0.412841796875	0.57763671875	upper	../fonts/zerothre.ttf
2204299	WORD	wordpools/wasnorm_wordpool_less_exclusions.txt	LTP248	ltpFR	0	11	1	ACORN	3	n/a	1	1	0.412841796875	0.57763671875	upper	../fonts/zerothre.ttf
2210107	REC_START	n/a	LTP248	ltpFR	0	11	n/a	n/a	n/a	n/a	n/a	n/a	n/a	n/a	n/a	n/a
2210636	REC_WORD	wordpools/wasnorm_wordpool_less_exclusions.txt	LTP248	ltpFR	0	11	1	ACORN	3	n/a	1	n/a	n/a	n/a	n/a	n/a
2211897	REC_WORD	wordpools/wasnorm_wordpool_less_exclusions.txt	LTP248	ltpFR	0	11	1	POCKET	1093	n/a	0	n/a	n/a	n/a	n/a	n/a
2217246	REC_WORD	wordpools/wasnorm_wordpool_less_exclusions.txt	LTP248	ltpFR	0	11	1	BEAR	106	n/a	1	n/a	n/a	n/a	n/a	n/a
2218907	REC_WORD	wordpools/wasnorm_wordpool_less_exclusions.txt	LTP248	ltpFR	0	11	1	HERD	705	n/a	1	n/a	n/a	n/a	n/a	n/a
2222519	REC_WORD	wordpools/wasnorm_wordpool_less_exclusions.txt	LTP248	ltpFR	0	11	1	BANQUET	86	n/a	0	n/a	n/a	n/a	n/a	n/a
2234940	REC_WORD	wordpools/wasnorm_wordpool_less_exclusions.txt	LTP248	ltpFR	0	11	1	DAISY	435	n/a	1	n/a	n/a	n/a	n/a	n/a
2312088	WORD	wordpools/wasnorm_wordpool_less_exclusions.txt	LTP248	ltpFR	0	12	1	WASHER	1592	n/a	0	1	0.412841796875	0.57763671875	upper	../fonts/zerothre.ttf
2315982	WORD	wordpools/wasnorm_wordpool_less_exclusions.txt	LTP248	ltpFR	0	12	1	DRESSER	496	n/a	0	1	0.412841796875	0.57763671875	upper	../fonts/zerothre.ttf
2320076	WORD	wordpools/wasnorm_wordpool_less_exclusions.txt	LTP248	ltpFR	0	12	1	BASKETBALL	96	n/a	0	1	0.412841796875	0.57763671875	upper	../fonts/zerothre.ttf
2323919	WORD	wordpools/wasnorm_wordpool_less_exclusions.txt	LTP248	ltpFR	0	12	1	CARD	243	n/a	0	1	0.412841796875	0.57763671875	upper	../fonts/zerothre.ttf
2327947	WORD	wordpools/wasnorm_wordpool_less_exclusions.txt	LTP248	ltpFR	0	12	1	CHICK	296	n/a	1	1	0.412841796875	0.57763671875	upper	../fonts/zerothre.ttf
2331774	WORD	wordpools/wasnorm_wordpool_less_exclusions.txt	LTP248	ltpFR	0	12	1	MOTORCYCLE	923	n/a	0	1	0.412841796875	0.57763671875	upper	../fonts/zerothre.ttf
2335768	WORD	wordpools/wasnorm_wordpool_less_exclusions.txt	LTP248	ltpFR	0	12	1	HAWK	692	n/a	1	1	0.412841796875	0.57763671875	upper	../fonts/zerothre.ttf
2339895	WORD	wordpools/wasnorm_wordpool_less_exclusions.txt	LTP248	ltpFR	0	12	1	PEOPLE	1046	n/a	1	1	0.412841796875	0.57763671875	upper	../fonts/zerothre.ttf
2343756	WORD	wordpools/wasnorm_wordpool_less_exclusions.txt	LTP248	ltpFR	0	12	1	SWIMMER	1420	n/a	1	1	0.412841796875	0.57763671875	upper	../fonts/zerothre.ttf
2347934	WORD	wordpools/wasnorm_wordpool_less_exclusions.txt	LTP248	ltpFR	0	12	1	CATERPILLAR	259	n/a	1	1	0.412841796875	0.57763671875	upper	../fonts/zerothre.ttf
2351927	WORD	wordpools/wasnorm_wordpool_less_exclusions.txt	LTP248	ltpFR	0	12	1	RACK	1154	n/a	0	1	0.412841796875	0.57763671875	upper	../fonts/zerothre.ttf
2356139	WORD	wordpools/wasnorm_wordpool_less_exclusions.txt	LTP248	ltpFR	0	12	1	PATIO	1025	n/a	1	1	0.412841796875	0.57763671875	upper	../fonts/zerothre.ttf
2360199	WORD	wordpools/wasnorm_wordpool_less_exclusions.txt	LTP248	ltpFR	0	12	1	WAIST	1579	n/a	0	1	0.412841796875	0.57763671875	upper	../fonts/zerothre.ttf
2364127	WORD	wordpools/wasnorm_wordpool_less_exclusions.txt	LTP248	ltpFR	0	12	1	BUCKLE	185	n/a	0	1	0.412841796875	0.57763671875	upper	../fonts/zerothre.ttf
2368071	WORD	wordpools/wasnorm_wordpool_less_exclusions.txt	LTP248	ltpFR	0	12	1	PATRIOT	1026	n/a	0	1	0.412841796875	0.57763671875	upper	../fonts/zerothre.ttf
2371914	WORD	wordpools/wasnorm_wordpool_less_exclusions.txt	LTP248	ltpFR	0	12	1	CHICKEN	297	n/a	1	1	0.412841796875	0.57763671875	upper	../fonts/zerothre.ttf
2377673	REC_START	n/a	LTP248	ltpFR	0	12	n/a	n/a	n/a	n/a	n/a	n/a	n/a	n/a	n/a	n/a
2378192	REC_WORD	wordpools/wasnorm_wordpool_less_exclusions.txt	LTP248	ltpFR	0	12	1	CHICKEN	297	n/a	1	n/a	n/a	n/a	n/a	n/a
2379588	REC_WORD	wordpools/wasnorm_wordpool_less_exclusions.txt	LTP248	ltpFR	0	12	1	CHICK	296	n/a	1	n/a	n/a	n/a	n/a	n/a
2381005	REC_WORD	wordpools/wasnorm_wordpool_less_exclusions.txt	LTP248	ltpFR	0	12	1	BASKETBALL	96	n/a	0	n/a	n/a	n/a	n/a	n/a
2382607	REC_WORD	wordpools/wasnorm_wordpool_less_exclusions.txt	LTP248	ltpFR	0	12	1	PATIO	1025	n/a	1	n/a	n/a	n/a	n/a	n/a
2384447	REC_WORD	wordpools/wasnorm_wordpool_less_exclusions.txt	LTP248	ltpFR	0	12	1	HAWK	692	n/a	1	n/a	n/a	n/a	n/a	n/a
2385934	REC_WORD	wordpools/wasnorm_wordpool_less_exclusions.txt	LTP248	ltpFR	0	12	1	RACK	1154	n/a	0	n/a	n/a	n/a	n/a	n/a
2387436	REC_WORD	wordpools/wasnorm_wordpool_less_exclusions.txt	LTP248	ltpFR	0	12	1	CATERPILLAR	259	n/a	1	n/a	n/a	n/a	n/a	n/a
2389835	REC_WORD	wordpools/wasnorm_wordpool_less_exclusions.txt	LTP248	ltpFR	0	12	1	PEOPLE	1046	n/a	1	n/a	n/a	n/a	n/a	n/a
2424691	REC_WORD	wordpools/wasnorm_wordpool_less_exclusions.txt	LTP248	ltpFR	0	12	1	WAIST	1579	n/a	0	n/a	n/a	n/a	n/a	n/a
2426048	REC_WORD	wordpools/wasnorm_wordpool_less_exclusions.txt	LTP248	ltpFR	0	12	1	BUCKLE	185	n/a	0	n/a	n/a	n/a	n/a	n/a
2446327	REC_WORD	wordpools/wasnorm_wordpool_less_exclusions.txt	LTP248	ltpFR	0	12	n/a	SWIMMING POOL	-1	n/a	n/a	n/a	n/a	n/a	n/a	n/a
2453277	REST_REWET	n/a	LTP248	ltpFR	0	12	n/a	n/a	n/a	n/a	n/a	n/a	n/a	n/a	n/a	n/a
2885414	WORD	wordpools/wasnorm_wordpool_less_exclusions.txt	LTP248	ltpFR	0	13	0	PARCEL	1012	n/a	0	0	0.5869140625	0.422607421875	lower	../fonts/amplitud.ttf
2889558	WORD	wordpools/wasnorm_wordpool_less_exclusions.txt	LTP248	ltpFR	0	13	0	TYPEWRITER	1531	n/a	1	0	0.5869140625	0.422607421875	lower	../fonts/amplitud.ttf
2893518	WORD	wordpools/wasnorm_wordpool_less_exclusions.txt	LTP248	ltpFR	0	13	1	RIB	1188	n/a	1	1	0.412841796875	0.57763671875	upper	../fonts/zerothre.ttf
2897512	WORD	wordpools/wasnorm_wordpool_less_exclusions.txt	LTP248	ltpFR	0	13	1	RECIPE	1175	n/a	0	1	0.412841796875	0.57763671875	upper	../fonts/zerothre.ttf
2901573	WORD	wordpools/wasnorm_wordpool_less_exclusions.txt	LTP248	ltpFR	0	13	0	KITTEN	780	n/a	0	0	0.5869140625	0.422607421875	lower	../fonts/amplitud.ttf
2905600	WORD	wordpools/wasnorm_wordpool_less_exclusions.txt	LTP248	ltpFR	0	13	0	LEVER	815	n/a	n/a	0	0.5869140625	0.422607421875	lower	../fonts/amplitud.ttf
2908629	SLOW_MSG	n/a	LTP248	ltpFR	0	13	n/a	n/a	n/a	n/a	n/a	n/a	n/a	n/a	n/a	n/a
2911160	WORD	wordpools/wasnorm_wordpool_less_exclusions.txt	LTP248	ltpFR	0	13	0	COUNTY	389	n/a	0	0	0.5869140625	0.422607421875	lower	../fonts/amplitud.ttf
2915270	WORD	wordpools/wasnorm_wordpool_less_exclusions.txt	LTP248	ltpFR	0	13	0	TRUCK	1512	n/a	1	0	0.5869140625	0.422607421875	lower	../fonts/amplitud.ttf
2919413	WORD	wordpools/wasnorm_wordpool_less_exclusions.txt	LTP248	ltpFR	0	13	0	CAB	209	n/a	1	0	0.5869140625	0.422607421875	lower	../fonts/amplitud.ttf
2923540	WORD	wordpools/wasnorm_wordpool_less_exclusions.txt	LTP248	ltpFR	0	13	0	TOURIST	1488	n/a	1	0	0.5869140625	0.422607421875	lower	../fonts/amplitud.ttf
2927517	WORD	wordpools/wasnorm_wordpool_less_exclusions.txt	LTP248	ltpFR	0	13	1	WAITER	1580	n/a	1	1	0.412841796875	0.57763671875	upper	../fonts/zerothre.ttf
2931545	WORD	wordpools/wasnorm_wordpool_less_exclusions.txt	LTP248	ltpFR	0	13	1	COAT	333	n/a	0	1	0.412841796875	0.57763671875	upper	../fonts/zerothre.ttf
2935572	WORD	wordpools/wasnorm_wordpool_less_exclusions.txt	LTP248	ltpFR	0	13	1	GAZELLE	628	n/a	1	1	0.412841796875	0.57763671875	upper	../fonts/zerothre.ttf
2939716	WORD	wordpools/wasnorm_wordpool_less_exclusions.txt	LTP248	ltpFR	0	13	1	MAID	856	n/a	1	1	0.412841796875	0.57763671875	upper	../fonts/zerothre.ttf
2943810	WORD	wordpools/wasnorm_wordpool_less_exclusions.txt	LTP248	ltpFR	0	13	1	FUR	615	n/a	0	1	0.412841796875	0.57763671875	upper	../fonts/zerothre.ttf
2947754	WORD	wordpools/wasnorm_wordpool_less_exclusions.txt	LTP248	ltpFR	0	13	1	DOUGH	489	n/a	0	1	0.412841796875	0.57763671875	upper	../fonts/zerothre.ttf
2953413	REC_START	n/a	LTP248	ltpFR	0	13	n/a	n/a	n/a	n/a	n/a	n/a	n/a	n/a	n/a	n/a
2953906	REC_WORD	wordpools/wasnorm_wordpool_less_exclusions.txt	LTP248	ltpFR	0	13	1	GAZELLE	628	n/a	1	n/a	n/a	n/a	n/a	n/a
2954770	REC_WORD	wordpools/wasnorm_wordpool_less_exclusions.txt	LTP248	ltpFR	0	13	1	MAID	856	n/a	1	n/a	n/a	n/a	n/a	n/a
2955728	REC_WORD	wordpools/wasnorm_wordpool_less_exclusions.txt	LTP248	ltpFR	0	13	1	WAITER	1580	n/a	1	n/a	n/a	n/a	n/a	n/a
2956780	REC_WORD	wordpools/wasnorm_wordpool_less_exclusions.txt	LTP248	ltpFR	0	13	1	DOUGH	489	n/a	0	n/a	n/a	n/a	n/a	n/a
2961115	REC_WORD	wordpools/wasnorm_wordpool_less_exclusions.txt	LTP248	ltpFR	0	13	1	FUR	615	n/a	0	n/a	n/a	n/a	n/a	n/a
2985749	REC_WORD	wordpools/wasnorm_wordpool_less_exclusions.txt	LTP248	ltpFR	0	13	0	TYPEWRITER	1531	n/a	1	n/a	n/a	n/a	n/a	n/a
3014085	REC_WORD	wordpools/wasnorm_wordpool_less_exclusions.txt	LTP248	ltpFR	0	13	n/a	WAIT	-1	n/a	n/a	n/a	n/a	n/a	n/a	n/a
3040932	WORD	wordpools/wasnorm_wordpool_less_exclusions.txt	LTP248	ltpFR	0	14	0	BELLY	119	n/a	0	0	0.5869140625	0.422607421875	lower	../fonts/amplitud.ttf
3045043	WORD	wordpools/wasnorm_wordpool_less_exclusions.txt	LTP248	ltpFR	0	14	0	SCENERY	1247	n/a	0	0	0.5869140625	0.422607421875	lower	../fonts/amplitud.ttf
3049054	WORD	wordpools/wasnorm_wordpool_less_exclusions.txt	LTP248	ltpFR	0	14	1	COUNTRY	388	n/a	1	1	0.412841796875	0.57763671875	upper	../fonts/zerothre.ttf
3053031	WORD	wordpools/wasnorm_wordpool_less_exclusions.txt	LTP248	ltpFR	0	14	1	BUNNY	198	n/a	1	1	0.412841796875	0.57763671875	upper	../fonts/zerothre.ttf
3056942	WORD	wordpools/wasnorm_wordpool_less_exclusions.txt	LTP248	ltpFR	0	14	1	SALAD	1224	n/a	0	1	0.412841796875	0.57763671875	upper	../fonts/zerothre.ttf
3060802	WORD	wordpools/wasnorm_wordpool_less_exclusions.txt	LTP248	ltpFR	0	14	1	ROOST	1208	n/a	0	1	0.412841796875	0.57763671875	upper	../fonts/zerothre.ttf
3064679	WORD	wordpools/wasnorm_wordpool_less_exclusions.txt	LTP248	ltpFR	0	14	0	INTESTINE	742	n/a	0	0	0.5869140625	0.422607421875	lower	../fonts/amplitud.ttf
3068740	WORD	wordpools/wasnorm_wordpool_less_exclusions.txt	LTP248	ltpFR	0	14	0	KIDNEY	776	n/a	0	0	0.5869140625	0.422607421875	lower	../fonts/amplitud.ttf
3072784	WORD	wordpools/wasnorm_wordpool_less_exclusions.txt	LTP248	ltpFR	0	14	0	BOX	159	n/a	0	0	0.5869140625	0.422607421875	lower	../fonts/amplitud.ttf
3076678	WORD	wordpools/wasnorm_wordpool_less_exclusions.txt	LTP248	ltpFR	0	14	0	MAMMAL	861	n/a	0	0	0.5869140625	0.422607421875	lower	../fonts/amplitud.ttf
3080655	WORD	wordpools/wasnorm_wordpool_less_exclusions.txt	LTP248	ltpFR	0	14	1	RACCOON	1153	n/a	0	1	0.412841796875	0.57763671875	upper	../fonts/zerothre.ttf
3084700	WORD	wordpools/wasnorm_wordpool_less_exclusions.txt	LTP248	ltpFR	0	14	1	CANYON	235	n/a	0	1	0.412841796875	0.57763671875	upper	../fonts/zerothre.ttf
3088627	WORD	wordpools/wasnorm_wordpool_less_exclusions.txt	LTP248	ltpFR	0	14	1	BULLY	196	n/a	1	1	0.412841796875	0.57763671875	upper	../fonts/zerothre.ttf
3092571	WORD	wordpools/wasnorm_wordpool_less_exclusions.txt	LTP248	ltpFR	0	14	1	CITIZEN	312	n/a	1	1	0.412841796875	0.57763671875	upper	../fonts/zerothre.ttf
3096748	WORD	wordpools/wasnorm_wordpool_less_exclusions.txt	LTP248	ltpFR	0	14	0	EMERALD	528	n/a	0	0	0.5869140625	0.422607421875	lower	../fonts/amplitud.ttf
3100742	WORD	wordpools/wasnorm_wordpool_less_exclusions.txt	LTP248	ltpFR	0	14	0	GEM	629	n/a	0	0	0.5869140625	0.422607421875	lower	../fonts/amplitud.ttf
3106401	REC_START	n/a	LTP248	ltpFR	0	14	n/a	n/a	n/a	n/a	n/a	n/a	n/a	n/a	n/a	n/a
3106760	REC_WORD	wordpools/wasnorm_wordpool_less_exclusions.txt	LTP248	ltpFR	0	14	0	EMERALD	528	n/a	0	n/a	n/a	n/a	n/a	n/a
3107763	REC_WORD	wordpools/wasnorm_wordpool_less_exclusions.txt	LTP248	ltpFR	0	14	0	GEM	629	n/a	0	n/a	n/a	n/a	n/a	n/a
3108945	REC_WORD	wordpools/wasnorm_wordpool_less_exclusions.txt	LTP248	ltpFR	0	14	0	BOX	159	n/a	0	n/a	n/a	n/a	n/a	n/a
3109968	REC_WORD	wordpools/wasnorm_wordpool_less_exclusions.txt	LTP248	ltpFR	0	14	1	CITIZEN	312	n/a	1	n/a	n/a	n/a	n/a	n/a
3139416	REC_WORD	wordpools/wasnorm_wordpool_less_exclusions.txt	LTP248	ltpFR	0	14	1	COUNTRY	388	n/a	1	n/a	n/a	n/a	n/a	n/a
3165526	REC_WORD	wordpools/wasnorm_wordpool_less_exclusions.txt	LTP248	ltpFR	0	14	1	ROOST	1208	n/a	0	n/a	n/a	n/a	n/a	n/a
3168130	REC_WORD	wordpools/wasnorm_wordpool_less_exclusions.txt	LTP248	ltpFR	0	14	1	RACCOON	1153	n/a	0	n/a	n/a	n/a	n/a	n/a
3191623	WORD	wordpools/wasnorm_wordpool_less_exclusions.txt	LTP248	ltpFR	0	15	1	KITE	779	n/a	1	1	0.412841796875	0.57763671875	upper	../fonts/zerothre.ttf
3195717	WORD	wordpools/wasnorm_wordpool_less_exclusions.txt	LTP248	ltpFR	0	15	1	TEACHER	1440	n/a	1	1	0.412841796875	0.57763671875	upper	../fonts/zerothre.ttf
3199877	WORD	wordpools/wasnorm_wordpool_less_exclusions.txt	LTP248	ltpFR	0	15	1	DIRECTOR	471	n/a	0	1	0.412841796875	0.57763671875	upper	../fonts/zerothre.ttf
3203855	WORD	wordpools/wasnorm_wordpool_less_exclusions.txt	LTP248	ltpFR	0	15	1	COACH	331	n/a	0	1	0.412841796875	0.57763671875	upper	../fonts/zerothre.ttf
3207865	WORD	wordpools/wasnorm_wordpool_less_exclusions.txt	LTP248	ltpFR	0	15	1	LAUNDRY	803	n/a	0	1	0.412841796875	0.57763671875	upper	../fonts/zerothre.ttf
3212044	WORD	wordpools/wasnorm_wordpool_less_exclusions.txt	LTP248	ltpFR	0	15	1	PARROT	1015	n/a	1	1	0.412841796875	0.57763671875	upper	../fonts/zerothre.ttf
3215887	WORD	wordpools/wasnorm_wordpool_less_exclusions.txt	LTP248	ltpFR	0	15	0	PERCH	1048	n/a	1	0	0.5869140625	0.422607421875	lower	../fonts/amplitud.ttf
3219764	WORD	wordpools/wasnorm_wordpool_less_exclusions.txt	LTP248	ltpFR	0	15	0	LAWYER	806	n/a	1	0	0.5869140625	0.422607421875	lower	../fonts/amplitud.ttf
3223892	WORD	wordpools/wasnorm_wordpool_less_exclusions.txt	LTP248	ltpFR	0	15	0	SEED	1266	n/a	0	0	0.5869140625	0.422607421875	lower	../fonts/amplitud.ttf
3228103	WORD	wordpools/wasnorm_wordpool_less_exclusions.txt	LTP248	ltpFR	0	15	0	BUTTERFLY	206	n/a	0	0	0.5869140625	0.422607421875	lower	../fonts/amplitud.ttf
3232147	WORD	wordpools/wasnorm_wordpool_less_exclusions.txt	LTP248	ltpFR	0	15	0	FEMALE	559	n/a	1	0	0.5869140625	0.422607421875	lower	../fonts/amplitud.ttf
3235975	WORD	wordpools/wasnorm_wordpool_less_exclusions.txt	LTP248	ltpFR	0	15	0	VASE	1549	n/a	1	0	0.5869140625	0.422607421875	lower	../fonts/amplitud.ttf
3239851	WORD	wordpools/wasnorm_wordpool_less_exclusions.txt	LTP248	ltpFR	0	15	1	EAGLE	512	n/a	1	1	0.412841796875	0.57763671875	upper	../fonts/zerothre.ttf
3243895	WORD	wordpools/wasnorm_wordpool_less_exclusions.txt	LTP248	ltpFR	0	15	1	PILOT	1070	n/a	1	1	0.412841796875	0.57763671875	upper	../fonts/zerothre.ttf
3247739	WORD	wordpools/wasnorm_wordpool_less_exclusions.txt	LTP248	ltpFR	0	15	0	BUCKET	184	n/a	1	0	0.5869140625	0.422607421875	lower	../fonts/amplitud.ttf
3251717	WORD	wordpools/wasnorm_wordpool_less_exclusions.txt	LTP248	ltpFR	0	15	0	SLIDE	1326	n/a	1	0	0.5869140625	0.422607421875	lower	../fonts/amplitud.ttf
3257608	REC_START	n/a	LTP248	ltpFR	0	15	n/a	n/a	n/a	n/a	n/a	n/a	n/a	n/a	n/a	n/a
3258341	REC_WORD	wordpools/wasnorm_wordpool_less_exclusions.txt	LTP248	ltpFR	0	15	0	SLIDE	1326	n/a	1	n/a	n/a	n/a	n/a	n/a
3259747	REC_WORD	wordpools/wasnorm_wordpool_less_exclusions.txt	LTP248	ltpFR	0	15	0	BUCKET	184	n/a	1	n/a	n/a	n/a	n/a	n/a
3262596	REC_WORD	wordpools/wasnorm_wordpool_less_exclusions.txt	LTP248	ltpFR	0	15	1	EAGLE	512	n/a	1	n/a	n/a	n/a	n/a	n/a
3263908	REC_WORD	wordpools/wasnorm_wordpool_less_exclusions.txt	LTP248	ltpFR	0	15	0	SEED	1266	n/a	0	n/a	n/a	n/a	n/a	n/a
3266996	REC_WORD	wordpools/wasnorm_wordpool_less_exclusions.txt	LTP248	ltpFR	0	15	0	VASE	1549	n/a	1	n/a	n/a	n/a	n/a	n/a
3268498	REC_WORD	wordpools/wasnorm_wordpool_less_exclusions.txt	LTP248	ltpFR	0	15	1	COACH	331	n/a	0	n/a	n/a	n/a	n/a	n/a
3270279	REC_WORD	wordpools/wasnorm_wordpool_less_exclusions.txt	LTP248	ltpFR	0	15	1	TEACHER	1440	n/a	1	n/a	n/a	n/a	n/a	n/a
3288607	REC_WORD	wordpools/wasnorm_wordpool_less_exclusions.txt	LTP248	ltpFR	0	15	1	PARROT	1015	n/a	1	n/a	n/a	n/a	n/a	n/a
3308542	REC_WORD	wordpools/wasnorm_wordpool_less_exclusions.txt	LTP248	ltpFR	0	15	1	COACH	331	n/a	0	n/a	n/a	n/a	n/a	n/a
3352018	WORD	wordpools/wasnorm_wordpool_less_exclusions.txt	LTP248	ltpFR	0	16	1	TANGERINE	1431	n/a	1	1	0.412841796875	0.57763671875	upper	../fonts/zerothre.ttf
3356012	WORD	wordpools/wasnorm_wordpool_less_exclusions.txt	LTP248	ltpFR	0	16	1	KIWI	781	n/a	1	1	0.412841796875	0.57763671875	upper	../fonts/zerothre.ttf
3359839	WORD	wordpools/wasnorm_wordpool_less_exclusions.txt	LTP248	ltpFR	0	16	1	PAPER	1011	n/a	0	1	0.412841796875	0.57763671875	upper	../fonts/zerothre.ttf
3363699	WORD	wordpools/wasnorm_wordpool_less_exclusions.txt	LTP248	ltpFR	0	16	0	WHALE	1601	n/a	1	0	0.5869140625	0.422607421875	lower	../fonts/amplitud.ttf
3367627	WORD	wordpools/wasnorm_wordpool_less_exclusions.txt	LTP248	ltpFR	0	16	0	TUTU	1524	n/a	1	0	0.5869140625	0.422607421875	lower	../fonts/amplitud.ttf
3371688	WORD	wordpools/wasnorm_wordpool_less_exclusions.txt	LTP248	ltpFR	0	16	0	CHAMBER	277	n/a	0	0	0.5869140625	0.422607421875	lower	../fonts/amplitud.ttf
3375648	WORD	wordpools/wasnorm_wordpool_less_exclusions.txt	LTP248	ltpFR	0	16	0	ROOM	1206	n/a	1	0	0.5869140625	0.422607421875	lower	../fonts/amplitud.ttf
3379592	WORD	wordpools/wasnorm_wordpool_less_exclusions.txt	LTP248	ltpFR	0	16	0	APARTMENT	30	n/a	1	0	0.5869140625	0.422607421875	lower	../fonts/amplitud.ttf
3383786	WORD	wordpools/wasnorm_wordpool_less_exclusions.txt	LTP248	ltpFR	0	16	1	MOOSE	915	n/a	1	1	0.412841796875	0.57763671875	upper	../fonts/zerothre.ttf
3387764	WORD	wordpools/wasnorm_wordpool_less_exclusions.txt	LTP248	ltpFR	0	16	1	NOVEL	960	n/a	0	1	0.412841796875	0.57763671875	upper	../fonts/zerothre.ttf
3391608	WORD	wordpools/wasnorm_wordpool_less_exclusions.txt	LTP248	ltpFR	0	16	0	SALMON	1227	n/a	0	0	0.5869140625	0.422607421875	lower	../fonts/amplitud.ttf
3395485	WORD	wordpools/wasnorm_wordpool_less_exclusions.txt	LTP248	ltpFR	0	16	0	ZOO	1637	n/a	1	0	0.5869140625	0.422607421875	lower	../fonts/amplitud.ttf
3399413	WORD	wordpools/wasnorm_wordpool_less_exclusions.txt	LTP248	ltpFR	0	16	0	SHARK	1275	n/a	1	0	0.5869140625	0.422607421875	lower	../fonts/amplitud.ttf
3403607	WORD	wordpools/wasnorm_wordpool_less_exclusions.txt	LTP248	ltpFR	0	16	1	TOOTH	1481	n/a	1	1	0.412841796875	0.57763671875	upper	../fonts/zerothre.ttf
3407717	WORD	wordpools/wasnorm_wordpool_less_exclusions.txt	LTP248	ltpFR	0	16	1	PUPIL	1143	n/a	1	1	0.412841796875	0.57763671875	upper	../fonts/zerothre.ttf
3411794	WORD	wordpools/wasnorm_wordpool_less_exclusions.txt	LTP248	ltpFR	0	16	1	PRINCESS	1125	n/a	1	1	0.412841796875	0.57763671875	upper	../fonts/zerothre.ttf
3417503	REC_START	n/a	LTP248	ltpFR	0	16	n/a	n/a	n/a	n/a	n/a	n/a	n/a	n/a	n/a	n/a
3417862	REC_WORD	wordpools/wasnorm_wordpool_less_exclusions.txt	LTP248	ltpFR	0	16	1	PRINCESS	1125	n/a	1	n/a	n/a	n/a	n/a	n/a
3418740	REC_WORD	wordpools/wasnorm_wordpool_less_exclusions.txt	LTP248	ltpFR	0	16	1	TOOTH	1481	n/a	1	n/a	n/a	n/a	n/a	n/a
3419463	REC_WORD	wordpools/wasnorm_wordpool_less_exclusions.txt	LTP248	ltpFR	0	16	0	CHAMBER	277	n/a	0	n/a	n/a	n/a	n/a	n/a
3421414	REC_WORD	wordpools/wasnorm_wordpool_less_exclusions.txt	LTP248	ltpFR	0	16	0	WHALE	1601	n/a	1	n/a	n/a	n/a	n/a	n/a
3442750	REC_WORD	wordpools/wasnorm_wordpool_less_exclusions.txt	LTP248	ltpFR	0	16	1	TANGERINE	1431	n/a	1	n/a	n/a	n/a	n/a	n/a
3443750	REC_WORD_VV	wordpools/wasnorm_wordpool_less_exclusions.txt	LTP248	ltpFR	0	16	n/a	<>	-1	n/a	n/a	n/a	n/a	n/a	n/a	n/a
3444477	REC_WORD	wordpools/wasnorm_wordpool_less_exclusions.txt	LTP248	ltpFR	0	16	1	KIWI	781	n/a	1	n/a	n/a	n/a	n/a	n/a
3449465	REC_WORD	wordpools/wasnorm_wordpool_less_exclusions.txt	LTP248	ltpFR	0	16	0	TUTU	1524	n/a	1	n/a	n/a	n/a	n/a	n/a
3478374	REC_WORD	wordpools/wasnorm_wordpool_less_exclusions.txt	LTP248	ltpFR	0	16	1	PUPIL	1143	n/a	1	n/a	n/a	n/a	n/a	n/a
3480998	REC_WORD	wordpools/wasnorm_wordpool_less_exclusions.txt	LTP248	ltpFR	0	16	n/a	MOUTH	926	n/a	n/a	n/a	n/a	n/a	n/a	n/a
3483977	REC_WORD	wordpools/wasnorm_wordpool_less_exclusions.txt	LTP248	ltpFR	0	16	1	TOOTH	1481	n/a	1	n/a	n/a	n/a	n/a	n/a
3548292	REC_START	n/a	LTP248	ltpFR	0	n/a	n/a	n/a	n/a	n/a	n/a	n/a	n/a	n/a	n/a	n/a
3549469	FFR_REC_WORD	wordpools/wasnorm_wordpool_less_exclusions.txt	LTP248	ltpFR	0	n/a	1	PARROT	1015	n/a	1	n/a	n/a	n/a	n/a	n/a
3553809	FFR_REC_WORD	wordpools/wasnorm_wordpool_less_exclusions.txt	LTP248	ltpFR	0	n/a	1	HAWK	692	n/a	1	n/a	n/a	n/a	n/a	n/a
3555899	FFR_REC_WORD	wordpools/wasnorm_wordpool_less_exclusions.txt	LTP248	ltpFR	0	n/a	1	RACK	1154	n/a	0	n/a	n/a	n/a	n/a	n/a
3558314	FFR_REC_WORD	wordpools/wasnorm_wordpool_less_exclusions.txt	LTP248	ltpFR	0	n/a	1	BASKETBALL	96	n/a	0	n/a	n/a	n/a	n/a	n/a
3560694	FFR_REC_WORD	wordpools/wasnorm_wordpool_less_exclusions.txt	LTP248	ltpFR	0	n/a	1	PATIO	1025	n/a	1	n/a	n/a	n/a	n/a	n/a
3563003	FFR_REC_WORD	wordpools/wasnorm_wordpool_less_exclusions.txt	LTP248	ltpFR	0	n/a	-1	HEDGE	699	n/a	-1	n/a	n/a	n/a	n/a	n/a
3564804	FFR_REC_WORD	wordpools/wasnorm_wordpool_less_exclusions.txt	LTP248	ltpFR	0	n/a	-1	SPARROW	1347	n/a	-1	n/a	n/a	n/a	n/a	n/a
3567154	FFR_REC_WORD	wordpools/wasnorm_wordpool_less_exclusions.txt	LTP248	ltpFR	0	n/a	-1	BIRD	129	n/a	-1	n/a	n/a	n/a	n/a	n/a
3569214	FFR_REC_WORD	wordpools/wasnorm_wordpool_less_exclusions.txt	LTP248	ltpFR	0	n/a	1	BUCKLE	185	n/a	0	n/a	n/a	n/a	n/a	n/a
3571394	FFR_REC_WORD	wordpools/wasnorm_wordpool_less_exclusions.txt	LTP248	ltpFR	0	n/a	1	WAIST	1579	n/a	0	n/a	n/a	n/a	n/a	n/a
3576617	FFR_REC_WORD	wordpools/wasnorm_wordpool_less_exclusions.txt	LTP248	ltpFR	0	n/a	-1	PLAID	1080	n/a	-1	n/a	n/a	n/a	n/a	n/a
3579845	FFR_REC_WORD	wordpools/wasnorm_wordpool_less_exclusions.txt	LTP248	ltpFR	0	n/a	-1	PLAID	1080	n/a	-1	n/a	n/a	n/a	n/a	n/a
3586595	FFR_REC_WORD	wordpools/wasnorm_wordpool_less_exclusions.txt	LTP248	ltpFR	0	n/a	n/a	SKIRT	1319	n/a	n/a	n/a	n/a	n/a	n/a	n/a
3599306	FFR_REC_WORD	wordpools/wasnorm_wordpool_less_exclusions.txt	LTP248	ltpFR	0	n/a	-1	COTTAGE	384	n/a	-1	n/a	n/a	n/a	n/a	n/a
3601845	FFR_REC_WORD	wordpools/wasnorm_wordpool_less_exclusions.txt	LTP248	ltpFR	0	n/a	0	KITCHEN	778	n/a	1	n/a	n/a	n/a	n/a	n/a
3603267	FFR_REC_WORD	wordpools/wasnorm_wordpool_less_exclusions.txt	LTP248	ltpFR	0	n/a	0	WALL	1582	n/a	1	n/a	n/a	n/a	n/a	n/a
3604733	FFR_REC_WORD	wordpools/wasnorm_wordpool_less_exclusions.txt	LTP248	ltpFR	0	n/a	0	IGLOO	734	n/a	1	n/a	n/a	n/a	n/a	n/a
3613159	FFR_REC_WORD	wordpools/wasnorm_wordpool_less_exclusions.txt	LTP248	ltpFR	0	n/a	0	FAUCET	555	n/a	1	n/a	n/a	n/a	n/a	n/a
3624399	FFR_REC_WORD	wordpools/wasnorm_wordpool_less_exclusions.txt	LTP248	ltpFR	0	n/a	0	BASSINET	97	n/a	1	n/a	n/a	n/a	n/a	n/a
3627023	FFR_REC_WORD	wordpools/wasnorm_wordpool_less_exclusions.txt	LTP248	ltpFR	0	n/a	0	CELLO	268	n/a	1	n/a	n/a	n/a	n/a	n/a
3631966	FFR_REC_WORD	wordpools/wasnorm_wordpool_less_exclusions.txt	LTP248	ltpFR	0	n/a	0	FOX	598	n/a	1	n/a	n/a	n/a	n/a	n/a
3635239	FFR_REC_WORD	wordpools/wasnorm_wordpool_less_exclusions.txt	LTP248	ltpFR	0	n/a	0	WOLF	1619	n/a	1	n/a	n/a	n/a	n/a	n/a
3637933	FFR_REC_WORD	wordpools/wasnorm_wordpool_less_exclusions.txt	LTP248	ltpFR	0	n/a	0	CART	250	n/a	1	n/a	n/a	n/a	n/a	n/a
3640293	FFR_REC_WORD	wordpools/wasnorm_wordpool_less_exclusions.txt	LTP248	ltpFR	0	n/a	0	BEAVER	109	n/a	1	n/a	n/a	n/a	n/a	n/a
3642223	FFR_REC_WORD	wordpools/wasnorm_wordpool_less_exclusions.txt	LTP248	ltpFR	0	n/a	0	MARKET	871	n/a	1	n/a	n/a	n/a	n/a	n/a
3644069	FFR_REC_WORD	wordpools/wasnorm_wordpool_less_exclusions.txt	LTP248	ltpFR	0	n/a	0	CHEDDAR	286	n/a	0	n/a	n/a	n/a	n/a	n/a
3645735	FFR_REC_WORD	wordpools/wasnorm_wordpool_less_exclusions.txt	LTP248	ltpFR	0	n/a	0	MACARONI	851	n/a	0	n/a	n/a	n/a	n/a	n/a
3647925	FFR_REC_WORD	wordpools/wasnorm_wordpool_less_exclusions.txt	LTP248	ltpFR	0	n/a	0	APPLE	33	n/a	0	n/a	n/a	n/a	n/a	n/a
3649911	FFR_REC_WORD	wordpools/wasnorm_wordpool_less_exclusions.txt	LTP248	ltpFR	0	n/a	0	PLUM	1090	n/a	0	n/a	n/a	n/a	n/a	n/a
3654361	FFR_REC_WORD	wordpools/wasnorm_wordpool_less_exclusions.txt	LTP248	ltpFR	0	n/a	-1	TURNIP	1521	n/a	-1	n/a	n/a	n/a	n/a	n/a
3655922	FFR_REC_WORD	wordpools/wasnorm_wordpool_less_exclusions.txt	LTP248	ltpFR	0	n/a	-1	CACTUS	215	n/a	-1	n/a	n/a	n/a	n/a	n/a
3658761	FFR_REC_WORD	wordpools/wasnorm_wordpool_less_exclusions.txt	LTP248	ltpFR	0	n/a	1	ACORN	3	n/a	1	n/a	n/a	n/a	n/a	n/a
3660871	FFR_REC_WORD	wordpools/wasnorm_wordpool_less_exclusions.txt	LTP248	ltpFR	0	n/a	1	POCKET	1093	n/a	0	n/a	n/a	n/a	n/a	n/a
3662622	FFR_REC_WORD	wordpools/wasnorm_wordpool_less_exclusions.txt	LTP248	ltpFR	0	n/a	-1	QUARTER	1148	n/a	-1	n/a	n/a	n/a	n/a	n/a
3664293	FFR_REC_WORD	wordpools/wasnorm_wordpool_less_exclusions.txt	LTP248	ltpFR	0	n/a	-1	CENT	270	n/a	-1	n/a	n/a	n/a	n/a	n/a
3666084	FFR_REC_WORD	wordpools/wasnorm_wordpool_less_exclusions.txt	LTP248	ltpFR	0	n/a	-1	SIREN	1310	n/a	-1	n/a	n/a	n/a	n/a	n/a
3668578	FFR_REC_WORD	wordpools/wasnorm_wordpool_less_exclusions.txt	LTP248	ltpFR	0	n/a	-1	BOOTH	151	n/a	-1	n/a	n/a	n/a	n/a	n/a
3670280	FFR_REC_WORD	wordpools/wasnorm_wordpool_less_exclusions.txt	LTP248	ltpFR	0	n/a	-1	DASHBOARD	441	n/a	-1	n/a	n/a	n/a	n/a	n/a
3671971	FFR_REC_WORD	wordpools/wasnorm_wordpool_less_exclusions.txt	LTP248	ltpFR	0	n/a	-1	BILL	126	n/a	-1	n/a	n/a	n/a	n/a	n/a
3673462	FFR_REC_WORD	wordpools/wasnorm_wordpool_less_exclusions.txt	LTP248	ltpFR	0	n/a	-1	POLICE	1098	n/a	-1	n/a	n/a	n/a	n/a	n/a
3675128	FFR_REC_WORD	wordpools/wasnorm_wordpool_less_exclusions.txt	LTP248	ltpFR	0	n/a	-1	LETTER	813	n/a	-1	n/a	n/a	n/a	n/a	n/a
3676964	FFR_REC_WORD	wordpools/wasnorm_wordpool_less_exclusions.txt	LTP248	ltpFR	0	n/a	-1	NOTE	958	n/a	-1	n/a	n/a	n/a	n/a	n/a
3678945	FFR_REC_WORD	wordpools/wasnorm_wordpool_less_exclusions.txt	LTP248	ltpFR	0	n/a	1	PAPER	1011	n/a	0	n/a	n/a	n/a	n/a	n/a
3690823	FFR_REC_WORD	wordpools/wasnorm_wordpool_less_exclusions.txt	LTP248	ltpFR	0	n/a	0	BOX	159	n/a	0	n/a	n/a	n/a	n/a	n/a
3692953	FFR_REC_WORD	wordpools/wasnorm_wordpool_less_exclusions.txt	LTP248	ltpFR	0	n/a	0	LASER	801	n/a	0	n/a	n/a	n/a	n/a	n/a
3696520	FFR_REC_WORD	wordpools/wasnorm_wordpool_less_exclusions.txt	LTP248	ltpFR	0	n/a	1	FUR	615	n/a	0	n/a	n/a	n/a	n/a	n/a
3716315	FFR_REC_WORD	wordpools/wasnorm_wordpool_less_exclusions.txt	LTP248	ltpFR	0	n/a	-1	STAR	1373	n/a	-1	n/a	n/a	n/a	n/a	n/a
3719039	FFR_REC_WORD	wordpools/wasnorm_wordpool_less_exclusions.txt	LTP248	ltpFR	0	n/a	-1	COMET	353	n/a	-1	n/a	n/a	n/a	n/a	n/a
3745573	FFR_REC_WORD	wordpools/wasnorm_wordpool_less_exclusions.txt	LTP248	ltpFR	0	n/a	n/a	WOMAN	1620	n/a	n/a	n/a	n/a	n/a	n/a	n/a
3757516	FFR_REC_WORD	wordpools/wasnorm_wordpool_less_exclusions.txt	LTP248	ltpFR	0	n/a	-1	SPARROW	1347	n/a	-1	n/a	n/a	n/a	n/a	n/a
3790132	FFR_REC_WORD	wordpools/wasnorm_wordpool_less_exclusions.txt	LTP248	ltpFR	0	n/a	1	TOOTH	1481	n/a	1	n/a	n/a	n/a	n/a	n/a
3791569	FFR_REC_WORD	wordpools/wasnorm_wordpool_less_exclusions.txt	LTP248	ltpFR	0	n/a	1	PUPIL	1143	n/a	1	n/a	n/a	n/a	n/a	n/a
3793574	FFR_REC_WORD	wordpools/wasnorm_wordpool_less_exclusions.txt	LTP248	ltpFR	0	n/a	1	TEACHER	1440	n/a	1	n/a	n/a	n/a	n/a	n/a
3798887	FFR_REC_WORD	wordpools/wasnorm_wordpool_less_exclusions.txt	LTP248	ltpFR	0	n/a	1	COACH	331	n/a	0	n/a	n/a	n/a	n/a	n/a
3801092	FFR_REC_WORD	wordpools/wasnorm_wordpool_less_exclusions.txt	LTP248	ltpFR	0	n/a	0	BUS	201	n/a	1	n/a	n/a	n/a	n/a	n/a
3807448	FFR_REC_WORD	wordpools/wasnorm_wordpool_less_exclusions.txt	LTP248	ltpFR	0	n/a	0	AUTHOR	61	n/a	1	n/a	n/a	n/a	n/a	n/a
3810900	FFR_REC_WORD	wordpools/wasnorm_wordpool_less_exclusions.txt	LTP248	ltpFR	0	n/a	1	NOVEL	960	n/a	0	n/a	n/a	n/a	n/a	n/a
3815599	FFR_REC_WORD	wordpools/wasnorm_wordpool_less_exclusions.txt	LTP248	ltpFR	0	n/a	n/a	CROWD	-1	n/a	n/a	n/a	n/a	n/a	n/a	n/a
3818403	FFR_REC_WORD	wordpools/wasnorm_wordpool_less_exclusions.txt	LTP248	ltpFR	0	n/a	1	PEOPLE	1046	n/a	1	n/a	n/a	n/a	n/a	n/a
3829792	FFR_REC_WORD	wordpools/wasnorm_wordpool_less_exclusions.txt	LTP248	ltpFR	0	n/a	-1	HOUND	724	n/a	-1	n/a	n/a	n/a	n/a	n/a
4098670	REC_START	n/a	LTP248	ltpFR	0	1	n/a	n/a	n/a	n/a	n/a	n/a	n/a	n/a	n/a	n/a
4098702	RECOG_TARGET	n/a	LTP248	ltpFR	0	1	0	TRUCK	1512	3	1	n/a	n/a	n/a	n/a	n/a
4102348	RECOG_RESP_VV	n/a	LTP248	ltpFR	0	1	0	TRUCK	1512	n/a	1	n/a	n/a	n/a	n/a	n/a
4102934	RECOG_RESP	n/a	LTP248	ltpFR	0	1	0	TRUCK	1512	n/a	1	n/a	n/a	n/a	n/a	n/a
4106746	RECOG_CONF	n/a	LTP248	ltpFR	0	1	0	TRUCK	1512	3	1	n/a	n/a	n/a	n/a	n/a
4109071	RECOG_LURE	n/a	LTP248	ltpFR	0	1	n/a	MUSTARD	935	5	n/a	n/a	n/a	n/a	n/a	n/a
4110972	RECOG_RESP	n/a	LTP248	ltpFR	0	1	n/a	MUSTARD	935	n/a	n/a	n/a	n/a	n/a	n/a	n/a
4112830	RECOG_CONF	n/a	LTP248	ltpFR	0	1	n/a	MUSTARD	935	5	n/a	n/a	n/a	n/a	n/a	n/a
4115112	RECOG_TARGET	n/a	LTP248	ltpFR	0	1	0	REFRIGERATOR	1179	5	0	n/a	n/a	n/a	n/a	n/a
4117084	RECOG_RESP	n/a	LTP248	ltpFR	0	1	0	REFRIGERATOR	1179	n/a	0	n/a	n/a	n/a	n/a	n/a
4118664	RECOG_CONF	n/a	LTP248	ltpFR	0	1	0	REFRIGERATOR	1179	5	0	n/a	n/a	n/a	n/a	n/a
4121169	RECOG_LURE	n/a	LTP248	ltpFR	0	1	n/a	DOCUMENT	479	1	n/a	n/a	n/a	n/a	n/a	n/a
4125646	RECOG_RESP	n/a	LTP248	ltpFR	0	1	n/a	DOCUMENT	479	n/a	n/a	n/a	n/a	n/a	n/a	n/a
4128003	RECOG_CONF	n/a	LTP248	ltpFR	0	1	n/a	DOCUMENT	479	1	n/a	n/a	n/a	n/a	n/a	n/a
4130023	RECOG_TARGET	n/a	LTP248	ltpFR	0	1	1	MAID	856	5	1	n/a	n/a	n/a	n/a	n/a
4132200	RECOG_RESP	n/a	LTP248	ltpFR	0	1	1	MAID	856	n/a	1	n/a	n/a	n/a	n/a	n/a
4133935	RECOG_CONF	n/a	LTP248	ltpFR	0	1	1	MAID	856	5	1	n/a	n/a	n/a	n/a	n/a
4135830	RECOG_TARGET	n/a	LTP248	ltpFR	0	1	0	ROOM	1206	4	1	n/a	n/a	n/a	n/a	n/a
4137546	RECOG_RESP	n/a	LTP248	ltpFR	0	1	0	ROOM	1206	n/a	1	n/a	n/a	n/a	n/a	n/a
4139123	RECOG_CONF	n/a	LTP248	ltpFR	0	1	0	ROOM	1206	4	1	n/a	n/a	n/a	n/a	n/a
4140789	RECOG_TARGET	n/a	LTP248	ltpFR	0	1	-1	PEANUT	1032	5	-1	n/a	n/a	n/a	n/a	n/a
4142290	RECOG_RESP	n/a	LTP248	ltpFR	0	1	-1	PEANUT	1032	n/a	-1	n/a	n/a	n/a	n/a	n/a
4143433	RECOG_CONF	n/a	LTP248	ltpFR	0	1	-1	PEANUT	1032	5	-1	n/a	n/a	n/a	n/a	n/a
4145200	RECOG_TARGET	n/a	LTP248	ltpFR	0	1	0	EMERALD	528	5	0	n/a	n/a	n/a	n/a	n/a
4146258	RECOG_RESP	n/a	LTP248	ltpFR	0	1	0	EMERALD	528	n/a	0	n/a	n/a	n/a	n/a	n/a
4147454	RECOG_CONF	n/a	LTP248	ltpFR	0	1	0	EMERALD	528	5	0	n/a	n/a	n/a	n/a	n/a
4149094	RECOG_TARGET	n/a	LTP248	ltpFR	0	1	1	PARROT	1015	5	1	n/a	n/a	n/a	n/a	n/a
4150222	RECOG_RESP	n/a	LTP248	ltpFR	0	1	1	PARROT	1015	n/a	1	n/a	n/a	n/a	n/a	n/a
4151193	RECOG_CONF	n/a	LTP248	ltpFR	0	1	1	PARROT	1015	5	1	n/a	n/a	n/a	n/a	n/a
4152904	RECOG_TARGET	n/a	LTP248	ltpFR	0	1	1	DOUGH	489	5	0	n/a	n/a	n/a	n/a	n/a
4154340	RECOG_RESP	n/a	LTP248	ltpFR	0	1	1	DOUGH	489	n/a	0	n/a	n/a	n/a	n/a	n/a
4155436	RECOG_CONF	n/a	LTP248	ltpFR	0	1	1	DOUGH	489	5	0	n/a	n/a	n/a	n/a	n/a
4157032	RECOG_LURE	n/a	LTP248	ltpFR	0	1	n/a	BARLEY	88	5	n/a	n/a	n/a	n/a	n/a	n/a
4159448	RECOG_RESP	n/a	LTP248	ltpFR	0	1	n/a	BARLEY	88	n/a	n/a	n/a	n/a	n/a	n/a	n/a
4160510	RECOG_CONF	n/a	LTP248	ltpFR	0	1	n/a	BARLEY	88	5	n/a	n/a	n/a	n/a	n/a	n/a
4162258	RECOG_TARGET	n/a	LTP248	ltpFR	0	1	0	AUTHOR	61	5	1	n/a	n/a	n/a	n/a	n/a
4165308	RECOG_RESP	n/a	LTP248	ltpFR	0	1	0	AUTHOR	61	n/a	1	n/a	n/a	n/a	n/a	n/a
4166410	RECOG_CONF	n/a	LTP248	ltpFR	0	1	0	AUTHOR	61	5	1	n/a	n/a	n/a	n/a	n/a
4168183	RECOG_TARGET	n/a	LTP248	ltpFR	0	1	1	RIB	1188	5	1	n/a	n/a	n/a	n/a	n/a
4169510	RECOG_RESP	n/a	LTP248	ltpFR	0	1	1	RIB	1188	n/a	1	n/a	n/a	n/a	n/a	n/a
4170508	RECOG_CONF	n/a	LTP248	ltpFR	0	1	1	RIB	1188	5	1	n/a	n/a	n/a	n/a	n/a
4172392	RECOG_TARGET	n/a	LTP248	ltpFR	0	1	1	CHAIRPERSON	275	5	1	n/a	n/a	n/a	n/a	n/a
4173777	RECOG_RESP	n/a	LTP248	ltpFR	0	1	1	CHAIRPERSON	275	n/a	1	n/a	n/a	n/a	n/a	n/a
4174666	RECOG_CONF	n/a	LTP248	ltpFR	0	1	1	CHAIRPERSON	275	5	1	n/a	n/a	n/a	n/a	n/a
4176569	RECOG_TARGET	n/a	LTP248	ltpFR	0	1	-1	TURNIP	1521	5	-1	n/a	n/a	n/a	n/a	n/a
4179377	RECOG_RESP	n/a	LTP248	ltpFR	0	1	-1	TURNIP	1521	n/a	-1	n/a	n/a	n/a	n/a	n/a
4180269	RECOG_CONF	n/a	LTP248	ltpFR	0	1	-1	TURNIP	1521	5	-1	n/a	n/a	n/a	n/a	n/a
4182095	RECOG_TARGET	n/a	LTP248	ltpFR	0	1	0	IGLOO	734	5	1	n/a	n/a	n/a	n/a	n/a
4184070	RECOG_RESP	n/a	LTP248	ltpFR	0	1	0	IGLOO	734	n/a	1	n/a	n/a	n/a	n/a	n/a
4185278	RECOG_CONF	n/a	LTP248	ltpFR	0	1	0	IGLOO	734	5	1	n/a	n/a	n/a	n/a	n/a
4187287	RECOG_TARGET	n/a	LTP248	ltpFR	0	1	1	FIELD	562	5	1	n/a	n/a	n/a	n/a	n/a
4188843	RECOG_RESP	n/a	LTP248	ltpFR	0	1	1	FIELD	562	n/a	1	n/a	n/a	n/a	n/a	n/a
4189884	RECOG_CONF	n/a	LTP248	ltpFR	0	1	1	FIELD	562	5	1	n/a	n/a	n/a	n/a	n/a
4191780	RECOG_TARGET	n/a	LTP248	ltpFR	0	1	0	SHRIMP	1297	5	0	n/a	n/a	n/a	n/a	n/a
4192814	RECOG_RESP	n/a	LTP248	ltpFR	0	1	0	SHRIMP	1297	n/a	0	n/a	n/a	n/a	n/a	n/a
4193838	RECOG_CONF	n/a	LTP248	ltpFR	0	1	0	SHRIMP	1297	5	0	n/a	n/a	n/a	n/a	n/a
4195657	RECOG_TARGET	n/a	LTP248	ltpFR	0	1	0	PEDAL	1037	5	0	n/a	n/a	n/a	n/a	n/a
4196816	RECOG_RESP	n/a	LTP248	ltpFR	0	1	0	PEDAL	1037	n/a	0	n/a	n/a	n/a	n/a	n/a
4197787	RECOG_CONF	n/a	LTP248	ltpFR	0	1	0	PEDAL	1037	5	0	n/a	n/a	n/a	n/a	n/a
4199784	RECOG_TARGET	n/a	LTP248	ltpFR	0	1	0	SKI	1316	5	1	n/a	n/a	n/a	n/a	n/a
4202864	RECOG_RESP	n/a	LTP248	ltpFR	0	1	0	SKI	1316	n/a	1	n/a	n/a	n/a	n/a	n/a
4204071	RECOG_CONF	n/a	LTP248	ltpFR	0	1	0	SKI	1316	5	1	n/a	n/a	n/a	n/a	n/a
4299743	REC_START	n/a	LTP248	ltpFR	0	2	n/a	n/a	n/a	n/a	n/a	n/a	n/a	n/a	n/a	n/a
4299768	RECOG_TARGET	n/a	LTP248	ltpFR	0	2	-1	JUG	762	5	-1	n/a	n/a	n/a	n/a	n/a
4301333	RECOG_RESP	n/a	LTP248	ltpFR	0	2	-1	JUG	762	n/a	-1	n/a	n/a	n/a	n/a	n/a
4302723	RECOG_CONF	n/a	LTP248	ltpFR	0	2	-1	JUG	762	5	-1	n/a	n/a	n/a	n/a	n/a
4304778	RECOG_LURE	n/a	LTP248	ltpFR	0	2	n/a	SUN	1406	5	n/a	n/a	n/a	n/a	n/a	n/a
4305707	RECOG_RESP	n/a	LTP248	ltpFR	0	2	n/a	SUN	1406	n/a	n/a	n/a	n/a	n/a	n/a	n/a
4306844	RECOG_CONF	n/a	LTP248	ltpFR	0	2	n/a	SUN	1406	5	n/a	n/a	n/a	n/a	n/a	n/a
4308788	RECOG_LURE	n/a	LTP248	ltpFR	0	2	n/a	CLOSET	326	5	n/a	n/a	n/a	n/a	n/a	n/a
4310913	RECOG_RESP	n/a	LTP248	ltpFR	0	2	n/a	CLOSET	326	n/a	n/a	n/a	n/a	n/a	n/a	n/a
4312268	RECOG_CONF	n/a	LTP248	ltpFR	0	2	n/a	CLOSET	326	5	n/a	n/a	n/a	n/a	n/a	n/a
4314646	RECOG_LURE	n/a	LTP248	ltpFR	0	2	n/a	GROUND	666	5	n/a	n/a	n/a	n/a	n/a	n/a
4315816	RECOG_RESP	n/a	LTP248	ltpFR	0	2	n/a	GROUND	666	n/a	n/a	n/a	n/a	n/a	n/a	n/a
4317262	RECOG_CONF	n/a	LTP248	ltpFR	0	2	n/a	GROUND	666	5	n/a	n/a	n/a	n/a	n/a	n/a
4319406	RECOG_LURE	n/a	LTP248	ltpFR	0	2	n/a	COB	334	5	n/a	n/a	n/a	n/a	n/a	n/a
4321581	RECOG_RESP	n/a	LTP248	ltpFR	0	2	n/a	COB	334	n/a	n/a	n/a	n/a	n/a	n/a	n/a
4323504	RECOG_CONF	n/a	LTP248	ltpFR	0	2	n/a	COB	334	5	n/a	n/a	n/a	n/a	n/a	n/a
4325730	RECOG_TARGET	n/a	LTP248	ltpFR	0	2	1	HEN	703	5	1	n/a	n/a	n/a	n/a	n/a
4329303	RECOG_RESP	n/a	LTP248	ltpFR	0	2	1	HEN	703	n/a	1	n/a	n/a	n/a	n/a	n/a
4330853	RECOG_CONF	n/a	LTP248	ltpFR	0	2	1	HEN	703	5	1	n/a	n/a	n/a	n/a	n/a
4332936	RECOG_TARGET	n/a	LTP248	ltpFR	0	2	0	SALMON	1227	5	0	n/a	n/a	n/a	n/a	n/a
4333795	RECOG_RESP	n/a	LTP248	ltpFR	0	2	0	SALMON	1227	n/a	0	n/a	n/a	n/a	n/a	n/a
4335182	RECOG_CONF	n/a	LTP248	ltpFR	0	2	0	SALMON	1227	5	0	n/a	n/a	n/a	n/a	n/a
4337379	RECOG_TARGET	n/a	LTP248	ltpFR	0	2	0	ANTENNA	28	5	0	n/a	n/a	n/a	n/a	n/a
4338264	RECOG_RESP	n/a	LTP248	ltpFR	0	2	0	ANTENNA	28	n/a	0	n/a	n/a	n/a	n/a	n/a
4339589	RECOG_CONF	n/a	LTP248	ltpFR	0	2	0	ANTENNA	28	5	0	n/a	n/a	n/a	n/a	n/a
4341706	RECOG_TARGET	n/a	LTP248	ltpFR	0	2	1	BUCKLE	185	1	0	n/a	n/a	n/a	n/a	n/a
4346134	RECOG_RESP	n/a	LTP248	ltpFR	0	2	1	BUCKLE	185	n/a	0	n/a	n/a	n/a	n/a	n/a
4348245	RECOG_CONF	n/a	LTP248	ltpFR	0	2	1	BUCKLE	185	1	0	n/a	n/a	n/a	n/a	n/a
4350376	RECOG_TARGET	n/a	LTP248	ltpFR	0	2	0	FOUNTAIN	597	5	1	n/a	n/a	n/a	n/a	n/a
4351632	RECOG_RESP	n/a	LTP248	ltpFR	0	2	0	FOUNTAIN	597	n/a	1	n/a	n/a	n/a	n/a	n/a
4352739	RECOG_CONF	n/a	LTP248	ltpFR	0	2	0	FOUNTAIN	597	5	1	n/a	n/a	n/a	n/a	n/a
4354736	RECOG_TARGET	n/a	LTP248	ltpFR	0	2	1	WASHER	1592	5	0	n/a	n/a	n/a	n/a	n/a
4358934	RECOG_RESP	n/a	LTP248	ltpFR	0	2	1	WASHER	1592	n/a	0	n/a	n/a	n/a	n/a	n/a
4360294	RECOG_CONF	n/a	LTP248	ltpFR	0	2	1	WASHER	1592	5	0	n/a	n/a	n/a	n/a	n/a
4362425	RECOG_TARGET	n/a	LTP248	ltpFR	0	2	0	BUCKET	184	5	1	n/a	n/a	n/a	n/a	n/a
4363634	RECOG_RESP	n/a	LTP248	ltpFR	0	2	0	BUCKET	184	n/a	1	n/a	n/a	n/a	n/a	n/a
4364931	RECOG_CONF	n/a	LTP248	ltpFR	0	2	0	BUCKET	184	5	1	n/a	n/a	n/a	n/a	n/a
4366901	RECOG_TARGET	n/a	LTP248	ltpFR	0	2	1	PATRIOT	1026	5	0	n/a	n/a	n/a	n/a	n/a
4372323	RECOG_RESP	n/a	LTP248	ltpFR	0	2	1	PATRIOT	1026	n/a	0	n/a	n/a	n/a	n/a	n/a
4373466	RECOG_CONF	n/a	LTP248	ltpFR	0	2	1	PATRIOT	1026	5	0	n/a	n/a	n/a	n/a	n/a
4375539	RECOG_LURE	n/a	LTP248	ltpFR	0	2	n/a	SCARECROW	1245	5	n/a	n/a	n/a	n/a	n/a	n/a
4377287	RECOG_RESP	n/a	LTP248	ltpFR	0	2	n/a	SCARECROW	1245	n/a	n/a	n/a	n/a	n/a	n/a	n/a
4378526	RECOG_CONF	n/a	LTP248	ltpFR	0	2	n/a	SCARECROW	1245	5	n/a	n/a	n/a	n/a	n/a	n/a
4380648	RECOG_TARGET	n/a	LTP248	ltpFR	0	2	1	BEAN	105	5	1	n/a	n/a	n/a	n/a	n/a
4382113	RECOG_RESP	n/a	LTP248	ltpFR	0	2	1	BEAN	105	n/a	1	n/a	n/a	n/a	n/a	n/a
4383363	RECOG_CONF	n/a	LTP248	ltpFR	0	2	1	BEAN	105	5	1	n/a	n/a	n/a	n/a	n/a
4385424	RECOG_TARGET	n/a	LTP248	ltpFR	0	2	1	PUPIL	1143	5	1	n/a	n/a	n/a	n/a	n/a
4387905	RECOG_RESP	n/a	LTP248	ltpFR	0	2	1	PUPIL	1143	n/a	1	n/a	n/a	n/a	n/a	n/a
4389078	RECOG_CONF	n/a	LTP248	ltpFR	0	2	1	PUPIL	1143	5	1	n/a	n/a	n/a	n/a	n/a
4391150	RECOG_LURE	n/a	LTP248	ltpFR	0	2	n/a	GLASSES	640	5	n/a	n/a	n/a	n/a	n/a	n/a
4392207	RECOG_RESP	n/a	LTP248	ltpFR	0	2	n/a	GLASSES	640	n/a	n/a	n/a	n/a	n/a	n/a	n/a
4393273	RECOG_CONF	n/a	LTP248	ltpFR	0	2	n/a	GLASSES	640	5	n/a	n/a	n/a	n/a	n/a	n/a
4395392	RECOG_TARGET	n/a	LTP248	ltpFR	0	2	0	PLUM	1090	5	0	n/a	n/a	n/a	n/a	n/a
4396625	RECOG_RESP	n/a	LTP248	ltpFR	0	2	0	PLUM	1090	n/a	0	n/a	n/a	n/a	n/a	n/a
4398018	RECOG_CONF	n/a	LTP248	ltpFR	0	2	0	PLUM	1090	5	0	n/a	n/a	n/a	n/a	n/a
4400286	RECOG_TARGET	n/a	LTP248	ltpFR	0	2	-1	QUARTER	1148	5	-1	n/a	n/a	n/a	n/a	n/a
4401716	RECOG_RESP	n/a	LTP248	ltpFR	0	2	-1	QUARTER	1148	n/a	-1	n/a	n/a	n/a	n/a	n/a
4403157	RECOG_CONF	n/a	LTP248	ltpFR	0	2	-1	QUARTER	1148	5	-1	n/a	n/a	n/a	n/a	n/a
4405377	RECOG_TARGET	n/a	LTP248	ltpFR	0	2	-1	CAR	241	5	-1	n/a	n/a	n/a	n/a	n/a
4407042	RECOG_RESP	n/a	LTP248	ltpFR	0	2	-1	CAR	241	n/a	-1	n/a	n/a	n/a	n/a	n/a
4408244	RECOG_CONF	n/a	LTP248	ltpFR	0	2	-1	CAR	241	5	-1	n/a	n/a	n/a	n/a	n/a
4541274	REC_START	n/a	LTP248	ltpFR	0	3	n/a	n/a	n/a	n/a	n/a	n/a	n/a	n/a	n/a	n/a
4541309	RECOG_LURE	n/a	LTP248	ltpFR	0	3	n/a	BATH	98	3	n/a	n/a	n/a	n/a	n/a	n/a
4542488	RECOG_RESP	n/a	LTP248	ltpFR	0	3	n/a	BATH	98	n/a	n/a	n/a	n/a	n/a	n/a	n/a
4544492	RECOG_CONF	n/a	LTP248	ltpFR	0	3	n/a	BATH	98	3	n/a	n/a	n/a	n/a	n/a	n/a
4546500	RECOG_TARGET	n/a	LTP248	ltpFR	0	3	1	MOOSE	915	5	1	n/a	n/a	n/a	n/a	n/a
4549410	RECOG_RESP	n/a	LTP248	ltpFR	0	3	1	MOOSE	915	n/a	1	n/a	n/a	n/a	n/a	n/a
4550534	RECOG_CONF	n/a	LTP248	ltpFR	0	3	1	MOOSE	915	5	1	n/a	n/a	n/a	n/a	n/a
4552657	RECOG_TARGET	n/a	LTP248	ltpFR	0	3	0	COD	340	3	0	n/a	n/a	n/a	n/a	n/a
4554994	RECOG_RESP	n/a	LTP248	ltpFR	0	3	0	COD	340	n/a	0	n/a	n/a	n/a	n/a	n/a
4556183	RECOG_CONF	n/a	LTP248	ltpFR	0	3	0	COD	340	3	0	n/a	n/a	n/a	n/a	n/a
4558449	RECOG_LURE	n/a	LTP248	ltpFR	0	3	n/a	COWARD	394	5	n/a	n/a	n/a	n/a	n/a	n/a
4559722	RECOG_RESP	n/a	LTP248	ltpFR	0	3	n/a	COWARD	394	n/a	n/a	n/a	n/a	n/a	n/a	n/a
4560860	RECOG_CONF	n/a	LTP248	ltpFR	0	3	n/a	COWARD	394	5	n/a	n/a	n/a	n/a	n/a	n/a
4563126	RECOG_TARGET	n/a	LTP248	ltpFR	0	3	0	MACARONI	851	5	0	n/a	n/a	n/a	n/a	n/a
4564322	RECOG_RESP	n/a	LTP248	ltpFR	0	3	0	MACARONI	851	n/a	0	n/a	n/a	n/a	n/a	n/a
4565813	RECOG_CONF	n/a	LTP248	ltpFR	0	3	0	MACARONI	851	5	0	n/a	n/a	n/a	n/a	n/a
4568002	RECOG_TARGET	n/a	LTP248	ltpFR	0	3	-1	FLIPPER	580	1	-1	n/a	n/a	n/a	n/a	n/a
4571307	RECOG_RESP	n/a	LTP248	ltpFR	0	3	-1	FLIPPER	580	n/a	-1	n/a	n/a	n/a	n/a	n/a
4572625	RECOG_CONF	n/a	LTP248	ltpFR	0	3	-1	FLIPPER	580	1	-1	n/a	n/a	n/a	n/a	n/a
4574674	RECOG_LURE	n/a	LTP248	ltpFR	0	3	n/a	TOAD	1470	5	n/a	n/a	n/a	n/a	n/a	n/a
4575779	RECOG_RESP	n/a	LTP248	ltpFR	0	3	n/a	TOAD	1470	n/a	n/a	n/a	n/a	n/a	n/a	n/a
4577009	RECOG_CONF	n/a	LTP248	ltpFR	0	3	n/a	TOAD	1470	5	n/a	n/a	n/a	n/a	n/a	n/a
4579185	RECOG_TARGET	n/a	LTP248	ltpFR	0	3	0	WHALE	1601	5	1	n/a	n/a	n/a	n/a	n/a
4580644	RECOG_RESP	n/a	LTP248	ltpFR	0	3	0	WHALE	1601	n/a	1	n/a	n/a	n/a	n/a	n/a
4581746	RECOG_CONF	n/a	LTP248	ltpFR	0	3	0	WHALE	1601	5	1	n/a	n/a	n/a	n/a	n/a
4583828	RECOG_LURE	n/a	LTP248	ltpFR	0	3	n/a	SOCK	1339	5	n/a	n/a	n/a	n/a	n/a	n/a
4585044	RECOG_RESP	n/a	LTP248	ltpFR	0	3	n/a	SOCK	1339	n/a	n/a	n/a	n/a	n/a	n/a	n/a
4586149	RECOG_CONF	n/a	LTP248	ltpFR	0	3	n/a	SOCK	1339	5	n/a	n/a	n/a	n/a	n/a	n/a
4588139	RECOG_TARGET	n/a	LTP248	ltpFR	0	3	0	PARCEL	1012	4	0	n/a	n/a	n/a	n/a	n/a
4590166	RECOG_RESP	n/a	LTP248	ltpFR	0	3	0	PARCEL	1012	n/a	0	n/a	n/a	n/a	n/a	n/a
4592133	RECOG_CONF	n/a	LTP248	ltpFR	0	3	0	PARCEL	1012	4	0	n/a	n/a	n/a	n/a	n/a
4593929	RECOG_TARGET	n/a	LTP248	ltpFR	0	3	1	BULLY	196	5	1	n/a	n/a	n/a	n/a	n/a
4595517	RECOG_RESP	n/a	LTP248	ltpFR	0	3	1	BULLY	196	n/a	1	n/a	n/a	n/a	n/a	n/a
4596529	RECOG_CONF	n/a	LTP248	ltpFR	0	3	1	BULLY	196	5	1	n/a	n/a	n/a	n/a	n/a
4598439	RECOG_TARGET	n/a	LTP248	ltpFR	0	3	-1	CRICKET	408	5	-1	n/a	n/a	n/a	n/a	n/a
4600757	RECOG_RESP	n/a	LTP248	ltpFR	0	3	-1	CRICKET	408	n/a	-1	n/a	n/a	n/a	n/a	n/a
4601744	RECOG_CONF	n/a	LTP248	ltpFR	0	3	-1	CRICKET	408	5	-1	n/a	n/a	n/a	n/a	n/a
4603965	RECOG_LURE	n/a	LTP248	ltpFR	0	3	n/a	BUG	187	3	n/a	n/a	n/a	n/a	n/a	n/a
4606491	RECOG_RESP	n/a	LTP248	ltpFR	0	3	n/a	BUG	187	n/a	n/a	n/a	n/a	n/a	n/a	n/a
4607633	RECOG_CONF	n/a	LTP248	ltpFR	0	3	n/a	BUG	187	3	n/a	n/a	n/a	n/a	n/a	n/a
4609606	RECOG_TARGET	n/a	LTP248	ltpFR	0	3	0	CHAMBER	277	1	0	n/a	n/a	n/a	n/a	n/a
4613494	RECOG_RESP	n/a	LTP248	ltpFR	0	3	0	CHAMBER	277	n/a	0	n/a	n/a	n/a	n/a	n/a
4614902	RECOG_CONF	n/a	LTP248	ltpFR	0	3	0	CHAMBER	277	1	0	n/a	n/a	n/a	n/a	n/a
4616745	RECOG_TARGET	n/a	LTP248	ltpFR	0	3	-1	ARCHITECT	36	5	-1	n/a	n/a	n/a	n/a	n/a
4617754	RECOG_RESP	n/a	LTP248	ltpFR	0	3	-1	ARCHITECT	36	n/a	-1	n/a	n/a	n/a	n/a	n/a
4618566	RECOG_CONF	n/a	LTP248	ltpFR	0	3	-1	ARCHITECT	36	5	-1	n/a	n/a	n/a	n/a	n/a
4620856	RECOG_TARGET	n/a	LTP248	ltpFR	0	3	-1	RADIO	1157	2	-1	n/a	n/a	n/a	n/a	n/a
4622570	RECOG_RESP	n/a	LTP248	ltpFR	0	3	-1	RADIO	1157	n/a	-1	n/a	n/a	n/a	n/a	n/a
4623849	RECOG_CONF	n/a	LTP248	ltpFR	0	3	-1	RADIO	1157	2	-1	n/a	n/a	n/a	n/a	n/a
4625898	RECOG_TARGET	n/a	LTP248	ltpFR	0	3	0	TWIG	1527	5	0	n/a	n/a	n/a	n/a	n/a
4627348	RECOG_RESP	n/a	LTP248	ltpFR	0	3	0	TWIG	1527	n/a	0	n/a	n/a	n/a	n/a	n/a
4629298	RECOG_CONF	n/a	LTP248	ltpFR	0	3	0	TWIG	1527	5	0	n/a	n/a	n/a	n/a	n/a
4631689	RECOG_TARGET	n/a	LTP248	ltpFR	0	3	0	CARNIVAL	245	5	1	n/a	n/a	n/a	n/a	n/a
4633120	RECOG_RESP	n/a	LTP248	ltpFR	0	3	0	CARNIVAL	245	n/a	1	n/a	n/a	n/a	n/a	n/a
4634594	RECOG_CONF	n/a	LTP248	ltpFR	0	3	0	CARNIVAL	245	5	1	n/a	n/a	n/a	n/a	n/a
4636798	RECOG_LURE	n/a	LTP248	ltpFR	0	3	n/a	STY	1397	5	n/a	n/a	n/a	n/a	n/a	n/a
4638759	RECOG_RESP	n/a	LTP248	ltpFR	0	3	n/a	STY	1397	n/a	n/a	n/a	n/a	n/a	n/a	n/a
4639888	RECOG_CONF	n/a	LTP248	ltpFR	0	3	n/a	STY	1397	5	n/a	n/a	n/a	n/a	n/a	n/a
4642042	RECOG_TARGET	n/a	LTP248	ltpFR	0	3	0	TYPEWRITER	1531	5	1	n/a	n/a	n/a	n/a	n/a
4643484	RECOG_RESP	n/a	LTP248	ltpFR	0	3	0	TYPEWRITER	1531	n/a	1	n/a	n/a	n/a	n/a	n/a
4644615	RECOG_CONF	n/a	LTP248	ltpFR	0	3	0	TYPEWRITER	1531	5	1	n/a	n/a	n/a	n/a	n/a
4727981	REC_START	n/a	LTP248	ltpFR	0	4	n/a	n/a	n/a	n/a	n/a	n/a	n/a	n/a	n/a	n/a
4728013	RECOG_TARGET	n/a	LTP248	ltpFR	0	4	1	COACH	331	5	0	n/a	n/a	n/a	n/a	n/a
4730030	RECOG_RESP	n/a	LTP248	ltpFR	0	4	1	COACH	331	n/a	0	n/a	n/a	n/a	n/a	n/a
4731184	RECOG_CONF	n/a	LTP248	ltpFR	0	4	1	COACH	331	5	0	n/a	n/a	n/a	n/a	n/a
4733255	RECOG_TARGET	n/a	LTP248	ltpFR	0	4	0	FAUCET	555	5	1	n/a	n/a	n/a	n/a	n/a
4734338	RECOG_RESP	n/a	LTP248	ltpFR	0	4	0	FAUCET	555	n/a	1	n/a	n/a	n/a	n/a	n/a
4735355	RECOG_CONF	n/a	LTP248	ltpFR	0	4	0	FAUCET	555	5	1	n/a	n/a	n/a	n/a	n/a
4737283	RECOG_LURE	n/a	LTP248	ltpFR	0	4	n/a	SILVERWARE	1308	5	n/a	n/a	n/a	n/a	n/a	n/a
4738696	RECOG_RESP	n/a	LTP248	ltpFR	0	4	n/a	SILVERWARE	1308	n/a	n/a	n/a	n/a	n/a	n/a	n/a
4739764	RECOG_CONF	n/a	LTP248	ltpFR	0	4	n/a	SILVERWARE	1308	5	n/a	n/a	n/a	n/a	n/a	n/a
4741775	RECOG_TARGET	n/a	LTP248	ltpFR	0	4	-1	LIPSTICK	829	5	-1	n/a	n/a	n/a	n/a	n/a
4743266	RECOG_RESP	n/a	LTP248	ltpFR	0	4	-1	LIPSTICK	829	n/a	-1	n/a	n/a	n/a	n/a	n/a
4744271	RECOG_CONF	n/a	LTP248	ltpFR	0	4	-1	LIPSTICK	829	5	-1	n/a	n/a	n/a	n/a	n/a
4746136	RECOG_TARGET	n/a	LTP248	ltpFR	0	4	-1	BED	110	3	-1	n/a	n/a	n/a	n/a	n/a
4747222	RECOG_RESP	n/a	LTP248	ltpFR	0	4	-1	BED	110	n/a	-1	n/a	n/a	n/a	n/a	n/a
4748149	RECOG_CONF	n/a	LTP248	ltpFR	0	4	-1	BED	110	3	-1	n/a	n/a	n/a	n/a	n/a
4750030	RECOG_TARGET	n/a	LTP248	ltpFR	0	4	1	MOTORCYCLE	923	4	0	n/a	n/a	n/a	n/a	n/a
4751304	RECOG_RESP	n/a	LTP248	ltpFR	0	4	1	MOTORCYCLE	923	n/a	0	n/a	n/a	n/a	n/a	n/a
4752811	RECOG_CONF	n/a	LTP248	ltpFR	0	4	1	MOTORCYCLE	923	4	0	n/a	n/a	n/a	n/a	n/a
4754789	RECOG_TARGET	n/a	LTP248	ltpFR	0	4	1	CUPBOARD	425	5	0	n/a	n/a	n/a	n/a	n/a
4756281	RECOG_RESP	n/a	LTP248	ltpFR	0	4	1	CUPBOARD	425	n/a	0	n/a	n/a	n/a	n/a	n/a
4757179	RECOG_CONF	n/a	LTP248	ltpFR	0	4	1	CUPBOARD	425	5	0	n/a	n/a	n/a	n/a	n/a
4759083	RECOG_LURE	n/a	LTP248	ltpFR	0	4	n/a	STEP	1377	1	n/a	n/a	n/a	n/a	n/a	n/a
4762001	RECOG_RESP	n/a	LTP248	ltpFR	0	4	n/a	STEP	1377	n/a	n/a	n/a	n/a	n/a	n/a	n/a
4763041	RECOG_CONF	n/a	LTP248	ltpFR	0	4	n/a	STEP	1377	1	n/a	n/a	n/a	n/a	n/a	n/a
4764924	RECOG_LURE	n/a	LTP248	ltpFR	0	4	n/a	BOWL	158	2	n/a	n/a	n/a	n/a	n/a	n/a
4768321	RECOG_RESP	n/a	LTP248	ltpFR	0	4	n/a	BOWL	158	n/a	n/a	n/a	n/a	n/a	n/a	n/a
4769521	RECOG_CONF	n/a	LTP248	ltpFR	0	4	n/a	BOWL	158	2	n/a	n/a	n/a	n/a	n/a	n/a
4771364	RECOG_TARGET	n/a	LTP248	ltpFR	0	4	0	VASE	1549	5	1	n/a	n/a	n/a	n/a	n/a
4772400	RECOG_RESP	n/a	LTP248	ltpFR	0	4	0	VASE	1549	n/a	1	n/a	n/a	n/a	n/a	n/a
4773290	RECOG_CONF	n/a	LTP248	ltpFR	0	4	0	VASE	1549	5	1	n/a	n/a	n/a	n/a	n/a
4775176	RECOG_TARGET	n/a	LTP248	ltpFR	0	4	1	DRESSER	496	2	0	n/a	n/a	n/a	n/a	n/a
4776722	RECOG_RESP	n/a	LTP248	ltpFR	0	4	1	DRESSER	496	n/a	0	n/a	n/a	n/a	n/a	n/a
4777825	RECOG_CONF	n/a	LTP248	ltpFR	0	4	1	DRESSER	496	2	0	n/a	n/a	n/a	n/a	n/a
4779635	RECOG_TARGET	n/a	LTP248	ltpFR	0	4	0	KEYBOARD	774	5	1	n/a	n/a	n/a	n/a	n/a
4780972	RECOG_RESP	n/a	LTP248	ltpFR	0	4	0	KEYBOARD	774	n/a	1	n/a	n/a	n/a	n/a	n/a
4782427	RECOG_CONF	n/a	LTP248	ltpFR	0	4	0	KEYBOARD	774	5	1	n/a	n/a	n/a	n/a	n/a
4784628	RECOG_LURE	n/a	LTP248	ltpFR	0	4	n/a	NEUTRON	947	5	n/a	n/a	n/a	n/a	n/a	n/a
4786053	RECOG_RESP	n/a	LTP248	ltpFR	0	4	n/a	NEUTRON	947	n/a	n/a	n/a	n/a	n/a	n/a	n/a
4787043	RECOG_CONF	n/a	LTP248	ltpFR	0	4	n/a	NEUTRON	947	5	n/a	n/a	n/a	n/a	n/a	n/a
4788821	RECOG_TARGET	n/a	LTP248	ltpFR	0	4	1	EGG	518	5	1	n/a	n/a	n/a	n/a	n/a
4789921	RECOG_RESP	n/a	LTP248	ltpFR	0	4	1	EGG	518	n/a	1	n/a	n/a	n/a	n/a	n/a
4790764	RECOG_CONF	n/a	LTP248	ltpFR	0	4	1	EGG	518	5	1	n/a	n/a	n/a	n/a	n/a
4792899	RECOG_LURE	n/a	LTP248	ltpFR	0	4	n/a	WAITRESS	1581	5	n/a	n/a	n/a	n/a	n/a	n/a
4793782	RECOG_RESP	n/a	LTP248	ltpFR	0	4	n/a	WAITRESS	1581	n/a	n/a	n/a	n/a	n/a	n/a	n/a
4794650	RECOG_CONF	n/a	LTP248	ltpFR	0	4	n/a	WAITRESS	1581	5	n/a	n/a	n/a	n/a	n/a	n/a
4796527	RECOG_TARGET	n/a	LTP248	ltpFR	0	4	0	PAIL	1002	5	0	n/a	n/a	n/a	n/a	n/a
4797536	RECOG_RESP	n/a	LTP248	ltpFR	0	4	0	PAIL	1002	n/a	0	n/a	n/a	n/a	n/a	n/a
4798366	RECOG_CONF	n/a	LTP248	ltpFR	0	4	0	PAIL	1002	5	0	n/a	n/a	n/a	n/a	n/a
4800570	RECOG_TARGET	n/a	LTP248	ltpFR	0	4	0	SLIDE	1326	5	1	n/a	n/a	n/a	n/a	n/a
4801709	RECOG_RESP	n/a	LTP248	ltpFR	0	4	0	SLIDE	1326	n/a	1	n/a	n/a	n/a	n/a	n/a
4802547	RECOG_CONF	n/a	LTP248	ltpFR	0	4	0	SLIDE	1326	5	1	n/a	n/a	n/a	n/a	n/a
4804564	RECOG_TARGET	n/a	LTP248	ltpFR	0	4	-1	NICKEL	950	1	-1	n/a	n/a	n/a	n/a	n/a
4807332	RECOG_RESP	n/a	LTP248	ltpFR	0	4	-1	NICKEL	950	n/a	-1	n/a	n/a	n/a	n/a	n/a
4808521	RECOG_CONF	n/a	LTP248	ltpFR	0	4	-1	NICKEL	950	1	-1	n/a	n/a	n/a	n/a	n/a
4810307	RECOG_TARGET	n/a	LTP248	ltpFR	0	4	1	NOVEL	960	1	0	n/a	n/a	n/a	n/a	n/a
4811518	RECOG_RESP	n/a	LTP248	ltpFR	0	4	1	NOVEL	960	n/a	0	n/a	n/a	n/a	n/a	n/a
4812734	RECOG_CONF	n/a	LTP248	ltpFR	0	4	1	NOVEL	960	1	0	n/a	n/a	n/a	n/a	n/a
4814550	RECOG_TARGET	n/a	LTP248	ltpFR	0	4	0	CREW	406	1	1	n/a	n/a	n/a	n/a	n/a
4815861	RECOG_RESP	n/a	LTP248	ltpFR	0	4	0	CREW	406	n/a	1	n/a	n/a	n/a	n/a	n/a
4816975	RECOG_CONF	n/a	LTP248	ltpFR	0	4	0	CREW	406	1	1	n/a	n/a	n/a	n/a	n/a
4820716	REC_START	n/a	LTP248	ltpFR	0	5	n/a	n/a	n/a	n/a	n/a	n/a	n/a	n/a	n/a	n/a
4820740	RECOG_TARGET	n/a	LTP248	ltpFR	0	5	1	SACK	1220	1	0	n/a	n/a	n/a	n/a	n/a
4822058	RECOG_RESP	n/a	LTP248	ltpFR	0	5	1	SACK	1220	n/a	0	n/a	n/a	n/a	n/a	n/a
4823125	RECOG_CONF	n/a	LTP248	ltpFR	0	5	1	SACK	1220	1	0	n/a	n/a	n/a	n/a	n/a
4824734	RECOG_TARGET	n/a	LTP248	ltpFR	0	5	0	CAB	209	2	1	n/a	n/a	n/a	n/a	n/a
4825821	RECOG_RESP	n/a	LTP248	ltpFR	0	5	0	CAB	209	n/a	1	n/a	n/a	n/a	n/a	n/a
4826744	RECOG_CONF	n/a	LTP248	ltpFR	0	5	0	CAB	209	2	1	n/a	n/a	n/a	n/a	n/a
4828429	RECOG_LURE	n/a	LTP248	ltpFR	0	5	n/a	RAG	1160	1	n/a	n/a	n/a	n/a	n/a	n/a
4829502	RECOG_RESP	n/a	LTP248	ltpFR	0	5	n/a	RAG	1160	n/a	n/a	n/a	n/a	n/a	n/a	n/a
4830512	RECOG_CONF	n/a	LTP248	ltpFR	0	5	n/a	RAG	1160	1	n/a	n/a	n/a	n/a	n/a	n/a
4832124	RECOG_TARGET	n/a	LTP248	ltpFR	0	5	0	ARTICLE	42	5	0	n/a	n/a	n/a	n/a	n/a
4833363	RECOG_RESP	n/a	LTP248	ltpFR	0	5	0	ARTICLE	42	n/a	0	n/a	n/a	n/a	n/a	n/a
4834245	RECOG_CONF	n/a	LTP248	ltpFR	0	5	0	ARTICLE	42	5	0	n/a	n/a	n/a	n/a	n/a
4836019	RECOG_TARGET	n/a	LTP248	ltpFR	0	5	1	CALF	222	5	1	n/a	n/a	n/a	n/a	n/a
4837115	RECOG_RESP	n/a	LTP248	ltpFR	0	5	1	CALF	222	n/a	1	n/a	n/a	n/a	n/a	n/a
4838025	RECOG_CONF	n/a	LTP248	ltpFR	0	5	1	CALF	222	5	1	n/a	n/a	n/a	n/a	n/a
4839946	RECOG_TARGET	n/a	LTP248	ltpFR	0	5	-1	BEVERAGE	123	3	-1	n/a	n/a	n/a	n/a	n/a
4841047	RECOG_RESP	n/a	LTP248	ltpFR	0	5	-1	BEVERAGE	123	n/a	-1	n/a	n/a	n/a	n/a	n/a
4841851	RECOG_CONF	n/a	LTP248	ltpFR	0	5	-1	BEVERAGE	123	3	-1	n/a	n/a	n/a	n/a	n/a
4843723	RECOG_TARGET	n/a	LTP248	ltpFR	0	5	1	PLANT	1083	1	1	n/a	n/a	n/a	n/a	n/a
4846763	RECOG_RESP	n/a	LTP248	ltpFR	0	5	1	PLANT	1083	n/a	1	n/a	n/a	n/a	n/a	n/a
4847679	RECOG_CONF	n/a	LTP248	ltpFR	0	5	1	PLANT	1083	1	1	n/a	n/a	n/a	n/a	n/a
4849564	RECOG_TARGET	n/a	LTP248	ltpFR	0	5	0	KITCHEN	778	5	1	n/a	n/a	n/a	n/a	n/a
4850378	RECOG_RESP	n/a	LTP248	ltpFR	0	5	0	KITCHEN	778	n/a	1	n/a	n/a	n/a	n/a	n/a
4851224	RECOG_CONF	n/a	LTP248	ltpFR	0	5	0	KITCHEN	778	5	1	n/a	n/a	n/a	n/a	n/a
4852993	RECOG_TARGET	n/a	LTP248	ltpFR	0	5	1	BARRACUDA	90	3	0	n/a	n/a	n/a	n/a	n/a
4855156	RECOG_RESP	n/a	LTP248	ltpFR	0	5	1	BARRACUDA	90	n/a	0	n/a	n/a	n/a	n/a	n/a
4857091	RECOG_CONF	n/a	LTP248	ltpFR	0	5	1	BARRACUDA	90	3	0	n/a	n/a	n/a	n/a	n/a
4859234	RECOG_TARGET	n/a	LTP248	ltpFR	0	5	1	RECIPE	1175	5	0	n/a	n/a	n/a	n/a	n/a
4860689	RECOG_RESP	n/a	LTP248	ltpFR	0	5	1	RECIPE	1175	n/a	0	n/a	n/a	n/a	n/a	n/a
4861636	RECOG_CONF	n/a	LTP248	ltpFR	0	5	1	RECIPE	1175	5	0	n/a	n/a	n/a	n/a	n/a
4863360	RECOG_TARGET	n/a	LTP248	ltpFR	0	5	1	LAUNDRY	803	5	0	n/a	n/a	n/a	n/a	n/a
4864397	RECOG_RESP	n/a	LTP248	ltpFR	0	5	1	LAUNDRY	803	n/a	0	n/a	n/a	n/a	n/a	n/a
4865150	RECOG_CONF	n/a	LTP248	ltpFR	0	5	1	LAUNDRY	803	5	0	n/a	n/a	n/a	n/a	n/a
4867487	RECOG_TARGET	n/a	LTP248	ltpFR	0	5	1	POPE	1105	5	1	n/a	n/a	n/a	n/a	n/a
4868450	RECOG_RESP	n/a	LTP248	ltpFR	0	5	1	POPE	1105	n/a	1	n/a	n/a	n/a	n/a	n/a
4869313	RECOG_CONF	n/a	LTP248	ltpFR	0	5	1	POPE	1105	5	1	n/a	n/a	n/a	n/a	n/a
4871381	RECOG_TARGET	n/a	LTP248	ltpFR	0	5	-1	MARSH	874	5	-1	n/a	n/a	n/a	n/a	n/a
4872614	RECOG_RESP	n/a	LTP248	ltpFR	0	5	-1	MARSH	874	n/a	-1	n/a	n/a	n/a	n/a	n/a
4873559	RECOG_CONF	n/a	LTP248	ltpFR	0	5	-1	MARSH	874	5	-1	n/a	n/a	n/a	n/a	n/a
4875509	RECOG_TARGET	n/a	LTP248	ltpFR	0	5	0	CRAB	397	5	0	n/a	n/a	n/a	n/a	n/a
4876464	RECOG_RESP	n/a	LTP248	ltpFR	0	5	0	CRAB	397	n/a	0	n/a	n/a	n/a	n/a	n/a
4877362	RECOG_CONF	n/a	LTP248	ltpFR	0	5	0	CRAB	397	5	0	n/a	n/a	n/a	n/a	n/a
4879370	RECOG_TARGET	n/a	LTP248	ltpFR	0	5	0	SHOP	1290	5	1	n/a	n/a	n/a	n/a	n/a
4880869	RECOG_RESP	n/a	LTP248	ltpFR	0	5	0	SHOP	1290	n/a	1	n/a	n/a	n/a	n/a	n/a
4881726	RECOG_CONF	n/a	LTP248	ltpFR	0	5	0	SHOP	1290	5	1	n/a	n/a	n/a	n/a	n/a
4883497	RECOG_TARGET	n/a	LTP248	ltpFR	0	5	-1	KETTLE	772	2	-1	n/a	n/a	n/a	n/a	n/a
4886762	RECOG_RESP	n/a	LTP248	ltpFR	0	5	-1	KETTLE	772	n/a	-1	n/a	n/a	n/a	n/a	n/a
4887842	RECOG_CONF	n/a	LTP248	ltpFR	0	5	-1	KETTLE	772	2	-1	n/a	n/a	n/a	n/a	n/a
4889787	RECOG_TARGET	n/a	LTP248	ltpFR	0	5	1	MARINE	869	5	1	n/a	n/a	n/a	n/a	n/a
4890792	RECOG_RESP	n/a	LTP248	ltpFR	0	5	1	MARINE	869	n/a	1	n/a	n/a	n/a	n/a	n/a
4891645	RECOG_CONF	n/a	LTP248	ltpFR	0	5	1	MARINE	869	5	1	n/a	n/a	n/a	n/a	n/a
4893798	RECOG_TARGET	n/a	LTP248	ltpFR	0	5	1	SENATE	1267	5	1	n/a	n/a	n/a	n/a	n/a
4894759	RECOG_RESP	n/a	LTP248	ltpFR	0	5	1	SENATE	1267	n/a	1	n/a	n/a	n/a	n/a	n/a
4895626	RECOG_CONF	n/a	LTP248	ltpFR	0	5	1	SENATE	1267	5	1	n/a	n/a	n/a	n/a	n/a
4897675	RECOG_TARGET	n/a	LTP248	ltpFR	0	5	0	MATCH	878	1	0	n/a	n/a	n/a	n/a	n/a
4901116	RECOG_RESP	n/a	LTP248	ltpFR	0	5	0	MATCH	878	n/a	0	n/a	n/a	n/a	n/a	n/a
4902022	RECOG_CONF	n/a	LTP248	ltpFR	0	5	0	MATCH	878	1	0	n/a	n/a	n/a	n/a	n/a
4903733	RECOG_TARGET	n/a	LTP248	ltpFR	0	5	1	OUTFIT	988	1	0	n/a	n/a	n/a	n/a	n/a
4905828	RECOG_RESP	n/a	LTP248	ltpFR	0	5	1	OUTFIT	988	n/a	0	n/a	n/a	n/a	n/a	n/a
4906815	RECOG_CONF	n/a	LTP248	ltpFR	0	5	1	OUTFIT	988	1	0	n/a	n/a	n/a	n/a	n/a
4910057	REC_START	n/a	LTP248	ltpFR	0	6	n/a	n/a	n/a	n/a	n/a	n/a	n/a	n/a	n/a	n/a
4910091	RECOG_TARGET	n/a	LTP248	ltpFR	0	6	0	DRIVER	499	1	1	n/a	n/a	n/a	n/a	n/a
4913802	RECOG_RESP	n/a	LTP248	ltpFR	0	6	0	DRIVER	499	n/a	1	n/a	n/a	n/a	n/a	n/a
4914757	RECOG_CONF	n/a	LTP248	ltpFR	0	6	0	DRIVER	499	1	1	n/a	n/a	n/a	n/a	n/a
4916497	RECOG_TARGET	n/a	LTP248	ltpFR	0	6	0	ZOO	1637	5	1	n/a	n/a	n/a	n/a	n/a
4917412	RECOG_RESP	n/a	LTP248	ltpFR	0	6	0	ZOO	1637	n/a	1	n/a	n/a	n/a	n/a	n/a
4918256	RECOG_CONF	n/a	LTP248	ltpFR	0	6	0	ZOO	1637	5	1	n/a	n/a	n/a	n/a	n/a
4920126	RECOG_TARGET	n/a	LTP248	ltpFR	0	6	-1	CHALK	276	5	-1	n/a	n/a	n/a	n/a	n/a
4921381	RECOG_RESP	n/a	LTP248	ltpFR	0	6	-1	CHALK	276	n/a	-1	n/a	n/a	n/a	n/a	n/a
4922197	RECOG_CONF	n/a	LTP248	ltpFR	0	6	-1	CHALK	276	5	-1	n/a	n/a	n/a	n/a	n/a
4924070	RECOG_LURE	n/a	LTP248	ltpFR	0	6	n/a	RELATIVE	1182	3	n/a	n/a	n/a	n/a	n/a	n/a
4925341	RECOG_RESP	n/a	LTP248	ltpFR	0	6	n/a	RELATIVE	1182	n/a	n/a	n/a	n/a	n/a	n/a	n/a
4926026	RECOG_RESP_VV	n/a	LTP248	ltpFR	0	6	n/a	RELATIVE	1182	3	n/a	n/a	n/a	n/a	n/a	n/a
4927466	RECOG_CONF	n/a	LTP248	ltpFR	0	6	n/a	RELATIVE	1182	3	n/a	n/a	n/a	n/a	n/a	n/a
4929428	RECOG_LURE	n/a	LTP248	ltpFR	0	6	n/a	SCOUT	1252	1	n/a	n/a	n/a	n/a	n/a	n/a
4931430	RECOG_RESP	n/a	LTP248	ltpFR	0	6	n/a	SCOUT	1252	n/a	n/a	n/a	n/a	n/a	n/a	n/a
4933146	RECOG_CONF	n/a	LTP248	ltpFR	0	6	n/a	SCOUT	1252	1	n/a	n/a	n/a	n/a	n/a	n/a
4935121	RECOG_TARGET	n/a	LTP248	ltpFR	0	6	-1	VET	1560	5	-1	n/a	n/a	n/a	n/a	n/a
4937175	RECOG_RESP	n/a	LTP248	ltpFR	0	6	-1	VET	1560	n/a	-1	n/a	n/a	n/a	n/a	n/a
4938308	RECOG_CONF	n/a	LTP248	ltpFR	0	6	-1	VET	1560	5	-1	n/a	n/a	n/a	n/a	n/a
4940196	RECOG_TARGET	n/a	LTP248	ltpFR	0	6	-1	PEAR	1033	5	-1	n/a	n/a	n/a	n/a	n/a
4941124	RECOG_RESP	n/a	LTP248	ltpFR	0	6	-1	PEAR	1033	n/a	-1	n/a	n/a	n/a	n/a	n/a
4942011	RECOG_CONF	n/a	LTP248	ltpFR	0	6	-1	PEAR	1033	5	-1	n/a	n/a	n/a	n/a	n/a
4944024	RECOG_TARGET	n/a	LTP248	ltpFR	0	6	1	DAISY	435	1	1	n/a	n/a	n/a	n/a	n/a
4946434	RECOG_RESP	n/a	LTP248	ltpFR	0	6	1	DAISY	435	n/a	1	n/a	n/a	n/a	n/a	n/a
4947576	RECOG_CONF	n/a	LTP248	ltpFR	0	6	1	DAISY	435	1	1	n/a	n/a	n/a	n/a	n/a
4949100	RECOG_TARGET	n/a	LTP248	ltpFR	0	6	-1	COLUMN	350	5	-1	n/a	n/a	n/a	n/a	n/a
4949997	RECOG_RESP	n/a	LTP248	ltpFR	0	6	-1	COLUMN	350	n/a	-1	n/a	n/a	n/a	n/a	n/a
4950721	RECOG_CONF	n/a	LTP248	ltpFR	0	6	-1	COLUMN	350	5	-1	n/a	n/a	n/a	n/a	n/a
4952560	RECOG_TARGET	n/a	LTP248	ltpFR	0	6	1	HOOP	716	5	0	n/a	n/a	n/a	n/a	n/a
4954479	RECOG_RESP	n/a	LTP248	ltpFR	0	6	1	HOOP	716	n/a	0	n/a	n/a	n/a	n/a	n/a
4955365	RECOG_CONF	n/a	LTP248	ltpFR	0	6	1	HOOP	716	5	0	n/a	n/a	n/a	n/a	n/a
4957254	RECOG_TARGET	n/a	LTP248	ltpFR	0	6	1	HERD	705	5	1	n/a	n/a	n/a	n/a	n/a
4959040	RECOG_RESP	n/a	LTP248	ltpFR	0	6	1	HERD	705	n/a	1	n/a	n/a	n/a	n/a	n/a
4960003	RECOG_CONF	n/a	LTP248	ltpFR	0	6	1	HERD	705	5	1	n/a	n/a	n/a	n/a	n/a
4961913	RECOG_TARGET	n/a	LTP248	ltpFR	0	6	0	SWING	1421	5	1	n/a	n/a	n/a	n/a	n/a
4963020	RECOG_RESP	n/a	LTP248	ltpFR	0	6	0	SWING	1421	n/a	1	n/a	n/a	n/a	n/a	n/a
4964109	RECOG_CONF	n/a	LTP248	ltpFR	0	6	0	SWING	1421	5	1	n/a	n/a	n/a	n/a	n/a
4966274	RECOG_TARGET	n/a	LTP248	ltpFR	0	6	1	NEST	945	5	1	n/a	n/a	n/a	n/a	n/a
4968739	RECOG_RESP	n/a	LTP248	ltpFR	0	6	1	NEST	945	n/a	1	n/a	n/a	n/a	n/a	n/a
4969703	RECOG_CONF	n/a	LTP248	ltpFR	0	6	1	NEST	945	5	1	n/a	n/a	n/a	n/a	n/a
4971765	RECOG_TARGET	n/a	LTP248	ltpFR	0	6	1	COUNTRY	388	5	1	n/a	n/a	n/a	n/a	n/a
4972818	RECOG_RESP	n/a	LTP248	ltpFR	0	6	1	COUNTRY	388	n/a	1	n/a	n/a	n/a	n/a	n/a
4974023	RECOG_CONF	n/a	LTP248	ltpFR	0	6	1	COUNTRY	388	5	1	n/a	n/a	n/a	n/a	n/a
4976159	RECOG_TARGET	n/a	LTP248	ltpFR	0	6	1	EAGLE	512	1	1	n/a	n/a	n/a	n/a	n/a
4981445	RECOG_RESP	n/a	LTP248	ltpFR	0	6	1	EAGLE	512	n/a	1	n/a	n/a	n/a	n/a	n/a
4982609	RECOG_CONF	n/a	LTP248	ltpFR	0	6	1	EAGLE	512	1	1	n/a	n/a	n/a	n/a	n/a
4984429	RECOG_LURE	n/a	LTP248	ltpFR	0	6	n/a	WARRIOR	1589	1	n/a	n/a	n/a	n/a	n/a	n/a
4985883	RECOG_RESP	n/a	LTP248	ltpFR	0	6	n/a	WARRIOR	1589	n/a	n/a	n/a	n/a	n/a	n/a	n/a
4986984	RECOG_CONF	n/a	LTP248	ltpFR	0	6	n/a	WARRIOR	1589	1	n/a	n/a	n/a	n/a	n/a	n/a
4988906	RECOG_TARGET	n/a	LTP248	ltpFR	0	6	-1	CONTAINER	366	4	-1	n/a	n/a	n/a	n/a	n/a
4990173	RECOG_RESP	n/a	LTP248	ltpFR	0	6	-1	CONTAINER	366	n/a	-1	n/a	n/a	n/a	n/a	n/a
4991357	RECOG_CONF	n/a	LTP248	ltpFR	0	6	-1	CONTAINER	366	4	-1	n/a	n/a	n/a	n/a	n/a
4993101	RECOG_TARGET	n/a	LTP248	ltpFR	0	6	1	QUAIL	1147	2	1	n/a	n/a	n/a	n/a	n/a
4996722	RECOG_RESP	n/a	LTP248	ltpFR	0	6	1	QUAIL	1147	n/a	1	n/a	n/a	n/a	n/a	n/a
4997822	RECOG_CONF	n/a	LTP248	ltpFR	0	6	1	QUAIL	1147	2	1	n/a	n/a	n/a	n/a	n/a
4999523	RECOG_TARGET	n/a	LTP248	ltpFR	0	6	0	PERCH	1048	2	1	n/a	n/a	n/a	n/a	n/a
5001496	RECOG_RESP	n/a	LTP248	ltpFR	0	6	0	PERCH	1048	n/a	1	n/a	n/a	n/a	n/a	n/a
5002461	RECOG_CONF	n/a	LTP248	ltpFR	0	6	0	PERCH	1048	2	1	n/a	n/a	n/a	n/a	n/a
5004101	RECOG_TARGET	n/a	LTP248	ltpFR	0	6	1	CANYON	235	2	0	n/a	n/a	n/a	n/a	n/a
5005410	RECOG_RESP	n/a	LTP248	ltpFR	0	6	1	CANYON	235	n/a	0	n/a	n/a	n/a	n/a	n/a
5006486	RECOG_CONF	n/a	LTP248	ltpFR	0	6	1	CANYON	235	2	0	n/a	n/a	n/a	n/a	n/a
5010304	REC_START	n/a	LTP248	ltpFR	0	7	n/a	n/a	n/a	n/a	n/a	n/a	n/a	n/a	n/a	n/a
5010341	RECOG_TARGET	n/a	LTP248	ltpFR	0	7	-1	COTTAGE	384	5	-1	n/a	n/a	n/a	n/a	n/a
5011297	RECOG_RESP	n/a	LTP248	ltpFR	0	7	-1	COTTAGE	384	n/a	-1	n/a	n/a	n/a	n/a	n/a
5012014	RECOG_CONF	n/a	LTP248	ltpFR	0	7	-1	COTTAGE	384	5	-1	n/a	n/a	n/a	n/a	n/a
5013902	RECOG_TARGET	n/a	LTP248	ltpFR	0	7	-1	SPARROW	1347	5	-1	n/a	n/a	n/a	n/a	n/a
5014663	RECOG_RESP	n/a	LTP248	ltpFR	0	7	-1	SPARROW	1347	n/a	-1	n/a	n/a	n/a	n/a	n/a
5015838	RECOG_CONF	n/a	LTP248	ltpFR	0	7	-1	SPARROW	1347	5	-1	n/a	n/a	n/a	n/a	n/a
5017663	RECOG_TARGET	n/a	LTP248	ltpFR	0	7	-1	ALMANAC	17	5	-1	n/a	n/a	n/a	n/a	n/a
5018537	RECOG_RESP	n/a	LTP248	ltpFR	0	7	-1	ALMANAC	17	n/a	-1	n/a	n/a	n/a	n/a	n/a
5019575	RECOG_CONF	n/a	LTP248	ltpFR	0	7	-1	ALMANAC	17	5	-1	n/a	n/a	n/a	n/a	n/a
5021341	RECOG_LURE	n/a	LTP248	ltpFR	0	7	n/a	WINNER	1615	2	n/a	n/a	n/a	n/a	n/a	n/a
5023520	RECOG_RESP	n/a	LTP248	ltpFR	0	7	n/a	WINNER	1615	n/a	n/a	n/a	n/a	n/a	n/a	n/a
5024453	RECOG_CONF	n/a	LTP248	ltpFR	0	7	n/a	WINNER	1615	2	n/a	n/a	n/a	n/a	n/a	n/a
5026151	RECOG_TARGET	n/a	LTP248	ltpFR	0	7	-1	DINNER	468	1	-1	n/a	n/a	n/a	n/a	n/a
5027484	RECOG_RESP	n/a	LTP248	ltpFR	0	7	-1	DINNER	468	n/a	-1	n/a	n/a	n/a	n/a	n/a
5029999	RECOG_CONF	n/a	LTP248	ltpFR	0	7	-1	DINNER	468	1	-1	n/a	n/a	n/a	n/a	n/a
5031659	RECOG_TARGET	n/a	LTP248	ltpFR	0	7	-1	NOSE	957	2	-1	n/a	n/a	n/a	n/a	n/a
5033531	RECOG_RESP	n/a	LTP248	ltpFR	0	7	-1	NOSE	957	n/a	-1	n/a	n/a	n/a	n/a	n/a
5034528	RECOG_CONF	n/a	LTP248	ltpFR	0	7	-1	NOSE	957	2	-1	n/a	n/a	n/a	n/a	n/a
5036253	RECOG_TARGET	n/a	LTP248	ltpFR	0	7	1	KIWI	781	5	1	n/a	n/a	n/a	n/a	n/a
5037296	RECOG_RESP	n/a	LTP248	ltpFR	0	7	1	KIWI	781	n/a	1	n/a	n/a	n/a	n/a	n/a
5038217	RECOG_CONF	n/a	LTP248	ltpFR	0	7	1	KIWI	781	5	1	n/a	n/a	n/a	n/a	n/a
5040828	RECOG_TARGET	n/a	LTP248	ltpFR	0	7	0	ANIMAL	23	1	1	n/a	n/a	n/a	n/a	n/a
5042893	RECOG_RESP	n/a	LTP248	ltpFR	0	7	0	ANIMAL	23	n/a	1	n/a	n/a	n/a	n/a	n/a
5043847	RECOG_CONF	n/a	LTP248	ltpFR	0	7	0	ANIMAL	23	1	1	n/a	n/a	n/a	n/a	n/a
5045588	RECOG_TARGET	n/a	LTP248	ltpFR	0	7	1	ARTERY	41	5	1	n/a	n/a	n/a	n/a	n/a
5046488	RECOG_RESP	n/a	LTP248	ltpFR	0	7	1	ARTERY	41	n/a	1	n/a	n/a	n/a	n/a	n/a
5047209	RECOG_CONF	n/a	LTP248	ltpFR	0	7	1	ARTERY	41	5	1	n/a	n/a	n/a	n/a	n/a
5049316	RECOG_TARGET	n/a	LTP248	ltpFR	0	7	1	PATIO	1025	5	1	n/a	n/a	n/a	n/a	n/a
5050394	RECOG_RESP	n/a	LTP248	ltpFR	0	7	1	PATIO	1025	n/a	1	n/a	n/a	n/a	n/a	n/a
5051527	RECOG_CONF	n/a	LTP248	ltpFR	0	7	1	PATIO	1025	5	1	n/a	n/a	n/a	n/a	n/a
5053343	RECOG_TARGET	n/a	LTP248	ltpFR	0	7	0	SCENERY	1247	2	0	n/a	n/a	n/a	n/a	n/a
5054886	RECOG_RESP	n/a	LTP248	ltpFR	0	7	0	SCENERY	1247	n/a	0	n/a	n/a	n/a	n/a	n/a
5055886	RECOG_CONF	n/a	LTP248	ltpFR	0	7	0	SCENERY	1247	2	0	n/a	n/a	n/a	n/a	n/a
5057670	RECOG_TARGET	n/a	LTP248	ltpFR	0	7	1	BASKETBALL	96	5	0	n/a	n/a	n/a	n/a	n/a
5059112	RECOG_RESP_VV	n/a	LTP248	ltpFR	0	7	1	BASKETBALL	96	n/a	0	n/a	n/a	n/a	n/a	n/a
5059683	RECOG_RESP	n/a	LTP248	ltpFR	0	7	1	BASKETBALL	96	n/a	0	n/a	n/a	n/a	n/a	n/a
5061223	RECOG_CONF	n/a	LTP248	ltpFR	0	7	1	BASKETBALL	96	5	0	n/a	n/a	n/a	n/a	n/a
5063246	RECOG_TARGET	n/a	LTP248	ltpFR	0	7	0	MARKET	871	5	1	n/a	n/a	n/a	n/a	n/a
