onset	duration	trial_type	sample	stim_file	subject	experiment	session	trial	task	item_name	item_num	recog_resp	recog_conf	resp	color_r	color_g	color_b	case	font
313.948	n/a	SESS_START	156974	n/a	LTP288	ltpFR	1	n/a	n/a	n/a	n/a	1	3	n/a	n/a	n/a	n/a	n/a	n/a
396.262	n/a	WORD	198131	wordpools/wasnorm_wordpool_less_exclusions.txt	LTP288	ltpFR	1	1	0	WASHCLOTH	1591	0	n/a	0	0.57763671875	0.412841796875	1	upper	amplitud.ttf
400.306	n/a	WORD	200153	wordpools/wasnorm_wordpool_less_exclusions.txt	LTP288	ltpFR	1	1	0	DICTATOR	462	n/a	n/a	1	0.57763671875	0.412841796875	1	upper	amplitud.ttf
404.234	n/a	WORD	202117	wordpools/wasnorm_wordpool_less_exclusions.txt	LTP288	ltpFR	1	1	0	TIGER	1467	n/a	n/a	1	0.57763671875	0.412841796875	1	upper	amplitud.ttf
408.262	n/a	WORD	204131	wordpools/wasnorm_wordpool_less_exclusions.txt	LTP288	ltpFR	1	1	0	OAR	966	n/a	n/a	1	0.57763671875	0.412841796875	1	upper	amplitud.ttf
412.172	n/a	WORD	206086	wordpools/wasnorm_wordpool_less_exclusions.txt	LTP288	ltpFR	1	1	1	RIVER	1194	n/a	n/a	0	0.422607421875	0.5869140625	0	lower	zerothre.ttf
416.35	n/a	WORD	208175	wordpools/wasnorm_wordpool_less_exclusions.txt	LTP288	ltpFR	1	1	1	SERGEANT	1269	n/a	n/a	1	0.422607421875	0.5869140625	0	lower	zerothre.ttf
420.426	n/a	WORD	210213	wordpools/wasnorm_wordpool_less_exclusions.txt	LTP288	ltpFR	1	1	1	RADISH	1158	n/a	n/a	0	0.422607421875	0.5869140625	0	lower	zerothre.ttf
424.304	n/a	WORD	212152	wordpools/wasnorm_wordpool_less_exclusions.txt	LTP288	ltpFR	1	1	1	BEAVER	109	n/a	n/a	1	0.422607421875	0.5869140625	0	lower	zerothre.ttf
428.298	n/a	WORD	214149	wordpools/wasnorm_wordpool_less_exclusions.txt	LTP288	ltpFR	1	1	1	TREE	1502	n/a	n/a	1	0.422607421875	0.5869140625	0	lower	zerothre.ttf
432.192	n/a	WORD	216096	wordpools/wasnorm_wordpool_less_exclusions.txt	LTP288	ltpFR	1	1	1	MAJOR	859	n/a	n/a	1	0.422607421875	0.5869140625	0	lower	zerothre.ttf
436.37	n/a	WORD	218185	wordpools/wasnorm_wordpool_less_exclusions.txt	LTP288	ltpFR	1	1	0	SIDEWALK	1303	n/a	n/a	1	0.57763671875	0.412841796875	1	upper	amplitud.ttf
440.398	n/a	WORD	220199	wordpools/wasnorm_wordpool_less_exclusions.txt	LTP288	ltpFR	1	1	0	STREET	1393	n/a	n/a	1	0.57763671875	0.412841796875	1	upper	amplitud.ttf
444.54	n/a	WORD	222270	wordpools/wasnorm_wordpool_less_exclusions.txt	LTP288	ltpFR	1	1	0	HUMAN	726	n/a	n/a	1	0.57763671875	0.412841796875	1	upper	amplitud.ttf
448.418	n/a	WORD	224209	wordpools/wasnorm_wordpool_less_exclusions.txt	LTP288	ltpFR	1	1	0	FIG	563	n/a	n/a	0	0.57763671875	0.412841796875	1	upper	amplitud.ttf
452.262	n/a	WORD	226131	wordpools/wasnorm_wordpool_less_exclusions.txt	LTP288	ltpFR	1	1	1	MUG	930	n/a	n/a	0	0.422607421875	0.5869140625	0	lower	zerothre.ttf
456.156	n/a	WORD	228078	wordpools/wasnorm_wordpool_less_exclusions.txt	LTP288	ltpFR	1	1	1	WINE	1613	n/a	n/a	0	0.422607421875	0.5869140625	0	lower	zerothre.ttf
461.798	n/a	REC_START	230899	n/a	LTP288	ltpFR	1	1	n/a	n/a	n/a	n/a	n/a	n/a	n/a	n/a	n/a	n/a	n/a
462.484	n/a	REC_WORD	231242	wordpools/wasnorm_wordpool_less_exclusions.txt	LTP288	ltpFR	1	1	0	SIDEWALK	1303	n/a	n/a	1	n/a	n/a	n/a	n/a	n/a
463.398	n/a	REC_WORD	231699	wordpools/wasnorm_wordpool_less_exclusions.txt	LTP288	ltpFR	1	1	0	STREET	1393	n/a	n/a	1	n/a	n/a	n/a	n/a	n/a
464.37	n/a	REC_WORD	232185	wordpools/wasnorm_wordpool_less_exclusions.txt	LTP288	ltpFR	1	1	0	HUMAN	726	n/a	n/a	1	n/a	n/a	n/a	n/a	n/a
465.078	n/a	REC_WORD	232539	wordpools/wasnorm_wordpool_less_exclusions.txt	LTP288	ltpFR	1	1	0	FIG	563	n/a	n/a	0	n/a	n/a	n/a	n/a	n/a
466.136	n/a	REC_WORD	233068	wordpools/wasnorm_wordpool_less_exclusions.txt	LTP288	ltpFR	1	1	1	MUG	930	n/a	n/a	0	n/a	n/a	n/a	n/a	n/a
467.016	n/a	REC_WORD	233508	wordpools/wasnorm_wordpool_less_exclusions.txt	LTP288	ltpFR	1	1	1	WINE	1613	n/a	n/a	0	n/a	n/a	n/a	n/a	n/a
468.4	n/a	REC_WORD	234200	wordpools/wasnorm_wordpool_less_exclusions.txt	LTP288	ltpFR	1	1	1	SERGEANT	1269	n/a	n/a	1	n/a	n/a	n/a	n/a	n/a
469.572	n/a	REC_WORD	234786	wordpools/wasnorm_wordpool_less_exclusions.txt	LTP288	ltpFR	1	1	1	BEAVER	109	n/a	n/a	1	n/a	n/a	n/a	n/a	n/a
471.63	n/a	REC_WORD	235815	wordpools/wasnorm_wordpool_less_exclusions.txt	LTP288	ltpFR	1	1	1	RADISH	1158	n/a	n/a	0	n/a	n/a	n/a	n/a	n/a
478.19	n/a	REC_WORD	239095	wordpools/wasnorm_wordpool_less_exclusions.txt	LTP288	ltpFR	1	1	1	TREE	1502	n/a	n/a	1	n/a	n/a	n/a	n/a	n/a
548.736	n/a	WORD	274368	wordpools/wasnorm_wordpool_less_exclusions.txt	LTP288	ltpFR	1	2	1	STEM	1376	n/a	n/a	0	0.422607421875	0.5869140625	0	lower	zerothre.ttf
552.63	n/a	WORD	276315	wordpools/wasnorm_wordpool_less_exclusions.txt	LTP288	ltpFR	1	2	1	PIANO	1057	n/a	n/a	0	0.422607421875	0.5869140625	0	lower	zerothre.ttf
556.692	n/a	WORD	278346	wordpools/wasnorm_wordpool_less_exclusions.txt	LTP288	ltpFR	1	2	1	AGENT	10	n/a	n/a	1	0.422607421875	0.5869140625	0	lower	zerothre.ttf
560.618	n/a	WORD	280309	wordpools/wasnorm_wordpool_less_exclusions.txt	LTP288	ltpFR	1	2	1	METEOR	889	n/a	n/a	0	0.422607421875	0.5869140625	0	lower	zerothre.ttf
564.646	n/a	WORD	282323	wordpools/wasnorm_wordpool_less_exclusions.txt	LTP288	ltpFR	1	2	1	BRACES	164	n/a	n/a	0	0.422607421875	0.5869140625	0	lower	zerothre.ttf
568.74	n/a	WORD	284370	wordpools/wasnorm_wordpool_less_exclusions.txt	LTP288	ltpFR	1	2	0	TONGUE	1479	n/a	n/a	0	0.57763671875	0.412841796875	1	upper	amplitud.ttf
572.634	n/a	WORD	286317	wordpools/wasnorm_wordpool_less_exclusions.txt	LTP288	ltpFR	1	2	0	SILVERWARE	1308	n/a	n/a	0	0.57763671875	0.412841796875	1	upper	amplitud.ttf
576.644	n/a	WORD	288322	wordpools/wasnorm_wordpool_less_exclusions.txt	LTP288	ltpFR	1	2	0	WAITRESS	1581	n/a	n/a	1	0.57763671875	0.412841796875	1	upper	amplitud.ttf
580.806	n/a	WORD	290403	wordpools/wasnorm_wordpool_less_exclusions.txt	LTP288	ltpFR	1	2	0	FOLDER	588	n/a	n/a	0	0.57763671875	0.412841796875	1	upper	amplitud.ttf
584.898	n/a	WORD	292449	wordpools/wasnorm_wordpool_less_exclusions.txt	LTP288	ltpFR	1	2	0	LADY	794	n/a	n/a	1	0.57763671875	0.412841796875	1	upper	amplitud.ttf
588.892	n/a	WORD	294446	wordpools/wasnorm_wordpool_less_exclusions.txt	LTP288	ltpFR	1	2	1	WITNESS	1618	n/a	n/a	1	0.422607421875	0.5869140625	0	lower	zerothre.ttf
592.904	n/a	WORD	296452	wordpools/wasnorm_wordpool_less_exclusions.txt	LTP288	ltpFR	1	2	1	GAVEL	627	n/a	n/a	0	0.422607421875	0.5869140625	0	lower	zerothre.ttf
597.03	n/a	WORD	298515	wordpools/wasnorm_wordpool_less_exclusions.txt	LTP288	ltpFR	1	2	1	CREVICE	405	n/a	n/a	0	0.422607421875	0.5869140625	0	lower	zerothre.ttf
601.092	n/a	WORD	300546	wordpools/wasnorm_wordpool_less_exclusions.txt	LTP288	ltpFR	1	2	0	TWEEZERS	1526	n/a	n/a	0	0.57763671875	0.412841796875	1	upper	amplitud.ttf
605.068	n/a	WORD	302534	wordpools/wasnorm_wordpool_less_exclusions.txt	LTP288	ltpFR	1	2	0	PUBLICATION	1136	n/a	n/a	0	0.57763671875	0.412841796875	1	upper	amplitud.ttf
608.964	n/a	WORD	304482	wordpools/wasnorm_wordpool_less_exclusions.txt	LTP288	ltpFR	1	2	0	TURNIP	1521	n/a	n/a	0	0.57763671875	0.412841796875	1	upper	amplitud.ttf
614.888	n/a	REC_START	307444	n/a	LTP288	ltpFR	1	2	n/a	n/a	n/a	n/a	n/a	n/a	n/a	n/a	n/a	n/a	n/a
616.122	n/a	REC_WORD	308061	wordpools/wasnorm_wordpool_less_exclusions.txt	LTP288	ltpFR	1	2	0	TWEEZERS	1526	n/a	n/a	0	n/a	n/a	n/a	n/a	n/a
616.818	n/a	REC_WORD	308409	wordpools/wasnorm_wordpool_less_exclusions.txt	LTP288	ltpFR	1	2	0	PUBLICATION	1136	n/a	n/a	0	n/a	n/a	n/a	n/a	n/a
617.912	n/a	REC_WORD	308956	wordpools/wasnorm_wordpool_less_exclusions.txt	LTP288	ltpFR	1	2	0	TURNIP	1521	n/a	n/a	0	n/a	n/a	n/a	n/a	n/a
618.804	n/a	REC_WORD	309402	wordpools/wasnorm_wordpool_less_exclusions.txt	LTP288	ltpFR	1	2	1	GAVEL	627	n/a	n/a	0	n/a	n/a	n/a	n/a	n/a
619.6	n/a	REC_WORD	309800	wordpools/wasnorm_wordpool_less_exclusions.txt	LTP288	ltpFR	1	2	1	WITNESS	1618	n/a	n/a	1	n/a	n/a	n/a	n/a	n/a
621.256	n/a	REC_WORD	310628	wordpools/wasnorm_wordpool_less_exclusions.txt	LTP288	ltpFR	1	2	0	LADY	794	n/a	n/a	1	n/a	n/a	n/a	n/a	n/a
626.034	n/a	REC_WORD	313017	wordpools/wasnorm_wordpool_less_exclusions.txt	LTP288	ltpFR	1	2	0	WAITRESS	1581	n/a	n/a	1	n/a	n/a	n/a	n/a	n/a
630.746	n/a	REC_WORD	315373	wordpools/wasnorm_wordpool_less_exclusions.txt	LTP288	ltpFR	1	2	1	CREVICE	405	n/a	n/a	0	n/a	n/a	n/a	n/a	n/a
639.752	n/a	REC_WORD	319876	wordpools/wasnorm_wordpool_less_exclusions.txt	LTP288	ltpFR	1	2	1	PIANO	1057	n/a	n/a	0	n/a	n/a	n/a	n/a	n/a
640.802	n/a	REC_WORD	320401	wordpools/wasnorm_wordpool_less_exclusions.txt	LTP288	ltpFR	1	2	1	BRACES	164	n/a	n/a	0	n/a	n/a	n/a	n/a	n/a
649.346	n/a	REC_WORD	324673	wordpools/wasnorm_wordpool_less_exclusions.txt	LTP288	ltpFR	1	2	0	PUBLICATION	1136	n/a	n/a	0	n/a	n/a	n/a	n/a	n/a
666.55	n/a	REC_WORD	333275	wordpools/wasnorm_wordpool_less_exclusions.txt	LTP288	ltpFR	1	2	1	WITNESS	1618	n/a	n/a	1	n/a	n/a	n/a	n/a	n/a
704.39	n/a	WORD	352195	wordpools/wasnorm_wordpool_less_exclusions.txt	LTP288	ltpFR	1	3	-1	VET	1560	n/a	n/a	-1	1.0	1.0	1	upper	Verdana.ttf
708.5	n/a	WORD	354250	wordpools/wasnorm_wordpool_less_exclusions.txt	LTP288	ltpFR	1	3	-1	MONGOOSE	909	n/a	n/a	-1	1.0	1.0	1	upper	Verdana.ttf
712.528	n/a	WORD	356264	wordpools/wasnorm_wordpool_less_exclusions.txt	LTP288	ltpFR	1	3	-1	ASSISTANT	48	n/a	n/a	-1	1.0	1.0	1	upper	Verdana.ttf
716.438	n/a	WORD	358219	wordpools/wasnorm_wordpool_less_exclusions.txt	LTP288	ltpFR	1	3	-1	SATURN	1236	n/a	n/a	-1	1.0	1.0	1	upper	Verdana.ttf
720.614	n/a	WORD	360307	wordpools/wasnorm_wordpool_less_exclusions.txt	LTP288	ltpFR	1	3	-1	SNORKEL	1336	n/a	n/a	-1	1.0	1.0	1	upper	Verdana.ttf
724.492	n/a	WORD	362246	wordpools/wasnorm_wordpool_less_exclusions.txt	LTP288	ltpFR	1	3	-1	CANOE	233	n/a	n/a	-1	1.0	1.0	1	upper	Verdana.ttf
728.57	n/a	WORD	364285	wordpools/wasnorm_wordpool_less_exclusions.txt	LTP288	ltpFR	1	3	-1	DOG	480	n/a	n/a	-1	1.0	1.0	1	upper	Verdana.ttf
732.764	n/a	WORD	366382	wordpools/wasnorm_wordpool_less_exclusions.txt	LTP288	ltpFR	1	3	-1	THRONE	1461	n/a	n/a	-1	1.0	1.0	1	upper	Verdana.ttf
736.608	n/a	WORD	368304	wordpools/wasnorm_wordpool_less_exclusions.txt	LTP288	ltpFR	1	3	-1	BATTERY	101	n/a	n/a	-1	1.0	1.0	1	upper	Verdana.ttf
740.486	n/a	WORD	370243	wordpools/wasnorm_wordpool_less_exclusions.txt	LTP288	ltpFR	1	3	-1	SURF	1412	n/a	n/a	-1	1.0	1.0	1	upper	Verdana.ttf
744.562	n/a	WORD	372281	wordpools/wasnorm_wordpool_less_exclusions.txt	LTP288	ltpFR	1	3	-1	PAIL	1002	n/a	n/a	-1	1.0	1.0	1	upper	Verdana.ttf
748.524	n/a	WORD	374262	wordpools/wasnorm_wordpool_less_exclusions.txt	LTP288	ltpFR	1	3	-1	ZOO	1637	n/a	n/a	-1	1.0	1.0	1	upper	Verdana.ttf
752.402	n/a	WORD	376201	wordpools/wasnorm_wordpool_less_exclusions.txt	LTP288	ltpFR	1	3	-1	KNOB	787	n/a	n/a	-1	1.0	1.0	1	upper	Verdana.ttf
756.346	n/a	WORD	378173	wordpools/wasnorm_wordpool_less_exclusions.txt	LTP288	ltpFR	1	3	-1	LOCK	838	n/a	n/a	-1	1.0	1.0	1	upper	Verdana.ttf
760.538	n/a	WORD	380269	wordpools/wasnorm_wordpool_less_exclusions.txt	LTP288	ltpFR	1	3	-1	PLASTER	1085	n/a	n/a	-1	1.0	1.0	1	upper	Verdana.ttf
764.65	n/a	WORD	382325	wordpools/wasnorm_wordpool_less_exclusions.txt	LTP288	ltpFR	1	3	-1	TELEPHONE	1445	n/a	n/a	-1	1.0	1.0	1	upper	Verdana.ttf
770.608	n/a	REC_START	385304	n/a	LTP288	ltpFR	1	3	n/a	n/a	n/a	n/a	n/a	n/a	n/a	n/a	n/a	n/a	n/a
772.204	n/a	REC_WORD	386102	wordpools/wasnorm_wordpool_less_exclusions.txt	LTP288	ltpFR	1	3	-1	LOCK	838	n/a	n/a	-1	n/a	n/a	n/a	n/a	n/a
773.002	n/a	REC_WORD	386501	wordpools/wasnorm_wordpool_less_exclusions.txt	LTP288	ltpFR	1	3	-1	PLASTER	1085	n/a	n/a	-1	n/a	n/a	n/a	n/a	n/a
774.0	n/a	REC_WORD	387000	wordpools/wasnorm_wordpool_less_exclusions.txt	LTP288	ltpFR	1	3	-1	TELEPHONE	1445	n/a	n/a	-1	n/a	n/a	n/a	n/a	n/a
774.988	n/a	REC_WORD	387494	wordpools/wasnorm_wordpool_less_exclusions.txt	LTP288	ltpFR	1	3	-1	SURF	1412	n/a	n/a	-1	n/a	n/a	n/a	n/a	n/a
775.966	n/a	REC_WORD	387983	wordpools/wasnorm_wordpool_less_exclusions.txt	LTP288	ltpFR	1	3	-1	PAIL	1002	n/a	n/a	-1	n/a	n/a	n/a	n/a	n/a
777.066	n/a	REC_WORD	388533	wordpools/wasnorm_wordpool_less_exclusions.txt	LTP288	ltpFR	1	3	-1	ZOO	1637	n/a	n/a	-1	n/a	n/a	n/a	n/a	n/a
778.07	n/a	REC_WORD	389035	wordpools/wasnorm_wordpool_less_exclusions.txt	LTP288	ltpFR	1	3	-1	KNOB	787	n/a	n/a	-1	n/a	n/a	n/a	n/a	n/a
778.932	n/a	REC_WORD	389466	wordpools/wasnorm_wordpool_less_exclusions.txt	LTP288	ltpFR	1	3	-1	MONGOOSE	909	n/a	n/a	-1	n/a	n/a	n/a	n/a	n/a
780.908	n/a	REC_WORD	390454	wordpools/wasnorm_wordpool_less_exclusions.txt	LTP288	ltpFR	1	3	-1	SATURN	1236	n/a	n/a	-1	n/a	n/a	n/a	n/a	n/a
781.764	n/a	REC_WORD	390882	wordpools/wasnorm_wordpool_less_exclusions.txt	LTP288	ltpFR	1	3	-1	CANOE	233	n/a	n/a	-1	n/a	n/a	n/a	n/a	n/a
802.048	n/a	REC_WORD	401024	wordpools/wasnorm_wordpool_less_exclusions.txt	LTP288	ltpFR	1	3	-1	DOG	480	n/a	n/a	-1	n/a	n/a	n/a	n/a	n/a
866.05	n/a	WORD	433025	wordpools/wasnorm_wordpool_less_exclusions.txt	LTP288	ltpFR	1	4	0	ANTELOPE	27	n/a	n/a	1	0.57763671875	0.412841796875	1	upper	amplitud.ttf
870.028	n/a	WORD	435014	wordpools/wasnorm_wordpool_less_exclusions.txt	LTP288	ltpFR	1	4	0	LABYRINTH	791	n/a	n/a	1	0.57763671875	0.412841796875	1	upper	amplitud.ttf
874.138	n/a	WORD	437069	wordpools/wasnorm_wordpool_less_exclusions.txt	LTP288	ltpFR	1	4	1	UNIFORM	1539	n/a	n/a	0	0.422607421875	0.5869140625	0	lower	zerothre.ttf
878.35	n/a	WORD	439175	wordpools/wasnorm_wordpool_less_exclusions.txt	LTP288	ltpFR	1	4	1	POLYESTER	1100	n/a	n/a	0	0.422607421875	0.5869140625	0	lower	zerothre.ttf
882.508	n/a	WORD	441254	wordpools/wasnorm_wordpool_less_exclusions.txt	LTP288	ltpFR	1	4	0	POPE	1105	n/a	n/a	1	0.57763671875	0.412841796875	1	upper	amplitud.ttf
886.602	n/a	WORD	443301	wordpools/wasnorm_wordpool_less_exclusions.txt	LTP288	ltpFR	1	4	0	AFRICA	9	n/a	n/a	1	0.57763671875	0.412841796875	1	upper	amplitud.ttf
890.83	n/a	WORD	445415	wordpools/wasnorm_wordpool_less_exclusions.txt	LTP288	ltpFR	1	4	1	STALLION	1369	n/a	n/a	1	0.422607421875	0.5869140625	0	lower	zerothre.ttf
894.99	n/a	WORD	447495	wordpools/wasnorm_wordpool_less_exclusions.txt	LTP288	ltpFR	1	4	1	ACTOR	5	n/a	n/a	1	0.422607421875	0.5869140625	0	lower	zerothre.ttf
898.984	n/a	WORD	449492	wordpools/wasnorm_wordpool_less_exclusions.txt	LTP288	ltpFR	1	4	1	SEAL	1262	n/a	n/a	1	0.422607421875	0.5869140625	0	lower	zerothre.ttf
902.978	n/a	WORD	451489	wordpools/wasnorm_wordpool_less_exclusions.txt	LTP288	ltpFR	1	4	1	BINDER	127	n/a	n/a	0	0.422607421875	0.5869140625	0	lower	zerothre.ttf
906.988	n/a	WORD	453494	wordpools/wasnorm_wordpool_less_exclusions.txt	LTP288	ltpFR	1	4	1	LITERATURE	831	n/a	n/a	0	0.422607421875	0.5869140625	0	lower	zerothre.ttf
911.166	n/a	WORD	455583	wordpools/wasnorm_wordpool_less_exclusions.txt	LTP288	ltpFR	1	4	1	OX	994	n/a	n/a	1	0.422607421875	0.5869140625	0	lower	zerothre.ttf
915.178	n/a	WORD	457589	wordpools/wasnorm_wordpool_less_exclusions.txt	LTP288	ltpFR	1	4	0	WORM	1623	n/a	n/a	0	0.57763671875	0.412841796875	1	upper	amplitud.ttf
919.138	n/a	WORD	459569	wordpools/wasnorm_wordpool_less_exclusions.txt	LTP288	ltpFR	1	4	0	FISH	571	n/a	n/a	0	0.57763671875	0.412841796875	1	upper	amplitud.ttf
923.032	n/a	WORD	461516	wordpools/wasnorm_wordpool_less_exclusions.txt	LTP288	ltpFR	1	4	0	CHARCOAL	281	n/a	n/a	0	0.57763671875	0.412841796875	1	upper	amplitud.ttf
927.11	n/a	WORD	463555	wordpools/wasnorm_wordpool_less_exclusions.txt	LTP288	ltpFR	1	4	0	HORSE	719	n/a	n/a	1	0.57763671875	0.412841796875	1	upper	amplitud.ttf
932.902	n/a	REC_START	466451	n/a	LTP288	ltpFR	1	4	n/a	n/a	n/a	n/a	n/a	n/a	n/a	n/a	n/a	n/a	n/a
933.626	n/a	REC_WORD	466813	wordpools/wasnorm_wordpool_less_exclusions.txt	LTP288	ltpFR	1	4	1	OX	994	n/a	n/a	1	n/a	n/a	n/a	n/a	n/a
934.254	n/a	REC_WORD	467127	wordpools/wasnorm_wordpool_less_exclusions.txt	LTP288	ltpFR	1	4	0	WORM	1623	n/a	n/a	0	n/a	n/a	n/a	n/a	n/a
934.874	n/a	REC_WORD	467437	wordpools/wasnorm_wordpool_less_exclusions.txt	LTP288	ltpFR	1	4	0	FISH	571	n/a	n/a	0	n/a	n/a	n/a	n/a	n/a
935.686	n/a	REC_WORD	467843	wordpools/wasnorm_wordpool_less_exclusions.txt	LTP288	ltpFR	1	4	0	CHARCOAL	281	n/a	n/a	0	n/a	n/a	n/a	n/a	n/a
936.39	n/a	REC_WORD	468195	wordpools/wasnorm_wordpool_less_exclusions.txt	LTP288	ltpFR	1	4	0	HORSE	719	n/a	n/a	1	n/a	n/a	n/a	n/a	n/a
938.102	n/a	REC_WORD	469051	wordpools/wasnorm_wordpool_less_exclusions.txt	LTP288	ltpFR	1	4	0	LABYRINTH	791	n/a	n/a	1	n/a	n/a	n/a	n/a	n/a
955.012	n/a	REC_WORD	477506	wordpools/wasnorm_wordpool_less_exclusions.txt	LTP288	ltpFR	1	4	1	STALLION	1369	n/a	n/a	1	n/a	n/a	n/a	n/a	n/a
957.588	n/a	REC_WORD	478794	wordpools/wasnorm_wordpool_less_exclusions.txt	LTP288	ltpFR	1	4	1	SEAL	1262	n/a	n/a	1	n/a	n/a	n/a	n/a	n/a
995.782	n/a	REC_WORD	497891	wordpools/wasnorm_wordpool_less_exclusions.txt	LTP288	ltpFR	1	4	0	CHARCOAL	281	n/a	n/a	0	n/a	n/a	n/a	n/a	n/a
1028.244	n/a	WORD	514122	wordpools/wasnorm_wordpool_less_exclusions.txt	LTP288	ltpFR	1	5	1	GOOSE	649	n/a	n/a	1	0.422607421875	0.5869140625	0	lower	zerothre.ttf
1032.172	n/a	WORD	516086	wordpools/wasnorm_wordpool_less_exclusions.txt	LTP288	ltpFR	1	5	1	FREEWAY	603	n/a	n/a	0	0.422607421875	0.5869140625	0	lower	zerothre.ttf
1036.014	n/a	WORD	518007	wordpools/wasnorm_wordpool_less_exclusions.txt	LTP288	ltpFR	1	5	1	STEP	1377	n/a	n/a	0	0.422607421875	0.5869140625	0	lower	zerothre.ttf
1039.892	n/a	WORD	519946	wordpools/wasnorm_wordpool_less_exclusions.txt	LTP288	ltpFR	1	5	1	PALM	1007	n/a	n/a	0	0.422607421875	0.5869140625	0	lower	zerothre.ttf
1044.052	n/a	WORD	522026	wordpools/wasnorm_wordpool_less_exclusions.txt	LTP288	ltpFR	1	5	1	CANDIDATE	228	n/a	n/a	1	0.422607421875	0.5869140625	0	lower	zerothre.ttf
1047.964	n/a	WORD	523982	wordpools/wasnorm_wordpool_less_exclusions.txt	LTP288	ltpFR	1	5	1	SENATOR	1268	n/a	n/a	1	0.422607421875	0.5869140625	0	lower	zerothre.ttf
1051.84	n/a	WORD	525920	wordpools/wasnorm_wordpool_less_exclusions.txt	LTP288	ltpFR	1	5	1	SANDPAPER	1231	n/a	n/a	0	0.422607421875	0.5869140625	0	lower	zerothre.ttf
1055.768	n/a	WORD	527884	wordpools/wasnorm_wordpool_less_exclusions.txt	LTP288	ltpFR	1	5	1	CONCRETE	361	n/a	n/a	0	0.422607421875	0.5869140625	0	lower	zerothre.ttf
1059.796	n/a	WORD	529898	wordpools/wasnorm_wordpool_less_exclusions.txt	LTP288	ltpFR	1	5	1	DUCK	504	n/a	n/a	1	0.422607421875	0.5869140625	0	lower	zerothre.ttf
1063.756	n/a	WORD	531878	wordpools/wasnorm_wordpool_less_exclusions.txt	LTP288	ltpFR	1	5	1	FINGERNAIL	568	n/a	n/a	0	0.422607421875	0.5869140625	0	lower	zerothre.ttf
1067.768	n/a	WORD	533884	wordpools/wasnorm_wordpool_less_exclusions.txt	LTP288	ltpFR	1	5	1	BRIDE	173	n/a	n/a	1	0.422607421875	0.5869140625	0	lower	zerothre.ttf
1071.928	n/a	WORD	535964	wordpools/wasnorm_wordpool_less_exclusions.txt	LTP288	ltpFR	1	5	1	THUMB	1462	n/a	n/a	0	0.422607421875	0.5869140625	0	lower	zerothre.ttf
1075.872	n/a	WORD	537936	wordpools/wasnorm_wordpool_less_exclusions.txt	LTP288	ltpFR	1	5	1	HIKER	708	n/a	n/a	1	0.422607421875	0.5869140625	0	lower	zerothre.ttf
1079.884	n/a	WORD	539942	wordpools/wasnorm_wordpool_less_exclusions.txt	LTP288	ltpFR	1	5	1	PERISCOPE	1050	n/a	n/a	0	0.422607421875	0.5869140625	0	lower	zerothre.ttf
1084.028	n/a	WORD	542014	wordpools/wasnorm_wordpool_less_exclusions.txt	LTP288	ltpFR	1	5	1	PATIO	1025	n/a	n/a	0	0.422607421875	0.5869140625	0	lower	zerothre.ttf
1088.022	n/a	WORD	544011	wordpools/wasnorm_wordpool_less_exclusions.txt	LTP288	ltpFR	1	5	1	CHAIR	274	n/a	n/a	0	0.422607421875	0.5869140625	0	lower	zerothre.ttf
1094.148	n/a	REC_START	547074	n/a	LTP288	ltpFR	1	5	n/a	n/a	n/a	n/a	n/a	n/a	n/a	n/a	n/a	n/a	n/a
1094.892	n/a	REC_WORD	547446	wordpools/wasnorm_wordpool_less_exclusions.txt	LTP288	ltpFR	1	5	1	PERISCOPE	1050	n/a	n/a	0	n/a	n/a	n/a	n/a	n/a
1095.638	n/a	REC_WORD	547819	wordpools/wasnorm_wordpool_less_exclusions.txt	LTP288	ltpFR	1	5	1	PATIO	1025	n/a	n/a	0	n/a	n/a	n/a	n/a	n/a
1096.492	n/a	REC_WORD	548246	wordpools/wasnorm_wordpool_less_exclusions.txt	LTP288	ltpFR	1	5	1	CHAIR	274	n/a	n/a	0	n/a	n/a	n/a	n/a	n/a
1097.318	n/a	REC_WORD	548659	wordpools/wasnorm_wordpool_less_exclusions.txt	LTP288	ltpFR	1	5	1	DUCK	504	n/a	n/a	1	n/a	n/a	n/a	n/a	n/a
1098.192	n/a	REC_WORD	549096	wordpools/wasnorm_wordpool_less_exclusions.txt	LTP288	ltpFR	1	5	1	BRIDE	173	n/a	n/a	1	n/a	n/a	n/a	n/a	n/a
1101.46	n/a	REC_WORD	550730	wordpools/wasnorm_wordpool_less_exclusions.txt	LTP288	ltpFR	1	5	1	HIKER	708	n/a	n/a	1	n/a	n/a	n/a	n/a	n/a
1123.728	n/a	REC_WORD	561864	wordpools/wasnorm_wordpool_less_exclusions.txt	LTP288	ltpFR	1	5	1	PALM	1007	n/a	n/a	0	n/a	n/a	n/a	n/a	n/a
1124.882	n/a	REC_WORD	562441	wordpools/wasnorm_wordpool_less_exclusions.txt	LTP288	ltpFR	1	5	1	FINGERNAIL	568	n/a	n/a	0	n/a	n/a	n/a	n/a	n/a
1125.954	n/a	REC_WORD	562977	wordpools/wasnorm_wordpool_less_exclusions.txt	LTP288	ltpFR	1	5	1	THUMB	1462	n/a	n/a	0	n/a	n/a	n/a	n/a	n/a
1199.34	n/a	WORD	599670	wordpools/wasnorm_wordpool_less_exclusions.txt	LTP288	ltpFR	1	6	-1	VALLEY	1545	n/a	n/a	-1	1.0	1.0	1	upper	Verdana.ttf
1203.318	n/a	WORD	601659	wordpools/wasnorm_wordpool_less_exclusions.txt	LTP288	ltpFR	1	6	-1	HALL	677	n/a	n/a	-1	1.0	1.0	1	upper	Verdana.ttf
1207.528	n/a	WORD	603764	wordpools/wasnorm_wordpool_less_exclusions.txt	LTP288	ltpFR	1	6	-1	JAR	750	n/a	n/a	-1	1.0	1.0	1	upper	Verdana.ttf
1211.504	n/a	WORD	605752	wordpools/wasnorm_wordpool_less_exclusions.txt	LTP288	ltpFR	1	6	-1	PIRATE	1074	n/a	n/a	-1	1.0	1.0	1	upper	Verdana.ttf
1215.416	n/a	WORD	607708	wordpools/wasnorm_wordpool_less_exclusions.txt	LTP288	ltpFR	1	6	-1	DECK	443	n/a	n/a	-1	1.0	1.0	1	upper	Verdana.ttf
1219.246	n/a	WORD	609623	wordpools/wasnorm_wordpool_less_exclusions.txt	LTP288	ltpFR	1	6	-1	CHAMBER	277	n/a	n/a	-1	1.0	1.0	1	upper	Verdana.ttf
1223.156	n/a	WORD	611578	wordpools/wasnorm_wordpool_less_exclusions.txt	LTP288	ltpFR	1	6	-1	LEG	809	n/a	n/a	-1	1.0	1.0	1	upper	Verdana.ttf
1227.0	n/a	WORD	613500	wordpools/wasnorm_wordpool_less_exclusions.txt	LTP288	ltpFR	1	6	-1	DISHWASHER	475	n/a	n/a	-1	1.0	1.0	1	upper	Verdana.ttf
1231.21	n/a	WORD	615605	wordpools/wasnorm_wordpool_less_exclusions.txt	LTP288	ltpFR	1	6	-1	DUSTPAN	509	n/a	n/a	-1	1.0	1.0	1	upper	Verdana.ttf
1235.154	n/a	WORD	617577	wordpools/wasnorm_wordpool_less_exclusions.txt	LTP288	ltpFR	1	6	-1	ATHLETE	52	n/a	n/a	-1	1.0	1.0	1	upper	Verdana.ttf
1239.148	n/a	WORD	619574	wordpools/wasnorm_wordpool_less_exclusions.txt	LTP288	ltpFR	1	6	-1	PLATE	1086	n/a	n/a	-1	1.0	1.0	1	upper	Verdana.ttf
1243.192	n/a	WORD	621596	wordpools/wasnorm_wordpool_less_exclusions.txt	LTP288	ltpFR	1	6	-1	OFFICE	972	n/a	n/a	-1	1.0	1.0	1	upper	Verdana.ttf
1247.052	n/a	WORD	623526	wordpools/wasnorm_wordpool_less_exclusions.txt	LTP288	ltpFR	1	6	-1	JOINT	758	n/a	n/a	-1	1.0	1.0	1	upper	Verdana.ttf
1250.964	n/a	WORD	625482	wordpools/wasnorm_wordpool_less_exclusions.txt	LTP288	ltpFR	1	6	-1	ANT	25	n/a	n/a	-1	1.0	1.0	1	upper	Verdana.ttf
1254.824	n/a	WORD	627412	wordpools/wasnorm_wordpool_less_exclusions.txt	LTP288	ltpFR	1	6	-1	SKIN	1318	n/a	n/a	-1	1.0	1.0	1	upper	Verdana.ttf
1258.752	n/a	WORD	629376	wordpools/wasnorm_wordpool_less_exclusions.txt	LTP288	ltpFR	1	6	-1	PIGMENT	1066	n/a	n/a	-1	1.0	1.0	1	upper	Verdana.ttf
1264.51	n/a	REC_START	632255	n/a	LTP288	ltpFR	1	6	n/a	n/a	n/a	n/a	n/a	n/a	n/a	n/a	n/a	n/a	n/a
1265.152	n/a	REC_WORD	632576	wordpools/wasnorm_wordpool_less_exclusions.txt	LTP288	ltpFR	1	6	-1	OFFICE	972	n/a	n/a	-1	n/a	n/a	n/a	n/a	n/a
1265.806	n/a	REC_WORD	632903	wordpools/wasnorm_wordpool_less_exclusions.txt	LTP288	ltpFR	1	6	-1	JOINT	758	n/a	n/a	-1	n/a	n/a	n/a	n/a	n/a
1266.644	n/a	REC_WORD	633322	wordpools/wasnorm_wordpool_less_exclusions.txt	LTP288	ltpFR	1	6	-1	ANT	25	n/a	n/a	-1	n/a	n/a	n/a	n/a	n/a
1267.214	n/a	REC_WORD	633607	wordpools/wasnorm_wordpool_less_exclusions.txt	LTP288	ltpFR	1	6	-1	SKIN	1318	n/a	n/a	-1	n/a	n/a	n/a	n/a	n/a
1268.292	n/a	REC_WORD	634146	wordpools/wasnorm_wordpool_less_exclusions.txt	LTP288	ltpFR	1	6	-1	PIGMENT	1066	n/a	n/a	-1	n/a	n/a	n/a	n/a	n/a
1269.048	n/a	REC_WORD	634524	wordpools/wasnorm_wordpool_less_exclusions.txt	LTP288	ltpFR	1	6	-1	ATHLETE	52	n/a	n/a	-1	n/a	n/a	n/a	n/a	n/a
1269.856	n/a	REC_WORD	634928	wordpools/wasnorm_wordpool_less_exclusions.txt	LTP288	ltpFR	1	6	-1	DISHWASHER	475	n/a	n/a	-1	n/a	n/a	n/a	n/a	n/a
1270.69	n/a	REC_WORD	635345	wordpools/wasnorm_wordpool_less_exclusions.txt	LTP288	ltpFR	1	6	-1	DUSTPAN	509	n/a	n/a	-1	n/a	n/a	n/a	n/a	n/a
1271.454	n/a	REC_WORD	635727	wordpools/wasnorm_wordpool_less_exclusions.txt	LTP288	ltpFR	1	6	-1	PIRATE	1074	n/a	n/a	-1	n/a	n/a	n/a	n/a	n/a
1272.152	n/a	REC_WORD	636076	wordpools/wasnorm_wordpool_less_exclusions.txt	LTP288	ltpFR	1	6	-1	CHAMBER	277	n/a	n/a	-1	n/a	n/a	n/a	n/a	n/a
1272.956	n/a	REC_WORD	636478	wordpools/wasnorm_wordpool_less_exclusions.txt	LTP288	ltpFR	1	6	-1	LEG	809	n/a	n/a	-1	n/a	n/a	n/a	n/a	n/a
1278.228	n/a	REC_WORD	639114	wordpools/wasnorm_wordpool_less_exclusions.txt	LTP288	ltpFR	1	6	-1	DECK	443	n/a	n/a	-1	n/a	n/a	n/a	n/a	n/a
1351.996	n/a	WORD	675998	wordpools/wasnorm_wordpool_less_exclusions.txt	LTP288	ltpFR	1	7	0	COLLAR	345	n/a	n/a	0	0.57763671875	0.412841796875	1	upper	amplitud.ttf
1356.174	n/a	WORD	678087	wordpools/wasnorm_wordpool_less_exclusions.txt	LTP288	ltpFR	1	7	0	CLIPPERS	324	n/a	n/a	0	0.57763671875	0.412841796875	1	upper	amplitud.ttf
1360.168	n/a	WORD	680084	wordpools/wasnorm_wordpool_less_exclusions.txt	LTP288	ltpFR	1	7	0	SWIMMER	1420	n/a	n/a	1	0.57763671875	0.412841796875	1	upper	amplitud.ttf
1364.262	n/a	WORD	682131	wordpools/wasnorm_wordpool_less_exclusions.txt	LTP288	ltpFR	1	7	0	OWNER	993	n/a	n/a	1	0.57763671875	0.412841796875	1	upper	amplitud.ttf
1368.474	n/a	WORD	684237	wordpools/wasnorm_wordpool_less_exclusions.txt	LTP288	ltpFR	1	7	0	TYPIST	1532	n/a	n/a	1	0.57763671875	0.412841796875	1	upper	amplitud.ttf
1372.666	n/a	WORD	686333	wordpools/wasnorm_wordpool_less_exclusions.txt	LTP288	ltpFR	1	7	0	INCENSE	735	n/a	n/a	0	0.57763671875	0.412841796875	1	upper	amplitud.ttf
1376.528	n/a	WORD	688264	wordpools/wasnorm_wordpool_less_exclusions.txt	LTP288	ltpFR	1	7	1	DEODORANT	448	n/a	n/a	0	0.422607421875	0.5869140625	0	lower	zerothre.ttf
1380.422	n/a	WORD	690211	wordpools/wasnorm_wordpool_less_exclusions.txt	LTP288	ltpFR	1	7	1	SEA	1259	n/a	n/a	0	0.422607421875	0.5869140625	0	lower	zerothre.ttf
1384.5	n/a	WORD	692250	wordpools/wasnorm_wordpool_less_exclusions.txt	LTP288	ltpFR	1	7	1	DICE	461	n/a	n/a	0	0.422607421875	0.5869140625	0	lower	zerothre.ttf
1388.71	n/a	WORD	694355	wordpools/wasnorm_wordpool_less_exclusions.txt	LTP288	ltpFR	1	7	1	TREAD	1499	n/a	n/a	0	0.422607421875	0.5869140625	0	lower	zerothre.ttf
1392.936	n/a	WORD	696468	wordpools/wasnorm_wordpool_less_exclusions.txt	LTP288	ltpFR	1	7	0	SHELL	1281	n/a	n/a	0	0.57763671875	0.412841796875	1	upper	amplitud.ttf
1397.064	n/a	WORD	698532	wordpools/wasnorm_wordpool_less_exclusions.txt	LTP288	ltpFR	1	7	0	HEEL	700	n/a	n/a	0	0.57763671875	0.412841796875	1	upper	amplitud.ttf
1401.142	n/a	WORD	700571	wordpools/wasnorm_wordpool_less_exclusions.txt	LTP288	ltpFR	1	7	1	BAY	102	n/a	n/a	0	0.422607421875	0.5869140625	0	lower	zerothre.ttf
1405.086	n/a	WORD	702543	wordpools/wasnorm_wordpool_less_exclusions.txt	LTP288	ltpFR	1	7	1	BATHTUB	100	n/a	n/a	0	0.422607421875	0.5869140625	0	lower	zerothre.ttf
1409.164	n/a	WORD	704582	wordpools/wasnorm_wordpool_less_exclusions.txt	LTP288	ltpFR	1	7	1	UMPIRE	1535	n/a	n/a	1	0.422607421875	0.5869140625	0	lower	zerothre.ttf
1413.074	n/a	WORD	706537	wordpools/wasnorm_wordpool_less_exclusions.txt	LTP288	ltpFR	1	7	1	TROUSERS	1510	n/a	n/a	0	0.422607421875	0.5869140625	0	lower	zerothre.ttf
1418.998	n/a	REC_START	709499	n/a	LTP288	ltpFR	1	7	n/a	n/a	n/a	n/a	n/a	n/a	n/a	n/a	n/a	n/a	n/a
1419.714	n/a	REC_WORD	709857	wordpools/wasnorm_wordpool_less_exclusions.txt	LTP288	ltpFR	1	7	1	BAY	102	n/a	n/a	0	n/a	n/a	n/a	n/a	n/a
1420.49	n/a	REC_WORD	710245	wordpools/wasnorm_wordpool_less_exclusions.txt	LTP288	ltpFR	1	7	1	BATHTUB	100	n/a	n/a	0	n/a	n/a	n/a	n/a	n/a
1421.698	n/a	REC_WORD	710849	wordpools/wasnorm_wordpool_less_exclusions.txt	LTP288	ltpFR	1	7	1	UMPIRE	1535	n/a	n/a	1	n/a	n/a	n/a	n/a	n/a
1422.584	n/a	REC_WORD	711292	wordpools/wasnorm_wordpool_less_exclusions.txt	LTP288	ltpFR	1	7	1	TROUSERS	1510	n/a	n/a	0	n/a	n/a	n/a	n/a	n/a
1423.634	n/a	REC_WORD	711817	wordpools/wasnorm_wordpool_less_exclusions.txt	LTP288	ltpFR	1	7	0	HEEL	700	n/a	n/a	0	n/a	n/a	n/a	n/a	n/a
1425.102	n/a	REC_WORD	712551	wordpools/wasnorm_wordpool_less_exclusions.txt	LTP288	ltpFR	1	7	1	DICE	461	n/a	n/a	0	n/a	n/a	n/a	n/a	n/a
1428.646	n/a	REC_WORD	714323	wordpools/wasnorm_wordpool_less_exclusions.txt	LTP288	ltpFR	1	7	0	TYPIST	1532	n/a	n/a	1	n/a	n/a	n/a	n/a	n/a
1432.438	n/a	REC_WORD	716219	wordpools/wasnorm_wordpool_less_exclusions.txt	LTP288	ltpFR	1	7	0	OWNER	993	n/a	n/a	1	n/a	n/a	n/a	n/a	n/a
1453.908	n/a	REC_WORD	726954	wordpools/wasnorm_wordpool_less_exclusions.txt	LTP288	ltpFR	1	7	1	TREAD	1499	n/a	n/a	0	n/a	n/a	n/a	n/a	n/a
1463.606	n/a	REC_WORD	731803	wordpools/wasnorm_wordpool_less_exclusions.txt	LTP288	ltpFR	1	7	0	TWEEZERS	1526	n/a	n/a	0	n/a	n/a	n/a	n/a	n/a
1503.556	n/a	WORD	751778	wordpools/wasnorm_wordpool_less_exclusions.txt	LTP288	ltpFR	1	8	1	TROUT	1511	n/a	n/a	1	0.422607421875	0.5869140625	0	lower	zerothre.ttf
1507.6	n/a	WORD	753800	wordpools/wasnorm_wordpool_less_exclusions.txt	LTP288	ltpFR	1	8	1	SQUIRREL	1362	n/a	n/a	1	0.422607421875	0.5869140625	0	lower	zerothre.ttf
1511.544	n/a	WORD	755772	wordpools/wasnorm_wordpool_less_exclusions.txt	LTP288	ltpFR	1	8	1	ENGINE	535	n/a	n/a	0	0.422607421875	0.5869140625	0	lower	zerothre.ttf
1515.472	n/a	WORD	757736	wordpools/wasnorm_wordpool_less_exclusions.txt	LTP288	ltpFR	1	8	1	DRAGON	492	n/a	n/a	1	0.422607421875	0.5869140625	0	lower	zerothre.ttf
1519.484	n/a	WORD	759742	wordpools/wasnorm_wordpool_less_exclusions.txt	LTP288	ltpFR	1	8	0	RUG	1215	n/a	n/a	1	0.57763671875	0.412841796875	1	upper	amplitud.ttf
1523.56	n/a	WORD	761780	wordpools/wasnorm_wordpool_less_exclusions.txt	LTP288	ltpFR	1	8	0	CEILING	265	n/a	n/a	1	0.57763671875	0.412841796875	1	upper	amplitud.ttf
1527.554	n/a	WORD	763777	wordpools/wasnorm_wordpool_less_exclusions.txt	LTP288	ltpFR	1	8	1	SHRIMP	1297	n/a	n/a	1	0.422607421875	0.5869140625	0	lower	zerothre.ttf
1531.564	n/a	WORD	765782	wordpools/wasnorm_wordpool_less_exclusions.txt	LTP288	ltpFR	1	8	1	TACK	1428	n/a	n/a	0	0.422607421875	0.5869140625	0	lower	zerothre.ttf
1535.542	n/a	WORD	767771	wordpools/wasnorm_wordpool_less_exclusions.txt	LTP288	ltpFR	1	8	1	KNEE	784	n/a	n/a	0	0.422607421875	0.5869140625	0	lower	zerothre.ttf
1539.62	n/a	WORD	769810	wordpools/wasnorm_wordpool_less_exclusions.txt	LTP288	ltpFR	1	8	1	GLASSES	640	n/a	n/a	0	0.422607421875	0.5869140625	0	lower	zerothre.ttf
1543.498	n/a	WORD	771749	wordpools/wasnorm_wordpool_less_exclusions.txt	LTP288	ltpFR	1	8	0	CLAMP	316	n/a	n/a	0	0.57763671875	0.412841796875	1	upper	amplitud.ttf
1547.508	n/a	WORD	773754	wordpools/wasnorm_wordpool_less_exclusions.txt	LTP288	ltpFR	1	8	0	LUMBER	848	n/a	n/a	0	0.57763671875	0.412841796875	1	upper	amplitud.ttf
1551.618	n/a	WORD	775809	wordpools/wasnorm_wordpool_less_exclusions.txt	LTP288	ltpFR	1	8	0	TOENAIL	1474	n/a	n/a	0	0.57763671875	0.412841796875	1	upper	amplitud.ttf
1555.63	n/a	WORD	777815	wordpools/wasnorm_wordpool_less_exclusions.txt	LTP288	ltpFR	1	8	0	BUCKET	184	n/a	n/a	1	0.57763671875	0.412841796875	1	upper	amplitud.ttf
1559.84	n/a	WORD	779920	wordpools/wasnorm_wordpool_less_exclusions.txt	LTP288	ltpFR	1	8	0	MARSH	874	n/a	n/a	1	0.57763671875	0.412841796875	1	upper	amplitud.ttf
1564.034	n/a	WORD	782017	wordpools/wasnorm_wordpool_less_exclusions.txt	LTP288	ltpFR	1	8	0	OYSTER	995	n/a	n/a	0	0.57763671875	0.412841796875	1	upper	amplitud.ttf
1569.776	n/a	REC_START	784888	n/a	LTP288	ltpFR	1	8	n/a	n/a	n/a	n/a	n/a	n/a	n/a	n/a	n/a	n/a	n/a
1570.454	n/a	REC_WORD	785227	wordpools/wasnorm_wordpool_less_exclusions.txt	LTP288	ltpFR	1	8	0	BUCKET	184	n/a	n/a	1	n/a	n/a	n/a	n/a	n/a
1571.082	n/a	REC_WORD	785541	wordpools/wasnorm_wordpool_less_exclusions.txt	LTP288	ltpFR	1	8	0	MARSH	874	n/a	n/a	1	n/a	n/a	n/a	n/a	n/a
1571.832	n/a	REC_WORD	785916	wordpools/wasnorm_wordpool_less_exclusions.txt	LTP288	ltpFR	1	8	0	OYSTER	995	n/a	n/a	0	n/a	n/a	n/a	n/a	n/a
1572.586	n/a	REC_WORD	786293	wordpools/wasnorm_wordpool_less_exclusions.txt	LTP288	ltpFR	1	8	0	TOENAIL	1474	n/a	n/a	0	n/a	n/a	n/a	n/a	n/a
1573.366	n/a	REC_WORD	786683	wordpools/wasnorm_wordpool_less_exclusions.txt	LTP288	ltpFR	1	8	0	CLAMP	316	n/a	n/a	0	n/a	n/a	n/a	n/a	n/a
1577.326	n/a	REC_WORD	788663	wordpools/wasnorm_wordpool_less_exclusions.txt	LTP288	ltpFR	1	8	0	LUMBER	848	n/a	n/a	0	n/a	n/a	n/a	n/a	n/a
1584.15	n/a	REC_WORD	792075	wordpools/wasnorm_wordpool_less_exclusions.txt	LTP288	ltpFR	1	8	1	TROUT	1511	n/a	n/a	1	n/a	n/a	n/a	n/a	n/a
1585.058	n/a	REC_WORD	792529	wordpools/wasnorm_wordpool_less_exclusions.txt	LTP288	ltpFR	1	8	1	SQUIRREL	1362	n/a	n/a	1	n/a	n/a	n/a	n/a	n/a
1599.2	n/a	REC_WORD	799600	wordpools/wasnorm_wordpool_less_exclusions.txt	LTP288	ltpFR	1	8	0	CEILING	265	n/a	n/a	1	n/a	n/a	n/a	n/a	n/a
1600.678	n/a	REC_WORD	800339	wordpools/wasnorm_wordpool_less_exclusions.txt	LTP288	ltpFR	1	8	0	RUG	1215	n/a	n/a	1	n/a	n/a	n/a	n/a	n/a
1645.38	n/a	REST_REWET	822690	n/a	LTP288	ltpFR	1	8	n/a	n/a	n/a	n/a	n/a	n/a	n/a	n/a	n/a	n/a	n/a
2051.28	n/a	WORD	1025640	wordpools/wasnorm_wordpool_less_exclusions.txt	LTP288	ltpFR	1	9	0	QUARTER	1148	n/a	n/a	0	0.57763671875	0.412841796875	1	upper	amplitud.ttf
2055.456	n/a	WORD	1027728	wordpools/wasnorm_wordpool_less_exclusions.txt	LTP288	ltpFR	1	9	0	BILL	126	n/a	n/a	0	0.57763671875	0.412841796875	1	upper	amplitud.ttf
2059.402	n/a	WORD	1029701	wordpools/wasnorm_wordpool_less_exclusions.txt	LTP288	ltpFR	1	9	0	CANAL	226	n/a	n/a	1	0.57763671875	0.412841796875	1	upper	amplitud.ttf
2063.262	n/a	WORD	1031631	wordpools/wasnorm_wordpool_less_exclusions.txt	LTP288	ltpFR	1	9	0	TUBE	1516	n/a	n/a	1	0.57763671875	0.412841796875	1	upper	amplitud.ttf
2067.224	n/a	WORD	1033612	wordpools/wasnorm_wordpool_less_exclusions.txt	LTP288	ltpFR	1	9	0	DOLPHIN	483	n/a	n/a	1	0.57763671875	0.412841796875	1	upper	amplitud.ttf
2071.316	n/a	WORD	1035658	wordpools/wasnorm_wordpool_less_exclusions.txt	LTP288	ltpFR	1	9	0	VIKING	1565	n/a	n/a	1	0.57763671875	0.412841796875	1	upper	amplitud.ttf
2075.31	n/a	WORD	1037655	wordpools/wasnorm_wordpool_less_exclusions.txt	LTP288	ltpFR	1	9	0	TEAM	1441	n/a	n/a	1	0.57763671875	0.412841796875	1	upper	amplitud.ttf
2079.372	n/a	WORD	1039686	wordpools/wasnorm_wordpool_less_exclusions.txt	LTP288	ltpFR	1	9	0	HELICOPTER	701	n/a	n/a	1	0.57763671875	0.412841796875	1	upper	amplitud.ttf
2083.35	n/a	WORD	1041675	wordpools/wasnorm_wordpool_less_exclusions.txt	LTP288	ltpFR	1	9	0	CENT	270	n/a	n/a	0	0.57763671875	0.412841796875	1	upper	amplitud.ttf
2087.244	n/a	WORD	1043622	wordpools/wasnorm_wordpool_less_exclusions.txt	LTP288	ltpFR	1	9	0	BARRACUDA	90	n/a	n/a	1	0.57763671875	0.412841796875	1	upper	amplitud.ttf
2091.154	n/a	WORD	1045577	wordpools/wasnorm_wordpool_less_exclusions.txt	LTP288	ltpFR	1	9	0	BARREL	91	n/a	n/a	1	0.57763671875	0.412841796875	1	upper	amplitud.ttf
2095.232	n/a	WORD	1047616	wordpools/wasnorm_wordpool_less_exclusions.txt	LTP288	ltpFR	1	9	0	VAN	1548	n/a	n/a	1	0.57763671875	0.412841796875	1	upper	amplitud.ttf
2099.192	n/a	WORD	1049596	wordpools/wasnorm_wordpool_less_exclusions.txt	LTP288	ltpFR	1	9	0	PASTRY	1022	n/a	n/a	0	0.57763671875	0.412841796875	1	upper	amplitud.ttf
2103.32	n/a	WORD	1051660	wordpools/wasnorm_wordpool_less_exclusions.txt	LTP288	ltpFR	1	9	0	LOUNGE	845	n/a	n/a	1	0.57763671875	0.412841796875	1	upper	amplitud.ttf
2107.198	n/a	WORD	1053599	wordpools/wasnorm_wordpool_less_exclusions.txt	LTP288	ltpFR	1	9	0	CASH	252	n/a	n/a	0	0.57763671875	0.412841796875	1	upper	amplitud.ttf
2111.024	n/a	WORD	1055512	wordpools/wasnorm_wordpool_less_exclusions.txt	LTP288	ltpFR	1	9	0	BASEMENT	94	n/a	n/a	1	0.57763671875	0.412841796875	1	upper	amplitud.ttf
2116.766	n/a	REC_START	1058383	n/a	LTP288	ltpFR	1	9	n/a	n/a	n/a	n/a	n/a	n/a	n/a	n/a	n/a	n/a	n/a
2117.444	n/a	REC_WORD	1058722	wordpools/wasnorm_wordpool_less_exclusions.txt	LTP288	ltpFR	1	9	0	LOUNGE	845	n/a	n/a	1	n/a	n/a	n/a	n/a	n/a
2118.19	n/a	REC_WORD	1059095	wordpools/wasnorm_wordpool_less_exclusions.txt	LTP288	ltpFR	1	9	0	CASH	252	n/a	n/a	0	n/a	n/a	n/a	n/a	n/a
2118.926	n/a	REC_WORD	1059463	wordpools/wasnorm_wordpool_less_exclusions.txt	LTP288	ltpFR	1	9	0	BASEMENT	94	n/a	n/a	1	n/a	n/a	n/a	n/a	n/a
2119.69	n/a	REC_WORD	1059845	wordpools/wasnorm_wordpool_less_exclusions.txt	LTP288	ltpFR	1	9	0	BARRACUDA	90	n/a	n/a	1	n/a	n/a	n/a	n/a	n/a
2120.646	n/a	REC_WORD	1060323	wordpools/wasnorm_wordpool_less_exclusions.txt	LTP288	ltpFR	1	9	0	VAN	1548	n/a	n/a	1	n/a	n/a	n/a	n/a	n/a
2121.56	n/a	REC_WORD	1060780	wordpools/wasnorm_wordpool_less_exclusions.txt	LTP288	ltpFR	1	9	0	CENT	270	n/a	n/a	0	n/a	n/a	n/a	n/a	n/a
2122.51	n/a	REC_WORD	1061255	wordpools/wasnorm_wordpool_less_exclusions.txt	LTP288	ltpFR	1	9	0	BILL	126	n/a	n/a	0	n/a	n/a	n/a	n/a	n/a
2132.5	n/a	REC_WORD	1066250	wordpools/wasnorm_wordpool_less_exclusions.txt	LTP288	ltpFR	1	9	0	QUARTER	1148	n/a	n/a	0	n/a	n/a	n/a	n/a	n/a
2213.006	n/a	WORD	1106503	wordpools/wasnorm_wordpool_less_exclusions.txt	LTP288	ltpFR	1	10	-1	ROCK	1201	n/a	n/a	-1	1.0	1.0	1	upper	Verdana.ttf
2216.85	n/a	WORD	1108425	wordpools/wasnorm_wordpool_less_exclusions.txt	LTP288	ltpFR	1	10	-1	COMMITTEE	355	n/a	n/a	-1	1.0	1.0	1	upper	Verdana.ttf
2220.794	n/a	WORD	1110397	wordpools/wasnorm_wordpool_less_exclusions.txt	LTP288	ltpFR	1	10	-1	TOMATO	1476	n/a	n/a	-1	1.0	1.0	1	upper	Verdana.ttf
2224.738	n/a	WORD	1112369	wordpools/wasnorm_wordpool_less_exclusions.txt	LTP288	ltpFR	1	10	-1	ONION	977	n/a	n/a	-1	1.0	1.0	1	upper	Verdana.ttf
2228.566	n/a	WORD	1114283	wordpools/wasnorm_wordpool_less_exclusions.txt	LTP288	ltpFR	1	10	-1	LONDON	843	n/a	n/a	-1	1.0	1.0	1	upper	Verdana.ttf
2232.744	n/a	WORD	1116372	wordpools/wasnorm_wordpool_less_exclusions.txt	LTP288	ltpFR	1	10	-1	EMPEROR	529	n/a	n/a	-1	1.0	1.0	1	upper	Verdana.ttf
2236.604	n/a	WORD	1118302	wordpools/wasnorm_wordpool_less_exclusions.txt	LTP288	ltpFR	1	10	-1	COMMUNITY	356	n/a	n/a	-1	1.0	1.0	1	upper	Verdana.ttf
2240.648	n/a	WORD	1120324	wordpools/wasnorm_wordpool_less_exclusions.txt	LTP288	ltpFR	1	10	-1	SPICE	1350	n/a	n/a	-1	1.0	1.0	1	upper	Verdana.ttf
2244.66	n/a	WORD	1122330	wordpools/wasnorm_wordpool_less_exclusions.txt	LTP288	ltpFR	1	10	-1	LETTUCE	814	n/a	n/a	-1	1.0	1.0	1	upper	Verdana.ttf
2248.654	n/a	WORD	1124327	wordpools/wasnorm_wordpool_less_exclusions.txt	LTP288	ltpFR	1	10	-1	FRANCE	601	n/a	n/a	-1	1.0	1.0	1	upper	Verdana.ttf
2252.68	n/a	WORD	1126340	wordpools/wasnorm_wordpool_less_exclusions.txt	LTP288	ltpFR	1	10	-1	OTTER	986	n/a	n/a	-1	1.0	1.0	1	upper	Verdana.ttf
2256.592	n/a	WORD	1128296	wordpools/wasnorm_wordpool_less_exclusions.txt	LTP288	ltpFR	1	10	-1	YACHT	1629	n/a	n/a	-1	1.0	1.0	1	upper	Verdana.ttf
2260.72	n/a	WORD	1130360	wordpools/wasnorm_wordpool_less_exclusions.txt	LTP288	ltpFR	1	10	-1	SAILOR	1223	n/a	n/a	-1	1.0	1.0	1	upper	Verdana.ttf
2264.63	n/a	WORD	1132315	wordpools/wasnorm_wordpool_less_exclusions.txt	LTP288	ltpFR	1	10	-1	PAINT	1003	n/a	n/a	-1	1.0	1.0	1	upper	Verdana.ttf
2268.74	n/a	WORD	1134370	wordpools/wasnorm_wordpool_less_exclusions.txt	LTP288	ltpFR	1	10	-1	CANVAS	234	n/a	n/a	-1	1.0	1.0	1	upper	Verdana.ttf
2272.602	n/a	WORD	1136301	wordpools/wasnorm_wordpool_less_exclusions.txt	LTP288	ltpFR	1	10	-1	MOAT	903	n/a	n/a	-1	1.0	1.0	1	upper	Verdana.ttf
2278.428	n/a	REC_START	1139214	n/a	LTP288	ltpFR	1	10	n/a	n/a	n/a	n/a	n/a	n/a	n/a	n/a	n/a	n/a	n/a
2278.964	n/a	REC_WORD	1139482	wordpools/wasnorm_wordpool_less_exclusions.txt	LTP288	ltpFR	1	10	-1	OTTER	986	n/a	n/a	-1	n/a	n/a	n/a	n/a	n/a
2279.412	n/a	REC_WORD	1139706	wordpools/wasnorm_wordpool_less_exclusions.txt	LTP288	ltpFR	1	10	-1	YACHT	1629	n/a	n/a	-1	n/a	n/a	n/a	n/a	n/a
2279.804	n/a	REC_WORD	1139902	wordpools/wasnorm_wordpool_less_exclusions.txt	LTP288	ltpFR	1	10	-1	SAILOR	1223	n/a	n/a	-1	n/a	n/a	n/a	n/a	n/a
2280.462	n/a	REC_WORD	1140231	wordpools/wasnorm_wordpool_less_exclusions.txt	LTP288	ltpFR	1	10	-1	PAINT	1003	n/a	n/a	-1	n/a	n/a	n/a	n/a	n/a
2280.954	n/a	REC_WORD	1140477	wordpools/wasnorm_wordpool_less_exclusions.txt	LTP288	ltpFR	1	10	-1	CANVAS	234	n/a	n/a	-1	n/a	n/a	n/a	n/a	n/a
2281.578	n/a	REC_WORD	1140789	wordpools/wasnorm_wordpool_less_exclusions.txt	LTP288	ltpFR	1	10	-1	MOAT	903	n/a	n/a	-1	n/a	n/a	n/a	n/a	n/a
2282.478	n/a	REC_WORD	1141239	wordpools/wasnorm_wordpool_less_exclusions.txt	LTP288	ltpFR	1	10	-1	LONDON	843	n/a	n/a	-1	n/a	n/a	n/a	n/a	n/a
2283.188	n/a	REC_WORD	1141594	wordpools/wasnorm_wordpool_less_exclusions.txt	LTP288	ltpFR	1	10	-1	FRANCE	601	n/a	n/a	-1	n/a	n/a	n/a	n/a	n/a
2283.744	n/a	REC_WORD	1141872	wordpools/wasnorm_wordpool_less_exclusions.txt	LTP288	ltpFR	1	10	-1	TOMATO	1476	n/a	n/a	-1	n/a	n/a	n/a	n/a	n/a
2284.426	n/a	REC_WORD	1142213	wordpools/wasnorm_wordpool_less_exclusions.txt	LTP288	ltpFR	1	10	-1	ONION	977	n/a	n/a	-1	n/a	n/a	n/a	n/a	n/a
2375.582	n/a	WORD	1187791	wordpools/wasnorm_wordpool_less_exclusions.txt	LTP288	ltpFR	1	11	1	HAT	690	n/a	n/a	0	0.422607421875	0.5869140625	0	lower	zerothre.ttf
2379.576	n/a	WORD	1189788	wordpools/wasnorm_wordpool_less_exclusions.txt	LTP288	ltpFR	1	11	1	JACKET	747	n/a	n/a	0	0.422607421875	0.5869140625	0	lower	zerothre.ttf
2383.438	n/a	WORD	1191719	wordpools/wasnorm_wordpool_less_exclusions.txt	LTP288	ltpFR	1	11	1	MAGAZINE	853	n/a	n/a	0	0.422607421875	0.5869140625	0	lower	zerothre.ttf
2387.532	n/a	WORD	1193766	wordpools/wasnorm_wordpool_less_exclusions.txt	LTP288	ltpFR	1	11	1	PASSAGE	1019	n/a	n/a	0	0.422607421875	0.5869140625	0	lower	zerothre.ttf
2391.508	n/a	WORD	1195754	wordpools/wasnorm_wordpool_less_exclusions.txt	LTP288	ltpFR	1	11	1	PEDESTRIAN	1038	n/a	n/a	1	0.422607421875	0.5869140625	0	lower	zerothre.ttf
2395.37	n/a	WORD	1197685	wordpools/wasnorm_wordpool_less_exclusions.txt	LTP288	ltpFR	1	11	1	FRIAR	605	n/a	n/a	1	0.422607421875	0.5869140625	0	lower	zerothre.ttf
2399.43	n/a	WORD	1199715	wordpools/wasnorm_wordpool_less_exclusions.txt	LTP288	ltpFR	1	11	1	LIVER	833	n/a	n/a	0	0.422607421875	0.5869140625	0	lower	zerothre.ttf
2403.458	n/a	WORD	1201729	wordpools/wasnorm_wordpool_less_exclusions.txt	LTP288	ltpFR	1	11	1	SPINE	1353	n/a	n/a	0	0.422607421875	0.5869140625	0	lower	zerothre.ttf
2407.536	n/a	WORD	1203768	wordpools/wasnorm_wordpool_less_exclusions.txt	LTP288	ltpFR	1	11	1	PRIEST	1122	n/a	n/a	1	0.422607421875	0.5869140625	0	lower	zerothre.ttf
2411.562	n/a	WORD	1205781	wordpools/wasnorm_wordpool_less_exclusions.txt	LTP288	ltpFR	1	11	1	GRILL	661	n/a	n/a	0	0.422607421875	0.5869140625	0	lower	zerothre.ttf
2415.424	n/a	WORD	1207712	wordpools/wasnorm_wordpool_less_exclusions.txt	LTP288	ltpFR	1	11	1	STAPLE	1371	n/a	n/a	0	0.422607421875	0.5869140625	0	lower	zerothre.ttf
2419.55	n/a	WORD	1209775	wordpools/wasnorm_wordpool_less_exclusions.txt	LTP288	ltpFR	1	11	1	ANTENNA	28	n/a	n/a	0	0.422607421875	0.5869140625	0	lower	zerothre.ttf
2423.762	n/a	WORD	1211881	wordpools/wasnorm_wordpool_less_exclusions.txt	LTP288	ltpFR	1	11	1	CHECK	284	n/a	n/a	0	0.422607421875	0.5869140625	0	lower	zerothre.ttf
2427.638	n/a	WORD	1213819	wordpools/wasnorm_wordpool_less_exclusions.txt	LTP288	ltpFR	1	11	1	LOOP	844	n/a	n/a	0	0.422607421875	0.5869140625	0	lower	zerothre.ttf
2431.816	n/a	WORD	1215908	wordpools/wasnorm_wordpool_less_exclusions.txt	LTP288	ltpFR	1	11	1	OCTOPUS	971	n/a	n/a	1	0.422607421875	0.5869140625	0	lower	zerothre.ttf
2435.86	n/a	WORD	1217930	wordpools/wasnorm_wordpool_less_exclusions.txt	LTP288	ltpFR	1	11	1	SQUID	1361	n/a	n/a	1	0.422607421875	0.5869140625	0	lower	zerothre.ttf
2441.652	n/a	REC_START	1220826	n/a	LTP288	ltpFR	1	11	n/a	n/a	n/a	n/a	n/a	n/a	n/a	n/a	n/a	n/a	n/a
2442.28	n/a	REC_WORD	1221140	wordpools/wasnorm_wordpool_less_exclusions.txt	LTP288	ltpFR	1	11	1	CHECK	284	n/a	n/a	0	n/a	n/a	n/a	n/a	n/a
2443.146	n/a	REC_WORD	1221573	wordpools/wasnorm_wordpool_less_exclusions.txt	LTP288	ltpFR	1	11	1	LOOP	844	n/a	n/a	0	n/a	n/a	n/a	n/a	n/a
2444.196	n/a	REC_WORD	1222098	wordpools/wasnorm_wordpool_less_exclusions.txt	LTP288	ltpFR	1	11	1	OCTOPUS	971	n/a	n/a	1	n/a	n/a	n/a	n/a	n/a
2445.408	n/a	REC_WORD	1222704	wordpools/wasnorm_wordpool_less_exclusions.txt	LTP288	ltpFR	1	11	1	OCTOPUS	971	n/a	n/a	1	n/a	n/a	n/a	n/a	n/a
2446.492	n/a	REC_WORD	1223246	wordpools/wasnorm_wordpool_less_exclusions.txt	LTP288	ltpFR	1	11	1	SQUID	1361	n/a	n/a	1	n/a	n/a	n/a	n/a	n/a
2452.624	n/a	REC_WORD	1226312	wordpools/wasnorm_wordpool_less_exclusions.txt	LTP288	ltpFR	1	11	1	PEDESTRIAN	1038	n/a	n/a	1	n/a	n/a	n/a	n/a	n/a
2476.474	n/a	REC_WORD	1238237	wordpools/wasnorm_wordpool_less_exclusions.txt	LTP288	ltpFR	1	11	1	SPINE	1353	n/a	n/a	0	n/a	n/a	n/a	n/a	n/a
2478.5	n/a	REC_WORD	1239250	wordpools/wasnorm_wordpool_less_exclusions.txt	LTP288	ltpFR	1	11	1	LIVER	833	n/a	n/a	0	n/a	n/a	n/a	n/a	n/a
2499.782	n/a	REC_WORD	1249891	wordpools/wasnorm_wordpool_less_exclusions.txt	LTP288	ltpFR	1	11	1	FRIAR	605	n/a	n/a	1	n/a	n/a	n/a	n/a	n/a
2530.02	n/a	WORD	1265010	wordpools/wasnorm_wordpool_less_exclusions.txt	LTP288	ltpFR	1	12	1	JUG	762	n/a	n/a	0	0.422607421875	0.5869140625	0	lower	zerothre.ttf
2534.08	n/a	WORD	1267040	wordpools/wasnorm_wordpool_less_exclusions.txt	LTP288	ltpFR	1	12	1	SCOTCH	1251	n/a	n/a	0	0.422607421875	0.5869140625	0	lower	zerothre.ttf
2538.226	n/a	WORD	1269113	wordpools/wasnorm_wordpool_less_exclusions.txt	LTP288	ltpFR	1	12	1	OFFICER	973	n/a	n/a	1	0.422607421875	0.5869140625	0	lower	zerothre.ttf
2542.186	n/a	WORD	1271093	wordpools/wasnorm_wordpool_less_exclusions.txt	LTP288	ltpFR	1	12	1	MAMMAL	861	n/a	n/a	1	0.422607421875	0.5869140625	0	lower	zerothre.ttf
2546.096	n/a	WORD	1273048	wordpools/wasnorm_wordpool_less_exclusions.txt	LTP288	ltpFR	1	12	1	CABINET	212	n/a	n/a	0	0.422607421875	0.5869140625	0	lower	zerothre.ttf
2550.056	n/a	WORD	1275028	wordpools/wasnorm_wordpool_less_exclusions.txt	LTP288	ltpFR	1	12	1	PATROL	1027	n/a	n/a	1	0.422607421875	0.5869140625	0	lower	zerothre.ttf
2554.052	n/a	WORD	1277026	wordpools/wasnorm_wordpool_less_exclusions.txt	LTP288	ltpFR	1	12	1	BLANKET	135	n/a	n/a	0	0.422607421875	0.5869140625	0	lower	zerothre.ttf
2558.146	n/a	WORD	1279073	wordpools/wasnorm_wordpool_less_exclusions.txt	LTP288	ltpFR	1	12	1	DIRECTOR	471	n/a	n/a	1	0.422607421875	0.5869140625	0	lower	zerothre.ttf
2562.258	n/a	WORD	1281129	wordpools/wasnorm_wordpool_less_exclusions.txt	LTP288	ltpFR	1	12	1	POPCORN	1104	n/a	n/a	0	0.422607421875	0.5869140625	0	lower	zerothre.ttf
2566.084	n/a	WORD	1283042	wordpools/wasnorm_wordpool_less_exclusions.txt	LTP288	ltpFR	1	12	1	FLUTE	585	n/a	n/a	0	0.422607421875	0.5869140625	0	lower	zerothre.ttf
2570.128	n/a	WORD	1285064	wordpools/wasnorm_wordpool_less_exclusions.txt	LTP288	ltpFR	1	12	1	BELLY	119	n/a	n/a	0	0.422607421875	0.5869140625	0	lower	zerothre.ttf
2574.322	n/a	WORD	1287161	wordpools/wasnorm_wordpool_less_exclusions.txt	LTP288	ltpFR	1	12	1	BLADE	134	n/a	n/a	0	0.422607421875	0.5869140625	0	lower	zerothre.ttf
2578.284	n/a	WORD	1289142	wordpools/wasnorm_wordpool_less_exclusions.txt	LTP288	ltpFR	1	12	1	NET	946	n/a	n/a	0	0.422607421875	0.5869140625	0	lower	zerothre.ttf
2582.442	n/a	WORD	1291221	wordpools/wasnorm_wordpool_less_exclusions.txt	LTP288	ltpFR	1	12	1	LOFT	840	n/a	n/a	0	0.422607421875	0.5869140625	0	lower	zerothre.ttf
2586.554	n/a	WORD	1293277	wordpools/wasnorm_wordpool_less_exclusions.txt	LTP288	ltpFR	1	12	1	RECEPTIONIST	1174	n/a	n/a	1	0.422607421875	0.5869140625	0	lower	zerothre.ttf
2590.598	n/a	WORD	1295299	wordpools/wasnorm_wordpool_less_exclusions.txt	LTP288	ltpFR	1	12	1	TECHNICIAN	1443	n/a	n/a	1	0.422607421875	0.5869140625	0	lower	zerothre.ttf
2596.572	n/a	REC_START	1298286	n/a	LTP288	ltpFR	1	12	n/a	n/a	n/a	n/a	n/a	n/a	n/a	n/a	n/a	n/a	n/a
2597.43	n/a	REC_WORD	1298715	wordpools/wasnorm_wordpool_less_exclusions.txt	LTP288	ltpFR	1	12	1	LOFT	840	n/a	n/a	0	n/a	n/a	n/a	n/a	n/a
2598.088	n/a	REC_WORD	1299044	wordpools/wasnorm_wordpool_less_exclusions.txt	LTP288	ltpFR	1	12	1	RECEPTIONIST	1174	n/a	n/a	1	n/a	n/a	n/a	n/a	n/a
2599.218	n/a	REC_WORD	1299609	wordpools/wasnorm_wordpool_less_exclusions.txt	LTP288	ltpFR	1	12	1	TECHNICIAN	1443	n/a	n/a	1	n/a	n/a	n/a	n/a	n/a
2600.608	n/a	REC_WORD	1300304	wordpools/wasnorm_wordpool_less_exclusions.txt	LTP288	ltpFR	1	12	1	BLANKET	135	n/a	n/a	0	n/a	n/a	n/a	n/a	n/a
2696.324	n/a	WORD	1348162	wordpools/wasnorm_wordpool_less_exclusions.txt	LTP288	ltpFR	1	13	-1	LEAF	808	n/a	n/a	-1	1.0	1.0	1	upper	Verdana.ttf
2700.202	n/a	WORD	1350101	wordpools/wasnorm_wordpool_less_exclusions.txt	LTP288	ltpFR	1	13	-1	CARPENTER	246	n/a	n/a	-1	1.0	1.0	1	upper	Verdana.ttf
2704.23	n/a	WORD	1352115	wordpools/wasnorm_wordpool_less_exclusions.txt	LTP288	ltpFR	1	13	-1	SAW	1239	n/a	n/a	-1	1.0	1.0	1	upper	Verdana.ttf
2708.09	n/a	WORD	1354045	wordpools/wasnorm_wordpool_less_exclusions.txt	LTP288	ltpFR	1	13	-1	BAND	78	n/a	n/a	-1	1.0	1.0	1	upper	Verdana.ttf
2711.934	n/a	WORD	1355967	wordpools/wasnorm_wordpool_less_exclusions.txt	LTP288	ltpFR	1	13	-1	DOORBELL	487	n/a	n/a	-1	1.0	1.0	1	upper	Verdana.ttf
2715.88	n/a	WORD	1357940	wordpools/wasnorm_wordpool_less_exclusions.txt	LTP288	ltpFR	1	13	-1	COUSIN	392	n/a	n/a	-1	1.0	1.0	1	upper	Verdana.ttf
2719.99	n/a	WORD	1359995	wordpools/wasnorm_wordpool_less_exclusions.txt	LTP288	ltpFR	1	13	-1	LASH	802	n/a	n/a	-1	1.0	1.0	1	upper	Verdana.ttf
2724.218	n/a	WORD	1362109	wordpools/wasnorm_wordpool_less_exclusions.txt	LTP288	ltpFR	1	13	-1	TUNNEL	1519	n/a	n/a	-1	1.0	1.0	1	upper	Verdana.ttf
2728.246	n/a	WORD	1364123	wordpools/wasnorm_wordpool_less_exclusions.txt	LTP288	ltpFR	1	13	-1	SUBWAY	1400	n/a	n/a	-1	1.0	1.0	1	upper	Verdana.ttf
2732.104	n/a	WORD	1366052	wordpools/wasnorm_wordpool_less_exclusions.txt	LTP288	ltpFR	1	13	-1	CONTRACTOR	369	n/a	n/a	-1	1.0	1.0	1	upper	Verdana.ttf
2736.234	n/a	WORD	1368117	wordpools/wasnorm_wordpool_less_exclusions.txt	LTP288	ltpFR	1	13	-1	ATTIC	56	n/a	n/a	-1	1.0	1.0	1	upper	Verdana.ttf
2740.442	n/a	WORD	1370221	wordpools/wasnorm_wordpool_less_exclusions.txt	LTP288	ltpFR	1	13	-1	REINDEER	1181	n/a	n/a	-1	1.0	1.0	1	upper	Verdana.ttf
2744.42	n/a	WORD	1372210	wordpools/wasnorm_wordpool_less_exclusions.txt	LTP288	ltpFR	1	13	-1	BASEBALL	93	n/a	n/a	-1	1.0	1.0	1	upper	Verdana.ttf
2748.63	n/a	WORD	1374315	wordpools/wasnorm_wordpool_less_exclusions.txt	LTP288	ltpFR	1	13	-1	LIMB	822	n/a	n/a	-1	1.0	1.0	1	upper	Verdana.ttf
2752.59	n/a	WORD	1376295	wordpools/wasnorm_wordpool_less_exclusions.txt	LTP288	ltpFR	1	13	-1	ELF	525	n/a	n/a	-1	1.0	1.0	1	upper	Verdana.ttf
2756.502	n/a	WORD	1378251	wordpools/wasnorm_wordpool_less_exclusions.txt	LTP288	ltpFR	1	13	-1	FLANNEL	574	n/a	n/a	-1	1.0	1.0	1	upper	Verdana.ttf
2762.294	n/a	REC_START	1381147	n/a	LTP288	ltpFR	1	13	n/a	n/a	n/a	n/a	n/a	n/a	n/a	n/a	n/a	n/a	n/a
2762.968	n/a	REC_WORD	1381484	wordpools/wasnorm_wordpool_less_exclusions.txt	LTP288	ltpFR	1	13	-1	REINDEER	1181	n/a	n/a	-1	n/a	n/a	n/a	n/a	n/a
2763.538	n/a	REC_WORD	1381769	wordpools/wasnorm_wordpool_less_exclusions.txt	LTP288	ltpFR	1	13	-1	BASEBALL	93	n/a	n/a	-1	n/a	n/a	n/a	n/a	n/a
2764.278	n/a	REC_WORD	1382139	wordpools/wasnorm_wordpool_less_exclusions.txt	LTP288	ltpFR	1	13	-1	LIMB	822	n/a	n/a	-1	n/a	n/a	n/a	n/a	n/a
2765.344	n/a	REC_WORD	1382672	wordpools/wasnorm_wordpool_less_exclusions.txt	LTP288	ltpFR	1	13	-1	ELF	525	n/a	n/a	-1	n/a	n/a	n/a	n/a	n/a
2769.86	n/a	REC_WORD	1384930	wordpools/wasnorm_wordpool_less_exclusions.txt	LTP288	ltpFR	1	13	-1	CONTRACTOR	369	n/a	n/a	-1	n/a	n/a	n/a	n/a	n/a
2771.35	n/a	REC_WORD	1385675	wordpools/wasnorm_wordpool_less_exclusions.txt	LTP288	ltpFR	1	13	-1	ATTIC	56	n/a	n/a	-1	n/a	n/a	n/a	n/a	n/a
2797.278	n/a	REC_WORD	1398639	wordpools/wasnorm_wordpool_less_exclusions.txt	LTP288	ltpFR	1	13	-1	SUBWAY	1400	n/a	n/a	-1	n/a	n/a	n/a	n/a	n/a
2797.992	n/a	REC_WORD	1398996	wordpools/wasnorm_wordpool_less_exclusions.txt	LTP288	ltpFR	1	13	-1	TUNNEL	1519	n/a	n/a	-1	n/a	n/a	n/a	n/a	n/a
2820.272	n/a	REC_WORD	1410136	wordpools/wasnorm_wordpool_less_exclusions.txt	LTP288	ltpFR	1	13	-1	COUSIN	392	n/a	n/a	-1	n/a	n/a	n/a	n/a	n/a
2821.354	n/a	REC_WORD	1410677	wordpools/wasnorm_wordpool_less_exclusions.txt	LTP288	ltpFR	1	13	-1	LASH	802	n/a	n/a	-1	n/a	n/a	n/a	n/a	n/a
2847.784	n/a	WORD	1423892	wordpools/wasnorm_wordpool_less_exclusions.txt	LTP288	ltpFR	1	14	0	WALLET	1583	n/a	n/a	0	0.57763671875	0.412841796875	1	upper	amplitud.ttf
2851.712	n/a	WORD	1425856	wordpools/wasnorm_wordpool_less_exclusions.txt	LTP288	ltpFR	1	14	0	SHOULDER	1294	n/a	n/a	0	0.57763671875	0.412841796875	1	upper	amplitud.ttf
2855.722	n/a	WORD	1427861	wordpools/wasnorm_wordpool_less_exclusions.txt	LTP288	ltpFR	1	14	0	VASE	1549	n/a	n/a	0	0.57763671875	0.412841796875	1	upper	amplitud.ttf
2859.832	n/a	WORD	1429916	wordpools/wasnorm_wordpool_less_exclusions.txt	LTP288	ltpFR	1	14	0	TILE	1468	n/a	n/a	0	0.57763671875	0.412841796875	1	upper	amplitud.ttf
2863.844	n/a	WORD	1431922	wordpools/wasnorm_wordpool_less_exclusions.txt	LTP288	ltpFR	1	14	0	RASPBERRY	1168	n/a	n/a	0	0.57763671875	0.412841796875	1	upper	amplitud.ttf
2867.87	n/a	WORD	1433935	wordpools/wasnorm_wordpool_less_exclusions.txt	LTP288	ltpFR	1	14	0	STUDENT	1395	n/a	n/a	1	0.57763671875	0.412841796875	1	upper	amplitud.ttf
2871.832	n/a	WORD	1435916	wordpools/wasnorm_wordpool_less_exclusions.txt	LTP288	ltpFR	1	14	0	CREATURE	403	n/a	n/a	1	0.57763671875	0.412841796875	1	upper	amplitud.ttf
2875.726	n/a	WORD	1437863	wordpools/wasnorm_wordpool_less_exclusions.txt	LTP288	ltpFR	1	14	0	SIGNATURE	1306	n/a	n/a	0	0.57763671875	0.412841796875	1	upper	amplitud.ttf
2879.57	n/a	WORD	1439785	wordpools/wasnorm_wordpool_less_exclusions.txt	LTP288	ltpFR	1	14	0	BROOM	178	n/a	n/a	1	0.57763671875	0.412841796875	1	upper	amplitud.ttf
2883.564	n/a	WORD	1441782	wordpools/wasnorm_wordpool_less_exclusions.txt	LTP288	ltpFR	1	14	0	SPRINKLE	1359	n/a	n/a	0	0.57763671875	0.412841796875	1	upper	amplitud.ttf
2887.426	n/a	WORD	1443713	wordpools/wasnorm_wordpool_less_exclusions.txt	LTP288	ltpFR	1	14	0	MARINE	869	n/a	n/a	1	0.57763671875	0.412841796875	1	upper	amplitud.ttf
2891.552	n/a	WORD	1445776	wordpools/wasnorm_wordpool_less_exclusions.txt	LTP288	ltpFR	1	14	0	CLOSET	326	n/a	n/a	1	0.57763671875	0.412841796875	1	upper	amplitud.ttf
2895.43	n/a	WORD	1447715	wordpools/wasnorm_wordpool_less_exclusions.txt	LTP288	ltpFR	1	14	0	ATTIRE	57	n/a	n/a	1	0.57763671875	0.412841796875	1	upper	amplitud.ttf
2899.49	n/a	WORD	1449745	wordpools/wasnorm_wordpool_less_exclusions.txt	LTP288	ltpFR	1	14	0	VAULT	1550	n/a	n/a	1	0.57763671875	0.412841796875	1	upper	amplitud.ttf
2903.436	n/a	WORD	1451718	wordpools/wasnorm_wordpool_less_exclusions.txt	LTP288	ltpFR	1	14	0	TART	1436	n/a	n/a	0	0.57763671875	0.412841796875	1	upper	amplitud.ttf
2907.578	n/a	WORD	1453789	wordpools/wasnorm_wordpool_less_exclusions.txt	LTP288	ltpFR	1	14	0	CROCODILE	411	n/a	n/a	1	0.57763671875	0.412841796875	1	upper	amplitud.ttf
2913.486	n/a	REC_START	1456743	n/a	LTP288	ltpFR	1	14	n/a	n/a	n/a	n/a	n/a	n/a	n/a	n/a	n/a	n/a	n/a
2915.372	n/a	REC_WORD	1457686	wordpools/wasnorm_wordpool_less_exclusions.txt	LTP288	ltpFR	1	14	0	TILE	1468	n/a	n/a	0	n/a	n/a	n/a	n/a	n/a
2916.324	n/a	REC_WORD	1458162	wordpools/wasnorm_wordpool_less_exclusions.txt	LTP288	ltpFR	1	14	0	CROCODILE	411	n/a	n/a	1	n/a	n/a	n/a	n/a	n/a
2919.778	n/a	REC_WORD	1459889	wordpools/wasnorm_wordpool_less_exclusions.txt	LTP288	ltpFR	1	14	0	VAULT	1550	n/a	n/a	1	n/a	n/a	n/a	n/a	n/a
2927.16	n/a	REC_WORD	1463580	wordpools/wasnorm_wordpool_less_exclusions.txt	LTP288	ltpFR	1	14	0	SPRINKLE	1359	n/a	n/a	0	n/a	n/a	n/a	n/a	n/a
2930.486	n/a	REC_WORD	1465243	wordpools/wasnorm_wordpool_less_exclusions.txt	LTP288	ltpFR	1	14	0	MARINE	869	n/a	n/a	1	n/a	n/a	n/a	n/a	n/a
2931.51	n/a	REC_WORD	1465755	wordpools/wasnorm_wordpool_less_exclusions.txt	LTP288	ltpFR	1	14	0	ATTIRE	57	n/a	n/a	1	n/a	n/a	n/a	n/a	n/a
2938.598	n/a	REC_WORD	1469299	wordpools/wasnorm_wordpool_less_exclusions.txt	LTP288	ltpFR	1	14	0	WALLET	1583	n/a	n/a	0	n/a	n/a	n/a	n/a	n/a
2946.644	n/a	REC_WORD	1473322	wordpools/wasnorm_wordpool_less_exclusions.txt	LTP288	ltpFR	1	14	0	STUDENT	1395	n/a	n/a	1	n/a	n/a	n/a	n/a	n/a
2947.772	n/a	REC_WORD	1473886	wordpools/wasnorm_wordpool_less_exclusions.txt	LTP288	ltpFR	1	14	0	CREATURE	403	n/a	n/a	1	n/a	n/a	n/a	n/a	n/a
2951.26	n/a	REC_WORD	1475630	wordpools/wasnorm_wordpool_less_exclusions.txt	LTP288	ltpFR	1	14	0	CROCODILE	411	n/a	n/a	1	n/a	n/a	n/a	n/a	n/a
2996.264	n/a	WORD	1498132	wordpools/wasnorm_wordpool_less_exclusions.txt	LTP288	ltpFR	1	15	1	FIREMAN	569	n/a	n/a	1	0.422607421875	0.5869140625	0	lower	zerothre.ttf
3000.142	n/a	WORD	1500071	wordpools/wasnorm_wordpool_less_exclusions.txt	LTP288	ltpFR	1	15	1	CANARY	227	n/a	n/a	1	0.422607421875	0.5869140625	0	lower	zerothre.ttf
3004.32	n/a	WORD	1502160	wordpools/wasnorm_wordpool_less_exclusions.txt	LTP288	ltpFR	1	15	1	BIRD	129	n/a	n/a	1	0.422607421875	0.5869140625	0	lower	zerothre.ttf
3008.446	n/a	WORD	1504223	wordpools/wasnorm_wordpool_less_exclusions.txt	LTP288	ltpFR	1	15	0	HIGHWAY	707	n/a	n/a	1	0.57763671875	0.412841796875	1	upper	amplitud.ttf
3012.424	n/a	WORD	1506212	wordpools/wasnorm_wordpool_less_exclusions.txt	LTP288	ltpFR	1	15	0	DANCER	437	n/a	n/a	1	0.57763671875	0.412841796875	1	upper	amplitud.ttf
3016.55	n/a	WORD	1508275	wordpools/wasnorm_wordpool_less_exclusions.txt	LTP288	ltpFR	1	15	0	CHAIN	273	n/a	n/a	0	0.57763671875	0.412841796875	1	upper	amplitud.ttf
3020.478	n/a	WORD	1510239	wordpools/wasnorm_wordpool_less_exclusions.txt	LTP288	ltpFR	1	15	0	AUTOMOBILE	62	n/a	n/a	1	0.57763671875	0.412841796875	1	upper	amplitud.ttf
3024.406	n/a	WORD	1512203	wordpools/wasnorm_wordpool_less_exclusions.txt	LTP288	ltpFR	1	15	1	FORK	594	n/a	n/a	0	0.422607421875	0.5869140625	0	lower	zerothre.ttf
3028.582	n/a	WORD	1514291	wordpools/wasnorm_wordpool_less_exclusions.txt	LTP288	ltpFR	1	15	1	BRICK	172	n/a	n/a	0	0.422607421875	0.5869140625	0	lower	zerothre.ttf
3032.644	n/a	WORD	1516322	wordpools/wasnorm_wordpool_less_exclusions.txt	LTP288	ltpFR	1	15	1	SPONGE	1355	n/a	n/a	0	0.422607421875	0.5869140625	0	lower	zerothre.ttf
3036.804	n/a	WORD	1518402	wordpools/wasnorm_wordpool_less_exclusions.txt	LTP288	ltpFR	1	15	0	SWORD	1423	n/a	n/a	1	0.57763671875	0.412841796875	1	upper	amplitud.ttf
3040.882	n/a	WORD	1520441	wordpools/wasnorm_wordpool_less_exclusions.txt	LTP288	ltpFR	1	15	0	HOOD	714	n/a	n/a	0	0.57763671875	0.412841796875	1	upper	amplitud.ttf
3044.742	n/a	WORD	1522371	wordpools/wasnorm_wordpool_less_exclusions.txt	LTP288	ltpFR	1	15	0	CHERRY	293	n/a	n/a	0	0.57763671875	0.412841796875	1	upper	amplitud.ttf
3048.702	n/a	WORD	1524351	wordpools/wasnorm_wordpool_less_exclusions.txt	LTP288	ltpFR	1	15	0	ALMOND	18	n/a	n/a	0	0.57763671875	0.412841796875	1	upper	amplitud.ttf
3052.564	n/a	WORD	1526282	wordpools/wasnorm_wordpool_less_exclusions.txt	LTP288	ltpFR	1	15	1	APPLICATION	34	n/a	n/a	0	0.422607421875	0.5869140625	0	lower	zerothre.ttf
3056.524	n/a	WORD	1528262	wordpools/wasnorm_wordpool_less_exclusions.txt	LTP288	ltpFR	1	15	1	SUPERVISOR	1410	n/a	n/a	1	0.422607421875	0.5869140625	0	lower	zerothre.ttf
3062.35	n/a	REC_START	1531175	n/a	LTP288	ltpFR	1	15	n/a	n/a	n/a	n/a	n/a	n/a	n/a	n/a	n/a	n/a	n/a
3062.968	n/a	REC_WORD	1531484	wordpools/wasnorm_wordpool_less_exclusions.txt	LTP288	ltpFR	1	15	1	APPLICATION	34	n/a	n/a	0	n/a	n/a	n/a	n/a	n/a
3063.87	n/a	REC_WORD	1531935	wordpools/wasnorm_wordpool_less_exclusions.txt	LTP288	ltpFR	1	15	1	SUPERVISOR	1410	n/a	n/a	1	n/a	n/a	n/a	n/a	n/a
3065.07	n/a	REC_WORD	1532535	wordpools/wasnorm_wordpool_less_exclusions.txt	LTP288	ltpFR	1	15	0	ALMOND	18	n/a	n/a	0	n/a	n/a	n/a	n/a	n/a
3065.68	n/a	REC_WORD	1532840	wordpools/wasnorm_wordpool_less_exclusions.txt	LTP288	ltpFR	1	15	0	CHERRY	293	n/a	n/a	0	n/a	n/a	n/a	n/a	n/a
3066.242	n/a	REC_WORD	1533121	wordpools/wasnorm_wordpool_less_exclusions.txt	LTP288	ltpFR	1	15	1	SPONGE	1355	n/a	n/a	0	n/a	n/a	n/a	n/a	n/a
3067.014	n/a	REC_WORD	1533507	wordpools/wasnorm_wordpool_less_exclusions.txt	LTP288	ltpFR	1	15	0	SWORD	1423	n/a	n/a	1	n/a	n/a	n/a	n/a	n/a
3086.902	n/a	REC_WORD	1543451	wordpools/wasnorm_wordpool_less_exclusions.txt	LTP288	ltpFR	1	15	0	HIGHWAY	707	n/a	n/a	1	n/a	n/a	n/a	n/a	n/a
3114.066	n/a	REC_WORD	1557033	wordpools/wasnorm_wordpool_less_exclusions.txt	LTP288	ltpFR	1	15	1	CANARY	227	n/a	n/a	1	n/a	n/a	n/a	n/a	n/a
3123.772	n/a	REC_WORD	1561886	wordpools/wasnorm_wordpool_less_exclusions.txt	LTP288	ltpFR	1	15	1	BIRD	129	n/a	n/a	1	n/a	n/a	n/a	n/a	n/a
3153.166	n/a	WORD	1576583	wordpools/wasnorm_wordpool_less_exclusions.txt	LTP288	ltpFR	1	16	0	WALL	1582	n/a	n/a	1	0.57763671875	0.412841796875	1	upper	amplitud.ttf
3157.01	n/a	WORD	1578505	wordpools/wasnorm_wordpool_less_exclusions.txt	LTP288	ltpFR	1	16	0	BRANDY	169	n/a	n/a	0	0.57763671875	0.412841796875	1	upper	amplitud.ttf
3161.104	n/a	WORD	1580552	wordpools/wasnorm_wordpool_less_exclusions.txt	LTP288	ltpFR	1	16	0	BOTTLE	153	n/a	n/a	0	0.57763671875	0.412841796875	1	upper	amplitud.ttf
3165.182	n/a	WORD	1582591	wordpools/wasnorm_wordpool_less_exclusions.txt	LTP288	ltpFR	1	16	0	BANDANNA	80	n/a	n/a	0	0.57763671875	0.412841796875	1	upper	amplitud.ttf
3169.21	n/a	WORD	1584605	wordpools/wasnorm_wordpool_less_exclusions.txt	LTP288	ltpFR	1	16	0	SHORTCAKE	1292	n/a	n/a	0	0.57763671875	0.412841796875	1	upper	amplitud.ttf
3173.32	n/a	WORD	1586660	wordpools/wasnorm_wordpool_less_exclusions.txt	LTP288	ltpFR	1	16	0	NAPKIN	937	n/a	n/a	0	0.57763671875	0.412841796875	1	upper	amplitud.ttf
3177.18	n/a	WORD	1588590	wordpools/wasnorm_wordpool_less_exclusions.txt	LTP288	ltpFR	1	16	0	PRINTER	1126	n/a	n/a	1	0.57763671875	0.412841796875	1	upper	amplitud.ttf
3181.292	n/a	WORD	1590646	wordpools/wasnorm_wordpool_less_exclusions.txt	LTP288	ltpFR	1	16	0	JELLO	754	n/a	n/a	0	0.57763671875	0.412841796875	1	upper	amplitud.ttf
3185.418	n/a	WORD	1592709	wordpools/wasnorm_wordpool_less_exclusions.txt	LTP288	ltpFR	1	16	0	KEYBOARD	774	n/a	n/a	1	0.57763671875	0.412841796875	1	upper	amplitud.ttf
3189.594	n/a	WORD	1594797	wordpools/wasnorm_wordpool_less_exclusions.txt	LTP288	ltpFR	1	16	0	APPLE	33	n/a	n/a	0	0.57763671875	0.412841796875	1	upper	amplitud.ttf
3193.538	n/a	WORD	1596769	wordpools/wasnorm_wordpool_less_exclusions.txt	LTP288	ltpFR	1	16	0	CUPBOARD	425	n/a	n/a	1	0.57763671875	0.412841796875	1	upper	amplitud.ttf
3197.384	n/a	WORD	1598692	wordpools/wasnorm_wordpool_less_exclusions.txt	LTP288	ltpFR	1	16	0	SIGN	1305	n/a	n/a	1	0.57763671875	0.412841796875	1	upper	amplitud.ttf
3201.362	n/a	WORD	1600681	wordpools/wasnorm_wordpool_less_exclusions.txt	LTP288	ltpFR	1	16	0	CUBE	420	n/a	n/a	0	0.57763671875	0.412841796875	1	upper	amplitud.ttf
3205.256	n/a	WORD	1602628	wordpools/wasnorm_wordpool_less_exclusions.txt	LTP288	ltpFR	1	16	0	CYLINDER	432	n/a	n/a	0	0.57763671875	0.412841796875	1	upper	amplitud.ttf
3209.182	n/a	WORD	1604591	wordpools/wasnorm_wordpool_less_exclusions.txt	LTP288	ltpFR	1	16	0	CAN	225	n/a	n/a	0	0.57763671875	0.412841796875	1	upper	amplitud.ttf
3213.376	n/a	WORD	1606688	wordpools/wasnorm_wordpool_less_exclusions.txt	LTP288	ltpFR	1	16	0	MICROWAVE	892	n/a	n/a	1	0.57763671875	0.412841796875	1	upper	amplitud.ttf
3219.1	n/a	REC_START	1609550	n/a	LTP288	ltpFR	1	16	n/a	n/a	n/a	n/a	n/a	n/a	n/a	n/a	n/a	n/a	n/a
3219.798	n/a	REC_WORD	1609899	wordpools/wasnorm_wordpool_less_exclusions.txt	LTP288	ltpFR	1	16	0	CUBE	420	n/a	n/a	0	n/a	n/a	n/a	n/a	n/a
3220.432	n/a	REC_WORD	1610216	wordpools/wasnorm_wordpool_less_exclusions.txt	LTP288	ltpFR	1	16	0	CYLINDER	432	n/a	n/a	0	n/a	n/a	n/a	n/a	n/a
3221.404	n/a	REC_WORD	1610702	wordpools/wasnorm_wordpool_less_exclusions.txt	LTP288	ltpFR	1	16	0	CAN	225	n/a	n/a	0	n/a	n/a	n/a	n/a	n/a
3222.228	n/a	REC_WORD	1611114	wordpools/wasnorm_wordpool_less_exclusions.txt	LTP288	ltpFR	1	16	0	MICROWAVE	892	n/a	n/a	1	n/a	n/a	n/a	n/a	n/a
3223.104	n/a	REC_WORD	1611552	wordpools/wasnorm_wordpool_less_exclusions.txt	LTP288	ltpFR	1	16	0	BRANDY	169	n/a	n/a	0	n/a	n/a	n/a	n/a	n/a
3223.9	n/a	REC_WORD	1611950	wordpools/wasnorm_wordpool_less_exclusions.txt	LTP288	ltpFR	1	16	0	BOTTLE	153	n/a	n/a	0	n/a	n/a	n/a	n/a	n/a
3224.542	n/a	REC_WORD	1612271	wordpools/wasnorm_wordpool_less_exclusions.txt	LTP288	ltpFR	1	16	0	BANDANNA	80	n/a	n/a	0	n/a	n/a	n/a	n/a	n/a
3241.12	n/a	REC_WORD	1620560	wordpools/wasnorm_wordpool_less_exclusions.txt	LTP288	ltpFR	1	16	0	CUPBOARD	425	n/a	n/a	1	n/a	n/a	n/a	n/a	n/a
3242.492	n/a	REC_WORD	1621246	wordpools/wasnorm_wordpool_less_exclusions.txt	LTP288	ltpFR	1	16	0	SHORTCAKE	1292	n/a	n/a	0	n/a	n/a	n/a	n/a	n/a
3272.168	n/a	REC_WORD	1636084	wordpools/wasnorm_wordpool_less_exclusions.txt	LTP288	ltpFR	1	16	0	CAN	225	n/a	n/a	0	n/a	n/a	n/a	n/a	n/a
3312.08	n/a	REC_START	1656040	n/a	LTP288	ltpFR	1	n/a	n/a	n/a	n/a	n/a	n/a	n/a	n/a	n/a	n/a	n/a	n/a
3313.064	n/a	FFR_REC_WORD	1656532	wordpools/wasnorm_wordpool_less_exclusions.txt	LTP288	ltpFR	1	n/a	0	CUBE	420	n/a	n/a	0	n/a	n/a	n/a	n/a	n/a
3313.66	n/a	FFR_REC_WORD	1656830	wordpools/wasnorm_wordpool_less_exclusions.txt	LTP288	ltpFR	1	n/a	0	CYLINDER	432	n/a	n/a	0	n/a	n/a	n/a	n/a	n/a
3314.584	n/a	FFR_REC_WORD	1657292	wordpools/wasnorm_wordpool_less_exclusions.txt	LTP288	ltpFR	1	n/a	0	CAN	225	n/a	n/a	0	n/a	n/a	n/a	n/a	n/a
3315.332	n/a	FFR_REC_WORD	1657666	wordpools/wasnorm_wordpool_less_exclusions.txt	LTP288	ltpFR	1	n/a	0	SHORTCAKE	1292	n/a	n/a	0	n/a	n/a	n/a	n/a	n/a
3316.126	n/a	FFR_REC_WORD	1658063	wordpools/wasnorm_wordpool_less_exclusions.txt	LTP288	ltpFR	1	n/a	0	BRANDY	169	n/a	n/a	0	n/a	n/a	n/a	n/a	n/a
3316.83	n/a	FFR_REC_WORD	1658415	wordpools/wasnorm_wordpool_less_exclusions.txt	LTP288	ltpFR	1	n/a	0	BOTTLE	153	n/a	n/a	0	n/a	n/a	n/a	n/a	n/a
3317.354	n/a	FFR_REC_WORD	1658677	wordpools/wasnorm_wordpool_less_exclusions.txt	LTP288	ltpFR	1	n/a	0	BANDANNA	80	n/a	n/a	0	n/a	n/a	n/a	n/a	n/a
3318.082	n/a	FFR_REC_WORD	1659041	wordpools/wasnorm_wordpool_less_exclusions.txt	LTP288	ltpFR	1	n/a	0	FISH	571	n/a	n/a	0	n/a	n/a	n/a	n/a	n/a
3321.918	n/a	FFR_REC_WORD	1660959	wordpools/wasnorm_wordpool_less_exclusions.txt	LTP288	ltpFR	1	n/a	0	WAITRESS	1581	n/a	n/a	1	n/a	n/a	n/a	n/a	n/a
3325.67	n/a	FFR_REC_WORD	1662835	wordpools/wasnorm_wordpool_less_exclusions.txt	LTP288	ltpFR	1	n/a	0	BARRACUDA	90	n/a	n/a	1	n/a	n/a	n/a	n/a	n/a
3326.852	n/a	FFR_REC_WORD	1663426	wordpools/wasnorm_wordpool_less_exclusions.txt	LTP288	ltpFR	1	n/a	1	OCTOPUS	971	n/a	n/a	1	n/a	n/a	n/a	n/a	n/a
3327.984	n/a	FFR_REC_WORD	1663992	wordpools/wasnorm_wordpool_less_exclusions.txt	LTP288	ltpFR	1	n/a	-1	PIRATE	1074	n/a	n/a	-1	n/a	n/a	n/a	n/a	n/a
3329.746	n/a	FFR_REC_WORD	1664873	wordpools/wasnorm_wordpool_less_exclusions.txt	LTP288	ltpFR	1	n/a	-1	LEG	809	n/a	n/a	-1	n/a	n/a	n/a	n/a	n/a
3330.928	n/a	FFR_REC_WORD	1665464	wordpools/wasnorm_wordpool_less_exclusions.txt	LTP288	ltpFR	1	n/a	-1	DECK	443	n/a	n/a	-1	n/a	n/a	n/a	n/a	n/a
3342.826	n/a	FFR_REC_WORD	1671413	wordpools/wasnorm_wordpool_less_exclusions.txt	LTP288	ltpFR	1	n/a	1	CANARY	227	n/a	n/a	1	n/a	n/a	n/a	n/a	n/a
3346.786	n/a	FFR_REC_WORD	1673393	wordpools/wasnorm_wordpool_less_exclusions.txt	LTP288	ltpFR	1	n/a	0	CUPBOARD	425	n/a	n/a	1	n/a	n/a	n/a	n/a	n/a
3349.006	n/a	FFR_REC_WORD	1674503	wordpools/wasnorm_wordpool_less_exclusions.txt	LTP288	ltpFR	1	n/a	0	CROCODILE	411	n/a	n/a	1	n/a	n/a	n/a	n/a	n/a
3355.128	n/a	FFR_REC_WORD	1677564	wordpools/wasnorm_wordpool_less_exclusions.txt	LTP288	ltpFR	1	n/a	0	HIGHWAY	707	n/a	n/a	1	n/a	n/a	n/a	n/a	n/a
3359.034	n/a	FFR_REC_WORD_VV	1679517	wordpools/wasnorm_wordpool_less_exclusions.txt	LTP288	ltpFR	1	n/a	n/a	<>	-1	n/a	n/a	n/a	n/a	n/a	n/a	n/a	n/a
3363.124	n/a	FFR_REC_WORD	1681562	wordpools/wasnorm_wordpool_less_exclusions.txt	LTP288	ltpFR	1	n/a	1	SUPERVISOR	1410	n/a	n/a	1	n/a	n/a	n/a	n/a	n/a
3365.08	n/a	FFR_REC_WORD	1682540	wordpools/wasnorm_wordpool_less_exclusions.txt	LTP288	ltpFR	1	n/a	1	RECEPTIONIST	1174	n/a	n/a	1	n/a	n/a	n/a	n/a	n/a
3366.08	n/a	FFR_REC_WORD_VV	1683040	wordpools/wasnorm_wordpool_less_exclusions.txt	LTP288	ltpFR	1	n/a	n/a	<>	-1	n/a	n/a	n/a	n/a	n/a	n/a	n/a	n/a
3372.134	n/a	FFR_REC_WORD	1686067	wordpools/wasnorm_wordpool_less_exclusions.txt	LTP288	ltpFR	1	n/a	0	WALLET	1583	n/a	n/a	0	n/a	n/a	n/a	n/a	n/a
3374.16	n/a	FFR_REC_WORD	1687080	wordpools/wasnorm_wordpool_less_exclusions.txt	LTP288	ltpFR	1	n/a	0	BILL	126	n/a	n/a	0	n/a	n/a	n/a	n/a	n/a
3374.894	n/a	FFR_REC_WORD	1687447	wordpools/wasnorm_wordpool_less_exclusions.txt	LTP288	ltpFR	1	n/a	0	QUARTER	1148	n/a	n/a	0	n/a	n/a	n/a	n/a	n/a
3375.538	n/a	FFR_REC_WORD	1687769	wordpools/wasnorm_wordpool_less_exclusions.txt	LTP288	ltpFR	1	n/a	0	CENT	270	n/a	n/a	0	n/a	n/a	n/a	n/a	n/a
3381.308	n/a	FFR_REC_WORD	1690654	wordpools/wasnorm_wordpool_less_exclusions.txt	LTP288	ltpFR	1	n/a	1	SPINE	1353	n/a	n/a	0	n/a	n/a	n/a	n/a	n/a
3382.366	n/a	FFR_REC_WORD	1691183	wordpools/wasnorm_wordpool_less_exclusions.txt	LTP288	ltpFR	1	n/a	1	FINGERNAIL	568	n/a	n/a	0	n/a	n/a	n/a	n/a	n/a
3383.43	n/a	FFR_REC_WORD	1691715	wordpools/wasnorm_wordpool_less_exclusions.txt	LTP288	ltpFR	1	n/a	1	PALM	1007	n/a	n/a	0	n/a	n/a	n/a	n/a	n/a
3387.05	n/a	FFR_REC_WORD	1693525	wordpools/wasnorm_wordpool_less_exclusions.txt	LTP288	ltpFR	1	n/a	-1	SUBWAY	1400	n/a	n/a	-1	n/a	n/a	n/a	n/a	n/a
3388.462	n/a	FFR_REC_WORD	1694231	wordpools/wasnorm_wordpool_less_exclusions.txt	LTP288	ltpFR	1	n/a	-1	TUNNEL	1519	n/a	n/a	-1	n/a	n/a	n/a	n/a	n/a
3397.176	n/a	FFR_REC_WORD	1698588	wordpools/wasnorm_wordpool_less_exclusions.txt	LTP288	ltpFR	1	n/a	-1	DOG	480	n/a	n/a	-1	n/a	n/a	n/a	n/a	n/a
3401.064	n/a	FFR_REC_WORD	1700532	wordpools/wasnorm_wordpool_less_exclusions.txt	LTP288	ltpFR	1	n/a	1	SQUID	1361	n/a	n/a	1	n/a	n/a	n/a	n/a	n/a
3402.97	n/a	FFR_REC_WORD	1701485	wordpools/wasnorm_wordpool_less_exclusions.txt	LTP288	ltpFR	1	n/a	0	FISH	571	n/a	n/a	0	n/a	n/a	n/a	n/a	n/a
3415.172	n/a	FFR_REC_WORD	1707586	wordpools/wasnorm_wordpool_less_exclusions.txt	LTP288	ltpFR	1	n/a	1	PERISCOPE	1050	n/a	n/a	0	n/a	n/a	n/a	n/a	n/a
3419.616	n/a	FFR_REC_WORD	1709808	wordpools/wasnorm_wordpool_less_exclusions.txt	LTP288	ltpFR	1	n/a	1	METEOR	889	n/a	n/a	0	n/a	n/a	n/a	n/a	n/a
3451.226	n/a	FFR_REC_WORD	1725613	wordpools/wasnorm_wordpool_less_exclusions.txt	LTP288	ltpFR	1	n/a	0	AUTOMOBILE	62	n/a	n/a	1	n/a	n/a	n/a	n/a	n/a
3463.632	n/a	FFR_REC_WORD	1731816	wordpools/wasnorm_wordpool_less_exclusions.txt	LTP288	ltpFR	1	n/a	1	TREE	1502	n/a	n/a	1	n/a	n/a	n/a	n/a	n/a
3518.55	n/a	FFR_REC_WORD	1759275	wordpools/wasnorm_wordpool_less_exclusions.txt	LTP288	ltpFR	1	n/a	n/a	COMPUTER	359	n/a	n/a	n/a	n/a	n/a	n/a	n/a	n/a
3531.62	n/a	FFR_REC_WORD	1765810	wordpools/wasnorm_wordpool_less_exclusions.txt	LTP288	ltpFR	1	n/a	1	CREVICE	405	n/a	n/a	0	n/a	n/a	n/a	n/a	n/a
3538.334	n/a	FFR_REC_WORD	1769167	wordpools/wasnorm_wordpool_less_exclusions.txt	LTP288	ltpFR	1	n/a	1	TREAD	1499	n/a	n/a	0	n/a	n/a	n/a	n/a	n/a
3542.126	n/a	FFR_REC_WORD	1771063	wordpools/wasnorm_wordpool_less_exclusions.txt	LTP288	ltpFR	1	n/a	-1	VALLEY	1545	n/a	n/a	-1	n/a	n/a	n/a	n/a	n/a
3549.624	n/a	FFR_REC_WORD	1774812	wordpools/wasnorm_wordpool_less_exclusions.txt	LTP288	ltpFR	1	n/a	-1	DISHWASHER	475	n/a	n/a	-1	n/a	n/a	n/a	n/a	n/a
3599.226	n/a	FFR_REC_WORD	1799613	wordpools/wasnorm_wordpool_less_exclusions.txt	LTP288	ltpFR	1	n/a	-1	ATTIC	56	n/a	n/a	-1	n/a	n/a	n/a	n/a	n/a
3931.88	n/a	REC_START	1965940	n/a	LTP288	ltpFR	1	1	n/a	n/a	n/a	n/a	n/a	n/a	n/a	n/a	n/a	n/a	n/a
3931.912	n/a	RECOG_TARGET	1965956	n/a	LTP288	ltpFR	1	1	1	DIRECTOR	471	1	2	1	n/a	n/a	n/a	n/a	n/a
3934.88	n/a	RECOG_RESP	1967440	n/a	LTP288	ltpFR	1	1	1	DIRECTOR	471	1	n/a	1	n/a	n/a	n/a	n/a	n/a
3936.32	n/a	RECOG_CONF	1968160	n/a	LTP288	ltpFR	1	1	1	DIRECTOR	471	n/a	2	1	n/a	n/a	n/a	n/a	n/a
3938.238	n/a	RECOG_LURE	1969119	n/a	LTP288	ltpFR	1	1	n/a	MOB	904	0	3	n/a	n/a	n/a	n/a	n/a	n/a
3939.76	n/a	RECOG_RESP	1969880	n/a	LTP288	ltpFR	1	1	n/a	MOB	904	0	n/a	n/a	n/a	n/a	n/a	n/a	n/a
3941.04	n/a	RECOG_CONF	1970520	n/a	LTP288	ltpFR	1	1	n/a	MOB	904	n/a	3	n/a	n/a	n/a	n/a	n/a	n/a
3942.83	n/a	RECOG_TARGET	1971415	n/a	LTP288	ltpFR	1	1	1	HAT	690	0	2	0	n/a	n/a	n/a	n/a	n/a
3945.45	n/a	RECOG_RESP	1972725	n/a	LTP288	ltpFR	1	1	1	HAT	690	0	n/a	0	n/a	n/a	n/a	n/a	n/a
3946.84	n/a	RECOG_CONF	1973420	n/a	LTP288	ltpFR	1	1	1	HAT	690	n/a	2	0	n/a	n/a	n/a	n/a	n/a
3948.572	n/a	RECOG_LURE	1974286	n/a	LTP288	ltpFR	1	1	n/a	GULL	671	0	4	n/a	n/a	n/a	n/a	n/a	n/a
3949.55	n/a	RECOG_RESP	1974775	n/a	LTP288	ltpFR	1	1	n/a	GULL	671	0	n/a	n/a	n/a	n/a	n/a	n/a	n/a
3950.42	n/a	RECOG_CONF	1975210	n/a	LTP288	ltpFR	1	1	n/a	GULL	671	n/a	4	n/a	n/a	n/a	n/a	n/a	n/a
3952.3	n/a	RECOG_TARGET	1976150	n/a	LTP288	ltpFR	1	1	1	TACK	1428	1	5	0	n/a	n/a	n/a	n/a	n/a
3953.12	n/a	RECOG_RESP	1976560	n/a	LTP288	ltpFR	1	1	1	TACK	1428	1	n/a	0	n/a	n/a	n/a	n/a	n/a
3954.15	n/a	RECOG_CONF	1977075	n/a	LTP288	ltpFR	1	1	1	TACK	1428	n/a	5	0	n/a	n/a	n/a	n/a	n/a
3955.976	n/a	RECOG_TARGET	1977988	n/a	LTP288	ltpFR	1	1	1	ACTOR	5	0	3	1	n/a	n/a	n/a	n/a	n/a
3957.266	n/a	RECOG_RESP	1978633	n/a	LTP288	ltpFR	1	1	1	ACTOR	5	0	n/a	1	n/a	n/a	n/a	n/a	n/a
3958.49	n/a	RECOG_CONF	1979245	n/a	LTP288	ltpFR	1	1	1	ACTOR	5	n/a	3	1	n/a	n/a	n/a	n/a	n/a
3960.188	n/a	RECOG_TARGET	1980094	n/a	LTP288	ltpFR	1	1	0	VIKING	1565	0	3	1	n/a	n/a	n/a	n/a	n/a
3961.636	n/a	RECOG_RESP	1980818	n/a	LTP288	ltpFR	1	1	0	VIKING	1565	0	n/a	1	n/a	n/a	n/a	n/a	n/a
3962.792	n/a	RECOG_CONF	1981396	n/a	LTP288	ltpFR	1	1	0	VIKING	1565	n/a	3	1	n/a	n/a	n/a	n/a	n/a
3964.548	n/a	RECOG_TARGET	1982274	n/a	LTP288	ltpFR	1	1	1	RECEPTIONIST	1174	1	5	1	n/a	n/a	n/a	n/a	n/a
3965.486	n/a	RECOG_RESP	1982743	n/a	LTP288	ltpFR	1	1	1	RECEPTIONIST	1174	1	n/a	1	n/a	n/a	n/a	n/a	n/a
3966.382	n/a	RECOG_CONF	1983191	n/a	LTP288	ltpFR	1	1	1	RECEPTIONIST	1174	n/a	5	1	n/a	n/a	n/a	n/a	n/a
3968.194	n/a	RECOG_LURE	1984097	n/a	LTP288	ltpFR	1	1	n/a	SARDINE	1235	1	3	n/a	n/a	n/a	n/a	n/a	n/a
3969.836	n/a	RECOG_RESP	1984918	n/a	LTP288	ltpFR	1	1	n/a	SARDINE	1235	1	n/a	n/a	n/a	n/a	n/a	n/a	n/a
3970.242	n/a	RECOG_CONF	1985121	n/a	LTP288	ltpFR	1	1	n/a	SARDINE	1235	n/a	3	n/a	n/a	n/a	n/a	n/a	n/a
3972.72	n/a	RECOG_LURE	1986360	n/a	LTP288	ltpFR	1	1	n/a	NOTE	958	0	2	n/a	n/a	n/a	n/a	n/a	n/a
3974.002	n/a	RECOG_RESP	1987001	n/a	LTP288	ltpFR	1	1	n/a	NOTE	958	0	n/a	n/a	n/a	n/a	n/a	n/a	n/a
3975.402	n/a	RECOG_CONF	1987701	n/a	LTP288	ltpFR	1	1	n/a	NOTE	958	n/a	2	n/a	n/a	n/a	n/a	n/a	n/a
3977.214	n/a	RECOG_LURE	1988607	n/a	LTP288	ltpFR	1	1	n/a	STICKER	1382	0	2	n/a	n/a	n/a	n/a	n/a	n/a
3978.192	n/a	RECOG_RESP	1989096	n/a	LTP288	ltpFR	1	1	n/a	STICKER	1382	0	n/a	n/a	n/a	n/a	n/a	n/a	n/a
3979.472	n/a	RECOG_CONF	1989736	n/a	LTP288	ltpFR	1	1	n/a	STICKER	1382	n/a	2	n/a	n/a	n/a	n/a	n/a	n/a
3981.14	n/a	RECOG_LURE	1990570	n/a	LTP288	ltpFR	1	1	n/a	THREAD	1460	1	3	n/a	n/a	n/a	n/a	n/a	n/a
3982.072	n/a	RECOG_RESP	1991036	n/a	LTP288	ltpFR	1	1	n/a	THREAD	1460	1	n/a	n/a	n/a	n/a	n/a	n/a	n/a
3983.132	n/a	RECOG_CONF	1991566	n/a	LTP288	ltpFR	1	1	n/a	THREAD	1460	n/a	3	n/a	n/a	n/a	n/a	n/a	n/a
3984.868	n/a	RECOG_TARGET	1992434	n/a	LTP288	ltpFR	1	1	0	JELLO	754	1	5	0	n/a	n/a	n/a	n/a	n/a
3985.502	n/a	RECOG_RESP	1992751	n/a	LTP288	ltpFR	1	1	0	JELLO	754	1	n/a	0	n/a	n/a	n/a	n/a	n/a
3986.482	n/a	RECOG_CONF	1993241	n/a	LTP288	ltpFR	1	1	0	JELLO	754	n/a	5	0	n/a	n/a	n/a	n/a	n/a
3988.462	n/a	RECOG_TARGET	1994231	n/a	LTP288	ltpFR	1	1	-1	CONTRACTOR	369	1	3	-1	n/a	n/a	n/a	n/a	n/a
3989.826	n/a	RECOG_RESP	1994913	n/a	LTP288	ltpFR	1	1	-1	CONTRACTOR	369	1	n/a	-1	n/a	n/a	n/a	n/a	n/a
3991.032	n/a	RECOG_CONF	1995516	n/a	LTP288	ltpFR	1	1	-1	CONTRACTOR	369	n/a	3	-1	n/a	n/a	n/a	n/a	n/a
3992.872	n/a	RECOG_LURE	1996436	n/a	LTP288	ltpFR	1	1	n/a	SUSPECT	1415	1	2	n/a	n/a	n/a	n/a	n/a	n/a
3994.942	n/a	RECOG_RESP	1997471	n/a	LTP288	ltpFR	1	1	n/a	SUSPECT	1415	1	n/a	n/a	n/a	n/a	n/a	n/a	n/a
3996.142	n/a	RECOG_CONF	1998071	n/a	LTP288	ltpFR	1	1	n/a	SUSPECT	1415	n/a	2	n/a	n/a	n/a	n/a	n/a	n/a
3998.032	n/a	RECOG_TARGET	1999016	n/a	LTP288	ltpFR	1	1	1	GLASSES	640	1	3	0	n/a	n/a	n/a	n/a	n/a
3999.062	n/a	RECOG_RESP	1999531	n/a	LTP288	ltpFR	1	1	1	GLASSES	640	1	n/a	0	n/a	n/a	n/a	n/a	n/a
4000.032	n/a	RECOG_CONF	2000016	n/a	LTP288	ltpFR	1	1	1	GLASSES	640	n/a	3	0	n/a	n/a	n/a	n/a	n/a
4001.926	n/a	RECOG_TARGET	2000963	n/a	LTP288	ltpFR	1	1	-1	ELF	525	1	5	-1	n/a	n/a	n/a	n/a	n/a
4002.582	n/a	RECOG_RESP	2001291	n/a	LTP288	ltpFR	1	1	-1	ELF	525	1	n/a	-1	n/a	n/a	n/a	n/a	n/a
4003.482	n/a	RECOG_CONF	2001741	n/a	LTP288	ltpFR	1	1	-1	ELF	525	n/a	5	-1	n/a	n/a	n/a	n/a	n/a
4005.238	n/a	RECOG_LURE	2002619	n/a	LTP288	ltpFR	1	1	n/a	ELECTRON	522	0	4	n/a	n/a	n/a	n/a	n/a	n/a
4006.332	n/a	RECOG_RESP	2003166	n/a	LTP288	ltpFR	1	1	n/a	ELECTRON	522	0	n/a	n/a	n/a	n/a	n/a	n/a	n/a
4007.342	n/a	RECOG_CONF	2003671	n/a	LTP288	ltpFR	1	1	n/a	ELECTRON	522	n/a	4	n/a	n/a	n/a	n/a	n/a	n/a
4009.066	n/a	RECOG_TARGET	2004533	n/a	LTP288	ltpFR	1	1	0	TYPIST	1532	0	3	1	n/a	n/a	n/a	n/a	n/a
4010.656	n/a	RECOG_RESP	2005328	n/a	LTP288	ltpFR	1	1	0	TYPIST	1532	0	n/a	1	n/a	n/a	n/a	n/a	n/a
4011.662	n/a	RECOG_CONF	2005831	n/a	LTP288	ltpFR	1	1	0	TYPIST	1532	n/a	3	1	n/a	n/a	n/a	n/a	n/a
4013.426	n/a	RECOG_TARGET	2006713	n/a	LTP288	ltpFR	1	1	1	THUMB	1462	1	4	0	n/a	n/a	n/a	n/a	n/a
4014.586	n/a	RECOG_RESP	2007293	n/a	LTP288	ltpFR	1	1	1	THUMB	1462	1	n/a	0	n/a	n/a	n/a	n/a	n/a
4015.812	n/a	RECOG_CONF	2007906	n/a	LTP288	ltpFR	1	1	1	THUMB	1462	n/a	4	0	n/a	n/a	n/a	n/a	n/a
4021.824	n/a	REC_START	2010912	n/a	LTP288	ltpFR	1	2	n/a	n/a	n/a	n/a	n/a	n/a	n/a	n/a	n/a	n/a	n/a
4021.862	n/a	RECOG_TARGET	2010931	n/a	LTP288	ltpFR	1	2	1	WITNESS	1618	1	4	1	n/a	n/a	n/a	n/a	n/a
4022.738	n/a	RECOG_RESP	2011369	n/a	LTP288	ltpFR	1	2	1	WITNESS	1618	1	n/a	1	n/a	n/a	n/a	n/a	n/a
4023.614	n/a	RECOG_CONF	2011807	n/a	LTP288	ltpFR	1	2	1	WITNESS	1618	n/a	4	1	n/a	n/a	n/a	n/a	n/a
4025.442	n/a	RECOG_LURE	2012721	n/a	LTP288	ltpFR	1	2	n/a	WAVE	1596	0	3	n/a	n/a	n/a	n/a	n/a	n/a
4026.304	n/a	RECOG_RESP	2013152	n/a	LTP288	ltpFR	1	2	n/a	WAVE	1596	0	n/a	n/a	n/a	n/a	n/a	n/a	n/a
4027.114	n/a	RECOG_CONF	2013557	n/a	LTP288	ltpFR	1	2	n/a	WAVE	1596	n/a	3	n/a	n/a	n/a	n/a	n/a	n/a
4028.752	n/a	RECOG_TARGET	2014376	n/a	LTP288	ltpFR	1	2	1	LOFT	840	1	5	0	n/a	n/a	n/a	n/a	n/a
4029.534	n/a	RECOG_RESP	2014767	n/a	LTP288	ltpFR	1	2	1	LOFT	840	1	n/a	0	n/a	n/a	n/a	n/a	n/a
4030.354	n/a	RECOG_CONF	2015177	n/a	LTP288	ltpFR	1	2	1	LOFT	840	n/a	5	0	n/a	n/a	n/a	n/a	n/a
4032.048	n/a	RECOG_TARGET	2016024	n/a	LTP288	ltpFR	1	2	0	SWORD	1423	1	5	1	n/a	n/a	n/a	n/a	n/a
4032.744	n/a	RECOG_RESP	2016372	n/a	LTP288	ltpFR	1	2	0	SWORD	1423	1	n/a	1	n/a	n/a	n/a	n/a	n/a
4033.174	n/a	RECOG_CONF	2016587	n/a	LTP288	ltpFR	1	2	0	SWORD	1423	n/a	5	1	n/a	n/a	n/a	n/a	n/a
4035.126	n/a	RECOG_LURE	2017563	n/a	LTP288	ltpFR	1	2	n/a	BIOLOGIST	128	0	5	n/a	n/a	n/a	n/a	n/a	n/a
4036.124	n/a	RECOG_RESP	2018062	n/a	LTP288	ltpFR	1	2	n/a	BIOLOGIST	128	0	n/a	n/a	n/a	n/a	n/a	n/a	n/a
4037.114	n/a	RECOG_CONF	2018557	n/a	LTP288	ltpFR	1	2	n/a	BIOLOGIST	128	n/a	5	n/a	n/a	n/a	n/a	n/a	n/a
4038.872	n/a	RECOG_LURE	2019436	n/a	LTP288	ltpFR	1	2	n/a	BEEF	113	1	2	n/a	n/a	n/a	n/a	n/a	n/a
4040.074	n/a	RECOG_RESP	2020037	n/a	LTP288	ltpFR	1	2	n/a	BEEF	113	1	n/a	n/a	n/a	n/a	n/a	n/a	n/a
4040.924	n/a	RECOG_CONF	2020462	n/a	LTP288	ltpFR	1	2	n/a	BEEF	113	n/a	2	n/a	n/a	n/a	n/a	n/a	n/a
4042.7	n/a	RECOG_TARGET	2021350	n/a	LTP288	ltpFR	1	2	1	SERGEANT	1269	1	4	1	n/a	n/a	n/a	n/a	n/a
4043.36	n/a	RECOG_RESP	2021680	n/a	LTP288	ltpFR	1	2	1	SERGEANT	1269	1	n/a	1	n/a	n/a	n/a	n/a	n/a
4044.164	n/a	RECOG_CONF	2022082	n/a	LTP288	ltpFR	1	2	1	SERGEANT	1269	n/a	4	1	n/a	n/a	n/a	n/a	n/a
4046.028	n/a	RECOG_TARGET	2023014	n/a	LTP288	ltpFR	1	2	0	TWEEZERS	1526	1	5	0	n/a	n/a	n/a	n/a	n/a
4046.734	n/a	RECOG_RESP	2023367	n/a	LTP288	ltpFR	1	2	0	TWEEZERS	1526	1	n/a	0	n/a	n/a	n/a	n/a	n/a
4047.644	n/a	RECOG_CONF	2023822	n/a	LTP288	ltpFR	1	2	0	TWEEZERS	1526	n/a	5	0	n/a	n/a	n/a	n/a	n/a
4049.472	n/a	RECOG_LURE	2024736	n/a	LTP288	ltpFR	1	2	n/a	ARTIST	43	1	3	n/a	n/a	n/a	n/a	n/a	n/a
4051.074	n/a	RECOG_RESP	2025537	n/a	LTP288	ltpFR	1	2	n/a	ARTIST	43	1	n/a	n/a	n/a	n/a	n/a	n/a	n/a
4052.214	n/a	RECOG_CONF	2026107	n/a	LTP288	ltpFR	1	2	n/a	ARTIST	43	n/a	3	n/a	n/a	n/a	n/a	n/a	n/a
4054.082	n/a	RECOG_LURE	2027041	n/a	LTP288	ltpFR	1	2	n/a	PRISON	1127	0	4	n/a	n/a	n/a	n/a	n/a	n/a
4055.29	n/a	RECOG_RESP	2027645	n/a	LTP288	ltpFR	1	2	n/a	PRISON	1127	0	n/a	n/a	n/a	n/a	n/a	n/a	n/a
4056.284	n/a	RECOG_CONF	2028142	n/a	LTP288	ltpFR	1	2	n/a	PRISON	1127	n/a	4	n/a	n/a	n/a	n/a	n/a	n/a
4058.076	n/a	RECOG_LURE	2029038	n/a	LTP288	ltpFR	1	2	n/a	BULLET	194	0	2	n/a	n/a	n/a	n/a	n/a	n/a
4059.394	n/a	RECOG_RESP	2029697	n/a	LTP288	ltpFR	1	2	n/a	BULLET	194	0	n/a	n/a	n/a	n/a	n/a	n/a	n/a
4060.354	n/a	RECOG_CONF	2030177	n/a	LTP288	ltpFR	1	2	n/a	BULLET	194	n/a	2	n/a	n/a	n/a	n/a	n/a	n/a
4062.136	n/a	RECOG_TARGET	2031068	n/a	LTP288	ltpFR	1	2	1	APPLICATION	34	1	4	0	n/a	n/a	n/a	n/a	n/a
4063.26	n/a	RECOG_RESP	2031630	n/a	LTP288	ltpFR	1	2	1	APPLICATION	34	1	n/a	0	n/a	n/a	n/a	n/a	n/a
4064.274	n/a	RECOG_CONF	2032137	n/a	LTP288	ltpFR	1	2	1	APPLICATION	34	n/a	4	0	n/a	n/a	n/a	n/a	n/a
4066.08	n/a	RECOG_TARGET	2033040	n/a	LTP288	ltpFR	1	2	1	DEODORANT	448	0	4	0	n/a	n/a	n/a	n/a	n/a
4067.164	n/a	RECOG_RESP	2033582	n/a	LTP288	ltpFR	1	2	1	DEODORANT	448	0	n/a	0	n/a	n/a	n/a	n/a	n/a
4068.454	n/a	RECOG_CONF	2034227	n/a	LTP288	ltpFR	1	2	1	DEODORANT	448	n/a	4	0	n/a	n/a	n/a	n/a	n/a
4070.308	n/a	RECOG_TARGET	2035154	n/a	LTP288	ltpFR	1	2	-1	FLANNEL	574	0	5	-1	n/a	n/a	n/a	n/a	n/a
4071.11	n/a	RECOG_RESP	2035555	n/a	LTP288	ltpFR	1	2	-1	FLANNEL	574	0	n/a	-1	n/a	n/a	n/a	n/a	n/a
4072.004	n/a	RECOG_CONF	2036002	n/a	LTP288	ltpFR	1	2	-1	FLANNEL	574	n/a	5	-1	n/a	n/a	n/a	n/a	n/a
4073.92	n/a	RECOG_TARGET	2036960	n/a	LTP288	ltpFR	1	2	1	PATROL	1027	1	2	1	n/a	n/a	n/a	n/a	n/a
4076.434	n/a	RECOG_RESP	2038217	n/a	LTP288	ltpFR	1	2	1	PATROL	1027	1	n/a	1	n/a	n/a	n/a	n/a	n/a
4077.564	n/a	RECOG_CONF	2038782	n/a	LTP288	ltpFR	1	2	1	PATROL	1027	n/a	2	1	n/a	n/a	n/a	n/a	n/a
4079.346	n/a	RECOG_LURE	2039673	n/a	LTP288	ltpFR	1	2	n/a	VOLCANO	1575	0	5	n/a	n/a	n/a	n/a	n/a	n/a
4080.15	n/a	RECOG_RESP	2040075	n/a	LTP288	ltpFR	1	2	n/a	VOLCANO	1575	0	n/a	n/a	n/a	n/a	n/a	n/a	n/a
4080.864	n/a	RECOG_CONF	2040432	n/a	LTP288	ltpFR	1	2	n/a	VOLCANO	1575	n/a	5	n/a	n/a	n/a	n/a	n/a	n/a
4082.672	n/a	RECOG_TARGET	2041336	n/a	LTP288	ltpFR	1	2	-1	ROCK	1201	1	3	-1	n/a	n/a	n/a	n/a	n/a
4083.564	n/a	RECOG_RESP	2041782	n/a	LTP288	ltpFR	1	2	-1	ROCK	1201	1	n/a	-1	n/a	n/a	n/a	n/a	n/a
4084.914	n/a	RECOG_CONF	2042457	n/a	LTP288	ltpFR	1	2	-1	ROCK	1201	n/a	3	-1	n/a	n/a	n/a	n/a	n/a
4086.734	n/a	RECOG_LURE	2043367	n/a	LTP288	ltpFR	1	2	n/a	VENT	1556	1	2	n/a	n/a	n/a	n/a	n/a	n/a
4089.094	n/a	RECOG_RESP	2044547	n/a	LTP288	ltpFR	1	2	n/a	VENT	1556	1	n/a	n/a	n/a	n/a	n/a	n/a	n/a
4090.054	n/a	RECOG_CONF	2045027	n/a	LTP288	ltpFR	1	2	n/a	VENT	1556	n/a	2	n/a	n/a	n/a	n/a	n/a	n/a
4091.76	n/a	RECOG_LURE	2045880	n/a	LTP288	ltpFR	1	2	n/a	SUGAR	1401	0	4	n/a	n/a	n/a	n/a	n/a	n/a
4092.604	n/a	RECOG_RESP	2046302	n/a	LTP288	ltpFR	1	2	n/a	SUGAR	1401	0	n/a	n/a	n/a	n/a	n/a	n/a	n/a
4093.314	n/a	RECOG_CONF	2046657	n/a	LTP288	ltpFR	1	2	n/a	SUGAR	1401	n/a	4	n/a	n/a	n/a	n/a	n/a	n/a
4095.188	n/a	RECOG_TARGET	2047594	n/a	LTP288	ltpFR	1	2	-1	DUSTPAN	509	1	5	-1	n/a	n/a	n/a	n/a	n/a
4096.01	n/a	RECOG_RESP	2048005	n/a	LTP288	ltpFR	1	2	-1	DUSTPAN	509	1	n/a	-1	n/a	n/a	n/a	n/a	n/a
4096.934	n/a	RECOG_CONF	2048467	n/a	LTP288	ltpFR	1	2	-1	DUSTPAN	509	n/a	5	-1	n/a	n/a	n/a	n/a	n/a
4109.978	n/a	REC_START	2054989	n/a	LTP288	ltpFR	1	3	n/a	n/a	n/a	n/a	n/a	n/a	n/a	n/a	n/a	n/a	n/a
4110.016	n/a	RECOG_LURE	2055008	n/a	LTP288	ltpFR	1	3	n/a	TERMITE	1451	0	4	n/a	n/a	n/a	n/a	n/a	n/a
4112.558	n/a	RECOG_RESP	2056279	n/a	LTP288	ltpFR	1	3	n/a	TERMITE	1451	0	n/a	n/a	n/a	n/a	n/a	n/a	n/a
4114.218	n/a	RECOG_CONF	2057109	n/a	LTP288	ltpFR	1	3	n/a	TERMITE	1451	n/a	4	n/a	n/a	n/a	n/a	n/a	n/a
4116.058	n/a	RECOG_TARGET	2058029	n/a	LTP288	ltpFR	1	3	1	CANARY	227	1	4	1	n/a	n/a	n/a	n/a	n/a
4116.864	n/a	RECOG_RESP	2058432	n/a	LTP288	ltpFR	1	3	1	CANARY	227	1	n/a	1	n/a	n/a	n/a	n/a	n/a
4117.748	n/a	RECOG_CONF	2058874	n/a	LTP288	ltpFR	1	3	1	CANARY	227	n/a	4	1	n/a	n/a	n/a	n/a	n/a
4119.686	n/a	RECOG_LURE	2059843	n/a	LTP288	ltpFR	1	3	n/a	CABIN	211	1	4	n/a	n/a	n/a	n/a	n/a	n/a
4120.648	n/a	RECOG_RESP	2060324	n/a	LTP288	ltpFR	1	3	n/a	CABIN	211	1	n/a	n/a	n/a	n/a	n/a	n/a	n/a
4121.588	n/a	RECOG_CONF	2060794	n/a	LTP288	ltpFR	1	3	n/a	CABIN	211	n/a	4	n/a	n/a	n/a	n/a	n/a	n/a
4123.33	n/a	RECOG_TARGET	2061665	n/a	LTP288	ltpFR	1	3	0	ALMOND	18	1	5	0	n/a	n/a	n/a	n/a	n/a
4124.024	n/a	RECOG_RESP	2062012	n/a	LTP288	ltpFR	1	3	0	ALMOND	18	1	n/a	0	n/a	n/a	n/a	n/a	n/a
4124.798	n/a	RECOG_CONF	2062399	n/a	LTP288	ltpFR	1	3	0	ALMOND	18	n/a	5	0	n/a	n/a	n/a	n/a	n/a
4127.242	n/a	RECOG_TARGET	2063621	n/a	LTP288	ltpFR	1	3	0	MARSH	874	1	4	1	n/a	n/a	n/a	n/a	n/a
4128.138	n/a	RECOG_RESP	2064069	n/a	LTP288	ltpFR	1	3	0	MARSH	874	1	n/a	1	n/a	n/a	n/a	n/a	n/a
4129.028	n/a	RECOG_CONF	2064514	n/a	LTP288	ltpFR	1	3	0	MARSH	874	n/a	4	1	n/a	n/a	n/a	n/a	n/a
4130.836	n/a	RECOG_TARGET	2065418	n/a	LTP288	ltpFR	1	3	1	TECHNICIAN	1443	1	3	1	n/a	n/a	n/a	n/a	n/a
4131.744	n/a	RECOG_RESP	2065872	n/a	LTP288	ltpFR	1	3	1	TECHNICIAN	1443	1	n/a	1	n/a	n/a	n/a	n/a	n/a
4132.638	n/a	RECOG_CONF	2066319	n/a	LTP288	ltpFR	1	3	1	TECHNICIAN	1443	n/a	3	1	n/a	n/a	n/a	n/a	n/a
4134.298	n/a	RECOG_TARGET	2067149	n/a	LTP288	ltpFR	1	3	-1	ONION	977	1	5	-1	n/a	n/a	n/a	n/a	n/a
4135.128	n/a	RECOG_RESP	2067564	n/a	LTP288	ltpFR	1	3	-1	ONION	977	1	n/a	-1	n/a	n/a	n/a	n/a	n/a
4135.948	n/a	RECOG_CONF	2067974	n/a	LTP288	ltpFR	1	3	-1	ONION	977	n/a	5	-1	n/a	n/a	n/a	n/a	n/a
4137.758	n/a	RECOG_TARGET	2068879	n/a	LTP288	ltpFR	1	3	-1	HALL	677	1	4	-1	n/a	n/a	n/a	n/a	n/a
4138.514	n/a	RECOG_RESP	2069257	n/a	LTP288	ltpFR	1	3	-1	HALL	677	1	n/a	-1	n/a	n/a	n/a	n/a	n/a
4139.738	n/a	RECOG_CONF	2069869	n/a	LTP288	ltpFR	1	3	-1	HALL	677	n/a	4	-1	n/a	n/a	n/a	n/a	n/a
4141.486	n/a	RECOG_TARGET	2070743	n/a	LTP288	ltpFR	1	3	1	STALLION	1369	1	5	1	n/a	n/a	n/a	n/a	n/a
4142.224	n/a	RECOG_RESP	2071112	n/a	LTP288	ltpFR	1	3	1	STALLION	1369	1	n/a	1	n/a	n/a	n/a	n/a	n/a
4143.028	n/a	RECOG_CONF	2071514	n/a	LTP288	ltpFR	1	3	1	STALLION	1369	n/a	5	1	n/a	n/a	n/a	n/a	n/a
4144.798	n/a	RECOG_LURE	2072399	n/a	LTP288	ltpFR	1	3	n/a	BAKER	71	1	2	n/a	n/a	n/a	n/a	n/a	n/a
4146.504	n/a	RECOG_RESP	2073252	n/a	LTP288	ltpFR	1	3	n/a	BAKER	71	1	n/a	n/a	n/a	n/a	n/a	n/a	n/a
4147.498	n/a	RECOG_CONF	2073749	n/a	LTP288	ltpFR	1	3	n/a	BAKER	71	n/a	2	n/a	n/a	n/a	n/a	n/a	n/a
4149.208	n/a	RECOG_TARGET	2074604	n/a	LTP288	ltpFR	1	3	1	TROUT	1511	1	4	1	n/a	n/a	n/a	n/a	n/a
4149.974	n/a	RECOG_RESP	2074987	n/a	LTP288	ltpFR	1	3	1	TROUT	1511	1	n/a	1	n/a	n/a	n/a	n/a	n/a
4150.798	n/a	RECOG_CONF	2075399	n/a	LTP288	ltpFR	1	3	1	TROUT	1511	n/a	4	1	n/a	n/a	n/a	n/a	n/a
4152.47	n/a	RECOG_TARGET	2076235	n/a	LTP288	ltpFR	1	3	-1	DOORBELL	487	1	4	-1	n/a	n/a	n/a	n/a	n/a
4153.248	n/a	RECOG_RESP	2076624	n/a	LTP288	ltpFR	1	3	-1	DOORBELL	487	1	n/a	-1	n/a	n/a	n/a	n/a	n/a
4154.068	n/a	RECOG_CONF	2077034	n/a	LTP288	ltpFR	1	3	-1	DOORBELL	487	n/a	4	-1	n/a	n/a	n/a	n/a	n/a
4155.914	n/a	RECOG_TARGET	2077957	n/a	LTP288	ltpFR	1	3	1	BLANKET	135	1	5	0	n/a	n/a	n/a	n/a	n/a
4156.748	n/a	RECOG_RESP	2078374	n/a	LTP288	ltpFR	1	3	1	BLANKET	135	1	n/a	0	n/a	n/a	n/a	n/a	n/a
4157.648	n/a	RECOG_CONF	2078824	n/a	LTP288	ltpFR	1	3	1	BLANKET	135	n/a	5	0	n/a	n/a	n/a	n/a	n/a
4159.394	n/a	RECOG_TARGET	2079697	n/a	LTP288	ltpFR	1	3	-1	BASEBALL	93	1	5	-1	n/a	n/a	n/a	n/a	n/a
4159.998	n/a	RECOG_RESP	2079999	n/a	LTP288	ltpFR	1	3	-1	BASEBALL	93	1	n/a	-1	n/a	n/a	n/a	n/a	n/a
4160.818	n/a	RECOG_CONF	2080409	n/a	LTP288	ltpFR	1	3	-1	BASEBALL	93	n/a	5	-1	n/a	n/a	n/a	n/a	n/a
4162.82	n/a	RECOG_TARGET	2081410	n/a	LTP288	ltpFR	1	3	0	SWIMMER	1420	1	3	1	n/a	n/a	n/a	n/a	n/a
4163.768	n/a	RECOG_RESP	2081884	n/a	LTP288	ltpFR	1	3	0	SWIMMER	1420	1	n/a	1	n/a	n/a	n/a	n/a	n/a
4164.128	n/a	RECOG_CONF	2082064	n/a	LTP288	ltpFR	1	3	0	SWIMMER	1420	n/a	3	1	n/a	n/a	n/a	n/a	n/a
4166.366	n/a	RECOG_TARGET	2083183	n/a	LTP288	ltpFR	1	3	0	HIGHWAY	707	1	5	1	n/a	n/a	n/a	n/a	n/a
4167.018	n/a	RECOG_RESP	2083509	n/a	LTP288	ltpFR	1	3	0	HIGHWAY	707	1	n/a	1	n/a	n/a	n/a	n/a	n/a
4167.878	n/a	RECOG_CONF	2083939	n/a	LTP288	ltpFR	1	3	0	HIGHWAY	707	n/a	5	1	n/a	n/a	n/a	n/a	n/a
4169.446	n/a	RECOG_TARGET	2084723	n/a	LTP288	ltpFR	1	3	1	OFFICER	973	1	3	1	n/a	n/a	n/a	n/a	n/a
4170.138	n/a	RECOG_RESP	2085069	n/a	LTP288	ltpFR	1	3	1	OFFICER	973	1	n/a	1	n/a	n/a	n/a	n/a	n/a
4171.018	n/a	RECOG_CONF	2085509	n/a	LTP288	ltpFR	1	3	1	OFFICER	973	n/a	3	1	n/a	n/a	n/a	n/a	n/a
4172.606	n/a	RECOG_TARGET	2086303	n/a	LTP288	ltpFR	1	3	0	RASPBERRY	1168	1	5	0	n/a	n/a	n/a	n/a	n/a
4173.254	n/a	RECOG_RESP	2086627	n/a	LTP288	ltpFR	1	3	0	RASPBERRY	1168	1	n/a	0	n/a	n/a	n/a	n/a	n/a
4174.088	n/a	RECOG_CONF	2087044	n/a	LTP288	ltpFR	1	3	0	RASPBERRY	1168	n/a	5	0	n/a	n/a	n/a	n/a	n/a
4175.852	n/a	RECOG_LURE	2087926	n/a	LTP288	ltpFR	1	3	n/a	WRIST	1626	0	3	n/a	n/a	n/a	n/a	n/a	n/a
4176.794	n/a	RECOG_RESP	2088397	n/a	LTP288	ltpFR	1	3	n/a	WRIST	1626	0	n/a	n/a	n/a	n/a	n/a	n/a	n/a
4177.728	n/a	RECOG_CONF	2088864	n/a	LTP288	ltpFR	1	3	n/a	WRIST	1626	n/a	3	n/a	n/a	n/a	n/a	n/a	n/a
4179.348	n/a	RECOG_LURE	2089674	n/a	LTP288	ltpFR	1	3	n/a	MAT	877	0	4	n/a	n/a	n/a	n/a	n/a	n/a
4180.278	n/a	RECOG_RESP	2090139	n/a	LTP288	ltpFR	1	3	n/a	MAT	877	0	n/a	n/a	n/a	n/a	n/a	n/a	n/a
4181.248	n/a	RECOG_CONF	2090624	n/a	LTP288	ltpFR	1	3	n/a	MAT	877	n/a	4	n/a	n/a	n/a	n/a	n/a	n/a
4185.136	n/a	REC_START	2092568	n/a	LTP288	ltpFR	1	4	n/a	n/a	n/a	n/a	n/a	n/a	n/a	n/a	n/a	n/a	n/a
4185.17	n/a	RECOG_TARGET	2092585	n/a	LTP288	ltpFR	1	4	-1	ASSISTANT	48	1	4	-1	n/a	n/a	n/a	n/a	n/a
4186.042	n/a	RECOG_RESP	2093021	n/a	LTP288	ltpFR	1	4	-1	ASSISTANT	48	1	n/a	-1	n/a	n/a	n/a	n/a	n/a
4186.856	n/a	RECOG_CONF	2093428	n/a	LTP288	ltpFR	1	4	-1	ASSISTANT	48	n/a	4	-1	n/a	n/a	n/a	n/a	n/a
4188.6	n/a	RECOG_LURE	2094300	n/a	LTP288	ltpFR	1	4	n/a	RUM	1217	0	4	n/a	n/a	n/a	n/a	n/a	n/a
4189.626	n/a	RECOG_RESP	2094813	n/a	LTP288	ltpFR	1	4	n/a	RUM	1217	0	n/a	n/a	n/a	n/a	n/a	n/a	n/a
4190.326	n/a	RECOG_CONF	2095163	n/a	LTP288	ltpFR	1	4	n/a	RUM	1217	n/a	4	n/a	n/a	n/a	n/a	n/a	n/a
4192.228	n/a	RECOG_TARGET	2096114	n/a	LTP288	ltpFR	1	4	0	LOUNGE	845	1	3	1	n/a	n/a	n/a	n/a	n/a
4193.056	n/a	RECOG_RESP	2096528	n/a	LTP288	ltpFR	1	4	0	LOUNGE	845	1	n/a	1	n/a	n/a	n/a	n/a	n/a
4193.956	n/a	RECOG_CONF	2096978	n/a	LTP288	ltpFR	1	4	0	LOUNGE	845	n/a	3	1	n/a	n/a	n/a	n/a	n/a
4195.59	n/a	RECOG_LURE	2097795	n/a	LTP288	ltpFR	1	4	n/a	COLESLAW	344	0	5	n/a	n/a	n/a	n/a	n/a	n/a
4196.492	n/a	RECOG_RESP	2098246	n/a	LTP288	ltpFR	1	4	n/a	COLESLAW	344	0	n/a	n/a	n/a	n/a	n/a	n/a	n/a
4197.266	n/a	RECOG_CONF	2098633	n/a	LTP288	ltpFR	1	4	n/a	COLESLAW	344	n/a	5	n/a	n/a	n/a	n/a	n/a	n/a
4199.168	n/a	RECOG_LURE	2099584	n/a	LTP288	ltpFR	1	4	n/a	DIARY	460	0	5	n/a	n/a	n/a	n/a	n/a	n/a
4199.966	n/a	RECOG_RESP	2099983	n/a	LTP288	ltpFR	1	4	n/a	DIARY	460	0	n/a	n/a	n/a	n/a	n/a	n/a	n/a
4200.686	n/a	RECOG_CONF	2100343	n/a	LTP288	ltpFR	1	4	n/a	DIARY	460	n/a	5	n/a	n/a	n/a	n/a	n/a	n/a
4202.58	n/a	RECOG_LURE	2101290	n/a	LTP288	ltpFR	1	4	n/a	SHAMPOO	1274	0	3	n/a	n/a	n/a	n/a	n/a	n/a
4203.286	n/a	RECOG_RESP	2101643	n/a	LTP288	ltpFR	1	4	n/a	SHAMPOO	1274	0	n/a	n/a	n/a	n/a	n/a	n/a	n/a
4203.696	n/a	RECOG_CONF	2101848	n/a	LTP288	ltpFR	1	4	n/a	SHAMPOO	1274	n/a	3	n/a	n/a	n/a	n/a	n/a	n/a
4206.024	n/a	RECOG_LURE	2103012	n/a	LTP288	ltpFR	1	4	n/a	CINNAMON	310	0	4	n/a	n/a	n/a	n/a	n/a	n/a
4206.866	n/a	RECOG_RESP	2103433	n/a	LTP288	ltpFR	1	4	n/a	CINNAMON	310	0	n/a	n/a	n/a	n/a	n/a	n/a	n/a
4207.716	n/a	RECOG_CONF	2103858	n/a	LTP288	ltpFR	1	4	n/a	CINNAMON	310	n/a	4	n/a	n/a	n/a	n/a	n/a	n/a
4209.386	n/a	RECOG_TARGET	2104693	n/a	LTP288	ltpFR	1	4	1	BELLY	119	1	3	0	n/a	n/a	n/a	n/a	n/a
4210.612	n/a	RECOG_RESP	2105306	n/a	LTP288	ltpFR	1	4	1	BELLY	119	1	n/a	0	n/a	n/a	n/a	n/a	n/a
4211.546	n/a	RECOG_CONF	2105773	n/a	LTP288	ltpFR	1	4	1	BELLY	119	n/a	3	0	n/a	n/a	n/a	n/a	n/a
4213.33	n/a	RECOG_TARGET	2106665	n/a	LTP288	ltpFR	1	4	-1	SUBWAY	1400	1	5	-1	n/a	n/a	n/a	n/a	n/a
4214.056	n/a	RECOG_RESP	2107028	n/a	LTP288	ltpFR	1	4	-1	SUBWAY	1400	1	n/a	-1	n/a	n/a	n/a	n/a	n/a
4214.926	n/a	RECOG_CONF	2107463	n/a	LTP288	ltpFR	1	4	-1	SUBWAY	1400	n/a	5	-1	n/a	n/a	n/a	n/a	n/a
4216.908	n/a	RECOG_TARGET	2108454	n/a	LTP288	ltpFR	1	4	0	SHORTCAKE	1292	1	5	0	n/a	n/a	n/a	n/a	n/a
4217.536	n/a	RECOG_RESP	2108768	n/a	LTP288	ltpFR	1	4	0	SHORTCAKE	1292	1	n/a	0	n/a	n/a	n/a	n/a	n/a
4218.526	n/a	RECOG_CONF	2109263	n/a	LTP288	ltpFR	1	4	0	SHORTCAKE	1292	n/a	5	0	n/a	n/a	n/a	n/a	n/a
4220.354	n/a	RECOG_TARGET	2110177	n/a	LTP288	ltpFR	1	4	0	CLAMP	316	1	5	0	n/a	n/a	n/a	n/a	n/a
4221.162	n/a	RECOG_RESP	2110581	n/a	LTP288	ltpFR	1	4	0	CLAMP	316	1	n/a	0	n/a	n/a	n/a	n/a	n/a
4221.996	n/a	RECOG_CONF	2110998	n/a	LTP288	ltpFR	1	4	0	CLAMP	316	n/a	5	0	n/a	n/a	n/a	n/a	n/a
4223.764	n/a	RECOG_TARGET	2111882	n/a	LTP288	ltpFR	1	4	0	HEEL	700	1	5	0	n/a	n/a	n/a	n/a	n/a
4224.376	n/a	RECOG_RESP	2112188	n/a	LTP288	ltpFR	1	4	0	HEEL	700	1	n/a	0	n/a	n/a	n/a	n/a	n/a
4225.216	n/a	RECOG_CONF	2112608	n/a	LTP288	ltpFR	1	4	0	HEEL	700	n/a	5	0	n/a	n/a	n/a	n/a	n/a
4226.942	n/a	RECOG_TARGET	2113471	n/a	LTP288	ltpFR	1	4	1	CHECK	284	1	3	0	n/a	n/a	n/a	n/a	n/a
4228.026	n/a	RECOG_RESP	2114013	n/a	LTP288	ltpFR	1	4	1	CHECK	284	1	n/a	0	n/a	n/a	n/a	n/a	n/a
4228.546	n/a	RECOG_CONF	2114273	n/a	LTP288	ltpFR	1	4	1	CHECK	284	n/a	3	0	n/a	n/a	n/a	n/a	n/a
4230.67	n/a	RECOG_TARGET	2115335	n/a	LTP288	ltpFR	1	4	0	CHARCOAL	281	1	5	0	n/a	n/a	n/a	n/a	n/a
4231.336	n/a	RECOG_RESP	2115668	n/a	LTP288	ltpFR	1	4	0	CHARCOAL	281	1	n/a	0	n/a	n/a	n/a	n/a	n/a
4232.166	n/a	RECOG_CONF	2116083	n/a	LTP288	ltpFR	1	4	0	CHARCOAL	281	n/a	5	0	n/a	n/a	n/a	n/a	n/a
4233.982	n/a	RECOG_TARGET	2116991	n/a	LTP288	ltpFR	1	4	0	TART	1436	0	3	0	n/a	n/a	n/a	n/a	n/a
4234.706	n/a	RECOG_RESP_VV	2117353	n/a	LTP288	ltpFR	1	4	0	TART	1436	1	n/a	0	n/a	n/a	n/a	n/a	n/a
4235.532	n/a	RECOG_RESP	2117766	n/a	LTP288	ltpFR	1	4	0	TART	1436	0	n/a	0	n/a	n/a	n/a	n/a	n/a
4236.972	n/a	RECOG_CONF	2118486	n/a	LTP288	ltpFR	1	4	0	TART	1436	n/a	3	0	n/a	n/a	n/a	n/a	n/a
4238.444	n/a	RECOG_LURE	2119222	n/a	LTP288	ltpFR	1	4	n/a	PLIERS	1089	0	4	n/a	n/a	n/a	n/a	n/a	n/a
4239.342	n/a	RECOG_RESP	2119671	n/a	LTP288	ltpFR	1	4	n/a	PLIERS	1089	0	n/a	n/a	n/a	n/a	n/a	n/a	n/a
4240.166	n/a	RECOG_CONF	2120083	n/a	LTP288	ltpFR	1	4	n/a	PLIERS	1089	n/a	4	n/a	n/a	n/a	n/a	n/a	n/a
4242.02	n/a	RECOG_TARGET	2121010	n/a	LTP288	ltpFR	1	4	-1	ZOO	1637	1	5	-1	n/a	n/a	n/a	n/a	n/a
4242.856	n/a	RECOG_RESP	2121428	n/a	LTP288	ltpFR	1	4	-1	ZOO	1637	1	n/a	-1	n/a	n/a	n/a	n/a	n/a
4243.796	n/a	RECOG_CONF	2121898	n/a	LTP288	ltpFR	1	4	-1	ZOO	1637	n/a	5	-1	n/a	n/a	n/a	n/a	n/a
4245.548	n/a	RECOG_LURE	2122774	n/a	LTP288	ltpFR	1	4	n/a	PUMP	1141	1	3	n/a	n/a	n/a	n/a	n/a	n/a
4246.512	n/a	RECOG_RESP	2123256	n/a	LTP288	ltpFR	1	4	n/a	PUMP	1141	1	n/a	n/a	n/a	n/a	n/a	n/a	n/a
4247.496	n/a	RECOG_CONF	2123748	n/a	LTP288	ltpFR	1	4	n/a	PUMP	1141	n/a	3	n/a	n/a	n/a	n/a	n/a	n/a
4249.194	n/a	RECOG_LURE	2124597	n/a	LTP288	ltpFR	1	4	n/a	PONY	1102	0	5	n/a	n/a	n/a	n/a	n/a	n/a
4250.576	n/a	RECOG_RESP	2125288	n/a	LTP288	ltpFR	1	4	n/a	PONY	1102	0	n/a	n/a	n/a	n/a	n/a	n/a	n/a
4251.416	n/a	RECOG_CONF	2125708	n/a	LTP288	ltpFR	1	4	n/a	PONY	1102	n/a	5	n/a	n/a	n/a	n/a	n/a	n/a
4253.154	n/a	RECOG_TARGET	2126577	n/a	LTP288	ltpFR	1	4	-1	LONDON	843	1	5	-1	n/a	n/a	n/a	n/a	n/a
4253.946	n/a	RECOG_RESP	2126973	n/a	LTP288	ltpFR	1	4	-1	LONDON	843	1	n/a	-1	n/a	n/a	n/a	n/a	n/a
4254.846	n/a	RECOG_CONF	2127423	n/a	LTP288	ltpFR	1	4	-1	LONDON	843	n/a	5	-1	n/a	n/a	n/a	n/a	n/a
4263.344	n/a	REC_START	2131672	n/a	LTP288	ltpFR	1	5	n/a	n/a	n/a	n/a	n/a	n/a	n/a	n/a	n/a	n/a	n/a
4263.374	n/a	RECOG_TARGET	2131687	n/a	LTP288	ltpFR	1	5	1	ENGINE	535	0	3	0	n/a	n/a	n/a	n/a	n/a
4265.244	n/a	RECOG_RESP	2132622	n/a	LTP288	ltpFR	1	5	1	ENGINE	535	0	n/a	0	n/a	n/a	n/a	n/a	n/a
4266.554	n/a	RECOG_CONF	2133277	n/a	LTP288	ltpFR	1	5	1	ENGINE	535	n/a	3	0	n/a	n/a	n/a	n/a	n/a
4268.2	n/a	RECOG_LURE	2134100	n/a	LTP288	ltpFR	1	5	n/a	PARENT	1013	0	3	n/a	n/a	n/a	n/a	n/a	n/a
4269.398	n/a	RECOG_RESP	2134699	n/a	LTP288	ltpFR	1	5	n/a	PARENT	1013	0	n/a	n/a	n/a	n/a	n/a	n/a	n/a
4270.414	n/a	RECOG_CONF	2135207	n/a	LTP288	ltpFR	1	5	n/a	PARENT	1013	n/a	3	n/a	n/a	n/a	n/a	n/a	n/a
4272.06	n/a	RECOG_TARGET	2136030	n/a	LTP288	ltpFR	1	5	0	CHAIN	273	1	3	0	n/a	n/a	n/a	n/a	n/a
4273.234	n/a	RECOG_RESP	2136617	n/a	LTP288	ltpFR	1	5	0	CHAIN	273	1	n/a	0	n/a	n/a	n/a	n/a	n/a
4274.204	n/a	RECOG_CONF	2137102	n/a	LTP288	ltpFR	1	5	0	CHAIN	273	n/a	3	0	n/a	n/a	n/a	n/a	n/a
4275.804	n/a	RECOG_LURE	2137902	n/a	LTP288	ltpFR	1	5	n/a	FRIES	607	0	4	n/a	n/a	n/a	n/a	n/a	n/a
4276.694	n/a	RECOG_RESP	2138347	n/a	LTP288	ltpFR	1	5	n/a	FRIES	607	0	n/a	n/a	n/a	n/a	n/a	n/a	n/a
4277.454	n/a	RECOG_CONF	2138727	n/a	LTP288	ltpFR	1	5	n/a	FRIES	607	n/a	4	n/a	n/a	n/a	n/a	n/a	n/a
4279.334	n/a	RECOG_LURE	2139667	n/a	LTP288	ltpFR	1	5	n/a	ELK	526	0	4	n/a	n/a	n/a	n/a	n/a	n/a
4280.898	n/a	RECOG_RESP	2140449	n/a	LTP288	ltpFR	1	5	n/a	ELK	526	0	n/a	n/a	n/a	n/a	n/a	n/a	n/a
4281.644	n/a	RECOG_CONF	2140822	n/a	LTP288	ltpFR	1	5	n/a	ELK	526	n/a	4	n/a	n/a	n/a	n/a	n/a	n/a
4283.676	n/a	RECOG_TARGET	2141838	n/a	LTP288	ltpFR	1	5	0	FISH	571	1	5	0	n/a	n/a	n/a	n/a	n/a
4284.598	n/a	RECOG_RESP	2142299	n/a	LTP288	ltpFR	1	5	0	FISH	571	1	n/a	0	n/a	n/a	n/a	n/a	n/a
4285.474	n/a	RECOG_CONF	2142737	n/a	LTP288	ltpFR	1	5	0	FISH	571	n/a	5	0	n/a	n/a	n/a	n/a	n/a
4287.204	n/a	RECOG_TARGET	2143602	n/a	LTP288	ltpFR	1	5	1	BINDER	127	1	3	0	n/a	n/a	n/a	n/a	n/a
4288.084	n/a	RECOG_RESP	2144042	n/a	LTP288	ltpFR	1	5	1	BINDER	127	1	n/a	0	n/a	n/a	n/a	n/a	n/a
4289.044	n/a	RECOG_CONF	2144522	n/a	LTP288	ltpFR	1	5	1	BINDER	127	n/a	3	0	n/a	n/a	n/a	n/a	n/a
4290.816	n/a	RECOG_LURE	2145408	n/a	LTP288	ltpFR	1	5	n/a	TUNA	1518	0	3	n/a	n/a	n/a	n/a	n/a	n/a
4291.998	n/a	RECOG_RESP	2145999	n/a	LTP288	ltpFR	1	5	n/a	TUNA	1518	0	n/a	n/a	n/a	n/a	n/a	n/a	n/a
4292.944	n/a	RECOG_CONF	2146472	n/a	LTP288	ltpFR	1	5	n/a	TUNA	1518	n/a	3	n/a	n/a	n/a	n/a	n/a	n/a
4294.444	n/a	RECOG_TARGET	2147222	n/a	LTP288	ltpFR	1	5	1	SQUID	1361	1	5	1	n/a	n/a	n/a	n/a	n/a
4295.218	n/a	RECOG_RESP	2147609	n/a	LTP288	ltpFR	1	5	1	SQUID	1361	1	n/a	1	n/a	n/a	n/a	n/a	n/a
4296.054	n/a	RECOG_CONF	2148027	n/a	LTP288	ltpFR	1	5	1	SQUID	1361	n/a	5	1	n/a	n/a	n/a	n/a	n/a
4297.922	n/a	RECOG_TARGET	2148961	n/a	LTP288	ltpFR	1	5	0	PASTRY	1022	1	2	0	n/a	n/a	n/a	n/a	n/a
4299.068	n/a	RECOG_RESP	2149534	n/a	LTP288	ltpFR	1	5	0	PASTRY	1022	1	n/a	0	n/a	n/a	n/a	n/a	n/a
4300.074	n/a	RECOG_CONF	2150037	n/a	LTP288	ltpFR	1	5	0	PASTRY	1022	n/a	2	0	n/a	n/a	n/a	n/a	n/a
4301.766	n/a	RECOG_LURE	2150883	n/a	LTP288	ltpFR	1	5	n/a	CRYSTAL	418	0	3	n/a	n/a	n/a	n/a	n/a	n/a
4303.098	n/a	RECOG_RESP	2151549	n/a	LTP288	ltpFR	1	5	n/a	CRYSTAL	418	0	n/a	n/a	n/a	n/a	n/a	n/a	n/a
4304.034	n/a	RECOG_CONF	2152017	n/a	LTP288	ltpFR	1	5	n/a	CRYSTAL	418	n/a	3	n/a	n/a	n/a	n/a	n/a	n/a
4305.742	n/a	RECOG_LURE	2152871	n/a	LTP288	ltpFR	1	5	n/a	MONUMENT	913	0	2	n/a	n/a	n/a	n/a	n/a	n/a
4307.164	n/a	RECOG_RESP	2153582	n/a	LTP288	ltpFR	1	5	n/a	MONUMENT	913	0	n/a	n/a	n/a	n/a	n/a	n/a	n/a
4308.184	n/a	RECOG_CONF	2154092	n/a	LTP288	ltpFR	1	5	n/a	MONUMENT	913	n/a	2	n/a	n/a	n/a	n/a	n/a	n/a
4309.92	n/a	RECOG_TARGET	2154960	n/a	LTP288	ltpFR	1	5	1	TROUSERS	1510	1	3	0	n/a	n/a	n/a	n/a	n/a
4311.064	n/a	RECOG_RESP	2155532	n/a	LTP288	ltpFR	1	5	1	TROUSERS	1510	1	n/a	0	n/a	n/a	n/a	n/a	n/a
4312.054	n/a	RECOG_CONF	2156027	n/a	LTP288	ltpFR	1	5	1	TROUSERS	1510	n/a	3	0	n/a	n/a	n/a	n/a	n/a
4313.798	n/a	RECOG_LURE	2156899	n/a	LTP288	ltpFR	1	5	n/a	GENTLEMAN	631	0	4	n/a	n/a	n/a	n/a	n/a	n/a
4314.718	n/a	RECOG_RESP	2157359	n/a	LTP288	ltpFR	1	5	n/a	GENTLEMAN	631	0	n/a	n/a	n/a	n/a	n/a	n/a	n/a
4315.504	n/a	RECOG_CONF	2157752	n/a	LTP288	ltpFR	1	5	n/a	GENTLEMAN	631	n/a	4	n/a	n/a	n/a	n/a	n/a	n/a
4317.226	n/a	RECOG_TARGET	2158613	n/a	LTP288	ltpFR	1	5	1	SEA	1259	0	2	0	n/a	n/a	n/a	n/a	n/a
4318.464	n/a	RECOG_RESP	2159232	n/a	LTP288	ltpFR	1	5	1	SEA	1259	0	n/a	0	n/a	n/a	n/a	n/a	n/a
4319.364	n/a	RECOG_CONF	2159682	n/a	LTP288	ltpFR	1	5	1	SEA	1259	n/a	2	0	n/a	n/a	n/a	n/a	n/a
4321.02	n/a	RECOG_TARGET	2160510	n/a	LTP288	ltpFR	1	5	0	SIGN	1305	1	4	1	n/a	n/a	n/a	n/a	n/a
4322.014	n/a	RECOG_RESP	2161007	n/a	LTP288	ltpFR	1	5	0	SIGN	1305	1	n/a	1	n/a	n/a	n/a	n/a	n/a
4322.944	n/a	RECOG_CONF	2161472	n/a	LTP288	ltpFR	1	5	0	SIGN	1305	n/a	4	1	n/a	n/a	n/a	n/a	n/a
4324.698	n/a	RECOG_TARGET	2162349	n/a	LTP288	ltpFR	1	5	0	CLIPPERS	324	0	1	0	n/a	n/a	n/a	n/a	n/a
4326.558	n/a	RECOG_RESP	2163279	n/a	LTP288	ltpFR	1	5	0	CLIPPERS	324	0	n/a	0	n/a	n/a	n/a	n/a	n/a
4327.534	n/a	RECOG_CONF	2163767	n/a	LTP288	ltpFR	1	5	0	CLIPPERS	324	n/a	1	0	n/a	n/a	n/a	n/a	n/a
4329.208	n/a	RECOG_TARGET	2164604	n/a	LTP288	ltpFR	1	5	1	FORK	594	1	4	0	n/a	n/a	n/a	n/a	n/a
4330.118	n/a	RECOG_RESP	2165059	n/a	LTP288	ltpFR	1	5	1	FORK	594	1	n/a	0	n/a	n/a	n/a	n/a	n/a
4331.074	n/a	RECOG_CONF	2165537	n/a	LTP288	ltpFR	1	5	1	FORK	594	n/a	4	0	n/a	n/a	n/a	n/a	n/a
4333.118	n/a	RECOG_TARGET	2166559	n/a	LTP288	ltpFR	1	5	0	HOOD	714	1	5	0	n/a	n/a	n/a	n/a	n/a
4334.5	n/a	RECOG_RESP	2167250	n/a	LTP288	ltpFR	1	5	0	HOOD	714	1	n/a	0	n/a	n/a	n/a	n/a	n/a
4335.384	n/a	RECOG_CONF	2167692	n/a	LTP288	ltpFR	1	5	0	HOOD	714	n/a	5	0	n/a	n/a	n/a	n/a	n/a
4337.314	n/a	RECOG_TARGET	2168657	n/a	LTP288	ltpFR	1	5	0	BILL	126	1	5	0	n/a	n/a	n/a	n/a	n/a
4338.15	n/a	RECOG_RESP	2169075	n/a	LTP288	ltpFR	1	5	0	BILL	126	1	n/a	0	n/a	n/a	n/a	n/a	n/a
4338.964	n/a	RECOG_CONF	2169482	n/a	LTP288	ltpFR	1	5	0	BILL	126	n/a	5	0	n/a	n/a	n/a	n/a	n/a
4346.666	n/a	REC_START	2173333	n/a	LTP288	ltpFR	1	6	n/a	n/a	n/a	n/a	n/a	n/a	n/a	n/a	n/a	n/a	n/a
4346.7	n/a	RECOG_TARGET	2173350	n/a	LTP288	ltpFR	1	6	0	APPLE	33	1	5	0	n/a	n/a	n/a	n/a	n/a
4348.016	n/a	RECOG_RESP	2174008	n/a	LTP288	ltpFR	1	6	0	APPLE	33	1	n/a	0	n/a	n/a	n/a	n/a	n/a
4348.756	n/a	RECOG_CONF	2174378	n/a	LTP288	ltpFR	1	6	0	APPLE	33	n/a	5	0	n/a	n/a	n/a	n/a	n/a
4350.676	n/a	RECOG_TARGET	2175338	n/a	LTP288	ltpFR	1	6	1	OX	994	1	4	1	n/a	n/a	n/a	n/a	n/a
4351.736	n/a	RECOG_RESP	2175868	n/a	LTP288	ltpFR	1	6	1	OX	994	1	n/a	1	n/a	n/a	n/a	n/a	n/a
4352.516	n/a	RECOG_CONF	2176258	n/a	LTP288	ltpFR	1	6	1	OX	994	n/a	4	1	n/a	n/a	n/a	n/a	n/a
4354.306	n/a	RECOG_LURE	2177153	n/a	LTP288	ltpFR	1	6	n/a	EYELASH	546	0	3	n/a	n/a	n/a	n/a	n/a	n/a
4355.996	n/a	RECOG_RESP	2177998	n/a	LTP288	ltpFR	1	6	n/a	EYELASH	546	0	n/a	n/a	n/a	n/a	n/a	n/a	n/a
4356.936	n/a	RECOG_CONF	2178468	n/a	LTP288	ltpFR	1	6	n/a	EYELASH	546	n/a	3	n/a	n/a	n/a	n/a	n/a	n/a
4358.798	n/a	RECOG_TARGET	2179399	n/a	LTP288	ltpFR	1	6	0	CEILING	265	1	4	1	n/a	n/a	n/a	n/a	n/a
4359.59	n/a	RECOG_RESP	2179795	n/a	LTP288	ltpFR	1	6	0	CEILING	265	1	n/a	1	n/a	n/a	n/a	n/a	n/a
