mstime	trial_type	stim_file	subject	experiment	session	trial	task	item_name	item_num	recog_conf	resp	color_b	color_g	color_r	case	font
0	SESS_START	n/a	LTP144	ltpFR	2	n/a	n/a	n/a	n/a	2	n/a	n/a	n/a	n/a	n/a	n/a
89550	WORD	wordpools/wasnorm_wordpool.txt	LTP144	ltpFR	2	1	0	RUM	1217	n/a	0	0	0.5869140625	0.422607421875	upper	../fonts/amplitud.ttf
93648	WORD	wordpools/wasnorm_wordpool.txt	LTP144	ltpFR	2	1	0	SEAL	1262	n/a	1	0	0.5869140625	0.422607421875	upper	../fonts/amplitud.ttf
97530	WORD	wordpools/wasnorm_wordpool.txt	LTP144	ltpFR	2	1	0	PACKAGE	997	n/a	1	0	0.5869140625	0.422607421875	upper	../fonts/amplitud.ttf
101354	WORD	wordpools/wasnorm_wordpool.txt	LTP144	ltpFR	2	1	1	ENEMY	534	n/a	1	1	0.412841796875	0.57763671875	lower	../fonts/zerothre.ttf
105353	WORD	wordpools/wasnorm_wordpool.txt	LTP144	ltpFR	2	1	1	DELINQUENT	445	n/a	1	1	0.412841796875	0.57763671875	lower	../fonts/zerothre.ttf
109401	WORD	wordpools/wasnorm_wordpool.txt	LTP144	ltpFR	2	1	1	PROTON	1132	n/a	0	1	0.412841796875	0.57763671875	lower	../fonts/zerothre.ttf
113575	WORD	wordpools/wasnorm_wordpool.txt	LTP144	ltpFR	2	1	1	SHEEP	1278	n/a	1	1	0.412841796875	0.57763671875	lower	../fonts/zerothre.ttf
117465	WORD	wordpools/wasnorm_wordpool.txt	LTP144	ltpFR	2	1	0	THICKET	1455	n/a	1	0	0.5869140625	0.422607421875	upper	../fonts/amplitud.ttf
121430	WORD	wordpools/wasnorm_wordpool.txt	LTP144	ltpFR	2	1	0	GUEST	669	n/a	1	0	0.5869140625	0.422607421875	upper	../fonts/amplitud.ttf
125354	WORD	wordpools/wasnorm_wordpool.txt	LTP144	ltpFR	2	1	0	MUG	930	n/a	0	0	0.5869140625	0.422607421875	upper	../fonts/amplitud.ttf
129169	WORD	wordpools/wasnorm_wordpool.txt	LTP144	ltpFR	2	1	1	MAJOR	859	n/a	1	1	0.412841796875	0.57763671875	lower	../fonts/zerothre.ttf
133309	WORD	wordpools/wasnorm_wordpool.txt	LTP144	ltpFR	2	1	1	GAZELLE	628	n/a	1	1	0.412841796875	0.57763671875	lower	../fonts/zerothre.ttf
137208	WORD	wordpools/wasnorm_wordpool.txt	LTP144	ltpFR	2	1	1	SALT	1229	n/a	0	1	0.412841796875	0.57763671875	lower	../fonts/zerothre.ttf
141098	WORD	wordpools/wasnorm_wordpool.txt	LTP144	ltpFR	2	1	1	CINNAMON	310	n/a	0	1	0.412841796875	0.57763671875	lower	../fonts/zerothre.ttf
145247	WORD	wordpools/wasnorm_wordpool.txt	LTP144	ltpFR	2	1	0	JUG	762	n/a	1	0	0.5869140625	0.422607421875	upper	../fonts/amplitud.ttf
149279	WORD	wordpools/wasnorm_wordpool.txt	LTP144	ltpFR	2	1	0	LAKE	796	n/a	1	0	0.5869140625	0.422607421875	upper	../fonts/amplitud.ttf
155085	REC_START	n/a	LTP144	ltpFR	2	1	n/a	n/a	n/a	n/a	n/a	n/a	n/a	n/a	n/a	n/a
156382	REC_WORD	wordpools/wasnorm_wordpool.txt	LTP144	ltpFR	2	1	0	LAKE	796	n/a	1	n/a	n/a	n/a	n/a	n/a
157350	REC_WORD	wordpools/wasnorm_wordpool.txt	LTP144	ltpFR	2	1	0	JUG	762	n/a	1	n/a	n/a	n/a	n/a	n/a
158282	REC_WORD	wordpools/wasnorm_wordpool.txt	LTP144	ltpFR	2	1	0	RUM	1217	n/a	0	n/a	n/a	n/a	n/a	n/a
159759	REC_WORD	wordpools/wasnorm_wordpool.txt	LTP144	ltpFR	2	1	0	THICKET	1455	n/a	1	n/a	n/a	n/a	n/a	n/a
160602	REC_WORD	wordpools/wasnorm_wordpool.txt	LTP144	ltpFR	2	1	1	ENEMY	534	n/a	1	n/a	n/a	n/a	n/a	n/a
161415	REC_WORD	wordpools/wasnorm_wordpool.txt	LTP144	ltpFR	2	1	1	DELINQUENT	445	n/a	1	n/a	n/a	n/a	n/a	n/a
162363	REC_WORD	wordpools/wasnorm_wordpool.txt	LTP144	ltpFR	2	1	1	SHEEP	1278	n/a	1	n/a	n/a	n/a	n/a	n/a
167751	REC_WORD	wordpools/wasnorm_wordpool.txt	LTP144	ltpFR	2	1	0	SEAL	1262	n/a	1	n/a	n/a	n/a	n/a	n/a
171448	REC_WORD	wordpools/wasnorm_wordpool.txt	LTP144	ltpFR	2	1	0	PACKAGE	997	n/a	1	n/a	n/a	n/a	n/a	n/a
192230	REC_WORD	wordpools/wasnorm_wordpool.txt	LTP144	ltpFR	2	1	1	SALT	1229	n/a	0	n/a	n/a	n/a	n/a	n/a
201769	REC_WORD	wordpools/wasnorm_wordpool.txt	LTP144	ltpFR	2	1	1	PROTON	1132	n/a	0	n/a	n/a	n/a	n/a	n/a
235281	WORD	wordpools/wasnorm_wordpool.txt	LTP144	ltpFR	2	2	1	KITE	779	n/a	0	1	0.412841796875	0.57763671875	lower	../fonts/zerothre.ttf
239472	WORD	wordpools/wasnorm_wordpool.txt	LTP144	ltpFR	2	2	1	PATIENT	1024	n/a	1	1	0.412841796875	0.57763671875	lower	../fonts/zerothre.ttf
243462	WORD	wordpools/wasnorm_wordpool.txt	LTP144	ltpFR	2	2	1	PEDAL	1037	n/a	0	1	0.412841796875	0.57763671875	lower	../fonts/zerothre.ttf
247369	WORD	wordpools/wasnorm_wordpool.txt	LTP144	ltpFR	2	2	1	DRIVER	499	n/a	1	1	0.412841796875	0.57763671875	lower	../fonts/zerothre.ttf
251376	WORD	wordpools/wasnorm_wordpool.txt	LTP144	ltpFR	2	2	1	CONTRACTOR	369	n/a	1	1	0.412841796875	0.57763671875	lower	../fonts/zerothre.ttf
255308	WORD	wordpools/wasnorm_wordpool.txt	LTP144	ltpFR	2	2	1	JET	756	n/a	0	1	0.412841796875	0.57763671875	lower	../fonts/zerothre.ttf
259223	WORD	wordpools/wasnorm_wordpool.txt	LTP144	ltpFR	2	2	0	CHEMIST	292	n/a	1	0	0.5869140625	0.422607421875	upper	../fonts/amplitud.ttf
263371	WORD	wordpools/wasnorm_wordpool.txt	LTP144	ltpFR	2	2	0	BEAKER	104	n/a	0	0	0.5869140625	0.422607421875	upper	../fonts/amplitud.ttf
267545	WORD	wordpools/wasnorm_wordpool.txt	LTP144	ltpFR	2	2	0	LIVER	833	n/a	0	0	0.5869140625	0.422607421875	upper	../fonts/amplitud.ttf
271552	WORD	wordpools/wasnorm_wordpool.txt	LTP144	ltpFR	2	2	0	NURSE	963	n/a	1	0	0.5869140625	0.422607421875	upper	../fonts/amplitud.ttf
275601	WORD	wordpools/wasnorm_wordpool.txt	LTP144	ltpFR	2	2	0	STRAW	1390	n/a	1	0	0.5869140625	0.422607421875	upper	../fonts/amplitud.ttf
279482	WORD	wordpools/wasnorm_wordpool.txt	LTP144	ltpFR	2	2	0	SILVERWARE	1308	n/a	0	0	0.5869140625	0.422607421875	upper	../fonts/amplitud.ttf
283607	WORD	wordpools/wasnorm_wordpool.txt	LTP144	ltpFR	2	2	1	OAR	966	n/a	0	1	0.412841796875	0.57763671875	lower	../fonts/zerothre.ttf
287763	WORD	wordpools/wasnorm_wordpool.txt	LTP144	ltpFR	2	2	1	SLOPE	1328	n/a	0	1	0.412841796875	0.57763671875	lower	../fonts/zerothre.ttf
291612	WORD	wordpools/wasnorm_wordpool.txt	LTP144	ltpFR	2	2	0	GRILL	661	n/a	1	0	0.5869140625	0.422607421875	upper	../fonts/amplitud.ttf
295635	WORD	wordpools/wasnorm_wordpool.txt	LTP144	ltpFR	2	2	0	FRIES	607	n/a	0	0	0.5869140625	0.422607421875	upper	../fonts/amplitud.ttf
301292	REC_START	n/a	LTP144	ltpFR	2	2	n/a	n/a	n/a	n/a	n/a	n/a	n/a	n/a	n/a	n/a
302055	REC_WORD	wordpools/wasnorm_wordpool.txt	LTP144	ltpFR	2	2	0	FRIES	607	n/a	0	n/a	n/a	n/a	n/a	n/a
303053	REC_WORD	wordpools/wasnorm_wordpool.txt	LTP144	ltpFR	2	2	0	GRILL	661	n/a	1	n/a	n/a	n/a	n/a	n/a
305407	REC_WORD	wordpools/wasnorm_wordpool.txt	LTP144	ltpFR	2	2	1	PATIENT	1024	n/a	1	n/a	n/a	n/a	n/a	n/a
306290	REC_WORD	wordpools/wasnorm_wordpool.txt	LTP144	ltpFR	2	2	0	NURSE	963	n/a	1	n/a	n/a	n/a	n/a	n/a
315914	REC_WORD	wordpools/wasnorm_wordpool.txt	LTP144	ltpFR	2	2	0	STRAW	1390	n/a	1	n/a	n/a	n/a	n/a	n/a
316906	REC_WORD	wordpools/wasnorm_wordpool.txt	LTP144	ltpFR	2	2	0	SILVERWARE	1308	n/a	0	n/a	n/a	n/a	n/a	n/a
345606	REC_WORD	wordpools/wasnorm_wordpool.txt	LTP144	ltpFR	2	2	1	SLOPE	1328	n/a	0	n/a	n/a	n/a	n/a	n/a
354506	REC_WORD	wordpools/wasnorm_wordpool.txt	LTP144	ltpFR	2	2	1	OAR	966	n/a	0	n/a	n/a	n/a	n/a	n/a
404979	WORD	wordpools/wasnorm_wordpool.txt	LTP144	ltpFR	2	3	1	PUMPKIN	1142	n/a	1	1	0.412841796875	0.57763671875	lower	../fonts/zerothre.ttf
409095	WORD	wordpools/wasnorm_wordpool.txt	LTP144	ltpFR	2	3	1	BOLT	146	n/a	0	1	0.412841796875	0.57763671875	lower	../fonts/zerothre.ttf
413293	WORD	wordpools/wasnorm_wordpool.txt	LTP144	ltpFR	2	3	1	SUMMIT	1405	n/a	0	1	0.412841796875	0.57763671875	lower	../fonts/zerothre.ttf
417150	WORD	wordpools/wasnorm_wordpool.txt	LTP144	ltpFR	2	3	1	DWARF	510	n/a	1	1	0.412841796875	0.57763671875	lower	../fonts/zerothre.ttf
421282	WORD	wordpools/wasnorm_wordpool.txt	LTP144	ltpFR	2	3	1	CHILD	299	n/a	1	1	0.412841796875	0.57763671875	lower	../fonts/zerothre.ttf
425405	WORD	wordpools/wasnorm_wordpool.txt	LTP144	ltpFR	2	3	1	BUSH	202	n/a	1	1	0.412841796875	0.57763671875	lower	../fonts/zerothre.ttf
429571	WORD	wordpools/wasnorm_wordpool.txt	LTP144	ltpFR	2	3	1	PRESIDENT	1121	n/a	1	1	0.412841796875	0.57763671875	lower	../fonts/zerothre.ttf
433661	WORD	wordpools/wasnorm_wordpool.txt	LTP144	ltpFR	2	3	1	VIKING	1565	n/a	1	1	0.412841796875	0.57763671875	lower	../fonts/zerothre.ttf
437634	WORD	wordpools/wasnorm_wordpool.txt	LTP144	ltpFR	2	3	1	CHEERLEADER	288	n/a	1	1	0.412841796875	0.57763671875	lower	../fonts/zerothre.ttf
441633	WORD	wordpools/wasnorm_wordpool.txt	LTP144	ltpFR	2	3	1	JOURNAL	760	n/a	0	1	0.412841796875	0.57763671875	lower	../fonts/zerothre.ttf
445640	WORD	wordpools/wasnorm_wordpool.txt	LTP144	ltpFR	2	3	1	PORT	1110	n/a	0	1	0.412841796875	0.57763671875	lower	../fonts/zerothre.ttf
449763	WORD	wordpools/wasnorm_wordpool.txt	LTP144	ltpFR	2	3	1	ELEVATOR	524	n/a	0	1	0.412841796875	0.57763671875	lower	../fonts/zerothre.ttf
453879	WORD	wordpools/wasnorm_wordpool.txt	LTP144	ltpFR	2	3	1	STAIRS	1367	n/a	0	1	0.412841796875	0.57763671875	lower	../fonts/zerothre.ttf
457960	WORD	wordpools/wasnorm_wordpool.txt	LTP144	ltpFR	2	3	1	BRUNETTE	181	n/a	1	1	0.412841796875	0.57763671875	lower	../fonts/zerothre.ttf
462059	WORD	wordpools/wasnorm_wordpool.txt	LTP144	ltpFR	2	3	1	BASSINET	97	n/a	0	1	0.412841796875	0.57763671875	lower	../fonts/zerothre.ttf
466116	WORD	wordpools/wasnorm_wordpool.txt	LTP144	ltpFR	2	3	1	NEWSPAPER	948	n/a	0	1	0.412841796875	0.57763671875	lower	../fonts/zerothre.ttf
471689	REC_START	n/a	LTP144	ltpFR	2	3	n/a	n/a	n/a	n/a	n/a	n/a	n/a	n/a	n/a	n/a
473804	REC_WORD	wordpools/wasnorm_wordpool.txt	LTP144	ltpFR	2	3	1	BASSINET	97	n/a	0	n/a	n/a	n/a	n/a	n/a
474757	REC_WORD	wordpools/wasnorm_wordpool.txt	LTP144	ltpFR	2	3	1	BRUNETTE	181	n/a	1	n/a	n/a	n/a	n/a	n/a
475710	REC_WORD	wordpools/wasnorm_wordpool.txt	LTP144	ltpFR	2	3	1	SUMMIT	1405	n/a	0	n/a	n/a	n/a	n/a	n/a
478284	REC_WORD	wordpools/wasnorm_wordpool.txt	LTP144	ltpFR	2	3	1	PUMPKIN	1142	n/a	1	n/a	n/a	n/a	n/a	n/a
479162	REC_WORD	wordpools/wasnorm_wordpool.txt	LTP144	ltpFR	2	3	1	BOLT	146	n/a	0	n/a	n/a	n/a	n/a	n/a
484111	REC_WORD	wordpools/wasnorm_wordpool.txt	LTP144	ltpFR	2	3	1	CHEERLEADER	288	n/a	1	n/a	n/a	n/a	n/a	n/a
491170	REC_WORD	wordpools/wasnorm_wordpool.txt	LTP144	ltpFR	2	3	1	JOURNAL	760	n/a	0	n/a	n/a	n/a	n/a	n/a
570870	WORD	wordpools/wasnorm_wordpool.txt	LTP144	ltpFR	2	4	0	LAPEL	800	n/a	0	0	0.5869140625	0.422607421875	upper	../fonts/amplitud.ttf
574694	WORD	wordpools/wasnorm_wordpool.txt	LTP144	ltpFR	2	4	0	CAMERA	224	n/a	0	0	0.5869140625	0.422607421875	upper	../fonts/amplitud.ttf
578551	WORD	wordpools/wasnorm_wordpool.txt	LTP144	ltpFR	2	4	0	RATTLE	1170	n/a	0	0	0.5869140625	0.422607421875	upper	../fonts/amplitud.ttf
582683	WORD	wordpools/wasnorm_wordpool.txt	LTP144	ltpFR	2	4	0	MONGOOSE	909	n/a	1	0	0.5869140625	0.422607421875	upper	../fonts/amplitud.ttf
586840	WORD	wordpools/wasnorm_wordpool.txt	LTP144	ltpFR	2	4	0	SWEATER	1419	n/a	1	0	0.5869140625	0.422607421875	upper	../fonts/amplitud.ttf
590922	WORD	wordpools/wasnorm_wordpool.txt	LTP144	ltpFR	2	4	0	CHURCH	307	n/a	1	0	0.5869140625	0.422607421875	upper	../fonts/amplitud.ttf
595095	WORD	wordpools/wasnorm_wordpool.txt	LTP144	ltpFR	2	4	0	FUNGUS	614	n/a	0	0	0.5869140625	0.422607421875	upper	../fonts/amplitud.ttf
599194	WORD	wordpools/wasnorm_wordpool.txt	LTP144	ltpFR	2	4	0	DICE	461	n/a	0	0	0.5869140625	0.422607421875	upper	../fonts/amplitud.ttf
603126	WORD	wordpools/wasnorm_wordpool.txt	LTP144	ltpFR	2	4	0	ROBOT	1200	n/a	1	0	0.5869140625	0.422607421875	upper	../fonts/amplitud.ttf
606941	WORD	wordpools/wasnorm_wordpool.txt	LTP144	ltpFR	2	4	0	TYPEWRITER	1531	n/a	0	0	0.5869140625	0.422607421875	upper	../fonts/amplitud.ttf
610889	WORD	wordpools/wasnorm_wordpool.txt	LTP144	ltpFR	2	4	0	ACTRESS	6	n/a	1	0	0.5869140625	0.422607421875	upper	../fonts/amplitud.ttf
614771	WORD	wordpools/wasnorm_wordpool.txt	LTP144	ltpFR	2	4	0	SWING	1421	n/a	1	0	0.5869140625	0.422607421875	upper	../fonts/amplitud.ttf
618653	WORD	wordpools/wasnorm_wordpool.txt	LTP144	ltpFR	2	4	0	TREAD	1499	n/a	1	0	0.5869140625	0.422607421875	upper	../fonts/amplitud.ttf
622785	WORD	wordpools/wasnorm_wordpool.txt	LTP144	ltpFR	2	4	0	OX	994	n/a	1	0	0.5869140625	0.422607421875	upper	../fonts/amplitud.ttf
626917	WORD	wordpools/wasnorm_wordpool.txt	LTP144	ltpFR	2	4	0	PHOTO	1055	n/a	n/a	0	0.5869140625	0.422607421875	upper	../fonts/amplitud.ttf
629941	SLOW_MSG	n/a	LTP144	ltpFR	2	4	n/a	n/a	n/a	n/a	n/a	n/a	n/a	n/a	n/a	n/a
632415	WORD	wordpools/wasnorm_wordpool.txt	LTP144	ltpFR	2	4	0	BEAVER	109	n/a	1	0	0.5869140625	0.422607421875	upper	../fonts/amplitud.ttf
638180	REC_START	n/a	LTP144	ltpFR	2	4	n/a	n/a	n/a	n/a	n/a	n/a	n/a	n/a	n/a	n/a
639801	REC_WORD	wordpools/wasnorm_wordpool.txt	LTP144	ltpFR	2	4	0	BEAVER	109	n/a	1	n/a	n/a	n/a	n/a	n/a
640934	REC_WORD	wordpools/wasnorm_wordpool.txt	LTP144	ltpFR	2	4	0	PHOTO	1055	n/a	n/a	n/a	n/a	n/a	n/a	n/a
641677	REC_WORD	wordpools/wasnorm_wordpool.txt	LTP144	ltpFR	2	4	0	CAMERA	224	n/a	0	n/a	n/a	n/a	n/a	n/a
642485	REC_WORD	wordpools/wasnorm_wordpool.txt	LTP144	ltpFR	2	4	0	ACTRESS	6	n/a	1	n/a	n/a	n/a	n/a	n/a
646226	REC_WORD	wordpools/wasnorm_wordpool.txt	LTP144	ltpFR	2	4	0	LAPEL	800	n/a	0	n/a	n/a	n/a	n/a	n/a
659851	REC_WORD	wordpools/wasnorm_wordpool.txt	LTP144	ltpFR	2	4	0	TREAD	1499	n/a	1	n/a	n/a	n/a	n/a	n/a
663727	REC_WORD	wordpools/wasnorm_wordpool.txt	LTP144	ltpFR	2	4	0	SWEATER	1419	n/a	1	n/a	n/a	n/a	n/a	n/a
765493	WORD	wordpools/wasnorm_wordpool.txt	LTP144	ltpFR	2	5	-1	CAGE	218	n/a	-1	1	1.0	1.0	upper	../fonts/Verdana.ttf
769458	WORD	wordpools/wasnorm_wordpool.txt	LTP144	ltpFR	2	5	-1	YOUTH	1634	n/a	-1	1	1.0	1.0	upper	../fonts/Verdana.ttf
773608	WORD	wordpools/wasnorm_wordpool.txt	LTP144	ltpFR	2	5	-1	WHEAT	1602	n/a	-1	1	1.0	1.0	upper	../fonts/Verdana.ttf
777539	WORD	wordpools/wasnorm_wordpool.txt	LTP144	ltpFR	2	5	-1	TOAST	1471	n/a	-1	1	1.0	1.0	upper	../fonts/Verdana.ttf
781662	WORD	wordpools/wasnorm_wordpool.txt	LTP144	ltpFR	2	5	-1	BARLEY	88	n/a	-1	1	1.0	1.0	upper	../fonts/Verdana.ttf
785486	WORD	wordpools/wasnorm_wordpool.txt	LTP144	ltpFR	2	5	-1	TURNIP	1521	n/a	-1	1	1.0	1.0	upper	../fonts/Verdana.ttf
789351	WORD	wordpools/wasnorm_wordpool.txt	LTP144	ltpFR	2	5	-1	POTATO	1115	n/a	-1	1	1.0	1.0	upper	../fonts/Verdana.ttf
793175	WORD	wordpools/wasnorm_wordpool.txt	LTP144	ltpFR	2	5	-1	DRAWING	494	n/a	-1	1	1.0	1.0	upper	../fonts/Verdana.ttf
797007	WORD	wordpools/wasnorm_wordpool.txt	LTP144	ltpFR	2	5	-1	PAINTING	1005	n/a	-1	1	1.0	1.0	upper	../fonts/Verdana.ttf
801105	WORD	wordpools/wasnorm_wordpool.txt	LTP144	ltpFR	2	5	-1	WINDOW	1611	n/a	-1	1	1.0	1.0	upper	../fonts/Verdana.ttf
805112	WORD	wordpools/wasnorm_wordpool.txt	LTP144	ltpFR	2	5	-1	BOYFRIEND	162	n/a	-1	1	1.0	1.0	upper	../fonts/Verdana.ttf
809302	WORD	wordpools/wasnorm_wordpool.txt	LTP144	ltpFR	2	5	-1	PARTNER	1017	n/a	-1	1	1.0	1.0	upper	../fonts/Verdana.ttf
813243	WORD	wordpools/wasnorm_wordpool.txt	LTP144	ltpFR	2	5	-1	MUSEUM	933	n/a	-1	1	1.0	1.0	upper	../fonts/Verdana.ttf
817216	WORD	wordpools/wasnorm_wordpool.txt	LTP144	ltpFR	2	5	-1	LEOPARD	812	n/a	-1	1	1.0	1.0	upper	../fonts/Verdana.ttf
821356	WORD	wordpools/wasnorm_wordpool.txt	LTP144	ltpFR	2	5	-1	MONASTERY	907	n/a	-1	1	1.0	1.0	upper	../fonts/Verdana.ttf
825222	WORD	wordpools/wasnorm_wordpool.txt	LTP144	ltpFR	2	5	-1	NUN	962	n/a	-1	1	1.0	1.0	upper	../fonts/Verdana.ttf
831020	REC_START	n/a	LTP144	ltpFR	2	5	n/a	n/a	n/a	n/a	n/a	n/a	n/a	n/a	n/a	n/a
832013	REC_WORD	wordpools/wasnorm_wordpool.txt	LTP144	ltpFR	2	5	-1	NUN	962	n/a	-1	n/a	n/a	n/a	n/a	n/a
832861	REC_WORD	wordpools/wasnorm_wordpool.txt	LTP144	ltpFR	2	5	-1	MONASTERY	907	n/a	-1	n/a	n/a	n/a	n/a	n/a
834008	REC_WORD	wordpools/wasnorm_wordpool.txt	LTP144	ltpFR	2	5	-1	YOUTH	1634	n/a	-1	n/a	n/a	n/a	n/a	n/a
834966	REC_WORD	wordpools/wasnorm_wordpool.txt	LTP144	ltpFR	2	5	-1	CAGE	218	n/a	-1	n/a	n/a	n/a	n/a	n/a
836757	REC_WORD	wordpools/wasnorm_wordpool.txt	LTP144	ltpFR	2	5	-1	WHEAT	1602	n/a	-1	n/a	n/a	n/a	n/a	n/a
839436	REC_WORD	wordpools/wasnorm_wordpool.txt	LTP144	ltpFR	2	5	-1	BARLEY	88	n/a	-1	n/a	n/a	n/a	n/a	n/a
841975	REC_WORD	wordpools/wasnorm_wordpool.txt	LTP144	ltpFR	2	5	-1	TURNIP	1521	n/a	-1	n/a	n/a	n/a	n/a	n/a
846529	REC_WORD	wordpools/wasnorm_wordpool.txt	LTP144	ltpFR	2	5	-1	BOYFRIEND	162	n/a	-1	n/a	n/a	n/a	n/a	n/a
847253	REC_WORD	wordpools/wasnorm_wordpool.txt	LTP144	ltpFR	2	5	-1	PARTNER	1017	n/a	-1	n/a	n/a	n/a	n/a	n/a
848640	REC_WORD	wordpools/wasnorm_wordpool.txt	LTP144	ltpFR	2	5	-1	WINDOW	1611	n/a	-1	n/a	n/a	n/a	n/a	n/a
849533	REC_WORD	wordpools/wasnorm_wordpool.txt	LTP144	ltpFR	2	5	-1	MUSEUM	933	n/a	-1	n/a	n/a	n/a	n/a	n/a
850486	REC_WORD	wordpools/wasnorm_wordpool.txt	LTP144	ltpFR	2	5	-1	LEOPARD	812	n/a	-1	n/a	n/a	n/a	n/a	n/a
856013	REC_WORD	wordpools/wasnorm_wordpool.txt	LTP144	ltpFR	2	5	-1	DRAWING	494	n/a	-1	n/a	n/a	n/a	n/a	n/a
856806	REC_WORD	wordpools/wasnorm_wordpool.txt	LTP144	ltpFR	2	5	-1	PAINTING	1005	n/a	-1	n/a	n/a	n/a	n/a	n/a
936949	WORD	wordpools/wasnorm_wordpool.txt	LTP144	ltpFR	2	6	1	ROOMMATE	1207	n/a	1	1	0.412841796875	0.57763671875	lower	../fonts/zerothre.ttf
940989	WORD	wordpools/wasnorm_wordpool.txt	LTP144	ltpFR	2	6	1	WHALE	1601	n/a	1	1	0.412841796875	0.57763671875	lower	../fonts/zerothre.ttf
944937	WORD	wordpools/wasnorm_wordpool.txt	LTP144	ltpFR	2	6	1	TROUT	1511	n/a	1	1	0.412841796875	0.57763671875	lower	../fonts/zerothre.ttf
948853	WORD	wordpools/wasnorm_wordpool.txt	LTP144	ltpFR	2	6	1	GATE	625	n/a	0	1	0.412841796875	0.57763671875	lower	../fonts/zerothre.ttf
952826	WORD	wordpools/wasnorm_wordpool.txt	LTP144	ltpFR	2	6	1	FRIEND	606	n/a	1	1	0.412841796875	0.57763671875	lower	../fonts/zerothre.ttf
956866	WORD	wordpools/wasnorm_wordpool.txt	LTP144	ltpFR	2	6	1	HOSPITAL	721	n/a	0	1	0.412841796875	0.57763671875	lower	../fonts/zerothre.ttf
960948	WORD	wordpools/wasnorm_wordpool.txt	LTP144	ltpFR	2	6	1	WELL	1600	n/a	0	1	0.412841796875	0.57763671875	lower	../fonts/zerothre.ttf
964789	WORD	wordpools/wasnorm_wordpool.txt	LTP144	ltpFR	2	6	1	DOORBELL	487	n/a	0	1	0.412841796875	0.57763671875	lower	../fonts/zerothre.ttf
968754	WORD	wordpools/wasnorm_wordpool.txt	LTP144	ltpFR	2	6	1	BANK	83	n/a	0	1	0.412841796875	0.57763671875	lower	../fonts/zerothre.ttf
972802	WORD	wordpools/wasnorm_wordpool.txt	LTP144	ltpFR	2	6	1	LOVER	846	n/a	1	1	0.412841796875	0.57763671875	lower	../fonts/zerothre.ttf
976684	WORD	wordpools/wasnorm_wordpool.txt	LTP144	ltpFR	2	6	1	VIRUS	1572	n/a	1	1	0.412841796875	0.57763671875	lower	../fonts/zerothre.ttf
980633	WORD	wordpools/wasnorm_wordpool.txt	LTP144	ltpFR	2	6	1	TREASURE	1500	n/a	0	1	0.412841796875	0.57763671875	lower	../fonts/zerothre.ttf
984832	WORD	wordpools/wasnorm_wordpool.txt	LTP144	ltpFR	2	6	1	BILL	126	n/a	0	1	0.412841796875	0.57763671875	lower	../fonts/zerothre.ttf
988689	WORD	wordpools/wasnorm_wordpool.txt	LTP144	ltpFR	2	6	1	REPTILE	1185	n/a	1	1	0.412841796875	0.57763671875	lower	../fonts/zerothre.ttf
992737	WORD	wordpools/wasnorm_wordpool.txt	LTP144	ltpFR	2	6	1	PATIO	1025	n/a	0	1	0.412841796875	0.57763671875	lower	../fonts/zerothre.ttf
996636	WORD	wordpools/wasnorm_wordpool.txt	LTP144	ltpFR	2	6	1	TENT	1449	n/a	0	1	0.412841796875	0.57763671875	lower	../fonts/zerothre.ttf
1002585	REC_START	n/a	LTP144	ltpFR	2	6	n/a	n/a	n/a	n/a	n/a	n/a	n/a	n/a	n/a	n/a
1003727	REC_WORD	wordpools/wasnorm_wordpool.txt	LTP144	ltpFR	2	6	1	PATIO	1025	n/a	0	n/a	n/a	n/a	n/a	n/a
1004760	REC_WORD	wordpools/wasnorm_wordpool.txt	LTP144	ltpFR	2	6	1	TENT	1449	n/a	0	n/a	n/a	n/a	n/a	n/a
1006730	REC_WORD	wordpools/wasnorm_wordpool.txt	LTP144	ltpFR	2	6	1	WHALE	1601	n/a	1	n/a	n/a	n/a	n/a	n/a
1009744	REC_WORD	wordpools/wasnorm_wordpool.txt	LTP144	ltpFR	2	6	1	ROOMMATE	1207	n/a	1	n/a	n/a	n/a	n/a	n/a
1011734	REC_WORD	wordpools/wasnorm_wordpool.txt	LTP144	ltpFR	2	6	1	LOVER	846	n/a	1	n/a	n/a	n/a	n/a	n/a
1017850	REC_WORD	wordpools/wasnorm_wordpool.txt	LTP144	ltpFR	2	6	1	BANK	83	n/a	0	n/a	n/a	n/a	n/a	n/a
1018803	REC_WORD	wordpools/wasnorm_wordpool.txt	LTP144	ltpFR	2	6	1	BILL	126	n/a	0	n/a	n/a	n/a	n/a	n/a
1020300	REC_WORD	wordpools/wasnorm_wordpool.txt	LTP144	ltpFR	2	6	1	TROUT	1511	n/a	1	n/a	n/a	n/a	n/a	n/a
1024051	REC_WORD	wordpools/wasnorm_wordpool.txt	LTP144	ltpFR	2	6	1	GATE	625	n/a	0	n/a	n/a	n/a	n/a	n/a
1057580	REC_WORD	wordpools/wasnorm_wordpool.txt	LTP144	ltpFR	2	6	1	VIRUS	1572	n/a	1	n/a	n/a	n/a	n/a	n/a
1087953	WORD	wordpools/wasnorm_wordpool.txt	LTP144	ltpFR	2	7	0	OWNER	993	n/a	1	0	0.5869140625	0.422607421875	upper	../fonts/amplitud.ttf
1092052	WORD	wordpools/wasnorm_wordpool.txt	LTP144	ltpFR	2	7	0	SHACK	1273	n/a	1	0	0.5869140625	0.422607421875	upper	../fonts/amplitud.ttf
1096034	WORD	wordpools/wasnorm_wordpool.txt	LTP144	ltpFR	2	7	1	CIGARETTE	309	n/a	0	1	0.412841796875	0.57763671875	lower	../fonts/zerothre.ttf
1099849	WORD	wordpools/wasnorm_wordpool.txt	LTP144	ltpFR	2	7	1	LAWYER	806	n/a	1	1	0.412841796875	0.57763671875	lower	../fonts/zerothre.ttf
1104014	WORD	wordpools/wasnorm_wordpool.txt	LTP144	ltpFR	2	7	1	LOG	841	n/a	0	1	0.412841796875	0.57763671875	lower	../fonts/zerothre.ttf
1108188	WORD	wordpools/wasnorm_wordpool.txt	LTP144	ltpFR	2	7	1	ROUGE	1213	n/a	0	1	0.412841796875	0.57763671875	lower	../fonts/zerothre.ttf
1112028	WORD	wordpools/wasnorm_wordpool.txt	LTP144	ltpFR	2	7	1	TOMBSTONE	1478	n/a	0	1	0.412841796875	0.57763671875	lower	../fonts/zerothre.ttf
1115943	WORD	wordpools/wasnorm_wordpool.txt	LTP144	ltpFR	2	7	0	ASHTRAY	45	n/a	0	0	0.5869140625	0.422607421875	upper	../fonts/amplitud.ttf
1120142	WORD	wordpools/wasnorm_wordpool.txt	LTP144	ltpFR	2	7	0	AIRPLANE	12	n/a	1	0	0.5869140625	0.422607421875	upper	../fonts/amplitud.ttf
1124082	WORD	wordpools/wasnorm_wordpool.txt	LTP144	ltpFR	2	7	0	DESSERT	453	n/a	0	0	0.5869140625	0.422607421875	upper	../fonts/amplitud.ttf
1127989	WORD	wordpools/wasnorm_wordpool.txt	LTP144	ltpFR	2	7	1	CUSTARD	429	n/a	0	1	0.412841796875	0.57763671875	lower	../fonts/zerothre.ttf
1132188	WORD	wordpools/wasnorm_wordpool.txt	LTP144	ltpFR	2	7	1	CALF	222	n/a	1	1	0.412841796875	0.57763671875	lower	../fonts/zerothre.ttf
1136369	WORD	wordpools/wasnorm_wordpool.txt	LTP144	ltpFR	2	7	1	WIDOW	1608	n/a	1	1	0.412841796875	0.57763671875	lower	../fonts/zerothre.ttf
1140226	WORD	wordpools/wasnorm_wordpool.txt	LTP144	ltpFR	2	7	0	FIREMAN	569	n/a	1	0	0.5869140625	0.422607421875	upper	../fonts/amplitud.ttf
1144308	WORD	wordpools/wasnorm_wordpool.txt	LTP144	ltpFR	2	7	0	SWAMP	1416	n/a	1	0	0.5869140625	0.422607421875	upper	../fonts/amplitud.ttf
1148373	WORD	wordpools/wasnorm_wordpool.txt	LTP144	ltpFR	2	7	0	SPRINKLE	1359	n/a	0	0	0.5869140625	0.422607421875	upper	../fonts/amplitud.ttf
1154364	REC_START	n/a	LTP144	ltpFR	2	7	n/a	n/a	n/a	n/a	n/a	n/a	n/a	n/a	n/a	n/a
1155237	REC_WORD	wordpools/wasnorm_wordpool.txt	LTP144	ltpFR	2	7	0	SPRINKLE	1359	n/a	0	n/a	n/a	n/a	n/a	n/a
1156334	REC_WORD	wordpools/wasnorm_wordpool.txt	LTP144	ltpFR	2	7	0	SWAMP	1416	n/a	1	n/a	n/a	n/a	n/a	n/a
1158454	REC_WORD	wordpools/wasnorm_wordpool.txt	LTP144	ltpFR	2	7	0	SHACK	1273	n/a	1	n/a	n/a	n/a	n/a	n/a
1159647	REC_WORD	wordpools/wasnorm_wordpool.txt	LTP144	ltpFR	2	7	0	OWNER	993	n/a	1	n/a	n/a	n/a	n/a	n/a
1164720	REC_WORD	wordpools/wasnorm_wordpool.txt	LTP144	ltpFR	2	7	1	CUSTARD	429	n/a	0	n/a	n/a	n/a	n/a	n/a
1167115	REC_WORD	wordpools/wasnorm_wordpool.txt	LTP144	ltpFR	2	7	1	ROUGE	1213	n/a	0	n/a	n/a	n/a	n/a	n/a
1178110	REC_WORD	wordpools/wasnorm_wordpool.txt	LTP144	ltpFR	2	7	0	ASHTRAY	45	n/a	0	n/a	n/a	n/a	n/a	n/a
1184256	REC_WORD	wordpools/wasnorm_wordpool.txt	LTP144	ltpFR	2	7	1	CIGARETTE	309	n/a	0	n/a	n/a	n/a	n/a	n/a
1185708	REC_WORD	wordpools/wasnorm_wordpool.txt	LTP144	ltpFR	2	7	1	LAWYER	806	n/a	1	n/a	n/a	n/a	n/a	n/a
1195061	REC_WORD	wordpools/wasnorm_wordpool.txt	LTP144	ltpFR	2	7	1	LOG	841	n/a	0	n/a	n/a	n/a	n/a	n/a
1248313	WORD	wordpools/wasnorm_wordpool.txt	LTP144	ltpFR	2	8	0	PREDATOR	1120	n/a	1	0	0.5869140625	0.422607421875	upper	../fonts/amplitud.ttf
1252203	WORD	wordpools/wasnorm_wordpool.txt	LTP144	ltpFR	2	8	0	GIRAFFE	636	n/a	1	0	0.5869140625	0.422607421875	upper	../fonts/amplitud.ttf
1256060	WORD	wordpools/wasnorm_wordpool.txt	LTP144	ltpFR	2	8	1	STRING	1394	n/a	0	1	0.412841796875	0.57763671875	lower	../fonts/zerothre.ttf
1260100	WORD	wordpools/wasnorm_wordpool.txt	LTP144	ltpFR	2	8	1	ROPE	1211	n/a	0	1	0.412841796875	0.57763671875	lower	../fonts/zerothre.ttf
1263957	WORD	wordpools/wasnorm_wordpool.txt	LTP144	ltpFR	2	8	1	FLUTE	585	n/a	0	1	0.412841796875	0.57763671875	lower	../fonts/zerothre.ttf
1267923	WORD	wordpools/wasnorm_wordpool.txt	LTP144	ltpFR	2	8	1	BRAKE	166	n/a	0	1	0.412841796875	0.57763671875	lower	../fonts/zerothre.ttf
1271738	WORD	wordpools/wasnorm_wordpool.txt	LTP144	ltpFR	2	8	1	DRIVEWAY	500	n/a	0	1	0.412841796875	0.57763671875	lower	../fonts/zerothre.ttf
1275570	WORD	wordpools/wasnorm_wordpool.txt	LTP144	ltpFR	2	8	0	SNACK	1331	n/a	0	0	0.5869140625	0.422607421875	upper	../fonts/amplitud.ttf
1279735	WORD	wordpools/wasnorm_wordpool.txt	LTP144	ltpFR	2	8	0	TREAT	1501	n/a	0	0	0.5869140625	0.422607421875	upper	../fonts/amplitud.ttf
1283934	WORD	wordpools/wasnorm_wordpool.txt	LTP144	ltpFR	2	8	0	WORLD	1622	n/a	1	0	0.5869140625	0.422607421875	upper	../fonts/amplitud.ttf
1287957	WORD	wordpools/wasnorm_wordpool.txt	LTP144	ltpFR	2	8	0	SALOON	1228	n/a	1	0	0.5869140625	0.422607421875	upper	../fonts/amplitud.ttf
1291964	WORD	wordpools/wasnorm_wordpool.txt	LTP144	ltpFR	2	8	0	BUGGY	188	n/a	1	0	0.5869140625	0.422607421875	upper	../fonts/amplitud.ttf
1296063	WORD	wordpools/wasnorm_wordpool.txt	LTP144	ltpFR	2	8	0	FIGHTER	564	n/a	1	0	0.5869140625	0.422607421875	upper	../fonts/amplitud.ttf
1299970	WORD	wordpools/wasnorm_wordpool.txt	LTP144	ltpFR	2	8	1	TUBA	1515	n/a	0	1	0.412841796875	0.57763671875	lower	../fonts/zerothre.ttf
1304151	WORD	wordpools/wasnorm_wordpool.txt	LTP144	ltpFR	2	8	1	BUTTERFLY	206	n/a	1	1	0.412841796875	0.57763671875	lower	../fonts/zerothre.ttf
1308342	WORD	wordpools/wasnorm_wordpool.txt	LTP144	ltpFR	2	8	1	PASSENGER	1020	n/a	1	1	0.412841796875	0.57763671875	lower	../fonts/zerothre.ttf
1314173	REC_START	n/a	LTP144	ltpFR	2	8	n/a	n/a	n/a	n/a	n/a	n/a	n/a	n/a	n/a	n/a
1315934	REC_WORD	wordpools/wasnorm_wordpool.txt	LTP144	ltpFR	2	8	1	PASSENGER	1020	n/a	1	n/a	n/a	n/a	n/a	n/a
1317361	REC_WORD	wordpools/wasnorm_wordpool.txt	LTP144	ltpFR	2	8	0	BUGGY	188	n/a	1	n/a	n/a	n/a	n/a	n/a
1320419	REC_WORD	wordpools/wasnorm_wordpool.txt	LTP144	ltpFR	2	8	0	WORLD	1622	n/a	1	n/a	n/a	n/a	n/a	n/a
1324060	REC_WORD	wordpools/wasnorm_wordpool.txt	LTP144	ltpFR	2	8	1	FLUTE	585	n/a	0	n/a	n/a	n/a	n/a	n/a
1325951	REC_WORD	wordpools/wasnorm_wordpool.txt	LTP144	ltpFR	2	8	1	STRING	1394	n/a	0	n/a	n/a	n/a	n/a	n/a
1327148	REC_WORD	wordpools/wasnorm_wordpool.txt	LTP144	ltpFR	2	8	1	TUBA	1515	n/a	0	n/a	n/a	n/a	n/a	n/a
1330291	REC_WORD	wordpools/wasnorm_wordpool.txt	LTP144	ltpFR	2	8	1	ROPE	1211	n/a	0	n/a	n/a	n/a	n/a	n/a
1351258	REC_WORD	wordpools/wasnorm_wordpool.txt	LTP144	ltpFR	2	8	0	SALOON	1228	n/a	1	n/a	n/a	n/a	n/a	n/a
1404732	WORD	wordpools/wasnorm_wordpool.txt	LTP144	ltpFR	2	9	-1	VEGETABLE	1552	n/a	-1	1	1.0	1.0	upper	../fonts/Verdana.ttf
1408856	WORD	wordpools/wasnorm_wordpool.txt	LTP144	ltpFR	2	9	-1	TOMATO	1476	n/a	-1	1	1.0	1.0	upper	../fonts/Verdana.ttf
1412946	WORD	wordpools/wasnorm_wordpool.txt	LTP144	ltpFR	2	9	-1	NAVIGATOR	938	n/a	-1	1	1.0	1.0	upper	../fonts/Verdana.ttf
1416886	WORD	wordpools/wasnorm_wordpool.txt	LTP144	ltpFR	2	9	-1	DIME	466	n/a	-1	1	1.0	1.0	upper	../fonts/Verdana.ttf
1420810	WORD	wordpools/wasnorm_wordpool.txt	LTP144	ltpFR	2	9	-1	STORE	1387	n/a	-1	1	1.0	1.0	upper	../fonts/Verdana.ttf
1424900	WORD	wordpools/wasnorm_wordpool.txt	LTP144	ltpFR	2	9	-1	WEED	1599	n/a	-1	1	1.0	1.0	upper	../fonts/Verdana.ttf
1428990	WORD	wordpools/wasnorm_wordpool.txt	LTP144	ltpFR	2	9	-1	SPATULA	1348	n/a	-1	1	1.0	1.0	upper	../fonts/Verdana.ttf
1433014	WORD	wordpools/wasnorm_wordpool.txt	LTP144	ltpFR	2	9	-1	ARCHITECT	36	n/a	-1	1	1.0	1.0	upper	../fonts/Verdana.ttf
1436938	WORD	wordpools/wasnorm_wordpool.txt	LTP144	ltpFR	2	9	-1	PICNIC	1060	n/a	-1	1	1.0	1.0	upper	../fonts/Verdana.ttf
1440794	WORD	wordpools/wasnorm_wordpool.txt	LTP144	ltpFR	2	9	-1	PLANE	1081	n/a	-1	1	1.0	1.0	upper	../fonts/Verdana.ttf
1444735	WORD	wordpools/wasnorm_wordpool.txt	LTP144	ltpFR	2	9	-1	SAUCER	1237	n/a	-1	1	1.0	1.0	upper	../fonts/Verdana.ttf
1448925	WORD	wordpools/wasnorm_wordpool.txt	LTP144	ltpFR	2	9	-1	CLIMBER	323	n/a	-1	1	1.0	1.0	upper	../fonts/Verdana.ttf
1452907	WORD	wordpools/wasnorm_wordpool.txt	LTP144	ltpFR	2	9	-1	CABIN	211	n/a	-1	1	1.0	1.0	upper	../fonts/Verdana.ttf
1456972	WORD	wordpools/wasnorm_wordpool.txt	LTP144	ltpFR	2	9	-1	RASPBERRY	1168	n/a	-1	1	1.0	1.0	upper	../fonts/Verdana.ttf
1460829	WORD	wordpools/wasnorm_wordpool.txt	LTP144	ltpFR	2	9	-1	SHORTCAKE	1292	n/a	-1	1	1.0	1.0	upper	../fonts/Verdana.ttf
1465019	WORD	wordpools/wasnorm_wordpool.txt	LTP144	ltpFR	2	9	-1	VAULT	1550	n/a	-1	1	1.0	1.0	upper	../fonts/Verdana.ttf
1470909	REC_START	n/a	LTP144	ltpFR	2	9	n/a	n/a	n/a	n/a	n/a	n/a	n/a	n/a	n/a	n/a
1472321	REC_WORD	wordpools/wasnorm_wordpool.txt	LTP144	ltpFR	2	9	-1	VAULT	1550	n/a	-1	n/a	n/a	n/a	n/a	n/a
1473323	REC_WORD	wordpools/wasnorm_wordpool.txt	LTP144	ltpFR	2	9	-1	RASPBERRY	1168	n/a	-1	n/a	n/a	n/a	n/a	n/a
1476187	REC_WORD	wordpools/wasnorm_wordpool.txt	LTP144	ltpFR	2	9	-1	PICNIC	1060	n/a	-1	n/a	n/a	n/a	n/a	n/a
1477014	REC_WORD	wordpools/wasnorm_wordpool.txt	LTP144	ltpFR	2	9	-1	VEGETABLE	1552	n/a	-1	n/a	n/a	n/a	n/a	n/a
1477888	REC_WORD	wordpools/wasnorm_wordpool.txt	LTP144	ltpFR	2	9	-1	TOMATO	1476	n/a	-1	n/a	n/a	n/a	n/a	n/a
1480133	REC_WORD	wordpools/wasnorm_wordpool.txt	LTP144	ltpFR	2	9	-1	SHORTCAKE	1292	n/a	-1	n/a	n/a	n/a	n/a	n/a
1483725	REC_WORD	wordpools/wasnorm_wordpool.txt	LTP144	ltpFR	2	9	-1	NAVIGATOR	938	n/a	-1	n/a	n/a	n/a	n/a	n/a
1484972	REC_WORD	wordpools/wasnorm_wordpool.txt	LTP144	ltpFR	2	9	-1	DIME	466	n/a	-1	n/a	n/a	n/a	n/a	n/a
1485865	REC_WORD	wordpools/wasnorm_wordpool.txt	LTP144	ltpFR	2	9	-1	STORE	1387	n/a	-1	n/a	n/a	n/a	n/a	n/a
1487556	REC_WORD	wordpools/wasnorm_wordpool.txt	LTP144	ltpFR	2	9	-1	WEED	1599	n/a	-1	n/a	n/a	n/a	n/a	n/a
1498810	REC_WORD	wordpools/wasnorm_wordpool.txt	LTP144	ltpFR	2	9	-1	ARCHITECT	36	n/a	-1	n/a	n/a	n/a	n/a	n/a
1591108	WORD	wordpools/wasnorm_wordpool.txt	LTP144	ltpFR	2	10	0	COOKIE	374	n/a	0	0	0.5869140625	0.422607421875	upper	../fonts/amplitud.ttf
1594990	WORD	wordpools/wasnorm_wordpool.txt	LTP144	ltpFR	2	10	0	JAR	750	n/a	0	0	0.5869140625	0.422607421875	upper	../fonts/amplitud.ttf
1598805	WORD	wordpools/wasnorm_wordpool.txt	LTP144	ltpFR	2	10	0	MOUTH	926	n/a	0	0	0.5869140625	0.422607421875	upper	../fonts/amplitud.ttf
1602812	WORD	wordpools/wasnorm_wordpool.txt	LTP144	ltpFR	2	10	0	CLAMP	316	n/a	0	0	0.5869140625	0.422607421875	upper	../fonts/amplitud.ttf
1606860	WORD	wordpools/wasnorm_wordpool.txt	LTP144	ltpFR	2	10	0	APARTMENT	30	n/a	1	0	0.5869140625	0.422607421875	upper	../fonts/amplitud.ttf
1610867	WORD	wordpools/wasnorm_wordpool.txt	LTP144	ltpFR	2	10	0	IGLOO	734	n/a	0	0	0.5869140625	0.422607421875	upper	../fonts/amplitud.ttf
1614766	WORD	wordpools/wasnorm_wordpool.txt	LTP144	ltpFR	2	10	0	HIKER	708	n/a	1	0	0.5869140625	0.422607421875	upper	../fonts/amplitud.ttf
1618640	WORD	wordpools/wasnorm_wordpool.txt	LTP144	ltpFR	2	10	0	CANYON	235	n/a	1	0	0.5869140625	0.422607421875	upper	../fonts/amplitud.ttf
1622538	WORD	wordpools/wasnorm_wordpool.txt	LTP144	ltpFR	2	10	0	STICKER	1382	n/a	0	0	0.5869140625	0.422607421875	upper	../fonts/amplitud.ttf
1626588	WORD	wordpools/wasnorm_wordpool.txt	LTP144	ltpFR	2	10	0	LOCK	838	n/a	0	0	0.5869140625	0.422607421875	upper	../fonts/amplitud.ttf
1630477	WORD	wordpools/wasnorm_wordpool.txt	LTP144	ltpFR	2	10	0	NICOTINE	951	n/a	0	0	0.5869140625	0.422607421875	upper	../fonts/amplitud.ttf
1634501	WORD	wordpools/wasnorm_wordpool.txt	LTP144	ltpFR	2	10	0	LOUNGE	845	n/a	1	0	0.5869140625	0.422607421875	upper	../fonts/amplitud.ttf
1638649	WORD	wordpools/wasnorm_wordpool.txt	LTP144	ltpFR	2	10	0	LIP	828	n/a	0	0	0.5869140625	0.422607421875	upper	../fonts/amplitud.ttf
1642498	WORD	wordpools/wasnorm_wordpool.txt	LTP144	ltpFR	2	10	0	CANDY	230	n/a	0	0	0.5869140625	0.422607421875	upper	../fonts/amplitud.ttf
1646413	WORD	wordpools/wasnorm_wordpool.txt	LTP144	ltpFR	2	10	0	COOLER	375	n/a	n/a	0	0.5869140625	0.422607421875	upper	../fonts/amplitud.ttf
1649437	SLOW_MSG	n/a	LTP144	ltpFR	2	10	n/a	n/a	n/a	n/a	n/a	n/a	n/a	n/a	n/a	n/a
1651944	WORD	wordpools/wasnorm_wordpool.txt	LTP144	ltpFR	2	10	0	BIKE	125	n/a	1	0	0.5869140625	0.422607421875	upper	../fonts/amplitud.ttf
1657976	REC_START	n/a	LTP144	ltpFR	2	10	n/a	n/a	n/a	n/a	n/a	n/a	n/a	n/a	n/a	n/a
1659422	REC_WORD	wordpools/wasnorm_wordpool.txt	LTP144	ltpFR	2	10	0	BIKE	125	n/a	1	n/a	n/a	n/a	n/a	n/a
1660400	REC_WORD	wordpools/wasnorm_wordpool.txt	LTP144	ltpFR	2	10	0	LIP	828	n/a	0	n/a	n/a	n/a	n/a	n/a
1661129	REC_WORD	wordpools/wasnorm_wordpool.txt	LTP144	ltpFR	2	10	0	NICOTINE	951	n/a	0	n/a	n/a	n/a	n/a	n/a
1662291	REC_WORD	wordpools/wasnorm_wordpool.txt	LTP144	ltpFR	2	10	0	MOUTH	926	n/a	0	n/a	n/a	n/a	n/a	n/a
1663788	REC_WORD	wordpools/wasnorm_wordpool.txt	LTP144	ltpFR	2	10	0	COOKIE	374	n/a	0	n/a	n/a	n/a	n/a	n/a
1664925	REC_WORD	wordpools/wasnorm_wordpool.txt	LTP144	ltpFR	2	10	0	JAR	750	n/a	0	n/a	n/a	n/a	n/a	n/a
1666801	REC_WORD	wordpools/wasnorm_wordpool.txt	LTP144	ltpFR	2	10	0	CLAMP	316	n/a	0	n/a	n/a	n/a	n/a	n/a
1668043	REC_WORD	wordpools/wasnorm_wordpool.txt	LTP144	ltpFR	2	10	0	APARTMENT	30	n/a	1	n/a	n/a	n/a	n/a	n/a
1670063	REC_WORD	wordpools/wasnorm_wordpool.txt	LTP144	ltpFR	2	10	0	LOCK	838	n/a	0	n/a	n/a	n/a	n/a	n/a
1675022	REC_WORD	wordpools/wasnorm_wordpool.txt	LTP144	ltpFR	2	10	0	BIKE	125	n/a	1	n/a	n/a	n/a	n/a	n/a
1681522	REC_WORD	wordpools/wasnorm_wordpool.txt	LTP144	ltpFR	2	10	0	LOUNGE	845	n/a	1	n/a	n/a	n/a	n/a	n/a
1778724	WORD	wordpools/wasnorm_wordpool.txt	LTP144	ltpFR	2	11	-1	ROOT	1210	n/a	-1	1	1.0	1.0	upper	../fonts/Verdana.ttf
1782681	WORD	wordpools/wasnorm_wordpool.txt	LTP144	ltpFR	2	11	-1	PALM	1007	n/a	-1	1	1.0	1.0	upper	../fonts/Verdana.ttf
1786497	WORD	wordpools/wasnorm_wordpool.txt	LTP144	ltpFR	2	11	-1	APPLE	33	n/a	-1	1	1.0	1.0	upper	../fonts/Verdana.ttf
1790562	WORD	wordpools/wasnorm_wordpool.txt	LTP144	ltpFR	2	11	-1	PAW	1029	n/a	-1	1	1.0	1.0	upper	../fonts/Verdana.ttf
1794494	WORD	wordpools/wasnorm_wordpool.txt	LTP144	ltpFR	2	11	-1	TRENCH	1503	n/a	-1	1	1.0	1.0	upper	../fonts/Verdana.ttf
1798667	WORD	wordpools/wasnorm_wordpool.txt	LTP144	ltpFR	2	11	-1	DEODORANT	448	n/a	-1	1	1.0	1.0	upper	../fonts/Verdana.ttf
1802824	WORD	wordpools/wasnorm_wordpool.txt	LTP144	ltpFR	2	11	-1	QUILT	1151	n/a	-1	1	1.0	1.0	upper	../fonts/Verdana.ttf
1806823	WORD	wordpools/wasnorm_wordpool.txt	LTP144	ltpFR	2	11	-1	BLOUSE	139	n/a	-1	1	1.0	1.0	upper	../fonts/Verdana.ttf
1810863	WORD	wordpools/wasnorm_wordpool.txt	LTP144	ltpFR	2	11	-1	SHOWER	1296	n/a	-1	1	1.0	1.0	upper	../fonts/Verdana.ttf
1814695	WORD	wordpools/wasnorm_wordpool.txt	LTP144	ltpFR	2	11	-1	MUSHROOM	934	n/a	-1	1	1.0	1.0	upper	../fonts/Verdana.ttf
1818519	WORD	wordpools/wasnorm_wordpool.txt	LTP144	ltpFR	2	11	-1	CRIB	407	n/a	-1	1	1.0	1.0	upper	../fonts/Verdana.ttf
1822575	WORD	wordpools/wasnorm_wordpool.txt	LTP144	ltpFR	2	11	-1	PLUMBER	1091	n/a	-1	1	1.0	1.0	upper	../fonts/Verdana.ttf
1826557	WORD	wordpools/wasnorm_wordpool.txt	LTP144	ltpFR	2	11	-1	BISON	131	n/a	-1	1	1.0	1.0	upper	../fonts/Verdana.ttf
1830689	WORD	wordpools/wasnorm_wordpool.txt	LTP144	ltpFR	2	11	-1	GOO	648	n/a	-1	1	1.0	1.0	upper	../fonts/Verdana.ttf
1834696	WORD	wordpools/wasnorm_wordpool.txt	LTP144	ltpFR	2	11	-1	REFEREE	1178	n/a	-1	1	1.0	1.0	upper	../fonts/Verdana.ttf
1838795	WORD	wordpools/wasnorm_wordpool.txt	LTP144	ltpFR	2	11	-1	TEAM	1441	n/a	-1	1	1.0	1.0	upper	../fonts/Verdana.ttf
1844435	REC_START	n/a	LTP144	ltpFR	2	11	n/a	n/a	n/a	n/a	n/a	n/a	n/a	n/a	n/a	n/a
1845852	REC_WORD	wordpools/wasnorm_wordpool.txt	LTP144	ltpFR	2	11	-1	REFEREE	1178	n/a	-1	n/a	n/a	n/a	n/a	n/a
1846979	REC_WORD	wordpools/wasnorm_wordpool.txt	LTP144	ltpFR	2	11	-1	TEAM	1441	n/a	-1	n/a	n/a	n/a	n/a	n/a
1848201	REC_WORD	wordpools/wasnorm_wordpool.txt	LTP144	ltpFR	2	11	-1	GOO	648	n/a	-1	n/a	n/a	n/a	n/a	n/a
1849249	REC_WORD	wordpools/wasnorm_wordpool.txt	LTP144	ltpFR	2	11	-1	QUILT	1151	n/a	-1	n/a	n/a	n/a	n/a	n/a
1850636	REC_WORD	wordpools/wasnorm_wordpool.txt	LTP144	ltpFR	2	11	-1	BLOUSE	139	n/a	-1	n/a	n/a	n/a	n/a	n/a
1851943	REC_WORD	wordpools/wasnorm_wordpool.txt	LTP144	ltpFR	2	11	-1	ROOT	1210	n/a	-1	n/a	n/a	n/a	n/a	n/a
1853404	REC_WORD	wordpools/wasnorm_wordpool.txt	LTP144	ltpFR	2	11	-1	PALM	1007	n/a	-1	n/a	n/a	n/a	n/a	n/a
1855530	REC_WORD	wordpools/wasnorm_wordpool.txt	LTP144	ltpFR	2	11	-1	APPLE	33	n/a	-1	n/a	n/a	n/a	n/a	n/a
1856991	REC_WORD	wordpools/wasnorm_wordpool.txt	LTP144	ltpFR	2	11	-1	PAW	1029	n/a	-1	n/a	n/a	n/a	n/a	n/a
1871229	REC_WORD	wordpools/wasnorm_wordpool.txt	LTP144	ltpFR	2	11	-1	DEODORANT	448	n/a	-1	n/a	n/a	n/a	n/a	n/a
1942325	WORD	wordpools/wasnorm_wordpool.txt	LTP144	ltpFR	2	12	1	ITEM	746	n/a	0	1	0.412841796875	0.57763671875	lower	../fonts/zerothre.ttf
1946206	WORD	wordpools/wasnorm_wordpool.txt	LTP144	ltpFR	2	12	1	COUNTY	389	n/a	0	1	0.412841796875	0.57763671875	lower	../fonts/zerothre.ttf
1950188	WORD	wordpools/wasnorm_wordpool.txt	LTP144	ltpFR	2	12	0	TOURIST	1488	n/a	1	0	0.5869140625	0.422607421875	upper	../fonts/amplitud.ttf
1954120	WORD	wordpools/wasnorm_wordpool.txt	LTP144	ltpFR	2	12	0	SCRIBBLE	1256	n/a	0	0	0.5869140625	0.422607421875	upper	../fonts/amplitud.ttf
1958061	WORD	wordpools/wasnorm_wordpool.txt	LTP144	ltpFR	2	12	0	PAD	998	n/a	0	0	0.5869140625	0.422607421875	upper	../fonts/amplitud.ttf
1962151	WORD	wordpools/wasnorm_wordpool.txt	LTP144	ltpFR	2	12	0	MILITARY	894	n/a	1	0	0.5869140625	0.422607421875	upper	../fonts/amplitud.ttf
1965991	WORD	wordpools/wasnorm_wordpool.txt	LTP144	ltpFR	2	12	1	BENCH	121	n/a	0	1	0.412841796875	0.57763671875	lower	../fonts/zerothre.ttf
1969823	WORD	wordpools/wasnorm_wordpool.txt	LTP144	ltpFR	2	12	1	SWATTER	1418	n/a	0	1	0.412841796875	0.57763671875	lower	../fonts/zerothre.ttf
1973755	WORD	wordpools/wasnorm_wordpool.txt	LTP144	ltpFR	2	12	1	PECAN	1036	n/a	1	1	0.412841796875	0.57763671875	lower	../fonts/zerothre.ttf
1977795	WORD	wordpools/wasnorm_wordpool.txt	LTP144	ltpFR	2	12	1	CASHEW	253	n/a	1	1	0.412841796875	0.57763671875	lower	../fonts/zerothre.ttf
1981860	WORD	wordpools/wasnorm_wordpool.txt	LTP144	ltpFR	2	12	0	POLITICIAN	1099	n/a	1	0	0.5869140625	0.422607421875	upper	../fonts/amplitud.ttf
1985817	WORD	wordpools/wasnorm_wordpool.txt	LTP144	ltpFR	2	12	0	MINER	896	n/a	0	0	0.5869140625	0.422607421875	upper	../fonts/amplitud.ttf
1990008	WORD	wordpools/wasnorm_wordpool.txt	LTP144	ltpFR	2	12	0	WHEEL	1603	n/a	1	0	0.5869140625	0.422607421875	upper	../fonts/amplitud.ttf
1993973	WORD	wordpools/wasnorm_wordpool.txt	LTP144	ltpFR	2	12	0	MOTH	920	n/a	0	0	0.5869140625	0.422607421875	upper	../fonts/amplitud.ttf
1997813	WORD	wordpools/wasnorm_wordpool.txt	LTP144	ltpFR	2	12	1	CHAIR	274	n/a	0	1	0.412841796875	0.57763671875	lower	../fonts/zerothre.ttf
2001753	WORD	wordpools/wasnorm_wordpool.txt	LTP144	ltpFR	2	12	1	HEDGE	699	n/a	1	1	0.412841796875	0.57763671875	lower	../fonts/zerothre.ttf
2007710	REC_START	n/a	LTP144	ltpFR	2	12	n/a	n/a	n/a	n/a	n/a	n/a	n/a	n/a	n/a	n/a
2009171	REC_WORD	wordpools/wasnorm_wordpool.txt	LTP144	ltpFR	2	12	1	HEDGE	699	n/a	1	n/a	n/a	n/a	n/a	n/a
2010189	REC_WORD	wordpools/wasnorm_wordpool.txt	LTP144	ltpFR	2	12	1	CHAIR	274	n/a	0	n/a	n/a	n/a	n/a	n/a
2013157	REC_WORD	wordpools/wasnorm_wordpool.txt	LTP144	ltpFR	2	12	0	POLITICIAN	1099	n/a	1	n/a	n/a	n/a	n/a	n/a
2014195	REC_WORD	wordpools/wasnorm_wordpool.txt	LTP144	ltpFR	2	12	0	MILITARY	894	n/a	1	n/a	n/a	n/a	n/a	n/a
2015392	REC_WORD	wordpools/wasnorm_wordpool.txt	LTP144	ltpFR	2	12	0	TOURIST	1488	n/a	1	n/a	n/a	n/a	n/a	n/a
2016794	REC_WORD	wordpools/wasnorm_wordpool.txt	LTP144	ltpFR	2	12	0	PAD	998	n/a	0	n/a	n/a	n/a	n/a	n/a
2017607	REC_WORD	wordpools/wasnorm_wordpool.txt	LTP144	ltpFR	2	12	1	COUNTY	389	n/a	0	n/a	n/a	n/a	n/a	n/a
2034698	REC_WORD	wordpools/wasnorm_wordpool.txt	LTP144	ltpFR	2	12	1	ITEM	746	n/a	0	n/a	n/a	n/a	n/a	n/a
2043897	REC_WORD	wordpools/wasnorm_wordpool.txt	LTP144	ltpFR	2	12	1	HEDGE	699	n/a	1	n/a	n/a	n/a	n/a	n/a
2083291	REST_REWET	n/a	LTP144	ltpFR	2	12	n/a	n/a	n/a	n/a	n/a	n/a	n/a	n/a	n/a	n/a
2345506	WORD	wordpools/wasnorm_wordpool.txt	LTP144	ltpFR	2	13	1	NECK	939	n/a	1	1	0.412841796875	0.57763671875	lower	../fonts/zerothre.ttf
2349522	WORD	wordpools/wasnorm_wordpool.txt	LTP144	ltpFR	2	13	1	ANTELOPE	27	n/a	1	1	0.412841796875	0.57763671875	lower	../fonts/zerothre.ttf
2353445	WORD	wordpools/wasnorm_wordpool.txt	LTP144	ltpFR	2	13	1	ZOO	1637	n/a	0	1	0.412841796875	0.57763671875	lower	../fonts/zerothre.ttf
2357352	WORD	wordpools/wasnorm_wordpool.txt	LTP144	ltpFR	2	13	1	RACCOON	1153	n/a	1	1	0.412841796875	0.57763671875	lower	../fonts/zerothre.ttf
2361184	WORD	wordpools/wasnorm_wordpool.txt	LTP144	ltpFR	2	13	1	CAKE	219	n/a	0	1	0.412841796875	0.57763671875	lower	../fonts/zerothre.ttf
2365366	WORD	wordpools/wasnorm_wordpool.txt	LTP144	ltpFR	2	13	1	ABDOMEN	1	n/a	1	1	0.412841796875	0.57763671875	lower	../fonts/zerothre.ttf
2369331	WORD	wordpools/wasnorm_wordpool.txt	LTP144	ltpFR	2	13	1	JELLO	754	n/a	0	1	0.412841796875	0.57763671875	lower	../fonts/zerothre.ttf
2373196	WORD	wordpools/wasnorm_wordpool.txt	LTP144	ltpFR	2	13	1	PLUM	1090	n/a	1	1	0.412841796875	0.57763671875	lower	../fonts/zerothre.ttf
2377203	WORD	wordpools/wasnorm_wordpool.txt	LTP144	ltpFR	2	13	1	BERRY	122	n/a	1	1	0.412841796875	0.57763671875	lower	../fonts/zerothre.ttf
2381302	WORD	wordpools/wasnorm_wordpool.txt	LTP144	ltpFR	2	13	1	TRUMPET	1513	n/a	0	1	0.412841796875	0.57763671875	lower	../fonts/zerothre.ttf
2385159	WORD	wordpools/wasnorm_wordpool.txt	LTP144	ltpFR	2	13	1	DEER	444	n/a	1	1	0.412841796875	0.57763671875	lower	../fonts/zerothre.ttf
2389024	WORD	wordpools/wasnorm_wordpool.txt	LTP144	ltpFR	2	13	1	TRAITOR	1495	n/a	1	1	0.412841796875	0.57763671875	lower	../fonts/zerothre.ttf
2393223	WORD	wordpools/wasnorm_wordpool.txt	LTP144	ltpFR	2	13	1	PLAID	1080	n/a	0	1	0.412841796875	0.57763671875	lower	../fonts/zerothre.ttf
2397046	WORD	wordpools/wasnorm_wordpool.txt	LTP144	ltpFR	2	13	1	COLLAR	345	n/a	0	1	0.412841796875	0.57763671875	lower	../fonts/zerothre.ttf
2401095	WORD	wordpools/wasnorm_wordpool.txt	LTP144	ltpFR	2	13	1	SALMON	1227	n/a	1	1	0.412841796875	0.57763671875	lower	../fonts/zerothre.ttf
2405252	WORD	wordpools/wasnorm_wordpool.txt	LTP144	ltpFR	2	13	1	CRUMB	416	n/a	0	1	0.412841796875	0.57763671875	lower	../fonts/zerothre.ttf
2411092	REC_START	n/a	LTP144	ltpFR	2	13	n/a	n/a	n/a	n/a	n/a	n/a	n/a	n/a	n/a	n/a
2413127	REC_WORD	wordpools/wasnorm_wordpool.txt	LTP144	ltpFR	2	13	1	CRUMB	416	n/a	0	n/a	n/a	n/a	n/a	n/a
2414758	REC_WORD	wordpools/wasnorm_wordpool.txt	LTP144	ltpFR	2	13	1	ANTELOPE	27	n/a	1	n/a	n/a	n/a	n/a	n/a
2415502	REC_WORD	wordpools/wasnorm_wordpool.txt	LTP144	ltpFR	2	13	1	NECK	939	n/a	1	n/a	n/a	n/a	n/a	n/a
2416644	REC_WORD	wordpools/wasnorm_wordpool.txt	LTP144	ltpFR	2	13	1	DEER	444	n/a	1	n/a	n/a	n/a	n/a	n/a
2418325	REC_WORD	wordpools/wasnorm_wordpool.txt	LTP144	ltpFR	2	13	1	ZOO	1637	n/a	0	n/a	n/a	n/a	n/a	n/a
2420625	REC_WORD	wordpools/wasnorm_wordpool.txt	LTP144	ltpFR	2	13	1	ABDOMEN	1	n/a	1	n/a	n/a	n/a	n/a	n/a
2424217	REC_WORD	wordpools/wasnorm_wordpool.txt	LTP144	ltpFR	2	13	1	JELLO	754	n/a	0	n/a	n/a	n/a	n/a	n/a
2427465	REC_WORD	wordpools/wasnorm_wordpool.txt	LTP144	ltpFR	2	13	1	BERRY	122	n/a	1	n/a	n/a	n/a	n/a	n/a
2432463	REC_WORD	wordpools/wasnorm_wordpool.txt	LTP144	ltpFR	2	13	1	PLUM	1090	n/a	1	n/a	n/a	n/a	n/a	n/a
2440874	REC_WORD	wordpools/wasnorm_wordpool.txt	LTP144	ltpFR	2	13	1	RACCOON	1153	n/a	1	n/a	n/a	n/a	n/a	n/a
2446701	REC_WORD	wordpools/wasnorm_wordpool.txt	LTP144	ltpFR	2	13	1	SALMON	1227	n/a	1	n/a	n/a	n/a	n/a	n/a
2505174	WORD	wordpools/wasnorm_wordpool.txt	LTP144	ltpFR	2	14	1	STAFF	1365	n/a	1	1	0.412841796875	0.57763671875	lower	../fonts/zerothre.ttf
2509073	WORD	wordpools/wasnorm_wordpool.txt	LTP144	ltpFR	2	14	1	VEHICLE	1553	n/a	0	1	0.412841796875	0.57763671875	lower	../fonts/zerothre.ttf
2513097	WORD	wordpools/wasnorm_wordpool.txt	LTP144	ltpFR	2	14	0	TAXI	1438	n/a	1	0	0.5869140625	0.422607421875	upper	../fonts/amplitud.ttf
2517254	WORD	wordpools/wasnorm_wordpool.txt	LTP144	ltpFR	2	14	0	CONE	363	n/a	1	0	0.5869140625	0.422607421875	upper	../fonts/amplitud.ttf
2521285	WORD	wordpools/wasnorm_wordpool.txt	LTP144	ltpFR	2	14	0	BRAIN	165	n/a	1	0	0.5869140625	0.422607421875	upper	../fonts/amplitud.ttf
2525226	WORD	wordpools/wasnorm_wordpool.txt	LTP144	ltpFR	2	14	0	MAMMAL	861	n/a	1	0	0.5869140625	0.422607421875	upper	../fonts/amplitud.ttf
2529349	WORD	wordpools/wasnorm_wordpool.txt	LTP144	ltpFR	2	14	0	VAGRANT	1544	n/a	1	0	0.5869140625	0.422607421875	upper	../fonts/amplitud.ttf
2533406	WORD	wordpools/wasnorm_wordpool.txt	LTP144	ltpFR	2	14	0	SYRUP	1425	n/a	0	0	0.5869140625	0.422607421875	upper	../fonts/amplitud.ttf
2537463	WORD	wordpools/wasnorm_wordpool.txt	LTP144	ltpFR	2	14	1	PROTRACTOR	1133	n/a	1	1	0.412841796875	0.57763671875	lower	../fonts/zerothre.ttf
2541303	WORD	wordpools/wasnorm_wordpool.txt	LTP144	ltpFR	2	14	1	YARN	1631	n/a	0	1	0.412841796875	0.57763671875	lower	../fonts/zerothre.ttf
2545468	WORD	wordpools/wasnorm_wordpool.txt	LTP144	ltpFR	2	14	1	TUB	1514	n/a	0	1	0.412841796875	0.57763671875	lower	../fonts/zerothre.ttf
2549585	WORD	wordpools/wasnorm_wordpool.txt	LTP144	ltpFR	2	14	1	PUDDLE	1140	n/a	0	1	0.412841796875	0.57763671875	lower	../fonts/zerothre.ttf
2553432	WORD	wordpools/wasnorm_wordpool.txt	LTP144	ltpFR	2	14	1	GRADUATE	653	n/a	1	1	0.412841796875	0.57763671875	lower	../fonts/zerothre.ttf
2557356	WORD	wordpools/wasnorm_wordpool.txt	LTP144	ltpFR	2	14	1	BEGGAR	117	n/a	1	1	0.412841796875	0.57763671875	lower	../fonts/zerothre.ttf
2561546	WORD	wordpools/wasnorm_wordpool.txt	LTP144	ltpFR	2	14	0	SPOUSE	1358	n/a	1	0	0.5869140625	0.422607421875	upper	../fonts/amplitud.ttf
2565703	WORD	wordpools/wasnorm_wordpool.txt	LTP144	ltpFR	2	14	0	EWE	542	n/a	0	0	0.5869140625	0.422607421875	upper	../fonts/amplitud.ttf
2571476	REC_START	n/a	LTP144	ltpFR	2	14	n/a	n/a	n/a	n/a	n/a	n/a	n/a	n/a	n/a	n/a
2572658	REC_WORD	wordpools/wasnorm_wordpool.txt	LTP144	ltpFR	2	14	0	EWE	542	n/a	0	n/a	n/a	n/a	n/a	n/a
2574424	REC_WORD	wordpools/wasnorm_wordpool.txt	LTP144	ltpFR	2	14	0	SPOUSE	1358	n/a	1	n/a	n/a	n/a	n/a	n/a
2576395	REC_WORD	wordpools/wasnorm_wordpool.txt	LTP144	ltpFR	2	14	1	PROTRACTOR	1133	n/a	1	n/a	n/a	n/a	n/a	n/a
2594349	REC_WORD	wordpools/wasnorm_wordpool.txt	LTP144	ltpFR	2	14	0	CONE	363	n/a	1	n/a	n/a	n/a	n/a	n/a
2595337	REC_WORD	wordpools/wasnorm_wordpool.txt	LTP144	ltpFR	2	14	0	TAXI	1438	n/a	1	n/a	n/a	n/a	n/a	n/a
2596329	REC_WORD	wordpools/wasnorm_wordpool.txt	LTP144	ltpFR	2	14	1	VEHICLE	1553	n/a	0	n/a	n/a	n/a	n/a	n/a
2608791	REC_WORD	wordpools/wasnorm_wordpool.txt	LTP144	ltpFR	2	14	0	MAMMAL	861	n/a	1	n/a	n/a	n/a	n/a	n/a
2609724	REC_WORD	wordpools/wasnorm_wordpool.txt	LTP144	ltpFR	2	14	0	BRAIN	165	n/a	1	n/a	n/a	n/a	n/a	n/a
2677838	WORD	wordpools/wasnorm_wordpool.txt	LTP144	ltpFR	2	15	0	CANNON	232	n/a	1	0	0.5869140625	0.422607421875	upper	../fonts/amplitud.ttf
2681995	WORD	wordpools/wasnorm_wordpool.txt	LTP144	ltpFR	2	15	0	SHELF	1280	n/a	1	0	0.5869140625	0.422607421875	upper	../fonts/amplitud.ttf
2686127	WORD	wordpools/wasnorm_wordpool.txt	LTP144	ltpFR	2	15	0	ELK	526	n/a	1	0	0.5869140625	0.422607421875	upper	../fonts/amplitud.ttf
2690067	WORD	wordpools/wasnorm_wordpool.txt	LTP144	ltpFR	2	15	0	VALLEY	1545	n/a	1	0	0.5869140625	0.422607421875	upper	../fonts/amplitud.ttf
2694082	WORD	wordpools/wasnorm_wordpool.txt	LTP144	ltpFR	2	15	0	PUBLICATION	1136	n/a	0	0	0.5869140625	0.422607421875	upper	../fonts/amplitud.ttf
2697956	WORD	wordpools/wasnorm_wordpool.txt	LTP144	ltpFR	2	15	0	NEWSSTAND	949	n/a	1	0	0.5869140625	0.422607421875	upper	../fonts/amplitud.ttf
2702154	WORD	wordpools/wasnorm_wordpool.txt	LTP144	ltpFR	2	15	0	RIVER	1194	n/a	1	0	0.5869140625	0.422607421875	upper	../fonts/amplitud.ttf
2706345	WORD	wordpools/wasnorm_wordpool.txt	LTP144	ltpFR	2	15	0	PAGE	1001	n/a	0	0	0.5869140625	0.422607421875	upper	../fonts/amplitud.ttf
2710277	WORD	wordpools/wasnorm_wordpool.txt	LTP144	ltpFR	2	15	0	BEER	114	n/a	1	0	0.5869140625	0.422607421875	upper	../fonts/amplitud.ttf
2714325	WORD	wordpools/wasnorm_wordpool.txt	LTP144	ltpFR	2	15	0	PARTY	1018	n/a	1	0	0.5869140625	0.422607421875	upper	../fonts/amplitud.ttf
2718507	WORD	wordpools/wasnorm_wordpool.txt	LTP144	ltpFR	2	15	0	TRIGGER	1507	n/a	1	0	0.5869140625	0.422607421875	upper	../fonts/amplitud.ttf
2722372	WORD	wordpools/wasnorm_wordpool.txt	LTP144	ltpFR	2	15	0	BEDROOM	111	n/a	1	0	0.5869140625	0.422607421875	upper	../fonts/amplitud.ttf
2726429	WORD	wordpools/wasnorm_wordpool.txt	LTP144	ltpFR	2	15	0	LOFT	840	n/a	1	0	0.5869140625	0.422607421875	upper	../fonts/amplitud.ttf
2730319	WORD	wordpools/wasnorm_wordpool.txt	LTP144	ltpFR	2	15	0	CHIP	303	n/a	0	0	0.5869140625	0.422607421875	upper	../fonts/amplitud.ttf
2734460	WORD	wordpools/wasnorm_wordpool.txt	LTP144	ltpFR	2	15	0	WART	1590	n/a	0	0	0.5869140625	0.422607421875	upper	../fonts/amplitud.ttf
2738492	WORD	wordpools/wasnorm_wordpool.txt	LTP144	ltpFR	2	15	0	STAR	1373	n/a	1	0	0.5869140625	0.422607421875	upper	../fonts/amplitud.ttf
2744298	REC_START	n/a	LTP144	ltpFR	2	15	n/a	n/a	n/a	n/a	n/a	n/a	n/a	n/a	n/a	n/a
2745485	REC_WORD	wordpools/wasnorm_wordpool.txt	LTP144	ltpFR	2	15	0	STAR	1373	n/a	1	n/a	n/a	n/a	n/a	n/a
2747286	REC_WORD	wordpools/wasnorm_wordpool.txt	LTP144	ltpFR	2	15	0	BEER	114	n/a	1	n/a	n/a	n/a	n/a	n/a
2747795	REC_WORD	wordpools/wasnorm_wordpool.txt	LTP144	ltpFR	2	15	0	PARTY	1018	n/a	1	n/a	n/a	n/a	n/a	n/a
2748713	REC_WORD	wordpools/wasnorm_wordpool.txt	LTP144	ltpFR	2	15	0	BEDROOM	111	n/a	1	n/a	n/a	n/a	n/a	n/a
2749696	REC_WORD	wordpools/wasnorm_wordpool.txt	LTP144	ltpFR	2	15	0	LOFT	840	n/a	1	n/a	n/a	n/a	n/a	n/a
2751871	REC_WORD	wordpools/wasnorm_wordpool.txt	LTP144	ltpFR	2	15	0	TRIGGER	1507	n/a	1	n/a	n/a	n/a	n/a	n/a
2753138	REC_WORD	wordpools/wasnorm_wordpool.txt	LTP144	ltpFR	2	15	0	ELK	526	n/a	1	n/a	n/a	n/a	n/a	n/a
2754125	REC_WORD	wordpools/wasnorm_wordpool.txt	LTP144	ltpFR	2	15	0	RIVER	1194	n/a	1	n/a	n/a	n/a	n/a	n/a
2754968	REC_WORD	wordpools/wasnorm_wordpool.txt	LTP144	ltpFR	2	15	0	VALLEY	1545	n/a	1	n/a	n/a	n/a	n/a	n/a
2762496	REC_WORD	wordpools/wasnorm_wordpool.txt	LTP144	ltpFR	2	15	0	CHIP	303	n/a	0	n/a	n/a	n/a	n/a	n/a
2763070	REC_WORD	wordpools/wasnorm_wordpool.txt	LTP144	ltpFR	2	15	0	WART	1590	n/a	0	n/a	n/a	n/a	n/a	n/a
2773062	REC_WORD	wordpools/wasnorm_wordpool.txt	LTP144	ltpFR	2	15	0	PUBLICATION	1136	n/a	0	n/a	n/a	n/a	n/a	n/a
2774025	REC_WORD	wordpools/wasnorm_wordpool.txt	LTP144	ltpFR	2	15	0	PAGE	1001	n/a	0	n/a	n/a	n/a	n/a	n/a
2774679	REC_WORD	wordpools/wasnorm_wordpool.txt	LTP144	ltpFR	2	15	0	NEWSSTAND	949	n/a	1	n/a	n/a	n/a	n/a	n/a
2837240	WORD	wordpools/wasnorm_wordpool.txt	LTP144	ltpFR	2	16	-1	NOSE	957	n/a	-1	1	1.0	1.0	upper	../fonts/Verdana.ttf
2841113	WORD	wordpools/wasnorm_wordpool.txt	LTP144	ltpFR	2	16	-1	FOREHEAD	592	n/a	-1	1	1.0	1.0	upper	../fonts/Verdana.ttf
2845020	WORD	wordpools/wasnorm_wordpool.txt	LTP144	ltpFR	2	16	-1	NECKLACE	940	n/a	-1	1	1.0	1.0	upper	../fonts/Verdana.ttf
2848927	WORD	wordpools/wasnorm_wordpool.txt	LTP144	ltpFR	2	16	-1	BREAD	170	n/a	-1	1	1.0	1.0	upper	../fonts/Verdana.ttf
2853092	WORD	wordpools/wasnorm_wordpool.txt	LTP144	ltpFR	2	16	-1	BLACKBERRY	132	n/a	-1	1	1.0	1.0	upper	../fonts/Verdana.ttf
2857166	WORD	wordpools/wasnorm_wordpool.txt	LTP144	ltpFR	2	16	-1	PISTOL	1075	n/a	-1	1	1.0	1.0	upper	../fonts/Verdana.ttf
2861240	WORD	wordpools/wasnorm_wordpool.txt	LTP144	ltpFR	2	16	-1	RUBY	1214	n/a	-1	1	1.0	1.0	upper	../fonts/Verdana.ttf
2865205	WORD	wordpools/wasnorm_wordpool.txt	LTP144	ltpFR	2	16	-1	OVEN	991	n/a	-1	1	1.0	1.0	upper	../fonts/Verdana.ttf
2869087	WORD	wordpools/wasnorm_wordpool.txt	LTP144	ltpFR	2	16	-1	PIE	1062	n/a	-1	1	1.0	1.0	upper	../fonts/Verdana.ttf
2873085	WORD	wordpools/wasnorm_wordpool.txt	LTP144	ltpFR	2	16	-1	COOK	372	n/a	-1	1	1.0	1.0	upper	../fonts/Verdana.ttf
2877251	WORD	wordpools/wasnorm_wordpool.txt	LTP144	ltpFR	2	16	-1	FORT	595	n/a	-1	1	1.0	1.0	upper	../fonts/Verdana.ttf
2881199	WORD	wordpools/wasnorm_wordpool.txt	LTP144	ltpFR	2	16	-1	PATROL	1027	n/a	-1	1	1.0	1.0	upper	../fonts/Verdana.ttf
2885031	WORD	wordpools/wasnorm_wordpool.txt	LTP144	ltpFR	2	16	-1	LIBRARY	816	n/a	-1	1	1.0	1.0	upper	../fonts/Verdana.ttf
2888946	WORD	wordpools/wasnorm_wordpool.txt	LTP144	ltpFR	2	16	-1	FLIPPER	580	n/a	-1	1	1.0	1.0	upper	../fonts/Verdana.ttf
2892845	WORD	wordpools/wasnorm_wordpool.txt	LTP144	ltpFR	2	16	-1	FIN	566	n/a	-1	1	1.0	1.0	upper	../fonts/Verdana.ttf
2896977	WORD	wordpools/wasnorm_wordpool.txt	LTP144	ltpFR	2	16	-1	FRUIT	610	n/a	-1	1	1.0	1.0	upper	../fonts/Verdana.ttf
2902842	REC_START	n/a	LTP144	ltpFR	2	16	n/a	n/a	n/a	n/a	n/a	n/a	n/a	n/a	n/a	n/a
2904578	REC_WORD	wordpools/wasnorm_wordpool.txt	LTP144	ltpFR	2	16	-1	NOSE	957	n/a	-1	n/a	n/a	n/a	n/a	n/a
2905406	REC_WORD	wordpools/wasnorm_wordpool.txt	LTP144	ltpFR	2	16	-1	FOREHEAD	592	n/a	-1	n/a	n/a	n/a	n/a	n/a
2906344	REC_WORD	wordpools/wasnorm_wordpool.txt	LTP144	ltpFR	2	16	-1	NECKLACE	940	n/a	-1	n/a	n/a	n/a	n/a	n/a
2908284	REC_WORD	wordpools/wasnorm_wordpool.txt	LTP144	ltpFR	2	16	-1	RUBY	1214	n/a	-1	n/a	n/a	n/a	n/a	n/a
2909606	REC_WORD	wordpools/wasnorm_wordpool.txt	LTP144	ltpFR	2	16	-1	BLACKBERRY	132	n/a	-1	n/a	n/a	n/a	n/a	n/a
2910839	REC_WORD	wordpools/wasnorm_wordpool.txt	LTP144	ltpFR	2	16	-1	PIE	1062	n/a	-1	n/a	n/a	n/a	n/a	n/a
2913278	REC_WORD	wordpools/wasnorm_wordpool.txt	LTP144	ltpFR	2	16	-1	PISTOL	1075	n/a	-1	n/a	n/a	n/a	n/a	n/a
2914286	REC_WORD	wordpools/wasnorm_wordpool.txt	LTP144	ltpFR	2	16	-1	PATROL	1027	n/a	-1	n/a	n/a	n/a	n/a	n/a
2915757	REC_WORD	wordpools/wasnorm_wordpool.txt	LTP144	ltpFR	2	16	-1	FORT	595	n/a	-1	n/a	n/a	n/a	n/a	n/a
2969665	REC_WORD	wordpools/wasnorm_wordpool.txt	LTP144	ltpFR	2	16	-1	FLIPPER	580	n/a	-1	n/a	n/a	n/a	n/a	n/a
2970737	REC_WORD	wordpools/wasnorm_wordpool.txt	LTP144	ltpFR	2	16	-1	FIN	566	n/a	-1	n/a	n/a	n/a	n/a	n/a
3017602	REC_START	n/a	LTP144	ltpFR	2	n/a	n/a	n/a	n/a	n/a	n/a	n/a	n/a	n/a	n/a	n/a
3020800	FFR_REC_WORD	wordpools/wasnorm_wordpool.txt	LTP144	ltpFR	2	n/a	0	LIP	828	n/a	0	n/a	n/a	n/a	n/a	n/a
3021732	FFR_REC_WORD	wordpools/wasnorm_wordpool.txt	LTP144	ltpFR	2	n/a	0	NICOTINE	951	n/a	0	n/a	n/a	n/a	n/a	n/a
3022700	FFR_REC_WORD	wordpools/wasnorm_wordpool.txt	LTP144	ltpFR	2	n/a	1	CIGARETTE	309	n/a	0	n/a	n/a	n/a	n/a	n/a
3023858	FFR_REC_WORD	wordpools/wasnorm_wordpool.txt	LTP144	ltpFR	2	n/a	-1	WEED	1599	n/a	-1	n/a	n/a	n/a	n/a	n/a
3025439	FFR_REC_WORD	wordpools/wasnorm_wordpool.txt	LTP144	ltpFR	2	n/a	0	BEER	114	n/a	1	n/a	n/a	n/a	n/a	n/a
3026053	FFR_REC_WORD	wordpools/wasnorm_wordpool.txt	LTP144	ltpFR	2	n/a	0	PARTY	1018	n/a	1	n/a	n/a	n/a	n/a	n/a
3028183	FFR_REC_WORD_VV	wordpools/wasnorm_wordpool.txt	LTP144	ltpFR	2	n/a	n/a	<>	-1	n/a	n/a	n/a	n/a	n/a	n/a	n/a
3028891	FFR_REC_WORD	wordpools/wasnorm_wordpool.txt	LTP144	ltpFR	2	n/a	0	BEDROOM	111	n/a	1	n/a	n/a	n/a	n/a	n/a
3029634	FFR_REC_WORD	wordpools/wasnorm_wordpool.txt	LTP144	ltpFR	2	n/a	0	LOFT	840	n/a	1	n/a	n/a	n/a	n/a	n/a
3031281	FFR_REC_WORD	wordpools/wasnorm_wordpool.txt	LTP144	ltpFR	2	n/a	0	TRIGGER	1507	n/a	1	n/a	n/a	n/a	n/a	n/a
3031989	FFR_REC_WORD	wordpools/wasnorm_wordpool.txt	LTP144	ltpFR	2	n/a	-1	PISTOL	1075	n/a	-1	n/a	n/a	n/a	n/a	n/a
3032777	FFR_REC_WORD	wordpools/wasnorm_wordpool.txt	LTP144	ltpFR	2	n/a	-1	PATROL	1027	n/a	-1	n/a	n/a	n/a	n/a	n/a
3034408	FFR_REC_WORD	wordpools/wasnorm_wordpool.txt	LTP144	ltpFR	2	n/a	-1	FORT	595	n/a	-1	n/a	n/a	n/a	n/a	n/a
3035651	FFR_REC_WORD	wordpools/wasnorm_wordpool.txt	LTP144	ltpFR	2	n/a	0	ELK	526	n/a	1	n/a	n/a	n/a	n/a	n/a
3036499	FFR_REC_WORD	wordpools/wasnorm_wordpool.txt	LTP144	ltpFR	2	n/a	1	DEER	444	n/a	1	n/a	n/a	n/a	n/a	n/a
3037886	FFR_REC_WORD	wordpools/wasnorm_wordpool.txt	LTP144	ltpFR	2	n/a	1	RACCOON	1153	n/a	1	n/a	n/a	n/a	n/a	n/a
3041118	FFR_REC_WORD	wordpools/wasnorm_wordpool.txt	LTP144	ltpFR	2	n/a	0	RIVER	1194	n/a	1	n/a	n/a	n/a	n/a	n/a
3041906	FFR_REC_WORD	wordpools/wasnorm_wordpool.txt	LTP144	ltpFR	2	n/a	0	VALLEY	1545	n/a	1	n/a	n/a	n/a	n/a	n/a
3043927	FFR_REC_WORD	wordpools/wasnorm_wordpool.txt	LTP144	ltpFR	2	n/a	0	LAKE	796	n/a	1	n/a	n/a	n/a	n/a	n/a
3052118	FFR_REC_WORD	wordpools/wasnorm_wordpool.txt	LTP144	ltpFR	2	n/a	0	FRIES	607	n/a	0	n/a	n/a	n/a	n/a	n/a
3054323	FFR_REC_WORD	wordpools/wasnorm_wordpool.txt	LTP144	ltpFR	2	n/a	0	PAGE	1001	n/a	0	n/a	n/a	n/a	n/a	n/a
3056404	FFR_REC_WORD	wordpools/wasnorm_wordpool.txt	LTP144	ltpFR	2	n/a	0	PUBLICATION	1136	n/a	0	n/a	n/a	n/a	n/a	n/a
3057501	FFR_REC_WORD	wordpools/wasnorm_wordpool.txt	LTP144	ltpFR	2	n/a	0	NEWSSTAND	949	n/a	1	n/a	n/a	n/a	n/a	n/a
3064351	FFR_REC_WORD	wordpools/wasnorm_wordpool.txt	LTP144	ltpFR	2	n/a	-1	PALM	1007	n/a	-1	n/a	n/a	n/a	n/a	n/a
3065164	FFR_REC_WORD	wordpools/wasnorm_wordpool.txt	LTP144	ltpFR	2	n/a	-1	ROOT	1210	n/a	-1	n/a	n/a	n/a	n/a	n/a
3066161	FFR_REC_WORD	wordpools/wasnorm_wordpool.txt	LTP144	ltpFR	2	n/a	-1	APPLE	33	n/a	-1	n/a	n/a	n/a	n/a	n/a
3067902	FFR_REC_WORD	wordpools/wasnorm_wordpool.txt	LTP144	ltpFR	2	n/a	-1	RUBY	1214	n/a	-1	n/a	n/a	n/a	n/a	n/a
3068880	FFR_REC_WORD	wordpools/wasnorm_wordpool.txt	LTP144	ltpFR	2	n/a	-1	NECKLACE	940	n/a	-1	n/a	n/a	n/a	n/a	n/a
3069637	FFR_REC_WORD	wordpools/wasnorm_wordpool.txt	LTP144	ltpFR	2	n/a	-1	FOREHEAD	592	n/a	-1	n/a	n/a	n/a	n/a	n/a
3070357	FFR_REC_WORD	wordpools/wasnorm_wordpool.txt	LTP144	ltpFR	2	n/a	-1	NOSE	957	n/a	-1	n/a	n/a	n/a	n/a	n/a
3072447	FFR_REC_WORD	wordpools/wasnorm_wordpool.txt	LTP144	ltpFR	2	n/a	1	NECK	939	n/a	1	n/a	n/a	n/a	n/a	n/a
3073874	FFR_REC_WORD	wordpools/wasnorm_wordpool.txt	LTP144	ltpFR	2	n/a	0	BRAIN	165	n/a	1	n/a	n/a	n/a	n/a	n/a
3074822	FFR_REC_WORD	wordpools/wasnorm_wordpool.txt	LTP144	ltpFR	2	n/a	0	MAMMAL	861	n/a	1	n/a	n/a	n/a	n/a	n/a
3086585	FFR_REC_WORD	wordpools/wasnorm_wordpool.txt	LTP144	ltpFR	2	n/a	1	ZOO	1637	n/a	0	n/a	n/a	n/a	n/a	n/a
3088595	FFR_REC_WORD	wordpools/wasnorm_wordpool.txt	LTP144	ltpFR	2	n/a	0	SEAL	1262	n/a	1	n/a	n/a	n/a	n/a	n/a
3092641	FFR_REC_WORD	wordpools/wasnorm_wordpool.txt	LTP144	ltpFR	2	n/a	0	GIRAFFE	636	n/a	1	n/a	n/a	n/a	n/a	n/a
3100468	FFR_REC_WORD	wordpools/wasnorm_wordpool.txt	LTP144	ltpFR	2	n/a	1	BANK	83	n/a	0	n/a	n/a	n/a	n/a	n/a
3109777	FFR_REC_WORD	wordpools/wasnorm_wordpool.txt	LTP144	ltpFR	2	n/a	1	GATE	625	n/a	0	n/a	n/a	n/a	n/a	n/a
3119810	FFR_REC_WORD	wordpools/wasnorm_wordpool.txt	LTP144	ltpFR	2	n/a	-1	NUN	962	n/a	-1	n/a	n/a	n/a	n/a	n/a
3120797	FFR_REC_WORD	wordpools/wasnorm_wordpool.txt	LTP144	ltpFR	2	n/a	-1	MONASTERY	907	n/a	-1	n/a	n/a	n/a	n/a	n/a
3123835	FFR_REC_WORD	wordpools/wasnorm_wordpool.txt	LTP144	ltpFR	2	n/a	-1	WHEAT	1602	n/a	-1	n/a	n/a	n/a	n/a	n/a
3125292	FFR_REC_WORD	wordpools/wasnorm_wordpool.txt	LTP144	ltpFR	2	n/a	-1	BREAD	170	n/a	-1	n/a	n/a	n/a	n/a	n/a
3136721	FFR_REC_WORD	wordpools/wasnorm_wordpool.txt	LTP144	ltpFR	2	n/a	-1	BARLEY	88	n/a	-1	n/a	n/a	n/a	n/a	n/a
3144897	FFR_REC_WORD	wordpools/wasnorm_wordpool.txt	LTP144	ltpFR	2	n/a	-1	TURNIP	1521	n/a	-1	n/a	n/a	n/a	n/a	n/a
3155533	FFR_REC_WORD	wordpools/wasnorm_wordpool.txt	LTP144	ltpFR	2	n/a	0	TOURIST	1488	n/a	1	n/a	n/a	n/a	n/a	n/a
3157080	FFR_REC_WORD	wordpools/wasnorm_wordpool.txt	LTP144	ltpFR	2	n/a	0	PAD	998	n/a	0	n/a	n/a	n/a	n/a	n/a
3159205	FFR_REC_WORD	wordpools/wasnorm_wordpool.txt	LTP144	ltpFR	2	n/a	0	MILITARY	894	n/a	1	n/a	n/a	n/a	n/a	n/a
3160352	FFR_REC_WORD	wordpools/wasnorm_wordpool.txt	LTP144	ltpFR	2	n/a	0	POLITICIAN	1099	n/a	1	n/a	n/a	n/a	n/a	n/a
3218794	FFR_REC_WORD	wordpools/wasnorm_wordpool.txt	LTP144	ltpFR	2	n/a	0	WORLD	1622	n/a	1	n/a	n/a	n/a	n/a	n/a
3237821	FFR_REC_WORD	wordpools/wasnorm_wordpool.txt	LTP144	ltpFR	2	n/a	0	EWE	542	n/a	0	n/a	n/a	n/a	n/a	n/a
3240685	FFR_REC_WORD	wordpools/wasnorm_wordpool.txt	LTP144	ltpFR	2	n/a	1	ROUGE	1213	n/a	0	n/a	n/a	n/a	n/a	n/a
3251341	FFR_REC_WORD	wordpools/wasnorm_wordpool.txt	LTP144	ltpFR	2	n/a	1	WHALE	1601	n/a	1	n/a	n/a	n/a	n/a	n/a
3289778	FFR_REC_WORD	wordpools/wasnorm_wordpool.txt	LTP144	ltpFR	2	n/a	0	WHEEL	1603	n/a	1	n/a	n/a	n/a	n/a	n/a
3305148	FFR_REC_WORD	wordpools/wasnorm_wordpool.txt	LTP144	ltpFR	2	n/a	0	THICKET	1455	n/a	1	n/a	n/a	n/a	n/a	n/a
3367202	REC_START	n/a	LTP144	ltpFR	2	1	n/a	n/a	n/a	n/a	n/a	n/a	n/a	n/a	n/a	n/a
3367235	RECOG_LURE	n/a	LTP144	ltpFR	2	1	n/a	MITTEN	902	3	n/a	n/a	n/a	n/a	n/a	n/a
3369890	RECOG_RESP	n/a	LTP144	ltpFR	2	1	n/a	MITTEN	902	n/a	n/a	n/a	n/a	n/a	n/a	n/a
3371837	RECOG_CONF	n/a	LTP144	ltpFR	2	1	n/a	MITTEN	902	3	n/a	n/a	n/a	n/a	n/a	n/a
3373557	RECOG_TARGET	n/a	LTP144	ltpFR	2	1	-1	YOUTH	1634	5	-1	n/a	n/a	n/a	n/a	n/a
3374766	RECOG_RESP	n/a	LTP144	ltpFR	2	1	-1	YOUTH	1634	n/a	-1	n/a	n/a	n/a	n/a	n/a
3376362	RECOG_CONF	n/a	LTP144	ltpFR	2	1	-1	YOUTH	1634	5	-1	n/a	n/a	n/a	n/a	n/a
3378089	RECOG_TARGET	n/a	LTP144	ltpFR	2	1	0	SHELF	1280	5	1	n/a	n/a	n/a	n/a	n/a
3378859	RECOG_RESP	n/a	LTP144	ltpFR	2	1	0	SHELF	1280	n/a	1	n/a	n/a	n/a	n/a	n/a
3380537	RECOG_CONF	n/a	LTP144	ltpFR	2	1	0	SHELF	1280	5	1	n/a	n/a	n/a	n/a	n/a
3382179	RECOG_LURE	n/a	LTP144	ltpFR	2	1	n/a	CITIZEN	312	4	n/a	n/a	n/a	n/a	n/a	n/a
3383011	RECOG_RESP	n/a	LTP144	ltpFR	2	1	n/a	CITIZEN	312	n/a	n/a	n/a	n/a	n/a	n/a	n/a
3384582	RECOG_CONF	n/a	LTP144	ltpFR	2	1	n/a	CITIZEN	312	4	n/a	n/a	n/a	n/a	n/a	n/a
3386453	RECOG_LURE	n/a	LTP144	ltpFR	2	1	n/a	THESAURUS	1454	5	n/a	n/a	n/a	n/a	n/a	n/a
3387648	RECOG_RESP	n/a	LTP144	ltpFR	2	1	n/a	THESAURUS	1454	n/a	n/a	n/a	n/a	n/a	n/a	n/a
3389287	RECOG_CONF	n/a	LTP144	ltpFR	2	1	n/a	THESAURUS	1454	5	n/a	n/a	n/a	n/a	n/a	n/a
3390860	RECOG_TARGET	n/a	LTP144	ltpFR	2	1	0	SPRINKLE	1359	5	0	n/a	n/a	n/a	n/a	n/a
3391662	RECOG_RESP	n/a	LTP144	ltpFR	2	1	0	SPRINKLE	1359	n/a	0	n/a	n/a	n/a	n/a	n/a
3393268	RECOG_CONF	n/a	LTP144	ltpFR	2	1	0	SPRINKLE	1359	5	0	n/a	n/a	n/a	n/a	n/a
3394866	RECOG_TARGET	n/a	LTP144	ltpFR	2	1	1	ABDOMEN	1	5	1	n/a	n/a	n/a	n/a	n/a
3395639	RECOG_RESP	n/a	LTP144	ltpFR	2	1	1	ABDOMEN	1	n/a	1	n/a	n/a	n/a	n/a	n/a
3397338	RECOG_CONF	n/a	LTP144	ltpFR	2	1	1	ABDOMEN	1	5	1	n/a	n/a	n/a	n/a	n/a
3399007	RECOG_LURE	n/a	LTP144	ltpFR	2	1	n/a	DOCTOR	478	2	n/a	n/a	n/a	n/a	n/a	n/a
3399803	RECOG_RESP	n/a	LTP144	ltpFR	2	1	n/a	DOCTOR	478	n/a	n/a	n/a	n/a	n/a	n/a	n/a
3401416	RECOG_CONF	n/a	LTP144	ltpFR	2	1	n/a	DOCTOR	478	2	n/a	n/a	n/a	n/a	n/a	n/a
3403014	RECOG_LURE	n/a	LTP144	ltpFR	2	1	n/a	XEROX	1628	5	n/a	n/a	n/a	n/a	n/a	n/a
3404170	RECOG_RESP	n/a	LTP144	ltpFR	2	1	n/a	XEROX	1628	n/a	n/a	n/a	n/a	n/a	n/a	n/a
3405849	RECOG_CONF	n/a	LTP144	ltpFR	2	1	n/a	XEROX	1628	5	n/a	n/a	n/a	n/a	n/a	n/a
3407437	RECOG_LURE	n/a	LTP144	ltpFR	2	1	n/a	CYLINDER	432	5	n/a	n/a	n/a	n/a	n/a	n/a
3408421	RECOG_RESP	n/a	LTP144	ltpFR	2	1	n/a	CYLINDER	432	n/a	n/a	n/a	n/a	n/a	n/a	n/a
3410134	RECOG_CONF	n/a	LTP144	ltpFR	2	1	n/a	CYLINDER	432	5	n/a	n/a	n/a	n/a	n/a	n/a
3411860	RECOG_LURE	n/a	LTP144	ltpFR	2	1	n/a	FORK	594	2	n/a	n/a	n/a	n/a	n/a	n/a
3414006	RECOG_RESP	n/a	LTP144	ltpFR	2	1	n/a	FORK	594	n/a	n/a	n/a	n/a	n/a	n/a	n/a
3415894	RECOG_CONF	n/a	LTP144	ltpFR	2	1	n/a	FORK	594	2	n/a	n/a	n/a	n/a	n/a	n/a
3417575	RECOG_TARGET	n/a	LTP144	ltpFR	2	1	1	PECAN	1036	3	1	n/a	n/a	n/a	n/a	n/a
3418697	RECOG_RESP	n/a	LTP144	ltpFR	2	1	1	PECAN	1036	n/a	1	n/a	n/a	n/a	n/a	n/a
3420373	RECOG_CONF	n/a	LTP144	ltpFR	2	1	1	PECAN	1036	3	1	n/a	n/a	n/a	n/a	n/a
3421890	RECOG_TARGET	n/a	LTP144	ltpFR	2	1	0	FRIES	607	5	0	n/a	n/a	n/a	n/a	n/a
3422598	RECOG_RESP	n/a	LTP144	ltpFR	2	1	0	FRIES	607	n/a	0	n/a	n/a	n/a	n/a	n/a
3424907	RECOG_CONF	n/a	LTP144	ltpFR	2	1	0	FRIES	607	5	0	n/a	n/a	n/a	n/a	n/a
3426514	RECOG_LURE	n/a	LTP144	ltpFR	2	1	n/a	SLIME	1327	5	n/a	n/a	n/a	n/a	n/a	n/a
3427369	RECOG_RESP	n/a	LTP144	ltpFR	2	1	n/a	SLIME	1327	n/a	n/a	n/a	n/a	n/a	n/a	n/a
3429208	RECOG_CONF	n/a	LTP144	ltpFR	2	1	n/a	SLIME	1327	5	n/a	n/a	n/a	n/a	n/a	n/a
3430737	RECOG_TARGET	n/a	LTP144	ltpFR	2	1	-1	VAULT	1550	1	-1	n/a	n/a	n/a	n/a	n/a
3432761	RECOG_RESP	n/a	LTP144	ltpFR	2	1	-1	VAULT	1550	n/a	-1	n/a	n/a	n/a	n/a	n/a
3434298	RECOG_CONF	n/a	LTP144	ltpFR	2	1	-1	VAULT	1550	1	-1	n/a	n/a	n/a	n/a	n/a
3435827	RECOG_LURE	n/a	LTP144	ltpFR	2	1	n/a	TABLE	1426	3	n/a	n/a	n/a	n/a	n/a	n/a
3436735	RECOG_RESP	n/a	LTP144	ltpFR	2	1	n/a	TABLE	1426	n/a	n/a	n/a	n/a	n/a	n/a	n/a
3438235	RECOG_CONF	n/a	LTP144	ltpFR	2	1	n/a	TABLE	1426	3	n/a	n/a	n/a	n/a	n/a	n/a
3439759	RECOG_LURE	n/a	LTP144	ltpFR	2	1	n/a	PAINT	1003	4	n/a	n/a	n/a	n/a	n/a	n/a
3441792	RECOG_RESP	n/a	LTP144	ltpFR	2	1	n/a	PAINT	1003	n/a	n/a	n/a	n/a	n/a	n/a	n/a
3443561	RECOG_CONF	n/a	LTP144	ltpFR	2	1	n/a	PAINT	1003	4	n/a	n/a	n/a	n/a	n/a	n/a
3445257	RECOG_TARGET	n/a	LTP144	ltpFR	2	1	0	TREAD	1499	5	1	n/a	n/a	n/a	n/a	n/a
3446284	RECOG_RESP	n/a	LTP144	ltpFR	2	1	0	TREAD	1499	n/a	1	n/a	n/a	n/a	n/a	n/a
3447993	RECOG_CONF	n/a	LTP144	ltpFR	2	1	0	TREAD	1499	5	1	n/a	n/a	n/a	n/a	n/a
3449730	RECOG_LURE	n/a	LTP144	ltpFR	2	1	n/a	SKATE	1313	4	n/a	n/a	n/a	n/a	n/a	n/a
3451017	RECOG_RESP	n/a	LTP144	ltpFR	2	1	n/a	SKATE	1313	n/a	n/a	n/a	n/a	n/a	n/a	n/a
3452585	RECOG_CONF	n/a	LTP144	ltpFR	2	1	n/a	SKATE	1313	4	n/a	n/a	n/a	n/a	n/a	n/a
3454195	RECOG_LURE	n/a	LTP144	ltpFR	2	1	n/a	CHEF	290	3	n/a	n/a	n/a	n/a	n/a	n/a
3455678	RECOG_RESP	n/a	LTP144	ltpFR	2	1	n/a	CHEF	290	n/a	n/a	n/a	n/a	n/a	n/a	n/a
3457338	RECOG_CONF	n/a	LTP144	ltpFR	2	1	n/a	CHEF	290	3	n/a	n/a	n/a	n/a	n/a	n/a
3473503	REC_START	n/a	LTP144	ltpFR	2	2	n/a	n/a	n/a	n/a	n/a	n/a	n/a	n/a	n/a	n/a
3473539	RECOG_LURE	n/a	LTP144	ltpFR	2	2	n/a	CELLO	268	5	n/a	n/a	n/a	n/a	n/a	n/a
3474849	RECOG_RESP	n/a	LTP144	ltpFR	2	2	n/a	CELLO	268	n/a	n/a	n/a	n/a	n/a	n/a	n/a
3476454	RECOG_CONF	n/a	LTP144	ltpFR	2	2	n/a	CELLO	268	5	n/a	n/a	n/a	n/a	n/a	n/a
3478387	RECOG_LURE	n/a	LTP144	ltpFR	2	2	n/a	SCREEN	1253	2	n/a	n/a	n/a	n/a	n/a	n/a
3479239	RECOG_RESP	n/a	LTP144	ltpFR	2	2	n/a	SCREEN	1253	n/a	n/a	n/a	n/a	n/a	n/a	n/a
3480798	RECOG_CONF	n/a	LTP144	ltpFR	2	2	n/a	SCREEN	1253	2	n/a	n/a	n/a	n/a	n/a	n/a
3482494	RECOG_TARGET	n/a	LTP144	ltpFR	2	2	1	LOG	841	5	0	n/a	n/a	n/a	n/a	n/a
3483350	RECOG_RESP	n/a	LTP144	ltpFR	2	2	1	LOG	841	n/a	0	n/a	n/a	n/a	n/a	n/a
3484940	RECOG_CONF	n/a	LTP144	ltpFR	2	2	1	LOG	841	5	0	n/a	n/a	n/a	n/a	n/a
3486759	RECOG_TARGET	n/a	LTP144	ltpFR	2	2	1	CHILD	299	3	1	n/a	n/a	n/a	n/a	n/a
3487491	RECOG_RESP	n/a	LTP144	ltpFR	2	2	1	CHILD	299	n/a	1	n/a	n/a	n/a	n/a	n/a
3488994	RECOG_CONF	n/a	LTP144	ltpFR	2	2	1	CHILD	299	3	1	n/a	n/a	n/a	n/a	n/a
3490524	RECOG_TARGET	n/a	LTP144	ltpFR	2	2	0	MINER	896	3	0	n/a	n/a	n/a	n/a	n/a
3491906	RECOG_RESP	n/a	LTP144	ltpFR	2	2	0	MINER	896	n/a	0	n/a	n/a	n/a	n/a	n/a
3494346	RECOG_RESP_VV	n/a	LTP144	ltpFR	2	2	0	MINER	896	2	0	n/a	n/a	n/a	n/a	n/a
3494903	RECOG_CONF	n/a	LTP144	ltpFR	2	2	0	MINER	896	3	0	n/a	n/a	n/a	n/a	n/a
3496764	RECOG_TARGET	n/a	LTP144	ltpFR	2	2	1	WIDOW	1608	5	1	n/a	n/a	n/a	n/a	n/a
3497670	RECOG_RESP	n/a	LTP144	ltpFR	2	2	1	WIDOW	1608	n/a	1	n/a	n/a	n/a	n/a	n/a
3499179	RECOG_CONF	n/a	LTP144	ltpFR	2	2	1	WIDOW	1608	5	1	n/a	n/a	n/a	n/a	n/a
3500562	RECOG_LURE	n/a	LTP144	ltpFR	2	2	n/a	MARINE	869	5	n/a	n/a	n/a	n/a	n/a	n/a
3501297	RECOG_RESP	n/a	LTP144	ltpFR	2	2	n/a	MARINE	869	n/a	n/a	n/a	n/a	n/a	n/a	n/a
3502676	RECOG_CONF	n/a	LTP144	ltpFR	2	2	n/a	MARINE	869	5	n/a	n/a	n/a	n/a	n/a	n/a
3504428	RECOG_LURE	n/a	LTP144	ltpFR	2	2	n/a	DIGGER	464	5	n/a	n/a	n/a	n/a	n/a	n/a
3505184	RECOG_RESP	n/a	LTP144	ltpFR	2	2	n/a	DIGGER	464	n/a	n/a	n/a	n/a	n/a	n/a	n/a
3506852	RECOG_CONF	n/a	LTP144	ltpFR	2	2	n/a	DIGGER	464	5	n/a	n/a	n/a	n/a	n/a	n/a
3508501	RECOG_LURE	n/a	LTP144	ltpFR	2	2	n/a	CANOE	233	4	n/a	n/a	n/a	n/a	n/a	n/a
3509329	RECOG_RESP	n/a	LTP144	ltpFR	2	2	n/a	CANOE	233	n/a	n/a	n/a	n/a	n/a	n/a	n/a
3511040	RECOG_CONF	n/a	LTP144	ltpFR	2	2	n/a	CANOE	233	4	n/a	n/a	n/a	n/a	n/a	n/a
3512908	RECOG_LURE	n/a	LTP144	ltpFR	2	2	n/a	GRASSHOPPER	656	5	n/a	n/a	n/a	n/a	n/a	n/a
3513789	RECOG_RESP	n/a	LTP144	ltpFR	2	2	n/a	GRASSHOPPER	656	n/a	n/a	n/a	n/a	n/a	n/a	n/a
3515226	RECOG_CONF	n/a	LTP144	ltpFR	2	2	n/a	GRASSHOPPER	656	5	n/a	n/a	n/a	n/a	n/a	n/a
3517006	RECOG_LURE	n/a	LTP144	ltpFR	2	2	n/a	MOLECULE	905	5	n/a	n/a	n/a	n/a	n/a	n/a
3517842	RECOG_RESP	n/a	LTP144	ltpFR	2	2	n/a	MOLECULE	905	n/a	n/a	n/a	n/a	n/a	n/a	n/a
3519292	RECOG_CONF	n/a	LTP144	ltpFR	2	2	n/a	MOLECULE	905	5	n/a	n/a	n/a	n/a	n/a	n/a
3521230	RECOG_LURE	n/a	LTP144	ltpFR	2	2	n/a	SUITE	1404	3	n/a	n/a	n/a	n/a	n/a	n/a
3522426	RECOG_RESP	n/a	LTP144	ltpFR	2	2	n/a	SUITE	1404	n/a	n/a	n/a	n/a	n/a	n/a	n/a
3524255	RECOG_CONF	n/a	LTP144	ltpFR	2	2	n/a	SUITE	1404	3	n/a	n/a	n/a	n/a	n/a	n/a
3525970	RECOG_LURE	n/a	LTP144	ltpFR	2	2	n/a	WALNUT	1584	5	n/a	n/a	n/a	n/a	n/a	n/a
3526827	RECOG_RESP	n/a	LTP144	ltpFR	2	2	n/a	WALNUT	1584	n/a	n/a	n/a	n/a	n/a	n/a	n/a
3528214	RECOG_CONF	n/a	LTP144	ltpFR	2	2	n/a	WALNUT	1584	5	n/a	n/a	n/a	n/a	n/a	n/a
3529785	RECOG_LURE	n/a	LTP144	ltpFR	2	2	n/a	STALLION	1369	5	n/a	n/a	n/a	n/a	n/a	n/a
3530648	RECOG_RESP	n/a	LTP144	ltpFR	2	2	n/a	STALLION	1369	n/a	n/a	n/a	n/a	n/a	n/a	n/a
3532285	RECOG_CONF	n/a	LTP144	ltpFR	2	2	n/a	STALLION	1369	5	n/a	n/a	n/a	n/a	n/a	n/a
3533984	RECOG_LURE	n/a	LTP144	ltpFR	2	2	n/a	COLONEL	348	5	n/a	n/a	n/a	n/a	n/a	n/a
3534883	RECOG_RESP	n/a	LTP144	ltpFR	2	2	n/a	COLONEL	348	n/a	n/a	n/a	n/a	n/a	n/a	n/a
3536541	RECOG_CONF	n/a	LTP144	ltpFR	2	2	n/a	COLONEL	348	5	n/a	n/a	n/a	n/a	n/a	n/a
3538274	RECOG_LURE	n/a	LTP144	ltpFR	2	2	n/a	ASSISTANT	48	5	n/a	n/a	n/a	n/a	n/a	n/a
3539064	RECOG_RESP	n/a	LTP144	ltpFR	2	2	n/a	ASSISTANT	48	n/a	n/a	n/a	n/a	n/a	n/a	n/a
3540882	RECOG_CONF	n/a	LTP144	ltpFR	2	2	n/a	ASSISTANT	48	5	n/a	n/a	n/a	n/a	n/a	n/a
3542489	RECOG_TARGET	n/a	LTP144	ltpFR	2	2	1	HEDGE	699	5	1	n/a	n/a	n/a	n/a	n/a
3543378	RECOG_RESP	n/a	LTP144	ltpFR	2	2	1	HEDGE	699	n/a	1	n/a	n/a	n/a	n/a	n/a
3544877	RECOG_CONF	n/a	LTP144	ltpFR	2	2	1	HEDGE	699	5	1	n/a	n/a	n/a	n/a	n/a
3546605	RECOG_TARGET	n/a	LTP144	ltpFR	2	2	1	TREASURE	1500	4	0	n/a	n/a	n/a	n/a	n/a
3547474	RECOG_RESP	n/a	LTP144	ltpFR	2	2	1	TREASURE	1500	n/a	0	n/a	n/a	n/a	n/a	n/a
3548936	RECOG_CONF	n/a	LTP144	ltpFR	2	2	1	TREASURE	1500	4	0	n/a	n/a	n/a	n/a	n/a
3550786	RECOG_TARGET	n/a	LTP144	ltpFR	2	2	1	SLOPE	1328	5	0	n/a	n/a	n/a	n/a	n/a
3553086	RECOG_RESP	n/a	LTP144	ltpFR	2	2	1	SLOPE	1328	n/a	0	n/a	n/a	n/a	n/a	n/a
3555023	RECOG_CONF	n/a	LTP144	ltpFR	2	2	1	SLOPE	1328	5	0	n/a	n/a	n/a	n/a	n/a
3557034	RECOG_LURE	n/a	LTP144	ltpFR	2	2	n/a	FIG	563	5	n/a	n/a	n/a	n/a	n/a	n/a
3558226	RECOG_RESP	n/a	LTP144	ltpFR	2	2	n/a	FIG	563	n/a	n/a	n/a	n/a	n/a	n/a	n/a
3559902	RECOG_CONF	n/a	LTP144	ltpFR	2	2	n/a	FIG	563	5	n/a	n/a	n/a	n/a	n/a	n/a
3565202	REC_START	n/a	LTP144	ltpFR	2	3	n/a	n/a	n/a	n/a	n/a	n/a	n/a	n/a	n/a	n/a
3565239	RECOG_LURE	n/a	LTP144	ltpFR	2	3	n/a	CHEESE	289	3	n/a	n/a	n/a	n/a	n/a	n/a
3566089	RECOG_RESP	n/a	LTP144	ltpFR	2	3	n/a	CHEESE	289	n/a	n/a	n/a	n/a	n/a	n/a	n/a
3567602	RECOG_CONF	n/a	LTP144	ltpFR	2	3	n/a	CHEESE	289	3	n/a	n/a	n/a	n/a	n/a	n/a
3569096	RECOG_LURE	n/a	LTP144	ltpFR	2	3	n/a	VAMPIRE	1547	5	n/a	n/a	n/a	n/a	n/a	n/a
3570430	RECOG_RESP	n/a	LTP144	ltpFR	2	3	n/a	VAMPIRE	1547	n/a	n/a	n/a	n/a	n/a	n/a	n/a
3571611	RECOG_CONF	n/a	LTP144	ltpFR	2	3	n/a	VAMPIRE	1547	5	n/a	n/a	n/a	n/a	n/a	n/a
3573236	RECOG_TARGET	n/a	LTP144	ltpFR	2	3	-1	NECKLACE	940	5	-1	n/a	n/a	n/a	n/a	n/a
3574049	RECOG_RESP	n/a	LTP144	ltpFR	2	3	-1	NECKLACE	940	n/a	-1	n/a	n/a	n/a	n/a	n/a
3575244	RECOG_CONF	n/a	LTP144	ltpFR	2	3	-1	NECKLACE	940	5	-1	n/a	n/a	n/a	n/a	n/a
3576960	RECOG_LURE	n/a	LTP144	ltpFR	2	3	n/a	EGYPT	519	5	n/a	n/a	n/a	n/a	n/a	n/a
3577764	RECOG_RESP	n/a	LTP144	ltpFR	2	3	n/a	EGYPT	519	n/a	n/a	n/a	n/a	n/a	n/a	n/a
3579007	RECOG_CONF	n/a	LTP144	ltpFR	2	3	n/a	EGYPT	519	5	n/a	n/a	n/a	n/a	n/a	n/a
3580767	RECOG_TARGET	n/a	LTP144	ltpFR	2	3	0	VAGRANT	1544	4	1	n/a	n/a	n/a	n/a	n/a
3582464	RECOG_RESP	n/a	LTP144	ltpFR	2	3	0	VAGRANT	1544	n/a	1	n/a	n/a	n/a	n/a	n/a
3584082	RECOG_CONF	n/a	LTP144	ltpFR	2	3	0	VAGRANT	1544	4	1	n/a	n/a	n/a	n/a	n/a
3585815	RECOG_TARGET	n/a	LTP144	ltpFR	2	3	0	MUG	930	2	0	n/a	n/a	n/a	n/a	n/a
3587373	RECOG_RESP	n/a	LTP144	ltpFR	2	3	0	MUG	930	n/a	0	n/a	n/a	n/a	n/a	n/a
3588790	RECOG_CONF	n/a	LTP144	ltpFR	2	3	0	MUG	930	2	0	n/a	n/a	n/a	n/a	n/a
3590339	RECOG_LURE	n/a	LTP144	ltpFR	2	3	n/a	SCALPEL	1243	5	n/a	n/a	n/a	n/a	n/a	n/a
3591367	RECOG_RESP	n/a	LTP144	ltpFR	2	3	n/a	SCALPEL	1243	n/a	n/a	n/a	n/a	n/a	n/a	n/a
3592696	RECOG_CONF	n/a	LTP144	ltpFR	2	3	n/a	SCALPEL	1243	5	n/a	n/a	n/a	n/a	n/a	n/a
3594304	RECOG_TARGET	n/a	LTP144	ltpFR	2	3	-1	GOO	648	5	-1	n/a	n/a	n/a	n/a	n/a
3595124	RECOG_RESP	n/a	LTP144	ltpFR	2	3	-1	GOO	648	n/a	-1	n/a	n/a	n/a	n/a	n/a
3596655	RECOG_CONF	n/a	LTP144	ltpFR	2	3	-1	GOO	648	5	-1	n/a	n/a	n/a	n/a	n/a
3598236	RECOG_TARGET	n/a	LTP144	ltpFR	2	3	0	JAR	750	5	0	n/a	n/a	n/a	n/a	n/a
3599093	RECOG_RESP	n/a	LTP144	ltpFR	2	3	0	JAR	750	n/a	0	n/a	n/a	n/a	n/a	n/a
3600480	RECOG_CONF	n/a	LTP144	ltpFR	2	3	0	JAR	750	5	0	n/a	n/a	n/a	n/a	n/a
3602143	RECOG_TARGET	n/a	LTP144	ltpFR	2	3	0	THICKET	1455	5	1	n/a	n/a	n/a	n/a	n/a
3602963	RECOG_RESP	n/a	LTP144	ltpFR	2	3	0	THICKET	1455	n/a	1	n/a	n/a	n/a	n/a	n/a
3604517	RECOG_CONF	n/a	LTP144	ltpFR	2	3	0	THICKET	1455	5	1	n/a	n/a	n/a	n/a	n/a
3606241	RECOG_TARGET	n/a	LTP144	ltpFR	2	3	-1	MUSHROOM	934	5	-1	n/a	n/a	n/a	n/a	n/a
3607049	RECOG_RESP	n/a	LTP144	ltpFR	2	3	-1	MUSHROOM	934	n/a	-1	n/a	n/a	n/a	n/a	n/a
3608528	RECOG_CONF	n/a	LTP144	ltpFR	2	3	-1	MUSHROOM	934	5	-1	n/a	n/a	n/a	n/a	n/a
3610123	RECOG_LURE	n/a	LTP144	ltpFR	2	3	n/a	MICROPHONE	890	5	n/a	n/a	n/a	n/a	n/a	n/a
3610980	RECOG_RESP	n/a	LTP144	ltpFR	2	3	n/a	MICROPHONE	890	n/a	n/a	n/a	n/a	n/a	n/a	n/a
3612482	RECOG_CONF	n/a	LTP144	ltpFR	2	3	n/a	MICROPHONE	890	5	n/a	n/a	n/a	n/a	n/a	n/a
3614180	RECOG_LURE	n/a	LTP144	ltpFR	2	3	n/a	MICROWAVE	892	5	n/a	n/a	n/a	n/a	n/a	n/a
3615193	RECOG_RESP	n/a	LTP144	ltpFR	2	3	n/a	MICROWAVE	892	n/a	n/a	n/a	n/a	n/a	n/a	n/a
3616790	RECOG_CONF	n/a	LTP144	ltpFR	2	3	n/a	MICROWAVE	892	5	n/a	n/a	n/a	n/a	n/a	n/a
3618462	RECOG_TARGET	n/a	LTP144	ltpFR	2	3	1	BASSINET	97	5	0	n/a	n/a	n/a	n/a	n/a
3619401	RECOG_RESP	n/a	LTP144	ltpFR	2	3	1	BASSINET	97	n/a	0	n/a	n/a	n/a	n/a	n/a
3620881	RECOG_CONF	n/a	LTP144	ltpFR	2	3	1	BASSINET	97	5	0	n/a	n/a	n/a	n/a	n/a
3622612	RECOG_LURE	n/a	LTP144	ltpFR	2	3	n/a	METEOR	889	5	n/a	n/a	n/a	n/a	n/a	n/a
3623402	RECOG_RESP	n/a	LTP144	ltpFR	2	3	n/a	METEOR	889	n/a	n/a	n/a	n/a	n/a	n/a	n/a
3625220	RECOG_CONF	n/a	LTP144	ltpFR	2	3	n/a	METEOR	889	5	n/a	n/a	n/a	n/a	n/a	n/a
3626767	RECOG_TARGET	n/a	LTP144	ltpFR	2	3	1	RACCOON	1153	5	1	n/a	n/a	n/a	n/a	n/a
3627511	RECOG_RESP	n/a	LTP144	ltpFR	2	3	1	RACCOON	1153	n/a	1	n/a	n/a	n/a	n/a	n/a
3629077	RECOG_CONF	n/a	LTP144	ltpFR	2	3	1	RACCOON	1153	5	1	n/a	n/a	n/a	n/a	n/a
3630766	RECOG_LURE	n/a	LTP144	ltpFR	2	3	n/a	NIECE	952	2	n/a	n/a	n/a	n/a	n/a	n/a
3631738	RECOG_RESP	n/a	LTP144	ltpFR	2	3	n/a	NIECE	952	n/a	n/a	n/a	n/a	n/a	n/a	n/a
3633272	RECOG_CONF	n/a	LTP144	ltpFR	2	3	n/a	NIECE	952	2	n/a	n/a	n/a	n/a	n/a	n/a
3634873	RECOG_TARGET	n/a	LTP144	ltpFR	2	3	-1	POTATO	1115	5	-1	n/a	n/a	n/a	n/a	n/a
3635664	RECOG_RESP	n/a	LTP144	ltpFR	2	3	-1	POTATO	1115	n/a	-1	n/a	n/a	n/a	n/a	n/a
3637043	RECOG_CONF	n/a	LTP144	ltpFR	2	3	-1	POTATO	1115	5	-1	n/a	n/a	n/a	n/a	n/a
3638713	RECOG_LURE	n/a	LTP144	ltpFR	2	3	n/a	CONVENT	370	3	n/a	n/a	n/a	n/a	n/a	n/a
3640544	RECOG_RESP	n/a	LTP144	ltpFR	2	3	n/a	CONVENT	370	n/a	n/a	n/a	n/a	n/a	n/a	n/a
3642406	RECOG_CONF	n/a	LTP144	ltpFR	2	3	n/a	CONVENT	370	3	n/a	n/a	n/a	n/a	n/a	n/a
3643986	RECOG_LURE	n/a	LTP144	ltpFR	2	3	n/a	COLLEGE	346	5	n/a	n/a	n/a	n/a	n/a	n/a
3645021	RECOG_RESP	n/a	LTP144	ltpFR	2	3	n/a	COLLEGE	346	n/a	n/a	n/a	n/a	n/a	n/a	n/a
3646472	RECOG_CONF	n/a	LTP144	ltpFR	2	3	n/a	COLLEGE	346	5	n/a	n/a	n/a	n/a	n/a	n/a
3651070	REC_START	n/a	LTP144	ltpFR	2	4	n/a	n/a	n/a	n/a	n/a	n/a	n/a	n/a	n/a	n/a
3651109	RECOG_TARGET	n/a	LTP144	ltpFR	2	4	0	CHEMIST	292	1	1	n/a	n/a	n/a	n/a	n/a
3652212	RECOG_RESP	n/a	LTP144	ltpFR	2	4	0	CHEMIST	292	n/a	1	n/a	n/a	n/a	n/a	n/a
3654014	RECOG_CONF	n/a	LTP144	ltpFR	2	4	0	CHEMIST	292	1	1	n/a	n/a	n/a	n/a	n/a
3655640	RECOG_LURE	n/a	LTP144	ltpFR	2	4	n/a	ESSAY	540	5	n/a	n/a	n/a	n/a	n/a	n/a
3656537	RECOG_RESP	n/a	LTP144	ltpFR	2	4	n/a	ESSAY	540	n/a	n/a	n/a	n/a	n/a	n/a	n/a
3658359	RECOG_CONF	n/a	LTP144	ltpFR	2	4	n/a	ESSAY	540	5	n/a	n/a	n/a	n/a	n/a	n/a
3660131	RECOG_TARGET	n/a	LTP144	ltpFR	2	4	0	TRIGGER	1507	5	1	n/a	n/a	n/a	n/a	n/a
3661032	RECOG_RESP	n/a	LTP144	ltpFR	2	4	0	TRIGGER	1507	n/a	1	n/a	n/a	n/a	n/a	n/a
3662614	RECOG_CONF	n/a	LTP144	ltpFR	2	4	0	TRIGGER	1507	5	1	n/a	n/a	n/a	n/a	n/a
3664462	RECOG_LURE	n/a	LTP144	ltpFR	2	4	n/a	TOENAIL	1474	5	n/a	n/a	n/a	n/a	n/a	n/a
3665545	RECOG_RESP	n/a	LTP144	ltpFR	2	4	n/a	TOENAIL	1474	n/a	n/a	n/a	n/a	n/a	n/a	n/a
3666977	RECOG_CONF	n/a	LTP144	ltpFR	2	4	n/a	TOENAIL	1474	5	n/a	n/a	n/a	n/a	n/a	n/a
3668686	RECOG_TARGET	n/a	LTP144	ltpFR	2	4	1	BRAKE	166	5	0	n/a	n/a	n/a	n/a	n/a
3669678	RECOG_RESP	n/a	LTP144	ltpFR	2	4	1	BRAKE	166	n/a	0	n/a	n/a	n/a	n/a	n/a
3671082	RECOG_CONF	n/a	LTP144	ltpFR	2	4	1	BRAKE	166	5	0	n/a	n/a	n/a	n/a	n/a
3672876	RECOG_LURE	n/a	LTP144	ltpFR	2	4	n/a	TONGUE	1479	5	n/a	n/a	n/a	n/a	n/a	n/a
3673753	RECOG_RESP	n/a	LTP144	ltpFR	2	4	n/a	TONGUE	1479	n/a	n/a	n/a	n/a	n/a	n/a	n/a
3675080	RECOG_CONF	n/a	LTP144	ltpFR	2	4	n/a	TONGUE	1479	5	n/a	n/a	n/a	n/a	n/a	n/a
3676858	RECOG_LURE	n/a	LTP144	ltpFR	2	4	n/a	SNAIL	1332	3	n/a	n/a	n/a	n/a	n/a	n/a
3681042	RECOG_RESP_VV	n/a	LTP144	ltpFR	2	4	n/a	SNAIL	1332	n/a	n/a	n/a	n/a	n/a	n/a	n/a
3681915	RECOG_RESP	n/a	LTP144	ltpFR	2	4	n/a	SNAIL	1332	n/a	n/a	n/a	n/a	n/a	n/a	n/a
3684064	RECOG_CONF	n/a	LTP144	ltpFR	2	4	n/a	SNAIL	1332	3	n/a	n/a	n/a	n/a	n/a	n/a
3685663	RECOG_LURE	n/a	LTP144	ltpFR	2	4	n/a	CARD	243	2	n/a	n/a	n/a	n/a	n/a	n/a
3687093	RECOG_RESP	n/a	LTP144	ltpFR	2	4	n/a	CARD	243	n/a	n/a	n/a	n/a	n/a	n/a	n/a
3688405	RECOG_CONF	n/a	LTP144	ltpFR	2	4	n/a	CARD	243	2	n/a	n/a	n/a	n/a	n/a	n/a
3690028	RECOG_TARGET	n/a	LTP144	ltpFR	2	4	0	WART	1590	5	0	n/a	n/a	n/a	n/a	n/a
3690923	RECOG_RESP	n/a	LTP144	ltpFR	2	4	0	WART	1590	n/a	0	n/a	n/a	n/a	n/a	n/a
3692301	RECOG_CONF	n/a	LTP144	ltpFR	2	4	0	WART	1590	5	0	n/a	n/a	n/a	n/a	n/a
3693910	RECOG_LURE	n/a	LTP144	ltpFR	2	4	n/a	ASSOCIATE	49	2	n/a	n/a	n/a	n/a	n/a	n/a
3694782	RECOG_RESP	n/a	LTP144	ltpFR	2	4	n/a	ASSOCIATE	49	n/a	n/a	n/a	n/a	n/a	n/a	n/a
3696162	RECOG_CONF	n/a	LTP144	ltpFR	2	4	n/a	ASSOCIATE	49	2	n/a	n/a	n/a	n/a	n/a	n/a
3697567	RECOG_TARGET	n/a	LTP144	ltpFR	2	4	0	LOCK	838	5	0	n/a	n/a	n/a	n/a	n/a
3698360	RECOG_RESP	n/a	LTP144	ltpFR	2	4	0	LOCK	838	n/a	0	n/a	n/a	n/a	n/a	n/a
3699578	RECOG_CONF	n/a	LTP144	ltpFR	2	4	0	LOCK	838	5	0	n/a	n/a	n/a	n/a	n/a
3701149	RECOG_LURE	n/a	LTP144	ltpFR	2	4	n/a	POLYESTER	1100	5	n/a	n/a	n/a	n/a	n/a	n/a
3701946	RECOG_RESP	n/a	LTP144	ltpFR	2	4	n/a	POLYESTER	1100	n/a	n/a	n/a	n/a	n/a	n/a	n/a
3703176	RECOG_CONF	n/a	LTP144	ltpFR	2	4	n/a	POLYESTER	1100	5	n/a	n/a	n/a	n/a	n/a	n/a
3704740	RECOG_LURE	n/a	LTP144	ltpFR	2	4	n/a	CHEST	295	2	n/a	n/a	n/a	n/a	n/a	n/a
3706216	RECOG_RESP	n/a	LTP144	ltpFR	2	4	n/a	CHEST	295	n/a	n/a	n/a	n/a	n/a	n/a	n/a
3708372	RECOG_CONF	n/a	LTP144	ltpFR	2	4	n/a	CHEST	295	2	n/a	n/a	n/a	n/a	n/a	n/a
3709880	RECOG_TARGET	n/a	LTP144	ltpFR	2	4	1	KITE	779	5	0	n/a	n/a	n/a	n/a	n/a
3710691	RECOG_RESP	n/a	LTP144	ltpFR	2	4	1	KITE	779	n/a	0	n/a	n/a	n/a	n/a	n/a
3712110	RECOG_CONF	n/a	LTP144	ltpFR	2	4	1	KITE	779	5	0	n/a	n/a	n/a	n/a	n/a
3713728	RECOG_TARGET	n/a	LTP144	ltpFR	2	4	1	TUBA	1515	4	0	n/a	n/a	n/a	n/a	n/a
3714508	RECOG_RESP	n/a	LTP144	ltpFR	2	4	1	TUBA	1515	n/a	0	n/a	n/a	n/a	n/a	n/a
3716154	RECOG_CONF	n/a	LTP144	ltpFR	2	4	1	TUBA	1515	4	0	n/a	n/a	n/a	n/a	n/a
3717793	RECOG_TARGET	n/a	LTP144	ltpFR	2	4	0	TOURIST	1488	5	1	n/a	n/a	n/a	n/a	n/a
3718563	RECOG_RESP	n/a	LTP144	ltpFR	2	4	0	TOURIST	1488	n/a	1	n/a	n/a	n/a	n/a	n/a
3720258	RECOG_CONF	n/a	LTP144	ltpFR	2	4	0	TOURIST	1488	5	1	n/a	n/a	n/a	n/a	n/a
3721659	RECOG_TARGET	n/a	LTP144	ltpFR	2	4	1	GRADUATE	653	5	1	n/a	n/a	n/a	n/a	n/a
3722432	RECOG_RESP	n/a	LTP144	ltpFR	2	4	1	GRADUATE	653	n/a	1	n/a	n/a	n/a	n/a	n/a
3723989	RECOG_CONF	n/a	LTP144	ltpFR	2	4	1	GRADUATE	653	5	1	n/a	n/a	n/a	n/a	n/a
3725625	RECOG_TARGET	n/a	LTP144	ltpFR	2	4	0	HIKER	708	1	1	n/a	n/a	n/a	n/a	n/a
3728991	RECOG_RESP	n/a	LTP144	ltpFR	2	4	0	HIKER	708	n/a	1	n/a	n/a	n/a	n/a	n/a
3731352	RECOG_CONF	n/a	LTP144	ltpFR	2	4	0	HIKER	708	1	1	n/a	n/a	n/a	n/a	n/a
3733263	RECOG_LURE	n/a	LTP144	ltpFR	2	4	n/a	KEY	773	2	n/a	n/a	n/a	n/a	n/a	n/a
3734456	RECOG_RESP	n/a	LTP144	ltpFR	2	4	n/a	KEY	773	n/a	n/a	n/a	n/a	n/a	n/a	n/a
3736027	RECOG_CONF	n/a	LTP144	ltpFR	2	4	n/a	KEY	773	2	n/a	n/a	n/a	n/a	n/a	n/a
3737436	RECOG_TARGET	n/a	LTP144	ltpFR	2	4	0	AIRPLANE	12	1	1	n/a	n/a	n/a	n/a	n/a
3738955	RECOG_RESP	n/a	LTP144	ltpFR	2	4	0	AIRPLANE	12	n/a	1	n/a	n/a	n/a	n/a	n/a
3740502	RECOG_CONF	n/a	LTP144	ltpFR	2	4	0	AIRPLANE	12	1	1	n/a	n/a	n/a	n/a	n/a
3756742	REC_START	n/a	LTP144	ltpFR	2	5	n/a	n/a	n/a	n/a	n/a	n/a	n/a	n/a	n/a	n/a
3756779	RECOG_TARGET	n/a	LTP144	ltpFR	2	5	1	WELL	1600	3	0	n/a	n/a	n/a	n/a	n/a
3757957	RECOG_RESP	n/a	LTP144	ltpFR	2	5	1	WELL	1600	n/a	0	n/a	n/a	n/a	n/a	n/a
3759594	RECOG_CONF	n/a	LTP144	ltpFR	2	5	1	WELL	1600	3	0	n/a	n/a	n/a	n/a	n/a
3761078	RECOG_LURE	n/a	LTP144	ltpFR	2	5	n/a	WINDSHIELD	1612	1	n/a	n/a	n/a	n/a	n/a	n/a
3762670	RECOG_RESP	n/a	LTP144	ltpFR	2	5	n/a	WINDSHIELD	1612	n/a	n/a	n/a	n/a	n/a	n/a	n/a
3764279	RECOG_CONF	n/a	LTP144	ltpFR	2	5	n/a	WINDSHIELD	1612	1	n/a	n/a	n/a	n/a	n/a	n/a
3765901	RECOG_TARGET	n/a	LTP144	ltpFR	2	5	1	JOURNAL	760	5	0	n/a	n/a	n/a	n/a	n/a
3766917	RECOG_RESP	n/a	LTP144	ltpFR	2	5	1	JOURNAL	760	n/a	0	n/a	n/a	n/a	n/a	n/a
3768381	RECOG_CONF	n/a	LTP144	ltpFR	2	5	1	JOURNAL	760	5	0	n/a	n/a	n/a	n/a	n/a
3770233	RECOG_LURE	n/a	LTP144	ltpFR	2	5	n/a	SCAPEGOAT	1244	5	n/a	n/a	n/a	n/a	n/a	n/a
3771116	RECOG_RESP	n/a	LTP144	ltpFR	2	5	n/a	SCAPEGOAT	1244	n/a	n/a	n/a	n/a	n/a	n/a	n/a
3772601	RECOG_CONF	n/a	LTP144	ltpFR	2	5	n/a	SCAPEGOAT	1244	5	n/a	n/a	n/a	n/a	n/a	n/a
3774182	RECOG_TARGET	n/a	LTP144	ltpFR	2	5	0	CHURCH	307	3	1	n/a	n/a	n/a	n/a	n/a
3775249	RECOG_RESP	n/a	LTP144	ltpFR	2	5	0	CHURCH	307	n/a	1	n/a	n/a	n/a	n/a	n/a
3777245	RECOG_CONF	n/a	LTP144	ltpFR	2	5	0	CHURCH	307	3	1	n/a	n/a	n/a	n/a	n/a
3778822	RECOG_TARGET	n/a	LTP144	ltpFR	2	5	0	SWING	1421	4	1	n/a	n/a	n/a	n/a	n/a
3780644	RECOG_RESP	n/a	LTP144	ltpFR	2	5	0	SWING	1421	n/a	1	n/a	n/a	n/a	n/a	n/a
3782207	RECOG_CONF	n/a	LTP144	ltpFR	2	5	0	SWING	1421	4	1	n/a	n/a	n/a	n/a	n/a
3783920	RECOG_TARGET	n/a	LTP144	ltpFR	2	5	-1	SHORTCAKE	1292	5	-1	n/a	n/a	n/a	n/a	n/a
3784896	RECOG_RESP	n/a	LTP144	ltpFR	2	5	-1	SHORTCAKE	1292	n/a	-1	n/a	n/a	n/a	n/a	n/a
3786379	RECOG_CONF	n/a	LTP144	ltpFR	2	5	-1	SHORTCAKE	1292	5	-1	n/a	n/a	n/a	n/a	n/a
3787877	RECOG_LURE	n/a	LTP144	ltpFR	2	5	n/a	SUBMARINE	1398	5	n/a	n/a	n/a	n/a	n/a	n/a
3788768	RECOG_RESP	n/a	LTP144	ltpFR	2	5	n/a	SUBMARINE	1398	n/a	n/a	n/a	n/a	n/a	n/a	n/a
3790595	RECOG_CONF	n/a	LTP144	ltpFR	2	5	n/a	SUBMARINE	1398	5	n/a	n/a	n/a	n/a	n/a	n/a
3792234	RECOG_TARGET	n/a	LTP144	ltpFR	2	5	-1	TRENCH	1503	5	-1	n/a	n/a	n/a	n/a	n/a
3793081	RECOG_RESP	n/a	LTP144	ltpFR	2	5	-1	TRENCH	1503	n/a	-1	n/a	n/a	n/a	n/a	n/a
3794486	RECOG_CONF	n/a	LTP144	ltpFR	2	5	-1	TRENCH	1503	5	-1	n/a	n/a	n/a	n/a	n/a
3796240	RECOG_TARGET	n/a	LTP144	ltpFR	2	5	-1	PAW	1029	5	-1	n/a	n/a	n/a	n/a	n/a
3796988	RECOG_RESP	n/a	LTP144	ltpFR	2	5	-1	PAW	1029	n/a	-1	n/a	n/a	n/a	n/a	n/a
3798532	RECOG_CONF	n/a	LTP144	ltpFR	2	5	-1	PAW	1029	5	-1	n/a	n/a	n/a	n/a	n/a
3800147	RECOG_TARGET	n/a	LTP144	ltpFR	2	5	1	VIRUS	1572	5	1	n/a	n/a	n/a	n/a	n/a
3800937	RECOG_RESP	n/a	LTP144	ltpFR	2	5	1	VIRUS	1572	n/a	1	n/a	n/a	n/a	n/a	n/a
3802477	RECOG_CONF	n/a	LTP144	ltpFR	2	5	1	VIRUS	1572	5	1	n/a	n/a	n/a	n/a	n/a
3804229	RECOG_TARGET	n/a	LTP144	ltpFR	2	5	0	NEWSSTAND	949	5	1	n/a	n/a	n/a	n/a	n/a
3805157	RECOG_RESP	n/a	LTP144	ltpFR	2	5	0	NEWSSTAND	949	n/a	1	n/a	n/a	n/a	n/a	n/a
3806672	RECOG_CONF	n/a	LTP144	ltpFR	2	5	0	NEWSSTAND	949	5	1	n/a	n/a	n/a	n/a	n/a
3808295	RECOG_TARGET	n/a	LTP144	ltpFR	2	5	1	JELLO	754	5	0	n/a	n/a	n/a	n/a	n/a
3809099	RECOG_RESP	n/a	LTP144	ltpFR	2	5	1	JELLO	754	n/a	0	n/a	n/a	n/a	n/a	n/a
3810642	RECOG_CONF	n/a	LTP144	ltpFR	2	5	1	JELLO	754	5	0	n/a	n/a	n/a	n/a	n/a
3812268	RECOG_LURE	n/a	LTP144	ltpFR	2	5	n/a	BROCCOLI	176	5	n/a	n/a	n/a	n/a	n/a	n/a
3813015	RECOG_RESP	n/a	LTP144	ltpFR	2	5	n/a	BROCCOLI	176	n/a	n/a	n/a	n/a	n/a	n/a	n/a
3814625	RECOG_CONF	n/a	LTP144	ltpFR	2	5	n/a	BROCCOLI	176	5	n/a	n/a	n/a	n/a	n/a	n/a
3816142	RECOG_TARGET	n/a	LTP144	ltpFR	2	5	1	DRIVER	499	1	1	n/a	n/a	n/a	n/a	n/a
3818165	RECOG_RESP	n/a	LTP144	ltpFR	2	5	1	DRIVER	499	n/a	1	n/a	n/a	n/a	n/a	n/a
3819765	RECOG_CONF	n/a	LTP144	ltpFR	2	5	1	DRIVER	499	1	1	n/a	n/a	n/a	n/a	n/a
3821448	RECOG_LURE	n/a	LTP144	ltpFR	2	5	n/a	JOINT	758	5	n/a	n/a	n/a	n/a	n/a	n/a
3822628	RECOG_RESP	n/a	LTP144	ltpFR	2	5	n/a	JOINT	758	n/a	n/a	n/a	n/a	n/a	n/a	n/a
3824203	RECOG_CONF	n/a	LTP144	ltpFR	2	5	n/a	JOINT	758	5	n/a	n/a	n/a	n/a	n/a	n/a
3825988	RECOG_TARGET	n/a	LTP144	ltpFR	2	5	0	PACKAGE	997	3	1	n/a	n/a	n/a	n/a	n/a
3828247	RECOG_RESP	n/a	LTP144	ltpFR	2	5	0	PACKAGE	997	n/a	1	n/a	n/a	n/a	n/a	n/a
3830759	RECOG_CONF	n/a	LTP144	ltpFR	2	5	0	PACKAGE	997	3	1	n/a	n/a	n/a	n/a	n/a
3832478	RECOG_TARGET	n/a	LTP144	ltpFR	2	5	-1	PAINTING	1005	5	-1	n/a	n/a	n/a	n/a	n/a
3833939	RECOG_RESP	n/a	LTP144	ltpFR	2	5	-1	PAINTING	1005	n/a	-1	n/a	n/a	n/a	n/a	n/a
3835598	RECOG_CONF	n/a	LTP144	ltpFR	2	5	-1	PAINTING	1005	5	-1	n/a	n/a	n/a	n/a	n/a
3837034	RECOG_TARGET	n/a	LTP144	ltpFR	2	5	0	WHEEL	1603	5	1	n/a	n/a	n/a	n/a	n/a
3837891	RECOG_RESP	n/a	LTP144	ltpFR	2	5	0	WHEEL	1603	n/a	1	n/a	n/a	n/a	n/a	n/a
3839451	RECOG_CONF	n/a	LTP144	ltpFR	2	5	0	WHEEL	1603	5	1	n/a	n/a	n/a	n/a	n/a
3841058	RECOG_LURE	n/a	LTP144	ltpFR	2	5	n/a	STAMP	1370	1	n/a	n/a	n/a	n/a	n/a	n/a
3842131	RECOG_RESP	n/a	LTP144	ltpFR	2	5	n/a	STAMP	1370	n/a	n/a	n/a	n/a	n/a	n/a	n/a
3843566	RECOG_CONF	n/a	LTP144	ltpFR	2	5	n/a	STAMP	1370	1	n/a	n/a	n/a	n/a	n/a	n/a
3854444	REC_START	n/a	LTP144	ltpFR	2	6	n/a	n/a	n/a	n/a	n/a	n/a	n/a	n/a	n/a	n/a
3854478	RECOG_TARGET	n/a	LTP144	ltpFR	2	6	1	HOSPITAL	721	3	0	n/a	n/a	n/a	n/a	n/a
3855749	RECOG_RESP	n/a	LTP144	ltpFR	2	6	1	HOSPITAL	721	n/a	0	n/a	n/a	n/a	n/a	n/a
3857176	RECOG_CONF	n/a	LTP144	ltpFR	2	6	1	HOSPITAL	721	3	0	n/a	n/a	n/a	n/a	n/a
3858586	RECOG_TARGET	n/a	LTP144	ltpFR	2	6	1	COUNTY	389	5	0	n/a	n/a	n/a	n/a	n/a
3859296	RECOG_RESP	n/a	LTP144	ltpFR	2	6	1	COUNTY	389	n/a	0	n/a	n/a	n/a	n/a	n/a
3860485	RECOG_CONF	n/a	LTP144	ltpFR	2	6	1	COUNTY	389	5	0	n/a	n/a	n/a	n/a	n/a
3862092	RECOG_LURE	n/a	LTP144	ltpFR	2	6	n/a	PORK	1108	2	n/a	n/a	n/a	n/a	n/a	n/a
3863014	RECOG_RESP	n/a	LTP144	ltpFR	2	6	n/a	PORK	1108	n/a	n/a	n/a	n/a	n/a	n/a	n/a
3864735	RECOG_CONF	n/a	LTP144	ltpFR	2	6	n/a	PORK	1108	2	n/a	n/a	n/a	n/a	n/a	n/a
3866216	RECOG_TARGET	n/a	LTP144	ltpFR	2	6	0	LOFT	840	5	1	n/a	n/a	n/a	n/a	n/a
3867032	RECOG_RESP	n/a	LTP144	ltpFR	2	6	0	LOFT	840	n/a	1	n/a	n/a	n/a	n/a	n/a
3868577	RECOG_CONF	n/a	LTP144	ltpFR	2	6	0	LOFT	840	5	1	n/a	n/a	n/a	n/a	n/a
3870223	RECOG_LURE	n/a	LTP144	ltpFR	2	6	n/a	FACE	547	2	n/a	n/a	n/a	n/a	n/a	n/a
3872132	RECOG_RESP	n/a	LTP144	ltpFR	2	6	n/a	FACE	547	n/a	n/a	n/a	n/a	n/a	n/a	n/a
3873835	RECOG_CONF	n/a	LTP144	ltpFR	2	6	n/a	FACE	547	2	n/a	n/a	n/a	n/a	n/a	n/a
3875446	RECOG_LURE	n/a	LTP144	ltpFR	2	6	n/a	UMPIRE	1535	4	n/a	n/a	n/a	n/a	n/a	n/a
3876878	RECOG_RESP	n/a	LTP144	ltpFR	2	6	n/a	UMPIRE	1535	n/a	n/a	n/a	n/a	n/a	n/a	n/a
3878425	RECOG_CONF	n/a	LTP144	ltpFR	2	6	n/a	UMPIRE	1535	4	n/a	n/a	n/a	n/a	n/a	n/a
3879969	RECOG_TARGET	n/a	LTP144	ltpFR	2	6	0	LIVER	833	5	0	n/a	n/a	n/a	n/a	n/a
3880820	RECOG_RESP	n/a	LTP144	ltpFR	2	6	0	LIVER	833	n/a	0	n/a	n/a	n/a	n/a	n/a
3882209	RECOG_CONF	n/a	LTP144	ltpFR	2	6	0	LIVER	833	5	0	n/a	n/a	n/a	n/a	n/a
3883959	RECOG_TARGET	n/a	LTP144	ltpFR	2	6	0	TAXI	1438	5	1	n/a	n/a	n/a	n/a	n/a
3884765	RECOG_RESP	n/a	LTP144	ltpFR	2	6	0	TAXI	1438	n/a	1	n/a	n/a	n/a	n/a	n/a
3886120	RECOG_CONF	n/a	LTP144	ltpFR	2	6	0	TAXI	1438	5	1	n/a	n/a	n/a	n/a	n/a
3887783	RECOG_TARGET	n/a	LTP144	ltpFR	2	6	-1	RUBY	1214	5	-1	n/a	n/a	n/a	n/a	n/a
3888620	RECOG_RESP	n/a	LTP144	ltpFR	2	6	-1	RUBY	1214	n/a	-1	n/a	n/a	n/a	n/a	n/a
3889925	RECOG_CONF	n/a	LTP144	ltpFR	2	6	-1	RUBY	1214	5	-1	n/a	n/a	n/a	n/a	n/a
3891632	RECOG_LURE	n/a	LTP144	ltpFR	2	6	n/a	WRENCH	1625	4	n/a	n/a	n/a	n/a	n/a	n/a
3892521	RECOG_RESP	n/a	LTP144	ltpFR	2	6	n/a	WRENCH	1625	n/a	n/a	n/a	n/a	n/a	n/a	n/a
3894298	RECOG_CONF	n/a	LTP144	ltpFR	2	6	n/a	WRENCH	1625	4	n/a	n/a	n/a	n/a	n/a	n/a
3895863	RECOG_TARGET	n/a	LTP144	ltpFR	2	6	0	CANDY	230	5	0	n/a	n/a	n/a	n/a	n/a
3896792	RECOG_RESP	n/a	LTP144	ltpFR	2	6	0	CANDY	230	n/a	0	n/a	n/a	n/a	n/a	n/a
3898158	RECOG_CONF	n/a	LTP144	ltpFR	2	6	0	CANDY	230	5	0	n/a	n/a	n/a	n/a	n/a
3899837	RECOG_LURE	n/a	LTP144	ltpFR	2	6	n/a	VOLUNTEER	1577	5	n/a	n/a	n/a	n/a	n/a	n/a
3900857	RECOG_RESP	n/a	LTP144	ltpFR	2	6	n/a	VOLUNTEER	1577	n/a	n/a	n/a	n/a	n/a	n/a	n/a
3902390	RECOG_CONF	n/a	LTP144	ltpFR	2	6	n/a	VOLUNTEER	1577	5	n/a	n/a	n/a	n/a	n/a	n/a
3904127	RECOG_LURE	n/a	LTP144	ltpFR	2	6	n/a	BRACELET	163	1	n/a	n/a	n/a	n/a	n/a	n/a
3905818	RECOG_RESP	n/a	LTP144	ltpFR	2	6	n/a	BRACELET	163	n/a	n/a	n/a	n/a	n/a	n/a	n/a
3907165	RECOG_CONF	n/a	LTP144	ltpFR	2	6	n/a	BRACELET	163	1	n/a	n/a	n/a	n/a	n/a	n/a
3908959	RECOG_TARGET	n/a	LTP144	ltpFR	2	6	1	CAKE	219	4	0	n/a	n/a	n/a	n/a	n/a
3910569	RECOG_RESP	n/a	LTP144	ltpFR	2	6	1	CAKE	219	n/a	0	n/a	n/a	n/a	n/a	n/a
3912146	RECOG_CONF	n/a	LTP144	ltpFR	2	6	1	CAKE	219	4	0	n/a	n/a	n/a	n/a	n/a
3913757	RECOG_LURE	n/a	LTP144	ltpFR	2	6	n/a	RELISH	1183	3	n/a	n/a	n/a	n/a	n/a	n/a
3914769	RECOG_RESP	n/a	LTP144	ltpFR	2	6	n/a	RELISH	1183	n/a	n/a	n/a	n/a	n/a	n/a	n/a
3916647	RECOG_CONF	n/a	LTP144	ltpFR	2	6	n/a	RELISH	1183	3	n/a	n/a	n/a	n/a	n/a	n/a
3918264	RECOG_TARGET	n/a	LTP144	ltpFR	2	6	-1	COOK	372	2	-1	n/a	n/a	n/a	n/a	n/a
3919256	RECOG_RESP	n/a	LTP144	ltpFR	2	6	-1	COOK	372	n/a	-1	n/a	n/a	n/a	n/a	n/a
3921264	RECOG_CONF	n/a	LTP144	ltpFR	2	6	-1	COOK	372	2	-1	n/a	n/a	n/a	n/a	n/a
3922837	RECOG_TARGET	n/a	LTP144	ltpFR	2	6	0	OX	994	3	1	n/a	n/a	n/a	n/a	n/a
3924177	RECOG_RESP	n/a	LTP144	ltpFR	2	6	0	OX	994	n/a	1	n/a	n/a	n/a	n/a	n/a
3927225	RECOG_CONF	n/a	LTP144	ltpFR	2	6	0	OX	994	3	1	n/a	n/a	n/a	n/a	n/a
3928793	RECOG_LURE	n/a	LTP144	ltpFR	2	6	n/a	NUCLEUS	961	5	n/a	n/a	n/a	n/a	n/a	n/a
3929913	RECOG_RESP	n/a	LTP144	ltpFR	2	6	n/a	NUCLEUS	961	n/a	n/a	n/a	n/a	n/a	n/a	n/a
3931561	RECOG_CONF	n/a	LTP144	ltpFR	2	6	n/a	NUCLEUS	961	5	n/a	n/a	n/a	n/a	n/a	n/a
3933233	RECOG_LURE	n/a	LTP144	ltpFR	2	6	n/a	PASTRY	1022	3	n/a	n/a	n/a	n/a	n/a	n/a
3935001	RECOG_RESP	n/a	LTP144	ltpFR	2	6	n/a	PASTRY	1022	n/a	n/a	n/a	n/a	n/a	n/a	n/a
3937094	RECOG_CONF	n/a	LTP144	ltpFR	2	6	n/a	PASTRY	1022	3	n/a	n/a	n/a	n/a	n/a	n/a
3938616	RECOG_LURE	n/a	LTP144	ltpFR	2	6	n/a	OBOE	969	5	n/a	n/a	n/a	n/a	n/a	n/a
3939755	RECOG_RESP	n/a	LTP144	ltpFR	2	6	n/a	OBOE	969	n/a	n/a	n/a	n/a	n/a	n/a	n/a
3941483	RECOG_CONF	n/a	LTP144	ltpFR	2	6	n/a	OBOE	969	5	n/a	n/a	n/a	n/a	n/a	n/a
3946336	REC_START	n/a	LTP144	ltpFR	2	7	n/a	n/a	n/a	n/a	n/a	n/a	n/a	n/a	n/a	n/a
3946371	RECOG_LURE	n/a	LTP144	ltpFR	2	7	n/a	NEUTRON	947	3	n/a	n/a	n/a	n/a	n/a	n/a
3947663	RECOG_RESP	n/a	LTP144	ltpFR	2	7	n/a	NEUTRON	947	n/a	n/a	n/a	n/a	n/a	n/a	n/a
3949254	RECOG_CONF	n/a	LTP144	ltpFR	2	7	n/a	NEUTRON	947	3	n/a	n/a	n/a	n/a	n/a	n/a
3950744	RECOG_LURE	n/a	LTP144	ltpFR	2	7	n/a	CABBAGE	210	3	n/a	n/a	n/a	n/a	n/a	n/a
3951597	RECOG_RESP	n/a	LTP144	ltpFR	2	7	n/a	CABBAGE	210	n/a	n/a	n/a	n/a	n/a	n/a	n/a
3953105	RECOG_CONF	n/a	LTP144	ltpFR	2	7	n/a	CABBAGE	210	3	n/a	n/a	n/a	n/a	n/a	n/a
3954568	RECOG_LURE	n/a	LTP144	ltpFR	2	7	n/a	TWIN	1528	5	n/a	n/a	n/a	n/a	n/a	n/a
3955388	RECOG_RESP	n/a	LTP144	ltpFR	2	7	n/a	TWIN	1528	n/a	n/a	n/a	n/a	n/a	n/a	n/a
3957076	RECOG_CONF	n/a	LTP144	ltpFR	2	7	n/a	TWIN	1528	5	n/a	n/a	n/a	n/a	n/a	n/a
3958641	RECOG_TARGET	n/a	LTP144	ltpFR	2	7	0	JUG	762	5	1	n/a	n/a	n/a	n/a	n/a
3959573	RECOG_RESP	n/a	LTP144	ltpFR	2	7	0	JUG	762	n/a	1	n/a	n/a	n/a	n/a	n/a
3961064	RECOG_CONF	n/a	LTP144	ltpFR	2	7	0	JUG	762	5	1	n/a	n/a	n/a	n/a	n/a
3962756	RECOG_TARGET	n/a	LTP144	ltpFR	2	7	0	SWAMP	1416	5	1	n/a	n/a	n/a	n/a	n/a
3963527	RECOG_RESP	n/a	LTP144	ltpFR	2	7	0	SWAMP	1416	n/a	1	n/a	n/a	n/a	n/a	n/a
3965268	RECOG_CONF	n/a	LTP144	ltpFR	2	7	0	SWAMP	1416	5	1	n/a	n/a	n/a	n/a	n/a
3966888	RECOG_LURE	n/a	LTP144	ltpFR	2	7	n/a	GORILLA	650	5	n/a	n/a	n/a	n/a	n/a	n/a
3967774	RECOG_RESP	n/a	LTP144	ltpFR	2	7	n/a	GORILLA	650	n/a	n/a	n/a	n/a	n/a	n/a	n/a
3969420	RECOG_CONF	n/a	LTP144	ltpFR	2	7	n/a	GORILLA	650	5	n/a	n/a	n/a	n/a	n/a	n/a
3971037	RECOG_TARGET	n/a	LTP144	ltpFR	2	7	-1	PARTNER	1017	5	-1	n/a	n/a	n/a	n/a	n/a
3971872	RECOG_RESP	n/a	LTP144	ltpFR	2	7	-1	PARTNER	1017	n/a	-1	n/a	n/a	n/a	n/a	n/a
3973336	RECOG_CONF	n/a	LTP144	ltpFR	2	7	-1	PARTNER	1017	5	-1	n/a	n/a	n/a	n/a	n/a
3975019	RECOG_TARGET	n/a	LTP144	ltpFR	2	7	-1	QUILT	1151	5	-1	n/a	n/a	n/a	n/a	n/a
3975730	RECOG_RESP	n/a	LTP144	ltpFR	2	7	-1	QUILT	1151	n/a	-1	n/a	n/a	n/a	n/a	n/a
3977139	RECOG_CONF	n/a	LTP144	ltpFR	2	7	-1	QUILT	1151	5	-1	n/a	n/a	n/a	n/a	n/a
3978651	RECOG_LURE	n/a	LTP144	ltpFR	2	7	n/a	GOLD	647	3	n/a	n/a	n/a	n/a	n/a	n/a
3980344	RECOG_RESP	n/a	LTP144	ltpFR	2	7	n/a	GOLD	647	n/a	n/a	n/a	n/a	n/a	n/a	n/a
3981928	RECOG_CONF	n/a	LTP144	ltpFR	2	7	n/a	GOLD	647	3	n/a	n/a	n/a	n/a	n/a	n/a
3983574	RECOG_LURE	n/a	LTP144	ltpFR	2	7	n/a	SCOUT	1252	3	n/a	n/a	n/a	n/a	n/a	n/a
3985265	RECOG_RESP	n/a	LTP144	ltpFR	2	7	n/a	SCOUT	1252	n/a	n/a	n/a	n/a	n/a	n/a	n/a
3987316	RECOG_CONF	n/a	LTP144	ltpFR	2	7	n/a	SCOUT	1252	3	n/a	n/a	n/a	n/a	n/a	n/a
3988964	RECOG_TARGET	n/a	LTP144	ltpFR	2	7	-1	BREAD	170	4	-1	n/a	n/a	n/a	n/a	n/a
3989921	RECOG_RESP	n/a	LTP144	ltpFR	2	7	-1	BREAD	170	n/a	-1	n/a	n/a	n/a	n/a	n/a
3991746	RECOG_CONF	n/a	LTP144	ltpFR	2	7	-1	BREAD	170	4	-1	n/a	n/a	n/a	n/a	n/a
3993379	RECOG_LURE	n/a	LTP144	ltpFR	2	7	n/a	TAR	1435	5	n/a	n/a	n/a	n/a	n/a	n/a
3994382	RECOG_RESP	n/a	LTP144	ltpFR	2	7	n/a	TAR	1435	n/a	n/a	n/a	n/a	n/a	n/a	n/a
3995853	RECOG_CONF	n/a	LTP144	ltpFR	2	7	n/a	TAR	1435	5	n/a	n/a	n/a	n/a	n/a	n/a
3997477	RECOG_LURE	n/a	LTP144	ltpFR	2	7	n/a	CORK	380	3	n/a	n/a	n/a	n/a	n/a	n/a
3998615	RECOG_RESP	n/a	LTP144	ltpFR	2	7	n/a	CORK	380	n/a	n/a	n/a	n/a	n/a	n/a	n/a
4000398	RECOG_CONF	n/a	LTP144	ltpFR	2	7	n/a	CORK	380	3	n/a	n/a	n/a	n/a	n/a	n/a
4001959	RECOG_TARGET	n/a	LTP144	ltpFR	2	7	-1	NUN	962	5	-1	n/a	n/a	n/a	n/a	n/a
4002837	RECOG_RESP	n/a	LTP144	ltpFR	2	7	-1	NUN	962	n/a	-1	n/a	n/a	n/a	n/a	n/a
4004528	RECOG_CONF	n/a	LTP144	ltpFR	2	7	-1	NUN	962	5	-1	n/a	n/a	n/a	n/a	n/a
4006482	RECOG_TARGET	n/a	LTP144	ltpFR	2	7	0	RIVER	1194	5	1	n/a	n/a	n/a	n/a	n/a
4007238	RECOG_RESP	n/a	LTP144	ltpFR	2	7	0	RIVER	1194	n/a	1	n/a	n/a	n/a	n/a	n/a
4009078	RECOG_CONF	n/a	LTP144	ltpFR	2	7	0	RIVER	1194	5	1	n/a	n/a	n/a	n/a	n/a
4010656	RECOG_LURE	n/a	LTP144	ltpFR	2	7	n/a	EMPEROR	529	3	n/a	n/a	n/a	n/a	n/a	n/a
4012855	RECOG_RESP	n/a	LTP144	ltpFR	2	7	n/a	EMPEROR	529	n/a	n/a	n/a	n/a	n/a	n/a	n/a
4014905	RECOG_CONF	n/a	LTP144	ltpFR	2	7	n/a	EMPEROR	529	3	n/a	n/a	n/a	n/a	n/a	n/a
4016371	RECOG_TARGET	n/a	LTP144	ltpFR	2	7	0	BEDROOM	111	5	1	n/a	n/a	n/a	n/a	n/a
4017216	RECOG_RESP	n/a	LTP144	ltpFR	2	7	0	BEDROOM	111	n/a	1	n/a	n/a	n/a	n/a	n/a
4018886	RECOG_CONF	n/a	LTP144	ltpFR	2	7	0	BEDROOM	111	5	1	n/a	n/a	n/a	n/a	n/a
4020511	RECOG_LURE	n/a	LTP144	ltpFR	2	7	n/a	SHIP	1286	5	n/a	n/a	n/a	n/a	n/a	n/a
4021344	RECOG_RESP	n/a	LTP144	ltpFR	2	7	n/a	SHIP	1286	n/a	n/a	n/a	n/a	n/a	n/a	n/a
4022753	RECOG_CONF	n/a	LTP144	ltpFR	2	7	n/a	SHIP	1286	5	n/a	n/a	n/a	n/a	n/a	n/a
4024484	RECOG_LURE	n/a	LTP144	ltpFR	2	7	n/a	JUVENILE	767	1	n/a	n/a	n/a	n/a	n/a	n/a
4028631	RECOG_RESP	n/a	LTP144	ltpFR	2	7	n/a	JUVENILE	767	n/a	n/a	n/a	n/a	n/a	n/a	n/a
4030533	RECOG_CONF	n/a	LTP144	ltpFR	2	7	n/a	JUVENILE	767	1	n/a	n/a	n/a	n/a	n/a	n/a
4032215	RECOG_LURE	n/a	LTP144	ltpFR	2	7	n/a	SNEAKER	1334	5	n/a	n/a	n/a	n/a	n/a	n/a
4033336	RECOG_RESP	n/a	LTP144	ltpFR	2	7	n/a	SNEAKER	1334	n/a	n/a	n/a	n/a	n/a	n/a	n/a
4034776	RECOG_CONF	n/a	LTP144	ltpFR	2	7	n/a	SNEAKER	1334	5	n/a	n/a	n/a	n/a	n/a	n/a
4073684	REC_START	n/a	LTP144	ltpFR	2	8	n/a	n/a	n/a	n/a	n/a	n/a	n/a	n/a	n/a	n/a
4073717	RECOG_TARGET	n/a	LTP144	ltpFR	2	8	1	BUTTERFLY	206	5	1	n/a	n/a	n/a	n/a	n/a
4074643	RECOG_RESP	n/a	LTP144	ltpFR	2	8	1	BUTTERFLY	206	n/a	1	n/a	n/a	n/a	n/a	n/a
4075965	RECOG_CONF	n/a	LTP144	ltpFR	2	8	1	BUTTERFLY	206	5	1	n/a	n/a	n/a	n/a	n/a
4077441	RECOG_LURE	n/a	LTP144	ltpFR	2	8	n/a	OUTFIT	988	5	n/a	n/a	n/a	n/a	n/a	n/a
4078308	RECOG_RESP	n/a	LTP144	ltpFR	2	8	n/a	OUTFIT	988	n/a	n/a	n/a	n/a	n/a	n/a	n/a
4079665	RECOG_CONF	n/a	LTP144	ltpFR	2	8	n/a	OUTFIT	988	5	n/a	n/a	n/a	n/a	n/a	n/a
4081023	RECOG_LURE	n/a	LTP144	ltpFR	2	8	n/a	NEPHEW	942	5	n/a	n/a	n/a	n/a	n/a	n/a
4081898	RECOG_RESP	n/a	LTP144	ltpFR	2	8	n/a	NEPHEW	942	n/a	n/a	n/a	n/a	n/a	n/a	n/a
4083111	RECOG_CONF	n/a	LTP144	ltpFR	2	8	n/a	NEPHEW	942	5	n/a	n/a	n/a	n/a	n/a	n/a
4084771	RECOG_LURE	n/a	LTP144	ltpFR	2	8	n/a	RAKE	1164	5	n/a	n/a	n/a	n/a	n/a	n/a
4085604	RECOG_RESP	n/a	LTP144	ltpFR	2	8	n/a	RAKE	1164	n/a	n/a	n/a	n/a	n/a	n/a	n/a
4087118	RECOG_CONF	n/a	LTP144	ltpFR	2	8	n/a	RAKE	1164	5	n/a	n/a	n/a	n/a	n/a	n/a
4088703	RECOG_LURE	n/a	LTP144	ltpFR	2	8	n/a	DOCUMENT	479	5	n/a	n/a	n/a	n/a	n/a	n/a
4089552	RECOG_RESP	n/a	LTP144	ltpFR	2	8	n/a	DOCUMENT	479	n/a	n/a	n/a	n/a	n/a	n/a	n/a
4090999	RECOG_CONF	n/a	LTP144	ltpFR	2	8	n/a	DOCUMENT	479	5	n/a	n/a	n/a	n/a	n/a	n/a
4092594	RECOG_LURE	n/a	LTP144	ltpFR	2	8	n/a	UTENSIL	1542	5	n/a	n/a	n/a	n/a	n/a	n/a
4093355	RECOG_RESP	n/a	LTP144	ltpFR	2	8	n/a	UTENSIL	1542	n/a	n/a	n/a	n/a	n/a	n/a	n/a
4094941	RECOG_CONF	n/a	LTP144	ltpFR	2	8	n/a	UTENSIL	1542	5	n/a	n/a	n/a	n/a	n/a	n/a
4096467	RECOG_TARGET	n/a	LTP144	ltpFR	2	8	0	NICOTINE	951	5	0	n/a	n/a	n/a	n/a	n/a
4097229	RECOG_RESP	n/a	LTP144	ltpFR	2	8	0	NICOTINE	951	n/a	0	n/a	n/a	n/a	n/a	n/a
4098812	RECOG_CONF	n/a	LTP144	ltpFR	2	8	0	NICOTINE	951	5	0	n/a	n/a	n/a	n/a	n/a
4100158	RECOG_TARGET	n/a	LTP144	ltpFR	2	8	1	ROPE	1211	5	0	n/a	n/a	n/a	n/a	n/a
4100994	RECOG_RESP	n/a	LTP144	ltpFR	2	8	1	ROPE	1211	n/a	0	n/a	n/a	n/a	n/a	n/a
4102390	RECOG_CONF	n/a	LTP144	ltpFR	2	8	1	ROPE	1211	5	0	n/a	n/a	n/a	n/a	n/a
4103865	RECOG_LURE	n/a	LTP144	ltpFR	2	8	n/a	RIBBON	1189	5	n/a	n/a	n/a	n/a	n/a	n/a
4104660	RECOG_RESP	n/a	LTP144	ltpFR	2	8	n/a	RIBBON	1189	n/a	n/a	n/a	n/a	n/a	n/a	n/a
4105945	RECOG_CONF	n/a	LTP144	ltpFR	2	8	n/a	RIBBON	1189	5	n/a	n/a	n/a	n/a	n/a	n/a
4107598	RECOG_LURE	n/a	LTP144	ltpFR	2	8	n/a	VENUS	1557	5	n/a	n/a	n/a	n/a	n/a	n/a
4108669	RECOG_RESP	n/a	LTP144	ltpFR	2	8	n/a	VENUS	1557	n/a	n/a	n/a	n/a	n/a	n/a	n/a
4110126	RECOG_CONF	n/a	LTP144	ltpFR	2	8	n/a	VENUS	1557	5	n/a	n/a	n/a	n/a	n/a	n/a
4111653	RECOG_LURE	n/a	LTP144	ltpFR	2	8	n/a	APPENDAGE	32	5	n/a	n/a	n/a	n/a	n/a	n/a
4112760	RECOG_RESP	n/a	LTP144	ltpFR	2	8	n/a	APPENDAGE	32	n/a	n/a	n/a	n/a	n/a	n/a	n/a
4114387	RECOG_CONF	n/a	LTP144	ltpFR	2	8	n/a	APPENDAGE	32	5	n/a	n/a	n/a	n/a	n/a	n/a
4116018	RECOG_TARGET	n/a	LTP144	ltpFR	2	8	1	PORT	1110	5	0	n/a	n/a	n/a	n/a	n/a
4116819	RECOG_RESP	n/a	LTP144	ltpFR	2	8	1	PORT	1110	n/a	0	n/a	n/a	n/a	n/a	n/a
4118262	RECOG_CONF	n/a	LTP144	ltpFR	2	8	1	PORT	1110	5	0	n/a	n/a	n/a	n/a	n/a
4119784	RECOG_LURE	n/a	LTP144	ltpFR	2	8	n/a	CURTAIN	427	5	n/a	n/a	n/a	n/a	n/a	n/a
4120570	RECOG_RESP	n/a	LTP144	ltpFR	2	8	n/a	CURTAIN	427	n/a	n/a	n/a	n/a	n/a	n/a	n/a
4122159	RECOG_CONF	n/a	LTP144	ltpFR	2	8	n/a	CURTAIN	427	5	n/a	n/a	n/a	n/a	n/a	n/a
4123682	RECOG_LURE	n/a	LTP144	ltpFR	2	8	n/a	TEA	1439	2	n/a	n/a	n/a	n/a	n/a	n/a
4125217	RECOG_RESP	n/a	LTP144	ltpFR	2	8	n/a	TEA	1439	n/a	n/a	n/a	n/a	n/a	n/a	n/a
4126768	RECOG_CONF	n/a	LTP144	ltpFR	2	8	n/a	TEA	1439	2	n/a	n/a	n/a	n/a	n/a	n/a
4128306	RECOG_LURE	n/a	LTP144	ltpFR	2	8	n/a	GRAVE	658	4	n/a	n/a	n/a	n/a	n/a	n/a
4129108	RECOG_RESP	n/a	LTP144	ltpFR	2	8	n/a	GRAVE	658	n/a	n/a	n/a	n/a	n/a	n/a	n/a
4131059	RECOG_CONF	n/a	LTP144	ltpFR	2	8	n/a	GRAVE	658	4	n/a	n/a	n/a	n/a	n/a	n/a
4132688	RECOG_LURE	n/a	LTP144	ltpFR	2	8	n/a	ROOF	1205	1	n/a	n/a	n/a	n/a	n/a	n/a
4134102	RECOG_RESP	n/a	LTP144	ltpFR	2	8	n/a	ROOF	1205	n/a	n/a	n/a	n/a	n/a	n/a	n/a
4135470	RECOG_CONF	n/a	LTP144	ltpFR	2	8	n/a	ROOF	1205	1	n/a	n/a	n/a	n/a	n/a	n/a
4137028	RECOG_LURE	n/a	LTP144	ltpFR	2	8	n/a	SURVEY	1414	5	n/a	n/a	n/a	n/a	n/a	n/a
4137813	RECOG_RESP	n/a	LTP144	ltpFR	2	8	n/a	SURVEY	1414	n/a	n/a	n/a	n/a	n/a	n/a	n/a
4139219	RECOG_CONF	n/a	LTP144	ltpFR	2	8	n/a	SURVEY	1414	5	n/a	n/a	n/a	n/a	n/a	n/a
4140835	RECOG_TARGET	n/a	LTP144	ltpFR	2	8	1	DRIVEWAY	500	1	0	n/a	n/a	n/a	n/a	n/a
4142097	RECOG_RESP	n/a	LTP144	ltpFR	2	8	1	DRIVEWAY	500	n/a	0	n/a	n/a	n/a	n/a	n/a
4145506	RECOG_CONF	n/a	LTP144	ltpFR	2	8	1	DRIVEWAY	500	1	0	n/a	n/a	n/a	n/a	n/a
4147057	RECOG_LURE	n/a	LTP144	ltpFR	2	8	n/a	FUDGE	611	5	n/a	n/a	n/a	n/a	n/a	n/a
4148066	RECOG_RESP	n/a	LTP144	ltpFR	2	8	n/a	FUDGE	611	n/a	n/a	n/a	n/a	n/a	n/a	n/a
4150068	RECOG_CONF	n/a	LTP144	ltpFR	2	8	n/a	FUDGE	611	5	n/a	n/a	n/a	n/a	n/a	n/a
4151789	RECOG_TARGET	n/a	LTP144	ltpFR	2	8	0	SCRIBBLE	1256	5	0	n/a	n/a	n/a	n/a	n/a
4152652	RECOG_RESP	n/a	LTP144	ltpFR	2	8	0	SCRIBBLE	1256	n/a	0	n/a	n/a	n/a	n/a	n/a
4154094	RECOG_CONF	n/a	LTP144	ltpFR	2	8	0	SCRIBBLE	1256	5	0	n/a	n/a	n/a	n/a	n/a
4163125	REC_START	n/a	LTP144	ltpFR	2	9	n/a	n/a	n/a	n/a	n/a	n/a	n/a	n/a	n/a	n/a
4163160	RECOG_TARGET	n/a	LTP144	ltpFR	2	9	0	COOKIE	374	5	0	n/a	n/a	n/a	n/a	n/a
4164688	RECOG_RESP	n/a	LTP144	ltpFR	2	9	0	COOKIE	374	n/a	0	n/a	n/a	n/a	n/a	n/a
4165981	RECOG_CONF	n/a	LTP144	ltpFR	2	9	0	COOKIE	374	5	0	n/a	n/a	n/a	n/a	n/a
4167609	RECOG_LURE	n/a	LTP144	ltpFR	2	9	n/a	CAFETERIA	217	5	n/a	n/a	n/a	n/a	n/a	n/a
4168667	RECOG_RESP	n/a	LTP144	ltpFR	2	9	n/a	CAFETERIA	217	n/a	n/a	n/a	n/a	n/a	n/a	n/a
4170065	RECOG_CONF	n/a	LTP144	ltpFR	2	9	n/a	CAFETERIA	217	5	n/a	n/a	n/a	n/a	n/a	n/a
4171540	RECOG_LURE	n/a	LTP144	ltpFR	2	9	n/a	LITTER	832	3	n/a	n/a	n/a	n/a	n/a	n/a
4172591	RECOG_RESP	n/a	LTP144	ltpFR	2	9	n/a	LITTER	832	n/a	n/a	n/a	n/a	n/a	n/a	n/a
4173989	RECOG_CONF	n/a	LTP144	ltpFR	2	9	n/a	LITTER	832	3	n/a	n/a	n/a	n/a	n/a	n/a
4175322	RECOG_TARGET	n/a	LTP144	ltpFR	2	9	-1	SHOWER	1296	5	-1	n/a	n/a	n/a	n/a	n/a
4176138	RECOG_RESP	n/a	LTP144	ltpFR	2	9	-1	SHOWER	1296	n/a	-1	n/a	n/a	n/a	n/a	n/a
4177434	RECOG_CONF	n/a	LTP144	ltpFR	2	9	-1	SHOWER	1296	5	-1	n/a	n/a	n/a	n/a	n/a
4178963	RECOG_TARGET	n/a	LTP144	ltpFR	2	9	-1	MONASTERY	907	5	-1	n/a	n/a	n/a	n/a	n/a
4180076	RECOG_RESP	n/a	LTP144	ltpFR	2	9	-1	MONASTERY	907	n/a	-1	n/a	n/a	n/a	n/a	n/a
4181648	RECOG_CONF	n/a	LTP144	ltpFR	2	9	-1	MONASTERY	907	5	-1	n/a	n/a	n/a	n/a	n/a
4183203	RECOG_TARGET	n/a	LTP144	ltpFR	2	9	1	PLAID	1080	5	0	n/a	n/a	n/a	n/a	n/a
4184174	RECOG_RESP	n/a	LTP144	ltpFR	2	9	1	PLAID	1080	n/a	0	n/a	n/a	n/a	n/a	n/a
4185692	RECOG_CONF	n/a	LTP144	ltpFR	2	9	1	PLAID	1080	5	0	n/a	n/a	n/a	n/a	n/a
4187185	RECOG_LURE	n/a	LTP144	ltpFR	2	9	n/a	CONCRETE	361	2	n/a	n/a	n/a	n/a	n/a	n/a
