onset	duration	trial_type	sample	stim_file	subject	experiment	session	trial	task	item_name	item_num	recog_resp	recog_conf	resp	color_r	color_g	color_b	case	font
246.47	n/a	SESS_START	123235	n/a	LTP097	ltpFR	2	n/a	n/a	n/a	n/a	0	5	n/a	n/a	n/a	n/a	n/a	n/a
342.064	n/a	WORD	171032	wordpools/wasnorm_wordpool.txt	LTP097	ltpFR	2	1	1	SECRETARY	1265	1	n/a	3	0.57763671875	0.412841796875	1	lower	zerothre.ttf
343.064	n/a	KEY_MSG	171532	n/a	LTP097	ltpFR	2	1	n/a	n/a	n/a	n/a	n/a	n/a	n/a	n/a	n/a	n/a	n/a
345.876	n/a	WORD	172938	wordpools/wasnorm_wordpool.txt	LTP097	ltpFR	2	1	1	BAIT	70	n/a	n/a	0	0.57763671875	0.412841796875	1	lower	zerothre.ttf
349.698	n/a	WORD	174849	wordpools/wasnorm_wordpool.txt	LTP097	ltpFR	2	1	1	APPLE	33	n/a	n/a	0	0.57763671875	0.412841796875	1	lower	zerothre.ttf
353.686	n/a	WORD	176843	wordpools/wasnorm_wordpool.txt	LTP097	ltpFR	2	1	0	PENNY	1045	n/a	n/a	0	0.422607421875	0.5869140625	0	upper	amplitud.ttf
357.622	n/a	WORD	178811	wordpools/wasnorm_wordpool.txt	LTP097	ltpFR	2	1	0	LANDSCAPE	799	n/a	n/a	1	0.422607421875	0.5869140625	0	upper	amplitud.ttf
361.434	n/a	WORD	180717	wordpools/wasnorm_wordpool.txt	LTP097	ltpFR	2	1	0	GORILLA	650	n/a	n/a	0	0.422607421875	0.5869140625	0	upper	amplitud.ttf
365.414	n/a	WORD	182707	wordpools/wasnorm_wordpool.txt	LTP097	ltpFR	2	1	0	JUNGLE	764	n/a	n/a	0	0.422607421875	0.5869140625	0	upper	amplitud.ttf
369.442	n/a	WORD	184721	wordpools/wasnorm_wordpool.txt	LTP097	ltpFR	2	1	1	CHEF	290	n/a	n/a	1	0.57763671875	0.412841796875	1	lower	zerothre.ttf
373.588	n/a	WORD	186794	wordpools/wasnorm_wordpool.txt	LTP097	ltpFR	2	1	1	ZUCCHINI	1638	n/a	n/a	0	0.57763671875	0.412841796875	1	lower	zerothre.ttf
377.674	n/a	WORD	188837	wordpools/wasnorm_wordpool.txt	LTP097	ltpFR	2	1	1	SPINACH	1352	n/a	n/a	1	0.57763671875	0.412841796875	1	lower	zerothre.ttf
381.818	n/a	WORD	190909	wordpools/wasnorm_wordpool.txt	LTP097	ltpFR	2	1	1	DILL	465	n/a	n/a	1	0.57763671875	0.412841796875	1	lower	zerothre.ttf
385.98	n/a	WORD	192990	wordpools/wasnorm_wordpool.txt	LTP097	ltpFR	2	1	1	CHERRY	293	n/a	n/a	1	0.57763671875	0.412841796875	1	lower	zerothre.ttf
390.116	n/a	WORD	195058	wordpools/wasnorm_wordpool.txt	LTP097	ltpFR	2	1	0	TECHNICIAN	1443	n/a	n/a	0	0.422607421875	0.5869140625	0	upper	amplitud.ttf
394.264	n/a	WORD	197132	wordpools/wasnorm_wordpool.txt	LTP097	ltpFR	2	1	0	CAVITY	264	n/a	n/a	1	0.422607421875	0.5869140625	0	upper	amplitud.ttf
398.424	n/a	WORD	199212	wordpools/wasnorm_wordpool.txt	LTP097	ltpFR	2	1	0	PEAR	1033	n/a	n/a	1	0.422607421875	0.5869140625	0	upper	amplitud.ttf
402.278	n/a	WORD	201139	wordpools/wasnorm_wordpool.txt	LTP097	ltpFR	2	1	0	PIE	1062	n/a	n/a	0	0.422607421875	0.5869140625	0	upper	amplitud.ttf
407.988	n/a	REC_START	203994	n/a	LTP097	ltpFR	2	1	n/a	n/a	n/a	n/a	n/a	n/a	n/a	n/a	n/a	n/a	n/a
408.942	n/a	REC_WORD	204471	wordpools/wasnorm_wordpool.txt	LTP097	ltpFR	2	1	0	PEAR	1033	n/a	n/a	1	n/a	n/a	n/a	n/a	n/a
409.624	n/a	REC_WORD	204812	wordpools/wasnorm_wordpool.txt	LTP097	ltpFR	2	1	0	PIE	1062	n/a	n/a	0	n/a	n/a	n/a	n/a	n/a
410.458	n/a	REC_WORD	205229	wordpools/wasnorm_wordpool.txt	LTP097	ltpFR	2	1	1	APPLE	33	n/a	n/a	0	n/a	n/a	n/a	n/a	n/a
411.76	n/a	REC_WORD	205880	wordpools/wasnorm_wordpool.txt	LTP097	ltpFR	2	1	1	DILL	465	n/a	n/a	1	n/a	n/a	n/a	n/a	n/a
412.178	n/a	REC_WORD	206089	wordpools/wasnorm_wordpool.txt	LTP097	ltpFR	2	1	1	CHEF	290	n/a	n/a	1	n/a	n/a	n/a	n/a	n/a
414.928	n/a	REC_WORD	207464	wordpools/wasnorm_wordpool.txt	LTP097	ltpFR	2	1	1	SECRETARY	1265	n/a	n/a	3	n/a	n/a	n/a	n/a	n/a
428.568	n/a	REC_WORD	214284	wordpools/wasnorm_wordpool.txt	LTP097	ltpFR	2	1	n/a	CARROT	249	n/a	n/a	n/a	n/a	n/a	n/a	n/a	n/a
432.918	n/a	REC_WORD	216459	wordpools/wasnorm_wordpool.txt	LTP097	ltpFR	2	1	0	GORILLA	650	n/a	n/a	0	n/a	n/a	n/a	n/a	n/a
454.524	n/a	REC_WORD	227262	wordpools/wasnorm_wordpool.txt	LTP097	ltpFR	2	1	1	APPLE	33	n/a	n/a	0	n/a	n/a	n/a	n/a	n/a
460.426	n/a	REC_WORD	230213	wordpools/wasnorm_wordpool.txt	LTP097	ltpFR	2	1	0	JUNGLE	764	n/a	n/a	0	n/a	n/a	n/a	n/a	n/a
463.692	n/a	REC_WORD	231846	wordpools/wasnorm_wordpool.txt	LTP097	ltpFR	2	1	1	CHERRY	293	n/a	n/a	1	n/a	n/a	n/a	n/a	n/a
491.336	n/a	WORD	245668	wordpools/wasnorm_wordpool.txt	LTP097	ltpFR	2	2	0	BLACKBERRY	132	n/a	n/a	0	0.422607421875	0.5869140625	0	upper	amplitud.ttf
495.172	n/a	WORD	247586	wordpools/wasnorm_wordpool.txt	LTP097	ltpFR	2	2	0	VIDEO	1564	n/a	n/a	0	0.422607421875	0.5869140625	0	upper	amplitud.ttf
499.084	n/a	WORD	249542	wordpools/wasnorm_wordpool.txt	LTP097	ltpFR	2	2	1	HEN	703	n/a	n/a	1	0.57763671875	0.412841796875	1	lower	zerothre.ttf
503.196	n/a	WORD	251598	wordpools/wasnorm_wordpool.txt	LTP097	ltpFR	2	2	1	SEA	1259	n/a	n/a	0	0.57763671875	0.412841796875	1	lower	zerothre.ttf
507.084	n/a	WORD	253542	wordpools/wasnorm_wordpool.txt	LTP097	ltpFR	2	2	1	SQUID	1361	n/a	n/a	1	0.57763671875	0.412841796875	1	lower	zerothre.ttf
511.078	n/a	WORD	255539	wordpools/wasnorm_wordpool.txt	LTP097	ltpFR	2	2	1	GUITAR	670	n/a	n/a	0	0.57763671875	0.412841796875	1	lower	zerothre.ttf
515.082	n/a	WORD	257541	wordpools/wasnorm_wordpool.txt	LTP097	ltpFR	2	2	0	INTESTINE	742	n/a	n/a	3	0.422607421875	0.5869140625	0	upper	amplitud.ttf
515.69	n/a	KEY_MSG	257845	n/a	LTP097	ltpFR	2	2	n/a	n/a	n/a	n/a	n/a	n/a	n/a	n/a	n/a	n/a	n/a
519.202	n/a	WORD	259601	wordpools/wasnorm_wordpool.txt	LTP097	ltpFR	2	2	0	BOXER	160	n/a	n/a	0	0.422607421875	0.5869140625	0	upper	amplitud.ttf
523.09	n/a	WORD	261545	wordpools/wasnorm_wordpool.txt	LTP097	ltpFR	2	2	0	TICK	1463	n/a	n/a	0	0.422607421875	0.5869140625	0	upper	amplitud.ttf
526.936	n/a	WORD	263468	wordpools/wasnorm_wordpool.txt	LTP097	ltpFR	2	2	0	ROCKET	1202	n/a	n/a	1	0.422607421875	0.5869140625	0	upper	amplitud.ttf
530.922	n/a	WORD	265461	wordpools/wasnorm_wordpool.txt	LTP097	ltpFR	2	2	1	ASTRONAUT	51	n/a	n/a	1	0.57763671875	0.412841796875	1	lower	zerothre.ttf
534.984	n/a	WORD	267492	wordpools/wasnorm_wordpool.txt	LTP097	ltpFR	2	2	1	FRUIT	610	n/a	n/a	0	0.57763671875	0.412841796875	1	lower	zerothre.ttf
538.862	n/a	WORD	269431	wordpools/wasnorm_wordpool.txt	LTP097	ltpFR	2	2	1	HOE	711	n/a	n/a	1	0.57763671875	0.412841796875	1	lower	zerothre.ttf
542.716	n/a	WORD	271358	wordpools/wasnorm_wordpool.txt	LTP097	ltpFR	2	2	1	TELEVISION	1447	n/a	n/a	0	0.57763671875	0.412841796875	1	lower	zerothre.ttf
546.588	n/a	WORD	273294	wordpools/wasnorm_wordpool.txt	LTP097	ltpFR	2	2	0	RESORT	1186	n/a	n/a	1	0.422607421875	0.5869140625	0	upper	amplitud.ttf
550.766	n/a	WORD	275383	wordpools/wasnorm_wordpool.txt	LTP097	ltpFR	2	2	0	BARLEY	88	n/a	n/a	0	0.422607421875	0.5869140625	0	upper	amplitud.ttf
556.41	n/a	REC_START	278205	n/a	LTP097	ltpFR	2	2	n/a	n/a	n/a	n/a	n/a	n/a	n/a	n/a	n/a	n/a	n/a
557.104	n/a	REC_WORD	278552	wordpools/wasnorm_wordpool.txt	LTP097	ltpFR	2	2	0	RESORT	1186	n/a	n/a	1	n/a	n/a	n/a	n/a	n/a
558.202	n/a	REC_WORD	279101	wordpools/wasnorm_wordpool.txt	LTP097	ltpFR	2	2	0	BARLEY	88	n/a	n/a	0	n/a	n/a	n/a	n/a	n/a
559.762	n/a	REC_WORD	279881	wordpools/wasnorm_wordpool.txt	LTP097	ltpFR	2	2	0	INTESTINE	742	n/a	n/a	3	n/a	n/a	n/a	n/a	n/a
560.526	n/a	REC_WORD	280263	wordpools/wasnorm_wordpool.txt	LTP097	ltpFR	2	2	0	BOXER	160	n/a	n/a	0	n/a	n/a	n/a	n/a	n/a
561.11	n/a	REC_WORD	280555	wordpools/wasnorm_wordpool.txt	LTP097	ltpFR	2	2	0	TICK	1463	n/a	n/a	0	n/a	n/a	n/a	n/a	n/a
561.544	n/a	REC_WORD	280772	wordpools/wasnorm_wordpool.txt	LTP097	ltpFR	2	2	1	ASTRONAUT	51	n/a	n/a	1	n/a	n/a	n/a	n/a	n/a
562.306	n/a	REC_WORD	281153	wordpools/wasnorm_wordpool.txt	LTP097	ltpFR	2	2	1	FRUIT	610	n/a	n/a	0	n/a	n/a	n/a	n/a	n/a
563.05	n/a	REC_WORD	281525	wordpools/wasnorm_wordpool.txt	LTP097	ltpFR	2	2	0	ROCKET	1202	n/a	n/a	1	n/a	n/a	n/a	n/a	n/a
565.594	n/a	REC_WORD	282797	wordpools/wasnorm_wordpool.txt	LTP097	ltpFR	2	2	1	SQUID	1361	n/a	n/a	1	n/a	n/a	n/a	n/a	n/a
566.882	n/a	REC_WORD	283441	wordpools/wasnorm_wordpool.txt	LTP097	ltpFR	2	2	1	HEN	703	n/a	n/a	1	n/a	n/a	n/a	n/a	n/a
569.082	n/a	REC_WORD	284541	wordpools/wasnorm_wordpool.txt	LTP097	ltpFR	2	2	0	BLACKBERRY	132	n/a	n/a	0	n/a	n/a	n/a	n/a	n/a
569.876	n/a	REC_WORD	284938	wordpools/wasnorm_wordpool.txt	LTP097	ltpFR	2	2	0	VIDEO	1564	n/a	n/a	0	n/a	n/a	n/a	n/a	n/a
570.484	n/a	REC_WORD	285242	wordpools/wasnorm_wordpool.txt	LTP097	ltpFR	2	2	1	SEA	1259	n/a	n/a	0	n/a	n/a	n/a	n/a	n/a
659.142	n/a	WORD	329571	wordpools/wasnorm_wordpool.txt	LTP097	ltpFR	2	3	0	BANANA	77	n/a	n/a	0	0.422607421875	0.5869140625	0	upper	amplitud.ttf
663.004	n/a	WORD	331502	wordpools/wasnorm_wordpool.txt	LTP097	ltpFR	2	3	0	RAISIN	1163	n/a	n/a	0	0.422607421875	0.5869140625	0	upper	amplitud.ttf
667.074	n/a	WORD	333537	wordpools/wasnorm_wordpool.txt	LTP097	ltpFR	2	3	0	FRAME	600	n/a	n/a	0	0.422607421875	0.5869140625	0	upper	amplitud.ttf
670.954	n/a	WORD	335477	wordpools/wasnorm_wordpool.txt	LTP097	ltpFR	2	3	0	PHOTO	1055	n/a	n/a	0	0.422607421875	0.5869140625	0	upper	amplitud.ttf
675.156	n/a	WORD	337578	wordpools/wasnorm_wordpool.txt	LTP097	ltpFR	2	3	0	DRILL	497	n/a	n/a	0	0.422607421875	0.5869140625	0	upper	amplitud.ttf
679.302	n/a	WORD	339651	wordpools/wasnorm_wordpool.txt	LTP097	ltpFR	2	3	0	FIGHTER	564	n/a	n/a	1	0.422607421875	0.5869140625	0	upper	amplitud.ttf
683.49	n/a	WORD	341745	wordpools/wasnorm_wordpool.txt	LTP097	ltpFR	2	3	0	ANKLE	24	n/a	n/a	1	0.422607421875	0.5869140625	0	upper	amplitud.ttf
687.51	n/a	WORD	343755	wordpools/wasnorm_wordpool.txt	LTP097	ltpFR	2	3	0	ENCYCLOPEDIA	533	n/a	n/a	1	0.422607421875	0.5869140625	0	upper	amplitud.ttf
691.688	n/a	WORD	345844	wordpools/wasnorm_wordpool.txt	LTP097	ltpFR	2	3	0	WELL	1600	n/a	n/a	1	0.422607421875	0.5869140625	0	upper	amplitud.ttf
695.84	n/a	WORD	347920	wordpools/wasnorm_wordpool.txt	LTP097	ltpFR	2	3	0	ARM	38	n/a	n/a	0	0.422607421875	0.5869140625	0	upper	amplitud.ttf
699.67	n/a	WORD	349835	wordpools/wasnorm_wordpool.txt	LTP097	ltpFR	2	3	0	NOVEL	960	n/a	n/a	0	0.422607421875	0.5869140625	0	upper	amplitud.ttf
703.774	n/a	WORD	351887	wordpools/wasnorm_wordpool.txt	LTP097	ltpFR	2	3	0	PAIL	1002	n/a	n/a	0	0.422607421875	0.5869140625	0	upper	amplitud.ttf
707.62	n/a	WORD	353810	wordpools/wasnorm_wordpool.txt	LTP097	ltpFR	2	3	0	SIGNATURE	1306	n/a	n/a	0	0.422607421875	0.5869140625	0	upper	amplitud.ttf
711.582	n/a	WORD	355791	wordpools/wasnorm_wordpool.txt	LTP097	ltpFR	2	3	0	CRITIC	410	n/a	n/a	1	0.422607421875	0.5869140625	0	upper	amplitud.ttf
715.42	n/a	WORD	357710	wordpools/wasnorm_wordpool.txt	LTP097	ltpFR	2	3	0	PALACE	1006	n/a	n/a	0	0.422607421875	0.5869140625	0	upper	amplitud.ttf
719.322	n/a	WORD	359661	wordpools/wasnorm_wordpool.txt	LTP097	ltpFR	2	3	0	MERMAID	887	n/a	n/a	1	0.422607421875	0.5869140625	0	upper	amplitud.ttf
725.376	n/a	REC_START	362688	n/a	LTP097	ltpFR	2	3	n/a	n/a	n/a	n/a	n/a	n/a	n/a	n/a	n/a	n/a	n/a
726.374	n/a	REC_WORD	363187	wordpools/wasnorm_wordpool.txt	LTP097	ltpFR	2	3	0	SIGNATURE	1306	n/a	n/a	0	n/a	n/a	n/a	n/a	n/a
727.3	n/a	REC_WORD	363650	wordpools/wasnorm_wordpool.txt	LTP097	ltpFR	2	3	0	CRITIC	410	n/a	n/a	1	n/a	n/a	n/a	n/a	n/a
728.234	n/a	REC_WORD	364117	wordpools/wasnorm_wordpool.txt	LTP097	ltpFR	2	3	0	PALACE	1006	n/a	n/a	0	n/a	n/a	n/a	n/a	n/a
729.002	n/a	REC_WORD	364501	wordpools/wasnorm_wordpool.txt	LTP097	ltpFR	2	3	0	MERMAID	887	n/a	n/a	1	n/a	n/a	n/a	n/a	n/a
729.66	n/a	REC_WORD	364830	wordpools/wasnorm_wordpool.txt	LTP097	ltpFR	2	3	0	FIGHTER	564	n/a	n/a	1	n/a	n/a	n/a	n/a	n/a
730.828	n/a	REC_WORD	365414	wordpools/wasnorm_wordpool.txt	LTP097	ltpFR	2	3	0	ARM	38	n/a	n/a	0	n/a	n/a	n/a	n/a	n/a
731.406	n/a	REC_WORD	365703	wordpools/wasnorm_wordpool.txt	LTP097	ltpFR	2	3	0	ANKLE	24	n/a	n/a	1	n/a	n/a	n/a	n/a	n/a
732.01	n/a	REC_WORD	366005	wordpools/wasnorm_wordpool.txt	LTP097	ltpFR	2	3	0	ENCYCLOPEDIA	533	n/a	n/a	1	n/a	n/a	n/a	n/a	n/a
734.38	n/a	REC_WORD	367190	wordpools/wasnorm_wordpool.txt	LTP097	ltpFR	2	3	0	NOVEL	960	n/a	n/a	0	n/a	n/a	n/a	n/a	n/a
737.552	n/a	REC_WORD	368776	wordpools/wasnorm_wordpool.txt	LTP097	ltpFR	2	3	0	WELL	1600	n/a	n/a	1	n/a	n/a	n/a	n/a	n/a
738.242	n/a	REC_WORD	369121	wordpools/wasnorm_wordpool.txt	LTP097	ltpFR	2	3	0	PAIL	1002	n/a	n/a	0	n/a	n/a	n/a	n/a	n/a
745.374	n/a	REC_WORD	372687	wordpools/wasnorm_wordpool.txt	LTP097	ltpFR	2	3	0	FRAME	600	n/a	n/a	0	n/a	n/a	n/a	n/a	n/a
746.214	n/a	REC_WORD	373107	wordpools/wasnorm_wordpool.txt	LTP097	ltpFR	2	3	0	PHOTO	1055	n/a	n/a	0	n/a	n/a	n/a	n/a	n/a
748.798	n/a	REC_WORD	374399	wordpools/wasnorm_wordpool.txt	LTP097	ltpFR	2	3	0	RAISIN	1163	n/a	n/a	0	n/a	n/a	n/a	n/a	n/a
749.636	n/a	REC_WORD	374818	wordpools/wasnorm_wordpool.txt	LTP097	ltpFR	2	3	0	BANANA	77	n/a	n/a	0	n/a	n/a	n/a	n/a	n/a
753.218	n/a	REC_WORD	376609	wordpools/wasnorm_wordpool.txt	LTP097	ltpFR	2	3	n/a	TRAIL	-1	n/a	n/a	n/a	n/a	n/a	n/a	n/a	n/a
809.17	n/a	WORD	404585	wordpools/wasnorm_wordpool.txt	LTP097	ltpFR	2	4	0	GROCERIES	663	n/a	n/a	0	0.422607421875	0.5869140625	0	upper	amplitud.ttf
812.998	n/a	WORD	406499	wordpools/wasnorm_wordpool.txt	LTP097	ltpFR	2	4	0	SEAL	1262	n/a	n/a	1	0.422607421875	0.5869140625	0	upper	amplitud.ttf
817.068	n/a	WORD	408534	wordpools/wasnorm_wordpool.txt	LTP097	ltpFR	2	4	0	WHALE	1601	n/a	n/a	0	0.422607421875	0.5869140625	0	upper	amplitud.ttf
820.93	n/a	WORD	410465	wordpools/wasnorm_wordpool.txt	LTP097	ltpFR	2	4	0	MAMMAL	861	n/a	n/a	0	0.422607421875	0.5869140625	0	upper	amplitud.ttf
824.792	n/a	WORD	412396	wordpools/wasnorm_wordpool.txt	LTP097	ltpFR	2	4	0	PURSE	1145	n/a	n/a	1	0.422607421875	0.5869140625	0	upper	amplitud.ttf
828.888	n/a	WORD	414444	wordpools/wasnorm_wordpool.txt	LTP097	ltpFR	2	4	0	LETTUCE	814	n/a	n/a	0	0.422607421875	0.5869140625	0	upper	amplitud.ttf
833.066	n/a	WORD	416533	wordpools/wasnorm_wordpool.txt	LTP097	ltpFR	2	4	1	PUPIL	1143	n/a	n/a	1	0.57763671875	0.412841796875	1	lower	zerothre.ttf
837.062	n/a	WORD	418531	wordpools/wasnorm_wordpool.txt	LTP097	ltpFR	2	4	1	PROFESSOR	1131	n/a	n/a	0	0.57763671875	0.412841796875	1	lower	zerothre.ttf
841.224	n/a	WORD	420612	wordpools/wasnorm_wordpool.txt	LTP097	ltpFR	2	4	1	LUNCH	849	n/a	n/a	1	0.57763671875	0.412841796875	1	lower	zerothre.ttf
845.194	n/a	WORD	422597	wordpools/wasnorm_wordpool.txt	LTP097	ltpFR	2	4	1	CARDINAL	244	n/a	n/a	0	0.57763671875	0.412841796875	1	lower	zerothre.ttf
849.114	n/a	WORD	424557	wordpools/wasnorm_wordpool.txt	LTP097	ltpFR	2	4	1	COLESLAW	344	n/a	n/a	1	0.57763671875	0.412841796875	1	lower	zerothre.ttf
852.968	n/a	WORD	426484	wordpools/wasnorm_wordpool.txt	LTP097	ltpFR	2	4	0	RACCOON	1153	n/a	n/a	1	0.422607421875	0.5869140625	0	upper	amplitud.ttf
857.164	n/a	WORD	428582	wordpools/wasnorm_wordpool.txt	LTP097	ltpFR	2	4	0	BUN	197	n/a	n/a	0	0.422607421875	0.5869140625	0	upper	amplitud.ttf
861.026	n/a	WORD	430513	wordpools/wasnorm_wordpool.txt	LTP097	ltpFR	2	4	1	CONCRETE	361	n/a	n/a	0	0.57763671875	0.412841796875	1	lower	zerothre.ttf
864.922	n/a	WORD	432461	wordpools/wasnorm_wordpool.txt	LTP097	ltpFR	2	4	1	LIVER	833	n/a	n/a	0	0.57763671875	0.412841796875	1	lower	zerothre.ttf
868.934	n/a	WORD	434467	wordpools/wasnorm_wordpool.txt	LTP097	ltpFR	2	4	1	SCALLOP	1242	n/a	n/a	0	0.57763671875	0.412841796875	1	lower	zerothre.ttf
874.81	n/a	REC_START	437405	n/a	LTP097	ltpFR	2	4	n/a	n/a	n/a	n/a	n/a	n/a	n/a	n/a	n/a	n/a	n/a
875.802	n/a	REC_WORD	437901	wordpools/wasnorm_wordpool.txt	LTP097	ltpFR	2	4	1	LIVER	833	n/a	n/a	0	n/a	n/a	n/a	n/a	n/a
876.286	n/a	REC_WORD	438143	wordpools/wasnorm_wordpool.txt	LTP097	ltpFR	2	4	1	SCALLOP	1242	n/a	n/a	0	n/a	n/a	n/a	n/a	n/a
877.056	n/a	REC_WORD	438528	wordpools/wasnorm_wordpool.txt	LTP097	ltpFR	2	4	0	RACCOON	1153	n/a	n/a	1	n/a	n/a	n/a	n/a	n/a
878.118	n/a	REC_WORD	439059	wordpools/wasnorm_wordpool.txt	LTP097	ltpFR	2	4	0	BUN	197	n/a	n/a	0	n/a	n/a	n/a	n/a	n/a
878.686	n/a	REC_WORD	439343	wordpools/wasnorm_wordpool.txt	LTP097	ltpFR	2	4	1	CONCRETE	361	n/a	n/a	0	n/a	n/a	n/a	n/a	n/a
881.082	n/a	REC_WORD	440541	wordpools/wasnorm_wordpool.txt	LTP097	ltpFR	2	4	1	PUPIL	1143	n/a	n/a	1	n/a	n/a	n/a	n/a	n/a
881.57	n/a	REC_WORD	440785	wordpools/wasnorm_wordpool.txt	LTP097	ltpFR	2	4	1	PROFESSOR	1131	n/a	n/a	0	n/a	n/a	n/a	n/a	n/a
882.358	n/a	REC_WORD	441179	wordpools/wasnorm_wordpool.txt	LTP097	ltpFR	2	4	1	COLESLAW	344	n/a	n/a	1	n/a	n/a	n/a	n/a	n/a
883.346	n/a	REC_WORD	441673	wordpools/wasnorm_wordpool.txt	LTP097	ltpFR	2	4	1	LUNCH	849	n/a	n/a	1	n/a	n/a	n/a	n/a	n/a
886.01	n/a	REC_WORD	443005	wordpools/wasnorm_wordpool.txt	LTP097	ltpFR	2	4	0	WHALE	1601	n/a	n/a	0	n/a	n/a	n/a	n/a	n/a
886.706	n/a	REC_WORD	443353	wordpools/wasnorm_wordpool.txt	LTP097	ltpFR	2	4	0	MAMMAL	861	n/a	n/a	0	n/a	n/a	n/a	n/a	n/a
887.782	n/a	REC_WORD	443891	wordpools/wasnorm_wordpool.txt	LTP097	ltpFR	2	4	0	PURSE	1145	n/a	n/a	1	n/a	n/a	n/a	n/a	n/a
890.85	n/a	REC_WORD	445425	wordpools/wasnorm_wordpool.txt	LTP097	ltpFR	2	4	0	SEAL	1262	n/a	n/a	1	n/a	n/a	n/a	n/a	n/a
892.166	n/a	REC_WORD	446083	wordpools/wasnorm_wordpool.txt	LTP097	ltpFR	2	4	0	GROCERIES	663	n/a	n/a	0	n/a	n/a	n/a	n/a	n/a
901.63	n/a	REC_WORD	450815	wordpools/wasnorm_wordpool.txt	LTP097	ltpFR	2	4	1	LIVER	833	n/a	n/a	0	n/a	n/a	n/a	n/a	n/a
968.52	n/a	WORD	484260	wordpools/wasnorm_wordpool.txt	LTP097	ltpFR	2	5	0	EARTH	515	n/a	n/a	1	0.422607421875	0.5869140625	0	upper	amplitud.ttf
972.69	n/a	WORD	486345	wordpools/wasnorm_wordpool.txt	LTP097	ltpFR	2	5	0	SUGAR	1401	n/a	n/a	0	0.422607421875	0.5869140625	0	upper	amplitud.ttf
976.712	n/a	WORD	488356	wordpools/wasnorm_wordpool.txt	LTP097	ltpFR	2	5	0	PLAID	1080	n/a	n/a	1	0.422607421875	0.5869140625	0	upper	amplitud.ttf
980.598	n/a	WORD	490299	wordpools/wasnorm_wordpool.txt	LTP097	ltpFR	2	5	0	FLANNEL	574	n/a	n/a	0	0.422607421875	0.5869140625	0	upper	amplitud.ttf
984.776	n/a	WORD	492388	wordpools/wasnorm_wordpool.txt	LTP097	ltpFR	2	5	0	CRAB	397	n/a	n/a	1	0.422607421875	0.5869140625	0	upper	amplitud.ttf
988.738	n/a	WORD	494369	wordpools/wasnorm_wordpool.txt	LTP097	ltpFR	2	5	0	VAMPIRE	1547	n/a	n/a	1	0.422607421875	0.5869140625	0	upper	amplitud.ttf
992.892	n/a	WORD	496446	wordpools/wasnorm_wordpool.txt	LTP097	ltpFR	2	5	0	BANDAGE	79	n/a	n/a	0	0.422607421875	0.5869140625	0	upper	amplitud.ttf
997.086	n/a	WORD	498543	wordpools/wasnorm_wordpool.txt	LTP097	ltpFR	2	5	0	BRAN	167	n/a	n/a	1	0.422607421875	0.5869140625	0	upper	amplitud.ttf
1001.166	n/a	WORD	500583	wordpools/wasnorm_wordpool.txt	LTP097	ltpFR	2	5	0	FLESH	579	n/a	n/a	0	0.422607421875	0.5869140625	0	upper	amplitud.ttf
1005.252	n/a	WORD	502626	wordpools/wasnorm_wordpool.txt	LTP097	ltpFR	2	5	0	JUPITER	765	n/a	n/a	0	0.422607421875	0.5869140625	0	upper	amplitud.ttf
1009.148	n/a	WORD	504574	wordpools/wasnorm_wordpool.txt	LTP097	ltpFR	2	5	0	CARPENTER	246	n/a	n/a	1	0.422607421875	0.5869140625	0	upper	amplitud.ttf
1013.152	n/a	WORD	506576	wordpools/wasnorm_wordpool.txt	LTP097	ltpFR	2	5	0	STEW	1380	n/a	n/a	0	0.422607421875	0.5869140625	0	upper	amplitud.ttf
1017.006	n/a	WORD	508503	wordpools/wasnorm_wordpool.txt	LTP097	ltpFR	2	5	0	PLUTO	1092	n/a	n/a	1	0.422607421875	0.5869140625	0	upper	amplitud.ttf
1021.166	n/a	WORD	510583	wordpools/wasnorm_wordpool.txt	LTP097	ltpFR	2	5	0	TRANSPLANT	1496	n/a	n/a	0	0.422607421875	0.5869140625	0	upper	amplitud.ttf
1025.188	n/a	WORD	512594	wordpools/wasnorm_wordpool.txt	LTP097	ltpFR	2	5	0	HEAD	695	n/a	n/a	1	0.422607421875	0.5869140625	0	upper	amplitud.ttf
1029.334	n/a	WORD	514667	wordpools/wasnorm_wordpool.txt	LTP097	ltpFR	2	5	0	NERVE	944	n/a	n/a	0	0.422607421875	0.5869140625	0	upper	amplitud.ttf
1035.302	n/a	REC_START	517651	n/a	LTP097	ltpFR	2	5	n/a	n/a	n/a	n/a	n/a	n/a	n/a	n/a	n/a	n/a	n/a
1035.994	n/a	REC_WORD	517997	wordpools/wasnorm_wordpool.txt	LTP097	ltpFR	2	5	0	CARPENTER	246	n/a	n/a	1	n/a	n/a	n/a	n/a	n/a
1036.768	n/a	REC_WORD	518384	wordpools/wasnorm_wordpool.txt	LTP097	ltpFR	2	5	0	HEAD	695	n/a	n/a	1	n/a	n/a	n/a	n/a	n/a
1037.312	n/a	REC_WORD	518656	wordpools/wasnorm_wordpool.txt	LTP097	ltpFR	2	5	0	TRANSPLANT	1496	n/a	n/a	0	n/a	n/a	n/a	n/a	n/a
1038.27	n/a	REC_WORD	519135	wordpools/wasnorm_wordpool.txt	LTP097	ltpFR	2	5	0	NERVE	944	n/a	n/a	0	n/a	n/a	n/a	n/a	n/a
1039.728	n/a	REC_WORD	519864	wordpools/wasnorm_wordpool.txt	LTP097	ltpFR	2	5	0	JUPITER	765	n/a	n/a	0	n/a	n/a	n/a	n/a	n/a
1040.36	n/a	REC_WORD	520180	wordpools/wasnorm_wordpool.txt	LTP097	ltpFR	2	5	0	PLUTO	1092	n/a	n/a	1	n/a	n/a	n/a	n/a	n/a
1041.574	n/a	REC_WORD	520787	wordpools/wasnorm_wordpool.txt	LTP097	ltpFR	2	5	0	EARTH	515	n/a	n/a	1	n/a	n/a	n/a	n/a	n/a
1047.324	n/a	REC_WORD	523662	wordpools/wasnorm_wordpool.txt	LTP097	ltpFR	2	5	0	VAMPIRE	1547	n/a	n/a	1	n/a	n/a	n/a	n/a	n/a
1048.108	n/a	REC_WORD	524054	wordpools/wasnorm_wordpool.txt	LTP097	ltpFR	2	5	0	CRAB	397	n/a	n/a	1	n/a	n/a	n/a	n/a	n/a
1048.892	n/a	REC_WORD	524446	wordpools/wasnorm_wordpool.txt	LTP097	ltpFR	2	5	0	BRAN	167	n/a	n/a	1	n/a	n/a	n/a	n/a	n/a
1049.71	n/a	REC_WORD	524855	wordpools/wasnorm_wordpool.txt	LTP097	ltpFR	2	5	0	FLANNEL	574	n/a	n/a	0	n/a	n/a	n/a	n/a	n/a
1051.326	n/a	REC_WORD	525663	wordpools/wasnorm_wordpool.txt	LTP097	ltpFR	2	5	0	PLAID	1080	n/a	n/a	1	n/a	n/a	n/a	n/a	n/a
1059.646	n/a	REC_WORD	529823	wordpools/wasnorm_wordpool.txt	LTP097	ltpFR	2	5	0	BANDAGE	79	n/a	n/a	0	n/a	n/a	n/a	n/a	n/a
1076.852	n/a	REC_WORD	538426	wordpools/wasnorm_wordpool.txt	LTP097	ltpFR	2	5	0	FLESH	579	n/a	n/a	0	n/a	n/a	n/a	n/a	n/a
1130.352	n/a	WORD	565176	wordpools/wasnorm_wordpool.txt	LTP097	ltpFR	2	6	0	YACHT	1629	n/a	n/a	1	0.422607421875	0.5869140625	0	upper	amplitud.ttf
1134.296	n/a	WORD	567148	wordpools/wasnorm_wordpool.txt	LTP097	ltpFR	2	6	0	STREAM	1392	n/a	n/a	1	0.422607421875	0.5869140625	0	upper	amplitud.ttf
1138.218	n/a	WORD	569109	wordpools/wasnorm_wordpool.txt	LTP097	ltpFR	2	6	0	PARROT	1015	n/a	n/a	0	0.422607421875	0.5869140625	0	upper	amplitud.ttf
1142.036	n/a	WORD	571018	wordpools/wasnorm_wordpool.txt	LTP097	ltpFR	2	6	0	PERCH	1048	n/a	n/a	1	0.422607421875	0.5869140625	0	upper	amplitud.ttf
1145.858	n/a	WORD	572929	wordpools/wasnorm_wordpool.txt	LTP097	ltpFR	2	6	0	FAUCET	555	n/a	n/a	0	0.422607421875	0.5869140625	0	upper	amplitud.ttf
1149.836	n/a	WORD	574918	wordpools/wasnorm_wordpool.txt	LTP097	ltpFR	2	6	0	HATCHET	691	n/a	n/a	1	0.422607421875	0.5869140625	0	upper	amplitud.ttf
1153.872	n/a	WORD	576936	wordpools/wasnorm_wordpool.txt	LTP097	ltpFR	2	6	0	POSSUM	1112	n/a	n/a	0	0.422607421875	0.5869140625	0	upper	amplitud.ttf
1157.736	n/a	WORD	578868	wordpools/wasnorm_wordpool.txt	LTP097	ltpFR	2	6	0	MOSS	918	n/a	n/a	1	0.422607421875	0.5869140625	0	upper	amplitud.ttf
1161.606	n/a	WORD	580803	wordpools/wasnorm_wordpool.txt	LTP097	ltpFR	2	6	0	TRAITOR	1495	n/a	n/a	1	0.422607421875	0.5869140625	0	upper	amplitud.ttf
1165.468	n/a	WORD	582734	wordpools/wasnorm_wordpool.txt	LTP097	ltpFR	2	6	0	NUT	965	n/a	n/a	0	0.422607421875	0.5869140625	0	upper	amplitud.ttf
1169.364	n/a	WORD	584682	wordpools/wasnorm_wordpool.txt	LTP097	ltpFR	2	6	0	SNORKEL	1336	n/a	n/a	1	0.422607421875	0.5869140625	0	upper	amplitud.ttf
1173.568	n/a	WORD	586784	wordpools/wasnorm_wordpool.txt	LTP097	ltpFR	2	6	0	SHINGLE	1285	n/a	n/a	0	0.422607421875	0.5869140625	0	upper	amplitud.ttf
1177.43	n/a	WORD	588715	wordpools/wasnorm_wordpool.txt	LTP097	ltpFR	2	6	0	CARPET	247	n/a	n/a	1	0.422607421875	0.5869140625	0	upper	amplitud.ttf
1181.284	n/a	WORD	590642	wordpools/wasnorm_wordpool.txt	LTP097	ltpFR	2	6	0	DUST	508	n/a	n/a	0	0.422607421875	0.5869140625	0	upper	amplitud.ttf
1185.162	n/a	WORD	592581	wordpools/wasnorm_wordpool.txt	LTP097	ltpFR	2	6	0	SILVERWARE	1308	n/a	n/a	1	0.422607421875	0.5869140625	0	upper	amplitud.ttf
1189.04	n/a	WORD	594520	wordpools/wasnorm_wordpool.txt	LTP097	ltpFR	2	6	0	TOWEL	1489	n/a	n/a	0	0.422607421875	0.5869140625	0	upper	amplitud.ttf
1194.752	n/a	REC_START	597376	n/a	LTP097	ltpFR	2	6	n/a	n/a	n/a	n/a	n/a	n/a	n/a	n/a	n/a	n/a	n/a
1195.544	n/a	REC_WORD	597772	wordpools/wasnorm_wordpool.txt	LTP097	ltpFR	2	6	0	TOWEL	1489	n/a	n/a	0	n/a	n/a	n/a	n/a	n/a
1196.166	n/a	REC_WORD_VV	598083	wordpools/wasnorm_wordpool.txt	LTP097	ltpFR	2	6	n/a	<>	-1	n/a	n/a	n/a	n/a	n/a	n/a	n/a	n/a
1196.87	n/a	REC_WORD	598435	wordpools/wasnorm_wordpool.txt	LTP097	ltpFR	2	6	0	SILVERWARE	1308	n/a	n/a	1	n/a	n/a	n/a	n/a	n/a
1197.88	n/a	REC_WORD	598940	wordpools/wasnorm_wordpool.txt	LTP097	ltpFR	2	6	0	DUST	508	n/a	n/a	0	n/a	n/a	n/a	n/a	n/a
1198.468	n/a	REC_WORD	599234	wordpools/wasnorm_wordpool.txt	LTP097	ltpFR	2	6	0	CARPET	247	n/a	n/a	1	n/a	n/a	n/a	n/a	n/a
1199.676	n/a	REC_WORD	599838	wordpools/wasnorm_wordpool.txt	LTP097	ltpFR	2	6	0	SHINGLE	1285	n/a	n/a	0	n/a	n/a	n/a	n/a	n/a
1201.002	n/a	REC_WORD	600501	wordpools/wasnorm_wordpool.txt	LTP097	ltpFR	2	6	0	PARROT	1015	n/a	n/a	0	n/a	n/a	n/a	n/a	n/a
1201.62	n/a	REC_WORD	600810	wordpools/wasnorm_wordpool.txt	LTP097	ltpFR	2	6	0	PERCH	1048	n/a	n/a	1	n/a	n/a	n/a	n/a	n/a
1202.29	n/a	REC_WORD	601145	wordpools/wasnorm_wordpool.txt	LTP097	ltpFR	2	6	0	FAUCET	555	n/a	n/a	0	n/a	n/a	n/a	n/a	n/a
1202.784	n/a	REC_WORD	601392	wordpools/wasnorm_wordpool.txt	LTP097	ltpFR	2	6	0	STREAM	1392	n/a	n/a	1	n/a	n/a	n/a	n/a	n/a
1203.796	n/a	REC_WORD	601898	wordpools/wasnorm_wordpool.txt	LTP097	ltpFR	2	6	0	YACHT	1629	n/a	n/a	1	n/a	n/a	n/a	n/a	n/a
1204.824	n/a	REC_WORD	602412	wordpools/wasnorm_wordpool.txt	LTP097	ltpFR	2	6	0	SNORKEL	1336	n/a	n/a	1	n/a	n/a	n/a	n/a	n/a
1209.314	n/a	REC_WORD	604657	wordpools/wasnorm_wordpool.txt	LTP097	ltpFR	2	6	0	POSSUM	1112	n/a	n/a	0	n/a	n/a	n/a	n/a	n/a
1210.162	n/a	REC_WORD	605081	wordpools/wasnorm_wordpool.txt	LTP097	ltpFR	2	6	0	MOSS	918	n/a	n/a	1	n/a	n/a	n/a	n/a	n/a
1210.95	n/a	REC_WORD	605475	wordpools/wasnorm_wordpool.txt	LTP097	ltpFR	2	6	0	HATCHET	691	n/a	n/a	1	n/a	n/a	n/a	n/a	n/a
1214.212	n/a	REC_WORD	607106	wordpools/wasnorm_wordpool.txt	LTP097	ltpFR	2	6	0	TRAITOR	1495	n/a	n/a	1	n/a	n/a	n/a	n/a	n/a
1220.442	n/a	REC_WORD	610221	wordpools/wasnorm_wordpool.txt	LTP097	ltpFR	2	6	0	NUT	965	n/a	n/a	0	n/a	n/a	n/a	n/a	n/a
1287.67	n/a	WORD	643835	wordpools/wasnorm_wordpool.txt	LTP097	ltpFR	2	7	1	CATCHER	258	n/a	n/a	1	0.57763671875	0.412841796875	1	lower	zerothre.ttf
1291.848	n/a	WORD	645924	wordpools/wasnorm_wordpool.txt	LTP097	ltpFR	2	7	1	BEAST	108	n/a	n/a	0	0.57763671875	0.412841796875	1	lower	zerothre.ttf
1295.686	n/a	WORD	647843	wordpools/wasnorm_wordpool.txt	LTP097	ltpFR	2	7	0	BROOK	177	n/a	n/a	1	0.422607421875	0.5869140625	0	upper	amplitud.ttf
1299.582	n/a	WORD	649791	wordpools/wasnorm_wordpool.txt	LTP097	ltpFR	2	7	0	RIVER	1194	n/a	n/a	0	0.422607421875	0.5869140625	0	upper	amplitud.ttf
1303.784	n/a	WORD	651892	wordpools/wasnorm_wordpool.txt	LTP097	ltpFR	2	7	0	SCALPEL	1243	n/a	n/a	0	0.422607421875	0.5869140625	0	upper	amplitud.ttf
1307.638	n/a	WORD	653819	wordpools/wasnorm_wordpool.txt	LTP097	ltpFR	2	7	0	CREW	406	n/a	n/a	1	0.422607421875	0.5869140625	0	upper	amplitud.ttf
1311.51	n/a	WORD	655755	wordpools/wasnorm_wordpool.txt	LTP097	ltpFR	2	7	1	DIPLOMA	470	n/a	n/a	1	0.57763671875	0.412841796875	1	lower	zerothre.ttf
1315.346	n/a	WORD	657673	wordpools/wasnorm_wordpool.txt	LTP097	ltpFR	2	7	1	SPINE	1353	n/a	n/a	0	0.57763671875	0.412841796875	1	lower	zerothre.ttf
1319.458	n/a	WORD	659729	wordpools/wasnorm_wordpool.txt	LTP097	ltpFR	2	7	1	BRUISE	180	n/a	n/a	1	0.57763671875	0.412841796875	1	lower	zerothre.ttf
1323.546	n/a	WORD	661773	wordpools/wasnorm_wordpool.txt	LTP097	ltpFR	2	7	0	TYPIST	1532	n/a	n/a	1	0.422607421875	0.5869140625	0	upper	amplitud.ttf
1327.716	n/a	WORD	663858	wordpools/wasnorm_wordpool.txt	LTP097	ltpFR	2	7	0	PAD	998	n/a	n/a	0	0.422607421875	0.5869140625	0	upper	amplitud.ttf
1331.794	n/a	WORD	665897	wordpools/wasnorm_wordpool.txt	LTP097	ltpFR	2	7	0	PIGEON	1065	n/a	n/a	1	0.422607421875	0.5869140625	0	upper	amplitud.ttf
1335.746	n/a	WORD	667873	wordpools/wasnorm_wordpool.txt	LTP097	ltpFR	2	7	0	CAGE	218	n/a	n/a	1	0.422607421875	0.5869140625	0	upper	amplitud.ttf
1339.702	n/a	WORD	669851	wordpools/wasnorm_wordpool.txt	LTP097	ltpFR	2	7	1	CLASS	318	n/a	n/a	1	0.57763671875	0.412841796875	1	lower	zerothre.ttf
1343.82	n/a	WORD	671910	wordpools/wasnorm_wordpool.txt	LTP097	ltpFR	2	7	1	VICTOR	1563	n/a	n/a	0	0.57763671875	0.412841796875	1	lower	zerothre.ttf
1347.968	n/a	WORD	673984	wordpools/wasnorm_wordpool.txt	LTP097	ltpFR	2	7	1	OAR	966	n/a	n/a	1	0.57763671875	0.412841796875	1	lower	zerothre.ttf
1353.628	n/a	REC_START	676814	n/a	LTP097	ltpFR	2	7	n/a	n/a	n/a	n/a	n/a	n/a	n/a	n/a	n/a	n/a	n/a
1355.5	n/a	REC_WORD	677750	wordpools/wasnorm_wordpool.txt	LTP097	ltpFR	2	7	1	OAR	966	n/a	n/a	1	n/a	n/a	n/a	n/a	n/a
1357.2	n/a	REC_WORD	678600	wordpools/wasnorm_wordpool.txt	LTP097	ltpFR	2	7	1	VICTOR	1563	n/a	n/a	0	n/a	n/a	n/a	n/a	n/a
1358.048	n/a	REC_WORD	679024	wordpools/wasnorm_wordpool.txt	LTP097	ltpFR	2	7	0	PAD	998	n/a	n/a	0	n/a	n/a	n/a	n/a	n/a
1359.09	n/a	REC_WORD	679545	wordpools/wasnorm_wordpool.txt	LTP097	ltpFR	2	7	0	TYPIST	1532	n/a	n/a	1	n/a	n/a	n/a	n/a	n/a
1362.038	n/a	REC_WORD	681019	wordpools/wasnorm_wordpool.txt	LTP097	ltpFR	2	7	0	PIGEON	1065	n/a	n/a	1	n/a	n/a	n/a	n/a	n/a
1362.692	n/a	REC_WORD	681346	wordpools/wasnorm_wordpool.txt	LTP097	ltpFR	2	7	0	CAGE	218	n/a	n/a	1	n/a	n/a	n/a	n/a	n/a
1363.964	n/a	REC_WORD	681982	wordpools/wasnorm_wordpool.txt	LTP097	ltpFR	2	7	0	SCALPEL	1243	n/a	n/a	0	n/a	n/a	n/a	n/a	n/a
1364.654	n/a	REC_WORD	682327	wordpools/wasnorm_wordpool.txt	LTP097	ltpFR	2	7	1	SPINE	1353	n/a	n/a	0	n/a	n/a	n/a	n/a	n/a
1365.392	n/a	REC_WORD	682696	wordpools/wasnorm_wordpool.txt	LTP097	ltpFR	2	7	1	BRUISE	180	n/a	n/a	1	n/a	n/a	n/a	n/a	n/a
1365.996	n/a	REC_WORD	682998	wordpools/wasnorm_wordpool.txt	LTP097	ltpFR	2	7	1	CATCHER	258	n/a	n/a	1	n/a	n/a	n/a	n/a	n/a
1366.578	n/a	REC_WORD	683289	wordpools/wasnorm_wordpool.txt	LTP097	ltpFR	2	7	0	CREW	406	n/a	n/a	1	n/a	n/a	n/a	n/a	n/a
1380.902	n/a	REC_WORD	690451	wordpools/wasnorm_wordpool.txt	LTP097	ltpFR	2	7	0	RIVER	1194	n/a	n/a	0	n/a	n/a	n/a	n/a	n/a
1381.494	n/a	REC_WORD	690747	wordpools/wasnorm_wordpool.txt	LTP097	ltpFR	2	7	0	BROOK	177	n/a	n/a	1	n/a	n/a	n/a	n/a	n/a
1382.318	n/a	REC_WORD	691159	wordpools/wasnorm_wordpool.txt	LTP097	ltpFR	2	7	1	BEAST	108	n/a	n/a	0	n/a	n/a	n/a	n/a	n/a
1452.196	n/a	WORD	726098	wordpools/wasnorm_wordpool.txt	LTP097	ltpFR	2	8	-1	MICROSCOPE	891	n/a	n/a	-1	1.0	1.0	1	upper	Verdana.ttf
1456.344	n/a	WORD	728172	wordpools/wasnorm_wordpool.txt	LTP097	ltpFR	2	8	-1	CROW	414	n/a	n/a	-1	1.0	1.0	1	upper	Verdana.ttf
1460.238	n/a	WORD	730119	wordpools/wasnorm_wordpool.txt	LTP097	ltpFR	2	8	-1	ROOSTER	1209	n/a	n/a	-1	1.0	1.0	1	upper	Verdana.ttf
1464.092	n/a	WORD	732046	wordpools/wasnorm_wordpool.txt	LTP097	ltpFR	2	8	-1	CANAL	226	n/a	n/a	-1	1.0	1.0	1	upper	Verdana.ttf
1468.288	n/a	WORD	734144	wordpools/wasnorm_wordpool.txt	LTP097	ltpFR	2	8	-1	HOSE	720	n/a	n/a	-1	1.0	1.0	1	upper	Verdana.ttf
1472.374	n/a	WORD	736187	wordpools/wasnorm_wordpool.txt	LTP097	ltpFR	2	8	-1	POND	1101	n/a	n/a	-1	1.0	1.0	1	upper	Verdana.ttf
1476.394	n/a	WORD	738197	wordpools/wasnorm_wordpool.txt	LTP097	ltpFR	2	8	-1	OCEAN	970	n/a	n/a	-1	1.0	1.0	1	upper	Verdana.ttf
1480.214	n/a	WORD	740107	wordpools/wasnorm_wordpool.txt	LTP097	ltpFR	2	8	-1	HOUND	724	n/a	n/a	-1	1.0	1.0	1	upper	Verdana.ttf
1484.378	n/a	WORD	742189	wordpools/wasnorm_wordpool.txt	LTP097	ltpFR	2	8	-1	TOTE	1487	n/a	n/a	-1	1.0	1.0	1	upper	Verdana.ttf
1488.548	n/a	WORD	744274	wordpools/wasnorm_wordpool.txt	LTP097	ltpFR	2	8	-1	DIRECTOR	471	n/a	n/a	-1	1.0	1.0	1	upper	Verdana.ttf
1492.402	n/a	WORD	746201	wordpools/wasnorm_wordpool.txt	LTP097	ltpFR	2	8	-1	TRENCH	1503	n/a	n/a	-1	1.0	1.0	1	upper	Verdana.ttf
1496.43	n/a	WORD	748215	wordpools/wasnorm_wordpool.txt	LTP097	ltpFR	2	8	-1	CRATER	400	n/a	n/a	-1	1.0	1.0	1	upper	Verdana.ttf
1500.318	n/a	WORD	750159	wordpools/wasnorm_wordpool.txt	LTP097	ltpFR	2	8	-1	TUSK	1523	n/a	n/a	-1	1.0	1.0	1	upper	Verdana.ttf
1504.154	n/a	WORD	752077	wordpools/wasnorm_wordpool.txt	LTP097	ltpFR	2	8	-1	SWAN	1417	n/a	n/a	-1	1.0	1.0	1	upper	Verdana.ttf
1507.992	n/a	WORD	753996	wordpools/wasnorm_wordpool.txt	LTP097	ltpFR	2	8	-1	PATRIOT	1026	n/a	n/a	-1	1.0	1.0	1	upper	Verdana.ttf
1512.054	n/a	WORD	756027	wordpools/wasnorm_wordpool.txt	LTP097	ltpFR	2	8	-1	SCREEN	1253	n/a	n/a	-1	1.0	1.0	1	upper	Verdana.ttf
1517.692	n/a	REC_START	758846	n/a	LTP097	ltpFR	2	8	n/a	n/a	n/a	n/a	n/a	n/a	n/a	n/a	n/a	n/a	n/a
1518.814	n/a	REC_WORD	759407	wordpools/wasnorm_wordpool.txt	LTP097	ltpFR	2	8	-1	PATRIOT	1026	n/a	n/a	-1	n/a	n/a	n/a	n/a	n/a
1519.714	n/a	REC_WORD	759857	wordpools/wasnorm_wordpool.txt	LTP097	ltpFR	2	8	-1	SCREEN	1253	n/a	n/a	-1	n/a	n/a	n/a	n/a	n/a
1527.414	n/a	REC_WORD	763707	wordpools/wasnorm_wordpool.txt	LTP097	ltpFR	2	8	-1	ROOSTER	1209	n/a	n/a	-1	n/a	n/a	n/a	n/a	n/a
1528.282	n/a	REC_WORD	764141	wordpools/wasnorm_wordpool.txt	LTP097	ltpFR	2	8	-1	CROW	414	n/a	n/a	-1	n/a	n/a	n/a	n/a	n/a
1528.94	n/a	REC_WORD	764470	wordpools/wasnorm_wordpool.txt	LTP097	ltpFR	2	8	-1	MICROSCOPE	891	n/a	n/a	-1	n/a	n/a	n/a	n/a	n/a
1544.176	n/a	REC_WORD	772088	wordpools/wasnorm_wordpool.txt	LTP097	ltpFR	2	8	-1	TRENCH	1503	n/a	n/a	-1	n/a	n/a	n/a	n/a	n/a
1544.984	n/a	REC_WORD	772492	wordpools/wasnorm_wordpool.txt	LTP097	ltpFR	2	8	-1	CRATER	400	n/a	n/a	-1	n/a	n/a	n/a	n/a	n/a
1545.898	n/a	REC_WORD	772949	wordpools/wasnorm_wordpool.txt	LTP097	ltpFR	2	8	-1	TUSK	1523	n/a	n/a	-1	n/a	n/a	n/a	n/a	n/a
1547.778	n/a	REC_WORD	773889	wordpools/wasnorm_wordpool.txt	LTP097	ltpFR	2	8	-1	SWAN	1417	n/a	n/a	-1	n/a	n/a	n/a	n/a	n/a
1554.572	n/a	REC_WORD	777286	wordpools/wasnorm_wordpool.txt	LTP097	ltpFR	2	8	-1	CANAL	226	n/a	n/a	-1	n/a	n/a	n/a	n/a	n/a
1567.628	n/a	REC_WORD	783814	wordpools/wasnorm_wordpool.txt	LTP097	ltpFR	2	8	-1	DIRECTOR	471	n/a	n/a	-1	n/a	n/a	n/a	n/a	n/a
1568.366	n/a	REC_WORD	784183	wordpools/wasnorm_wordpool.txt	LTP097	ltpFR	2	8	-1	TOTE	1487	n/a	n/a	-1	n/a	n/a	n/a	n/a	n/a
1571.144	n/a	REC_WORD	785572	wordpools/wasnorm_wordpool.txt	LTP097	ltpFR	2	8	-1	HOUND	724	n/a	n/a	-1	n/a	n/a	n/a	n/a	n/a
1607.21	n/a	WORD	803605	wordpools/wasnorm_wordpool.txt	LTP097	ltpFR	2	9	-1	ROOST	1208	n/a	n/a	-1	1.0	1.0	1	upper	Verdana.ttf
1611.332	n/a	WORD	805666	wordpools/wasnorm_wordpool.txt	LTP097	ltpFR	2	9	-1	GRILL	661	n/a	n/a	-1	1.0	1.0	1	upper	Verdana.ttf
1615.268	n/a	WORD	807634	wordpools/wasnorm_wordpool.txt	LTP097	ltpFR	2	9	-1	COUSIN	392	n/a	n/a	-1	1.0	1.0	1	upper	Verdana.ttf
1619.164	n/a	WORD	809582	wordpools/wasnorm_wordpool.txt	LTP097	ltpFR	2	9	-1	NET	946	n/a	n/a	-1	1.0	1.0	1	upper	Verdana.ttf
1623.018	n/a	WORD	811509	wordpools/wasnorm_wordpool.txt	LTP097	ltpFR	2	9	-1	PEPPER	1047	n/a	n/a	-1	1.0	1.0	1	upper	Verdana.ttf
1626.854	n/a	WORD	813427	wordpools/wasnorm_wordpool.txt	LTP097	ltpFR	2	9	-1	CRICKET	408	n/a	n/a	-1	1.0	1.0	1	upper	Verdana.ttf
1630.884	n/a	WORD	815442	wordpools/wasnorm_wordpool.txt	LTP097	ltpFR	2	9	-1	MOSQUITO	917	n/a	n/a	-1	1.0	1.0	1	upper	Verdana.ttf
1634.754	n/a	WORD	817377	wordpools/wasnorm_wordpool.txt	LTP097	ltpFR	2	9	-1	CAFETERIA	217	n/a	n/a	-1	1.0	1.0	1	upper	Verdana.ttf
1638.866	n/a	WORD	819433	wordpools/wasnorm_wordpool.txt	LTP097	ltpFR	2	9	-1	BRICK	172	n/a	n/a	-1	1.0	1.0	1	upper	Verdana.ttf
1643.068	n/a	WORD	821534	wordpools/wasnorm_wordpool.txt	LTP097	ltpFR	2	9	-1	ORGAN	984	n/a	n/a	-1	1.0	1.0	1	upper	Verdana.ttf
1646.98	n/a	WORD	823490	wordpools/wasnorm_wordpool.txt	LTP097	ltpFR	2	9	-1	OPERA	978	n/a	n/a	-1	1.0	1.0	1	upper	Verdana.ttf
1651.052	n/a	WORD	825526	wordpools/wasnorm_wordpool.txt	LTP097	ltpFR	2	9	-1	MOTEL	919	n/a	n/a	-1	1.0	1.0	1	upper	Verdana.ttf
1655.022	n/a	WORD	827511	wordpools/wasnorm_wordpool.txt	LTP097	ltpFR	2	9	-1	PUDDING	1139	n/a	n/a	-1	1.0	1.0	1	upper	Verdana.ttf
1659.026	n/a	WORD	829513	wordpools/wasnorm_wordpool.txt	LTP097	ltpFR	2	9	-1	BARRACUDA	90	n/a	n/a	-1	1.0	1.0	1	upper	Verdana.ttf
1663.196	n/a	WORD	831598	wordpools/wasnorm_wordpool.txt	LTP097	ltpFR	2	9	-1	FAMILY	550	n/a	n/a	-1	1.0	1.0	1	upper	Verdana.ttf
1667.208	n/a	WORD	833604	wordpools/wasnorm_wordpool.txt	LTP097	ltpFR	2	9	-1	CUBE	420	n/a	n/a	-1	1.0	1.0	1	upper	Verdana.ttf
1673.078	n/a	REC_START	836539	n/a	LTP097	ltpFR	2	9	n/a	n/a	n/a	n/a	n/a	n/a	n/a	n/a	n/a	n/a	n/a
1674.304	n/a	REC_WORD	837152	wordpools/wasnorm_wordpool.txt	LTP097	ltpFR	2	9	-1	FAMILY	550	n/a	n/a	-1	n/a	n/a	n/a	n/a	n/a
1675.088	n/a	REC_WORD	837544	wordpools/wasnorm_wordpool.txt	LTP097	ltpFR	2	9	-1	CUBE	420	n/a	n/a	-1	n/a	n/a	n/a	n/a	n/a
1675.836	n/a	REC_WORD	837918	wordpools/wasnorm_wordpool.txt	LTP097	ltpFR	2	9	-1	BARRACUDA	90	n/a	n/a	-1	n/a	n/a	n/a	n/a	n/a
1677.762	n/a	REC_WORD	838881	wordpools/wasnorm_wordpool.txt	LTP097	ltpFR	2	9	-1	MOTEL	919	n/a	n/a	-1	n/a	n/a	n/a	n/a	n/a
1679.422	n/a	REC_WORD	839711	wordpools/wasnorm_wordpool.txt	LTP097	ltpFR	2	9	-1	PUDDING	1139	n/a	n/a	-1	n/a	n/a	n/a	n/a	n/a
1681.348	n/a	REC_WORD	840674	wordpools/wasnorm_wordpool.txt	LTP097	ltpFR	2	9	-1	OPERA	978	n/a	n/a	-1	n/a	n/a	n/a	n/a	n/a
1684.91	n/a	REC_WORD	842455	wordpools/wasnorm_wordpool.txt	LTP097	ltpFR	2	9	-1	ORGAN	984	n/a	n/a	-1	n/a	n/a	n/a	n/a	n/a
1685.804	n/a	REC_WORD	842902	wordpools/wasnorm_wordpool.txt	LTP097	ltpFR	2	9	-1	CAFETERIA	217	n/a	n/a	-1	n/a	n/a	n/a	n/a	n/a
1689.544	n/a	REC_WORD	844772	wordpools/wasnorm_wordpool.txt	LTP097	ltpFR	2	9	-1	BRICK	172	n/a	n/a	-1	n/a	n/a	n/a	n/a	n/a
1690.144	n/a	REC_WORD	845072	wordpools/wasnorm_wordpool.txt	LTP097	ltpFR	2	9	-1	MOSQUITO	917	n/a	n/a	-1	n/a	n/a	n/a	n/a	n/a
1692.178	n/a	REC_WORD	846089	wordpools/wasnorm_wordpool.txt	LTP097	ltpFR	2	9	-1	CRICKET	408	n/a	n/a	-1	n/a	n/a	n/a	n/a	n/a
1698.096	n/a	REC_WORD	849048	wordpools/wasnorm_wordpool.txt	LTP097	ltpFR	2	9	-1	GRILL	661	n/a	n/a	-1	n/a	n/a	n/a	n/a	n/a
1699.154	n/a	REC_WORD	849577	wordpools/wasnorm_wordpool.txt	LTP097	ltpFR	2	9	-1	NET	946	n/a	n/a	-1	n/a	n/a	n/a	n/a	n/a
1699.872	n/a	REC_WORD	849936	wordpools/wasnorm_wordpool.txt	LTP097	ltpFR	2	9	-1	PEPPER	1047	n/a	n/a	-1	n/a	n/a	n/a	n/a	n/a
1700.784	n/a	REC_WORD	850392	wordpools/wasnorm_wordpool.txt	LTP097	ltpFR	2	9	-1	ROOST	1208	n/a	n/a	-1	n/a	n/a	n/a	n/a	n/a
1702.326	n/a	REC_WORD	851163	wordpools/wasnorm_wordpool.txt	LTP097	ltpFR	2	9	-1	COUSIN	392	n/a	n/a	-1	n/a	n/a	n/a	n/a	n/a
1759.91	n/a	WORD	879955	wordpools/wasnorm_wordpool.txt	LTP097	ltpFR	2	10	1	ANCHOR	21	n/a	n/a	1	0.57763671875	0.412841796875	1	lower	zerothre.ttf
1763.988	n/a	WORD	881994	wordpools/wasnorm_wordpool.txt	LTP097	ltpFR	2	10	1	VIKING	1565	n/a	n/a	1	0.57763671875	0.412841796875	1	lower	zerothre.ttf
1767.81	n/a	WORD	883905	wordpools/wasnorm_wordpool.txt	LTP097	ltpFR	2	10	1	PRISON	1127	n/a	n/a	0	0.57763671875	0.412841796875	1	lower	zerothre.ttf
1771.796	n/a	WORD	885898	wordpools/wasnorm_wordpool.txt	LTP097	ltpFR	2	10	1	BACK	65	n/a	n/a	1	0.57763671875	0.412841796875	1	lower	zerothre.ttf
1775.85	n/a	WORD	887925	wordpools/wasnorm_wordpool.txt	LTP097	ltpFR	2	10	1	HERD	705	n/a	n/a	0	0.57763671875	0.412841796875	1	lower	zerothre.ttf
1779.788	n/a	WORD	889894	wordpools/wasnorm_wordpool.txt	LTP097	ltpFR	2	10	1	BARN	89	n/a	n/a	1	0.57763671875	0.412841796875	1	lower	zerothre.ttf
1783.74	n/a	WORD	891870	wordpools/wasnorm_wordpool.txt	LTP097	ltpFR	2	10	1	TOOL	1480	n/a	n/a	1	0.57763671875	0.412841796875	1	lower	zerothre.ttf
1787.646	n/a	WORD	893823	wordpools/wasnorm_wordpool.txt	LTP097	ltpFR	2	10	1	KID	775	n/a	n/a	n/a	0.57763671875	0.412841796875	1	lower	zerothre.ttf
1790.666	n/a	SLOW_MSG	895333	n/a	LTP097	ltpFR	2	10	n/a	n/a	n/a	n/a	n/a	n/a	n/a	n/a	n/a	n/a	n/a
1793.372	n/a	WORD	896686	wordpools/wasnorm_wordpool.txt	LTP097	ltpFR	2	10	1	APRON	35	n/a	n/a	0	0.57763671875	0.412841796875	1	lower	zerothre.ttf
1797.36	n/a	WORD	898680	wordpools/wasnorm_wordpool.txt	LTP097	ltpFR	2	10	1	SALOON	1228	n/a	n/a	1	0.57763671875	0.412841796875	1	lower	zerothre.ttf
1801.412	n/a	WORD	900706	wordpools/wasnorm_wordpool.txt	LTP097	ltpFR	2	10	1	FEAST	556	n/a	n/a	0	0.57763671875	0.412841796875	1	lower	zerothre.ttf
1805.3	n/a	WORD	902650	wordpools/wasnorm_wordpool.txt	LTP097	ltpFR	2	10	1	BUTCHER	203	n/a	n/a	1	0.57763671875	0.412841796875	1	lower	zerothre.ttf
1809.446	n/a	WORD	904723	wordpools/wasnorm_wordpool.txt	LTP097	ltpFR	2	10	1	BONE	148	n/a	n/a	0	0.57763671875	0.412841796875	1	lower	zerothre.ttf
1813.324	n/a	WORD	906662	wordpools/wasnorm_wordpool.txt	LTP097	ltpFR	2	10	1	CRACKER	398	n/a	n/a	1	0.57763671875	0.412841796875	1	lower	zerothre.ttf
1817.37	n/a	WORD	908685	wordpools/wasnorm_wordpool.txt	LTP097	ltpFR	2	10	1	DRAWER	493	n/a	n/a	0	0.57763671875	0.412841796875	1	lower	zerothre.ttf
1821.308	n/a	WORD	910654	wordpools/wasnorm_wordpool.txt	LTP097	ltpFR	2	10	1	HOSTAGE	722	n/a	n/a	1	0.57763671875	0.412841796875	1	lower	zerothre.ttf
1826.968	n/a	REC_START	913484	n/a	LTP097	ltpFR	2	10	n/a	n/a	n/a	n/a	n/a	n/a	n/a	n/a	n/a	n/a	n/a
1828.804	n/a	REC_WORD	914402	wordpools/wasnorm_wordpool.txt	LTP097	ltpFR	2	10	1	DRAWER	493	n/a	n/a	0	n/a	n/a	n/a	n/a	n/a
1829.354	n/a	REC_WORD	914677	wordpools/wasnorm_wordpool.txt	LTP097	ltpFR	2	10	1	HOSTAGE	722	n/a	n/a	1	n/a	n/a	n/a	n/a	n/a
1830.264	n/a	REC_WORD	915132	wordpools/wasnorm_wordpool.txt	LTP097	ltpFR	2	10	1	SALOON	1228	n/a	n/a	1	n/a	n/a	n/a	n/a	n/a
1831.062	n/a	REC_WORD	915531	wordpools/wasnorm_wordpool.txt	LTP097	ltpFR	2	10	1	FEAST	556	n/a	n/a	0	n/a	n/a	n/a	n/a	n/a
1833.058	n/a	REC_WORD	916529	wordpools/wasnorm_wordpool.txt	LTP097	ltpFR	2	10	1	BUTCHER	203	n/a	n/a	1	n/a	n/a	n/a	n/a	n/a
1833.876	n/a	REC_WORD	916938	wordpools/wasnorm_wordpool.txt	LTP097	ltpFR	2	10	1	BONE	148	n/a	n/a	0	n/a	n/a	n/a	n/a	n/a
1834.446	n/a	REC_WORD	917223	wordpools/wasnorm_wordpool.txt	LTP097	ltpFR	2	10	1	CRACKER	398	n/a	n/a	1	n/a	n/a	n/a	n/a	n/a
1839.774	n/a	REC_WORD	919887	wordpools/wasnorm_wordpool.txt	LTP097	ltpFR	2	10	1	APRON	35	n/a	n/a	0	n/a	n/a	n/a	n/a	n/a
1840.622	n/a	REC_WORD	920311	wordpools/wasnorm_wordpool.txt	LTP097	ltpFR	2	10	1	KID	775	n/a	n/a	n/a	n/a	n/a	n/a	n/a	n/a
1841.808	n/a	REC_WORD	920904	wordpools/wasnorm_wordpool.txt	LTP097	ltpFR	2	10	1	TOOL	1480	n/a	n/a	1	n/a	n/a	n/a	n/a	n/a
1842.632	n/a	REC_WORD	921316	wordpools/wasnorm_wordpool.txt	LTP097	ltpFR	2	10	1	BARN	89	n/a	n/a	1	n/a	n/a	n/a	n/a	n/a
1843.474	n/a	REC_WORD	921737	wordpools/wasnorm_wordpool.txt	LTP097	ltpFR	2	10	1	HERD	705	n/a	n/a	0	n/a	n/a	n/a	n/a	n/a
1845.46	n/a	REC_WORD	922730	wordpools/wasnorm_wordpool.txt	LTP097	ltpFR	2	10	1	BACK	65	n/a	n/a	1	n/a	n/a	n/a	n/a	n/a
1864.822	n/a	REC_WORD	932411	wordpools/wasnorm_wordpool.txt	LTP097	ltpFR	2	10	1	PRISON	1127	n/a	n/a	0	n/a	n/a	n/a	n/a	n/a
1866.158	n/a	REC_WORD	933079	wordpools/wasnorm_wordpool.txt	LTP097	ltpFR	2	10	1	VIKING	1565	n/a	n/a	1	n/a	n/a	n/a	n/a	n/a
1867.106	n/a	REC_WORD	933553	wordpools/wasnorm_wordpool.txt	LTP097	ltpFR	2	10	1	ANCHOR	21	n/a	n/a	1	n/a	n/a	n/a	n/a	n/a
1914.758	n/a	WORD	957379	wordpools/wasnorm_wordpool.txt	LTP097	ltpFR	2	11	1	PADDING	999	n/a	n/a	0	0.57763671875	0.412841796875	1	lower	zerothre.ttf
1918.944	n/a	WORD	959472	wordpools/wasnorm_wordpool.txt	LTP097	ltpFR	2	11	1	APPLICATION	34	n/a	n/a	1	0.57763671875	0.412841796875	1	lower	zerothre.ttf
1922.956	n/a	WORD	961478	wordpools/wasnorm_wordpool.txt	LTP097	ltpFR	2	11	1	CLOTHES	327	n/a	n/a	0	0.57763671875	0.412841796875	1	lower	zerothre.ttf
1927.11	n/a	WORD	963555	wordpools/wasnorm_wordpool.txt	LTP097	ltpFR	2	11	1	BALLOT	76	n/a	n/a	1	0.57763671875	0.412841796875	1	lower	zerothre.ttf
1931.188	n/a	WORD	965594	wordpools/wasnorm_wordpool.txt	LTP097	ltpFR	2	11	1	BUGLE	189	n/a	n/a	0	0.57763671875	0.412841796875	1	lower	zerothre.ttf
1935.116	n/a	WORD	967558	wordpools/wasnorm_wordpool.txt	LTP097	ltpFR	2	11	0	TAPE	1433	n/a	n/a	1	0.422607421875	0.5869140625	0	upper	amplitud.ttf
1939.078	n/a	WORD	969539	wordpools/wasnorm_wordpool.txt	LTP097	ltpFR	2	11	0	CIRCUS	311	n/a	n/a	0	0.422607421875	0.5869140625	0	upper	amplitud.ttf
1943.14	n/a	WORD	971570	wordpools/wasnorm_wordpool.txt	LTP097	ltpFR	2	11	1	CAR	241	n/a	n/a	1	0.57763671875	0.412841796875	1	lower	zerothre.ttf
1947.262	n/a	WORD	973631	wordpools/wasnorm_wordpool.txt	LTP097	ltpFR	2	11	1	PUCK	1138	n/a	n/a	0	0.57763671875	0.412841796875	1	lower	zerothre.ttf
1951.424	n/a	WORD	975712	wordpools/wasnorm_wordpool.txt	LTP097	ltpFR	2	11	1	REFEREE	1178	n/a	n/a	1	0.57763671875	0.412841796875	1	lower	zerothre.ttf
1955.436	n/a	WORD	977718	wordpools/wasnorm_wordpool.txt	LTP097	ltpFR	2	11	0	VAN	1548	n/a	n/a	1	0.422607421875	0.5869140625	0	upper	amplitud.ttf
1959.556	n/a	WORD	979778	wordpools/wasnorm_wordpool.txt	LTP097	ltpFR	2	11	0	SEAT	1264	n/a	n/a	1	0.422607421875	0.5869140625	0	upper	amplitud.ttf
1963.66	n/a	WORD	981830	wordpools/wasnorm_wordpool.txt	LTP097	ltpFR	2	11	0	GIRAFFE	636	n/a	n/a	1	0.422607421875	0.5869140625	0	upper	amplitud.ttf
1967.728	n/a	WORD	983864	wordpools/wasnorm_wordpool.txt	LTP097	ltpFR	2	11	0	NIECE	952	n/a	n/a	0	0.422607421875	0.5869140625	0	upper	amplitud.ttf
1971.684	n/a	WORD	985842	wordpools/wasnorm_wordpool.txt	LTP097	ltpFR	2	11	0	OWNER	993	n/a	n/a	1	0.422607421875	0.5869140625	0	upper	amplitud.ttf
1975.854	n/a	WORD	987927	wordpools/wasnorm_wordpool.txt	LTP097	ltpFR	2	11	0	BUYER	208	n/a	n/a	0	0.422607421875	0.5869140625	0	upper	amplitud.ttf
1981.574	n/a	REC_START	990787	n/a	LTP097	ltpFR	2	11	n/a	n/a	n/a	n/a	n/a	n/a	n/a	n/a	n/a	n/a	n/a
1982.37	n/a	REC_WORD	991185	wordpools/wasnorm_wordpool.txt	LTP097	ltpFR	2	11	0	BUYER	208	n/a	n/a	0	n/a	n/a	n/a	n/a	n/a
1983.34	n/a	REC_WORD	991670	wordpools/wasnorm_wordpool.txt	LTP097	ltpFR	2	11	0	OWNER	993	n/a	n/a	1	n/a	n/a	n/a	n/a	n/a
1984.032	n/a	REC_WORD	992016	wordpools/wasnorm_wordpool.txt	LTP097	ltpFR	2	11	0	NIECE	952	n/a	n/a	0	n/a	n/a	n/a	n/a	n/a
1984.936	n/a	REC_WORD	992468	wordpools/wasnorm_wordpool.txt	LTP097	ltpFR	2	11	0	GIRAFFE	636	n/a	n/a	1	n/a	n/a	n/a	n/a	n/a
1986.242	n/a	REC_WORD	993121	wordpools/wasnorm_wordpool.txt	LTP097	ltpFR	2	11	0	SEAT	1264	n/a	n/a	1	n/a	n/a	n/a	n/a	n/a
1987.12	n/a	REC_WORD	993560	wordpools/wasnorm_wordpool.txt	LTP097	ltpFR	2	11	0	VAN	1548	n/a	n/a	1	n/a	n/a	n/a	n/a	n/a
1988.362	n/a	REC_WORD	994181	wordpools/wasnorm_wordpool.txt	LTP097	ltpFR	2	11	1	REFEREE	1178	n/a	n/a	1	n/a	n/a	n/a	n/a	n/a
1989.152	n/a	REC_WORD	994576	wordpools/wasnorm_wordpool.txt	LTP097	ltpFR	2	11	1	PUCK	1138	n/a	n/a	0	n/a	n/a	n/a	n/a	n/a
1991.45	n/a	REC_WORD	995725	wordpools/wasnorm_wordpool.txt	LTP097	ltpFR	2	11	1	CAR	241	n/a	n/a	1	n/a	n/a	n/a	n/a	n/a
1995.516	n/a	REC_WORD	997758	wordpools/wasnorm_wordpool.txt	LTP097	ltpFR	2	11	0	CIRCUS	311	n/a	n/a	0	n/a	n/a	n/a	n/a	n/a
2007.26	n/a	REC_WORD	1003630	wordpools/wasnorm_wordpool.txt	LTP097	ltpFR	2	11	0	TAPE	1433	n/a	n/a	1	n/a	n/a	n/a	n/a	n/a
2066.726	n/a	WORD	1033363	wordpools/wasnorm_wordpool.txt	LTP097	ltpFR	2	12	-1	LEADER	807	n/a	n/a	-1	1.0	1.0	1	upper	Verdana.ttf
2070.77	n/a	WORD	1035385	wordpools/wasnorm_wordpool.txt	LTP097	ltpFR	2	12	-1	HIP	710	n/a	n/a	-1	1.0	1.0	1	upper	Verdana.ttf
2074.84	n/a	WORD	1037420	wordpools/wasnorm_wordpool.txt	LTP097	ltpFR	2	12	-1	MILK	895	n/a	n/a	-1	1.0	1.0	1	upper	Verdana.ttf
2079.034	n/a	WORD	1039517	wordpools/wasnorm_wordpool.txt	LTP097	ltpFR	2	12	-1	SUN	1406	n/a	n/a	-1	1.0	1.0	1	upper	Verdana.ttf
2083.196	n/a	WORD	1041598	wordpools/wasnorm_wordpool.txt	LTP097	ltpFR	2	12	-1	RUNNER	1218	n/a	n/a	-1	1.0	1.0	1	upper	Verdana.ttf
2087.342	n/a	WORD	1043671	wordpools/wasnorm_wordpool.txt	LTP097	ltpFR	2	12	-1	EWE	542	n/a	n/a	-1	1.0	1.0	1	upper	Verdana.ttf
2091.272	n/a	WORD	1045636	wordpools/wasnorm_wordpool.txt	LTP097	ltpFR	2	12	-1	TREE	1502	n/a	n/a	-1	1.0	1.0	1	upper	Verdana.ttf
2095.358	n/a	WORD	1047679	wordpools/wasnorm_wordpool.txt	LTP097	ltpFR	2	12	-1	SOFTBALL	1343	n/a	n/a	-1	1.0	1.0	1	upper	Verdana.ttf
2099.296	n/a	WORD	1049648	wordpools/wasnorm_wordpool.txt	LTP097	ltpFR	2	12	-1	SUNRISE	1407	n/a	n/a	-1	1.0	1.0	1	upper	Verdana.ttf
2103.232	n/a	WORD	1051616	wordpools/wasnorm_wordpool.txt	LTP097	ltpFR	2	12	-1	BLUEBERRY	140	n/a	n/a	-1	1.0	1.0	1	upper	Verdana.ttf
2107.16	n/a	WORD	1053580	wordpools/wasnorm_wordpool.txt	LTP097	ltpFR	2	12	-1	MOUNTAIN	924	n/a	n/a	-1	1.0	1.0	1	upper	Verdana.ttf
2111.048	n/a	WORD	1055524	wordpools/wasnorm_wordpool.txt	LTP097	ltpFR	2	12	-1	SEAGULL	1261	n/a	n/a	-1	1.0	1.0	1	upper	Verdana.ttf
2114.868	n/a	WORD	1057434	wordpools/wasnorm_wordpool.txt	LTP097	ltpFR	2	12	-1	CANARY	227	n/a	n/a	-1	1.0	1.0	1	upper	Verdana.ttf
2118.988	n/a	WORD	1059494	wordpools/wasnorm_wordpool.txt	LTP097	ltpFR	2	12	-1	MINT	898	n/a	n/a	-1	1.0	1.0	1	upper	Verdana.ttf
2122.892	n/a	WORD	1061446	wordpools/wasnorm_wordpool.txt	LTP097	ltpFR	2	12	-1	COOKIE	374	n/a	n/a	-1	1.0	1.0	1	upper	Verdana.ttf
2126.906	n/a	WORD	1063453	wordpools/wasnorm_wordpool.txt	LTP097	ltpFR	2	12	-1	SHEPHERD	1283	n/a	n/a	-1	1.0	1.0	1	upper	Verdana.ttf
2132.608	n/a	REC_START	1066304	n/a	LTP097	ltpFR	2	12	n/a	n/a	n/a	n/a	n/a	n/a	n/a	n/a	n/a	n/a	n/a
2133.186	n/a	REC_WORD	1066593	wordpools/wasnorm_wordpool.txt	LTP097	ltpFR	2	12	-1	MINT	898	n/a	n/a	-1	n/a	n/a	n/a	n/a	n/a
2133.616	n/a	REC_WORD	1066808	wordpools/wasnorm_wordpool.txt	LTP097	ltpFR	2	12	-1	COOKIE	374	n/a	n/a	-1	n/a	n/a	n/a	n/a	n/a
2133.932	n/a	REC_WORD	1066966	wordpools/wasnorm_wordpool.txt	LTP097	ltpFR	2	12	-1	SHEPHERD	1283	n/a	n/a	-1	n/a	n/a	n/a	n/a	n/a
2137.282	n/a	REC_WORD	1068641	wordpools/wasnorm_wordpool.txt	LTP097	ltpFR	2	12	-1	EWE	542	n/a	n/a	-1	n/a	n/a	n/a	n/a	n/a
2137.982	n/a	REC_WORD	1068991	wordpools/wasnorm_wordpool.txt	LTP097	ltpFR	2	12	-1	RUNNER	1218	n/a	n/a	-1	n/a	n/a	n/a	n/a	n/a
2138.75	n/a	REC_WORD	1069375	wordpools/wasnorm_wordpool.txt	LTP097	ltpFR	2	12	-1	MILK	895	n/a	n/a	-1	n/a	n/a	n/a	n/a	n/a
2139.324	n/a	REC_WORD	1069662	wordpools/wasnorm_wordpool.txt	LTP097	ltpFR	2	12	-1	SUN	1406	n/a	n/a	-1	n/a	n/a	n/a	n/a	n/a
2145.694	n/a	REC_WORD	1072847	wordpools/wasnorm_wordpool.txt	LTP097	ltpFR	2	12	-1	HIP	710	n/a	n/a	-1	n/a	n/a	n/a	n/a	n/a
2146.062	n/a	REC_WORD	1073031	wordpools/wasnorm_wordpool.txt	LTP097	ltpFR	2	12	-1	LEADER	807	n/a	n/a	-1	n/a	n/a	n/a	n/a	n/a
2147.51	n/a	REC_WORD	1073755	wordpools/wasnorm_wordpool.txt	LTP097	ltpFR	2	12	-1	SUNRISE	1407	n/a	n/a	-1	n/a	n/a	n/a	n/a	n/a
2149.62	n/a	REC_WORD	1074810	wordpools/wasnorm_wordpool.txt	LTP097	ltpFR	2	12	-1	TREE	1502	n/a	n/a	-1	n/a	n/a	n/a	n/a	n/a
2150.284	n/a	REC_WORD	1075142	wordpools/wasnorm_wordpool.txt	LTP097	ltpFR	2	12	-1	CANARY	227	n/a	n/a	-1	n/a	n/a	n/a	n/a	n/a
2151.052	n/a	REC_WORD	1075526	wordpools/wasnorm_wordpool.txt	LTP097	ltpFR	2	12	-1	SEAGULL	1261	n/a	n/a	-1	n/a	n/a	n/a	n/a	n/a
2154.204	n/a	REC_WORD	1077102	wordpools/wasnorm_wordpool.txt	LTP097	ltpFR	2	12	-1	BLUEBERRY	140	n/a	n/a	-1	n/a	n/a	n/a	n/a	n/a
2154.998	n/a	REC_WORD	1077499	wordpools/wasnorm_wordpool.txt	LTP097	ltpFR	2	12	-1	SOFTBALL	1343	n/a	n/a	-1	n/a	n/a	n/a	n/a	n/a
2171.276	n/a	REC_WORD	1085638	wordpools/wasnorm_wordpool.txt	LTP097	ltpFR	2	12	-1	MOUNTAIN	924	n/a	n/a	-1	n/a	n/a	n/a	n/a	n/a
2208.178	n/a	REST_REWET	1104089	n/a	LTP097	ltpFR	2	12	n/a	n/a	n/a	n/a	n/a	n/a	n/a	n/a	n/a	n/a	n/a
2509.972	n/a	WORD	1254986	wordpools/wasnorm_wordpool.txt	LTP097	ltpFR	2	13	0	QUILT	1151	n/a	n/a	2	0.422607421875	0.5869140625	0	upper	amplitud.ttf
2510.682	n/a	KEY_MSG	1255341	n/a	LTP097	ltpFR	2	13	n/a	n/a	n/a	n/a	n/a	n/a	n/a	n/a	n/a	n/a	n/a
2513.786	n/a	WORD	1256893	wordpools/wasnorm_wordpool.txt	LTP097	ltpFR	2	13	0	INDIAN	736	n/a	n/a	0	0.422607421875	0.5869140625	0	upper	amplitud.ttf
2517.764	n/a	WORD	1258882	wordpools/wasnorm_wordpool.txt	LTP097	ltpFR	2	13	0	WARRIOR	1589	n/a	n/a	0	0.422607421875	0.5869140625	0	upper	amplitud.ttf
2521.662	n/a	WORD	1260831	wordpools/wasnorm_wordpool.txt	LTP097	ltpFR	2	13	0	JEANS	752	n/a	n/a	0	0.422607421875	0.5869140625	0	upper	amplitud.ttf
2525.664	n/a	WORD	1262832	wordpools/wasnorm_wordpool.txt	LTP097	ltpFR	2	13	1	LION	827	n/a	n/a	1	0.57763671875	0.412841796875	1	lower	zerothre.ttf
2529.858	n/a	WORD	1264929	wordpools/wasnorm_wordpool.txt	LTP097	ltpFR	2	13	1	HIGHWAY	707	n/a	n/a	1	0.57763671875	0.412841796875	1	lower	zerothre.ttf
2533.672	n/a	WORD	1266836	wordpools/wasnorm_wordpool.txt	LTP097	ltpFR	2	13	1	HAMMOCK	681	n/a	n/a	0	0.57763671875	0.412841796875	1	lower	zerothre.ttf
2537.858	n/a	WORD	1268929	wordpools/wasnorm_wordpool.txt	LTP097	ltpFR	2	13	0	ICE	730	n/a	n/a	1	0.422607421875	0.5869140625	0	upper	amplitud.ttf
2541.736	n/a	WORD	1270868	wordpools/wasnorm_wordpool.txt	LTP097	ltpFR	2	13	0	PARTNER	1017	n/a	n/a	0	0.422607421875	0.5869140625	0	upper	amplitud.ttf
2545.65	n/a	WORD	1272825	wordpools/wasnorm_wordpool.txt	LTP097	ltpFR	2	13	1	TAR	1435	n/a	n/a	1	0.57763671875	0.412841796875	1	lower	zerothre.ttf
2549.612	n/a	WORD	1274806	wordpools/wasnorm_wordpool.txt	LTP097	ltpFR	2	13	1	SLIDE	1326	n/a	n/a	0	0.57763671875	0.412841796875	1	lower	zerothre.ttf
2553.708	n/a	WORD	1276854	wordpools/wasnorm_wordpool.txt	LTP097	ltpFR	2	13	1	DAISY	435	n/a	n/a	1	0.57763671875	0.412841796875	1	lower	zerothre.ttf
2557.636	n/a	WORD	1278818	wordpools/wasnorm_wordpool.txt	LTP097	ltpFR	2	13	1	LAPEL	800	n/a	n/a	0	0.57763671875	0.412841796875	1	lower	zerothre.ttf
2561.59	n/a	WORD	1280795	wordpools/wasnorm_wordpool.txt	LTP097	ltpFR	2	13	1	FLAG	573	n/a	n/a	1	0.57763671875	0.412841796875	1	lower	zerothre.ttf
2565.702	n/a	WORD	1282851	wordpools/wasnorm_wordpool.txt	LTP097	ltpFR	2	13	0	BANNER	85	n/a	n/a	1	0.422607421875	0.5869140625	0	upper	amplitud.ttf
2569.896	n/a	WORD	1284948	wordpools/wasnorm_wordpool.txt	LTP097	ltpFR	2	13	0	ROACH	1195	n/a	n/a	0	0.422607421875	0.5869140625	0	upper	amplitud.ttf
2575.648	n/a	REC_START	1287824	n/a	LTP097	ltpFR	2	13	n/a	n/a	n/a	n/a	n/a	n/a	n/a	n/a	n/a	n/a	n/a
2577.5	n/a	REC_WORD	1288750	wordpools/wasnorm_wordpool.txt	LTP097	ltpFR	2	13	0	BANNER	85	n/a	n/a	1	n/a	n/a	n/a	n/a	n/a
2578.252	n/a	REC_WORD	1289126	wordpools/wasnorm_wordpool.txt	LTP097	ltpFR	2	13	0	ROACH	1195	n/a	n/a	0	n/a	n/a	n/a	n/a	n/a
2579.224	n/a	REC_WORD	1289612	wordpools/wasnorm_wordpool.txt	LTP097	ltpFR	2	13	1	LAPEL	800	n/a	n/a	0	n/a	n/a	n/a	n/a	n/a
2580.582	n/a	REC_WORD	1290291	wordpools/wasnorm_wordpool.txt	LTP097	ltpFR	2	13	1	DAISY	435	n/a	n/a	1	n/a	n/a	n/a	n/a	n/a
2581.74	n/a	REC_WORD	1290870	wordpools/wasnorm_wordpool.txt	LTP097	ltpFR	2	13	0	INDIAN	736	n/a	n/a	0	n/a	n/a	n/a	n/a	n/a
2582.572	n/a	REC_WORD	1291286	wordpools/wasnorm_wordpool.txt	LTP097	ltpFR	2	13	0	WARRIOR	1589	n/a	n/a	0	n/a	n/a	n/a	n/a	n/a
2589.692	n/a	REC_WORD	1294846	wordpools/wasnorm_wordpool.txt	LTP097	ltpFR	2	13	1	HAMMOCK	681	n/a	n/a	0	n/a	n/a	n/a	n/a	n/a
2590.69	n/a	REC_WORD	1295345	wordpools/wasnorm_wordpool.txt	LTP097	ltpFR	2	13	1	HIGHWAY	707	n/a	n/a	1	n/a	n/a	n/a	n/a	n/a
2665.602	n/a	WORD	1332801	wordpools/wasnorm_wordpool.txt	LTP097	ltpFR	2	14	-1	WITCH	1617	n/a	n/a	-1	1.0	1.0	1	upper	Verdana.ttf
2669.482	n/a	WORD	1334741	wordpools/wasnorm_wordpool.txt	LTP097	ltpFR	2	14	-1	WAND	1586	n/a	n/a	-1	1.0	1.0	1	upper	Verdana.ttf
2673.686	n/a	WORD	1336843	wordpools/wasnorm_wordpool.txt	LTP097	ltpFR	2	14	-1	FLOWER	584	n/a	n/a	-1	1.0	1.0	1	upper	Verdana.ttf
2677.498	n/a	WORD	1338749	wordpools/wasnorm_wordpool.txt	LTP097	ltpFR	2	14	-1	HOUSE	725	n/a	n/a	-1	1.0	1.0	1	upper	Verdana.ttf
2681.46	n/a	WORD	1340730	wordpools/wasnorm_wordpool.txt	LTP097	ltpFR	2	14	-1	OTTER	986	n/a	n/a	-1	1.0	1.0	1	upper	Verdana.ttf
2685.48	n/a	WORD	1342740	wordpools/wasnorm_wordpool.txt	LTP097	ltpFR	2	14	-1	COAT	333	n/a	n/a	-1	1.0	1.0	1	upper	Verdana.ttf
2689.352	n/a	WORD	1344676	wordpools/wasnorm_wordpool.txt	LTP097	ltpFR	2	14	-1	LITERATURE	831	n/a	n/a	-1	1.0	1.0	1	upper	Verdana.ttf
2693.23	n/a	WORD	1346615	wordpools/wasnorm_wordpool.txt	LTP097	ltpFR	2	14	-1	DETERGENT	455	n/a	n/a	-1	1.0	1.0	1	upper	Verdana.ttf
2697.392	n/a	WORD	1348696	wordpools/wasnorm_wordpool.txt	LTP097	ltpFR	2	14	-1	SHOWER	1296	n/a	n/a	-1	1.0	1.0	1	upper	Verdana.ttf
2701.512	n/a	WORD	1350756	wordpools/wasnorm_wordpool.txt	LTP097	ltpFR	2	14	-1	LOCK	838	n/a	n/a	-1	1.0	1.0	1	upper	Verdana.ttf
2705.45	n/a	WORD	1352725	wordpools/wasnorm_wordpool.txt	LTP097	ltpFR	2	14	-1	SARDINE	1235	n/a	n/a	-1	1.0	1.0	1	upper	Verdana.ttf
2709.594	n/a	WORD	1354797	wordpools/wasnorm_wordpool.txt	LTP097	ltpFR	2	14	-1	COD	340	n/a	n/a	-1	1.0	1.0	1	upper	Verdana.ttf
2713.456	n/a	WORD	1356728	wordpools/wasnorm_wordpool.txt	LTP097	ltpFR	2	14	-1	KEY	773	n/a	n/a	-1	1.0	1.0	1	upper	Verdana.ttf
2717.36	n/a	WORD	1358680	wordpools/wasnorm_wordpool.txt	LTP097	ltpFR	2	14	-1	LAGOON	795	n/a	n/a	-1	1.0	1.0	1	upper	Verdana.ttf
2721.23	n/a	WORD	1360615	wordpools/wasnorm_wordpool.txt	LTP097	ltpFR	2	14	-1	COLUMN	350	n/a	n/a	-1	1.0	1.0	1	upper	Verdana.ttf
2725.126	n/a	WORD	1362563	wordpools/wasnorm_wordpool.txt	LTP097	ltpFR	2	14	-1	COP	376	n/a	n/a	-1	1.0	1.0	1	upper	Verdana.ttf
2730.928	n/a	REC_START	1365464	n/a	LTP097	ltpFR	2	14	n/a	n/a	n/a	n/a	n/a	n/a	n/a	n/a	n/a	n/a	n/a
2731.72	n/a	REC_WORD	1365860	wordpools/wasnorm_wordpool.txt	LTP097	ltpFR	2	14	-1	COLUMN	350	n/a	n/a	-1	n/a	n/a	n/a	n/a	n/a
2732.718	n/a	REC_WORD	1366359	wordpools/wasnorm_wordpool.txt	LTP097	ltpFR	2	14	-1	COP	376	n/a	n/a	-1	n/a	n/a	n/a	n/a	n/a
2733.596	n/a	REC_WORD	1366798	wordpools/wasnorm_wordpool.txt	LTP097	ltpFR	2	14	-1	LAGOON	795	n/a	n/a	-1	n/a	n/a	n/a	n/a	n/a
2734.504	n/a	REC_WORD	1367252	wordpools/wasnorm_wordpool.txt	LTP097	ltpFR	2	14	-1	SARDINE	1235	n/a	n/a	-1	n/a	n/a	n/a	n/a	n/a
2735.776	n/a	REC_WORD	1367888	wordpools/wasnorm_wordpool.txt	LTP097	ltpFR	2	14	-1	COD	340	n/a	n/a	-1	n/a	n/a	n/a	n/a	n/a
2737.118	n/a	REC_WORD	1368559	wordpools/wasnorm_wordpool.txt	LTP097	ltpFR	2	14	-1	LOCK	838	n/a	n/a	-1	n/a	n/a	n/a	n/a	n/a
2738.226	n/a	REC_WORD	1369113	wordpools/wasnorm_wordpool.txt	LTP097	ltpFR	2	14	-1	KEY	773	n/a	n/a	-1	n/a	n/a	n/a	n/a	n/a
2739.158	n/a	REC_WORD	1369579	wordpools/wasnorm_wordpool.txt	LTP097	ltpFR	2	14	-1	SHOWER	1296	n/a	n/a	-1	n/a	n/a	n/a	n/a	n/a
2740.26	n/a	REC_WORD	1370130	wordpools/wasnorm_wordpool.txt	LTP097	ltpFR	2	14	-1	DETERGENT	455	n/a	n/a	-1	n/a	n/a	n/a	n/a	n/a
2741.898	n/a	REC_WORD	1370949	wordpools/wasnorm_wordpool.txt	LTP097	ltpFR	2	14	-1	LITERATURE	831	n/a	n/a	-1	n/a	n/a	n/a	n/a	n/a
2745.1	n/a	REC_WORD	1372550	wordpools/wasnorm_wordpool.txt	LTP097	ltpFR	2	14	-1	HOUSE	725	n/a	n/a	-1	n/a	n/a	n/a	n/a	n/a
2749.292	n/a	REC_WORD	1374646	wordpools/wasnorm_wordpool.txt	LTP097	ltpFR	2	14	-1	OTTER	986	n/a	n/a	-1	n/a	n/a	n/a	n/a	n/a
2750.24	n/a	REC_WORD	1375120	wordpools/wasnorm_wordpool.txt	LTP097	ltpFR	2	14	-1	COAT	333	n/a	n/a	-1	n/a	n/a	n/a	n/a	n/a
2752.15	n/a	REC_WORD	1376075	wordpools/wasnorm_wordpool.txt	LTP097	ltpFR	2	14	-1	WITCH	1617	n/a	n/a	-1	n/a	n/a	n/a	n/a	n/a
2752.704	n/a	REC_WORD	1376352	wordpools/wasnorm_wordpool.txt	LTP097	ltpFR	2	14	-1	WAND	1586	n/a	n/a	-1	n/a	n/a	n/a	n/a	n/a
2753.192	n/a	REC_WORD	1376596	wordpools/wasnorm_wordpool.txt	LTP097	ltpFR	2	14	-1	FLOWER	584	n/a	n/a	-1	n/a	n/a	n/a	n/a	n/a
2822.73	n/a	WORD	1411365	wordpools/wasnorm_wordpool.txt	LTP097	ltpFR	2	15	1	NAVIGATOR	938	n/a	n/a	1	0.57763671875	0.412841796875	1	lower	zerothre.ttf
2826.728	n/a	WORD	1413364	wordpools/wasnorm_wordpool.txt	LTP097	ltpFR	2	15	1	CACTUS	215	n/a	n/a	0	0.57763671875	0.412841796875	1	lower	zerothre.ttf
2830.564	n/a	WORD	1415282	wordpools/wasnorm_wordpool.txt	LTP097	ltpFR	2	15	1	DIGGER	464	n/a	n/a	0	0.57763671875	0.412841796875	1	lower	zerothre.ttf
2834.51	n/a	WORD	1417255	wordpools/wasnorm_wordpool.txt	LTP097	ltpFR	2	15	1	GIRL	637	n/a	n/a	1	0.57763671875	0.412841796875	1	lower	zerothre.ttf
2838.48	n/a	WORD	1419240	wordpools/wasnorm_wordpool.txt	LTP097	ltpFR	2	15	1	PIRATE	1074	n/a	n/a	0	0.57763671875	0.412841796875	1	lower	zerothre.ttf
2842.518	n/a	WORD	1421259	wordpools/wasnorm_wordpool.txt	LTP097	ltpFR	2	15	1	ITEM	746	n/a	n/a	1	0.57763671875	0.412841796875	1	lower	zerothre.ttf
2846.554	n/a	WORD	1423277	wordpools/wasnorm_wordpool.txt	LTP097	ltpFR	2	15	1	TWIG	1527	n/a	n/a	0	0.57763671875	0.412841796875	1	lower	zerothre.ttf
2850.392	n/a	WORD	1425196	wordpools/wasnorm_wordpool.txt	LTP097	ltpFR	2	15	1	BOY	161	n/a	n/a	1	0.57763671875	0.412841796875	1	lower	zerothre.ttf
2854.312	n/a	WORD	1427156	wordpools/wasnorm_wordpool.txt	LTP097	ltpFR	2	15	1	DRAGON	492	n/a	n/a	0	0.57763671875	0.412841796875	1	lower	zerothre.ttf
2858.34	n/a	WORD	1429170	wordpools/wasnorm_wordpool.txt	LTP097	ltpFR	2	15	1	SCALE	1241	n/a	n/a	1	0.57763671875	0.412841796875	1	lower	zerothre.ttf
2862.528	n/a	WORD	1431264	wordpools/wasnorm_wordpool.txt	LTP097	ltpFR	2	15	1	BRIDGE	174	n/a	n/a	0	0.57763671875	0.412841796875	1	lower	zerothre.ttf
2866.414	n/a	WORD	1433207	wordpools/wasnorm_wordpool.txt	LTP097	ltpFR	2	15	1	STEAM	1375	n/a	n/a	1	0.57763671875	0.412841796875	1	lower	zerothre.ttf
2870.426	n/a	WORD	1435213	wordpools/wasnorm_wordpool.txt	LTP097	ltpFR	2	15	1	RIDER	1191	n/a	n/a	0	0.57763671875	0.412841796875	1	lower	zerothre.ttf
2874.514	n/a	WORD	1437257	wordpools/wasnorm_wordpool.txt	LTP097	ltpFR	2	15	1	COLT	349	n/a	n/a	1	0.57763671875	0.412841796875	1	lower	zerothre.ttf
2878.508	n/a	WORD	1439254	wordpools/wasnorm_wordpool.txt	LTP097	ltpFR	2	15	1	MISSILE	900	n/a	n/a	0	0.57763671875	0.412841796875	1	lower	zerothre.ttf
2882.704	n/a	WORD	1441352	wordpools/wasnorm_wordpool.txt	LTP097	ltpFR	2	15	1	SPACE	1345	n/a	n/a	0	0.57763671875	0.412841796875	1	lower	zerothre.ttf
2888.422	n/a	REC_START	1444211	n/a	LTP097	ltpFR	2	15	n/a	n/a	n/a	n/a	n/a	n/a	n/a	n/a	n/a	n/a	n/a
2889.376	n/a	REC_WORD	1444688	wordpools/wasnorm_wordpool.txt	LTP097	ltpFR	2	15	1	SPACE	1345	n/a	n/a	0	n/a	n/a	n/a	n/a	n/a
2890.628	n/a	REC_WORD	1445314	wordpools/wasnorm_wordpool.txt	LTP097	ltpFR	2	15	1	MISSILE	900	n/a	n/a	0	n/a	n/a	n/a	n/a	n/a
2892.104	n/a	REC_WORD	1446052	wordpools/wasnorm_wordpool.txt	LTP097	ltpFR	2	15	1	STEAM	1375	n/a	n/a	1	n/a	n/a	n/a	n/a	n/a
2893.736	n/a	REC_WORD	1446868	wordpools/wasnorm_wordpool.txt	LTP097	ltpFR	2	15	1	BRIDGE	174	n/a	n/a	0	n/a	n/a	n/a	n/a	n/a
2895.062	n/a	REC_WORD	1447531	wordpools/wasnorm_wordpool.txt	LTP097	ltpFR	2	15	1	COLT	349	n/a	n/a	1	n/a	n/a	n/a	n/a	n/a
2896.15	n/a	REC_WORD	1448075	wordpools/wasnorm_wordpool.txt	LTP097	ltpFR	2	15	1	RIDER	1191	n/a	n/a	0	n/a	n/a	n/a	n/a	n/a
2898.544	n/a	REC_WORD	1449272	wordpools/wasnorm_wordpool.txt	LTP097	ltpFR	2	15	1	DRAGON	492	n/a	n/a	0	n/a	n/a	n/a	n/a	n/a
2900.16	n/a	REC_WORD	1450080	wordpools/wasnorm_wordpool.txt	LTP097	ltpFR	2	15	1	BOY	161	n/a	n/a	1	n/a	n/a	n/a	n/a	n/a
2901.31	n/a	REC_WORD	1450655	wordpools/wasnorm_wordpool.txt	LTP097	ltpFR	2	15	1	TWIG	1527	n/a	n/a	0	n/a	n/a	n/a	n/a	n/a
2902.736	n/a	REC_WORD	1451368	wordpools/wasnorm_wordpool.txt	LTP097	ltpFR	2	15	1	ITEM	746	n/a	n/a	1	n/a	n/a	n/a	n/a	n/a
2904.158	n/a	REC_WORD	1452079	wordpools/wasnorm_wordpool.txt	LTP097	ltpFR	2	15	1	GIRL	637	n/a	n/a	1	n/a	n/a	n/a	n/a	n/a
2906.398	n/a	REC_WORD	1453199	wordpools/wasnorm_wordpool.txt	LTP097	ltpFR	2	15	1	DIGGER	464	n/a	n/a	0	n/a	n/a	n/a	n/a	n/a
2907.624	n/a	REC_WORD	1453812	wordpools/wasnorm_wordpool.txt	LTP097	ltpFR	2	15	1	NAVIGATOR	938	n/a	n/a	1	n/a	n/a	n/a	n/a	n/a
2909.036	n/a	REC_WORD	1454518	wordpools/wasnorm_wordpool.txt	LTP097	ltpFR	2	15	1	PIRATE	1074	n/a	n/a	0	n/a	n/a	n/a	n/a	n/a
2910.218	n/a	REC_WORD	1455109	wordpools/wasnorm_wordpool.txt	LTP097	ltpFR	2	15	1	CACTUS	215	n/a	n/a	0	n/a	n/a	n/a	n/a	n/a
2969.47	n/a	WORD	1484735	wordpools/wasnorm_wordpool.txt	LTP097	ltpFR	2	16	1	ORCHESTRA	981	n/a	n/a	0	0.57763671875	0.412841796875	1	lower	zerothre.ttf
2973.366	n/a	WORD	1486683	wordpools/wasnorm_wordpool.txt	LTP097	ltpFR	2	16	1	AUTHOR	61	n/a	n/a	1	0.57763671875	0.412841796875	1	lower	zerothre.ttf
2977.528	n/a	WORD	1488764	wordpools/wasnorm_wordpool.txt	LTP097	ltpFR	2	16	1	POWDER	1117	n/a	n/a	0	0.57763671875	0.412841796875	1	lower	zerothre.ttf
2981.64	n/a	WORD	1490820	wordpools/wasnorm_wordpool.txt	LTP097	ltpFR	2	16	1	NICOTINE	951	n/a	n/a	1	0.57763671875	0.412841796875	1	lower	zerothre.ttf
2985.562	n/a	WORD	1492781	wordpools/wasnorm_wordpool.txt	LTP097	ltpFR	2	16	1	CANDIDATE	228	n/a	n/a	0	0.57763671875	0.412841796875	1	lower	zerothre.ttf
2989.564	n/a	WORD	1494782	wordpools/wasnorm_wordpool.txt	LTP097	ltpFR	2	16	1	PUBLISHER	1137	n/a	n/a	1	0.57763671875	0.412841796875	1	lower	zerothre.ttf
2993.486	n/a	WORD	1496743	wordpools/wasnorm_wordpool.txt	LTP097	ltpFR	2	16	1	TRAY	1498	n/a	n/a	0	0.57763671875	0.412841796875	1	lower	zerothre.ttf
2997.48	n/a	WORD	1498740	wordpools/wasnorm_wordpool.txt	LTP097	ltpFR	2	16	1	CONDUCTOR	362	n/a	n/a	1	0.57763671875	0.412841796875	1	lower	zerothre.ttf
3001.384	n/a	WORD	1500692	wordpools/wasnorm_wordpool.txt	LTP097	ltpFR	2	16	1	VENUS	1557	n/a	n/a	0	0.57763671875	0.412841796875	1	lower	zerothre.ttf
3005.296	n/a	WORD	1502648	wordpools/wasnorm_wordpool.txt	LTP097	ltpFR	2	16	1	UNIVERSE	1540	n/a	n/a	1	0.57763671875	0.412841796875	1	lower	zerothre.ttf
3009.25	n/a	WORD	1504625	wordpools/wasnorm_wordpool.txt	LTP097	ltpFR	2	16	1	SHAMPOO	1274	n/a	n/a	0	0.57763671875	0.412841796875	1	lower	zerothre.ttf
3013.428	n/a	WORD	1506714	wordpools/wasnorm_wordpool.txt	LTP097	ltpFR	2	16	1	DANDRUFF	439	n/a	n/a	0	0.57763671875	0.412841796875	1	lower	zerothre.ttf
3017.382	n/a	WORD	1508691	wordpools/wasnorm_wordpool.txt	LTP097	ltpFR	2	16	1	MINK	897	n/a	n/a	0	0.57763671875	0.412841796875	1	lower	zerothre.ttf
3021.254	n/a	WORD	1510627	wordpools/wasnorm_wordpool.txt	LTP097	ltpFR	2	16	1	TRUMPET	1513	n/a	n/a	1	0.57763671875	0.412841796875	1	lower	zerothre.ttf
3025.164	n/a	WORD	1512582	wordpools/wasnorm_wordpool.txt	LTP097	ltpFR	2	16	1	OATMEAL	967	n/a	n/a	0	0.57763671875	0.412841796875	1	lower	zerothre.ttf
3029.218	n/a	WORD	1514609	wordpools/wasnorm_wordpool.txt	LTP097	ltpFR	2	16	1	BUTTON	207	n/a	n/a	0	0.57763671875	0.412841796875	1	lower	zerothre.ttf
3035.004	n/a	REC_START	1517502	n/a	LTP097	ltpFR	2	16	n/a	n/a	n/a	n/a	n/a	n/a	n/a	n/a	n/a	n/a	n/a
3035.908	n/a	REC_WORD	1517954	wordpools/wasnorm_wordpool.txt	LTP097	ltpFR	2	16	1	BUTTON	207	n/a	n/a	0	n/a	n/a	n/a	n/a	n/a
3036.57	n/a	REC_WORD	1518285	wordpools/wasnorm_wordpool.txt	LTP097	ltpFR	2	16	1	OATMEAL	967	n/a	n/a	0	n/a	n/a	n/a	n/a	n/a
3037.264	n/a	REC_WORD	1518632	wordpools/wasnorm_wordpool.txt	LTP097	ltpFR	2	16	1	TRUMPET	1513	n/a	n/a	1	n/a	n/a	n/a	n/a	n/a
3043.724	n/a	REC_WORD	1521862	wordpools/wasnorm_wordpool.txt	LTP097	ltpFR	2	16	1	CONDUCTOR	362	n/a	n/a	1	n/a	n/a	n/a	n/a	n/a
3045.232	n/a	REC_WORD	1522616	wordpools/wasnorm_wordpool.txt	LTP097	ltpFR	2	16	1	TRAY	1498	n/a	n/a	0	n/a	n/a	n/a	n/a	n/a
3047.082	n/a	REC_WORD	1523541	wordpools/wasnorm_wordpool.txt	LTP097	ltpFR	2	16	1	PUBLISHER	1137	n/a	n/a	1	n/a	n/a	n/a	n/a	n/a
3051.028	n/a	REC_WORD	1525514	wordpools/wasnorm_wordpool.txt	LTP097	ltpFR	2	16	1	AUTHOR	61	n/a	n/a	1	n/a	n/a	n/a	n/a	n/a
3052.494	n/a	REC_WORD	1526247	wordpools/wasnorm_wordpool.txt	LTP097	ltpFR	2	16	1	NICOTINE	951	n/a	n/a	1	n/a	n/a	n/a	n/a	n/a
3053.746	n/a	REC_WORD	1526873	wordpools/wasnorm_wordpool.txt	LTP097	ltpFR	2	16	1	ORCHESTRA	981	n/a	n/a	0	n/a	n/a	n/a	n/a	n/a
3057.444	n/a	REC_WORD	1528722	wordpools/wasnorm_wordpool.txt	LTP097	ltpFR	2	16	1	POWDER	1117	n/a	n/a	0	n/a	n/a	n/a	n/a	n/a
3058.792	n/a	REC_WORD	1529396	wordpools/wasnorm_wordpool.txt	LTP097	ltpFR	2	16	1	MINK	897	n/a	n/a	0	n/a	n/a	n/a	n/a	n/a
3077.2	n/a	REC_WORD	1538600	wordpools/wasnorm_wordpool.txt	LTP097	ltpFR	2	16	1	CANDIDATE	228	n/a	n/a	0	n/a	n/a	n/a	n/a	n/a
3129.27	n/a	REC_START	1564635	n/a	LTP097	ltpFR	2	n/a	n/a	n/a	n/a	n/a	n/a	n/a	n/a	n/a	n/a	n/a	n/a
3130.284	n/a	FFR_REC_WORD	1565142	wordpools/wasnorm_wordpool.txt	LTP097	ltpFR	2	n/a	1	TRUMPET	1513	n/a	n/a	1	n/a	n/a	n/a	n/a	n/a
3131.39	n/a	FFR_REC_WORD	1565695	wordpools/wasnorm_wordpool.txt	LTP097	ltpFR	2	n/a	1	BUGLE	189	n/a	n/a	0	n/a	n/a	n/a	n/a	n/a
3132.394	n/a	FFR_REC_WORD	1566197	wordpools/wasnorm_wordpool.txt	LTP097	ltpFR	2	n/a	1	ORCHESTRA	981	n/a	n/a	0	n/a	n/a	n/a	n/a	n/a
3133.486	n/a	FFR_REC_WORD	1566743	wordpools/wasnorm_wordpool.txt	LTP097	ltpFR	2	n/a	1	AUTHOR	61	n/a	n/a	1	n/a	n/a	n/a	n/a	n/a
3134.874	n/a	FFR_REC_WORD	1567437	wordpools/wasnorm_wordpool.txt	LTP097	ltpFR	2	n/a	1	NICOTINE	951	n/a	n/a	1	n/a	n/a	n/a	n/a	n/a
3135.906	n/a	FFR_REC_WORD	1567953	wordpools/wasnorm_wordpool.txt	LTP097	ltpFR	2	n/a	1	CANDIDATE	228	n/a	n/a	0	n/a	n/a	n/a	n/a	n/a
3138.81	n/a	FFR_REC_WORD	1569405	wordpools/wasnorm_wordpool.txt	LTP097	ltpFR	2	n/a	1	POWDER	1117	n/a	n/a	0	n/a	n/a	n/a	n/a	n/a
3141.728	n/a	FFR_REC_WORD	1570864	wordpools/wasnorm_wordpool.txt	LTP097	ltpFR	2	n/a	1	MINK	897	n/a	n/a	0	n/a	n/a	n/a	n/a	n/a
3145.454	n/a	FFR_REC_WORD	1572727	wordpools/wasnorm_wordpool.txt	LTP097	ltpFR	2	n/a	1	PUBLISHER	1137	n/a	n/a	1	n/a	n/a	n/a	n/a	n/a
3146.358	n/a	FFR_REC_WORD	1573179	wordpools/wasnorm_wordpool.txt	LTP097	ltpFR	2	n/a	1	TRAY	1498	n/a	n/a	0	n/a	n/a	n/a	n/a	n/a
3160.616	n/a	FFR_REC_WORD	1580308	wordpools/wasnorm_wordpool.txt	LTP097	ltpFR	2	n/a	1	APPLICATION	34	n/a	n/a	1	n/a	n/a	n/a	n/a	n/a
3162.382	n/a	FFR_REC_WORD	1581191	wordpools/wasnorm_wordpool.txt	LTP097	ltpFR	2	n/a	1	PADDING	999	n/a	n/a	0	n/a	n/a	n/a	n/a	n/a
3163.424	n/a	FFR_REC_WORD	1581712	wordpools/wasnorm_wordpool.txt	LTP097	ltpFR	2	n/a	1	CLOTHES	327	n/a	n/a	0	n/a	n/a	n/a	n/a	n/a
3167.36	n/a	FFR_REC_WORD	1583680	wordpools/wasnorm_wordpool.txt	LTP097	ltpFR	2	n/a	1	BUGLE	189	n/a	n/a	0	n/a	n/a	n/a	n/a	n/a
3171.59	n/a	FFR_REC_WORD	1585795	wordpools/wasnorm_wordpool.txt	LTP097	ltpFR	2	n/a	0	GORILLA	650	n/a	n/a	0	n/a	n/a	n/a	n/a	n/a
3172.528	n/a	FFR_REC_WORD	1586264	wordpools/wasnorm_wordpool.txt	LTP097	ltpFR	2	n/a	0	JUNGLE	764	n/a	n/a	0	n/a	n/a	n/a	n/a	n/a
3177.068	n/a	FFR_REC_WORD	1588534	wordpools/wasnorm_wordpool.txt	LTP097	ltpFR	2	n/a	1	HIGHWAY	707	n/a	n/a	1	n/a	n/a	n/a	n/a	n/a
3180.2	n/a	FFR_REC_WORD	1590100	wordpools/wasnorm_wordpool.txt	LTP097	ltpFR	2	n/a	1	DIGGER	464	n/a	n/a	0	n/a	n/a	n/a	n/a	n/a
3180.8	n/a	FFR_REC_WORD	1590400	wordpools/wasnorm_wordpool.txt	LTP097	ltpFR	2	n/a	1	BOY	161	n/a	n/a	1	n/a	n/a	n/a	n/a	n/a
3181.268	n/a	FFR_REC_WORD	1590634	wordpools/wasnorm_wordpool.txt	LTP097	ltpFR	2	n/a	1	GIRL	637	n/a	n/a	1	n/a	n/a	n/a	n/a	n/a
3181.748	n/a	FFR_REC_WORD	1590874	wordpools/wasnorm_wordpool.txt	LTP097	ltpFR	2	n/a	1	TWIG	1527	n/a	n/a	0	n/a	n/a	n/a	n/a	n/a
3183.194	n/a	FFR_REC_WORD	1591597	wordpools/wasnorm_wordpool.txt	LTP097	ltpFR	2	n/a	1	ITEM	746	n/a	n/a	1	n/a	n/a	n/a	n/a	n/a
3184.874	n/a	FFR_REC_WORD	1592437	wordpools/wasnorm_wordpool.txt	LTP097	ltpFR	2	n/a	1	DRAGON	492	n/a	n/a	0	n/a	n/a	n/a	n/a	n/a
3185.598	n/a	FFR_REC_WORD	1592799	wordpools/wasnorm_wordpool.txt	LTP097	ltpFR	2	n/a	1	STEAM	1375	n/a	n/a	1	n/a	n/a	n/a	n/a	n/a
3186.456	n/a	FFR_REC_WORD	1593228	wordpools/wasnorm_wordpool.txt	LTP097	ltpFR	2	n/a	1	BRIDGE	174	n/a	n/a	0	n/a	n/a	n/a	n/a	n/a
3192.084	n/a	FFR_REC_WORD	1596042	wordpools/wasnorm_wordpool.txt	LTP097	ltpFR	2	n/a	1	MISSILE	900	n/a	n/a	0	n/a	n/a	n/a	n/a	n/a
3192.636	n/a	FFR_REC_WORD	1596318	wordpools/wasnorm_wordpool.txt	LTP097	ltpFR	2	n/a	1	SPACE	1345	n/a	n/a	0	n/a	n/a	n/a	n/a	n/a
3193.83	n/a	FFR_REC_WORD	1596915	wordpools/wasnorm_wordpool.txt	LTP097	ltpFR	2	n/a	1	ASTRONAUT	51	n/a	n/a	1	n/a	n/a	n/a	n/a	n/a
3199.192	n/a	FFR_REC_WORD	1599596	wordpools/wasnorm_wordpool.txt	LTP097	ltpFR	2	n/a	1	APPLE	33	n/a	n/a	0	n/a	n/a	n/a	n/a	n/a
3200.056	n/a	FFR_REC_WORD	1600028	wordpools/wasnorm_wordpool.txt	LTP097	ltpFR	2	n/a	1	FRUIT	610	n/a	n/a	0	n/a	n/a	n/a	n/a	n/a
3201.602	n/a	FFR_REC_WORD	1600801	wordpools/wasnorm_wordpool.txt	LTP097	ltpFR	2	n/a	-1	SUNRISE	1407	n/a	n/a	-1	n/a	n/a	n/a	n/a	n/a
3208.536	n/a	FFR_REC_WORD	1604268	wordpools/wasnorm_wordpool.txt	LTP097	ltpFR	2	n/a	0	PEAR	1033	n/a	n/a	1	n/a	n/a	n/a	n/a	n/a
3209.114	n/a	FFR_REC_WORD	1604557	wordpools/wasnorm_wordpool.txt	LTP097	ltpFR	2	n/a	1	CHERRY	293	n/a	n/a	1	n/a	n/a	n/a	n/a	n/a
3210.072	n/a	FFR_REC_WORD	1605036	wordpools/wasnorm_wordpool.txt	LTP097	ltpFR	2	n/a	1	DILL	465	n/a	n/a	1	n/a	n/a	n/a	n/a	n/a
3210.534	n/a	FFR_REC_WORD	1605267	wordpools/wasnorm_wordpool.txt	LTP097	ltpFR	2	n/a	1	CHEF	290	n/a	n/a	1	n/a	n/a	n/a	n/a	n/a
3214.184	n/a	FFR_REC_WORD	1607092	wordpools/wasnorm_wordpool.txt	LTP097	ltpFR	2	n/a	-1	MOUNTAIN	924	n/a	n/a	-1	n/a	n/a	n/a	n/a	n/a
3216.06	n/a	FFR_REC_WORD	1608030	wordpools/wasnorm_wordpool.txt	LTP097	ltpFR	2	n/a	-1	CANARY	227	n/a	n/a	-1	n/a	n/a	n/a	n/a	n/a
3217.258	n/a	FFR_REC_WORD	1608629	wordpools/wasnorm_wordpool.txt	LTP097	ltpFR	2	n/a	0	PARROT	1015	n/a	n/a	0	n/a	n/a	n/a	n/a	n/a
3217.966	n/a	FFR_REC_WORD	1608983	wordpools/wasnorm_wordpool.txt	LTP097	ltpFR	2	n/a	0	PERCH	1048	n/a	n/a	1	n/a	n/a	n/a	n/a	n/a
3218.97	n/a	FFR_REC_WORD	1609485	wordpools/wasnorm_wordpool.txt	LTP097	ltpFR	2	n/a	-1	SEAGULL	1261	n/a	n/a	-1	n/a	n/a	n/a	n/a	n/a
3221.028	n/a	FFR_REC_WORD	1610514	wordpools/wasnorm_wordpool.txt	LTP097	ltpFR	2	n/a	-1	TREE	1502	n/a	n/a	-1	n/a	n/a	n/a	n/a	n/a
3222.646	n/a	FFR_REC_WORD	1611323	wordpools/wasnorm_wordpool.txt	LTP097	ltpFR	2	n/a	0	RACCOON	1153	n/a	n/a	1	n/a	n/a	n/a	n/a	n/a
3223.662	n/a	FFR_REC_WORD	1611831	wordpools/wasnorm_wordpool.txt	LTP097	ltpFR	2	n/a	1	CONCRETE	361	n/a	n/a	0	n/a	n/a	n/a	n/a	n/a
3224.322	n/a	FFR_REC_WORD	1612161	wordpools/wasnorm_wordpool.txt	LTP097	ltpFR	2	n/a	1	LUNCH	849	n/a	n/a	1	n/a	n/a	n/a	n/a	n/a
3225.508	n/a	FFR_REC_WORD	1612754	wordpools/wasnorm_wordpool.txt	LTP097	ltpFR	2	n/a	1	COLESLAW	344	n/a	n/a	1	n/a	n/a	n/a	n/a	n/a
3228.122	n/a	FFR_REC_WORD	1614061	wordpools/wasnorm_wordpool.txt	LTP097	ltpFR	2	n/a	1	PUPIL	1143	n/a	n/a	1	n/a	n/a	n/a	n/a	n/a
3228.874	n/a	FFR_REC_WORD	1614437	wordpools/wasnorm_wordpool.txt	LTP097	ltpFR	2	n/a	1	PROFESSOR	1131	n/a	n/a	0	n/a	n/a	n/a	n/a	n/a
3235.706	n/a	FFR_REC_WORD	1617853	wordpools/wasnorm_wordpool.txt	LTP097	ltpFR	2	n/a	0	RIVER	1194	n/a	n/a	0	n/a	n/a	n/a	n/a	n/a
3236.308	n/a	FFR_REC_WORD	1618154	wordpools/wasnorm_wordpool.txt	LTP097	ltpFR	2	n/a	-1	CANAL	226	n/a	n/a	-1	n/a	n/a	n/a	n/a	n/a
3236.928	n/a	FFR_REC_WORD	1618464	wordpools/wasnorm_wordpool.txt	LTP097	ltpFR	2	n/a	0	STREAM	1392	n/a	n/a	1	n/a	n/a	n/a	n/a	n/a
3237.722	n/a	FFR_REC_WORD	1618861	wordpools/wasnorm_wordpool.txt	LTP097	ltpFR	2	n/a	0	YACHT	1629	n/a	n/a	1	n/a	n/a	n/a	n/a	n/a
3240.34	n/a	FFR_REC_WORD	1620170	wordpools/wasnorm_wordpool.txt	LTP097	ltpFR	2	n/a	0	SNORKEL	1336	n/a	n/a	1	n/a	n/a	n/a	n/a	n/a
3241.652	n/a	FFR_REC_WORD	1620826	wordpools/wasnorm_wordpool.txt	LTP097	ltpFR	2	n/a	0	RAISIN	1163	n/a	n/a	0	n/a	n/a	n/a	n/a	n/a
3242.26	n/a	FFR_REC_WORD	1621130	wordpools/wasnorm_wordpool.txt	LTP097	ltpFR	2	n/a	0	BANANA	77	n/a	n/a	0	n/a	n/a	n/a	n/a	n/a
3242.758	n/a	FFR_REC_WORD	1621379	wordpools/wasnorm_wordpool.txt	LTP097	ltpFR	2	n/a	0	FRAME	600	n/a	n/a	0	n/a	n/a	n/a	n/a	n/a
3243.518	n/a	FFR_REC_WORD	1621759	wordpools/wasnorm_wordpool.txt	LTP097	ltpFR	2	n/a	0	PHOTO	1055	n/a	n/a	0	n/a	n/a	n/a	n/a	n/a
3249.554	n/a	FFR_REC_WORD	1624777	wordpools/wasnorm_wordpool.txt	LTP097	ltpFR	2	n/a	0	DRILL	497	n/a	n/a	0	n/a	n/a	n/a	n/a	n/a
3254.852	n/a	FFR_REC_WORD	1627426	wordpools/wasnorm_wordpool.txt	LTP097	ltpFR	2	n/a	-1	BLUEBERRY	140	n/a	n/a	-1	n/a	n/a	n/a	n/a	n/a
3260.774	n/a	FFR_REC_WORD	1630387	wordpools/wasnorm_wordpool.txt	LTP097	ltpFR	2	n/a	-1	SOFTBALL	1343	n/a	n/a	-1	n/a	n/a	n/a	n/a	n/a
3261.686	n/a	FFR_REC_WORD	1630843	wordpools/wasnorm_wordpool.txt	LTP097	ltpFR	2	n/a	1	CAR	241	n/a	n/a	1	n/a	n/a	n/a	n/a	n/a
3262.236	n/a	FFR_REC_WORD	1631118	wordpools/wasnorm_wordpool.txt	LTP097	ltpFR	2	n/a	0	VAN	1548	n/a	n/a	1	n/a	n/a	n/a	n/a	n/a
3262.674	n/a	FFR_REC_WORD	1631337	wordpools/wasnorm_wordpool.txt	LTP097	ltpFR	2	n/a	1	PUCK	1138	n/a	n/a	0	n/a	n/a	n/a	n/a	n/a
3263.302	n/a	FFR_REC_WORD	1631651	wordpools/wasnorm_wordpool.txt	LTP097	ltpFR	2	n/a	1	REFEREE	1178	n/a	n/a	1	n/a	n/a	n/a	n/a	n/a
3263.982	n/a	FFR_REC_WORD	1631991	wordpools/wasnorm_wordpool.txt	LTP097	ltpFR	2	n/a	1	CATCHER	258	n/a	n/a	1	n/a	n/a	n/a	n/a	n/a
3264.61	n/a	FFR_REC_WORD	1632305	wordpools/wasnorm_wordpool.txt	LTP097	ltpFR	2	n/a	0	CREW	406	n/a	n/a	1	n/a	n/a	n/a	n/a	n/a
3271.408	n/a	FFR_REC_WORD	1635704	wordpools/wasnorm_wordpool.txt	LTP097	ltpFR	2	n/a	0	VIDEO	1564	n/a	n/a	0	n/a	n/a	n/a	n/a	n/a
3272.552	n/a	FFR_REC_WORD	1636276	wordpools/wasnorm_wordpool.txt	LTP097	ltpFR	2	n/a	0	TAPE	1433	n/a	n/a	1	n/a	n/a	n/a	n/a	n/a
3274.118	n/a	FFR_REC_WORD	1637059	wordpools/wasnorm_wordpool.txt	LTP097	ltpFR	2	n/a	0	CIRCUS	311	n/a	n/a	0	n/a	n/a	n/a	n/a	n/a
3292.528	n/a	FFR_REC_WORD	1646264	wordpools/wasnorm_wordpool.txt	LTP097	ltpFR	2	n/a	0	JEANS	752	n/a	n/a	0	n/a	n/a	n/a	n/a	n/a
3301.576	n/a	FFR_REC_WORD	1650788	wordpools/wasnorm_wordpool.txt	LTP097	ltpFR	2	n/a	-1	LAGOON	795	n/a	n/a	-1	n/a	n/a	n/a	n/a	n/a
3303.328	n/a	FFR_REC_WORD	1651664	wordpools/wasnorm_wordpool.txt	LTP097	ltpFR	2	n/a	-1	COD	340	n/a	n/a	-1	n/a	n/a	n/a	n/a	n/a
3305.638	n/a	FFR_REC_WORD	1652819	wordpools/wasnorm_wordpool.txt	LTP097	ltpFR	2	n/a	-1	SARDINE	1235	n/a	n/a	-1	n/a	n/a	n/a	n/a	n/a
3310.936	n/a	FFR_REC_WORD	1655468	wordpools/wasnorm_wordpool.txt	LTP097	ltpFR	2	n/a	0	FAUCET	555	n/a	n/a	0	n/a	n/a	n/a	n/a	n/a
3313.25	n/a	FFR_REC_WORD	1656625	wordpools/wasnorm_wordpool.txt	LTP097	ltpFR	2	n/a	0	HATCHET	691	n/a	n/a	1	n/a	n/a	n/a	n/a	n/a
3322.878	n/a	FFR_REC_WORD	1661439	wordpools/wasnorm_wordpool.txt	LTP097	ltpFR	2	n/a	0	POSSUM	1112	n/a	n/a	0	n/a	n/a	n/a	n/a	n/a
3323.716	n/a	FFR_REC_WORD	1661858	wordpools/wasnorm_wordpool.txt	LTP097	ltpFR	2	n/a	0	MOSS	918	n/a	n/a	1	n/a	n/a	n/a	n/a	n/a
3328.122	n/a	FFR_REC_WORD	1664061	wordpools/wasnorm_wordpool.txt	LTP097	ltpFR	2	n/a	0	TRAITOR	1495	n/a	n/a	1	n/a	n/a	n/a	n/a	n/a
3329.434	n/a	FFR_REC_WORD	1664717	wordpools/wasnorm_wordpool.txt	LTP097	ltpFR	2	n/a	0	NUT	965	n/a	n/a	0	n/a	n/a	n/a	n/a	n/a
3338.194	n/a	FFR_REC_WORD	1669097	wordpools/wasnorm_wordpool.txt	LTP097	ltpFR	2	n/a	-1	LITERATURE	831	n/a	n/a	-1	n/a	n/a	n/a	n/a	n/a
3339.824	n/a	FFR_REC_WORD	1669912	wordpools/wasnorm_wordpool.txt	LTP097	ltpFR	2	n/a	-1	DETERGENT	455	n/a	n/a	-1	n/a	n/a	n/a	n/a	n/a
3340.668	n/a	FFR_REC_WORD	1670334	wordpools/wasnorm_wordpool.txt	LTP097	ltpFR	2	n/a	-1	HOUSE	725	n/a	n/a	-1	n/a	n/a	n/a	n/a	n/a
3341.346	n/a	FFR_REC_WORD	1670673	wordpools/wasnorm_wordpool.txt	LTP097	ltpFR	2	n/a	-1	FLOWER	584	n/a	n/a	-1	n/a	n/a	n/a	n/a	n/a
3342.066	n/a	FFR_REC_WORD	1671033	wordpools/wasnorm_wordpool.txt	LTP097	ltpFR	2	n/a	-1	WITCH	1617	n/a	n/a	-1	n/a	n/a	n/a	n/a	n/a
3342.594	n/a	FFR_REC_WORD	1671297	wordpools/wasnorm_wordpool.txt	LTP097	ltpFR	2	n/a	-1	WAND	1586	n/a	n/a	-1	n/a	n/a	n/a	n/a	n/a
3345.95	n/a	FFR_REC_WORD	1672975	wordpools/wasnorm_wordpool.txt	LTP097	ltpFR	2	n/a	0	GROCERIES	663	n/a	n/a	0	n/a	n/a	n/a	n/a	n/a
3347.362	n/a	FFR_REC_WORD	1673681	wordpools/wasnorm_wordpool.txt	LTP097	ltpFR	2	n/a	0	SEAL	1262	n/a	n/a	1	n/a	n/a	n/a	n/a	n/a
3348.09	n/a	FFR_REC_WORD	1674045	wordpools/wasnorm_wordpool.txt	LTP097	ltpFR	2	n/a	0	WHALE	1601	n/a	n/a	0	n/a	n/a	n/a	n/a	n/a
3349.448	n/a	FFR_REC_WORD	1674724	wordpools/wasnorm_wordpool.txt	LTP097	ltpFR	2	n/a	0	PURSE	1145	n/a	n/a	1	n/a	n/a	n/a	n/a	n/a
3351.164	n/a	FFR_REC_WORD	1675582	wordpools/wasnorm_wordpool.txt	LTP097	ltpFR	2	n/a	0	LETTUCE	814	n/a	n/a	0	n/a	n/a	n/a	n/a	n/a
3355.904	n/a	FFR_REC_WORD	1677952	wordpools/wasnorm_wordpool.txt	LTP097	ltpFR	2	n/a	0	MAMMAL	861	n/a	n/a	0	n/a	n/a	n/a	n/a	n/a
3373.494	n/a	FFR_REC_WORD	1686747	wordpools/wasnorm_wordpool.txt	LTP097	ltpFR	2	n/a	0	CRAB	397	n/a	n/a	1	n/a	n/a	n/a	n/a	n/a
3375.908	n/a	FFR_REC_WORD	1687954	wordpools/wasnorm_wordpool.txt	LTP097	ltpFR	2	n/a	0	VAMPIRE	1547	n/a	n/a	1	n/a	n/a	n/a	n/a	n/a
3376.776	n/a	FFR_REC_WORD	1688388	wordpools/wasnorm_wordpool.txt	LTP097	ltpFR	2	n/a	0	BANDAGE	79	n/a	n/a	0	n/a	n/a	n/a	n/a	n/a
3379.242	n/a	FFR_REC_WORD	1689621	wordpools/wasnorm_wordpool.txt	LTP097	ltpFR	2	n/a	0	CARPENTER	246	n/a	n/a	1	n/a	n/a	n/a	n/a	n/a
3384.948	n/a	FFR_REC_WORD	1692474	wordpools/wasnorm_wordpool.txt	LTP097	ltpFR	2	n/a	0	ARM	38	n/a	n/a	0	n/a	n/a	n/a	n/a	n/a
3385.7	n/a	FFR_REC_WORD	1692850	wordpools/wasnorm_wordpool.txt	LTP097	ltpFR	2	n/a	0	FIGHTER	564	n/a	n/a	1	n/a	n/a	n/a	n/a	n/a
3386.844	n/a	FFR_REC_WORD	1693422	wordpools/wasnorm_wordpool.txt	LTP097	ltpFR	2	n/a	0	WARRIOR	1589	n/a	n/a	0	n/a	n/a	n/a	n/a	n/a
3387.602	n/a	FFR_REC_WORD	1693801	wordpools/wasnorm_wordpool.txt	LTP097	ltpFR	2	n/a	0	INDIAN	736	n/a	n/a	0	n/a	n/a	n/a	n/a	n/a
3388.88	n/a	FFR_REC_WORD	1694440	wordpools/wasnorm_wordpool.txt	LTP097	ltpFR	2	n/a	0	ANKLE	24	n/a	n/a	1	n/a	n/a	n/a	n/a	n/a
3389.498	n/a	FFR_REC_WORD	1694749	wordpools/wasnorm_wordpool.txt	LTP097	ltpFR	2	n/a	0	WELL	1600	n/a	n/a	1	n/a	n/a	n/a	n/a	n/a
3390.296	n/a	FFR_REC_WORD	1695148	wordpools/wasnorm_wordpool.txt	LTP097	ltpFR	2	n/a	0	ENCYCLOPEDIA	533	n/a	n/a	1	n/a	n/a	n/a	n/a	n/a
3391.488	n/a	FFR_REC_WORD	1695744	wordpools/wasnorm_wordpool.txt	LTP097	ltpFR	2	n/a	0	PAIL	1002	n/a	n/a	0	n/a	n/a	n/a	n/a	n/a
3392.7	n/a	FFR_REC_WORD	1696350	wordpools/wasnorm_wordpool.txt	LTP097	ltpFR	2	n/a	0	NOVEL	960	n/a	n/a	0	n/a	n/a	n/a	n/a	n/a
3427.182	n/a	FFR_REC_WORD	1713591	wordpools/wasnorm_wordpool.txt	LTP097	ltpFR	2	n/a	-1	OCEAN	970	n/a	n/a	-1	n/a	n/a	n/a	n/a	n/a
3429.176	n/a	FFR_REC_WORD_VV	1714588	wordpools/wasnorm_wordpool.txt	LTP097	ltpFR	2	n/a	n/a	<>	-1	n/a	n/a	n/a	n/a	n/a	n/a	n/a	n/a
3461.948	n/a	REC_START	1730974	n/a	LTP097	ltpFR	2	1	n/a	n/a	n/a	n/a	n/a	n/a	n/a	n/a	n/a	n/a	n/a
3461.98	n/a	RECOG_LURE	1730990	n/a	LTP097	ltpFR	2	1	n/a	NEST	945	0	3	n/a	n/a	n/a	n/a	n/a	n/a
3463.514	n/a	RECOG_RESP	1731757	n/a	LTP097	ltpFR	2	1	n/a	NEST	945	0	n/a	n/a	n/a	n/a	n/a	n/a	n/a
3464.556	n/a	RECOG_RESP_VV	1732278	n/a	LTP097	ltpFR	2	1	n/a	NEST	945	n/a	3	n/a	n/a	n/a	n/a	n/a	n/a
3466.612	n/a	RECOG_CONF	1733306	n/a	LTP097	ltpFR	2	1	n/a	NEST	945	n/a	3	n/a	n/a	n/a	n/a	n/a	n/a
3468.904	n/a	RECOG_TARGET	1734452	n/a	LTP097	ltpFR	2	1	-1	HOSE	720	1	5	-1	n/a	n/a	n/a	n/a	n/a
3470.492	n/a	RECOG_RESP	1735246	n/a	LTP097	ltpFR	2	1	-1	HOSE	720	1	n/a	-1	n/a	n/a	n/a	n/a	n/a
3471.53	n/a	RECOG_CONF	1735765	n/a	LTP097	ltpFR	2	1	-1	HOSE	720	n/a	5	-1	n/a	n/a	n/a	n/a	n/a
3473.276	n/a	RECOG_TARGET	1736638	n/a	LTP097	ltpFR	2	1	-1	ROOSTER	1209	1	5	-1	n/a	n/a	n/a	n/a	n/a
3474.224	n/a	RECOG_RESP	1737112	n/a	LTP097	ltpFR	2	1	-1	ROOSTER	1209	1	n/a	-1	n/a	n/a	n/a	n/a	n/a
3475.242	n/a	RECOG_CONF	1737621	n/a	LTP097	ltpFR	2	1	-1	ROOSTER	1209	n/a	5	-1	n/a	n/a	n/a	n/a	n/a
3477.12	n/a	RECOG_TARGET	1738560	n/a	LTP097	ltpFR	2	1	0	WELL	1600	1	5	1	n/a	n/a	n/a	n/a	n/a
3477.866	n/a	RECOG_RESP	1738933	n/a	LTP097	ltpFR	2	1	0	WELL	1600	1	n/a	1	n/a	n/a	n/a	n/a	n/a
3478.974	n/a	RECOG_CONF	1739487	n/a	LTP097	ltpFR	2	1	0	WELL	1600	n/a	5	1	n/a	n/a	n/a	n/a	n/a
3480.734	n/a	RECOG_TARGET	1740367	n/a	LTP097	ltpFR	2	1	1	HAMMOCK	681	1	5	0	n/a	n/a	n/a	n/a	n/a
3481.578	n/a	RECOG_RESP	1740789	n/a	LTP097	ltpFR	2	1	1	HAMMOCK	681	1	n/a	0	n/a	n/a	n/a	n/a	n/a
3482.716	n/a	RECOG_CONF	1741358	n/a	LTP097	ltpFR	2	1	1	HAMMOCK	681	n/a	5	0	n/a	n/a	n/a	n/a	n/a
3484.496	n/a	RECOG_TARGET	1742248	n/a	LTP097	ltpFR	2	1	1	PADDING	999	1	5	0	n/a	n/a	n/a	n/a	n/a
3485.31	n/a	RECOG_RESP	1742655	n/a	LTP097	ltpFR	2	1	1	PADDING	999	1	n/a	0	n/a	n/a	n/a	n/a	n/a
3486.316	n/a	RECOG_CONF	1743158	n/a	LTP097	ltpFR	2	1	1	PADDING	999	n/a	5	0	n/a	n/a	n/a	n/a	n/a
3488.174	n/a	RECOG_TARGET	1744087	n/a	LTP097	ltpFR	2	1	-1	SCREEN	1253	1	5	-1	n/a	n/a	n/a	n/a	n/a
3489.878	n/a	RECOG_RESP	1744939	n/a	LTP097	ltpFR	2	1	-1	SCREEN	1253	1	n/a	-1	n/a	n/a	n/a	n/a	n/a
3490.916	n/a	RECOG_CONF	1745458	n/a	LTP097	ltpFR	2	1	-1	SCREEN	1253	n/a	5	-1	n/a	n/a	n/a	n/a	n/a
3492.704	n/a	RECOG_LURE	1746352	n/a	LTP097	ltpFR	2	1	n/a	WAX	1597	0	4	n/a	n/a	n/a	n/a	n/a	n/a
3493.834	n/a	RECOG_RESP	1746917	n/a	LTP097	ltpFR	2	1	n/a	WAX	1597	0	n/a	n/a	n/a	n/a	n/a	n/a	n/a
3494.948	n/a	RECOG_CONF	1747474	n/a	LTP097	ltpFR	2	1	n/a	WAX	1597	n/a	4	n/a	n/a	n/a	n/a	n/a	n/a
3496.548	n/a	RECOG_TARGET	1748274	n/a	LTP097	ltpFR	2	1	0	SILVERWARE	1308	1	5	1	n/a	n/a	n/a	n/a	n/a
3497.352	n/a	RECOG_RESP	1748676	n/a	LTP097	ltpFR	2	1	0	SILVERWARE	1308	1	n/a	1	n/a	n/a	n/a	n/a	n/a
3498.45	n/a	RECOG_CONF	1749225	n/a	LTP097	ltpFR	2	1	0	SILVERWARE	1308	n/a	5	1	n/a	n/a	n/a	n/a	n/a
3500.152	n/a	RECOG_TARGET	1750076	n/a	LTP097	ltpFR	2	1	1	BALLOT	76	1	5	1	n/a	n/a	n/a	n/a	n/a
3501.054	n/a	RECOG_RESP	1750527	n/a	LTP097	ltpFR	2	1	1	BALLOT	76	1	n/a	1	n/a	n/a	n/a	n/a	n/a
3502.13	n/a	RECOG_CONF	1751065	n/a	LTP097	ltpFR	2	1	1	BALLOT	76	n/a	5	1	n/a	n/a	n/a	n/a	n/a
3503.78	n/a	RECOG_TARGET	1751890	n/a	LTP097	ltpFR	2	1	0	BANDAGE	79	1	5	0	n/a	n/a	n/a	n/a	n/a
3504.526	n/a	RECOG_RESP	1752263	n/a	LTP097	ltpFR	2	1	0	BANDAGE	79	1	n/a	0	n/a	n/a	n/a	n/a	n/a
3505.742	n/a	RECOG_CONF	1752871	n/a	LTP097	ltpFR	2	1	0	BANDAGE	79	n/a	5	0	n/a	n/a	n/a	n/a	n/a
3507.344	n/a	RECOG_TARGET	1753672	n/a	LTP097	ltpFR	2	1	0	FIGHTER	564	1	5	1	n/a	n/a	n/a	n/a	n/a
3508.052	n/a	RECOG_RESP	1754026	n/a	LTP097	ltpFR	2	1	0	FIGHTER	564	1	n/a	1	n/a	n/a	n/a	n/a	n/a
3509.194	n/a	RECOG_CONF	1754597	n/a	LTP097	ltpFR	2	1	0	FIGHTER	564	n/a	5	1	n/a	n/a	n/a	n/a	n/a
3510.822	n/a	RECOG_LURE	1755411	n/a	LTP097	ltpFR	2	1	n/a	BASEMENT	94	0	3	n/a	n/a	n/a	n/a	n/a	n/a
3512.024	n/a	RECOG_RESP	1756012	n/a	LTP097	ltpFR	2	1	n/a	BASEMENT	94	0	n/a	n/a	n/a	n/a	n/a	n/a	n/a
3513.446	n/a	RECOG_CONF	1756723	n/a	LTP097	ltpFR	2	1	n/a	BASEMENT	94	n/a	3	n/a	n/a	n/a	n/a	n/a	n/a
3515.242	n/a	RECOG_TARGET	1757621	n/a	LTP097	ltpFR	2	1	0	PLUTO	1092	1	5	1	n/a	n/a	n/a	n/a	n/a
3516.024	n/a	RECOG_RESP	1758012	n/a	LTP097	ltpFR	2	1	0	PLUTO	1092	1	n/a	1	n/a	n/a	n/a	n/a	n/a
3517.126	n/a	RECOG_CONF	1758563	n/a	LTP097	ltpFR	2	1	0	PLUTO	1092	n/a	5	1	n/a	n/a	n/a	n/a	n/a
3518.914	n/a	RECOG_TARGET	1759457	n/a	LTP097	ltpFR	2	1	-1	SARDINE	1235	1	5	-1	n/a	n/a	n/a	n/a	n/a
3519.672	n/a	RECOG_RESP	1759836	n/a	LTP097	ltpFR	2	1	-1	SARDINE	1235	1	n/a	-1	n/a	n/a	n/a	n/a	n/a
3520.688	n/a	RECOG_CONF	1760344	n/a	LTP097	ltpFR	2	1	-1	SARDINE	1235	n/a	5	-1	n/a	n/a	n/a	n/a	n/a
3522.494	n/a	RECOG_TARGET	1761247	n/a	LTP097	ltpFR	2	1	-1	KEY	773	1	5	-1	n/a	n/a	n/a	n/a	n/a
3523.268	n/a	RECOG_RESP	1761634	n/a	LTP097	ltpFR	2	1	-1	KEY	773	1	n/a	-1	n/a	n/a	n/a	n/a	n/a
3524.422	n/a	RECOG_CONF	1762211	n/a	LTP097	ltpFR	2	1	-1	KEY	773	n/a	5	-1	n/a	n/a	n/a	n/a	n/a
3526.114	n/a	RECOG_TARGET	1763057	n/a	LTP097	ltpFR	2	1	0	JUPITER	765	1	5	0	n/a	n/a	n/a	n/a	n/a
3526.92	n/a	RECOG_RESP	1763460	n/a	LTP097	ltpFR	2	1	0	JUPITER	765	1	n/a	0	n/a	n/a	n/a	n/a	n/a
3528.024	n/a	RECOG_CONF	1764012	n/a	LTP097	ltpFR	2	1	0	JUPITER	765	n/a	5	0	n/a	n/a	n/a	n/a	n/a
3529.728	n/a	RECOG_TARGET	1764864	n/a	LTP097	ltpFR	2	1	1	LION	827	0	4	1	n/a	n/a	n/a	n/a	n/a
3530.752	n/a	RECOG_RESP	1765376	n/a	LTP097	ltpFR	2	1	1	LION	827	0	n/a	1	n/a	n/a	n/a	n/a	n/a
3531.884	n/a	RECOG_CONF	1765942	n/a	LTP097	ltpFR	2	1	1	LION	827	n/a	4	1	n/a	n/a	n/a	n/a	n/a
3533.49	n/a	RECOG_LURE	1766745	n/a	LTP097	ltpFR	2	1	n/a	PATROL	1027	0	3	n/a	n/a	n/a	n/a	n/a	n/a
3535.896	n/a	RECOG_RESP	1767948	n/a	LTP097	ltpFR	2	1	n/a	PATROL	1027	0	n/a	n/a	n/a	n/a	n/a	n/a	n/a
3537.112	n/a	RECOG_CONF	1768556	n/a	LTP097	ltpFR	2	1	n/a	PATROL	1027	n/a	3	n/a	n/a	n/a	n/a	n/a	n/a
3538.908	n/a	RECOG_TARGET	1769454	n/a	LTP097	ltpFR	2	1	0	TOWEL	1489	1	5	0	n/a	n/a	n/a	n/a	n/a
3540.644	n/a	RECOG_RESP	1770322	n/a	LTP097	ltpFR	2	1	0	TOWEL	1489	1	n/a	0	n/a	n/a	n/a	n/a	n/a
3541.662	n/a	RECOG_CONF	1770831	n/a	LTP097	ltpFR	2	1	0	TOWEL	1489	n/a	5	0	n/a	n/a	n/a	n/a	n/a
3545.962	n/a	REC_START	1772981	n/a	LTP097	ltpFR	2	2	n/a	n/a	n/a	n/a	n/a	n/a	n/a	n/a	n/a	n/a	n/a
3545.992	n/a	RECOG_TARGET	1772996	n/a	LTP097	ltpFR	2	2	1	PROFESSOR	1131	1	5	0	n/a	n/a	n/a	n/a	n/a
3546.786	n/a	RECOG_RESP	1773393	n/a	LTP097	ltpFR	2	2	1	PROFESSOR	1131	1	n/a	0	n/a	n/a	n/a	n/a	n/a
3547.882	n/a	RECOG_CONF	1773941	n/a	LTP097	ltpFR	2	2	1	PROFESSOR	1131	n/a	5	0	n/a	n/a	n/a	n/a	n/a
3549.53	n/a	RECOG_TARGET	1774765	n/a	LTP097	ltpFR	2	2	-1	HOUSE	725	1	5	-1	n/a	n/a	n/a	n/a	n/a
3550.318	n/a	RECOG_RESP	1775159	n/a	LTP097	ltpFR	2	2	-1	HOUSE	725	1	n/a	-1	n/a	n/a	n/a	n/a	n/a
3551.444	n/a	RECOG_CONF	1775722	n/a	LTP097	ltpFR	2	2	-1	HOUSE	725	n/a	5	-1	n/a	n/a	n/a	n/a	n/a
3553.0	n/a	RECOG_TARGET	1776500	n/a	LTP097	ltpFR	2	2	-1	COAT	333	1	5	-1	n/a	n/a	n/a	n/a	n/a
3554.184	n/a	RECOG_RESP	1777092	n/a	LTP097	ltpFR	2	2	-1	COAT	333	1	n/a	-1	n/a	n/a	n/a	n/a	n/a
3555.296	n/a	RECOG_CONF	1777648	n/a	LTP097	ltpFR	2	2	-1	COAT	333	n/a	5	-1	n/a	n/a	n/a	n/a	n/a
3557.02	n/a	RECOG_LURE	1778510	n/a	LTP097	ltpFR	2	2	n/a	CORN	381	0	4	n/a	n/a	n/a	n/a	n/a	n/a
3557.994	n/a	RECOG_RESP	1778997	n/a	LTP097	ltpFR	2	2	n/a	CORN	381	0	n/a	n/a	n/a	n/a	n/a	n/a	n/a
3559.228	n/a	RECOG_CONF	1779614	n/a	LTP097	ltpFR	2	2	n/a	CORN	381	n/a	4	n/a	n/a	n/a	n/a	n/a	n/a
3560.84	n/a	RECOG_TARGET	1780420	n/a	LTP097	ltpFR	2	2	-1	BRICK	172	1	5	-1	n/a	n/a	n/a	n/a	n/a
3562.006	n/a	RECOG_RESP	1781003	n/a	LTP097	ltpFR	2	2	-1	BRICK	172	1	n/a	-1	n/a	n/a	n/a	n/a	n/a
3563.168	n/a	RECOG_CONF	1781584	n/a	LTP097	ltpFR	2	2	-1	BRICK	172	n/a	5	-1	n/a	n/a	n/a	n/a	n/a
3564.902	n/a	RECOG_LURE	1782451	n/a	LTP097	ltpFR	2	2	n/a	ARENA	37	0	4	n/a	n/a	n/a	n/a	n/a	n/a
3565.652	n/a	RECOG_RESP	1782826	n/a	LTP097	ltpFR	2	2	n/a	ARENA	37	0	n/a	n/a	n/a	n/a	n/a	n/a	n/a
3566.84	n/a	RECOG_CONF	1783420	n/a	LTP097	ltpFR	2	2	n/a	ARENA	37	n/a	4	n/a	n/a	n/a	n/a	n/a	n/a
3568.45	n/a	RECOG_TARGET	1784225	n/a	LTP097	ltpFR	2	2	0	NOVEL	960	1	5	0	n/a	n/a	n/a	n/a	n/a
3569.254	n/a	RECOG_RESP	1784627	n/a	LTP097	ltpFR	2	2	0	NOVEL	960	1	n/a	0	n/a	n/a	n/a	n/a	n/a
3570.352	n/a	RECOG_CONF	1785176	n/a	LTP097	ltpFR	2	2	0	NOVEL	960	n/a	5	0	n/a	n/a	n/a	n/a	n/a
3572.06	n/a	RECOG_TARGET	1786030	n/a	LTP097	ltpFR	2	2	-1	DETERGENT	455	1	5	-1	n/a	n/a	n/a	n/a	n/a
3572.846	n/a	RECOG_RESP	1786423	n/a	LTP097	ltpFR	2	2	-1	DETERGENT	455	1	n/a	-1	n/a	n/a	n/a	n/a	n/a
3573.944	n/a	RECOG_CONF	1786972	n/a	LTP097	ltpFR	2	2	-1	DETERGENT	455	n/a	5	-1	n/a	n/a	n/a	n/a	n/a
3575.542	n/a	RECOG_LURE	1787771	n/a	LTP097	ltpFR	2	2	n/a	TOILET	1475	0	5	n/a	n/a	n/a	n/a	n/a	n/a
3576.542	n/a	RECOG_RESP	1788271	n/a	LTP097	ltpFR	2	2	n/a	TOILET	1475	0	n/a	n/a	n/a	n/a	n/a	n/a	n/a
3577.646	n/a	RECOG_CONF	1788823	n/a	LTP097	ltpFR	2	2	n/a	TOILET	1475	n/a	5	n/a	n/a	n/a	n/a	n/a	n/a
3579.278	n/a	RECOG_LURE	1789639	n/a	LTP097	ltpFR	2	2	n/a	BOUQUET	157	0	5	n/a	n/a	n/a	n/a	n/a	n/a
3580.214	n/a	RECOG_RESP	1790107	n/a	LTP097	ltpFR	2	2	n/a	BOUQUET	157	0	n/a	n/a	n/a	n/a	n/a	n/a	n/a
3581.326	n/a	RECOG_CONF	1790663	n/a	LTP097	ltpFR	2	2	n/a	BOUQUET	157	n/a	5	n/a	n/a	n/a	n/a	n/a	n/a
3582.924	n/a	RECOG_TARGET	1791462	n/a	LTP097	ltpFR	2	2	1	BRUISE	180	1	3	1	n/a	n/a	n/a	n/a	n/a
3583.912	n/a	RECOG_RESP_VV	1791956	n/a	LTP097	ltpFR	2	2	1	BRUISE	180	1	n/a	1	n/a	n/a	n/a	n/a	n/a
3587.228	n/a	RECOG_RESP	1793614	n/a	LTP097	ltpFR	2	2	1	BRUISE	180	1	n/a	1	n/a	n/a	n/a	n/a	n/a
3588.302	n/a	RECOG_CONF	1794151	n/a	LTP097	ltpFR	2	2	1	BRUISE	180	n/a	3	1	n/a	n/a	n/a	n/a	n/a
3590.056	n/a	RECOG_TARGET	1795028	n/a	LTP097	ltpFR	2	2	0	TECHNICIAN	1443	0	4	0	n/a	n/a	n/a	n/a	n/a
3590.9	n/a	RECOG_RESP	1795450	n/a	LTP097	ltpFR	2	2	0	TECHNICIAN	1443	0	n/a	0	n/a	n/a	n/a	n/a	n/a
3592.86	n/a	RECOG_CONF	1796430	n/a	LTP097	ltpFR	2	2	0	TECHNICIAN	1443	n/a	4	0	n/a	n/a	n/a	n/a	n/a
3594.478	n/a	RECOG_TARGET	1797239	n/a	LTP097	ltpFR	2	2	-1	CRATER	400	1	5	-1	n/a	n/a	n/a	n/a	n/a
3595.45	n/a	RECOG_RESP	1797725	n/a	LTP097	ltpFR	2	2	-1	CRATER	400	1	n/a	-1	n/a	n/a	n/a	n/a	n/a
3596.312	n/a	RECOG_CONF	1798156	n/a	LTP097	ltpFR	2	2	-1	CRATER	400	n/a	5	-1	n/a	n/a	n/a	n/a	n/a
3597.998	n/a	RECOG_TARGET	1798999	n/a	LTP097	ltpFR	2	2	1	CHEF	290	1	5	1	n/a	n/a	n/a	n/a	n/a
3598.798	n/a	RECOG_RESP	1799399	n/a	LTP097	ltpFR	2	2	1	CHEF	290	1	n/a	1	n/a	n/a	n/a	n/a	n/a
3599.834	n/a	RECOG_CONF	1799917	n/a	LTP097	ltpFR	2	2	1	CHEF	290	n/a	5	1	n/a	n/a	n/a	n/a	n/a
3601.37	n/a	RECOG_TARGET	1800685	n/a	LTP097	ltpFR	2	2	0	PEAR	1033	1	5	1	n/a	n/a	n/a	n/a	n/a
3602.18	n/a	RECOG_RESP	1801090	n/a	LTP097	ltpFR	2	2	0	PEAR	1033	1	n/a	1	n/a	n/a	n/a	n/a	n/a
3603.248	n/a	RECOG_CONF	1801624	n/a	LTP097	ltpFR	2	2	0	PEAR	1033	n/a	5	1	n/a	n/a	n/a	n/a	n/a
3604.84	n/a	RECOG_TARGET	1802420	n/a	LTP097	ltpFR	2	2	-1	MICROSCOPE	891	1	5	-1	n/a	n/a	n/a	n/a	n/a
3605.892	n/a	RECOG_RESP	1802946	n/a	LTP097	ltpFR	2	2	-1	MICROSCOPE	891	1	n/a	-1	n/a	n/a	n/a	n/a	n/a
3606.98	n/a	RECOG_CONF	1803490	n/a	LTP097	ltpFR	2	2	-1	MICROSCOPE	891	n/a	5	-1	n/a	n/a	n/a	n/a	n/a
3608.704	n/a	RECOG_LURE	1804352	n/a	LTP097	ltpFR	2	2	n/a	GLASSES	640	0	5	n/a	n/a	n/a	n/a	n/a	n/a
3609.444	n/a	RECOG_RESP	1804722	n/a	LTP097	ltpFR	2	2	n/a	GLASSES	640	0	n/a	n/a	n/a	n/a	n/a	n/a	n/a
3610.552	n/a	RECOG_CONF	1805276	n/a	LTP097	ltpFR	2	2	n/a	GLASSES	640	n/a	5	n/a	n/a	n/a	n/a	n/a	n/a
3612.132	n/a	RECOG_LURE	1806066	n/a	LTP097	ltpFR	2	2	n/a	CART	250	0	5	n/a	n/a	n/a	n/a	n/a	n/a
3613.85	n/a	RECOG_RESP	1806925	n/a	LTP097	ltpFR	2	2	n/a	CART	250	0	n/a	n/a	n/a	n/a	n/a	n/a	n/a
3615.022	n/a	RECOG_CONF	1807511	n/a	LTP097	ltpFR	2	2	n/a	CART	250	n/a	5	n/a	n/a	n/a	n/a	n/a	n/a
3616.81	n/a	RECOG_TARGET	1808405	n/a	LTP097	ltpFR	2	2	0	GIRAFFE	636	1	5	1	n/a	n/a	n/a	n/a	n/a
3617.796	n/a	RECOG_RESP	1808898	n/a	LTP097	ltpFR	2	2	0	GIRAFFE	636	1	n/a	1	n/a	n/a	n/a	n/a	n/a
3618.842	n/a	RECOG_CONF	1809421	n/a	LTP097	ltpFR	2	2	0	GIRAFFE	636	n/a	5	1	n/a	n/a	n/a	n/a	n/a
3620.432	n/a	RECOG_LURE	1810216	n/a	LTP097	ltpFR	2	2	n/a	TOENAIL	1474	0	5	n/a	n/a	n/a	n/a	n/a	n/a
3621.326	n/a	RECOG_RESP	1810663	n/a	LTP097	ltpFR	2	2	n/a	TOENAIL	1474	0	n/a	n/a	n/a	n/a	n/a	n/a	n/a
3622.394	n/a	RECOG_CONF	1811197	n/a	LTP097	ltpFR	2	2	n/a	TOENAIL	1474	n/a	5	n/a	n/a	n/a	n/a	n/a	n/a
3625.946	n/a	REC_START	1812973	n/a	LTP097	ltpFR	2	3	n/a	n/a	n/a	n/a	n/a	n/a	n/a	n/a	n/a	n/a	n/a
3625.974	n/a	RECOG_TARGET	1812987	n/a	LTP097	ltpFR	2	3	0	PALACE	1006	1	5	0	n/a	n/a	n/a	n/a	n/a
3626.858	n/a	RECOG_RESP	1813429	n/a	LTP097	ltpFR	2	3	0	PALACE	1006	1	n/a	0	n/a	n/a	n/a	n/a	n/a
3627.826	n/a	RECOG_CONF	1813913	n/a	LTP097	ltpFR	2	3	0	PALACE	1006	n/a	5	0	n/a	n/a	n/a	n/a	n/a
3629.622	n/a	RECOG_TARGET	1814811	n/a	LTP097	ltpFR	2	3	0	GORILLA	650	1	5	0	n/a	n/a	n/a	n/a	n/a
3630.4	n/a	RECOG_RESP	1815200	n/a	LTP097	ltpFR	2	3	0	GORILLA	650	1	n/a	0	n/a	n/a	n/a	n/a	n/a
3631.508	n/a	RECOG_CONF	1815754	n/a	LTP097	ltpFR	2	3	0	GORILLA	650	n/a	5	0	n/a	n/a	n/a	n/a	n/a
3633.166	n/a	RECOG_LURE	1816583	n/a	LTP097	ltpFR	2	3	n/a	SHRUB	1299	0	4	n/a	n/a	n/a	n/a	n/a	n/a
3634.002	n/a	RECOG_RESP	1817001	n/a	LTP097	ltpFR	2	3	n/a	SHRUB	1299	0	n/a	n/a	n/a	n/a	n/a	n/a	n/a
3634.79	n/a	RECOG_CONF	1817395	n/a	LTP097	ltpFR	2	3	n/a	SHRUB	1299	n/a	4	n/a	n/a	n/a	n/a	n/a	n/a
3636.48	n/a	RECOG_TARGET	1818240	n/a	LTP097	ltpFR	2	3	-1	TUSK	1523	1	5	-1	n/a	n/a	n/a	n/a	n/a
3637.224	n/a	RECOG_RESP	1818612	n/a	LTP097	ltpFR	2	3	-1	TUSK	1523	1	n/a	-1	n/a	n/a	n/a	n/a	n/a
3638.292	n/a	RECOG_CONF	1819146	n/a	LTP097	ltpFR	2	3	-1	TUSK	1523	n/a	5	-1	n/a	n/a	n/a	n/a	n/a
3639.892	n/a	RECOG_TARGET	1819946	n/a	LTP097	ltpFR	2	3	0	SEAL	1262	1	5	1	n/a	n/a	n/a	n/a	n/a
3640.826	n/a	RECOG_RESP	1820413	n/a	LTP097	ltpFR	2	3	0	SEAL	1262	1	n/a	1	n/a	n/a	n/a	n/a	n/a
3641.934	n/a	RECOG_CONF	1820967	n/a	LTP097	ltpFR	2	3	0	SEAL	1262	n/a	5	1	n/a	n/a	n/a	n/a	n/a
3643.588	n/a	RECOG_TARGET	1821794	n/a	LTP097	ltpFR	2	3	1	TELEVISION	1447	0	4	0	n/a	n/a	n/a	n/a	n/a
3644.752	n/a	RECOG_RESP	1822376	n/a	LTP097	ltpFR	2	3	1	TELEVISION	1447	0	n/a	0	n/a	n/a	n/a	n/a	n/a
3645.934	n/a	RECOG_CONF	1822967	n/a	LTP097	ltpFR	2	3	1	TELEVISION	1447	n/a	4	0	n/a	n/a	n/a	n/a	n/a
3647.592	n/a	RECOG_TARGET	1823796	n/a	LTP097	ltpFR	2	3	0	JUNGLE	764	1	5	0	n/a	n/a	n/a	n/a	n/a
3648.374	n/a	RECOG_RESP	1824187	n/a	LTP097	ltpFR	2	3	0	JUNGLE	764	1	n/a	0	n/a	n/a	n/a	n/a	n/a
3649.406	n/a	RECOG_CONF	1824703	n/a	LTP097	ltpFR	2	3	0	JUNGLE	764	n/a	5	0	n/a	n/a	n/a	n/a	n/a
3651.146	n/a	RECOG_TARGET	1825573	n/a	LTP097	ltpFR	2	3	1	TWIG	1527	1	5	0	n/a	n/a	n/a	n/a	n/a
3652.06	n/a	RECOG_RESP	1826030	n/a	LTP097	ltpFR	2	3	1	TWIG	1527	1	n/a	0	n/a	n/a	n/a	n/a	n/a
3653.148	n/a	RECOG_CONF	1826574	n/a	LTP097	ltpFR	2	3	1	TWIG	1527	n/a	5	0	n/a	n/a	n/a	n/a	n/a
3654.866	n/a	RECOG_LURE	1827433	n/a	LTP097	ltpFR	2	3	n/a	ATTIC	56	0	4	n/a	n/a	n/a	n/a	n/a	n/a
3655.648	n/a	RECOG_RESP	1827824	n/a	LTP097	ltpFR	2	3	n/a	ATTIC	56	0	n/a	n/a	n/a	n/a	n/a	n/a	n/a
3656.76	n/a	RECOG_CONF	1828380	n/a	LTP097	ltpFR	2	3	n/a	ATTIC	56	n/a	4	n/a	n/a	n/a	n/a	n/a	n/a
3658.272	n/a	RECOG_TARGET	1829136	n/a	LTP097	ltpFR	2	3	0	BARLEY	88	0	5	0	n/a	n/a	n/a	n/a	n/a
3659.864	n/a	RECOG_RESP	1829932	n/a	LTP097	ltpFR	2	3	0	BARLEY	88	0	n/a	0	n/a	n/a	n/a	n/a	n/a
3660.9	n/a	RECOG_CONF	1830450	n/a	LTP097	ltpFR	2	3	0	BARLEY	88	n/a	5	0	n/a	n/a	n/a	n/a	n/a
3662.616	n/a	RECOG_LURE	1831308	n/a	LTP097	ltpFR	2	3	n/a	BANJO	82	1	5	n/a	n/a	n/a	n/a	n/a	n/a
3663.76	n/a	RECOG_RESP	1831880	n/a	LTP097	ltpFR	2	3	n/a	BANJO	82	1	n/a	n/a	n/a	n/a	n/a	n/a	n/a
3664.604	n/a	RECOG_CONF	1832302	n/a	LTP097	ltpFR	2	3	n/a	BANJO	82	n/a	5	n/a	n/a	n/a	n/a	n/a	n/a
3666.578	n/a	RECOG_TARGET	1833289	n/a	LTP097	ltpFR	2	3	0	NERVE	944	1	5	0	n/a	n/a	n/a	n/a	n/a
3667.556	n/a	RECOG_RESP	1833778	n/a	LTP097	ltpFR	2	3	0	NERVE	944	1	n/a	0	n/a	n/a	n/a	n/a	n/a
3668.754	n/a	RECOG_CONF	1834377	n/a	LTP097	ltpFR	2	3	0	NERVE	944	n/a	5	0	n/a	n/a	n/a	n/a	n/a
3670.456	n/a	RECOG_TARGET	1835228	n/a	LTP097	ltpFR	2	3	0	HATCHET	691	1	5	1	n/a	n/a	n/a	n/a	n/a
3671.118	n/a	RECOG_RESP	1835559	n/a	LTP097	ltpFR	2	3	0	HATCHET	691	1	n/a	1	n/a	n/a	n/a	n/a	n/a
3672.216	n/a	RECOG_CONF	1836108	n/a	LTP097	ltpFR	2	3	0	HATCHET	691	n/a	5	1	n/a	n/a	n/a	n/a	n/a
3673.894	n/a	RECOG_LURE	1836947	n/a	LTP097	ltpFR	2	3	n/a	CARNIVAL	245	0	4	n/a	n/a	n/a	n/a	n/a	n/a
3674.724	n/a	RECOG_RESP	1837362	n/a	LTP097	ltpFR	2	3	n/a	CARNIVAL	245	0	n/a	n/a	n/a	n/a	n/a	n/a	n/a
3675.67	n/a	RECOG_CONF	1837835	n/a	LTP097	ltpFR	2	3	n/a	CARNIVAL	245	n/a	4	n/a	n/a	n/a	n/a	n/a	n/a
3677.574	n/a	RECOG_TARGET	1838787	n/a	LTP097	ltpFR	2	3	-1	GRILL	661	1	5	-1	n/a	n/a	n/a	n/a	n/a
3678.732	n/a	RECOG_RESP	1839366	n/a	LTP097	ltpFR	2	3	-1	GRILL	661	1	n/a	-1	n/a	n/a	n/a	n/a	n/a
3679.63	n/a	RECOG_CONF	1839815	n/a	LTP097	ltpFR	2	3	-1	GRILL	661	n/a	5	-1	n/a	n/a	n/a	n/a	n/a
3681.428	n/a	RECOG_LURE	1840714	n/a	LTP097	ltpFR	2	3	n/a	MOTOR	922	0	5	n/a	n/a	n/a	n/a	n/a	n/a
3682.098	n/a	RECOG_RESP	1841049	n/a	LTP097	ltpFR	2	3	n/a	MOTOR	922	0	n/a	n/a	n/a	n/a	n/a	n/a	n/a
3683.092	n/a	RECOG_CONF	1841546	n/a	LTP097	ltpFR	2	3	n/a	MOTOR	922	n/a	5	n/a	n/a	n/a	n/a	n/a	n/a
3684.798	n/a	RECOG_TARGET	1842399	n/a	LTP097	ltpFR	2	3	-1	MOSQUITO	917	1	5	-1	n/a	n/a	n/a	n/a	n/a
3686.114	n/a	RECOG_RESP	1843057	n/a	LTP097	ltpFR	2	3	-1	MOSQUITO	917	1	n/a	-1	n/a	n/a	n/a	n/a	n/a
3686.962	n/a	RECOG_CONF	1843481	n/a	LTP097	ltpFR	2	3	-1	MOSQUITO	917	n/a	5	-1	n/a	n/a	n/a	n/a	n/a
3688.96	n/a	RECOG_LURE	1844480	n/a	LTP097	ltpFR	2	3	n/a	BATH	98	0	5	n/a	n/a	n/a	n/a	n/a	n/a
3690.49	n/a	RECOG_RESP	1845245	n/a	LTP097	ltpFR	2	3	n/a	BATH	98	0	n/a	n/a	n/a	n/a	n/a	n/a	n/a
3691.582	n/a	RECOG_CONF	1845791	n/a	LTP097	ltpFR	2	3	n/a	BATH	98	n/a	5	n/a	n/a	n/a	n/a	n/a	n/a
3693.214	n/a	RECOG_LURE	1846607	n/a	LTP097	ltpFR	2	3	n/a	WARDROBE	1587	0	5	n/a	n/a	n/a	n/a	n/a	n/a
3694.146	n/a	RECOG_RESP	1847073	n/a	LTP097	ltpFR	2	3	n/a	WARDROBE	1587	0	n/a	n/a	n/a	n/a	n/a	n/a	n/a
3695.184	n/a	RECOG_CONF	1847592	n/a	LTP097	ltpFR	2	3	n/a	WARDROBE	1587	n/a	5	n/a	n/a	n/a	n/a	n/a	n/a
3696.86	n/a	RECOG_TARGET	1848430	n/a	LTP097	ltpFR	2	3	1	BACK	65	1	5	1	n/a	n/a	n/a	n/a	n/a
3697.808	n/a	RECOG_RESP	1848904	n/a	LTP097	ltpFR	2	3	1	BACK	65	1	n/a	1	n/a	n/a	n/a	n/a	n/a
3698.856	n/a	RECOG_CONF	1849428	n/a	LTP097	ltpFR	2	3	1	BACK	65	n/a	5	1	n/a	n/a	n/a	n/a	n/a
3710.542	n/a	REC_START	1855271	n/a	LTP097	ltpFR	2	4	n/a	n/a	n/a	n/a	n/a	n/a	n/a	n/a	n/a	n/a	n/a
3710.57	n/a	RECOG_LURE	1855285	n/a	LTP097	ltpFR	2	4	n/a	TROUSERS	1510	0	5	n/a	n/a	n/a	n/a	n/a	n/a
3711.256	n/a	RECOG_RESP	1855628	n/a	LTP097	ltpFR	2	4	n/a	TROUSERS	1510	0	n/a	n/a	n/a	n/a	n/a	n/a	n/a
3712.254	n/a	RECOG_CONF	1856127	n/a	LTP097	ltpFR	2	4	n/a	TROUSERS	1510	n/a	5	n/a	n/a	n/a	n/a	n/a	n/a
3713.932	n/a	RECOG_TARGET	1856966	n/a	LTP097	ltpFR	2	4	1	SQUID	1361	1	4	1	n/a	n/a	n/a	n/a	n/a
3714.972	n/a	RECOG_RESP_VV	1857486	n/a	LTP097	ltpFR	2	4	1	SQUID	1361	0	n/a	1	n/a	n/a	n/a	n/a	n/a
3715.736	n/a	RECOG_RESP	1857868	n/a	LTP097	ltpFR	2	4	1	SQUID	1361	1	n/a	1	n/a	n/a	n/a	n/a	n/a
3716.902	n/a	RECOG_CONF	1858451	n/a	LTP097	ltpFR	2	4	1	SQUID	1361	n/a	4	1	n/a	n/a	n/a	n/a	n/a
3718.502	n/a	RECOG_TARGET	1859251	n/a	LTP097	ltpFR	2	4	1	FLAG	573	0	4	1	n/a	n/a	n/a	n/a	n/a
3719.702	n/a	RECOG_RESP	1859851	n/a	LTP097	ltpFR	2	4	1	FLAG	573	0	n/a	1	n/a	n/a	n/a	n/a	n/a
3720.934	n/a	RECOG_CONF	1860467	n/a	LTP097	ltpFR	2	4	1	FLAG	573	n/a	4	1	n/a	n/a	n/a	n/a	n/a
3722.572	n/a	RECOG_TARGET	1861286	n/a	LTP097	ltpFR	2	4	0	TAPE	1433	1	5	1	n/a	n/a	n/a	n/a	n/a
3727.13	n/a	RECOG_RESP	1863565	n/a	LTP097	ltpFR	2	4	0	TAPE	1433	1	n/a	1	n/a	n/a	n/a	n/a	n/a
3728.118	n/a	RECOG_CONF	1864059	n/a	LTP097	ltpFR	2	4	0	TAPE	1433	n/a	5	1	n/a	n/a	n/a	n/a	n/a
3729.78	n/a	RECOG_LURE	1864890	n/a	LTP097	ltpFR	2	4	n/a	BOOT	150	0	4	n/a	n/a	n/a	n/a	n/a	n/a
3730.692	n/a	RECOG_RESP	1865346	n/a	LTP097	ltpFR	2	4	n/a	BOOT	150	0	n/a	n/a	n/a	n/a	n/a	n/a	n/a
3731.76	n/a	RECOG_CONF	1865880	n/a	LTP097	ltpFR	2	4	n/a	BOOT	150	n/a	4	n/a	n/a	n/a	n/a	n/a	n/a
3733.226	n/a	RECOG_TARGET	1866613	n/a	LTP097	ltpFR	2	4	-1	MOUNTAIN	924	1	5	-1	n/a	n/a	n/a	n/a	n/a
3734.294	n/a	RECOG_RESP	1867147	n/a	LTP097	ltpFR	2	4	-1	MOUNTAIN	924	1	n/a	-1	n/a	n/a	n/a	n/a	n/a
3735.192	n/a	RECOG_CONF	1867596	n/a	LTP097	ltpFR	2	4	-1	MOUNTAIN	924	n/a	5	-1	n/a	n/a	n/a	n/a	n/a
3736.804	n/a	RECOG_TARGET	1868402	n/a	LTP097	ltpFR	2	4	1	FEAST	556	1	5	0	n/a	n/a	n/a	n/a	n/a
3737.92	n/a	RECOG_RESP	1868960	n/a	LTP097	ltpFR	2	4	1	FEAST	556	1	n/a	0	n/a	n/a	n/a	n/a	n/a
3740.34	n/a	RECOG_CONF	1870170	n/a	LTP097	ltpFR	2	4	1	FEAST	556	n/a	5	0	n/a	n/a	n/a	n/a	n/a
3742.032	n/a	RECOG_TARGET	1871016	n/a	LTP097	ltpFR	2	4	1	BOY	161	1	5	1	n/a	n/a	n/a	n/a	n/a
3742.74	n/a	RECOG_RESP	1871370	n/a	LTP097	ltpFR	2	4	1	BOY	161	1	n/a	1	n/a	n/a	n/a	n/a	n/a
3743.572	n/a	RECOG_CONF	1871786	n/a	LTP097	ltpFR	2	4	1	BOY	161	n/a	5	1	n/a	n/a	n/a	n/a	n/a
3745.046	n/a	RECOG_TARGET	1872523	n/a	LTP097	ltpFR	2	4	0	ANKLE	24	1	5	1	n/a	n/a	n/a	n/a	n/a
3745.906	n/a	RECOG_RESP	1872953	n/a	LTP097	ltpFR	2	4	0	ANKLE	24	1	n/a	1	n/a	n/a	n/a	n/a	n/a
3746.636	n/a	RECOG_CONF	1873318	n/a	LTP097	ltpFR	2	4	0	ANKLE	24	n/a	5	1	n/a	n/a	n/a	n/a	n/a
3748.284	n/a	RECOG_LURE	1874142	n/a	LTP097	ltpFR	2	4	n/a	RELATIVE	1182	0	5	n/a	n/a	n/a	n/a	n/a	n/a
3749.114	n/a	RECOG_RESP	1874557	n/a	LTP097	ltpFR	2	4	n/a	RELATIVE	1182	0	n/a	n/a	n/a	n/a	n/a	n/a	n/a
3749.998	n/a	RECOG_CONF	1874999	n/a	LTP097	ltpFR	2	4	n/a	RELATIVE	1182	n/a	5	n/a	n/a	n/a	n/a	n/a	n/a
3751.372	n/a	RECOG_LURE	1875686	n/a	LTP097	ltpFR	2	4	n/a	JELLY	755	0	5	n/a	n/a	n/a	n/a	n/a	n/a
3752.062	n/a	RECOG_RESP	1876031	n/a	LTP097	ltpFR	2	4	n/a	JELLY	755	0	n/a	n/a	n/a	n/a	n/a	n/a	n/a
3753.02	n/a	RECOG_CONF	1876510	n/a	LTP097	ltpFR	2	4	n/a	JELLY	755	n/a	5	n/a	n/a	n/a	n/a	n/a	n/a
3754.418	n/a	RECOG_TARGET	1877209	n/a	LTP097	ltpFR	2	4	0	ARM	38	1	5	0	n/a	n/a	n/a	n/a	n/a
3755.276	n/a	RECOG_RESP	1877638	n/a	LTP097	ltpFR	2	4	0	ARM	38	1	n/a	0	n/a	n/a	n/a	n/a	n/a
