mstime	trial_type	stim_file	subject	experiment	session	trial	item_name	item_num	list	answer	test_x	test_y	test_z
0	SESS_START	n/a	LTP315	ltpFR2	4	n/a	n/a	n/a	n/a	n/a	0	0	0
17988	START	n/a	LTP315	ltpFR2	4	n/a	n/a	n/a	-1	n/a	n/a	n/a	n/a
18003	PROB	n/a	LTP315	ltpFR2	4	n/a	n/a	n/a	-1	7	2	3	2
20070	PROB	n/a	LTP315	ltpFR2	4	n/a	n/a	n/a	-1	11	2	4	5
21524	PROB	n/a	LTP315	ltpFR2	4	n/a	n/a	n/a	-1	9	3	3	3
22489	PROB	n/a	LTP315	ltpFR2	4	n/a	n/a	n/a	-1	6	3	2	1
24240	PROB	n/a	LTP315	ltpFR2	4	n/a	n/a	n/a	-1	12	3	6	3
25842	PROB	n/a	LTP315	ltpFR2	4	n/a	n/a	n/a	-1	16	2	9	5
27728	PROB	n/a	LTP315	ltpFR2	4	n/a	n/a	n/a	-1	14	2	5	7
29130	STOP	n/a	LTP315	ltpFR2	4	n/a	n/a	n/a	-1	n/a	n/a	n/a	n/a
72192	WORD	wordpools/wasnorm_wordpool_576.txt	LTP315	ltpFR2	4	1	WASHER	1592	n/a	n/a	0	0	0
74748	WORD	wordpools/wasnorm_wordpool_576.txt	LTP315	ltpFR2	4	1	SCULPTURE	1258	n/a	n/a	0	0	0
77282	WORD	wordpools/wasnorm_wordpool_576.txt	LTP315	ltpFR2	4	1	QUEEN	1149	n/a	n/a	0	0	0
80068	WORD	wordpools/wasnorm_wordpool_576.txt	LTP315	ltpFR2	4	1	MISTER	901	n/a	n/a	0	0	0
82604	WORD	wordpools/wasnorm_wordpool_576.txt	LTP315	ltpFR2	4	1	JUGGLER	763	n/a	n/a	0	0	0
85372	WORD	wordpools/wasnorm_wordpool_576.txt	LTP315	ltpFR2	4	1	PEDAL	1037	n/a	n/a	0	0	0
88058	WORD	wordpools/wasnorm_wordpool_576.txt	LTP315	ltpFR2	4	1	MILK	895	n/a	n/a	0	0	0
90645	WORD	wordpools/wasnorm_wordpool_576.txt	LTP315	ltpFR2	4	1	COCKTAIL	338	n/a	n/a	0	0	0
93129	WORD	wordpools/wasnorm_wordpool_576.txt	LTP315	ltpFR2	4	1	GLASS	639	n/a	n/a	0	0	0
95732	WORD	wordpools/wasnorm_wordpool_576.txt	LTP315	ltpFR2	4	1	MAMMAL	861	n/a	n/a	0	0	0
98316	WORD	wordpools/wasnorm_wordpool_576.txt	LTP315	ltpFR2	4	1	DOLPHIN	483	n/a	n/a	0	0	0
101053	WORD	wordpools/wasnorm_wordpool_576.txt	LTP315	ltpFR2	4	1	PEPPER	1047	n/a	n/a	0	0	0
103673	WORD	wordpools/wasnorm_wordpool_576.txt	LTP315	ltpFR2	4	1	ITEM	746	n/a	n/a	0	0	0
106173	WORD	wordpools/wasnorm_wordpool_576.txt	LTP315	ltpFR2	4	1	POLICE	1098	n/a	n/a	0	0	0
108710	WORD	wordpools/wasnorm_wordpool_576.txt	LTP315	ltpFR2	4	1	SALT	1229	n/a	n/a	0	0	0
111362	WORD	wordpools/wasnorm_wordpool_576.txt	LTP315	ltpFR2	4	1	POET	1095	n/a	n/a	0	0	0
113831	WORD	wordpools/wasnorm_wordpool_576.txt	LTP315	ltpFR2	4	1	SCISSORS	1250	n/a	n/a	0	0	0
116550	WORD	wordpools/wasnorm_wordpool_576.txt	LTP315	ltpFR2	4	1	ICING	732	n/a	n/a	0	0	0
119118	WORD	wordpools/wasnorm_wordpool_576.txt	LTP315	ltpFR2	4	1	DRINK	498	n/a	n/a	0	0	0
121588	WORD	wordpools/wasnorm_wordpool_576.txt	LTP315	ltpFR2	4	1	FLASK	576	n/a	n/a	0	0	0
124155	WORD	wordpools/wasnorm_wordpool_576.txt	LTP315	ltpFR2	4	1	BUREAU	199	n/a	n/a	0	0	0
126908	WORD	wordpools/wasnorm_wordpool_576.txt	LTP315	ltpFR2	4	1	COUNTY	389	n/a	n/a	0	0	0
129628	WORD	wordpools/wasnorm_wordpool_576.txt	LTP315	ltpFR2	4	1	LABEL	790	n/a	n/a	0	0	0
132145	WORD	wordpools/wasnorm_wordpool_576.txt	LTP315	ltpFR2	4	1	SHRUB	1299	n/a	n/a	0	0	0
133765	START	n/a	LTP315	ltpFR2	4	n/a	n/a	n/a	1	n/a	n/a	n/a	n/a
134756	DISTRACTOR	n/a	LTP315	ltpFR2	4	1	n/a	n/a	n/a	n/a	0	0	0
134765	PROB	n/a	LTP315	ltpFR2	4	n/a	n/a	n/a	1	17	5	8	4
137098	PROB	n/a	LTP315	ltpFR2	4	n/a	n/a	n/a	1	20	9	9	2
139216	PROB	n/a	LTP315	ltpFR2	4	n/a	n/a	n/a	1	14	5	3	6
140885	PROB	n/a	LTP315	ltpFR2	4	n/a	n/a	n/a	1	18	1	9	8
142186	PROB	n/a	LTP315	ltpFR2	4	n/a	n/a	n/a	1	7	2	3	2
143721	PROB	n/a	LTP315	ltpFR2	4	n/a	n/a	n/a	1	19	4	6	9
145071	PROB	n/a	LTP315	ltpFR2	4	n/a	n/a	n/a	1	13	1	7	5
146456	PROB	n/a	LTP315	ltpFR2	4	n/a	n/a	n/a	1	10	2	6	2
147758	PROB	n/a	LTP315	ltpFR2	4	n/a	n/a	n/a	1	18	5	5	8
149643	PROB	n/a	LTP315	ltpFR2	4	n/a	n/a	n/a	1	10	3	2	5
151176	PROB	n/a	LTP315	ltpFR2	4	n/a	n/a	n/a	1	14	9	3	2
153279	PROB	n/a	LTP315	ltpFR2	4	n/a	n/a	n/a	1	21	8	4	9
155681	PROB	n/a	LTP315	ltpFR2	4	n/a	n/a	n/a	1	16	3	8	5
157327	STOP	n/a	LTP315	ltpFR2	4	n/a	n/a	n/a	1	n/a	n/a	n/a	n/a
159600	REC_START	n/a	LTP315	ltpFR2	4	1	n/a	n/a	n/a	n/a	0	0	0
161138	REC_WORD	wordpools/wasnorm_wordpool_576.txt	LTP315	ltpFR2	4	1	POLICE	1098	n/a	n/a	0	0	0
162266	REC_WORD	wordpools/wasnorm_wordpool_576.txt	LTP315	ltpFR2	4	1	BUREAU	199	n/a	n/a	0	0	0
163223	REC_WORD	wordpools/wasnorm_wordpool_576.txt	LTP315	ltpFR2	4	1	COUNTY	389	n/a	n/a	0	0	0
164395	REC_WORD	wordpools/wasnorm_wordpool_576.txt	LTP315	ltpFR2	4	1	ITEM	746	n/a	n/a	0	0	0
165536	REC_WORD	wordpools/wasnorm_wordpool_576.txt	LTP315	ltpFR2	4	1	MILK	895	n/a	n/a	0	0	0
166664	REC_WORD	wordpools/wasnorm_wordpool_576.txt	LTP315	ltpFR2	4	1	MAMMAL	861	n/a	n/a	0	0	0
167998	REC_WORD	wordpools/wasnorm_wordpool_576.txt	LTP315	ltpFR2	4	1	DOLPHIN	483	n/a	n/a	0	0	0
169043	REC_WORD	wordpools/wasnorm_wordpool_576.txt	LTP315	ltpFR2	4	1	SALT	1229	n/a	n/a	0	0	0
170460	REC_WORD	wordpools/wasnorm_wordpool_576.txt	LTP315	ltpFR2	4	1	PEPPER	1047	n/a	n/a	0	0	0
171617	REC_WORD	wordpools/wasnorm_wordpool_576.txt	LTP315	ltpFR2	4	1	SCISSORS	1250	n/a	n/a	0	0	0
172998	REC_WORD	wordpools/wasnorm_wordpool_576.txt	LTP315	ltpFR2	4	1	JUGGLER	763	n/a	n/a	0	0	0
174220	REC_WORD	wordpools/wasnorm_wordpool_576.txt	LTP315	ltpFR2	4	1	POET	1095	n/a	n/a	0	0	0
176521	REC_WORD	wordpools/wasnorm_wordpool_576.txt	LTP315	ltpFR2	4	1	WASHER	1592	n/a	n/a	0	0	0
180794	REC_WORD	wordpools/wasnorm_wordpool_576.txt	LTP315	ltpFR2	4	1	PEDAL	1037	n/a	n/a	0	0	0
208883	REC_WORD	wordpools/wasnorm_wordpool_576.txt	LTP315	ltpFR2	4	1	DRINK	498	n/a	n/a	0	0	0
209803	REC_WORD	wordpools/wasnorm_wordpool_576.txt	LTP315	ltpFR2	4	1	FLASK	576	n/a	n/a	0	0	0
250025	DISTRACTOR	n/a	LTP315	ltpFR2	4	2	n/a	n/a	n/a	n/a	0	0	0
250025	START	n/a	LTP315	ltpFR2	4	n/a	n/a	n/a	2	n/a	n/a	n/a	n/a
250039	PROB	n/a	LTP315	ltpFR2	4	n/a	n/a	n/a	2	18	3	8	7
252056	PROB	n/a	LTP315	ltpFR2	4	n/a	n/a	n/a	2	18	7	3	8
253610	PROB	n/a	LTP315	ltpFR2	4	n/a	n/a	n/a	2	8	4	3	1
255943	PROB	n/a	LTP315	ltpFR2	4	n/a	n/a	n/a	2	15	2	5	8
257295	PROB	n/a	LTP315	ltpFR2	4	n/a	n/a	n/a	2	10	1	3	6
259963	PROB	n/a	LTP315	ltpFR2	4	n/a	n/a	n/a	2	20	4	7	9
261950	PROB	n/a	LTP315	ltpFR2	4	n/a	n/a	n/a	2	17	9	7	1
263818	PROB	n/a	LTP315	ltpFR2	4	n/a	n/a	n/a	2	11	5	5	1
264969	PROB	n/a	LTP315	ltpFR2	4	n/a	n/a	n/a	2	20	5	7	8
266788	PROB	n/a	LTP315	ltpFR2	4	n/a	n/a	n/a	2	10	1	3	6
268271	PROB	n/a	LTP315	ltpFR2	4	n/a	n/a	n/a	2	18	3	9	6
270488	PROB	n/a	LTP315	ltpFR2	4	n/a	n/a	n/a	2	12	6	4	2
271707	PROB	n/a	LTP315	ltpFR2	4	n/a	n/a	n/a	2	9	2	4	3
273549	STOP	n/a	LTP315	ltpFR2	4	n/a	n/a	n/a	2	n/a	n/a	n/a	n/a
275022	WORD	wordpools/wasnorm_wordpool_576.txt	LTP315	ltpFR2	4	2	CHIPMUNK	304	n/a	n/a	0	0	0
277612	WORD	wordpools/wasnorm_wordpool_576.txt	LTP315	ltpFR2	4	2	STUDENT	1395	n/a	n/a	0	0	0
280175	WORD	wordpools/wasnorm_wordpool_576.txt	LTP315	ltpFR2	4	2	TEACHER	1440	n/a	n/a	0	0	0
282951	WORD	wordpools/wasnorm_wordpool_576.txt	LTP315	ltpFR2	4	2	TEMPLE	1448	n/a	n/a	0	0	0
285430	WORD	wordpools/wasnorm_wordpool_576.txt	LTP315	ltpFR2	4	2	FRIAR	605	n/a	n/a	0	0	0
288232	WORD	wordpools/wasnorm_wordpool_576.txt	LTP315	ltpFR2	4	2	LACE	792	n/a	n/a	0	0	0
290840	WORD	wordpools/wasnorm_wordpool_576.txt	LTP315	ltpFR2	4	2	SURVEY	1414	n/a	n/a	0	0	0
293320	WORD	wordpools/wasnorm_wordpool_576.txt	LTP315	ltpFR2	4	2	MAPLE	866	n/a	n/a	0	0	0
295790	WORD	wordpools/wasnorm_wordpool_576.txt	LTP315	ltpFR2	4	2	SWAMP	1416	n/a	n/a	0	0	0
298475	WORD	wordpools/wasnorm_wordpool_576.txt	LTP315	ltpFR2	4	2	COBRA	336	n/a	n/a	0	0	0
301060	WORD	wordpools/wasnorm_wordpool_576.txt	LTP315	ltpFR2	4	2	TABLE	1426	n/a	n/a	0	0	0
303779	WORD	wordpools/wasnorm_wordpool_576.txt	LTP315	ltpFR2	4	2	BRAKE	166	n/a	n/a	0	0	0
306365	WORD	wordpools/wasnorm_wordpool_576.txt	LTP315	ltpFR2	4	2	PLATE	1086	n/a	n/a	0	0	0
309150	WORD	wordpools/wasnorm_wordpool_576.txt	LTP315	ltpFR2	4	2	PERFUME	1049	n/a	n/a	0	0	0
311854	WORD	wordpools/wasnorm_wordpool_576.txt	LTP315	ltpFR2	4	2	FLOWER	584	n/a	n/a	0	0	0
314522	WORD	wordpools/wasnorm_wordpool_576.txt	LTP315	ltpFR2	4	2	TREAT	1501	n/a	n/a	0	0	0
317140	WORD	wordpools/wasnorm_wordpool_576.txt	LTP315	ltpFR2	4	2	SHERIFF	1284	n/a	n/a	0	0	0
319627	WORD	wordpools/wasnorm_wordpool_576.txt	LTP315	ltpFR2	4	2	JELLY	755	n/a	n/a	0	0	0
322115	WORD	wordpools/wasnorm_wordpool_576.txt	LTP315	ltpFR2	4	2	PADDING	999	n/a	n/a	0	0	0
324683	WORD	wordpools/wasnorm_wordpool_576.txt	LTP315	ltpFR2	4	2	BLOCKADE	137	n/a	n/a	0	0	0
327350	WORD	wordpools/wasnorm_wordpool_576.txt	LTP315	ltpFR2	4	2	CASKET	255	n/a	n/a	0	0	0
330152	WORD	wordpools/wasnorm_wordpool_576.txt	LTP315	ltpFR2	4	2	CASHIER	254	n/a	n/a	0	0	0
332889	WORD	wordpools/wasnorm_wordpool_576.txt	LTP315	ltpFR2	4	2	LADDER	793	n/a	n/a	0	0	0
335610	WORD	wordpools/wasnorm_wordpool_576.txt	LTP315	ltpFR2	4	2	EUROPE	541	n/a	n/a	0	0	0
337226	START	n/a	LTP315	ltpFR2	4	n/a	n/a	n/a	3	n/a	n/a	n/a	n/a
338419	DISTRACTOR	n/a	LTP315	ltpFR2	4	2	n/a	n/a	n/a	n/a	0	0	0
338426	PROB	n/a	LTP315	ltpFR2	4	n/a	n/a	n/a	3	13	5	3	5
340046	PROB	n/a	LTP315	ltpFR2	4	n/a	n/a	n/a	3	8	2	2	4
341746	PROB	n/a	LTP315	ltpFR2	4	n/a	n/a	n/a	3	13	4	1	8
344000	PROB	n/a	LTP315	ltpFR2	4	n/a	n/a	n/a	3	21	9	3	9
345617	PROB	n/a	LTP315	ltpFR2	4	n/a	n/a	n/a	3	20	8	7	5
347000	PROB	n/a	LTP315	ltpFR2	4	n/a	n/a	n/a	3	9	2	2	5
348302	PROB	n/a	LTP315	ltpFR2	4	n/a	n/a	n/a	3	11	3	1	7
349969	PROB	n/a	LTP315	ltpFR2	4	n/a	n/a	n/a	3	1	2	5	4
351654	PROB	n/a	LTP315	ltpFR2	4	n/a	n/a	n/a	3	15	2	8	5
353524	PROB	n/a	LTP315	ltpFR2	4	n/a	n/a	n/a	3	19	6	6	7
355024	PROB	n/a	LTP315	ltpFR2	4	n/a	n/a	n/a	3	20	5	7	8
357174	PROB	n/a	LTP315	ltpFR2	4	n/a	n/a	n/a	3	9	7	1	1
361226	STOP	n/a	LTP315	ltpFR2	4	n/a	n/a	n/a	3	n/a	n/a	n/a	n/a
363030	REC_START	n/a	LTP315	ltpFR2	4	2	n/a	n/a	n/a	n/a	0	0	0
365330	REC_WORD	wordpools/wasnorm_wordpool_576.txt	LTP315	ltpFR2	4	2	SHERIFF	1284	n/a	n/a	0	0	0
369089	REC_WORD	wordpools/wasnorm_wordpool_576.txt	LTP315	ltpFR2	4	2	BLOCKADE	137	n/a	n/a	0	0	0
387076	REC_WORD	wordpools/wasnorm_wordpool_576.txt	LTP315	ltpFR2	4	2	PERFUME	1049	n/a	n/a	0	0	0
387783	REC_WORD	wordpools/wasnorm_wordpool_576.txt	LTP315	ltpFR2	4	2	PLATE	1086	n/a	n/a	0	0	0
388331	REC_WORD	wordpools/wasnorm_wordpool_576.txt	LTP315	ltpFR2	4	2	TABLE	1426	n/a	n/a	0	0	0
389027	REC_WORD	wordpools/wasnorm_wordpool_576.txt	LTP315	ltpFR2	4	2	EUROPE	541	n/a	n/a	0	0	0
405094	REC_WORD	wordpools/wasnorm_wordpool_576.txt	LTP315	ltpFR2	4	2	SWAMP	1416	n/a	n/a	0	0	0
406531	REC_WORD	wordpools/wasnorm_wordpool_576.txt	LTP315	ltpFR2	4	2	CHIPMUNK	304	n/a	n/a	0	0	0
407863	REC_WORD	wordpools/wasnorm_wordpool_576.txt	LTP315	ltpFR2	4	2	FLOWER	584	n/a	n/a	0	0	0
408797	REC_WORD	wordpools/wasnorm_wordpool_576.txt	LTP315	ltpFR2	4	2	MAPLE	866	n/a	n/a	0	0	0
600888	WORD	wordpools/wasnorm_wordpool_576.txt	LTP315	ltpFR2	4	3	ROBIN	1199	n/a	n/a	0	0	0
603558	WORD	wordpools/wasnorm_wordpool_576.txt	LTP315	ltpFR2	4	3	WORKER	1621	n/a	n/a	0	0	0
606259	WORD	wordpools/wasnorm_wordpool_576.txt	LTP315	ltpFR2	4	3	HEADBAND	696	n/a	n/a	0	0	0
608962	WORD	wordpools/wasnorm_wordpool_576.txt	LTP315	ltpFR2	4	3	SHOULDER	1294	n/a	n/a	0	0	0
611531	WORD	wordpools/wasnorm_wordpool_576.txt	LTP315	ltpFR2	4	3	CRUTCH	417	n/a	n/a	0	0	0
614115	WORD	wordpools/wasnorm_wordpool_576.txt	LTP315	ltpFR2	4	3	WORLD	1622	n/a	n/a	0	0	0
616602	WORD	wordpools/wasnorm_wordpool_576.txt	LTP315	ltpFR2	4	3	SANDWICH	1232	n/a	n/a	0	0	0
619236	WORD	wordpools/wasnorm_wordpool_576.txt	LTP315	ltpFR2	4	3	TURKEY	1520	n/a	n/a	0	0	0
621739	WORD	wordpools/wasnorm_wordpool_576.txt	LTP315	ltpFR2	4	3	SHOVEL	1295	n/a	n/a	0	0	0
624474	WORD	wordpools/wasnorm_wordpool_576.txt	LTP315	ltpFR2	4	3	ROCKET	1202	n/a	n/a	0	0	0
627209	WORD	wordpools/wasnorm_wordpool_576.txt	LTP315	ltpFR2	4	3	FLIPPER	580	n/a	n/a	0	0	0
629665	WORD	wordpools/wasnorm_wordpool_576.txt	LTP315	ltpFR2	4	3	VIKING	1565	n/a	n/a	0	0	0
632380	WORD	wordpools/wasnorm_wordpool_576.txt	LTP315	ltpFR2	4	3	COLLEGE	346	n/a	n/a	0	0	0
635050	WORD	wordpools/wasnorm_wordpool_576.txt	LTP315	ltpFR2	4	3	SWITCH	1422	n/a	n/a	0	0	0
637818	WORD	wordpools/wasnorm_wordpool_576.txt	LTP315	ltpFR2	4	3	SUSPECT	1415	n/a	n/a	0	0	0
640420	WORD	wordpools/wasnorm_wordpool_576.txt	LTP315	ltpFR2	4	3	ATLAS	53	n/a	n/a	0	0	0
642956	WORD	wordpools/wasnorm_wordpool_576.txt	LTP315	ltpFR2	4	3	SERVANT	1271	n/a	n/a	0	0	0
645457	WORD	wordpools/wasnorm_wordpool_576.txt	LTP315	ltpFR2	4	3	RIVER	1194	n/a	n/a	0	0	0
648096	WORD	wordpools/wasnorm_wordpool_576.txt	LTP315	ltpFR2	4	3	FIREMAN	569	n/a	n/a	0	0	0
650579	WORD	wordpools/wasnorm_wordpool_576.txt	LTP315	ltpFR2	4	3	COURSE	390	n/a	n/a	0	0	0
653297	WORD	wordpools/wasnorm_wordpool_576.txt	LTP315	ltpFR2	4	3	FRECKLE	602	n/a	n/a	0	0	0
656021	WORD	wordpools/wasnorm_wordpool_576.txt	LTP315	ltpFR2	4	3	FOREHEAD	592	n/a	n/a	0	0	0
658451	WORD	wordpools/wasnorm_wordpool_576.txt	LTP315	ltpFR2	4	3	CASHEW	253	n/a	n/a	0	0	0
661086	WORD	wordpools/wasnorm_wordpool_576.txt	LTP315	ltpFR2	4	3	NOMAD	955	n/a	n/a	0	0	0
662693	START	n/a	LTP315	ltpFR2	4	n/a	n/a	n/a	4	n/a	n/a	n/a	n/a
663753	DISTRACTOR	n/a	LTP315	ltpFR2	4	3	n/a	n/a	n/a	n/a	0	0	0
663761	PROB	n/a	LTP315	ltpFR2	4	n/a	n/a	n/a	4	9	1	3	5
665524	PROB	n/a	LTP315	ltpFR2	4	n/a	n/a	n/a	4	12	8	2	2
667140	PROB	n/a	LTP315	ltpFR2	4	n/a	n/a	n/a	4	1	8	2	5
668675	PROB	n/a	LTP315	ltpFR2	4	n/a	n/a	n/a	4	22	7	9	6
671577	PROB	n/a	LTP315	ltpFR2	4	n/a	n/a	n/a	4	14	3	6	5
673428	PROB	n/a	LTP315	ltpFR2	4	n/a	n/a	n/a	4	14	7	2	5
674980	PROB	n/a	LTP315	ltpFR2	4	n/a	n/a	n/a	4	11	3	1	7
676398	PROB	n/a	LTP315	ltpFR2	4	n/a	n/a	n/a	4	8	2	1	5
677699	PROB	n/a	LTP315	ltpFR2	4	n/a	n/a	n/a	4	18	5	8	5
679535	PROB	n/a	LTP315	ltpFR2	4	n/a	n/a	n/a	4	17	9	6	2
681485	PROB	n/a	LTP315	ltpFR2	4	n/a	n/a	n/a	4	9	5	2	2
682686	PROB	n/a	LTP315	ltpFR2	4	n/a	n/a	n/a	4	17	8	4	5
684904	PROB	n/a	LTP315	ltpFR2	4	n/a	n/a	n/a	4	19	6	5	8
686436	STOP	n/a	LTP315	ltpFR2	4	n/a	n/a	n/a	4	n/a	n/a	n/a	n/a
688626	REC_START	n/a	LTP315	ltpFR2	4	3	n/a	n/a	n/a	n/a	0	0	0
690501	REC_WORD	wordpools/wasnorm_wordpool_576.txt	LTP315	ltpFR2	4	3	CASHEW	253	n/a	n/a	0	0	0
691798	REC_WORD	wordpools/wasnorm_wordpool_576.txt	LTP315	ltpFR2	4	3	SERVANT	1271	n/a	n/a	0	0	0
693142	REC_WORD	wordpools/wasnorm_wordpool_576.txt	LTP315	ltpFR2	4	3	FIREMAN	569	n/a	n/a	0	0	0
694696	REC_WORD	wordpools/wasnorm_wordpool_576.txt	LTP315	ltpFR2	4	3	RIVER	1194	n/a	n/a	0	0	0
700405	REC_WORD	wordpools/wasnorm_wordpool_576.txt	LTP315	ltpFR2	4	3	ATLAS	53	n/a	n/a	0	0	0
701783	REC_WORD	wordpools/wasnorm_wordpool_576.txt	LTP315	ltpFR2	4	3	WORLD	1622	n/a	n/a	0	0	0
724582	REC_WORD	wordpools/wasnorm_wordpool_576.txt	LTP315	ltpFR2	4	3	CANVAS	234	n/a	n/a	0	0	0
779045	DISTRACTOR	n/a	LTP315	ltpFR2	4	4	n/a	n/a	n/a	n/a	0	0	0
779045	START	n/a	LTP315	ltpFR2	4	n/a	n/a	n/a	5	n/a	n/a	n/a	n/a
779059	PROB	n/a	LTP315	ltpFR2	4	n/a	n/a	n/a	5	12	8	2	2
780248	PROB	n/a	LTP315	ltpFR2	4	n/a	n/a	n/a	5	18	9	4	5
781995	PROB	n/a	LTP315	ltpFR2	4	n/a	n/a	n/a	5	19	6	7	6
784469	PROB	n/a	LTP315	ltpFR2	4	n/a	n/a	n/a	5	19	9	8	2
786185	PROB	n/a	LTP315	ltpFR2	4	n/a	n/a	n/a	5	20	6	5	9
788155	PROB	n/a	LTP315	ltpFR2	4	n/a	n/a	n/a	5	19	5	5	9
789522	PROB	n/a	LTP315	ltpFR2	4	n/a	n/a	n/a	5	6	2	2	2
790653	PROB	n/a	LTP315	ltpFR2	4	n/a	n/a	n/a	5	17	3	7	7
792320	PROB	n/a	LTP315	ltpFR2	4	n/a	n/a	n/a	5	7	3	3	1
793539	PROB	n/a	LTP315	ltpFR2	4	n/a	n/a	n/a	5	17	2	9	6
795810	PROB	n/a	LTP315	ltpFR2	4	n/a	n/a	n/a	5	14	4	6	4
798794	PROB	n/a	LTP315	ltpFR2	4	n/a	n/a	n/a	5	13	7	2	4
801674	STOP	n/a	LTP315	ltpFR2	4	n/a	n/a	n/a	5	n/a	n/a	n/a	n/a
804016	WORD	wordpools/wasnorm_wordpool_576.txt	LTP315	ltpFR2	4	4	PAPER	1011	n/a	n/a	0	0	0
806501	WORD	wordpools/wasnorm_wordpool_576.txt	LTP315	ltpFR2	4	4	LADY	794	n/a	n/a	0	0	0
808987	WORD	wordpools/wasnorm_wordpool_576.txt	LTP315	ltpFR2	4	4	WOMAN	1620	n/a	n/a	0	0	0
811656	WORD	wordpools/wasnorm_wordpool_576.txt	LTP315	ltpFR2	4	4	FOREST	593	n/a	n/a	0	0	0
814257	WORD	wordpools/wasnorm_wordpool_576.txt	LTP315	ltpFR2	4	4	HATCHET	691	n/a	n/a	0	0	0
816727	WORD	wordpools/wasnorm_wordpool_576.txt	LTP315	ltpFR2	4	4	STALLION	1369	n/a	n/a	0	0	0
819212	WORD	wordpools/wasnorm_wordpool_576.txt	LTP315	ltpFR2	4	4	RUST	1219	n/a	n/a	0	0	0
821898	WORD	wordpools/wasnorm_wordpool_576.txt	LTP315	ltpFR2	4	4	LAPEL	800	n/a	n/a	0	0	0
824349	WORD	wordpools/wasnorm_wordpool_576.txt	LTP315	ltpFR2	4	4	VICTIM	1562	n/a	n/a	0	0	0
826885	WORD	wordpools/wasnorm_wordpool_576.txt	LTP315	ltpFR2	4	4	MARKET	871	n/a	n/a	0	0	0
829605	WORD	wordpools/wasnorm_wordpool_576.txt	LTP315	ltpFR2	4	4	WITNESS	1618	n/a	n/a	0	0	0
832140	WORD	wordpools/wasnorm_wordpool_576.txt	LTP315	ltpFR2	4	4	BLENDER	136	n/a	n/a	0	0	0
834977	WORD	wordpools/wasnorm_wordpool_576.txt	LTP315	ltpFR2	4	4	PASTRY	1022	n/a	n/a	0	0	0
837512	WORD	wordpools/wasnorm_wordpool_576.txt	LTP315	ltpFR2	4	4	LIGHTNING	820	n/a	n/a	0	0	0
840313	WORD	wordpools/wasnorm_wordpool_576.txt	LTP315	ltpFR2	4	4	POISON	1096	n/a	n/a	0	0	0
842883	WORD	wordpools/wasnorm_wordpool_576.txt	LTP315	ltpFR2	4	4	SCOTCH	1251	n/a	n/a	0	0	0
845400	WORD	wordpools/wasnorm_wordpool_576.txt	LTP315	ltpFR2	4	4	HAND	683	n/a	n/a	0	0	0
848203	WORD	wordpools/wasnorm_wordpool_576.txt	LTP315	ltpFR2	4	4	JUDGE	761	n/a	n/a	0	0	0
850923	WORD	wordpools/wasnorm_wordpool_576.txt	LTP315	ltpFR2	4	4	MONSTER	912	n/a	n/a	0	0	0
853391	WORD	wordpools/wasnorm_wordpool_576.txt	LTP315	ltpFR2	4	4	GOBLIN	645	n/a	n/a	0	0	0
856076	WORD	wordpools/wasnorm_wordpool_576.txt	LTP315	ltpFR2	4	4	WRIST	1626	n/a	n/a	0	0	0
858747	WORD	wordpools/wasnorm_wordpool_576.txt	LTP315	ltpFR2	4	4	COMPASS	358	n/a	n/a	0	0	0
861464	WORD	wordpools/wasnorm_wordpool_576.txt	LTP315	ltpFR2	4	4	IDOL	733	n/a	n/a	0	0	0
864249	WORD	wordpools/wasnorm_wordpool_576.txt	LTP315	ltpFR2	4	4	MUFFIN	929	n/a	n/a	0	0	0
865855	START	n/a	LTP315	ltpFR2	4	n/a	n/a	n/a	6	n/a	n/a	n/a	n/a
867004	DISTRACTOR	n/a	LTP315	ltpFR2	4	4	n/a	n/a	n/a	n/a	0	0	0
867019	PROB	n/a	LTP315	ltpFR2	4	n/a	n/a	n/a	6	15	8	3	4
868485	PROB	n/a	LTP315	ltpFR2	4	n/a	n/a	n/a	6	9	1	5	3
869954	PROB	n/a	LTP315	ltpFR2	4	n/a	n/a	n/a	6	18	6	4	8
871137	PROB	n/a	LTP315	ltpFR2	4	n/a	n/a	n/a	6	11	4	6	1
872288	PROB	n/a	LTP315	ltpFR2	4	n/a	n/a	n/a	6	12	3	5	4
873823	PROB	n/a	LTP315	ltpFR2	4	n/a	n/a	n/a	6	14	7	2	5
875207	PROB	n/a	LTP315	ltpFR2	4	n/a	n/a	n/a	6	13	2	2	9
878192	PROB	n/a	LTP315	ltpFR2	4	n/a	n/a	n/a	6	14	2	6	6
880161	PROB	n/a	LTP315	ltpFR2	4	n/a	n/a	n/a	6	22	9	9	4
883014	PROB	n/a	LTP315	ltpFR2	4	n/a	n/a	n/a	6	23	9	9	5
884865	PROB	n/a	LTP315	ltpFR2	4	n/a	n/a	n/a	6	11	9	1	1
886116	PROB	n/a	LTP315	ltpFR2	4	n/a	n/a	n/a	6	13	5	7	1
887485	PROB	n/a	LTP315	ltpFR2	4	n/a	n/a	n/a	6	16	3	7	3
888861	STOP	n/a	LTP315	ltpFR2	4	n/a	n/a	n/a	6	n/a	n/a	n/a	n/a
891721	REC_START	n/a	LTP315	ltpFR2	4	4	n/a	n/a	n/a	n/a	0	0	0
893458	REC_WORD	wordpools/wasnorm_wordpool_576.txt	LTP315	ltpFR2	4	4	JUDGE	761	n/a	n/a	0	0	0
894215	REC_WORD	wordpools/wasnorm_wordpool_576.txt	LTP315	ltpFR2	4	4	HAND	683	n/a	n/a	0	0	0
895565	REC_WORD	wordpools/wasnorm_wordpool_576.txt	LTP315	ltpFR2	4	4	IDOL	733	n/a	n/a	0	0	0
896633	REC_WORD	wordpools/wasnorm_wordpool_576.txt	LTP315	ltpFR2	4	4	MUFFIN	929	n/a	n/a	0	0	0
897777	REC_WORD	wordpools/wasnorm_wordpool_576.txt	LTP315	ltpFR2	4	4	COMPASS	358	n/a	n/a	0	0	0
1076987	WORD	wordpools/wasnorm_wordpool_576.txt	LTP315	ltpFR2	4	5	TART	1436	n/a	n/a	0	0	0
1079623	WORD	wordpools/wasnorm_wordpool_576.txt	LTP315	ltpFR2	4	5	SLIDE	1326	n/a	n/a	0	0	0
1082125	WORD	wordpools/wasnorm_wordpool_576.txt	LTP315	ltpFR2	4	5	CONTRACT	368	n/a	n/a	0	0	0
1084577	WORD	wordpools/wasnorm_wordpool_576.txt	LTP315	ltpFR2	4	5	TROMBONE	1508	n/a	n/a	0	0	0
1087278	WORD	wordpools/wasnorm_wordpool_576.txt	LTP315	ltpFR2	4	5	RADISH	1158	n/a	n/a	0	0	0
1089848	WORD	wordpools/wasnorm_wordpool_576.txt	LTP315	ltpFR2	4	5	BANKER	84	n/a	n/a	0	0	0
1092517	WORD	wordpools/wasnorm_wordpool_576.txt	LTP315	ltpFR2	4	5	COD	340	n/a	n/a	0	0	0
1095284	WORD	wordpools/wasnorm_wordpool_576.txt	LTP315	ltpFR2	4	5	SCALLOP	1242	n/a	n/a	0	0	0
1097806	WORD	wordpools/wasnorm_wordpool_576.txt	LTP315	ltpFR2	4	5	CHEST	295	n/a	n/a	0	0	0
1100539	WORD	wordpools/wasnorm_wordpool_576.txt	LTP315	ltpFR2	4	5	HAMPER	682	n/a	n/a	0	0	0
1102992	WORD	wordpools/wasnorm_wordpool_576.txt	LTP315	ltpFR2	4	5	MONEY	908	n/a	n/a	0	0	0
1105443	WORD	wordpools/wasnorm_wordpool_576.txt	LTP315	ltpFR2	4	5	CONCERT	360	n/a	n/a	0	0	0
1108112	WORD	wordpools/wasnorm_wordpool_576.txt	LTP315	ltpFR2	4	5	PLAYGROUND	1087	n/a	n/a	0	0	0
1110581	WORD	wordpools/wasnorm_wordpool_576.txt	LTP315	ltpFR2	4	5	PRIMATE	1123	n/a	n/a	0	0	0
1113382	WORD	wordpools/wasnorm_wordpool_576.txt	LTP315	ltpFR2	4	5	BUTCHER	203	n/a	n/a	0	0	0
1115989	WORD	wordpools/wasnorm_wordpool_576.txt	LTP315	ltpFR2	4	5	RECORD	1176	n/a	n/a	0	0	0
1118687	WORD	wordpools/wasnorm_wordpool_576.txt	LTP315	ltpFR2	4	5	GRIZZLY	662	n/a	n/a	0	0	0
1121205	WORD	wordpools/wasnorm_wordpool_576.txt	LTP315	ltpFR2	4	5	TAXI	1438	n/a	n/a	0	0	0
1123758	WORD	wordpools/wasnorm_wordpool_576.txt	LTP315	ltpFR2	4	5	BREAST	171	n/a	n/a	0	0	0
1126225	WORD	wordpools/wasnorm_wordpool_576.txt	LTP315	ltpFR2	4	5	PORTRAIT	1111	n/a	n/a	0	0	0
1128783	WORD	wordpools/wasnorm_wordpool_576.txt	LTP315	ltpFR2	4	5	SHORTCAKE	1292	n/a	n/a	0	0	0
1131447	WORD	wordpools/wasnorm_wordpool_576.txt	LTP315	ltpFR2	4	5	OX	994	n/a	n/a	0	0	0
1134216	WORD	wordpools/wasnorm_wordpool_576.txt	LTP315	ltpFR2	4	5	CATTLE	261	n/a	n/a	0	0	0
1136685	WORD	wordpools/wasnorm_wordpool_576.txt	LTP315	ltpFR2	4	5	JUNGLE	764	n/a	n/a	0	0	0
1138290	START	n/a	LTP315	ltpFR2	4	n/a	n/a	n/a	7	n/a	n/a	n/a	n/a
1139431	DISTRACTOR	n/a	LTP315	ltpFR2	4	5	n/a	n/a	n/a	n/a	0	0	0
1139437	PROB	n/a	LTP315	ltpFR2	4	n/a	n/a	n/a	7	19	7	4	8
1141222	PROB	n/a	LTP315	ltpFR2	4	n/a	n/a	n/a	7	17	6	4	7
1142421	PROB	n/a	LTP315	ltpFR2	4	n/a	n/a	n/a	7	14	8	5	1
1144173	PROB	n/a	LTP315	ltpFR2	4	n/a	n/a	n/a	7	19	8	9	2
1146226	PROB	n/a	LTP315	ltpFR2	4	n/a	n/a	n/a	7	19	8	4	7
1149511	PROB	n/a	LTP315	ltpFR2	4	n/a	n/a	n/a	7	10	2	4	4
1151161	PROB	n/a	LTP315	ltpFR2	4	n/a	n/a	n/a	7	20	9	9	2
1152663	PROB	n/a	LTP315	ltpFR2	4	n/a	n/a	n/a	7	18	9	3	6
1154681	PROB	n/a	LTP315	ltpFR2	4	n/a	n/a	n/a	7	10	1	6	3
1156283	PROB	n/a	LTP315	ltpFR2	4	n/a	n/a	n/a	7	10	1	1	8
1157551	PROB	n/a	LTP315	ltpFR2	4	n/a	n/a	n/a	7	16	9	6	1
1158820	PROB	n/a	LTP315	ltpFR2	4	n/a	n/a	n/a	7	12	6	3	3
1162290	STOP	n/a	LTP315	ltpFR2	4	n/a	n/a	n/a	7	n/a	n/a	n/a	n/a
1164157	REC_START	n/a	LTP315	ltpFR2	4	5	n/a	n/a	n/a	n/a	0	0	0
1165772	REC_WORD	wordpools/wasnorm_wordpool_576.txt	LTP315	ltpFR2	4	5	OX	994	n/a	n/a	0	0	0
1167100	REC_WORD	wordpools/wasnorm_wordpool_576.txt	LTP315	ltpFR2	4	5	CATTLE	261	n/a	n/a	0	0	0
1168715	REC_WORD	wordpools/wasnorm_wordpool_576.txt	LTP315	ltpFR2	4	5	BUTCHER	203	n/a	n/a	0	0	0
1172162	REC_WORD	wordpools/wasnorm_wordpool_576.txt	LTP315	ltpFR2	4	5	TAXI	1438	n/a	n/a	0	0	0
1173453	REC_WORD	wordpools/wasnorm_wordpool_576.txt	LTP315	ltpFR2	4	5	PLAYGROUND	1087	n/a	n/a	0	0	0
1177149	REC_WORD	wordpools/wasnorm_wordpool_576.txt	LTP315	ltpFR2	4	5	GRIZZLY	662	n/a	n/a	0	0	0
1180331	REC_WORD	wordpools/wasnorm_wordpool_576.txt	LTP315	ltpFR2	4	5	MONEY	908	n/a	n/a	0	0	0
1181393	REC_WORD	wordpools/wasnorm_wordpool_576.txt	LTP315	ltpFR2	4	5	CONCERT	360	n/a	n/a	0	0	0
1184692	REC_WORD	wordpools/wasnorm_wordpool_576.txt	LTP315	ltpFR2	4	5	BREAST	171	n/a	n/a	0	0	0
1325869	WORD	wordpools/wasnorm_wordpool_576.txt	LTP315	ltpFR2	4	6	SUMMIT	1405	n/a	n/a	0	0	0
1328438	WORD	wordpools/wasnorm_wordpool_576.txt	LTP315	ltpFR2	4	6	CRATER	400	n/a	n/a	0	0	0
1331207	WORD	wordpools/wasnorm_wordpool_576.txt	LTP315	ltpFR2	4	6	BUGGY	188	n/a	n/a	0	0	0
1334011	WORD	wordpools/wasnorm_wordpool_576.txt	LTP315	ltpFR2	4	6	BARLEY	88	n/a	n/a	0	0	0
1336512	WORD	wordpools/wasnorm_wordpool_576.txt	LTP315	ltpFR2	4	6	LIVER	833	n/a	n/a	0	0	0
1339314	WORD	wordpools/wasnorm_wordpool_576.txt	LTP315	ltpFR2	4	6	GALLON	618	n/a	n/a	0	0	0
1342149	WORD	wordpools/wasnorm_wordpool_576.txt	LTP315	ltpFR2	4	6	MOTOR	922	n/a	n/a	0	0	0
1344952	WORD	wordpools/wasnorm_wordpool_576.txt	LTP315	ltpFR2	4	6	DORM	488	n/a	n/a	0	0	0
1347504	WORD	wordpools/wasnorm_wordpool_576.txt	LTP315	ltpFR2	4	6	MACHINE	852	n/a	n/a	0	0	0
1349973	WORD	wordpools/wasnorm_wordpool_576.txt	LTP315	ltpFR2	4	6	CIGAR	308	n/a	n/a	0	0	0
1352576	WORD	wordpools/wasnorm_wordpool_576.txt	LTP315	ltpFR2	4	6	CLIMBER	323	n/a	n/a	0	0	0
1355260	WORD	wordpools/wasnorm_wordpool_576.txt	LTP315	ltpFR2	4	6	BOX	159	n/a	n/a	0	0	0
1357880	WORD	wordpools/wasnorm_wordpool_576.txt	LTP315	ltpFR2	4	6	LUMBER	848	n/a	n/a	0	0	0
1360565	WORD	wordpools/wasnorm_wordpool_576.txt	LTP315	ltpFR2	4	6	CRICKET	408	n/a	n/a	0	0	0
1363034	WORD	wordpools/wasnorm_wordpool_576.txt	LTP315	ltpFR2	4	6	ROBOT	1200	n/a	n/a	0	0	0
1365653	WORD	wordpools/wasnorm_wordpool_576.txt	LTP315	ltpFR2	4	6	SUBWAY	1400	n/a	n/a	0	0	0
1368253	WORD	wordpools/wasnorm_wordpool_576.txt	LTP315	ltpFR2	4	6	WAGON	1578	n/a	n/a	0	0	0
1370907	WORD	wordpools/wasnorm_wordpool_576.txt	LTP315	ltpFR2	4	6	KNAPSACK	783	n/a	n/a	0	0	0
1373378	WORD	wordpools/wasnorm_wordpool_576.txt	LTP315	ltpFR2	4	6	CLOTHES	327	n/a	n/a	0	0	0
1375915	WORD	wordpools/wasnorm_wordpool_576.txt	LTP315	ltpFR2	4	6	MEAT	883	n/a	n/a	0	0	0
1378617	WORD	wordpools/wasnorm_wordpool_576.txt	LTP315	ltpFR2	4	6	LILY	821	n/a	n/a	0	0	0
1381281	WORD	wordpools/wasnorm_wordpool_576.txt	LTP315	ltpFR2	4	6	BANQUET	86	n/a	n/a	0	0	0
1383901	WORD	wordpools/wasnorm_wordpool_576.txt	LTP315	ltpFR2	4	6	DINER	467	n/a	n/a	0	0	0
1386423	WORD	wordpools/wasnorm_wordpool_576.txt	LTP315	ltpFR2	4	6	SMOG	1330	n/a	n/a	0	0	0
1388038	START	n/a	LTP315	ltpFR2	4	n/a	n/a	n/a	8	n/a	n/a	n/a	n/a
1388885	DISTRACTOR	n/a	LTP315	ltpFR2	4	6	n/a	n/a	n/a	n/a	0	0	0
1388892	PROB	n/a	LTP315	ltpFR2	4	n/a	n/a	n/a	8	18	7	9	2
1391756	PROB	n/a	LTP315	ltpFR2	4	n/a	n/a	n/a	8	22	7	8	7
1393758	PROB	n/a	LTP315	ltpFR2	4	n/a	n/a	n/a	8	21	6	9	6
1396158	PROB	n/a	LTP315	ltpFR2	4	n/a	n/a	n/a	8	18	4	6	8
1397475	PROB	n/a	LTP315	ltpFR2	4	n/a	n/a	n/a	8	9	1	4	4
1399294	PROB	n/a	LTP315	ltpFR2	4	n/a	n/a	n/a	8	15	1	6	8
1400846	PROB	n/a	LTP315	ltpFR2	4	n/a	n/a	n/a	8	14	3	3	8
1402615	PROB	n/a	LTP315	ltpFR2	4	n/a	n/a	n/a	8	23	9	7	7
1405216	PROB	n/a	LTP315	ltpFR2	4	n/a	n/a	n/a	8	15	5	5	5
1406249	PROB	n/a	LTP315	ltpFR2	4	n/a	n/a	n/a	8	4	1	1	2
1407768	PROB	n/a	LTP315	ltpFR2	4	n/a	n/a	n/a	8	4	2	1	1
1408870	PROB	n/a	LTP315	ltpFR2	4	n/a	n/a	n/a	8	20	7	5	8
1411121	STOP	n/a	LTP315	ltpFR2	4	n/a	n/a	n/a	8	n/a	n/a	n/a	n/a
1413807	REC_START	n/a	LTP315	ltpFR2	4	6	n/a	n/a	n/a	n/a	0	0	0
1415995	REC_WORD	wordpools/wasnorm_wordpool_576.txt	LTP315	ltpFR2	4	6	BARLEY	88	n/a	n/a	0	0	0
1417120	REC_WORD	wordpools/wasnorm_wordpool_576.txt	LTP315	ltpFR2	4	6	MEAT	883	n/a	n/a	0	0	0
1429167	REC_WORD	wordpools/wasnorm_wordpool_576.txt	LTP315	ltpFR2	4	6	CIGAR	308	n/a	n/a	0	0	0
1432173	REC_WORD	wordpools/wasnorm_wordpool_576.txt	LTP315	ltpFR2	4	6	DINER	467	n/a	n/a	0	0	0
1432952	REC_WORD	wordpools/wasnorm_wordpool_576.txt	LTP315	ltpFR2	4	6	BANQUET	86	n/a	n/a	0	0	0
1436565	REC_WORD	wordpools/wasnorm_wordpool_576.txt	LTP315	ltpFR2	4	6	SUMMIT	1405	n/a	n/a	0	0	0
1437372	REC_WORD	wordpools/wasnorm_wordpool_576.txt	LTP315	ltpFR2	4	6	CRATER	400	n/a	n/a	0	0	0
1444650	REC_WORD	wordpools/wasnorm_wordpool_576.txt	LTP315	ltpFR2	4	6	MACHINE	852	n/a	n/a	0	0	0
1445828	REC_WORD	wordpools/wasnorm_wordpool_576.txt	LTP315	ltpFR2	4	6	ROBOT	1200	n/a	n/a	0	0	0
1447291	REC_WORD	wordpools/wasnorm_wordpool_576.txt	LTP315	ltpFR2	4	6	MOTOR	922	n/a	n/a	0	0	0
1468531	REC_WORD	wordpools/wasnorm_wordpool_576.txt	LTP315	ltpFR2	4	6	CLIMBER	323	n/a	n/a	0	0	0
1603409	WORD	wordpools/wasnorm_wordpool_576.txt	LTP315	ltpFR2	4	7	MILDEW	893	n/a	n/a	0	0	0
1605946	WORD	wordpools/wasnorm_wordpool_576.txt	LTP315	ltpFR2	4	7	FOOTBALL	591	n/a	n/a	0	0	0
1608615	WORD	wordpools/wasnorm_wordpool_576.txt	LTP315	ltpFR2	4	7	ZEBRA	1635	n/a	n/a	0	0	0
1611252	WORD	wordpools/wasnorm_wordpool_576.txt	LTP315	ltpFR2	4	7	FUNGUS	614	n/a	n/a	0	0	0
1614035	WORD	wordpools/wasnorm_wordpool_576.txt	LTP315	ltpFR2	4	7	SERVER	1272	n/a	n/a	0	0	0
1616804	WORD	wordpools/wasnorm_wordpool_576.txt	LTP315	ltpFR2	4	7	WAITRESS	1581	n/a	n/a	0	0	0
1619405	WORD	wordpools/wasnorm_wordpool_576.txt	LTP315	ltpFR2	4	7	CHILD	299	n/a	n/a	0	0	0
1622141	WORD	wordpools/wasnorm_wordpool_576.txt	LTP315	ltpFR2	4	7	POWDER	1117	n/a	n/a	0	0	0
1624844	WORD	wordpools/wasnorm_wordpool_576.txt	LTP315	ltpFR2	4	7	PERCH	1048	n/a	n/a	0	0	0
1627567	WORD	wordpools/wasnorm_wordpool_576.txt	LTP315	ltpFR2	4	7	DENIM	446	n/a	n/a	0	0	0
1630032	WORD	wordpools/wasnorm_wordpool_576.txt	LTP315	ltpFR2	4	7	MUMMY	932	n/a	n/a	0	0	0
1632800	WORD	wordpools/wasnorm_wordpool_576.txt	LTP315	ltpFR2	4	7	PLIERS	1089	n/a	n/a	0	0	0
1635240	WORD	wordpools/wasnorm_wordpool_576.txt	LTP315	ltpFR2	4	7	BADGE	68	n/a	n/a	0	0	0
1638021	WORD	wordpools/wasnorm_wordpool_576.txt	LTP315	ltpFR2	4	7	ULCER	1533	n/a	n/a	0	0	0
1640645	WORD	wordpools/wasnorm_wordpool_576.txt	LTP315	ltpFR2	4	7	SKETCH	1315	n/a	n/a	0	0	0
1643380	WORD	wordpools/wasnorm_wordpool_576.txt	LTP315	ltpFR2	4	7	TWIG	1527	n/a	n/a	0	0	0
1646028	WORD	wordpools/wasnorm_wordpool_576.txt	LTP315	ltpFR2	4	7	HEDGE	699	n/a	n/a	0	0	0
1648478	WORD	wordpools/wasnorm_wordpool_576.txt	LTP315	ltpFR2	4	7	SADDLE	1221	n/a	n/a	0	0	0
1651104	WORD	wordpools/wasnorm_wordpool_576.txt	LTP315	ltpFR2	4	7	CORAL	378	n/a	n/a	0	0	0
1653634	WORD	wordpools/wasnorm_wordpool_576.txt	LTP315	ltpFR2	4	7	RECEIPT	1173	n/a	n/a	0	0	0
1656335	WORD	wordpools/wasnorm_wordpool_576.txt	LTP315	ltpFR2	4	7	WAITER	1580	n/a	n/a	0	0	0
1659137	WORD	wordpools/wasnorm_wordpool_576.txt	LTP315	ltpFR2	4	7	SCRIBBLE	1256	n/a	n/a	0	0	0
1661773	WORD	wordpools/wasnorm_wordpool_576.txt	LTP315	ltpFR2	4	7	STOVE	1388	n/a	n/a	0	0	0
1664282	WORD	wordpools/wasnorm_wordpool_576.txt	LTP315	ltpFR2	4	7	LOFT	840	n/a	n/a	0	0	0
1665894	START	n/a	LTP315	ltpFR2	4	n/a	n/a	n/a	9	n/a	n/a	n/a	n/a
1666808	DISTRACTOR	n/a	LTP315	ltpFR2	4	7	n/a	n/a	n/a	n/a	0	0	0
1666818	PROB	n/a	LTP315	ltpFR2	4	n/a	n/a	n/a	9	12	5	3	4
1668978	PROB	n/a	LTP315	ltpFR2	4	n/a	n/a	n/a	9	12	2	7	3
1670846	PROB	n/a	LTP315	ltpFR2	4	n/a	n/a	n/a	9	19	6	6	7
1672231	PROB	n/a	LTP315	ltpFR2	4	n/a	n/a	n/a	9	24	9	9	6
1673932	PROB	n/a	LTP315	ltpFR2	4	n/a	n/a	n/a	9	16	7	2	7
1675517	PROB	n/a	LTP315	ltpFR2	4	n/a	n/a	n/a	9	13	7	1	5
1676986	PROB	n/a	LTP315	ltpFR2	4	n/a	n/a	n/a	9	14	8	2	4
1678353	PROB	n/a	LTP315	ltpFR2	4	n/a	n/a	n/a	9	15	2	7	6
1679536	PROB	n/a	LTP315	ltpFR2	4	n/a	n/a	n/a	9	18	4	5	9
1680954	PROB	n/a	LTP315	ltpFR2	4	n/a	n/a	n/a	9	4	1	2	1
1682022	PROB	n/a	LTP315	ltpFR2	4	n/a	n/a	n/a	9	10	3	4	3
1683790	PROB	n/a	LTP315	ltpFR2	4	n/a	n/a	n/a	9	14	7	5	2
1685490	PROB	n/a	LTP315	ltpFR2	4	n/a	n/a	n/a	9	12	6	4	2
1686642	PROB	n/a	LTP315	ltpFR2	4	n/a	n/a	n/a	9	21	4	8	9
1688573	STOP	n/a	LTP315	ltpFR2	4	n/a	n/a	n/a	9	n/a	n/a	n/a	n/a
1691798	REC_START	n/a	LTP315	ltpFR2	4	7	n/a	n/a	n/a	n/a	0	0	0
1693256	REC_WORD	wordpools/wasnorm_wordpool_576.txt	LTP315	ltpFR2	4	7	WAITER	1580	n/a	n/a	0	0	0
1694611	REC_WORD	wordpools/wasnorm_wordpool_576.txt	LTP315	ltpFR2	4	7	WAITRESS	1581	n/a	n/a	0	0	0
1695687	REC_WORD	wordpools/wasnorm_wordpool_576.txt	LTP315	ltpFR2	4	7	CHILD	299	n/a	n/a	0	0	0
1696861	REC_WORD	wordpools/wasnorm_wordpool_576.txt	LTP315	ltpFR2	4	7	PLIERS	1089	n/a	n/a	0	0	0
1701831	REC_WORD	wordpools/wasnorm_wordpool_576.txt	LTP315	ltpFR2	4	7	SCRIBBLE	1256	n/a	n/a	0	0	0
1722374	REC_WORD	wordpools/wasnorm_wordpool_576.txt	LTP315	ltpFR2	4	7	MILDEW	893	n/a	n/a	0	0	0
1723267	REC_WORD	wordpools/wasnorm_wordpool_576.txt	LTP315	ltpFR2	4	7	FUNGUS	614	n/a	n/a	0	0	0
1782251	DISTRACTOR	n/a	LTP315	ltpFR2	4	8	n/a	n/a	n/a	n/a	0	0	0
1782252	START	n/a	LTP315	ltpFR2	4	n/a	n/a	n/a	10	n/a	n/a	n/a	n/a
1782269	PROB	n/a	LTP315	ltpFR2	4	n/a	n/a	n/a	10	12	1	4	7
1783787	PROB	n/a	LTP315	ltpFR2	4	n/a	n/a	n/a	10	10	3	1	6
1785453	PROB	n/a	LTP315	ltpFR2	4	n/a	n/a	n/a	10	11	3	2	6
1787040	PROB	n/a	LTP315	ltpFR2	4	n/a	n/a	n/a	10	16	4	8	4
1789456	PROB	n/a	LTP315	ltpFR2	4	n/a	n/a	n/a	10	6	3	2	1
1791026	PROB	n/a	LTP315	ltpFR2	4	n/a	n/a	n/a	10	21	5	9	7
1793161	PROB	n/a	LTP315	ltpFR2	4	n/a	n/a	n/a	10	19	9	3	7
1794831	PROB	n/a	LTP315	ltpFR2	4	n/a	n/a	n/a	10	14	4	5	5
1796429	PROB	n/a	LTP315	ltpFR2	4	n/a	n/a	n/a	10	18	4	7	7
1798264	PROB	n/a	LTP315	ltpFR2	4	n/a	n/a	n/a	10	14	3	8	3
1800018	PROB	n/a	LTP315	ltpFR2	4	n/a	n/a	n/a	10	13	3	4	6
1801984	PROB	n/a	LTP315	ltpFR2	4	n/a	n/a	n/a	10	10	2	1	7
1803185	PROB	n/a	LTP315	ltpFR2	4	n/a	n/a	n/a	10	7	1	2	4
1804369	PROB	n/a	LTP315	ltpFR2	4	n/a	n/a	n/a	10	11	1	9	1
1805682	STOP	n/a	LTP315	ltpFR2	4	n/a	n/a	n/a	10	n/a	n/a	n/a	n/a
1807356	WORD	wordpools/wasnorm_wordpool_576.txt	LTP315	ltpFR2	4	8	PISTOL	1075	n/a	n/a	0	0	0
1810092	WORD	wordpools/wasnorm_wordpool_576.txt	LTP315	ltpFR2	4	8	DRIVER	499	n/a	n/a	0	0	0
1812878	WORD	wordpools/wasnorm_wordpool_576.txt	LTP315	ltpFR2	4	8	DRAWING	494	n/a	n/a	0	0	0
1815680	WORD	wordpools/wasnorm_wordpool_576.txt	LTP315	ltpFR2	4	8	PLASTER	1085	n/a	n/a	0	0	0
1818298	WORD	wordpools/wasnorm_wordpool_576.txt	LTP315	ltpFR2	4	8	HUMAN	726	n/a	n/a	0	0	0
1821001	WORD	wordpools/wasnorm_wordpool_576.txt	LTP315	ltpFR2	4	8	PORK	1108	n/a	n/a	0	0	0
1823737	WORD	wordpools/wasnorm_wordpool_576.txt	LTP315	ltpFR2	4	8	BOYFRIEND	162	n/a	n/a	0	0	0
1826422	WORD	wordpools/wasnorm_wordpool_576.txt	LTP315	ltpFR2	4	8	TUBA	1515	n/a	n/a	0	0	0
1829140	WORD	wordpools/wasnorm_wordpool_576.txt	LTP315	ltpFR2	4	8	DAISY	435	n/a	n/a	0	0	0
1831726	WORD	wordpools/wasnorm_wordpool_576.txt	LTP315	ltpFR2	4	8	BUCKET	184	n/a	n/a	0	0	0
1834210	WORD	wordpools/wasnorm_wordpool_576.txt	LTP315	ltpFR2	4	8	COWBOY	395	n/a	n/a	0	0	0
1836781	WORD	wordpools/wasnorm_wordpool_576.txt	LTP315	ltpFR2	4	8	TRIBE	1505	n/a	n/a	0	0	0
1839331	WORD	wordpools/wasnorm_wordpool_576.txt	LTP315	ltpFR2	4	8	FRANCE	601	n/a	n/a	0	0	0
1842001	WORD	wordpools/wasnorm_wordpool_576.txt	LTP315	ltpFR2	4	8	CUSTARD	429	n/a	n/a	0	0	0
1844738	WORD	wordpools/wasnorm_wordpool_576.txt	LTP315	ltpFR2	4	8	PREACHER	1119	n/a	n/a	0	0	0
1847371	WORD	wordpools/wasnorm_wordpool_576.txt	LTP315	ltpFR2	4	8	WHISKERS	1605	n/a	n/a	0	0	0
1850090	WORD	wordpools/wasnorm_wordpool_576.txt	LTP315	ltpFR2	4	8	SAUSAGE	1238	n/a	n/a	0	0	0
1852859	WORD	wordpools/wasnorm_wordpool_576.txt	LTP315	ltpFR2	4	8	RIFLE	1192	n/a	n/a	0	0	0
1855311	WORD	wordpools/wasnorm_wordpool_576.txt	LTP315	ltpFR2	4	8	GHETTO	633	n/a	n/a	0	0	0
1857781	WORD	wordpools/wasnorm_wordpool_576.txt	LTP315	ltpFR2	4	8	BEAKER	104	n/a	n/a	0	0	0
1860331	WORD	wordpools/wasnorm_wordpool_576.txt	LTP315	ltpFR2	4	8	CHAPEL	280	n/a	n/a	0	0	0
1862822	WORD	wordpools/wasnorm_wordpool_576.txt	LTP315	ltpFR2	4	8	SIBLING	1301	n/a	n/a	0	0	0
1865291	WORD	wordpools/wasnorm_wordpool_576.txt	LTP315	ltpFR2	4	8	SISTER	1312	n/a	n/a	0	0	0
1867805	WORD	wordpools/wasnorm_wordpool_576.txt	LTP315	ltpFR2	4	8	TWEEZERS	1526	n/a	n/a	0	0	0
1869412	START	n/a	LTP315	ltpFR2	4	n/a	n/a	n/a	11	n/a	n/a	n/a	n/a
1870564	DISTRACTOR	n/a	LTP315	ltpFR2	4	8	n/a	n/a	n/a	n/a	0	0	0
1870574	PROB	n/a	LTP315	ltpFR2	4	n/a	n/a	n/a	11	14	5	5	4
1871909	PROB	n/a	LTP315	ltpFR2	4	n/a	n/a	n/a	11	8	1	2	5
1873041	PROB	n/a	LTP315	ltpFR2	4	n/a	n/a	n/a	11	196	6	8	5
1875392	PROB	n/a	LTP315	ltpFR2	4	n/a	n/a	n/a	11	20	8	6	6
1877680	PROB	n/a	LTP315	ltpFR2	4	n/a	n/a	n/a	11	18	5	4	9
1879446	PROB	n/a	LTP315	ltpFR2	4	n/a	n/a	n/a	11	10	4	4	2
1881081	PROB	n/a	LTP315	ltpFR2	4	n/a	n/a	n/a	11	17	5	9	3
1883066	PROB	n/a	LTP315	ltpFR2	4	n/a	n/a	n/a	11	26	9	8	9
1887053	PROB	n/a	LTP315	ltpFR2	4	n/a	n/a	n/a	11	16	4	4	8
1888839	PROB	n/a	LTP315	ltpFR2	4	n/a	n/a	n/a	11	16	5	9	2
1893411	STOP	n/a	LTP315	ltpFR2	4	n/a	n/a	n/a	11	n/a	n/a	n/a	n/a
1895344	REC_START	n/a	LTP315	ltpFR2	4	8	n/a	n/a	n/a	n/a	0	0	0
1896626	REC_WORD	wordpools/wasnorm_wordpool_576.txt	LTP315	ltpFR2	4	8	SISTER	1312	n/a	n/a	0	0	0
1897589	REC_WORD	wordpools/wasnorm_wordpool_576.txt	LTP315	ltpFR2	4	8	SIBLING	1301	n/a	n/a	0	0	0
1898695	REC_WORD	wordpools/wasnorm_wordpool_576.txt	LTP315	ltpFR2	4	8	PREACHER	1119	n/a	n/a	0	0	0
1899758	REC_WORD	wordpools/wasnorm_wordpool_576.txt	LTP315	ltpFR2	4	8	CHAPEL	280	n/a	n/a	0	0	0
1905664	REC_WORD	wordpools/wasnorm_wordpool_576.txt	LTP315	ltpFR2	4	8	WHISKERS	1605	n/a	n/a	0	0	0
1906772	REC_WORD	wordpools/wasnorm_wordpool_576.txt	LTP315	ltpFR2	4	8	TWEEZERS	1526	n/a	n/a	0	0	0
1915977	REC_WORD	wordpools/wasnorm_wordpool_576.txt	LTP315	ltpFR2	4	8	TUBA	1515	n/a	n/a	0	0	0
1971872	REST_REWET	n/a	LTP315	ltpFR2	4	8	n/a	n/a	n/a	n/a	0	0	0
2346439	DISTRACTOR	n/a	LTP315	ltpFR2	4	9	n/a	n/a	n/a	n/a	0	0	0
2346439	START	n/a	LTP315	ltpFR2	4	n/a	n/a	n/a	12	n/a	n/a	n/a	n/a
2346454	PROB	n/a	LTP315	ltpFR2	4	n/a	n/a	n/a	12	16	1	7	8
2348322	PROB	n/a	LTP315	ltpFR2	4	n/a	n/a	n/a	12	9	4	3	2
2349843	PROB	n/a	LTP315	ltpFR2	4	n/a	n/a	n/a	12	17	8	5	4
2351474	PROB	n/a	LTP315	ltpFR2	4	n/a	n/a	n/a	12	24	9	7	8
2353812	PROB	n/a	LTP315	ltpFR2	4	n/a	n/a	n/a	12	4	2	1	1
2354829	PROB	n/a	LTP315	ltpFR2	4	n/a	n/a	n/a	12	23	9	5	9
2356596	PROB	n/a	LTP315	ltpFR2	4	n/a	n/a	n/a	12	16	8	5	3
2358650	PROB	n/a	LTP315	ltpFR2	4	n/a	n/a	n/a	12	10	7	1	2
2360148	PROB	n/a	LTP315	ltpFR2	4	n/a	n/a	n/a	12	8	3	3	2
2361717	PROB	n/a	LTP315	ltpFR2	4	n/a	n/a	n/a	12	16	9	5	2
2363201	PROB	n/a	LTP315	ltpFR2	4	n/a	n/a	n/a	12	18	5	5	8
2364486	PROB	n/a	LTP315	ltpFR2	4	n/a	n/a	n/a	12	24	9	6	9
2366521	PROB	n/a	LTP315	ltpFR2	4	n/a	n/a	n/a	12	15	7	2	6
2367874	PROB	n/a	LTP315	ltpFR2	4	n/a	n/a	n/a	12	9	4	4	1
2369104	STOP	n/a	LTP315	ltpFR2	4	n/a	n/a	n/a	12	n/a	n/a	n/a	n/a
2371492	WORD	wordpools/wasnorm_wordpool_576.txt	LTP315	ltpFR2	4	9	MUSTARD	935	n/a	n/a	0	0	0
2374161	WORD	wordpools/wasnorm_wordpool_576.txt	LTP315	ltpFR2	4	9	WARDROBE	1587	n/a	n/a	0	0	0
2376981	WORD	wordpools/wasnorm_wordpool_576.txt	LTP315	ltpFR2	4	9	YACHT	1629	n/a	n/a	0	0	0
2379740	WORD	wordpools/wasnorm_wordpool_576.txt	LTP315	ltpFR2	4	9	SCALPEL	1243	n/a	n/a	0	0	0
2382191	WORD	wordpools/wasnorm_wordpool_576.txt	LTP315	ltpFR2	4	9	JEANS	752	n/a	n/a	0	0	0
2384838	WORD	wordpools/wasnorm_wordpool_576.txt	LTP315	ltpFR2	4	9	TUTU	1524	n/a	n/a	0	0	0
2387655	WORD	wordpools/wasnorm_wordpool_576.txt	LTP315	ltpFR2	4	9	PLAZA	1088	n/a	n/a	0	0	0
2390265	WORD	wordpools/wasnorm_wordpool_576.txt	LTP315	ltpFR2	4	9	SHORTS	1293	n/a	n/a	0	0	0
2393051	WORD	wordpools/wasnorm_wordpool_576.txt	LTP315	ltpFR2	4	9	PATIENT	1024	n/a	n/a	0	0	0
2395812	WORD	wordpools/wasnorm_wordpool_576.txt	LTP315	ltpFR2	4	9	DANCER	437	n/a	n/a	0	0	0
2398331	WORD	wordpools/wasnorm_wordpool_576.txt	LTP315	ltpFR2	4	9	PEANUT	1032	n/a	n/a	0	0	0
2400767	WORD	wordpools/wasnorm_wordpool_576.txt	LTP315	ltpFR2	4	9	POPCORN	1104	n/a	n/a	0	0	0
2403476	WORD	wordpools/wasnorm_wordpool_576.txt	LTP315	ltpFR2	4	9	TROUT	1511	n/a	n/a	0	0	0
2405946	WORD	wordpools/wasnorm_wordpool_576.txt	LTP315	ltpFR2	4	9	HANDBAG	684	n/a	n/a	0	0	0
2408690	WORD	wordpools/wasnorm_wordpool_576.txt	LTP315	ltpFR2	4	9	PRINCE	1124	n/a	n/a	0	0	0
2411324	WORD	wordpools/wasnorm_wordpool_576.txt	LTP315	ltpFR2	4	9	COCOON	339	n/a	n/a	0	0	0
2413827	WORD	wordpools/wasnorm_wordpool_576.txt	LTP315	ltpFR2	4	9	TERMITE	1451	n/a	n/a	0	0	0
2416488	WORD	wordpools/wasnorm_wordpool_576.txt	LTP315	ltpFR2	4	9	JOURNAL	760	n/a	n/a	0	0	0
2418907	WORD	wordpools/wasnorm_wordpool_576.txt	LTP315	ltpFR2	4	9	NOVEL	960	n/a	n/a	0	0	0
2421333	WORD	wordpools/wasnorm_wordpool_576.txt	LTP315	ltpFR2	4	9	XEROX	1628	n/a	n/a	0	0	0
2424094	WORD	wordpools/wasnorm_wordpool_576.txt	LTP315	ltpFR2	4	9	SUITCASE	1403	n/a	n/a	0	0	0
2426554	WORD	wordpools/wasnorm_wordpool_576.txt	LTP315	ltpFR2	4	9	HOOK	715	n/a	n/a	0	0	0
2429049	WORD	wordpools/wasnorm_wordpool_576.txt	LTP315	ltpFR2	4	9	LEG	809	n/a	n/a	0	0	0
2431759	WORD	wordpools/wasnorm_wordpool_576.txt	LTP315	ltpFR2	4	9	POCKET	1093	n/a	n/a	0	0	0
2433370	START	n/a	LTP315	ltpFR2	4	n/a	n/a	n/a	13	n/a	n/a	n/a	n/a
2434228	DISTRACTOR	n/a	LTP315	ltpFR2	4	9	n/a	n/a	n/a	n/a	0	0	0
2434236	PROB	n/a	LTP315	ltpFR2	4	n/a	n/a	n/a	13	13	7	4	2
2435962	PROB	n/a	LTP315	ltpFR2	4	n/a	n/a	n/a	13	20	7	4	9
2438228	PROB	n/a	LTP315	ltpFR2	4	n/a	n/a	n/a	13	18	5	7	6
2441298	PROB	n/a	LTP315	ltpFR2	4	n/a	n/a	n/a	13	14	5	5	4
2442566	PROB	n/a	LTP315	ltpFR2	4	n/a	n/a	n/a	13	18	3	8	7
2443849	PROB	n/a	LTP315	ltpFR2	4	n/a	n/a	n/a	13	9	6	2	1
2445133	PROB	n/a	LTP315	ltpFR2	4	n/a	n/a	n/a	13	9	5	3	1
2446585	PROB	n/a	LTP315	ltpFR2	4	n/a	n/a	n/a	13	11	1	3	7
2447970	PROB	n/a	LTP315	ltpFR2	4	n/a	n/a	n/a	13	19	9	9	1
2449320	PROB	n/a	LTP315	ltpFR2	4	n/a	n/a	n/a	13	23	9	8	6
2451508	PROB	n/a	LTP315	ltpFR2	4	n/a	n/a	n/a	13	20	8	6	6
2454408	PROB	n/a	LTP315	ltpFR2	4	n/a	n/a	n/a	13	19	4	6	9
2455626	PROB	n/a	LTP315	ltpFR2	4	n/a	n/a	n/a	13	15	1	9	5
2456636	STOP	n/a	LTP315	ltpFR2	4	n/a	n/a	n/a	13	n/a	n/a	n/a	n/a
2459279	REC_START	n/a	LTP315	ltpFR2	4	9	n/a	n/a	n/a	n/a	0	0	0
2462864	REC_WORD	wordpools/wasnorm_wordpool_576.txt	LTP315	ltpFR2	4	9	SUITCASE	1403	n/a	n/a	0	0	0
2464013	REC_WORD	wordpools/wasnorm_wordpool_576.txt	LTP315	ltpFR2	4	9	HANDBAG	684	n/a	n/a	0	0	0
2465753	REC_WORD	wordpools/wasnorm_wordpool_576.txt	LTP315	ltpFR2	4	9	JOURNAL	760	n/a	n/a	0	0	0
2466928	REC_WORD	wordpools/wasnorm_wordpool_576.txt	LTP315	ltpFR2	4	9	NOVEL	960	n/a	n/a	0	0	0
2468411	REC_WORD	wordpools/wasnorm_wordpool_576.txt	LTP315	ltpFR2	4	9	HOOK	715	n/a	n/a	0	0	0
2470010	REC_WORD	wordpools/wasnorm_wordpool_576.txt	LTP315	ltpFR2	4	9	SCALPEL	1243	n/a	n/a	0	0	0
2471527	REC_WORD	wordpools/wasnorm_wordpool_576.txt	LTP315	ltpFR2	4	9	WARDROBE	1587	n/a	n/a	0	0	0
2472965	REC_WORD	wordpools/wasnorm_wordpool_576.txt	LTP315	ltpFR2	4	9	JEANS	752	n/a	n/a	0	0	0
2474211	REC_WORD	wordpools/wasnorm_wordpool_576.txt	LTP315	ltpFR2	4	9	LEG	809	n/a	n/a	0	0	0
2475398	REC_WORD	wordpools/wasnorm_wordpool_576.txt	LTP315	ltpFR2	4	9	SHORTS	1293	n/a	n/a	0	0	0
2476915	REC_WORD	wordpools/wasnorm_wordpool_576.txt	LTP315	ltpFR2	4	9	POCKET	1093	n/a	n/a	0	0	0
2478363	REC_WORD	wordpools/wasnorm_wordpool_576.txt	LTP315	ltpFR2	4	9	XEROX	1628	n/a	n/a	0	0	0
2666857	DISTRACTOR	n/a	LTP315	ltpFR2	4	10	n/a	n/a	n/a	n/a	0	0	0
2666857	START	n/a	LTP315	ltpFR2	4	n/a	n/a	n/a	14	n/a	n/a	n/a	n/a
2666872	PROB	n/a	LTP315	ltpFR2	4	n/a	n/a	n/a	14	14	9	2	3
2668713	PROB	n/a	LTP315	ltpFR2	4	n/a	n/a	n/a	14	12	4	4	4
2669932	PROB	n/a	LTP315	ltpFR2	4	n/a	n/a	n/a	14	8	6	1	1
2671083	PROB	n/a	LTP315	ltpFR2	4	n/a	n/a	n/a	14	9	3	5	1
2672282	PROB	n/a	LTP315	ltpFR2	4	n/a	n/a	n/a	14	9	2	5	2
2673702	PROB	n/a	LTP315	ltpFR2	4	n/a	n/a	n/a	14	18	9	7	2
2675419	PROB	n/a	LTP315	ltpFR2	4	n/a	n/a	n/a	14	3	1	1	1
2676387	PROB	n/a	LTP315	ltpFR2	4	n/a	n/a	n/a	14	12	2	6	4
2677705	PROB	n/a	LTP315	ltpFR2	4	n/a	n/a	n/a	14	17	6	5	6
2679806	PROB	n/a	LTP315	ltpFR2	4	n/a	n/a	n/a	14	19	4	8	7
2681859	PROB	n/a	LTP315	ltpFR2	4	n/a	n/a	n/a	14	7	2	3	2
2683959	PROB	n/a	LTP315	ltpFR2	4	n/a	n/a	n/a	14	20	8	6	6
2685795	PROB	n/a	LTP315	ltpFR2	4	n/a	n/a	n/a	14	4	2	1	1
2686829	PROB	n/a	LTP315	ltpFR2	4	n/a	n/a	n/a	14	13	7	2	4
2688580	PROB	n/a	LTP315	ltpFR2	4	n/a	n/a	n/a	14	9	6	2	1
2690205	STOP	n/a	LTP315	ltpFR2	4	n/a	n/a	n/a	14	n/a	n/a	n/a	n/a
2691795	WORD	wordpools/wasnorm_wordpool_576.txt	LTP315	ltpFR2	4	10	BLACKBOARD	133	n/a	n/a	0	0	0
2694602	WORD	wordpools/wasnorm_wordpool_576.txt	LTP315	ltpFR2	4	10	SCARF	1246	n/a	n/a	0	0	0
2697049	WORD	wordpools/wasnorm_wordpool_576.txt	LTP315	ltpFR2	4	10	RAZOR	1171	n/a	n/a	0	0	0
2699702	WORD	wordpools/wasnorm_wordpool_576.txt	LTP315	ltpFR2	4	10	COTTAGE	384	n/a	n/a	0	0	0
2702337	WORD	wordpools/wasnorm_wordpool_576.txt	LTP315	ltpFR2	4	10	PUPPY	1144	n/a	n/a	0	0	0
2705123	WORD	wordpools/wasnorm_wordpool_576.txt	LTP315	ltpFR2	4	10	GARDEN	623	n/a	n/a	0	0	0
2707693	WORD	wordpools/wasnorm_wordpool_576.txt	LTP315	ltpFR2	4	10	APRON	35	n/a	n/a	0	0	0
2710131	WORD	wordpools/wasnorm_wordpool_576.txt	LTP315	ltpFR2	4	10	THREAD	1460	n/a	n/a	0	0	0
2712834	WORD	wordpools/wasnorm_wordpool_576.txt	LTP315	ltpFR2	4	10	KETCHUP	771	n/a	n/a	0	0	0
2715402	WORD	wordpools/wasnorm_wordpool_576.txt	LTP315	ltpFR2	4	10	LETTUCE	814	n/a	n/a	0	0	0
2717850	WORD	wordpools/wasnorm_wordpool_576.txt	LTP315	ltpFR2	4	10	OINTMENT	974	n/a	n/a	0	0	0
2720507	WORD	wordpools/wasnorm_wordpool_576.txt	LTP315	ltpFR2	4	10	MOP	916	n/a	n/a	0	0	0
2723088	WORD	wordpools/wasnorm_wordpool_576.txt	LTP315	ltpFR2	4	10	CROWN	415	n/a	n/a	0	0	0
2725507	WORD	wordpools/wasnorm_wordpool_576.txt	LTP315	ltpFR2	4	10	SPOUSE	1358	n/a	n/a	0	0	0
2728309	WORD	wordpools/wasnorm_wordpool_576.txt	LTP315	ltpFR2	4	10	TURNIP	1521	n/a	n/a	0	0	0
2730798	WORD	wordpools/wasnorm_wordpool_576.txt	LTP315	ltpFR2	4	10	SALAD	1224	n/a	n/a	0	0	0
2733582	WORD	wordpools/wasnorm_wordpool_576.txt	LTP315	ltpFR2	4	10	YARN	1631	n/a	n/a	0	0	0
2736249	WORD	wordpools/wasnorm_wordpool_576.txt	LTP315	ltpFR2	4	10	COOKBOOK	373	n/a	n/a	0	0	0
2738769	WORD	wordpools/wasnorm_wordpool_576.txt	LTP315	ltpFR2	4	10	TYPIST	1532	n/a	n/a	0	0	0
2741337	WORD	wordpools/wasnorm_wordpool_576.txt	LTP315	ltpFR2	4	10	TOURIST	1488	n/a	n/a	0	0	0
2744007	WORD	wordpools/wasnorm_wordpool_576.txt	LTP315	ltpFR2	4	10	CAPTIVE	240	n/a	n/a	0	0	0
2746643	WORD	wordpools/wasnorm_wordpool_576.txt	LTP315	ltpFR2	4	10	INMATE	738	n/a	n/a	0	0	0
2749077	WORD	wordpools/wasnorm_wordpool_576.txt	LTP315	ltpFR2	4	10	CHEMIST	292	n/a	n/a	0	0	0
2751647	WORD	wordpools/wasnorm_wordpool_576.txt	LTP315	ltpFR2	4	10	JELLO	754	n/a	n/a	0	0	0
2753264	START	n/a	LTP315	ltpFR2	4	n/a	n/a	n/a	15	n/a	n/a	n/a	n/a
2754384	DISTRACTOR	n/a	LTP315	ltpFR2	4	10	n/a	n/a	n/a	n/a	0	0	0
2754398	PROB	n/a	LTP315	ltpFR2	4	n/a	n/a	n/a	15	12	5	5	2
2756518	PROB	n/a	LTP315	ltpFR2	4	n/a	n/a	n/a	15	19	1	9	9
2758186	PROB	n/a	LTP315	ltpFR2	4	n/a	n/a	n/a	15	9	5	3	1
2759437	PROB	n/a	LTP315	ltpFR2	4	n/a	n/a	n/a	15	18	3	9	6
2761154	PROB	n/a	LTP315	ltpFR2	4	n/a	n/a	n/a	15	7	2	2	3
2763740	PROB	n/a	LTP315	ltpFR2	4	n/a	n/a	n/a	15	13	7	2	4
2766108	PROB	n/a	LTP315	ltpFR2	4	n/a	n/a	n/a	15	18	4	6	8
2767509	PROB	n/a	LTP315	ltpFR2	4	n/a	n/a	n/a	15	14	1	6	7
2768994	PROB	n/a	LTP315	ltpFR2	4	n/a	n/a	n/a	15	15	2	6	7
2771029	PROB	n/a	LTP315	ltpFR2	4	n/a	n/a	n/a	15	14	6	4	4
2773079	PROB	n/a	LTP315	ltpFR2	4	n/a	n/a	n/a	15	17	7	3	7
2774734	PROB	n/a	LTP315	ltpFR2	4	n/a	n/a	n/a	15	1	1	8	9
2776072	STOP	n/a	LTP315	ltpFR2	4	n/a	n/a	n/a	15	n/a	n/a	n/a	n/a
2779085	REC_START	n/a	LTP315	ltpFR2	4	10	n/a	n/a	n/a	n/a	0	0	0
2781095	REC_WORD	wordpools/wasnorm_wordpool_576.txt	LTP315	ltpFR2	4	10	TYPIST	1532	n/a	n/a	0	0	0
2782187	REC_WORD	wordpools/wasnorm_wordpool_576.txt	LTP315	ltpFR2	4	10	TOURIST	1488	n/a	n/a	0	0	0
2783492	REC_WORD	wordpools/wasnorm_wordpool_576.txt	LTP315	ltpFR2	4	10	CAPTIVE	240	n/a	n/a	0	0	0
2785951	REC_WORD	wordpools/wasnorm_wordpool_576.txt	LTP315	ltpFR2	4	10	CHEMIST	292	n/a	n/a	0	0	0
2788974	REC_WORD	wordpools/wasnorm_wordpool_576.txt	LTP315	ltpFR2	4	10	JELLO	754	n/a	n/a	0	0	0
2790027	REC_WORD	wordpools/wasnorm_wordpool_576.txt	LTP315	ltpFR2	4	10	APRON	35	n/a	n/a	0	0	0
2791094	REC_WORD	wordpools/wasnorm_wordpool_576.txt	LTP315	ltpFR2	4	10	COOKBOOK	373	n/a	n/a	0	0	0
2793982	REC_WORD	wordpools/wasnorm_wordpool_576.txt	LTP315	ltpFR2	4	10	COTTAGE	384	n/a	n/a	0	0	0
2794879	REC_WORD	wordpools/wasnorm_wordpool_576.txt	LTP315	ltpFR2	4	10	THREAD	1460	n/a	n/a	0	0	0
2869510	DISTRACTOR	n/a	LTP315	ltpFR2	4	11	n/a	n/a	n/a	n/a	0	0	0
2869510	START	n/a	LTP315	ltpFR2	4	n/a	n/a	n/a	16	n/a	n/a	n/a	n/a
2869525	PROB	n/a	LTP315	ltpFR2	4	n/a	n/a	n/a	16	22	6	9	7
2872994	PROB	n/a	LTP315	ltpFR2	4	n/a	n/a	n/a	16	18	6	6	6
2874294	PROB	n/a	LTP315	ltpFR2	4	n/a	n/a	n/a	16	13	5	4	4
2876129	PROB	n/a	LTP315	ltpFR2	4	n/a	n/a	n/a	16	17	7	1	9
2877446	PROB	n/a	LTP315	ltpFR2	4	n/a	n/a	n/a	16	13	4	4	5
2878815	PROB	n/a	LTP315	ltpFR2	4	n/a	n/a	n/a	16	19	4	9	6
2880852	PROB	n/a	LTP315	ltpFR2	4	n/a	n/a	n/a	16	13	6	4	3
2883135	PROB	n/a	LTP315	ltpFR2	4	n/a	n/a	n/a	16	13	5	6	2
2884905	PROB	n/a	LTP315	ltpFR2	4	n/a	n/a	n/a	16	17	8	1	8
2886839	PROB	n/a	LTP315	ltpFR2	4	n/a	n/a	n/a	16	13	7	1	5
2888674	PROB	n/a	LTP315	ltpFR2	4	n/a	n/a	n/a	16	6	2	2	2
2890009	PROB	n/a	LTP315	ltpFR2	4	n/a	n/a	n/a	16	12	9	1	2
2891393	PROB	n/a	LTP315	ltpFR2	4	n/a	n/a	n/a	16	15	1	8	6
2893141	STOP	n/a	LTP315	ltpFR2	4	n/a	n/a	n/a	16	n/a	n/a	n/a	n/a
2894629	WORD	wordpools/wasnorm_wordpool_576.txt	LTP315	ltpFR2	4	11	UMPIRE	1535	n/a	n/a	0	0	0
2897330	WORD	wordpools/wasnorm_wordpool_576.txt	LTP315	ltpFR2	4	11	SOFTBALL	1343	n/a	n/a	0	0	0
2899850	WORD	wordpools/wasnorm_wordpool_576.txt	LTP315	ltpFR2	4	11	PATROL	1027	n/a	n/a	0	0	0
2902520	WORD	wordpools/wasnorm_wordpool_576.txt	LTP315	ltpFR2	4	11	EMPIRE	530	n/a	n/a	0	0	0
2905137	WORD	wordpools/wasnorm_wordpool_576.txt	LTP315	ltpFR2	4	11	SPOON	1357	n/a	n/a	0	0	0
2907683	WORD	wordpools/wasnorm_wordpool_576.txt	LTP315	ltpFR2	4	11	ONION	977	n/a	n/a	0	0	0
2910458	WORD	wordpools/wasnorm_wordpool_576.txt	LTP315	ltpFR2	4	11	GARLIC	624	n/a	n/a	0	0	0
2912994	WORD	wordpools/wasnorm_wordpool_576.txt	LTP315	ltpFR2	4	11	PASTA	1021	n/a	n/a	0	0	0
2915523	WORD	wordpools/wasnorm_wordpool_576.txt	LTP315	ltpFR2	4	11	GAZELLE	628	n/a	n/a	0	0	0
2918174	WORD	wordpools/wasnorm_wordpool_576.txt	LTP315	ltpFR2	4	11	GUARD	667	n/a	n/a	0	0	0
2920768	WORD	wordpools/wasnorm_wordpool_576.txt	LTP315	ltpFR2	4	11	KNIFE	785	n/a	n/a	0	0	0
2923412	WORD	wordpools/wasnorm_wordpool_576.txt	LTP315	ltpFR2	4	11	STAKE	1368	n/a	n/a	0	0	0
2925865	WORD	wordpools/wasnorm_wordpool_576.txt	LTP315	ltpFR2	4	11	GAVEL	627	n/a	n/a	0	0	0
2928316	WORD	wordpools/wasnorm_wordpool_576.txt	LTP315	ltpFR2	4	11	ICEBERG	731	n/a	n/a	0	0	0
2930853	WORD	wordpools/wasnorm_wordpool_576.txt	LTP315	ltpFR2	4	11	DUST	508	n/a	n/a	0	0	0
2933370	WORD	wordpools/wasnorm_wordpool_576.txt	LTP315	ltpFR2	4	11	OUTDOORS	987	n/a	n/a	0	0	0
2935841	WORD	wordpools/wasnorm_wordpool_576.txt	LTP315	ltpFR2	4	11	PUDDLE	1140	n/a	n/a	0	0	0
2938381	WORD	wordpools/wasnorm_wordpool_576.txt	LTP315	ltpFR2	4	11	IGLOO	734	n/a	n/a	0	0	0
2940812	WORD	wordpools/wasnorm_wordpool_576.txt	LTP315	ltpFR2	4	11	AGENT	10	n/a	n/a	0	0	0
2943463	WORD	wordpools/wasnorm_wordpool_576.txt	LTP315	ltpFR2	4	11	BISON	131	n/a	n/a	0	0	0
2946182	WORD	wordpools/wasnorm_wordpool_576.txt	LTP315	ltpFR2	4	11	FREEZER	604	n/a	n/a	0	0	0
2948873	WORD	wordpools/wasnorm_wordpool_576.txt	LTP315	ltpFR2	4	11	KLEENEX	782	n/a	n/a	0	0	0
2951453	WORD	wordpools/wasnorm_wordpool_576.txt	LTP315	ltpFR2	4	11	SNAIL	1332	n/a	n/a	0	0	0
2953974	WORD	wordpools/wasnorm_wordpool_576.txt	LTP315	ltpFR2	4	11	TRENCH	1503	n/a	n/a	0	0	0
2955580	START	n/a	LTP315	ltpFR2	4	n/a	n/a	n/a	17	n/a	n/a	n/a	n/a
2956587	DISTRACTOR	n/a	LTP315	ltpFR2	4	11	n/a	n/a	n/a	n/a	0	0	0
2956592	PROB	n/a	LTP315	ltpFR2	4	n/a	n/a	n/a	17	8	4	3	1
2958144	PROB	n/a	LTP315	ltpFR2	4	n/a	n/a	n/a	17	16	7	6	3
2960460	PROB	n/a	LTP315	ltpFR2	4	n/a	n/a	n/a	17	22	9	5	8
2963615	PROB	n/a	LTP315	ltpFR2	4	n/a	n/a	n/a	17	19	5	8	6
2965835	PROB	n/a	LTP315	ltpFR2	4	n/a	n/a	n/a	17	11	3	3	5
2968500	PROB	n/a	LTP315	ltpFR2	4	n/a	n/a	n/a	17	20	8	4	8
2971640	PROB	n/a	LTP315	ltpFR2	4	n/a	n/a	n/a	17	12	5	3	4
2973271	PROB	n/a	LTP315	ltpFR2	4	n/a	n/a	n/a	17	12	9	1	2
2974592	PROB	n/a	LTP315	ltpFR2	4	n/a	n/a	n/a	17	16	7	8	1
2975776	PROB	n/a	LTP315	ltpFR2	4	n/a	n/a	n/a	17	21	8	4	9
2978216	STOP	n/a	LTP315	ltpFR2	4	n/a	n/a	n/a	17	n/a	n/a	n/a	n/a
2981463	REC_START	n/a	LTP315	ltpFR2	4	11	n/a	n/a	n/a	n/a	0	0	0
2985787	REC_WORD	wordpools/wasnorm_wordpool_576.txt	LTP315	ltpFR2	4	11	IGLOO	734	n/a	n/a	0	0	0
2987406	REC_WORD	wordpools/wasnorm_wordpool_576.txt	LTP315	ltpFR2	4	11	ICEBERG	731	n/a	n/a	0	0	0
2989434	REC_WORD	wordpools/wasnorm_wordpool_576.txt	LTP315	ltpFR2	4	11	FREEZER	604	n/a	n/a	0	0	0
2990282	REC_WORD	wordpools/wasnorm_wordpool_576.txt	LTP315	ltpFR2	4	11	KLEENEX	782	n/a	n/a	0	0	0
2991978	REC_WORD	wordpools/wasnorm_wordpool_576.txt	LTP315	ltpFR2	4	11	PUDDLE	1140	n/a	n/a	0	0	0
2993035	REC_WORD	wordpools/wasnorm_wordpool_576.txt	LTP315	ltpFR2	4	11	OUTDOORS	987	n/a	n/a	0	0	0
3007410	REC_WORD	wordpools/wasnorm_wordpool_576.txt	LTP315	ltpFR2	4	11	GUARD	667	n/a	n/a	0	0	0
3008146	REC_WORD	wordpools/wasnorm_wordpool_576.txt	LTP315	ltpFR2	4	11	PATROL	1027	n/a	n/a	0	0	0
3011118	REC_WORD	wordpools/wasnorm_wordpool_576.txt	LTP315	ltpFR2	4	11	SOFTBALL	1343	n/a	n/a	0	0	0
3012457	REC_WORD	wordpools/wasnorm_wordpool_576.txt	LTP315	ltpFR2	4	11	UMPIRE	1535	n/a	n/a	0	0	0
3013417	REC_WORD	wordpools/wasnorm_wordpool_576.txt	LTP315	ltpFR2	4	11	EMPIRE	530	n/a	n/a	0	0	0
3071905	DISTRACTOR	n/a	LTP315	ltpFR2	4	12	n/a	n/a	n/a	n/a	0	0	0
3071905	START	n/a	LTP315	ltpFR2	4	n/a	n/a	n/a	18	n/a	n/a	n/a	n/a
3071921	PROB	n/a	LTP315	ltpFR2	4	n/a	n/a	n/a	18	17	1	9	7
3073722	PROB	n/a	LTP315	ltpFR2	4	n/a	n/a	n/a	18	12	2	7	3
3075190	PROB	n/a	LTP315	ltpFR2	4	n/a	n/a	n/a	18	8	4	3	1
3076558	PROB	n/a	LTP315	ltpFR2	4	n/a	n/a	n/a	18	15	4	9	2
3078543	PROB	n/a	LTP315	ltpFR2	4	n/a	n/a	n/a	18	9	4	4	1
3080745	PROB	n/a	LTP315	ltpFR2	4	n/a	n/a	n/a	18	21	9	7	5
3083397	PROB	n/a	LTP315	ltpFR2	4	n/a	n/a	n/a	18	21	7	6	9
3085247	PROB	n/a	LTP315	ltpFR2	4	n/a	n/a	n/a	18	18	6	5	7
3087065	PROB	n/a	LTP315	ltpFR2	4	n/a	n/a	n/a	18	9	3	5	1
3089333	PROB	n/a	LTP315	ltpFR2	4	n/a	n/a	n/a	18	18	3	9	6
3090802	PROB	n/a	LTP315	ltpFR2	4	n/a	n/a	n/a	18	11	2	3	6
3092521	PROB	n/a	LTP315	ltpFR2	4	n/a	n/a	n/a	18	12	4	5	3
3094982	STOP	n/a	LTP315	ltpFR2	4	n/a	n/a	n/a	18	n/a	n/a	n/a	n/a
3097125	WORD	wordpools/wasnorm_wordpool_576.txt	LTP315	ltpFR2	4	12	PIANO	1057	n/a	n/a	0	0	0
3099877	WORD	wordpools/wasnorm_wordpool_576.txt	LTP315	ltpFR2	4	12	BANJO	82	n/a	n/a	0	0	0
3102311	WORD	wordpools/wasnorm_wordpool_576.txt	LTP315	ltpFR2	4	12	SHIRT	1287	n/a	n/a	0	0	0
3104832	WORD	wordpools/wasnorm_wordpool_576.txt	LTP315	ltpFR2	4	12	BALLOON	75	n/a	n/a	0	0	0
3107517	WORD	wordpools/wasnorm_wordpool_576.txt	LTP315	ltpFR2	4	12	CROSS	413	n/a	n/a	0	0	0
3110125	WORD	wordpools/wasnorm_wordpool_576.txt	LTP315	ltpFR2	4	12	COOK	372	n/a	n/a	0	0	0
3112838	WORD	wordpools/wasnorm_wordpool_576.txt	LTP315	ltpFR2	4	12	PASSAGE	1019	n/a	n/a	0	0	0
3115464	WORD	wordpools/wasnorm_wordpool_576.txt	LTP315	ltpFR2	4	12	DRESSER	496	n/a	n/a	0	0	0
3117900	WORD	wordpools/wasnorm_wordpool_576.txt	LTP315	ltpFR2	4	12	CLOCK	325	n/a	n/a	0	0	0
3120360	WORD	wordpools/wasnorm_wordpool_576.txt	LTP315	ltpFR2	4	12	WHISTLE	1606	n/a	n/a	0	0	0
3123145	WORD	wordpools/wasnorm_wordpool_576.txt	LTP315	ltpFR2	4	12	DANDRUFF	439	n/a	n/a	0	0	0
3125681	WORD	wordpools/wasnorm_wordpool_576.txt	LTP315	ltpFR2	4	12	DONKEY	484	n/a	n/a	0	0	0
3128182	WORD	wordpools/wasnorm_wordpool_576.txt	LTP315	ltpFR2	4	12	CARRIAGE	248	n/a	n/a	0	0	0
3130886	WORD	wordpools/wasnorm_wordpool_576.txt	LTP315	ltpFR2	4	12	SIDEWALK	1303	n/a	n/a	0	0	0
3133446	WORD	wordpools/wasnorm_wordpool_576.txt	LTP315	ltpFR2	4	12	SWORD	1423	n/a	n/a	0	0	0
3136215	WORD	wordpools/wasnorm_wordpool_576.txt	LTP315	ltpFR2	4	12	WRENCH	1625	n/a	n/a	0	0	0
3138985	WORD	wordpools/wasnorm_wordpool_576.txt	LTP315	ltpFR2	4	12	CHAUFFEUR	283	n/a	n/a	0	0	0
3141578	WORD	wordpools/wasnorm_wordpool_576.txt	LTP315	ltpFR2	4	12	JAPAN	749	n/a	n/a	0	0	0
3144272	WORD	wordpools/wasnorm_wordpool_576.txt	LTP315	ltpFR2	4	12	TUNNEL	1519	n/a	n/a	0	0	0
3146898	WORD	wordpools/wasnorm_wordpool_576.txt	LTP315	ltpFR2	4	12	DRESS	495	n/a	n/a	0	0	0
3149517	WORD	wordpools/wasnorm_wordpool_576.txt	LTP315	ltpFR2	4	12	COLONEL	348	n/a	n/a	0	0	0
3152012	WORD	wordpools/wasnorm_wordpool_576.txt	LTP315	ltpFR2	4	12	COUNTRY	388	n/a	n/a	0	0	0
3154437	WORD	wordpools/wasnorm_wordpool_576.txt	LTP315	ltpFR2	4	12	FRAGRANCE	599	n/a	n/a	0	0	0
3157034	WORD	wordpools/wasnorm_wordpool_576.txt	LTP315	ltpFR2	4	12	FEMALE	559	n/a	n/a	0	0	0
3158641	START	n/a	LTP315	ltpFR2	4	n/a	n/a	n/a	19	n/a	n/a	n/a	n/a
3159832	DISTRACTOR	n/a	LTP315	ltpFR2	4	12	n/a	n/a	n/a	n/a	0	0	0
3159842	PROB	n/a	LTP315	ltpFR2	4	n/a	n/a	n/a	19	13	5	6	2
3162326	PROB	n/a	LTP315	ltpFR2	4	n/a	n/a	n/a	19	10	3	5	2
3163978	PROB	n/a	LTP315	ltpFR2	4	n/a	n/a	n/a	19	19	5	8	6
3166062	PROB	n/a	LTP315	ltpFR2	4	n/a	n/a	n/a	19	14	5	6	3
3168581	PROB	n/a	LTP315	ltpFR2	4	n/a	n/a	n/a	19	21	8	6	7
3172384	PROB	n/a	LTP315	ltpFR2	4	n/a	n/a	n/a	19	26	8	9	9
3174236	PROB	n/a	LTP315	ltpFR2	4	n/a	n/a	n/a	19	18	2	9	7
3175670	PROB	n/a	LTP315	ltpFR2	4	n/a	n/a	n/a	19	12	8	3	1
3177155	PROB	n/a	LTP315	ltpFR2	4	n/a	n/a	n/a	19	13	8	3	2
3178506	PROB	n/a	LTP315	ltpFR2	4	n/a	n/a	n/a	19	20	5	9	6
3181753	STOP	n/a	LTP315	ltpFR2	4	n/a	n/a	n/a	19	n/a	n/a	n/a	n/a
3184563	REC_START	n/a	LTP315	ltpFR2	4	12	n/a	n/a	n/a	n/a	0	0	0
3188717	REC_WORD	wordpools/wasnorm_wordpool_576.txt	LTP315	ltpFR2	4	12	CARRIAGE	248	n/a	n/a	0	0	0
3190672	REC_WORD	wordpools/wasnorm_wordpool_576.txt	LTP315	ltpFR2	4	12	CHAUFFEUR	283	n/a	n/a	0	0	0
3192183	REC_WORD	wordpools/wasnorm_wordpool_576.txt	LTP315	ltpFR2	4	12	TUNNEL	1519	n/a	n/a	0	0	0
3198963	REC_WORD	wordpools/wasnorm_wordpool_576.txt	LTP315	ltpFR2	4	12	DRESS	495	n/a	n/a	0	0	0
3199991	REC_WORD	wordpools/wasnorm_wordpool_576.txt	LTP315	ltpFR2	4	12	DRESSER	496	n/a	n/a	0	0	0
3202002	REC_WORD	wordpools/wasnorm_wordpool_576.txt	LTP315	ltpFR2	4	12	CLOCK	325	n/a	n/a	0	0	0
3221369	REC_WORD	wordpools/wasnorm_wordpool_576.txt	LTP315	ltpFR2	4	12	FRAGRANCE	599	n/a	n/a	0	0	0
3222353	REC_WORD	wordpools/wasnorm_wordpool_576.txt	LTP315	ltpFR2	4	12	FEMALE	559	n/a	n/a	0	0	0
3257334	REC_WORD	wordpools/wasnorm_wordpool_576.txt	LTP315	ltpFR2	4	12	DANDRUFF	439	n/a	n/a	0	0	0
3304841	WORD	wordpools/wasnorm_wordpool_576.txt	LTP315	ltpFR2	4	13	HARP	689	n/a	n/a	0	0	0
3307276	WORD	wordpools/wasnorm_wordpool_576.txt	LTP315	ltpFR2	4	13	SPIDER	1351	n/a	n/a	0	0	0
3309866	WORD	wordpools/wasnorm_wordpool_576.txt	LTP315	ltpFR2	4	13	POSTAGE	1113	n/a	n/a	0	0	0
3312314	WORD	wordpools/wasnorm_wordpool_576.txt	LTP315	ltpFR2	4	13	CREVICE	405	n/a	n/a	0	0	0
3315066	WORD	wordpools/wasnorm_wordpool_576.txt	LTP315	ltpFR2	4	13	MATTRESS	879	n/a	n/a	0	0	0
3317686	WORD	wordpools/wasnorm_wordpool_576.txt	LTP315	ltpFR2	4	13	WIFE	1609	n/a	n/a	0	0	0
3320386	WORD	wordpools/wasnorm_wordpool_576.txt	LTP315	ltpFR2	4	13	LOVER	846	n/a	n/a	0	0	0
3323072	WORD	wordpools/wasnorm_wordpool_576.txt	LTP315	ltpFR2	4	13	CAMEL	223	n/a	n/a	0	0	0
3325692	WORD	wordpools/wasnorm_wordpool_576.txt	LTP315	ltpFR2	4	13	OFFICE	972	n/a	n/a	0	0	0
3328126	WORD	wordpools/wasnorm_wordpool_576.txt	LTP315	ltpFR2	4	13	MARINE	869	n/a	n/a	0	0	0
3330680	WORD	wordpools/wasnorm_wordpool_576.txt	LTP315	ltpFR2	4	13	FARMER	553	n/a	n/a	0	0	0
3333230	WORD	wordpools/wasnorm_wordpool_576.txt	LTP315	ltpFR2	4	13	PICTURE	1061	n/a	n/a	0	0	0
3335840	WORD	wordpools/wasnorm_wordpool_576.txt	LTP315	ltpFR2	4	13	FRAME	600	n/a	n/a	0	0	0
3338308	WORD	wordpools/wasnorm_wordpool_576.txt	LTP315	ltpFR2	4	13	HORSE	719	n/a	n/a	0	0	0
3340961	WORD	wordpools/wasnorm_wordpool_576.txt	LTP315	ltpFR2	4	13	CATCHER	258	n/a	n/a	0	0	0
3343624	WORD	wordpools/wasnorm_wordpool_576.txt	LTP315	ltpFR2	4	13	HOUND	724	n/a	n/a	0	0	0
3346398	WORD	wordpools/wasnorm_wordpool_576.txt	LTP315	ltpFR2	4	13	ELBOW	520	n/a	n/a	0	0	0
3348827	WORD	wordpools/wasnorm_wordpool_576.txt	LTP315	ltpFR2	4	13	BODY	145	n/a	n/a	0	0	0
3351262	WORD	wordpools/wasnorm_wordpool_576.txt	LTP315	ltpFR2	4	13	FRIEND	606	n/a	n/a	0	0	0
3353764	WORD	wordpools/wasnorm_wordpool_576.txt	LTP315	ltpFR2	4	13	BROTHER	179	n/a	n/a	0	0	0
3356198	WORD	wordpools/wasnorm_wordpool_576.txt	LTP315	ltpFR2	4	13	ARMY	39	n/a	n/a	0	0	0
3358760	WORD	wordpools/wasnorm_wordpool_576.txt	LTP315	ltpFR2	4	13	MISSILE	900	n/a	n/a	0	0	0
3361253	WORD	wordpools/wasnorm_wordpool_576.txt	LTP315	ltpFR2	4	13	SUNSET	1408	n/a	n/a	0	0	0
3363697	WORD	wordpools/wasnorm_wordpool_576.txt	LTP315	ltpFR2	4	13	ORCHID	982	n/a	n/a	0	0	0
3365307	START	n/a	LTP315	ltpFR2	4	n/a	n/a	n/a	20	n/a	n/a	n/a	n/a
3366309	DISTRACTOR	n/a	LTP315	ltpFR2	4	13	n/a	n/a	n/a	n/a	0	0	0
3366315	PROB	n/a	LTP315	ltpFR2	4	n/a	n/a	n/a	20	13	5	1	7
3367825	PROB	n/a	LTP315	ltpFR2	4	n/a	n/a	n/a	20	16	4	9	3
3369525	PROB	n/a	LTP315	ltpFR2	4	n/a	n/a	n/a	20	15	5	8	2
3371327	PROB	n/a	LTP315	ltpFR2	4	n/a	n/a	n/a	20	18	3	8	7
3373095	PROB	n/a	LTP315	ltpFR2	4	n/a	n/a	n/a	20	16	8	7	1
3374445	PROB	n/a	LTP315	ltpFR2	4	n/a	n/a	n/a	20	8	2	4	2
3376033	PROB	n/a	LTP315	ltpFR2	4	n/a	n/a	n/a	20	17	8	7	2
3377565	PROB	n/a	LTP315	ltpFR2	4	n/a	n/a	n/a	20	15	5	6	4
3379300	PROB	n/a	LTP315	ltpFR2	4	n/a	n/a	n/a	20	9	1	6	3
3380803	PROB	n/a	LTP315	ltpFR2	4	n/a	n/a	n/a	20	18	2	7	9
3382569	PROB	n/a	LTP315	ltpFR2	4	n/a	n/a	n/a	20	6	1	1	4
3383687	PROB	n/a	LTP315	ltpFR2	4	n/a	n/a	n/a	20	16	6	7	3
3385371	PROB	n/a	LTP315	ltpFR2	4	n/a	n/a	n/a	20	17	6	7	4
3387306	PROB	n/a	LTP315	ltpFR2	4	n/a	n/a	n/a	20	20	9	5	6
3389144	STOP	n/a	LTP315	ltpFR2	4	n/a	n/a	n/a	20	n/a	n/a	n/a	n/a
3391077	REC_START	n/a	LTP315	ltpFR2	4	13	n/a	n/a	n/a	n/a	0	0	0
3392812	REC_WORD	wordpools/wasnorm_wordpool_576.txt	LTP315	ltpFR2	4	13	ARMY	39	n/a	n/a	0	0	0
3393527	REC_WORD	wordpools/wasnorm_wordpool_576.txt	LTP315	ltpFR2	4	13	MISSILE	900	n/a	n/a	0	0	0
3394704	REC_WORD	wordpools/wasnorm_wordpool_576.txt	LTP315	ltpFR2	4	13	FRIEND	606	n/a	n/a	0	0	0
3396150	REC_WORD	wordpools/wasnorm_wordpool_576.txt	LTP315	ltpFR2	4	13	BROTHER	179	n/a	n/a	0	0	0
3401789	REC_WORD	wordpools/wasnorm_wordpool_576.txt	LTP315	ltpFR2	4	13	ELBOW	520	n/a	n/a	0	0	0
3402868	REC_WORD	wordpools/wasnorm_wordpool_576.txt	LTP315	ltpFR2	4	13	BODY	145	n/a	n/a	0	0	0
3409547	REC_WORD	wordpools/wasnorm_wordpool_576.txt	LTP315	ltpFR2	4	13	ORCHID	982	n/a	n/a	0	0	0
3410353	REC_WORD	wordpools/wasnorm_wordpool_576.txt	LTP315	ltpFR2	4	13	SUNSET	1408	n/a	n/a	0	0	0
3510372	WORD	wordpools/wasnorm_wordpool_576.txt	LTP315	ltpFR2	4	14	PIZZA	1079	n/a	n/a	0	0	0
3512975	WORD	wordpools/wasnorm_wordpool_576.txt	LTP315	ltpFR2	4	14	TOMBSTONE	1478	n/a	n/a	0	0	0
3515544	WORD	wordpools/wasnorm_wordpool_576.txt	LTP315	ltpFR2	4	14	BINDER	127	n/a	n/a	0	0	0
3518262	WORD	wordpools/wasnorm_wordpool_576.txt	LTP315	ltpFR2	4	14	MAILBOX	857	n/a	n/a	0	0	0
3520798	WORD	wordpools/wasnorm_wordpool_576.txt	LTP315	ltpFR2	4	14	TRANSPLANT	1496	n/a	n/a	0	0	0
3523520	WORD	wordpools/wasnorm_wordpool_576.txt	LTP315	ltpFR2	4	14	BEEF	113	n/a	n/a	0	0	0
3526002	WORD	wordpools/wasnorm_wordpool_576.txt	LTP315	ltpFR2	4	14	CRIB	407	n/a	n/a	0	0	0
3528639	WORD	wordpools/wasnorm_wordpool_576.txt	LTP315	ltpFR2	4	14	SUPPER	1411	n/a	n/a	0	0	0
3531323	WORD	wordpools/wasnorm_wordpool_576.txt	LTP315	ltpFR2	4	14	GIFT	635	n/a	n/a	0	0	0
3533930	WORD	wordpools/wasnorm_wordpool_576.txt	LTP315	ltpFR2	4	14	INFANT	737	n/a	n/a	0	0	0
3536678	WORD	wordpools/wasnorm_wordpool_576.txt	LTP315	ltpFR2	4	14	AIRPORT	13	n/a	n/a	0	0	0
3539312	WORD	wordpools/wasnorm_wordpool_576.txt	LTP315	ltpFR2	4	14	CLOUD	328	n/a	n/a	0	0	0
3542098	WORD	wordpools/wasnorm_wordpool_576.txt	LTP315	ltpFR2	4	14	ROBBER	1197	n/a	n/a	0	0	0
3544734	WORD	wordpools/wasnorm_wordpool_576.txt	LTP315	ltpFR2	4	14	MASK	876	n/a	n/a	0	0	0
3547502	WORD	wordpools/wasnorm_wordpool_576.txt	LTP315	ltpFR2	4	14	HEART	697	n/a	n/a	0	0	0
3550071	WORD	wordpools/wasnorm_wordpool_576.txt	LTP315	ltpFR2	4	14	BELLY	119	n/a	n/a	0	0	0
3552562	WORD	wordpools/wasnorm_wordpool_576.txt	LTP315	ltpFR2	4	14	DIVER	476	n/a	n/a	0	0	0
3555292	WORD	wordpools/wasnorm_wordpool_576.txt	LTP315	ltpFR2	4	14	TABLET	1427	n/a	n/a	0	0	0
3557912	WORD	wordpools/wasnorm_wordpool_576.txt	LTP315	ltpFR2	4	14	OYSTER	995	n/a	n/a	0	0	0
3560530	WORD	wordpools/wasnorm_wordpool_576.txt	LTP315	ltpFR2	4	14	STOMACH	1384	n/a	n/a	0	0	0
3563198	WORD	wordpools/wasnorm_wordpool_576.txt	LTP315	ltpFR2	4	14	FLESH	579	n/a	n/a	0	0	0
3565718	WORD	wordpools/wasnorm_wordpool_576.txt	LTP315	ltpFR2	4	14	PUDDING	1139	n/a	n/a	0	0	0
3568425	WORD	wordpools/wasnorm_wordpool_576.txt	LTP315	ltpFR2	4	14	LIZARD	834	n/a	n/a	0	0	0
3571238	WORD	wordpools/wasnorm_wordpool_576.txt	LTP315	ltpFR2	4	14	RATTLE	1170	n/a	n/a	0	0	0
3572847	START	n/a	LTP315	ltpFR2	4	n/a	n/a	n/a	21	n/a	n/a	n/a	n/a
3573876	DISTRACTOR	n/a	LTP315	ltpFR2	4	14	n/a	n/a	n/a	n/a	0	0	0
3573891	PROB	n/a	LTP315	ltpFR2	4	n/a	n/a	n/a	21	18	7	3	8
3575240	PROB	n/a	LTP315	ltpFR2	4	n/a	n/a	n/a	21	13	3	1	9
3577408	PROB	n/a	LTP315	ltpFR2	4	n/a	n/a	n/a	21	6	3	1	2
3579309	PROB	n/a	LTP315	ltpFR2	4	n/a	n/a	n/a	21	18	2	9	7
3581614	PROB	n/a	LTP315	ltpFR2	4	n/a	n/a	n/a	21	19	9	2	8
3583497	PROB	n/a	LTP315	ltpFR2	4	n/a	n/a	n/a	21	12	1	6	5
3585148	PROB	n/a	LTP315	ltpFR2	4	n/a	n/a	n/a	21	9	3	4	2
3587467	PROB	n/a	LTP315	ltpFR2	4	n/a	n/a	n/a	21	8	1	2	5
3588619	PROB	n/a	LTP315	ltpFR2	4	n/a	n/a	n/a	21	7	2	2	3
3590736	PROB	n/a	LTP315	ltpFR2	4	n/a	n/a	n/a	21	26	8	9	9
3593456	PROB	n/a	LTP315	ltpFR2	4	n/a	n/a	n/a	21	12	3	3	6
3595522	STOP	n/a	LTP315	ltpFR2	4	n/a	n/a	n/a	21	n/a	n/a	n/a	n/a
3598744	REC_START	n/a	LTP315	ltpFR2	4	14	n/a	n/a	n/a	n/a	0	0	0
3600375	REC_WORD	wordpools/wasnorm_wordpool_576.txt	LTP315	ltpFR2	4	14	INFANT	737	n/a	n/a	0	0	0
3601313	REC_WORD	wordpools/wasnorm_wordpool_576.txt	LTP315	ltpFR2	4	14	CRIB	407	n/a	n/a	0	0	0
3602591	REC_WORD	wordpools/wasnorm_wordpool_576.txt	LTP315	ltpFR2	4	14	GIFT	635	n/a	n/a	0	0	0
3603772	REC_WORD	wordpools/wasnorm_wordpool_576.txt	LTP315	ltpFR2	4	14	RATTLE	1170	n/a	n/a	0	0	0
3605083	REC_WORD	wordpools/wasnorm_wordpool_576.txt	LTP315	ltpFR2	4	14	PUDDING	1139	n/a	n/a	0	0	0
3606377	REC_WORD	wordpools/wasnorm_wordpool_576.txt	LTP315	ltpFR2	4	14	MAILBOX	857	n/a	n/a	0	0	0
3607664	REC_WORD	wordpools/wasnorm_wordpool_576.txt	LTP315	ltpFR2	4	14	CLOUD	328	n/a	n/a	0	0	0
3608974	REC_WORD	wordpools/wasnorm_wordpool_576.txt	LTP315	ltpFR2	4	14	MASK	876	n/a	n/a	0	0	0
3610301	REC_WORD	wordpools/wasnorm_wordpool_576.txt	LTP315	ltpFR2	4	14	ROBBER	1197	n/a	n/a	0	0	0
3611694	REC_WORD	wordpools/wasnorm_wordpool_576.txt	LTP315	ltpFR2	4	14	PIZZA	1079	n/a	n/a	0	0	0
3613183	REC_WORD	wordpools/wasnorm_wordpool_576.txt	LTP315	ltpFR2	4	14	BEEF	113	n/a	n/a	0	0	0
3614301	REC_WORD	wordpools/wasnorm_wordpool_576.txt	LTP315	ltpFR2	4	14	SUPPER	1411	n/a	n/a	0	0	0
3643912	REC_WORD	wordpools/wasnorm_wordpool_576.txt	LTP315	ltpFR2	4	14	BELLY	119	n/a	n/a	0	0	0
3644777	REC_WORD	wordpools/wasnorm_wordpool_576.txt	LTP315	ltpFR2	4	14	STOMACH	1384	n/a	n/a	0	0	0
3646208	REC_WORD	wordpools/wasnorm_wordpool_576.txt	LTP315	ltpFR2	4	14	FLESH	579	n/a	n/a	0	0	0
3647504	REC_WORD	wordpools/wasnorm_wordpool_576.txt	LTP315	ltpFR2	4	14	OYSTER	995	n/a	n/a	0	0	0
3689199	WORD	wordpools/wasnorm_wordpool_576.txt	LTP315	ltpFR2	4	15	MEDAL	885	n/a	n/a	0	0	0
3691816	WORD	wordpools/wasnorm_wordpool_576.txt	LTP315	ltpFR2	4	15	AWARD	63	n/a	n/a	0	0	0
3694284	WORD	wordpools/wasnorm_wordpool_576.txt	LTP315	ltpFR2	4	15	GREASE	660	n/a	n/a	0	0	0
3696874	WORD	wordpools/wasnorm_wordpool_576.txt	LTP315	ltpFR2	4	15	VALLEY	1545	n/a	n/a	0	0	0
3699607	WORD	wordpools/wasnorm_wordpool_576.txt	LTP315	ltpFR2	4	15	HELMET	702	n/a	n/a	0	0	0
3702374	WORD	wordpools/wasnorm_wordpool_576.txt	LTP315	ltpFR2	4	15	SILK	1307	n/a	n/a	0	0	0
3705011	WORD	wordpools/wasnorm_wordpool_576.txt	LTP315	ltpFR2	4	15	PIMPLE	1071	n/a	n/a	0	0	0
3707498	WORD	wordpools/wasnorm_wordpool_576.txt	LTP315	ltpFR2	4	15	CYCLONE	431	n/a	n/a	0	0	0
3709932	WORD	wordpools/wasnorm_wordpool_576.txt	LTP315	ltpFR2	4	15	PILOT	1070	n/a	n/a	0	0	0
3712751	WORD	wordpools/wasnorm_wordpool_576.txt	LTP315	ltpFR2	4	15	CURTAIN	427	n/a	n/a	0	0	0
3715203	WORD	wordpools/wasnorm_wordpool_576.txt	LTP315	ltpFR2	4	15	ROD	1203	n/a	n/a	0	0	0
3718005	WORD	wordpools/wasnorm_wordpool_576.txt	LTP315	ltpFR2	4	15	SHELF	1280	n/a	n/a	0	0	0
3720725	WORD	wordpools/wasnorm_wordpool_576.txt	LTP315	ltpFR2	4	15	GLOBE	641	n/a	n/a	0	0	0
3723410	WORD	wordpools/wasnorm_wordpool_576.txt	LTP315	ltpFR2	4	15	LAGOON	795	n/a	n/a	0	0	0
3726112	WORD	wordpools/wasnorm_wordpool_576.txt	LTP315	ltpFR2	4	15	SODA	1341	n/a	n/a	0	0	0
3728581	WORD	wordpools/wasnorm_wordpool_576.txt	LTP315	ltpFR2	4	15	ROOSTER	1209	n/a	n/a	0	0	0
3731350	WORD	wordpools/wasnorm_wordpool_576.txt	LTP315	ltpFR2	4	15	STATUE	1374	n/a	n/a	0	0	0
3733903	WORD	wordpools/wasnorm_wordpool_576.txt	LTP315	ltpFR2	4	15	QUAIL	1147	n/a	n/a	0	0	0
3736605	WORD	wordpools/wasnorm_wordpool_576.txt	LTP315	ltpFR2	4	15	BABY	64	n/a	n/a	0	0	0
3739206	WORD	wordpools/wasnorm_wordpool_576.txt	LTP315	ltpFR2	4	15	DASHBOARD	441	n/a	n/a	0	0	0
3741759	WORD	wordpools/wasnorm_wordpool_576.txt	LTP315	ltpFR2	4	15	PARROT	1015	n/a	n/a	0	0	0
3744427	WORD	wordpools/wasnorm_wordpool_576.txt	LTP315	ltpFR2	4	15	TRUCK	1512	n/a	n/a	0	0	0
3747047	WORD	wordpools/wasnorm_wordpool_576.txt	LTP315	ltpFR2	4	15	LAMP	798	n/a	n/a	0	0	0
3749497	WORD	wordpools/wasnorm_wordpool_576.txt	LTP315	ltpFR2	4	15	MATCH	878	n/a	n/a	0	0	0
3751116	START	n/a	LTP315	ltpFR2	4	n/a	n/a	n/a	22	n/a	n/a	n/a	n/a
3752016	DISTRACTOR	n/a	LTP315	ltpFR2	4	15	n/a	n/a	n/a	n/a	0	0	0
3752034	PROB	n/a	LTP315	ltpFR2	4	n/a	n/a	n/a	22	11	1	2	8
3754885	PROB	n/a	LTP315	ltpFR2	4	n/a	n/a	n/a	22	8	1	4	3
3756268	PROB	n/a	LTP315	ltpFR2	4	n/a	n/a	n/a	22	13	4	1	8
3757788	PROB	n/a	LTP315	ltpFR2	4	n/a	n/a	n/a	22	22	8	9	5
3759422	PROB	n/a	LTP315	ltpFR2	4	n/a	n/a	n/a	22	9	2	5	2
3760724	PROB	n/a	LTP315	ltpFR2	4	n/a	n/a	n/a	22	1	3	3	7
3762025	PROB	n/a	LTP315	ltpFR2	4	n/a	n/a	n/a	22	15	8	3	4
3763809	PROB	n/a	LTP315	ltpFR2	4	n/a	n/a	n/a	22	17	4	5	8
3765442	PROB	n/a	LTP315	ltpFR2	4	n/a	n/a	n/a	22	9	4	4	1
3766894	PROB	n/a	LTP315	ltpFR2	4	n/a	n/a	n/a	22	17	7	9	1
3769864	PROB	n/a	LTP315	ltpFR2	4	n/a	n/a	n/a	22	18	9	5	4
3771281	PROB	n/a	LTP315	ltpFR2	4	n/a	n/a	n/a	22	23	5	9	9
3772800	PROB	n/a	LTP315	ltpFR2	4	n/a	n/a	n/a	22	18	7	4	7
3774857	STOP	n/a	LTP315	ltpFR2	4	n/a	n/a	n/a	22	n/a	n/a	n/a	n/a
3776886	REC_START	n/a	LTP315	ltpFR2	4	15	n/a	n/a	n/a	n/a	0	0	0
3778362	REC_WORD	wordpools/wasnorm_wordpool_576.txt	LTP315	ltpFR2	4	15	BABY	64	n/a	n/a	0	0	0
3779542	REC_WORD	wordpools/wasnorm_wordpool_576.txt	LTP315	ltpFR2	4	15	QUAIL	1147	n/a	n/a	0	0	0
3783638	REC_WORD	wordpools/wasnorm_wordpool_576.txt	LTP315	ltpFR2	4	15	PILOT	1070	n/a	n/a	0	0	0
3784682	REC_WORD	wordpools/wasnorm_wordpool_576.txt	LTP315	ltpFR2	4	15	WORLD	1622	n/a	n/a	0	0	0
3785640	REC_WORD	wordpools/wasnorm_wordpool_576.txt	LTP315	ltpFR2	4	15	LAGOON	795	n/a	n/a	0	0	0
3789182	REC_WORD	wordpools/wasnorm_wordpool_576.txt	LTP315	ltpFR2	4	15	AWARD	63	n/a	n/a	0	0	0
3795882	REC_WORD	wordpools/wasnorm_wordpool_576.txt	LTP315	ltpFR2	4	15	SHELF	1280	n/a	n/a	0	0	0
3867309	DISTRACTOR	n/a	LTP315	ltpFR2	4	16	n/a	n/a	n/a	n/a	0	0	0
3867310	START	n/a	LTP315	ltpFR2	4	n/a	n/a	n/a	23	n/a	n/a	n/a	n/a
3867324	PROB	n/a	LTP315	ltpFR2	4	n/a	n/a	n/a	23	17	6	8	3
3869376	PROB	n/a	LTP315	ltpFR2	4	n/a	n/a	n/a	23	13	6	4	3
3870746	PROB	n/a	LTP315	ltpFR2	4	n/a	n/a	n/a	23	7	1	5	1
3872078	PROB	n/a	LTP315	ltpFR2	4	n/a	n/a	n/a	23	14	2	5	7
3874714	PROB	n/a	LTP315	ltpFR2	4	n/a	n/a	n/a	23	17	7	6	4
3876365	PROB	n/a	LTP315	ltpFR2	4	n/a	n/a	n/a	23	22	8	8	6
3880486	PROB	n/a	LTP315	ltpFR2	4	n/a	n/a	n/a	23	19	5	9	5
3881955	PROB	n/a	LTP315	ltpFR2	4	n/a	n/a	n/a	23	16	9	2	5
3883689	PROB	n/a	LTP315	ltpFR2	4	n/a	n/a	n/a	23	10	7	1	2
3886357	PROB	n/a	LTP315	ltpFR2	4	n/a	n/a	n/a	23	8	4	2	2
3888676	PROB	n/a	LTP315	ltpFR2	4	n/a	n/a	n/a	23	9	5	3	1
3890196	STOP	n/a	LTP315	ltpFR2	4	n/a	n/a	n/a	23	n/a	n/a	n/a	n/a
3892474	WORD	wordpools/wasnorm_wordpool_576.txt	LTP315	ltpFR2	4	16	POSSUM	1112	n/a	n/a	0	0	0
3895231	WORD	wordpools/wasnorm_wordpool_576.txt	LTP315	ltpFR2	4	16	REPORT	1184	n/a	n/a	0	0	0
3897979	WORD	wordpools/wasnorm_wordpool_576.txt	LTP315	ltpFR2	4	16	NURSE	963	n/a	n/a	0	0	0
3900770	WORD	wordpools/wasnorm_wordpool_576.txt	LTP315	ltpFR2	4	16	STAPLE	1371	n/a	n/a	0	0	0
3903216	WORD	wordpools/wasnorm_wordpool_576.txt	LTP315	ltpFR2	4	16	TWISTER	1530	n/a	n/a	0	0	0
3905873	WORD	wordpools/wasnorm_wordpool_576.txt	LTP315	ltpFR2	4	16	FINGER	567	n/a	n/a	0	0	0
3908593	WORD	wordpools/wasnorm_wordpool_576.txt	LTP315	ltpFR2	4	16	THIEF	1456	n/a	n/a	0	0	0
3911257	WORD	wordpools/wasnorm_wordpool_576.txt	LTP315	ltpFR2	4	16	CONVICT	371	n/a	n/a	0	0	0
3913693	WORD	wordpools/wasnorm_wordpool_576.txt	LTP315	ltpFR2	4	16	BRIEFCASE	175	n/a	n/a	0	0	0
3916344	WORD	wordpools/wasnorm_wordpool_576.txt	LTP315	ltpFR2	4	16	PISTON	1076	n/a	n/a	0	0	0
3919015	WORD	wordpools/wasnorm_wordpool_576.txt	LTP315	ltpFR2	4	16	PANTHER	1009	n/a	n/a	0	0	0
3921517	WORD	wordpools/wasnorm_wordpool_576.txt	LTP315	ltpFR2	4	16	RUG	1215	n/a	n/a	0	0	0
3924184	WORD	wordpools/wasnorm_wordpool_576.txt	LTP315	ltpFR2	4	16	BUNNY	198	n/a	n/a	0	0	0
3926821	WORD	wordpools/wasnorm_wordpool_576.txt	LTP315	ltpFR2	4	16	WINDOW	1611	n/a	n/a	0	0	0
3929323	WORD	wordpools/wasnorm_wordpool_576.txt	LTP315	ltpFR2	4	16	THRONE	1461	n/a	n/a	0	0	0
3931792	WORD	wordpools/wasnorm_wordpool_576.txt	LTP315	ltpFR2	4	16	PRINCESS	1125	n/a	n/a	0	0	0
3934595	WORD	wordpools/wasnorm_wordpool_576.txt	LTP315	ltpFR2	4	16	BIKE	125	n/a	n/a	0	0	0
3937229	WORD	wordpools/wasnorm_wordpool_576.txt	LTP315	ltpFR2	4	16	GLOVE	642	n/a	n/a	0	0	0
3939783	WORD	wordpools/wasnorm_wordpool_576.txt	LTP315	ltpFR2	4	16	UNCLE	1536	n/a	n/a	0	0	0
3942536	WORD	wordpools/wasnorm_wordpool_576.txt	LTP315	ltpFR2	4	16	PACKAGE	997	n/a	n/a	0	0	0
3944986	WORD	wordpools/wasnorm_wordpool_576.txt	LTP315	ltpFR2	4	16	CITRUS	313	n/a	n/a	0	0	0
3947656	WORD	wordpools/wasnorm_wordpool_576.txt	LTP315	ltpFR2	4	16	VENUS	1557	n/a	n/a	0	0	0
3950240	WORD	wordpools/wasnorm_wordpool_576.txt	LTP315	ltpFR2	4	16	PLUTO	1092	n/a	n/a	0	0	0
3952710	WORD	wordpools/wasnorm_wordpool_576.txt	LTP315	ltpFR2	4	16	STREAM	1392	n/a	n/a	0	0	0
3954328	START	n/a	LTP315	ltpFR2	4	n/a	n/a	n/a	24	n/a	n/a	n/a	n/a
3955395	DISTRACTOR	n/a	LTP315	ltpFR2	4	16	n/a	n/a	n/a	n/a	0	0	0
3955411	PROB	n/a	LTP315	ltpFR2	4	n/a	n/a	n/a	24	13	7	2	4
3956982	PROB	n/a	LTP315	ltpFR2	4	n/a	n/a	n/a	24	8	1	3	4
3958330	PROB	n/a	LTP315	ltpFR2	4	n/a	n/a	n/a	24	12	2	4	6
3959682	PROB	n/a	LTP315	ltpFR2	4	n/a	n/a	n/a	24	16	4	9	3
3961216	PROB	n/a	LTP315	ltpFR2	4	n/a	n/a	n/a	24	12	4	6	2
3962518	PROB	n/a	LTP315	ltpFR2	4	n/a	n/a	n/a	24	16	5	3	8
3965153	PROB	n/a	LTP315	ltpFR2	4	n/a	n/a	n/a	24	22	8	5	9
3967056	PROB	n/a	LTP315	ltpFR2	4	n/a	n/a	n/a	24	19	6	5	8
3968422	PROB	n/a	LTP315	ltpFR2	4	n/a	n/a	n/a	24	17	6	8	3
3970240	PROB	n/a	LTP315	ltpFR2	4	n/a	n/a	n/a	24	15	6	3	6
3972442	PROB	n/a	LTP315	ltpFR2	4	n/a	n/a	n/a	24	12	1	2	9
3973861	PROB	n/a	LTP315	ltpFR2	4	n/a	n/a	n/a	24	15	5	2	7
3975531	PROB	n/a	LTP315	ltpFR2	4	n/a	n/a	n/a	24	17	5	3	9
3977601	STOP	n/a	LTP315	ltpFR2	4	n/a	n/a	n/a	24	n/a	n/a	n/a	n/a
3980232	REC_START	n/a	LTP315	ltpFR2	4	16	n/a	n/a	n/a	n/a	0	0	0
3985156	REC_WORD	wordpools/wasnorm_wordpool_576.txt	LTP315	ltpFR2	4	16	UNCLE	1536	n/a	n/a	0	0	0
3987119	REC_WORD	wordpools/wasnorm_wordpool_576.txt	LTP315	ltpFR2	4	16	STREAM	1392	n/a	n/a	0	0	0
4056762	REST_REWET	n/a	LTP315	ltpFR2	4	16	n/a	n/a	n/a	n/a	0	0	0
4336350	WORD	wordpools/wasnorm_wordpool_576.txt	LTP315	ltpFR2	4	17	SNAKE	1333	n/a	n/a	0	0	0
4339014	WORD	wordpools/wasnorm_wordpool_576.txt	LTP315	ltpFR2	4	17	DENTIST	447	n/a	n/a	0	0	0
4341583	WORD	wordpools/wasnorm_wordpool_576.txt	LTP315	ltpFR2	4	17	OMELET	976	n/a	n/a	0	0	0
4344142	WORD	wordpools/wasnorm_wordpool_576.txt	LTP315	ltpFR2	4	17	PARENT	1013	n/a	n/a	0	0	0
4346837	WORD	wordpools/wasnorm_wordpool_576.txt	LTP315	ltpFR2	4	17	KEEPER	769	n/a	n/a	0	0	0
4349305	WORD	wordpools/wasnorm_wordpool_576.txt	LTP315	ltpFR2	4	17	COFFEE	341	n/a	n/a	0	0	0
4351842	WORD	wordpools/wasnorm_wordpool_576.txt	LTP315	ltpFR2	4	17	SPACE	1345	n/a	n/a	0	0	0
4354359	WORD	wordpools/wasnorm_wordpool_576.txt	LTP315	ltpFR2	4	17	NIGHTGOWN	953	n/a	n/a	0	0	0
4357078	WORD	wordpools/wasnorm_wordpool_576.txt	LTP315	ltpFR2	4	17	PROTON	1132	n/a	n/a	0	0	0
4359798	WORD	wordpools/wasnorm_wordpool_576.txt	LTP315	ltpFR2	4	17	NEUTRON	947	n/a	n/a	0	0	0
4362266	WORD	wordpools/wasnorm_wordpool_576.txt	LTP315	ltpFR2	4	17	GARBAGE	622	n/a	n/a	0	0	0
4364786	WORD	wordpools/wasnorm_wordpool_576.txt	LTP315	ltpFR2	4	17	EGYPT	519	n/a	n/a	0	0	0
4367506	WORD	wordpools/wasnorm_wordpool_576.txt	LTP315	ltpFR2	4	17	PUPIL	1143	n/a	n/a	0	0	0
4369997	WORD	wordpools/wasnorm_wordpool_576.txt	LTP315	ltpFR2	4	17	CHAMPAGNE	278	n/a	n/a	0	0	0
4372665	WORD	wordpools/wasnorm_wordpool_576.txt	LTP315	ltpFR2	4	17	VELVET	1555	n/a	n/a	0	0	0
4375394	WORD	wordpools/wasnorm_wordpool_576.txt	LTP315	ltpFR2	4	17	RABBIT	1152	n/a	n/a	0	0	0
4377836	WORD	wordpools/wasnorm_wordpool_576.txt	LTP315	ltpFR2	4	17	COSTUME	383	n/a	n/a	0	0	0
4380338	WORD	wordpools/wasnorm_wordpool_576.txt	LTP315	ltpFR2	4	17	TRACTOR	1493	n/a	n/a	0	0	0
4382801	WORD	wordpools/wasnorm_wordpool_576.txt	LTP315	ltpFR2	4	17	SKIRT	1319	n/a	n/a	0	0	0
4385353	WORD	wordpools/wasnorm_wordpool_576.txt	LTP315	ltpFR2	4	17	SPOOL	1356	n/a	n/a	0	0	0
4387823	WORD	wordpools/wasnorm_wordpool_576.txt	LTP315	ltpFR2	4	17	DUSTPAN	509	n/a	n/a	0	0	0
4390274	WORD	wordpools/wasnorm_wordpool_576.txt	LTP315	ltpFR2	4	17	SHELTER	1282	n/a	n/a	0	0	0
4393049	WORD	wordpools/wasnorm_wordpool_576.txt	LTP315	ltpFR2	4	17	CAFE	216	n/a	n/a	0	0	0
4395797	WORD	wordpools/wasnorm_wordpool_576.txt	LTP315	ltpFR2	4	17	BRACES	164	n/a	n/a	0	0	0
4397414	START	n/a	LTP315	ltpFR2	4	n/a	n/a	n/a	25	n/a	n/a	n/a	n/a
4398221	DISTRACTOR	n/a	LTP315	ltpFR2	4	17	n/a	n/a	n/a	n/a	0	0	0
4398231	PROB	n/a	LTP315	ltpFR2	4	n/a	n/a	n/a	25	13	6	6	1
4399570	PROB	n/a	LTP315	ltpFR2	4	n/a	n/a	n/a	25	9	1	2	6
4400921	PROB	n/a	LTP315	ltpFR2	4	n/a	n/a	n/a	25	1	1	9	9
4402339	PROB	n/a	LTP315	ltpFR2	4	n/a	n/a	n/a	25	11	8	1	2
4404423	PROB	n/a	LTP315	ltpFR2	4	n/a	n/a	n/a	25	8	3	4	1
4405654	PROB	n/a	LTP315	ltpFR2	4	n/a	n/a	n/a	25	12	3	1	8
4407388	PROB	n/a	LTP315	ltpFR2	4	n/a	n/a	n/a	25	11	2	8	1
4408990	PROB	n/a	LTP315	ltpFR2	4	n/a	n/a	n/a	25	21	7	8	6
4410525	PROB	n/a	LTP315	ltpFR2	4	n/a	n/a	n/a	25	15	1	9	5
4411731	PROB	n/a	LTP315	ltpFR2	4	n/a	n/a	n/a	25	15	2	3	8
4413527	PROB	n/a	LTP315	ltpFR2	4	n/a	n/a	n/a	25	16	7	7	2
4415729	PROB	n/a	LTP315	ltpFR2	4	n/a	n/a	n/a	25	13	3	9	1
4418147	PROB	n/a	LTP315	ltpFR2	4	n/a	n/a	n/a	25	16	3	7	6
4419682	PROB	n/a	LTP315	ltpFR2	4	n/a	n/a	n/a	25	12	2	7	3
4420971	STOP	n/a	LTP315	ltpFR2	4	n/a	n/a	n/a	25	n/a	n/a	n/a	n/a
4423189	REC_START	n/a	LTP315	ltpFR2	4	17	n/a	n/a	n/a	n/a	0	0	0
4425815	REC_WORD	wordpools/wasnorm_wordpool_576.txt	LTP315	ltpFR2	4	17	DUSTPAN	509	n/a	n/a	0	0	0
4426799	REC_WORD	wordpools/wasnorm_wordpool_576.txt	LTP315	ltpFR2	4	17	SHELTER	1282	n/a	n/a	0	0	0
4428125	REC_WORD	wordpools/wasnorm_wordpool_576.txt	LTP315	ltpFR2	4	17	PROTON	1132	n/a	n/a	0	0	0
4429270	REC_WORD	wordpools/wasnorm_wordpool_576.txt	LTP315	ltpFR2	4	17	NEUTRON	947	n/a	n/a	0	0	0
4431490	REC_WORD	wordpools/wasnorm_wordpool_576.txt	LTP315	ltpFR2	4	17	CAFE	216	n/a	n/a	0	0	0
4434497	REC_WORD	wordpools/wasnorm_wordpool_576.txt	LTP315	ltpFR2	4	17	EGYPT	519	n/a	n/a	0	0	0
4435508	REC_WORD	wordpools/wasnorm_wordpool_576.txt	LTP315	ltpFR2	4	17	COSTUME	383	n/a	n/a	0	0	0
4439777	REC_WORD	wordpools/wasnorm_wordpool_576.txt	LTP315	ltpFR2	4	17	SNAKE	1333	n/a	n/a	0	0	0
4441069	REC_WORD	wordpools/wasnorm_wordpool_576.txt	LTP315	ltpFR2	4	17	RABBIT	1152	n/a	n/a	0	0	0
4450248	REC_WORD	wordpools/wasnorm_wordpool_576.txt	LTP315	ltpFR2	4	17	TRACTOR	1493	n/a	n/a	0	0	0
4455746	REC_WORD	wordpools/wasnorm_wordpool_576.txt	LTP315	ltpFR2	4	17	VELVET	1555	n/a	n/a	0	0	0
4513643	WORD	wordpools/wasnorm_wordpool_576.txt	LTP315	ltpFR2	4	18	CEILING	265	n/a	n/a	0	0	0
4516146	WORD	wordpools/wasnorm_wordpool_576.txt	LTP315	ltpFR2	4	18	BEAVER	109	n/a	n/a	0	0	0
4518649	WORD	wordpools/wasnorm_wordpool_576.txt	LTP315	ltpFR2	4	18	REBEL	1172	n/a	n/a	0	0	0
4521272	WORD	wordpools/wasnorm_wordpool_576.txt	LTP315	ltpFR2	4	18	SPARROW	1347	n/a	n/a	0	0	0
4523870	WORD	wordpools/wasnorm_wordpool_576.txt	LTP315	ltpFR2	4	18	SWIMMER	1420	n/a	n/a	0	0	0
4526477	WORD	wordpools/wasnorm_wordpool_576.txt	LTP315	ltpFR2	4	18	AUTHOR	61	n/a	n/a	0	0	0
4529112	WORD	wordpools/wasnorm_wordpool_576.txt	LTP315	ltpFR2	4	18	TILE	1468	n/a	n/a	0	0	0
4531643	WORD	wordpools/wasnorm_wordpool_576.txt	LTP315	ltpFR2	4	18	BOARD	143	n/a	n/a	0	0	0
4534450	WORD	wordpools/wasnorm_wordpool_576.txt	LTP315	ltpFR2	4	18	HAWK	692	n/a	n/a	0	0	0
4536898	WORD	wordpools/wasnorm_wordpool_576.txt	LTP315	ltpFR2	4	18	OUTFIT	988	n/a	n/a	0	0	0
4539639	WORD	wordpools/wasnorm_wordpool_576.txt	LTP315	ltpFR2	4	18	HORNET	718	n/a	n/a	0	0	0
4542301	WORD	wordpools/wasnorm_wordpool_576.txt	LTP315	ltpFR2	4	18	PIGEON	1065	n/a	n/a	0	0	0
4544753	WORD	wordpools/wasnorm_wordpool_576.txt	LTP315	ltpFR2	4	18	LEADER	807	n/a	n/a	0	0	0
4547387	WORD	wordpools/wasnorm_wordpool_576.txt	LTP315	ltpFR2	4	18	FIDDLE	561	n/a	n/a	0	0	0
4549924	WORD	wordpools/wasnorm_wordpool_576.txt	LTP315	ltpFR2	4	18	PENGUIN	1044	n/a	n/a	0	0	0
4552409	WORD	wordpools/wasnorm_wordpool_576.txt	LTP315	ltpFR2	4	18	FOOT	590	n/a	n/a	0	0	0
4555160	WORD	wordpools/wasnorm_wordpool_576.txt	LTP315	ltpFR2	4	18	ARM	38	n/a	n/a	0	0	0
4557955	WORD	wordpools/wasnorm_wordpool_576.txt	LTP315	ltpFR2	4	18	GROUND	666	n/a	n/a	0	0	0
4560398	WORD	wordpools/wasnorm_wordpool_576.txt	LTP315	ltpFR2	4	18	CRITIC	410	n/a	n/a	0	0	0
4563218	WORD	wordpools/wasnorm_wordpool_576.txt	LTP315	ltpFR2	4	18	FILM	565	n/a	n/a	0	0	0
4565921	WORD	wordpools/wasnorm_wordpool_576.txt	LTP315	ltpFR2	4	18	HIKER	708	n/a	n/a	0	0	0
4568564	WORD	wordpools/wasnorm_wordpool_576.txt	LTP315	ltpFR2	4	18	CLAM	315	n/a	n/a	0	0	0
4571257	WORD	wordpools/wasnorm_wordpool_576.txt	LTP315	ltpFR2	4	18	TURTLE	1522	n/a	n/a	0	0	0
4573735	WORD	wordpools/wasnorm_wordpool_576.txt	LTP315	ltpFR2	4	18	WASP	1593	n/a	n/a	0	0	0
4575345	START	n/a	LTP315	ltpFR2	4	n/a	n/a	n/a	26	n/a	n/a	n/a	n/a
4576287	DISTRACTOR	n/a	LTP315	ltpFR2	4	18	n/a	n/a	n/a	n/a	0	0	0
4576294	PROB	n/a	LTP315	ltpFR2	4	n/a	n/a	n/a	26	10	1	3	6
4577746	PROB	n/a	LTP315	ltpFR2	4	n/a	n/a	n/a	26	13	3	2	8
4579279	PROB	n/a	LTP315	ltpFR2	4	n/a	n/a	n/a	26	19	8	2	9
4582064	PROB	n/a	LTP315	ltpFR2	4	n/a	n/a	n/a	26	21	7	5	9
4584082	PROB	n/a	LTP315	ltpFR2	4	n/a	n/a	n/a	26	9	3	1	5
4586435	PROB	n/a	LTP315	ltpFR2	4	n/a	n/a	n/a	26	16	8	6	2
4588587	PROB	n/a	LTP315	ltpFR2	4	n/a	n/a	n/a	26	16	6	1	9
4589906	PROB	n/a	LTP315	ltpFR2	4	n/a	n/a	n/a	26	16	3	3	9
4591589	PROB	n/a	LTP315	ltpFR2	4	n/a	n/a	n/a	26	14	5	7	2
4594059	PROB	n/a	LTP315	ltpFR2	4	n/a	n/a	n/a	26	18	2	8	8
4595643	PROB	n/a	LTP315	ltpFR2	4	n/a	n/a	n/a	26	20	7	4	9
4599345	STOP	n/a	LTP315	ltpFR2	4	n/a	n/a	n/a	26	n/a	n/a	n/a	n/a
4601264	REC_START	n/a	LTP315	ltpFR2	4	18	n/a	n/a	n/a	n/a	0	0	0
4604970	REC_WORD	wordpools/wasnorm_wordpool_576.txt	LTP315	ltpFR2	4	18	TURTLE	1522	n/a	n/a	0	0	0
4606008	REC_WORD	wordpools/wasnorm_wordpool_576.txt	LTP315	ltpFR2	4	18	WASP	1593	n/a	n/a	0	0	0
4608745	REC_WORD	wordpools/wasnorm_wordpool_576.txt	LTP315	ltpFR2	4	18	PENGUIN	1044	n/a	n/a	0	0	0
4609858	REC_WORD	wordpools/wasnorm_wordpool_576.txt	LTP315	ltpFR2	4	18	SPARROW	1347	n/a	n/a	0	0	0
4611253	REC_WORD	wordpools/wasnorm_wordpool_576.txt	LTP315	ltpFR2	4	18	HAWK	692	n/a	n/a	0	0	0
4612711	REC_WORD	wordpools/wasnorm_wordpool_576.txt	LTP315	ltpFR2	4	18	GROUND	666	n/a	n/a	0	0	0
4624880	REC_WORD	wordpools/wasnorm_wordpool_576.txt	LTP315	ltpFR2	4	18	FIDDLE	561	n/a	n/a	0	0	0
4629694	REC_WORD	wordpools/wasnorm_wordpool_576.txt	LTP315	ltpFR2	4	18	TILE	1468	n/a	n/a	0	0	0
4645830	REC_WORD	wordpools/wasnorm_wordpool_576.txt	LTP315	ltpFR2	4	18	FOOT	590	n/a	n/a	0	0	0
4646660	REC_WORD	wordpools/wasnorm_wordpool_576.txt	LTP315	ltpFR2	4	18	ARM	38	n/a	n/a	0	0	0
4691738	DISTRACTOR	n/a	LTP315	ltpFR2	4	19	n/a	n/a	n/a	n/a	0	0	0
4691738	START	n/a	LTP315	ltpFR2	4	n/a	n/a	n/a	27	n/a	n/a	n/a	n/a
4691753	PROB	n/a	LTP315	ltpFR2	4	n/a	n/a	n/a	27	18	5	7	6
4694290	PROB	n/a	LTP315	ltpFR2	4	n/a	n/a	n/a	27	10	4	1	5
4696306	PROB	n/a	LTP315	ltpFR2	4	n/a	n/a	n/a	27	12	3	2	7
4697591	PROB	n/a	LTP315	ltpFR2	4	n/a	n/a	n/a	27	18	7	3	8
4699144	PROB	n/a	LTP315	ltpFR2	4	n/a	n/a	n/a	27	7	1	1	5
4700409	PROB	n/a	LTP315	ltpFR2	4	n/a	n/a	n/a	27	12	4	4	4
4701595	PROB	n/a	LTP315	ltpFR2	4	n/a	n/a	n/a	27	8	2	3	3
4703145	PROB	n/a	LTP315	ltpFR2	4	n/a	n/a	n/a	27	12	4	2	6
4705064	PROB	n/a	LTP315	ltpFR2	4	n/a	n/a	n/a	27	16	3	9	4
4707298	PROB	n/a	LTP315	ltpFR2	4	n/a	n/a	n/a	27	7	2	4	1
4708900	PROB	n/a	LTP315	ltpFR2	4	n/a	n/a	n/a	27	19	9	1	9
4711401	PROB	n/a	LTP315	ltpFR2	4	n/a	n/a	n/a	27	13	2	5	6
4713169	PROB	n/a	LTP315	ltpFR2	4	n/a	n/a	n/a	27	14	9	1	4
4714373	STOP	n/a	LTP315	ltpFR2	4	n/a	n/a	n/a	27	n/a	n/a	n/a	n/a
4716591	WORD	wordpools/wasnorm_wordpool_576.txt	LTP315	ltpFR2	4	19	ORANGE	980	n/a	n/a	0	0	0
4719342	WORD	wordpools/wasnorm_wordpool_576.txt	LTP315	ltpFR2	4	19	BARREL	91	n/a	n/a	0	0	0
4722078	WORD	wordpools/wasnorm_wordpool_576.txt	LTP315	ltpFR2	4	19	SPONGE	1355	n/a	n/a	0	0	0
4724564	WORD	wordpools/wasnorm_wordpool_576.txt	LTP315	ltpFR2	4	19	VAGRANT	1544	n/a	n/a	0	0	0
4727050	WORD	wordpools/wasnorm_wordpool_576.txt	LTP315	ltpFR2	4	19	ATOM	55	n/a	n/a	0	0	0
4729785	WORD	wordpools/wasnorm_wordpool_576.txt	LTP315	ltpFR2	4	19	CANYON	235	n/a	n/a	0	0	0
4732222	WORD	wordpools/wasnorm_wordpool_576.txt	LTP315	ltpFR2	4	19	MOTEL	919	n/a	n/a	0	0	0
4735023	WORD	wordpools/wasnorm_wordpool_576.txt	LTP315	ltpFR2	4	19	GRAPE	654	n/a	n/a	0	0	0
4737741	WORD	wordpools/wasnorm_wordpool_576.txt	LTP315	ltpFR2	4	19	HERO	706	n/a	n/a	0	0	0
4740561	WORD	wordpools/wasnorm_wordpool_576.txt	LTP315	ltpFR2	4	19	PADDLE	1000	n/a	n/a	0	0	0
4743061	WORD	wordpools/wasnorm_wordpool_576.txt	LTP315	ltpFR2	4	19	DONOR	485	n/a	n/a	0	0	0
4745532	WORD	wordpools/wasnorm_wordpool_576.txt	LTP315	ltpFR2	4	19	KIDNEY	776	n/a	n/a	0	0	0
4748253	WORD	wordpools/wasnorm_wordpool_576.txt	LTP315	ltpFR2	4	19	SLUG	1329	n/a	n/a	0	0	0
4750886	WORD	wordpools/wasnorm_wordpool_576.txt	LTP315	ltpFR2	4	19	CANAL	226	n/a	n/a	0	0	0
4753319	WORD	wordpools/wasnorm_wordpool_576.txt	LTP315	ltpFR2	4	19	COUSIN	392	n/a	n/a	0	0	0
4755743	WORD	wordpools/wasnorm_wordpool_576.txt	LTP315	ltpFR2	4	19	PARTNER	1017	n/a	n/a	0	0	0
4758178	WORD	wordpools/wasnorm_wordpool_576.txt	LTP315	ltpFR2	4	19	CHURCH	307	n/a	n/a	0	0	0
4760610	WORD	wordpools/wasnorm_wordpool_576.txt	LTP315	ltpFR2	4	19	FLAG	573	n/a	n/a	0	0	0
4763110	WORD	wordpools/wasnorm_wordpool_576.txt	LTP315	ltpFR2	4	19	FOX	598	n/a	n/a	0	0	0
4765564	WORD	wordpools/wasnorm_wordpool_576.txt	LTP315	ltpFR2	4	19	FLASHLIGHT	575	n/a	n/a	0	0	0
4768248	WORD	wordpools/wasnorm_wordpool_576.txt	LTP315	ltpFR2	4	19	LASER	801	n/a	n/a	0	0	0
4770684	WORD	wordpools/wasnorm_wordpool_576.txt	LTP315	ltpFR2	4	19	MARS	873	n/a	n/a	0	0	0
4773469	WORD	wordpools/wasnorm_wordpool_576.txt	LTP315	ltpFR2	4	19	BUG	187	n/a	n/a	0	0	0
4776005	WORD	wordpools/wasnorm_wordpool_576.txt	LTP315	ltpFR2	4	19	BLADE	134	n/a	n/a	0	0	0
4777614	START	n/a	LTP315	ltpFR2	4	n/a	n/a	n/a	28	n/a	n/a	n/a	n/a
4778538	DISTRACTOR	n/a	LTP315	ltpFR2	4	19	n/a	n/a	n/a	n/a	0	0	0
4778546	PROB	n/a	LTP315	ltpFR2	4	n/a	n/a	n/a	28	16	5	8	3
4780524	PROB	n/a	LTP315	ltpFR2	4	n/a	n/a	n/a	28	8	2	4	2
4782458	PROB	n/a	LTP315	ltpFR2	4	n/a	n/a	n/a	28	12	5	3	4
4784678	PROB	n/a	LTP315	ltpFR2	4	n/a	n/a	n/a	28	8	3	4	1
4785979	PROB	n/a	LTP315	ltpFR2	4	n/a	n/a	n/a	28	16	9	4	3
4787447	PROB	n/a	LTP315	ltpFR2	4	n/a	n/a	n/a	28	10	2	1	7
4789314	PROB	n/a	LTP315	ltpFR2	4	n/a	n/a	n/a	28	7	5	1	1
4790566	PROB	n/a	LTP315	ltpFR2	4	n/a	n/a	n/a	28	18	5	4	9
4791951	PROB	n/a	LTP315	ltpFR2	4	n/a	n/a	n/a	28	16	7	1	8
4793969	PROB	n/a	LTP315	ltpFR2	4	n/a	n/a	n/a	28	13	4	5	4
4795953	PROB	n/a	LTP315	ltpFR2	4	n/a	n/a	n/a	28	8	5	2	1
4797038	PROB	n/a	LTP315	ltpFR2	4	n/a	n/a	n/a	28	14	7	4	3
4798873	PROB	n/a	LTP315	ltpFR2	4	n/a	n/a	n/a	28	12	9	1	2
4800007	PROB	n/a	LTP315	ltpFR2	4	n/a	n/a	n/a	28	13	4	3	6
4801594	STOP	n/a	LTP315	ltpFR2	4	n/a	n/a	n/a	28	n/a	n/a	n/a	n/a
4803461	REC_START	n/a	LTP315	ltpFR2	4	19	n/a	n/a	n/a	n/a	0	0	0
4805191	REC_WORD	wordpools/wasnorm_wordpool_576.txt	LTP315	ltpFR2	4	19	VAGRANT	1544	n/a	n/a	0	0	0
4806332	REC_WORD	wordpools/wasnorm_wordpool_576.txt	LTP315	ltpFR2	4	19	HERO	706	n/a	n/a	0	0	0
4823805	REC_WORD	wordpools/wasnorm_wordpool_576.txt	LTP315	ltpFR2	4	19	SLUG	1329	n/a	n/a	0	0	0
4825240	REC_WORD	wordpools/wasnorm_wordpool_576.txt	LTP315	ltpFR2	4	19	BUG	187	n/a	n/a	0	0	0
4826060	REC_WORD	wordpools/wasnorm_wordpool_576.txt	LTP315	ltpFR2	4	19	CANAL	226	n/a	n/a	0	0	0
4875254	REC_WORD	wordpools/wasnorm_wordpool_576.txt	LTP315	ltpFR2	4	19	COUSIN	392	n/a	n/a	0	0	0
4893884	DISTRACTOR	n/a	LTP315	ltpFR2	4	20	n/a	n/a	n/a	n/a	0	0	0
4893884	START	n/a	LTP315	ltpFR2	4	n/a	n/a	n/a	29	n/a	n/a	n/a	n/a
4893900	PROB	n/a	LTP315	ltpFR2	4	n/a	n/a	n/a	29	12	5	1	6
4895215	PROB	n/a	LTP315	ltpFR2	4	n/a	n/a	n/a	29	21	9	4	8
4897616	PROB	n/a	LTP315	ltpFR2	4	n/a	n/a	n/a	29	19	8	5	6
4899602	PROB	n/a	LTP315	ltpFR2	4	n/a	n/a	n/a	29	17	6	6	5
4901070	PROB	n/a	LTP315	ltpFR2	4	n/a	n/a	n/a	29	14	9	2	3
4902703	PROB	n/a	LTP315	ltpFR2	4	n/a	n/a	n/a	29	18	7	5	6
4904323	PROB	n/a	LTP315	ltpFR2	4	n/a	n/a	n/a	29	10	3	2	5
4906107	PROB	n/a	LTP315	ltpFR2	4	n/a	n/a	n/a	29	19	8	2	9
4907674	PROB	n/a	LTP315	ltpFR2	4	n/a	n/a	n/a	29	7	2	1	4
4908792	PROB	n/a	LTP315	ltpFR2	4	n/a	n/a	n/a	29	26	9	8	9
4912247	PROB	n/a	LTP315	ltpFR2	4	n/a	n/a	n/a	29	22	7	8	7
4914499	PROB	n/a	LTP315	ltpFR2	4	n/a	n/a	n/a	29	18	8	5	5
4915668	PROB	n/a	LTP315	ltpFR2	4	n/a	n/a	n/a	29	26	9	9	8
4917317	STOP	n/a	LTP315	ltpFR2	4	n/a	n/a	n/a	29	n/a	n/a	n/a	n/a
4918886	WORD	wordpools/wasnorm_wordpool_576.txt	LTP315	ltpFR2	4	20	BATHTUB	100	n/a	n/a	0	0	0
4921487	WORD	wordpools/wasnorm_wordpool_576.txt	LTP315	ltpFR2	4	20	ISLAND	745	n/a	n/a	0	0	0
4924273	WORD	wordpools/wasnorm_wordpool_576.txt	LTP315	ltpFR2	4	20	MARSH	874	n/a	n/a	0	0	0
4927026	WORD	wordpools/wasnorm_wordpool_576.txt	LTP315	ltpFR2	4	20	LIPSTICK	829	n/a	n/a	0	0	0
4929712	WORD	wordpools/wasnorm_wordpool_576.txt	LTP315	ltpFR2	4	20	CARROT	249	n/a	n/a	0	0	0
4932430	WORD	wordpools/wasnorm_wordpool_576.txt	LTP315	ltpFR2	4	20	BANK	83	n/a	n/a	0	0	0
4934950	WORD	wordpools/wasnorm_wordpool_576.txt	LTP315	ltpFR2	4	20	LION	827	n/a	n/a	0	0	0
4937401	WORD	wordpools/wasnorm_wordpool_576.txt	LTP315	ltpFR2	4	20	LEOPARD	812	n/a	n/a	0	0	0
4940103	WORD	wordpools/wasnorm_wordpool_576.txt	LTP315	ltpFR2	4	20	BUBBLE	183	n/a	n/a	0	0	0
4942806	WORD	wordpools/wasnorm_wordpool_576.txt	LTP315	ltpFR2	4	20	LUNCH	849	n/a	n/a	0	0	0
4945458	WORD	wordpools/wasnorm_wordpool_576.txt	LTP315	ltpFR2	4	20	STAR	1373	n/a	n/a	0	0	0
4948192	WORD	wordpools/wasnorm_wordpool_576.txt	LTP315	ltpFR2	4	20	PICNIC	1060	n/a	n/a	0	0	0
4951012	WORD	wordpools/wasnorm_wordpool_576.txt	LTP315	ltpFR2	4	20	RAFT	1159	n/a	n/a	0	0	0
4953648	WORD	wordpools/wasnorm_wordpool_576.txt	LTP315	ltpFR2	4	20	CANDY	230	n/a	n/a	0	0	0
4956150	WORD	wordpools/wasnorm_wordpool_576.txt	LTP315	ltpFR2	4	20	HONEY	713	n/a	n/a	0	0	0
4958602	WORD	wordpools/wasnorm_wordpool_576.txt	LTP315	ltpFR2	4	20	PERMIT	1051	n/a	n/a	0	0	0
4961221	WORD	wordpools/wasnorm_wordpool_576.txt	LTP315	ltpFR2	4	20	BULLET	194	n/a	n/a	0	0	0
4963656	WORD	wordpools/wasnorm_wordpool_576.txt	LTP315	ltpFR2	4	20	NAPKIN	937	n/a	n/a	0	0	0
4966458	WORD	wordpools/wasnorm_wordpool_576.txt	LTP315	ltpFR2	4	20	NOTEBOOK	959	n/a	n/a	0	0	0
4968930	WORD	wordpools/wasnorm_wordpool_576.txt	LTP315	ltpFR2	4	20	GANGSTER	620	n/a	n/a	0	0	0
4971680	WORD	wordpools/wasnorm_wordpool_576.txt	LTP315	ltpFR2	4	20	CRAYON	401	n/a	n/a	0	0	0
4974130	WORD	wordpools/wasnorm_wordpool_576.txt	LTP315	ltpFR2	4	20	PIGMENT	1066	n/a	n/a	0	0	0
4976583	WORD	wordpools/wasnorm_wordpool_576.txt	LTP315	ltpFR2	4	20	DIME	466	n/a	n/a	0	0	0
4979334	WORD	wordpools/wasnorm_wordpool_576.txt	LTP315	ltpFR2	4	20	COMET	353	n/a	n/a	0	0	0
4980941	START	n/a	LTP315	ltpFR2	4	n/a	n/a	n/a	30	n/a	n/a	n/a	n/a
4981785	DISTRACTOR	n/a	LTP315	ltpFR2	4	20	n/a	n/a	n/a	n/a	0	0	0
4981791	PROB	n/a	LTP315	ltpFR2	4	n/a	n/a	n/a	30	18	5	6	7
4983573	PROB	n/a	LTP315	ltpFR2	4	n/a	n/a	n/a	30	18	8	1	9
4985421	PROB	n/a	LTP315	ltpFR2	4	n/a	n/a	n/a	30	11	1	5	5
4986891	PROB	n/a	LTP315	ltpFR2	4	n/a	n/a	n/a	30	13	3	6	4
4988842	PROB	n/a	LTP315	ltpFR2	4	n/a	n/a	n/a	30	13	1	7	5
4990326	PROB	n/a	LTP315	ltpFR2	4	n/a	n/a	n/a	30	20	8	4	8
4992260	PROB	n/a	LTP315	ltpFR2	4	n/a	n/a	n/a	30	7	2	4	1
4993963	PROB	n/a	LTP315	ltpFR2	4	n/a	n/a	n/a	30	12	1	6	5
4995480	PROB	n/a	LTP315	ltpFR2	4	n/a	n/a	n/a	30	13	4	2	7
4997465	PROB	n/a	LTP315	ltpFR2	4	n/a	n/a	n/a	30	17	2	6	9
4998933	PROB	n/a	LTP315	ltpFR2	4	n/a	n/a	n/a	30	20	8	5	7
5000535	PROB	n/a	LTP315	ltpFR2	4	n/a	n/a	n/a	30	18	9	5	4
5002435	PROB	n/a	LTP315	ltpFR2	4	n/a	n/a	n/a	30	17	2	9	6
5004329	STOP	n/a	LTP315	ltpFR2	4	n/a	n/a	n/a	30	n/a	n/a	n/a	n/a
5006839	REC_START	n/a	LTP315	ltpFR2	4	20	n/a	n/a	n/a	n/a	0	0	0
5008399	REC_WORD	wordpools/wasnorm_wordpool_576.txt	LTP315	ltpFR2	4	20	BATHTUB	100	n/a	n/a	0	0	0
5009596	REC_WORD	wordpools/wasnorm_wordpool_576.txt	LTP315	ltpFR2	4	20	ISLAND	745	n/a	n/a	0	0	0
5010832	REC_WORD	wordpools/wasnorm_wordpool_576.txt	LTP315	ltpFR2	4	20	BUBBLE	183	n/a	n/a	0	0	0
5012071	REC_WORD	wordpools/wasnorm_wordpool_576.txt	LTP315	ltpFR2	4	20	RAFT	1159	n/a	n/a	0	0	0
5097262	DISTRACTOR	n/a	LTP315	ltpFR2	4	21	n/a	n/a	n/a	n/a	0	0	0
5097263	START	n/a	LTP315	ltpFR2	4	n/a	n/a	n/a	31	n/a	n/a	n/a	n/a
5097279	PROB	n/a	LTP315	ltpFR2	4	n/a	n/a	n/a	31	14	8	2	4
5099047	PROB	n/a	LTP315	ltpFR2	4	n/a	n/a	n/a	31	27	9	9	9
5100948	PROB	n/a	LTP315	ltpFR2	4	n/a	n/a	n/a	31	9	1	1	7
5102366	PROB	n/a	LTP315	ltpFR2	4	n/a	n/a	n/a	31	20	7	6	7
5104602	PROB	n/a	LTP315	ltpFR2	4	n/a	n/a	n/a	31	18	5	9	4
5106335	PROB	n/a	LTP315	ltpFR2	4	n/a	n/a	n/a	31	15	9	5	1
5107854	PROB	n/a	LTP315	ltpFR2	4	n/a	n/a	n/a	31	9	5	3	1
5109304	PROB	n/a	LTP315	ltpFR2	4	n/a	n/a	n/a	31	14	8	4	2
5111023	PROB	n/a	LTP315	ltpFR2	4	n/a	n/a	n/a	31	20	9	9	2
5112709	PROB	n/a	LTP315	ltpFR2	4	n/a	n/a	n/a	31	12	7	2	3
5114109	PROB	n/a	LTP315	ltpFR2	4	n/a	n/a	n/a	31	10	3	6	1
5116878	PROB	n/a	LTP315	ltpFR2	4	n/a	n/a	n/a	31	10	2	5	3
5121263	STOP	n/a	LTP315	ltpFR2	4	n/a	n/a	n/a	31	n/a	n/a	n/a	n/a
5122295	WORD	wordpools/wasnorm_wordpool_576.txt	LTP315	ltpFR2	4	21	VIRUS	1572	n/a	n/a	0	0	0
5125048	WORD	wordpools/wasnorm_wordpool_576.txt	LTP315	ltpFR2	4	21	BACKBONE	66	n/a	n/a	0	0	0
5127633	WORD	wordpools/wasnorm_wordpool_576.txt	LTP315	ltpFR2	4	21	HOOD	714	n/a	n/a	0	0	0
5130386	WORD	wordpools/wasnorm_wordpool_576.txt	LTP315	ltpFR2	4	21	LODGE	839	n/a	n/a	0	0	0
5133091	WORD	wordpools/wasnorm_wordpool_576.txt	LTP315	ltpFR2	4	21	DRAGON	492	n/a	n/a	0	0	0
5135892	WORD	wordpools/wasnorm_wordpool_576.txt	LTP315	ltpFR2	4	21	DRILL	497	n/a	n/a	0	0	0
5138513	WORD	wordpools/wasnorm_wordpool_576.txt	LTP315	ltpFR2	4	21	AIRPLANE	12	n/a	n/a	0	0	0
5141279	WORD	wordpools/wasnorm_wordpool_576.txt	LTP315	ltpFR2	4	21	OZONE	996	n/a	n/a	0	0	0
5143782	WORD	wordpools/wasnorm_wordpool_576.txt	LTP315	ltpFR2	4	21	HIGHWAY	707	n/a	n/a	0	0	0
5146567	WORD	wordpools/wasnorm_wordpool_576.txt	LTP315	ltpFR2	4	21	DAUGHTER	442	n/a	n/a	0	0	0
5149185	WORD	wordpools/wasnorm_wordpool_576.txt	LTP315	ltpFR2	4	21	GIRL	637	n/a	n/a	0	0	0
5152005	WORD	wordpools/wasnorm_wordpool_576.txt	LTP315	ltpFR2	4	21	BEAST	108	n/a	n/a	0	0	0
5154510	WORD	wordpools/wasnorm_wordpool_576.txt	LTP315	ltpFR2	4	21	MARROW	872	n/a	n/a	0	0	0
5157192	WORD	wordpools/wasnorm_wordpool_576.txt	LTP315	ltpFR2	4	21	LUGGAGE	847	n/a	n/a	0	0	0
5159813	WORD	wordpools/wasnorm_wordpool_576.txt	LTP315	ltpFR2	4	21	CRAB	397	n/a	n/a	0	0	0
5162432	WORD	wordpools/wasnorm_wordpool_576.txt	LTP315	ltpFR2	4	21	SEAFOOD	1260	n/a	n/a	0	0	0
5165017	WORD	wordpools/wasnorm_wordpool_576.txt	LTP315	ltpFR2	4	21	SEAGULL	1261	n/a	n/a	0	0	0
5167836	WORD	wordpools/wasnorm_wordpool_576.txt	LTP315	ltpFR2	4	21	GRAVEL	659	n/a	n/a	0	0	0
5170287	WORD	wordpools/wasnorm_wordpool_576.txt	LTP315	ltpFR2	4	21	SCARECROW	1245	n/a	n/a	0	0	0
5173006	WORD	wordpools/wasnorm_wordpool_576.txt	LTP315	ltpFR2	4	21	BRANDY	169	n/a	n/a	0	0	0
5175491	WORD	wordpools/wasnorm_wordpool_576.txt	LTP315	ltpFR2	4	21	SKILLET	1317	n/a	n/a	0	0	0
5177928	WORD	wordpools/wasnorm_wordpool_576.txt	LTP315	ltpFR2	4	21	EAGLE	512	n/a	n/a	0	0	0
5180730	WORD	wordpools/wasnorm_wordpool_576.txt	LTP315	ltpFR2	4	21	SUNRISE	1407	n/a	n/a	0	0	0
5183331	WORD	wordpools/wasnorm_wordpool_576.txt	LTP315	ltpFR2	4	21	RELISH	1183	n/a	n/a	0	0	0
5184952	START	n/a	LTP315	ltpFR2	4	n/a	n/a	n/a	32	n/a	n/a	n/a	n/a
5186125	DISTRACTOR	n/a	LTP315	ltpFR2	4	21	n/a	n/a	n/a	n/a	0	0	0
5186133	PROB	n/a	LTP315	ltpFR2	4	n/a	n/a	n/a	32	14	9	3	2
5187636	PROB	n/a	LTP315	ltpFR2	4	n/a	n/a	n/a	32	16	3	5	8
5189303	PROB	n/a	LTP315	ltpFR2	4	n/a	n/a	n/a	32	14	4	1	9
5190671	PROB	n/a	LTP315	ltpFR2	4	n/a	n/a	n/a	32	11	6	1	4
5192337	PROB	n/a	LTP315	ltpFR2	4	n/a	n/a	n/a	32	7	2	3	2
5193573	PROB	n/a	LTP315	ltpFR2	4	n/a	n/a	n/a	32	14	6	2	6
5195089	PROB	n/a	LTP315	ltpFR2	4	n/a	n/a	n/a	32	12	7	1	4
5196274	PROB	n/a	LTP315	ltpFR2	4	n/a	n/a	n/a	32	13	3	7	3
5198159	PROB	n/a	LTP315	ltpFR2	4	n/a	n/a	n/a	32	12	4	3	5
5199978	PROB	n/a	LTP315	ltpFR2	4	n/a	n/a	n/a	32	8	1	7	1
5201361	PROB	n/a	LTP315	ltpFR2	4	n/a	n/a	n/a	32	10	4	3	3
5203064	PROB	n/a	LTP315	ltpFR2	4	n/a	n/a	n/a	32	18	7	4	7
5204514	PROB	n/a	LTP315	ltpFR2	4	n/a	n/a	n/a	32	20	9	4	7
5206333	PROB	n/a	LTP315	ltpFR2	4	n/a	n/a	n/a	32	16	3	8	5
5208570	STOP	n/a	LTP315	ltpFR2	4	n/a	n/a	n/a	32	n/a	n/a	n/a	n/a
5210789	REC_START	n/a	LTP315	ltpFR2	4	21	n/a	n/a	n/a	n/a	0	0	0
5212029	REC_WORD	wordpools/wasnorm_wordpool_576.txt	LTP315	ltpFR2	4	21	SCARECROW	1245	n/a	n/a	0	0	0
5213193	REC_WORD	wordpools/wasnorm_wordpool_576.txt	LTP315	ltpFR2	4	21	HAWK	692	n/a	n/a	0	0	0
5214147	REC_WORD	wordpools/wasnorm_wordpool_576.txt	LTP315	ltpFR2	4	21	AIRPLANE	12	n/a	n/a	0	0	0
5215333	REC_WORD	wordpools/wasnorm_wordpool_576.txt	LTP315	ltpFR2	4	21	OZONE	996	n/a	n/a	0	0	0
5216143	REC_WORD	wordpools/wasnorm_wordpool_576.txt	LTP315	ltpFR2	4	21	HIGHWAY	707	n/a	n/a	0	0	0
5217913	REC_WORD	wordpools/wasnorm_wordpool_576.txt	LTP315	ltpFR2	4	21	DAUGHTER	442	n/a	n/a	0	0	0
5219051	REC_WORD	wordpools/wasnorm_wordpool_576.txt	LTP315	ltpFR2	4	21	GIRL	637	n/a	n/a	0	0	0
5233905	REC_WORD	wordpools/wasnorm_wordpool_576.txt	LTP315	ltpFR2	4	21	RELISH	1183	n/a	n/a	0	0	0
5301227	DISTRACTOR	n/a	LTP315	ltpFR2	4	22	n/a	n/a	n/a	n/a	0	0	0
5301227	START	n/a	LTP315	ltpFR2	4	n/a	n/a	n/a	33	n/a	n/a	n/a	n/a
5301241	PROB	n/a	LTP315	ltpFR2	4	n/a	n/a	n/a	33	19	7	8	4
5303443	PROB	n/a	LTP315	ltpFR2	4	n/a	n/a	n/a	33	14	5	3	6
5305061	PROB	n/a	LTP315	ltpFR2	4	n/a	n/a	n/a	33	11	2	2	7
5306312	PROB	n/a	LTP315	ltpFR2	4	n/a	n/a	n/a	33	7	3	1	3
5307999	PROB	n/a	LTP315	ltpFR2	4	n/a	n/a	n/a	33	20	9	8	3
5309549	PROB	n/a	LTP315	ltpFR2	4	n/a	n/a	n/a	33	20	3	9	8
5311367	PROB	n/a	LTP315	ltpFR2	4	n/a	n/a	n/a	33	21	6	6	9
5313384	PROB	n/a	LTP315	ltpFR2	4	n/a	n/a	n/a	33	17	5	7	5
5315219	PROB	n/a	LTP315	ltpFR2	4	n/a	n/a	n/a	33	15	7	4	4
5316788	PROB	n/a	LTP315	ltpFR2	4	n/a	n/a	n/a	33	18	3	9	6
5318489	PROB	n/a	LTP315	ltpFR2	4	n/a	n/a	n/a	33	25	8	8	7
5321525	PROB	n/a	LTP315	ltpFR2	4	n/a	n/a	n/a	33	16	3	7	6
5323392	PROB	n/a	LTP315	ltpFR2	4	n/a	n/a	n/a	33	9	4	4	1
5324454	STOP	n/a	LTP315	ltpFR2	4	n/a	n/a	n/a	33	n/a	n/a	n/a	n/a
5326289	WORD	wordpools/wasnorm_wordpool_576.txt	LTP315	ltpFR2	4	22	ANTLER	29	n/a	n/a	0	0	0
5328776	WORD	wordpools/wasnorm_wordpool_576.txt	LTP315	ltpFR2	4	22	COIN	343	n/a	n/a	0	0	0
5331194	WORD	wordpools/wasnorm_wordpool_576.txt	LTP315	ltpFR2	4	22	ACTRESS	6	n/a	n/a	0	0	0
5333898	WORD	wordpools/wasnorm_wordpool_576.txt	LTP315	ltpFR2	4	22	LAVA	804	n/a	n/a	0	0	0
5336416	WORD	wordpools/wasnorm_wordpool_576.txt	LTP315	ltpFR2	4	22	MAILMAN	858	n/a	n/a	0	0	0
5339134	WORD	wordpools/wasnorm_wordpool_576.txt	LTP315	ltpFR2	4	22	BACON	67	n/a	n/a	0	0	0
5341871	WORD	wordpools/wasnorm_wordpool_576.txt	LTP315	ltpFR2	4	22	RACKET	1155	n/a	n/a	0	0	0
5344422	WORD	wordpools/wasnorm_wordpool_576.txt	LTP315	ltpFR2	4	22	CREATURE	403	n/a	n/a	0	0	0
5347014	WORD	wordpools/wasnorm_wordpool_576.txt	LTP315	ltpFR2	4	22	MESSAGE	888	n/a	n/a	0	0	0
5349766	WORD	wordpools/wasnorm_wordpool_576.txt	LTP315	ltpFR2	4	22	SNACK	1331	n/a	n/a	0	0	0
5352296	WORD	wordpools/wasnorm_wordpool_576.txt	LTP315	ltpFR2	4	22	ASIA	46	n/a	n/a	0	0	0
5354982	WORD	wordpools/wasnorm_wordpool_576.txt	LTP315	ltpFR2	4	22	LONDON	843	n/a	n/a	0	0	0
5357556	WORD	wordpools/wasnorm_wordpool_576.txt	LTP315	ltpFR2	4	22	ACTOR	5	n/a	n/a	0	0	0
5360319	WORD	wordpools/wasnorm_wordpool_576.txt	LTP315	ltpFR2	4	22	SLIME	1327	n/a	n/a	0	0	0
5363139	WORD	wordpools/wasnorm_wordpool_576.txt	LTP315	ltpFR2	4	22	BOUQUET	157	n/a	n/a	0	0	0
5365791	WORD	wordpools/wasnorm_wordpool_576.txt	LTP315	ltpFR2	4	22	PLAID	1080	n/a	n/a	0	0	0
5368528	WORD	wordpools/wasnorm_wordpool_576.txt	LTP315	ltpFR2	4	22	BLOUSE	139	n/a	n/a	0	0	0
5371082	WORD	wordpools/wasnorm_wordpool_576.txt	LTP315	ltpFR2	4	22	OUTLAW	989	n/a	n/a	0	0	0
5373899	WORD	wordpools/wasnorm_wordpool_576.txt	LTP315	ltpFR2	4	22	TORTOISE	1486	n/a	n/a	0	0	0
5376366	WORD	wordpools/wasnorm_wordpool_576.txt	LTP315	ltpFR2	4	22	EXPERT	543	n/a	n/a	0	0	0
5378919	WORD	wordpools/wasnorm_wordpool_576.txt	LTP315	ltpFR2	4	22	PECAN	1036	n/a	n/a	0	0	0
5381371	WORD	wordpools/wasnorm_wordpool_576.txt	LTP315	ltpFR2	4	22	STAMP	1370	n/a	n/a	0	0	0
5383890	WORD	wordpools/wasnorm_wordpool_576.txt	LTP315	ltpFR2	4	22	ZIPPER	1636	n/a	n/a	0	0	0
5386626	WORD	wordpools/wasnorm_wordpool_576.txt	LTP315	ltpFR2	4	22	QUARTER	1148	n/a	n/a	0	0	0
5388244	START	n/a	LTP315	ltpFR2	4	n/a	n/a	n/a	34	n/a	n/a	n/a	n/a
5389096	DISTRACTOR	n/a	LTP315	ltpFR2	4	22	n/a	n/a	n/a	n/a	0	0	0
5389110	PROB	n/a	LTP315	ltpFR2	4	n/a	n/a	n/a	34	22	7	8	7
5391314	PROB	n/a	LTP315	ltpFR2	4	n/a	n/a	n/a	34	23	9	8	6
5393667	PROB	n/a	LTP315	ltpFR2	4	n/a	n/a	n/a	34	13	5	6	2
5395235	PROB	n/a	LTP315	ltpFR2	4	n/a	n/a	n/a	34	17	6	7	4
5396953	PROB	n/a	LTP315	ltpFR2	4	n/a	n/a	n/a	34	5	1	2	2
5398086	PROB	n/a	LTP315	ltpFR2	4	n/a	n/a	n/a	34	14	2	3	9
5399556	PROB	n/a	LTP315	ltpFR2	4	n/a	n/a	n/a	34	14	6	3	5
5401574	PROB	n/a	LTP315	ltpFR2	4	n/a	n/a	n/a	34	6	2	1	3
5403859	PROB	n/a	LTP315	ltpFR2	4	n/a	n/a	n/a	34	17	8	7	2
5405176	PROB	n/a	LTP315	ltpFR2	4	n/a	n/a	n/a	34	13	2	7	4
5406978	PROB	n/a	LTP315	ltpFR2	4	n/a	n/a	n/a	34	17	6	6	5
5408746	PROB	n/a	LTP315	ltpFR2	4	n/a	n/a	n/a	34	13	3	3	7
5412244	STOP	n/a	LTP315	ltpFR2	4	n/a	n/a	n/a	34	n/a	n/a	n/a	n/a
5414052	REC_START	n/a	LTP315	ltpFR2	4	22	n/a	n/a	n/a	n/a	0	0	0
5416327	REC_WORD	wordpools/wasnorm_wordpool_576.txt	LTP315	ltpFR2	4	22	ANTLER	29	n/a	n/a	0	0	0
5417281	REC_WORD	wordpools/wasnorm_wordpool_576.txt	LTP315	ltpFR2	4	22	COIN	343	n/a	n/a	0	0	0
5418284	REC_WORD	wordpools/wasnorm_wordpool_576.txt	LTP315	ltpFR2	4	22	ACTRESS	6	n/a	n/a	0	0	0
5419360	REC_WORD	wordpools/wasnorm_wordpool_576.txt	LTP315	ltpFR2	4	22	ACTOR	5	n/a	n/a	0	0	0
5420829	REC_WORD	wordpools/wasnorm_wordpool_576.txt	LTP315	ltpFR2	4	22	BOUQUET	157	n/a	n/a	0	0	0
5422275	REC_WORD	wordpools/wasnorm_wordpool_576.txt	LTP315	ltpFR2	4	22	QUARTER	1148	n/a	n/a	0	0	0
5425788	REC_WORD	wordpools/wasnorm_wordpool_576.txt	LTP315	ltpFR2	4	22	ASIA	46	n/a	n/a	0	0	0
5432633	REC_WORD	wordpools/wasnorm_wordpool_576.txt	LTP315	ltpFR2	4	22	LONDON	843	n/a	n/a	0	0	0
5504487	WORD	wordpools/wasnorm_wordpool_576.txt	LTP315	ltpFR2	4	23	BROOK	177	n/a	n/a	0	0	0
5507075	WORD	wordpools/wasnorm_wordpool_576.txt	LTP315	ltpFR2	4	23	PALACE	1006	n/a	n/a	0	0	0
5509627	WORD	wordpools/wasnorm_wordpool_576.txt	LTP315	ltpFR2	4	23	CABIN	211	n/a	n/a	0	0	0
