onset	duration	trial_type	sample	stim_file	subject	experiment	session	trial	task	item_name	item_num	recog_conf	resp	color_b	color_g	color_r	case	font
241.666	n/a	SESS_START	120833	n/a	LTP073	ltpFR	6	n/a	n/a	n/a	n/a	3	n/a	n/a	n/a	n/a	n/a	n/a
312.32	n/a	WORD	156160	wordpools/wasnorm_wordpool.txt	LTP073	ltpFR	6	1	0	OWL	992	n/a	0	1	0.412841796875	0.57763671875	upper	../fonts/amplitud.ttf
316.36	n/a	WORD	158180	wordpools/wasnorm_wordpool.txt	LTP073	ltpFR	6	1	0	KLEENEX	782	n/a	0	1	0.412841796875	0.57763671875	upper	../fonts/amplitud.ttf
320.542	n/a	WORD	160271	wordpools/wasnorm_wordpool.txt	LTP073	ltpFR	6	1	0	SEA	1259	n/a	1	1	0.412841796875	0.57763671875	upper	../fonts/amplitud.ttf
324.476	n/a	WORD	162238	wordpools/wasnorm_wordpool.txt	LTP073	ltpFR	6	1	0	FAIRY	549	n/a	1	1	0.412841796875	0.57763671875	upper	../fonts/amplitud.ttf
328.576	n/a	WORD	164288	wordpools/wasnorm_wordpool.txt	LTP073	ltpFR	6	1	1	MAGICIAN	854	n/a	1	0	0.5869140625	0.422607421875	lower	../fonts/zerothre.ttf
332.684	n/a	WORD	166342	wordpools/wasnorm_wordpool.txt	LTP073	ltpFR	6	1	1	LOLLIPOP	842	n/a	0	0	0.5869140625	0.422607421875	lower	../fonts/zerothre.ttf
336.86	n/a	WORD	168430	wordpools/wasnorm_wordpool.txt	LTP073	ltpFR	6	1	1	ANT	25	n/a	1	0	0.5869140625	0.422607421875	lower	../fonts/zerothre.ttf
340.684	n/a	WORD	170342	wordpools/wasnorm_wordpool.txt	LTP073	ltpFR	6	1	1	BARLEY	88	n/a	0	0	0.5869140625	0.422607421875	lower	../fonts/zerothre.ttf
344.634	n/a	WORD	172317	wordpools/wasnorm_wordpool.txt	LTP073	ltpFR	6	1	1	HAYSTACK	694	n/a	0	0	0.5869140625	0.422607421875	lower	../fonts/zerothre.ttf
348.534	n/a	WORD	174267	wordpools/wasnorm_wordpool.txt	LTP073	ltpFR	6	1	0	SHRUB	1299	n/a	1	1	0.412841796875	0.57763671875	upper	../fonts/amplitud.ttf
352.592	n/a	WORD	176296	wordpools/wasnorm_wordpool.txt	LTP073	ltpFR	6	1	0	BUG	187	n/a	0	1	0.412841796875	0.57763671875	upper	../fonts/amplitud.ttf
356.608	n/a	WORD	178304	wordpools/wasnorm_wordpool.txt	LTP073	ltpFR	6	1	0	ROACH	1195	n/a	0	1	0.412841796875	0.57763671875	upper	../fonts/amplitud.ttf
360.776	n/a	WORD	180388	wordpools/wasnorm_wordpool.txt	LTP073	ltpFR	6	1	0	DIRT	472	n/a	0	1	0.412841796875	0.57763671875	upper	../fonts/amplitud.ttf
364.7	n/a	WORD	182350	wordpools/wasnorm_wordpool.txt	LTP073	ltpFR	6	1	1	CACTUS	215	n/a	1	0	0.5869140625	0.422607421875	lower	../fonts/zerothre.ttf
368.65	n/a	WORD	184325	wordpools/wasnorm_wordpool.txt	LTP073	ltpFR	6	1	1	CLIMBER	323	n/a	1	0	0.5869140625	0.422607421875	lower	../fonts/zerothre.ttf
372.558	n/a	WORD	186279	wordpools/wasnorm_wordpool.txt	LTP073	ltpFR	6	1	1	MINT	898	n/a	0	0	0.5869140625	0.422607421875	lower	../fonts/zerothre.ttf
378.434	n/a	REC_START	189217	n/a	LTP073	ltpFR	6	1	n/a	n/a	n/a	n/a	n/a	n/a	n/a	n/a	n/a	n/a
379.496	n/a	REC_WORD	189748	wordpools/wasnorm_wordpool.txt	LTP073	ltpFR	6	1	1	MINT	898	n/a	0	n/a	n/a	n/a	n/a	n/a
380.236	n/a	REC_WORD	190118	wordpools/wasnorm_wordpool.txt	LTP073	ltpFR	6	1	1	CACTUS	215	n/a	1	n/a	n/a	n/a	n/a	n/a
381.02	n/a	REC_WORD	190510	wordpools/wasnorm_wordpool.txt	LTP073	ltpFR	6	1	1	CLIMBER	323	n/a	1	n/a	n/a	n/a	n/a	n/a
381.828	n/a	REC_WORD	190914	wordpools/wasnorm_wordpool.txt	LTP073	ltpFR	6	1	0	DIRT	472	n/a	0	n/a	n/a	n/a	n/a	n/a
382.5	n/a	REC_WORD	191250	wordpools/wasnorm_wordpool.txt	LTP073	ltpFR	6	1	0	BUG	187	n/a	0	n/a	n/a	n/a	n/a	n/a
383.19	n/a	REC_WORD	191595	wordpools/wasnorm_wordpool.txt	LTP073	ltpFR	6	1	0	ROACH	1195	n/a	0	n/a	n/a	n/a	n/a	n/a
384.08	n/a	REC_WORD	192040	wordpools/wasnorm_wordpool.txt	LTP073	ltpFR	6	1	1	ANT	25	n/a	1	n/a	n/a	n/a	n/a	n/a
384.934	n/a	REC_WORD	192467	wordpools/wasnorm_wordpool.txt	LTP073	ltpFR	6	1	0	KLEENEX	782	n/a	0	n/a	n/a	n/a	n/a	n/a
385.754	n/a	REC_WORD	192877	wordpools/wasnorm_wordpool.txt	LTP073	ltpFR	6	1	0	SEA	1259	n/a	1	n/a	n/a	n/a	n/a	n/a
386.828	n/a	REC_WORD	193414	wordpools/wasnorm_wordpool.txt	LTP073	ltpFR	6	1	0	FAIRY	549	n/a	1	n/a	n/a	n/a	n/a	n/a
387.586	n/a	REC_WORD	193793	wordpools/wasnorm_wordpool.txt	LTP073	ltpFR	6	1	1	MAGICIAN	854	n/a	1	n/a	n/a	n/a	n/a	n/a
390.596	n/a	REC_WORD	195298	wordpools/wasnorm_wordpool.txt	LTP073	ltpFR	6	1	0	SHRUB	1299	n/a	1	n/a	n/a	n/a	n/a	n/a
392.622	n/a	REC_WORD	196311	wordpools/wasnorm_wordpool.txt	LTP073	ltpFR	6	1	0	OWL	992	n/a	0	n/a	n/a	n/a	n/a	n/a
394.992	n/a	REC_WORD_VV	197496	wordpools/wasnorm_wordpool.txt	LTP073	ltpFR	6	1	n/a	<>	-1	n/a	n/a	n/a	n/a	n/a	n/a	n/a
395.992	n/a	REC_WORD_VV	197996	wordpools/wasnorm_wordpool.txt	LTP073	ltpFR	6	1	n/a	<>	-1	n/a	n/a	n/a	n/a	n/a	n/a	n/a
396.992	n/a	REC_WORD_VV	198496	wordpools/wasnorm_wordpool.txt	LTP073	ltpFR	6	1	n/a	<>	-1	n/a	n/a	n/a	n/a	n/a	n/a	n/a
457.982	n/a	WORD	228991	wordpools/wasnorm_wordpool.txt	LTP073	ltpFR	6	2	1	CLOSET	326	n/a	0	0	0.5869140625	0.422607421875	lower	../fonts/zerothre.ttf
461.906	n/a	WORD	230953	wordpools/wasnorm_wordpool.txt	LTP073	ltpFR	6	2	1	SHIRT	1287	n/a	0	0	0.5869140625	0.422607421875	lower	../fonts/zerothre.ttf
465.78	n/a	WORD	232890	wordpools/wasnorm_wordpool.txt	LTP073	ltpFR	6	2	0	FARMER	553	n/a	1	1	0.412841796875	0.57763671875	upper	../fonts/amplitud.ttf
469.838	n/a	WORD	234919	wordpools/wasnorm_wordpool.txt	LTP073	ltpFR	6	2	0	BEAN	105	n/a	0	1	0.412841796875	0.57763671875	upper	../fonts/amplitud.ttf
473.788	n/a	WORD	236894	wordpools/wasnorm_wordpool.txt	LTP073	ltpFR	6	2	1	STOVE	1388	n/a	0	0	0.5869140625	0.422607421875	lower	../fonts/zerothre.ttf
477.814	n/a	WORD	238907	wordpools/wasnorm_wordpool.txt	LTP073	ltpFR	6	2	1	OVEN	991	n/a	0	0	0.5869140625	0.422607421875	lower	../fonts/zerothre.ttf
481.706	n/a	WORD	240853	wordpools/wasnorm_wordpool.txt	LTP073	ltpFR	6	2	1	MILITARY	894	n/a	0	0	0.5869140625	0.422607421875	lower	../fonts/zerothre.ttf
485.888	n/a	WORD	242944	wordpools/wasnorm_wordpool.txt	LTP073	ltpFR	6	2	1	BUFFALO	186	n/a	1	0	0.5869140625	0.422607421875	lower	../fonts/zerothre.ttf
489.73	n/a	WORD	244865	wordpools/wasnorm_wordpool.txt	LTP073	ltpFR	6	2	0	STEREO	1378	n/a	0	1	0.412841796875	0.57763671875	upper	../fonts/amplitud.ttf
493.88	n/a	WORD	246940	wordpools/wasnorm_wordpool.txt	LTP073	ltpFR	6	2	0	EDITOR	516	n/a	1	1	0.412841796875	0.57763671875	upper	../fonts/amplitud.ttf
497.83	n/a	WORD	248915	wordpools/wasnorm_wordpool.txt	LTP073	ltpFR	6	2	0	BULLET	194	n/a	0	1	0.412841796875	0.57763671875	upper	../fonts/amplitud.ttf
501.764	n/a	WORD	250882	wordpools/wasnorm_wordpool.txt	LTP073	ltpFR	6	2	0	AIRCRAFT	11	n/a	1	1	0.412841796875	0.57763671875	upper	../fonts/amplitud.ttf
505.654	n/a	WORD	252827	wordpools/wasnorm_wordpool.txt	LTP073	ltpFR	6	2	0	PALM	1007	n/a	0	1	0.412841796875	0.57763671875	upper	../fonts/amplitud.ttf
509.712	n/a	WORD	254856	wordpools/wasnorm_wordpool.txt	LTP073	ltpFR	6	2	0	BANNER	85	n/a	1	1	0.412841796875	0.57763671875	upper	../fonts/amplitud.ttf
513.588	n/a	WORD	256794	wordpools/wasnorm_wordpool.txt	LTP073	ltpFR	6	2	1	KEYBOARD	774	n/a	0	0	0.5869140625	0.422607421875	lower	../fonts/zerothre.ttf
517.396	n/a	WORD	258698	wordpools/wasnorm_wordpool.txt	LTP073	ltpFR	6	2	1	OTTER	986	n/a	1	0	0.5869140625	0.422607421875	lower	../fonts/zerothre.ttf
523.198	n/a	REC_START	261599	n/a	LTP073	ltpFR	6	2	n/a	n/a	n/a	n/a	n/a	n/a	n/a	n/a	n/a	n/a
523.828	n/a	REC_WORD	261914	wordpools/wasnorm_wordpool.txt	LTP073	ltpFR	6	2	1	KEYBOARD	774	n/a	0	n/a	n/a	n/a	n/a	n/a
524.684	n/a	REC_WORD	262342	wordpools/wasnorm_wordpool.txt	LTP073	ltpFR	6	2	1	OTTER	986	n/a	1	n/a	n/a	n/a	n/a	n/a
525.606	n/a	REC_WORD	262803	wordpools/wasnorm_wordpool.txt	LTP073	ltpFR	6	2	0	PALM	1007	n/a	0	n/a	n/a	n/a	n/a	n/a
526.552	n/a	REC_WORD	263276	wordpools/wasnorm_wordpool.txt	LTP073	ltpFR	6	2	0	BANNER	85	n/a	1	n/a	n/a	n/a	n/a	n/a
528.13	n/a	REC_WORD	264065	wordpools/wasnorm_wordpool.txt	LTP073	ltpFR	6	2	1	MILITARY	894	n/a	0	n/a	n/a	n/a	n/a	n/a
530.852	n/a	REC_WORD	265426	wordpools/wasnorm_wordpool.txt	LTP073	ltpFR	6	2	n/a	PLANE	1081	n/a	n/a	n/a	n/a	n/a	n/a	n/a
532.714	n/a	REC_WORD_VV	266357	wordpools/wasnorm_wordpool.txt	LTP073	ltpFR	6	2	n/a	<>	-1	n/a	n/a	n/a	n/a	n/a	n/a	n/a
533.552	n/a	REC_WORD	266776	wordpools/wasnorm_wordpool.txt	LTP073	ltpFR	6	2	1	STOVE	1388	n/a	0	n/a	n/a	n/a	n/a	n/a
534.414	n/a	REC_WORD	267207	wordpools/wasnorm_wordpool.txt	LTP073	ltpFR	6	2	1	OVEN	991	n/a	0	n/a	n/a	n/a	n/a	n/a
535.002	n/a	REC_WORD	267501	wordpools/wasnorm_wordpool.txt	LTP073	ltpFR	6	2	0	FARMER	553	n/a	1	n/a	n/a	n/a	n/a	n/a
535.868	n/a	REC_WORD	267934	wordpools/wasnorm_wordpool.txt	LTP073	ltpFR	6	2	0	BEAN	105	n/a	0	n/a	n/a	n/a	n/a	n/a
536.66	n/a	REC_WORD	268330	wordpools/wasnorm_wordpool.txt	LTP073	ltpFR	6	2	1	BUFFALO	186	n/a	1	n/a	n/a	n/a	n/a	n/a
537.98	n/a	REC_WORD	268990	wordpools/wasnorm_wordpool.txt	LTP073	ltpFR	6	2	1	SHIRT	1287	n/a	0	n/a	n/a	n/a	n/a	n/a
538.814	n/a	REC_WORD	269407	wordpools/wasnorm_wordpool.txt	LTP073	ltpFR	6	2	1	CLOSET	326	n/a	0	n/a	n/a	n/a	n/a	n/a
552.68	n/a	REC_WORD	276340	wordpools/wasnorm_wordpool.txt	LTP073	ltpFR	6	2	0	STEREO	1378	n/a	0	n/a	n/a	n/a	n/a	n/a
555.952	n/a	REC_WORD_VV	277976	wordpools/wasnorm_wordpool.txt	LTP073	ltpFR	6	2	n/a	<>	-1	n/a	n/a	n/a	n/a	n/a	n/a	n/a
556.952	n/a	REC_WORD_VV	278476	wordpools/wasnorm_wordpool.txt	LTP073	ltpFR	6	2	n/a	<>	-1	n/a	n/a	n/a	n/a	n/a	n/a	n/a
618.676	n/a	WORD	309338	wordpools/wasnorm_wordpool.txt	LTP073	ltpFR	6	3	0	COW	393	n/a	1	1	0.412841796875	0.57763671875	upper	../fonts/amplitud.ttf
622.726	n/a	WORD	311363	wordpools/wasnorm_wordpool.txt	LTP073	ltpFR	6	3	0	BODY	145	n/a	1	1	0.412841796875	0.57763671875	upper	../fonts/amplitud.ttf
626.752	n/a	WORD	313376	wordpools/wasnorm_wordpool.txt	LTP073	ltpFR	6	3	0	BREAD	170	n/a	0	1	0.412841796875	0.57763671875	upper	../fonts/amplitud.ttf
630.81	n/a	WORD	315405	wordpools/wasnorm_wordpool.txt	LTP073	ltpFR	6	3	0	JAR	750	n/a	0	1	0.412841796875	0.57763671875	upper	../fonts/amplitud.ttf
634.81	n/a	WORD	317405	wordpools/wasnorm_wordpool.txt	LTP073	ltpFR	6	3	1	QUAIL	1147	n/a	1	0	0.5869140625	0.422607421875	lower	../fonts/zerothre.ttf
638.692	n/a	WORD	319346	wordpools/wasnorm_wordpool.txt	LTP073	ltpFR	6	3	1	COOKBOOK	373	n/a	0	0	0.5869140625	0.422607421875	lower	../fonts/zerothre.ttf
642.542	n/a	WORD	321271	wordpools/wasnorm_wordpool.txt	LTP073	ltpFR	6	3	1	WAITER	1580	n/a	1	0	0.5869140625	0.422607421875	lower	../fonts/zerothre.ttf
646.584	n/a	WORD	323292	wordpools/wasnorm_wordpool.txt	LTP073	ltpFR	6	3	1	SERGEANT	1269	n/a	1	0	0.5869140625	0.422607421875	lower	../fonts/zerothre.ttf
650.476	n/a	WORD	325238	wordpools/wasnorm_wordpool.txt	LTP073	ltpFR	6	3	1	SOLDIER	1344	n/a	1	0	0.5869140625	0.422607421875	lower	../fonts/zerothre.ttf
654.55	n/a	WORD	327275	wordpools/wasnorm_wordpool.txt	LTP073	ltpFR	6	3	1	ACORN	3	n/a	0	0	0.5869140625	0.422607421875	lower	../fonts/zerothre.ttf
658.558	n/a	WORD	329279	wordpools/wasnorm_wordpool.txt	LTP073	ltpFR	6	3	0	PISTON	1076	n/a	1	1	0.412841796875	0.57763671875	upper	../fonts/amplitud.ttf
662.75	n/a	WORD	331375	wordpools/wasnorm_wordpool.txt	LTP073	ltpFR	6	3	0	STETHOSCOPE	1379	n/a	0	1	0.412841796875	0.57763671875	upper	../fonts/amplitud.ttf
666.708	n/a	WORD	333354	wordpools/wasnorm_wordpool.txt	LTP073	ltpFR	6	3	0	PELICAN	1039	n/a	1	1	0.412841796875	0.57763671875	upper	../fonts/amplitud.ttf
670.876	n/a	WORD	335438	wordpools/wasnorm_wordpool.txt	LTP073	ltpFR	6	3	0	SHOVEL	1295	n/a	1	1	0.412841796875	0.57763671875	upper	../fonts/amplitud.ttf
675.052	n/a	WORD	337526	wordpools/wasnorm_wordpool.txt	LTP073	ltpFR	6	3	1	SKELETON	1314	n/a	0	0	0.5869140625	0.422607421875	lower	../fonts/zerothre.ttf
679.168	n/a	WORD	339584	wordpools/wasnorm_wordpool.txt	LTP073	ltpFR	6	3	1	PROFESSIONAL	1130	n/a	1	0	0.5869140625	0.422607421875	lower	../fonts/zerothre.ttf
684.826	n/a	REC_START	342413	n/a	LTP073	ltpFR	6	3	n/a	n/a	n/a	n/a	n/a	n/a	n/a	n/a	n/a	n/a
685.914	n/a	REC_WORD	342957	wordpools/wasnorm_wordpool.txt	LTP073	ltpFR	6	3	1	SKELETON	1314	n/a	0	n/a	n/a	n/a	n/a	n/a
687.116	n/a	REC_WORD	343558	wordpools/wasnorm_wordpool.txt	LTP073	ltpFR	6	3	1	PROFESSIONAL	1130	n/a	1	n/a	n/a	n/a	n/a	n/a
689.626	n/a	REC_WORD	344813	wordpools/wasnorm_wordpool.txt	LTP073	ltpFR	6	3	0	BODY	145	n/a	1	n/a	n/a	n/a	n/a	n/a
691.77	n/a	REC_WORD	345885	wordpools/wasnorm_wordpool.txt	LTP073	ltpFR	6	3	0	COW	393	n/a	1	n/a	n/a	n/a	n/a	n/a
692.712	n/a	REC_WORD	346356	wordpools/wasnorm_wordpool.txt	LTP073	ltpFR	6	3	1	QUAIL	1147	n/a	1	n/a	n/a	n/a	n/a	n/a
693.848	n/a	REC_WORD	346924	wordpools/wasnorm_wordpool.txt	LTP073	ltpFR	6	3	0	BREAD	170	n/a	0	n/a	n/a	n/a	n/a	n/a
694.932	n/a	REC_WORD	347466	wordpools/wasnorm_wordpool.txt	LTP073	ltpFR	6	3	1	WAITER	1580	n/a	1	n/a	n/a	n/a	n/a	n/a
696.188	n/a	REC_WORD	348094	wordpools/wasnorm_wordpool.txt	LTP073	ltpFR	6	3	1	SOLDIER	1344	n/a	1	n/a	n/a	n/a	n/a	n/a
697.118	n/a	REC_WORD	348559	wordpools/wasnorm_wordpool.txt	LTP073	ltpFR	6	3	1	SERGEANT	1269	n/a	1	n/a	n/a	n/a	n/a	n/a
699.326	n/a	REC_WORD_VV	349663	wordpools/wasnorm_wordpool.txt	LTP073	ltpFR	6	3	n/a	<>	-1	n/a	n/a	n/a	n/a	n/a	n/a	n/a
763.29	n/a	WORD	381645	wordpools/wasnorm_wordpool.txt	LTP073	ltpFR	6	4	1	DOVE	491	n/a	1	0	0.5869140625	0.422607421875	lower	../fonts/zerothre.ttf
767.174	n/a	WORD	383587	wordpools/wasnorm_wordpool.txt	LTP073	ltpFR	6	4	1	CHAIRPERSON	275	n/a	1	0	0.5869140625	0.422607421875	lower	../fonts/zerothre.ttf
771.348	n/a	WORD	385674	wordpools/wasnorm_wordpool.txt	LTP073	ltpFR	6	4	1	BUSH	202	n/a	0	0	0.5869140625	0.422607421875	lower	../fonts/zerothre.ttf
775.366	n/a	WORD	387683	wordpools/wasnorm_wordpool.txt	LTP073	ltpFR	6	4	1	BALLERINA	74	n/a	1	0	0.5869140625	0.422607421875	lower	../fonts/zerothre.ttf
779.498	n/a	WORD	389749	wordpools/wasnorm_wordpool.txt	LTP073	ltpFR	6	4	1	OATS	968	n/a	0	0	0.5869140625	0.422607421875	lower	../fonts/zerothre.ttf
783.664	n/a	WORD	391832	wordpools/wasnorm_wordpool.txt	LTP073	ltpFR	6	4	1	MAN	862	n/a	1	0	0.5869140625	0.422607421875	lower	../fonts/zerothre.ttf
787.472	n/a	WORD	393736	wordpools/wasnorm_wordpool.txt	LTP073	ltpFR	6	4	1	DEPUTY	450	n/a	1	0	0.5869140625	0.422607421875	lower	../fonts/zerothre.ttf
791.382	n/a	WORD	395691	wordpools/wasnorm_wordpool.txt	LTP073	ltpFR	6	4	1	HANDCUFFS	685	n/a	0	0	0.5869140625	0.422607421875	lower	../fonts/zerothre.ttf
795.556	n/a	WORD	397778	wordpools/wasnorm_wordpool.txt	LTP073	ltpFR	6	4	1	PEANUT	1032	n/a	0	0	0.5869140625	0.422607421875	lower	../fonts/zerothre.ttf
799.374	n/a	WORD	399687	wordpools/wasnorm_wordpool.txt	LTP073	ltpFR	6	4	1	CORPORATION	382	n/a	0	0	0.5869140625	0.422607421875	lower	../fonts/zerothre.ttf
803.414	n/a	WORD	401707	wordpools/wasnorm_wordpool.txt	LTP073	ltpFR	6	4	1	NUCLEUS	961	n/a	1	0	0.5869140625	0.422607421875	lower	../fonts/zerothre.ttf
807.33	n/a	WORD	403665	wordpools/wasnorm_wordpool.txt	LTP073	ltpFR	6	4	1	CABINET	212	n/a	0	0	0.5869140625	0.422607421875	lower	../fonts/zerothre.ttf
811.464	n/a	WORD	405732	wordpools/wasnorm_wordpool.txt	LTP073	ltpFR	6	4	1	DOOR	486	n/a	0	0	0.5869140625	0.422607421875	lower	../fonts/zerothre.ttf
815.472	n/a	WORD	407736	wordpools/wasnorm_wordpool.txt	LTP073	ltpFR	6	4	1	PENGUIN	1044	n/a	1	0	0.5869140625	0.422607421875	lower	../fonts/zerothre.ttf
819.306	n/a	WORD	409653	wordpools/wasnorm_wordpool.txt	LTP073	ltpFR	6	4	1	MUFFIN	929	n/a	0	0	0.5869140625	0.422607421875	lower	../fonts/zerothre.ttf
823.18	n/a	WORD	411590	wordpools/wasnorm_wordpool.txt	LTP073	ltpFR	6	4	1	ATTORNEY	58	n/a	1	0	0.5869140625	0.422607421875	lower	../fonts/zerothre.ttf
828.938	n/a	REC_START	414469	n/a	LTP073	ltpFR	6	4	n/a	n/a	n/a	n/a	n/a	n/a	n/a	n/a	n/a	n/a
830.104	n/a	REC_WORD	415052	wordpools/wasnorm_wordpool.txt	LTP073	ltpFR	6	4	1	DOVE	491	n/a	1	n/a	n/a	n/a	n/a	n/a
830.938	n/a	REC_WORD	415469	wordpools/wasnorm_wordpool.txt	LTP073	ltpFR	6	4	1	PENGUIN	1044	n/a	1	n/a	n/a	n/a	n/a	n/a
832.246	n/a	REC_WORD	416123	wordpools/wasnorm_wordpool.txt	LTP073	ltpFR	6	4	1	ATTORNEY	58	n/a	1	n/a	n/a	n/a	n/a	n/a
833.108	n/a	REC_WORD	416554	wordpools/wasnorm_wordpool.txt	LTP073	ltpFR	6	4	1	CHAIRPERSON	275	n/a	1	n/a	n/a	n/a	n/a	n/a
834.526	n/a	REC_WORD	417263	wordpools/wasnorm_wordpool.txt	LTP073	ltpFR	6	4	1	CORPORATION	382	n/a	0	n/a	n/a	n/a	n/a	n/a
836.016	n/a	REC_WORD	418008	wordpools/wasnorm_wordpool.txt	LTP073	ltpFR	6	4	1	MAN	862	n/a	1	n/a	n/a	n/a	n/a	n/a
837.5	n/a	REC_WORD	418750	wordpools/wasnorm_wordpool.txt	LTP073	ltpFR	6	4	1	BALLERINA	74	n/a	1	n/a	n/a	n/a	n/a	n/a
839.352	n/a	REC_WORD	419676	wordpools/wasnorm_wordpool.txt	LTP073	ltpFR	6	4	1	PEANUT	1032	n/a	0	n/a	n/a	n/a	n/a	n/a
840.222	n/a	REC_WORD	420111	wordpools/wasnorm_wordpool.txt	LTP073	ltpFR	6	4	1	OATS	968	n/a	0	n/a	n/a	n/a	n/a	n/a
841.154	n/a	REC_WORD	420577	wordpools/wasnorm_wordpool.txt	LTP073	ltpFR	6	4	1	BUSH	202	n/a	0	n/a	n/a	n/a	n/a	n/a
843.204	n/a	REC_WORD_VV	421602	wordpools/wasnorm_wordpool.txt	LTP073	ltpFR	6	4	n/a	<>	-1	n/a	n/a	n/a	n/a	n/a	n/a	n/a
848.258	n/a	REC_WORD	424129	wordpools/wasnorm_wordpool.txt	LTP073	ltpFR	6	4	1	CABINET	212	n/a	0	n/a	n/a	n/a	n/a	n/a
853.392	n/a	REC_WORD	426696	wordpools/wasnorm_wordpool.txt	LTP073	ltpFR	6	4	1	DOOR	486	n/a	0	n/a	n/a	n/a	n/a	n/a
859.374	n/a	REC_WORD	429687	wordpools/wasnorm_wordpool.txt	LTP073	ltpFR	6	4	1	ACORN	3	n/a	0	n/a	n/a	n/a	n/a	n/a
919.252	n/a	WORD	459626	wordpools/wasnorm_wordpool.txt	LTP073	ltpFR	6	5	0	SKIN	1318	n/a	0	1	0.412841796875	0.57763671875	upper	../fonts/amplitud.ttf
923.37	n/a	WORD	461685	wordpools/wasnorm_wordpool.txt	LTP073	ltpFR	6	5	0	LOUNGE	845	n/a	1	1	0.412841796875	0.57763671875	upper	../fonts/amplitud.ttf
927.56	n/a	WORD	463780	wordpools/wasnorm_wordpool.txt	LTP073	ltpFR	6	5	0	PROTRACTOR	1133	n/a	1	1	0.412841796875	0.57763671875	upper	../fonts/amplitud.ttf
931.644	n/a	WORD	465822	wordpools/wasnorm_wordpool.txt	LTP073	ltpFR	6	5	0	OFFICE	972	n/a	1	1	0.412841796875	0.57763671875	upper	../fonts/amplitud.ttf
935.81	n/a	WORD	467905	wordpools/wasnorm_wordpool.txt	LTP073	ltpFR	6	5	0	EMPLOYEE	531	n/a	1	1	0.412841796875	0.57763671875	upper	../fonts/amplitud.ttf
940.002	n/a	WORD	470001	wordpools/wasnorm_wordpool.txt	LTP073	ltpFR	6	5	0	WARRIOR	1589	n/a	1	1	0.412841796875	0.57763671875	upper	../fonts/amplitud.ttf
943.868	n/a	WORD	471934	wordpools/wasnorm_wordpool.txt	LTP073	ltpFR	6	5	0	CHAIR	274	n/a	1	1	0.412841796875	0.57763671875	upper	../fonts/amplitud.ttf
947.918	n/a	WORD	473959	wordpools/wasnorm_wordpool.txt	LTP073	ltpFR	6	5	0	MAP	865	n/a	0	1	0.412841796875	0.57763671875	upper	../fonts/amplitud.ttf
952.128	n/a	WORD	476064	wordpools/wasnorm_wordpool.txt	LTP073	ltpFR	6	5	0	BEGGAR	117	n/a	1	1	0.412841796875	0.57763671875	upper	../fonts/amplitud.ttf
956.186	n/a	WORD	478093	wordpools/wasnorm_wordpool.txt	LTP073	ltpFR	6	5	0	BEARD	107	n/a	0	1	0.412841796875	0.57763671875	upper	../fonts/amplitud.ttf
960.268	n/a	WORD	480134	wordpools/wasnorm_wordpool.txt	LTP073	ltpFR	6	5	0	SANDPAPER	1231	n/a	0	1	0.412841796875	0.57763671875	upper	../fonts/amplitud.ttf
964.402	n/a	WORD	482201	wordpools/wasnorm_wordpool.txt	LTP073	ltpFR	6	5	0	SHED	1277	n/a	1	1	0.412841796875	0.57763671875	upper	../fonts/amplitud.ttf
968.402	n/a	WORD	484201	wordpools/wasnorm_wordpool.txt	LTP073	ltpFR	6	5	0	HAMPER	682	n/a	1	1	0.412841796875	0.57763671875	upper	../fonts/amplitud.ttf
972.5	n/a	WORD	486250	wordpools/wasnorm_wordpool.txt	LTP073	ltpFR	6	5	0	OUTDOORS	987	n/a	1	1	0.412841796875	0.57763671875	upper	../fonts/amplitud.ttf
976.376	n/a	WORD	488188	wordpools/wasnorm_wordpool.txt	LTP073	ltpFR	6	5	0	STAMP	1370	n/a	0	1	0.412841796875	0.57763671875	upper	../fonts/amplitud.ttf
980.526	n/a	WORD	490263	wordpools/wasnorm_wordpool.txt	LTP073	ltpFR	6	5	0	MAILBOX	857	n/a	1	1	0.412841796875	0.57763671875	upper	../fonts/amplitud.ttf
986.394	n/a	REC_START	493197	n/a	LTP073	ltpFR	6	5	n/a	n/a	n/a	n/a	n/a	n/a	n/a	n/a	n/a	n/a
987.05	n/a	REC_WORD	493525	wordpools/wasnorm_wordpool.txt	LTP073	ltpFR	6	5	0	MAILBOX	857	n/a	1	n/a	n/a	n/a	n/a	n/a
987.912	n/a	REC_WORD	493956	wordpools/wasnorm_wordpool.txt	LTP073	ltpFR	6	5	0	STAMP	1370	n/a	0	n/a	n/a	n/a	n/a	n/a
990.028	n/a	REC_WORD	495014	wordpools/wasnorm_wordpool.txt	LTP073	ltpFR	6	5	0	WARRIOR	1589	n/a	1	n/a	n/a	n/a	n/a	n/a
991.042	n/a	REC_WORD	495521	wordpools/wasnorm_wordpool.txt	LTP073	ltpFR	6	5	0	BEARD	107	n/a	0	n/a	n/a	n/a	n/a	n/a
992.062	n/a	REC_WORD	496031	wordpools/wasnorm_wordpool.txt	LTP073	ltpFR	6	5	0	BEGGAR	117	n/a	1	n/a	n/a	n/a	n/a	n/a
993.624	n/a	REC_WORD_VV	496812	wordpools/wasnorm_wordpool.txt	LTP073	ltpFR	6	5	n/a	<>	-1	n/a	n/a	n/a	n/a	n/a	n/a	n/a
994.02	n/a	REC_WORD	497010	wordpools/wasnorm_wordpool.txt	LTP073	ltpFR	6	5	0	LOUNGE	845	n/a	1	n/a	n/a	n/a	n/a	n/a
994.69	n/a	REC_WORD	497345	wordpools/wasnorm_wordpool.txt	LTP073	ltpFR	6	5	0	OFFICE	972	n/a	1	n/a	n/a	n/a	n/a	n/a
995.632	n/a	REC_WORD	497816	wordpools/wasnorm_wordpool.txt	LTP073	ltpFR	6	5	0	CHAIR	274	n/a	1	n/a	n/a	n/a	n/a	n/a
997.602	n/a	REC_WORD_VV	498801	wordpools/wasnorm_wordpool.txt	LTP073	ltpFR	6	5	n/a	<>	-1	n/a	n/a	n/a	n/a	n/a	n/a	n/a
998.602	n/a	REC_WORD_VV	499301	wordpools/wasnorm_wordpool.txt	LTP073	ltpFR	6	5	n/a	<>	-1	n/a	n/a	n/a	n/a	n/a	n/a	n/a
1000.832	n/a	REC_WORD	500416	wordpools/wasnorm_wordpool.txt	LTP073	ltpFR	6	5	0	BEARD	107	n/a	0	n/a	n/a	n/a	n/a	n/a
1011.402	n/a	REC_WORD	505701	wordpools/wasnorm_wordpool.txt	LTP073	ltpFR	6	5	0	EMPLOYEE	531	n/a	1	n/a	n/a	n/a	n/a	n/a
1013.734	n/a	REC_WORD	506867	wordpools/wasnorm_wordpool.txt	LTP073	ltpFR	6	5	0	SKIN	1318	n/a	0	n/a	n/a	n/a	n/a	n/a
1019.556	n/a	REC_WORD	509778	wordpools/wasnorm_wordpool.txt	LTP073	ltpFR	6	5	0	HAMPER	682	n/a	1	n/a	n/a	n/a	n/a	n/a
1026.114	n/a	REC_WORD	513057	wordpools/wasnorm_wordpool.txt	LTP073	ltpFR	6	5	0	PROTRACTOR	1133	n/a	1	n/a	n/a	n/a	n/a	n/a
1027.206	n/a	REC_WORD	513603	wordpools/wasnorm_wordpool.txt	LTP073	ltpFR	6	5	0	MAP	865	n/a	0	n/a	n/a	n/a	n/a	n/a
1027.978	n/a	REC_WORD	513989	wordpools/wasnorm_wordpool.txt	LTP073	ltpFR	6	5	0	SANDPAPER	1231	n/a	0	n/a	n/a	n/a	n/a	n/a
1064.982	n/a	WORD	532491	wordpools/wasnorm_wordpool.txt	LTP073	ltpFR	6	6	1	BUILDER	190	n/a	1	0	0.5869140625	0.422607421875	lower	../fonts/zerothre.ttf
1068.998	n/a	WORD	534499	wordpools/wasnorm_wordpool.txt	LTP073	ltpFR	6	6	1	GORILLA	650	n/a	1	0	0.5869140625	0.422607421875	lower	../fonts/zerothre.ttf
1073.024	n/a	WORD	536512	wordpools/wasnorm_wordpool.txt	LTP073	ltpFR	6	6	1	NEUTRON	947	n/a	1	0	0.5869140625	0.422607421875	lower	../fonts/zerothre.ttf
1077.04	n/a	WORD	538520	wordpools/wasnorm_wordpool.txt	LTP073	ltpFR	6	6	1	BRICK	172	n/a	0	0	0.5869140625	0.422607421875	lower	../fonts/zerothre.ttf
1081.19	n/a	WORD	540595	wordpools/wasnorm_wordpool.txt	LTP073	ltpFR	6	6	1	BRACES	164	n/a	0	0	0.5869140625	0.422607421875	lower	../fonts/zerothre.ttf
1085.066	n/a	WORD	542533	wordpools/wasnorm_wordpool.txt	LTP073	ltpFR	6	6	1	HIGHWAY	707	n/a	0	0	0.5869140625	0.422607421875	lower	../fonts/zerothre.ttf
1089.108	n/a	WORD	544554	wordpools/wasnorm_wordpool.txt	LTP073	ltpFR	6	6	1	CARAVAN	242	n/a	0	0	0.5869140625	0.422607421875	lower	../fonts/zerothre.ttf
1093.058	n/a	WORD	546529	wordpools/wasnorm_wordpool.txt	LTP073	ltpFR	6	6	1	ROOST	1208	n/a	0	0	0.5869140625	0.422607421875	lower	../fonts/zerothre.ttf
1097.066	n/a	WORD	548533	wordpools/wasnorm_wordpool.txt	LTP073	ltpFR	6	6	1	LOFT	840	n/a	0	0	0.5869140625	0.422607421875	lower	../fonts/zerothre.ttf
1100.88	n/a	WORD	550440	wordpools/wasnorm_wordpool.txt	LTP073	ltpFR	6	6	1	MOTEL	919	n/a	0	0	0.5869140625	0.422607421875	lower	../fonts/zerothre.ttf
1104.698	n/a	WORD	552349	wordpools/wasnorm_wordpool.txt	LTP073	ltpFR	6	6	1	HERD	705	n/a	1	0	0.5869140625	0.422607421875	lower	../fonts/zerothre.ttf
1108.788	n/a	WORD	554394	wordpools/wasnorm_wordpool.txt	LTP073	ltpFR	6	6	1	RAM	1165	n/a	1	0	0.5869140625	0.422607421875	lower	../fonts/zerothre.ttf
1112.83	n/a	WORD	556415	wordpools/wasnorm_wordpool.txt	LTP073	ltpFR	6	6	1	HOOK	715	n/a	0	0	0.5869140625	0.422607421875	lower	../fonts/zerothre.ttf
1116.864	n/a	WORD	558432	wordpools/wasnorm_wordpool.txt	LTP073	ltpFR	6	6	1	SARDINE	1235	n/a	1	0	0.5869140625	0.422607421875	lower	../fonts/zerothre.ttf
1120.946	n/a	WORD	560473	wordpools/wasnorm_wordpool.txt	LTP073	ltpFR	6	6	1	JUNGLE	764	n/a	0	0	0.5869140625	0.422607421875	lower	../fonts/zerothre.ttf
1125.056	n/a	WORD	562528	wordpools/wasnorm_wordpool.txt	LTP073	ltpFR	6	6	1	EAGLE	512	n/a	1	0	0.5869140625	0.422607421875	lower	../fonts/zerothre.ttf
1130.93	n/a	REC_START	565465	n/a	LTP073	ltpFR	6	6	n/a	n/a	n/a	n/a	n/a	n/a	n/a	n/a	n/a	n/a
1132.11	n/a	REC_WORD_VV	566055	wordpools/wasnorm_wordpool.txt	LTP073	ltpFR	6	6	n/a	<>	-1	n/a	n/a	n/a	n/a	n/a	n/a	n/a
1132.368	n/a	REC_WORD	566184	wordpools/wasnorm_wordpool.txt	LTP073	ltpFR	6	6	1	EAGLE	512	n/a	1	n/a	n/a	n/a	n/a	n/a
1133.152	n/a	REC_WORD	566576	wordpools/wasnorm_wordpool.txt	LTP073	ltpFR	6	6	1	SARDINE	1235	n/a	1	n/a	n/a	n/a	n/a	n/a
1134.23	n/a	REC_WORD	567115	wordpools/wasnorm_wordpool.txt	LTP073	ltpFR	6	6	1	RAM	1165	n/a	1	n/a	n/a	n/a	n/a	n/a
1135.116	n/a	REC_WORD	567558	wordpools/wasnorm_wordpool.txt	LTP073	ltpFR	6	6	1	GORILLA	650	n/a	1	n/a	n/a	n/a	n/a	n/a
1135.962	n/a	REC_WORD	567981	wordpools/wasnorm_wordpool.txt	LTP073	ltpFR	6	6	1	HERD	705	n/a	1	n/a	n/a	n/a	n/a	n/a
1138.738	n/a	REC_WORD	569369	wordpools/wasnorm_wordpool.txt	LTP073	ltpFR	6	6	1	JUNGLE	764	n/a	0	n/a	n/a	n/a	n/a	n/a
1145.216	n/a	REC_WORD	572608	wordpools/wasnorm_wordpool.txt	LTP073	ltpFR	6	6	1	BRICK	172	n/a	0	n/a	n/a	n/a	n/a	n/a
1146.186	n/a	REC_WORD	573093	wordpools/wasnorm_wordpool.txt	LTP073	ltpFR	6	6	1	HIGHWAY	707	n/a	0	n/a	n/a	n/a	n/a	n/a
1147.594	n/a	REC_WORD	573797	wordpools/wasnorm_wordpool.txt	LTP073	ltpFR	6	6	1	CARAVAN	242	n/a	0	n/a	n/a	n/a	n/a	n/a
1170.968	n/a	REC_WORD_VV	585484	wordpools/wasnorm_wordpool.txt	LTP073	ltpFR	6	6	n/a	<>	-1	n/a	n/a	n/a	n/a	n/a	n/a	n/a
1181.79	n/a	REC_WORD	590895	wordpools/wasnorm_wordpool.txt	LTP073	ltpFR	6	6	1	NEUTRON	947	n/a	1	n/a	n/a	n/a	n/a	n/a
1211.354	n/a	WORD	605677	wordpools/wasnorm_wordpool.txt	LTP073	ltpFR	6	7	-1	TRUCK	1512	n/a	-1	1	1.0	1.0	upper	../fonts/Verdana.ttf
1215.48	n/a	WORD	607740	wordpools/wasnorm_wordpool.txt	LTP073	ltpFR	6	7	-1	SAW	1239	n/a	-1	1	1.0	1.0	upper	../fonts/Verdana.ttf
1219.32	n/a	WORD	609660	wordpools/wasnorm_wordpool.txt	LTP073	ltpFR	6	7	-1	PAPER	1011	n/a	-1	1	1.0	1.0	upper	../fonts/Verdana.ttf
1223.404	n/a	WORD	611702	wordpools/wasnorm_wordpool.txt	LTP073	ltpFR	6	7	-1	SPOON	1357	n/a	-1	1	1.0	1.0	upper	../fonts/Verdana.ttf
1227.47	n/a	WORD	613735	wordpools/wasnorm_wordpool.txt	LTP073	ltpFR	6	7	-1	CAB	209	n/a	-1	1	1.0	1.0	upper	../fonts/Verdana.ttf
1231.302	n/a	WORD	615651	wordpools/wasnorm_wordpool.txt	LTP073	ltpFR	6	7	-1	LUGGAGE	847	n/a	-1	1	1.0	1.0	upper	../fonts/Verdana.ttf
1235.304	n/a	WORD	617652	wordpools/wasnorm_wordpool.txt	LTP073	ltpFR	6	7	-1	TRAY	1498	n/a	-1	1	1.0	1.0	upper	../fonts/Verdana.ttf
1239.346	n/a	WORD	619673	wordpools/wasnorm_wordpool.txt	LTP073	ltpFR	6	7	-1	RADIO	1157	n/a	-1	1	1.0	1.0	upper	../fonts/Verdana.ttf
1243.544	n/a	WORD	621772	wordpools/wasnorm_wordpool.txt	LTP073	ltpFR	6	7	-1	SCREEN	1253	n/a	-1	1	1.0	1.0	upper	../fonts/Verdana.ttf
1247.602	n/a	WORD	623801	wordpools/wasnorm_wordpool.txt	LTP073	ltpFR	6	7	-1	BOTTLE	153	n/a	-1	1	1.0	1.0	upper	../fonts/Verdana.ttf
1251.602	n/a	WORD	625801	wordpools/wasnorm_wordpool.txt	LTP073	ltpFR	6	7	-1	GRAPE	654	n/a	-1	1	1.0	1.0	upper	../fonts/Verdana.ttf
1255.526	n/a	WORD	627763	wordpools/wasnorm_wordpool.txt	LTP073	ltpFR	6	7	-1	GOWN	652	n/a	-1	1	1.0	1.0	upper	../fonts/Verdana.ttf
1259.444	n/a	WORD	629722	wordpools/wasnorm_wordpool.txt	LTP073	ltpFR	6	7	-1	PLAZA	1088	n/a	-1	1	1.0	1.0	upper	../fonts/Verdana.ttf
1263.46	n/a	WORD	631730	wordpools/wasnorm_wordpool.txt	LTP073	ltpFR	6	7	-1	SADDLE	1221	n/a	-1	1	1.0	1.0	upper	../fonts/Verdana.ttf
1267.518	n/a	WORD	633759	wordpools/wasnorm_wordpool.txt	LTP073	ltpFR	6	7	-1	CARRIAGE	248	n/a	-1	1	1.0	1.0	upper	../fonts/Verdana.ttf
1271.518	n/a	WORD	635759	wordpools/wasnorm_wordpool.txt	LTP073	ltpFR	6	7	-1	JOURNAL	760	n/a	-1	1	1.0	1.0	upper	../fonts/Verdana.ttf
1277.42	n/a	REC_START	638710	n/a	LTP073	ltpFR	6	7	n/a	n/a	n/a	n/a	n/a	n/a	n/a	n/a	n/a	n/a
1279.754	n/a	REC_WORD	639877	wordpools/wasnorm_wordpool.txt	LTP073	ltpFR	6	7	-1	JOURNAL	760	n/a	-1	n/a	n/a	n/a	n/a	n/a
1280.724	n/a	REC_WORD	640362	wordpools/wasnorm_wordpool.txt	LTP073	ltpFR	6	7	-1	CARRIAGE	248	n/a	-1	n/a	n/a	n/a	n/a	n/a
1281.712	n/a	REC_WORD	640856	wordpools/wasnorm_wordpool.txt	LTP073	ltpFR	6	7	-1	SADDLE	1221	n/a	-1	n/a	n/a	n/a	n/a	n/a
1283.354	n/a	REC_WORD	641677	wordpools/wasnorm_wordpool.txt	LTP073	ltpFR	6	7	-1	GRAPE	654	n/a	-1	n/a	n/a	n/a	n/a	n/a
1284.292	n/a	REC_WORD	642146	wordpools/wasnorm_wordpool.txt	LTP073	ltpFR	6	7	-1	GRAPE	654	n/a	-1	n/a	n/a	n/a	n/a	n/a
1285.108	n/a	REC_WORD	642554	wordpools/wasnorm_wordpool.txt	LTP073	ltpFR	6	7	-1	BOTTLE	153	n/a	-1	n/a	n/a	n/a	n/a	n/a
1286.804	n/a	REC_WORD	643402	wordpools/wasnorm_wordpool.txt	LTP073	ltpFR	6	7	-1	TRUCK	1512	n/a	-1	n/a	n/a	n/a	n/a	n/a
1287.592	n/a	REC_WORD	643796	wordpools/wasnorm_wordpool.txt	LTP073	ltpFR	6	7	-1	CAB	209	n/a	-1	n/a	n/a	n/a	n/a	n/a
1288.44	n/a	REC_WORD	644220	wordpools/wasnorm_wordpool.txt	LTP073	ltpFR	6	7	-1	PLAZA	1088	n/a	-1	n/a	n/a	n/a	n/a	n/a
1293.072	n/a	REC_WORD	646536	wordpools/wasnorm_wordpool.txt	LTP073	ltpFR	6	7	-1	GOWN	652	n/a	-1	n/a	n/a	n/a	n/a	n/a
1298.228	n/a	REC_WORD	649114	wordpools/wasnorm_wordpool.txt	LTP073	ltpFR	6	7	-1	SPOON	1357	n/a	-1	n/a	n/a	n/a	n/a	n/a
1334.794	n/a	REC_WORD	667397	wordpools/wasnorm_wordpool.txt	LTP073	ltpFR	6	7	-1	PAPER	1011	n/a	-1	n/a	n/a	n/a	n/a	n/a
1339.982	n/a	REC_WORD	669991	wordpools/wasnorm_wordpool.txt	LTP073	ltpFR	6	7	-1	JOURNAL	760	n/a	-1	n/a	n/a	n/a	n/a	n/a
1364.176	n/a	WORD	682088	wordpools/wasnorm_wordpool.txt	LTP073	ltpFR	6	8	1	FUGITIVE	612	n/a	1	0	0.5869140625	0.422607421875	lower	../fonts/zerothre.ttf
1368.25	n/a	WORD	684125	wordpools/wasnorm_wordpool.txt	LTP073	ltpFR	6	8	1	CRAYON	401	n/a	0	0	0.5869140625	0.422607421875	lower	../fonts/zerothre.ttf
1372.116	n/a	WORD	686058	wordpools/wasnorm_wordpool.txt	LTP073	ltpFR	6	8	1	CASHIER	254	n/a	1	0	0.5869140625	0.422607421875	lower	../fonts/zerothre.ttf
1376.2	n/a	WORD	688100	wordpools/wasnorm_wordpool.txt	LTP073	ltpFR	6	8	1	HORIZON	717	n/a	0	0	0.5869140625	0.422607421875	lower	../fonts/zerothre.ttf
1380.224	n/a	WORD	690112	wordpools/wasnorm_wordpool.txt	LTP073	ltpFR	6	8	1	FROG	608	n/a	1	0	0.5869140625	0.422607421875	lower	../fonts/zerothre.ttf
1384.2	n/a	WORD	692100	wordpools/wasnorm_wordpool.txt	LTP073	ltpFR	6	8	1	VESSEL	1558	n/a	0	0	0.5869140625	0.422607421875	lower	../fonts/zerothre.ttf
1388.374	n/a	WORD	694187	wordpools/wasnorm_wordpool.txt	LTP073	ltpFR	6	8	1	BANK	83	n/a	0	0	0.5869140625	0.422607421875	lower	../fonts/zerothre.ttf
1392.524	n/a	WORD	696262	wordpools/wasnorm_wordpool.txt	LTP073	ltpFR	6	8	1	KIDNEY	776	n/a	1	0	0.5869140625	0.422607421875	lower	../fonts/zerothre.ttf
1396.714	n/a	WORD	698357	wordpools/wasnorm_wordpool.txt	LTP073	ltpFR	6	8	1	PAINT	1003	n/a	0	0	0.5869140625	0.422607421875	lower	../fonts/zerothre.ttf
1400.664	n/a	WORD	700332	wordpools/wasnorm_wordpool.txt	LTP073	ltpFR	6	8	1	CHAMBER	277	n/a	0	0	0.5869140625	0.422607421875	lower	../fonts/zerothre.ttf
1404.482	n/a	WORD	702241	wordpools/wasnorm_wordpool.txt	LTP073	ltpFR	6	8	1	ANTELOPE	27	n/a	1	0	0.5869140625	0.422607421875	lower	../fonts/zerothre.ttf
1408.614	n/a	WORD	704307	wordpools/wasnorm_wordpool.txt	LTP073	ltpFR	6	8	1	ELK	526	n/a	1	0	0.5869140625	0.422607421875	lower	../fonts/zerothre.ttf
1412.482	n/a	WORD	706241	wordpools/wasnorm_wordpool.txt	LTP073	ltpFR	6	8	1	FROST	609	n/a	0	0	0.5869140625	0.422607421875	lower	../fonts/zerothre.ttf
1416.298	n/a	WORD	708149	wordpools/wasnorm_wordpool.txt	LTP073	ltpFR	6	8	1	MAGNET	855	n/a	0	0	0.5869140625	0.422607421875	lower	../fonts/zerothre.ttf
1420.482	n/a	WORD	710241	wordpools/wasnorm_wordpool.txt	LTP073	ltpFR	6	8	1	KNAPSACK	783	n/a	0	0	0.5869140625	0.422607421875	lower	../fonts/zerothre.ttf
1424.398	n/a	WORD	712199	wordpools/wasnorm_wordpool.txt	LTP073	ltpFR	6	8	1	SUITCASE	1403	n/a	0	0	0.5869140625	0.422607421875	lower	../fonts/zerothre.ttf
1430.298	n/a	REC_START	715149	n/a	LTP073	ltpFR	6	8	n/a	n/a	n/a	n/a	n/a	n/a	n/a	n/a	n/a	n/a
1431.126	n/a	REC_WORD	715563	wordpools/wasnorm_wordpool.txt	LTP073	ltpFR	6	8	1	SUITCASE	1403	n/a	0	n/a	n/a	n/a	n/a	n/a
1432.086	n/a	REC_WORD	716043	wordpools/wasnorm_wordpool.txt	LTP073	ltpFR	6	8	1	KNAPSACK	783	n/a	0	n/a	n/a	n/a	n/a	n/a
1434.662	n/a	REC_WORD	717331	wordpools/wasnorm_wordpool.txt	LTP073	ltpFR	6	8	1	FROST	609	n/a	0	n/a	n/a	n/a	n/a	n/a
1435.838	n/a	REC_WORD	717919	wordpools/wasnorm_wordpool.txt	LTP073	ltpFR	6	8	1	MAGNET	855	n/a	0	n/a	n/a	n/a	n/a	n/a
1437.874	n/a	REC_WORD	718937	wordpools/wasnorm_wordpool.txt	LTP073	ltpFR	6	8	1	HORIZON	717	n/a	0	n/a	n/a	n/a	n/a	n/a
1439.766	n/a	REC_WORD	719883	wordpools/wasnorm_wordpool.txt	LTP073	ltpFR	6	8	1	PAINT	1003	n/a	0	n/a	n/a	n/a	n/a	n/a
1440.552	n/a	REC_WORD	720276	wordpools/wasnorm_wordpool.txt	LTP073	ltpFR	6	8	1	CRAYON	401	n/a	0	n/a	n/a	n/a	n/a	n/a
1441.466	n/a	REC_WORD	720733	wordpools/wasnorm_wordpool.txt	LTP073	ltpFR	6	8	1	VESSEL	1558	n/a	0	n/a	n/a	n/a	n/a	n/a
1443.224	n/a	REC_WORD	721612	wordpools/wasnorm_wordpool.txt	LTP073	ltpFR	6	8	1	ELK	526	n/a	1	n/a	n/a	n/a	n/a	n/a
1443.828	n/a	REC_WORD	721914	wordpools/wasnorm_wordpool.txt	LTP073	ltpFR	6	8	1	ANTELOPE	27	n/a	1	n/a	n/a	n/a	n/a	n/a
1444.856	n/a	REC_WORD	722428	wordpools/wasnorm_wordpool.txt	LTP073	ltpFR	6	8	1	FROG	608	n/a	1	n/a	n/a	n/a	n/a	n/a
1446.252	n/a	REC_WORD	723126	wordpools/wasnorm_wordpool.txt	LTP073	ltpFR	6	8	1	CASHIER	254	n/a	1	n/a	n/a	n/a	n/a	n/a
1446.94	n/a	REC_WORD	723470	wordpools/wasnorm_wordpool.txt	LTP073	ltpFR	6	8	1	FUGITIVE	612	n/a	1	n/a	n/a	n/a	n/a	n/a
1448.036	n/a	REC_WORD	724018	wordpools/wasnorm_wordpool.txt	LTP073	ltpFR	6	8	1	BANK	83	n/a	0	n/a	n/a	n/a	n/a	n/a
1448.77	n/a	REC_WORD	724385	wordpools/wasnorm_wordpool.txt	LTP073	ltpFR	6	8	1	CHAMBER	277	n/a	0	n/a	n/a	n/a	n/a	n/a
1484.48	n/a	REC_WORD	742240	wordpools/wasnorm_wordpool.txt	LTP073	ltpFR	6	8	1	CRAYON	401	n/a	0	n/a	n/a	n/a	n/a	n/a
1485.066	n/a	REC_WORD_VV	742533	wordpools/wasnorm_wordpool.txt	LTP073	ltpFR	6	8	n/a	<>	-1	n/a	n/a	n/a	n/a	n/a	n/a	n/a
1526.594	n/a	WORD	763297	wordpools/wasnorm_wordpool.txt	LTP073	ltpFR	6	9	0	MASCARA	875	n/a	0	1	0.412841796875	0.57763671875	upper	../fonts/amplitud.ttf
1530.504	n/a	WORD	765252	wordpools/wasnorm_wordpool.txt	LTP073	ltpFR	6	9	0	SINK	1309	n/a	1	1	0.412841796875	0.57763671875	upper	../fonts/amplitud.ttf
1534.328	n/a	WORD	767164	wordpools/wasnorm_wordpool.txt	LTP073	ltpFR	6	9	0	CANAL	226	n/a	1	1	0.412841796875	0.57763671875	upper	../fonts/amplitud.ttf
1538.236	n/a	WORD	769118	wordpools/wasnorm_wordpool.txt	LTP073	ltpFR	6	9	0	CONTAINER	366	n/a	1	1	0.412841796875	0.57763671875	upper	../fonts/amplitud.ttf
1542.286	n/a	WORD	771143	wordpools/wasnorm_wordpool.txt	LTP073	ltpFR	6	9	0	COOK	372	n/a	1	1	0.412841796875	0.57763671875	upper	../fonts/amplitud.ttf
1546.32	n/a	WORD	773160	wordpools/wasnorm_wordpool.txt	LTP073	ltpFR	6	9	0	LINT	826	n/a	0	1	0.412841796875	0.57763671875	upper	../fonts/amplitud.ttf
1550.154	n/a	WORD	775077	wordpools/wasnorm_wordpool.txt	LTP073	ltpFR	6	9	0	SALIVA	1226	n/a	0	1	0.412841796875	0.57763671875	upper	../fonts/amplitud.ttf
1554.12	n/a	WORD	777060	wordpools/wasnorm_wordpool.txt	LTP073	ltpFR	6	9	0	GRADUATE	653	n/a	1	1	0.412841796875	0.57763671875	upper	../fonts/amplitud.ttf
1558.094	n/a	WORD	779047	wordpools/wasnorm_wordpool.txt	LTP073	ltpFR	6	9	0	CYLINDER	432	n/a	0	1	0.412841796875	0.57763671875	upper	../fonts/amplitud.ttf
1562.212	n/a	WORD	781106	wordpools/wasnorm_wordpool.txt	LTP073	ltpFR	6	9	0	JET	756	n/a	1	1	0.412841796875	0.57763671875	upper	../fonts/amplitud.ttf
1566.42	n/a	WORD	783210	wordpools/wasnorm_wordpool.txt	LTP073	ltpFR	6	9	0	TERMINAL	1450	n/a	1	1	0.412841796875	0.57763671875	upper	../fonts/amplitud.ttf
1570.444	n/a	WORD	785222	wordpools/wasnorm_wordpool.txt	LTP073	ltpFR	6	9	0	LIPSTICK	829	n/a	0	1	0.412841796875	0.57763671875	upper	../fonts/amplitud.ttf
1574.618	n/a	WORD	787309	wordpools/wasnorm_wordpool.txt	LTP073	ltpFR	6	9	0	STREAM	1392	n/a	1	1	0.412841796875	0.57763671875	upper	../fonts/amplitud.ttf
1578.81	n/a	WORD	789405	wordpools/wasnorm_wordpool.txt	LTP073	ltpFR	6	9	0	HOOP	716	n/a	1	1	0.412841796875	0.57763671875	upper	../fonts/amplitud.ttf
1582.66	n/a	WORD	791330	wordpools/wasnorm_wordpool.txt	LTP073	ltpFR	6	9	0	TOMB	1477	n/a	1	1	0.412841796875	0.57763671875	upper	../fonts/amplitud.ttf
1586.81	n/a	WORD	793405	wordpools/wasnorm_wordpool.txt	LTP073	ltpFR	6	9	0	TOMBSTONE	1478	n/a	1	1	0.412841796875	0.57763671875	upper	../fonts/amplitud.ttf
1592.618	n/a	REC_START	796309	n/a	LTP073	ltpFR	6	9	n/a	n/a	n/a	n/a	n/a	n/a	n/a	n/a	n/a	n/a
1593.67	n/a	REC_WORD	796835	wordpools/wasnorm_wordpool.txt	LTP073	ltpFR	6	9	0	TOMB	1477	n/a	1	n/a	n/a	n/a	n/a	n/a
1594.332	n/a	REC_WORD	797166	wordpools/wasnorm_wordpool.txt	LTP073	ltpFR	6	9	0	TOMBSTONE	1478	n/a	1	n/a	n/a	n/a	n/a	n/a
1595.866	n/a	REC_WORD	797933	wordpools/wasnorm_wordpool.txt	LTP073	ltpFR	6	9	0	JET	756	n/a	1	n/a	n/a	n/a	n/a	n/a
1596.718	n/a	REC_WORD	798359	wordpools/wasnorm_wordpool.txt	LTP073	ltpFR	6	9	0	STREAM	1392	n/a	1	n/a	n/a	n/a	n/a	n/a
1597.614	n/a	REC_WORD	798807	wordpools/wasnorm_wordpool.txt	LTP073	ltpFR	6	9	1	HOOK	715	n/a	0	n/a	n/a	n/a	n/a	n/a
1598.486	n/a	REC_WORD	799243	wordpools/wasnorm_wordpool.txt	LTP073	ltpFR	6	9	0	CANAL	226	n/a	1	n/a	n/a	n/a	n/a	n/a
1599.66	n/a	REC_WORD	799830	wordpools/wasnorm_wordpool.txt	LTP073	ltpFR	6	9	0	MASCARA	875	n/a	0	n/a	n/a	n/a	n/a	n/a
1600.466	n/a	REC_WORD	800233	wordpools/wasnorm_wordpool.txt	LTP073	ltpFR	6	9	0	LIPSTICK	829	n/a	0	n/a	n/a	n/a	n/a	n/a
1601.276	n/a	REC_WORD	800638	wordpools/wasnorm_wordpool.txt	LTP073	ltpFR	6	9	0	CONTAINER	366	n/a	1	n/a	n/a	n/a	n/a	n/a
1601.954	n/a	REC_WORD	800977	wordpools/wasnorm_wordpool.txt	LTP073	ltpFR	6	9	0	CYLINDER	432	n/a	0	n/a	n/a	n/a	n/a	n/a
1604.318	n/a	REC_WORD	802159	wordpools/wasnorm_wordpool.txt	LTP073	ltpFR	6	9	0	SINK	1309	n/a	1	n/a	n/a	n/a	n/a	n/a
1610.148	n/a	REC_WORD	805074	wordpools/wasnorm_wordpool.txt	LTP073	ltpFR	6	9	0	GRADUATE	653	n/a	1	n/a	n/a	n/a	n/a	n/a
1622.17	n/a	REC_WORD	811085	wordpools/wasnorm_wordpool.txt	LTP073	ltpFR	6	9	0	TERMINAL	1450	n/a	1	n/a	n/a	n/a	n/a	n/a
1678.832	n/a	WORD	839416	wordpools/wasnorm_wordpool.txt	LTP073	ltpFR	6	10	-1	ARCHITECT	36	n/a	-1	1	1.0	1.0	upper	../fonts/Verdana.ttf
1682.982	n/a	WORD	841491	wordpools/wasnorm_wordpool.txt	LTP073	ltpFR	6	10	-1	FACTORY	548	n/a	-1	1	1.0	1.0	upper	../fonts/Verdana.ttf
1687.15	n/a	WORD	843575	wordpools/wasnorm_wordpool.txt	LTP073	ltpFR	6	10	-1	SIREN	1310	n/a	-1	1	1.0	1.0	upper	../fonts/Verdana.ttf
1691.258	n/a	WORD	845629	wordpools/wasnorm_wordpool.txt	LTP073	ltpFR	6	10	-1	OZONE	996	n/a	-1	1	1.0	1.0	upper	../fonts/Verdana.ttf
1695.1	n/a	WORD	847550	wordpools/wasnorm_wordpool.txt	LTP073	ltpFR	6	10	-1	PITCHFORK	1078	n/a	-1	1	1.0	1.0	upper	../fonts/Verdana.ttf
1699.108	n/a	WORD	849554	wordpools/wasnorm_wordpool.txt	LTP073	ltpFR	6	10	-1	PIN	1072	n/a	-1	1	1.0	1.0	upper	../fonts/Verdana.ttf
1702.966	n/a	WORD	851483	wordpools/wasnorm_wordpool.txt	LTP073	ltpFR	6	10	-1	ATMOSPHERE	54	n/a	-1	1	1.0	1.0	upper	../fonts/Verdana.ttf
1707.15	n/a	WORD	853575	wordpools/wasnorm_wordpool.txt	LTP073	ltpFR	6	10	-1	UNIVERSE	1540	n/a	-1	1	1.0	1.0	upper	../fonts/Verdana.ttf
1711.022	n/a	WORD	855511	wordpools/wasnorm_wordpool.txt	LTP073	ltpFR	6	10	-1	SILVERWARE	1308	n/a	-1	1	1.0	1.0	upper	../fonts/Verdana.ttf
1715.006	n/a	WORD	857503	wordpools/wasnorm_wordpool.txt	LTP073	ltpFR	6	10	-1	BLOCKADE	137	n/a	-1	1	1.0	1.0	upper	../fonts/Verdana.ttf
1719.108	n/a	WORD	859554	wordpools/wasnorm_wordpool.txt	LTP073	ltpFR	6	10	-1	BRUNETTE	181	n/a	-1	1	1.0	1.0	upper	../fonts/Verdana.ttf
1723.282	n/a	WORD	861641	wordpools/wasnorm_wordpool.txt	LTP073	ltpFR	6	10	-1	FOE	587	n/a	-1	1	1.0	1.0	upper	../fonts/Verdana.ttf
1727.216	n/a	WORD	863608	wordpools/wasnorm_wordpool.txt	LTP073	ltpFR	6	10	-1	SWORD	1423	n/a	-1	1	1.0	1.0	upper	../fonts/Verdana.ttf
1731.406	n/a	WORD	865703	wordpools/wasnorm_wordpool.txt	LTP073	ltpFR	6	10	-1	MITTEN	902	n/a	-1	1	1.0	1.0	upper	../fonts/Verdana.ttf
1735.432	n/a	WORD	867716	wordpools/wasnorm_wordpool.txt	LTP073	ltpFR	6	10	-1	SPICE	1350	n/a	-1	1	1.0	1.0	upper	../fonts/Verdana.ttf
1739.39	n/a	WORD	869695	wordpools/wasnorm_wordpool.txt	LTP073	ltpFR	6	10	-1	SALT	1229	n/a	-1	1	1.0	1.0	upper	../fonts/Verdana.ttf
1745.066	n/a	REC_START	872533	n/a	LTP073	ltpFR	6	10	n/a	n/a	n/a	n/a	n/a	n/a	n/a	n/a	n/a	n/a
1745.822	n/a	REC_WORD	872911	wordpools/wasnorm_wordpool.txt	LTP073	ltpFR	6	10	-1	SALT	1229	n/a	-1	n/a	n/a	n/a	n/a	n/a
1746.726	n/a	REC_WORD	873363	wordpools/wasnorm_wordpool.txt	LTP073	ltpFR	6	10	-1	SPICE	1350	n/a	-1	n/a	n/a	n/a	n/a	n/a
1747.864	n/a	REC_WORD	873932	wordpools/wasnorm_wordpool.txt	LTP073	ltpFR	6	10	-1	MITTEN	902	n/a	-1	n/a	n/a	n/a	n/a	n/a
1749.522	n/a	REC_WORD	874761	wordpools/wasnorm_wordpool.txt	LTP073	ltpFR	6	10	-1	FOE	587	n/a	-1	n/a	n/a	n/a	n/a	n/a
1750.556	n/a	REC_WORD	875278	wordpools/wasnorm_wordpool.txt	LTP073	ltpFR	6	10	-1	SWORD	1423	n/a	-1	n/a	n/a	n/a	n/a	n/a
1752.986	n/a	REC_WORD	876493	wordpools/wasnorm_wordpool.txt	LTP073	ltpFR	6	10	-1	FACTORY	548	n/a	-1	n/a	n/a	n/a	n/a	n/a
1754.172	n/a	REC_WORD	877086	wordpools/wasnorm_wordpool.txt	LTP073	ltpFR	6	10	-1	OZONE	996	n/a	-1	n/a	n/a	n/a	n/a	n/a
1755.28	n/a	REC_WORD	877640	wordpools/wasnorm_wordpool.txt	LTP073	ltpFR	6	10	-1	ATMOSPHERE	54	n/a	-1	n/a	n/a	n/a	n/a	n/a
1756.28	n/a	REC_WORD_VV	878140	wordpools/wasnorm_wordpool.txt	LTP073	ltpFR	6	10	n/a	<>	-1	n/a	n/a	n/a	n/a	n/a	n/a	n/a
1756.396	n/a	REC_WORD	878198	wordpools/wasnorm_wordpool.txt	LTP073	ltpFR	6	10	-1	SIREN	1310	n/a	-1	n/a	n/a	n/a	n/a	n/a
1757.494	n/a	REC_WORD	878747	wordpools/wasnorm_wordpool.txt	LTP073	ltpFR	6	10	-1	ARCHITECT	36	n/a	-1	n/a	n/a	n/a	n/a	n/a
1758.494	n/a	REC_WORD_VV	879247	wordpools/wasnorm_wordpool.txt	LTP073	ltpFR	6	10	n/a	<>	-1	n/a	n/a	n/a	n/a	n/a	n/a	n/a
1761.108	n/a	REC_WORD	880554	wordpools/wasnorm_wordpool.txt	LTP073	ltpFR	6	10	-1	BLOCKADE	137	n/a	-1	n/a	n/a	n/a	n/a	n/a
1763.962	n/a	REC_WORD	881981	wordpools/wasnorm_wordpool.txt	LTP073	ltpFR	6	10	-1	BRUNETTE	181	n/a	-1	n/a	n/a	n/a	n/a	n/a
1779.088	n/a	REC_WORD	889544	wordpools/wasnorm_wordpool.txt	LTP073	ltpFR	6	10	-1	PIN	1072	n/a	-1	n/a	n/a	n/a	n/a	n/a
1833.48	n/a	WORD	916740	wordpools/wasnorm_wordpool.txt	LTP073	ltpFR	6	11	1	PUDDING	1139	n/a	0	0	0.5869140625	0.422607421875	lower	../fonts/zerothre.ttf
1837.378	n/a	WORD	918689	wordpools/wasnorm_wordpool.txt	LTP073	ltpFR	6	11	1	HERB	704	n/a	0	0	0.5869140625	0.422607421875	lower	../fonts/zerothre.ttf
1841.57	n/a	WORD	920785	wordpools/wasnorm_wordpool.txt	LTP073	ltpFR	6	11	0	SNACK	1331	n/a	0	1	0.412841796875	0.57763671875	upper	../fonts/amplitud.ttf
1845.57	n/a	WORD	922785	wordpools/wasnorm_wordpool.txt	LTP073	ltpFR	6	11	0	DUNGEON	507	n/a	1	1	0.412841796875	0.57763671875	upper	../fonts/amplitud.ttf
1849.694	n/a	WORD	924847	wordpools/wasnorm_wordpool.txt	LTP073	ltpFR	6	11	1	CONVICT	371	n/a	1	0	0.5869140625	0.422607421875	lower	../fonts/zerothre.ttf
1853.762	n/a	WORD	926881	wordpools/wasnorm_wordpool.txt	LTP073	ltpFR	6	11	1	BASKET	95	n/a	0	0	0.5869140625	0.422607421875	lower	../fonts/zerothre.ttf
1857.628	n/a	WORD	928814	wordpools/wasnorm_wordpool.txt	LTP073	ltpFR	6	11	1	BAKER	71	n/a	1	0	0.5869140625	0.422607421875	lower	../fonts/zerothre.ttf
1861.652	n/a	WORD	930826	wordpools/wasnorm_wordpool.txt	LTP073	ltpFR	6	11	1	CASTLE	256	n/a	0	0	0.5869140625	0.422607421875	lower	../fonts/zerothre.ttf
1865.652	n/a	WORD	932826	wordpools/wasnorm_wordpool.txt	LTP073	ltpFR	6	11	0	PRISONER	1128	n/a	1	1	0.412841796875	0.57763671875	upper	../fonts/amplitud.ttf
1869.736	n/a	WORD	934868	wordpools/wasnorm_wordpool.txt	LTP073	ltpFR	6	11	0	PICKLE	1059	n/a	0	1	0.412841796875	0.57763671875	upper	../fonts/amplitud.ttf
1873.668	n/a	WORD	936834	wordpools/wasnorm_wordpool.txt	LTP073	ltpFR	6	11	0	FOX	598	n/a	1	1	0.412841796875	0.57763671875	upper	../fonts/amplitud.ttf
1877.576	n/a	WORD	938788	wordpools/wasnorm_wordpool.txt	LTP073	ltpFR	6	11	0	CARNIVAL	245	n/a	1	1	0.412841796875	0.57763671875	upper	../fonts/amplitud.ttf
1881.576	n/a	WORD	940788	wordpools/wasnorm_wordpool.txt	LTP073	ltpFR	6	11	0	COSTUME	383	n/a	1	1	0.412841796875	0.57763671875	upper	../fonts/amplitud.ttf
1885.768	n/a	WORD	942884	wordpools/wasnorm_wordpool.txt	LTP073	ltpFR	6	11	0	SUGAR	1401	n/a	0	1	0.412841796875	0.57763671875	upper	../fonts/amplitud.ttf
1889.878	n/a	WORD	944939	wordpools/wasnorm_wordpool.txt	LTP073	ltpFR	6	11	1	INMATE	738	n/a	1	0	0.5869140625	0.422607421875	lower	../fonts/zerothre.ttf
1893.96	n/a	WORD	946980	wordpools/wasnorm_wordpool.txt	LTP073	ltpFR	6	11	1	CUSHION	428	n/a	0	0	0.5869140625	0.422607421875	lower	../fonts/zerothre.ttf
1899.802	n/a	REC_START	949901	n/a	LTP073	ltpFR	6	11	n/a	n/a	n/a	n/a	n/a	n/a	n/a	n/a	n/a	n/a
1900.92	n/a	REC_WORD	950460	wordpools/wasnorm_wordpool.txt	LTP073	ltpFR	6	11	1	CUSHION	428	n/a	0	n/a	n/a	n/a	n/a	n/a
1902.368	n/a	REC_WORD	951184	wordpools/wasnorm_wordpool.txt	LTP073	ltpFR	6	11	1	CONVICT	371	n/a	1	n/a	n/a	n/a	n/a	n/a
1903.344	n/a	REC_WORD	951672	wordpools/wasnorm_wordpool.txt	LTP073	ltpFR	6	11	1	INMATE	738	n/a	1	n/a	n/a	n/a	n/a	n/a
1904.198	n/a	REC_WORD	952099	wordpools/wasnorm_wordpool.txt	LTP073	ltpFR	6	11	0	PRISONER	1128	n/a	1	n/a	n/a	n/a	n/a	n/a
1905.338	n/a	REC_WORD	952669	wordpools/wasnorm_wordpool.txt	LTP073	ltpFR	6	11	0	DUNGEON	507	n/a	1	n/a	n/a	n/a	n/a	n/a
1907.292	n/a	REC_WORD	953646	wordpools/wasnorm_wordpool.txt	LTP073	ltpFR	6	11	1	CASTLE	256	n/a	0	n/a	n/a	n/a	n/a	n/a
1908.292	n/a	REC_WORD_VV	954146	wordpools/wasnorm_wordpool.txt	LTP073	ltpFR	6	11	n/a	<>	-1	n/a	n/a	n/a	n/a	n/a	n/a	n/a
1909.074	n/a	REC_WORD	954537	wordpools/wasnorm_wordpool.txt	LTP073	ltpFR	6	11	1	HERB	704	n/a	0	n/a	n/a	n/a	n/a	n/a
1912.214	n/a	REC_WORD_VV	956107	wordpools/wasnorm_wordpool.txt	LTP073	ltpFR	6	11	n/a	<>	-1	n/a	n/a	n/a	n/a	n/a	n/a	n/a
1912.944	n/a	REC_WORD	956472	wordpools/wasnorm_wordpool.txt	LTP073	ltpFR	6	11	1	HERB	704	n/a	0	n/a	n/a	n/a	n/a	n/a
1913.652	n/a	REC_WORD	956826	wordpools/wasnorm_wordpool.txt	LTP073	ltpFR	6	11	0	SNACK	1331	n/a	0	n/a	n/a	n/a	n/a	n/a
1914.578	n/a	REC_WORD	957289	wordpools/wasnorm_wordpool.txt	LTP073	ltpFR	6	11	0	SUGAR	1401	n/a	0	n/a	n/a	n/a	n/a	n/a
1915.906	n/a	REC_WORD	957953	wordpools/wasnorm_wordpool.txt	LTP073	ltpFR	6	11	1	BASKET	95	n/a	0	n/a	n/a	n/a	n/a	n/a
1997.426	n/a	WORD	998713	wordpools/wasnorm_wordpool.txt	LTP073	ltpFR	6	12	1	TROMBONE	1508	n/a	0	0	0.5869140625	0.422607421875	lower	../fonts/zerothre.ttf
2001.258	n/a	WORD	1000629	wordpools/wasnorm_wordpool.txt	LTP073	ltpFR	6	12	1	MICROPHONE	890	n/a	0	0	0.5869140625	0.422607421875	lower	../fonts/zerothre.ttf
2005.432	n/a	WORD	1002716	wordpools/wasnorm_wordpool.txt	LTP073	ltpFR	6	12	1	MARGARINE	868	n/a	0	0	0.5869140625	0.422607421875	lower	../fonts/zerothre.ttf
2009.516	n/a	WORD	1004758	wordpools/wasnorm_wordpool.txt	LTP073	ltpFR	6	12	1	WAITRESS	1581	n/a	0	0	0.5869140625	0.422607421875	lower	../fonts/zerothre.ttf
2013.424	n/a	WORD	1006712	wordpools/wasnorm_wordpool.txt	LTP073	ltpFR	6	12	0	SERVANT	1271	n/a	1	1	0.412841796875	0.57763671875	upper	../fonts/amplitud.ttf
2017.524	n/a	WORD	1008762	wordpools/wasnorm_wordpool.txt	LTP073	ltpFR	6	12	0	NEWSPAPER	948	n/a	0	1	0.412841796875	0.57763671875	upper	../fonts/amplitud.ttf
2021.664	n/a	WORD	1010832	wordpools/wasnorm_wordpool.txt	LTP073	ltpFR	6	12	0	ASH	44	n/a	0	1	0.412841796875	0.57763671875	upper	../fonts/amplitud.ttf
2025.5	n/a	WORD	1012750	wordpools/wasnorm_wordpool.txt	LTP073	ltpFR	6	12	0	GUM	672	n/a	0	1	0.412841796875	0.57763671875	upper	../fonts/amplitud.ttf
2029.416	n/a	WORD	1014708	wordpools/wasnorm_wordpool.txt	LTP073	ltpFR	6	12	1	CUP	424	n/a	2	0	0.5869140625	0.422607421875	lower	../fonts/zerothre.ttf
2030.556	n/a	KEY_MSG	1015278	n/a	LTP073	ltpFR	6	12	n/a	n/a	n/a	n/a	n/a	n/a	n/a	n/a	n/a	n/a
2033.566	n/a	WORD	1016783	wordpools/wasnorm_wordpool.txt	LTP073	ltpFR	6	12	1	CARROT	249	n/a	0	0	0.5869140625	0.422607421875	lower	../fonts/zerothre.ttf
2037.408	n/a	WORD	1018704	wordpools/wasnorm_wordpool.txt	LTP073	ltpFR	6	12	1	POPCORN	1104	n/a	0	0	0.5869140625	0.422607421875	lower	../fonts/zerothre.ttf
2041.34	n/a	WORD	1020670	wordpools/wasnorm_wordpool.txt	LTP073	ltpFR	6	12	1	PREACHER	1119	n/a	1	0	0.5869140625	0.422607421875	lower	../fonts/zerothre.ttf
2045.198	n/a	WORD	1022599	wordpools/wasnorm_wordpool.txt	LTP073	ltpFR	6	12	0	POPE	1105	n/a	1	1	0.412841796875	0.57763671875	upper	../fonts/amplitud.ttf
2049.364	n/a	WORD	1024682	wordpools/wasnorm_wordpool.txt	LTP073	ltpFR	6	12	0	BLUEBERRY	140	n/a	0	1	0.412841796875	0.57763671875	upper	../fonts/amplitud.ttf
2053.498	n/a	WORD	1026749	wordpools/wasnorm_wordpool.txt	LTP073	ltpFR	6	12	0	WAX	1597	n/a	0	1	0.412841796875	0.57763671875	upper	../fonts/amplitud.ttf
2057.466	n/a	WORD	1028733	wordpools/wasnorm_wordpool.txt	LTP073	ltpFR	6	12	0	CAMEL	223	n/a	1	1	0.412841796875	0.57763671875	upper	../fonts/amplitud.ttf
2063.158	n/a	REC_START	1031579	n/a	LTP073	ltpFR	6	12	n/a	n/a	n/a	n/a	n/a	n/a	n/a	n/a	n/a	n/a
2065.084	n/a	REC_WORD	1032542	wordpools/wasnorm_wordpool.txt	LTP073	ltpFR	6	12	0	WAX	1597	n/a	0	n/a	n/a	n/a	n/a	n/a
2065.988	n/a	REC_WORD	1032994	wordpools/wasnorm_wordpool.txt	LTP073	ltpFR	6	12	0	CAMEL	223	n/a	1	n/a	n/a	n/a	n/a	n/a
2067.426	n/a	REC_WORD	1033713	wordpools/wasnorm_wordpool.txt	LTP073	ltpFR	6	12	1	PREACHER	1119	n/a	1	n/a	n/a	n/a	n/a	n/a
2068.494	n/a	REC_WORD	1034247	wordpools/wasnorm_wordpool.txt	LTP073	ltpFR	6	12	0	POPE	1105	n/a	1	n/a	n/a	n/a	n/a	n/a
2069.262	n/a	REC_WORD	1034631	wordpools/wasnorm_wordpool.txt	LTP073	ltpFR	6	12	1	TROMBONE	1508	n/a	0	n/a	n/a	n/a	n/a	n/a
2070.224	n/a	REC_WORD	1035112	wordpools/wasnorm_wordpool.txt	LTP073	ltpFR	6	12	1	MICROPHONE	890	n/a	0	n/a	n/a	n/a	n/a	n/a
2072.814	n/a	REC_WORD	1036407	wordpools/wasnorm_wordpool.txt	LTP073	ltpFR	6	12	0	GUM	672	n/a	0	n/a	n/a	n/a	n/a	n/a
2073.66	n/a	REC_WORD	1036830	wordpools/wasnorm_wordpool.txt	LTP073	ltpFR	6	12	1	POPCORN	1104	n/a	0	n/a	n/a	n/a	n/a	n/a
2074.662	n/a	REC_WORD_VV	1037331	wordpools/wasnorm_wordpool.txt	LTP073	ltpFR	6	12	n/a	<>	-1	n/a	n/a	n/a	n/a	n/a	n/a	n/a
2138.746	n/a	REST_REWET	1069373	n/a	LTP073	ltpFR	6	12	n/a	n/a	n/a	n/a	n/a	n/a	n/a	n/a	n/a	n/a
2605.342	n/a	WORD	1302671	wordpools/wasnorm_wordpool.txt	LTP073	ltpFR	6	13	0	NERVE	944	n/a	0	1	0.412841796875	0.57763671875	upper	../fonts/amplitud.ttf
2609.284	n/a	WORD	1304642	wordpools/wasnorm_wordpool.txt	LTP073	ltpFR	6	13	0	BRIDGE	174	n/a	1	1	0.412841796875	0.57763671875	upper	../fonts/amplitud.ttf
2613.318	n/a	WORD	1306659	wordpools/wasnorm_wordpool.txt	LTP073	ltpFR	6	13	1	GUN	673	n/a	0	0	0.5869140625	0.422607421875	lower	../fonts/zerothre.ttf
2617.308	n/a	WORD	1308654	wordpools/wasnorm_wordpool.txt	LTP073	ltpFR	6	13	1	ELECTRICIAN	521	n/a	1	0	0.5869140625	0.422607421875	lower	../fonts/zerothre.ttf
2621.518	n/a	WORD	1310759	wordpools/wasnorm_wordpool.txt	LTP073	ltpFR	6	13	1	PLUMBER	1091	n/a	1	0	0.5869140625	0.422607421875	lower	../fonts/zerothre.ttf
2625.5	n/a	WORD	1312750	wordpools/wasnorm_wordpool.txt	LTP073	ltpFR	6	13	1	BLACKBERRY	132	n/a	0	0	0.5869140625	0.422607421875	lower	../fonts/zerothre.ttf
2629.45	n/a	WORD	1314725	wordpools/wasnorm_wordpool.txt	LTP073	ltpFR	6	13	0	FRUIT	610	n/a	0	1	0.412841796875	0.57763671875	upper	../fonts/amplitud.ttf
2633.266	n/a	WORD	1316633	wordpools/wasnorm_wordpool.txt	LTP073	ltpFR	6	13	0	HANDKERCHIEF	686	n/a	0	1	0.412841796875	0.57763671875	upper	../fonts/amplitud.ttf
2637.25	n/a	WORD	1318625	wordpools/wasnorm_wordpool.txt	LTP073	ltpFR	6	13	1	CANDIDATE	228	n/a	1	0	0.5869140625	0.422607421875	lower	../fonts/zerothre.ttf
2641.134	n/a	WORD	1320567	wordpools/wasnorm_wordpool.txt	LTP073	ltpFR	6	13	1	GANGSTER	620	n/a	1	0	0.5869140625	0.422607421875	lower	../fonts/zerothre.ttf
2645.342	n/a	WORD	1322671	wordpools/wasnorm_wordpool.txt	LTP073	ltpFR	6	13	1	CUBE	420	n/a	0	0	0.5869140625	0.422607421875	lower	../fonts/zerothre.ttf
2649.45	n/a	WORD	1324725	wordpools/wasnorm_wordpool.txt	LTP073	ltpFR	6	13	1	MARINE	869	n/a	0	0	0.5869140625	0.422607421875	lower	../fonts/zerothre.ttf
2653.424	n/a	WORD	1326712	wordpools/wasnorm_wordpool.txt	LTP073	ltpFR	6	13	0	CLOWN	330	n/a	1	1	0.412841796875	0.57763671875	upper	../fonts/amplitud.ttf
2657.34	n/a	WORD	1328670	wordpools/wasnorm_wordpool.txt	LTP073	ltpFR	6	13	0	HEAD	695	n/a	1	1	0.412841796875	0.57763671875	upper	../fonts/amplitud.ttf
2661.158	n/a	WORD	1330579	wordpools/wasnorm_wordpool.txt	LTP073	ltpFR	6	13	0	SCENERY	1247	n/a	1	1	0.412841796875	0.57763671875	upper	../fonts/amplitud.ttf
2665.224	n/a	WORD	1332612	wordpools/wasnorm_wordpool.txt	LTP073	ltpFR	6	13	0	LANDSCAPE	799	n/a	1	1	0.412841796875	0.57763671875	upper	../fonts/amplitud.ttf
2671.158	n/a	REC_START	1335579	n/a	LTP073	ltpFR	6	13	n/a	n/a	n/a	n/a	n/a	n/a	n/a	n/a	n/a	n/a
2671.972	n/a	REC_WORD	1335986	wordpools/wasnorm_wordpool.txt	LTP073	ltpFR	6	13	0	SCENERY	1247	n/a	1	n/a	n/a	n/a	n/a	n/a
2672.812	n/a	REC_WORD	1336406	wordpools/wasnorm_wordpool.txt	LTP073	ltpFR	6	13	0	LANDSCAPE	799	n/a	1	n/a	n/a	n/a	n/a	n/a
2673.698	n/a	REC_WORD	1336849	wordpools/wasnorm_wordpool.txt	LTP073	ltpFR	6	13	1	MARINE	869	n/a	0	n/a	n/a	n/a	n/a	n/a
2674.822	n/a	REC_WORD	1337411	wordpools/wasnorm_wordpool.txt	LTP073	ltpFR	6	13	0	NERVE	944	n/a	0	n/a	n/a	n/a	n/a	n/a
2675.48	n/a	REC_WORD	1337740	wordpools/wasnorm_wordpool.txt	LTP073	ltpFR	6	13	0	BRIDGE	174	n/a	1	n/a	n/a	n/a	n/a	n/a
2676.106	n/a	REC_WORD	1338053	wordpools/wasnorm_wordpool.txt	LTP073	ltpFR	6	13	1	GUN	673	n/a	0	n/a	n/a	n/a	n/a	n/a
2676.622	n/a	REC_WORD	1338311	wordpools/wasnorm_wordpool.txt	LTP073	ltpFR	6	13	1	GANGSTER	620	n/a	1	n/a	n/a	n/a	n/a	n/a
2677.884	n/a	REC_WORD	1338942	wordpools/wasnorm_wordpool.txt	LTP073	ltpFR	6	13	1	ELECTRICIAN	521	n/a	1	n/a	n/a	n/a	n/a	n/a
2678.79	n/a	REC_WORD	1339395	wordpools/wasnorm_wordpool.txt	LTP073	ltpFR	6	13	1	PLUMBER	1091	n/a	1	n/a	n/a	n/a	n/a	n/a
2679.69	n/a	REC_WORD	1339845	wordpools/wasnorm_wordpool.txt	LTP073	ltpFR	6	13	1	CANDIDATE	228	n/a	1	n/a	n/a	n/a	n/a	n/a
2695.618	n/a	REC_WORD	1347809	wordpools/wasnorm_wordpool.txt	LTP073	ltpFR	6	13	0	CLOWN	330	n/a	1	n/a	n/a	n/a	n/a	n/a
2749.872	n/a	WORD	1374936	wordpools/wasnorm_wordpool.txt	LTP073	ltpFR	6	14	0	LIST	830	n/a	0	1	0.412841796875	0.57763671875	upper	../fonts/amplitud.ttf
2753.722	n/a	WORD	1376861	wordpools/wasnorm_wordpool.txt	LTP073	ltpFR	6	14	0	VINEGAR	1569	n/a	0	1	0.412841796875	0.57763671875	upper	../fonts/amplitud.ttf
2757.662	n/a	WORD	1378831	wordpools/wasnorm_wordpool.txt	LTP073	ltpFR	6	14	0	SWIMMER	1420	n/a	1	1	0.412841796875	0.57763671875	upper	../fonts/amplitud.ttf
2761.562	n/a	WORD	1380781	wordpools/wasnorm_wordpool.txt	LTP073	ltpFR	6	14	0	YARD	1630	n/a	1	1	0.412841796875	0.57763671875	upper	../fonts/amplitud.ttf
2765.604	n/a	WORD	1382802	wordpools/wasnorm_wordpool.txt	LTP073	ltpFR	6	14	0	LETTUCE	814	n/a	0	1	0.412841796875	0.57763671875	upper	../fonts/amplitud.ttf
2769.522	n/a	WORD	1384761	wordpools/wasnorm_wordpool.txt	LTP073	ltpFR	6	14	0	SOCK	1339	n/a	0	1	0.412841796875	0.57763671875	upper	../fonts/amplitud.ttf
2773.446	n/a	WORD	1386723	wordpools/wasnorm_wordpool.txt	LTP073	ltpFR	6	14	0	SNEAKER	1334	n/a	0	1	0.412841796875	0.57763671875	upper	../fonts/amplitud.ttf
2777.438	n/a	WORD	1388719	wordpools/wasnorm_wordpool.txt	LTP073	ltpFR	6	14	0	PAD	998	n/a	0	1	0.412841796875	0.57763671875	upper	../fonts/amplitud.ttf
2781.446	n/a	WORD	1390723	wordpools/wasnorm_wordpool.txt	LTP073	ltpFR	6	14	0	RAT	1169	n/a	0	1	0.412841796875	0.57763671875	upper	../fonts/amplitud.ttf
2785.388	n/a	WORD	1392694	wordpools/wasnorm_wordpool.txt	LTP073	ltpFR	6	14	0	BOULDER	155	n/a	1	1	0.412841796875	0.57763671875	upper	../fonts/amplitud.ttf
2789.404	n/a	WORD	1394702	wordpools/wasnorm_wordpool.txt	LTP073	ltpFR	6	14	0	SWING	1421	n/a	1	1	0.412841796875	0.57763671875	upper	../fonts/amplitud.ttf
2793.262	n/a	WORD	1396631	wordpools/wasnorm_wordpool.txt	LTP073	ltpFR	6	14	0	PIKE	1067	n/a	1	1	0.412841796875	0.57763671875	upper	../fonts/amplitud.ttf
2797.32	n/a	WORD	1398660	wordpools/wasnorm_wordpool.txt	LTP073	ltpFR	6	14	0	WATERFALL	1595	n/a	1	1	0.412841796875	0.57763671875	upper	../fonts/amplitud.ttf
2801.138	n/a	WORD	1400569	wordpools/wasnorm_wordpool.txt	LTP073	ltpFR	6	14	0	SPONGE	1355	n/a	0	1	0.412841796875	0.57763671875	upper	../fonts/amplitud.ttf
2805.052	n/a	WORD	1402526	wordpools/wasnorm_wordpool.txt	LTP073	ltpFR	6	14	0	STRAWBERRY	1391	n/a	0	1	0.412841796875	0.57763671875	upper	../fonts/amplitud.ttf
2808.894	n/a	WORD	1404447	wordpools/wasnorm_wordpool.txt	LTP073	ltpFR	6	14	0	RAISIN	1163	n/a	0	1	0.412841796875	0.57763671875	upper	../fonts/amplitud.ttf
2814.472	n/a	REC_START	1407236	n/a	LTP073	ltpFR	6	14	n/a	n/a	n/a	n/a	n/a	n/a	n/a	n/a	n/a	n/a
2816.04	n/a	REC_WORD	1408020	wordpools/wasnorm_wordpool.txt	LTP073	ltpFR	6	14	0	LIST	830	n/a	0	n/a	n/a	n/a	n/a	n/a
2816.97	n/a	REC_WORD	1408485	wordpools/wasnorm_wordpool.txt	LTP073	ltpFR	6	14	0	STRAWBERRY	1391	n/a	0	n/a	n/a	n/a	n/a	n/a
2817.928	n/a	REC_WORD	1408964	wordpools/wasnorm_wordpool.txt	LTP073	ltpFR	6	14	0	RAISIN	1163	n/a	0	n/a	n/a	n/a	n/a	n/a
2818.704	n/a	REC_WORD	1409352	wordpools/wasnorm_wordpool.txt	LTP073	ltpFR	6	14	0	LETTUCE	814	n/a	0	n/a	n/a	n/a	n/a	n/a
2819.358	n/a	REC_WORD	1409679	wordpools/wasnorm_wordpool.txt	LTP073	ltpFR	6	14	0	VINEGAR	1569	n/a	0	n/a	n/a	n/a	n/a	n/a
2820.294	n/a	REC_WORD	1410147	wordpools/wasnorm_wordpool.txt	LTP073	ltpFR	6	14	0	SOCK	1339	n/a	0	n/a	n/a	n/a	n/a	n/a
2821.204	n/a	REC_WORD	1410602	wordpools/wasnorm_wordpool.txt	LTP073	ltpFR	6	14	0	SNEAKER	1334	n/a	0	n/a	n/a	n/a	n/a	n/a
2822.876	n/a	REC_WORD	1411438	wordpools/wasnorm_wordpool.txt	LTP073	ltpFR	6	14	0	PIKE	1067	n/a	1	n/a	n/a	n/a	n/a	n/a
2823.826	n/a	REC_WORD	1411913	wordpools/wasnorm_wordpool.txt	LTP073	ltpFR	6	14	0	BOULDER	155	n/a	1	n/a	n/a	n/a	n/a	n/a
2824.904	n/a	REC_WORD	1412452	wordpools/wasnorm_wordpool.txt	LTP073	ltpFR	6	14	0	YARD	1630	n/a	1	n/a	n/a	n/a	n/a	n/a
2825.674	n/a	REC_WORD	1412837	wordpools/wasnorm_wordpool.txt	LTP073	ltpFR	6	14	0	SWIMMER	1420	n/a	1	n/a	n/a	n/a	n/a	n/a
2826.538	n/a	REC_WORD	1413269	wordpools/wasnorm_wordpool.txt	LTP073	ltpFR	6	14	0	SWING	1421	n/a	1	n/a	n/a	n/a	n/a	n/a
2836.76	n/a	REC_WORD	1418380	wordpools/wasnorm_wordpool.txt	LTP073	ltpFR	6	14	0	RAISIN	1163	n/a	0	n/a	n/a	n/a	n/a	n/a
2863.566	n/a	REC_WORD	1431783	wordpools/wasnorm_wordpool.txt	LTP073	ltpFR	6	14	0	WATERFALL	1595	n/a	1	n/a	n/a	n/a	n/a	n/a
2896.75	n/a	WORD	1448375	wordpools/wasnorm_wordpool.txt	LTP073	ltpFR	6	15	-1	TIE	1466	n/a	-1	1	1.0	1.0	upper	../fonts/Verdana.ttf
2900.8	n/a	WORD	1450400	wordpools/wasnorm_wordpool.txt	LTP073	ltpFR	6	15	-1	LIGHTNING	820	n/a	-1	1	1.0	1.0	upper	../fonts/Verdana.ttf
2904.776	n/a	WORD	1452388	wordpools/wasnorm_wordpool.txt	LTP073	ltpFR	6	15	-1	VALVE	1546	n/a	-1	1	1.0	1.0	upper	../fonts/Verdana.ttf
2908.974	n/a	WORD	1454487	wordpools/wasnorm_wordpool.txt	LTP073	ltpFR	6	15	-1	RADIATOR	1156	n/a	-1	1	1.0	1.0	upper	../fonts/Verdana.ttf
2912.974	n/a	WORD	1456487	wordpools/wasnorm_wordpool.txt	LTP073	ltpFR	6	15	-1	BROOK	177	n/a	-1	1	1.0	1.0	upper	../fonts/Verdana.ttf
2916.884	n/a	WORD	1458442	wordpools/wasnorm_wordpool.txt	LTP073	ltpFR	6	15	-1	BUTLER	204	n/a	-1	1	1.0	1.0	upper	../fonts/Verdana.ttf
2921.0	n/a	WORD	1460500	wordpools/wasnorm_wordpool.txt	LTP073	ltpFR	6	15	-1	PEDAL	1037	n/a	-1	1	1.0	1.0	upper	../fonts/Verdana.ttf
2925.066	n/a	WORD	1462533	wordpools/wasnorm_wordpool.txt	LTP073	ltpFR	6	15	-1	SPACE	1345	n/a	-1	1	1.0	1.0	upper	../fonts/Verdana.ttf
2929.008	n/a	WORD	1464504	wordpools/wasnorm_wordpool.txt	LTP073	ltpFR	6	15	-1	JUPITER	765	n/a	-1	1	1.0	1.0	upper	../fonts/Verdana.ttf
2933.142	n/a	WORD	1466571	wordpools/wasnorm_wordpool.txt	LTP073	ltpFR	6	15	-1	BIKE	125	n/a	-1	1	1.0	1.0	upper	../fonts/Verdana.ttf
2937.3	n/a	WORD	1468650	wordpools/wasnorm_wordpool.txt	LTP073	ltpFR	6	15	-1	OCTOPUS	971	n/a	-1	1	1.0	1.0	upper	../fonts/Verdana.ttf
2941.484	n/a	WORD	1470742	wordpools/wasnorm_wordpool.txt	LTP073	ltpFR	6	15	-1	TABLET	1427	n/a	-1	1	1.0	1.0	upper	../fonts/Verdana.ttf
2945.65	n/a	WORD	1472825	wordpools/wasnorm_wordpool.txt	LTP073	ltpFR	6	15	-1	STAPLER	1372	n/a	-1	1	1.0	1.0	upper	../fonts/Verdana.ttf
2949.824	n/a	WORD	1474912	wordpools/wasnorm_wordpool.txt	LTP073	ltpFR	6	15	-1	SALMON	1227	n/a	-1	1	1.0	1.0	upper	../fonts/Verdana.ttf
2954.006	n/a	WORD	1477003	wordpools/wasnorm_wordpool.txt	LTP073	ltpFR	6	15	-1	BLOUSE	139	n/a	-1	1	1.0	1.0	upper	../fonts/Verdana.ttf
2957.9	n/a	WORD	1478950	wordpools/wasnorm_wordpool.txt	LTP073	ltpFR	6	15	-1	CAMERA	224	n/a	-1	1	1.0	1.0	upper	../fonts/Verdana.ttf
2963.6	n/a	REC_START	1481800	n/a	LTP073	ltpFR	6	15	n/a	n/a	n/a	n/a	n/a	n/a	n/a	n/a	n/a	n/a
2964.394	n/a	REC_WORD	1482197	wordpools/wasnorm_wordpool.txt	LTP073	ltpFR	6	15	-1	BLOUSE	139	n/a	-1	n/a	n/a	n/a	n/a	n/a
2965.204	n/a	REC_WORD	1482602	wordpools/wasnorm_wordpool.txt	LTP073	ltpFR	6	15	-1	CAMERA	224	n/a	-1	n/a	n/a	n/a	n/a	n/a
2966.292	n/a	REC_WORD	1483146	wordpools/wasnorm_wordpool.txt	LTP073	ltpFR	6	15	-1	SALMON	1227	n/a	-1	n/a	n/a	n/a	n/a	n/a
2967.17	n/a	REC_WORD	1483585	wordpools/wasnorm_wordpool.txt	LTP073	ltpFR	6	15	-1	BROOK	177	n/a	-1	n/a	n/a	n/a	n/a	n/a
2967.884	n/a	REC_WORD	1483942	wordpools/wasnorm_wordpool.txt	LTP073	ltpFR	6	15	-1	OCTOPUS	971	n/a	-1	n/a	n/a	n/a	n/a	n/a
2970.406	n/a	REC_WORD	1485203	wordpools/wasnorm_wordpool.txt	LTP073	ltpFR	6	15	-1	STAPLER	1372	n/a	-1	n/a	n/a	n/a	n/a	n/a
2971.518	n/a	REC_WORD	1485759	wordpools/wasnorm_wordpool.txt	LTP073	ltpFR	6	15	-1	TIE	1466	n/a	-1	n/a	n/a	n/a	n/a	n/a
2972.22	n/a	REC_WORD	1486110	wordpools/wasnorm_wordpool.txt	LTP073	ltpFR	6	15	-1	LIGHTNING	820	n/a	-1	n/a	n/a	n/a	n/a	n/a
2973.946	n/a	REC_WORD	1486973	wordpools/wasnorm_wordpool.txt	LTP073	ltpFR	6	15	-1	SPACE	1345	n/a	-1	n/a	n/a	n/a	n/a	n/a
2974.922	n/a	REC_WORD	1487461	wordpools/wasnorm_wordpool.txt	LTP073	ltpFR	6	15	-1	JUPITER	765	n/a	-1	n/a	n/a	n/a	n/a	n/a
3049.864	n/a	WORD	1524932	wordpools/wasnorm_wordpool.txt	LTP073	ltpFR	6	16	-1	SLEIGH	1325	n/a	-1	1	1.0	1.0	upper	../fonts/Verdana.ttf
3053.888	n/a	WORD	1526944	wordpools/wasnorm_wordpool.txt	LTP073	ltpFR	6	16	-1	STOCKING	1383	n/a	-1	1	1.0	1.0	upper	../fonts/Verdana.ttf
3058.02	n/a	WORD	1529010	wordpools/wasnorm_wordpool.txt	LTP073	ltpFR	6	16	-1	ATLAS	53	n/a	-1	1	1.0	1.0	upper	../fonts/Verdana.ttf
3062.19	n/a	WORD	1531095	wordpools/wasnorm_wordpool.txt	LTP073	ltpFR	6	16	-1	BINDER	127	n/a	-1	1	1.0	1.0	upper	../fonts/Verdana.ttf
3066.348	n/a	WORD	1533174	wordpools/wasnorm_wordpool.txt	LTP073	ltpFR	6	16	-1	GROOM	665	n/a	-1	1	1.0	1.0	upper	../fonts/Verdana.ttf
3070.188	n/a	WORD	1535094	wordpools/wasnorm_wordpool.txt	LTP073	ltpFR	6	16	-1	VOLUNTEER	1577	n/a	-1	1	1.0	1.0	upper	../fonts/Verdana.ttf
3074.164	n/a	WORD	1537082	wordpools/wasnorm_wordpool.txt	LTP073	ltpFR	6	16	-1	ROOM	1206	n/a	-1	1	1.0	1.0	upper	../fonts/Verdana.ttf
3078.204	n/a	WORD	1539102	wordpools/wasnorm_wordpool.txt	LTP073	ltpFR	6	16	-1	CREATURE	403	n/a	-1	1	1.0	1.0	upper	../fonts/Verdana.ttf
3082.156	n/a	WORD	1541078	wordpools/wasnorm_wordpool.txt	LTP073	ltpFR	6	16	-1	STORE	1387	n/a	-1	1	1.0	1.0	upper	../fonts/Verdana.ttf
3086.096	n/a	WORD	1543048	wordpools/wasnorm_wordpool.txt	LTP073	ltpFR	6	16	-1	MUSHROOM	934	n/a	-1	1	1.0	1.0	upper	../fonts/Verdana.ttf
3090.046	n/a	WORD	1545023	wordpools/wasnorm_wordpool.txt	LTP073	ltpFR	6	16	-1	SCAPEGOAT	1244	n/a	-1	1	1.0	1.0	upper	../fonts/Verdana.ttf
3094.162	n/a	WORD	1547081	wordpools/wasnorm_wordpool.txt	LTP073	ltpFR	6	16	-1	STREET	1393	n/a	-1	1	1.0	1.0	upper	../fonts/Verdana.ttf
3097.97	n/a	WORD	1548985	wordpools/wasnorm_wordpool.txt	LTP073	ltpFR	6	16	-1	SUITE	1404	n/a	-1	1	1.0	1.0	upper	../fonts/Verdana.ttf
3101.812	n/a	WORD	1550906	wordpools/wasnorm_wordpool.txt	LTP073	ltpFR	6	16	-1	BROCCOLI	176	n/a	-1	1	1.0	1.0	upper	../fonts/Verdana.ttf
3105.87	n/a	WORD	1552935	wordpools/wasnorm_wordpool.txt	LTP073	ltpFR	6	16	-1	PHOTO	1055	n/a	-1	1	1.0	1.0	upper	../fonts/Verdana.ttf
3110.07	n/a	WORD	1555035	wordpools/wasnorm_wordpool.txt	LTP073	ltpFR	6	16	-1	PAINTING	1005	n/a	-1	1	1.0	1.0	upper	../fonts/Verdana.ttf
3115.728	n/a	REC_START	1557864	n/a	LTP073	ltpFR	6	16	n/a	n/a	n/a	n/a	n/a	n/a	n/a	n/a	n/a	n/a
3116.71	n/a	REC_WORD	1558355	wordpools/wasnorm_wordpool.txt	LTP073	ltpFR	6	16	-1	PAINTING	1005	n/a	-1	n/a	n/a	n/a	n/a	n/a
3117.282	n/a	REC_WORD	1558641	wordpools/wasnorm_wordpool.txt	LTP073	ltpFR	6	16	-1	PHOTO	1055	n/a	-1	n/a	n/a	n/a	n/a	n/a
3118.012	n/a	REC_WORD	1559006	wordpools/wasnorm_wordpool.txt	LTP073	ltpFR	6	16	-1	STORE	1387	n/a	-1	n/a	n/a	n/a	n/a	n/a
3118.778	n/a	REC_WORD	1559389	wordpools/wasnorm_wordpool.txt	LTP073	ltpFR	6	16	-1	STREET	1393	n/a	-1	n/a	n/a	n/a	n/a	n/a
3119.876	n/a	REC_WORD	1559938	wordpools/wasnorm_wordpool.txt	LTP073	ltpFR	6	16	-1	SUITE	1404	n/a	-1	n/a	n/a	n/a	n/a	n/a
3120.968	n/a	REC_WORD	1560484	wordpools/wasnorm_wordpool.txt	LTP073	ltpFR	6	16	-1	VOLUNTEER	1577	n/a	-1	n/a	n/a	n/a	n/a	n/a
3121.98	n/a	REC_WORD	1560990	wordpools/wasnorm_wordpool.txt	LTP073	ltpFR	6	16	-1	GROOM	665	n/a	-1	n/a	n/a	n/a	n/a	n/a
3122.698	n/a	REC_WORD	1561349	wordpools/wasnorm_wordpool.txt	LTP073	ltpFR	6	16	-1	ROOM	1206	n/a	-1	n/a	n/a	n/a	n/a	n/a
3123.562	n/a	REC_WORD	1561781	wordpools/wasnorm_wordpool.txt	LTP073	ltpFR	6	16	-1	MUSHROOM	934	n/a	-1	n/a	n/a	n/a	n/a	n/a
3127.068	n/a	REC_WORD	1563534	wordpools/wasnorm_wordpool.txt	LTP073	ltpFR	6	16	-1	SLEIGH	1325	n/a	-1	n/a	n/a	n/a	n/a	n/a
3129.12	n/a	REC_WORD	1564560	wordpools/wasnorm_wordpool.txt	LTP073	ltpFR	6	16	-1	STOCKING	1383	n/a	-1	n/a	n/a	n/a	n/a	n/a
3130.41	n/a	REC_WORD	1565205	wordpools/wasnorm_wordpool.txt	LTP073	ltpFR	6	16	-1	ATLAS	53	n/a	-1	n/a	n/a	n/a	n/a	n/a
3131.57	n/a	REC_WORD	1565785	wordpools/wasnorm_wordpool.txt	LTP073	ltpFR	6	16	-1	BINDER	127	n/a	-1	n/a	n/a	n/a	n/a	n/a
3135.91	n/a	REC_WORD	1567955	wordpools/wasnorm_wordpool.txt	LTP073	ltpFR	6	16	-1	CREATURE	403	n/a	-1	n/a	n/a	n/a	n/a	n/a
3218.444	n/a	REC_START	1609222	n/a	LTP073	ltpFR	6	1	n/a	n/a	n/a	n/a	n/a	n/a	n/a	n/a	n/a	n/a
3218.476	n/a	RECOG_LURE	1609238	n/a	LTP073	ltpFR	6	1	n/a	FIELD	562	2	n/a	n/a	n/a	n/a	n/a	n/a
3219.97	n/a	RECOG_RESP	1609985	n/a	LTP073	ltpFR	6	1	n/a	FIELD	562	n/a	n/a	n/a	n/a	n/a	n/a	n/a
3221.472	n/a	RECOG_CONF	1610736	n/a	LTP073	ltpFR	6	1	n/a	FIELD	562	2	n/a	n/a	n/a	n/a	n/a	n/a
3223.026	n/a	RECOG_LURE	1611513	n/a	LTP073	ltpFR	6	1	n/a	DANDELION	438	3	n/a	n/a	n/a	n/a	n/a	n/a
3223.916	n/a	RECOG_RESP	1611958	n/a	LTP073	ltpFR	6	1	n/a	DANDELION	438	n/a	n/a	n/a	n/a	n/a	n/a	n/a
3224.944	n/a	RECOG_CONF	1612472	n/a	LTP073	ltpFR	6	1	n/a	DANDELION	438	3	n/a	n/a	n/a	n/a	n/a	n/a
3226.376	n/a	RECOG_TARGET	1613188	n/a	LTP073	ltpFR	6	1	-1	JOURNAL	760	5	-1	n/a	n/a	n/a	n/a	n/a
3227.2	n/a	RECOG_RESP	1613600	n/a	LTP073	ltpFR	6	1	-1	JOURNAL	760	n/a	-1	n/a	n/a	n/a	n/a	n/a
3228.158	n/a	RECOG_CONF	1614079	n/a	LTP073	ltpFR	6	1	-1	JOURNAL	760	5	-1	n/a	n/a	n/a	n/a	n/a
3229.544	n/a	RECOG_TARGET	1614772	n/a	LTP073	ltpFR	6	1	0	EDITOR	516	5	1	n/a	n/a	n/a	n/a	n/a
3230.438	n/a	RECOG_RESP	1615219	n/a	LTP073	ltpFR	6	1	0	EDITOR	516	n/a	1	n/a	n/a	n/a	n/a	n/a
3231.322	n/a	RECOG_CONF	1615661	n/a	LTP073	ltpFR	6	1	0	EDITOR	516	5	1	n/a	n/a	n/a	n/a	n/a
3232.842	n/a	RECOG_TARGET	1616421	n/a	LTP073	ltpFR	6	1	-1	BIKE	125	5	-1	n/a	n/a	n/a	n/a	n/a
3233.576	n/a	RECOG_RESP	1616788	n/a	LTP073	ltpFR	6	1	-1	BIKE	125	n/a	-1	n/a	n/a	n/a	n/a	n/a
3234.344	n/a	RECOG_CONF	1617172	n/a	LTP073	ltpFR	6	1	-1	BIKE	125	5	-1	n/a	n/a	n/a	n/a	n/a
3235.85	n/a	RECOG_LURE	1617925	n/a	LTP073	ltpFR	6	1	n/a	CHAIN	273	3	n/a	n/a	n/a	n/a	n/a	n/a
3236.554	n/a	RECOG_RESP	1618277	n/a	LTP073	ltpFR	6	1	n/a	CHAIN	273	n/a	n/a	n/a	n/a	n/a	n/a	n/a
3237.428	n/a	RECOG_CONF	1618714	n/a	LTP073	ltpFR	6	1	n/a	CHAIN	273	3	n/a	n/a	n/a	n/a	n/a	n/a
3238.858	n/a	RECOG_LURE	1619429	n/a	LTP073	ltpFR	6	1	n/a	SPINE	1353	3	n/a	n/a	n/a	n/a	n/a	n/a
3239.812	n/a	RECOG_RESP	1619906	n/a	LTP073	ltpFR	6	1	n/a	SPINE	1353	n/a	n/a	n/a	n/a	n/a	n/a	n/a
3240.76	n/a	RECOG_CONF	1620380	n/a	LTP073	ltpFR	6	1	n/a	SPINE	1353	3	n/a	n/a	n/a	n/a	n/a	n/a
3242.276	n/a	RECOG_TARGET	1621138	n/a	LTP073	ltpFR	6	1	0	BODY	145	5	1	n/a	n/a	n/a	n/a	n/a
3243.014	n/a	RECOG_RESP	1621507	n/a	LTP073	ltpFR	6	1	0	BODY	145	n/a	1	n/a	n/a	n/a	n/a	n/a
3243.822	n/a	RECOG_CONF	1621911	n/a	LTP073	ltpFR	6	1	0	BODY	145	5	1	n/a	n/a	n/a	n/a	n/a
3245.242	n/a	RECOG_TARGET	1622621	n/a	LTP073	ltpFR	6	1	-1	BUTLER	204	5	-1	n/a	n/a	n/a	n/a	n/a
3245.938	n/a	RECOG_RESP	1622969	n/a	LTP073	ltpFR	6	1	-1	BUTLER	204	n/a	-1	n/a	n/a	n/a	n/a	n/a
3246.786	n/a	RECOG_CONF	1623393	n/a	LTP073	ltpFR	6	1	-1	BUTLER	204	5	-1	n/a	n/a	n/a	n/a	n/a
3248.492	n/a	RECOG_LURE	1624246	n/a	LTP073	ltpFR	6	1	n/a	PICNIC	1060	4	n/a	n/a	n/a	n/a	n/a	n/a
3249.292	n/a	RECOG_RESP	1624646	n/a	LTP073	ltpFR	6	1	n/a	PICNIC	1060	n/a	n/a	n/a	n/a	n/a	n/a	n/a
3250.23	n/a	RECOG_CONF	1625115	n/a	LTP073	ltpFR	6	1	n/a	PICNIC	1060	4	n/a	n/a	n/a	n/a	n/a	n/a
3251.692	n/a	RECOG_TARGET	1625846	n/a	LTP073	ltpFR	6	1	0	STETHOSCOPE	1379	5	0	n/a	n/a	n/a	n/a	n/a
3252.454	n/a	RECOG_RESP	1626227	n/a	LTP073	ltpFR	6	1	0	STETHOSCOPE	1379	n/a	0	n/a	n/a	n/a	n/a	n/a
3253.242	n/a	RECOG_CONF	1626621	n/a	LTP073	ltpFR	6	1	0	STETHOSCOPE	1379	5	0	n/a	n/a	n/a	n/a	n/a
3254.934	n/a	RECOG_TARGET	1627467	n/a	LTP073	ltpFR	6	1	0	TOMB	1477	5	1	n/a	n/a	n/a	n/a	n/a
3255.712	n/a	RECOG_RESP	1627856	n/a	LTP073	ltpFR	6	1	0	TOMB	1477	n/a	1	n/a	n/a	n/a	n/a	n/a
3256.454	n/a	RECOG_CONF	1628227	n/a	LTP073	ltpFR	6	1	0	TOMB	1477	5	1	n/a	n/a	n/a	n/a	n/a
3258.058	n/a	RECOG_TARGET	1629029	n/a	LTP073	ltpFR	6	1	1	OVEN	991	5	0	n/a	n/a	n/a	n/a	n/a
3258.79	n/a	RECOG_RESP	1629395	n/a	LTP073	ltpFR	6	1	1	OVEN	991	n/a	0	n/a	n/a	n/a	n/a	n/a
3259.478	n/a	RECOG_CONF	1629739	n/a	LTP073	ltpFR	6	1	1	OVEN	991	5	0	n/a	n/a	n/a	n/a	n/a
3261.126	n/a	RECOG_TARGET	1630563	n/a	LTP073	ltpFR	6	1	-1	SPICE	1350	3	-1	n/a	n/a	n/a	n/a	n/a
3261.948	n/a	RECOG_RESP	1630974	n/a	LTP073	ltpFR	6	1	-1	SPICE	1350	n/a	-1	n/a	n/a	n/a	n/a	n/a
3262.76	n/a	RECOG_CONF	1631380	n/a	LTP073	ltpFR	6	1	-1	SPICE	1350	3	-1	n/a	n/a	n/a	n/a	n/a
3264.292	n/a	RECOG_LURE	1632146	n/a	LTP073	ltpFR	6	1	n/a	BIBLE	124	3	n/a	n/a	n/a	n/a	n/a	n/a
3265.284	n/a	RECOG_RESP	1632642	n/a	LTP073	ltpFR	6	1	n/a	BIBLE	124	n/a	n/a	n/a	n/a	n/a	n/a	n/a
3266.302	n/a	RECOG_CONF	1633151	n/a	LTP073	ltpFR	6	1	n/a	BIBLE	124	3	n/a	n/a	n/a	n/a	n/a	n/a
3267.798	n/a	RECOG_TARGET	1633899	n/a	LTP073	ltpFR	6	1	-1	STOCKING	1383	5	-1	n/a	n/a	n/a	n/a	n/a
3268.562	n/a	RECOG_RESP	1634281	n/a	LTP073	ltpFR	6	1	-1	STOCKING	1383	n/a	-1	n/a	n/a	n/a	n/a	n/a
3269.316	n/a	RECOG_RESP_VV	1634658	n/a	LTP073	ltpFR	6	1	-1	STOCKING	1383	5	-1	n/a	n/a	n/a	n/a	n/a
3272.35	n/a	RECOG_CONF	1636175	n/a	LTP073	ltpFR	6	1	-1	STOCKING	1383	5	-1	n/a	n/a	n/a	n/a	n/a
3274.25	n/a	RECOG_LURE	1637125	n/a	LTP073	ltpFR	6	1	n/a	NUN	962	3	n/a	n/a	n/a	n/a	n/a	n/a
3275.104	n/a	RECOG_RESP	1637552	n/a	LTP073	ltpFR	6	1	n/a	NUN	962	n/a	n/a	n/a	n/a	n/a	n/a	n/a
3275.892	n/a	RECOG_CONF	1637946	n/a	LTP073	ltpFR	6	1	n/a	NUN	962	3	n/a	n/a	n/a	n/a	n/a	n/a
3277.35	n/a	RECOG_LURE	1638675	n/a	LTP073	ltpFR	6	1	n/a	OPERATOR	979	3	n/a	n/a	n/a	n/a	n/a	n/a
3278.102	n/a	RECOG_RESP	1639051	n/a	LTP073	ltpFR	6	1	n/a	OPERATOR	979	n/a	n/a	n/a	n/a	n/a	n/a	n/a
3279.004	n/a	RECOG_CONF	1639502	n/a	LTP073	ltpFR	6	1	n/a	OPERATOR	979	3	n/a	n/a	n/a	n/a	n/a	n/a
3280.648	n/a	RECOG_TARGET	1640324	n/a	LTP073	ltpFR	6	1	-1	UNIVERSE	1540	4	-1	n/a	n/a	n/a	n/a	n/a
3281.574	n/a	RECOG_RESP	1640787	n/a	LTP073	ltpFR	6	1	-1	UNIVERSE	1540	n/a	-1	n/a	n/a	n/a	n/a	n/a
3282.836	n/a	RECOG_CONF	1641418	n/a	LTP073	ltpFR	6	1	-1	UNIVERSE	1540	4	-1	n/a	n/a	n/a	n/a	n/a
3284.442	n/a	RECOG_TARGET	1642221	n/a	LTP073	ltpFR	6	1	-1	CAMERA	224	5	-1	n/a	n/a	n/a	n/a	n/a
3285.136	n/a	RECOG_RESP	1642568	n/a	LTP073	ltpFR	6	1	-1	CAMERA	224	n/a	-1	n/a	n/a	n/a	n/a	n/a
3285.908	n/a	RECOG_CONF	1642954	n/a	LTP073	ltpFR	6	1	-1	CAMERA	224	5	-1	n/a	n/a	n/a	n/a	n/a
3293.18	n/a	REC_START	1646590	n/a	LTP073	ltpFR	6	2	n/a	n/a	n/a	n/a	n/a	n/a	n/a	n/a	n/a	n/a
3293.216	n/a	RECOG_TARGET	1646608	n/a	LTP073	ltpFR	6	2	0	CANAL	226	5	1	n/a	n/a	n/a	n/a	n/a
3294.002	n/a	RECOG_RESP	1647001	n/a	LTP073	ltpFR	6	2	0	CANAL	226	n/a	1	n/a	n/a	n/a	n/a	n/a
3294.9	n/a	RECOG_CONF	1647450	n/a	LTP073	ltpFR	6	2	0	CANAL	226	5	1	n/a	n/a	n/a	n/a	n/a
3296.374	n/a	RECOG_TARGET	1648187	n/a	LTP073	ltpFR	6	2	1	HERB	704	5	0	n/a	n/a	n/a	n/a	n/a
3297.01	n/a	RECOG_RESP	1648505	n/a	LTP073	ltpFR	6	2	1	HERB	704	n/a	0	n/a	n/a	n/a	n/a	n/a
3297.634	n/a	RECOG_CONF	1648817	n/a	LTP073	ltpFR	6	2	1	HERB	704	5	0	n/a	n/a	n/a	n/a	n/a
3299.106	n/a	RECOG_TARGET	1649553	n/a	LTP073	ltpFR	6	2	1	ACORN	3	5	0	n/a	n/a	n/a	n/a	n/a
3299.704	n/a	RECOG_RESP	1649852	n/a	LTP073	ltpFR	6	2	1	ACORN	3	n/a	0	n/a	n/a	n/a	n/a	n/a
3300.278	n/a	RECOG_CONF	1650139	n/a	LTP073	ltpFR	6	2	1	ACORN	3	5	0	n/a	n/a	n/a	n/a	n/a
3301.724	n/a	RECOG_LURE	1650862	n/a	LTP073	ltpFR	6	2	n/a	EXPERT	543	4	n/a	n/a	n/a	n/a	n/a	n/a
3302.428	n/a	RECOG_RESP	1651214	n/a	LTP073	ltpFR	6	2	n/a	EXPERT	543	n/a	n/a	n/a	n/a	n/a	n/a	n/a
3303.312	n/a	RECOG_CONF	1651656	n/a	LTP073	ltpFR	6	2	n/a	EXPERT	543	4	n/a	n/a	n/a	n/a	n/a	n/a
3304.648	n/a	RECOG_TARGET	1652324	n/a	LTP073	ltpFR	6	2	1	CABINET	212	5	0	n/a	n/a	n/a	n/a	n/a
3305.232	n/a	RECOG_RESP	1652616	n/a	LTP073	ltpFR	6	2	1	CABINET	212	n/a	0	n/a	n/a	n/a	n/a	n/a
3305.916	n/a	RECOG_CONF	1652958	n/a	LTP073	ltpFR	6	2	1	CABINET	212	5	0	n/a	n/a	n/a	n/a	n/a
3307.324	n/a	RECOG_TARGET	1653662	n/a	LTP073	ltpFR	6	2	0	SCENERY	1247	5	1	n/a	n/a	n/a	n/a	n/a
3307.98	n/a	RECOG_RESP	1653990	n/a	LTP073	ltpFR	6	2	0	SCENERY	1247	n/a	1	n/a	n/a	n/a	n/a	n/a
3308.59	n/a	RECOG_CONF	1654295	n/a	LTP073	ltpFR	6	2	0	SCENERY	1247	5	1	n/a	n/a	n/a	n/a	n/a
3310.182	n/a	RECOG_TARGET	1655091	n/a	LTP073	ltpFR	6	2	1	MILITARY	894	5	0	n/a	n/a	n/a	n/a	n/a
3310.794	n/a	RECOG_RESP	1655397	n/a	LTP073	ltpFR	6	2	1	MILITARY	894	n/a	0	n/a	n/a	n/a	n/a	n/a
3311.654	n/a	RECOG_CONF	1655827	n/a	LTP073	ltpFR	6	2	1	MILITARY	894	5	0	n/a	n/a	n/a	n/a	n/a
3313.25	n/a	RECOG_TARGET	1656625	n/a	LTP073	ltpFR	6	2	-1	SALMON	1227	5	-1	n/a	n/a	n/a	n/a	n/a
3313.864	n/a	RECOG_RESP	1656932	n/a	LTP073	ltpFR	6	2	-1	SALMON	1227	n/a	-1	n/a	n/a	n/a	n/a	n/a
3314.536	n/a	RECOG_CONF	1657268	n/a	LTP073	ltpFR	6	2	-1	SALMON	1227	5	-1	n/a	n/a	n/a	n/a	n/a
3315.898	n/a	RECOG_LURE	1657949	n/a	LTP073	ltpFR	6	2	n/a	TORNADO	1485	4	n/a	n/a	n/a	n/a	n/a	n/a
3316.766	n/a	RECOG_RESP	1658383	n/a	LTP073	ltpFR	6	2	n/a	TORNADO	1485	n/a	n/a	n/a	n/a	n/a	n/a	n/a
3318.068	n/a	RECOG_CONF	1659034	n/a	LTP073	ltpFR	6	2	n/a	TORNADO	1485	4	n/a	n/a	n/a	n/a	n/a	n/a
3319.524	n/a	RECOG_LURE	1659762	n/a	LTP073	ltpFR	6	2	n/a	AWARD	63	4	n/a	n/a	n/a	n/a	n/a	n/a
3320.278	n/a	RECOG_RESP	1660139	n/a	LTP073	ltpFR	6	2	n/a	AWARD	63	n/a	n/a	n/a	n/a	n/a	n/a	n/a
3321.222	n/a	RECOG_CONF	1660611	n/a	LTP073	ltpFR	6	2	n/a	AWARD	63	4	n/a	n/a	n/a	n/a	n/a	n/a
3322.706	n/a	RECOG_TARGET	1661353	n/a	LTP073	ltpFR	6	2	1	BRACES	164	5	0	n/a	n/a	n/a	n/a	n/a
3323.596	n/a	RECOG_RESP	1661798	n/a	LTP073	ltpFR	6	2	1	BRACES	164	n/a	0	n/a	n/a	n/a	n/a	n/a
3324.324	n/a	RECOG_CONF	1662162	n/a	LTP073	ltpFR	6	2	1	BRACES	164	5	0	n/a	n/a	n/a	n/a	n/a
3325.764	n/a	RECOG_TARGET	1662882	n/a	LTP073	ltpFR	6	2	1	MUFFIN	929	4	0	n/a	n/a	n/a	n/a	n/a
3326.39	n/a	RECOG_RESP	1663195	n/a	LTP073	ltpFR	6	2	1	MUFFIN	929	n/a	0	n/a	n/a	n/a	n/a	n/a
3327.118	n/a	RECOG_CONF	1663559	n/a	LTP073	ltpFR	6	2	1	MUFFIN	929	4	0	n/a	n/a	n/a	n/a	n/a
3328.556	n/a	RECOG_TARGET	1664278	n/a	LTP073	ltpFR	6	2	1	SERGEANT	1269	5	1	n/a	n/a	n/a	n/a	n/a
3329.198	n/a	RECOG_RESP	1664599	n/a	LTP073	ltpFR	6	2	1	SERGEANT	1269	n/a	1	n/a	n/a	n/a	n/a	n/a
3329.902	n/a	RECOG_CONF	1664951	n/a	LTP073	ltpFR	6	2	1	SERGEANT	1269	5	1	n/a	n/a	n/a	n/a	n/a
3331.364	n/a	RECOG_LURE	1665682	n/a	LTP073	ltpFR	6	2	n/a	STALLION	1369	4	n/a	n/a	n/a	n/a	n/a	n/a
3332.146	n/a	RECOG_RESP	1666073	n/a	LTP073	ltpFR	6	2	n/a	STALLION	1369	n/a	n/a	n/a	n/a	n/a	n/a	n/a
3333.096	n/a	RECOG_CONF	1666548	n/a	LTP073	ltpFR	6	2	n/a	STALLION	1369	4	n/a	n/a	n/a	n/a	n/a	n/a
3334.482	n/a	RECOG_TARGET	1667241	n/a	LTP073	ltpFR	6	2	-1	CREATURE	403	5	-1	n/a	n/a	n/a	n/a	n/a
3335.112	n/a	RECOG_RESP	1667556	n/a	LTP073	ltpFR	6	2	-1	CREATURE	403	n/a	-1	n/a	n/a	n/a	n/a	n/a
3335.8	n/a	RECOG_CONF	1667900	n/a	LTP073	ltpFR	6	2	-1	CREATURE	403	5	-1	n/a	n/a	n/a	n/a	n/a
3337.216	n/a	RECOG_TARGET	1668608	n/a	LTP073	ltpFR	6	2	-1	BLOUSE	139	5	-1	n/a	n/a	n/a	n/a	n/a
3337.87	n/a	RECOG_RESP	1668935	n/a	LTP073	ltpFR	6	2	-1	BLOUSE	139	n/a	-1	n/a	n/a	n/a	n/a	n/a
3338.584	n/a	RECOG_CONF	1669292	n/a	LTP073	ltpFR	6	2	-1	BLOUSE	139	5	-1	n/a	n/a	n/a	n/a	n/a
3340.056	n/a	RECOG_LURE	1670028	n/a	LTP073	ltpFR	6	2	n/a	FRANCE	601	5	n/a	n/a	n/a	n/a	n/a	n/a
3340.818	n/a	RECOG_RESP	1670409	n/a	LTP073	ltpFR	6	2	n/a	FRANCE	601	n/a	n/a	n/a	n/a	n/a	n/a	n/a
3341.666	n/a	RECOG_CONF	1670833	n/a	LTP073	ltpFR	6	2	n/a	FRANCE	601	5	n/a	n/a	n/a	n/a	n/a	n/a
3343.148	n/a	RECOG_LURE	1671574	n/a	LTP073	ltpFR	6	2	n/a	FUDGE	611	4	n/a	n/a	n/a	n/a	n/a	n/a
3344.22	n/a	RECOG_RESP	1672110	n/a	LTP073	ltpFR	6	2	n/a	FUDGE	611	n/a	n/a	n/a	n/a	n/a	n/a	n/a
3345.078	n/a	RECOG_CONF	1672539	n/a	LTP073	ltpFR	6	2	n/a	FUDGE	611	4	n/a	n/a	n/a	n/a	n/a	n/a
3346.472	n/a	RECOG_TARGET	1673236	n/a	LTP073	ltpFR	6	2	0	STREAM	1392	3	1	n/a	n/a	n/a	n/a	n/a
3347.598	n/a	RECOG_RESP	1673799	n/a	LTP073	ltpFR	6	2	0	STREAM	1392	n/a	1	n/a	n/a	n/a	n/a	n/a
3348.75	n/a	RECOG_CONF	1674375	n/a	LTP073	ltpFR	6	2	0	STREAM	1392	3	1	n/a	n/a	n/a	n/a	n/a
3350.214	n/a	RECOG_LURE	1675107	n/a	LTP073	ltpFR	6	2	n/a	LUNCH	849	2	n/a	n/a	n/a	n/a	n/a	n/a
3351.154	n/a	RECOG_RESP	1675577	n/a	LTP073	ltpFR	6	2	n/a	LUNCH	849	n/a	n/a	n/a	n/a	n/a	n/a	n/a
3352.162	n/a	RECOG_CONF	1676081	n/a	LTP073	ltpFR	6	2	n/a	LUNCH	849	2	n/a	n/a	n/a	n/a	n/a	n/a
3364.498	n/a	REC_START	1682249	n/a	LTP073	ltpFR	6	3	n/a	n/a	n/a	n/a	n/a	n/a	n/a	n/a	n/a	n/a
3364.53	n/a	RECOG_TARGET	1682265	n/a	LTP073	ltpFR	6	3	-1	SAW	1239	5	-1	n/a	n/a	n/a	n/a	n/a
3365.58	n/a	RECOG_RESP	1682790	n/a	LTP073	ltpFR	6	3	-1	SAW	1239	n/a	-1	n/a	n/a	n/a	n/a	n/a
3366.25	n/a	RECOG_CONF	1683125	n/a	LTP073	ltpFR	6	3	-1	SAW	1239	5	-1	n/a	n/a	n/a	n/a	n/a
3367.796	n/a	RECOG_TARGET	1683898	n/a	LTP073	ltpFR	6	3	0	CHAIR	274	4	1	n/a	n/a	n/a	n/a	n/a
3369.302	n/a	RECOG_RESP_VV	1684651	n/a	LTP073	ltpFR	6	3	0	CHAIR	274	n/a	1	n/a	n/a	n/a	n/a	n/a
3369.902	n/a	RECOG_RESP	1684951	n/a	LTP073	ltpFR	6	3	0	CHAIR	274	n/a	1	n/a	n/a	n/a	n/a	n/a
3371.088	n/a	RECOG_CONF	1685544	n/a	LTP073	ltpFR	6	3	0	CHAIR	274	4	1	n/a	n/a	n/a	n/a	n/a
3372.514	n/a	RECOG_TARGET	1686257	n/a	LTP073	ltpFR	6	3	1	CASHIER	254	5	1	n/a	n/a	n/a	n/a	n/a
3373.194	n/a	RECOG_RESP	1686597	n/a	LTP073	ltpFR	6	3	1	CASHIER	254	n/a	1	n/a	n/a	n/a	n/a	n/a
3373.782	n/a	RECOG_CONF	1686891	n/a	LTP073	ltpFR	6	3	1	CASHIER	254	5	1	n/a	n/a	n/a	n/a	n/a
3375.206	n/a	RECOG_TARGET	1687603	n/a	LTP073	ltpFR	6	3	1	CUP	424	5	2	n/a	n/a	n/a	n/a	n/a
3376.008	n/a	RECOG_RESP	1688004	n/a	LTP073	ltpFR	6	3	1	CUP	424	n/a	2	n/a	n/a	n/a	n/a	n/a
3376.686	n/a	RECOG_CONF	1688343	n/a	LTP073	ltpFR	6	3	1	CUP	424	5	2	n/a	n/a	n/a	n/a	n/a
3378.08	n/a	RECOG_TARGET	1689040	n/a	LTP073	ltpFR	6	3	-1	LIGHTNING	820	5	-1	n/a	n/a	n/a	n/a	n/a
3378.756	n/a	RECOG_RESP	1689378	n/a	LTP073	ltpFR	6	3	-1	LIGHTNING	820	n/a	-1	n/a	n/a	n/a	n/a	n/a
3379.4	n/a	RECOG_CONF	1689700	n/a	LTP073	ltpFR	6	3	-1	LIGHTNING	820	5	-1	n/a	n/a	n/a	n/a	n/a
3380.788	n/a	RECOG_LURE	1690394	n/a	LTP073	ltpFR	6	3	n/a	SUSPECT	1415	4	n/a	n/a	n/a	n/a	n/a	n/a
3381.55	n/a	RECOG_RESP	1690775	n/a	LTP073	ltpFR	6	3	n/a	SUSPECT	1415	n/a	n/a	n/a	n/a	n/a	n/a	n/a
3382.174	n/a	RECOG_CONF	1691087	n/a	LTP073	ltpFR	6	3	n/a	SUSPECT	1415	4	n/a	n/a	n/a	n/a	n/a	n/a
3383.604	n/a	RECOG_LURE	1691802	n/a	LTP073	ltpFR	6	3	n/a	STRAW	1390	2	n/a	n/a	n/a	n/a	n/a	n/a
3384.518	n/a	RECOG_RESP	1692259	n/a	LTP073	ltpFR	6	3	n/a	STRAW	1390	n/a	n/a	n/a	n/a	n/a	n/a	n/a
3385.996	n/a	RECOG_CONF	1692998	n/a	LTP073	ltpFR	6	3	n/a	STRAW	1390	2	n/a	n/a	n/a	n/a	n/a	n/a
3387.372	n/a	RECOG_LURE	1693686	n/a	LTP073	ltpFR	6	3	n/a	LEVER	815	3	n/a	n/a	n/a	n/a	n/a	n/a
3388.21	n/a	RECOG_RESP	1694105	n/a	LTP073	ltpFR	6	3	n/a	LEVER	815	n/a	n/a	n/a	n/a	n/a	n/a	n/a
3388.988	n/a	RECOG_CONF	1694494	n/a	LTP073	ltpFR	6	3	n/a	LEVER	815	3	n/a	n/a	n/a	n/a	n/a	n/a
3390.33	n/a	RECOG_TARGET	1695165	n/a	LTP073	ltpFR	6	3	1	BUFFALO	186	5	1	n/a	n/a	n/a	n/a	n/a
3390.954	n/a	RECOG_RESP	1695477	n/a	LTP073	ltpFR	6	3	1	BUFFALO	186	n/a	1	n/a	n/a	n/a	n/a	n/a
3391.612	n/a	RECOG_CONF	1695806	n/a	LTP073	ltpFR	6	3	1	BUFFALO	186	5	1	n/a	n/a	n/a	n/a	n/a
3393.004	n/a	RECOG_TARGET	1696502	n/a	LTP073	ltpFR	6	3	0	SNACK	1331	5	0	n/a	n/a	n/a	n/a	n/a
3393.628	n/a	RECOG_RESP	1696814	n/a	LTP073	ltpFR	6	3	0	SNACK	1331	n/a	0	n/a	n/a	n/a	n/a	n/a
3394.216	n/a	RECOG_CONF	1697108	n/a	LTP073	ltpFR	6	3	0	SNACK	1331	5	0	n/a	n/a	n/a	n/a	n/a
3395.638	n/a	RECOG_TARGET	1697819	n/a	LTP073	ltpFR	6	3	0	SOCK	1339	5	0	n/a	n/a	n/a	n/a	n/a
3396.502	n/a	RECOG_RESP_VV	1698251	n/a	LTP073	ltpFR	6	3	0	SOCK	1339	n/a	0	n/a	n/a	n/a	n/a	n/a
3397.2	n/a	RECOG_RESP	1698600	n/a	LTP073	ltpFR	6	3	0	SOCK	1339	n/a	0	n/a	n/a	n/a	n/a	n/a
3398.358	n/a	RECOG_CONF	1699179	n/a	LTP073	ltpFR	6	3	0	SOCK	1339	5	0	n/a	n/a	n/a	n/a	n/a
3399.912	n/a	RECOG_LURE	1699956	n/a	LTP073	ltpFR	6	3	n/a	VITAMIN	1574	4	n/a	n/a	n/a	n/a	n/a	n/a
3400.762	n/a	RECOG_RESP	1700381	n/a	LTP073	ltpFR	6	3	n/a	VITAMIN	1574	n/a	n/a	n/a	n/a	n/a	n/a	n/a
3401.512	n/a	RECOG_CONF	1700756	n/a	LTP073	ltpFR	6	3	n/a	VITAMIN	1574	4	n/a	n/a	n/a	n/a	n/a	n/a
3402.78	n/a	RECOG_TARGET	1701390	n/a	LTP073	ltpFR	6	3	1	OATS	968	5	0	n/a	n/a	n/a	n/a	n/a
3404.046	n/a	RECOG_RESP	1702023	n/a	LTP073	ltpFR	6	3	1	OATS	968	n/a	0	n/a	n/a	n/a	n/a	n/a
3404.814	n/a	RECOG_CONF	1702407	n/a	LTP073	ltpFR	6	3	1	OATS	968	5	0	n/a	n/a	n/a	n/a	n/a
3406.172	n/a	RECOG_TARGET	1703086	n/a	LTP073	ltpFR	6	3	1	SKELETON	1314	5	0	n/a	n/a	n/a	n/a	n/a
3406.968	n/a	RECOG_RESP	1703484	n/a	LTP073	ltpFR	6	3	1	SKELETON	1314	n/a	0	n/a	n/a	n/a	n/a	n/a
3407.618	n/a	RECOG_CONF	1703809	n/a	LTP073	ltpFR	6	3	1	SKELETON	1314	5	0	n/a	n/a	n/a	n/a	n/a
3409.096	n/a	RECOG_TARGET	1704548	n/a	LTP073	ltpFR	6	3	0	VINEGAR	1569	5	0	n/a	n/a	n/a	n/a	n/a
3409.702	n/a	RECOG_RESP	1704851	n/a	LTP073	ltpFR	6	3	0	VINEGAR	1569	n/a	0	n/a	n/a	n/a	n/a	n/a
3410.362	n/a	RECOG_CONF	1705181	n/a	LTP073	ltpFR	6	3	0	VINEGAR	1569	5	0	n/a	n/a	n/a	n/a	n/a
3411.736	n/a	RECOG_TARGET	1705868	n/a	LTP073	ltpFR	6	3	1	PLUMBER	1091	5	1	n/a	n/a	n/a	n/a	n/a
3412.386	n/a	RECOG_RESP	1706193	n/a	LTP073	ltpFR	6	3	1	PLUMBER	1091	n/a	1	n/a	n/a	n/a	n/a	n/a
3412.976	n/a	RECOG_CONF	1706488	n/a	LTP073	ltpFR	6	3	1	PLUMBER	1091	5	1	n/a	n/a	n/a	n/a	n/a
3414.37	n/a	RECOG_TARGET	1707185	n/a	LTP073	ltpFR	6	3	1	LOLLIPOP	842	5	0	n/a	n/a	n/a	n/a	n/a
3415.05	n/a	RECOG_RESP	1707525	n/a	LTP073	ltpFR	6	3	1	LOLLIPOP	842	n/a	0	n/a	n/a	n/a	n/a	n/a
3415.66	n/a	RECOG_CONF	1707830	n/a	LTP073	ltpFR	6	3	1	LOLLIPOP	842	5	0	n/a	n/a	n/a	n/a	n/a
3417.062	n/a	RECOG_LURE	1708531	n/a	LTP073	ltpFR	6	3	n/a	DYNAMITE	511	5	n/a	n/a	n/a	n/a	n/a	n/a
3417.776	n/a	RECOG_RESP	1708888	n/a	LTP073	ltpFR	6	3	n/a	DYNAMITE	511	n/a	n/a	n/a	n/a	n/a	n/a	n/a
3418.434	n/a	RECOG_CONF	1709217	n/a	LTP073	ltpFR	6	3	n/a	DYNAMITE	511	5	n/a	n/a	n/a	n/a	n/a	n/a
3419.82	n/a	RECOG_TARGET	1709910	n/a	LTP073	ltpFR	6	3	-1	PEDAL	1037	5	-1	n/a	n/a	n/a	n/a	n/a
3420.558	n/a	RECOG_RESP	1710279	n/a	LTP073	ltpFR	6	3	-1	PEDAL	1037	n/a	-1	n/a	n/a	n/a	n/a	n/a
3421.278	n/a	RECOG_CONF	1710639	n/a	LTP073	ltpFR	6	3	-1	PEDAL	1037	5	-1	n/a	n/a	n/a	n/a	n/a
3422.612	n/a	RECOG_LURE	1711306	n/a	LTP073	ltpFR	6	3	n/a	PIGMENT	1066	4	n/a	n/a	n/a	n/a	n/a	n/a
3423.412	n/a	RECOG_RESP	1711706	n/a	LTP073	ltpFR	6	3	n/a	PIGMENT	1066	n/a	n/a	n/a	n/a	n/a	n/a	n/a
3424.2	n/a	RECOG_CONF	1712100	n/a	LTP073	ltpFR	6	3	n/a	PIGMENT	1066	4	n/a	n/a	n/a	n/a	n/a	n/a
3428.278	n/a	REC_START	1714139	n/a	LTP073	ltpFR	6	4	n/a	n/a	n/a	n/a	n/a	n/a	n/a	n/a	n/a	n/a
3428.312	n/a	RECOG_TARGET	1714156	n/a	LTP073	ltpFR	6	4	-1	BLOCKADE	137	5	-1	n/a	n/a	n/a	n/a	n/a
3429.132	n/a	RECOG_RESP	1714566	n/a	LTP073	ltpFR	6	4	-1	BLOCKADE	137	n/a	-1	n/a	n/a	n/a	n/a	n/a
3430.05	n/a	RECOG_CONF	1715025	n/a	LTP073	ltpFR	6	4	-1	BLOCKADE	137	5	-1	n/a	n/a	n/a	n/a	n/a
3431.396	n/a	RECOG_TARGET	1715698	n/a	LTP073	ltpFR	6	4	1	CRAYON	401	5	0	n/a	n/a	n/a	n/a	n/a
3432.17	n/a	RECOG_RESP	1716085	n/a	LTP073	ltpFR	6	4	1	CRAYON	401	n/a	0	n/a	n/a	n/a	n/a	n/a
3432.814	n/a	RECOG_CONF	1716407	n/a	LTP073	ltpFR	6	4	1	CRAYON	401	5	0	n/a	n/a	n/a	n/a	n/a
3434.296	n/a	RECOG_LURE	1717148	n/a	LTP073	ltpFR	6	4	n/a	MINK	897	4	n/a	n/a	n/a	n/a	n/a	n/a
3435.516	n/a	RECOG_RESP	1717758	n/a	LTP073	ltpFR	6	4	n/a	MINK	897	n/a	n/a	n/a	n/a	n/a	n/a	n/a
3436.354	n/a	RECOG_CONF	1718177	n/a	LTP073	ltpFR	6	4	n/a	MINK	897	4	n/a	n/a	n/a	n/a	n/a	n/a
3437.696	n/a	RECOG_TARGET	1718848	n/a	LTP073	ltpFR	6	4	0	FARMER	553	5	1	n/a	n/a	n/a	n/a	n/a
3438.352	n/a	RECOG_RESP	1719176	n/a	LTP073	ltpFR	6	4	0	FARMER	553	n/a	1	n/a	n/a	n/a	n/a	n/a
3439.788	n/a	RECOG_CONF	1719894	n/a	LTP073	ltpFR	6	4	0	FARMER	553	5	1	n/a	n/a	n/a	n/a	n/a
3441.338	n/a	RECOG_TARGET	1720669	n/a	LTP073	ltpFR	6	4	1	OTTER	986	4	1	n/a	n/a	n/a	n/a	n/a
3442.442	n/a	RECOG_RESP	1721221	n/a	LTP073	ltpFR	6	4	1	OTTER	986	n/a	1	n/a	n/a	n/a	n/a	n/a
3443.33	n/a	RECOG_CONF	1721665	n/a	LTP073	ltpFR	6	4	1	OTTER	986	4	1	n/a	n/a	n/a	n/a	n/a
3444.812	n/a	RECOG_TARGET	1722406	n/a	LTP073	ltpFR	6	4	-1	FOE	587	5	-1	n/a	n/a	n/a	n/a	n/a
3445.624	n/a	RECOG_RESP	1722812	n/a	LTP073	ltpFR	6	4	-1	FOE	587	n/a	-1	n/a	n/a	n/a	n/a	n/a
3446.324	n/a	RECOG_CONF	1723162	n/a	LTP073	ltpFR	6	4	-1	FOE	587	5	-1	n/a	n/a	n/a	n/a	n/a
3447.686	n/a	RECOG_LURE	1723843	n/a	LTP073	ltpFR	6	4	n/a	METEOR	889	4	n/a	n/a	n/a	n/a	n/a	n/a
3448.478	n/a	RECOG_RESP	1724239	n/a	LTP073	ltpFR	6	4	n/a	METEOR	889	n/a	n/a	n/a	n/a	n/a	n/a	n/a
3449.256	n/a	RECOG_CONF	1724628	n/a	LTP073	ltpFR	6	4	n/a	METEOR	889	4	n/a	n/a	n/a	n/a	n/a	n/a
3450.67	n/a	RECOG_LURE	1725335	n/a	LTP073	ltpFR	6	4	n/a	SIBLING	1301	3	n/a	n/a	n/a	n/a	n/a	n/a
3451.83	n/a	RECOG_RESP	1725915	n/a	LTP073	ltpFR	6	4	n/a	SIBLING	1301	n/a	n/a	n/a	n/a	n/a	n/a	n/a
3452.56	n/a	RECOG_CONF	1726280	n/a	LTP073	ltpFR	6	4	n/a	SIBLING	1301	3	n/a	n/a	n/a	n/a	n/a	n/a
3454.128	n/a	RECOG_LURE	1727064	n/a	LTP073	ltpFR	6	4	n/a	CHEST	295	2	n/a	n/a	n/a	n/a	n/a	n/a
3455.134	n/a	RECOG_RESP	1727567	n/a	LTP073	ltpFR	6	4	n/a	CHEST	295	n/a	n/a	n/a	n/a	n/a	n/a	n/a
3456.48	n/a	RECOG_CONF	1728240	n/a	LTP073	ltpFR	6	4	n/a	CHEST	295	2	n/a	n/a	n/a	n/a	n/a	n/a
3458.052	n/a	RECOG_LURE	1729026	n/a	LTP073	ltpFR	6	4	n/a	VEGETABLE	1552	3	n/a	n/a	n/a	n/a	n/a	n/a
3458.856	n/a	RECOG_RESP	1729428	n/a	LTP073	ltpFR	6	4	n/a	VEGETABLE	1552	n/a	n/a	n/a	n/a	n/a	n/a	n/a
3459.584	n/a	RECOG_CONF	1729792	n/a	LTP073	ltpFR	6	4	n/a	VEGETABLE	1552	3	n/a	n/a	n/a	n/a	n/a	n/a
3461.138	n/a	RECOG_LURE	1730569	n/a	LTP073	ltpFR	6	4	n/a	REPORT	1184	3	n/a	n/a	n/a	n/a	n/a	n/a
3462.488	n/a	RECOG_RESP	1731244	n/a	LTP073	ltpFR	6	4	n/a	REPORT	1184	n/a	n/a	n/a	n/a	n/a	n/a	n/a
3463.276	n/a	RECOG_CONF	1731638	n/a	LTP073	ltpFR	6	4	n/a	REPORT	1184	3	n/a	n/a	n/a	n/a	n/a	n/a
3464.81	n/a	RECOG_TARGET	1732405	n/a	LTP073	ltpFR	6	4	1	SARDINE	1235	5	1	n/a	n/a	n/a	n/a	n/a
3465.49	n/a	RECOG_RESP	1732745	n/a	LTP073	ltpFR	6	4	1	SARDINE	1235	n/a	1	n/a	n/a	n/a	n/a	n/a
3466.012	n/a	RECOG_CONF	1733006	n/a	LTP073	ltpFR	6	4	1	SARDINE	1235	5	1	n/a	n/a	n/a	n/a	n/a
3467.486	n/a	RECOG_TARGET	1733743	n/a	LTP073	ltpFR	6	4	0	SANDPAPER	1231	5	0	n/a	n/a	n/a	n/a	n/a
3468.214	n/a	RECOG_RESP	1734107	n/a	LTP073	ltpFR	6	4	0	SANDPAPER	1231	n/a	0	n/a	n/a	n/a	n/a	n/a
3469.082	n/a	RECOG_CONF	1734541	n/a	LTP073	ltpFR	6	4	0	SANDPAPER	1231	5	0	n/a	n/a	n/a	n/a	n/a
3470.486	n/a	RECOG_LURE	1735243	n/a	LTP073	ltpFR	6	4	n/a	MOLECULE	905	5	n/a	n/a	n/a	n/a	n/a	n/a
3471.402	n/a	RECOG_RESP	1735701	n/a	LTP073	ltpFR	6	4	n/a	MOLECULE	905	n/a	n/a	n/a	n/a	n/a	n/a	n/a
3472.166	n/a	RECOG_CONF	1736083	n/a	LTP073	ltpFR	6	4	n/a	MOLECULE	905	5	n/a	n/a	n/a	n/a	n/a	n/a
3473.536	n/a	RECOG_TARGET	1736768	n/a	LTP073	ltpFR	6	4	0	RAT	1169	5	0	n/a	n/a	n/a	n/a	n/a
3474.26	n/a	RECOG_RESP	1737130	n/a	LTP073	ltpFR	6	4	0	RAT	1169	n/a	0	n/a	n/a	n/a	n/a	n/a
3475.01	n/a	RECOG_CONF	1737505	n/a	LTP073	ltpFR	6	4	0	RAT	1169	5	0	n/a	n/a	n/a	n/a	n/a
3476.352	n/a	RECOG_LURE	1738176	n/a	LTP073	ltpFR	6	4	n/a	MUSTARD	935	3	n/a	n/a	n/a	n/a	n/a	n/a
3478.522	n/a	RECOG_RESP	1739261	n/a	LTP073	ltpFR	6	4	n/a	MUSTARD	935	n/a	n/a	n/a	n/a	n/a	n/a	n/a
3479.27	n/a	RECOG_CONF	1739635	n/a	LTP073	ltpFR	6	4	n/a	MUSTARD	935	3	n/a	n/a	n/a	n/a	n/a	n/a
3480.71	n/a	RECOG_TARGET	1740355	n/a	LTP073	ltpFR	6	4	0	LANDSCAPE	799	5	1	n/a	n/a	n/a	n/a	n/a
3481.326	n/a	RECOG_RESP	1740663	n/a	LTP073	ltpFR	6	4	0	LANDSCAPE	799	n/a	1	n/a	n/a	n/a	n/a	n/a
3482.174	n/a	RECOG_CONF	1741087	n/a	LTP073	ltpFR	6	4	0	LANDSCAPE	799	5	1	n/a	n/a	n/a	n/a	n/a
3483.478	n/a	RECOG_TARGET	1741739	n/a	LTP073	ltpFR	6	4	1	BALLERINA	74	5	1	n/a	n/a	n/a	n/a	n/a
3484.23	n/a	RECOG_RESP	1742115	n/a	LTP073	ltpFR	6	4	1	BALLERINA	74	n/a	1	n/a	n/a	n/a	n/a	n/a
3484.958	n/a	RECOG_CONF	1742479	n/a	LTP073	ltpFR	6	4	1	BALLERINA	74	5	1	n/a	n/a	n/a	n/a	n/a
3486.37	n/a	RECOG_TARGET	1743185	n/a	LTP073	ltpFR	6	4	1	KNAPSACK	783	5	0	n/a	n/a	n/a	n/a	n/a
3487.242	n/a	RECOG_RESP	1743621	n/a	LTP073	ltpFR	6	4	1	KNAPSACK	783	n/a	0	n/a	n/a	n/a	n/a	n/a
3487.95	n/a	RECOG_CONF	1743975	n/a	LTP073	ltpFR	6	4	1	KNAPSACK	783	5	0	n/a	n/a	n/a	n/a	n/a
3489.336	n/a	RECOG_TARGET	1744668	n/a	LTP073	ltpFR	6	4	1	CANDIDATE	228	5	1	n/a	n/a	n/a	n/a	n/a
3490.016	n/a	RECOG_RESP	1745008	n/a	LTP073	ltpFR	6	4	1	CANDIDATE	228	n/a	1	n/a	n/a	n/a	n/a	n/a
3490.664	n/a	RECOG_CONF	1745332	n/a	LTP073	ltpFR	6	4	1	CANDIDATE	228	5	1	n/a	n/a	n/a	n/a	n/a
3496.868	n/a	REC_START	1748434	n/a	LTP073	ltpFR	6	5	n/a	n/a	n/a	n/a	n/a	n/a	n/a	n/a	n/a	n/a
3496.902	n/a	RECOG_LURE	1748451	n/a	LTP073	ltpFR	6	5	n/a	COURT	391	3	n/a	n/a	n/a	n/a	n/a	n/a
3497.852	n/a	RECOG_RESP	1748926	n/a	LTP073	ltpFR	6	5	n/a	COURT	391	n/a	n/a	n/a	n/a	n/a	n/a	n/a
3498.66	n/a	RECOG_CONF	1749330	n/a	LTP073	ltpFR	6	5	n/a	COURT	391	3	n/a	n/a	n/a	n/a	n/a	n/a
3500.0	n/a	RECOG_TARGET	1750000	n/a	LTP073	ltpFR	6	5	0	BULLET	194	5	0	n/a	n/a	n/a	n/a	n/a
3500.686	n/a	RECOG_RESP	1750343	n/a	LTP073	ltpFR	6	5	0	BULLET	194	n/a	0	n/a	n/a	n/a	n/a	n/a
3501.364	n/a	RECOG_CONF	1750682	n/a	LTP073	ltpFR	6	5	0	BULLET	194	5	0	n/a	n/a	n/a	n/a	n/a
3502.852	n/a	RECOG_LURE	1751426	n/a	LTP073	ltpFR	6	5	n/a	JELLY	755	2	n/a	n/a	n/a	n/a	n/a	n/a
3504.068	n/a	RECOG_RESP	1752034	n/a	LTP073	ltpFR	6	5	n/a	JELLY	755	n/a	n/a	n/a	n/a	n/a	n/a	n/a
3506.244	n/a	RECOG_CONF	1753122	n/a	LTP073	ltpFR	6	5	n/a	JELLY	755	2	n/a	n/a	n/a	n/a	n/a	n/a
3507.734	n/a	RECOG_TARGET	1753867	n/a	LTP073	ltpFR	6	5	1	MINT	898	5	0	n/a	n/a	n/a	n/a	n/a
3508.378	n/a	RECOG_RESP	1754189	n/a	LTP073	ltpFR	6	5	1	MINT	898	n/a	0	n/a	n/a	n/a	n/a	n/a
3509.176	n/a	RECOG_CONF	1754588	n/a	LTP073	ltpFR	6	5	1	MINT	898	5	0	n/a	n/a	n/a	n/a	n/a
3510.528	n/a	RECOG_TARGET	1755264	n/a	LTP073	ltpFR	6	5	-1	JUPITER	765	5	-1	n/a	n/a	n/a	n/a	n/a
3511.182	n/a	RECOG_RESP	1755591	n/a	LTP073	ltpFR	6	5	-1	JUPITER	765	n/a	-1	n/a	n/a	n/a	n/a	n/a
3511.85	n/a	RECOG_CONF	1755925	n/a	LTP073	ltpFR	6	5	-1	JUPITER	765	5	-1	n/a	n/a	n/a	n/a	n/a
3513.286	n/a	RECOG_TARGET	1756643	n/a	LTP073	ltpFR	6	5	0	SALIVA	1226	4	0	n/a	n/a	n/a	n/a	n/a
3513.986	n/a	RECOG_RESP	1756993	n/a	LTP073	ltpFR	6	5	0	SALIVA	1226	n/a	0	n/a	n/a	n/a	n/a	n/a
3514.754	n/a	RECOG_CONF	1757377	n/a	LTP073	ltpFR	6	5	0	SALIVA	1226	4	0	n/a	n/a	n/a	n/a	n/a
3516.176	n/a	RECOG_LURE	1758088	n/a	LTP073	ltpFR	6	5	n/a	ASPIRIN	47	4	n/a	n/a	n/a	n/a	n/a	n/a
3517.078	n/a	RECOG_RESP	1758539	n/a	LTP073	ltpFR	6	5	n/a	ASPIRIN	47	n/a	n/a	n/a	n/a	n/a	n/a	n/a
3517.986	n/a	RECOG_CONF	1758993	n/a	LTP073	ltpFR	6	5	n/a	ASPIRIN	47	4	n/a	n/a	n/a	n/a	n/a	n/a
3519.36	n/a	RECOG_TARGET	1759680	n/a	LTP073	ltpFR	6	5	-1	PAPER	1011	5	-1	n/a	n/a	n/a	n/a	n/a
3519.972	n/a	RECOG_RESP	1759986	n/a	LTP073	ltpFR	6	5	-1	PAPER	1011	n/a	-1	n/a	n/a	n/a	n/a	n/a
3520.71	n/a	RECOG_CONF	1760355	n/a	LTP073	ltpFR	6	5	-1	PAPER	1011	5	-1	n/a	n/a	n/a	n/a	n/a
3522.268	n/a	RECOG_TARGET	1761134	n/a	LTP073	ltpFR	6	5	0	FOX	598	5	1	n/a	n/a	n/a	n/a	n/a
3522.966	n/a	RECOG_RESP	1761483	n/a	LTP073	ltpFR	6	5	0	FOX	598	n/a	1	n/a	n/a	n/a	n/a	n/a
3523.624	n/a	RECOG_CONF	1761812	n/a	LTP073	ltpFR	6	5	0	FOX	598	5	1	n/a	n/a	n/a	n/a	n/a
3525.052	n/a	RECOG_LURE	1762526	n/a	LTP073	ltpFR	6	5	n/a	MOUNTAIN	924	4	n/a	n/a	n/a	n/a	n/a	n/a
3526.318	n/a	RECOG_RESP	1763159	n/a	LTP073	ltpFR	6	5	n/a	MOUNTAIN	924	n/a	n/a	n/a	n/a	n/a	n/a	n/a
3527.186	n/a	RECOG_CONF	1763593	n/a	LTP073	ltpFR	6	5	n/a	MOUNTAIN	924	4	n/a	n/a	n/a	n/a	n/a	n/a
3528.536	n/a	RECOG_TARGET	1764268	n/a	LTP073	ltpFR	6	5	1	RAM	1165	5	1	n/a	n/a	n/a	n/a	n/a
3529.152	n/a	RECOG_RESP	1764576	n/a	LTP073	ltpFR	6	5	1	RAM	1165	n/a	1	n/a	n/a	n/a	n/a	n/a
3529.79	n/a	RECOG_CONF	1764895	n/a	LTP073	ltpFR	6	5	1	RAM	1165	5	1	n/a	n/a	n/a	n/a	n/a
3531.218	n/a	RECOG_TARGET	1765609	n/a	LTP073	ltpFR	6	5	-1	MUSHROOM	934	5	-1	n/a	n/a	n/a	n/a	n/a
3531.866	n/a	RECOG_RESP	1765933	n/a	LTP073	ltpFR	6	5	-1	MUSHROOM	934	n/a	-1	n/a	n/a	n/a	n/a	n/a
3532.584	n/a	RECOG_CONF	1766292	n/a	LTP073	ltpFR	6	5	-1	MUSHROOM	934	5	-1	n/a	n/a	n/a	n/a	n/a
3534.058	n/a	RECOG_LURE	1767029	n/a	LTP073	ltpFR	6	5	n/a	ALMANAC	17	5	n/a	n/a	n/a	n/a	n/a	n/a
3534.84	n/a	RECOG_RESP_VV	1767420	n/a	LTP073	ltpFR	6	5	n/a	ALMANAC	17	n/a	n/a	n/a	n/a	n/a	n/a	n/a
3536.634	n/a	RECOG_RESP	1768317	n/a	LTP073	ltpFR	6	5	n/a	ALMANAC	17	n/a	n/a	n/a	n/a	n/a	n/a	n/a
3537.942	n/a	RECOG_CONF	1768971	n/a	LTP073	ltpFR	6	5	n/a	ALMANAC	17	5	n/a	n/a	n/a	n/a	n/a	n/a
3539.418	n/a	RECOG_TARGET	1769709	n/a	LTP073	ltpFR	6	5	0	PALM	1007	2	0	n/a	n/a	n/a	n/a	n/a
3541.014	n/a	RECOG_RESP_VV	1770507	n/a	LTP073	ltpFR	6	5	0	PALM	1007	n/a	0	n/a	n/a	n/a	n/a	n/a
3543.102	n/a	RECOG_RESP	1771551	n/a	LTP073	ltpFR	6	5	0	PALM	1007	n/a	0	n/a	n/a	n/a	n/a	n/a
3544.368	n/a	RECOG_CONF	1772184	n/a	LTP073	ltpFR	6	5	0	PALM	1007	2	0	n/a	n/a	n/a	n/a	n/a
3545.918	n/a	RECOG_TARGET	1772959	n/a	LTP073	ltpFR	6	5	0	BEARD	107	5	0	n/a	n/a	n/a	n/a	n/a
3547.072	n/a	RECOG_RESP	1773536	n/a	LTP073	ltpFR	6	5	0	BEARD	107	n/a	0	n/a	n/a	n/a	n/a	n/a
3547.85	n/a	RECOG_CONF	1773925	n/a	LTP073	ltpFR	6	5	0	BEARD	107	5	0	n/a	n/a	n/a	n/a	n/a
3549.176	n/a	RECOG_TARGET	1774588	n/a	LTP073	ltpFR	6	5	0	BREAD	170	5	0	n/a	n/a	n/a	n/a	n/a
3549.866	n/a	RECOG_RESP	1774933	n/a	LTP073	ltpFR	6	5	0	BREAD	170	n/a	0	n/a	n/a	n/a	n/a	n/a
3550.464	n/a	RECOG_CONF	1775232	n/a	LTP073	ltpFR	6	5	0	BREAD	170	5	0	n/a	n/a	n/a	n/a	n/a
3551.876	n/a	RECOG_TARGET	1775938	n/a	LTP073	ltpFR	6	5	1	COOKBOOK	373	3	0	n/a	n/a	n/a	n/a	n/a
3552.87	n/a	RECOG_RESP	1776435	n/a	LTP073	ltpFR	6	5	1	COOKBOOK	373	n/a	0	n/a	n/a	n/a	n/a	n/a
3554.206	n/a	RECOG_CONF	1777103	n/a	LTP073	ltpFR	6	5	1	COOKBOOK	373	3	0	n/a	n/a	n/a	n/a	n/a
3555.65	n/a	RECOG_LURE	1777825	n/a	LTP073	ltpFR	6	5	n/a	PAIL	1002	5	n/a	n/a	n/a	n/a	n/a	n/a
3556.95	n/a	RECOG_RESP	1778475	n/a	LTP073	ltpFR	6	5	n/a	PAIL	1002	n/a	n/a	n/a	n/a	n/a	n/a	n/a
3557.748	n/a	RECOG_CONF	1778874	n/a	LTP073	ltpFR	6	5	n/a	PAIL	1002	5	n/a	n/a	n/a	n/a	n/a	n/a
3559.058	n/a	RECOG_TARGET	1779529	n/a	LTP073	ltpFR	6	5	-1	SPACE	1345	5	-1	n/a	n/a	n/a	n/a	n/a
3559.942	n/a	RECOG_RESP	1779971	n/a	LTP073	ltpFR	6	5	-1	SPACE	1345	n/a	-1	n/a	n/a	n/a	n/a	n/a
3560.662	n/a	RECOG_CONF	1780331	n/a	LTP073	ltpFR	6	5	-1	SPACE	1345	5	-1	n/a	n/a	n/a	n/a	n/a
3562.142	n/a	RECOG_LURE	1781071	n/a	LTP073	ltpFR	6	5	n/a	ATTIC	56	4	n/a	n/a	n/a	n/a	n/a	n/a
3564.044	n/a	RECOG_RESP	1782022	n/a	LTP073	ltpFR	6	5	n/a	ATTIC	56	n/a	n/a	n/a	n/a	n/a	n/a	n/a
3564.802	n/a	RECOG_CONF	1782401	n/a	LTP073	ltpFR	6	5	n/a	ATTIC	56	4	n/a	n/a	n/a	n/a	n/a	n/a
3569.422	n/a	REC_START	1784711	n/a	LTP073	ltpFR	6	6	n/a	n/a	n/a	n/a	n/a	n/a	n/a	n/a	n/a	n/a
3569.46	n/a	RECOG_TARGET	1784730	n/a	LTP073	ltpFR	6	6	0	HOOP	716	5	1	n/a	n/a	n/a	n/a	n/a
3571.134	n/a	RECOG_RESP	1785567	n/a	LTP073	ltpFR	6	6	0	HOOP	716	n/a	1	n/a	n/a	n/a	n/a	n/a
3572.202	n/a	RECOG_CONF	1786101	n/a	LTP073	ltpFR	6	6	0	HOOP	716	5	1	n/a	n/a	n/a	n/a	n/a
3573.866	n/a	RECOG_LURE	1786933	n/a	LTP073	ltpFR	6	6	n/a	RECEPTIONIST	1174	3	n/a	n/a	n/a	n/a	n/a	n/a
3574.95	n/a	RECOG_RESP	1787475	n/a	LTP073	ltpFR	6	6	n/a	RECEPTIONIST	1174	n/a	n/a	n/a	n/a	n/a	n/a	n/a
3575.982	n/a	RECOG_CONF	1787991	n/a	LTP073	ltpFR	6	6	n/a	RECEPTIONIST	1174	3	n/a	n/a	n/a	n/a	n/a	n/a
3577.434	n/a	RECOG_TARGET	1788717	n/a	LTP073	ltpFR	6	6	-1	SILVERWARE	1308	3	-1	n/a	n/a	n/a	n/a	n/a
3578.622	n/a	RECOG_RESP	1789311	n/a	LTP073	ltpFR	6	6	-1	SILVERWARE	1308	n/a	-1	n/a	n/a	n/a	n/a	n/a
3579.654	n/a	RECOG_CONF	1789827	n/a	LTP073	ltpFR	6	6	-1	SILVERWARE	1308	3	-1	n/a	n/a	n/a	n/a	n/a
3581.142	n/a	RECOG_LURE	1790571	n/a	LTP073	ltpFR	6	6	n/a	SHEET	1279	3	n/a	n/a	n/a	n/a	n/a	n/a
3582.128	n/a	RECOG_RESP	1791064	n/a	LTP073	ltpFR	6	6	n/a	SHEET	1279	n/a	n/a	n/a	n/a	n/a	n/a	n/a
3582.906	n/a	RECOG_CONF	1791453	n/a	LTP073	ltpFR	6	6	n/a	SHEET	1279	3	n/a	n/a	n/a	n/a	n/a	n/a
3584.384	n/a	RECOG_LURE	1792192	n/a	LTP073	ltpFR	6	6	n/a	COBWEB	337	4	n/a	n/a	n/a	n/a	n/a	n/a
3585.202	n/a	RECOG_RESP	1792601	n/a	LTP073	ltpFR	6	6	n/a	COBWEB	337	n/a	n/a	n/a	n/a	n/a	n/a	n/a
3585.99	n/a	RECOG_CONF	1792995	n/a	LTP073	ltpFR	6	6	n/a	COBWEB	337	4	n/a	n/a	n/a	n/a	n/a	n/a
3587.318	n/a	RECOG_TARGET	1793659	n/a	LTP073	ltpFR	6	6	0	SEA	1259	5	1	n/a	n/a	n/a	n/a	n/a
3587.846	n/a	RECOG_RESP	1793923	n/a	LTP073	ltpFR	6	6	0	SEA	1259	n/a	1	n/a	n/a	n/a	n/a	n/a
3588.466	n/a	RECOG_CONF	1794233	n/a	LTP073	ltpFR	6	6	0	SEA	1259	5	1	n/a	n/a	n/a	n/a	n/a
3589.882	n/a	RECOG_LURE	1794941	n/a	LTP073	ltpFR	6	6	n/a	CABIN	211	2	n/a	n/a	n/a	n/a	n/a	n/a
3591.06	n/a	RECOG_RESP	1795530	n/a	LTP073	ltpFR	6	6	n/a	CABIN	211	n/a	n/a	n/a	n/a	n/a	n/a	n/a
3591.788	n/a	RECOG_CONF	1795894	n/a	LTP073	ltpFR	6	6	n/a	CABIN	211	2	n/a	n/a	n/a	n/a	n/a	n/a
3593.166	n/a	RECOG_TARGET	1796583	n/a	LTP073	ltpFR	6	6	0	FAIRY	549	5	1	n/a	n/a	n/a	n/a	n/a
3593.902	n/a	RECOG_RESP	1796951	n/a	LTP073	ltpFR	6	6	0	FAIRY	549	n/a	1	n/a	n/a	n/a	n/a	n/a
3594.602	n/a	RECOG_CONF	1797301	n/a	LTP073	ltpFR	6	6	0	FAIRY	549	5	1	n/a	n/a	n/a	n/a	n/a
3596.016	n/a	RECOG_TARGET	1798008	n/a	LTP073	ltpFR	6	6	0	GUM	672	5	0	n/a	n/a	n/a	n/a	n/a
3596.856	n/a	RECOG_RESP	1798428	n/a	LTP073	ltpFR	6	6	0	GUM	672	n/a	0	n/a	n/a	n/a	n/a	n/a
3597.504	n/a	RECOG_CONF	1798752	n/a	LTP073	ltpFR	6	6	0	GUM	672	5	0	n/a	n/a	n/a	n/a	n/a
3598.848	n/a	RECOG_TARGET	1799424	n/a	LTP073	ltpFR	6	6	1	DOVE	491	5	1	n/a	n/a	n/a	n/a	n/a
3599.554	n/a	RECOG_RESP	1799777	n/a	LTP073	ltpFR	6	6	1	DOVE	491	n/a	1	n/a	n/a	n/a	n/a	n/a
3600.228	n/a	RECOG_CONF	1800114	n/a	LTP073	ltpFR	6	6	1	DOVE	491	5	1	n/a	n/a	n/a	n/a	n/a
3601.64	n/a	RECOG_TARGET	1800820	n/a	LTP073	ltpFR	6	6	0	EMPLOYEE	531	5	1	n/a	n/a	n/a	n/a	n/a
3602.588	n/a	RECOG_RESP	1801294	n/a	LTP073	ltpFR	6	6	0	EMPLOYEE	531	n/a	1	n/a	n/a	n/a	n/a	n/a
3603.212	n/a	RECOG_CONF	1801606	n/a	LTP073	ltpFR	6	6	0	EMPLOYEE	531	5	1	n/a	n/a	n/a	n/a	n/a
3604.656	n/a	RECOG_TARGET	1802328	n/a	LTP073	ltpFR	6	6	0	SHOVEL	1295	4	1	n/a	n/a	n/a	n/a	n/a
3605.628	n/a	RECOG_RESP	1802814	n/a	LTP073	ltpFR	6	6	0	SHOVEL	1295	n/a	1	n/a	n/a	n/a	n/a	n/a
3606.446	n/a	RECOG_CONF	1803223	n/a	LTP073	ltpFR	6	6	0	SHOVEL	1295	4	1	n/a	n/a	n/a	n/a	n/a
3607.774	n/a	RECOG_TARGET	1803887	n/a	LTP073	ltpFR	6	6	1	SHIRT	1287	5	0	n/a	n/a	n/a	n/a	n/a
3608.53	n/a	RECOG_RESP_VV	1804265	n/a	LTP073	ltpFR	6	6	1	SHIRT	1287	n/a	0	n/a	n/a	n/a	n/a	n/a
3609.14	n/a	RECOG_RESP	1804570	n/a	LTP073	ltpFR	6	6	1	SHIRT	1287	n/a	0	n/a	n/a	n/a	n/a	n/a
3610.196	n/a	RECOG_CONF	1805098	n/a	LTP073	ltpFR	6	6	1	SHIRT	1287	5	0	n/a	n/a	n/a	n/a	n/a
3611.782	n/a	RECOG_TARGET	1805891	n/a	LTP073	ltpFR	6	6	1	MARGARINE	868	5	0	n/a	n/a	n/a	n/a	n/a
3612.622	n/a	RECOG_RESP	1806311	n/a	LTP073	ltpFR	6	6	1	MARGARINE	868	n/a	0	n/a	n/a	n/a	n/a	n/a
3613.28	n/a	RECOG_CONF	1806640	n/a	LTP073	ltpFR	6	6	1	MARGARINE	868	5	0	n/a	n/a	n/a	n/a	n/a
3614.69	n/a	RECOG_TARGET	1807345	n/a	LTP073	ltpFR	6	6	1	CONVICT	371	5	1	n/a	n/a	n/a	n/a	n/a
3615.434	n/a	RECOG_RESP	1807717	n/a	LTP073	ltpFR	6	6	1	CONVICT	371	n/a	1	n/a	n/a	n/a	n/a	n/a
3615.964	n/a	RECOG_CONF	1807982	n/a	LTP073	ltpFR	6	6	1	CONVICT	371	5	1	n/a	n/a	n/a	n/a	n/a
3617.532	n/a	RECOG_TARGET	1808766	n/a	LTP073	ltpFR	6	6	0	MAILBOX	857	5	1	n/a	n/a	n/a	n/a	n/a
3618.138	n/a	RECOG_RESP	1809069	n/a	LTP073	ltpFR	6	6	0	MAILBOX	857	n/a	1	n/a	n/a	n/a	n/a	n/a
3618.718	n/a	RECOG_CONF	1809359	n/a	LTP073	ltpFR	6	6	0	MAILBOX	857	5	1	n/a	n/a	n/a	n/a	n/a
3620.208	n/a	RECOG_TARGET	1810104	n/a	LTP073	ltpFR	6	6	1	WAITER	1580	4	1	n/a	n/a	n/a	n/a	n/a
3621.85	n/a	RECOG_RESP	1810925	n/a	LTP073	ltpFR	6	6	1	WAITER	1580	n/a	1	n/a	n/a	n/a	n/a	n/a
3623.506	n/a	RECOG_CONF	1811753	n/a	LTP073	ltpFR	6	6	1	WAITER	1580	4	1	n/a	n/a	n/a	n/a	n/a
3625.106	n/a	RECOG_TARGET	1812553	n/a	LTP073	ltpFR	6	6	0	TOMBSTONE	1478	5	1	n/a	n/a	n/a	n/a	n/a
3626.2	n/a	RECOG_RESP	1813100	n/a	LTP073	ltpFR	6	6	0	TOMBSTONE	1478	n/a	1	n/a	n/a	n/a	n/a	n/a
3626.94	n/a	RECOG_CONF	1813470	n/a	LTP073	ltpFR	6	6	0	TOMBSTONE	1478	5	1	n/a	n/a	n/a	n/a	n/a
3628.274	n/a	RECOG_TARGET	1814137	n/a	LTP073	ltpFR	6	6	0	OWL	992	5	0	n/a	n/a	n/a	n/a	n/a
3628.916	n/a	RECOG_RESP	1814458	n/a	LTP073	ltpFR	6	6	0	OWL	992	n/a	0	n/a	n/a	n/a	n/a	n/a
3629.472	n/a	RECOG_CONF	1814736	n/a	LTP073	ltpFR	6	6	0	OWL	992	5	0	n/a	n/a	n/a	n/a	n/a
3630.89	n/a	RECOG_TARGET	1815445	n/a	LTP073	ltpFR	6	6	0	CYLINDER	432	5	0	n/a	n/a	n/a	n/a	n/a
3631.608	n/a	RECOG_RESP	1815804	n/a	LTP073	ltpFR	6	6	0	CYLINDER	432	n/a	0	n/a	n/a	n/a	n/a	n/a
3632.148	n/a	RECOG_CONF	1816074	n/a	LTP073	ltpFR	6	6	0	CYLINDER	432	5	0	n/a	n/a	n/a	n/a	n/a
3638.324	n/a	REC_START	1819162	n/a	LTP073	ltpFR	6	7	n/a	n/a	n/a	n/a	n/a	n/a	n/a	n/a	n/a	n/a
3638.358	n/a	RECOG_LURE	1819179	n/a	LTP073	ltpFR	6	7	n/a	SENATOR	1268	2	n/a	n/a	n/a	n/a	n/a	n/a
3640.872	n/a	RECOG_RESP	1820436	n/a	LTP073	ltpFR	6	7	n/a	SENATOR	1268	n/a	n/a	n/a	n/a	n/a	n/a	n/a
3641.74	n/a	RECOG_CONF	1820870	n/a	LTP073	ltpFR	6	7	n/a	SENATOR	1268	2	n/a	n/a	n/a	n/a	n/a	n/a
3643.182	n/a	RECOG_TARGET	1821591	n/a	LTP073	ltpFR	6	7	1	PROFESSIONAL	1130	5	1	n/a	n/a	n/a	n/a	n/a
3643.946	n/a	RECOG_RESP	1821973	n/a	LTP073	ltpFR	6	7	1	PROFESSIONAL	1130	n/a	1	n/a	n/a	n/a	n/a	n/a
3644.484	n/a	RECOG_CONF	1822242	n/a	LTP073	ltpFR	6	7	1	PROFESSIONAL	1130	5	1	n/a	n/a	n/a	n/a	n/a
3645.888	n/a	RECOG_TARGET	1822944	n/a	LTP073	ltpFR	6	7	1	BRICK	172	5	0	n/a	n/a	n/a	n/a	n/a
