onset	duration	trial_type	sample	stim_file	subject	experiment	session	trial	task	item_name	item_num	recog_resp	recog_conf	resp	answer	test_x	test_y	test_z	color_r	color_g	color_b	case	font
200.816	n/a	SESS_START	100408	n/a	LTP279	ltpFR	12	n/a	n/a	n/a	n/a	1	n/a	n/a	n/a	0	0	0	n/a	n/a	n/a	n/a	n/a
243.866	n/a	START	121933	n/a	LTP279	ltpFR	12	n/a	n/a	n/a	n/a	n/a	n/a	n/a	n/a	n/a	n/a	n/a	n/a	n/a	n/a	n/a	n/a
243.898	n/a	PROB	121949	n/a	LTP279	ltpFR	12	n/a	n/a	n/a	n/a	n/a	n/a	n/a	15	1	9	5	n/a	n/a	n/a	n/a	n/a
245.662	n/a	PROB	122831	n/a	LTP279	ltpFR	12	n/a	n/a	n/a	n/a	n/a	n/a	n/a	11	1	7	3	n/a	n/a	n/a	n/a	n/a
247.096	n/a	PROB	123548	n/a	LTP279	ltpFR	12	n/a	n/a	n/a	n/a	n/a	n/a	n/a	12	2	5	5	n/a	n/a	n/a	n/a	n/a
248.294	n/a	PROB	124147	n/a	LTP279	ltpFR	12	n/a	n/a	n/a	n/a	n/a	n/a	n/a	13	6	2	7	n/a	n/a	n/a	n/a	n/a
250.09	n/a	PROB	125045	n/a	LTP279	ltpFR	12	n/a	n/a	n/a	n/a	n/a	n/a	n/a	12	4	3	5	n/a	n/a	n/a	n/a	n/a
252.17	n/a	PROB	126085	n/a	LTP279	ltpFR	12	n/a	n/a	n/a	n/a	n/a	n/a	n/a	14	1	6	7	n/a	n/a	n/a	n/a	n/a
254.068	n/a	PROB	127034	n/a	LTP279	ltpFR	12	n/a	n/a	n/a	n/a	n/a	n/a	n/a	22	6	7	6	n/a	n/a	n/a	n/a	n/a
256.098	n/a	PROB	128049	n/a	LTP279	ltpFR	12	n/a	n/a	n/a	n/a	n/a	n/a	n/a	12	4	2	6	n/a	n/a	n/a	n/a	n/a
257.778	n/a	PROB	128889	n/a	LTP279	ltpFR	12	n/a	n/a	n/a	n/a	n/a	n/a	n/a	11	3	2	6	n/a	n/a	n/a	n/a	n/a
259.426	n/a	PROB	129713	n/a	LTP279	ltpFR	12	n/a	n/a	n/a	n/a	n/a	n/a	n/a	19	9	4	6	n/a	n/a	n/a	n/a	n/a
261.522	n/a	PROB	130761	n/a	LTP279	ltpFR	12	n/a	n/a	n/a	n/a	n/a	n/a	n/a	19	6	9	4	n/a	n/a	n/a	n/a	n/a
263.24	n/a	STOP	131620	n/a	LTP279	ltpFR	12	n/a	n/a	n/a	n/a	n/a	n/a	n/a	n/a	n/a	n/a	n/a	n/a	n/a	n/a	n/a	n/a
309.236	n/a	WORD	154618	wordpools/wasnorm_wordpool_less_exclusions.txt	LTP279	ltpFR	12	1	0	GUM	672	n/a	n/a	0	n/a	0	0	0	0.57763671875	0.412841796875	1	upper	zerothre.ttf
313.23	n/a	WORD	156615	wordpools/wasnorm_wordpool_less_exclusions.txt	LTP279	ltpFR	12	1	0	GARAGE	621	n/a	n/a	0	n/a	0	0	0	0.57763671875	0.412841796875	1	upper	zerothre.ttf
317.292	n/a	WORD	158646	wordpools/wasnorm_wordpool_less_exclusions.txt	LTP279	ltpFR	12	1	0	LIMB	822	n/a	n/a	0	n/a	0	0	0	0.57763671875	0.412841796875	1	upper	zerothre.ttf
321.236	n/a	WORD	160618	wordpools/wasnorm_wordpool_less_exclusions.txt	LTP279	ltpFR	12	1	0	STABLE	1363	n/a	n/a	1	n/a	0	0	0	0.57763671875	0.412841796875	1	upper	zerothre.ttf
325.096	n/a	WORD	162548	wordpools/wasnorm_wordpool_less_exclusions.txt	LTP279	ltpFR	12	1	0	CARRIAGE	248	n/a	n/a	0	n/a	0	0	0	0.57763671875	0.412841796875	1	upper	zerothre.ttf
328.99	n/a	WORD	164495	wordpools/wasnorm_wordpool_less_exclusions.txt	LTP279	ltpFR	12	1	0	HAWK	692	n/a	n/a	0	n/a	0	0	0	0.57763671875	0.412841796875	1	upper	zerothre.ttf
333.118	n/a	WORD	166559	wordpools/wasnorm_wordpool_less_exclusions.txt	LTP279	ltpFR	12	1	1	BEAVER	109	n/a	n/a	1	n/a	0	0	0	0.422607421875	0.5869140625	0	lower	amplitud.ttf
337.094	n/a	WORD	168547	wordpools/wasnorm_wordpool_less_exclusions.txt	LTP279	ltpFR	12	1	1	MECHANIC	884	n/a	n/a	1	n/a	0	0	0	0.422607421875	0.5869140625	0	lower	amplitud.ttf
341.206	n/a	WORD	170603	wordpools/wasnorm_wordpool_less_exclusions.txt	LTP279	ltpFR	12	1	1	WRENCH	1625	n/a	n/a	0	n/a	0	0	0	0.422607421875	0.5869140625	0	lower	amplitud.ttf
345.15	n/a	WORD	172575	wordpools/wasnorm_wordpool_less_exclusions.txt	LTP279	ltpFR	12	1	1	MOOSE	915	n/a	n/a	0	n/a	0	0	0	0.422607421875	0.5869140625	0	lower	amplitud.ttf
349.01	n/a	WORD	174505	wordpools/wasnorm_wordpool_less_exclusions.txt	LTP279	ltpFR	12	1	0	CITRUS	313	n/a	n/a	0	n/a	0	0	0	0.57763671875	0.412841796875	1	upper	zerothre.ttf
353.204	n/a	WORD	176602	wordpools/wasnorm_wordpool_less_exclusions.txt	LTP279	ltpFR	12	1	0	UMPIRE	1535	n/a	n/a	0	n/a	0	0	0	0.57763671875	0.412841796875	1	upper	zerothre.ttf
357.38	n/a	WORD	178690	wordpools/wasnorm_wordpool_less_exclusions.txt	LTP279	ltpFR	12	1	1	FOOTBALL	591	n/a	n/a	0	n/a	0	0	0	0.422607421875	0.5869140625	0	lower	amplitud.ttf
361.59	n/a	WORD	180795	wordpools/wasnorm_wordpool_less_exclusions.txt	LTP279	ltpFR	12	1	1	CHIPMUNK	304	n/a	n/a	1	n/a	0	0	0	0.422607421875	0.5869140625	0	lower	amplitud.ttf
365.436	n/a	WORD	182718	wordpools/wasnorm_wordpool_less_exclusions.txt	LTP279	ltpFR	12	1	1	WHALE	1601	n/a	n/a	1	n/a	0	0	0	0.422607421875	0.5869140625	0	lower	amplitud.ttf
369.364	n/a	WORD	184682	wordpools/wasnorm_wordpool_less_exclusions.txt	LTP279	ltpFR	12	1	1	PUMPKIN	1142	n/a	n/a	0	n/a	0	0	0	0.422607421875	0.5869140625	0	lower	amplitud.ttf
372.376	n/a	START	186188	n/a	LTP279	ltpFR	12	n/a	n/a	n/a	n/a	n/a	n/a	n/a	n/a	n/a	n/a	n/a	n/a	n/a	n/a	n/a	n/a
373.374	n/a	PROB	186687	n/a	LTP279	ltpFR	12	n/a	n/a	n/a	n/a	n/a	n/a	n/a	19	8	6	5	n/a	n/a	n/a	n/a	n/a
376.188	n/a	PROB	188094	n/a	LTP279	ltpFR	12	n/a	n/a	n/a	n/a	n/a	n/a	n/a	15	2	8	5	n/a	n/a	n/a	n/a	n/a
378.434	n/a	PROB	189217	n/a	LTP279	ltpFR	12	n/a	n/a	n/a	n/a	n/a	n/a	n/a	10	8	1	1	n/a	n/a	n/a	n/a	n/a
379.89	n/a	STOP	189945	n/a	LTP279	ltpFR	12	n/a	n/a	n/a	n/a	n/a	n/a	n/a	n/a	n/a	n/a	n/a	n/a	n/a	n/a	n/a	n/a
382.312	n/a	REC_START	191156	n/a	LTP279	ltpFR	12	1	n/a	n/a	n/a	n/a	n/a	n/a	n/a	0	0	0	n/a	n/a	n/a	n/a	n/a
383.426	n/a	REC_WORD	191713	wordpools/wasnorm_wordpool_less_exclusions.txt	LTP279	ltpFR	12	1	1	CHIPMUNK	304	n/a	n/a	1	n/a	0	0	0	n/a	n/a	n/a	n/a	n/a
384.386	n/a	REC_WORD	192193	wordpools/wasnorm_wordpool_less_exclusions.txt	LTP279	ltpFR	12	1	1	WHALE	1601	n/a	n/a	1	n/a	0	0	0	n/a	n/a	n/a	n/a	n/a
385.74	n/a	REC_WORD	192870	wordpools/wasnorm_wordpool_less_exclusions.txt	LTP279	ltpFR	12	1	1	PUMPKIN	1142	n/a	n/a	0	n/a	0	0	0	n/a	n/a	n/a	n/a	n/a
386.856	n/a	REC_WORD	193428	wordpools/wasnorm_wordpool_less_exclusions.txt	LTP279	ltpFR	12	1	1	MOOSE	915	n/a	n/a	0	n/a	0	0	0	n/a	n/a	n/a	n/a	n/a
387.994	n/a	REC_WORD	193997	wordpools/wasnorm_wordpool_less_exclusions.txt	LTP279	ltpFR	12	1	0	CITRUS	313	n/a	n/a	0	n/a	0	0	0	n/a	n/a	n/a	n/a	n/a
389.598	n/a	REC_WORD	194799	wordpools/wasnorm_wordpool_less_exclusions.txt	LTP279	ltpFR	12	1	0	UMPIRE	1535	n/a	n/a	0	n/a	0	0	0	n/a	n/a	n/a	n/a	n/a
390.814	n/a	REC_WORD	195407	wordpools/wasnorm_wordpool_less_exclusions.txt	LTP279	ltpFR	12	1	1	FOOTBALL	591	n/a	n/a	0	n/a	0	0	0	n/a	n/a	n/a	n/a	n/a
393.642	n/a	REC_WORD	196821	wordpools/wasnorm_wordpool_less_exclusions.txt	LTP279	ltpFR	12	1	0	GARAGE	621	n/a	n/a	0	n/a	0	0	0	n/a	n/a	n/a	n/a	n/a
394.916	n/a	REC_WORD	197458	wordpools/wasnorm_wordpool_less_exclusions.txt	LTP279	ltpFR	12	1	0	GUM	672	n/a	n/a	0	n/a	0	0	0	n/a	n/a	n/a	n/a	n/a
396.132	n/a	REC_WORD	198066	wordpools/wasnorm_wordpool_less_exclusions.txt	LTP279	ltpFR	12	1	0	LIMB	822	n/a	n/a	0	n/a	0	0	0	n/a	n/a	n/a	n/a	n/a
398.982	n/a	REC_WORD	199491	wordpools/wasnorm_wordpool_less_exclusions.txt	LTP279	ltpFR	12	1	0	STABLE	1363	n/a	n/a	1	n/a	0	0	0	n/a	n/a	n/a	n/a	n/a
400.164	n/a	REC_WORD	200082	wordpools/wasnorm_wordpool_less_exclusions.txt	LTP279	ltpFR	12	1	0	CARRIAGE	248	n/a	n/a	0	n/a	0	0	0	n/a	n/a	n/a	n/a	n/a
401.458	n/a	REC_WORD	200729	wordpools/wasnorm_wordpool_less_exclusions.txt	LTP279	ltpFR	12	1	0	HAWK	692	n/a	n/a	0	n/a	0	0	0	n/a	n/a	n/a	n/a	n/a
402.566	n/a	REC_WORD	201283	wordpools/wasnorm_wordpool_less_exclusions.txt	LTP279	ltpFR	12	1	1	BEAVER	109	n/a	n/a	1	n/a	0	0	0	n/a	n/a	n/a	n/a	n/a
403.762	n/a	REC_WORD	201881	wordpools/wasnorm_wordpool_less_exclusions.txt	LTP279	ltpFR	12	1	1	MECHANIC	884	n/a	n/a	1	n/a	0	0	0	n/a	n/a	n/a	n/a	n/a
405.078	n/a	REC_WORD	202539	wordpools/wasnorm_wordpool_less_exclusions.txt	LTP279	ltpFR	12	1	1	WRENCH	1625	n/a	n/a	0	n/a	0	0	0	n/a	n/a	n/a	n/a	n/a
480.898	n/a	START	240449	n/a	LTP279	ltpFR	12	n/a	n/a	n/a	n/a	n/a	n/a	n/a	n/a	n/a	n/a	n/a	n/a	n/a	n/a	n/a	n/a
482.412	n/a	PROB	241206	n/a	LTP279	ltpFR	12	n/a	n/a	n/a	n/a	n/a	n/a	n/a	22	9	7	6	n/a	n/a	n/a	n/a	n/a
485.126	n/a	PROB	242563	n/a	LTP279	ltpFR	12	n/a	n/a	n/a	n/a	n/a	n/a	n/a	12	6	4	2	n/a	n/a	n/a	n/a	n/a
486.49	n/a	PROB	243245	n/a	LTP279	ltpFR	12	n/a	n/a	n/a	n/a	n/a	n/a	n/a	21	8	4	9	n/a	n/a	n/a	n/a	n/a
488.514	n/a	STOP	244257	n/a	LTP279	ltpFR	12	n/a	n/a	n/a	n/a	n/a	n/a	n/a	n/a	n/a	n/a	n/a	n/a	n/a	n/a	n/a	n/a
489.852	n/a	WORD	244926	wordpools/wasnorm_wordpool_less_exclusions.txt	LTP279	ltpFR	12	2	0	KITE	779	n/a	n/a	0	n/a	0	0	0	0.57763671875	0.412841796875	1	upper	zerothre.ttf
492.864	n/a	START	246432	n/a	LTP279	ltpFR	12	n/a	n/a	n/a	n/a	n/a	n/a	n/a	n/a	n/a	n/a	n/a	n/a	n/a	n/a	n/a	n/a
493.862	n/a	PROB	246931	n/a	LTP279	ltpFR	12	n/a	n/a	n/a	n/a	n/a	n/a	n/a	13	3	9	1	n/a	n/a	n/a	n/a	n/a
495.21	n/a	PROB	247605	n/a	LTP279	ltpFR	12	n/a	n/a	n/a	n/a	n/a	n/a	n/a	4	1	2	1	n/a	n/a	n/a	n/a	n/a
496.442	n/a	PROB	248221	n/a	LTP279	ltpFR	12	n/a	n/a	n/a	n/a	n/a	n/a	n/a	15	4	1	9	n/a	n/a	n/a	n/a	n/a
500.862	n/a	STOP	250431	n/a	LTP279	ltpFR	12	n/a	n/a	n/a	n/a	n/a	n/a	n/a	n/a	n/a	n/a	n/a	n/a	n/a	n/a	n/a	n/a
502.0	n/a	WORD	251000	wordpools/wasnorm_wordpool_less_exclusions.txt	LTP279	ltpFR	12	2	0	BUTTERFLY	206	n/a	n/a	0	n/a	0	0	0	0.57763671875	0.412841796875	1	upper	zerothre.ttf
505.014	n/a	START	252507	n/a	LTP279	ltpFR	12	n/a	n/a	n/a	n/a	n/a	n/a	n/a	n/a	n/a	n/a	n/a	n/a	n/a	n/a	n/a	n/a
505.878	n/a	PROB	252939	n/a	LTP279	ltpFR	12	n/a	n/a	n/a	n/a	n/a	n/a	n/a	10	1	1	8	n/a	n/a	n/a	n/a	n/a
507.56	n/a	PROB	253780	n/a	LTP279	ltpFR	12	n/a	n/a	n/a	n/a	n/a	n/a	n/a	25	8	8	9	n/a	n/a	n/a	n/a	n/a
509.606	n/a	PROB	254803	n/a	LTP279	ltpFR	12	n/a	n/a	n/a	n/a	n/a	n/a	n/a	11	3	6	2	n/a	n/a	n/a	n/a	n/a
511.254	n/a	PROB	255627	n/a	LTP279	ltpFR	12	n/a	n/a	n/a	n/a	n/a	n/a	n/a	7	1	1	5	n/a	n/a	n/a	n/a	n/a
512.604	n/a	STOP	256302	n/a	LTP279	ltpFR	12	n/a	n/a	n/a	n/a	n/a	n/a	n/a	n/a	n/a	n/a	n/a	n/a	n/a	n/a	n/a	n/a
513.932	n/a	WORD	256966	wordpools/wasnorm_wordpool_less_exclusions.txt	LTP279	ltpFR	12	2	0	KLEENEX	782	n/a	n/a	0	n/a	0	0	0	0.57763671875	0.412841796875	1	upper	zerothre.ttf
516.946	n/a	START	258473	n/a	LTP279	ltpFR	12	n/a	n/a	n/a	n/a	n/a	n/a	n/a	n/a	n/a	n/a	n/a	n/a	n/a	n/a	n/a	n/a
517.894	n/a	PROB	258947	n/a	LTP279	ltpFR	12	n/a	n/a	n/a	n/a	n/a	n/a	n/a	21	9	6	6	n/a	n/a	n/a	n/a	n/a
520.606	n/a	PROB	260303	n/a	LTP279	ltpFR	12	n/a	n/a	n/a	n/a	n/a	n/a	n/a	13	2	7	4	n/a	n/a	n/a	n/a	n/a
524.944	n/a	STOP	262472	n/a	LTP279	ltpFR	12	n/a	n/a	n/a	n/a	n/a	n/a	n/a	n/a	n/a	n/a	n/a	n/a	n/a	n/a	n/a	n/a
525.948	n/a	WORD	262974	wordpools/wasnorm_wordpool_less_exclusions.txt	LTP279	ltpFR	12	2	0	PRIMATE	1123	n/a	n/a	0	n/a	0	0	0	0.57763671875	0.412841796875	1	upper	zerothre.ttf
528.96	n/a	START	264480	n/a	LTP279	ltpFR	12	n/a	n/a	n/a	n/a	n/a	n/a	n/a	n/a	n/a	n/a	n/a	n/a	n/a	n/a	n/a	n/a
529.776	n/a	PROB	264888	n/a	LTP279	ltpFR	12	n/a	n/a	n/a	n/a	n/a	n/a	n/a	22	9	4	9	n/a	n/a	n/a	n/a	n/a
532.224	n/a	PROB	266112	n/a	LTP279	ltpFR	12	n/a	n/a	n/a	n/a	n/a	n/a	n/a	10	8	1	1	n/a	n/a	n/a	n/a	n/a
533.604	n/a	PROB	266802	n/a	LTP279	ltpFR	12	n/a	n/a	n/a	n/a	n/a	n/a	n/a	18	7	3	8	n/a	n/a	n/a	n/a	n/a
536.96	n/a	STOP	268480	n/a	LTP279	ltpFR	12	n/a	n/a	n/a	n/a	n/a	n/a	n/a	n/a	n/a	n/a	n/a	n/a	n/a	n/a	n/a	n/a
538.098	n/a	WORD	269049	wordpools/wasnorm_wordpool_less_exclusions.txt	LTP279	ltpFR	12	2	1	IGLOO	734	n/a	n/a	0	n/a	0	0	0	0.422607421875	0.5869140625	0	lower	amplitud.ttf
541.11	n/a	START	270555	n/a	LTP279	ltpFR	12	n/a	n/a	n/a	n/a	n/a	n/a	n/a	n/a	n/a	n/a	n/a	n/a	n/a	n/a	n/a	n/a
542.292	n/a	PROB	271146	n/a	LTP279	ltpFR	12	n/a	n/a	n/a	n/a	n/a	n/a	n/a	21	8	6	7	n/a	n/a	n/a	n/a	n/a
544.172	n/a	PROB	272086	n/a	LTP279	ltpFR	12	n/a	n/a	n/a	n/a	n/a	n/a	n/a	1	6	2	1	n/a	n/a	n/a	n/a	n/a
546.484	n/a	PROB	273242	n/a	LTP279	ltpFR	12	n/a	n/a	n/a	n/a	n/a	n/a	n/a	14	5	8	1	n/a	n/a	n/a	n/a	n/a
548.204	n/a	STOP	274102	n/a	LTP279	ltpFR	12	n/a	n/a	n/a	n/a	n/a	n/a	n/a	n/a	n/a	n/a	n/a	n/a	n/a	n/a	n/a	n/a
549.946	n/a	WORD	274973	wordpools/wasnorm_wordpool_less_exclusions.txt	LTP279	ltpFR	12	2	1	RESTAURANT	1187	n/a	n/a	0	n/a	0	0	0	0.422607421875	0.5869140625	0	lower	amplitud.ttf
552.958	n/a	START	276479	n/a	LTP279	ltpFR	12	n/a	n/a	n/a	n/a	n/a	n/a	n/a	n/a	n/a	n/a	n/a	n/a	n/a	n/a	n/a	n/a
554.04	n/a	PROB	277020	n/a	LTP279	ltpFR	12	n/a	n/a	n/a	n/a	n/a	n/a	n/a	10	4	3	3	n/a	n/a	n/a	n/a	n/a
558.202	n/a	PROB	279101	n/a	LTP279	ltpFR	12	n/a	n/a	n/a	n/a	n/a	n/a	n/a	16	2	7	9	n/a	n/a	n/a	n/a	n/a
560.604	n/a	STOP	280302	n/a	LTP279	ltpFR	12	n/a	n/a	n/a	n/a	n/a	n/a	n/a	n/a	n/a	n/a	n/a	n/a	n/a	n/a	n/a	n/a
561.912	n/a	WORD	280956	wordpools/wasnorm_wordpool_less_exclusions.txt	LTP279	ltpFR	12	2	0	LEOPARD	812	n/a	n/a	0	n/a	0	0	0	0.57763671875	0.412841796875	1	upper	zerothre.ttf
564.924	n/a	START	282462	n/a	LTP279	ltpFR	12	n/a	n/a	n/a	n/a	n/a	n/a	n/a	n/a	n/a	n/a	n/a	n/a	n/a	n/a	n/a	n/a
565.872	n/a	PROB	282936	n/a	LTP279	ltpFR	12	n/a	n/a	n/a	n/a	n/a	n/a	n/a	16	7	4	5	n/a	n/a	n/a	n/a	n/a
567.87	n/a	PROB	283935	n/a	LTP279	ltpFR	12	n/a	n/a	n/a	n/a	n/a	n/a	n/a	12	4	4	4	n/a	n/a	n/a	n/a	n/a
569.5	n/a	PROB	284750	n/a	LTP279	ltpFR	12	n/a	n/a	n/a	n/a	n/a	n/a	n/a	15	3	5	7	n/a	n/a	n/a	n/a	n/a
572.924	n/a	STOP	286462	n/a	LTP279	ltpFR	12	n/a	n/a	n/a	n/a	n/a	n/a	n/a	n/a	n/a	n/a	n/a	n/a	n/a	n/a	n/a	n/a
573.844	n/a	WORD	286922	wordpools/wasnorm_wordpool_less_exclusions.txt	LTP279	ltpFR	12	2	0	BRACELET	163	n/a	n/a	0	n/a	0	0	0	0.57763671875	0.412841796875	1	upper	zerothre.ttf
576.858	n/a	START	288429	n/a	LTP279	ltpFR	12	n/a	n/a	n/a	n/a	n/a	n/a	n/a	n/a	n/a	n/a	n/a	n/a	n/a	n/a	n/a	n/a
577.772	n/a	PROB	288886	n/a	LTP279	ltpFR	12	n/a	n/a	n/a	n/a	n/a	n/a	n/a	12	4	7	1	n/a	n/a	n/a	n/a	n/a
579.686	n/a	PROB	289843	n/a	LTP279	ltpFR	12	n/a	n/a	n/a	n/a	n/a	n/a	n/a	9	4	4	1	n/a	n/a	n/a	n/a	n/a
581.084	n/a	PROB	290542	n/a	LTP279	ltpFR	12	n/a	n/a	n/a	n/a	n/a	n/a	n/a	13	6	3	4	n/a	n/a	n/a	n/a	n/a
582.948	n/a	PROB	291474	n/a	LTP279	ltpFR	12	n/a	n/a	n/a	n/a	n/a	n/a	n/a	17	4	7	6	n/a	n/a	n/a	n/a	n/a
584.58	n/a	STOP	292290	n/a	LTP279	ltpFR	12	n/a	n/a	n/a	n/a	n/a	n/a	n/a	n/a	n/a	n/a	n/a	n/a	n/a	n/a	n/a	n/a
585.96	n/a	WORD	292980	wordpools/wasnorm_wordpool_less_exclusions.txt	LTP279	ltpFR	12	2	0	SHARK	1275	n/a	n/a	0	n/a	0	0	0	0.57763671875	0.412841796875	1	upper	zerothre.ttf
588.974	n/a	START	294487	n/a	LTP279	ltpFR	12	n/a	n/a	n/a	n/a	n/a	n/a	n/a	n/a	n/a	n/a	n/a	n/a	n/a	n/a	n/a	n/a
589.87	n/a	PROB	294935	n/a	LTP279	ltpFR	12	n/a	n/a	n/a	n/a	n/a	n/a	n/a	13	5	5	3	n/a	n/a	n/a	n/a	n/a
591.286	n/a	PROB	295643	n/a	LTP279	ltpFR	12	n/a	n/a	n/a	n/a	n/a	n/a	n/a	22	9	7	6	n/a	n/a	n/a	n/a	n/a
593.914	n/a	PROB	296957	n/a	LTP279	ltpFR	12	n/a	n/a	n/a	n/a	n/a	n/a	n/a	15	9	5	1	n/a	n/a	n/a	n/a	n/a
595.508	n/a	STOP	297754	n/a	LTP279	ltpFR	12	n/a	n/a	n/a	n/a	n/a	n/a	n/a	n/a	n/a	n/a	n/a	n/a	n/a	n/a	n/a	n/a
598.026	n/a	WORD	299013	wordpools/wasnorm_wordpool_less_exclusions.txt	LTP279	ltpFR	12	2	0	COBRA	336	n/a	n/a	0	n/a	0	0	0	0.57763671875	0.412841796875	1	upper	zerothre.ttf
601.038	n/a	START	300519	n/a	LTP279	ltpFR	12	n/a	n/a	n/a	n/a	n/a	n/a	n/a	n/a	n/a	n/a	n/a	n/a	n/a	n/a	n/a	n/a
601.936	n/a	PROB	300968	n/a	LTP279	ltpFR	12	n/a	n/a	n/a	n/a	n/a	n/a	n/a	12	1	7	4	n/a	n/a	n/a	n/a	n/a
603.784	n/a	PROB	301892	n/a	LTP279	ltpFR	12	n/a	n/a	n/a	n/a	n/a	n/a	n/a	19	9	2	8	n/a	n/a	n/a	n/a	n/a
605.398	n/a	PROB	302699	n/a	LTP279	ltpFR	12	n/a	n/a	n/a	n/a	n/a	n/a	n/a	10	5	1	4	n/a	n/a	n/a	n/a	n/a
609.038	n/a	STOP	304519	n/a	LTP279	ltpFR	12	n/a	n/a	n/a	n/a	n/a	n/a	n/a	n/a	n/a	n/a	n/a	n/a	n/a	n/a	n/a	n/a
609.992	n/a	WORD	304996	wordpools/wasnorm_wordpool_less_exclusions.txt	LTP279	ltpFR	12	2	1	SERPENT	1270	n/a	n/a	1	n/a	0	0	0	0.422607421875	0.5869140625	0	lower	amplitud.ttf
613.004	n/a	START	306502	n/a	LTP279	ltpFR	12	n/a	n/a	n/a	n/a	n/a	n/a	n/a	n/a	n/a	n/a	n/a	n/a	n/a	n/a	n/a	n/a
613.918	n/a	PROB	306959	n/a	LTP279	ltpFR	12	n/a	n/a	n/a	n/a	n/a	n/a	n/a	20	3	9	6	n/a	n/a	n/a	n/a	n/a
616.53	n/a	PROB	308265	n/a	LTP279	ltpFR	12	n/a	n/a	n/a	n/a	n/a	n/a	n/a	9	6	4	9	n/a	n/a	n/a	n/a	n/a
621.004	n/a	STOP	310502	n/a	LTP279	ltpFR	12	n/a	n/a	n/a	n/a	n/a	n/a	n/a	n/a	n/a	n/a	n/a	n/a	n/a	n/a	n/a	n/a
622.006	n/a	WORD	311003	wordpools/wasnorm_wordpool_less_exclusions.txt	LTP279	ltpFR	12	2	1	CHEEK	287	n/a	n/a	0	n/a	0	0	0	0.422607421875	0.5869140625	0	lower	amplitud.ttf
625.02	n/a	START	312510	n/a	LTP279	ltpFR	12	n/a	n/a	n/a	n/a	n/a	n/a	n/a	n/a	n/a	n/a	n/a	n/a	n/a	n/a	n/a	n/a
625.884	n/a	PROB	312942	n/a	LTP279	ltpFR	12	n/a	n/a	n/a	n/a	n/a	n/a	n/a	13	5	5	3	n/a	n/a	n/a	n/a	n/a
627.166	n/a	PROB	313583	n/a	LTP279	ltpFR	12	n/a	n/a	n/a	n/a	n/a	n/a	n/a	21	6	6	9	n/a	n/a	n/a	n/a	n/a
629.03	n/a	PROB	314515	n/a	LTP279	ltpFR	12	n/a	n/a	n/a	n/a	n/a	n/a	n/a	19	9	4	6	n/a	n/a	n/a	n/a	n/a
630.526	n/a	PROB	315263	n/a	LTP279	ltpFR	12	n/a	n/a	n/a	n/a	n/a	n/a	n/a	20	3	9	8	n/a	n/a	n/a	n/a	n/a
632.516	n/a	STOP	316258	n/a	LTP279	ltpFR	12	n/a	n/a	n/a	n/a	n/a	n/a	n/a	n/a	n/a	n/a	n/a	n/a	n/a	n/a	n/a	n/a
634.222	n/a	WORD	317111	wordpools/wasnorm_wordpool_less_exclusions.txt	LTP279	ltpFR	12	2	1	FRECKLE	602	n/a	n/a	0	n/a	0	0	0	0.422607421875	0.5869140625	0	lower	amplitud.ttf
637.234	n/a	START	318617	n/a	LTP279	ltpFR	12	n/a	n/a	n/a	n/a	n/a	n/a	n/a	n/a	n/a	n/a	n/a	n/a	n/a	n/a	n/a	n/a
638.166	n/a	PROB	319083	n/a	LTP279	ltpFR	12	n/a	n/a	n/a	n/a	n/a	n/a	n/a	17	5	4	8	n/a	n/a	n/a	n/a	n/a
640.578	n/a	PROB	320289	n/a	LTP279	ltpFR	12	n/a	n/a	n/a	n/a	n/a	n/a	n/a	13	7	3	5	n/a	n/a	n/a	n/a	n/a
643.01	n/a	PROB	321505	n/a	LTP279	ltpFR	12	n/a	n/a	n/a	n/a	n/a	n/a	n/a	24	7	8	9	n/a	n/a	n/a	n/a	n/a
644.926	n/a	STOP	322463	n/a	LTP279	ltpFR	12	n/a	n/a	n/a	n/a	n/a	n/a	n/a	n/a	n/a	n/a	n/a	n/a	n/a	n/a	n/a	n/a
646.288	n/a	WORD	323144	wordpools/wasnorm_wordpool_less_exclusions.txt	LTP279	ltpFR	12	2	1	TOOTHPASTE	1483	n/a	n/a	0	n/a	0	0	0	0.422607421875	0.5869140625	0	lower	amplitud.ttf
649.3	n/a	START	324650	n/a	LTP279	ltpFR	12	n/a	n/a	n/a	n/a	n/a	n/a	n/a	n/a	n/a	n/a	n/a	n/a	n/a	n/a	n/a	n/a
650.398	n/a	PROB	325199	n/a	LTP279	ltpFR	12	n/a	n/a	n/a	n/a	n/a	n/a	n/a	18	7	5	6	n/a	n/a	n/a	n/a	n/a
652.694	n/a	PROB	326347	n/a	LTP279	ltpFR	12	n/a	n/a	n/a	n/a	n/a	n/a	n/a	11	1	1	9	n/a	n/a	n/a	n/a	n/a
654.642	n/a	PROB	327321	n/a	LTP279	ltpFR	12	n/a	n/a	n/a	n/a	n/a	n/a	n/a	8	3	4	1	n/a	n/a	n/a	n/a	n/a
656.054	n/a	STOP	328027	n/a	LTP279	ltpFR	12	n/a	n/a	n/a	n/a	n/a	n/a	n/a	n/a	n/a	n/a	n/a	n/a	n/a	n/a	n/a	n/a
658.188	n/a	WORD	329094	wordpools/wasnorm_wordpool_less_exclusions.txt	LTP279	ltpFR	12	2	1	HEATER	698	n/a	n/a	1	n/a	0	0	0	0.422607421875	0.5869140625	0	lower	amplitud.ttf
661.2	n/a	START	330600	n/a	LTP279	ltpFR	12	n/a	n/a	n/a	n/a	n/a	n/a	n/a	n/a	n/a	n/a	n/a	n/a	n/a	n/a	n/a	n/a
662.098	n/a	PROB	331049	n/a	LTP279	ltpFR	12	n/a	n/a	n/a	n/a	n/a	n/a	n/a	11	2	6	3	n/a	n/a	n/a	n/a	n/a
663.794	n/a	PROB	331897	n/a	LTP279	ltpFR	12	n/a	n/a	n/a	n/a	n/a	n/a	n/a	10	3	4	3	n/a	n/a	n/a	n/a	n/a
666.108	n/a	PROB	333054	n/a	LTP279	ltpFR	12	n/a	n/a	n/a	n/a	n/a	n/a	n/a	9	2	5	2	n/a	n/a	n/a	n/a	n/a
669.2	n/a	STOP	334600	n/a	LTP279	ltpFR	12	n/a	n/a	n/a	n/a	n/a	n/a	n/a	n/a	n/a	n/a	n/a	n/a	n/a	n/a	n/a	n/a
670.352	n/a	WORD	335176	wordpools/wasnorm_wordpool_less_exclusions.txt	LTP279	ltpFR	12	2	1	SNACK	1331	n/a	n/a	0	n/a	0	0	0	0.422607421875	0.5869140625	0	lower	amplitud.ttf
673.364	n/a	START	336682	n/a	LTP279	ltpFR	12	n/a	n/a	n/a	n/a	n/a	n/a	n/a	n/a	n/a	n/a	n/a	n/a	n/a	n/a	n/a	n/a
674.512	n/a	PROB	337256	n/a	LTP279	ltpFR	12	n/a	n/a	n/a	n/a	n/a	n/a	n/a	13	6	6	1	n/a	n/a	n/a	n/a	n/a
676.01	n/a	PROB	338005	n/a	LTP279	ltpFR	12	n/a	n/a	n/a	n/a	n/a	n/a	n/a	15	5	6	4	n/a	n/a	n/a	n/a	n/a
678.158	n/a	PROB	339079	n/a	LTP279	ltpFR	12	n/a	n/a	n/a	n/a	n/a	n/a	n/a	17	1	7	9	n/a	n/a	n/a	n/a	n/a
680.094	n/a	STOP	340047	n/a	LTP279	ltpFR	12	n/a	n/a	n/a	n/a	n/a	n/a	n/a	n/a	n/a	n/a	n/a	n/a	n/a	n/a	n/a	n/a
683.15	n/a	REC_START	341575	n/a	LTP279	ltpFR	12	2	n/a	n/a	n/a	n/a	n/a	n/a	n/a	0	0	0	n/a	n/a	n/a	n/a	n/a
684.398	n/a	REC_WORD	342199	wordpools/wasnorm_wordpool_less_exclusions.txt	LTP279	ltpFR	12	2	1	SERPENT	1270	n/a	n/a	1	n/a	0	0	0	n/a	n/a	n/a	n/a	n/a
686.138	n/a	REC_WORD	343069	wordpools/wasnorm_wordpool_less_exclusions.txt	LTP279	ltpFR	12	2	1	CHEEK	287	n/a	n/a	0	n/a	0	0	0	n/a	n/a	n/a	n/a	n/a
687.518	n/a	REC_WORD	343759	wordpools/wasnorm_wordpool_less_exclusions.txt	LTP279	ltpFR	12	2	1	FRECKLE	602	n/a	n/a	0	n/a	0	0	0	n/a	n/a	n/a	n/a	n/a
692.846	n/a	REC_WORD	346423	wordpools/wasnorm_wordpool_less_exclusions.txt	LTP279	ltpFR	12	2	0	PRIMATE	1123	n/a	n/a	0	n/a	0	0	0	n/a	n/a	n/a	n/a	n/a
694.824	n/a	REC_WORD	347412	wordpools/wasnorm_wordpool_less_exclusions.txt	LTP279	ltpFR	12	2	0	KLEENEX	782	n/a	n/a	0	n/a	0	0	0	n/a	n/a	n/a	n/a	n/a
698.052	n/a	REC_WORD	349026	wordpools/wasnorm_wordpool_less_exclusions.txt	LTP279	ltpFR	12	2	1	RESTAURANT	1187	n/a	n/a	0	n/a	0	0	0	n/a	n/a	n/a	n/a	n/a
701.872	n/a	REC_WORD	350936	wordpools/wasnorm_wordpool_less_exclusions.txt	LTP279	ltpFR	12	2	1	IGLOO	734	n/a	n/a	0	n/a	0	0	0	n/a	n/a	n/a	n/a	n/a
705.588	n/a	REC_WORD	352794	wordpools/wasnorm_wordpool_less_exclusions.txt	LTP279	ltpFR	12	2	0	BUTTERFLY	206	n/a	n/a	0	n/a	0	0	0	n/a	n/a	n/a	n/a	n/a
707.088	n/a	REC_WORD	353544	wordpools/wasnorm_wordpool_less_exclusions.txt	LTP279	ltpFR	12	2	0	KITE	779	n/a	n/a	0	n/a	0	0	0	n/a	n/a	n/a	n/a	n/a
736.034	n/a	REC_WORD	368017	wordpools/wasnorm_wordpool_less_exclusions.txt	LTP279	ltpFR	12	2	1	SNACK	1331	n/a	n/a	0	n/a	0	0	0	n/a	n/a	n/a	n/a	n/a
785.982	n/a	WORD	392991	wordpools/wasnorm_wordpool_less_exclusions.txt	LTP279	ltpFR	12	3	1	PORT	1110	n/a	n/a	0	n/a	0	0	0	0.422607421875	0.5869140625	0	lower	amplitud.ttf
790.108	n/a	WORD	395054	wordpools/wasnorm_wordpool_less_exclusions.txt	LTP279	ltpFR	12	3	1	MATCH	878	n/a	n/a	0	n/a	0	0	0	0.422607421875	0.5869140625	0	lower	amplitud.ttf
794.004	n/a	WORD	397002	wordpools/wasnorm_wordpool_less_exclusions.txt	LTP279	ltpFR	12	3	1	LAMP	798	n/a	n/a	0	n/a	0	0	0	0.422607421875	0.5869140625	0	lower	amplitud.ttf
798.096	n/a	WORD	399048	wordpools/wasnorm_wordpool_less_exclusions.txt	LTP279	ltpFR	12	3	1	JUG	762	n/a	n/a	0	n/a	0	0	0	0.422607421875	0.5869140625	0	lower	amplitud.ttf
801.924	n/a	WORD	400962	wordpools/wasnorm_wordpool_less_exclusions.txt	LTP279	ltpFR	12	3	0	SHRIMP	1297	n/a	n/a	0	n/a	0	0	0	0.57763671875	0.412841796875	1	upper	zerothre.ttf
805.834	n/a	WORD	402917	wordpools/wasnorm_wordpool_less_exclusions.txt	LTP279	ltpFR	12	3	0	SHORE	1291	n/a	n/a	0	n/a	0	0	0	0.57763671875	0.412841796875	1	upper	zerothre.ttf
809.862	n/a	WORD	404931	wordpools/wasnorm_wordpool_less_exclusions.txt	LTP279	ltpFR	12	3	0	ENEMY	534	n/a	n/a	0	n/a	0	0	0	0.57763671875	0.412841796875	1	upper	zerothre.ttf
813.99	n/a	WORD	406995	wordpools/wasnorm_wordpool_less_exclusions.txt	LTP279	ltpFR	12	3	0	FOE	587	n/a	n/a	0	n/a	0	0	0	0.57763671875	0.412841796875	1	upper	zerothre.ttf
818.068	n/a	WORD	409034	wordpools/wasnorm_wordpool_less_exclusions.txt	LTP279	ltpFR	12	3	1	NICOTINE	951	n/a	n/a	0	n/a	0	0	0	0.422607421875	0.5869140625	0	lower	amplitud.ttf
821.91	n/a	WORD	410955	wordpools/wasnorm_wordpool_less_exclusions.txt	LTP279	ltpFR	12	3	1	LOBBY	836	n/a	n/a	0	n/a	0	0	0	0.422607421875	0.5869140625	0	lower	amplitud.ttf
825.838	n/a	WORD	412919	wordpools/wasnorm_wordpool_less_exclusions.txt	LTP279	ltpFR	12	3	0	BANDIT	81	n/a	n/a	0	n/a	0	0	0	0.57763671875	0.412841796875	1	upper	zerothre.ttf
829.848	n/a	WORD	414924	wordpools/wasnorm_wordpool_less_exclusions.txt	LTP279	ltpFR	12	3	0	PIRATE	1074	n/a	n/a	0	n/a	0	0	0	0.57763671875	0.412841796875	1	upper	zerothre.ttf
833.842	n/a	WORD	416921	wordpools/wasnorm_wordpool_less_exclusions.txt	LTP279	ltpFR	12	3	0	OAR	966	n/a	n/a	0	n/a	0	0	0	0.57763671875	0.412841796875	1	upper	zerothre.ttf
837.82	n/a	WORD	418910	wordpools/wasnorm_wordpool_less_exclusions.txt	LTP279	ltpFR	12	3	0	SAND	1230	n/a	n/a	0	n/a	0	0	0	0.57763671875	0.412841796875	1	upper	zerothre.ttf
841.714	n/a	WORD	420857	wordpools/wasnorm_wordpool_less_exclusions.txt	LTP279	ltpFR	12	3	1	NOSE	957	n/a	n/a	0	n/a	0	0	0	0.422607421875	0.5869140625	0	lower	amplitud.ttf
845.892	n/a	WORD	422946	wordpools/wasnorm_wordpool_less_exclusions.txt	LTP279	ltpFR	12	3	1	LAGOON	795	n/a	n/a	0	n/a	0	0	0	0.422607421875	0.5869140625	0	lower	amplitud.ttf
851.618	n/a	REC_START	425809	n/a	LTP279	ltpFR	12	3	n/a	n/a	n/a	n/a	n/a	n/a	n/a	0	0	0	n/a	n/a	n/a	n/a	n/a
852.61	n/a	REC_WORD	426305	wordpools/wasnorm_wordpool_less_exclusions.txt	LTP279	ltpFR	12	3	1	NOSE	957	n/a	n/a	0	n/a	0	0	0	n/a	n/a	n/a	n/a	n/a
853.44	n/a	REC_WORD	426720	wordpools/wasnorm_wordpool_less_exclusions.txt	LTP279	ltpFR	12	3	1	LAGOON	795	n/a	n/a	0	n/a	0	0	0	n/a	n/a	n/a	n/a	n/a
855.844	n/a	REC_WORD	427922	wordpools/wasnorm_wordpool_less_exclusions.txt	LTP279	ltpFR	12	3	0	PIRATE	1074	n/a	n/a	0	n/a	0	0	0	n/a	n/a	n/a	n/a	n/a
856.844	n/a	REC_WORD_VV	428422	wordpools/wasnorm_wordpool_less_exclusions.txt	LTP279	ltpFR	12	3	n/a	<>	-1	n/a	n/a	n/a	n/a	0	0	0	n/a	n/a	n/a	n/a	n/a
858.256	n/a	REC_WORD	429128	wordpools/wasnorm_wordpool_less_exclusions.txt	LTP279	ltpFR	12	3	1	NICOTINE	951	n/a	n/a	0	n/a	0	0	0	n/a	n/a	n/a	n/a	n/a
859.76	n/a	REC_WORD	429880	wordpools/wasnorm_wordpool_less_exclusions.txt	LTP279	ltpFR	12	3	0	BANDIT	81	n/a	n/a	0	n/a	0	0	0	n/a	n/a	n/a	n/a	n/a
861.564	n/a	REC_WORD	430782	wordpools/wasnorm_wordpool_less_exclusions.txt	LTP279	ltpFR	12	3	0	OAR	966	n/a	n/a	0	n/a	0	0	0	n/a	n/a	n/a	n/a	n/a
863.296	n/a	REC_WORD	431648	wordpools/wasnorm_wordpool_less_exclusions.txt	LTP279	ltpFR	12	3	0	SAND	1230	n/a	n/a	0	n/a	0	0	0	n/a	n/a	n/a	n/a	n/a
864.366	n/a	REC_WORD	432183	wordpools/wasnorm_wordpool_less_exclusions.txt	LTP279	ltpFR	12	3	0	SHORE	1291	n/a	n/a	0	n/a	0	0	0	n/a	n/a	n/a	n/a	n/a
866.98	n/a	REC_WORD	433490	wordpools/wasnorm_wordpool_less_exclusions.txt	LTP279	ltpFR	12	3	0	SHRIMP	1297	n/a	n/a	0	n/a	0	0	0	n/a	n/a	n/a	n/a	n/a
867.968	n/a	REC_WORD	433984	wordpools/wasnorm_wordpool_less_exclusions.txt	LTP279	ltpFR	12	3	0	FOE	587	n/a	n/a	0	n/a	0	0	0	n/a	n/a	n/a	n/a	n/a
869.1	n/a	REC_WORD	434550	wordpools/wasnorm_wordpool_less_exclusions.txt	LTP279	ltpFR	12	3	0	ENEMY	534	n/a	n/a	0	n/a	0	0	0	n/a	n/a	n/a	n/a	n/a
890.522	n/a	REC_WORD	445261	wordpools/wasnorm_wordpool_less_exclusions.txt	LTP279	ltpFR	12	3	1	PORT	1110	n/a	n/a	0	n/a	0	0	0	n/a	n/a	n/a	n/a	n/a
891.25	n/a	REC_WORD	445625	wordpools/wasnorm_wordpool_less_exclusions.txt	LTP279	ltpFR	12	3	1	MATCH	878	n/a	n/a	0	n/a	0	0	0	n/a	n/a	n/a	n/a	n/a
892.092	n/a	REC_WORD	446046	wordpools/wasnorm_wordpool_less_exclusions.txt	LTP279	ltpFR	12	3	1	LAMP	798	n/a	n/a	0	n/a	0	0	0	n/a	n/a	n/a	n/a	n/a
893.04	n/a	REC_WORD	446520	wordpools/wasnorm_wordpool_less_exclusions.txt	LTP279	ltpFR	12	3	1	JUG	762	n/a	n/a	0	n/a	0	0	0	n/a	n/a	n/a	n/a	n/a
953.432	n/a	WORD	476716	wordpools/wasnorm_wordpool_less_exclusions.txt	LTP279	ltpFR	12	4	0	CLASS	318	n/a	n/a	0	n/a	0	0	0	0.57763671875	0.412841796875	1	upper	zerothre.ttf
957.326	n/a	WORD	478663	wordpools/wasnorm_wordpool_less_exclusions.txt	LTP279	ltpFR	12	4	0	SCARECROW	1245	n/a	n/a	0	n/a	0	0	0	0.57763671875	0.412841796875	1	upper	zerothre.ttf
961.42	n/a	WORD	480710	wordpools/wasnorm_wordpool_less_exclusions.txt	LTP279	ltpFR	12	4	0	CAFE	216	n/a	n/a	0	n/a	0	0	0	0.57763671875	0.412841796875	1	upper	zerothre.ttf
965.348	n/a	WORD	482674	wordpools/wasnorm_wordpool_less_exclusions.txt	LTP279	ltpFR	12	4	0	THORN	1459	n/a	n/a	0	n/a	0	0	0	0.57763671875	0.412841796875	1	upper	zerothre.ttf
969.26	n/a	WORD	484630	wordpools/wasnorm_wordpool_less_exclusions.txt	LTP279	ltpFR	12	4	0	DAD	433	n/a	n/a	0	n/a	0	0	0	0.57763671875	0.412841796875	1	upper	zerothre.ttf
973.254	n/a	WORD	486627	wordpools/wasnorm_wordpool_less_exclusions.txt	LTP279	ltpFR	12	4	0	BUCKLE	185	n/a	n/a	0	n/a	0	0	0	0.57763671875	0.412841796875	1	upper	zerothre.ttf
977.198	n/a	WORD	488599	wordpools/wasnorm_wordpool_less_exclusions.txt	LTP279	ltpFR	12	4	0	WRIST	1626	n/a	n/a	0	n/a	0	0	0	0.57763671875	0.412841796875	1	upper	zerothre.ttf
981.258	n/a	WORD	490629	wordpools/wasnorm_wordpool_less_exclusions.txt	LTP279	ltpFR	12	4	0	SHOULDER	1294	n/a	n/a	0	n/a	0	0	0	0.57763671875	0.412841796875	1	upper	zerothre.ttf
985.452	n/a	WORD	492726	wordpools/wasnorm_wordpool_less_exclusions.txt	LTP279	ltpFR	12	4	0	CONTAINER	366	n/a	n/a	0	n/a	0	0	0	0.57763671875	0.412841796875	1	upper	zerothre.ttf
989.446	n/a	WORD	494723	wordpools/wasnorm_wordpool_less_exclusions.txt	LTP279	ltpFR	12	4	0	BELT	120	n/a	n/a	0	n/a	0	0	0	0.57763671875	0.412841796875	1	upper	zerothre.ttf
993.54	n/a	WORD	496770	wordpools/wasnorm_wordpool_less_exclusions.txt	LTP279	ltpFR	12	4	0	CUSHION	428	n/a	n/a	0	n/a	0	0	0	0.57763671875	0.412841796875	1	upper	zerothre.ttf
997.602	n/a	WORD	498801	wordpools/wasnorm_wordpool_less_exclusions.txt	LTP279	ltpFR	12	4	0	SHOWER	1296	n/a	n/a	0	n/a	0	0	0	0.57763671875	0.412841796875	1	upper	zerothre.ttf
1001.728	n/a	WORD	500864	wordpools/wasnorm_wordpool_less_exclusions.txt	LTP279	ltpFR	12	4	0	FAUCET	555	n/a	n/a	0	n/a	0	0	0	0.57763671875	0.412841796875	1	upper	zerothre.ttf
1005.906	n/a	WORD	502953	wordpools/wasnorm_wordpool_less_exclusions.txt	LTP279	ltpFR	12	4	0	SPHINX	1349	n/a	n/a	1	n/a	0	0	0	0.57763671875	0.412841796875	1	upper	zerothre.ttf
1009.882	n/a	WORD	504941	wordpools/wasnorm_wordpool_less_exclusions.txt	LTP279	ltpFR	12	4	0	MARBLE	867	n/a	n/a	0	n/a	0	0	0	0.57763671875	0.412841796875	1	upper	zerothre.ttf
1013.926	n/a	WORD	506963	wordpools/wasnorm_wordpool_less_exclusions.txt	LTP279	ltpFR	12	4	0	MUSEUM	933	n/a	n/a	0	n/a	0	0	0	0.57763671875	0.412841796875	1	upper	zerothre.ttf
1016.938	n/a	START	508469	n/a	LTP279	ltpFR	12	n/a	n/a	n/a	n/a	n/a	n/a	n/a	n/a	n/a	n/a	n/a	n/a	n/a	n/a	n/a	n/a
1018.122	n/a	PROB	509061	n/a	LTP279	ltpFR	12	n/a	n/a	n/a	n/a	n/a	n/a	n/a	13	4	8	1	n/a	n/a	n/a	n/a	n/a
1020.95	n/a	PROB	510475	n/a	LTP279	ltpFR	12	n/a	n/a	n/a	n/a	n/a	n/a	n/a	13	5	3	5	n/a	n/a	n/a	n/a	n/a
1022.43	n/a	PROB	511215	n/a	LTP279	ltpFR	12	n/a	n/a	n/a	n/a	n/a	n/a	n/a	14	5	1	7	n/a	n/a	n/a	n/a	n/a
1024.53	n/a	STOP	512265	n/a	LTP279	ltpFR	12	n/a	n/a	n/a	n/a	n/a	n/a	n/a	n/a	n/a	n/a	n/a	n/a	n/a	n/a	n/a	n/a
1026.842	n/a	REC_START	513421	n/a	LTP279	ltpFR	12	4	n/a	n/a	n/a	n/a	n/a	n/a	n/a	0	0	0	n/a	n/a	n/a	n/a	n/a
1027.71	n/a	REC_WORD	513855	wordpools/wasnorm_wordpool_less_exclusions.txt	LTP279	ltpFR	12	4	0	MUSEUM	933	n/a	n/a	0	n/a	0	0	0	n/a	n/a	n/a	n/a	n/a
1028.372	n/a	REC_WORD	514186	wordpools/wasnorm_wordpool_less_exclusions.txt	LTP279	ltpFR	12	4	0	SPHINX	1349	n/a	n/a	1	n/a	0	0	0	n/a	n/a	n/a	n/a	n/a
1029.208	n/a	REC_WORD	514604	wordpools/wasnorm_wordpool_less_exclusions.txt	LTP279	ltpFR	12	4	0	CUSHION	428	n/a	n/a	0	n/a	0	0	0	n/a	n/a	n/a	n/a	n/a
1029.718	n/a	REC_WORD	514859	wordpools/wasnorm_wordpool_less_exclusions.txt	LTP279	ltpFR	12	4	0	SHOWER	1296	n/a	n/a	0	n/a	0	0	0	n/a	n/a	n/a	n/a	n/a
1030.42	n/a	REC_WORD	515210	wordpools/wasnorm_wordpool_less_exclusions.txt	LTP279	ltpFR	12	4	0	MARBLE	867	n/a	n/a	0	n/a	0	0	0	n/a	n/a	n/a	n/a	n/a
1031.09	n/a	REC_WORD	515545	wordpools/wasnorm_wordpool_less_exclusions.txt	LTP279	ltpFR	12	4	0	FAUCET	555	n/a	n/a	0	n/a	0	0	0	n/a	n/a	n/a	n/a	n/a
1052.484	n/a	REC_WORD	526242	wordpools/wasnorm_wordpool_less_exclusions.txt	LTP279	ltpFR	12	4	0	CLASS	318	n/a	n/a	0	n/a	0	0	0	n/a	n/a	n/a	n/a	n/a
1054.224	n/a	REC_WORD	527112	wordpools/wasnorm_wordpool_less_exclusions.txt	LTP279	ltpFR	12	4	0	SCARECROW	1245	n/a	n/a	0	n/a	0	0	0	n/a	n/a	n/a	n/a	n/a
1056.36	n/a	REC_WORD	528180	wordpools/wasnorm_wordpool_less_exclusions.txt	LTP279	ltpFR	12	4	0	CAFE	216	n/a	n/a	0	n/a	0	0	0	n/a	n/a	n/a	n/a	n/a
1059.18	n/a	REC_WORD	529590	wordpools/wasnorm_wordpool_less_exclusions.txt	LTP279	ltpFR	12	4	0	THORN	1459	n/a	n/a	0	n/a	0	0	0	n/a	n/a	n/a	n/a	n/a
1061.276	n/a	REC_WORD	530638	wordpools/wasnorm_wordpool_less_exclusions.txt	LTP279	ltpFR	12	4	0	DAD	433	n/a	n/a	0	n/a	0	0	0	n/a	n/a	n/a	n/a	n/a
1062.326	n/a	REC_WORD	531163	wordpools/wasnorm_wordpool_less_exclusions.txt	LTP279	ltpFR	12	4	0	BUCKLE	185	n/a	n/a	0	n/a	0	0	0	n/a	n/a	n/a	n/a	n/a
1063.958	n/a	REC_WORD	531979	wordpools/wasnorm_wordpool_less_exclusions.txt	LTP279	ltpFR	12	4	0	WRIST	1626	n/a	n/a	0	n/a	0	0	0	n/a	n/a	n/a	n/a	n/a
1065.026	n/a	REC_WORD	532513	wordpools/wasnorm_wordpool_less_exclusions.txt	LTP279	ltpFR	12	4	0	SHOULDER	1294	n/a	n/a	0	n/a	0	0	0	n/a	n/a	n/a	n/a	n/a
1066.718	n/a	REC_WORD	533359	wordpools/wasnorm_wordpool_less_exclusions.txt	LTP279	ltpFR	12	4	0	BELT	120	n/a	n/a	0	n/a	0	0	0	n/a	n/a	n/a	n/a	n/a
1072.082	n/a	REC_WORD	536041	wordpools/wasnorm_wordpool_less_exclusions.txt	LTP279	ltpFR	12	4	0	CONTAINER	366	n/a	n/a	0	n/a	0	0	0	n/a	n/a	n/a	n/a	n/a
1130.488	n/a	WORD	565244	wordpools/wasnorm_wordpool_less_exclusions.txt	LTP279	ltpFR	12	5	1	CASHIER	254	n/a	n/a	1	n/a	0	0	0	0.422607421875	0.5869140625	0	lower	amplitud.ttf
1134.632	n/a	WORD	567316	wordpools/wasnorm_wordpool_less_exclusions.txt	LTP279	ltpFR	12	5	1	CAR	241	n/a	n/a	0	n/a	0	0	0	0.422607421875	0.5869140625	0	lower	amplitud.ttf
1138.826	n/a	WORD	569413	wordpools/wasnorm_wordpool_less_exclusions.txt	LTP279	ltpFR	12	5	1	LINT	826	n/a	n/a	0	n/a	0	0	0	0.422607421875	0.5869140625	0	lower	amplitud.ttf
1142.936	n/a	WORD	571468	wordpools/wasnorm_wordpool_less_exclusions.txt	LTP279	ltpFR	12	5	1	SERVER	1272	n/a	n/a	0	n/a	0	0	0	0.422607421875	0.5869140625	0	lower	amplitud.ttf
1146.914	n/a	WORD	573457	wordpools/wasnorm_wordpool_less_exclusions.txt	LTP279	ltpFR	12	5	1	DINNER	468	n/a	n/a	0	n/a	0	0	0	0.422607421875	0.5869140625	0	lower	amplitud.ttf
1150.774	n/a	WORD	575387	wordpools/wasnorm_wordpool_less_exclusions.txt	LTP279	ltpFR	12	5	0	DUMP	505	n/a	n/a	0	n/a	0	0	0	0.57763671875	0.412841796875	1	upper	zerothre.ttf
1154.784	n/a	WORD	577392	wordpools/wasnorm_wordpool_less_exclusions.txt	LTP279	ltpFR	12	5	0	SARDINE	1235	n/a	n/a	0	n/a	0	0	0	0.57763671875	0.412841796875	1	upper	zerothre.ttf
1158.646	n/a	WORD	579323	wordpools/wasnorm_wordpool_less_exclusions.txt	LTP279	ltpFR	12	5	0	MARSH	874	n/a	n/a	0	n/a	0	0	0	0.57763671875	0.412841796875	1	upper	zerothre.ttf
1162.574	n/a	WORD	581287	wordpools/wasnorm_wordpool_less_exclusions.txt	LTP279	ltpFR	12	5	1	PUDDLE	1140	n/a	n/a	0	n/a	0	0	0	0.422607421875	0.5869140625	0	lower	amplitud.ttf
1166.65	n/a	WORD	583325	wordpools/wasnorm_wordpool_less_exclusions.txt	LTP279	ltpFR	12	5	1	WAGON	1578	n/a	n/a	0	n/a	0	0	0	0.422607421875	0.5869140625	0	lower	amplitud.ttf
1170.744	n/a	WORD	585372	wordpools/wasnorm_wordpool_less_exclusions.txt	LTP279	ltpFR	12	5	1	NICKEL	950	n/a	n/a	0	n/a	0	0	0	0.422607421875	0.5869140625	0	lower	amplitud.ttf
1174.804	n/a	WORD	587402	wordpools/wasnorm_wordpool_less_exclusions.txt	LTP279	ltpFR	12	5	0	SAUCER	1237	n/a	n/a	0	n/a	0	0	0	0.57763671875	0.412841796875	1	upper	zerothre.ttf
1178.782	n/a	WORD	589391	wordpools/wasnorm_wordpool_less_exclusions.txt	LTP279	ltpFR	12	5	0	PENCIL	1042	n/a	n/a	0	n/a	0	0	0	0.57763671875	0.412841796875	1	upper	zerothre.ttf
1182.926	n/a	WORD	591463	wordpools/wasnorm_wordpool_less_exclusions.txt	LTP279	ltpFR	12	5	0	KNIGHT	786	n/a	n/a	0	n/a	0	0	0	0.57763671875	0.412841796875	1	upper	zerothre.ttf
1186.954	n/a	WORD	593477	wordpools/wasnorm_wordpool_less_exclusions.txt	LTP279	ltpFR	12	5	0	COUSIN	392	n/a	n/a	0	n/a	0	0	0	0.57763671875	0.412841796875	1	upper	zerothre.ttf
1190.832	n/a	WORD	595416	wordpools/wasnorm_wordpool_less_exclusions.txt	LTP279	ltpFR	12	5	0	JUGGLER	763	n/a	n/a	0	n/a	0	0	0	0.57763671875	0.412841796875	1	upper	zerothre.ttf
1193.844	n/a	START	596922	n/a	LTP279	ltpFR	12	n/a	n/a	n/a	n/a	n/a	n/a	n/a	n/a	n/a	n/a	n/a	n/a	n/a	n/a	n/a	n/a
1194.792	n/a	PROB	597396	n/a	LTP279	ltpFR	12	n/a	n/a	n/a	n/a	n/a	n/a	n/a	23	9	7	7	n/a	n/a	n/a	n/a	n/a
1198.802	n/a	PROB	599401	n/a	LTP279	ltpFR	12	n/a	n/a	n/a	n/a	n/a	n/a	n/a	15	9	2	4	n/a	n/a	n/a	n/a	n/a
1201.102	n/a	PROB	600551	n/a	LTP279	ltpFR	12	n/a	n/a	n/a	n/a	n/a	n/a	n/a	8	1	6	1	n/a	n/a	n/a	n/a	n/a
1202.364	n/a	PROB	601182	n/a	LTP279	ltpFR	12	n/a	n/a	n/a	n/a	n/a	n/a	n/a	7	3	2	2	n/a	n/a	n/a	n/a	n/a
1203.78	n/a	PROB	601890	n/a	LTP279	ltpFR	12	n/a	n/a	n/a	n/a	n/a	n/a	n/a	13	2	6	5	n/a	n/a	n/a	n/a	n/a
1205.71	n/a	PROB	602855	n/a	LTP279	ltpFR	12	n/a	n/a	n/a	n/a	n/a	n/a	n/a	27	9	9	9	n/a	n/a	n/a	n/a	n/a
1207.292	n/a	PROB	603646	n/a	LTP279	ltpFR	12	n/a	n/a	n/a	n/a	n/a	n/a	n/a	7	1	2	4	n/a	n/a	n/a	n/a	n/a
1208.774	n/a	STOP	604387	n/a	LTP279	ltpFR	12	n/a	n/a	n/a	n/a	n/a	n/a	n/a	n/a	n/a	n/a	n/a	n/a	n/a	n/a	n/a	n/a
1211.684	n/a	REC_START	605842	n/a	LTP279	ltpFR	12	5	n/a	n/a	n/a	n/a	n/a	n/a	n/a	0	0	0	n/a	n/a	n/a	n/a	n/a
1212.304	n/a	REC_WORD	606152	wordpools/wasnorm_wordpool_less_exclusions.txt	LTP279	ltpFR	12	5	0	SAUCER	1237	n/a	n/a	0	n/a	0	0	0	n/a	n/a	n/a	n/a	n/a
1213.864	n/a	REC_WORD	606932	wordpools/wasnorm_wordpool_less_exclusions.txt	LTP279	ltpFR	12	5	0	PENCIL	1042	n/a	n/a	0	n/a	0	0	0	n/a	n/a	n/a	n/a	n/a
1215.33	n/a	REC_WORD	607665	wordpools/wasnorm_wordpool_less_exclusions.txt	LTP279	ltpFR	12	5	1	NICKEL	950	n/a	n/a	0	n/a	0	0	0	n/a	n/a	n/a	n/a	n/a
1216.646	n/a	REC_WORD	608323	wordpools/wasnorm_wordpool_less_exclusions.txt	LTP279	ltpFR	12	5	0	KNIGHT	786	n/a	n/a	0	n/a	0	0	0	n/a	n/a	n/a	n/a	n/a
1218.9	n/a	REC_WORD	609450	wordpools/wasnorm_wordpool_less_exclusions.txt	LTP279	ltpFR	12	5	0	COUSIN	392	n/a	n/a	0	n/a	0	0	0	n/a	n/a	n/a	n/a	n/a
1229.31	n/a	REC_WORD	614655	wordpools/wasnorm_wordpool_less_exclusions.txt	LTP279	ltpFR	12	5	0	JUGGLER	763	n/a	n/a	0	n/a	0	0	0	n/a	n/a	n/a	n/a	n/a
1243.73	n/a	REC_WORD	621865	wordpools/wasnorm_wordpool_less_exclusions.txt	LTP279	ltpFR	12	5	1	CASHIER	254	n/a	n/a	1	n/a	0	0	0	n/a	n/a	n/a	n/a	n/a
1244.812	n/a	REC_WORD	622406	wordpools/wasnorm_wordpool_less_exclusions.txt	LTP279	ltpFR	12	5	1	CAR	241	n/a	n/a	0	n/a	0	0	0	n/a	n/a	n/a	n/a	n/a
1245.986	n/a	REC_WORD	622993	wordpools/wasnorm_wordpool_less_exclusions.txt	LTP279	ltpFR	12	5	1	LINT	826	n/a	n/a	0	n/a	0	0	0	n/a	n/a	n/a	n/a	n/a
1247.014	n/a	REC_WORD	623507	wordpools/wasnorm_wordpool_less_exclusions.txt	LTP279	ltpFR	12	5	1	SERVER	1272	n/a	n/a	0	n/a	0	0	0	n/a	n/a	n/a	n/a	n/a
1260.326	n/a	REC_WORD	630163	wordpools/wasnorm_wordpool_less_exclusions.txt	LTP279	ltpFR	12	5	1	DINNER	468	n/a	n/a	0	n/a	0	0	0	n/a	n/a	n/a	n/a	n/a
1261.726	n/a	REC_WORD	630863	wordpools/wasnorm_wordpool_less_exclusions.txt	LTP279	ltpFR	12	5	0	DUMP	505	n/a	n/a	0	n/a	0	0	0	n/a	n/a	n/a	n/a	n/a
1266.252	n/a	REC_WORD	633126	wordpools/wasnorm_wordpool_less_exclusions.txt	LTP279	ltpFR	12	5	0	SARDINE	1235	n/a	n/a	0	n/a	0	0	0	n/a	n/a	n/a	n/a	n/a
1267.58	n/a	REC_WORD	633790	wordpools/wasnorm_wordpool_less_exclusions.txt	LTP279	ltpFR	12	5	0	MARSH	874	n/a	n/a	0	n/a	0	0	0	n/a	n/a	n/a	n/a	n/a
1269.192	n/a	REC_WORD	634596	wordpools/wasnorm_wordpool_less_exclusions.txt	LTP279	ltpFR	12	5	1	PUDDLE	1140	n/a	n/a	0	n/a	0	0	0	n/a	n/a	n/a	n/a	n/a
1280.182	n/a	REC_WORD	640091	wordpools/wasnorm_wordpool_less_exclusions.txt	LTP279	ltpFR	12	5	1	WAGON	1578	n/a	n/a	0	n/a	0	0	0	n/a	n/a	n/a	n/a	n/a
1318.51	n/a	START	659255	n/a	LTP279	ltpFR	12	n/a	n/a	n/a	n/a	n/a	n/a	n/a	n/a	n/a	n/a	n/a	n/a	n/a	n/a	n/a	n/a
1320.024	n/a	PROB	660012	n/a	LTP279	ltpFR	12	n/a	n/a	n/a	n/a	n/a	n/a	n/a	14	6	5	3	n/a	n/a	n/a	n/a	n/a
1322.702	n/a	PROB	661351	n/a	LTP279	ltpFR	12	n/a	n/a	n/a	n/a	n/a	n/a	n/a	19	4	9	6	n/a	n/a	n/a	n/a	n/a
1324.716	n/a	PROB	662358	n/a	LTP279	ltpFR	12	n/a	n/a	n/a	n/a	n/a	n/a	n/a	19	6	4	9	n/a	n/a	n/a	n/a	n/a
1326.088	n/a	STOP	663044	n/a	LTP279	ltpFR	12	n/a	n/a	n/a	n/a	n/a	n/a	n/a	n/a	n/a	n/a	n/a	n/a	n/a	n/a	n/a	n/a
1327.528	n/a	WORD	663764	wordpools/wasnorm_wordpool_less_exclusions.txt	LTP279	ltpFR	12	6	1	EDITOR	516	n/a	n/a	1	n/a	0	0	0	0.422607421875	0.5869140625	0	lower	amplitud.ttf
1330.542	n/a	START	665271	n/a	LTP279	ltpFR	12	n/a	n/a	n/a	n/a	n/a	n/a	n/a	n/a	n/a	n/a	n/a	n/a	n/a	n/a	n/a	n/a
1331.572	n/a	PROB	665786	n/a	LTP279	ltpFR	12	n/a	n/a	n/a	n/a	n/a	n/a	n/a	19	6	7	6	n/a	n/a	n/a	n/a	n/a
1333.852	n/a	PROB	666926	n/a	LTP279	ltpFR	12	n/a	n/a	n/a	n/a	n/a	n/a	n/a	10	2	4	4	n/a	n/a	n/a	n/a	n/a
1335.6	n/a	PROB	667800	n/a	LTP279	ltpFR	12	n/a	n/a	n/a	n/a	n/a	n/a	n/a	14	5	5	4	n/a	n/a	n/a	n/a	n/a
1338.542	n/a	STOP	669271	n/a	LTP279	ltpFR	12	n/a	n/a	n/a	n/a	n/a	n/a	n/a	n/a	n/a	n/a	n/a	n/a	n/a	n/a	n/a	n/a
1339.596	n/a	WORD	669798	wordpools/wasnorm_wordpool_less_exclusions.txt	LTP279	ltpFR	12	6	1	QUILL	1150	n/a	n/a	0	n/a	0	0	0	0.422607421875	0.5869140625	0	lower	amplitud.ttf
1342.608	n/a	START	671304	n/a	LTP279	ltpFR	12	n/a	n/a	n/a	n/a	n/a	n/a	n/a	n/a	n/a	n/a	n/a	n/a	n/a	n/a	n/a	n/a
1343.456	n/a	PROB	671728	n/a	LTP279	ltpFR	12	n/a	n/a	n/a	n/a	n/a	n/a	n/a	8	1	5	2	n/a	n/a	n/a	n/a	n/a
1345.204	n/a	PROB	672602	n/a	LTP279	ltpFR	12	n/a	n/a	n/a	n/a	n/a	n/a	n/a	24	8	8	8	n/a	n/a	n/a	n/a	n/a
1346.634	n/a	PROB	673317	n/a	LTP279	ltpFR	12	n/a	n/a	n/a	n/a	n/a	n/a	n/a	20	9	2	9	n/a	n/a	n/a	n/a	n/a
1350.608	n/a	STOP	675304	n/a	LTP279	ltpFR	12	n/a	n/a	n/a	n/a	n/a	n/a	n/a	n/a	n/a	n/a	n/a	n/a	n/a	n/a	n/a	n/a
1351.478	n/a	WORD	675739	wordpools/wasnorm_wordpool_less_exclusions.txt	LTP279	ltpFR	12	6	0	PARIS	1014	n/a	n/a	1	n/a	0	0	0	0.57763671875	0.412841796875	1	upper	zerothre.ttf
1354.49	n/a	START	677245	n/a	LTP279	ltpFR	12	n/a	n/a	n/a	n/a	n/a	n/a	n/a	n/a	n/a	n/a	n/a	n/a	n/a	n/a	n/a	n/a
1355.422	n/a	PROB	677711	n/a	LTP279	ltpFR	12	n/a	n/a	n/a	n/a	n/a	n/a	n/a	11	5	4	2	n/a	n/a	n/a	n/a	n/a
1357.12	n/a	PROB	678560	n/a	LTP279	ltpFR	12	n/a	n/a	n/a	n/a	n/a	n/a	n/a	17	3	6	8	n/a	n/a	n/a	n/a	n/a
1359.0	n/a	PROB	679500	n/a	LTP279	ltpFR	12	n/a	n/a	n/a	n/a	n/a	n/a	n/a	21	7	5	9	n/a	n/a	n/a	n/a	n/a
1361.608	n/a	STOP	680804	n/a	LTP279	ltpFR	12	n/a	n/a	n/a	n/a	n/a	n/a	n/a	n/a	n/a	n/a	n/a	n/a	n/a	n/a	n/a	n/a
1363.526	n/a	WORD	681763	wordpools/wasnorm_wordpool_less_exclusions.txt	LTP279	ltpFR	12	6	0	FOREHEAD	592	n/a	n/a	0	n/a	0	0	0	0.57763671875	0.412841796875	1	upper	zerothre.ttf
1366.538	n/a	START	683269	n/a	LTP279	ltpFR	12	n/a	n/a	n/a	n/a	n/a	n/a	n/a	n/a	n/a	n/a	n/a	n/a	n/a	n/a	n/a	n/a
1367.404	n/a	PROB	683702	n/a	LTP279	ltpFR	12	n/a	n/a	n/a	n/a	n/a	n/a	n/a	9	3	3	3	n/a	n/a	n/a	n/a	n/a
1368.802	n/a	PROB	684401	n/a	LTP279	ltpFR	12	n/a	n/a	n/a	n/a	n/a	n/a	n/a	15	2	8	5	n/a	n/a	n/a	n/a	n/a
1371.216	n/a	PROB	685608	n/a	LTP279	ltpFR	12	n/a	n/a	n/a	n/a	n/a	n/a	n/a	10	2	2	6	n/a	n/a	n/a	n/a	n/a
1373.16	n/a	STOP	686580	n/a	LTP279	ltpFR	12	n/a	n/a	n/a	n/a	n/a	n/a	n/a	n/a	n/a	n/a	n/a	n/a	n/a	n/a	n/a	n/a
1375.674	n/a	WORD	687837	wordpools/wasnorm_wordpool_less_exclusions.txt	LTP279	ltpFR	12	6	0	CHIP	303	n/a	n/a	0	n/a	0	0	0	0.57763671875	0.412841796875	1	upper	zerothre.ttf
1378.688	n/a	START	689344	n/a	LTP279	ltpFR	12	n/a	n/a	n/a	n/a	n/a	n/a	n/a	n/a	n/a	n/a	n/a	n/a	n/a	n/a	n/a	n/a
1379.552	n/a	PROB	689776	n/a	LTP279	ltpFR	12	n/a	n/a	n/a	n/a	n/a	n/a	n/a	15	4	6	5	n/a	n/a	n/a	n/a	n/a
1381.482	n/a	PROB	690741	n/a	LTP279	ltpFR	12	n/a	n/a	n/a	n/a	n/a	n/a	n/a	24	6	9	7	n/a	n/a	n/a	n/a	n/a
1386.688	n/a	STOP	693344	n/a	LTP279	ltpFR	12	n/a	n/a	n/a	n/a	n/a	n/a	n/a	n/a	n/a	n/a	n/a	n/a	n/a	n/a	n/a	n/a
1387.806	n/a	WORD	693903	wordpools/wasnorm_wordpool_less_exclusions.txt	LTP279	ltpFR	12	6	0	FRANCE	601	n/a	n/a	1	n/a	0	0	0	0.57763671875	0.412841796875	1	upper	zerothre.ttf
1390.82	n/a	START	695410	n/a	LTP279	ltpFR	12	n/a	n/a	n/a	n/a	n/a	n/a	n/a	n/a	n/a	n/a	n/a	n/a	n/a	n/a	n/a	n/a
1391.784	n/a	PROB	695892	n/a	LTP279	ltpFR	12	n/a	n/a	n/a	n/a	n/a	n/a	n/a	15	1	9	5	n/a	n/a	n/a	n/a	n/a
1393.632	n/a	PROB	696816	n/a	LTP279	ltpFR	12	n/a	n/a	n/a	n/a	n/a	n/a	n/a	18	9	1	8	n/a	n/a	n/a	n/a	n/a
1395.296	n/a	PROB	697648	n/a	LTP279	ltpFR	12	n/a	n/a	n/a	n/a	n/a	n/a	n/a	23	7	8	8	n/a	n/a	n/a	n/a	n/a
1397.664	n/a	STOP	698832	n/a	LTP279	ltpFR	12	n/a	n/a	n/a	n/a	n/a	n/a	n/a	n/a	n/a	n/a	n/a	n/a	n/a	n/a	n/a	n/a
1399.938	n/a	WORD	699969	wordpools/wasnorm_wordpool_less_exclusions.txt	LTP279	ltpFR	12	6	0	NOTEBOOK	959	n/a	n/a	0	n/a	0	0	0	0.57763671875	0.412841796875	1	upper	zerothre.ttf
1402.952	n/a	START	701476	n/a	LTP279	ltpFR	12	n/a	n/a	n/a	n/a	n/a	n/a	n/a	n/a	n/a	n/a	n/a	n/a	n/a	n/a	n/a	n/a
1403.916	n/a	PROB	701958	n/a	LTP279	ltpFR	12	n/a	n/a	n/a	n/a	n/a	n/a	n/a	15	3	9	3	n/a	n/a	n/a	n/a	n/a
1405.63	n/a	PROB	702815	n/a	LTP279	ltpFR	12	n/a	n/a	n/a	n/a	n/a	n/a	n/a	12	2	5	5	n/a	n/a	n/a	n/a	n/a
1407.046	n/a	PROB	703523	n/a	LTP279	ltpFR	12	n/a	n/a	n/a	n/a	n/a	n/a	n/a	15	9	4	2	n/a	n/a	n/a	n/a	n/a
1410.952	n/a	STOP	705476	n/a	LTP279	ltpFR	12	n/a	n/a	n/a	n/a	n/a	n/a	n/a	n/a	n/a	n/a	n/a	n/a	n/a	n/a	n/a	n/a
1411.904	n/a	WORD	705952	wordpools/wasnorm_wordpool_less_exclusions.txt	LTP279	ltpFR	12	6	1	COURT	391	n/a	n/a	0	n/a	0	0	0	0.422607421875	0.5869140625	0	lower	amplitud.ttf
1414.918	n/a	START	707459	n/a	LTP279	ltpFR	12	n/a	n/a	n/a	n/a	n/a	n/a	n/a	n/a	n/a	n/a	n/a	n/a	n/a	n/a	n/a	n/a
1416.0	n/a	PROB	708000	n/a	LTP279	ltpFR	12	n/a	n/a	n/a	n/a	n/a	n/a	n/a	16	7	3	6	n/a	n/a	n/a	n/a	n/a
1418.146	n/a	PROB	709073	n/a	LTP279	ltpFR	12	n/a	n/a	n/a	n/a	n/a	n/a	n/a	9	2	3	4	n/a	n/a	n/a	n/a	n/a
1419.926	n/a	PROB	709963	n/a	LTP279	ltpFR	12	n/a	n/a	n/a	n/a	n/a	n/a	n/a	13	8	3	1	n/a	n/a	n/a	n/a	n/a
1421.656	n/a	STOP	710828	n/a	LTP279	ltpFR	12	n/a	n/a	n/a	n/a	n/a	n/a	n/a	n/a	n/a	n/a	n/a	n/a	n/a	n/a	n/a	n/a
1423.886	n/a	WORD	711943	wordpools/wasnorm_wordpool_less_exclusions.txt	LTP279	ltpFR	12	6	1	JUDGE	761	n/a	n/a	1	n/a	0	0	0	0.422607421875	0.5869140625	0	lower	amplitud.ttf
1426.9	n/a	START	713450	n/a	LTP279	ltpFR	12	n/a	n/a	n/a	n/a	n/a	n/a	n/a	n/a	n/a	n/a	n/a	n/a	n/a	n/a	n/a	n/a
1427.914	n/a	PROB	713957	n/a	LTP279	ltpFR	12	n/a	n/a	n/a	n/a	n/a	n/a	n/a	11	7	3	1	n/a	n/a	n/a	n/a	n/a
1429.362	n/a	PROB	714681	n/a	LTP279	ltpFR	12	n/a	n/a	n/a	n/a	n/a	n/a	n/a	12	7	2	3	n/a	n/a	n/a	n/a	n/a
1431.11	n/a	PROB	715555	n/a	LTP279	ltpFR	12	n/a	n/a	n/a	n/a	n/a	n/a	n/a	19	6	5	8	n/a	n/a	n/a	n/a	n/a
1433.464	n/a	STOP	716732	n/a	LTP279	ltpFR	12	n/a	n/a	n/a	n/a	n/a	n/a	n/a	n/a	n/a	n/a	n/a	n/a	n/a	n/a	n/a	n/a
1435.736	n/a	WORD	717868	wordpools/wasnorm_wordpool_less_exclusions.txt	LTP279	ltpFR	12	6	1	FLEA	577	n/a	n/a	1	n/a	0	0	0	0.422607421875	0.5869140625	0	lower	amplitud.ttf
1438.748	n/a	START	719374	n/a	LTP279	ltpFR	12	n/a	n/a	n/a	n/a	n/a	n/a	n/a	n/a	n/a	n/a	n/a	n/a	n/a	n/a	n/a	n/a
1439.946	n/a	PROB	719973	n/a	LTP279	ltpFR	12	n/a	n/a	n/a	n/a	n/a	n/a	n/a	17	7	3	7	n/a	n/a	n/a	n/a	n/a
1441.76	n/a	PROB	720880	n/a	LTP279	ltpFR	12	n/a	n/a	n/a	n/a	n/a	n/a	n/a	15	1	9	5	n/a	n/a	n/a	n/a	n/a
1443.292	n/a	PROB	721646	n/a	LTP279	ltpFR	12	n/a	n/a	n/a	n/a	n/a	n/a	n/a	10	4	3	4	n/a	n/a	n/a	n/a	n/a
1446.748	n/a	STOP	723374	n/a	LTP279	ltpFR	12	n/a	n/a	n/a	n/a	n/a	n/a	n/a	n/a	n/a	n/a	n/a	n/a	n/a	n/a	n/a	n/a
1447.818	n/a	WORD	723909	wordpools/wasnorm_wordpool_less_exclusions.txt	LTP279	ltpFR	12	6	1	GUARD	667	n/a	n/a	1	n/a	0	0	0	0.422607421875	0.5869140625	0	lower	amplitud.ttf
1450.83	n/a	START	725415	n/a	LTP279	ltpFR	12	n/a	n/a	n/a	n/a	n/a	n/a	n/a	n/a	n/a	n/a	n/a	n/a	n/a	n/a	n/a	n/a
1451.896	n/a	PROB	725948	n/a	LTP279	ltpFR	12	n/a	n/a	n/a	n/a	n/a	n/a	n/a	15	4	2	9	n/a	n/a	n/a	n/a	n/a
1453.726	n/a	PROB	726863	n/a	LTP279	ltpFR	12	n/a	n/a	n/a	n/a	n/a	n/a	n/a	23	6	9	8	n/a	n/a	n/a	n/a	n/a
1458.83	n/a	STOP	729415	n/a	LTP279	ltpFR	12	n/a	n/a	n/a	n/a	n/a	n/a	n/a	n/a	n/a	n/a	n/a	n/a	n/a	n/a	n/a	n/a
1459.666	n/a	WORD	729833	wordpools/wasnorm_wordpool_less_exclusions.txt	LTP279	ltpFR	12	6	1	MAILBOX	857	n/a	n/a	0	n/a	0	0	0	0.422607421875	0.5869140625	0	lower	amplitud.ttf
1462.696	n/a	START	731348	n/a	LTP279	ltpFR	12	n/a	n/a	n/a	n/a	n/a	n/a	n/a	n/a	n/a	n/a	n/a	n/a	n/a	n/a	n/a	n/a
1463.71	n/a	PROB	731855	n/a	LTP279	ltpFR	12	n/a	n/a	n/a	n/a	n/a	n/a	n/a	8	2	2	4	n/a	n/a	n/a	n/a	n/a
1465.742	n/a	PROB	732871	n/a	LTP279	ltpFR	12	n/a	n/a	n/a	n/a	n/a	n/a	n/a	13	3	6	4	n/a	n/a	n/a	n/a	n/a
1467.372	n/a	PROB	733686	n/a	LTP279	ltpFR	12	n/a	n/a	n/a	n/a	n/a	n/a	n/a	15	9	4	2	n/a	n/a	n/a	n/a	n/a
1469.054	n/a	PROB	734527	n/a	LTP279	ltpFR	12	n/a	n/a	n/a	n/a	n/a	n/a	n/a	18	8	5	5	n/a	n/a	n/a	n/a	n/a
1470.344	n/a	STOP	735172	n/a	LTP279	ltpFR	12	n/a	n/a	n/a	n/a	n/a	n/a	n/a	n/a	n/a	n/a	n/a	n/a	n/a	n/a	n/a	n/a
1471.716	n/a	WORD	735858	wordpools/wasnorm_wordpool_less_exclusions.txt	LTP279	ltpFR	12	6	1	BURGLAR	200	n/a	n/a	1	n/a	0	0	0	0.422607421875	0.5869140625	0	lower	amplitud.ttf
1474.728	n/a	START	737364	n/a	LTP279	ltpFR	12	n/a	n/a	n/a	n/a	n/a	n/a	n/a	n/a	n/a	n/a	n/a	n/a	n/a	n/a	n/a	n/a
1475.544	n/a	PROB	737772	n/a	LTP279	ltpFR	12	n/a	n/a	n/a	n/a	n/a	n/a	n/a	23	5	9	9	n/a	n/a	n/a	n/a	n/a
1477.606	n/a	PROB	738803	n/a	LTP279	ltpFR	12	n/a	n/a	n/a	n/a	n/a	n/a	n/a	11	4	5	2	n/a	n/a	n/a	n/a	n/a
1479.14	n/a	PROB	739570	n/a	LTP279	ltpFR	12	n/a	n/a	n/a	n/a	n/a	n/a	n/a	17	4	6	7	n/a	n/a	n/a	n/a	n/a
1480.902	n/a	PROB	740451	n/a	LTP279	ltpFR	12	n/a	n/a	n/a	n/a	n/a	n/a	n/a	16	9	2	5	n/a	n/a	n/a	n/a	n/a
1482.426	n/a	STOP	741213	n/a	LTP279	ltpFR	12	n/a	n/a	n/a	n/a	n/a	n/a	n/a	n/a	n/a	n/a	n/a	n/a	n/a	n/a	n/a	n/a
1483.716	n/a	WORD	741858	wordpools/wasnorm_wordpool_less_exclusions.txt	LTP279	ltpFR	12	6	0	KANGAROO	768	n/a	n/a	1	n/a	0	0	0	0.57763671875	0.412841796875	1	upper	zerothre.ttf
1486.728	n/a	START	743364	n/a	LTP279	ltpFR	12	n/a	n/a	n/a	n/a	n/a	n/a	n/a	n/a	n/a	n/a	n/a	n/a	n/a	n/a	n/a	n/a
1487.592	n/a	PROB	743796	n/a	LTP279	ltpFR	12	n/a	n/a	n/a	n/a	n/a	n/a	n/a	13	8	2	3	n/a	n/a	n/a	n/a	n/a
1489.54	n/a	PROB	744770	n/a	LTP279	ltpFR	12	n/a	n/a	n/a	n/a	n/a	n/a	n/a	12	9	1	2	n/a	n/a	n/a	n/a	n/a
1491.72	n/a	PROB	745860	n/a	LTP279	ltpFR	12	n/a	n/a	n/a	n/a	n/a	n/a	n/a	1	4	2	3	n/a	n/a	n/a	n/a	n/a
1493.778	n/a	STOP	746889	n/a	LTP279	ltpFR	12	n/a	n/a	n/a	n/a	n/a	n/a	n/a	n/a	n/a	n/a	n/a	n/a	n/a	n/a	n/a	n/a
1495.548	n/a	WORD	747774	wordpools/wasnorm_wordpool_less_exclusions.txt	LTP279	ltpFR	12	6	0	BAG	69	n/a	n/a	0	n/a	0	0	0	0.57763671875	0.412841796875	1	upper	zerothre.ttf
1498.56	n/a	START	749280	n/a	LTP279	ltpFR	12	n/a	n/a	n/a	n/a	n/a	n/a	n/a	n/a	n/a	n/a	n/a	n/a	n/a	n/a	n/a	n/a
1499.508	n/a	PROB	749754	n/a	LTP279	ltpFR	12	n/a	n/a	n/a	n/a	n/a	n/a	n/a	16	6	5	5	n/a	n/a	n/a	n/a	n/a
1500.956	n/a	PROB	750478	n/a	LTP279	ltpFR	12	n/a	n/a	n/a	n/a	n/a	n/a	n/a	14	2	3	9	n/a	n/a	n/a	n/a	n/a
1503.336	n/a	PROB	751668	n/a	LTP279	ltpFR	12	n/a	n/a	n/a	n/a	n/a	n/a	n/a	13	6	2	5	n/a	n/a	n/a	n/a	n/a
1505.402	n/a	STOP	752701	n/a	LTP279	ltpFR	12	n/a	n/a	n/a	n/a	n/a	n/a	n/a	n/a	n/a	n/a	n/a	n/a	n/a	n/a	n/a	n/a
1507.63	n/a	WORD	753815	wordpools/wasnorm_wordpool_less_exclusions.txt	LTP279	ltpFR	12	6	0	LIPSTICK	829	n/a	n/a	0	n/a	0	0	0	0.57763671875	0.412841796875	1	upper	zerothre.ttf
1510.642	n/a	START	755321	n/a	LTP279	ltpFR	12	n/a	n/a	n/a	n/a	n/a	n/a	n/a	n/a	n/a	n/a	n/a	n/a	n/a	n/a	n/a	n/a
1511.64	n/a	PROB	755820	n/a	LTP279	ltpFR	12	n/a	n/a	n/a	n/a	n/a	n/a	n/a	8	1	3	4	n/a	n/a	n/a	n/a	n/a
1513.09	n/a	PROB	756545	n/a	LTP279	ltpFR	12	n/a	n/a	n/a	n/a	n/a	n/a	n/a	20	3	9	6	n/a	n/a	n/a	n/a	n/a
1515.186	n/a	PROB	757593	n/a	LTP279	ltpFR	12	n/a	n/a	n/a	n/a	n/a	n/a	n/a	13	9	1	3	n/a	n/a	n/a	n/a	n/a
1517.194	n/a	STOP	758597	n/a	LTP279	ltpFR	12	n/a	n/a	n/a	n/a	n/a	n/a	n/a	n/a	n/a	n/a	n/a	n/a	n/a	n/a	n/a	n/a
1520.412	n/a	REC_START	760206	n/a	LTP279	ltpFR	12	6	n/a	n/a	n/a	n/a	n/a	n/a	n/a	0	0	0	n/a	n/a	n/a	n/a	n/a
1522.064	n/a	REC_WORD	761032	wordpools/wasnorm_wordpool_less_exclusions.txt	LTP279	ltpFR	12	6	0	LIPSTICK	829	n/a	n/a	0	n/a	0	0	0	n/a	n/a	n/a	n/a	n/a
1523.852	n/a	REC_WORD	761926	wordpools/wasnorm_wordpool_less_exclusions.txt	LTP279	ltpFR	12	6	1	JUDGE	761	n/a	n/a	1	n/a	0	0	0	n/a	n/a	n/a	n/a	n/a
1527.988	n/a	REC_WORD	763994	wordpools/wasnorm_wordpool_less_exclusions.txt	LTP279	ltpFR	12	6	1	BURGLAR	200	n/a	n/a	1	n/a	0	0	0	n/a	n/a	n/a	n/a	n/a
1532.64	n/a	REC_WORD	766320	wordpools/wasnorm_wordpool_less_exclusions.txt	LTP279	ltpFR	12	6	0	KANGAROO	768	n/a	n/a	1	n/a	0	0	0	n/a	n/a	n/a	n/a	n/a
1535.072	n/a	REC_WORD	767536	wordpools/wasnorm_wordpool_less_exclusions.txt	LTP279	ltpFR	12	6	0	PARIS	1014	n/a	n/a	1	n/a	0	0	0	n/a	n/a	n/a	n/a	n/a
1536.042	n/a	REC_WORD	768021	wordpools/wasnorm_wordpool_less_exclusions.txt	LTP279	ltpFR	12	6	0	FRANCE	601	n/a	n/a	1	n/a	0	0	0	n/a	n/a	n/a	n/a	n/a
1537.042	n/a	REC_WORD_VV	768521	wordpools/wasnorm_wordpool_less_exclusions.txt	LTP279	ltpFR	12	6	n/a	<>	-1	n/a	n/a	n/a	n/a	0	0	0	n/a	n/a	n/a	n/a	n/a
1596.016	n/a	REST_REWET	798008	n/a	LTP279	ltpFR	12	6	n/a	n/a	n/a	n/a	n/a	n/a	n/a	0	0	0	n/a	n/a	n/a	n/a	n/a
1842.9	n/a	START	921450	n/a	LTP279	ltpFR	12	n/a	n/a	n/a	n/a	n/a	n/a	n/a	n/a	n/a	n/a	n/a	n/a	n/a	n/a	n/a	n/a
1844.416	n/a	PROB	922208	n/a	LTP279	ltpFR	12	n/a	n/a	n/a	n/a	n/a	n/a	n/a	21	7	8	6	n/a	n/a	n/a	n/a	n/a
1846.712	n/a	PROB	923356	n/a	LTP279	ltpFR	12	n/a	n/a	n/a	n/a	n/a	n/a	n/a	21	6	6	9	n/a	n/a	n/a	n/a	n/a
1848.626	n/a	PROB	924313	n/a	LTP279	ltpFR	12	n/a	n/a	n/a	n/a	n/a	n/a	n/a	16	2	7	7	n/a	n/a	n/a	n/a	n/a
1850.274	n/a	PROB	925137	n/a	LTP279	ltpFR	12	n/a	n/a	n/a	n/a	n/a	n/a	n/a	21	9	6	6	n/a	n/a	n/a	n/a	n/a
1852.586	n/a	PROB	926293	n/a	LTP279	ltpFR	12	n/a	n/a	n/a	n/a	n/a	n/a	n/a	12	2	1	9	n/a	n/a	n/a	n/a	n/a
1854.55	n/a	PROB	927275	n/a	LTP279	ltpFR	12	n/a	n/a	n/a	n/a	n/a	n/a	n/a	12	3	2	7	n/a	n/a	n/a	n/a	n/a
1856.282	n/a	PROB	928141	n/a	LTP279	ltpFR	12	n/a	n/a	n/a	n/a	n/a	n/a	n/a	21	5	7	9	n/a	n/a	n/a	n/a	n/a
1858.438	n/a	STOP	929219	n/a	LTP279	ltpFR	12	n/a	n/a	n/a	n/a	n/a	n/a	n/a	n/a	n/a	n/a	n/a	n/a	n/a	n/a	n/a	n/a
1859.876	n/a	WORD	929938	wordpools/wasnorm_wordpool_less_exclusions.txt	LTP279	ltpFR	12	7	0	FORT	595	n/a	n/a	0	n/a	0	0	0	0.57763671875	0.412841796875	1	upper	zerothre.ttf
1862.888	n/a	START	931444	n/a	LTP279	ltpFR	12	n/a	n/a	n/a	n/a	n/a	n/a	n/a	n/a	n/a	n/a	n/a	n/a	n/a	n/a	n/a	n/a
1864.036	n/a	PROB	932018	n/a	LTP279	ltpFR	12	n/a	n/a	n/a	n/a	n/a	n/a	n/a	20	7	2	9	n/a	n/a	n/a	n/a	n/a
1865.916	n/a	PROB	932958	n/a	LTP279	ltpFR	12	n/a	n/a	n/a	n/a	n/a	n/a	n/a	17	2	8	7	n/a	n/a	n/a	n/a	n/a
1870.16	n/a	PROB	935080	n/a	LTP279	ltpFR	12	n/a	n/a	n/a	n/a	n/a	n/a	n/a	18	7	4	7	n/a	n/a	n/a	n/a	n/a
1872.308	n/a	PROB	936154	n/a	LTP279	ltpFR	12	n/a	n/a	n/a	n/a	n/a	n/a	n/a	17	5	7	5	n/a	n/a	n/a	n/a	n/a
1873.888	n/a	PROB	936944	n/a	LTP279	ltpFR	12	n/a	n/a	n/a	n/a	n/a	n/a	n/a	19	5	9	6	n/a	n/a	n/a	n/a	n/a
1876.052	n/a	PROB	938026	n/a	LTP279	ltpFR	12	n/a	n/a	n/a	n/a	n/a	n/a	n/a	16	3	6	7	n/a	n/a	n/a	n/a	n/a
1878.144	n/a	STOP	939072	n/a	LTP279	ltpFR	12	n/a	n/a	n/a	n/a	n/a	n/a	n/a	n/a	n/a	n/a	n/a	n/a	n/a	n/a	n/a	n/a
1879.828	n/a	WORD	939914	wordpools/wasnorm_wordpool_less_exclusions.txt	LTP279	ltpFR	12	7	0	CORPORATION	382	n/a	n/a	1	n/a	0	0	0	0.57763671875	0.412841796875	1	upper	zerothre.ttf
1882.842	n/a	START	941421	n/a	LTP279	ltpFR	12	n/a	n/a	n/a	n/a	n/a	n/a	n/a	n/a	n/a	n/a	n/a	n/a	n/a	n/a	n/a	n/a
1884.056	n/a	PROB	942028	n/a	LTP279	ltpFR	12	n/a	n/a	n/a	n/a	n/a	n/a	n/a	13	1	5	7	n/a	n/a	n/a	n/a	n/a
1886.352	n/a	PROB	943176	n/a	LTP279	ltpFR	12	n/a	n/a	n/a	n/a	n/a	n/a	n/a	20	6	7	7	n/a	n/a	n/a	n/a	n/a
1888.932	n/a	PROB	944466	n/a	LTP279	ltpFR	12	n/a	n/a	n/a	n/a	n/a	n/a	n/a	18	8	8	2	n/a	n/a	n/a	n/a	n/a
1891.112	n/a	PROB	945556	n/a	LTP279	ltpFR	12	n/a	n/a	n/a	n/a	n/a	n/a	n/a	13	9	1	3	n/a	n/a	n/a	n/a	n/a
1893.276	n/a	PROB	946638	n/a	LTP279	ltpFR	12	n/a	n/a	n/a	n/a	n/a	n/a	n/a	13	5	2	6	n/a	n/a	n/a	n/a	n/a
1895.922	n/a	PROB	947961	n/a	LTP279	ltpFR	12	n/a	n/a	n/a	n/a	n/a	n/a	n/a	12	4	5	3	n/a	n/a	n/a	n/a	n/a
1897.72	n/a	STOP	948860	n/a	LTP279	ltpFR	12	n/a	n/a	n/a	n/a	n/a	n/a	n/a	n/a	n/a	n/a	n/a	n/a	n/a	n/a	n/a	n/a
1899.884	n/a	WORD	949942	wordpools/wasnorm_wordpool_less_exclusions.txt	LTP279	ltpFR	12	7	0	COTTAGE	384	n/a	n/a	0	n/a	0	0	0	0.57763671875	0.412841796875	1	upper	zerothre.ttf
1902.896	n/a	START	951448	n/a	LTP279	ltpFR	12	n/a	n/a	n/a	n/a	n/a	n/a	n/a	n/a	n/a	n/a	n/a	n/a	n/a	n/a	n/a	n/a
1903.778	n/a	PROB	951889	n/a	LTP279	ltpFR	12	n/a	n/a	n/a	n/a	n/a	n/a	n/a	13	6	2	5	n/a	n/a	n/a	n/a	n/a
1905.708	n/a	PROB	952854	n/a	LTP279	ltpFR	12	n/a	n/a	n/a	n/a	n/a	n/a	n/a	19	6	7	5	n/a	n/a	n/a	n/a	n/a
1908.206	n/a	PROB	954103	n/a	LTP279	ltpFR	12	n/a	n/a	n/a	n/a	n/a	n/a	n/a	14	7	6	1	n/a	n/a	n/a	n/a	n/a
1911.068	n/a	PROB	955534	n/a	LTP279	ltpFR	12	n/a	n/a	n/a	n/a	n/a	n/a	n/a	12	3	8	1	n/a	n/a	n/a	n/a	n/a
1912.964	n/a	PROB	956482	n/a	LTP279	ltpFR	12	n/a	n/a	n/a	n/a	n/a	n/a	n/a	15	5	6	4	n/a	n/a	n/a	n/a	n/a
1915.128	n/a	PROB	957564	n/a	LTP279	ltpFR	12	n/a	n/a	n/a	n/a	n/a	n/a	n/a	10	1	8	1	n/a	n/a	n/a	n/a	n/a
1916.574	n/a	PROB	958287	n/a	LTP279	ltpFR	12	n/a	n/a	n/a	n/a	n/a	n/a	n/a	12	6	5	1	n/a	n/a	n/a	n/a	n/a
1918.232	n/a	STOP	959116	n/a	LTP279	ltpFR	12	n/a	n/a	n/a	n/a	n/a	n/a	n/a	n/a	n/a	n/a	n/a	n/a	n/a	n/a	n/a	n/a
1919.736	n/a	WORD	959868	wordpools/wasnorm_wordpool_less_exclusions.txt	LTP279	ltpFR	12	7	0	REFRIGERATOR	1179	n/a	n/a	0	n/a	0	0	0	0.57763671875	0.412841796875	1	upper	zerothre.ttf
1922.75	n/a	START	961375	n/a	LTP279	ltpFR	12	n/a	n/a	n/a	n/a	n/a	n/a	n/a	n/a	n/a	n/a	n/a	n/a	n/a	n/a	n/a	n/a
1923.648	n/a	PROB	961824	n/a	LTP279	ltpFR	12	n/a	n/a	n/a	n/a	n/a	n/a	n/a	17	7	1	9	n/a	n/a	n/a	n/a	n/a
1926.644	n/a	PROB	963322	n/a	LTP279	ltpFR	12	n/a	n/a	n/a	n/a	n/a	n/a	n/a	15	5	6	4	n/a	n/a	n/a	n/a	n/a
1928.308	n/a	PROB	964154	n/a	LTP279	ltpFR	12	n/a	n/a	n/a	n/a	n/a	n/a	n/a	14	1	5	8	n/a	n/a	n/a	n/a	n/a
1930.222	n/a	PROB	965111	n/a	LTP279	ltpFR	12	n/a	n/a	n/a	n/a	n/a	n/a	n/a	8	1	1	6	n/a	n/a	n/a	n/a	n/a
1931.67	n/a	PROB	965835	n/a	LTP279	ltpFR	12	n/a	n/a	n/a	n/a	n/a	n/a	n/a	9	3	5	1	n/a	n/a	n/a	n/a	n/a
1933.566	n/a	PROB	966783	n/a	LTP279	ltpFR	12	n/a	n/a	n/a	n/a	n/a	n/a	n/a	18	9	4	5	n/a	n/a	n/a	n/a	n/a
1935.38	n/a	PROB	967690	n/a	LTP279	ltpFR	12	n/a	n/a	n/a	n/a	n/a	n/a	n/a	12	5	5	2	n/a	n/a	n/a	n/a	n/a
1936.894	n/a	PROB	968447	n/a	LTP279	ltpFR	12	n/a	n/a	n/a	n/a	n/a	n/a	n/a	14	5	5	4	n/a	n/a	n/a	n/a	n/a
1938.08	n/a	STOP	969040	n/a	LTP279	ltpFR	12	n/a	n/a	n/a	n/a	n/a	n/a	n/a	n/a	n/a	n/a	n/a	n/a	n/a	n/a	n/a	n/a
1939.69	n/a	WORD	969845	wordpools/wasnorm_wordpool_less_exclusions.txt	LTP279	ltpFR	12	7	0	HAIL	676	n/a	n/a	0	n/a	0	0	0	0.57763671875	0.412841796875	1	upper	zerothre.ttf
1942.702	n/a	START	971351	n/a	LTP279	ltpFR	12	n/a	n/a	n/a	n/a	n/a	n/a	n/a	n/a	n/a	n/a	n/a	n/a	n/a	n/a	n/a	n/a
1943.652	n/a	PROB	971826	n/a	LTP279	ltpFR	12	n/a	n/a	n/a	n/a	n/a	n/a	n/a	15	5	7	3	n/a	n/a	n/a	n/a	n/a
1946.248	n/a	PROB	973124	n/a	LTP279	ltpFR	12	n/a	n/a	n/a	n/a	n/a	n/a	n/a	18	4	4	9	n/a	n/a	n/a	n/a	n/a
1948.328	n/a	PROB	974164	n/a	LTP279	ltpFR	12	n/a	n/a	n/a	n/a	n/a	n/a	n/a	9	5	2	2	n/a	n/a	n/a	n/a	n/a
1949.758	n/a	PROB	974879	n/a	LTP279	ltpFR	12	n/a	n/a	n/a	n/a	n/a	n/a	n/a	12	6	5	1	n/a	n/a	n/a	n/a	n/a
1951.372	n/a	PROB	975686	n/a	LTP279	ltpFR	12	n/a	n/a	n/a	n/a	n/a	n/a	n/a	16	3	8	5	n/a	n/a	n/a	n/a	n/a
1953.82	n/a	PROB	976910	n/a	LTP279	ltpFR	12	n/a	n/a	n/a	n/a	n/a	n/a	n/a	17	4	7	6	n/a	n/a	n/a	n/a	n/a
1958.688	n/a	STOP	979344	n/a	LTP279	ltpFR	12	n/a	n/a	n/a	n/a	n/a	n/a	n/a	n/a	n/a	n/a	n/a	n/a	n/a	n/a	n/a	n/a
1959.826	n/a	WORD	979913	wordpools/wasnorm_wordpool_less_exclusions.txt	LTP279	ltpFR	12	7	0	BUILDER	190	n/a	n/a	1	n/a	0	0	0	0.57763671875	0.412841796875	1	upper	zerothre.ttf
1962.84	n/a	START	981420	n/a	LTP279	ltpFR	12	n/a	n/a	n/a	n/a	n/a	n/a	n/a	n/a	n/a	n/a	n/a	n/a	n/a	n/a	n/a	n/a
1964.022	n/a	PROB	982011	n/a	LTP279	ltpFR	12	n/a	n/a	n/a	n/a	n/a	n/a	n/a	18	9	4	5	n/a	n/a	n/a	n/a	n/a
1966.068	n/a	PROB	983034	n/a	LTP279	ltpFR	12	n/a	n/a	n/a	n/a	n/a	n/a	n/a	15	8	1	6	n/a	n/a	n/a	n/a	n/a
1968.066	n/a	PROB	984033	n/a	LTP279	ltpFR	12	n/a	n/a	n/a	n/a	n/a	n/a	n/a	14	4	5	8	n/a	n/a	n/a	n/a	n/a
1970.33	n/a	PROB	985165	n/a	LTP279	ltpFR	12	n/a	n/a	n/a	n/a	n/a	n/a	n/a	17	1	7	9	n/a	n/a	n/a	n/a	n/a
1973.624	n/a	PROB	986812	n/a	LTP279	ltpFR	12	n/a	n/a	n/a	n/a	n/a	n/a	n/a	18	7	4	7	n/a	n/a	n/a	n/a	n/a
1975.122	n/a	PROB	987561	n/a	LTP279	ltpFR	12	n/a	n/a	n/a	n/a	n/a	n/a	n/a	1	6	3	3	n/a	n/a	n/a	n/a	n/a
1978.84	n/a	STOP	989420	n/a	LTP279	ltpFR	12	n/a	n/a	n/a	n/a	n/a	n/a	n/a	n/a	n/a	n/a	n/a	n/a	n/a	n/a	n/a	n/a
1979.698	n/a	WORD	989849	wordpools/wasnorm_wordpool_less_exclusions.txt	LTP279	ltpFR	12	7	0	CASH	252	n/a	n/a	0	n/a	0	0	0	0.57763671875	0.412841796875	1	upper	zerothre.ttf
1982.71	n/a	START	991355	n/a	LTP279	ltpFR	12	n/a	n/a	n/a	n/a	n/a	n/a	n/a	n/a	n/a	n/a	n/a	n/a	n/a	n/a	n/a	n/a
1983.526	n/a	PROB	991763	n/a	LTP279	ltpFR	12	n/a	n/a	n/a	n/a	n/a	n/a	n/a	22	6	8	8	n/a	n/a	n/a	n/a	n/a
1985.29	n/a	PROB	992645	n/a	LTP279	ltpFR	12	n/a	n/a	n/a	n/a	n/a	n/a	n/a	15	5	3	7	n/a	n/a	n/a	n/a	n/a
1987.104	n/a	PROB	993552	n/a	LTP279	ltpFR	12	n/a	n/a	n/a	n/a	n/a	n/a	n/a	16	5	4	7	n/a	n/a	n/a	n/a	n/a
1989.236	n/a	PROB	994618	n/a	LTP279	ltpFR	12	n/a	n/a	n/a	n/a	n/a	n/a	n/a	17	3	7	7	n/a	n/a	n/a	n/a	n/a
1991.282	n/a	PROB	995641	n/a	LTP279	ltpFR	12	n/a	n/a	n/a	n/a	n/a	n/a	n/a	14	3	7	4	n/a	n/a	n/a	n/a	n/a
1993.478	n/a	PROB	996739	n/a	LTP279	ltpFR	12	n/a	n/a	n/a	n/a	n/a	n/a	n/a	13	3	5	5	n/a	n/a	n/a	n/a	n/a
1995.474	n/a	PROB	997737	n/a	LTP279	ltpFR	12	n/a	n/a	n/a	n/a	n/a	n/a	n/a	21	8	4	9	n/a	n/a	n/a	n/a	n/a
1997.21	n/a	STOP	998605	n/a	LTP279	ltpFR	12	n/a	n/a	n/a	n/a	n/a	n/a	n/a	n/a	n/a	n/a	n/a	n/a	n/a	n/a	n/a	n/a
1999.536	n/a	WORD	999768	wordpools/wasnorm_wordpool_less_exclusions.txt	LTP279	ltpFR	12	7	0	DOLLAR	482	n/a	n/a	0	n/a	0	0	0	0.57763671875	0.412841796875	1	upper	zerothre.ttf
2002.548	n/a	START	1001274	n/a	LTP279	ltpFR	12	n/a	n/a	n/a	n/a	n/a	n/a	n/a	n/a	n/a	n/a	n/a	n/a	n/a	n/a	n/a	n/a
2003.58	n/a	PROB	1001790	n/a	LTP279	ltpFR	12	n/a	n/a	n/a	n/a	n/a	n/a	n/a	15	5	5	5	n/a	n/a	n/a	n/a	n/a
2004.928	n/a	PROB	1002464	n/a	LTP279	ltpFR	12	n/a	n/a	n/a	n/a	n/a	n/a	n/a	16	3	6	7	n/a	n/a	n/a	n/a	n/a
2007.174	n/a	PROB	1003587	n/a	LTP279	ltpFR	12	n/a	n/a	n/a	n/a	n/a	n/a	n/a	19	9	1	9	n/a	n/a	n/a	n/a	n/a
2008.838	n/a	PROB	1004419	n/a	LTP279	ltpFR	12	n/a	n/a	n/a	n/a	n/a	n/a	n/a	19	6	9	4	n/a	n/a	n/a	n/a	n/a
2011.634	n/a	PROB	1005817	n/a	LTP279	ltpFR	12	n/a	n/a	n/a	n/a	n/a	n/a	n/a	6	1	2	3	n/a	n/a	n/a	n/a	n/a
2013.182	n/a	PROB	1006591	n/a	LTP279	ltpFR	12	n/a	n/a	n/a	n/a	n/a	n/a	n/a	10	1	4	5	n/a	n/a	n/a	n/a	n/a
2015.08	n/a	PROB	1007540	n/a	LTP279	ltpFR	12	n/a	n/a	n/a	n/a	n/a	n/a	n/a	10	2	6	2	n/a	n/a	n/a	n/a	n/a
2018.392	n/a	STOP	1009196	n/a	LTP279	ltpFR	12	n/a	n/a	n/a	n/a	n/a	n/a	n/a	n/a	n/a	n/a	n/a	n/a	n/a	n/a	n/a	n/a
2019.622	n/a	WORD	1009811	wordpools/wasnorm_wordpool_less_exclusions.txt	LTP279	ltpFR	12	7	0	WATERFALL	1595	n/a	n/a	1	n/a	0	0	0	0.57763671875	0.412841796875	1	upper	zerothre.ttf
2022.634	n/a	START	1011317	n/a	LTP279	ltpFR	12	n/a	n/a	n/a	n/a	n/a	n/a	n/a	n/a	n/a	n/a	n/a	n/a	n/a	n/a	n/a	n/a
2023.716	n/a	PROB	1011858	n/a	LTP279	ltpFR	12	n/a	n/a	n/a	n/a	n/a	n/a	n/a	14	5	3	6	n/a	n/a	n/a	n/a	n/a
2025.98	n/a	PROB	1012990	n/a	LTP279	ltpFR	12	n/a	n/a	n/a	n/a	n/a	n/a	n/a	20	6	9	5	n/a	n/a	n/a	n/a	n/a
2028.194	n/a	PROB	1014097	n/a	LTP279	ltpFR	12	n/a	n/a	n/a	n/a	n/a	n/a	n/a	22	8	7	7	n/a	n/a	n/a	n/a	n/a
2031.354	n/a	PROB	1015677	n/a	LTP279	ltpFR	12	n/a	n/a	n/a	n/a	n/a	n/a	n/a	14	9	2	3	n/a	n/a	n/a	n/a	n/a
2033.22	n/a	PROB	1016610	n/a	LTP279	ltpFR	12	n/a	n/a	n/a	n/a	n/a	n/a	n/a	7	4	2	1	n/a	n/a	n/a	n/a	n/a
2035.134	n/a	PROB	1017567	n/a	LTP279	ltpFR	12	n/a	n/a	n/a	n/a	n/a	n/a	n/a	16	7	7	2	n/a	n/a	n/a	n/a	n/a
2038.636	n/a	STOP	1019318	n/a	LTP279	ltpFR	12	n/a	n/a	n/a	n/a	n/a	n/a	n/a	n/a	n/a	n/a	n/a	n/a	n/a	n/a	n/a	n/a
2039.576	n/a	WORD	1019788	wordpools/wasnorm_wordpool_less_exclusions.txt	LTP279	ltpFR	12	7	0	TRAY	1498	n/a	n/a	0	n/a	0	0	0	0.57763671875	0.412841796875	1	upper	zerothre.ttf
2042.59	n/a	START	1021295	n/a	LTP279	ltpFR	12	n/a	n/a	n/a	n/a	n/a	n/a	n/a	n/a	n/a	n/a	n/a	n/a	n/a	n/a	n/a	n/a
2043.438	n/a	PROB	1021719	n/a	LTP279	ltpFR	12	n/a	n/a	n/a	n/a	n/a	n/a	n/a	19	5	9	5	n/a	n/a	n/a	n/a	n/a
2045.22	n/a	PROB	1022610	n/a	LTP279	ltpFR	12	n/a	n/a	n/a	n/a	n/a	n/a	n/a	12	6	3	3	n/a	n/a	n/a	n/a	n/a
2047.332	n/a	PROB	1023666	n/a	LTP279	ltpFR	12	n/a	n/a	n/a	n/a	n/a	n/a	n/a	16	3	9	7	n/a	n/a	n/a	n/a	n/a
2049.014	n/a	PROB	1024507	n/a	LTP279	ltpFR	12	n/a	n/a	n/a	n/a	n/a	n/a	n/a	17	1	9	7	n/a	n/a	n/a	n/a	n/a
2051.226	n/a	PROB	1025613	n/a	LTP279	ltpFR	12	n/a	n/a	n/a	n/a	n/a	n/a	n/a	17	7	4	6	n/a	n/a	n/a	n/a	n/a
2053.174	n/a	PROB	1026587	n/a	LTP279	ltpFR	12	n/a	n/a	n/a	n/a	n/a	n/a	n/a	9	2	4	3	n/a	n/a	n/a	n/a	n/a
2055.122	n/a	PROB	1027561	n/a	LTP279	ltpFR	12	n/a	n/a	n/a	n/a	n/a	n/a	n/a	16	6	7	3	n/a	n/a	n/a	n/a	n/a
2057.066	n/a	STOP	1028533	n/a	LTP279	ltpFR	12	n/a	n/a	n/a	n/a	n/a	n/a	n/a	n/a	n/a	n/a	n/a	n/a	n/a	n/a	n/a	n/a
2059.546	n/a	WORD	1029773	wordpools/wasnorm_wordpool_less_exclusions.txt	LTP279	ltpFR	12	7	0	OUTDOORS	987	n/a	n/a	0	n/a	0	0	0	0.57763671875	0.412841796875	1	upper	zerothre.ttf
2062.56	n/a	START	1031280	n/a	LTP279	ltpFR	12	n/a	n/a	n/a	n/a	n/a	n/a	n/a	n/a	n/a	n/a	n/a	n/a	n/a	n/a	n/a	n/a
2063.624	n/a	PROB	1031812	n/a	LTP279	ltpFR	12	n/a	n/a	n/a	n/a	n/a	n/a	n/a	24	7	9	8	n/a	n/a	n/a	n/a	n/a
2065.638	n/a	PROB	1032819	n/a	LTP279	ltpFR	12	n/a	n/a	n/a	n/a	n/a	n/a	n/a	19	8	2	9	n/a	n/a	n/a	n/a	n/a
2067.702	n/a	PROB	1033851	n/a	LTP279	ltpFR	12	n/a	n/a	n/a	n/a	n/a	n/a	n/a	14	5	1	8	n/a	n/a	n/a	n/a	n/a
2069.882	n/a	PROB	1034941	n/a	LTP279	ltpFR	12	n/a	n/a	n/a	n/a	n/a	n/a	n/a	16	2	7	7	n/a	n/a	n/a	n/a	n/a
2071.296	n/a	PROB	1035648	n/a	LTP279	ltpFR	12	n/a	n/a	n/a	n/a	n/a	n/a	n/a	18	7	5	6	n/a	n/a	n/a	n/a	n/a
2073.244	n/a	PROB	1036622	n/a	LTP279	ltpFR	12	n/a	n/a	n/a	n/a	n/a	n/a	n/a	7	4	2	1	n/a	n/a	n/a	n/a	n/a
2074.724	n/a	PROB	1037362	n/a	LTP279	ltpFR	12	n/a	n/a	n/a	n/a	n/a	n/a	n/a	19	9	8	2	n/a	n/a	n/a	n/a	n/a
2078.558	n/a	STOP	1039279	n/a	LTP279	ltpFR	12	n/a	n/a	n/a	n/a	n/a	n/a	n/a	n/a	n/a	n/a	n/a	n/a	n/a	n/a	n/a	n/a
2079.65	n/a	WORD	1039825	wordpools/wasnorm_wordpool_less_exclusions.txt	LTP279	ltpFR	12	7	0	SKIRT	1319	n/a	n/a	0	n/a	0	0	0	0.57763671875	0.412841796875	1	upper	zerothre.ttf
2082.662	n/a	START	1041331	n/a	LTP279	ltpFR	12	n/a	n/a	n/a	n/a	n/a	n/a	n/a	n/a	n/a	n/a	n/a	n/a	n/a	n/a	n/a	n/a
2083.728	n/a	PROB	1041864	n/a	LTP279	ltpFR	12	n/a	n/a	n/a	n/a	n/a	n/a	n/a	8	4	1	3	n/a	n/a	n/a	n/a	n/a
2085.442	n/a	PROB	1042721	n/a	LTP279	ltpFR	12	n/a	n/a	n/a	n/a	n/a	n/a	n/a	18	5	7	6	n/a	n/a	n/a	n/a	n/a
2087.654	n/a	PROB	1043827	n/a	LTP279	ltpFR	12	n/a	n/a	n/a	n/a	n/a	n/a	n/a	14	1	4	9	n/a	n/a	n/a	n/a	n/a
2089.104	n/a	PROB	1044552	n/a	LTP279	ltpFR	12	n/a	n/a	n/a	n/a	n/a	n/a	n/a	10	3	6	1	n/a	n/a	n/a	n/a	n/a
2090.966	n/a	PROB	1045483	n/a	LTP279	ltpFR	12	n/a	n/a	n/a	n/a	n/a	n/a	n/a	19	8	8	3	n/a	n/a	n/a	n/a	n/a
2092.714	n/a	PROB	1046357	n/a	LTP279	ltpFR	12	n/a	n/a	n/a	n/a	n/a	n/a	n/a	13	4	3	6	n/a	n/a	n/a	n/a	n/a
2094.678	n/a	PROB	1047339	n/a	LTP279	ltpFR	12	n/a	n/a	n/a	n/a	n/a	n/a	n/a	16	1	6	9	n/a	n/a	n/a	n/a	n/a
2096.558	n/a	PROB	1048279	n/a	LTP279	ltpFR	12	n/a	n/a	n/a	n/a	n/a	n/a	n/a	11	3	7	1	n/a	n/a	n/a	n/a	n/a
2098.09	n/a	STOP	1049045	n/a	LTP279	ltpFR	12	n/a	n/a	n/a	n/a	n/a	n/a	n/a	n/a	n/a	n/a	n/a	n/a	n/a	n/a	n/a	n/a
2099.854	n/a	WORD	1049927	wordpools/wasnorm_wordpool_less_exclusions.txt	LTP279	ltpFR	12	7	0	DENIM	446	n/a	n/a	0	n/a	0	0	0	0.57763671875	0.412841796875	1	upper	zerothre.ttf
2102.866	n/a	START	1051433	n/a	LTP279	ltpFR	12	n/a	n/a	n/a	n/a	n/a	n/a	n/a	n/a	n/a	n/a	n/a	n/a	n/a	n/a	n/a	n/a
2103.73	n/a	PROB	1051865	n/a	LTP279	ltpFR	12	n/a	n/a	n/a	n/a	n/a	n/a	n/a	12	5	2	5	n/a	n/a	n/a	n/a	n/a
2105.478	n/a	PROB	1052739	n/a	LTP279	ltpFR	12	n/a	n/a	n/a	n/a	n/a	n/a	n/a	12	5	5	2	n/a	n/a	n/a	n/a	n/a
2106.81	n/a	PROB	1053405	n/a	LTP279	ltpFR	12	n/a	n/a	n/a	n/a	n/a	n/a	n/a	20	6	8	8	n/a	n/a	n/a	n/a	n/a
2108.658	n/a	PROB	1054329	n/a	LTP279	ltpFR	12	n/a	n/a	n/a	n/a	n/a	n/a	n/a	18	9	3	6	n/a	n/a	n/a	n/a	n/a
2111.204	n/a	PROB	1055602	n/a	LTP279	ltpFR	12	n/a	n/a	n/a	n/a	n/a	n/a	n/a	19	8	5	6	n/a	n/a	n/a	n/a	n/a
2113.6	n/a	PROB	1056800	n/a	LTP279	ltpFR	12	n/a	n/a	n/a	n/a	n/a	n/a	n/a	11	3	1	7	n/a	n/a	n/a	n/a	n/a
2115.63	n/a	PROB	1057815	n/a	LTP279	ltpFR	12	n/a	n/a	n/a	n/a	n/a	n/a	n/a	21	8	8	5	n/a	n/a	n/a	n/a	n/a
2118.866	n/a	STOP	1059433	n/a	LTP279	ltpFR	12	n/a	n/a	n/a	n/a	n/a	n/a	n/a	n/a	n/a	n/a	n/a	n/a	n/a	n/a	n/a	n/a
2119.908	n/a	WORD	1059954	wordpools/wasnorm_wordpool_less_exclusions.txt	LTP279	ltpFR	12	7	0	ARM	38	n/a	n/a	0	n/a	0	0	0	0.57763671875	0.412841796875	1	upper	zerothre.ttf
2122.92	n/a	START	1061460	n/a	LTP279	ltpFR	12	n/a	n/a	n/a	n/a	n/a	n/a	n/a	n/a	n/a	n/a	n/a	n/a	n/a	n/a	n/a	n/a
2123.952	n/a	PROB	1061976	n/a	LTP279	ltpFR	12	n/a	n/a	n/a	n/a	n/a	n/a	n/a	14	8	4	2	n/a	n/a	n/a	n/a	n/a
2125.798	n/a	PROB	1062899	n/a	LTP279	ltpFR	12	n/a	n/a	n/a	n/a	n/a	n/a	n/a	15	7	2	6	n/a	n/a	n/a	n/a	n/a
2127.912	n/a	PROB	1063956	n/a	LTP279	ltpFR	12	n/a	n/a	n/a	n/a	n/a	n/a	n/a	15	1	5	9	n/a	n/a	n/a	n/a	n/a
2129.476	n/a	PROB	1064738	n/a	LTP279	ltpFR	12	n/a	n/a	n/a	n/a	n/a	n/a	n/a	19	7	6	6	n/a	n/a	n/a	n/a	n/a
2131.474	n/a	PROB	1065737	n/a	LTP279	ltpFR	12	n/a	n/a	n/a	n/a	n/a	n/a	n/a	14	5	3	6	n/a	n/a	n/a	n/a	n/a
2133.986	n/a	PROB	1066993	n/a	LTP279	ltpFR	12	n/a	n/a	n/a	n/a	n/a	n/a	n/a	8	1	1	6	n/a	n/a	n/a	n/a	n/a
2135.252	n/a	PROB	1067626	n/a	LTP279	ltpFR	12	n/a	n/a	n/a	n/a	n/a	n/a	n/a	16	3	9	4	n/a	n/a	n/a	n/a	n/a
2138.92	n/a	STOP	1069460	n/a	LTP279	ltpFR	12	n/a	n/a	n/a	n/a	n/a	n/a	n/a	n/a	n/a	n/a	n/a	n/a	n/a	n/a	n/a	n/a
2140.046	n/a	WORD	1070023	wordpools/wasnorm_wordpool_less_exclusions.txt	LTP279	ltpFR	12	7	0	PATROL	1027	n/a	n/a	0	n/a	0	0	0	0.57763671875	0.412841796875	1	upper	zerothre.ttf
2143.058	n/a	START	1071529	n/a	LTP279	ltpFR	12	n/a	n/a	n/a	n/a	n/a	n/a	n/a	n/a	n/a	n/a	n/a	n/a	n/a	n/a	n/a	n/a
2144.19	n/a	PROB	1072095	n/a	LTP279	ltpFR	12	n/a	n/a	n/a	n/a	n/a	n/a	n/a	18	8	7	3	n/a	n/a	n/a	n/a	n/a
2146.27	n/a	PROB	1073135	n/a	LTP279	ltpFR	12	n/a	n/a	n/a	n/a	n/a	n/a	n/a	16	4	5	6	n/a	n/a	n/a	n/a	n/a
2148.464	n/a	PROB	1074232	n/a	LTP279	ltpFR	12	n/a	n/a	n/a	n/a	n/a	n/a	n/a	18	2	7	9	n/a	n/a	n/a	n/a	n/a
2151.162	n/a	PROB	1075581	n/a	LTP279	ltpFR	12	n/a	n/a	n/a	n/a	n/a	n/a	n/a	10	1	3	6	n/a	n/a	n/a	n/a	n/a
2153.176	n/a	PROB	1076588	n/a	LTP279	ltpFR	12	n/a	n/a	n/a	n/a	n/a	n/a	n/a	9	1	4	4	n/a	n/a	n/a	n/a	n/a
2154.44	n/a	PROB	1077220	n/a	LTP279	ltpFR	12	n/a	n/a	n/a	n/a	n/a	n/a	n/a	12	4	2	6	n/a	n/a	n/a	n/a	n/a
2159.058	n/a	STOP	1079529	n/a	LTP279	ltpFR	12	n/a	n/a	n/a	n/a	n/a	n/a	n/a	n/a	n/a	n/a	n/a	n/a	n/a	n/a	n/a	n/a
2160.082	n/a	WORD	1080041	wordpools/wasnorm_wordpool_less_exclusions.txt	LTP279	ltpFR	12	7	0	SWEATER	1419	n/a	n/a	0	n/a	0	0	0	0.57763671875	0.412841796875	1	upper	zerothre.ttf
2163.094	n/a	START	1081547	n/a	LTP279	ltpFR	12	n/a	n/a	n/a	n/a	n/a	n/a	n/a	n/a	n/a	n/a	n/a	n/a	n/a	n/a	n/a	n/a
2164.226	n/a	PROB	1082113	n/a	LTP279	ltpFR	12	n/a	n/a	n/a	n/a	n/a	n/a	n/a	10	1	3	6	n/a	n/a	n/a	n/a	n/a
2165.99	n/a	PROB	1082995	n/a	LTP279	ltpFR	12	n/a	n/a	n/a	n/a	n/a	n/a	n/a	14	3	8	3	n/a	n/a	n/a	n/a	n/a
2167.92	n/a	PROB	1083960	n/a	LTP279	ltpFR	12	n/a	n/a	n/a	n/a	n/a	n/a	n/a	15	2	4	9	n/a	n/a	n/a	n/a	n/a
2170.366	n/a	PROB	1085183	n/a	LTP279	ltpFR	12	n/a	n/a	n/a	n/a	n/a	n/a	n/a	17	6	8	3	n/a	n/a	n/a	n/a	n/a
2173.312	n/a	PROB	1086656	n/a	LTP279	ltpFR	12	n/a	n/a	n/a	n/a	n/a	n/a	n/a	20	3	6	9	n/a	n/a	n/a	n/a	n/a
2175.724	n/a	PROB	1087862	n/a	LTP279	ltpFR	12	n/a	n/a	n/a	n/a	n/a	n/a	n/a	20	6	7	7	n/a	n/a	n/a	n/a	n/a
2178.06	n/a	STOP	1089030	n/a	LTP279	ltpFR	12	n/a	n/a	n/a	n/a	n/a	n/a	n/a	n/a	n/a	n/a	n/a	n/a	n/a	n/a	n/a	n/a
2180.984	n/a	REC_START	1090492	n/a	LTP279	ltpFR	12	7	n/a	n/a	n/a	n/a	n/a	n/a	n/a	0	0	0	n/a	n/a	n/a	n/a	n/a
2184.258	n/a	REC_WORD	1092129	wordpools/wasnorm_wordpool_less_exclusions.txt	LTP279	ltpFR	12	7	0	ARM	38	n/a	n/a	0	n/a	0	0	0	n/a	n/a	n/a	n/a	n/a
2185.25	n/a	REC_WORD	1092625	wordpools/wasnorm_wordpool_less_exclusions.txt	LTP279	ltpFR	12	7	0	PATROL	1027	n/a	n/a	0	n/a	0	0	0	n/a	n/a	n/a	n/a	n/a
2186.892	n/a	REC_WORD	1093446	wordpools/wasnorm_wordpool_less_exclusions.txt	LTP279	ltpFR	12	7	0	SWEATER	1419	n/a	n/a	0	n/a	0	0	0	n/a	n/a	n/a	n/a	n/a
2207.646	n/a	REC_WORD_VV	1103823	wordpools/wasnorm_wordpool_less_exclusions.txt	LTP279	ltpFR	12	7	n/a	<>	-1	n/a	n/a	n/a	n/a	0	0	0	n/a	n/a	n/a	n/a	n/a
2281.868	n/a	WORD	1140934	wordpools/wasnorm_wordpool_less_exclusions.txt	LTP279	ltpFR	12	8	1	LAKE	796	n/a	n/a	0	n/a	0	0	0	0.422607421875	0.5869140625	0	lower	amplitud.ttf
2285.828	n/a	WORD	1142914	wordpools/wasnorm_wordpool_less_exclusions.txt	LTP279	ltpFR	12	8	1	SWAN	1417	n/a	n/a	1	n/a	0	0	0	0.422607421875	0.5869140625	0	lower	amplitud.ttf
2290.006	n/a	WORD	1145003	wordpools/wasnorm_wordpool_less_exclusions.txt	LTP279	ltpFR	12	8	1	DORM	488	n/a	n/a	0	n/a	0	0	0	0.422607421875	0.5869140625	0	lower	amplitud.ttf
2293.982	n/a	WORD	1146991	wordpools/wasnorm_wordpool_less_exclusions.txt	LTP279	ltpFR	12	8	1	SECRETARY	1265	n/a	n/a	1	n/a	0	0	0	0.422607421875	0.5869140625	0	lower	amplitud.ttf
2297.878	n/a	WORD	1148939	wordpools/wasnorm_wordpool_less_exclusions.txt	LTP279	ltpFR	12	8	1	MARINE	869	n/a	n/a	1	n/a	0	0	0	0.422607421875	0.5869140625	0	lower	amplitud.ttf
2301.754	n/a	WORD	1150877	wordpools/wasnorm_wordpool_less_exclusions.txt	LTP279	ltpFR	12	8	1	REEF	1177	n/a	n/a	0	n/a	0	0	0	0.422607421875	0.5869140625	0	lower	amplitud.ttf
2305.882	n/a	WORD	1152941	wordpools/wasnorm_wordpool_less_exclusions.txt	LTP279	ltpFR	12	8	1	BOSS	152	n/a	n/a	1	n/a	0	0	0	0.422607421875	0.5869140625	0	lower	amplitud.ttf
2309.926	n/a	WORD	1154963	wordpools/wasnorm_wordpool_less_exclusions.txt	LTP279	ltpFR	12	8	1	STOVE	1388	n/a	n/a	0	n/a	0	0	0	0.422607421875	0.5869140625	0	lower	amplitud.ttf
2313.77	n/a	WORD	1156885	wordpools/wasnorm_wordpool_less_exclusions.txt	LTP279	ltpFR	12	8	1	HOUSE	725	n/a	n/a	n/a	n/a	0	0	0	0.422607421875	0.5869140625	0	lower	amplitud.ttf
2316.8	n/a	SLOW_MSG	1158400	n/a	LTP279	ltpFR	12	8	n/a	n/a	n/a	n/a	n/a	n/a	n/a	0	0	0	n/a	n/a	n/a	n/a	n/a
2319.198	n/a	WORD	1159599	wordpools/wasnorm_wordpool_less_exclusions.txt	LTP279	ltpFR	12	8	1	PICK	1058	n/a	n/a	0	n/a	0	0	0	0.422607421875	0.5869140625	0	lower	amplitud.ttf
2323.274	n/a	WORD	1161637	wordpools/wasnorm_wordpool_less_exclusions.txt	LTP279	ltpFR	12	8	1	WHEAT	1602	n/a	n/a	0	n/a	0	0	0	0.422607421875	0.5869140625	0	lower	amplitud.ttf
2327.434	n/a	WORD	1163717	wordpools/wasnorm_wordpool_less_exclusions.txt	LTP279	ltpFR	12	8	1	BARRACUDA	90	n/a	n/a	1	n/a	0	0	0	0.422607421875	0.5869140625	0	lower	amplitud.ttf
2331.578	n/a	WORD	1165789	wordpools/wasnorm_wordpool_less_exclusions.txt	LTP279	ltpFR	12	8	1	MERMAID	887	n/a	n/a	1	n/a	0	0	0	0.422607421875	0.5869140625	0	lower	amplitud.ttf
2335.456	n/a	WORD	1167728	wordpools/wasnorm_wordpool_less_exclusions.txt	LTP279	ltpFR	12	8	1	SPAGHETTI	1346	n/a	n/a	0	n/a	0	0	0	0.422607421875	0.5869140625	0	lower	amplitud.ttf
2339.566	n/a	WORD	1169783	wordpools/wasnorm_wordpool_less_exclusions.txt	LTP279	ltpFR	12	8	1	FILM	565	n/a	n/a	0	n/a	0	0	0	0.422607421875	0.5869140625	0	lower	amplitud.ttf
2343.76	n/a	WORD	1171880	wordpools/wasnorm_wordpool_less_exclusions.txt	LTP279	ltpFR	12	8	1	TREASURE	1500	n/a	n/a	0	n/a	0	0	0	0.422607421875	0.5869140625	0	lower	amplitud.ttf
2346.772	n/a	START	1173386	n/a	LTP279	ltpFR	12	n/a	n/a	n/a	n/a	n/a	n/a	n/a	n/a	n/a	n/a	n/a	n/a	n/a	n/a	n/a	n/a
2347.954	n/a	PROB	1173977	n/a	LTP279	ltpFR	12	n/a	n/a	n/a	n/a	n/a	n/a	n/a	17	1	8	6	n/a	n/a	n/a	n/a	n/a
2350.5	n/a	PROB	1175250	n/a	LTP279	ltpFR	12	n/a	n/a	n/a	n/a	n/a	n/a	n/a	11	2	6	3	n/a	n/a	n/a	n/a	n/a
2354.758	n/a	STOP	1177379	n/a	LTP279	ltpFR	12	n/a	n/a	n/a	n/a	n/a	n/a	n/a	n/a	n/a	n/a	n/a	n/a	n/a	n/a	n/a	n/a
2356.624	n/a	REC_START	1178312	n/a	LTP279	ltpFR	12	8	n/a	n/a	n/a	n/a	n/a	n/a	n/a	0	0	0	n/a	n/a	n/a	n/a	n/a
2357.626	n/a	REC_WORD	1178813	wordpools/wasnorm_wordpool_less_exclusions.txt	LTP279	ltpFR	12	8	1	FILM	565	n/a	n/a	0	n/a	0	0	0	n/a	n/a	n/a	n/a	n/a
2359.224	n/a	REC_WORD	1179612	wordpools/wasnorm_wordpool_less_exclusions.txt	LTP279	ltpFR	12	8	1	SPAGHETTI	1346	n/a	n/a	0	n/a	0	0	0	n/a	n/a	n/a	n/a	n/a
2360.784	n/a	REC_WORD	1180392	wordpools/wasnorm_wordpool_less_exclusions.txt	LTP279	ltpFR	12	8	1	MERMAID	887	n/a	n/a	1	n/a	0	0	0	n/a	n/a	n/a	n/a	n/a
2361.904	n/a	REC_WORD	1180952	wordpools/wasnorm_wordpool_less_exclusions.txt	LTP279	ltpFR	12	8	1	BARRACUDA	90	n/a	n/a	1	n/a	0	0	0	n/a	n/a	n/a	n/a	n/a
2363.104	n/a	REC_WORD	1181552	wordpools/wasnorm_wordpool_less_exclusions.txt	LTP279	ltpFR	12	8	1	WHEAT	1602	n/a	n/a	0	n/a	0	0	0	n/a	n/a	n/a	n/a	n/a
2366.482	n/a	REC_WORD	1183241	wordpools/wasnorm_wordpool_less_exclusions.txt	LTP279	ltpFR	12	8	1	PICK	1058	n/a	n/a	0	n/a	0	0	0	n/a	n/a	n/a	n/a	n/a
2367.802	n/a	REC_WORD	1183901	wordpools/wasnorm_wordpool_less_exclusions.txt	LTP279	ltpFR	12	8	1	HOUSE	725	n/a	n/a	n/a	n/a	0	0	0	n/a	n/a	n/a	n/a	n/a
2368.802	n/a	REC_WORD_VV	1184401	wordpools/wasnorm_wordpool_less_exclusions.txt	LTP279	ltpFR	12	8	n/a	<>	-1	n/a	n/a	n/a	n/a	0	0	0	n/a	n/a	n/a	n/a	n/a
2370.572	n/a	REC_WORD	1185286	wordpools/wasnorm_wordpool_less_exclusions.txt	LTP279	ltpFR	12	8	1	BOSS	152	n/a	n/a	1	n/a	0	0	0	n/a	n/a	n/a	n/a	n/a
2371.854	n/a	REC_WORD	1185927	wordpools/wasnorm_wordpool_less_exclusions.txt	LTP279	ltpFR	12	8	1	REEF	1177	n/a	n/a	0	n/a	0	0	0	n/a	n/a	n/a	n/a	n/a
2373.206	n/a	REC_WORD	1186603	wordpools/wasnorm_wordpool_less_exclusions.txt	LTP279	ltpFR	12	8	1	MARINE	869	n/a	n/a	1	n/a	0	0	0	n/a	n/a	n/a	n/a	n/a
2374.828	n/a	REC_WORD	1187414	wordpools/wasnorm_wordpool_less_exclusions.txt	LTP279	ltpFR	12	8	1	SECRETARY	1265	n/a	n/a	1	n/a	0	0	0	n/a	n/a	n/a	n/a	n/a
2376.738	n/a	REC_WORD	1188369	wordpools/wasnorm_wordpool_less_exclusions.txt	LTP279	ltpFR	12	8	1	STOVE	1388	n/a	n/a	0	n/a	0	0	0	n/a	n/a	n/a	n/a	n/a
2377.738	n/a	REC_WORD_VV	1188869	wordpools/wasnorm_wordpool_less_exclusions.txt	LTP279	ltpFR	12	8	n/a	<>	-1	n/a	n/a	n/a	n/a	0	0	0	n/a	n/a	n/a	n/a	n/a
2379.642	n/a	REC_WORD	1189821	wordpools/wasnorm_wordpool_less_exclusions.txt	LTP279	ltpFR	12	8	1	DORM	488	n/a	n/a	0	n/a	0	0	0	n/a	n/a	n/a	n/a	n/a
2382.1	n/a	REC_WORD	1191050	wordpools/wasnorm_wordpool_less_exclusions.txt	LTP279	ltpFR	12	8	1	SWAN	1417	n/a	n/a	1	n/a	0	0	0	n/a	n/a	n/a	n/a	n/a
2383.668	n/a	REC_WORD	1191834	wordpools/wasnorm_wordpool_less_exclusions.txt	LTP279	ltpFR	12	8	1	LAKE	796	n/a	n/a	0	n/a	0	0	0	n/a	n/a	n/a	n/a	n/a
2459.224	n/a	START	1229612	n/a	LTP279	ltpFR	12	n/a	n/a	n/a	n/a	n/a	n/a	n/a	n/a	n/a	n/a	n/a	n/a	n/a	n/a	n/a	n/a
2460.736	n/a	PROB	1230368	n/a	LTP279	ltpFR	12	n/a	n/a	n/a	n/a	n/a	n/a	n/a	14	6	1	7	n/a	n/a	n/a	n/a	n/a
2462.9	n/a	PROB	1231450	n/a	LTP279	ltpFR	12	n/a	n/a	n/a	n/a	n/a	n/a	n/a	18	9	6	3	n/a	n/a	n/a	n/a	n/a
2465.048	n/a	PROB	1232524	n/a	LTP279	ltpFR	12	n/a	n/a	n/a	n/a	n/a	n/a	n/a	9	4	4	1	n/a	n/a	n/a	n/a	n/a
2466.214	n/a	PROB	1233107	n/a	LTP279	ltpFR	12	n/a	n/a	n/a	n/a	n/a	n/a	n/a	17	7	5	5	n/a	n/a	n/a	n/a	n/a
2467.56	n/a	PROB	1233780	n/a	LTP279	ltpFR	12	n/a	n/a	n/a	n/a	n/a	n/a	n/a	20	6	7	7	n/a	n/a	n/a	n/a	n/a
2469.706	n/a	PROB	1234853	n/a	LTP279	ltpFR	12	n/a	n/a	n/a	n/a	n/a	n/a	n/a	11	5	5	1	n/a	n/a	n/a	n/a	n/a
2470.906	n/a	PROB	1235453	n/a	LTP279	ltpFR	12	n/a	n/a	n/a	n/a	n/a	n/a	n/a	8	3	3	2	n/a	n/a	n/a	n/a	n/a
2472.188	n/a	PROB	1236094	n/a	LTP279	ltpFR	12	n/a	n/a	n/a	n/a	n/a	n/a	n/a	7	4	1	2	n/a	n/a	n/a	n/a	n/a
2474.0	n/a	STOP	1237000	n/a	LTP279	ltpFR	12	n/a	n/a	n/a	n/a	n/a	n/a	n/a	n/a	n/a	n/a	n/a	n/a	n/a	n/a	n/a	n/a
2476.198	n/a	WORD	1238099	wordpools/wasnorm_wordpool_less_exclusions.txt	LTP279	ltpFR	12	9	0	CONVENT	370	n/a	n/a	1	n/a	0	0	0	0.57763671875	0.412841796875	1	upper	zerothre.ttf
2479.21	n/a	START	1239605	n/a	LTP279	ltpFR	12	n/a	n/a	n/a	n/a	n/a	n/a	n/a	n/a	n/a	n/a	n/a	n/a	n/a	n/a	n/a	n/a
2480.258	n/a	PROB	1240129	n/a	LTP279	ltpFR	12	n/a	n/a	n/a	n/a	n/a	n/a	n/a	18	8	4	6	n/a	n/a	n/a	n/a	n/a
2481.788	n/a	PROB	1240894	n/a	LTP279	ltpFR	12	n/a	n/a	n/a	n/a	n/a	n/a	n/a	14	6	1	7	n/a	n/a	n/a	n/a	n/a
2483.77	n/a	PROB	1241885	n/a	LTP279	ltpFR	12	n/a	n/a	n/a	n/a	n/a	n/a	n/a	14	9	1	4	n/a	n/a	n/a	n/a	n/a
2485.55	n/a	PROB	1242775	n/a	LTP279	ltpFR	12	n/a	n/a	n/a	n/a	n/a	n/a	n/a	14	5	2	7	n/a	n/a	n/a	n/a	n/a
2487.116	n/a	PROB	1243558	n/a	LTP279	ltpFR	12	n/a	n/a	n/a	n/a	n/a	n/a	n/a	22	7	9	6	n/a	n/a	n/a	n/a	n/a
2489.378	n/a	PROB	1244689	n/a	LTP279	ltpFR	12	n/a	n/a	n/a	n/a	n/a	n/a	n/a	15	2	7	6	n/a	n/a	n/a	n/a	n/a
2491.326	n/a	PROB	1245663	n/a	LTP279	ltpFR	12	n/a	n/a	n/a	n/a	n/a	n/a	n/a	5	1	2	2	n/a	n/a	n/a	n/a	n/a
2492.756	n/a	PROB	1246378	n/a	LTP279	ltpFR	12	n/a	n/a	n/a	n/a	n/a	n/a	n/a	17	6	3	8	n/a	n/a	n/a	n/a	n/a
2494.408	n/a	STOP	1247204	n/a	LTP279	ltpFR	12	n/a	n/a	n/a	n/a	n/a	n/a	n/a	n/a	n/a	n/a	n/a	n/a	n/a	n/a	n/a	n/a
2496.416	n/a	WORD	1248208	wordpools/wasnorm_wordpool_less_exclusions.txt	LTP279	ltpFR	12	9	0	BOAT	144	n/a	n/a	0	n/a	0	0	0	0.57763671875	0.412841796875	1	upper	zerothre.ttf
2499.43	n/a	START	1249715	n/a	LTP279	ltpFR	12	n/a	n/a	n/a	n/a	n/a	n/a	n/a	n/a	n/a	n/a	n/a	n/a	n/a	n/a	n/a	n/a
2500.328	n/a	PROB	1250164	n/a	LTP279	ltpFR	12	n/a	n/a	n/a	n/a	n/a	n/a	n/a	11	3	6	2	n/a	n/a	n/a	n/a	n/a
2502.076	n/a	PROB	1251038	n/a	LTP279	ltpFR	12	n/a	n/a	n/a	n/a	n/a	n/a	n/a	13	6	4	3	n/a	n/a	n/a	n/a	n/a
2503.49	n/a	PROB	1251745	n/a	LTP279	ltpFR	12	n/a	n/a	n/a	n/a	n/a	n/a	n/a	21	8	5	8	n/a	n/a	n/a	n/a	n/a
2505.204	n/a	PROB	1252602	n/a	LTP279	ltpFR	12	n/a	n/a	n/a	n/a	n/a	n/a	n/a	11	5	5	1	n/a	n/a	n/a	n/a	n/a
2506.452	n/a	PROB	1253226	n/a	LTP279	ltpFR	12	n/a	n/a	n/a	n/a	n/a	n/a	n/a	5	1	1	3	n/a	n/a	n/a	n/a	n/a
2507.65	n/a	PROB	1253825	n/a	LTP279	ltpFR	12	n/a	n/a	n/a	n/a	n/a	n/a	n/a	8	2	4	2	n/a	n/a	n/a	n/a	n/a
2509.38	n/a	PROB	1254690	n/a	LTP279	ltpFR	12	n/a	n/a	n/a	n/a	n/a	n/a	n/a	15	2	6	7	n/a	n/a	n/a	n/a	n/a
2510.896	n/a	PROB	1255448	n/a	LTP279	ltpFR	12	n/a	n/a	n/a	n/a	n/a	n/a	n/a	14	9	3	2	n/a	n/a	n/a	n/a	n/a
2512.51	n/a	PROB	1256255	n/a	LTP279	ltpFR	12	n/a	n/a	n/a	n/a	n/a	n/a	n/a	13	1	3	9	n/a	n/a	n/a	n/a	n/a
2514.112	n/a	STOP	1257056	n/a	LTP279	ltpFR	12	n/a	n/a	n/a	n/a	n/a	n/a	n/a	n/a	n/a	n/a	n/a	n/a	n/a	n/a	n/a	n/a
2516.37	n/a	WORD	1258185	wordpools/wasnorm_wordpool_less_exclusions.txt	LTP279	ltpFR	12	9	0	SAILOR	1223	n/a	n/a	0	n/a	0	0	0	0.57763671875	0.412841796875	1	upper	zerothre.ttf
2519.384	n/a	START	1259692	n/a	LTP279	ltpFR	12	n/a	n/a	n/a	n/a	n/a	n/a	n/a	n/a	n/a	n/a	n/a	n/a	n/a	n/a	n/a	n/a
2520.564	n/a	PROB	1260282	n/a	LTP279	ltpFR	12	n/a	n/a	n/a	n/a	n/a	n/a	n/a	11	3	1	7	n/a	n/a	n/a	n/a	n/a
2522.378	n/a	PROB	1261189	n/a	LTP279	ltpFR	12	n/a	n/a	n/a	n/a	n/a	n/a	n/a	12	2	1	9	n/a	n/a	n/a	n/a	n/a
2524.194	n/a	PROB	1262097	n/a	LTP279	ltpFR	12	n/a	n/a	n/a	n/a	n/a	n/a	n/a	14	3	7	4	n/a	n/a	n/a	n/a	n/a
2525.574	n/a	PROB	1262787	n/a	LTP279	ltpFR	12	n/a	n/a	n/a	n/a	n/a	n/a	n/a	15	5	7	3	n/a	n/a	n/a	n/a	n/a
2527.954	n/a	PROB	1263977	n/a	LTP279	ltpFR	12	n/a	n/a	n/a	n/a	n/a	n/a	n/a	19	3	9	7	n/a	n/a	n/a	n/a	n/a
2529.784	n/a	PROB	1264892	n/a	LTP279	ltpFR	12	n/a	n/a	n/a	n/a	n/a	n/a	n/a	16	9	6	1	n/a	n/a	n/a	n/a	n/a
2531.866	n/a	PROB	1265933	n/a	LTP279	ltpFR	12	n/a	n/a	n/a	n/a	n/a	n/a	n/a	17	6	5	6	n/a	n/a	n/a	n/a	n/a
2534.392	n/a	STOP	1267196	n/a	LTP279	ltpFR	12	n/a	n/a	n/a	n/a	n/a	n/a	n/a	n/a	n/a	n/a	n/a	n/a	n/a	n/a	n/a	n/a
2536.392	n/a	WORD	1268196	wordpools/wasnorm_wordpool_less_exclusions.txt	LTP279	ltpFR	12	9	0	DINER	467	n/a	n/a	0	n/a	0	0	0	0.57763671875	0.412841796875	1	upper	zerothre.ttf
2539.404	n/a	START	1269702	n/a	LTP279	ltpFR	12	n/a	n/a	n/a	n/a	n/a	n/a	n/a	n/a	n/a	n/a	n/a	n/a	n/a	n/a	n/a	n/a
2540.286	n/a	PROB	1270143	n/a	LTP279	ltpFR	12	n/a	n/a	n/a	n/a	n/a	n/a	n/a	25	8	9	8	n/a	n/a	n/a	n/a	n/a
2542.25	n/a	PROB	1271125	n/a	LTP279	ltpFR	12	n/a	n/a	n/a	n/a	n/a	n/a	n/a	9	3	1	5	n/a	n/a	n/a	n/a	n/a
2544.032	n/a	PROB	1272016	n/a	LTP279	ltpFR	12	n/a	n/a	n/a	n/a	n/a	n/a	n/a	19	7	5	9	n/a	n/a	n/a	n/a	n/a
2546.494	n/a	PROB	1273247	n/a	LTP279	ltpFR	12	n/a	n/a	n/a	n/a	n/a	n/a	n/a	13	4	2	7	n/a	n/a	n/a	n/a	n/a
2549.156	n/a	PROB	1274578	n/a	LTP279	ltpFR	12	n/a	n/a	n/a	n/a	n/a	n/a	n/a	14	8	3	3	n/a	n/a	n/a	n/a	n/a
2550.836	n/a	PROB	1275418	n/a	LTP279	ltpFR	12	n/a	n/a	n/a	n/a	n/a	n/a	n/a	18	6	9	3	n/a	n/a	n/a	n/a	n/a
2553.2	n/a	PROB	1276600	n/a	LTP279	ltpFR	12	n/a	n/a	n/a	n/a	n/a	n/a	n/a	12	4	4	8	n/a	n/a	n/a	n/a	n/a
2554.8	n/a	STOP	1277400	n/a	LTP279	ltpFR	12	n/a	n/a	n/a	n/a	n/a	n/a	n/a	n/a	n/a	n/a	n/a	n/a	n/a	n/a	n/a	n/a
2556.544	n/a	WORD	1278272	wordpools/wasnorm_wordpool_less_exclusions.txt	LTP279	ltpFR	12	9	0	BERRY	122	n/a	n/a	0	n/a	0	0	0	0.57763671875	0.412841796875	1	upper	zerothre.ttf
2559.558	n/a	START	1279779	n/a	LTP279	ltpFR	12	n/a	n/a	n/a	n/a	n/a	n/a	n/a	n/a	n/a	n/a	n/a	n/a	n/a	n/a	n/a	n/a
2560.656	n/a	PROB	1280328	n/a	LTP279	ltpFR	12	n/a	n/a	n/a	n/a	n/a	n/a	n/a	18	9	8	1	n/a	n/a	n/a	n/a	n/a
2562.104	n/a	PROB	1281052	n/a	LTP279	ltpFR	12	n/a	n/a	n/a	n/a	n/a	n/a	n/a	10	1	5	4	n/a	n/a	n/a	n/a	n/a
2563.6	n/a	PROB	1281800	n/a	LTP279	ltpFR	12	n/a	n/a	n/a	n/a	n/a	n/a	n/a	12	5	5	2	n/a	n/a	n/a	n/a	n/a
2564.832	n/a	PROB	1282416	n/a	LTP279	ltpFR	12	n/a	n/a	n/a	n/a	n/a	n/a	n/a	19	9	2	8	n/a	n/a	n/a	n/a	n/a
2566.214	n/a	PROB	1283107	n/a	LTP279	ltpFR	12	n/a	n/a	n/a	n/a	n/a	n/a	n/a	15	5	6	4	n/a	n/a	n/a	n/a	n/a
2567.528	n/a	PROB	1283764	n/a	LTP279	ltpFR	12	n/a	n/a	n/a	n/a	n/a	n/a	n/a	9	2	2	5	n/a	n/a	n/a	n/a	n/a
2569.01	n/a	PROB	1284505	n/a	LTP279	ltpFR	12	n/a	n/a	n/a	n/a	n/a	n/a	n/a	21	8	5	7	n/a	n/a	n/a	n/a	n/a
2571.738	n/a	PROB	1285869	n/a	LTP279	ltpFR	12	n/a	n/a	n/a	n/a	n/a	n/a	n/a	22	8	9	6	n/a	n/a	n/a	n/a	n/a
2574.528	n/a	STOP	1287264	n/a	LTP279	ltpFR	12	n/a	n/a	n/a	n/a	n/a	n/a	n/a	n/a	n/a	n/a	n/a	n/a	n/a	n/a	n/a	n/a
2576.382	n/a	WORD	1288191	wordpools/wasnorm_wordpool_less_exclusions.txt	LTP279	ltpFR	12	9	0	PUCK	1138	n/a	n/a	0	n/a	0	0	0	0.57763671875	0.412841796875	1	upper	zerothre.ttf
2579.394	n/a	START	1289697	n/a	LTP279	ltpFR	12	n/a	n/a	n/a	n/a	n/a	n/a	n/a	n/a	n/a	n/a	n/a	n/a	n/a	n/a	n/a	n/a
2580.426	n/a	PROB	1290213	n/a	LTP279	ltpFR	12	n/a	n/a	n/a	n/a	n/a	n/a	n/a	16	7	4	5	n/a	n/a	n/a	n/a	n/a
2582.856	n/a	PROB	1291428	n/a	LTP279	ltpFR	12	n/a	n/a	n/a	n/a	n/a	n/a	n/a	9	6	1	2	n/a	n/a	n/a	n/a	n/a
2584.338	n/a	PROB	1292169	n/a	LTP279	ltpFR	12	n/a	n/a	n/a	n/a	n/a	n/a	n/a	19	1	9	9	n/a	n/a	n/a	n/a	n/a
2585.868	n/a	PROB	1292934	n/a	LTP279	ltpFR	12	n/a	n/a	n/a	n/a	n/a	n/a	n/a	11	1	7	3	n/a	n/a	n/a	n/a	n/a
2587.398	n/a	PROB	1293699	n/a	LTP279	ltpFR	12	n/a	n/a	n/a	n/a	n/a	n/a	n/a	15	7	2	6	n/a	n/a	n/a	n/a	n/a
2589.148	n/a	PROB	1294574	n/a	LTP279	ltpFR	12	n/a	n/a	n/a	n/a	n/a	n/a	n/a	20	8	6	6	n/a	n/a	n/a	n/a	n/a
2591.06	n/a	PROB	1295530	n/a	LTP279	ltpFR	12	n/a	n/a	n/a	n/a	n/a	n/a	n/a	16	5	4	7	n/a	n/a	n/a	n/a	n/a
2593.424	n/a	PROB	1296712	n/a	LTP279	ltpFR	12	n/a	n/a	n/a	n/a	n/a	n/a	n/a	8	2	4	2	n/a	n/a	n/a	n/a	n/a
2594.818	n/a	STOP	1297409	n/a	LTP279	ltpFR	12	n/a	n/a	n/a	n/a	n/a	n/a	n/a	n/a	n/a	n/a	n/a	n/a	n/a	n/a	n/a	n/a
2596.586	n/a	WORD	1298293	wordpools/wasnorm_wordpool_less_exclusions.txt	LTP279	ltpFR	12	9	0	GANG	619	n/a	n/a	1	n/a	0	0	0	0.57763671875	0.412841796875	1	upper	zerothre.ttf
2599.598	n/a	START	1299799	n/a	LTP279	ltpFR	12	n/a	n/a	n/a	n/a	n/a	n/a	n/a	n/a	n/a	n/a	n/a	n/a	n/a	n/a	n/a	n/a
2600.596	n/a	PROB	1300298	n/a	LTP279	ltpFR	12	n/a	n/a	n/a	n/a	n/a	n/a	n/a	10	4	1	5	n/a	n/a	n/a	n/a	n/a
2602.66	n/a	PROB	1301330	n/a	LTP279	ltpFR	12	n/a	n/a	n/a	n/a	n/a	n/a	n/a	16	7	8	1	n/a	n/a	n/a	n/a	n/a
2604.824	n/a	PROB	1302412	n/a	LTP279	ltpFR	12	n/a	n/a	n/a	n/a	n/a	n/a	n/a	15	6	4	5	n/a	n/a	n/a	n/a	n/a
2607.072	n/a	PROB	1303536	n/a	LTP279	ltpFR	12	n/a	n/a	n/a	n/a	n/a	n/a	n/a	13	4	8	1	n/a	n/a	n/a	n/a	n/a
2609.318	n/a	PROB	1304659	n/a	LTP279	ltpFR	12	n/a	n/a	n/a	n/a	n/a	n/a	n/a	13	6	1	6	n/a	n/a	n/a	n/a	n/a
2610.798	n/a	PROB	1305399	n/a	LTP279	ltpFR	12	n/a	n/a	n/a	n/a	n/a	n/a	n/a	9	4	1	4	n/a	n/a	n/a	n/a	n/a
2611.998	n/a	PROB	1305999	n/a	LTP279	ltpFR	12	n/a	n/a	n/a	n/a	n/a	n/a	n/a	12	3	2	7	n/a	n/a	n/a	n/a	n/a
2613.494	n/a	PROB	1306747	n/a	LTP279	ltpFR	12	n/a	n/a	n/a	n/a	n/a	n/a	n/a	18	6	6	6	n/a	n/a	n/a	n/a	n/a
2614.642	n/a	STOP	1307321	n/a	LTP279	ltpFR	12	n/a	n/a	n/a	n/a	n/a	n/a	n/a	n/a	n/a	n/a	n/a	n/a	n/a	n/a	n/a	n/a
2616.756	n/a	WORD	1308378	wordpools/wasnorm_wordpool_less_exclusions.txt	LTP279	ltpFR	12	9	0	SAUSAGE	1238	n/a	n/a	0	n/a	0	0	0	0.57763671875	0.412841796875	1	upper	zerothre.ttf
2619.768	n/a	START	1309884	n/a	LTP279	ltpFR	12	n/a	n/a	n/a	n/a	n/a	n/a	n/a	n/a	n/a	n/a	n/a	n/a	n/a	n/a	n/a	n/a
2620.816	n/a	PROB	1310408	n/a	LTP279	ltpFR	12	n/a	n/a	n/a	n/a	n/a	n/a	n/a	15	7	6	2	n/a	n/a	n/a	n/a	n/a
2622.698	n/a	PROB	1311349	n/a	LTP279	ltpFR	12	n/a	n/a	n/a	n/a	n/a	n/a	n/a	14	9	3	2	n/a	n/a	n/a	n/a	n/a
2624.28	n/a	PROB	1312140	n/a	LTP279	ltpFR	12	n/a	n/a	n/a	n/a	n/a	n/a	n/a	19	7	8	4	n/a	n/a	n/a	n/a	n/a
2626.31	n/a	PROB	1313155	n/a	LTP279	ltpFR	12	n/a	n/a	n/a	n/a	n/a	n/a	n/a	21	4	8	9	n/a	n/a	n/a	n/a	n/a
2628.622	n/a	PROB	1314311	n/a	LTP279	ltpFR	12	n/a	n/a	n/a	n/a	n/a	n/a	n/a	16	7	3	6	n/a	n/a	n/a	n/a	n/a
2630.402	n/a	PROB	1315201	n/a	LTP279	ltpFR	12	n/a	n/a	n/a	n/a	n/a	n/a	n/a	4	1	2	1	n/a	n/a	n/a	n/a	n/a
2632.284	n/a	PROB	1316142	n/a	LTP279	ltpFR	12	n/a	n/a	n/a	n/a	n/a	n/a	n/a	10	3	1	6	n/a	n/a	n/a	n/a	n/a
2635.768	n/a	STOP	1317884	n/a	LTP279	ltpFR	12	n/a	n/a	n/a	n/a	n/a	n/a	n/a	n/a	n/a	n/a	n/a	n/a	n/a	n/a	n/a	n/a
2636.642	n/a	WORD	1318321	wordpools/wasnorm_wordpool_less_exclusions.txt	LTP279	ltpFR	12	9	0	RELISH	1183	n/a	n/a	0	n/a	0	0	0	0.57763671875	0.412841796875	1	upper	zerothre.ttf
2639.656	n/a	START	1319828	n/a	LTP279	ltpFR	12	n/a	n/a	n/a	n/a	n/a	n/a	n/a	n/a	n/a	n/a	n/a	n/a	n/a	n/a	n/a	n/a
2640.704	n/a	PROB	1320352	n/a	LTP279	ltpFR	12	n/a	n/a	n/a	n/a	n/a	n/a	n/a	15	3	3	9	n/a	n/a	n/a	n/a	n/a
2642.634	n/a	PROB	1321317	n/a	LTP279	ltpFR	12	n/a	n/a	n/a	n/a	n/a	n/a	n/a	16	2	5	9	n/a	n/a	n/a	n/a	n/a
2644.948	n/a	PROB	1322474	n/a	LTP279	ltpFR	12	n/a	n/a	n/a	n/a	n/a	n/a	n/a	22	6	8	8	n/a	n/a	n/a	n/a	n/a
2646.528	n/a	PROB	1323264	n/a	LTP279	ltpFR	12	n/a	n/a	n/a	n/a	n/a	n/a	n/a	18	7	9	2	n/a	n/a	n/a	n/a	n/a
2648.458	n/a	PROB	1324229	n/a	LTP279	ltpFR	12	n/a	n/a	n/a	n/a	n/a	n/a	n/a	22	9	9	6	n/a	n/a	n/a	n/a	n/a
2650.024	n/a	PROB	1325012	n/a	LTP279	ltpFR	12	n/a	n/a	n/a	n/a	n/a	n/a	n/a	8	4	2	2	n/a	n/a	n/a	n/a	n/a
2651.604	n/a	PROB	1325802	n/a	LTP279	ltpFR	12	n/a	n/a	n/a	n/a	n/a	n/a	n/a	15	8	6	1	n/a	n/a	n/a	n/a	n/a
2655.654	n/a	STOP	1327827	n/a	LTP279	ltpFR	12	n/a	n/a	n/a	n/a	n/a	n/a	n/a	n/a	n/a	n/a	n/a	n/a	n/a	n/a	n/a	n/a
2656.514	n/a	WORD	1328257	wordpools/wasnorm_wordpool_less_exclusions.txt	LTP279	ltpFR	12	9	0	PLATE	1086	n/a	n/a	0	n/a	0	0	0	0.57763671875	0.412841796875	1	upper	zerothre.ttf
2659.526	n/a	START	1329763	n/a	LTP279	ltpFR	12	n/a	n/a	n/a	n/a	n/a	n/a	n/a	n/a	n/a	n/a	n/a	n/a	n/a	n/a	n/a	n/a
2660.674	n/a	PROB	1330337	n/a	LTP279	ltpFR	12	n/a	n/a	n/a	n/a	n/a	n/a	n/a	16	2	9	5	n/a	n/a	n/a	n/a	n/a
2662.67	n/a	PROB	1331335	n/a	LTP279	ltpFR	12	n/a	n/a	n/a	n/a	n/a	n/a	n/a	9	1	1	7	n/a	n/a	n/a	n/a	n/a
2663.854	n/a	PROB	1331927	n/a	LTP279	ltpFR	12	n/a	n/a	n/a	n/a	n/a	n/a	n/a	18	2	7	9	n/a	n/a	n/a	n/a	n/a
2665.518	n/a	PROB	1332759	n/a	LTP279	ltpFR	12	n/a	n/a	n/a	n/a	n/a	n/a	n/a	15	1	8	7	n/a	n/a	n/a	n/a	n/a
2667.532	n/a	PROB	1333766	n/a	LTP279	ltpFR	12	n/a	n/a	n/a	n/a	n/a	n/a	n/a	8	1	6	1	n/a	n/a	n/a	n/a	n/a
2669.146	n/a	PROB	1334573	n/a	LTP279	ltpFR	12	n/a	n/a	n/a	n/a	n/a	n/a	n/a	13	3	8	2	n/a	n/a	n/a	n/a	n/a
2670.594	n/a	PROB	1335297	n/a	LTP279	ltpFR	12	n/a	n/a	n/a	n/a	n/a	n/a	n/a	25	9	9	7	n/a	n/a	n/a	n/a	n/a
2672.39	n/a	PROB	1336195	n/a	LTP279	ltpFR	12	n/a	n/a	n/a	n/a	n/a	n/a	n/a	11	1	2	8	n/a	n/a	n/a	n/a	n/a
2673.806	n/a	PROB	1336903	n/a	LTP279	ltpFR	12	n/a	n/a	n/a	n/a	n/a	n/a	n/a	14	2	5	7	n/a	n/a	n/a	n/a	n/a
2675.284	n/a	STOP	1337642	n/a	LTP279	ltpFR	12	n/a	n/a	n/a	n/a	n/a	n/a	n/a	n/a	n/a	n/a	n/a	n/a	n/a	n/a	n/a	n/a
2676.7	n/a	WORD	1338350	wordpools/wasnorm_wordpool_less_exclusions.txt	LTP279	ltpFR	12	9	0	SIGN	1305	n/a	n/a	0	n/a	0	0	0	0.57763671875	0.412841796875	1	upper	zerothre.ttf
2679.714	n/a	START	1339857	n/a	LTP279	ltpFR	12	n/a	n/a	n/a	n/a	n/a	n/a	n/a	n/a	n/a	n/a	n/a	n/a	n/a	n/a	n/a	n/a
2680.728	n/a	PROB	1340364	n/a	LTP279	ltpFR	12	n/a	n/a	n/a	n/a	n/a	n/a	n/a	19	3	9	7	n/a	n/a	n/a	n/a	n/a
2682.942	n/a	PROB	1341471	n/a	LTP279	ltpFR	12	n/a	n/a	n/a	n/a	n/a	n/a	n/a	18	4	8	6	n/a	n/a	n/a	n/a	n/a
2684.522	n/a	PROB	1342261	n/a	LTP279	ltpFR	12	n/a	n/a	n/a	n/a	n/a	n/a	n/a	10	2	5	3	n/a	n/a	n/a	n/a	n/a
2686.768	n/a	PROB	1343384	n/a	LTP279	ltpFR	12	n/a	n/a	n/a	n/a	n/a	n/a	n/a	25	9	7	9	n/a	n/a	n/a	n/a	n/a
2689.598	n/a	PROB	1344799	n/a	LTP279	ltpFR	12	n/a	n/a	n/a	n/a	n/a	n/a	n/a	16	5	2	9	n/a	n/a	n/a	n/a	n/a
2692.228	n/a	PROB	1346114	n/a	LTP279	ltpFR	12	n/a	n/a	n/a	n/a	n/a	n/a	n/a	18	9	5	4	n/a	n/a	n/a	n/a	n/a
2695.706	n/a	STOP	1347853	n/a	LTP279	ltpFR	12	n/a	n/a	n/a	n/a	n/a	n/a	n/a	n/a	n/a	n/a	n/a	n/a	n/a	n/a	n/a	n/a
2696.804	n/a	WORD	1348402	wordpools/wasnorm_wordpool_less_exclusions.txt	LTP279	ltpFR	12	9	0	SIGNATURE	1306	n/a	n/a	0	n/a	0	0	0	0.57763671875	0.412841796875	1	upper	zerothre.ttf
2699.816	n/a	START	1349908	n/a	LTP279	ltpFR	12	n/a	n/a	n/a	n/a	n/a	n/a	n/a	n/a	n/a	n/a	n/a	n/a	n/a	n/a	n/a	n/a
2700.914	n/a	PROB	1350457	n/a	LTP279	ltpFR	12	n/a	n/a	n/a	n/a	n/a	n/a	n/a	12	3	3	6	n/a	n/a	n/a	n/a	n/a
2702.712	n/a	PROB	1351356	n/a	LTP279	ltpFR	12	n/a	n/a	n/a	n/a	n/a	n/a	n/a	11	3	3	5	n/a	n/a	n/a	n/a	n/a
2704.492	n/a	PROB	1352246	n/a	LTP279	ltpFR	12	n/a	n/a	n/a	n/a	n/a	n/a	n/a	18	5	8	5	n/a	n/a	n/a	n/a	n/a
2705.974	n/a	PROB	1352987	n/a	LTP279	ltpFR	12	n/a	n/a	n/a	n/a	n/a	n/a	n/a	8	2	2	4	n/a	n/a	n/a	n/a	n/a
2707.372	n/a	PROB	1353686	n/a	LTP279	ltpFR	12	n/a	n/a	n/a	n/a	n/a	n/a	n/a	16	3	5	7	n/a	n/a	n/a	n/a	n/a
2709.12	n/a	PROB	1354560	n/a	LTP279	ltpFR	12	n/a	n/a	n/a	n/a	n/a	n/a	n/a	15	4	9	2	n/a	n/a	n/a	n/a	n/a
2711.1	n/a	PROB	1355550	n/a	LTP279	ltpFR	12	n/a	n/a	n/a	n/a	n/a	n/a	n/a	13	5	4	4	n/a	n/a	n/a	n/a	n/a
2712.914	n/a	PROB	1356457	n/a	LTP279	ltpFR	12	n/a	n/a	n/a	n/a	n/a	n/a	n/a	11	3	2	5	n/a	n/a	n/a	n/a	n/a
2715.124	n/a	STOP	1357562	n/a	LTP279	ltpFR	12	n/a	n/a	n/a	n/a	n/a	n/a	n/a	n/a	n/a	n/a	n/a	n/a	n/a	n/a	n/a	n/a
2716.79	n/a	WORD	1358395	wordpools/wasnorm_wordpool_less_exclusions.txt	LTP279	ltpFR	12	9	0	PEACH	1031	n/a	n/a	0	n/a	0	0	0	0.57763671875	0.412841796875	1	upper	zerothre.ttf
2719.804	n/a	START	1359902	n/a	LTP279	ltpFR	12	n/a	n/a	n/a	n/a	n/a	n/a	n/a	n/a	n/a	n/a	n/a	n/a	n/a	n/a	n/a	n/a
2720.952	n/a	PROB	1360476	n/a	LTP279	ltpFR	12	n/a	n/a	n/a	n/a	n/a	n/a	n/a	16	8	4	4	n/a	n/a	n/a	n/a	n/a
2722.898	n/a	PROB	1361449	n/a	LTP279	ltpFR	12	n/a	n/a	n/a	n/a	n/a	n/a	n/a	20	3	9	8	n/a	n/a	n/a	n/a	n/a
2724.696	n/a	PROB	1362348	n/a	LTP279	ltpFR	12	n/a	n/a	n/a	n/a	n/a	n/a	n/a	15	2	6	7	n/a	n/a	n/a	n/a	n/a
2726.592	n/a	PROB	1363296	n/a	LTP279	ltpFR	12	n/a	n/a	n/a	n/a	n/a	n/a	n/a	21	8	6	7	n/a	n/a	n/a	n/a	n/a
2729.274	n/a	PROB	1364637	n/a	LTP279	ltpFR	12	n/a	n/a	n/a	n/a	n/a	n/a	n/a	15	5	7	3	n/a	n/a	n/a	n/a	n/a
2730.786	n/a	PROB	1365393	n/a	LTP279	ltpFR	12	n/a	n/a	n/a	n/a	n/a	n/a	n/a	1	5	4	8	n/a	n/a	n/a	n/a	n/a
2734.66	n/a	STOP	1367330	n/a	LTP279	ltpFR	12	n/a	n/a	n/a	n/a	n/a	n/a	n/a	n/a	n/a	n/a	n/a	n/a	n/a	n/a	n/a	n/a
2736.978	n/a	WORD	1368489	wordpools/wasnorm_wordpool_less_exclusions.txt	LTP279	ltpFR	12	9	0	CHAIN	273	n/a	n/a	0	n/a	0	0	0	0.57763671875	0.412841796875	1	upper	zerothre.ttf
2739.99	n/a	START	1369995	n/a	LTP279	ltpFR	12	n/a	n/a	n/a	n/a	n/a	n/a	n/a	n/a	n/a	n/a	n/a	n/a	n/a	n/a	n/a	n/a
2741.056	n/a	PROB	1370528	n/a	LTP279	ltpFR	12	n/a	n/a	n/a	n/a	n/a	n/a	n/a	12	3	2	7	n/a	n/a	n/a	n/a	n/a
2743.734	n/a	PROB	1371867	n/a	LTP279	ltpFR	12	n/a	n/a	n/a	n/a	n/a	n/a	n/a	24	9	6	9	n/a	n/a	n/a	n/a	n/a
2746.216	n/a	PROB	1373108	n/a	LTP279	ltpFR	12	n/a	n/a	n/a	n/a	n/a	n/a	n/a	15	9	5	1	n/a	n/a	n/a	n/a	n/a
2747.646	n/a	PROB	1373823	n/a	LTP279	ltpFR	12	n/a	n/a	n/a	n/a	n/a	n/a	n/a	10	2	3	5	n/a	n/a	n/a	n/a	n/a
2749.726	n/a	PROB	1374863	n/a	LTP279	ltpFR	12	n/a	n/a	n/a	n/a	n/a	n/a	n/a	25	8	9	8	n/a	n/a	n/a	n/a	n/a
2752.256	n/a	PROB	1376128	n/a	LTP279	ltpFR	12	n/a	n/a	n/a	n/a	n/a	n/a	n/a	13	5	3	5	n/a	n/a	n/a	n/a	n/a
2755.99	n/a	STOP	1377995	n/a	LTP279	ltpFR	12	n/a	n/a	n/a	n/a	n/a	n/a	n/a	n/a	n/a	n/a	n/a	n/a	n/a	n/a	n/a	n/a
2757.132	n/a	WORD	1378566	wordpools/wasnorm_wordpool_less_exclusions.txt	LTP279	ltpFR	12	9	0	FUDGE	611	n/a	n/a	0	n/a	0	0	0	0.57763671875	0.412841796875	1	upper	zerothre.ttf
2760.146	n/a	START	1380073	n/a	LTP279	ltpFR	12	n/a	n/a	n/a	n/a	n/a	n/a	n/a	n/a	n/a	n/a	n/a	n/a	n/a	n/a	n/a	n/a
2761.31	n/a	PROB	1380655	n/a	LTP279	ltpFR	12	n/a	n/a	n/a	n/a	n/a	n/a	n/a	15	5	7	3	n/a	n/a	n/a	n/a	n/a
2762.756	n/a	PROB	1381378	n/a	LTP279	ltpFR	12	n/a	n/a	n/a	n/a	n/a	n/a	n/a	16	8	3	5	n/a	n/a	n/a	n/a	n/a
2765.004	n/a	PROB	1382502	n/a	LTP279	ltpFR	12	n/a	n/a	n/a	n/a	n/a	n/a	n/a	9	5	2	2	n/a	n/a	n/a	n/a	n/a
2766.418	n/a	PROB	1383209	n/a	LTP279	ltpFR	12	n/a	n/a	n/a	n/a	n/a	n/a	n/a	19	8	8	3	n/a	n/a	n/a	n/a	n/a
2768.034	n/a	PROB	1384017	n/a	LTP279	ltpFR	12	n/a	n/a	n/a	n/a	n/a	n/a	n/a	23	8	9	7	n/a	n/a	n/a	n/a	n/a
2770.762	n/a	PROB	1385381	n/a	LTP279	ltpFR	12	n/a	n/a	n/a	n/a	n/a	n/a	n/a	9	1	1	7	n/a	n/a	n/a	n/a	n/a
2772.044	n/a	PROB	1386022	n/a	LTP279	ltpFR	12	n/a	n/a	n/a	n/a	n/a	n/a	n/a	10	1	8	1	n/a	n/a	n/a	n/a	n/a
2776.146	n/a	STOP	1388073	n/a	LTP279	ltpFR	12	n/a	n/a	n/a	n/a	n/a	n/a	n/a	n/a	n/a	n/a	n/a	n/a	n/a	n/a	n/a	n/a
2777.086	n/a	WORD	1388543	wordpools/wasnorm_wordpool_less_exclusions.txt	LTP279	ltpFR	12	9	0	DRILL	497	n/a	n/a	0	n/a	0	0	0	0.57763671875	0.412841796875	1	upper	zerothre.ttf
2780.098	n/a	START	1390049	n/a	LTP279	ltpFR	12	n/a	n/a	n/a	n/a	n/a	n/a	n/a	n/a	n/a	n/a	n/a	n/a	n/a	n/a	n/a	n/a
2781.28	n/a	PROB	1390640	n/a	LTP279	ltpFR	12	n/a	n/a	n/a	n/a	n/a	n/a	n/a	20	8	4	8	n/a	n/a	n/a	n/a	n/a
2783.276	n/a	PROB	1391638	n/a	LTP279	ltpFR	12	n/a	n/a	n/a	n/a	n/a	n/a	n/a	17	7	4	6	n/a	n/a	n/a	n/a	n/a
2785.19	n/a	PROB	1392595	n/a	LTP279	ltpFR	12	n/a	n/a	n/a	n/a	n/a	n/a	n/a	22	4	9	9	n/a	n/a	n/a	n/a	n/a
2786.77	n/a	PROB	1393385	n/a	LTP279	ltpFR	12	n/a	n/a	n/a	n/a	n/a	n/a	n/a	20	7	6	7	n/a	n/a	n/a	n/a	n/a
2789.018	n/a	PROB	1394509	n/a	LTP279	ltpFR	12	n/a	n/a	n/a	n/a	n/a	n/a	n/a	10	1	1	8	n/a	n/a	n/a	n/a	n/a
2790.416	n/a	PROB	1395208	n/a	LTP279	ltpFR	12	n/a	n/a	n/a	n/a	n/a	n/a	n/a	4	2	1	1	n/a	n/a	n/a	n/a	n/a
2791.714	n/a	PROB	1395857	n/a	LTP279	ltpFR	12	n/a	n/a	n/a	n/a	n/a	n/a	n/a	12	6	3	3	n/a	n/a	n/a	n/a	n/a
2793.428	n/a	PROB	1396714	n/a	LTP279	ltpFR	12	n/a	n/a	n/a	n/a	n/a	n/a	n/a	20	5	9	6	n/a	n/a	n/a	n/a	n/a
2795.828	n/a	STOP	1397914	n/a	LTP279	ltpFR	12	n/a	n/a	n/a	n/a	n/a	n/a	n/a	n/a	n/a	n/a	n/a	n/a	n/a	n/a	n/a	n/a
2797.972	n/a	REC_START	1398986	n/a	LTP279	ltpFR	12	9	n/a	n/a	n/a	n/a	n/a	n/a	n/a	0	0	0	n/a	n/a	n/a	n/a	n/a
2799.882	n/a	REC_WORD	1399941	wordpools/wasnorm_wordpool_less_exclusions.txt	LTP279	ltpFR	12	9	0	FUDGE	611	n/a	n/a	0	n/a	0	0	0	n/a	n/a	n/a	n/a	n/a
2801.61	n/a	REC_WORD	1400805	wordpools/wasnorm_wordpool_less_exclusions.txt	LTP279	ltpFR	12	9	0	PEACH	1031	n/a	n/a	0	n/a	0	0	0	n/a	n/a	n/a	n/a	n/a
2803.056	n/a	REC_WORD	1401528	wordpools/wasnorm_wordpool_less_exclusions.txt	LTP279	ltpFR	12	9	0	SIGN	1305	n/a	n/a	0	n/a	0	0	0	n/a	n/a	n/a	n/a	n/a
2804.448	n/a	REC_WORD	1402224	wordpools/wasnorm_wordpool_less_exclusions.txt	LTP279	ltpFR	12	9	0	SIGNATURE	1306	n/a	n/a	0	n/a	0	0	0	n/a	n/a	n/a	n/a	n/a
2805.448	n/a	REC_WORD_VV	1402724	wordpools/wasnorm_wordpool_less_exclusions.txt	LTP279	ltpFR	12	9	n/a	<>	-1	n/a	n/a	n/a	n/a	0	0	0	n/a	n/a	n/a	n/a	n/a
2806.412	n/a	REC_WORD	1403206	wordpools/wasnorm_wordpool_less_exclusions.txt	LTP279	ltpFR	12	9	0	RELISH	1183	n/a	n/a	0	n/a	0	0	0	n/a	n/a	n/a	n/a	n/a
2808.066	n/a	REC_WORD	1404033	wordpools/wasnorm_wordpool_less_exclusions.txt	LTP279	ltpFR	12	9	0	PLATE	1086	n/a	n/a	0	n/a	0	0	0	n/a	n/a	n/a	n/a	n/a
2890.236	n/a	START	1445118	n/a	LTP279	ltpFR	12	n/a	n/a	n/a	n/a	n/a	n/a	n/a	n/a	n/a	n/a	n/a	n/a	n/a	n/a	n/a	n/a
2891.75	n/a	PROB	1445875	n/a	LTP279	ltpFR	12	n/a	n/a	n/a	n/a	n/a	n/a	n/a	21	7	8	9	n/a	n/a	n/a	n/a	n/a
2893.98	n/a	PROB	1446990	n/a	LTP279	ltpFR	12	n/a	n/a	n/a	n/a	n/a	n/a	n/a	18	4	5	9	n/a	n/a	n/a	n/a	n/a
2895.826	n/a	PROB	1447913	n/a	LTP279	ltpFR	12	n/a	n/a	n/a	n/a	n/a	n/a	n/a	19	2	9	8	n/a	n/a	n/a	n/a	n/a
2897.766	n/a	STOP	1448883	n/a	LTP279	ltpFR	12	n/a	n/a	n/a	n/a	n/a	n/a	n/a	n/a	n/a	n/a	n/a	n/a	n/a	n/a	n/a	n/a
2899.306	n/a	WORD	1449653	wordpools/wasnorm_wordpool_less_exclusions.txt	LTP279	ltpFR	12	10	1	BEETLE	116	n/a	n/a	1	n/a	0	0	0	0.422607421875	0.5869140625	0	lower	amplitud.ttf
2902.318	n/a	START	1451159	n/a	LTP279	ltpFR	12	n/a	n/a	n/a	n/a	n/a	n/a	n/a	n/a	n/a	n/a	n/a	n/a	n/a	n/a	n/a	n/a
2903.498	n/a	PROB	1451749	n/a	LTP279	ltpFR	12	n/a	n/a	n/a	n/a	n/a	n/a	n/a	14	5	5	4	n/a	n/a	n/a	n/a	n/a
2904.88	n/a	PROB	1452440	n/a	LTP279	ltpFR	12	n/a	n/a	n/a	n/a	n/a	n/a	n/a	24	6	9	9	n/a	n/a	n/a	n/a	n/a
2906.994	n/a	PROB	1453497	n/a	LTP279	ltpFR	12	n/a	n/a	n/a	n/a	n/a	n/a	n/a	18	4	6	8	n/a	n/a	n/a	n/a	n/a
2908.99	n/a	STOP	1454495	n/a	LTP279	ltpFR	12	n/a	n/a	n/a	n/a	n/a	n/a	n/a	n/a	n/a	n/a	n/a	n/a	n/a	n/a	n/a	n/a
2911.322	n/a	WORD	1455661	wordpools/wasnorm_wordpool_less_exclusions.txt	LTP279	ltpFR	12	10	1	BAIT	70	n/a	n/a	0	n/a	0	0	0	0.422607421875	0.5869140625	0	lower	amplitud.ttf
2914.334	n/a	START	1457167	n/a	LTP279	ltpFR	12	n/a	n/a	n/a	n/a	n/a	n/a	n/a	n/a	n/a	n/a	n/a	n/a	n/a	n/a	n/a	n/a
2915.198	n/a	PROB	1457599	n/a	LTP279	ltpFR	12	n/a	n/a	n/a	n/a	n/a	n/a	n/a	20	6	6	8	n/a	n/a	n/a	n/a	n/a
2917.08	n/a	PROB	1458540	n/a	LTP279	ltpFR	12	n/a	n/a	n/a	n/a	n/a	n/a	n/a	16	7	3	6	n/a	n/a	n/a	n/a	n/a
2918.642	n/a	PROB	1459321	n/a	LTP279	ltpFR	12	n/a	n/a	n/a	n/a	n/a	n/a	n/a	13	2	7	4	n/a	n/a	n/a	n/a	n/a
2921.334	n/a	STOP	1460667	n/a	LTP279	ltpFR	12	n/a	n/a	n/a	n/a	n/a	n/a	n/a	n/a	n/a	n/a	n/a	n/a	n/a	n/a	n/a	n/a
2923.304	n/a	WORD	1461652	wordpools/wasnorm_wordpool_less_exclusions.txt	LTP279	ltpFR	12	10	1	BOULDER	155	n/a	n/a	0	n/a	0	0	0	0.422607421875	0.5869140625	0	lower	amplitud.ttf
2926.316	n/a	START	1463158	n/a	LTP279	ltpFR	12	n/a	n/a	n/a	n/a	n/a	n/a	n/a	n/a	n/a	n/a	n/a	n/a	n/a	n/a	n/a	n/a
2927.462	n/a	PROB	1463731	n/a	LTP279	ltpFR	12	n/a	n/a	n/a	n/a	n/a	n/a	n/a	16	9	6	1	n/a	n/a	n/a	n/a	n/a
2929.31	n/a	PROB	1464655	n/a	LTP279	ltpFR	12	n/a	n/a	n/a	n/a	n/a	n/a	n/a	21	9	3	9	n/a	n/a	n/a	n/a	n/a
2931.026	n/a	PROB	1465513	n/a	LTP279	ltpFR	12	n/a	n/a	n/a	n/a	n/a	n/a	n/a	12	1	6	5	n/a	n/a	n/a	n/a	n/a
2932.788	n/a	PROB	1466394	n/a	LTP279	ltpFR	12	n/a	n/a	n/a	n/a	n/a	n/a	n/a	18	8	5	5	n/a	n/a	n/a	n/a	n/a
2934.094	n/a	STOP	1467047	n/a	LTP279	ltpFR	12	n/a	n/a	n/a	n/a	n/a	n/a	n/a	n/a	n/a	n/a	n/a	n/a	n/a	n/a	n/a	n/a
2935.202	n/a	WORD	1467601	wordpools/wasnorm_wordpool_less_exclusions.txt	LTP279	ltpFR	12	10	1	STONE	1385	n/a	n/a	0	n/a	0	0	0	0.422607421875	0.5869140625	0	lower	amplitud.ttf
2938.214	n/a	START	1469107	n/a	LTP279	ltpFR	12	n/a	n/a	n/a	n/a	n/a	n/a	n/a	n/a	n/a	n/a	n/a	n/a	n/a	n/a	n/a	n/a
2939.13	n/a	PROB	1469565	n/a	LTP279	ltpFR	12	n/a	n/a	n/a	n/a	n/a	n/a	n/a	10	1	7	2	n/a	n/a	n/a	n/a	n/a
2940.792	n/a	PROB	1470396	n/a	LTP279	ltpFR	12	n/a	n/a	n/a	n/a	n/a	n/a	n/a	13	6	4	3	n/a	n/a	n/a	n/a	n/a
2942.192	n/a	PROB	1471096	n/a	LTP279	ltpFR	12	n/a	n/a	n/a	n/a	n/a	n/a	n/a	14	7	5	2	n/a	n/a	n/a	n/a	n/a
2943.856	n/a	PROB	1471928	n/a	LTP279	ltpFR	12	n/a	n/a	n/a	n/a	n/a	n/a	n/a	16	5	8	3	n/a	n/a	n/a	n/a	n/a
2945.542	n/a	STOP	1472771	n/a	LTP279	ltpFR	12	n/a	n/a	n/a	n/a	n/a	n/a	n/a	n/a	n/a	n/a	n/a	n/a	n/a	n/a	n/a	n/a
2947.236	n/a	WORD	1473618	wordpools/wasnorm_wordpool_less_exclusions.txt	LTP279	ltpFR	12	10	1	SNORKEL	1336	n/a	n/a	0	n/a	0	0	0	0.422607421875	0.5869140625	0	lower	amplitud.ttf
2950.248	n/a	START	1475124	n/a	LTP279	ltpFR	12	n/a	n/a	n/a	n/a	n/a	n/a	n/a	n/a	n/a	n/a	n/a	n/a	n/a	n/a	n/a	n/a
2951.18	n/a	PROB	1475590	n/a	LTP279	ltpFR	12	n/a	n/a	n/a	n/a	n/a	n/a	n/a	18	4	5	9	n/a	n/a	n/a	n/a	n/a
2953.192	n/a	PROB	1476596	n/a	LTP279	ltpFR	12	n/a	n/a	n/a	n/a	n/a	n/a	n/a	18	9	6	3	n/a	n/a	n/a	n/a	n/a
