onset	duration	trial_type	sample	stim_file	subject	experiment	session	trial	item_name	item_num	list	answer	test_x	test_y	test_z
207.316	n/a	SESS_START	103658	n/a	LTP319	ltpFR2	6	n/a	n/a	n/a	n/a	n/a	0	0	0
231.718	n/a	START	115859	n/a	LTP319	ltpFR2	6	n/a	n/a	n/a	-1	n/a	n/a	n/a	n/a
231.734	n/a	PROB	115867	n/a	LTP319	ltpFR2	6	n/a	n/a	n/a	-1	16	2	8	6
233.452	n/a	PROB	116726	n/a	LTP319	ltpFR2	6	n/a	n/a	n/a	-1	20	4	7	9
235.156	n/a	PROB	117578	n/a	LTP319	ltpFR2	6	n/a	n/a	n/a	-1	13	8	2	3
236.406	n/a	PROB	118203	n/a	LTP319	ltpFR2	6	n/a	n/a	n/a	-1	11	5	4	2
237.772	n/a	PROB	118886	n/a	LTP319	ltpFR2	6	n/a	n/a	n/a	-1	12	4	2	4
240.006	n/a	PROB	120003	n/a	LTP319	ltpFR2	6	n/a	n/a	n/a	-1	23	9	6	8
243.564	n/a	STOP	121782	n/a	LTP319	ltpFR2	6	n/a	n/a	n/a	-1	n/a	n/a	n/a	n/a
280.656	n/a	WORD	140328	wordpools/wasnorm_wordpool_576.txt	LTP319	ltpFR2	6	1	AIRPLANE	12	n/a	n/a	0	0	0
283.176	n/a	WORD	141588	wordpools/wasnorm_wordpool_576.txt	LTP319	ltpFR2	6	1	SWIMMER	1420	n/a	n/a	0	0	0
285.668	n/a	WORD	142834	wordpools/wasnorm_wordpool_576.txt	LTP319	ltpFR2	6	1	PEDAL	1037	n/a	n/a	0	0	0
288.246	n/a	WORD	144123	wordpools/wasnorm_wordpool_576.txt	LTP319	ltpFR2	6	1	ASIA	46	n/a	n/a	0	0	0
290.898	n/a	WORD	145449	wordpools/wasnorm_wordpool_576.txt	LTP319	ltpFR2	6	1	EUROPE	541	n/a	n/a	0	0	0
293.474	n/a	WORD	146737	wordpools/wasnorm_wordpool_576.txt	LTP319	ltpFR2	6	1	LOFT	840	n/a	n/a	0	0	0
295.91	n/a	WORD	147955	wordpools/wasnorm_wordpool_576.txt	LTP319	ltpFR2	6	1	TROUT	1511	n/a	n/a	0	0	0
298.496	n/a	WORD	149248	wordpools/wasnorm_wordpool_576.txt	LTP319	ltpFR2	6	1	DRAGON	492	n/a	n/a	0	0	0
301.006	n/a	WORD	150503	wordpools/wasnorm_wordpool_576.txt	LTP319	ltpFR2	6	1	DRILL	497	n/a	n/a	0	0	0
303.642	n/a	WORD	151821	wordpools/wasnorm_wordpool_576.txt	LTP319	ltpFR2	6	1	BIKE	125	n/a	n/a	0	0	0
306.336	n/a	WORD	153168	wordpools/wasnorm_wordpool_576.txt	LTP319	ltpFR2	6	1	LASER	801	n/a	n/a	0	0	0
308.846	n/a	WORD	154423	wordpools/wasnorm_wordpool_576.txt	LTP319	ltpFR2	6	1	PERMIT	1051	n/a	n/a	0	0	0
311.282	n/a	WORD	155641	wordpools/wasnorm_wordpool_576.txt	LTP319	ltpFR2	6	1	BLUEPRINT	142	n/a	n/a	0	0	0
314.084	n/a	WORD	157042	wordpools/wasnorm_wordpool_576.txt	LTP319	ltpFR2	6	1	LIPSTICK	829	n/a	n/a	0	0	0
316.644	n/a	WORD	158322	wordpools/wasnorm_wordpool_576.txt	LTP319	ltpFR2	6	1	RIFLE	1192	n/a	n/a	0	0	0
319.42	n/a	WORD	159710	wordpools/wasnorm_wordpool_576.txt	LTP319	ltpFR2	6	1	CRAB	397	n/a	n/a	0	0	0
322.064	n/a	WORD	161032	wordpools/wasnorm_wordpool_576.txt	LTP319	ltpFR2	6	1	ULCER	1533	n/a	n/a	0	0	0
324.868	n/a	WORD	162434	wordpools/wasnorm_wordpool_576.txt	LTP319	ltpFR2	6	1	DANCER	437	n/a	n/a	0	0	0
327.57	n/a	WORD	163785	wordpools/wasnorm_wordpool_576.txt	LTP319	ltpFR2	6	1	LEADER	807	n/a	n/a	0	0	0
330.362	n/a	WORD	165181	wordpools/wasnorm_wordpool_576.txt	LTP319	ltpFR2	6	1	GAVEL	627	n/a	n/a	0	0	0
332.99	n/a	WORD	166495	wordpools/wasnorm_wordpool_576.txt	LTP319	ltpFR2	6	1	WRENCH	1625	n/a	n/a	0	0	0
335.76	n/a	WORD	167880	wordpools/wasnorm_wordpool_576.txt	LTP319	ltpFR2	6	1	KIDNEY	776	n/a	n/a	0	0	0
338.568	n/a	WORD	169284	wordpools/wasnorm_wordpool_576.txt	LTP319	ltpFR2	6	1	PLAZA	1088	n/a	n/a	0	0	0
341.382	n/a	WORD	170691	wordpools/wasnorm_wordpool_576.txt	LTP319	ltpFR2	6	1	THRONE	1461	n/a	n/a	0	0	0
342.99	n/a	START	171495	n/a	LTP319	ltpFR2	6	n/a	n/a	n/a	1	n/a	n/a	n/a	n/a
343.906	n/a	DISTRACTOR	171953	n/a	LTP319	ltpFR2	6	1	n/a	n/a	n/a	n/a	0	0	0
343.918	n/a	PROB	171959	n/a	LTP319	ltpFR2	6	n/a	n/a	n/a	1	14	5	1	8
345.624	n/a	PROB	172812	n/a	LTP319	ltpFR2	6	n/a	n/a	n/a	1	17	8	2	7
346.96	n/a	PROB	173480	n/a	LTP319	ltpFR2	6	n/a	n/a	n/a	1	10	4	5	1
348.524	n/a	PROB	174262	n/a	LTP319	ltpFR2	6	n/a	n/a	n/a	1	11	7	3	1
349.778	n/a	PROB	174889	n/a	LTP319	ltpFR2	6	n/a	n/a	n/a	1	18	3	8	7
351.364	n/a	PROB	175682	n/a	LTP319	ltpFR2	6	n/a	n/a	n/a	1	7	3	2	2
353.048	n/a	PROB	176524	n/a	LTP319	ltpFR2	6	n/a	n/a	n/a	1	5	1	3	1
354.264	n/a	PROB	177132	n/a	LTP319	ltpFR2	6	n/a	n/a	n/a	1	10	6	3	1
355.864	n/a	PROB	177932	n/a	LTP319	ltpFR2	6	n/a	n/a	n/a	1	20	9	5	6
357.932	n/a	PROB	178966	n/a	LTP319	ltpFR2	6	n/a	n/a	n/a	1	15	6	1	8
359.668	n/a	PROB	179834	n/a	LTP319	ltpFR2	6	n/a	n/a	n/a	1	17	6	8	3
361.436	n/a	PROB	180718	n/a	LTP319	ltpFR2	6	n/a	n/a	n/a	1	13	3	4	6
363.718	n/a	PROB	181859	n/a	LTP319	ltpFR2	6	n/a	n/a	n/a	1	10	1	6	3
366.99	n/a	STOP	183495	n/a	LTP319	ltpFR2	6	n/a	n/a	n/a	1	n/a	n/a	n/a	n/a
368.788	n/a	REC_START	184394	n/a	LTP319	ltpFR2	6	1	n/a	n/a	n/a	n/a	0	0	0
370.802	n/a	REC_WORD	185401	wordpools/wasnorm_wordpool_576.txt	LTP319	ltpFR2	6	1	SWIMMER	1420	n/a	n/a	0	0	0
371.814	n/a	REC_WORD	185907	wordpools/wasnorm_wordpool_576.txt	LTP319	ltpFR2	6	1	AIRPLANE	12	n/a	n/a	0	0	0
372.614	n/a	REC_WORD	186307	wordpools/wasnorm_wordpool_576.txt	LTP319	ltpFR2	6	1	LOFT	840	n/a	n/a	0	0	0
373.736	n/a	REC_WORD	186868	wordpools/wasnorm_wordpool_576.txt	LTP319	ltpFR2	6	1	ASIA	46	n/a	n/a	0	0	0
374.394	n/a	REC_WORD	187197	wordpools/wasnorm_wordpool_576.txt	LTP319	ltpFR2	6	1	EUROPE	541	n/a	n/a	0	0	0
375.194	n/a	REC_WORD	187597	wordpools/wasnorm_wordpool_576.txt	LTP319	ltpFR2	6	1	DANCER	437	n/a	n/a	0	0	0
375.79	n/a	REC_WORD	187895	wordpools/wasnorm_wordpool_576.txt	LTP319	ltpFR2	6	1	LEADER	807	n/a	n/a	0	0	0
376.546	n/a	REC_WORD	188273	wordpools/wasnorm_wordpool_576.txt	LTP319	ltpFR2	6	1	ULCER	1533	n/a	n/a	0	0	0
377.206	n/a	REC_WORD	188603	wordpools/wasnorm_wordpool_576.txt	LTP319	ltpFR2	6	1	KIDNEY	776	n/a	n/a	0	0	0
378.678	n/a	REC_WORD	189339	wordpools/wasnorm_wordpool_576.txt	LTP319	ltpFR2	6	1	LASER	801	n/a	n/a	0	0	0
379.458	n/a	REC_WORD	189729	wordpools/wasnorm_wordpool_576.txt	LTP319	ltpFR2	6	1	RIFLE	1192	n/a	n/a	0	0	0
380.796	n/a	REC_WORD	190398	wordpools/wasnorm_wordpool_576.txt	LTP319	ltpFR2	6	1	BLUEPRINT	142	n/a	n/a	0	0	0
381.894	n/a	REC_WORD	190947	wordpools/wasnorm_wordpool_576.txt	LTP319	ltpFR2	6	1	PERMIT	1051	n/a	n/a	0	0	0
386.34	n/a	REC_WORD	193170	wordpools/wasnorm_wordpool_576.txt	LTP319	ltpFR2	6	1	PEDAL	1037	n/a	n/a	0	0	0
387.812	n/a	REC_WORD	193906	wordpools/wasnorm_wordpool_576.txt	LTP319	ltpFR2	6	1	GAVEL	627	n/a	n/a	0	0	0
394.444	n/a	REC_WORD	197222	wordpools/wasnorm_wordpool_576.txt	LTP319	ltpFR2	6	1	CRAB	397	n/a	n/a	0	0	0
395.392	n/a	REC_WORD	197696	wordpools/wasnorm_wordpool_576.txt	LTP319	ltpFR2	6	1	TROUT	1511	n/a	n/a	0	0	0
429.324	n/a	REC_WORD	214662	wordpools/wasnorm_wordpool_576.txt	LTP319	ltpFR2	6	1	THRONE	1461	n/a	n/a	0	0	0
459.232	n/a	DISTRACTOR	229616	n/a	LTP319	ltpFR2	6	2	n/a	n/a	n/a	n/a	0	0	0
459.232	n/a	START	229616	n/a	LTP319	ltpFR2	6	n/a	n/a	n/a	2	n/a	n/a	n/a	n/a
459.244	n/a	PROB	229622	n/a	LTP319	ltpFR2	6	n/a	n/a	n/a	2	14	8	3	3
461.614	n/a	PROB	230807	n/a	LTP319	ltpFR2	6	n/a	n/a	n/a	2	12	6	3	3
463.716	n/a	PROB	231858	n/a	LTP319	ltpFR2	6	n/a	n/a	n/a	2	19	7	8	4
466.284	n/a	PROB	233142	n/a	LTP319	ltpFR2	6	n/a	n/a	n/a	2	17	6	2	9
467.736	n/a	PROB	233868	n/a	LTP319	ltpFR2	6	n/a	n/a	n/a	2	21	7	5	9
470.72	n/a	PROB	235360	n/a	LTP319	ltpFR2	6	n/a	n/a	n/a	2	11	6	1	5
473.306	n/a	PROB	236653	n/a	LTP319	ltpFR2	6	n/a	n/a	n/a	2	12	4	2	3
475.09	n/a	PROB	237545	n/a	LTP319	ltpFR2	6	n/a	n/a	n/a	2	11	2	8	1
476.692	n/a	PROB	238346	n/a	LTP319	ltpFR2	6	n/a	n/a	n/a	2	9	3	1	5
479.178	n/a	PROB	239589	n/a	LTP319	ltpFR2	6	n/a	n/a	n/a	2	18	4	8	6
483.232	n/a	STOP	241616	n/a	LTP319	ltpFR2	6	n/a	n/a	n/a	2	n/a	n/a	n/a	n/a
484.366	n/a	WORD	242183	wordpools/wasnorm_wordpool_576.txt	LTP319	ltpFR2	6	2	ACTOR	5	n/a	n/a	0	0	0
486.838	n/a	WORD	243419	wordpools/wasnorm_wordpool_576.txt	LTP319	ltpFR2	6	2	CHAMPAGNE	278	n/a	n/a	0	0	0
489.456	n/a	WORD	244728	wordpools/wasnorm_wordpool_576.txt	LTP319	ltpFR2	6	2	CUSTARD	429	n/a	n/a	0	0	0
492.172	n/a	WORD	246086	wordpools/wasnorm_wordpool_576.txt	LTP319	ltpFR2	6	2	AGENT	10	n/a	n/a	0	0	0
494.64	n/a	WORD	247320	wordpools/wasnorm_wordpool_576.txt	LTP319	ltpFR2	6	2	SKETCH	1315	n/a	n/a	0	0	0
497.292	n/a	WORD	248646	wordpools/wasnorm_wordpool_576.txt	LTP319	ltpFR2	6	2	LOVER	846	n/a	n/a	0	0	0
499.828	n/a	WORD	249914	wordpools/wasnorm_wordpool_576.txt	LTP319	ltpFR2	6	2	SLUG	1329	n/a	n/a	0	0	0
502.552	n/a	WORD	251276	wordpools/wasnorm_wordpool_576.txt	LTP319	ltpFR2	6	2	LIZARD	834	n/a	n/a	0	0	0
505.166	n/a	WORD	252583	wordpools/wasnorm_wordpool_576.txt	LTP319	ltpFR2	6	2	STOVE	1388	n/a	n/a	0	0	0
507.584	n/a	WORD	253792	wordpools/wasnorm_wordpool_576.txt	LTP319	ltpFR2	6	2	POLICE	1098	n/a	n/a	0	0	0
510.268	n/a	WORD	255134	wordpools/wasnorm_wordpool_576.txt	LTP319	ltpFR2	6	2	GIRL	637	n/a	n/a	0	0	0
512.754	n/a	WORD	256377	wordpools/wasnorm_wordpool_576.txt	LTP319	ltpFR2	6	2	JAPAN	749	n/a	n/a	0	0	0
515.464	n/a	WORD	257732	wordpools/wasnorm_wordpool_576.txt	LTP319	ltpFR2	6	2	CABBAGE	210	n/a	n/a	0	0	0
518.166	n/a	WORD	259083	wordpools/wasnorm_wordpool_576.txt	LTP319	ltpFR2	6	2	RADISH	1158	n/a	n/a	0	0	0
520.594	n/a	WORD	260297	wordpools/wasnorm_wordpool_576.txt	LTP319	ltpFR2	6	2	XEROX	1628	n/a	n/a	0	0	0
523.18	n/a	WORD	261590	wordpools/wasnorm_wordpool_576.txt	LTP319	ltpFR2	6	2	BLACKBOARD	133	n/a	n/a	0	0	0
525.916	n/a	WORD	262958	wordpools/wasnorm_wordpool_576.txt	LTP319	ltpFR2	6	2	OINTMENT	974	n/a	n/a	0	0	0
528.468	n/a	WORD	264234	wordpools/wasnorm_wordpool_576.txt	LTP319	ltpFR2	6	2	SHARK	1275	n/a	n/a	0	0	0
531.002	n/a	WORD	265501	wordpools/wasnorm_wordpool_576.txt	LTP319	ltpFR2	6	2	FLIPPER	580	n/a	n/a	0	0	0
533.746	n/a	WORD	266873	wordpools/wasnorm_wordpool_576.txt	LTP319	ltpFR2	6	2	YACHT	1629	n/a	n/a	0	0	0
536.272	n/a	WORD	268136	wordpools/wasnorm_wordpool_576.txt	LTP319	ltpFR2	6	2	LAKE	796	n/a	n/a	0	0	0
538.916	n/a	WORD	269458	wordpools/wasnorm_wordpool_576.txt	LTP319	ltpFR2	6	2	DRIVER	499	n/a	n/a	0	0	0
541.736	n/a	WORD	270868	wordpools/wasnorm_wordpool_576.txt	LTP319	ltpFR2	6	2	ACTRESS	6	n/a	n/a	0	0	0
544.538	n/a	WORD	272269	wordpools/wasnorm_wordpool_576.txt	LTP319	ltpFR2	6	2	COCOON	339	n/a	n/a	0	0	0
546.148	n/a	START	273074	n/a	LTP319	ltpFR2	6	n/a	n/a	n/a	3	n/a	n/a	n/a	n/a
547.31	n/a	DISTRACTOR	273655	n/a	LTP319	ltpFR2	6	2	n/a	n/a	n/a	n/a	0	0	0
547.324	n/a	PROB	273662	n/a	LTP319	ltpFR2	6	n/a	n/a	n/a	3	12	2	3	7
548.932	n/a	PROB	274466	n/a	LTP319	ltpFR2	6	n/a	n/a	n/a	3	15	6	2	7
550.766	n/a	PROB	275383	n/a	LTP319	ltpFR2	6	n/a	n/a	n/a	3	12	1	7	3
553.468	n/a	PROB	276734	n/a	LTP319	ltpFR2	6	n/a	n/a	n/a	3	15	5	6	4
555.252	n/a	PROB	277626	n/a	LTP319	ltpFR2	6	n/a	n/a	n/a	3	18	3	9	6
557.956	n/a	PROB	278978	n/a	LTP319	ltpFR2	6	n/a	n/a	n/a	3	12	4	5	3
559.942	n/a	PROB	279971	n/a	LTP319	ltpFR2	6	n/a	n/a	n/a	3	14	8	4	2
563.692	n/a	PROB	281846	n/a	LTP319	ltpFR2	6	n/a	n/a	n/a	3	12	4	1	7
565.794	n/a	PROB	282897	n/a	LTP319	ltpFR2	6	n/a	n/a	n/a	3	15	4	4	7
567.596	n/a	PROB	283798	n/a	LTP319	ltpFR2	6	n/a	n/a	n/a	3	21	3	9	9
569.296	n/a	STOP	284648	n/a	LTP319	ltpFR2	6	n/a	n/a	n/a	3	n/a	n/a	n/a	n/a
571.982	n/a	REC_START	285991	n/a	LTP319	ltpFR2	6	2	n/a	n/a	n/a	n/a	0	0	0
573.17	n/a	REC_WORD	286585	wordpools/wasnorm_wordpool_576.txt	LTP319	ltpFR2	6	2	ACTOR	5	n/a	n/a	0	0	0
574.04	n/a	REC_WORD	287020	wordpools/wasnorm_wordpool_576.txt	LTP319	ltpFR2	6	2	ACTRESS	6	n/a	n/a	0	0	0
574.92	n/a	REC_WORD	287460	wordpools/wasnorm_wordpool_576.txt	LTP319	ltpFR2	6	2	CHAMPAGNE	278	n/a	n/a	0	0	0
575.926	n/a	REC_WORD	287963	wordpools/wasnorm_wordpool_576.txt	LTP319	ltpFR2	6	2	YACHT	1629	n/a	n/a	0	0	0
577.076	n/a	REC_WORD	288538	wordpools/wasnorm_wordpool_576.txt	LTP319	ltpFR2	6	2	LAKE	796	n/a	n/a	0	0	0
578.01	n/a	REC_WORD	289005	wordpools/wasnorm_wordpool_576.txt	LTP319	ltpFR2	6	2	DRIVER	499	n/a	n/a	0	0	0
579.082	n/a	REC_WORD	289541	wordpools/wasnorm_wordpool_576.txt	LTP319	ltpFR2	6	2	AGENT	10	n/a	n/a	0	0	0
580.266	n/a	REC_WORD	290133	wordpools/wasnorm_wordpool_576.txt	LTP319	ltpFR2	6	2	POLICE	1098	n/a	n/a	0	0	0
581.942	n/a	REC_WORD	290971	wordpools/wasnorm_wordpool_576.txt	LTP319	ltpFR2	6	2	SLUG	1329	n/a	n/a	0	0	0
584.02	n/a	REC_WORD	292010	wordpools/wasnorm_wordpool_576.txt	LTP319	ltpFR2	6	2	LOVER	846	n/a	n/a	0	0	0
587.402	n/a	REC_WORD	293701	wordpools/wasnorm_wordpool_576.txt	LTP319	ltpFR2	6	2	STOVE	1388	n/a	n/a	0	0	0
590.216	n/a	REC_WORD	295108	wordpools/wasnorm_wordpool_576.txt	LTP319	ltpFR2	6	2	WORM	1623	n/a	n/a	0	0	0
592.768	n/a	REC_WORD	296384	wordpools/wasnorm_wordpool_576.txt	LTP319	ltpFR2	6	2	GIRL	637	n/a	n/a	0	0	0
593.508	n/a	REC_WORD	296754	wordpools/wasnorm_wordpool_576.txt	LTP319	ltpFR2	6	2	JAPAN	749	n/a	n/a	0	0	0
594.62	n/a	REC_WORD	297310	wordpools/wasnorm_wordpool_576.txt	LTP319	ltpFR2	6	2	CABBAGE	210	n/a	n/a	0	0	0
595.514	n/a	REC_WORD	297757	wordpools/wasnorm_wordpool_576.txt	LTP319	ltpFR2	6	2	RADISH	1158	n/a	n/a	0	0	0
596.618	n/a	REC_WORD	298309	wordpools/wasnorm_wordpool_576.txt	LTP319	ltpFR2	6	2	XEROX	1628	n/a	n/a	0	0	0
625.468	n/a	REC_WORD	312734	wordpools/wasnorm_wordpool_576.txt	LTP319	ltpFR2	6	2	BLACKBOARD	133	n/a	n/a	0	0	0
629.184	n/a	REC_WORD	314592	wordpools/wasnorm_wordpool_576.txt	LTP319	ltpFR2	6	2	SKETCH	1315	n/a	n/a	0	0	0
639.764	n/a	REC_WORD	319882	wordpools/wasnorm_wordpool_576.txt	LTP319	ltpFR2	6	2	SHARK	1275	n/a	n/a	0	0	0
640.614	n/a	REC_WORD	320307	wordpools/wasnorm_wordpool_576.txt	LTP319	ltpFR2	6	2	FLIPPER	580	n/a	n/a	0	0	0
662.452	n/a	WORD	331226	wordpools/wasnorm_wordpool_576.txt	LTP319	ltpFR2	6	3	RABBIT	1152	n/a	n/a	0	0	0
665.174	n/a	WORD	332587	wordpools/wasnorm_wordpool_576.txt	LTP319	ltpFR2	6	3	HORNET	718	n/a	n/a	0	0	0
667.692	n/a	WORD	333846	wordpools/wasnorm_wordpool_576.txt	LTP319	ltpFR2	6	3	PIMPLE	1071	n/a	n/a	0	0	0
670.392	n/a	WORD	335196	wordpools/wasnorm_wordpool_576.txt	LTP319	ltpFR2	6	3	TART	1436	n/a	n/a	0	0	0
672.994	n/a	WORD	336497	wordpools/wasnorm_wordpool_576.txt	LTP319	ltpFR2	6	3	BATHTUB	100	n/a	n/a	0	0	0
675.582	n/a	WORD	337791	wordpools/wasnorm_wordpool_576.txt	LTP319	ltpFR2	6	3	HEDGE	699	n/a	n/a	0	0	0
678.266	n/a	WORD	339133	wordpools/wasnorm_wordpool_576.txt	LTP319	ltpFR2	6	3	QUEEN	1149	n/a	n/a	0	0	0
680.752	n/a	WORD	340376	wordpools/wasnorm_wordpool_576.txt	LTP319	ltpFR2	6	3	STOMACH	1384	n/a	n/a	0	0	0
683.254	n/a	WORD	341627	wordpools/wasnorm_wordpool_576.txt	LTP319	ltpFR2	6	3	MARS	873	n/a	n/a	0	0	0
685.722	n/a	WORD	342861	wordpools/wasnorm_wordpool_576.txt	LTP319	ltpFR2	6	3	BACKBONE	66	n/a	n/a	0	0	0
688.376	n/a	WORD	344188	wordpools/wasnorm_wordpool_576.txt	LTP319	ltpFR2	6	3	SALAD	1224	n/a	n/a	0	0	0
690.876	n/a	WORD	345438	wordpools/wasnorm_wordpool_576.txt	LTP319	ltpFR2	6	3	FLUTE	585	n/a	n/a	0	0	0
693.412	n/a	WORD	346706	wordpools/wasnorm_wordpool_576.txt	LTP319	ltpFR2	6	3	BABY	64	n/a	n/a	0	0	0
695.964	n/a	WORD	347982	wordpools/wasnorm_wordpool_576.txt	LTP319	ltpFR2	6	3	CRIB	407	n/a	n/a	0	0	0
698.75	n/a	WORD	349375	wordpools/wasnorm_wordpool_576.txt	LTP319	ltpFR2	6	3	GARDEN	623	n/a	n/a	0	0	0
701.334	n/a	WORD	350667	wordpools/wasnorm_wordpool_576.txt	LTP319	ltpFR2	6	3	TOMBSTONE	1478	n/a	n/a	0	0	0
704.036	n/a	WORD	352018	wordpools/wasnorm_wordpool_576.txt	LTP319	ltpFR2	6	3	POSSUM	1112	n/a	n/a	0	0	0
706.624	n/a	WORD	353312	wordpools/wasnorm_wordpool_576.txt	LTP319	ltpFR2	6	3	MONEY	908	n/a	n/a	0	0	0
709.24	n/a	WORD	354620	wordpools/wasnorm_wordpool_576.txt	LTP319	ltpFR2	6	3	BUCKET	184	n/a	n/a	0	0	0
711.826	n/a	WORD	355913	wordpools/wasnorm_wordpool_576.txt	LTP319	ltpFR2	6	3	BRIEFCASE	175	n/a	n/a	0	0	0
714.548	n/a	WORD	357274	wordpools/wasnorm_wordpool_576.txt	LTP319	ltpFR2	6	3	MESSAGE	888	n/a	n/a	0	0	0
717.13	n/a	WORD	358565	wordpools/wasnorm_wordpool_576.txt	LTP319	ltpFR2	6	3	MAILMAN	858	n/a	n/a	0	0	0
719.882	n/a	WORD	359941	wordpools/wasnorm_wordpool_576.txt	LTP319	ltpFR2	6	3	PALACE	1006	n/a	n/a	0	0	0
722.554	n/a	WORD	361277	wordpools/wasnorm_wordpool_576.txt	LTP319	ltpFR2	6	3	ARMY	39	n/a	n/a	0	0	0
724.17	n/a	START	362085	n/a	LTP319	ltpFR2	6	n/a	n/a	n/a	4	n/a	n/a	n/a	n/a
725.204	n/a	DISTRACTOR	362602	n/a	LTP319	ltpFR2	6	3	n/a	n/a	n/a	n/a	0	0	0
725.22	n/a	PROB	362610	n/a	LTP319	ltpFR2	6	n/a	n/a	n/a	4	14	5	1	8
727.422	n/a	PROB	363711	n/a	LTP319	ltpFR2	6	n/a	n/a	n/a	4	11	3	1	7
728.956	n/a	PROB	364478	n/a	LTP319	ltpFR2	6	n/a	n/a	n/a	4	9	1	4	4
730.574	n/a	PROB	365287	n/a	LTP319	ltpFR2	6	n/a	n/a	n/a	4	10	4	3	3
732.358	n/a	PROB	366179	n/a	LTP319	ltpFR2	6	n/a	n/a	n/a	4	19	3	8	8
734.328	n/a	PROB	367164	n/a	LTP319	ltpFR2	6	n/a	n/a	n/a	4	11	4	5	2
736.096	n/a	PROB	368048	n/a	LTP319	ltpFR2	6	n/a	n/a	n/a	4	17	8	4	5
737.946	n/a	PROB	368973	n/a	LTP319	ltpFR2	6	n/a	n/a	n/a	4	10	2	3	5
739.648	n/a	PROB	369824	n/a	LTP319	ltpFR2	6	n/a	n/a	n/a	4	21	8	7	6
742.632	n/a	PROB	371316	n/a	LTP319	ltpFR2	6	n/a	n/a	n/a	4	17	7	5	5
744.134	n/a	PROB	372067	n/a	LTP319	ltpFR2	6	n/a	n/a	n/a	4	23	9	8	6
748.17	n/a	STOP	374085	n/a	LTP319	ltpFR2	6	n/a	n/a	n/a	4	n/a	n/a	n/a	n/a
749.956	n/a	REC_START	374978	n/a	LTP319	ltpFR2	6	3	n/a	n/a	n/a	n/a	0	0	0
751.714	n/a	REC_WORD	375857	wordpools/wasnorm_wordpool_576.txt	LTP319	ltpFR2	6	3	RABBIT	1152	n/a	n/a	0	0	0
752.656	n/a	REC_WORD	376328	wordpools/wasnorm_wordpool_576.txt	LTP319	ltpFR2	6	3	PIMPLE	1071	n/a	n/a	0	0	0
756.352	n/a	REC_WORD	378176	wordpools/wasnorm_wordpool_576.txt	LTP319	ltpFR2	6	3	BRIEFCASE	175	n/a	n/a	0	0	0
757.21	n/a	REC_WORD	378605	wordpools/wasnorm_wordpool_576.txt	LTP319	ltpFR2	6	3	MAILMAN	858	n/a	n/a	0	0	0
758.066	n/a	REC_WORD	379033	wordpools/wasnorm_wordpool_576.txt	LTP319	ltpFR2	6	3	MESSAGE	888	n/a	n/a	0	0	0
759.112	n/a	REC_WORD	379556	wordpools/wasnorm_wordpool_576.txt	LTP319	ltpFR2	6	3	BABY	64	n/a	n/a	0	0	0
759.768	n/a	REC_WORD	379884	wordpools/wasnorm_wordpool_576.txt	LTP319	ltpFR2	6	3	CRIB	407	n/a	n/a	0	0	0
760.856	n/a	REC_WORD	380428	wordpools/wasnorm_wordpool_576.txt	LTP319	ltpFR2	6	3	ARMY	39	n/a	n/a	0	0	0
761.598	n/a	REC_WORD	380799	wordpools/wasnorm_wordpool_576.txt	LTP319	ltpFR2	6	3	HEDGE	699	n/a	n/a	0	0	0
762.574	n/a	REC_WORD	381287	wordpools/wasnorm_wordpool_576.txt	LTP319	ltpFR2	6	3	GARDEN	623	n/a	n/a	0	0	0
766.21	n/a	REC_WORD	383105	wordpools/wasnorm_wordpool_576.txt	LTP319	ltpFR2	6	3	PALACE	1006	n/a	n/a	0	0	0
769.666	n/a	REC_WORD	384833	wordpools/wasnorm_wordpool_576.txt	LTP319	ltpFR2	6	3	HORNET	718	n/a	n/a	0	0	0
777.878	n/a	REC_WORD	388939	wordpools/wasnorm_wordpool_576.txt	LTP319	ltpFR2	6	3	THORN	1459	n/a	n/a	0	0	0
840.388	n/a	WORD	420194	wordpools/wasnorm_wordpool_576.txt	LTP319	ltpFR2	6	4	BOUQUET	157	n/a	n/a	0	0	0
842.928	n/a	WORD	421464	wordpools/wasnorm_wordpool_576.txt	LTP319	ltpFR2	6	4	MEAT	883	n/a	n/a	0	0	0
845.66	n/a	WORD	422830	wordpools/wasnorm_wordpool_576.txt	LTP319	ltpFR2	6	4	TURKEY	1520	n/a	n/a	0	0	0
848.294	n/a	WORD	424147	wordpools/wasnorm_wordpool_576.txt	LTP319	ltpFR2	6	4	FIREPLACE	570	n/a	n/a	0	0	0
850.98	n/a	WORD	425490	wordpools/wasnorm_wordpool_576.txt	LTP319	ltpFR2	6	4	MACHINE	852	n/a	n/a	0	0	0
853.782	n/a	WORD	426891	wordpools/wasnorm_wordpool_576.txt	LTP319	ltpFR2	6	4	SCISSORS	1250	n/a	n/a	0	0	0
856.502	n/a	WORD	428251	wordpools/wasnorm_wordpool_576.txt	LTP319	ltpFR2	6	4	MUFFIN	929	n/a	n/a	0	0	0
858.958	n/a	WORD	429479	wordpools/wasnorm_wordpool_576.txt	LTP319	ltpFR2	6	4	MARINE	869	n/a	n/a	0	0	0
861.724	n/a	WORD	430862	wordpools/wasnorm_wordpool_576.txt	LTP319	ltpFR2	6	4	BUNNY	198	n/a	n/a	0	0	0
864.242	n/a	WORD	432121	wordpools/wasnorm_wordpool_576.txt	LTP319	ltpFR2	6	4	GIFT	635	n/a	n/a	0	0	0
866.944	n/a	WORD	433472	wordpools/wasnorm_wordpool_576.txt	LTP319	ltpFR2	6	4	GRAPE	654	n/a	n/a	0	0	0
869.396	n/a	WORD	434698	wordpools/wasnorm_wordpool_576.txt	LTP319	ltpFR2	6	4	ICING	732	n/a	n/a	0	0	0
871.882	n/a	WORD	435941	wordpools/wasnorm_wordpool_576.txt	LTP319	ltpFR2	6	4	PASTRY	1022	n/a	n/a	0	0	0
874.368	n/a	WORD	437184	wordpools/wasnorm_wordpool_576.txt	LTP319	ltpFR2	6	4	JELLO	754	n/a	n/a	0	0	0
877.018	n/a	WORD	438509	wordpools/wasnorm_wordpool_576.txt	LTP319	ltpFR2	6	4	CHEMIST	292	n/a	n/a	0	0	0
879.772	n/a	WORD	439886	wordpools/wasnorm_wordpool_576.txt	LTP319	ltpFR2	6	4	NURSE	963	n/a	n/a	0	0	0
882.574	n/a	WORD	441287	wordpools/wasnorm_wordpool_576.txt	LTP319	ltpFR2	6	4	YOLK	1633	n/a	n/a	0	0	0
885.342	n/a	WORD	442671	wordpools/wasnorm_wordpool_576.txt	LTP319	ltpFR2	6	4	PADDLE	1000	n/a	n/a	0	0	0
887.778	n/a	WORD	443889	wordpools/wasnorm_wordpool_576.txt	LTP319	ltpFR2	6	4	ROOSTER	1209	n/a	n/a	0	0	0
890.564	n/a	WORD	445282	wordpools/wasnorm_wordpool_576.txt	LTP319	ltpFR2	6	4	WASP	1593	n/a	n/a	0	0	0
893.25	n/a	WORD	446625	wordpools/wasnorm_wordpool_576.txt	LTP319	ltpFR2	6	4	BULLET	194	n/a	n/a	0	0	0
895.82	n/a	WORD	447910	wordpools/wasnorm_wordpool_576.txt	LTP319	ltpFR2	6	4	CLOCK	325	n/a	n/a	0	0	0
898.622	n/a	WORD	449311	wordpools/wasnorm_wordpool_576.txt	LTP319	ltpFR2	6	4	YARN	1631	n/a	n/a	0	0	0
901.072	n/a	WORD	450536	wordpools/wasnorm_wordpool_576.txt	LTP319	ltpFR2	6	4	HONEY	713	n/a	n/a	0	0	0
902.692	n/a	START	451346	n/a	LTP319	ltpFR2	6	n/a	n/a	n/a	5	n/a	n/a	n/a	n/a
903.738	n/a	DISTRACTOR	451869	n/a	LTP319	ltpFR2	6	4	n/a	n/a	n/a	n/a	0	0	0
903.744	n/a	PROB	451872	n/a	LTP319	ltpFR2	6	n/a	n/a	n/a	5	10	3	4	3
905.742	n/a	PROB	452871	n/a	LTP319	ltpFR2	6	n/a	n/a	n/a	5	13	4	5	4
907.662	n/a	PROB	453831	n/a	LTP319	ltpFR2	6	n/a	n/a	n/a	5	24	6	9	9
910.514	n/a	PROB	455257	n/a	LTP319	ltpFR2	6	n/a	n/a	n/a	5	12	9	1	2
911.982	n/a	PROB	455991	n/a	LTP319	ltpFR2	6	n/a	n/a	n/a	5	9	1	5	3
913.35	n/a	PROB	456675	n/a	LTP319	ltpFR2	6	n/a	n/a	n/a	5	14	9	3	2
914.966	n/a	PROB	457483	n/a	LTP319	ltpFR2	6	n/a	n/a	n/a	5	7	4	1	2
916.318	n/a	PROB	458159	n/a	LTP319	ltpFR2	6	n/a	n/a	n/a	5	14	6	4	4
917.752	n/a	PROB	458876	n/a	LTP319	ltpFR2	6	n/a	n/a	n/a	5	13	2	6	5
919.804	n/a	PROB	459902	n/a	LTP319	ltpFR2	6	n/a	n/a	n/a	5	14	4	4	6
921.888	n/a	PROB	460944	n/a	LTP319	ltpFR2	6	n/a	n/a	n/a	5	14	4	8	2
924.508	n/a	PROB	462254	n/a	LTP319	ltpFR2	6	n/a	n/a	n/a	5	17	5	3	9
926.582	n/a	STOP	463291	n/a	LTP319	ltpFR2	6	n/a	n/a	n/a	5	n/a	n/a	n/a	n/a
928.476	n/a	REC_START	464238	n/a	LTP319	ltpFR2	6	4	n/a	n/a	n/a	n/a	0	0	0
930.556	n/a	REC_WORD	465278	wordpools/wasnorm_wordpool_576.txt	LTP319	ltpFR2	6	4	WASP	1593	n/a	n/a	0	0	0
931.734	n/a	REC_WORD	465867	wordpools/wasnorm_wordpool_576.txt	LTP319	ltpFR2	6	4	BUNNY	198	n/a	n/a	0	0	0
936.256	n/a	REC_WORD	468128	wordpools/wasnorm_wordpool_576.txt	LTP319	ltpFR2	6	4	MARINE	869	n/a	n/a	0	0	0
937.544	n/a	REC_WORD	468772	wordpools/wasnorm_wordpool_576.txt	LTP319	ltpFR2	6	4	GIFT	635	n/a	n/a	0	0	0
938.236	n/a	REC_WORD	469118	wordpools/wasnorm_wordpool_576.txt	LTP319	ltpFR2	6	4	MACHINE	852	n/a	n/a	0	0	0
939.528	n/a	REC_WORD	469764	wordpools/wasnorm_wordpool_576.txt	LTP319	ltpFR2	6	4	SCISSORS	1250	n/a	n/a	0	0	0
940.682	n/a	REC_WORD	470341	wordpools/wasnorm_wordpool_576.txt	LTP319	ltpFR2	6	4	TURKEY	1520	n/a	n/a	0	0	0
941.478	n/a	REC_WORD	470739	wordpools/wasnorm_wordpool_576.txt	LTP319	ltpFR2	6	4	MEAT	883	n/a	n/a	0	0	0
942.65	n/a	REC_WORD	471325	wordpools/wasnorm_wordpool_576.txt	LTP319	ltpFR2	6	4	BOUQUET	157	n/a	n/a	0	0	0
955.272	n/a	REC_WORD	477636	wordpools/wasnorm_wordpool_576.txt	LTP319	ltpFR2	6	4	MARINE	869	n/a	n/a	0	0	0
956.27	n/a	REC_WORD	478135	wordpools/wasnorm_wordpool_576.txt	LTP319	ltpFR2	6	4	NURSE	963	n/a	n/a	0	0	0
965.334	n/a	REC_WORD	482667	wordpools/wasnorm_wordpool_576.txt	LTP319	ltpFR2	6	4	BULLET	194	n/a	n/a	0	0	0
966.244	n/a	REC_WORD	483122	wordpools/wasnorm_wordpool_576.txt	LTP319	ltpFR2	6	4	CLOCK	325	n/a	n/a	0	0	0
1088.748	n/a	DISTRACTOR	544374	n/a	LTP319	ltpFR2	6	5	n/a	n/a	n/a	n/a	0	0	0
1088.75	n/a	START	544375	n/a	LTP319	ltpFR2	6	n/a	n/a	n/a	6	n/a	n/a	n/a	n/a
1088.764	n/a	PROB	544382	n/a	LTP319	ltpFR2	6	n/a	n/a	n/a	6	19	9	1	9
1090.616	n/a	PROB	545308	n/a	LTP319	ltpFR2	6	n/a	n/a	n/a	6	20	9	5	6
1093.408	n/a	PROB	546704	n/a	LTP319	ltpFR2	6	n/a	n/a	n/a	6	27	8	9	9
1096.104	n/a	PROB	548052	n/a	LTP319	ltpFR2	6	n/a	n/a	n/a	6	19	5	5	9
1098.808	n/a	PROB	549404	n/a	LTP319	ltpFR2	6	n/a	n/a	n/a	6	21	6	6	9
1101.81	n/a	PROB	550905	n/a	LTP319	ltpFR2	6	n/a	n/a	n/a	6	16	2	5	9
1104.078	n/a	PROB	552039	n/a	LTP319	ltpFR2	6	n/a	n/a	n/a	6	18	5	8	5
1105.696	n/a	PROB	552848	n/a	LTP319	ltpFR2	6	n/a	n/a	n/a	6	13	3	4	6
1107.33	n/a	PROB	553665	n/a	LTP319	ltpFR2	6	n/a	n/a	n/a	6	10	1	6	3
1108.834	n/a	PROB	554417	n/a	LTP319	ltpFR2	6	n/a	n/a	n/a	6	16	7	4	5
1112.748	n/a	STOP	556374	n/a	LTP319	ltpFR2	6	n/a	n/a	n/a	6	n/a	n/a	n/a	n/a
1113.72	n/a	WORD	556860	wordpools/wasnorm_wordpool_576.txt	LTP319	ltpFR2	6	5	MUMMY	932	n/a	n/a	0	0	0
1116.306	n/a	WORD	558153	wordpools/wasnorm_wordpool_576.txt	LTP319	ltpFR2	6	5	VAGRANT	1544	n/a	n/a	0	0	0
1118.874	n/a	WORD	559437	wordpools/wasnorm_wordpool_576.txt	LTP319	ltpFR2	6	5	BRANCH	168	n/a	n/a	0	0	0
1121.594	n/a	WORD	560797	wordpools/wasnorm_wordpool_576.txt	LTP319	ltpFR2	6	5	FUNGUS	614	n/a	n/a	0	0	0
1124.33	n/a	WORD	562165	wordpools/wasnorm_wordpool_576.txt	LTP319	ltpFR2	6	5	CLOTHES	327	n/a	n/a	0	0	0
1127.134	n/a	WORD	563567	wordpools/wasnorm_wordpool_576.txt	LTP319	ltpFR2	6	5	ICEBERG	731	n/a	n/a	0	0	0
1129.934	n/a	WORD	564967	wordpools/wasnorm_wordpool_576.txt	LTP319	ltpFR2	6	5	CLOUD	328	n/a	n/a	0	0	0
1132.486	n/a	WORD	566243	wordpools/wasnorm_wordpool_576.txt	LTP319	ltpFR2	6	5	VELVET	1555	n/a	n/a	0	0	0
1135.172	n/a	WORD	567586	wordpools/wasnorm_wordpool_576.txt	LTP319	ltpFR2	6	5	SILK	1307	n/a	n/a	0	0	0
1137.624	n/a	WORD	568812	wordpools/wasnorm_wordpool_576.txt	LTP319	ltpFR2	6	5	ANTLER	29	n/a	n/a	0	0	0
1140.226	n/a	WORD	570113	wordpools/wasnorm_wordpool_576.txt	LTP319	ltpFR2	6	5	TEMPLE	1448	n/a	n/a	0	0	0
1142.962	n/a	WORD	571481	wordpools/wasnorm_wordpool_576.txt	LTP319	ltpFR2	6	5	SANDWICH	1232	n/a	n/a	0	0	0
1145.696	n/a	WORD	572848	wordpools/wasnorm_wordpool_576.txt	LTP319	ltpFR2	6	5	HIKER	708	n/a	n/a	0	0	0
1148.25	n/a	WORD	574125	wordpools/wasnorm_wordpool_576.txt	LTP319	ltpFR2	6	5	RELISH	1183	n/a	n/a	0	0	0
1150.986	n/a	WORD	575493	wordpools/wasnorm_wordpool_576.txt	LTP319	ltpFR2	6	5	BADGE	68	n/a	n/a	0	0	0
1153.62	n/a	WORD	576810	wordpools/wasnorm_wordpool_576.txt	LTP319	ltpFR2	6	5	GUARD	667	n/a	n/a	0	0	0
1156.338	n/a	WORD	578169	wordpools/wasnorm_wordpool_576.txt	LTP319	ltpFR2	6	5	PASTA	1021	n/a	n/a	0	0	0
1158.992	n/a	WORD	579496	wordpools/wasnorm_wordpool_576.txt	LTP319	ltpFR2	6	5	GANGSTER	620	n/a	n/a	0	0	0
1161.56	n/a	WORD	580780	wordpools/wasnorm_wordpool_576.txt	LTP319	ltpFR2	6	5	BELLY	119	n/a	n/a	0	0	0
1164.012	n/a	WORD	582006	wordpools/wasnorm_wordpool_576.txt	LTP319	ltpFR2	6	5	ATOM	55	n/a	n/a	0	0	0
1166.73	n/a	WORD	583365	wordpools/wasnorm_wordpool_576.txt	LTP319	ltpFR2	6	5	LUMBER	848	n/a	n/a	0	0	0
1169.482	n/a	WORD	584741	wordpools/wasnorm_wordpool_576.txt	LTP319	ltpFR2	6	5	GAZELLE	628	n/a	n/a	0	0	0
1172.2	n/a	WORD	586100	wordpools/wasnorm_wordpool_576.txt	LTP319	ltpFR2	6	5	SHELF	1280	n/a	n/a	0	0	0
1174.718	n/a	WORD	587359	wordpools/wasnorm_wordpool_576.txt	LTP319	ltpFR2	6	5	BACON	67	n/a	n/a	0	0	0
1176.324	n/a	START	588162	n/a	LTP319	ltpFR2	6	n/a	n/a	n/a	7	n/a	n/a	n/a	n/a
1177.276	n/a	DISTRACTOR	588638	n/a	LTP319	ltpFR2	6	5	n/a	n/a	n/a	n/a	0	0	0
1177.288	n/a	PROB	588644	n/a	LTP319	ltpFR2	6	n/a	n/a	n/a	7	15	5	2	8
1179.772	n/a	PROB	589886	n/a	LTP319	ltpFR2	6	n/a	n/a	n/a	7	13	2	6	5
1182.224	n/a	PROB	591112	n/a	LTP319	ltpFR2	6	n/a	n/a	n/a	7	15	5	7	3
1183.742	n/a	PROB	591871	n/a	LTP319	ltpFR2	6	n/a	n/a	n/a	7	11	5	3	3
1187.53	n/a	PROB	593765	n/a	LTP319	ltpFR2	6	n/a	n/a	n/a	7	11	8	2	1
1189.164	n/a	PROB	594582	n/a	LTP319	ltpFR2	6	n/a	n/a	n/a	7	9	5	3	1
1190.516	n/a	PROB	595258	n/a	LTP319	ltpFR2	6	n/a	n/a	n/a	7	14	6	3	5
1192.234	n/a	PROB	596117	n/a	LTP319	ltpFR2	6	n/a	n/a	n/a	7	12	6	1	5
1194.37	n/a	PROB	597185	n/a	LTP319	ltpFR2	6	n/a	n/a	n/a	7	8	5	2	1
1196.286	n/a	PROB	598143	n/a	LTP319	ltpFR2	6	n/a	n/a	n/a	7	5	1	2	1
1197.62	n/a	PROB	598810	n/a	LTP319	ltpFR2	6	n/a	n/a	n/a	7	12	3	4	5
1199.73	n/a	STOP	599865	n/a	LTP319	ltpFR2	6	n/a	n/a	n/a	7	n/a	n/a	n/a	n/a
1202.092	n/a	REC_START	601046	n/a	LTP319	ltpFR2	6	5	n/a	n/a	n/a	n/a	0	0	0
1203.424	n/a	REC_WORD	601712	wordpools/wasnorm_wordpool_576.txt	LTP319	ltpFR2	6	5	VAGRANT	1544	n/a	n/a	0	0	0
1204.494	n/a	REC_WORD	602247	wordpools/wasnorm_wordpool_576.txt	LTP319	ltpFR2	6	5	SILK	1307	n/a	n/a	0	0	0
1205.36	n/a	REC_WORD	602680	wordpools/wasnorm_wordpool_576.txt	LTP319	ltpFR2	6	5	VELVET	1555	n/a	n/a	0	0	0
1206.46	n/a	REC_WORD	603230	wordpools/wasnorm_wordpool_576.txt	LTP319	ltpFR2	6	5	GANGSTER	620	n/a	n/a	0	0	0
1207.382	n/a	REC_WORD	603691	wordpools/wasnorm_wordpool_576.txt	LTP319	ltpFR2	6	5	BRANCH	168	n/a	n/a	0	0	0
1208.282	n/a	REC_WORD	604141	wordpools/wasnorm_wordpool_576.txt	LTP319	ltpFR2	6	5	FUNGUS	614	n/a	n/a	0	0	0
1209.238	n/a	REC_WORD	604619	wordpools/wasnorm_wordpool_576.txt	LTP319	ltpFR2	6	5	ICEBERG	731	n/a	n/a	0	0	0
1210.21	n/a	REC_WORD	605105	wordpools/wasnorm_wordpool_576.txt	LTP319	ltpFR2	6	5	CLOUD	328	n/a	n/a	0	0	0
1211.266	n/a	REC_WORD	605633	wordpools/wasnorm_wordpool_576.txt	LTP319	ltpFR2	6	5	MUMMY	932	n/a	n/a	0	0	0
1212.922	n/a	REC_WORD	606461	wordpools/wasnorm_wordpool_576.txt	LTP319	ltpFR2	6	5	TEMPLE	1448	n/a	n/a	0	0	0
1213.966	n/a	REC_WORD	606983	wordpools/wasnorm_wordpool_576.txt	LTP319	ltpFR2	6	5	ANTLER	29	n/a	n/a	0	0	0
1215.086	n/a	REC_WORD	607543	wordpools/wasnorm_wordpool_576.txt	LTP319	ltpFR2	6	5	ANTLER	29	n/a	n/a	0	0	0
1216.962	n/a	REC_WORD	608481	wordpools/wasnorm_wordpool_576.txt	LTP319	ltpFR2	6	5	ANTLER	29	n/a	n/a	0	0	0
1219.162	n/a	REC_WORD	609581	wordpools/wasnorm_wordpool_576.txt	LTP319	ltpFR2	6	5	GAZELLE	628	n/a	n/a	0	0	0
1220.55	n/a	REC_WORD	610275	wordpools/wasnorm_wordpool_576.txt	LTP319	ltpFR2	6	5	HIKER	708	n/a	n/a	0	0	0
1221.372	n/a	REC_WORD	610686	wordpools/wasnorm_wordpool_576.txt	LTP319	ltpFR2	6	5	SANDWICH	1232	n/a	n/a	0	0	0
1222.372	n/a	REC_WORD_VV	611186	wordpools/wasnorm_wordpool_576.txt	LTP319	ltpFR2	6	5	<>	-1	n/a	n/a	0	0	0
1222.972	n/a	REC_WORD	611486	wordpools/wasnorm_wordpool_576.txt	LTP319	ltpFR2	6	5	RELISH	1183	n/a	n/a	0	0	0
1224.634	n/a	REC_WORD	612317	wordpools/wasnorm_wordpool_576.txt	LTP319	ltpFR2	6	5	PASTA	1021	n/a	n/a	0	0	0
1225.678	n/a	REC_WORD	612839	wordpools/wasnorm_wordpool_576.txt	LTP319	ltpFR2	6	5	BADGE	68	n/a	n/a	0	0	0
1226.696	n/a	REC_WORD	613348	wordpools/wasnorm_wordpool_576.txt	LTP319	ltpFR2	6	5	GUARD	667	n/a	n/a	0	0	0
1250.456	n/a	REC_WORD	625228	wordpools/wasnorm_wordpool_576.txt	LTP319	ltpFR2	6	5	VAGRANT	1544	n/a	n/a	0	0	0
1265.56	n/a	REC_WORD	632780	wordpools/wasnorm_wordpool_576.txt	LTP319	ltpFR2	6	5	SHELF	1280	n/a	n/a	0	0	0
1292.526	n/a	WORD	646263	wordpools/wasnorm_wordpool_576.txt	LTP319	ltpFR2	6	6	STREAM	1392	n/a	n/a	0	0	0
1294.974	n/a	WORD	647487	wordpools/wasnorm_wordpool_576.txt	LTP319	ltpFR2	6	6	PARTNER	1017	n/a	n/a	0	0	0
1297.526	n/a	WORD	648763	wordpools/wasnorm_wordpool_576.txt	LTP319	ltpFR2	6	6	SLIDE	1326	n/a	n/a	0	0	0
1300.012	n/a	WORD	650006	wordpools/wasnorm_wordpool_576.txt	LTP319	ltpFR2	6	6	PRINCE	1124	n/a	n/a	0	0	0
1302.664	n/a	WORD	651332	wordpools/wasnorm_wordpool_576.txt	LTP319	ltpFR2	6	6	CURTAIN	427	n/a	n/a	0	0	0
1305.316	n/a	WORD	652658	wordpools/wasnorm_wordpool_576.txt	LTP319	ltpFR2	6	6	GALLON	618	n/a	n/a	0	0	0
1308.084	n/a	WORD	654042	wordpools/wasnorm_wordpool_576.txt	LTP319	ltpFR2	6	6	OYSTER	995	n/a	n/a	0	0	0
1310.604	n/a	WORD	655302	wordpools/wasnorm_wordpool_576.txt	LTP319	ltpFR2	6	6	LAVA	804	n/a	n/a	0	0	0
1313.344	n/a	WORD	656672	wordpools/wasnorm_wordpool_576.txt	LTP319	ltpFR2	6	6	BURGLAR	200	n/a	n/a	0	0	0
1315.974	n/a	WORD	657987	wordpools/wasnorm_wordpool_576.txt	LTP319	ltpFR2	6	6	SUSPECT	1415	n/a	n/a	0	0	0
1318.444	n/a	WORD	659222	wordpools/wasnorm_wordpool_576.txt	LTP319	ltpFR2	6	6	JUGGLER	763	n/a	n/a	0	0	0
1321.034	n/a	WORD	660517	wordpools/wasnorm_wordpool_576.txt	LTP319	ltpFR2	6	6	STAMP	1370	n/a	n/a	0	0	0
1323.686	n/a	WORD	661843	wordpools/wasnorm_wordpool_576.txt	LTP319	ltpFR2	6	6	PORTRAIT	1111	n/a	n/a	0	0	0
1326.234	n/a	WORD	663117	wordpools/wasnorm_wordpool_576.txt	LTP319	ltpFR2	6	6	TOURIST	1488	n/a	n/a	0	0	0
1328.89	n/a	WORD	664445	wordpools/wasnorm_wordpool_576.txt	LTP319	ltpFR2	6	6	GOBLIN	645	n/a	n/a	0	0	0
1331.69	n/a	WORD	665845	wordpools/wasnorm_wordpool_576.txt	LTP319	ltpFR2	6	6	TABLE	1426	n/a	n/a	0	0	0
1334.408	n/a	WORD	667204	wordpools/wasnorm_wordpool_576.txt	LTP319	ltpFR2	6	6	PRINCESS	1125	n/a	n/a	0	0	0
1337.21	n/a	WORD	668605	wordpools/wasnorm_wordpool_576.txt	LTP319	ltpFR2	6	6	KNIFE	785	n/a	n/a	0	0	0
1339.712	n/a	WORD	669856	wordpools/wasnorm_wordpool_576.txt	LTP319	ltpFR2	6	6	WINDOW	1611	n/a	n/a	0	0	0
1342.266	n/a	WORD	671133	wordpools/wasnorm_wordpool_576.txt	LTP319	ltpFR2	6	6	LAMP	798	n/a	n/a	0	0	0
1344.732	n/a	WORD	672366	wordpools/wasnorm_wordpool_576.txt	LTP319	ltpFR2	6	6	FLASHLIGHT	575	n/a	n/a	0	0	0
1347.352	n/a	WORD	673676	wordpools/wasnorm_wordpool_576.txt	LTP319	ltpFR2	6	6	PERCH	1048	n/a	n/a	0	0	0
1349.89	n/a	WORD	674945	wordpools/wasnorm_wordpool_576.txt	LTP319	ltpFR2	6	6	POISON	1096	n/a	n/a	0	0	0
1352.372	n/a	WORD	676186	wordpools/wasnorm_wordpool_576.txt	LTP319	ltpFR2	6	6	SWAMP	1416	n/a	n/a	0	0	0
1353.976	n/a	START	676988	n/a	LTP319	ltpFR2	6	n/a	n/a	n/a	8	n/a	n/a	n/a	n/a
1355.102	n/a	DISTRACTOR	677551	n/a	LTP319	ltpFR2	6	6	n/a	n/a	n/a	n/a	0	0	0
1355.108	n/a	PROB	677554	n/a	LTP319	ltpFR2	6	n/a	n/a	n/a	8	11	1	4	6
1356.86	n/a	PROB	678430	n/a	LTP319	ltpFR2	6	n/a	n/a	n/a	8	17	7	1	8
1358.646	n/a	PROB	679323	n/a	LTP319	ltpFR2	6	n/a	n/a	n/a	8	14	4	2	8
1362.848	n/a	PROB	681424	n/a	LTP319	ltpFR2	6	n/a	n/a	n/a	8	14	1	7	6
1365.25	n/a	PROB	682625	n/a	LTP319	ltpFR2	6	n/a	n/a	n/a	8	21	9	8	4
1368.152	n/a	PROB	684076	n/a	LTP319	ltpFR2	6	n/a	n/a	n/a	8	18	6	9	3
1372.04	n/a	PROB	686020	n/a	LTP319	ltpFR2	6	n/a	n/a	n/a	8	17	4	9	4
1374.09	n/a	PROB	687045	n/a	LTP319	ltpFR2	6	n/a	n/a	n/a	8	17	8	5	4
1377.976	n/a	STOP	688988	n/a	LTP319	ltpFR2	6	n/a	n/a	n/a	8	n/a	n/a	n/a	n/a
1379.932	n/a	REC_START	689966	n/a	LTP319	ltpFR2	6	6	n/a	n/a	n/a	n/a	0	0	0
1383.068	n/a	REC_WORD	691534	wordpools/wasnorm_wordpool_576.txt	LTP319	ltpFR2	6	6	STREAM	1392	n/a	n/a	0	0	0
1385.036	n/a	REC_WORD	692518	wordpools/wasnorm_wordpool_576.txt	LTP319	ltpFR2	6	6	SWAMP	1416	n/a	n/a	0	0	0
1386.258	n/a	REC_WORD	693129	wordpools/wasnorm_wordpool_576.txt	LTP319	ltpFR2	6	6	PRINCE	1124	n/a	n/a	0	0	0
1387.094	n/a	REC_WORD	693547	wordpools/wasnorm_wordpool_576.txt	LTP319	ltpFR2	6	6	PRINCESS	1125	n/a	n/a	0	0	0
1388.154	n/a	REC_WORD	694077	wordpools/wasnorm_wordpool_576.txt	LTP319	ltpFR2	6	6	PARTNER	1017	n/a	n/a	0	0	0
1390.226	n/a	REC_WORD	695113	wordpools/wasnorm_wordpool_576.txt	LTP319	ltpFR2	6	6	SLIDE	1326	n/a	n/a	0	0	0
1391.464	n/a	REC_WORD	695732	wordpools/wasnorm_wordpool_576.txt	LTP319	ltpFR2	6	6	CURTAIN	427	n/a	n/a	0	0	0
1392.616	n/a	REC_WORD	696308	wordpools/wasnorm_wordpool_576.txt	LTP319	ltpFR2	6	6	GALLON	618	n/a	n/a	0	0	0
1393.746	n/a	REC_WORD	696873	wordpools/wasnorm_wordpool_576.txt	LTP319	ltpFR2	6	6	OYSTER	995	n/a	n/a	0	0	0
1394.68	n/a	REC_WORD	697340	wordpools/wasnorm_wordpool_576.txt	LTP319	ltpFR2	6	6	LAVA	804	n/a	n/a	0	0	0
1395.864	n/a	REC_WORD	697932	wordpools/wasnorm_wordpool_576.txt	LTP319	ltpFR2	6	6	BURGLAR	200	n/a	n/a	0	0	0
1396.83	n/a	REC_WORD	698415	wordpools/wasnorm_wordpool_576.txt	LTP319	ltpFR2	6	6	SUSPECT	1415	n/a	n/a	0	0	0
1398.158	n/a	REC_WORD	699079	wordpools/wasnorm_wordpool_576.txt	LTP319	ltpFR2	6	6	JUGGLER	763	n/a	n/a	0	0	0
1399.628	n/a	REC_WORD	699814	wordpools/wasnorm_wordpool_576.txt	LTP319	ltpFR2	6	6	KNIFE	785	n/a	n/a	0	0	0
1400.518	n/a	REC_WORD	700259	wordpools/wasnorm_wordpool_576.txt	LTP319	ltpFR2	6	6	WINDOW	1611	n/a	n/a	0	0	0
1401.508	n/a	REC_WORD	700754	wordpools/wasnorm_wordpool_576.txt	LTP319	ltpFR2	6	6	LAMP	798	n/a	n/a	0	0	0
1403.206	n/a	REC_WORD	701603	wordpools/wasnorm_wordpool_576.txt	LTP319	ltpFR2	6	6	POISON	1096	n/a	n/a	0	0	0
1405.918	n/a	REC_WORD	702959	wordpools/wasnorm_wordpool_576.txt	LTP319	ltpFR2	6	6	PERCH	1048	n/a	n/a	0	0	0
1421.666	n/a	REC_WORD	710833	wordpools/wasnorm_wordpool_576.txt	LTP319	ltpFR2	6	6	GALLON	618	n/a	n/a	0	0	0
1429.434	n/a	REC_WORD	714717	wordpools/wasnorm_wordpool_576.txt	LTP319	ltpFR2	6	6	PARTNER	1017	n/a	n/a	0	0	0
1470.35	n/a	DISTRACTOR	735175	n/a	LTP319	ltpFR2	6	7	n/a	n/a	n/a	n/a	0	0	0
1470.35	n/a	START	735175	n/a	LTP319	ltpFR2	6	n/a	n/a	n/a	9	n/a	n/a	n/a	n/a
1470.364	n/a	PROB	735182	n/a	LTP319	ltpFR2	6	n/a	n/a	n/a	9	19	7	3	9
1471.85	n/a	PROB	735925	n/a	LTP319	ltpFR2	6	n/a	n/a	n/a	9	13	3	1	9
1473.652	n/a	PROB	736826	n/a	LTP319	ltpFR2	6	n/a	n/a	n/a	9	18	1	8	9
1475.186	n/a	PROB	737593	n/a	LTP319	ltpFR2	6	n/a	n/a	n/a	9	14	8	2	4
1476.538	n/a	PROB	738269	n/a	LTP319	ltpFR2	6	n/a	n/a	n/a	9	9	2	1	6
1477.806	n/a	PROB	738903	n/a	LTP319	ltpFR2	6	n/a	n/a	n/a	9	19	4	6	9
1479.856	n/a	PROB	739928	n/a	LTP319	ltpFR2	6	n/a	n/a	n/a	9	6	1	4	1
1481.224	n/a	PROB	740612	n/a	LTP319	ltpFR2	6	n/a	n/a	n/a	9	12	4	4	5
1483.928	n/a	PROB	741964	n/a	LTP319	ltpFR2	6	n/a	n/a	n/a	9	21	7	5	9
1487.278	n/a	PROB	743639	n/a	LTP319	ltpFR2	6	n/a	n/a	n/a	9	19	6	8	5
1490.098	n/a	PROB	745049	n/a	LTP319	ltpFR2	6	n/a	n/a	n/a	9	11	7	3	1
1491.498	n/a	PROB	745749	n/a	LTP319	ltpFR2	6	n/a	n/a	n/a	9	21	5	8	8
1493.688	n/a	STOP	746844	n/a	LTP319	ltpFR2	6	n/a	n/a	n/a	9	n/a	n/a	n/a	n/a
1495.178	n/a	WORD	747589	wordpools/wasnorm_wordpool_576.txt	LTP319	ltpFR2	6	7	WASHER	1592	n/a	n/a	0	0	0
1497.896	n/a	WORD	748948	wordpools/wasnorm_wordpool_576.txt	LTP319	ltpFR2	6	7	NEUTRON	947	n/a	n/a	0	0	0
1500.44	n/a	WORD	750220	wordpools/wasnorm_wordpool_576.txt	LTP319	ltpFR2	6	7	GROUND	666	n/a	n/a	0	0	0
1503.134	n/a	WORD	751567	wordpools/wasnorm_wordpool_576.txt	LTP319	ltpFR2	6	7	TREAT	1501	n/a	n/a	0	0	0
1505.644	n/a	WORD	752822	wordpools/wasnorm_wordpool_576.txt	LTP319	ltpFR2	6	7	STONE	1385	n/a	n/a	0	0	0
1508.422	n/a	WORD	754211	wordpools/wasnorm_wordpool_576.txt	LTP319	ltpFR2	6	7	PEANUT	1032	n/a	n/a	0	0	0
1511.042	n/a	WORD	755521	wordpools/wasnorm_wordpool_576.txt	LTP319	ltpFR2	6	7	BANQUET	86	n/a	n/a	0	0	0
1513.65	n/a	WORD	756825	wordpools/wasnorm_wordpool_576.txt	LTP319	ltpFR2	6	7	LETTUCE	814	n/a	n/a	0	0	0
1516.328	n/a	WORD	758164	wordpools/wasnorm_wordpool_576.txt	LTP319	ltpFR2	6	7	TYPIST	1532	n/a	n/a	0	0	0
1519.096	n/a	WORD	759548	wordpools/wasnorm_wordpool_576.txt	LTP319	ltpFR2	6	7	GLOVE	642	n/a	n/a	0	0	0
1521.672	n/a	WORD	760836	wordpools/wasnorm_wordpool_576.txt	LTP319	ltpFR2	6	7	FINGER	567	n/a	n/a	0	0	0
1524.118	n/a	WORD	762059	wordpools/wasnorm_wordpool_576.txt	LTP319	ltpFR2	6	7	SWITCH	1422	n/a	n/a	0	0	0
1526.738	n/a	WORD	763369	wordpools/wasnorm_wordpool_576.txt	LTP319	ltpFR2	6	7	AUTHOR	61	n/a	n/a	0	0	0
1529.34	n/a	WORD	764670	wordpools/wasnorm_wordpool_576.txt	LTP319	ltpFR2	6	7	COWBOY	395	n/a	n/a	0	0	0
1532.058	n/a	WORD	766029	wordpools/wasnorm_wordpool_576.txt	LTP319	ltpFR2	6	7	TRENCH	1503	n/a	n/a	0	0	0
1534.818	n/a	WORD	767409	wordpools/wasnorm_wordpool_576.txt	LTP319	ltpFR2	6	7	LAPEL	800	n/a	n/a	0	0	0
1537.552	n/a	WORD	768776	wordpools/wasnorm_wordpool_576.txt	LTP319	ltpFR2	6	7	TWIG	1527	n/a	n/a	0	0	0
1540.348	n/a	WORD	770174	wordpools/wasnorm_wordpool_576.txt	LTP319	ltpFR2	6	7	CRAYON	401	n/a	n/a	0	0	0
1542.84	n/a	WORD	771420	wordpools/wasnorm_wordpool_576.txt	LTP319	ltpFR2	6	7	LIVER	833	n/a	n/a	0	0	0
1545.27	n/a	WORD	772635	wordpools/wasnorm_wordpool_576.txt	LTP319	ltpFR2	6	7	VALVE	1546	n/a	n/a	0	0	0
1547.688	n/a	WORD	773844	wordpools/wasnorm_wordpool_576.txt	LTP319	ltpFR2	6	7	CANDY	230	n/a	n/a	0	0	0
1550.374	n/a	WORD	775187	wordpools/wasnorm_wordpool_576.txt	LTP319	ltpFR2	6	7	BLOCKADE	137	n/a	n/a	0	0	0
1553.028	n/a	WORD	776514	wordpools/wasnorm_wordpool_576.txt	LTP319	ltpFR2	6	7	BODY	145	n/a	n/a	0	0	0
1555.71	n/a	WORD	777855	wordpools/wasnorm_wordpool_576.txt	LTP319	ltpFR2	6	7	COMET	353	n/a	n/a	0	0	0
1557.318	n/a	START	778659	n/a	LTP319	ltpFR2	6	n/a	n/a	n/a	10	n/a	n/a	n/a	n/a
1558.248	n/a	DISTRACTOR	779124	n/a	LTP319	ltpFR2	6	7	n/a	n/a	n/a	n/a	0	0	0
1558.264	n/a	PROB	779132	n/a	LTP319	ltpFR2	6	n/a	n/a	n/a	10	11	3	2	6
1561.22	n/a	PROB	780610	n/a	LTP319	ltpFR2	6	n/a	n/a	n/a	10	12	2	7	3
1562.654	n/a	PROB	781327	n/a	LTP319	ltpFR2	6	n/a	n/a	n/a	10	20	6	5	9
1565.44	n/a	PROB	782720	n/a	LTP319	ltpFR2	6	n/a	n/a	n/a	10	14	9	1	4
1566.876	n/a	PROB	783438	n/a	LTP319	ltpFR2	6	n/a	n/a	n/a	10	6	2	2	2
1568.86	n/a	PROB	784430	n/a	LTP319	ltpFR2	6	n/a	n/a	n/a	10	16	2	5	9
1570.794	n/a	PROB	785397	n/a	LTP319	ltpFR2	6	n/a	n/a	n/a	10	14	5	4	5
1572.442	n/a	PROB	786221	n/a	LTP319	ltpFR2	6	n/a	n/a	n/a	10	8	2	3	3
1574.064	n/a	PROB	787032	n/a	LTP319	ltpFR2	6	n/a	n/a	n/a	10	11	3	3	4
1581.318	n/a	STOP	790659	n/a	LTP319	ltpFR2	6	n/a	n/a	n/a	10	n/a	n/a	n/a	n/a
1583.152	n/a	REC_START	791576	n/a	LTP319	ltpFR2	6	7	n/a	n/a	n/a	n/a	0	0	0
1585.154	n/a	REC_WORD	792577	wordpools/wasnorm_wordpool_576.txt	LTP319	ltpFR2	6	7	BANQUET	86	n/a	n/a	0	0	0
1586.46	n/a	REC_WORD	793230	wordpools/wasnorm_wordpool_576.txt	LTP319	ltpFR2	6	7	TYPIST	1532	n/a	n/a	0	0	0
1587.924	n/a	REC_WORD	793962	wordpools/wasnorm_wordpool_576.txt	LTP319	ltpFR2	6	7	FINGER	567	n/a	n/a	0	0	0
1588.836	n/a	REC_WORD	794418	wordpools/wasnorm_wordpool_576.txt	LTP319	ltpFR2	6	7	SWITCH	1422	n/a	n/a	0	0	0
1590.214	n/a	REC_WORD	795107	wordpools/wasnorm_wordpool_576.txt	LTP319	ltpFR2	6	7	GROUND	666	n/a	n/a	0	0	0
1590.886	n/a	REC_WORD	795443	wordpools/wasnorm_wordpool_576.txt	LTP319	ltpFR2	6	7	STONE	1385	n/a	n/a	0	0	0
1591.846	n/a	REC_WORD	795923	wordpools/wasnorm_wordpool_576.txt	LTP319	ltpFR2	6	7	PEANUT	1032	n/a	n/a	0	0	0
1592.836	n/a	REC_WORD	796418	wordpools/wasnorm_wordpool_576.txt	LTP319	ltpFR2	6	7	TWIG	1527	n/a	n/a	0	0	0
1593.836	n/a	REC_WORD	796918	wordpools/wasnorm_wordpool_576.txt	LTP319	ltpFR2	6	7	COWBOY	395	n/a	n/a	0	0	0
1594.846	n/a	REC_WORD	797423	wordpools/wasnorm_wordpool_576.txt	LTP319	ltpFR2	6	7	TRENCH	1503	n/a	n/a	0	0	0
1595.774	n/a	REC_WORD	797887	wordpools/wasnorm_wordpool_576.txt	LTP319	ltpFR2	6	7	LAPEL	800	n/a	n/a	0	0	0
1604.832	n/a	REC_WORD	802416	wordpools/wasnorm_wordpool_576.txt	LTP319	ltpFR2	6	7	AUTHOR	61	n/a	n/a	0	0	0
1605.686	n/a	REC_WORD	802843	wordpools/wasnorm_wordpool_576.txt	LTP319	ltpFR2	6	7	CRAYON	401	n/a	n/a	0	0	0
1673.59	n/a	WORD	836795	wordpools/wasnorm_wordpool_576.txt	LTP319	ltpFR2	6	8	DUST	508	n/a	n/a	0	0	0
1676.326	n/a	WORD	838163	wordpools/wasnorm_wordpool_576.txt	LTP319	ltpFR2	6	8	OUTLAW	989	n/a	n/a	0	0	0
1678.746	n/a	WORD	839373	wordpools/wasnorm_wordpool_576.txt	LTP319	ltpFR2	6	8	ROBBER	1197	n/a	n/a	0	0	0
1681.368	n/a	WORD	840684	wordpools/wasnorm_wordpool_576.txt	LTP319	ltpFR2	6	8	MAILBOX	857	n/a	n/a	0	0	0
1684.166	n/a	WORD	842083	wordpools/wasnorm_wordpool_576.txt	LTP319	ltpFR2	6	8	QUAIL	1147	n/a	n/a	0	0	0
1686.768	n/a	WORD	843384	wordpools/wasnorm_wordpool_576.txt	LTP319	ltpFR2	6	8	SCARECROW	1245	n/a	n/a	0	0	0
1689.286	n/a	WORD	844643	wordpools/wasnorm_wordpool_576.txt	LTP319	ltpFR2	6	8	FIREMAN	569	n/a	n/a	0	0	0
1691.906	n/a	WORD	845953	wordpools/wasnorm_wordpool_576.txt	LTP319	ltpFR2	6	8	WAGON	1578	n/a	n/a	0	0	0
1694.346	n/a	WORD	847173	wordpools/wasnorm_wordpool_576.txt	LTP319	ltpFR2	6	8	FRAGRANCE	599	n/a	n/a	0	0	0
1696.96	n/a	WORD	848480	wordpools/wasnorm_wordpool_576.txt	LTP319	ltpFR2	6	8	HAMPER	682	n/a	n/a	0	0	0
1699.716	n/a	WORD	849858	wordpools/wasnorm_wordpool_576.txt	LTP319	ltpFR2	6	8	MATCH	878	n/a	n/a	0	0	0
1702.414	n/a	WORD	851207	wordpools/wasnorm_wordpool_576.txt	LTP319	ltpFR2	6	8	BRANDY	169	n/a	n/a	0	0	0
1704.9	n/a	WORD	852450	wordpools/wasnorm_wordpool_576.txt	LTP319	ltpFR2	6	8	DRESS	495	n/a	n/a	0	0	0
1707.384	n/a	WORD	853692	wordpools/wasnorm_wordpool_576.txt	LTP319	ltpFR2	6	8	SCRIBBLE	1256	n/a	n/a	0	0	0
1709.936	n/a	WORD	854968	wordpools/wasnorm_wordpool_576.txt	LTP319	ltpFR2	6	8	DORM	488	n/a	n/a	0	0	0
1712.756	n/a	WORD	856378	wordpools/wasnorm_wordpool_576.txt	LTP319	ltpFR2	6	8	COCKTAIL	338	n/a	n/a	0	0	0
1715.23	n/a	WORD	857615	wordpools/wasnorm_wordpool_576.txt	LTP319	ltpFR2	6	8	FOOT	590	n/a	n/a	0	0	0
1717.726	n/a	WORD	858863	wordpools/wasnorm_wordpool_576.txt	LTP319	ltpFR2	6	8	COUNTRY	388	n/a	n/a	0	0	0
1720.378	n/a	WORD	860189	wordpools/wasnorm_wordpool_576.txt	LTP319	ltpFR2	6	8	COUNTY	389	n/a	n/a	0	0	0
1723.164	n/a	WORD	861582	wordpools/wasnorm_wordpool_576.txt	LTP319	ltpFR2	6	8	SPIDER	1351	n/a	n/a	0	0	0
1725.706	n/a	WORD	862853	wordpools/wasnorm_wordpool_576.txt	LTP319	ltpFR2	6	8	OFFICE	972	n/a	n/a	0	0	0
1728.416	n/a	WORD	864208	wordpools/wasnorm_wordpool_576.txt	LTP319	ltpFR2	6	8	SEAL	1262	n/a	n/a	0	0	0
1731.044	n/a	WORD	865522	wordpools/wasnorm_wordpool_576.txt	LTP319	ltpFR2	6	8	CATTLE	261	n/a	n/a	0	0	0
1733.588	n/a	WORD	866794	wordpools/wasnorm_wordpool_576.txt	LTP319	ltpFR2	6	8	ONION	977	n/a	n/a	0	0	0
1735.198	n/a	START	867599	n/a	LTP319	ltpFR2	6	n/a	n/a	n/a	11	n/a	n/a	n/a	n/a
1736.39	n/a	DISTRACTOR	868195	n/a	LTP319	ltpFR2	6	8	n/a	n/a	n/a	n/a	0	0	0
1736.398	n/a	PROB	868199	n/a	LTP319	ltpFR2	6	n/a	n/a	n/a	11	14	1	5	8
1738.242	n/a	PROB	869121	n/a	LTP319	ltpFR2	6	n/a	n/a	n/a	11	15	5	8	7
1742.928	n/a	PROB	871464	n/a	LTP319	ltpFR2	6	n/a	n/a	n/a	11	1	5	4	7
1745.114	n/a	PROB	872557	n/a	LTP319	ltpFR2	6	n/a	n/a	n/a	11	8	2	1	5
1748.482	n/a	PROB	874241	n/a	LTP319	ltpFR2	6	n/a	n/a	n/a	11	16	9	4	3
1750.618	n/a	PROB	875309	n/a	LTP319	ltpFR2	6	n/a	n/a	n/a	11	19	9	6	4
1752.32	n/a	PROB	876160	n/a	LTP319	ltpFR2	6	n/a	n/a	n/a	11	22	9	9	4
1754.236	n/a	PROB	877118	n/a	LTP319	ltpFR2	6	n/a	n/a	n/a	11	12	5	4	3
1756.038	n/a	PROB	878019	n/a	LTP319	ltpFR2	6	n/a	n/a	n/a	11	10	1	5	4
1757.892	n/a	STOP	878946	n/a	LTP319	ltpFR2	6	n/a	n/a	n/a	11	n/a	n/a	n/a	n/a
1761.028	n/a	REC_START	880514	n/a	LTP319	ltpFR2	6	8	n/a	n/a	n/a	n/a	0	0	0
1762.188	n/a	REC_WORD	881094	wordpools/wasnorm_wordpool_576.txt	LTP319	ltpFR2	6	8	DUST	508	n/a	n/a	0	0	0
1762.914	n/a	REC_WORD	881457	wordpools/wasnorm_wordpool_576.txt	LTP319	ltpFR2	6	8	MAILBOX	857	n/a	n/a	0	0	0
1763.914	n/a	REC_WORD_VV	881957	wordpools/wasnorm_wordpool_576.txt	LTP319	ltpFR2	6	8	<>	-1	n/a	n/a	0	0	0
1764.186	n/a	REC_WORD	882093	wordpools/wasnorm_wordpool_576.txt	LTP319	ltpFR2	6	8	OUTLAW	989	n/a	n/a	0	0	0
1764.98	n/a	REC_WORD	882490	wordpools/wasnorm_wordpool_576.txt	LTP319	ltpFR2	6	8	ROBBER	1197	n/a	n/a	0	0	0
1766.196	n/a	REC_WORD	883098	wordpools/wasnorm_wordpool_576.txt	LTP319	ltpFR2	6	8	COUNTRY	388	n/a	n/a	0	0	0
1767.026	n/a	REC_WORD	883513	wordpools/wasnorm_wordpool_576.txt	LTP319	ltpFR2	6	8	COUNTY	389	n/a	n/a	0	0	0
1768.214	n/a	REC_WORD	884107	wordpools/wasnorm_wordpool_576.txt	LTP319	ltpFR2	6	8	FIREMAN	569	n/a	n/a	0	0	0
1769.198	n/a	REC_WORD	884599	wordpools/wasnorm_wordpool_576.txt	LTP319	ltpFR2	6	8	WAGON	1578	n/a	n/a	0	0	0
1769.854	n/a	REC_WORD	884927	wordpools/wasnorm_wordpool_576.txt	LTP319	ltpFR2	6	8	HAMPER	682	n/a	n/a	0	0	0
1771.414	n/a	REC_WORD	885707	wordpools/wasnorm_wordpool_576.txt	LTP319	ltpFR2	6	8	MATCH	878	n/a	n/a	0	0	0
1772.516	n/a	REC_WORD	886258	wordpools/wasnorm_wordpool_576.txt	LTP319	ltpFR2	6	8	SCRIBBLE	1256	n/a	n/a	0	0	0
1773.414	n/a	REC_WORD	886707	wordpools/wasnorm_wordpool_576.txt	LTP319	ltpFR2	6	8	FRAGRANCE	599	n/a	n/a	0	0	0
1774.528	n/a	REC_WORD	887264	wordpools/wasnorm_wordpool_576.txt	LTP319	ltpFR2	6	8	BRANDY	169	n/a	n/a	0	0	0
1785.978	n/a	REC_WORD	892989	wordpools/wasnorm_wordpool_576.txt	LTP319	ltpFR2	6	8	FOOT	590	n/a	n/a	0	0	0
1786.832	n/a	REC_WORD	893416	wordpools/wasnorm_wordpool_576.txt	LTP319	ltpFR2	6	8	COCKTAIL	338	n/a	n/a	0	0	0
1787.69	n/a	REC_WORD	893845	wordpools/wasnorm_wordpool_576.txt	LTP319	ltpFR2	6	8	SPIDER	1351	n/a	n/a	0	0	0
1796.212	n/a	REC_WORD	898106	wordpools/wasnorm_wordpool_576.txt	LTP319	ltpFR2	6	8	DRESS	495	n/a	n/a	0	0	0
1811.456	n/a	REC_WORD	905728	wordpools/wasnorm_wordpool_576.txt	LTP319	ltpFR2	6	8	DORM	488	n/a	n/a	0	0	0
1837.568	n/a	REST_REWET	918784	n/a	LTP319	ltpFR2	6	8	n/a	n/a	n/a	n/a	0	0	0
2169.028	n/a	DISTRACTOR	1084514	n/a	LTP319	ltpFR2	6	9	n/a	n/a	n/a	n/a	0	0	0
2169.028	n/a	START	1084514	n/a	LTP319	ltpFR2	6	n/a	n/a	n/a	12	n/a	n/a	n/a	n/a
2169.044	n/a	PROB	1084522	n/a	LTP319	ltpFR2	6	n/a	n/a	n/a	12	14	4	9	1
2170.546	n/a	PROB	1085273	n/a	LTP319	ltpFR2	6	n/a	n/a	n/a	12	9	1	3	5
2172.08	n/a	PROB	1086040	n/a	LTP319	ltpFR2	6	n/a	n/a	n/a	12	14	4	7	3
2174.03	n/a	PROB	1087015	n/a	LTP319	ltpFR2	6	n/a	n/a	n/a	12	10	4	4	2
2176.732	n/a	PROB	1088366	n/a	LTP319	ltpFR2	6	n/a	n/a	n/a	12	15	9	3	3
2178.452	n/a	PROB	1089226	n/a	LTP319	ltpFR2	6	n/a	n/a	n/a	12	20	4	9	7
2180.968	n/a	PROB	1090484	n/a	LTP319	ltpFR2	6	n/a	n/a	n/a	12	14	5	6	3
2183.722	n/a	PROB	1091861	n/a	LTP319	ltpFR2	6	n/a	n/a	n/a	12	18	7	3	8
2185.44	n/a	PROB	1092720	n/a	LTP319	ltpFR2	6	n/a	n/a	n/a	12	15	2	5	8
2187.424	n/a	PROB	1093712	n/a	LTP319	ltpFR2	6	n/a	n/a	n/a	12	10	4	5	1
2189.426	n/a	PROB	1094713	n/a	LTP319	ltpFR2	6	n/a	n/a	n/a	12	12	5	2	5
2191.344	n/a	PROB	1095672	n/a	LTP319	ltpFR2	6	n/a	n/a	n/a	12	13	5	5	3
2192.812	n/a	STOP	1096406	n/a	LTP319	ltpFR2	6	n/a	n/a	n/a	12	n/a	n/a	n/a	n/a
2193.914	n/a	WORD	1096957	wordpools/wasnorm_wordpool_576.txt	LTP319	ltpFR2	6	9	NOTEBOOK	959	n/a	n/a	0	0	0
2196.582	n/a	WORD	1098291	wordpools/wasnorm_wordpool_576.txt	LTP319	ltpFR2	6	9	PIZZA	1079	n/a	n/a	0	0	0
2199.108	n/a	WORD	1099554	wordpools/wasnorm_wordpool_576.txt	LTP319	ltpFR2	6	9	SNACK	1331	n/a	n/a	0	0	0
2201.676	n/a	WORD	1100838	wordpools/wasnorm_wordpool_576.txt	LTP319	ltpFR2	6	9	EGYPT	519	n/a	n/a	0	0	0
2204.272	n/a	WORD	1102136	wordpools/wasnorm_wordpool_576.txt	LTP319	ltpFR2	6	9	PILOT	1070	n/a	n/a	0	0	0
2207.074	n/a	WORD	1103537	wordpools/wasnorm_wordpool_576.txt	LTP319	ltpFR2	6	9	THREAD	1460	n/a	n/a	0	0	0
2209.666	n/a	WORD	1104833	wordpools/wasnorm_wordpool_576.txt	LTP319	ltpFR2	6	9	SPOOL	1356	n/a	n/a	0	0	0
2212.478	n/a	WORD	1106239	wordpools/wasnorm_wordpool_576.txt	LTP319	ltpFR2	6	9	GLOBE	641	n/a	n/a	0	0	0
2215.214	n/a	WORD	1107607	wordpools/wasnorm_wordpool_576.txt	LTP319	ltpFR2	6	9	TEACHER	1440	n/a	n/a	0	0	0
2217.95	n/a	WORD	1108975	wordpools/wasnorm_wordpool_576.txt	LTP319	ltpFR2	6	9	SCULPTURE	1258	n/a	n/a	0	0	0
2220.534	n/a	WORD	1110267	wordpools/wasnorm_wordpool_576.txt	LTP319	ltpFR2	6	9	SMOG	1330	n/a	n/a	0	0	0
2223.194	n/a	WORD	1111597	wordpools/wasnorm_wordpool_576.txt	LTP319	ltpFR2	6	9	CAFE	216	n/a	n/a	0	0	0
2225.78	n/a	WORD	1112890	wordpools/wasnorm_wordpool_576.txt	LTP319	ltpFR2	6	9	PAIL	1002	n/a	n/a	0	0	0
2228.306	n/a	WORD	1114153	wordpools/wasnorm_wordpool_576.txt	LTP319	ltpFR2	6	9	PLUTO	1092	n/a	n/a	0	0	0
2230.976	n/a	WORD	1115488	wordpools/wasnorm_wordpool_576.txt	LTP319	ltpFR2	6	9	EAGLE	512	n/a	n/a	0	0	0
2233.704	n/a	WORD	1116852	wordpools/wasnorm_wordpool_576.txt	LTP319	ltpFR2	6	9	AIRPORT	13	n/a	n/a	0	0	0
2236.142	n/a	WORD	1118071	wordpools/wasnorm_wordpool_576.txt	LTP319	ltpFR2	6	9	EXPERT	543	n/a	n/a	0	0	0
2238.848	n/a	WORD	1119424	wordpools/wasnorm_wordpool_576.txt	LTP319	ltpFR2	6	9	SALT	1229	n/a	n/a	0	0	0
2241.46	n/a	WORD	1120730	wordpools/wasnorm_wordpool_576.txt	LTP319	ltpFR2	6	9	ISLAND	745	n/a	n/a	0	0	0
2243.968	n/a	WORD	1121984	wordpools/wasnorm_wordpool_576.txt	LTP319	ltpFR2	6	9	TRIBE	1505	n/a	n/a	0	0	0
2246.714	n/a	WORD	1123357	wordpools/wasnorm_wordpool_576.txt	LTP319	ltpFR2	6	9	SCOTCH	1251	n/a	n/a	0	0	0
2249.4	n/a	WORD	1124700	wordpools/wasnorm_wordpool_576.txt	LTP319	ltpFR2	6	9	CORAL	378	n/a	n/a	0	0	0
2251.924	n/a	WORD	1125962	wordpools/wasnorm_wordpool_576.txt	LTP319	ltpFR2	6	9	OX	994	n/a	n/a	0	0	0
2254.544	n/a	WORD	1127272	wordpools/wasnorm_wordpool_576.txt	LTP319	ltpFR2	6	9	FARMER	553	n/a	n/a	0	0	0
2256.158	n/a	START	1128079	n/a	LTP319	ltpFR2	6	n/a	n/a	n/a	13	n/a	n/a	n/a	n/a
2257.114	n/a	DISTRACTOR	1128557	n/a	LTP319	ltpFR2	6	9	n/a	n/a	n/a	n/a	0	0	0
2257.124	n/a	PROB	1128562	n/a	LTP319	ltpFR2	6	n/a	n/a	n/a	13	22	9	6	7
2260.748	n/a	PROB	1130374	n/a	LTP319	ltpFR2	6	n/a	n/a	n/a	13	17	8	2	7
2262.218	n/a	PROB	1131109	n/a	LTP319	ltpFR2	6	n/a	n/a	n/a	13	17	4	7	6
2264.568	n/a	PROB	1132284	n/a	LTP319	ltpFR2	6	n/a	n/a	n/a	13	9	5	3	1
2266.186	n/a	PROB	1133093	n/a	LTP319	ltpFR2	6	n/a	n/a	n/a	13	20	9	8	3
2267.972	n/a	PROB	1133986	n/a	LTP319	ltpFR2	6	n/a	n/a	n/a	13	15	3	3	7
2269.672	n/a	PROB	1134836	n/a	LTP319	ltpFR2	6	n/a	n/a	n/a	13	17	9	3	5
2272.092	n/a	PROB	1136046	n/a	LTP319	ltpFR2	6	n/a	n/a	n/a	13	16	9	4	3
2273.994	n/a	PROB	1136997	n/a	LTP319	ltpFR2	6	n/a	n/a	n/a	13	15	6	5	4
2275.492	n/a	PROB	1137746	n/a	LTP319	ltpFR2	6	n/a	n/a	n/a	13	16	2	6	8
2277.064	n/a	PROB	1138532	n/a	LTP319	ltpFR2	6	n/a	n/a	n/a	13	16	9	1	6
2280.156	n/a	STOP	1140078	n/a	LTP319	ltpFR2	6	n/a	n/a	n/a	13	n/a	n/a	n/a	n/a
2282.048	n/a	REC_START	1141024	n/a	LTP319	ltpFR2	6	9	n/a	n/a	n/a	n/a	0	0	0
2285.274	n/a	REC_WORD	1142637	wordpools/wasnorm_wordpool_576.txt	LTP319	ltpFR2	6	9	PILOT	1070	n/a	n/a	0	0	0
2286.234	n/a	REC_WORD	1143117	wordpools/wasnorm_wordpool_576.txt	LTP319	ltpFR2	6	9	TEACHER	1440	n/a	n/a	0	0	0
2287.08	n/a	REC_WORD	1143540	wordpools/wasnorm_wordpool_576.txt	LTP319	ltpFR2	6	9	NOTEBOOK	959	n/a	n/a	0	0	0
2288.048	n/a	REC_WORD	1144024	wordpools/wasnorm_wordpool_576.txt	LTP319	ltpFR2	6	9	PIZZA	1079	n/a	n/a	0	0	0
2288.792	n/a	REC_WORD	1144396	wordpools/wasnorm_wordpool_576.txt	LTP319	ltpFR2	6	9	SNACK	1331	n/a	n/a	0	0	0
2289.95	n/a	REC_WORD	1144975	wordpools/wasnorm_wordpool_576.txt	LTP319	ltpFR2	6	9	EGYPT	519	n/a	n/a	0	0	0
2290.738	n/a	REC_WORD	1145369	wordpools/wasnorm_wordpool_576.txt	LTP319	ltpFR2	6	9	SALT	1229	n/a	n/a	0	0	0
2291.728	n/a	REC_WORD	1145864	wordpools/wasnorm_wordpool_576.txt	LTP319	ltpFR2	6	9	GLOBE	641	n/a	n/a	0	0	0
2292.642	n/a	REC_WORD	1146321	wordpools/wasnorm_wordpool_576.txt	LTP319	ltpFR2	6	9	ISLAND	745	n/a	n/a	0	0	0
2293.458	n/a	REC_WORD	1146729	wordpools/wasnorm_wordpool_576.txt	LTP319	ltpFR2	6	9	CORAL	378	n/a	n/a	0	0	0
2294.334	n/a	REC_WORD	1147167	wordpools/wasnorm_wordpool_576.txt	LTP319	ltpFR2	6	9	OX	994	n/a	n/a	0	0	0
2296.51	n/a	REC_WORD	1148255	wordpools/wasnorm_wordpool_576.txt	LTP319	ltpFR2	6	9	AIRPORT	13	n/a	n/a	0	0	0
2297.356	n/a	REC_WORD	1148678	wordpools/wasnorm_wordpool_576.txt	LTP319	ltpFR2	6	9	EXPERT	543	n/a	n/a	0	0	0
2298.222	n/a	REC_WORD	1149111	wordpools/wasnorm_wordpool_576.txt	LTP319	ltpFR2	6	9	SMOG	1330	n/a	n/a	0	0	0
2299.082	n/a	REC_WORD	1149541	wordpools/wasnorm_wordpool_576.txt	LTP319	ltpFR2	6	9	SCULPTURE	1258	n/a	n/a	0	0	0
2300.166	n/a	REC_WORD	1150083	wordpools/wasnorm_wordpool_576.txt	LTP319	ltpFR2	6	9	PLUTO	1092	n/a	n/a	0	0	0
2300.996	n/a	REC_WORD	1150498	wordpools/wasnorm_wordpool_576.txt	LTP319	ltpFR2	6	9	CAFE	216	n/a	n/a	0	0	0
2308.364	n/a	REC_WORD	1154182	wordpools/wasnorm_wordpool_576.txt	LTP319	ltpFR2	6	9	EAGLE	512	n/a	n/a	0	0	0
2322.574	n/a	REC_WORD	1161287	wordpools/wasnorm_wordpool_576.txt	LTP319	ltpFR2	6	9	PILOT	1070	n/a	n/a	0	0	0
2372.52	n/a	WORD	1186260	wordpools/wasnorm_wordpool_576.txt	LTP319	ltpFR2	6	10	CIGAR	308	n/a	n/a	0	0	0
2375.206	n/a	WORD	1187603	wordpools/wasnorm_wordpool_576.txt	LTP319	ltpFR2	6	10	THIEF	1456	n/a	n/a	0	0	0
2377.84	n/a	WORD	1188920	wordpools/wasnorm_wordpool_576.txt	LTP319	ltpFR2	6	10	PLASTER	1085	n/a	n/a	0	0	0
2380.342	n/a	WORD	1190171	wordpools/wasnorm_wordpool_576.txt	LTP319	ltpFR2	6	10	COOKBOOK	373	n/a	n/a	0	0	0
2382.826	n/a	WORD	1191413	wordpools/wasnorm_wordpool_576.txt	LTP319	ltpFR2	6	10	HIGHWAY	707	n/a	n/a	0	0	0
2385.364	n/a	WORD	1192682	wordpools/wasnorm_wordpool_576.txt	LTP319	ltpFR2	6	10	WRIST	1626	n/a	n/a	0	0	0
2387.83	n/a	WORD	1193915	wordpools/wasnorm_wordpool_576.txt	LTP319	ltpFR2	6	10	BEAST	108	n/a	n/a	0	0	0
2390.468	n/a	WORD	1195234	wordpools/wasnorm_wordpool_576.txt	LTP319	ltpFR2	6	10	MAMMAL	861	n/a	n/a	0	0	0
2393.068	n/a	WORD	1196534	wordpools/wasnorm_wordpool_576.txt	LTP319	ltpFR2	6	10	JOURNAL	760	n/a	n/a	0	0	0
2395.654	n/a	WORD	1197827	wordpools/wasnorm_wordpool_576.txt	LTP319	ltpFR2	6	10	COIN	343	n/a	n/a	0	0	0
2398.124	n/a	WORD	1199062	wordpools/wasnorm_wordpool_576.txt	LTP319	ltpFR2	6	10	STATUE	1374	n/a	n/a	0	0	0
2400.912	n/a	WORD	1200456	wordpools/wasnorm_wordpool_576.txt	LTP319	ltpFR2	6	10	UNCLE	1536	n/a	n/a	0	0	0
2403.66	n/a	WORD	1201830	wordpools/wasnorm_wordpool_576.txt	LTP319	ltpFR2	6	10	FRANCE	601	n/a	n/a	0	0	0
2406.362	n/a	WORD	1203181	wordpools/wasnorm_wordpool_576.txt	LTP319	ltpFR2	6	10	BUBBLE	183	n/a	n/a	0	0	0
2409.066	n/a	WORD	1204533	wordpools/wasnorm_wordpool_576.txt	LTP319	ltpFR2	6	10	CLAMP	316	n/a	n/a	0	0	0
2411.566	n/a	WORD	1205783	wordpools/wasnorm_wordpool_576.txt	LTP319	ltpFR2	6	10	CHAUFFEUR	283	n/a	n/a	0	0	0
2414.336	n/a	WORD	1207168	wordpools/wasnorm_wordpool_576.txt	LTP319	ltpFR2	6	10	PUPPY	1144	n/a	n/a	0	0	0
2416.87	n/a	WORD	1208435	wordpools/wasnorm_wordpool_576.txt	LTP319	ltpFR2	6	10	DIME	466	n/a	n/a	0	0	0
2419.46	n/a	WORD	1209730	wordpools/wasnorm_wordpool_576.txt	LTP319	ltpFR2	6	10	NIGHTGOWN	953	n/a	n/a	0	0	0
2422.064	n/a	WORD	1211032	wordpools/wasnorm_wordpool_576.txt	LTP319	ltpFR2	6	10	MATTRESS	879	n/a	n/a	0	0	0
2424.764	n/a	WORD	1212382	wordpools/wasnorm_wordpool_576.txt	LTP319	ltpFR2	6	10	SERVER	1272	n/a	n/a	0	0	0
2427.512	n/a	WORD	1213756	wordpools/wasnorm_wordpool_576.txt	LTP319	ltpFR2	6	10	DASHBOARD	441	n/a	n/a	0	0	0
2429.952	n/a	WORD	1214976	wordpools/wasnorm_wordpool_576.txt	LTP319	ltpFR2	6	10	BASEMENT	94	n/a	n/a	0	0	0
2432.732	n/a	WORD	1216366	wordpools/wasnorm_wordpool_576.txt	LTP319	ltpFR2	6	10	CAMEL	223	n/a	n/a	0	0	0
2434.342	n/a	START	1217171	n/a	LTP319	ltpFR2	6	n/a	n/a	n/a	14	n/a	n/a	n/a	n/a
2435.482	n/a	DISTRACTOR	1217741	n/a	LTP319	ltpFR2	6	10	n/a	n/a	n/a	n/a	0	0	0
2435.492	n/a	PROB	1217746	n/a	LTP319	ltpFR2	6	n/a	n/a	n/a	14	13	1	7	5
2439.654	n/a	PROB	1219827	n/a	LTP319	ltpFR2	6	n/a	n/a	n/a	14	10	5	1	4
2441.238	n/a	PROB	1220619	n/a	LTP319	ltpFR2	6	n/a	n/a	n/a	14	15	7	6	2
2443.342	n/a	PROB	1221671	n/a	LTP319	ltpFR2	6	n/a	n/a	n/a	14	18	3	7	8
2444.624	n/a	PROB	1222312	n/a	LTP319	ltpFR2	6	n/a	n/a	n/a	14	20	6	9	5
2446.46	n/a	PROB	1223230	n/a	LTP319	ltpFR2	6	n/a	n/a	n/a	14	9	1	3	5
2448.628	n/a	PROB	1224314	n/a	LTP319	ltpFR2	6	n/a	n/a	n/a	14	16	4	7	5
2452.164	n/a	PROB	1226082	n/a	LTP319	ltpFR2	6	n/a	n/a	n/a	14	19	8	3	8
2454.232	n/a	PROB	1227116	n/a	LTP319	ltpFR2	6	n/a	n/a	n/a	14	12	4	1	7
2458.34	n/a	STOP	1229170	n/a	LTP319	ltpFR2	6	n/a	n/a	n/a	14	n/a	n/a	n/a	n/a
2460.238	n/a	REC_START	1230119	n/a	LTP319	ltpFR2	6	10	n/a	n/a	n/a	n/a	0	0	0
2490.902	n/a	REC_WORD	1245451	wordpools/wasnorm_wordpool_576.txt	LTP319	ltpFR2	6	10	BEAST	108	n/a	n/a	0	0	0
2491.568	n/a	REC_WORD	1245784	wordpools/wasnorm_wordpool_576.txt	LTP319	ltpFR2	6	10	MAMMAL	861	n/a	n/a	0	0	0
2492.396	n/a	REC_WORD	1246198	wordpools/wasnorm_wordpool_576.txt	LTP319	ltpFR2	6	10	UNCLE	1536	n/a	n/a	0	0	0
2493.03	n/a	REC_WORD	1246515	wordpools/wasnorm_wordpool_576.txt	LTP319	ltpFR2	6	10	FRANCE	601	n/a	n/a	0	0	0
2493.912	n/a	REC_WORD	1246956	wordpools/wasnorm_wordpool_576.txt	LTP319	ltpFR2	6	10	HIGHWAY	707	n/a	n/a	0	0	0
2495.634	n/a	REC_WORD	1247817	wordpools/wasnorm_wordpool_576.txt	LTP319	ltpFR2	6	10	COIN	343	n/a	n/a	0	0	0
2496.384	n/a	REC_WORD	1248192	wordpools/wasnorm_wordpool_576.txt	LTP319	ltpFR2	6	10	DIME	466	n/a	n/a	0	0	0
2497.064	n/a	REC_WORD	1248532	wordpools/wasnorm_wordpool_576.txt	LTP319	ltpFR2	6	10	WRIST	1626	n/a	n/a	0	0	0
2500.806	n/a	REC_WORD	1250403	wordpools/wasnorm_wordpool_576.txt	LTP319	ltpFR2	6	10	JOURNAL	760	n/a	n/a	0	0	0
2501.864	n/a	REC_WORD	1250932	wordpools/wasnorm_wordpool_576.txt	LTP319	ltpFR2	6	10	COOKBOOK	373	n/a	n/a	0	0	0
2550.672	n/a	DISTRACTOR	1275336	n/a	LTP319	ltpFR2	6	11	n/a	n/a	n/a	n/a	0	0	0
2550.672	n/a	START	1275336	n/a	LTP319	ltpFR2	6	n/a	n/a	n/a	15	n/a	n/a	n/a	n/a
2550.688	n/a	PROB	1275344	n/a	LTP319	ltpFR2	6	n/a	n/a	n/a	15	19	7	8	4
2552.524	n/a	PROB	1276262	n/a	LTP319	ltpFR2	6	n/a	n/a	n/a	15	17	5	7	5
2554.042	n/a	PROB	1277021	n/a	LTP319	ltpFR2	6	n/a	n/a	n/a	15	10	1	6	3
2555.558	n/a	PROB	1277779	n/a	LTP319	ltpFR2	6	n/a	n/a	n/a	15	22	8	5	9
2558.41	n/a	PROB	1279205	n/a	LTP319	ltpFR2	6	n/a	n/a	n/a	15	11	6	2	3
2560.198	n/a	PROB	1280099	n/a	LTP319	ltpFR2	6	n/a	n/a	n/a	15	14	2	7	5
2562.098	n/a	PROB	1281049	n/a	LTP319	ltpFR2	6	n/a	n/a	n/a	15	17	6	7	4
2564.136	n/a	PROB	1282068	n/a	LTP319	ltpFR2	6	n/a	n/a	n/a	15	8	2	1	5
2565.686	n/a	PROB	1282843	n/a	LTP319	ltpFR2	6	n/a	n/a	n/a	15	10	7	2	1
2568.14	n/a	PROB	1284070	n/a	LTP319	ltpFR2	6	n/a	n/a	n/a	15	8	4	3	1
2569.674	n/a	PROB	1284837	n/a	LTP319	ltpFR2	6	n/a	n/a	n/a	15	21	5	7	9
2572.358	n/a	PROB	1286179	n/a	LTP319	ltpFR2	6	n/a	n/a	n/a	15	12	3	1	8
2574.018	n/a	STOP	1287009	n/a	LTP319	ltpFR2	6	n/a	n/a	n/a	15	n/a	n/a	n/a	n/a
2575.694	n/a	WORD	1287847	wordpools/wasnorm_wordpool_576.txt	LTP319	ltpFR2	6	11	BOYFRIEND	162	n/a	n/a	0	0	0
2578.296	n/a	WORD	1289148	wordpools/wasnorm_wordpool_576.txt	LTP319	ltpFR2	6	11	CELLAR	267	n/a	n/a	0	0	0
2580.898	n/a	WORD	1290449	wordpools/wasnorm_wordpool_576.txt	LTP319	ltpFR2	6	11	PASSAGE	1019	n/a	n/a	0	0	0
2583.366	n/a	WORD	1291683	wordpools/wasnorm_wordpool_576.txt	LTP319	ltpFR2	6	11	SEAGULL	1261	n/a	n/a	0	0	0
2586.018	n/a	WORD	1293009	wordpools/wasnorm_wordpool_576.txt	LTP319	ltpFR2	6	11	WOMAN	1620	n/a	n/a	0	0	0
2588.72	n/a	WORD	1294360	wordpools/wasnorm_wordpool_576.txt	LTP319	ltpFR2	6	11	LADY	794	n/a	n/a	0	0	0
2591.524	n/a	WORD	1295762	wordpools/wasnorm_wordpool_576.txt	LTP319	ltpFR2	6	11	BUGGY	188	n/a	n/a	0	0	0
2594.026	n/a	WORD	1297013	wordpools/wasnorm_wordpool_576.txt	LTP319	ltpFR2	6	11	GRILL	661	n/a	n/a	0	0	0
2596.728	n/a	WORD	1298364	wordpools/wasnorm_wordpool_576.txt	LTP319	ltpFR2	6	11	CREATURE	403	n/a	n/a	0	0	0
2599.33	n/a	WORD	1299665	wordpools/wasnorm_wordpool_576.txt	LTP319	ltpFR2	6	11	NECKLACE	940	n/a	n/a	0	0	0
2601.998	n/a	WORD	1300999	wordpools/wasnorm_wordpool_576.txt	LTP319	ltpFR2	6	11	BUREAU	199	n/a	n/a	0	0	0
2604.6	n/a	WORD	1302300	wordpools/wasnorm_wordpool_576.txt	LTP319	ltpFR2	6	11	CASKET	255	n/a	n/a	0	0	0
2607.12	n/a	WORD	1303560	wordpools/wasnorm_wordpool_576.txt	LTP319	ltpFR2	6	11	HANDBAG	684	n/a	n/a	0	0	0
2609.77	n/a	WORD	1304885	wordpools/wasnorm_wordpool_576.txt	LTP319	ltpFR2	6	11	KNAPSACK	783	n/a	n/a	0	0	0
2612.206	n/a	WORD	1306103	wordpools/wasnorm_wordpool_576.txt	LTP319	ltpFR2	6	11	DIVER	476	n/a	n/a	0	0	0
2614.976	n/a	WORD	1307488	wordpools/wasnorm_wordpool_576.txt	LTP319	ltpFR2	6	11	WIDOW	1608	n/a	n/a	0	0	0
2617.61	n/a	WORD	1308805	wordpools/wasnorm_wordpool_576.txt	LTP319	ltpFR2	6	11	MASK	876	n/a	n/a	0	0	0
2620.246	n/a	WORD	1310123	wordpools/wasnorm_wordpool_576.txt	LTP319	ltpFR2	6	11	FRIEND	606	n/a	n/a	0	0	0
2622.748	n/a	WORD	1311374	wordpools/wasnorm_wordpool_576.txt	LTP319	ltpFR2	6	11	BEAVER	109	n/a	n/a	0	0	0
2625.282	n/a	WORD	1312641	wordpools/wasnorm_wordpool_576.txt	LTP319	ltpFR2	6	11	SUITCASE	1403	n/a	n/a	0	0	0
2627.952	n/a	WORD	1313976	wordpools/wasnorm_wordpool_576.txt	LTP319	ltpFR2	6	11	UMPIRE	1535	n/a	n/a	0	0	0
2630.636	n/a	WORD	1315318	wordpools/wasnorm_wordpool_576.txt	LTP319	ltpFR2	6	11	EMPIRE	530	n/a	n/a	0	0	0
2633.292	n/a	WORD	1316646	wordpools/wasnorm_wordpool_576.txt	LTP319	ltpFR2	6	11	TUTU	1524	n/a	n/a	0	0	0
2636.11	n/a	WORD	1318055	wordpools/wasnorm_wordpool_576.txt	LTP319	ltpFR2	6	11	CHEST	295	n/a	n/a	0	0	0
2637.726	n/a	START	1318863	n/a	LTP319	ltpFR2	6	n/a	n/a	n/a	16	n/a	n/a	n/a	n/a
2638.684	n/a	DISTRACTOR	1319342	n/a	LTP319	ltpFR2	6	11	n/a	n/a	n/a	n/a	0	0	0
2638.694	n/a	PROB	1319347	n/a	LTP319	ltpFR2	6	n/a	n/a	n/a	16	12	3	2	7
2640.294	n/a	PROB	1320147	n/a	LTP319	ltpFR2	6	n/a	n/a	n/a	16	20	9	6	5
2642.762	n/a	PROB	1321381	n/a	LTP319	ltpFR2	6	n/a	n/a	n/a	16	12	2	5	5
2644.246	n/a	PROB	1322123	n/a	LTP319	ltpFR2	6	n/a	n/a	n/a	16	18	6	8	4
2646.432	n/a	PROB	1323216	n/a	LTP319	ltpFR2	6	n/a	n/a	n/a	16	9	3	1	5
2648.218	n/a	PROB	1324109	n/a	LTP319	ltpFR2	6	n/a	n/a	n/a	16	21	6	7	8
2650.418	n/a	PROB	1325209	n/a	LTP319	ltpFR2	6	n/a	n/a	n/a	16	15	5	3	7
2652.12	n/a	PROB	1326060	n/a	LTP319	ltpFR2	6	n/a	n/a	n/a	16	12	5	5	2
2653.354	n/a	PROB	1326677	n/a	LTP319	ltpFR2	6	n/a	n/a	n/a	16	11	1	3	7
2654.788	n/a	PROB	1327394	n/a	LTP319	ltpFR2	6	n/a	n/a	n/a	16	11	4	4	3
2657.508	n/a	PROB	1328754	n/a	LTP319	ltpFR2	6	n/a	n/a	n/a	16	16	6	3	7
2659.16	n/a	PROB	1329580	n/a	LTP319	ltpFR2	6	n/a	n/a	n/a	16	16	9	4	3
2661.298	n/a	STOP	1330649	n/a	LTP319	ltpFR2	6	n/a	n/a	n/a	16	n/a	n/a	n/a	n/a
2663.512	n/a	REC_START	1331756	n/a	LTP319	ltpFR2	6	11	n/a	n/a	n/a	n/a	0	0	0
2665.454	n/a	REC_WORD	1332727	wordpools/wasnorm_wordpool_576.txt	LTP319	ltpFR2	6	11	WOMAN	1620	n/a	n/a	0	0	0
2666.234	n/a	REC_WORD	1333117	wordpools/wasnorm_wordpool_576.txt	LTP319	ltpFR2	6	11	LADY	794	n/a	n/a	0	0	0
2666.916	n/a	REC_WORD	1333458	wordpools/wasnorm_wordpool_576.txt	LTP319	ltpFR2	6	11	NECKLACE	940	n/a	n/a	0	0	0
2667.728	n/a	REC_WORD	1333864	wordpools/wasnorm_wordpool_576.txt	LTP319	ltpFR2	6	11	BUREAU	199	n/a	n/a	0	0	0
2668.526	n/a	REC_WORD	1334263	wordpools/wasnorm_wordpool_576.txt	LTP319	ltpFR2	6	11	BOYFRIEND	162	n/a	n/a	0	0	0
2669.194	n/a	REC_WORD	1334597	wordpools/wasnorm_wordpool_576.txt	LTP319	ltpFR2	6	11	FRIEND	606	n/a	n/a	0	0	0
2670.062	n/a	REC_WORD	1335031	wordpools/wasnorm_wordpool_576.txt	LTP319	ltpFR2	6	11	CELLAR	267	n/a	n/a	0	0	0
2670.988	n/a	REC_WORD	1335494	wordpools/wasnorm_wordpool_576.txt	LTP319	ltpFR2	6	11	PASSAGE	1019	n/a	n/a	0	0	0
2672.044	n/a	REC_WORD	1336022	wordpools/wasnorm_wordpool_576.txt	LTP319	ltpFR2	6	11	BUGGY	188	n/a	n/a	0	0	0
2672.962	n/a	REC_WORD	1336481	wordpools/wasnorm_wordpool_576.txt	LTP319	ltpFR2	6	11	CREATURE	403	n/a	n/a	0	0	0
2673.812	n/a	REC_WORD	1336906	wordpools/wasnorm_wordpool_576.txt	LTP319	ltpFR2	6	11	CASKET	255	n/a	n/a	0	0	0
2674.518	n/a	REC_WORD	1337259	wordpools/wasnorm_wordpool_576.txt	LTP319	ltpFR2	6	11	HANDBAG	684	n/a	n/a	0	0	0
2675.406	n/a	REC_WORD	1337703	wordpools/wasnorm_wordpool_576.txt	LTP319	ltpFR2	6	11	KNAPSACK	783	n/a	n/a	0	0	0
2677.054	n/a	REC_WORD	1338527	wordpools/wasnorm_wordpool_576.txt	LTP319	ltpFR2	6	11	DIVER	476	n/a	n/a	0	0	0
2677.828	n/a	REC_WORD	1338914	wordpools/wasnorm_wordpool_576.txt	LTP319	ltpFR2	6	11	MASK	876	n/a	n/a	0	0	0
2678.776	n/a	REC_WORD	1339388	wordpools/wasnorm_wordpool_576.txt	LTP319	ltpFR2	6	11	WIDOW	1608	n/a	n/a	0	0	0
2697.718	n/a	REC_WORD	1348859	wordpools/wasnorm_wordpool_576.txt	LTP319	ltpFR2	6	11	CREATURE	403	n/a	n/a	0	0	0
2753.95	n/a	WORD	1376975	wordpools/wasnorm_wordpool_576.txt	LTP319	ltpFR2	6	12	OZONE	996	n/a	n/a	0	0	0
2756.396	n/a	WORD	1378198	wordpools/wasnorm_wordpool_576.txt	LTP319	ltpFR2	6	12	GYMNAST	675	n/a	n/a	0	0	0
2759.036	n/a	WORD	1379518	wordpools/wasnorm_wordpool_576.txt	LTP319	ltpFR2	6	12	COBRA	336	n/a	n/a	0	0	0
2761.484	n/a	WORD	1380742	wordpools/wasnorm_wordpool_576.txt	LTP319	ltpFR2	6	12	WITNESS	1618	n/a	n/a	0	0	0
2764.17	n/a	WORD	1382085	wordpools/wasnorm_wordpool_576.txt	LTP319	ltpFR2	6	12	PISTON	1076	n/a	n/a	0	0	0
2766.96	n/a	WORD	1383480	wordpools/wasnorm_wordpool_576.txt	LTP319	ltpFR2	6	12	WORLD	1622	n/a	n/a	0	0	0
2769.692	n/a	WORD	1384846	wordpools/wasnorm_wordpool_576.txt	LTP319	ltpFR2	6	12	LUGGAGE	847	n/a	n/a	0	0	0
2772.276	n/a	WORD	1386138	wordpools/wasnorm_wordpool_576.txt	LTP319	ltpFR2	6	12	HOOD	714	n/a	n/a	0	0	0
2774.862	n/a	WORD	1387431	wordpools/wasnorm_wordpool_576.txt	LTP319	ltpFR2	6	12	PLAYGROUND	1087	n/a	n/a	0	0	0
2777.664	n/a	WORD	1388832	wordpools/wasnorm_wordpool_576.txt	LTP319	ltpFR2	6	12	FRUIT	610	n/a	n/a	0	0	0
2780.384	n/a	WORD	1390192	wordpools/wasnorm_wordpool_576.txt	LTP319	ltpFR2	6	12	BISON	131	n/a	n/a	0	0	0
2783.174	n/a	WORD	1391587	wordpools/wasnorm_wordpool_576.txt	LTP319	ltpFR2	6	12	DENTIST	447	n/a	n/a	0	0	0
2785.856	n/a	WORD	1392928	wordpools/wasnorm_wordpool_576.txt	LTP319	ltpFR2	6	12	AWARD	63	n/a	n/a	0	0	0
2788.392	n/a	WORD	1394196	wordpools/wasnorm_wordpool_576.txt	LTP319	ltpFR2	6	12	JURY	766	n/a	n/a	0	0	0
2790.976	n/a	WORD	1395488	wordpools/wasnorm_wordpool_576.txt	LTP319	ltpFR2	6	12	KITCHEN	778	n/a	n/a	0	0	0
2793.512	n/a	WORD	1396756	wordpools/wasnorm_wordpool_576.txt	LTP319	ltpFR2	6	12	PANTHER	1009	n/a	n/a	0	0	0
2796.23	n/a	WORD	1398115	wordpools/wasnorm_wordpool_576.txt	LTP319	ltpFR2	6	12	SAUSAGE	1238	n/a	n/a	0	0	0
2798.932	n/a	WORD	1399466	wordpools/wasnorm_wordpool_576.txt	LTP319	ltpFR2	6	12	SIBLING	1301	n/a	n/a	0	0	0
2801.668	n/a	WORD	1400834	wordpools/wasnorm_wordpool_576.txt	LTP319	ltpFR2	6	12	CONVICT	371	n/a	n/a	0	0	0
2804.106	n/a	WORD	1402053	wordpools/wasnorm_wordpool_576.txt	LTP319	ltpFR2	6	12	CAPTIVE	240	n/a	n/a	0	0	0
2806.822	n/a	WORD	1403411	wordpools/wasnorm_wordpool_576.txt	LTP319	ltpFR2	6	12	GRIZZLY	662	n/a	n/a	0	0	0
2809.592	n/a	WORD	1404796	wordpools/wasnorm_wordpool_576.txt	LTP319	ltpFR2	6	12	COUCH	386	n/a	n/a	0	0	0
2812.044	n/a	WORD	1406022	wordpools/wasnorm_wordpool_576.txt	LTP319	ltpFR2	6	12	PADDING	999	n/a	n/a	0	0	0
2814.764	n/a	WORD	1407382	wordpools/wasnorm_wordpool_576.txt	LTP319	ltpFR2	6	12	APPLE	33	n/a	n/a	0	0	0
2816.382	n/a	START	1408191	n/a	LTP319	ltpFR2	6	n/a	n/a	n/a	17	n/a	n/a	n/a	n/a
2817.524	n/a	DISTRACTOR	1408762	n/a	LTP319	ltpFR2	6	12	n/a	n/a	n/a	n/a	0	0	0
2817.532	n/a	PROB	1408766	n/a	LTP319	ltpFR2	6	n/a	n/a	n/a	17	15	8	2	5
2819.066	n/a	PROB	1409533	n/a	LTP319	ltpFR2	6	n/a	n/a	n/a	17	12	3	6	3
2821.002	n/a	PROB	1410501	n/a	LTP319	ltpFR2	6	n/a	n/a	n/a	17	15	4	7	4
2824.138	n/a	PROB	1412069	n/a	LTP319	ltpFR2	6	n/a	n/a	n/a	17	27	9	9	9
2826.006	n/a	PROB	1413003	n/a	LTP319	ltpFR2	6	n/a	n/a	n/a	17	8	2	1	5
2827.44	n/a	PROB	1413720	n/a	LTP319	ltpFR2	6	n/a	n/a	n/a	17	13	2	3	8
2829.324	n/a	PROB	1414662	n/a	LTP319	ltpFR2	6	n/a	n/a	n/a	17	21	4	8	9
2831.742	n/a	PROB	1415871	n/a	LTP319	ltpFR2	6	n/a	n/a	n/a	17	14	2	3	9
2833.662	n/a	PROB	1416831	n/a	LTP319	ltpFR2	6	n/a	n/a	n/a	17	14	3	9	2
2835.698	n/a	PROB	1417849	n/a	LTP319	ltpFR2	6	n/a	n/a	n/a	17	7	3	2	2
2840.382	n/a	STOP	1420191	n/a	LTP319	ltpFR2	6	n/a	n/a	n/a	17	n/a	n/a	n/a	n/a
2842.152	n/a	REC_START	1421076	n/a	LTP319	ltpFR2	6	12	n/a	n/a	n/a	n/a	0	0	0
2849.01	n/a	REC_WORD	1424505	wordpools/wasnorm_wordpool_576.txt	LTP319	ltpFR2	6	12	DENTIST	447	n/a	n/a	0	0	0
2852.318	n/a	REC_WORD	1426159	wordpools/wasnorm_wordpool_576.txt	LTP319	ltpFR2	6	12	PISTON	1076	n/a	n/a	0	0	0
2872.132	n/a	REC_WORD	1436066	wordpools/wasnorm_wordpool_576.txt	LTP319	ltpFR2	6	12	PISTON	1076	n/a	n/a	0	0	0
3014.184	n/a	WORD	1507092	wordpools/wasnorm_wordpool_576.txt	LTP319	ltpFR2	6	13	CEILING	265	n/a	n/a	0	0	0
3016.884	n/a	WORD	1508442	wordpools/wasnorm_wordpool_576.txt	LTP319	ltpFR2	6	13	BROTHER	179	n/a	n/a	0	0	0
3019.32	n/a	WORD	1509660	wordpools/wasnorm_wordpool_576.txt	LTP319	ltpFR2	6	13	COUSIN	392	n/a	n/a	0	0	0
3021.908	n/a	WORD	1510954	wordpools/wasnorm_wordpool_576.txt	LTP319	ltpFR2	6	13	COFFEE	341	n/a	n/a	0	0	0
3024.458	n/a	WORD	1512229	wordpools/wasnorm_wordpool_576.txt	LTP319	ltpFR2	6	13	CATCHER	258	n/a	n/a	0	0	0
3027.11	n/a	WORD	1513555	wordpools/wasnorm_wordpool_576.txt	LTP319	ltpFR2	6	13	FOOTBALL	591	n/a	n/a	0	0	0
3029.578	n/a	WORD	1514789	wordpools/wasnorm_wordpool_576.txt	LTP319	ltpFR2	6	13	PATIENT	1024	n/a	n/a	0	0	0
3032.38	n/a	WORD	1516190	wordpools/wasnorm_wordpool_576.txt	LTP319	ltpFR2	6	13	SCALPEL	1243	n/a	n/a	0	0	0
3034.85	n/a	WORD	1517425	wordpools/wasnorm_wordpool_576.txt	LTP319	ltpFR2	6	13	HOUND	724	n/a	n/a	0	0	0
3037.536	n/a	WORD	1518768	wordpools/wasnorm_wordpool_576.txt	LTP319	ltpFR2	6	13	BEAKER	104	n/a	n/a	0	0	0
3039.988	n/a	WORD	1519994	wordpools/wasnorm_wordpool_576.txt	LTP319	ltpFR2	6	13	RUG	1215	n/a	n/a	0	0	0
3042.674	n/a	WORD	1521337	wordpools/wasnorm_wordpool_576.txt	LTP319	ltpFR2	6	13	MARROW	872	n/a	n/a	0	0	0
3045.292	n/a	WORD	1522646	wordpools/wasnorm_wordpool_576.txt	LTP319	ltpFR2	6	13	LODGE	839	n/a	n/a	0	0	0
3047.894	n/a	WORD	1523947	wordpools/wasnorm_wordpool_576.txt	LTP319	ltpFR2	6	13	PUDDING	1139	n/a	n/a	0	0	0
3050.614	n/a	WORD	1525307	wordpools/wasnorm_wordpool_576.txt	LTP319	ltpFR2	6	13	SHELTER	1282	n/a	n/a	0	0	0
3053.048	n/a	WORD	1526524	wordpools/wasnorm_wordpool_576.txt	LTP319	ltpFR2	6	13	TURNIP	1521	n/a	n/a	0	0	0
3055.55	n/a	WORD	1527775	wordpools/wasnorm_wordpool_576.txt	LTP319	ltpFR2	6	13	DAISY	435	n/a	n/a	0	0	0
3058.104	n/a	WORD	1529052	wordpools/wasnorm_wordpool_576.txt	LTP319	ltpFR2	6	13	GLASS	639	n/a	n/a	0	0	0
3060.738	n/a	WORD	1530369	wordpools/wasnorm_wordpool_576.txt	LTP319	ltpFR2	6	13	SUPPER	1411	n/a	n/a	0	0	0
3063.49	n/a	WORD	1531745	wordpools/wasnorm_wordpool_576.txt	LTP319	ltpFR2	6	13	LION	827	n/a	n/a	0	0	0
3066.326	n/a	WORD	1533163	wordpools/wasnorm_wordpool_576.txt	LTP319	ltpFR2	6	13	JEANS	752	n/a	n/a	0	0	0
3068.912	n/a	WORD	1534456	wordpools/wasnorm_wordpool_576.txt	LTP319	ltpFR2	6	13	INMATE	738	n/a	n/a	0	0	0
3071.73	n/a	WORD	1535865	wordpools/wasnorm_wordpool_576.txt	LTP319	ltpFR2	6	13	BANKER	84	n/a	n/a	0	0	0
3074.45	n/a	WORD	1537225	wordpools/wasnorm_wordpool_576.txt	LTP319	ltpFR2	6	13	FLASK	576	n/a	n/a	0	0	0
3076.07	n/a	START	1538035	n/a	LTP319	ltpFR2	6	n/a	n/a	n/a	18	n/a	n/a	n/a	n/a
3077.192	n/a	DISTRACTOR	1538596	n/a	LTP319	ltpFR2	6	13	n/a	n/a	n/a	n/a	0	0	0
3077.202	n/a	PROB	1538601	n/a	LTP319	ltpFR2	6	n/a	n/a	n/a	18	23	6	8	9
3080.086	n/a	PROB	1540043	n/a	LTP319	ltpFR2	6	n/a	n/a	n/a	18	21	6	6	9
3082.354	n/a	PROB	1541177	n/a	LTP319	ltpFR2	6	n/a	n/a	n/a	18	8	2	2	4
3083.906	n/a	PROB	1541953	n/a	LTP319	ltpFR2	6	n/a	n/a	n/a	18	9	3	4	2
3085.356	n/a	PROB	1542678	n/a	LTP319	ltpFR2	6	n/a	n/a	n/a	18	14	5	8	1
3088.942	n/a	PROB	1544471	n/a	LTP319	ltpFR2	6	n/a	n/a	n/a	18	14	8	5	1
3090.678	n/a	PROB	1545339	n/a	LTP319	ltpFR2	6	n/a	n/a	n/a	18	11	7	2	2
3092.612	n/a	PROB	1546306	n/a	LTP319	ltpFR2	6	n/a	n/a	n/a	18	18	2	8	8
3094.064	n/a	PROB	1547032	n/a	LTP319	ltpFR2	6	n/a	n/a	n/a	18	22	8	5	9
3097.4	n/a	PROB	1548700	n/a	LTP319	ltpFR2	6	n/a	n/a	n/a	18	13	1	5	7
3099.05	n/a	STOP	1549525	n/a	LTP319	ltpFR2	6	n/a	n/a	n/a	18	n/a	n/a	n/a	n/a
3101.954	n/a	REC_START	1550977	n/a	LTP319	ltpFR2	6	13	n/a	n/a	n/a	n/a	0	0	0
3103.438	n/a	REC_WORD	1551719	wordpools/wasnorm_wordpool_576.txt	LTP319	ltpFR2	6	13	BROTHER	179	n/a	n/a	0	0	0
3104.206	n/a	REC_WORD	1552103	wordpools/wasnorm_wordpool_576.txt	LTP319	ltpFR2	6	13	COUSIN	392	n/a	n/a	0	0	0
3104.92	n/a	REC_WORD	1552460	wordpools/wasnorm_wordpool_576.txt	LTP319	ltpFR2	6	13	CEILING	265	n/a	n/a	0	0	0
3106.478	n/a	REC_WORD	1553239	wordpools/wasnorm_wordpool_576.txt	LTP319	ltpFR2	6	13	PATIENT	1024	n/a	n/a	0	0	0
3107.216	n/a	REC_WORD	1553608	wordpools/wasnorm_wordpool_576.txt	LTP319	ltpFR2	6	13	SCALPEL	1243	n/a	n/a	0	0	0
3108.042	n/a	REC_WORD	1554021	wordpools/wasnorm_wordpool_576.txt	LTP319	ltpFR2	6	13	HOUND	724	n/a	n/a	0	0	0
3109.018	n/a	REC_WORD	1554509	wordpools/wasnorm_wordpool_576.txt	LTP319	ltpFR2	6	13	COFFEE	341	n/a	n/a	0	0	0
3111.44	n/a	REC_WORD	1555720	wordpools/wasnorm_wordpool_576.txt	LTP319	ltpFR2	6	13	CATCHER	258	n/a	n/a	0	0	0
3112.326	n/a	REC_WORD	1556163	wordpools/wasnorm_wordpool_576.txt	LTP319	ltpFR2	6	13	FOOTBALL	591	n/a	n/a	0	0	0
3114.98	n/a	REC_WORD	1557490	wordpools/wasnorm_wordpool_576.txt	LTP319	ltpFR2	6	13	INMATE	738	n/a	n/a	0	0	0
3116.318	n/a	REC_WORD	1558159	wordpools/wasnorm_wordpool_576.txt	LTP319	ltpFR2	6	13	BANKER	84	n/a	n/a	0	0	0
3117.702	n/a	REC_WORD	1558851	wordpools/wasnorm_wordpool_576.txt	LTP319	ltpFR2	6	13	LION	827	n/a	n/a	0	0	0
3118.752	n/a	REC_WORD	1559376	wordpools/wasnorm_wordpool_576.txt	LTP319	ltpFR2	6	13	SUPPER	1411	n/a	n/a	0	0	0
3192.376	n/a	DISTRACTOR	1596188	n/a	LTP319	ltpFR2	6	14	n/a	n/a	n/a	n/a	0	0	0
3192.376	n/a	START	1596188	n/a	LTP319	ltpFR2	6	n/a	n/a	n/a	19	n/a	n/a	n/a	n/a
3192.392	n/a	PROB	1596196	n/a	LTP319	ltpFR2	6	n/a	n/a	n/a	19	22	8	8	6
3195.492	n/a	PROB	1597746	n/a	LTP319	ltpFR2	6	n/a	n/a	n/a	19	9	1	5	3
3196.994	n/a	PROB	1598497	n/a	LTP319	ltpFR2	6	n/a	n/a	n/a	19	10	6	1	3
3198.562	n/a	PROB	1599281	n/a	LTP319	ltpFR2	6	n/a	n/a	n/a	19	12	2	2	8
3200.214	n/a	PROB	1600107	n/a	LTP319	ltpFR2	6	n/a	n/a	n/a	19	13	3	7	3
3201.68	n/a	PROB	1600840	n/a	LTP319	ltpFR2	6	n/a	n/a	n/a	19	3	1	1	1
3203.132	n/a	PROB	1601566	n/a	LTP319	ltpFR2	6	n/a	n/a	n/a	19	16	5	7	4
3206.618	n/a	PROB	1603309	n/a	LTP319	ltpFR2	6	n/a	n/a	n/a	19	13	6	3	4
3208.27	n/a	PROB	1604135	n/a	LTP319	ltpFR2	6	n/a	n/a	n/a	19	18	9	4	5
3210.656	n/a	PROB	1605328	n/a	LTP319	ltpFR2	6	n/a	n/a	n/a	19	11	3	2	6
3212.474	n/a	PROB	1606237	n/a	LTP319	ltpFR2	6	n/a	n/a	n/a	19	20	9	3	8
3214.324	n/a	PROB	1607162	n/a	LTP319	ltpFR2	6	n/a	n/a	n/a	19	3	1	1	1
3215.404	n/a	STOP	1607702	n/a	LTP319	ltpFR2	6	n/a	n/a	n/a	19	n/a	n/a	n/a	n/a
3217.472	n/a	WORD	1608736	wordpools/wasnorm_wordpool_576.txt	LTP319	ltpFR2	6	14	ORANGE	980	n/a	n/a	0	0	0
3219.908	n/a	WORD	1609954	wordpools/wasnorm_wordpool_576.txt	LTP319	ltpFR2	6	14	LACE	792	n/a	n/a	0	0	0
3222.692	n/a	WORD	1611346	wordpools/wasnorm_wordpool_576.txt	LTP319	ltpFR2	6	14	EYELASH	546	n/a	n/a	0	0	0
3225.46	n/a	WORD	1612730	wordpools/wasnorm_wordpool_576.txt	LTP319	ltpFR2	6	14	SHIRT	1287	n/a	n/a	0	0	0
3228.114	n/a	WORD	1614057	wordpools/wasnorm_wordpool_576.txt	LTP319	ltpFR2	6	14	VIRUS	1572	n/a	n/a	0	0	0
3230.916	n/a	WORD	1615458	wordpools/wasnorm_wordpool_576.txt	LTP319	ltpFR2	6	14	SISTER	1312	n/a	n/a	0	0	0
3233.334	n/a	WORD	1616667	wordpools/wasnorm_wordpool_576.txt	LTP319	ltpFR2	6	14	MEDAL	885	n/a	n/a	0	0	0
3235.938	n/a	WORD	1617969	wordpools/wasnorm_wordpool_576.txt	LTP319	ltpFR2	6	14	BANJO	82	n/a	n/a	0	0	0
3238.506	n/a	WORD	1619253	wordpools/wasnorm_wordpool_576.txt	LTP319	ltpFR2	6	14	WHISTLE	1606	n/a	n/a	0	0	0
3241.276	n/a	WORD	1620638	wordpools/wasnorm_wordpool_576.txt	LTP319	ltpFR2	6	14	BRICK	172	n/a	n/a	0	0	0
3243.71	n/a	WORD	1621855	wordpools/wasnorm_wordpool_576.txt	LTP319	ltpFR2	6	14	BRAKE	166	n/a	n/a	0	0	0
3246.284	n/a	WORD	1623142	wordpools/wasnorm_wordpool_576.txt	LTP319	ltpFR2	6	14	POSTAGE	1113	n/a	n/a	0	0	0
3248.882	n/a	WORD	1624441	wordpools/wasnorm_wordpool_576.txt	LTP319	ltpFR2	6	14	TABLET	1427	n/a	n/a	0	0	0
3251.55	n/a	WORD	1625775	wordpools/wasnorm_wordpool_576.txt	LTP319	ltpFR2	6	14	DENIM	446	n/a	n/a	0	0	0
3254.286	n/a	WORD	1627143	wordpools/wasnorm_wordpool_576.txt	LTP319	ltpFR2	6	14	HOOK	715	n/a	n/a	0	0	0
3256.992	n/a	WORD	1628496	wordpools/wasnorm_wordpool_576.txt	LTP319	ltpFR2	6	14	SCALLOP	1242	n/a	n/a	0	0	0
3259.556	n/a	WORD	1629778	wordpools/wasnorm_wordpool_576.txt	LTP319	ltpFR2	6	14	PORK	1108	n/a	n/a	0	0	0
3262.146	n/a	WORD	1631073	wordpools/wasnorm_wordpool_576.txt	LTP319	ltpFR2	6	14	SPOUSE	1358	n/a	n/a	0	0	0
3264.96	n/a	WORD	1632480	wordpools/wasnorm_wordpool_576.txt	LTP319	ltpFR2	6	14	HUSBAND	728	n/a	n/a	0	0	0
3267.562	n/a	WORD	1633781	wordpools/wasnorm_wordpool_576.txt	LTP319	ltpFR2	6	14	MOTEL	919	n/a	n/a	0	0	0
3270.05	n/a	WORD	1635025	wordpools/wasnorm_wordpool_576.txt	LTP319	ltpFR2	6	14	FOREHEAD	592	n/a	n/a	0	0	0
3272.684	n/a	WORD	1636342	wordpools/wasnorm_wordpool_576.txt	LTP319	ltpFR2	6	14	MARKER	870	n/a	n/a	0	0	0
3275.42	n/a	WORD	1637710	wordpools/wasnorm_wordpool_576.txt	LTP319	ltpFR2	6	14	KETCHUP	771	n/a	n/a	0	0	0
3277.856	n/a	WORD	1638928	wordpools/wasnorm_wordpool_576.txt	LTP319	ltpFR2	6	14	KEEPER	769	n/a	n/a	0	0	0
3279.474	n/a	START	1639737	n/a	LTP319	ltpFR2	6	n/a	n/a	n/a	20	n/a	n/a	n/a	n/a
3280.5	n/a	DISTRACTOR	1640250	n/a	LTP319	ltpFR2	6	14	n/a	n/a	n/a	n/a	0	0	0
3280.508	n/a	PROB	1640254	n/a	LTP319	ltpFR2	6	n/a	n/a	n/a	20	8	1	3	4
3282.244	n/a	PROB	1641122	n/a	LTP319	ltpFR2	6	n/a	n/a	n/a	20	15	8	6	1
3284.11	n/a	PROB	1642055	n/a	LTP319	ltpFR2	6	n/a	n/a	n/a	20	18	7	2	9
3285.714	n/a	PROB	1642857	n/a	LTP319	ltpFR2	6	n/a	n/a	n/a	20	16	6	7	3
3287.348	n/a	PROB	1643674	n/a	LTP319	ltpFR2	6	n/a	n/a	n/a	20	15	2	4	9
3290.2	n/a	PROB	1645100	n/a	LTP319	ltpFR2	6	n/a	n/a	n/a	20	14	6	3	5
3292.736	n/a	PROB	1646368	n/a	LTP319	ltpFR2	6	n/a	n/a	n/a	20	10	1	1	8
3294.186	n/a	PROB	1647093	n/a	LTP319	ltpFR2	6	n/a	n/a	n/a	20	17	6	5	6
3296.89	n/a	PROB	1648445	n/a	LTP319	ltpFR2	6	n/a	n/a	n/a	20	18	3	7	8
3298.24	n/a	PROB	1649120	n/a	LTP319	ltpFR2	6	n/a	n/a	n/a	20	15	5	8	2
3299.558	n/a	PROB	1649779	n/a	LTP319	ltpFR2	6	n/a	n/a	n/a	20	17	3	9	5
3301.974	n/a	STOP	1650987	n/a	LTP319	ltpFR2	6	n/a	n/a	n/a	20	n/a	n/a	n/a	n/a
3305.33	n/a	REC_START	1652665	n/a	LTP319	ltpFR2	6	14	n/a	n/a	n/a	n/a	0	0	0
3306.992	n/a	REC_WORD	1653496	wordpools/wasnorm_wordpool_576.txt	LTP319	ltpFR2	6	14	HOOK	715	n/a	n/a	0	0	0
3315.496	n/a	REC_WORD	1657748	wordpools/wasnorm_wordpool_576.txt	LTP319	ltpFR2	6	14	ORANGE	980	n/a	n/a	0	0	0
3316.34	n/a	REC_WORD	1658170	wordpools/wasnorm_wordpool_576.txt	LTP319	ltpFR2	6	14	LACE	792	n/a	n/a	0	0	0
3327.848	n/a	REC_WORD	1663924	wordpools/wasnorm_wordpool_576.txt	LTP319	ltpFR2	6	14	DENIM	446	n/a	n/a	0	0	0
3395.766	n/a	WORD	1697883	wordpools/wasnorm_wordpool_576.txt	LTP319	ltpFR2	6	15	CROSS	413	n/a	n/a	0	0	0
3398.558	n/a	WORD	1699279	wordpools/wasnorm_wordpool_576.txt	LTP319	ltpFR2	6	15	PIGMENT	1066	n/a	n/a	0	0	0
3401.22	n/a	WORD	1700610	wordpools/wasnorm_wordpool_576.txt	LTP319	ltpFR2	6	15	STUDENT	1395	n/a	n/a	0	0	0
3403.856	n/a	WORD	1701928	wordpools/wasnorm_wordpool_576.txt	LTP319	ltpFR2	6	15	PARENT	1013	n/a	n/a	0	0	0
3406.448	n/a	WORD	1703224	wordpools/wasnorm_wordpool_576.txt	LTP319	ltpFR2	6	15	PLIERS	1089	n/a	n/a	0	0	0
3408.9	n/a	WORD	1704450	wordpools/wasnorm_wordpool_576.txt	LTP319	ltpFR2	6	15	OMELET	976	n/a	n/a	0	0	0
3411.678	n/a	WORD	1705839	wordpools/wasnorm_wordpool_576.txt	LTP319	ltpFR2	6	15	ROBOT	1200	n/a	n/a	0	0	0
3414.182	n/a	WORD	1707091	wordpools/wasnorm_wordpool_576.txt	LTP319	ltpFR2	6	15	HORSE	719	n/a	n/a	0	0	0
3416.806	n/a	WORD	1708403	wordpools/wasnorm_wordpool_576.txt	LTP319	ltpFR2	6	15	ROD	1203	n/a	n/a	0	0	0
3419.286	n/a	WORD	1709643	wordpools/wasnorm_wordpool_576.txt	LTP319	ltpFR2	6	15	SHRUB	1299	n/a	n/a	0	0	0
3421.904	n/a	WORD	1710952	wordpools/wasnorm_wordpool_576.txt	LTP319	ltpFR2	6	15	FOREST	593	n/a	n/a	0	0	0
3424.606	n/a	WORD	1712303	wordpools/wasnorm_wordpool_576.txt	LTP319	ltpFR2	6	15	PEBBLE	1035	n/a	n/a	0	0	0
3427.066	n/a	WORD	1713533	wordpools/wasnorm_wordpool_576.txt	LTP319	ltpFR2	6	15	SODA	1341	n/a	n/a	0	0	0
3429.56	n/a	WORD	1714780	wordpools/wasnorm_wordpool_576.txt	LTP319	ltpFR2	6	15	PUDDLE	1140	n/a	n/a	0	0	0
3432.246	n/a	WORD	1716123	wordpools/wasnorm_wordpool_576.txt	LTP319	ltpFR2	6	15	GRAVEL	659	n/a	n/a	0	0	0
3434.696	n/a	WORD	1717348	wordpools/wasnorm_wordpool_576.txt	LTP319	ltpFR2	6	15	GRAVE	658	n/a	n/a	0	0	0
3437.314	n/a	WORD	1718657	wordpools/wasnorm_wordpool_576.txt	LTP319	ltpFR2	6	15	FREEZER	604	n/a	n/a	0	0	0
3440.0	n/a	WORD	1720000	wordpools/wasnorm_wordpool_576.txt	LTP319	ltpFR2	6	15	DOUGHNUT	490	n/a	n/a	0	0	0
3442.562	n/a	WORD	1721281	wordpools/wasnorm_wordpool_576.txt	LTP319	ltpFR2	6	15	LAGOON	795	n/a	n/a	0	0	0
3445.288	n/a	WORD	1722644	wordpools/wasnorm_wordpool_576.txt	LTP319	ltpFR2	6	15	MARSH	874	n/a	n/a	0	0	0
3448.084	n/a	WORD	1724042	wordpools/wasnorm_wordpool_576.txt	LTP319	ltpFR2	6	15	CHURCH	307	n/a	n/a	0	0	0
3450.902	n/a	WORD	1725451	wordpools/wasnorm_wordpool_576.txt	LTP319	ltpFR2	6	15	DAUGHTER	442	n/a	n/a	0	0	0
3453.462	n/a	WORD	1726731	wordpools/wasnorm_wordpool_576.txt	LTP319	ltpFR2	6	15	COURSE	390	n/a	n/a	0	0	0
3456.074	n/a	WORD	1728037	wordpools/wasnorm_wordpool_576.txt	LTP319	ltpFR2	6	15	ELBOW	520	n/a	n/a	0	0	0
3457.682	n/a	START	1728841	n/a	LTP319	ltpFR2	6	n/a	n/a	n/a	21	n/a	n/a	n/a	n/a
3458.61	n/a	DISTRACTOR	1729305	n/a	LTP319	ltpFR2	6	15	n/a	n/a	n/a	n/a	0	0	0
3458.616	n/a	PROB	1729308	n/a	LTP319	ltpFR2	6	n/a	n/a	n/a	21	8	3	2	3
3461.35	n/a	PROB	1730675	n/a	LTP319	ltpFR2	6	n/a	n/a	n/a	21	22	8	5	9
3465.504	n/a	PROB	1732752	n/a	LTP319	ltpFR2	6	n/a	n/a	n/a	21	7	2	1	4
3467.254	n/a	PROB	1733627	n/a	LTP319	ltpFR2	6	n/a	n/a	n/a	21	12	8	1	3
3468.74	n/a	PROB	1734370	n/a	LTP319	ltpFR2	6	n/a	n/a	n/a	21	19	6	8	5
3471.342	n/a	PROB	1735671	n/a	LTP319	ltpFR2	6	n/a	n/a	n/a	21	11	1	6	4
3473.176	n/a	PROB	1736588	n/a	LTP319	ltpFR2	6	n/a	n/a	n/a	21	10	3	4	3
3475.996	n/a	PROB	1737998	n/a	LTP319	ltpFR2	6	n/a	n/a	n/a	21	19	9	3	7
3477.596	n/a	PROB	1738798	n/a	LTP319	ltpFR2	6	n/a	n/a	n/a	21	14	5	1	8
3479.33	n/a	PROB	1739665	n/a	LTP319	ltpFR2	6	n/a	n/a	n/a	21	12	1	6	5
3481.408	n/a	STOP	1740704	n/a	LTP319	ltpFR2	6	n/a	n/a	n/a	21	n/a	n/a	n/a	n/a
3483.57	n/a	REC_START	1741785	n/a	LTP319	ltpFR2	6	15	n/a	n/a	n/a	n/a	0	0	0
3484.814	n/a	REC_WORD	1742407	wordpools/wasnorm_wordpool_576.txt	LTP319	ltpFR2	6	15	GRAVEL	659	n/a	n/a	0	0	0
3492.096	n/a	REC_WORD	1746048	wordpools/wasnorm_wordpool_576.txt	LTP319	ltpFR2	6	15	SODA	1341	n/a	n/a	0	0	0
3493.698	n/a	REC_WORD	1746849	wordpools/wasnorm_wordpool_576.txt	LTP319	ltpFR2	6	15	STUDENT	1395	n/a	n/a	0	0	0
3494.92	n/a	REC_WORD	1747460	wordpools/wasnorm_wordpool_576.txt	LTP319	ltpFR2	6	15	CROSS	413	n/a	n/a	0	0	0
3496.014	n/a	REC_WORD	1748007	wordpools/wasnorm_wordpool_576.txt	LTP319	ltpFR2	6	15	PIGMENT	1066	n/a	n/a	0	0	0
3507.154	n/a	REC_WORD	1753577	wordpools/wasnorm_wordpool_576.txt	LTP319	ltpFR2	6	15	DOUGHNUT	490	n/a	n/a	0	0	0
3508.236	n/a	REC_WORD	1754118	wordpools/wasnorm_wordpool_576.txt	LTP319	ltpFR2	6	15	LAGOON	795	n/a	n/a	0	0	0
3574.038	n/a	WORD	1787019	wordpools/wasnorm_wordpool_576.txt	LTP319	ltpFR2	6	16	TWISTER	1530	n/a	n/a	0	0	0
3576.692	n/a	WORD	1788346	wordpools/wasnorm_wordpool_576.txt	LTP319	ltpFR2	6	16	FILM	565	n/a	n/a	0	0	0
3579.442	n/a	WORD	1789721	wordpools/wasnorm_wordpool_576.txt	LTP319	ltpFR2	6	16	MOP	916	n/a	n/a	0	0	0
3581.944	n/a	WORD	1790972	wordpools/wasnorm_wordpool_576.txt	LTP319	ltpFR2	6	16	DUSTPAN	509	n/a	n/a	0	0	0
3584.414	n/a	WORD	1792207	wordpools/wasnorm_wordpool_576.txt	LTP319	ltpFR2	6	16	CYCLONE	431	n/a	n/a	0	0	0
3587.05	n/a	WORD	1793525	wordpools/wasnorm_wordpool_576.txt	LTP319	ltpFR2	6	16	SLIME	1327	n/a	n/a	0	0	0
3589.734	n/a	WORD	1794867	wordpools/wasnorm_wordpool_576.txt	LTP319	ltpFR2	6	16	PARSLEY	1016	n/a	n/a	0	0	0
3592.27	n/a	WORD	1796135	wordpools/wasnorm_wordpool_576.txt	LTP319	ltpFR2	6	16	WIFE	1609	n/a	n/a	0	0	0
3594.772	n/a	WORD	1797386	wordpools/wasnorm_wordpool_576.txt	LTP319	ltpFR2	6	16	ARM	38	n/a	n/a	0	0	0
3597.54	n/a	WORD	1798770	wordpools/wasnorm_wordpool_576.txt	LTP319	ltpFR2	6	16	PEPPER	1047	n/a	n/a	0	0	0
3600.18	n/a	WORD	1800090	wordpools/wasnorm_wordpool_576.txt	LTP319	ltpFR2	6	16	FRAME	600	n/a	n/a	0	0	0
3602.878	n/a	WORD	1801439	wordpools/wasnorm_wordpool_576.txt	LTP319	ltpFR2	6	16	COTTAGE	384	n/a	n/a	0	0	0
3605.496	n/a	WORD	1802748	wordpools/wasnorm_wordpool_576.txt	LTP319	ltpFR2	6	16	TRANSPLANT	1496	n/a	n/a	0	0	0
3608.1	n/a	WORD	1804050	wordpools/wasnorm_wordpool_576.txt	LTP319	ltpFR2	6	16	JUNGLE	764	n/a	n/a	0	0	0
3610.818	n/a	WORD	1805409	wordpools/wasnorm_wordpool_576.txt	LTP319	ltpFR2	6	16	PROTON	1132	n/a	n/a	0	0	0
3613.586	n/a	WORD	1806793	wordpools/wasnorm_wordpool_576.txt	LTP319	ltpFR2	6	16	ROBIN	1199	n/a	n/a	0	0	0
3616.322	n/a	WORD	1808161	wordpools/wasnorm_wordpool_576.txt	LTP319	ltpFR2	6	16	RACKET	1155	n/a	n/a	0	0	0
3618.924	n/a	WORD	1809462	wordpools/wasnorm_wordpool_576.txt	LTP319	ltpFR2	6	16	PACKAGE	997	n/a	n/a	0	0	0
3621.598	n/a	WORD	1810799	wordpools/wasnorm_wordpool_576.txt	LTP319	ltpFR2	6	16	CREVICE	405	n/a	n/a	0	0	0
3624.112	n/a	WORD	1812056	wordpools/wasnorm_wordpool_576.txt	LTP319	ltpFR2	6	16	GREASE	660	n/a	n/a	0	0	0
3626.896	n/a	WORD	1813448	wordpools/wasnorm_wordpool_576.txt	LTP319	ltpFR2	6	16	SNAIL	1332	n/a	n/a	0	0	0
3629.482	n/a	WORD	1814741	wordpools/wasnorm_wordpool_576.txt	LTP319	ltpFR2	6	16	CLAM	315	n/a	n/a	0	0	0
3632.038	n/a	WORD	1816019	wordpools/wasnorm_wordpool_576.txt	LTP319	ltpFR2	6	16	FLESH	579	n/a	n/a	0	0	0
3634.57	n/a	WORD	1817285	wordpools/wasnorm_wordpool_576.txt	LTP319	ltpFR2	6	16	DINER	467	n/a	n/a	0	0	0
3636.176	n/a	START	1818088	n/a	LTP319	ltpFR2	6	n/a	n/a	n/a	22	n/a	n/a	n/a	n/a
3637.076	n/a	DISTRACTOR	1818538	n/a	LTP319	ltpFR2	6	16	n/a	n/a	n/a	n/a	0	0	0
3637.088	n/a	PROB	1818544	n/a	LTP319	ltpFR2	6	n/a	n/a	n/a	22	15	4	7	4
3639.506	n/a	PROB	1819753	n/a	LTP319	ltpFR2	6	n/a	n/a	n/a	22	19	9	9	1
3641.04	n/a	PROB	1820520	n/a	LTP319	ltpFR2	6	n/a	n/a	n/a	22	12	5	4	3
3642.458	n/a	PROB	1821229	n/a	LTP319	ltpFR2	6	n/a	n/a	n/a	22	11	4	6	1
3644.142	n/a	PROB	1822071	n/a	LTP319	ltpFR2	6	n/a	n/a	n/a	22	16	2	6	8
3645.978	n/a	PROB	1822989	n/a	LTP319	ltpFR2	6	n/a	n/a	n/a	22	11	2	5	4
3647.83	n/a	PROB	1823915	n/a	LTP319	ltpFR2	6	n/a	n/a	n/a	22	11	4	6	1
3649.132	n/a	PROB	1824566	n/a	LTP319	ltpFR2	6	n/a	n/a	n/a	22	17	9	6	2
3651.648	n/a	PROB	1825824	n/a	LTP319	ltpFR2	6	n/a	n/a	n/a	22	1	4	5	4
3653.366	n/a	PROB	1826683	n/a	LTP319	ltpFR2	6	n/a	n/a	n/a	22	6	1	1	4
3655.05	n/a	PROB	1827525	n/a	LTP319	ltpFR2	6	n/a	n/a	n/a	22	19	6	9	4
3657.836	n/a	PROB	1828918	n/a	LTP319	ltpFR2	6	n/a	n/a	n/a	22	16	5	8	3
3659.842	n/a	STOP	1829921	n/a	LTP319	ltpFR2	6	n/a	n/a	n/a	22	n/a	n/a	n/a	n/a
3661.924	n/a	REC_START	1830962	n/a	LTP319	ltpFR2	6	16	n/a	n/a	n/a	n/a	0	0	0
3663.558	n/a	REC_WORD	1831779	wordpools/wasnorm_wordpool_576.txt	LTP319	ltpFR2	6	16	CREVICE	405	n/a	n/a	0	0	0
3664.648	n/a	REC_WORD	1832324	wordpools/wasnorm_wordpool_576.txt	LTP319	ltpFR2	6	16	GREASE	660	n/a	n/a	0	0	0
3665.39	n/a	REC_WORD	1832695	wordpools/wasnorm_wordpool_576.txt	LTP319	ltpFR2	6	16	SNAIL	1332	n/a	n/a	0	0	0
3666.536	n/a	REC_WORD	1833268	wordpools/wasnorm_wordpool_576.txt	LTP319	ltpFR2	6	16	CLAM	315	n/a	n/a	0	0	0
3667.754	n/a	REC_WORD	1833877	wordpools/wasnorm_wordpool_576.txt	LTP319	ltpFR2	6	16	WIFE	1609	n/a	n/a	0	0	0
3668.656	n/a	REC_WORD	1834328	wordpools/wasnorm_wordpool_576.txt	LTP319	ltpFR2	6	16	PARSLEY	1016	n/a	n/a	0	0	0
3669.732	n/a	REC_WORD	1834866	wordpools/wasnorm_wordpool_576.txt	LTP319	ltpFR2	6	16	ARM	38	n/a	n/a	0	0	0
3670.754	n/a	REC_WORD	1835377	wordpools/wasnorm_wordpool_576.txt	LTP319	ltpFR2	6	16	PEPPER	1047	n/a	n/a	0	0	0
3671.534	n/a	REC_WORD	1835767	wordpools/wasnorm_wordpool_576.txt	LTP319	ltpFR2	6	16	FRAME	600	n/a	n/a	0	0	0
3672.62	n/a	REC_WORD	1836310	wordpools/wasnorm_wordpool_576.txt	LTP319	ltpFR2	6	16	COTTAGE	384	n/a	n/a	0	0	0
3674.066	n/a	REC_WORD	1837033	wordpools/wasnorm_wordpool_576.txt	LTP319	ltpFR2	6	16	CYCLONE	431	n/a	n/a	0	0	0
3675.222	n/a	REC_WORD	1837611	wordpools/wasnorm_wordpool_576.txt	LTP319	ltpFR2	6	16	DUSTPAN	509	n/a	n/a	0	0	0
3676.504	n/a	REC_WORD	1838252	wordpools/wasnorm_wordpool_576.txt	LTP319	ltpFR2	6	16	MOP	916	n/a	n/a	0	0	0
3677.346	n/a	REC_WORD	1838673	wordpools/wasnorm_wordpool_576.txt	LTP319	ltpFR2	6	16	SLIME	1327	n/a	n/a	0	0	0
3679.038	n/a	REC_WORD	1839519	wordpools/wasnorm_wordpool_576.txt	LTP319	ltpFR2	6	16	TRANSPLANT	1496	n/a	n/a	0	0	0
3680.038	n/a	REC_WORD_VV	1840019	wordpools/wasnorm_wordpool_576.txt	LTP319	ltpFR2	6	16	<>	-1	n/a	n/a	0	0	0
3681.842	n/a	REC_WORD	1840921	wordpools/wasnorm_wordpool_576.txt	LTP319	ltpFR2	6	16	ROBIN	1199	n/a	n/a	0	0	0
3683.046	n/a	REC_WORD	1841523	wordpools/wasnorm_wordpool_576.txt	LTP319	ltpFR2	6	16	RACKET	1155	n/a	n/a	0	0	0
3684.256	n/a	REC_WORD	1842128	wordpools/wasnorm_wordpool_576.txt	LTP319	ltpFR2	6	16	JUNGLE	764	n/a	n/a	0	0	0
3738.45	n/a	REST_REWET	1869225	n/a	LTP319	ltpFR2	6	16	n/a	n/a	n/a	n/a	0	0	0
4189.746	n/a	DISTRACTOR	2094873	n/a	LTP319	ltpFR2	6	17	n/a	n/a	n/a	n/a	0	0	0
4189.746	n/a	START	2094873	n/a	LTP319	ltpFR2	6	n/a	n/a	n/a	23	n/a	n/a	n/a	n/a
4189.762	n/a	PROB	2094881	n/a	LTP319	ltpFR2	6	n/a	n/a	n/a	23	14	1	4	9
4192.97	n/a	PROB	2096485	n/a	LTP319	ltpFR2	6	n/a	n/a	n/a	23	13	4	5	4
4196.006	n/a	PROB	2098003	n/a	LTP319	ltpFR2	6	n/a	n/a	n/a	23	17	6	3	8
4197.824	n/a	PROB	2098912	n/a	LTP319	ltpFR2	6	n/a	n/a	n/a	23	13	7	3	3
4199.542	n/a	PROB	2099771	n/a	LTP319	ltpFR2	6	n/a	n/a	n/a	23	19	8	2	9
4200.894	n/a	PROB	2100447	n/a	LTP319	ltpFR2	6	n/a	n/a	n/a	23	17	1	9	7
4202.412	n/a	PROB	2101206	n/a	LTP319	ltpFR2	6	n/a	n/a	n/a	23	9	2	6	1
4204.514	n/a	PROB	2102257	n/a	LTP319	ltpFR2	6	n/a	n/a	n/a	23	16	2	7	7
4207.132	n/a	PROB	2103566	n/a	LTP319	ltpFR2	6	n/a	n/a	n/a	23	24	8	7	9
4210.366	n/a	PROB	2105183	n/a	LTP319	ltpFR2	6	n/a	n/a	n/a	23	13	8	4	1
4213.564	n/a	STOP	2106782	n/a	LTP319	ltpFR2	6	n/a	n/a	n/a	23	n/a	n/a	n/a	n/a
4214.734	n/a	WORD	2107367	wordpools/wasnorm_wordpool_576.txt	LTP319	ltpFR2	6	17	CRUTCH	417	n/a	n/a	0	0	0
4217.188	n/a	WORD	2108594	wordpools/wasnorm_wordpool_576.txt	LTP319	ltpFR2	6	17	LEG	809	n/a	n/a	0	0	0
4219.888	n/a	WORD	2109944	wordpools/wasnorm_wordpool_576.txt	LTP319	ltpFR2	6	17	PLAID	1080	n/a	n/a	0	0	0
4222.474	n/a	WORD	2111237	wordpools/wasnorm_wordpool_576.txt	LTP319	ltpFR2	6	17	ZIPPER	1636	n/a	n/a	0	0	0
4224.91	n/a	WORD	2112455	wordpools/wasnorm_wordpool_576.txt	LTP319	ltpFR2	6	17	COLONEL	348	n/a	n/a	0	0	0
4227.61	n/a	WORD	2113805	wordpools/wasnorm_wordpool_576.txt	LTP319	ltpFR2	6	17	SEAFOOD	1260	n/a	n/a	0	0	0
4230.3	n/a	WORD	2115150	wordpools/wasnorm_wordpool_576.txt	LTP319	ltpFR2	6	17	TORTOISE	1486	n/a	n/a	0	0	0
4232.848	n/a	WORD	2116424	wordpools/wasnorm_wordpool_576.txt	LTP319	ltpFR2	6	17	QUARTER	1148	n/a	n/a	0	0	0
4235.568	n/a	WORD	2117784	wordpools/wasnorm_wordpool_576.txt	LTP319	ltpFR2	6	17	CONTRACT	368	n/a	n/a	0	0	0
4238.22	n/a	WORD	2119110	wordpools/wasnorm_wordpool_576.txt	LTP319	ltpFR2	6	17	CHIPMUNK	304	n/a	n/a	0	0	0
4240.758	n/a	WORD	2120379	wordpools/wasnorm_wordpool_576.txt	LTP319	ltpFR2	6	17	TOASTER	1472	n/a	n/a	0	0	0
4243.342	n/a	WORD	2121671	wordpools/wasnorm_wordpool_576.txt	LTP319	ltpFR2	6	17	BLOUSE	139	n/a	n/a	0	0	0
4245.81	n/a	WORD	2122905	wordpools/wasnorm_wordpool_576.txt	LTP319	ltpFR2	6	17	SALMON	1227	n/a	n/a	0	0	0
4248.262	n/a	WORD	2124131	wordpools/wasnorm_wordpool_576.txt	LTP319	ltpFR2	6	17	HELMET	702	n/a	n/a	0	0	0
4251.082	n/a	WORD	2125541	wordpools/wasnorm_wordpool_576.txt	LTP319	ltpFR2	6	17	BROOK	177	n/a	n/a	0	0	0
4253.866	n/a	WORD	2126933	wordpools/wasnorm_wordpool_576.txt	LTP319	ltpFR2	6	17	STAR	1373	n/a	n/a	0	0	0
4256.484	n/a	WORD	2128242	wordpools/wasnorm_wordpool_576.txt	LTP319	ltpFR2	6	17	CASHIER	254	n/a	n/a	0	0	0
4259.288	n/a	WORD	2129644	wordpools/wasnorm_wordpool_576.txt	LTP319	ltpFR2	6	17	MISSILE	900	n/a	n/a	0	0	0
4261.822	n/a	WORD	2130911	wordpools/wasnorm_wordpool_576.txt	LTP319	ltpFR2	6	17	SIDEWALK	1303	n/a	n/a	0	0	0
4264.424	n/a	WORD	2132212	wordpools/wasnorm_wordpool_576.txt	LTP319	ltpFR2	6	17	MILDEW	893	n/a	n/a	0	0	0
4266.994	n/a	WORD	2133497	wordpools/wasnorm_wordpool_576.txt	LTP319	ltpFR2	6	17	COD	340	n/a	n/a	0	0	0
4269.546	n/a	WORD	2134773	wordpools/wasnorm_wordpool_576.txt	LTP319	ltpFR2	6	17	SPACE	1345	n/a	n/a	0	0	0
4272.216	n/a	WORD	2136108	wordpools/wasnorm_wordpool_576.txt	LTP319	ltpFR2	6	17	SKIRT	1319	n/a	n/a	0	0	0
4274.9	n/a	WORD	2137450	wordpools/wasnorm_wordpool_576.txt	LTP319	ltpFR2	6	17	SUNSET	1408	n/a	n/a	0	0	0
4276.52	n/a	START	2138260	n/a	LTP319	ltpFR2	6	n/a	n/a	n/a	24	n/a	n/a	n/a	n/a
4277.714	n/a	DISTRACTOR	2138857	n/a	LTP319	ltpFR2	6	17	n/a	n/a	n/a	n/a	0	0	0
4277.72	n/a	PROB	2138860	n/a	LTP319	ltpFR2	6	n/a	n/a	n/a	24	24	9	7	8
4282.156	n/a	PROB	2141078	n/a	LTP319	ltpFR2	6	n/a	n/a	n/a	24	19	2	9	7
4285.044	n/a	PROB	2142522	n/a	LTP319	ltpFR2	6	n/a	n/a	n/a	24	6	1	2	3
4287.912	n/a	PROB	2143956	n/a	LTP319	ltpFR2	6	n/a	n/a	n/a	24	17	2	7	8
4289.746	n/a	PROB	2144873	n/a	LTP319	ltpFR2	6	n/a	n/a	n/a	24	14	8	3	3
4291.712	n/a	PROB	2145856	n/a	LTP319	ltpFR2	6	n/a	n/a	n/a	24	17	7	1	9
4293.414	n/a	PROB	2146707	n/a	LTP319	ltpFR2	6	n/a	n/a	n/a	24	17	3	7	7
4295.034	n/a	PROB	2147517	n/a	LTP319	ltpFR2	6	n/a	n/a	n/a	24	20	9	5	6
4297.218	n/a	PROB	2148609	n/a	LTP319	ltpFR2	6	n/a	n/a	n/a	24	8	1	1	6
4298.636	n/a	PROB	2149318	n/a	LTP319	ltpFR2	6	n/a	n/a	n/a	24	5	2	1	2
4300.326	n/a	STOP	2150163	n/a	LTP319	ltpFR2	6	n/a	n/a	n/a	24	n/a	n/a	n/a	n/a
4302.472	n/a	REC_START	2151236	n/a	LTP319	ltpFR2	6	17	n/a	n/a	n/a	n/a	0	0	0
4303.41	n/a	REC_WORD	2151705	wordpools/wasnorm_wordpool_576.txt	LTP319	ltpFR2	6	17	COLONEL	348	n/a	n/a	0	0	0
4304.548	n/a	REC_WORD	2152274	wordpools/wasnorm_wordpool_576.txt	LTP319	ltpFR2	6	17	LEG	809	n/a	n/a	0	0	0
4305.58	n/a	REC_WORD	2152790	wordpools/wasnorm_wordpool_576.txt	LTP319	ltpFR2	6	17	CRUTCH	417	n/a	n/a	0	0	0
4306.696	n/a	REC_WORD	2153348	wordpools/wasnorm_wordpool_576.txt	LTP319	ltpFR2	6	17	PLAID	1080	n/a	n/a	0	0	0
4307.79	n/a	REC_WORD	2153895	wordpools/wasnorm_wordpool_576.txt	LTP319	ltpFR2	6	17	ZIPPER	1636	n/a	n/a	0	0	0
4309.29	n/a	REC_WORD	2154645	wordpools/wasnorm_wordpool_576.txt	LTP319	ltpFR2	6	17	SKIRT	1319	n/a	n/a	0	0	0
4310.626	n/a	REC_WORD	2155313	wordpools/wasnorm_wordpool_576.txt	LTP319	ltpFR2	6	17	SEAFOOD	1260	n/a	n/a	0	0	0
4311.742	n/a	REC_WORD	2155871	wordpools/wasnorm_wordpool_576.txt	LTP319	ltpFR2	6	17	SALMON	1227	n/a	n/a	0	0	0
4312.886	n/a	REC_WORD	2156443	wordpools/wasnorm_wordpool_576.txt	LTP319	ltpFR2	6	17	CASHIER	254	n/a	n/a	0	0	0
4314.142	n/a	REC_WORD	2157071	wordpools/wasnorm_wordpool_576.txt	LTP319	ltpFR2	6	17	MISSILE	900	n/a	n/a	0	0	0
4314.932	n/a	REC_WORD	2157466	wordpools/wasnorm_wordpool_576.txt	LTP319	ltpFR2	6	17	SIDEWALK	1303	n/a	n/a	0	0	0
4316.108	n/a	REC_WORD	2158054	wordpools/wasnorm_wordpool_576.txt	LTP319	ltpFR2	6	17	COD	340	n/a	n/a	0	0	0
4317.24	n/a	REC_WORD	2158620	wordpools/wasnorm_wordpool_576.txt	LTP319	ltpFR2	6	17	TORTOISE	1486	n/a	n/a	0	0	0
4327.976	n/a	REC_WORD	2163988	wordpools/wasnorm_wordpool_576.txt	LTP319	ltpFR2	6	17	TORTOISE	1486	n/a	n/a	0	0	0
4333.376	n/a	REC_WORD_VV	2166688	wordpools/wasnorm_wordpool_576.txt	LTP319	ltpFR2	6	17	<>	-1	n/a	n/a	0	0	0
4333.608	n/a	REC_WORD	2166804	wordpools/wasnorm_wordpool_576.txt	LTP319	ltpFR2	6	17	QUARTER	1148	n/a	n/a	0	0	0
4392.894	n/a	DISTRACTOR	2196447	n/a	LTP319	ltpFR2	6	18	n/a	n/a	n/a	n/a	0	0	0
4392.894	n/a	START	2196447	n/a	LTP319	ltpFR2	6	n/a	n/a	n/a	25	n/a	n/a	n/a	n/a
4392.908	n/a	PROB	2196454	n/a	LTP319	ltpFR2	6	n/a	n/a	n/a	25	6	2	1	3
4394.576	n/a	PROB	2197288	n/a	LTP319	ltpFR2	6	n/a	n/a	n/a	25	13	2	6	5
4396.662	n/a	PROB	2198331	n/a	LTP319	ltpFR2	6	n/a	n/a	n/a	25	15	3	8	4
4398.732	n/a	PROB	2199366	n/a	LTP319	ltpFR2	6	n/a	n/a	n/a	25	19	8	9	2
4400.364	n/a	PROB	2200182	n/a	LTP319	ltpFR2	6	n/a	n/a	n/a	25	16	9	5	2
4402.566	n/a	PROB	2201283	n/a	LTP319	ltpFR2	6	n/a	n/a	n/a	25	11	7	1	3
4404.302	n/a	PROB	2202151	n/a	LTP319	ltpFR2	6	n/a	n/a	n/a	25	11	6	3	2
4406.236	n/a	PROB	2203118	n/a	LTP319	ltpFR2	6	n/a	n/a	n/a	25	17	2	6	9
4408.088	n/a	PROB	2204044	n/a	LTP319	ltpFR2	6	n/a	n/a	n/a	25	17	2	6	9
4409.338	n/a	PROB	2204669	n/a	LTP319	ltpFR2	6	n/a	n/a	n/a	25	24	9	8	7
4411.172	n/a	PROB	2205586	n/a	LTP319	ltpFR2	6	n/a	n/a	n/a	25	18	8	7	3
4412.842	n/a	PROB	2206421	n/a	LTP319	ltpFR2	6	n/a	n/a	n/a	25	12	5	6	1
4416.894	n/a	STOP	2208447	n/a	LTP319	ltpFR2	6	n/a	n/a	n/a	25	n/a	n/a	n/a	n/a
4417.856	n/a	WORD	2208928	wordpools/wasnorm_wordpool_576.txt	LTP319	ltpFR2	6	18	CHAPEL	280	n/a	n/a	0	0	0
4420.524	n/a	WORD	2210262	wordpools/wasnorm_wordpool_576.txt	LTP319	ltpFR2	6	18	BALLOON	75	n/a	n/a	0	0	0
4422.96	n/a	WORD	2211480	wordpools/wasnorm_wordpool_576.txt	LTP319	ltpFR2	6	18	TURTLE	1522	n/a	n/a	0	0	0
4425.768	n/a	WORD	2212884	wordpools/wasnorm_wordpool_576.txt	LTP319	ltpFR2	6	18	VIKING	1565	n/a	n/a	0	0	0
4428.248	n/a	WORD	2214124	wordpools/wasnorm_wordpool_576.txt	LTP319	ltpFR2	6	18	GARLIC	624	n/a	n/a	0	0	0
4430.688	n/a	WORD	2215344	wordpools/wasnorm_wordpool_576.txt	LTP319	ltpFR2	6	18	GUITAR	670	n/a	n/a	0	0	0
4433.218	n/a	WORD	2216609	wordpools/wasnorm_wordpool_576.txt	LTP319	ltpFR2	6	18	PRIMATE	1123	n/a	n/a	0	0	0
4435.87	n/a	WORD	2217935	wordpools/wasnorm_wordpool_576.txt	LTP319	ltpFR2	6	18	HAWK	692	n/a	n/a	0	0	0
4438.456	n/a	WORD	2219228	wordpools/wasnorm_wordpool_576.txt	LTP319	ltpFR2	6	18	PERFUME	1049	n/a	n/a	0	0	0
4440.996	n/a	WORD	2220498	wordpools/wasnorm_wordpool_576.txt	LTP319	ltpFR2	6	18	NOVEL	960	n/a	n/a	0	0	0
4443.498	n/a	WORD	2221749	wordpools/wasnorm_wordpool_576.txt	LTP319	ltpFR2	6	18	RAFT	1159	n/a	n/a	0	0	0
4445.93	n/a	WORD	2222965	wordpools/wasnorm_wordpool_576.txt	LTP319	ltpFR2	6	18	SPONGE	1355	n/a	n/a	0	0	0
4448.548	n/a	WORD	2224274	wordpools/wasnorm_wordpool_576.txt	LTP319	ltpFR2	6	18	WHISKERS	1605	n/a	n/a	0	0	0
4451.052	n/a	WORD	2225526	wordpools/wasnorm_wordpool_576.txt	LTP319	ltpFR2	6	18	FIDDLE	561	n/a	n/a	0	0	0
4453.508	n/a	WORD	2226754	wordpools/wasnorm_wordpool_576.txt	LTP319	ltpFR2	6	18	CHILD	299	n/a	n/a	0	0	0
4456.004	n/a	WORD	2228002	wordpools/wasnorm_wordpool_576.txt	LTP319	ltpFR2	6	18	PATROL	1027	n/a	n/a	0	0	0
4458.812	n/a	WORD	2229406	wordpools/wasnorm_wordpool_576.txt	LTP319	ltpFR2	6	18	CONCERT	360	n/a	n/a	0	0	0
4461.61	n/a	WORD	2230805	wordpools/wasnorm_wordpool_576.txt	LTP319	ltpFR2	6	18	FRECKLE	602	n/a	n/a	0	0	0
4464.348	n/a	WORD	2232174	wordpools/wasnorm_wordpool_576.txt	LTP319	ltpFR2	6	18	ZEBRA	1635	n/a	n/a	0	0	0
4466.83	n/a	WORD	2233415	wordpools/wasnorm_wordpool_576.txt	LTP319	ltpFR2	6	18	STALLION	1369	n/a	n/a	0	0	0
4469.62	n/a	WORD	2234810	wordpools/wasnorm_wordpool_576.txt	LTP319	ltpFR2	6	18	POCKET	1093	n/a	n/a	0	0	0
4472.072	n/a	WORD	2236036	wordpools/wasnorm_wordpool_576.txt	LTP319	ltpFR2	6	18	RECEIPT	1173	n/a	n/a	0	0	0
4474.508	n/a	WORD	2237254	wordpools/wasnorm_wordpool_576.txt	LTP319	ltpFR2	6	18	TUNNEL	1519	n/a	n/a	0	0	0
4477.31	n/a	WORD	2238655	wordpools/wasnorm_wordpool_576.txt	LTP319	ltpFR2	6	18	IDOL	733	n/a	n/a	0	0	0
4478.924	n/a	START	2239462	n/a	LTP319	ltpFR2	6	n/a	n/a	n/a	26	n/a	n/a	n/a	n/a
4479.824	n/a	DISTRACTOR	2239912	n/a	LTP319	ltpFR2	6	18	n/a	n/a	n/a	n/a	0	0	0
4479.842	n/a	PROB	2239921	n/a	LTP319	ltpFR2	6	n/a	n/a	n/a	26	6	1	3	2
4481.542	n/a	PROB	2240771	n/a	LTP319	ltpFR2	6	n/a	n/a	n/a	26	15	2	8	5
4482.91	n/a	PROB	2241455	n/a	LTP319	ltpFR2	6	n/a	n/a	n/a	26	11	2	2	7
4484.844	n/a	PROB	2242422	n/a	LTP319	ltpFR2	6	n/a	n/a	n/a	26	16	6	8	2
4486.466	n/a	PROB	2243233	n/a	LTP319	ltpFR2	6	n/a	n/a	n/a	26	17	2	8	7
4488.898	n/a	PROB	2244449	n/a	LTP319	ltpFR2	6	n/a	n/a	n/a	26	15	4	8	3
4490.916	n/a	PROB	2245458	n/a	LTP319	ltpFR2	6	n/a	n/a	n/a	26	18	8	3	7
4492.42	n/a	PROB	2246210	n/a	LTP319	ltpFR2	6	n/a	n/a	n/a	26	13	3	6	4
4493.972	n/a	PROB	2246986	n/a	LTP319	ltpFR2	6	n/a	n/a	n/a	26	14	9	2	3
4496.474	n/a	PROB	2248237	n/a	LTP319	ltpFR2	6	n/a	n/a	n/a	26	15	4	8	3
4498.526	n/a	PROB	2249263	n/a	LTP319	ltpFR2	6	n/a	n/a	n/a	26	16	7	6	3
4500.244	n/a	PROB	2250122	n/a	LTP319	ltpFR2	6	n/a	n/a	n/a	26	14	3	6	5
4502.05	n/a	STOP	2251025	n/a	LTP319	ltpFR2	6	n/a	n/a	n/a	26	n/a	n/a	n/a	n/a
4504.698	n/a	REC_START	2252349	n/a	LTP319	ltpFR2	6	18	n/a	n/a	n/a	n/a	0	0	0
4507.032	n/a	REC_WORD	2253516	wordpools/wasnorm_wordpool_576.txt	LTP319	ltpFR2	6	18	TURTLE	1522	n/a	n/a	0	0	0
4508.07	n/a	REC_WORD	2254035	wordpools/wasnorm_wordpool_576.txt	LTP319	ltpFR2	6	18	CHAPEL	280	n/a	n/a	0	0	0
4509.016	n/a	REC_WORD	2254508	wordpools/wasnorm_wordpool_576.txt	LTP319	ltpFR2	6	18	VIKING	1565	n/a	n/a	0	0	0
4510.048	n/a	REC_WORD	2255024	wordpools/wasnorm_wordpool_576.txt	LTP319	ltpFR2	6	18	BALLOON	75	n/a	n/a	0	0	0
4512.054	n/a	REC_WORD	2256027	wordpools/wasnorm_wordpool_576.txt	LTP319	ltpFR2	6	18	RAFT	1159	n/a	n/a	0	0	0
4512.956	n/a	REC_WORD	2256478	wordpools/wasnorm_wordpool_576.txt	LTP319	ltpFR2	6	18	NOVEL	960	n/a	n/a	0	0	0
4513.908	n/a	REC_WORD	2256954	wordpools/wasnorm_wordpool_576.txt	LTP319	ltpFR2	6	18	SPONGE	1355	n/a	n/a	0	0	0
4595.118	n/a	DISTRACTOR	2297559	n/a	LTP319	ltpFR2	6	19	n/a	n/a	n/a	n/a	0	0	0
4595.118	n/a	START	2297559	n/a	LTP319	ltpFR2	6	n/a	n/a	n/a	27	n/a	n/a	n/a	n/a
4595.132	n/a	PROB	2297566	n/a	LTP319	ltpFR2	6	n/a	n/a	n/a	27	9	1	7	1
