onset	duration	trial_type	sample	stim_file	subject	experiment	session	trial	task	item_name	item_num	recog_conf	resp	color_b	color_g	color_r	case	font
253.196	n/a	SESS_START	126598	n/a	LTP102	ltpFR	14	n/a	n/a	n/a	n/a	3	n/a	n/a	n/a	n/a	n/a	n/a
288.752	n/a	WORD	144376	wordpools/wasnorm_wordpool.txt	LTP102	ltpFR	14	1	1	FURNITURE	616	n/a	0	0	0.5869140625	0.422607421875	lower	../fonts/zerothre.ttf
292.668	n/a	WORD	146334	wordpools/wasnorm_wordpool.txt	LTP102	ltpFR	14	1	1	BLUEPRINT	142	n/a	0	0	0.5869140625	0.422607421875	lower	../fonts/zerothre.ttf
296.626	n/a	WORD	148313	wordpools/wasnorm_wordpool.txt	LTP102	ltpFR	14	1	1	PORPOISE	1109	n/a	1	0	0.5869140625	0.422607421875	lower	../fonts/zerothre.ttf
300.594	n/a	WORD	150297	wordpools/wasnorm_wordpool.txt	LTP102	ltpFR	14	1	1	CREATURE	403	n/a	1	0	0.5869140625	0.422607421875	lower	../fonts/zerothre.ttf
304.46	n/a	WORD	152230	wordpools/wasnorm_wordpool.txt	LTP102	ltpFR	14	1	1	ELM	527	n/a	1	0	0.5869140625	0.422607421875	lower	../fonts/zerothre.ttf
308.334	n/a	WORD	154167	wordpools/wasnorm_wordpool.txt	LTP102	ltpFR	14	1	0	MAPLE	866	n/a	1	1	0.412841796875	0.57763671875	upper	../fonts/amplitud.ttf
312.352	n/a	WORD	156176	wordpools/wasnorm_wordpool.txt	LTP102	ltpFR	14	1	0	SHELTER	1282	n/a	1	1	0.412841796875	0.57763671875	upper	../fonts/amplitud.ttf
316.542	n/a	WORD	158271	wordpools/wasnorm_wordpool.txt	LTP102	ltpFR	14	1	0	ARENA	37	n/a	1	1	0.412841796875	0.57763671875	upper	../fonts/amplitud.ttf
320.492	n/a	WORD	160246	wordpools/wasnorm_wordpool.txt	LTP102	ltpFR	14	1	1	VETERAN	1561	n/a	1	0	0.5869140625	0.422607421875	lower	../fonts/zerothre.ttf
324.492	n/a	WORD	162246	wordpools/wasnorm_wordpool.txt	LTP102	ltpFR	14	1	1	RUM	1217	n/a	0	0	0.5869140625	0.422607421875	lower	../fonts/zerothre.ttf
328.6	n/a	WORD	164300	wordpools/wasnorm_wordpool.txt	LTP102	ltpFR	14	1	1	TOY	1492	n/a	0	0	0.5869140625	0.422607421875	lower	../fonts/zerothre.ttf
332.576	n/a	WORD	166288	wordpools/wasnorm_wordpool.txt	LTP102	ltpFR	14	1	0	SEAT	1264	n/a	1	1	0.412841796875	0.57763671875	upper	../fonts/amplitud.ttf
336.658	n/a	WORD	168329	wordpools/wasnorm_wordpool.txt	LTP102	ltpFR	14	1	0	CHESS	294	n/a	0	1	0.412841796875	0.57763671875	upper	../fonts/amplitud.ttf
340.784	n/a	WORD	170392	wordpools/wasnorm_wordpool.txt	LTP102	ltpFR	14	1	0	ROCKET	1202	n/a	1	1	0.412841796875	0.57763671875	upper	../fonts/amplitud.ttf
344.776	n/a	WORD	172388	wordpools/wasnorm_wordpool.txt	LTP102	ltpFR	14	1	0	ELECTRON	522	n/a	0	1	0.412841796875	0.57763671875	upper	../fonts/amplitud.ttf
348.874	n/a	WORD	174437	wordpools/wasnorm_wordpool.txt	LTP102	ltpFR	14	1	0	NUCLEUS	961	n/a	0	1	0.412841796875	0.57763671875	upper	../fonts/amplitud.ttf
354.734	n/a	REC_START	177367	n/a	LTP102	ltpFR	14	1	n/a	n/a	n/a	n/a	n/a	n/a	n/a	n/a	n/a	n/a
356.934	n/a	REC_WORD	178467	wordpools/wasnorm_wordpool.txt	LTP102	ltpFR	14	1	0	NUCLEUS	961	n/a	0	n/a	n/a	n/a	n/a	n/a
358.286	n/a	REC_WORD	179143	wordpools/wasnorm_wordpool.txt	LTP102	ltpFR	14	1	0	ELECTRON	522	n/a	0	n/a	n/a	n/a	n/a	n/a
359.818	n/a	REC_WORD	179909	wordpools/wasnorm_wordpool.txt	LTP102	ltpFR	14	1	1	RUM	1217	n/a	0	n/a	n/a	n/a	n/a	n/a
361.064	n/a	REC_WORD	180532	wordpools/wasnorm_wordpool.txt	LTP102	ltpFR	14	1	1	TOY	1492	n/a	0	n/a	n/a	n/a	n/a	n/a
362.148	n/a	REC_WORD	181074	wordpools/wasnorm_wordpool.txt	LTP102	ltpFR	14	1	1	FURNITURE	616	n/a	0	n/a	n/a	n/a	n/a	n/a
364.158	n/a	REC_WORD	182079	wordpools/wasnorm_wordpool.txt	LTP102	ltpFR	14	1	1	BLUEPRINT	142	n/a	0	n/a	n/a	n/a	n/a	n/a
366.458	n/a	REC_WORD	183229	wordpools/wasnorm_wordpool.txt	LTP102	ltpFR	14	1	1	VETERAN	1561	n/a	1	n/a	n/a	n/a	n/a	n/a
369.776	n/a	REC_WORD	184888	wordpools/wasnorm_wordpool.txt	LTP102	ltpFR	14	1	1	PORPOISE	1109	n/a	1	n/a	n/a	n/a	n/a	n/a
373.668	n/a	REC_WORD	186834	wordpools/wasnorm_wordpool.txt	LTP102	ltpFR	14	1	1	ELM	527	n/a	1	n/a	n/a	n/a	n/a	n/a
374.934	n/a	REC_WORD	187467	wordpools/wasnorm_wordpool.txt	LTP102	ltpFR	14	1	0	MAPLE	866	n/a	1	n/a	n/a	n/a	n/a	n/a
376.382	n/a	REC_WORD	188191	wordpools/wasnorm_wordpool.txt	LTP102	ltpFR	14	1	0	SEAT	1264	n/a	1	n/a	n/a	n/a	n/a	n/a
378.546	n/a	REC_WORD	189273	wordpools/wasnorm_wordpool.txt	LTP102	ltpFR	14	1	0	ARENA	37	n/a	1	n/a	n/a	n/a	n/a	n/a
380.352	n/a	REC_WORD	190176	wordpools/wasnorm_wordpool.txt	LTP102	ltpFR	14	1	0	ROCKET	1202	n/a	1	n/a	n/a	n/a	n/a	n/a
381.54	n/a	REC_WORD	190770	wordpools/wasnorm_wordpool.txt	LTP102	ltpFR	14	1	0	CHESS	294	n/a	0	n/a	n/a	n/a	n/a	n/a
434.524	n/a	WORD	217262	wordpools/wasnorm_wordpool.txt	LTP102	ltpFR	14	2	0	HOUND	724	n/a	n/a	1	0.412841796875	0.57763671875	upper	../fonts/amplitud.ttf
437.548	n/a	SLOW_MSG	218774	n/a	LTP102	ltpFR	14	2	n/a	n/a	n/a	n/a	n/a	n/a	n/a	n/a	n/a	n/a
440.106	n/a	WORD	220053	wordpools/wasnorm_wordpool.txt	LTP102	ltpFR	14	2	0	PRAIRIE	1118	n/a	1	1	0.412841796875	0.57763671875	upper	../fonts/amplitud.ttf
444.148	n/a	WORD	222074	wordpools/wasnorm_wordpool.txt	LTP102	ltpFR	14	2	0	POPE	1105	n/a	1	1	0.412841796875	0.57763671875	upper	../fonts/amplitud.ttf
448.03	n/a	WORD	224015	wordpools/wasnorm_wordpool.txt	LTP102	ltpFR	14	2	0	COD	340	n/a	0	1	0.412841796875	0.57763671875	upper	../fonts/amplitud.ttf
451.898	n/a	WORD	225949	wordpools/wasnorm_wordpool.txt	LTP102	ltpFR	14	2	1	RESTAURANT	1187	n/a	0	0	0.5869140625	0.422607421875	lower	../fonts/zerothre.ttf
455.84	n/a	WORD	227920	wordpools/wasnorm_wordpool.txt	LTP102	ltpFR	14	2	1	NOMAD	955	n/a	1	0	0.5869140625	0.422607421875	lower	../fonts/zerothre.ttf
459.864	n/a	WORD	229932	wordpools/wasnorm_wordpool.txt	LTP102	ltpFR	14	2	1	FRIAR	605	n/a	1	0	0.5869140625	0.422607421875	lower	../fonts/zerothre.ttf
463.93	n/a	WORD	231965	wordpools/wasnorm_wordpool.txt	LTP102	ltpFR	14	2	1	BEE	112	n/a	1	0	0.5869140625	0.422607421875	lower	../fonts/zerothre.ttf
467.948	n/a	WORD	233974	wordpools/wasnorm_wordpool.txt	LTP102	ltpFR	14	2	0	SICKLE	1302	n/a	0	1	0.412841796875	0.57763671875	upper	../fonts/amplitud.ttf
472.138	n/a	WORD	236069	wordpools/wasnorm_wordpool.txt	LTP102	ltpFR	14	2	0	CHEMICAL	291	n/a	0	1	0.412841796875	0.57763671875	upper	../fonts/amplitud.ttf
476.314	n/a	WORD	238157	wordpools/wasnorm_wordpool.txt	LTP102	ltpFR	14	2	0	EGYPT	519	n/a	1	1	0.412841796875	0.57763671875	upper	../fonts/amplitud.ttf
480.338	n/a	WORD	240169	wordpools/wasnorm_wordpool.txt	LTP102	ltpFR	14	2	0	SPHINX	1349	n/a	1	1	0.412841796875	0.57763671875	upper	../fonts/amplitud.ttf
484.238	n/a	WORD	242119	wordpools/wasnorm_wordpool.txt	LTP102	ltpFR	14	2	1	UNCLE	1536	n/a	1	0	0.5869140625	0.422607421875	lower	../fonts/zerothre.ttf
488.246	n/a	WORD	244123	wordpools/wasnorm_wordpool.txt	LTP102	ltpFR	14	2	1	LASH	802	n/a	1	0	0.5869140625	0.422607421875	lower	../fonts/zerothre.ttf
492.33	n/a	WORD	246165	wordpools/wasnorm_wordpool.txt	LTP102	ltpFR	14	2	1	CHIEF	298	n/a	1	0	0.5869140625	0.422607421875	lower	../fonts/zerothre.ttf
496.304	n/a	WORD	248152	wordpools/wasnorm_wordpool.txt	LTP102	ltpFR	14	2	1	MUSHROOM	934	n/a	1	0	0.5869140625	0.422607421875	lower	../fonts/zerothre.ttf
502.264	n/a	REC_START	251132	n/a	LTP102	ltpFR	14	2	n/a	n/a	n/a	n/a	n/a	n/a	n/a	n/a	n/a	n/a
506.02	n/a	REC_WORD	253010	wordpools/wasnorm_wordpool.txt	LTP102	ltpFR	14	2	1	MUSHROOM	934	n/a	1	n/a	n/a	n/a	n/a	n/a
507.816	n/a	REC_WORD	253908	wordpools/wasnorm_wordpool.txt	LTP102	ltpFR	14	2	1	CHIEF	298	n/a	1	n/a	n/a	n/a	n/a	n/a
512.092	n/a	REC_WORD	256046	wordpools/wasnorm_wordpool.txt	LTP102	ltpFR	14	2	1	FRIAR	605	n/a	1	n/a	n/a	n/a	n/a	n/a
513.698	n/a	REC_WORD	256849	wordpools/wasnorm_wordpool.txt	LTP102	ltpFR	14	2	0	POPE	1105	n/a	1	n/a	n/a	n/a	n/a	n/a
537.29	n/a	REC_WORD	268645	wordpools/wasnorm_wordpool.txt	LTP102	ltpFR	14	2	0	PRAIRIE	1118	n/a	1	n/a	n/a	n/a	n/a	n/a
570.578	n/a	REC_WORD	285289	wordpools/wasnorm_wordpool.txt	LTP102	ltpFR	14	2	1	LASH	802	n/a	1	n/a	n/a	n/a	n/a	n/a
574.458	n/a	REC_WORD	287229	wordpools/wasnorm_wordpool.txt	LTP102	ltpFR	14	2	0	COD	340	n/a	0	n/a	n/a	n/a	n/a	n/a
585.068	n/a	WORD	292534	wordpools/wasnorm_wordpool.txt	LTP102	ltpFR	14	3	0	DETERGENT	455	n/a	0	1	0.412841796875	0.57763671875	upper	../fonts/amplitud.ttf
588.986	n/a	WORD	294493	wordpools/wasnorm_wordpool.txt	LTP102	ltpFR	14	3	0	BUN	197	n/a	0	1	0.412841796875	0.57763671875	upper	../fonts/amplitud.ttf
593.152	n/a	WORD	296576	wordpools/wasnorm_wordpool.txt	LTP102	ltpFR	14	3	0	PEPPER	1047	n/a	0	1	0.412841796875	0.57763671875	upper	../fonts/amplitud.ttf
597.086	n/a	WORD	298543	wordpools/wasnorm_wordpool.txt	LTP102	ltpFR	14	3	0	HAND	683	n/a	1	1	0.412841796875	0.57763671875	upper	../fonts/amplitud.ttf
601.0	n/a	WORD	300500	wordpools/wasnorm_wordpool.txt	LTP102	ltpFR	14	3	0	BRICK	172	n/a	0	1	0.412841796875	0.57763671875	upper	../fonts/amplitud.ttf
605.144	n/a	WORD	302572	wordpools/wasnorm_wordpool.txt	LTP102	ltpFR	14	3	1	FIELD	562	n/a	0	0	0.5869140625	0.422607421875	lower	../fonts/zerothre.ttf
609.002	n/a	WORD	304501	wordpools/wasnorm_wordpool.txt	LTP102	ltpFR	14	3	1	BOTTLE	153	n/a	1	0	0.5869140625	0.422607421875	lower	../fonts/zerothre.ttf
612.884	n/a	WORD	306442	wordpools/wasnorm_wordpool.txt	LTP102	ltpFR	14	3	1	DRINK	498	n/a	0	0	0.5869140625	0.422607421875	lower	../fonts/zerothre.ttf
616.744	n/a	WORD	308372	wordpools/wasnorm_wordpool.txt	LTP102	ltpFR	14	3	1	BANKER	84	n/a	1	0	0.5869140625	0.422607421875	lower	../fonts/zerothre.ttf
620.784	n/a	WORD	310392	wordpools/wasnorm_wordpool.txt	LTP102	ltpFR	14	3	0	VAMPIRE	1547	n/a	1	1	0.412841796875	0.57763671875	upper	../fonts/amplitud.ttf
624.986	n/a	WORD	312493	wordpools/wasnorm_wordpool.txt	LTP102	ltpFR	14	3	0	PARTNER	1017	n/a	1	1	0.412841796875	0.57763671875	upper	../fonts/amplitud.ttf
628.96	n/a	WORD	314480	wordpools/wasnorm_wordpool.txt	LTP102	ltpFR	14	3	0	GUEST	669	n/a	1	1	0.412841796875	0.57763671875	upper	../fonts/amplitud.ttf
632.876	n/a	WORD	316438	wordpools/wasnorm_wordpool.txt	LTP102	ltpFR	14	3	1	HEART	697	n/a	1	0	0.5869140625	0.422607421875	lower	../fonts/zerothre.ttf
636.884	n/a	WORD	318442	wordpools/wasnorm_wordpool.txt	LTP102	ltpFR	14	3	1	LAUNDRY	803	n/a	0	0	0.5869140625	0.422607421875	lower	../fonts/zerothre.ttf
641.076	n/a	WORD	320538	wordpools/wasnorm_wordpool.txt	LTP102	ltpFR	14	3	1	VOLLEYBALL	1576	n/a	0	0	0.5869140625	0.422607421875	lower	../fonts/zerothre.ttf
645.126	n/a	WORD	322563	wordpools/wasnorm_wordpool.txt	LTP102	ltpFR	14	3	1	CROCODILE	411	n/a	1	0	0.5869140625	0.422607421875	lower	../fonts/zerothre.ttf
651.126	n/a	REC_START	325563	n/a	LTP102	ltpFR	14	3	n/a	n/a	n/a	n/a	n/a	n/a	n/a	n/a	n/a	n/a
653.576	n/a	REC_WORD	326788	wordpools/wasnorm_wordpool.txt	LTP102	ltpFR	14	3	1	CROCODILE	411	n/a	1	n/a	n/a	n/a	n/a	n/a
654.868	n/a	REC_WORD	327434	wordpools/wasnorm_wordpool.txt	LTP102	ltpFR	14	3	1	VOLLEYBALL	1576	n/a	0	n/a	n/a	n/a	n/a	n/a
658.19	n/a	REC_WORD	329095	wordpools/wasnorm_wordpool.txt	LTP102	ltpFR	14	3	0	VAMPIRE	1547	n/a	1	n/a	n/a	n/a	n/a	n/a
660.052	n/a	REC_WORD	330026	wordpools/wasnorm_wordpool.txt	LTP102	ltpFR	14	3	0	GUEST	669	n/a	1	n/a	n/a	n/a	n/a	n/a
662.346	n/a	REC_WORD	331173	wordpools/wasnorm_wordpool.txt	LTP102	ltpFR	14	3	1	HEART	697	n/a	1	n/a	n/a	n/a	n/a	n/a
665.554	n/a	REC_WORD	332777	wordpools/wasnorm_wordpool.txt	LTP102	ltpFR	14	3	1	LAUNDRY	803	n/a	0	n/a	n/a	n/a	n/a	n/a
676.994	n/a	REC_WORD	338497	wordpools/wasnorm_wordpool.txt	LTP102	ltpFR	14	3	0	PEPPER	1047	n/a	0	n/a	n/a	n/a	n/a	n/a
678.35	n/a	REC_WORD	339175	wordpools/wasnorm_wordpool.txt	LTP102	ltpFR	14	3	0	BUN	197	n/a	0	n/a	n/a	n/a	n/a	n/a
686.364	n/a	REC_WORD	343182	wordpools/wasnorm_wordpool.txt	LTP102	ltpFR	14	3	1	DRINK	498	n/a	0	n/a	n/a	n/a	n/a	n/a
687.84	n/a	REC_WORD	343920	wordpools/wasnorm_wordpool.txt	LTP102	ltpFR	14	3	1	BOTTLE	153	n/a	1	n/a	n/a	n/a	n/a	n/a
693.218	n/a	REC_WORD	346609	wordpools/wasnorm_wordpool.txt	LTP102	ltpFR	14	3	1	BANKER	84	n/a	1	n/a	n/a	n/a	n/a	n/a
941.202	n/a	WORD	470601	wordpools/wasnorm_wordpool.txt	LTP102	ltpFR	14	4	-1	LIMOUSINE	824	n/a	-1	1	1.0	1.0	upper	../fonts/Verdana.ttf
945.084	n/a	WORD	472542	wordpools/wasnorm_wordpool.txt	LTP102	ltpFR	14	4	-1	HALL	677	n/a	-1	1	1.0	1.0	upper	../fonts/Verdana.ttf
949.234	n/a	WORD	474617	wordpools/wasnorm_wordpool.txt	LTP102	ltpFR	14	4	-1	GRADUATE	653	n/a	-1	1	1.0	1.0	upper	../fonts/Verdana.ttf
953.21	n/a	WORD	476605	wordpools/wasnorm_wordpool.txt	LTP102	ltpFR	14	4	-1	SPINACH	1352	n/a	-1	1	1.0	1.0	upper	../fonts/Verdana.ttf
957.16	n/a	WORD	478580	wordpools/wasnorm_wordpool.txt	LTP102	ltpFR	14	4	-1	WATERFALL	1595	n/a	-1	1	1.0	1.0	upper	../fonts/Verdana.ttf
961.184	n/a	WORD	480592	wordpools/wasnorm_wordpool.txt	LTP102	ltpFR	14	4	-1	MOTOR	922	n/a	-1	1	1.0	1.0	upper	../fonts/Verdana.ttf
965.234	n/a	WORD	482617	wordpools/wasnorm_wordpool.txt	LTP102	ltpFR	14	4	-1	FLORIDA	582	n/a	-1	1	1.0	1.0	upper	../fonts/Verdana.ttf
969.142	n/a	WORD	484571	wordpools/wasnorm_wordpool.txt	LTP102	ltpFR	14	4	-1	ZOO	1637	n/a	-1	1	1.0	1.0	upper	../fonts/Verdana.ttf
973.184	n/a	WORD	486592	wordpools/wasnorm_wordpool.txt	LTP102	ltpFR	14	4	-1	CALCULATOR	220	n/a	-1	1	1.0	1.0	upper	../fonts/Verdana.ttf
977.2	n/a	WORD	488600	wordpools/wasnorm_wordpool.txt	LTP102	ltpFR	14	4	-1	STOOL	1386	n/a	-1	1	1.0	1.0	upper	../fonts/Verdana.ttf
981.034	n/a	WORD	490517	wordpools/wasnorm_wordpool.txt	LTP102	ltpFR	14	4	-1	GOVERNOR	651	n/a	-1	1	1.0	1.0	upper	../fonts/Verdana.ttf
985.184	n/a	WORD	492592	wordpools/wasnorm_wordpool.txt	LTP102	ltpFR	14	4	-1	CAVE	263	n/a	-1	1	1.0	1.0	upper	../fonts/Verdana.ttf
989.374	n/a	WORD	494687	wordpools/wasnorm_wordpool.txt	LTP102	ltpFR	14	4	-1	PIT	1077	n/a	-1	1	1.0	1.0	upper	../fonts/Verdana.ttf
993.434	n/a	WORD	496717	wordpools/wasnorm_wordpool.txt	LTP102	ltpFR	14	4	-1	JUPITER	765	n/a	-1	1	1.0	1.0	upper	../fonts/Verdana.ttf
997.276	n/a	WORD	498638	wordpools/wasnorm_wordpool.txt	LTP102	ltpFR	14	4	-1	PLANET	1082	n/a	-1	1	1.0	1.0	upper	../fonts/Verdana.ttf
1001.442	n/a	WORD	500721	wordpools/wasnorm_wordpool.txt	LTP102	ltpFR	14	4	-1	BEET	115	n/a	-1	1	1.0	1.0	upper	../fonts/Verdana.ttf
1007.008	n/a	REC_START	503504	n/a	LTP102	ltpFR	14	4	n/a	n/a	n/a	n/a	n/a	n/a	n/a	n/a	n/a	n/a
1008.86	n/a	REC_WORD	504430	wordpools/wasnorm_wordpool.txt	LTP102	ltpFR	14	4	-1	BEET	115	n/a	-1	n/a	n/a	n/a	n/a	n/a
1010.116	n/a	REC_WORD	505058	wordpools/wasnorm_wordpool.txt	LTP102	ltpFR	14	4	-1	PLANET	1082	n/a	-1	n/a	n/a	n/a	n/a	n/a
1011.444	n/a	REC_WORD	505722	wordpools/wasnorm_wordpool.txt	LTP102	ltpFR	14	4	-1	LIMOUSINE	824	n/a	-1	n/a	n/a	n/a	n/a	n/a
1014.138	n/a	REC_WORD	507069	wordpools/wasnorm_wordpool.txt	LTP102	ltpFR	14	4	-1	GOVERNOR	651	n/a	-1	n/a	n/a	n/a	n/a	n/a
1018.558	n/a	REC_WORD	509279	wordpools/wasnorm_wordpool.txt	LTP102	ltpFR	14	4	n/a	AMY	-1	n/a	n/a	n/a	n/a	n/a	n/a	n/a
1029.374	n/a	REC_WORD	514687	wordpools/wasnorm_wordpool.txt	LTP102	ltpFR	14	4	-1	JUPITER	765	n/a	-1	n/a	n/a	n/a	n/a	n/a
1032.174	n/a	REC_WORD	516087	wordpools/wasnorm_wordpool.txt	LTP102	ltpFR	14	4	n/a	RING	1193	n/a	n/a	n/a	n/a	n/a	n/a	n/a
1054.22	n/a	REC_WORD	527110	wordpools/wasnorm_wordpool.txt	LTP102	ltpFR	14	4	n/a	TREE	1502	n/a	n/a	n/a	n/a	n/a	n/a	n/a
1066.222	n/a	REC_WORD	533111	wordpools/wasnorm_wordpool.txt	LTP102	ltpFR	14	4	-1	ZOO	1637	n/a	-1	n/a	n/a	n/a	n/a	n/a
1073.67	n/a	REC_WORD	536835	wordpools/wasnorm_wordpool.txt	LTP102	ltpFR	14	4	n/a	MONKEY	911	n/a	n/a	n/a	n/a	n/a	n/a	n/a
1123.022	n/a	WORD	561511	wordpools/wasnorm_wordpool.txt	LTP102	ltpFR	14	5	-1	ANTENNA	28	n/a	-1	1	1.0	1.0	upper	../fonts/Verdana.ttf
1127.046	n/a	WORD	563523	wordpools/wasnorm_wordpool.txt	LTP102	ltpFR	14	5	-1	FACTORY	548	n/a	-1	1	1.0	1.0	upper	../fonts/Verdana.ttf
1131.138	n/a	WORD	565569	wordpools/wasnorm_wordpool.txt	LTP102	ltpFR	14	5	-1	WATER	1594	n/a	-1	1	1.0	1.0	upper	../fonts/Verdana.ttf
1134.956	n/a	WORD	567478	wordpools/wasnorm_wordpool.txt	LTP102	ltpFR	14	5	-1	CANAL	226	n/a	-1	1	1.0	1.0	upper	../fonts/Verdana.ttf
1139.028	n/a	WORD	569514	wordpools/wasnorm_wordpool.txt	LTP102	ltpFR	14	5	-1	POT	1114	n/a	-1	1	1.0	1.0	upper	../fonts/Verdana.ttf
1142.996	n/a	WORD	571498	wordpools/wasnorm_wordpool.txt	LTP102	ltpFR	14	5	-1	GREASE	660	n/a	-1	1	1.0	1.0	upper	../fonts/Verdana.ttf
1147.156	n/a	WORD	573578	wordpools/wasnorm_wordpool.txt	LTP102	ltpFR	14	5	-1	STAR	1373	n/a	-1	1	1.0	1.0	upper	../fonts/Verdana.ttf
1151.238	n/a	WORD	575619	wordpools/wasnorm_wordpool.txt	LTP102	ltpFR	14	5	-1	CONSUMER	365	n/a	-1	1	1.0	1.0	upper	../fonts/Verdana.ttf
1155.288	n/a	WORD	577644	wordpools/wasnorm_wordpool.txt	LTP102	ltpFR	14	5	-1	SCENERY	1247	n/a	-1	1	1.0	1.0	upper	../fonts/Verdana.ttf
1159.438	n/a	WORD	579719	wordpools/wasnorm_wordpool.txt	LTP102	ltpFR	14	5	-1	GROUND	666	n/a	-1	1	1.0	1.0	upper	../fonts/Verdana.ttf
1163.47	n/a	WORD	581735	wordpools/wasnorm_wordpool.txt	LTP102	ltpFR	14	5	-1	CONTAINER	366	n/a	-1	1	1.0	1.0	upper	../fonts/Verdana.ttf
1167.546	n/a	WORD	583773	wordpools/wasnorm_wordpool.txt	LTP102	ltpFR	14	5	-1	FLANNEL	574	n/a	-1	1	1.0	1.0	upper	../fonts/Verdana.ttf
1171.746	n/a	WORD	585873	wordpools/wasnorm_wordpool.txt	LTP102	ltpFR	14	5	-1	POLYESTER	1100	n/a	-1	1	1.0	1.0	upper	../fonts/Verdana.ttf
1175.912	n/a	WORD	587956	wordpools/wasnorm_wordpool.txt	LTP102	ltpFR	14	5	-1	TELESCOPE	1446	n/a	-1	1	1.0	1.0	upper	../fonts/Verdana.ttf
1179.904	n/a	WORD	589952	wordpools/wasnorm_wordpool.txt	LTP102	ltpFR	14	5	-1	VINEGAR	1569	n/a	-1	1	1.0	1.0	upper	../fonts/Verdana.ttf
1183.92	n/a	WORD	591960	wordpools/wasnorm_wordpool.txt	LTP102	ltpFR	14	5	-1	DUNE	506	n/a	-1	1	1.0	1.0	upper	../fonts/Verdana.ttf
1189.722	n/a	REC_START	594861	n/a	LTP102	ltpFR	14	5	n/a	n/a	n/a	n/a	n/a	n/a	n/a	n/a	n/a	n/a
1191.982	n/a	REC_WORD	595991	wordpools/wasnorm_wordpool.txt	LTP102	ltpFR	14	5	-1	DUNE	506	n/a	-1	n/a	n/a	n/a	n/a	n/a
1194.616	n/a	REC_WORD	597308	wordpools/wasnorm_wordpool.txt	LTP102	ltpFR	14	5	n/a	APPLE	33	n/a	n/a	n/a	n/a	n/a	n/a	n/a
1196.002	n/a	REC_WORD	598001	wordpools/wasnorm_wordpool.txt	LTP102	ltpFR	14	5	n/a	CIDER	-1	n/a	n/a	n/a	n/a	n/a	n/a	n/a
1198.012	n/a	REC_WORD	599006	wordpools/wasnorm_wordpool.txt	LTP102	ltpFR	14	5	-1	VINEGAR	1569	n/a	-1	n/a	n/a	n/a	n/a	n/a
1202.866	n/a	REC_WORD	601433	wordpools/wasnorm_wordpool.txt	LTP102	ltpFR	14	5	-1	GREASE	660	n/a	-1	n/a	n/a	n/a	n/a	n/a
1204.372	n/a	REC_WORD	602186	wordpools/wasnorm_wordpool.txt	LTP102	ltpFR	14	5	n/a	LIGHTNING	820	n/a	n/a	n/a	n/a	n/a	n/a	n/a
1207.552	n/a	REC_WORD	603776	wordpools/wasnorm_wordpool.txt	LTP102	ltpFR	14	5	-1	ANTENNA	28	n/a	-1	n/a	n/a	n/a	n/a	n/a
1209.078	n/a	REC_WORD	604539	wordpools/wasnorm_wordpool.txt	LTP102	ltpFR	14	5	-1	STAR	1373	n/a	-1	n/a	n/a	n/a	n/a	n/a
1216.128	n/a	REC_WORD	608064	wordpools/wasnorm_wordpool.txt	LTP102	ltpFR	14	5	-1	ZOO	1637	n/a	-1	n/a	n/a	n/a	n/a	n/a
1231.13	n/a	REC_WORD	615565	wordpools/wasnorm_wordpool.txt	LTP102	ltpFR	14	5	-1	FACTORY	548	n/a	-1	n/a	n/a	n/a	n/a	n/a
1234.526	n/a	REC_WORD	617263	wordpools/wasnorm_wordpool.txt	LTP102	ltpFR	14	5	n/a	MINER	896	n/a	n/a	n/a	n/a	n/a	n/a	n/a
1246.43	n/a	REC_WORD	623215	wordpools/wasnorm_wordpool.txt	LTP102	ltpFR	14	5	-1	FACTORY	548	n/a	-1	n/a	n/a	n/a	n/a	n/a
1263.208	n/a	REC_WORD	631604	wordpools/wasnorm_wordpool.txt	LTP102	ltpFR	14	5	n/a	WEED	1599	n/a	n/a	n/a	n/a	n/a	n/a	n/a
1271.934	n/a	WORD	635967	wordpools/wasnorm_wordpool.txt	LTP102	ltpFR	14	6	0	TREASURE	1500	n/a	1	1	0.412841796875	0.57763671875	upper	../fonts/amplitud.ttf
1275.868	n/a	WORD	637934	wordpools/wasnorm_wordpool.txt	LTP102	ltpFR	14	6	0	SNAIL	1332	n/a	0	1	0.412841796875	0.57763671875	upper	../fonts/amplitud.ttf
1279.792	n/a	WORD	639896	wordpools/wasnorm_wordpool.txt	LTP102	ltpFR	14	6	0	RING	1193	n/a	0	1	0.412841796875	0.57763671875	upper	../fonts/amplitud.ttf
1283.844	n/a	WORD	641922	wordpools/wasnorm_wordpool.txt	LTP102	ltpFR	14	6	0	BASKETBALL	96	n/a	1	1	0.412841796875	0.57763671875	upper	../fonts/amplitud.ttf
1287.744	n/a	WORD	643872	wordpools/wasnorm_wordpool.txt	LTP102	ltpFR	14	6	0	BALL	73	n/a	1	1	0.412841796875	0.57763671875	upper	../fonts/amplitud.ttf
1291.884	n/a	WORD	645942	wordpools/wasnorm_wordpool.txt	LTP102	ltpFR	14	6	0	COIN	343	n/a	0	1	0.412841796875	0.57763671875	upper	../fonts/amplitud.ttf
1295.834	n/a	WORD	647917	wordpools/wasnorm_wordpool.txt	LTP102	ltpFR	14	6	0	BROCCOLI	176	n/a	0	1	0.412841796875	0.57763671875	upper	../fonts/amplitud.ttf
1299.708	n/a	WORD	649854	wordpools/wasnorm_wordpool.txt	LTP102	ltpFR	14	6	0	CLOWN	330	n/a	1	1	0.412841796875	0.57763671875	upper	../fonts/amplitud.ttf
1303.584	n/a	WORD	651792	wordpools/wasnorm_wordpool.txt	LTP102	ltpFR	14	6	0	PASTA	1021	n/a	0	1	0.412841796875	0.57763671875	upper	../fonts/amplitud.ttf
1307.676	n/a	WORD	653838	wordpools/wasnorm_wordpool.txt	LTP102	ltpFR	14	6	0	VEGETABLE	1552	n/a	1	1	0.412841796875	0.57763671875	upper	../fonts/amplitud.ttf
1311.518	n/a	WORD	655759	wordpools/wasnorm_wordpool.txt	LTP102	ltpFR	14	6	0	TENT	1449	n/a	1	1	0.412841796875	0.57763671875	upper	../fonts/amplitud.ttf
1315.608	n/a	WORD	657804	wordpools/wasnorm_wordpool.txt	LTP102	ltpFR	14	6	0	WAITRESS	1581	n/a	1	1	0.412841796875	0.57763671875	upper	../fonts/amplitud.ttf
1319.808	n/a	WORD	659904	wordpools/wasnorm_wordpool.txt	LTP102	ltpFR	14	6	0	ASHTRAY	45	n/a	0	1	0.412841796875	0.57763671875	upper	../fonts/amplitud.ttf
1323.826	n/a	WORD	661913	wordpools/wasnorm_wordpool.txt	LTP102	ltpFR	14	6	0	POWDER	1117	n/a	1	1	0.412841796875	0.57763671875	upper	../fonts/amplitud.ttf
1327.916	n/a	WORD	663958	wordpools/wasnorm_wordpool.txt	LTP102	ltpFR	14	6	0	TREE	1502	n/a	1	1	0.412841796875	0.57763671875	upper	../fonts/amplitud.ttf
1331.734	n/a	WORD	665867	wordpools/wasnorm_wordpool.txt	LTP102	ltpFR	14	6	0	LEAF	808	n/a	0	1	0.412841796875	0.57763671875	upper	../fonts/amplitud.ttf
1337.558	n/a	REC_START	668779	n/a	LTP102	ltpFR	14	6	n/a	n/a	n/a	n/a	n/a	n/a	n/a	n/a	n/a	n/a
1338.876	n/a	REC_WORD	669438	wordpools/wasnorm_wordpool.txt	LTP102	ltpFR	14	6	0	LEAF	808	n/a	0	n/a	n/a	n/a	n/a	n/a
1340.776	n/a	REC_WORD	670388	wordpools/wasnorm_wordpool.txt	LTP102	ltpFR	14	6	-1	FACTORY	548	n/a	-1	n/a	n/a	n/a	n/a	n/a
1345.72	n/a	REC_WORD	672860	wordpools/wasnorm_wordpool.txt	LTP102	ltpFR	14	6	0	PEPPER	1047	n/a	0	n/a	n/a	n/a	n/a	n/a
1350.016	n/a	REC_WORD	675008	wordpools/wasnorm_wordpool.txt	LTP102	ltpFR	14	6	0	BROCCOLI	176	n/a	0	n/a	n/a	n/a	n/a	n/a
1355.664	n/a	REC_WORD	677832	wordpools/wasnorm_wordpool.txt	LTP102	ltpFR	14	6	0	VEGETABLE	1552	n/a	1	n/a	n/a	n/a	n/a	n/a
1360.044	n/a	REC_WORD	680022	wordpools/wasnorm_wordpool.txt	LTP102	ltpFR	14	6	0	BROCCOLI	176	n/a	0	n/a	n/a	n/a	n/a	n/a
1368.73	n/a	REC_WORD	684365	wordpools/wasnorm_wordpool.txt	LTP102	ltpFR	14	6	0	LEAF	808	n/a	0	n/a	n/a	n/a	n/a	n/a
1373.414	n/a	REC_WORD	686707	wordpools/wasnorm_wordpool.txt	LTP102	ltpFR	14	6	0	WAITRESS	1581	n/a	1	n/a	n/a	n/a	n/a	n/a
1377.286	n/a	REC_WORD	688643	wordpools/wasnorm_wordpool.txt	LTP102	ltpFR	14	6	-1	GOVERNOR	651	n/a	-1	n/a	n/a	n/a	n/a	n/a
1390.476	n/a	REC_WORD	695238	wordpools/wasnorm_wordpool.txt	LTP102	ltpFR	14	6	0	BALL	73	n/a	1	n/a	n/a	n/a	n/a	n/a
1392.272	n/a	REC_WORD	696136	wordpools/wasnorm_wordpool.txt	LTP102	ltpFR	14	6	0	BASKETBALL	96	n/a	1	n/a	n/a	n/a	n/a	n/a
1395.006	n/a	REC_WORD	697503	wordpools/wasnorm_wordpool.txt	LTP102	ltpFR	14	6	1	VOLLEYBALL	1576	n/a	0	n/a	n/a	n/a	n/a	n/a
1400.984	n/a	REC_WORD	700492	wordpools/wasnorm_wordpool.txt	LTP102	ltpFR	14	6	0	COIN	343	n/a	0	n/a	n/a	n/a	n/a	n/a
1408.7	n/a	REC_WORD	704350	wordpools/wasnorm_wordpool.txt	LTP102	ltpFR	14	6	n/a	QUARTER	1148	n/a	n/a	n/a	n/a	n/a	n/a	n/a
1421.356	n/a	WORD	710678	wordpools/wasnorm_wordpool.txt	LTP102	ltpFR	14	7	1	PERFUME	1049	n/a	0	0	0.5869140625	0.422607421875	lower	../fonts/zerothre.ttf
1425.19	n/a	WORD	712595	wordpools/wasnorm_wordpool.txt	LTP102	ltpFR	14	7	1	POLICE	1098	n/a	1	0	0.5869140625	0.422607421875	lower	../fonts/zerothre.ttf
1429.064	n/a	WORD	714532	wordpools/wasnorm_wordpool.txt	LTP102	ltpFR	14	7	1	SHEPHERD	1283	n/a	1	0	0.5869140625	0.422607421875	lower	../fonts/zerothre.ttf
1433.248	n/a	WORD	716624	wordpools/wasnorm_wordpool.txt	LTP102	ltpFR	14	7	1	STRANGER	1389	n/a	1	0	0.5869140625	0.422607421875	lower	../fonts/zerothre.ttf
1437.062	n/a	WORD	718531	wordpools/wasnorm_wordpool.txt	LTP102	ltpFR	14	7	1	COOKBOOK	373	n/a	0	0	0.5869140625	0.422607421875	lower	../fonts/zerothre.ttf
1441.13	n/a	WORD	720565	wordpools/wasnorm_wordpool.txt	LTP102	ltpFR	14	7	1	APRON	35	n/a	0	0	0.5869140625	0.422607421875	lower	../fonts/zerothre.ttf
1445.104	n/a	WORD	722552	wordpools/wasnorm_wordpool.txt	LTP102	ltpFR	14	7	1	SHOE	1288	n/a	0	0	0.5869140625	0.422607421875	lower	../fonts/zerothre.ttf
1448.914	n/a	WORD	724457	wordpools/wasnorm_wordpool.txt	LTP102	ltpFR	14	7	1	GULL	671	n/a	1	0	0.5869140625	0.422607421875	lower	../fonts/zerothre.ttf
1453.006	n/a	WORD	726503	wordpools/wasnorm_wordpool.txt	LTP102	ltpFR	14	7	1	SALOON	1228	n/a	0	0	0.5869140625	0.422607421875	lower	../fonts/zerothre.ttf
1457.038	n/a	WORD	728519	wordpools/wasnorm_wordpool.txt	LTP102	ltpFR	14	7	1	KEG	770	n/a	0	0	0.5869140625	0.422607421875	lower	../fonts/zerothre.ttf
1461.13	n/a	WORD	730565	wordpools/wasnorm_wordpool.txt	LTP102	ltpFR	14	7	1	UTENSIL	1542	n/a	0	0	0.5869140625	0.422607421875	lower	../fonts/zerothre.ttf
1464.996	n/a	WORD	732498	wordpools/wasnorm_wordpool.txt	LTP102	ltpFR	14	7	1	LUNCH	849	n/a	0	0	0.5869140625	0.422607421875	lower	../fonts/zerothre.ttf
1468.954	n/a	WORD	734477	wordpools/wasnorm_wordpool.txt	LTP102	ltpFR	14	7	1	POCKETBOOK	1094	n/a	0	0	0.5869140625	0.422607421875	lower	../fonts/zerothre.ttf
1472.98	n/a	WORD	736490	wordpools/wasnorm_wordpool.txt	LTP102	ltpFR	14	7	1	SEAGULL	1261	n/a	1	0	0.5869140625	0.422607421875	lower	../fonts/zerothre.ttf
1477.12	n/a	WORD	738560	wordpools/wasnorm_wordpool.txt	LTP102	ltpFR	14	7	1	PEOPLE	1046	n/a	1	0	0.5869140625	0.422607421875	lower	../fonts/zerothre.ttf
1480.98	n/a	WORD	740490	wordpools/wasnorm_wordpool.txt	LTP102	ltpFR	14	7	1	FINGERNAIL	568	n/a	1	0	0.5869140625	0.422607421875	lower	../fonts/zerothre.ttf
1486.63	n/a	REC_START	743315	n/a	LTP102	ltpFR	14	7	n/a	n/a	n/a	n/a	n/a	n/a	n/a	n/a	n/a	n/a
1487.678	n/a	REC_WORD	743839	wordpools/wasnorm_wordpool.txt	LTP102	ltpFR	14	7	1	FINGERNAIL	568	n/a	1	n/a	n/a	n/a	n/a	n/a
1490.082	n/a	REC_WORD	745041	wordpools/wasnorm_wordpool.txt	LTP102	ltpFR	14	7	1	PEOPLE	1046	n/a	1	n/a	n/a	n/a	n/a	n/a
1491.864	n/a	REC_WORD	745932	wordpools/wasnorm_wordpool.txt	LTP102	ltpFR	14	7	n/a	LOITER	-1	n/a	n/a	n/a	n/a	n/a	n/a	n/a
1496.658	n/a	REC_WORD	748329	wordpools/wasnorm_wordpool.txt	LTP102	ltpFR	14	7	n/a	PLAYER	-1	n/a	n/a	n/a	n/a	n/a	n/a	n/a
1504.864	n/a	REC_WORD	752432	wordpools/wasnorm_wordpool.txt	LTP102	ltpFR	14	7	1	PERFUME	1049	n/a	0	n/a	n/a	n/a	n/a	n/a
1506.7	n/a	REC_WORD	753350	wordpools/wasnorm_wordpool.txt	LTP102	ltpFR	14	7	1	POLICE	1098	n/a	1	n/a	n/a	n/a	n/a	n/a
1514.204	n/a	REC_WORD	757102	wordpools/wasnorm_wordpool.txt	LTP102	ltpFR	14	7	n/a	SONG	-1	n/a	n/a	n/a	n/a	n/a	n/a	n/a
1524.042	n/a	REC_WORD	762021	wordpools/wasnorm_wordpool.txt	LTP102	ltpFR	14	7	1	STRANGER	1389	n/a	1	n/a	n/a	n/a	n/a	n/a
1531.8	n/a	REC_WORD	765900	wordpools/wasnorm_wordpool.txt	LTP102	ltpFR	14	7	1	SEAGULL	1261	n/a	1	n/a	n/a	n/a	n/a	n/a
1536.31	n/a	REC_WORD	768155	wordpools/wasnorm_wordpool.txt	LTP102	ltpFR	14	7	1	POCKETBOOK	1094	n/a	0	n/a	n/a	n/a	n/a	n/a
1554.868	n/a	REC_WORD	777434	wordpools/wasnorm_wordpool.txt	LTP102	ltpFR	14	7	1	SEAGULL	1261	n/a	1	n/a	n/a	n/a	n/a	n/a
1560.282	n/a	REC_WORD	780141	wordpools/wasnorm_wordpool.txt	LTP102	ltpFR	14	7	n/a	WINGS	1614	n/a	n/a	n/a	n/a	n/a	n/a	n/a
1567.818	n/a	WORD	783909	wordpools/wasnorm_wordpool.txt	LTP102	ltpFR	14	8	0	STEWARDESS	1381	n/a	1	1	0.412841796875	0.57763671875	upper	../fonts/amplitud.ttf
1571.952	n/a	WORD	785976	wordpools/wasnorm_wordpool.txt	LTP102	ltpFR	14	8	0	LIBRARY	816	n/a	1	1	0.412841796875	0.57763671875	upper	../fonts/amplitud.ttf
1575.986	n/a	WORD	787993	wordpools/wasnorm_wordpool.txt	LTP102	ltpFR	14	8	0	MAGAZINE	853	n/a	1	1	0.412841796875	0.57763671875	upper	../fonts/amplitud.ttf
1580.01	n/a	WORD	790005	wordpools/wasnorm_wordpool.txt	LTP102	ltpFR	14	8	0	PONY	1102	n/a	1	1	0.412841796875	0.57763671875	upper	../fonts/amplitud.ttf
1583.936	n/a	WORD	791968	wordpools/wasnorm_wordpool.txt	LTP102	ltpFR	14	8	1	RANCH	1166	n/a	0	0	0.5869140625	0.422607421875	lower	../fonts/zerothre.ttf
1587.934	n/a	WORD	793967	wordpools/wasnorm_wordpool.txt	LTP102	ltpFR	14	8	1	KITE	779	n/a	0	0	0.5869140625	0.422607421875	lower	../fonts/zerothre.ttf
1591.976	n/a	WORD	795988	wordpools/wasnorm_wordpool.txt	LTP102	ltpFR	14	8	1	BELLY	119	n/a	1	0	0.5869140625	0.422607421875	lower	../fonts/zerothre.ttf
1595.868	n/a	WORD	797934	wordpools/wasnorm_wordpool.txt	LTP102	ltpFR	14	8	1	FLY	586	n/a	1	0	0.5869140625	0.422607421875	lower	../fonts/zerothre.ttf
1599.902	n/a	WORD	799951	wordpools/wasnorm_wordpool.txt	LTP102	ltpFR	14	8	1	MILITARY	894	n/a	1	0	0.5869140625	0.422607421875	lower	../fonts/zerothre.ttf
1603.934	n/a	WORD	801967	wordpools/wasnorm_wordpool.txt	LTP102	ltpFR	14	8	0	OVAL	990	n/a	0	1	0.412841796875	0.57763671875	upper	../fonts/amplitud.ttf
1607.934	n/a	WORD	803967	wordpools/wasnorm_wordpool.txt	LTP102	ltpFR	14	8	0	BRUNETTE	181	n/a	1	1	0.412841796875	0.57763671875	upper	../fonts/amplitud.ttf
1611.91	n/a	WORD	805955	wordpools/wasnorm_wordpool.txt	LTP102	ltpFR	14	8	1	LADY	794	n/a	1	0	0.5869140625	0.422607421875	lower	../fonts/zerothre.ttf
1615.844	n/a	WORD	807922	wordpools/wasnorm_wordpool.txt	LTP102	ltpFR	14	8	1	CHEST	295	n/a	1	0	0.5869140625	0.422607421875	lower	../fonts/zerothre.ttf
1619.676	n/a	WORD	809838	wordpools/wasnorm_wordpool.txt	LTP102	ltpFR	14	8	1	LINT	826	n/a	0	0	0.5869140625	0.422607421875	lower	../fonts/zerothre.ttf
1623.6	n/a	WORD	811800	wordpools/wasnorm_wordpool.txt	LTP102	ltpFR	14	8	0	CATERPILLAR	259	n/a	0	1	0.412841796875	0.57763671875	upper	../fonts/amplitud.ttf
1627.634	n/a	WORD	813817	wordpools/wasnorm_wordpool.txt	LTP102	ltpFR	14	8	0	DANCER	437	n/a	1	1	0.412841796875	0.57763671875	upper	../fonts/amplitud.ttf
1633.602	n/a	REC_START	816801	n/a	LTP102	ltpFR	14	8	n/a	n/a	n/a	n/a	n/a	n/a	n/a	n/a	n/a	n/a
1635.99	n/a	REC_WORD	817995	wordpools/wasnorm_wordpool.txt	LTP102	ltpFR	14	8	n/a	ANSWER	-1	n/a	n/a	n/a	n/a	n/a	n/a	n/a
1637.752	n/a	REC_WORD	818876	wordpools/wasnorm_wordpool.txt	LTP102	ltpFR	14	8	0	STEWARDESS	1381	n/a	1	n/a	n/a	n/a	n/a	n/a
1640.162	n/a	REC_WORD	820081	wordpools/wasnorm_wordpool.txt	LTP102	ltpFR	14	8	1	POCKETBOOK	1094	n/a	0	n/a	n/a	n/a	n/a	n/a
1644.576	n/a	REC_WORD	822288	wordpools/wasnorm_wordpool.txt	LTP102	ltpFR	14	8	n/a	WINGS	1614	n/a	n/a	n/a	n/a	n/a	n/a	n/a
1647.878	n/a	REC_WORD	823939	wordpools/wasnorm_wordpool.txt	LTP102	ltpFR	14	8	1	SEAGULL	1261	n/a	1	n/a	n/a	n/a	n/a	n/a
1658.83	n/a	REC_WORD	829415	wordpools/wasnorm_wordpool.txt	LTP102	ltpFR	14	8	1	POCKETBOOK	1094	n/a	0	n/a	n/a	n/a	n/a	n/a
1667.894	n/a	REC_WORD	833947	wordpools/wasnorm_wordpool.txt	LTP102	ltpFR	14	8	0	WAITRESS	1581	n/a	1	n/a	n/a	n/a	n/a	n/a
1676.85	n/a	REC_WORD	838425	wordpools/wasnorm_wordpool.txt	LTP102	ltpFR	14	8	1	POLICE	1098	n/a	1	n/a	n/a	n/a	n/a	n/a
1694.53	n/a	REC_WORD	847265	wordpools/wasnorm_wordpool.txt	LTP102	ltpFR	14	8	n/a	LIME	823	n/a	n/a	n/a	n/a	n/a	n/a	n/a
1717.782	n/a	WORD	858891	wordpools/wasnorm_wordpool.txt	LTP102	ltpFR	14	9	1	OTTER	986	n/a	1	0	0.5869140625	0.422607421875	lower	../fonts/zerothre.ttf
1721.932	n/a	WORD	860966	wordpools/wasnorm_wordpool.txt	LTP102	ltpFR	14	9	1	NITROGEN	954	n/a	0	0	0.5869140625	0.422607421875	lower	../fonts/zerothre.ttf
1725.822	n/a	WORD	862911	wordpools/wasnorm_wordpool.txt	LTP102	ltpFR	14	9	1	VAGRANT	1544	n/a	1	0	0.5869140625	0.422607421875	lower	../fonts/zerothre.ttf
1729.74	n/a	WORD	864870	wordpools/wasnorm_wordpool.txt	LTP102	ltpFR	14	9	1	TWIG	1527	n/a	0	0	0.5869140625	0.422607421875	lower	../fonts/zerothre.ttf
1733.566	n/a	WORD	866783	wordpools/wasnorm_wordpool.txt	LTP102	ltpFR	14	9	1	HANDKERCHIEF	686	n/a	0	0	0.5869140625	0.422607421875	lower	../fonts/zerothre.ttf
1737.674	n/a	WORD	868837	wordpools/wasnorm_wordpool.txt	LTP102	ltpFR	14	9	1	RECIPE	1175	n/a	0	0	0.5869140625	0.422607421875	lower	../fonts/zerothre.ttf
1741.682	n/a	WORD	870841	wordpools/wasnorm_wordpool.txt	LTP102	ltpFR	14	9	1	TIDE	1465	n/a	0	0	0.5869140625	0.422607421875	lower	../fonts/zerothre.ttf
1745.74	n/a	WORD	872870	wordpools/wasnorm_wordpool.txt	LTP102	ltpFR	14	9	1	DISH	474	n/a	0	0	0.5869140625	0.422607421875	lower	../fonts/zerothre.ttf
1749.948	n/a	WORD	874974	wordpools/wasnorm_wordpool.txt	LTP102	ltpFR	14	9	1	STEM	1376	n/a	1	0	0.5869140625	0.422607421875	lower	../fonts/zerothre.ttf
1754.148	n/a	WORD	877074	wordpools/wasnorm_wordpool.txt	LTP102	ltpFR	14	9	1	PEARL	1034	n/a	0	0	0.5869140625	0.422607421875	lower	../fonts/zerothre.ttf
1758.248	n/a	WORD	879124	wordpools/wasnorm_wordpool.txt	LTP102	ltpFR	14	9	1	EARRING	514	n/a	0	0	0.5869140625	0.422607421875	lower	../fonts/zerothre.ttf
1762.164	n/a	WORD	881082	wordpools/wasnorm_wordpool.txt	LTP102	ltpFR	14	9	1	LOBSTER	837	n/a	1	0	0.5869140625	0.422607421875	lower	../fonts/zerothre.ttf
1766.356	n/a	WORD	883178	wordpools/wasnorm_wordpool.txt	LTP102	ltpFR	14	9	1	BARRACUDA	90	n/a	1	0	0.5869140625	0.422607421875	lower	../fonts/zerothre.ttf
1770.23	n/a	WORD	885115	wordpools/wasnorm_wordpool.txt	LTP102	ltpFR	14	9	1	SILVERWARE	1308	n/a	0	0	0.5869140625	0.422607421875	lower	../fonts/zerothre.ttf
1774.356	n/a	WORD	887178	wordpools/wasnorm_wordpool.txt	LTP102	ltpFR	14	9	1	POSSUM	1112	n/a	1	0	0.5869140625	0.422607421875	lower	../fonts/zerothre.ttf
1778.514	n/a	WORD	889257	wordpools/wasnorm_wordpool.txt	LTP102	ltpFR	14	9	1	FARM	552	n/a	0	0	0.5869140625	0.422607421875	lower	../fonts/zerothre.ttf
1784.272	n/a	REC_START	892136	n/a	LTP102	ltpFR	14	9	n/a	n/a	n/a	n/a	n/a	n/a	n/a	n/a	n/a	n/a
1786.208	n/a	REC_WORD	893104	wordpools/wasnorm_wordpool.txt	LTP102	ltpFR	14	9	1	FARM	552	n/a	0	n/a	n/a	n/a	n/a	n/a
1788.3	n/a	REC_WORD	894150	wordpools/wasnorm_wordpool.txt	LTP102	ltpFR	14	9	1	POSSUM	1112	n/a	1	n/a	n/a	n/a	n/a	n/a
1790.578	n/a	REC_WORD	895289	wordpools/wasnorm_wordpool.txt	LTP102	ltpFR	14	9	1	LADY	794	n/a	1	n/a	n/a	n/a	n/a	n/a
1797.418	n/a	REC_WORD	898709	wordpools/wasnorm_wordpool.txt	LTP102	ltpFR	14	9	1	VAGRANT	1544	n/a	1	n/a	n/a	n/a	n/a	n/a
1801.698	n/a	REC_WORD	900849	wordpools/wasnorm_wordpool.txt	LTP102	ltpFR	14	9	1	NITROGEN	954	n/a	0	n/a	n/a	n/a	n/a	n/a
1806.218	n/a	REC_WORD	903109	wordpools/wasnorm_wordpool.txt	LTP102	ltpFR	14	9	1	MILITARY	894	n/a	1	n/a	n/a	n/a	n/a	n/a
1815.218	n/a	REC_WORD	907609	wordpools/wasnorm_wordpool.txt	LTP102	ltpFR	14	9	1	POSSUM	1112	n/a	1	n/a	n/a	n/a	n/a	n/a
1818.99	n/a	REC_WORD	909495	wordpools/wasnorm_wordpool.txt	LTP102	ltpFR	14	9	1	OTTER	986	n/a	1	n/a	n/a	n/a	n/a	n/a
1823.23	n/a	REC_WORD	911615	wordpools/wasnorm_wordpool.txt	LTP102	ltpFR	14	9	1	STEM	1376	n/a	1	n/a	n/a	n/a	n/a	n/a
1827.182	n/a	REC_WORD	913591	wordpools/wasnorm_wordpool.txt	LTP102	ltpFR	14	9	1	HANDKERCHIEF	686	n/a	0	n/a	n/a	n/a	n/a	n/a
1829.188	n/a	REC_WORD	914594	wordpools/wasnorm_wordpool.txt	LTP102	ltpFR	14	9	1	POCKETBOOK	1094	n/a	0	n/a	n/a	n/a	n/a	n/a
1830.64	n/a	REC_WORD	915320	wordpools/wasnorm_wordpool.txt	LTP102	ltpFR	14	9	1	RECIPE	1175	n/a	0	n/a	n/a	n/a	n/a	n/a
1838.476	n/a	REC_WORD	919238	wordpools/wasnorm_wordpool.txt	LTP102	ltpFR	14	9	1	PERFUME	1049	n/a	0	n/a	n/a	n/a	n/a	n/a
1846.47	n/a	REC_WORD	923235	wordpools/wasnorm_wordpool.txt	LTP102	ltpFR	14	9	-1	GOVERNOR	651	n/a	-1	n/a	n/a	n/a	n/a	n/a
1855.708	n/a	REC_WORD	927854	wordpools/wasnorm_wordpool.txt	LTP102	ltpFR	14	9	n/a	RICE	1190	n/a	n/a	n/a	n/a	n/a	n/a	n/a
1864.52	n/a	WORD	932260	wordpools/wasnorm_wordpool.txt	LTP102	ltpFR	14	10	-1	PARENT	1013	n/a	-1	1	1.0	1.0	upper	../fonts/Verdana.ttf
1868.404	n/a	WORD	934202	wordpools/wasnorm_wordpool.txt	LTP102	ltpFR	14	10	-1	CHILD	299	n/a	-1	1	1.0	1.0	upper	../fonts/Verdana.ttf
1872.544	n/a	WORD	936272	wordpools/wasnorm_wordpool.txt	LTP102	ltpFR	14	10	-1	CAGE	218	n/a	-1	1	1.0	1.0	upper	../fonts/Verdana.ttf
1876.686	n/a	WORD	938343	wordpools/wasnorm_wordpool.txt	LTP102	ltpFR	14	10	-1	RASH	1167	n/a	-1	1	1.0	1.0	upper	../fonts/Verdana.ttf
1880.586	n/a	WORD	940293	wordpools/wasnorm_wordpool.txt	LTP102	ltpFR	14	10	-1	TELEPHONE	1445	n/a	-1	1	1.0	1.0	upper	../fonts/Verdana.ttf
1884.486	n/a	WORD	942243	wordpools/wasnorm_wordpool.txt	LTP102	ltpFR	14	10	-1	BRIEFCASE	175	n/a	-1	1	1.0	1.0	upper	../fonts/Verdana.ttf
1888.628	n/a	WORD	944314	wordpools/wasnorm_wordpool.txt	LTP102	ltpFR	14	10	-1	WASHER	1592	n/a	-1	1	1.0	1.0	upper	../fonts/Verdana.ttf
1892.46	n/a	WORD	946230	wordpools/wasnorm_wordpool.txt	LTP102	ltpFR	14	10	-1	GROCERIES	663	n/a	-1	1	1.0	1.0	upper	../fonts/Verdana.ttf
1896.644	n/a	WORD	948322	wordpools/wasnorm_wordpool.txt	LTP102	ltpFR	14	10	-1	MEAL	882	n/a	-1	1	1.0	1.0	upper	../fonts/Verdana.ttf
1900.526	n/a	WORD	950263	wordpools/wasnorm_wordpool.txt	LTP102	ltpFR	14	10	-1	TERRITORY	1452	n/a	-1	1	1.0	1.0	upper	../fonts/Verdana.ttf
1904.668	n/a	WORD	952334	wordpools/wasnorm_wordpool.txt	LTP102	ltpFR	14	10	-1	HAWK	692	n/a	-1	1	1.0	1.0	upper	../fonts/Verdana.ttf
1908.744	n/a	WORD	954372	wordpools/wasnorm_wordpool.txt	LTP102	ltpFR	14	10	-1	GATE	625	n/a	-1	1	1.0	1.0	upper	../fonts/Verdana.ttf
1912.586	n/a	WORD	956293	wordpools/wasnorm_wordpool.txt	LTP102	ltpFR	14	10	-1	WIRE	1616	n/a	-1	1	1.0	1.0	upper	../fonts/Verdana.ttf
1916.668	n/a	WORD	958334	wordpools/wasnorm_wordpool.txt	LTP102	ltpFR	14	10	-1	WAREHOUSE	1588	n/a	-1	1	1.0	1.0	upper	../fonts/Verdana.ttf
1920.86	n/a	WORD	960430	wordpools/wasnorm_wordpool.txt	LTP102	ltpFR	14	10	-1	OPERA	978	n/a	-1	1	1.0	1.0	upper	../fonts/Verdana.ttf
1924.936	n/a	WORD	962468	wordpools/wasnorm_wordpool.txt	LTP102	ltpFR	14	10	-1	TREAT	1501	n/a	-1	1	1.0	1.0	upper	../fonts/Verdana.ttf
1930.652	n/a	REC_START	965326	n/a	LTP102	ltpFR	14	10	n/a	n/a	n/a	n/a	n/a	n/a	n/a	n/a	n/a	n/a
1932.07	n/a	REC_WORD	966035	wordpools/wasnorm_wordpool.txt	LTP102	ltpFR	14	10	-1	TREAT	1501	n/a	-1	n/a	n/a	n/a	n/a	n/a
1933.63	n/a	REC_WORD	966815	wordpools/wasnorm_wordpool.txt	LTP102	ltpFR	14	10	n/a	TRICK	-1	n/a	n/a	n/a	n/a	n/a	n/a	n/a
1938.58	n/a	REC_WORD	969290	wordpools/wasnorm_wordpool.txt	LTP102	ltpFR	14	10	n/a	PHANTOM	-1	n/a	n/a	n/a	n/a	n/a	n/a	n/a
1940.046	n/a	REC_WORD	970023	wordpools/wasnorm_wordpool.txt	LTP102	ltpFR	14	10	-1	OPERA	978	n/a	-1	n/a	n/a	n/a	n/a	n/a
1943.958	n/a	REC_WORD	971979	wordpools/wasnorm_wordpool.txt	LTP102	ltpFR	14	10	1	HANDKERCHIEF	686	n/a	0	n/a	n/a	n/a	n/a	n/a
1946.358	n/a	REC_WORD	973179	wordpools/wasnorm_wordpool.txt	LTP102	ltpFR	14	10	-1	PARENT	1013	n/a	-1	n/a	n/a	n/a	n/a	n/a
1947.46	n/a	REC_WORD	973730	wordpools/wasnorm_wordpool.txt	LTP102	ltpFR	14	10	-1	CHILD	299	n/a	-1	n/a	n/a	n/a	n/a	n/a
1950.554	n/a	REC_WORD	975277	wordpools/wasnorm_wordpool.txt	LTP102	ltpFR	14	10	-1	GATE	625	n/a	-1	n/a	n/a	n/a	n/a	n/a
1955.362	n/a	REC_WORD	977681	wordpools/wasnorm_wordpool.txt	LTP102	ltpFR	14	10	n/a	DOOR	486	n/a	n/a	n/a	n/a	n/a	n/a	n/a
1969.626	n/a	REC_WORD	984813	wordpools/wasnorm_wordpool.txt	LTP102	ltpFR	14	10	n/a	TWITTER	-1	n/a	n/a	n/a	n/a	n/a	n/a	n/a
1976.664	n/a	REC_WORD	988332	wordpools/wasnorm_wordpool.txt	LTP102	ltpFR	14	10	1	MILITARY	894	n/a	1	n/a	n/a	n/a	n/a	n/a
1987.89	n/a	REC_WORD	993945	wordpools/wasnorm_wordpool.txt	LTP102	ltpFR	14	10	1	NITROGEN	954	n/a	0	n/a	n/a	n/a	n/a	n/a
1995.344	n/a	REC_WORD	997672	wordpools/wasnorm_wordpool.txt	LTP102	ltpFR	14	10	-1	GATE	625	n/a	-1	n/a	n/a	n/a	n/a	n/a
2004.414	n/a	REC_WORD	1002207	wordpools/wasnorm_wordpool.txt	LTP102	ltpFR	14	10	-1	PARENT	1013	n/a	-1	n/a	n/a	n/a	n/a	n/a
2013.6	n/a	WORD	1006800	wordpools/wasnorm_wordpool.txt	LTP102	ltpFR	14	11	1	MOTORCYCLE	923	n/a	0	0	0.5869140625	0.422607421875	lower	../fonts/zerothre.ttf
2017.79	n/a	WORD	1008895	wordpools/wasnorm_wordpool.txt	LTP102	ltpFR	14	11	1	FIN	566	n/a	1	0	0.5869140625	0.422607421875	lower	../fonts/zerothre.ttf
2021.982	n/a	WORD	1010991	wordpools/wasnorm_wordpool.txt	LTP102	ltpFR	14	11	0	FUDGE	611	n/a	0	1	0.412841796875	0.57763671875	upper	../fonts/amplitud.ttf
2026.058	n/a	WORD	1013029	wordpools/wasnorm_wordpool.txt	LTP102	ltpFR	14	11	0	COBBLER	335	n/a	0	1	0.412841796875	0.57763671875	upper	../fonts/amplitud.ttf
2030.048	n/a	WORD	1015024	wordpools/wasnorm_wordpool.txt	LTP102	ltpFR	14	11	0	DRUM	502	n/a	1	1	0.412841796875	0.57763671875	upper	../fonts/amplitud.ttf
2033.948	n/a	WORD	1016974	wordpools/wasnorm_wordpool.txt	LTP102	ltpFR	14	11	0	NERVE	944	n/a	0	1	0.412841796875	0.57763671875	upper	../fonts/amplitud.ttf
2038.13	n/a	WORD	1019065	wordpools/wasnorm_wordpool.txt	LTP102	ltpFR	14	11	1	MOLECULE	905	n/a	0	0	0.5869140625	0.422607421875	lower	../fonts/zerothre.ttf
2042.174	n/a	WORD	1021087	wordpools/wasnorm_wordpool.txt	LTP102	ltpFR	14	11	1	CASHEW	253	n/a	1	0	0.5869140625	0.422607421875	lower	../fonts/zerothre.ttf
2046.08	n/a	WORD	1023040	wordpools/wasnorm_wordpool.txt	LTP102	ltpFR	14	11	1	WALNUT	1584	n/a	1	0	0.5869140625	0.422607421875	lower	../fonts/zerothre.ttf
2050.24	n/a	WORD	1025120	wordpools/wasnorm_wordpool.txt	LTP102	ltpFR	14	11	0	TOWEL	1489	n/a	1	1	0.412841796875	0.57763671875	upper	../fonts/amplitud.ttf
2054.224	n/a	WORD	1027112	wordpools/wasnorm_wordpool.txt	LTP102	ltpFR	14	11	0	THIEF	1456	n/a	1	1	0.412841796875	0.57763671875	upper	../fonts/amplitud.ttf
2058.272	n/a	WORD	1029136	wordpools/wasnorm_wordpool.txt	LTP102	ltpFR	14	11	0	KEYBOARD	774	n/a	1	1	0.412841796875	0.57763671875	upper	../fonts/amplitud.ttf
2062.198	n/a	WORD	1031099	wordpools/wasnorm_wordpool.txt	LTP102	ltpFR	14	11	0	SALMON	1227	n/a	0	1	0.412841796875	0.57763671875	upper	../fonts/amplitud.ttf
2066.298	n/a	WORD	1033149	wordpools/wasnorm_wordpool.txt	LTP102	ltpFR	14	11	1	VELVET	1555	n/a	0	0	0.5869140625	0.422607421875	lower	../fonts/zerothre.ttf
2070.19	n/a	WORD	1035095	wordpools/wasnorm_wordpool.txt	LTP102	ltpFR	14	11	1	ORCHID	982	n/a	1	0	0.5869140625	0.422607421875	lower	../fonts/zerothre.ttf
2074.206	n/a	WORD	1037103	wordpools/wasnorm_wordpool.txt	LTP102	ltpFR	14	11	1	COLT	349	n/a	1	0	0.5869140625	0.422607421875	lower	../fonts/zerothre.ttf
2080.122	n/a	REC_START	1040061	n/a	LTP102	ltpFR	14	11	n/a	n/a	n/a	n/a	n/a	n/a	n/a	n/a	n/a	n/a
2081.414	n/a	REC_WORD	1040707	wordpools/wasnorm_wordpool.txt	LTP102	ltpFR	14	11	1	COLT	349	n/a	1	n/a	n/a	n/a	n/a	n/a
2082.752	n/a	REC_WORD	1041376	wordpools/wasnorm_wordpool.txt	LTP102	ltpFR	14	11	1	ORCHID	982	n/a	1	n/a	n/a	n/a	n/a	n/a
2084.472	n/a	REC_WORD	1042236	wordpools/wasnorm_wordpool.txt	LTP102	ltpFR	14	11	-1	OPERA	978	n/a	-1	n/a	n/a	n/a	n/a	n/a
2086.748	n/a	REC_WORD	1043374	wordpools/wasnorm_wordpool.txt	LTP102	ltpFR	14	11	n/a	PHANTOM	-1	n/a	n/a	n/a	n/a	n/a	n/a	n/a
2092.144	n/a	REC_WORD	1046072	wordpools/wasnorm_wordpool.txt	LTP102	ltpFR	14	11	-1	GATE	625	n/a	-1	n/a	n/a	n/a	n/a	n/a
2095.832	n/a	REC_WORD	1047916	wordpools/wasnorm_wordpool.txt	LTP102	ltpFR	14	11	-1	CHILD	299	n/a	-1	n/a	n/a	n/a	n/a	n/a
2097.108	n/a	REC_WORD	1048554	wordpools/wasnorm_wordpool.txt	LTP102	ltpFR	14	11	1	WALNUT	1584	n/a	1	n/a	n/a	n/a	n/a	n/a
2099.334	n/a	REC_WORD	1049667	wordpools/wasnorm_wordpool.txt	LTP102	ltpFR	14	11	1	CASHEW	253	n/a	1	n/a	n/a	n/a	n/a	n/a
2102.308	n/a	REC_WORD	1051154	wordpools/wasnorm_wordpool.txt	LTP102	ltpFR	14	11	0	TREE	1502	n/a	1	n/a	n/a	n/a	n/a	n/a
2104.348	n/a	REC_WORD	1052174	wordpools/wasnorm_wordpool.txt	LTP102	ltpFR	14	11	-1	PARENT	1013	n/a	-1	n/a	n/a	n/a	n/a	n/a
2106.958	n/a	REC_WORD	1053479	wordpools/wasnorm_wordpool.txt	LTP102	ltpFR	14	11	0	FUDGE	611	n/a	0	n/a	n/a	n/a	n/a	n/a
2109.616	n/a	REC_WORD	1054808	wordpools/wasnorm_wordpool.txt	LTP102	ltpFR	14	11	n/a	BUTTERSCOTCH	-1	n/a	n/a	n/a	n/a	n/a	n/a	n/a
2113.218	n/a	REC_WORD	1056609	wordpools/wasnorm_wordpool.txt	LTP102	ltpFR	14	11	0	FUDGE	611	n/a	0	n/a	n/a	n/a	n/a	n/a
2117.608	n/a	REC_WORD	1058804	wordpools/wasnorm_wordpool.txt	LTP102	ltpFR	14	11	n/a	LICORICE	-1	n/a	n/a	n/a	n/a	n/a	n/a	n/a
2127.596	n/a	REC_WORD	1063798	wordpools/wasnorm_wordpool.txt	LTP102	ltpFR	14	11	1	WALNUT	1584	n/a	1	n/a	n/a	n/a	n/a	n/a
2129.528	n/a	REC_WORD	1064764	wordpools/wasnorm_wordpool.txt	LTP102	ltpFR	14	11	1	CASHEW	253	n/a	1	n/a	n/a	n/a	n/a	n/a
2133.572	n/a	REC_WORD	1066786	wordpools/wasnorm_wordpool.txt	LTP102	ltpFR	14	11	1	STEM	1376	n/a	1	n/a	n/a	n/a	n/a	n/a
2140.752	n/a	REC_WORD	1070376	wordpools/wasnorm_wordpool.txt	LTP102	ltpFR	14	11	1	POCKETBOOK	1094	n/a	0	n/a	n/a	n/a	n/a	n/a
2144.42	n/a	REC_WORD	1072210	wordpools/wasnorm_wordpool.txt	LTP102	ltpFR	14	11	1	RECIPE	1175	n/a	0	n/a	n/a	n/a	n/a	n/a
2146.02	n/a	REC_WORD	1073010	wordpools/wasnorm_wordpool.txt	LTP102	ltpFR	14	11	1	HANDKERCHIEF	686	n/a	0	n/a	n/a	n/a	n/a	n/a
2163.37	n/a	WORD	1081685	wordpools/wasnorm_wordpool.txt	LTP102	ltpFR	14	12	0	HAT	690	n/a	1	1	0.412841796875	0.57763671875	upper	../fonts/amplitud.ttf
2167.204	n/a	WORD	1083602	wordpools/wasnorm_wordpool.txt	LTP102	ltpFR	14	12	0	SUNSET	1408	n/a	1	1	0.412841796875	0.57763671875	upper	../fonts/amplitud.ttf
2171.17	n/a	WORD	1085585	wordpools/wasnorm_wordpool.txt	LTP102	ltpFR	14	12	0	CABIN	211	n/a	1	1	0.412841796875	0.57763671875	upper	../fonts/amplitud.ttf
2175.194	n/a	WORD	1087597	wordpools/wasnorm_wordpool.txt	LTP102	ltpFR	14	12	0	OCTOPUS	971	n/a	1	1	0.412841796875	0.57763671875	upper	../fonts/amplitud.ttf
2179.396	n/a	WORD	1089698	wordpools/wasnorm_wordpool.txt	LTP102	ltpFR	14	12	0	SARDINE	1235	n/a	0	1	0.412841796875	0.57763671875	upper	../fonts/amplitud.ttf
2183.586	n/a	WORD	1091793	wordpools/wasnorm_wordpool.txt	LTP102	ltpFR	14	12	0	MERMAID	887	n/a	1	1	0.412841796875	0.57763671875	upper	../fonts/amplitud.ttf
2187.62	n/a	WORD	1093810	wordpools/wasnorm_wordpool.txt	LTP102	ltpFR	14	12	0	SCAPEGOAT	1244	n/a	1	1	0.412841796875	0.57763671875	upper	../fonts/amplitud.ttf
2191.47	n/a	WORD	1095735	wordpools/wasnorm_wordpool.txt	LTP102	ltpFR	14	12	0	TRAITOR	1495	n/a	1	1	0.412841796875	0.57763671875	upper	../fonts/amplitud.ttf
2195.628	n/a	WORD	1097814	wordpools/wasnorm_wordpool.txt	LTP102	ltpFR	14	12	0	KETCHUP	771	n/a	0	1	0.412841796875	0.57763671875	upper	../fonts/amplitud.ttf
2199.662	n/a	WORD	1099831	wordpools/wasnorm_wordpool.txt	LTP102	ltpFR	14	12	0	BUILDER	190	n/a	1	1	0.412841796875	0.57763671875	upper	../fonts/amplitud.ttf
2203.552	n/a	WORD	1101776	wordpools/wasnorm_wordpool.txt	LTP102	ltpFR	14	12	0	EMERALD	528	n/a	1	1	0.412841796875	0.57763671875	upper	../fonts/amplitud.ttf
2207.57	n/a	WORD	1103785	wordpools/wasnorm_wordpool.txt	LTP102	ltpFR	14	12	0	CORN	381	n/a	0	1	0.412841796875	0.57763671875	upper	../fonts/amplitud.ttf
2211.752	n/a	WORD	1105876	wordpools/wasnorm_wordpool.txt	LTP102	ltpFR	14	12	0	OLIVE	975	n/a	0	1	0.412841796875	0.57763671875	upper	../fonts/amplitud.ttf
2215.718	n/a	WORD	1107859	wordpools/wasnorm_wordpool.txt	LTP102	ltpFR	14	12	0	GRASS	655	n/a	0	1	0.412841796875	0.57763671875	upper	../fonts/amplitud.ttf
2219.87	n/a	WORD	1109935	wordpools/wasnorm_wordpool.txt	LTP102	ltpFR	14	12	0	PIER	1063	n/a	1	1	0.412841796875	0.57763671875	upper	../fonts/amplitud.ttf
2223.728	n/a	WORD	1111864	wordpools/wasnorm_wordpool.txt	LTP102	ltpFR	14	12	0	MAYONNAISE	880	n/a	0	1	0.412841796875	0.57763671875	upper	../fonts/amplitud.ttf
2229.47	n/a	REC_START	1114735	n/a	LTP102	ltpFR	14	12	n/a	n/a	n/a	n/a	n/a	n/a	n/a	n/a	n/a	n/a
2230.472	n/a	REC_WORD	1115236	wordpools/wasnorm_wordpool.txt	LTP102	ltpFR	14	12	0	PIER	1063	n/a	1	n/a	n/a	n/a	n/a	n/a
2232.312	n/a	REC_WORD	1116156	wordpools/wasnorm_wordpool.txt	LTP102	ltpFR	14	12	0	SUNSET	1408	n/a	1	n/a	n/a	n/a	n/a	n/a
2234.334	n/a	REC_WORD	1117167	wordpools/wasnorm_wordpool.txt	LTP102	ltpFR	14	12	0	MAYONNAISE	880	n/a	0	n/a	n/a	n/a	n/a	n/a
2236.884	n/a	REC_WORD	1118442	wordpools/wasnorm_wordpool.txt	LTP102	ltpFR	14	12	n/a	HORIZON	717	n/a	n/a	n/a	n/a	n/a	n/a	n/a
2240.32	n/a	REC_WORD	1120160	wordpools/wasnorm_wordpool.txt	LTP102	ltpFR	14	12	1	MILITARY	894	n/a	1	n/a	n/a	n/a	n/a	n/a
2243.034	n/a	REC_WORD	1121517	wordpools/wasnorm_wordpool.txt	LTP102	ltpFR	14	12	1	COLT	349	n/a	1	n/a	n/a	n/a	n/a	n/a
2248.152	n/a	REC_WORD	1124076	wordpools/wasnorm_wordpool.txt	LTP102	ltpFR	14	12	-1	GATE	625	n/a	-1	n/a	n/a	n/a	n/a	n/a
2251.884	n/a	REC_WORD	1125942	wordpools/wasnorm_wordpool.txt	LTP102	ltpFR	14	12	n/a	BIBLE	124	n/a	n/a	n/a	n/a	n/a	n/a	n/a
2267.426	n/a	REC_WORD	1133713	wordpools/wasnorm_wordpool.txt	LTP102	ltpFR	14	12	0	HAT	690	n/a	1	n/a	n/a	n/a	n/a	n/a
2272.618	n/a	REC_WORD	1136309	wordpools/wasnorm_wordpool.txt	LTP102	ltpFR	14	12	-1	LIMOUSINE	824	n/a	-1	n/a	n/a	n/a	n/a	n/a
2277.548	n/a	REC_WORD	1138774	wordpools/wasnorm_wordpool.txt	LTP102	ltpFR	14	12	-1	CHILD	299	n/a	-1	n/a	n/a	n/a	n/a	n/a
2278.836	n/a	REC_WORD	1139418	wordpools/wasnorm_wordpool.txt	LTP102	ltpFR	14	12	-1	PARENT	1013	n/a	-1	n/a	n/a	n/a	n/a	n/a
2284.228	n/a	REC_WORD	1142114	wordpools/wasnorm_wordpool.txt	LTP102	ltpFR	14	12	1	PEOPLE	1046	n/a	1	n/a	n/a	n/a	n/a	n/a
2305.09	n/a	REST_REWET	1152545	n/a	LTP102	ltpFR	14	12	n/a	n/a	n/a	n/a	n/a	n/a	n/a	n/a	n/a	n/a
2694.814	n/a	WORD	1347407	wordpools/wasnorm_wordpool.txt	LTP102	ltpFR	14	13	-1	SENATE	1267	n/a	-1	1	1.0	1.0	upper	../fonts/Verdana.ttf
2698.832	n/a	WORD	1349416	wordpools/wasnorm_wordpool.txt	LTP102	ltpFR	14	13	-1	SENATOR	1268	n/a	-1	1	1.0	1.0	upper	../fonts/Verdana.ttf
2702.808	n/a	WORD	1351404	wordpools/wasnorm_wordpool.txt	LTP102	ltpFR	14	13	-1	HEDGE	699	n/a	-1	1	1.0	1.0	upper	../fonts/Verdana.ttf
2706.756	n/a	WORD	1353378	wordpools/wasnorm_wordpool.txt	LTP102	ltpFR	14	13	-1	WEED	1599	n/a	-1	1	1.0	1.0	upper	../fonts/Verdana.ttf
2710.79	n/a	WORD	1355395	wordpools/wasnorm_wordpool.txt	LTP102	ltpFR	14	13	-1	DIAGRAM	456	n/a	-1	1	1.0	1.0	upper	../fonts/Verdana.ttf
2714.898	n/a	WORD	1357449	wordpools/wasnorm_wordpool.txt	LTP102	ltpFR	14	13	-1	CIRCUS	311	n/a	-1	1	1.0	1.0	upper	../fonts/Verdana.ttf
2718.914	n/a	WORD	1359457	wordpools/wasnorm_wordpool.txt	LTP102	ltpFR	14	13	-1	ASSISTANT	48	n/a	-1	1	1.0	1.0	upper	../fonts/Verdana.ttf
2722.948	n/a	WORD	1361474	wordpools/wasnorm_wordpool.txt	LTP102	ltpFR	14	13	-1	WALL	1582	n/a	-1	1	1.0	1.0	upper	../fonts/Verdana.ttf
2726.932	n/a	WORD	1363466	wordpools/wasnorm_wordpool.txt	LTP102	ltpFR	14	13	-1	KIWI	781	n/a	-1	1	1.0	1.0	upper	../fonts/Verdana.ttf
2731.08	n/a	WORD	1365540	wordpools/wasnorm_wordpool.txt	LTP102	ltpFR	14	13	-1	DICTATOR	462	n/a	-1	1	1.0	1.0	upper	../fonts/Verdana.ttf
2735.264	n/a	WORD	1367632	wordpools/wasnorm_wordpool.txt	LTP102	ltpFR	14	13	-1	PILL	1068	n/a	-1	1	1.0	1.0	upper	../fonts/Verdana.ttf
2739.256	n/a	WORD	1369628	wordpools/wasnorm_wordpool.txt	LTP102	ltpFR	14	13	-1	HOSPITAL	721	n/a	-1	1	1.0	1.0	upper	../fonts/Verdana.ttf
2743.356	n/a	WORD	1371678	wordpools/wasnorm_wordpool.txt	LTP102	ltpFR	14	13	-1	SHRIMP	1297	n/a	-1	1	1.0	1.0	upper	../fonts/Verdana.ttf
2747.564	n/a	WORD	1373782	wordpools/wasnorm_wordpool.txt	LTP102	ltpFR	14	13	-1	PATIENT	1024	n/a	-1	1	1.0	1.0	upper	../fonts/Verdana.ttf
2751.506	n/a	WORD	1375753	wordpools/wasnorm_wordpool.txt	LTP102	ltpFR	14	13	-1	SLACKS	1323	n/a	-1	1	1.0	1.0	upper	../fonts/Verdana.ttf
2755.396	n/a	WORD	1377698	wordpools/wasnorm_wordpool.txt	LTP102	ltpFR	14	13	-1	TANGERINE	1431	n/a	-1	1	1.0	1.0	upper	../fonts/Verdana.ttf
2761.364	n/a	REC_START	1380682	n/a	LTP102	ltpFR	14	13	n/a	n/a	n/a	n/a	n/a	n/a	n/a	n/a	n/a	n/a
2762.198	n/a	REC_WORD	1381099	wordpools/wasnorm_wordpool.txt	LTP102	ltpFR	14	13	-1	TANGERINE	1431	n/a	-1	n/a	n/a	n/a	n/a	n/a
2764.442	n/a	REC_WORD	1382221	wordpools/wasnorm_wordpool.txt	LTP102	ltpFR	14	13	-1	SLACKS	1323	n/a	-1	n/a	n/a	n/a	n/a	n/a
2767.794	n/a	REC_WORD	1383897	wordpools/wasnorm_wordpool.txt	LTP102	ltpFR	14	13	n/a	PANTS	1010	n/a	n/a	n/a	n/a	n/a	n/a	n/a
2770.798	n/a	REC_WORD	1385399	wordpools/wasnorm_wordpool.txt	LTP102	ltpFR	14	13	-1	CHILD	299	n/a	-1	n/a	n/a	n/a	n/a	n/a
2772.694	n/a	REC_WORD	1386347	wordpools/wasnorm_wordpool.txt	LTP102	ltpFR	14	13	-1	TANGERINE	1431	n/a	-1	n/a	n/a	n/a	n/a	n/a
2777.238	n/a	REC_WORD	1388619	wordpools/wasnorm_wordpool.txt	LTP102	ltpFR	14	13	1	KITE	779	n/a	0	n/a	n/a	n/a	n/a	n/a
2779.748	n/a	REC_WORD	1389874	wordpools/wasnorm_wordpool.txt	LTP102	ltpFR	14	13	-1	GATE	625	n/a	-1	n/a	n/a	n/a	n/a	n/a
2783.7	n/a	REC_WORD	1391850	wordpools/wasnorm_wordpool.txt	LTP102	ltpFR	14	13	-1	LIMOUSINE	824	n/a	-1	n/a	n/a	n/a	n/a	n/a
2787.964	n/a	REC_WORD	1393982	wordpools/wasnorm_wordpool.txt	LTP102	ltpFR	14	13	n/a	FUNGUS	614	n/a	n/a	n/a	n/a	n/a	n/a	n/a
2790.324	n/a	REC_WORD	1395162	wordpools/wasnorm_wordpool.txt	LTP102	ltpFR	14	13	0	FUDGE	611	n/a	0	n/a	n/a	n/a	n/a	n/a
2795.882	n/a	REC_WORD	1397941	wordpools/wasnorm_wordpool.txt	LTP102	ltpFR	14	13	-1	SHRIMP	1297	n/a	-1	n/a	n/a	n/a	n/a	n/a
2798.446	n/a	REC_WORD	1399223	wordpools/wasnorm_wordpool.txt	LTP102	ltpFR	14	13	-1	HOSPITAL	721	n/a	-1	n/a	n/a	n/a	n/a	n/a
2804.244	n/a	REC_WORD	1402122	wordpools/wasnorm_wordpool.txt	LTP102	ltpFR	14	13	-1	ANTENNA	28	n/a	-1	n/a	n/a	n/a	n/a	n/a
2811.762	n/a	REC_WORD	1405881	wordpools/wasnorm_wordpool.txt	LTP102	ltpFR	14	13	-1	SHRIMP	1297	n/a	-1	n/a	n/a	n/a	n/a	n/a
2812.994	n/a	REC_WORD	1406497	wordpools/wasnorm_wordpool.txt	LTP102	ltpFR	14	13	-1	HOSPITAL	721	n/a	-1	n/a	n/a	n/a	n/a	n/a
2825.412	n/a	REC_WORD	1412706	wordpools/wasnorm_wordpool.txt	LTP102	ltpFR	14	13	n/a	FROG	608	n/a	n/a	n/a	n/a	n/a	n/a	n/a
2843.02	n/a	WORD	1421510	wordpools/wasnorm_wordpool.txt	LTP102	ltpFR	14	14	0	PROFESSOR	1131	n/a	1	1	0.412841796875	0.57763671875	upper	../fonts/amplitud.ttf
2847.22	n/a	WORD	1423610	wordpools/wasnorm_wordpool.txt	LTP102	ltpFR	14	14	0	TOMB	1477	n/a	0	1	0.412841796875	0.57763671875	upper	../fonts/amplitud.ttf
2851.194	n/a	WORD	1425597	wordpools/wasnorm_wordpool.txt	LTP102	ltpFR	14	14	0	UNIFORM	1539	n/a	1	1	0.412841796875	0.57763671875	upper	../fonts/amplitud.ttf
2855.336	n/a	WORD	1427668	wordpools/wasnorm_wordpool.txt	LTP102	ltpFR	14	14	0	NEEDLE	941	n/a	0	1	0.412841796875	0.57763671875	upper	../fonts/amplitud.ttf
2859.494	n/a	WORD	1429747	wordpools/wasnorm_wordpool.txt	LTP102	ltpFR	14	14	0	OWNER	993	n/a	1	1	0.412841796875	0.57763671875	upper	../fonts/amplitud.ttf
2863.394	n/a	WORD	1431697	wordpools/wasnorm_wordpool.txt	LTP102	ltpFR	14	14	0	DOCUMENT	479	n/a	1	1	0.412841796875	0.57763671875	upper	../fonts/amplitud.ttf
2867.378	n/a	WORD	1433689	wordpools/wasnorm_wordpool.txt	LTP102	ltpFR	14	14	0	NEWSSTAND	949	n/a	1	1	0.412841796875	0.57763671875	upper	../fonts/amplitud.ttf
2871.46	n/a	WORD	1435730	wordpools/wasnorm_wordpool.txt	LTP102	ltpFR	14	14	0	SOLDIER	1344	n/a	1	1	0.412841796875	0.57763671875	upper	../fonts/amplitud.ttf
2875.676	n/a	WORD	1437838	wordpools/wasnorm_wordpool.txt	LTP102	ltpFR	14	14	0	TOMBSTONE	1478	n/a	1	1	0.412841796875	0.57763671875	upper	../fonts/amplitud.ttf
2879.802	n/a	WORD	1439901	wordpools/wasnorm_wordpool.txt	LTP102	ltpFR	14	14	0	BOX	159	n/a	1	1	0.412841796875	0.57763671875	upper	../fonts/amplitud.ttf
2883.768	n/a	WORD	1441884	wordpools/wasnorm_wordpool.txt	LTP102	ltpFR	14	14	0	ARMY	39	n/a	1	1	0.412841796875	0.57763671875	upper	../fonts/amplitud.ttf
2887.71	n/a	WORD	1443855	wordpools/wasnorm_wordpool.txt	LTP102	ltpFR	14	14	0	FIGHTER	564	n/a	1	1	0.412841796875	0.57763671875	upper	../fonts/amplitud.ttf
2891.526	n/a	WORD	1445763	wordpools/wasnorm_wordpool.txt	LTP102	ltpFR	14	14	0	TUBA	1515	n/a	1	1	0.412841796875	0.57763671875	upper	../fonts/amplitud.ttf
2895.384	n/a	WORD	1447692	wordpools/wasnorm_wordpool.txt	LTP102	ltpFR	14	14	0	RECORD	1176	n/a	1	1	0.412841796875	0.57763671875	upper	../fonts/amplitud.ttf
2899.51	n/a	WORD	1449755	wordpools/wasnorm_wordpool.txt	LTP102	ltpFR	14	14	0	SALIVA	1226	n/a	0	1	0.412841796875	0.57763671875	upper	../fonts/amplitud.ttf
2903.668	n/a	WORD	1451834	wordpools/wasnorm_wordpool.txt	LTP102	ltpFR	14	14	0	BARK	87	n/a	1	1	0.412841796875	0.57763671875	upper	../fonts/amplitud.ttf
2909.444	n/a	REC_START	1454722	n/a	LTP102	ltpFR	14	14	n/a	n/a	n/a	n/a	n/a	n/a	n/a	n/a	n/a	n/a
2910.67	n/a	REC_WORD	1455335	wordpools/wasnorm_wordpool.txt	LTP102	ltpFR	14	14	0	BARK	87	n/a	1	n/a	n/a	n/a	n/a	n/a
2911.558	n/a	REC_WORD	1455779	wordpools/wasnorm_wordpool.txt	LTP102	ltpFR	14	14	0	SALIVA	1226	n/a	0	n/a	n/a	n/a	n/a	n/a
2914.716	n/a	REC_WORD	1457358	wordpools/wasnorm_wordpool.txt	LTP102	ltpFR	14	14	n/a	DIRT	472	n/a	n/a	n/a	n/a	n/a	n/a	n/a
2923.138	n/a	REC_WORD	1461569	wordpools/wasnorm_wordpool.txt	LTP102	ltpFR	14	14	-1	DIAGRAM	456	n/a	-1	n/a	n/a	n/a	n/a	n/a
2929.388	n/a	REC_WORD	1464694	wordpools/wasnorm_wordpool.txt	LTP102	ltpFR	14	14	0	OCTOPUS	971	n/a	1	n/a	n/a	n/a	n/a	n/a
2937.382	n/a	REC_WORD	1468691	wordpools/wasnorm_wordpool.txt	LTP102	ltpFR	14	14	-1	CIRCUS	311	n/a	-1	n/a	n/a	n/a	n/a	n/a
2939.142	n/a	REC_WORD	1469571	wordpools/wasnorm_wordpool.txt	LTP102	ltpFR	14	14	-1	WALL	1582	n/a	-1	n/a	n/a	n/a	n/a	n/a
2952.692	n/a	REC_WORD	1476346	wordpools/wasnorm_wordpool.txt	LTP102	ltpFR	14	14	n/a	FOOT	590	n/a	n/a	n/a	n/a	n/a	n/a	n/a
2955.102	n/a	REC_WORD	1477551	wordpools/wasnorm_wordpool.txt	LTP102	ltpFR	14	14	-1	SLACKS	1323	n/a	-1	n/a	n/a	n/a	n/a	n/a
2966.88	n/a	REC_WORD	1483440	wordpools/wasnorm_wordpool.txt	LTP102	ltpFR	14	14	1	PORPOISE	1109	n/a	1	n/a	n/a	n/a	n/a	n/a
2972.702	n/a	REC_WORD	1486351	wordpools/wasnorm_wordpool.txt	LTP102	ltpFR	14	14	-1	SENATE	1267	n/a	-1	n/a	n/a	n/a	n/a	n/a
2975.472	n/a	REC_WORD	1487736	wordpools/wasnorm_wordpool.txt	LTP102	ltpFR	14	14	-1	SENATOR	1268	n/a	-1	n/a	n/a	n/a	n/a	n/a
2991.408	n/a	WORD	1495704	wordpools/wasnorm_wordpool.txt	LTP102	ltpFR	14	15	1	LUGGAGE	847	n/a	1	0	0.5869140625	0.422607421875	lower	../fonts/zerothre.ttf
2995.366	n/a	WORD	1497683	wordpools/wasnorm_wordpool.txt	LTP102	ltpFR	14	15	1	VICTOR	1563	n/a	0	0	0.5869140625	0.422607421875	lower	../fonts/zerothre.ttf
2999.474	n/a	WORD	1499737	wordpools/wasnorm_wordpool.txt	LTP102	ltpFR	14	15	1	CARRIAGE	248	n/a	0	0	0.5869140625	0.422607421875	lower	../fonts/zerothre.ttf
3003.29	n/a	WORD	1501645	wordpools/wasnorm_wordpool.txt	LTP102	ltpFR	14	15	1	COW	393	n/a	1	0	0.5869140625	0.422607421875	lower	../fonts/zerothre.ttf
3007.19	n/a	WORD	1503595	wordpools/wasnorm_wordpool.txt	LTP102	ltpFR	14	15	1	HORIZON	717	n/a	0	0	0.5869140625	0.422607421875	lower	../fonts/zerothre.ttf
3011.106	n/a	WORD	1505553	wordpools/wasnorm_wordpool.txt	LTP102	ltpFR	14	15	1	MOON	914	n/a	0	0	0.5869140625	0.422607421875	lower	../fonts/zerothre.ttf
3015.04	n/a	WORD	1507520	wordpools/wasnorm_wordpool.txt	LTP102	ltpFR	14	15	1	SNACK	1331	n/a	0	0	0.5869140625	0.422607421875	lower	../fonts/zerothre.ttf
3019.09	n/a	WORD	1509545	wordpools/wasnorm_wordpool.txt	LTP102	ltpFR	14	15	1	CRICKET	408	n/a	1	0	0.5869140625	0.422607421875	lower	../fonts/zerothre.ttf
3023.014	n/a	WORD	1511507	wordpools/wasnorm_wordpool.txt	LTP102	ltpFR	14	15	1	NOVEL	960	n/a	0	0	0.5869140625	0.422607421875	lower	../fonts/zerothre.ttf
3026.982	n/a	WORD	1513491	wordpools/wasnorm_wordpool.txt	LTP102	ltpFR	14	15	1	AUTHOR	61	n/a	1	0	0.5869140625	0.422607421875	lower	../fonts/zerothre.ttf
3030.806	n/a	WORD	1515403	wordpools/wasnorm_wordpool.txt	LTP102	ltpFR	14	15	1	PAGE	1001	n/a	0	0	0.5869140625	0.422607421875	lower	../fonts/zerothre.ttf
3034.874	n/a	WORD	1517437	wordpools/wasnorm_wordpool.txt	LTP102	ltpFR	14	15	1	TAVERN	1437	n/a	0	0	0.5869140625	0.422607421875	lower	../fonts/zerothre.ttf
3039.014	n/a	WORD	1519507	wordpools/wasnorm_wordpool.txt	LTP102	ltpFR	14	15	1	DOUGHNUT	490	n/a	0	0	0.5869140625	0.422607421875	lower	../fonts/zerothre.ttf
3043.014	n/a	WORD	1521507	wordpools/wasnorm_wordpool.txt	LTP102	ltpFR	14	15	1	MITTEN	902	n/a	0	0	0.5869140625	0.422607421875	lower	../fonts/zerothre.ttf
3047.08	n/a	WORD	1523540	wordpools/wasnorm_wordpool.txt	LTP102	ltpFR	14	15	1	SCOTCH	1251	n/a	0	0	0.5869140625	0.422607421875	lower	../fonts/zerothre.ttf
3051.138	n/a	WORD	1525569	wordpools/wasnorm_wordpool.txt	LTP102	ltpFR	14	15	1	CHAMPION	279	n/a	1	0	0.5869140625	0.422607421875	lower	../fonts/zerothre.ttf
3056.956	n/a	REC_START	1528478	n/a	LTP102	ltpFR	14	15	n/a	n/a	n/a	n/a	n/a	n/a	n/a	n/a	n/a	n/a
3057.8	n/a	REC_WORD	1528900	wordpools/wasnorm_wordpool.txt	LTP102	ltpFR	14	15	1	CHAMPION	279	n/a	1	n/a	n/a	n/a	n/a	n/a
3059.446	n/a	REC_WORD	1529723	wordpools/wasnorm_wordpool.txt	LTP102	ltpFR	14	15	1	MITTEN	902	n/a	0	n/a	n/a	n/a	n/a	n/a
3061.53	n/a	REC_WORD	1530765	wordpools/wasnorm_wordpool.txt	LTP102	ltpFR	14	15	n/a	KITTEN	780	n/a	n/a	n/a	n/a	n/a	n/a	n/a
3067.886	n/a	REC_WORD	1533943	wordpools/wasnorm_wordpool.txt	LTP102	ltpFR	14	15	n/a	RISE	-1	n/a	n/a	n/a	n/a	n/a	n/a	n/a
3072.782	n/a	REC_WORD	1536391	wordpools/wasnorm_wordpool.txt	LTP102	ltpFR	14	15	-1	PATIENT	1024	n/a	-1	n/a	n/a	n/a	n/a	n/a
3077.156	n/a	REC_WORD	1538578	wordpools/wasnorm_wordpool.txt	LTP102	ltpFR	14	15	-1	HOSPITAL	721	n/a	-1	n/a	n/a	n/a	n/a	n/a
3079.56	n/a	REC_WORD	1539780	wordpools/wasnorm_wordpool.txt	LTP102	ltpFR	14	15	1	HORIZON	717	n/a	0	n/a	n/a	n/a	n/a	n/a
3081.162	n/a	REC_WORD	1540581	wordpools/wasnorm_wordpool.txt	LTP102	ltpFR	14	15	1	MOON	914	n/a	0	n/a	n/a	n/a	n/a	n/a
3086.664	n/a	REC_WORD	1543332	wordpools/wasnorm_wordpool.txt	LTP102	ltpFR	14	15	-1	SENATOR	1268	n/a	-1	n/a	n/a	n/a	n/a	n/a
3091.186	n/a	REC_WORD	1545593	wordpools/wasnorm_wordpool.txt	LTP102	ltpFR	14	15	1	COW	393	n/a	1	n/a	n/a	n/a	n/a	n/a
3096.248	n/a	REC_WORD	1548124	wordpools/wasnorm_wordpool.txt	LTP102	ltpFR	14	15	n/a	VISITOR	1573	n/a	n/a	n/a	n/a	n/a	n/a	n/a
3102.77	n/a	REC_WORD	1551385	wordpools/wasnorm_wordpool.txt	LTP102	ltpFR	14	15	1	COW	393	n/a	1	n/a	n/a	n/a	n/a	n/a
3110.472	n/a	REC_WORD	1555236	wordpools/wasnorm_wordpool.txt	LTP102	ltpFR	14	15	0	NEEDLE	941	n/a	0	n/a	n/a	n/a	n/a	n/a
3117.95	n/a	REC_WORD	1558975	wordpools/wasnorm_wordpool.txt	LTP102	ltpFR	14	15	1	MOON	914	n/a	0	n/a	n/a	n/a	n/a	n/a
3122.64	n/a	REC_WORD	1561320	wordpools/wasnorm_wordpool.txt	LTP102	ltpFR	14	15	n/a	VISITOR	1573	n/a	n/a	n/a	n/a	n/a	n/a	n/a
3137.57	n/a	WORD	1568785	wordpools/wasnorm_wordpool.txt	LTP102	ltpFR	14	16	1	CLERK	321	n/a	1	0	0.5869140625	0.422607421875	lower	../fonts/zerothre.ttf
3141.654	n/a	WORD	1570827	wordpools/wasnorm_wordpool.txt	LTP102	ltpFR	14	16	1	JAM	748	n/a	0	0	0.5869140625	0.422607421875	lower	../fonts/zerothre.ttf
3145.844	n/a	WORD	1572922	wordpools/wasnorm_wordpool.txt	LTP102	ltpFR	14	16	1	REPTILE	1185	n/a	1	0	0.5869140625	0.422607421875	lower	../fonts/zerothre.ttf
3150.02	n/a	WORD	1575010	wordpools/wasnorm_wordpool.txt	LTP102	ltpFR	14	16	1	FIREPLACE	570	n/a	0	0	0.5869140625	0.422607421875	lower	../fonts/zerothre.ttf
3154.004	n/a	WORD	1577002	wordpools/wasnorm_wordpool.txt	LTP102	ltpFR	14	16	0	ROPE	1211	n/a	1	1	0.412841796875	0.57763671875	upper	../fonts/amplitud.ttf
3158.078	n/a	WORD	1579039	wordpools/wasnorm_wordpool.txt	LTP102	ltpFR	14	16	0	KNOT	788	n/a	1	1	0.412841796875	0.57763671875	upper	../fonts/amplitud.ttf
3162.094	n/a	WORD	1581047	wordpools/wasnorm_wordpool.txt	LTP102	ltpFR	14	16	1	BUFFALO	186	n/a	1	0	0.5869140625	0.422607421875	lower	../fonts/zerothre.ttf
3166.002	n/a	WORD	1583001	wordpools/wasnorm_wordpool.txt	LTP102	ltpFR	14	16	1	PANTHER	1009	n/a	1	0	0.5869140625	0.422607421875	lower	../fonts/zerothre.ttf
3170.094	n/a	WORD	1585047	wordpools/wasnorm_wordpool.txt	LTP102	ltpFR	14	16	1	BOSS	152	n/a	1	0	0.5869140625	0.422607421875	lower	../fonts/zerothre.ttf
3174.186	n/a	WORD	1587093	wordpools/wasnorm_wordpool.txt	LTP102	ltpFR	14	16	1	FIREMAN	569	n/a	1	0	0.5869140625	0.422607421875	lower	../fonts/zerothre.ttf
3178.02	n/a	WORD	1589010	wordpools/wasnorm_wordpool.txt	LTP102	ltpFR	14	16	0	DELINQUENT	445	n/a	1	1	0.412841796875	0.57763671875	upper	../fonts/amplitud.ttf
3182.22	n/a	WORD	1591110	wordpools/wasnorm_wordpool.txt	LTP102	ltpFR	14	16	0	MUFFIN	929	n/a	0	1	0.412841796875	0.57763671875	upper	../fonts/amplitud.ttf
3186.102	n/a	WORD	1593051	wordpools/wasnorm_wordpool.txt	LTP102	ltpFR	14	16	0	CEILING	265	n/a	1	1	0.412841796875	0.57763671875	upper	../fonts/amplitud.ttf
3189.928	n/a	WORD	1594964	wordpools/wasnorm_wordpool.txt	LTP102	ltpFR	14	16	0	PLASTER	1085	n/a	1	1	0.412841796875	0.57763671875	upper	../fonts/amplitud.ttf
3193.76	n/a	WORD	1596880	wordpools/wasnorm_wordpool.txt	LTP102	ltpFR	14	16	0	PENDULUM	1043	n/a	1	1	0.412841796875	0.57763671875	upper	../fonts/amplitud.ttf
3197.602	n/a	WORD	1598801	wordpools/wasnorm_wordpool.txt	LTP102	ltpFR	14	16	0	UNIVERSITY	1541	n/a	1	1	0.412841796875	0.57763671875	upper	../fonts/amplitud.ttf
3203.51	n/a	REC_START	1601755	n/a	LTP102	ltpFR	14	16	n/a	n/a	n/a	n/a	n/a	n/a	n/a	n/a	n/a	n/a
3204.592	n/a	REC_WORD	1602296	wordpools/wasnorm_wordpool.txt	LTP102	ltpFR	14	16	0	UNIVERSITY	1541	n/a	1	n/a	n/a	n/a	n/a	n/a
3206.678	n/a	REC_WORD	1603339	wordpools/wasnorm_wordpool.txt	LTP102	ltpFR	14	16	0	PENDULUM	1043	n/a	1	n/a	n/a	n/a	n/a	n/a
3208.974	n/a	REC_WORD	1604487	wordpools/wasnorm_wordpool.txt	LTP102	ltpFR	14	16	-1	GATE	625	n/a	-1	n/a	n/a	n/a	n/a	n/a
3223.202	n/a	REC_WORD	1611601	wordpools/wasnorm_wordpool.txt	LTP102	ltpFR	14	16	n/a	LICE	-1	n/a	n/a	n/a	n/a	n/a	n/a	n/a
3228.45	n/a	REC_WORD	1614225	wordpools/wasnorm_wordpool.txt	LTP102	ltpFR	14	16	n/a	BUTTERFLY	206	n/a	n/a	n/a	n/a	n/a	n/a	n/a
3231.942	n/a	REC_WORD	1615971	wordpools/wasnorm_wordpool.txt	LTP102	ltpFR	14	16	n/a	ANT	25	n/a	n/a	n/a	n/a	n/a	n/a	n/a
3235.38	n/a	REC_WORD	1617690	wordpools/wasnorm_wordpool.txt	LTP102	ltpFR	14	16	1	FLY	586	n/a	1	n/a	n/a	n/a	n/a	n/a
3254.832	n/a	REC_WORD	1627416	wordpools/wasnorm_wordpool.txt	LTP102	ltpFR	14	16	0	OCTOPUS	971	n/a	1	n/a	n/a	n/a	n/a	n/a
3269.958	n/a	REC_WORD	1634979	wordpools/wasnorm_wordpool.txt	LTP102	ltpFR	14	16	n/a	BOAT	144	n/a	n/a	n/a	n/a	n/a	n/a	n/a
3295.826	n/a	REC_START	1647913	n/a	LTP102	ltpFR	14	1	n/a	n/a	n/a	n/a	n/a	n/a	n/a	n/a	n/a	n/a
3295.858	n/a	RECOG_TARGET	1647929	n/a	LTP102	ltpFR	14	1	-1	SENATE	1267	5	-1	n/a	n/a	n/a	n/a	n/a
3297.208	n/a	RECOG_RESP	1648604	n/a	LTP102	ltpFR	14	1	-1	SENATE	1267	n/a	-1	n/a	n/a	n/a	n/a	n/a
3298.514	n/a	RECOG_CONF	1649257	n/a	LTP102	ltpFR	14	1	-1	SENATE	1267	5	-1	n/a	n/a	n/a	n/a	n/a
3300.156	n/a	RECOG_TARGET	1650078	n/a	LTP102	ltpFR	14	1	1	JAM	748	5	0	n/a	n/a	n/a	n/a	n/a
3300.804	n/a	RECOG_RESP	1650402	n/a	LTP102	ltpFR	14	1	1	JAM	748	n/a	0	n/a	n/a	n/a	n/a	n/a
3301.776	n/a	RECOG_CONF	1650888	n/a	LTP102	ltpFR	14	1	1	JAM	748	5	0	n/a	n/a	n/a	n/a	n/a
3303.35	n/a	RECOG_TARGET	1651675	n/a	LTP102	ltpFR	14	1	1	POLICE	1098	5	1	n/a	n/a	n/a	n/a	n/a
3303.996	n/a	RECOG_RESP	1651998	n/a	LTP102	ltpFR	14	1	1	POLICE	1098	n/a	1	n/a	n/a	n/a	n/a	n/a
3304.79	n/a	RECOG_CONF	1652395	n/a	LTP102	ltpFR	14	1	1	POLICE	1098	5	1	n/a	n/a	n/a	n/a	n/a
3306.198	n/a	RECOG_TARGET	1653099	n/a	LTP102	ltpFR	14	1	1	CHIEF	298	5	1	n/a	n/a	n/a	n/a	n/a
3306.702	n/a	RECOG_RESP	1653351	n/a	LTP102	ltpFR	14	1	1	CHIEF	298	n/a	1	n/a	n/a	n/a	n/a	n/a
3307.504	n/a	RECOG_CONF	1653752	n/a	LTP102	ltpFR	14	1	1	CHIEF	298	5	1	n/a	n/a	n/a	n/a	n/a
3309.032	n/a	RECOG_LURE	1654516	n/a	LTP102	ltpFR	14	1	n/a	REEF	1177	5	n/a	n/a	n/a	n/a	n/a	n/a
3309.704	n/a	RECOG_RESP	1654852	n/a	LTP102	ltpFR	14	1	n/a	REEF	1177	n/a	n/a	n/a	n/a	n/a	n/a	n/a
3310.468	n/a	RECOG_CONF	1655234	n/a	LTP102	ltpFR	14	1	n/a	REEF	1177	5	n/a	n/a	n/a	n/a	n/a	n/a
3311.966	n/a	RECOG_TARGET	1655983	n/a	LTP102	ltpFR	14	1	-1	WATERFALL	1595	5	-1	n/a	n/a	n/a	n/a	n/a
3312.604	n/a	RECOG_RESP	1656302	n/a	LTP102	ltpFR	14	1	-1	WATERFALL	1595	n/a	-1	n/a	n/a	n/a	n/a	n/a
3313.332	n/a	RECOG_CONF	1656666	n/a	LTP102	ltpFR	14	1	-1	WATERFALL	1595	5	-1	n/a	n/a	n/a	n/a	n/a
3314.8	n/a	RECOG_TARGET	1657400	n/a	LTP102	ltpFR	14	1	-1	GRADUATE	653	5	-1	n/a	n/a	n/a	n/a	n/a
3315.352	n/a	RECOG_RESP	1657676	n/a	LTP102	ltpFR	14	1	-1	GRADUATE	653	n/a	-1	n/a	n/a	n/a	n/a	n/a
3316.116	n/a	RECOG_CONF	1658058	n/a	LTP102	ltpFR	14	1	-1	GRADUATE	653	5	-1	n/a	n/a	n/a	n/a	n/a
3317.6	n/a	RECOG_TARGET	1658800	n/a	LTP102	ltpFR	14	1	1	SALOON	1228	5	0	n/a	n/a	n/a	n/a	n/a
3318.106	n/a	RECOG_RESP	1659053	n/a	LTP102	ltpFR	14	1	1	SALOON	1228	n/a	0	n/a	n/a	n/a	n/a	n/a
3318.83	n/a	RECOG_CONF	1659415	n/a	LTP102	ltpFR	14	1	1	SALOON	1228	5	0	n/a	n/a	n/a	n/a	n/a
3320.416	n/a	RECOG_LURE	1660208	n/a	LTP102	ltpFR	14	1	n/a	CONCRETE	361	5	n/a	n/a	n/a	n/a	n/a	n/a
3321.088	n/a	RECOG_RESP	1660544	n/a	LTP102	ltpFR	14	1	n/a	CONCRETE	361	n/a	n/a	n/a	n/a	n/a	n/a	n/a
3321.802	n/a	RECOG_CONF	1660901	n/a	LTP102	ltpFR	14	1	n/a	CONCRETE	361	5	n/a	n/a	n/a	n/a	n/a	n/a
3323.274	n/a	RECOG_LURE	1661637	n/a	LTP102	ltpFR	14	1	n/a	SCREW	1254	5	n/a	n/a	n/a	n/a	n/a	n/a
3324.152	n/a	RECOG_RESP	1662076	n/a	LTP102	ltpFR	14	1	n/a	SCREW	1254	n/a	n/a	n/a	n/a	n/a	n/a	n/a
3324.896	n/a	RECOG_CONF	1662448	n/a	LTP102	ltpFR	14	1	n/a	SCREW	1254	5	n/a	n/a	n/a	n/a	n/a	n/a
3326.324	n/a	RECOG_TARGET	1663162	n/a	LTP102	ltpFR	14	1	0	DANCER	437	1	1	n/a	n/a	n/a	n/a	n/a
3327.052	n/a	RECOG_RESP	1663526	n/a	LTP102	ltpFR	14	1	0	DANCER	437	n/a	1	n/a	n/a	n/a	n/a	n/a
3328.308	n/a	RECOG_CONF	1664154	n/a	LTP102	ltpFR	14	1	0	DANCER	437	1	1	n/a	n/a	n/a	n/a	n/a
3329.782	n/a	RECOG_LURE	1664891	n/a	LTP102	ltpFR	14	1	n/a	MOUTH	926	5	n/a	n/a	n/a	n/a	n/a	n/a
3330.724	n/a	RECOG_RESP	1665362	n/a	LTP102	ltpFR	14	1	n/a	MOUTH	926	n/a	n/a	n/a	n/a	n/a	n/a	n/a
3331.462	n/a	RECOG_CONF	1665731	n/a	LTP102	ltpFR	14	1	n/a	MOUTH	926	5	n/a	n/a	n/a	n/a	n/a	n/a
3333.09	n/a	RECOG_TARGET	1666545	n/a	LTP102	ltpFR	14	1	1	FURNITURE	616	5	0	n/a	n/a	n/a	n/a	n/a
3333.742	n/a	RECOG_RESP	1666871	n/a	LTP102	ltpFR	14	1	1	FURNITURE	616	n/a	0	n/a	n/a	n/a	n/a	n/a
3334.594	n/a	RECOG_CONF	1667297	n/a	LTP102	ltpFR	14	1	1	FURNITURE	616	5	0	n/a	n/a	n/a	n/a	n/a
3336.124	n/a	RECOG_TARGET	1668062	n/a	LTP102	ltpFR	14	1	0	PARTNER	1017	5	1	n/a	n/a	n/a	n/a	n/a
3336.714	n/a	RECOG_RESP	1668357	n/a	LTP102	ltpFR	14	1	0	PARTNER	1017	n/a	1	n/a	n/a	n/a	n/a	n/a
3337.528	n/a	RECOG_CONF	1668764	n/a	LTP102	ltpFR	14	1	0	PARTNER	1017	5	1	n/a	n/a	n/a	n/a	n/a
3338.956	n/a	RECOG_TARGET	1669478	n/a	LTP102	ltpFR	14	1	0	NERVE	944	5	0	n/a	n/a	n/a	n/a	n/a
3339.672	n/a	RECOG_RESP	1669836	n/a	LTP102	ltpFR	14	1	0	NERVE	944	n/a	0	n/a	n/a	n/a	n/a	n/a
3340.382	n/a	RECOG_CONF	1670191	n/a	LTP102	ltpFR	14	1	0	NERVE	944	5	0	n/a	n/a	n/a	n/a	n/a
3341.898	n/a	RECOG_LURE	1670949	n/a	LTP102	ltpFR	14	1	n/a	TRUMPET	1513	2	n/a	n/a	n/a	n/a	n/a	n/a
3342.626	n/a	RECOG_RESP	1671313	n/a	LTP102	ltpFR	14	1	n/a	TRUMPET	1513	n/a	n/a	n/a	n/a	n/a	n/a	n/a
3343.434	n/a	RECOG_CONF	1671717	n/a	LTP102	ltpFR	14	1	n/a	TRUMPET	1513	2	n/a	n/a	n/a	n/a	n/a	n/a
3344.874	n/a	RECOG_TARGET	1672437	n/a	LTP102	ltpFR	14	1	0	MAGAZINE	853	5	1	n/a	n/a	n/a	n/a	n/a
3345.51	n/a	RECOG_RESP	1672755	n/a	LTP102	ltpFR	14	1	0	MAGAZINE	853	n/a	1	n/a	n/a	n/a	n/a	n/a
3346.258	n/a	RECOG_CONF	1673129	n/a	LTP102	ltpFR	14	1	0	MAGAZINE	853	5	1	n/a	n/a	n/a	n/a	n/a
3347.798	n/a	RECOG_TARGET	1673899	n/a	LTP102	ltpFR	14	1	0	MUFFIN	929	5	0	n/a	n/a	n/a	n/a	n/a
3348.344	n/a	RECOG_RESP	1674172	n/a	LTP102	ltpFR	14	1	0	MUFFIN	929	n/a	0	n/a	n/a	n/a	n/a	n/a
3349.082	n/a	RECOG_CONF	1674541	n/a	LTP102	ltpFR	14	1	0	MUFFIN	929	5	0	n/a	n/a	n/a	n/a	n/a
3350.574	n/a	RECOG_TARGET	1675287	n/a	LTP102	ltpFR	14	1	0	CATERPILLAR	259	5	0	n/a	n/a	n/a	n/a	n/a
3351.162	n/a	RECOG_RESP	1675581	n/a	LTP102	ltpFR	14	1	0	CATERPILLAR	259	n/a	0	n/a	n/a	n/a	n/a	n/a
3351.926	n/a	RECOG_CONF	1675963	n/a	LTP102	ltpFR	14	1	0	CATERPILLAR	259	5	0	n/a	n/a	n/a	n/a	n/a
3353.582	n/a	RECOG_TARGET	1676791	n/a	LTP102	ltpFR	14	1	0	OVAL	990	5	0	n/a	n/a	n/a	n/a	n/a
3354.16	n/a	RECOG_RESP	1677080	n/a	LTP102	ltpFR	14	1	0	OVAL	990	n/a	0	n/a	n/a	n/a	n/a	n/a
3355.008	n/a	RECOG_CONF	1677504	n/a	LTP102	ltpFR	14	1	0	OVAL	990	5	0	n/a	n/a	n/a	n/a	n/a
3359.046	n/a	REC_START	1679523	n/a	LTP102	ltpFR	14	2	n/a	n/a	n/a	n/a	n/a	n/a	n/a	n/a	n/a	n/a
3359.082	n/a	RECOG_TARGET	1679541	n/a	LTP102	ltpFR	14	2	-1	POLYESTER	1100	5	-1	n/a	n/a	n/a	n/a	n/a
3359.854	n/a	RECOG_RESP	1679927	n/a	LTP102	ltpFR	14	2	-1	POLYESTER	1100	n/a	-1	n/a	n/a	n/a	n/a	n/a
3360.516	n/a	RECOG_CONF	1680258	n/a	LTP102	ltpFR	14	2	-1	POLYESTER	1100	5	-1	n/a	n/a	n/a	n/a	n/a
3361.922	n/a	RECOG_TARGET	1680961	n/a	LTP102	ltpFR	14	2	-1	KIWI	781	5	-1	n/a	n/a	n/a	n/a	n/a
3362.448	n/a	RECOG_RESP	1681224	n/a	LTP102	ltpFR	14	2	-1	KIWI	781	n/a	-1	n/a	n/a	n/a	n/a	n/a
3363.102	n/a	RECOG_CONF	1681551	n/a	LTP102	ltpFR	14	2	-1	KIWI	781	5	-1	n/a	n/a	n/a	n/a	n/a
3364.656	n/a	RECOG_TARGET	1682328	n/a	LTP102	ltpFR	14	2	-1	POT	1114	5	-1	n/a	n/a	n/a	n/a	n/a
3365.092	n/a	RECOG_RESP	1682546	n/a	LTP102	ltpFR	14	2	-1	POT	1114	n/a	-1	n/a	n/a	n/a	n/a	n/a
3365.816	n/a	RECOG_CONF	1682908	n/a	LTP102	ltpFR	14	2	-1	POT	1114	5	-1	n/a	n/a	n/a	n/a	n/a
3367.274	n/a	RECOG_TARGET	1683637	n/a	LTP102	ltpFR	14	2	1	LUNCH	849	2	0	n/a	n/a	n/a	n/a	n/a
3367.922	n/a	RECOG_RESP_VV	1683961	n/a	LTP102	ltpFR	14	2	1	LUNCH	849	n/a	0	n/a	n/a	n/a	n/a	n/a
3369.432	n/a	RECOG_RESP	1684716	n/a	LTP102	ltpFR	14	2	1	LUNCH	849	n/a	0	n/a	n/a	n/a	n/a	n/a
3370.954	n/a	RECOG_CONF	1685477	n/a	LTP102	ltpFR	14	2	1	LUNCH	849	2	0	n/a	n/a	n/a	n/a	n/a
3372.364	n/a	RECOG_LURE	1686182	n/a	LTP102	ltpFR	14	2	n/a	JUVENILE	767	3	n/a	n/a	n/a	n/a	n/a	n/a
3373.832	n/a	RECOG_RESP	1686916	n/a	LTP102	ltpFR	14	2	n/a	JUVENILE	767	n/a	n/a	n/a	n/a	n/a	n/a	n/a
3374.626	n/a	RECOG_CONF	1687313	n/a	LTP102	ltpFR	14	2	n/a	JUVENILE	767	3	n/a	n/a	n/a	n/a	n/a	n/a
3376.048	n/a	RECOG_TARGET	1688024	n/a	LTP102	ltpFR	14	2	-1	STOOL	1386	5	-1	n/a	n/a	n/a	n/a	n/a
3376.826	n/a	RECOG_RESP	1688413	n/a	LTP102	ltpFR	14	2	-1	STOOL	1386	n/a	-1	n/a	n/a	n/a	n/a	n/a
3377.48	n/a	RECOG_CONF	1688740	n/a	LTP102	ltpFR	14	2	-1	STOOL	1386	5	-1	n/a	n/a	n/a	n/a	n/a
3378.938	n/a	RECOG_LURE	1689469	n/a	LTP102	ltpFR	14	2	n/a	BALLOT	76	5	n/a	n/a	n/a	n/a	n/a	n/a
3379.64	n/a	RECOG_RESP	1689820	n/a	LTP102	ltpFR	14	2	n/a	BALLOT	76	n/a	n/a	n/a	n/a	n/a	n/a	n/a
3380.322	n/a	RECOG_CONF	1690161	n/a	LTP102	ltpFR	14	2	n/a	BALLOT	76	5	n/a	n/a	n/a	n/a	n/a	n/a
3381.838	n/a	RECOG_TARGET	1690919	n/a	LTP102	ltpFR	14	2	0	PONY	1102	5	1	n/a	n/a	n/a	n/a	n/a
3382.324	n/a	RECOG_RESP	1691162	n/a	LTP102	ltpFR	14	2	0	PONY	1102	n/a	1	n/a	n/a	n/a	n/a	n/a
3382.988	n/a	RECOG_CONF	1691494	n/a	LTP102	ltpFR	14	2	0	PONY	1102	5	1	n/a	n/a	n/a	n/a	n/a
3384.506	n/a	RECOG_TARGET	1692253	n/a	LTP102	ltpFR	14	2	0	FUDGE	611	5	0	n/a	n/a	n/a	n/a	n/a
3384.998	n/a	RECOG_RESP	1692499	n/a	LTP102	ltpFR	14	2	0	FUDGE	611	n/a	0	n/a	n/a	n/a	n/a	n/a
3385.632	n/a	RECOG_CONF	1692816	n/a	LTP102	ltpFR	14	2	0	FUDGE	611	5	0	n/a	n/a	n/a	n/a	n/a
3387.14	n/a	RECOG_LURE	1693570	n/a	LTP102	ltpFR	14	2	n/a	CUPBOARD	425	3	n/a	n/a	n/a	n/a	n/a	n/a
3387.986	n/a	RECOG_RESP	1693993	n/a	LTP102	ltpFR	14	2	n/a	CUPBOARD	425	n/a	n/a	n/a	n/a	n/a	n/a	n/a
3388.894	n/a	RECOG_CONF	1694447	n/a	LTP102	ltpFR	14	2	n/a	CUPBOARD	425	3	n/a	n/a	n/a	n/a	n/a	n/a
3390.356	n/a	RECOG_TARGET	1695178	n/a	LTP102	ltpFR	14	2	-1	STAR	1373	5	-1	n/a	n/a	n/a	n/a	n/a
3390.97	n/a	RECOG_RESP	1695485	n/a	LTP102	ltpFR	14	2	-1	STAR	1373	n/a	-1	n/a	n/a	n/a	n/a	n/a
3391.678	n/a	RECOG_CONF	1695839	n/a	LTP102	ltpFR	14	2	-1	STAR	1373	5	-1	n/a	n/a	n/a	n/a	n/a
3393.088	n/a	RECOG_TARGET	1696544	n/a	LTP102	ltpFR	14	2	1	AUTHOR	61	5	1	n/a	n/a	n/a	n/a	n/a
3393.688	n/a	RECOG_RESP	1696844	n/a	LTP102	ltpFR	14	2	1	AUTHOR	61	n/a	1	n/a	n/a	n/a	n/a	n/a
3394.322	n/a	RECOG_CONF	1697161	n/a	LTP102	ltpFR	14	2	1	AUTHOR	61	5	1	n/a	n/a	n/a	n/a	n/a
3395.756	n/a	RECOG_TARGET	1697878	n/a	LTP102	ltpFR	14	2	1	STEM	1376	5	1	n/a	n/a	n/a	n/a	n/a
3396.278	n/a	RECOG_RESP	1698139	n/a	LTP102	ltpFR	14	2	1	STEM	1376	n/a	1	n/a	n/a	n/a	n/a	n/a
3396.956	n/a	RECOG_CONF	1698478	n/a	LTP102	ltpFR	14	2	1	STEM	1376	5	1	n/a	n/a	n/a	n/a	n/a
3398.414	n/a	RECOG_LURE	1699207	n/a	LTP102	ltpFR	14	2	n/a	SKATE	1313	5	n/a	n/a	n/a	n/a	n/a	n/a
3399.056	n/a	RECOG_RESP	1699528	n/a	LTP102	ltpFR	14	2	n/a	SKATE	1313	n/a	n/a	n/a	n/a	n/a	n/a	n/a
3399.72	n/a	RECOG_CONF	1699860	n/a	LTP102	ltpFR	14	2	n/a	SKATE	1313	5	n/a	n/a	n/a	n/a	n/a	n/a
3401.03	n/a	RECOG_TARGET	1700515	n/a	LTP102	ltpFR	14	2	1	MUSHROOM	934	5	1	n/a	n/a	n/a	n/a	n/a
3401.736	n/a	RECOG_RESP	1700868	n/a	LTP102	ltpFR	14	2	1	MUSHROOM	934	n/a	1	n/a	n/a	n/a	n/a	n/a
3402.334	n/a	RECOG_CONF	1701167	n/a	LTP102	ltpFR	14	2	1	MUSHROOM	934	5	1	n/a	n/a	n/a	n/a	n/a
3403.73	n/a	RECOG_TARGET	1701865	n/a	LTP102	ltpFR	14	2	1	MOON	914	5	0	n/a	n/a	n/a	n/a	n/a
3404.22	n/a	RECOG_RESP	1702110	n/a	LTP102	ltpFR	14	2	1	MOON	914	n/a	0	n/a	n/a	n/a	n/a	n/a
3404.88	n/a	RECOG_CONF	1702440	n/a	LTP102	ltpFR	14	2	1	MOON	914	5	0	n/a	n/a	n/a	n/a	n/a
3406.356	n/a	RECOG_TARGET	1703178	n/a	LTP102	ltpFR	14	2	1	GULL	671	5	1	n/a	n/a	n/a	n/a	n/a
3406.774	n/a	RECOG_RESP_VV	1703387	n/a	LTP102	ltpFR	14	2	1	GULL	671	n/a	1	n/a	n/a	n/a	n/a	n/a
3407.534	n/a	RECOG_RESP	1703767	n/a	LTP102	ltpFR	14	2	1	GULL	671	n/a	1	n/a	n/a	n/a	n/a	n/a
3408.55	n/a	RECOG_CONF	1704275	n/a	LTP102	ltpFR	14	2	1	GULL	671	5	1	n/a	n/a	n/a	n/a	n/a
3409.846	n/a	RECOG_TARGET	1704923	n/a	LTP102	ltpFR	14	2	-1	PLANET	1082	5	-1	n/a	n/a	n/a	n/a	n/a
3410.442	n/a	RECOG_RESP	1705221	n/a	LTP102	ltpFR	14	2	-1	PLANET	1082	n/a	-1	n/a	n/a	n/a	n/a	n/a
3411.154	n/a	RECOG_CONF	1705577	n/a	LTP102	ltpFR	14	2	-1	PLANET	1082	5	-1	n/a	n/a	n/a	n/a	n/a
3412.572	n/a	RECOG_TARGET	1706286	n/a	LTP102	ltpFR	14	2	1	HANDKERCHIEF	686	5	0	n/a	n/a	n/a	n/a	n/a
3413.136	n/a	RECOG_RESP	1706568	n/a	LTP102	ltpFR	14	2	1	HANDKERCHIEF	686	n/a	0	n/a	n/a	n/a	n/a	n/a
3413.848	n/a	RECOG_CONF	1706924	n/a	LTP102	ltpFR	14	2	1	HANDKERCHIEF	686	5	0	n/a	n/a	n/a	n/a	n/a
3415.404	n/a	RECOG_LURE	1707702	n/a	LTP102	ltpFR	14	2	n/a	NEST	945	5	n/a	n/a	n/a	n/a	n/a	n/a
3416.384	n/a	RECOG_RESP	1708192	n/a	LTP102	ltpFR	14	2	n/a	NEST	945	n/a	n/a	n/a	n/a	n/a	n/a	n/a
3417.112	n/a	RECOG_CONF	1708556	n/a	LTP102	ltpFR	14	2	n/a	NEST	945	5	n/a	n/a	n/a	n/a	n/a	n/a
3420.532	n/a	REC_START	1710266	n/a	LTP102	ltpFR	14	3	n/a	n/a	n/a	n/a	n/a	n/a	n/a	n/a	n/a	n/a
3420.562	n/a	RECOG_TARGET	1710281	n/a	LTP102	ltpFR	14	3	-1	OPERA	978	5	-1	n/a	n/a	n/a	n/a	n/a
3421.08	n/a	RECOG_RESP	1710540	n/a	LTP102	ltpFR	14	3	-1	OPERA	978	n/a	-1	n/a	n/a	n/a	n/a	n/a
3421.864	n/a	RECOG_CONF	1710932	n/a	LTP102	ltpFR	14	3	-1	OPERA	978	5	-1	n/a	n/a	n/a	n/a	n/a
3423.356	n/a	RECOG_TARGET	1711678	n/a	LTP102	ltpFR	14	3	0	WAITRESS	1581	5	1	n/a	n/a	n/a	n/a	n/a
3423.88	n/a	RECOG_RESP	1711940	n/a	LTP102	ltpFR	14	3	0	WAITRESS	1581	n/a	1	n/a	n/a	n/a	n/a	n/a
3424.436	n/a	RECOG_CONF	1712218	n/a	LTP102	ltpFR	14	3	0	WAITRESS	1581	5	1	n/a	n/a	n/a	n/a	n/a
3426.188	n/a	RECOG_TARGET	1713094	n/a	LTP102	ltpFR	14	3	1	RESTAURANT	1187	5	0	n/a	n/a	n/a	n/a	n/a
3426.728	n/a	RECOG_RESP	1713364	n/a	LTP102	ltpFR	14	3	1	RESTAURANT	1187	n/a	0	n/a	n/a	n/a	n/a	n/a
3427.472	n/a	RECOG_CONF	1713736	n/a	LTP102	ltpFR	14	3	1	RESTAURANT	1187	5	0	n/a	n/a	n/a	n/a	n/a
3429.046	n/a	RECOG_TARGET	1714523	n/a	LTP102	ltpFR	14	3	1	RUM	1217	5	0	n/a	n/a	n/a	n/a	n/a
3429.586	n/a	RECOG_RESP	1714793	n/a	LTP102	ltpFR	14	3	1	RUM	1217	n/a	0	n/a	n/a	n/a	n/a	n/a
3430.384	n/a	RECOG_CONF	1715192	n/a	LTP102	ltpFR	14	3	1	RUM	1217	5	0	n/a	n/a	n/a	n/a	n/a
3431.804	n/a	RECOG_LURE	1715902	n/a	LTP102	ltpFR	14	3	n/a	CORD	379	5	n/a	n/a	n/a	n/a	n/a	n/a
3432.54	n/a	RECOG_RESP	1716270	n/a	LTP102	ltpFR	14	3	n/a	CORD	379	n/a	n/a	n/a	n/a	n/a	n/a	n/a
3433.208	n/a	RECOG_CONF	1716604	n/a	LTP102	ltpFR	14	3	n/a	CORD	379	5	n/a	n/a	n/a	n/a	n/a	n/a
3434.788	n/a	RECOG_TARGET	1717394	n/a	LTP102	ltpFR	14	3	-1	GROCERIES	663	2	-1	n/a	n/a	n/a	n/a	n/a
3435.358	n/a	RECOG_RESP	1717679	n/a	LTP102	ltpFR	14	3	-1	GROCERIES	663	n/a	-1	n/a	n/a	n/a	n/a	n/a
3436.68	n/a	RECOG_CONF	1718340	n/a	LTP102	ltpFR	14	3	-1	GROCERIES	663	2	-1	n/a	n/a	n/a	n/a	n/a
3438.238	n/a	RECOG_TARGET	1719119	n/a	LTP102	ltpFR	14	3	-1	DIAGRAM	456	5	-1	n/a	n/a	n/a	n/a	n/a
3439.09	n/a	RECOG_RESP	1719545	n/a	LTP102	ltpFR	14	3	-1	DIAGRAM	456	n/a	-1	n/a	n/a	n/a	n/a	n/a
3439.884	n/a	RECOG_CONF	1719942	n/a	LTP102	ltpFR	14	3	-1	DIAGRAM	456	5	-1	n/a	n/a	n/a	n/a	n/a
3441.354	n/a	RECOG_TARGET	1720677	n/a	LTP102	ltpFR	14	3	0	LEAF	808	5	0	n/a	n/a	n/a	n/a	n/a
3442.004	n/a	RECOG_RESP	1721002	n/a	LTP102	ltpFR	14	3	0	LEAF	808	n/a	0	n/a	n/a	n/a	n/a	n/a
3442.888	n/a	RECOG_CONF	1721444	n/a	LTP102	ltpFR	14	3	0	LEAF	808	5	0	n/a	n/a	n/a	n/a	n/a
3444.422	n/a	RECOG_TARGET	1722211	n/a	LTP102	ltpFR	14	3	0	DELINQUENT	445	5	1	n/a	n/a	n/a	n/a	n/a
3444.992	n/a	RECOG_RESP	1722496	n/a	LTP102	ltpFR	14	3	0	DELINQUENT	445	n/a	1	n/a	n/a	n/a	n/a	n/a
3445.742	n/a	RECOG_CONF	1722871	n/a	LTP102	ltpFR	14	3	0	DELINQUENT	445	5	1	n/a	n/a	n/a	n/a	n/a
3447.154	n/a	RECOG_LURE	1723577	n/a	LTP102	ltpFR	14	3	n/a	SODA	1341	3	n/a	n/a	n/a	n/a	n/a	n/a
3447.776	n/a	RECOG_RESP	1723888	n/a	LTP102	ltpFR	14	3	n/a	SODA	1341	n/a	n/a	n/a	n/a	n/a	n/a	n/a
3448.464	n/a	RECOG_CONF	1724232	n/a	LTP102	ltpFR	14	3	n/a	SODA	1341	3	n/a	n/a	n/a	n/a	n/a	n/a
3449.788	n/a	RECOG_TARGET	1724894	n/a	LTP102	ltpFR	14	3	0	MAPLE	866	5	1	n/a	n/a	n/a	n/a	n/a
3450.416	n/a	RECOG_RESP	1725208	n/a	LTP102	ltpFR	14	3	0	MAPLE	866	n/a	1	n/a	n/a	n/a	n/a	n/a
3451.168	n/a	RECOG_CONF	1725584	n/a	LTP102	ltpFR	14	3	0	MAPLE	866	5	1	n/a	n/a	n/a	n/a	n/a
3452.62	n/a	RECOG_TARGET	1726310	n/a	LTP102	ltpFR	14	3	-1	WEED	1599	5	-1	n/a	n/a	n/a	n/a	n/a
3453.1	n/a	RECOG_RESP	1726550	n/a	LTP102	ltpFR	14	3	-1	WEED	1599	n/a	-1	n/a	n/a	n/a	n/a	n/a
3453.782	n/a	RECOG_CONF	1726891	n/a	LTP102	ltpFR	14	3	-1	WEED	1599	5	-1	n/a	n/a	n/a	n/a	n/a
3455.194	n/a	RECOG_TARGET	1727597	n/a	LTP102	ltpFR	14	3	0	CORN	381	5	0	n/a	n/a	n/a	n/a	n/a
3455.818	n/a	RECOG_RESP	1727909	n/a	LTP102	ltpFR	14	3	0	CORN	381	n/a	0	n/a	n/a	n/a	n/a	n/a
3456.526	n/a	RECOG_CONF	1728263	n/a	LTP102	ltpFR	14	3	0	CORN	381	5	0	n/a	n/a	n/a	n/a	n/a
3458.028	n/a	RECOG_LURE	1729014	n/a	LTP102	ltpFR	14	3	n/a	SHOELACE	1289	2	n/a	n/a	n/a	n/a	n/a	n/a
3458.896	n/a	RECOG_RESP	1729448	n/a	LTP102	ltpFR	14	3	n/a	SHOELACE	1289	n/a	n/a	n/a	n/a	n/a	n/a	n/a
3460.368	n/a	RECOG_CONF	1730184	n/a	LTP102	ltpFR	14	3	n/a	SHOELACE	1289	2	n/a	n/a	n/a	n/a	n/a	n/a
3461.88	n/a	RECOG_TARGET	1730940	n/a	LTP102	ltpFR	14	3	-1	TREAT	1501	5	-1	n/a	n/a	n/a	n/a	n/a
3462.464	n/a	RECOG_RESP	1731232	n/a	LTP102	ltpFR	14	3	-1	TREAT	1501	n/a	-1	n/a	n/a	n/a	n/a	n/a
3463.102	n/a	RECOG_CONF	1731551	n/a	LTP102	ltpFR	14	3	-1	TREAT	1501	5	-1	n/a	n/a	n/a	n/a	n/a
3464.612	n/a	RECOG_TARGET	1732306	n/a	LTP102	ltpFR	14	3	-1	CHILD	299	5	-1	n/a	n/a	n/a	n/a	n/a
3465.168	n/a	RECOG_RESP	1732584	n/a	LTP102	ltpFR	14	3	-1	CHILD	299	n/a	-1	n/a	n/a	n/a	n/a	n/a
3465.816	n/a	RECOG_CONF	1732908	n/a	LTP102	ltpFR	14	3	-1	CHILD	299	5	-1	n/a	n/a	n/a	n/a	n/a
3467.338	n/a	RECOG_TARGET	1733669	n/a	LTP102	ltpFR	14	3	1	BEE	112	5	1	n/a	n/a	n/a	n/a	n/a
3467.936	n/a	RECOG_RESP	1733968	n/a	LTP102	ltpFR	14	3	1	BEE	112	n/a	1	n/a	n/a	n/a	n/a	n/a
3468.6	n/a	RECOG_CONF	1734300	n/a	LTP102	ltpFR	14	3	1	BEE	112	5	1	n/a	n/a	n/a	n/a	n/a
3470.004	n/a	RECOG_TARGET	1735002	n/a	LTP102	ltpFR	14	3	0	FIGHTER	564	1	1	n/a	n/a	n/a	n/a	n/a
3471.284	n/a	RECOG_RESP	1735642	n/a	LTP102	ltpFR	14	3	0	FIGHTER	564	n/a	1	n/a	n/a	n/a	n/a	n/a
3472.082	n/a	RECOG_CONF	1736041	n/a	LTP102	ltpFR	14	3	0	FIGHTER	564	1	1	n/a	n/a	n/a	n/a	n/a
3473.536	n/a	RECOG_TARGET	1736768	n/a	LTP102	ltpFR	14	3	1	SCOTCH	1251	5	0	n/a	n/a	n/a	n/a	n/a
3474.342	n/a	RECOG_RESP	1737171	n/a	LTP102	ltpFR	14	3	1	SCOTCH	1251	n/a	0	n/a	n/a	n/a	n/a	n/a
3475.046	n/a	RECOG_CONF	1737523	n/a	LTP102	ltpFR	14	3	1	SCOTCH	1251	5	0	n/a	n/a	n/a	n/a	n/a
3476.436	n/a	RECOG_LURE	1738218	n/a	LTP102	ltpFR	14	3	n/a	THICKET	1455	5	n/a	n/a	n/a	n/a	n/a	n/a
3477.116	n/a	RECOG_RESP	1738558	n/a	LTP102	ltpFR	14	3	n/a	THICKET	1455	n/a	n/a	n/a	n/a	n/a	n/a	n/a
3477.77	n/a	RECOG_CONF	1738885	n/a	LTP102	ltpFR	14	3	n/a	THICKET	1455	5	n/a	n/a	n/a	n/a	n/a	n/a
3483.96	n/a	REC_START	1741980	n/a	LTP102	ltpFR	14	4	n/a	n/a	n/a	n/a	n/a	n/a	n/a	n/a	n/a	n/a
3483.996	n/a	RECOG_TARGET	1741998	n/a	LTP102	ltpFR	14	4	-1	JUPITER	765	5	-1	n/a	n/a	n/a	n/a	n/a
3484.678	n/a	RECOG_RESP	1742339	n/a	LTP102	ltpFR	14	4	-1	JUPITER	765	n/a	-1	n/a	n/a	n/a	n/a	n/a
3485.332	n/a	RECOG_CONF	1742666	n/a	LTP102	ltpFR	14	4	-1	JUPITER	765	5	-1	n/a	n/a	n/a	n/a	n/a
3486.712	n/a	RECOG_LURE	1743356	n/a	LTP102	ltpFR	14	4	n/a	CASTLE	256	2	n/a	n/a	n/a	n/a	n/a	n/a
3487.402	n/a	RECOG_RESP	1743701	n/a	LTP102	ltpFR	14	4	n/a	CASTLE	256	n/a	n/a	n/a	n/a	n/a	n/a	n/a
3488.236	n/a	RECOG_CONF	1744118	n/a	LTP102	ltpFR	14	4	n/a	CASTLE	256	2	n/a	n/a	n/a	n/a	n/a	n/a
3489.636	n/a	RECOG_TARGET	1744818	n/a	LTP102	ltpFR	14	4	1	CROCODILE	411	5	1	n/a	n/a	n/a	n/a	n/a
3490.212	n/a	RECOG_RESP	1745106	n/a	LTP102	ltpFR	14	4	1	CROCODILE	411	n/a	1	n/a	n/a	n/a	n/a	n/a
3490.93	n/a	RECOG_CONF	1745465	n/a	LTP102	ltpFR	14	4	1	CROCODILE	411	5	1	n/a	n/a	n/a	n/a	n/a
3492.294	n/a	RECOG_TARGET	1746147	n/a	LTP102	ltpFR	14	4	1	MILITARY	894	5	1	n/a	n/a	n/a	n/a	n/a
3492.816	n/a	RECOG_RESP	1746408	n/a	LTP102	ltpFR	14	4	1	MILITARY	894	n/a	1	n/a	n/a	n/a	n/a	n/a
3493.444	n/a	RECOG_CONF	1746722	n/a	LTP102	ltpFR	14	4	1	MILITARY	894	5	1	n/a	n/a	n/a	n/a	n/a
3494.82	n/a	RECOG_TARGET	1747410	n/a	LTP102	ltpFR	14	4	0	PROFESSOR	1131	5	1	n/a	n/a	n/a	n/a	n/a
3495.31	n/a	RECOG_RESP	1747655	n/a	LTP102	ltpFR	14	4	0	PROFESSOR	1131	n/a	1	n/a	n/a	n/a	n/a	n/a
3495.998	n/a	RECOG_CONF	1747999	n/a	LTP102	ltpFR	14	4	0	PROFESSOR	1131	5	1	n/a	n/a	n/a	n/a	n/a
3497.42	n/a	RECOG_TARGET	1748710	n/a	LTP102	ltpFR	14	4	0	RECORD	1176	3	1	n/a	n/a	n/a	n/a	n/a
3498.726	n/a	RECOG_RESP	1749363	n/a	LTP102	ltpFR	14	4	0	RECORD	1176	n/a	1	n/a	n/a	n/a	n/a	n/a
3499.6	n/a	RECOG_CONF	1749800	n/a	LTP102	ltpFR	14	4	0	RECORD	1176	3	1	n/a	n/a	n/a	n/a	n/a
3500.92	n/a	RECOG_TARGET	1750460	n/a	LTP102	ltpFR	14	4	-1	MOTOR	922	5	-1	n/a	n/a	n/a	n/a	n/a
3501.436	n/a	RECOG_RESP	1750718	n/a	LTP102	ltpFR	14	4	-1	MOTOR	922	n/a	-1	n/a	n/a	n/a	n/a	n/a
3502.056	n/a	RECOG_CONF	1751028	n/a	LTP102	ltpFR	14	4	-1	MOTOR	922	5	-1	n/a	n/a	n/a	n/a	n/a
3503.536	n/a	RECOG_TARGET	1751768	n/a	LTP102	ltpFR	14	4	0	UNIFORM	1539	5	1	n/a	n/a	n/a	n/a	n/a
3504.03	n/a	RECOG_RESP	1752015	n/a	LTP102	ltpFR	14	4	0	UNIFORM	1539	n/a	1	n/a	n/a	n/a	n/a	n/a
3504.66	n/a	RECOG_CONF	1752330	n/a	LTP102	ltpFR	14	4	0	UNIFORM	1539	5	1	n/a	n/a	n/a	n/a	n/a
3506.21	n/a	RECOG_TARGET	1753105	n/a	LTP102	ltpFR	14	4	0	POWDER	1117	2	1	n/a	n/a	n/a	n/a	n/a
3507.408	n/a	RECOG_RESP	1753704	n/a	LTP102	ltpFR	14	4	0	POWDER	1117	n/a	1	n/a	n/a	n/a	n/a	n/a
3509.03	n/a	RECOG_CONF	1754515	n/a	LTP102	ltpFR	14	4	0	POWDER	1117	2	1	n/a	n/a	n/a	n/a	n/a
3510.52	n/a	RECOG_TARGET	1755260	n/a	LTP102	ltpFR	14	4	0	PEPPER	1047	5	0	n/a	n/a	n/a	n/a	n/a
3511.144	n/a	RECOG_RESP	1755572	n/a	LTP102	ltpFR	14	4	0	PEPPER	1047	n/a	0	n/a	n/a	n/a	n/a	n/a
3511.852	n/a	RECOG_CONF	1755926	n/a	LTP102	ltpFR	14	4	0	PEPPER	1047	5	0	n/a	n/a	n/a	n/a	n/a
3513.168	n/a	RECOG_TARGET	1756584	n/a	LTP102	ltpFR	14	4	-1	GOVERNOR	651	5	-1	n/a	n/a	n/a	n/a	n/a
3513.658	n/a	RECOG_RESP	1756829	n/a	LTP102	ltpFR	14	4	-1	GOVERNOR	651	n/a	-1	n/a	n/a	n/a	n/a	n/a
3514.268	n/a	RECOG_CONF	1757134	n/a	LTP102	ltpFR	14	4	-1	GOVERNOR	651	5	-1	n/a	n/a	n/a	n/a	n/a
3515.61	n/a	RECOG_TARGET	1757805	n/a	LTP102	ltpFR	14	4	0	HOUND	724	5	n/a	n/a	n/a	n/a	n/a	n/a
3516.068	n/a	RECOG_RESP	1758034	n/a	LTP102	ltpFR	14	4	0	HOUND	724	n/a	n/a	n/a	n/a	n/a	n/a	n/a
3516.672	n/a	RECOG_CONF	1758336	n/a	LTP102	ltpFR	14	4	0	HOUND	724	5	n/a	n/a	n/a	n/a	n/a	n/a
3518.144	n/a	RECOG_TARGET	1759072	n/a	LTP102	ltpFR	14	4	1	LADY	794	3	1	n/a	n/a	n/a	n/a	n/a
3519.108	n/a	RECOG_RESP	1759554	n/a	LTP102	ltpFR	14	4	1	LADY	794	n/a	1	n/a	n/a	n/a	n/a	n/a
3519.85	n/a	RECOG_CONF	1759925	n/a	LTP102	ltpFR	14	4	1	LADY	794	3	1	n/a	n/a	n/a	n/a	n/a
3521.218	n/a	RECOG_LURE	1760609	n/a	LTP102	ltpFR	14	4	n/a	CLOTHES	327	5	n/a	n/a	n/a	n/a	n/a	n/a
3522.196	n/a	RECOG_RESP	1761098	n/a	LTP102	ltpFR	14	4	n/a	CLOTHES	327	n/a	n/a	n/a	n/a	n/a	n/a	n/a
3522.878	n/a	RECOG_CONF	1761439	n/a	LTP102	ltpFR	14	4	n/a	CLOTHES	327	5	n/a	n/a	n/a	n/a	n/a	n/a
3524.394	n/a	RECOG_LURE	1762197	n/a	LTP102	ltpFR	14	4	n/a	GOO	648	5	n/a	n/a	n/a	n/a	n/a	n/a
3525.058	n/a	RECOG_RESP	1762529	n/a	LTP102	ltpFR	14	4	n/a	GOO	648	n/a	n/a	n/a	n/a	n/a	n/a	n/a
3525.662	n/a	RECOG_CONF	1762831	n/a	LTP102	ltpFR	14	4	n/a	GOO	648	5	n/a	n/a	n/a	n/a	n/a	n/a
3527.176	n/a	RECOG_TARGET	1763588	n/a	LTP102	ltpFR	14	4	-1	CANAL	226	5	-1	n/a	n/a	n/a	n/a	n/a
3527.968	n/a	RECOG_RESP	1763984	n/a	LTP102	ltpFR	14	4	-1	CANAL	226	n/a	-1	n/a	n/a	n/a	n/a	n/a
3528.626	n/a	RECOG_CONF	1764313	n/a	LTP102	ltpFR	14	4	-1	CANAL	226	5	-1	n/a	n/a	n/a	n/a	n/a
3530.11	n/a	RECOG_TARGET	1765055	n/a	LTP102	ltpFR	14	4	1	BOTTLE	153	5	1	n/a	n/a	n/a	n/a	n/a
3530.746	n/a	RECOG_RESP	1765373	n/a	LTP102	ltpFR	14	4	1	BOTTLE	153	n/a	1	n/a	n/a	n/a	n/a	n/a
3531.52	n/a	RECOG_CONF	1765760	n/a	LTP102	ltpFR	14	4	1	BOTTLE	153	5	1	n/a	n/a	n/a	n/a	n/a
3533.002	n/a	RECOG_TARGET	1766501	n/a	LTP102	ltpFR	14	4	-1	GREASE	660	5	-1	n/a	n/a	n/a	n/a	n/a
3533.644	n/a	RECOG_RESP	1766822	n/a	LTP102	ltpFR	14	4	-1	GREASE	660	n/a	-1	n/a	n/a	n/a	n/a	n/a
3534.382	n/a	RECOG_CONF	1767191	n/a	LTP102	ltpFR	14	4	-1	GREASE	660	5	-1	n/a	n/a	n/a	n/a	n/a
3535.876	n/a	RECOG_TARGET	1767938	n/a	LTP102	ltpFR	14	4	1	PEOPLE	1046	5	1	n/a	n/a	n/a	n/a	n/a
3536.658	n/a	RECOG_RESP	1768329	n/a	LTP102	ltpFR	14	4	1	PEOPLE	1046	n/a	1	n/a	n/a	n/a	n/a	n/a
3537.436	n/a	RECOG_CONF	1768718	n/a	LTP102	ltpFR	14	4	1	PEOPLE	1046	5	1	n/a	n/a	n/a	n/a	n/a
3538.81	n/a	RECOG_TARGET	1769405	n/a	LTP102	ltpFR	14	4	1	SILVERWARE	1308	5	0	n/a	n/a	n/a	n/a	n/a
3539.322	n/a	RECOG_RESP	1769661	n/a	LTP102	ltpFR	14	4	1	SILVERWARE	1308	n/a	0	n/a	n/a	n/a	n/a	n/a
3540.02	n/a	RECOG_CONF	1770010	n/a	LTP102	ltpFR	14	4	1	SILVERWARE	1308	5	0	n/a	n/a	n/a	n/a	n/a
3546.916	n/a	REC_START	1773458	n/a	LTP102	ltpFR	14	5	n/a	n/a	n/a	n/a	n/a	n/a	n/a	n/a	n/a	n/a
3546.952	n/a	RECOG_TARGET	1773476	n/a	LTP102	ltpFR	14	5	-1	CAGE	218	5	-1	n/a	n/a	n/a	n/a	n/a
3548.532	n/a	RECOG_RESP	1774266	n/a	LTP102	ltpFR	14	5	-1	CAGE	218	n/a	-1	n/a	n/a	n/a	n/a	n/a
3549.346	n/a	RECOG_CONF	1774673	n/a	LTP102	ltpFR	14	5	-1	CAGE	218	5	-1	n/a	n/a	n/a	n/a	n/a
3551.044	n/a	RECOG_TARGET	1775522	n/a	LTP102	ltpFR	14	5	1	FINGERNAIL	568	5	1	n/a	n/a	n/a	n/a	n/a
3552.438	n/a	RECOG_RESP	1776219	n/a	LTP102	ltpFR	14	5	1	FINGERNAIL	568	n/a	1	n/a	n/a	n/a	n/a	n/a
3553.188	n/a	RECOG_CONF	1776594	n/a	LTP102	ltpFR	14	5	1	FINGERNAIL	568	5	1	n/a	n/a	n/a	n/a	n/a
3554.726	n/a	RECOG_LURE	1777363	n/a	LTP102	ltpFR	14	5	n/a	RECEPTIONIST	1174	5	n/a	n/a	n/a	n/a	n/a	n/a
3555.542	n/a	RECOG_RESP	1777771	n/a	LTP102	ltpFR	14	5	n/a	RECEPTIONIST	1174	n/a	n/a	n/a	n/a	n/a	n/a	n/a
3556.04	n/a	RECOG_CONF	1778020	n/a	LTP102	ltpFR	14	5	n/a	RECEPTIONIST	1174	5	n/a	n/a	n/a	n/a	n/a	n/a
3557.526	n/a	RECOG_TARGET	1778763	n/a	LTP102	ltpFR	14	5	1	EARRING	514	5	0	n/a	n/a	n/a	n/a	n/a
3557.992	n/a	RECOG_RESP	1778996	n/a	LTP102	ltpFR	14	5	1	EARRING	514	n/a	0	n/a	n/a	n/a	n/a	n/a
3558.556	n/a	RECOG_CONF	1779278	n/a	LTP102	ltpFR	14	5	1	EARRING	514	5	0	n/a	n/a	n/a	n/a	n/a
3560.06	n/a	RECOG_TARGET	1780030	n/a	LTP102	ltpFR	14	5	-1	ASSISTANT	48	5	-1	n/a	n/a	n/a	n/a	n/a
3560.616	n/a	RECOG_RESP	1780308	n/a	LTP102	ltpFR	14	5	-1	ASSISTANT	48	n/a	-1	n/a	n/a	n/a	n/a	n/a
3561.24	n/a	RECOG_CONF	1780620	n/a	LTP102	ltpFR	14	5	-1	ASSISTANT	48	5	-1	n/a	n/a	n/a	n/a	n/a
3562.644	n/a	RECOG_TARGET	1781322	n/a	LTP102	ltpFR	14	5	0	TREE	1502	2	1	n/a	n/a	n/a	n/a	n/a
3563.076	n/a	RECOG_RESP_VV	1781538	n/a	LTP102	ltpFR	14	5	0	TREE	1502	n/a	1	n/a	n/a	n/a	n/a	n/a
3564.886	n/a	RECOG_RESP	1782443	n/a	LTP102	ltpFR	14	5	0	TREE	1502	n/a	1	n/a	n/a	n/a	n/a	n/a
3565.85	n/a	RECOG_CONF	1782925	n/a	LTP102	ltpFR	14	5	0	TREE	1502	2	1	n/a	n/a	n/a	n/a	n/a
3567.342	n/a	RECOG_TARGET	1783671	n/a	LTP102	ltpFR	14	5	0	BALL	73	5	1	n/a	n/a	n/a	n/a	n/a
3568.154	n/a	RECOG_RESP_VV	1784077	n/a	LTP102	ltpFR	14	5	0	BALL	73	n/a	1	n/a	n/a	n/a	n/a	n/a
3569.032	n/a	RECOG_RESP	1784516	n/a	LTP102	ltpFR	14	5	0	BALL	73	n/a	1	n/a	n/a	n/a	n/a	n/a
3569.87	n/a	RECOG_CONF	1784935	n/a	LTP102	ltpFR	14	5	0	BALL	73	5	1	n/a	n/a	n/a	n/a	n/a
3571.45	n/a	RECOG_LURE	1785725	n/a	LTP102	ltpFR	14	5	n/a	TERMITE	1451	5	n/a	n/a	n/a	n/a	n/a	n/a
3572.374	n/a	RECOG_RESP	1786187	n/a	LTP102	ltpFR	14	5	n/a	TERMITE	1451	n/a	n/a	n/a	n/a	n/a	n/a	n/a
3573.152	n/a	RECOG_CONF	1786576	n/a	LTP102	ltpFR	14	5	n/a	TERMITE	1451	5	n/a	n/a	n/a	n/a	n/a	n/a
3574.534	n/a	RECOG_TARGET	1787267	n/a	LTP102	ltpFR	14	5	0	RING	1193	5	0	n/a	n/a	n/a	n/a	n/a
3575.322	n/a	RECOG_RESP	1787661	n/a	LTP102	ltpFR	14	5	0	RING	1193	n/a	0	n/a	n/a	n/a	n/a	n/a
3576.266	n/a	RECOG_CONF	1788133	n/a	LTP102	ltpFR	14	5	0	RING	1193	5	0	n/a	n/a	n/a	n/a	n/a
3577.568	n/a	RECOG_TARGET	1788784	n/a	LTP102	ltpFR	14	5	-1	PILL	1068	5	-1	n/a	n/a	n/a	n/a	n/a
3578.292	n/a	RECOG_RESP	1789146	n/a	LTP102	ltpFR	14	5	-1	PILL	1068	n/a	-1	n/a	n/a	n/a	n/a	n/a
3578.93	n/a	RECOG_CONF	1789465	n/a	LTP102	ltpFR	14	5	-1	PILL	1068	5	-1	n/a	n/a	n/a	n/a	n/a
3580.402	n/a	RECOG_TARGET	1790201	n/a	LTP102	ltpFR	14	5	1	CHAMPION	279	5	1	n/a	n/a	n/a	n/a	n/a
3580.836	n/a	RECOG_RESP	1790418	n/a	LTP102	ltpFR	14	5	1	CHAMPION	279	n/a	1	n/a	n/a	n/a	n/a	n/a
3581.604	n/a	RECOG_CONF	1790802	n/a	LTP102	ltpFR	14	5	1	CHAMPION	279	5	1	n/a	n/a	n/a	n/a	n/a
3583.1	n/a	RECOG_LURE	1791550	n/a	LTP102	ltpFR	14	5	n/a	LABEL	790	3	n/a	n/a	n/a	n/a	n/a	n/a
3583.584	n/a	RECOG_RESP_VV	1791792	n/a	LTP102	ltpFR	14	5	n/a	LABEL	790	n/a	n/a	n/a	n/a	n/a	n/a	n/a
3584.044	n/a	RECOG_RESP	1792022	n/a	LTP102	ltpFR	14	5	n/a	LABEL	790	n/a	n/a	n/a	n/a	n/a	n/a	n/a
3584.718	n/a	RECOG_CONF	1792359	n/a	LTP102	ltpFR	14	5	n/a	LABEL	790	3	n/a	n/a	n/a	n/a	n/a	n/a
3586.118	n/a	RECOG_TARGET	1793059	n/a	LTP102	ltpFR	14	5	1	SHEPHERD	1283	5	1	n/a	n/a	n/a	n/a	n/a
3586.712	n/a	RECOG_RESP	1793356	n/a	LTP102	ltpFR	14	5	1	SHEPHERD	1283	n/a	1	n/a	n/a	n/a	n/a	n/a
3587.362	n/a	RECOG_CONF	1793681	n/a	LTP102	ltpFR	14	5	1	SHEPHERD	1283	5	1	n/a	n/a	n/a	n/a	n/a
3589.034	n/a	RECOG_TARGET	1794517	n/a	LTP102	ltpFR	14	5	1	MOTORCYCLE	923	5	0	n/a	n/a	n/a	n/a	n/a
3589.472	n/a	RECOG_RESP	1794736	n/a	LTP102	ltpFR	14	5	1	MOTORCYCLE	923	n/a	0	n/a	n/a	n/a	n/a	n/a
3590.204	n/a	RECOG_CONF	1795102	n/a	LTP102	ltpFR	14	5	1	MOTORCYCLE	923	5	0	n/a	n/a	n/a	n/a	n/a
3591.634	n/a	RECOG_TARGET	1795817	n/a	LTP102	ltpFR	14	5	-1	CONSUMER	365	5	-1	n/a	n/a	n/a	n/a	n/a
3592.31	n/a	RECOG_RESP	1796155	n/a	LTP102	ltpFR	14	5	-1	CONSUMER	365	n/a	-1	n/a	n/a	n/a	n/a	n/a
3592.948	n/a	RECOG_CONF	1796474	n/a	LTP102	ltpFR	14	5	-1	CONSUMER	365	5	-1	n/a	n/a	n/a	n/a	n/a
3594.534	n/a	RECOG_TARGET	1797267	n/a	LTP102	ltpFR	14	5	-1	DICTATOR	462	3	-1	n/a	n/a	n/a	n/a	n/a
3595.104	n/a	RECOG_RESP	1797552	n/a	LTP102	ltpFR	14	5	-1	DICTATOR	462	n/a	-1	n/a	n/a	n/a	n/a	n/a
3595.852	n/a	RECOG_CONF	1797926	n/a	LTP102	ltpFR	14	5	-1	DICTATOR	462	3	-1	n/a	n/a	n/a	n/a	n/a
3597.11	n/a	RECOG_LURE	1798555	n/a	LTP102	ltpFR	14	5	n/a	WHISTLE	1606	1	n/a	n/a	n/a	n/a	n/a	n/a
3597.828	n/a	RECOG_RESP	1798914	n/a	LTP102	ltpFR	14	5	n/a	WHISTLE	1606	n/a	n/a	n/a	n/a	n/a	n/a	n/a
3600.442	n/a	RECOG_CONF	1800221	n/a	LTP102	ltpFR	14	5	n/a	WHISTLE	1606	1	n/a	n/a	n/a	n/a	n/a	n/a
3601.858	n/a	RECOG_LURE	1800929	n/a	LTP102	ltpFR	14	5	n/a	PORCH	1106	5	n/a	n/a	n/a	n/a	n/a	n/a
3602.692	n/a	RECOG_RESP	1801346	n/a	LTP102	ltpFR	14	5	n/a	PORCH	1106	n/a	n/a	n/a	n/a	n/a	n/a	n/a
3603.326	n/a	RECOG_CONF	1801663	n/a	LTP102	ltpFR	14	5	n/a	PORCH	1106	5	n/a	n/a	n/a	n/a	n/a	n/a
3604.634	n/a	RECOG_TARGET	1802317	n/a	LTP102	ltpFR	14	5	1	CLERK	321	5	1	n/a	n/a	n/a	n/a	n/a
3605.362	n/a	RECOG_RESP	1802681	n/a	LTP102	ltpFR	14	5	1	CLERK	321	n/a	1	n/a	n/a	n/a	n/a	n/a
3605.942	n/a	RECOG_CONF	1802971	n/a	LTP102	ltpFR	14	5	1	CLERK	321	5	1	n/a	n/a	n/a	n/a	n/a
3607.584	n/a	RECOG_LURE	1803792	n/a	LTP102	ltpFR	14	5	n/a	LUMBER	848	3	n/a	n/a	n/a	n/a	n/a	n/a
3608.344	n/a	RECOG_RESP	1804172	n/a	LTP102	ltpFR	14	5	n/a	LUMBER	848	n/a	n/a	n/a	n/a	n/a	n/a	n/a
3610.34	n/a	RECOG_CONF	1805170	n/a	LTP102	ltpFR	14	5	n/a	LUMBER	848	3	n/a	n/a	n/a	n/a	n/a	n/a
3614.192	n/a	REC_START	1807096	n/a	LTP102	ltpFR	14	6	n/a	n/a	n/a	n/a	n/a	n/a	n/a	n/a	n/a	n/a
3614.232	n/a	RECOG_TARGET	1807116	n/a	LTP102	ltpFR	14	6	0	KETCHUP	771	5	0	n/a	n/a	n/a	n/a	n/a
3614.786	n/a	RECOG_RESP	1807393	n/a	LTP102	ltpFR	14	6	0	KETCHUP	771	n/a	0	n/a	n/a	n/a	n/a	n/a
3615.564	n/a	RECOG_CONF	1807782	n/a	LTP102	ltpFR	14	6	0	KETCHUP	771	5	0	n/a	n/a	n/a	n/a	n/a
3617.1	n/a	RECOG_TARGET	1808550	n/a	LTP102	ltpFR	14	6	-1	WATER	1594	3	-1	n/a	n/a	n/a	n/a	n/a
3617.826	n/a	RECOG_RESP	1808913	n/a	LTP102	ltpFR	14	6	-1	WATER	1594	n/a	-1	n/a	n/a	n/a	n/a	n/a
3618.908	n/a	RECOG_CONF	1809454	n/a	LTP102	ltpFR	14	6	-1	WATER	1594	3	-1	n/a	n/a	n/a	n/a	n/a
3620.408	n/a	RECOG_TARGET	1810204	n/a	LTP102	ltpFR	14	6	1	POCKETBOOK	1094	5	0	n/a	n/a	n/a	n/a	n/a
3621.002	n/a	RECOG_RESP	1810501	n/a	LTP102	ltpFR	14	6	1	POCKETBOOK	1094	n/a	0	n/a	n/a	n/a	n/a	n/a
3621.91	n/a	RECOG_CONF	1810955	n/a	LTP102	ltpFR	14	6	1	POCKETBOOK	1094	5	0	n/a	n/a	n/a	n/a	n/a
3623.574	n/a	RECOG_TARGET	1811787	n/a	LTP102	ltpFR	14	6	-1	CONTAINER	366	5	-1	n/a	n/a	n/a	n/a	n/a
3624.05	n/a	RECOG_RESP	1812025	n/a	LTP102	ltpFR	14	6	-1	CONTAINER	366	n/a	-1	n/a	n/a	n/a	n/a	n/a
3624.824	n/a	RECOG_CONF	1812412	n/a	LTP102	ltpFR	14	6	-1	CONTAINER	366	5	-1	n/a	n/a	n/a	n/a	n/a
3626.242	n/a	RECOG_TARGET	1813121	n/a	LTP102	ltpFR	14	6	0	THIEF	1456	5	1	n/a	n/a	n/a	n/a	n/a
3626.74	n/a	RECOG_RESP	1813370	n/a	LTP102	ltpFR	14	6	0	THIEF	1456	n/a	1	n/a	n/a	n/a	n/a	n/a
3627.498	n/a	RECOG_CONF	1813749	n/a	LTP102	ltpFR	14	6	0	THIEF	1456	5	1	n/a	n/a	n/a	n/a	n/a
3629.05	n/a	RECOG_TARGET	1814525	n/a	LTP102	ltpFR	14	6	0	PLASTER	1085	5	1	n/a	n/a	n/a	n/a	n/a
3629.518	n/a	RECOG_RESP	1814759	n/a	LTP102	ltpFR	14	6	0	PLASTER	1085	n/a	1	n/a	n/a	n/a	n/a	n/a
3630.312	n/a	RECOG_CONF	1815156	n/a	LTP102	ltpFR	14	6	0	PLASTER	1085	5	1	n/a	n/a	n/a	n/a	n/a
3631.824	n/a	RECOG_TARGET	1815912	n/a	LTP102	ltpFR	14	6	0	HAT	690	5	1	n/a	n/a	n/a	n/a	n/a
3632.406	n/a	RECOG_RESP	1816203	n/a	LTP102	ltpFR	14	6	0	HAT	690	n/a	1	n/a	n/a	n/a	n/a	n/a
3633.166	n/a	RECOG_CONF	1816583	n/a	LTP102	ltpFR	14	6	0	HAT	690	5	1	n/a	n/a	n/a	n/a	n/a
3634.532	n/a	RECOG_TARGET	1817266	n/a	LTP102	ltpFR	14	6	0	STEWARDESS	1381	5	1	n/a	n/a	n/a	n/a	n/a
3635.15	n/a	RECOG_RESP	1817575	n/a	LTP102	ltpFR	14	6	0	STEWARDESS	1381	n/a	1	n/a	n/a	n/a	n/a	n/a
3635.97	n/a	RECOG_CONF	1817985	n/a	LTP102	ltpFR	14	6	0	STEWARDESS	1381	5	1	n/a	n/a	n/a	n/a	n/a
3637.558	n/a	RECOG_TARGET	1818779	n/a	LTP102	ltpFR	14	6	0	VAMPIRE	1547	5	1	n/a	n/a	n/a	n/a	n/a
3638.19	n/a	RECOG_RESP	1819095	n/a	LTP102	ltpFR	14	6	0	VAMPIRE	1547	n/a	1	n/a	n/a	n/a	n/a	n/a
3638.854	n/a	RECOG_CONF	1819427	n/a	LTP102	ltpFR	14	6	0	VAMPIRE	1547	5	1	n/a	n/a	n/a	n/a	n/a
3640.274	n/a	RECOG_TARGET	1820137	n/a	LTP102	ltpFR	14	6	0	OLIVE	975	5	0	n/a	n/a	n/a	n/a	n/a
3640.834	n/a	RECOG_RESP	1820417	n/a	LTP102	ltpFR	14	6	0	OLIVE	975	n/a	0	n/a	n/a	n/a	n/a	n/a
3641.528	n/a	RECOG_CONF	1820764	n/a	LTP102	ltpFR	14	6	0	OLIVE	975	5	0	n/a	n/a	n/a	n/a	n/a
3642.916	n/a	RECOG_TARGET	1821458	n/a	LTP102	ltpFR	14	6	0	SALIVA	1226	5	0	n/a	n/a	n/a	n/a	n/a
3643.428	n/a	RECOG_RESP	1821714	n/a	LTP102	ltpFR	14	6	0	SALIVA	1226	n/a	0	n/a	n/a	n/a	n/a	n/a
3644.252	n/a	RECOG_CONF	1822126	n/a	LTP102	ltpFR	14	6	0	SALIVA	1226	5	0	n/a	n/a	n/a	n/a	n/a
3645.982	n/a	RECOG_TARGET	1822991	n/a	LTP102	ltpFR	14	6	0	DRUM	502	5	1	n/a	n/a	n/a	n/a	n/a
3646.63	n/a	RECOG_RESP	1823315	n/a	LTP102	ltpFR	14	6	0	DRUM	502	n/a	1	n/a	n/a	n/a	n/a	n/a
3647.224	n/a	RECOG_CONF	1823612	n/a	LTP102	ltpFR	14	6	0	DRUM	502	5	1	n/a	n/a	n/a	n/a	n/a
3648.59	n/a	RECOG_TARGET	1824295	n/a	LTP102	ltpFR	14	6	-1	PIT	1077	5	-1	n/a	n/a	n/a	n/a	n/a
3649.4	n/a	RECOG_RESP	1824700	n/a	LTP102	ltpFR	14	6	-1	PIT	1077	n/a	-1	n/a	n/a	n/a	n/a	n/a
3650.218	n/a	RECOG_CONF	1825109	n/a	LTP102	ltpFR	14	6	-1	PIT	1077	5	-1	n/a	n/a	n/a	n/a	n/a
3651.716	n/a	RECOG_LURE	1825858	n/a	LTP102	ltpFR	14	6	n/a	LIGHTNING	820	1	n/a	n/a	n/a	n/a	n/a	n/a
3652.228	n/a	RECOG_RESP	1826114	n/a	LTP102	ltpFR	14	6	n/a	LIGHTNING	820	n/a	n/a	n/a	n/a	n/a	n/a	n/a
3655.636	n/a	RECOG_CONF	1827818	n/a	LTP102	ltpFR	14	6	n/a	LIGHTNING	820	1	n/a	n/a	n/a	n/a	n/a	n/a
3657.108	n/a	RECOG_TARGET	1828554	n/a	LTP102	ltpFR	14	6	1	BARRACUDA	90	5	1	n/a	n/a	n/a	n/a	n/a
3657.806	n/a	RECOG_RESP	1828903	n/a	LTP102	ltpFR	14	6	1	BARRACUDA	90	n/a	1	n/a	n/a	n/a	n/a	n/a
3658.41	n/a	RECOG_CONF	1829205	n/a	LTP102	ltpFR	14	6	1	BARRACUDA	90	5	1	n/a	n/a	n/a	n/a	n/a
3659.916	n/a	RECOG_TARGET	1829958	n/a	LTP102	ltpFR	14	6	0	NUCLEUS	961	5	0	n/a	n/a	n/a	n/a	n/a
3660.5	n/a	RECOG_RESP	1830250	n/a	LTP102	ltpFR	14	6	0	NUCLEUS	961	n/a	0	n/a	n/a	n/a	n/a	n/a
3661.054	n/a	RECOG_CONF	1830527	n/a	LTP102	ltpFR	14	6	0	NUCLEUS	961	5	0	n/a	n/a	n/a	n/a	n/a
3662.682	n/a	RECOG_LURE	1831341	n/a	LTP102	ltpFR	14	6	n/a	ENEMY	534	3	n/a	n/a	n/a	n/a	n/a	n/a
3663.16	n/a	RECOG_RESP	1831580	n/a	LTP102	ltpFR	14	6	n/a	ENEMY	534	n/a	n/a	n/a	n/a	n/a	n/a	n/a
3666.612	n/a	RECOG_CONF	1833306	n/a	LTP102	ltpFR	14	6	n/a	ENEMY	534	3	n/a	n/a	n/a	n/a	n/a	n/a
3667.906	n/a	RECOG_TARGET	1833953	n/a	LTP102	ltpFR	14	6	0	TENT	1449	5	1	n/a	n/a	n/a	n/a	n/a
3668.756	n/a	RECOG_RESP	1834378	n/a	LTP102	ltpFR	14	6	0	TENT	1449	n/a	1	n/a	n/a	n/a	n/a	n/a
3669.484	n/a	RECOG_CONF	1834742	n/a	LTP102	ltpFR	14	6	0	TENT	1449	5	1	n/a	n/a	n/a	n/a	n/a
3670.84	n/a	RECOG_TARGET	1835420	n/a	LTP102	ltpFR	14	6	0	MAYONNAISE	880	5	0	n/a	n/a	n/a	n/a	n/a
3671.296	n/a	RECOG_RESP	1835648	n/a	LTP102	ltpFR	14	6	0	MAYONNAISE	880	n/a	0	n/a	n/a	n/a	n/a	n/a
3671.998	n/a	RECOG_CONF	1835999	n/a	LTP102	ltpFR	14	6	0	MAYONNAISE	880	5	0	n/a	n/a	n/a	n/a	n/a
3673.456	n/a	RECOG_LURE	1836728	n/a	LTP102	ltpFR	14	6	n/a	APPENDAGE	32	5	n/a	n/a	n/a	n/a	n/a	n/a
3674.184	n/a	RECOG_RESP	1837092	n/a	LTP102	ltpFR	14	6	n/a	APPENDAGE	32	n/a	n/a	n/a	n/a	n/a	n/a	n/a
3674.854	n/a	RECOG_CONF	1837427	n/a	LTP102	ltpFR	14	6	n/a	APPENDAGE	32	5	n/a	n/a	n/a	n/a	n/a	n/a
3678.998	n/a	REC_START	1839499	n/a	LTP102	ltpFR	14	7	n/a	n/a	n/a	n/a	n/a	n/a	n/a	n/a	n/a	n/a
3679.032	n/a	RECOG_LURE	1839516	n/a	LTP102	ltpFR	14	7	n/a	RAT	1169	5	n/a	n/a	n/a	n/a	n/a	n/a
3679.568	n/a	RECOG_RESP	1839784	n/a	LTP102	ltpFR	14	7	n/a	RAT	1169	n/a	n/a	n/a	n/a	n/a	n/a	n/a
3680.44	n/a	RECOG_CONF	1840220	n/a	LTP102	ltpFR	14	7	n/a	RAT	1169	5	n/a	n/a	n/a	n/a	n/a	n/a
3682.064	n/a	RECOG_TARGET	1841032	n/a	LTP102	ltpFR	14	7	0	SALMON	1227	5	0	n/a	n/a	n/a	n/a	n/a
3682.626	n/a	RECOG_RESP	1841313	n/a	LTP102	ltpFR	14	7	0	SALMON	1227	n/a	0	n/a	n/a	n/a	n/a	n/a
3683.304	n/a	RECOG_CONF	1841652	n/a	LTP102	ltpFR	14	7	0	SALMON	1227	5	0	n/a	n/a	n/a	n/a	n/a
3684.614	n/a	RECOG_TARGET	1842307	n/a	LTP102	ltpFR	14	7	0	SHELTER	1282	5	1	n/a	n/a	n/a	n/a	n/a
3685.09	n/a	RECOG_RESP	1842545	n/a	LTP102	ltpFR	14	7	0	SHELTER	1282	n/a	1	n/a	n/a	n/a	n/a	n/a
3685.788	n/a	RECOG_CONF	1842894	n/a	LTP102	ltpFR	14	7	0	SHELTER	1282	5	1	n/a	n/a	n/a	n/a	n/a
3687.348	n/a	RECOG_LURE	1843674	n/a	LTP102	ltpFR	14	7	n/a	MOP	916	2	n/a	n/a	n/a	n/a	n/a	n/a
3687.744	n/a	RECOG_RESP	1843872	n/a	LTP102	ltpFR	14	7	n/a	MOP	916	n/a	n/a	n/a	n/a	n/a	n/a	n/a
