onset	duration	trial_type	sample	stim_file	subject	experiment	session	trial	task	item_name	item_num	recog_conf	resp	color_b	color_g	color_r	case	font
239.334	n/a	SESS_START	119667	n/a	LTP079	ltpFR	5	n/a	n/a	n/a	n/a	n/a	n/a	n/a	n/a	n/a	n/a	n/a
277.274	n/a	WORD	138637	wordpools/wasnorm_wordpool.txt	LTP079	ltpFR	5	1	0	PUB	1135	n/a	1	1	0.412841796875	0.57763671875	lower	../fonts/amplitud.ttf
281.166	n/a	WORD	140583	wordpools/wasnorm_wordpool.txt	LTP079	ltpFR	5	1	0	SHRINE	1298	n/a	1	1	0.412841796875	0.57763671875	lower	../fonts/amplitud.ttf
285.348	n/a	WORD	142674	wordpools/wasnorm_wordpool.txt	LTP079	ltpFR	5	1	1	SILK	1307	n/a	0	0	0.5869140625	0.422607421875	upper	../fonts/zerothre.ttf
289.524	n/a	WORD	144762	wordpools/wasnorm_wordpool.txt	LTP079	ltpFR	5	1	1	CROSS	413	n/a	0	0	0.5869140625	0.422607421875	upper	../fonts/zerothre.ttf
293.7	n/a	WORD	146850	wordpools/wasnorm_wordpool.txt	LTP079	ltpFR	5	1	1	LEADER	807	n/a	1	0	0.5869140625	0.422607421875	upper	../fonts/zerothre.ttf
297.7	n/a	WORD	148850	wordpools/wasnorm_wordpool.txt	LTP079	ltpFR	5	1	1	PLUTO	1092	n/a	0	0	0.5869140625	0.422607421875	upper	../fonts/zerothre.ttf
301.858	n/a	WORD	150929	wordpools/wasnorm_wordpool.txt	LTP079	ltpFR	5	1	1	GODDESS	646	n/a	1	0	0.5869140625	0.422607421875	upper	../fonts/zerothre.ttf
305.942	n/a	WORD	152971	wordpools/wasnorm_wordpool.txt	LTP079	ltpFR	5	1	1	BELL	118	n/a	0	0	0.5869140625	0.422607421875	upper	../fonts/zerothre.ttf
309.916	n/a	WORD	154958	wordpools/wasnorm_wordpool.txt	LTP079	ltpFR	5	1	0	PRIEST	1122	n/a	0	1	0.412841796875	0.57763671875	lower	../fonts/amplitud.ttf
314.024	n/a	WORD	157012	wordpools/wasnorm_wordpool.txt	LTP079	ltpFR	5	1	0	ZOO	1637	n/a	1	1	0.412841796875	0.57763671875	lower	../fonts/amplitud.ttf
318.016	n/a	WORD	159008	wordpools/wasnorm_wordpool.txt	LTP079	ltpFR	5	1	1	SEAL	1262	n/a	1	0	0.5869140625	0.422607421875	upper	../fonts/zerothre.ttf
321.998	n/a	WORD	160999	wordpools/wasnorm_wordpool.txt	LTP079	ltpFR	5	1	1	COOLER	375	n/a	0	0	0.5869140625	0.422607421875	upper	../fonts/zerothre.ttf
325.84	n/a	WORD	162920	wordpools/wasnorm_wordpool.txt	LTP079	ltpFR	5	1	0	SEAGULL	1261	n/a	0	1	0.412841796875	0.57763671875	lower	../fonts/amplitud.ttf
329.932	n/a	WORD	164966	wordpools/wasnorm_wordpool.txt	LTP079	ltpFR	5	1	0	PIGEON	1065	n/a	0	1	0.412841796875	0.57763671875	lower	../fonts/amplitud.ttf
334.066	n/a	WORD	167033	wordpools/wasnorm_wordpool.txt	LTP079	ltpFR	5	1	0	BELLY	119	n/a	0	1	0.412841796875	0.57763671875	lower	../fonts/amplitud.ttf
338.082	n/a	WORD	169041	wordpools/wasnorm_wordpool.txt	LTP079	ltpFR	5	1	0	WORKER	1621	n/a	0	1	0.412841796875	0.57763671875	lower	../fonts/amplitud.ttf
343.948	n/a	REC_START	171974	n/a	LTP079	ltpFR	5	1	n/a	n/a	n/a	n/a	n/a	n/a	n/a	n/a	n/a	n/a
344.99	n/a	REC_WORD	172495	wordpools/wasnorm_wordpool.txt	LTP079	ltpFR	5	1	0	WORKER	1621	n/a	0	n/a	n/a	n/a	n/a	n/a
346.17	n/a	REC_WORD	173085	wordpools/wasnorm_wordpool.txt	LTP079	ltpFR	5	1	0	SEAGULL	1261	n/a	0	n/a	n/a	n/a	n/a	n/a
347.77	n/a	REC_WORD	173885	wordpools/wasnorm_wordpool.txt	LTP079	ltpFR	5	1	0	PIGEON	1065	n/a	0	n/a	n/a	n/a	n/a	n/a
349.188	n/a	REC_WORD	174594	wordpools/wasnorm_wordpool.txt	LTP079	ltpFR	5	1	0	BELLY	119	n/a	0	n/a	n/a	n/a	n/a	n/a
350.704	n/a	REC_WORD	175352	wordpools/wasnorm_wordpool.txt	LTP079	ltpFR	5	1	1	GODDESS	646	n/a	1	n/a	n/a	n/a	n/a	n/a
352.25	n/a	REC_WORD	176125	wordpools/wasnorm_wordpool.txt	LTP079	ltpFR	5	1	0	PRIEST	1122	n/a	0	n/a	n/a	n/a	n/a	n/a
353.962	n/a	REC_WORD	176981	wordpools/wasnorm_wordpool.txt	LTP079	ltpFR	5	1	1	BELL	118	n/a	0	n/a	n/a	n/a	n/a	n/a
355.878	n/a	REC_WORD	177939	wordpools/wasnorm_wordpool.txt	LTP079	ltpFR	5	1	1	CROSS	413	n/a	0	n/a	n/a	n/a	n/a	n/a
357.684	n/a	REC_WORD	178842	wordpools/wasnorm_wordpool.txt	LTP079	ltpFR	5	1	1	LEADER	807	n/a	1	n/a	n/a	n/a	n/a	n/a
359.15	n/a	REC_WORD	179575	wordpools/wasnorm_wordpool.txt	LTP079	ltpFR	5	1	1	PLUTO	1092	n/a	0	n/a	n/a	n/a	n/a	n/a
361.22	n/a	REC_WORD	180610	wordpools/wasnorm_wordpool.txt	LTP079	ltpFR	5	1	0	SHRINE	1298	n/a	1	n/a	n/a	n/a	n/a	n/a
362.856	n/a	REC_WORD	181428	wordpools/wasnorm_wordpool.txt	LTP079	ltpFR	5	1	0	PUB	1135	n/a	1	n/a	n/a	n/a	n/a	n/a
366.04	n/a	REC_WORD	183020	wordpools/wasnorm_wordpool.txt	LTP079	ltpFR	5	1	1	SILK	1307	n/a	0	n/a	n/a	n/a	n/a	n/a
367.612	n/a	REC_WORD	183806	wordpools/wasnorm_wordpool.txt	LTP079	ltpFR	5	1	0	ZOO	1637	n/a	1	n/a	n/a	n/a	n/a	n/a
371.382	n/a	REC_WORD	185691	wordpools/wasnorm_wordpool.txt	LTP079	ltpFR	5	1	1	SEAL	1262	n/a	1	n/a	n/a	n/a	n/a	n/a
372.834	n/a	REC_WORD	186417	wordpools/wasnorm_wordpool.txt	LTP079	ltpFR	5	1	1	COOLER	375	n/a	0	n/a	n/a	n/a	n/a	n/a
376.84	n/a	REC_WORD	188420	wordpools/wasnorm_wordpool.txt	LTP079	ltpFR	5	1	0	PIGEON	1065	n/a	0	n/a	n/a	n/a	n/a	n/a
377.938	n/a	REC_WORD	188969	wordpools/wasnorm_wordpool.txt	LTP079	ltpFR	5	1	0	SEAGULL	1261	n/a	0	n/a	n/a	n/a	n/a	n/a
422.03	n/a	WORD	211015	wordpools/wasnorm_wordpool.txt	LTP079	ltpFR	5	2	1	ADULT	8	n/a	1	0	0.5869140625	0.422607421875	upper	../fonts/zerothre.ttf
426.02	n/a	WORD	213010	wordpools/wasnorm_wordpool.txt	LTP079	ltpFR	5	2	1	CRADLE	399	n/a	0	0	0.5869140625	0.422607421875	upper	../fonts/zerothre.ttf
430.172	n/a	WORD	215086	wordpools/wasnorm_wordpool.txt	LTP079	ltpFR	5	2	1	UNIVERSE	1540	n/a	0	0	0.5869140625	0.422607421875	upper	../fonts/zerothre.ttf
434.296	n/a	WORD	217148	wordpools/wasnorm_wordpool.txt	LTP079	ltpFR	5	2	1	MOON	914	n/a	0	0	0.5869140625	0.422607421875	upper	../fonts/zerothre.ttf
438.204	n/a	WORD	219102	wordpools/wasnorm_wordpool.txt	LTP079	ltpFR	5	2	0	HEN	703	n/a	0	1	0.412841796875	0.57763671875	lower	../fonts/amplitud.ttf
442.154	n/a	WORD	221077	wordpools/wasnorm_wordpool.txt	LTP079	ltpFR	5	2	0	MOSQUITO	917	n/a	0	1	0.412841796875	0.57763671875	lower	../fonts/amplitud.ttf
445.994	n/a	WORD	222997	wordpools/wasnorm_wordpool.txt	LTP079	ltpFR	5	2	0	RADIO	1157	n/a	0	1	0.412841796875	0.57763671875	lower	../fonts/amplitud.ttf
450.012	n/a	WORD	225006	wordpools/wasnorm_wordpool.txt	LTP079	ltpFR	5	2	0	DRIVEWAY	500	n/a	1	1	0.412841796875	0.57763671875	lower	../fonts/amplitud.ttf
454.154	n/a	WORD	227077	wordpools/wasnorm_wordpool.txt	LTP079	ltpFR	5	2	1	RECIPE	1175	n/a	0	0	0.5869140625	0.422607421875	upper	../fonts/zerothre.ttf
458.212	n/a	WORD	229106	wordpools/wasnorm_wordpool.txt	LTP079	ltpFR	5	2	1	BRUNETTE	181	n/a	1	0	0.5869140625	0.422607421875	upper	../fonts/zerothre.ttf
462.062	n/a	WORD	231031	wordpools/wasnorm_wordpool.txt	LTP079	ltpFR	5	2	0	LOOP	844	n/a	0	1	0.412841796875	0.57763671875	lower	../fonts/amplitud.ttf
466.138	n/a	WORD	233069	wordpools/wasnorm_wordpool.txt	LTP079	ltpFR	5	2	0	CELLO	268	n/a	0	1	0.412841796875	0.57763671875	lower	../fonts/amplitud.ttf
470.278	n/a	WORD	235139	wordpools/wasnorm_wordpool.txt	LTP079	ltpFR	5	2	0	COOKBOOK	373	n/a	0	1	0.412841796875	0.57763671875	lower	../fonts/amplitud.ttf
474.12	n/a	WORD	237060	wordpools/wasnorm_wordpool.txt	LTP079	ltpFR	5	2	0	GERM	632	n/a	0	1	0.412841796875	0.57763671875	lower	../fonts/amplitud.ttf
478.294	n/a	WORD	239147	wordpools/wasnorm_wordpool.txt	LTP079	ltpFR	5	2	1	DAISY	435	n/a	1	0	0.5869140625	0.422607421875	upper	../fonts/zerothre.ttf
482.46	n/a	WORD	241230	wordpools/wasnorm_wordpool.txt	LTP079	ltpFR	5	2	1	ROSE	1212	n/a	1	0	0.5869140625	0.422607421875	upper	../fonts/zerothre.ttf
488.296	n/a	REC_START	244148	n/a	LTP079	ltpFR	5	2	n/a	n/a	n/a	n/a	n/a	n/a	n/a	n/a	n/a	n/a
489.292	n/a	REC_WORD	244646	wordpools/wasnorm_wordpool.txt	LTP079	ltpFR	5	2	1	ROSE	1212	n/a	1	n/a	n/a	n/a	n/a	n/a
490.764	n/a	REC_WORD	245382	wordpools/wasnorm_wordpool.txt	LTP079	ltpFR	5	2	1	DAISY	435	n/a	1	n/a	n/a	n/a	n/a	n/a
492.246	n/a	REC_WORD	246123	wordpools/wasnorm_wordpool.txt	LTP079	ltpFR	5	2	0	COOKBOOK	373	n/a	0	n/a	n/a	n/a	n/a	n/a
493.678	n/a	REC_WORD	246839	wordpools/wasnorm_wordpool.txt	LTP079	ltpFR	5	2	0	GERM	632	n/a	0	n/a	n/a	n/a	n/a	n/a
494.99	n/a	REC_WORD	247495	wordpools/wasnorm_wordpool.txt	LTP079	ltpFR	5	2	1	RECIPE	1175	n/a	0	n/a	n/a	n/a	n/a	n/a
496.482	n/a	REC_WORD	248241	wordpools/wasnorm_wordpool.txt	LTP079	ltpFR	5	2	0	DRIVEWAY	500	n/a	1	n/a	n/a	n/a	n/a	n/a
498.158	n/a	REC_WORD	249079	wordpools/wasnorm_wordpool.txt	LTP079	ltpFR	5	2	0	RADIO	1157	n/a	0	n/a	n/a	n/a	n/a	n/a
499.554	n/a	REC_WORD	249777	wordpools/wasnorm_wordpool.txt	LTP079	ltpFR	5	2	1	ADULT	8	n/a	1	n/a	n/a	n/a	n/a	n/a
501.042	n/a	REC_WORD	250521	wordpools/wasnorm_wordpool.txt	LTP079	ltpFR	5	2	1	UNIVERSE	1540	n/a	0	n/a	n/a	n/a	n/a	n/a
503.646	n/a	REC_WORD	251823	wordpools/wasnorm_wordpool.txt	LTP079	ltpFR	5	2	1	CRADLE	399	n/a	0	n/a	n/a	n/a	n/a	n/a
505.866	n/a	REC_WORD	252933	wordpools/wasnorm_wordpool.txt	LTP079	ltpFR	5	2	0	HEN	703	n/a	0	n/a	n/a	n/a	n/a	n/a
507.358	n/a	REC_WORD	253679	wordpools/wasnorm_wordpool.txt	LTP079	ltpFR	5	2	1	MOON	914	n/a	0	n/a	n/a	n/a	n/a	n/a
509.464	n/a	REC_WORD	254732	wordpools/wasnorm_wordpool.txt	LTP079	ltpFR	5	2	0	MOSQUITO	917	n/a	0	n/a	n/a	n/a	n/a	n/a
566.284	n/a	WORD	283142	wordpools/wasnorm_wordpool.txt	LTP079	ltpFR	5	3	-1	BAND	78	n/a	-1	1	1.0	1.0	upper	../fonts/Verdana.ttf
570.202	n/a	WORD	285101	wordpools/wasnorm_wordpool.txt	LTP079	ltpFR	5	3	-1	SAXOPHONE	1240	n/a	-1	1	1.0	1.0	upper	../fonts/Verdana.ttf
574.218	n/a	WORD	287109	wordpools/wasnorm_wordpool.txt	LTP079	ltpFR	5	3	-1	BOTTLE	153	n/a	-1	1	1.0	1.0	upper	../fonts/Verdana.ttf
578.426	n/a	WORD	289213	wordpools/wasnorm_wordpool.txt	LTP079	ltpFR	5	3	-1	TUNA	1518	n/a	-1	1	1.0	1.0	upper	../fonts/Verdana.ttf
582.25	n/a	WORD	291125	wordpools/wasnorm_wordpool.txt	LTP079	ltpFR	5	3	-1	FACTORY	548	n/a	-1	1	1.0	1.0	upper	../fonts/Verdana.ttf
586.284	n/a	WORD	293142	wordpools/wasnorm_wordpool.txt	LTP079	ltpFR	5	3	-1	TELEVISION	1447	n/a	-1	1	1.0	1.0	upper	../fonts/Verdana.ttf
590.3	n/a	WORD	295150	wordpools/wasnorm_wordpool.txt	LTP079	ltpFR	5	3	-1	YARD	1630	n/a	-1	1	1.0	1.0	upper	../fonts/Verdana.ttf
594.334	n/a	WORD	297167	wordpools/wasnorm_wordpool.txt	LTP079	ltpFR	5	3	-1	FENCE	560	n/a	-1	1	1.0	1.0	upper	../fonts/Verdana.ttf
598.3	n/a	WORD	299150	wordpools/wasnorm_wordpool.txt	LTP079	ltpFR	5	3	-1	CABLE	213	n/a	-1	1	1.0	1.0	upper	../fonts/Verdana.ttf
602.4	n/a	WORD	301200	wordpools/wasnorm_wordpool.txt	LTP079	ltpFR	5	3	-1	DOLL	481	n/a	-1	1	1.0	1.0	upper	../fonts/Verdana.ttf
606.432	n/a	WORD	303216	wordpools/wasnorm_wordpool.txt	LTP079	ltpFR	5	3	-1	EMPLOYER	532	n/a	-1	1	1.0	1.0	upper	../fonts/Verdana.ttf
610.374	n/a	WORD	305187	wordpools/wasnorm_wordpool.txt	LTP079	ltpFR	5	3	-1	ELF	525	n/a	-1	1	1.0	1.0	upper	../fonts/Verdana.ttf
614.466	n/a	WORD	307233	wordpools/wasnorm_wordpool.txt	LTP079	ltpFR	5	3	-1	CREVICE	405	n/a	-1	1	1.0	1.0	upper	../fonts/Verdana.ttf
618.566	n/a	WORD	309283	wordpools/wasnorm_wordpool.txt	LTP079	ltpFR	5	3	-1	CARNIVAL	245	n/a	-1	1	1.0	1.0	upper	../fonts/Verdana.ttf
622.64	n/a	WORD	311320	wordpools/wasnorm_wordpool.txt	LTP079	ltpFR	5	3	-1	BOOTH	151	n/a	-1	1	1.0	1.0	upper	../fonts/Verdana.ttf
626.79	n/a	WORD	313395	wordpools/wasnorm_wordpool.txt	LTP079	ltpFR	5	3	-1	SADDLE	1221	n/a	-1	1	1.0	1.0	upper	../fonts/Verdana.ttf
632.666	n/a	REC_START	316333	n/a	LTP079	ltpFR	5	3	n/a	n/a	n/a	n/a	n/a	n/a	n/a	n/a	n/a	n/a
633.874	n/a	REC_WORD	316937	wordpools/wasnorm_wordpool.txt	LTP079	ltpFR	5	3	-1	CREVICE	405	n/a	-1	n/a	n/a	n/a	n/a	n/a
635.434	n/a	REC_WORD	317717	wordpools/wasnorm_wordpool.txt	LTP079	ltpFR	5	3	-1	SADDLE	1221	n/a	-1	n/a	n/a	n/a	n/a	n/a
637.122	n/a	REC_WORD	318561	wordpools/wasnorm_wordpool.txt	LTP079	ltpFR	5	3	-1	BOOTH	151	n/a	-1	n/a	n/a	n/a	n/a	n/a
638.434	n/a	REC_WORD	319217	wordpools/wasnorm_wordpool.txt	LTP079	ltpFR	5	3	-1	CARNIVAL	245	n/a	-1	n/a	n/a	n/a	n/a	n/a
639.964	n/a	REC_WORD	319982	wordpools/wasnorm_wordpool.txt	LTP079	ltpFR	5	3	-1	BAND	78	n/a	-1	n/a	n/a	n/a	n/a	n/a
641.272	n/a	REC_WORD	320636	wordpools/wasnorm_wordpool.txt	LTP079	ltpFR	5	3	-1	SAXOPHONE	1240	n/a	-1	n/a	n/a	n/a	n/a	n/a
643.282	n/a	REC_WORD	321641	wordpools/wasnorm_wordpool.txt	LTP079	ltpFR	5	3	-1	BOTTLE	153	n/a	-1	n/a	n/a	n/a	n/a	n/a
651.544	n/a	REC_WORD	325772	wordpools/wasnorm_wordpool.txt	LTP079	ltpFR	5	3	-1	ELF	525	n/a	-1	n/a	n/a	n/a	n/a	n/a
652.666	n/a	REC_WORD	326333	wordpools/wasnorm_wordpool.txt	LTP079	ltpFR	5	3	-1	EMPLOYER	532	n/a	-1	n/a	n/a	n/a	n/a	n/a
654.344	n/a	REC_WORD	327172	wordpools/wasnorm_wordpool.txt	LTP079	ltpFR	5	3	-1	DOLL	481	n/a	-1	n/a	n/a	n/a	n/a	n/a
661.362	n/a	REC_WORD	330681	wordpools/wasnorm_wordpool.txt	LTP079	ltpFR	5	3	-1	YARD	1630	n/a	-1	n/a	n/a	n/a	n/a	n/a
662.934	n/a	REC_WORD	331467	wordpools/wasnorm_wordpool.txt	LTP079	ltpFR	5	3	-1	FENCE	560	n/a	-1	n/a	n/a	n/a	n/a	n/a
664.58	n/a	REC_WORD	332290	wordpools/wasnorm_wordpool.txt	LTP079	ltpFR	5	3	-1	CABLE	213	n/a	-1	n/a	n/a	n/a	n/a	n/a
666.152	n/a	REC_WORD	333076	wordpools/wasnorm_wordpool.txt	LTP079	ltpFR	5	3	-1	TELEVISION	1447	n/a	-1	n/a	n/a	n/a	n/a	n/a
667.684	n/a	REC_WORD	333842	wordpools/wasnorm_wordpool.txt	LTP079	ltpFR	5	3	-1	FACTORY	548	n/a	-1	n/a	n/a	n/a	n/a	n/a
669.33	n/a	REC_WORD	334665	wordpools/wasnorm_wordpool.txt	LTP079	ltpFR	5	3	-1	TUNA	1518	n/a	-1	n/a	n/a	n/a	n/a	n/a
710.756	n/a	WORD	355378	wordpools/wasnorm_wordpool.txt	LTP079	ltpFR	5	4	-1	COOKIE	374	n/a	-1	1	1.0	1.0	upper	../fonts/Verdana.ttf
714.864	n/a	WORD	357432	wordpools/wasnorm_wordpool.txt	LTP079	ltpFR	5	4	-1	PACKAGE	997	n/a	-1	1	1.0	1.0	upper	../fonts/Verdana.ttf
719.014	n/a	WORD	359507	wordpools/wasnorm_wordpool.txt	LTP079	ltpFR	5	4	-1	PATIO	1025	n/a	-1	1	1.0	1.0	upper	../fonts/Verdana.ttf
723.18	n/a	WORD	361590	wordpools/wasnorm_wordpool.txt	LTP079	ltpFR	5	4	-1	SODA	1341	n/a	-1	1	1.0	1.0	upper	../fonts/Verdana.ttf
727.206	n/a	WORD	363603	wordpools/wasnorm_wordpool.txt	LTP079	ltpFR	5	4	-1	AMBULANCE	19	n/a	-1	1	1.0	1.0	upper	../fonts/Verdana.ttf
731.296	n/a	WORD	365648	wordpools/wasnorm_wordpool.txt	LTP079	ltpFR	5	4	-1	CONSOLE	364	n/a	-1	1	1.0	1.0	upper	../fonts/Verdana.ttf
735.48	n/a	WORD	367740	wordpools/wasnorm_wordpool.txt	LTP079	ltpFR	5	4	-1	CHAIR	274	n/a	-1	1	1.0	1.0	upper	../fonts/Verdana.ttf
739.588	n/a	WORD	369794	wordpools/wasnorm_wordpool.txt	LTP079	ltpFR	5	4	-1	BEVERAGE	123	n/a	-1	1	1.0	1.0	upper	../fonts/Verdana.ttf
743.73	n/a	WORD	371865	wordpools/wasnorm_wordpool.txt	LTP079	ltpFR	5	4	-1	SCREW	1254	n/a	-1	1	1.0	1.0	upper	../fonts/Verdana.ttf
747.672	n/a	WORD	373836	wordpools/wasnorm_wordpool.txt	LTP079	ltpFR	5	4	-1	MARBLE	867	n/a	-1	1	1.0	1.0	upper	../fonts/Verdana.ttf
751.772	n/a	WORD	375886	wordpools/wasnorm_wordpool.txt	LTP079	ltpFR	5	4	-1	LIMOUSINE	824	n/a	-1	1	1.0	1.0	upper	../fonts/Verdana.ttf
755.922	n/a	WORD	377961	wordpools/wasnorm_wordpool.txt	LTP079	ltpFR	5	4	-1	GAVEL	627	n/a	-1	1	1.0	1.0	upper	../fonts/Verdana.ttf
760.088	n/a	WORD	380044	wordpools/wasnorm_wordpool.txt	LTP079	ltpFR	5	4	-1	NEWSPAPER	948	n/a	-1	1	1.0	1.0	upper	../fonts/Verdana.ttf
764.012	n/a	WORD	382006	wordpools/wasnorm_wordpool.txt	LTP079	ltpFR	5	4	-1	NUN	962	n/a	-1	1	1.0	1.0	upper	../fonts/Verdana.ttf
768.08	n/a	WORD	384040	wordpools/wasnorm_wordpool.txt	LTP079	ltpFR	5	4	-1	MONASTERY	907	n/a	-1	1	1.0	1.0	upper	../fonts/Verdana.ttf
772.188	n/a	WORD	386094	wordpools/wasnorm_wordpool.txt	LTP079	ltpFR	5	4	-1	OATS	968	n/a	-1	1	1.0	1.0	upper	../fonts/Verdana.ttf
778.196	n/a	REC_START	389098	n/a	LTP079	ltpFR	5	4	n/a	n/a	n/a	n/a	n/a	n/a	n/a	n/a	n/a	n/a
779.388	n/a	REC_WORD	389694	wordpools/wasnorm_wordpool.txt	LTP079	ltpFR	5	4	-1	OATS	968	n/a	-1	n/a	n/a	n/a	n/a	n/a
780.796	n/a	REC_WORD	390398	wordpools/wasnorm_wordpool.txt	LTP079	ltpFR	5	4	-1	NUN	962	n/a	-1	n/a	n/a	n/a	n/a	n/a
782.102	n/a	REC_WORD	391051	wordpools/wasnorm_wordpool.txt	LTP079	ltpFR	5	4	-1	MONASTERY	907	n/a	-1	n/a	n/a	n/a	n/a	n/a
783.838	n/a	REC_WORD	391919	wordpools/wasnorm_wordpool.txt	LTP079	ltpFR	5	4	-1	NEWSPAPER	948	n/a	-1	n/a	n/a	n/a	n/a	n/a
785.594	n/a	REC_WORD	392797	wordpools/wasnorm_wordpool.txt	LTP079	ltpFR	5	4	-1	LIMOUSINE	824	n/a	-1	n/a	n/a	n/a	n/a	n/a
787.18	n/a	REC_WORD	393590	wordpools/wasnorm_wordpool.txt	LTP079	ltpFR	5	4	-1	MARBLE	867	n/a	-1	n/a	n/a	n/a	n/a	n/a
788.768	n/a	REC_WORD	394384	wordpools/wasnorm_wordpool.txt	LTP079	ltpFR	5	4	-1	GAVEL	627	n/a	-1	n/a	n/a	n/a	n/a	n/a
790.344	n/a	REC_WORD	395172	wordpools/wasnorm_wordpool.txt	LTP079	ltpFR	5	4	-1	CHAIR	274	n/a	-1	n/a	n/a	n/a	n/a	n/a
791.772	n/a	REC_WORD	395886	wordpools/wasnorm_wordpool.txt	LTP079	ltpFR	5	4	-1	SCREW	1254	n/a	-1	n/a	n/a	n/a	n/a	n/a
793.532	n/a	REC_WORD	396766	wordpools/wasnorm_wordpool.txt	LTP079	ltpFR	5	4	-1	BEVERAGE	123	n/a	-1	n/a	n/a	n/a	n/a	n/a
794.814	n/a	REC_WORD	397407	wordpools/wasnorm_wordpool.txt	LTP079	ltpFR	5	4	-1	SODA	1341	n/a	-1	n/a	n/a	n/a	n/a	n/a
797.278	n/a	REC_WORD	398639	wordpools/wasnorm_wordpool.txt	LTP079	ltpFR	5	4	-1	CONSOLE	364	n/a	-1	n/a	n/a	n/a	n/a	n/a
799.124	n/a	REC_WORD	399562	wordpools/wasnorm_wordpool.txt	LTP079	ltpFR	5	4	-1	AMBULANCE	19	n/a	-1	n/a	n/a	n/a	n/a	n/a
802.044	n/a	REC_WORD	401022	wordpools/wasnorm_wordpool.txt	LTP079	ltpFR	5	4	-1	PATIO	1025	n/a	-1	n/a	n/a	n/a	n/a	n/a
803.63	n/a	REC_WORD	401815	wordpools/wasnorm_wordpool.txt	LTP079	ltpFR	5	4	-1	PACKAGE	997	n/a	-1	n/a	n/a	n/a	n/a	n/a
805.172	n/a	REC_WORD	402586	wordpools/wasnorm_wordpool.txt	LTP079	ltpFR	5	4	-1	COOKIE	374	n/a	-1	n/a	n/a	n/a	n/a	n/a
856.694	n/a	WORD	428347	wordpools/wasnorm_wordpool.txt	LTP079	ltpFR	5	5	-1	PEN	1041	n/a	-1	1	1.0	1.0	upper	../fonts/Verdana.ttf
860.552	n/a	WORD	430276	wordpools/wasnorm_wordpool.txt	LTP079	ltpFR	5	5	-1	TOOTHBRUSH	1482	n/a	-1	1	1.0	1.0	upper	../fonts/Verdana.ttf
864.51	n/a	WORD	432255	wordpools/wasnorm_wordpool.txt	LTP079	ltpFR	5	5	-1	CINNAMON	310	n/a	-1	1	1.0	1.0	upper	../fonts/Verdana.ttf
868.344	n/a	WORD	434172	wordpools/wasnorm_wordpool.txt	LTP079	ltpFR	5	5	-1	WINE	1613	n/a	-1	1	1.0	1.0	upper	../fonts/Verdana.ttf
872.526	n/a	WORD	436263	wordpools/wasnorm_wordpool.txt	LTP079	ltpFR	5	5	-1	NET	946	n/a	-1	1	1.0	1.0	upper	../fonts/Verdana.ttf
876.494	n/a	WORD	438247	wordpools/wasnorm_wordpool.txt	LTP079	ltpFR	5	5	-1	VIDEO	1564	n/a	-1	1	1.0	1.0	upper	../fonts/Verdana.ttf
880.592	n/a	WORD	440296	wordpools/wasnorm_wordpool.txt	LTP079	ltpFR	5	5	-1	PAD	998	n/a	-1	1	1.0	1.0	upper	../fonts/Verdana.ttf
884.734	n/a	WORD	442367	wordpools/wasnorm_wordpool.txt	LTP079	ltpFR	5	5	-1	BARRACUDA	90	n/a	-1	1	1.0	1.0	upper	../fonts/Verdana.ttf
888.618	n/a	WORD	444309	wordpools/wasnorm_wordpool.txt	LTP079	ltpFR	5	5	-1	TUNNEL	1519	n/a	-1	1	1.0	1.0	upper	../fonts/Verdana.ttf
892.484	n/a	WORD	446242	wordpools/wasnorm_wordpool.txt	LTP079	ltpFR	5	5	-1	DIGGER	464	n/a	-1	1	1.0	1.0	upper	../fonts/Verdana.ttf
896.55	n/a	WORD	448275	wordpools/wasnorm_wordpool.txt	LTP079	ltpFR	5	5	-1	NEEDLE	941	n/a	-1	1	1.0	1.0	upper	../fonts/Verdana.ttf
900.534	n/a	WORD	450267	wordpools/wasnorm_wordpool.txt	LTP079	ltpFR	5	5	-1	THREAD	1460	n/a	-1	1	1.0	1.0	upper	../fonts/Verdana.ttf
904.358	n/a	WORD	452179	wordpools/wasnorm_wordpool.txt	LTP079	ltpFR	5	5	-1	SCREWDRIVER	1255	n/a	-1	1	1.0	1.0	upper	../fonts/Verdana.ttf
908.434	n/a	WORD	454217	wordpools/wasnorm_wordpool.txt	LTP079	ltpFR	5	5	-1	COMPANION	357	n/a	-1	1	1.0	1.0	upper	../fonts/Verdana.ttf
912.626	n/a	WORD	456313	wordpools/wasnorm_wordpool.txt	LTP079	ltpFR	5	5	-1	SLIDE	1326	n/a	-1	1	1.0	1.0	upper	../fonts/Verdana.ttf
916.792	n/a	WORD	458396	wordpools/wasnorm_wordpool.txt	LTP079	ltpFR	5	5	-1	FAUCET	555	n/a	-1	1	1.0	1.0	upper	../fonts/Verdana.ttf
922.442	n/a	REC_START	461221	n/a	LTP079	ltpFR	5	5	n/a	n/a	n/a	n/a	n/a	n/a	n/a	n/a	n/a	n/a
923.55	n/a	REC_WORD	461775	wordpools/wasnorm_wordpool.txt	LTP079	ltpFR	5	5	-1	SCREWDRIVER	1255	n/a	-1	n/a	n/a	n/a	n/a	n/a
925.216	n/a	REC_WORD	462608	wordpools/wasnorm_wordpool.txt	LTP079	ltpFR	5	5	-1	COMPANION	357	n/a	-1	n/a	n/a	n/a	n/a	n/a
926.892	n/a	REC_WORD	463446	wordpools/wasnorm_wordpool.txt	LTP079	ltpFR	5	5	-1	FAUCET	555	n/a	-1	n/a	n/a	n/a	n/a	n/a
928.256	n/a	REC_WORD	464128	wordpools/wasnorm_wordpool.txt	LTP079	ltpFR	5	5	-1	SLIDE	1326	n/a	-1	n/a	n/a	n/a	n/a	n/a
929.986	n/a	REC_WORD	464993	wordpools/wasnorm_wordpool.txt	LTP079	ltpFR	5	5	-1	DIGGER	464	n/a	-1	n/a	n/a	n/a	n/a	n/a
931.348	n/a	REC_WORD	465674	wordpools/wasnorm_wordpool.txt	LTP079	ltpFR	5	5	-1	NEEDLE	941	n/a	-1	n/a	n/a	n/a	n/a	n/a
932.684	n/a	REC_WORD	466342	wordpools/wasnorm_wordpool.txt	LTP079	ltpFR	5	5	-1	THREAD	1460	n/a	-1	n/a	n/a	n/a	n/a	n/a
937.144	n/a	REC_WORD	468572	wordpools/wasnorm_wordpool.txt	LTP079	ltpFR	5	5	-1	PEN	1041	n/a	-1	n/a	n/a	n/a	n/a	n/a
938.406	n/a	REC_WORD	469203	wordpools/wasnorm_wordpool.txt	LTP079	ltpFR	5	5	-1	CINNAMON	310	n/a	-1	n/a	n/a	n/a	n/a	n/a
939.928	n/a	REC_WORD	469964	wordpools/wasnorm_wordpool.txt	LTP079	ltpFR	5	5	-1	TOOTHBRUSH	1482	n/a	-1	n/a	n/a	n/a	n/a	n/a
941.884	n/a	REC_WORD	470942	wordpools/wasnorm_wordpool.txt	LTP079	ltpFR	5	5	-1	TUNNEL	1519	n/a	-1	n/a	n/a	n/a	n/a	n/a
943.142	n/a	REC_WORD	471571	wordpools/wasnorm_wordpool.txt	LTP079	ltpFR	5	5	-1	BARRACUDA	90	n/a	-1	n/a	n/a	n/a	n/a	n/a
944.688	n/a	REC_WORD	472344	wordpools/wasnorm_wordpool.txt	LTP079	ltpFR	5	5	-1	PAD	998	n/a	-1	n/a	n/a	n/a	n/a	n/a
946.578	n/a	REC_WORD	473289	wordpools/wasnorm_wordpool.txt	LTP079	ltpFR	5	5	-1	WINE	1613	n/a	-1	n/a	n/a	n/a	n/a	n/a
947.886	n/a	REC_WORD	473943	wordpools/wasnorm_wordpool.txt	LTP079	ltpFR	5	5	-1	NET	946	n/a	-1	n/a	n/a	n/a	n/a	n/a
949.244	n/a	REC_WORD	474622	wordpools/wasnorm_wordpool.txt	LTP079	ltpFR	5	5	-1	VIDEO	1564	n/a	-1	n/a	n/a	n/a	n/a	n/a
1000.574	n/a	WORD	500287	wordpools/wasnorm_wordpool.txt	LTP079	ltpFR	5	6	1	CHEMIST	292	n/a	1	0	0.5869140625	0.422607421875	upper	../fonts/zerothre.ttf
1004.632	n/a	WORD	502316	wordpools/wasnorm_wordpool.txt	LTP079	ltpFR	5	6	1	KNOB	787	n/a	0	0	0.5869140625	0.422607421875	upper	../fonts/zerothre.ttf
1008.832	n/a	WORD	504416	wordpools/wasnorm_wordpool.txt	LTP079	ltpFR	5	6	0	LOCK	838	n/a	0	1	0.412841796875	0.57763671875	lower	../fonts/amplitud.ttf
1012.964	n/a	WORD	506482	wordpools/wasnorm_wordpool.txt	LTP079	ltpFR	5	6	0	SHIRT	1287	n/a	0	1	0.412841796875	0.57763671875	lower	../fonts/amplitud.ttf
1016.898	n/a	WORD	508449	wordpools/wasnorm_wordpool.txt	LTP079	ltpFR	5	6	0	SWEATER	1419	n/a	0	1	0.412841796875	0.57763671875	lower	../fonts/amplitud.ttf
1020.848	n/a	WORD	510424	wordpools/wasnorm_wordpool.txt	LTP079	ltpFR	5	6	0	ALLIGATOR	16	n/a	1	1	0.412841796875	0.57763671875	lower	../fonts/amplitud.ttf
1025.03	n/a	WORD	512515	wordpools/wasnorm_wordpool.txt	LTP079	ltpFR	5	6	1	BRACES	164	n/a	0	0	0.5869140625	0.422607421875	upper	../fonts/zerothre.ttf
1028.856	n/a	WORD	514428	wordpools/wasnorm_wordpool.txt	LTP079	ltpFR	5	6	1	PARENT	1013	n/a	1	0	0.5869140625	0.422607421875	upper	../fonts/zerothre.ttf
1033.04	n/a	WORD	516520	wordpools/wasnorm_wordpool.txt	LTP079	ltpFR	5	6	1	DUSTPAN	509	n/a	0	0	0.5869140625	0.422607421875	upper	../fonts/zerothre.ttf
1036.864	n/a	WORD	518432	wordpools/wasnorm_wordpool.txt	LTP079	ltpFR	5	6	1	ATTORNEY	58	n/a	1	0	0.5869140625	0.422607421875	upper	../fonts/zerothre.ttf
1040.898	n/a	WORD	520449	wordpools/wasnorm_wordpool.txt	LTP079	ltpFR	5	6	0	BIBLE	124	n/a	0	1	0.412841796875	0.57763671875	lower	../fonts/amplitud.ttf
1044.964	n/a	WORD	522482	wordpools/wasnorm_wordpool.txt	LTP079	ltpFR	5	6	0	OINTMENT	974	n/a	0	1	0.412841796875	0.57763671875	lower	../fonts/amplitud.ttf
1048.84	n/a	WORD	524420	wordpools/wasnorm_wordpool.txt	LTP079	ltpFR	5	6	0	POTTERY	1116	n/a	0	1	0.412841796875	0.57763671875	lower	../fonts/amplitud.ttf
1052.838	n/a	WORD	526419	wordpools/wasnorm_wordpool.txt	LTP079	ltpFR	5	6	0	DAUGHTER	442	n/a	0	1	0.412841796875	0.57763671875	lower	../fonts/amplitud.ttf
1056.856	n/a	WORD	528428	wordpools/wasnorm_wordpool.txt	LTP079	ltpFR	5	6	1	JURY	766	n/a	1	0	0.5869140625	0.422607421875	upper	../fonts/zerothre.ttf
1060.904	n/a	WORD	530452	wordpools/wasnorm_wordpool.txt	LTP079	ltpFR	5	6	1	ALMANAC	17	n/a	0	0	0.5869140625	0.422607421875	upper	../fonts/zerothre.ttf
1066.722	n/a	REC_START	533361	n/a	LTP079	ltpFR	5	6	n/a	n/a	n/a	n/a	n/a	n/a	n/a	n/a	n/a	n/a
1068.074	n/a	REC_WORD	534037	wordpools/wasnorm_wordpool.txt	LTP079	ltpFR	5	6	1	ALMANAC	17	n/a	0	n/a	n/a	n/a	n/a	n/a
1069.506	n/a	REC_WORD	534753	wordpools/wasnorm_wordpool.txt	LTP079	ltpFR	5	6	1	JURY	766	n/a	1	n/a	n/a	n/a	n/a	n/a
1070.982	n/a	REC_WORD	535491	wordpools/wasnorm_wordpool.txt	LTP079	ltpFR	5	6	0	DAUGHTER	442	n/a	0	n/a	n/a	n/a	n/a	n/a
1073.282	n/a	REC_WORD	536641	wordpools/wasnorm_wordpool.txt	LTP079	ltpFR	5	6	1	DUSTPAN	509	n/a	0	n/a	n/a	n/a	n/a	n/a
1074.814	n/a	REC_WORD	537407	wordpools/wasnorm_wordpool.txt	LTP079	ltpFR	5	6	1	PARENT	1013	n/a	1	n/a	n/a	n/a	n/a	n/a
1076.226	n/a	REC_WORD	538113	wordpools/wasnorm_wordpool.txt	LTP079	ltpFR	5	6	1	BRACES	164	n/a	0	n/a	n/a	n/a	n/a	n/a
1077.722	n/a	REC_WORD	538861	wordpools/wasnorm_wordpool.txt	LTP079	ltpFR	5	6	0	POTTERY	1116	n/a	0	n/a	n/a	n/a	n/a	n/a
1087.834	n/a	REC_WORD	543917	wordpools/wasnorm_wordpool.txt	LTP079	ltpFR	5	6	1	ATTORNEY	58	n/a	1	n/a	n/a	n/a	n/a	n/a
1089.416	n/a	REC_WORD	544708	wordpools/wasnorm_wordpool.txt	LTP079	ltpFR	5	6	0	BIBLE	124	n/a	0	n/a	n/a	n/a	n/a	n/a
1090.848	n/a	REC_WORD	545424	wordpools/wasnorm_wordpool.txt	LTP079	ltpFR	5	6	0	OINTMENT	974	n/a	0	n/a	n/a	n/a	n/a	n/a
1092.206	n/a	REC_WORD	546103	wordpools/wasnorm_wordpool.txt	LTP079	ltpFR	5	6	1	CHEMIST	292	n/a	1	n/a	n/a	n/a	n/a	n/a
1093.558	n/a	REC_WORD	546779	wordpools/wasnorm_wordpool.txt	LTP079	ltpFR	5	6	1	KNOB	787	n/a	0	n/a	n/a	n/a	n/a	n/a
1094.94	n/a	REC_WORD	547470	wordpools/wasnorm_wordpool.txt	LTP079	ltpFR	5	6	0	LOCK	838	n/a	0	n/a	n/a	n/a	n/a	n/a
1109.298	n/a	REC_WORD	554649	wordpools/wasnorm_wordpool.txt	LTP079	ltpFR	5	6	0	SHIRT	1287	n/a	0	n/a	n/a	n/a	n/a	n/a
1110.774	n/a	REC_WORD	555387	wordpools/wasnorm_wordpool.txt	LTP079	ltpFR	5	6	0	SWEATER	1419	n/a	0	n/a	n/a	n/a	n/a	n/a
1112.47	n/a	REC_WORD	556235	wordpools/wasnorm_wordpool.txt	LTP079	ltpFR	5	6	0	ALLIGATOR	16	n/a	1	n/a	n/a	n/a	n/a	n/a
1145.178	n/a	WORD	572589	wordpools/wasnorm_wordpool.txt	LTP079	ltpFR	5	7	0	WOLF	1619	n/a	1	1	0.412841796875	0.57763671875	lower	../fonts/amplitud.ttf
1149.188	n/a	WORD	574594	wordpools/wasnorm_wordpool.txt	LTP079	ltpFR	5	7	0	GROUND	666	n/a	1	1	0.412841796875	0.57763671875	lower	../fonts/amplitud.ttf
1153.386	n/a	WORD	576693	wordpools/wasnorm_wordpool.txt	LTP079	ltpFR	5	7	0	RASPBERRY	1168	n/a	0	1	0.412841796875	0.57763671875	lower	../fonts/amplitud.ttf
1157.22	n/a	WORD	578610	wordpools/wasnorm_wordpool.txt	LTP079	ltpFR	5	7	0	APPLE	33	n/a	0	1	0.412841796875	0.57763671875	lower	../fonts/amplitud.ttf
1161.328	n/a	WORD	580664	wordpools/wasnorm_wordpool.txt	LTP079	ltpFR	5	7	0	GRIZZLY	662	n/a	1	1	0.412841796875	0.57763671875	lower	../fonts/amplitud.ttf
1165.204	n/a	WORD	582602	wordpools/wasnorm_wordpool.txt	LTP079	ltpFR	5	7	0	MINER	896	n/a	1	1	0.412841796875	0.57763671875	lower	../fonts/amplitud.ttf
1169.188	n/a	WORD	584594	wordpools/wasnorm_wordpool.txt	LTP079	ltpFR	5	7	0	RAILROAD	1162	n/a	1	1	0.412841796875	0.57763671875	lower	../fonts/amplitud.ttf
1173.086	n/a	WORD	586543	wordpools/wasnorm_wordpool.txt	LTP079	ltpFR	5	7	0	SKULL	1320	n/a	0	1	0.412841796875	0.57763671875	lower	../fonts/amplitud.ttf
1176.928	n/a	WORD	588464	wordpools/wasnorm_wordpool.txt	LTP079	ltpFR	5	7	0	MARROW	872	n/a	0	1	0.412841796875	0.57763671875	lower	../fonts/amplitud.ttf
1180.818	n/a	WORD	590409	wordpools/wasnorm_wordpool.txt	LTP079	ltpFR	5	7	0	RUG	1215	n/a	1	1	0.412841796875	0.57763671875	lower	../fonts/amplitud.ttf
1184.636	n/a	WORD	592318	wordpools/wasnorm_wordpool.txt	LTP079	ltpFR	5	7	0	SUBWAY	1400	n/a	1	1	0.412841796875	0.57763671875	lower	../fonts/amplitud.ttf
1188.644	n/a	WORD	594322	wordpools/wasnorm_wordpool.txt	LTP079	ltpFR	5	7	0	SWATTER	1418	n/a	0	1	0.412841796875	0.57763671875	lower	../fonts/amplitud.ttf
1192.478	n/a	WORD	596239	wordpools/wasnorm_wordpool.txt	LTP079	ltpFR	5	7	0	COB	334	n/a	0	1	0.412841796875	0.57763671875	lower	../fonts/amplitud.ttf
1196.46	n/a	WORD	598230	wordpools/wasnorm_wordpool.txt	LTP079	ltpFR	5	7	0	SKELETON	1314	n/a	1	1	0.412841796875	0.57763671875	lower	../fonts/amplitud.ttf
1200.51	n/a	WORD	600255	wordpools/wasnorm_wordpool.txt	LTP079	ltpFR	5	7	0	PAW	1029	n/a	0	1	0.412841796875	0.57763671875	lower	../fonts/amplitud.ttf
1204.56	n/a	WORD	602280	wordpools/wasnorm_wordpool.txt	LTP079	ltpFR	5	7	0	WIFE	1609	n/a	0	1	0.412841796875	0.57763671875	lower	../fonts/amplitud.ttf
1210.578	n/a	REC_START	605289	n/a	LTP079	ltpFR	5	7	n/a	n/a	n/a	n/a	n/a	n/a	n/a	n/a	n/a	n/a
1211.854	n/a	REC_WORD	605927	wordpools/wasnorm_wordpool.txt	LTP079	ltpFR	5	7	0	WIFE	1609	n/a	0	n/a	n/a	n/a	n/a	n/a
1213.266	n/a	REC_WORD	606633	wordpools/wasnorm_wordpool.txt	LTP079	ltpFR	5	7	0	PAW	1029	n/a	0	n/a	n/a	n/a	n/a	n/a
1214.404	n/a	REC_WORD	607202	wordpools/wasnorm_wordpool.txt	LTP079	ltpFR	5	7	0	SKELETON	1314	n/a	1	n/a	n/a	n/a	n/a	n/a
1215.994	n/a	REC_WORD	607997	wordpools/wasnorm_wordpool.txt	LTP079	ltpFR	5	7	0	SKULL	1320	n/a	0	n/a	n/a	n/a	n/a	n/a
1217.506	n/a	REC_WORD	608753	wordpools/wasnorm_wordpool.txt	LTP079	ltpFR	5	7	0	MARROW	872	n/a	0	n/a	n/a	n/a	n/a	n/a
1218.888	n/a	REC_WORD	609444	wordpools/wasnorm_wordpool.txt	LTP079	ltpFR	5	7	0	RUG	1215	n/a	1	n/a	n/a	n/a	n/a	n/a
1224.266	n/a	REC_WORD	612133	wordpools/wasnorm_wordpool.txt	LTP079	ltpFR	5	7	0	SUBWAY	1400	n/a	1	n/a	n/a	n/a	n/a	n/a
1225.858	n/a	REC_WORD	612929	wordpools/wasnorm_wordpool.txt	LTP079	ltpFR	5	7	0	SWATTER	1418	n/a	0	n/a	n/a	n/a	n/a	n/a
1227.344	n/a	REC_WORD	613672	wordpools/wasnorm_wordpool.txt	LTP079	ltpFR	5	7	0	COB	334	n/a	0	n/a	n/a	n/a	n/a	n/a
1230.098	n/a	REC_WORD	615049	wordpools/wasnorm_wordpool.txt	LTP079	ltpFR	5	7	0	GRIZZLY	662	n/a	1	n/a	n/a	n/a	n/a	n/a
1231.486	n/a	REC_WORD	615743	wordpools/wasnorm_wordpool.txt	LTP079	ltpFR	5	7	0	MINER	896	n/a	1	n/a	n/a	n/a	n/a	n/a
1232.762	n/a	REC_WORD	616381	wordpools/wasnorm_wordpool.txt	LTP079	ltpFR	5	7	0	RAILROAD	1162	n/a	1	n/a	n/a	n/a	n/a	n/a
1234.478	n/a	REC_WORD	617239	wordpools/wasnorm_wordpool.txt	LTP079	ltpFR	5	7	0	WOLF	1619	n/a	1	n/a	n/a	n/a	n/a	n/a
1235.786	n/a	REC_WORD	617893	wordpools/wasnorm_wordpool.txt	LTP079	ltpFR	5	7	0	GROUND	666	n/a	1	n/a	n/a	n/a	n/a	n/a
1236.984	n/a	REC_WORD	618492	wordpools/wasnorm_wordpool.txt	LTP079	ltpFR	5	7	0	RASPBERRY	1168	n/a	0	n/a	n/a	n/a	n/a	n/a
1238.62	n/a	REC_WORD	619310	wordpools/wasnorm_wordpool.txt	LTP079	ltpFR	5	7	0	APPLE	33	n/a	0	n/a	n/a	n/a	n/a	n/a
1288.816	n/a	WORD	644408	wordpools/wasnorm_wordpool.txt	LTP079	ltpFR	5	8	-1	HORIZON	717	n/a	-1	1	1.0	1.0	upper	../fonts/Verdana.ttf
1292.942	n/a	WORD	646471	wordpools/wasnorm_wordpool.txt	LTP079	ltpFR	5	8	-1	PAPER	1011	n/a	-1	1	1.0	1.0	upper	../fonts/Verdana.ttf
1297.016	n/a	WORD	648508	wordpools/wasnorm_wordpool.txt	LTP079	ltpFR	5	8	-1	NAPKIN	937	n/a	-1	1	1.0	1.0	upper	../fonts/Verdana.ttf
1301.158	n/a	WORD	650579	wordpools/wasnorm_wordpool.txt	LTP079	ltpFR	5	8	-1	SNORKEL	1336	n/a	-1	1	1.0	1.0	upper	../fonts/Verdana.ttf
1304.974	n/a	WORD	652487	wordpools/wasnorm_wordpool.txt	LTP079	ltpFR	5	8	-1	ATMOSPHERE	54	n/a	-1	1	1.0	1.0	upper	../fonts/Verdana.ttf
1309.142	n/a	WORD	654571	wordpools/wasnorm_wordpool.txt	LTP079	ltpFR	5	8	-1	PISTOL	1075	n/a	-1	1	1.0	1.0	upper	../fonts/Verdana.ttf
1313.092	n/a	WORD	656546	wordpools/wasnorm_wordpool.txt	LTP079	ltpFR	5	8	-1	FORT	595	n/a	-1	1	1.0	1.0	upper	../fonts/Verdana.ttf
1317.184	n/a	WORD	658592	wordpools/wasnorm_wordpool.txt	LTP079	ltpFR	5	8	-1	WIDOW	1608	n/a	-1	1	1.0	1.0	upper	../fonts/Verdana.ttf
1321.15	n/a	WORD	660575	wordpools/wasnorm_wordpool.txt	LTP079	ltpFR	5	8	-1	MOUNTAIN	924	n/a	-1	1	1.0	1.0	upper	../fonts/Verdana.ttf
1325.24	n/a	WORD	662620	wordpools/wasnorm_wordpool.txt	LTP079	ltpFR	5	8	-1	KEYBOARD	774	n/a	-1	1	1.0	1.0	upper	../fonts/Verdana.ttf
1329.056	n/a	WORD	664528	wordpools/wasnorm_wordpool.txt	LTP079	ltpFR	5	8	-1	PLASTER	1085	n/a	-1	1	1.0	1.0	upper	../fonts/Verdana.ttf
1332.882	n/a	WORD	666441	wordpools/wasnorm_wordpool.txt	LTP079	ltpFR	5	8	-1	COFFIN	342	n/a	-1	1	1.0	1.0	upper	../fonts/Verdana.ttf
1336.948	n/a	WORD	668474	wordpools/wasnorm_wordpool.txt	LTP079	ltpFR	5	8	-1	FINGERNAIL	568	n/a	-1	1	1.0	1.0	upper	../fonts/Verdana.ttf
1341.032	n/a	WORD	670516	wordpools/wasnorm_wordpool.txt	LTP079	ltpFR	5	8	-1	SURF	1412	n/a	-1	1	1.0	1.0	upper	../fonts/Verdana.ttf
1344.864	n/a	WORD	672432	wordpools/wasnorm_wordpool.txt	LTP079	ltpFR	5	8	-1	FUGITIVE	612	n/a	-1	1	1.0	1.0	upper	../fonts/Verdana.ttf
1348.922	n/a	WORD	674461	wordpools/wasnorm_wordpool.txt	LTP079	ltpFR	5	8	-1	HOSTAGE	722	n/a	-1	1	1.0	1.0	upper	../fonts/Verdana.ttf
1354.64	n/a	REC_START	677320	n/a	LTP079	ltpFR	5	8	n/a	n/a	n/a	n/a	n/a	n/a	n/a	n/a	n/a	n/a
1355.518	n/a	REC_WORD	677759	wordpools/wasnorm_wordpool.txt	LTP079	ltpFR	5	8	-1	HOSTAGE	722	n/a	-1	n/a	n/a	n/a	n/a	n/a
1357.004	n/a	REC_WORD	678502	wordpools/wasnorm_wordpool.txt	LTP079	ltpFR	5	8	-1	FUGITIVE	612	n/a	-1	n/a	n/a	n/a	n/a	n/a
1358.402	n/a	REC_WORD	679201	wordpools/wasnorm_wordpool.txt	LTP079	ltpFR	5	8	-1	FINGERNAIL	568	n/a	-1	n/a	n/a	n/a	n/a	n/a
1359.834	n/a	REC_WORD	679917	wordpools/wasnorm_wordpool.txt	LTP079	ltpFR	5	8	-1	SURF	1412	n/a	-1	n/a	n/a	n/a	n/a	n/a
1361.306	n/a	REC_WORD	680653	wordpools/wasnorm_wordpool.txt	LTP079	ltpFR	5	8	-1	ATMOSPHERE	54	n/a	-1	n/a	n/a	n/a	n/a	n/a
1362.812	n/a	REC_WORD	681406	wordpools/wasnorm_wordpool.txt	LTP079	ltpFR	5	8	-1	SNORKEL	1336	n/a	-1	n/a	n/a	n/a	n/a	n/a
1364.394	n/a	REC_WORD	682197	wordpools/wasnorm_wordpool.txt	LTP079	ltpFR	5	8	-1	PISTOL	1075	n/a	-1	n/a	n/a	n/a	n/a	n/a
1365.636	n/a	REC_WORD	682818	wordpools/wasnorm_wordpool.txt	LTP079	ltpFR	5	8	-1	FORT	595	n/a	-1	n/a	n/a	n/a	n/a	n/a
1367.166	n/a	REC_WORD	683583	wordpools/wasnorm_wordpool.txt	LTP079	ltpFR	5	8	-1	WIDOW	1608	n/a	-1	n/a	n/a	n/a	n/a	n/a
1368.424	n/a	REC_WORD	684212	wordpools/wasnorm_wordpool.txt	LTP079	ltpFR	5	8	-1	MOUNTAIN	924	n/a	-1	n/a	n/a	n/a	n/a	n/a
1371.952	n/a	REC_WORD	685976	wordpools/wasnorm_wordpool.txt	LTP079	ltpFR	5	8	-1	PAPER	1011	n/a	-1	n/a	n/a	n/a	n/a	n/a
1373.194	n/a	REC_WORD	686597	wordpools/wasnorm_wordpool.txt	LTP079	ltpFR	5	8	-1	NAPKIN	937	n/a	-1	n/a	n/a	n/a	n/a	n/a
1374.522	n/a	REC_WORD	687261	wordpools/wasnorm_wordpool.txt	LTP079	ltpFR	5	8	-1	HORIZON	717	n/a	-1	n/a	n/a	n/a	n/a	n/a
1433.012	n/a	WORD	716506	wordpools/wasnorm_wordpool.txt	LTP079	ltpFR	5	9	0	COLT	349	n/a	1	1	0.412841796875	0.57763671875	lower	../fonts/amplitud.ttf
1436.996	n/a	WORD	718498	wordpools/wasnorm_wordpool.txt	LTP079	ltpFR	5	9	0	STALLION	1369	n/a	1	1	0.412841796875	0.57763671875	lower	../fonts/amplitud.ttf
1441.028	n/a	WORD	720514	wordpools/wasnorm_wordpool.txt	LTP079	ltpFR	5	9	0	HEEL	700	n/a	0	1	0.412841796875	0.57763671875	lower	../fonts/amplitud.ttf
1445.222	n/a	WORD	722611	wordpools/wasnorm_wordpool.txt	LTP079	ltpFR	5	9	1	STEREO	1378	n/a	0	0	0.5869140625	0.422607421875	upper	../fonts/zerothre.ttf
1449.344	n/a	WORD	724672	wordpools/wasnorm_wordpool.txt	LTP079	ltpFR	5	9	1	GLOVE	642	n/a	0	0	0.5869140625	0.422607421875	upper	../fonts/zerothre.ttf
1453.504	n/a	WORD	726752	wordpools/wasnorm_wordpool.txt	LTP079	ltpFR	5	9	1	TACK	1428	n/a	0	0	0.5869140625	0.422607421875	upper	../fonts/zerothre.ttf
1457.486	n/a	WORD	728743	wordpools/wasnorm_wordpool.txt	LTP079	ltpFR	5	9	1	GLUE	643	n/a	0	0	0.5869140625	0.422607421875	upper	../fonts/zerothre.ttf
1461.478	n/a	WORD	730739	wordpools/wasnorm_wordpool.txt	LTP079	ltpFR	5	9	0	PARTNER	1017	n/a	0	1	0.412841796875	0.57763671875	lower	../fonts/amplitud.ttf
1465.586	n/a	WORD	732793	wordpools/wasnorm_wordpool.txt	LTP079	ltpFR	5	9	0	CRUTCH	417	n/a	0	1	0.412841796875	0.57763671875	lower	../fonts/amplitud.ttf
1469.636	n/a	WORD	734818	wordpools/wasnorm_wordpool.txt	LTP079	ltpFR	5	9	0	DICE	461	n/a	0	1	0.412841796875	0.57763671875	lower	../fonts/amplitud.ttf
1473.578	n/a	WORD	736789	wordpools/wasnorm_wordpool.txt	LTP079	ltpFR	5	9	0	CHARCOAL	281	n/a	0	1	0.412841796875	0.57763671875	lower	../fonts/amplitud.ttf
1477.42	n/a	WORD	738710	wordpools/wasnorm_wordpool.txt	LTP079	ltpFR	5	9	0	BOY	161	n/a	0	1	0.412841796875	0.57763671875	lower	../fonts/amplitud.ttf
1481.294	n/a	WORD	740647	wordpools/wasnorm_wordpool.txt	LTP079	ltpFR	5	9	1	TEENAGER	1444	n/a	1	0	0.5869140625	0.422607421875	upper	../fonts/zerothre.ttf
1485.262	n/a	WORD	742631	wordpools/wasnorm_wordpool.txt	LTP079	ltpFR	5	9	1	SHOULDER	1294	n/a	0	0	0.5869140625	0.422607421875	upper	../fonts/zerothre.ttf
1489.236	n/a	WORD	744618	wordpools/wasnorm_wordpool.txt	LTP079	ltpFR	5	9	1	FLASHLIGHT	575	n/a	0	0	0.5869140625	0.422607421875	upper	../fonts/zerothre.ttf
1493.412	n/a	WORD	746706	wordpools/wasnorm_wordpool.txt	LTP079	ltpFR	5	9	1	FRIEND	606	n/a	1	0	0.5869140625	0.422607421875	upper	../fonts/zerothre.ttf
1499.23	n/a	REC_START	749615	n/a	LTP079	ltpFR	5	9	n/a	n/a	n/a	n/a	n/a	n/a	n/a	n/a	n/a	n/a
1499.988	n/a	REC_WORD	749994	wordpools/wasnorm_wordpool.txt	LTP079	ltpFR	5	9	1	FRIEND	606	n/a	1	n/a	n/a	n/a	n/a	n/a
1501.26	n/a	REC_WORD	750630	wordpools/wasnorm_wordpool.txt	LTP079	ltpFR	5	9	1	TEENAGER	1444	n/a	1	n/a	n/a	n/a	n/a	n/a
1502.512	n/a	REC_WORD	751256	wordpools/wasnorm_wordpool.txt	LTP079	ltpFR	5	9	1	FLASHLIGHT	575	n/a	0	n/a	n/a	n/a	n/a	n/a
1503.948	n/a	REC_WORD	751974	wordpools/wasnorm_wordpool.txt	LTP079	ltpFR	5	9	1	SHOULDER	1294	n/a	0	n/a	n/a	n/a	n/a	n/a
1505.714	n/a	REC_WORD	752857	wordpools/wasnorm_wordpool.txt	LTP079	ltpFR	5	9	0	CHARCOAL	281	n/a	0	n/a	n/a	n/a	n/a	n/a
1507.076	n/a	REC_WORD	753538	wordpools/wasnorm_wordpool.txt	LTP079	ltpFR	5	9	0	BOY	161	n/a	0	n/a	n/a	n/a	n/a	n/a
1508.318	n/a	REC_WORD	754159	wordpools/wasnorm_wordpool.txt	LTP079	ltpFR	5	9	0	DICE	461	n/a	0	n/a	n/a	n/a	n/a	n/a
1536.726	n/a	REC_WORD	768363	wordpools/wasnorm_wordpool.txt	LTP079	ltpFR	5	9	0	HEEL	700	n/a	0	n/a	n/a	n/a	n/a	n/a
1538.132	n/a	REC_WORD	769066	wordpools/wasnorm_wordpool.txt	LTP079	ltpFR	5	9	0	COLT	349	n/a	1	n/a	n/a	n/a	n/a	n/a
1539.39	n/a	REC_WORD	769695	wordpools/wasnorm_wordpool.txt	LTP079	ltpFR	5	9	0	STALLION	1369	n/a	1	n/a	n/a	n/a	n/a	n/a
1577.484	n/a	WORD	788742	wordpools/wasnorm_wordpool.txt	LTP079	ltpFR	5	10	0	BEAVER	109	n/a	0	1	0.412841796875	0.57763671875	lower	../fonts/amplitud.ttf
1581.458	n/a	WORD	790729	wordpools/wasnorm_wordpool.txt	LTP079	ltpFR	5	10	0	SCALLOP	1242	n/a	0	1	0.412841796875	0.57763671875	lower	../fonts/amplitud.ttf
1585.408	n/a	WORD	792704	wordpools/wasnorm_wordpool.txt	LTP079	ltpFR	5	10	0	PERISCOPE	1050	n/a	0	1	0.412841796875	0.57763671875	lower	../fonts/amplitud.ttf
1589.392	n/a	WORD	794696	wordpools/wasnorm_wordpool.txt	LTP079	ltpFR	5	10	0	GIFT	635	n/a	1	1	0.412841796875	0.57763671875	lower	../fonts/amplitud.ttf
1593.4	n/a	WORD	796700	wordpools/wasnorm_wordpool.txt	LTP079	ltpFR	5	10	0	SHARK	1275	n/a	1	1	0.412841796875	0.57763671875	lower	../fonts/amplitud.ttf
1597.458	n/a	WORD	798729	wordpools/wasnorm_wordpool.txt	LTP079	ltpFR	5	10	0	JAW	751	n/a	0	1	0.412841796875	0.57763671875	lower	../fonts/amplitud.ttf
1601.292	n/a	WORD	800646	wordpools/wasnorm_wordpool.txt	LTP079	ltpFR	5	10	0	CROCODILE	411	n/a	1	1	0.412841796875	0.57763671875	lower	../fonts/amplitud.ttf
1605.226	n/a	WORD	802613	wordpools/wasnorm_wordpool.txt	LTP079	ltpFR	5	10	0	BUCKET	184	n/a	0	1	0.412841796875	0.57763671875	lower	../fonts/amplitud.ttf
1609.082	n/a	WORD	804541	wordpools/wasnorm_wordpool.txt	LTP079	ltpFR	5	10	0	DART	440	n/a	0	1	0.412841796875	0.57763671875	lower	../fonts/amplitud.ttf
1613.226	n/a	WORD	806613	wordpools/wasnorm_wordpool.txt	LTP079	ltpFR	5	10	0	SKATE	1313	n/a	0	1	0.412841796875	0.57763671875	lower	../fonts/amplitud.ttf
1617.192	n/a	WORD	808596	wordpools/wasnorm_wordpool.txt	LTP079	ltpFR	5	10	0	CAT	257	n/a	0	1	0.412841796875	0.57763671875	lower	../fonts/amplitud.ttf
1621.09	n/a	WORD	810545	wordpools/wasnorm_wordpool.txt	LTP079	ltpFR	5	10	0	WICK	1607	n/a	0	1	0.412841796875	0.57763671875	lower	../fonts/amplitud.ttf
1625.166	n/a	WORD	812583	wordpools/wasnorm_wordpool.txt	LTP079	ltpFR	5	10	0	ULCER	1533	n/a	0	1	0.412841796875	0.57763671875	lower	../fonts/amplitud.ttf
1629.234	n/a	WORD	814617	wordpools/wasnorm_wordpool.txt	LTP079	ltpFR	5	10	0	PARCEL	1012	n/a	0	1	0.412841796875	0.57763671875	lower	../fonts/amplitud.ttf
1633.35	n/a	WORD	816675	wordpools/wasnorm_wordpool.txt	LTP079	ltpFR	5	10	0	KANGAROO	768	n/a	1	1	0.412841796875	0.57763671875	lower	../fonts/amplitud.ttf
1637.276	n/a	WORD	818638	wordpools/wasnorm_wordpool.txt	LTP079	ltpFR	5	10	0	HANDBAG	684	n/a	0	1	0.412841796875	0.57763671875	lower	../fonts/amplitud.ttf
1643.008	n/a	REC_START	821504	n/a	LTP079	ltpFR	5	10	n/a	n/a	n/a	n/a	n/a	n/a	n/a	n/a	n/a	n/a
1643.836	n/a	REC_WORD	821918	wordpools/wasnorm_wordpool.txt	LTP079	ltpFR	5	10	0	HANDBAG	684	n/a	0	n/a	n/a	n/a	n/a	n/a
1645.278	n/a	REC_WORD	822639	wordpools/wasnorm_wordpool.txt	LTP079	ltpFR	5	10	0	PARCEL	1012	n/a	0	n/a	n/a	n/a	n/a	n/a
1646.534	n/a	REC_WORD	823267	wordpools/wasnorm_wordpool.txt	LTP079	ltpFR	5	10	0	ULCER	1533	n/a	0	n/a	n/a	n/a	n/a	n/a
1647.736	n/a	REC_WORD	823868	wordpools/wasnorm_wordpool.txt	LTP079	ltpFR	5	10	0	KANGAROO	768	n/a	1	n/a	n/a	n/a	n/a	n/a
1649.114	n/a	REC_WORD	824557	wordpools/wasnorm_wordpool.txt	LTP079	ltpFR	5	10	0	SKATE	1313	n/a	0	n/a	n/a	n/a	n/a	n/a
1650.456	n/a	REC_WORD	825228	wordpools/wasnorm_wordpool.txt	LTP079	ltpFR	5	10	0	CAT	257	n/a	0	n/a	n/a	n/a	n/a	n/a
1651.628	n/a	REC_WORD	825814	wordpools/wasnorm_wordpool.txt	LTP079	ltpFR	5	10	0	WICK	1607	n/a	0	n/a	n/a	n/a	n/a	n/a
1652.782	n/a	REC_WORD	826391	wordpools/wasnorm_wordpool.txt	LTP079	ltpFR	5	10	0	CROCODILE	411	n/a	1	n/a	n/a	n/a	n/a	n/a
1654.332	n/a	REC_WORD	827166	wordpools/wasnorm_wordpool.txt	LTP079	ltpFR	5	10	0	BUCKET	184	n/a	0	n/a	n/a	n/a	n/a	n/a
1655.4	n/a	REC_WORD	827700	wordpools/wasnorm_wordpool.txt	LTP079	ltpFR	5	10	0	DART	440	n/a	0	n/a	n/a	n/a	n/a	n/a
1676.568	n/a	REC_WORD	838284	wordpools/wasnorm_wordpool.txt	LTP079	ltpFR	5	10	0	SCALLOP	1242	n/a	0	n/a	n/a	n/a	n/a	n/a
1678.19	n/a	REC_WORD	839095	wordpools/wasnorm_wordpool.txt	LTP079	ltpFR	5	10	0	BEAVER	109	n/a	0	n/a	n/a	n/a	n/a	n/a
1682.11	n/a	REC_WORD	841055	wordpools/wasnorm_wordpool.txt	LTP079	ltpFR	5	10	0	PERISCOPE	1050	n/a	0	n/a	n/a	n/a	n/a	n/a
1692.014	n/a	REC_WORD	846007	wordpools/wasnorm_wordpool.txt	LTP079	ltpFR	5	10	0	SHARK	1275	n/a	1	n/a	n/a	n/a	n/a	n/a
1693.546	n/a	REC_WORD	846773	wordpools/wasnorm_wordpool.txt	LTP079	ltpFR	5	10	0	GIFT	635	n/a	1	n/a	n/a	n/a	n/a	n/a
1694.978	n/a	REC_WORD	847489	wordpools/wasnorm_wordpool.txt	LTP079	ltpFR	5	10	0	JAW	751	n/a	0	n/a	n/a	n/a	n/a	n/a
1721.272	n/a	WORD	860636	wordpools/wasnorm_wordpool.txt	LTP079	ltpFR	5	11	1	AUTOMOBILE	62	n/a	0	0	0.5869140625	0.422607421875	upper	../fonts/zerothre.ttf
1725.48	n/a	WORD	862740	wordpools/wasnorm_wordpool.txt	LTP079	ltpFR	5	11	1	MERMAID	887	n/a	1	0	0.5869140625	0.422607421875	upper	../fonts/zerothre.ttf
1729.538	n/a	WORD	864769	wordpools/wasnorm_wordpool.txt	LTP079	ltpFR	5	11	1	SEA	1259	n/a	0	0	0.5869140625	0.422607421875	upper	../fonts/zerothre.ttf
1733.38	n/a	WORD	866690	wordpools/wasnorm_wordpool.txt	LTP079	ltpFR	5	11	1	SCALE	1241	n/a	0	0	0.5869140625	0.422607421875	upper	../fonts/zerothre.ttf
1737.522	n/a	WORD	868761	wordpools/wasnorm_wordpool.txt	LTP079	ltpFR	5	11	1	ZUCCHINI	1638	n/a	0	0	0.5869140625	0.422607421875	upper	../fonts/zerothre.ttf
1741.604	n/a	WORD	870802	wordpools/wasnorm_wordpool.txt	LTP079	ltpFR	5	11	1	CAULIFLOWER	262	n/a	0	0	0.5869140625	0.422607421875	upper	../fonts/zerothre.ttf
1745.588	n/a	WORD	872794	wordpools/wasnorm_wordpool.txt	LTP079	ltpFR	5	11	1	PISTON	1076	n/a	0	0	0.5869140625	0.422607421875	upper	../fonts/zerothre.ttf
1749.704	n/a	WORD	874852	wordpools/wasnorm_wordpool.txt	LTP079	ltpFR	5	11	1	PORCUPINE	1107	n/a	1	0	0.5869140625	0.422607421875	upper	../fonts/zerothre.ttf
1753.754	n/a	WORD	876877	wordpools/wasnorm_wordpool.txt	LTP079	ltpFR	5	11	1	DILL	465	n/a	0	0	0.5869140625	0.422607421875	upper	../fonts/zerothre.ttf
1757.854	n/a	WORD	878927	wordpools/wasnorm_wordpool.txt	LTP079	ltpFR	5	11	1	BOYFRIEND	162	n/a	1	0	0.5869140625	0.422607421875	upper	../fonts/zerothre.ttf
1761.846	n/a	WORD	880923	wordpools/wasnorm_wordpool.txt	LTP079	ltpFR	5	11	1	FOUNTAIN	597	n/a	0	0	0.5869140625	0.422607421875	upper	../fonts/zerothre.ttf
1765.704	n/a	WORD	882852	wordpools/wasnorm_wordpool.txt	LTP079	ltpFR	5	11	1	DWARF	510	n/a	1	0	0.5869140625	0.422607421875	upper	../fonts/zerothre.ttf
1769.846	n/a	WORD	884923	wordpools/wasnorm_wordpool.txt	LTP079	ltpFR	5	11	1	MOLECULE	905	n/a	0	0	0.5869140625	0.422607421875	upper	../fonts/zerothre.ttf
1773.87	n/a	WORD	886935	wordpools/wasnorm_wordpool.txt	LTP079	ltpFR	5	11	1	WILDERNESS	1610	n/a	0	0	0.5869140625	0.422607421875	upper	../fonts/zerothre.ttf
1778.046	n/a	WORD	889023	wordpools/wasnorm_wordpool.txt	LTP079	ltpFR	5	11	1	ELM	527	n/a	1	0	0.5869140625	0.422607421875	upper	../fonts/zerothre.ttf
1782.254	n/a	WORD	891127	wordpools/wasnorm_wordpool.txt	LTP079	ltpFR	5	11	1	GYM	674	n/a	0	0	0.5869140625	0.422607421875	upper	../fonts/zerothre.ttf
1787.904	n/a	REC_START	893952	n/a	LTP079	ltpFR	5	11	n/a	n/a	n/a	n/a	n/a	n/a	n/a	n/a	n/a	n/a
1789.036	n/a	REC_WORD	894518	wordpools/wasnorm_wordpool.txt	LTP079	ltpFR	5	11	1	GYM	674	n/a	0	n/a	n/a	n/a	n/a	n/a
1790.418	n/a	REC_WORD	895209	wordpools/wasnorm_wordpool.txt	LTP079	ltpFR	5	11	1	ELM	527	n/a	1	n/a	n/a	n/a	n/a	n/a
1791.606	n/a	REC_WORD	895803	wordpools/wasnorm_wordpool.txt	LTP079	ltpFR	5	11	1	WILDERNESS	1610	n/a	0	n/a	n/a	n/a	n/a	n/a
1792.908	n/a	REC_WORD	896454	wordpools/wasnorm_wordpool.txt	LTP079	ltpFR	5	11	1	MOLECULE	905	n/a	0	n/a	n/a	n/a	n/a	n/a
1794.62	n/a	REC_WORD	897310	wordpools/wasnorm_wordpool.txt	LTP079	ltpFR	5	11	1	BOYFRIEND	162	n/a	1	n/a	n/a	n/a	n/a	n/a
1795.966	n/a	REC_WORD	897983	wordpools/wasnorm_wordpool.txt	LTP079	ltpFR	5	11	1	DWARF	510	n/a	1	n/a	n/a	n/a	n/a	n/a
1797.124	n/a	REC_WORD	898562	wordpools/wasnorm_wordpool.txt	LTP079	ltpFR	5	11	1	FOUNTAIN	597	n/a	0	n/a	n/a	n/a	n/a	n/a
1819.064	n/a	REC_WORD	909532	wordpools/wasnorm_wordpool.txt	LTP079	ltpFR	5	11	1	PORCUPINE	1107	n/a	1	n/a	n/a	n/a	n/a	n/a
1820.716	n/a	REC_WORD	910358	wordpools/wasnorm_wordpool.txt	LTP079	ltpFR	5	11	1	PISTON	1076	n/a	0	n/a	n/a	n/a	n/a	n/a
1822.382	n/a	REC_WORD	911191	wordpools/wasnorm_wordpool.txt	LTP079	ltpFR	5	11	1	DILL	465	n/a	0	n/a	n/a	n/a	n/a	n/a
1830.384	n/a	REC_WORD	915192	wordpools/wasnorm_wordpool.txt	LTP079	ltpFR	5	11	1	MERMAID	887	n/a	1	n/a	n/a	n/a	n/a	n/a
1831.792	n/a	REC_WORD	915896	wordpools/wasnorm_wordpool.txt	LTP079	ltpFR	5	11	1	AUTOMOBILE	62	n/a	0	n/a	n/a	n/a	n/a	n/a
1866.368	n/a	WORD	933184	wordpools/wasnorm_wordpool.txt	LTP079	ltpFR	5	12	1	PRODUCER	1129	n/a	1	0	0.5869140625	0.422607421875	upper	../fonts/zerothre.ttf
1870.55	n/a	WORD	935275	wordpools/wasnorm_wordpool.txt	LTP079	ltpFR	5	12	1	GUN	673	n/a	0	0	0.5869140625	0.422607421875	upper	../fonts/zerothre.ttf
1874.634	n/a	WORD	937317	wordpools/wasnorm_wordpool.txt	LTP079	ltpFR	5	12	1	CANNON	232	n/a	0	0	0.5869140625	0.422607421875	upper	../fonts/zerothre.ttf
1878.718	n/a	WORD	939359	wordpools/wasnorm_wordpool.txt	LTP079	ltpFR	5	12	1	CYCLONE	431	n/a	0	0	0.5869140625	0.422607421875	upper	../fonts/zerothre.ttf
1882.66	n/a	WORD	941330	wordpools/wasnorm_wordpool.txt	LTP079	ltpFR	5	12	1	HURRICANE	727	n/a	0	0	0.5869140625	0.422607421875	upper	../fonts/zerothre.ttf
1886.55	n/a	WORD	943275	wordpools/wasnorm_wordpool.txt	LTP079	ltpFR	5	12	1	CREATURE	403	n/a	1	0	0.5869140625	0.422607421875	upper	../fonts/zerothre.ttf
1890.384	n/a	WORD	945192	wordpools/wasnorm_wordpool.txt	LTP079	ltpFR	5	12	1	FLIPPER	580	n/a	0	0	0.5869140625	0.422607421875	upper	../fonts/zerothre.ttf
1894.268	n/a	WORD	947134	wordpools/wasnorm_wordpool.txt	LTP079	ltpFR	5	12	1	CACTUS	215	n/a	1	0	0.5869140625	0.422607421875	upper	../fonts/zerothre.ttf
1898.318	n/a	WORD	949159	wordpools/wasnorm_wordpool.txt	LTP079	ltpFR	5	12	1	DOUGH	489	n/a	0	0	0.5869140625	0.422607421875	upper	../fonts/zerothre.ttf
1902.16	n/a	WORD	951080	wordpools/wasnorm_wordpool.txt	LTP079	ltpFR	5	12	1	KITTEN	780	n/a	1	0	0.5869140625	0.422607421875	upper	../fonts/zerothre.ttf
1906.26	n/a	WORD	953130	wordpools/wasnorm_wordpool.txt	LTP079	ltpFR	5	12	1	WATER	1594	n/a	0	0	0.5869140625	0.422607421875	upper	../fonts/zerothre.ttf
1910.126	n/a	WORD	955063	wordpools/wasnorm_wordpool.txt	LTP079	ltpFR	5	12	1	SHED	1277	n/a	0	0	0.5869140625	0.422607421875	upper	../fonts/zerothre.ttf
1914.108	n/a	WORD	957054	wordpools/wasnorm_wordpool.txt	LTP079	ltpFR	5	12	1	HAMPER	682	n/a	0	0	0.5869140625	0.422607421875	upper	../fonts/zerothre.ttf
1918.0	n/a	WORD	959000	wordpools/wasnorm_wordpool.txt	LTP079	ltpFR	5	12	1	PAIL	1002	n/a	0	0	0.5869140625	0.422607421875	upper	../fonts/zerothre.ttf
1922.076	n/a	WORD	961038	wordpools/wasnorm_wordpool.txt	LTP079	ltpFR	5	12	1	RODENT	1204	n/a	1	0	0.5869140625	0.422607421875	upper	../fonts/zerothre.ttf
1926.176	n/a	WORD	963088	wordpools/wasnorm_wordpool.txt	LTP079	ltpFR	5	12	1	STOMACH	1384	n/a	0	0	0.5869140625	0.422607421875	upper	../fonts/zerothre.ttf
1932.252	n/a	REC_START	966126	n/a	LTP079	ltpFR	5	12	n/a	n/a	n/a	n/a	n/a	n/a	n/a	n/a	n/a	n/a
1932.954	n/a	REC_WORD	966477	wordpools/wasnorm_wordpool.txt	LTP079	ltpFR	5	12	1	STOMACH	1384	n/a	0	n/a	n/a	n/a	n/a	n/a
1934.332	n/a	REC_WORD	967166	wordpools/wasnorm_wordpool.txt	LTP079	ltpFR	5	12	1	RODENT	1204	n/a	1	n/a	n/a	n/a	n/a	n/a
1935.808	n/a	REC_WORD	967904	wordpools/wasnorm_wordpool.txt	LTP079	ltpFR	5	12	1	PAIL	1002	n/a	0	n/a	n/a	n/a	n/a	n/a
1937.04	n/a	REC_WORD	968520	wordpools/wasnorm_wordpool.txt	LTP079	ltpFR	5	12	1	HAMPER	682	n/a	0	n/a	n/a	n/a	n/a	n/a
1938.208	n/a	REC_WORD	969104	wordpools/wasnorm_wordpool.txt	LTP079	ltpFR	5	12	1	PRODUCER	1129	n/a	1	n/a	n/a	n/a	n/a	n/a
1939.64	n/a	REC_WORD	969820	wordpools/wasnorm_wordpool.txt	LTP079	ltpFR	5	12	1	GUN	673	n/a	0	n/a	n/a	n/a	n/a	n/a
1940.906	n/a	REC_WORD	970453	wordpools/wasnorm_wordpool.txt	LTP079	ltpFR	5	12	1	CANNON	232	n/a	0	n/a	n/a	n/a	n/a	n/a
1948.784	n/a	REC_WORD	974392	wordpools/wasnorm_wordpool.txt	LTP079	ltpFR	5	12	1	SHED	1277	n/a	0	n/a	n/a	n/a	n/a	n/a
1950.106	n/a	REC_WORD	975053	wordpools/wasnorm_wordpool.txt	LTP079	ltpFR	5	12	1	WATER	1594	n/a	0	n/a	n/a	n/a	n/a	n/a
1951.274	n/a	REC_WORD	975637	wordpools/wasnorm_wordpool.txt	LTP079	ltpFR	5	12	1	KITTEN	780	n/a	1	n/a	n/a	n/a	n/a	n/a
1952.412	n/a	REC_WORD	976206	wordpools/wasnorm_wordpool.txt	LTP079	ltpFR	5	12	1	CREATURE	403	n/a	1	n/a	n/a	n/a	n/a	n/a
1953.508	n/a	REC_WORD	976754	wordpools/wasnorm_wordpool.txt	LTP079	ltpFR	5	12	1	CYCLONE	431	n/a	0	n/a	n/a	n/a	n/a	n/a
1954.772	n/a	REC_WORD	977386	wordpools/wasnorm_wordpool.txt	LTP079	ltpFR	5	12	1	HURRICANE	727	n/a	0	n/a	n/a	n/a	n/a	n/a
1970.31	n/a	REC_WORD	985155	wordpools/wasnorm_wordpool.txt	LTP079	ltpFR	5	12	1	CACTUS	215	n/a	1	n/a	n/a	n/a	n/a	n/a
1971.946	n/a	REC_WORD	985973	wordpools/wasnorm_wordpool.txt	LTP079	ltpFR	5	12	1	FLIPPER	580	n/a	0	n/a	n/a	n/a	n/a	n/a
1973.56	n/a	REC_WORD	986780	wordpools/wasnorm_wordpool.txt	LTP079	ltpFR	5	12	1	DOUGH	489	n/a	0	n/a	n/a	n/a	n/a	n/a
2007.856	n/a	REST_REWET	1003928	n/a	LTP079	ltpFR	5	12	n/a	n/a	n/a	n/a	n/a	n/a	n/a	n/a	n/a	n/a
2333.716	n/a	WORD	1166858	wordpools/wasnorm_wordpool.txt	LTP079	ltpFR	5	13	0	TAPE	1433	n/a	0	1	0.412841796875	0.57763671875	lower	../fonts/amplitud.ttf
2337.598	n/a	WORD	1168799	wordpools/wasnorm_wordpool.txt	LTP079	ltpFR	5	13	0	TUBA	1515	n/a	1	1	0.412841796875	0.57763671875	lower	../fonts/amplitud.ttf
2341.622	n/a	WORD	1170811	wordpools/wasnorm_wordpool.txt	LTP079	ltpFR	5	13	0	SAUSAGE	1238	n/a	0	1	0.412841796875	0.57763671875	lower	../fonts/amplitud.ttf
2345.714	n/a	WORD	1172857	wordpools/wasnorm_wordpool.txt	LTP079	ltpFR	5	13	0	INTESTINE	742	n/a	0	1	0.412841796875	0.57763671875	lower	../fonts/amplitud.ttf
2349.556	n/a	WORD	1174778	wordpools/wasnorm_wordpool.txt	LTP079	ltpFR	5	13	0	SALT	1229	n/a	0	1	0.412841796875	0.57763671875	lower	../fonts/amplitud.ttf
2353.388	n/a	WORD	1176694	wordpools/wasnorm_wordpool.txt	LTP079	ltpFR	5	13	0	RAM	1165	n/a	1	1	0.412841796875	0.57763671875	lower	../fonts/amplitud.ttf
2357.548	n/a	WORD	1178774	wordpools/wasnorm_wordpool.txt	LTP079	ltpFR	5	13	0	BERRY	122	n/a	0	1	0.412841796875	0.57763671875	lower	../fonts/amplitud.ttf
2361.722	n/a	WORD	1180861	wordpools/wasnorm_wordpool.txt	LTP079	ltpFR	5	13	0	ICE	730	n/a	0	1	0.412841796875	0.57763671875	lower	../fonts/amplitud.ttf
2365.58	n/a	WORD	1182790	wordpools/wasnorm_wordpool.txt	LTP079	ltpFR	5	13	0	OTTER	986	n/a	0	1	0.412841796875	0.57763671875	lower	../fonts/amplitud.ttf
2369.672	n/a	WORD	1184836	wordpools/wasnorm_wordpool.txt	LTP079	ltpFR	5	13	0	SANDPAPER	1231	n/a	0	1	0.412841796875	0.57763671875	lower	../fonts/amplitud.ttf
2373.588	n/a	WORD	1186794	wordpools/wasnorm_wordpool.txt	LTP079	ltpFR	5	13	0	STREAM	1392	n/a	1	1	0.412841796875	0.57763671875	lower	../fonts/amplitud.ttf
2377.706	n/a	WORD	1188853	wordpools/wasnorm_wordpool.txt	LTP079	ltpFR	5	13	0	LETTER	813	n/a	0	1	0.412841796875	0.57763671875	lower	../fonts/amplitud.ttf
2381.772	n/a	WORD	1190886	wordpools/wasnorm_wordpool.txt	LTP079	ltpFR	5	13	0	FREEZER	604	n/a	0	1	0.412841796875	0.57763671875	lower	../fonts/amplitud.ttf
2385.596	n/a	WORD	1192798	wordpools/wasnorm_wordpool.txt	LTP079	ltpFR	5	13	0	OCEAN	970	n/a	1	1	0.412841796875	0.57763671875	lower	../fonts/amplitud.ttf
2389.78	n/a	WORD	1194890	wordpools/wasnorm_wordpool.txt	LTP079	ltpFR	5	13	0	TYPEWRITER	1531	n/a	1	1	0.412841796875	0.57763671875	lower	../fonts/amplitud.ttf
2393.746	n/a	WORD	1196873	wordpools/wasnorm_wordpool.txt	LTP079	ltpFR	5	13	0	BRIEFCASE	175	n/a	1	1	0.412841796875	0.57763671875	lower	../fonts/amplitud.ttf
2399.622	n/a	REC_START	1199811	n/a	LTP079	ltpFR	5	13	n/a	n/a	n/a	n/a	n/a	n/a	n/a	n/a	n/a	n/a
2401.348	n/a	REC_WORD	1200674	wordpools/wasnorm_wordpool.txt	LTP079	ltpFR	5	13	0	BRIEFCASE	175	n/a	1	n/a	n/a	n/a	n/a	n/a
2402.676	n/a	REC_WORD	1201338	wordpools/wasnorm_wordpool.txt	LTP079	ltpFR	5	13	0	TYPEWRITER	1531	n/a	1	n/a	n/a	n/a	n/a	n/a
2404.028	n/a	REC_WORD	1202014	wordpools/wasnorm_wordpool.txt	LTP079	ltpFR	5	13	0	OCEAN	970	n/a	1	n/a	n/a	n/a	n/a	n/a
2405.3	n/a	REC_WORD	1202650	wordpools/wasnorm_wordpool.txt	LTP079	ltpFR	5	13	0	FREEZER	604	n/a	0	n/a	n/a	n/a	n/a	n/a
2406.866	n/a	REC_WORD	1203433	wordpools/wasnorm_wordpool.txt	LTP079	ltpFR	5	13	0	OTTER	986	n/a	0	n/a	n/a	n/a	n/a	n/a
2407.998	n/a	REC_WORD	1203999	wordpools/wasnorm_wordpool.txt	LTP079	ltpFR	5	13	0	STREAM	1392	n/a	1	n/a	n/a	n/a	n/a	n/a
2409.424	n/a	REC_WORD	1204712	wordpools/wasnorm_wordpool.txt	LTP079	ltpFR	5	13	0	SANDPAPER	1231	n/a	0	n/a	n/a	n/a	n/a	n/a
2411.28	n/a	REC_WORD	1205640	wordpools/wasnorm_wordpool.txt	LTP079	ltpFR	5	13	0	LETTER	813	n/a	0	n/a	n/a	n/a	n/a	n/a
2414.294	n/a	REC_WORD	1207147	wordpools/wasnorm_wordpool.txt	LTP079	ltpFR	5	13	0	BERRY	122	n/a	0	n/a	n/a	n/a	n/a	n/a
2415.676	n/a	REC_WORD	1207838	wordpools/wasnorm_wordpool.txt	LTP079	ltpFR	5	13	0	ICE	730	n/a	0	n/a	n/a	n/a	n/a	n/a
2417.004	n/a	REC_WORD	1208502	wordpools/wasnorm_wordpool.txt	LTP079	ltpFR	5	13	0	RAM	1165	n/a	1	n/a	n/a	n/a	n/a	n/a
2418.256	n/a	REC_WORD	1209128	wordpools/wasnorm_wordpool.txt	LTP079	ltpFR	5	13	0	INTESTINE	742	n/a	0	n/a	n/a	n/a	n/a	n/a
2419.608	n/a	REC_WORD	1209804	wordpools/wasnorm_wordpool.txt	LTP079	ltpFR	5	13	0	SALT	1229	n/a	0	n/a	n/a	n/a	n/a	n/a
2478.078	n/a	WORD	1239039	wordpools/wasnorm_wordpool.txt	LTP079	ltpFR	5	14	1	FEMALE	559	n/a	1	0	0.5869140625	0.422607421875	upper	../fonts/zerothre.ttf
2482.062	n/a	WORD	1241031	wordpools/wasnorm_wordpool.txt	LTP079	ltpFR	5	14	1	MAN	862	n/a	1	0	0.5869140625	0.422607421875	upper	../fonts/zerothre.ttf
2486.11	n/a	WORD	1243055	wordpools/wasnorm_wordpool.txt	LTP079	ltpFR	5	14	0	VESSEL	1558	n/a	1	1	0.412841796875	0.57763671875	lower	../fonts/amplitud.ttf
2490.22	n/a	WORD	1245110	wordpools/wasnorm_wordpool.txt	LTP079	ltpFR	5	14	0	CAPTAIN	239	n/a	1	1	0.412841796875	0.57763671875	lower	../fonts/amplitud.ttf
2494.386	n/a	WORD	1247193	wordpools/wasnorm_wordpool.txt	LTP079	ltpFR	5	14	1	LAGOON	795	n/a	0	0	0.5869140625	0.422607421875	upper	../fonts/zerothre.ttf
2498.486	n/a	WORD	1249243	wordpools/wasnorm_wordpool.txt	LTP079	ltpFR	5	14	1	CHAMBER	277	n/a	0	0	0.5869140625	0.422607421875	upper	../fonts/zerothre.ttf
2502.36	n/a	WORD	1251180	wordpools/wasnorm_wordpool.txt	LTP079	ltpFR	5	14	1	CUBE	420	n/a	0	0	0.5869140625	0.422607421875	upper	../fonts/zerothre.ttf
2506.262	n/a	WORD	1253131	wordpools/wasnorm_wordpool.txt	LTP079	ltpFR	5	14	1	PASSAGE	1019	n/a	0	0	0.5869140625	0.422607421875	upper	../fonts/zerothre.ttf
2510.144	n/a	WORD	1255072	wordpools/wasnorm_wordpool.txt	LTP079	ltpFR	5	14	1	MONSTER	912	n/a	1	0	0.5869140625	0.422607421875	upper	../fonts/zerothre.ttf
2514.16	n/a	WORD	1257080	wordpools/wasnorm_wordpool.txt	LTP079	ltpFR	5	14	1	CHIPMUNK	304	n/a	1	0	0.5869140625	0.422607421875	upper	../fonts/zerothre.ttf
2518.136	n/a	WORD	1259068	wordpools/wasnorm_wordpool.txt	LTP079	ltpFR	5	14	0	DRAWING	494	n/a	0	1	0.412841796875	0.57763671875	lower	../fonts/amplitud.ttf
2522.152	n/a	WORD	1261076	wordpools/wasnorm_wordpool.txt	LTP079	ltpFR	5	14	0	VOLCANO	1575	n/a	1	1	0.412841796875	0.57763671875	lower	../fonts/amplitud.ttf
2526.102	n/a	WORD	1263051	wordpools/wasnorm_wordpool.txt	LTP079	ltpFR	5	14	0	LAKE	796	n/a	1	1	0.412841796875	0.57763671875	lower	../fonts/amplitud.ttf
2530.152	n/a	WORD	1265076	wordpools/wasnorm_wordpool.txt	LTP079	ltpFR	5	14	0	CONVICT	371	n/a	1	1	0.412841796875	0.57763671875	lower	../fonts/amplitud.ttf
2534.168	n/a	WORD	1267084	wordpools/wasnorm_wordpool.txt	LTP079	ltpFR	5	14	0	SIGNATURE	1306	n/a	0	1	0.412841796875	0.57763671875	lower	../fonts/amplitud.ttf
2538.118	n/a	WORD	1269059	wordpools/wasnorm_wordpool.txt	LTP079	ltpFR	5	14	0	ASH	44	n/a	0	1	0.412841796875	0.57763671875	lower	../fonts/amplitud.ttf
2543.71	n/a	REC_START	1271855	n/a	LTP079	ltpFR	5	14	n/a	n/a	n/a	n/a	n/a	n/a	n/a	n/a	n/a	n/a
2544.748	n/a	REC_WORD	1272374	wordpools/wasnorm_wordpool.txt	LTP079	ltpFR	5	14	0	ASH	44	n/a	0	n/a	n/a	n/a	n/a	n/a
2545.84	n/a	REC_WORD	1272920	wordpools/wasnorm_wordpool.txt	LTP079	ltpFR	5	14	0	SIGNATURE	1306	n/a	0	n/a	n/a	n/a	n/a	n/a
2547.268	n/a	REC_WORD	1273634	wordpools/wasnorm_wordpool.txt	LTP079	ltpFR	5	14	0	CONVICT	371	n/a	1	n/a	n/a	n/a	n/a	n/a
2548.484	n/a	REC_WORD	1274242	wordpools/wasnorm_wordpool.txt	LTP079	ltpFR	5	14	0	DRAWING	494	n/a	0	n/a	n/a	n/a	n/a	n/a
2549.846	n/a	REC_WORD	1274923	wordpools/wasnorm_wordpool.txt	LTP079	ltpFR	5	14	0	LAKE	796	n/a	1	n/a	n/a	n/a	n/a	n/a
2550.914	n/a	REC_WORD	1275457	wordpools/wasnorm_wordpool.txt	LTP079	ltpFR	5	14	0	VOLCANO	1575	n/a	1	n/a	n/a	n/a	n/a	n/a
2552.386	n/a	REC_WORD	1276193	wordpools/wasnorm_wordpool.txt	LTP079	ltpFR	5	14	1	MAN	862	n/a	1	n/a	n/a	n/a	n/a	n/a
2553.504	n/a	REC_WORD	1276752	wordpools/wasnorm_wordpool.txt	LTP079	ltpFR	5	14	1	FEMALE	559	n/a	1	n/a	n/a	n/a	n/a	n/a
2554.786	n/a	REC_WORD	1277393	wordpools/wasnorm_wordpool.txt	LTP079	ltpFR	5	14	0	VESSEL	1558	n/a	1	n/a	n/a	n/a	n/a	n/a
2555.968	n/a	REC_WORD	1277984	wordpools/wasnorm_wordpool.txt	LTP079	ltpFR	5	14	1	LAGOON	795	n/a	0	n/a	n/a	n/a	n/a	n/a
2557.306	n/a	REC_WORD	1278653	wordpools/wasnorm_wordpool.txt	LTP079	ltpFR	5	14	0	CAPTAIN	239	n/a	1	n/a	n/a	n/a	n/a	n/a
2558.578	n/a	REC_WORD	1279289	wordpools/wasnorm_wordpool.txt	LTP079	ltpFR	5	14	1	CHAMBER	277	n/a	0	n/a	n/a	n/a	n/a	n/a
2562.528	n/a	REC_WORD	1281264	wordpools/wasnorm_wordpool.txt	LTP079	ltpFR	5	14	1	MONSTER	912	n/a	1	n/a	n/a	n/a	n/a	n/a
2566.798	n/a	REC_WORD	1283399	wordpools/wasnorm_wordpool.txt	LTP079	ltpFR	5	14	1	CUBE	420	n/a	0	n/a	n/a	n/a	n/a	n/a
2568.07	n/a	REC_WORD	1284035	wordpools/wasnorm_wordpool.txt	LTP079	ltpFR	5	14	1	PASSAGE	1019	n/a	0	n/a	n/a	n/a	n/a	n/a
2622.566	n/a	WORD	1311283	wordpools/wasnorm_wordpool.txt	LTP079	ltpFR	5	15	0	COTTAGE	384	n/a	1	1	0.412841796875	0.57763671875	lower	../fonts/amplitud.ttf
2626.732	n/a	WORD	1313366	wordpools/wasnorm_wordpool.txt	LTP079	ltpFR	5	15	0	PEDESTRIAN	1038	n/a	0	1	0.412841796875	0.57763671875	lower	../fonts/amplitud.ttf
2630.906	n/a	WORD	1315453	wordpools/wasnorm_wordpool.txt	LTP079	ltpFR	5	15	1	BOUILLON	154	n/a	0	0	0.5869140625	0.422607421875	upper	../fonts/zerothre.ttf
2635.1	n/a	WORD	1317550	wordpools/wasnorm_wordpool.txt	LTP079	ltpFR	5	15	1	RAZOR	1171	n/a	0	0	0.5869140625	0.422607421875	upper	../fonts/zerothre.ttf
2639.308	n/a	WORD	1319654	wordpools/wasnorm_wordpool.txt	LTP079	ltpFR	5	15	1	POCKET	1093	n/a	0	0	0.5869140625	0.422607421875	upper	../fonts/zerothre.ttf
2643.44	n/a	WORD	1321720	wordpools/wasnorm_wordpool.txt	LTP079	ltpFR	5	15	0	GULL	671	n/a	0	1	0.412841796875	0.57763671875	lower	../fonts/amplitud.ttf
2647.54	n/a	WORD	1323770	wordpools/wasnorm_wordpool.txt	LTP079	ltpFR	5	15	0	PLANT	1083	n/a	0	1	0.412841796875	0.57763671875	lower	../fonts/amplitud.ttf
2651.374	n/a	WORD	1325687	wordpools/wasnorm_wordpool.txt	LTP079	ltpFR	5	15	1	STEM	1376	n/a	1	0	0.5869140625	0.422607421875	upper	../fonts/zerothre.ttf
2655.548	n/a	WORD	1327774	wordpools/wasnorm_wordpool.txt	LTP079	ltpFR	5	15	1	DOVE	491	n/a	1	0	0.5869140625	0.422607421875	upper	../fonts/zerothre.ttf
2659.732	n/a	WORD	1329866	wordpools/wasnorm_wordpool.txt	LTP079	ltpFR	5	15	1	VALLEY	1545	n/a	0	0	0.5869140625	0.422607421875	upper	../fonts/zerothre.ttf
2663.664	n/a	WORD	1331832	wordpools/wasnorm_wordpool.txt	LTP079	ltpFR	5	15	1	TERMINAL	1450	n/a	0	0	0.5869140625	0.422607421875	upper	../fonts/zerothre.ttf
2667.732	n/a	WORD	1333866	wordpools/wasnorm_wordpool.txt	LTP079	ltpFR	5	15	1	SAW	1239	n/a	0	0	0.5869140625	0.422607421875	upper	../fonts/zerothre.ttf
2671.84	n/a	WORD	1335920	wordpools/wasnorm_wordpool.txt	LTP079	ltpFR	5	15	0	KNIFE	785	n/a	0	1	0.412841796875	0.57763671875	lower	../fonts/amplitud.ttf
2676.032	n/a	WORD	1338016	wordpools/wasnorm_wordpool.txt	LTP079	ltpFR	5	15	0	PANTS	1010	n/a	0	1	0.412841796875	0.57763671875	lower	../fonts/amplitud.ttf
2679.914	n/a	WORD	1339957	wordpools/wasnorm_wordpool.txt	LTP079	ltpFR	5	15	0	TICKET	1464	n/a	0	1	0.412841796875	0.57763671875	lower	../fonts/amplitud.ttf
2683.848	n/a	WORD	1341924	wordpools/wasnorm_wordpool.txt	LTP079	ltpFR	5	15	0	PILOT	1070	n/a	0	1	0.412841796875	0.57763671875	lower	../fonts/amplitud.ttf
2689.872	n/a	REC_START	1344936	n/a	LTP079	ltpFR	5	15	n/a	n/a	n/a	n/a	n/a	n/a	n/a	n/a	n/a	n/a
2691.084	n/a	REC_WORD	1345542	wordpools/wasnorm_wordpool.txt	LTP079	ltpFR	5	15	0	PILOT	1070	n/a	0	n/a	n/a	n/a	n/a	n/a
2692.426	n/a	REC_WORD	1346213	wordpools/wasnorm_wordpool.txt	LTP079	ltpFR	5	15	0	TICKET	1464	n/a	0	n/a	n/a	n/a	n/a	n/a
2693.704	n/a	REC_WORD	1346852	wordpools/wasnorm_wordpool.txt	LTP079	ltpFR	5	15	0	KNIFE	785	n/a	0	n/a	n/a	n/a	n/a	n/a
2694.926	n/a	REC_WORD	1347463	wordpools/wasnorm_wordpool.txt	LTP079	ltpFR	5	15	1	SAW	1239	n/a	0	n/a	n/a	n/a	n/a	n/a
2696.294	n/a	REC_WORD	1348147	wordpools/wasnorm_wordpool.txt	LTP079	ltpFR	5	15	0	PANTS	1010	n/a	0	n/a	n/a	n/a	n/a	n/a
2697.616	n/a	REC_WORD	1348808	wordpools/wasnorm_wordpool.txt	LTP079	ltpFR	5	15	1	VALLEY	1545	n/a	0	n/a	n/a	n/a	n/a	n/a
2699.098	n/a	REC_WORD	1349549	wordpools/wasnorm_wordpool.txt	LTP079	ltpFR	5	15	1	DOVE	491	n/a	1	n/a	n/a	n/a	n/a	n/a
2700.31	n/a	REC_WORD	1350155	wordpools/wasnorm_wordpool.txt	LTP079	ltpFR	5	15	0	GULL	671	n/a	0	n/a	n/a	n/a	n/a	n/a
2701.452	n/a	REC_WORD	1350726	wordpools/wasnorm_wordpool.txt	LTP079	ltpFR	5	15	0	PLANT	1083	n/a	0	n/a	n/a	n/a	n/a	n/a
2702.554	n/a	REC_WORD	1351277	wordpools/wasnorm_wordpool.txt	LTP079	ltpFR	5	15	1	STEM	1376	n/a	1	n/a	n/a	n/a	n/a	n/a
2703.836	n/a	REC_WORD	1351918	wordpools/wasnorm_wordpool.txt	LTP079	ltpFR	5	15	0	PEDESTRIAN	1038	n/a	0	n/a	n/a	n/a	n/a	n/a
2705.368	n/a	REC_WORD	1352684	wordpools/wasnorm_wordpool.txt	LTP079	ltpFR	5	15	0	COTTAGE	384	n/a	1	n/a	n/a	n/a	n/a	n/a
2707.348	n/a	REC_WORD	1353674	wordpools/wasnorm_wordpool.txt	LTP079	ltpFR	5	15	1	BOUILLON	154	n/a	0	n/a	n/a	n/a	n/a	n/a
2768.604	n/a	WORD	1384302	wordpools/wasnorm_wordpool.txt	LTP079	ltpFR	5	16	1	MAID	856	n/a	1	0	0.5869140625	0.422607421875	upper	../fonts/zerothre.ttf
2772.778	n/a	WORD	1386389	wordpools/wasnorm_wordpool.txt	LTP079	ltpFR	5	16	1	UNDERWEAR	1537	n/a	0	0	0.5869140625	0.422607421875	upper	../fonts/zerothre.ttf
2776.804	n/a	WORD	1388402	wordpools/wasnorm_wordpool.txt	LTP079	ltpFR	5	16	1	TERRITORY	1452	n/a	0	0	0.5869140625	0.422607421875	upper	../fonts/zerothre.ttf
2780.812	n/a	WORD	1390406	wordpools/wasnorm_wordpool.txt	LTP079	ltpFR	5	16	1	GANG	619	n/a	1	0	0.5869140625	0.422607421875	upper	../fonts/zerothre.ttf
2784.896	n/a	WORD	1392448	wordpools/wasnorm_wordpool.txt	LTP079	ltpFR	5	16	1	GARLIC	624	n/a	0	0	0.5869140625	0.422607421875	upper	../fonts/zerothre.ttf
2788.804	n/a	WORD	1394402	wordpools/wasnorm_wordpool.txt	LTP079	ltpFR	5	16	1	ONION	977	n/a	0	0	0.5869140625	0.422607421875	upper	../fonts/zerothre.ttf
2792.978	n/a	WORD	1396489	wordpools/wasnorm_wordpool.txt	LTP079	ltpFR	5	16	1	TRUCK	1512	n/a	0	0	0.5869140625	0.422607421875	upper	../fonts/zerothre.ttf
2796.92	n/a	WORD	1398460	wordpools/wasnorm_wordpool.txt	LTP079	ltpFR	5	16	1	CHAUFFEUR	283	n/a	1	0	0.5869140625	0.422607421875	upper	../fonts/zerothre.ttf
2800.986	n/a	WORD	1400493	wordpools/wasnorm_wordpool.txt	LTP079	ltpFR	5	16	1	WAITRESS	1581	n/a	1	0	0.5869140625	0.422607421875	upper	../fonts/zerothre.ttf
2804.902	n/a	WORD	1402451	wordpools/wasnorm_wordpool.txt	LTP079	ltpFR	5	16	1	HOUSE	725	n/a	0	0	0.5869140625	0.422607421875	upper	../fonts/zerothre.ttf
2808.886	n/a	WORD	1404443	wordpools/wasnorm_wordpool.txt	LTP079	ltpFR	5	16	1	MOB	904	n/a	1	0	0.5869140625	0.422607421875	upper	../fonts/zerothre.ttf
2812.778	n/a	WORD	1406389	wordpools/wasnorm_wordpool.txt	LTP079	ltpFR	5	16	1	CABBAGE	210	n/a	1	0	0.5869140625	0.422607421875	upper	../fonts/zerothre.ttf
2816.812	n/a	WORD	1408406	wordpools/wasnorm_wordpool.txt	LTP079	ltpFR	5	16	1	REFRIGERATOR	1179	n/a	0	0	0.5869140625	0.422607421875	upper	../fonts/zerothre.ttf
2820.962	n/a	WORD	1410481	wordpools/wasnorm_wordpool.txt	LTP079	ltpFR	5	16	1	ARTERY	41	n/a	1	0	0.5869140625	0.422607421875	upper	../fonts/zerothre.ttf
2824.986	n/a	WORD	1412493	wordpools/wasnorm_wordpool.txt	LTP079	ltpFR	5	16	1	SPOOL	1356	n/a	0	0	0.5869140625	0.422607421875	upper	../fonts/zerothre.ttf
2829.128	n/a	WORD	1414564	wordpools/wasnorm_wordpool.txt	LTP079	ltpFR	5	16	1	WORLD	1622	n/a	0	0	0.5869140625	0.422607421875	upper	../fonts/zerothre.ttf
2835.086	n/a	REC_START	1417543	n/a	LTP079	ltpFR	5	16	n/a	n/a	n/a	n/a	n/a	n/a	n/a	n/a	n/a	n/a
2835.914	n/a	REC_WORD	1417957	wordpools/wasnorm_wordpool.txt	LTP079	ltpFR	5	16	1	WORLD	1622	n/a	0	n/a	n/a	n/a	n/a	n/a
2836.958	n/a	REC_WORD	1418479	wordpools/wasnorm_wordpool.txt	LTP079	ltpFR	5	16	1	SPOOL	1356	n/a	0	n/a	n/a	n/a	n/a	n/a
2838.518	n/a	REC_WORD	1419259	wordpools/wasnorm_wordpool.txt	LTP079	ltpFR	5	16	1	ARTERY	41	n/a	1	n/a	n/a	n/a	n/a	n/a
2839.73	n/a	REC_WORD	1419865	wordpools/wasnorm_wordpool.txt	LTP079	ltpFR	5	16	1	HOUSE	725	n/a	0	n/a	n/a	n/a	n/a	n/a
2840.928	n/a	REC_WORD	1420464	wordpools/wasnorm_wordpool.txt	LTP079	ltpFR	5	16	1	MOB	904	n/a	1	n/a	n/a	n/a	n/a	n/a
2842.24	n/a	REC_WORD	1421120	wordpools/wasnorm_wordpool.txt	LTP079	ltpFR	5	16	1	REFRIGERATOR	1179	n/a	0	n/a	n/a	n/a	n/a	n/a
2844.056	n/a	REC_WORD	1422028	wordpools/wasnorm_wordpool.txt	LTP079	ltpFR	5	16	1	GARLIC	624	n/a	0	n/a	n/a	n/a	n/a	n/a
2845.194	n/a	REC_WORD	1422597	wordpools/wasnorm_wordpool.txt	LTP079	ltpFR	5	16	1	ONION	977	n/a	0	n/a	n/a	n/a	n/a	n/a
2846.48	n/a	REC_WORD	1423240	wordpools/wasnorm_wordpool.txt	LTP079	ltpFR	5	16	1	GANG	619	n/a	1	n/a	n/a	n/a	n/a	n/a
2847.762	n/a	REC_WORD	1423881	wordpools/wasnorm_wordpool.txt	LTP079	ltpFR	5	16	1	MAID	856	n/a	1	n/a	n/a	n/a	n/a	n/a
2849.094	n/a	REC_WORD	1424547	wordpools/wasnorm_wordpool.txt	LTP079	ltpFR	5	16	1	UNDERWEAR	1537	n/a	0	n/a	n/a	n/a	n/a	n/a
2850.376	n/a	REC_WORD	1425188	wordpools/wasnorm_wordpool.txt	LTP079	ltpFR	5	16	1	TERRITORY	1452	n/a	0	n/a	n/a	n/a	n/a	n/a
2870.396	n/a	REC_WORD	1435198	wordpools/wasnorm_wordpool.txt	LTP079	ltpFR	5	16	1	SPOOL	1356	n/a	0	n/a	n/a	n/a	n/a	n/a
2928.826	n/a	REC_START	1464413	n/a	LTP079	ltpFR	5	1	n/a	n/a	n/a	n/a	n/a	n/a	n/a	n/a	n/a	n/a
2928.858	n/a	RECOG_TARGET	1464429	n/a	LTP079	ltpFR	5	1	0	TICKET	1464	5	0	n/a	n/a	n/a	n/a	n/a
2930.602	n/a	RECOG_RESP	1465301	n/a	LTP079	ltpFR	5	1	0	TICKET	1464	n/a	0	n/a	n/a	n/a	n/a	n/a
2932.282	n/a	RECOG_CONF	1466141	n/a	LTP079	ltpFR	5	1	0	TICKET	1464	5	0	n/a	n/a	n/a	n/a	n/a
2934.208	n/a	RECOG_TARGET	1467104	n/a	LTP079	ltpFR	5	1	-1	SODA	1341	5	-1	n/a	n/a	n/a	n/a	n/a
2934.896	n/a	RECOG_RESP	1467448	n/a	LTP079	ltpFR	5	1	-1	SODA	1341	n/a	-1	n/a	n/a	n/a	n/a	n/a
2936.104	n/a	RECOG_CONF	1468052	n/a	LTP079	ltpFR	5	1	-1	SODA	1341	5	-1	n/a	n/a	n/a	n/a	n/a
2937.974	n/a	RECOG_LURE	1468987	n/a	LTP079	ltpFR	5	1	n/a	MOP	916	4	n/a	n/a	n/a	n/a	n/a	n/a
2938.998	n/a	RECOG_RESP	1469499	n/a	LTP079	ltpFR	5	1	n/a	MOP	916	n/a	n/a	n/a	n/a	n/a	n/a	n/a
2940.356	n/a	RECOG_CONF	1470178	n/a	LTP079	ltpFR	5	1	n/a	MOP	916	4	n/a	n/a	n/a	n/a	n/a	n/a
2942.124	n/a	RECOG_TARGET	1471062	n/a	LTP079	ltpFR	5	1	1	PORCUPINE	1107	5	1	n/a	n/a	n/a	n/a	n/a
2942.77	n/a	RECOG_RESP	1471385	n/a	LTP079	ltpFR	5	1	1	PORCUPINE	1107	n/a	1	n/a	n/a	n/a	n/a	n/a
2944.056	n/a	RECOG_CONF	1472028	n/a	LTP079	ltpFR	5	1	1	PORCUPINE	1107	5	1	n/a	n/a	n/a	n/a	n/a
2945.774	n/a	RECOG_TARGET	1472887	n/a	LTP079	ltpFR	5	1	-1	SADDLE	1221	5	-1	n/a	n/a	n/a	n/a	n/a
2946.462	n/a	RECOG_RESP	1473231	n/a	LTP079	ltpFR	5	1	-1	SADDLE	1221	n/a	-1	n/a	n/a	n/a	n/a	n/a
2947.628	n/a	RECOG_CONF	1473814	n/a	LTP079	ltpFR	5	1	-1	SADDLE	1221	5	-1	n/a	n/a	n/a	n/a	n/a
2949.44	n/a	RECOG_TARGET	1474720	n/a	LTP079	ltpFR	5	1	0	HANDBAG	684	4	0	n/a	n/a	n/a	n/a	n/a
2950.652	n/a	RECOG_RESP	1475326	n/a	LTP079	ltpFR	5	1	0	HANDBAG	684	n/a	0	n/a	n/a	n/a	n/a	n/a
2951.71	n/a	RECOG_CONF	1475855	n/a	LTP079	ltpFR	5	1	0	HANDBAG	684	4	0	n/a	n/a	n/a	n/a	n/a
2953.616	n/a	RECOG_TARGET	1476808	n/a	LTP079	ltpFR	5	1	-1	CONSOLE	364	5	-1	n/a	n/a	n/a	n/a	n/a
2954.234	n/a	RECOG_RESP	1477117	n/a	LTP079	ltpFR	5	1	-1	CONSOLE	364	n/a	-1	n/a	n/a	n/a	n/a	n/a
2955.45	n/a	RECOG_CONF	1477725	n/a	LTP079	ltpFR	5	1	-1	CONSOLE	364	5	-1	n/a	n/a	n/a	n/a	n/a
2957.284	n/a	RECOG_LURE	1478642	n/a	LTP079	ltpFR	5	1	n/a	ANIMAL	23	4	n/a	n/a	n/a	n/a	n/a	n/a
2958.426	n/a	RECOG_RESP	1479213	n/a	LTP079	ltpFR	5	1	n/a	ANIMAL	23	n/a	n/a	n/a	n/a	n/a	n/a	n/a
2959.612	n/a	RECOG_CONF	1479806	n/a	LTP079	ltpFR	5	1	n/a	ANIMAL	23	4	n/a	n/a	n/a	n/a	n/a	n/a
2961.408	n/a	RECOG_TARGET	1480704	n/a	LTP079	ltpFR	5	1	0	ASH	44	5	0	n/a	n/a	n/a	n/a	n/a
2962.036	n/a	RECOG_RESP	1481018	n/a	LTP079	ltpFR	5	1	0	ASH	44	n/a	0	n/a	n/a	n/a	n/a	n/a
2963.304	n/a	RECOG_CONF	1481652	n/a	LTP079	ltpFR	5	1	0	ASH	44	5	0	n/a	n/a	n/a	n/a	n/a
2965.208	n/a	RECOG_TARGET	1482604	n/a	LTP079	ltpFR	5	1	-1	MOUNTAIN	924	4	-1	n/a	n/a	n/a	n/a	n/a
2965.918	n/a	RECOG_RESP	1482959	n/a	LTP079	ltpFR	5	1	-1	MOUNTAIN	924	n/a	-1	n/a	n/a	n/a	n/a	n/a
2967.254	n/a	RECOG_CONF	1483627	n/a	LTP079	ltpFR	5	1	-1	MOUNTAIN	924	4	-1	n/a	n/a	n/a	n/a	n/a
2969.106	n/a	RECOG_LURE	1484553	n/a	LTP079	ltpFR	5	1	n/a	PIZZA	1079	4	n/a	n/a	n/a	n/a	n/a	n/a
2969.888	n/a	RECOG_RESP	1484944	n/a	LTP079	ltpFR	5	1	n/a	PIZZA	1079	n/a	n/a	n/a	n/a	n/a	n/a	n/a
2971.256	n/a	RECOG_CONF	1485628	n/a	LTP079	ltpFR	5	1	n/a	PIZZA	1079	4	n/a	n/a	n/a	n/a	n/a	n/a
2973.032	n/a	RECOG_LURE	1486516	n/a	LTP079	ltpFR	5	1	n/a	CANDY	230	4	n/a	n/a	n/a	n/a	n/a	n/a
2973.87	n/a	RECOG_RESP	1486935	n/a	LTP079	ltpFR	5	1	n/a	CANDY	230	n/a	n/a	n/a	n/a	n/a	n/a	n/a
2975.148	n/a	RECOG_CONF	1487574	n/a	LTP079	ltpFR	5	1	n/a	CANDY	230	4	n/a	n/a	n/a	n/a	n/a	n/a
2976.966	n/a	RECOG_TARGET	1488483	n/a	LTP079	ltpFR	5	1	-1	LIMOUSINE	824	4	-1	n/a	n/a	n/a	n/a	n/a
2978.74	n/a	RECOG_RESP	1489370	n/a	LTP079	ltpFR	5	1	-1	LIMOUSINE	824	n/a	-1	n/a	n/a	n/a	n/a	n/a
2980.036	n/a	RECOG_CONF	1490018	n/a	LTP079	ltpFR	5	1	-1	LIMOUSINE	824	4	-1	n/a	n/a	n/a	n/a	n/a
2981.856	n/a	RECOG_TARGET	1490928	n/a	LTP079	ltpFR	5	1	0	TUBA	1515	5	1	n/a	n/a	n/a	n/a	n/a
2982.622	n/a	RECOG_RESP	1491311	n/a	LTP079	ltpFR	5	1	0	TUBA	1515	n/a	1	n/a	n/a	n/a	n/a	n/a
2983.978	n/a	RECOG_CONF	1491989	n/a	LTP079	ltpFR	5	1	0	TUBA	1515	5	1	n/a	n/a	n/a	n/a	n/a
2985.824	n/a	RECOG_TARGET	1492912	n/a	LTP079	ltpFR	5	1	-1	BAND	78	5	-1	n/a	n/a	n/a	n/a	n/a
2986.568	n/a	RECOG_RESP	1493284	n/a	LTP079	ltpFR	5	1	-1	BAND	78	n/a	-1	n/a	n/a	n/a	n/a	n/a
2987.87	n/a	RECOG_CONF	1493935	n/a	LTP079	ltpFR	5	1	-1	BAND	78	5	-1	n/a	n/a	n/a	n/a	n/a
2989.732	n/a	RECOG_TARGET	1494866	n/a	LTP079	ltpFR	5	1	0	BIBLE	124	5	0	n/a	n/a	n/a	n/a	n/a
2990.792	n/a	RECOG_RESP	1495396	n/a	LTP079	ltpFR	5	1	0	BIBLE	124	n/a	0	n/a	n/a	n/a	n/a	n/a
2992.14	n/a	RECOG_CONF	1496070	n/a	LTP079	ltpFR	5	1	0	BIBLE	124	5	0	n/a	n/a	n/a	n/a	n/a
2993.922	n/a	RECOG_TARGET	1496961	n/a	LTP079	ltpFR	5	1	1	DUSTPAN	509	5	0	n/a	n/a	n/a	n/a	n/a
2994.854	n/a	RECOG_RESP	1497427	n/a	LTP079	ltpFR	5	1	1	DUSTPAN	509	n/a	0	n/a	n/a	n/a	n/a	n/a
2996.09	n/a	RECOG_CONF	1498045	n/a	LTP079	ltpFR	5	1	1	DUSTPAN	509	5	0	n/a	n/a	n/a	n/a	n/a
2997.882	n/a	RECOG_TARGET	1498941	n/a	LTP079	ltpFR	5	1	-1	VIDEO	1564	5	-1	n/a	n/a	n/a	n/a	n/a
2998.626	n/a	RECOG_RESP	1499313	n/a	LTP079	ltpFR	5	1	-1	VIDEO	1564	n/a	-1	n/a	n/a	n/a	n/a	n/a
2999.942	n/a	RECOG_CONF	1499971	n/a	LTP079	ltpFR	5	1	-1	VIDEO	1564	5	-1	n/a	n/a	n/a	n/a	n/a
3001.64	n/a	RECOG_TARGET	1500820	n/a	LTP079	ltpFR	5	1	1	ROSE	1212	5	1	n/a	n/a	n/a	n/a	n/a
3002.466	n/a	RECOG_RESP	1501233	n/a	LTP079	ltpFR	5	1	1	ROSE	1212	n/a	1	n/a	n/a	n/a	n/a	n/a
3003.674	n/a	RECOG_CONF	1501837	n/a	LTP079	ltpFR	5	1	1	ROSE	1212	5	1	n/a	n/a	n/a	n/a	n/a
3005.372	n/a	RECOG_LURE	1502686	n/a	LTP079	ltpFR	5	1	n/a	DIARY	460	4	n/a	n/a	n/a	n/a	n/a	n/a
3006.238	n/a	RECOG_RESP	1503119	n/a	LTP079	ltpFR	5	1	n/a	DIARY	460	n/a	n/a	n/a	n/a	n/a	n/a	n/a
3007.366	n/a	RECOG_CONF	1503683	n/a	LTP079	ltpFR	5	1	n/a	DIARY	460	4	n/a	n/a	n/a	n/a	n/a	n/a
3015.008	n/a	REC_START	1507504	n/a	LTP079	ltpFR	5	2	n/a	n/a	n/a	n/a	n/a	n/a	n/a	n/a	n/a	n/a
3015.048	n/a	RECOG_TARGET	1507524	n/a	LTP079	ltpFR	5	2	-1	SAXOPHONE	1240	5	-1	n/a	n/a	n/a	n/a	n/a
3015.852	n/a	RECOG_RESP	1507926	n/a	LTP079	ltpFR	5	2	-1	SAXOPHONE	1240	n/a	-1	n/a	n/a	n/a	n/a	n/a
3017.13	n/a	RECOG_CONF	1508565	n/a	LTP079	ltpFR	5	2	-1	SAXOPHONE	1240	5	-1	n/a	n/a	n/a	n/a	n/a
3018.948	n/a	RECOG_TARGET	1509474	n/a	LTP079	ltpFR	5	2	0	SAUSAGE	1238	5	0	n/a	n/a	n/a	n/a	n/a
3020.252	n/a	RECOG_RESP	1510126	n/a	LTP079	ltpFR	5	2	0	SAUSAGE	1238	n/a	0	n/a	n/a	n/a	n/a	n/a
3021.58	n/a	RECOG_CONF	1510790	n/a	LTP079	ltpFR	5	2	0	SAUSAGE	1238	5	0	n/a	n/a	n/a	n/a	n/a
3023.256	n/a	RECOG_LURE	1511628	n/a	LTP079	ltpFR	5	2	n/a	NEWSSTAND	949	4	n/a	n/a	n/a	n/a	n/a	n/a
3024.074	n/a	RECOG_RESP	1512037	n/a	LTP079	ltpFR	5	2	n/a	NEWSSTAND	949	n/a	n/a	n/a	n/a	n/a	n/a	n/a
3025.192	n/a	RECOG_CONF	1512596	n/a	LTP079	ltpFR	5	2	n/a	NEWSSTAND	949	4	n/a	n/a	n/a	n/a	n/a	n/a
3027.08	n/a	RECOG_LURE	1513540	n/a	LTP079	ltpFR	5	2	n/a	ABDOMEN	1	4	n/a	n/a	n/a	n/a	n/a	n/a
3027.826	n/a	RECOG_RESP	1513913	n/a	LTP079	ltpFR	5	2	n/a	ABDOMEN	1	n/a	n/a	n/a	n/a	n/a	n/a	n/a
3029.052	n/a	RECOG_CONF	1514526	n/a	LTP079	ltpFR	5	2	n/a	ABDOMEN	1	4	n/a	n/a	n/a	n/a	n/a	n/a
3030.83	n/a	RECOG_LURE	1515415	n/a	LTP079	ltpFR	5	2	n/a	ESCALATOR	539	5	n/a	n/a	n/a	n/a	n/a	n/a
3031.736	n/a	RECOG_RESP	1515868	n/a	LTP079	ltpFR	5	2	n/a	ESCALATOR	539	n/a	n/a	n/a	n/a	n/a	n/a	n/a
3032.904	n/a	RECOG_CONF	1516452	n/a	LTP079	ltpFR	5	2	n/a	ESCALATOR	539	5	n/a	n/a	n/a	n/a	n/a	n/a
3034.614	n/a	RECOG_LURE	1517307	n/a	LTP079	ltpFR	5	2	n/a	LAUNDRY	803	4	n/a	n/a	n/a	n/a	n/a	n/a
3035.886	n/a	RECOG_RESP	1517943	n/a	LTP079	ltpFR	5	2	n/a	LAUNDRY	803	n/a	n/a	n/a	n/a	n/a	n/a	n/a
3037.194	n/a	RECOG_CONF	1518597	n/a	LTP079	ltpFR	5	2	n/a	LAUNDRY	803	4	n/a	n/a	n/a	n/a	n/a	n/a
3038.972	n/a	RECOG_TARGET	1519486	n/a	LTP079	ltpFR	5	2	0	PLANT	1083	5	0	n/a	n/a	n/a	n/a	n/a
3039.828	n/a	RECOG_RESP	1519914	n/a	LTP079	ltpFR	5	2	0	PLANT	1083	n/a	0	n/a	n/a	n/a	n/a	n/a
3041.086	n/a	RECOG_CONF	1520543	n/a	LTP079	ltpFR	5	2	0	PLANT	1083	5	0	n/a	n/a	n/a	n/a	n/a
3042.756	n/a	RECOG_TARGET	1521378	n/a	LTP079	ltpFR	5	2	1	CANNON	232	5	0	n/a	n/a	n/a	n/a	n/a
3043.45	n/a	RECOG_RESP	1521725	n/a	LTP079	ltpFR	5	2	1	CANNON	232	n/a	0	n/a	n/a	n/a	n/a	n/a
3044.728	n/a	RECOG_CONF	1522364	n/a	LTP079	ltpFR	5	2	1	CANNON	232	5	0	n/a	n/a	n/a	n/a	n/a
3046.538	n/a	RECOG_TARGET	1523269	n/a	LTP079	ltpFR	5	2	1	DOVE	491	5	1	n/a	n/a	n/a	n/a	n/a
3047.142	n/a	RECOG_RESP	1523571	n/a	LTP079	ltpFR	5	2	1	DOVE	491	n/a	1	n/a	n/a	n/a	n/a	n/a
3048.4	n/a	RECOG_CONF	1524200	n/a	LTP079	ltpFR	5	2	1	DOVE	491	5	1	n/a	n/a	n/a	n/a	n/a
3050.088	n/a	RECOG_LURE	1525044	n/a	LTP079	ltpFR	5	2	n/a	HINGE	709	4	n/a	n/a	n/a	n/a	n/a	n/a
3050.744	n/a	RECOG_RESP	1525372	n/a	LTP079	ltpFR	5	2	n/a	HINGE	709	n/a	n/a	n/a	n/a	n/a	n/a	n/a
3051.862	n/a	RECOG_CONF	1525931	n/a	LTP079	ltpFR	5	2	n/a	HINGE	709	4	n/a	n/a	n/a	n/a	n/a	n/a
3053.58	n/a	RECOG_LURE	1526790	n/a	LTP079	ltpFR	5	2	n/a	LEVER	815	4	n/a	n/a	n/a	n/a	n/a	n/a
3054.496	n/a	RECOG_RESP	1527248	n/a	LTP079	ltpFR	5	2	n/a	LEVER	815	n/a	n/a	n/a	n/a	n/a	n/a	n/a
3055.652	n/a	RECOG_CONF	1527826	n/a	LTP079	ltpFR	5	2	n/a	LEVER	815	4	n/a	n/a	n/a	n/a	n/a	n/a
3057.364	n/a	RECOG_TARGET	1528682	n/a	LTP079	ltpFR	5	2	-1	TELEVISION	1447	5	-1	n/a	n/a	n/a	n/a	n/a
3058.008	n/a	RECOG_RESP	1529004	n/a	LTP079	ltpFR	5	2	-1	TELEVISION	1447	n/a	-1	n/a	n/a	n/a	n/a	n/a
3059.216	n/a	RECOG_CONF	1529608	n/a	LTP079	ltpFR	5	2	-1	TELEVISION	1447	5	-1	n/a	n/a	n/a	n/a	n/a
3060.954	n/a	RECOG_TARGET	1530477	n/a	LTP079	ltpFR	5	2	1	DWARF	510	5	1	n/a	n/a	n/a	n/a	n/a
3061.596	n/a	RECOG_RESP	1530798	n/a	LTP079	ltpFR	5	2	1	DWARF	510	n/a	1	n/a	n/a	n/a	n/a	n/a
3062.808	n/a	RECOG_CONF	1531404	n/a	LTP079	ltpFR	5	2	1	DWARF	510	5	1	n/a	n/a	n/a	n/a	n/a
3064.622	n/a	RECOG_TARGET	1532311	n/a	LTP079	ltpFR	5	2	0	INTESTINE	742	5	0	n/a	n/a	n/a	n/a	n/a
3065.352	n/a	RECOG_RESP	1532676	n/a	LTP079	ltpFR	5	2	0	INTESTINE	742	n/a	0	n/a	n/a	n/a	n/a	n/a
3066.49	n/a	RECOG_CONF	1533245	n/a	LTP079	ltpFR	5	2	0	INTESTINE	742	5	0	n/a	n/a	n/a	n/a	n/a
3068.348	n/a	RECOG_LURE	1534174	n/a	LTP079	ltpFR	5	2	n/a	MARSH	874	4	n/a	n/a	n/a	n/a	n/a	n/a
3068.988	n/a	RECOG_RESP	1534494	n/a	LTP079	ltpFR	5	2	n/a	MARSH	874	n/a	n/a	n/a	n/a	n/a	n/a	n/a
3070.062	n/a	RECOG_CONF	1535031	n/a	LTP079	ltpFR	5	2	n/a	MARSH	874	4	n/a	n/a	n/a	n/a	n/a	n/a
3071.762	n/a	RECOG_TARGET	1535881	n/a	LTP079	ltpFR	5	2	1	DOUGH	489	5	0	n/a	n/a	n/a	n/a	n/a
3072.356	n/a	RECOG_RESP	1536178	n/a	LTP079	ltpFR	5	2	1	DOUGH	489	n/a	0	n/a	n/a	n/a	n/a	n/a
3073.494	n/a	RECOG_CONF	1536747	n/a	LTP079	ltpFR	5	2	1	DOUGH	489	5	0	n/a	n/a	n/a	n/a	n/a
3075.138	n/a	RECOG_TARGET	1537569	n/a	LTP079	ltpFR	5	2	-1	SLIDE	1326	5	-1	n/a	n/a	n/a	n/a	n/a
3075.738	n/a	RECOG_RESP	1537869	n/a	LTP079	ltpFR	5	2	-1	SLIDE	1326	n/a	-1	n/a	n/a	n/a	n/a	n/a
3076.876	n/a	RECOG_CONF	1538438	n/a	LTP079	ltpFR	5	2	-1	SLIDE	1326	5	-1	n/a	n/a	n/a	n/a	n/a
3078.654	n/a	RECOG_TARGET	1539327	n/a	LTP079	ltpFR	5	2	0	PARCEL	1012	5	0	n/a	n/a	n/a	n/a	n/a
3079.42	n/a	RECOG_RESP	1539710	n/a	LTP079	ltpFR	5	2	0	PARCEL	1012	n/a	0	n/a	n/a	n/a	n/a	n/a
3080.538	n/a	RECOG_CONF	1540269	n/a	LTP079	ltpFR	5	2	0	PARCEL	1012	5	0	n/a	n/a	n/a	n/a	n/a
3082.314	n/a	RECOG_LURE	1541157	n/a	LTP079	ltpFR	5	2	n/a	PIANO	1057	5	n/a	n/a	n/a	n/a	n/a	n/a
3083.002	n/a	RECOG_RESP	1541501	n/a	LTP079	ltpFR	5	2	n/a	PIANO	1057	n/a	n/a	n/a	n/a	n/a	n/a	n/a
3084.11	n/a	RECOG_CONF	1542055	n/a	LTP079	ltpFR	5	2	n/a	PIANO	1057	5	n/a	n/a	n/a	n/a	n/a	n/a
3085.788	n/a	RECOG_TARGET	1542894	n/a	LTP079	ltpFR	5	2	1	MONSTER	912	5	1	n/a	n/a	n/a	n/a	n/a
3086.386	n/a	RECOG_RESP	1543193	n/a	LTP079	ltpFR	5	2	1	MONSTER	912	n/a	1	n/a	n/a	n/a	n/a	n/a
3087.512	n/a	RECOG_CONF	1543756	n/a	LTP079	ltpFR	5	2	1	MONSTER	912	5	1	n/a	n/a	n/a	n/a	n/a
3092.252	n/a	REC_START	1546126	n/a	LTP079	ltpFR	5	3	n/a	n/a	n/a	n/a	n/a	n/a	n/a	n/a	n/a	n/a
3092.288	n/a	RECOG_TARGET	1546144	n/a	LTP079	ltpFR	5	3	-1	CINNAMON	310	5	-1	n/a	n/a	n/a	n/a	n/a
3093.15	n/a	RECOG_RESP	1546575	n/a	LTP079	ltpFR	5	3	-1	CINNAMON	310	n/a	-1	n/a	n/a	n/a	n/a	n/a
3094.312	n/a	RECOG_CONF	1547156	n/a	LTP079	ltpFR	5	3	-1	CINNAMON	310	5	-1	n/a	n/a	n/a	n/a	n/a
3096.128	n/a	RECOG_TARGET	1548064	n/a	LTP079	ltpFR	5	3	-1	SURF	1412	5	-1	n/a	n/a	n/a	n/a	n/a
3096.838	n/a	RECOG_RESP	1548419	n/a	LTP079	ltpFR	5	3	-1	SURF	1412	n/a	-1	n/a	n/a	n/a	n/a	n/a
3098.026	n/a	RECOG_CONF	1549013	n/a	LTP079	ltpFR	5	3	-1	SURF	1412	5	-1	n/a	n/a	n/a	n/a	n/a
3099.838	n/a	RECOG_TARGET	1549919	n/a	LTP079	ltpFR	5	3	0	RAILROAD	1162	5	1	n/a	n/a	n/a	n/a	n/a
3100.74	n/a	RECOG_RESP	1550370	n/a	LTP079	ltpFR	5	3	0	RAILROAD	1162	n/a	1	n/a	n/a	n/a	n/a	n/a
3101.876	n/a	RECOG_CONF	1550938	n/a	LTP079	ltpFR	5	3	0	RAILROAD	1162	5	1	n/a	n/a	n/a	n/a	n/a
3103.628	n/a	RECOG_LURE	1551814	n/a	LTP079	ltpFR	5	3	n/a	YARN	1631	5	n/a	n/a	n/a	n/a	n/a	n/a
3104.65	n/a	RECOG_RESP	1552325	n/a	LTP079	ltpFR	5	3	n/a	YARN	1631	n/a	n/a	n/a	n/a	n/a	n/a	n/a
3105.988	n/a	RECOG_CONF	1552994	n/a	LTP079	ltpFR	5	3	n/a	YARN	1631	5	n/a	n/a	n/a	n/a	n/a	n/a
3107.686	n/a	RECOG_LURE	1553843	n/a	LTP079	ltpFR	5	3	n/a	CATERPILLAR	259	5	n/a	n/a	n/a	n/a	n/a	n/a
3108.412	n/a	RECOG_RESP	1554206	n/a	LTP079	ltpFR	5	3	n/a	CATERPILLAR	259	n/a	n/a	n/a	n/a	n/a	n/a	n/a
3109.558	n/a	RECOG_CONF	1554779	n/a	LTP079	ltpFR	5	3	n/a	CATERPILLAR	259	5	n/a	n/a	n/a	n/a	n/a	n/a
3111.238	n/a	RECOG_TARGET	1555619	n/a	LTP079	ltpFR	5	3	1	HURRICANE	727	5	0	n/a	n/a	n/a	n/a	n/a
3111.918	n/a	RECOG_RESP	1555959	n/a	LTP079	ltpFR	5	3	1	HURRICANE	727	n/a	0	n/a	n/a	n/a	n/a	n/a
3113.2	n/a	RECOG_CONF	1556600	n/a	LTP079	ltpFR	5	3	1	HURRICANE	727	5	0	n/a	n/a	n/a	n/a	n/a
3114.902	n/a	RECOG_LURE	1557451	n/a	LTP079	ltpFR	5	3	n/a	CORN	381	4	n/a	n/a	n/a	n/a	n/a	n/a
3116.264	n/a	RECOG_RESP	1558132	n/a	LTP079	ltpFR	5	3	n/a	CORN	381	n/a	n/a	n/a	n/a	n/a	n/a	n/a
3117.422	n/a	RECOG_CONF	1558711	n/a	LTP079	ltpFR	5	3	n/a	CORN	381	4	n/a	n/a	n/a	n/a	n/a	n/a
3119.162	n/a	RECOG_LURE	1559581	n/a	LTP079	ltpFR	5	3	n/a	CAMERA	224	4	n/a	n/a	n/a	n/a	n/a	n/a
3120.11	n/a	RECOG_RESP	1560055	n/a	LTP079	ltpFR	5	3	n/a	CAMERA	224	n/a	n/a	n/a	n/a	n/a	n/a	n/a
3121.234	n/a	RECOG_CONF	1560617	n/a	LTP079	ltpFR	5	3	n/a	CAMERA	224	4	n/a	n/a	n/a	n/a	n/a	n/a
3122.994	n/a	RECOG_TARGET	1561497	n/a	LTP079	ltpFR	5	3	1	RECIPE	1175	5	0	n/a	n/a	n/a	n/a	n/a
3124.176	n/a	RECOG_RESP	1562088	n/a	LTP079	ltpFR	5	3	1	RECIPE	1175	n/a	0	n/a	n/a	n/a	n/a	n/a
3125.404	n/a	RECOG_CONF	1562702	n/a	LTP079	ltpFR	5	3	1	RECIPE	1175	5	0	n/a	n/a	n/a	n/a	n/a
3127.062	n/a	RECOG_TARGET	1563531	n/a	LTP079	ltpFR	5	3	0	SIGNATURE	1306	5	0	n/a	n/a	n/a	n/a	n/a
3127.788	n/a	RECOG_RESP	1563894	n/a	LTP079	ltpFR	5	3	0	SIGNATURE	1306	n/a	0	n/a	n/a	n/a	n/a	n/a
3129.166	n/a	RECOG_CONF	1564583	n/a	LTP079	ltpFR	5	3	0	SIGNATURE	1306	5	0	n/a	n/a	n/a	n/a	n/a
3130.994	n/a	RECOG_TARGET	1565497	n/a	LTP079	ltpFR	5	3	0	CROCODILE	411	5	1	n/a	n/a	n/a	n/a	n/a
3131.674	n/a	RECOG_RESP	1565837	n/a	LTP079	ltpFR	5	3	0	CROCODILE	411	n/a	1	n/a	n/a	n/a	n/a	n/a
3132.808	n/a	RECOG_CONF	1566404	n/a	LTP079	ltpFR	5	3	0	CROCODILE	411	5	1	n/a	n/a	n/a	n/a	n/a
3134.578	n/a	RECOG_TARGET	1567289	n/a	LTP079	ltpFR	5	3	0	HEEL	700	5	0	n/a	n/a	n/a	n/a	n/a
3135.77	n/a	RECOG_RESP	1567885	n/a	LTP079	ltpFR	5	3	0	HEEL	700	n/a	0	n/a	n/a	n/a	n/a	n/a
3137.028	n/a	RECOG_CONF	1568514	n/a	LTP079	ltpFR	5	3	0	HEEL	700	5	0	n/a	n/a	n/a	n/a	n/a
3138.77	n/a	RECOG_TARGET	1569385	n/a	LTP079	ltpFR	5	3	1	ZUCCHINI	1638	4	0	n/a	n/a	n/a	n/a	n/a
3139.668	n/a	RECOG_RESP	1569834	n/a	LTP079	ltpFR	5	3	1	ZUCCHINI	1638	n/a	0	n/a	n/a	n/a	n/a	n/a
3140.97	n/a	RECOG_CONF	1570485	n/a	LTP079	ltpFR	5	3	1	ZUCCHINI	1638	4	0	n/a	n/a	n/a	n/a	n/a
3142.712	n/a	RECOG_TARGET	1571356	n/a	LTP079	ltpFR	5	3	1	FRIEND	606	4	1	n/a	n/a	n/a	n/a	n/a
3144.082	n/a	RECOG_RESP	1572041	n/a	LTP079	ltpFR	5	3	1	FRIEND	606	n/a	1	n/a	n/a	n/a	n/a	n/a
3145.27	n/a	RECOG_CONF	1572635	n/a	LTP079	ltpFR	5	3	1	FRIEND	606	4	1	n/a	n/a	n/a	n/a	n/a
3147.07	n/a	RECOG_TARGET	1573535	n/a	LTP079	ltpFR	5	3	0	LAKE	796	5	1	n/a	n/a	n/a	n/a	n/a
3147.724	n/a	RECOG_RESP	1573862	n/a	LTP079	ltpFR	5	3	0	LAKE	796	n/a	1	n/a	n/a	n/a	n/a	n/a
3148.962	n/a	RECOG_CONF	1574481	n/a	LTP079	ltpFR	5	3	0	LAKE	796	5	1	n/a	n/a	n/a	n/a	n/a
3150.686	n/a	RECOG_LURE	1575343	n/a	LTP079	ltpFR	5	3	n/a	FRANCE	601	5	n/a	n/a	n/a	n/a	n/a	n/a
3151.436	n/a	RECOG_RESP	1575718	n/a	LTP079	ltpFR	5	3	n/a	FRANCE	601	n/a	n/a	n/a	n/a	n/a	n/a	n/a
3152.554	n/a	RECOG_CONF	1576277	n/a	LTP079	ltpFR	5	3	n/a	FRANCE	601	5	n/a	n/a	n/a	n/a	n/a	n/a
3154.194	n/a	RECOG_TARGET	1577097	n/a	LTP079	ltpFR	5	3	0	PEDESTRIAN	1038	5	0	n/a	n/a	n/a	n/a	n/a
3154.938	n/a	RECOG_RESP	1577469	n/a	LTP079	ltpFR	5	3	0	PEDESTRIAN	1038	n/a	0	n/a	n/a	n/a	n/a	n/a
3156.284	n/a	RECOG_CONF	1578142	n/a	LTP079	ltpFR	5	3	0	PEDESTRIAN	1038	5	0	n/a	n/a	n/a	n/a	n/a
3157.96	n/a	RECOG_TARGET	1578980	n/a	LTP079	ltpFR	5	3	1	DILL	465	5	0	n/a	n/a	n/a	n/a	n/a
3158.72	n/a	RECOG_RESP	1579360	n/a	LTP079	ltpFR	5	3	1	DILL	465	n/a	0	n/a	n/a	n/a	n/a	n/a
3159.888	n/a	RECOG_CONF	1579944	n/a	LTP079	ltpFR	5	3	1	DILL	465	5	0	n/a	n/a	n/a	n/a	n/a
3161.51	n/a	RECOG_TARGET	1580755	n/a	LTP079	ltpFR	5	3	-1	HOSTAGE	722	5	-1	n/a	n/a	n/a	n/a	n/a
3162.492	n/a	RECOG_RESP	1581246	n/a	LTP079	ltpFR	5	3	-1	HOSTAGE	722	n/a	-1	n/a	n/a	n/a	n/a	n/a
3163.678	n/a	RECOG_CONF	1581839	n/a	LTP079	ltpFR	5	3	-1	HOSTAGE	722	5	-1	n/a	n/a	n/a	n/a	n/a
3165.528	n/a	RECOG_TARGET	1582764	n/a	LTP079	ltpFR	5	3	1	ONION	977	3	0	n/a	n/a	n/a	n/a	n/a
3168.068	n/a	RECOG_RESP	1584034	n/a	LTP079	ltpFR	5	3	1	ONION	977	n/a	0	n/a	n/a	n/a	n/a	n/a
3169.276	n/a	RECOG_CONF	1584638	n/a	LTP079	ltpFR	5	3	1	ONION	977	3	0	n/a	n/a	n/a	n/a	n/a
3173.764	n/a	REC_START	1586882	n/a	LTP079	ltpFR	5	4	n/a	n/a	n/a	n/a	n/a	n/a	n/a	n/a	n/a	n/a
3173.802	n/a	RECOG_TARGET	1586901	n/a	LTP079	ltpFR	5	4	-1	FACTORY	548	5	-1	n/a	n/a	n/a	n/a	n/a
3174.648	n/a	RECOG_RESP	1587324	n/a	LTP079	ltpFR	5	4	-1	FACTORY	548	n/a	-1	n/a	n/a	n/a	n/a	n/a
3175.944	n/a	RECOG_CONF	1587972	n/a	LTP079	ltpFR	5	4	-1	FACTORY	548	5	-1	n/a	n/a	n/a	n/a	n/a
3177.652	n/a	RECOG_LURE	1588826	n/a	LTP079	ltpFR	5	4	n/a	CHEF	290	4	n/a	n/a	n/a	n/a	n/a	n/a
3178.45	n/a	RECOG_RESP	1589225	n/a	LTP079	ltpFR	5	4	n/a	CHEF	290	n/a	n/a	n/a	n/a	n/a	n/a	n/a
3179.548	n/a	RECOG_CONF	1589774	n/a	LTP079	ltpFR	5	4	n/a	CHEF	290	4	n/a	n/a	n/a	n/a	n/a	n/a
3181.294	n/a	RECOG_TARGET	1590647	n/a	LTP079	ltpFR	5	4	0	BRIEFCASE	175	5	1	n/a	n/a	n/a	n/a	n/a
3182.142	n/a	RECOG_RESP	1591071	n/a	LTP079	ltpFR	5	4	0	BRIEFCASE	175	n/a	1	n/a	n/a	n/a	n/a	n/a
3183.368	n/a	RECOG_CONF	1591684	n/a	LTP079	ltpFR	5	4	0	BRIEFCASE	175	5	1	n/a	n/a	n/a	n/a	n/a
3185.018	n/a	RECOG_TARGET	1592509	n/a	LTP079	ltpFR	5	4	1	SHOULDER	1294	5	0	n/a	n/a	n/a	n/a	n/a
3185.654	n/a	RECOG_RESP	1592827	n/a	LTP079	ltpFR	5	4	1	SHOULDER	1294	n/a	0	n/a	n/a	n/a	n/a	n/a
3186.78	n/a	RECOG_CONF	1593390	n/a	LTP079	ltpFR	5	4	1	SHOULDER	1294	5	0	n/a	n/a	n/a	n/a	n/a
3188.476	n/a	RECOG_TARGET	1594238	n/a	LTP079	ltpFR	5	4	-1	MONASTERY	907	5	-1	n/a	n/a	n/a	n/a	n/a
3189.894	n/a	RECOG_RESP	1594947	n/a	LTP079	ltpFR	5	4	-1	MONASTERY	907	n/a	-1	n/a	n/a	n/a	n/a	n/a
3191.16	n/a	RECOG_CONF	1595580	n/a	LTP079	ltpFR	5	4	-1	MONASTERY	907	5	-1	n/a	n/a	n/a	n/a	n/a
3192.802	n/a	RECOG_TARGET	1596401	n/a	LTP079	ltpFR	5	4	0	DRAWING	494	5	0	n/a	n/a	n/a	n/a	n/a
3193.646	n/a	RECOG_RESP	1596823	n/a	LTP079	ltpFR	5	4	0	DRAWING	494	n/a	0	n/a	n/a	n/a	n/a	n/a
3194.852	n/a	RECOG_CONF	1597426	n/a	LTP079	ltpFR	5	4	0	DRAWING	494	5	0	n/a	n/a	n/a	n/a	n/a
3196.634	n/a	RECOG_TARGET	1598317	n/a	LTP079	ltpFR	5	4	1	FOUNTAIN	597	5	0	n/a	n/a	n/a	n/a	n/a
3197.288	n/a	RECOG_RESP	1598644	n/a	LTP079	ltpFR	5	4	1	FOUNTAIN	597	n/a	0	n/a	n/a	n/a	n/a	n/a
3198.564	n/a	RECOG_CONF	1599282	n/a	LTP079	ltpFR	5	4	1	FOUNTAIN	597	5	0	n/a	n/a	n/a	n/a	n/a
3200.278	n/a	RECOG_LURE	1600139	n/a	LTP079	ltpFR	5	4	n/a	ROBIN	1199	4	n/a	n/a	n/a	n/a	n/a	n/a
3201.208	n/a	RECOG_RESP	1600604	n/a	LTP079	ltpFR	5	4	n/a	ROBIN	1199	n/a	n/a	n/a	n/a	n/a	n/a	n/a
3202.266	n/a	RECOG_CONF	1601133	n/a	LTP079	ltpFR	5	4	n/a	ROBIN	1199	4	n/a	n/a	n/a	n/a	n/a	n/a
3204.034	n/a	RECOG_TARGET	1602017	n/a	LTP079	ltpFR	5	4	1	FLIPPER	580	5	0	n/a	n/a	n/a	n/a	n/a
3204.642	n/a	RECOG_RESP	1602321	n/a	LTP079	ltpFR	5	4	1	FLIPPER	580	n/a	0	n/a	n/a	n/a	n/a	n/a
3205.798	n/a	RECOG_CONF	1602899	n/a	LTP079	ltpFR	5	4	1	FLIPPER	580	5	0	n/a	n/a	n/a	n/a	n/a
3207.526	n/a	RECOG_TARGET	1603763	n/a	LTP079	ltpFR	5	4	-1	NET	946	3	-1	n/a	n/a	n/a	n/a	n/a
3208.322	n/a	RECOG_RESP	1604161	n/a	LTP079	ltpFR	5	4	-1	NET	946	n/a	-1	n/a	n/a	n/a	n/a	n/a
3209.75	n/a	RECOG_CONF	1604875	n/a	LTP079	ltpFR	5	4	-1	NET	946	3	-1	n/a	n/a	n/a	n/a	n/a
3211.326	n/a	RECOG_TARGET	1605663	n/a	LTP079	ltpFR	5	4	0	CELLO	268	5	0	n/a	n/a	n/a	n/a	n/a
3212.134	n/a	RECOG_RESP	1606067	n/a	LTP079	ltpFR	5	4	0	CELLO	268	n/a	0	n/a	n/a	n/a	n/a	n/a
3213.392	n/a	RECOG_CONF	1606696	n/a	LTP079	ltpFR	5	4	0	CELLO	268	5	0	n/a	n/a	n/a	n/a	n/a
3215.15	n/a	RECOG_TARGET	1607575	n/a	LTP079	ltpFR	5	4	1	HAMPER	682	5	0	n/a	n/a	n/a	n/a	n/a
3215.766	n/a	RECOG_RESP	1607883	n/a	LTP079	ltpFR	5	4	1	HAMPER	682	n/a	0	n/a	n/a	n/a	n/a	n/a
3216.954	n/a	RECOG_CONF	1608477	n/a	LTP079	ltpFR	5	4	1	HAMPER	682	5	0	n/a	n/a	n/a	n/a	n/a
3218.742	n/a	RECOG_TARGET	1609371	n/a	LTP079	ltpFR	5	4	1	GLUE	643	5	0	n/a	n/a	n/a	n/a	n/a
3219.408	n/a	RECOG_RESP	1609704	n/a	LTP079	ltpFR	5	4	1	GLUE	643	n/a	0	n/a	n/a	n/a	n/a	n/a
3220.516	n/a	RECOG_CONF	1610258	n/a	LTP079	ltpFR	5	4	1	GLUE	643	5	0	n/a	n/a	n/a	n/a	n/a
3222.41	n/a	RECOG_TARGET	1611205	n/a	LTP079	ltpFR	5	4	-1	WINE	1613	5	-1	n/a	n/a	n/a	n/a	n/a
3223.036	n/a	RECOG_RESP	1611518	n/a	LTP079	ltpFR	5	4	-1	WINE	1613	n/a	-1	n/a	n/a	n/a	n/a	n/a
3224.228	n/a	RECOG_CONF	1612114	n/a	LTP079	ltpFR	5	4	-1	WINE	1613	5	-1	n/a	n/a	n/a	n/a	n/a
3225.926	n/a	RECOG_TARGET	1612963	n/a	LTP079	ltpFR	5	4	-1	BOTTLE	153	4	-1	n/a	n/a	n/a	n/a	n/a
3226.892	n/a	RECOG_RESP	1613446	n/a	LTP079	ltpFR	5	4	-1	BOTTLE	153	n/a	-1	n/a	n/a	n/a	n/a	n/a
3228.088	n/a	RECOG_CONF	1614044	n/a	LTP079	ltpFR	5	4	-1	BOTTLE	153	4	-1	n/a	n/a	n/a	n/a	n/a
3229.834	n/a	RECOG_TARGET	1614917	n/a	LTP079	ltpFR	5	4	1	PLUTO	1092	5	0	n/a	n/a	n/a	n/a	n/a
3231.372	n/a	RECOG_RESP	1615686	n/a	LTP079	ltpFR	5	4	1	PLUTO	1092	n/a	0	n/a	n/a	n/a	n/a	n/a
3232.608	n/a	RECOG_CONF	1616304	n/a	LTP079	ltpFR	5	4	1	PLUTO	1092	5	0	n/a	n/a	n/a	n/a	n/a
3234.31	n/a	RECOG_TARGET	1617155	n/a	LTP079	ltpFR	5	4	0	GULL	671	5	0	n/a	n/a	n/a	n/a	n/a
3234.954	n/a	RECOG_RESP	1617477	n/a	LTP079	ltpFR	5	4	0	GULL	671	n/a	0	n/a	n/a	n/a	n/a	n/a
3236.22	n/a	RECOG_CONF	1618110	n/a	LTP079	ltpFR	5	4	0	GULL	671	5	0	n/a	n/a	n/a	n/a	n/a
3237.942	n/a	RECOG_TARGET	1618971	n/a	LTP079	ltpFR	5	4	0	TAPE	1433	3	0	n/a	n/a	n/a	n/a	n/a
3238.556	n/a	RECOG_RESP	1619278	n/a	LTP079	ltpFR	5	4	0	TAPE	1433	n/a	0	n/a	n/a	n/a	n/a	n/a
3239.904	n/a	RECOG_CONF	1619952	n/a	LTP079	ltpFR	5	4	0	TAPE	1433	3	0	n/a	n/a	n/a	n/a	n/a
3241.526	n/a	RECOG_TARGET	1620763	n/a	LTP079	ltpFR	5	4	0	RADIO	1157	5	0	n/a	n/a	n/a	n/a	n/a
3242.148	n/a	RECOG_RESP	1621074	n/a	LTP079	ltpFR	5	4	0	RADIO	1157	n/a	0	n/a	n/a	n/a	n/a	n/a
3243.286	n/a	RECOG_CONF	1621643	n/a	LTP079	ltpFR	5	4	0	RADIO	1157	5	0	n/a	n/a	n/a	n/a	n/a
3245.092	n/a	RECOG_TARGET	1622546	n/a	LTP079	ltpFR	5	4	1	MAN	862	5	1	n/a	n/a	n/a	n/a	n/a
3245.95	n/a	RECOG_RESP	1622975	n/a	LTP079	ltpFR	5	4	1	MAN	862	n/a	1	n/a	n/a	n/a	n/a	n/a
3247.156	n/a	RECOG_CONF	1623578	n/a	LTP079	ltpFR	5	4	1	MAN	862	5	1	n/a	n/a	n/a	n/a	n/a
3251.594	n/a	REC_START	1625797	n/a	LTP079	ltpFR	5	5	n/a	n/a	n/a	n/a	n/a	n/a	n/a	n/a	n/a	n/a
3251.632	n/a	RECOG_TARGET	1625816	n/a	LTP079	ltpFR	5	5	-1	COOKIE	374	5	-1	n/a	n/a	n/a	n/a	n/a
3252.378	n/a	RECOG_RESP	1626189	n/a	LTP079	ltpFR	5	5	-1	COOKIE	374	n/a	-1	n/a	n/a	n/a	n/a	n/a
3253.634	n/a	RECOG_CONF	1626817	n/a	LTP079	ltpFR	5	5	-1	COOKIE	374	5	-1	n/a	n/a	n/a	n/a	n/a
3255.326	n/a	RECOG_TARGET	1627663	n/a	LTP079	ltpFR	5	5	-1	YARD	1630	5	-1	n/a	n/a	n/a	n/a	n/a
3256.05	n/a	RECOG_RESP	1628025	n/a	LTP079	ltpFR	5	5	-1	YARD	1630	n/a	-1	n/a	n/a	n/a	n/a	n/a
3257.348	n/a	RECOG_CONF	1628674	n/a	LTP079	ltpFR	5	5	-1	YARD	1630	5	-1	n/a	n/a	n/a	n/a	n/a
3259.192	n/a	RECOG_TARGET	1629596	n/a	LTP079	ltpFR	5	5	-1	OATS	968	5	-1	n/a	n/a	n/a	n/a	n/a
3259.872	n/a	RECOG_RESP	1629936	n/a	LTP079	ltpFR	5	5	-1	OATS	968	n/a	-1	n/a	n/a	n/a	n/a	n/a
3261.148	n/a	RECOG_CONF	1630574	n/a	LTP079	ltpFR	5	5	-1	OATS	968	5	-1	n/a	n/a	n/a	n/a	n/a
3262.8	n/a	RECOG_TARGET	1631400	n/a	LTP079	ltpFR	5	5	1	COOLER	375	5	0	n/a	n/a	n/a	n/a	n/a
3263.444	n/a	RECOG_RESP	1631722	n/a	LTP079	ltpFR	5	5	1	COOLER	375	n/a	0	n/a	n/a	n/a	n/a	n/a
3264.71	n/a	RECOG_CONF	1632355	n/a	LTP079	ltpFR	5	5	1	COOLER	375	5	0	n/a	n/a	n/a	n/a	n/a
3266.442	n/a	RECOG_LURE	1633221	n/a	LTP079	ltpFR	5	5	n/a	CRACKER	398	4	n/a	n/a	n/a	n/a	n/a	n/a
3268.082	n/a	RECOG_RESP	1634041	n/a	LTP079	ltpFR	5	5	n/a	CRACKER	398	n/a	n/a	n/a	n/a	n/a	n/a	n/a
3269.32	n/a	RECOG_CONF	1634660	n/a	LTP079	ltpFR	5	5	n/a	CRACKER	398	4	n/a	n/a	n/a	n/a	n/a	n/a
3271.032	n/a	RECOG_TARGET	1635516	n/a	LTP079	ltpFR	5	5	1	SPOOL	1356	5	0	n/a	n/a	n/a	n/a	n/a
3271.724	n/a	RECOG_RESP	1635862	n/a	LTP079	ltpFR	5	5	1	SPOOL	1356	n/a	0	n/a	n/a	n/a	n/a	n/a
3272.982	n/a	RECOG_CONF	1636491	n/a	LTP079	ltpFR	5	5	1	SPOOL	1356	5	0	n/a	n/a	n/a	n/a	n/a
3274.69	n/a	RECOG_TARGET	1637345	n/a	LTP079	ltpFR	5	5	0	JAW	751	5	0	n/a	n/a	n/a	n/a	n/a
3275.346	n/a	RECOG_RESP	1637673	n/a	LTP079	ltpFR	5	5	0	JAW	751	n/a	0	n/a	n/a	n/a	n/a	n/a
3276.524	n/a	RECOG_CONF	1638262	n/a	LTP079	ltpFR	5	5	0	JAW	751	5	0	n/a	n/a	n/a	n/a	n/a
3278.308	n/a	RECOG_TARGET	1639154	n/a	LTP079	ltpFR	5	5	0	DART	440	5	0	n/a	n/a	n/a	n/a	n/a
3279.138	n/a	RECOG_RESP	1639569	n/a	LTP079	ltpFR	5	5	0	DART	440	n/a	0	n/a	n/a	n/a	n/a	n/a
3280.396	n/a	RECOG_CONF	1640198	n/a	LTP079	ltpFR	5	5	0	DART	440	5	0	n/a	n/a	n/a	n/a	n/a
3282.058	n/a	RECOG_LURE	1641029	n/a	LTP079	ltpFR	5	5	n/a	BALLERINA	74	4	n/a	n/a	n/a	n/a	n/a	n/a
3283.898	n/a	RECOG_RESP	1641949	n/a	LTP079	ltpFR	5	5	n/a	BALLERINA	74	n/a	n/a	n/a	n/a	n/a	n/a	n/a
3285.096	n/a	RECOG_CONF	1642548	n/a	LTP079	ltpFR	5	5	n/a	BALLERINA	74	4	n/a	n/a	n/a	n/a	n/a	n/a
3286.832	n/a	RECOG_TARGET	1643416	n/a	LTP079	ltpFR	5	5	1	WAITRESS	1581	5	1	n/a	n/a	n/a	n/a	n/a
3287.44	n/a	RECOG_RESP	1643720	n/a	LTP079	ltpFR	5	5	1	WAITRESS	1581	n/a	1	n/a	n/a	n/a	n/a	n/a
3288.588	n/a	RECOG_CONF	1644294	n/a	LTP079	ltpFR	5	5	1	WAITRESS	1581	5	1	n/a	n/a	n/a	n/a	n/a
3290.416	n/a	RECOG_TARGET	1645208	n/a	LTP079	ltpFR	5	5	1	CABBAGE	210	5	1	n/a	n/a	n/a	n/a	n/a
3291.122	n/a	RECOG_RESP	1645561	n/a	LTP079	ltpFR	5	5	1	CABBAGE	210	n/a	1	n/a	n/a	n/a	n/a	n/a
3292.348	n/a	RECOG_CONF	1646174	n/a	LTP079	ltpFR	5	5	1	CABBAGE	210	5	1	n/a	n/a	n/a	n/a	n/a
3294.09	n/a	RECOG_LURE	1647045	n/a	LTP079	ltpFR	5	5	n/a	OUTLAW	989	4	n/a	n/a	n/a	n/a	n/a	n/a
3294.962	n/a	RECOG_RESP	1647481	n/a	LTP079	ltpFR	5	5	n/a	OUTLAW	989	n/a	n/a	n/a	n/a	n/a	n/a	n/a
3296.2	n/a	RECOG_CONF	1648100	n/a	LTP079	ltpFR	5	5	n/a	OUTLAW	989	4	n/a	n/a	n/a	n/a	n/a	n/a
3297.89	n/a	RECOG_LURE	1648945	n/a	LTP079	ltpFR	5	5	n/a	POND	1101	4	n/a	n/a	n/a	n/a	n/a	n/a
3298.716	n/a	RECOG_RESP	1649358	n/a	LTP079	ltpFR	5	5	n/a	POND	1101	n/a	n/a	n/a	n/a	n/a	n/a	n/a
3299.992	n/a	RECOG_CONF	1649996	n/a	LTP079	ltpFR	5	5	n/a	POND	1101	4	n/a	n/a	n/a	n/a	n/a	n/a
3301.648	n/a	RECOG_TARGET	1650824	n/a	LTP079	ltpFR	5	5	0	OCEAN	970	5	1	n/a	n/a	n/a	n/a	n/a
3302.386	n/a	RECOG_RESP	1651193	n/a	LTP079	ltpFR	5	5	0	OCEAN	970	n/a	1	n/a	n/a	n/a	n/a	n/a
3303.654	n/a	RECOG_CONF	1651827	n/a	LTP079	ltpFR	5	5	0	OCEAN	970	5	1	n/a	n/a	n/a	n/a	n/a
3305.332	n/a	RECOG_TARGET	1652666	n/a	LTP079	ltpFR	5	5	1	KITTEN	780	5	1	n/a	n/a	n/a	n/a	n/a
3306.024	n/a	RECOG_RESP	1653012	n/a	LTP079	ltpFR	5	5	1	KITTEN	780	n/a	1	n/a	n/a	n/a	n/a	n/a
3307.266	n/a	RECOG_CONF	1653633	n/a	LTP079	ltpFR	5	5	1	KITTEN	780	5	1	n/a	n/a	n/a	n/a	n/a
3308.974	n/a	RECOG_TARGET	1654487	n/a	LTP079	ltpFR	5	5	-1	PATIO	1025	5	-1	n/a	n/a	n/a	n/a	n/a
3309.6	n/a	RECOG_RESP	1654800	n/a	LTP079	ltpFR	5	5	-1	PATIO	1025	n/a	-1	n/a	n/a	n/a	n/a	n/a
3310.888	n/a	RECOG_CONF	1655444	n/a	LTP079	ltpFR	5	5	-1	PATIO	1025	5	-1	n/a	n/a	n/a	n/a	n/a
3312.556	n/a	RECOG_TARGET	1656278	n/a	LTP079	ltpFR	5	5	-1	PISTOL	1075	5	-1	n/a	n/a	n/a	n/a	n/a
3313.238	n/a	RECOG_RESP	1656619	n/a	LTP079	ltpFR	5	5	-1	PISTOL	1075	n/a	-1	n/a	n/a	n/a	n/a	n/a
3314.46	n/a	RECOG_CONF	1657230	n/a	LTP079	ltpFR	5	5	-1	PISTOL	1075	5	-1	n/a	n/a	n/a	n/a	n/a
3316.308	n/a	RECOG_TARGET	1658154	n/a	LTP079	ltpFR	5	5	1	CHAUFFEUR	283	5	1	n/a	n/a	n/a	n/a	n/a
3317.074	n/a	RECOG_RESP	1658537	n/a	LTP079	ltpFR	5	5	1	CHAUFFEUR	283	n/a	1	n/a	n/a	n/a	n/a	n/a
3318.332	n/a	RECOG_CONF	1659166	n/a	LTP079	ltpFR	5	5	1	CHAUFFEUR	283	5	1	n/a	n/a	n/a	n/a	n/a
3319.974	n/a	RECOG_TARGET	1659987	n/a	LTP079	ltpFR	5	5	1	PASSAGE	1019	5	0	n/a	n/a	n/a	n/a	n/a
3320.836	n/a	RECOG_RESP	1660418	n/a	LTP079	ltpFR	5	5	1	PASSAGE	1019	n/a	0	n/a	n/a	n/a	n/a	n/a
3322.162	n/a	RECOG_CONF	1661081	n/a	LTP079	ltpFR	5	5	1	PASSAGE	1019	5	0	n/a	n/a	n/a	n/a	n/a
3323.774	n/a	RECOG_TARGET	1661887	n/a	LTP079	ltpFR	5	5	1	TACK	1428	5	0	n/a	n/a	n/a	n/a	n/a
3324.518	n/a	RECOG_RESP	1662259	n/a	LTP079	ltpFR	5	5	1	TACK	1428	n/a	0	n/a	n/a	n/a	n/a	n/a
3325.774	n/a	RECOG_CONF	1662887	n/a	LTP079	ltpFR	5	5	1	TACK	1428	5	0	n/a	n/a	n/a	n/a	n/a
3332.728	n/a	REC_START	1666364	n/a	LTP079	ltpFR	5	6	n/a	n/a	n/a	n/a	n/a	n/a	n/a	n/a	n/a	n/a
3332.764	n/a	RECOG_TARGET	1666382	n/a	LTP079	ltpFR	5	6	1	DAISY	435	5	1	n/a	n/a	n/a	n/a	n/a
3333.552	n/a	RECOG_RESP	1666776	n/a	LTP079	ltpFR	5	6	1	DAISY	435	n/a	1	n/a	n/a	n/a	n/a	n/a
3334.828	n/a	RECOG_CONF	1667414	n/a	LTP079	ltpFR	5	6	1	DAISY	435	5	1	n/a	n/a	n/a	n/a	n/a
3336.564	n/a	RECOG_TARGET	1668282	n/a	LTP079	ltpFR	5	6	1	LAGOON	795	5	0	n/a	n/a	n/a	n/a	n/a
3337.244	n/a	RECOG_RESP	1668622	n/a	LTP079	ltpFR	5	6	1	LAGOON	795	n/a	0	n/a	n/a	n/a	n/a	n/a
3338.432	n/a	RECOG_CONF	1669216	n/a	LTP079	ltpFR	5	6	1	LAGOON	795	5	0	n/a	n/a	n/a	n/a	n/a
3340.174	n/a	RECOG_TARGET	1670087	n/a	LTP079	ltpFR	5	6	1	CREATURE	403	5	1	n/a	n/a	n/a	n/a	n/a
3340.796	n/a	RECOG_RESP	1670398	n/a	LTP079	ltpFR	5	6	1	CREATURE	403	n/a	1	n/a	n/a	n/a	n/a	n/a
3342.054	n/a	RECOG_CONF	1671027	n/a	LTP079	ltpFR	5	6	1	CREATURE	403	5	1	n/a	n/a	n/a	n/a	n/a
3343.756	n/a	RECOG_TARGET	1671878	n/a	LTP079	ltpFR	5	6	0	MINER	896	5	1	n/a	n/a	n/a	n/a	n/a
3344.448	n/a	RECOG_RESP	1672224	n/a	LTP079	ltpFR	5	6	0	MINER	896	n/a	1	n/a	n/a	n/a	n/a	n/a
3345.684	n/a	RECOG_CONF	1672842	n/a	LTP079	ltpFR	5	6	0	MINER	896	5	1	n/a	n/a	n/a	n/a	n/a
3347.448	n/a	RECOG_TARGET	1673724	n/a	LTP079	ltpFR	5	6	1	TRUCK	1512	5	0	n/a	n/a	n/a	n/a	n/a
3348.1	n/a	RECOG_RESP	1674050	n/a	LTP079	ltpFR	5	6	1	TRUCK	1512	n/a	0	n/a	n/a	n/a	n/a	n/a
3349.406	n/a	RECOG_CONF	1674703	n/a	LTP079	ltpFR	5	6	1	TRUCK	1512	5	0	n/a	n/a	n/a	n/a	n/a
3351.156	n/a	RECOG_TARGET	1675578	n/a	LTP079	ltpFR	5	6	1	KNOB	787	5	0	n/a	n/a	n/a	n/a	n/a
3351.78	n/a	RECOG_RESP	1675890	n/a	LTP079	ltpFR	5	6	1	KNOB	787	n/a	0	n/a	n/a	n/a	n/a	n/a
3352.968	n/a	RECOG_CONF	1676484	n/a	LTP079	ltpFR	5	6	1	KNOB	787	5	0	n/a	n/a	n/a	n/a	n/a
3354.764	n/a	RECOG_TARGET	1677382	n/a	LTP079	ltpFR	5	6	0	MARROW	872	5	0	n/a	n/a	n/a	n/a	n/a
3355.612	n/a	RECOG_RESP	1677806	n/a	LTP079	ltpFR	5	6	0	MARROW	872	n/a	0	n/a	n/a	n/a	n/a	n/a
3356.81	n/a	RECOG_CONF	1678405	n/a	LTP079	ltpFR	5	6	0	MARROW	872	5	0	n/a	n/a	n/a	n/a	n/a
3358.58	n/a	RECOG_TARGET	1679290	n/a	LTP079	ltpFR	5	6	0	DRIVEWAY	500	5	1	n/a	n/a	n/a	n/a	n/a
3359.474	n/a	RECOG_RESP	1679737	n/a	LTP079	ltpFR	5	6	0	DRIVEWAY	500	n/a	1	n/a	n/a	n/a	n/a	n/a
3360.552	n/a	RECOG_CONF	1680276	n/a	LTP079	ltpFR	5	6	0	DRIVEWAY	500	5	1	n/a	n/a	n/a	n/a	n/a
3362.498	n/a	RECOG_TARGET	1681249	n/a	LTP079	ltpFR	5	6	1	SHED	1277	5	0	n/a	n/a	n/a	n/a	n/a
3363.126	n/a	RECOG_RESP	1681563	n/a	LTP079	ltpFR	5	6	1	SHED	1277	n/a	0	n/a	n/a	n/a	n/a	n/a
3364.254	n/a	RECOG_CONF	1682127	n/a	LTP079	ltpFR	5	6	1	SHED	1277	5	0	n/a	n/a	n/a	n/a	n/a
3366.072	n/a	RECOG_TARGET	1683036	n/a	LTP079	ltpFR	5	6	1	ALMANAC	17	5	0	n/a	n/a	n/a	n/a	n/a
3366.908	n/a	RECOG_RESP	1683454	n/a	LTP079	ltpFR	5	6	1	ALMANAC	17	n/a	0	n/a	n/a	n/a	n/a	n/a
3368.174	n/a	RECOG_CONF	1684087	n/a	LTP079	ltpFR	5	6	1	ALMANAC	17	5	0	n/a	n/a	n/a	n/a	n/a
3370.072	n/a	RECOG_TARGET	1685036	n/a	LTP079	ltpFR	5	6	0	STREAM	1392	5	1	n/a	n/a	n/a	n/a	n/a
3370.684	n/a	RECOG_RESP	1685342	n/a	LTP079	ltpFR	5	6	0	STREAM	1392	n/a	1	n/a	n/a	n/a	n/a	n/a
3371.916	n/a	RECOG_CONF	1685958	n/a	LTP079	ltpFR	5	6	0	STREAM	1392	5	1	n/a	n/a	n/a	n/a	n/a
3373.654	n/a	RECOG_TARGET	1686827	n/a	LTP079	ltpFR	5	6	-1	TOOTHBRUSH	1482	5	-1	n/a	n/a	n/a	n/a	n/a
3374.38	n/a	RECOG_RESP	1687190	n/a	LTP079	ltpFR	5	6	-1	TOOTHBRUSH	1482	n/a	-1	n/a	n/a	n/a	n/a	n/a
3375.568	n/a	RECOG_CONF	1687784	n/a	LTP079	ltpFR	5	6	-1	TOOTHBRUSH	1482	5	-1	n/a	n/a	n/a	n/a	n/a
3377.356	n/a	RECOG_TARGET	1688678	n/a	LTP079	ltpFR	5	6	1	LEADER	807	5	1	n/a	n/a	n/a	n/a	n/a
3378.084	n/a	RECOG_RESP	1689042	n/a	LTP079	ltpFR	5	6	1	LEADER	807	n/a	1	n/a	n/a	n/a	n/a	n/a
3379.28	n/a	RECOG_CONF	1689640	n/a	LTP079	ltpFR	5	6	1	LEADER	807	5	1	n/a	n/a	n/a	n/a	n/a
3381.122	n/a	RECOG_TARGET	1690561	n/a	LTP079	ltpFR	5	6	1	ADULT	8	5	1	n/a	n/a	n/a	n/a	n/a
3381.924	n/a	RECOG_RESP	1690962	n/a	LTP079	ltpFR	5	6	1	ADULT	8	n/a	1	n/a	n/a	n/a	n/a	n/a
3383.142	n/a	RECOG_CONF	1691571	n/a	LTP079	ltpFR	5	6	1	ADULT	8	5	1	n/a	n/a	n/a	n/a	n/a
3384.854	n/a	RECOG_TARGET	1692427	n/a	LTP079	ltpFR	5	6	0	LOOP	844	5	0	n/a	n/a	n/a	n/a	n/a
3385.516	n/a	RECOG_RESP	1692758	n/a	LTP079	ltpFR	5	6	0	LOOP	844	n/a	0	n/a	n/a	n/a	n/a	n/a
3386.724	n/a	RECOG_CONF	1693362	n/a	LTP079	ltpFR	5	6	0	LOOP	844	5	0	n/a	n/a	n/a	n/a	n/a
3388.512	n/a	RECOG_TARGET	1694256	n/a	LTP079	ltpFR	5	6	0	SALT	1229	5	0	n/a	n/a	n/a	n/a	n/a
3389.608	n/a	RECOG_RESP	1694804	n/a	LTP079	ltpFR	5	6	0	SALT	1229	n/a	0	n/a	n/a	n/a	n/a	n/a
3390.714	n/a	RECOG_CONF	1695357	n/a	LTP079	ltpFR	5	6	0	SALT	1229	5	0	n/a	n/a	n/a	n/a	n/a
3392.472	n/a	RECOG_TARGET	1696236	n/a	LTP079	ltpFR	5	6	-1	NEWSPAPER	948	5	-1	n/a	n/a	n/a	n/a	n/a
3393.354	n/a	RECOG_RESP	1696677	n/a	LTP079	ltpFR	5	6	-1	NEWSPAPER	948	n/a	-1	n/a	n/a	n/a	n/a	n/a
3394.666	n/a	RECOG_CONF	1697333	n/a	LTP079	ltpFR	5	6	-1	NEWSPAPER	948	5	-1	n/a	n/a	n/a	n/a	n/a
3396.504	n/a	RECOG_TARGET	1698252	n/a	LTP079	ltpFR	5	6	0	FREEZER	604	5	0	n/a	n/a	n/a	n/a	n/a
3397.46	n/a	RECOG_RESP	1698730	n/a	LTP079	ltpFR	5	6	0	FREEZER	604	n/a	0	n/a	n/a	n/a	n/a	n/a
3398.598	n/a	RECOG_CONF	1699299	n/a	LTP079	ltpFR	5	6	0	FREEZER	604	5	0	n/a	n/a	n/a	n/a	n/a
3400.438	n/a	RECOG_TARGET	1700219	n/a	LTP079	ltpFR	5	6	1	GODDESS	646	5	1	n/a	n/a	n/a	n/a	n/a
3401.212	n/a	RECOG_RESP	1700606	n/a	LTP079	ltpFR	5	6	1	GODDESS	646	n/a	1	n/a	n/a	n/a	n/a	n/a
3402.418	n/a	RECOG_CONF	1701209	n/a	LTP079	ltpFR	5	6	1	GODDESS	646	5	1	n/a	n/a	n/a	n/a	n/a
