onset	duration	trial_type	sample	stim_file	subject	experiment	session	trial	task	item_name	item_num	recog_conf	resp	color_b	color_g	color_r	case	font
241.912	n/a	SESS_START	120956	n/a	LTP287	ltpFR	4	n/a	n/a	n/a	n/a	n/a	n/a	n/a	n/a	n/a	n/a	n/a
304.288	n/a	WORD	152144	wordpools/wasnorm_wordpool_less_exclusions.txt	LTP287	ltpFR	4	1	0	ARMY	39	n/a	1	1	0.412841796875	0.57763671875	lower	../fonts/zerothre.ttf
308.168	n/a	WORD	154084	wordpools/wasnorm_wordpool_less_exclusions.txt	LTP287	ltpFR	4	1	0	COLONEL	348	n/a	1	1	0.412841796875	0.57763671875	lower	../fonts/zerothre.ttf
312.106	n/a	WORD	156053	wordpools/wasnorm_wordpool_less_exclusions.txt	LTP287	ltpFR	4	1	0	PLIERS	1089	n/a	0	1	0.412841796875	0.57763671875	lower	../fonts/zerothre.ttf
316.088	n/a	WORD	158044	wordpools/wasnorm_wordpool_less_exclusions.txt	LTP287	ltpFR	4	1	1	STADIUM	1364	n/a	0	0	0.5869140625	0.422607421875	upper	../fonts/amplitud.ttf
320.148	n/a	WORD	160074	wordpools/wasnorm_wordpool_less_exclusions.txt	LTP287	ltpFR	4	1	1	CATCHER	258	n/a	0	0	0.5869140625	0.422607421875	upper	../fonts/amplitud.ttf
324.02	n/a	WORD	162010	wordpools/wasnorm_wordpool_less_exclusions.txt	LTP287	ltpFR	4	1	1	CYLINDER	432	n/a	0	0	0.5869140625	0.422607421875	upper	../fonts/amplitud.ttf
327.946	n/a	WORD	163973	wordpools/wasnorm_wordpool_less_exclusions.txt	LTP287	ltpFR	4	1	1	MUSHROOM	934	n/a	1	0	0.5869140625	0.422607421875	upper	../fonts/amplitud.ttf
332.15	n/a	WORD	166075	wordpools/wasnorm_wordpool_less_exclusions.txt	LTP287	ltpFR	4	1	0	TOOL	1480	n/a	0	1	0.412841796875	0.57763671875	lower	../fonts/zerothre.ttf
336.098	n/a	WORD	168049	wordpools/wasnorm_wordpool_less_exclusions.txt	LTP287	ltpFR	4	1	0	LIGHTNING	820	n/a	1	1	0.412841796875	0.57763671875	lower	../fonts/zerothre.ttf
340.316	n/a	WORD	170158	wordpools/wasnorm_wordpool_less_exclusions.txt	LTP287	ltpFR	4	1	1	BOWL	158	n/a	0	0	0.5869140625	0.422607421875	upper	../fonts/amplitud.ttf
344.23	n/a	WORD	172115	wordpools/wasnorm_wordpool_less_exclusions.txt	LTP287	ltpFR	4	1	1	INSTRUCTOR	741	n/a	1	0	0.5869140625	0.422607421875	upper	../fonts/amplitud.ttf
348.328	n/a	WORD	174164	wordpools/wasnorm_wordpool_less_exclusions.txt	LTP287	ltpFR	4	1	1	SUITCASE	1403	n/a	0	0	0.5869140625	0.422607421875	upper	../fonts/amplitud.ttf
352.506	n/a	WORD	176253	wordpools/wasnorm_wordpool_less_exclusions.txt	LTP287	ltpFR	4	1	1	TREAD	1499	n/a	0	0	0.5869140625	0.422607421875	upper	../fonts/amplitud.ttf
356.572	n/a	WORD	178286	wordpools/wasnorm_wordpool_less_exclusions.txt	LTP287	ltpFR	4	1	0	HERD	705	n/a	1	1	0.412841796875	0.57763671875	lower	../fonts/zerothre.ttf
360.536	n/a	WORD	180268	wordpools/wasnorm_wordpool_less_exclusions.txt	LTP287	ltpFR	4	1	0	RACCOON	1153	n/a	0	1	0.412841796875	0.57763671875	lower	../fonts/zerothre.ttf
364.406	n/a	WORD	182203	wordpools/wasnorm_wordpool_less_exclusions.txt	LTP287	ltpFR	4	1	0	OVAL	990	n/a	0	1	0.412841796875	0.57763671875	lower	../fonts/zerothre.ttf
370.13	n/a	REC_START	185065	n/a	LTP287	ltpFR	4	1	n/a	n/a	n/a	n/a	n/a	n/a	n/a	n/a	n/a	n/a
371.2	n/a	REC_WORD	185600	wordpools/wasnorm_wordpool_less_exclusions.txt	LTP287	ltpFR	4	1	0	OVAL	990	n/a	0	n/a	n/a	n/a	n/a	n/a
371.974	n/a	REC_WORD	185987	wordpools/wasnorm_wordpool_less_exclusions.txt	LTP287	ltpFR	4	1	0	RACCOON	1153	n/a	0	n/a	n/a	n/a	n/a	n/a
373.078	n/a	REC_WORD	186539	wordpools/wasnorm_wordpool_less_exclusions.txt	LTP287	ltpFR	4	1	1	STADIUM	1364	n/a	0	n/a	n/a	n/a	n/a	n/a
374.106	n/a	REC_WORD	187053	wordpools/wasnorm_wordpool_less_exclusions.txt	LTP287	ltpFR	4	1	1	INSTRUCTOR	741	n/a	1	n/a	n/a	n/a	n/a	n/a
375.51	n/a	REC_WORD	187755	wordpools/wasnorm_wordpool_less_exclusions.txt	LTP287	ltpFR	4	1	0	ARMY	39	n/a	1	n/a	n/a	n/a	n/a	n/a
377.006	n/a	REC_WORD	188503	wordpools/wasnorm_wordpool_less_exclusions.txt	LTP287	ltpFR	4	1	0	TOOL	1480	n/a	0	n/a	n/a	n/a	n/a	n/a
377.958	n/a	REC_WORD	188979	wordpools/wasnorm_wordpool_less_exclusions.txt	LTP287	ltpFR	4	1	0	PLIERS	1089	n/a	0	n/a	n/a	n/a	n/a	n/a
379.192	n/a	REC_WORD	189596	wordpools/wasnorm_wordpool_less_exclusions.txt	LTP287	ltpFR	4	1	0	COLONEL	348	n/a	1	n/a	n/a	n/a	n/a	n/a
390.212	n/a	REC_WORD	195106	wordpools/wasnorm_wordpool_less_exclusions.txt	LTP287	ltpFR	4	1	1	CATCHER	258	n/a	0	n/a	n/a	n/a	n/a	n/a
406.348	n/a	REC_WORD	203174	wordpools/wasnorm_wordpool_less_exclusions.txt	LTP287	ltpFR	4	1	0	HERD	705	n/a	1	n/a	n/a	n/a	n/a	n/a
452.828	n/a	WORD	226414	wordpools/wasnorm_wordpool_less_exclusions.txt	LTP287	ltpFR	4	2	1	TIGER	1467	n/a	1	0	0.5869140625	0.422607421875	upper	../fonts/amplitud.ttf
456.772	n/a	WORD	228386	wordpools/wasnorm_wordpool_less_exclusions.txt	LTP287	ltpFR	4	2	1	VINEGAR	1569	n/a	0	0	0.5869140625	0.422607421875	upper	../fonts/amplitud.ttf
460.808	n/a	WORD	230404	wordpools/wasnorm_wordpool_less_exclusions.txt	LTP287	ltpFR	4	2	1	CLERK	321	n/a	1	0	0.5869140625	0.422607421875	upper	../fonts/amplitud.ttf
464.724	n/a	WORD	232362	wordpools/wasnorm_wordpool_less_exclusions.txt	LTP287	ltpFR	4	2	0	SYRUP	1425	n/a	0	1	0.412841796875	0.57763671875	lower	../fonts/zerothre.ttf
468.774	n/a	WORD	234387	wordpools/wasnorm_wordpool_less_exclusions.txt	LTP287	ltpFR	4	2	0	LIPSTICK	829	n/a	0	1	0.412841796875	0.57763671875	lower	../fonts/zerothre.ttf
472.956	n/a	WORD	236478	wordpools/wasnorm_wordpool_less_exclusions.txt	LTP287	ltpFR	4	2	0	PANTHER	1009	n/a	1	1	0.412841796875	0.57763671875	lower	../fonts/zerothre.ttf
477.016	n/a	WORD	238508	wordpools/wasnorm_wordpool_less_exclusions.txt	LTP287	ltpFR	4	2	0	PRUNE	1134	n/a	0	1	0.412841796875	0.57763671875	lower	../fonts/zerothre.ttf
480.852	n/a	WORD	240426	wordpools/wasnorm_wordpool_less_exclusions.txt	LTP287	ltpFR	4	2	0	CORK	380	n/a	0	1	0.412841796875	0.57763671875	lower	../fonts/zerothre.ttf
485.062	n/a	WORD	242531	wordpools/wasnorm_wordpool_less_exclusions.txt	LTP287	ltpFR	4	2	1	CHIME	300	n/a	0	0	0.5869140625	0.422607421875	upper	../fonts/amplitud.ttf
488.9	n/a	WORD	244450	wordpools/wasnorm_wordpool_less_exclusions.txt	LTP287	ltpFR	4	2	1	ROUGE	1213	n/a	1	0	0.5869140625	0.422607421875	upper	../fonts/amplitud.ttf
493.082	n/a	WORD	246541	wordpools/wasnorm_wordpool_less_exclusions.txt	LTP287	ltpFR	4	2	0	FRIEND	606	n/a	1	1	0.412841796875	0.57763671875	lower	../fonts/zerothre.ttf
496.992	n/a	WORD	248496	wordpools/wasnorm_wordpool_less_exclusions.txt	LTP287	ltpFR	4	2	0	FAMILY	550	n/a	1	1	0.412841796875	0.57763671875	lower	../fonts/zerothre.ttf
501.024	n/a	WORD	250512	wordpools/wasnorm_wordpool_less_exclusions.txt	LTP287	ltpFR	4	2	0	MOSS	918	n/a	0	1	0.412841796875	0.57763671875	lower	../fonts/zerothre.ttf
504.978	n/a	WORD	252489	wordpools/wasnorm_wordpool_less_exclusions.txt	LTP287	ltpFR	4	2	1	HEDGE	699	n/a	1	0	0.5869140625	0.422607421875	upper	../fonts/amplitud.ttf
508.976	n/a	WORD	254488	wordpools/wasnorm_wordpool_less_exclusions.txt	LTP287	ltpFR	4	2	1	EGG	518	n/a	1	0	0.5869140625	0.422607421875	upper	../fonts/amplitud.ttf
513.102	n/a	WORD	256551	wordpools/wasnorm_wordpool_less_exclusions.txt	LTP287	ltpFR	4	2	1	CANDY	230	n/a	0	0	0.5869140625	0.422607421875	upper	../fonts/amplitud.ttf
519.166	n/a	REC_START	259583	n/a	LTP287	ltpFR	4	2	n/a	n/a	n/a	n/a	n/a	n/a	n/a	n/a	n/a	n/a
520.158	n/a	REC_WORD	260079	wordpools/wasnorm_wordpool_less_exclusions.txt	LTP287	ltpFR	4	2	1	CANDY	230	n/a	0	n/a	n/a	n/a	n/a	n/a
521.206	n/a	REC_WORD	260603	wordpools/wasnorm_wordpool_less_exclusions.txt	LTP287	ltpFR	4	2	1	HEDGE	699	n/a	1	n/a	n/a	n/a	n/a	n/a
522.372	n/a	REC_WORD	261186	wordpools/wasnorm_wordpool_less_exclusions.txt	LTP287	ltpFR	4	2	1	EGG	518	n/a	1	n/a	n/a	n/a	n/a	n/a
523.446	n/a	REC_WORD	261723	wordpools/wasnorm_wordpool_less_exclusions.txt	LTP287	ltpFR	4	2	1	TIGER	1467	n/a	1	n/a	n/a	n/a	n/a	n/a
524.44	n/a	REC_WORD	262220	wordpools/wasnorm_wordpool_less_exclusions.txt	LTP287	ltpFR	4	2	1	VINEGAR	1569	n/a	0	n/a	n/a	n/a	n/a	n/a
525.518	n/a	REC_WORD	262759	wordpools/wasnorm_wordpool_less_exclusions.txt	LTP287	ltpFR	4	2	1	CLERK	321	n/a	1	n/a	n/a	n/a	n/a	n/a
526.666	n/a	REC_WORD	263333	wordpools/wasnorm_wordpool_less_exclusions.txt	LTP287	ltpFR	4	2	0	LIPSTICK	829	n/a	0	n/a	n/a	n/a	n/a	n/a
527.788	n/a	REC_WORD	263894	wordpools/wasnorm_wordpool_less_exclusions.txt	LTP287	ltpFR	4	2	0	PANTHER	1009	n/a	1	n/a	n/a	n/a	n/a	n/a
528.884	n/a	REC_WORD	264442	wordpools/wasnorm_wordpool_less_exclusions.txt	LTP287	ltpFR	4	2	0	PRUNE	1134	n/a	0	n/a	n/a	n/a	n/a	n/a
529.856	n/a	REC_WORD	264928	wordpools/wasnorm_wordpool_less_exclusions.txt	LTP287	ltpFR	4	2	0	SYRUP	1425	n/a	0	n/a	n/a	n/a	n/a	n/a
584.514	n/a	REC_WORD	292257	wordpools/wasnorm_wordpool_less_exclusions.txt	LTP287	ltpFR	4	2	0	FRIEND	606	n/a	1	n/a	n/a	n/a	n/a	n/a
613.536	n/a	WORD	306768	wordpools/wasnorm_wordpool_less_exclusions.txt	LTP287	ltpFR	4	3	0	PASTRY	1022	n/a	0	1	0.412841796875	0.57763671875	lower	../fonts/zerothre.ttf
617.654	n/a	WORD	308827	wordpools/wasnorm_wordpool_less_exclusions.txt	LTP287	ltpFR	4	3	0	BAKER	71	n/a	1	1	0.412841796875	0.57763671875	lower	../fonts/zerothre.ttf
621.556	n/a	WORD	310778	wordpools/wasnorm_wordpool_less_exclusions.txt	LTP287	ltpFR	4	3	0	AUTHOR	61	n/a	1	1	0.412841796875	0.57763671875	lower	../fonts/zerothre.ttf
625.622	n/a	WORD	312811	wordpools/wasnorm_wordpool_less_exclusions.txt	LTP287	ltpFR	4	3	0	MARS	873	n/a	1	1	0.412841796875	0.57763671875	lower	../fonts/zerothre.ttf
629.47	n/a	WORD	314735	wordpools/wasnorm_wordpool_less_exclusions.txt	LTP287	ltpFR	4	3	0	SAXOPHONE	1240	n/a	1	1	0.412841796875	0.57763671875	lower	../fonts/zerothre.ttf
633.696	n/a	WORD	316848	wordpools/wasnorm_wordpool_less_exclusions.txt	LTP287	ltpFR	4	3	1	PROFESSIONAL	1130	n/a	1	0	0.5869140625	0.422607421875	upper	../fonts/amplitud.ttf
637.646	n/a	WORD	318823	wordpools/wasnorm_wordpool_less_exclusions.txt	LTP287	ltpFR	4	3	1	DICTATOR	462	n/a	1	0	0.5869140625	0.422607421875	upper	../fonts/amplitud.ttf
641.812	n/a	WORD	320906	wordpools/wasnorm_wordpool_less_exclusions.txt	LTP287	ltpFR	4	3	1	CRATER	400	n/a	0	0	0.5869140625	0.422607421875	upper	../fonts/amplitud.ttf
645.832	n/a	WORD	322916	wordpools/wasnorm_wordpool_less_exclusions.txt	LTP287	ltpFR	4	3	1	SWAMP	1416	n/a	0	0	0.5869140625	0.422607421875	upper	../fonts/amplitud.ttf
649.698	n/a	WORD	324849	wordpools/wasnorm_wordpool_less_exclusions.txt	LTP287	ltpFR	4	3	0	ANTEATER	26	n/a	1	1	0.412841796875	0.57763671875	lower	../fonts/zerothre.ttf
653.858	n/a	WORD	326929	wordpools/wasnorm_wordpool_less_exclusions.txt	LTP287	ltpFR	4	3	0	EXPERT	543	n/a	1	1	0.412841796875	0.57763671875	lower	../fonts/zerothre.ttf
658.024	n/a	WORD	329012	wordpools/wasnorm_wordpool_less_exclusions.txt	LTP287	ltpFR	4	3	0	DISC	473	n/a	0	1	0.412841796875	0.57763671875	lower	../fonts/zerothre.ttf
662.246	n/a	WORD	331123	wordpools/wasnorm_wordpool_less_exclusions.txt	LTP287	ltpFR	4	3	1	CITRUS	313	n/a	1	0	0.5869140625	0.422607421875	upper	../fonts/amplitud.ttf
666.126	n/a	WORD	333063	wordpools/wasnorm_wordpool_less_exclusions.txt	LTP287	ltpFR	4	3	1	TYPEWRITER	1531	n/a	0	0	0.5869140625	0.422607421875	upper	../fonts/amplitud.ttf
670.236	n/a	WORD	335118	wordpools/wasnorm_wordpool_less_exclusions.txt	LTP287	ltpFR	4	3	1	BEETLE	116	n/a	1	0	0.5869140625	0.422607421875	upper	../fonts/amplitud.ttf
674.426	n/a	WORD	337213	wordpools/wasnorm_wordpool_less_exclusions.txt	LTP287	ltpFR	4	3	1	INSECT	740	n/a	1	0	0.5869140625	0.422607421875	upper	../fonts/amplitud.ttf
680.326	n/a	REC_START	340163	n/a	LTP287	ltpFR	4	3	n/a	n/a	n/a	n/a	n/a	n/a	n/a	n/a	n/a	n/a
681.258	n/a	REC_WORD	340629	wordpools/wasnorm_wordpool_less_exclusions.txt	LTP287	ltpFR	4	3	1	CITRUS	313	n/a	1	n/a	n/a	n/a	n/a	n/a
682.574	n/a	REC_WORD	341287	wordpools/wasnorm_wordpool_less_exclusions.txt	LTP287	ltpFR	4	3	1	TYPEWRITER	1531	n/a	0	n/a	n/a	n/a	n/a	n/a
683.968	n/a	REC_WORD	341984	wordpools/wasnorm_wordpool_less_exclusions.txt	LTP287	ltpFR	4	3	1	BEETLE	116	n/a	1	n/a	n/a	n/a	n/a	n/a
685.112	n/a	REC_WORD	342556	wordpools/wasnorm_wordpool_less_exclusions.txt	LTP287	ltpFR	4	3	1	INSECT	740	n/a	1	n/a	n/a	n/a	n/a	n/a
686.544	n/a	REC_WORD	343272	wordpools/wasnorm_wordpool_less_exclusions.txt	LTP287	ltpFR	4	3	0	PASTRY	1022	n/a	0	n/a	n/a	n/a	n/a	n/a
688.152	n/a	REC_WORD	344076	wordpools/wasnorm_wordpool_less_exclusions.txt	LTP287	ltpFR	4	3	0	BAKER	71	n/a	1	n/a	n/a	n/a	n/a	n/a
690.046	n/a	REC_WORD	345023	wordpools/wasnorm_wordpool_less_exclusions.txt	LTP287	ltpFR	4	3	0	AUTHOR	61	n/a	1	n/a	n/a	n/a	n/a	n/a
691.31	n/a	REC_WORD	345655	wordpools/wasnorm_wordpool_less_exclusions.txt	LTP287	ltpFR	4	3	1	CRATER	400	n/a	0	n/a	n/a	n/a	n/a	n/a
692.736	n/a	REC_WORD	346368	wordpools/wasnorm_wordpool_less_exclusions.txt	LTP287	ltpFR	4	3	0	MARS	873	n/a	1	n/a	n/a	n/a	n/a	n/a
693.992	n/a	REC_WORD	346996	wordpools/wasnorm_wordpool_less_exclusions.txt	LTP287	ltpFR	4	3	1	PROFESSIONAL	1130	n/a	1	n/a	n/a	n/a	n/a	n/a
695.542	n/a	REC_WORD	347771	wordpools/wasnorm_wordpool_less_exclusions.txt	LTP287	ltpFR	4	3	1	DICTATOR	462	n/a	1	n/a	n/a	n/a	n/a	n/a
700.574	n/a	REC_WORD	350287	wordpools/wasnorm_wordpool_less_exclusions.txt	LTP287	ltpFR	4	3	0	ANTEATER	26	n/a	1	n/a	n/a	n/a	n/a	n/a
701.684	n/a	REC_WORD	350842	wordpools/wasnorm_wordpool_less_exclusions.txt	LTP287	ltpFR	4	3	0	SAXOPHONE	1240	n/a	1	n/a	n/a	n/a	n/a	n/a
763.014	n/a	WORD	381507	wordpools/wasnorm_wordpool_less_exclusions.txt	LTP287	ltpFR	4	4	1	BACK	65	n/a	0	0	0.5869140625	0.422607421875	upper	../fonts/amplitud.ttf
767.046	n/a	WORD	383523	wordpools/wasnorm_wordpool_less_exclusions.txt	LTP287	ltpFR	4	4	1	SPINE	1353	n/a	0	0	0.5869140625	0.422607421875	upper	../fonts/amplitud.ttf
771.178	n/a	WORD	385589	wordpools/wasnorm_wordpool_less_exclusions.txt	LTP287	ltpFR	4	4	0	CLAM	315	n/a	0	1	0.412841796875	0.57763671875	lower	../fonts/zerothre.ttf
775.16	n/a	WORD	387580	wordpools/wasnorm_wordpool_less_exclusions.txt	LTP287	ltpFR	4	4	0	PICK	1058	n/a	0	1	0.412841796875	0.57763671875	lower	../fonts/zerothre.ttf
779.32	n/a	WORD	389660	wordpools/wasnorm_wordpool_less_exclusions.txt	LTP287	ltpFR	4	4	0	DUNGEON	507	n/a	1	1	0.412841796875	0.57763671875	lower	../fonts/zerothre.ttf
783.172	n/a	WORD	391586	wordpools/wasnorm_wordpool_less_exclusions.txt	LTP287	ltpFR	4	4	1	BREAST	171	n/a	0	0	0.5869140625	0.422607421875	upper	../fonts/amplitud.ttf
787.234	n/a	WORD	393617	wordpools/wasnorm_wordpool_less_exclusions.txt	LTP287	ltpFR	4	4	1	UNIVERSE	1540	n/a	0	0	0.5869140625	0.422607421875	upper	../fonts/amplitud.ttf
791.34	n/a	WORD	395670	wordpools/wasnorm_wordpool_less_exclusions.txt	LTP287	ltpFR	4	4	1	SATURN	1236	n/a	0	0	0.5869140625	0.422607421875	upper	../fonts/amplitud.ttf
795.55	n/a	WORD	397775	wordpools/wasnorm_wordpool_less_exclusions.txt	LTP287	ltpFR	4	4	0	KING	777	n/a	1	1	0.412841796875	0.57763671875	lower	../fonts/zerothre.ttf
799.486	n/a	WORD	399743	wordpools/wasnorm_wordpool_less_exclusions.txt	LTP287	ltpFR	4	4	0	TOURIST	1488	n/a	1	1	0.412841796875	0.57763671875	lower	../fonts/zerothre.ttf
803.346	n/a	WORD	401673	wordpools/wasnorm_wordpool_less_exclusions.txt	LTP287	ltpFR	4	4	0	HORNET	718	n/a	0	1	0.412841796875	0.57763671875	lower	../fonts/zerothre.ttf
807.394	n/a	WORD	403697	wordpools/wasnorm_wordpool_less_exclusions.txt	LTP287	ltpFR	4	4	0	MONARCH	906	n/a	1	1	0.412841796875	0.57763671875	lower	../fonts/zerothre.ttf
811.282	n/a	WORD	405641	wordpools/wasnorm_wordpool_less_exclusions.txt	LTP287	ltpFR	4	4	0	OUTLAW	989	n/a	1	1	0.412841796875	0.57763671875	lower	../fonts/zerothre.ttf
815.43	n/a	WORD	407715	wordpools/wasnorm_wordpool_less_exclusions.txt	LTP287	ltpFR	4	4	1	FAUCET	555	n/a	0	0	0.5869140625	0.422607421875	upper	../fonts/amplitud.ttf
819.29	n/a	WORD	409645	wordpools/wasnorm_wordpool_less_exclusions.txt	LTP287	ltpFR	4	4	1	BATHROOM	99	n/a	0	0	0.5869140625	0.422607421875	upper	../fonts/amplitud.ttf
823.244	n/a	WORD	411622	wordpools/wasnorm_wordpool_less_exclusions.txt	LTP287	ltpFR	4	4	1	TREASURE	1500	n/a	0	0	0.5869140625	0.422607421875	upper	../fonts/amplitud.ttf
829.2	n/a	REC_START	414600	n/a	LTP287	ltpFR	4	4	n/a	n/a	n/a	n/a	n/a	n/a	n/a	n/a	n/a	n/a
830.394	n/a	REC_WORD	415197	wordpools/wasnorm_wordpool_less_exclusions.txt	LTP287	ltpFR	4	4	1	FAUCET	555	n/a	0	n/a	n/a	n/a	n/a	n/a
831.582	n/a	REC_WORD	415791	wordpools/wasnorm_wordpool_less_exclusions.txt	LTP287	ltpFR	4	4	1	BATHROOM	99	n/a	0	n/a	n/a	n/a	n/a	n/a
832.746	n/a	REC_WORD	416373	wordpools/wasnorm_wordpool_less_exclusions.txt	LTP287	ltpFR	4	4	1	TREASURE	1500	n/a	0	n/a	n/a	n/a	n/a	n/a
833.97	n/a	REC_WORD	416985	wordpools/wasnorm_wordpool_less_exclusions.txt	LTP287	ltpFR	4	4	0	KING	777	n/a	1	n/a	n/a	n/a	n/a	n/a
835.072	n/a	REC_WORD	417536	wordpools/wasnorm_wordpool_less_exclusions.txt	LTP287	ltpFR	4	4	0	MONARCH	906	n/a	1	n/a	n/a	n/a	n/a	n/a
836.304	n/a	REC_WORD	418152	wordpools/wasnorm_wordpool_less_exclusions.txt	LTP287	ltpFR	4	4	0	OUTLAW	989	n/a	1	n/a	n/a	n/a	n/a	n/a
837.526	n/a	REC_WORD	418763	wordpools/wasnorm_wordpool_less_exclusions.txt	LTP287	ltpFR	4	4	0	PICK	1058	n/a	0	n/a	n/a	n/a	n/a	n/a
838.606	n/a	REC_WORD	419303	wordpools/wasnorm_wordpool_less_exclusions.txt	LTP287	ltpFR	4	4	0	CLAM	315	n/a	0	n/a	n/a	n/a	n/a	n/a
929.884	n/a	WORD	464942	wordpools/wasnorm_wordpool_less_exclusions.txt	LTP287	ltpFR	4	5	-1	CABINET	212	n/a	-1	1	1.0	1.0	upper	../fonts/Verdana.ttf
933.884	n/a	WORD	466942	wordpools/wasnorm_wordpool_less_exclusions.txt	LTP287	ltpFR	4	5	-1	CONCRETE	361	n/a	-1	1	1.0	1.0	upper	../fonts/Verdana.ttf
937.916	n/a	WORD	468958	wordpools/wasnorm_wordpool_less_exclusions.txt	LTP287	ltpFR	4	5	-1	HAMMER	680	n/a	-1	1	1.0	1.0	upper	../fonts/Verdana.ttf
941.748	n/a	WORD	470874	wordpools/wasnorm_wordpool_less_exclusions.txt	LTP287	ltpFR	4	5	-1	PARROT	1015	n/a	-1	1	1.0	1.0	upper	../fonts/Verdana.ttf
945.596	n/a	WORD	472798	wordpools/wasnorm_wordpool_less_exclusions.txt	LTP287	ltpFR	4	5	-1	POTTERY	1116	n/a	-1	1	1.0	1.0	upper	../fonts/Verdana.ttf
949.51	n/a	WORD	474755	wordpools/wasnorm_wordpool_less_exclusions.txt	LTP287	ltpFR	4	5	-1	CARPET	247	n/a	-1	1	1.0	1.0	upper	../fonts/Verdana.ttf
953.726	n/a	WORD	476863	wordpools/wasnorm_wordpool_less_exclusions.txt	LTP287	ltpFR	4	5	-1	FAN	551	n/a	-1	1	1.0	1.0	upper	../fonts/Verdana.ttf
957.558	n/a	WORD	478779	wordpools/wasnorm_wordpool_less_exclusions.txt	LTP287	ltpFR	4	5	-1	BOUQUET	157	n/a	-1	1	1.0	1.0	upper	../fonts/Verdana.ttf
961.65	n/a	WORD	480825	wordpools/wasnorm_wordpool_less_exclusions.txt	LTP287	ltpFR	4	5	-1	CRAB	397	n/a	-1	1	1.0	1.0	upper	../fonts/Verdana.ttf
965.706	n/a	WORD	482853	wordpools/wasnorm_wordpool_less_exclusions.txt	LTP287	ltpFR	4	5	-1	VENT	1556	n/a	-1	1	1.0	1.0	upper	../fonts/Verdana.ttf
969.87	n/a	WORD	484935	wordpools/wasnorm_wordpool_less_exclusions.txt	LTP287	ltpFR	4	5	-1	CHESS	294	n/a	-1	1	1.0	1.0	upper	../fonts/Verdana.ttf
974.054	n/a	WORD	487027	wordpools/wasnorm_wordpool_less_exclusions.txt	LTP287	ltpFR	4	5	-1	BASKETBALL	96	n/a	-1	1	1.0	1.0	upper	../fonts/Verdana.ttf
978.064	n/a	WORD	489032	wordpools/wasnorm_wordpool_less_exclusions.txt	LTP287	ltpFR	4	5	-1	DOOR	486	n/a	-1	1	1.0	1.0	upper	../fonts/Verdana.ttf
982.228	n/a	WORD	491114	wordpools/wasnorm_wordpool_less_exclusions.txt	LTP287	ltpFR	4	5	-1	TAIL	1430	n/a	-1	1	1.0	1.0	upper	../fonts/Verdana.ttf
986.278	n/a	WORD	493139	wordpools/wasnorm_wordpool_less_exclusions.txt	LTP287	ltpFR	4	5	-1	CHAIR	274	n/a	-1	1	1.0	1.0	upper	../fonts/Verdana.ttf
990.366	n/a	WORD	495183	wordpools/wasnorm_wordpool_less_exclusions.txt	LTP287	ltpFR	4	5	-1	LOUNGE	845	n/a	-1	1	1.0	1.0	upper	../fonts/Verdana.ttf
996.038	n/a	REC_START	498019	n/a	LTP287	ltpFR	4	5	n/a	n/a	n/a	n/a	n/a	n/a	n/a	n/a	n/a	n/a
996.832	n/a	REC_WORD	498416	wordpools/wasnorm_wordpool_less_exclusions.txt	LTP287	ltpFR	4	5	-1	CABINET	212	n/a	-1	n/a	n/a	n/a	n/a	n/a
997.898	n/a	REC_WORD	498949	wordpools/wasnorm_wordpool_less_exclusions.txt	LTP287	ltpFR	4	5	-1	CARPET	247	n/a	-1	n/a	n/a	n/a	n/a	n/a
998.974	n/a	REC_WORD	499487	wordpools/wasnorm_wordpool_less_exclusions.txt	LTP287	ltpFR	4	5	-1	CONCRETE	361	n/a	-1	n/a	n/a	n/a	n/a	n/a
1000.118	n/a	REC_WORD	500059	wordpools/wasnorm_wordpool_less_exclusions.txt	LTP287	ltpFR	4	5	-1	HAMMER	680	n/a	-1	n/a	n/a	n/a	n/a	n/a
1001.25	n/a	REC_WORD	500625	wordpools/wasnorm_wordpool_less_exclusions.txt	LTP287	ltpFR	4	5	-1	PARROT	1015	n/a	-1	n/a	n/a	n/a	n/a	n/a
1002.382	n/a	REC_WORD	501191	wordpools/wasnorm_wordpool_less_exclusions.txt	LTP287	ltpFR	4	5	-1	POTTERY	1116	n/a	-1	n/a	n/a	n/a	n/a	n/a
1003.574	n/a	REC_WORD	501787	wordpools/wasnorm_wordpool_less_exclusions.txt	LTP287	ltpFR	4	5	-1	CRAB	397	n/a	-1	n/a	n/a	n/a	n/a	n/a
1005.45	n/a	REC_WORD	502725	wordpools/wasnorm_wordpool_less_exclusions.txt	LTP287	ltpFR	4	5	-1	CARPET	247	n/a	-1	n/a	n/a	n/a	n/a	n/a
1009.508	n/a	REC_WORD	504754	wordpools/wasnorm_wordpool_less_exclusions.txt	LTP287	ltpFR	4	5	-1	FAN	551	n/a	-1	n/a	n/a	n/a	n/a	n/a
1010.588	n/a	REC_WORD	505294	wordpools/wasnorm_wordpool_less_exclusions.txt	LTP287	ltpFR	4	5	-1	BOUQUET	157	n/a	-1	n/a	n/a	n/a	n/a	n/a
1011.782	n/a	REC_WORD	505891	wordpools/wasnorm_wordpool_less_exclusions.txt	LTP287	ltpFR	4	5	-1	BASKETBALL	96	n/a	-1	n/a	n/a	n/a	n/a	n/a
1012.832	n/a	REC_WORD	506416	wordpools/wasnorm_wordpool_less_exclusions.txt	LTP287	ltpFR	4	5	-1	CHAIR	274	n/a	-1	n/a	n/a	n/a	n/a	n/a
1013.93	n/a	REC_WORD	506965	wordpools/wasnorm_wordpool_less_exclusions.txt	LTP287	ltpFR	4	5	-1	LOUNGE	845	n/a	-1	n/a	n/a	n/a	n/a	n/a
1015.97	n/a	REC_WORD	507985	wordpools/wasnorm_wordpool_less_exclusions.txt	LTP287	ltpFR	4	5	-1	VENT	1556	n/a	-1	n/a	n/a	n/a	n/a	n/a
1017.096	n/a	REC_WORD	508548	wordpools/wasnorm_wordpool_less_exclusions.txt	LTP287	ltpFR	4	5	-1	TAIL	1430	n/a	-1	n/a	n/a	n/a	n/a	n/a
1018.272	n/a	REC_WORD	509136	wordpools/wasnorm_wordpool_less_exclusions.txt	LTP287	ltpFR	4	5	-1	DOOR	486	n/a	-1	n/a	n/a	n/a	n/a	n/a
1077.41	n/a	WORD	538705	wordpools/wasnorm_wordpool_less_exclusions.txt	LTP287	ltpFR	4	6	0	LOLLIPOP	842	n/a	0	1	0.412841796875	0.57763671875	lower	../fonts/zerothre.ttf
1081.582	n/a	WORD	540791	wordpools/wasnorm_wordpool_less_exclusions.txt	LTP287	ltpFR	4	6	0	SANDWICH	1232	n/a	0	1	0.412841796875	0.57763671875	lower	../fonts/zerothre.ttf
1085.428	n/a	WORD	542714	wordpools/wasnorm_wordpool_less_exclusions.txt	LTP287	ltpFR	4	6	0	WASHCLOTH	1591	n/a	0	1	0.412841796875	0.57763671875	lower	../fonts/zerothre.ttf
1089.606	n/a	WORD	544803	wordpools/wasnorm_wordpool_less_exclusions.txt	LTP287	ltpFR	4	6	0	SAP	1233	n/a	0	1	0.412841796875	0.57763671875	lower	../fonts/zerothre.ttf
1093.56	n/a	WORD	546780	wordpools/wasnorm_wordpool_less_exclusions.txt	LTP287	ltpFR	4	6	0	BASSINET	97	n/a	1	1	0.412841796875	0.57763671875	lower	../fonts/zerothre.ttf
1097.508	n/a	WORD	548754	wordpools/wasnorm_wordpool_less_exclusions.txt	LTP287	ltpFR	4	6	0	TART	1436	n/a	0	1	0.412841796875	0.57763671875	lower	../fonts/zerothre.ttf
1101.724	n/a	WORD	550862	wordpools/wasnorm_wordpool_less_exclusions.txt	LTP287	ltpFR	4	6	0	CHART	282	n/a	0	1	0.412841796875	0.57763671875	lower	../fonts/zerothre.ttf
1105.908	n/a	WORD	552954	wordpools/wasnorm_wordpool_less_exclusions.txt	LTP287	ltpFR	4	6	0	DRAWING	494	n/a	0	1	0.412841796875	0.57763671875	lower	../fonts/zerothre.ttf
1109.772	n/a	WORD	554886	wordpools/wasnorm_wordpool_less_exclusions.txt	LTP287	ltpFR	4	6	0	FRECKLE	602	n/a	0	1	0.412841796875	0.57763671875	lower	../fonts/zerothre.ttf
1113.648	n/a	WORD	556824	wordpools/wasnorm_wordpool_less_exclusions.txt	LTP287	ltpFR	4	6	0	CLIFF	322	n/a	1	1	0.412841796875	0.57763671875	lower	../fonts/zerothre.ttf
1117.512	n/a	WORD	558756	wordpools/wasnorm_wordpool_less_exclusions.txt	LTP287	ltpFR	4	6	0	WINDOW	1611	n/a	1	1	0.412841796875	0.57763671875	lower	../fonts/zerothre.ttf
1121.618	n/a	WORD	560809	wordpools/wasnorm_wordpool_less_exclusions.txt	LTP287	ltpFR	4	6	0	ROOT	1210	n/a	0	1	0.412841796875	0.57763671875	lower	../fonts/zerothre.ttf
1125.532	n/a	WORD	562766	wordpools/wasnorm_wordpool_less_exclusions.txt	LTP287	ltpFR	4	6	0	WICK	1607	n/a	0	1	0.412841796875	0.57763671875	lower	../fonts/zerothre.ttf
1129.726	n/a	WORD	564863	wordpools/wasnorm_wordpool_less_exclusions.txt	LTP287	ltpFR	4	6	0	FLAG	573	n/a	0	1	0.412841796875	0.57763671875	lower	../fonts/zerothre.ttf
1133.596	n/a	WORD	566798	wordpools/wasnorm_wordpool_less_exclusions.txt	LTP287	ltpFR	4	6	0	ANIMAL	23	n/a	0	1	0.412841796875	0.57763671875	lower	../fonts/zerothre.ttf
1137.64	n/a	WORD	568820	wordpools/wasnorm_wordpool_less_exclusions.txt	LTP287	ltpFR	4	6	0	BEAVER	109	n/a	0	1	0.412841796875	0.57763671875	lower	../fonts/zerothre.ttf
1143.3	n/a	REC_START	571650	n/a	LTP287	ltpFR	4	6	n/a	n/a	n/a	n/a	n/a	n/a	n/a	n/a	n/a	n/a
1143.962	n/a	REC_WORD	571981	wordpools/wasnorm_wordpool_less_exclusions.txt	LTP287	ltpFR	4	6	0	BEAVER	109	n/a	0	n/a	n/a	n/a	n/a	n/a
1144.894	n/a	REC_WORD	572447	wordpools/wasnorm_wordpool_less_exclusions.txt	LTP287	ltpFR	4	6	0	ANIMAL	23	n/a	0	n/a	n/a	n/a	n/a	n/a
1146.074	n/a	REC_WORD	573037	wordpools/wasnorm_wordpool_less_exclusions.txt	LTP287	ltpFR	4	6	0	DRAWING	494	n/a	0	n/a	n/a	n/a	n/a	n/a
1147.888	n/a	REC_WORD	573944	wordpools/wasnorm_wordpool_less_exclusions.txt	LTP287	ltpFR	4	6	0	LOLLIPOP	842	n/a	0	n/a	n/a	n/a	n/a	n/a
1148.956	n/a	REC_WORD	574478	wordpools/wasnorm_wordpool_less_exclusions.txt	LTP287	ltpFR	4	6	0	SANDWICH	1232	n/a	0	n/a	n/a	n/a	n/a	n/a
1150.22	n/a	REC_WORD	575110	wordpools/wasnorm_wordpool_less_exclusions.txt	LTP287	ltpFR	4	6	0	WASHCLOTH	1591	n/a	0	n/a	n/a	n/a	n/a	n/a
1151.44	n/a	REC_WORD	575720	wordpools/wasnorm_wordpool_less_exclusions.txt	LTP287	ltpFR	4	6	0	CLIFF	322	n/a	1	n/a	n/a	n/a	n/a	n/a
1152.534	n/a	REC_WORD	576267	wordpools/wasnorm_wordpool_less_exclusions.txt	LTP287	ltpFR	4	6	0	BASSINET	97	n/a	1	n/a	n/a	n/a	n/a	n/a
1161.662	n/a	REC_WORD	580831	wordpools/wasnorm_wordpool_less_exclusions.txt	LTP287	ltpFR	4	6	0	FLAG	573	n/a	0	n/a	n/a	n/a	n/a	n/a
1169.854	n/a	REC_WORD	584927	wordpools/wasnorm_wordpool_less_exclusions.txt	LTP287	ltpFR	4	6	0	SAP	1233	n/a	0	n/a	n/a	n/a	n/a	n/a
1233.322	n/a	WORD	616661	wordpools/wasnorm_wordpool_less_exclusions.txt	LTP287	ltpFR	4	7	0	GOO	648	n/a	0	1	0.412841796875	0.57763671875	lower	../fonts/zerothre.ttf
1237.344	n/a	WORD	618672	wordpools/wasnorm_wordpool_less_exclusions.txt	LTP287	ltpFR	4	7	0	WORM	1623	n/a	0	1	0.412841796875	0.57763671875	lower	../fonts/zerothre.ttf
1241.224	n/a	WORD	620612	wordpools/wasnorm_wordpool_less_exclusions.txt	LTP287	ltpFR	4	7	0	CENT	270	n/a	0	1	0.412841796875	0.57763671875	lower	../fonts/zerothre.ttf
1245.302	n/a	WORD	622651	wordpools/wasnorm_wordpool_less_exclusions.txt	LTP287	ltpFR	4	7	0	TOMATO	1476	n/a	0	1	0.412841796875	0.57763671875	lower	../fonts/zerothre.ttf
1249.138	n/a	WORD	624569	wordpools/wasnorm_wordpool_less_exclusions.txt	LTP287	ltpFR	4	7	0	TOAST	1471	n/a	0	1	0.412841796875	0.57763671875	lower	../fonts/zerothre.ttf
1253.002	n/a	WORD	626501	wordpools/wasnorm_wordpool_less_exclusions.txt	LTP287	ltpFR	4	7	0	CAFE	216	n/a	1	1	0.412841796875	0.57763671875	lower	../fonts/zerothre.ttf
1256.844	n/a	WORD	628422	wordpools/wasnorm_wordpool_less_exclusions.txt	LTP287	ltpFR	4	7	0	COOK	372	n/a	1	1	0.412841796875	0.57763671875	lower	../fonts/zerothre.ttf
1260.844	n/a	WORD	630422	wordpools/wasnorm_wordpool_less_exclusions.txt	LTP287	ltpFR	4	7	0	WELL	1600	n/a	1	1	0.412841796875	0.57763671875	lower	../fonts/zerothre.ttf
1264.916	n/a	WORD	632458	wordpools/wasnorm_wordpool_less_exclusions.txt	LTP287	ltpFR	4	7	0	LONDON	843	n/a	1	1	0.412841796875	0.57763671875	lower	../fonts/zerothre.ttf
1268.864	n/a	WORD	634432	wordpools/wasnorm_wordpool_less_exclusions.txt	LTP287	ltpFR	4	7	0	COSTUME	383	n/a	1	1	0.412841796875	0.57763671875	lower	../fonts/zerothre.ttf
1272.84	n/a	WORD	636420	wordpools/wasnorm_wordpool_less_exclusions.txt	LTP287	ltpFR	4	7	0	PIT	1077	n/a	1	1	0.412841796875	0.57763671875	lower	../fonts/zerothre.ttf
1277.044	n/a	WORD	638522	wordpools/wasnorm_wordpool_less_exclusions.txt	LTP287	ltpFR	4	7	0	BREAD	170	n/a	0	1	0.412841796875	0.57763671875	lower	../fonts/zerothre.ttf
1281.194	n/a	WORD	640597	wordpools/wasnorm_wordpool_less_exclusions.txt	LTP287	ltpFR	4	7	0	PARTY	1018	n/a	1	1	0.412841796875	0.57763671875	lower	../fonts/zerothre.ttf
1285.354	n/a	WORD	642677	wordpools/wasnorm_wordpool_less_exclusions.txt	LTP287	ltpFR	4	7	0	FIG	563	n/a	0	1	0.412841796875	0.57763671875	lower	../fonts/zerothre.ttf
1289.436	n/a	WORD	644718	wordpools/wasnorm_wordpool_less_exclusions.txt	LTP287	ltpFR	4	7	0	BARK	87	n/a	0	1	0.412841796875	0.57763671875	lower	../fonts/zerothre.ttf
1293.542	n/a	WORD	646771	wordpools/wasnorm_wordpool_less_exclusions.txt	LTP287	ltpFR	4	7	0	FLEA	577	n/a	0	1	0.412841796875	0.57763671875	lower	../fonts/zerothre.ttf
1299.392	n/a	REC_START	649696	n/a	LTP287	ltpFR	4	7	n/a	n/a	n/a	n/a	n/a	n/a	n/a	n/a	n/a	n/a
1300.208	n/a	REC_WORD	650104	wordpools/wasnorm_wordpool_less_exclusions.txt	LTP287	ltpFR	4	7	0	FLEA	577	n/a	0	n/a	n/a	n/a	n/a	n/a
1301.552	n/a	REC_WORD	650776	wordpools/wasnorm_wordpool_less_exclusions.txt	LTP287	ltpFR	4	7	0	BARK	87	n/a	0	n/a	n/a	n/a	n/a	n/a
1302.408	n/a	REC_WORD	651204	wordpools/wasnorm_wordpool_less_exclusions.txt	LTP287	ltpFR	4	7	0	CAFE	216	n/a	1	n/a	n/a	n/a	n/a	n/a
1303.756	n/a	REC_WORD	651878	wordpools/wasnorm_wordpool_less_exclusions.txt	LTP287	ltpFR	4	7	0	COOK	372	n/a	1	n/a	n/a	n/a	n/a	n/a
1304.912	n/a	REC_WORD	652456	wordpools/wasnorm_wordpool_less_exclusions.txt	LTP287	ltpFR	4	7	0	GOO	648	n/a	0	n/a	n/a	n/a	n/a	n/a
1305.914	n/a	REC_WORD	652957	wordpools/wasnorm_wordpool_less_exclusions.txt	LTP287	ltpFR	4	7	0	WORM	1623	n/a	0	n/a	n/a	n/a	n/a	n/a
1306.956	n/a	REC_WORD	653478	wordpools/wasnorm_wordpool_less_exclusions.txt	LTP287	ltpFR	4	7	0	TOMATO	1476	n/a	0	n/a	n/a	n/a	n/a	n/a
1307.996	n/a	REC_WORD	653998	wordpools/wasnorm_wordpool_less_exclusions.txt	LTP287	ltpFR	4	7	0	CENT	270	n/a	0	n/a	n/a	n/a	n/a	n/a
1309.33	n/a	REC_WORD	654665	wordpools/wasnorm_wordpool_less_exclusions.txt	LTP287	ltpFR	4	7	0	BREAD	170	n/a	0	n/a	n/a	n/a	n/a	n/a
1310.38	n/a	REC_WORD	655190	wordpools/wasnorm_wordpool_less_exclusions.txt	LTP287	ltpFR	4	7	0	WELL	1600	n/a	1	n/a	n/a	n/a	n/a	n/a
1311.528	n/a	REC_WORD	655764	wordpools/wasnorm_wordpool_less_exclusions.txt	LTP287	ltpFR	4	7	0	PIT	1077	n/a	1	n/a	n/a	n/a	n/a	n/a
1312.584	n/a	REC_WORD	656292	wordpools/wasnorm_wordpool_less_exclusions.txt	LTP287	ltpFR	4	7	0	COSTUME	383	n/a	1	n/a	n/a	n/a	n/a	n/a
1313.758	n/a	REC_WORD	656879	wordpools/wasnorm_wordpool_less_exclusions.txt	LTP287	ltpFR	4	7	0	LONDON	843	n/a	1	n/a	n/a	n/a	n/a	n/a
1385.152	n/a	WORD	692576	wordpools/wasnorm_wordpool_less_exclusions.txt	LTP287	ltpFR	4	8	-1	TANGERINE	1431	n/a	-1	1	1.0	1.0	upper	../fonts/Verdana.ttf
1389.238	n/a	WORD	694619	wordpools/wasnorm_wordpool_less_exclusions.txt	LTP287	ltpFR	4	8	-1	ISLAND	745	n/a	-1	1	1.0	1.0	upper	../fonts/Verdana.ttf
1393.072	n/a	WORD	696536	wordpools/wasnorm_wordpool_less_exclusions.txt	LTP287	ltpFR	4	8	-1	ASTEROID	50	n/a	-1	1	1.0	1.0	upper	../fonts/Verdana.ttf
1397.236	n/a	WORD	698618	wordpools/wasnorm_wordpool_less_exclusions.txt	LTP287	ltpFR	4	8	-1	TIDE	1465	n/a	-1	1	1.0	1.0	upper	../fonts/Verdana.ttf
1401.152	n/a	WORD	700576	wordpools/wasnorm_wordpool_less_exclusions.txt	LTP287	ltpFR	4	8	-1	MUFFIN	929	n/a	-1	1	1.0	1.0	upper	../fonts/Verdana.ttf
1405.318	n/a	WORD	702659	wordpools/wasnorm_wordpool_less_exclusions.txt	LTP287	ltpFR	4	8	-1	POPCORN	1104	n/a	-1	1	1.0	1.0	upper	../fonts/Verdana.ttf
1409.418	n/a	WORD	704709	wordpools/wasnorm_wordpool_less_exclusions.txt	LTP287	ltpFR	4	8	-1	SILVERWARE	1308	n/a	-1	1	1.0	1.0	upper	../fonts/Verdana.ttf
1413.46	n/a	WORD	706730	wordpools/wasnorm_wordpool_less_exclusions.txt	LTP287	ltpFR	4	8	-1	BANQUET	86	n/a	-1	1	1.0	1.0	upper	../fonts/Verdana.ttf
1417.532	n/a	WORD	708766	wordpools/wasnorm_wordpool_less_exclusions.txt	LTP287	ltpFR	4	8	-1	NEPTUNE	943	n/a	-1	1	1.0	1.0	upper	../fonts/Verdana.ttf
1421.648	n/a	WORD	710824	wordpools/wasnorm_wordpool_less_exclusions.txt	LTP287	ltpFR	4	8	-1	OCEAN	970	n/a	-1	1	1.0	1.0	upper	../fonts/Verdana.ttf
1425.83	n/a	WORD	712915	wordpools/wasnorm_wordpool_less_exclusions.txt	LTP287	ltpFR	4	8	-1	ELEPHANT	523	n/a	-1	1	1.0	1.0	upper	../fonts/Verdana.ttf
1429.946	n/a	WORD	714973	wordpools/wasnorm_wordpool_less_exclusions.txt	LTP287	ltpFR	4	8	-1	CREW	406	n/a	-1	1	1.0	1.0	upper	../fonts/Verdana.ttf
1433.872	n/a	WORD	716936	wordpools/wasnorm_wordpool_less_exclusions.txt	LTP287	ltpFR	4	8	-1	PERCH	1048	n/a	-1	1	1.0	1.0	upper	../fonts/Verdana.ttf
1437.81	n/a	WORD	718905	wordpools/wasnorm_wordpool_less_exclusions.txt	LTP287	ltpFR	4	8	-1	DAM	436	n/a	-1	1	1.0	1.0	upper	../fonts/Verdana.ttf
1441.774	n/a	WORD	720887	wordpools/wasnorm_wordpool_less_exclusions.txt	LTP287	ltpFR	4	8	-1	CANAL	226	n/a	-1	1	1.0	1.0	upper	../fonts/Verdana.ttf
1445.716	n/a	WORD	722858	wordpools/wasnorm_wordpool_less_exclusions.txt	LTP287	ltpFR	4	8	-1	HOSE	720	n/a	-1	1	1.0	1.0	upper	../fonts/Verdana.ttf
1451.646	n/a	REC_START	725823	n/a	LTP287	ltpFR	4	8	n/a	n/a	n/a	n/a	n/a	n/a	n/a	n/a	n/a	n/a
1452.508	n/a	REC_WORD	726254	wordpools/wasnorm_wordpool_less_exclusions.txt	LTP287	ltpFR	4	8	-1	PERCH	1048	n/a	-1	n/a	n/a	n/a	n/a	n/a
1453.648	n/a	REC_WORD	726824	wordpools/wasnorm_wordpool_less_exclusions.txt	LTP287	ltpFR	4	8	-1	DAM	436	n/a	-1	n/a	n/a	n/a	n/a	n/a
1454.544	n/a	REC_WORD	727272	wordpools/wasnorm_wordpool_less_exclusions.txt	LTP287	ltpFR	4	8	-1	CANAL	226	n/a	-1	n/a	n/a	n/a	n/a	n/a
1455.658	n/a	REC_WORD	727829	wordpools/wasnorm_wordpool_less_exclusions.txt	LTP287	ltpFR	4	8	-1	HOSE	720	n/a	-1	n/a	n/a	n/a	n/a	n/a
1456.694	n/a	REC_WORD	728347	wordpools/wasnorm_wordpool_less_exclusions.txt	LTP287	ltpFR	4	8	-1	TANGERINE	1431	n/a	-1	n/a	n/a	n/a	n/a	n/a
1458.048	n/a	REC_WORD	729024	wordpools/wasnorm_wordpool_less_exclusions.txt	LTP287	ltpFR	4	8	-1	ISLAND	745	n/a	-1	n/a	n/a	n/a	n/a	n/a
1459.068	n/a	REC_WORD	729534	wordpools/wasnorm_wordpool_less_exclusions.txt	LTP287	ltpFR	4	8	-1	ASTEROID	50	n/a	-1	n/a	n/a	n/a	n/a	n/a
1460.27	n/a	REC_WORD	730135	wordpools/wasnorm_wordpool_less_exclusions.txt	LTP287	ltpFR	4	8	-1	TIDE	1465	n/a	-1	n/a	n/a	n/a	n/a	n/a
1461.284	n/a	REC_WORD	730642	wordpools/wasnorm_wordpool_less_exclusions.txt	LTP287	ltpFR	4	8	-1	MUFFIN	929	n/a	-1	n/a	n/a	n/a	n/a	n/a
1462.436	n/a	REC_WORD	731218	wordpools/wasnorm_wordpool_less_exclusions.txt	LTP287	ltpFR	4	8	-1	POPCORN	1104	n/a	-1	n/a	n/a	n/a	n/a	n/a
1463.52	n/a	REC_WORD	731760	wordpools/wasnorm_wordpool_less_exclusions.txt	LTP287	ltpFR	4	8	-1	SILVERWARE	1308	n/a	-1	n/a	n/a	n/a	n/a	n/a
1464.914	n/a	REC_WORD	732457	wordpools/wasnorm_wordpool_less_exclusions.txt	LTP287	ltpFR	4	8	-1	BANQUET	86	n/a	-1	n/a	n/a	n/a	n/a	n/a
1469.446	n/a	REC_WORD	734723	wordpools/wasnorm_wordpool_less_exclusions.txt	LTP287	ltpFR	4	8	-1	NEPTUNE	943	n/a	-1	n/a	n/a	n/a	n/a	n/a
1470.766	n/a	REC_WORD	735383	wordpools/wasnorm_wordpool_less_exclusions.txt	LTP287	ltpFR	4	8	-1	OCEAN	970	n/a	-1	n/a	n/a	n/a	n/a	n/a
1527.302	n/a	REST_REWET	763651	n/a	LTP287	ltpFR	4	8	n/a	n/a	n/a	n/a	n/a	n/a	n/a	n/a	n/a	n/a
1772.516	n/a	WORD	886258	wordpools/wasnorm_wordpool_less_exclusions.txt	LTP287	ltpFR	4	9	1	GALAXY	617	n/a	0	0	0.5869140625	0.422607421875	upper	../fonts/amplitud.ttf
1776.504	n/a	WORD	888252	wordpools/wasnorm_wordpool_less_exclusions.txt	LTP287	ltpFR	4	9	1	AIRPORT	13	n/a	0	0	0.5869140625	0.422607421875	upper	../fonts/amplitud.ttf
1780.72	n/a	WORD	890360	wordpools/wasnorm_wordpool_less_exclusions.txt	LTP287	ltpFR	4	9	1	PAIL	1002	n/a	0	0	0.5869140625	0.422607421875	upper	../fonts/amplitud.ttf
1784.6	n/a	WORD	892300	wordpools/wasnorm_wordpool_less_exclusions.txt	LTP287	ltpFR	4	9	1	CUPBOARD	425	n/a	0	0	0.5869140625	0.422607421875	upper	../fonts/amplitud.ttf
1788.734	n/a	WORD	894367	wordpools/wasnorm_wordpool_less_exclusions.txt	LTP287	ltpFR	4	9	1	GLOBE	641	n/a	0	0	0.5869140625	0.422607421875	upper	../fonts/amplitud.ttf
1792.8	n/a	WORD	896400	wordpools/wasnorm_wordpool_less_exclusions.txt	LTP287	ltpFR	4	9	1	CONTRACT	368	n/a	0	0	0.5869140625	0.422607421875	upper	../fonts/amplitud.ttf
1796.664	n/a	WORD	898332	wordpools/wasnorm_wordpool_less_exclusions.txt	LTP287	ltpFR	4	9	1	BULLY	196	n/a	1	0	0.5869140625	0.422607421875	upper	../fonts/amplitud.ttf
1800.546	n/a	WORD	900273	wordpools/wasnorm_wordpool_less_exclusions.txt	LTP287	ltpFR	4	9	1	BOY	161	n/a	1	0	0.5869140625	0.422607421875	upper	../fonts/amplitud.ttf
1804.426	n/a	WORD	902213	wordpools/wasnorm_wordpool_less_exclusions.txt	LTP287	ltpFR	4	9	1	RECEPTIONIST	1174	n/a	1	0	0.5869140625	0.422607421875	upper	../fonts/amplitud.ttf
1808.408	n/a	WORD	904204	wordpools/wasnorm_wordpool_less_exclusions.txt	LTP287	ltpFR	4	9	1	WORKER	1621	n/a	1	0	0.5869140625	0.422607421875	upper	../fonts/amplitud.ttf
1812.524	n/a	WORD	906262	wordpools/wasnorm_wordpool_less_exclusions.txt	LTP287	ltpFR	4	9	1	CONTAINER	366	n/a	0	0	0.5869140625	0.422607421875	upper	../fonts/amplitud.ttf
1816.406	n/a	WORD	908203	wordpools/wasnorm_wordpool_less_exclusions.txt	LTP287	ltpFR	4	9	1	LAKE	796	n/a	0	0	0.5869140625	0.422607421875	upper	../fonts/amplitud.ttf
1820.422	n/a	WORD	910211	wordpools/wasnorm_wordpool_less_exclusions.txt	LTP287	ltpFR	4	9	1	COIN	343	n/a	0	0	0.5869140625	0.422607421875	upper	../fonts/amplitud.ttf
1824.62	n/a	WORD	912310	wordpools/wasnorm_wordpool_less_exclusions.txt	LTP287	ltpFR	4	9	1	LIME	823	n/a	1	0	0.5869140625	0.422607421875	upper	../fonts/amplitud.ttf
1828.502	n/a	WORD	914251	wordpools/wasnorm_wordpool_less_exclusions.txt	LTP287	ltpFR	4	9	1	LASER	801	n/a	0	0	0.5869140625	0.422607421875	upper	../fonts/amplitud.ttf
1832.428	n/a	WORD	916214	wordpools/wasnorm_wordpool_less_exclusions.txt	LTP287	ltpFR	4	9	1	FLASHLIGHT	575	n/a	0	0	0.5869140625	0.422607421875	upper	../fonts/amplitud.ttf
1838.336	n/a	REC_START	919168	n/a	LTP287	ltpFR	4	9	n/a	n/a	n/a	n/a	n/a	n/a	n/a	n/a	n/a	n/a
1839.384	n/a	REC_WORD	919692	wordpools/wasnorm_wordpool_less_exclusions.txt	LTP287	ltpFR	4	9	1	LIME	823	n/a	1	n/a	n/a	n/a	n/a	n/a
1840.434	n/a	REC_WORD	920217	wordpools/wasnorm_wordpool_less_exclusions.txt	LTP287	ltpFR	4	9	1	LASER	801	n/a	0	n/a	n/a	n/a	n/a	n/a
1841.526	n/a	REC_WORD	920763	wordpools/wasnorm_wordpool_less_exclusions.txt	LTP287	ltpFR	4	9	1	FLASHLIGHT	575	n/a	0	n/a	n/a	n/a	n/a	n/a
1842.802	n/a	REC_WORD	921401	wordpools/wasnorm_wordpool_less_exclusions.txt	LTP287	ltpFR	4	9	1	COIN	343	n/a	0	n/a	n/a	n/a	n/a	n/a
1844.12	n/a	REC_WORD	922060	wordpools/wasnorm_wordpool_less_exclusions.txt	LTP287	ltpFR	4	9	1	GALAXY	617	n/a	0	n/a	n/a	n/a	n/a	n/a
1845.35	n/a	REC_WORD	922675	wordpools/wasnorm_wordpool_less_exclusions.txt	LTP287	ltpFR	4	9	1	AIRPORT	13	n/a	0	n/a	n/a	n/a	n/a	n/a
1846.968	n/a	REC_WORD	923484	wordpools/wasnorm_wordpool_less_exclusions.txt	LTP287	ltpFR	4	9	1	PAIL	1002	n/a	0	n/a	n/a	n/a	n/a	n/a
1848.224	n/a	REC_WORD	924112	wordpools/wasnorm_wordpool_less_exclusions.txt	LTP287	ltpFR	4	9	1	CUPBOARD	425	n/a	0	n/a	n/a	n/a	n/a	n/a
1849.562	n/a	REC_WORD	924781	wordpools/wasnorm_wordpool_less_exclusions.txt	LTP287	ltpFR	4	9	1	BULLY	196	n/a	1	n/a	n/a	n/a	n/a	n/a
1850.79	n/a	REC_WORD	925395	wordpools/wasnorm_wordpool_less_exclusions.txt	LTP287	ltpFR	4	9	1	BOY	161	n/a	1	n/a	n/a	n/a	n/a	n/a
1851.954	n/a	REC_WORD	925977	wordpools/wasnorm_wordpool_less_exclusions.txt	LTP287	ltpFR	4	9	1	CONTRACT	368	n/a	0	n/a	n/a	n/a	n/a	n/a
1854.212	n/a	REC_WORD	927106	wordpools/wasnorm_wordpool_less_exclusions.txt	LTP287	ltpFR	4	9	1	RECEPTIONIST	1174	n/a	1	n/a	n/a	n/a	n/a	n/a
1855.544	n/a	REC_WORD	927772	wordpools/wasnorm_wordpool_less_exclusions.txt	LTP287	ltpFR	4	9	1	WORKER	1621	n/a	1	n/a	n/a	n/a	n/a	n/a
1920.212	n/a	WORD	960106	wordpools/wasnorm_wordpool_less_exclusions.txt	LTP287	ltpFR	4	10	0	EUROPE	541	n/a	1	1	0.412841796875	0.57763671875	lower	../fonts/zerothre.ttf
1924.414	n/a	WORD	962207	wordpools/wasnorm_wordpool_less_exclusions.txt	LTP287	ltpFR	4	10	0	COUNTRY	388	n/a	1	1	0.412841796875	0.57763671875	lower	../fonts/zerothre.ttf
1928.612	n/a	WORD	964306	wordpools/wasnorm_wordpool_less_exclusions.txt	LTP287	ltpFR	4	10	0	PARENT	1013	n/a	1	1	0.412841796875	0.57763671875	lower	../fonts/zerothre.ttf
1932.612	n/a	WORD	966306	wordpools/wasnorm_wordpool_less_exclusions.txt	LTP287	ltpFR	4	10	0	ASTRONAUT	51	n/a	1	1	0.412841796875	0.57763671875	lower	../fonts/zerothre.ttf
1936.698	n/a	WORD	968349	wordpools/wasnorm_wordpool_less_exclusions.txt	LTP287	ltpFR	4	10	1	CLASS	318	n/a	0	0	0.5869140625	0.422607421875	upper	../fonts/amplitud.ttf
1940.898	n/a	WORD	970449	wordpools/wasnorm_wordpool_less_exclusions.txt	LTP287	ltpFR	4	10	1	OINTMENT	974	n/a	0	0	0.5869140625	0.422607421875	upper	../fonts/amplitud.ttf
1944.93	n/a	WORD	972465	wordpools/wasnorm_wordpool_less_exclusions.txt	LTP287	ltpFR	4	10	1	MACARONI	851	n/a	0	0	0.5869140625	0.422607421875	upper	../fonts/amplitud.ttf
1948.93	n/a	WORD	974465	wordpools/wasnorm_wordpool_less_exclusions.txt	LTP287	ltpFR	4	10	1	ASSISTANT	48	n/a	1	0	0.5869140625	0.422607421875	upper	../fonts/amplitud.ttf
1953.012	n/a	WORD	976506	wordpools/wasnorm_wordpool_less_exclusions.txt	LTP287	ltpFR	4	10	1	RASPBERRY	1168	n/a	1	0	0.5869140625	0.422607421875	upper	../fonts/amplitud.ttf
1957.11	n/a	WORD	978555	wordpools/wasnorm_wordpool_less_exclusions.txt	LTP287	ltpFR	4	10	0	CARROT	249	n/a	0	1	0.412841796875	0.57763671875	lower	../fonts/zerothre.ttf
1961.17	n/a	WORD	980585	wordpools/wasnorm_wordpool_less_exclusions.txt	LTP287	ltpFR	4	10	0	PLAYGROUND	1087	n/a	1	1	0.412841796875	0.57763671875	lower	../fonts/zerothre.ttf
1965.074	n/a	WORD	982537	wordpools/wasnorm_wordpool_less_exclusions.txt	LTP287	ltpFR	4	10	1	METEOR	889	n/a	0	0	0.5869140625	0.422607421875	upper	../fonts/amplitud.ttf
1968.972	n/a	WORD	984486	wordpools/wasnorm_wordpool_less_exclusions.txt	LTP287	ltpFR	4	10	1	BARTENDER	92	n/a	1	0	0.5869140625	0.422607421875	upper	../fonts/amplitud.ttf
1972.92	n/a	WORD	986460	wordpools/wasnorm_wordpool_less_exclusions.txt	LTP287	ltpFR	4	10	1	BRANDY	169	n/a	0	0	0.5869140625	0.422607421875	upper	../fonts/amplitud.ttf
1976.886	n/a	WORD	988443	wordpools/wasnorm_wordpool_less_exclusions.txt	LTP287	ltpFR	4	10	0	EMPLOYER	532	n/a	1	1	0.412841796875	0.57763671875	lower	../fonts/zerothre.ttf
1980.768	n/a	WORD	990384	wordpools/wasnorm_wordpool_less_exclusions.txt	LTP287	ltpFR	4	10	0	LAVA	804	n/a	0	1	0.412841796875	0.57763671875	lower	../fonts/zerothre.ttf
1986.574	n/a	REC_START	993287	n/a	LTP287	ltpFR	4	10	n/a	n/a	n/a	n/a	n/a	n/a	n/a	n/a	n/a	n/a
1987.418	n/a	REC_WORD	993709	wordpools/wasnorm_wordpool_less_exclusions.txt	LTP287	ltpFR	4	10	0	LAVA	804	n/a	0	n/a	n/a	n/a	n/a	n/a
1988.57	n/a	REC_WORD	994285	wordpools/wasnorm_wordpool_less_exclusions.txt	LTP287	ltpFR	4	10	1	METEOR	889	n/a	0	n/a	n/a	n/a	n/a	n/a
1989.82	n/a	REC_WORD	994910	wordpools/wasnorm_wordpool_less_exclusions.txt	LTP287	ltpFR	4	10	0	COUNTRY	388	n/a	1	n/a	n/a	n/a	n/a	n/a
1990.98	n/a	REC_WORD	995490	wordpools/wasnorm_wordpool_less_exclusions.txt	LTP287	ltpFR	4	10	0	EUROPE	541	n/a	1	n/a	n/a	n/a	n/a	n/a
1992.27	n/a	REC_WORD	996135	wordpools/wasnorm_wordpool_less_exclusions.txt	LTP287	ltpFR	4	10	0	ASTRONAUT	51	n/a	1	n/a	n/a	n/a	n/a	n/a
1993.522	n/a	REC_WORD	996761	wordpools/wasnorm_wordpool_less_exclusions.txt	LTP287	ltpFR	4	10	1	OINTMENT	974	n/a	0	n/a	n/a	n/a	n/a	n/a
1997.274	n/a	REC_WORD	998637	wordpools/wasnorm_wordpool_less_exclusions.txt	LTP287	ltpFR	4	10	1	CLASS	318	n/a	0	n/a	n/a	n/a	n/a	n/a
2024.446	n/a	REC_WORD	1012223	wordpools/wasnorm_wordpool_less_exclusions.txt	LTP287	ltpFR	4	10	1	ASSISTANT	48	n/a	1	n/a	n/a	n/a	n/a	n/a
2026.704	n/a	REC_WORD	1013352	wordpools/wasnorm_wordpool_less_exclusions.txt	LTP287	ltpFR	4	10	1	RASPBERRY	1168	n/a	1	n/a	n/a	n/a	n/a	n/a
2029.194	n/a	REC_WORD	1014597	wordpools/wasnorm_wordpool_less_exclusions.txt	LTP287	ltpFR	4	10	0	CARROT	249	n/a	0	n/a	n/a	n/a	n/a	n/a
2031.066	n/a	REC_WORD	1015533	wordpools/wasnorm_wordpool_less_exclusions.txt	LTP287	ltpFR	4	10	0	PLAYGROUND	1087	n/a	1	n/a	n/a	n/a	n/a	n/a
2081.686	n/a	WORD	1040843	wordpools/wasnorm_wordpool_less_exclusions.txt	LTP287	ltpFR	4	11	1	MAYONNAISE	880	n/a	0	0	0.5869140625	0.422607421875	upper	../fonts/amplitud.ttf
2085.602	n/a	WORD	1042801	wordpools/wasnorm_wordpool_less_exclusions.txt	LTP287	ltpFR	4	11	1	SEAFOOD	1260	n/a	0	0	0.5869140625	0.422607421875	upper	../fonts/amplitud.ttf
2089.46	n/a	WORD	1044730	wordpools/wasnorm_wordpool_less_exclusions.txt	LTP287	ltpFR	4	11	1	WHALE	1601	n/a	1	0	0.5869140625	0.422607421875	upper	../fonts/amplitud.ttf
2093.332	n/a	WORD	1046666	wordpools/wasnorm_wordpool_less_exclusions.txt	LTP287	ltpFR	4	11	1	PAW	1029	n/a	0	0	0.5869140625	0.422607421875	upper	../fonts/amplitud.ttf
2097.48	n/a	WORD	1048740	wordpools/wasnorm_wordpool_less_exclusions.txt	LTP287	ltpFR	4	11	1	LAPEL	800	n/a	0	0	0.5869140625	0.422607421875	upper	../fonts/amplitud.ttf
2101.312	n/a	WORD	1050656	wordpools/wasnorm_wordpool_less_exclusions.txt	LTP287	ltpFR	4	11	1	REPORT	1184	n/a	0	0	0.5869140625	0.422607421875	upper	../fonts/amplitud.ttf
2105.258	n/a	WORD	1052629	wordpools/wasnorm_wordpool_less_exclusions.txt	LTP287	ltpFR	4	11	1	VOLLEYBALL	1576	n/a	0	0	0.5869140625	0.422607421875	upper	../fonts/amplitud.ttf
2109.206	n/a	WORD	1054603	wordpools/wasnorm_wordpool_less_exclusions.txt	LTP287	ltpFR	4	11	1	WALRUS	1585	n/a	1	0	0.5869140625	0.422607421875	upper	../fonts/amplitud.ttf
2113.25	n/a	WORD	1056625	wordpools/wasnorm_wordpool_less_exclusions.txt	LTP287	ltpFR	4	11	1	CHAMPION	279	n/a	1	0	0.5869140625	0.422607421875	upper	../fonts/amplitud.ttf
2117.232	n/a	WORD	1058616	wordpools/wasnorm_wordpool_less_exclusions.txt	LTP287	ltpFR	4	11	1	VICTOR	1563	n/a	1	0	0.5869140625	0.422607421875	upper	../fonts/amplitud.ttf
2121.372	n/a	WORD	1060686	wordpools/wasnorm_wordpool_less_exclusions.txt	LTP287	ltpFR	4	11	1	FLANNEL	574	n/a	0	0	0.5869140625	0.422607421875	upper	../fonts/amplitud.ttf
2125.554	n/a	WORD	1062777	wordpools/wasnorm_wordpool_less_exclusions.txt	LTP287	ltpFR	4	11	1	LIST	830	n/a	0	0	0.5869140625	0.422607421875	upper	../fonts/amplitud.ttf
2129.78	n/a	WORD	1064890	wordpools/wasnorm_wordpool_less_exclusions.txt	LTP287	ltpFR	4	11	1	SPAGHETTI	1346	n/a	0	0	0.5869140625	0.422607421875	upper	../fonts/amplitud.ttf
2133.898	n/a	WORD	1066949	wordpools/wasnorm_wordpool_less_exclusions.txt	LTP287	ltpFR	4	11	1	BLOUSE	139	n/a	0	0	0.5869140625	0.422607421875	upper	../fonts/amplitud.ttf
2137.902	n/a	WORD	1068951	wordpools/wasnorm_wordpool_less_exclusions.txt	LTP287	ltpFR	4	11	1	AFRICA	9	n/a	0	0	0.5869140625	0.422607421875	upper	../fonts/amplitud.ttf
2141.726	n/a	WORD	1070863	wordpools/wasnorm_wordpool_less_exclusions.txt	LTP287	ltpFR	4	11	1	BEAST	108	n/a	1	0	0.5869140625	0.422607421875	upper	../fonts/amplitud.ttf
2147.45	n/a	REC_START	1073725	n/a	LTP287	ltpFR	4	11	n/a	n/a	n/a	n/a	n/a	n/a	n/a	n/a	n/a	n/a
2148.54	n/a	REC_WORD	1074270	wordpools/wasnorm_wordpool_less_exclusions.txt	LTP287	ltpFR	4	11	1	BEAST	108	n/a	1	n/a	n/a	n/a	n/a	n/a
2149.612	n/a	REC_WORD	1074806	wordpools/wasnorm_wordpool_less_exclusions.txt	LTP287	ltpFR	4	11	1	AFRICA	9	n/a	0	n/a	n/a	n/a	n/a	n/a
2150.732	n/a	REC_WORD	1075366	wordpools/wasnorm_wordpool_less_exclusions.txt	LTP287	ltpFR	4	11	1	MAYONNAISE	880	n/a	0	n/a	n/a	n/a	n/a	n/a
2151.904	n/a	REC_WORD	1075952	wordpools/wasnorm_wordpool_less_exclusions.txt	LTP287	ltpFR	4	11	1	VOLLEYBALL	1576	n/a	0	n/a	n/a	n/a	n/a	n/a
2152.994	n/a	REC_WORD	1076497	wordpools/wasnorm_wordpool_less_exclusions.txt	LTP287	ltpFR	4	11	1	FLANNEL	574	n/a	0	n/a	n/a	n/a	n/a	n/a
2154.286	n/a	REC_WORD	1077143	wordpools/wasnorm_wordpool_less_exclusions.txt	LTP287	ltpFR	4	11	1	REPORT	1184	n/a	0	n/a	n/a	n/a	n/a	n/a
2155.548	n/a	REC_WORD	1077774	wordpools/wasnorm_wordpool_less_exclusions.txt	LTP287	ltpFR	4	11	1	LIST	830	n/a	0	n/a	n/a	n/a	n/a	n/a
2156.84	n/a	REC_WORD	1078420	wordpools/wasnorm_wordpool_less_exclusions.txt	LTP287	ltpFR	4	11	1	BLOUSE	139	n/a	0	n/a	n/a	n/a	n/a	n/a
2159.33	n/a	REC_WORD	1079665	wordpools/wasnorm_wordpool_less_exclusions.txt	LTP287	ltpFR	4	11	1	SPAGHETTI	1346	n/a	0	n/a	n/a	n/a	n/a	n/a
2167.538	n/a	REC_WORD	1083769	wordpools/wasnorm_wordpool_less_exclusions.txt	LTP287	ltpFR	4	11	1	SEAFOOD	1260	n/a	0	n/a	n/a	n/a	n/a	n/a
2241.642	n/a	WORD	1120821	wordpools/wasnorm_wordpool_less_exclusions.txt	LTP287	ltpFR	4	12	1	BARREL	91	n/a	0	0	0.5869140625	0.422607421875	upper	../fonts/amplitud.ttf
2245.83	n/a	WORD	1122915	wordpools/wasnorm_wordpool_less_exclusions.txt	LTP287	ltpFR	4	12	1	SHORTS	1293	n/a	0	0	0.5869140625	0.422607421875	upper	../fonts/amplitud.ttf
2249.88	n/a	WORD	1124940	wordpools/wasnorm_wordpool_less_exclusions.txt	LTP287	ltpFR	4	12	1	STEWARDESS	1381	n/a	1	0	0.5869140625	0.422607421875	upper	../fonts/amplitud.ttf
2254.078	n/a	WORD	1127039	wordpools/wasnorm_wordpool_less_exclusions.txt	LTP287	ltpFR	4	12	1	CURB	426	n/a	0	0	0.5869140625	0.422607421875	upper	../fonts/amplitud.ttf
2258.21	n/a	WORD	1129105	wordpools/wasnorm_wordpool_less_exclusions.txt	LTP287	ltpFR	4	12	1	PATH	1023	n/a	0	0	0.5869140625	0.422607421875	upper	../fonts/amplitud.ttf
2262.36	n/a	WORD	1131180	wordpools/wasnorm_wordpool_less_exclusions.txt	LTP287	ltpFR	4	12	1	SUPERMARKET	1409	n/a	0	0	0.5869140625	0.422607421875	upper	../fonts/amplitud.ttf
2266.202	n/a	WORD	1133101	wordpools/wasnorm_wordpool_less_exclusions.txt	LTP287	ltpFR	4	12	1	MEAT	883	n/a	0	0	0.5869140625	0.422607421875	upper	../fonts/amplitud.ttf
2270.256	n/a	WORD	1135128	wordpools/wasnorm_wordpool_less_exclusions.txt	LTP287	ltpFR	4	12	1	GUARD	667	n/a	1	0	0.5869140625	0.422607421875	upper	../fonts/amplitud.ttf
2274.138	n/a	WORD	1137069	wordpools/wasnorm_wordpool_less_exclusions.txt	LTP287	ltpFR	4	12	1	REFEREE	1178	n/a	1	0	0.5869140625	0.422607421875	upper	../fonts/amplitud.ttf
2278.036	n/a	WORD	1139018	wordpools/wasnorm_wordpool_less_exclusions.txt	LTP287	ltpFR	4	12	1	LETTUCE	814	n/a	1	0	0.5869140625	0.422607421875	upper	../fonts/amplitud.ttf
2281.928	n/a	WORD	1140964	wordpools/wasnorm_wordpool_less_exclusions.txt	LTP287	ltpFR	4	12	1	BEET	115	n/a	1	0	0.5869140625	0.422607421875	upper	../fonts/amplitud.ttf
2285.866	n/a	WORD	1142933	wordpools/wasnorm_wordpool_less_exclusions.txt	LTP287	ltpFR	4	12	1	PILOT	1070	n/a	1	0	0.5869140625	0.422607421875	upper	../fonts/amplitud.ttf
2289.95	n/a	WORD	1144975	wordpools/wasnorm_wordpool_less_exclusions.txt	LTP287	ltpFR	4	12	1	SHINGLE	1285	n/a	0	0	0.5869140625	0.422607421875	upper	../fonts/amplitud.ttf
2293.808	n/a	WORD	1146904	wordpools/wasnorm_wordpool_less_exclusions.txt	LTP287	ltpFR	4	12	1	WINE	1613	n/a	0	0	0.5869140625	0.422607421875	upper	../fonts/amplitud.ttf
2297.778	n/a	WORD	1148889	wordpools/wasnorm_wordpool_less_exclusions.txt	LTP287	ltpFR	4	12	1	AIRCRAFT	11	n/a	0	0	0.5869140625	0.422607421875	upper	../fonts/amplitud.ttf
2301.756	n/a	WORD	1150878	wordpools/wasnorm_wordpool_less_exclusions.txt	LTP287	ltpFR	4	12	1	RAM	1165	n/a	1	0	0.5869140625	0.422607421875	upper	../fonts/amplitud.ttf
2307.568	n/a	REC_START	1153784	n/a	LTP287	ltpFR	4	12	n/a	n/a	n/a	n/a	n/a	n/a	n/a	n/a	n/a	n/a
2308.344	n/a	REC_WORD	1154172	wordpools/wasnorm_wordpool_less_exclusions.txt	LTP287	ltpFR	4	12	1	RAM	1165	n/a	1	n/a	n/a	n/a	n/a	n/a
2309.636	n/a	REC_WORD	1154818	wordpools/wasnorm_wordpool_less_exclusions.txt	LTP287	ltpFR	4	12	1	PILOT	1070	n/a	1	n/a	n/a	n/a	n/a	n/a
2310.726	n/a	REC_WORD	1155363	wordpools/wasnorm_wordpool_less_exclusions.txt	LTP287	ltpFR	4	12	1	AIRCRAFT	11	n/a	0	n/a	n/a	n/a	n/a	n/a
2312.1	n/a	REC_WORD	1156050	wordpools/wasnorm_wordpool_less_exclusions.txt	LTP287	ltpFR	4	12	1	BARREL	91	n/a	0	n/a	n/a	n/a	n/a	n/a
2313.204	n/a	REC_WORD	1156602	wordpools/wasnorm_wordpool_less_exclusions.txt	LTP287	ltpFR	4	12	1	SHORTS	1293	n/a	0	n/a	n/a	n/a	n/a	n/a
2314.308	n/a	REC_WORD	1157154	wordpools/wasnorm_wordpool_less_exclusions.txt	LTP287	ltpFR	4	12	1	STEWARDESS	1381	n/a	1	n/a	n/a	n/a	n/a	n/a
2315.616	n/a	REC_WORD	1157808	wordpools/wasnorm_wordpool_less_exclusions.txt	LTP287	ltpFR	4	12	1	SUPERMARKET	1409	n/a	0	n/a	n/a	n/a	n/a	n/a
2316.986	n/a	REC_WORD	1158493	wordpools/wasnorm_wordpool_less_exclusions.txt	LTP287	ltpFR	4	12	1	PATH	1023	n/a	0	n/a	n/a	n/a	n/a	n/a
2318.152	n/a	REC_WORD	1159076	wordpools/wasnorm_wordpool_less_exclusions.txt	LTP287	ltpFR	4	12	1	CURB	426	n/a	0	n/a	n/a	n/a	n/a	n/a
2319.464	n/a	REC_WORD	1159732	wordpools/wasnorm_wordpool_less_exclusions.txt	LTP287	ltpFR	4	12	1	GUARD	667	n/a	1	n/a	n/a	n/a	n/a	n/a
2320.816	n/a	REC_WORD	1160408	wordpools/wasnorm_wordpool_less_exclusions.txt	LTP287	ltpFR	4	12	1	REFEREE	1178	n/a	1	n/a	n/a	n/a	n/a	n/a
2322.758	n/a	REC_WORD	1161379	wordpools/wasnorm_wordpool_less_exclusions.txt	LTP287	ltpFR	4	12	1	LETTUCE	814	n/a	1	n/a	n/a	n/a	n/a	n/a
2324.13	n/a	REC_WORD	1162065	wordpools/wasnorm_wordpool_less_exclusions.txt	LTP287	ltpFR	4	12	1	BEET	115	n/a	1	n/a	n/a	n/a	n/a	n/a
2325.566	n/a	REC_WORD	1162783	wordpools/wasnorm_wordpool_less_exclusions.txt	LTP287	ltpFR	4	12	1	MEAT	883	n/a	0	n/a	n/a	n/a	n/a	n/a
2403.126	n/a	WORD	1201563	wordpools/wasnorm_wordpool_less_exclusions.txt	LTP287	ltpFR	4	13	0	BRACELET	163	n/a	0	1	0.412841796875	0.57763671875	lower	../fonts/zerothre.ttf
2407.33	n/a	WORD	1203665	wordpools/wasnorm_wordpool_less_exclusions.txt	LTP287	ltpFR	4	13	0	BURGLAR	200	n/a	1	1	0.412841796875	0.57763671875	lower	../fonts/zerothre.ttf
2411.38	n/a	WORD	1205690	wordpools/wasnorm_wordpool_less_exclusions.txt	LTP287	ltpFR	4	13	0	PIRATE	1074	n/a	1	1	0.412841796875	0.57763671875	lower	../fonts/zerothre.ttf
2415.496	n/a	WORD	1207748	wordpools/wasnorm_wordpool_less_exclusions.txt	LTP287	ltpFR	4	13	0	BAY	102	n/a	1	1	0.412841796875	0.57763671875	lower	../fonts/zerothre.ttf
2419.656	n/a	WORD	1209828	wordpools/wasnorm_wordpool_less_exclusions.txt	LTP287	ltpFR	4	13	0	ENGINE	535	n/a	1	1	0.412841796875	0.57763671875	lower	../fonts/zerothre.ttf
2423.576	n/a	WORD	1211788	wordpools/wasnorm_wordpool_less_exclusions.txt	LTP287	ltpFR	4	13	0	TURNIP	1521	n/a	0	1	0.412841796875	0.57763671875	lower	../fonts/zerothre.ttf
2427.676	n/a	WORD	1213838	wordpools/wasnorm_wordpool_less_exclusions.txt	LTP287	ltpFR	4	13	0	KEG	770	n/a	1	1	0.412841796875	0.57763671875	lower	../fonts/zerothre.ttf
2431.656	n/a	WORD	1215828	wordpools/wasnorm_wordpool_less_exclusions.txt	LTP287	ltpFR	4	13	0	BLUEBERRY	140	n/a	0	1	0.412841796875	0.57763671875	lower	../fonts/zerothre.ttf
2435.858	n/a	WORD	1217929	wordpools/wasnorm_wordpool_less_exclusions.txt	LTP287	ltpFR	4	13	0	PORCUPINE	1107	n/a	0	1	0.412841796875	0.57763671875	lower	../fonts/zerothre.ttf
2439.772	n/a	WORD	1219886	wordpools/wasnorm_wordpool_less_exclusions.txt	LTP287	ltpFR	4	13	0	YARN	1631	n/a	0	1	0.412841796875	0.57763671875	lower	../fonts/zerothre.ttf
2443.864	n/a	WORD	1221932	wordpools/wasnorm_wordpool_less_exclusions.txt	LTP287	ltpFR	4	13	0	POLICE	1098	n/a	1	1	0.412841796875	0.57763671875	lower	../fonts/zerothre.ttf
2447.786	n/a	WORD	1223893	wordpools/wasnorm_wordpool_less_exclusions.txt	LTP287	ltpFR	4	13	0	DETECTIVE	454	n/a	1	1	0.412841796875	0.57763671875	lower	../fonts/zerothre.ttf
2451.978	n/a	WORD	1225989	wordpools/wasnorm_wordpool_less_exclusions.txt	LTP287	ltpFR	4	13	0	VAN	1548	n/a	1	1	0.412841796875	0.57763671875	lower	../fonts/zerothre.ttf
2455.95	n/a	WORD	1227975	wordpools/wasnorm_wordpool_less_exclusions.txt	LTP287	ltpFR	4	13	0	COUNTY	389	n/a	1	1	0.412841796875	0.57763671875	lower	../fonts/zerothre.ttf
2459.982	n/a	WORD	1229991	wordpools/wasnorm_wordpool_less_exclusions.txt	LTP287	ltpFR	4	13	0	SPIT	1354	n/a	0	1	0.412841796875	0.57763671875	lower	../fonts/zerothre.ttf
2463.98	n/a	WORD	1231990	wordpools/wasnorm_wordpool_less_exclusions.txt	LTP287	ltpFR	4	13	0	CACTUS	215	n/a	0	1	0.412841796875	0.57763671875	lower	../fonts/zerothre.ttf
2469.614	n/a	REC_START	1234807	n/a	LTP287	ltpFR	4	13	n/a	n/a	n/a	n/a	n/a	n/a	n/a	n/a	n/a	n/a
2470.722	n/a	REC_WORD	1235361	wordpools/wasnorm_wordpool_less_exclusions.txt	LTP287	ltpFR	4	13	0	CACTUS	215	n/a	0	n/a	n/a	n/a	n/a	n/a
2472.224	n/a	REC_WORD	1236112	wordpools/wasnorm_wordpool_less_exclusions.txt	LTP287	ltpFR	4	13	0	BRACELET	163	n/a	0	n/a	n/a	n/a	n/a	n/a
2473.552	n/a	REC_WORD	1236776	wordpools/wasnorm_wordpool_less_exclusions.txt	LTP287	ltpFR	4	13	0	BURGLAR	200	n/a	1	n/a	n/a	n/a	n/a	n/a
2474.754	n/a	REC_WORD	1237377	wordpools/wasnorm_wordpool_less_exclusions.txt	LTP287	ltpFR	4	13	0	PIRATE	1074	n/a	1	n/a	n/a	n/a	n/a	n/a
2476.22	n/a	REC_WORD	1238110	wordpools/wasnorm_wordpool_less_exclusions.txt	LTP287	ltpFR	4	13	0	BAY	102	n/a	1	n/a	n/a	n/a	n/a	n/a
2477.408	n/a	REC_WORD	1238704	wordpools/wasnorm_wordpool_less_exclusions.txt	LTP287	ltpFR	4	13	n/a	MOTOR	922	n/a	n/a	n/a	n/a	n/a	n/a	n/a
2481.768	n/a	REC_WORD	1240884	wordpools/wasnorm_wordpool_less_exclusions.txt	LTP287	ltpFR	4	13	0	TURNIP	1521	n/a	0	n/a	n/a	n/a	n/a	n/a
2567.644	n/a	WORD	1283822	wordpools/wasnorm_wordpool_less_exclusions.txt	LTP287	ltpFR	4	14	-1	REGISTER	1180	n/a	-1	1	1.0	1.0	upper	../fonts/Verdana.ttf
2571.792	n/a	WORD	1285896	wordpools/wasnorm_wordpool_less_exclusions.txt	LTP287	ltpFR	4	14	-1	DRINK	498	n/a	-1	1	1.0	1.0	upper	../fonts/Verdana.ttf
2575.958	n/a	WORD	1287979	wordpools/wasnorm_wordpool_less_exclusions.txt	LTP287	ltpFR	4	14	-1	RIVER	1194	n/a	-1	1	1.0	1.0	upper	../fonts/Verdana.ttf
2580.058	n/a	WORD	1290029	wordpools/wasnorm_wordpool_less_exclusions.txt	LTP287	ltpFR	4	14	-1	SLEEVE	1324	n/a	-1	1	1.0	1.0	upper	../fonts/Verdana.ttf
2584.156	n/a	WORD	1292078	wordpools/wasnorm_wordpool_less_exclusions.txt	LTP287	ltpFR	4	14	-1	VOLUNTEER	1577	n/a	-1	1	1.0	1.0	upper	../fonts/Verdana.ttf
2588.34	n/a	WORD	1294170	wordpools/wasnorm_wordpool_less_exclusions.txt	LTP287	ltpFR	4	14	-1	SHOP	1290	n/a	-1	1	1.0	1.0	upper	../fonts/Verdana.ttf
2592.522	n/a	WORD	1296261	wordpools/wasnorm_wordpool_less_exclusions.txt	LTP287	ltpFR	4	14	-1	GOAT	644	n/a	-1	1	1.0	1.0	upper	../fonts/Verdana.ttf
2596.748	n/a	WORD	1298374	wordpools/wasnorm_wordpool_less_exclusions.txt	LTP287	ltpFR	4	14	-1	SHEPHERD	1283	n/a	-1	1	1.0	1.0	upper	../fonts/Verdana.ttf
2600.686	n/a	WORD	1300343	wordpools/wasnorm_wordpool_less_exclusions.txt	LTP287	ltpFR	4	14	-1	CHAPEL	280	n/a	-1	1	1.0	1.0	upper	../fonts/Verdana.ttf
2604.718	n/a	WORD	1302359	wordpools/wasnorm_wordpool_less_exclusions.txt	LTP287	ltpFR	4	14	-1	BUTTER	205	n/a	-1	1	1.0	1.0	upper	../fonts/Verdana.ttf
2608.818	n/a	WORD	1304409	wordpools/wasnorm_wordpool_less_exclusions.txt	LTP287	ltpFR	4	14	-1	TOASTER	1472	n/a	-1	1	1.0	1.0	upper	../fonts/Verdana.ttf
2612.782	n/a	WORD	1306391	wordpools/wasnorm_wordpool_less_exclusions.txt	LTP287	ltpFR	4	14	-1	MONK	910	n/a	-1	1	1.0	1.0	upper	../fonts/Verdana.ttf
2616.864	n/a	WORD	1308432	wordpools/wasnorm_wordpool_less_exclusions.txt	LTP287	ltpFR	4	14	-1	PRIEST	1122	n/a	-1	1	1.0	1.0	upper	../fonts/Verdana.ttf
2620.896	n/a	WORD	1310448	wordpools/wasnorm_wordpool_less_exclusions.txt	LTP287	ltpFR	4	14	-1	WATER	1594	n/a	-1	1	1.0	1.0	upper	../fonts/Verdana.ttf
2624.746	n/a	WORD	1312373	wordpools/wasnorm_wordpool_less_exclusions.txt	LTP287	ltpFR	4	14	-1	CEILING	265	n/a	-1	1	1.0	1.0	upper	../fonts/Verdana.ttf
2628.822	n/a	WORD	1314411	wordpools/wasnorm_wordpool_less_exclusions.txt	LTP287	ltpFR	4	14	-1	DRESS	495	n/a	-1	1	1.0	1.0	upper	../fonts/Verdana.ttf
2634.828	n/a	REC_START	1317414	n/a	LTP287	ltpFR	4	14	n/a	n/a	n/a	n/a	n/a	n/a	n/a	n/a	n/a	n/a
2635.354	n/a	REC_WORD	1317677	wordpools/wasnorm_wordpool_less_exclusions.txt	LTP287	ltpFR	4	14	-1	CEILING	265	n/a	-1	n/a	n/a	n/a	n/a	n/a
2636.49	n/a	REC_WORD	1318245	wordpools/wasnorm_wordpool_less_exclusions.txt	LTP287	ltpFR	4	14	-1	DRESS	495	n/a	-1	n/a	n/a	n/a	n/a	n/a
2637.624	n/a	REC_WORD	1318812	wordpools/wasnorm_wordpool_less_exclusions.txt	LTP287	ltpFR	4	14	-1	REGISTER	1180	n/a	-1	n/a	n/a	n/a	n/a	n/a
2638.974	n/a	REC_WORD	1319487	wordpools/wasnorm_wordpool_less_exclusions.txt	LTP287	ltpFR	4	14	-1	DRINK	498	n/a	-1	n/a	n/a	n/a	n/a	n/a
2640.052	n/a	REC_WORD	1320026	wordpools/wasnorm_wordpool_less_exclusions.txt	LTP287	ltpFR	4	14	-1	RIVER	1194	n/a	-1	n/a	n/a	n/a	n/a	n/a
2641.088	n/a	REC_WORD	1320544	wordpools/wasnorm_wordpool_less_exclusions.txt	LTP287	ltpFR	4	14	-1	SLEEVE	1324	n/a	-1	n/a	n/a	n/a	n/a	n/a
2643.054	n/a	REC_WORD	1321527	wordpools/wasnorm_wordpool_less_exclusions.txt	LTP287	ltpFR	4	14	-1	SHEPHERD	1283	n/a	-1	n/a	n/a	n/a	n/a	n/a
2644.402	n/a	REC_WORD	1322201	wordpools/wasnorm_wordpool_less_exclusions.txt	LTP287	ltpFR	4	14	-1	GOAT	644	n/a	-1	n/a	n/a	n/a	n/a	n/a
2650.924	n/a	REC_WORD	1325462	wordpools/wasnorm_wordpool_less_exclusions.txt	LTP287	ltpFR	4	14	-1	MONK	910	n/a	-1	n/a	n/a	n/a	n/a	n/a
2652.336	n/a	REC_WORD	1326168	wordpools/wasnorm_wordpool_less_exclusions.txt	LTP287	ltpFR	4	14	-1	PRIEST	1122	n/a	-1	n/a	n/a	n/a	n/a	n/a
2656.256	n/a	REC_WORD	1328128	wordpools/wasnorm_wordpool_less_exclusions.txt	LTP287	ltpFR	4	14	-1	CHAPEL	280	n/a	-1	n/a	n/a	n/a	n/a	n/a
2659.288	n/a	REC_WORD	1329644	wordpools/wasnorm_wordpool_less_exclusions.txt	LTP287	ltpFR	4	14	-1	BUTTER	205	n/a	-1	n/a	n/a	n/a	n/a	n/a
2660.248	n/a	REC_WORD	1330124	wordpools/wasnorm_wordpool_less_exclusions.txt	LTP287	ltpFR	4	14	-1	TOASTER	1472	n/a	-1	n/a	n/a	n/a	n/a	n/a
2729.338	n/a	WORD	1364669	wordpools/wasnorm_wordpool_less_exclusions.txt	LTP287	ltpFR	4	15	-1	STEW	1380	n/a	-1	1	1.0	1.0	upper	../fonts/Verdana.ttf
2733.242	n/a	WORD	1366621	wordpools/wasnorm_wordpool_less_exclusions.txt	LTP287	ltpFR	4	15	-1	CHICKEN	297	n/a	-1	1	1.0	1.0	upper	../fonts/Verdana.ttf
2737.136	n/a	WORD	1368568	wordpools/wasnorm_wordpool_less_exclusions.txt	LTP287	ltpFR	4	15	-1	ROCKET	1202	n/a	-1	1	1.0	1.0	upper	../fonts/Verdana.ttf
2741.124	n/a	WORD	1370562	wordpools/wasnorm_wordpool_less_exclusions.txt	LTP287	ltpFR	4	15	-1	GRAPE	654	n/a	-1	1	1.0	1.0	upper	../fonts/Verdana.ttf
2745.188	n/a	WORD	1372594	wordpools/wasnorm_wordpool_less_exclusions.txt	LTP287	ltpFR	4	15	-1	TEAPOT	1442	n/a	-1	1	1.0	1.0	upper	../fonts/Verdana.ttf
2749.048	n/a	WORD	1374524	wordpools/wasnorm_wordpool_less_exclusions.txt	LTP287	ltpFR	4	15	-1	BATHTUB	100	n/a	-1	1	1.0	1.0	upper	../fonts/Verdana.ttf
2752.98	n/a	WORD	1376490	wordpools/wasnorm_wordpool_less_exclusions.txt	LTP287	ltpFR	4	15	-1	VACUUM	1543	n/a	-1	1	1.0	1.0	upper	../fonts/Verdana.ttf
2757.0	n/a	WORD	1378500	wordpools/wasnorm_wordpool_less_exclusions.txt	LTP287	ltpFR	4	15	-1	FRUIT	610	n/a	-1	1	1.0	1.0	upper	../fonts/Verdana.ttf
2761.016	n/a	WORD	1380508	wordpools/wasnorm_wordpool_less_exclusions.txt	LTP287	ltpFR	4	15	-1	GROUND	666	n/a	-1	1	1.0	1.0	upper	../fonts/Verdana.ttf
2764.98	n/a	WORD	1382490	wordpools/wasnorm_wordpool_less_exclusions.txt	LTP287	ltpFR	4	15	-1	COFFEE	341	n/a	-1	1	1.0	1.0	upper	../fonts/Verdana.ttf
2769.174	n/a	WORD	1384587	wordpools/wasnorm_wordpool_less_exclusions.txt	LTP287	ltpFR	4	15	-1	ZUCCHINI	1638	n/a	-1	1	1.0	1.0	upper	../fonts/Verdana.ttf
2773.396	n/a	WORD	1386698	wordpools/wasnorm_wordpool_less_exclusions.txt	LTP287	ltpFR	4	15	-1	MARKET	871	n/a	-1	1	1.0	1.0	upper	../fonts/Verdana.ttf
2777.596	n/a	WORD	1388798	wordpools/wasnorm_wordpool_less_exclusions.txt	LTP287	ltpFR	4	15	-1	SUBURB	1399	n/a	-1	1	1.0	1.0	upper	../fonts/Verdana.ttf
2781.628	n/a	WORD	1390814	wordpools/wasnorm_wordpool_less_exclusions.txt	LTP287	ltpFR	4	15	-1	VILLAGE	1566	n/a	-1	1	1.0	1.0	upper	../fonts/Verdana.ttf
2785.51	n/a	WORD	1392755	wordpools/wasnorm_wordpool_less_exclusions.txt	LTP287	ltpFR	4	15	-1	GOVERNOR	651	n/a	-1	1	1.0	1.0	upper	../fonts/Verdana.ttf
2789.44	n/a	WORD	1394720	wordpools/wasnorm_wordpool_less_exclusions.txt	LTP287	ltpFR	4	15	-1	LENS	811	n/a	-1	1	1.0	1.0	upper	../fonts/Verdana.ttf
2795.246	n/a	REC_START	1397623	n/a	LTP287	ltpFR	4	15	n/a	n/a	n/a	n/a	n/a	n/a	n/a	n/a	n/a	n/a
2795.89	n/a	REC_WORD	1397945	wordpools/wasnorm_wordpool_less_exclusions.txt	LTP287	ltpFR	4	15	-1	LENS	811	n/a	-1	n/a	n/a	n/a	n/a	n/a
2796.968	n/a	REC_WORD	1398484	wordpools/wasnorm_wordpool_less_exclusions.txt	LTP287	ltpFR	4	15	-1	STEW	1380	n/a	-1	n/a	n/a	n/a	n/a	n/a
2798.256	n/a	REC_WORD	1399128	wordpools/wasnorm_wordpool_less_exclusions.txt	LTP287	ltpFR	4	15	-1	CHICKEN	297	n/a	-1	n/a	n/a	n/a	n/a	n/a
2799.402	n/a	REC_WORD	1399701	wordpools/wasnorm_wordpool_less_exclusions.txt	LTP287	ltpFR	4	15	-1	ROCKET	1202	n/a	-1	n/a	n/a	n/a	n/a	n/a
2800.68	n/a	REC_WORD	1400340	wordpools/wasnorm_wordpool_less_exclusions.txt	LTP287	ltpFR	4	15	-1	GRAPE	654	n/a	-1	n/a	n/a	n/a	n/a	n/a
2801.636	n/a	REC_WORD	1400818	wordpools/wasnorm_wordpool_less_exclusions.txt	LTP287	ltpFR	4	15	-1	FRUIT	610	n/a	-1	n/a	n/a	n/a	n/a	n/a
2802.886	n/a	REC_WORD	1401443	wordpools/wasnorm_wordpool_less_exclusions.txt	LTP287	ltpFR	4	15	-1	TEAPOT	1442	n/a	-1	n/a	n/a	n/a	n/a	n/a
2804.048	n/a	REC_WORD	1402024	wordpools/wasnorm_wordpool_less_exclusions.txt	LTP287	ltpFR	4	15	n/a	BATH	98	n/a	n/a	n/a	n/a	n/a	n/a	n/a
2805.238	n/a	REC_WORD	1402619	wordpools/wasnorm_wordpool_less_exclusions.txt	LTP287	ltpFR	4	15	-1	GROUND	666	n/a	-1	n/a	n/a	n/a	n/a	n/a
2806.492	n/a	REC_WORD	1403246	wordpools/wasnorm_wordpool_less_exclusions.txt	LTP287	ltpFR	4	15	-1	COFFEE	341	n/a	-1	n/a	n/a	n/a	n/a	n/a
2818.534	n/a	REC_WORD	1409267	wordpools/wasnorm_wordpool_less_exclusions.txt	LTP287	ltpFR	4	15	-1	VILLAGE	1566	n/a	-1	n/a	n/a	n/a	n/a	n/a
2819.846	n/a	REC_WORD	1409923	wordpools/wasnorm_wordpool_less_exclusions.txt	LTP287	ltpFR	4	15	-1	GOVERNOR	651	n/a	-1	n/a	n/a	n/a	n/a	n/a
2825.598	n/a	REC_WORD	1412799	wordpools/wasnorm_wordpool_less_exclusions.txt	LTP287	ltpFR	4	15	-1	MARKET	871	n/a	-1	n/a	n/a	n/a	n/a	n/a
2828.192	n/a	REC_WORD	1414096	wordpools/wasnorm_wordpool_less_exclusions.txt	LTP287	ltpFR	4	15	-1	ZUCCHINI	1638	n/a	-1	n/a	n/a	n/a	n/a	n/a
2835.8	n/a	REC_WORD	1417900	wordpools/wasnorm_wordpool_less_exclusions.txt	LTP287	ltpFR	4	15	-1	SUBURB	1399	n/a	-1	n/a	n/a	n/a	n/a	n/a
2887.376	n/a	WORD	1443688	wordpools/wasnorm_wordpool_less_exclusions.txt	LTP287	ltpFR	4	16	1	ORCHESTRA	981	n/a	1	0	0.5869140625	0.422607421875	upper	../fonts/amplitud.ttf
2891.548	n/a	WORD	1445774	wordpools/wasnorm_wordpool_less_exclusions.txt	LTP287	ltpFR	4	16	1	VIOLA	1570	n/a	0	0	0.5869140625	0.422607421875	upper	../fonts/amplitud.ttf
2895.664	n/a	WORD	1447832	wordpools/wasnorm_wordpool_less_exclusions.txt	LTP287	ltpFR	4	16	1	OPERATOR	979	n/a	1	0	0.5869140625	0.422607421875	upper	../fonts/amplitud.ttf
2899.724	n/a	WORD	1449862	wordpools/wasnorm_wordpool_less_exclusions.txt	LTP287	ltpFR	4	16	1	RAFT	1159	n/a	0	0	0.5869140625	0.422607421875	upper	../fonts/amplitud.ttf
2903.912	n/a	WORD	1451956	wordpools/wasnorm_wordpool_less_exclusions.txt	LTP287	ltpFR	4	16	1	PENCIL	1042	n/a	0	0	0.5869140625	0.422607421875	upper	../fonts/amplitud.ttf
2908.044	n/a	WORD	1454022	wordpools/wasnorm_wordpool_less_exclusions.txt	LTP287	ltpFR	4	16	0	SENATOR	1268	n/a	1	1	0.412841796875	0.57763671875	lower	../fonts/zerothre.ttf
2912.188	n/a	WORD	1456094	wordpools/wasnorm_wordpool_less_exclusions.txt	LTP287	ltpFR	4	16	0	FOLLOWER	589	n/a	1	1	0.412841796875	0.57763671875	lower	../fonts/zerothre.ttf
2916.02	n/a	WORD	1458010	wordpools/wasnorm_wordpool_less_exclusions.txt	LTP287	ltpFR	4	16	0	MANAGER	863	n/a	1	1	0.412841796875	0.57763671875	lower	../fonts/zerothre.ttf
2920.25	n/a	WORD	1460125	wordpools/wasnorm_wordpool_less_exclusions.txt	LTP287	ltpFR	4	16	0	CELLAR	267	n/a	1	1	0.412841796875	0.57763671875	lower	../fonts/zerothre.ttf
2924.238	n/a	WORD	1462119	wordpools/wasnorm_wordpool_less_exclusions.txt	LTP287	ltpFR	4	16	1	LEAF	808	n/a	1	0	0.5869140625	0.422607421875	upper	../fonts/amplitud.ttf
2928.338	n/a	WORD	1464169	wordpools/wasnorm_wordpool_less_exclusions.txt	LTP287	ltpFR	4	16	1	RAKE	1164	n/a	0	0	0.5869140625	0.422607421875	upper	../fonts/amplitud.ttf
2932.382	n/a	WORD	1466191	wordpools/wasnorm_wordpool_less_exclusions.txt	LTP287	ltpFR	4	16	1	QUILL	1150	n/a	0	0	0.5869140625	0.422607421875	upper	../fonts/amplitud.ttf
2936.234	n/a	WORD	1468117	wordpools/wasnorm_wordpool_less_exclusions.txt	LTP287	ltpFR	4	16	0	CIGAR	308	n/a	0	1	0.412841796875	0.57763671875	lower	../fonts/zerothre.ttf
2940.384	n/a	WORD	1470192	wordpools/wasnorm_wordpool_less_exclusions.txt	LTP287	ltpFR	4	16	0	SPONGE	1355	n/a	0	1	0.412841796875	0.57763671875	lower	../fonts/zerothre.ttf
2944.298	n/a	WORD	1472149	wordpools/wasnorm_wordpool_less_exclusions.txt	LTP287	ltpFR	4	16	0	PATRIOT	1026	n/a	1	1	0.412841796875	0.57763671875	lower	../fonts/zerothre.ttf
2948.314	n/a	WORD	1474157	wordpools/wasnorm_wordpool_less_exclusions.txt	LTP287	ltpFR	4	16	0	PUCK	1138	n/a	0	1	0.412841796875	0.57763671875	lower	../fonts/zerothre.ttf
2954.182	n/a	REC_START	1477091	n/a	LTP287	ltpFR	4	16	n/a	n/a	n/a	n/a	n/a	n/a	n/a	n/a	n/a	n/a
2954.86	n/a	REC_WORD	1477430	wordpools/wasnorm_wordpool_less_exclusions.txt	LTP287	ltpFR	4	16	1	RAKE	1164	n/a	0	n/a	n/a	n/a	n/a	n/a
2955.726	n/a	REC_WORD	1477863	wordpools/wasnorm_wordpool_less_exclusions.txt	LTP287	ltpFR	4	16	0	SPONGE	1355	n/a	0	n/a	n/a	n/a	n/a	n/a
2957.042	n/a	REC_WORD	1478521	wordpools/wasnorm_wordpool_less_exclusions.txt	LTP287	ltpFR	4	16	0	PATRIOT	1026	n/a	1	n/a	n/a	n/a	n/a	n/a
2958.2	n/a	REC_WORD	1479100	wordpools/wasnorm_wordpool_less_exclusions.txt	LTP287	ltpFR	4	16	0	PUCK	1138	n/a	0	n/a	n/a	n/a	n/a	n/a
2959.408	n/a	REC_WORD	1479704	wordpools/wasnorm_wordpool_less_exclusions.txt	LTP287	ltpFR	4	16	1	LEAF	808	n/a	1	n/a	n/a	n/a	n/a	n/a
2960.474	n/a	REC_WORD	1480237	wordpools/wasnorm_wordpool_less_exclusions.txt	LTP287	ltpFR	4	16	0	SENATOR	1268	n/a	1	n/a	n/a	n/a	n/a	n/a
2961.758	n/a	REC_WORD	1480879	wordpools/wasnorm_wordpool_less_exclusions.txt	LTP287	ltpFR	4	16	0	FOLLOWER	589	n/a	1	n/a	n/a	n/a	n/a	n/a
2965.466	n/a	REC_WORD	1482733	wordpools/wasnorm_wordpool_less_exclusions.txt	LTP287	ltpFR	4	16	1	ORCHESTRA	981	n/a	1	n/a	n/a	n/a	n/a	n/a
2966.576	n/a	REC_WORD	1483288	wordpools/wasnorm_wordpool_less_exclusions.txt	LTP287	ltpFR	4	16	1	VIOLA	1570	n/a	0	n/a	n/a	n/a	n/a	n/a
2968.056	n/a	REC_WORD	1484028	wordpools/wasnorm_wordpool_less_exclusions.txt	LTP287	ltpFR	4	16	1	OPERATOR	979	n/a	1	n/a	n/a	n/a	n/a	n/a
3054.934	n/a	REC_START	1527467	n/a	LTP287	ltpFR	4	n/a	n/a	n/a	n/a	n/a	n/a	n/a	n/a	n/a	n/a	n/a
3055.448	n/a	FFR_REC_WORD	1527724	wordpools/wasnorm_wordpool_less_exclusions.txt	LTP287	ltpFR	4	n/a	0	SENATOR	1268	n/a	1	n/a	n/a	n/a	n/a	n/a
3056.68	n/a	FFR_REC_WORD	1528340	wordpools/wasnorm_wordpool_less_exclusions.txt	LTP287	ltpFR	4	n/a	0	PATRIOT	1026	n/a	1	n/a	n/a	n/a	n/a	n/a
3057.786	n/a	FFR_REC_WORD	1528893	wordpools/wasnorm_wordpool_less_exclusions.txt	LTP287	ltpFR	4	n/a	0	FOLLOWER	589	n/a	1	n/a	n/a	n/a	n/a	n/a
3059.08	n/a	FFR_REC_WORD	1529540	wordpools/wasnorm_wordpool_less_exclusions.txt	LTP287	ltpFR	4	n/a	1	ORCHESTRA	981	n/a	1	n/a	n/a	n/a	n/a	n/a
3060.318	n/a	FFR_REC_WORD	1530159	wordpools/wasnorm_wordpool_less_exclusions.txt	LTP287	ltpFR	4	n/a	1	VIOLA	1570	n/a	0	n/a	n/a	n/a	n/a	n/a
3062.142	n/a	FFR_REC_WORD	1531071	wordpools/wasnorm_wordpool_less_exclusions.txt	LTP287	ltpFR	4	n/a	1	OPERATOR	979	n/a	1	n/a	n/a	n/a	n/a	n/a
3063.82	n/a	FFR_REC_WORD	1531910	wordpools/wasnorm_wordpool_less_exclusions.txt	LTP287	ltpFR	4	n/a	-1	ZUCCHINI	1638	n/a	-1	n/a	n/a	n/a	n/a	n/a
3065.176	n/a	FFR_REC_WORD	1532588	wordpools/wasnorm_wordpool_less_exclusions.txt	LTP287	ltpFR	4	n/a	0	CARROT	249	n/a	0	n/a	n/a	n/a	n/a	n/a
3066.294	n/a	FFR_REC_WORD	1533147	wordpools/wasnorm_wordpool_less_exclusions.txt	LTP287	ltpFR	4	n/a	0	TURNIP	1521	n/a	0	n/a	n/a	n/a	n/a	n/a
3067.4	n/a	FFR_REC_WORD	1533700	wordpools/wasnorm_wordpool_less_exclusions.txt	LTP287	ltpFR	4	n/a	1	RASPBERRY	1168	n/a	1	n/a	n/a	n/a	n/a	n/a
3068.574	n/a	FFR_REC_WORD	1534287	wordpools/wasnorm_wordpool_less_exclusions.txt	LTP287	ltpFR	4	n/a	0	BLUEBERRY	140	n/a	0	n/a	n/a	n/a	n/a	n/a
3069.616	n/a	FFR_REC_WORD	1534808	wordpools/wasnorm_wordpool_less_exclusions.txt	LTP287	ltpFR	4	n/a	-1	FRUIT	610	n/a	-1	n/a	n/a	n/a	n/a	n/a
3070.824	n/a	FFR_REC_WORD	1535412	wordpools/wasnorm_wordpool_less_exclusions.txt	LTP287	ltpFR	4	n/a	1	CITRUS	313	n/a	1	n/a	n/a	n/a	n/a	n/a
3072.076	n/a	FFR_REC_WORD	1536038	wordpools/wasnorm_wordpool_less_exclusions.txt	LTP287	ltpFR	4	n/a	-1	TANGERINE	1431	n/a	-1	n/a	n/a	n/a	n/a	n/a
3073.482	n/a	FFR_REC_WORD	1536741	wordpools/wasnorm_wordpool_less_exclusions.txt	LTP287	ltpFR	4	n/a	-1	ISLAND	745	n/a	-1	n/a	n/a	n/a	n/a	n/a
3074.654	n/a	FFR_REC_WORD	1537327	wordpools/wasnorm_wordpool_less_exclusions.txt	LTP287	ltpFR	4	n/a	1	METEOR	889	n/a	0	n/a	n/a	n/a	n/a	n/a
3075.856	n/a	FFR_REC_WORD	1537928	wordpools/wasnorm_wordpool_less_exclusions.txt	LTP287	ltpFR	4	n/a	-1	TIDE	1465	n/a	-1	n/a	n/a	n/a	n/a	n/a
3077.03	n/a	FFR_REC_WORD	1538515	wordpools/wasnorm_wordpool_less_exclusions.txt	LTP287	ltpFR	4	n/a	-1	MUFFIN	929	n/a	-1	n/a	n/a	n/a	n/a	n/a
3078.202	n/a	FFR_REC_WORD	1539101	wordpools/wasnorm_wordpool_less_exclusions.txt	LTP287	ltpFR	4	n/a	-1	POPCORN	1104	n/a	-1	n/a	n/a	n/a	n/a	n/a
3079.25	n/a	FFR_REC_WORD	1539625	wordpools/wasnorm_wordpool_less_exclusions.txt	LTP287	ltpFR	4	n/a	-1	SILVERWARE	1308	n/a	-1	n/a	n/a	n/a	n/a	n/a
3080.682	n/a	FFR_REC_WORD	1540341	wordpools/wasnorm_wordpool_less_exclusions.txt	LTP287	ltpFR	4	n/a	-1	DAM	436	n/a	-1	n/a	n/a	n/a	n/a	n/a
3081.958	n/a	FFR_REC_WORD	1540979	wordpools/wasnorm_wordpool_less_exclusions.txt	LTP287	ltpFR	4	n/a	-1	PERCH	1048	n/a	-1	n/a	n/a	n/a	n/a	n/a
3085.262	n/a	FFR_REC_WORD	1542631	wordpools/wasnorm_wordpool_less_exclusions.txt	LTP287	ltpFR	4	n/a	-1	RIVER	1194	n/a	-1	n/a	n/a	n/a	n/a	n/a
3086.488	n/a	FFR_REC_WORD	1543244	wordpools/wasnorm_wordpool_less_exclusions.txt	LTP287	ltpFR	4	n/a	0	BAY	102	n/a	1	n/a	n/a	n/a	n/a	n/a
3087.542	n/a	FFR_REC_WORD	1543771	wordpools/wasnorm_wordpool_less_exclusions.txt	LTP287	ltpFR	4	n/a	0	PIRATE	1074	n/a	1	n/a	n/a	n/a	n/a	n/a
3088.688	n/a	FFR_REC_WORD	1544344	wordpools/wasnorm_wordpool_less_exclusions.txt	LTP287	ltpFR	4	n/a	0	BURGLAR	200	n/a	1	n/a	n/a	n/a	n/a	n/a
3089.85	n/a	FFR_REC_WORD	1544925	wordpools/wasnorm_wordpool_less_exclusions.txt	LTP287	ltpFR	4	n/a	1	RAFT	1159	n/a	0	n/a	n/a	n/a	n/a	n/a
3107.206	n/a	FFR_REC_WORD	1553603	wordpools/wasnorm_wordpool_less_exclusions.txt	LTP287	ltpFR	4	n/a	1	FLANNEL	574	n/a	0	n/a	n/a	n/a	n/a	n/a
3108.47	n/a	FFR_REC_WORD	1554235	wordpools/wasnorm_wordpool_less_exclusions.txt	LTP287	ltpFR	4	n/a	1	BLOUSE	139	n/a	0	n/a	n/a	n/a	n/a	n/a
3111.602	n/a	FFR_REC_WORD	1555801	wordpools/wasnorm_wordpool_less_exclusions.txt	LTP287	ltpFR	4	n/a	0	FRIEND	606	n/a	1	n/a	n/a	n/a	n/a	n/a
3114.152	n/a	FFR_REC_WORD	1557076	wordpools/wasnorm_wordpool_less_exclusions.txt	LTP287	ltpFR	4	n/a	-1	STEW	1380	n/a	-1	n/a	n/a	n/a	n/a	n/a
3115.32	n/a	FFR_REC_WORD	1557660	wordpools/wasnorm_wordpool_less_exclusions.txt	LTP287	ltpFR	4	n/a	-1	CHICKEN	297	n/a	-1	n/a	n/a	n/a	n/a	n/a
3116.478	n/a	FFR_REC_WORD	1558239	wordpools/wasnorm_wordpool_less_exclusions.txt	LTP287	ltpFR	4	n/a	-1	ROCKET	1202	n/a	-1	n/a	n/a	n/a	n/a	n/a
3117.72	n/a	FFR_REC_WORD	1558860	wordpools/wasnorm_wordpool_less_exclusions.txt	LTP287	ltpFR	4	n/a	-1	TEAPOT	1442	n/a	-1	n/a	n/a	n/a	n/a	n/a
3128.604	n/a	FFR_REC_WORD	1564302	wordpools/wasnorm_wordpool_less_exclusions.txt	LTP287	ltpFR	4	n/a	0	GOO	648	n/a	0	n/a	n/a	n/a	n/a	n/a
3129.562	n/a	FFR_REC_WORD	1564781	wordpools/wasnorm_wordpool_less_exclusions.txt	LTP287	ltpFR	4	n/a	0	WORM	1623	n/a	0	n/a	n/a	n/a	n/a	n/a
3130.78	n/a	FFR_REC_WORD	1565390	wordpools/wasnorm_wordpool_less_exclusions.txt	LTP287	ltpFR	4	n/a	0	COOK	372	n/a	1	n/a	n/a	n/a	n/a	n/a
3131.892	n/a	FFR_REC_WORD	1565946	wordpools/wasnorm_wordpool_less_exclusions.txt	LTP287	ltpFR	4	n/a	0	AUTHOR	61	n/a	1	n/a	n/a	n/a	n/a	n/a
3132.87	n/a	FFR_REC_WORD	1566435	wordpools/wasnorm_wordpool_less_exclusions.txt	LTP287	ltpFR	4	n/a	0	CAFE	216	n/a	1	n/a	n/a	n/a	n/a	n/a
3134.162	n/a	FFR_REC_WORD	1567081	wordpools/wasnorm_wordpool_less_exclusions.txt	LTP287	ltpFR	4	n/a	0	BREAD	170	n/a	0	n/a	n/a	n/a	n/a	n/a
3135.292	n/a	FFR_REC_WORD	1567646	wordpools/wasnorm_wordpool_less_exclusions.txt	LTP287	ltpFR	4	n/a	0	WELL	1600	n/a	1	n/a	n/a	n/a	n/a	n/a
3136.518	n/a	FFR_REC_WORD	1568259	wordpools/wasnorm_wordpool_less_exclusions.txt	LTP287	ltpFR	4	n/a	0	PIT	1077	n/a	1	n/a	n/a	n/a	n/a	n/a
3146.99	n/a	FFR_REC_WORD	1573495	wordpools/wasnorm_wordpool_less_exclusions.txt	LTP287	ltpFR	4	n/a	1	PAW	1029	n/a	0	n/a	n/a	n/a	n/a	n/a
3148.232	n/a	FFR_REC_WORD	1574116	wordpools/wasnorm_wordpool_less_exclusions.txt	LTP287	ltpFR	4	n/a	0	PANTHER	1009	n/a	1	n/a	n/a	n/a	n/a	n/a
3149.568	n/a	FFR_REC_WORD	1574784	wordpools/wasnorm_wordpool_less_exclusions.txt	LTP287	ltpFR	4	n/a	1	TIGER	1467	n/a	1	n/a	n/a	n/a	n/a	n/a
3150.74	n/a	FFR_REC_WORD	1575370	wordpools/wasnorm_wordpool_less_exclusions.txt	LTP287	ltpFR	4	n/a	1	CLERK	321	n/a	1	n/a	n/a	n/a	n/a	n/a
3151.928	n/a	FFR_REC_WORD	1575964	wordpools/wasnorm_wordpool_less_exclusions.txt	LTP287	ltpFR	4	n/a	1	VINEGAR	1569	n/a	0	n/a	n/a	n/a	n/a	n/a
3153.046	n/a	FFR_REC_WORD	1576523	wordpools/wasnorm_wordpool_less_exclusions.txt	LTP287	ltpFR	4	n/a	0	SAP	1233	n/a	0	n/a	n/a	n/a	n/a	n/a
3154.234	n/a	FFR_REC_WORD	1577117	wordpools/wasnorm_wordpool_less_exclusions.txt	LTP287	ltpFR	4	n/a	0	SYRUP	1425	n/a	0	n/a	n/a	n/a	n/a	n/a
3155.516	n/a	FFR_REC_WORD	1577758	wordpools/wasnorm_wordpool_less_exclusions.txt	LTP287	ltpFR	4	n/a	0	DRAWING	494	n/a	0	n/a	n/a	n/a	n/a	n/a
3165.468	n/a	FFR_REC_WORD	1582734	wordpools/wasnorm_wordpool_less_exclusions.txt	LTP287	ltpFR	4	n/a	0	TOOL	1480	n/a	0	n/a	n/a	n/a	n/a	n/a
3166.516	n/a	FFR_REC_WORD	1583258	wordpools/wasnorm_wordpool_less_exclusions.txt	LTP287	ltpFR	4	n/a	0	PLIERS	1089	n/a	0	n/a	n/a	n/a	n/a	n/a
3167.962	n/a	FFR_REC_WORD	1583981	wordpools/wasnorm_wordpool_less_exclusions.txt	LTP287	ltpFR	4	n/a	0	COLONEL	348	n/a	1	n/a	n/a	n/a	n/a	n/a
3169.194	n/a	FFR_REC_WORD	1584597	wordpools/wasnorm_wordpool_less_exclusions.txt	LTP287	ltpFR	4	n/a	0	ARMY	39	n/a	1	n/a	n/a	n/a	n/a	n/a
3170.262	n/a	FFR_REC_WORD	1585131	wordpools/wasnorm_wordpool_less_exclusions.txt	LTP287	ltpFR	4	n/a	0	HERD	705	n/a	1	n/a	n/a	n/a	n/a	n/a
3172.544	n/a	FFR_REC_WORD	1586272	wordpools/wasnorm_wordpool_less_exclusions.txt	LTP287	ltpFR	4	n/a	-1	GOAT	644	n/a	-1	n/a	n/a	n/a	n/a	n/a
3173.386	n/a	FFR_REC_WORD	1586693	wordpools/wasnorm_wordpool_less_exclusions.txt	LTP287	ltpFR	4	n/a	-1	SHEPHERD	1283	n/a	-1	n/a	n/a	n/a	n/a	n/a
3179.926	n/a	FFR_REC_WORD	1589963	wordpools/wasnorm_wordpool_less_exclusions.txt	LTP287	ltpFR	4	n/a	1	STADIUM	1364	n/a	0	n/a	n/a	n/a	n/a	n/a
3181.168	n/a	FFR_REC_WORD	1590584	wordpools/wasnorm_wordpool_less_exclusions.txt	LTP287	ltpFR	4	n/a	1	CYLINDER	432	n/a	0	n/a	n/a	n/a	n/a	n/a
3183.464	n/a	FFR_REC_WORD	1591732	wordpools/wasnorm_wordpool_less_exclusions.txt	LTP287	ltpFR	4	n/a	1	CONTAINER	366	n/a	0	n/a	n/a	n/a	n/a	n/a
3195.496	n/a	FFR_REC_WORD	1597748	wordpools/wasnorm_wordpool_less_exclusions.txt	LTP287	ltpFR	4	n/a	0	LIPSTICK	829	n/a	0	n/a	n/a	n/a	n/a	n/a
3201.09	n/a	FFR_REC_WORD	1600545	wordpools/wasnorm_wordpool_less_exclusions.txt	LTP287	ltpFR	4	n/a	-1	CABINET	212	n/a	-1	n/a	n/a	n/a	n/a	n/a
3202.116	n/a	FFR_REC_WORD	1601058	wordpools/wasnorm_wordpool_less_exclusions.txt	LTP287	ltpFR	4	n/a	-1	FAN	551	n/a	-1	n/a	n/a	n/a	n/a	n/a
3203.578	n/a	FFR_REC_WORD	1601789	wordpools/wasnorm_wordpool_less_exclusions.txt	LTP287	ltpFR	4	n/a	n/a	CEMENT	-1	n/a	n/a	n/a	n/a	n/a	n/a	n/a
3205.01	n/a	FFR_REC_WORD	1602505	wordpools/wasnorm_wordpool_less_exclusions.txt	LTP287	ltpFR	4	n/a	-1	HAMMER	680	n/a	-1	n/a	n/a	n/a	n/a	n/a
3206.248	n/a	FFR_REC_WORD	1603124	wordpools/wasnorm_wordpool_less_exclusions.txt	LTP287	ltpFR	4	n/a	-1	POTTERY	1116	n/a	-1	n/a	n/a	n/a	n/a	n/a
3207.544	n/a	FFR_REC_WORD	1603772	wordpools/wasnorm_wordpool_less_exclusions.txt	LTP287	ltpFR	4	n/a	-1	BOUQUET	157	n/a	-1	n/a	n/a	n/a	n/a	n/a
3208.986	n/a	FFR_REC_WORD	1604493	wordpools/wasnorm_wordpool_less_exclusions.txt	LTP287	ltpFR	4	n/a	-1	TAIL	1430	n/a	-1	n/a	n/a	n/a	n/a	n/a
3210.164	n/a	FFR_REC_WORD	1605082	wordpools/wasnorm_wordpool_less_exclusions.txt	LTP287	ltpFR	4	n/a	-1	VENT	1556	n/a	-1	n/a	n/a	n/a	n/a	n/a
3211.432	n/a	FFR_REC_WORD	1605716	wordpools/wasnorm_wordpool_less_exclusions.txt	LTP287	ltpFR	4	n/a	-1	BASKETBALL	96	n/a	-1	n/a	n/a	n/a	n/a	n/a
3212.664	n/a	FFR_REC_WORD	1606332	wordpools/wasnorm_wordpool_less_exclusions.txt	LTP287	ltpFR	4	n/a	-1	CHAIR	274	n/a	-1	n/a	n/a	n/a	n/a	n/a
3213.846	n/a	FFR_REC_WORD	1606923	wordpools/wasnorm_wordpool_less_exclusions.txt	LTP287	ltpFR	4	n/a	-1	LOUNGE	845	n/a	-1	n/a	n/a	n/a	n/a	n/a
3229.84	n/a	FFR_REC_WORD	1614920	wordpools/wasnorm_wordpool_less_exclusions.txt	LTP287	ltpFR	4	n/a	0	TOMATO	1476	n/a	0	n/a	n/a	n/a	n/a	n/a
3230.988	n/a	FFR_REC_WORD	1615494	wordpools/wasnorm_wordpool_less_exclusions.txt	LTP287	ltpFR	4	n/a	0	CENT	270	n/a	0	n/a	n/a	n/a	n/a	n/a
3239.918	n/a	FFR_REC_WORD	1619959	wordpools/wasnorm_wordpool_less_exclusions.txt	LTP287	ltpFR	4	n/a	1	AIRCRAFT	11	n/a	0	n/a	n/a	n/a	n/a	n/a
3241.14	n/a	FFR_REC_WORD	1620570	wordpools/wasnorm_wordpool_less_exclusions.txt	LTP287	ltpFR	4	n/a	1	PILOT	1070	n/a	1	n/a	n/a	n/a	n/a	n/a
3247.53	n/a	FFR_REC_WORD	1623765	wordpools/wasnorm_wordpool_less_exclusions.txt	LTP287	ltpFR	4	n/a	n/a	MOTOR	922	n/a	n/a	n/a	n/a	n/a	n/a	n/a
3256.666	n/a	FFR_REC_WORD	1628333	wordpools/wasnorm_wordpool_less_exclusions.txt	LTP287	ltpFR	4	n/a	1	MACARONI	851	n/a	0	n/a	n/a	n/a	n/a	n/a
3257.734	n/a	FFR_REC_WORD	1628867	wordpools/wasnorm_wordpool_less_exclusions.txt	LTP287	ltpFR	4	n/a	1	SPAGHETTI	1346	n/a	0	n/a	n/a	n/a	n/a	n/a
3259.16	n/a	FFR_REC_WORD	1629580	wordpools/wasnorm_wordpool_less_exclusions.txt	LTP287	ltpFR	4	n/a	1	OINTMENT	974	n/a	0	n/a	n/a	n/a	n/a	n/a
3260.212	n/a	FFR_REC_WORD	1630106	wordpools/wasnorm_wordpool_less_exclusions.txt	LTP287	ltpFR	4	n/a	0	ASTRONAUT	51	n/a	1	n/a	n/a	n/a	n/a	n/a
3261.464	n/a	FFR_REC_WORD	1630732	wordpools/wasnorm_wordpool_less_exclusions.txt	LTP287	ltpFR	4	n/a	0	EUROPE	541	n/a	1	n/a	n/a	n/a	n/a	n/a
3262.692	n/a	FFR_REC_WORD	1631346	wordpools/wasnorm_wordpool_less_exclusions.txt	LTP287	ltpFR	4	n/a	0	COUNTRY	388	n/a	1	n/a	n/a	n/a	n/a	n/a
3264.118	n/a	FFR_REC_WORD	1632059	wordpools/wasnorm_wordpool_less_exclusions.txt	LTP287	ltpFR	4	n/a	-1	VILLAGE	1566	n/a	-1	n/a	n/a	n/a	n/a	n/a
3265.372	n/a	FFR_REC_WORD	1632686	wordpools/wasnorm_wordpool_less_exclusions.txt	LTP287	ltpFR	4	n/a	-1	MARKET	871	n/a	-1	n/a	n/a	n/a	n/a	n/a
3266.882	n/a	FFR_REC_WORD	1633441	wordpools/wasnorm_wordpool_less_exclusions.txt	LTP287	ltpFR	4	n/a	-1	SUBURB	1399	n/a	-1	n/a	n/a	n/a	n/a	n/a
3270.212	n/a	FFR_REC_WORD	1635106	wordpools/wasnorm_wordpool_less_exclusions.txt	LTP287	ltpFR	4	n/a	-1	GOVERNOR	651	n/a	-1	n/a	n/a	n/a	n/a	n/a
3271.108	n/a	FFR_REC_WORD	1635554	wordpools/wasnorm_wordpool_less_exclusions.txt	LTP287	ltpFR	4	n/a	0	SENATOR	1268	n/a	1	n/a	n/a	n/a	n/a	n/a
3272.192	n/a	FFR_REC_WORD	1636096	wordpools/wasnorm_wordpool_less_exclusions.txt	LTP287	ltpFR	4	n/a	0	FOLLOWER	589	n/a	1	n/a	n/a	n/a	n/a	n/a
3280.786	n/a	FFR_REC_WORD	1640393	wordpools/wasnorm_wordpool_less_exclusions.txt	LTP287	ltpFR	4	n/a	1	RECEPTIONIST	1174	n/a	1	n/a	n/a	n/a	n/a	n/a
3330.398	n/a	FFR_REC_WORD	1665199	wordpools/wasnorm_wordpool_less_exclusions.txt	LTP287	ltpFR	4	n/a	1	GALAXY	617	n/a	0	n/a	n/a	n/a	n/a	n/a
3331.714	n/a	FFR_REC_WORD	1665857	wordpools/wasnorm_wordpool_less_exclusions.txt	LTP287	ltpFR	4	n/a	1	AIRPORT	13	n/a	0	n/a	n/a	n/a	n/a	n/a
3335.824	n/a	FFR_REC_WORD	1667912	wordpools/wasnorm_wordpool_less_exclusions.txt	LTP287	ltpFR	4	n/a	1	SATURN	1236	n/a	0	n/a	n/a	n/a	n/a	n/a
3337.082	n/a	FFR_REC_WORD	1668541	wordpools/wasnorm_wordpool_less_exclusions.txt	LTP287	ltpFR	4	n/a	-1	NEPTUNE	943	n/a	-1	n/a	n/a	n/a	n/a	n/a
3338.354	n/a	FFR_REC_WORD	1669177	wordpools/wasnorm_wordpool_less_exclusions.txt	LTP287	ltpFR	4	n/a	-1	OCEAN	970	n/a	-1	n/a	n/a	n/a	n/a	n/a
3345.778	n/a	FFR_REC_WORD	1672889	wordpools/wasnorm_wordpool_less_exclusions.txt	LTP287	ltpFR	4	n/a	0	MARS	873	n/a	1	n/a	n/a	n/a	n/a	n/a
3348.522	n/a	FFR_REC_WORD	1674261	wordpools/wasnorm_wordpool_less_exclusions.txt	LTP287	ltpFR	4	n/a	1	CRATER	400	n/a	0	n/a	n/a	n/a	n/a	n/a
3349.296	n/a	FFR_REC_WORD	1674648	wordpools/wasnorm_wordpool_less_exclusions.txt	LTP287	ltpFR	4	n/a	1	SWAMP	1416	n/a	0	n/a	n/a	n/a	n/a	n/a
3352.738	n/a	FFR_REC_WORD	1676369	wordpools/wasnorm_wordpool_less_exclusions.txt	LTP287	ltpFR	4	n/a	0	KING	777	n/a	1	n/a	n/a	n/a	n/a	n/a
3353.746	n/a	FFR_REC_WORD	1676873	wordpools/wasnorm_wordpool_less_exclusions.txt	LTP287	ltpFR	4	n/a	0	MONARCH	906	n/a	1	n/a	n/a	n/a	n/a	n/a
3653.042	n/a	REC_START	1826521	n/a	LTP287	ltpFR	4	1	n/a	n/a	n/a	n/a	n/a	n/a	n/a	n/a	n/a	n/a
3653.102	n/a	RECOG_TARGET	1826551	n/a	LTP287	ltpFR	4	1	1	CONTAINER	366	5	0	n/a	n/a	n/a	n/a	n/a
3654.032	n/a	RECOG_RESP	1827016	n/a	LTP287	ltpFR	4	1	1	CONTAINER	366	n/a	0	n/a	n/a	n/a	n/a	n/a
3655.212	n/a	RECOG_CONF	1827606	n/a	LTP287	ltpFR	4	1	1	CONTAINER	366	5	0	n/a	n/a	n/a	n/a	n/a
3657.642	n/a	RECOG_LURE	1828821	n/a	LTP287	ltpFR	4	1	n/a	STATUE	1374	1	n/a	n/a	n/a	n/a	n/a	n/a
3658.532	n/a	RECOG_RESP	1829266	n/a	LTP287	ltpFR	4	1	n/a	STATUE	1374	n/a	n/a	n/a	n/a	n/a	n/a	n/a
3659.804	n/a	RECOG_CONF	1829902	n/a	LTP287	ltpFR	4	1	n/a	STATUE	1374	1	n/a	n/a	n/a	n/a	n/a	n/a
3661.602	n/a	RECOG_LURE	1830801	n/a	LTP287	ltpFR	4	1	n/a	COMMUNITY	356	1	n/a	n/a	n/a	n/a	n/a	n/a
3662.478	n/a	RECOG_RESP	1831239	n/a	LTP287	ltpFR	4	1	n/a	COMMUNITY	356	n/a	n/a	n/a	n/a	n/a	n/a	n/a
3663.632	n/a	RECOG_CONF	1831816	n/a	LTP287	ltpFR	4	1	n/a	COMMUNITY	356	1	n/a	n/a	n/a	n/a	n/a	n/a
3665.5	n/a	RECOG_TARGET	1832750	n/a	LTP287	ltpFR	4	1	1	PAIL	1002	4	0	n/a	n/a	n/a	n/a	n/a
3666.158	n/a	RECOG_RESP	1833079	n/a	LTP287	ltpFR	4	1	1	PAIL	1002	n/a	0	n/a	n/a	n/a	n/a	n/a
3667.354	n/a	RECOG_CONF	1833677	n/a	LTP287	ltpFR	4	1	1	PAIL	1002	4	0	n/a	n/a	n/a	n/a	n/a
3669.198	n/a	RECOG_LURE	1834599	n/a	LTP287	ltpFR	4	1	n/a	DUSTPAN	509	3	n/a	n/a	n/a	n/a	n/a	n/a
3670.174	n/a	RECOG_RESP	1835087	n/a	LTP287	ltpFR	4	1	n/a	DUSTPAN	509	n/a	n/a	n/a	n/a	n/a	n/a	n/a
3671.224	n/a	RECOG_CONF	1835612	n/a	LTP287	ltpFR	4	1	n/a	DUSTPAN	509	3	n/a	n/a	n/a	n/a	n/a	n/a
3673.0	n/a	RECOG_LURE	1836500	n/a	LTP287	ltpFR	4	1	n/a	MERMAID	887	4	n/a	n/a	n/a	n/a	n/a	n/a
3673.784	n/a	RECOG_RESP	1836892	n/a	LTP287	ltpFR	4	1	n/a	MERMAID	887	n/a	n/a	n/a	n/a	n/a	n/a	n/a
3674.894	n/a	RECOG_CONF	1837447	n/a	LTP287	ltpFR	4	1	n/a	MERMAID	887	4	n/a	n/a	n/a	n/a	n/a	n/a
3676.732	n/a	RECOG_TARGET	1838366	n/a	LTP287	ltpFR	4	1	-1	CONCRETE	361	5	-1	n/a	n/a	n/a	n/a	n/a
3677.428	n/a	RECOG_RESP	1838714	n/a	LTP287	ltpFR	4	1	-1	CONCRETE	361	n/a	-1	n/a	n/a	n/a	n/a	n/a
3678.544	n/a	RECOG_CONF	1839272	n/a	LTP287	ltpFR	4	1	-1	CONCRETE	361	5	-1	n/a	n/a	n/a	n/a	n/a
3680.512	n/a	RECOG_TARGET	1840256	n/a	LTP287	ltpFR	4	1	0	VAN	1548	3	1	n/a	n/a	n/a	n/a	n/a
3681.364	n/a	RECOG_RESP	1840682	n/a	LTP287	ltpFR	4	1	0	VAN	1548	n/a	1	n/a	n/a	n/a	n/a	n/a
3682.384	n/a	RECOG_CONF	1841192	n/a	LTP287	ltpFR	4	1	0	VAN	1548	3	1	n/a	n/a	n/a	n/a	n/a
3684.472	n/a	RECOG_LURE	1842236	n/a	LTP287	ltpFR	4	1	n/a	TEENAGER	1444	5	n/a	n/a	n/a	n/a	n/a	n/a
3685.26	n/a	RECOG_RESP	1842630	n/a	LTP287	ltpFR	4	1	n/a	TEENAGER	1444	n/a	n/a	n/a	n/a	n/a	n/a	n/a
3686.344	n/a	RECOG_CONF	1843172	n/a	LTP287	ltpFR	4	1	n/a	TEENAGER	1444	5	n/a	n/a	n/a	n/a	n/a	n/a
3688.258	n/a	RECOG_LURE	1844129	n/a	LTP287	ltpFR	4	1	n/a	PORCH	1106	3	n/a	n/a	n/a	n/a	n/a	n/a
3689.08	n/a	RECOG_RESP	1844540	n/a	LTP287	ltpFR	4	1	n/a	PORCH	1106	n/a	n/a	n/a	n/a	n/a	n/a	n/a
3690.214	n/a	RECOG_CONF	1845107	n/a	LTP287	ltpFR	4	1	n/a	PORCH	1106	3	n/a	n/a	n/a	n/a	n/a	n/a
3692.006	n/a	RECOG_LURE	1846003	n/a	LTP287	ltpFR	4	1	n/a	ADOLESCENT	7	2	n/a	n/a	n/a	n/a	n/a	n/a
3692.724	n/a	RECOG_RESP	1846362	n/a	LTP287	ltpFR	4	1	n/a	ADOLESCENT	7	n/a	n/a	n/a	n/a	n/a	n/a	n/a
3693.774	n/a	RECOG_CONF	1846887	n/a	LTP287	ltpFR	4	1	n/a	ADOLESCENT	7	2	n/a	n/a	n/a	n/a	n/a	n/a
3695.638	n/a	RECOG_LURE	1847819	n/a	LTP287	ltpFR	4	1	n/a	PROFESSOR	1131	4	n/a	n/a	n/a	n/a	n/a	n/a
3696.374	n/a	RECOG_RESP	1848187	n/a	LTP287	ltpFR	4	1	n/a	PROFESSOR	1131	n/a	n/a	n/a	n/a	n/a	n/a	n/a
3697.474	n/a	RECOG_CONF	1848737	n/a	LTP287	ltpFR	4	1	n/a	PROFESSOR	1131	4	n/a	n/a	n/a	n/a	n/a	n/a
3699.446	n/a	RECOG_LURE	1849723	n/a	LTP287	ltpFR	4	1	n/a	PLAQUE	1084	1	n/a	n/a	n/a	n/a	n/a	n/a
3700.284	n/a	RECOG_RESP	1850142	n/a	LTP287	ltpFR	4	1	n/a	PLAQUE	1084	n/a	n/a	n/a	n/a	n/a	n/a	n/a
3701.414	n/a	RECOG_CONF	1850707	n/a	LTP287	ltpFR	4	1	n/a	PLAQUE	1084	1	n/a	n/a	n/a	n/a	n/a	n/a
3703.16	n/a	RECOG_TARGET	1851580	n/a	LTP287	ltpFR	4	1	1	BRANDY	169	5	0	n/a	n/a	n/a	n/a	n/a
3703.856	n/a	RECOG_RESP	1851928	n/a	LTP287	ltpFR	4	1	1	BRANDY	169	n/a	0	n/a	n/a	n/a	n/a	n/a
3705.036	n/a	RECOG_CONF	1852518	n/a	LTP287	ltpFR	4	1	1	BRANDY	169	5	0	n/a	n/a	n/a	n/a	n/a
3707.082	n/a	RECOG_LURE	1853541	n/a	LTP287	ltpFR	4	1	n/a	MONEY	908	1	n/a	n/a	n/a	n/a	n/a	n/a
3708.35	n/a	RECOG_RESP	1854175	n/a	LTP287	ltpFR	4	1	n/a	MONEY	908	n/a	n/a	n/a	n/a	n/a	n/a	n/a
3709.416	n/a	RECOG_CONF	1854708	n/a	LTP287	ltpFR	4	1	n/a	MONEY	908	1	n/a	n/a	n/a	n/a	n/a	n/a
3711.374	n/a	RECOG_LURE	1855687	n/a	LTP287	ltpFR	4	1	n/a	HOSTAGE	722	5	n/a	n/a	n/a	n/a	n/a	n/a
3712.286	n/a	RECOG_RESP	1856143	n/a	LTP287	ltpFR	4	1	n/a	HOSTAGE	722	n/a	n/a	n/a	n/a	n/a	n/a	n/a
3713.386	n/a	RECOG_CONF	1856693	n/a	LTP287	ltpFR	4	1	n/a	HOSTAGE	722	5	n/a	n/a	n/a	n/a	n/a	n/a
3715.396	n/a	RECOG_LURE	1857698	n/a	LTP287	ltpFR	4	1	n/a	WAITRESS	1581	1	n/a	n/a	n/a	n/a	n/a	n/a
3716.296	n/a	RECOG_RESP	1858148	n/a	LTP287	ltpFR	4	1	n/a	WAITRESS	1581	n/a	n/a	n/a	n/a	n/a	n/a	n/a
3717.406	n/a	RECOG_CONF	1858703	n/a	LTP287	ltpFR	4	1	n/a	WAITRESS	1581	1	n/a	n/a	n/a	n/a	n/a	n/a
3719.254	n/a	RECOG_TARGET	1859627	n/a	LTP287	ltpFR	4	1	0	COSTUME	383	4	1	n/a	n/a	n/a	n/a	n/a
3720.16	n/a	RECOG_RESP	1860080	n/a	LTP287	ltpFR	4	1	0	COSTUME	383	n/a	1	n/a	n/a	n/a	n/a	n/a
3721.096	n/a	RECOG_CONF	1860548	n/a	LTP287	ltpFR	4	1	0	COSTUME	383	4	1	n/a	n/a	n/a	n/a	n/a
3723.17	n/a	RECOG_TARGET	1861585	n/a	LTP287	ltpFR	4	1	1	TIGER	1467	5	1	n/a	n/a	n/a	n/a	n/a
3724.066	n/a	RECOG_RESP	1862033	n/a	LTP287	ltpFR	4	1	1	TIGER	1467	n/a	1	n/a	n/a	n/a	n/a	n/a
3725.156	n/a	RECOG_CONF	1862578	n/a	LTP287	ltpFR	4	1	1	TIGER	1467	5	1	n/a	n/a	n/a	n/a	n/a
3727.208	n/a	RECOG_TARGET	1863604	n/a	LTP287	ltpFR	4	1	0	LOLLIPOP	842	5	0	n/a	n/a	n/a	n/a	n/a
3727.862	n/a	RECOG_RESP	1863931	n/a	LTP287	ltpFR	4	1	0	LOLLIPOP	842	n/a	0	n/a	n/a	n/a	n/a	n/a
3728.836	n/a	RECOG_CONF	1864418	n/a	LTP287	ltpFR	4	1	0	LOLLIPOP	842	5	0	n/a	n/a	n/a	n/a	n/a
3734.618	n/a	REC_START	1867309	n/a	LTP287	ltpFR	4	2	n/a	n/a	n/a	n/a	n/a	n/a	n/a	n/a	n/a	n/a
3734.67	n/a	RECOG_LURE	1867335	n/a	LTP287	ltpFR	4	2	n/a	SHIRT	1287	4	n/a	n/a	n/a	n/a	n/a	n/a
3735.424	n/a	RECOG_RESP	1867712	n/a	LTP287	ltpFR	4	2	n/a	SHIRT	1287	n/a	n/a	n/a	n/a	n/a	n/a	n/a
3736.558	n/a	RECOG_CONF	1868279	n/a	LTP287	ltpFR	4	2	n/a	SHIRT	1287	4	n/a	n/a	n/a	n/a	n/a	n/a
3738.512	n/a	RECOG_TARGET	1869256	n/a	LTP287	ltpFR	4	2	1	EGG	518	2	1	n/a	n/a	n/a	n/a	n/a
3739.544	n/a	RECOG_RESP	1869772	n/a	LTP287	ltpFR	4	2	1	EGG	518	n/a	1	n/a	n/a	n/a	n/a	n/a
3740.76	n/a	RECOG_CONF	1870380	n/a	LTP287	ltpFR	4	2	1	EGG	518	2	1	n/a	n/a	n/a	n/a	n/a
3742.634	n/a	RECOG_LURE	1871317	n/a	LTP287	ltpFR	4	2	n/a	SACK	1220	1	n/a	n/a	n/a	n/a	n/a	n/a
3743.544	n/a	RECOG_RESP	1871772	n/a	LTP287	ltpFR	4	2	n/a	SACK	1220	n/a	n/a	n/a	n/a	n/a	n/a	n/a
3744.69	n/a	RECOG_CONF	1872345	n/a	LTP287	ltpFR	4	2	n/a	SACK	1220	1	n/a	n/a	n/a	n/a	n/a	n/a
3746.65	n/a	RECOG_TARGET	1873325	n/a	LTP287	ltpFR	4	2	0	PORCUPINE	1107	4	0	n/a	n/a	n/a	n/a	n/a
3747.4	n/a	RECOG_RESP	1873700	n/a	LTP287	ltpFR	4	2	0	PORCUPINE	1107	n/a	0	n/a	n/a	n/a	n/a	n/a
3748.57	n/a	RECOG_CONF	1874285	n/a	LTP287	ltpFR	4	2	0	PORCUPINE	1107	4	0	n/a	n/a	n/a	n/a	n/a
3750.496	n/a	RECOG_LURE	1875248	n/a	LTP287	ltpFR	4	2	n/a	CARTON	251	1	n/a	n/a	n/a	n/a	n/a	n/a
3751.324	n/a	RECOG_RESP	1875662	n/a	LTP287	ltpFR	4	2	n/a	CARTON	251	n/a	n/a	n/a	n/a	n/a	n/a	n/a
3752.55	n/a	RECOG_CONF	1876275	n/a	LTP287	ltpFR	4	2	n/a	CARTON	251	1	n/a	n/a	n/a	n/a	n/a	n/a
3754.394	n/a	RECOG_TARGET	1877197	n/a	LTP287	ltpFR	4	2	1	RAM	1165	5	1	n/a	n/a	n/a	n/a	n/a
3755.09	n/a	RECOG_RESP	1877545	n/a	LTP287	ltpFR	4	2	1	RAM	1165	n/a	1	n/a	n/a	n/a	n/a	n/a
3756.21	n/a	RECOG_CONF	1878105	n/a	LTP287	ltpFR	4	2	1	RAM	1165	5	1	n/a	n/a	n/a	n/a	n/a
3758.252	n/a	RECOG_TARGET	1879126	n/a	LTP287	ltpFR	4	2	-1	LENS	811	2	-1	n/a	n/a	n/a	n/a	n/a
3758.904	n/a	RECOG_RESP	1879452	n/a	LTP287	ltpFR	4	2	-1	LENS	811	n/a	-1	n/a	n/a	n/a	n/a	n/a
3760.07	n/a	RECOG_CONF	1880035	n/a	LTP287	ltpFR	4	2	-1	LENS	811	2	-1	n/a	n/a	n/a	n/a	n/a
3761.958	n/a	RECOG_LURE	1880979	n/a	LTP287	ltpFR	4	2	n/a	BABY	64	4	n/a	n/a	n/a	n/a	n/a	n/a
3762.986	n/a	RECOG_RESP	1881493	n/a	LTP287	ltpFR	4	2	n/a	BABY	64	n/a	n/a	n/a	n/a	n/a	n/a	n/a
3764.24	n/a	RECOG_CONF	1882120	n/a	LTP287	ltpFR	4	2	n/a	BABY	64	4	n/a	n/a	n/a	n/a	n/a	n/a
3766.208	n/a	RECOG_TARGET	1883104	n/a	LTP287	ltpFR	4	2	0	LONDON	843	5	1	n/a	n/a	n/a	n/a	n/a
3767.146	n/a	RECOG_RESP	1883573	n/a	LTP287	ltpFR	4	2	0	LONDON	843	n/a	1	n/a	n/a	n/a	n/a	n/a
3768.29	n/a	RECOG_CONF	1884145	n/a	LTP287	ltpFR	4	2	0	LONDON	843	5	1	n/a	n/a	n/a	n/a	n/a
3770.282	n/a	RECOG_LURE	1885141	n/a	LTP287	ltpFR	4	2	n/a	TOY	1492	1	n/a	n/a	n/a	n/a	n/a	n/a
3771.41	n/a	RECOG_RESP	1885705	n/a	LTP287	ltpFR	4	2	n/a	TOY	1492	n/a	n/a	n/a	n/a	n/a	n/a	n/a
3772.572	n/a	RECOG_CONF	1886286	n/a	LTP287	ltpFR	4	2	n/a	TOY	1492	1	n/a	n/a	n/a	n/a	n/a	n/a
3774.556	n/a	RECOG_TARGET	1887278	n/a	LTP287	ltpFR	4	2	1	OPERATOR	979	4	1	n/a	n/a	n/a	n/a	n/a
3775.7	n/a	RECOG_RESP	1887850	n/a	LTP287	ltpFR	4	2	1	OPERATOR	979	n/a	1	n/a	n/a	n/a	n/a	n/a
3777.28	n/a	RECOG_CONF	1888640	n/a	LTP287	ltpFR	4	2	1	OPERATOR	979	4	1	n/a	n/a	n/a	n/a	n/a
3779.174	n/a	RECOG_TARGET	1889587	n/a	LTP287	ltpFR	4	2	-1	OCEAN	970	2	-1	n/a	n/a	n/a	n/a	n/a
3780.226	n/a	RECOG_RESP	1890113	n/a	LTP287	ltpFR	4	2	-1	OCEAN	970	n/a	-1	n/a	n/a	n/a	n/a	n/a
3781.442	n/a	RECOG_CONF	1890721	n/a	LTP287	ltpFR	4	2	-1	OCEAN	970	2	-1	n/a	n/a	n/a	n/a	n/a
3783.418	n/a	RECOG_TARGET	1891709	n/a	LTP287	ltpFR	4	2	0	COUNTRY	388	5	1	n/a	n/a	n/a	n/a	n/a
3784.476	n/a	RECOG_RESP	1892238	n/a	LTP287	ltpFR	4	2	0	COUNTRY	388	n/a	1	n/a	n/a	n/a	n/a	n/a
3785.632	n/a	RECOG_CONF	1892816	n/a	LTP287	ltpFR	4	2	0	COUNTRY	388	5	1	n/a	n/a	n/a	n/a	n/a
3787.616	n/a	RECOG_LURE	1893808	n/a	LTP287	ltpFR	4	2	n/a	FIN	566	1	n/a	n/a	n/a	n/a	n/a	n/a
3788.652	n/a	RECOG_RESP	1894326	n/a	LTP287	ltpFR	4	2	n/a	FIN	566	n/a	n/a	n/a	n/a	n/a	n/a	n/a
3789.79	n/a	RECOG_CONF	1894895	n/a	LTP287	ltpFR	4	2	n/a	FIN	566	1	n/a	n/a	n/a	n/a	n/a	n/a
3791.67	n/a	RECOG_TARGET	1895835	n/a	LTP287	ltpFR	4	2	0	WINDOW	1611	5	1	n/a	n/a	n/a	n/a	n/a
3792.932	n/a	RECOG_RESP	1896466	n/a	LTP287	ltpFR	4	2	0	WINDOW	1611	n/a	1	n/a	n/a	n/a	n/a	n/a
3794.022	n/a	RECOG_CONF	1897011	n/a	LTP287	ltpFR	4	2	0	WINDOW	1611	5	1	n/a	n/a	n/a	n/a	n/a
3795.936	n/a	RECOG_TARGET	1897968	n/a	LTP287	ltpFR	4	2	-1	ZUCCHINI	1638	5	-1	n/a	n/a	n/a	n/a	n/a
3796.976	n/a	RECOG_RESP	1898488	n/a	LTP287	ltpFR	4	2	-1	ZUCCHINI	1638	n/a	-1	n/a	n/a	n/a	n/a	n/a
3798.062	n/a	RECOG_CONF	1899031	n/a	LTP287	ltpFR	4	2	-1	ZUCCHINI	1638	5	-1	n/a	n/a	n/a	n/a	n/a
3799.902	n/a	RECOG_TARGET	1899951	n/a	LTP287	ltpFR	4	2	0	PRUNE	1134	2	0	n/a	n/a	n/a	n/a	n/a
3800.758	n/a	RECOG_RESP	1900379	n/a	LTP287	ltpFR	4	2	0	PRUNE	1134	n/a	0	n/a	n/a	n/a	n/a	n/a
3801.922	n/a	RECOG_CONF	1900961	n/a	LTP287	ltpFR	4	2	0	PRUNE	1134	2	0	n/a	n/a	n/a	n/a	n/a
3803.834	n/a	RECOG_LURE	1901917	n/a	LTP287	ltpFR	4	2	n/a	COACH	331	4	n/a	n/a	n/a	n/a	n/a	n/a
3804.698	n/a	RECOG_RESP	1902349	n/a	LTP287	ltpFR	4	2	n/a	COACH	331	n/a	n/a	n/a	n/a	n/a	n/a	n/a
3805.892	n/a	RECOG_CONF	1902946	n/a	LTP287	ltpFR	4	2	n/a	COACH	331	4	n/a	n/a	n/a	n/a	n/a	n/a
3807.866	n/a	RECOG_TARGET	1903933	n/a	LTP287	ltpFR	4	2	1	MEAT	883	5	0	n/a	n/a	n/a	n/a	n/a
3808.812	n/a	RECOG_RESP	1904406	n/a	LTP287	ltpFR	4	2	1	MEAT	883	n/a	0	n/a	n/a	n/a	n/a	n/a
3809.932	n/a	RECOG_CONF	1904966	n/a	LTP287	ltpFR	4	2	1	MEAT	883	5	0	n/a	n/a	n/a	n/a	n/a
3811.892	n/a	RECOG_LURE	1905946	n/a	LTP287	ltpFR	4	2	n/a	TROMBONE	1508	4	n/a	n/a	n/a	n/a	n/a	n/a
3812.742	n/a	RECOG_RESP	1906371	n/a	LTP287	ltpFR	4	2	n/a	TROMBONE	1508	n/a	n/a	n/a	n/a	n/a	n/a	n/a
3813.862	n/a	RECOG_CONF	1906931	n/a	LTP287	ltpFR	4	2	n/a	TROMBONE	1508	4	n/a	n/a	n/a	n/a	n/a	n/a
3834.236	n/a	REC_START	1917118	n/a	LTP287	ltpFR	4	3	n/a	n/a	n/a	n/a	n/a	n/a	n/a	n/a	n/a	n/a
3834.294	n/a	RECOG_TARGET	1917147	n/a	LTP287	ltpFR	4	3	-1	NEPTUNE	943	5	-1	n/a	n/a	n/a	n/a	n/a
3835.176	n/a	RECOG_RESP	1917588	n/a	LTP287	ltpFR	4	3	-1	NEPTUNE	943	n/a	-1	n/a	n/a	n/a	n/a	n/a
3836.348	n/a	RECOG_CONF	1918174	n/a	LTP287	ltpFR	4	3	-1	NEPTUNE	943	5	-1	n/a	n/a	n/a	n/a	n/a
3838.26	n/a	RECOG_TARGET	1919130	n/a	LTP287	ltpFR	4	3	-1	PERCH	1048	4	-1	n/a	n/a	n/a	n/a	n/a
3838.972	n/a	RECOG_RESP	1919486	n/a	LTP287	ltpFR	4	3	-1	PERCH	1048	n/a	-1	n/a	n/a	n/a	n/a	n/a
3840.068	n/a	RECOG_CONF	1920034	n/a	LTP287	ltpFR	4	3	-1	PERCH	1048	4	-1	n/a	n/a	n/a	n/a	n/a
3841.98	n/a	RECOG_TARGET	1920990	n/a	LTP287	ltpFR	4	3	-1	CRAB	397	5	-1	n/a	n/a	n/a	n/a	n/a
3842.778	n/a	RECOG_RESP	1921389	n/a	LTP287	ltpFR	4	3	-1	CRAB	397	n/a	-1	n/a	n/a	n/a	n/a	n/a
3843.868	n/a	RECOG_CONF	1921934	n/a	LTP287	ltpFR	4	3	-1	CRAB	397	5	-1	n/a	n/a	n/a	n/a	n/a
3845.71	n/a	RECOG_TARGET	1922855	n/a	LTP287	ltpFR	4	3	1	CLERK	321	5	1	n/a	n/a	n/a	n/a	n/a
3846.648	n/a	RECOG_RESP	1923324	n/a	LTP287	ltpFR	4	3	1	CLERK	321	n/a	1	n/a	n/a	n/a	n/a	n/a
3847.708	n/a	RECOG_CONF	1923854	n/a	LTP287	ltpFR	4	3	1	CLERK	321	5	1	n/a	n/a	n/a	n/a	n/a
3849.604	n/a	RECOG_LURE	1924802	n/a	LTP287	ltpFR	4	3	n/a	DRAWER	493	2	n/a	n/a	n/a	n/a	n/a	n/a
3850.672	n/a	RECOG_RESP	1925336	n/a	LTP287	ltpFR	4	3	n/a	DRAWER	493	n/a	n/a	n/a	n/a	n/a	n/a	n/a
3851.708	n/a	RECOG_CONF	1925854	n/a	LTP287	ltpFR	4	3	n/a	DRAWER	493	2	n/a	n/a	n/a	n/a	n/a	n/a
3853.64	n/a	RECOG_LURE	1926820	n/a	LTP287	ltpFR	4	3	n/a	RULER	1216	4	n/a	n/a	n/a	n/a	n/a	n/a
3854.524	n/a	RECOG_RESP	1927262	n/a	LTP287	ltpFR	4	3	n/a	RULER	1216	n/a	n/a	n/a	n/a	n/a	n/a	n/a
3855.588	n/a	RECOG_CONF	1927794	n/a	LTP287	ltpFR	4	3	n/a	RULER	1216	4	n/a	n/a	n/a	n/a	n/a	n/a
3857.506	n/a	RECOG_LURE	1928753	n/a	LTP287	ltpFR	4	3	n/a	VEAL	1551	5	n/a	n/a	n/a	n/a	n/a	n/a
3858.398	n/a	RECOG_RESP	1929199	n/a	LTP287	ltpFR	4	3	n/a	VEAL	1551	n/a	n/a	n/a	n/a	n/a	n/a	n/a
3859.458	n/a	RECOG_CONF	1929729	n/a	LTP287	ltpFR	4	3	n/a	VEAL	1551	5	n/a	n/a	n/a	n/a	n/a	n/a
3861.422	n/a	RECOG_TARGET	1930711	n/a	LTP287	ltpFR	4	3	1	WORKER	1621	1	1	n/a	n/a	n/a	n/a	n/a
3862.518	n/a	RECOG_RESP	1931259	n/a	LTP287	ltpFR	4	3	1	WORKER	1621	n/a	1	n/a	n/a	n/a	n/a	n/a
3863.602	n/a	RECOG_CONF	1931801	n/a	LTP287	ltpFR	4	3	1	WORKER	1621	1	1	n/a	n/a	n/a	n/a	n/a
3865.554	n/a	RECOG_LURE	1932777	n/a	LTP287	ltpFR	4	3	n/a	WIDOW	1608	4	n/a	n/a	n/a	n/a	n/a	n/a
3866.524	n/a	RECOG_RESP	1933262	n/a	LTP287	ltpFR	4	3	n/a	WIDOW	1608	n/a	n/a	n/a	n/a	n/a	n/a	n/a
3867.558	n/a	RECOG_CONF	1933779	n/a	LTP287	ltpFR	4	3	n/a	WIDOW	1608	4	n/a	n/a	n/a	n/a	n/a	n/a
3869.3	n/a	RECOG_LURE	1934650	n/a	LTP287	ltpFR	4	3	n/a	COMMITTEE	355	5	n/a	n/a	n/a	n/a	n/a	n/a
3870.328	n/a	RECOG_RESP	1935164	n/a	LTP287	ltpFR	4	3	n/a	COMMITTEE	355	n/a	n/a	n/a	n/a	n/a	n/a	n/a
3871.358	n/a	RECOG_CONF	1935679	n/a	LTP287	ltpFR	4	3	n/a	COMMITTEE	355	5	n/a	n/a	n/a	n/a	n/a	n/a
3873.248	n/a	RECOG_TARGET	1936624	n/a	LTP287	ltpFR	4	3	0	HORNET	718	3	0	n/a	n/a	n/a	n/a	n/a
3874.1	n/a	RECOG_RESP	1937050	n/a	LTP287	ltpFR	4	3	0	HORNET	718	n/a	0	n/a	n/a	n/a	n/a	n/a
3875.13	n/a	RECOG_CONF	1937565	n/a	LTP287	ltpFR	4	3	0	HORNET	718	3	0	n/a	n/a	n/a	n/a	n/a
3877.092	n/a	RECOG_TARGET	1938546	n/a	LTP287	ltpFR	4	3	1	PROFESSIONAL	1130	1	1	n/a	n/a	n/a	n/a	n/a
3878.034	n/a	RECOG_RESP	1939017	n/a	LTP287	ltpFR	4	3	1	PROFESSIONAL	1130	n/a	1	n/a	n/a	n/a	n/a	n/a
3878.986	n/a	RECOG_CONF	1939493	n/a	LTP287	ltpFR	4	3	1	PROFESSIONAL	1130	1	1	n/a	n/a	n/a	n/a	n/a
3881.04	n/a	RECOG_LURE	1940520	n/a	LTP287	ltpFR	4	3	n/a	JAPAN	749	2	n/a	n/a	n/a	n/a	n/a	n/a
3881.79	n/a	RECOG_RESP	1940895	n/a	LTP287	ltpFR	4	3	n/a	JAPAN	749	n/a	n/a	n/a	n/a	n/a	n/a	n/a
3882.86	n/a	RECOG_CONF	1941430	n/a	LTP287	ltpFR	4	3	n/a	JAPAN	749	2	n/a	n/a	n/a	n/a	n/a	n/a
3884.844	n/a	RECOG_LURE	1942422	n/a	LTP287	ltpFR	4	3	n/a	ACID	2	4	n/a	n/a	n/a	n/a	n/a	n/a
3885.82	n/a	RECOG_RESP	1942910	n/a	LTP287	ltpFR	4	3	n/a	ACID	2	n/a	n/a	n/a	n/a	n/a	n/a	n/a
3887.01	n/a	RECOG_CONF	1943505	n/a	LTP287	ltpFR	4	3	n/a	ACID	2	4	n/a	n/a	n/a	n/a	n/a	n/a
3888.936	n/a	RECOG_LURE	1944468	n/a	LTP287	ltpFR	4	3	n/a	WARDROBE	1587	3	n/a	n/a	n/a	n/a	n/a	n/a
3889.78	n/a	RECOG_RESP	1944890	n/a	LTP287	ltpFR	4	3	n/a	WARDROBE	1587	n/a	n/a	n/a	n/a	n/a	n/a	n/a
3890.8	n/a	RECOG_CONF	1945400	n/a	LTP287	ltpFR	4	3	n/a	WARDROBE	1587	3	n/a	n/a	n/a	n/a	n/a	n/a
3892.59	n/a	RECOG_LURE	1946295	n/a	LTP287	ltpFR	4	3	n/a	BALLOON	75	4	n/a	n/a	n/a	n/a	n/a	n/a
3893.45	n/a	RECOG_RESP	1946725	n/a	LTP287	ltpFR	4	3	n/a	BALLOON	75	n/a	n/a	n/a	n/a	n/a	n/a	n/a
3894.47	n/a	RECOG_CONF	1947235	n/a	LTP287	ltpFR	4	3	n/a	BALLOON	75	4	n/a	n/a	n/a	n/a	n/a	n/a
3896.388	n/a	RECOG_TARGET	1948194	n/a	LTP287	ltpFR	4	3	0	PLIERS	1089	5	0	n/a	n/a	n/a	n/a	n/a
3897.096	n/a	RECOG_RESP	1948548	n/a	LTP287	ltpFR	4	3	0	PLIERS	1089	n/a	0	n/a	n/a	n/a	n/a	n/a
3898.05	n/a	RECOG_CONF	1949025	n/a	LTP287	ltpFR	4	3	0	PLIERS	1089	5	0	n/a	n/a	n/a	n/a	n/a
3899.868	n/a	RECOG_TARGET	1949934	n/a	LTP287	ltpFR	4	3	1	SUPERMARKET	1409	1	0	n/a	n/a	n/a	n/a	n/a
3900.496	n/a	RECOG_RESP	1950248	n/a	LTP287	ltpFR	4	3	1	SUPERMARKET	1409	n/a	0	n/a	n/a	n/a	n/a	n/a
3901.586	n/a	RECOG_CONF	1950793	n/a	LTP287	ltpFR	4	3	1	SUPERMARKET	1409	1	0	n/a	n/a	n/a	n/a	n/a
3903.408	n/a	RECOG_TARGET	1951704	n/a	LTP287	ltpFR	4	3	0	CORK	380	1	0	n/a	n/a	n/a	n/a	n/a
3904.176	n/a	RECOG_RESP	1952088	n/a	LTP287	ltpFR	4	3	0	CORK	380	n/a	0	n/a	n/a	n/a	n/a	n/a
3905.31	n/a	RECOG_CONF	1952655	n/a	LTP287	ltpFR	4	3	0	CORK	380	1	0	n/a	n/a	n/a	n/a	n/a
3907.112	n/a	RECOG_LURE	1953556	n/a	LTP287	ltpFR	4	3	n/a	COBRA	336	3	n/a	n/a	n/a	n/a	n/a	n/a
3907.89	n/a	RECOG_RESP	1953945	n/a	LTP287	ltpFR	4	3	n/a	COBRA	336	n/a	n/a	n/a	n/a	n/a	n/a	n/a
3908.95	n/a	RECOG_CONF	1954475	n/a	LTP287	ltpFR	4	3	n/a	COBRA	336	3	n/a	n/a	n/a	n/a	n/a	n/a
3920.444	n/a	REC_START	1960222	n/a	LTP287	ltpFR	4	4	n/a	n/a	n/a	n/a	n/a	n/a	n/a	n/a	n/a	n/a
3920.496	n/a	RECOG_TARGET	1960248	n/a	LTP287	ltpFR	4	4	1	ASSISTANT	48	3	1	n/a	n/a	n/a	n/a	n/a
3921.28	n/a	RECOG_RESP	1960640	n/a	LTP287	ltpFR	4	4	1	ASSISTANT	48	n/a	1	n/a	n/a	n/a	n/a	n/a
3922.634	n/a	RECOG_CONF	1961317	n/a	LTP287	ltpFR	4	4	1	ASSISTANT	48	3	1	n/a	n/a	n/a	n/a	n/a
