onset	duration	trial_type	sample	stim_file	subject	experiment	session	trial	item_name	item_num	list	answer	test_x	test_y	test_z
223.754	n/a	SESS_START	111877	n/a	LTP303	ltpFR2	16	n/a	n/a	n/a	n/a	n/a	0	0	0
261.102	n/a	START	130551	n/a	LTP303	ltpFR2	16	n/a	n/a	n/a	-1	n/a	n/a	n/a	n/a
261.116	n/a	PROB	130558	n/a	LTP303	ltpFR2	16	n/a	n/a	n/a	-1	20	2	7	1
262.632	n/a	PROB	131316	n/a	LTP303	ltpFR2	16	n/a	n/a	n/a	-1	13	2	2	9
264.35	n/a	PROB	132175	n/a	LTP303	ltpFR2	16	n/a	n/a	n/a	-1	4	1	1	2
265.268	n/a	PROB	132634	n/a	LTP303	ltpFR2	16	n/a	n/a	n/a	-1	5	1	2	2
266.202	n/a	PROB	133101	n/a	LTP303	ltpFR2	16	n/a	n/a	n/a	-1	16	6	8	2
267.302	n/a	PROB	133651	n/a	LTP303	ltpFR2	16	n/a	n/a	n/a	-1	21	6	8	7
268.754	n/a	PROB	134377	n/a	LTP303	ltpFR2	16	n/a	n/a	n/a	-1	12	6	4	2
270.006	n/a	PROB	135003	n/a	LTP303	ltpFR2	16	n/a	n/a	n/a	-1	16	3	9	4
273.102	n/a	STOP	136551	n/a	LTP303	ltpFR2	16	n/a	n/a	n/a	-1	n/a	n/a	n/a	n/a
291.04	n/a	DISTRACTOR	145520	n/a	LTP303	ltpFR2	16	1	n/a	n/a	n/a	n/a	0	0	0
291.04	n/a	START	145520	n/a	LTP303	ltpFR2	16	n/a	n/a	n/a	1	n/a	n/a	n/a	n/a
291.054	n/a	PROB	145527	n/a	LTP303	ltpFR2	16	n/a	n/a	n/a	1	7	1	2	4
292.89	n/a	PROB	146445	n/a	LTP303	ltpFR2	16	n/a	n/a	n/a	1	18	9	8	1
294.174	n/a	PROB	147087	n/a	LTP303	ltpFR2	16	n/a	n/a	n/a	1	14	9	2	3
295.574	n/a	PROB	147787	n/a	LTP303	ltpFR2	16	n/a	n/a	n/a	1	24	9	7	8
296.942	n/a	PROB	148471	n/a	LTP303	ltpFR2	16	n/a	n/a	n/a	1	16	5	4	7
298.494	n/a	PROB	149247	n/a	LTP303	ltpFR2	16	n/a	n/a	n/a	1	16	6	9	1
299.646	n/a	PROB	149823	n/a	LTP303	ltpFR2	16	n/a	n/a	n/a	1	4	1	2	1
300.73	n/a	PROB	150365	n/a	LTP303	ltpFR2	16	n/a	n/a	n/a	1	10	1	6	3
301.93	n/a	PROB	150965	n/a	LTP303	ltpFR2	16	n/a	n/a	n/a	1	15	8	6	1
302.88	n/a	PROB	151440	n/a	LTP303	ltpFR2	16	n/a	n/a	n/a	1	8	2	3	3
304.516	n/a	PROB	152258	n/a	LTP303	ltpFR2	16	n/a	n/a	n/a	1	14	5	6	3
305.65	n/a	PROB	152825	n/a	LTP303	ltpFR2	16	n/a	n/a	n/a	1	5	2	2	1
306.5	n/a	PROB	153250	n/a	LTP303	ltpFR2	16	n/a	n/a	n/a	1	15	8	6	1
307.402	n/a	PROB	153701	n/a	LTP303	ltpFR2	16	n/a	n/a	n/a	1	15	4	4	7
308.902	n/a	PROB	154451	n/a	LTP303	ltpFR2	16	n/a	n/a	n/a	1	19	9	2	8
309.986	n/a	PROB	154993	n/a	LTP303	ltpFR2	16	n/a	n/a	n/a	1	23	6	8	9
312.622	n/a	PROB	156311	n/a	LTP303	ltpFR2	16	n/a	n/a	n/a	1	17	3	7	7
314.474	n/a	STOP	157237	n/a	LTP303	ltpFR2	16	n/a	n/a	n/a	1	n/a	n/a	n/a	n/a
316.054	n/a	WORD	158027	wordpools/wasnorm_wordpool_576.txt	LTP303	ltpFR2	16	1	FLESH	579	n/a	n/a	0	0	0
318.572	n/a	WORD	159286	wordpools/wasnorm_wordpool_576.txt	LTP303	ltpFR2	16	1	WITNESS	1618	n/a	n/a	0	0	0
321.296	n/a	WORD	160648	wordpools/wasnorm_wordpool_576.txt	LTP303	ltpFR2	16	1	EGYPT	519	n/a	n/a	0	0	0
323.798	n/a	WORD	161899	wordpools/wasnorm_wordpool_576.txt	LTP303	ltpFR2	16	1	SEAFOOD	1260	n/a	n/a	0	0	0
326.366	n/a	WORD	163183	wordpools/wasnorm_wordpool_576.txt	LTP303	ltpFR2	16	1	SCRIBBLE	1256	n/a	n/a	0	0	0
328.796	n/a	WORD	164398	wordpools/wasnorm_wordpool_576.txt	LTP303	ltpFR2	16	1	CLAM	315	n/a	n/a	0	0	0
331.232	n/a	WORD	165616	wordpools/wasnorm_wordpool_576.txt	LTP303	ltpFR2	16	1	MARINE	869	n/a	n/a	0	0	0
333.886	n/a	WORD	166943	wordpools/wasnorm_wordpool_576.txt	LTP303	ltpFR2	16	1	SCULPTURE	1258	n/a	n/a	0	0	0
336.39	n/a	WORD	168195	wordpools/wasnorm_wordpool_576.txt	LTP303	ltpFR2	16	1	DRAWING	494	n/a	n/a	0	0	0
338.838	n/a	WORD	169419	wordpools/wasnorm_wordpool_576.txt	LTP303	ltpFR2	16	1	BRIEFCASE	175	n/a	n/a	0	0	0
341.278	n/a	WORD	170639	wordpools/wasnorm_wordpool_576.txt	LTP303	ltpFR2	16	1	THRONE	1461	n/a	n/a	0	0	0
343.976	n/a	WORD	171988	wordpools/wasnorm_wordpool_576.txt	LTP303	ltpFR2	16	1	CASHIER	254	n/a	n/a	0	0	0
346.662	n/a	WORD	173331	wordpools/wasnorm_wordpool_576.txt	LTP303	ltpFR2	16	1	PACKAGE	997	n/a	n/a	0	0	0
349.298	n/a	WORD	174649	wordpools/wasnorm_wordpool_576.txt	LTP303	ltpFR2	16	1	PASTA	1021	n/a	n/a	0	0	0
351.87	n/a	WORD	175935	wordpools/wasnorm_wordpool_576.txt	LTP303	ltpFR2	16	1	WRENCH	1625	n/a	n/a	0	0	0
354.602	n/a	WORD	177301	wordpools/wasnorm_wordpool_576.txt	LTP303	ltpFR2	16	1	SALAD	1224	n/a	n/a	0	0	0
357.02	n/a	WORD	178510	wordpools/wasnorm_wordpool_576.txt	LTP303	ltpFR2	16	1	TURNIP	1521	n/a	n/a	0	0	0
359.54	n/a	WORD	179770	wordpools/wasnorm_wordpool_576.txt	LTP303	ltpFR2	16	1	PIGMENT	1066	n/a	n/a	0	0	0
362.226	n/a	WORD	181113	wordpools/wasnorm_wordpool_576.txt	LTP303	ltpFR2	16	1	JELLO	754	n/a	n/a	0	0	0
364.912	n/a	WORD	182456	wordpools/wasnorm_wordpool_576.txt	LTP303	ltpFR2	16	1	LABEL	790	n/a	n/a	0	0	0
367.53	n/a	WORD	183765	wordpools/wasnorm_wordpool_576.txt	LTP303	ltpFR2	16	1	BODY	145	n/a	n/a	0	0	0
370.182	n/a	WORD	185091	wordpools/wasnorm_wordpool_576.txt	LTP303	ltpFR2	16	1	GYMNAST	675	n/a	n/a	0	0	0
372.784	n/a	WORD	186392	wordpools/wasnorm_wordpool_576.txt	LTP303	ltpFR2	16	1	SCALLOP	1242	n/a	n/a	0	0	0
375.586	n/a	WORD	187793	wordpools/wasnorm_wordpool_576.txt	LTP303	ltpFR2	16	1	DENTIST	447	n/a	n/a	0	0	0
377.206	n/a	START	188603	n/a	LTP303	ltpFR2	16	n/a	n/a	n/a	2	n/a	n/a	n/a	n/a
378.234	n/a	DISTRACTOR	189117	n/a	LTP303	ltpFR2	16	1	n/a	n/a	n/a	n/a	0	0	0
378.24	n/a	PROB	189120	n/a	LTP303	ltpFR2	16	n/a	n/a	n/a	2	8	2	3	3
380.056	n/a	PROB	190028	n/a	LTP303	ltpFR2	16	n/a	n/a	n/a	2	23	8	6	9
381.894	n/a	PROB	190947	n/a	LTP303	ltpFR2	16	n/a	n/a	n/a	2	16	7	4	5
383.794	n/a	PROB	191897	n/a	LTP303	ltpFR2	16	n/a	n/a	n/a	2	5	1	2	2
384.944	n/a	PROB	192472	n/a	LTP303	ltpFR2	16	n/a	n/a	n/a	2	15	1	9	5
386.096	n/a	PROB	193048	n/a	LTP303	ltpFR2	16	n/a	n/a	n/a	2	12	6	1	5
387.448	n/a	PROB	193724	n/a	LTP303	ltpFR2	16	n/a	n/a	n/a	2	9	4	1	4
388.964	n/a	PROB	194482	n/a	LTP303	ltpFR2	16	n/a	n/a	n/a	2	13	3	4	6
390.016	n/a	PROB	195008	n/a	LTP303	ltpFR2	16	n/a	n/a	n/a	2	14	2	3	9
391.382	n/a	PROB	195691	n/a	LTP303	ltpFR2	16	n/a	n/a	n/a	2	16	4	4	8
393.186	n/a	PROB	196593	n/a	LTP303	ltpFR2	16	n/a	n/a	n/a	2	15	1	7	7
394.284	n/a	PROB	197142	n/a	LTP303	ltpFR2	16	n/a	n/a	n/a	2	23	7	7	9
397.154	n/a	PROB	198577	n/a	LTP303	ltpFR2	16	n/a	n/a	n/a	2	19	3	8	8
398.856	n/a	PROB	199428	n/a	LTP303	ltpFR2	16	n/a	n/a	n/a	2	24	8	9	7
400.794	n/a	STOP	200397	n/a	LTP303	ltpFR2	16	n/a	n/a	n/a	2	n/a	n/a	n/a	n/a
402.976	n/a	REC_START	201488	n/a	LTP303	ltpFR2	16	1	n/a	n/a	n/a	n/a	0	0	0
405.21	n/a	REC_WORD	202605	wordpools/wasnorm_wordpool_576.txt	LTP303	ltpFR2	16	1	EGYPT	519	n/a	n/a	0	0	0
407.382	n/a	REC_WORD	203691	wordpools/wasnorm_wordpool_576.txt	LTP303	ltpFR2	16	1	MEAT	883	n/a	n/a	0	0	0
408.15	n/a	REC_WORD	204075	wordpools/wasnorm_wordpool_576.txt	LTP303	ltpFR2	16	1	SCULPTURE	1258	n/a	n/a	0	0	0
409.452	n/a	REC_WORD	204726	wordpools/wasnorm_wordpool_576.txt	LTP303	ltpFR2	16	1	DRAWING	494	n/a	n/a	0	0	0
410.48	n/a	REC_WORD	205240	wordpools/wasnorm_wordpool_576.txt	LTP303	ltpFR2	16	1	BODY	145	n/a	n/a	0	0	0
411.354	n/a	REC_WORD	205677	wordpools/wasnorm_wordpool_576.txt	LTP303	ltpFR2	16	1	LABEL	790	n/a	n/a	0	0	0
412.26	n/a	REC_WORD	206130	wordpools/wasnorm_wordpool_576.txt	LTP303	ltpFR2	16	1	CASHIER	254	n/a	n/a	0	0	0
413.366	n/a	REC_WORD	206683	wordpools/wasnorm_wordpool_576.txt	LTP303	ltpFR2	16	1	PASTA	1021	n/a	n/a	0	0	0
414.392	n/a	REC_WORD	207196	wordpools/wasnorm_wordpool_576.txt	LTP303	ltpFR2	16	1	GROCERY	664	n/a	n/a	0	0	0
420.1	n/a	REC_WORD	210050	wordpools/wasnorm_wordpool_576.txt	LTP303	ltpFR2	16	1	GYMNAST	675	n/a	n/a	0	0	0
421.16	n/a	REC_WORD	210580	wordpools/wasnorm_wordpool_576.txt	LTP303	ltpFR2	16	1	DENTIST	447	n/a	n/a	0	0	0
493.412	n/a	WORD	246706	wordpools/wasnorm_wordpool_576.txt	LTP303	ltpFR2	16	2	UNCLE	1536	n/a	n/a	0	0	0
496.156	n/a	WORD	248078	wordpools/wasnorm_wordpool_576.txt	LTP303	ltpFR2	16	2	JUDGE	761	n/a	n/a	0	0	0
498.8	n/a	WORD	249400	wordpools/wasnorm_wordpool_576.txt	LTP303	ltpFR2	16	2	UMPIRE	1535	n/a	n/a	0	0	0
501.552	n/a	WORD	250776	wordpools/wasnorm_wordpool_576.txt	LTP303	ltpFR2	16	2	RACKET	1155	n/a	n/a	0	0	0
504.022	n/a	WORD	252011	wordpools/wasnorm_wordpool_576.txt	LTP303	ltpFR2	16	2	DAUGHTER	442	n/a	n/a	0	0	0
506.472	n/a	WORD	253236	wordpools/wasnorm_wordpool_576.txt	LTP303	ltpFR2	16	2	COUCH	386	n/a	n/a	0	0	0
508.976	n/a	WORD	254488	wordpools/wasnorm_wordpool_576.txt	LTP303	ltpFR2	16	2	SHORTS	1293	n/a	n/a	0	0	0
511.61	n/a	WORD	255805	wordpools/wasnorm_wordpool_576.txt	LTP303	ltpFR2	16	2	PADDING	999	n/a	n/a	0	0	0
514.312	n/a	WORD	257156	wordpools/wasnorm_wordpool_576.txt	LTP303	ltpFR2	16	2	VELVET	1555	n/a	n/a	0	0	0
516.982	n/a	WORD	258491	wordpools/wasnorm_wordpool_576.txt	LTP303	ltpFR2	16	2	PARENT	1013	n/a	n/a	0	0	0
519.758	n/a	WORD	259879	wordpools/wasnorm_wordpool_576.txt	LTP303	ltpFR2	16	2	SLIDE	1326	n/a	n/a	0	0	0
522.394	n/a	WORD	261197	wordpools/wasnorm_wordpool_576.txt	LTP303	ltpFR2	16	2	RIFLE	1192	n/a	n/a	0	0	0
524.906	n/a	WORD	262453	wordpools/wasnorm_wordpool_576.txt	LTP303	ltpFR2	16	2	TUTU	1524	n/a	n/a	0	0	0
527.432	n/a	WORD	263716	wordpools/wasnorm_wordpool_576.txt	LTP303	ltpFR2	16	2	VALVE	1546	n/a	n/a	0	0	0
530.124	n/a	WORD	265062	wordpools/wasnorm_wordpool_576.txt	LTP303	ltpFR2	16	2	CREATURE	403	n/a	n/a	0	0	0
532.812	n/a	WORD	266406	wordpools/wasnorm_wordpool_576.txt	LTP303	ltpFR2	16	2	BANK	83	n/a	n/a	0	0	0
535.48	n/a	WORD	267740	wordpools/wasnorm_wordpool_576.txt	LTP303	ltpFR2	16	2	PUPPY	1144	n/a	n/a	0	0	0
538.274	n/a	WORD	269137	wordpools/wasnorm_wordpool_576.txt	LTP303	ltpFR2	16	2	HOOK	715	n/a	n/a	0	0	0
540.95	n/a	WORD	270475	wordpools/wasnorm_wordpool_576.txt	LTP303	ltpFR2	16	2	BOUQUET	157	n/a	n/a	0	0	0
543.602	n/a	WORD	271801	wordpools/wasnorm_wordpool_576.txt	LTP303	ltpFR2	16	2	NAPKIN	937	n/a	n/a	0	0	0
546.054	n/a	WORD	273027	wordpools/wasnorm_wordpool_576.txt	LTP303	ltpFR2	16	2	TABLE	1426	n/a	n/a	0	0	0
548.8	n/a	WORD	274400	wordpools/wasnorm_wordpool_576.txt	LTP303	ltpFR2	16	2	TWIG	1527	n/a	n/a	0	0	0
551.258	n/a	WORD	275629	wordpools/wasnorm_wordpool_576.txt	LTP303	ltpFR2	16	2	OUTFIT	988	n/a	n/a	0	0	0
554.028	n/a	WORD	277014	wordpools/wasnorm_wordpool_576.txt	LTP303	ltpFR2	16	2	BUREAU	199	n/a	n/a	0	0	0
555.64	n/a	START	277820	n/a	LTP303	ltpFR2	16	n/a	n/a	n/a	3	n/a	n/a	n/a	n/a
556.616	n/a	DISTRACTOR	278308	n/a	LTP303	ltpFR2	16	2	n/a	n/a	n/a	n/a	0	0	0
556.624	n/a	PROB	278312	n/a	LTP303	ltpFR2	16	n/a	n/a	n/a	3	16	7	8	1
558.696	n/a	PROB	279348	n/a	LTP303	ltpFR2	16	n/a	n/a	n/a	3	20	5	7	8
560.464	n/a	PROB	280232	n/a	LTP303	ltpFR2	16	n/a	n/a	n/a	3	8	4	1	3
561.566	n/a	PROB	280783	n/a	LTP303	ltpFR2	16	n/a	n/a	n/a	3	15	7	6	2
562.8	n/a	PROB	281400	n/a	LTP303	ltpFR2	16	n/a	n/a	n/a	3	20	8	3	9
564.6	n/a	PROB	282300	n/a	LTP303	ltpFR2	16	n/a	n/a	n/a	3	15	5	8	2
565.72	n/a	PROB	282860	n/a	LTP303	ltpFR2	16	n/a	n/a	n/a	3	22	9	7	5
567.688	n/a	PROB	283844	n/a	LTP303	ltpFR2	16	n/a	n/a	n/a	3	17	6	3	8
569.322	n/a	PROB	284661	n/a	LTP303	ltpFR2	16	n/a	n/a	n/a	3	14	4	9	1
570.39	n/a	PROB	285195	n/a	LTP303	ltpFR2	16	n/a	n/a	n/a	3	23	5	9	9
571.658	n/a	PROB	285829	n/a	LTP303	ltpFR2	16	n/a	n/a	n/a	3	17	7	7	3
573.426	n/a	PROB	286713	n/a	LTP303	ltpFR2	16	n/a	n/a	n/a	3	14	8	2	4
574.626	n/a	PROB	287313	n/a	LTP303	ltpFR2	16	n/a	n/a	n/a	3	15	9	5	1
575.944	n/a	PROB	287972	n/a	LTP303	ltpFR2	16	n/a	n/a	n/a	3	19	5	5	9
579.638	n/a	STOP	289819	n/a	LTP303	ltpFR2	16	n/a	n/a	n/a	3	n/a	n/a	n/a	n/a
581.418	n/a	REC_START	290709	n/a	LTP303	ltpFR2	16	2	n/a	n/a	n/a	n/a	0	0	0
606.636	n/a	REC_WORD	303318	wordpools/wasnorm_wordpool_576.txt	LTP303	ltpFR2	16	2	PUPPY	1144	n/a	n/a	0	0	0
607.912	n/a	REC_WORD	303956	wordpools/wasnorm_wordpool_576.txt	LTP303	ltpFR2	16	2	TWIG	1527	n/a	n/a	0	0	0
609.464	n/a	REC_WORD	304732	wordpools/wasnorm_wordpool_576.txt	LTP303	ltpFR2	16	2	UNCLE	1536	n/a	n/a	0	0	0
610.338	n/a	REC_WORD	305169	wordpools/wasnorm_wordpool_576.txt	LTP303	ltpFR2	16	2	JUDGE	761	n/a	n/a	0	0	0
611.246	n/a	REC_WORD	305623	wordpools/wasnorm_wordpool_576.txt	LTP303	ltpFR2	16	2	COUCH	386	n/a	n/a	0	0	0
612.648	n/a	REC_WORD	306324	wordpools/wasnorm_wordpool_576.txt	LTP303	ltpFR2	16	2	SHORTS	1293	n/a	n/a	0	0	0
613.67	n/a	REC_WORD	306835	wordpools/wasnorm_wordpool_576.txt	LTP303	ltpFR2	16	2	VELVET	1555	n/a	n/a	0	0	0
614.928	n/a	REC_WORD	307464	wordpools/wasnorm_wordpool_576.txt	LTP303	ltpFR2	16	2	PADDING	999	n/a	n/a	0	0	0
616.218	n/a	REC_WORD	308109	wordpools/wasnorm_wordpool_576.txt	LTP303	ltpFR2	16	2	PARENT	1013	n/a	n/a	0	0	0
619.304	n/a	REC_WORD	309652	wordpools/wasnorm_wordpool_576.txt	LTP303	ltpFR2	16	2	SLIDE	1326	n/a	n/a	0	0	0
620.302	n/a	REC_WORD	310151	wordpools/wasnorm_wordpool_576.txt	LTP303	ltpFR2	16	2	RIFLE	1192	n/a	n/a	0	0	0
623.826	n/a	REC_WORD	311913	wordpools/wasnorm_wordpool_576.txt	LTP303	ltpFR2	16	2	TUTU	1524	n/a	n/a	0	0	0
627.21	n/a	REC_WORD	313605	wordpools/wasnorm_wordpool_576.txt	LTP303	ltpFR2	16	2	CREATURE	403	n/a	n/a	0	0	0
628.422	n/a	REC_WORD	314211	wordpools/wasnorm_wordpool_576.txt	LTP303	ltpFR2	16	2	BANK	83	n/a	n/a	0	0	0
630.476	n/a	REC_WORD	315238	wordpools/wasnorm_wordpool_576.txt	LTP303	ltpFR2	16	2	VALVE	1546	n/a	n/a	0	0	0
671.886	n/a	DISTRACTOR	335943	n/a	LTP303	ltpFR2	16	3	n/a	n/a	n/a	n/a	0	0	0
671.886	n/a	START	335943	n/a	LTP303	ltpFR2	16	n/a	n/a	n/a	4	n/a	n/a	n/a	n/a
671.904	n/a	PROB	335952	n/a	LTP303	ltpFR2	16	n/a	n/a	n/a	4	16	7	5	4
674.168	n/a	PROB	337084	n/a	LTP303	ltpFR2	16	n/a	n/a	n/a	4	18	9	2	7
676.354	n/a	PROB	338177	n/a	LTP303	ltpFR2	16	n/a	n/a	n/a	4	17	7	8	2
677.488	n/a	PROB	338744	n/a	LTP303	ltpFR2	16	n/a	n/a	n/a	4	16	1	8	7
678.556	n/a	PROB	339278	n/a	LTP303	ltpFR2	16	n/a	n/a	n/a	4	16	1	9	5
680.19	n/a	PROB	340095	n/a	LTP303	ltpFR2	16	n/a	n/a	n/a	4	14	2	5	7
683.06	n/a	PROB	341530	n/a	LTP303	ltpFR2	16	n/a	n/a	n/a	4	15	5	5	5
684.478	n/a	PROB	342239	n/a	LTP303	ltpFR2	16	n/a	n/a	n/a	4	17	8	6	3
686.08	n/a	PROB	343040	n/a	LTP303	ltpFR2	16	n/a	n/a	n/a	4	17	5	6	6
687.812	n/a	PROB	343906	n/a	LTP303	ltpFR2	16	n/a	n/a	n/a	4	20	8	9	3
689.566	n/a	PROB	344783	n/a	LTP303	ltpFR2	16	n/a	n/a	n/a	4	15	8	5	2
691.552	n/a	PROB	345776	n/a	LTP303	ltpFR2	16	n/a	n/a	n/a	4	7	5	1	1
692.652	n/a	PROB	346326	n/a	LTP303	ltpFR2	16	n/a	n/a	n/a	4	12	5	2	5
694.018	n/a	PROB	347009	n/a	LTP303	ltpFR2	16	n/a	n/a	n/a	4	20	9	9	2
695.376	n/a	STOP	347688	n/a	LTP303	ltpFR2	16	n/a	n/a	n/a	4	n/a	n/a	n/a	n/a
696.71	n/a	WORD	348355	wordpools/wasnorm_wordpool_576.txt	LTP303	ltpFR2	16	3	DOUGHNUT	490	n/a	n/a	0	0	0
699.512	n/a	WORD	349756	wordpools/wasnorm_wordpool_576.txt	LTP303	ltpFR2	16	3	CREVICE	405	n/a	n/a	0	0	0
702.248	n/a	WORD	351124	wordpools/wasnorm_wordpool_576.txt	LTP303	ltpFR2	16	3	CHAPEL	280	n/a	n/a	0	0	0
704.9	n/a	WORD	352450	wordpools/wasnorm_wordpool_576.txt	LTP303	ltpFR2	16	3	CHILD	299	n/a	n/a	0	0	0
707.346	n/a	WORD	353673	wordpools/wasnorm_wordpool_576.txt	LTP303	ltpFR2	16	3	LIVER	833	n/a	n/a	0	0	0
709.92	n/a	WORD	354960	wordpools/wasnorm_wordpool_576.txt	LTP303	ltpFR2	16	3	COMET	353	n/a	n/a	0	0	0
712.45	n/a	WORD	356225	wordpools/wasnorm_wordpool_576.txt	LTP303	ltpFR2	16	3	LIGHTNING	820	n/a	n/a	0	0	0
715.084	n/a	WORD	357542	wordpools/wasnorm_wordpool_576.txt	LTP303	ltpFR2	16	3	TWEEZERS	1526	n/a	n/a	0	0	0
717.894	n/a	WORD	358947	wordpools/wasnorm_wordpool_576.txt	LTP303	ltpFR2	16	3	DONOR	485	n/a	n/a	0	0	0
720.424	n/a	WORD	360212	wordpools/wasnorm_wordpool_576.txt	LTP303	ltpFR2	16	3	INMATE	738	n/a	n/a	0	0	0
722.996	n/a	WORD	361498	wordpools/wasnorm_wordpool_576.txt	LTP303	ltpFR2	16	3	THREAD	1460	n/a	n/a	0	0	0
725.678	n/a	WORD	362839	wordpools/wasnorm_wordpool_576.txt	LTP303	ltpFR2	16	3	CRUTCH	417	n/a	n/a	0	0	0
728.43	n/a	WORD	364215	wordpools/wasnorm_wordpool_576.txt	LTP303	ltpFR2	16	3	ROBIN	1199	n/a	n/a	0	0	0
730.866	n/a	WORD	365433	wordpools/wasnorm_wordpool_576.txt	LTP303	ltpFR2	16	3	RATTLE	1170	n/a	n/a	0	0	0
733.656	n/a	WORD	366828	wordpools/wasnorm_wordpool_576.txt	LTP303	ltpFR2	16	3	PISTON	1076	n/a	n/a	0	0	0
736.386	n/a	WORD	368193	wordpools/wasnorm_wordpool_576.txt	LTP303	ltpFR2	16	3	TRUCK	1512	n/a	n/a	0	0	0
739.004	n/a	WORD	369502	wordpools/wasnorm_wordpool_576.txt	LTP303	ltpFR2	16	3	COOK	372	n/a	n/a	0	0	0
741.664	n/a	WORD	370832	wordpools/wasnorm_wordpool_576.txt	LTP303	ltpFR2	16	3	HERO	706	n/a	n/a	0	0	0
744.226	n/a	WORD	372113	wordpools/wasnorm_wordpool_576.txt	LTP303	ltpFR2	16	3	BRICK	172	n/a	n/a	0	0	0
746.8	n/a	WORD	373400	wordpools/wasnorm_wordpool_576.txt	LTP303	ltpFR2	16	3	GROUND	666	n/a	n/a	0	0	0
749.412	n/a	WORD	374706	wordpools/wasnorm_wordpool_576.txt	LTP303	ltpFR2	16	3	TOASTER	1472	n/a	n/a	0	0	0
751.94	n/a	WORD	375970	wordpools/wasnorm_wordpool_576.txt	LTP303	ltpFR2	16	3	SUSPECT	1415	n/a	n/a	0	0	0
754.416	n/a	WORD	377208	wordpools/wasnorm_wordpool_576.txt	LTP303	ltpFR2	16	3	SIBLING	1301	n/a	n/a	0	0	0
757.192	n/a	WORD	378596	wordpools/wasnorm_wordpool_576.txt	LTP303	ltpFR2	16	3	SCARECROW	1245	n/a	n/a	0	0	0
758.804	n/a	START	379402	n/a	LTP303	ltpFR2	16	n/a	n/a	n/a	5	n/a	n/a	n/a	n/a
759.762	n/a	DISTRACTOR	379881	n/a	LTP303	ltpFR2	16	3	n/a	n/a	n/a	n/a	0	0	0
759.77	n/a	PROB	379885	n/a	LTP303	ltpFR2	16	n/a	n/a	n/a	5	9	2	4	3
762.372	n/a	PROB	381186	n/a	LTP303	ltpFR2	16	n/a	n/a	n/a	5	10	2	5	3
764.072	n/a	PROB	382036	n/a	LTP303	ltpFR2	16	n/a	n/a	n/a	5	8	4	3	1
765.206	n/a	PROB	382603	n/a	LTP303	ltpFR2	16	n/a	n/a	n/a	5	18	8	7	3
766.408	n/a	PROB	383204	n/a	LTP303	ltpFR2	16	n/a	n/a	n/a	5	12	5	4	3
768.594	n/a	PROB	384297	n/a	LTP303	ltpFR2	16	n/a	n/a	n/a	5	17	8	8	1
769.762	n/a	PROB	384881	n/a	LTP303	ltpFR2	16	n/a	n/a	n/a	5	11	1	1	9
770.71	n/a	PROB	385355	n/a	LTP303	ltpFR2	16	n/a	n/a	n/a	5	10	2	5	3
772.346	n/a	PROB	386173	n/a	LTP303	ltpFR2	16	n/a	n/a	n/a	5	19	9	1	9
773.648	n/a	PROB	386824	n/a	LTP303	ltpFR2	16	n/a	n/a	n/a	5	23	9	6	8
775.616	n/a	PROB	387808	n/a	LTP303	ltpFR2	16	n/a	n/a	n/a	5	13	2	3	8
777.334	n/a	PROB	388667	n/a	LTP303	ltpFR2	16	n/a	n/a	n/a	5	22	8	9	5
779.05	n/a	PROB	389525	n/a	LTP303	ltpFR2	16	n/a	n/a	n/a	5	18	5	4	9
780.37	n/a	PROB	390185	n/a	LTP303	ltpFR2	16	n/a	n/a	n/a	5	19	9	6	4
781.586	n/a	STOP	390793	n/a	LTP303	ltpFR2	16	n/a	n/a	n/a	5	n/a	n/a	n/a	n/a
784.724	n/a	REC_START	392362	n/a	LTP303	ltpFR2	16	3	n/a	n/a	n/a	n/a	0	0	0
787.07	n/a	REC_WORD	393535	wordpools/wasnorm_wordpool_576.txt	LTP303	ltpFR2	16	3	DOUGHNUT	490	n/a	n/a	0	0	0
788.162	n/a	REC_WORD	394081	wordpools/wasnorm_wordpool_576.txt	LTP303	ltpFR2	16	3	CREVICE	405	n/a	n/a	0	0	0
789.326	n/a	REC_WORD	394663	wordpools/wasnorm_wordpool_576.txt	LTP303	ltpFR2	16	3	CHAPEL	280	n/a	n/a	0	0	0
790.44	n/a	REC_WORD	395220	wordpools/wasnorm_wordpool_576.txt	LTP303	ltpFR2	16	3	LIVER	833	n/a	n/a	0	0	0
791.598	n/a	REC_WORD	395799	wordpools/wasnorm_wordpool_576.txt	LTP303	ltpFR2	16	3	COMET	353	n/a	n/a	0	0	0
792.726	n/a	REC_WORD	396363	wordpools/wasnorm_wordpool_576.txt	LTP303	ltpFR2	16	3	LIGHTNING	820	n/a	n/a	0	0	0
793.922	n/a	REC_WORD	396961	wordpools/wasnorm_wordpool_576.txt	LTP303	ltpFR2	16	3	INMATE	738	n/a	n/a	0	0	0
795.114	n/a	REC_WORD	397557	wordpools/wasnorm_wordpool_576.txt	LTP303	ltpFR2	16	3	DONOR	485	n/a	n/a	0	0	0
796.254	n/a	REC_WORD	398127	wordpools/wasnorm_wordpool_576.txt	LTP303	ltpFR2	16	3	HERO	706	n/a	n/a	0	0	0
797.562	n/a	REC_WORD	398781	wordpools/wasnorm_wordpool_576.txt	LTP303	ltpFR2	16	3	BRICK	172	n/a	n/a	0	0	0
798.542	n/a	REC_WORD	399271	wordpools/wasnorm_wordpool_576.txt	LTP303	ltpFR2	16	3	SUSPECT	1415	n/a	n/a	0	0	0
875.176	n/a	DISTRACTOR	437588	n/a	LTP303	ltpFR2	16	4	n/a	n/a	n/a	n/a	0	0	0
875.176	n/a	START	437588	n/a	LTP303	ltpFR2	16	n/a	n/a	n/a	6	n/a	n/a	n/a	n/a
875.192	n/a	PROB	437596	n/a	LTP303	ltpFR2	16	n/a	n/a	n/a	6	18	9	1	8
877.444	n/a	PROB	438722	n/a	LTP303	ltpFR2	16	n/a	n/a	n/a	6	9	5	3	1
878.764	n/a	PROB	439382	n/a	LTP303	ltpFR2	16	n/a	n/a	n/a	6	16	7	6	3
881.066	n/a	PROB	440533	n/a	LTP303	ltpFR2	16	n/a	n/a	n/a	6	27	9	9	9
882.716	n/a	PROB	441358	n/a	LTP303	ltpFR2	16	n/a	n/a	n/a	6	18	9	5	4
884.416	n/a	PROB	442208	n/a	LTP303	ltpFR2	16	n/a	n/a	n/a	6	5	2	2	1
886.034	n/a	PROB	443017	n/a	LTP303	ltpFR2	16	n/a	n/a	n/a	6	15	5	8	2
887.152	n/a	PROB	443576	n/a	LTP303	ltpFR2	16	n/a	n/a	n/a	6	16	3	4	9
888.604	n/a	PROB	444302	n/a	LTP303	ltpFR2	16	n/a	n/a	n/a	6	20	6	8	6
890.454	n/a	PROB	445227	n/a	LTP303	ltpFR2	16	n/a	n/a	n/a	6	13	7	4	2
893.576	n/a	PROB	446788	n/a	LTP303	ltpFR2	16	n/a	n/a	n/a	6	18	9	6	3
895.276	n/a	PROB	447638	n/a	LTP303	ltpFR2	16	n/a	n/a	n/a	6	18	5	4	9
896.81	n/a	PROB	448405	n/a	LTP303	ltpFR2	16	n/a	n/a	n/a	6	17	2	6	9
898.834	n/a	STOP	449417	n/a	LTP303	ltpFR2	16	n/a	n/a	n/a	6	n/a	n/a	n/a	n/a
900.346	n/a	WORD	450173	wordpools/wasnorm_wordpool_576.txt	LTP303	ltpFR2	16	4	PASSAGE	1019	n/a	n/a	0	0	0
902.948	n/a	WORD	451474	wordpools/wasnorm_wordpool_576.txt	LTP303	ltpFR2	16	4	AUTHOR	61	n/a	n/a	0	0	0
905.534	n/a	WORD	452767	wordpools/wasnorm_wordpool_576.txt	LTP303	ltpFR2	16	4	ICING	732	n/a	n/a	0	0	0
908.322	n/a	WORD	454161	wordpools/wasnorm_wordpool_576.txt	LTP303	ltpFR2	16	4	BROTHER	179	n/a	n/a	0	0	0
911.006	n/a	WORD	455503	wordpools/wasnorm_wordpool_576.txt	LTP303	ltpFR2	16	4	FOREST	593	n/a	n/a	0	0	0
913.658	n/a	WORD	456829	wordpools/wasnorm_wordpool_576.txt	LTP303	ltpFR2	16	4	MISTER	901	n/a	n/a	0	0	0
916.142	n/a	WORD	458071	wordpools/wasnorm_wordpool_576.txt	LTP303	ltpFR2	16	4	PATROL	1027	n/a	n/a	0	0	0
918.71	n/a	WORD	459355	wordpools/wasnorm_wordpool_576.txt	LTP303	ltpFR2	16	4	LASER	801	n/a	n/a	0	0	0
921.346	n/a	WORD	460673	wordpools/wasnorm_wordpool_576.txt	LTP303	ltpFR2	16	4	KNIFE	785	n/a	n/a	0	0	0
924.166	n/a	WORD	462083	wordpools/wasnorm_wordpool_576.txt	LTP303	ltpFR2	16	4	GARBAGE	622	n/a	n/a	0	0	0
926.734	n/a	WORD	463367	wordpools/wasnorm_wordpool_576.txt	LTP303	ltpFR2	16	4	GRIZZLY	662	n/a	n/a	0	0	0
929.518	n/a	WORD	464759	wordpools/wasnorm_wordpool_576.txt	LTP303	ltpFR2	16	4	NOMAD	955	n/a	n/a	0	0	0
932.288	n/a	WORD	466144	wordpools/wasnorm_wordpool_576.txt	LTP303	ltpFR2	16	4	STOVE	1388	n/a	n/a	0	0	0
934.974	n/a	WORD	467487	wordpools/wasnorm_wordpool_576.txt	LTP303	ltpFR2	16	4	APRON	35	n/a	n/a	0	0	0
937.458	n/a	WORD	468729	wordpools/wasnorm_wordpool_576.txt	LTP303	ltpFR2	16	4	CONCERT	360	n/a	n/a	0	0	0
940.244	n/a	WORD	470122	wordpools/wasnorm_wordpool_576.txt	LTP303	ltpFR2	16	4	LEADER	807	n/a	n/a	0	0	0
942.882	n/a	WORD	471441	wordpools/wasnorm_wordpool_576.txt	LTP303	ltpFR2	16	4	BUNNY	198	n/a	n/a	0	0	0
945.366	n/a	WORD	472683	wordpools/wasnorm_wordpool_576.txt	LTP303	ltpFR2	16	4	HARP	689	n/a	n/a	0	0	0
947.886	n/a	WORD	473943	wordpools/wasnorm_wordpool_576.txt	LTP303	ltpFR2	16	4	COLONEL	348	n/a	n/a	0	0	0
950.486	n/a	WORD	475243	wordpools/wasnorm_wordpool_576.txt	LTP303	ltpFR2	16	4	AIRPORT	13	n/a	n/a	0	0	0
953.244	n/a	WORD	476622	wordpools/wasnorm_wordpool_576.txt	LTP303	ltpFR2	16	4	AIRPLANE	12	n/a	n/a	0	0	0
955.93	n/a	WORD	477965	wordpools/wasnorm_wordpool_576.txt	LTP303	ltpFR2	16	4	IGLOO	734	n/a	n/a	0	0	0
958.674	n/a	WORD	479337	wordpools/wasnorm_wordpool_576.txt	LTP303	ltpFR2	16	4	HATCHET	691	n/a	n/a	0	0	0
961.394	n/a	WORD	480697	wordpools/wasnorm_wordpool_576.txt	LTP303	ltpFR2	16	4	MARS	873	n/a	n/a	0	0	0
963.002	n/a	START	481501	n/a	LTP303	ltpFR2	16	n/a	n/a	n/a	7	n/a	n/a	n/a	n/a
963.998	n/a	DISTRACTOR	481999	n/a	LTP303	ltpFR2	16	4	n/a	n/a	n/a	n/a	0	0	0
964.012	n/a	PROB	482006	n/a	LTP303	ltpFR2	16	n/a	n/a	n/a	7	9	4	1	4
965.846	n/a	PROB	482923	n/a	LTP303	ltpFR2	16	n/a	n/a	n/a	7	15	3	9	4
967.182	n/a	PROB	483591	n/a	LTP303	ltpFR2	16	n/a	n/a	n/a	7	23	5	9	9
968.664	n/a	PROB	484332	n/a	LTP303	ltpFR2	16	n/a	n/a	n/a	7	13	4	8	1
971.568	n/a	PROB	485784	n/a	LTP303	ltpFR2	16	n/a	n/a	n/a	7	17	4	7	6
973.27	n/a	PROB	486635	n/a	LTP303	ltpFR2	16	n/a	n/a	n/a	7	12	3	1	8
975.104	n/a	PROB	487552	n/a	LTP303	ltpFR2	16	n/a	n/a	n/a	7	17	6	3	8
977.372	n/a	PROB	488686	n/a	LTP303	ltpFR2	16	n/a	n/a	n/a	7	21	7	9	5
979.074	n/a	PROB	489537	n/a	LTP303	ltpFR2	16	n/a	n/a	n/a	7	15	6	6	3
980.274	n/a	PROB	490137	n/a	LTP303	ltpFR2	16	n/a	n/a	n/a	7	6	2	2	2
981.292	n/a	PROB	490646	n/a	LTP303	ltpFR2	16	n/a	n/a	n/a	7	10	2	4	4
983.46	n/a	PROB	491730	n/a	LTP303	ltpFR2	16	n/a	n/a	n/a	7	4	1	1	2
984.862	n/a	PROB	492431	n/a	LTP303	ltpFR2	16	n/a	n/a	n/a	7	18	5	5	8
986.076	n/a	STOP	493038	n/a	LTP303	ltpFR2	16	n/a	n/a	n/a	7	n/a	n/a	n/a	n/a
988.9	n/a	REC_START	494450	n/a	LTP303	ltpFR2	16	4	n/a	n/a	n/a	n/a	0	0	0
1000.214	n/a	REC_WORD	500107	wordpools/wasnorm_wordpool_576.txt	LTP303	ltpFR2	16	4	PATROL	1027	n/a	n/a	0	0	0
1002.494	n/a	REC_WORD	501247	wordpools/wasnorm_wordpool_576.txt	LTP303	ltpFR2	16	4	STOVE	1388	n/a	n/a	0	0	0
1003.702	n/a	REC_WORD	501851	wordpools/wasnorm_wordpool_576.txt	LTP303	ltpFR2	16	4	LASER	801	n/a	n/a	0	0	0
1004.746	n/a	REC_WORD	502373	wordpools/wasnorm_wordpool_576.txt	LTP303	ltpFR2	16	4	NOMAD	955	n/a	n/a	0	0	0
1005.768	n/a	REC_WORD	502884	wordpools/wasnorm_wordpool_576.txt	LTP303	ltpFR2	16	4	GARBAGE	622	n/a	n/a	0	0	0
1013.106	n/a	REC_WORD	506553	wordpools/wasnorm_wordpool_576.txt	LTP303	ltpFR2	16	4	LEADER	807	n/a	n/a	0	0	0
1014.524	n/a	REC_WORD	507262	wordpools/wasnorm_wordpool_576.txt	LTP303	ltpFR2	16	4	COLONEL	348	n/a	n/a	0	0	0
1015.786	n/a	REC_WORD	507893	wordpools/wasnorm_wordpool_576.txt	LTP303	ltpFR2	16	4	AIRPORT	13	n/a	n/a	0	0	0
1016.972	n/a	REC_WORD	508486	wordpools/wasnorm_wordpool_576.txt	LTP303	ltpFR2	16	4	AIRPLANE	12	n/a	n/a	0	0	0
1018.106	n/a	REC_WORD	509053	wordpools/wasnorm_wordpool_576.txt	LTP303	ltpFR2	16	4	IGLOO	734	n/a	n/a	0	0	0
1019.142	n/a	REC_WORD	509571	wordpools/wasnorm_wordpool_576.txt	LTP303	ltpFR2	16	4	HATCHET	691	n/a	n/a	0	0	0
1020.232	n/a	REC_WORD	510116	wordpools/wasnorm_wordpool_576.txt	LTP303	ltpFR2	16	4	MARS	873	n/a	n/a	0	0	0
1079.352	n/a	WORD	539676	wordpools/wasnorm_wordpool_576.txt	LTP303	ltpFR2	16	5	ISLAND	745	n/a	n/a	0	0	0
1081.804	n/a	WORD	540902	wordpools/wasnorm_wordpool_576.txt	LTP303	ltpFR2	16	5	PLIERS	1089	n/a	n/a	0	0	0
1084.488	n/a	WORD	542244	wordpools/wasnorm_wordpool_576.txt	LTP303	ltpFR2	16	5	DRILL	497	n/a	n/a	0	0	0
1087.306	n/a	WORD	543653	wordpools/wasnorm_wordpool_576.txt	LTP303	ltpFR2	16	5	SPACE	1345	n/a	n/a	0	0	0
1090.042	n/a	WORD	545021	wordpools/wasnorm_wordpool_576.txt	LTP303	ltpFR2	16	5	BINDER	127	n/a	n/a	0	0	0
1092.744	n/a	WORD	546372	wordpools/wasnorm_wordpool_576.txt	LTP303	ltpFR2	16	5	CHURCH	307	n/a	n/a	0	0	0
1095.346	n/a	WORD	547673	wordpools/wasnorm_wordpool_576.txt	LTP303	ltpFR2	16	5	IDOL	733	n/a	n/a	0	0	0
1097.952	n/a	WORD	548976	wordpools/wasnorm_wordpool_576.txt	LTP303	ltpFR2	16	5	CRATER	400	n/a	n/a	0	0	0
1100.468	n/a	WORD	550234	wordpools/wasnorm_wordpool_576.txt	LTP303	ltpFR2	16	5	SUNSET	1408	n/a	n/a	0	0	0
1103.254	n/a	WORD	551627	wordpools/wasnorm_wordpool_576.txt	LTP303	ltpFR2	16	5	YACHT	1629	n/a	n/a	0	0	0
1105.706	n/a	WORD	552853	wordpools/wasnorm_wordpool_576.txt	LTP303	ltpFR2	16	5	KIDNEY	776	n/a	n/a	0	0	0
1108.174	n/a	WORD	554087	wordpools/wasnorm_wordpool_576.txt	LTP303	ltpFR2	16	5	VIRUS	1572	n/a	n/a	0	0	0
1110.878	n/a	WORD	555439	wordpools/wasnorm_wordpool_576.txt	LTP303	ltpFR2	16	5	PLAZA	1088	n/a	n/a	0	0	0
1113.396	n/a	WORD	556698	wordpools/wasnorm_wordpool_576.txt	LTP303	ltpFR2	16	5	PADDLE	1000	n/a	n/a	0	0	0
1115.914	n/a	WORD	557957	wordpools/wasnorm_wordpool_576.txt	LTP303	ltpFR2	16	5	INFANT	737	n/a	n/a	0	0	0
1118.684	n/a	WORD	559342	wordpools/wasnorm_wordpool_576.txt	LTP303	ltpFR2	16	5	COMPASS	358	n/a	n/a	0	0	0
1121.252	n/a	WORD	560626	wordpools/wasnorm_wordpool_576.txt	LTP303	ltpFR2	16	5	DRIVER	499	n/a	n/a	0	0	0
1123.754	n/a	WORD	561877	wordpools/wasnorm_wordpool_576.txt	LTP303	ltpFR2	16	5	MACHINE	852	n/a	n/a	0	0	0
1126.422	n/a	WORD	563211	wordpools/wasnorm_wordpool_576.txt	LTP303	ltpFR2	16	5	LADDER	793	n/a	n/a	0	0	0
1128.942	n/a	WORD	564471	wordpools/wasnorm_wordpool_576.txt	LTP303	ltpFR2	16	5	TUBA	1515	n/a	n/a	0	0	0
1131.528	n/a	WORD	565764	wordpools/wasnorm_wordpool_576.txt	LTP303	ltpFR2	16	5	PAPER	1011	n/a	n/a	0	0	0
1134.328	n/a	WORD	567164	wordpools/wasnorm_wordpool_576.txt	LTP303	ltpFR2	16	5	NOTEBOOK	959	n/a	n/a	0	0	0
1137.116	n/a	WORD	568558	wordpools/wasnorm_wordpool_576.txt	LTP303	ltpFR2	16	5	REPORT	1184	n/a	n/a	0	0	0
1139.682	n/a	WORD	569841	wordpools/wasnorm_wordpool_576.txt	LTP303	ltpFR2	16	5	FEMALE	559	n/a	n/a	0	0	0
1141.302	n/a	START	570651	n/a	LTP303	ltpFR2	16	n/a	n/a	n/a	8	n/a	n/a	n/a	n/a
1142.326	n/a	DISTRACTOR	571163	n/a	LTP303	ltpFR2	16	5	n/a	n/a	n/a	n/a	0	0	0
1142.336	n/a	PROB	571168	n/a	LTP303	ltpFR2	16	n/a	n/a	n/a	8	12	1	3	8
1145.904	n/a	PROB	572952	n/a	LTP303	ltpFR2	16	n/a	n/a	n/a	8	19	8	5	6
1148.256	n/a	PROB	574128	n/a	LTP303	ltpFR2	16	n/a	n/a	n/a	8	16	9	3	4
1150.54	n/a	PROB	575270	n/a	LTP303	ltpFR2	16	n/a	n/a	n/a	8	12	1	7	4
1152.876	n/a	PROB	576438	n/a	LTP303	ltpFR2	16	n/a	n/a	n/a	8	19	7	6	6
1154.694	n/a	PROB	577347	n/a	LTP303	ltpFR2	16	n/a	n/a	n/a	8	14	8	3	3
1156.262	n/a	PROB	578131	n/a	LTP303	ltpFR2	16	n/a	n/a	n/a	8	19	3	8	8
1157.948	n/a	PROB	578974	n/a	LTP303	ltpFR2	16	n/a	n/a	n/a	8	18	4	5	9
1159.782	n/a	PROB	579891	n/a	LTP303	ltpFR2	16	n/a	n/a	n/a	8	16	8	7	1
1160.868	n/a	PROB	580434	n/a	LTP303	ltpFR2	16	n/a	n/a	n/a	8	17	5	3	9
1162.516	n/a	PROB	581258	n/a	LTP303	ltpFR2	16	n/a	n/a	n/a	8	21	9	5	8
1164.72	n/a	STOP	582360	n/a	LTP303	ltpFR2	16	n/a	n/a	n/a	8	n/a	n/a	n/a	n/a
1167.09	n/a	REC_START	583545	n/a	LTP303	ltpFR2	16	5	n/a	n/a	n/a	n/a	0	0	0
1169.322	n/a	REC_WORD	584661	wordpools/wasnorm_wordpool_576.txt	LTP303	ltpFR2	16	5	ISLAND	745	n/a	n/a	0	0	0
1170.14	n/a	REC_WORD	585070	wordpools/wasnorm_wordpool_576.txt	LTP303	ltpFR2	16	5	PLIERS	1089	n/a	n/a	0	0	0
1171.22	n/a	REC_WORD	585610	wordpools/wasnorm_wordpool_576.txt	LTP303	ltpFR2	16	5	DRILL	497	n/a	n/a	0	0	0
1172.044	n/a	REC_WORD	586022	wordpools/wasnorm_wordpool_576.txt	LTP303	ltpFR2	16	5	SPACE	1345	n/a	n/a	0	0	0
1173.296	n/a	REC_WORD	586648	wordpools/wasnorm_wordpool_576.txt	LTP303	ltpFR2	16	5	BINDER	127	n/a	n/a	0	0	0
1174.28	n/a	REC_WORD	587140	wordpools/wasnorm_wordpool_576.txt	LTP303	ltpFR2	16	5	CHURCH	307	n/a	n/a	0	0	0
1175.4	n/a	REC_WORD	587700	wordpools/wasnorm_wordpool_576.txt	LTP303	ltpFR2	16	5	IDOL	733	n/a	n/a	0	0	0
1176.45	n/a	REC_WORD	588225	wordpools/wasnorm_wordpool_576.txt	LTP303	ltpFR2	16	5	CRATER	400	n/a	n/a	0	0	0
1177.542	n/a	REC_WORD	588771	wordpools/wasnorm_wordpool_576.txt	LTP303	ltpFR2	16	5	YACHT	1629	n/a	n/a	0	0	0
1178.52	n/a	REC_WORD	589260	wordpools/wasnorm_wordpool_576.txt	LTP303	ltpFR2	16	5	KIDNEY	776	n/a	n/a	0	0	0
1179.516	n/a	REC_WORD	589758	wordpools/wasnorm_wordpool_576.txt	LTP303	ltpFR2	16	5	VIRUS	1572	n/a	n/a	0	0	0
1180.62	n/a	REC_WORD	590310	wordpools/wasnorm_wordpool_576.txt	LTP303	ltpFR2	16	5	PLAZA	1088	n/a	n/a	0	0	0
1181.762	n/a	REC_WORD	590881	wordpools/wasnorm_wordpool_576.txt	LTP303	ltpFR2	16	5	PEDAL	1037	n/a	n/a	0	0	0
1184.146	n/a	REC_WORD	592073	wordpools/wasnorm_wordpool_576.txt	LTP303	ltpFR2	16	5	PADDLE	1000	n/a	n/a	0	0	0
1187.258	n/a	REC_WORD	593629	wordpools/wasnorm_wordpool_576.txt	LTP303	ltpFR2	16	5	INFANT	737	n/a	n/a	0	0	0
1188.29	n/a	REC_WORD	594145	wordpools/wasnorm_wordpool_576.txt	LTP303	ltpFR2	16	5	COMPASS	358	n/a	n/a	0	0	0
1189.344	n/a	REC_WORD	594672	wordpools/wasnorm_wordpool_576.txt	LTP303	ltpFR2	16	5	DIVER	476	n/a	n/a	0	0	0
1190.308	n/a	REC_WORD	595154	wordpools/wasnorm_wordpool_576.txt	LTP303	ltpFR2	16	5	MACHINE	852	n/a	n/a	0	0	0
1191.438	n/a	REC_WORD	595719	wordpools/wasnorm_wordpool_576.txt	LTP303	ltpFR2	16	5	LADDER	793	n/a	n/a	0	0	0
1192.456	n/a	REC_WORD	596228	wordpools/wasnorm_wordpool_576.txt	LTP303	ltpFR2	16	5	TUBA	1515	n/a	n/a	0	0	0
1193.514	n/a	REC_WORD	596757	wordpools/wasnorm_wordpool_576.txt	LTP303	ltpFR2	16	5	PAPER	1011	n/a	n/a	0	0	0
1194.45	n/a	REC_WORD	597225	wordpools/wasnorm_wordpool_576.txt	LTP303	ltpFR2	16	5	NOTEBOOK	959	n/a	n/a	0	0	0
1257.524	n/a	DISTRACTOR	628762	n/a	LTP303	ltpFR2	16	6	n/a	n/a	n/a	n/a	0	0	0
1257.526	n/a	START	628763	n/a	LTP303	ltpFR2	16	n/a	n/a	n/a	9	n/a	n/a	n/a	n/a
1257.542	n/a	PROB	628771	n/a	LTP303	ltpFR2	16	n/a	n/a	n/a	9	16	5	3	8
1260.878	n/a	PROB	630439	n/a	LTP303	ltpFR2	16	n/a	n/a	n/a	9	14	2	6	6
1263.544	n/a	PROB	631772	n/a	LTP303	ltpFR2	16	n/a	n/a	n/a	9	9	4	4	1
1264.646	n/a	PROB	632323	n/a	LTP303	ltpFR2	16	n/a	n/a	n/a	9	19	7	3	9
1266.064	n/a	PROB	633032	n/a	LTP303	ltpFR2	16	n/a	n/a	n/a	9	15	2	7	6
1267.432	n/a	PROB	633716	n/a	LTP303	ltpFR2	16	n/a	n/a	n/a	9	15	6	5	4
1269.4	n/a	PROB	634700	n/a	LTP303	ltpFR2	16	n/a	n/a	n/a	9	14	9	3	2
1270.82	n/a	PROB	635410	n/a	LTP303	ltpFR2	16	n/a	n/a	n/a	9	25	9	9	7
1272.204	n/a	PROB	636102	n/a	LTP303	ltpFR2	16	n/a	n/a	n/a	9	13	1	7	5
1274.304	n/a	PROB	637152	n/a	LTP303	ltpFR2	16	n/a	n/a	n/a	9	17	9	4	4
1276.738	n/a	PROB	638369	n/a	LTP303	ltpFR2	16	n/a	n/a	n/a	9	11	8	2	1
1277.758	n/a	PROB	638879	n/a	LTP303	ltpFR2	16	n/a	n/a	n/a	9	14	6	6	2
1279.542	n/a	PROB	639771	n/a	LTP303	ltpFR2	16	n/a	n/a	n/a	9	14	8	4	2
1280.746	n/a	STOP	640373	n/a	LTP303	ltpFR2	16	n/a	n/a	n/a	9	n/a	n/a	n/a	n/a
1282.664	n/a	WORD	641332	wordpools/wasnorm_wordpool_576.txt	LTP303	ltpFR2	16	6	COUSIN	392	n/a	n/a	0	0	0
1285.458	n/a	WORD	642729	wordpools/wasnorm_wordpool_576.txt	LTP303	ltpFR2	16	6	SOFTBALL	1343	n/a	n/a	0	0	0
1287.878	n/a	WORD	643939	wordpools/wasnorm_wordpool_576.txt	LTP303	ltpFR2	16	6	GLOVE	642	n/a	n/a	0	0	0
1290.414	n/a	WORD	645207	wordpools/wasnorm_wordpool_576.txt	LTP303	ltpFR2	16	6	ANTLER	29	n/a	n/a	0	0	0
1293.148	n/a	WORD	646574	wordpools/wasnorm_wordpool_576.txt	LTP303	ltpFR2	16	6	SCARF	1246	n/a	n/a	0	0	0
1295.572	n/a	WORD	647786	wordpools/wasnorm_wordpool_576.txt	LTP303	ltpFR2	16	6	PILOT	1070	n/a	n/a	0	0	0
1298.186	n/a	WORD	649093	wordpools/wasnorm_wordpool_576.txt	LTP303	ltpFR2	16	6	PUDDLE	1140	n/a	n/a	0	0	0
1300.958	n/a	WORD	650479	wordpools/wasnorm_wordpool_576.txt	LTP303	ltpFR2	16	6	WHISTLE	1606	n/a	n/a	0	0	0
1303.49	n/a	WORD	651745	wordpools/wasnorm_wordpool_576.txt	LTP303	ltpFR2	16	6	OINTMENT	974	n/a	n/a	0	0	0
1306.192	n/a	WORD	653096	wordpools/wasnorm_wordpool_576.txt	LTP303	ltpFR2	16	6	LION	827	n/a	n/a	0	0	0
1308.928	n/a	WORD	654464	wordpools/wasnorm_wordpool_576.txt	LTP303	ltpFR2	16	6	COTTAGE	384	n/a	n/a	0	0	0
1311.448	n/a	WORD	655724	wordpools/wasnorm_wordpool_576.txt	LTP303	ltpFR2	16	6	SHELTER	1282	n/a	n/a	0	0	0
1314.22	n/a	WORD	657110	wordpools/wasnorm_wordpool_576.txt	LTP303	ltpFR2	16	6	ANKLE	24	n/a	n/a	0	0	0
1316.852	n/a	WORD	658426	wordpools/wasnorm_wordpool_576.txt	LTP303	ltpFR2	16	6	MISSILE	900	n/a	n/a	0	0	0
1319.37	n/a	WORD	659685	wordpools/wasnorm_wordpool_576.txt	LTP303	ltpFR2	16	6	BRACES	164	n/a	n/a	0	0	0
1322.06	n/a	WORD	661030	wordpools/wasnorm_wordpool_576.txt	LTP303	ltpFR2	16	6	CROWN	415	n/a	n/a	0	0	0
1324.542	n/a	WORD	662271	wordpools/wasnorm_wordpool_576.txt	LTP303	ltpFR2	16	6	RAZOR	1171	n/a	n/a	0	0	0
1327.36	n/a	WORD	663680	wordpools/wasnorm_wordpool_576.txt	LTP303	ltpFR2	16	6	MEAT	883	n/a	n/a	0	0	0
1329.846	n/a	WORD	664923	wordpools/wasnorm_wordpool_576.txt	LTP303	ltpFR2	16	6	TURKEY	1520	n/a	n/a	0	0	0
1332.298	n/a	WORD	666149	wordpools/wasnorm_wordpool_576.txt	LTP303	ltpFR2	16	6	ARM	38	n/a	n/a	0	0	0
1334.934	n/a	WORD	667467	wordpools/wasnorm_wordpool_576.txt	LTP303	ltpFR2	16	6	PENGUIN	1044	n/a	n/a	0	0	0
1337.47	n/a	WORD	668735	wordpools/wasnorm_wordpool_576.txt	LTP303	ltpFR2	16	6	PAIL	1002	n/a	n/a	0	0	0
1340.154	n/a	WORD	670077	wordpools/wasnorm_wordpool_576.txt	LTP303	ltpFR2	16	6	BUBBLE	183	n/a	n/a	0	0	0
1342.624	n/a	WORD	671312	wordpools/wasnorm_wordpool_576.txt	LTP303	ltpFR2	16	6	RUG	1215	n/a	n/a	0	0	0
1344.242	n/a	START	672121	n/a	LTP303	ltpFR2	16	n/a	n/a	n/a	10	n/a	n/a	n/a	n/a
1345.042	n/a	DISTRACTOR	672521	n/a	LTP303	ltpFR2	16	6	n/a	n/a	n/a	n/a	0	0	0
1345.06	n/a	PROB	672530	n/a	LTP303	ltpFR2	16	n/a	n/a	n/a	10	17	6	3	8
1346.728	n/a	PROB	673364	n/a	LTP303	ltpFR2	16	n/a	n/a	n/a	10	15	5	5	5
1347.644	n/a	PROB	673822	n/a	LTP303	ltpFR2	16	n/a	n/a	n/a	10	14	6	6	2
1348.712	n/a	PROB	674356	n/a	LTP303	ltpFR2	16	n/a	n/a	n/a	10	11	7	3	1
1349.662	n/a	PROB	674831	n/a	LTP303	ltpFR2	16	n/a	n/a	n/a	10	15	7	3	5
1350.898	n/a	PROB	675449	n/a	LTP303	ltpFR2	16	n/a	n/a	n/a	10	17	7	6	4
1351.982	n/a	PROB	675991	n/a	LTP303	ltpFR2	16	n/a	n/a	n/a	10	20	8	4	8
1353.784	n/a	PROB	676892	n/a	LTP303	ltpFR2	16	n/a	n/a	n/a	10	9	6	2	1
1355.018	n/a	PROB	677509	n/a	LTP303	ltpFR2	16	n/a	n/a	n/a	10	21	9	3	9
1356.586	n/a	PROB	678293	n/a	LTP303	ltpFR2	16	n/a	n/a	n/a	10	16	7	6	4
1357.936	n/a	PROB	678968	n/a	LTP303	ltpFR2	16	n/a	n/a	n/a	10	5	2	1	2
1358.872	n/a	PROB	679436	n/a	LTP303	ltpFR2	16	n/a	n/a	n/a	10	11	6	1	4
1360.338	n/a	PROB	680169	n/a	LTP303	ltpFR2	16	n/a	n/a	n/a	10	12	7	3	5
1362.272	n/a	PROB	681136	n/a	LTP303	ltpFR2	16	n/a	n/a	n/a	10	19	7	3	9
1368.242	n/a	STOP	684121	n/a	LTP303	ltpFR2	16	n/a	n/a	n/a	10	n/a	n/a	n/a	n/a
1369.996	n/a	REC_START	684998	n/a	LTP303	ltpFR2	16	6	n/a	n/a	n/a	n/a	0	0	0
1371.408	n/a	REC_WORD	685704	wordpools/wasnorm_wordpool_576.txt	LTP303	ltpFR2	16	6	PUDDLE	1140	n/a	n/a	0	0	0
1372.288	n/a	REC_WORD	686144	wordpools/wasnorm_wordpool_576.txt	LTP303	ltpFR2	16	6	WHISTLE	1606	n/a	n/a	0	0	0
1376.454	n/a	REC_WORD	688227	wordpools/wasnorm_wordpool_576.txt	LTP303	ltpFR2	16	6	ANKLE	24	n/a	n/a	0	0	0
1377.418	n/a	REC_WORD	688709	wordpools/wasnorm_wordpool_576.txt	LTP303	ltpFR2	16	6	SHELTER	1282	n/a	n/a	0	0	0
1378.848	n/a	REC_WORD	689424	wordpools/wasnorm_wordpool_576.txt	LTP303	ltpFR2	16	6	BRACES	164	n/a	n/a	0	0	0
1381.298	n/a	REC_WORD	690649	wordpools/wasnorm_wordpool_576.txt	LTP303	ltpFR2	16	6	RAZOR	1171	n/a	n/a	0	0	0
1383.336	n/a	REC_WORD	691668	wordpools/wasnorm_wordpool_576.txt	LTP303	ltpFR2	16	6	TURKEY	1520	n/a	n/a	0	0	0
1384.836	n/a	REC_WORD	692418	wordpools/wasnorm_wordpool_576.txt	LTP303	ltpFR2	16	6	ARM	38	n/a	n/a	0	0	0
1386.106	n/a	REC_WORD	693053	wordpools/wasnorm_wordpool_576.txt	LTP303	ltpFR2	16	6	PENGUIN	1044	n/a	n/a	0	0	0
1387.246	n/a	REC_WORD	693623	wordpools/wasnorm_wordpool_576.txt	LTP303	ltpFR2	16	6	PAIL	1002	n/a	n/a	0	0	0
1388.34	n/a	REC_WORD	694170	wordpools/wasnorm_wordpool_576.txt	LTP303	ltpFR2	16	6	BUBBLE	183	n/a	n/a	0	0	0
1389.35	n/a	REC_WORD	694675	wordpools/wasnorm_wordpool_576.txt	LTP303	ltpFR2	16	6	RUG	1215	n/a	n/a	0	0	0
1409.27	n/a	REC_WORD_VV	704635	wordpools/wasnorm_wordpool_576.txt	LTP303	ltpFR2	16	6	<>	-1	n/a	n/a	0	0	0
1411.884	n/a	REC_WORD_VV	705942	wordpools/wasnorm_wordpool_576.txt	LTP303	ltpFR2	16	6	<>	-1	n/a	n/a	0	0	0
1460.434	n/a	WORD	730217	wordpools/wasnorm_wordpool_576.txt	LTP303	ltpFR2	16	7	SNACK	1331	n/a	n/a	0	0	0
1462.958	n/a	WORD	731479	wordpools/wasnorm_wordpool_576.txt	LTP303	ltpFR2	16	7	FRAGRANCE	599	n/a	n/a	0	0	0
1465.636	n/a	WORD	732818	wordpools/wasnorm_wordpool_576.txt	LTP303	ltpFR2	16	7	CIGAR	308	n/a	n/a	0	0	0
1468.146	n/a	WORD	734073	wordpools/wasnorm_wordpool_576.txt	LTP303	ltpFR2	16	7	FLOWER	584	n/a	n/a	0	0	0
1470.908	n/a	WORD	735454	wordpools/wasnorm_wordpool_576.txt	LTP303	ltpFR2	16	7	SNAKE	1333	n/a	n/a	0	0	0
1473.702	n/a	WORD	736851	wordpools/wasnorm_wordpool_576.txt	LTP303	ltpFR2	16	7	EYELASH	546	n/a	n/a	0	0	0
1476.38	n/a	WORD	738190	wordpools/wasnorm_wordpool_576.txt	LTP303	ltpFR2	16	7	LIPSTICK	829	n/a	n/a	0	0	0
1479.016	n/a	WORD	739508	wordpools/wasnorm_wordpool_576.txt	LTP303	ltpFR2	16	7	EMPIRE	530	n/a	n/a	0	0	0
1481.534	n/a	WORD	740767	wordpools/wasnorm_wordpool_576.txt	LTP303	ltpFR2	16	7	PLAYGROUND	1087	n/a	n/a	0	0	0
1484.176	n/a	WORD	742088	wordpools/wasnorm_wordpool_576.txt	LTP303	ltpFR2	16	7	BEEF	113	n/a	n/a	0	0	0
1486.928	n/a	WORD	743464	wordpools/wasnorm_wordpool_576.txt	LTP303	ltpFR2	16	7	CARROT	249	n/a	n/a	0	0	0
1489.566	n/a	WORD	744783	wordpools/wasnorm_wordpool_576.txt	LTP303	ltpFR2	16	7	CLOTHES	327	n/a	n/a	0	0	0
1492.368	n/a	WORD	746184	wordpools/wasnorm_wordpool_576.txt	LTP303	ltpFR2	16	7	BRANDY	169	n/a	n/a	0	0	0
1495.104	n/a	WORD	747552	wordpools/wasnorm_wordpool_576.txt	LTP303	ltpFR2	16	7	HAMPER	682	n/a	n/a	0	0	0
1497.88	n/a	WORD	748940	wordpools/wasnorm_wordpool_576.txt	LTP303	ltpFR2	16	7	TEACHER	1440	n/a	n/a	0	0	0
1500.408	n/a	WORD	750204	wordpools/wasnorm_wordpool_576.txt	LTP303	ltpFR2	16	7	STUDENT	1395	n/a	n/a	0	0	0
1503.144	n/a	WORD	751572	wordpools/wasnorm_wordpool_576.txt	LTP303	ltpFR2	16	7	FIDDLE	561	n/a	n/a	0	0	0
1505.752	n/a	WORD	752876	wordpools/wasnorm_wordpool_576.txt	LTP303	ltpFR2	16	7	FRAME	600	n/a	n/a	0	0	0
1508.238	n/a	WORD	754119	wordpools/wasnorm_wordpool_576.txt	LTP303	ltpFR2	16	7	FLASK	576	n/a	n/a	0	0	0
1510.806	n/a	WORD	755403	wordpools/wasnorm_wordpool_576.txt	LTP303	ltpFR2	16	7	TRIBE	1505	n/a	n/a	0	0	0
1513.402	n/a	WORD	756701	wordpools/wasnorm_wordpool_576.txt	LTP303	ltpFR2	16	7	SPHINX	1349	n/a	n/a	0	0	0
1516.036	n/a	WORD	758018	wordpools/wasnorm_wordpool_576.txt	LTP303	ltpFR2	16	7	DANCER	437	n/a	n/a	0	0	0
1518.556	n/a	WORD	759278	wordpools/wasnorm_wordpool_576.txt	LTP303	ltpFR2	16	7	RABBIT	1152	n/a	n/a	0	0	0
1521.226	n/a	WORD	760613	wordpools/wasnorm_wordpool_576.txt	LTP303	ltpFR2	16	7	LOFT	840	n/a	n/a	0	0	0
1522.834	n/a	START	761417	n/a	LTP303	ltpFR2	16	n/a	n/a	n/a	11	n/a	n/a	n/a	n/a
1523.818	n/a	DISTRACTOR	761909	n/a	LTP303	ltpFR2	16	7	n/a	n/a	n/a	n/a	0	0	0
1523.828	n/a	PROB	761914	n/a	LTP303	ltpFR2	16	n/a	n/a	n/a	11	21	6	7	8
1525.734	n/a	PROB	762867	n/a	LTP303	ltpFR2	16	n/a	n/a	n/a	11	16	3	8	5
1527.418	n/a	PROB	763709	n/a	LTP303	ltpFR2	16	n/a	n/a	n/a	11	14	4	8	2
1528.486	n/a	PROB	764243	n/a	LTP303	ltpFR2	16	n/a	n/a	n/a	11	6	2	3	1
1529.638	n/a	PROB	764819	n/a	LTP303	ltpFR2	16	n/a	n/a	n/a	11	12	6	1	5
1530.754	n/a	PROB	765377	n/a	LTP303	ltpFR2	16	n/a	n/a	n/a	11	11	2	4	5
1532.406	n/a	PROB	766203	n/a	LTP303	ltpFR2	16	n/a	n/a	n/a	11	16	9	1	6
1533.506	n/a	PROB	766753	n/a	LTP303	ltpFR2	16	n/a	n/a	n/a	11	23	9	8	8
1536.176	n/a	PROB	768088	n/a	LTP303	ltpFR2	16	n/a	n/a	n/a	11	13	6	5	2
1538.326	n/a	PROB	769163	n/a	LTP303	ltpFR2	16	n/a	n/a	n/a	11	17	6	7	4
1540.396	n/a	PROB	770198	n/a	LTP303	ltpFR2	16	n/a	n/a	n/a	11	16	8	4	4
1543.332	n/a	PROB	771666	n/a	LTP303	ltpFR2	16	n/a	n/a	n/a	11	12	4	5	3
1545.066	n/a	PROB	772533	n/a	LTP303	ltpFR2	16	n/a	n/a	n/a	11	11	1	5	5
1546.03	n/a	STOP	773015	n/a	LTP303	ltpFR2	16	n/a	n/a	n/a	11	n/a	n/a	n/a	n/a
1548.684	n/a	REC_START	774342	n/a	LTP303	ltpFR2	16	7	n/a	n/a	n/a	n/a	0	0	0
1554.798	n/a	REC_WORD_VV	777399	wordpools/wasnorm_wordpool_576.txt	LTP303	ltpFR2	16	7	<>	-1	n/a	n/a	0	0	0
1555.798	n/a	REC_WORD_VV	777899	wordpools/wasnorm_wordpool_576.txt	LTP303	ltpFR2	16	7	<>	-1	n/a	n/a	0	0	0
1556.798	n/a	REC_WORD_VV	778399	wordpools/wasnorm_wordpool_576.txt	LTP303	ltpFR2	16	7	<>	-1	n/a	n/a	0	0	0
1557.676	n/a	REC_WORD	778838	wordpools/wasnorm_wordpool_576.txt	LTP303	ltpFR2	16	7	SNACK	1331	n/a	n/a	0	0	0
1559.106	n/a	REC_WORD	779553	wordpools/wasnorm_wordpool_576.txt	LTP303	ltpFR2	16	7	FRAGRANCE	599	n/a	n/a	0	0	0
1560.594	n/a	REC_WORD	780297	wordpools/wasnorm_wordpool_576.txt	LTP303	ltpFR2	16	7	CIGAR	308	n/a	n/a	0	0	0
1562.09	n/a	REC_WORD	781045	wordpools/wasnorm_wordpool_576.txt	LTP303	ltpFR2	16	7	FLOWER	584	n/a	n/a	0	0	0
1563.682	n/a	REC_WORD	781841	wordpools/wasnorm_wordpool_576.txt	LTP303	ltpFR2	16	7	SNAKE	1333	n/a	n/a	0	0	0
1565.304	n/a	REC_WORD	782652	wordpools/wasnorm_wordpool_576.txt	LTP303	ltpFR2	16	7	EYELASH	546	n/a	n/a	0	0	0
1566.544	n/a	REC_WORD	783272	wordpools/wasnorm_wordpool_576.txt	LTP303	ltpFR2	16	7	LIPSTICK	829	n/a	n/a	0	0	0
1567.852	n/a	REC_WORD	783926	wordpools/wasnorm_wordpool_576.txt	LTP303	ltpFR2	16	7	EMPIRE	530	n/a	n/a	0	0	0
1569.104	n/a	REC_WORD	784552	wordpools/wasnorm_wordpool_576.txt	LTP303	ltpFR2	16	7	PLAYGROUND	1087	n/a	n/a	0	0	0
1570.562	n/a	REC_WORD	785281	wordpools/wasnorm_wordpool_576.txt	LTP303	ltpFR2	16	7	BEEF	113	n/a	n/a	0	0	0
1571.828	n/a	REC_WORD	785914	wordpools/wasnorm_wordpool_576.txt	LTP303	ltpFR2	16	7	CARROT	249	n/a	n/a	0	0	0
1574.72	n/a	REC_WORD	787360	wordpools/wasnorm_wordpool_576.txt	LTP303	ltpFR2	16	7	CLOTHES	327	n/a	n/a	0	0	0
1577.182	n/a	REC_WORD	788591	wordpools/wasnorm_wordpool_576.txt	LTP303	ltpFR2	16	7	BRANDY	169	n/a	n/a	0	0	0
1578.51	n/a	REC_WORD	789255	wordpools/wasnorm_wordpool_576.txt	LTP303	ltpFR2	16	7	HAMPER	682	n/a	n/a	0	0	0
1580.09	n/a	REC_WORD	790045	wordpools/wasnorm_wordpool_576.txt	LTP303	ltpFR2	16	7	TEACHER	1440	n/a	n/a	0	0	0
1581.31	n/a	REC_WORD	790655	wordpools/wasnorm_wordpool_576.txt	LTP303	ltpFR2	16	7	STUDENT	1395	n/a	n/a	0	0	0
1582.754	n/a	REC_WORD	791377	wordpools/wasnorm_wordpool_576.txt	LTP303	ltpFR2	16	7	FRAME	600	n/a	n/a	0	0	0
1584.078	n/a	REC_WORD	792039	wordpools/wasnorm_wordpool_576.txt	LTP303	ltpFR2	16	7	FIDDLE	561	n/a	n/a	0	0	0
1585.504	n/a	REC_WORD	792752	wordpools/wasnorm_wordpool_576.txt	LTP303	ltpFR2	16	7	FLASK	576	n/a	n/a	0	0	0
1587.426	n/a	REC_WORD	793713	wordpools/wasnorm_wordpool_576.txt	LTP303	ltpFR2	16	7	TRIBE	1505	n/a	n/a	0	0	0
1589.654	n/a	REC_WORD	794827	wordpools/wasnorm_wordpool_576.txt	LTP303	ltpFR2	16	7	SPHINX	1349	n/a	n/a	0	0	0
1592.944	n/a	REC_WORD	796472	wordpools/wasnorm_wordpool_576.txt	LTP303	ltpFR2	16	7	RABBIT	1152	n/a	n/a	0	0	0
1639.154	n/a	WORD	819577	wordpools/wasnorm_wordpool_576.txt	LTP303	ltpFR2	16	8	HANDBAG	684	n/a	n/a	0	0	0
1641.608	n/a	WORD	820804	wordpools/wasnorm_wordpool_576.txt	LTP303	ltpFR2	16	8	PARTNER	1017	n/a	n/a	0	0	0
1644.242	n/a	WORD	822121	wordpools/wasnorm_wordpool_576.txt	LTP303	ltpFR2	16	8	GARDEN	623	n/a	n/a	0	0	0
1646.778	n/a	WORD	823389	wordpools/wasnorm_wordpool_576.txt	LTP303	ltpFR2	16	8	POSSUM	1112	n/a	n/a	0	0	0
1649.432	n/a	WORD	824716	wordpools/wasnorm_wordpool_576.txt	LTP303	ltpFR2	16	8	ROOSTER	1209	n/a	n/a	0	0	0
1651.884	n/a	WORD	825942	wordpools/wasnorm_wordpool_576.txt	LTP303	ltpFR2	16	8	CHAMPAGNE	278	n/a	n/a	0	0	0
1654.588	n/a	WORD	827294	wordpools/wasnorm_wordpool_576.txt	LTP303	ltpFR2	16	8	COLLEGE	346	n/a	n/a	0	0	0
1657.17	n/a	WORD	828585	wordpools/wasnorm_wordpool_576.txt	LTP303	ltpFR2	16	8	LONDON	843	n/a	n/a	0	0	0
1659.738	n/a	WORD	829869	wordpools/wasnorm_wordpool_576.txt	LTP303	ltpFR2	16	8	EUROPE	541	n/a	n/a	0	0	0
1662.342	n/a	WORD	831171	wordpools/wasnorm_wordpool_576.txt	LTP303	ltpFR2	16	8	TOMBSTONE	1478	n/a	n/a	0	0	0
1664.848	n/a	WORD	832424	wordpools/wasnorm_wordpool_576.txt	LTP303	ltpFR2	16	8	PEBBLE	1035	n/a	n/a	0	0	0
1667.278	n/a	WORD	833639	wordpools/wasnorm_wordpool_576.txt	LTP303	ltpFR2	16	8	CORAL	378	n/a	n/a	0	0	0
1669.764	n/a	WORD	834882	wordpools/wasnorm_wordpool_576.txt	LTP303	ltpFR2	16	8	FRECKLE	602	n/a	n/a	0	0	0
1672.22	n/a	WORD	836110	wordpools/wasnorm_wordpool_576.txt	LTP303	ltpFR2	16	8	KLEENEX	782	n/a	n/a	0	0	0
1674.75	n/a	WORD	837375	wordpools/wasnorm_wordpool_576.txt	LTP303	ltpFR2	16	8	COCKTAIL	338	n/a	n/a	0	0	0
1677.42	n/a	WORD	838710	wordpools/wasnorm_wordpool_576.txt	LTP303	ltpFR2	16	8	LAKE	796	n/a	n/a	0	0	0
1680.188	n/a	WORD	840094	wordpools/wasnorm_wordpool_576.txt	LTP303	ltpFR2	16	8	VENUS	1557	n/a	n/a	0	0	0
1682.656	n/a	WORD	841328	wordpools/wasnorm_wordpool_576.txt	LTP303	ltpFR2	16	8	PATIENT	1024	n/a	n/a	0	0	0
1685.41	n/a	WORD	842705	wordpools/wasnorm_wordpool_576.txt	LTP303	ltpFR2	16	8	STATUE	1374	n/a	n/a	0	0	0
1688.178	n/a	WORD	844089	wordpools/wasnorm_wordpool_576.txt	LTP303	ltpFR2	16	8	SHELF	1280	n/a	n/a	0	0	0
1690.612	n/a	WORD	845306	wordpools/wasnorm_wordpool_576.txt	LTP303	ltpFR2	16	8	CAFE	216	n/a	n/a	0	0	0
1693.238	n/a	WORD	846619	wordpools/wasnorm_wordpool_576.txt	LTP303	ltpFR2	16	8	DOLPHIN	483	n/a	n/a	0	0	0
1695.972	n/a	WORD	847986	wordpools/wasnorm_wordpool_576.txt	LTP303	ltpFR2	16	8	HAND	683	n/a	n/a	0	0	0
1698.67	n/a	WORD	849335	wordpools/wasnorm_wordpool_576.txt	LTP303	ltpFR2	16	8	BATHTUB	100	n/a	n/a	0	0	0
1700.278	n/a	START	850139	n/a	LTP303	ltpFR2	16	n/a	n/a	n/a	12	n/a	n/a	n/a	n/a
1701.43	n/a	DISTRACTOR	850715	n/a	LTP303	ltpFR2	16	8	n/a	n/a	n/a	n/a	0	0	0
1701.438	n/a	PROB	850719	n/a	LTP303	ltpFR2	16	n/a	n/a	n/a	12	14	9	4	1
1703.488	n/a	PROB	851744	n/a	LTP303	ltpFR2	16	n/a	n/a	n/a	12	11	3	5	3
1705.29	n/a	PROB	852645	n/a	LTP303	ltpFR2	16	n/a	n/a	n/a	12	20	7	6	7
1706.86	n/a	PROB	853430	n/a	LTP303	ltpFR2	16	n/a	n/a	n/a	12	22	7	9	6
1709.026	n/a	PROB	854513	n/a	LTP303	ltpFR2	16	n/a	n/a	n/a	12	14	9	1	4
1710.11	n/a	PROB	855055	n/a	LTP303	ltpFR2	16	n/a	n/a	n/a	12	11	3	6	2
1711.896	n/a	PROB	855948	n/a	LTP303	ltpFR2	16	n/a	n/a	n/a	12	12	5	5	2
1712.946	n/a	PROB	856473	n/a	LTP303	ltpFR2	16	n/a	n/a	n/a	12	16	2	8	6
1714.698	n/a	PROB	857349	n/a	LTP303	ltpFR2	16	n/a	n/a	n/a	12	17	8	3	6
1716.348	n/a	PROB	858174	n/a	LTP303	ltpFR2	16	n/a	n/a	n/a	12	11	6	2	3
1718.316	n/a	PROB	859158	n/a	LTP303	ltpFR2	16	n/a	n/a	n/a	12	12	8	1	3
1719.9	n/a	PROB	859950	n/a	LTP303	ltpFR2	16	n/a	n/a	n/a	12	22	8	5	9
1722.004	n/a	PROB	861002	n/a	LTP303	ltpFR2	16	n/a	n/a	n/a	12	17	5	8	4
1723.528	n/a	STOP	861764	n/a	LTP303	ltpFR2	16	n/a	n/a	n/a	12	n/a	n/a	n/a	n/a
1726.192	n/a	REC_START	863096	n/a	LTP303	ltpFR2	16	8	n/a	n/a	n/a	n/a	0	0	0
1730.79	n/a	REC_WORD	865395	wordpools/wasnorm_wordpool_576.txt	LTP303	ltpFR2	16	8	PARTNER	1017	n/a	n/a	0	0	0
1731.892	n/a	REC_WORD	865946	wordpools/wasnorm_wordpool_576.txt	LTP303	ltpFR2	16	8	HANDBAG	684	n/a	n/a	0	0	0
1733.252	n/a	REC_WORD	866626	wordpools/wasnorm_wordpool_576.txt	LTP303	ltpFR2	16	8	GARDEN	623	n/a	n/a	0	0	0
1734.318	n/a	REC_WORD	867159	wordpools/wasnorm_wordpool_576.txt	LTP303	ltpFR2	16	8	POSSUM	1112	n/a	n/a	0	0	0
1735.462	n/a	REC_WORD	867731	wordpools/wasnorm_wordpool_576.txt	LTP303	ltpFR2	16	8	ROOSTER	1209	n/a	n/a	0	0	0
1736.552	n/a	REC_WORD	868276	wordpools/wasnorm_wordpool_576.txt	LTP303	ltpFR2	16	8	CHAMPAGNE	278	n/a	n/a	0	0	0
1737.88	n/a	REC_WORD	868940	wordpools/wasnorm_wordpool_576.txt	LTP303	ltpFR2	16	8	COLLEGE	346	n/a	n/a	0	0	0
1739.032	n/a	REC_WORD	869516	wordpools/wasnorm_wordpool_576.txt	LTP303	ltpFR2	16	8	LONDON	843	n/a	n/a	0	0	0
1740.27	n/a	REC_WORD	870135	wordpools/wasnorm_wordpool_576.txt	LTP303	ltpFR2	16	8	EUROPE	541	n/a	n/a	0	0	0
1741.372	n/a	REC_WORD	870686	wordpools/wasnorm_wordpool_576.txt	LTP303	ltpFR2	16	8	TOMBSTONE	1478	n/a	n/a	0	0	0
1742.784	n/a	REC_WORD	871392	wordpools/wasnorm_wordpool_576.txt	LTP303	ltpFR2	16	8	PEBBLE	1035	n/a	n/a	0	0	0
1744.05	n/a	REC_WORD	872025	wordpools/wasnorm_wordpool_576.txt	LTP303	ltpFR2	16	8	CORAL	378	n/a	n/a	0	0	0
1747.324	n/a	REC_WORD	873662	wordpools/wasnorm_wordpool_576.txt	LTP303	ltpFR2	16	8	KLEENEX	782	n/a	n/a	0	0	0
1750.21	n/a	REC_WORD	875105	wordpools/wasnorm_wordpool_576.txt	LTP303	ltpFR2	16	8	COCKTAIL	338	n/a	n/a	0	0	0
1752.412	n/a	REC_WORD	876206	wordpools/wasnorm_wordpool_576.txt	LTP303	ltpFR2	16	8	LAKE	796	n/a	n/a	0	0	0
1756.122	n/a	REC_WORD	878061	wordpools/wasnorm_wordpool_576.txt	LTP303	ltpFR2	16	8	STATUE	1374	n/a	n/a	0	0	0
1757.536	n/a	REC_WORD	878768	wordpools/wasnorm_wordpool_576.txt	LTP303	ltpFR2	16	8	VENUS	1557	n/a	n/a	0	0	0
1759.362	n/a	REC_WORD	879681	wordpools/wasnorm_wordpool_576.txt	LTP303	ltpFR2	16	8	SHELF	1280	n/a	n/a	0	0	0
1760.642	n/a	REC_WORD	880321	wordpools/wasnorm_wordpool_576.txt	LTP303	ltpFR2	16	8	CAFE	216	n/a	n/a	0	0	0
1762.122	n/a	REC_WORD	881061	wordpools/wasnorm_wordpool_576.txt	LTP303	ltpFR2	16	8	DOLPHIN	483	n/a	n/a	0	0	0
1790.884	n/a	REC_WORD_VV	895442	wordpools/wasnorm_wordpool_576.txt	LTP303	ltpFR2	16	8	<>	-1	n/a	n/a	0	0	0
1802.73	n/a	REST_REWET	901365	n/a	LTP303	ltpFR2	16	8	n/a	n/a	n/a	n/a	0	0	0
2031.408	n/a	WORD	1015704	wordpools/wasnorm_wordpool_576.txt	LTP303	ltpFR2	16	9	GRAVE	658	n/a	n/a	0	0	0
2034.094	n/a	WORD	1017047	wordpools/wasnorm_wordpool_576.txt	LTP303	ltpFR2	16	9	CASKET	255	n/a	n/a	0	0	0
2036.596	n/a	WORD	1018298	wordpools/wasnorm_wordpool_576.txt	LTP303	ltpFR2	16	9	SCOTCH	1251	n/a	n/a	0	0	0
2039.198	n/a	WORD	1019599	wordpools/wasnorm_wordpool_576.txt	LTP303	ltpFR2	16	9	MATTRESS	879	n/a	n/a	0	0	0
2041.97	n/a	WORD	1020985	wordpools/wasnorm_wordpool_576.txt	LTP303	ltpFR2	16	9	GREASE	660	n/a	n/a	0	0	0
2044.52	n/a	WORD	1022260	wordpools/wasnorm_wordpool_576.txt	LTP303	ltpFR2	16	9	MASK	876	n/a	n/a	0	0	0
2047.29	n/a	WORD	1023645	wordpools/wasnorm_wordpool_576.txt	LTP303	ltpFR2	16	9	BROOK	177	n/a	n/a	0	0	0
2049.99	n/a	WORD	1024995	wordpools/wasnorm_wordpool_576.txt	LTP303	ltpFR2	16	9	DRINK	498	n/a	n/a	0	0	0
2052.744	n/a	WORD	1026372	wordpools/wasnorm_wordpool_576.txt	LTP303	ltpFR2	16	9	CLOCK	325	n/a	n/a	0	0	0
2055.462	n/a	WORD	1027731	wordpools/wasnorm_wordpool_576.txt	LTP303	ltpFR2	16	9	SMOG	1330	n/a	n/a	0	0	0
2058.098	n/a	WORD	1029049	wordpools/wasnorm_wordpool_576.txt	LTP303	ltpFR2	16	9	NECKLACE	940	n/a	n/a	0	0	0
2060.582	n/a	WORD	1030291	wordpools/wasnorm_wordpool_576.txt	LTP303	ltpFR2	16	9	SEAGULL	1261	n/a	n/a	0	0	0
2063.352	n/a	WORD	1031676	wordpools/wasnorm_wordpool_576.txt	LTP303	ltpFR2	16	9	BARREL	91	n/a	n/a	0	0	0
2066.088	n/a	WORD	1033044	wordpools/wasnorm_wordpool_576.txt	LTP303	ltpFR2	16	9	PRIMATE	1123	n/a	n/a	0	0	0
2068.674	n/a	WORD	1034337	wordpools/wasnorm_wordpool_576.txt	LTP303	ltpFR2	16	9	PRINCESS	1125	n/a	n/a	0	0	0
2071.358	n/a	WORD	1035679	wordpools/wasnorm_wordpool_576.txt	LTP303	ltpFR2	16	9	SKIRT	1319	n/a	n/a	0	0	0
2074.094	n/a	WORD	1037047	wordpools/wasnorm_wordpool_576.txt	LTP303	ltpFR2	16	9	LACE	792	n/a	n/a	0	0	0
2076.798	n/a	WORD	1038399	wordpools/wasnorm_wordpool_576.txt	LTP303	ltpFR2	16	9	ROBBER	1197	n/a	n/a	0	0	0
2079.432	n/a	WORD	1039716	wordpools/wasnorm_wordpool_576.txt	LTP303	ltpFR2	16	9	MEDAL	885	n/a	n/a	0	0	0
2082.018	n/a	WORD	1041009	wordpools/wasnorm_wordpool_576.txt	LTP303	ltpFR2	16	9	OZONE	996	n/a	n/a	0	0	0
2084.804	n/a	WORD	1042402	wordpools/wasnorm_wordpool_576.txt	LTP303	ltpFR2	16	9	ORANGE	980	n/a	n/a	0	0	0
2087.54	n/a	WORD	1043770	wordpools/wasnorm_wordpool_576.txt	LTP303	ltpFR2	16	9	HAWK	692	n/a	n/a	0	0	0
2090.142	n/a	WORD	1045071	wordpools/wasnorm_wordpool_576.txt	LTP303	ltpFR2	16	9	PARROT	1015	n/a	n/a	0	0	0
2092.778	n/a	WORD	1046389	wordpools/wasnorm_wordpool_576.txt	LTP303	ltpFR2	16	9	SPOON	1357	n/a	n/a	0	0	0
2094.396	n/a	START	1047198	n/a	LTP303	ltpFR2	16	n/a	n/a	n/a	13	n/a	n/a	n/a	n/a
2095.574	n/a	DISTRACTOR	1047787	n/a	LTP303	ltpFR2	16	9	n/a	n/a	n/a	n/a	0	0	0
2095.578	n/a	PROB	1047789	n/a	LTP303	ltpFR2	16	n/a	n/a	n/a	13	17	9	7	1
2097.846	n/a	PROB	1048923	n/a	LTP303	ltpFR2	16	n/a	n/a	n/a	13	13	8	1	4
2099.264	n/a	PROB	1049632	n/a	LTP303	ltpFR2	16	n/a	n/a	n/a	13	17	5	8	3
2100.798	n/a	PROB	1050399	n/a	LTP303	ltpFR2	16	n/a	n/a	n/a	13	18	2	7	9
2103.502	n/a	PROB	1051751	n/a	LTP303	ltpFR2	16	n/a	n/a	n/a	13	16	7	8	1
2104.886	n/a	PROB	1052443	n/a	LTP303	ltpFR2	16	n/a	n/a	n/a	13	16	4	6	6
2106.204	n/a	PROB	1053102	n/a	LTP303	ltpFR2	16	n/a	n/a	n/a	13	23	5	9	9
2107.67	n/a	PROB	1053835	n/a	LTP303	ltpFR2	16	n/a	n/a	n/a	13	7	2	2	3
2110.088	n/a	PROB	1055044	n/a	LTP303	ltpFR2	16	n/a	n/a	n/a	13	5	4	9	2
2111.474	n/a	PROB	1055737	n/a	LTP303	ltpFR2	16	n/a	n/a	n/a	13	13	9	3	1
2113.376	n/a	PROB	1056688	n/a	LTP303	ltpFR2	16	n/a	n/a	n/a	13	18	6	8	4
2115.426	n/a	PROB	1057713	n/a	LTP303	ltpFR2	16	n/a	n/a	n/a	13	13	8	4	1
2117.232	n/a	STOP	1058616	n/a	LTP303	ltpFR2	16	n/a	n/a	n/a	13	n/a	n/a	n/a	n/a
2120.216	n/a	REC_START	1060108	n/a	LTP303	ltpFR2	16	9	n/a	n/a	n/a	n/a	0	0	0
2121.892	n/a	REC_WORD	1060946	wordpools/wasnorm_wordpool_576.txt	LTP303	ltpFR2	16	9	MATTRESS	879	n/a	n/a	0	0	0
2122.97	n/a	REC_WORD	1061485	wordpools/wasnorm_wordpool_576.txt	LTP303	ltpFR2	16	9	MASK	876	n/a	n/a	0	0	0
2124.228	n/a	REC_WORD	1062114	wordpools/wasnorm_wordpool_576.txt	LTP303	ltpFR2	16	9	BROOK	177	n/a	n/a	0	0	0
2127.08	n/a	REC_WORD	1063540	wordpools/wasnorm_wordpool_576.txt	LTP303	ltpFR2	16	9	DRINK	498	n/a	n/a	0	0	0
2131.148	n/a	REC_WORD	1065574	wordpools/wasnorm_wordpool_576.txt	LTP303	ltpFR2	16	9	SKIRT	1319	n/a	n/a	0	0	0
2132.822	n/a	REC_WORD	1066411	wordpools/wasnorm_wordpool_576.txt	LTP303	ltpFR2	16	9	LACE	792	n/a	n/a	0	0	0
2149.284	n/a	REC_WORD	1074642	wordpools/wasnorm_wordpool_576.txt	LTP303	ltpFR2	16	9	PRINCESS	1125	n/a	n/a	0	0	0
2155.028	n/a	REC_WORD	1077514	wordpools/wasnorm_wordpool_576.txt	LTP303	ltpFR2	16	9	SMOG	1330	n/a	n/a	0	0	0
2156.968	n/a	REC_WORD	1078484	wordpools/wasnorm_wordpool_576.txt	LTP303	ltpFR2	16	9	NECKLACE	940	n/a	n/a	0	0	0
2158.224	n/a	REC_WORD	1079112	wordpools/wasnorm_wordpool_576.txt	LTP303	ltpFR2	16	9	SEAGULL	1261	n/a	n/a	0	0	0
2210.636	n/a	DISTRACTOR	1105318	n/a	LTP303	ltpFR2	16	10	n/a	n/a	n/a	n/a	0	0	0
2210.636	n/a	START	1105318	n/a	LTP303	ltpFR2	16	n/a	n/a	n/a	14	n/a	n/a	n/a	n/a
2210.65	n/a	PROB	1105325	n/a	LTP303	ltpFR2	16	n/a	n/a	n/a	14	17	5	4	8
2212.92	n/a	PROB	1106460	n/a	LTP303	ltpFR2	16	n/a	n/a	n/a	14	8	3	2	3
2215.888	n/a	PROB	1107944	n/a	LTP303	ltpFR2	16	n/a	n/a	n/a	14	14	1	4	9
2217.04	n/a	PROB	1108520	n/a	LTP303	ltpFR2	16	n/a	n/a	n/a	14	24	9	8	7
2218.526	n/a	PROB	1109263	n/a	LTP303	ltpFR2	16	n/a	n/a	n/a	14	17	7	8	2
2219.658	n/a	PROB	1109829	n/a	LTP303	ltpFR2	16	n/a	n/a	n/a	14	21	7	6	8
2220.96	n/a	PROB	1110480	n/a	LTP303	ltpFR2	16	n/a	n/a	n/a	14	13	5	2	6
2222.458	n/a	PROB	1111229	n/a	LTP303	ltpFR2	16	n/a	n/a	n/a	14	18	7	7	4
2224.028	n/a	PROB	1112014	n/a	LTP303	ltpFR2	16	n/a	n/a	n/a	14	19	7	9	3
2225.462	n/a	PROB	1112731	n/a	LTP303	ltpFR2	16	n/a	n/a	n/a	14	11	2	6	3
2226.746	n/a	PROB	1113373	n/a	LTP303	ltpFR2	16	n/a	n/a	n/a	14	17	9	4	2
2228.716	n/a	PROB	1114358	n/a	LTP303	ltpFR2	16	n/a	n/a	n/a	14	17	5	8	4
2230.334	n/a	PROB	1115167	n/a	LTP303	ltpFR2	16	n/a	n/a	n/a	14	15	7	2	6
2232.6	n/a	PROB	1116300	n/a	LTP303	ltpFR2	16	n/a	n/a	n/a	14	17	2	2	3
2234.346	n/a	STOP	1117173	n/a	LTP303	ltpFR2	16	n/a	n/a	n/a	14	n/a	n/a	n/a	n/a
2235.806	n/a	WORD	1117903	wordpools/wasnorm_wordpool_576.txt	LTP303	ltpFR2	16	10	MARSH	874	n/a	n/a	0	0	0
2238.468	n/a	WORD	1119234	wordpools/wasnorm_wordpool_576.txt	LTP303	ltpFR2	16	10	ARMY	39	n/a	n/a	0	0	0
2241.236	n/a	WORD	1120618	wordpools/wasnorm_wordpool_576.txt	LTP303	ltpFR2	16	10	POISON	1096	n/a	n/a	0	0	0
2243.944	n/a	WORD	1121972	wordpools/wasnorm_wordpool_576.txt	LTP303	ltpFR2	16	10	AGENT	10	n/a	n/a	0	0	0
2246.38	n/a	WORD	1123190	wordpools/wasnorm_wordpool_576.txt	LTP303	ltpFR2	16	10	CASHEW	253	n/a	n/a	0	0	0
2248.798	n/a	WORD	1124399	wordpools/wasnorm_wordpool_576.txt	LTP303	ltpFR2	16	10	DONKEY	484	n/a	n/a	0	0	0
2251.612	n/a	WORD	1125806	wordpools/wasnorm_wordpool_576.txt	LTP303	ltpFR2	16	10	SCISSORS	1250	n/a	n/a	0	0	0
2254.37	n/a	WORD	1127185	wordpools/wasnorm_wordpool_576.txt	LTP303	ltpFR2	16	10	DIVER	476	n/a	n/a	0	0	0
2256.984	n/a	WORD	1128492	wordpools/wasnorm_wordpool_576.txt	LTP303	ltpFR2	16	10	MATCH	878	n/a	n/a	0	0	0
2259.54	n/a	WORD	1129770	wordpools/wasnorm_wordpool_576.txt	LTP303	ltpFR2	16	10	FIREMAN	569	n/a	n/a	0	0	0
2262.126	n/a	WORD	1131063	wordpools/wasnorm_wordpool_576.txt	LTP303	ltpFR2	16	10	DRAGON	492	n/a	n/a	0	0	0
2264.64	n/a	WORD	1132320	wordpools/wasnorm_wordpool_576.txt	LTP303	ltpFR2	16	10	EXPERT	543	n/a	n/a	0	0	0
2267.424	n/a	WORD	1133712	wordpools/wasnorm_wordpool_576.txt	LTP303	ltpFR2	16	10	HORSE	719	n/a	n/a	0	0	0
2269.994	n/a	WORD	1134997	wordpools/wasnorm_wordpool_576.txt	LTP303	ltpFR2	16	10	BANKER	84	n/a	n/a	0	0	0
2272.712	n/a	WORD	1136356	wordpools/wasnorm_wordpool_576.txt	LTP303	ltpFR2	16	10	MUSTARD	935	n/a	n/a	0	0	0
2275.264	n/a	WORD	1137632	wordpools/wasnorm_wordpool_576.txt	LTP303	ltpFR2	16	10	FIREPLACE	570	n/a	n/a	0	0	0
2278.05	n/a	WORD	1139025	wordpools/wasnorm_wordpool_576.txt	LTP303	ltpFR2	16	10	TAXI	1438	n/a	n/a	0	0	0
2280.624	n/a	WORD	1140312	wordpools/wasnorm_wordpool_576.txt	LTP303	ltpFR2	16	10	HIGHWAY	707	n/a	n/a	0	0	0
2283.408	n/a	WORD	1141704	wordpools/wasnorm_wordpool_576.txt	LTP303	ltpFR2	16	10	SWAMP	1416	n/a	n/a	0	0	0
2285.99	n/a	WORD	1142995	wordpools/wasnorm_wordpool_576.txt	LTP303	ltpFR2	16	10	BLOUSE	139	n/a	n/a	0	0	0
2288.492	n/a	WORD	1144246	wordpools/wasnorm_wordpool_576.txt	LTP303	ltpFR2	16	10	BREAST	171	n/a	n/a	0	0	0
2291.23	n/a	WORD	1145615	wordpools/wasnorm_wordpool_576.txt	LTP303	ltpFR2	16	10	GRILL	661	n/a	n/a	0	0	0
2293.714	n/a	WORD	1146857	wordpools/wasnorm_wordpool_576.txt	LTP303	ltpFR2	16	10	COIN	343	n/a	n/a	0	0	0
2296.434	n/a	WORD	1148217	wordpools/wasnorm_wordpool_576.txt	LTP303	ltpFR2	16	10	NOVEL	960	n/a	n/a	0	0	0
2298.052	n/a	START	1149026	n/a	LTP303	ltpFR2	16	n/a	n/a	n/a	15	n/a	n/a	n/a	n/a
2299.144	n/a	DISTRACTOR	1149572	n/a	LTP303	ltpFR2	16	10	n/a	n/a	n/a	n/a	0	0	0
2299.152	n/a	PROB	1149576	n/a	LTP303	ltpFR2	16	n/a	n/a	n/a	15	9	2	3	2
2302.79	n/a	PROB	1151395	n/a	LTP303	ltpFR2	16	n/a	n/a	n/a	15	11	1	5	5
2304.376	n/a	PROB	1152188	n/a	LTP303	ltpFR2	16	n/a	n/a	n/a	15	19	6	5	8
2306.108	n/a	PROB	1153054	n/a	LTP303	ltpFR2	16	n/a	n/a	n/a	15	23	9	8	6
2307.826	n/a	PROB	1153913	n/a	LTP303	ltpFR2	16	n/a	n/a	n/a	15	9	5	3	1
2308.91	n/a	PROB	1154455	n/a	LTP303	ltpFR2	16	n/a	n/a	n/a	15	8	1	2	5
2310.01	n/a	PROB	1155005	n/a	LTP303	ltpFR2	16	n/a	n/a	n/a	15	11	5	4	2
2313.182	n/a	PROB	1156591	n/a	LTP303	ltpFR2	16	n/a	n/a	n/a	15	1	3	1	7
2314.45	n/a	PROB	1157225	n/a	LTP303	ltpFR2	16	n/a	n/a	n/a	15	19	9	7	3
2315.834	n/a	PROB	1157917	n/a	LTP303	ltpFR2	16	n/a	n/a	n/a	15	20	7	4	9
2317.518	n/a	PROB	1158759	n/a	LTP303	ltpFR2	16	n/a	n/a	n/a	15	15	4	6	5
2318.752	n/a	PROB	1159376	n/a	LTP303	ltpFR2	16	n/a	n/a	n/a	15	15	8	5	2
2320.052	n/a	PROB	1160026	n/a	LTP303	ltpFR2	16	n/a	n/a	n/a	15	9	4	1	4
2321.172	n/a	STOP	1160586	n/a	LTP303	ltpFR2	16	n/a	n/a	n/a	15	n/a	n/a	n/a	n/a
2323.908	n/a	REC_START	1161954	n/a	LTP303	ltpFR2	16	10	n/a	n/a	n/a	n/a	0	0	0
2325.004	n/a	REC_WORD	1162502	wordpools/wasnorm_wordpool_576.txt	LTP303	ltpFR2	16	10	MARSH	874	n/a	n/a	0	0	0
2326.012	n/a	REC_WORD	1163006	wordpools/wasnorm_wordpool_576.txt	LTP303	ltpFR2	16	10	ARMY	39	n/a	n/a	0	0	0
2327.13	n/a	REC_WORD	1163565	wordpools/wasnorm_wordpool_576.txt	LTP303	ltpFR2	16	10	POISON	1096	n/a	n/a	0	0	0
2328.368	n/a	REC_WORD	1164184	wordpools/wasnorm_wordpool_576.txt	LTP303	ltpFR2	16	10	AGENT	10	n/a	n/a	0	0	0
2330.328	n/a	REC_WORD	1165164	wordpools/wasnorm_wordpool_576.txt	LTP303	ltpFR2	16	10	CASHEW	253	n/a	n/a	0	0	0
2331.444	n/a	REC_WORD	1165722	wordpools/wasnorm_wordpool_576.txt	LTP303	ltpFR2	16	10	DONKEY	484	n/a	n/a	0	0	0
2332.442	n/a	REC_WORD	1166221	wordpools/wasnorm_wordpool_576.txt	LTP303	ltpFR2	16	10	SCISSORS	1250	n/a	n/a	0	0	0
2336.784	n/a	REC_WORD	1168392	wordpools/wasnorm_wordpool_576.txt	LTP303	ltpFR2	16	10	FIREMAN	569	n/a	n/a	0	0	0
2338.768	n/a	REC_WORD	1169384	wordpools/wasnorm_wordpool_576.txt	LTP303	ltpFR2	16	10	MUSTARD	935	n/a	n/a	0	0	0
2339.772	n/a	REC_WORD	1169886	wordpools/wasnorm_wordpool_576.txt	LTP303	ltpFR2	16	10	FIREPLACE	570	n/a	n/a	0	0	0
2343.754	n/a	REC_WORD	1171877	wordpools/wasnorm_wordpool_576.txt	LTP303	ltpFR2	16	10	EXPERT	543	n/a	n/a	0	0	0
2344.814	n/a	REC_WORD	1172407	wordpools/wasnorm_wordpool_576.txt	LTP303	ltpFR2	16	10	DRAGON	492	n/a	n/a	0	0	0
2345.702	n/a	REC_WORD	1172851	wordpools/wasnorm_wordpool_576.txt	LTP303	ltpFR2	16	10	HORSE	719	n/a	n/a	0	0	0
2346.818	n/a	REC_WORD	1173409	wordpools/wasnorm_wordpool_576.txt	LTP303	ltpFR2	16	10	BANKER	84	n/a	n/a	0	0	0
2348.684	n/a	REC_WORD	1174342	wordpools/wasnorm_wordpool_576.txt	LTP303	ltpFR2	16	10	TAXI	1438	n/a	n/a	0	0	0
2349.756	n/a	REC_WORD	1174878	wordpools/wasnorm_wordpool_576.txt	LTP303	ltpFR2	16	10	HIGHWAY	707	n/a	n/a	0	0	0
2351.262	n/a	REC_WORD	1175631	wordpools/wasnorm_wordpool_576.txt	LTP303	ltpFR2	16	10	BLOUSE	139	n/a	n/a	0	0	0
2352.494	n/a	REC_WORD	1176247	wordpools/wasnorm_wordpool_576.txt	LTP303	ltpFR2	16	10	SWAMP	1416	n/a	n/a	0	0	0
2353.864	n/a	REC_WORD	1176932	wordpools/wasnorm_wordpool_576.txt	LTP303	ltpFR2	16	10	BREAST	171	n/a	n/a	0	0	0
2355.406	n/a	REC_WORD	1177703	wordpools/wasnorm_wordpool_576.txt	LTP303	ltpFR2	16	10	GRILL	661	n/a	n/a	0	0	0
2356.708	n/a	REC_WORD	1178354	wordpools/wasnorm_wordpool_576.txt	LTP303	ltpFR2	16	10	COIN	343	n/a	n/a	0	0	0
2357.916	n/a	REC_WORD	1178958	wordpools/wasnorm_wordpool_576.txt	LTP303	ltpFR2	16	10	NOVEL	960	n/a	n/a	0	0	0
2414.328	n/a	DISTRACTOR	1207164	n/a	LTP303	ltpFR2	16	11	n/a	n/a	n/a	n/a	0	0	0
2414.328	n/a	START	1207164	n/a	LTP303	ltpFR2	16	n/a	n/a	n/a	16	n/a	n/a	n/a	n/a
2414.342	n/a	PROB	1207171	n/a	LTP303	ltpFR2	16	n/a	n/a	n/a	16	14	9	2	3
2416.278	n/a	PROB	1208139	n/a	LTP303	ltpFR2	16	n/a	n/a	n/a	16	12	2	2	8
2419.264	n/a	PROB	1209632	n/a	LTP303	ltpFR2	16	n/a	n/a	n/a	16	24	7	9	8
2422.0	n/a	PROB	1211000	n/a	LTP303	ltpFR2	16	n/a	n/a	n/a	16	21	8	8	5
2423.336	n/a	PROB	1211668	n/a	LTP303	ltpFR2	16	n/a	n/a	n/a	16	15	8	5	2
2424.65	n/a	PROB	1212325	n/a	LTP303	ltpFR2	16	n/a	n/a	n/a	16	6	1	2	3
2425.57	n/a	PROB	1212785	n/a	LTP303	ltpFR2	16	n/a	n/a	n/a	16	20	8	8	4
2427.07	n/a	PROB	1213535	n/a	LTP303	ltpFR2	16	n/a	n/a	n/a	16	15	3	3	9
2428.872	n/a	PROB	1214436	n/a	LTP303	ltpFR2	16	n/a	n/a	n/a	16	10	1	3	6
2430.024	n/a	PROB	1215012	n/a	LTP303	ltpFR2	16	n/a	n/a	n/a	16	18	4	7	7
2431.442	n/a	PROB	1215721	n/a	LTP303	ltpFR2	16	n/a	n/a	n/a	16	12	4	5	3
2433.808	n/a	PROB	1216904	n/a	LTP303	ltpFR2	16	n/a	n/a	n/a	16	17	6	5	6
2438.328	n/a	STOP	1219164	n/a	LTP303	ltpFR2	16	n/a	n/a	n/a	16	n/a	n/a	n/a	n/a
2439.204	n/a	WORD	1219602	wordpools/wasnorm_wordpool_576.txt	LTP303	ltpFR2	16	11	VIKING	1565	n/a	n/a	0	0	0
2441.982	n/a	WORD	1220991	wordpools/wasnorm_wordpool_576.txt	LTP303	ltpFR2	16	11	RAFT	1159	n/a	n/a	0	0	0
2444.768	n/a	WORD	1222384	wordpools/wasnorm_wordpool_576.txt	LTP303	ltpFR2	16	11	DRUG	501	n/a	n/a	0	0	0
2447.57	n/a	WORD	1223785	wordpools/wasnorm_wordpool_576.txt	LTP303	ltpFR2	16	11	BUTCHER	203	n/a	n/a	0	0	0
2450.272	n/a	WORD	1225136	wordpools/wasnorm_wordpool_576.txt	LTP303	ltpFR2	16	11	WRIST	1626	n/a	n/a	0	0	0
2453.032	n/a	WORD	1226516	wordpools/wasnorm_wordpool_576.txt	LTP303	ltpFR2	16	11	TABLET	1427	n/a	n/a	0	0	0
2455.776	n/a	WORD	1227888	wordpools/wasnorm_wordpool_576.txt	LTP303	ltpFR2	16	11	BISON	131	n/a	n/a	0	0	0
2458.362	n/a	WORD	1229181	wordpools/wasnorm_wordpool_576.txt	LTP303	ltpFR2	16	11	MAILMAN	858	n/a	n/a	0	0	0
2460.864	n/a	WORD	1230432	wordpools/wasnorm_wordpool_576.txt	LTP303	ltpFR2	16	11	BURGLAR	200	n/a	n/a	0	0	0
2463.424	n/a	WORD	1231712	wordpools/wasnorm_wordpool_576.txt	LTP303	ltpFR2	16	11	XEROX	1628	n/a	n/a	0	0	0
2466.118	n/a	WORD	1233059	wordpools/wasnorm_wordpool_576.txt	LTP303	ltpFR2	16	11	JURY	766	n/a	n/a	0	0	0
2468.864	n/a	WORD	1234432	wordpools/wasnorm_wordpool_576.txt	LTP303	ltpFR2	16	11	LAVA	804	n/a	n/a	0	0	0
2471.49	n/a	WORD	1235745	wordpools/wasnorm_wordpool_576.txt	LTP303	ltpFR2	16	11	BOARD	143	n/a	n/a	0	0	0
2474.292	n/a	WORD	1237146	wordpools/wasnorm_wordpool_576.txt	LTP303	ltpFR2	16	11	ZIPPER	1636	n/a	n/a	0	0	0
2476.76	n/a	WORD	1238380	wordpools/wasnorm_wordpool_576.txt	LTP303	ltpFR2	16	11	MOP	916	n/a	n/a	0	0	0
2479.204	n/a	WORD	1239602	wordpools/wasnorm_wordpool_576.txt	LTP303	ltpFR2	16	11	DUSTPAN	509	n/a	n/a	0	0	0
2481.696	n/a	WORD	1240848	wordpools/wasnorm_wordpool_576.txt	LTP303	ltpFR2	16	11	LIZARD	834	n/a	n/a	0	0	0
2484.258	n/a	WORD	1242129	wordpools/wasnorm_wordpool_576.txt	LTP303	ltpFR2	16	11	JEANS	752	n/a	n/a	0	0	0
2486.734	n/a	WORD	1243367	wordpools/wasnorm_wordpool_576.txt	LTP303	ltpFR2	16	11	KETCHUP	771	n/a	n/a	0	0	0
2489.23	n/a	WORD	1244615	wordpools/wasnorm_wordpool_576.txt	LTP303	ltpFR2	16	11	LETTUCE	814	n/a	n/a	0	0	0
2491.682	n/a	WORD	1245841	wordpools/wasnorm_wordpool_576.txt	LTP303	ltpFR2	16	11	OX	994	n/a	n/a	0	0	0
2494.334	n/a	WORD	1247167	wordpools/wasnorm_wordpool_576.txt	LTP303	ltpFR2	16	11	PIANO	1057	n/a	n/a	0	0	0
2496.876	n/a	WORD	1248438	wordpools/wasnorm_wordpool_576.txt	LTP303	ltpFR2	16	11	HOSTESS	723	n/a	n/a	0	0	0
2499.422	n/a	WORD	1249711	wordpools/wasnorm_wordpool_576.txt	LTP303	ltpFR2	16	11	BLACKBOARD	133	n/a	n/a	0	0	0
2501.03	n/a	START	1250515	n/a	LTP303	ltpFR2	16	n/a	n/a	n/a	17	n/a	n/a	n/a	n/a
2502.116	n/a	DISTRACTOR	1251058	n/a	LTP303	ltpFR2	16	11	n/a	n/a	n/a	n/a	0	0	0
2502.124	n/a	PROB	1251062	n/a	LTP303	ltpFR2	16	n/a	n/a	n/a	17	17	4	5	8
2504.296	n/a	PROB	1252148	n/a	LTP303	ltpFR2	16	n/a	n/a	n/a	17	8	3	4	1
2505.832	n/a	PROB	1252916	n/a	LTP303	ltpFR2	16	n/a	n/a	n/a	17	20	8	3	9
2507.632	n/a	PROB	1253816	n/a	LTP303	ltpFR2	16	n/a	n/a	n/a	17	9	4	1	4
2508.802	n/a	PROB	1254401	n/a	LTP303	ltpFR2	16	n/a	n/a	n/a	17	13	5	2	7
2511.086	n/a	PROB	1255543	n/a	LTP303	ltpFR2	16	n/a	n/a	n/a	17	9	6	2	1
2512.554	n/a	PROB	1256277	n/a	LTP303	ltpFR2	16	n/a	n/a	n/a	17	2	8	7	7
2514.272	n/a	PROB	1257136	n/a	LTP303	ltpFR2	16	n/a	n/a	n/a	17	23	8	8	7
2516.37	n/a	PROB	1258185	n/a	LTP303	ltpFR2	16	n/a	n/a	n/a	17	18	6	6	6
2517.736	n/a	PROB	1258868	n/a	LTP303	ltpFR2	16	n/a	n/a	n/a	17	16	3	6	7
2518.974	n/a	PROB	1259487	n/a	LTP303	ltpFR2	16	n/a	n/a	n/a	17	11	3	6	2
2520.924	n/a	PROB	1260462	n/a	LTP303	ltpFR2	16	n/a	n/a	n/a	17	8	1	4	3
2522.162	n/a	PROB	1261081	n/a	LTP303	ltpFR2	16	n/a	n/a	n/a	17	15	4	3	8
2524.534	n/a	STOP	1262267	n/a	LTP303	ltpFR2	16	n/a	n/a	n/a	17	n/a	n/a	n/a	n/a
2526.93	n/a	REC_START	1263465	n/a	LTP303	ltpFR2	16	11	n/a	n/a	n/a	n/a	0	0	0
2531.876	n/a	REC_WORD	1265938	wordpools/wasnorm_wordpool_576.txt	LTP303	ltpFR2	16	11	VIKING	1565	n/a	n/a	0	0	0
2532.83	n/a	REC_WORD	1266415	wordpools/wasnorm_wordpool_576.txt	LTP303	ltpFR2	16	11	RAFT	1159	n/a	n/a	0	0	0
2533.928	n/a	REC_WORD	1266964	wordpools/wasnorm_wordpool_576.txt	LTP303	ltpFR2	16	11	DRUG	501	n/a	n/a	0	0	0
2535.426	n/a	REC_WORD	1267713	wordpools/wasnorm_wordpool_576.txt	LTP303	ltpFR2	16	11	BUTCHER	203	n/a	n/a	0	0	0
2536.558	n/a	REC_WORD	1268279	wordpools/wasnorm_wordpool_576.txt	LTP303	ltpFR2	16	11	WRIST	1626	n/a	n/a	0	0	0
2537.64	n/a	REC_WORD	1268820	wordpools/wasnorm_wordpool_576.txt	LTP303	ltpFR2	16	11	TABLET	1427	n/a	n/a	0	0	0
2539.976	n/a	REC_WORD	1269988	wordpools/wasnorm_wordpool_576.txt	LTP303	ltpFR2	16	11	BISON	131	n/a	n/a	0	0	0
2541.066	n/a	REC_WORD	1270533	wordpools/wasnorm_wordpool_576.txt	LTP303	ltpFR2	16	11	XEROX	1628	n/a	n/a	0	0	0
2542.31	n/a	REC_WORD	1271155	wordpools/wasnorm_wordpool_576.txt	LTP303	ltpFR2	16	11	BOARD	143	n/a	n/a	0	0	0
2543.21	n/a	REC_WORD	1271605	wordpools/wasnorm_wordpool_576.txt	LTP303	ltpFR2	16	11	ZIPPER	1636	n/a	n/a	0	0	0
2544.268	n/a	REC_WORD	1272134	wordpools/wasnorm_wordpool_576.txt	LTP303	ltpFR2	16	11	MOP	916	n/a	n/a	0	0	0
2545.266	n/a	REC_WORD	1272633	wordpools/wasnorm_wordpool_576.txt	LTP303	ltpFR2	16	11	DUSTPAN	509	n/a	n/a	0	0	0
2546.42	n/a	REC_WORD	1273210	wordpools/wasnorm_wordpool_576.txt	LTP303	ltpFR2	16	11	KETCHUP	771	n/a	n/a	0	0	0
2547.518	n/a	REC_WORD	1273759	wordpools/wasnorm_wordpool_576.txt	LTP303	ltpFR2	16	11	LETTUCE	814	n/a	n/a	0	0	0
2548.58	n/a	REC_WORD	1274290	wordpools/wasnorm_wordpool_576.txt	LTP303	ltpFR2	16	11	OX	994	n/a	n/a	0	0	0
2552.258	n/a	REC_WORD	1276129	wordpools/wasnorm_wordpool_576.txt	LTP303	ltpFR2	16	11	JEANS	752	n/a	n/a	0	0	0
2555.772	n/a	REC_WORD	1277886	wordpools/wasnorm_wordpool_576.txt	LTP303	ltpFR2	16	11	PIANO	1057	n/a	n/a	0	0	0
2560.508	n/a	REC_WORD_VV	1280254	wordpools/wasnorm_wordpool_576.txt	LTP303	ltpFR2	16	11	<>	-1	n/a	n/a	0	0	0
2617.386	n/a	DISTRACTOR	1308693	n/a	LTP303	ltpFR2	16	12	n/a	n/a	n/a	n/a	0	0	0
2617.386	n/a	START	1308693	n/a	LTP303	ltpFR2	16	n/a	n/a	n/a	18	n/a	n/a	n/a	n/a
2617.4	n/a	PROB	1308700	n/a	LTP303	ltpFR2	16	n/a	n/a	n/a	18	13	5	6	2
2619.702	n/a	PROB	1309851	n/a	LTP303	ltpFR2	16	n/a	n/a	n/a	18	19	8	8	3
2621.072	n/a	PROB	1310536	n/a	LTP303	ltpFR2	16	n/a	n/a	n/a	18	178	6	6	6
2622.256	n/a	PROB	1311128	n/a	LTP303	ltpFR2	16	n/a	n/a	n/a	18	8	1	4	3
2623.406	n/a	PROB	1311703	n/a	LTP303	ltpFR2	16	n/a	n/a	n/a	18	17	4	5	8
2624.824	n/a	PROB	1312412	n/a	LTP303	ltpFR2	16	n/a	n/a	n/a	18	20	7	4	9
2626.744	n/a	PROB	1313372	n/a	LTP303	ltpFR2	16	n/a	n/a	n/a	18	21	9	5	7
2628.878	n/a	PROB	1314439	n/a	LTP303	ltpFR2	16	n/a	n/a	n/a	18	14	7	5	2
2630.48	n/a	PROB	1315240	n/a	LTP303	ltpFR2	16	n/a	n/a	n/a	18	20	5	7	8
2632.58	n/a	PROB	1316290	n/a	LTP303	ltpFR2	16	n/a	n/a	n/a	18	12	8	1	3
2634.548	n/a	PROB	1317274	n/a	LTP303	ltpFR2	16	n/a	n/a	n/a	18	12	6	5	1
2635.916	n/a	PROB	1317958	n/a	LTP303	ltpFR2	16	n/a	n/a	n/a	18	13	8	2	3
2637.034	n/a	PROB	1318517	n/a	LTP303	ltpFR2	16	n/a	n/a	n/a	18	14	7	4	3
2638.784	n/a	PROB	1319392	n/a	LTP303	ltpFR2	16	n/a	n/a	n/a	18	12	3	7	2
2639.914	n/a	STOP	1319957	n/a	LTP303	ltpFR2	16	n/a	n/a	n/a	18	n/a	n/a	n/a	n/a
2642.44	n/a	WORD	1321220	wordpools/wasnorm_wordpool_576.txt	LTP303	ltpFR2	16	12	BOYFRIEND	162	n/a	n/a	0	0	0
2645.03	n/a	WORD	1322515	wordpools/wasnorm_wordpool_576.txt	LTP303	ltpFR2	16	12	HORNET	718	n/a	n/a	0	0	0
2647.81	n/a	WORD	1323905	wordpools/wasnorm_wordpool_576.txt	LTP303	ltpFR2	16	12	VAGRANT	1544	n/a	n/a	0	0	0
2650.444	n/a	WORD	1325222	wordpools/wasnorm_wordpool_576.txt	LTP303	ltpFR2	16	12	MUMMY	932	n/a	n/a	0	0	0
2653.146	n/a	WORD	1326573	wordpools/wasnorm_wordpool_576.txt	LTP303	ltpFR2	16	12	PUDDING	1139	n/a	n/a	0	0	0
2655.62	n/a	WORD	1327810	wordpools/wasnorm_wordpool_576.txt	LTP303	ltpFR2	16	12	SHOULDER	1294	n/a	n/a	0	0	0
2658.3	n/a	WORD	1329150	wordpools/wasnorm_wordpool_576.txt	LTP303	ltpFR2	16	12	SLUG	1329	n/a	n/a	0	0	0
2660.92	n/a	WORD	1330460	wordpools/wasnorm_wordpool_576.txt	LTP303	ltpFR2	16	12	CAPTIVE	240	n/a	n/a	0	0	0
2663.52	n/a	WORD	1331760	wordpools/wasnorm_wordpool_576.txt	LTP303	ltpFR2	16	12	SWORD	1423	n/a	n/a	0	0	0
2666.256	n/a	WORD	1333128	wordpools/wasnorm_wordpool_576.txt	LTP303	ltpFR2	16	12	BLADE	134	n/a	n/a	0	0	0
2668.708	n/a	WORD	1334354	wordpools/wasnorm_wordpool_576.txt	LTP303	ltpFR2	16	12	SKETCH	1315	n/a	n/a	0	0	0
2671.312	n/a	WORD	1335656	wordpools/wasnorm_wordpool_576.txt	LTP303	ltpFR2	16	12	BEAST	108	n/a	n/a	0	0	0
2673.98	n/a	WORD	1336990	wordpools/wasnorm_wordpool_576.txt	LTP303	ltpFR2	16	12	BIKE	125	n/a	n/a	0	0	0
2676.766	n/a	WORD	1338383	wordpools/wasnorm_wordpool_576.txt	LTP303	ltpFR2	16	12	CUSTARD	429	n/a	n/a	0	0	0
2679.384	n/a	WORD	1339692	wordpools/wasnorm_wordpool_576.txt	LTP303	ltpFR2	16	12	JUNGLE	764	n/a	n/a	0	0	0
2681.81	n/a	WORD	1340905	wordpools/wasnorm_wordpool_576.txt	LTP303	ltpFR2	16	12	CHIPMUNK	304	n/a	n/a	0	0	0
2684.572	n/a	WORD	1342286	wordpools/wasnorm_wordpool_576.txt	LTP303	ltpFR2	16	12	BARLEY	88	n/a	n/a	0	0	0
2687.322	n/a	WORD	1343661	wordpools/wasnorm_wordpool_576.txt	LTP303	ltpFR2	16	12	CABBAGE	210	n/a	n/a	0	0	0
2689.958	n/a	WORD	1344979	wordpools/wasnorm_wordpool_576.txt	LTP303	ltpFR2	16	12	REBEL	1172	n/a	n/a	0	0	0
2692.702	n/a	WORD	1346351	wordpools/wasnorm_wordpool_576.txt	LTP303	ltpFR2	16	12	MUFFIN	929	n/a	n/a	0	0	0
2695.23	n/a	WORD	1347615	wordpools/wasnorm_wordpool_576.txt	LTP303	ltpFR2	16	12	PARSLEY	1016	n/a	n/a	0	0	0
2697.824	n/a	WORD	1348912	wordpools/wasnorm_wordpool_576.txt	LTP303	ltpFR2	16	12	CONVICT	371	n/a	n/a	0	0	0
2700.568	n/a	WORD	1350284	wordpools/wasnorm_wordpool_576.txt	LTP303	ltpFR2	16	12	GARLIC	624	n/a	n/a	0	0	0
2703.07	n/a	WORD	1351535	wordpools/wasnorm_wordpool_576.txt	LTP303	ltpFR2	16	12	RADISH	1158	n/a	n/a	0	0	0
2704.68	n/a	START	1352340	n/a	LTP303	ltpFR2	16	n/a	n/a	n/a	19	n/a	n/a	n/a	n/a
2705.88	n/a	DISTRACTOR	1352940	n/a	LTP303	ltpFR2	16	12	n/a	n/a	n/a	n/a	0	0	0
2705.888	n/a	PROB	1352944	n/a	LTP303	ltpFR2	16	n/a	n/a	n/a	19	14	7	2	5
2707.688	n/a	PROB	1353844	n/a	LTP303	ltpFR2	16	n/a	n/a	n/a	19	19	2	9	8
2709.974	n/a	PROB	1354987	n/a	LTP303	ltpFR2	16	n/a	n/a	n/a	19	6	2	1	3
2711.158	n/a	PROB	1355579	n/a	LTP303	ltpFR2	16	n/a	n/a	n/a	19	12	2	6	4
2712.192	n/a	PROB	1356096	n/a	LTP303	ltpFR2	16	n/a	n/a	n/a	19	18	3	9	6
2713.894	n/a	PROB	1356947	n/a	LTP303	ltpFR2	16	n/a	n/a	n/a	19	1	8	3	1
2715.48	n/a	PROB	1357740	n/a	LTP303	ltpFR2	16	n/a	n/a	n/a	19	20	3	9	8
2717.68	n/a	PROB	1358840	n/a	LTP303	ltpFR2	16	n/a	n/a	n/a	19	11	3	6	2
2719.314	n/a	PROB	1359657	n/a	LTP303	ltpFR2	16	n/a	n/a	n/a	19	15	4	2	9
2721.684	n/a	PROB	1360842	n/a	LTP303	ltpFR2	16	n/a	n/a	n/a	19	15	3	6	6
2723.202	n/a	PROB	1361601	n/a	LTP303	ltpFR2	16	n/a	n/a	n/a	19	18	4	5	9
2726.688	n/a	PROB	1363344	n/a	LTP303	ltpFR2	16	n/a	n/a	n/a	19	13	6	6	1
2727.954	n/a	STOP	1363977	n/a	LTP303	ltpFR2	16	n/a	n/a	n/a	19	n/a	n/a	n/a	n/a
2730.624	n/a	REC_START	1365312	n/a	LTP303	ltpFR2	16	12	n/a	n/a	n/a	n/a	0	0	0
2749.512	n/a	REC_WORD	1374756	wordpools/wasnorm_wordpool_576.txt	LTP303	ltpFR2	16	12	SLUG	1329	n/a	n/a	0	0	0
2750.67	n/a	REC_WORD	1375335	wordpools/wasnorm_wordpool_576.txt	LTP303	ltpFR2	16	12	SHOULDER	1294	n/a	n/a	0	0	0
2752.06	n/a	REC_WORD	1376030	wordpools/wasnorm_wordpool_576.txt	LTP303	ltpFR2	16	12	PUDDING	1139	n/a	n/a	0	0	0
2753.284	n/a	REC_WORD	1376642	wordpools/wasnorm_wordpool_576.txt	LTP303	ltpFR2	16	12	CAPTIVE	240	n/a	n/a	0	0	0
2754.424	n/a	REC_WORD	1377212	wordpools/wasnorm_wordpool_576.txt	LTP303	ltpFR2	16	12	SWORD	1423	n/a	n/a	0	0	0
2755.76	n/a	REC_WORD	1377880	wordpools/wasnorm_wordpool_576.txt	LTP303	ltpFR2	16	12	BLADE	134	n/a	n/a	0	0	0
2758.686	n/a	REC_WORD	1379343	wordpools/wasnorm_wordpool_576.txt	LTP303	ltpFR2	16	12	RADISH	1158	n/a	n/a	0	0	0
2759.93	n/a	REC_WORD	1379965	wordpools/wasnorm_wordpool_576.txt	LTP303	ltpFR2	16	12	TURNIP	1521	n/a	n/a	0	0	0
2761.026	n/a	REC_WORD	1380513	wordpools/wasnorm_wordpool_576.txt	LTP303	ltpFR2	16	12	GARLIC	624	n/a	n/a	0	0	0
2772.196	n/a	REC_WORD	1386098	wordpools/wasnorm_wordpool_576.txt	LTP303	ltpFR2	16	12	MUSTARD	935	n/a	n/a	0	0	0
2821.094	n/a	WORD	1410547	wordpools/wasnorm_wordpool_576.txt	LTP303	ltpFR2	16	13	COD	340	n/a	n/a	0	0	0
2823.646	n/a	WORD	1411823	wordpools/wasnorm_wordpool_576.txt	LTP303	ltpFR2	16	13	DENIM	446	n/a	n/a	0	0	0
2826.348	n/a	WORD	1413174	wordpools/wasnorm_wordpool_576.txt	LTP303	ltpFR2	16	13	PECAN	1036	n/a	n/a	0	0	0
2828.918	n/a	WORD	1414459	wordpools/wasnorm_wordpool_576.txt	LTP303	ltpFR2	16	13	APPLE	33	n/a	n/a	0	0	0
2831.586	n/a	WORD	1415793	wordpools/wasnorm_wordpool_576.txt	LTP303	ltpFR2	16	13	DANDRUFF	439	n/a	n/a	0	0	0
2834.022	n/a	WORD	1417011	wordpools/wasnorm_wordpool_576.txt	LTP303	ltpFR2	16	13	WAGON	1578	n/a	n/a	0	0	0
2836.724	n/a	WORD	1418362	wordpools/wasnorm_wordpool_576.txt	LTP303	ltpFR2	16	13	WAITER	1580	n/a	n/a	0	0	0
2839.442	n/a	WORD	1419721	wordpools/wasnorm_wordpool_576.txt	LTP303	ltpFR2	16	13	JAPAN	749	n/a	n/a	0	0	0
2842.012	n/a	WORD	1421006	wordpools/wasnorm_wordpool_576.txt	LTP303	ltpFR2	16	13	COUNTRY	388	n/a	n/a	0	0	0
2844.746	n/a	WORD	1422373	wordpools/wasnorm_wordpool_576.txt	LTP303	ltpFR2	16	13	FINGER	567	n/a	n/a	0	0	0
2847.366	n/a	WORD	1423683	wordpools/wasnorm_wordpool_576.txt	LTP303	ltpFR2	16	13	ACTRESS	6	n/a	n/a	0	0	0
2849.8	n/a	WORD	1424900	wordpools/wasnorm_wordpool_576.txt	LTP303	ltpFR2	16	13	JUGGLER	763	n/a	n/a	0	0	0
2852.452	n/a	WORD	1426226	wordpools/wasnorm_wordpool_576.txt	LTP303	ltpFR2	16	13	CATTLE	261	n/a	n/a	0	0	0
2855.238	n/a	WORD	1427619	wordpools/wasnorm_wordpool_576.txt	LTP303	ltpFR2	16	13	MILK	895	n/a	n/a	0	0	0
2857.706	n/a	WORD	1428853	wordpools/wasnorm_wordpool_576.txt	LTP303	ltpFR2	16	13	MOTEL	919	n/a	n/a	0	0	0
2860.462	n/a	WORD	1430231	wordpools/wasnorm_wordpool_576.txt	LTP303	ltpFR2	16	13	HEADBAND	696	n/a	n/a	0	0	0
2863.128	n/a	WORD	1431564	wordpools/wasnorm_wordpool_576.txt	LTP303	ltpFR2	16	13	NIGHTGOWN	953	n/a	n/a	0	0	0
2865.812	n/a	WORD	1432906	wordpools/wasnorm_wordpool_576.txt	LTP303	ltpFR2	16	13	PEACH	1031	n/a	n/a	0	0	0
2868.548	n/a	WORD	1434274	wordpools/wasnorm_wordpool_576.txt	LTP303	ltpFR2	16	13	BRAKE	166	n/a	n/a	0	0	0
2871.084	n/a	WORD	1435542	wordpools/wasnorm_wordpool_576.txt	LTP303	ltpFR2	16	13	SNAIL	1332	n/a	n/a	0	0	0
2873.624	n/a	WORD	1436812	wordpools/wasnorm_wordpool_576.txt	LTP303	ltpFR2	16	13	PIMPLE	1071	n/a	n/a	0	0	0
2876.226	n/a	WORD	1438113	wordpools/wasnorm_wordpool_576.txt	LTP303	ltpFR2	16	13	LUNCH	849	n/a	n/a	0	0	0
2878.978	n/a	WORD	1439489	wordpools/wasnorm_wordpool_576.txt	LTP303	ltpFR2	16	13	OUTDOORS	987	n/a	n/a	0	0	0
2881.614	n/a	WORD	1440807	wordpools/wasnorm_wordpool_576.txt	LTP303	ltpFR2	16	13	SLOPE	1328	n/a	n/a	0	0	0
2883.226	n/a	START	1441613	n/a	LTP303	ltpFR2	16	n/a	n/a	n/a	20	n/a	n/a	n/a	n/a
2884.08	n/a	DISTRACTOR	1442040	n/a	LTP303	ltpFR2	16	13	n/a	n/a	n/a	n/a	0	0	0
2884.094	n/a	PROB	1442047	n/a	LTP303	ltpFR2	16	n/a	n/a	n/a	20	14	9	1	4
2885.678	n/a	PROB	1442839	n/a	LTP303	ltpFR2	16	n/a	n/a	n/a	20	14	5	3	6
2886.878	n/a	PROB	1443439	n/a	LTP303	ltpFR2	16	n/a	n/a	n/a	20	8	2	1	5
2888.83	n/a	PROB	1444415	n/a	LTP303	ltpFR2	16	n/a	n/a	n/a	20	14	4	3	7
2889.914	n/a	PROB	1444957	n/a	LTP303	ltpFR2	16	n/a	n/a	n/a	20	14	2	7	5
2891.884	n/a	PROB	1445942	n/a	LTP303	ltpFR2	16	n/a	n/a	n/a	20	17	7	4	6
2893.234	n/a	PROB	1446617	n/a	LTP303	ltpFR2	16	n/a	n/a	n/a	20	20	8	9	3
2895.168	n/a	PROB	1447584	n/a	LTP303	ltpFR2	16	n/a	n/a	n/a	20	22	7	7	8
2897.27	n/a	PROB	1448635	n/a	LTP303	ltpFR2	16	n/a	n/a	n/a	20	14	6	5	3
2898.856	n/a	PROB	1449428	n/a	LTP303	ltpFR2	16	n/a	n/a	n/a	20	22	9	6	7
2900.504	n/a	PROB	1450252	n/a	LTP303	ltpFR2	16	n/a	n/a	n/a	20	13	9	1	3
2901.79	n/a	PROB	1450895	n/a	LTP303	ltpFR2	16	n/a	n/a	n/a	20	14	7	4	3
2903.958	n/a	PROB	1451979	n/a	LTP303	ltpFR2	16	n/a	n/a	n/a	20	14	2	7	5
2905.79	n/a	STOP	1452895	n/a	LTP303	ltpFR2	16	n/a	n/a	n/a	20	n/a	n/a	n/a	n/a
2908.98	n/a	REC_START	1454490	n/a	LTP303	ltpFR2	16	13	n/a	n/a	n/a	n/a	0	0	0
2913.942	n/a	REC_WORD	1456971	wordpools/wasnorm_wordpool_576.txt	LTP303	ltpFR2	16	13	APPLE	33	n/a	n/a	0	0	0
2914.792	n/a	REC_WORD	1457396	wordpools/wasnorm_wordpool_576.txt	LTP303	ltpFR2	16	13	PECAN	1036	n/a	n/a	0	0	0
2915.956	n/a	REC_WORD	1457978	wordpools/wasnorm_wordpool_576.txt	LTP303	ltpFR2	16	13	DANDRUFF	439	n/a	n/a	0	0	0
2917.558	n/a	REC_WORD	1458779	wordpools/wasnorm_wordpool_576.txt	LTP303	ltpFR2	16	13	WAITER	1580	n/a	n/a	0	0	0
2918.482	n/a	REC_WORD	1459241	wordpools/wasnorm_wordpool_576.txt	LTP303	ltpFR2	16	13	JAPAN	749	n/a	n/a	0	0	0
2921.746	n/a	REC_WORD	1460873	wordpools/wasnorm_wordpool_576.txt	LTP303	ltpFR2	16	13	WAGON	1578	n/a	n/a	0	0	0
2924.82	n/a	REC_WORD	1462410	wordpools/wasnorm_wordpool_576.txt	LTP303	ltpFR2	16	13	COUNTRY	388	n/a	n/a	0	0	0
2926.784	n/a	REC_WORD	1463392	wordpools/wasnorm_wordpool_576.txt	LTP303	ltpFR2	16	13	FINGER	567	n/a	n/a	0	0	0
2931.446	n/a	REC_WORD	1465723	wordpools/wasnorm_wordpool_576.txt	LTP303	ltpFR2	16	13	ACTRESS	6	n/a	n/a	0	0	0
2940.048	n/a	REC_WORD_VV	1470024	wordpools/wasnorm_wordpool_576.txt	LTP303	ltpFR2	16	13	<>	-1	n/a	n/a	0	0	0
2941.176	n/a	REC_WORD	1470588	wordpools/wasnorm_wordpool_576.txt	LTP303	ltpFR2	16	13	MILK	895	n/a	n/a	0	0	0
2942.072	n/a	REC_WORD	1471036	wordpools/wasnorm_wordpool_576.txt	LTP303	ltpFR2	16	13	MOTEL	919	n/a	n/a	0	0	0
2953.032	n/a	REC_WORD	1476516	wordpools/wasnorm_wordpool_576.txt	LTP303	ltpFR2	16	13	JUGGLER	763	n/a	n/a	0	0	0
2999.412	n/a	WORD	1499706	wordpools/wasnorm_wordpool_576.txt	LTP303	ltpFR2	16	14	STOMACH	1384	n/a	n/a	0	0	0
3002.166	n/a	WORD	1501083	wordpools/wasnorm_wordpool_576.txt	LTP303	ltpFR2	16	14	MAILBOX	857	n/a	n/a	0	0	0
3004.968	n/a	WORD	1502484	wordpools/wasnorm_wordpool_576.txt	LTP303	ltpFR2	16	14	BOX	159	n/a	n/a	0	0	0
3007.504	n/a	WORD	1503752	wordpools/wasnorm_wordpool_576.txt	LTP303	ltpFR2	16	14	WIDOW	1608	n/a	n/a	0	0	0
3009.956	n/a	WORD	1504978	wordpools/wasnorm_wordpool_576.txt	LTP303	ltpFR2	16	14	BLOCKADE	137	n/a	n/a	0	0	0
3012.562	n/a	WORD	1506281	wordpools/wasnorm_wordpool_576.txt	LTP303	ltpFR2	16	14	TRANSPLANT	1496	n/a	n/a	0	0	0
3015.01	n/a	WORD	1507505	wordpools/wasnorm_wordpool_576.txt	LTP303	ltpFR2	16	14	PLUTO	1092	n/a	n/a	0	0	0
3017.712	n/a	WORD	1508856	wordpools/wasnorm_wordpool_576.txt	LTP303	ltpFR2	16	14	FLASHLIGHT	575	n/a	n/a	0	0	0
3020.282	n/a	WORD	1510141	wordpools/wasnorm_wordpool_576.txt	LTP303	ltpFR2	16	14	SWITCH	1422	n/a	n/a	0	0	0
3022.984	n/a	WORD	1511492	wordpools/wasnorm_wordpool_576.txt	LTP303	ltpFR2	16	14	TERMITE	1451	n/a	n/a	0	0	0
3025.452	n/a	WORD	1512726	wordpools/wasnorm_wordpool_576.txt	LTP303	ltpFR2	16	14	CARRIAGE	248	n/a	n/a	0	0	0
3028.154	n/a	WORD	1514077	wordpools/wasnorm_wordpool_576.txt	LTP303	ltpFR2	16	14	ZEBRA	1635	n/a	n/a	0	0	0
3030.738	n/a	WORD	1515369	wordpools/wasnorm_wordpool_576.txt	LTP303	ltpFR2	16	14	OFFICE	972	n/a	n/a	0	0	0
3033.442	n/a	WORD	1516721	wordpools/wasnorm_wordpool_576.txt	LTP303	ltpFR2	16	14	CANYON	235	n/a	n/a	0	0	0
3036.044	n/a	WORD	1518022	wordpools/wasnorm_wordpool_576.txt	LTP303	ltpFR2	16	14	MARKER	870	n/a	n/a	0	0	0
3038.73	n/a	WORD	1519365	wordpools/wasnorm_wordpool_576.txt	LTP303	ltpFR2	16	14	BASEMENT	94	n/a	n/a	0	0	0
3041.566	n/a	WORD	1520783	wordpools/wasnorm_wordpool_576.txt	LTP303	ltpFR2	16	14	RIVER	1194	n/a	n/a	0	0	0
3044.25	n/a	WORD	1522125	wordpools/wasnorm_wordpool_576.txt	LTP303	ltpFR2	16	14	HEART	697	n/a	n/a	0	0	0
3046.936	n/a	WORD	1523468	wordpools/wasnorm_wordpool_576.txt	LTP303	ltpFR2	16	14	POLICE	1098	n/a	n/a	0	0	0
3049.472	n/a	WORD	1524736	wordpools/wasnorm_wordpool_576.txt	LTP303	ltpFR2	16	14	COCOON	339	n/a	n/a	0	0	0
3052.224	n/a	WORD	1526112	wordpools/wasnorm_wordpool_576.txt	LTP303	ltpFR2	16	14	CANAL	226	n/a	n/a	0	0	0
3055.028	n/a	WORD	1527514	wordpools/wasnorm_wordpool_576.txt	LTP303	ltpFR2	16	14	WOMAN	1620	n/a	n/a	0	0	0
3057.496	n/a	WORD	1528748	wordpools/wasnorm_wordpool_576.txt	LTP303	ltpFR2	16	14	THIEF	1456	n/a	n/a	0	0	0
3059.948	n/a	WORD	1529974	wordpools/wasnorm_wordpool_576.txt	LTP303	ltpFR2	16	14	POCKET	1093	n/a	n/a	0	0	0
3061.566	n/a	START	1530783	n/a	LTP303	ltpFR2	16	n/a	n/a	n/a	21	n/a	n/a	n/a	n/a
3062.64	n/a	DISTRACTOR	1531320	n/a	LTP303	ltpFR2	16	14	n/a	n/a	n/a	n/a	0	0	0
3062.65	n/a	PROB	1531325	n/a	LTP303	ltpFR2	16	n/a	n/a	n/a	21	15	8	1	6
3064.8	n/a	PROB	1532400	n/a	LTP303	ltpFR2	16	n/a	n/a	n/a	21	12	8	1	3
3066.568	n/a	PROB	1533284	n/a	LTP303	ltpFR2	16	n/a	n/a	n/a	21	15	6	4	5
3068.318	n/a	PROB	1534159	n/a	LTP303	ltpFR2	16	n/a	n/a	n/a	21	12	5	3	4
3071.17	n/a	PROB	1535585	n/a	LTP303	ltpFR2	16	n/a	n/a	n/a	21	19	4	7	8
3072.924	n/a	PROB	1536462	n/a	LTP303	ltpFR2	16	n/a	n/a	n/a	21	16	2	7	7
3074.442	n/a	PROB	1537221	n/a	LTP303	ltpFR2	16	n/a	n/a	n/a	21	16	6	5	7
3077.812	n/a	PROB	1538906	n/a	LTP303	ltpFR2	16	n/a	n/a	n/a	21	25	9	8	6
3080.662	n/a	PROB	1540331	n/a	LTP303	ltpFR2	16	n/a	n/a	n/a	21	21	7	9	5
3082.414	n/a	PROB	1541207	n/a	LTP303	ltpFR2	16	n/a	n/a	n/a	21	13	6	4	3
3083.598	n/a	PROB	1541799	n/a	LTP303	ltpFR2	16	n/a	n/a	n/a	21	12	4	6	2
3084.992	n/a	STOP	1542496	n/a	LTP303	ltpFR2	16	n/a	n/a	n/a	21	n/a	n/a	n/a	n/a
3087.404	n/a	REC_START	1543702	n/a	LTP303	ltpFR2	16	14	n/a	n/a	n/a	n/a	0	0	0
3088.91	n/a	REC_WORD	1544455	wordpools/wasnorm_wordpool_576.txt	LTP303	ltpFR2	16	14	MAILBOX	857	n/a	n/a	0	0	0
3089.802	n/a	REC_WORD	1544901	wordpools/wasnorm_wordpool_576.txt	LTP303	ltpFR2	16	14	STOMACH	1384	n/a	n/a	0	0	0
3091.026	n/a	REC_WORD	1545513	wordpools/wasnorm_wordpool_576.txt	LTP303	ltpFR2	16	14	BOX	159	n/a	n/a	0	0	0
3092.274	n/a	REC_WORD	1546137	wordpools/wasnorm_wordpool_576.txt	LTP303	ltpFR2	16	14	BLOCKADE	137	n/a	n/a	0	0	0
3093.52	n/a	REC_WORD	1546760	wordpools/wasnorm_wordpool_576.txt	LTP303	ltpFR2	16	14	TRANSPLANT	1496	n/a	n/a	0	0	0
3094.77	n/a	REC_WORD	1547385	wordpools/wasnorm_wordpool_576.txt	LTP303	ltpFR2	16	14	PLUTO	1092	n/a	n/a	0	0	0
3120.836	n/a	REC_WORD	1560418	wordpools/wasnorm_wordpool_576.txt	LTP303	ltpFR2	16	14	FLASHLIGHT	575	n/a	n/a	0	0	0
3122.738	n/a	REC_WORD	1561369	wordpools/wasnorm_wordpool_576.txt	LTP303	ltpFR2	16	14	SWITCH	1422	n/a	n/a	0	0	0
3123.984	n/a	REC_WORD	1561992	wordpools/wasnorm_wordpool_576.txt	LTP303	ltpFR2	16	14	TERMITE	1451	n/a	n/a	0	0	0
3125.482	n/a	REC_WORD	1562741	wordpools/wasnorm_wordpool_576.txt	LTP303	ltpFR2	16	14	CAMEL	223	n/a	n/a	0	0	0
3126.486	n/a	REC_WORD	1563243	wordpools/wasnorm_wordpool_576.txt	LTP303	ltpFR2	16	14	OFFICE	972	n/a	n/a	0	0	0
3127.516	n/a	REC_WORD	1563758	wordpools/wasnorm_wordpool_576.txt	LTP303	ltpFR2	16	14	BASEMENT	94	n/a	n/a	0	0	0
3128.336	n/a	REC_WORD	1564168	wordpools/wasnorm_wordpool_576.txt	LTP303	ltpFR2	16	14	CANYON	235	n/a	n/a	0	0	0
3129.192	n/a	REC_WORD	1564596	wordpools/wasnorm_wordpool_576.txt	LTP303	ltpFR2	16	14	STREAM	1392	n/a	n/a	0	0	0
3177.84	n/a	WORD	1588920	wordpools/wasnorm_wordpool_576.txt	LTP303	ltpFR2	16	15	SUMMIT	1405	n/a	n/a	0	0	0
3180.408	n/a	WORD	1590204	wordpools/wasnorm_wordpool_576.txt	LTP303	ltpFR2	16	15	MONSTER	912	n/a	n/a	0	0	0
3183.136	n/a	WORD	1591568	wordpools/wasnorm_wordpool_576.txt	LTP303	ltpFR2	16	15	BUGGY	188	n/a	n/a	0	0	0
3185.706	n/a	WORD	1592853	wordpools/wasnorm_wordpool_576.txt	LTP303	ltpFR2	16	15	SPIDER	1351	n/a	n/a	0	0	0
3188.492	n/a	WORD	1594246	wordpools/wasnorm_wordpool_576.txt	LTP303	ltpFR2	16	15	LEG	809	n/a	n/a	0	0	0
3191.126	n/a	WORD	1595563	wordpools/wasnorm_wordpool_576.txt	LTP303	ltpFR2	16	15	COSTUME	383	n/a	n/a	0	0	0
3193.846	n/a	WORD	1596923	wordpools/wasnorm_wordpool_576.txt	LTP303	ltpFR2	16	15	ACTOR	5	n/a	n/a	0	0	0
3196.496	n/a	WORD	1598248	wordpools/wasnorm_wordpool_576.txt	LTP303	ltpFR2	16	15	FILM	565	n/a	n/a	0	0	0
3199.038	n/a	WORD	1599519	wordpools/wasnorm_wordpool_576.txt	LTP303	ltpFR2	16	15	DASHBOARD	441	n/a	n/a	0	0	0
3201.642	n/a	WORD	1600821	wordpools/wasnorm_wordpool_576.txt	LTP303	ltpFR2	16	15	GLOBE	641	n/a	n/a	0	0	0
3204.254	n/a	WORD	1602127	wordpools/wasnorm_wordpool_576.txt	LTP303	ltpFR2	16	15	POPCORN	1104	n/a	n/a	0	0	0
3206.846	n/a	WORD	1603423	wordpools/wasnorm_wordpool_576.txt	LTP303	ltpFR2	16	15	CEILING	265	n/a	n/a	0	0	0
3209.53	n/a	WORD	1604765	wordpools/wasnorm_wordpool_576.txt	LTP303	ltpFR2	16	15	RELISH	1183	n/a	n/a	0	0	0
3212.082	n/a	WORD	1606041	wordpools/wasnorm_wordpool_576.txt	LTP303	ltpFR2	16	15	SANDWICH	1232	n/a	n/a	0	0	0
3214.518	n/a	WORD	1607259	wordpools/wasnorm_wordpool_576.txt	LTP303	ltpFR2	16	15	SUITCASE	1403	n/a	n/a	0	0	0
3217.27	n/a	WORD	1608635	wordpools/wasnorm_wordpool_576.txt	LTP303	ltpFR2	16	15	GHETTO	633	n/a	n/a	0	0	0
3219.784	n/a	WORD	1609892	wordpools/wasnorm_wordpool_576.txt	LTP303	ltpFR2	16	15	GIRL	637	n/a	n/a	0	0	0
3222.302	n/a	WORD	1611151	wordpools/wasnorm_wordpool_576.txt	LTP303	ltpFR2	16	15	LADY	794	n/a	n/a	0	0	0
3224.722	n/a	WORD	1612361	wordpools/wasnorm_wordpool_576.txt	LTP303	ltpFR2	16	15	SHARK	1275	n/a	n/a	0	0	0
3227.258	n/a	WORD	1613629	wordpools/wasnorm_wordpool_576.txt	LTP303	ltpFR2	16	15	HELMET	702	n/a	n/a	0	0	0
3229.742	n/a	WORD	1614871	wordpools/wasnorm_wordpool_576.txt	LTP303	ltpFR2	16	15	PEDAL	1037	n/a	n/a	0	0	0
3232.344	n/a	WORD	1616172	wordpools/wasnorm_wordpool_576.txt	LTP303	ltpFR2	16	15	FARMER	553	n/a	n/a	0	0	0
3234.866	n/a	WORD	1617433	wordpools/wasnorm_wordpool_576.txt	LTP303	ltpFR2	16	15	SHOVEL	1295	n/a	n/a	0	0	0
3237.314	n/a	WORD	1618657	wordpools/wasnorm_wordpool_576.txt	LTP303	ltpFR2	16	15	SPOUSE	1358	n/a	n/a	0	0	0
3238.922	n/a	START	1619461	n/a	LTP303	ltpFR2	16	n/a	n/a	n/a	22	n/a	n/a	n/a	n/a
3239.808	n/a	DISTRACTOR	1619904	n/a	LTP303	ltpFR2	16	15	n/a	n/a	n/a	n/a	0	0	0
3239.818	n/a	PROB	1619909	n/a	LTP303	ltpFR2	16	n/a	n/a	n/a	22	18	5	8	5
3241.934	n/a	PROB	1620967	n/a	LTP303	ltpFR2	16	n/a	n/a	n/a	22	21	5	7	9
3243.57	n/a	PROB	1621785	n/a	LTP303	ltpFR2	16	n/a	n/a	n/a	22	19	6	9	4
3244.87	n/a	PROB	1622435	n/a	LTP303	ltpFR2	16	n/a	n/a	n/a	22	15	9	3	3
3246.422	n/a	PROB	1623211	n/a	LTP303	ltpFR2	16	n/a	n/a	n/a	22	9	2	5	2
3248.058	n/a	PROB	1624029	n/a	LTP303	ltpFR2	16	n/a	n/a	n/a	22	17	6	5	6
3249.458	n/a	PROB	1624729	n/a	LTP303	ltpFR2	16	n/a	n/a	n/a	22	17	5	9	3
3250.78	n/a	PROB	1625390	n/a	LTP303	ltpFR2	16	n/a	n/a	n/a	22	17	4	9	4
3252.342	n/a	PROB	1626171	n/a	LTP303	ltpFR2	16	n/a	n/a	n/a	22	17	8	5	4
3253.812	n/a	PROB	1626906	n/a	LTP303	ltpFR2	16	n/a	n/a	n/a	22	6	1	1	4
3254.896	n/a	PROB	1627448	n/a	LTP303	ltpFR2	16	n/a	n/a	n/a	22	11	2	5	4
3256.43	n/a	PROB	1628215	n/a	LTP303	ltpFR2	16	n/a	n/a	n/a	22	16	8	6	2
3258.234	n/a	PROB	1629117	n/a	LTP303	ltpFR2	16	n/a	n/a	n/a	22	1	3	2	6
3260.204	n/a	PROB	1630102	n/a	LTP303	ltpFR2	16	n/a	n/a	n/a	22	18	7	9	2
3262.34	n/a	STOP	1631170	n/a	LTP303	ltpFR2	16	n/a	n/a	n/a	22	n/a	n/a	n/a	n/a
3264.874	n/a	REC_START	1632437	n/a	LTP303	ltpFR2	16	15	n/a	n/a	n/a	n/a	0	0	0
3269.982	n/a	REC_WORD	1634991	wordpools/wasnorm_wordpool_576.txt	LTP303	ltpFR2	16	15	SUMMIT	1405	n/a	n/a	0	0	0
3271.548	n/a	REC_WORD	1635774	wordpools/wasnorm_wordpool_576.txt	LTP303	ltpFR2	16	15	MONSTER	912	n/a	n/a	0	0	0
3272.552	n/a	REC_WORD	1636276	wordpools/wasnorm_wordpool_576.txt	LTP303	ltpFR2	16	15	BUGGY	188	n/a	n/a	0	0	0
3273.396	n/a	REC_WORD	1636698	wordpools/wasnorm_wordpool_576.txt	LTP303	ltpFR2	16	15	SPIDER	1351	n/a	n/a	0	0	0
3275.97	n/a	REC_WORD	1637985	wordpools/wasnorm_wordpool_576.txt	LTP303	ltpFR2	16	15	LEG	809	n/a	n/a	0	0	0
3277.084	n/a	REC_WORD	1638542	wordpools/wasnorm_wordpool_576.txt	LTP303	ltpFR2	16	15	ACTOR	5	n/a	n/a	0	0	0
3278.1	n/a	REC_WORD	1639050	wordpools/wasnorm_wordpool_576.txt	LTP303	ltpFR2	16	15	FILM	565	n/a	n/a	0	0	0
3281.26	n/a	REC_WORD	1640630	wordpools/wasnorm_wordpool_576.txt	LTP303	ltpFR2	16	15	DASHBOARD	441	n/a	n/a	0	0	0
3282.402	n/a	REC_WORD	1641201	wordpools/wasnorm_wordpool_576.txt	LTP303	ltpFR2	16	15	GLOBE	641	n/a	n/a	0	0	0
3283.776	n/a	REC_WORD	1641888	wordpools/wasnorm_wordpool_576.txt	LTP303	ltpFR2	16	15	POPCORN	1104	n/a	n/a	0	0	0
3286.31	n/a	REC_WORD	1643155	wordpools/wasnorm_wordpool_576.txt	LTP303	ltpFR2	16	15	SANDWICH	1232	n/a	n/a	0	0	0
3287.384	n/a	REC_WORD	1643692	wordpools/wasnorm_wordpool_576.txt	LTP303	ltpFR2	16	15	SUITCASE	1403	n/a	n/a	0	0	0
3289.2	n/a	REC_WORD	1644600	wordpools/wasnorm_wordpool_576.txt	LTP303	ltpFR2	16	15	GHETTO	633	n/a	n/a	0	0	0
3290.372	n/a	REC_WORD	1645186	wordpools/wasnorm_wordpool_576.txt	LTP303	ltpFR2	16	15	GIRL	637	n/a	n/a	0	0	0
3291.342	n/a	REC_WORD	1645671	wordpools/wasnorm_wordpool_576.txt	LTP303	ltpFR2	16	15	WOMAN	1620	n/a	n/a	0	0	0
3293.784	n/a	REC_WORD	1646892	wordpools/wasnorm_wordpool_576.txt	LTP303	ltpFR2	16	15	SHARK	1275	n/a	n/a	0	0	0
3294.766	n/a	REC_WORD	1647383	wordpools/wasnorm_wordpool_576.txt	LTP303	ltpFR2	16	15	HELMET	702	n/a	n/a	0	0	0
3295.77	n/a	REC_WORD	1647885	wordpools/wasnorm_wordpool_576.txt	LTP303	ltpFR2	16	15	PEDAL	1037	n/a	n/a	0	0	0
3319.31	n/a	REC_WORD_VV	1659655	wordpools/wasnorm_wordpool_576.txt	LTP303	ltpFR2	16	15	<>	-1	n/a	n/a	0	0	0
3320.31	n/a	REC_WORD_VV	1660155	wordpools/wasnorm_wordpool_576.txt	LTP303	ltpFR2	16	15	<>	-1	n/a	n/a	0	0	0
3321.31	n/a	REC_WORD_VV	1660655	wordpools/wasnorm_wordpool_576.txt	LTP303	ltpFR2	16	15	<>	-1	n/a	n/a	0	0	0
3322.31	n/a	REC_WORD_VV	1661155	wordpools/wasnorm_wordpool_576.txt	LTP303	ltpFR2	16	15	<>	-1	n/a	n/a	0	0	0
3355.326	n/a	WORD	1677663	wordpools/wasnorm_wordpool_576.txt	LTP303	ltpFR2	16	16	DAISY	435	n/a	n/a	0	0	0
3357.902	n/a	WORD	1678951	wordpools/wasnorm_wordpool_576.txt	LTP303	ltpFR2	16	16	LEOPARD	812	n/a	n/a	0	0	0
3360.72	n/a	WORD	1680360	wordpools/wasnorm_wordpool_576.txt	LTP303	ltpFR2	16	16	CRIB	407	n/a	n/a	0	0	0
3363.27	n/a	WORD	1681635	wordpools/wasnorm_wordpool_576.txt	LTP303	ltpFR2	16	16	BELLY	119	n/a	n/a	0	0	0
3365.836	n/a	WORD	1682918	wordpools/wasnorm_wordpool_576.txt	LTP303	ltpFR2	16	16	SERVER	1272	n/a	n/a	0	0	0
3368.294	n/a	WORD	1684147	wordpools/wasnorm_wordpool_576.txt	LTP303	ltpFR2	16	16	FRUIT	610	n/a	n/a	0	0	0
3371.078	n/a	WORD	1685539	wordpools/wasnorm_wordpool_576.txt	LTP303	ltpFR2	16	16	HEDGE	699	n/a	n/a	0	0	0
3373.708	n/a	WORD	1686854	wordpools/wasnorm_wordpool_576.txt	LTP303	ltpFR2	16	16	RECORD	1176	n/a	n/a	0	0	0
3376.444	n/a	WORD	1688222	wordpools/wasnorm_wordpool_576.txt	LTP303	ltpFR2	16	16	HIKER	708	n/a	n/a	0	0	0
3379.246	n/a	WORD	1689623	wordpools/wasnorm_wordpool_576.txt	LTP303	ltpFR2	16	16	DINER	467	n/a	n/a	0	0	0
3381.798	n/a	WORD	1690899	wordpools/wasnorm_wordpool_576.txt	LTP303	ltpFR2	16	16	BLENDER	136	n/a	n/a	0	0	0
3384.366	n/a	WORD	1692183	wordpools/wasnorm_wordpool_576.txt	LTP303	ltpFR2	16	16	ASIA	46	n/a	n/a	0	0	0
3387.126	n/a	WORD	1693563	wordpools/wasnorm_wordpool_576.txt	LTP303	ltpFR2	16	16	CITRUS	313	n/a	n/a	0	0	0
3389.788	n/a	WORD	1694894	wordpools/wasnorm_wordpool_576.txt	LTP303	ltpFR2	16	16	WARDROBE	1587	n/a	n/a	0	0	0
3392.408	n/a	WORD	1696204	wordpools/wasnorm_wordpool_576.txt	LTP303	ltpFR2	16	16	KITCHEN	778	n/a	n/a	0	0	0
3395.016	n/a	WORD	1697508	wordpools/wasnorm_wordpool_576.txt	LTP303	ltpFR2	16	16	BANQUET	86	n/a	n/a	0	0	0
3397.644	n/a	WORD	1698822	wordpools/wasnorm_wordpool_576.txt	LTP303	ltpFR2	16	16	TURTLE	1522	n/a	n/a	0	0	0
3400.18	n/a	WORD	1700090	wordpools/wasnorm_wordpool_576.txt	LTP303	ltpFR2	16	16	TORTOISE	1486	n/a	n/a	0	0	0
3402.606	n/a	WORD	1701303	wordpools/wasnorm_wordpool_576.txt	LTP303	ltpFR2	16	16	PORTRAIT	1111	n/a	n/a	0	0	0
3405.282	n/a	WORD	1702641	wordpools/wasnorm_wordpool_576.txt	LTP303	ltpFR2	16	16	TEMPLE	1448	n/a	n/a	0	0	0
3407.986	n/a	WORD	1703993	wordpools/wasnorm_wordpool_576.txt	LTP303	ltpFR2	16	16	DRESS	495	n/a	n/a	0	0	0
3410.72	n/a	WORD	1705360	wordpools/wasnorm_wordpool_576.txt	LTP303	ltpFR2	16	16	PLATE	1086	n/a	n/a	0	0	0
3413.172	n/a	WORD	1706586	wordpools/wasnorm_wordpool_576.txt	LTP303	ltpFR2	16	16	TOURIST	1488	n/a	n/a	0	0	0
3415.8	n/a	WORD	1707900	wordpools/wasnorm_wordpool_576.txt	LTP303	ltpFR2	16	16	PICTURE	1061	n/a	n/a	0	0	0
3417.41	n/a	START	1708705	n/a	LTP303	ltpFR2	16	n/a	n/a	n/a	23	n/a	n/a	n/a	n/a
3418.52	n/a	DISTRACTOR	1709260	n/a	LTP303	ltpFR2	16	16	n/a	n/a	n/a	n/a	0	0	0
3418.526	n/a	PROB	1709263	n/a	LTP303	ltpFR2	16	n/a	n/a	n/a	23	8	3	2	3
3421.694	n/a	PROB	1710847	n/a	LTP303	ltpFR2	16	n/a	n/a	n/a	23	12	2	8	2
3423.13	n/a	PROB	1711565	n/a	LTP303	ltpFR2	16	n/a	n/a	n/a	23	12	2	4	6
3424.23	n/a	PROB	1712115	n/a	LTP303	ltpFR2	16	n/a	n/a	n/a	23	10	3	3	4
3426.332	n/a	PROB	1713166	n/a	LTP303	ltpFR2	16	n/a	n/a	n/a	23	16	4	6	6
3429.268	n/a	PROB	1714634	n/a	LTP303	ltpFR2	16	n/a	n/a	n/a	23	12	4	3	5
3430.686	n/a	PROB	1715343	n/a	LTP303	ltpFR2	16	n/a	n/a	n/a	23	12	3	6	2
3433.386	n/a	PROB	1716693	n/a	LTP303	ltpFR2	16	n/a	n/a	n/a	23	10	2	1	7
3435.59	n/a	PROB	1717795	n/a	LTP303	ltpFR2	16	n/a	n/a	n/a	23	12	3	1	8
3436.974	n/a	PROB	1718487	n/a	LTP303	ltpFR2	16	n/a	n/a	n/a	23	19	7	8	4
3438.808	n/a	PROB	1719404	n/a	LTP303	ltpFR2	16	n/a	n/a	n/a	23	13	7	2	4
3440.51	n/a	STOP	1720255	n/a	LTP303	ltpFR2	16	n/a	n/a	n/a	23	n/a	n/a	n/a	n/a
3443.296	n/a	REC_START	1721648	n/a	LTP303	ltpFR2	16	16	n/a	n/a	n/a	n/a	0	0	0
3444.772	n/a	REC_WORD	1722386	wordpools/wasnorm_wordpool_576.txt	LTP303	ltpFR2	16	16	TURTLE	1522	n/a	n/a	0	0	0
3446.65	n/a	REC_WORD	1723325	wordpools/wasnorm_wordpool_576.txt	LTP303	ltpFR2	16	16	TORTOISE	1486	n/a	n/a	0	0	0
3448.608	n/a	REC_WORD	1724304	wordpools/wasnorm_wordpool_576.txt	LTP303	ltpFR2	16	16	TEMPLE	1448	n/a	n/a	0	0	0
3450.336	n/a	REC_WORD	1725168	wordpools/wasnorm_wordpool_576.txt	LTP303	ltpFR2	16	16	TOURIST	1488	n/a	n/a	0	0	0
3460.716	n/a	REC_WORD	1730358	wordpools/wasnorm_wordpool_576.txt	LTP303	ltpFR2	16	16	DAISY	435	n/a	n/a	0	0	0
3461.926	n/a	REC_WORD	1730963	wordpools/wasnorm_wordpool_576.txt	LTP303	ltpFR2	16	16	LEOPARD	812	n/a	n/a	0	0	0
3463.16	n/a	REC_WORD	1731580	wordpools/wasnorm_wordpool_576.txt	LTP303	ltpFR2	16	16	CRIB	407	n/a	n/a	0	0	0
3464.426	n/a	REC_WORD	1732213	wordpools/wasnorm_wordpool_576.txt	LTP303	ltpFR2	16	16	BELLY	119	n/a	n/a	0	0	0
3467.178	n/a	REC_WORD	1733589	wordpools/wasnorm_wordpool_576.txt	LTP303	ltpFR2	16	16	SERVER	1272	n/a	n/a	0	0	0
3474.852	n/a	REC_WORD	1737426	wordpools/wasnorm_wordpool_576.txt	LTP303	ltpFR2	16	16	FRUIT	610	n/a	n/a	0	0	0
3478.604	n/a	REC_WORD	1739302	wordpools/wasnorm_wordpool_576.txt	LTP303	ltpFR2	16	16	RECORD	1176	n/a	n/a	0	0	0
3481.006	n/a	REC_WORD	1740503	wordpools/wasnorm_wordpool_576.txt	LTP303	ltpFR2	16	16	HIKER	708	n/a	n/a	0	0	0
3483.362	n/a	REC_WORD	1741681	wordpools/wasnorm_wordpool_576.txt	LTP303	ltpFR2	16	16	BLENDER	136	n/a	n/a	0	0	0
3484.644	n/a	REC_WORD	1742322	wordpools/wasnorm_wordpool_576.txt	LTP303	ltpFR2	16	16	ASIA	46	n/a	n/a	0	0	0
3485.612	n/a	REC_WORD	1742806	wordpools/wasnorm_wordpool_576.txt	LTP303	ltpFR2	16	16	CITRUS	313	n/a	n/a	0	0	0
3486.966	n/a	REC_WORD	1743483	wordpools/wasnorm_wordpool_576.txt	LTP303	ltpFR2	16	16	OUTFIT	988	n/a	n/a	0	0	0
3488.018	n/a	REC_WORD	1744009	wordpools/wasnorm_wordpool_576.txt	LTP303	ltpFR2	16	16	KITCHEN	778	n/a	n/a	0	0	0
3489.11	n/a	REC_WORD	1744555	wordpools/wasnorm_wordpool_576.txt	LTP303	ltpFR2	16	16	BANQUET	86	n/a	n/a	0	0	0
3519.84	n/a	REST_REWET	1759920	n/a	LTP303	ltpFR2	16	16	n/a	n/a	n/a	n/a	0	0	0
3718.192	n/a	WORD	1859096	wordpools/wasnorm_wordpool_576.txt	LTP303	ltpFR2	16	17	LILY	821	n/a	n/a	0	0	0
3720.858	n/a	WORD	1860429	wordpools/wasnorm_wordpool_576.txt	LTP303	ltpFR2	16	17	PUPIL	1143	n/a	n/a	0	0	0
3723.398	n/a	WORD	1861699	wordpools/wasnorm_wordpool_576.txt	LTP303	ltpFR2	16	17	STAMP	1370	n/a	n/a	0	0	0
3726.014	n/a	WORD	1863007	wordpools/wasnorm_wordpool_576.txt	LTP303	ltpFR2	16	17	LAMP	798	n/a	n/a	0	0	0
3728.798	n/a	WORD	1864399	wordpools/wasnorm_wordpool_576.txt	LTP303	ltpFR2	16	17	FOREHEAD	592	n/a	n/a	0	0	0
3731.406	n/a	WORD	1865703	wordpools/wasnorm_wordpool_576.txt	LTP303	ltpFR2	16	17	PLASTER	1085	n/a	n/a	0	0	0
3733.954	n/a	WORD	1866977	wordpools/wasnorm_wordpool_576.txt	LTP303	ltpFR2	16	17	PALACE	1006	n/a	n/a	0	0	0
3736.64	n/a	WORD	1868320	wordpools/wasnorm_wordpool_576.txt	LTP303	ltpFR2	16	17	RECEIPT	1173	n/a	n/a	0	0	0
3739.276	n/a	WORD	1869638	wordpools/wasnorm_wordpool_576.txt	LTP303	ltpFR2	16	17	CONTRACT	368	n/a	n/a	0	0	0
3741.81	n/a	WORD	1870905	wordpools/wasnorm_wordpool_576.txt	LTP303	ltpFR2	16	17	CATCHER	258	n/a	n/a	0	0	0
3744.378	n/a	WORD	1872189	wordpools/wasnorm_wordpool_576.txt	LTP303	ltpFR2	16	17	DRESSER	496	n/a	n/a	0	0	0
3746.998	n/a	WORD	1873499	wordpools/wasnorm_wordpool_576.txt	LTP303	ltpFR2	16	17	PERMIT	1051	n/a	n/a	0	0	0
3749.632	n/a	WORD	1874816	wordpools/wasnorm_wordpool_576.txt	LTP303	ltpFR2	16	17	ITEM	746	n/a	n/a	0	0	0
3752.268	n/a	WORD	1876134	wordpools/wasnorm_wordpool_576.txt	LTP303	ltpFR2	16	17	KEEPER	769	n/a	n/a	0	0	0
3755.038	n/a	WORD	1877519	wordpools/wasnorm_wordpool_576.txt	LTP303	ltpFR2	16	17	CLIMBER	323	n/a	n/a	0	0	0
3757.64	n/a	WORD	1878820	wordpools/wasnorm_wordpool_576.txt	LTP303	ltpFR2	16	17	COWBOY	395	n/a	n/a	0	0	0
3760.342	n/a	WORD	1880171	wordpools/wasnorm_wordpool_576.txt	LTP303	ltpFR2	16	17	ROBOT	1200	n/a	n/a	0	0	0
3763.028	n/a	WORD	1881514	wordpools/wasnorm_wordpool_576.txt	LTP303	ltpFR2	16	17	QUEEN	1149	n/a	n/a	0	0	0
3765.514	n/a	WORD	1882757	wordpools/wasnorm_wordpool_576.txt	LTP303	ltpFR2	16	17	CYCLONE	431	n/a	n/a	0	0	0
3768.334	n/a	WORD	1884167	wordpools/wasnorm_wordpool_576.txt	LTP303	ltpFR2	16	17	TWISTER	1530	n/a	n/a	0	0	0
3770.884	n/a	WORD	1885442	wordpools/wasnorm_wordpool_576.txt	LTP303	ltpFR2	16	17	TYPIST	1532	n/a	n/a	0	0	0
3773.338	n/a	WORD	1886669	wordpools/wasnorm_wordpool_576.txt	LTP303	ltpFR2	16	17	WASHER	1592	n/a	n/a	0	0	0
3775.974	n/a	WORD	1887987	wordpools/wasnorm_wordpool_576.txt	LTP303	ltpFR2	16	17	BACON	67	n/a	n/a	0	0	0
3778.442	n/a	WORD	1889221	wordpools/wasnorm_wordpool_576.txt	LTP303	ltpFR2	16	17	SAUSAGE	1238	n/a	n/a	0	0	0
3780.06	n/a	START	1890030	n/a	LTP303	ltpFR2	16	n/a	n/a	n/a	24	n/a	n/a	n/a	n/a
3781.244	n/a	DISTRACTOR	1890622	n/a	LTP303	ltpFR2	16	17	n/a	n/a	n/a	n/a	0	0	0
3781.26	n/a	PROB	1890630	n/a	LTP303	ltpFR2	16	n/a	n/a	n/a	24	19	5	5	9
3783.66	n/a	PROB	1891830	n/a	LTP303	ltpFR2	16	n/a	n/a	n/a	24	16	1	8	7
3784.844	n/a	PROB	1892422	n/a	LTP303	ltpFR2	16	n/a	n/a	n/a	24	18	6	4	8
3786.064	n/a	PROB	1893032	n/a	LTP303	ltpFR2	16	n/a	n/a	n/a	24	14	4	3	7
3787.23	n/a	PROB	1893615	n/a	LTP303	ltpFR2	16	n/a	n/a	n/a	24	19	4	9	6
3788.78	n/a	PROB	1894390	n/a	LTP303	ltpFR2	16	n/a	n/a	n/a	24	23	8	7	8
3790.448	n/a	PROB	1895224	n/a	LTP303	ltpFR2	16	n/a	n/a	n/a	24	12	1	7	4
