onset	duration	trial_type	sample	stim_file	subject	experiment	session	trial	task	item_name	item_num	recog_conf	resp	color_b	color_g	color_r	case	font
246.04	n/a	SESS_START	123020	n/a	LTP085	ltpFR	4	n/a	n/a	n/a	n/a	n/a	n/a	n/a	n/a	n/a	n/a	n/a
306.88	n/a	WORD	153440	wordpools/wasnorm_wordpool.txt	LTP085	ltpFR	4	1	1	MUFFIN	929	n/a	0	1	0.412841796875	0.57763671875	upper	../fonts/zerothre.ttf
310.994	n/a	WORD	155497	wordpools/wasnorm_wordpool.txt	LTP085	ltpFR	4	1	1	BAKER	71	n/a	0	1	0.412841796875	0.57763671875	upper	../fonts/zerothre.ttf
314.936	n/a	WORD	157468	wordpools/wasnorm_wordpool.txt	LTP085	ltpFR	4	1	0	SHARK	1275	n/a	1	0	0.5869140625	0.422607421875	lower	../fonts/amplitud.ttf
319.078	n/a	WORD	159539	wordpools/wasnorm_wordpool.txt	LTP085	ltpFR	4	1	0	EARTH	515	n/a	1	0	0.5869140625	0.422607421875	lower	../fonts/amplitud.ttf
323.186	n/a	WORD	161593	wordpools/wasnorm_wordpool.txt	LTP085	ltpFR	4	1	0	PIPE	1073	n/a	1	0	0.5869140625	0.422607421875	lower	../fonts/amplitud.ttf
327.028	n/a	WORD	163514	wordpools/wasnorm_wordpool.txt	LTP085	ltpFR	4	1	0	CLOWN	330	n/a	1	0	0.5869140625	0.422607421875	lower	../fonts/amplitud.ttf
330.928	n/a	WORD	165464	wordpools/wasnorm_wordpool.txt	LTP085	ltpFR	4	1	1	SCREWDRIVER	1255	n/a	0	1	0.412841796875	0.57763671875	upper	../fonts/zerothre.ttf
334.754	n/a	WORD	167377	wordpools/wasnorm_wordpool.txt	LTP085	ltpFR	4	1	1	TEMPLE	1448	n/a	0	1	0.412841796875	0.57763671875	upper	../fonts/zerothre.ttf
338.87	n/a	WORD	169435	wordpools/wasnorm_wordpool.txt	LTP085	ltpFR	4	1	1	NICOTINE	951	n/a	0	1	0.412841796875	0.57763671875	upper	../fonts/zerothre.ttf
342.978	n/a	WORD	171489	wordpools/wasnorm_wordpool.txt	LTP085	ltpFR	4	1	0	RACK	1154	n/a	1	0	0.5869140625	0.422607421875	lower	../fonts/amplitud.ttf
347.028	n/a	WORD	173514	wordpools/wasnorm_wordpool.txt	LTP085	ltpFR	4	1	0	BALL	73	n/a	1	0	0.5869140625	0.422607421875	lower	../fonts/amplitud.ttf
350.87	n/a	WORD	175435	wordpools/wasnorm_wordpool.txt	LTP085	ltpFR	4	1	0	COMEDIAN	352	n/a	1	0	0.5869140625	0.422607421875	lower	../fonts/amplitud.ttf
354.918	n/a	WORD	177459	wordpools/wasnorm_wordpool.txt	LTP085	ltpFR	4	1	0	TWEEZERS	1526	n/a	0	0	0.5869140625	0.422607421875	lower	../fonts/amplitud.ttf
359.06	n/a	WORD	179530	wordpools/wasnorm_wordpool.txt	LTP085	ltpFR	4	1	1	HUT	729	n/a	0	1	0.412841796875	0.57763671875	upper	../fonts/zerothre.ttf
363.052	n/a	WORD	181526	wordpools/wasnorm_wordpool.txt	LTP085	ltpFR	4	1	1	TRIBE	1505	n/a	0	1	0.412841796875	0.57763671875	upper	../fonts/zerothre.ttf
366.96	n/a	WORD	183480	wordpools/wasnorm_wordpool.txt	LTP085	ltpFR	4	1	1	CROW	414	n/a	1	1	0.412841796875	0.57763671875	upper	../fonts/zerothre.ttf
372.694	n/a	REC_START	186347	n/a	LTP085	ltpFR	4	1	n/a	n/a	n/a	n/a	n/a	n/a	n/a	n/a	n/a	n/a
373.796	n/a	REC_WORD	186898	wordpools/wasnorm_wordpool.txt	LTP085	ltpFR	4	1	1	HUT	729	n/a	0	n/a	n/a	n/a	n/a	n/a
374.804	n/a	REC_WORD	187402	wordpools/wasnorm_wordpool.txt	LTP085	ltpFR	4	1	1	TRIBE	1505	n/a	0	n/a	n/a	n/a	n/a	n/a
375.808	n/a	REC_WORD	187904	wordpools/wasnorm_wordpool.txt	LTP085	ltpFR	4	1	1	CROW	414	n/a	1	n/a	n/a	n/a	n/a	n/a
379.41	n/a	REC_WORD	189705	wordpools/wasnorm_wordpool.txt	LTP085	ltpFR	4	1	1	BAKER	71	n/a	0	n/a	n/a	n/a	n/a	n/a
381.41	n/a	REC_WORD	190705	wordpools/wasnorm_wordpool.txt	LTP085	ltpFR	4	1	0	COMEDIAN	352	n/a	1	n/a	n/a	n/a	n/a	n/a
383.954	n/a	REC_WORD	191977	wordpools/wasnorm_wordpool.txt	LTP085	ltpFR	4	1	0	SHARK	1275	n/a	1	n/a	n/a	n/a	n/a	n/a
386.958	n/a	REC_WORD	193479	wordpools/wasnorm_wordpool.txt	LTP085	ltpFR	4	1	0	EARTH	515	n/a	1	n/a	n/a	n/a	n/a	n/a
390.25	n/a	REC_WORD	195125	wordpools/wasnorm_wordpool.txt	LTP085	ltpFR	4	1	0	TWEEZERS	1526	n/a	0	n/a	n/a	n/a	n/a	n/a
394.476	n/a	REC_WORD	197238	wordpools/wasnorm_wordpool.txt	LTP085	ltpFR	4	1	0	PIPE	1073	n/a	1	n/a	n/a	n/a	n/a	n/a
412.052	n/a	REC_WORD	206026	wordpools/wasnorm_wordpool.txt	LTP085	ltpFR	4	1	0	CLOWN	330	n/a	1	n/a	n/a	n/a	n/a	n/a
420.902	n/a	REC_WORD	210451	wordpools/wasnorm_wordpool.txt	LTP085	ltpFR	4	1	1	MUFFIN	929	n/a	0	n/a	n/a	n/a	n/a	n/a
435.888	n/a	REC_WORD	217944	wordpools/wasnorm_wordpool.txt	LTP085	ltpFR	4	1	0	BALL	73	n/a	1	n/a	n/a	n/a	n/a	n/a
459.316	n/a	WORD	229658	wordpools/wasnorm_wordpool.txt	LTP085	ltpFR	4	2	0	WIFE	1609	n/a	1	0	0.5869140625	0.422607421875	lower	../fonts/amplitud.ttf
463.316	n/a	WORD	231658	wordpools/wasnorm_wordpool.txt	LTP085	ltpFR	4	2	0	SERPENT	1270	n/a	0	0	0.5869140625	0.422607421875	lower	../fonts/amplitud.ttf
467.5	n/a	WORD	233750	wordpools/wasnorm_wordpool.txt	LTP085	ltpFR	4	2	0	JOKER	759	n/a	1	0	0.5869140625	0.422607421875	lower	../fonts/amplitud.ttf
471.374	n/a	WORD	235687	wordpools/wasnorm_wordpool.txt	LTP085	ltpFR	4	2	0	VENUS	1557	n/a	1	0	0.5869140625	0.422607421875	lower	../fonts/amplitud.ttf
475.274	n/a	WORD	237637	wordpools/wasnorm_wordpool.txt	LTP085	ltpFR	4	2	1	BOX	159	n/a	0	1	0.412841796875	0.57763671875	upper	../fonts/zerothre.ttf
479.456	n/a	WORD	239728	wordpools/wasnorm_wordpool.txt	LTP085	ltpFR	4	2	1	PACKAGE	997	n/a	0	1	0.412841796875	0.57763671875	upper	../fonts/zerothre.ttf
483.382	n/a	WORD	241691	wordpools/wasnorm_wordpool.txt	LTP085	ltpFR	4	2	0	EGG	518	n/a	0	0	0.5869140625	0.422607421875	lower	../fonts/amplitud.ttf
487.274	n/a	WORD	243637	wordpools/wasnorm_wordpool.txt	LTP085	ltpFR	4	2	0	ROOSTER	1209	n/a	1	0	0.5869140625	0.422607421875	lower	../fonts/amplitud.ttf
491.148	n/a	WORD	245574	wordpools/wasnorm_wordpool.txt	LTP085	ltpFR	4	2	0	CIRCUS	311	n/a	1	0	0.5869140625	0.422607421875	lower	../fonts/amplitud.ttf
495.156	n/a	WORD	247578	wordpools/wasnorm_wordpool.txt	LTP085	ltpFR	4	2	0	FUR	615	n/a	1	0	0.5869140625	0.422607421875	lower	../fonts/amplitud.ttf
499.156	n/a	WORD	249578	wordpools/wasnorm_wordpool.txt	LTP085	ltpFR	4	2	1	SUPPER	1411	n/a	0	1	0.412841796875	0.57763671875	upper	../fonts/zerothre.ttf
502.99	n/a	WORD	251495	wordpools/wasnorm_wordpool.txt	LTP085	ltpFR	4	2	1	PASTRY	1022	n/a	0	1	0.412841796875	0.57763671875	upper	../fonts/zerothre.ttf
507.148	n/a	WORD	253574	wordpools/wasnorm_wordpool.txt	LTP085	ltpFR	4	2	1	DILL	465	n/a	0	1	0.412841796875	0.57763671875	upper	../fonts/zerothre.ttf
511.222	n/a	WORD	255611	wordpools/wasnorm_wordpool.txt	LTP085	ltpFR	4	2	1	MINK	897	n/a	0	1	0.412841796875	0.57763671875	upper	../fonts/zerothre.ttf
515.148	n/a	WORD	257574	wordpools/wasnorm_wordpool.txt	LTP085	ltpFR	4	2	1	CORAL	378	n/a	0	1	0.412841796875	0.57763671875	upper	../fonts/zerothre.ttf
518.998	n/a	WORD	259499	wordpools/wasnorm_wordpool.txt	LTP085	ltpFR	4	2	1	RICE	1190	n/a	0	1	0.412841796875	0.57763671875	upper	../fonts/zerothre.ttf
524.624	n/a	REC_START	262312	n/a	LTP085	ltpFR	4	2	n/a	n/a	n/a	n/a	n/a	n/a	n/a	n/a	n/a	n/a
526.13	n/a	REC_WORD	263065	wordpools/wasnorm_wordpool.txt	LTP085	ltpFR	4	2	1	CORAL	378	n/a	0	n/a	n/a	n/a	n/a	n/a
527.172	n/a	REC_WORD	263586	wordpools/wasnorm_wordpool.txt	LTP085	ltpFR	4	2	1	RICE	1190	n/a	0	n/a	n/a	n/a	n/a	n/a
528.594	n/a	REC_WORD	264297	wordpools/wasnorm_wordpool.txt	LTP085	ltpFR	4	2	1	DILL	465	n/a	0	n/a	n/a	n/a	n/a	n/a
530.21	n/a	REC_WORD	265105	wordpools/wasnorm_wordpool.txt	LTP085	ltpFR	4	2	1	PASTRY	1022	n/a	0	n/a	n/a	n/a	n/a	n/a
533.592	n/a	REC_WORD	266796	wordpools/wasnorm_wordpool.txt	LTP085	ltpFR	4	2	1	PACKAGE	997	n/a	0	n/a	n/a	n/a	n/a	n/a
535.304	n/a	REC_WORD	267652	wordpools/wasnorm_wordpool.txt	LTP085	ltpFR	4	2	1	BOX	159	n/a	0	n/a	n/a	n/a	n/a	n/a
536.94	n/a	REC_WORD	268470	wordpools/wasnorm_wordpool.txt	LTP085	ltpFR	4	2	0	CIRCUS	311	n/a	1	n/a	n/a	n/a	n/a	n/a
550.46	n/a	REC_WORD	275230	wordpools/wasnorm_wordpool.txt	LTP085	ltpFR	4	2	1	MINK	897	n/a	0	n/a	n/a	n/a	n/a	n/a
551.962	n/a	REC_WORD	275981	wordpools/wasnorm_wordpool.txt	LTP085	ltpFR	4	2	0	FUR	615	n/a	1	n/a	n/a	n/a	n/a	n/a
565.248	n/a	REC_WORD	282624	wordpools/wasnorm_wordpool.txt	LTP085	ltpFR	4	2	0	SERPENT	1270	n/a	0	n/a	n/a	n/a	n/a	n/a
605.438	n/a	WORD	302719	wordpools/wasnorm_wordpool.txt	LTP085	ltpFR	4	3	1	TOOTHPASTE	1483	n/a	0	1	0.412841796875	0.57763671875	upper	../fonts/zerothre.ttf
609.546	n/a	WORD	304773	wordpools/wasnorm_wordpool.txt	LTP085	ltpFR	4	3	1	FINGER	567	n/a	1	1	0.412841796875	0.57763671875	upper	../fonts/zerothre.ttf
613.396	n/a	WORD	306698	wordpools/wasnorm_wordpool.txt	LTP085	ltpFR	4	3	1	WRIST	1626	n/a	1	1	0.412841796875	0.57763671875	upper	../fonts/zerothre.ttf
617.212	n/a	WORD	308606	wordpools/wasnorm_wordpool.txt	LTP085	ltpFR	4	3	1	MILITARY	894	n/a	1	1	0.412841796875	0.57763671875	upper	../fonts/zerothre.ttf
621.22	n/a	WORD	310610	wordpools/wasnorm_wordpool.txt	LTP085	ltpFR	4	3	0	SUSPECT	1415	n/a	1	0	0.5869140625	0.422607421875	lower	../fonts/amplitud.ttf
625.028	n/a	WORD	312514	wordpools/wasnorm_wordpool.txt	LTP085	ltpFR	4	3	0	COOLER	375	n/a	1	0	0.5869140625	0.422607421875	lower	../fonts/amplitud.ttf
629.228	n/a	WORD	314614	wordpools/wasnorm_wordpool.txt	LTP085	ltpFR	4	3	0	CUP	424	n/a	0	0	0.5869140625	0.422607421875	lower	../fonts/amplitud.ttf
633.186	n/a	WORD	316593	wordpools/wasnorm_wordpool.txt	LTP085	ltpFR	4	3	0	FOX	598	n/a	0	0	0.5869140625	0.422607421875	lower	../fonts/amplitud.ttf
637.244	n/a	WORD	318622	wordpools/wasnorm_wordpool.txt	LTP085	ltpFR	4	3	0	MAGICIAN	854	n/a	1	0	0.5869140625	0.422607421875	lower	../fonts/amplitud.ttf
641.436	n/a	WORD	320718	wordpools/wasnorm_wordpool.txt	LTP085	ltpFR	4	3	1	TEA	1439	n/a	0	1	0.412841796875	0.57763671875	upper	../fonts/zerothre.ttf
645.404	n/a	WORD	322702	wordpools/wasnorm_wordpool.txt	LTP085	ltpFR	4	3	1	CINNAMON	310	n/a	0	1	0.412841796875	0.57763671875	upper	../fonts/zerothre.ttf
649.528	n/a	WORD	324764	wordpools/wasnorm_wordpool.txt	LTP085	ltpFR	4	3	1	CHAMBER	277	n/a	0	1	0.412841796875	0.57763671875	upper	../fonts/zerothre.ttf
653.352	n/a	WORD	326676	wordpools/wasnorm_wordpool.txt	LTP085	ltpFR	4	3	1	BARRACUDA	90	n/a	1	1	0.412841796875	0.57763671875	upper	../fonts/zerothre.ttf
657.336	n/a	WORD	328668	wordpools/wasnorm_wordpool.txt	LTP085	ltpFR	4	3	0	SQUID	1361	n/a	1	0	0.5869140625	0.422607421875	lower	../fonts/amplitud.ttf
661.236	n/a	WORD	330618	wordpools/wasnorm_wordpool.txt	LTP085	ltpFR	4	3	0	ARMY	39	n/a	1	0	0.5869140625	0.422607421875	lower	../fonts/amplitud.ttf
665.412	n/a	WORD	332706	wordpools/wasnorm_wordpool.txt	LTP085	ltpFR	4	3	0	LOAF	835	n/a	0	0	0.5869140625	0.422607421875	lower	../fonts/amplitud.ttf
671.354	n/a	REC_START	335677	n/a	LTP085	ltpFR	4	3	n/a	n/a	n/a	n/a	n/a	n/a	n/a	n/a	n/a	n/a
673.07	n/a	REC_WORD	336535	wordpools/wasnorm_wordpool.txt	LTP085	ltpFR	4	3	0	LOAF	835	n/a	0	n/a	n/a	n/a	n/a	n/a
674.108	n/a	REC_WORD	337054	wordpools/wasnorm_wordpool.txt	LTP085	ltpFR	4	3	0	ARMY	39	n/a	1	n/a	n/a	n/a	n/a	n/a
674.98	n/a	REC_WORD	337490	wordpools/wasnorm_wordpool.txt	LTP085	ltpFR	4	3	1	MILITARY	894	n/a	1	n/a	n/a	n/a	n/a	n/a
676.78	n/a	REC_WORD	338390	wordpools/wasnorm_wordpool.txt	LTP085	ltpFR	4	3	1	BARRACUDA	90	n/a	1	n/a	n/a	n/a	n/a	n/a
678.252	n/a	REC_WORD	339126	wordpools/wasnorm_wordpool.txt	LTP085	ltpFR	4	3	1	FINGER	567	n/a	1	n/a	n/a	n/a	n/a	n/a
679.61	n/a	REC_WORD	339805	wordpools/wasnorm_wordpool.txt	LTP085	ltpFR	4	3	1	WRIST	1626	n/a	1	n/a	n/a	n/a	n/a	n/a
689.838	n/a	REC_WORD	344919	wordpools/wasnorm_wordpool.txt	LTP085	ltpFR	4	3	0	MAGICIAN	854	n/a	1	n/a	n/a	n/a	n/a	n/a
693.714	n/a	REC_WORD	346857	wordpools/wasnorm_wordpool.txt	LTP085	ltpFR	4	3	0	FOX	598	n/a	0	n/a	n/a	n/a	n/a	n/a
754.316	n/a	WORD	377158	wordpools/wasnorm_wordpool.txt	LTP085	ltpFR	4	4	1	CAULIFLOWER	262	n/a	0	1	0.412841796875	0.57763671875	upper	../fonts/zerothre.ttf
758.242	n/a	WORD	379121	wordpools/wasnorm_wordpool.txt	LTP085	ltpFR	4	4	1	KIWI	781	n/a	0	1	0.412841796875	0.57763671875	upper	../fonts/zerothre.ttf
762.316	n/a	WORD	381158	wordpools/wasnorm_wordpool.txt	LTP085	ltpFR	4	4	1	MALL	860	n/a	0	1	0.412841796875	0.57763671875	upper	../fonts/zerothre.ttf
766.25	n/a	WORD	383125	wordpools/wasnorm_wordpool.txt	LTP085	ltpFR	4	4	1	PARROT	1015	n/a	1	1	0.412841796875	0.57763671875	upper	../fonts/zerothre.ttf
770.316	n/a	WORD	385158	wordpools/wasnorm_wordpool.txt	LTP085	ltpFR	4	4	1	VAN	1548	n/a	0	1	0.412841796875	0.57763671875	upper	../fonts/zerothre.ttf
774.134	n/a	WORD	387067	wordpools/wasnorm_wordpool.txt	LTP085	ltpFR	4	4	1	CHAUFFEUR	283	n/a	1	1	0.412841796875	0.57763671875	upper	../fonts/zerothre.ttf
778.082	n/a	WORD	389041	wordpools/wasnorm_wordpool.txt	LTP085	ltpFR	4	4	1	SUIT	1402	n/a	0	1	0.412841796875	0.57763671875	upper	../fonts/zerothre.ttf
782.0	n/a	WORD	391000	wordpools/wasnorm_wordpool.txt	LTP085	ltpFR	4	4	1	NOTE	958	n/a	0	1	0.412841796875	0.57763671875	upper	../fonts/zerothre.ttf
785.818	n/a	WORD	392909	wordpools/wasnorm_wordpool.txt	LTP085	ltpFR	4	4	1	PROFESSOR	1131	n/a	1	1	0.412841796875	0.57763671875	upper	../fonts/zerothre.ttf
789.75	n/a	WORD	394875	wordpools/wasnorm_wordpool.txt	LTP085	ltpFR	4	4	1	STREAM	1392	n/a	0	1	0.412841796875	0.57763671875	upper	../fonts/zerothre.ttf
793.682	n/a	WORD	396841	wordpools/wasnorm_wordpool.txt	LTP085	ltpFR	4	4	1	DAUGHTER	442	n/a	1	1	0.412841796875	0.57763671875	upper	../fonts/zerothre.ttf
797.532	n/a	WORD	398766	wordpools/wasnorm_wordpool.txt	LTP085	ltpFR	4	4	1	MAN	862	n/a	1	1	0.412841796875	0.57763671875	upper	../fonts/zerothre.ttf
801.49	n/a	WORD	400745	wordpools/wasnorm_wordpool.txt	LTP085	ltpFR	4	4	1	QUAIL	1147	n/a	1	1	0.412841796875	0.57763671875	upper	../fonts/zerothre.ttf
805.482	n/a	WORD	402741	wordpools/wasnorm_wordpool.txt	LTP085	ltpFR	4	4	1	SKI	1316	n/a	0	1	0.412841796875	0.57763671875	upper	../fonts/zerothre.ttf
809.64	n/a	WORD	404820	wordpools/wasnorm_wordpool.txt	LTP085	ltpFR	4	4	1	TOASTER	1472	n/a	0	1	0.412841796875	0.57763671875	upper	../fonts/zerothre.ttf
813.666	n/a	WORD	406833	wordpools/wasnorm_wordpool.txt	LTP085	ltpFR	4	4	1	MARGARINE	868	n/a	0	1	0.412841796875	0.57763671875	upper	../fonts/zerothre.ttf
819.482	n/a	REC_START	409741	n/a	LTP085	ltpFR	4	4	n/a	n/a	n/a	n/a	n/a	n/a	n/a	n/a	n/a	n/a
820.774	n/a	REC_WORD	410387	wordpools/wasnorm_wordpool.txt	LTP085	ltpFR	4	4	1	KIWI	781	n/a	0	n/a	n/a	n/a	n/a	n/a
821.602	n/a	REC_WORD	410801	wordpools/wasnorm_wordpool.txt	LTP085	ltpFR	4	4	1	CAULIFLOWER	262	n/a	0	n/a	n/a	n/a	n/a	n/a
823.014	n/a	REC_WORD	411507	wordpools/wasnorm_wordpool.txt	LTP085	ltpFR	4	4	1	TOASTER	1472	n/a	0	n/a	n/a	n/a	n/a	n/a
824.946	n/a	REC_WORD	412473	wordpools/wasnorm_wordpool.txt	LTP085	ltpFR	4	4	1	MAN	862	n/a	1	n/a	n/a	n/a	n/a	n/a
826.262	n/a	REC_WORD	413131	wordpools/wasnorm_wordpool.txt	LTP085	ltpFR	4	4	1	DAUGHTER	442	n/a	1	n/a	n/a	n/a	n/a	n/a
846.288	n/a	REC_WORD	423144	wordpools/wasnorm_wordpool.txt	LTP085	ltpFR	4	4	1	PARROT	1015	n/a	1	n/a	n/a	n/a	n/a	n/a
912.546	n/a	WORD	456273	wordpools/wasnorm_wordpool.txt	LTP085	ltpFR	4	5	-1	APRON	35	n/a	-1	1	1.0	1.0	upper	../fonts/Verdana.ttf
916.454	n/a	WORD	458227	wordpools/wasnorm_wordpool.txt	LTP085	ltpFR	4	5	-1	FLOWER	584	n/a	-1	1	1.0	1.0	upper	../fonts/Verdana.ttf
920.53	n/a	WORD	460265	wordpools/wasnorm_wordpool.txt	LTP085	ltpFR	4	5	-1	BOMB	147	n/a	-1	1	1.0	1.0	upper	../fonts/Verdana.ttf
924.654	n/a	WORD	462327	wordpools/wasnorm_wordpool.txt	LTP085	ltpFR	4	5	-1	COFFEE	341	n/a	-1	1	1.0	1.0	upper	../fonts/Verdana.ttf
928.664	n/a	WORD	464332	wordpools/wasnorm_wordpool.txt	LTP085	ltpFR	4	5	-1	TRUCK	1512	n/a	-1	1	1.0	1.0	upper	../fonts/Verdana.ttf
932.814	n/a	WORD	466407	wordpools/wasnorm_wordpool.txt	LTP085	ltpFR	4	5	-1	DRIVEWAY	500	n/a	-1	1	1.0	1.0	upper	../fonts/Verdana.ttf
936.856	n/a	WORD	468428	wordpools/wasnorm_wordpool.txt	LTP085	ltpFR	4	5	-1	MITTEN	902	n/a	-1	1	1.0	1.0	upper	../fonts/Verdana.ttf
940.78	n/a	WORD	470390	wordpools/wasnorm_wordpool.txt	LTP085	ltpFR	4	5	-1	WHALE	1601	n/a	-1	1	1.0	1.0	upper	../fonts/Verdana.ttf
944.804	n/a	WORD	472402	wordpools/wasnorm_wordpool.txt	LTP085	ltpFR	4	5	-1	OTTER	986	n/a	-1	1	1.0	1.0	upper	../fonts/Verdana.ttf
948.796	n/a	WORD	474398	wordpools/wasnorm_wordpool.txt	LTP085	ltpFR	4	5	-1	STEM	1376	n/a	-1	1	1.0	1.0	upper	../fonts/Verdana.ttf
952.864	n/a	WORD	476432	wordpools/wasnorm_wordpool.txt	LTP085	ltpFR	4	5	-1	PHYSICIAN	1056	n/a	-1	1	1.0	1.0	upper	../fonts/Verdana.ttf
956.954	n/a	WORD	478477	wordpools/wasnorm_wordpool.txt	LTP085	ltpFR	4	5	-1	ROBOT	1200	n/a	-1	1	1.0	1.0	upper	../fonts/Verdana.ttf
960.854	n/a	WORD	480427	wordpools/wasnorm_wordpool.txt	LTP085	ltpFR	4	5	-1	NUCLEUS	961	n/a	-1	1	1.0	1.0	upper	../fonts/Verdana.ttf
964.912	n/a	WORD	482456	wordpools/wasnorm_wordpool.txt	LTP085	ltpFR	4	5	-1	DAD	433	n/a	-1	1	1.0	1.0	upper	../fonts/Verdana.ttf
969.078	n/a	WORD	484539	wordpools/wasnorm_wordpool.txt	LTP085	ltpFR	4	5	-1	DRESS	495	n/a	-1	1	1.0	1.0	upper	../fonts/Verdana.ttf
973.036	n/a	WORD	486518	wordpools/wasnorm_wordpool.txt	LTP085	ltpFR	4	5	-1	BUTTON	207	n/a	-1	1	1.0	1.0	upper	../fonts/Verdana.ttf
978.838	n/a	REC_START	489419	n/a	LTP085	ltpFR	4	5	n/a	n/a	n/a	n/a	n/a	n/a	n/a	n/a	n/a	n/a
980.11	n/a	REC_WORD	490055	wordpools/wasnorm_wordpool.txt	LTP085	ltpFR	4	5	-1	APRON	35	n/a	-1	n/a	n/a	n/a	n/a	n/a
981.036	n/a	REC_WORD	490518	wordpools/wasnorm_wordpool.txt	LTP085	ltpFR	4	5	n/a	FLOUR	583	n/a	n/a	n/a	n/a	n/a	n/a	n/a
983.222	n/a	REC_WORD	491611	wordpools/wasnorm_wordpool.txt	LTP085	ltpFR	4	5	-1	BOMB	147	n/a	-1	n/a	n/a	n/a	n/a	n/a
984.41	n/a	REC_WORD	492205	wordpools/wasnorm_wordpool.txt	LTP085	ltpFR	4	5	-1	COFFEE	341	n/a	-1	n/a	n/a	n/a	n/a	n/a
985.928	n/a	REC_WORD	492964	wordpools/wasnorm_wordpool.txt	LTP085	ltpFR	4	5	-1	TRUCK	1512	n/a	-1	n/a	n/a	n/a	n/a	n/a
987.24	n/a	REC_WORD	493620	wordpools/wasnorm_wordpool.txt	LTP085	ltpFR	4	5	-1	DRIVEWAY	500	n/a	-1	n/a	n/a	n/a	n/a	n/a
990.566	n/a	REC_WORD	495283	wordpools/wasnorm_wordpool.txt	LTP085	ltpFR	4	5	-1	WHALE	1601	n/a	-1	n/a	n/a	n/a	n/a	n/a
991.774	n/a	REC_WORD	495887	wordpools/wasnorm_wordpool.txt	LTP085	ltpFR	4	5	-1	MITTEN	902	n/a	-1	n/a	n/a	n/a	n/a	n/a
993.86	n/a	REC_WORD	496930	wordpools/wasnorm_wordpool.txt	LTP085	ltpFR	4	5	-1	OTTER	986	n/a	-1	n/a	n/a	n/a	n/a	n/a
997.96	n/a	REC_WORD	498980	wordpools/wasnorm_wordpool.txt	LTP085	ltpFR	4	5	-1	STEM	1376	n/a	-1	n/a	n/a	n/a	n/a	n/a
999.426	n/a	REC_WORD	499713	wordpools/wasnorm_wordpool.txt	LTP085	ltpFR	4	5	-1	PHYSICIAN	1056	n/a	-1	n/a	n/a	n/a	n/a	n/a
1002.294	n/a	REC_WORD	501147	wordpools/wasnorm_wordpool.txt	LTP085	ltpFR	4	5	-1	DRESS	495	n/a	-1	n/a	n/a	n/a	n/a	n/a
1004.036	n/a	REC_WORD	502018	wordpools/wasnorm_wordpool.txt	LTP085	ltpFR	4	5	-1	BUTTON	207	n/a	-1	n/a	n/a	n/a	n/a	n/a
1005.982	n/a	REC_WORD	502991	wordpools/wasnorm_wordpool.txt	LTP085	ltpFR	4	5	-1	NUCLEUS	961	n/a	-1	n/a	n/a	n/a	n/a	n/a
1007.708	n/a	REC_WORD	503854	wordpools/wasnorm_wordpool.txt	LTP085	ltpFR	4	5	-1	ROBOT	1200	n/a	-1	n/a	n/a	n/a	n/a	n/a
1058.794	n/a	WORD	529397	wordpools/wasnorm_wordpool.txt	LTP085	ltpFR	4	6	0	DRAWER	493	n/a	0	0	0.5869140625	0.422607421875	lower	../fonts/amplitud.ttf
1062.708	n/a	WORD	531354	wordpools/wasnorm_wordpool.txt	LTP085	ltpFR	4	6	0	GOWN	652	n/a	1	0	0.5869140625	0.422607421875	lower	../fonts/amplitud.ttf
1066.626	n/a	WORD	533313	wordpools/wasnorm_wordpool.txt	LTP085	ltpFR	4	6	0	STAPLE	1371	n/a	0	0	0.5869140625	0.422607421875	lower	../fonts/amplitud.ttf
1070.718	n/a	WORD	535359	wordpools/wasnorm_wordpool.txt	LTP085	ltpFR	4	6	0	FLAG	573	n/a	1	0	0.5869140625	0.422607421875	lower	../fonts/amplitud.ttf
1074.852	n/a	WORD	537426	wordpools/wasnorm_wordpool.txt	LTP085	ltpFR	4	6	0	OYSTER	995	n/a	0	0	0.5869140625	0.422607421875	lower	../fonts/amplitud.ttf
1078.834	n/a	WORD	539417	wordpools/wasnorm_wordpool.txt	LTP085	ltpFR	4	6	0	SCALLOP	1242	n/a	0	0	0.5869140625	0.422607421875	lower	../fonts/amplitud.ttf
1082.826	n/a	WORD	541413	wordpools/wasnorm_wordpool.txt	LTP085	ltpFR	4	6	0	ALLIGATOR	16	n/a	1	0	0.5869140625	0.422607421875	lower	../fonts/amplitud.ttf
1086.684	n/a	WORD	543342	wordpools/wasnorm_wordpool.txt	LTP085	ltpFR	4	6	0	REPTILE	1185	n/a	1	0	0.5869140625	0.422607421875	lower	../fonts/amplitud.ttf
1090.802	n/a	WORD	545401	wordpools/wasnorm_wordpool.txt	LTP085	ltpFR	4	6	0	BUCKLE	185	n/a	0	0	0.5869140625	0.422607421875	lower	../fonts/amplitud.ttf
1094.626	n/a	WORD	547313	wordpools/wasnorm_wordpool.txt	LTP085	ltpFR	4	6	0	KID	775	n/a	0	0	0.5869140625	0.422607421875	lower	../fonts/amplitud.ttf
1098.608	n/a	WORD	549304	wordpools/wasnorm_wordpool.txt	LTP085	ltpFR	4	6	0	AUDIENCE	59	n/a	1	0	0.5869140625	0.422607421875	lower	../fonts/amplitud.ttf
1102.784	n/a	WORD	551392	wordpools/wasnorm_wordpool.txt	LTP085	ltpFR	4	6	0	ELEPHANT	523	n/a	1	0	0.5869140625	0.422607421875	lower	../fonts/amplitud.ttf
1106.784	n/a	WORD	553392	wordpools/wasnorm_wordpool.txt	LTP085	ltpFR	4	6	0	DUNGEON	507	n/a	1	0	0.5869140625	0.422607421875	lower	../fonts/amplitud.ttf
1110.742	n/a	WORD	555371	wordpools/wasnorm_wordpool.txt	LTP085	ltpFR	4	6	0	SOCIETY	1338	n/a	1	0	0.5869140625	0.422607421875	lower	../fonts/amplitud.ttf
1114.734	n/a	WORD	557367	wordpools/wasnorm_wordpool.txt	LTP085	ltpFR	4	6	0	SEAL	1262	n/a	1	0	0.5869140625	0.422607421875	lower	../fonts/amplitud.ttf
1118.776	n/a	WORD	559388	wordpools/wasnorm_wordpool.txt	LTP085	ltpFR	4	6	0	DOLL	481	n/a	0	0	0.5869140625	0.422607421875	lower	../fonts/amplitud.ttf
1124.716	n/a	REC_START	562358	n/a	LTP085	ltpFR	4	6	n/a	n/a	n/a	n/a	n/a	n/a	n/a	n/a	n/a	n/a
1127.126	n/a	REC_WORD	563563	wordpools/wasnorm_wordpool.txt	LTP085	ltpFR	4	6	0	SEAL	1262	n/a	1	n/a	n/a	n/a	n/a	n/a
1128.03	n/a	REC_WORD	564015	wordpools/wasnorm_wordpool.txt	LTP085	ltpFR	4	6	0	SOCIETY	1338	n/a	1	n/a	n/a	n/a	n/a	n/a
1130.04	n/a	REC_WORD	565020	wordpools/wasnorm_wordpool.txt	LTP085	ltpFR	4	6	0	DOLL	481	n/a	0	n/a	n/a	n/a	n/a	n/a
1131.022	n/a	REC_WORD	565511	wordpools/wasnorm_wordpool.txt	LTP085	ltpFR	4	6	0	STAPLE	1371	n/a	0	n/a	n/a	n/a	n/a	n/a
1133.288	n/a	REC_WORD	566644	wordpools/wasnorm_wordpool.txt	LTP085	ltpFR	4	6	0	DUNGEON	507	n/a	1	n/a	n/a	n/a	n/a	n/a
1134.56	n/a	REC_WORD	567280	wordpools/wasnorm_wordpool.txt	LTP085	ltpFR	4	6	0	ELEPHANT	523	n/a	1	n/a	n/a	n/a	n/a	n/a
1145.406	n/a	REC_WORD	572703	wordpools/wasnorm_wordpool.txt	LTP085	ltpFR	4	6	0	KID	775	n/a	0	n/a	n/a	n/a	n/a	n/a
1148.25	n/a	REC_WORD	574125	wordpools/wasnorm_wordpool.txt	LTP085	ltpFR	4	6	0	FLAG	573	n/a	1	n/a	n/a	n/a	n/a	n/a
1158.592	n/a	REC_WORD	579296	wordpools/wasnorm_wordpool.txt	LTP085	ltpFR	4	6	0	DRAWER	493	n/a	0	n/a	n/a	n/a	n/a	n/a
1192.362	n/a	REC_WORD	596181	wordpools/wasnorm_wordpool.txt	LTP085	ltpFR	4	6	0	AUDIENCE	59	n/a	1	n/a	n/a	n/a	n/a	n/a
1217.28	n/a	WORD	608640	wordpools/wasnorm_wordpool.txt	LTP085	ltpFR	4	7	-1	POT	1114	n/a	-1	1	1.0	1.0	upper	../fonts/Verdana.ttf
1221.372	n/a	WORD	610686	wordpools/wasnorm_wordpool.txt	LTP085	ltpFR	4	7	-1	HAY	693	n/a	-1	1	1.0	1.0	upper	../fonts/Verdana.ttf
1225.496	n/a	WORD	612748	wordpools/wasnorm_wordpool.txt	LTP085	ltpFR	4	7	-1	OREGANO	983	n/a	-1	1	1.0	1.0	upper	../fonts/Verdana.ttf
1229.648	n/a	WORD	614824	wordpools/wasnorm_wordpool.txt	LTP085	ltpFR	4	7	-1	CANE	231	n/a	-1	1	1.0	1.0	upper	../fonts/Verdana.ttf
1233.832	n/a	WORD	616916	wordpools/wasnorm_wordpool.txt	LTP085	ltpFR	4	7	-1	GARAGE	621	n/a	-1	1	1.0	1.0	upper	../fonts/Verdana.ttf
1237.664	n/a	WORD	618832	wordpools/wasnorm_wordpool.txt	LTP085	ltpFR	4	7	-1	SALESMAN	1225	n/a	-1	1	1.0	1.0	upper	../fonts/Verdana.ttf
1241.688	n/a	WORD	620844	wordpools/wasnorm_wordpool.txt	LTP085	ltpFR	4	7	-1	APARTMENT	30	n/a	-1	1	1.0	1.0	upper	../fonts/Verdana.ttf
1245.522	n/a	WORD	622761	wordpools/wasnorm_wordpool.txt	LTP085	ltpFR	4	7	-1	CABIN	211	n/a	-1	1	1.0	1.0	upper	../fonts/Verdana.ttf
1249.53	n/a	WORD	624765	wordpools/wasnorm_wordpool.txt	LTP085	ltpFR	4	7	-1	BUSH	202	n/a	-1	1	1.0	1.0	upper	../fonts/Verdana.ttf
1253.614	n/a	WORD	626807	wordpools/wasnorm_wordpool.txt	LTP085	ltpFR	4	7	-1	RADISH	1158	n/a	-1	1	1.0	1.0	upper	../fonts/Verdana.ttf
1257.73	n/a	WORD	628865	wordpools/wasnorm_wordpool.txt	LTP085	ltpFR	4	7	-1	ASSOCIATE	49	n/a	-1	1	1.0	1.0	upper	../fonts/Verdana.ttf
1261.688	n/a	WORD	630844	wordpools/wasnorm_wordpool.txt	LTP085	ltpFR	4	7	-1	KIDNEY	776	n/a	-1	1	1.0	1.0	upper	../fonts/Verdana.ttf
1265.538	n/a	WORD	632769	wordpools/wasnorm_wordpool.txt	LTP085	ltpFR	4	7	-1	ORCHID	982	n/a	-1	1	1.0	1.0	upper	../fonts/Verdana.ttf
1269.388	n/a	WORD	634694	wordpools/wasnorm_wordpool.txt	LTP085	ltpFR	4	7	-1	WAGON	1578	n/a	-1	1	1.0	1.0	upper	../fonts/Verdana.ttf
1273.404	n/a	WORD	636702	wordpools/wasnorm_wordpool.txt	LTP085	ltpFR	4	7	-1	PRESIDENT	1121	n/a	-1	1	1.0	1.0	upper	../fonts/Verdana.ttf
1277.496	n/a	WORD	638748	wordpools/wasnorm_wordpool.txt	LTP085	ltpFR	4	7	-1	TWIG	1527	n/a	-1	1	1.0	1.0	upper	../fonts/Verdana.ttf
1283.42	n/a	REC_START	641710	n/a	LTP085	ltpFR	4	7	n/a	n/a	n/a	n/a	n/a	n/a	n/a	n/a	n/a	n/a
1287.186	n/a	REC_WORD	643593	wordpools/wasnorm_wordpool.txt	LTP085	ltpFR	4	7	-1	POT	1114	n/a	-1	n/a	n/a	n/a	n/a	n/a
1289.274	n/a	REC_WORD	644637	wordpools/wasnorm_wordpool.txt	LTP085	ltpFR	4	7	-1	OREGANO	983	n/a	-1	n/a	n/a	n/a	n/a	n/a
1290.87	n/a	REC_WORD	645435	wordpools/wasnorm_wordpool.txt	LTP085	ltpFR	4	7	-1	CANE	231	n/a	-1	n/a	n/a	n/a	n/a	n/a
1292.336	n/a	REC_WORD	646168	wordpools/wasnorm_wordpool.txt	LTP085	ltpFR	4	7	-1	HAY	693	n/a	-1	n/a	n/a	n/a	n/a	n/a
1294.516	n/a	REC_WORD	647258	wordpools/wasnorm_wordpool.txt	LTP085	ltpFR	4	7	-1	GARAGE	621	n/a	-1	n/a	n/a	n/a	n/a	n/a
1297.814	n/a	REC_WORD	648907	wordpools/wasnorm_wordpool.txt	LTP085	ltpFR	4	7	-1	SALESMAN	1225	n/a	-1	n/a	n/a	n/a	n/a	n/a
1299.79	n/a	REC_WORD	649895	wordpools/wasnorm_wordpool.txt	LTP085	ltpFR	4	7	-1	APARTMENT	30	n/a	-1	n/a	n/a	n/a	n/a	n/a
1303.62	n/a	REC_WORD	651810	wordpools/wasnorm_wordpool.txt	LTP085	ltpFR	4	7	-1	CABIN	211	n/a	-1	n/a	n/a	n/a	n/a	n/a
1306.24	n/a	REC_WORD	653120	wordpools/wasnorm_wordpool.txt	LTP085	ltpFR	4	7	-1	BUSH	202	n/a	-1	n/a	n/a	n/a	n/a	n/a
1307.816	n/a	REC_WORD	653908	wordpools/wasnorm_wordpool.txt	LTP085	ltpFR	4	7	-1	ASSOCIATE	49	n/a	-1	n/a	n/a	n/a	n/a	n/a
1309.818	n/a	REC_WORD	654909	wordpools/wasnorm_wordpool.txt	LTP085	ltpFR	4	7	-1	RADISH	1158	n/a	-1	n/a	n/a	n/a	n/a	n/a
1313.184	n/a	REC_WORD	656592	wordpools/wasnorm_wordpool.txt	LTP085	ltpFR	4	7	-1	KIDNEY	776	n/a	-1	n/a	n/a	n/a	n/a	n/a
1316.018	n/a	REC_WORD	658009	wordpools/wasnorm_wordpool.txt	LTP085	ltpFR	4	7	-1	ORCHID	982	n/a	-1	n/a	n/a	n/a	n/a	n/a
1318.776	n/a	REC_WORD	659388	wordpools/wasnorm_wordpool.txt	LTP085	ltpFR	4	7	-1	WAGON	1578	n/a	-1	n/a	n/a	n/a	n/a	n/a
1320.538	n/a	REC_WORD	660269	wordpools/wasnorm_wordpool.txt	LTP085	ltpFR	4	7	-1	PRESIDENT	1121	n/a	-1	n/a	n/a	n/a	n/a	n/a
1322.648	n/a	REC_WORD	661324	wordpools/wasnorm_wordpool.txt	LTP085	ltpFR	4	7	-1	TWIG	1527	n/a	-1	n/a	n/a	n/a	n/a	n/a
1371.886	n/a	WORD	685943	wordpools/wasnorm_wordpool.txt	LTP085	ltpFR	4	8	0	AIRPORT	13	n/a	1	0	0.5869140625	0.422607421875	lower	../fonts/amplitud.ttf
1375.968	n/a	WORD	687984	wordpools/wasnorm_wordpool.txt	LTP085	ltpFR	4	8	0	AIRCRAFT	11	n/a	1	0	0.5869140625	0.422607421875	lower	../fonts/amplitud.ttf
1380.018	n/a	WORD	690009	wordpools/wasnorm_wordpool.txt	LTP085	ltpFR	4	8	1	CANAL	226	n/a	0	1	0.412841796875	0.57763671875	upper	../fonts/zerothre.ttf
1384.102	n/a	WORD	692051	wordpools/wasnorm_wordpool.txt	LTP085	ltpFR	4	8	1	AUNT	60	n/a	1	1	0.412841796875	0.57763671875	upper	../fonts/zerothre.ttf
1388.102	n/a	WORD	694051	wordpools/wasnorm_wordpool.txt	LTP085	ltpFR	4	8	1	VET	1560	n/a	1	1	0.412841796875	0.57763671875	upper	../fonts/zerothre.ttf
1392.034	n/a	WORD	696017	wordpools/wasnorm_wordpool.txt	LTP085	ltpFR	4	8	1	SNORKEL	1336	n/a	0	1	0.412841796875	0.57763671875	upper	../fonts/zerothre.ttf
1395.984	n/a	WORD	697992	wordpools/wasnorm_wordpool.txt	LTP085	ltpFR	4	8	1	SEED	1266	n/a	0	1	0.412841796875	0.57763671875	upper	../fonts/zerothre.ttf
1399.86	n/a	WORD	699930	wordpools/wasnorm_wordpool.txt	LTP085	ltpFR	4	8	0	BROOK	177	n/a	0	0	0.5869140625	0.422607421875	lower	../fonts/amplitud.ttf
1403.926	n/a	WORD	701963	wordpools/wasnorm_wordpool.txt	LTP085	ltpFR	4	8	0	STEAM	1375	n/a	0	0	0.5869140625	0.422607421875	lower	../fonts/amplitud.ttf
1407.768	n/a	WORD	703884	wordpools/wasnorm_wordpool.txt	LTP085	ltpFR	4	8	0	BILL	126	n/a	0	0	0.5869140625	0.422607421875	lower	../fonts/amplitud.ttf
1411.744	n/a	WORD	705872	wordpools/wasnorm_wordpool.txt	LTP085	ltpFR	4	8	1	GRIZZLY	662	n/a	0	1	0.412841796875	0.57763671875	upper	../fonts/zerothre.ttf
1415.66	n/a	WORD	707830	wordpools/wasnorm_wordpool.txt	LTP085	ltpFR	4	8	1	CREATURE	403	n/a	1	1	0.412841796875	0.57763671875	upper	../fonts/zerothre.ttf
1419.81	n/a	WORD	709905	wordpools/wasnorm_wordpool.txt	LTP085	ltpFR	4	8	1	PIG	1064	n/a	1	1	0.412841796875	0.57763671875	upper	../fonts/zerothre.ttf
1423.784	n/a	WORD	711892	wordpools/wasnorm_wordpool.txt	LTP085	ltpFR	4	8	0	LOLLIPOP	842	n/a	0	0	0.5869140625	0.422607421875	lower	../fonts/amplitud.ttf
1427.674	n/a	WORD	713837	wordpools/wasnorm_wordpool.txt	LTP085	ltpFR	4	8	0	CORD	379	n/a	0	0	0.5869140625	0.422607421875	lower	../fonts/amplitud.ttf
1431.634	n/a	WORD	715817	wordpools/wasnorm_wordpool.txt	LTP085	ltpFR	4	8	0	MAILMAN	858	n/a	1	0	0.5869140625	0.422607421875	lower	../fonts/amplitud.ttf
1437.7	n/a	REC_START	718850	n/a	LTP085	ltpFR	4	8	n/a	n/a	n/a	n/a	n/a	n/a	n/a	n/a	n/a	n/a
1439.042	n/a	REC_WORD	719521	wordpools/wasnorm_wordpool.txt	LTP085	ltpFR	4	8	0	MAILMAN	858	n/a	1	n/a	n/a	n/a	n/a	n/a
1440.498	n/a	REC_WORD	720249	wordpools/wasnorm_wordpool.txt	LTP085	ltpFR	4	8	0	MAILMAN	858	n/a	1	n/a	n/a	n/a	n/a	n/a
1441.786	n/a	REC_WORD	720893	wordpools/wasnorm_wordpool.txt	LTP085	ltpFR	4	8	0	LOLLIPOP	842	n/a	0	n/a	n/a	n/a	n/a	n/a
1443.602	n/a	REC_WORD	721801	wordpools/wasnorm_wordpool.txt	LTP085	ltpFR	4	8	0	CORD	379	n/a	0	n/a	n/a	n/a	n/a	n/a
1447.234	n/a	REC_WORD	723617	wordpools/wasnorm_wordpool.txt	LTP085	ltpFR	4	8	1	PIG	1064	n/a	1	n/a	n/a	n/a	n/a	n/a
1448.756	n/a	REC_WORD	724378	wordpools/wasnorm_wordpool.txt	LTP085	ltpFR	4	8	1	CREATURE	403	n/a	1	n/a	n/a	n/a	n/a	n/a
1450.468	n/a	REC_WORD	725234	wordpools/wasnorm_wordpool.txt	LTP085	ltpFR	4	8	1	GRIZZLY	662	n/a	0	n/a	n/a	n/a	n/a	n/a
1452.568	n/a	REC_WORD	726284	wordpools/wasnorm_wordpool.txt	LTP085	ltpFR	4	8	0	AIRPORT	13	n/a	1	n/a	n/a	n/a	n/a	n/a
1453.974	n/a	REC_WORD	726987	wordpools/wasnorm_wordpool.txt	LTP085	ltpFR	4	8	0	AIRCRAFT	11	n/a	1	n/a	n/a	n/a	n/a	n/a
1455.696	n/a	REC_WORD	727848	wordpools/wasnorm_wordpool.txt	LTP085	ltpFR	4	8	1	SNORKEL	1336	n/a	0	n/a	n/a	n/a	n/a	n/a
1457.452	n/a	REC_WORD	728726	wordpools/wasnorm_wordpool.txt	LTP085	ltpFR	4	8	1	VET	1560	n/a	1	n/a	n/a	n/a	n/a	n/a
1522.598	n/a	WORD	761299	wordpools/wasnorm_wordpool.txt	LTP085	ltpFR	4	9	1	RANCH	1166	n/a	0	1	0.412841796875	0.57763671875	upper	../fonts/zerothre.ttf
1526.506	n/a	WORD	763253	wordpools/wasnorm_wordpool.txt	LTP085	ltpFR	4	9	1	DRUM	502	n/a	0	1	0.412841796875	0.57763671875	upper	../fonts/zerothre.ttf
1530.39	n/a	WORD	765195	wordpools/wasnorm_wordpool.txt	LTP085	ltpFR	4	9	1	TECHNICIAN	1443	n/a	1	1	0.412841796875	0.57763671875	upper	../fonts/zerothre.ttf
1534.506	n/a	WORD	767253	wordpools/wasnorm_wordpool.txt	LTP085	ltpFR	4	9	1	CABLE	213	n/a	0	1	0.412841796875	0.57763671875	upper	../fonts/zerothre.ttf
1538.59	n/a	WORD	769295	wordpools/wasnorm_wordpool.txt	LTP085	ltpFR	4	9	1	STREET	1393	n/a	0	1	0.412841796875	0.57763671875	upper	../fonts/zerothre.ttf
1542.63	n/a	WORD	771315	wordpools/wasnorm_wordpool.txt	LTP085	ltpFR	4	9	1	ATHLETE	52	n/a	1	1	0.412841796875	0.57763671875	upper	../fonts/zerothre.ttf
1546.714	n/a	WORD	773357	wordpools/wasnorm_wordpool.txt	LTP085	ltpFR	4	9	1	ACROBAT	4	n/a	1	1	0.412841796875	0.57763671875	upper	../fonts/zerothre.ttf
1550.606	n/a	WORD	775303	wordpools/wasnorm_wordpool.txt	LTP085	ltpFR	4	9	1	COSTUME	383	n/a	0	1	0.412841796875	0.57763671875	upper	../fonts/zerothre.ttf
1554.806	n/a	WORD	777403	wordpools/wasnorm_wordpool.txt	LTP085	ltpFR	4	9	1	VETERAN	1561	n/a	1	1	0.412841796875	0.57763671875	upper	../fonts/zerothre.ttf
1558.672	n/a	WORD	779336	wordpools/wasnorm_wordpool.txt	LTP085	ltpFR	4	9	1	OCTOPUS	971	n/a	1	1	0.412841796875	0.57763671875	upper	../fonts/zerothre.ttf
1562.588	n/a	WORD	781294	wordpools/wasnorm_wordpool.txt	LTP085	ltpFR	4	9	1	DONKEY	484	n/a	1	1	0.412841796875	0.57763671875	upper	../fonts/zerothre.ttf
1566.438	n/a	WORD	783219	wordpools/wasnorm_wordpool.txt	LTP085	ltpFR	4	9	1	STOCKING	1383	n/a	0	1	0.412841796875	0.57763671875	upper	../fonts/zerothre.ttf
1570.598	n/a	WORD	785299	wordpools/wasnorm_wordpool.txt	LTP085	ltpFR	4	9	1	UNIFORM	1539	n/a	0	1	0.412841796875	0.57763671875	upper	../fonts/zerothre.ttf
1574.706	n/a	WORD	787353	wordpools/wasnorm_wordpool.txt	LTP085	ltpFR	4	9	1	TUBA	1515	n/a	0	1	0.412841796875	0.57763671875	upper	../fonts/zerothre.ttf
1578.58	n/a	WORD	789290	wordpools/wasnorm_wordpool.txt	LTP085	ltpFR	4	9	1	PEANUT	1032	n/a	0	1	0.412841796875	0.57763671875	upper	../fonts/zerothre.ttf
1582.422	n/a	WORD	791211	wordpools/wasnorm_wordpool.txt	LTP085	ltpFR	4	9	1	BUTTER	205	n/a	0	1	0.412841796875	0.57763671875	upper	../fonts/zerothre.ttf
1588.172	n/a	REC_START	794086	n/a	LTP085	ltpFR	4	9	n/a	n/a	n/a	n/a	n/a	n/a	n/a	n/a	n/a	n/a
1590.072	n/a	REC_WORD	795036	wordpools/wasnorm_wordpool.txt	LTP085	ltpFR	4	9	1	BUTTER	205	n/a	0	n/a	n/a	n/a	n/a	n/a
1591.66	n/a	REC_WORD	795830	wordpools/wasnorm_wordpool.txt	LTP085	ltpFR	4	9	1	TUBA	1515	n/a	0	n/a	n/a	n/a	n/a	n/a
1593.43	n/a	REC_WORD	796715	wordpools/wasnorm_wordpool.txt	LTP085	ltpFR	4	9	1	COSTUME	383	n/a	0	n/a	n/a	n/a	n/a	n/a
1595.292	n/a	REC_WORD	797646	wordpools/wasnorm_wordpool.txt	LTP085	ltpFR	4	9	1	UNIFORM	1539	n/a	0	n/a	n/a	n/a	n/a	n/a
1597.332	n/a	REC_WORD	798666	wordpools/wasnorm_wordpool.txt	LTP085	ltpFR	4	9	1	VETERAN	1561	n/a	1	n/a	n/a	n/a	n/a	n/a
1599.162	n/a	REC_WORD	799581	wordpools/wasnorm_wordpool.txt	LTP085	ltpFR	4	9	1	ATHLETE	52	n/a	1	n/a	n/a	n/a	n/a	n/a
1600.594	n/a	REC_WORD	800297	wordpools/wasnorm_wordpool.txt	LTP085	ltpFR	4	9	1	ACROBAT	4	n/a	1	n/a	n/a	n/a	n/a	n/a
1602.53	n/a	REC_WORD	801265	wordpools/wasnorm_wordpool.txt	LTP085	ltpFR	4	9	1	OCTOPUS	971	n/a	1	n/a	n/a	n/a	n/a	n/a
1613.69	n/a	REC_WORD	806845	wordpools/wasnorm_wordpool.txt	LTP085	ltpFR	4	9	1	TECHNICIAN	1443	n/a	1	n/a	n/a	n/a	n/a	n/a
1615.516	n/a	REC_WORD	807758	wordpools/wasnorm_wordpool.txt	LTP085	ltpFR	4	9	1	STREET	1393	n/a	0	n/a	n/a	n/a	n/a	n/a
1617.138	n/a	REC_WORD	808569	wordpools/wasnorm_wordpool.txt	LTP085	ltpFR	4	9	1	CABLE	213	n/a	0	n/a	n/a	n/a	n/a	n/a
1691.904	n/a	WORD	845952	wordpools/wasnorm_wordpool.txt	LTP085	ltpFR	4	10	0	CAPTIVE	240	n/a	1	0	0.5869140625	0.422607421875	lower	../fonts/amplitud.ttf
1695.986	n/a	WORD	847993	wordpools/wasnorm_wordpool.txt	LTP085	ltpFR	4	10	0	FUGITIVE	612	n/a	1	0	0.5869140625	0.422607421875	lower	../fonts/amplitud.ttf
1699.92	n/a	WORD	849960	wordpools/wasnorm_wordpool.txt	LTP085	ltpFR	4	10	0	EXPERT	543	n/a	1	0	0.5869140625	0.422607421875	lower	../fonts/amplitud.ttf
1703.802	n/a	WORD	851901	wordpools/wasnorm_wordpool.txt	LTP085	ltpFR	4	10	0	CEMETERY	269	n/a	1	0	0.5869140625	0.422607421875	lower	../fonts/amplitud.ttf
1707.97	n/a	WORD	853985	wordpools/wasnorm_wordpool.txt	LTP085	ltpFR	4	10	1	RAG	1160	n/a	0	1	0.412841796875	0.57763671875	upper	../fonts/zerothre.ttf
1712.144	n/a	WORD	856072	wordpools/wasnorm_wordpool.txt	LTP085	ltpFR	4	10	1	BOWL	158	n/a	0	1	0.412841796875	0.57763671875	upper	../fonts/zerothre.ttf
1716.268	n/a	WORD	858134	wordpools/wasnorm_wordpool.txt	LTP085	ltpFR	4	10	1	WHIP	1604	n/a	0	1	0.412841796875	0.57763671875	upper	../fonts/zerothre.ttf
1720.218	n/a	WORD	860109	wordpools/wasnorm_wordpool.txt	LTP085	ltpFR	4	10	0	TOMBSTONE	1478	n/a	1	0	0.5869140625	0.422607421875	lower	../fonts/amplitud.ttf
1724.102	n/a	WORD	862051	wordpools/wasnorm_wordpool.txt	LTP085	ltpFR	4	10	0	MONGOOSE	909	n/a	1	0	0.5869140625	0.422607421875	lower	../fonts/amplitud.ttf
1728.01	n/a	WORD	864005	wordpools/wasnorm_wordpool.txt	LTP085	ltpFR	4	10	0	NICKEL	950	n/a	0	0	0.5869140625	0.422607421875	lower	../fonts/amplitud.ttf
1732.026	n/a	WORD	866013	wordpools/wasnorm_wordpool.txt	LTP085	ltpFR	4	10	0	THREAD	1460	n/a	0	0	0.5869140625	0.422607421875	lower	../fonts/amplitud.ttf
1735.852	n/a	WORD	867926	wordpools/wasnorm_wordpool.txt	LTP085	ltpFR	4	10	1	LIBRARY	816	n/a	0	1	0.412841796875	0.57763671875	upper	../fonts/zerothre.ttf
1739.776	n/a	WORD	869888	wordpools/wasnorm_wordpool.txt	LTP085	ltpFR	4	10	1	CAMEL	223	n/a	1	1	0.412841796875	0.57763671875	upper	../fonts/zerothre.ttf
1743.65	n/a	WORD	871825	wordpools/wasnorm_wordpool.txt	LTP085	ltpFR	4	10	1	PRINTER	1126	n/a	0	1	0.412841796875	0.57763671875	upper	../fonts/zerothre.ttf
1747.476	n/a	WORD	873738	wordpools/wasnorm_wordpool.txt	LTP085	ltpFR	4	10	1	PAPER	1011	n/a	0	1	0.412841796875	0.57763671875	upper	../fonts/zerothre.ttf
1751.45	n/a	WORD	875725	wordpools/wasnorm_wordpool.txt	LTP085	ltpFR	4	10	1	LINEN	825	n/a	0	1	0.412841796875	0.57763671875	upper	../fonts/zerothre.ttf
1757.468	n/a	REC_START	878734	n/a	LTP085	ltpFR	4	10	n/a	n/a	n/a	n/a	n/a	n/a	n/a	n/a	n/a	n/a
1759.886	n/a	REC_WORD	879943	wordpools/wasnorm_wordpool.txt	LTP085	ltpFR	4	10	1	LINEN	825	n/a	0	n/a	n/a	n/a	n/a	n/a
1760.934	n/a	REC_WORD	880467	wordpools/wasnorm_wordpool.txt	LTP085	ltpFR	4	10	1	PAPER	1011	n/a	0	n/a	n/a	n/a	n/a	n/a
1762.45	n/a	REC_WORD	881225	wordpools/wasnorm_wordpool.txt	LTP085	ltpFR	4	10	1	RAG	1160	n/a	0	n/a	n/a	n/a	n/a	n/a
1763.962	n/a	REC_WORD	881981	wordpools/wasnorm_wordpool.txt	LTP085	ltpFR	4	10	1	CAMEL	223	n/a	1	n/a	n/a	n/a	n/a	n/a
1767.52	n/a	REC_WORD	883760	wordpools/wasnorm_wordpool.txt	LTP085	ltpFR	4	10	0	TOMBSTONE	1478	n/a	1	n/a	n/a	n/a	n/a	n/a
1769.376	n/a	REC_WORD	884688	wordpools/wasnorm_wordpool.txt	LTP085	ltpFR	4	10	0	NICKEL	950	n/a	0	n/a	n/a	n/a	n/a	n/a
1770.654	n/a	REC_WORD	885327	wordpools/wasnorm_wordpool.txt	LTP085	ltpFR	4	10	0	THREAD	1460	n/a	0	n/a	n/a	n/a	n/a	n/a
1772.304	n/a	REC_WORD	886152	wordpools/wasnorm_wordpool.txt	LTP085	ltpFR	4	10	0	EXPERT	543	n/a	1	n/a	n/a	n/a	n/a	n/a
1773.702	n/a	REC_WORD	886851	wordpools/wasnorm_wordpool.txt	LTP085	ltpFR	4	10	0	FUGITIVE	612	n/a	1	n/a	n/a	n/a	n/a	n/a
1775.518	n/a	REC_WORD	887759	wordpools/wasnorm_wordpool.txt	LTP085	ltpFR	4	10	0	CAPTIVE	240	n/a	1	n/a	n/a	n/a	n/a	n/a
1780.112	n/a	REC_WORD	890056	wordpools/wasnorm_wordpool.txt	LTP085	ltpFR	4	10	0	CEMETERY	269	n/a	1	n/a	n/a	n/a	n/a	n/a
1809.286	n/a	REC_WORD	904643	wordpools/wasnorm_wordpool.txt	LTP085	ltpFR	4	10	1	PAPER	1011	n/a	0	n/a	n/a	n/a	n/a	n/a
1841.64	n/a	WORD	920820	wordpools/wasnorm_wordpool.txt	LTP085	ltpFR	4	11	1	PIANO	1057	n/a	0	1	0.412841796875	0.57763671875	upper	../fonts/zerothre.ttf
1845.832	n/a	WORD	922916	wordpools/wasnorm_wordpool.txt	LTP085	ltpFR	4	11	1	HOSE	720	n/a	0	1	0.412841796875	0.57763671875	upper	../fonts/zerothre.ttf
1850.006	n/a	WORD	925003	wordpools/wasnorm_wordpool.txt	LTP085	ltpFR	4	11	1	PAD	998	n/a	0	1	0.412841796875	0.57763671875	upper	../fonts/zerothre.ttf
1853.932	n/a	WORD	926966	wordpools/wasnorm_wordpool.txt	LTP085	ltpFR	4	11	1	TURKEY	1520	n/a	1	1	0.412841796875	0.57763671875	upper	../fonts/zerothre.ttf
1857.89	n/a	WORD	928945	wordpools/wasnorm_wordpool.txt	LTP085	ltpFR	4	11	1	SHORTCAKE	1292	n/a	0	1	0.412841796875	0.57763671875	upper	../fonts/zerothre.ttf
1861.706	n/a	WORD	930853	wordpools/wasnorm_wordpool.txt	LTP085	ltpFR	4	11	1	MINER	896	n/a	1	1	0.412841796875	0.57763671875	upper	../fonts/zerothre.ttf
1865.672	n/a	WORD	932836	wordpools/wasnorm_wordpool.txt	LTP085	ltpFR	4	11	1	DIVER	476	n/a	1	1	0.412841796875	0.57763671875	upper	../fonts/zerothre.ttf
1869.814	n/a	WORD	934907	wordpools/wasnorm_wordpool.txt	LTP085	ltpFR	4	11	1	SINK	1309	n/a	0	1	0.412841796875	0.57763671875	upper	../fonts/zerothre.ttf
1873.874	n/a	WORD	936937	wordpools/wasnorm_wordpool.txt	LTP085	ltpFR	4	11	1	POOL	1103	n/a	0	1	0.412841796875	0.57763671875	upper	../fonts/zerothre.ttf
1878.048	n/a	WORD	939024	wordpools/wasnorm_wordpool.txt	LTP085	ltpFR	4	11	1	FIREMAN	569	n/a	1	1	0.412841796875	0.57763671875	upper	../fonts/zerothre.ttf
1882.24	n/a	WORD	941120	wordpools/wasnorm_wordpool.txt	LTP085	ltpFR	4	11	1	RASPBERRY	1168	n/a	0	1	0.412841796875	0.57763671875	upper	../fonts/zerothre.ttf
1886.138	n/a	WORD	943069	wordpools/wasnorm_wordpool.txt	LTP085	ltpFR	4	11	1	BLUEBERRY	140	n/a	0	1	0.412841796875	0.57763671875	upper	../fonts/zerothre.ttf
1890.096	n/a	WORD	945048	wordpools/wasnorm_wordpool.txt	LTP085	ltpFR	4	11	1	HAIL	676	n/a	0	1	0.412841796875	0.57763671875	upper	../fonts/zerothre.ttf
1894.24	n/a	WORD	947120	wordpools/wasnorm_wordpool.txt	LTP085	ltpFR	4	11	1	BULLY	196	n/a	0	1	0.412841796875	0.57763671875	upper	../fonts/zerothre.ttf
1898.38	n/a	WORD	949190	wordpools/wasnorm_wordpool.txt	LTP085	ltpFR	4	11	1	ELEVATOR	524	n/a	0	1	0.412841796875	0.57763671875	upper	../fonts/zerothre.ttf
1902.58	n/a	WORD	951290	wordpools/wasnorm_wordpool.txt	LTP085	ltpFR	4	11	1	ORGAN	984	n/a	0	1	0.412841796875	0.57763671875	upper	../fonts/zerothre.ttf
1908.464	n/a	REC_START	954232	n/a	LTP085	ltpFR	4	11	n/a	n/a	n/a	n/a	n/a	n/a	n/a	n/a	n/a	n/a
1909.83	n/a	REC_WORD	954915	wordpools/wasnorm_wordpool.txt	LTP085	ltpFR	4	11	1	ORGAN	984	n/a	0	n/a	n/a	n/a	n/a	n/a
1910.614	n/a	REC_WORD	955307	wordpools/wasnorm_wordpool.txt	LTP085	ltpFR	4	11	1	PIANO	1057	n/a	0	n/a	n/a	n/a	n/a	n/a
1912.14	n/a	REC_WORD	956070	wordpools/wasnorm_wordpool.txt	LTP085	ltpFR	4	11	1	RASPBERRY	1168	n/a	0	n/a	n/a	n/a	n/a	n/a
1913.578	n/a	REC_WORD	956789	wordpools/wasnorm_wordpool.txt	LTP085	ltpFR	4	11	1	BLUEBERRY	140	n/a	0	n/a	n/a	n/a	n/a	n/a
1918.686	n/a	REC_WORD	959343	wordpools/wasnorm_wordpool.txt	LTP085	ltpFR	4	11	1	MINER	896	n/a	1	n/a	n/a	n/a	n/a	n/a
1920.232	n/a	REC_WORD	960116	wordpools/wasnorm_wordpool.txt	LTP085	ltpFR	4	11	1	BULLY	196	n/a	0	n/a	n/a	n/a	n/a	n/a
1921.8	n/a	REC_WORD	960900	wordpools/wasnorm_wordpool.txt	LTP085	ltpFR	4	11	1	DIVER	476	n/a	1	n/a	n/a	n/a	n/a	n/a
1923.326	n/a	REC_WORD	961663	wordpools/wasnorm_wordpool.txt	LTP085	ltpFR	4	11	1	POOL	1103	n/a	0	n/a	n/a	n/a	n/a	n/a
1924.562	n/a	REC_WORD	962281	wordpools/wasnorm_wordpool.txt	LTP085	ltpFR	4	11	1	SINK	1309	n/a	0	n/a	n/a	n/a	n/a	n/a
1943.116	n/a	REC_WORD	971558	wordpools/wasnorm_wordpool.txt	LTP085	ltpFR	4	11	1	HOSE	720	n/a	0	n/a	n/a	n/a	n/a	n/a
2008.744	n/a	WORD	1004372	wordpools/wasnorm_wordpool.txt	LTP085	ltpFR	4	12	0	SALAD	1224	n/a	0	0	0.5869140625	0.422607421875	lower	../fonts/amplitud.ttf
2012.678	n/a	WORD	1006339	wordpools/wasnorm_wordpool.txt	LTP085	ltpFR	4	12	0	SUBURB	1399	n/a	1	0	0.5869140625	0.422607421875	lower	../fonts/amplitud.ttf
2016.846	n/a	WORD	1008423	wordpools/wasnorm_wordpool.txt	LTP085	ltpFR	4	12	0	CARDINAL	244	n/a	1	0	0.5869140625	0.422607421875	lower	../fonts/amplitud.ttf
2020.678	n/a	WORD	1010339	wordpools/wasnorm_wordpool.txt	LTP085	ltpFR	4	12	0	CATHEDRAL	260	n/a	1	0	0.5869140625	0.422607421875	lower	../fonts/amplitud.ttf
2024.578	n/a	WORD	1012289	wordpools/wasnorm_wordpool.txt	LTP085	ltpFR	4	12	0	OUTLAW	989	n/a	1	0	0.5869140625	0.422607421875	lower	../fonts/amplitud.ttf
2028.41	n/a	WORD	1014205	wordpools/wasnorm_wordpool.txt	LTP085	ltpFR	4	12	0	VILLAIN	1567	n/a	1	0	0.5869140625	0.422607421875	lower	../fonts/amplitud.ttf
2032.252	n/a	WORD	1016126	wordpools/wasnorm_wordpool.txt	LTP085	ltpFR	4	12	0	PITCHFORK	1078	n/a	0	0	0.5869140625	0.422607421875	lower	../fonts/amplitud.ttf
2036.428	n/a	WORD	1018214	wordpools/wasnorm_wordpool.txt	LTP085	ltpFR	4	12	0	PERSON	1052	n/a	1	0	0.5869140625	0.422607421875	lower	../fonts/amplitud.ttf
2040.31	n/a	WORD	1020155	wordpools/wasnorm_wordpool.txt	LTP085	ltpFR	4	12	0	FENCE	560	n/a	0	0	0.5869140625	0.422607421875	lower	../fonts/amplitud.ttf
2044.518	n/a	WORD	1022259	wordpools/wasnorm_wordpool.txt	LTP085	ltpFR	4	12	0	CATERPILLAR	259	n/a	0	0	0.5869140625	0.422607421875	lower	../fonts/amplitud.ttf
2048.534	n/a	WORD	1024267	wordpools/wasnorm_wordpool.txt	LTP085	ltpFR	4	12	0	GHETTO	633	n/a	1	0	0.5869140625	0.422607421875	lower	../fonts/amplitud.ttf
2052.452	n/a	WORD	1026226	wordpools/wasnorm_wordpool.txt	LTP085	ltpFR	4	12	0	SHIRT	1287	n/a	0	0	0.5869140625	0.422607421875	lower	../fonts/amplitud.ttf
2056.618	n/a	WORD	1028309	wordpools/wasnorm_wordpool.txt	LTP085	ltpFR	4	12	0	FLANNEL	574	n/a	0	0	0.5869140625	0.422607421875	lower	../fonts/amplitud.ttf
2060.768	n/a	WORD	1030384	wordpools/wasnorm_wordpool.txt	LTP085	ltpFR	4	12	0	PUDDING	1139	n/a	0	0	0.5869140625	0.422607421875	lower	../fonts/amplitud.ttf
2064.734	n/a	WORD	1032367	wordpools/wasnorm_wordpool.txt	LTP085	ltpFR	4	12	0	BEETLE	116	n/a	0	0	0.5869140625	0.422607421875	lower	../fonts/amplitud.ttf
2068.684	n/a	WORD	1034342	wordpools/wasnorm_wordpool.txt	LTP085	ltpFR	4	12	0	BROCCOLI	176	n/a	0	0	0.5869140625	0.422607421875	lower	../fonts/amplitud.ttf
2074.452	n/a	REC_START	1037226	n/a	LTP085	ltpFR	4	12	n/a	n/a	n/a	n/a	n/a	n/a	n/a	n/a	n/a	n/a
2075.744	n/a	REC_WORD	1037872	wordpools/wasnorm_wordpool.txt	LTP085	ltpFR	4	12	0	BROCCOLI	176	n/a	0	n/a	n/a	n/a	n/a	n/a
2076.866	n/a	REC_WORD	1038433	wordpools/wasnorm_wordpool.txt	LTP085	ltpFR	4	12	0	BEETLE	116	n/a	0	n/a	n/a	n/a	n/a	n/a
2078.348	n/a	REC_WORD	1039174	wordpools/wasnorm_wordpool.txt	LTP085	ltpFR	4	12	0	PERSON	1052	n/a	1	n/a	n/a	n/a	n/a	n/a
2080.602	n/a	REC_WORD	1040301	wordpools/wasnorm_wordpool.txt	LTP085	ltpFR	4	12	0	FLANNEL	574	n/a	0	n/a	n/a	n/a	n/a	n/a
2082.552	n/a	REC_WORD	1041276	wordpools/wasnorm_wordpool.txt	LTP085	ltpFR	4	12	0	SHIRT	1287	n/a	0	n/a	n/a	n/a	n/a	n/a
2085.8	n/a	REC_WORD	1042900	wordpools/wasnorm_wordpool.txt	LTP085	ltpFR	4	12	0	VILLAIN	1567	n/a	1	n/a	n/a	n/a	n/a	n/a
2087.348	n/a	REC_WORD	1043674	wordpools/wasnorm_wordpool.txt	LTP085	ltpFR	4	12	0	GHETTO	633	n/a	1	n/a	n/a	n/a	n/a	n/a
2088.888	n/a	REC_WORD	1044444	wordpools/wasnorm_wordpool.txt	LTP085	ltpFR	4	12	0	SUBURB	1399	n/a	1	n/a	n/a	n/a	n/a	n/a
2091.228	n/a	REC_WORD	1045614	wordpools/wasnorm_wordpool.txt	LTP085	ltpFR	4	12	0	CATERPILLAR	259	n/a	0	n/a	n/a	n/a	n/a	n/a
2093.074	n/a	REC_WORD	1046537	wordpools/wasnorm_wordpool.txt	LTP085	ltpFR	4	12	0	PITCHFORK	1078	n/a	0	n/a	n/a	n/a	n/a	n/a
2143.886	n/a	REC_WORD	1071943	wordpools/wasnorm_wordpool.txt	LTP085	ltpFR	4	12	0	CATHEDRAL	260	n/a	1	n/a	n/a	n/a	n/a	n/a
2145.588	n/a	REC_WORD	1072794	wordpools/wasnorm_wordpool.txt	LTP085	ltpFR	4	12	0	CARDINAL	244	n/a	1	n/a	n/a	n/a	n/a	n/a
2150.056	n/a	REST_REWET	1075028	n/a	LTP085	ltpFR	4	12	n/a	n/a	n/a	n/a	n/a	n/a	n/a	n/a	n/a	n/a
2489.632	n/a	WORD	1244816	wordpools/wasnorm_wordpool.txt	LTP085	ltpFR	4	13	0	VAMPIRE	1547	n/a	1	0	0.5869140625	0.422607421875	lower	../fonts/amplitud.ttf
2493.556	n/a	WORD	1246778	wordpools/wasnorm_wordpool.txt	LTP085	ltpFR	4	13	0	ROOMMATE	1207	n/a	1	0	0.5869140625	0.422607421875	lower	../fonts/amplitud.ttf
2497.4	n/a	WORD	1248700	wordpools/wasnorm_wordpool.txt	LTP085	ltpFR	4	13	0	HAMMER	680	n/a	1	0	0.5869140625	0.422607421875	lower	../fonts/amplitud.ttf
2501.432	n/a	WORD	1250716	wordpools/wasnorm_wordpool.txt	LTP085	ltpFR	4	13	0	CHIMPANZEE	302	n/a	1	0	0.5869140625	0.422607421875	lower	../fonts/amplitud.ttf
2505.44	n/a	WORD	1252720	wordpools/wasnorm_wordpool.txt	LTP085	ltpFR	4	13	0	TUB	1514	n/a	1	0	0.5869140625	0.422607421875	lower	../fonts/amplitud.ttf
2509.49	n/a	WORD	1254745	wordpools/wasnorm_wordpool.txt	LTP085	ltpFR	4	13	0	GALLON	618	n/a	1	0	0.5869140625	0.422607421875	lower	../fonts/amplitud.ttf
2513.472	n/a	WORD	1256736	wordpools/wasnorm_wordpool.txt	LTP085	ltpFR	4	13	0	OX	994	n/a	1	0	0.5869140625	0.422607421875	lower	../fonts/amplitud.ttf
2517.582	n/a	WORD	1258791	wordpools/wasnorm_wordpool.txt	LTP085	ltpFR	4	13	0	SWIMMER	1420	n/a	1	0	0.5869140625	0.422607421875	lower	../fonts/amplitud.ttf
2521.564	n/a	WORD	1260782	wordpools/wasnorm_wordpool.txt	LTP085	ltpFR	4	13	0	SLIDE	1326	n/a	1	0	0.5869140625	0.422607421875	lower	../fonts/amplitud.ttf
2525.598	n/a	WORD	1262799	wordpools/wasnorm_wordpool.txt	LTP085	ltpFR	4	13	0	PENCIL	1042	n/a	0	0	0.5869140625	0.422607421875	lower	../fonts/amplitud.ttf
2529.664	n/a	WORD	1264832	wordpools/wasnorm_wordpool.txt	LTP085	ltpFR	4	13	0	NURSE	963	n/a	1	0	0.5869140625	0.422607421875	lower	../fonts/amplitud.ttf
2533.706	n/a	WORD	1266853	wordpools/wasnorm_wordpool.txt	LTP085	ltpFR	4	13	0	SUGAR	1401	n/a	0	0	0.5869140625	0.422607421875	lower	../fonts/amplitud.ttf
2537.698	n/a	WORD	1268849	wordpools/wasnorm_wordpool.txt	LTP085	ltpFR	4	13	0	FOOTBALL	591	n/a	0	0	0.5869140625	0.422607421875	lower	../fonts/amplitud.ttf
2541.556	n/a	WORD	1270778	wordpools/wasnorm_wordpool.txt	LTP085	ltpFR	4	13	0	BASKETBALL	96	n/a	1	0	0.5869140625	0.422607421875	lower	../fonts/amplitud.ttf
2545.714	n/a	WORD	1272857	wordpools/wasnorm_wordpool.txt	LTP085	ltpFR	4	13	0	FRIEND	606	n/a	1	0	0.5869140625	0.422607421875	lower	../fonts/amplitud.ttf
2549.706	n/a	WORD	1274853	wordpools/wasnorm_wordpool.txt	LTP085	ltpFR	4	13	0	SICKLE	1302	n/a	0	0	0.5869140625	0.422607421875	lower	../fonts/amplitud.ttf
2555.38	n/a	REC_START	1277690	n/a	LTP085	ltpFR	4	13	n/a	n/a	n/a	n/a	n/a	n/a	n/a	n/a	n/a	n/a
2557.402	n/a	REC_WORD	1278701	wordpools/wasnorm_wordpool.txt	LTP085	ltpFR	4	13	0	ROOMMATE	1207	n/a	1	n/a	n/a	n/a	n/a	n/a
2558.838	n/a	REC_WORD	1279419	wordpools/wasnorm_wordpool.txt	LTP085	ltpFR	4	13	0	FRIEND	606	n/a	1	n/a	n/a	n/a	n/a	n/a
2560.224	n/a	REC_WORD	1280112	wordpools/wasnorm_wordpool.txt	LTP085	ltpFR	4	13	0	SICKLE	1302	n/a	0	n/a	n/a	n/a	n/a	n/a
2563.522	n/a	REC_WORD	1281761	wordpools/wasnorm_wordpool.txt	LTP085	ltpFR	4	13	0	SWIMMER	1420	n/a	1	n/a	n/a	n/a	n/a	n/a
2569.694	n/a	REC_WORD	1284847	wordpools/wasnorm_wordpool.txt	LTP085	ltpFR	4	13	0	CHIMPANZEE	302	n/a	1	n/a	n/a	n/a	n/a	n/a
2572.992	n/a	REC_WORD	1286496	wordpools/wasnorm_wordpool.txt	LTP085	ltpFR	4	13	0	HAMMER	680	n/a	1	n/a	n/a	n/a	n/a	n/a
2574.642	n/a	REC_WORD	1287321	wordpools/wasnorm_wordpool.txt	LTP085	ltpFR	4	13	0	PENCIL	1042	n/a	0	n/a	n/a	n/a	n/a	n/a
2579.832	n/a	REC_WORD	1289916	wordpools/wasnorm_wordpool.txt	LTP085	ltpFR	4	13	0	NURSE	963	n/a	1	n/a	n/a	n/a	n/a	n/a
2598.75	n/a	REC_WORD	1299375	wordpools/wasnorm_wordpool.txt	LTP085	ltpFR	4	13	0	GALLON	618	n/a	1	n/a	n/a	n/a	n/a	n/a
2602.142	n/a	REC_WORD	1301071	wordpools/wasnorm_wordpool.txt	LTP085	ltpFR	4	13	0	FOOTBALL	591	n/a	0	n/a	n/a	n/a	n/a	n/a
2603.534	n/a	REC_WORD	1301767	wordpools/wasnorm_wordpool.txt	LTP085	ltpFR	4	13	0	BASKETBALL	96	n/a	1	n/a	n/a	n/a	n/a	n/a
2625.146	n/a	REC_WORD	1312573	wordpools/wasnorm_wordpool.txt	LTP085	ltpFR	4	13	0	VAMPIRE	1547	n/a	1	n/a	n/a	n/a	n/a	n/a
2636.162	n/a	WORD	1318081	wordpools/wasnorm_wordpool.txt	LTP085	ltpFR	4	14	-1	LIMB	822	n/a	-1	1	1.0	1.0	upper	../fonts/Verdana.ttf
2640.328	n/a	WORD	1320164	wordpools/wasnorm_wordpool.txt	LTP085	ltpFR	4	14	-1	SAP	1233	n/a	-1	1	1.0	1.0	upper	../fonts/Verdana.ttf
2644.262	n/a	WORD	1322131	wordpools/wasnorm_wordpool.txt	LTP085	ltpFR	4	14	-1	SHOVEL	1295	n/a	-1	1	1.0	1.0	upper	../fonts/Verdana.ttf
2648.17	n/a	WORD	1324085	wordpools/wasnorm_wordpool.txt	LTP085	ltpFR	4	14	-1	COACH	331	n/a	-1	1	1.0	1.0	upper	../fonts/Verdana.ttf
2652.152	n/a	WORD	1326076	wordpools/wasnorm_wordpool.txt	LTP085	ltpFR	4	14	-1	IRON	744	n/a	-1	1	1.0	1.0	upper	../fonts/Verdana.ttf
2656.202	n/a	WORD	1328101	wordpools/wasnorm_wordpool.txt	LTP085	ltpFR	4	14	-1	STAPLER	1372	n/a	-1	1	1.0	1.0	upper	../fonts/Verdana.ttf
2660.344	n/a	WORD	1330172	wordpools/wasnorm_wordpool.txt	LTP085	ltpFR	4	14	-1	POWDER	1117	n/a	-1	1	1.0	1.0	upper	../fonts/Verdana.ttf
2664.17	n/a	WORD	1332085	wordpools/wasnorm_wordpool.txt	LTP085	ltpFR	4	14	-1	TEAM	1441	n/a	-1	1	1.0	1.0	upper	../fonts/Verdana.ttf
2668.128	n/a	WORD	1334064	wordpools/wasnorm_wordpool.txt	LTP085	ltpFR	4	14	-1	POLICE	1098	n/a	-1	1	1.0	1.0	upper	../fonts/Verdana.ttf
2672.036	n/a	WORD	1336018	wordpools/wasnorm_wordpool.txt	LTP085	ltpFR	4	14	-1	ENVELOPE	537	n/a	-1	1	1.0	1.0	upper	../fonts/Verdana.ttf
2676.152	n/a	WORD	1338076	wordpools/wasnorm_wordpool.txt	LTP085	ltpFR	4	14	-1	ASHTRAY	45	n/a	-1	1	1.0	1.0	upper	../fonts/Verdana.ttf
2680.112	n/a	WORD	1340056	wordpools/wasnorm_wordpool.txt	LTP085	ltpFR	4	14	-1	MOUTH	926	n/a	-1	1	1.0	1.0	upper	../fonts/Verdana.ttf
2684.004	n/a	WORD	1342002	wordpools/wasnorm_wordpool.txt	LTP085	ltpFR	4	14	-1	PLAQUE	1084	n/a	-1	1	1.0	1.0	upper	../fonts/Verdana.ttf
2688.136	n/a	WORD	1344068	wordpools/wasnorm_wordpool.txt	LTP085	ltpFR	4	14	-1	AGENT	10	n/a	-1	1	1.0	1.0	upper	../fonts/Verdana.ttf
2692.244	n/a	WORD	1346122	wordpools/wasnorm_wordpool.txt	LTP085	ltpFR	4	14	-1	DICTATOR	462	n/a	-1	1	1.0	1.0	upper	../fonts/Verdana.ttf
2696.184	n/a	WORD	1348092	wordpools/wasnorm_wordpool.txt	LTP085	ltpFR	4	14	-1	PELT	1040	n/a	-1	1	1.0	1.0	upper	../fonts/Verdana.ttf
2701.912	n/a	REC_START	1350956	n/a	LTP085	ltpFR	4	14	n/a	n/a	n/a	n/a	n/a	n/a	n/a	n/a	n/a	n/a
2703.648	n/a	REC_WORD	1351824	wordpools/wasnorm_wordpool.txt	LTP085	ltpFR	4	14	-1	LIMB	822	n/a	-1	n/a	n/a	n/a	n/a	n/a
2704.77	n/a	REC_WORD	1352385	wordpools/wasnorm_wordpool.txt	LTP085	ltpFR	4	14	-1	SAP	1233	n/a	-1	n/a	n/a	n/a	n/a	n/a
2706.666	n/a	REC_WORD	1353333	wordpools/wasnorm_wordpool.txt	LTP085	ltpFR	4	14	-1	SHOVEL	1295	n/a	-1	n/a	n/a	n/a	n/a	n/a
2709.824	n/a	REC_WORD	1354912	wordpools/wasnorm_wordpool.txt	LTP085	ltpFR	4	14	-1	COACH	331	n/a	-1	n/a	n/a	n/a	n/a	n/a
2711.476	n/a	REC_WORD	1355738	wordpools/wasnorm_wordpool.txt	LTP085	ltpFR	4	14	-1	IRON	744	n/a	-1	n/a	n/a	n/a	n/a	n/a
2713.426	n/a	REC_WORD	1356713	wordpools/wasnorm_wordpool.txt	LTP085	ltpFR	4	14	-1	STAPLER	1372	n/a	-1	n/a	n/a	n/a	n/a	n/a
2715.806	n/a	REC_WORD	1357903	wordpools/wasnorm_wordpool.txt	LTP085	ltpFR	4	14	-1	TEAM	1441	n/a	-1	n/a	n/a	n/a	n/a	n/a
2717.508	n/a	REC_WORD	1358754	wordpools/wasnorm_wordpool.txt	LTP085	ltpFR	4	14	-1	POLICE	1098	n/a	-1	n/a	n/a	n/a	n/a	n/a
2723.778	n/a	REC_WORD	1361889	wordpools/wasnorm_wordpool.txt	LTP085	ltpFR	4	14	-1	ASHTRAY	45	n/a	-1	n/a	n/a	n/a	n/a	n/a
2725.63	n/a	REC_WORD	1362815	wordpools/wasnorm_wordpool.txt	LTP085	ltpFR	4	14	-1	ENVELOPE	537	n/a	-1	n/a	n/a	n/a	n/a	n/a
2727.594	n/a	REC_WORD	1363797	wordpools/wasnorm_wordpool.txt	LTP085	ltpFR	4	14	-1	MOUTH	926	n/a	-1	n/a	n/a	n/a	n/a	n/a
2729.716	n/a	REC_WORD	1364858	wordpools/wasnorm_wordpool.txt	LTP085	ltpFR	4	14	-1	AGENT	10	n/a	-1	n/a	n/a	n/a	n/a	n/a
2731.386	n/a	REC_WORD	1365693	wordpools/wasnorm_wordpool.txt	LTP085	ltpFR	4	14	-1	PLAQUE	1084	n/a	-1	n/a	n/a	n/a	n/a	n/a
2733.95	n/a	REC_WORD	1366975	wordpools/wasnorm_wordpool.txt	LTP085	ltpFR	4	14	-1	DICTATOR	462	n/a	-1	n/a	n/a	n/a	n/a	n/a
2736.67	n/a	REC_WORD	1368335	wordpools/wasnorm_wordpool.txt	LTP085	ltpFR	4	14	-1	PELT	1040	n/a	-1	n/a	n/a	n/a	n/a	n/a
2757.694	n/a	REC_WORD	1378847	wordpools/wasnorm_wordpool.txt	LTP085	ltpFR	4	14	-1	MOUTH	926	n/a	-1	n/a	n/a	n/a	n/a	n/a
2800.976	n/a	WORD	1400488	wordpools/wasnorm_wordpool.txt	LTP085	ltpFR	4	15	1	TAIL	1430	n/a	0	1	0.412841796875	0.57763671875	upper	../fonts/zerothre.ttf
2805.116	n/a	WORD	1402558	wordpools/wasnorm_wordpool.txt	LTP085	ltpFR	4	15	1	COMPUTER	359	n/a	0	1	0.412841796875	0.57763671875	upper	../fonts/zerothre.ttf
2808.934	n/a	WORD	1404467	wordpools/wasnorm_wordpool.txt	LTP085	ltpFR	4	15	0	KEYBOARD	774	n/a	0	0	0.5869140625	0.422607421875	lower	../fonts/amplitud.ttf
2812.808	n/a	WORD	1406404	wordpools/wasnorm_wordpool.txt	LTP085	ltpFR	4	15	0	TUTU	1524	n/a	0	0	0.5869140625	0.422607421875	lower	../fonts/amplitud.ttf
2816.748	n/a	WORD	1408374	wordpools/wasnorm_wordpool.txt	LTP085	ltpFR	4	15	0	TOURIST	1488	n/a	1	0	0.5869140625	0.422607421875	lower	../fonts/amplitud.ttf
2820.95	n/a	WORD	1410475	wordpools/wasnorm_wordpool.txt	LTP085	ltpFR	4	15	0	SPOON	1357	n/a	0	0	0.5869140625	0.422607421875	lower	../fonts/amplitud.ttf
2824.992	n/a	WORD	1412496	wordpools/wasnorm_wordpool.txt	LTP085	ltpFR	4	15	0	CAPTAIN	239	n/a	1	0	0.5869140625	0.422607421875	lower	../fonts/amplitud.ttf
2828.966	n/a	WORD	1414483	wordpools/wasnorm_wordpool.txt	LTP085	ltpFR	4	15	0	TANK	1432	n/a	1	0	0.5869140625	0.422607421875	lower	../fonts/amplitud.ttf
2833.048	n/a	WORD	1416524	wordpools/wasnorm_wordpool.txt	LTP085	ltpFR	4	15	1	JUNGLE	764	n/a	0	1	0.412841796875	0.57763671875	upper	../fonts/zerothre.ttf
2837.198	n/a	WORD	1418599	wordpools/wasnorm_wordpool.txt	LTP085	ltpFR	4	15	1	CHESS	294	n/a	0	1	0.412841796875	0.57763671875	upper	../fonts/zerothre.ttf
2841.298	n/a	WORD	1420649	wordpools/wasnorm_wordpool.txt	LTP085	ltpFR	4	15	1	UMPIRE	1535	n/a	1	1	0.412841796875	0.57763671875	upper	../fonts/zerothre.ttf
2845.424	n/a	WORD	1422712	wordpools/wasnorm_wordpool.txt	LTP085	ltpFR	4	15	1	BRAN	167	n/a	0	1	0.412841796875	0.57763671875	upper	../fonts/zerothre.ttf
2849.464	n/a	WORD	1424732	wordpools/wasnorm_wordpool.txt	LTP085	ltpFR	4	15	0	ANTEATER	26	n/a	1	0	0.5869140625	0.422607421875	lower	../fonts/amplitud.ttf
2853.432	n/a	WORD	1426716	wordpools/wasnorm_wordpool.txt	LTP085	ltpFR	4	15	0	RUST	1219	n/a	0	0	0.5869140625	0.422607421875	lower	../fonts/amplitud.ttf
2857.364	n/a	WORD	1428682	wordpools/wasnorm_wordpool.txt	LTP085	ltpFR	4	15	1	COB	334	n/a	0	1	0.412841796875	0.57763671875	upper	../fonts/zerothre.ttf
2861.19	n/a	WORD	1430595	wordpools/wasnorm_wordpool.txt	LTP085	ltpFR	4	15	1	PUPPY	1144	n/a	1	1	0.412841796875	0.57763671875	upper	../fonts/zerothre.ttf
2866.892	n/a	REC_START	1433446	n/a	LTP085	ltpFR	4	15	n/a	n/a	n/a	n/a	n/a	n/a	n/a	n/a	n/a	n/a
2868.254	n/a	REC_WORD	1434127	wordpools/wasnorm_wordpool.txt	LTP085	ltpFR	4	15	1	PUPPY	1144	n/a	1	n/a	n/a	n/a	n/a	n/a
2869.556	n/a	REC_WORD	1434778	wordpools/wasnorm_wordpool.txt	LTP085	ltpFR	4	15	1	COB	334	n/a	0	n/a	n/a	n/a	n/a	n/a
2873.506	n/a	REC_WORD	1436753	wordpools/wasnorm_wordpool.txt	LTP085	ltpFR	4	15	0	ANTEATER	26	n/a	1	n/a	n/a	n/a	n/a	n/a
2876.664	n/a	REC_WORD	1438332	wordpools/wasnorm_wordpool.txt	LTP085	ltpFR	4	15	1	JUNGLE	764	n/a	0	n/a	n/a	n/a	n/a	n/a
2878.376	n/a	REC_WORD	1439188	wordpools/wasnorm_wordpool.txt	LTP085	ltpFR	4	15	0	SPOON	1357	n/a	0	n/a	n/a	n/a	n/a	n/a
2880.98	n/a	REC_WORD	1440490	wordpools/wasnorm_wordpool.txt	LTP085	ltpFR	4	15	1	CHESS	294	n/a	0	n/a	n/a	n/a	n/a	n/a
2883.74	n/a	REC_WORD	1441870	wordpools/wasnorm_wordpool.txt	LTP085	ltpFR	4	15	1	BRAN	167	n/a	0	n/a	n/a	n/a	n/a	n/a
2888.578	n/a	REC_WORD	1444289	wordpools/wasnorm_wordpool.txt	LTP085	ltpFR	4	15	1	UMPIRE	1535	n/a	1	n/a	n/a	n/a	n/a	n/a
2953.128	n/a	WORD	1476564	wordpools/wasnorm_wordpool.txt	LTP085	ltpFR	4	16	-1	SHED	1277	n/a	-1	1	1.0	1.0	upper	../fonts/Verdana.ttf
2957.078	n/a	WORD	1478539	wordpools/wasnorm_wordpool.txt	LTP085	ltpFR	4	16	-1	FLY	586	n/a	-1	1	1.0	1.0	upper	../fonts/Verdana.ttf
2960.896	n/a	WORD	1480448	wordpools/wasnorm_wordpool.txt	LTP085	ltpFR	4	16	-1	PAIL	1002	n/a	-1	1	1.0	1.0	upper	../fonts/Verdana.ttf
2964.896	n/a	WORD	1482448	wordpools/wasnorm_wordpool.txt	LTP085	ltpFR	4	16	-1	NEEDLE	941	n/a	-1	1	1.0	1.0	upper	../fonts/Verdana.ttf
2969.03	n/a	WORD	1484515	wordpools/wasnorm_wordpool.txt	LTP085	ltpFR	4	16	-1	ACID	2	n/a	-1	1	1.0	1.0	upper	../fonts/Verdana.ttf
2973.062	n/a	WORD	1486531	wordpools/wasnorm_wordpool.txt	LTP085	ltpFR	4	16	-1	CLOUD	328	n/a	-1	1	1.0	1.0	upper	../fonts/Verdana.ttf
2977.136	n/a	WORD	1488568	wordpools/wasnorm_wordpool.txt	LTP085	ltpFR	4	16	-1	LOG	841	n/a	-1	1	1.0	1.0	upper	../fonts/Verdana.ttf
2981.17	n/a	WORD	1490585	wordpools/wasnorm_wordpool.txt	LTP085	ltpFR	4	16	-1	DRAGON	492	n/a	-1	1	1.0	1.0	upper	../fonts/Verdana.ttf
2985.262	n/a	WORD	1492631	wordpools/wasnorm_wordpool.txt	LTP085	ltpFR	4	16	-1	NITROGEN	954	n/a	-1	1	1.0	1.0	upper	../fonts/Verdana.ttf
2989.212	n/a	WORD	1494606	wordpools/wasnorm_wordpool.txt	LTP085	ltpFR	4	16	-1	CHEMIST	292	n/a	-1	1	1.0	1.0	upper	../fonts/Verdana.ttf
2993.162	n/a	WORD	1496581	wordpools/wasnorm_wordpool.txt	LTP085	ltpFR	4	16	-1	WINGS	1614	n/a	-1	1	1.0	1.0	upper	../fonts/Verdana.ttf
2997.202	n/a	WORD	1498601	wordpools/wasnorm_wordpool.txt	LTP085	ltpFR	4	16	-1	BRUNETTE	181	n/a	-1	1	1.0	1.0	upper	../fonts/Verdana.ttf
3001.104	n/a	WORD	1500552	wordpools/wasnorm_wordpool.txt	LTP085	ltpFR	4	16	-1	BRICK	172	n/a	-1	1	1.0	1.0	upper	../fonts/Verdana.ttf
3005.262	n/a	WORD	1502631	wordpools/wasnorm_wordpool.txt	LTP085	ltpFR	4	16	-1	SPACE	1345	n/a	-1	1	1.0	1.0	upper	../fonts/Verdana.ttf
3009.22	n/a	WORD	1504610	wordpools/wasnorm_wordpool.txt	LTP085	ltpFR	4	16	-1	MARINE	869	n/a	-1	1	1.0	1.0	upper	../fonts/Verdana.ttf
3013.06	n/a	WORD	1506530	wordpools/wasnorm_wordpool.txt	LTP085	ltpFR	4	16	-1	MOAT	903	n/a	-1	1	1.0	1.0	upper	../fonts/Verdana.ttf
3019.136	n/a	REC_START	1509568	n/a	LTP085	ltpFR	4	16	n/a	n/a	n/a	n/a	n/a	n/a	n/a	n/a	n/a	n/a
3020.948	n/a	REC_WORD	1510474	wordpools/wasnorm_wordpool.txt	LTP085	ltpFR	4	16	-1	SHED	1277	n/a	-1	n/a	n/a	n/a	n/a	n/a
3022.094	n/a	REC_WORD	1511047	wordpools/wasnorm_wordpool.txt	LTP085	ltpFR	4	16	-1	FLY	586	n/a	-1	n/a	n/a	n/a	n/a	n/a
3023.69	n/a	REC_WORD	1511845	wordpools/wasnorm_wordpool.txt	LTP085	ltpFR	4	16	-1	PAIL	1002	n/a	-1	n/a	n/a	n/a	n/a	n/a
3025.456	n/a	REC_WORD	1512728	wordpools/wasnorm_wordpool.txt	LTP085	ltpFR	4	16	-1	NEEDLE	941	n/a	-1	n/a	n/a	n/a	n/a	n/a
3027.054	n/a	REC_WORD	1513527	wordpools/wasnorm_wordpool.txt	LTP085	ltpFR	4	16	-1	ACID	2	n/a	-1	n/a	n/a	n/a	n/a	n/a
3028.73	n/a	REC_WORD	1514365	wordpools/wasnorm_wordpool.txt	LTP085	ltpFR	4	16	-1	LOG	841	n/a	-1	n/a	n/a	n/a	n/a	n/a
3030.272	n/a	REC_WORD	1515136	wordpools/wasnorm_wordpool.txt	LTP085	ltpFR	4	16	-1	DRAGON	492	n/a	-1	n/a	n/a	n/a	n/a	n/a
3032.994	n/a	REC_WORD	1516497	wordpools/wasnorm_wordpool.txt	LTP085	ltpFR	4	16	-1	CHEMIST	292	n/a	-1	n/a	n/a	n/a	n/a	n/a
3036.112	n/a	REC_WORD	1518056	wordpools/wasnorm_wordpool.txt	LTP085	ltpFR	4	16	-1	WINGS	1614	n/a	-1	n/a	n/a	n/a	n/a	n/a
3039.306	n/a	REC_WORD	1519653	wordpools/wasnorm_wordpool.txt	LTP085	ltpFR	4	16	-1	BRUNETTE	181	n/a	-1	n/a	n/a	n/a	n/a	n/a
3041.636	n/a	REC_WORD	1520818	wordpools/wasnorm_wordpool.txt	LTP085	ltpFR	4	16	-1	NITROGEN	954	n/a	-1	n/a	n/a	n/a	n/a	n/a
3044.216	n/a	REC_WORD	1522108	wordpools/wasnorm_wordpool.txt	LTP085	ltpFR	4	16	-1	BRICK	172	n/a	-1	n/a	n/a	n/a	n/a	n/a
3046.112	n/a	REC_WORD	1523056	wordpools/wasnorm_wordpool.txt	LTP085	ltpFR	4	16	-1	MARINE	869	n/a	-1	n/a	n/a	n/a	n/a	n/a
3048.056	n/a	REC_WORD	1524028	wordpools/wasnorm_wordpool.txt	LTP085	ltpFR	4	16	-1	MOAT	903	n/a	-1	n/a	n/a	n/a	n/a	n/a
3132.534	n/a	REC_START	1566267	n/a	LTP085	ltpFR	4	1	n/a	n/a	n/a	n/a	n/a	n/a	n/a	n/a	n/a	n/a
3132.566	n/a	RECOG_TARGET	1566283	n/a	LTP085	ltpFR	4	1	-1	ORCHID	982	1	-1	n/a	n/a	n/a	n/a	n/a
3134.17	n/a	RECOG_RESP	1567085	n/a	LTP085	ltpFR	4	1	-1	ORCHID	982	n/a	-1	n/a	n/a	n/a	n/a	n/a
3136.18	n/a	RECOG_CONF	1568090	n/a	LTP085	ltpFR	4	1	-1	ORCHID	982	1	-1	n/a	n/a	n/a	n/a	n/a
3137.666	n/a	RECOG_TARGET	1568833	n/a	LTP085	ltpFR	4	1	-1	KIDNEY	776	5	-1	n/a	n/a	n/a	n/a	n/a
3138.394	n/a	RECOG_RESP	1569197	n/a	LTP085	ltpFR	4	1	-1	KIDNEY	776	n/a	-1	n/a	n/a	n/a	n/a	n/a
3139.542	n/a	RECOG_CONF	1569771	n/a	LTP085	ltpFR	4	1	-1	KIDNEY	776	5	-1	n/a	n/a	n/a	n/a	n/a
3141.034	n/a	RECOG_TARGET	1570517	n/a	LTP085	ltpFR	4	1	1	DILL	465	4	0	n/a	n/a	n/a	n/a	n/a
3141.748	n/a	RECOG_RESP	1570874	n/a	LTP085	ltpFR	4	1	1	DILL	465	n/a	0	n/a	n/a	n/a	n/a	n/a
3142.866	n/a	RECOG_CONF	1571433	n/a	LTP085	ltpFR	4	1	1	DILL	465	4	0	n/a	n/a	n/a	n/a	n/a
3144.3	n/a	RECOG_LURE	1572150	n/a	LTP085	ltpFR	4	1	n/a	ROCK	1201	2	n/a	n/a	n/a	n/a	n/a	n/a
3145.69	n/a	RECOG_RESP	1572845	n/a	LTP085	ltpFR	4	1	n/a	ROCK	1201	n/a	n/a	n/a	n/a	n/a	n/a	n/a
3146.816	n/a	RECOG_CONF	1573408	n/a	LTP085	ltpFR	4	1	n/a	ROCK	1201	2	n/a	n/a	n/a	n/a	n/a	n/a
3148.25	n/a	RECOG_LURE	1574125	n/a	LTP085	ltpFR	4	1	n/a	KNEE	784	2	n/a	n/a	n/a	n/a	n/a	n/a
3149.242	n/a	RECOG_RESP	1574621	n/a	LTP085	ltpFR	4	1	n/a	KNEE	784	n/a	n/a	n/a	n/a	n/a	n/a	n/a
3150.24	n/a	RECOG_CONF	1575120	n/a	LTP085	ltpFR	4	1	n/a	KNEE	784	2	n/a	n/a	n/a	n/a	n/a	n/a
3151.724	n/a	RECOG_TARGET	1575862	n/a	LTP085	ltpFR	4	1	-1	STAPLER	1372	5	-1	n/a	n/a	n/a	n/a	n/a
3152.324	n/a	RECOG_RESP	1576162	n/a	LTP085	ltpFR	4	1	-1	STAPLER	1372	n/a	-1	n/a	n/a	n/a	n/a	n/a
3153.224	n/a	RECOG_CONF	1576612	n/a	LTP085	ltpFR	4	1	-1	STAPLER	1372	5	-1	n/a	n/a	n/a	n/a	n/a
3154.842	n/a	RECOG_TARGET	1577421	n/a	LTP085	ltpFR	4	1	-1	PHYSICIAN	1056	5	-1	n/a	n/a	n/a	n/a	n/a
3155.586	n/a	RECOG_RESP	1577793	n/a	LTP085	ltpFR	4	1	-1	PHYSICIAN	1056	n/a	-1	n/a	n/a	n/a	n/a	n/a
3156.594	n/a	RECOG_CONF	1578297	n/a	LTP085	ltpFR	4	1	-1	PHYSICIAN	1056	5	-1	n/a	n/a	n/a	n/a	n/a
3158.042	n/a	RECOG_TARGET	1579021	n/a	LTP085	ltpFR	4	1	0	SCALLOP	1242	5	0	n/a	n/a	n/a	n/a	n/a
3158.71	n/a	RECOG_RESP	1579355	n/a	LTP085	ltpFR	4	1	0	SCALLOP	1242	n/a	0	n/a	n/a	n/a	n/a	n/a
3159.728	n/a	RECOG_CONF	1579864	n/a	LTP085	ltpFR	4	1	0	SCALLOP	1242	5	0	n/a	n/a	n/a	n/a	n/a
3161.266	n/a	RECOG_TARGET	1580633	n/a	LTP085	ltpFR	4	1	-1	BOMB	147	5	-1	n/a	n/a	n/a	n/a	n/a
3161.934	n/a	RECOG_RESP	1580967	n/a	LTP085	ltpFR	4	1	-1	BOMB	147	n/a	-1	n/a	n/a	n/a	n/a	n/a
3162.982	n/a	RECOG_CONF	1581491	n/a	LTP085	ltpFR	4	1	-1	BOMB	147	5	-1	n/a	n/a	n/a	n/a	n/a
3164.498	n/a	RECOG_TARGET	1582249	n/a	LTP085	ltpFR	4	1	-1	BUTTON	207	5	-1	n/a	n/a	n/a	n/a	n/a
3165.176	n/a	RECOG_RESP	1582588	n/a	LTP085	ltpFR	4	1	-1	BUTTON	207	n/a	-1	n/a	n/a	n/a	n/a	n/a
3166.164	n/a	RECOG_CONF	1583082	n/a	LTP085	ltpFR	4	1	-1	BUTTON	207	5	-1	n/a	n/a	n/a	n/a	n/a
3167.666	n/a	RECOG_TARGET	1583833	n/a	LTP085	ltpFR	4	1	0	CEMETERY	269	5	1	n/a	n/a	n/a	n/a	n/a
3168.28	n/a	RECOG_RESP	1584140	n/a	LTP085	ltpFR	4	1	0	CEMETERY	269	n/a	1	n/a	n/a	n/a	n/a	n/a
3169.326	n/a	RECOG_CONF	1584663	n/a	LTP085	ltpFR	4	1	0	CEMETERY	269	5	1	n/a	n/a	n/a	n/a	n/a
3170.79	n/a	RECOG_LURE	1585395	n/a	LTP085	ltpFR	4	1	n/a	BUTLER	204	2	n/a	n/a	n/a	n/a	n/a	n/a
3173.118	n/a	RECOG_RESP	1586559	n/a	LTP085	ltpFR	4	1	n/a	BUTLER	204	n/a	n/a	n/a	n/a	n/a	n/a	n/a
3174.456	n/a	RECOG_CONF	1587228	n/a	LTP085	ltpFR	4	1	n/a	BUTLER	204	2	n/a	n/a	n/a	n/a	n/a	n/a
3176.056	n/a	RECOG_TARGET	1588028	n/a	LTP085	ltpFR	4	1	0	HAMMER	680	3	1	n/a	n/a	n/a	n/a	n/a
3176.65	n/a	RECOG_RESP	1588325	n/a	LTP085	ltpFR	4	1	0	HAMMER	680	n/a	1	n/a	n/a	n/a	n/a	n/a
3177.598	n/a	RECOG_CONF	1588799	n/a	LTP085	ltpFR	4	1	0	HAMMER	680	3	1	n/a	n/a	n/a	n/a	n/a
3179.182	n/a	RECOG_LURE	1589591	n/a	LTP085	ltpFR	4	1	n/a	GOAT	644	2	n/a	n/a	n/a	n/a	n/a	n/a
3180.202	n/a	RECOG_RESP	1590101	n/a	LTP085	ltpFR	4	1	n/a	GOAT	644	n/a	n/a	n/a	n/a	n/a	n/a	n/a
3181.39	n/a	RECOG_CONF	1590695	n/a	LTP085	ltpFR	4	1	n/a	GOAT	644	2	n/a	n/a	n/a	n/a	n/a	n/a
3182.908	n/a	RECOG_TARGET	1591454	n/a	LTP085	ltpFR	4	1	1	PAPER	1011	3	0	n/a	n/a	n/a	n/a	n/a
3183.576	n/a	RECOG_RESP	1591788	n/a	LTP085	ltpFR	4	1	1	PAPER	1011	n/a	0	n/a	n/a	n/a	n/a	n/a
3184.682	n/a	RECOG_CONF	1592341	n/a	LTP085	ltpFR	4	1	1	PAPER	1011	3	0	n/a	n/a	n/a	n/a	n/a
3186.214	n/a	RECOG_LURE	1593107	n/a	LTP085	ltpFR	4	1	n/a	OATS	968	2	n/a	n/a	n/a	n/a	n/a	n/a
3187.426	n/a	RECOG_RESP	1593713	n/a	LTP085	ltpFR	4	1	n/a	OATS	968	n/a	n/a	n/a	n/a	n/a	n/a	n/a
3188.584	n/a	RECOG_CONF	1594292	n/a	LTP085	ltpFR	4	1	n/a	OATS	968	2	n/a	n/a	n/a	n/a	n/a	n/a
3190.064	n/a	RECOG_TARGET	1595032	n/a	LTP085	ltpFR	4	1	1	TEA	1439	1	0	n/a	n/a	n/a	n/a	n/a
3191.238	n/a	RECOG_RESP	1595619	n/a	LTP085	ltpFR	4	1	1	TEA	1439	n/a	0	n/a	n/a	n/a	n/a	n/a
3192.554	n/a	RECOG_CONF	1596277	n/a	LTP085	ltpFR	4	1	1	TEA	1439	1	0	n/a	n/a	n/a	n/a	n/a
3194.064	n/a	RECOG_TARGET	1597032	n/a	LTP085	ltpFR	4	1	0	OYSTER	995	3	0	n/a	n/a	n/a	n/a	n/a
3194.62	n/a	RECOG_RESP	1597310	n/a	LTP085	ltpFR	4	1	0	OYSTER	995	n/a	0	n/a	n/a	n/a	n/a	n/a
3195.598	n/a	RECOG_CONF	1597799	n/a	LTP085	ltpFR	4	1	0	OYSTER	995	3	0	n/a	n/a	n/a	n/a	n/a
3197.048	n/a	RECOG_TARGET	1598524	n/a	LTP085	ltpFR	4	1	0	ALLIGATOR	16	3	1	n/a	n/a	n/a	n/a	n/a
3197.694	n/a	RECOG_RESP	1598847	n/a	LTP085	ltpFR	4	1	0	ALLIGATOR	16	n/a	1	n/a	n/a	n/a	n/a	n/a
3198.68	n/a	RECOG_CONF	1599340	n/a	LTP085	ltpFR	4	1	0	ALLIGATOR	16	3	1	n/a	n/a	n/a	n/a	n/a
3200.114	n/a	RECOG_TARGET	1600057	n/a	LTP085	ltpFR	4	1	0	SQUID	1361	3	1	n/a	n/a	n/a	n/a	n/a
3201.726	n/a	RECOG_RESP	1600863	n/a	LTP085	ltpFR	4	1	0	SQUID	1361	n/a	1	n/a	n/a	n/a	n/a	n/a
3202.942	n/a	RECOG_CONF	1601471	n/a	LTP085	ltpFR	4	1	0	SQUID	1361	3	1	n/a	n/a	n/a	n/a	n/a
3206.656	n/a	REC_START	1603328	n/a	LTP085	ltpFR	4	2	n/a	n/a	n/a	n/a	n/a	n/a	n/a	n/a	n/a	n/a
3206.69	n/a	RECOG_TARGET	1603345	n/a	LTP085	ltpFR	4	2	1	TURKEY	1520	2	1	n/a	n/a	n/a	n/a	n/a
3207.812	n/a	RECOG_RESP	1603906	n/a	LTP085	ltpFR	4	2	1	TURKEY	1520	n/a	1	n/a	n/a	n/a	n/a	n/a
3208.936	n/a	RECOG_CONF	1604468	n/a	LTP085	ltpFR	4	2	1	TURKEY	1520	2	1	n/a	n/a	n/a	n/a	n/a
3210.456	n/a	RECOG_TARGET	1605228	n/a	LTP085	ltpFR	4	2	-1	FLOWER	584	3	-1	n/a	n/a	n/a	n/a	n/a
3211.778	n/a	RECOG_RESP	1605889	n/a	LTP085	ltpFR	4	2	-1	FLOWER	584	n/a	-1	n/a	n/a	n/a	n/a	n/a
3212.856	n/a	RECOG_CONF	1606428	n/a	LTP085	ltpFR	4	2	-1	FLOWER	584	3	-1	n/a	n/a	n/a	n/a	n/a
3214.43	n/a	RECOG_LURE	1607215	n/a	LTP085	ltpFR	4	2	n/a	PEPPER	1047	1	n/a	n/a	n/a	n/a	n/a	n/a
3215.884	n/a	RECOG_RESP	1607942	n/a	LTP085	ltpFR	4	2	n/a	PEPPER	1047	n/a	n/a	n/a	n/a	n/a	n/a	n/a
3217.086	n/a	RECOG_CONF	1608543	n/a	LTP085	ltpFR	4	2	n/a	PEPPER	1047	1	n/a	n/a	n/a	n/a	n/a	n/a
3218.522	n/a	RECOG_TARGET	1609261	n/a	LTP085	ltpFR	4	2	0	LOAF	835	4	0	n/a	n/a	n/a	n/a	n/a
3219.142	n/a	RECOG_RESP	1609571	n/a	LTP085	ltpFR	4	2	0	LOAF	835	n/a	0	n/a	n/a	n/a	n/a	n/a
3220.24	n/a	RECOG_CONF	1610120	n/a	LTP085	ltpFR	4	2	0	LOAF	835	4	0	n/a	n/a	n/a	n/a	n/a
3221.772	n/a	RECOG_LURE	1610886	n/a	LTP085	ltpFR	4	2	n/a	CUSTARD	429	2	n/a	n/a	n/a	n/a	n/a	n/a
3223.134	n/a	RECOG_RESP	1611567	n/a	LTP085	ltpFR	4	2	n/a	CUSTARD	429	n/a	n/a	n/a	n/a	n/a	n/a	n/a
3224.372	n/a	RECOG_CONF	1612186	n/a	LTP085	ltpFR	4	2	n/a	CUSTARD	429	2	n/a	n/a	n/a	n/a	n/a	n/a
3225.982	n/a	RECOG_TARGET	1612991	n/a	LTP085	ltpFR	4	2	0	SEAL	1262	3	1	n/a	n/a	n/a	n/a	n/a
3226.566	n/a	RECOG_RESP	1613283	n/a	LTP085	ltpFR	4	2	0	SEAL	1262	n/a	1	n/a	n/a	n/a	n/a	n/a
3227.664	n/a	RECOG_CONF	1613832	n/a	LTP085	ltpFR	4	2	0	SEAL	1262	3	1	n/a	n/a	n/a	n/a	n/a
3229.206	n/a	RECOG_TARGET	1614603	n/a	LTP085	ltpFR	4	2	0	VILLAIN	1567	3	1	n/a	n/a	n/a	n/a	n/a
3229.778	n/a	RECOG_RESP	1614889	n/a	LTP085	ltpFR	4	2	0	VILLAIN	1567	n/a	1	n/a	n/a	n/a	n/a	n/a
3230.826	n/a	RECOG_CONF	1615413	n/a	LTP085	ltpFR	4	2	0	VILLAIN	1567	3	1	n/a	n/a	n/a	n/a	n/a
3232.214	n/a	RECOG_LURE	1616107	n/a	LTP085	ltpFR	4	2	n/a	BUNNY	198	1	n/a	n/a	n/a	n/a	n/a	n/a
3233.192	n/a	RECOG_RESP	1616596	n/a	LTP085	ltpFR	4	2	n/a	BUNNY	198	n/a	n/a	n/a	n/a	n/a	n/a	n/a
3234.518	n/a	RECOG_CONF	1617259	n/a	LTP085	ltpFR	4	2	n/a	BUNNY	198	1	n/a	n/a	n/a	n/a	n/a	n/a
3235.98	n/a	RECOG_LURE	1617990	n/a	LTP085	ltpFR	4	2	n/a	BLADE	134	2	n/a	n/a	n/a	n/a	n/a	n/a
3236.832	n/a	RECOG_RESP	1618416	n/a	LTP085	ltpFR	4	2	n/a	BLADE	134	n/a	n/a	n/a	n/a	n/a	n/a	n/a
3237.87	n/a	RECOG_CONF	1618935	n/a	LTP085	ltpFR	4	2	n/a	BLADE	134	2	n/a	n/a	n/a	n/a	n/a	n/a
3239.396	n/a	RECOG_TARGET	1619698	n/a	LTP085	ltpFR	4	2	0	GHETTO	633	5	1	n/a	n/a	n/a	n/a	n/a
3239.976	n/a	RECOG_RESP	1619988	n/a	LTP085	ltpFR	4	2	0	GHETTO	633	n/a	1	n/a	n/a	n/a	n/a	n/a
3240.964	n/a	RECOG_CONF	1620482	n/a	LTP085	ltpFR	4	2	0	GHETTO	633	5	1	n/a	n/a	n/a	n/a	n/a
3242.422	n/a	RECOG_LURE	1621211	n/a	LTP085	ltpFR	4	2	n/a	OMELET	976	2	n/a	n/a	n/a	n/a	n/a	n/a
3243.28	n/a	RECOG_RESP	1621640	n/a	LTP085	ltpFR	4	2	n/a	OMELET	976	n/a	n/a	n/a	n/a	n/a	n/a	n/a
3244.266	n/a	RECOG_CONF	1622133	n/a	LTP085	ltpFR	4	2	n/a	OMELET	976	2	n/a	n/a	n/a	n/a	n/a	n/a
3245.756	n/a	RECOG_TARGET	1622878	n/a	LTP085	ltpFR	4	2	1	DIVER	476	5	1	n/a	n/a	n/a	n/a	n/a
3246.262	n/a	RECOG_RESP	1623131	n/a	LTP085	ltpFR	4	2	1	DIVER	476	n/a	1	n/a	n/a	n/a	n/a	n/a
3247.27	n/a	RECOG_CONF	1623635	n/a	LTP085	ltpFR	4	2	1	DIVER	476	5	1	n/a	n/a	n/a	n/a	n/a
3248.78	n/a	RECOG_LURE	1624390	n/a	LTP085	ltpFR	4	2	n/a	BATHTUB	100	2	n/a	n/a	n/a	n/a	n/a	n/a
3249.844	n/a	RECOG_RESP	1624922	n/a	LTP085	ltpFR	4	2	n/a	BATHTUB	100	n/a	n/a	n/a	n/a	n/a	n/a	n/a
3250.892	n/a	RECOG_CONF	1625446	n/a	LTP085	ltpFR	4	2	n/a	BATHTUB	100	2	n/a	n/a	n/a	n/a	n/a	n/a
3252.388	n/a	RECOG_TARGET	1626194	n/a	LTP085	ltpFR	4	2	0	DOLL	481	5	0	n/a	n/a	n/a	n/a	n/a
3252.878	n/a	RECOG_RESP	1626439	n/a	LTP085	ltpFR	4	2	0	DOLL	481	n/a	0	n/a	n/a	n/a	n/a	n/a
3253.826	n/a	RECOG_CONF	1626913	n/a	LTP085	ltpFR	4	2	0	DOLL	481	5	0	n/a	n/a	n/a	n/a	n/a
3255.404	n/a	RECOG_TARGET	1627702	n/a	LTP085	ltpFR	4	2	1	ATHLETE	52	5	1	n/a	n/a	n/a	n/a	n/a
3255.94	n/a	RECOG_RESP	1627970	n/a	LTP085	ltpFR	4	2	1	ATHLETE	52	n/a	1	n/a	n/a	n/a	n/a	n/a
3256.928	n/a	RECOG_CONF	1628464	n/a	LTP085	ltpFR	4	2	1	ATHLETE	52	5	1	n/a	n/a	n/a	n/a	n/a
3258.48	n/a	RECOG_TARGET	1629240	n/a	LTP085	ltpFR	4	2	1	TECHNICIAN	1443	5	1	n/a	n/a	n/a	n/a	n/a
3259.084	n/a	RECOG_RESP	1629542	n/a	LTP085	ltpFR	4	2	1	TECHNICIAN	1443	n/a	1	n/a	n/a	n/a	n/a	n/a
3260.14	n/a	RECOG_CONF	1630070	n/a	LTP085	ltpFR	4	2	1	TECHNICIAN	1443	5	1	n/a	n/a	n/a	n/a	n/a
3261.796	n/a	RECOG_TARGET	1630898	n/a	LTP085	ltpFR	4	2	0	FENCE	560	3	0	n/a	n/a	n/a	n/a	n/a
3262.926	n/a	RECOG_RESP	1631463	n/a	LTP085	ltpFR	4	2	0	FENCE	560	n/a	0	n/a	n/a	n/a	n/a	n/a
3263.914	n/a	RECOG_CONF	1631957	n/a	LTP085	ltpFR	4	2	0	FENCE	560	3	0	n/a	n/a	n/a	n/a	n/a
3265.58	n/a	RECOG_TARGET	1632790	n/a	LTP085	ltpFR	4	2	-1	CLOUD	328	4	-1	n/a	n/a	n/a	n/a	n/a
3266.198	n/a	RECOG_RESP	1633099	n/a	LTP085	ltpFR	4	2	-1	CLOUD	328	n/a	-1	n/a	n/a	n/a	n/a	n/a
3267.246	n/a	RECOG_CONF	1633623	n/a	LTP085	ltpFR	4	2	-1	CLOUD	328	4	-1	n/a	n/a	n/a	n/a	n/a
3268.688	n/a	RECOG_TARGET	1634344	n/a	LTP085	ltpFR	4	2	1	FINGER	567	4	1	n/a	n/a	n/a	n/a	n/a
3269.39	n/a	RECOG_RESP	1634695	n/a	LTP085	ltpFR	4	2	1	FINGER	567	n/a	1	n/a	n/a	n/a	n/a	n/a
3270.478	n/a	RECOG_CONF	1635239	n/a	LTP085	ltpFR	4	2	1	FINGER	567	4	1	n/a	n/a	n/a	n/a	n/a
3271.988	n/a	RECOG_TARGET	1635994	n/a	LTP085	ltpFR	4	2	-1	MOUTH	926	5	-1	n/a	n/a	n/a	n/a	n/a
3272.564	n/a	RECOG_RESP	1636282	n/a	LTP085	ltpFR	4	2	-1	MOUTH	926	n/a	-1	n/a	n/a	n/a	n/a	n/a
3273.602	n/a	RECOG_CONF	1636801	n/a	LTP085	ltpFR	4	2	-1	MOUTH	926	5	-1	n/a	n/a	n/a	n/a	n/a
3276.958	n/a	REC_START	1638479	n/a	LTP085	ltpFR	4	3	n/a	n/a	n/a	n/a	n/a	n/a	n/a	n/a	n/a	n/a
3276.988	n/a	RECOG_TARGET	1638494	n/a	LTP085	ltpFR	4	3	1	POOL	1103	4	0	n/a	n/a	n/a	n/a	n/a
3277.702	n/a	RECOG_RESP	1638851	n/a	LTP085	ltpFR	4	3	1	POOL	1103	n/a	0	n/a	n/a	n/a	n/a	n/a
3278.65	n/a	RECOG_CONF	1639325	n/a	LTP085	ltpFR	4	3	1	POOL	1103	4	0	n/a	n/a	n/a	n/a	n/a
3280.246	n/a	RECOG_TARGET	1640123	n/a	LTP085	ltpFR	4	3	0	CHIMPANZEE	302	4	1	n/a	n/a	n/a	n/a	n/a
3280.734	n/a	RECOG_RESP	1640367	n/a	LTP085	ltpFR	4	3	0	CHIMPANZEE	302	n/a	1	n/a	n/a	n/a	n/a	n/a
3281.764	n/a	RECOG_CONF	1640882	n/a	LTP085	ltpFR	4	3	0	CHIMPANZEE	302	4	1	n/a	n/a	n/a	n/a	n/a
3283.172	n/a	RECOG_TARGET	1641586	n/a	LTP085	ltpFR	4	3	1	SHORTCAKE	1292	4	0	n/a	n/a	n/a	n/a	n/a
3283.798	n/a	RECOG_RESP	1641899	n/a	LTP085	ltpFR	4	3	1	SHORTCAKE	1292	n/a	0	n/a	n/a	n/a	n/a	n/a
3284.896	n/a	RECOG_CONF	1642448	n/a	LTP085	ltpFR	4	3	1	SHORTCAKE	1292	4	0	n/a	n/a	n/a	n/a	n/a
3286.37	n/a	RECOG_TARGET	1643185	n/a	LTP085	ltpFR	4	3	0	SOCIETY	1338	5	1	n/a	n/a	n/a	n/a	n/a
3287.22	n/a	RECOG_RESP	1643610	n/a	LTP085	ltpFR	4	3	0	SOCIETY	1338	n/a	1	n/a	n/a	n/a	n/a	n/a
3288.198	n/a	RECOG_CONF	1644099	n/a	LTP085	ltpFR	4	3	0	SOCIETY	1338	5	1	n/a	n/a	n/a	n/a	n/a
3289.72	n/a	RECOG_TARGET	1644860	n/a	LTP085	ltpFR	4	3	0	MONGOOSE	909	4	1	n/a	n/a	n/a	n/a	n/a
3290.304	n/a	RECOG_RESP	1645152	n/a	LTP085	ltpFR	4	3	0	MONGOOSE	909	n/a	1	n/a	n/a	n/a	n/a	n/a
3291.382	n/a	RECOG_CONF	1645691	n/a	LTP085	ltpFR	4	3	0	MONGOOSE	909	4	1	n/a	n/a	n/a	n/a	n/a
3292.896	n/a	RECOG_TARGET	1646448	n/a	LTP085	ltpFR	4	3	0	BROOK	177	2	0	n/a	n/a	n/a	n/a	n/a
3294.624	n/a	RECOG_RESP	1647312	n/a	LTP085	ltpFR	4	3	0	BROOK	177	n/a	0	n/a	n/a	n/a	n/a	n/a
3295.872	n/a	RECOG_CONF	1647936	n/a	LTP085	ltpFR	4	3	0	BROOK	177	2	0	n/a	n/a	n/a	n/a	n/a
3297.386	n/a	RECOG_LURE	1648693	n/a	LTP085	ltpFR	4	3	n/a	VALVE	1546	2	n/a	n/a	n/a	n/a	n/a	n/a
3298.226	n/a	RECOG_RESP	1649113	n/a	LTP085	ltpFR	4	3	n/a	VALVE	1546	n/a	n/a	n/a	n/a	n/a	n/a	n/a
3299.444	n/a	RECOG_CONF	1649722	n/a	LTP085	ltpFR	4	3	n/a	VALVE	1546	2	n/a	n/a	n/a	n/a	n/a	n/a
3300.938	n/a	RECOG_TARGET	1650469	n/a	LTP085	ltpFR	4	3	0	PERSON	1052	3	1	n/a	n/a	n/a	n/a	n/a
3301.59	n/a	RECOG_RESP	1650795	n/a	LTP085	ltpFR	4	3	0	PERSON	1052	n/a	1	n/a	n/a	n/a	n/a	n/a
3302.598	n/a	RECOG_CONF	1651299	n/a	LTP085	ltpFR	4	3	0	PERSON	1052	3	1	n/a	n/a	n/a	n/a	n/a
3304.046	n/a	RECOG_TARGET	1652023	n/a	LTP085	ltpFR	4	3	1	BULLY	196	4	0	n/a	n/a	n/a	n/a	n/a
3304.682	n/a	RECOG_RESP	1652341	n/a	LTP085	ltpFR	4	3	1	BULLY	196	n/a	0	n/a	n/a	n/a	n/a	n/a
3305.66	n/a	RECOG_CONF	1652830	n/a	LTP085	ltpFR	4	3	1	BULLY	196	4	0	n/a	n/a	n/a	n/a	n/a
3307.162	n/a	RECOG_TARGET	1653581	n/a	LTP085	ltpFR	4	3	1	BOX	159	4	0	n/a	n/a	n/a	n/a	n/a
3307.726	n/a	RECOG_RESP	1653863	n/a	LTP085	ltpFR	4	3	1	BOX	159	n/a	0	n/a	n/a	n/a	n/a	n/a
3308.734	n/a	RECOG_CONF	1654367	n/a	LTP085	ltpFR	4	3	1	BOX	159	4	0	n/a	n/a	n/a	n/a	n/a
3310.212	n/a	RECOG_LURE	1655106	n/a	LTP085	ltpFR	4	3	n/a	MONK	910	2	n/a	n/a	n/a	n/a	n/a	n/a
3311.368	n/a	RECOG_RESP	1655684	n/a	LTP085	ltpFR	4	3	n/a	MONK	910	n/a	n/a	n/a	n/a	n/a	n/a	n/a
3312.454	n/a	RECOG_CONF	1656227	n/a	LTP085	ltpFR	4	3	n/a	MONK	910	2	n/a	n/a	n/a	n/a	n/a	n/a
3313.88	n/a	RECOG_TARGET	1656940	n/a	LTP085	ltpFR	4	3	1	RASPBERRY	1168	4	0	n/a	n/a	n/a	n/a	n/a
3314.44	n/a	RECOG_RESP	1657220	n/a	LTP085	ltpFR	4	3	1	RASPBERRY	1168	n/a	0	n/a	n/a	n/a	n/a	n/a
3315.468	n/a	RECOG_CONF	1657734	n/a	LTP085	ltpFR	4	3	1	RASPBERRY	1168	4	0	n/a	n/a	n/a	n/a	n/a
3316.878	n/a	RECOG_TARGET	1658439	n/a	LTP085	ltpFR	4	3	1	STREAM	1392	2	0	n/a	n/a	n/a	n/a	n/a
3318.032	n/a	RECOG_RESP	1659016	n/a	LTP085	ltpFR	4	3	1	STREAM	1392	n/a	0	n/a	n/a	n/a	n/a	n/a
3319.12	n/a	RECOG_CONF	1659560	n/a	LTP085	ltpFR	4	3	1	STREAM	1392	2	0	n/a	n/a	n/a	n/a	n/a
3320.61	n/a	RECOG_TARGET	1660305	n/a	LTP085	ltpFR	4	3	1	VETERAN	1561	4	1	n/a	n/a	n/a	n/a	n/a
3321.386	n/a	RECOG_RESP	1660693	n/a	LTP085	ltpFR	4	3	1	VETERAN	1561	n/a	1	n/a	n/a	n/a	n/a	n/a
3322.394	n/a	RECOG_CONF	1661197	n/a	LTP085	ltpFR	4	3	1	VETERAN	1561	4	1	n/a	n/a	n/a	n/a	n/a
3323.896	n/a	RECOG_LURE	1661948	n/a	LTP085	ltpFR	4	3	n/a	ROOT	1210	2	n/a	n/a	n/a	n/a	n/a	n/a
3325.266	n/a	RECOG_RESP	1662633	n/a	LTP085	ltpFR	4	3	n/a	ROOT	1210	n/a	n/a	n/a	n/a	n/a	n/a	n/a
3326.344	n/a	RECOG_CONF	1663172	n/a	LTP085	ltpFR	4	3	n/a	ROOT	1210	2	n/a	n/a	n/a	n/a	n/a	n/a
3327.786	n/a	RECOG_TARGET	1663893	n/a	LTP085	ltpFR	4	3	0	CAPTAIN	239	3	1	n/a	n/a	n/a	n/a	n/a
3328.918	n/a	RECOG_RESP	1664459	n/a	LTP085	ltpFR	4	3	0	CAPTAIN	239	n/a	1	n/a	n/a	n/a	n/a	n/a
3329.886	n/a	RECOG_CONF	1664943	n/a	LTP085	ltpFR	4	3	0	CAPTAIN	239	3	1	n/a	n/a	n/a	n/a	n/a
3331.344	n/a	RECOG_TARGET	1665672	n/a	LTP085	ltpFR	4	3	1	BOWL	158	1	0	n/a	n/a	n/a	n/a	n/a
3332.56	n/a	RECOG_RESP	1666280	n/a	LTP085	ltpFR	4	3	1	BOWL	158	n/a	0	n/a	n/a	n/a	n/a	n/a
3333.688	n/a	RECOG_CONF	1666844	n/a	LTP085	ltpFR	4	3	1	BOWL	158	1	0	n/a	n/a	n/a	n/a	n/a
3335.152	n/a	RECOG_TARGET	1667576	n/a	LTP085	ltpFR	4	3	1	MARGARINE	868	4	0	n/a	n/a	n/a	n/a	n/a
3335.832	n/a	RECOG_RESP	1667916	n/a	LTP085	ltpFR	4	3	1	MARGARINE	868	n/a	0	n/a	n/a	n/a	n/a	n/a
3336.8	n/a	RECOG_CONF	1668400	n/a	LTP085	ltpFR	4	3	1	MARGARINE	868	4	0	n/a	n/a	n/a	n/a	n/a
3338.318	n/a	RECOG_LURE	1669159	n/a	LTP085	ltpFR	4	3	n/a	TELESCOPE	1446	2	n/a	n/a	n/a	n/a	n/a	n/a
3339.136	n/a	RECOG_RESP	1669568	n/a	LTP085	ltpFR	4	3	n/a	TELESCOPE	1446	n/a	n/a	n/a	n/a	n/a	n/a	n/a
3340.212	n/a	RECOG_CONF	1670106	n/a	LTP085	ltpFR	4	3	n/a	TELESCOPE	1446	2	n/a	n/a	n/a	n/a	n/a	n/a
3341.744	n/a	RECOG_TARGET	1670872	n/a	LTP085	ltpFR	4	3	0	RACK	1154	2	1	n/a	n/a	n/a	n/a	n/a
3342.718	n/a	RECOG_RESP	1671359	n/a	LTP085	ltpFR	4	3	0	RACK	1154	n/a	1	n/a	n/a	n/a	n/a	n/a
3343.686	n/a	RECOG_CONF	1671843	n/a	LTP085	ltpFR	4	3	0	RACK	1154	2	1	n/a	n/a	n/a	n/a	n/a
3347.43	n/a	REC_START	1673715	n/a	LTP085	ltpFR	4	4	n/a	n/a	n/a	n/a	n/a	n/a	n/a	n/a	n/a	n/a
3347.46	n/a	RECOG_TARGET	1673730	n/a	LTP085	ltpFR	4	4	0	BEETLE	116	4	0	n/a	n/a	n/a	n/a	n/a
3348.114	n/a	RECOG_RESP	1674057	n/a	LTP085	ltpFR	4	4	0	BEETLE	116	n/a	0	n/a	n/a	n/a	n/a	n/a
3349.072	n/a	RECOG_CONF	1674536	n/a	LTP085	ltpFR	4	4	0	BEETLE	116	4	0	n/a	n/a	n/a	n/a	n/a
3350.62	n/a	RECOG_TARGET	1675310	n/a	LTP085	ltpFR	4	4	0	SALAD	1224	4	0	n/a	n/a	n/a	n/a	n/a
3351.346	n/a	RECOG_RESP	1675673	n/a	LTP085	ltpFR	4	4	0	SALAD	1224	n/a	0	n/a	n/a	n/a	n/a	n/a
3352.244	n/a	RECOG_CONF	1676122	n/a	LTP085	ltpFR	4	4	0	SALAD	1224	4	0	n/a	n/a	n/a	n/a	n/a
3353.81	n/a	RECOG_TARGET	1676905	n/a	LTP085	ltpFR	4	4	0	GALLON	618	5	1	n/a	n/a	n/a	n/a	n/a
3354.42	n/a	RECOG_RESP	1677210	n/a	LTP085	ltpFR	4	4	0	GALLON	618	n/a	1	n/a	n/a	n/a	n/a	n/a
3355.418	n/a	RECOG_CONF	1677709	n/a	LTP085	ltpFR	4	4	0	GALLON	618	5	1	n/a	n/a	n/a	n/a	n/a
3357.012	n/a	RECOG_LURE	1678506	n/a	LTP085	ltpFR	4	4	n/a	LASH	802	1	n/a	n/a	n/a	n/a	n/a	n/a
3358.256	n/a	RECOG_RESP	1679128	n/a	LTP085	ltpFR	4	4	n/a	LASH	802	n/a	n/a	n/a	n/a	n/a	n/a	n/a
3359.418	n/a	RECOG_CONF	1679709	n/a	LTP085	ltpFR	4	4	n/a	LASH	802	1	n/a	n/a	n/a	n/a	n/a	n/a
3361.002	n/a	RECOG_TARGET	1680501	n/a	LTP085	ltpFR	4	4	1	CORAL	378	3	0	n/a	n/a	n/a	n/a	n/a
3361.694	n/a	RECOG_RESP	1680847	n/a	LTP085	ltpFR	4	4	1	CORAL	378	n/a	0	n/a	n/a	n/a	n/a	n/a
3362.752	n/a	RECOG_CONF	1681376	n/a	LTP085	ltpFR	4	4	1	CORAL	378	3	0	n/a	n/a	n/a	n/a	n/a
3364.578	n/a	RECOG_LURE	1682289	n/a	LTP085	ltpFR	4	4	n/a	ICEBERG	731	2	n/a	n/a	n/a	n/a	n/a	n/a
3365.376	n/a	RECOG_RESP	1682688	n/a	LTP085	ltpFR	4	4	n/a	ICEBERG	731	n/a	n/a	n/a	n/a	n/a	n/a	n/a
3366.404	n/a	RECOG_CONF	1683202	n/a	LTP085	ltpFR	4	4	n/a	ICEBERG	731	2	n/a	n/a	n/a	n/a	n/a	n/a
3367.904	n/a	RECOG_LURE	1683952	n/a	LTP085	ltpFR	4	4	n/a	OAR	966	2	n/a	n/a	n/a	n/a	n/a	n/a
3368.798	n/a	RECOG_RESP	1684399	n/a	LTP085	ltpFR	4	4	n/a	OAR	966	n/a	n/a	n/a	n/a	n/a	n/a	n/a
3369.796	n/a	RECOG_CONF	1684898	n/a	LTP085	ltpFR	4	4	n/a	OAR	966	2	n/a	n/a	n/a	n/a	n/a	n/a
3371.336	n/a	RECOG_LURE	1685668	n/a	LTP085	ltpFR	4	4	n/a	HANDKERCHIEF	686	2	n/a	n/a	n/a	n/a	n/a	n/a
3372.14	n/a	RECOG_RESP	1686070	n/a	LTP085	ltpFR	4	4	n/a	HANDKERCHIEF	686	n/a	n/a	n/a	n/a	n/a	n/a	n/a
3373.218	n/a	RECOG_CONF	1686609	n/a	LTP085	ltpFR	4	4	n/a	HANDKERCHIEF	686	2	n/a	n/a	n/a	n/a	n/a	n/a
3374.944	n/a	RECOG_TARGET	1687472	n/a	LTP085	ltpFR	4	4	1	CANAL	226	1	0	n/a	n/a	n/a	n/a	n/a
3376.172	n/a	RECOG_RESP	1688086	n/a	LTP085	ltpFR	4	4	1	CANAL	226	n/a	0	n/a	n/a	n/a	n/a	n/a
3377.238	n/a	RECOG_CONF	1688619	n/a	LTP085	ltpFR	4	4	1	CANAL	226	1	0	n/a	n/a	n/a	n/a	n/a
3378.928	n/a	RECOG_TARGET	1689464	n/a	LTP085	ltpFR	4	4	1	BAKER	71	1	0	n/a	n/a	n/a	n/a	n/a
3379.634	n/a	RECOG_RESP	1689817	n/a	LTP085	ltpFR	4	4	1	BAKER	71	n/a	0	n/a	n/a	n/a	n/a	n/a
3380.94	n/a	RECOG_CONF	1690470	n/a	LTP085	ltpFR	4	4	1	BAKER	71	1	0	n/a	n/a	n/a	n/a	n/a
3382.394	n/a	RECOG_TARGET	1691197	n/a	LTP085	ltpFR	4	4	0	SERPENT	1270	4	0	n/a	n/a	n/a	n/a	n/a
3383.086	n/a	RECOG_RESP	1691543	n/a	LTP085	ltpFR	4	4	0	SERPENT	1270	n/a	0	n/a	n/a	n/a	n/a	n/a
3384.034	n/a	RECOG_CONF	1692017	n/a	LTP085	ltpFR	4	4	0	SERPENT	1270	4	0	n/a	n/a	n/a	n/a	n/a
3385.61	n/a	RECOG_TARGET	1692805	n/a	LTP085	ltpFR	4	4	0	SWIMMER	1420	5	1	n/a	n/a	n/a	n/a	n/a
3386.2	n/a	RECOG_RESP	1693100	n/a	LTP085	ltpFR	4	4	0	SWIMMER	1420	n/a	1	n/a	n/a	n/a	n/a	n/a
3387.216	n/a	RECOG_CONF	1693608	n/a	LTP085	ltpFR	4	4	0	SWIMMER	1420	5	1	n/a	n/a	n/a	n/a	n/a
3388.826	n/a	RECOG_TARGET	1694413	n/a	LTP085	ltpFR	4	4	0	EGG	518	1	0	n/a	n/a	n/a	n/a	n/a
3390.5	n/a	RECOG_RESP	1695250	n/a	LTP085	ltpFR	4	4	0	EGG	518	n/a	0	n/a	n/a	n/a	n/a	n/a
3391.716	n/a	RECOG_CONF	1695858	n/a	LTP085	ltpFR	4	4	0	EGG	518	1	0	n/a	n/a	n/a	n/a	n/a
3393.226	n/a	RECOG_TARGET	1696613	n/a	LTP085	ltpFR	4	4	0	DRAWER	493	3	0	n/a	n/a	n/a	n/a	n/a
3393.852	n/a	RECOG_RESP	1696926	n/a	LTP085	ltpFR	4	4	0	DRAWER	493	n/a	0	n/a	n/a	n/a	n/a	n/a
3394.92	n/a	RECOG_CONF	1697460	n/a	LTP085	ltpFR	4	4	0	DRAWER	493	3	0	n/a	n/a	n/a	n/a	n/a
3396.276	n/a	RECOG_TARGET	1698138	n/a	LTP085	ltpFR	4	4	0	KID	775	4	0	n/a	n/a	n/a	n/a	n/a
3396.974	n/a	RECOG_RESP	1698487	n/a	LTP085	ltpFR	4	4	0	KID	775	n/a	0	n/a	n/a	n/a	n/a	n/a
3397.922	n/a	RECOG_CONF	1698961	n/a	LTP085	ltpFR	4	4	0	KID	775	4	0	n/a	n/a	n/a	n/a	n/a
3399.334	n/a	RECOG_TARGET	1699667	n/a	LTP085	ltpFR	4	4	0	SLIDE	1326	3	1	n/a	n/a	n/a	n/a	n/a
3400.436	n/a	RECOG_RESP	1700218	n/a	LTP085	ltpFR	4	4	0	SLIDE	1326	n/a	1	n/a	n/a	n/a	n/a	n/a
3401.474	n/a	RECOG_CONF	1700737	n/a	LTP085	ltpFR	4	4	0	SLIDE	1326	3	1	n/a	n/a	n/a	n/a	n/a
3403.094	n/a	RECOG_LURE	1701547	n/a	LTP085	ltpFR	4	4	n/a	COMPASS	358	1	n/a	n/a	n/a	n/a	n/a	n/a
3404.678	n/a	RECOG_RESP	1702339	n/a	LTP085	ltpFR	4	4	n/a	COMPASS	358	n/a	n/a	n/a	n/a	n/a	n/a	n/a
3406.264	n/a	RECOG_CONF	1703132	n/a	LTP085	ltpFR	4	4	n/a	COMPASS	358	1	n/a	n/a	n/a	n/a	n/a	n/a
3407.928	n/a	RECOG_LURE	1703964	n/a	LTP085	ltpFR	4	4	n/a	ATTIC	56	2	n/a	n/a	n/a	n/a	n/a	n/a
3408.69	n/a	RECOG_RESP	1704345	n/a	LTP085	ltpFR	4	4	n/a	ATTIC	56	n/a	n/a	n/a	n/a	n/a	n/a	n/a
3409.736	n/a	RECOG_CONF	1704868	n/a	LTP085	ltpFR	4	4	n/a	ATTIC	56	2	n/a	n/a	n/a	n/a	n/a	n/a
3411.4	n/a	RECOG_TARGET	1705700	n/a	LTP085	ltpFR	4	4	-1	CHEMIST	292	3	-1	n/a	n/a	n/a	n/a	n/a
3412.33	n/a	RECOG_RESP	1706165	n/a	LTP085	ltpFR	4	4	-1	CHEMIST	292	n/a	-1	n/a	n/a	n/a	n/a	n/a
3413.298	n/a	RECOG_CONF	1706649	n/a	LTP085	ltpFR	4	4	-1	CHEMIST	292	3	-1	n/a	n/a	n/a	n/a	n/a
3414.884	n/a	RECOG_LURE	1707442	n/a	LTP085	ltpFR	4	4	n/a	LABYRINTH	791	3	n/a	n/a	n/a	n/a	n/a	n/a
3415.674	n/a	RECOG_RESP	1707837	n/a	LTP085	ltpFR	4	4	n/a	LABYRINTH	791	n/a	n/a	n/a	n/a	n/a	n/a	n/a
3416.8	n/a	RECOG_CONF	1708400	n/a	LTP085	ltpFR	4	4	n/a	LABYRINTH	791	3	n/a	n/a	n/a	n/a	n/a	n/a
3430.156	n/a	REC_START	1715078	n/a	LTP085	ltpFR	4	5	n/a	n/a	n/a	n/a	n/a	n/a	n/a	n/a	n/a	n/a
3430.192	n/a	RECOG_TARGET	1715096	n/a	LTP085	ltpFR	4	5	-1	PAIL	1002	2	-1	n/a	n/a	n/a	n/a	n/a
3431.432	n/a	RECOG_RESP	1715716	n/a	LTP085	ltpFR	4	5	-1	PAIL	1002	n/a	-1	n/a	n/a	n/a	n/a	n/a
3432.574	n/a	RECOG_CONF	1716287	n/a	LTP085	ltpFR	4	5	-1	PAIL	1002	2	-1	n/a	n/a	n/a	n/a	n/a
3434.142	n/a	RECOG_TARGET	1717071	n/a	LTP085	ltpFR	4	5	-1	TRUCK	1512	4	-1	n/a	n/a	n/a	n/a	n/a
3434.97	n/a	RECOG_RESP	1717485	n/a	LTP085	ltpFR	4	5	-1	TRUCK	1512	n/a	-1	n/a	n/a	n/a	n/a	n/a
3436.036	n/a	RECOG_CONF	1718018	n/a	LTP085	ltpFR	4	5	-1	TRUCK	1512	4	-1	n/a	n/a	n/a	n/a	n/a
3437.442	n/a	RECOG_TARGET	1718721	n/a	LTP085	ltpFR	4	5	1	COB	334	3	0	n/a	n/a	n/a	n/a	n/a
3438.72	n/a	RECOG_RESP	1719360	n/a	LTP085	ltpFR	4	5	1	COB	334	n/a	0	n/a	n/a	n/a	n/a	n/a
3439.898	n/a	RECOG_CONF	1719949	n/a	LTP085	ltpFR	4	5	1	COB	334	3	0	n/a	n/a	n/a	n/a	n/a
3441.424	n/a	RECOG_TARGET	1720712	n/a	LTP085	ltpFR	4	5	0	BILL	126	1	0	n/a	n/a	n/a	n/a	n/a
3443.69	n/a	RECOG_RESP	1721845	n/a	LTP085	ltpFR	4	5	0	BILL	126	n/a	0	n/a	n/a	n/a	n/a	n/a
3444.748	n/a	RECOG_CONF	1722374	n/a	LTP085	ltpFR	4	5	0	BILL	126	1	0	n/a	n/a	n/a	n/a	n/a
3446.316	n/a	RECOG_TARGET	1723158	n/a	LTP085	ltpFR	4	5	0	VAMPIRE	1547	5	1	n/a	n/a	n/a	n/a	n/a
3446.894	n/a	RECOG_RESP	1723447	n/a	LTP085	ltpFR	4	5	0	VAMPIRE	1547	n/a	1	n/a	n/a	n/a	n/a	n/a
3447.802	n/a	RECOG_CONF	1723901	n/a	LTP085	ltpFR	4	5	0	VAMPIRE	1547	5	1	n/a	n/a	n/a	n/a	n/a
3449.316	n/a	RECOG_TARGET	1724658	n/a	LTP085	ltpFR	4	5	-1	GARAGE	621	4	-1	n/a	n/a	n/a	n/a	n/a
3450.066	n/a	RECOG_RESP	1725033	n/a	LTP085	ltpFR	4	5	-1	GARAGE	621	n/a	-1	n/a	n/a	n/a	n/a	n/a
3451.054	n/a	RECOG_CONF	1725527	n/a	LTP085	ltpFR	4	5	-1	GARAGE	621	4	-1	n/a	n/a	n/a	n/a	n/a
3452.624	n/a	RECOG_TARGET	1726312	n/a	LTP085	ltpFR	4	5	1	TOASTER	1472	3	0	n/a	n/a	n/a	n/a	n/a
3453.968	n/a	RECOG_RESP	1726984	n/a	LTP085	ltpFR	4	5	1	TOASTER	1472	n/a	0	n/a	n/a	n/a	n/a	n/a
3455.064	n/a	RECOG_CONF	1727532	n/a	LTP085	ltpFR	4	5	1	TOASTER	1472	3	0	n/a	n/a	n/a	n/a	n/a
3456.658	n/a	RECOG_TARGET	1728329	n/a	LTP085	ltpFR	4	5	0	VENUS	1557	4	1	n/a	n/a	n/a	n/a	n/a
3457.34	n/a	RECOG_RESP	1728670	n/a	LTP085	ltpFR	4	5	0	VENUS	1557	n/a	1	n/a	n/a	n/a	n/a	n/a
3458.318	n/a	RECOG_CONF	1729159	n/a	LTP085	ltpFR	4	5	0	VENUS	1557	4	1	n/a	n/a	n/a	n/a	n/a
3459.842	n/a	RECOG_LURE	1729921	n/a	LTP085	ltpFR	4	5	n/a	WALLET	1583	2	n/a	n/a	n/a	n/a	n/a	n/a
3461.32	n/a	RECOG_RESP	1730660	n/a	LTP085	ltpFR	4	5	n/a	WALLET	1583	n/a	n/a	n/a	n/a	n/a	n/a	n/a
3462.4	n/a	RECOG_CONF	1731200	n/a	LTP085	ltpFR	4	5	n/a	WALLET	1583	2	n/a	n/a	n/a	n/a	n/a	n/a
3463.918	n/a	RECOG_TARGET	1731959	n/a	LTP085	ltpFR	4	5	0	OX	994	4	1	n/a	n/a	n/a	n/a	n/a
3464.574	n/a	RECOG_RESP	1732287	n/a	LTP085	ltpFR	4	5	0	OX	994	n/a	1	n/a	n/a	n/a	n/a	n/a
3465.572	n/a	RECOG_CONF	1732786	n/a	LTP085	ltpFR	4	5	0	OX	994	4	1	n/a	n/a	n/a	n/a	n/a
3467.092	n/a	RECOG_TARGET	1733546	n/a	LTP085	ltpFR	4	5	1	MINK	897	4	0	n/a	n/a	n/a	n/a	n/a
3467.866	n/a	RECOG_RESP	1733933	n/a	LTP085	ltpFR	4	5	1	MINK	897	n/a	0	n/a	n/a	n/a	n/a	n/a
3468.944	n/a	RECOG_CONF	1734472	n/a	LTP085	ltpFR	4	5	1	MINK	897	4	0	n/a	n/a	n/a	n/a	n/a
3470.416	n/a	RECOG_TARGET	1735208	n/a	LTP085	ltpFR	4	5	-1	ENVELOPE	537	3	-1	n/a	n/a	n/a	n/a	n/a
3471.948	n/a	RECOG_RESP	1735974	n/a	LTP085	ltpFR	4	5	-1	ENVELOPE	537	n/a	-1	n/a	n/a	n/a	n/a	n/a
3472.976	n/a	RECOG_CONF	1736488	n/a	LTP085	ltpFR	4	5	-1	ENVELOPE	537	3	-1	n/a	n/a	n/a	n/a	n/a
3474.6	n/a	RECOG_TARGET	1737300	n/a	LTP085	ltpFR	4	5	0	WIFE	1609	4	1	n/a	n/a	n/a	n/a	n/a
3475.24	n/a	RECOG_RESP	1737620	n/a	LTP085	ltpFR	4	5	0	WIFE	1609	n/a	1	n/a	n/a	n/a	n/a	n/a
3476.238	n/a	RECOG_CONF	1738119	n/a	LTP085	ltpFR	4	5	0	WIFE	1609	4	1	n/a	n/a	n/a	n/a	n/a
3477.85	n/a	RECOG_TARGET	1738925	n/a	LTP085	ltpFR	4	5	1	COMPUTER	359	2	0	n/a	n/a	n/a	n/a	n/a
3478.392	n/a	RECOG_RESP	1739196	n/a	LTP085	ltpFR	4	5	1	COMPUTER	359	n/a	0	n/a	n/a	n/a	n/a	n/a
3479.84	n/a	RECOG_CONF	1739920	n/a	LTP085	ltpFR	4	5	1	COMPUTER	359	2	0	n/a	n/a	n/a	n/a	n/a
3481.466	n/a	RECOG_TARGET	1740733	n/a	LTP085	ltpFR	4	5	0	CATHEDRAL	260	5	1	n/a	n/a	n/a	n/a	n/a
3482.084	n/a	RECOG_RESP	1741042	n/a	LTP085	ltpFR	4	5	0	CATHEDRAL	260	n/a	1	n/a	n/a	n/a	n/a	n/a
3483.044	n/a	RECOG_CONF	1741522	n/a	LTP085	ltpFR	4	5	0	CATHEDRAL	260	5	1	n/a	n/a	n/a	n/a	n/a
3484.724	n/a	RECOG_TARGET	1742362	n/a	LTP085	ltpFR	4	5	1	RAG	1160	5	0	n/a	n/a	n/a	n/a	n/a
3485.438	n/a	RECOG_RESP	1742719	n/a	LTP085	ltpFR	4	5	1	RAG	1160	n/a	0	n/a	n/a	n/a	n/a	n/a
3486.466	n/a	RECOG_CONF	1743233	n/a	LTP085	ltpFR	4	5	1	RAG	1160	5	0	n/a	n/a	n/a	n/a	n/a
3488.034	n/a	RECOG_TARGET	1744017	n/a	LTP085	ltpFR	4	5	0	STAPLE	1371	4	0	n/a	n/a	n/a	n/a	n/a
3488.67	n/a	RECOG_RESP	1744335	n/a	LTP085	ltpFR	4	5	0	STAPLE	1371	n/a	0	n/a	n/a	n/a	n/a	n/a
3489.838	n/a	RECOG_CONF	1744919	n/a	LTP085	ltpFR	4	5	0	STAPLE	1371	4	0	n/a	n/a	n/a	n/a	n/a
3491.358	n/a	RECOG_TARGET	1745679	n/a	LTP085	ltpFR	4	5	-1	AGENT	10	3	-1	n/a	n/a	n/a	n/a	n/a
3492.642	n/a	RECOG_RESP	1746321	n/a	LTP085	ltpFR	4	5	-1	AGENT	10	n/a	-1	n/a	n/a	n/a	n/a	n/a
3493.62	n/a	RECOG_CONF	1746810	n/a	LTP085	ltpFR	4	5	-1	AGENT	10	3	-1	n/a	n/a	n/a	n/a	n/a
3495.474	n/a	RECOG_LURE	1747737	n/a	LTP085	ltpFR	4	5	n/a	GOLD	647	2	n/a	n/a	n/a	n/a	n/a	n/a
3496.522	n/a	RECOG_RESP	1748261	n/a	LTP085	ltpFR	4	5	n/a	GOLD	647	n/a	n/a	n/a	n/a	n/a	n/a	n/a
3497.65	n/a	RECOG_CONF	1748825	n/a	LTP085	ltpFR	4	5	n/a	GOLD	647	2	n/a	n/a	n/a	n/a	n/a	n/a
3499.224	n/a	RECOG_TARGET	1749612	n/a	LTP085	ltpFR	4	5	1	TUBA	1515	3	0	n/a	n/a	n/a	n/a	n/a
3500.224	n/a	RECOG_RESP	1750112	n/a	LTP085	ltpFR	4	5	1	TUBA	1515	n/a	0	n/a	n/a	n/a	n/a	n/a
3501.282	n/a	RECOG_CONF	1750641	n/a	LTP085	ltpFR	4	5	1	TUBA	1515	3	0	n/a	n/a	n/a	n/a	n/a
3506.764	n/a	REC_START	1753382	n/a	LTP085	ltpFR	4	6	n/a	n/a	n/a	n/a	n/a	n/a	n/a	n/a	n/a	n/a
3506.798	n/a	RECOG_LURE	1753399	n/a	LTP085	ltpFR	4	6	n/a	LIST	830	2	n/a	n/a	n/a	n/a	n/a	n/a
3507.646	n/a	RECOG_RESP	1753823	n/a	LTP085	ltpFR	4	6	n/a	LIST	830	n/a	n/a	n/a	n/a	n/a	n/a	n/a
3508.814	n/a	RECOG_CONF	1754407	n/a	LTP085	ltpFR	4	6	n/a	LIST	830	2	n/a	n/a	n/a	n/a	n/a	n/a
3510.374	n/a	RECOG_LURE	1755187	n/a	LTP085	ltpFR	4	6	n/a	PARTNER	1017	2	n/a	n/a	n/a	n/a	n/a	n/a
3511.498	n/a	RECOG_RESP	1755749	n/a	LTP085	ltpFR	4	6	n/a	PARTNER	1017	n/a	n/a	n/a	n/a	n/a	n/a	n/a
3512.616	n/a	RECOG_CONF	1756308	n/a	LTP085	ltpFR	4	6	n/a	PARTNER	1017	2	n/a	n/a	n/a	n/a	n/a	n/a
3514.05	n/a	RECOG_LURE	1757025	n/a	LTP085	ltpFR	4	6	n/a	NOTEBOOK	959	2	n/a	n/a	n/a	n/a	n/a	n/a
3515.548	n/a	RECOG_RESP	1757774	n/a	LTP085	ltpFR	4	6	n/a	NOTEBOOK	959	n/a	n/a	n/a	n/a	n/a	n/a	n/a
3516.636	n/a	RECOG_CONF	1758318	n/a	LTP085	ltpFR	4	6	n/a	NOTEBOOK	959	2	n/a	n/a	n/a	n/a	n/a	n/a
3518.498	n/a	RECOG_TARGET	1759249	n/a	LTP085	ltpFR	4	6	0	TANK	1432	3	1	n/a	n/a	n/a	n/a	n/a
3519.474	n/a	RECOG_RESP	1759737	n/a	LTP085	ltpFR	4	6	0	TANK	1432	n/a	1	n/a	n/a	n/a	n/a	n/a
3520.468	n/a	RECOG_CONF	1760234	n/a	LTP085	ltpFR	4	6	0	TANK	1432	3	1	n/a	n/a	n/a	n/a	n/a
3521.99	n/a	RECOG_TARGET	1760995	n/a	LTP085	ltpFR	4	6	0	SPOON	1357	4	0	n/a	n/a	n/a	n/a	n/a
3522.494	n/a	RECOG_RESP	1761247	n/a	LTP085	ltpFR	4	6	0	SPOON	1357	n/a	0	n/a	n/a	n/a	n/a	n/a
3523.512	n/a	RECOG_CONF	1761756	n/a	LTP085	ltpFR	4	6	0	SPOON	1357	4	0	n/a	n/a	n/a	n/a	n/a
3525.0	n/a	RECOG_TARGET	1762500	n/a	LTP085	ltpFR	4	6	1	HUT	729	4	0	n/a	n/a	n/a	n/a	n/a
3525.916	n/a	RECOG_RESP	1762958	n/a	LTP085	ltpFR	4	6	1	HUT	729	n/a	0	n/a	n/a	n/a	n/a	n/a
3527.074	n/a	RECOG_CONF	1763537	n/a	LTP085	ltpFR	4	6	1	HUT	729	4	0	n/a	n/a	n/a	n/a	n/a
3528.606	n/a	RECOG_TARGET	1764303	n/a	LTP085	ltpFR	4	6	-1	NUCLEUS	961	5	-1	n/a	n/a	n/a	n/a	n/a
3529.208	n/a	RECOG_RESP	1764604	n/a	LTP085	ltpFR	4	6	-1	NUCLEUS	961	n/a	-1	n/a	n/a	n/a	n/a	n/a
3530.216	n/a	RECOG_CONF	1765108	n/a	LTP085	ltpFR	4	6	-1	NUCLEUS	961	5	-1	n/a	n/a	n/a	n/a	n/a
3531.672	n/a	RECOG_TARGET	1765836	n/a	LTP085	ltpFR	4	6	0	NURSE	963	4	1	n/a	n/a	n/a	n/a	n/a
3532.57	n/a	RECOG_RESP	1766285	n/a	LTP085	ltpFR	4	6	0	NURSE	963	n/a	1	n/a	n/a	n/a	n/a	n/a
3533.508	n/a	RECOG_CONF	1766754	n/a	LTP085	ltpFR	4	6	0	NURSE	963	4	1	n/a	n/a	n/a	n/a	n/a
3535.122	n/a	RECOG_LURE	1767561	n/a	LTP085	ltpFR	4	6	n/a	STAMP	1370	2	n/a	n/a	n/a	n/a	n/a	n/a
3536.288	n/a	RECOG_RESP	1768144	n/a	LTP085	ltpFR	4	6	n/a	STAMP	1370	n/a	n/a	n/a	n/a	n/a	n/a	n/a
3537.45	n/a	RECOG_CONF	1768725	n/a	LTP085	ltpFR	4	6	n/a	STAMP	1370	2	n/a	n/a	n/a	n/a	n/a	n/a
3539.056	n/a	RECOG_TARGET	1769528	n/a	LTP085	ltpFR	4	6	0	TOMBSTONE	1478	5	1	n/a	n/a	n/a	n/a	n/a
3539.684	n/a	RECOG_RESP	1769842	n/a	LTP085	ltpFR	4	6	0	TOMBSTONE	1478	n/a	1	n/a	n/a	n/a	n/a	n/a
3540.682	n/a	RECOG_CONF	1770341	n/a	LTP085	ltpFR	4	6	0	TOMBSTONE	1478	5	1	n/a	n/a	n/a	n/a	n/a
3542.306	n/a	RECOG_LURE	1771153	n/a	LTP085	ltpFR	4	6	n/a	SNAIL	1332	2	n/a	n/a	n/a	n/a	n/a	n/a
3543.582	n/a	RECOG_RESP	1771791	n/a	LTP085	ltpFR	4	6	n/a	SNAIL	1332	n/a	n/a	n/a	n/a	n/a	n/a	n/a
3544.724	n/a	RECOG_CONF	1772362	n/a	LTP085	ltpFR	4	6	n/a	SNAIL	1332	2	n/a	n/a	n/a	n/a	n/a	n/a
3546.256	n/a	RECOG_TARGET	1773128	n/a	LTP085	ltpFR	4	6	-1	DICTATOR	462	5	-1	n/a	n/a	n/a	n/a	n/a
3546.91	n/a	RECOG_RESP	1773455	n/a	LTP085	ltpFR	4	6	-1	DICTATOR	462	n/a	-1	n/a	n/a	n/a	n/a	n/a
3547.936	n/a	RECOG_CONF	1773968	n/a	LTP085	ltpFR	4	6	-1	DICTATOR	462	5	-1	n/a	n/a	n/a	n/a	n/a
3549.422	n/a	RECOG_TARGET	1774711	n/a	LTP085	ltpFR	4	6	0	COMEDIAN	352	2	1	n/a	n/a	n/a	n/a	n/a
3550.302	n/a	RECOG_RESP	1775151	n/a	LTP085	ltpFR	4	6	0	COMEDIAN	352	n/a	1	n/a	n/a	n/a	n/a	n/a
3551.398	n/a	RECOG_CONF	1775699	n/a	LTP085	ltpFR	4	6	0	COMEDIAN	352	2	1	n/a	n/a	n/a	n/a	n/a
3552.956	n/a	RECOG_TARGET	1776478	n/a	LTP085	ltpFR	4	6	1	HAIL	676	4	0	n/a	n/a	n/a	n/a	n/a
3553.724	n/a	RECOG_RESP	1776862	n/a	LTP085	ltpFR	4	6	1	HAIL	676	n/a	0	n/a	n/a	n/a	n/a	n/a
3554.842	n/a	RECOG_CONF	1777421	n/a	LTP085	ltpFR	4	6	1	HAIL	676	4	0	n/a	n/a	n/a	n/a	n/a
3556.272	n/a	RECOG_LURE	1778136	n/a	LTP085	ltpFR	4	6	n/a	REBEL	1172	2	n/a	n/a	n/a	n/a	n/a	n/a
3557.654	n/a	RECOG_RESP	1778827	n/a	LTP085	ltpFR	4	6	n/a	REBEL	1172	n/a	n/a	n/a	n/a	n/a	n/a	n/a
3558.742	n/a	RECOG_CONF	1779371	n/a	LTP085	ltpFR	4	6	n/a	REBEL	1172	2	n/a	n/a	n/a	n/a	n/a	n/a
3560.254	n/a	RECOG_TARGET	1780127	n/a	LTP085	ltpFR	4	6	-1	APARTMENT	30	5	-1	n/a	n/a	n/a	n/a	n/a
3560.928	n/a	RECOG_RESP	1780464	n/a	LTP085	ltpFR	4	6	-1	APARTMENT	30	n/a	-1	n/a	n/a	n/a	n/a	n/a
3561.924	n/a	RECOG_CONF	1780962	n/a	LTP085	ltpFR	4	6	-1	APARTMENT	30	5	-1	n/a	n/a	n/a	n/a	n/a
3563.43	n/a	RECOG_LURE	1781715	n/a	LTP085	ltpFR	4	6	n/a	EDITORIAL	517	3	n/a	n/a	n/a	n/a	n/a	n/a
3564.49	n/a	RECOG_RESP	1782245	n/a	LTP085	ltpFR	4	6	n/a	EDITORIAL	517	n/a	n/a	n/a	n/a	n/a	n/a	n/a
3565.488	n/a	RECOG_CONF	1782744	n/a	LTP085	ltpFR	4	6	n/a	EDITORIAL	517	3	n/a	n/a	n/a	n/a	n/a	n/a
3567.098	n/a	RECOG_TARGET	1783549	n/a	LTP085	ltpFR	4	6	0	NICKEL	950	4	0	n/a	n/a	n/a	n/a	n/a
3567.932	n/a	RECOG_RESP	1783966	n/a	LTP085	ltpFR	4	6	0	NICKEL	950	n/a	0	n/a	n/a	n/a	n/a	n/a
3569.01	n/a	RECOG_CONF	1784505	n/a	LTP085	ltpFR	4	6	0	NICKEL	950	4	0	n/a	n/a	n/a	n/a	n/a
3570.438	n/a	RECOG_TARGET	1785219	n/a	LTP085	ltpFR	4	6	1	PRINTER	1126	5	0	n/a	n/a	n/a	n/a	n/a
3571.244	n/a	RECOG_RESP	1785622	n/a	LTP085	ltpFR	4	6	1	PRINTER	1126	n/a	0	n/a	n/a	n/a	n/a	n/a
3572.232	n/a	RECOG_CONF	1786116	n/a	LTP085	ltpFR	4	6	1	PRINTER	1126	5	0	n/a	n/a	n/a	n/a	n/a
3573.78	n/a	RECOG_LURE	1786890	n/a	LTP085	ltpFR	4	6	n/a	GROCERIES	663	1	n/a	n/a	n/a	n/a	n/a	n/a
3575.206	n/a	RECOG_RESP	1787603	n/a	LTP085	ltpFR	4	6	n/a	GROCERIES	663	n/a	n/a	n/a	n/a	n/a	n/a	n/a
3576.424	n/a	RECOG_CONF	1788212	n/a	LTP085	ltpFR	4	6	n/a	GROCERIES	663	1	n/a	n/a	n/a	n/a	n/a	n/a
3584.124	n/a	REC_START	1792062	n/a	LTP085	ltpFR	4	7	n/a	n/a	n/a	n/a	n/a	n/a	n/a	n/a	n/a	n/a
3584.156	n/a	RECOG_TARGET	1792078	n/a	LTP085	ltpFR	4	7	-1	DAD	433	3	-1	n/a	n/a	n/a	n/a	n/a
3585.056	n/a	RECOG_RESP	1792528	n/a	LTP085	ltpFR	4	7	-1	DAD	433	n/a	-1	n/a	n/a	n/a	n/a	n/a
3586.104	n/a	RECOG_CONF	1793052	n/a	LTP085	ltpFR	4	7	-1	DAD	433	3	-1	n/a	n/a	n/a	n/a	n/a
3587.68	n/a	RECOG_TARGET	1793840	n/a	LTP085	ltpFR	4	7	0	ANTEATER	26	4	1	n/a	n/a	n/a	n/a	n/a
3588.288	n/a	RECOG_RESP	1794144	n/a	LTP085	ltpFR	4	7	0	ANTEATER	26	n/a	1	n/a	n/a	n/a	n/a	n/a
3589.216	n/a	RECOG_CONF	1794608	n/a	LTP085	ltpFR	4	7	0	ANTEATER	26	4	1	n/a	n/a	n/a	n/a	n/a
3590.772	n/a	RECOG_TARGET	1795386	n/a	LTP085	ltpFR	4	7	-1	NITROGEN	954	4	-1	n/a	n/a	n/a	n/a	n/a
3591.512	n/a	RECOG_RESP	1795756	n/a	LTP085	ltpFR	4	7	-1	NITROGEN	954	n/a	-1	n/a	n/a	n/a	n/a	n/a
3592.58	n/a	RECOG_CONF	1796290	n/a	LTP085	ltpFR	4	7	-1	NITROGEN	954	4	-1	n/a	n/a	n/a	n/a	n/a
3594.056	n/a	RECOG_TARGET	1797028	n/a	LTP085	ltpFR	4	7	1	TRIBE	1505	2	0	n/a	n/a	n/a	n/a	n/a
3595.264	n/a	RECOG_RESP	1797632	n/a	LTP085	ltpFR	4	7	1	TRIBE	1505	n/a	0	n/a	n/a	n/a	n/a	n/a
3596.37	n/a	RECOG_CONF	1798185	n/a	LTP085	ltpFR	4	7	1	TRIBE	1505	2	0	n/a	n/a	n/a	n/a	n/a
3597.914	n/a	RECOG_TARGET	1798957	n/a	LTP085	ltpFR	4	7	0	FUR	615	4	1	n/a	n/a	n/a	n/a	n/a
3598.536	n/a	RECOG_RESP	1799268	n/a	LTP085	ltpFR	4	7	0	FUR	615	n/a	1	n/a	n/a	n/a	n/a	n/a
3599.554	n/a	RECOG_CONF	1799777	n/a	LTP085	ltpFR	4	7	0	FUR	615	4	1	n/a	n/a	n/a	n/a	n/a
3601.496	n/a	RECOG_TARGET	1800748	n/a	LTP085	ltpFR	4	7	1	KIWI	781	5	0	n/a	n/a	n/a	n/a	n/a
3601.998	n/a	RECOG_RESP	1800999	n/a	LTP085	ltpFR	4	7	1	KIWI	781	n/a	0	n/a	n/a	n/a	n/a	n/a
3603.016	n/a	RECOG_CONF	1801508	n/a	LTP085	ltpFR	4	7	1	KIWI	781	5	0	n/a	n/a	n/a	n/a	n/a
3604.538	n/a	RECOG_TARGET	1802269	n/a	LTP085	ltpFR	4	7	-1	NEEDLE	941	5	-1	n/a	n/a	n/a	n/a	n/a
3605.272	n/a	RECOG_RESP	1802636	n/a	LTP085	ltpFR	4	7	-1	NEEDLE	941	n/a	-1	n/a	n/a	n/a	n/a	n/a
3606.328	n/a	RECOG_CONF	1803164	n/a	LTP085	ltpFR	4	7	-1	NEEDLE	941	5	-1	n/a	n/a	n/a	n/a	n/a
3607.846	n/a	RECOG_LURE	1803923	n/a	LTP085	ltpFR	4	7	n/a	RATTLE	1170	2	n/a	n/a	n/a	n/a	n/a	n/a
3609.202	n/a	RECOG_RESP	1804601	n/a	LTP085	ltpFR	4	7	n/a	RATTLE	1170	n/a	n/a	n/a	n/a	n/a	n/a	n/a
3610.54	n/a	RECOG_CONF	1805270	n/a	LTP085	ltpFR	4	7	n/a	RATTLE	1170	2	n/a	n/a	n/a	n/a	n/a	n/a
3612.006	n/a	RECOG_TARGET	1806003	n/a	LTP085	ltpFR	4	7	1	TOOTHPASTE	1483	2	0	n/a	n/a	n/a	n/a	n/a
3612.844	n/a	RECOG_RESP	1806422	n/a	LTP085	ltpFR	4	7	1	TOOTHPASTE	1483	n/a	0	n/a	n/a	n/a	n/a	n/a
3613.902	n/a	RECOG_CONF	1806951	n/a	LTP085	ltpFR	4	7	1	TOOTHPASTE	1483	2	0	n/a	n/a	n/a	n/a	n/a
3615.728	n/a	RECOG_TARGET	1807864	n/a	LTP085	ltpFR	4	7	1	CAMEL	223	3	1	n/a	n/a	n/a	n/a	n/a
3616.376	n/a	RECOG_RESP	1808188	n/a	LTP085	ltpFR	4	7	1	CAMEL	223	n/a	1	n/a	n/a	n/a	n/a	n/a
3617.444	n/a	RECOG_CONF	1808722	n/a	LTP085	ltpFR	4	7	1	CAMEL	223	3	1	n/a	n/a	n/a	n/a	n/a
3619.27	n/a	RECOG_TARGET	1809635	n/a	LTP085	ltpFR	4	7	1	SEED	1266	3	0	n/a	n/a	n/a	n/a	n/a
3619.888	n/a	RECOG_RESP	1809944	n/a	LTP085	ltpFR	4	7	1	SEED	1266	n/a	0	n/a	n/a	n/a	n/a	n/a
3620.926	n/a	RECOG_CONF	1810463	n/a	LTP085	ltpFR	4	7	1	SEED	1266	3	0	n/a	n/a	n/a	n/a	n/a
3622.446	n/a	RECOG_LURE	1811223	n/a	LTP085	ltpFR	4	7	n/a	AUTOMOBILE	62	2	n/a	n/a	n/a	n/a	n/a	n/a
3623.8	n/a	RECOG_RESP	1811900	n/a	LTP085	ltpFR	4	7	n/a	AUTOMOBILE	62	n/a	n/a	n/a	n/a	n/a	n/a	n/a
3624.968	n/a	RECOG_CONF	1812484	n/a	LTP085	ltpFR	4	7	n/a	AUTOMOBILE	62	2	n/a	n/a	n/a	n/a	n/a	n/a
3626.404	n/a	RECOG_TARGET	1813202	n/a	LTP085	ltpFR	4	7	-1	BRICK	172	3	-1	n/a	n/a	n/a	n/a	n/a
3627.392	n/a	RECOG_RESP	1813696	n/a	LTP085	ltpFR	4	7	-1	BRICK	172	n/a	-1	n/a	n/a	n/a	n/a	n/a
3628.49	n/a	RECOG_CONF	1814245	n/a	LTP085	ltpFR	4	7	-1	BRICK	172	3	-1	n/a	n/a	n/a	n/a	n/a
3629.954	n/a	RECOG_TARGET	1814977	n/a	LTP085	ltpFR	4	7	0	AUDIENCE	59	3	1	n/a	n/a	n/a	n/a	n/a
3630.654	n/a	RECOG_RESP	1815327	n/a	LTP085	ltpFR	4	7	0	AUDIENCE	59	n/a	1	n/a	n/a	n/a	n/a	n/a
3631.652	n/a	RECOG_CONF	1815826	n/a	LTP085	ltpFR	4	7	0	AUDIENCE	59	3	1	n/a	n/a	n/a	n/a	n/a
3633.254	n/a	RECOG_LURE	1816627	n/a	LTP085	ltpFR	4	7	n/a	SCARF	1246	1	n/a	n/a	n/a	n/a	n/a	n/a
3634.486	n/a	RECOG_RESP	1817243	n/a	LTP085	ltpFR	4	7	n/a	SCARF	1246	n/a	n/a	n/a	n/a	n/a	n/a	n/a
3635.812	n/a	RECOG_CONF	1817906	n/a	LTP085	ltpFR	4	7	n/a	SCARF	1246	1	n/a	n/a	n/a	n/a	n/a	n/a
3637.386	n/a	RECOG_TARGET	1818693	n/a	LTP085	ltpFR	4	7	1	CREATURE	403	5	1	n/a	n/a	n/a	n/a	n/a
3637.968	n/a	RECOG_RESP	1818984	n/a	LTP085	ltpFR	4	7	1	CREATURE	403	n/a	1	n/a	n/a	n/a	n/a	n/a
3639.006	n/a	RECOG_CONF	1819503	n/a	LTP085	ltpFR	4	7	1	CREATURE	403	5	1	n/a	n/a	n/a	n/a	n/a
3640.47	n/a	RECOG_LURE	1820235	n/a	LTP085	ltpFR	4	7	n/a	COCKTAIL	338	2	n/a	n/a	n/a	n/a	n/a	n/a
3641.32	n/a	RECOG_RESP	1820660	n/a	LTP085	ltpFR	4	7	n/a	COCKTAIL	338	n/a	n/a	n/a	n/a	n/a	n/a	n/a
3642.448	n/a	RECOG_CONF	1821224	n/a	LTP085	ltpFR	4	7	n/a	COCKTAIL	338	2	n/a	n/a	n/a	n/a	n/a	n/a
3644.004	n/a	RECOG_TARGET	1822002	n/a	LTP085	ltpFR	4	7	0	BUCKLE	185	4	0	n/a	n/a	n/a	n/a	n/a
3644.714	n/a	RECOG_RESP	1822357	n/a	LTP085	ltpFR	4	7	0	BUCKLE	185	n/a	0	n/a	n/a	n/a	n/a	n/a
3645.802	n/a	RECOG_CONF	1822901	n/a	LTP085	ltpFR	4	7	0	BUCKLE	185	4	0	n/a	n/a	n/a	n/a	n/a
3647.204	n/a	RECOG_TARGET	1823602	n/a	LTP085	ltpFR	4	7	0	CUP	424	4	0	n/a	n/a	n/a	n/a	n/a
3647.796	n/a	RECOG_RESP	1823898	n/a	LTP085	ltpFR	4	7	0	CUP	424	n/a	0	n/a	n/a	n/a	n/a	n/a
3648.944	n/a	RECOG_CONF	1824472	n/a	LTP085	ltpFR	4	7	0	CUP	424	4	0	n/a	n/a	n/a	n/a	n/a
3650.436	n/a	RECOG_TARGET	1825218	n/a	LTP085	ltpFR	4	7	-1	WHALE	1601	4	-1	n/a	n/a	n/a	n/a	n/a
3651.1	n/a	RECOG_RESP	1825550	n/a	LTP085	ltpFR	4	7	-1	WHALE	1601	n/a	-1	n/a	n/a	n/a	n/a	n/a
