onset	duration	trial_type	sample	stim_file	subject	experiment	session	trial	task	item_name	item_num	recog_conf	resp	color_b	color_g	color_r	case	font
284.456	n/a	SESS_START	142228	n/a	LTP216	ltpFR	5	n/a	n/a	n/a	n/a	n/a	n/a	n/a	n/a	n/a	n/a	n/a
422.274	n/a	WORD	211137	wordpools/wasnorm_wordpool_less_exclusions.txt	LTP216	ltpFR	5	1	0	BUTTERFLY	206	n/a	0	0	0.5869140625	0.422607421875	upper	../fonts/zerothre.ttf
426.246	n/a	WORD	213123	wordpools/wasnorm_wordpool_less_exclusions.txt	LTP216	ltpFR	5	1	0	CUBE	420	n/a	0	0	0.5869140625	0.422607421875	upper	../fonts/zerothre.ttf
430.462	n/a	WORD	215231	wordpools/wasnorm_wordpool_less_exclusions.txt	LTP216	ltpFR	5	1	0	EMPEROR	529	n/a	1	0	0.5869140625	0.422607421875	upper	../fonts/zerothre.ttf
434.662	n/a	WORD	217331	wordpools/wasnorm_wordpool_less_exclusions.txt	LTP216	ltpFR	5	1	1	STEW	1380	n/a	0	1	0.412841796875	0.57763671875	lower	../fonts/amplitud.ttf
438.51	n/a	WORD	219255	wordpools/wasnorm_wordpool_less_exclusions.txt	LTP216	ltpFR	5	1	1	LIVER	833	n/a	0	1	0.412841796875	0.57763671875	lower	../fonts/amplitud.ttf
442.686	n/a	WORD	221343	wordpools/wasnorm_wordpool_less_exclusions.txt	LTP216	ltpFR	5	1	1	PARSLEY	1016	n/a	1	1	0.412841796875	0.57763671875	lower	../fonts/amplitud.ttf
446.708	n/a	WORD	223354	wordpools/wasnorm_wordpool_less_exclusions.txt	LTP216	ltpFR	5	1	1	HERB	704	n/a	1	1	0.412841796875	0.57763671875	lower	../fonts/amplitud.ttf
450.606	n/a	WORD	225303	wordpools/wasnorm_wordpool_less_exclusions.txt	LTP216	ltpFR	5	1	0	ASHTRAY	45	n/a	0	0	0.5869140625	0.422607421875	upper	../fonts/zerothre.ttf
454.622	n/a	WORD	227311	wordpools/wasnorm_wordpool_less_exclusions.txt	LTP216	ltpFR	5	1	0	SHEARS	1276	n/a	0	0	0.5869140625	0.422607421875	upper	../fonts/zerothre.ttf
458.68	n/a	WORD	229340	wordpools/wasnorm_wordpool_less_exclusions.txt	LTP216	ltpFR	5	1	1	PUBLISHER	1137	n/a	1	1	0.412841796875	0.57763671875	lower	../fonts/amplitud.ttf
462.83	n/a	WORD	231415	wordpools/wasnorm_wordpool_less_exclusions.txt	LTP216	ltpFR	5	1	1	MULE	931	n/a	1	1	0.412841796875	0.57763671875	lower	../fonts/amplitud.ttf
466.7	n/a	WORD	233350	wordpools/wasnorm_wordpool_less_exclusions.txt	LTP216	ltpFR	5	1	1	ANIMAL	23	n/a	1	1	0.412841796875	0.57763671875	lower	../fonts/amplitud.ttf
470.608	n/a	WORD	235304	wordpools/wasnorm_wordpool_less_exclusions.txt	LTP216	ltpFR	5	1	1	LITERATURE	831	n/a	1	1	0.412841796875	0.57763671875	lower	../fonts/amplitud.ttf
474.716	n/a	WORD	237358	wordpools/wasnorm_wordpool_less_exclusions.txt	LTP216	ltpFR	5	1	0	CAGE	218	n/a	0	0	0.5869140625	0.422607421875	upper	../fonts/zerothre.ttf
478.906	n/a	WORD	239453	wordpools/wasnorm_wordpool_less_exclusions.txt	LTP216	ltpFR	5	1	0	EMPIRE	530	n/a	1	0	0.5869140625	0.422607421875	upper	../fonts/zerothre.ttf
482.938	n/a	WORD	241469	wordpools/wasnorm_wordpool_less_exclusions.txt	LTP216	ltpFR	5	1	0	PARIS	1014	n/a	1	0	0.5869140625	0.422607421875	upper	../fonts/zerothre.ttf
488.702	n/a	REC_START	244351	n/a	LTP216	ltpFR	5	1	n/a	n/a	n/a	n/a	n/a	n/a	n/a	n/a	n/a	n/a
489.82	n/a	REC_WORD	244910	wordpools/wasnorm_wordpool_less_exclusions.txt	LTP216	ltpFR	5	1	0	PARIS	1014	n/a	1	n/a	n/a	n/a	n/a	n/a
490.818	n/a	REC_WORD	245409	wordpools/wasnorm_wordpool_less_exclusions.txt	LTP216	ltpFR	5	1	0	EMPIRE	530	n/a	1	n/a	n/a	n/a	n/a	n/a
491.872	n/a	REC_WORD	245936	wordpools/wasnorm_wordpool_less_exclusions.txt	LTP216	ltpFR	5	1	1	ANIMAL	23	n/a	1	n/a	n/a	n/a	n/a	n/a
492.908	n/a	REC_WORD	246454	wordpools/wasnorm_wordpool_less_exclusions.txt	LTP216	ltpFR	5	1	1	PARSLEY	1016	n/a	1	n/a	n/a	n/a	n/a	n/a
494.206	n/a	REC_WORD	247103	wordpools/wasnorm_wordpool_less_exclusions.txt	LTP216	ltpFR	5	1	1	HERB	704	n/a	1	n/a	n/a	n/a	n/a	n/a
495.418	n/a	REC_WORD	247709	wordpools/wasnorm_wordpool_less_exclusions.txt	LTP216	ltpFR	5	1	0	CUBE	420	n/a	0	n/a	n/a	n/a	n/a	n/a
499.408	n/a	REC_WORD	249704	wordpools/wasnorm_wordpool_less_exclusions.txt	LTP216	ltpFR	5	1	1	LITERATURE	831	n/a	1	n/a	n/a	n/a	n/a	n/a
532.176	n/a	REC_WORD	266088	wordpools/wasnorm_wordpool_less_exclusions.txt	LTP216	ltpFR	5	1	0	ASHTRAY	45	n/a	0	n/a	n/a	n/a	n/a	n/a
539.34	n/a	REC_WORD	269670	wordpools/wasnorm_wordpool_less_exclusions.txt	LTP216	ltpFR	5	1	1	PARSLEY	1016	n/a	1	n/a	n/a	n/a	n/a	n/a
557.65	n/a	REC_WORD	278825	wordpools/wasnorm_wordpool_less_exclusions.txt	LTP216	ltpFR	5	1	0	EMPIRE	530	n/a	1	n/a	n/a	n/a	n/a	n/a
584.902	n/a	WORD	292451	wordpools/wasnorm_wordpool_less_exclusions.txt	LTP216	ltpFR	5	2	1	CARPENTER	246	n/a	1	1	0.412841796875	0.57763671875	lower	../fonts/amplitud.ttf
588.968	n/a	WORD	294484	wordpools/wasnorm_wordpool_less_exclusions.txt	LTP216	ltpFR	5	2	1	WAVE	1596	n/a	0	1	0.412841796875	0.57763671875	lower	../fonts/amplitud.ttf
593.116	n/a	WORD	296558	wordpools/wasnorm_wordpool_less_exclusions.txt	LTP216	ltpFR	5	2	0	TREAD	1499	n/a	0	0	0.5869140625	0.422607421875	upper	../fonts/zerothre.ttf
597.316	n/a	WORD	298658	wordpools/wasnorm_wordpool_less_exclusions.txt	LTP216	ltpFR	5	2	0	SHRUB	1299	n/a	0	0	0.5869140625	0.422607421875	upper	../fonts/zerothre.ttf
601.398	n/a	WORD	300699	wordpools/wasnorm_wordpool_less_exclusions.txt	LTP216	ltpFR	5	2	0	DOLL	481	n/a	0	0	0.5869140625	0.422607421875	upper	../fonts/zerothre.ttf
605.314	n/a	WORD	302657	wordpools/wasnorm_wordpool_less_exclusions.txt	LTP216	ltpFR	5	2	0	TOWEL	1489	n/a	0	0	0.5869140625	0.422607421875	upper	../fonts/zerothre.ttf
609.43	n/a	WORD	304715	wordpools/wasnorm_wordpool_less_exclusions.txt	LTP216	ltpFR	5	2	0	TOMATO	1476	n/a	0	0	0.5869140625	0.422607421875	upper	../fonts/zerothre.ttf
613.562	n/a	WORD	306781	wordpools/wasnorm_wordpool_less_exclusions.txt	LTP216	ltpFR	5	2	0	PORCH	1106	n/a	0	0	0.5869140625	0.422607421875	upper	../fonts/zerothre.ttf
617.41	n/a	WORD	308705	wordpools/wasnorm_wordpool_less_exclusions.txt	LTP216	ltpFR	5	2	1	COD	340	n/a	1	1	0.412841796875	0.57763671875	lower	../fonts/amplitud.ttf
621.61	n/a	WORD	310805	wordpools/wasnorm_wordpool_less_exclusions.txt	LTP216	ltpFR	5	2	1	PLAID	1080	n/a	0	1	0.412841796875	0.57763671875	lower	../fonts/amplitud.ttf
625.458	n/a	WORD	312729	wordpools/wasnorm_wordpool_less_exclusions.txt	LTP216	ltpFR	5	2	1	SLEEVE	1324	n/a	0	1	0.412841796875	0.57763671875	lower	../fonts/amplitud.ttf
629.3	n/a	WORD	314650	wordpools/wasnorm_wordpool_less_exclusions.txt	LTP216	ltpFR	5	2	1	PERSONNEL	1053	n/a	1	1	0.412841796875	0.57763671875	lower	../fonts/amplitud.ttf
633.33	n/a	WORD	316665	wordpools/wasnorm_wordpool_less_exclusions.txt	LTP216	ltpFR	5	2	0	COURSE	390	n/a	0	0	0.5869140625	0.422607421875	upper	../fonts/zerothre.ttf
637.212	n/a	WORD	318606	wordpools/wasnorm_wordpool_less_exclusions.txt	LTP216	ltpFR	5	2	0	SARDINE	1235	n/a	0	0	0.5869140625	0.422607421875	upper	../fonts/zerothre.ttf
641.032	n/a	WORD	320516	wordpools/wasnorm_wordpool_less_exclusions.txt	LTP216	ltpFR	5	2	1	TURNIP	1521	n/a	1	1	0.412841796875	0.57763671875	lower	../fonts/amplitud.ttf
645.092	n/a	WORD	322546	wordpools/wasnorm_wordpool_less_exclusions.txt	LTP216	ltpFR	5	2	1	BARRACUDA	90	n/a	1	1	0.412841796875	0.57763671875	lower	../fonts/amplitud.ttf
650.966	n/a	REC_START	325483	n/a	LTP216	ltpFR	5	2	n/a	n/a	n/a	n/a	n/a	n/a	n/a	n/a	n/a	n/a
652.192	n/a	REC_WORD	326096	wordpools/wasnorm_wordpool_less_exclusions.txt	LTP216	ltpFR	5	2	1	BARRACUDA	90	n/a	1	n/a	n/a	n/a	n/a	n/a
654.228	n/a	REC_WORD	327114	wordpools/wasnorm_wordpool_less_exclusions.txt	LTP216	ltpFR	5	2	1	TURNIP	1521	n/a	1	n/a	n/a	n/a	n/a	n/a
659.322	n/a	REC_WORD	329661	wordpools/wasnorm_wordpool_less_exclusions.txt	LTP216	ltpFR	5	2	0	DOLL	481	n/a	0	n/a	n/a	n/a	n/a	n/a
666.502	n/a	REC_WORD	333251	wordpools/wasnorm_wordpool_less_exclusions.txt	LTP216	ltpFR	5	2	1	COD	340	n/a	1	n/a	n/a	n/a	n/a	n/a
670.732	n/a	REC_WORD	335366	wordpools/wasnorm_wordpool_less_exclusions.txt	LTP216	ltpFR	5	2	1	PERSONNEL	1053	n/a	1	n/a	n/a	n/a	n/a	n/a
683.722	n/a	REC_WORD	341861	wordpools/wasnorm_wordpool_less_exclusions.txt	LTP216	ltpFR	5	2	1	PLAID	1080	n/a	0	n/a	n/a	n/a	n/a	n/a
693.516	n/a	REC_WORD	346758	wordpools/wasnorm_wordpool_less_exclusions.txt	LTP216	ltpFR	5	2	0	PORCH	1106	n/a	0	n/a	n/a	n/a	n/a	n/a
705.016	n/a	REC_WORD	352508	wordpools/wasnorm_wordpool_less_exclusions.txt	LTP216	ltpFR	5	2	0	TOMATO	1476	n/a	0	n/a	n/a	n/a	n/a	n/a
734.114	n/a	WORD	367057	wordpools/wasnorm_wordpool_less_exclusions.txt	LTP216	ltpFR	5	3	1	QUILT	1151	n/a	0	1	0.412841796875	0.57763671875	lower	../fonts/amplitud.ttf
738.038	n/a	WORD	369019	wordpools/wasnorm_wordpool_less_exclusions.txt	LTP216	ltpFR	5	3	1	UNDERWEAR	1537	n/a	0	1	0.412841796875	0.57763671875	lower	../fonts/amplitud.ttf
741.936	n/a	WORD	370968	wordpools/wasnorm_wordpool_less_exclusions.txt	LTP216	ltpFR	5	3	1	CARROT	249	n/a	1	1	0.412841796875	0.57763671875	lower	../fonts/amplitud.ttf
745.834	n/a	WORD	372917	wordpools/wasnorm_wordpool_less_exclusions.txt	LTP216	ltpFR	5	3	1	TUNA	1518	n/a	1	1	0.412841796875	0.57763671875	lower	../fonts/amplitud.ttf
749.826	n/a	WORD	374913	wordpools/wasnorm_wordpool_less_exclusions.txt	LTP216	ltpFR	5	3	1	CONTRACTOR	369	n/a	0	1	0.412841796875	0.57763671875	lower	../fonts/amplitud.ttf
753.858	n/a	WORD	376929	wordpools/wasnorm_wordpool_less_exclusions.txt	LTP216	ltpFR	5	3	1	DESIGNER	451	n/a	1	1	0.412841796875	0.57763671875	lower	../fonts/amplitud.ttf
757.88	n/a	WORD	378940	wordpools/wasnorm_wordpool_less_exclusions.txt	LTP216	ltpFR	5	3	1	RAISIN	1163	n/a	1	1	0.412841796875	0.57763671875	lower	../fonts/amplitud.ttf
762.072	n/a	WORD	381036	wordpools/wasnorm_wordpool_less_exclusions.txt	LTP216	ltpFR	5	3	1	HOOK	715	n/a	0	1	0.412841796875	0.57763671875	lower	../fonts/amplitud.ttf
765.936	n/a	WORD	382968	wordpools/wasnorm_wordpool_less_exclusions.txt	LTP216	ltpFR	5	3	1	LOFT	840	n/a	0	1	0.412841796875	0.57763671875	lower	../fonts/amplitud.ttf
770.126	n/a	WORD	385063	wordpools/wasnorm_wordpool_less_exclusions.txt	LTP216	ltpFR	5	3	1	LAWYER	806	n/a	1	1	0.412841796875	0.57763671875	lower	../fonts/amplitud.ttf
774.126	n/a	WORD	387063	wordpools/wasnorm_wordpool_less_exclusions.txt	LTP216	ltpFR	5	3	1	WAREHOUSE	1588	n/a	0	1	0.412841796875	0.57763671875	lower	../fonts/amplitud.ttf
778.174	n/a	WORD	389087	wordpools/wasnorm_wordpool_less_exclusions.txt	LTP216	ltpFR	5	3	1	ENEMY	534	n/a	1	1	0.412841796875	0.57763671875	lower	../fonts/amplitud.ttf
782.206	n/a	WORD	391103	wordpools/wasnorm_wordpool_less_exclusions.txt	LTP216	ltpFR	5	3	1	VISITOR	1573	n/a	1	1	0.412841796875	0.57763671875	lower	../fonts/amplitud.ttf
786.204	n/a	WORD	393102	wordpools/wasnorm_wordpool_less_exclusions.txt	LTP216	ltpFR	5	3	1	POCKETBOOK	1094	n/a	0	1	0.412841796875	0.57763671875	lower	../fonts/amplitud.ttf
790.202	n/a	WORD	395101	wordpools/wasnorm_wordpool_less_exclusions.txt	LTP216	ltpFR	5	3	1	RUBY	1214	n/a	0	1	0.412841796875	0.57763671875	lower	../fonts/amplitud.ttf
794.186	n/a	WORD	397093	wordpools/wasnorm_wordpool_less_exclusions.txt	LTP216	ltpFR	5	3	1	BEAD	103	n/a	0	1	0.412841796875	0.57763671875	lower	../fonts/amplitud.ttf
799.918	n/a	REC_START	399959	n/a	LTP216	ltpFR	5	3	n/a	n/a	n/a	n/a	n/a	n/a	n/a	n/a	n/a	n/a
800.964	n/a	REC_WORD	400482	wordpools/wasnorm_wordpool_less_exclusions.txt	LTP216	ltpFR	5	3	1	RUBY	1214	n/a	0	n/a	n/a	n/a	n/a	n/a
802.372	n/a	REC_WORD	401186	wordpools/wasnorm_wordpool_less_exclusions.txt	LTP216	ltpFR	5	3	1	BEAD	103	n/a	0	n/a	n/a	n/a	n/a	n/a
803.592	n/a	REC_WORD	401796	wordpools/wasnorm_wordpool_less_exclusions.txt	LTP216	ltpFR	5	3	1	LAWYER	806	n/a	1	n/a	n/a	n/a	n/a	n/a
804.826	n/a	REC_WORD	402413	wordpools/wasnorm_wordpool_less_exclusions.txt	LTP216	ltpFR	5	3	1	DESIGNER	451	n/a	1	n/a	n/a	n/a	n/a	n/a
821.036	n/a	REC_WORD	410518	wordpools/wasnorm_wordpool_less_exclusions.txt	LTP216	ltpFR	5	3	1	CARPENTER	246	n/a	1	n/a	n/a	n/a	n/a	n/a
827.51	n/a	REC_WORD	413755	wordpools/wasnorm_wordpool_less_exclusions.txt	LTP216	ltpFR	5	3	1	POCKETBOOK	1094	n/a	0	n/a	n/a	n/a	n/a	n/a
841.37	n/a	REC_WORD	420685	wordpools/wasnorm_wordpool_less_exclusions.txt	LTP216	ltpFR	5	3	1	ENEMY	534	n/a	1	n/a	n/a	n/a	n/a	n/a
842.67	n/a	REC_WORD	421335	wordpools/wasnorm_wordpool_less_exclusions.txt	LTP216	ltpFR	5	3	1	VISITOR	1573	n/a	1	n/a	n/a	n/a	n/a	n/a
884.982	n/a	WORD	442491	wordpools/wasnorm_wordpool_less_exclusions.txt	LTP216	ltpFR	5	4	1	EMERALD	528	n/a	0	1	0.412841796875	0.57763671875	lower	../fonts/amplitud.ttf
889.182	n/a	WORD	444591	wordpools/wasnorm_wordpool_less_exclusions.txt	LTP216	ltpFR	5	4	1	CANAL	226	n/a	0	1	0.412841796875	0.57763671875	lower	../fonts/amplitud.ttf
893.056	n/a	WORD	446528	wordpools/wasnorm_wordpool_less_exclusions.txt	LTP216	ltpFR	5	4	1	LAMB	797	n/a	1	1	0.412841796875	0.57763671875	lower	../fonts/amplitud.ttf
897.038	n/a	WORD	448519	wordpools/wasnorm_wordpool_less_exclusions.txt	LTP216	ltpFR	5	4	1	BROCCOLI	176	n/a	1	1	0.412841796875	0.57763671875	lower	../fonts/amplitud.ttf
900.936	n/a	WORD	450468	wordpools/wasnorm_wordpool_less_exclusions.txt	LTP216	ltpFR	5	4	0	TELEPHONE	1445	n/a	0	0	0.5869140625	0.422607421875	upper	../fonts/zerothre.ttf
904.968	n/a	WORD	452484	wordpools/wasnorm_wordpool_less_exclusions.txt	LTP216	ltpFR	5	4	0	SHEEP	1278	n/a	0	0	0.5869140625	0.422607421875	upper	../fonts/zerothre.ttf
908.89	n/a	WORD	454445	wordpools/wasnorm_wordpool_less_exclusions.txt	LTP216	ltpFR	5	4	1	CROCODILE	411	n/a	1	1	0.412841796875	0.57763671875	lower	../fonts/amplitud.ttf
912.99	n/a	WORD	456495	wordpools/wasnorm_wordpool_less_exclusions.txt	LTP216	ltpFR	5	4	1	OTTER	986	n/a	1	1	0.412841796875	0.57763671875	lower	../fonts/amplitud.ttf
917.082	n/a	WORD	458541	wordpools/wasnorm_wordpool_less_exclusions.txt	LTP216	ltpFR	5	4	1	KETCHUP	771	n/a	0	1	0.412841796875	0.57763671875	lower	../fonts/amplitud.ttf
920.92	n/a	WORD	460460	wordpools/wasnorm_wordpool_less_exclusions.txt	LTP216	ltpFR	5	4	1	BRIDE	173	n/a	1	1	0.412841796875	0.57763671875	lower	../fonts/amplitud.ttf
925.078	n/a	WORD	462539	wordpools/wasnorm_wordpool_less_exclusions.txt	LTP216	ltpFR	5	4	0	BLACKBERRY	132	n/a	0	0	0.5869140625	0.422607421875	upper	../fonts/zerothre.ttf
929.134	n/a	WORD	464567	wordpools/wasnorm_wordpool_less_exclusions.txt	LTP216	ltpFR	5	4	0	FRUIT	610	n/a	0	0	0.5869140625	0.422607421875	upper	../fonts/zerothre.ttf
933.1	n/a	WORD	466550	wordpools/wasnorm_wordpool_less_exclusions.txt	LTP216	ltpFR	5	4	0	LINT	826	n/a	0	0	0.5869140625	0.422607421875	upper	../fonts/zerothre.ttf
937.04	n/a	WORD	468520	wordpools/wasnorm_wordpool_less_exclusions.txt	LTP216	ltpFR	5	4	0	GOWN	652	n/a	0	0	0.5869140625	0.422607421875	upper	../fonts/zerothre.ttf
940.972	n/a	WORD	470486	wordpools/wasnorm_wordpool_less_exclusions.txt	LTP216	ltpFR	5	4	0	DRINK	498	n/a	0	0	0.5869140625	0.422607421875	upper	../fonts/zerothre.ttf
945.162	n/a	WORD	472581	wordpools/wasnorm_wordpool_less_exclusions.txt	LTP216	ltpFR	5	4	0	TOY	1492	n/a	0	0	0.5869140625	0.422607421875	upper	../fonts/zerothre.ttf
951.128	n/a	REC_START	475564	n/a	LTP216	ltpFR	5	4	n/a	n/a	n/a	n/a	n/a	n/a	n/a	n/a	n/a	n/a
953.114	n/a	REC_WORD	476557	wordpools/wasnorm_wordpool_less_exclusions.txt	LTP216	ltpFR	5	4	0	BLACKBERRY	132	n/a	0	n/a	n/a	n/a	n/a	n/a
954.18	n/a	REC_WORD	477090	wordpools/wasnorm_wordpool_less_exclusions.txt	LTP216	ltpFR	5	4	0	FRUIT	610	n/a	0	n/a	n/a	n/a	n/a	n/a
955.668	n/a	REC_WORD	477834	wordpools/wasnorm_wordpool_less_exclusions.txt	LTP216	ltpFR	5	4	0	LINT	826	n/a	0	n/a	n/a	n/a	n/a	n/a
968.68	n/a	REC_WORD	484340	wordpools/wasnorm_wordpool_less_exclusions.txt	LTP216	ltpFR	5	4	1	LAMB	797	n/a	1	n/a	n/a	n/a	n/a	n/a
971.712	n/a	REC_WORD	485856	wordpools/wasnorm_wordpool_less_exclusions.txt	LTP216	ltpFR	5	4	1	OTTER	986	n/a	1	n/a	n/a	n/a	n/a	n/a
973.274	n/a	REC_WORD	486637	wordpools/wasnorm_wordpool_less_exclusions.txt	LTP216	ltpFR	5	4	1	CROCODILE	411	n/a	1	n/a	n/a	n/a	n/a	n/a
977.748	n/a	REC_WORD	488874	wordpools/wasnorm_wordpool_less_exclusions.txt	LTP216	ltpFR	5	4	1	RUBY	1214	n/a	0	n/a	n/a	n/a	n/a	n/a
1040.168	n/a	WORD	520084	wordpools/wasnorm_wordpool_less_exclusions.txt	LTP216	ltpFR	5	5	0	MAGNET	855	n/a	0	0	0.5869140625	0.422607421875	upper	../fonts/zerothre.ttf
1044.116	n/a	WORD	522058	wordpools/wasnorm_wordpool_less_exclusions.txt	LTP216	ltpFR	5	5	0	MICROPHONE	890	n/a	0	0	0.5869140625	0.422607421875	upper	../fonts/zerothre.ttf
1048.308	n/a	WORD	524154	wordpools/wasnorm_wordpool_less_exclusions.txt	LTP216	ltpFR	5	5	0	CYCLONE	431	n/a	1	0	0.5869140625	0.422607421875	upper	../fonts/zerothre.ttf
1052.382	n/a	WORD	526191	wordpools/wasnorm_wordpool_less_exclusions.txt	LTP216	ltpFR	5	5	0	SUGAR	1401	n/a	0	0	0.5869140625	0.422607421875	upper	../fonts/zerothre.ttf
1056.406	n/a	WORD	528203	wordpools/wasnorm_wordpool_less_exclusions.txt	LTP216	ltpFR	5	5	0	CINNAMON	310	n/a	0	0	0.5869140625	0.422607421875	upper	../fonts/zerothre.ttf
1060.286	n/a	WORD	530143	wordpools/wasnorm_wordpool_less_exclusions.txt	LTP216	ltpFR	5	5	0	TREE	1502	n/a	1	0	0.5869140625	0.422607421875	upper	../fonts/zerothre.ttf
1064.502	n/a	WORD	532251	wordpools/wasnorm_wordpool_less_exclusions.txt	LTP216	ltpFR	5	5	0	SHOELACE	1289	n/a	0	0	0.5869140625	0.422607421875	upper	../fonts/zerothre.ttf
1068.678	n/a	WORD	534339	wordpools/wasnorm_wordpool_less_exclusions.txt	LTP216	ltpFR	5	5	0	SHOVEL	1295	n/a	0	0	0.5869140625	0.422607421875	upper	../fonts/zerothre.ttf
1072.634	n/a	WORD	536317	wordpools/wasnorm_wordpool_less_exclusions.txt	LTP216	ltpFR	5	5	0	KEG	770	n/a	1	0	0.5869140625	0.422607421875	upper	../fonts/zerothre.ttf
1076.466	n/a	WORD	538233	wordpools/wasnorm_wordpool_less_exclusions.txt	LTP216	ltpFR	5	5	0	STEREO	1378	n/a	0	0	0.5869140625	0.422607421875	upper	../fonts/zerothre.ttf
1080.322	n/a	WORD	540161	wordpools/wasnorm_wordpool_less_exclusions.txt	LTP216	ltpFR	5	5	0	OVEN	991	n/a	0	0	0.5869140625	0.422607421875	upper	../fonts/zerothre.ttf
1084.512	n/a	WORD	542256	wordpools/wasnorm_wordpool_less_exclusions.txt	LTP216	ltpFR	5	5	0	EYE	545	n/a	0	0	0.5869140625	0.422607421875	upper	../fonts/zerothre.ttf
1088.628	n/a	WORD	544314	wordpools/wasnorm_wordpool_less_exclusions.txt	LTP216	ltpFR	5	5	0	MASCARA	875	n/a	0	0	0.5869140625	0.422607421875	upper	../fonts/zerothre.ttf
1092.542	n/a	WORD	546271	wordpools/wasnorm_wordpool_less_exclusions.txt	LTP216	ltpFR	5	5	0	SWIMMER	1420	n/a	0	0	0.5869140625	0.422607421875	upper	../fonts/zerothre.ttf
1096.458	n/a	WORD	548229	wordpools/wasnorm_wordpool_less_exclusions.txt	LTP216	ltpFR	5	5	0	SINK	1309	n/a	0	0	0.5869140625	0.422607421875	upper	../fonts/zerothre.ttf
1100.374	n/a	WORD	550187	wordpools/wasnorm_wordpool_less_exclusions.txt	LTP216	ltpFR	5	5	0	SAP	1233	n/a	0	0	0.5869140625	0.422607421875	upper	../fonts/zerothre.ttf
1106.088	n/a	REC_START	553044	n/a	LTP216	ltpFR	5	5	n/a	n/a	n/a	n/a	n/a	n/a	n/a	n/a	n/a	n/a
1107.334	n/a	REC_WORD	553667	wordpools/wasnorm_wordpool_less_exclusions.txt	LTP216	ltpFR	5	5	0	SINK	1309	n/a	0	n/a	n/a	n/a	n/a	n/a
1108.352	n/a	REC_WORD	554176	wordpools/wasnorm_wordpool_less_exclusions.txt	LTP216	ltpFR	5	5	0	SWIMMER	1420	n/a	0	n/a	n/a	n/a	n/a	n/a
1109.794	n/a	REC_WORD	554897	wordpools/wasnorm_wordpool_less_exclusions.txt	LTP216	ltpFR	5	5	0	CINNAMON	310	n/a	0	n/a	n/a	n/a	n/a	n/a
1111.866	n/a	REC_WORD	555933	wordpools/wasnorm_wordpool_less_exclusions.txt	LTP216	ltpFR	5	5	0	TREE	1502	n/a	1	n/a	n/a	n/a	n/a	n/a
1113.482	n/a	REC_WORD	556741	wordpools/wasnorm_wordpool_less_exclusions.txt	LTP216	ltpFR	5	5	0	MASCARA	875	n/a	0	n/a	n/a	n/a	n/a	n/a
1115.282	n/a	REC_WORD	557641	wordpools/wasnorm_wordpool_less_exclusions.txt	LTP216	ltpFR	5	5	0	EYE	545	n/a	0	n/a	n/a	n/a	n/a	n/a
1122.008	n/a	REC_WORD	561004	wordpools/wasnorm_wordpool_less_exclusions.txt	LTP216	ltpFR	5	5	0	SHOELACE	1289	n/a	0	n/a	n/a	n/a	n/a	n/a
1130.204	n/a	REC_WORD	565102	wordpools/wasnorm_wordpool_less_exclusions.txt	LTP216	ltpFR	5	5	0	SUGAR	1401	n/a	0	n/a	n/a	n/a	n/a	n/a
1139.722	n/a	REC_WORD	569861	wordpools/wasnorm_wordpool_less_exclusions.txt	LTP216	ltpFR	5	5	0	SINK	1309	n/a	0	n/a	n/a	n/a	n/a	n/a
1169.762	n/a	REC_WORD	584881	wordpools/wasnorm_wordpool_less_exclusions.txt	LTP216	ltpFR	5	5	0	EYE	545	n/a	0	n/a	n/a	n/a	n/a	n/a
1189.314	n/a	WORD	594657	wordpools/wasnorm_wordpool_less_exclusions.txt	LTP216	ltpFR	5	6	1	FRIAR	605	n/a	1	1	0.412841796875	0.57763671875	lower	../fonts/amplitud.ttf
1193.438	n/a	WORD	596719	wordpools/wasnorm_wordpool_less_exclusions.txt	LTP216	ltpFR	5	6	1	BONE	148	n/a	1	1	0.412841796875	0.57763671875	lower	../fonts/amplitud.ttf
1197.672	n/a	WORD	598836	wordpools/wasnorm_wordpool_less_exclusions.txt	LTP216	ltpFR	5	6	1	RACK	1154	n/a	0	1	0.412841796875	0.57763671875	lower	../fonts/amplitud.ttf
1201.652	n/a	WORD	600826	wordpools/wasnorm_wordpool_less_exclusions.txt	LTP216	ltpFR	5	6	1	BRIEFCASE	175	n/a	0	1	0.412841796875	0.57763671875	lower	../fonts/amplitud.ttf
1205.776	n/a	WORD	602888	wordpools/wasnorm_wordpool_less_exclusions.txt	LTP216	ltpFR	5	6	1	GAVEL	627	n/a	0	1	0.412841796875	0.57763671875	lower	../fonts/amplitud.ttf
1209.818	n/a	WORD	604909	wordpools/wasnorm_wordpool_less_exclusions.txt	LTP216	ltpFR	5	6	1	ATTORNEY	58	n/a	1	1	0.412841796875	0.57763671875	lower	../fonts/amplitud.ttf
1213.856	n/a	WORD	606928	wordpools/wasnorm_wordpool_less_exclusions.txt	LTP216	ltpFR	5	6	1	OATMEAL	967	n/a	0	1	0.412841796875	0.57763671875	lower	../fonts/amplitud.ttf
1217.714	n/a	WORD	608857	wordpools/wasnorm_wordpool_less_exclusions.txt	LTP216	ltpFR	5	6	1	SHERIFF	1284	n/a	1	1	0.412841796875	0.57763671875	lower	../fonts/amplitud.ttf
1221.888	n/a	WORD	610944	wordpools/wasnorm_wordpool_less_exclusions.txt	LTP216	ltpFR	5	6	1	COSTUME	383	n/a	0	1	0.412841796875	0.57763671875	lower	../fonts/amplitud.ttf
1225.886	n/a	WORD	612943	wordpools/wasnorm_wordpool_less_exclusions.txt	LTP216	ltpFR	5	6	1	HANGER	687	n/a	0	1	0.412841796875	0.57763671875	lower	../fonts/amplitud.ttf
1229.75	n/a	WORD	614875	wordpools/wasnorm_wordpool_less_exclusions.txt	LTP216	ltpFR	5	6	1	SNOB	1335	n/a	1	1	0.412841796875	0.57763671875	lower	../fonts/amplitud.ttf
1233.776	n/a	WORD	616888	wordpools/wasnorm_wordpool_less_exclusions.txt	LTP216	ltpFR	5	6	1	VILLAGE	1566	n/a	1	1	0.412841796875	0.57763671875	lower	../fonts/amplitud.ttf
1237.798	n/a	WORD	618899	wordpools/wasnorm_wordpool_less_exclusions.txt	LTP216	ltpFR	5	6	1	COOKBOOK	373	n/a	0	1	0.412841796875	0.57763671875	lower	../fonts/amplitud.ttf
1241.662	n/a	WORD	620831	wordpools/wasnorm_wordpool_less_exclusions.txt	LTP216	ltpFR	5	6	1	HAT	690	n/a	0	1	0.412841796875	0.57763671875	lower	../fonts/amplitud.ttf
1245.662	n/a	WORD	622831	wordpools/wasnorm_wordpool_less_exclusions.txt	LTP216	ltpFR	5	6	1	POND	1101	n/a	1	1	0.412841796875	0.57763671875	lower	../fonts/amplitud.ttf
1249.576	n/a	WORD	624788	wordpools/wasnorm_wordpool_less_exclusions.txt	LTP216	ltpFR	5	6	1	DETECTIVE	454	n/a	1	1	0.412841796875	0.57763671875	lower	../fonts/amplitud.ttf
1255.626	n/a	REC_START	627813	n/a	LTP216	ltpFR	5	6	n/a	n/a	n/a	n/a	n/a	n/a	n/a	n/a	n/a	n/a
1256.968	n/a	REC_WORD	628484	wordpools/wasnorm_wordpool_less_exclusions.txt	LTP216	ltpFR	5	6	1	ATTORNEY	58	n/a	1	n/a	n/a	n/a	n/a	n/a
1259.572	n/a	REC_WORD	629786	wordpools/wasnorm_wordpool_less_exclusions.txt	LTP216	ltpFR	5	6	1	POND	1101	n/a	1	n/a	n/a	n/a	n/a	n/a
1261.936	n/a	REC_WORD	630968	wordpools/wasnorm_wordpool_less_exclusions.txt	LTP216	ltpFR	5	6	1	DETECTIVE	454	n/a	1	n/a	n/a	n/a	n/a	n/a
1272.534	n/a	REC_WORD	636267	wordpools/wasnorm_wordpool_less_exclusions.txt	LTP216	ltpFR	5	6	1	VILLAGE	1566	n/a	1	n/a	n/a	n/a	n/a	n/a
1346.958	n/a	WORD	673479	wordpools/wasnorm_wordpool_less_exclusions.txt	LTP216	ltpFR	5	7	0	PORT	1110	n/a	0	0	0.5869140625	0.422607421875	upper	../fonts/zerothre.ttf
1350.946	n/a	WORD	675473	wordpools/wasnorm_wordpool_less_exclusions.txt	LTP216	ltpFR	5	7	0	THUMB	1462	n/a	0	0	0.5869140625	0.422607421875	upper	../fonts/zerothre.ttf
1354.91	n/a	WORD	677455	wordpools/wasnorm_wordpool_less_exclusions.txt	LTP216	ltpFR	5	7	0	MAN	862	n/a	0	0	0.5869140625	0.422607421875	upper	../fonts/zerothre.ttf
1358.82	n/a	WORD	679410	wordpools/wasnorm_wordpool_less_exclusions.txt	LTP216	ltpFR	5	7	0	WALL	1582	n/a	1	0	0.5869140625	0.422607421875	upper	../fonts/zerothre.ttf
1362.652	n/a	WORD	681326	wordpools/wasnorm_wordpool_less_exclusions.txt	LTP216	ltpFR	5	7	1	MARINE	869	n/a	1	1	0.412841796875	0.57763671875	lower	../fonts/amplitud.ttf
1366.842	n/a	WORD	683421	wordpools/wasnorm_wordpool_less_exclusions.txt	LTP216	ltpFR	5	7	1	RATTLE	1170	n/a	0	1	0.412841796875	0.57763671875	lower	../fonts/amplitud.ttf
1370.99	n/a	WORD	685495	wordpools/wasnorm_wordpool_less_exclusions.txt	LTP216	ltpFR	5	7	1	SERPENT	1270	n/a	1	1	0.412841796875	0.57763671875	lower	../fonts/amplitud.ttf
1374.938	n/a	WORD	687469	wordpools/wasnorm_wordpool_less_exclusions.txt	LTP216	ltpFR	5	7	1	LADY	794	n/a	1	1	0.412841796875	0.57763671875	lower	../fonts/amplitud.ttf
1378.814	n/a	WORD	689407	wordpools/wasnorm_wordpool_less_exclusions.txt	LTP216	ltpFR	5	7	1	APARTMENT	30	n/a	0	1	0.412841796875	0.57763671875	lower	../fonts/amplitud.ttf
1382.728	n/a	WORD	691364	wordpools/wasnorm_wordpool_less_exclusions.txt	LTP216	ltpFR	5	7	0	PIGMENT	1066	n/a	0	0	0.5869140625	0.422607421875	upper	../fonts/zerothre.ttf
1386.86	n/a	WORD	693430	wordpools/wasnorm_wordpool_less_exclusions.txt	LTP216	ltpFR	5	7	0	MARKER	870	n/a	0	0	0.5869140625	0.422607421875	upper	../fonts/zerothre.ttf
1390.866	n/a	WORD	695433	wordpools/wasnorm_wordpool_less_exclusions.txt	LTP216	ltpFR	5	7	0	ARTICLE	42	n/a	0	0	0.5869140625	0.422607421875	upper	../fonts/zerothre.ttf
1394.998	n/a	WORD	697499	wordpools/wasnorm_wordpool_less_exclusions.txt	LTP216	ltpFR	5	7	0	NOVEL	960	n/a	1	0	0.5869140625	0.422607421875	upper	../fonts/zerothre.ttf
1399.114	n/a	WORD	699557	wordpools/wasnorm_wordpool_less_exclusions.txt	LTP216	ltpFR	5	7	1	CUB	419	n/a	1	1	0.412841796875	0.57763671875	lower	../fonts/amplitud.ttf
1403.112	n/a	WORD	701556	wordpools/wasnorm_wordpool_less_exclusions.txt	LTP216	ltpFR	5	7	1	CAFE	216	n/a	0	1	0.412841796875	0.57763671875	lower	../fonts/amplitud.ttf
1407.028	n/a	WORD	703514	wordpools/wasnorm_wordpool_less_exclusions.txt	LTP216	ltpFR	5	7	1	LENS	811	n/a	0	1	0.412841796875	0.57763671875	lower	../fonts/amplitud.ttf
1412.968	n/a	REC_START	706484	n/a	LTP216	ltpFR	5	7	n/a	n/a	n/a	n/a	n/a	n/a	n/a	n/a	n/a	n/a
1414.714	n/a	REC_WORD	707357	wordpools/wasnorm_wordpool_less_exclusions.txt	LTP216	ltpFR	5	7	1	LENS	811	n/a	0	n/a	n/a	n/a	n/a	n/a
1417.92	n/a	REC_WORD	708960	wordpools/wasnorm_wordpool_less_exclusions.txt	LTP216	ltpFR	5	7	1	APARTMENT	30	n/a	0	n/a	n/a	n/a	n/a	n/a
1421.832	n/a	REC_WORD	710916	wordpools/wasnorm_wordpool_less_exclusions.txt	LTP216	ltpFR	5	7	1	CAFE	216	n/a	0	n/a	n/a	n/a	n/a	n/a
1434.304	n/a	REC_WORD	717152	wordpools/wasnorm_wordpool_less_exclusions.txt	LTP216	ltpFR	5	7	0	WALL	1582	n/a	1	n/a	n/a	n/a	n/a	n/a
1438.47	n/a	REC_WORD	719235	wordpools/wasnorm_wordpool_less_exclusions.txt	LTP216	ltpFR	5	7	0	MAN	862	n/a	0	n/a	n/a	n/a	n/a	n/a
1500.702	n/a	WORD	750351	wordpools/wasnorm_wordpool_less_exclusions.txt	LTP216	ltpFR	5	8	-1	LINEN	825	n/a	-1	1	1.0	1.0	upper	../fonts/Verdana.ttf
1504.852	n/a	WORD	752426	wordpools/wasnorm_wordpool_less_exclusions.txt	LTP216	ltpFR	5	8	-1	SILK	1307	n/a	-1	1	1.0	1.0	upper	../fonts/Verdana.ttf
1509.018	n/a	WORD	754509	wordpools/wasnorm_wordpool_less_exclusions.txt	LTP216	ltpFR	5	8	-1	TECHNICIAN	1443	n/a	-1	1	1.0	1.0	upper	../fonts/Verdana.ttf
1513.166	n/a	WORD	756583	wordpools/wasnorm_wordpool_less_exclusions.txt	LTP216	ltpFR	5	8	-1	CARAVAN	242	n/a	-1	1	1.0	1.0	upper	../fonts/Verdana.ttf
1517.064	n/a	WORD	758532	wordpools/wasnorm_wordpool_less_exclusions.txt	LTP216	ltpFR	5	8	-1	TIE	1466	n/a	-1	1	1.0	1.0	upper	../fonts/Verdana.ttf
1521.23	n/a	WORD	760615	wordpools/wasnorm_wordpool_less_exclusions.txt	LTP216	ltpFR	5	8	-1	SCALLOP	1242	n/a	-1	1	1.0	1.0	upper	../fonts/Verdana.ttf
1525.188	n/a	WORD	762594	wordpools/wasnorm_wordpool_less_exclusions.txt	LTP216	ltpFR	5	8	-1	FAUCET	555	n/a	-1	1	1.0	1.0	upper	../fonts/Verdana.ttf
1529.406	n/a	WORD	764703	wordpools/wasnorm_wordpool_less_exclusions.txt	LTP216	ltpFR	5	8	-1	REPTILE	1185	n/a	-1	1	1.0	1.0	upper	../fonts/Verdana.ttf
1533.572	n/a	WORD	766786	wordpools/wasnorm_wordpool_less_exclusions.txt	LTP216	ltpFR	5	8	-1	WITNESS	1618	n/a	-1	1	1.0	1.0	upper	../fonts/Verdana.ttf
1537.678	n/a	WORD	768839	wordpools/wasnorm_wordpool_less_exclusions.txt	LTP216	ltpFR	5	8	-1	HEAD	695	n/a	-1	1	1.0	1.0	upper	../fonts/Verdana.ttf
1541.76	n/a	WORD	770880	wordpools/wasnorm_wordpool_less_exclusions.txt	LTP216	ltpFR	5	8	-1	SCARECROW	1245	n/a	-1	1	1.0	1.0	upper	../fonts/Verdana.ttf
1545.842	n/a	WORD	772921	wordpools/wasnorm_wordpool_less_exclusions.txt	LTP216	ltpFR	5	8	-1	SERVER	1272	n/a	-1	1	1.0	1.0	upper	../fonts/Verdana.ttf
1549.716	n/a	WORD	774858	wordpools/wasnorm_wordpool_less_exclusions.txt	LTP216	ltpFR	5	8	-1	DINER	467	n/a	-1	1	1.0	1.0	upper	../fonts/Verdana.ttf
1553.664	n/a	WORD	776832	wordpools/wasnorm_wordpool_less_exclusions.txt	LTP216	ltpFR	5	8	-1	SUBMARINE	1398	n/a	-1	1	1.0	1.0	upper	../fonts/Verdana.ttf
1557.636	n/a	WORD	778818	wordpools/wasnorm_wordpool_less_exclusions.txt	LTP216	ltpFR	5	8	-1	GARBAGE	622	n/a	-1	1	1.0	1.0	upper	../fonts/Verdana.ttf
1561.836	n/a	WORD	780918	wordpools/wasnorm_wordpool_less_exclusions.txt	LTP216	ltpFR	5	8	-1	SHELL	1281	n/a	-1	1	1.0	1.0	upper	../fonts/Verdana.ttf
1567.862	n/a	REC_START	783931	n/a	LTP216	ltpFR	5	8	n/a	n/a	n/a	n/a	n/a	n/a	n/a	n/a	n/a	n/a
1569.04	n/a	REC_WORD	784520	wordpools/wasnorm_wordpool_less_exclusions.txt	LTP216	ltpFR	5	8	-1	LINEN	825	n/a	-1	n/a	n/a	n/a	n/a	n/a
1569.896	n/a	REC_WORD	784948	wordpools/wasnorm_wordpool_less_exclusions.txt	LTP216	ltpFR	5	8	-1	SILK	1307	n/a	-1	n/a	n/a	n/a	n/a	n/a
1571.198	n/a	REC_WORD	785599	wordpools/wasnorm_wordpool_less_exclusions.txt	LTP216	ltpFR	5	8	-1	SHELL	1281	n/a	-1	n/a	n/a	n/a	n/a	n/a
1572.58	n/a	REC_WORD	786290	wordpools/wasnorm_wordpool_less_exclusions.txt	LTP216	ltpFR	5	8	-1	SCALLOP	1242	n/a	-1	n/a	n/a	n/a	n/a	n/a
1576.88	n/a	REC_WORD	788440	wordpools/wasnorm_wordpool_less_exclusions.txt	LTP216	ltpFR	5	8	-1	CARAVAN	242	n/a	-1	n/a	n/a	n/a	n/a	n/a
1578.192	n/a	REC_WORD	789096	wordpools/wasnorm_wordpool_less_exclusions.txt	LTP216	ltpFR	5	8	-1	TECHNICIAN	1443	n/a	-1	n/a	n/a	n/a	n/a	n/a
1621.358	n/a	REC_WORD	810679	wordpools/wasnorm_wordpool_less_exclusions.txt	LTP216	ltpFR	5	8	-1	SUBMARINE	1398	n/a	-1	n/a	n/a	n/a	n/a	n/a
1623.768	n/a	REC_WORD	811884	wordpools/wasnorm_wordpool_less_exclusions.txt	LTP216	ltpFR	5	8	1	SERPENT	1270	n/a	1	n/a	n/a	n/a	n/a	n/a
1650.552	n/a	WORD	825276	wordpools/wasnorm_wordpool_less_exclusions.txt	LTP216	ltpFR	5	9	1	DOCUMENT	479	n/a	0	1	0.412841796875	0.57763671875	lower	../fonts/amplitud.ttf
1654.5	n/a	WORD	827250	wordpools/wasnorm_wordpool_less_exclusions.txt	LTP216	ltpFR	5	9	1	COBBLER	335	n/a	1	1	0.412841796875	0.57763671875	lower	../fonts/amplitud.ttf
1658.356	n/a	WORD	829178	wordpools/wasnorm_wordpool_less_exclusions.txt	LTP216	ltpFR	5	9	1	RAZOR	1171	n/a	0	1	0.412841796875	0.57763671875	lower	../fonts/amplitud.ttf
1662.554	n/a	WORD	831277	wordpools/wasnorm_wordpool_less_exclusions.txt	LTP216	ltpFR	5	9	0	SILVERWARE	1308	n/a	0	0	0.5869140625	0.422607421875	upper	../fonts/zerothre.ttf
1666.386	n/a	WORD	833193	wordpools/wasnorm_wordpool_less_exclusions.txt	LTP216	ltpFR	5	9	0	ANT	25	n/a	0	0	0.5869140625	0.422607421875	upper	../fonts/zerothre.ttf
1670.578	n/a	WORD	835289	wordpools/wasnorm_wordpool_less_exclusions.txt	LTP216	ltpFR	5	9	0	ROCKET	1202	n/a	1	0	0.5869140625	0.422607421875	upper	../fonts/zerothre.ttf
1674.484	n/a	WORD	837242	wordpools/wasnorm_wordpool_less_exclusions.txt	LTP216	ltpFR	5	9	0	BEET	115	n/a	0	0	0.5869140625	0.422607421875	upper	../fonts/zerothre.ttf
1678.458	n/a	WORD	839229	wordpools/wasnorm_wordpool_less_exclusions.txt	LTP216	ltpFR	5	9	0	CURTAIN	427	n/a	0	0	0.5869140625	0.422607421875	upper	../fonts/zerothre.ttf
1682.482	n/a	WORD	841241	wordpools/wasnorm_wordpool_less_exclusions.txt	LTP216	ltpFR	5	9	1	SENATOR	1268	n/a	1	1	0.412841796875	0.57763671875	lower	../fonts/amplitud.ttf
1686.49	n/a	WORD	843245	wordpools/wasnorm_wordpool_less_exclusions.txt	LTP216	ltpFR	5	9	1	FELLOW	558	n/a	1	1	0.412841796875	0.57763671875	lower	../fonts/amplitud.ttf
1690.528	n/a	WORD	845264	wordpools/wasnorm_wordpool_less_exclusions.txt	LTP216	ltpFR	5	9	0	FRIEND	606	n/a	0	0	0.5869140625	0.422607421875	upper	../fonts/zerothre.ttf
1694.588	n/a	WORD	847294	wordpools/wasnorm_wordpool_less_exclusions.txt	LTP216	ltpFR	5	9	0	SCRIBBLE	1256	n/a	0	0	0.5869140625	0.422607421875	upper	../fonts/zerothre.ttf
1698.61	n/a	WORD	849305	wordpools/wasnorm_wordpool_less_exclusions.txt	LTP216	ltpFR	5	9	0	MOSQUITO	917	n/a	0	0	0.5869140625	0.422607421875	upper	../fonts/zerothre.ttf
1702.808	n/a	WORD	851404	wordpools/wasnorm_wordpool_less_exclusions.txt	LTP216	ltpFR	5	9	1	BUS	201	n/a	0	1	0.412841796875	0.57763671875	lower	../fonts/amplitud.ttf
1706.724	n/a	WORD	853362	wordpools/wasnorm_wordpool_less_exclusions.txt	LTP216	ltpFR	5	9	1	RAM	1165	n/a	1	1	0.412841796875	0.57763671875	lower	../fonts/amplitud.ttf
1710.588	n/a	WORD	855294	wordpools/wasnorm_wordpool_less_exclusions.txt	LTP216	ltpFR	5	9	1	PAW	1029	n/a	1	1	0.412841796875	0.57763671875	lower	../fonts/amplitud.ttf
1716.276	n/a	REC_START	858138	n/a	LTP216	ltpFR	5	9	n/a	n/a	n/a	n/a	n/a	n/a	n/a	n/a	n/a	n/a
1717.504	n/a	REC_WORD	858752	wordpools/wasnorm_wordpool_less_exclusions.txt	LTP216	ltpFR	5	9	1	BUS	201	n/a	0	n/a	n/a	n/a	n/a	n/a
1718.586	n/a	REC_WORD	859293	wordpools/wasnorm_wordpool_less_exclusions.txt	LTP216	ltpFR	5	9	1	RAM	1165	n/a	1	n/a	n/a	n/a	n/a	n/a
1719.718	n/a	REC_WORD	859859	wordpools/wasnorm_wordpool_less_exclusions.txt	LTP216	ltpFR	5	9	1	PAW	1029	n/a	1	n/a	n/a	n/a	n/a	n/a
1783.076	n/a	REC_WORD	891538	wordpools/wasnorm_wordpool_less_exclusions.txt	LTP216	ltpFR	5	9	1	SENATOR	1268	n/a	1	n/a	n/a	n/a	n/a	n/a
1786.77	n/a	REC_WORD	893385	wordpools/wasnorm_wordpool_less_exclusions.txt	LTP216	ltpFR	5	9	1	FELLOW	558	n/a	1	n/a	n/a	n/a	n/a	n/a
1801.87	n/a	WORD	900935	wordpools/wasnorm_wordpool_less_exclusions.txt	LTP216	ltpFR	5	10	-1	PLUMBER	1091	n/a	-1	1	1.0	1.0	upper	../fonts/Verdana.ttf
1805.812	n/a	WORD	902906	wordpools/wasnorm_wordpool_less_exclusions.txt	LTP216	ltpFR	5	10	-1	PADDLE	1000	n/a	-1	1	1.0	1.0	upper	../fonts/Verdana.ttf
1809.76	n/a	WORD	904880	wordpools/wasnorm_wordpool_less_exclusions.txt	LTP216	ltpFR	5	10	-1	CAPE	237	n/a	-1	1	1.0	1.0	upper	../fonts/Verdana.ttf
1813.884	n/a	WORD	906942	wordpools/wasnorm_wordpool_less_exclusions.txt	LTP216	ltpFR	5	10	-1	BRICK	172	n/a	-1	1	1.0	1.0	upper	../fonts/Verdana.ttf
1817.908	n/a	WORD	908954	wordpools/wasnorm_wordpool_less_exclusions.txt	LTP216	ltpFR	5	10	-1	BATHROOM	99	n/a	-1	1	1.0	1.0	upper	../fonts/Verdana.ttf
1821.896	n/a	WORD	910948	wordpools/wasnorm_wordpool_less_exclusions.txt	LTP216	ltpFR	5	10	-1	PICK	1058	n/a	-1	1	1.0	1.0	upper	../fonts/Verdana.ttf
1825.744	n/a	WORD	912872	wordpools/wasnorm_wordpool_less_exclusions.txt	LTP216	ltpFR	5	10	-1	PAIL	1002	n/a	-1	1	1.0	1.0	upper	../fonts/Verdana.ttf
1829.754	n/a	WORD	914877	wordpools/wasnorm_wordpool_less_exclusions.txt	LTP216	ltpFR	5	10	-1	VEAL	1551	n/a	-1	1	1.0	1.0	upper	../fonts/Verdana.ttf
1833.736	n/a	WORD	916868	wordpools/wasnorm_wordpool_less_exclusions.txt	LTP216	ltpFR	5	10	-1	HERD	705	n/a	-1	1	1.0	1.0	upper	../fonts/Verdana.ttf
1837.6	n/a	WORD	918800	wordpools/wasnorm_wordpool_less_exclusions.txt	LTP216	ltpFR	5	10	-1	PUPIL	1143	n/a	-1	1	1.0	1.0	upper	../fonts/Verdana.ttf
1841.806	n/a	WORD	920903	wordpools/wasnorm_wordpool_less_exclusions.txt	LTP216	ltpFR	5	10	-1	GRADUATE	653	n/a	-1	1	1.0	1.0	upper	../fonts/Verdana.ttf
1845.748	n/a	WORD	922874	wordpools/wasnorm_wordpool_less_exclusions.txt	LTP216	ltpFR	5	10	-1	HUT	729	n/a	-1	1	1.0	1.0	upper	../fonts/Verdana.ttf
1849.704	n/a	WORD	924852	wordpools/wasnorm_wordpool_less_exclusions.txt	LTP216	ltpFR	5	10	-1	EDITOR	516	n/a	-1	1	1.0	1.0	upper	../fonts/Verdana.ttf
1853.746	n/a	WORD	926873	wordpools/wasnorm_wordpool_less_exclusions.txt	LTP216	ltpFR	5	10	-1	STEM	1376	n/a	-1	1	1.0	1.0	upper	../fonts/Verdana.ttf
1857.616	n/a	WORD	928808	wordpools/wasnorm_wordpool_less_exclusions.txt	LTP216	ltpFR	5	10	-1	ELM	527	n/a	-1	1	1.0	1.0	upper	../fonts/Verdana.ttf
1861.574	n/a	WORD	930787	wordpools/wasnorm_wordpool_less_exclusions.txt	LTP216	ltpFR	5	10	-1	BOTTLE	153	n/a	-1	1	1.0	1.0	upper	../fonts/Verdana.ttf
1867.304	n/a	REC_START	933652	n/a	LTP216	ltpFR	5	10	n/a	n/a	n/a	n/a	n/a	n/a	n/a	n/a	n/a	n/a
1868.986	n/a	REC_WORD	934493	wordpools/wasnorm_wordpool_less_exclusions.txt	LTP216	ltpFR	5	10	-1	BOTTLE	153	n/a	-1	n/a	n/a	n/a	n/a	n/a
1871.406	n/a	REC_WORD	935703	wordpools/wasnorm_wordpool_less_exclusions.txt	LTP216	ltpFR	5	10	-1	STEM	1376	n/a	-1	n/a	n/a	n/a	n/a	n/a
1882.546	n/a	REC_WORD	941273	wordpools/wasnorm_wordpool_less_exclusions.txt	LTP216	ltpFR	5	10	-1	PAIL	1002	n/a	-1	n/a	n/a	n/a	n/a	n/a
1883.872	n/a	REC_WORD	941936	wordpools/wasnorm_wordpool_less_exclusions.txt	LTP216	ltpFR	5	10	-1	PICK	1058	n/a	-1	n/a	n/a	n/a	n/a	n/a
1885.992	n/a	REC_WORD	942996	wordpools/wasnorm_wordpool_less_exclusions.txt	LTP216	ltpFR	5	10	-1	PLUMBER	1091	n/a	-1	n/a	n/a	n/a	n/a	n/a
1917.068	n/a	REC_WORD	958534	wordpools/wasnorm_wordpool_less_exclusions.txt	LTP216	ltpFR	5	10	-1	BATHROOM	99	n/a	-1	n/a	n/a	n/a	n/a	n/a
1955.516	n/a	WORD	977758	wordpools/wasnorm_wordpool_less_exclusions.txt	LTP216	ltpFR	5	11	0	LIGHTER	819	n/a	0	0	0.5869140625	0.422607421875	upper	../fonts/zerothre.ttf
1959.666	n/a	WORD	979833	wordpools/wasnorm_wordpool_less_exclusions.txt	LTP216	ltpFR	5	11	0	COLLAR	345	n/a	0	0	0.5869140625	0.422607421875	upper	../fonts/zerothre.ttf
1963.706	n/a	WORD	981853	wordpools/wasnorm_wordpool_less_exclusions.txt	LTP216	ltpFR	5	11	0	CHEF	290	n/a	0	0	0.5869140625	0.422607421875	upper	../fonts/zerothre.ttf
1967.67	n/a	WORD	983835	wordpools/wasnorm_wordpool_less_exclusions.txt	LTP216	ltpFR	5	11	0	CARD	243	n/a	0	0	0.5869140625	0.422607421875	upper	../fonts/zerothre.ttf
1971.678	n/a	WORD	985839	wordpools/wasnorm_wordpool_less_exclusions.txt	LTP216	ltpFR	5	11	0	REFEREE	1178	n/a	0	0	0.5869140625	0.422607421875	upper	../fonts/zerothre.ttf
1975.844	n/a	WORD	987922	wordpools/wasnorm_wordpool_less_exclusions.txt	LTP216	ltpFR	5	11	0	WHEEL	1603	n/a	0	0	0.5869140625	0.422607421875	upper	../fonts/zerothre.ttf
1979.778	n/a	WORD	989889	wordpools/wasnorm_wordpool_less_exclusions.txt	LTP216	ltpFR	5	11	0	BUGLE	189	n/a	0	0	0.5869140625	0.422607421875	upper	../fonts/zerothre.ttf
1983.882	n/a	WORD	991941	wordpools/wasnorm_wordpool_less_exclusions.txt	LTP216	ltpFR	5	11	0	COMEDIAN	352	n/a	0	0	0.5869140625	0.422607421875	upper	../fonts/zerothre.ttf
1987.814	n/a	WORD	993907	wordpools/wasnorm_wordpool_less_exclusions.txt	LTP216	ltpFR	5	11	0	BOYFRIEND	162	n/a	0	0	0.5869140625	0.422607421875	upper	../fonts/zerothre.ttf
1991.872	n/a	WORD	995936	wordpools/wasnorm_wordpool_less_exclusions.txt	LTP216	ltpFR	5	11	0	TRICYCLE	1506	n/a	0	0	0.5869140625	0.422607421875	upper	../fonts/zerothre.ttf
1995.888	n/a	WORD	997944	wordpools/wasnorm_wordpool_less_exclusions.txt	LTP216	ltpFR	5	11	0	POT	1114	n/a	0	0	0.5869140625	0.422607421875	upper	../fonts/zerothre.ttf
1999.736	n/a	WORD	999868	wordpools/wasnorm_wordpool_less_exclusions.txt	LTP216	ltpFR	5	11	0	RECIPE	1175	n/a	0	0	0.5869140625	0.422607421875	upper	../fonts/zerothre.ttf
2003.574	n/a	WORD	1001787	wordpools/wasnorm_wordpool_less_exclusions.txt	LTP216	ltpFR	5	11	0	STAPLER	1372	n/a	0	0	0.5869140625	0.422607421875	upper	../fonts/zerothre.ttf
2007.64	n/a	WORD	1003820	wordpools/wasnorm_wordpool_less_exclusions.txt	LTP216	ltpFR	5	11	0	MOAT	903	n/a	1	0	0.5869140625	0.422607421875	upper	../fonts/zerothre.ttf
2011.554	n/a	WORD	1005777	wordpools/wasnorm_wordpool_less_exclusions.txt	LTP216	ltpFR	5	11	0	RAFT	1159	n/a	0	0	0.5869140625	0.422607421875	upper	../fonts/zerothre.ttf
2015.722	n/a	WORD	1007861	wordpools/wasnorm_wordpool_less_exclusions.txt	LTP216	ltpFR	5	11	0	ESSAY	540	n/a	0	0	0.5869140625	0.422607421875	upper	../fonts/zerothre.ttf
2021.688	n/a	REC_START	1010844	n/a	LTP216	ltpFR	5	11	n/a	n/a	n/a	n/a	n/a	n/a	n/a	n/a	n/a	n/a
2023.952	n/a	REC_WORD	1011976	wordpools/wasnorm_wordpool_less_exclusions.txt	LTP216	ltpFR	5	11	0	ESSAY	540	n/a	0	n/a	n/a	n/a	n/a	n/a
2025.348	n/a	REC_WORD	1012674	wordpools/wasnorm_wordpool_less_exclusions.txt	LTP216	ltpFR	5	11	0	RAFT	1159	n/a	0	n/a	n/a	n/a	n/a	n/a
2027.264	n/a	REC_WORD	1013632	wordpools/wasnorm_wordpool_less_exclusions.txt	LTP216	ltpFR	5	11	0	MOAT	903	n/a	1	n/a	n/a	n/a	n/a	n/a
2041.294	n/a	REC_WORD	1020647	wordpools/wasnorm_wordpool_less_exclusions.txt	LTP216	ltpFR	5	11	0	BUGLE	189	n/a	0	n/a	n/a	n/a	n/a	n/a
2050.638	n/a	REC_WORD	1025319	wordpools/wasnorm_wordpool_less_exclusions.txt	LTP216	ltpFR	5	11	0	POT	1114	n/a	0	n/a	n/a	n/a	n/a	n/a
2051.95	n/a	REC_WORD	1025975	wordpools/wasnorm_wordpool_less_exclusions.txt	LTP216	ltpFR	5	11	0	CHEF	290	n/a	0	n/a	n/a	n/a	n/a	n/a
2090.0	n/a	REC_WORD	1045000	wordpools/wasnorm_wordpool_less_exclusions.txt	LTP216	ltpFR	5	11	0	STAPLER	1372	n/a	0	n/a	n/a	n/a	n/a	n/a
2108.066	n/a	WORD	1054033	wordpools/wasnorm_wordpool_less_exclusions.txt	LTP216	ltpFR	5	12	-1	BLENDER	136	n/a	-1	1	1.0	1.0	upper	../fonts/Verdana.ttf
2111.922	n/a	WORD	1055961	wordpools/wasnorm_wordpool_less_exclusions.txt	LTP216	ltpFR	5	12	-1	WEED	1599	n/a	-1	1	1.0	1.0	upper	../fonts/Verdana.ttf
2115.864	n/a	WORD	1057932	wordpools/wasnorm_wordpool_less_exclusions.txt	LTP216	ltpFR	5	12	-1	PIANO	1057	n/a	-1	1	1.0	1.0	upper	../fonts/Verdana.ttf
2119.87	n/a	WORD	1059935	wordpools/wasnorm_wordpool_less_exclusions.txt	LTP216	ltpFR	5	12	-1	MOTEL	919	n/a	-1	1	1.0	1.0	upper	../fonts/Verdana.ttf
2123.994	n/a	WORD	1061997	wordpools/wasnorm_wordpool_less_exclusions.txt	LTP216	ltpFR	5	12	-1	MATTRESS	879	n/a	-1	1	1.0	1.0	upper	../fonts/Verdana.ttf
2128.05	n/a	WORD	1064025	wordpools/wasnorm_wordpool_less_exclusions.txt	LTP216	ltpFR	5	12	-1	CUSHION	428	n/a	-1	1	1.0	1.0	upper	../fonts/Verdana.ttf
2131.882	n/a	WORD	1065941	wordpools/wasnorm_wordpool_less_exclusions.txt	LTP216	ltpFR	5	12	-1	REGISTER	1180	n/a	-1	1	1.0	1.0	upper	../fonts/Verdana.ttf
2136.08	n/a	WORD	1068040	wordpools/wasnorm_wordpool_less_exclusions.txt	LTP216	ltpFR	5	12	-1	SUN	1406	n/a	-1	1	1.0	1.0	upper	../fonts/Verdana.ttf
2139.946	n/a	WORD	1069973	wordpools/wasnorm_wordpool_less_exclusions.txt	LTP216	ltpFR	5	12	-1	PAPER	1011	n/a	-1	1	1.0	1.0	upper	../fonts/Verdana.ttf
2144.136	n/a	WORD	1072068	wordpools/wasnorm_wordpool_less_exclusions.txt	LTP216	ltpFR	5	12	-1	PENCIL	1042	n/a	-1	1	1.0	1.0	upper	../fonts/Verdana.ttf
2148.328	n/a	WORD	1074164	wordpools/wasnorm_wordpool_less_exclusions.txt	LTP216	ltpFR	5	12	-1	OZONE	996	n/a	-1	1	1.0	1.0	upper	../fonts/Verdana.ttf
2152.376	n/a	WORD	1076188	wordpools/wasnorm_wordpool_less_exclusions.txt	LTP216	ltpFR	5	12	-1	BANKER	84	n/a	-1	1	1.0	1.0	upper	../fonts/Verdana.ttf
2156.342	n/a	WORD	1078171	wordpools/wasnorm_wordpool_less_exclusions.txt	LTP216	ltpFR	5	12	-1	FUR	615	n/a	-1	1	1.0	1.0	upper	../fonts/Verdana.ttf
2160.416	n/a	WORD	1080208	wordpools/wasnorm_wordpool_less_exclusions.txt	LTP216	ltpFR	5	12	-1	SOFA	1342	n/a	-1	1	1.0	1.0	upper	../fonts/Verdana.ttf
2164.534	n/a	WORD	1082267	wordpools/wasnorm_wordpool_less_exclusions.txt	LTP216	ltpFR	5	12	-1	CHAMPAGNE	278	n/a	-1	1	1.0	1.0	upper	../fonts/Verdana.ttf
2168.648	n/a	WORD	1084324	wordpools/wasnorm_wordpool_less_exclusions.txt	LTP216	ltpFR	5	12	-1	COCKTAIL	338	n/a	-1	1	1.0	1.0	upper	../fonts/Verdana.ttf
2174.58	n/a	REC_START	1087290	n/a	LTP216	ltpFR	5	12	n/a	n/a	n/a	n/a	n/a	n/a	n/a	n/a	n/a	n/a
2175.856	n/a	REC_WORD	1087928	wordpools/wasnorm_wordpool_less_exclusions.txt	LTP216	ltpFR	5	12	-1	MOTEL	919	n/a	-1	n/a	n/a	n/a	n/a	n/a
2176.948	n/a	REC_WORD	1088474	wordpools/wasnorm_wordpool_less_exclusions.txt	LTP216	ltpFR	5	12	-1	MATTRESS	879	n/a	-1	n/a	n/a	n/a	n/a	n/a
2178.162	n/a	REC_WORD	1089081	wordpools/wasnorm_wordpool_less_exclusions.txt	LTP216	ltpFR	5	12	-1	CUSHION	428	n/a	-1	n/a	n/a	n/a	n/a	n/a
2179.488	n/a	REC_WORD	1089744	wordpools/wasnorm_wordpool_less_exclusions.txt	LTP216	ltpFR	5	12	-1	CHAMPAGNE	278	n/a	-1	n/a	n/a	n/a	n/a	n/a
2186.104	n/a	REC_WORD	1093052	wordpools/wasnorm_wordpool_less_exclusions.txt	LTP216	ltpFR	5	12	-1	BLENDER	136	n/a	-1	n/a	n/a	n/a	n/a	n/a
2192.32	n/a	REC_WORD	1096160	wordpools/wasnorm_wordpool_less_exclusions.txt	LTP216	ltpFR	5	12	-1	COCKTAIL	338	n/a	-1	n/a	n/a	n/a	n/a	n/a
2195.398	n/a	REC_WORD	1097699	wordpools/wasnorm_wordpool_less_exclusions.txt	LTP216	ltpFR	5	12	-1	REGISTER	1180	n/a	-1	n/a	n/a	n/a	n/a	n/a
2202.992	n/a	REC_WORD	1101496	wordpools/wasnorm_wordpool_less_exclusions.txt	LTP216	ltpFR	5	12	-1	SOFA	1342	n/a	-1	n/a	n/a	n/a	n/a	n/a
2215.52	n/a	REC_WORD	1107760	wordpools/wasnorm_wordpool_less_exclusions.txt	LTP216	ltpFR	5	12	-1	FUR	615	n/a	-1	n/a	n/a	n/a	n/a	n/a
2235.828	n/a	REC_WORD	1117914	wordpools/wasnorm_wordpool_less_exclusions.txt	LTP216	ltpFR	5	12	-1	SUN	1406	n/a	-1	n/a	n/a	n/a	n/a	n/a
2238.766	n/a	REC_WORD	1119383	wordpools/wasnorm_wordpool_less_exclusions.txt	LTP216	ltpFR	5	12	-1	OZONE	996	n/a	-1	n/a	n/a	n/a	n/a	n/a
2240.558	n/a	REC_WORD	1120279	wordpools/wasnorm_wordpool_less_exclusions.txt	LTP216	ltpFR	5	12	-1	BANKER	84	n/a	-1	n/a	n/a	n/a	n/a	n/a
2247.044	n/a	REC_WORD	1123522	wordpools/wasnorm_wordpool_less_exclusions.txt	LTP216	ltpFR	5	12	-1	HEAD	695	n/a	-1	n/a	n/a	n/a	n/a	n/a
2250.226	n/a	REST_REWET	1125113	n/a	LTP216	ltpFR	5	12	n/a	n/a	n/a	n/a	n/a	n/a	n/a	n/a	n/a	n/a
2575.118	n/a	WORD	1287559	wordpools/wasnorm_wordpool_less_exclusions.txt	LTP216	ltpFR	5	13	0	POTATO	1115	n/a	0	0	0.5869140625	0.422607421875	upper	../fonts/zerothre.ttf
2579.258	n/a	WORD	1289629	wordpools/wasnorm_wordpool_less_exclusions.txt	LTP216	ltpFR	5	13	0	SUBWAY	1400	n/a	1	0	0.5869140625	0.422607421875	upper	../fonts/zerothre.ttf
2583.306	n/a	WORD	1291653	wordpools/wasnorm_wordpool_less_exclusions.txt	LTP216	ltpFR	5	13	1	SQUIRREL	1362	n/a	1	1	0.412841796875	0.57763671875	lower	../fonts/amplitud.ttf
2587.154	n/a	WORD	1293577	wordpools/wasnorm_wordpool_less_exclusions.txt	LTP216	ltpFR	5	13	1	TORCH	1484	n/a	0	1	0.412841796875	0.57763671875	lower	../fonts/amplitud.ttf
2591.296	n/a	WORD	1295648	wordpools/wasnorm_wordpool_less_exclusions.txt	LTP216	ltpFR	5	13	0	MICROSCOPE	891	n/a	0	0	0.5869140625	0.422607421875	upper	../fonts/zerothre.ttf
2595.252	n/a	WORD	1297626	wordpools/wasnorm_wordpool_less_exclusions.txt	LTP216	ltpFR	5	13	0	BREAD	170	n/a	0	0	0.5869140625	0.422607421875	upper	../fonts/zerothre.ttf
2599.092	n/a	WORD	1299546	wordpools/wasnorm_wordpool_less_exclusions.txt	LTP216	ltpFR	5	13	0	MUFFIN	929	n/a	0	0	0.5869140625	0.422607421875	upper	../fonts/zerothre.ttf
2603.114	n/a	WORD	1301557	wordpools/wasnorm_wordpool_less_exclusions.txt	LTP216	ltpFR	5	13	0	CAT	257	n/a	0	0	0.5869140625	0.422607421875	upper	../fonts/zerothre.ttf
2606.996	n/a	WORD	1303498	wordpools/wasnorm_wordpool_less_exclusions.txt	LTP216	ltpFR	5	13	1	BUN	197	n/a	1	1	0.412841796875	0.57763671875	lower	../fonts/amplitud.ttf
2610.846	n/a	WORD	1305423	wordpools/wasnorm_wordpool_less_exclusions.txt	LTP216	ltpFR	5	13	1	SUMMIT	1405	n/a	0	1	0.412841796875	0.57763671875	lower	../fonts/amplitud.ttf
2614.776	n/a	WORD	1307388	wordpools/wasnorm_wordpool_less_exclusions.txt	LTP216	ltpFR	5	13	1	CONDUCTOR	362	n/a	0	1	0.412841796875	0.57763671875	lower	../fonts/amplitud.ttf
2618.76	n/a	WORD	1309380	wordpools/wasnorm_wordpool_less_exclusions.txt	LTP216	ltpFR	5	13	1	HEADBAND	696	n/a	0	1	0.412841796875	0.57763671875	lower	../fonts/amplitud.ttf
2622.934	n/a	WORD	1311467	wordpools/wasnorm_wordpool_less_exclusions.txt	LTP216	ltpFR	5	13	1	SKIN	1318	n/a	0	1	0.412841796875	0.57763671875	lower	../fonts/amplitud.ttf
2627.072	n/a	WORD	1313536	wordpools/wasnorm_wordpool_less_exclusions.txt	LTP216	ltpFR	5	13	1	HAND	683	n/a	0	1	0.412841796875	0.57763671875	lower	../fonts/amplitud.ttf
2630.956	n/a	WORD	1315478	wordpools/wasnorm_wordpool_less_exclusions.txt	LTP216	ltpFR	5	13	0	TOENAIL	1474	n/a	0	0	0.5869140625	0.422607421875	upper	../fonts/zerothre.ttf
2635.13	n/a	WORD	1317565	wordpools/wasnorm_wordpool_less_exclusions.txt	LTP216	ltpFR	5	13	0	FOE	587	n/a	1	0	0.5869140625	0.422607421875	upper	../fonts/zerothre.ttf
2641.094	n/a	REC_START	1320547	n/a	LTP216	ltpFR	5	13	n/a	n/a	n/a	n/a	n/a	n/a	n/a	n/a	n/a	n/a
2642.93	n/a	REC_WORD	1321465	wordpools/wasnorm_wordpool_less_exclusions.txt	LTP216	ltpFR	5	13	0	TOENAIL	1474	n/a	0	n/a	n/a	n/a	n/a	n/a
2643.742	n/a	REC_WORD	1321871	wordpools/wasnorm_wordpool_less_exclusions.txt	LTP216	ltpFR	5	13	0	FOE	587	n/a	1	n/a	n/a	n/a	n/a	n/a
2644.746	n/a	REC_WORD	1322373	wordpools/wasnorm_wordpool_less_exclusions.txt	LTP216	ltpFR	5	13	0	BREAD	170	n/a	0	n/a	n/a	n/a	n/a	n/a
2646.87	n/a	REC_WORD	1323435	wordpools/wasnorm_wordpool_less_exclusions.txt	LTP216	ltpFR	5	13	0	MUFFIN	929	n/a	0	n/a	n/a	n/a	n/a	n/a
2647.774	n/a	REC_WORD	1323887	wordpools/wasnorm_wordpool_less_exclusions.txt	LTP216	ltpFR	5	13	1	CONDUCTOR	362	n/a	0	n/a	n/a	n/a	n/a	n/a
2658.734	n/a	REC_WORD	1329367	wordpools/wasnorm_wordpool_less_exclusions.txt	LTP216	ltpFR	5	13	1	HEADBAND	696	n/a	0	n/a	n/a	n/a	n/a	n/a
2701.366	n/a	REC_WORD	1350683	wordpools/wasnorm_wordpool_less_exclusions.txt	LTP216	ltpFR	5	13	0	SUBWAY	1400	n/a	1	n/a	n/a	n/a	n/a	n/a
2756.93	n/a	WORD	1378465	wordpools/wasnorm_wordpool_less_exclusions.txt	LTP216	ltpFR	5	14	1	SADDLE	1221	n/a	0	1	0.412841796875	0.57763671875	lower	../fonts/amplitud.ttf
2760.946	n/a	WORD	1380473	wordpools/wasnorm_wordpool_less_exclusions.txt	LTP216	ltpFR	5	14	1	PONY	1102	n/a	1	1	0.412841796875	0.57763671875	lower	../fonts/amplitud.ttf
2764.968	n/a	WORD	1382484	wordpools/wasnorm_wordpool_less_exclusions.txt	LTP216	ltpFR	5	14	1	SCALE	1241	n/a	0	1	0.412841796875	0.57763671875	lower	../fonts/amplitud.ttf
2768.992	n/a	WORD	1384496	wordpools/wasnorm_wordpool_less_exclusions.txt	LTP216	ltpFR	5	14	1	PEAR	1033	n/a	1	1	0.412841796875	0.57763671875	lower	../fonts/amplitud.ttf
2772.882	n/a	WORD	1386441	wordpools/wasnorm_wordpool_less_exclusions.txt	LTP216	ltpFR	5	14	1	JUNGLE	764	n/a	1	1	0.412841796875	0.57763671875	lower	../fonts/amplitud.ttf
2777.096	n/a	WORD	1388548	wordpools/wasnorm_wordpool_less_exclusions.txt	LTP216	ltpFR	5	14	1	RAG	1160	n/a	0	1	0.412841796875	0.57763671875	lower	../fonts/amplitud.ttf
2781.144	n/a	WORD	1390572	wordpools/wasnorm_wordpool_less_exclusions.txt	LTP216	ltpFR	5	14	1	ATTIRE	57	n/a	0	1	0.412841796875	0.57763671875	lower	../fonts/amplitud.ttf
2785.178	n/a	WORD	1392589	wordpools/wasnorm_wordpool_less_exclusions.txt	LTP216	ltpFR	5	14	1	THIMBLE	1458	n/a	0	1	0.412841796875	0.57763671875	lower	../fonts/amplitud.ttf
2789.176	n/a	WORD	1394588	wordpools/wasnorm_wordpool_less_exclusions.txt	LTP216	ltpFR	5	14	1	PRIMATE	1123	n/a	1	1	0.412841796875	0.57763671875	lower	../fonts/amplitud.ttf
2793.318	n/a	WORD	1396659	wordpools/wasnorm_wordpool_less_exclusions.txt	LTP216	ltpFR	5	14	1	LAMP	798	n/a	0	1	0.412841796875	0.57763671875	lower	../fonts/amplitud.ttf
2797.34	n/a	WORD	1398670	wordpools/wasnorm_wordpool_less_exclusions.txt	LTP216	ltpFR	5	14	1	ZOO	1637	n/a	1	1	0.412841796875	0.57763671875	lower	../fonts/amplitud.ttf
2801.238	n/a	WORD	1400619	wordpools/wasnorm_wordpool_less_exclusions.txt	LTP216	ltpFR	5	14	1	CHART	282	n/a	0	1	0.412841796875	0.57763671875	lower	../fonts/amplitud.ttf
2805.382	n/a	WORD	1402691	wordpools/wasnorm_wordpool_less_exclusions.txt	LTP216	ltpFR	5	14	1	GLOBE	641	n/a	0	1	0.412841796875	0.57763671875	lower	../fonts/amplitud.ttf
2809.404	n/a	WORD	1404702	wordpools/wasnorm_wordpool_less_exclusions.txt	LTP216	ltpFR	5	14	1	PIRATE	1074	n/a	1	1	0.412841796875	0.57763671875	lower	../fonts/amplitud.ttf
2813.312	n/a	WORD	1406656	wordpools/wasnorm_wordpool_less_exclusions.txt	LTP216	ltpFR	5	14	1	SALMON	1227	n/a	1	1	0.412841796875	0.57763671875	lower	../fonts/amplitud.ttf
2817.36	n/a	WORD	1408680	wordpools/wasnorm_wordpool_less_exclusions.txt	LTP216	ltpFR	5	14	1	HAYSTACK	694	n/a	0	1	0.412841796875	0.57763671875	lower	../fonts/amplitud.ttf
2823.074	n/a	REC_START	1411537	n/a	LTP216	ltpFR	5	14	n/a	n/a	n/a	n/a	n/a	n/a	n/a	n/a	n/a	n/a
2824.052	n/a	REC_WORD	1412026	wordpools/wasnorm_wordpool_less_exclusions.txt	LTP216	ltpFR	5	14	1	PIRATE	1074	n/a	1	n/a	n/a	n/a	n/a	n/a
2825.122	n/a	REC_WORD	1412561	wordpools/wasnorm_wordpool_less_exclusions.txt	LTP216	ltpFR	5	14	1	GLOBE	641	n/a	0	n/a	n/a	n/a	n/a	n/a
2825.966	n/a	REC_WORD	1412983	wordpools/wasnorm_wordpool_less_exclusions.txt	LTP216	ltpFR	5	14	1	ZOO	1637	n/a	1	n/a	n/a	n/a	n/a	n/a
2827.124	n/a	REC_WORD	1413562	wordpools/wasnorm_wordpool_less_exclusions.txt	LTP216	ltpFR	5	14	1	HAYSTACK	694	n/a	0	n/a	n/a	n/a	n/a	n/a
2844.486	n/a	REC_WORD	1422243	wordpools/wasnorm_wordpool_less_exclusions.txt	LTP216	ltpFR	5	14	1	SADDLE	1221	n/a	0	n/a	n/a	n/a	n/a	n/a
2846.126	n/a	REC_WORD	1423063	wordpools/wasnorm_wordpool_less_exclusions.txt	LTP216	ltpFR	5	14	1	PONY	1102	n/a	1	n/a	n/a	n/a	n/a	n/a
2872.688	n/a	REC_WORD	1436344	wordpools/wasnorm_wordpool_less_exclusions.txt	LTP216	ltpFR	5	14	1	PRIMATE	1123	n/a	1	n/a	n/a	n/a	n/a	n/a
2876.316	n/a	REC_WORD	1438158	wordpools/wasnorm_wordpool_less_exclusions.txt	LTP216	ltpFR	5	14	1	LAMP	798	n/a	0	n/a	n/a	n/a	n/a	n/a
2906.978	n/a	WORD	1453489	wordpools/wasnorm_wordpool_less_exclusions.txt	LTP216	ltpFR	5	15	-1	DINNER	468	n/a	-1	1	1.0	1.0	upper	../fonts/Verdana.ttf
2910.868	n/a	WORD	1455434	wordpools/wasnorm_wordpool_less_exclusions.txt	LTP216	ltpFR	5	15	-1	LACE	792	n/a	-1	1	1.0	1.0	upper	../fonts/Verdana.ttf
2914.824	n/a	WORD	1457412	wordpools/wasnorm_wordpool_less_exclusions.txt	LTP216	ltpFR	5	15	-1	CUFF	423	n/a	-1	1	1.0	1.0	upper	../fonts/Verdana.ttf
2918.882	n/a	WORD	1459441	wordpools/wasnorm_wordpool_less_exclusions.txt	LTP216	ltpFR	5	15	-1	CIGARETTE	309	n/a	-1	1	1.0	1.0	upper	../fonts/Verdana.ttf
2922.964	n/a	WORD	1461482	wordpools/wasnorm_wordpool_less_exclusions.txt	LTP216	ltpFR	5	15	-1	PIPE	1073	n/a	-1	1	1.0	1.0	upper	../fonts/Verdana.ttf
2927.102	n/a	WORD	1463551	wordpools/wasnorm_wordpool_less_exclusions.txt	LTP216	ltpFR	5	15	-1	MAGAZINE	853	n/a	-1	1	1.0	1.0	upper	../fonts/Verdana.ttf
2931.078	n/a	WORD	1465539	wordpools/wasnorm_wordpool_less_exclusions.txt	LTP216	ltpFR	5	15	-1	CABBAGE	210	n/a	-1	1	1.0	1.0	upper	../fonts/Verdana.ttf
2935.082	n/a	WORD	1467541	wordpools/wasnorm_wordpool_less_exclusions.txt	LTP216	ltpFR	5	15	-1	APPLICATION	34	n/a	-1	1	1.0	1.0	upper	../fonts/Verdana.ttf
2939.166	n/a	WORD	1469583	wordpools/wasnorm_wordpool_less_exclusions.txt	LTP216	ltpFR	5	15	-1	MAPLE	866	n/a	-1	1	1.0	1.0	upper	../fonts/Verdana.ttf
2943.382	n/a	WORD	1471691	wordpools/wasnorm_wordpool_less_exclusions.txt	LTP216	ltpFR	5	15	-1	ROOT	1210	n/a	-1	1	1.0	1.0	upper	../fonts/Verdana.ttf
2947.256	n/a	WORD	1473628	wordpools/wasnorm_wordpool_less_exclusions.txt	LTP216	ltpFR	5	15	-1	CITY	314	n/a	-1	1	1.0	1.0	upper	../fonts/Verdana.ttf
2951.188	n/a	WORD	1475594	wordpools/wasnorm_wordpool_less_exclusions.txt	LTP216	ltpFR	5	15	-1	ATLAS	53	n/a	-1	1	1.0	1.0	upper	../fonts/Verdana.ttf
2955.354	n/a	WORD	1477677	wordpools/wasnorm_wordpool_less_exclusions.txt	LTP216	ltpFR	5	15	-1	CHEERLEADER	288	n/a	-1	1	1.0	1.0	upper	../fonts/Verdana.ttf
2959.286	n/a	WORD	1479643	wordpools/wasnorm_wordpool_less_exclusions.txt	LTP216	ltpFR	5	15	-1	WITCH	1617	n/a	-1	1	1.0	1.0	upper	../fonts/Verdana.ttf
2963.436	n/a	WORD	1481718	wordpools/wasnorm_wordpool_less_exclusions.txt	LTP216	ltpFR	5	15	-1	LUNCH	849	n/a	-1	1	1.0	1.0	upper	../fonts/Verdana.ttf
2967.634	n/a	WORD	1483817	wordpools/wasnorm_wordpool_less_exclusions.txt	LTP216	ltpFR	5	15	-1	ATHLETE	52	n/a	-1	1	1.0	1.0	upper	../fonts/Verdana.ttf
2973.592	n/a	REC_START	1486796	n/a	LTP216	ltpFR	5	15	n/a	n/a	n/a	n/a	n/a	n/a	n/a	n/a	n/a	n/a
2974.8	n/a	REC_WORD	1487400	wordpools/wasnorm_wordpool_less_exclusions.txt	LTP216	ltpFR	5	15	-1	ATHLETE	52	n/a	-1	n/a	n/a	n/a	n/a	n/a
2975.724	n/a	REC_WORD	1487862	wordpools/wasnorm_wordpool_less_exclusions.txt	LTP216	ltpFR	5	15	-1	LUNCH	849	n/a	-1	n/a	n/a	n/a	n/a	n/a
2976.71	n/a	REC_WORD	1488355	wordpools/wasnorm_wordpool_less_exclusions.txt	LTP216	ltpFR	5	15	-1	DINNER	468	n/a	-1	n/a	n/a	n/a	n/a	n/a
2977.888	n/a	REC_WORD	1488944	wordpools/wasnorm_wordpool_less_exclusions.txt	LTP216	ltpFR	5	15	-1	CHEERLEADER	288	n/a	-1	n/a	n/a	n/a	n/a	n/a
2979.244	n/a	REC_WORD	1489622	wordpools/wasnorm_wordpool_less_exclusions.txt	LTP216	ltpFR	5	15	-1	CUFF	423	n/a	-1	n/a	n/a	n/a	n/a	n/a
2980.602	n/a	REC_WORD	1490301	wordpools/wasnorm_wordpool_less_exclusions.txt	LTP216	ltpFR	5	15	-1	LACE	792	n/a	-1	n/a	n/a	n/a	n/a	n/a
2981.688	n/a	REC_WORD	1490844	wordpools/wasnorm_wordpool_less_exclusions.txt	LTP216	ltpFR	5	15	-1	CIGARETTE	309	n/a	-1	n/a	n/a	n/a	n/a	n/a
2983.714	n/a	REC_WORD	1491857	wordpools/wasnorm_wordpool_less_exclusions.txt	LTP216	ltpFR	5	15	-1	PIPE	1073	n/a	-1	n/a	n/a	n/a	n/a	n/a
3015.618	n/a	REC_WORD	1507809	wordpools/wasnorm_wordpool_less_exclusions.txt	LTP216	ltpFR	5	15	-1	CABBAGE	210	n/a	-1	n/a	n/a	n/a	n/a	n/a
3030.944	n/a	REC_WORD	1515472	wordpools/wasnorm_wordpool_less_exclusions.txt	LTP216	ltpFR	5	15	-1	ATHLETE	52	n/a	-1	n/a	n/a	n/a	n/a	n/a
3055.034	n/a	WORD	1527517	wordpools/wasnorm_wordpool_less_exclusions.txt	LTP216	ltpFR	5	16	0	RECEIPT	1173	n/a	n/a	0	0.5869140625	0.422607421875	upper	../fonts/zerothre.ttf
3058.086	n/a	SLOW_MSG	1529043	n/a	LTP216	ltpFR	5	16	n/a	n/a	n/a	n/a	n/a	n/a	n/a	n/a	n/a	n/a
3060.748	n/a	WORD	1530374	wordpools/wasnorm_wordpool_less_exclusions.txt	LTP216	ltpFR	5	16	0	STAPLE	1371	n/a	0	0	0.5869140625	0.422607421875	upper	../fonts/zerothre.ttf
3064.63	n/a	WORD	1532315	wordpools/wasnorm_wordpool_less_exclusions.txt	LTP216	ltpFR	5	16	0	SCREWDRIVER	1255	n/a	0	0	0.5869140625	0.422607421875	upper	../fonts/zerothre.ttf
3068.512	n/a	WORD	1534256	wordpools/wasnorm_wordpool_less_exclusions.txt	LTP216	ltpFR	5	16	0	BADGE	68	n/a	0	0	0.5869140625	0.422607421875	upper	../fonts/zerothre.ttf
3072.386	n/a	WORD	1536193	wordpools/wasnorm_wordpool_less_exclusions.txt	LTP216	ltpFR	5	16	0	OCEAN	970	n/a	1	0	0.5869140625	0.422607421875	upper	../fonts/zerothre.ttf
3076.484	n/a	WORD	1538242	wordpools/wasnorm_wordpool_less_exclusions.txt	LTP216	ltpFR	5	16	0	COLT	349	n/a	1	0	0.5869140625	0.422607421875	upper	../fonts/zerothre.ttf
3080.59	n/a	WORD	1540295	wordpools/wasnorm_wordpool_less_exclusions.txt	LTP216	ltpFR	5	16	0	PACKAGE	997	n/a	0	0	0.5869140625	0.422607421875	upper	../fonts/zerothre.ttf
3084.732	n/a	WORD	1542366	wordpools/wasnorm_wordpool_less_exclusions.txt	LTP216	ltpFR	5	16	0	PADDING	999	n/a	0	0	0.5869140625	0.422607421875	upper	../fonts/zerothre.ttf
3088.706	n/a	WORD	1544353	wordpools/wasnorm_wordpool_less_exclusions.txt	LTP216	ltpFR	5	16	0	COP	376	n/a	1	0	0.5869140625	0.422607421875	upper	../fonts/zerothre.ttf
3092.754	n/a	WORD	1546377	wordpools/wasnorm_wordpool_less_exclusions.txt	LTP216	ltpFR	5	16	0	LAKE	796	n/a	1	0	0.5869140625	0.422607421875	upper	../fonts/zerothre.ttf
3096.896	n/a	WORD	1548448	wordpools/wasnorm_wordpool_less_exclusions.txt	LTP216	ltpFR	5	16	0	WALNUT	1584	n/a	0	0	0.5869140625	0.422607421875	upper	../fonts/zerothre.ttf
3100.75	n/a	WORD	1550375	wordpools/wasnorm_wordpool_less_exclusions.txt	LTP216	ltpFR	5	16	0	CANDY	230	n/a	0	0	0.5869140625	0.422607421875	upper	../fonts/zerothre.ttf
3104.666	n/a	WORD	1552333	wordpools/wasnorm_wordpool_less_exclusions.txt	LTP216	ltpFR	5	16	0	CHOCOLATE	306	n/a	0	0	0.5869140625	0.422607421875	upper	../fonts/zerothre.ttf
3108.664	n/a	WORD	1554332	wordpools/wasnorm_wordpool_less_exclusions.txt	LTP216	ltpFR	5	16	0	NEPTUNE	943	n/a	1	0	0.5869140625	0.422607421875	upper	../fonts/zerothre.ttf
3112.522	n/a	WORD	1556261	wordpools/wasnorm_wordpool_less_exclusions.txt	LTP216	ltpFR	5	16	0	MARS	873	n/a	1	0	0.5869140625	0.422607421875	upper	../fonts/zerothre.ttf
3116.612	n/a	WORD	1558306	wordpools/wasnorm_wordpool_less_exclusions.txt	LTP216	ltpFR	5	16	0	COOLER	375	n/a	0	0	0.5869140625	0.422607421875	upper	../fonts/zerothre.ttf
3122.502	n/a	REC_START	1561251	n/a	LTP216	ltpFR	5	16	n/a	n/a	n/a	n/a	n/a	n/a	n/a	n/a	n/a	n/a
3123.42	n/a	REC_WORD	1561710	wordpools/wasnorm_wordpool_less_exclusions.txt	LTP216	ltpFR	5	16	0	NEPTUNE	943	n/a	1	n/a	n/a	n/a	n/a	n/a
3124.528	n/a	REC_WORD	1562264	wordpools/wasnorm_wordpool_less_exclusions.txt	LTP216	ltpFR	5	16	0	MARS	873	n/a	1	n/a	n/a	n/a	n/a	n/a
3125.734	n/a	REC_WORD	1562867	wordpools/wasnorm_wordpool_less_exclusions.txt	LTP216	ltpFR	5	16	0	COOLER	375	n/a	0	n/a	n/a	n/a	n/a	n/a
3127.012	n/a	REC_WORD	1563506	wordpools/wasnorm_wordpool_less_exclusions.txt	LTP216	ltpFR	5	16	0	OCEAN	970	n/a	1	n/a	n/a	n/a	n/a	n/a
3128.288	n/a	REC_WORD	1564144	wordpools/wasnorm_wordpool_less_exclusions.txt	LTP216	ltpFR	5	16	0	LAKE	796	n/a	1	n/a	n/a	n/a	n/a	n/a
3129.352	n/a	REC_WORD	1564676	wordpools/wasnorm_wordpool_less_exclusions.txt	LTP216	ltpFR	5	16	0	CANDY	230	n/a	0	n/a	n/a	n/a	n/a	n/a
3130.688	n/a	REC_WORD	1565344	wordpools/wasnorm_wordpool_less_exclusions.txt	LTP216	ltpFR	5	16	0	WALNUT	1584	n/a	0	n/a	n/a	n/a	n/a	n/a
3131.976	n/a	REC_WORD	1565988	wordpools/wasnorm_wordpool_less_exclusions.txt	LTP216	ltpFR	5	16	0	CHOCOLATE	306	n/a	0	n/a	n/a	n/a	n/a	n/a
3296.644	n/a	REC_START	1648322	n/a	LTP216	ltpFR	5	1	n/a	n/a	n/a	n/a	n/a	n/a	n/a	n/a	n/a	n/a
3296.7	n/a	RECOG_TARGET	1648350	n/a	LTP216	ltpFR	5	1	-1	LUNCH	849	5	-1	n/a	n/a	n/a	n/a	n/a
3298.844	n/a	RECOG_RESP	1649422	n/a	LTP216	ltpFR	5	1	-1	LUNCH	849	n/a	-1	n/a	n/a	n/a	n/a	n/a
3301.148	n/a	RECOG_CONF	1650574	n/a	LTP216	ltpFR	5	1	-1	LUNCH	849	5	-1	n/a	n/a	n/a	n/a	n/a
3303.174	n/a	RECOG_TARGET	1651587	n/a	LTP216	ltpFR	5	1	0	COLLAR	345	2	0	n/a	n/a	n/a	n/a	n/a
3304.79	n/a	RECOG_RESP	1652395	n/a	LTP216	ltpFR	5	1	0	COLLAR	345	n/a	0	n/a	n/a	n/a	n/a	n/a
3306.856	n/a	RECOG_CONF	1653428	n/a	LTP216	ltpFR	5	1	0	COLLAR	345	2	0	n/a	n/a	n/a	n/a	n/a
3308.812	n/a	RECOG_TARGET	1654406	n/a	LTP216	ltpFR	5	1	0	LAKE	796	5	1	n/a	n/a	n/a	n/a	n/a
3309.798	n/a	RECOG_RESP	1654899	n/a	LTP216	ltpFR	5	1	0	LAKE	796	n/a	1	n/a	n/a	n/a	n/a	n/a
3311.656	n/a	RECOG_CONF	1655828	n/a	LTP216	ltpFR	5	1	0	LAKE	796	5	1	n/a	n/a	n/a	n/a	n/a
3313.624	n/a	RECOG_TARGET	1656812	n/a	LTP216	ltpFR	5	1	0	EYE	545	5	0	n/a	n/a	n/a	n/a	n/a
3314.674	n/a	RECOG_RESP	1657337	n/a	LTP216	ltpFR	5	1	0	EYE	545	n/a	0	n/a	n/a	n/a	n/a	n/a
3316.694	n/a	RECOG_CONF	1658347	n/a	LTP216	ltpFR	5	1	0	EYE	545	5	0	n/a	n/a	n/a	n/a	n/a
3318.784	n/a	RECOG_TARGET	1659392	n/a	LTP216	ltpFR	5	1	0	COMEDIAN	352	1	0	n/a	n/a	n/a	n/a	n/a
3321.398	n/a	RECOG_RESP	1660699	n/a	LTP216	ltpFR	5	1	0	COMEDIAN	352	n/a	0	n/a	n/a	n/a	n/a	n/a
3323.17	n/a	RECOG_CONF	1661585	n/a	LTP216	ltpFR	5	1	0	COMEDIAN	352	1	0	n/a	n/a	n/a	n/a	n/a
3325.24	n/a	RECOG_TARGET	1662620	n/a	LTP216	ltpFR	5	1	-1	CHAMPAGNE	278	5	-1	n/a	n/a	n/a	n/a	n/a
3326.362	n/a	RECOG_RESP	1663181	n/a	LTP216	ltpFR	5	1	-1	CHAMPAGNE	278	n/a	-1	n/a	n/a	n/a	n/a	n/a
3328.298	n/a	RECOG_CONF	1664149	n/a	LTP216	ltpFR	5	1	-1	CHAMPAGNE	278	5	-1	n/a	n/a	n/a	n/a	n/a
3330.304	n/a	RECOG_TARGET	1665152	n/a	LTP216	ltpFR	5	1	1	EMERALD	528	1	0	n/a	n/a	n/a	n/a	n/a
3332.034	n/a	RECOG_RESP	1666017	n/a	LTP216	ltpFR	5	1	1	EMERALD	528	n/a	0	n/a	n/a	n/a	n/a	n/a
3334.056	n/a	RECOG_CONF	1667028	n/a	LTP216	ltpFR	5	1	1	EMERALD	528	1	0	n/a	n/a	n/a	n/a	n/a
3336.11	n/a	RECOG_TARGET	1668055	n/a	LTP216	ltpFR	5	1	1	PRIMATE	1123	5	1	n/a	n/a	n/a	n/a	n/a
3337.174	n/a	RECOG_RESP	1668587	n/a	LTP216	ltpFR	5	1	1	PRIMATE	1123	n/a	1	n/a	n/a	n/a	n/a	n/a
3339.234	n/a	RECOG_CONF	1669617	n/a	LTP216	ltpFR	5	1	1	PRIMATE	1123	5	1	n/a	n/a	n/a	n/a	n/a
3341.144	n/a	RECOG_TARGET	1670572	n/a	LTP216	ltpFR	5	1	0	BLACKBERRY	132	3	0	n/a	n/a	n/a	n/a	n/a
3342.92	n/a	RECOG_RESP	1671460	n/a	LTP216	ltpFR	5	1	0	BLACKBERRY	132	n/a	0	n/a	n/a	n/a	n/a	n/a
3344.87	n/a	RECOG_CONF	1672435	n/a	LTP216	ltpFR	5	1	0	BLACKBERRY	132	3	0	n/a	n/a	n/a	n/a	n/a
3346.758	n/a	RECOG_TARGET	1673379	n/a	LTP216	ltpFR	5	1	-1	COCKTAIL	338	4	-1	n/a	n/a	n/a	n/a	n/a
3348.044	n/a	RECOG_RESP	1674022	n/a	LTP216	ltpFR	5	1	-1	COCKTAIL	338	n/a	-1	n/a	n/a	n/a	n/a	n/a
3350.23	n/a	RECOG_CONF	1675115	n/a	LTP216	ltpFR	5	1	-1	COCKTAIL	338	4	-1	n/a	n/a	n/a	n/a	n/a
3352.094	n/a	RECOG_LURE	1676047	n/a	LTP216	ltpFR	5	1	n/a	PILOT	1070	1	n/a	n/a	n/a	n/a	n/a	n/a
3354.15	n/a	RECOG_RESP	1677075	n/a	LTP216	ltpFR	5	1	n/a	PILOT	1070	n/a	n/a	n/a	n/a	n/a	n/a	n/a
3356.166	n/a	RECOG_CONF	1678083	n/a	LTP216	ltpFR	5	1	n/a	PILOT	1070	1	n/a	n/a	n/a	n/a	n/a	n/a
3358.3	n/a	RECOG_TARGET	1679150	n/a	LTP216	ltpFR	5	1	1	HOOK	715	1	0	n/a	n/a	n/a	n/a	n/a
3362.242	n/a	RECOG_RESP	1681121	n/a	LTP216	ltpFR	5	1	1	HOOK	715	n/a	0	n/a	n/a	n/a	n/a	n/a
3364.028	n/a	RECOG_CONF	1682014	n/a	LTP216	ltpFR	5	1	1	HOOK	715	1	0	n/a	n/a	n/a	n/a	n/a
3366.09	n/a	RECOG_TARGET	1683045	n/a	LTP216	ltpFR	5	1	0	RECIPE	1175	3	0	n/a	n/a	n/a	n/a	n/a
3367.94	n/a	RECOG_RESP	1683970	n/a	LTP216	ltpFR	5	1	0	RECIPE	1175	n/a	0	n/a	n/a	n/a	n/a	n/a
3370.186	n/a	RECOG_CONF	1685093	n/a	LTP216	ltpFR	5	1	0	RECIPE	1175	3	0	n/a	n/a	n/a	n/a	n/a
3372.214	n/a	RECOG_LURE	1686107	n/a	LTP216	ltpFR	5	1	n/a	NIGHTGOWN	953	2	n/a	n/a	n/a	n/a	n/a	n/a
3373.652	n/a	RECOG_RESP	1686826	n/a	LTP216	ltpFR	5	1	n/a	NIGHTGOWN	953	n/a	n/a	n/a	n/a	n/a	n/a	n/a
3375.682	n/a	RECOG_CONF	1687841	n/a	LTP216	ltpFR	5	1	n/a	NIGHTGOWN	953	2	n/a	n/a	n/a	n/a	n/a	n/a
3377.608	n/a	RECOG_LURE	1688804	n/a	LTP216	ltpFR	5	1	n/a	OCTOPUS	971	3	n/a	n/a	n/a	n/a	n/a	n/a
3379.12	n/a	RECOG_RESP	1689560	n/a	LTP216	ltpFR	5	1	n/a	OCTOPUS	971	n/a	n/a	n/a	n/a	n/a	n/a	n/a
3381.35	n/a	RECOG_CONF	1690675	n/a	LTP216	ltpFR	5	1	n/a	OCTOPUS	971	3	n/a	n/a	n/a	n/a	n/a	n/a
3383.33	n/a	RECOG_TARGET	1691665	n/a	LTP216	ltpFR	5	1	0	POT	1114	2	0	n/a	n/a	n/a	n/a	n/a
3386.178	n/a	RECOG_RESP	1693089	n/a	LTP216	ltpFR	5	1	0	POT	1114	n/a	0	n/a	n/a	n/a	n/a	n/a
3388.334	n/a	RECOG_CONF	1694167	n/a	LTP216	ltpFR	5	1	0	POT	1114	2	0	n/a	n/a	n/a	n/a	n/a
3390.324	n/a	RECOG_TARGET	1695162	n/a	LTP216	ltpFR	5	1	0	MICROSCOPE	891	5	0	n/a	n/a	n/a	n/a	n/a
3392.336	n/a	RECOG_RESP	1696168	n/a	LTP216	ltpFR	5	1	0	MICROSCOPE	891	n/a	0	n/a	n/a	n/a	n/a	n/a
3394.362	n/a	RECOG_CONF	1697181	n/a	LTP216	ltpFR	5	1	0	MICROSCOPE	891	5	0	n/a	n/a	n/a	n/a	n/a
3396.372	n/a	RECOG_TARGET	1698186	n/a	LTP216	ltpFR	5	1	1	UNDERWEAR	1537	4	0	n/a	n/a	n/a	n/a	n/a
3398.602	n/a	RECOG_RESP	1699301	n/a	LTP216	ltpFR	5	1	1	UNDERWEAR	1537	n/a	0	n/a	n/a	n/a	n/a	n/a
3400.876	n/a	RECOG_CONF	1700438	n/a	LTP216	ltpFR	5	1	1	UNDERWEAR	1537	4	0	n/a	n/a	n/a	n/a	n/a
3402.764	n/a	RECOG_TARGET	1701382	n/a	LTP216	ltpFR	5	1	0	EMPIRE	530	5	1	n/a	n/a	n/a	n/a	n/a
3404.024	n/a	RECOG_RESP	1702012	n/a	LTP216	ltpFR	5	1	0	EMPIRE	530	n/a	1	n/a	n/a	n/a	n/a	n/a
3406.216	n/a	RECOG_CONF	1703108	n/a	LTP216	ltpFR	5	1	0	EMPIRE	530	5	1	n/a	n/a	n/a	n/a	n/a
3408.092	n/a	RECOG_TARGET	1704046	n/a	LTP216	ltpFR	5	1	1	SHERIFF	1284	3	1	n/a	n/a	n/a	n/a	n/a
3409.368	n/a	RECOG_RESP	1704684	n/a	LTP216	ltpFR	5	1	1	SHERIFF	1284	n/a	1	n/a	n/a	n/a	n/a	n/a
3411.702	n/a	RECOG_CONF	1705851	n/a	LTP216	ltpFR	5	1	1	SHERIFF	1284	3	1	n/a	n/a	n/a	n/a	n/a
3418.6	n/a	REC_START	1709300	n/a	LTP216	ltpFR	5	2	n/a	n/a	n/a	n/a	n/a	n/a	n/a	n/a	n/a	n/a
3418.648	n/a	RECOG_TARGET	1709324	n/a	LTP216	ltpFR	5	2	-1	SCALLOP	1242	5	-1	n/a	n/a	n/a	n/a	n/a
3419.848	n/a	RECOG_RESP	1709924	n/a	LTP216	ltpFR	5	2	-1	SCALLOP	1242	n/a	-1	n/a	n/a	n/a	n/a	n/a
3421.808	n/a	RECOG_CONF	1710904	n/a	LTP216	ltpFR	5	2	-1	SCALLOP	1242	5	-1	n/a	n/a	n/a	n/a	n/a
3423.694	n/a	RECOG_TARGET	1711847	n/a	LTP216	ltpFR	5	2	1	BARRACUDA	90	3	1	n/a	n/a	n/a	n/a	n/a
3425.746	n/a	RECOG_RESP	1712873	n/a	LTP216	ltpFR	5	2	1	BARRACUDA	90	n/a	1	n/a	n/a	n/a	n/a	n/a
3428.264	n/a	RECOG_CONF	1714132	n/a	LTP216	ltpFR	5	2	1	BARRACUDA	90	3	1	n/a	n/a	n/a	n/a	n/a
3430.152	n/a	RECOG_TARGET	1715076	n/a	LTP216	ltpFR	5	2	1	CUB	419	1	1	n/a	n/a	n/a	n/a	n/a
3431.766	n/a	RECOG_RESP	1715883	n/a	LTP216	ltpFR	5	2	1	CUB	419	n/a	1	n/a	n/a	n/a	n/a	n/a
3433.722	n/a	RECOG_CONF	1716861	n/a	LTP216	ltpFR	5	2	1	CUB	419	1	1	n/a	n/a	n/a	n/a	n/a
3435.624	n/a	RECOG_TARGET	1717812	n/a	LTP216	ltpFR	5	2	0	PORT	1110	4	0	n/a	n/a	n/a	n/a	n/a
3438.896	n/a	RECOG_RESP	1719448	n/a	LTP216	ltpFR	5	2	0	PORT	1110	n/a	0	n/a	n/a	n/a	n/a	n/a
3440.936	n/a	RECOG_CONF	1720468	n/a	LTP216	ltpFR	5	2	0	PORT	1110	4	0	n/a	n/a	n/a	n/a	n/a
3442.84	n/a	RECOG_TARGET	1721420	n/a	LTP216	ltpFR	5	2	-1	CAPE	237	2	-1	n/a	n/a	n/a	n/a	n/a
3444.592	n/a	RECOG_RESP	1722296	n/a	LTP216	ltpFR	5	2	-1	CAPE	237	n/a	-1	n/a	n/a	n/a	n/a	n/a
3446.664	n/a	RECOG_CONF	1723332	n/a	LTP216	ltpFR	5	2	-1	CAPE	237	2	-1	n/a	n/a	n/a	n/a	n/a
3448.64	n/a	RECOG_TARGET	1724320	n/a	LTP216	ltpFR	5	2	0	SCRIBBLE	1256	5	0	n/a	n/a	n/a	n/a	n/a
3450.994	n/a	RECOG_RESP	1725497	n/a	LTP216	ltpFR	5	2	0	SCRIBBLE	1256	n/a	0	n/a	n/a	n/a	n/a	n/a
3453.278	n/a	RECOG_CONF	1726639	n/a	LTP216	ltpFR	5	2	0	SCRIBBLE	1256	5	0	n/a	n/a	n/a	n/a	n/a
3455.288	n/a	RECOG_TARGET	1727644	n/a	LTP216	ltpFR	5	2	1	WAREHOUSE	1588	3	0	n/a	n/a	n/a	n/a	n/a
3456.522	n/a	RECOG_RESP	1728261	n/a	LTP216	ltpFR	5	2	1	WAREHOUSE	1588	n/a	0	n/a	n/a	n/a	n/a	n/a
3458.796	n/a	RECOG_CONF	1729398	n/a	LTP216	ltpFR	5	2	1	WAREHOUSE	1588	3	0	n/a	n/a	n/a	n/a	n/a
3460.652	n/a	RECOG_TARGET	1730326	n/a	LTP216	ltpFR	5	2	-1	WITNESS	1618	4	-1	n/a	n/a	n/a	n/a	n/a
3462.498	n/a	RECOG_RESP	1731249	n/a	LTP216	ltpFR	5	2	-1	WITNESS	1618	n/a	-1	n/a	n/a	n/a	n/a	n/a
3464.992	n/a	RECOG_CONF	1732496	n/a	LTP216	ltpFR	5	2	-1	WITNESS	1618	4	-1	n/a	n/a	n/a	n/a	n/a
3467.076	n/a	RECOG_TARGET	1733538	n/a	LTP216	ltpFR	5	2	0	TREE	1502	5	1	n/a	n/a	n/a	n/a	n/a
3468.26	n/a	RECOG_RESP	1734130	n/a	LTP216	ltpFR	5	2	0	TREE	1502	n/a	1	n/a	n/a	n/a	n/a	n/a
3470.6	n/a	RECOG_CONF	1735300	n/a	LTP216	ltpFR	5	2	0	TREE	1502	5	1	n/a	n/a	n/a	n/a	n/a
3472.598	n/a	RECOG_TARGET	1736299	n/a	LTP216	ltpFR	5	2	1	COSTUME	383	2	0	n/a	n/a	n/a	n/a	n/a
3475.154	n/a	RECOG_RESP	1737577	n/a	LTP216	ltpFR	5	2	1	COSTUME	383	n/a	0	n/a	n/a	n/a	n/a	n/a
3477.564	n/a	RECOG_CONF	1738782	n/a	LTP216	ltpFR	5	2	1	COSTUME	383	2	0	n/a	n/a	n/a	n/a	n/a
3479.658	n/a	RECOG_LURE	1739829	n/a	LTP216	ltpFR	5	2	n/a	SPAGHETTI	1346	1	n/a	n/a	n/a	n/a	n/a	n/a
3482.564	n/a	RECOG_RESP	1741282	n/a	LTP216	ltpFR	5	2	n/a	SPAGHETTI	1346	n/a	n/a	n/a	n/a	n/a	n/a	n/a
3484.848	n/a	RECOG_CONF	1742424	n/a	LTP216	ltpFR	5	2	n/a	SPAGHETTI	1346	1	n/a	n/a	n/a	n/a	n/a	n/a
3486.976	n/a	RECOG_TARGET	1743488	n/a	LTP216	ltpFR	5	2	-1	ATLAS	53	5	-1	n/a	n/a	n/a	n/a	n/a
3488.046	n/a	RECOG_RESP	1744023	n/a	LTP216	ltpFR	5	2	-1	ATLAS	53	n/a	-1	n/a	n/a	n/a	n/a	n/a
3490.346	n/a	RECOG_CONF	1745173	n/a	LTP216	ltpFR	5	2	-1	ATLAS	53	5	-1	n/a	n/a	n/a	n/a	n/a
3492.172	n/a	RECOG_LURE	1746086	n/a	LTP216	ltpFR	5	2	n/a	WHALE	1601	2	n/a	n/a	n/a	n/a	n/a	n/a
3494.252	n/a	RECOG_RESP	1747126	n/a	LTP216	ltpFR	5	2	n/a	WHALE	1601	n/a	n/a	n/a	n/a	n/a	n/a	n/a
3496.402	n/a	RECOG_CONF	1748201	n/a	LTP216	ltpFR	5	2	n/a	WHALE	1601	2	n/a	n/a	n/a	n/a	n/a	n/a
3498.47	n/a	RECOG_LURE	1749235	n/a	LTP216	ltpFR	5	2	n/a	LAPEL	800	2	n/a	n/a	n/a	n/a	n/a	n/a
3501.008	n/a	RECOG_RESP	1750504	n/a	LTP216	ltpFR	5	2	n/a	LAPEL	800	n/a	n/a	n/a	n/a	n/a	n/a	n/a
3503.268	n/a	RECOG_CONF	1751634	n/a	LTP216	ltpFR	5	2	n/a	LAPEL	800	2	n/a	n/a	n/a	n/a	n/a	n/a
3505.246	n/a	RECOG_LURE	1752623	n/a	LTP216	ltpFR	5	2	n/a	PEDESTRIAN	1038	4	n/a	n/a	n/a	n/a	n/a	n/a
3506.77	n/a	RECOG_RESP	1753385	n/a	LTP216	ltpFR	5	2	n/a	PEDESTRIAN	1038	n/a	n/a	n/a	n/a	n/a	n/a	n/a
3509.364	n/a	RECOG_CONF	1754682	n/a	LTP216	ltpFR	5	2	n/a	PEDESTRIAN	1038	4	n/a	n/a	n/a	n/a	n/a	n/a
3511.346	n/a	RECOG_LURE	1755673	n/a	LTP216	ltpFR	5	2	n/a	STRAWBERRY	1391	3	n/a	n/a	n/a	n/a	n/a	n/a
3513.664	n/a	RECOG_RESP	1756832	n/a	LTP216	ltpFR	5	2	n/a	STRAWBERRY	1391	n/a	n/a	n/a	n/a	n/a	n/a	n/a
3516.018	n/a	RECOG_CONF	1758009	n/a	LTP216	ltpFR	5	2	n/a	STRAWBERRY	1391	3	n/a	n/a	n/a	n/a	n/a	n/a
3518.038	n/a	RECOG_LURE	1759019	n/a	LTP216	ltpFR	5	2	n/a	PUDDING	1139	1	n/a	n/a	n/a	n/a	n/a	n/a
3522.784	n/a	RECOG_RESP	1761392	n/a	LTP216	ltpFR	5	2	n/a	PUDDING	1139	n/a	n/a	n/a	n/a	n/a	n/a	n/a
3524.78	n/a	RECOG_CONF	1762390	n/a	LTP216	ltpFR	5	2	n/a	PUDDING	1139	1	n/a	n/a	n/a	n/a	n/a	n/a
3526.83	n/a	RECOG_LURE	1763415	n/a	LTP216	ltpFR	5	2	n/a	TUBA	1515	2	n/a	n/a	n/a	n/a	n/a	n/a
3528.8	n/a	RECOG_RESP	1764400	n/a	LTP216	ltpFR	5	2	n/a	TUBA	1515	n/a	n/a	n/a	n/a	n/a	n/a	n/a
3531.276	n/a	RECOG_CONF	1765638	n/a	LTP216	ltpFR	5	2	n/a	TUBA	1515	2	n/a	n/a	n/a	n/a	n/a	n/a
3533.362	n/a	RECOG_TARGET	1766681	n/a	LTP216	ltpFR	5	2	1	PIRATE	1074	4	1	n/a	n/a	n/a	n/a	n/a
3534.962	n/a	RECOG_RESP	1767481	n/a	LTP216	ltpFR	5	2	1	PIRATE	1074	n/a	1	n/a	n/a	n/a	n/a	n/a
3537.372	n/a	RECOG_CONF	1768686	n/a	LTP216	ltpFR	5	2	1	PIRATE	1074	4	1	n/a	n/a	n/a	n/a	n/a
3539.494	n/a	RECOG_LURE	1769747	n/a	LTP216	ltpFR	5	2	n/a	TULIP	1517	1	n/a	n/a	n/a	n/a	n/a	n/a
3542.97	n/a	RECOG_RESP	1771485	n/a	LTP216	ltpFR	5	2	n/a	TULIP	1517	n/a	n/a	n/a	n/a	n/a	n/a	n/a
3544.966	n/a	RECOG_CONF	1772483	n/a	LTP216	ltpFR	5	2	n/a	TULIP	1517	1	n/a	n/a	n/a	n/a	n/a	n/a
3553.87	n/a	REC_START	1776935	n/a	LTP216	ltpFR	5	3	n/a	n/a	n/a	n/a	n/a	n/a	n/a	n/a	n/a	n/a
3553.926	n/a	RECOG_TARGET	1776963	n/a	LTP216	ltpFR	5	3	-1	PADDLE	1000	2	-1	n/a	n/a	n/a	n/a	n/a
3557.828	n/a	RECOG_RESP	1778914	n/a	LTP216	ltpFR	5	3	-1	PADDLE	1000	n/a	-1	n/a	n/a	n/a	n/a	n/a
3559.842	n/a	RECOG_CONF	1779921	n/a	LTP216	ltpFR	5	3	-1	PADDLE	1000	2	-1	n/a	n/a	n/a	n/a	n/a
3561.706	n/a	RECOG_LURE	1780853	n/a	LTP216	ltpFR	5	3	n/a	MONEY	908	2	n/a	n/a	n/a	n/a	n/a	n/a
3563.808	n/a	RECOG_RESP	1781904	n/a	LTP216	ltpFR	5	3	n/a	MONEY	908	n/a	n/a	n/a	n/a	n/a	n/a	n/a
3565.958	n/a	RECOG_CONF	1782979	n/a	LTP216	ltpFR	5	3	n/a	MONEY	908	2	n/a	n/a	n/a	n/a	n/a	n/a
3568.052	n/a	RECOG_TARGET	1784026	n/a	LTP216	ltpFR	5	3	0	SILVERWARE	1308	4	0	n/a	n/a	n/a	n/a	n/a
3570.334	n/a	RECOG_RESP	1785167	n/a	LTP216	ltpFR	5	3	0	SILVERWARE	1308	n/a	0	n/a	n/a	n/a	n/a	n/a
3572.834	n/a	RECOG_CONF	1786417	n/a	LTP216	ltpFR	5	3	0	SILVERWARE	1308	4	0	n/a	n/a	n/a	n/a	n/a
3574.79	n/a	RECOG_TARGET	1787395	n/a	LTP216	ltpFR	5	3	1	PEAR	1033	3	1	n/a	n/a	n/a	n/a	n/a
3577.174	n/a	RECOG_RESP	1788587	n/a	LTP216	ltpFR	5	3	1	PEAR	1033	n/a	1	n/a	n/a	n/a	n/a	n/a
3579.44	n/a	RECOG_CONF	1789720	n/a	LTP216	ltpFR	5	3	1	PEAR	1033	3	1	n/a	n/a	n/a	n/a	n/a
3581.464	n/a	RECOG_LURE	1790732	n/a	LTP216	ltpFR	5	3	n/a	PORTRAIT	1111	1	n/a	n/a	n/a	n/a	n/a	n/a
3584.134	n/a	RECOG_RESP	1792067	n/a	LTP216	ltpFR	5	3	n/a	PORTRAIT	1111	n/a	n/a	n/a	n/a	n/a	n/a	n/a
3586.354	n/a	RECOG_CONF	1793177	n/a	LTP216	ltpFR	5	3	n/a	PORTRAIT	1111	1	n/a	n/a	n/a	n/a	n/a	n/a
3589.176	n/a	RECOG_TARGET	1794588	n/a	LTP216	ltpFR	5	3	0	FRIEND	606	1	0	n/a	n/a	n/a	n/a	n/a
3591.592	n/a	RECOG_RESP	1795796	n/a	LTP216	ltpFR	5	3	0	FRIEND	606	n/a	0	n/a	n/a	n/a	n/a	n/a
3593.848	n/a	RECOG_CONF	1796924	n/a	LTP216	ltpFR	5	3	0	FRIEND	606	1	0	n/a	n/a	n/a	n/a	n/a
3596.204	n/a	RECOG_TARGET	1798102	n/a	LTP216	ltpFR	5	3	0	TRICYCLE	1506	1	0	n/a	n/a	n/a	n/a	n/a
3600.368	n/a	RECOG_RESP	1800184	n/a	LTP216	ltpFR	5	3	0	TRICYCLE	1506	n/a	0	n/a	n/a	n/a	n/a	n/a
3602.418	n/a	RECOG_CONF	1801209	n/a	LTP216	ltpFR	5	3	0	TRICYCLE	1506	1	0	n/a	n/a	n/a	n/a	n/a
3604.62	n/a	RECOG_TARGET	1802310	n/a	LTP216	ltpFR	5	3	1	PONY	1102	4	1	n/a	n/a	n/a	n/a	n/a
3606.638	n/a	RECOG_RESP	1803319	n/a	LTP216	ltpFR	5	3	1	PONY	1102	n/a	1	n/a	n/a	n/a	n/a	n/a
3608.994	n/a	RECOG_CONF	1804497	n/a	LTP216	ltpFR	5	3	1	PONY	1102	4	1	n/a	n/a	n/a	n/a	n/a
3610.916	n/a	RECOG_LURE	1805458	n/a	LTP216	ltpFR	5	3	n/a	EAR	513	1	n/a	n/a	n/a	n/a	n/a	n/a
3613.668	n/a	RECOG_RESP	1806834	n/a	LTP216	ltpFR	5	3	n/a	EAR	513	n/a	n/a	n/a	n/a	n/a	n/a	n/a
3615.888	n/a	RECOG_CONF	1807944	n/a	LTP216	ltpFR	5	3	n/a	EAR	513	1	n/a	n/a	n/a	n/a	n/a	n/a
3617.944	n/a	RECOG_TARGET	1808972	n/a	LTP216	ltpFR	5	3	1	TUNA	1518	3	1	n/a	n/a	n/a	n/a	n/a
3620.718	n/a	RECOG_RESP	1810359	n/a	LTP216	ltpFR	5	3	1	TUNA	1518	n/a	1	n/a	n/a	n/a	n/a	n/a
3622.912	n/a	RECOG_CONF	1811456	n/a	LTP216	ltpFR	5	3	1	TUNA	1518	3	1	n/a	n/a	n/a	n/a	n/a
3624.988	n/a	RECOG_LURE	1812494	n/a	LTP216	ltpFR	5	3	n/a	CRUMB	416	1	n/a	n/a	n/a	n/a	n/a	n/a
3626.924	n/a	RECOG_RESP	1813462	n/a	LTP216	ltpFR	5	3	n/a	CRUMB	416	n/a	n/a	n/a	n/a	n/a	n/a	n/a
3629.976	n/a	RECOG_CONF	1814988	n/a	LTP216	ltpFR	5	3	n/a	CRUMB	416	1	n/a	n/a	n/a	n/a	n/a	n/a
3631.848	n/a	RECOG_TARGET	1815924	n/a	LTP216	ltpFR	5	3	0	ASHTRAY	45	4	0	n/a	n/a	n/a	n/a	n/a
3633.544	n/a	RECOG_RESP	1816772	n/a	LTP216	ltpFR	5	3	0	ASHTRAY	45	n/a	0	n/a	n/a	n/a	n/a	n/a
3636.124	n/a	RECOG_CONF	1818062	n/a	LTP216	ltpFR	5	3	0	ASHTRAY	45	4	0	n/a	n/a	n/a	n/a	n/a
3638.03	n/a	RECOG_TARGET	1819015	n/a	LTP216	ltpFR	5	3	-1	ROOT	1210	5	-1	n/a	n/a	n/a	n/a	n/a
3639.586	n/a	RECOG_RESP	1819793	n/a	LTP216	ltpFR	5	3	-1	ROOT	1210	n/a	-1	n/a	n/a	n/a	n/a	n/a
3642.28	n/a	RECOG_CONF	1821140	n/a	LTP216	ltpFR	5	3	-1	ROOT	1210	5	-1	n/a	n/a	n/a	n/a	n/a
3644.304	n/a	RECOG_LURE	1822152	n/a	LTP216	ltpFR	5	3	n/a	ENVELOPE	537	1	n/a	n/a	n/a	n/a	n/a	n/a
3647.846	n/a	RECOG_RESP	1823923	n/a	LTP216	ltpFR	5	3	n/a	ENVELOPE	537	n/a	n/a	n/a	n/a	n/a	n/a	n/a
3649.844	n/a	RECOG_CONF	1824922	n/a	LTP216	ltpFR	5	3	n/a	ENVELOPE	537	1	n/a	n/a	n/a	n/a	n/a	n/a
3652.1	n/a	RECOG_TARGET	1826050	n/a	LTP216	ltpFR	5	3	0	ANT	25	4	0	n/a	n/a	n/a	n/a	n/a
3653.33	n/a	RECOG_RESP	1826665	n/a	LTP216	ltpFR	5	3	0	ANT	25	n/a	0	n/a	n/a	n/a	n/a	n/a
3655.79	n/a	RECOG_CONF	1827895	n/a	LTP216	ltpFR	5	3	0	ANT	25	4	0	n/a	n/a	n/a	n/a	n/a
3657.696	n/a	RECOG_TARGET	1828848	n/a	LTP216	ltpFR	5	3	0	SHOVEL	1295	5	0	n/a	n/a	n/a	n/a	n/a
3659.582	n/a	RECOG_RESP	1829791	n/a	LTP216	ltpFR	5	3	0	SHOVEL	1295	n/a	0	n/a	n/a	n/a	n/a	n/a
3662.106	n/a	RECOG_CONF	1831053	n/a	LTP216	ltpFR	5	3	0	SHOVEL	1295	5	0	n/a	n/a	n/a	n/a	n/a
3664.136	n/a	RECOG_TARGET	1832068	n/a	LTP216	ltpFR	5	3	-1	BOTTLE	153	5	-1	n/a	n/a	n/a	n/a	n/a
3665.558	n/a	RECOG_RESP	1832779	n/a	LTP216	ltpFR	5	3	-1	BOTTLE	153	n/a	-1	n/a	n/a	n/a	n/a	n/a
3668.082	n/a	RECOG_CONF	1834041	n/a	LTP216	ltpFR	5	3	-1	BOTTLE	153	5	-1	n/a	n/a	n/a	n/a	n/a
3670.126	n/a	RECOG_LURE	1835063	n/a	LTP216	ltpFR	5	3	n/a	DOLPHIN	483	3	n/a	n/a	n/a	n/a	n/a	n/a
3672.762	n/a	RECOG_RESP	1836381	n/a	LTP216	ltpFR	5	3	n/a	DOLPHIN	483	n/a	n/a	n/a	n/a	n/a	n/a	n/a
3675.206	n/a	RECOG_CONF	1837603	n/a	LTP216	ltpFR	5	3	n/a	DOLPHIN	483	3	n/a	n/a	n/a	n/a	n/a	n/a
3677.336	n/a	RECOG_TARGET	1838668	n/a	LTP216	ltpFR	5	3	0	MARS	873	5	1	n/a	n/a	n/a	n/a	n/a
3678.588	n/a	RECOG_RESP	1839294	n/a	LTP216	ltpFR	5	3	0	MARS	873	n/a	1	n/a	n/a	n/a	n/a	n/a
3681.144	n/a	RECOG_CONF	1840572	n/a	LTP216	ltpFR	5	3	0	MARS	873	5	1	n/a	n/a	n/a	n/a	n/a
3683.286	n/a	RECOG_LURE	1841643	n/a	LTP216	ltpFR	5	3	n/a	KIWI	781	3	n/a	n/a	n/a	n/a	n/a	n/a
3685.11	n/a	RECOG_RESP	1842555	n/a	LTP216	ltpFR	5	3	n/a	KIWI	781	n/a	n/a	n/a	n/a	n/a	n/a	n/a
3687.38	n/a	RECOG_CONF	1843690	n/a	LTP216	ltpFR	5	3	n/a	KIWI	781	3	n/a	n/a	n/a	n/a	n/a	n/a
3695.208	n/a	REC_START	1847604	n/a	LTP216	ltpFR	5	4	n/a	n/a	n/a	n/a	n/a	n/a	n/a	n/a	n/a	n/a
3695.256	n/a	RECOG_TARGET	1847628	n/a	LTP216	ltpFR	5	4	0	SAP	1233	3	0	n/a	n/a	n/a	n/a	n/a
3697.682	n/a	RECOG_RESP	1848841	n/a	LTP216	ltpFR	5	4	0	SAP	1233	n/a	0	n/a	n/a	n/a	n/a	n/a
3699.634	n/a	RECOG_CONF	1849817	n/a	LTP216	ltpFR	5	4	0	SAP	1233	3	0	n/a	n/a	n/a	n/a	n/a
3701.53	n/a	RECOG_LURE	1850765	n/a	LTP216	ltpFR	5	4	n/a	FILM	565	2	n/a	n/a	n/a	n/a	n/a	n/a
3703.998	n/a	RECOG_RESP	1851999	n/a	LTP216	ltpFR	5	4	n/a	FILM	565	n/a	n/a	n/a	n/a	n/a	n/a	n/a
3706.148	n/a	RECOG_CONF	1853074	n/a	LTP216	ltpFR	5	4	n/a	FILM	565	2	n/a	n/a	n/a	n/a	n/a	n/a
3708.256	n/a	RECOG_TARGET	1854128	n/a	LTP216	ltpFR	5	4	0	NEPTUNE	943	5	1	n/a	n/a	n/a	n/a	n/a
3709.436	n/a	RECOG_RESP	1854718	n/a	LTP216	ltpFR	5	4	0	NEPTUNE	943	n/a	1	n/a	n/a	n/a	n/a	n/a
3711.826	n/a	RECOG_CONF	1855913	n/a	LTP216	ltpFR	5	4	0	NEPTUNE	943	5	1	n/a	n/a	n/a	n/a	n/a
3713.97	n/a	RECOG_LURE	1856985	n/a	LTP216	ltpFR	5	4	n/a	NURSE	963	1	n/a	n/a	n/a	n/a	n/a	n/a
3719.44	n/a	RECOG_RESP	1859720	n/a	LTP216	ltpFR	5	4	n/a	NURSE	963	n/a	n/a	n/a	n/a	n/a	n/a	n/a
3721.394	n/a	RECOG_CONF	1860697	n/a	LTP216	ltpFR	5	4	n/a	NURSE	963	1	n/a	n/a	n/a	n/a	n/a	n/a
3723.614	n/a	RECOG_TARGET	1861807	n/a	LTP216	ltpFR	5	4	1	GAVEL	627	4	0	n/a	n/a	n/a	n/a	n/a
3725.482	n/a	RECOG_RESP	1862741	n/a	LTP216	ltpFR	5	4	1	GAVEL	627	n/a	0	n/a	n/a	n/a	n/a	n/a
3727.882	n/a	RECOG_CONF	1863941	n/a	LTP216	ltpFR	5	4	1	GAVEL	627	4	0	n/a	n/a	n/a	n/a	n/a
3729.838	n/a	RECOG_TARGET	1864919	n/a	LTP216	ltpFR	5	4	-1	SHELL	1281	5	-1	n/a	n/a	n/a	n/a	n/a
3731.014	n/a	RECOG_RESP	1865507	n/a	LTP216	ltpFR	5	4	-1	SHELL	1281	n/a	-1	n/a	n/a	n/a	n/a	n/a
3733.398	n/a	RECOG_CONF	1866699	n/a	LTP216	ltpFR	5	4	-1	SHELL	1281	5	-1	n/a	n/a	n/a	n/a	n/a
3735.358	n/a	RECOG_TARGET	1867679	n/a	LTP216	ltpFR	5	4	1	RAZOR	1171	5	0	n/a	n/a	n/a	n/a	n/a
3736.632	n/a	RECOG_RESP	1868316	n/a	LTP216	ltpFR	5	4	1	RAZOR	1171	n/a	0	n/a	n/a	n/a	n/a	n/a
3739.066	n/a	RECOG_CONF	1869533	n/a	LTP216	ltpFR	5	4	1	RAZOR	1171	5	0	n/a	n/a	n/a	n/a	n/a
3741.214	n/a	RECOG_LURE	1870607	n/a	LTP216	ltpFR	5	4	n/a	BROTHER	179	1	n/a	n/a	n/a	n/a	n/a	n/a
3745.432	n/a	RECOG_RESP	1872716	n/a	LTP216	ltpFR	5	4	n/a	BROTHER	179	n/a	n/a	n/a	n/a	n/a	n/a	n/a
3747.418	n/a	RECOG_CONF	1873709	n/a	LTP216	ltpFR	5	4	n/a	BROTHER	179	1	n/a	n/a	n/a	n/a	n/a	n/a
3749.698	n/a	RECOG_LURE	1874849	n/a	LTP216	ltpFR	5	4	n/a	TABLET	1427	1	n/a	n/a	n/a	n/a	n/a	n/a
3753.768	n/a	RECOG_RESP	1876884	n/a	LTP216	ltpFR	5	4	n/a	TABLET	1427	n/a	n/a	n/a	n/a	n/a	n/a	n/a
3756.138	n/a	RECOG_CONF	1878069	n/a	LTP216	ltpFR	5	4	n/a	TABLET	1427	1	n/a	n/a	n/a	n/a	n/a	n/a
3758.222	n/a	RECOG_LURE	1879111	n/a	LTP216	ltpFR	5	4	n/a	SPICE	1350	1	n/a	n/a	n/a	n/a	n/a	n/a
3763.268	n/a	RECOG_RESP	1881634	n/a	LTP216	ltpFR	5	4	n/a	SPICE	1350	n/a	n/a	n/a	n/a	n/a	n/a	n/a
3765.158	n/a	RECOG_CONF	1882579	n/a	LTP216	ltpFR	5	4	n/a	SPICE	1350	1	n/a	n/a	n/a	n/a	n/a	n/a
3767.516	n/a	RECOG_LURE	1883758	n/a	LTP216	ltpFR	5	4	n/a	STY	1397	2	n/a	n/a	n/a	n/a	n/a	n/a
3770.078	n/a	RECOG_RESP	1885039	n/a	LTP216	ltpFR	5	4	n/a	STY	1397	n/a	n/a	n/a	n/a	n/a	n/a	n/a
3772.382	n/a	RECOG_CONF	1886191	n/a	LTP216	ltpFR	5	4	n/a	STY	1397	2	n/a	n/a	n/a	n/a	n/a	n/a
3774.4	n/a	RECOG_TARGET	1887200	n/a	LTP216	ltpFR	5	4	0	THUMB	1462	4	0	n/a	n/a	n/a	n/a	n/a
3777.096	n/a	RECOG_RESP	1888548	n/a	LTP216	ltpFR	5	4	0	THUMB	1462	n/a	0	n/a	n/a	n/a	n/a	n/a
3779.656	n/a	RECOG_CONF	1889828	n/a	LTP216	ltpFR	5	4	0	THUMB	1462	4	0	n/a	n/a	n/a	n/a	n/a
3781.77	n/a	RECOG_LURE	1890885	n/a	LTP216	ltpFR	5	4	n/a	MEDAL	885	1	n/a	n/a	n/a	n/a	n/a	n/a
3785.808	n/a	RECOG_RESP	1892904	n/a	LTP216	ltpFR	5	4	n/a	MEDAL	885	n/a	n/a	n/a	n/a	n/a	n/a	n/a
3787.898	n/a	RECOG_CONF	1893949	n/a	LTP216	ltpFR	5	4	n/a	MEDAL	885	1	n/a	n/a	n/a	n/a	n/a	n/a
3790.028	n/a	RECOG_LURE	1895014	n/a	LTP216	ltpFR	5	4	n/a	PENGUIN	1044	2	n/a	n/a	n/a	n/a	n/a	n/a
3792.886	n/a	RECOG_RESP	1896443	n/a	LTP216	ltpFR	5	4	n/a	PENGUIN	1044	n/a	n/a	n/a	n/a	n/a	n/a	n/a
3795.112	n/a	RECOG_CONF	1897556	n/a	LTP216	ltpFR	5	4	n/a	PENGUIN	1044	2	n/a	n/a	n/a	n/a	n/a	n/a
3797.188	n/a	RECOG_TARGET	1898594	n/a	LTP216	ltpFR	5	4	-1	BANKER	84	5	-1	n/a	n/a	n/a	n/a	n/a
3798.454	n/a	RECOG_RESP	1899227	n/a	LTP216	ltpFR	5	4	-1	BANKER	84	n/a	-1	n/a	n/a	n/a	n/a	n/a
3800.73	n/a	RECOG_CONF	1900365	n/a	LTP216	ltpFR	5	4	-1	BANKER	84	5	-1	n/a	n/a	n/a	n/a	n/a
3802.894	n/a	RECOG_TARGET	1901447	n/a	LTP216	ltpFR	5	4	-1	HERD	705	3	-1	n/a	n/a	n/a	n/a	n/a
3804.342	n/a	RECOG_RESP	1902171	n/a	LTP216	ltpFR	5	4	-1	HERD	705	n/a	-1	n/a	n/a	n/a	n/a	n/a
3806.646	n/a	RECOG_CONF	1903323	n/a	LTP216	ltpFR	5	4	-1	HERD	705	3	-1	n/a	n/a	n/a	n/a	n/a
3808.816	n/a	RECOG_TARGET	1904408	n/a	LTP216	ltpFR	5	4	0	TOWEL	1489	3	0	n/a	n/a	n/a	n/a	n/a
3811.016	n/a	RECOG_RESP	1905508	n/a	LTP216	ltpFR	5	4	0	TOWEL	1489	n/a	0	n/a	n/a	n/a	n/a	n/a
3813.53	n/a	RECOG_CONF	1906765	n/a	LTP216	ltpFR	5	4	0	TOWEL	1489	3	0	n/a	n/a	n/a	n/a	n/a
3815.626	n/a	RECOG_TARGET	1907813	n/a	LTP216	ltpFR	5	4	0	PORCH	1106	5	0	n/a	n/a	n/a	n/a	n/a
3816.872	n/a	RECOG_RESP	1908436	n/a	LTP216	ltpFR	5	4	0	PORCH	1106	n/a	0	n/a	n/a	n/a	n/a	n/a
3819.258	n/a	RECOG_CONF	1909629	n/a	LTP216	ltpFR	5	4	0	PORCH	1106	5	0	n/a	n/a	n/a	n/a	n/a
3821.422	n/a	RECOG_LURE	1910711	n/a	LTP216	ltpFR	5	4	n/a	BALLOON	75	1	n/a	n/a	n/a	n/a	n/a	n/a
3824.966	n/a	RECOG_RESP	1912483	n/a	LTP216	ltpFR	5	4	n/a	BALLOON	75	n/a	n/a	n/a	n/a	n/a	n/a	n/a
3827.03	n/a	RECOG_CONF	1913515	n/a	LTP216	ltpFR	5	4	n/a	BALLOON	75	1	n/a	n/a	n/a	n/a	n/a	n/a
3829.176	n/a	RECOG_TARGET	1914588	n/a	LTP216	ltpFR	5	4	1	BUN	197	3	1	n/a	n/a	n/a	n/a	n/a
3830.652	n/a	RECOG_RESP	1915326	n/a	LTP216	ltpFR	5	4	1	BUN	197	n/a	1	n/a	n/a	n/a	n/a	n/a
3832.878	n/a	RECOG_CONF	1916439	n/a	LTP216	ltpFR	5	4	1	BUN	197	3	1	n/a	n/a	n/a	n/a	n/a
3851.884	n/a	REC_START	1925942	n/a	LTP216	ltpFR	5	5	n/a	n/a	n/a	n/a	n/a	n/a	n/a	n/a	n/a	n/a
3851.938	n/a	RECOG_TARGET	1925969	n/a	LTP216	ltpFR	5	5	1	DETECTIVE	454	3	1	n/a	n/a	n/a	n/a	n/a
3853.884	n/a	RECOG_RESP	1926942	n/a	LTP216	ltpFR	5	5	1	DETECTIVE	454	n/a	1	n/a	n/a	n/a	n/a	n/a
3856.088	n/a	RECOG_CONF	1928044	n/a	LTP216	ltpFR	5	5	1	DETECTIVE	454	3	1	n/a	n/a	n/a	n/a	n/a
3858.188	n/a	RECOG_TARGET	1929094	n/a	LTP216	ltpFR	5	5	-1	PICK	1058	1	-1	n/a	n/a	n/a	n/a	n/a
3860.25	n/a	RECOG_RESP	1930125	n/a	LTP216	ltpFR	5	5	-1	PICK	1058	n/a	-1	n/a	n/a	n/a	n/a	n/a
3862.326	n/a	RECOG_CONF	1931163	n/a	LTP216	ltpFR	5	5	-1	PICK	1058	1	-1	n/a	n/a	n/a	n/a	n/a
3864.328	n/a	RECOG_TARGET	1932164	n/a	LTP216	ltpFR	5	5	0	ESSAY	540	4	0	n/a	n/a	n/a	n/a	n/a
3865.594	n/a	RECOG_RESP	1932797	n/a	LTP216	ltpFR	5	5	0	ESSAY	540	n/a	0	n/a	n/a	n/a	n/a	n/a
3868.092	n/a	RECOG_CONF	1934046	n/a	LTP216	ltpFR	5	5	0	ESSAY	540	4	0	n/a	n/a	n/a	n/a	n/a
3870.174	n/a	RECOG_TARGET	1935087	n/a	LTP216	ltpFR	5	5	1	COBBLER	335	5	1	n/a	n/a	n/a	n/a	n/a
3871.46	n/a	RECOG_RESP	1935730	n/a	LTP216	ltpFR	5	5	1	COBBLER	335	n/a	1	n/a	n/a	n/a	n/a	n/a
3873.91	n/a	RECOG_CONF	1936955	n/a	LTP216	ltpFR	5	5	1	COBBLER	335	5	1	n/a	n/a	n/a	n/a	n/a
3876.008	n/a	RECOG_TARGET	1938004	n/a	LTP216	ltpFR	5	5	-1	MAPLE	866	4	-1	n/a	n/a	n/a	n/a	n/a
3877.162	n/a	RECOG_RESP	1938581	n/a	LTP216	ltpFR	5	5	-1	MAPLE	866	n/a	-1	n/a	n/a	n/a	n/a	n/a
3879.946	n/a	RECOG_CONF	1939973	n/a	LTP216	ltpFR	5	5	-1	MAPLE	866	4	-1	n/a	n/a	n/a	n/a	n/a
3881.996	n/a	RECOG_LURE	1940998	n/a	LTP216	ltpFR	5	5	n/a	CERAMICS	271	2	n/a	n/a	n/a	n/a	n/a	n/a
3884.426	n/a	RECOG_RESP	1942213	n/a	LTP216	ltpFR	5	5	n/a	CERAMICS	271	n/a	n/a	n/a	n/a	n/a	n/a	n/a
3886.752	n/a	RECOG_CONF	1943376	n/a	LTP216	ltpFR	5	5	n/a	CERAMICS	271	2	n/a	n/a	n/a	n/a	n/a	n/a
3888.98	n/a	RECOG_TARGET	1944490	n/a	LTP216	ltpFR	5	5	1	ENEMY	534	2	1	n/a	n/a	n/a	n/a	n/a
3890.264	n/a	RECOG_RESP	1945132	n/a	LTP216	ltpFR	5	5	1	ENEMY	534	n/a	1	n/a	n/a	n/a	n/a	n/a
3893.796	n/a	RECOG_CONF	1946898	n/a	LTP216	ltpFR	5	5	1	ENEMY	534	2	1	n/a	n/a	n/a	n/a	n/a
3895.89	n/a	RECOG_TARGET	1947945	n/a	LTP216	ltpFR	5	5	1	SERPENT	1270	5	1	n/a	n/a	n/a	n/a	n/a
3897.214	n/a	RECOG_RESP	1948607	n/a	LTP216	ltpFR	5	5	1	SERPENT	1270	n/a	1	n/a	n/a	n/a	n/a	n/a
3899.782	n/a	RECOG_CONF	1949891	n/a	LTP216	ltpFR	5	5	1	SERPENT	1270	5	1	n/a	n/a	n/a	n/a	n/a
3901.838	n/a	RECOG_LURE	1950919	n/a	LTP216	ltpFR	5	5	n/a	NITROGEN	954	3	n/a	n/a	n/a	n/a	n/a	n/a
3904.372	n/a	RECOG_RESP	1952186	n/a	LTP216	ltpFR	5	5	n/a	NITROGEN	954	n/a	n/a	n/a	n/a	n/a	n/a	n/a
3907.146	n/a	RECOG_CONF	1953573	n/a	LTP216	ltpFR	5	5	n/a	NITROGEN	954	3	n/a	n/a	n/a	n/a	n/a	n/a
3909.272	n/a	RECOG_TARGET	1954636	n/a	LTP216	ltpFR	5	5	1	CARROT	249	2	1	n/a	n/a	n/a	n/a	n/a
3912.618	n/a	RECOG_RESP	1956309	n/a	LTP216	ltpFR	5	5	1	CARROT	249	n/a	1	n/a	n/a	n/a	n/a	n/a
3914.93	n/a	RECOG_CONF	1957465	n/a	LTP216	ltpFR	5	5	1	CARROT	249	2	1	n/a	n/a	n/a	n/a	n/a
3917.03	n/a	RECOG_TARGET	1958515	n/a	LTP216	ltpFR	5	5	0	STAPLE	1371	2	0	n/a	n/a	n/a	n/a	n/a
3918.186	n/a	RECOG_RESP	1959093	n/a	LTP216	ltpFR	5	5	0	STAPLE	1371	n/a	0	n/a	n/a	n/a	n/a	n/a
3920.986	n/a	RECOG_CONF	1960493	n/a	LTP216	ltpFR	5	5	0	STAPLE	1371	2	0	n/a	n/a	n/a	n/a	n/a
3923.042	n/a	RECOG_TARGET	1961521	n/a	LTP216	ltpFR	5	5	-1	PAPER	1011	1	-1	n/a	n/a	n/a	n/a	n/a
3925.012	n/a	RECOG_RESP	1962506	n/a	LTP216	ltpFR	5	5	-1	PAPER	1011	n/a	-1	n/a	n/a	n/a	n/a	n/a
3927.37	n/a	RECOG_CONF	1963685	n/a	LTP216	ltpFR	5	5	-1	PAPER	1011	1	-1	n/a	n/a	n/a	n/a	n/a
3929.46	n/a	RECOG_LURE	1964730	n/a	LTP216	ltpFR	5	5	n/a	SCREW	1254	4	n/a	n/a	n/a	n/a	n/a	n/a
3931.926	n/a	RECOG_RESP	1965963	n/a	LTP216	ltpFR	5	5	n/a	SCREW	1254	n/a	n/a	n/a	n/a	n/a	n/a	n/a
3934.556	n/a	RECOG_CONF	1967278	n/a	LTP216	ltpFR	5	5	n/a	SCREW	1254	4	n/a	n/a	n/a	n/a	n/a	n/a
3936.386	n/a	RECOG_TARGET	1968193	n/a	LTP216	ltpFR	5	5	1	APARTMENT	30	2	0	n/a	n/a	n/a	n/a	n/a
3938.032	n/a	RECOG_RESP	1969016	n/a	LTP216	ltpFR	5	5	1	APARTMENT	30	n/a	0	n/a	n/a	n/a	n/a	n/a
3940.532	n/a	RECOG_CONF	1970266	n/a	LTP216	ltpFR	5	5	1	APARTMENT	30	2	0	n/a	n/a	n/a	n/a	n/a
3942.584	n/a	RECOG_TARGET	1971292	n/a	LTP216	ltpFR	5	5	0	ROCKET	1202	5	1	n/a	n/a	n/a	n/a	n/a
3943.834	n/a	RECOG_RESP	1971917	n/a	LTP216	ltpFR	5	5	0	ROCKET	1202	n/a	1	n/a	n/a	n/a	n/a	n/a
3946.478	n/a	RECOG_CONF	1973239	n/a	LTP216	ltpFR	5	5	0	ROCKET	1202	5	1	n/a	n/a	n/a	n/a	n/a
3948.59	n/a	RECOG_TARGET	1974295	n/a	LTP216	ltpFR	5	5	1	BUS	201	1	0	n/a	n/a	n/a	n/a	n/a
3953.644	n/a	RECOG_RESP	1976822	n/a	LTP216	ltpFR	5	5	1	BUS	201	n/a	0	n/a	n/a	n/a	n/a	n/a
3955.798	n/a	RECOG_CONF	1977899	n/a	LTP216	ltpFR	5	5	1	BUS	201	1	0	n/a	n/a	n/a	n/a	n/a
3957.826	n/a	RECOG_LURE	1978913	n/a	LTP216	ltpFR	5	5	n/a	TRASH	1497	3	n/a	n/a	n/a	n/a	n/a	n/a
3961.346	n/a	RECOG_RESP	1980673	n/a	LTP216	ltpFR	5	5	n/a	TRASH	1497	n/a	n/a	n/a	n/a	n/a	n/a	n/a
3963.63	n/a	RECOG_CONF	1981815	n/a	LTP216	ltpFR	5	5	n/a	TRASH	1497	3	n/a	n/a	n/a	n/a	n/a	n/a
3965.806	n/a	RECOG_LURE	1982903	n/a	LTP216	ltpFR	5	5	n/a	CROSS	413	2	n/a	n/a	n/a	n/a	n/a	n/a
3967.566	n/a	RECOG_RESP	1983783	n/a	LTP216	ltpFR	5	5	n/a	CROSS	413	n/a	n/a	n/a	n/a	n/a	n/a	n/a
3969.966	n/a	RECOG_CONF	1984983	n/a	LTP216	ltpFR	5	5	n/a	CROSS	413	2	n/a	n/a	n/a	n/a	n/a	n/a
3972.106	n/a	RECOG_LURE	1986053	n/a	LTP216	ltpFR	5	5	n/a	LODGE	839	3	n/a	n/a	n/a	n/a	n/a	n/a
3973.544	n/a	RECOG_RESP	1986772	n/a	LTP216	ltpFR	5	5	n/a	LODGE	839	n/a	n/a	n/a	n/a	n/a	n/a	n/a
3976.412	n/a	RECOG_CONF	1988206	n/a	LTP216	ltpFR	5	5	n/a	LODGE	839	3	n/a	n/a	n/a	n/a	n/a	n/a
3978.414	n/a	RECOG_LURE	1989207	n/a	LTP216	ltpFR	5	5	n/a	FROG	608	2	n/a	n/a	n/a	n/a	n/a	n/a
3981.834	n/a	RECOG_RESP	1990917	n/a	LTP216	ltpFR	5	5	n/a	FROG	608	n/a	n/a	n/a	n/a	n/a	n/a	n/a
3984.584	n/a	RECOG_CONF	1992292	n/a	LTP216	ltpFR	5	5	n/a	FROG	608	2	n/a	n/a	n/a	n/a	n/a	n/a
3992.54	n/a	REC_START	1996270	n/a	LTP216	ltpFR	5	6	n/a	n/a	n/a	n/a	n/a	n/a	n/a	n/a	n/a	n/a
3992.592	n/a	RECOG_LURE	1996296	n/a	LTP216	ltpFR	5	6	n/a	PEBBLE	1035	2	n/a	n/a	n/a	n/a	n/a	n/a
3996.052	n/a	RECOG_RESP	1998026	n/a	LTP216	ltpFR	5	6	n/a	PEBBLE	1035	n/a	n/a	n/a	n/a	n/a	n/a	n/a
3998.292	n/a	RECOG_CONF	1999146	n/a	LTP216	ltpFR	5	6	n/a	PEBBLE	1035	2	n/a	n/a	n/a	n/a	n/a	n/a
4000.372	n/a	RECOG_TARGET	2000186	n/a	LTP216	ltpFR	5	6	0	MOSQUITO	917	5	0	n/a	n/a	n/a	n/a	n/a
4001.718	n/a	RECOG_RESP	2000859	n/a	LTP216	ltpFR	5	6	0	MOSQUITO	917	n/a	0	n/a	n/a	n/a	n/a	n/a
4004.198	n/a	RECOG_CONF	2002099	n/a	LTP216	ltpFR	5	6	0	MOSQUITO	917	5	0	n/a	n/a	n/a	n/a	n/a
4006.142	n/a	RECOG_TARGET	2003071	n/a	LTP216	ltpFR	5	6	0	RECEIPT	1173	5	n/a	n/a	n/a	n/a	n/a	n/a
4007.346	n/a	RECOG_RESP	2003673	n/a	LTP216	ltpFR	5	6	0	RECEIPT	1173	n/a	n/a	n/a	n/a	n/a	n/a	n/a
4009.836	n/a	RECOG_CONF	2004918	n/a	LTP216	ltpFR	5	6	0	RECEIPT	1173	5	n/a	n/a	n/a	n/a	n/a	n/a
4011.876	n/a	RECOG_LURE	2005938	n/a	LTP216	ltpFR	5	6	n/a	JOURNAL	760	2	n/a	n/a	n/a	n/a	n/a	n/a
4014.146	n/a	RECOG_RESP	2007073	n/a	LTP216	ltpFR	5	6	n/a	JOURNAL	760	n/a	n/a	n/a	n/a	n/a	n/a	n/a
4016.382	n/a	RECOG_CONF	2008191	n/a	LTP216	ltpFR	5	6	n/a	JOURNAL	760	2	n/a	n/a	n/a	n/a	n/a	n/a
4018.708	n/a	RECOG_TARGET	2009354	n/a	LTP216	ltpFR	5	6	1	KETCHUP	771	5	0	n/a	n/a	n/a	n/a	n/a
4019.894	n/a	RECOG_RESP	2009947	n/a	LTP216	ltpFR	5	6	1	KETCHUP	771	n/a	0	n/a	n/a	n/a	n/a	n/a
4022.398	n/a	RECOG_CONF	2011199	n/a	LTP216	ltpFR	5	6	1	KETCHUP	771	5	0	n/a	n/a	n/a	n/a	n/a
4024.514	n/a	RECOG_TARGET	2012257	n/a	LTP216	ltpFR	5	6	1	PLAID	1080	5	0	n/a	n/a	n/a	n/a	n/a
4025.72	n/a	RECOG_RESP	2012860	n/a	LTP216	ltpFR	5	6	1	PLAID	1080	n/a	0	n/a	n/a	n/a	n/a	n/a
4028.324	n/a	RECOG_CONF	2014162	n/a	LTP216	ltpFR	5	6	1	PLAID	1080	5	0	n/a	n/a	n/a	n/a	n/a
4030.538	n/a	RECOG_LURE	2015269	n/a	LTP216	ltpFR	5	6	n/a	JELLY	755	3	n/a	n/a	n/a	n/a	n/a	n/a
4032.426	n/a	RECOG_RESP	2016213	n/a	LTP216	ltpFR	5	6	n/a	JELLY	755	n/a	n/a	n/a	n/a	n/a	n/a	n/a
4034.85	n/a	RECOG_CONF	2017425	n/a	LTP216	ltpFR	5	6	n/a	JELLY	755	3	n/a	n/a	n/a	n/a	n/a	n/a
4037.188	n/a	RECOG_TARGET	2018594	n/a	LTP216	ltpFR	5	6	-1	PENCIL	1042	2	-1	n/a	n/a	n/a	n/a	n/a
4043.43	n/a	RECOG_RESP	2021715	n/a	LTP216	ltpFR	5	6	-1	PENCIL	1042	n/a	-1	n/a	n/a	n/a	n/a	n/a
4045.596	n/a	RECOG_CONF	2022798	n/a	LTP216	ltpFR	5	6	-1	PENCIL	1042	2	-1	n/a	n/a	n/a	n/a	n/a
4047.804	n/a	RECOG_TARGET	2023902	n/a	LTP216	ltpFR	5	6	1	HAYSTACK	694	3	0	n/a	n/a	n/a	n/a	n/a
4050.576	n/a	RECOG_RESP	2025288	n/a	LTP216	ltpFR	5	6	1	HAYSTACK	694	n/a	0	n/a	n/a	n/a	n/a	n/a
4052.92	n/a	RECOG_CONF	2026460	n/a	LTP216	ltpFR	5	6	1	HAYSTACK	694	3	0	n/a	n/a	n/a	n/a	n/a
4054.914	n/a	RECOG_TARGET	2027457	n/a	LTP216	ltpFR	5	6	1	LENS	811	5	0	n/a	n/a	n/a	n/a	n/a
4056.098	n/a	RECOG_RESP	2028049	n/a	LTP216	ltpFR	5	6	1	LENS	811	n/a	0	n/a	n/a	n/a	n/a	n/a
4058.538	n/a	RECOG_CONF	2029269	n/a	LTP216	ltpFR	5	6	1	LENS	811	5	0	n/a	n/a	n/a	n/a	n/a
4060.646	n/a	RECOG_LURE	2030323	n/a	LTP216	ltpFR	5	6	n/a	GRIZZLY	662	2	n/a	n/a	n/a	n/a	n/a	n/a
4063.99	n/a	RECOG_RESP	2031995	n/a	LTP216	ltpFR	5	6	n/a	GRIZZLY	662	n/a	n/a	n/a	n/a	n/a	n/a	n/a
4066.29	n/a	RECOG_CONF	2033145	n/a	LTP216	ltpFR	5	6	n/a	GRIZZLY	662	2	n/a	n/a	n/a	n/a	n/a	n/a
4068.566	n/a	RECOG_LURE	2034283	n/a	LTP216	ltpFR	5	6	n/a	CANVAS	234	2	n/a	n/a	n/a	n/a	n/a	n/a
4070.57	n/a	RECOG_RESP	2035285	n/a	LTP216	ltpFR	5	6	n/a	CANVAS	234	n/a	n/a	n/a	n/a	n/a	n/a	n/a
4073.026	n/a	RECOG_CONF	2036513	n/a	LTP216	ltpFR	5	6	n/a	CANVAS	234	2	n/a	n/a	n/a	n/a	n/a	n/a
4074.99	n/a	RECOG_LURE	2037495	n/a	LTP216	ltpFR	5	6	n/a	JUPITER	765	4	n/a	n/a	n/a	n/a	n/a	n/a
4077.106	n/a	RECOG_RESP	2038553	n/a	LTP216	ltpFR	5	6	n/a	JUPITER	765	n/a	n/a	n/a	n/a	n/a	n/a	n/a
4079.73	n/a	RECOG_CONF	2039865	n/a	LTP216	ltpFR	5	6	n/a	JUPITER	765	4	n/a	n/a	n/a	n/a	n/a	n/a
4081.682	n/a	RECOG_TARGET	2040841	n/a	LTP216	ltpFR	5	6	-1	CITY	314	4	-1	n/a	n/a	n/a	n/a	n/a
4082.948	n/a	RECOG_RESP	2041474	n/a	LTP216	ltpFR	5	6	-1	CITY	314	n/a	-1	n/a	n/a	n/a	n/a	n/a
4085.438	n/a	RECOG_CONF	2042719	n/a	LTP216	ltpFR	5	6	-1	CITY	314	4	-1	n/a	n/a	n/a	n/a	n/a
4087.666	n/a	RECOG_TARGET	2043833	n/a	LTP216	ltpFR	5	6	1	VILLAGE	1566	5	1	n/a	n/a	n/a	n/a	n/a
4089.074	n/a	RECOG_RESP	2044537	n/a	LTP216	ltpFR	5	6	1	VILLAGE	1566	n/a	1	n/a	n/a	n/a	n/a	n/a
4091.604	n/a	RECOG_CONF	2045802	n/a	LTP216	ltpFR	5	6	1	VILLAGE	1566	5	1	n/a	n/a	n/a	n/a	n/a
4093.696	n/a	RECOG_LURE	2046848	n/a	LTP216	ltpFR	5	6	n/a	CUCUMBER	421	3	n/a	n/a	n/a	n/a	n/a	n/a
4096.044	n/a	RECOG_RESP	2048022	n/a	LTP216	ltpFR	5	6	n/a	CUCUMBER	421	n/a	n/a	n/a	n/a	n/a	n/a	n/a
4098.968	n/a	RECOG_CONF	2049484	n/a	LTP216	ltpFR	5	6	n/a	CUCUMBER	421	3	n/a	n/a	n/a	n/a	n/a	n/a
4101.05	n/a	RECOG_LURE	2050525	n/a	LTP216	ltpFR	5	6	n/a	CHEST	295	1	n/a	n/a	n/a	n/a	n/a	n/a
4103.902	n/a	RECOG_RESP	2051951	n/a	LTP216	ltpFR	5	6	n/a	CHEST	295	n/a	n/a	n/a	n/a	n/a	n/a	n/a
4106.472	n/a	RECOG_CONF	2053236	n/a	LTP216	ltpFR	5	6	n/a	CHEST	295	1	n/a	n/a	n/a	n/a	n/a	n/a
4108.496	n/a	RECOG_TARGET	2054248	n/a	LTP216	ltpFR	5	6	-1	MOTEL	919	4	-1	n/a	n/a	n/a	n/a	n/a
4110.024	n/a	RECOG_RESP	2055012	n/a	LTP216	ltpFR	5	6	-1	MOTEL	919	n/a	-1	n/a	n/a	n/a	n/a	n/a
4113.216	n/a	RECOG_CONF	2056608	n/a	LTP216	ltpFR	5	6	-1	MOTEL	919	4	-1	n/a	n/a	n/a	n/a	n/a
4115.186	n/a	RECOG_TARGET	2057593	n/a	LTP216	ltpFR	5	6	1	CANAL	226	1	0	n/a	n/a	n/a	n/a	n/a
4120.012	n/a	RECOG_RESP	2060006	n/a	LTP216	ltpFR	5	6	1	CANAL	226	n/a	0	n/a	n/a	n/a	n/a	n/a
4122.296	n/a	RECOG_CONF	2061148	n/a	LTP216	ltpFR	5	6	1	CANAL	226	1	0	n/a	n/a	n/a	n/a	n/a
4124.422	n/a	RECOG_TARGET	2062211	n/a	LTP216	ltpFR	5	6	0	CAT	257	1	0	n/a	n/a	n/a	n/a	n/a
4127.63	n/a	RECOG_RESP	2063815	n/a	LTP216	ltpFR	5	6	0	CAT	257	n/a	0	n/a	n/a	n/a	n/a	n/a
4129.96	n/a	RECOG_CONF	2064980	n/a	LTP216	ltpFR	5	6	0	CAT	257	1	0	n/a	n/a	n/a	n/a	n/a
4152.88	n/a	REC_START	2076440	n/a	LTP216	ltpFR	5	7	n/a	n/a	n/a	n/a	n/a	n/a	n/a	n/a	n/a	n/a
4152.932	n/a	RECOG_LURE	2076466	n/a	LTP216	ltpFR	5	7	n/a	CHILD	299	1	n/a	n/a	n/a	n/a	n/a	n/a
4159.3	n/a	RECOG_RESP	2079650	n/a	LTP216	ltpFR	5	7	n/a	CHILD	299	n/a	n/a	n/a	n/a	n/a	n/a	n/a
4161.376	n/a	RECOG_CONF	2080688	n/a	LTP216	ltpFR	5	7	n/a	CHILD	299	1	n/a	n/a	n/a	n/a	n/a	n/a
4163.706	n/a	RECOG_LURE	2081853	n/a	LTP216	ltpFR	5	7	n/a	SERVANT	1271	3	n/a	n/a	n/a	n/a	n/a	n/a
4168.4	n/a	RECOG_RESP	2084200	n/a	LTP216	ltpFR	5	7	n/a	SERVANT	1271	n/a	n/a	n/a	n/a	n/a	n/a	n/a
4170.714	n/a	RECOG_CONF	2085357	n/a	LTP216	ltpFR	5	7	n/a	SERVANT	1271	3	n/a	n/a	n/a	n/a	n/a	n/a
4172.774	n/a	RECOG_TARGET	2086387	n/a	LTP216	ltpFR	5	7	-1	CUSHION	428	5	-1	n/a	n/a	n/a	n/a	n/a
4174.456	n/a	RECOG_RESP	2087228	n/a	LTP216	ltpFR	5	7	-1	CUSHION	428	n/a	-1	n/a	n/a	n/a	n/a	n/a
4176.702	n/a	RECOG_CONF	2088351	n/a	LTP216	ltpFR	5	7	-1	CUSHION	428	5	-1	n/a	n/a	n/a	n/a	n/a
4178.704	n/a	RECOG_TARGET	2089352	n/a	LTP216	ltpFR	5	7	-1	GARBAGE	622	4	-1	n/a	n/a	n/a	n/a	n/a
4181.432	n/a	RECOG_RESP	2090716	n/a	LTP216	ltpFR	5	7	-1	GARBAGE	622	n/a	-1	n/a	n/a	n/a	n/a	n/a
4183.926	n/a	RECOG_CONF	2091963	n/a	LTP216	ltpFR	5	7	-1	GARBAGE	622	4	-1	n/a	n/a	n/a	n/a	n/a
4186.264	n/a	RECOG_TARGET	2093132	n/a	LTP216	ltpFR	5	7	1	STEW	1380	5	0	n/a	n/a	n/a	n/a	n/a
4187.672	n/a	RECOG_RESP	2093836	n/a	LTP216	ltpFR	5	7	1	STEW	1380	n/a	0	n/a	n/a	n/a	n/a	n/a
4190.51	n/a	RECOG_CONF	2095255	n/a	LTP216	ltpFR	5	7	1	STEW	1380	5	0	n/a	n/a	n/a	n/a	n/a
4193.224	n/a	RECOG_TARGET	2096612	n/a	LTP216	ltpFR	5	7	1	SLEEVE	1324	1	0	n/a	n/a	n/a	n/a	n/a
4197.56	n/a	RECOG_RESP	2098780	n/a	LTP216	ltpFR	5	7	1	SLEEVE	1324	n/a	0	n/a	n/a	n/a	n/a	n/a
4199.71	n/a	RECOG_CONF	2099855	n/a	LTP216	ltpFR	5	7	1	SLEEVE	1324	1	0	n/a	n/a	n/a	n/a	n/a
4201.734	n/a	RECOG_LURE	2100867	n/a	LTP216	ltpFR	5	7	n/a	VILLAIN	1567	3	n/a	n/a	n/a	n/a	n/a	n/a
4204.78	n/a	RECOG_RESP	2102390	n/a	LTP216	ltpFR	5	7	n/a	VILLAIN	1567	n/a	n/a	n/a	n/a	n/a	n/a	n/a
4207.504	n/a	RECOG_CONF	2103752	n/a	LTP216	ltpFR	5	7	n/a	VILLAIN	1567	3	n/a	n/a	n/a	n/a	n/a	n/a
4209.604	n/a	RECOG_TARGET	2104802	n/a	LTP216	ltpFR	5	7	0	FOE	587	5	1	n/a	n/a	n/a	n/a	n/a
4211.264	n/a	RECOG_RESP	2105632	n/a	LTP216	ltpFR	5	7	0	FOE	587	n/a	1	n/a	n/a	n/a	n/a	n/a
4213.92	n/a	RECOG_CONF	2106960	n/a	LTP216	ltpFR	5	7	0	FOE	587	5	1	n/a	n/a	n/a	n/a	n/a
4216.306	n/a	RECOG_LURE	2108153	n/a	LTP216	ltpFR	5	7	n/a	GOOSE	649	2	n/a	n/a	n/a	n/a	n/a	n/a
4218.688	n/a	RECOG_RESP	2109344	n/a	LTP216	ltpFR	5	7	n/a	GOOSE	649	n/a	n/a	n/a	n/a	n/a	n/a	n/a
4221.214	n/a	RECOG_CONF	2110607	n/a	LTP216	ltpFR	5	7	n/a	GOOSE	649	2	n/a	n/a	n/a	n/a	n/a	n/a
4223.416	n/a	RECOG_TARGET	2111708	n/a	LTP216	ltpFR	5	7	1	SUMMIT	1405	4	0	n/a	n/a	n/a	n/a	n/a
4224.97	n/a	RECOG_RESP	2112485	n/a	LTP216	ltpFR	5	7	1	SUMMIT	1405	n/a	0	n/a	n/a	n/a	n/a	n/a
4227.778	n/a	RECOG_CONF	2113889	n/a	LTP216	ltpFR	5	7	1	SUMMIT	1405	4	0	n/a	n/a	n/a	n/a	n/a
4229.866	n/a	RECOG_LURE	2114933	n/a	LTP216	ltpFR	5	7	n/a	CASTLE	256	2	n/a	n/a	n/a	n/a	n/a	n/a
4233.916	n/a	RECOG_RESP	2116958	n/a	LTP216	ltpFR	5	7	n/a	CASTLE	256	n/a	n/a	n/a	n/a	n/a	n/a	n/a
4236.22	n/a	RECOG_CONF	2118110	n/a	LTP216	ltpFR	5	7	n/a	CASTLE	256	2	n/a	n/a	n/a	n/a	n/a	n/a
4238.492	n/a	RECOG_LURE	2119246	n/a	LTP216	ltpFR	5	7	n/a	HERO	706	1	n/a	n/a	n/a	n/a	n/a	n/a
4244.626	n/a	RECOG_RESP	2122313	n/a	LTP216	ltpFR	5	7	n/a	HERO	706	n/a	n/a	n/a	n/a	n/a	n/a	n/a
4246.884	n/a	RECOG_CONF	2123442	n/a	LTP216	ltpFR	5	7	n/a	HERO	706	1	n/a	n/a	n/a	n/a	n/a	n/a
4249.406	n/a	RECOG_LURE	2124703	n/a	LTP216	ltpFR	5	7	n/a	ASTEROID	50	1	n/a	n/a	n/a	n/a	n/a	n/a
4255.646	n/a	RECOG_RESP	2127823	n/a	LTP216	ltpFR	5	7	n/a	ASTEROID	50	n/a	n/a	n/a	n/a	n/a	n/a	n/a
4257.882	n/a	RECOG_CONF	2128941	n/a	LTP216	ltpFR	5	7	n/a	ASTEROID	50	1	n/a	n/a	n/a	n/a	n/a	n/a
4260.66	n/a	RECOG_TARGET	2130330	n/a	LTP216	ltpFR	5	7	1	HAND	683	3	0	n/a	n/a	n/a	n/a	n/a
4264.138	n/a	RECOG_RESP	2132069	n/a	LTP216	ltpFR	5	7	1	HAND	683	n/a	0	n/a	n/a	n/a	n/a	n/a
4266.392	n/a	RECOG_CONF	2133196	n/a	LTP216	ltpFR	5	7	1	HAND	683	3	0	n/a	n/a	n/a	n/a	n/a
4268.624	n/a	RECOG_TARGET	2134312	n/a	LTP216	ltpFR	5	7	1	QUILT	1151	4	0	n/a	n/a	n/a	n/a	n/a
4270.078	n/a	RECOG_RESP	2135039	n/a	LTP216	ltpFR	5	7	1	QUILT	1151	n/a	0	n/a	n/a	n/a	n/a	n/a
4272.56	n/a	RECOG_CONF	2136280	n/a	LTP216	ltpFR	5	7	1	QUILT	1151	4	0	n/a	n/a	n/a	n/a	n/a
4274.536	n/a	RECOG_LURE	2137268	n/a	LTP216	ltpFR	5	7	n/a	SPOON	1357	2	n/a	n/a	n/a	n/a	n/a	n/a
4276.44	n/a	RECOG_RESP	2138220	n/a	LTP216	ltpFR	5	7	n/a	SPOON	1357	n/a	n/a	n/a	n/a	n/a	n/a	n/a
4279.134	n/a	RECOG_CONF	2139567	n/a	LTP216	ltpFR	5	7	n/a	SPOON	1357	2	n/a	n/a	n/a	n/a	n/a	n/a
4281.22	n/a	RECOG_TARGET	2140610	n/a	LTP216	ltpFR	5	7	1	DOCUMENT	479	5	0	n/a	n/a	n/a	n/a	n/a
4282.626	n/a	RECOG_RESP	2141313	n/a	LTP216	ltpFR	5	7	1	DOCUMENT	479	n/a	0	n/a	n/a	n/a	n/a	n/a
4285.28	n/a	RECOG_CONF	2142640	n/a	LTP216	ltpFR	5	7	1	DOCUMENT	479	5	0	n/a	n/a	n/a	n/a	n/a
4287.41	n/a	RECOG_LURE	2143705	n/a	LTP216	ltpFR	5	7	n/a	EDITORIAL	517	3	n/a	n/a	n/a	n/a	n/a	n/a
4290.564	n/a	RECOG_RESP	2145282	n/a	LTP216	ltpFR	5	7	n/a	EDITORIAL	517	n/a	n/a	n/a	n/a	n/a	n/a	n/a
4293.114	n/a	RECOG_CONF	2146557	n/a	LTP216	ltpFR	5	7	n/a	EDITORIAL	517	3	n/a	n/a	n/a	n/a	n/a	n/a
4295.192	n/a	RECOG_LURE	2147596	n/a	LTP216	ltpFR	5	7	n/a	FROST	609	2	n/a	n/a	n/a	n/a	n/a	n/a
4296.57	n/a	RECOG_RESP	2148285	n/a	LTP216	ltpFR	5	7	n/a	FROST	609	n/a	n/a	n/a	n/a	n/a	n/a	n/a
4299.43	n/a	RECOG_CONF	2149715	n/a	LTP216	ltpFR	5	7	n/a	FROST	609	2	n/a	n/a	n/a	n/a	n/a	n/a
4301.606	n/a	RECOG_LURE	2150803	n/a	LTP216	ltpFR	5	7	n/a	SACK	1220	2	n/a	n/a	n/a	n/a	n/a	n/a
4303.994	n/a	RECOG_RESP	2151997	n/a	LTP216	ltpFR	5	7	n/a	SACK	1220	n/a	n/a	n/a	n/a	n/a	n/a	n/a
4306.642	n/a	RECOG_CONF	2153321	n/a	LTP216	ltpFR	5	7	n/a	SACK	1220	2	n/a	n/a	n/a	n/a	n/a	n/a
4322.986	n/a	REC_START	2161493	n/a	LTP216	ltpFR	5	8	n/a	n/a	n/a	n/a	n/a	n/a	n/a	n/a	n/a	n/a
4323.038	n/a	RECOG_LURE	2161519	n/a	LTP216	ltpFR	5	8	n/a	BRUISE	180	3	n/a	n/a	n/a	n/a	n/a	n/a
4325.948	n/a	RECOG_RESP	2162974	n/a	LTP216	ltpFR	5	8	n/a	BRUISE	180	n/a	n/a	n/a	n/a	n/a	n/a	n/a
4329.208	n/a	RECOG_CONF	2164604	n/a	LTP216	ltpFR	5	8	n/a	BRUISE	180	3	n/a	n/a	n/a	n/a	n/a	n/a
