onset	duration	trial_type	sample	stim_file	subject	experiment	session	trial	item_name	item_num	list	answer	test_x	test_y	test_z
218.24169921875	n/a	SESS_START	446959	n/a	LTP349	ltpFR2	10	n/a	n/a	n/a	n/a	n/a	0	0	0
238.05126953125	n/a	START	487529	n/a	LTP349	ltpFR2	10	n/a	n/a	n/a	-1	n/a	n/a	n/a	n/a
238.08154296875	n/a	PROB	487591	n/a	LTP349	ltpFR2	10	n/a	n/a	n/a	-1	13	2	9	2
240.68017578125	n/a	PROB	492913	n/a	LTP349	ltpFR2	10	n/a	n/a	n/a	-1	17	6	2	9
242.5791015625	n/a	PROB	496802	n/a	LTP349	ltpFR2	10	n/a	n/a	n/a	-1	17	8	8	1
243.9951171875	n/a	PROB	499702	n/a	LTP349	ltpFR2	10	n/a	n/a	n/a	-1	16	4	7	5
246.494140625	n/a	PROB	504820	n/a	LTP349	ltpFR2	10	n/a	n/a	n/a	-1	8	1	3	4
247.76025390625	n/a	PROB	507413	n/a	LTP349	ltpFR2	10	n/a	n/a	n/a	-1	9	7	1	1
248.97900390625	n/a	STOP	509909	n/a	LTP349	ltpFR2	10	n/a	n/a	n/a	-1	n/a	n/a	n/a	n/a
294.03759765625	n/a	WORD	602189	wordpools/wasnorm_wordpool_576.txt	LTP349	ltpFR2	10	1	FRAGRANCE	599	n/a	n/a	0	0	0
296.75390625	n/a	WORD	607752	wordpools/wasnorm_wordpool_576.txt	LTP349	ltpFR2	10	1	COUNTY	389	n/a	n/a	0	0	0
299.58544921875	n/a	WORD	613551	wordpools/wasnorm_wordpool_576.txt	LTP349	ltpFR2	10	1	BROTHER	179	n/a	n/a	0	0	0
302.1845703125	n/a	WORD	618874	wordpools/wasnorm_wordpool_576.txt	LTP349	ltpFR2	10	1	PARENT	1013	n/a	n/a	0	0	0
304.6826171875	n/a	WORD	623990	wordpools/wasnorm_wordpool_576.txt	LTP349	ltpFR2	10	1	GROUND	666	n/a	n/a	0	0	0
307.49853515625	n/a	WORD	629757	wordpools/wasnorm_wordpool_576.txt	LTP349	ltpFR2	10	1	FIDDLE	561	n/a	n/a	0	0	0
310.01318359375	n/a	WORD	634907	wordpools/wasnorm_wordpool_576.txt	LTP349	ltpFR2	10	1	COOKBOOK	373	n/a	n/a	0	0	0
312.51220703125	n/a	WORD	640025	wordpools/wasnorm_wordpool_576.txt	LTP349	ltpFR2	10	1	HOOD	714	n/a	n/a	0	0	0
314.9443359375	n/a	WORD	645006	wordpools/wasnorm_wordpool_576.txt	LTP349	ltpFR2	10	1	TEACHER	1440	n/a	n/a	0	0	0
317.6103515625	n/a	WORD	650466	wordpools/wasnorm_wordpool_576.txt	LTP349	ltpFR2	10	1	STUDENT	1395	n/a	n/a	0	0	0
320.0751953125	n/a	WORD	655514	wordpools/wasnorm_wordpool_576.txt	LTP349	ltpFR2	10	1	PAIL	1002	n/a	n/a	0	0	0
322.7412109375	n/a	WORD	660974	wordpools/wasnorm_wordpool_576.txt	LTP349	ltpFR2	10	1	DRESS	495	n/a	n/a	0	0	0
325.55615234375	n/a	WORD	666739	wordpools/wasnorm_wordpool_576.txt	LTP349	ltpFR2	10	1	FUNGUS	614	n/a	n/a	0	0	0
328.123046875	n/a	WORD	671996	wordpools/wasnorm_wordpool_576.txt	LTP349	ltpFR2	10	1	CABBAGE	210	n/a	n/a	0	0	0
330.720703125	n/a	WORD	677316	wordpools/wasnorm_wordpool_576.txt	LTP349	ltpFR2	10	1	NECKLACE	940	n/a	n/a	0	0	0
333.2197265625	n/a	WORD	682434	wordpools/wasnorm_wordpool_576.txt	LTP349	ltpFR2	10	1	XEROX	1628	n/a	n/a	0	0	0
335.8017578125	n/a	WORD	687722	wordpools/wasnorm_wordpool_576.txt	LTP349	ltpFR2	10	1	BOX	159	n/a	n/a	0	0	0
338.58349609375	n/a	WORD	693419	wordpools/wasnorm_wordpool_576.txt	LTP349	ltpFR2	10	1	JAPAN	749	n/a	n/a	0	0	0
341.08251953125	n/a	WORD	698537	wordpools/wasnorm_wordpool_576.txt	LTP349	ltpFR2	10	1	PRINCESS	1125	n/a	n/a	0	0	0
343.7802734375	n/a	WORD	704062	wordpools/wasnorm_wordpool_576.txt	LTP349	ltpFR2	10	1	BANK	83	n/a	n/a	0	0	0
346.5625	n/a	WORD	709760	wordpools/wasnorm_wordpool_576.txt	LTP349	ltpFR2	10	1	SWAMP	1416	n/a	n/a	0	0	0
349.078125	n/a	WORD	714912	wordpools/wasnorm_wordpool_576.txt	LTP349	ltpFR2	10	1	SKIRT	1319	n/a	n/a	0	0	0
351.67724609375	n/a	WORD	720235	wordpools/wasnorm_wordpool_576.txt	LTP349	ltpFR2	10	1	PALACE	1006	n/a	n/a	0	0	0
354.1103515625	n/a	WORD	725218	wordpools/wasnorm_wordpool_576.txt	LTP349	ltpFR2	10	1	CROWN	415	n/a	n/a	0	0	0
355.72509765625	n/a	START	728525	n/a	LTP349	ltpFR2	10	n/a	n/a	n/a	1	n/a	n/a	n/a	n/a
356.67919921875	n/a	DISTRACTOR	730479	n/a	LTP349	ltpFR2	10	1	n/a	n/a	n/a	n/a	0	0	0
356.69091796875	n/a	PROB	730503	n/a	LTP349	ltpFR2	10	n/a	n/a	n/a	1	14	5	5	4
358.158203125	n/a	PROB	733508	n/a	LTP349	ltpFR2	10	n/a	n/a	n/a	1	12	2	7	3
359.64013671875	n/a	PROB	736543	n/a	LTP349	ltpFR2	10	n/a	n/a	n/a	1	22	4	9	8
362.27294921875	n/a	PROB	741935	n/a	LTP349	ltpFR2	10	n/a	n/a	n/a	1	11	1	3	7
363.87109375	n/a	PROB	745208	n/a	LTP349	ltpFR2	10	n/a	n/a	n/a	1	15	5	8	2
365.2548828125	n/a	PROB	748042	n/a	LTP349	ltpFR2	10	n/a	n/a	n/a	1	6	2	2	2
366.53662109375	n/a	PROB	750667	n/a	LTP349	ltpFR2	10	n/a	n/a	n/a	1	13	5	1	7
369.03564453125	n/a	PROB	755785	n/a	LTP349	ltpFR2	10	n/a	n/a	n/a	1	11	1	6	4
370.435546875	n/a	PROB	758652	n/a	LTP349	ltpFR2	10	n/a	n/a	n/a	1	16	6	6	4
372.58349609375	n/a	PROB	763051	n/a	LTP349	ltpFR2	10	n/a	n/a	n/a	1	9	6	2	1
374.0498046875	n/a	PROB	766054	n/a	LTP349	ltpFR2	10	n/a	n/a	n/a	1	13	3	3	7
376.83154296875	n/a	PROB	771751	n/a	LTP349	ltpFR2	10	n/a	n/a	n/a	1	15	2	4	9
379.30859375	n/a	STOP	776824	n/a	LTP349	ltpFR2	10	n/a	n/a	n/a	1	n/a	n/a	n/a	n/a
381.59619140625	n/a	REC_START	781509	n/a	LTP349	ltpFR2	10	1	n/a	n/a	n/a	n/a	0	0	0
383.59716796875	n/a	REC_WORD	785607	wordpools/wasnorm_wordpool_576.txt	LTP349	ltpFR2	10	1	SKIRT	1319	n/a	n/a	0	0	0
385.359375	n/a	REC_WORD	789216	wordpools/wasnorm_wordpool_576.txt	LTP349	ltpFR2	10	1	PALACE	1006	n/a	n/a	0	0	0
386.603515625	n/a	REC_WORD	791764	wordpools/wasnorm_wordpool_576.txt	LTP349	ltpFR2	10	1	PRINCESS	1125	n/a	n/a	0	0	0
387.7724609375	n/a	REC_WORD	794158	wordpools/wasnorm_wordpool_576.txt	LTP349	ltpFR2	10	1	SWAMP	1416	n/a	n/a	0	0	0
392.39208984375	n/a	REC_WORD	803619	wordpools/wasnorm_wordpool_576.txt	LTP349	ltpFR2	10	1	FRAGRANCE	599	n/a	n/a	0	0	0
393.92626953125	n/a	REC_WORD	806761	wordpools/wasnorm_wordpool_576.txt	LTP349	ltpFR2	10	1	COUNTY	389	n/a	n/a	0	0	0
395.3779296875	n/a	REC_WORD	809734	wordpools/wasnorm_wordpool_576.txt	LTP349	ltpFR2	10	1	JAPAN	749	n/a	n/a	0	0	0
397.30712890625	n/a	REC_WORD	813685	wordpools/wasnorm_wordpool_576.txt	LTP349	ltpFR2	10	1	BANK	83	n/a	n/a	0	0	0
402.47998046875	n/a	REC_WORD	824279	wordpools/wasnorm_wordpool_576.txt	LTP349	ltpFR2	10	1	PAIL	1002	n/a	n/a	0	0	0
403.9228515625	n/a	REC_WORD	827234	wordpools/wasnorm_wordpool_576.txt	LTP349	ltpFR2	10	1	CABBAGE	210	n/a	n/a	0	0	0
405.28564453125	n/a	REC_WORD	830025	wordpools/wasnorm_wordpool_576.txt	LTP349	ltpFR2	10	1	NECKLACE	940	n/a	n/a	0	0	0
407.1357421875	n/a	REC_WORD	833814	wordpools/wasnorm_wordpool_576.txt	LTP349	ltpFR2	10	1	PARENT	1013	n/a	n/a	0	0	0
408.57177734375	n/a	REC_WORD	836755	wordpools/wasnorm_wordpool_576.txt	LTP349	ltpFR2	10	1	BROTHER	179	n/a	n/a	0	0	0
409.82373046875	n/a	REC_WORD	839319	wordpools/wasnorm_wordpool_576.txt	LTP349	ltpFR2	10	1	HOOD	714	n/a	n/a	0	0	0
411.69482421875	n/a	REC_WORD	843151	wordpools/wasnorm_wordpool_576.txt	LTP349	ltpFR2	10	1	TEACHER	1440	n/a	n/a	0	0	0
412.78564453125	n/a	REC_WORD	845385	wordpools/wasnorm_wordpool_576.txt	LTP349	ltpFR2	10	1	STUDENT	1395	n/a	n/a	0	0	0
416.25146484375	n/a	REC_WORD	852483	wordpools/wasnorm_wordpool_576.txt	LTP349	ltpFR2	10	1	FRAGRANCE	599	n/a	n/a	0	0	0
441.16162109375	n/a	REC_WORD	903499	wordpools/wasnorm_wordpool_576.txt	LTP349	ltpFR2	10	1	NECKLACE	940	n/a	n/a	0	0	0
451.25244140625	n/a	REC_WORD	924165	wordpools/wasnorm_wordpool_576.txt	LTP349	ltpFR2	10	1	COOKBOOK	373	n/a	n/a	0	0	0
472.0361328125	n/a	WORD	966730	wordpools/wasnorm_wordpool_576.txt	LTP349	ltpFR2	10	2	COMPASS	358	n/a	n/a	0	0	0
474.8349609375	n/a	WORD	972462	wordpools/wasnorm_wordpool_576.txt	LTP349	ltpFR2	10	2	SPOOL	1356	n/a	n/a	0	0	0
477.41796875	n/a	WORD	977752	wordpools/wasnorm_wordpool_576.txt	LTP349	ltpFR2	10	2	SHERIFF	1284	n/a	n/a	0	0	0
480.19970703125	n/a	WORD	983449	wordpools/wasnorm_wordpool_576.txt	LTP349	ltpFR2	10	2	EUROPE	541	n/a	n/a	0	0	0
482.8134765625	n/a	WORD	988802	wordpools/wasnorm_wordpool_576.txt	LTP349	ltpFR2	10	2	VENUS	1557	n/a	n/a	0	0	0
485.49560546875	n/a	WORD	994295	wordpools/wasnorm_wordpool_576.txt	LTP349	ltpFR2	10	2	OFFICE	972	n/a	n/a	0	0	0
487.978515625	n/a	WORD	999380	wordpools/wasnorm_wordpool_576.txt	LTP349	ltpFR2	10	2	BRIEFCASE	175	n/a	n/a	0	0	0
490.59326171875	n/a	WORD	1004735	wordpools/wasnorm_wordpool_576.txt	LTP349	ltpFR2	10	2	FRANCE	601	n/a	n/a	0	0	0
493.1103515625	n/a	WORD	1009890	wordpools/wasnorm_wordpool_576.txt	LTP349	ltpFR2	10	2	COUNTRY	388	n/a	n/a	0	0	0
495.658203125	n/a	WORD	1015108	wordpools/wasnorm_wordpool_576.txt	LTP349	ltpFR2	10	2	MISTER	901	n/a	n/a	0	0	0
498.20703125	n/a	WORD	1020328	wordpools/wasnorm_wordpool_576.txt	LTP349	ltpFR2	10	2	PRIMATE	1123	n/a	n/a	0	0	0
500.80517578125	n/a	WORD	1025649	wordpools/wasnorm_wordpool_576.txt	LTP349	ltpFR2	10	2	BARREL	91	n/a	n/a	0	0	0
503.38818359375	n/a	WORD	1030939	wordpools/wasnorm_wordpool_576.txt	LTP349	ltpFR2	10	2	CHEST	295	n/a	n/a	0	0	0
506.0361328125	n/a	WORD	1036362	wordpools/wasnorm_wordpool_576.txt	LTP349	ltpFR2	10	2	WHISTLE	1606	n/a	n/a	0	0	0
508.8349609375	n/a	WORD	1042094	wordpools/wasnorm_wordpool_576.txt	LTP349	ltpFR2	10	2	GALLON	618	n/a	n/a	0	0	0
511.35107421875	n/a	WORD	1047247	wordpools/wasnorm_wordpool_576.txt	LTP349	ltpFR2	10	2	APPLE	33	n/a	n/a	0	0	0
514.048828125	n/a	WORD	1052772	wordpools/wasnorm_wordpool_576.txt	LTP349	ltpFR2	10	2	SHOVEL	1295	n/a	n/a	0	0	0
516.7646484375	n/a	WORD	1058334	wordpools/wasnorm_wordpool_576.txt	LTP349	ltpFR2	10	2	PATROL	1027	n/a	n/a	0	0	0
519.28076171875	n/a	WORD	1063487	wordpools/wasnorm_wordpool_576.txt	LTP349	ltpFR2	10	2	SCOTCH	1251	n/a	n/a	0	0	0
522.0966796875	n/a	WORD	1069254	wordpools/wasnorm_wordpool_576.txt	LTP349	ltpFR2	10	2	BRANDY	169	n/a	n/a	0	0	0
524.59375	n/a	WORD	1074368	wordpools/wasnorm_wordpool_576.txt	LTP349	ltpFR2	10	2	BUCKET	184	n/a	n/a	0	0	0
527.04248046875	n/a	WORD	1079383	wordpools/wasnorm_wordpool_576.txt	LTP349	ltpFR2	10	2	VIRUS	1572	n/a	n/a	0	0	0
529.75830078125	n/a	WORD	1084945	wordpools/wasnorm_wordpool_576.txt	LTP349	ltpFR2	10	2	CLOCK	325	n/a	n/a	0	0	0
532.490234375	n/a	WORD	1090540	wordpools/wasnorm_wordpool_576.txt	LTP349	ltpFR2	10	2	LAVA	804	n/a	n/a	0	0	0
534.107421875	n/a	START	1093852	n/a	LTP349	ltpFR2	10	n/a	n/a	n/a	2	n/a	n/a	n/a	n/a
535.0830078125	n/a	DISTRACTOR	1095850	n/a	LTP349	ltpFR2	10	2	n/a	n/a	n/a	n/a	0	0	0
535.08935546875	n/a	PROB	1095863	n/a	LTP349	ltpFR2	10	n/a	n/a	n/a	2	20	7	9	2
537.75439453125	n/a	PROB	1101321	n/a	LTP349	ltpFR2	10	n/a	n/a	n/a	2	17	5	9	3
540.0859375	n/a	PROB	1106096	n/a	LTP349	ltpFR2	10	n/a	n/a	n/a	2	18	9	3	6
542.1201171875	n/a	PROB	1110262	n/a	LTP349	ltpFR2	10	n/a	n/a	n/a	2	14	4	7	3
543.63525390625	n/a	PROB	1113365	n/a	LTP349	ltpFR2	10	n/a	n/a	n/a	2	15	7	3	5
545.10205078125	n/a	PROB	1116369	n/a	LTP349	ltpFR2	10	n/a	n/a	n/a	2	6	1	3	2
546.8828125	n/a	PROB	1120016	n/a	LTP349	ltpFR2	10	n/a	n/a	n/a	2	15	5	8	2
548.76611328125	n/a	PROB	1123873	n/a	LTP349	ltpFR2	10	n/a	n/a	n/a	2	22	5	9	8
551.11572265625	n/a	PROB	1128685	n/a	LTP349	ltpFR2	10	n/a	n/a	n/a	2	13	7	6	2
554.16357421875	n/a	PROB	1134927	n/a	LTP349	ltpFR2	10	n/a	n/a	n/a	2	14	6	6	2
558.09375	n/a	STOP	1142976	n/a	LTP349	ltpFR2	10	n/a	n/a	n/a	2	n/a	n/a	n/a	n/a
559.91064453125	n/a	REC_START	1146697	n/a	LTP349	ltpFR2	10	2	n/a	n/a	n/a	n/a	0	0	0
568.01123046875	n/a	REC_WORD	1163287	wordpools/wasnorm_wordpool_576.txt	LTP349	ltpFR2	10	2	FRANCE	601	n/a	n/a	0	0	0
569.5361328125	n/a	REC_WORD	1166410	wordpools/wasnorm_wordpool_576.txt	LTP349	ltpFR2	10	2	COUNTRY	388	n/a	n/a	0	0	0
571.029296875	n/a	REC_WORD	1169468	wordpools/wasnorm_wordpool_576.txt	LTP349	ltpFR2	10	2	EUROPE	541	n/a	n/a	0	0	0
573.96728515625	n/a	REC_WORD	1175485	wordpools/wasnorm_wordpool_576.txt	LTP349	ltpFR2	10	2	VENUS	1557	n/a	n/a	0	0	0
585.91162109375	n/a	REC_WORD	1199947	wordpools/wasnorm_wordpool_576.txt	LTP349	ltpFR2	10	2	BRIEFCASE	175	n/a	n/a	0	0	0
587.3349609375	n/a	REC_WORD	1202862	wordpools/wasnorm_wordpool_576.txt	LTP349	ltpFR2	10	2	OFFICE	972	n/a	n/a	0	0	0
623.681640625	n/a	REC_WORD	1277300	wordpools/wasnorm_wordpool_576.txt	LTP349	ltpFR2	10	2	BARREL	91	n/a	n/a	0	0	0
625.37158203125	n/a	REC_WORD	1280761	wordpools/wasnorm_wordpool_576.txt	LTP349	ltpFR2	10	2	CHEST	295	n/a	n/a	0	0	0
650.35107421875	n/a	DISTRACTOR	1331919	n/a	LTP349	ltpFR2	10	3	n/a	n/a	n/a	n/a	0	0	0
650.35107421875	n/a	START	1331919	n/a	LTP349	ltpFR2	10	n/a	n/a	n/a	3	n/a	n/a	n/a	n/a
650.3681640625	n/a	PROB	1331954	n/a	LTP349	ltpFR2	10	n/a	n/a	n/a	3	9	4	3	2
652.21728515625	n/a	PROB	1335741	n/a	LTP349	ltpFR2	10	n/a	n/a	n/a	3	18	1	8	8
653.84814453125	n/a	PROB	1339081	n/a	LTP349	ltpFR2	10	n/a	n/a	n/a	3	9	1	6	2
656.7470703125	n/a	PROB	1345018	n/a	LTP349	ltpFR2	10	n/a	n/a	n/a	3	19	3	9	7
659.2138671875	n/a	PROB	1350070	n/a	LTP349	ltpFR2	10	n/a	n/a	n/a	3	16	2	8	6
660.81201171875	n/a	PROB	1353343	n/a	LTP349	ltpFR2	10	n/a	n/a	n/a	3	11	2	4	5
662.7275390625	n/a	PROB	1357266	n/a	LTP349	ltpFR2	10	n/a	n/a	n/a	3	20	9	7	4
665.41064453125	n/a	PROB	1362761	n/a	LTP349	ltpFR2	10	n/a	n/a	n/a	3	11	1	5	5
666.55859375	n/a	PROB	1365112	n/a	LTP349	ltpFR2	10	n/a	n/a	n/a	3	13	9	3	1
668.49169921875	n/a	PROB	1369071	n/a	LTP349	ltpFR2	10	n/a	n/a	n/a	3	9	1	2	6
670.07373046875	n/a	PROB	1372311	n/a	LTP349	ltpFR2	10	n/a	n/a	n/a	3	18	3	9	6
672.0234375	n/a	PROB	1376304	n/a	LTP349	ltpFR2	10	n/a	n/a	n/a	3	18	5	6	7
674.03759765625	n/a	STOP	1380429	n/a	LTP349	ltpFR2	10	n/a	n/a	n/a	3	n/a	n/a	n/a	n/a
675.53857421875	n/a	WORD	1383503	wordpools/wasnorm_wordpool_576.txt	LTP349	ltpFR2	10	3	WHISKERS	1605	n/a	n/a	0	0	0
678.287109375	n/a	WORD	1389132	wordpools/wasnorm_wordpool_576.txt	LTP349	ltpFR2	10	3	WINDOW	1611	n/a	n/a	0	0	0
680.76904296875	n/a	WORD	1394215	wordpools/wasnorm_wordpool_576.txt	LTP349	ltpFR2	10	3	CURTAIN	427	n/a	n/a	0	0	0
683.3193359375	n/a	WORD	1399438	wordpools/wasnorm_wordpool_576.txt	LTP349	ltpFR2	10	3	FIREPLACE	570	n/a	n/a	0	0	0
686.13427734375	n/a	WORD	1405203	wordpools/wasnorm_wordpool_576.txt	LTP349	ltpFR2	10	3	HUSBAND	728	n/a	n/a	0	0	0
688.865234375	n/a	WORD	1410796	wordpools/wasnorm_wordpool_576.txt	LTP349	ltpFR2	10	3	ANTLER	29	n/a	n/a	0	0	0
691.4638671875	n/a	WORD	1416118	wordpools/wasnorm_wordpool_576.txt	LTP349	ltpFR2	10	3	FOREST	593	n/a	n/a	0	0	0
694.0126953125	n/a	WORD	1421338	wordpools/wasnorm_wordpool_576.txt	LTP349	ltpFR2	10	3	BANJO	82	n/a	n/a	0	0	0
696.64501953125	n/a	WORD	1426729	wordpools/wasnorm_wordpool_576.txt	LTP349	ltpFR2	10	3	ROD	1203	n/a	n/a	0	0	0
699.07666015625	n/a	WORD	1431709	wordpools/wasnorm_wordpool_576.txt	LTP349	ltpFR2	10	3	GRIZZLY	662	n/a	n/a	0	0	0
701.5927734375	n/a	WORD	1436862	wordpools/wasnorm_wordpool_576.txt	LTP349	ltpFR2	10	3	SPOUSE	1358	n/a	n/a	0	0	0
704.3916015625	n/a	WORD	1442594	wordpools/wasnorm_wordpool_576.txt	LTP349	ltpFR2	10	3	DENIM	446	n/a	n/a	0	0	0
707.056640625	n/a	WORD	1448052	wordpools/wasnorm_wordpool_576.txt	LTP349	ltpFR2	10	3	RATTLE	1170	n/a	n/a	0	0	0
709.8212890625	n/a	WORD	1453714	wordpools/wasnorm_wordpool_576.txt	LTP349	ltpFR2	10	3	INFANT	737	n/a	n/a	0	0	0
712.3544921875	n/a	WORD	1458902	wordpools/wasnorm_wordpool_576.txt	LTP349	ltpFR2	10	3	SALAD	1224	n/a	n/a	0	0	0
715.103515625	n/a	WORD	1464532	wordpools/wasnorm_wordpool_576.txt	LTP349	ltpFR2	10	3	CABIN	211	n/a	n/a	0	0	0
717.8173828125	n/a	WORD	1470090	wordpools/wasnorm_wordpool_576.txt	LTP349	ltpFR2	10	3	HONEY	713	n/a	n/a	0	0	0
720.51611328125	n/a	WORD	1475617	wordpools/wasnorm_wordpool_576.txt	LTP349	ltpFR2	10	3	MARKER	870	n/a	n/a	0	0	0
723.2490234375	n/a	WORD	1481214	wordpools/wasnorm_wordpool_576.txt	LTP349	ltpFR2	10	3	LAKE	796	n/a	n/a	0	0	0
725.76416015625	n/a	WORD	1486365	wordpools/wasnorm_wordpool_576.txt	LTP349	ltpFR2	10	3	FINGER	567	n/a	n/a	0	0	0
728.4140625	n/a	WORD	1491792	wordpools/wasnorm_wordpool_576.txt	LTP349	ltpFR2	10	3	ULCER	1533	n/a	n/a	0	0	0
730.912109375	n/a	WORD	1496908	wordpools/wasnorm_wordpool_576.txt	LTP349	ltpFR2	10	3	HEART	697	n/a	n/a	0	0	0
733.60986328125	n/a	WORD	1502433	wordpools/wasnorm_wordpool_576.txt	LTP349	ltpFR2	10	3	GARBAGE	622	n/a	n/a	0	0	0
736.392578125	n/a	WORD	1508132	wordpools/wasnorm_wordpool_576.txt	LTP349	ltpFR2	10	3	BOARD	143	n/a	n/a	0	0	0
738.0087890625	n/a	START	1511442	n/a	LTP349	ltpFR2	10	n/a	n/a	n/a	4	n/a	n/a	n/a	n/a
738.83984375	n/a	DISTRACTOR	1513144	n/a	LTP349	ltpFR2	10	3	n/a	n/a	n/a	n/a	0	0	0
738.8408203125	n/a	PROB	1513146	n/a	LTP349	ltpFR2	10	n/a	n/a	n/a	4	13	6	3	4
741.20751953125	n/a	PROB	1517993	n/a	LTP349	ltpFR2	10	n/a	n/a	n/a	4	13	2	9	2
743.57275390625	n/a	PROB	1522837	n/a	LTP349	ltpFR2	10	n/a	n/a	n/a	4	11	1	9	1
744.9716796875	n/a	PROB	1525702	n/a	LTP349	ltpFR2	10	n/a	n/a	n/a	4	10	4	2	4
746.53759765625	n/a	PROB	1528909	n/a	LTP349	ltpFR2	10	n/a	n/a	n/a	4	13	1	3	9
748.3544921875	n/a	PROB	1532630	n/a	LTP349	ltpFR2	10	n/a	n/a	n/a	4	14	5	8	1
750.38623046875	n/a	PROB	1536791	n/a	LTP349	ltpFR2	10	n/a	n/a	n/a	4	18	1	9	8
751.9345703125	n/a	PROB	1539962	n/a	LTP349	ltpFR2	10	n/a	n/a	n/a	4	14	3	4	7
753.650390625	n/a	PROB	1543476	n/a	LTP349	ltpFR2	10	n/a	n/a	n/a	4	14	7	2	5
755.26708984375	n/a	PROB	1546787	n/a	LTP349	ltpFR2	10	n/a	n/a	n/a	4	16	9	1	6
756.96533203125	n/a	PROB	1550265	n/a	LTP349	ltpFR2	10	n/a	n/a	n/a	4	15	6	1	8
759.64794921875	n/a	PROB	1555759	n/a	LTP349	ltpFR2	10	n/a	n/a	n/a	4	12	1	9	2
761.029296875	n/a	STOP	1558588	n/a	LTP349	ltpFR2	10	n/a	n/a	n/a	4	n/a	n/a	n/a	n/a
763.830078125	n/a	REC_START	1564324	n/a	LTP349	ltpFR2	10	3	n/a	n/a	n/a	n/a	0	0	0
765.77587890625	n/a	REC_WORD	1568309	wordpools/wasnorm_wordpool_576.txt	LTP349	ltpFR2	10	3	FINGER	567	n/a	n/a	0	0	0
767.7587890625	n/a	REC_WORD	1572370	wordpools/wasnorm_wordpool_576.txt	LTP349	ltpFR2	10	3	ROD	1203	n/a	n/a	0	0	0
775.21484375	n/a	REC_WORD	1587640	wordpools/wasnorm_wordpool_576.txt	LTP349	ltpFR2	10	3	WHISKERS	1605	n/a	n/a	0	0	0
777.58251953125	n/a	REC_WORD	1592489	wordpools/wasnorm_wordpool_576.txt	LTP349	ltpFR2	10	3	WINDOW	1611	n/a	n/a	0	0	0
779.36083984375	n/a	REC_WORD	1596131	wordpools/wasnorm_wordpool_576.txt	LTP349	ltpFR2	10	3	CURTAIN	427	n/a	n/a	0	0	0
781.1083984375	n/a	REC_WORD	1599710	wordpools/wasnorm_wordpool_576.txt	LTP349	ltpFR2	10	3	SPOUSE	1358	n/a	n/a	0	0	0
793.67626953125	n/a	REC_WORD	1625449	wordpools/wasnorm_wordpool_576.txt	LTP349	ltpFR2	10	3	GRIZZLY	662	n/a	n/a	0	0	0
802.6728515625	n/a	REC_WORD	1643874	wordpools/wasnorm_wordpool_576.txt	LTP349	ltpFR2	10	3	FIREPLACE	570	n/a	n/a	0	0	0
804.2861328125	n/a	REC_WORD	1647178	wordpools/wasnorm_wordpool_576.txt	LTP349	ltpFR2	10	3	ANTLER	29	n/a	n/a	0	0	0
806.9697265625	n/a	REC_WORD_VV	1652674	wordpools/wasnorm_wordpool_576.txt	LTP349	ltpFR2	10	3	<>	-1	n/a	n/a	0	0	0
810.125	n/a	REC_WORD_VV	1659136	wordpools/wasnorm_wordpool_576.txt	LTP349	ltpFR2	10	3	<>	-1	n/a	n/a	0	0	0
812.04052734375	n/a	REC_WORD	1663059	wordpools/wasnorm_wordpool_576.txt	LTP349	ltpFR2	10	3	LAKE	796	n/a	n/a	0	0	0
831.92529296875	n/a	REC_WORD	1703783	wordpools/wasnorm_wordpool_576.txt	LTP349	ltpFR2	10	3	FOREST	593	n/a	n/a	0	0	0
854.25341796875	n/a	DISTRACTOR	1749511	n/a	LTP349	ltpFR2	10	4	n/a	n/a	n/a	n/a	0	0	0
854.25341796875	n/a	START	1749511	n/a	LTP349	ltpFR2	10	n/a	n/a	n/a	5	n/a	n/a	n/a	n/a
854.26953125	n/a	PROB	1749544	n/a	LTP349	ltpFR2	10	n/a	n/a	n/a	5	16	2	9	5
856.55126953125	n/a	PROB	1754217	n/a	LTP349	ltpFR2	10	n/a	n/a	n/a	5	21	7	5	9
859.94921875	n/a	PROB	1761176	n/a	LTP349	ltpFR2	10	n/a	n/a	n/a	5	13	3	5	5
861.46533203125	n/a	PROB	1764281	n/a	LTP349	ltpFR2	10	n/a	n/a	n/a	5	14	6	4	4
863.09912109375	n/a	PROB	1767627	n/a	LTP349	ltpFR2	10	n/a	n/a	n/a	5	21	8	4	9
865.1142578125	n/a	PROB	1771754	n/a	LTP349	ltpFR2	10	n/a	n/a	n/a	5	5	1	3	2
867.97900390625	n/a	PROB	1777621	n/a	LTP349	ltpFR2	10	n/a	n/a	n/a	5	13	4	5	4
870.34521484375	n/a	PROB	1782467	n/a	LTP349	ltpFR2	10	n/a	n/a	n/a	5	14	1	8	5
871.8271484375	n/a	PROB	1785502	n/a	LTP349	ltpFR2	10	n/a	n/a	n/a	5	19	7	4	8
874.31005859375	n/a	PROB	1790587	n/a	LTP349	ltpFR2	10	n/a	n/a	n/a	5	12	8	1	3
876.10986328125	n/a	PROB	1794273	n/a	LTP349	ltpFR2	10	n/a	n/a	n/a	5	10	4	5	1
878.22314453125	n/a	STOP	1798601	n/a	LTP349	ltpFR2	10	n/a	n/a	n/a	5	n/a	n/a	n/a	n/a
879.15771484375	n/a	WORD	1800515	wordpools/wasnorm_wordpool_576.txt	LTP349	ltpFR2	10	4	CLIMBER	323	n/a	n/a	0	0	0
881.73876953125	n/a	WORD	1805801	wordpools/wasnorm_wordpool_576.txt	LTP349	ltpFR2	10	4	TURTLE	1522	n/a	n/a	0	0	0
884.5048828125	n/a	WORD	1811466	wordpools/wasnorm_wordpool_576.txt	LTP349	ltpFR2	10	4	WITNESS	1618	n/a	n/a	0	0	0
887.2705078125	n/a	WORD	1817130	wordpools/wasnorm_wordpool_576.txt	LTP349	ltpFR2	10	4	TUNNEL	1519	n/a	n/a	0	0	0
889.9013671875	n/a	WORD	1822518	wordpools/wasnorm_wordpool_576.txt	LTP349	ltpFR2	10	4	TWISTER	1530	n/a	n/a	0	0	0
892.41845703125	n/a	WORD	1827673	wordpools/wasnorm_wordpool_576.txt	LTP349	ltpFR2	10	4	UNCLE	1536	n/a	n/a	0	0	0
894.8994140625	n/a	WORD	1832754	wordpools/wasnorm_wordpool_576.txt	LTP349	ltpFR2	10	4	SCRIBBLE	1256	n/a	n/a	0	0	0
897.3994140625	n/a	WORD	1837874	wordpools/wasnorm_wordpool_576.txt	LTP349	ltpFR2	10	4	REBEL	1172	n/a	n/a	0	0	0
899.98046875	n/a	WORD	1843160	wordpools/wasnorm_wordpool_576.txt	LTP349	ltpFR2	10	4	SUSPECT	1415	n/a	n/a	0	0	0
902.47900390625	n/a	WORD	1848277	wordpools/wasnorm_wordpool_576.txt	LTP349	ltpFR2	10	4	PASTRY	1022	n/a	n/a	0	0	0
905.0439453125	n/a	WORD	1853530	wordpools/wasnorm_wordpool_576.txt	LTP349	ltpFR2	10	4	MOTEL	919	n/a	n/a	0	0	0
907.66015625	n/a	WORD	1858888	wordpools/wasnorm_wordpool_576.txt	LTP349	ltpFR2	10	4	DORM	488	n/a	n/a	0	0	0
910.47509765625	n/a	WORD	1864653	wordpools/wasnorm_wordpool_576.txt	LTP349	ltpFR2	10	4	SPONGE	1355	n/a	n/a	0	0	0
912.923828125	n/a	WORD	1869668	wordpools/wasnorm_wordpool_576.txt	LTP349	ltpFR2	10	4	LAGOON	795	n/a	n/a	0	0	0
915.48974609375	n/a	WORD	1874923	wordpools/wasnorm_wordpool_576.txt	LTP349	ltpFR2	10	4	ICING	732	n/a	n/a	0	0	0
918.22265625	n/a	WORD	1880520	wordpools/wasnorm_wordpool_576.txt	LTP349	ltpFR2	10	4	FEMALE	559	n/a	n/a	0	0	0
920.720703125	n/a	WORD	1885636	wordpools/wasnorm_wordpool_576.txt	LTP349	ltpFR2	10	4	POET	1095	n/a	n/a	0	0	0
923.48583984375	n/a	WORD	1891299	wordpools/wasnorm_wordpool_576.txt	LTP349	ltpFR2	10	4	KEEPER	769	n/a	n/a	0	0	0
926.21875	n/a	WORD	1896896	wordpools/wasnorm_wordpool_576.txt	LTP349	ltpFR2	10	4	LONDON	843	n/a	n/a	0	0	0
928.99951171875	n/a	WORD	1902591	wordpools/wasnorm_wordpool_576.txt	LTP349	ltpFR2	10	4	DRAGON	492	n/a	n/a	0	0	0
931.46533203125	n/a	WORD	1907641	wordpools/wasnorm_wordpool_576.txt	LTP349	ltpFR2	10	4	GRILL	661	n/a	n/a	0	0	0
934.16552734375	n/a	WORD	1913171	wordpools/wasnorm_wordpool_576.txt	LTP349	ltpFR2	10	4	CHURCH	307	n/a	n/a	0	0	0
936.71240234375	n/a	WORD	1918387	wordpools/wasnorm_wordpool_576.txt	LTP349	ltpFR2	10	4	LIVER	833	n/a	n/a	0	0	0
939.3291015625	n/a	WORD	1923746	wordpools/wasnorm_wordpool_576.txt	LTP349	ltpFR2	10	4	ROBBER	1197	n/a	n/a	0	0	0
940.9443359375	n/a	START	1927054	n/a	LTP349	ltpFR2	10	n/a	n/a	n/a	6	n/a	n/a	n/a	n/a
941.779296875	n/a	DISTRACTOR	1928764	n/a	LTP349	ltpFR2	10	4	n/a	n/a	n/a	n/a	0	0	0
941.79296875	n/a	PROB	1928792	n/a	LTP349	ltpFR2	10	n/a	n/a	n/a	6	8	4	1	3
943.4931640625	n/a	PROB	1932274	n/a	LTP349	ltpFR2	10	n/a	n/a	n/a	6	13	7	2	4
945.84228515625	n/a	PROB	1937085	n/a	LTP349	ltpFR2	10	n/a	n/a	n/a	6	20	5	9	6
948.07421875	n/a	PROB	1941656	n/a	LTP349	ltpFR2	10	n/a	n/a	n/a	6	23	7	9	7
950.505859375	n/a	PROB	1946636	n/a	LTP349	ltpFR2	10	n/a	n/a	n/a	6	17	7	8	2
952.35595703125	n/a	PROB	1950425	n/a	LTP349	ltpFR2	10	n/a	n/a	n/a	6	17	8	2	7
953.85498046875	n/a	PROB	1953495	n/a	LTP349	ltpFR2	10	n/a	n/a	n/a	6	24	9	6	7
956.78662109375	n/a	PROB	1959499	n/a	LTP349	ltpFR2	10	n/a	n/a	n/a	6	15	5	2	8
959.5517578125	n/a	PROB	1965162	n/a	LTP349	ltpFR2	10	n/a	n/a	n/a	6	13	5	3	5
961.05078125	n/a	PROB	1968232	n/a	LTP349	ltpFR2	10	n/a	n/a	n/a	6	17	5	8	4
963.50146484375	n/a	STOP	1973251	n/a	LTP349	ltpFR2	10	n/a	n/a	n/a	6	n/a	n/a	n/a	n/a
966.732421875	n/a	REC_START	1979868	n/a	LTP349	ltpFR2	10	4	n/a	n/a	n/a	n/a	0	0	0
971.96142578125	n/a	REC_WORD	1990577	wordpools/wasnorm_wordpool_576.txt	LTP349	ltpFR2	10	4	CHURCH	307	n/a	n/a	0	0	0
973.826171875	n/a	REC_WORD	1994396	wordpools/wasnorm_wordpool_576.txt	LTP349	ltpFR2	10	4	PASTRY	1022	n/a	n/a	0	0	0
975.1923828125	n/a	REC_WORD	1997194	wordpools/wasnorm_wordpool_576.txt	LTP349	ltpFR2	10	4	REBEL	1172	n/a	n/a	0	0	0
976.5234375	n/a	REC_WORD	1999920	wordpools/wasnorm_wordpool_576.txt	LTP349	ltpFR2	10	4	CLIMBER	323	n/a	n/a	0	0	0
977.865234375	n/a	REC_WORD	2002668	wordpools/wasnorm_wordpool_576.txt	LTP349	ltpFR2	10	4	TUNNEL	1519	n/a	n/a	0	0	0
979.0751953125	n/a	REC_WORD	2005146	wordpools/wasnorm_wordpool_576.txt	LTP349	ltpFR2	10	4	TURTLE	1522	n/a	n/a	0	0	0
980.7841796875	n/a	REC_WORD	2008646	wordpools/wasnorm_wordpool_576.txt	LTP349	ltpFR2	10	4	WITNESS	1618	n/a	n/a	0	0	0
982.00732421875	n/a	REC_WORD	2011151	wordpools/wasnorm_wordpool_576.txt	LTP349	ltpFR2	10	4	MOTEL	919	n/a	n/a	0	0	0
985.18310546875	n/a	REC_WORD	2017655	wordpools/wasnorm_wordpool_576.txt	LTP349	ltpFR2	10	4	KEEPER	769	n/a	n/a	0	0	0
986.8017578125	n/a	REC_WORD	2020970	wordpools/wasnorm_wordpool_576.txt	LTP349	ltpFR2	10	4	POET	1095	n/a	n/a	0	0	0
997.677734375	n/a	REC_WORD	2043244	wordpools/wasnorm_wordpool_576.txt	LTP349	ltpFR2	10	4	SPONGE	1355	n/a	n/a	0	0	0
999.54052734375	n/a	REC_WORD	2047059	wordpools/wasnorm_wordpool_576.txt	LTP349	ltpFR2	10	4	LAGOON	795	n/a	n/a	0	0	0
1000.54052734375	n/a	REC_WORD_VV	2049107	wordpools/wasnorm_wordpool_576.txt	LTP349	ltpFR2	10	4	<>	-1	n/a	n/a	0	0	0
1001.54052734375	n/a	REC_WORD_VV	2051155	wordpools/wasnorm_wordpool_576.txt	LTP349	ltpFR2	10	4	<>	-1	n/a	n/a	0	0	0
1057.18896484375	n/a	WORD	2165123	wordpools/wasnorm_wordpool_576.txt	LTP349	ltpFR2	10	5	TUBA	1515	n/a	n/a	0	0	0
1059.953125	n/a	WORD	2170784	wordpools/wasnorm_wordpool_576.txt	LTP349	ltpFR2	10	5	HARP	689	n/a	n/a	0	0	0
1062.60205078125	n/a	WORD	2176209	wordpools/wasnorm_wordpool_576.txt	LTP349	ltpFR2	10	5	BADGE	68	n/a	n/a	0	0	0
1065.10205078125	n/a	WORD	2181329	wordpools/wasnorm_wordpool_576.txt	LTP349	ltpFR2	10	5	PUPPY	1144	n/a	n/a	0	0	0
1067.6826171875	n/a	WORD	2186614	wordpools/wasnorm_wordpool_576.txt	LTP349	ltpFR2	10	5	IDOL	733	n/a	n/a	0	0	0
1070.19970703125	n/a	WORD	2191769	wordpools/wasnorm_wordpool_576.txt	LTP349	ltpFR2	10	5	ORCHID	982	n/a	n/a	0	0	0
1072.88037109375	n/a	WORD	2197259	wordpools/wasnorm_wordpool_576.txt	LTP349	ltpFR2	10	5	LUNCH	849	n/a	n/a	0	0	0
1075.5625	n/a	WORD	2202752	wordpools/wasnorm_wordpool_576.txt	LTP349	ltpFR2	10	5	APRON	35	n/a	n/a	0	0	0
1078.279296875	n/a	WORD	2208316	wordpools/wasnorm_wordpool_576.txt	LTP349	ltpFR2	10	5	OUTDOORS	987	n/a	n/a	0	0	0
1080.96044921875	n/a	WORD	2213807	wordpools/wasnorm_wordpool_576.txt	LTP349	ltpFR2	10	5	BEAST	108	n/a	n/a	0	0	0
1083.47509765625	n/a	WORD	2218957	wordpools/wasnorm_wordpool_576.txt	LTP349	ltpFR2	10	5	GUARD	667	n/a	n/a	0	0	0
1085.9912109375	n/a	WORD	2224110	wordpools/wasnorm_wordpool_576.txt	LTP349	ltpFR2	10	5	BANKER	84	n/a	n/a	0	0	0
1088.5400390625	n/a	WORD	2229330	wordpools/wasnorm_wordpool_576.txt	LTP349	ltpFR2	10	5	LUGGAGE	847	n/a	n/a	0	0	0
1091.0380859375	n/a	WORD	2234446	wordpools/wasnorm_wordpool_576.txt	LTP349	ltpFR2	10	5	TOURIST	1488	n/a	n/a	0	0	0
1093.75390625	n/a	WORD	2240008	wordpools/wasnorm_wordpool_576.txt	LTP349	ltpFR2	10	5	AGENT	10	n/a	n/a	0	0	0
1096.27001953125	n/a	WORD	2245161	wordpools/wasnorm_wordpool_576.txt	LTP349	ltpFR2	10	5	POSSUM	1112	n/a	n/a	0	0	0
1098.884765625	n/a	WORD	2250516	wordpools/wasnorm_wordpool_576.txt	LTP349	ltpFR2	10	5	STREAM	1392	n/a	n/a	0	0	0
1101.5498046875	n/a	WORD	2255974	wordpools/wasnorm_wordpool_576.txt	LTP349	ltpFR2	10	5	CANDY	230	n/a	n/a	0	0	0
1104.1328125	n/a	WORD	2261264	wordpools/wasnorm_wordpool_576.txt	LTP349	ltpFR2	10	5	TUTU	1524	n/a	n/a	0	0	0
1106.69775390625	n/a	WORD	2266517	wordpools/wasnorm_wordpool_576.txt	LTP349	ltpFR2	10	5	DINER	467	n/a	n/a	0	0	0
1109.46240234375	n/a	WORD	2272179	wordpools/wasnorm_wordpool_576.txt	LTP349	ltpFR2	10	5	JUDGE	761	n/a	n/a	0	0	0
1111.99560546875	n/a	WORD	2277367	wordpools/wasnorm_wordpool_576.txt	LTP349	ltpFR2	10	5	WOMAN	1620	n/a	n/a	0	0	0
1114.693359375	n/a	WORD	2282892	wordpools/wasnorm_wordpool_576.txt	LTP349	ltpFR2	10	5	HERO	706	n/a	n/a	0	0	0
1117.50927734375	n/a	WORD	2288659	wordpools/wasnorm_wordpool_576.txt	LTP349	ltpFR2	10	5	EXPERT	543	n/a	n/a	0	0	0
1119.12646484375	n/a	START	2291971	n/a	LTP349	ltpFR2	10	n/a	n/a	n/a	7	n/a	n/a	n/a	n/a
1120.16015625	n/a	DISTRACTOR	2294088	n/a	LTP349	ltpFR2	10	5	n/a	n/a	n/a	n/a	0	0	0
1120.17529296875	n/a	PROB	2294119	n/a	LTP349	ltpFR2	10	n/a	n/a	n/a	7	13	4	9	4
1123.357421875	n/a	PROB	2300636	n/a	LTP349	ltpFR2	10	n/a	n/a	n/a	7	21	4	8	9
1125.77197265625	n/a	PROB	2305581	n/a	LTP349	ltpFR2	10	n/a	n/a	n/a	7	17	6	4	7
1127.2890625	n/a	PROB	2308688	n/a	LTP349	ltpFR2	10	n/a	n/a	n/a	7	7	5	1	1
1128.77001953125	n/a	PROB	2311721	n/a	LTP349	ltpFR2	10	n/a	n/a	n/a	7	15	5	8	2
1130.40380859375	n/a	PROB	2315067	n/a	LTP349	ltpFR2	10	n/a	n/a	n/a	7	15	5	4	6
1132.23681640625	n/a	PROB	2318821	n/a	LTP349	ltpFR2	10	n/a	n/a	n/a	7	5	4	2	2
1134.05078125	n/a	PROB	2322536	n/a	LTP349	ltpFR2	10	n/a	n/a	n/a	7	8	1	4	3
1136.35107421875	n/a	PROB	2327247	n/a	LTP349	ltpFR2	10	n/a	n/a	n/a	7	17	8	8	1
1138.2666015625	n/a	PROB	2331170	n/a	LTP349	ltpFR2	10	n/a	n/a	n/a	7	8	5	1	2
1140.3330078125	n/a	PROB	2335402	n/a	LTP349	ltpFR2	10	n/a	n/a	n/a	7	9	2	6	1
1141.966796875	n/a	STOP	2338748	n/a	LTP349	ltpFR2	10	n/a	n/a	n/a	7	n/a	n/a	n/a	n/a
1144.91259765625	n/a	REC_START	2344781	n/a	LTP349	ltpFR2	10	5	n/a	n/a	n/a	n/a	0	0	0
1148.15966796875	n/a	REC_WORD	2351431	wordpools/wasnorm_wordpool_576.txt	LTP349	ltpFR2	10	5	LUGGAGE	847	n/a	n/a	0	0	0
1150.564453125	n/a	REC_WORD	2356356	wordpools/wasnorm_wordpool_576.txt	LTP349	ltpFR2	10	5	TOURIST	1488	n/a	n/a	0	0	0
1152.4443359375	n/a	REC_WORD	2360206	wordpools/wasnorm_wordpool_576.txt	LTP349	ltpFR2	10	5	TUBA	1515	n/a	n/a	0	0	0
1154.0205078125	n/a	REC_WORD	2363434	wordpools/wasnorm_wordpool_576.txt	LTP349	ltpFR2	10	5	HARP	689	n/a	n/a	0	0	0
1155.7314453125	n/a	REC_WORD	2366938	wordpools/wasnorm_wordpool_576.txt	LTP349	ltpFR2	10	5	LUNCH	849	n/a	n/a	0	0	0
1157.38232421875	n/a	REC_WORD	2370319	wordpools/wasnorm_wordpool_576.txt	LTP349	ltpFR2	10	5	APRON	35	n/a	n/a	0	0	0
1158.8994140625	n/a	REC_WORD	2373426	wordpools/wasnorm_wordpool_576.txt	LTP349	ltpFR2	10	5	PUPPY	1144	n/a	n/a	0	0	0
1160.494140625	n/a	REC_WORD	2376692	wordpools/wasnorm_wordpool_576.txt	LTP349	ltpFR2	10	5	IDOL	733	n/a	n/a	0	0	0
1163.7783203125	n/a	REC_WORD	2383418	wordpools/wasnorm_wordpool_576.txt	LTP349	ltpFR2	10	5	ORCHID	982	n/a	n/a	0	0	0
1235.35302734375	n/a	DISTRACTOR	2530003	n/a	LTP349	ltpFR2	10	6	n/a	n/a	n/a	n/a	0	0	0
1235.35400390625	n/a	START	2530005	n/a	LTP349	ltpFR2	10	n/a	n/a	n/a	8	n/a	n/a	n/a	n/a
1235.3701171875	n/a	PROB	2530038	n/a	LTP349	ltpFR2	10	n/a	n/a	n/a	8	15	8	3	4
1236.9521484375	n/a	PROB	2533278	n/a	LTP349	ltpFR2	10	n/a	n/a	n/a	8	11	4	1	6
1239.13525390625	n/a	PROB	2537749	n/a	LTP349	ltpFR2	10	n/a	n/a	n/a	8	9	1	1	7
1240.3681640625	n/a	PROB	2540274	n/a	LTP349	ltpFR2	10	n/a	n/a	n/a	8	21	9	5	7
1244.14892578125	n/a	PROB	2548017	n/a	LTP349	ltpFR2	10	n/a	n/a	n/a	8	19	5	8	6
1246.89697265625	n/a	PROB	2553645	n/a	LTP349	ltpFR2	10	n/a	n/a	n/a	8	12	8	1	3
1248.57958984375	n/a	PROB	2557091	n/a	LTP349	ltpFR2	10	n/a	n/a	n/a	8	12	6	3	3
1250.52880859375	n/a	PROB	2561083	n/a	LTP349	ltpFR2	10	n/a	n/a	n/a	8	14	5	2	7
1253.07861328125	n/a	PROB	2566305	n/a	LTP349	ltpFR2	10	n/a	n/a	n/a	8	19	8	9	2
1255.54248046875	n/a	PROB	2571351	n/a	LTP349	ltpFR2	10	n/a	n/a	n/a	8	10	3	2	5
1258.91162109375	n/a	STOP	2578251	n/a	LTP349	ltpFR2	10	n/a	n/a	n/a	8	n/a	n/a	n/a	n/a
1260.20849609375	n/a	WORD	2580907	wordpools/wasnorm_wordpool_576.txt	LTP349	ltpFR2	10	6	GLOBE	641	n/a	n/a	0	0	0
1263.0224609375	n/a	WORD	2586670	wordpools/wasnorm_wordpool_576.txt	LTP349	ltpFR2	10	6	ISLAND	745	n/a	n/a	0	0	0
1265.771484375	n/a	WORD	2592300	wordpools/wasnorm_wordpool_576.txt	LTP349	ltpFR2	10	6	PARTNER	1017	n/a	n/a	0	0	0
1268.271484375	n/a	WORD	2597420	wordpools/wasnorm_wordpool_576.txt	LTP349	ltpFR2	10	6	POPCORN	1104	n/a	n/a	0	0	0
1270.96923828125	n/a	WORD	2602945	wordpools/wasnorm_wordpool_576.txt	LTP349	ltpFR2	10	6	CHEMIST	292	n/a	n/a	0	0	0
1273.583984375	n/a	WORD	2608300	wordpools/wasnorm_wordpool_576.txt	LTP349	ltpFR2	10	6	DOLPHIN	483	n/a	n/a	0	0	0
1276.01611328125	n/a	WORD	2613281	wordpools/wasnorm_wordpool_576.txt	LTP349	ltpFR2	10	6	MISSILE	900	n/a	n/a	0	0	0
1278.81494140625	n/a	WORD	2619013	wordpools/wasnorm_wordpool_576.txt	LTP349	ltpFR2	10	6	MARKET	871	n/a	n/a	0	0	0
1281.56396484375	n/a	WORD	2624643	wordpools/wasnorm_wordpool_576.txt	LTP349	ltpFR2	10	6	TOMBSTONE	1478	n/a	n/a	0	0	0
1284.296875	n/a	WORD	2630240	wordpools/wasnorm_wordpool_576.txt	LTP349	ltpFR2	10	6	BALLOON	75	n/a	n/a	0	0	0
1287.07861328125	n/a	WORD	2635937	wordpools/wasnorm_wordpool_576.txt	LTP349	ltpFR2	10	6	OYSTER	995	n/a	n/a	0	0	0
1289.77685546875	n/a	WORD	2641463	wordpools/wasnorm_wordpool_576.txt	LTP349	ltpFR2	10	6	SISTER	1312	n/a	n/a	0	0	0
1292.27685546875	n/a	WORD	2646583	wordpools/wasnorm_wordpool_576.txt	LTP349	ltpFR2	10	6	DAUGHTER	442	n/a	n/a	0	0	0
1294.7578125	n/a	WORD	2651664	wordpools/wasnorm_wordpool_576.txt	LTP349	ltpFR2	10	6	STOMACH	1384	n/a	n/a	0	0	0
1297.29052734375	n/a	WORD	2656851	wordpools/wasnorm_wordpool_576.txt	LTP349	ltpFR2	10	6	BELLY	119	n/a	n/a	0	0	0
1300.00439453125	n/a	WORD	2662409	wordpools/wasnorm_wordpool_576.txt	LTP349	ltpFR2	10	6	CRITIC	410	n/a	n/a	0	0	0
1302.6875	n/a	WORD	2667904	wordpools/wasnorm_wordpool_576.txt	LTP349	ltpFR2	10	6	WARDROBE	1587	n/a	n/a	0	0	0
1305.17041015625	n/a	WORD	2672989	wordpools/wasnorm_wordpool_576.txt	LTP349	ltpFR2	10	6	COSTUME	383	n/a	n/a	0	0	0
1307.96826171875	n/a	WORD	2678719	wordpools/wasnorm_wordpool_576.txt	LTP349	ltpFR2	10	6	DRAWING	494	n/a	n/a	0	0	0
1310.4501953125	n/a	WORD	2683802	wordpools/wasnorm_wordpool_576.txt	LTP349	ltpFR2	10	6	SODA	1341	n/a	n/a	0	0	0
1313.13330078125	n/a	WORD	2689297	wordpools/wasnorm_wordpool_576.txt	LTP349	ltpFR2	10	6	LEG	809	n/a	n/a	0	0	0
1315.61376953125	n/a	WORD	2694377	wordpools/wasnorm_wordpool_576.txt	LTP349	ltpFR2	10	6	ATOM	55	n/a	n/a	0	0	0
1318.0458984375	n/a	WORD	2699358	wordpools/wasnorm_wordpool_576.txt	LTP349	ltpFR2	10	6	ACTRESS	6	n/a	n/a	0	0	0
1320.69482421875	n/a	WORD	2704783	wordpools/wasnorm_wordpool_576.txt	LTP349	ltpFR2	10	6	CANYON	235	n/a	n/a	0	0	0
1322.31201171875	n/a	START	2708095	n/a	LTP349	ltpFR2	10	n/a	n/a	n/a	9	n/a	n/a	n/a	n/a
1323.177734375	n/a	DISTRACTOR	2709868	n/a	LTP349	ltpFR2	10	6	n/a	n/a	n/a	n/a	0	0	0
1323.19482421875	n/a	PROB	2709903	n/a	LTP349	ltpFR2	10	n/a	n/a	n/a	9	8	3	4	1
1325.126953125	n/a	PROB	2713860	n/a	LTP349	ltpFR2	10	n/a	n/a	n/a	9	13	5	3	5
1326.74169921875	n/a	PROB	2717167	n/a	LTP349	ltpFR2	10	n/a	n/a	n/a	9	9	1	1	7
1327.9248046875	n/a	PROB	2719590	n/a	LTP349	ltpFR2	10	n/a	n/a	n/a	9	15	9	2	4
1329.65771484375	n/a	PROB	2723139	n/a	LTP349	ltpFR2	10	n/a	n/a	n/a	9	17	6	2	9
1331.939453125	n/a	PROB	2727812	n/a	LTP349	ltpFR2	10	n/a	n/a	n/a	9	11	3	2	6
1334.22265625	n/a	PROB	2732488	n/a	LTP349	ltpFR2	10	n/a	n/a	n/a	9	22	9	7	6
1337.17138671875	n/a	PROB	2738527	n/a	LTP349	ltpFR2	10	n/a	n/a	n/a	9	18	9	2	5
1339.28759765625	n/a	PROB	2742861	n/a	LTP349	ltpFR2	10	n/a	n/a	n/a	9	11	7	1	3
1341.568359375	n/a	PROB	2747532	n/a	LTP349	ltpFR2	10	n/a	n/a	n/a	9	9	5	1	3
1346.31103515625	n/a	STOP	2757245	n/a	LTP349	ltpFR2	10	n/a	n/a	n/a	9	n/a	n/a	n/a	n/a
1348.23291015625	n/a	REC_START	2761181	n/a	LTP349	ltpFR2	10	6	n/a	n/a	n/a	n/a	0	0	0
1353.61572265625	n/a	REC_WORD	2772205	wordpools/wasnorm_wordpool_576.txt	LTP349	ltpFR2	10	6	GLOBE	641	n/a	n/a	0	0	0
1355.5107421875	n/a	REC_WORD	2776086	wordpools/wasnorm_wordpool_576.txt	LTP349	ltpFR2	10	6	ISLAND	745	n/a	n/a	0	0	0
1360.794921875	n/a	REC_WORD	2786908	wordpools/wasnorm_wordpool_576.txt	LTP349	ltpFR2	10	6	BELLY	119	n/a	n/a	0	0	0
1361.89990234375	n/a	REC_WORD	2789171	wordpools/wasnorm_wordpool_576.txt	LTP349	ltpFR2	10	6	STOMACH	1384	n/a	n/a	0	0	0
1365.087890625	n/a	REC_WORD	2795700	wordpools/wasnorm_wordpool_576.txt	LTP349	ltpFR2	10	6	SISTER	1312	n/a	n/a	0	0	0
1371.82763671875	n/a	REC_WORD	2809503	wordpools/wasnorm_wordpool_576.txt	LTP349	ltpFR2	10	6	OYSTER	995	n/a	n/a	0	0	0
1438.6884765625	n/a	DISTRACTOR	2946434	n/a	LTP349	ltpFR2	10	7	n/a	n/a	n/a	n/a	0	0	0
1438.6884765625	n/a	START	2946434	n/a	LTP349	ltpFR2	10	n/a	n/a	n/a	10	n/a	n/a	n/a	n/a
1438.70458984375	n/a	PROB	2946467	n/a	LTP349	ltpFR2	10	n/a	n/a	n/a	10	15	8	1	6
1440.470703125	n/a	PROB	2950084	n/a	LTP349	ltpFR2	10	n/a	n/a	n/a	10	19	5	5	9
1442.3203125	n/a	PROB	2953872	n/a	LTP349	ltpFR2	10	n/a	n/a	n/a	10	15	6	1	8
1444.1533203125	n/a	PROB	2957626	n/a	LTP349	ltpFR2	10	n/a	n/a	n/a	10	16	4	8	4
1446.1025390625	n/a	PROB	2961618	n/a	LTP349	ltpFR2	10	n/a	n/a	n/a	10	1	9	8	9
1448.13427734375	n/a	PROB	2965779	n/a	LTP349	ltpFR2	10	n/a	n/a	n/a	10	12	1	3	8
1452.51513671875	n/a	PROB	2974751	n/a	LTP349	ltpFR2	10	n/a	n/a	n/a	10	19	9	1	9
1455.34814453125	n/a	PROB	2980553	n/a	LTP349	ltpFR2	10	n/a	n/a	n/a	10	12	8	2	2
1457.779296875	n/a	PROB	2985532	n/a	LTP349	ltpFR2	10	n/a	n/a	n/a	10	19	6	4	9
1462.68798828125	n/a	STOP	2995585	n/a	LTP349	ltpFR2	10	n/a	n/a	n/a	10	n/a	n/a	n/a	n/a
1463.509765625	n/a	WORD	2997268	wordpools/wasnorm_wordpool_576.txt	LTP349	ltpFR2	10	7	SKILLET	1317	n/a	n/a	0	0	0
1466.208984375	n/a	WORD	3002796	wordpools/wasnorm_wordpool_576.txt	LTP349	ltpFR2	10	7	CYCLONE	431	n/a	n/a	0	0	0
1468.8408203125	n/a	WORD	3008186	wordpools/wasnorm_wordpool_576.txt	LTP349	ltpFR2	10	7	SAUSAGE	1238	n/a	n/a	0	0	0
1471.43994140625	n/a	WORD	3013509	wordpools/wasnorm_wordpool_576.txt	LTP349	ltpFR2	10	7	JELLY	755	n/a	n/a	0	0	0
1474.0048828125	n/a	WORD	3018762	wordpools/wasnorm_wordpool_576.txt	LTP349	ltpFR2	10	7	FRAME	600	n/a	n/a	0	0	0
1476.5537109375	n/a	WORD	3023982	wordpools/wasnorm_wordpool_576.txt	LTP349	ltpFR2	10	7	CHAPEL	280	n/a	n/a	0	0	0
1479.08642578125	n/a	WORD	3029169	wordpools/wasnorm_wordpool_576.txt	LTP349	ltpFR2	10	7	PREACHER	1119	n/a	n/a	0	0	0
1481.88427734375	n/a	WORD	3034899	wordpools/wasnorm_wordpool_576.txt	LTP349	ltpFR2	10	7	YOLK	1633	n/a	n/a	0	0	0
1484.5166015625	n/a	WORD	3040290	wordpools/wasnorm_wordpool_576.txt	LTP349	ltpFR2	10	7	COTTAGE	384	n/a	n/a	0	0	0
1487.18212890625	n/a	WORD	3045749	wordpools/wasnorm_wordpool_576.txt	LTP349	ltpFR2	10	7	CLOUD	328	n/a	n/a	0	0	0
1489.68017578125	n/a	WORD	3050865	wordpools/wasnorm_wordpool_576.txt	LTP349	ltpFR2	10	7	BASEMENT	94	n/a	n/a	0	0	0
1492.43017578125	n/a	WORD	3056497	wordpools/wasnorm_wordpool_576.txt	LTP349	ltpFR2	10	7	PEBBLE	1035	n/a	n/a	0	0	0
1494.9453125	n/a	WORD	3061648	wordpools/wasnorm_wordpool_576.txt	LTP349	ltpFR2	10	7	BRICK	172	n/a	n/a	0	0	0
1497.66015625	n/a	WORD	3067208	wordpools/wasnorm_wordpool_576.txt	LTP349	ltpFR2	10	7	PASSAGE	1019	n/a	n/a	0	0	0
1500.458984375	n/a	WORD	3072940	wordpools/wasnorm_wordpool_576.txt	LTP349	ltpFR2	10	7	LIGHTNING	820	n/a	n/a	0	0	0
1503.041015625	n/a	WORD	3078228	wordpools/wasnorm_wordpool_576.txt	LTP349	ltpFR2	10	7	SCULPTURE	1258	n/a	n/a	0	0	0
1505.6396484375	n/a	WORD	3083550	wordpools/wasnorm_wordpool_576.txt	LTP349	ltpFR2	10	7	HUMAN	726	n/a	n/a	0	0	0
1508.3056640625	n/a	WORD	3089010	wordpools/wasnorm_wordpool_576.txt	LTP349	ltpFR2	10	7	LAPEL	800	n/a	n/a	0	0	0
1510.88671875	n/a	WORD	3094296	wordpools/wasnorm_wordpool_576.txt	LTP349	ltpFR2	10	7	PLAID	1080	n/a	n/a	0	0	0
1513.56884765625	n/a	WORD	3099789	wordpools/wasnorm_wordpool_576.txt	LTP349	ltpFR2	10	7	SHELTER	1282	n/a	n/a	0	0	0
1516.1357421875	n/a	WORD	3105046	wordpools/wasnorm_wordpool_576.txt	LTP349	ltpFR2	10	7	PERFUME	1049	n/a	n/a	0	0	0
1518.8994140625	n/a	WORD	3110706	wordpools/wasnorm_wordpool_576.txt	LTP349	ltpFR2	10	7	SCALPEL	1243	n/a	n/a	0	0	0
1521.68115234375	n/a	WORD	3116403	wordpools/wasnorm_wordpool_576.txt	LTP349	ltpFR2	10	7	MAILBOX	857	n/a	n/a	0	0	0
1524.13134765625	n/a	WORD	3121421	wordpools/wasnorm_wordpool_576.txt	LTP349	ltpFR2	10	7	BLENDER	136	n/a	n/a	0	0	0
1525.74609375	n/a	START	3124728	n/a	LTP349	ltpFR2	10	n/a	n/a	n/a	11	n/a	n/a	n/a	n/a
1526.6953125	n/a	DISTRACTOR	3126672	n/a	LTP349	ltpFR2	10	7	n/a	n/a	n/a	n/a	0	0	0
1526.71240234375	n/a	PROB	3126707	n/a	LTP349	ltpFR2	10	n/a	n/a	n/a	11	23	7	7	9
1534.6748046875	n/a	PROB	3143014	n/a	LTP349	ltpFR2	10	n/a	n/a	n/a	11	17	1	8	8
1536.52490234375	n/a	PROB	3146803	n/a	LTP349	ltpFR2	10	n/a	n/a	n/a	11	7	2	2	3
1538.7900390625	n/a	PROB	3151442	n/a	LTP349	ltpFR2	10	n/a	n/a	n/a	11	19	3	7	9
1540.7060546875	n/a	PROB	3155366	n/a	LTP349	ltpFR2	10	n/a	n/a	n/a	11	12	4	2	6
1543.53759765625	n/a	PROB	3161165	n/a	LTP349	ltpFR2	10	n/a	n/a	n/a	11	13	2	8	3
1548.353515625	n/a	STOP	3171028	n/a	LTP349	ltpFR2	10	n/a	n/a	n/a	11	n/a	n/a	n/a	n/a
1551.58447265625	n/a	REC_START	3177645	n/a	LTP349	ltpFR2	10	7	n/a	n/a	n/a	n/a	0	0	0
1626.57763671875	n/a	REC_WORD_VV	3331231	wordpools/wasnorm_wordpool_576.txt	LTP349	ltpFR2	10	7	<>	-1	n/a	n/a	0	0	0
1642.02392578125	n/a	WORD	3362865	wordpools/wasnorm_wordpool_576.txt	LTP349	ltpFR2	10	8	BUGGY	188	n/a	n/a	0	0	0
1644.68896484375	n/a	WORD	3368323	wordpools/wasnorm_wordpool_576.txt	LTP349	ltpFR2	10	8	SMOG	1330	n/a	n/a	0	0	0
1647.23876953125	n/a	WORD	3373545	wordpools/wasnorm_wordpool_576.txt	LTP349	ltpFR2	10	8	TROUT	1511	n/a	n/a	0	0	0
1649.88671875	n/a	WORD	3378968	wordpools/wasnorm_wordpool_576.txt	LTP349	ltpFR2	10	8	TWIG	1527	n/a	n/a	0	0	0
1652.70166015625	n/a	WORD	3384733	wordpools/wasnorm_wordpool_576.txt	LTP349	ltpFR2	10	8	PICTURE	1061	n/a	n/a	0	0	0
1655.3857421875	n/a	WORD	3390230	wordpools/wasnorm_wordpool_576.txt	LTP349	ltpFR2	10	8	WIFE	1609	n/a	n/a	0	0	0
1657.89990234375	n/a	WORD	3395379	wordpools/wasnorm_wordpool_576.txt	LTP349	ltpFR2	10	8	PLAYGROUND	1087	n/a	n/a	0	0	0
1660.61474609375	n/a	WORD	3400939	wordpools/wasnorm_wordpool_576.txt	LTP349	ltpFR2	10	8	SCALLOP	1242	n/a	n/a	0	0	0
1663.08154296875	n/a	WORD	3405991	wordpools/wasnorm_wordpool_576.txt	LTP349	ltpFR2	10	8	NAPKIN	937	n/a	n/a	0	0	0
1665.8125	n/a	WORD	3411584	wordpools/wasnorm_wordpool_576.txt	LTP349	ltpFR2	10	8	RABBIT	1152	n/a	n/a	0	0	0
1668.51123046875	n/a	WORD	3417111	wordpools/wasnorm_wordpool_576.txt	LTP349	ltpFR2	10	8	DRIVER	499	n/a	n/a	0	0	0
1671.09423828125	n/a	WORD	3422401	wordpools/wasnorm_wordpool_576.txt	LTP349	ltpFR2	10	8	TRANSPLANT	1496	n/a	n/a	0	0	0
1673.84228515625	n/a	WORD	3428029	wordpools/wasnorm_wordpool_576.txt	LTP349	ltpFR2	10	8	FLESH	579	n/a	n/a	0	0	0
1676.50732421875	n/a	WORD	3433487	wordpools/wasnorm_wordpool_576.txt	LTP349	ltpFR2	10	8	CRIB	407	n/a	n/a	0	0	0
1679.240234375	n/a	WORD	3439084	wordpools/wasnorm_wordpool_576.txt	LTP349	ltpFR2	10	8	FRUIT	610	n/a	n/a	0	0	0
1681.9052734375	n/a	WORD	3444542	wordpools/wasnorm_wordpool_576.txt	LTP349	ltpFR2	10	8	SHORTCAKE	1292	n/a	n/a	0	0	0
1684.43701171875	n/a	WORD	3449727	wordpools/wasnorm_wordpool_576.txt	LTP349	ltpFR2	10	8	LUMBER	848	n/a	n/a	0	0	0
1687.001953125	n/a	WORD	3454980	wordpools/wasnorm_wordpool_576.txt	LTP349	ltpFR2	10	8	SALT	1229	n/a	n/a	0	0	0
1689.70068359375	n/a	WORD	3460507	wordpools/wasnorm_wordpool_576.txt	LTP349	ltpFR2	10	8	TYPIST	1532	n/a	n/a	0	0	0
1692.5166015625	n/a	WORD	3466274	wordpools/wasnorm_wordpool_576.txt	LTP349	ltpFR2	10	8	NOTEBOOK	959	n/a	n/a	0	0	0
1695.08251953125	n/a	WORD	3471529	wordpools/wasnorm_wordpool_576.txt	LTP349	ltpFR2	10	8	CAFE	216	n/a	n/a	0	0	0
1697.763671875	n/a	WORD	3477020	wordpools/wasnorm_wordpool_576.txt	LTP349	ltpFR2	10	8	OZONE	996	n/a	n/a	0	0	0
1700.46240234375	n/a	WORD	3482547	wordpools/wasnorm_wordpool_576.txt	LTP349	ltpFR2	10	8	ONION	977	n/a	n/a	0	0	0
1703.1953125	n/a	WORD	3488144	wordpools/wasnorm_wordpool_576.txt	LTP349	ltpFR2	10	8	SEAFOOD	1260	n/a	n/a	0	0	0
1704.810546875	n/a	START	3491452	n/a	LTP349	ltpFR2	10	n/a	n/a	n/a	12	n/a	n/a	n/a	n/a
1705.65625	n/a	DISTRACTOR	3493184	n/a	LTP349	ltpFR2	10	8	n/a	n/a	n/a	n/a	0	0	0
1705.66015625	n/a	PROB	3493192	n/a	LTP349	ltpFR2	10	n/a	n/a	n/a	12	22	9	5	8
1709.1591796875	n/a	PROB	3500358	n/a	LTP349	ltpFR2	10	n/a	n/a	n/a	12	25	8	7	8
1711.607421875	n/a	PROB	3505372	n/a	LTP349	ltpFR2	10	n/a	n/a	n/a	12	14	4	5	5
1712.97314453125	n/a	PROB	3508169	n/a	LTP349	ltpFR2	10	n/a	n/a	n/a	12	12	2	4	6
1714.4560546875	n/a	PROB	3511206	n/a	LTP349	ltpFR2	10	n/a	n/a	n/a	12	15	2	4	9
1716.0888671875	n/a	PROB	3514550	n/a	LTP349	ltpFR2	10	n/a	n/a	n/a	12	1	6	7	8
1718.919921875	n/a	PROB	3520348	n/a	LTP349	ltpFR2	10	n/a	n/a	n/a	12	13	6	1	6
1720.6201171875	n/a	PROB	3523830	n/a	LTP349	ltpFR2	10	n/a	n/a	n/a	12	13	6	3	4
1722.302734375	n/a	PROB	3527276	n/a	LTP349	ltpFR2	10	n/a	n/a	n/a	12	7	1	5	1
1728.79052734375	n/a	STOP	3540563	n/a	LTP349	ltpFR2	10	n/a	n/a	n/a	12	n/a	n/a	n/a	n/a
1730.69873046875	n/a	REC_START	3544471	n/a	LTP349	ltpFR2	10	8	n/a	n/a	n/a	n/a	0	0	0
1764.5478515625	n/a	REC_WORD	3613794	wordpools/wasnorm_wordpool_576.txt	LTP349	ltpFR2	10	8	TROUT	1511	n/a	n/a	0	0	0
1770.9423828125	n/a	REC_WORD_VV	3626890	wordpools/wasnorm_wordpool_576.txt	LTP349	ltpFR2	10	8	<>	-1	n/a	n/a	0	0	0
1771.53466796875	n/a	REC_WORD	3628103	wordpools/wasnorm_wordpool_576.txt	LTP349	ltpFR2	10	8	WIFE	1609	n/a	n/a	0	0	0
1807.228515625	n/a	REST_REWET	3701204	n/a	LTP349	ltpFR2	10	8	n/a	n/a	n/a	n/a	0	0	0
1924.95458984375	n/a	WORD	3942307	wordpools/wasnorm_wordpool_576.txt	LTP349	ltpFR2	10	9	BLACKBOARD	133	n/a	n/a	0	0	0
1927.486328125	n/a	WORD	3947492	wordpools/wasnorm_wordpool_576.txt	LTP349	ltpFR2	10	9	GAZELLE	628	n/a	n/a	0	0	0
1930.08642578125	n/a	WORD	3952817	wordpools/wasnorm_wordpool_576.txt	LTP349	ltpFR2	10	9	MONSTER	912	n/a	n/a	0	0	0
1932.63427734375	n/a	WORD	3958035	wordpools/wasnorm_wordpool_576.txt	LTP349	ltpFR2	10	9	WAITRESS	1581	n/a	n/a	0	0	0
1935.4501953125	n/a	WORD	3963802	wordpools/wasnorm_wordpool_576.txt	LTP349	ltpFR2	10	9	PICNIC	1060	n/a	n/a	0	0	0
1938.06591796875	n/a	WORD	3969159	wordpools/wasnorm_wordpool_576.txt	LTP349	ltpFR2	10	9	SPACE	1345	n/a	n/a	0	0	0
1940.61376953125	n/a	WORD	3974377	wordpools/wasnorm_wordpool_576.txt	LTP349	ltpFR2	10	9	STALLION	1369	n/a	n/a	0	0	0
1943.0458984375	n/a	WORD	3979358	wordpools/wasnorm_wordpool_576.txt	LTP349	ltpFR2	10	9	CREVICE	405	n/a	n/a	0	0	0
1945.51171875	n/a	WORD	3984408	wordpools/wasnorm_wordpool_576.txt	LTP349	ltpFR2	10	9	OINTMENT	974	n/a	n/a	0	0	0
1948.32763671875	n/a	WORD	3990175	wordpools/wasnorm_wordpool_576.txt	LTP349	ltpFR2	10	9	EGYPT	519	n/a	n/a	0	0	0
1951.07666015625	n/a	WORD	3995805	wordpools/wasnorm_wordpool_576.txt	LTP349	ltpFR2	10	9	SUPPER	1411	n/a	n/a	0	0	0
1953.57470703125	n/a	WORD	4000921	wordpools/wasnorm_wordpool_576.txt	LTP349	ltpFR2	10	9	LODGE	839	n/a	n/a	0	0	0
1956.390625	n/a	WORD	4006688	wordpools/wasnorm_wordpool_576.txt	LTP349	ltpFR2	10	9	STICKER	1382	n/a	n/a	0	0	0
1958.85546875	n/a	WORD	4011736	wordpools/wasnorm_wordpool_576.txt	LTP349	ltpFR2	10	9	SUMMIT	1405	n/a	n/a	0	0	0
1961.3544921875	n/a	WORD	4016854	wordpools/wasnorm_wordpool_576.txt	LTP349	ltpFR2	10	9	SHIRT	1287	n/a	n/a	0	0	0
1964.01953125	n/a	WORD	4022312	wordpools/wasnorm_wordpool_576.txt	LTP349	ltpFR2	10	9	STAMP	1370	n/a	n/a	0	0	0
1966.451171875	n/a	WORD	4027292	wordpools/wasnorm_wordpool_576.txt	LTP349	ltpFR2	10	9	DRINK	498	n/a	n/a	0	0	0
1968.9501953125	n/a	WORD	4032410	wordpools/wasnorm_wordpool_576.txt	LTP349	ltpFR2	10	9	COCKTAIL	338	n/a	n/a	0	0	0
1971.73193359375	n/a	WORD	4038107	wordpools/wasnorm_wordpool_576.txt	LTP349	ltpFR2	10	9	SLOPE	1328	n/a	n/a	0	0	0
1974.31494140625	n/a	WORD	4043397	wordpools/wasnorm_wordpool_576.txt	LTP349	ltpFR2	10	9	GARLIC	624	n/a	n/a	0	0	0
1976.93017578125	n/a	WORD	4048753	wordpools/wasnorm_wordpool_576.txt	LTP349	ltpFR2	10	9	SWITCH	1422	n/a	n/a	0	0	0
1979.4287109375	n/a	WORD	4053870	wordpools/wasnorm_wordpool_576.txt	LTP349	ltpFR2	10	9	FLASHLIGHT	575	n/a	n/a	0	0	0
1982.1279296875	n/a	WORD	4059398	wordpools/wasnorm_wordpool_576.txt	LTP349	ltpFR2	10	9	TRACTOR	1493	n/a	n/a	0	0	0
1984.82568359375	n/a	WORD	4064923	wordpools/wasnorm_wordpool_576.txt	LTP349	ltpFR2	10	9	ASIA	46	n/a	n/a	0	0	0
1986.44189453125	n/a	START	4068233	n/a	LTP349	ltpFR2	10	n/a	n/a	n/a	13	n/a	n/a	n/a	n/a
1987.41259765625	n/a	DISTRACTOR	4070221	n/a	LTP349	ltpFR2	10	9	n/a	n/a	n/a	n/a	0	0	0
1987.42578125	n/a	PROB	4070248	n/a	LTP349	ltpFR2	10	n/a	n/a	n/a	13	10	3	4	3
1990.1748046875	n/a	PROB	4075878	n/a	LTP349	ltpFR2	10	n/a	n/a	n/a	13	18	9	4	5
1992.03955078125	n/a	PROB	4079697	n/a	LTP349	ltpFR2	10	n/a	n/a	n/a	13	25	8	9	8
1994.5712890625	n/a	PROB	4084882	n/a	LTP349	ltpFR2	10	n/a	n/a	n/a	13	8	2	1	5
1996.70361328125	n/a	PROB	4089249	n/a	LTP349	ltpFR2	10	n/a	n/a	n/a	13	7	3	1	3
1999.4033203125	n/a	PROB	4094778	n/a	LTP349	ltpFR2	10	n/a	n/a	n/a	13	9	1	4	4
2000.9013671875	n/a	PROB	4097846	n/a	LTP349	ltpFR2	10	n/a	n/a	n/a	13	22	9	6	7
2003.21826171875	n/a	PROB	4102591	n/a	LTP349	ltpFR2	10	n/a	n/a	n/a	13	24	8	9	7
2007.34912109375	n/a	PROB	4111051	n/a	LTP349	ltpFR2	10	n/a	n/a	n/a	13	16	7	7	2
2009.21923828125	n/a	STOP	4114881	n/a	LTP349	ltpFR2	10	n/a	n/a	n/a	13	n/a	n/a	n/a	n/a
2012.28125	n/a	REC_START	4121152	n/a	LTP349	ltpFR2	10	9	n/a	n/a	n/a	n/a	0	0	0
2013.5009765625	n/a	REC_WORD	4123650	wordpools/wasnorm_wordpool_576.txt	LTP349	ltpFR2	10	9	TRACTOR	1493	n/a	n/a	0	0	0
2014.43017578125	n/a	REC_WORD	4125553	wordpools/wasnorm_wordpool_576.txt	LTP349	ltpFR2	10	9	FLASHLIGHT	575	n/a	n/a	0	0	0
2016.4619140625	n/a	REC_WORD	4129714	wordpools/wasnorm_wordpool_576.txt	LTP349	ltpFR2	10	9	BLACKBOARD	133	n/a	n/a	0	0	0
2017.9296875	n/a	REC_WORD	4132720	wordpools/wasnorm_wordpool_576.txt	LTP349	ltpFR2	10	9	GAZELLE	628	n/a	n/a	0	0	0
2019.1328125	n/a	REC_WORD	4135184	wordpools/wasnorm_wordpool_576.txt	LTP349	ltpFR2	10	9	MONSTER	912	n/a	n/a	0	0	0
2020.63671875	n/a	REC_WORD	4138264	wordpools/wasnorm_wordpool_576.txt	LTP349	ltpFR2	10	9	STALLION	1369	n/a	n/a	0	0	0
2126.02490234375	n/a	WORD	4354099	wordpools/wasnorm_wordpool_576.txt	LTP349	ltpFR2	10	10	STAPLE	1371	n/a	n/a	0	0	0
2128.806640625	n/a	WORD	4359796	wordpools/wasnorm_wordpool_576.txt	LTP349	ltpFR2	10	10	HIGHWAY	707	n/a	n/a	0	0	0
2131.23974609375	n/a	WORD	4364779	wordpools/wasnorm_wordpool_576.txt	LTP349	ltpFR2	10	10	STATUE	1374	n/a	n/a	0	0	0
2133.6875	n/a	WORD	4369792	wordpools/wasnorm_wordpool_576.txt	LTP349	ltpFR2	10	10	DAISY	435	n/a	n/a	0	0	0
2136.3046875	n/a	WORD	4375152	wordpools/wasnorm_wordpool_576.txt	LTP349	ltpFR2	10	10	ZIPPER	1636	n/a	n/a	0	0	0
2138.7353515625	n/a	WORD	4380130	wordpools/wasnorm_wordpool_576.txt	LTP349	ltpFR2	10	10	FOREHEAD	592	n/a	n/a	0	0	0
2141.4833984375	n/a	WORD	4385758	wordpools/wasnorm_wordpool_576.txt	LTP349	ltpFR2	10	10	PAPER	1011	n/a	n/a	0	0	0
2143.91650390625	n/a	WORD	4390741	wordpools/wasnorm_wordpool_576.txt	LTP349	ltpFR2	10	10	LASER	801	n/a	n/a	0	0	0
2146.7314453125	n/a	WORD	4396506	wordpools/wasnorm_wordpool_576.txt	LTP349	ltpFR2	10	10	NOVEL	960	n/a	n/a	0	0	0
2149.29833984375	n/a	WORD	4401763	wordpools/wasnorm_wordpool_576.txt	LTP349	ltpFR2	10	10	HANDBAG	684	n/a	n/a	0	0	0
2151.92919921875	n/a	WORD	4407151	wordpools/wasnorm_wordpool_576.txt	LTP349	ltpFR2	10	10	BEAKER	104	n/a	n/a	0	0	0
2154.56103515625	n/a	WORD	4412541	wordpools/wasnorm_wordpool_576.txt	LTP349	ltpFR2	10	10	TAXI	1438	n/a	n/a	0	0	0
2157.1943359375	n/a	WORD	4417934	wordpools/wasnorm_wordpool_576.txt	LTP349	ltpFR2	10	10	PLUTO	1092	n/a	n/a	0	0	0
2159.69189453125	n/a	WORD	4423049	wordpools/wasnorm_wordpool_576.txt	LTP349	ltpFR2	10	10	PUDDING	1139	n/a	n/a	0	0	0
2162.35791015625	n/a	WORD	4428509	wordpools/wasnorm_wordpool_576.txt	LTP349	ltpFR2	10	10	SERVANT	1271	n/a	n/a	0	0	0
2164.85595703125	n/a	WORD	4433625	wordpools/wasnorm_wordpool_576.txt	LTP349	ltpFR2	10	10	BUNNY	198	n/a	n/a	0	0	0
2167.40576171875	n/a	WORD	4438847	wordpools/wasnorm_wordpool_576.txt	LTP349	ltpFR2	10	10	TORTOISE	1486	n/a	n/a	0	0	0
2170.2216796875	n/a	WORD	4444614	wordpools/wasnorm_wordpool_576.txt	LTP349	ltpFR2	10	10	CUSTARD	429	n/a	n/a	0	0	0
2173.0185546875	n/a	WORD	4450342	wordpools/wasnorm_wordpool_576.txt	LTP349	ltpFR2	10	10	MONEY	908	n/a	n/a	0	0	0
2175.83447265625	n/a	WORD	4456109	wordpools/wasnorm_wordpool_576.txt	LTP349	ltpFR2	10	10	LABEL	790	n/a	n/a	0	0	0
2178.36767578125	n/a	WORD	4461297	wordpools/wasnorm_wordpool_576.txt	LTP349	ltpFR2	10	10	BINDER	127	n/a	n/a	0	0	0
2181.099609375	n/a	WORD	4466892	wordpools/wasnorm_wordpool_576.txt	LTP349	ltpFR2	10	10	JURY	766	n/a	n/a	0	0	0
2183.74755859375	n/a	WORD	4472315	wordpools/wasnorm_wordpool_576.txt	LTP349	ltpFR2	10	10	PADDING	999	n/a	n/a	0	0	0
2186.36328125	n/a	WORD	4477672	wordpools/wasnorm_wordpool_576.txt	LTP349	ltpFR2	10	10	VELVET	1555	n/a	n/a	0	0	0
2187.97802734375	n/a	START	4480979	n/a	LTP349	ltpFR2	10	n/a	n/a	n/a	14	n/a	n/a	n/a	n/a
2188.88330078125	n/a	DISTRACTOR	4482833	n/a	LTP349	ltpFR2	10	10	n/a	n/a	n/a	n/a	0	0	0
2188.89404296875	n/a	PROB	4482855	n/a	LTP349	ltpFR2	10	n/a	n/a	n/a	14	15	2	7	6
2194.39306640625	n/a	PROB	4494117	n/a	LTP349	ltpFR2	10	n/a	n/a	n/a	14	176	1	9	7
2196.05908203125	n/a	PROB	4497529	n/a	LTP349	ltpFR2	10	n/a	n/a	n/a	14	18	6	3	9
2200.7890625	n/a	PROB	4507216	n/a	LTP349	ltpFR2	10	n/a	n/a	n/a	14	26	8	9	9
2203.85400390625	n/a	PROB	4513493	n/a	LTP349	ltpFR2	10	n/a	n/a	n/a	14	9	2	1	6
2207.12060546875	n/a	PROB	4520183	n/a	LTP349	ltpFR2	10	n/a	n/a	n/a	14	11	3	2	6
2210.8583984375	n/a	STOP	4527838	n/a	LTP349	ltpFR2	10	n/a	n/a	n/a	14	n/a	n/a	n/a	n/a
2213.7666015625	n/a	REC_START	4533794	n/a	LTP349	ltpFR2	10	10	n/a	n/a	n/a	n/a	0	0	0
2215.16650390625	n/a	REC_WORD	4536661	wordpools/wasnorm_wordpool_576.txt	LTP349	ltpFR2	10	10	CUSTARD	429	n/a	n/a	0	0	0
2216.51025390625	n/a	REC_WORD	4539413	wordpools/wasnorm_wordpool_576.txt	LTP349	ltpFR2	10	10	PUDDING	1139	n/a	n/a	0	0	0
2218.04541015625	n/a	REC_WORD	4542557	wordpools/wasnorm_wordpool_576.txt	LTP349	ltpFR2	10	10	PANIC	-1	n/a	n/a	0	0	0
2222.2451171875	n/a	REC_WORD	4551158	wordpools/wasnorm_wordpool_576.txt	LTP349	ltpFR2	10	10	TORTOISE	1486	n/a	n/a	0	0	0
2223.55615234375	n/a	REC_WORD	4553843	wordpools/wasnorm_wordpool_576.txt	LTP349	ltpFR2	10	10	BUNNY	198	n/a	n/a	0	0	0
2304.22412109375	n/a	DISTRACTOR	4719051	n/a	LTP349	ltpFR2	10	11	n/a	n/a	n/a	n/a	0	0	0
2304.22412109375	n/a	START	4719051	n/a	LTP349	ltpFR2	10	n/a	n/a	n/a	15	n/a	n/a	n/a	n/a
2304.240234375	n/a	PROB	4719084	n/a	LTP349	ltpFR2	10	n/a	n/a	n/a	15	19	8	2	9
2308.32177734375	n/a	PROB	4727443	n/a	LTP349	ltpFR2	10	n/a	n/a	n/a	15	20	7	8	5
2310.93603515625	n/a	PROB	4732797	n/a	LTP349	ltpFR2	10	n/a	n/a	n/a	15	19	9	9	1
2312.5849609375	n/a	PROB	4736174	n/a	LTP349	ltpFR2	10	n/a	n/a	n/a	15	13	8	3	2
2314.81787109375	n/a	PROB	4740747	n/a	LTP349	ltpFR2	10	n/a	n/a	n/a	15	9	1	4	4
2315.98388671875	n/a	PROB	4743135	n/a	LTP349	ltpFR2	10	n/a	n/a	n/a	15	16	5	3	8
2318.03271484375	n/a	PROB	4747331	n/a	LTP349	ltpFR2	10	n/a	n/a	n/a	15	14	4	2	8
2328.2236328125	n/a	STOP	4768202	n/a	LTP349	ltpFR2	10	n/a	n/a	n/a	15	n/a	n/a	n/a	n/a
2329.228515625	n/a	WORD	4770260	wordpools/wasnorm_wordpool_576.txt	LTP349	ltpFR2	10	11	PARSLEY	1016	n/a	n/a	0	0	0
2331.9765625	n/a	WORD	4775888	wordpools/wasnorm_wordpool_576.txt	LTP349	ltpFR2	10	11	PEPPER	1047	n/a	n/a	0	0	0
2334.59130859375	n/a	WORD	4781243	wordpools/wasnorm_wordpool_576.txt	LTP349	ltpFR2	10	11	CRUTCH	417	n/a	n/a	0	0	0
2337.34130859375	n/a	WORD	4786875	wordpools/wasnorm_wordpool_576.txt	LTP349	ltpFR2	10	11	BLADE	134	n/a	n/a	0	0	0
2340.0048828125	n/a	WORD	4792330	wordpools/wasnorm_wordpool_576.txt	LTP349	ltpFR2	10	11	AIRPORT	13	n/a	n/a	0	0	0
2342.72119140625	n/a	WORD	4797893	wordpools/wasnorm_wordpool_576.txt	LTP349	ltpFR2	10	11	COIN	343	n/a	n/a	0	0	0
2345.5029296875	n/a	WORD	4803590	wordpools/wasnorm_wordpool_576.txt	LTP349	ltpFR2	10	11	WRENCH	1625	n/a	n/a	0	0	0
2348.15283203125	n/a	WORD	4809017	wordpools/wasnorm_wordpool_576.txt	LTP349	ltpFR2	10	11	MAILMAN	858	n/a	n/a	0	0	0
2350.81689453125	n/a	WORD	4814473	wordpools/wasnorm_wordpool_576.txt	LTP349	ltpFR2	10	11	CARROT	249	n/a	n/a	0	0	0
2353.39990234375	n/a	WORD	4819763	wordpools/wasnorm_wordpool_576.txt	LTP349	ltpFR2	10	11	PLIERS	1089	n/a	n/a	0	0	0
2356.06591796875	n/a	WORD	4825223	wordpools/wasnorm_wordpool_576.txt	LTP349	ltpFR2	10	11	KNIFE	785	n/a	n/a	0	0	0
2358.513671875	n/a	WORD	4830236	wordpools/wasnorm_wordpool_576.txt	LTP349	ltpFR2	10	11	YARN	1631	n/a	n/a	0	0	0
2361.1796875	n/a	WORD	4835696	wordpools/wasnorm_wordpool_576.txt	LTP349	ltpFR2	10	11	SUNRISE	1407	n/a	n/a	0	0	0
2363.84423828125	n/a	WORD	4841153	wordpools/wasnorm_wordpool_576.txt	LTP349	ltpFR2	10	11	SUNSET	1408	n/a	n/a	0	0	0
2366.3935546875	n/a	WORD	4846374	wordpools/wasnorm_wordpool_576.txt	LTP349	ltpFR2	10	11	MESSAGE	888	n/a	n/a	0	0	0
2368.87548828125	n/a	WORD	4851457	wordpools/wasnorm_wordpool_576.txt	LTP349	ltpFR2	10	11	RAFT	1159	n/a	n/a	0	0	0
2371.6572265625	n/a	WORD	4857154	wordpools/wasnorm_wordpool_576.txt	LTP349	ltpFR2	10	11	CORAL	378	n/a	n/a	0	0	0
2374.30615234375	n/a	WORD	4862579	wordpools/wasnorm_wordpool_576.txt	LTP349	ltpFR2	10	11	AWARD	63	n/a	n/a	0	0	0
2377.072265625	n/a	WORD	4868244	wordpools/wasnorm_wordpool_576.txt	LTP349	ltpFR2	10	11	WASP	1593	n/a	n/a	0	0	0
2379.60302734375	n/a	WORD	4873427	wordpools/wasnorm_wordpool_576.txt	LTP349	ltpFR2	10	11	POCKET	1093	n/a	n/a	0	0	0
2382.2861328125	n/a	WORD	4878922	wordpools/wasnorm_wordpool_576.txt	LTP349	ltpFR2	10	11	FRIEND	606	n/a	n/a	0	0	0
2385.0849609375	n/a	WORD	4884654	wordpools/wasnorm_wordpool_576.txt	LTP349	ltpFR2	10	11	SHRUB	1299	n/a	n/a	0	0	0
2387.515625	n/a	WORD	4889632	wordpools/wasnorm_wordpool_576.txt	LTP349	ltpFR2	10	11	STOVE	1388	n/a	n/a	0	0	0
2390.19873046875	n/a	WORD	4895127	wordpools/wasnorm_wordpool_576.txt	LTP349	ltpFR2	10	11	FLUTE	585	n/a	n/a	0	0	0
2391.8134765625	n/a	START	4898434	n/a	LTP349	ltpFR2	10	n/a	n/a	n/a	16	n/a	n/a	n/a	n/a
2392.91845703125	n/a	DISTRACTOR	4900697	n/a	LTP349	ltpFR2	10	11	n/a	n/a	n/a	n/a	0	0	0
2392.9296875	n/a	PROB	4900720	n/a	LTP349	ltpFR2	10	n/a	n/a	n/a	16	16	4	4	8
2395.77880859375	n/a	PROB	4906555	n/a	LTP349	ltpFR2	10	n/a	n/a	n/a	16	24	7	8	9
2398.62744140625	n/a	PROB	4912389	n/a	LTP349	ltpFR2	10	n/a	n/a	n/a	16	17	5	3	9
2407.357421875	n/a	PROB	4930268	n/a	LTP349	ltpFR2	10	n/a	n/a	n/a	16	16	1	9	6
2409.123046875	n/a	PROB	4933884	n/a	LTP349	ltpFR2	10	n/a	n/a	n/a	16	15	2	7	6
2411.02099609375	n/a	PROB	4937771	n/a	LTP349	ltpFR2	10	n/a	n/a	n/a	16	14	1	9	4
2412.669921875	n/a	PROB	4941148	n/a	LTP349	ltpFR2	10	n/a	n/a	n/a	16	12	2	1	9
2414.748046875	n/a	STOP	4945404	n/a	LTP349	ltpFR2	10	n/a	n/a	n/a	16	n/a	n/a	n/a	n/a
2417.73486328125	n/a	REC_START	4951521	n/a	LTP349	ltpFR2	10	11	n/a	n/a	n/a	n/a	0	0	0
2421.9267578125	n/a	REC_WORD	4960106	wordpools/wasnorm_wordpool_576.txt	LTP349	ltpFR2	10	11	WASP	1593	n/a	n/a	0	0	0
2435.70263671875	n/a	REC_WORD	4988319	wordpools/wasnorm_wordpool_576.txt	LTP349	ltpFR2	10	11	CARROT	249	n/a	n/a	0	0	0
2436.9833984375	n/a	REC_WORD	4990942	wordpools/wasnorm_wordpool_576.txt	LTP349	ltpFR2	10	11	MAILMAN	858	n/a	n/a	0	0	0
2438.26123046875	n/a	REC_WORD	4993559	wordpools/wasnorm_wordpool_576.txt	LTP349	ltpFR2	10	11	WRENCH	1625	n/a	n/a	0	0	0
2439.482421875	n/a	REC_WORD	4996060	wordpools/wasnorm_wordpool_576.txt	LTP349	ltpFR2	10	11	PLIERS	1089	n/a	n/a	0	0	0
2508.17578125	n/a	DISTRACTOR	5136744	n/a	LTP349	ltpFR2	10	12	n/a	n/a	n/a	n/a	0	0	0
2508.17578125	n/a	START	5136744	n/a	LTP349	ltpFR2	10	n/a	n/a	n/a	17	n/a	n/a	n/a	n/a
2508.1923828125	n/a	PROB	5136778	n/a	LTP349	ltpFR2	10	n/a	n/a	n/a	17	19	6	5	8
2511.78955078125	n/a	PROB	5144145	n/a	LTP349	ltpFR2	10	n/a	n/a	n/a	17	24	8	9	7
2515.7041015625	n/a	PROB	5152162	n/a	LTP349	ltpFR2	10	n/a	n/a	n/a	17	20	8	8	4
2519.17041015625	n/a	PROB	5159261	n/a	LTP349	ltpFR2	10	n/a	n/a	n/a	17	19	5	8	6
2522.41796875	n/a	PROB	5165912	n/a	LTP349	ltpFR2	10	n/a	n/a	n/a	17	17	8	3	5
2532.1748046875	n/a	STOP	5185894	n/a	LTP349	ltpFR2	10	n/a	n/a	n/a	17	n/a	n/a	n/a	n/a
2533.330078125	n/a	WORD	5188260	wordpools/wasnorm_wordpool_576.txt	LTP349	ltpFR2	10	12	CELLAR	267	n/a	n/a	0	0	0
2536.11181640625	n/a	WORD	5193957	wordpools/wasnorm_wordpool_576.txt	LTP349	ltpFR2	10	12	SCARF	1246	n/a	n/a	0	0	0
2538.65966796875	n/a	WORD	5199175	wordpools/wasnorm_wordpool_576.txt	LTP349	ltpFR2	10	12	OUTFIT	988	n/a	n/a	0	0	0
2541.24267578125	n/a	WORD	5204465	wordpools/wasnorm_wordpool_576.txt	LTP349	ltpFR2	10	12	CLOTHES	327	n/a	n/a	0	0	0
2543.95751953125	n/a	WORD	5210025	wordpools/wasnorm_wordpool_576.txt	LTP349	ltpFR2	10	12	SEAGULL	1261	n/a	n/a	0	0	0
2546.42236328125	n/a	WORD	5215073	wordpools/wasnorm_wordpool_576.txt	LTP349	ltpFR2	10	12	DRUG	501	n/a	n/a	0	0	0
2549.1396484375	n/a	WORD	5220638	wordpools/wasnorm_wordpool_576.txt	LTP349	ltpFR2	10	12	COWBOY	395	n/a	n/a	0	0	0
2551.9033203125	n/a	WORD	5226298	wordpools/wasnorm_wordpool_576.txt	LTP349	ltpFR2	10	12	DONKEY	484	n/a	n/a	0	0	0
2554.63525390625	n/a	WORD	5231893	wordpools/wasnorm_wordpool_576.txt	LTP349	ltpFR2	10	12	TABLE	1426	n/a	n/a	0	0	0
2557.318359375	n/a	WORD	5237388	wordpools/wasnorm_wordpool_576.txt	LTP349	ltpFR2	10	12	SHORTS	1293	n/a	n/a	0	0	0
2559.76611328125	n/a	WORD	5242401	wordpools/wasnorm_wordpool_576.txt	LTP349	ltpFR2	10	12	ITEM	746	n/a	n/a	0	0	0
2562.21630859375	n/a	WORD	5247419	wordpools/wasnorm_wordpool_576.txt	LTP349	ltpFR2	10	12	HAND	683	n/a	n/a	0	0	0
2564.68115234375	n/a	WORD	5252467	wordpools/wasnorm_wordpool_576.txt	LTP349	ltpFR2	10	12	PARROT	1015	n/a	n/a	0	0	0
2567.4130859375	n/a	WORD	5258062	wordpools/wasnorm_wordpool_576.txt	LTP349	ltpFR2	10	12	TABLET	1427	n/a	n/a	0	0	0
2569.89501953125	n/a	WORD	5263145	wordpools/wasnorm_wordpool_576.txt	LTP349	ltpFR2	10	12	COUCH	386	n/a	n/a	0	0	0
2572.32763671875	n/a	WORD	5268127	wordpools/wasnorm_wordpool_576.txt	LTP349	ltpFR2	10	12	BLOCKADE	137	n/a	n/a	0	0	0
2574.9755859375	n/a	WORD	5273550	wordpools/wasnorm_wordpool_576.txt	LTP349	ltpFR2	10	12	JELLO	754	n/a	n/a	0	0	0
2577.74169921875	n/a	WORD	5279215	wordpools/wasnorm_wordpool_576.txt	LTP349	ltpFR2	10	12	MARROW	872	n/a	n/a	0	0	0
2580.5234375	n/a	WORD	5284912	wordpools/wasnorm_wordpool_576.txt	LTP349	ltpFR2	10	12	BREAST	171	n/a	n/a	0	0	0
2583.00537109375	n/a	WORD	5289995	wordpools/wasnorm_wordpool_576.txt	LTP349	ltpFR2	10	12	CRATER	400	n/a	n/a	0	0	0
2585.62060546875	n/a	WORD	5295351	wordpools/wasnorm_wordpool_576.txt	LTP349	ltpFR2	10	12	PLAZA	1088	n/a	n/a	0	0	0
2588.17041015625	n/a	WORD	5300573	wordpools/wasnorm_wordpool_576.txt	LTP349	ltpFR2	10	12	BRAKE	166	n/a	n/a	0	0	0
2590.80126953125	n/a	WORD	5305961	wordpools/wasnorm_wordpool_576.txt	LTP349	ltpFR2	10	12	PISTON	1076	n/a	n/a	0	0	0
2593.234375	n/a	WORD	5310944	wordpools/wasnorm_wordpool_576.txt	LTP349	ltpFR2	10	12	ARM	38	n/a	n/a	0	0	0
2594.85009765625	n/a	START	5314253	n/a	LTP349	ltpFR2	10	n/a	n/a	n/a	18	n/a	n/a	n/a	n/a
2595.81201171875	n/a	DISTRACTOR	5316223	n/a	LTP349	ltpFR2	10	12	n/a	n/a	n/a	n/a	0	0	0
2595.81591796875	n/a	PROB	5316231	n/a	LTP349	ltpFR2	10	n/a	n/a	n/a	18	8	1	3	4
2604.51171875	n/a	PROB	5334040	n/a	LTP349	ltpFR2	10	n/a	n/a	n/a	18	20	8	9	3
2607.39501953125	n/a	PROB	5339945	n/a	LTP349	ltpFR2	10	n/a	n/a	n/a	18	16	3	8	5
2609.55859375	n/a	PROB	5344376	n/a	LTP349	ltpFR2	10	n/a	n/a	n/a	18	14	4	7	3
2618.849609375	n/a	STOP	5363404	n/a	LTP349	ltpFR2	10	n/a	n/a	n/a	18	n/a	n/a	n/a	n/a
2620.70458984375	n/a	REC_START	5367203	n/a	LTP349	ltpFR2	10	12	n/a	n/a	n/a	n/a	0	0	0
2711.14501953125	n/a	DISTRACTOR	5552425	n/a	LTP349	ltpFR2	10	13	n/a	n/a	n/a	n/a	0	0	0
2711.14501953125	n/a	START	5552425	n/a	LTP349	ltpFR2	10	n/a	n/a	n/a	19	n/a	n/a	n/a	n/a
2711.1611328125	n/a	PROB	5552458	n/a	LTP349	ltpFR2	10	n/a	n/a	n/a	19	9	6	1	2
2721.921875	n/a	PROB	5574496	n/a	LTP349	ltpFR2	10	n/a	n/a	n/a	19	14	8	5	1
2724.6376953125	n/a	PROB	5580058	n/a	LTP349	ltpFR2	10	n/a	n/a	n/a	19	22	9	4	9
2727.9853515625	n/a	PROB	5586914	n/a	LTP349	ltpFR2	10	n/a	n/a	n/a	19	1	3	9	3
2729.734375	n/a	PROB	5590496	n/a	LTP349	ltpFR2	10	n/a	n/a	n/a	19	20	8	8	4
2735.14453125	n/a	STOP	5601576	n/a	LTP349	ltpFR2	10	n/a	n/a	n/a	19	n/a	n/a	n/a	n/a
2736.21630859375	n/a	WORD	5603771	wordpools/wasnorm_wordpool_576.txt	LTP349	ltpFR2	10	13	WORLD	1622	n/a	n/a	0	0	0
2738.73046875	n/a	WORD	5608920	wordpools/wasnorm_wordpool_576.txt	LTP349	ltpFR2	10	13	ATLAS	53	n/a	n/a	0	0	0
2741.330078125	n/a	WORD	5614244	wordpools/wasnorm_wordpool_576.txt	LTP349	ltpFR2	10	13	CONVICT	371	n/a	n/a	0	0	0
2744.0458984375	n/a	WORD	5619806	wordpools/wasnorm_wordpool_576.txt	LTP349	ltpFR2	10	13	NOMAD	955	n/a	n/a	0	0	0
2746.84326171875	n/a	WORD	5625535	wordpools/wasnorm_wordpool_576.txt	LTP349	ltpFR2	10	13	MEAT	883	n/a	n/a	0	0	0
2749.29296875	n/a	WORD	5630552	wordpools/wasnorm_wordpool_576.txt	LTP349	ltpFR2	10	13	POSTAGE	1113	n/a	n/a	0	0	0
2751.8740234375	n/a	WORD	5635838	wordpools/wasnorm_wordpool_576.txt	LTP349	ltpFR2	10	13	POWDER	1117	n/a	n/a	0	0	0
2754.505859375	n/a	WORD	5641228	wordpools/wasnorm_wordpool_576.txt	LTP349	ltpFR2	10	13	FRECKLE	602	n/a	n/a	0	0	0
2757.32275390625	n/a	WORD	5646997	wordpools/wasnorm_wordpool_576.txt	LTP349	ltpFR2	10	13	ZEBRA	1635	n/a	n/a	0	0	0
2760.00390625	n/a	WORD	5652488	wordpools/wasnorm_wordpool_576.txt	LTP349	ltpFR2	10	13	PEANUT	1032	n/a	n/a	0	0	0
2762.66845703125	n/a	WORD	5657945	wordpools/wasnorm_wordpool_576.txt	LTP349	ltpFR2	10	13	PACKAGE	997	n/a	n/a	0	0	0
2765.50048828125	n/a	WORD	5663745	wordpools/wasnorm_wordpool_576.txt	LTP349	ltpFR2	10	13	TERMITE	1451	n/a	n/a	0	0	0
2768.16748046875	n/a	WORD	5669207	wordpools/wasnorm_wordpool_576.txt	LTP349	ltpFR2	10	13	LOVER	846	n/a	n/a	0	0	0
2770.765625	n/a	WORD	5674528	wordpools/wasnorm_wordpool_576.txt	LTP349	ltpFR2	10	13	PLASTER	1085	n/a	n/a	0	0	0
2773.2314453125	n/a	WORD	5679578	wordpools/wasnorm_wordpool_576.txt	LTP349	ltpFR2	10	13	BOYFRIEND	162	n/a	n/a	0	0	0
2775.99609375	n/a	WORD	5685240	wordpools/wasnorm_wordpool_576.txt	LTP349	ltpFR2	10	13	QUEEN	1149	n/a	n/a	0	0	0
2778.611328125	n/a	WORD	5690596	wordpools/wasnorm_wordpool_576.txt	LTP349	ltpFR2	10	13	BEAVER	109	n/a	n/a	0	0	0
2781.111328125	n/a	WORD	5695716	wordpools/wasnorm_wordpool_576.txt	LTP349	ltpFR2	10	13	CASHIER	254	n/a	n/a	0	0	0
2783.75927734375	n/a	WORD	5701139	wordpools/wasnorm_wordpool_576.txt	LTP349	ltpFR2	10	13	GIFT	635	n/a	n/a	0	0	0
2786.49072265625	n/a	WORD	5706733	wordpools/wasnorm_wordpool_576.txt	LTP349	ltpFR2	10	13	PECAN	1036	n/a	n/a	0	0	0
2789.07373046875	n/a	WORD	5712023	wordpools/wasnorm_wordpool_576.txt	LTP349	ltpFR2	10	13	PRINCE	1124	n/a	n/a	0	0	0
2791.52197265625	n/a	WORD	5717037	wordpools/wasnorm_wordpool_576.txt	LTP349	ltpFR2	10	13	CHILD	299	n/a	n/a	0	0	0
2794.2548828125	n/a	WORD	5722634	wordpools/wasnorm_wordpool_576.txt	LTP349	ltpFR2	10	13	TURNIP	1521	n/a	n/a	0	0	0
2797.0537109375	n/a	WORD	5728366	wordpools/wasnorm_wordpool_576.txt	LTP349	ltpFR2	10	13	SNACK	1331	n/a	n/a	0	0	0
2798.66845703125	n/a	START	5731673	n/a	LTP349	ltpFR2	10	n/a	n/a	n/a	20	n/a	n/a	n/a	n/a
2799.81982421875	n/a	DISTRACTOR	5734031	n/a	LTP349	ltpFR2	10	13	n/a	n/a	n/a	n/a	0	0	0
2799.83447265625	n/a	PROB	5734061	n/a	LTP349	ltpFR2	10	n/a	n/a	n/a	20	15	9	5	1
2804.74853515625	n/a	PROB	5744125	n/a	LTP349	ltpFR2	10	n/a	n/a	n/a	20	6	3	1	2
2808.3642578125	n/a	PROB	5751530	n/a	LTP349	ltpFR2	10	n/a	n/a	n/a	20	19	6	4	9
2809.96337890625	n/a	PROB	5754805	n/a	LTP349	ltpFR2	10	n/a	n/a	n/a	20	1	6	1	6
2811.4951171875	n/a	PROB	5757942	n/a	LTP349	ltpFR2	10	n/a	n/a	n/a	20	20	9	6	5
2814.31201171875	n/a	PROB	5763711	n/a	LTP349	ltpFR2	10	n/a	n/a	n/a	20	21	5	7	9
2818.10986328125	n/a	PROB	5771489	n/a	LTP349	ltpFR2	10	n/a	n/a	n/a	20	12	4	6	5
2821.2138671875	n/a	STOP	5777846	n/a	LTP349	ltpFR2	10	n/a	n/a	n/a	20	n/a	n/a	n/a	n/a
2824.55615234375	n/a	REC_START	5784691	n/a	LTP349	ltpFR2	10	13	n/a	n/a	n/a	n/a	0	0	0
2826.69970703125	n/a	REC_WORD	5789081	wordpools/wasnorm_wordpool_576.txt	LTP349	ltpFR2	10	13	PRINCE	1124	n/a	n/a	0	0	0
2827.69482421875	n/a	REC_WORD	5791119	wordpools/wasnorm_wordpool_576.txt	LTP349	ltpFR2	10	13	NOMAD	955	n/a	n/a	0	0	0
2828.7490234375	n/a	REC_WORD	5793278	wordpools/wasnorm_wordpool_576.txt	LTP349	ltpFR2	10	13	MEAT	883	n/a	n/a	0	0	0
2829.6796875	n/a	REC_WORD	5795184	wordpools/wasnorm_wordpool_576.txt	LTP349	ltpFR2	10	13	ZEBRA	1635	n/a	n/a	0	0	0
2915.0126953125	n/a	WORD	5969946	wordpools/wasnorm_wordpool_576.txt	LTP349	ltpFR2	10	14	CRICKET	408	n/a	n/a	0	0	0
2917.4443359375	n/a	WORD	5974926	wordpools/wasnorm_wordpool_576.txt	LTP349	ltpFR2	10	14	COFFEE	341	n/a	n/a	0	0	0
2920.21142578125	n/a	WORD	5980593	wordpools/wasnorm_wordpool_576.txt	LTP349	ltpFR2	10	14	MACHINE	852	n/a	n/a	0	0	0
2922.9580078125	n/a	WORD	5986218	wordpools/wasnorm_wordpool_576.txt	LTP349	ltpFR2	10	14	JUNGLE	764	n/a	n/a	0	0	0
2925.7744140625	n/a	WORD	5991986	wordpools/wasnorm_wordpool_576.txt	LTP349	ltpFR2	10	14	HAMPER	682	n/a	n/a	0	0	0
2928.22412109375	n/a	WORD	5997003	wordpools/wasnorm_wordpool_576.txt	LTP349	ltpFR2	10	14	NEUTRON	947	n/a	n/a	0	0	0
2930.88818359375	n/a	WORD	6002459	wordpools/wasnorm_wordpool_576.txt	LTP349	ltpFR2	10	14	TREAT	1501	n/a	n/a	0	0	0
2933.37109375	n/a	WORD	6007544	wordpools/wasnorm_wordpool_576.txt	LTP349	ltpFR2	10	14	TART	1436	n/a	n/a	0	0	0
2936.1201171875	n/a	WORD	6013174	wordpools/wasnorm_wordpool_576.txt	LTP349	ltpFR2	10	14	CAMEL	223	n/a	n/a	0	0	0
2938.68505859375	n/a	WORD	6018427	wordpools/wasnorm_wordpool_576.txt	LTP349	ltpFR2	10	14	SANDWICH	1232	n/a	n/a	0	0	0
2941.466796875	n/a	WORD	6024124	wordpools/wasnorm_wordpool_576.txt	LTP349	ltpFR2	10	14	KETCHUP	771	n/a	n/a	0	0	0
2943.8984375	n/a	WORD	6029104	wordpools/wasnorm_wordpool_576.txt	LTP349	ltpFR2	10	14	SADDLE	1221	n/a	n/a	0	0	0
2946.33154296875	n/a	WORD	6034087	wordpools/wasnorm_wordpool_576.txt	LTP349	ltpFR2	10	14	HOUND	724	n/a	n/a	0	0	0
2948.77978515625	n/a	WORD	6039101	wordpools/wasnorm_wordpool_576.txt	LTP349	ltpFR2	10	14	BEEF	113	n/a	n/a	0	0	0
2951.396484375	n/a	WORD	6044460	wordpools/wasnorm_wordpool_576.txt	LTP349	ltpFR2	10	14	DRILL	497	n/a	n/a	0	0	0
2954.0615234375	n/a	WORD	6049918	wordpools/wasnorm_wordpool_576.txt	LTP349	ltpFR2	10	14	COOK	372	n/a	n/a	0	0	0
2956.576171875	n/a	WORD	6055068	wordpools/wasnorm_wordpool_576.txt	LTP349	ltpFR2	10	14	TURKEY	1520	n/a	n/a	0	0	0
2959.09228515625	n/a	WORD	6060221	wordpools/wasnorm_wordpool_576.txt	LTP349	ltpFR2	10	14	SIDEWALK	1303	n/a	n/a	0	0	0
2961.7900390625	n/a	WORD	6065746	wordpools/wasnorm_wordpool_576.txt	LTP349	ltpFR2	10	14	LEOPARD	812	n/a	n/a	0	0	0
2964.47216796875	n/a	WORD	6071239	wordpools/wasnorm_wordpool_576.txt	LTP349	ltpFR2	10	14	CITRUS	313	n/a	n/a	0	0	0
2967.13818359375	n/a	WORD	6076699	wordpools/wasnorm_wordpool_576.txt	LTP349	ltpFR2	10	14	ORANGE	980	n/a	n/a	0	0	0
2969.73583984375	n/a	WORD	6082019	wordpools/wasnorm_wordpool_576.txt	LTP349	ltpFR2	10	14	GRAVEL	659	n/a	n/a	0	0	0
2972.5517578125	n/a	WORD	6087786	wordpools/wasnorm_wordpool_576.txt	LTP349	ltpFR2	10	14	LION	827	n/a	n/a	0	0	0
2975.05078125	n/a	WORD	6092904	wordpools/wasnorm_wordpool_576.txt	LTP349	ltpFR2	10	14	RUG	1215	n/a	n/a	0	0	0
2976.6669921875	n/a	START	6096214	n/a	LTP349	ltpFR2	10	n/a	n/a	n/a	21	n/a	n/a	n/a	n/a
2977.83251953125	n/a	DISTRACTOR	6098601	n/a	LTP349	ltpFR2	10	14	n/a	n/a	n/a	n/a	0	0	0
2977.8486328125	n/a	PROB	6098634	n/a	LTP349	ltpFR2	10	n/a	n/a	n/a	21	18	9	3	6
2980.19873046875	n/a	PROB	6103447	n/a	LTP349	ltpFR2	10	n/a	n/a	n/a	21	22	9	7	6
2983.16455078125	n/a	PROB	6109521	n/a	LTP349	ltpFR2	10	n/a	n/a	n/a	21	12	2	8	2
2984.87841796875	n/a	PROB	6113031	n/a	LTP349	ltpFR2	10	n/a	n/a	n/a	21	2	9	7	7
2998.39013671875	n/a	PROB	6140703	n/a	LTP349	ltpFR2	10	n/a	n/a	n/a	21	16	8	1	7
3000.486328125	n/a	STOP	6144996	n/a	LTP349	ltpFR2	10	n/a	n/a	n/a	21	n/a	n/a	n/a	n/a
3002.5712890625	n/a	REC_START	6149266	n/a	LTP349	ltpFR2	10	14	n/a	n/a	n/a	n/a	0	0	0
3007.4208984375	n/a	REC_WORD	6159198	wordpools/wasnorm_wordpool_576.txt	LTP349	ltpFR2	10	14	SIDEWALK	1303	n/a	n/a	0	0	0
3093.0107421875	n/a	WORD	6334486	wordpools/wasnorm_wordpool_576.txt	LTP349	ltpFR2	10	15	UMPIRE	1535	n/a	n/a	0	0	0
3095.609375	n/a	WORD	6339808	wordpools/wasnorm_wordpool_576.txt	LTP349	ltpFR2	10	15	SOFTBALL	1343	n/a	n/a	0	0	0
3098.12548828125	n/a	WORD	6344961	wordpools/wasnorm_wordpool_576.txt	LTP349	ltpFR2	10	15	SUBWAY	1400	n/a	n/a	0	0	0
3100.5732421875	n/a	WORD	6349974	wordpools/wasnorm_wordpool_576.txt	LTP349	ltpFR2	10	15	BACON	67	n/a	n/a	0	0	0
3103.05615234375	n/a	WORD	6355059	wordpools/wasnorm_wordpool_576.txt	LTP349	ltpFR2	10	15	LEADER	807	n/a	n/a	0	0	0
3105.75439453125	n/a	WORD	6360585	wordpools/wasnorm_wordpool_576.txt	LTP349	ltpFR2	10	15	SERVER	1272	n/a	n/a	0	0	0
3108.43603515625	n/a	WORD	6366077	wordpools/wasnorm_wordpool_576.txt	LTP349	ltpFR2	10	15	FLIPPER	580	n/a	n/a	0	0	0
3110.93505859375	n/a	WORD	6371195	wordpools/wasnorm_wordpool_576.txt	LTP349	ltpFR2	10	15	SHELF	1280	n/a	n/a	0	0	0
3113.56689453125	n/a	WORD	6376585	wordpools/wasnorm_wordpool_576.txt	LTP349	ltpFR2	10	15	OMELET	976	n/a	n/a	0	0	0
3116.1337890625	n/a	WORD	6381842	wordpools/wasnorm_wordpool_576.txt	LTP349	ltpFR2	10	15	CAPTIVE	240	n/a	n/a	0	0	0
3118.748046875	n/a	WORD	6387196	wordpools/wasnorm_wordpool_576.txt	LTP349	ltpFR2	10	15	OUTLAW	989	n/a	n/a	0	0	0
3121.4296875	n/a	WORD	6392688	wordpools/wasnorm_wordpool_576.txt	LTP349	ltpFR2	10	15	THIEF	1456	n/a	n/a	0	0	0
3123.86181640625	n/a	WORD	6397669	wordpools/wasnorm_wordpool_576.txt	LTP349	ltpFR2	10	15	MASK	876	n/a	n/a	0	0	0
3126.6279296875	n/a	WORD	6403334	wordpools/wasnorm_wordpool_576.txt	LTP349	ltpFR2	10	15	HORSE	719	n/a	n/a	0	0	0
3129.24365234375	n/a	WORD	6408691	wordpools/wasnorm_wordpool_576.txt	LTP349	ltpFR2	10	15	GLOVE	642	n/a	n/a	0	0	0
3131.7744140625	n/a	WORD	6413874	wordpools/wasnorm_wordpool_576.txt	LTP349	ltpFR2	10	15	RADISH	1158	n/a	n/a	0	0	0
3134.224609375	n/a	WORD	6418892	wordpools/wasnorm_wordpool_576.txt	LTP349	ltpFR2	10	15	PIZZA	1079	n/a	n/a	0	0	0
3136.8056640625	n/a	WORD	6424178	wordpools/wasnorm_wordpool_576.txt	LTP349	ltpFR2	10	15	PISTOL	1075	n/a	n/a	0	0	0
3139.30517578125	n/a	WORD	6429297	wordpools/wasnorm_wordpool_576.txt	LTP349	ltpFR2	10	15	TWEEZERS	1526	n/a	n/a	0	0	0
3141.7373046875	n/a	WORD	6434278	wordpools/wasnorm_wordpool_576.txt	LTP349	ltpFR2	10	15	IGLOO	734	n/a	n/a	0	0	0
3144.30322265625	n/a	WORD	6439533	wordpools/wasnorm_wordpool_576.txt	LTP349	ltpFR2	10	15	RIVER	1194	n/a	n/a	0	0	0
3146.7841796875	n/a	WORD	6444614	wordpools/wasnorm_wordpool_576.txt	LTP349	ltpFR2	10	15	JOURNAL	760	n/a	n/a	0	0	0
3149.333984375	n/a	WORD	6449836	wordpools/wasnorm_wordpool_576.txt	LTP349	ltpFR2	10	15	QUARTER	1148	n/a	n/a	0	0	0
3151.81494140625	n/a	WORD	6454917	wordpools/wasnorm_wordpool_576.txt	LTP349	ltpFR2	10	15	TRUCK	1512	n/a	n/a	0	0	0
3153.43212890625	n/a	START	6458229	n/a	LTP349	ltpFR2	10	n/a	n/a	n/a	22	n/a	n/a	n/a	n/a
3154.48779296875	n/a	DISTRACTOR	6460391	n/a	LTP349	ltpFR2	10	15	n/a	n/a	n/a	n/a	0	0	0
3154.498046875	n/a	PROB	6460412	n/a	LTP349	ltpFR2	10	n/a	n/a	n/a	22	7	4	2	1
3168.7734375	n/a	PROB	6489648	n/a	LTP349	ltpFR2	10	n/a	n/a	n/a	22	19	4	8	7
3174.33837890625	n/a	PROB	6501045	n/a	LTP349	ltpFR2	10	n/a	n/a	n/a	22	20	8	6	6
3176.119140625	n/a	STOP	6504692	n/a	LTP349	ltpFR2	10	n/a	n/a	n/a	22	n/a	n/a	n/a	n/a
3179.203125	n/a	REC_START	6511008	n/a	LTP349	ltpFR2	10	15	n/a	n/a	n/a	n/a	0	0	0
3205.11865234375	n/a	REC_WORD	6564083	wordpools/wasnorm_wordpool_576.txt	LTP349	ltpFR2	10	15	IGLOO	734	n/a	n/a	0	0	0
3269.6416015625	n/a	DISTRACTOR	6696226	n/a	LTP349	ltpFR2	10	16	n/a	n/a	n/a	n/a	0	0	0
3269.6416015625	n/a	START	6696226	n/a	LTP349	ltpFR2	10	n/a	n/a	n/a	23	n/a	n/a	n/a	n/a
3269.65869140625	n/a	PROB	6696261	n/a	LTP349	ltpFR2	10	n/a	n/a	n/a	23	14	7	4	3
3271.5908203125	n/a	PROB	6700218	n/a	LTP349	ltpFR2	10	n/a	n/a	n/a	23	18	4	5	9
3273.69091796875	n/a	PROB	6704519	n/a	LTP349	ltpFR2	10	n/a	n/a	n/a	23	14	2	4	8
3277.3896484375	n/a	PROB	6712094	n/a	LTP349	ltpFR2	10	n/a	n/a	n/a	23	16	7	3	6
3279.271484375	n/a	PROB	6715948	n/a	LTP349	ltpFR2	10	n/a	n/a	n/a	23	15	8	3	4
3283.1865234375	n/a	PROB	6723966	n/a	LTP349	ltpFR2	10	n/a	n/a	n/a	23	18	7	7	4
3285.25244140625	n/a	PROB	6728197	n/a	LTP349	ltpFR2	10	n/a	n/a	n/a	23	19	7	3	9
3287.2685546875	n/a	PROB	6732326	n/a	LTP349	ltpFR2	10	n/a	n/a	n/a	23	13	7	2	4
3289.79931640625	n/a	PROB	6737509	n/a	LTP349	ltpFR2	10	n/a	n/a	n/a	23	18	8	8	2
3293.64111328125	n/a	STOP	6745377	n/a	LTP349	ltpFR2	10	n/a	n/a	n/a	23	n/a	n/a	n/a	n/a
3294.76318359375	n/a	WORD	6747675	wordpools/wasnorm_wordpool_576.txt	LTP349	ltpFR2	10	16	LETTUCE	814	n/a	n/a	0	0	0
3297.1962890625	n/a	WORD	6752658	wordpools/wasnorm_wordpool_576.txt	LTP349	ltpFR2	10	16	PIMPLE	1071	n/a	n/a	0	0	0
3299.9609375	n/a	WORD	6758320	wordpools/wasnorm_wordpool_576.txt	LTP349	ltpFR2	10	16	BUG	187	n/a	n/a	0	0	0
3302.5927734375	n/a	WORD	6763710	wordpools/wasnorm_wordpool_576.txt	LTP349	ltpFR2	10	16	PUDDLE	1140	n/a	n/a	0	0	0
3305.3759765625	n/a	WORD	6769410	wordpools/wasnorm_wordpool_576.txt	LTP349	ltpFR2	10	16	PATIENT	1024	n/a	n/a	0	0	0
3307.87353515625	n/a	WORD	6774525	wordpools/wasnorm_wordpool_576.txt	LTP349	ltpFR2	10	16	BANQUET	86	n/a	n/a	0	0	0
3310.57275390625	n/a	WORD	6780053	wordpools/wasnorm_wordpool_576.txt	LTP349	ltpFR2	10	16	FLASK	576	n/a	n/a	0	0	0
3313.07275390625	n/a	WORD	6785173	wordpools/wasnorm_wordpool_576.txt	LTP349	ltpFR2	10	16	FLEET	578	n/a	n/a	0	0	0
3315.50341796875	n/a	WORD	6790151	wordpools/wasnorm_wordpool_576.txt	LTP349	ltpFR2	10	16	COCOON	339	n/a	n/a	0	0	0
3318.26953125	n/a	WORD	6795816	wordpools/wasnorm_wordpool_576.txt	LTP349	ltpFR2	10	16	GYMNAST	675	n/a	n/a	0	0	0
3321.068359375	n/a	WORD	6801548	wordpools/wasnorm_wordpool_576.txt	LTP349	ltpFR2	10	16	MEDAL	885	n/a	n/a	0	0	0
3323.54931640625	n/a	WORD	6806629	wordpools/wasnorm_wordpool_576.txt	LTP349	ltpFR2	10	16	PIGEON	1065	n/a	n/a	0	0	0
3326.04931640625	n/a	WORD	6811749	wordpools/wasnorm_wordpool_576.txt	LTP349	ltpFR2	10	16	RECORD	1176	n/a	n/a	0	0	0
3328.81298828125	n/a	WORD	6817409	wordpools/wasnorm_wordpool_576.txt	LTP349	ltpFR2	10	16	CONCERT	360	n/a	n/a	0	0	0
3331.5458984375	n/a	WORD	6823006	wordpools/wasnorm_wordpool_576.txt	LTP349	ltpFR2	10	16	CROSS	413	n/a	n/a	0	0	0
3334.2119140625	n/a	WORD	6828466	wordpools/wasnorm_wordpool_576.txt	LTP349	ltpFR2	10	16	TEMPLE	1448	n/a	n/a	0	0	0
3336.7099609375	n/a	WORD	6833582	wordpools/wasnorm_wordpool_576.txt	LTP349	ltpFR2	10	16	STAR	1373	n/a	n/a	0	0	0
3339.29296875	n/a	WORD	6838872	wordpools/wasnorm_wordpool_576.txt	LTP349	ltpFR2	10	16	PENGUIN	1044	n/a	n/a	0	0	0
3342.0068359375	n/a	WORD	6844430	wordpools/wasnorm_wordpool_576.txt	LTP349	ltpFR2	10	16	FRIAR	605	n/a	n/a	0	0	0
3344.48974609375	n/a	WORD	6849515	wordpools/wasnorm_wordpool_576.txt	LTP349	ltpFR2	10	16	SEAL	1262	n/a	n/a	0	0	0
3347.3056640625	n/a	WORD	6855282	wordpools/wasnorm_wordpool_576.txt	LTP349	ltpFR2	10	16	HORNET	718	n/a	n/a	0	0	0
3350.07080078125	n/a	WORD	6860945	wordpools/wasnorm_wordpool_576.txt	LTP349	ltpFR2	10	16	CHAUFFEUR	283	n/a	n/a	0	0	0
3352.7685546875	n/a	WORD	6866470	wordpools/wasnorm_wordpool_576.txt	LTP349	ltpFR2	10	16	BUTCHER	203	n/a	n/a	0	0	0
3355.2685546875	n/a	WORD	6871590	wordpools/wasnorm_wordpool_576.txt	LTP349	ltpFR2	10	16	PADDLE	1000	n/a	n/a	0	0	0
3356.88330078125	n/a	START	6874897	n/a	LTP349	ltpFR2	10	n/a	n/a	n/a	24	n/a	n/a	n/a	n/a
3357.99755859375	n/a	DISTRACTOR	6877179	n/a	LTP349	ltpFR2	10	16	n/a	n/a	n/a	n/a	0	0	0
3357.99951171875	n/a	PROB	6877183	n/a	LTP349	ltpFR2	10	n/a	n/a	n/a	24	14	8	4	2
3360.76513671875	n/a	PROB	6882847	n/a	LTP349	ltpFR2	10	n/a	n/a	n/a	24	19	6	4	9
3362.63037109375	n/a	PROB	6886667	n/a	LTP349	ltpFR2	10	n/a	n/a	n/a	24	12	1	9	2
3364.0810546875	n/a	PROB	6889638	n/a	LTP349	ltpFR2	10	n/a	n/a	n/a	24	6	1	1	4
3365.5791015625	n/a	PROB	6892706	n/a	LTP349	ltpFR2	10	n/a	n/a	n/a	24	11	3	3	5
3367.1962890625	n/a	PROB	6896018	n/a	LTP349	ltpFR2	10	n/a	n/a	n/a	24	14	5	7	2
3369.3623046875	n/a	PROB	6900454	n/a	LTP349	ltpFR2	10	n/a	n/a	n/a	24	12	2	2	8
3371.72607421875	n/a	PROB	6905295	n/a	LTP349	ltpFR2	10	n/a	n/a	n/a	24	21	8	4	9
3376.80712890625	n/a	PROB	6915701	n/a	LTP349	ltpFR2	10	n/a	n/a	n/a	24	20	9	4	7
3380.28857421875	n/a	STOP	6922831	n/a	LTP349	ltpFR2	10	n/a	n/a	n/a	24	n/a	n/a	n/a	n/a
3382.70458984375	n/a	REC_START	6927779	n/a	LTP349	ltpFR2	10	16	n/a	n/a	n/a	n/a	0	0	0
3384.16064453125	n/a	REC_WORD	6930761	wordpools/wasnorm_wordpool_576.txt	LTP349	ltpFR2	10	16	PADDLE	1000	n/a	n/a	0	0	0
3385.3388671875	n/a	REC_WORD	6933174	wordpools/wasnorm_wordpool_576.txt	LTP349	ltpFR2	10	16	PADDLE	1000	n/a	n/a	0	0	0
3386.435546875	n/a	REC_WORD	6935420	wordpools/wasnorm_wordpool_576.txt	LTP349	ltpFR2	10	16	HORNET	718	n/a	n/a	0	0	0
3387.58349609375	n/a	REC_WORD	6937771	wordpools/wasnorm_wordpool_576.txt	LTP349	ltpFR2	10	16	PIMPLE	1071	n/a	n/a	0	0	0
3388.3564453125	n/a	REC_WORD	6939354	wordpools/wasnorm_wordpool_576.txt	LTP349	ltpFR2	10	16	LETTUCE	814	n/a	n/a	0	0	0
3389.65869140625	n/a	REC_WORD	6942021	wordpools/wasnorm_wordpool_576.txt	LTP349	ltpFR2	10	16	BUG	187	n/a	n/a	0	0	0
3390.970703125	n/a	REC_WORD	6944708	wordpools/wasnorm_wordpool_576.txt	LTP349	ltpFR2	10	16	BANQUET	86	n/a	n/a	0	0	0
3394.46240234375	n/a	REC_WORD	6951859	wordpools/wasnorm_wordpool_576.txt	LTP349	ltpFR2	10	16	COCOON	339	n/a	n/a	0	0	0
3395.70458984375	n/a	REC_WORD	6954403	wordpools/wasnorm_wordpool_576.txt	LTP349	ltpFR2	10	16	FLEET	578	n/a	n/a	0	0	0
3398.6162109375	n/a	REC_WORD	6960366	wordpools/wasnorm_wordpool_576.txt	LTP349	ltpFR2	10	16	GYMNAST	675	n/a	n/a	0	0	0
3400.5732421875	n/a	REC_WORD	6964374	wordpools/wasnorm_wordpool_576.txt	LTP349	ltpFR2	10	16	RECORD	1176	n/a	n/a	0	0	0
3404.9091796875	n/a	REC_WORD	6973254	wordpools/wasnorm_wordpool_576.txt	LTP349	ltpFR2	10	16	MEDAL	885	n/a	n/a	0	0	0
3414.1728515625	n/a	REC_WORD	6992226	wordpools/wasnorm_wordpool_576.txt	LTP349	ltpFR2	10	16	FRIAR	605	n/a	n/a	0	0	0
3459.25146484375	n/a	REST_REWET	7084547	n/a	LTP349	ltpFR2	10	16	n/a	n/a	n/a	n/a	0	0	0
3612.84326171875	n/a	DISTRACTOR	7399103	n/a	LTP349	ltpFR2	10	17	n/a	n/a	n/a	n/a	0	0	0
3612.84423828125	n/a	START	7399105	n/a	LTP349	ltpFR2	10	n/a	n/a	n/a	25	n/a	n/a	n/a	n/a
3612.8603515625	n/a	PROB	7399138	n/a	LTP349	ltpFR2	10	n/a	n/a	n/a	25	15	2	8	5
3614.95947265625	n/a	PROB	7403437	n/a	LTP349	ltpFR2	10	n/a	n/a	n/a	25	11	4	2	5
3616.84228515625	n/a	PROB	7407293	n/a	LTP349	ltpFR2	10	n/a	n/a	n/a	25	19	6	6	7
3618.44140625	n/a	PROB	7410568	n/a	LTP349	ltpFR2	10	n/a	n/a	n/a	25	7	3	1	3
3619.89013671875	n/a	PROB	7413535	n/a	LTP349	ltpFR2	10	n/a	n/a	n/a	25	16	6	6	4
3622.0400390625	n/a	PROB	7417938	n/a	LTP349	ltpFR2	10	n/a	n/a	n/a	25	13	3	3	7
3624.43798828125	n/a	PROB	7422849	n/a	LTP349	ltpFR2	10	n/a	n/a	n/a	25	9	2	2	5
3625.9541015625	n/a	PROB	7425954	n/a	LTP349	ltpFR2	10	n/a	n/a	n/a	25	13	1	6	5
3627.72021484375	n/a	PROB	7429571	n/a	LTP349	ltpFR2	10	n/a	n/a	n/a	25	10	4	5	1
3629.7021484375	n/a	PROB	7433630	n/a	LTP349	ltpFR2	10	n/a	n/a	n/a	25	17	4	9	4
3634.11767578125	n/a	PROB	7442673	n/a	LTP349	ltpFR2	10	n/a	n/a	n/a	25	6	2	2	2
3635.97607421875	n/a	STOP	7446479	n/a	LTP349	ltpFR2	10	n/a	n/a	n/a	25	n/a	n/a	n/a	n/a
3637.681640625	n/a	WORD	7449972	wordpools/wasnorm_wordpool_576.txt	LTP349	ltpFR2	10	17	FLAG	573	n/a	n/a	0	0	0
3640.24853515625	n/a	WORD	7455229	wordpools/wasnorm_wordpool_576.txt	LTP349	ltpFR2	10	17	KNAPSACK	783	n/a	n/a	0	0	0
3642.77978515625	n/a	WORD	7460413	wordpools/wasnorm_wordpool_576.txt	LTP349	ltpFR2	10	17	BROOK	177	n/a	n/a	0	0	0
3645.51171875	n/a	WORD	7466008	wordpools/wasnorm_wordpool_576.txt	LTP349	ltpFR2	10	17	GOBLIN	645	n/a	n/a	0	0	0
3648.29443359375	n/a	WORD	7471707	wordpools/wasnorm_wordpool_576.txt	LTP349	ltpFR2	10	17	QUAIL	1147	n/a	n/a	0	0	0
3650.87548828125	n/a	WORD	7476993	wordpools/wasnorm_wordpool_576.txt	LTP349	ltpFR2	10	17	CLAMP	316	n/a	n/a	0	0	0
3653.34228515625	n/a	WORD	7482045	wordpools/wasnorm_wordpool_576.txt	LTP349	ltpFR2	10	17	DONOR	485	n/a	n/a	0	0	0
3655.87353515625	n/a	WORD	7487229	wordpools/wasnorm_wordpool_576.txt	LTP349	ltpFR2	10	17	KIDNEY	776	n/a	n/a	0	0	0
3658.50537109375	n/a	WORD	7492619	wordpools/wasnorm_wordpool_576.txt	LTP349	ltpFR2	10	17	CANAL	226	n/a	n/a	0	0	0
3661.10498046875	n/a	WORD	7497943	wordpools/wasnorm_wordpool_576.txt	LTP349	ltpFR2	10	17	MARS	873	n/a	n/a	0	0	0
3663.71923828125	n/a	WORD	7503297	wordpools/wasnorm_wordpool_576.txt	LTP349	ltpFR2	10	17	GRAVE	658	n/a	n/a	0	0	0
3666.53515625	n/a	WORD	7509064	wordpools/wasnorm_wordpool_576.txt	LTP349	ltpFR2	10	17	CASKET	255	n/a	n/a	0	0	0
3669.2509765625	n/a	WORD	7514626	wordpools/wasnorm_wordpool_576.txt	LTP349	ltpFR2	10	17	CREATURE	403	n/a	n/a	0	0	0
3671.916015625	n/a	WORD	7520084	wordpools/wasnorm_wordpool_576.txt	LTP349	ltpFR2	10	17	CRAB	397	n/a	n/a	0	0	0
3674.4638671875	n/a	WORD	7525302	wordpools/wasnorm_wordpool_576.txt	LTP349	ltpFR2	10	17	PANTHER	1009	n/a	n/a	0	0	0
3677.09765625	n/a	WORD	7530696	wordpools/wasnorm_wordpool_576.txt	LTP349	ltpFR2	10	17	DRESSER	496	n/a	n/a	0	0	0
3679.74462890625	n/a	WORD	7536117	wordpools/wasnorm_wordpool_576.txt	LTP349	ltpFR2	10	17	CUPBOARD	425	n/a	n/a	0	0	0
3682.427734375	n/a	WORD	7541612	wordpools/wasnorm_wordpool_576.txt	LTP349	ltpFR2	10	17	INMATE	738	n/a	n/a	0	0	0
3684.87548828125	n/a	WORD	7546625	wordpools/wasnorm_wordpool_576.txt	LTP349	ltpFR2	10	17	GAVEL	627	n/a	n/a	0	0	0
3687.62451171875	n/a	WORD	7552255	wordpools/wasnorm_wordpool_576.txt	LTP349	ltpFR2	10	17	THREAD	1460	n/a	n/a	0	0	0
3690.40625	n/a	WORD	7557952	wordpools/wasnorm_wordpool_576.txt	LTP349	ltpFR2	10	17	MAMMAL	861	n/a	n/a	0	0	0
3692.92236328125	n/a	WORD	7563105	wordpools/wasnorm_wordpool_576.txt	LTP349	ltpFR2	10	17	SALMON	1227	n/a	n/a	0	0	0
3695.52099609375	n/a	WORD	7568427	wordpools/wasnorm_wordpool_576.txt	LTP349	ltpFR2	10	17	CONTRACT	368	n/a	n/a	0	0	0
3698.169921875	n/a	WORD	7573852	wordpools/wasnorm_wordpool_576.txt	LTP349	ltpFR2	10	17	OX	994	n/a	n/a	0	0	0
3699.7861328125	n/a	START	7577162	n/a	LTP349	ltpFR2	10	n/a	n/a	n/a	26	n/a	n/a	n/a	n/a
3700.7392578125	n/a	DISTRACTOR	7579114	n/a	LTP349	ltpFR2	10	17	n/a	n/a	n/a	n/a	0	0	0
3700.7509765625	n/a	PROB	7579138	n/a	LTP349	ltpFR2	10	n/a	n/a	n/a	26	15	2	5	8
3702.76708984375	n/a	PROB	7583267	n/a	LTP349	ltpFR2	10	n/a	n/a	n/a	26	15	8	3	4
3704.7998046875	n/a	PROB	7587430	n/a	LTP349	ltpFR2	10	n/a	n/a	n/a	26	7	3	3	1
3706.666015625	n/a	PROB	7591252	n/a	LTP349	ltpFR2	10	n/a	n/a	n/a	26	15	3	7	5
3708.06591796875	n/a	PROB	7594119	n/a	LTP349	ltpFR2	10	n/a	n/a	n/a	26	17	3	6	8
3711.11376953125	n/a	PROB	7600361	n/a	LTP349	ltpFR2	10	n/a	n/a	n/a	26	16	7	6	3
3713.296875	n/a	PROB	7604832	n/a	LTP349	ltpFR2	10	n/a	n/a	n/a	26	14	4	7	3
3715.12890625	n/a	PROB	7608584	n/a	LTP349	ltpFR2	10	n/a	n/a	n/a	26	12	4	4	3
3720.1767578125	n/a	PROB	7618922	n/a	LTP349	ltpFR2	10	n/a	n/a	n/a	26	10	8	1	1
3723.78564453125	n/a	STOP	7626313	n/a	LTP349	ltpFR2	10	n/a	n/a	n/a	26	n/a	n/a	n/a	n/a
3725.6904296875	n/a	REC_START	7630214	n/a	LTP349	ltpFR2	10	17	n/a	n/a	n/a	n/a	0	0	0
3727.83154296875	n/a	REC_WORD	7634599	wordpools/wasnorm_wordpool_576.txt	LTP349	ltpFR2	10	17	INMATE	738	n/a	n/a	0	0	0
3729.201171875	n/a	REC_WORD	7637404	wordpools/wasnorm_wordpool_576.txt	LTP349	ltpFR2	10	17	GAVEL	627	n/a	n/a	0	0	0
3730.14404296875	n/a	REC_WORD	7639335	wordpools/wasnorm_wordpool_576.txt	LTP349	ltpFR2	10	17	THREAD	1460	n/a	n/a	0	0	0
3731.4833984375	n/a	REC_WORD	7642078	wordpools/wasnorm_wordpool_576.txt	LTP349	ltpFR2	10	17	MAMMAL	861	n/a	n/a	0	0	0
3733.09326171875	n/a	REC_WORD	7645375	wordpools/wasnorm_wordpool_576.txt	LTP349	ltpFR2	10	17	SALMON	1227	n/a	n/a	0	0	0
3734.97509765625	n/a	REC_WORD	7649229	wordpools/wasnorm_wordpool_576.txt	LTP349	ltpFR2	10	17	BROOK	177	n/a	n/a	0	0	0
3735.8212890625	n/a	REC_WORD	7650962	wordpools/wasnorm_wordpool_576.txt	LTP349	ltpFR2	10	17	CANAL	226	n/a	n/a	0	0	0
3737.17431640625	n/a	REC_WORD	7653733	wordpools/wasnorm_wordpool_576.txt	LTP349	ltpFR2	10	17	GOBLIN	645	n/a	n/a	0	0	0
3741.3359375	n/a	REC_WORD	7662256	wordpools/wasnorm_wordpool_576.txt	LTP349	ltpFR2	10	17	QUAIL	1147	n/a	n/a	0	0	0
3747.9697265625	n/a	REC_WORD	7675842	wordpools/wasnorm_wordpool_576.txt	LTP349	ltpFR2	10	17	INMATE	738	n/a	n/a	0	0	0
3816.130859375	n/a	WORD	7815436	wordpools/wasnorm_wordpool_576.txt	LTP349	ltpFR2	10	18	DENTIST	447	n/a	n/a	0	0	0
3818.81201171875	n/a	WORD	7820927	wordpools/wasnorm_wordpool_576.txt	LTP349	ltpFR2	10	18	DUSTPAN	509	n/a	n/a	0	0	0
3821.5439453125	n/a	WORD	7826522	wordpools/wasnorm_wordpool_576.txt	LTP349	ltpFR2	10	18	FILM	565	n/a	n/a	0	0	0
3824.35986328125	n/a	WORD	7832289	wordpools/wasnorm_wordpool_576.txt	LTP349	ltpFR2	10	18	BUBBLE	183	n/a	n/a	0	0	0
3827.0087890625	n/a	WORD	7837714	wordpools/wasnorm_wordpool_576.txt	LTP349	ltpFR2	10	18	BRACES	164	n/a	n/a	0	0	0
3829.439453125	n/a	WORD	7842692	wordpools/wasnorm_wordpool_576.txt	LTP349	ltpFR2	10	18	HEDGE	699	n/a	n/a	0	0	0
3832.08935546875	n/a	WORD	7848119	wordpools/wasnorm_wordpool_576.txt	LTP349	ltpFR2	10	18	LILY	821	n/a	n/a	0	0	0
3834.53759765625	n/a	WORD	7853133	wordpools/wasnorm_wordpool_576.txt	LTP349	ltpFR2	10	18	SIBLING	1301	n/a	n/a	0	0	0
3837.05322265625	n/a	WORD	7858285	wordpools/wasnorm_wordpool_576.txt	LTP349	ltpFR2	10	18	MUFFIN	929	n/a	n/a	0	0	0
3839.80126953125	n/a	WORD	7863913	wordpools/wasnorm_wordpool_576.txt	LTP349	ltpFR2	10	18	PLATE	1086	n/a	n/a	0	0	0
3842.4833984375	n/a	WORD	7869406	wordpools/wasnorm_wordpool_576.txt	LTP349	ltpFR2	10	18	CIGAR	308	n/a	n/a	0	0	0
3845.30029296875	n/a	WORD	7875175	wordpools/wasnorm_wordpool_576.txt	LTP349	ltpFR2	10	18	HAWK	692	n/a	n/a	0	0	0
3847.84814453125	n/a	WORD	7880393	wordpools/wasnorm_wordpool_576.txt	LTP349	ltpFR2	10	18	PERCH	1048	n/a	n/a	0	0	0
3850.4130859375	n/a	WORD	7885646	wordpools/wasnorm_wordpool_576.txt	LTP349	ltpFR2	10	18	GARDEN	623	n/a	n/a	0	0	0
3852.87890625	n/a	WORD	7890696	wordpools/wasnorm_wordpool_576.txt	LTP349	ltpFR2	10	18	LACE	792	n/a	n/a	0	0	0
3855.61083984375	n/a	WORD	7896291	wordpools/wasnorm_wordpool_576.txt	LTP349	ltpFR2	10	18	DUST	508	n/a	n/a	0	0	0
3858.2099609375	n/a	WORD	7901614	wordpools/wasnorm_wordpool_576.txt	LTP349	ltpFR2	10	18	MOP	916	n/a	n/a	0	0	0
3860.82470703125	n/a	WORD	7906969	wordpools/wasnorm_wordpool_576.txt	LTP349	ltpFR2	10	18	DIVER	476	n/a	n/a	0	0	0
3863.2578125	n/a	WORD	7911952	wordpools/wasnorm_wordpool_576.txt	LTP349	ltpFR2	10	18	SPOON	1357	n/a	n/a	0	0	0
3865.85546875	n/a	WORD	7917272	wordpools/wasnorm_wordpool_576.txt	LTP349	ltpFR2	10	18	PEACH	1031	n/a	n/a	0	0	0
3868.62060546875	n/a	WORD	7922935	wordpools/wasnorm_wordpool_576.txt	LTP349	ltpFR2	10	18	PORTRAIT	1111	n/a	n/a	0	0	0
3871.2373046875	n/a	WORD	7928294	wordpools/wasnorm_wordpool_576.txt	LTP349	ltpFR2	10	18	SKETCH	1315	n/a	n/a	0	0	0
3874.01953125	n/a	WORD	7933992	wordpools/wasnorm_wordpool_576.txt	LTP349	ltpFR2	10	18	PORK	1108	n/a	n/a	0	0	0
3876.68310546875	n/a	WORD	7939447	wordpools/wasnorm_wordpool_576.txt	LTP349	ltpFR2	10	18	ROBIN	1199	n/a	n/a	0	0	0
3878.30126953125	n/a	START	7942761	n/a	LTP349	ltpFR2	10	n/a	n/a	n/a	27	n/a	n/a	n/a	n/a
3879.39306640625	n/a	DISTRACTOR	7944997	n/a	LTP349	ltpFR2	10	18	n/a	n/a	n/a	n/a	0	0	0
3879.3994140625	n/a	PROB	7945010	n/a	LTP349	ltpFR2	10	n/a	n/a	n/a	27	20	6	7	7
3881.2822265625	n/a	PROB	7948866	n/a	LTP349	ltpFR2	10	n/a	n/a	n/a	27	8	5	2	1
3882.8310546875	n/a	PROB	7952038	n/a	LTP349	ltpFR2	10	n/a	n/a	n/a	27	9	2	6	1
3884.4970703125	n/a	PROB	7955450	n/a	LTP349	ltpFR2	10	n/a	n/a	n/a	27	12	7	4	1
3888.17919921875	n/a	PROB	7962991	n/a	LTP349	ltpFR2	10	n/a	n/a	n/a	27	13	6	2	7
3890.97705078125	n/a	PROB	7968721	n/a	LTP349	ltpFR2	10	n/a	n/a	n/a	27	20	9	5	6
3894.841796875	n/a	PROB	7976636	n/a	LTP349	ltpFR2	10	n/a	n/a	n/a	27	4	1	2	1
3896.0419921875	n/a	PROB	7979094	n/a	LTP349	ltpFR2	10	n/a	n/a	n/a	27	10	1	1	8
3897.423828125	n/a	PROB	7981924	n/a	LTP349	ltpFR2	10	n/a	n/a	n/a	27	19	3	8	8
3899.24072265625	n/a	PROB	7985645	n/a	LTP349	ltpFR2	10	n/a	n/a	n/a	27	18	8	6	4
3901.3056640625	n/a	STOP	7989874	n/a	LTP349	ltpFR2	10	n/a	n/a	n/a	27	n/a	n/a	n/a	n/a
3904.07275390625	n/a	REC_START	7995541	n/a	LTP349	ltpFR2	10	18	n/a	n/a	n/a	n/a	0	0	0
3907.91455078125	n/a	REC_WORD	8003409	wordpools/wasnorm_wordpool_576.txt	LTP349	ltpFR2	10	18	DUSTPAN	509	n/a	n/a	0	0	0
3909.7314453125	n/a	REC_WORD	8007130	wordpools/wasnorm_wordpool_576.txt	LTP349	ltpFR2	10	18	DUST	508	n/a	n/a	0	0	0
3911.1904296875	n/a	REC_WORD	8010118	wordpools/wasnorm_wordpool_576.txt	LTP349	ltpFR2	10	18	DENTIST	447	n/a	n/a	0	0	0
3925.2001953125	n/a	REC_WORD	8038810	wordpools/wasnorm_wordpool_576.txt	LTP349	ltpFR2	10	18	BUBBLE	183	n/a	n/a	0	0	0
3927.01708984375	n/a	REC_WORD	8042531	wordpools/wasnorm_wordpool_576.txt	LTP349	ltpFR2	10	18	BRACES	164	n/a	n/a	0	0	0
3933.82275390625	n/a	REC_WORD	8056469	wordpools/wasnorm_wordpool_576.txt	LTP349	ltpFR2	10	18	HEDGE	699	n/a	n/a	0	0	0
3935.3857421875	n/a	REC_WORD	8059670	wordpools/wasnorm_wordpool_576.txt	LTP349	ltpFR2	10	18	LILY	821	n/a	n/a	0	0	0
3936.90380859375	n/a	REC_WORD	8062779	wordpools/wasnorm_wordpool_576.txt	LTP349	ltpFR2	10	18	BROTHER	179	n/a	n/a	0	0	0
3938.556640625	n/a	REC_WORD	8066164	wordpools/wasnorm_wordpool_576.txt	LTP349	ltpFR2	10	18	MUFFIN	929	n/a	n/a	0	0	0
3942.66845703125	n/a	REC_WORD	8074585	wordpools/wasnorm_wordpool_576.txt	LTP349	ltpFR2	10	18	GARDEN	623	n/a	n/a	0	0	0
3944.556640625	n/a	REC_WORD	8078452	wordpools/wasnorm_wordpool_576.txt	LTP349	ltpFR2	10	18	LACE	792	n/a	n/a	0	0	0
3947.76416015625	n/a	REC_WORD	8085021	wordpools/wasnorm_wordpool_576.txt	LTP349	ltpFR2	10	18	FATHER	554	n/a	n/a	0	0	0
3952.47900390625	n/a	REC_WORD_VV	8094677	wordpools/wasnorm_wordpool_576.txt	LTP349	ltpFR2	10	18	<>	-1	n/a	n/a	0	0	0
3994.51025390625	n/a	DISTRACTOR	8180757	n/a	LTP349	ltpFR2	10	19	n/a	n/a	n/a	n/a	0	0	0
3994.51123046875	n/a	START	8180759	n/a	LTP349	ltpFR2	10	n/a	n/a	n/a	28	n/a	n/a	n/a	n/a
3994.52685546875	n/a	PROB	8180791	n/a	LTP349	ltpFR2	10	n/a	n/a	n/a	28	24	9	9	6
4000.208984375	n/a	PROB	8192428	n/a	LTP349	ltpFR2	10	n/a	n/a	n/a	28	11	9	1	1
4001.95703125	n/a	PROB	8196008	n/a	LTP349	ltpFR2	10	n/a	n/a	n/a	28	12	1	3	8
4003.82275390625	n/a	PROB	8199829	n/a	LTP349	ltpFR2	10	n/a	n/a	n/a	28	14	2	5	7
4005.87158203125	n/a	PROB	8204025	n/a	LTP349	ltpFR2	10	n/a	n/a	n/a	28	25	7	8	8
4008.78662109375	n/a	PROB	8209995	n/a	LTP349	ltpFR2	10	n/a	n/a	n/a	28	19	4	7	8
4017.38525390625	n/a	STOP	8227605	n/a	LTP349	ltpFR2	10	n/a	n/a	n/a	28	n/a	n/a	n/a	n/a
4019.5654296875	n/a	WORD	8232070	wordpools/wasnorm_wordpool_576.txt	LTP349	ltpFR2	10	19	COBRA	336	n/a	n/a	0	0	0
4022.08154296875	n/a	WORD	8237223	wordpools/wasnorm_wordpool_576.txt	LTP349	ltpFR2	10	19	DANDRUFF	439	n/a	n/a	0	0	0
4024.6123046875	n/a	WORD	8242406	wordpools/wasnorm_wordpool_576.txt	LTP349	ltpFR2	10	19	ROCKET	1202	n/a	n/a	0	0	0
4027.06201171875	n/a	WORD	8247423	wordpools/wasnorm_wordpool_576.txt	LTP349	ltpFR2	10	19	VAGRANT	1544	n/a	n/a	0	0	0
4029.52734375	n/a	WORD	8252472	wordpools/wasnorm_wordpool_576.txt	LTP349	ltpFR2	10	19	EAGLE	512	n/a	n/a	0	0	0
4032.29296875	n/a	WORD	8258136	wordpools/wasnorm_wordpool_576.txt	LTP349	ltpFR2	10	19	CARRIAGE	248	n/a	n/a	0	0	0
4034.9580078125	n/a	WORD	8263594	wordpools/wasnorm_wordpool_576.txt	LTP349	ltpFR2	10	19	FLOWER	584	n/a	n/a	0	0	0
4037.58984375	n/a	WORD	8268984	wordpools/wasnorm_wordpool_576.txt	LTP349	ltpFR2	10	19	BABY	64	n/a	n/a	0	0	0
4040.15576171875	n/a	WORD	8274239	wordpools/wasnorm_wordpool_576.txt	LTP349	ltpFR2	10	19	COMET	353	n/a	n/a	0	0	0
4042.60400390625	n/a	WORD	8279253	wordpools/wasnorm_wordpool_576.txt	LTP349	ltpFR2	10	19	MILDEW	893	n/a	n/a	0	0	0
4045.3369140625	n/a	WORD	8284850	wordpools/wasnorm_wordpool_576.txt	LTP349	ltpFR2	10	19	RUST	1219	n/a	n/a	0	0	0
4048.15283203125	n/a	WORD	8290617	wordpools/wasnorm_wordpool_576.txt	LTP349	ltpFR2	10	19	POISON	1096	n/a	n/a	0	0	0
4050.599609375	n/a	WORD	8295628	wordpools/wasnorm_wordpool_576.txt	LTP349	ltpFR2	10	19	LADDER	793	n/a	n/a	0	0	0
4053.3984375	n/a	WORD	8301360	wordpools/wasnorm_wordpool_576.txt	LTP349	ltpFR2	10	19	VICTIM	1562	n/a	n/a	0	0	0
4056.0654296875	n/a	WORD	8306822	wordpools/wasnorm_wordpool_576.txt	LTP349	ltpFR2	10	19	CEILING	265	n/a	n/a	0	0	0
4058.62939453125	n/a	WORD	8312073	wordpools/wasnorm_wordpool_576.txt	LTP349	ltpFR2	10	19	NURSE	963	n/a	n/a	0	0	0
4061.3125	n/a	WORD	8317568	wordpools/wasnorm_wordpool_576.txt	LTP349	ltpFR2	10	19	WASHER	1592	n/a	n/a	0	0	0
4063.876953125	n/a	WORD	8322820	wordpools/wasnorm_wordpool_576.txt	LTP349	ltpFR2	10	19	BARLEY	88	n/a	n/a	0	0	0
4066.4921875	n/a	WORD	8328176	wordpools/wasnorm_wordpool_576.txt	LTP349	ltpFR2	10	19	WRIST	1626	n/a	n/a	0	0	0
4068.97509765625	n/a	WORD	8333261	wordpools/wasnorm_wordpool_576.txt	LTP349	ltpFR2	10	19	ELBOW	520	n/a	n/a	0	0	0
4071.57275390625	n/a	WORD	8338581	wordpools/wasnorm_wordpool_576.txt	LTP349	ltpFR2	10	19	SURVEY	1414	n/a	n/a	0	0	0
4074.07275390625	n/a	WORD	8343701	wordpools/wasnorm_wordpool_576.txt	LTP349	ltpFR2	10	19	ANKLE	24	n/a	n/a	0	0	0
4076.77099609375	n/a	WORD	8349227	wordpools/wasnorm_wordpool_576.txt	LTP349	ltpFR2	10	19	SHOULDER	1294	n/a	n/a	0	0	0
4079.3037109375	n/a	WORD	8354414	wordpools/wasnorm_wordpool_576.txt	LTP349	ltpFR2	10	19	BISON	131	n/a	n/a	0	0	0
4080.9189453125	n/a	START	8357722	n/a	LTP349	ltpFR2	10	n/a	n/a	n/a	29	n/a	n/a	n/a	n/a
4081.8896484375	n/a	DISTRACTOR	8359710	n/a	LTP349	ltpFR2	10	19	n/a	n/a	n/a	n/a	0	0	0
4081.90185546875	n/a	PROB	8359735	n/a	LTP349	ltpFR2	10	n/a	n/a	n/a	29	18	7	6	5
4084.06884765625	n/a	PROB	8364173	n/a	LTP349	ltpFR2	10	n/a	n/a	n/a	29	13	2	5	6
4086.849609375	n/a	PROB	8369868	n/a	LTP349	ltpFR2	10	n/a	n/a	n/a	29	15	5	4	6
4088.931640625	n/a	PROB	8374132	n/a	LTP349	ltpFR2	10	n/a	n/a	n/a	29	12	1	8	3
4090.947265625	n/a	PROB	8378260	n/a	LTP349	ltpFR2	10	n/a	n/a	n/a	29	22	9	9	7
4097.744140625	n/a	PROB	8392180	n/a	LTP349	ltpFR2	10	n/a	n/a	n/a	29	1	8	8	2
4100.04443359375	n/a	PROB	8396891	n/a	LTP349	ltpFR2	10	n/a	n/a	n/a	29	10	2	1	7
4102.4580078125	n/a	PROB	8401834	n/a	LTP349	ltpFR2	10	n/a	n/a	n/a	29	11	1	4	6
4104.72998046875	n/a	STOP	8406487	n/a	LTP349	ltpFR2	10	n/a	n/a	n/a	29	n/a	n/a	n/a	n/a
4106.673828125	n/a	REC_START	8410468	n/a	LTP349	ltpFR2	10	19	n/a	n/a	n/a	n/a	0	0	0
4109.69091796875	n/a	REC_WORD_VV	8416647	wordpools/wasnorm_wordpool_576.txt	LTP349	ltpFR2	10	19	<>	-1	n/a	n/a	0	0	0
4110.5908203125	n/a	REC_WORD	8418490	wordpools/wasnorm_wordpool_576.txt	LTP349	ltpFR2	10	19	EAGLE	512	n/a	n/a	0	0	0
4112.380859375	n/a	REC_WORD	8422156	wordpools/wasnorm_wordpool_576.txt	LTP349	ltpFR2	10	19	ROCKET	1202	n/a	n/a	0	0	0
4114.86572265625	n/a	REC_WORD	8427245	wordpools/wasnorm_wordpool_576.txt	LTP349	ltpFR2	10	19	VAGRANT	1544	n/a	n/a	0	0	0
4119.1728515625	n/a	REC_WORD	8436066	wordpools/wasnorm_wordpool_576.txt	LTP349	ltpFR2	10	19	MARS	873	n/a	n/a	0	0	0
4121.24560546875	n/a	REC_WORD	8440311	wordpools/wasnorm_wordpool_576.txt	LTP349	ltpFR2	10	19	CASKET	255	n/a	n/a	0	0	0
4140.38720703125	n/a	REC_WORD	8479513	wordpools/wasnorm_wordpool_576.txt	LTP349	ltpFR2	10	19	CEILING	265	n/a	n/a	0	0	0
4197.11376953125	n/a	WORD	8595689	wordpools/wasnorm_wordpool_576.txt	LTP349	ltpFR2	10	20	LAMP	798	n/a	n/a	0	0	0
4199.64453125	n/a	WORD	8600872	wordpools/wasnorm_wordpool_576.txt	LTP349	ltpFR2	10	20	MARINE	869	n/a	n/a	0	0	0
4202.228515625	n/a	WORD	8606164	wordpools/wasnorm_wordpool_576.txt	LTP349	ltpFR2	10	20	PASTA	1021	n/a	n/a	0	0	0
4204.84228515625	n/a	WORD	8611517	wordpools/wasnorm_wordpool_576.txt	LTP349	ltpFR2	10	20	BLOUSE	139	n/a	n/a	0	0	0
4207.42529296875	n/a	WORD	8616807	wordpools/wasnorm_wordpool_576.txt	LTP349	ltpFR2	10	20	RIFLE	1192	n/a	n/a	0	0	0
4210.1083984375	n/a	WORD	8622302	wordpools/wasnorm_wordpool_576.txt	LTP349	ltpFR2	10	20	POLICE	1098	n/a	n/a	0	0	0
4212.58935546875	n/a	WORD	8627383	wordpools/wasnorm_wordpool_576.txt	LTP349	ltpFR2	10	20	BUREAU	199	n/a	n/a	0	0	0
4215.205078125	n/a	WORD	8632740	wordpools/wasnorm_wordpool_576.txt	LTP349	ltpFR2	10	20	GANGSTER	620	n/a	n/a	0	0	0
4217.85302734375	n/a	WORD	8638163	wordpools/wasnorm_wordpool_576.txt	LTP349	ltpFR2	10	20	JEANS	752	n/a	n/a	0	0	0
4220.4677734375	n/a	WORD	8643518	wordpools/wasnorm_wordpool_576.txt	LTP349	ltpFR2	10	20	PROTON	1132	n/a	n/a	0	0	0
4223.2177734375	n/a	WORD	8649150	wordpools/wasnorm_wordpool_576.txt	LTP349	ltpFR2	10	20	BULLET	194	n/a	n/a	0	0	0
4225.9658203125	n/a	WORD	8654778	wordpools/wasnorm_wordpool_576.txt	LTP349	ltpFR2	10	20	ARMY	39	n/a	n/a	0	0	0
4228.6806640625	n/a	WORD	8660338	wordpools/wasnorm_wordpool_576.txt	LTP349	ltpFR2	10	20	WIDOW	1608	n/a	n/a	0	0	0
4231.1474609375	n/a	WORD	8665390	wordpools/wasnorm_wordpool_576.txt	LTP349	ltpFR2	10	20	FOX	598	n/a	n/a	0	0	0
4233.76171875	n/a	WORD	8670744	wordpools/wasnorm_wordpool_576.txt	LTP349	ltpFR2	10	20	ROOSTER	1209	n/a	n/a	0	0	0
4236.24560546875	n/a	WORD	8675831	wordpools/wasnorm_wordpool_576.txt	LTP349	ltpFR2	10	20	SNAKE	1333	n/a	n/a	0	0	0
4238.7763671875	n/a	WORD	8681014	wordpools/wasnorm_wordpool_576.txt	LTP349	ltpFR2	10	20	COUSIN	392	n/a	n/a	0	0	0
4241.525390625	n/a	WORD	8686644	wordpools/wasnorm_wordpool_576.txt	LTP349	ltpFR2	10	20	HATCHET	691	n/a	n/a	0	0	0
4244.2744140625	n/a	WORD	8692274	wordpools/wasnorm_wordpool_576.txt	LTP349	ltpFR2	10	20	KITCHEN	778	n/a	n/a	0	0	0
4246.7392578125	n/a	WORD	8697322	wordpools/wasnorm_wordpool_576.txt	LTP349	ltpFR2	10	20	TOASTER	1472	n/a	n/a	0	0	0
4249.35498046875	n/a	WORD	8702679	wordpools/wasnorm_wordpool_576.txt	LTP349	ltpFR2	10	20	BACKBONE	66	n/a	n/a	0	0	0
4251.98583984375	n/a	WORD	8708067	wordpools/wasnorm_wordpool_576.txt	LTP349	ltpFR2	10	20	MUSTARD	935	n/a	n/a	0	0	0
4254.4189453125	n/a	WORD	8713050	wordpools/wasnorm_wordpool_576.txt	LTP349	ltpFR2	10	20	RELISH	1183	n/a	n/a	0	0	0
4257.23486328125	n/a	WORD	8718817	wordpools/wasnorm_wordpool_576.txt	LTP349	ltpFR2	10	20	MARSH	874	n/a	n/a	0	0	0
4258.86669921875	n/a	START	8722159	n/a	LTP349	ltpFR2	10	n/a	n/a	n/a	30	n/a	n/a	n/a	n/a
4260.0009765625	n/a	DISTRACTOR	8724482	n/a	LTP349	ltpFR2	10	20	n/a	n/a	n/a	n/a	0	0	0
4260.01708984375	n/a	PROB	8724515	n/a	LTP349	ltpFR2	10	n/a	n/a	n/a	30	12	7	5	1
4262.5146484375	n/a	PROB	8729630	n/a	LTP349	ltpFR2	10	n/a	n/a	n/a	30	10	3	2	5
4265.0478515625	n/a	PROB	8734818	n/a	LTP349	ltpFR2	10	n/a	n/a	n/a	30	6	3	2	1
4267.013671875	n/a	PROB	8738844	n/a	LTP349	ltpFR2	10	n/a	n/a	n/a	30	22	8	5	9
4269.5615234375	n/a	PROB	8744062	n/a	LTP349	ltpFR2	10	n/a	n/a	n/a	30	9	2	6	1
4271.5107421875	n/a	PROB	8748054	n/a	LTP349	ltpFR2	10	n/a	n/a	n/a	30	18	6	7	5
4274.12646484375	n/a	PROB	8753411	n/a	LTP349	ltpFR2	10	n/a	n/a	n/a	30	15	7	4	4
4276.25927734375	n/a	PROB	8757779	n/a	LTP349	ltpFR2	10	n/a	n/a	n/a	30	11	1	6	4
4278.1416015625	n/a	PROB	8761634	n/a	LTP349	ltpFR2	10	n/a	n/a	n/a	30	19	1	8	8
4281.5380859375	n/a	STOP	8768590	n/a	LTP349	ltpFR2	10	n/a	n/a	n/a	30	n/a	n/a	n/a	n/a
4284.67138671875	n/a	REC_START	8775007	n/a	LTP349	ltpFR2	10	20	n/a	n/a	n/a	n/a	0	0	0
4287.576171875	n/a	REC_WORD	8780956	wordpools/wasnorm_wordpool_576.txt	LTP349	ltpFR2	10	20	BLOUSE	139	n/a	n/a	0	0	0
4288.7060546875	n/a	REC_WORD	8783270	wordpools/wasnorm_wordpool_576.txt	LTP349	ltpFR2	10	20	JEANS	752	n/a	n/a	0	0	0
