mstime	trial_type	stim_file	subject	experiment	session	trial	task	item_name	item_num	recog_resp	recog_conf	resp	color_r	color_g	color_b	case	font
0	SESS_START	n/a	LTP151	ltpFR	4	n/a	n/a	n/a	n/a	1	2	n/a	n/a	n/a	n/a	n/a	n/a
69765	WORD	wordpools/wasnorm_wordpool.txt	LTP151	ltpFR	4	1	0	TUNNEL	1519	0	n/a	1	0.422607421875	0.5869140625	0	lower	zerothre.ttf
73760	WORD	wordpools/wasnorm_wordpool.txt	LTP151	ltpFR	4	1	0	DIRT	472	n/a	n/a	0	0.422607421875	0.5869140625	0	lower	zerothre.ttf
77913	WORD	wordpools/wasnorm_wordpool.txt	LTP151	ltpFR	4	1	0	HOSPITAL	721	n/a	n/a	1	0.422607421875	0.5869140625	0	lower	zerothre.ttf
82034	WORD	wordpools/wasnorm_wordpool.txt	LTP151	ltpFR	4	1	1	BLACKBOARD	133	n/a	n/a	0	0.57763671875	0.412841796875	1	upper	amplitud.ttf
86071	WORD	wordpools/wasnorm_wordpool.txt	LTP151	ltpFR	4	1	1	PORCUPINE	1107	n/a	n/a	1	0.57763671875	0.412841796875	1	upper	amplitud.ttf
89891	WORD	wordpools/wasnorm_wordpool.txt	LTP151	ltpFR	4	1	1	COCOON	339	n/a	n/a	1	0.57763671875	0.412841796875	1	upper	amplitud.ttf
93920	WORD	wordpools/wasnorm_wordpool.txt	LTP151	ltpFR	4	1	1	MOVIE	927	n/a	n/a	0	0.57763671875	0.412841796875	1	upper	amplitud.ttf
97832	WORD	wordpools/wasnorm_wordpool.txt	LTP151	ltpFR	4	1	0	WINGS	1614	n/a	n/a	0	0.422607421875	0.5869140625	0	lower	zerothre.ttf
101902	WORD	wordpools/wasnorm_wordpool.txt	LTP151	ltpFR	4	1	0	ENCYCLOPEDIA	533	n/a	n/a	1	0.422607421875	0.5869140625	0	lower	zerothre.ttf
105914	WORD	wordpools/wasnorm_wordpool.txt	LTP151	ltpFR	4	1	0	WELL	1600	n/a	n/a	1	0.422607421875	0.5869140625	0	lower	zerothre.ttf
110060	WORD	wordpools/wasnorm_wordpool.txt	LTP151	ltpFR	4	1	0	CUFF	423	n/a	n/a	0	0.422607421875	0.5869140625	0	lower	zerothre.ttf
114230	WORD	wordpools/wasnorm_wordpool.txt	LTP151	ltpFR	4	1	0	ROBBER	1197	n/a	n/a	1	0.422607421875	0.5869140625	0	lower	zerothre.ttf
118183	WORD	wordpools/wasnorm_wordpool.txt	LTP151	ltpFR	4	1	1	PARENT	1013	n/a	n/a	1	0.57763671875	0.412841796875	1	upper	amplitud.ttf
122387	WORD	wordpools/wasnorm_wordpool.txt	LTP151	ltpFR	4	1	1	FATHER	554	n/a	n/a	1	0.57763671875	0.412841796875	1	upper	amplitud.ttf
126298	WORD	wordpools/wasnorm_wordpool.txt	LTP151	ltpFR	4	1	1	SEAGULL	1261	n/a	n/a	1	0.57763671875	0.412841796875	1	upper	amplitud.ttf
130360	WORD	wordpools/wasnorm_wordpool.txt	LTP151	ltpFR	4	1	1	NECK	939	n/a	n/a	1	0.57763671875	0.412841796875	1	upper	amplitud.ttf
136138	REC_START	n/a	LTP151	ltpFR	4	1	n/a	n/a	n/a	n/a	n/a	n/a	n/a	n/a	n/a	n/a	n/a
137390	REC_WORD	wordpools/wasnorm_wordpool.txt	LTP151	ltpFR	4	1	0	TUNNEL	1519	n/a	n/a	1	n/a	n/a	n/a	n/a	n/a
138328	REC_WORD	wordpools/wasnorm_wordpool.txt	LTP151	ltpFR	4	1	0	DIRT	472	n/a	n/a	0	n/a	n/a	n/a	n/a	n/a
139410	REC_WORD	wordpools/wasnorm_wordpool.txt	LTP151	ltpFR	4	1	0	HOSPITAL	721	n/a	n/a	1	n/a	n/a	n/a	n/a	n/a
140568	REC_WORD	wordpools/wasnorm_wordpool.txt	LTP151	ltpFR	4	1	1	BLACKBOARD	133	n/a	n/a	0	n/a	n/a	n/a	n/a	n/a
142186	REC_WORD	wordpools/wasnorm_wordpool.txt	LTP151	ltpFR	4	1	1	PORCUPINE	1107	n/a	n/a	1	n/a	n/a	n/a	n/a	n/a
146005	REC_WORD	wordpools/wasnorm_wordpool.txt	LTP151	ltpFR	4	1	1	NECK	939	n/a	n/a	1	n/a	n/a	n/a	n/a	n/a
150231	REC_WORD	wordpools/wasnorm_wordpool.txt	LTP151	ltpFR	4	1	0	WELL	1600	n/a	n/a	1	n/a	n/a	n/a	n/a	n/a
155803	REC_WORD	wordpools/wasnorm_wordpool.txt	LTP151	ltpFR	4	1	1	PARENT	1013	n/a	n/a	1	n/a	n/a	n/a	n/a	n/a
156781	REC_WORD	wordpools/wasnorm_wordpool.txt	LTP151	ltpFR	4	1	1	FATHER	554	n/a	n/a	1	n/a	n/a	n/a	n/a	n/a
157739	REC_WORD	wordpools/wasnorm_wordpool.txt	LTP151	ltpFR	4	1	0	ROBBER	1197	n/a	n/a	1	n/a	n/a	n/a	n/a	n/a
166558	REC_WORD	wordpools/wasnorm_wordpool.txt	LTP151	ltpFR	4	1	1	SEAGULL	1261	n/a	n/a	1	n/a	n/a	n/a	n/a	n/a
177140	REC_WORD	wordpools/wasnorm_wordpool.txt	LTP151	ltpFR	4	1	0	CUFF	423	n/a	n/a	0	n/a	n/a	n/a	n/a	n/a
196326	REC_WORD	wordpools/wasnorm_wordpool.txt	LTP151	ltpFR	4	1	1	COCOON	339	n/a	n/a	1	n/a	n/a	n/a	n/a	n/a
217560	WORD	wordpools/wasnorm_wordpool.txt	LTP151	ltpFR	4	2	1	CORN	381	n/a	n/a	1	0.57763671875	0.412841796875	1	upper	amplitud.ttf
221763	WORD	wordpools/wasnorm_wordpool.txt	LTP151	ltpFR	4	2	1	SUIT	1402	n/a	n/a	0	0.57763671875	0.412841796875	1	upper	amplitud.ttf
225759	WORD	wordpools/wasnorm_wordpool.txt	LTP151	ltpFR	4	2	1	MONGOOSE	909	n/a	n/a	1	0.57763671875	0.412841796875	1	upper	amplitud.ttf
229646	WORD	wordpools/wasnorm_wordpool.txt	LTP151	ltpFR	4	2	1	POET	1095	n/a	n/a	0	0.57763671875	0.412841796875	1	upper	amplitud.ttf
233558	WORD	wordpools/wasnorm_wordpool.txt	LTP151	ltpFR	4	2	0	WHISTLE	1606	n/a	n/a	0	0.422607421875	0.5869140625	0	lower	zerothre.ttf
237528	WORD	wordpools/wasnorm_wordpool.txt	LTP151	ltpFR	4	2	0	CRUTCH	417	n/a	n/a	1	0.422607421875	0.5869140625	0	lower	zerothre.ttf
241399	WORD	wordpools/wasnorm_wordpool.txt	LTP151	ltpFR	4	2	0	LIMB	822	n/a	n/a	1	0.422607421875	0.5869140625	0	lower	zerothre.ttf
245536	WORD	wordpools/wasnorm_wordpool.txt	LTP151	ltpFR	4	2	0	BINDER	127	n/a	n/a	0	0.422607421875	0.5869140625	0	lower	zerothre.ttf
249723	WORD	wordpools/wasnorm_wordpool.txt	LTP151	ltpFR	4	2	0	BOOK	149	n/a	n/a	0	0.422607421875	0.5869140625	0	lower	zerothre.ttf
253818	WORD	wordpools/wasnorm_wordpool.txt	LTP151	ltpFR	4	2	1	PARROT	1015	n/a	n/a	1	0.57763671875	0.412841796875	1	upper	amplitud.ttf
258005	WORD	wordpools/wasnorm_wordpool.txt	LTP151	ltpFR	4	2	1	MAPLE	866	n/a	n/a	1	0.57763671875	0.412841796875	1	upper	amplitud.ttf
262183	WORD	wordpools/wasnorm_wordpool.txt	LTP151	ltpFR	4	2	1	NUCLEUS	961	n/a	n/a	0	0.57763671875	0.412841796875	1	upper	amplitud.ttf
266045	WORD	wordpools/wasnorm_wordpool.txt	LTP151	ltpFR	4	2	1	BASEBALL	93	n/a	n/a	0	0.57763671875	0.412841796875	1	upper	amplitud.ttf
269974	WORD	wordpools/wasnorm_wordpool.txt	LTP151	ltpFR	4	2	0	PLANE	1081	n/a	n/a	1	0.422607421875	0.5869140625	0	lower	zerothre.ttf
273870	WORD	wordpools/wasnorm_wordpool.txt	LTP151	ltpFR	4	2	0	COAT	333	n/a	n/a	1	0.422607421875	0.5869140625	0	lower	zerothre.ttf
277807	WORD	wordpools/wasnorm_wordpool.txt	LTP151	ltpFR	4	2	0	REFEREE	1178	n/a	n/a	1	0.422607421875	0.5869140625	0	lower	zerothre.ttf
283825	REC_START	n/a	LTP151	ltpFR	4	2	n/a	n/a	n/a	n/a	n/a	n/a	n/a	n/a	n/a	n/a	n/a
286708	REC_WORD	wordpools/wasnorm_wordpool.txt	LTP151	ltpFR	4	2	1	CORN	381	n/a	n/a	1	n/a	n/a	n/a	n/a	n/a
288793	REC_WORD	wordpools/wasnorm_wordpool.txt	LTP151	ltpFR	4	2	1	SUIT	1402	n/a	n/a	0	n/a	n/a	n/a	n/a	n/a
290255	REC_WORD	wordpools/wasnorm_wordpool.txt	LTP151	ltpFR	4	2	1	MONGOOSE	909	n/a	n/a	1	n/a	n/a	n/a	n/a	n/a
292575	REC_WORD	wordpools/wasnorm_wordpool.txt	LTP151	ltpFR	4	2	1	PARROT	1015	n/a	n/a	1	n/a	n/a	n/a	n/a	n/a
293957	REC_WORD	wordpools/wasnorm_wordpool.txt	LTP151	ltpFR	4	2	0	PLANE	1081	n/a	n/a	1	n/a	n/a	n/a	n/a	n/a
304253	REC_WORD	wordpools/wasnorm_wordpool.txt	LTP151	ltpFR	4	2	0	BINDER	127	n/a	n/a	0	n/a	n/a	n/a	n/a	n/a
305286	REC_WORD	wordpools/wasnorm_wordpool.txt	LTP151	ltpFR	4	2	0	BOOK	149	n/a	n/a	0	n/a	n/a	n/a	n/a	n/a
310354	REC_WORD	wordpools/wasnorm_wordpool.txt	LTP151	ltpFR	4	2	1	BASEBALL	93	n/a	n/a	0	n/a	n/a	n/a	n/a	n/a
311257	REC_WORD	wordpools/wasnorm_wordpool.txt	LTP151	ltpFR	4	2	1	NUCLEUS	961	n/a	n/a	0	n/a	n/a	n/a	n/a	n/a
312257	REC_WORD_VV	wordpools/wasnorm_wordpool.txt	LTP151	ltpFR	4	2	n/a	<>	-1	n/a	n/a	n/a	n/a	n/a	n/a	n/a	n/a
315722	REC_WORD	wordpools/wasnorm_wordpool.txt	LTP151	ltpFR	4	2	0	REFEREE	1178	n/a	n/a	1	n/a	n/a	n/a	n/a	n/a
317568	REC_WORD	wordpools/wasnorm_wordpool.txt	LTP151	ltpFR	4	2	0	COAT	333	n/a	n/a	1	n/a	n/a	n/a	n/a	n/a
337632	REC_WORD	wordpools/wasnorm_wordpool.txt	LTP151	ltpFR	4	2	1	MAPLE	866	n/a	n/a	1	n/a	n/a	n/a	n/a	n/a
354594	REC_WORD	wordpools/wasnorm_wordpool.txt	LTP151	ltpFR	4	2	0	ENCYCLOPEDIA	533	n/a	n/a	1	n/a	n/a	n/a	n/a	n/a
356360	REC_WORD	wordpools/wasnorm_wordpool.txt	LTP151	ltpFR	4	2	0	LIMB	822	n/a	n/a	1	n/a	n/a	n/a	n/a	n/a
357417	REC_WORD	wordpools/wasnorm_wordpool.txt	LTP151	ltpFR	4	2	0	CRUTCH	417	n/a	n/a	1	n/a	n/a	n/a	n/a	n/a
364939	WORD	wordpools/wasnorm_wordpool.txt	LTP151	ltpFR	4	3	-1	WEED	1599	n/a	n/a	-1	1.0	1.0	1	upper	Verdana.ttf
368918	WORD	wordpools/wasnorm_wordpool.txt	LTP151	ltpFR	4	3	-1	TRAITOR	1495	n/a	n/a	-1	1.0	1.0	1	upper	Verdana.ttf
372930	WORD	wordpools/wasnorm_wordpool.txt	LTP151	ltpFR	4	3	-1	BLOCKADE	137	n/a	n/a	-1	1.0	1.0	1	upper	Verdana.ttf
377058	WORD	wordpools/wasnorm_wordpool.txt	LTP151	ltpFR	4	3	-1	MOOSE	915	n/a	n/a	-1	1.0	1.0	1	upper	Verdana.ttf
380871	WORD	wordpools/wasnorm_wordpool.txt	LTP151	ltpFR	4	3	-1	WIFE	1609	n/a	n/a	-1	1.0	1.0	1	upper	Verdana.ttf
385074	WORD	wordpools/wasnorm_wordpool.txt	LTP151	ltpFR	4	3	-1	GOVERNOR	651	n/a	n/a	-1	1.0	1.0	1	upper	Verdana.ttf
389236	WORD	wordpools/wasnorm_wordpool.txt	LTP151	ltpFR	4	3	-1	DICTATOR	462	n/a	n/a	-1	1.0	1.0	1	upper	Verdana.ttf
393057	WORD	wordpools/wasnorm_wordpool.txt	LTP151	ltpFR	4	3	-1	MARROW	872	n/a	n/a	-1	1.0	1.0	1	upper	Verdana.ttf
397102	WORD	wordpools/wasnorm_wordpool.txt	LTP151	ltpFR	4	3	-1	CRAB	397	n/a	n/a	-1	1.0	1.0	1	upper	Verdana.ttf
400964	WORD	wordpools/wasnorm_wordpool.txt	LTP151	ltpFR	4	3	-1	FLIPPER	580	n/a	n/a	-1	1.0	1.0	1	upper	Verdana.ttf
405126	WORD	wordpools/wasnorm_wordpool.txt	LTP151	ltpFR	4	3	-1	SUPERMARKET	1409	n/a	n/a	-1	1.0	1.0	1	upper	Verdana.ttf
409296	WORD	wordpools/wasnorm_wordpool.txt	LTP151	ltpFR	4	3	-1	CLARINET	317	n/a	n/a	-1	1.0	1.0	1	upper	Verdana.ttf
413291	WORD	wordpools/wasnorm_wordpool.txt	LTP151	ltpFR	4	3	-1	HARP	689	n/a	n/a	-1	1.0	1.0	1	upper	Verdana.ttf
417220	WORD	wordpools/wasnorm_wordpool.txt	LTP151	ltpFR	4	3	-1	RAKE	1164	n/a	n/a	-1	1.0	1.0	1	upper	Verdana.ttf
421348	WORD	wordpools/wasnorm_wordpool.txt	LTP151	ltpFR	4	3	-1	REFRIGERATOR	1179	n/a	n/a	-1	1.0	1.0	1	upper	Verdana.ttf
425402	WORD	wordpools/wasnorm_wordpool.txt	LTP151	ltpFR	4	3	-1	GRAVE	658	n/a	n/a	-1	1.0	1.0	1	upper	Verdana.ttf
431254	REC_START	n/a	LTP151	ltpFR	4	3	n/a	n/a	n/a	n/a	n/a	n/a	n/a	n/a	n/a	n/a	n/a
432291	REC_WORD	wordpools/wasnorm_wordpool.txt	LTP151	ltpFR	4	3	-1	WEED	1599	n/a	n/a	-1	n/a	n/a	n/a	n/a	n/a
433309	REC_WORD	wordpools/wasnorm_wordpool.txt	LTP151	ltpFR	4	3	-1	TRAITOR	1495	n/a	n/a	-1	n/a	n/a	n/a	n/a	n/a
434731	REC_WORD	wordpools/wasnorm_wordpool.txt	LTP151	ltpFR	4	3	-1	BLOCKADE	137	n/a	n/a	-1	n/a	n/a	n/a	n/a	n/a
435888	REC_WORD	wordpools/wasnorm_wordpool.txt	LTP151	ltpFR	4	3	-1	MOOSE	915	n/a	n/a	-1	n/a	n/a	n/a	n/a	n/a
436811	REC_WORD	wordpools/wasnorm_wordpool.txt	LTP151	ltpFR	4	3	-1	WIFE	1609	n/a	n/a	-1	n/a	n/a	n/a	n/a	n/a
438023	REC_WORD	wordpools/wasnorm_wordpool.txt	LTP151	ltpFR	4	3	-1	GOVERNOR	651	n/a	n/a	-1	n/a	n/a	n/a	n/a	n/a
439575	REC_WORD	wordpools/wasnorm_wordpool.txt	LTP151	ltpFR	4	3	-1	DICTATOR	462	n/a	n/a	-1	n/a	n/a	n/a	n/a	n/a
440637	REC_WORD	wordpools/wasnorm_wordpool.txt	LTP151	ltpFR	4	3	-1	MARROW	872	n/a	n/a	-1	n/a	n/a	n/a	n/a	n/a
442094	REC_WORD	wordpools/wasnorm_wordpool.txt	LTP151	ltpFR	4	3	-1	CRAB	397	n/a	n/a	-1	n/a	n/a	n/a	n/a	n/a
443041	REC_WORD	wordpools/wasnorm_wordpool.txt	LTP151	ltpFR	4	3	-1	FLIPPER	580	n/a	n/a	-1	n/a	n/a	n/a	n/a	n/a
444489	REC_WORD	wordpools/wasnorm_wordpool.txt	LTP151	ltpFR	4	3	-1	SUPERMARKET	1409	n/a	n/a	-1	n/a	n/a	n/a	n/a	n/a
448220	REC_WORD	wordpools/wasnorm_wordpool.txt	LTP151	ltpFR	4	3	-1	CLARINET	317	n/a	n/a	-1	n/a	n/a	n/a	n/a	n/a
449218	REC_WORD	wordpools/wasnorm_wordpool.txt	LTP151	ltpFR	4	3	-1	HARP	689	n/a	n/a	-1	n/a	n/a	n/a	n/a	n/a
450250	REC_WORD	wordpools/wasnorm_wordpool.txt	LTP151	ltpFR	4	3	-1	RAKE	1164	n/a	n/a	-1	n/a	n/a	n/a	n/a	n/a
451438	REC_WORD	wordpools/wasnorm_wordpool.txt	LTP151	ltpFR	4	3	-1	REFRIGERATOR	1179	n/a	n/a	-1	n/a	n/a	n/a	n/a	n/a
453209	REC_WORD	wordpools/wasnorm_wordpool.txt	LTP151	ltpFR	4	3	-1	GRAVE	658	n/a	n/a	-1	n/a	n/a	n/a	n/a	n/a
511236	WORD	wordpools/wasnorm_wordpool.txt	LTP151	ltpFR	4	4	0	MARS	873	n/a	n/a	1	0.422607421875	0.5869140625	0	lower	zerothre.ttf
515157	WORD	wordpools/wasnorm_wordpool.txt	LTP151	ltpFR	4	4	0	BABY	64	n/a	n/a	1	0.422607421875	0.5869140625	0	lower	zerothre.ttf
519144	WORD	wordpools/wasnorm_wordpool.txt	LTP151	ltpFR	4	4	0	DOLL	481	n/a	n/a	0	0.422607421875	0.5869140625	0	lower	zerothre.ttf
523239	WORD	wordpools/wasnorm_wordpool.txt	LTP151	ltpFR	4	4	0	TUTU	1524	n/a	n/a	1	0.422607421875	0.5869140625	0	lower	zerothre.ttf
527350	WORD	wordpools/wasnorm_wordpool.txt	LTP151	ltpFR	4	4	0	LIMOUSINE	824	n/a	n/a	1	0.422607421875	0.5869140625	0	lower	zerothre.ttf
531263	WORD	wordpools/wasnorm_wordpool.txt	LTP151	ltpFR	4	4	0	BARLEY	88	n/a	n/a	0	0.422607421875	0.5869140625	0	lower	zerothre.ttf
535341	WORD	wordpools/wasnorm_wordpool.txt	LTP151	ltpFR	4	4	0	PARTNER	1017	n/a	n/a	1	0.422607421875	0.5869140625	0	lower	zerothre.ttf
539295	WORD	wordpools/wasnorm_wordpool.txt	LTP151	ltpFR	4	4	0	ROCKET	1202	n/a	n/a	1	0.422607421875	0.5869140625	0	lower	zerothre.ttf
543141	WORD	wordpools/wasnorm_wordpool.txt	LTP151	ltpFR	4	4	0	CASTLE	256	n/a	n/a	1	0.422607421875	0.5869140625	0	lower	zerothre.ttf
547310	WORD	wordpools/wasnorm_wordpool.txt	LTP151	ltpFR	4	4	0	FRIEND	606	n/a	n/a	1	0.422607421875	0.5869140625	0	lower	zerothre.ttf
551423	WORD	wordpools/wasnorm_wordpool.txt	LTP151	ltpFR	4	4	0	CEREAL	272	n/a	n/a	0	0.422607421875	0.5869140625	0	lower	zerothre.ttf
555477	WORD	wordpools/wasnorm_wordpool.txt	LTP151	ltpFR	4	4	0	LASH	802	n/a	n/a	0	0.422607421875	0.5869140625	0	lower	zerothre.ttf
559514	WORD	wordpools/wasnorm_wordpool.txt	LTP151	ltpFR	4	4	0	PERISCOPE	1050	n/a	n/a	1	0.422607421875	0.5869140625	0	lower	zerothre.ttf
563542	WORD	wordpools/wasnorm_wordpool.txt	LTP151	ltpFR	4	4	0	CANDIDATE	228	n/a	n/a	1	0.422607421875	0.5869140625	0	lower	zerothre.ttf
567696	WORD	wordpools/wasnorm_wordpool.txt	LTP151	ltpFR	4	4	0	SUNSET	1408	n/a	n/a	1	0.422607421875	0.5869140625	0	lower	zerothre.ttf
571683	WORD	wordpools/wasnorm_wordpool.txt	LTP151	ltpFR	4	4	0	HORIZON	717	n/a	n/a	1	0.422607421875	0.5869140625	0	lower	zerothre.ttf
577394	REC_START	n/a	LTP151	ltpFR	4	4	n/a	n/a	n/a	n/a	n/a	n/a	n/a	n/a	n/a	n/a	n/a
580077	REC_WORD	wordpools/wasnorm_wordpool.txt	LTP151	ltpFR	4	4	0	MARS	873	n/a	n/a	1	n/a	n/a	n/a	n/a	n/a
581190	REC_WORD	wordpools/wasnorm_wordpool.txt	LTP151	ltpFR	4	4	0	BABY	64	n/a	n/a	1	n/a	n/a	n/a	n/a	n/a
581929	REC_WORD	wordpools/wasnorm_wordpool.txt	LTP151	ltpFR	4	4	0	DOLL	481	n/a	n/a	0	n/a	n/a	n/a	n/a	n/a
583285	REC_WORD	wordpools/wasnorm_wordpool.txt	LTP151	ltpFR	4	4	0	TUTU	1524	n/a	n/a	1	n/a	n/a	n/a	n/a	n/a
584398	REC_WORD	wordpools/wasnorm_wordpool.txt	LTP151	ltpFR	4	4	0	LIMOUSINE	824	n/a	n/a	1	n/a	n/a	n/a	n/a	n/a
586718	REC_WORD	wordpools/wasnorm_wordpool.txt	LTP151	ltpFR	4	4	0	BARLEY	88	n/a	n/a	0	n/a	n/a	n/a	n/a	n/a
594889	REC_WORD	wordpools/wasnorm_wordpool.txt	LTP151	ltpFR	4	4	0	CEREAL	272	n/a	n/a	0	n/a	n/a	n/a	n/a	n/a
595912	REC_WORD	wordpools/wasnorm_wordpool.txt	LTP151	ltpFR	4	4	0	LASH	802	n/a	n/a	0	n/a	n/a	n/a	n/a	n/a
600436	REC_WORD	wordpools/wasnorm_wordpool.txt	LTP151	ltpFR	4	4	0	CANDIDATE	228	n/a	n/a	1	n/a	n/a	n/a	n/a	n/a
603040	REC_WORD	wordpools/wasnorm_wordpool.txt	LTP151	ltpFR	4	4	0	SUNSET	1408	n/a	n/a	1	n/a	n/a	n/a	n/a	n/a
604040	REC_WORD_VV	wordpools/wasnorm_wordpool.txt	LTP151	ltpFR	4	4	n/a	<>	-1	n/a	n/a	n/a	n/a	n/a	n/a	n/a	n/a
604786	REC_WORD	wordpools/wasnorm_wordpool.txt	LTP151	ltpFR	4	4	0	HORIZON	717	n/a	n/a	1	n/a	n/a	n/a	n/a	n/a
624786	REC_WORD	wordpools/wasnorm_wordpool.txt	LTP151	ltpFR	4	4	0	FRIEND	606	n/a	n/a	1	n/a	n/a	n/a	n/a	n/a
638949	REC_WORD	wordpools/wasnorm_wordpool.txt	LTP151	ltpFR	4	4	0	ROCKET	1202	n/a	n/a	1	n/a	n/a	n/a	n/a	n/a
639947	REC_WORD	wordpools/wasnorm_wordpool.txt	LTP151	ltpFR	4	4	0	PARTNER	1017	n/a	n/a	1	n/a	n/a	n/a	n/a	n/a
641772	REC_WORD	wordpools/wasnorm_wordpool.txt	LTP151	ltpFR	4	4	0	CASTLE	256	n/a	n/a	1	n/a	n/a	n/a	n/a	n/a
657234	WORD	wordpools/wasnorm_wordpool.txt	LTP151	ltpFR	4	5	0	TIDE	1465	n/a	n/a	1	0.422607421875	0.5869140625	0	lower	zerothre.ttf
661287	WORD	wordpools/wasnorm_wordpool.txt	LTP151	ltpFR	4	5	0	BANDANNA	80	n/a	n/a	0	0.422607421875	0.5869140625	0	lower	zerothre.ttf
665208	WORD	wordpools/wasnorm_wordpool.txt	LTP151	ltpFR	4	5	0	SAUCER	1237	n/a	n/a	0	0.422607421875	0.5869140625	0	lower	zerothre.ttf
669403	WORD	wordpools/wasnorm_wordpool.txt	LTP151	ltpFR	4	5	1	NURSERY	964	n/a	n/a	0	0.57763671875	0.412841796875	1	upper	amplitud.ttf
673290	WORD	wordpools/wasnorm_wordpool.txt	LTP151	ltpFR	4	5	1	FIGHTER	564	n/a	n/a	1	0.57763671875	0.412841796875	1	upper	amplitud.ttf
677318	WORD	wordpools/wasnorm_wordpool.txt	LTP151	ltpFR	4	5	1	APPLE	33	n/a	n/a	0	0.57763671875	0.412841796875	1	upper	amplitud.ttf
681481	WORD	wordpools/wasnorm_wordpool.txt	LTP151	ltpFR	4	5	1	SHORTCAKE	1292	n/a	n/a	0	0.57763671875	0.412841796875	1	upper	amplitud.ttf
685476	WORD	wordpools/wasnorm_wordpool.txt	LTP151	ltpFR	4	5	1	FRAGRANCE	599	n/a	n/a	0	0.57763671875	0.412841796875	1	upper	amplitud.ttf
689688	WORD	wordpools/wasnorm_wordpool.txt	LTP151	ltpFR	4	5	0	ONION	977	n/a	n/a	0	0.422607421875	0.5869140625	0	lower	zerothre.ttf
693517	WORD	wordpools/wasnorm_wordpool.txt	LTP151	ltpFR	4	5	0	CLAW	319	n/a	n/a	0	0.422607421875	0.5869140625	0	lower	zerothre.ttf
697353	WORD	wordpools/wasnorm_wordpool.txt	LTP151	ltpFR	4	5	1	OTTER	986	n/a	n/a	1	0.57763671875	0.412841796875	1	upper	amplitud.ttf
701449	WORD	wordpools/wasnorm_wordpool.txt	LTP151	ltpFR	4	5	1	CHILD	299	n/a	n/a	1	0.57763671875	0.412841796875	1	upper	amplitud.ttf
705470	WORD	wordpools/wasnorm_wordpool.txt	LTP151	ltpFR	4	5	1	FELLOW	558	n/a	n/a	1	0.57763671875	0.412841796875	1	upper	amplitud.ttf
709665	WORD	wordpools/wasnorm_wordpool.txt	LTP151	ltpFR	4	5	0	JEANS	752	n/a	n/a	1	0.422607421875	0.5869140625	0	lower	zerothre.ttf
713868	WORD	wordpools/wasnorm_wordpool.txt	LTP151	ltpFR	4	5	0	LID	817	n/a	n/a	0	0.422607421875	0.5869140625	0	lower	zerothre.ttf
717847	WORD	wordpools/wasnorm_wordpool.txt	LTP151	ltpFR	4	5	0	DIVER	476	n/a	n/a	1	0.422607421875	0.5869140625	0	lower	zerothre.ttf
723899	REC_START	n/a	LTP151	ltpFR	4	5	n/a	n/a	n/a	n/a	n/a	n/a	n/a	n/a	n/a	n/a	n/a
726897	REC_WORD	wordpools/wasnorm_wordpool.txt	LTP151	ltpFR	4	5	0	TIDE	1465	n/a	n/a	1	n/a	n/a	n/a	n/a	n/a
729321	REC_WORD	wordpools/wasnorm_wordpool.txt	LTP151	ltpFR	4	5	0	BANDANNA	80	n/a	n/a	0	n/a	n/a	n/a	n/a	n/a
736954	REC_WORD	wordpools/wasnorm_wordpool.txt	LTP151	ltpFR	4	5	0	LID	817	n/a	n/a	0	n/a	n/a	n/a	n/a	n/a
738012	REC_WORD	wordpools/wasnorm_wordpool.txt	LTP151	ltpFR	4	5	0	JEANS	752	n/a	n/a	1	n/a	n/a	n/a	n/a	n/a
740197	REC_WORD	wordpools/wasnorm_wordpool.txt	LTP151	ltpFR	4	5	1	APPLE	33	n/a	n/a	0	n/a	n/a	n/a	n/a	n/a
741234	REC_WORD	wordpools/wasnorm_wordpool.txt	LTP151	ltpFR	4	5	1	SHORTCAKE	1292	n/a	n/a	0	n/a	n/a	n/a	n/a	n/a
743559	REC_WORD	wordpools/wasnorm_wordpool.txt	LTP151	ltpFR	4	5	1	FRAGRANCE	599	n/a	n/a	0	n/a	n/a	n/a	n/a	n/a
744557	REC_WORD	wordpools/wasnorm_wordpool.txt	LTP151	ltpFR	4	5	0	ONION	977	n/a	n/a	0	n/a	n/a	n/a	n/a	n/a
745689	REC_WORD	wordpools/wasnorm_wordpool.txt	LTP151	ltpFR	4	5	0	CLAW	319	n/a	n/a	0	n/a	n/a	n/a	n/a	n/a
749191	REC_WORD	wordpools/wasnorm_wordpool.txt	LTP151	ltpFR	4	5	1	OTTER	986	n/a	n/a	1	n/a	n/a	n/a	n/a	n/a
750169	REC_WORD	wordpools/wasnorm_wordpool.txt	LTP151	ltpFR	4	5	1	CHILD	299	n/a	n/a	1	n/a	n/a	n/a	n/a	n/a
754230	REC_WORD	wordpools/wasnorm_wordpool.txt	LTP151	ltpFR	4	5	1	FIGHTER	564	n/a	n/a	1	n/a	n/a	n/a	n/a	n/a
765449	REC_WORD	wordpools/wasnorm_wordpool.txt	LTP151	ltpFR	4	5	1	FELLOW	558	n/a	n/a	1	n/a	n/a	n/a	n/a	n/a
768652	REC_WORD	wordpools/wasnorm_wordpool.txt	LTP151	ltpFR	4	5	0	DIVER	476	n/a	n/a	1	n/a	n/a	n/a	n/a	n/a
803198	WORD	wordpools/wasnorm_wordpool.txt	LTP151	ltpFR	4	6	-1	PIANO	1057	n/a	n/a	-1	1.0	1.0	1	upper	Verdana.ttf
807177	WORD	wordpools/wasnorm_wordpool.txt	LTP151	ltpFR	4	6	-1	PAD	998	n/a	n/a	-1	1.0	1.0	1	upper	Verdana.ttf
811081	WORD	wordpools/wasnorm_wordpool.txt	LTP151	ltpFR	4	6	-1	SCROLL	1257	n/a	n/a	-1	1.0	1.0	1	upper	Verdana.ttf
815109	WORD	wordpools/wasnorm_wordpool.txt	LTP151	ltpFR	4	6	-1	SUBWAY	1400	n/a	n/a	-1	1.0	1.0	1	upper	Verdana.ttf
819046	WORD	wordpools/wasnorm_wordpool.txt	LTP151	ltpFR	4	6	-1	ASSOCIATE	49	n/a	n/a	-1	1.0	1.0	1	upper	Verdana.ttf
823125	WORD	wordpools/wasnorm_wordpool.txt	LTP151	ltpFR	4	6	-1	GLASSES	640	n/a	n/a	-1	1.0	1.0	1	upper	Verdana.ttf
827112	WORD	wordpools/wasnorm_wordpool.txt	LTP151	ltpFR	4	6	-1	TORTOISE	1486	n/a	n/a	-1	1.0	1.0	1	upper	Verdana.ttf
831082	WORD	wordpools/wasnorm_wordpool.txt	LTP151	ltpFR	4	6	-1	CHEF	290	n/a	n/a	-1	1.0	1.0	1	upper	Verdana.ttf
835061	WORD	wordpools/wasnorm_wordpool.txt	LTP151	ltpFR	4	6	-1	HERB	704	n/a	n/a	-1	1.0	1.0	1	upper	Verdana.ttf
838965	WORD	wordpools/wasnorm_wordpool.txt	LTP151	ltpFR	4	6	-1	LENS	811	n/a	n/a	-1	1.0	1.0	1	upper	Verdana.ttf
842993	WORD	wordpools/wasnorm_wordpool.txt	LTP151	ltpFR	4	6	-1	ZOO	1637	n/a	n/a	-1	1.0	1.0	1	upper	Verdana.ttf
846980	WORD	wordpools/wasnorm_wordpool.txt	LTP151	ltpFR	4	6	-1	WAVE	1596	n/a	n/a	-1	1.0	1.0	1	upper	Verdana.ttf
850801	WORD	wordpools/wasnorm_wordpool.txt	LTP151	ltpFR	4	6	-1	TOWER	1490	n/a	n/a	-1	1.0	1.0	1	upper	Verdana.ttf
854613	WORD	wordpools/wasnorm_wordpool.txt	LTP151	ltpFR	4	6	-1	CAGE	218	n/a	n/a	-1	1.0	1.0	1	upper	Verdana.ttf
858634	WORD	wordpools/wasnorm_wordpool.txt	LTP151	ltpFR	4	6	-1	NEST	945	n/a	n/a	-1	1.0	1.0	1	upper	Verdana.ttf
862496	WORD	wordpools/wasnorm_wordpool.txt	LTP151	ltpFR	4	6	-1	FOUNTAIN	597	n/a	n/a	-1	1.0	1.0	1	upper	Verdana.ttf
868381	REC_START	n/a	LTP151	ltpFR	4	6	n/a	n/a	n/a	n/a	n/a	n/a	n/a	n/a	n/a	n/a	n/a
875764	REC_WORD	wordpools/wasnorm_wordpool.txt	LTP151	ltpFR	4	6	-1	PIANO	1057	n/a	n/a	-1	n/a	n/a	n/a	n/a	n/a
876881	REC_WORD	wordpools/wasnorm_wordpool.txt	LTP151	ltpFR	4	6	-1	PAD	998	n/a	n/a	-1	n/a	n/a	n/a	n/a	n/a
877924	REC_WORD	wordpools/wasnorm_wordpool.txt	LTP151	ltpFR	4	6	-1	SCROLL	1257	n/a	n/a	-1	n/a	n/a	n/a	n/a	n/a
879306	REC_WORD	wordpools/wasnorm_wordpool.txt	LTP151	ltpFR	4	6	-1	SUBWAY	1400	n/a	n/a	-1	n/a	n/a	n/a	n/a	n/a
886769	REC_WORD	wordpools/wasnorm_wordpool.txt	LTP151	ltpFR	4	6	-1	WAVE	1596	n/a	n/a	-1	n/a	n/a	n/a	n/a	n/a
887757	REC_WORD	wordpools/wasnorm_wordpool.txt	LTP151	ltpFR	4	6	-1	TOWER	1490	n/a	n/a	-1	n/a	n/a	n/a	n/a	n/a
889233	REC_WORD	wordpools/wasnorm_wordpool.txt	LTP151	ltpFR	4	6	-1	CAGE	218	n/a	n/a	-1	n/a	n/a	n/a	n/a	n/a
890411	REC_WORD	wordpools/wasnorm_wordpool.txt	LTP151	ltpFR	4	6	-1	NEST	945	n/a	n/a	-1	n/a	n/a	n/a	n/a	n/a
891847	REC_WORD	wordpools/wasnorm_wordpool.txt	LTP151	ltpFR	4	6	-1	FOUNTAIN	597	n/a	n/a	-1	n/a	n/a	n/a	n/a	n/a
894092	REC_WORD	wordpools/wasnorm_wordpool.txt	LTP151	ltpFR	4	6	-1	CHEF	290	n/a	n/a	-1	n/a	n/a	n/a	n/a	n/a
895883	REC_WORD	wordpools/wasnorm_wordpool.txt	LTP151	ltpFR	4	6	-1	HERB	704	n/a	n/a	-1	n/a	n/a	n/a	n/a	n/a
899181	REC_WORD	wordpools/wasnorm_wordpool.txt	LTP151	ltpFR	4	6	-1	LENS	811	n/a	n/a	-1	n/a	n/a	n/a	n/a	n/a
900981	REC_WORD	wordpools/wasnorm_wordpool.txt	LTP151	ltpFR	4	6	-1	ZOO	1637	n/a	n/a	-1	n/a	n/a	n/a	n/a	n/a
909812	REC_WORD	wordpools/wasnorm_wordpool.txt	LTP151	ltpFR	4	6	-1	TORTOISE	1486	n/a	n/a	-1	n/a	n/a	n/a	n/a	n/a
910994	REC_WORD	wordpools/wasnorm_wordpool.txt	LTP151	ltpFR	4	6	-1	GLASSES	640	n/a	n/a	-1	n/a	n/a	n/a	n/a	n/a
913942	REC_WORD	wordpools/wasnorm_wordpool.txt	LTP151	ltpFR	4	6	-1	ASSOCIATE	49	n/a	n/a	-1	n/a	n/a	n/a	n/a	n/a
936491	REC_WORD	wordpools/wasnorm_wordpool.txt	LTP151	ltpFR	4	6	-1	WAVE	1596	n/a	n/a	-1	n/a	n/a	n/a	n/a	n/a
951002	WORD	wordpools/wasnorm_wordpool.txt	LTP151	ltpFR	4	7	1	POPCORN	1104	n/a	n/a	0	0.57763671875	0.412841796875	1	upper	amplitud.ttf
955172	WORD	wordpools/wasnorm_wordpool.txt	LTP151	ltpFR	4	7	1	JURY	766	n/a	n/a	1	0.57763671875	0.412841796875	1	upper	amplitud.ttf
959167	WORD	wordpools/wasnorm_wordpool.txt	LTP151	ltpFR	4	7	1	WITCH	1617	n/a	n/a	1	0.57763671875	0.412841796875	1	upper	amplitud.ttf
962988	WORD	wordpools/wasnorm_wordpool.txt	LTP151	ltpFR	4	7	1	KITTEN	780	n/a	n/a	1	0.57763671875	0.412841796875	1	upper	amplitud.ttf
967050	WORD	wordpools/wasnorm_wordpool.txt	LTP151	ltpFR	4	7	1	COWBOY	395	n/a	n/a	1	0.57763671875	0.412841796875	1	upper	amplitud.ttf
971053	WORD	wordpools/wasnorm_wordpool.txt	LTP151	ltpFR	4	7	1	FLASK	576	n/a	n/a	0	0.57763671875	0.412841796875	1	upper	amplitud.ttf
975032	WORD	wordpools/wasnorm_wordpool.txt	LTP151	ltpFR	4	7	1	CAB	209	n/a	n/a	0	0.57763671875	0.412841796875	1	upper	amplitud.ttf
979202	WORD	wordpools/wasnorm_wordpool.txt	LTP151	ltpFR	4	7	1	CAR	241	n/a	n/a	0	0.57763671875	0.412841796875	1	upper	amplitud.ttf
983015	WORD	wordpools/wasnorm_wordpool.txt	LTP151	ltpFR	4	7	1	KEG	770	n/a	n/a	0	0.57763671875	0.412841796875	1	upper	amplitud.ttf
987060	WORD	wordpools/wasnorm_wordpool.txt	LTP151	ltpFR	4	7	1	MITTEN	902	n/a	n/a	0	0.57763671875	0.412841796875	1	upper	amplitud.ttf
991188	WORD	wordpools/wasnorm_wordpool.txt	LTP151	ltpFR	4	7	1	ORCHID	982	n/a	n/a	1	0.57763671875	0.412841796875	1	upper	amplitud.ttf
995341	WORD	wordpools/wasnorm_wordpool.txt	LTP151	ltpFR	4	7	1	CACTUS	215	n/a	n/a	1	0.57763671875	0.412841796875	1	upper	amplitud.ttf
999303	WORD	wordpools/wasnorm_wordpool.txt	LTP151	ltpFR	4	7	1	SCREEN	1253	n/a	n/a	0	0.57763671875	0.412841796875	1	upper	amplitud.ttf
1003283	WORD	wordpools/wasnorm_wordpool.txt	LTP151	ltpFR	4	7	1	CONSUMER	365	n/a	n/a	0	0.57763671875	0.412841796875	1	upper	amplitud.ttf
1007486	WORD	wordpools/wasnorm_wordpool.txt	LTP151	ltpFR	4	7	1	FAN	551	n/a	n/a	0	0.57763671875	0.412841796875	1	upper	amplitud.ttf
1011322	WORD	wordpools/wasnorm_wordpool.txt	LTP151	ltpFR	4	7	1	IGLOO	734	n/a	n/a	0	0.57763671875	0.412841796875	1	upper	amplitud.ttf
1017109	REC_START	n/a	LTP151	ltpFR	4	7	n/a	n/a	n/a	n/a	n/a	n/a	n/a	n/a	n/a	n/a	n/a
1020806	REC_WORD	wordpools/wasnorm_wordpool.txt	LTP151	ltpFR	4	7	1	KITTEN	780	n/a	n/a	1	n/a	n/a	n/a	n/a	n/a
1022078	REC_WORD	wordpools/wasnorm_wordpool.txt	LTP151	ltpFR	4	7	1	COWBOY	395	n/a	n/a	1	n/a	n/a	n/a	n/a	n/a
1023788	REC_WORD	wordpools/wasnorm_wordpool.txt	LTP151	ltpFR	4	7	1	FLASK	576	n/a	n/a	0	n/a	n/a	n/a	n/a	n/a
1026991	REC_WORD	wordpools/wasnorm_wordpool.txt	LTP151	ltpFR	4	7	1	SCREEN	1253	n/a	n/a	0	n/a	n/a	n/a	n/a	n/a
1028139	REC_WORD	wordpools/wasnorm_wordpool.txt	LTP151	ltpFR	4	7	1	KEG	770	n/a	n/a	0	n/a	n/a	n/a	n/a	n/a
1029057	REC_WORD	wordpools/wasnorm_wordpool.txt	LTP151	ltpFR	4	7	1	MITTEN	902	n/a	n/a	0	n/a	n/a	n/a	n/a	n/a
1039972	REC_WORD	wordpools/wasnorm_wordpool.txt	LTP151	ltpFR	4	7	1	ORCHID	982	n/a	n/a	1	n/a	n/a	n/a	n/a	n/a
1041977	REC_WORD	wordpools/wasnorm_wordpool.txt	LTP151	ltpFR	4	7	1	CACTUS	215	n/a	n/a	1	n/a	n/a	n/a	n/a	n/a
1054474	REC_WORD	wordpools/wasnorm_wordpool.txt	LTP151	ltpFR	4	7	1	POPCORN	1104	n/a	n/a	0	n/a	n/a	n/a	n/a	n/a
1056045	REC_WORD	wordpools/wasnorm_wordpool.txt	LTP151	ltpFR	4	7	1	JURY	766	n/a	n/a	1	n/a	n/a	n/a	n/a	n/a
1096733	WORD	wordpools/wasnorm_wordpool.txt	LTP151	ltpFR	4	8	1	EXPERT	543	n/a	n/a	1	0.57763671875	0.412841796875	1	upper	amplitud.ttf
1100895	WORD	wordpools/wasnorm_wordpool.txt	LTP151	ltpFR	4	8	1	JUVENILE	767	n/a	n/a	1	0.57763671875	0.412841796875	1	upper	amplitud.ttf
1104815	WORD	wordpools/wasnorm_wordpool.txt	LTP151	ltpFR	4	8	1	TOURIST	1488	n/a	n/a	1	0.57763671875	0.412841796875	1	upper	amplitud.ttf
1108944	WORD	wordpools/wasnorm_wordpool.txt	LTP151	ltpFR	4	8	1	DUSTPAN	509	n/a	n/a	0	0.57763671875	0.412841796875	1	upper	amplitud.ttf
1112889	WORD	wordpools/wasnorm_wordpool.txt	LTP151	ltpFR	4	8	1	COMB	351	n/a	n/a	0	0.57763671875	0.412841796875	1	upper	amplitud.ttf
1117026	WORD	wordpools/wasnorm_wordpool.txt	LTP151	ltpFR	4	8	1	BEAST	108	n/a	n/a	1	0.57763671875	0.412841796875	1	upper	amplitud.ttf
1120880	WORD	wordpools/wasnorm_wordpool.txt	LTP151	ltpFR	4	8	1	TEENAGER	1444	n/a	n/a	1	0.57763671875	0.412841796875	1	upper	amplitud.ttf
1124859	WORD	wordpools/wasnorm_wordpool.txt	LTP151	ltpFR	4	8	1	DETECTIVE	454	n/a	n/a	1	0.57763671875	0.412841796875	1	upper	amplitud.ttf
1129062	WORD	wordpools/wasnorm_wordpool.txt	LTP151	ltpFR	4	8	1	PATROL	1027	n/a	n/a	1	0.57763671875	0.412841796875	1	upper	amplitud.ttf
1132974	WORD	wordpools/wasnorm_wordpool.txt	LTP151	ltpFR	4	8	1	FARMER	553	n/a	n/a	1	0.57763671875	0.412841796875	1	upper	amplitud.ttf
1137153	WORD	wordpools/wasnorm_wordpool.txt	LTP151	ltpFR	4	8	1	SUITCASE	1403	n/a	n/a	0	0.57763671875	0.412841796875	1	upper	amplitud.ttf
1141231	WORD	wordpools/wasnorm_wordpool.txt	LTP151	ltpFR	4	8	1	DOUGHNUT	490	n/a	n/a	0	0.57763671875	0.412841796875	1	upper	amplitud.ttf
1145077	WORD	wordpools/wasnorm_wordpool.txt	LTP151	ltpFR	4	8	1	DEER	444	n/a	n/a	0	0.57763671875	0.412841796875	1	upper	amplitud.ttf
1149030	WORD	wordpools/wasnorm_wordpool.txt	LTP151	ltpFR	4	8	1	NERVE	944	n/a	n/a	0	0.57763671875	0.412841796875	1	upper	amplitud.ttf
1153151	WORD	wordpools/wasnorm_wordpool.txt	LTP151	ltpFR	4	8	1	SCRIBBLE	1256	n/a	n/a	0	0.57763671875	0.412841796875	1	upper	amplitud.ttf
1157096	WORD	wordpools/wasnorm_wordpool.txt	LTP151	ltpFR	4	8	1	RASH	1167	n/a	n/a	0	0.57763671875	0.412841796875	1	upper	amplitud.ttf
1163040	REC_START	n/a	LTP151	ltpFR	4	8	n/a	n/a	n/a	n/a	n/a	n/a	n/a	n/a	n/a	n/a	n/a
1166900	REC_WORD	wordpools/wasnorm_wordpool.txt	LTP151	ltpFR	4	8	1	SUITCASE	1403	n/a	n/a	0	n/a	n/a	n/a	n/a	n/a
1167804	REC_WORD	wordpools/wasnorm_wordpool.txt	LTP151	ltpFR	4	8	1	DOUGHNUT	490	n/a	n/a	0	n/a	n/a	n/a	n/a	n/a
1168662	REC_WORD	wordpools/wasnorm_wordpool.txt	LTP151	ltpFR	4	8	1	DEER	444	n/a	n/a	0	n/a	n/a	n/a	n/a	n/a
1170129	REC_WORD	wordpools/wasnorm_wordpool.txt	LTP151	ltpFR	4	8	1	NERVE	944	n/a	n/a	0	n/a	n/a	n/a	n/a	n/a
1171242	REC_WORD	wordpools/wasnorm_wordpool.txt	LTP151	ltpFR	4	8	1	SCRIBBLE	1256	n/a	n/a	0	n/a	n/a	n/a	n/a	n/a
1172239	REC_WORD	wordpools/wasnorm_wordpool.txt	LTP151	ltpFR	4	8	1	RASH	1167	n/a	n/a	0	n/a	n/a	n/a	n/a	n/a
1174758	REC_WORD	wordpools/wasnorm_wordpool.txt	LTP151	ltpFR	4	8	1	FARMER	553	n/a	n/a	1	n/a	n/a	n/a	n/a	n/a
1176309	REC_WORD	wordpools/wasnorm_wordpool.txt	LTP151	ltpFR	4	8	1	EXPERT	543	n/a	n/a	1	n/a	n/a	n/a	n/a	n/a
1177203	REC_WORD	wordpools/wasnorm_wordpool.txt	LTP151	ltpFR	4	8	1	JUVENILE	767	n/a	n/a	1	n/a	n/a	n/a	n/a	n/a
1181767	REC_WORD	wordpools/wasnorm_wordpool.txt	LTP151	ltpFR	4	8	1	TEENAGER	1444	n/a	n/a	1	n/a	n/a	n/a	n/a	n/a
1183827	REC_WORD	wordpools/wasnorm_wordpool.txt	LTP151	ltpFR	4	8	1	DETECTIVE	454	n/a	n/a	1	n/a	n/a	n/a	n/a	n/a
1184645	REC_WORD	wordpools/wasnorm_wordpool.txt	LTP151	ltpFR	4	8	1	PATROL	1027	n/a	n/a	1	n/a	n/a	n/a	n/a	n/a
1191081	REC_WORD	wordpools/wasnorm_wordpool.txt	LTP151	ltpFR	4	8	1	BEAST	108	n/a	n/a	1	n/a	n/a	n/a	n/a	n/a
1198080	REC_WORD	wordpools/wasnorm_wordpool.txt	LTP151	ltpFR	4	8	1	TOURIST	1488	n/a	n/a	1	n/a	n/a	n/a	n/a	n/a
1234687	REC_WORD	wordpools/wasnorm_wordpool.txt	LTP151	ltpFR	4	8	1	DETECTIVE	454	n/a	n/a	1	n/a	n/a	n/a	n/a	n/a
1242371	WORD	wordpools/wasnorm_wordpool.txt	LTP151	ltpFR	4	9	1	UNIFORM	1539	n/a	n/a	0	0.57763671875	0.412841796875	1	upper	amplitud.ttf
1246376	WORD	wordpools/wasnorm_wordpool.txt	LTP151	ltpFR	4	9	1	FLEET	578	n/a	n/a	0	0.57763671875	0.412841796875	1	upper	amplitud.ttf
1250455	WORD	wordpools/wasnorm_wordpool.txt	LTP151	ltpFR	4	9	0	DRILL	497	n/a	n/a	0	0.422607421875	0.5869140625	0	lower	zerothre.ttf
1254508	WORD	wordpools/wasnorm_wordpool.txt	LTP151	ltpFR	4	9	0	CAPTIVE	240	n/a	n/a	1	0.422607421875	0.5869140625	0	lower	zerothre.ttf
1258687	WORD	wordpools/wasnorm_wordpool.txt	LTP151	ltpFR	4	9	0	SPIDER	1351	n/a	n/a	0	0.422607421875	0.5869140625	0	lower	zerothre.ttf
1262724	WORD	wordpools/wasnorm_wordpool.txt	LTP151	ltpFR	4	9	0	BEETLE	116	n/a	n/a	0	0.422607421875	0.5869140625	0	lower	zerothre.ttf
1266578	WORD	wordpools/wasnorm_wordpool.txt	LTP151	ltpFR	4	9	1	VETERAN	1561	n/a	n/a	1	0.57763671875	0.412841796875	1	upper	amplitud.ttf
1270481	WORD	wordpools/wasnorm_wordpool.txt	LTP151	ltpFR	4	9	1	COOKBOOK	373	n/a	n/a	0	0.57763671875	0.412841796875	1	upper	amplitud.ttf
1274635	WORD	wordpools/wasnorm_wordpool.txt	LTP151	ltpFR	4	9	1	PEN	1041	n/a	n/a	0	0.57763671875	0.412841796875	1	upper	amplitud.ttf
1278564	WORD	wordpools/wasnorm_wordpool.txt	LTP151	ltpFR	4	9	1	PORCH	1106	n/a	n/a	0	0.57763671875	0.412841796875	1	upper	amplitud.ttf
1282609	WORD	wordpools/wasnorm_wordpool.txt	LTP151	ltpFR	4	9	0	BRUNETTE	181	n/a	n/a	1	0.422607421875	0.5869140625	0	lower	zerothre.ttf
1286446	WORD	wordpools/wasnorm_wordpool.txt	LTP151	ltpFR	4	9	0	LINT	826	n/a	n/a	0	0.422607421875	0.5869140625	0	lower	zerothre.ttf
1290349	WORD	wordpools/wasnorm_wordpool.txt	LTP151	ltpFR	4	9	0	COAL	332	n/a	n/a	0	0.422607421875	0.5869140625	0	lower	zerothre.ttf
1294437	WORD	wordpools/wasnorm_wordpool.txt	LTP151	ltpFR	4	9	0	FUGITIVE	612	n/a	n/a	1	0.422607421875	0.5869140625	0	lower	zerothre.ttf
1298356	WORD	wordpools/wasnorm_wordpool.txt	LTP151	ltpFR	4	9	1	NECKLACE	940	n/a	n/a	0	0.57763671875	0.412841796875	1	upper	amplitud.ttf
1302486	WORD	wordpools/wasnorm_wordpool.txt	LTP151	ltpFR	4	9	1	SHELTER	1282	n/a	n/a	0	0.57763671875	0.412841796875	1	upper	amplitud.ttf
1308238	REC_START	n/a	LTP151	ltpFR	4	9	n/a	n/a	n/a	n/a	n/a	n/a	n/a	n/a	n/a	n/a	n/a
1310777	REC_WORD	wordpools/wasnorm_wordpool.txt	LTP151	ltpFR	4	9	0	FUGITIVE	612	n/a	n/a	1	n/a	n/a	n/a	n/a	n/a
1312194	REC_WORD	wordpools/wasnorm_wordpool.txt	LTP151	ltpFR	4	9	1	NECKLACE	940	n/a	n/a	0	n/a	n/a	n/a	n/a	n/a
1313331	REC_WORD	wordpools/wasnorm_wordpool.txt	LTP151	ltpFR	4	9	1	SHELTER	1282	n/a	n/a	0	n/a	n/a	n/a	n/a	n/a
1316050	REC_WORD	wordpools/wasnorm_wordpool.txt	LTP151	ltpFR	4	9	0	CAPTIVE	240	n/a	n/a	1	n/a	n/a	n/a	n/a	n/a
1317147	REC_WORD	wordpools/wasnorm_wordpool.txt	LTP151	ltpFR	4	9	0	SPIDER	1351	n/a	n/a	0	n/a	n/a	n/a	n/a	n/a
1317911	REC_WORD	wordpools/wasnorm_wordpool.txt	LTP151	ltpFR	4	9	0	BEETLE	116	n/a	n/a	0	n/a	n/a	n/a	n/a	n/a
1324630	REC_WORD	wordpools/wasnorm_wordpool.txt	LTP151	ltpFR	4	9	0	LINT	826	n/a	n/a	0	n/a	n/a	n/a	n/a	n/a
1325663	REC_WORD	wordpools/wasnorm_wordpool.txt	LTP151	ltpFR	4	9	0	BRUNETTE	181	n/a	n/a	1	n/a	n/a	n/a	n/a	n/a
1326780	REC_WORD	wordpools/wasnorm_wordpool.txt	LTP151	ltpFR	4	9	1	PORCH	1106	n/a	n/a	0	n/a	n/a	n/a	n/a	n/a
1394554	WORD	wordpools/wasnorm_wordpool.txt	LTP151	ltpFR	4	10	0	FLESH	579	n/a	n/a	0	0.422607421875	0.5869140625	0	lower	zerothre.ttf
1398733	WORD	wordpools/wasnorm_wordpool.txt	LTP151	ltpFR	4	10	0	TECHNICIAN	1443	n/a	n/a	1	0.422607421875	0.5869140625	0	lower	zerothre.ttf
1402828	WORD	wordpools/wasnorm_wordpool.txt	LTP151	ltpFR	4	10	0	CHOCOLATE	306	n/a	n/a	0	0.422607421875	0.5869140625	0	lower	zerothre.ttf
1406790	WORD	wordpools/wasnorm_wordpool.txt	LTP151	ltpFR	4	10	0	BUCKLE	185	n/a	n/a	0	0.422607421875	0.5869140625	0	lower	zerothre.ttf
1410694	WORD	wordpools/wasnorm_wordpool.txt	LTP151	ltpFR	4	10	0	FORK	594	n/a	n/a	0	0.422607421875	0.5869140625	0	lower	zerothre.ttf
1414698	WORD	wordpools/wasnorm_wordpool.txt	LTP151	ltpFR	4	10	0	TREAD	1499	n/a	n/a	0	0.422607421875	0.5869140625	0	lower	zerothre.ttf
1418601	WORD	wordpools/wasnorm_wordpool.txt	LTP151	ltpFR	4	10	1	WATER	1594	n/a	n/a	0	0.57763671875	0.412841796875	1	upper	amplitud.ttf
1422597	WORD	wordpools/wasnorm_wordpool.txt	LTP151	ltpFR	4	10	1	CHAMBER	277	n/a	n/a	0	0.57763671875	0.412841796875	1	upper	amplitud.ttf
1426559	WORD	wordpools/wasnorm_wordpool.txt	LTP151	ltpFR	4	10	1	TAPIOCA	1434	n/a	n/a	0	0.57763671875	0.412841796875	1	upper	amplitud.ttf
1430438	WORD	wordpools/wasnorm_wordpool.txt	LTP151	ltpFR	4	10	1	VAMPIRE	1547	n/a	n/a	1	0.57763671875	0.412841796875	1	upper	amplitud.ttf
1434441	WORD	wordpools/wasnorm_wordpool.txt	LTP151	ltpFR	4	10	1	TOILET	1475	n/a	n/a	0	0.57763671875	0.412841796875	1	upper	amplitud.ttf
1438553	WORD	wordpools/wasnorm_wordpool.txt	LTP151	ltpFR	4	10	0	SHERIFF	1284	n/a	n/a	1	0.422607421875	0.5869140625	0	lower	zerothre.ttf
1442415	WORD	wordpools/wasnorm_wordpool.txt	LTP151	ltpFR	4	10	0	AGENT	10	n/a	n/a	1	0.422607421875	0.5869140625	0	lower	zerothre.ttf
1446302	WORD	wordpools/wasnorm_wordpool.txt	LTP151	ltpFR	4	10	1	WITNESS	1618	n/a	n/a	1	0.57763671875	0.412841796875	1	upper	amplitud.ttf
1450231	WORD	wordpools/wasnorm_wordpool.txt	LTP151	ltpFR	4	10	1	WHEAT	1602	n/a	n/a	1	0.57763671875	0.412841796875	1	upper	amplitud.ttf
1454135	WORD	wordpools/wasnorm_wordpool.txt	LTP151	ltpFR	4	10	1	STRAWBERRY	1391	n/a	n/a	1	0.57763671875	0.412841796875	1	upper	amplitud.ttf
1459962	REC_START	n/a	LTP151	ltpFR	4	10	n/a	n/a	n/a	n/a	n/a	n/a	n/a	n/a	n/a	n/a	n/a
1462565	REC_WORD	wordpools/wasnorm_wordpool.txt	LTP151	ltpFR	4	10	1	WITNESS	1618	n/a	n/a	1	n/a	n/a	n/a	n/a	n/a
1463151	REC_WORD	wordpools/wasnorm_wordpool.txt	LTP151	ltpFR	4	10	1	WHEAT	1602	n/a	n/a	1	n/a	n/a	n/a	n/a	n/a
1463763	REC_WORD	wordpools/wasnorm_wordpool.txt	LTP151	ltpFR	4	10	1	STRAWBERRY	1391	n/a	n/a	1	n/a	n/a	n/a	n/a	n/a
1464826	REC_WORD	wordpools/wasnorm_wordpool.txt	LTP151	ltpFR	4	10	0	SHERIFF	1284	n/a	n/a	1	n/a	n/a	n/a	n/a	n/a
1465998	REC_WORD	wordpools/wasnorm_wordpool.txt	LTP151	ltpFR	4	10	0	AGENT	10	n/a	n/a	1	n/a	n/a	n/a	n/a	n/a
1468911	REC_WORD	wordpools/wasnorm_wordpool.txt	LTP151	ltpFR	4	10	0	BUCKLE	185	n/a	n/a	0	n/a	n/a	n/a	n/a	n/a
1469410	REC_WORD	wordpools/wasnorm_wordpool.txt	LTP151	ltpFR	4	10	0	FORK	594	n/a	n/a	0	n/a	n/a	n/a	n/a	n/a
1470907	REC_WORD	wordpools/wasnorm_wordpool.txt	LTP151	ltpFR	4	10	0	TREAD	1499	n/a	n/a	0	n/a	n/a	n/a	n/a	n/a
1473177	REC_WORD	wordpools/wasnorm_wordpool.txt	LTP151	ltpFR	4	10	1	WATER	1594	n/a	n/a	0	n/a	n/a	n/a	n/a	n/a
1473975	REC_WORD	wordpools/wasnorm_wordpool.txt	LTP151	ltpFR	4	10	1	CHAMBER	277	n/a	n/a	0	n/a	n/a	n/a	n/a	n/a
1474703	REC_WORD	wordpools/wasnorm_wordpool.txt	LTP151	ltpFR	4	10	1	TAPIOCA	1434	n/a	n/a	0	n/a	n/a	n/a	n/a	n/a
1479687	REC_WORD	wordpools/wasnorm_wordpool.txt	LTP151	ltpFR	4	10	0	CHOCOLATE	306	n/a	n/a	0	n/a	n/a	n/a	n/a	n/a
1481221	REC_WORD	wordpools/wasnorm_wordpool.txt	LTP151	ltpFR	4	10	0	BUCKLE	185	n/a	n/a	0	n/a	n/a	n/a	n/a	n/a
1484545	REC_WORD	wordpools/wasnorm_wordpool.txt	LTP151	ltpFR	4	10	0	TECHNICIAN	1443	n/a	n/a	1	n/a	n/a	n/a	n/a	n/a
1488466	REC_WORD	wordpools/wasnorm_wordpool.txt	LTP151	ltpFR	4	10	0	FLESH	579	n/a	n/a	0	n/a	n/a	n/a	n/a	n/a
1511394	REC_WORD	wordpools/wasnorm_wordpool.txt	LTP151	ltpFR	4	10	1	WITNESS	1618	n/a	n/a	1	n/a	n/a	n/a	n/a	n/a
1541700	WORD	wordpools/wasnorm_wordpool.txt	LTP151	ltpFR	4	11	0	LIPSTICK	829	n/a	n/a	0	0.422607421875	0.5869140625	0	lower	zerothre.ttf
1545571	WORD	wordpools/wasnorm_wordpool.txt	LTP151	ltpFR	4	11	0	TWINE	1529	n/a	n/a	0	0.422607421875	0.5869140625	0	lower	zerothre.ttf
1549575	WORD	wordpools/wasnorm_wordpool.txt	LTP151	ltpFR	4	11	0	ROPE	1211	n/a	n/a	1	0.422607421875	0.5869140625	0	lower	zerothre.ttf
1553578	WORD	wordpools/wasnorm_wordpool.txt	LTP151	ltpFR	4	11	0	ARM	38	n/a	n/a	1	0.422607421875	0.5869140625	0	lower	zerothre.ttf
1557682	WORD	wordpools/wasnorm_wordpool.txt	LTP151	ltpFR	4	11	0	PAIL	1002	n/a	n/a	1	0.422607421875	0.5869140625	0	lower	zerothre.ttf
1561644	WORD	wordpools/wasnorm_wordpool.txt	LTP151	ltpFR	4	11	0	BISON	131	n/a	n/a	1	0.422607421875	0.5869140625	0	lower	zerothre.ttf
1565806	WORD	wordpools/wasnorm_wordpool.txt	LTP151	ltpFR	4	11	0	OPERA	978	n/a	n/a	1	0.422607421875	0.5869140625	0	lower	zerothre.ttf
1569693	WORD	wordpools/wasnorm_wordpool.txt	LTP151	ltpFR	4	11	0	EARTH	515	n/a	n/a	1	0.422607421875	0.5869140625	0	lower	zerothre.ttf
1573830	WORD	wordpools/wasnorm_wordpool.txt	LTP151	ltpFR	4	11	0	POTATO	1115	n/a	n/a	0	0.422607421875	0.5869140625	0	lower	zerothre.ttf
1577700	WORD	wordpools/wasnorm_wordpool.txt	LTP151	ltpFR	4	11	0	BARN	89	n/a	n/a	1	0.422607421875	0.5869140625	0	lower	zerothre.ttf
1581646	WORD	wordpools/wasnorm_wordpool.txt	LTP151	ltpFR	4	11	0	FAUCET	555	n/a	n/a	0	0.422607421875	0.5869140625	0	lower	zerothre.ttf
1585658	WORD	wordpools/wasnorm_wordpool.txt	LTP151	ltpFR	4	11	0	WASHCLOTH	1591	n/a	n/a	0	0.422607421875	0.5869140625	0	lower	zerothre.ttf
1589670	WORD	wordpools/wasnorm_wordpool.txt	LTP151	ltpFR	4	11	0	DRYER	503	n/a	n/a	1	0.422607421875	0.5869140625	0	lower	zerothre.ttf
1593507	WORD	wordpools/wasnorm_wordpool.txt	LTP151	ltpFR	4	11	0	CLAM	315	n/a	n/a	0	0.422607421875	0.5869140625	0	lower	zerothre.ttf
1597694	WORD	wordpools/wasnorm_wordpool.txt	LTP151	ltpFR	4	11	0	TOMBSTONE	1478	n/a	n/a	1	0.422607421875	0.5869140625	0	lower	zerothre.ttf
1601606	WORD	wordpools/wasnorm_wordpool.txt	LTP151	ltpFR	4	11	0	TOMB	1477	n/a	n/a	1	0.422607421875	0.5869140625	0	lower	zerothre.ttf
1607533	REC_START	n/a	LTP151	ltpFR	4	11	n/a	n/a	n/a	n/a	n/a	n/a	n/a	n/a	n/a	n/a	n/a
1610995	REC_WORD	wordpools/wasnorm_wordpool.txt	LTP151	ltpFR	4	11	0	DRYER	503	n/a	n/a	1	n/a	n/a	n/a	n/a	n/a
1612107	REC_WORD	wordpools/wasnorm_wordpool.txt	LTP151	ltpFR	4	11	0	CLAM	315	n/a	n/a	0	n/a	n/a	n/a	n/a	n/a
1615539	REC_WORD	wordpools/wasnorm_wordpool.txt	LTP151	ltpFR	4	11	0	TOMBSTONE	1478	n/a	n/a	1	n/a	n/a	n/a	n/a	n/a
1616522	REC_WORD	wordpools/wasnorm_wordpool.txt	LTP151	ltpFR	4	11	0	TOMB	1477	n/a	n/a	1	n/a	n/a	n/a	n/a	n/a
1620498	REC_WORD	wordpools/wasnorm_wordpool.txt	LTP151	ltpFR	4	11	0	WASHCLOTH	1591	n/a	n/a	0	n/a	n/a	n/a	n/a	n/a
1622843	REC_WORD	wordpools/wasnorm_wordpool.txt	LTP151	ltpFR	4	11	0	FAUCET	555	n/a	n/a	0	n/a	n/a	n/a	n/a	n/a
1628665	REC_WORD	wordpools/wasnorm_wordpool.txt	LTP151	ltpFR	4	11	0	OPERA	978	n/a	n/a	1	n/a	n/a	n/a	n/a	n/a
1630186	REC_WORD	wordpools/wasnorm_wordpool.txt	LTP151	ltpFR	4	11	0	EARTH	515	n/a	n/a	1	n/a	n/a	n/a	n/a	n/a
1631503	REC_WORD	wordpools/wasnorm_wordpool.txt	LTP151	ltpFR	4	11	0	POTATO	1115	n/a	n/a	0	n/a	n/a	n/a	n/a	n/a
1632671	REC_WORD	wordpools/wasnorm_wordpool.txt	LTP151	ltpFR	4	11	0	BARN	89	n/a	n/a	1	n/a	n/a	n/a	n/a	n/a
1646519	REC_WORD	wordpools/wasnorm_wordpool.txt	LTP151	ltpFR	4	11	0	TWINE	1529	n/a	n/a	0	n/a	n/a	n/a	n/a	n/a
1648686	REC_WORD	wordpools/wasnorm_wordpool.txt	LTP151	ltpFR	4	11	0	LIPSTICK	829	n/a	n/a	0	n/a	n/a	n/a	n/a	n/a
1649871	REC_WORD	wordpools/wasnorm_wordpool.txt	LTP151	ltpFR	4	11	0	ROPE	1211	n/a	n/a	1	n/a	n/a	n/a	n/a	n/a
1651383	REC_WORD	wordpools/wasnorm_wordpool.txt	LTP151	ltpFR	4	11	0	ARM	38	n/a	n/a	1	n/a	n/a	n/a	n/a	n/a
1652885	REC_WORD	wordpools/wasnorm_wordpool.txt	LTP151	ltpFR	4	11	0	PAIL	1002	n/a	n/a	1	n/a	n/a	n/a	n/a	n/a
1655524	REC_WORD	wordpools/wasnorm_wordpool.txt	LTP151	ltpFR	4	11	0	BISON	131	n/a	n/a	1	n/a	n/a	n/a	n/a	n/a
1688097	WORD	wordpools/wasnorm_wordpool.txt	LTP151	ltpFR	4	12	-1	OX	994	n/a	n/a	-1	1.0	1.0	1	upper	Verdana.ttf
1692151	WORD	wordpools/wasnorm_wordpool.txt	LTP151	ltpFR	4	12	-1	CROCODILE	411	n/a	n/a	-1	1.0	1.0	1	upper	Verdana.ttf
1696155	WORD	wordpools/wasnorm_wordpool.txt	LTP151	ltpFR	4	12	-1	HOOD	714	n/a	n/a	-1	1.0	1.0	1	upper	Verdana.ttf
1700167	WORD	wordpools/wasnorm_wordpool.txt	LTP151	ltpFR	4	12	-1	LEG	809	n/a	n/a	-1	1.0	1.0	1	upper	Verdana.ttf
1704237	WORD	wordpools/wasnorm_wordpool.txt	LTP151	ltpFR	4	12	-1	JOINT	758	n/a	n/a	-1	1.0	1.0	1	upper	Verdana.ttf
1708257	WORD	wordpools/wasnorm_wordpool.txt	LTP151	ltpFR	4	12	-1	TIE	1466	n/a	n/a	-1	1.0	1.0	1	upper	Verdana.ttf
1712211	WORD	wordpools/wasnorm_wordpool.txt	LTP151	ltpFR	4	12	-1	HEEL	700	n/a	n/a	-1	1.0	1.0	1	upper	Verdana.ttf
1716322	WORD	wordpools/wasnorm_wordpool.txt	LTP151	ltpFR	4	12	-1	RUST	1219	n/a	n/a	-1	1.0	1.0	1	upper	Verdana.ttf
1720317	WORD	wordpools/wasnorm_wordpool.txt	LTP151	ltpFR	4	12	-1	VALVE	1546	n/a	n/a	-1	1.0	1.0	1	upper	Verdana.ttf
1724181	WORD	wordpools/wasnorm_wordpool.txt	LTP151	ltpFR	4	12	-1	COUCH	386	n/a	n/a	-1	1.0	1.0	1	upper	Verdana.ttf
1728059	WORD	wordpools/wasnorm_wordpool.txt	LTP151	ltpFR	4	12	-1	CUE	422	n/a	n/a	-1	1.0	1.0	1	upper	Verdana.ttf
1731880	WORD	wordpools/wasnorm_wordpool.txt	LTP151	ltpFR	4	12	-1	STOMACH	1384	n/a	n/a	-1	1.0	1.0	1	upper	Verdana.ttf
1735759	WORD	wordpools/wasnorm_wordpool.txt	LTP151	ltpFR	4	12	-1	KNOT	788	n/a	n/a	-1	1.0	1.0	1	upper	Verdana.ttf
1739721	WORD	wordpools/wasnorm_wordpool.txt	LTP151	ltpFR	4	12	-1	AUTOMOBILE	62	n/a	n/a	-1	1.0	1.0	1	upper	Verdana.ttf
1743633	WORD	wordpools/wasnorm_wordpool.txt	LTP151	ltpFR	4	12	-1	PASTRY	1022	n/a	n/a	-1	1.0	1.0	1	upper	Verdana.ttf
1747828	WORD	wordpools/wasnorm_wordpool.txt	LTP151	ltpFR	4	12	-1	SICKLE	1302	n/a	n/a	-1	1.0	1.0	1	upper	Verdana.ttf
1753814	REC_START	n/a	LTP151	ltpFR	4	12	n/a	n/a	n/a	n/a	n/a	n/a	n/a	n/a	n/a	n/a	n/a
1754981	REC_WORD	wordpools/wasnorm_wordpool.txt	LTP151	ltpFR	4	12	-1	OX	994	n/a	n/a	-1	n/a	n/a	n/a	n/a	n/a
1756438	REC_WORD	wordpools/wasnorm_wordpool.txt	LTP151	ltpFR	4	12	-1	CROCODILE	411	n/a	n/a	-1	n/a	n/a	n/a	n/a	n/a
1757750	REC_WORD	wordpools/wasnorm_wordpool.txt	LTP151	ltpFR	4	12	-1	HOOD	714	n/a	n/a	-1	n/a	n/a	n/a	n/a	n/a
1759161	REC_WORD	wordpools/wasnorm_wordpool.txt	LTP151	ltpFR	4	12	-1	LEG	809	n/a	n/a	-1	n/a	n/a	n/a	n/a	n/a
1760738	REC_WORD	wordpools/wasnorm_wordpool.txt	LTP151	ltpFR	4	12	-1	JOINT	758	n/a	n/a	-1	n/a	n/a	n/a	n/a	n/a
1764480	REC_WORD	wordpools/wasnorm_wordpool.txt	LTP151	ltpFR	4	12	-1	RUST	1219	n/a	n/a	-1	n/a	n/a	n/a	n/a	n/a
1765801	REC_WORD	wordpools/wasnorm_wordpool.txt	LTP151	ltpFR	4	12	-1	HEEL	700	n/a	n/a	-1	n/a	n/a	n/a	n/a	n/a
1767448	REC_WORD	wordpools/wasnorm_wordpool.txt	LTP151	ltpFR	4	12	-1	TIE	1466	n/a	n/a	-1	n/a	n/a	n/a	n/a	n/a
1786315	REC_WORD	wordpools/wasnorm_wordpool.txt	LTP151	ltpFR	4	12	-1	AUTOMOBILE	62	n/a	n/a	-1	n/a	n/a	n/a	n/a	n/a
1799285	REC_WORD	wordpools/wasnorm_wordpool.txt	LTP151	ltpFR	4	12	-1	VALVE	1546	n/a	n/a	-1	n/a	n/a	n/a	n/a	n/a
1800682	REC_WORD	wordpools/wasnorm_wordpool.txt	LTP151	ltpFR	4	12	-1	COUCH	386	n/a	n/a	-1	n/a	n/a	n/a	n/a	n/a
1801854	REC_WORD	wordpools/wasnorm_wordpool.txt	LTP151	ltpFR	4	12	-1	CUE	422	n/a	n/a	-1	n/a	n/a	n/a	n/a	n/a
1803371	REC_WORD	wordpools/wasnorm_wordpool.txt	LTP151	ltpFR	4	12	-1	STOMACH	1384	n/a	n/a	-1	n/a	n/a	n/a	n/a	n/a
1804708	REC_WORD	wordpools/wasnorm_wordpool.txt	LTP151	ltpFR	4	12	-1	KNOT	788	n/a	n/a	-1	n/a	n/a	n/a	n/a	n/a
1829400	REST_REWET	n/a	LTP151	ltpFR	4	12	n/a	n/a	n/a	n/a	n/a	n/a	n/a	n/a	n/a	n/a	n/a
2240865	WORD	wordpools/wasnorm_wordpool.txt	LTP151	ltpFR	4	13	1	SWAMP	1416	n/a	n/a	0	0.57763671875	0.412841796875	1	upper	amplitud.ttf
2244736	WORD	wordpools/wasnorm_wordpool.txt	LTP151	ltpFR	4	13	1	BASEMENT	94	n/a	n/a	0	0.57763671875	0.412841796875	1	upper	amplitud.ttf
2248706	WORD	wordpools/wasnorm_wordpool.txt	LTP151	ltpFR	4	13	1	WALL	1582	n/a	n/a	0	0.57763671875	0.412841796875	1	upper	amplitud.ttf
2252793	WORD	wordpools/wasnorm_wordpool.txt	LTP151	ltpFR	4	13	1	RADIATOR	1156	n/a	n/a	0	0.57763671875	0.412841796875	1	upper	amplitud.ttf
2256772	WORD	wordpools/wasnorm_wordpool.txt	LTP151	ltpFR	4	13	1	WHEEL	1603	n/a	n/a	0	0.57763671875	0.412841796875	1	upper	amplitud.ttf
2260625	WORD	wordpools/wasnorm_wordpool.txt	LTP151	ltpFR	4	13	1	MARKET	871	n/a	n/a	0	0.57763671875	0.412841796875	1	upper	amplitud.ttf
2264679	WORD	wordpools/wasnorm_wordpool.txt	LTP151	ltpFR	4	13	1	TYPIST	1532	n/a	n/a	1	0.57763671875	0.412841796875	1	upper	amplitud.ttf
2268608	WORD	wordpools/wasnorm_wordpool.txt	LTP151	ltpFR	4	13	1	SUPERVISOR	1410	n/a	n/a	1	0.57763671875	0.412841796875	1	upper	amplitud.ttf
2272778	WORD	wordpools/wasnorm_wordpool.txt	LTP151	ltpFR	4	13	1	PENNY	1045	n/a	n/a	0	0.57763671875	0.412841796875	1	upper	amplitud.ttf
2276615	WORD	wordpools/wasnorm_wordpool.txt	LTP151	ltpFR	4	13	1	ANIMAL	23	n/a	n/a	1	0.57763671875	0.412841796875	1	upper	amplitud.ttf
2280502	WORD	wordpools/wasnorm_wordpool.txt	LTP151	ltpFR	4	13	1	BUCKET	184	n/a	n/a	0	0.57763671875	0.412841796875	1	upper	amplitud.ttf
2284314	WORD	wordpools/wasnorm_wordpool.txt	LTP151	ltpFR	4	13	1	CENT	270	n/a	n/a	0	0.57763671875	0.412841796875	1	upper	amplitud.ttf
2288277	WORD	wordpools/wasnorm_wordpool.txt	LTP151	ltpFR	4	13	1	BOXER	160	n/a	n/a	1	0.57763671875	0.412841796875	1	upper	amplitud.ttf
2292338	WORD	wordpools/wasnorm_wordpool.txt	LTP151	ltpFR	4	13	1	GROCERY	664	n/a	n/a	0	0.57763671875	0.412841796875	1	upper	amplitud.ttf
2296409	WORD	wordpools/wasnorm_wordpool.txt	LTP151	ltpFR	4	13	1	DOUGH	489	n/a	n/a	0	0.57763671875	0.412841796875	1	upper	amplitud.ttf
2300280	WORD	wordpools/wasnorm_wordpool.txt	LTP151	ltpFR	4	13	1	AUNT	60	n/a	n/a	1	0.57763671875	0.412841796875	1	upper	amplitud.ttf
2305932	REC_START	n/a	LTP151	ltpFR	4	13	n/a	n/a	n/a	n/a	n/a	n/a	n/a	n/a	n/a	n/a	n/a
2306854	REC_WORD	wordpools/wasnorm_wordpool.txt	LTP151	ltpFR	4	13	1	SWAMP	1416	n/a	n/a	0	n/a	n/a	n/a	n/a	n/a
2308306	REC_WORD	wordpools/wasnorm_wordpool.txt	LTP151	ltpFR	4	13	1	BASEMENT	94	n/a	n/a	0	n/a	n/a	n/a	n/a	n/a
2309524	REC_WORD	wordpools/wasnorm_wordpool.txt	LTP151	ltpFR	4	13	1	WALL	1582	n/a	n/a	0	n/a	n/a	n/a	n/a	n/a
2312427	REC_WORD	wordpools/wasnorm_wordpool.txt	LTP151	ltpFR	4	13	1	MARKET	871	n/a	n/a	0	n/a	n/a	n/a	n/a	n/a
2313799	REC_WORD	wordpools/wasnorm_wordpool.txt	LTP151	ltpFR	4	13	1	PENNY	1045	n/a	n/a	0	n/a	n/a	n/a	n/a	n/a
2316619	REC_WORD	wordpools/wasnorm_wordpool.txt	LTP151	ltpFR	4	13	1	CENT	270	n/a	n/a	0	n/a	n/a	n/a	n/a	n/a
2319049	REC_WORD	wordpools/wasnorm_wordpool.txt	LTP151	ltpFR	4	13	1	DOUGH	489	n/a	n/a	0	n/a	n/a	n/a	n/a	n/a
2319830	REC_WORD	wordpools/wasnorm_wordpool.txt	LTP151	ltpFR	4	13	1	AUNT	60	n/a	n/a	1	n/a	n/a	n/a	n/a	n/a
2321277	REC_WORD	wordpools/wasnorm_wordpool.txt	LTP151	ltpFR	4	13	1	GROCERY	664	n/a	n/a	0	n/a	n/a	n/a	n/a	n/a
2324600	REC_WORD	wordpools/wasnorm_wordpool.txt	LTP151	ltpFR	4	13	1	TYPIST	1532	n/a	n/a	1	n/a	n/a	n/a	n/a	n/a
2325686	REC_WORD	wordpools/wasnorm_wordpool.txt	LTP151	ltpFR	4	13	1	SUPERVISOR	1410	n/a	n/a	1	n/a	n/a	n/a	n/a	n/a
2327587	REC_WORD	wordpools/wasnorm_wordpool.txt	LTP151	ltpFR	4	13	1	BOXER	160	n/a	n/a	1	n/a	n/a	n/a	n/a	n/a
2353828	REC_WORD	wordpools/wasnorm_wordpool.txt	LTP151	ltpFR	4	13	1	ANIMAL	23	n/a	n/a	1	n/a	n/a	n/a	n/a	n/a
2385248	WORD	wordpools/wasnorm_wordpool.txt	LTP151	ltpFR	4	14	-1	TRUMPET	1513	n/a	n/a	-1	1.0	1.0	1	upper	Verdana.ttf
2389210	WORD	wordpools/wasnorm_wordpool.txt	LTP151	ltpFR	4	14	-1	CORD	379	n/a	n/a	-1	1.0	1.0	1	upper	Verdana.ttf
2393413	WORD	wordpools/wasnorm_wordpool.txt	LTP151	ltpFR	4	14	-1	TANK	1432	n/a	n/a	-1	1.0	1.0	1	upper	Verdana.ttf
2397316	WORD	wordpools/wasnorm_wordpool.txt	LTP151	ltpFR	4	14	-1	KNEE	784	n/a	n/a	-1	1.0	1.0	1	upper	Verdana.ttf
2401171	WORD	wordpools/wasnorm_wordpool.txt	LTP151	ltpFR	4	14	-1	SHOULDER	1294	n/a	n/a	-1	1.0	1.0	1	upper	Verdana.ttf
2405258	WORD	wordpools/wasnorm_wordpool.txt	LTP151	ltpFR	4	14	-1	PREACHER	1119	n/a	n/a	-1	1.0	1.0	1	upper	Verdana.ttf
2409245	WORD	wordpools/wasnorm_wordpool.txt	LTP151	ltpFR	4	14	-1	UNDERWEAR	1537	n/a	n/a	-1	1.0	1.0	1	upper	Verdana.ttf
2413407	WORD	wordpools/wasnorm_wordpool.txt	LTP151	ltpFR	4	14	-1	BLUEBERRY	140	n/a	n/a	-1	1.0	1.0	1	upper	Verdana.ttf
2417485	WORD	wordpools/wasnorm_wordpool.txt	LTP151	ltpFR	4	14	-1	LIEUTENANT	818	n/a	n/a	-1	1.0	1.0	1	upper	Verdana.ttf
2421589	WORD	wordpools/wasnorm_wordpool.txt	LTP151	ltpFR	4	14	-1	STUDENT	1395	n/a	n/a	-1	1.0	1.0	1	upper	Verdana.ttf
2425668	WORD	wordpools/wasnorm_wordpool.txt	LTP151	ltpFR	4	14	-1	CHAPEL	280	n/a	n/a	-1	1.0	1.0	1	upper	Verdana.ttf
2429738	WORD	wordpools/wasnorm_wordpool.txt	LTP151	ltpFR	4	14	-1	BUN	197	n/a	n/a	-1	1.0	1.0	1	upper	Verdana.ttf
2433891	WORD	wordpools/wasnorm_wordpool.txt	LTP151	ltpFR	4	14	-1	CONSOLE	364	n/a	n/a	-1	1.0	1.0	1	upper	Verdana.ttf
2437737	WORD	wordpools/wasnorm_wordpool.txt	LTP151	ltpFR	4	14	-1	WIRE	1616	n/a	n/a	-1	1.0	1.0	1	upper	Verdana.ttf
2441632	WORD	wordpools/wasnorm_wordpool.txt	LTP151	ltpFR	4	14	-1	CANVAS	234	n/a	n/a	-1	1.0	1.0	1	upper	Verdana.ttf
2445461	WORD	wordpools/wasnorm_wordpool.txt	LTP151	ltpFR	4	14	-1	PAINT	1003	n/a	n/a	-1	1.0	1.0	1	upper	Verdana.ttf
2451139	REC_START	n/a	LTP151	ltpFR	4	14	n/a	n/a	n/a	n/a	n/a	n/a	n/a	n/a	n/a	n/a	n/a
2452516	REC_WORD	wordpools/wasnorm_wordpool.txt	LTP151	ltpFR	4	14	-1	TRUMPET	1513	n/a	n/a	-1	n/a	n/a	n/a	n/a	n/a
2453773	REC_WORD	wordpools/wasnorm_wordpool.txt	LTP151	ltpFR	4	14	-1	CORD	379	n/a	n/a	-1	n/a	n/a	n/a	n/a	n/a
2454935	REC_WORD	wordpools/wasnorm_wordpool.txt	LTP151	ltpFR	4	14	-1	TANK	1432	n/a	n/a	-1	n/a	n/a	n/a	n/a	n/a
2456172	REC_WORD	wordpools/wasnorm_wordpool.txt	LTP151	ltpFR	4	14	-1	KNEE	784	n/a	n/a	-1	n/a	n/a	n/a	n/a	n/a
2465246	REC_WORD	wordpools/wasnorm_wordpool.txt	LTP151	ltpFR	4	14	-1	LIEUTENANT	818	n/a	n/a	-1	n/a	n/a	n/a	n/a	n/a
2466543	REC_WORD	wordpools/wasnorm_wordpool.txt	LTP151	ltpFR	4	14	-1	STUDENT	1395	n/a	n/a	-1	n/a	n/a	n/a	n/a	n/a
2469023	REC_WORD	wordpools/wasnorm_wordpool.txt	LTP151	ltpFR	4	14	-1	CHAPEL	280	n/a	n/a	-1	n/a	n/a	n/a	n/a	n/a
2471787	REC_WORD	wordpools/wasnorm_wordpool.txt	LTP151	ltpFR	4	14	-1	BUN	197	n/a	n/a	-1	n/a	n/a	n/a	n/a	n/a
2474929	REC_WORD	wordpools/wasnorm_wordpool.txt	LTP151	ltpFR	4	14	-1	PREACHER	1119	n/a	n/a	-1	n/a	n/a	n/a	n/a	n/a
2476910	REC_WORD	wordpools/wasnorm_wordpool.txt	LTP151	ltpFR	4	14	-1	UNDERWEAR	1537	n/a	n/a	-1	n/a	n/a	n/a	n/a	n/a
2483006	REC_WORD	wordpools/wasnorm_wordpool.txt	LTP151	ltpFR	4	14	-1	CONSOLE	364	n/a	n/a	-1	n/a	n/a	n/a	n/a	n/a
2484668	REC_WORD	wordpools/wasnorm_wordpool.txt	LTP151	ltpFR	4	14	-1	WIRE	1616	n/a	n/a	-1	n/a	n/a	n/a	n/a	n/a
2485730	REC_WORD	wordpools/wasnorm_wordpool.txt	LTP151	ltpFR	4	14	-1	CANVAS	234	n/a	n/a	-1	n/a	n/a	n/a	n/a	n/a
2487327	REC_WORD	wordpools/wasnorm_wordpool.txt	LTP151	ltpFR	4	14	-1	PAINT	1003	n/a	n/a	-1	n/a	n/a	n/a	n/a	n/a
2530446	WORD	wordpools/wasnorm_wordpool.txt	LTP151	ltpFR	4	15	0	PRIEST	1122	n/a	n/a	1	0.422607421875	0.5869140625	0	lower	zerothre.ttf
2534307	WORD	wordpools/wasnorm_wordpool.txt	LTP151	ltpFR	4	15	0	SHIP	1286	n/a	n/a	1	0.422607421875	0.5869140625	0	lower	zerothre.ttf
2538287	WORD	wordpools/wasnorm_wordpool.txt	LTP151	ltpFR	4	15	0	RICE	1190	n/a	n/a	0	0.422607421875	0.5869140625	0	lower	zerothre.ttf
2542116	WORD	wordpools/wasnorm_wordpool.txt	LTP151	ltpFR	4	15	0	DETERGENT	455	n/a	n/a	0	0.422607421875	0.5869140625	0	lower	zerothre.ttf
2546253	WORD	wordpools/wasnorm_wordpool.txt	LTP151	ltpFR	4	15	0	BATH	98	n/a	n/a	1	0.422607421875	0.5869140625	0	lower	zerothre.ttf
2550265	WORD	wordpools/wasnorm_wordpool.txt	LTP151	ltpFR	4	15	0	RASPBERRY	1168	n/a	n/a	0	0.422607421875	0.5869140625	0	lower	zerothre.ttf
2554194	WORD	wordpools/wasnorm_wordpool.txt	LTP151	ltpFR	4	15	0	FOREHEAD	592	n/a	n/a	0	0.422607421875	0.5869140625	0	lower	zerothre.ttf
2558014	WORD	wordpools/wasnorm_wordpool.txt	LTP151	ltpFR	4	15	0	IRON	744	n/a	n/a	0	0.422607421875	0.5869140625	0	lower	zerothre.ttf
2562059	WORD	wordpools/wasnorm_wordpool.txt	LTP151	ltpFR	4	15	0	PEACH	1031	n/a	n/a	0	0.422607421875	0.5869140625	0	lower	zerothre.ttf
2566271	WORD	wordpools/wasnorm_wordpool.txt	LTP151	ltpFR	4	15	0	MASK	876	n/a	n/a	1	0.422607421875	0.5869140625	0	lower	zerothre.ttf
2570307	WORD	wordpools/wasnorm_wordpool.txt	LTP151	ltpFR	4	15	0	DRAGON	492	n/a	n/a	1	0.422607421875	0.5869140625	0	lower	zerothre.ttf
2574311	WORD	wordpools/wasnorm_wordpool.txt	LTP151	ltpFR	4	15	0	RECIPE	1175	n/a	n/a	0	0.422607421875	0.5869140625	0	lower	zerothre.ttf
2578224	WORD	wordpools/wasnorm_wordpool.txt	LTP151	ltpFR	4	15	0	LIVER	833	n/a	n/a	0	0.422607421875	0.5869140625	0	lower	zerothre.ttf
2582053	WORD	wordpools/wasnorm_wordpool.txt	LTP151	ltpFR	4	15	0	COW	393	n/a	n/a	1	0.422607421875	0.5869140625	0	lower	zerothre.ttf
2586256	WORD	wordpools/wasnorm_wordpool.txt	LTP151	ltpFR	4	15	0	CARTON	251	n/a	n/a	0	0.422607421875	0.5869140625	0	lower	zerothre.ttf
2590326	WORD	wordpools/wasnorm_wordpool.txt	LTP151	ltpFR	4	15	0	CARROT	249	n/a	n/a	0	0.422607421875	0.5869140625	0	lower	zerothre.ttf
2595979	REC_START	n/a	LTP151	ltpFR	4	15	n/a	n/a	n/a	n/a	n/a	n/a	n/a	n/a	n/a	n/a	n/a
2596931	REC_WORD	wordpools/wasnorm_wordpool.txt	LTP151	ltpFR	4	15	0	PRIEST	1122	n/a	n/a	1	n/a	n/a	n/a	n/a	n/a
2598219	REC_WORD	wordpools/wasnorm_wordpool.txt	LTP151	ltpFR	4	15	0	SHIP	1286	n/a	n/a	1	n/a	n/a	n/a	n/a	n/a
2599755	REC_WORD	wordpools/wasnorm_wordpool.txt	LTP151	ltpFR	4	15	0	RICE	1190	n/a	n/a	0	n/a	n/a	n/a	n/a	n/a
2606979	REC_WORD	wordpools/wasnorm_wordpool.txt	LTP151	ltpFR	4	15	0	CARTON	251	n/a	n/a	0	n/a	n/a	n/a	n/a	n/a
2608755	REC_WORD	wordpools/wasnorm_wordpool.txt	LTP151	ltpFR	4	15	0	COW	393	n/a	n/a	1	n/a	n/a	n/a	n/a	n/a
2610236	REC_WORD	wordpools/wasnorm_wordpool.txt	LTP151	ltpFR	4	15	0	PEACH	1031	n/a	n/a	0	n/a	n/a	n/a	n/a	n/a
2611548	REC_WORD	wordpools/wasnorm_wordpool.txt	LTP151	ltpFR	4	15	0	FOREHEAD	592	n/a	n/a	0	n/a	n/a	n/a	n/a	n/a
2613220	REC_WORD	wordpools/wasnorm_wordpool.txt	LTP151	ltpFR	4	15	0	RASPBERRY	1168	n/a	n/a	0	n/a	n/a	n/a	n/a	n/a
2618483	REC_WORD	wordpools/wasnorm_wordpool.txt	LTP151	ltpFR	4	15	0	BATH	98	n/a	n/a	1	n/a	n/a	n/a	n/a	n/a
2620508	REC_WORD	wordpools/wasnorm_wordpool.txt	LTP151	ltpFR	4	15	0	DETERGENT	455	n/a	n/a	0	n/a	n/a	n/a	n/a	n/a
2633329	REC_WORD	wordpools/wasnorm_wordpool.txt	LTP151	ltpFR	4	15	0	IRON	744	n/a	n/a	0	n/a	n/a	n/a	n/a	n/a
2669611	REC_WORD	wordpools/wasnorm_wordpool.txt	LTP151	ltpFR	4	15	0	CARROT	249	n/a	n/a	0	n/a	n/a	n/a	n/a	n/a
2675162	WORD	wordpools/wasnorm_wordpool.txt	LTP151	ltpFR	4	16	1	STEAM	1375	n/a	n/a	0	0.57763671875	0.412841796875	1	upper	amplitud.ttf
2679124	WORD	wordpools/wasnorm_wordpool.txt	LTP151	ltpFR	4	16	1	INTESTINE	742	n/a	n/a	0	0.57763671875	0.412841796875	1	upper	amplitud.ttf
2683011	WORD	wordpools/wasnorm_wordpool.txt	LTP151	ltpFR	4	16	0	STAIRS	1367	n/a	n/a	1	0.422607421875	0.5869140625	0	lower	zerothre.ttf
2686981	WORD	wordpools/wasnorm_wordpool.txt	LTP151	ltpFR	4	16	0	CREEK	404	n/a	n/a	1	0.422607421875	0.5869140625	0	lower	zerothre.ttf
2691002	WORD	wordpools/wasnorm_wordpool.txt	LTP151	ltpFR	4	16	0	VISITOR	1573	n/a	n/a	1	0.422607421875	0.5869140625	0	lower	zerothre.ttf
2694930	WORD	wordpools/wasnorm_wordpool.txt	LTP151	ltpFR	4	16	0	CROOK	412	n/a	n/a	1	0.422607421875	0.5869140625	0	lower	zerothre.ttf
2698793	WORD	wordpools/wasnorm_wordpool.txt	LTP151	ltpFR	4	16	0	SLIDE	1326	n/a	n/a	1	0.422607421875	0.5869140625	0	lower	zerothre.ttf
2702730	WORD	wordpools/wasnorm_wordpool.txt	LTP151	ltpFR	4	16	0	PISTON	1076	n/a	n/a	1	0.422607421875	0.5869140625	0	lower	zerothre.ttf
2706767	WORD	wordpools/wasnorm_wordpool.txt	LTP151	ltpFR	4	16	1	TICKET	1464	n/a	n/a	0	0.57763671875	0.412841796875	1	upper	amplitud.ttf
2710829	WORD	wordpools/wasnorm_wordpool.txt	LTP151	ltpFR	4	16	1	ERASER	538	n/a	n/a	0	0.57763671875	0.412841796875	1	upper	amplitud.ttf
2714683	WORD	wordpools/wasnorm_wordpool.txt	LTP151	ltpFR	4	16	1	CHALK	276	n/a	n/a	0	0.57763671875	0.412841796875	1	upper	amplitud.ttf
2718711	WORD	wordpools/wasnorm_wordpool.txt	LTP151	ltpFR	4	16	1	SPONGE	1355	n/a	n/a	0	0.57763671875	0.412841796875	1	upper	amplitud.ttf
2722632	WORD	wordpools/wasnorm_wordpool.txt	LTP151	ltpFR	4	16	1	SPY	1360	n/a	n/a	1	0.57763671875	0.412841796875	1	upper	amplitud.ttf
2726585	WORD	wordpools/wasnorm_wordpool.txt	LTP151	ltpFR	4	16	1	CRIMINAL	409	n/a	n/a	1	0.57763671875	0.412841796875	1	upper	amplitud.ttf
2730506	WORD	wordpools/wasnorm_wordpool.txt	LTP151	ltpFR	4	16	0	RADISH	1158	n/a	n/a	0	0.422607421875	0.5869140625	0	lower	zerothre.ttf
2734643	WORD	wordpools/wasnorm_wordpool.txt	LTP151	ltpFR	4	16	0	TURNIP	1521	n/a	n/a	0	0.422607421875	0.5869140625	0	lower	zerothre.ttf
2740495	REC_START	n/a	LTP151	ltpFR	4	16	n/a	n/a	n/a	n/a	n/a	n/a	n/a	n/a	n/a	n/a	n/a
2742944	REC_WORD	wordpools/wasnorm_wordpool.txt	LTP151	ltpFR	4	16	1	STEAM	1375	n/a	n/a	0	n/a	n/a	n/a	n/a	n/a
2744271	REC_WORD	wordpools/wasnorm_wordpool.txt	LTP151	ltpFR	4	16	1	INTESTINE	742	n/a	n/a	0	n/a	n/a	n/a	n/a	n/a
2745827	REC_WORD	wordpools/wasnorm_wordpool.txt	LTP151	ltpFR	4	16	0	STAIRS	1367	n/a	n/a	1	n/a	n/a	n/a	n/a	n/a
2751235	REC_WORD	wordpools/wasnorm_wordpool.txt	LTP151	ltpFR	4	16	0	CREEK	404	n/a	n/a	1	n/a	n/a	n/a	n/a	n/a
2752827	REC_WORD	wordpools/wasnorm_wordpool.txt	LTP151	ltpFR	4	16	0	CROOK	412	n/a	n/a	1	n/a	n/a	n/a	n/a	n/a
2756259	REC_WORD	wordpools/wasnorm_wordpool.txt	LTP151	ltpFR	4	16	0	TURNIP	1521	n/a	n/a	0	n/a	n/a	n/a	n/a	n/a
2757137	REC_WORD	wordpools/wasnorm_wordpool.txt	LTP151	ltpFR	4	16	0	RADISH	1158	n/a	n/a	0	n/a	n/a	n/a	n/a	n/a
2761098	REC_WORD	wordpools/wasnorm_wordpool.txt	LTP151	ltpFR	4	16	1	CRIMINAL	409	n/a	n/a	1	n/a	n/a	n/a	n/a	n/a
2781841	REC_WORD	wordpools/wasnorm_wordpool.txt	LTP151	ltpFR	4	16	0	PISTON	1076	n/a	n/a	1	n/a	n/a	n/a	n/a	n/a
2786011	REC_WORD	wordpools/wasnorm_wordpool.txt	LTP151	ltpFR	4	16	1	ERASER	538	n/a	n/a	0	n/a	n/a	n/a	n/a	n/a
2787293	REC_WORD	wordpools/wasnorm_wordpool.txt	LTP151	ltpFR	4	16	1	CHALK	276	n/a	n/a	0	n/a	n/a	n/a	n/a	n/a
2788229	REC_WORD	wordpools/wasnorm_wordpool.txt	LTP151	ltpFR	4	16	1	SPONGE	1355	n/a	n/a	0	n/a	n/a	n/a	n/a	n/a
2839921	REC_START	n/a	LTP151	ltpFR	4	n/a	n/a	n/a	n/a	n/a	n/a	n/a	n/a	n/a	n/a	n/a	n/a
2841741	FFR_REC_WORD	wordpools/wasnorm_wordpool.txt	LTP151	ltpFR	4	n/a	0	PERISCOPE	1050	n/a	n/a	1	n/a	n/a	n/a	n/a	n/a
2842929	FFR_REC_WORD	wordpools/wasnorm_wordpool.txt	LTP151	ltpFR	4	n/a	0	SHIP	1286	n/a	n/a	1	n/a	n/a	n/a	n/a	n/a
2844386	FFR_REC_WORD	wordpools/wasnorm_wordpool.txt	LTP151	ltpFR	4	n/a	0	RICE	1190	n/a	n/a	0	n/a	n/a	n/a	n/a	n/a
2846500	FFR_REC_WORD	wordpools/wasnorm_wordpool.txt	LTP151	ltpFR	4	n/a	0	STAIRS	1367	n/a	n/a	1	n/a	n/a	n/a	n/a	n/a
2847952	FFR_REC_WORD	wordpools/wasnorm_wordpool.txt	LTP151	ltpFR	4	n/a	1	INTESTINE	742	n/a	n/a	0	n/a	n/a	n/a	n/a	n/a
2849714	FFR_REC_WORD	wordpools/wasnorm_wordpool.txt	LTP151	ltpFR	4	n/a	0	CREEK	404	n/a	n/a	1	n/a	n/a	n/a	n/a	n/a
2850586	FFR_REC_WORD	wordpools/wasnorm_wordpool.txt	LTP151	ltpFR	4	n/a	0	CROOK	412	n/a	n/a	1	n/a	n/a	n/a	n/a	n/a
2851395	FFR_REC_WORD	wordpools/wasnorm_wordpool.txt	LTP151	ltpFR	4	n/a	1	CRIMINAL	409	n/a	n/a	1	n/a	n/a	n/a	n/a	n/a
2852592	FFR_REC_WORD	wordpools/wasnorm_wordpool.txt	LTP151	ltpFR	4	n/a	0	SHERIFF	1284	n/a	n/a	1	n/a	n/a	n/a	n/a	n/a
2853574	FFR_REC_WORD	wordpools/wasnorm_wordpool.txt	LTP151	ltpFR	4	n/a	0	AGENT	10	n/a	n/a	1	n/a	n/a	n/a	n/a	n/a
2854727	FFR_REC_WORD	wordpools/wasnorm_wordpool.txt	LTP151	ltpFR	4	n/a	1	DETECTIVE	454	n/a	n/a	1	n/a	n/a	n/a	n/a	n/a
2855959	FFR_REC_WORD	wordpools/wasnorm_wordpool.txt	LTP151	ltpFR	4	n/a	1	JUVENILE	767	n/a	n/a	1	n/a	n/a	n/a	n/a	n/a
2856897	FFR_REC_WORD	wordpools/wasnorm_wordpool.txt	LTP151	ltpFR	4	n/a	1	TEENAGER	1444	n/a	n/a	1	n/a	n/a	n/a	n/a	n/a
2858758	FFR_REC_WORD	wordpools/wasnorm_wordpool.txt	LTP151	ltpFR	4	n/a	0	PEACH	1031	n/a	n/a	0	n/a	n/a	n/a	n/a	n/a
2859526	FFR_REC_WORD	wordpools/wasnorm_wordpool.txt	LTP151	ltpFR	4	n/a	0	RASPBERRY	1168	n/a	n/a	0	n/a	n/a	n/a	n/a	n/a
2860438	FFR_REC_WORD	wordpools/wasnorm_wordpool.txt	LTP151	ltpFR	4	n/a	0	FOREHEAD	592	n/a	n/a	0	n/a	n/a	n/a	n/a	n/a
2862435	FFR_REC_WORD	wordpools/wasnorm_wordpool.txt	LTP151	ltpFR	4	n/a	1	INTESTINE	742	n/a	n/a	0	n/a	n/a	n/a	n/a	n/a
2863435	FFR_REC_WORD_VV	wordpools/wasnorm_wordpool.txt	LTP151	ltpFR	4	n/a	n/a	<>	-1	n/a	n/a	n/a	n/a	n/a	n/a	n/a	n/a
2867019	FFR_REC_WORD	wordpools/wasnorm_wordpool.txt	LTP151	ltpFR	4	n/a	-1	OX	994	n/a	n/a	-1	n/a	n/a	n/a	n/a	n/a
2868236	FFR_REC_WORD	wordpools/wasnorm_wordpool.txt	LTP151	ltpFR	4	n/a	-1	CROCODILE	411	n/a	n/a	-1	n/a	n/a	n/a	n/a	n/a
2869887	FFR_REC_WORD	wordpools/wasnorm_wordpool.txt	LTP151	ltpFR	4	n/a	-1	HOOD	714	n/a	n/a	-1	n/a	n/a	n/a	n/a	n/a
2870606	FFR_REC_WORD	wordpools/wasnorm_wordpool.txt	LTP151	ltpFR	4	n/a	-1	LEG	809	n/a	n/a	-1	n/a	n/a	n/a	n/a	n/a
2871354	FFR_REC_WORD	wordpools/wasnorm_wordpool.txt	LTP151	ltpFR	4	n/a	0	PAIL	1002	n/a	n/a	1	n/a	n/a	n/a	n/a	n/a
2873260	FFR_REC_WORD	wordpools/wasnorm_wordpool.txt	LTP151	ltpFR	4	n/a	0	ARM	38	n/a	n/a	1	n/a	n/a	n/a	n/a	n/a
2874786	FFR_REC_WORD	wordpools/wasnorm_wordpool.txt	LTP151	ltpFR	4	n/a	-1	JOINT	758	n/a	n/a	-1	n/a	n/a	n/a	n/a	n/a
2876288	FFR_REC_WORD	wordpools/wasnorm_wordpool.txt	LTP151	ltpFR	4	n/a	-1	RUST	1219	n/a	n/a	-1	n/a	n/a	n/a	n/a	n/a
2877944	FFR_REC_WORD	wordpools/wasnorm_wordpool.txt	LTP151	ltpFR	4	n/a	1	STEAM	1375	n/a	n/a	0	n/a	n/a	n/a	n/a	n/a
2878947	FFR_REC_WORD	wordpools/wasnorm_wordpool.txt	LTP151	ltpFR	4	n/a	-1	VALVE	1546	n/a	n/a	-1	n/a	n/a	n/a	n/a	n/a
2879710	FFR_REC_WORD	wordpools/wasnorm_wordpool.txt	LTP151	ltpFR	4	n/a	-1	COUCH	386	n/a	n/a	-1	n/a	n/a	n/a	n/a	n/a
2880533	FFR_REC_WORD	wordpools/wasnorm_wordpool.txt	LTP151	ltpFR	4	n/a	-1	CUE	422	n/a	n/a	-1	n/a	n/a	n/a	n/a	n/a
2881840	FFR_REC_WORD	wordpools/wasnorm_wordpool.txt	LTP151	ltpFR	4	n/a	-1	STOMACH	1384	n/a	n/a	-1	n/a	n/a	n/a	n/a	n/a
2884719	FFR_REC_WORD	wordpools/wasnorm_wordpool.txt	LTP151	ltpFR	4	n/a	-1	KNOT	788	n/a	n/a	-1	n/a	n/a	n/a	n/a	n/a
2888140	FFR_REC_WORD	wordpools/wasnorm_wordpool.txt	LTP151	ltpFR	4	n/a	0	PISTON	1076	n/a	n/a	1	n/a	n/a	n/a	n/a	n/a
2890051	FFR_REC_WORD	wordpools/wasnorm_wordpool.txt	LTP151	ltpFR	4	n/a	0	FAUCET	555	n/a	n/a	0	n/a	n/a	n/a	n/a	n/a
2891139	FFR_REC_WORD	wordpools/wasnorm_wordpool.txt	LTP151	ltpFR	4	n/a	0	WASHCLOTH	1591	n/a	n/a	0	n/a	n/a	n/a	n/a	n/a
2892312	FFR_REC_WORD	wordpools/wasnorm_wordpool.txt	LTP151	ltpFR	4	n/a	0	DRYER	503	n/a	n/a	1	n/a	n/a	n/a	n/a	n/a
2893534	FFR_REC_WORD	wordpools/wasnorm_wordpool.txt	LTP151	ltpFR	4	n/a	-1	REFRIGERATOR	1179	n/a	n/a	-1	n/a	n/a	n/a	n/a	n/a
2895075	FFR_REC_WORD	wordpools/wasnorm_wordpool.txt	LTP151	ltpFR	4	n/a	-1	GRAVE	658	n/a	n/a	-1	n/a	n/a	n/a	n/a	n/a
2895948	FFR_REC_WORD	wordpools/wasnorm_wordpool.txt	LTP151	ltpFR	4	n/a	0	TOMB	1477	n/a	n/a	1	n/a	n/a	n/a	n/a	n/a
2896691	FFR_REC_WORD	wordpools/wasnorm_wordpool.txt	LTP151	ltpFR	4	n/a	0	TOMBSTONE	1478	n/a	n/a	1	n/a	n/a	n/a	n/a	n/a
2900727	FFR_REC_WORD	wordpools/wasnorm_wordpool.txt	LTP151	ltpFR	4	n/a	-1	CLARINET	317	n/a	n/a	-1	n/a	n/a	n/a	n/a	n/a
2902702	FFR_REC_WORD	wordpools/wasnorm_wordpool.txt	LTP151	ltpFR	4	n/a	-1	SUPERMARKET	1409	n/a	n/a	-1	n/a	n/a	n/a	n/a	n/a
2903716	FFR_REC_WORD	wordpools/wasnorm_wordpool.txt	LTP151	ltpFR	4	n/a	1	GROCERY	664	n/a	n/a	0	n/a	n/a	n/a	n/a	n/a
2904609	FFR_REC_WORD	wordpools/wasnorm_wordpool.txt	LTP151	ltpFR	4	n/a	-1	HARP	689	n/a	n/a	-1	n/a	n/a	n/a	n/a	n/a
2905911	FFR_REC_WORD	wordpools/wasnorm_wordpool.txt	LTP151	ltpFR	4	n/a	-1	RAKE	1164	n/a	n/a	-1	n/a	n/a	n/a	n/a	n/a
2913319	FFR_REC_WORD	wordpools/wasnorm_wordpool.txt	LTP151	ltpFR	4	n/a	-1	TIE	1466	n/a	n/a	-1	n/a	n/a	n/a	n/a	n/a
2916352	FFR_REC_WORD	wordpools/wasnorm_wordpool.txt	LTP151	ltpFR	4	n/a	1	DEER	444	n/a	n/a	0	n/a	n/a	n/a	n/a	n/a
2917170	FFR_REC_WORD	wordpools/wasnorm_wordpool.txt	LTP151	ltpFR	4	n/a	0	BISON	131	n/a	n/a	1	n/a	n/a	n/a	n/a	n/a
2922258	FFR_REC_WORD	wordpools/wasnorm_wordpool.txt	LTP151	ltpFR	4	n/a	1	SHORTCAKE	1292	n/a	n/a	0	n/a	n/a	n/a	n/a	n/a
2923915	FFR_REC_WORD	wordpools/wasnorm_wordpool.txt	LTP151	ltpFR	4	n/a	1	APPLE	33	n/a	n/a	0	n/a	n/a	n/a	n/a	n/a
2925761	FFR_REC_WORD	wordpools/wasnorm_wordpool.txt	LTP151	ltpFR	4	n/a	1	KITTEN	780	n/a	n/a	1	n/a	n/a	n/a	n/a	n/a
2927272	FFR_REC_WORD	wordpools/wasnorm_wordpool.txt	LTP151	ltpFR	4	n/a	n/a	COYOTE	396	n/a	n/a	n/a	n/a	n/a	n/a	n/a	n/a
2928644	FFR_REC_WORD	wordpools/wasnorm_wordpool.txt	LTP151	ltpFR	4	n/a	1	MITTEN	902	n/a	n/a	0	n/a	n/a	n/a	n/a	n/a
2929677	FFR_REC_WORD	wordpools/wasnorm_wordpool.txt	LTP151	ltpFR	4	n/a	1	WITCH	1617	n/a	n/a	1	n/a	n/a	n/a	n/a	n/a
2930021	FFR_REC_WORD	wordpools/wasnorm_wordpool.txt	LTP151	ltpFR	4	n/a	n/a	[???]	-1	n/a	n/a	n/a	n/a	n/a	n/a	n/a	n/a
2934122	FFR_REC_WORD	wordpools/wasnorm_wordpool.txt	LTP151	ltpFR	4	n/a	1	PARENT	1013	n/a	n/a	1	n/a	n/a	n/a	n/a	n/a
2935009	FFR_REC_WORD	wordpools/wasnorm_wordpool.txt	LTP151	ltpFR	4	n/a	1	FATHER	554	n/a	n/a	1	n/a	n/a	n/a	n/a	n/a
2950240	FFR_REC_WORD	wordpools/wasnorm_wordpool.txt	LTP151	ltpFR	4	n/a	0	ROCKET	1202	n/a	n/a	1	n/a	n/a	n/a	n/a	n/a
2951662	FFR_REC_WORD	wordpools/wasnorm_wordpool.txt	LTP151	ltpFR	4	n/a	0	PARTNER	1017	n/a	n/a	1	n/a	n/a	n/a	n/a	n/a
2954969	FFR_REC_WORD	wordpools/wasnorm_wordpool.txt	LTP151	ltpFR	4	n/a	0	CASTLE	256	n/a	n/a	1	n/a	n/a	n/a	n/a	n/a
2969416	FFR_REC_WORD	wordpools/wasnorm_wordpool.txt	LTP151	ltpFR	4	n/a	1	TYPIST	1532	n/a	n/a	1	n/a	n/a	n/a	n/a	n/a
2970457	FFR_REC_WORD	wordpools/wasnorm_wordpool.txt	LTP151	ltpFR	4	n/a	1	SUPERVISOR	1410	n/a	n/a	1	n/a	n/a	n/a	n/a	n/a
2975178	FFR_REC_WORD	wordpools/wasnorm_wordpool.txt	LTP151	ltpFR	4	n/a	1	WALL	1582	n/a	n/a	0	n/a	n/a	n/a	n/a	n/a
2976351	FFR_REC_WORD	wordpools/wasnorm_wordpool.txt	LTP151	ltpFR	4	n/a	1	BASEMENT	94	n/a	n/a	0	n/a	n/a	n/a	n/a	n/a
2977390	FFR_REC_WORD	wordpools/wasnorm_wordpool.txt	LTP151	ltpFR	4	n/a	1	SWAMP	1416	n/a	n/a	0	n/a	n/a	n/a	n/a	n/a
2985709	FFR_REC_WORD	wordpools/wasnorm_wordpool.txt	LTP151	ltpFR	4	n/a	1	BASEBALL	93	n/a	n/a	0	n/a	n/a	n/a	n/a	n/a
2987664	FFR_REC_WORD	wordpools/wasnorm_wordpool.txt	LTP151	ltpFR	4	n/a	1	NUCLEUS	961	n/a	n/a	0	n/a	n/a	n/a	n/a	n/a
2995364	FFR_REC_WORD	wordpools/wasnorm_wordpool.txt	LTP151	ltpFR	4	n/a	0	ENCYCLOPEDIA	533	n/a	n/a	1	n/a	n/a	n/a	n/a	n/a
2996364	FFR_REC_WORD_VV	wordpools/wasnorm_wordpool.txt	LTP151	ltpFR	4	n/a	n/a	<>	-1	n/a	n/a	n/a	n/a	n/a	n/a	n/a	n/a
2997288	FFR_REC_WORD	wordpools/wasnorm_wordpool.txt	LTP151	ltpFR	4	n/a	0	BOOK	149	n/a	n/a	0	n/a	n/a	n/a	n/a	n/a
2998470	FFR_REC_WORD	wordpools/wasnorm_wordpool.txt	LTP151	ltpFR	4	n/a	0	ONION	977	n/a	n/a	0	n/a	n/a	n/a	n/a	n/a
2999553	FFR_REC_WORD	wordpools/wasnorm_wordpool.txt	LTP151	ltpFR	4	n/a	0	CLAW	319	n/a	n/a	0	n/a	n/a	n/a	n/a	n/a
3000630	FFR_REC_WORD	wordpools/wasnorm_wordpool.txt	LTP151	ltpFR	4	n/a	-1	CRAB	397	n/a	n/a	-1	n/a	n/a	n/a	n/a	n/a
3001932	FFR_REC_WORD	wordpools/wasnorm_wordpool.txt	LTP151	ltpFR	4	n/a	-1	FLIPPER	580	n/a	n/a	-1	n/a	n/a	n/a	n/a	n/a
3015347	FFR_REC_WORD	wordpools/wasnorm_wordpool.txt	LTP151	ltpFR	4	n/a	1	MAPLE	866	n/a	n/a	1	n/a	n/a	n/a	n/a	n/a
3017397	FFR_REC_WORD	wordpools/wasnorm_wordpool.txt	LTP151	ltpFR	4	n/a	1	ORCHID	982	n/a	n/a	1	n/a	n/a	n/a	n/a	n/a
3024077	FFR_REC_WORD	wordpools/wasnorm_wordpool.txt	LTP151	ltpFR	4	n/a	1	FARMER	553	n/a	n/a	1	n/a	n/a	n/a	n/a	n/a
3025853	FFR_REC_WORD	wordpools/wasnorm_wordpool.txt	LTP151	ltpFR	4	n/a	0	BARN	89	n/a	n/a	1	n/a	n/a	n/a	n/a	n/a
3034997	FFR_REC_WORD	wordpools/wasnorm_wordpool.txt	LTP151	ltpFR	4	n/a	1	CHAMBER	277	n/a	n/a	0	n/a	n/a	n/a	n/a	n/a
3036692	FFR_REC_WORD	wordpools/wasnorm_wordpool.txt	LTP151	ltpFR	4	n/a	1	TAPIOCA	1434	n/a	n/a	0	n/a	n/a	n/a	n/a	n/a
3113135	FFR_REC_WORD	wordpools/wasnorm_wordpool.txt	LTP151	ltpFR	4	n/a	0	EARTH	515	n/a	n/a	1	n/a	n/a	n/a	n/a	n/a
3113958	FFR_REC_WORD	wordpools/wasnorm_wordpool.txt	LTP151	ltpFR	4	n/a	0	MARS	873	n/a	n/a	1	n/a	n/a	n/a	n/a	n/a
3115102	FFR_REC_WORD	wordpools/wasnorm_wordpool.txt	LTP151	ltpFR	4	n/a	0	BABY	64	n/a	n/a	1	n/a	n/a	n/a	n/a	n/a
3115789	FFR_REC_WORD	wordpools/wasnorm_wordpool.txt	LTP151	ltpFR	4	n/a	0	DOLL	481	n/a	n/a	0	n/a	n/a	n/a	n/a	n/a
3116771	FFR_REC_WORD	wordpools/wasnorm_wordpool.txt	LTP151	ltpFR	4	n/a	0	TUTU	1524	n/a	n/a	1	n/a	n/a	n/a	n/a	n/a
3117924	FFR_REC_WORD	wordpools/wasnorm_wordpool.txt	LTP151	ltpFR	4	n/a	0	LIMOUSINE	824	n/a	n/a	1	n/a	n/a	n/a	n/a	n/a
3122289	FFR_REC_WORD	wordpools/wasnorm_wordpool.txt	LTP151	ltpFR	4	n/a	0	BARLEY	88	n/a	n/a	0	n/a	n/a	n/a	n/a	n/a
3124641	FFR_REC_WORD	wordpools/wasnorm_wordpool.txt	LTP151	ltpFR	4	n/a	1	WHEAT	1602	n/a	n/a	1	n/a	n/a	n/a	n/a	n/a
3126664	FFR_REC_WORD	wordpools/wasnorm_wordpool.txt	LTP151	ltpFR	4	n/a	1	STRAWBERRY	1391	n/a	n/a	1	n/a	n/a	n/a	n/a	n/a
3131423	FFR_REC_WORD	wordpools/wasnorm_wordpool.txt	LTP151	ltpFR	4	n/a	-1	CAGE	218	n/a	n/a	-1	n/a	n/a	n/a	n/a	n/a
3132211	FFR_REC_WORD	wordpools/wasnorm_wordpool.txt	LTP151	ltpFR	4	n/a	-1	NEST	945	n/a	n/a	-1	n/a	n/a	n/a	n/a	n/a
3135280	FFR_REC_WORD	wordpools/wasnorm_wordpool.txt	LTP151	ltpFR	4	n/a	-1	TOWER	1490	n/a	n/a	-1	n/a	n/a	n/a	n/a	n/a
3135993	FFR_REC_WORD	wordpools/wasnorm_wordpool.txt	LTP151	ltpFR	4	n/a	-1	WAVE	1596	n/a	n/a	-1	n/a	n/a	n/a	n/a	n/a
3136786	FFR_REC_WORD	wordpools/wasnorm_wordpool.txt	LTP151	ltpFR	4	n/a	0	TIDE	1465	n/a	n/a	1	n/a	n/a	n/a	n/a	n/a
3162747	REC_START	n/a	LTP151	ltpFR	4	1	n/a	n/a	n/a	n/a	n/a	n/a	n/a	n/a	n/a	n/a	n/a
3162780	RECOG_LURE	n/a	LTP151	ltpFR	4	1	n/a	RESTAURANT	1187	1	3	n/a	n/a	n/a	n/a	n/a	n/a
3164074	RECOG_RESP	n/a	LTP151	ltpFR	4	1	n/a	RESTAURANT	1187	1	n/a	n/a	n/a	n/a	n/a	n/a	n/a
3165915	RECOG_CONF	n/a	LTP151	ltpFR	4	1	n/a	RESTAURANT	1187	n/a	3	n/a	n/a	n/a	n/a	n/a	n/a
3167807	RECOG_TARGET	n/a	LTP151	ltpFR	4	1	0	ENCYCLOPEDIA	533	1	5	1	n/a	n/a	n/a	n/a	n/a
3168598	RECOG_RESP	n/a	LTP151	ltpFR	4	1	0	ENCYCLOPEDIA	533	1	n/a	1	n/a	n/a	n/a	n/a	n/a
3169886	RECOG_CONF	n/a	LTP151	ltpFR	4	1	0	ENCYCLOPEDIA	533	n/a	5	1	n/a	n/a	n/a	n/a	n/a
3171445	RECOG_TARGET	n/a	LTP151	ltpFR	4	1	1	TAPIOCA	1434	1	5	0	n/a	n/a	n/a	n/a	n/a
3172235	RECOG_RESP	n/a	LTP151	ltpFR	4	1	1	TAPIOCA	1434	1	n/a	0	n/a	n/a	n/a	n/a	n/a
3173388	RECOG_CONF	n/a	LTP151	ltpFR	4	1	1	TAPIOCA	1434	n/a	5	0	n/a	n/a	n/a	n/a	n/a
3175049	RECOG_LURE	n/a	LTP151	ltpFR	4	1	n/a	WINNER	1615	0	3	n/a	n/a	n/a	n/a	n/a	n/a
3175997	RECOG_RESP	n/a	LTP151	ltpFR	4	1	n/a	WINNER	1615	0	n/a	n/a	n/a	n/a	n/a	n/a	n/a
3177219	RECOG_CONF	n/a	LTP151	ltpFR	4	1	n/a	WINNER	1615	n/a	3	n/a	n/a	n/a	n/a	n/a	n/a
3178761	RECOG_TARGET	n/a	LTP151	ltpFR	4	1	-1	JOINT	758	1	5	-1	n/a	n/a	n/a	n/a	n/a
3179532	RECOG_RESP	n/a	LTP151	ltpFR	4	1	-1	JOINT	758	1	n/a	-1	n/a	n/a	n/a	n/a	n/a
3180661	RECOG_CONF	n/a	LTP151	ltpFR	4	1	-1	JOINT	758	n/a	5	-1	n/a	n/a	n/a	n/a	n/a
3182356	RECOG_LURE	n/a	LTP151	ltpFR	4	1	n/a	SALAD	1224	0	4	n/a	n/a	n/a	n/a	n/a	n/a
3183664	RECOG_RESP	n/a	LTP151	ltpFR	4	1	n/a	SALAD	1224	0	n/a	n/a	n/a	n/a	n/a	n/a	n/a
3184936	RECOG_CONF	n/a	LTP151	ltpFR	4	1	n/a	SALAD	1224	n/a	4	n/a	n/a	n/a	n/a	n/a	n/a
3186486	RECOG_LURE	n/a	LTP151	ltpFR	4	1	n/a	ARENA	37	0	4	n/a	n/a	n/a	n/a	n/a	n/a
3187700	RECOG_RESP	n/a	LTP151	ltpFR	4	1	n/a	ARENA	37	0	n/a	n/a	n/a	n/a	n/a	n/a	n/a
3188798	RECOG_CONF	n/a	LTP151	ltpFR	4	1	n/a	ARENA	37	n/a	4	n/a	n/a	n/a	n/a	n/a	n/a
3190406	RECOG_TARGET	n/a	LTP151	ltpFR	4	1	0	WELL	1600	1	5	1	n/a	n/a	n/a	n/a	n/a
3191212	RECOG_RESP	n/a	LTP151	ltpFR	4	1	0	WELL	1600	1	n/a	1	n/a	n/a	n/a	n/a	n/a
3192315	RECOG_CONF	n/a	LTP151	ltpFR	4	1	0	WELL	1600	n/a	5	1	n/a	n/a	n/a	n/a	n/a
3193786	RECOG_TARGET	n/a	LTP151	ltpFR	4	1	-1	WIRE	1616	1	5	-1	n/a	n/a	n/a	n/a	n/a
3194510	RECOG_RESP	n/a	LTP151	ltpFR	4	1	-1	WIRE	1616	1	n/a	-1	n/a	n/a	n/a	n/a	n/a
3195555	RECOG_CONF	n/a	LTP151	ltpFR	4	1	-1	WIRE	1616	n/a	5	-1	n/a	n/a	n/a	n/a	n/a
3197098	RECOG_LURE	n/a	LTP151	ltpFR	4	1	n/a	ALLIGATOR	16	0	4	n/a	n/a	n/a	n/a	n/a	n/a
3198520	RECOG_RESP	n/a	LTP151	ltpFR	4	1	n/a	ALLIGATOR	16	0	n/a	n/a	n/a	n/a	n/a	n/a	n/a
3199523	RECOG_CONF	n/a	LTP151	ltpFR	4	1	n/a	ALLIGATOR	16	n/a	4	n/a	n/a	n/a	n/a	n/a	n/a
3201169	RECOG_TARGET	n/a	LTP151	ltpFR	4	1	0	BARLEY	88	1	5	0	n/a	n/a	n/a	n/a	n/a
3201893	RECOG_RESP	n/a	LTP151	ltpFR	4	1	0	BARLEY	88	1	n/a	0	n/a	n/a	n/a	n/a	n/a
3202901	RECOG_CONF	n/a	LTP151	ltpFR	4	1	0	BARLEY	88	n/a	5	0	n/a	n/a	n/a	n/a	n/a
3204482	RECOG_LURE	n/a	LTP151	ltpFR	4	1	n/a	ESSAY	540	0	4	n/a	n/a	n/a	n/a	n/a	n/a
3205335	RECOG_RESP	n/a	LTP151	ltpFR	4	1	n/a	ESSAY	540	0	n/a	n/a	n/a	n/a	n/a	n/a	n/a
3206403	RECOG_CONF	n/a	LTP151	ltpFR	4	1	n/a	ESSAY	540	n/a	4	n/a	n/a	n/a	n/a	n/a	n/a
3207969	RECOG_TARGET	n/a	LTP151	ltpFR	4	1	-1	TRAITOR	1495	1	5	-1	n/a	n/a	n/a	n/a	n/a
3208787	RECOG_RESP	n/a	LTP151	ltpFR	4	1	-1	TRAITOR	1495	1	n/a	-1	n/a	n/a	n/a	n/a	n/a
3209915	RECOG_CONF	n/a	LTP151	ltpFR	4	1	-1	TRAITOR	1495	n/a	5	-1	n/a	n/a	n/a	n/a	n/a
3211423	RECOG_TARGET	n/a	LTP151	ltpFR	4	1	-1	TIE	1466	1	5	-1	n/a	n/a	n/a	n/a	n/a
3212249	RECOG_RESP	n/a	LTP151	ltpFR	4	1	-1	TIE	1466	1	n/a	-1	n/a	n/a	n/a	n/a	n/a
3213277	RECOG_CONF	n/a	LTP151	ltpFR	4	1	-1	TIE	1466	n/a	5	-1	n/a	n/a	n/a	n/a	n/a
3214778	RECOG_LURE	n/a	LTP151	ltpFR	4	1	n/a	KID	775	1	4	n/a	n/a	n/a	n/a	n/a	n/a
3215791	RECOG_RESP	n/a	LTP151	ltpFR	4	1	n/a	KID	775	1	n/a	n/a	n/a	n/a	n/a	n/a	n/a
3216899	RECOG_CONF	n/a	LTP151	ltpFR	4	1	n/a	KID	775	n/a	4	n/a	n/a	n/a	n/a	n/a	n/a
3218449	RECOG_LURE	n/a	LTP151	ltpFR	4	1	n/a	CURTAIN	427	0	4	n/a	n/a	n/a	n/a	n/a	n/a
3219363	RECOG_RESP	n/a	LTP151	ltpFR	4	1	n/a	CURTAIN	427	0	n/a	n/a	n/a	n/a	n/a	n/a	n/a
3220491	RECOG_CONF	n/a	LTP151	ltpFR	4	1	n/a	CURTAIN	427	n/a	4	n/a	n/a	n/a	n/a	n/a	n/a
3222020	RECOG_TARGET	n/a	LTP151	ltpFR	4	1	1	PATROL	1027	1	5	1	n/a	n/a	n/a	n/a	n/a
3222890	RECOG_RESP	n/a	LTP151	ltpFR	4	1	1	PATROL	1027	1	n/a	1	n/a	n/a	n/a	n/a	n/a
3223836	RECOG_CONF	n/a	LTP151	ltpFR	4	1	1	PATROL	1027	n/a	5	1	n/a	n/a	n/a	n/a	n/a
3225507	RECOG_TARGET	n/a	LTP151	ltpFR	4	1	1	KEG	770	1	5	0	n/a	n/a	n/a	n/a	n/a
3226292	RECOG_RESP	n/a	LTP151	ltpFR	4	1	1	KEG	770	1	n/a	0	n/a	n/a	n/a	n/a	n/a
3227315	RECOG_CONF	n/a	LTP151	ltpFR	4	1	1	KEG	770	n/a	5	0	n/a	n/a	n/a	n/a	n/a
3228853	RECOG_TARGET	n/a	LTP151	ltpFR	4	1	1	SUITCASE	1403	1	5	0	n/a	n/a	n/a	n/a	n/a
3229670	RECOG_RESP	n/a	LTP151	ltpFR	4	1	1	SUITCASE	1403	1	n/a	0	n/a	n/a	n/a	n/a	n/a
3230628	RECOG_CONF	n/a	LTP151	ltpFR	4	1	1	SUITCASE	1403	n/a	5	0	n/a	n/a	n/a	n/a	n/a
3232323	RECOG_LURE	n/a	LTP151	ltpFR	4	1	n/a	EMPLOYER	532	0	4	n/a	n/a	n/a	n/a	n/a	n/a
3233351	RECOG_RESP	n/a	LTP151	ltpFR	4	1	n/a	EMPLOYER	532	0	n/a	n/a	n/a	n/a	n/a	n/a	n/a
3234462	RECOG_CONF	n/a	LTP151	ltpFR	4	1	n/a	EMPLOYER	532	n/a	4	n/a	n/a	n/a	n/a	n/a	n/a
3239327	REC_START	n/a	LTP151	ltpFR	4	2	n/a	n/a	n/a	n/a	n/a	n/a	n/a	n/a	n/a	n/a	n/a
3239357	RECOG_TARGET	n/a	LTP151	ltpFR	4	2	0	ROCKET	1202	1	5	1	n/a	n/a	n/a	n/a	n/a
3240302	RECOG_RESP	n/a	LTP151	ltpFR	4	2	0	ROCKET	1202	1	n/a	1	n/a	n/a	n/a	n/a	n/a
3241467	RECOG_CONF	n/a	LTP151	ltpFR	4	2	0	ROCKET	1202	n/a	5	1	n/a	n/a	n/a	n/a	n/a
3242970	RECOG_TARGET	n/a	LTP151	ltpFR	4	2	1	DETECTIVE	454	1	5	1	n/a	n/a	n/a	n/a	n/a
3243815	RECOG_RESP	n/a	LTP151	ltpFR	4	2	1	DETECTIVE	454	1	n/a	1	n/a	n/a	n/a	n/a	n/a
3244889	RECOG_CONF	n/a	LTP151	ltpFR	4	2	1	DETECTIVE	454	n/a	5	1	n/a	n/a	n/a	n/a	n/a
3246475	RECOG_LURE	n/a	LTP151	ltpFR	4	2	n/a	BEAD	103	0	4	n/a	n/a	n/a	n/a	n/a	n/a
3247319	RECOG_RESP	n/a	LTP151	ltpFR	4	2	n/a	BEAD	103	0	n/a	n/a	n/a	n/a	n/a	n/a	n/a
3248421	RECOG_CONF	n/a	LTP151	ltpFR	4	2	n/a	BEAD	103	n/a	4	n/a	n/a	n/a	n/a	n/a	n/a
3249929	RECOG_TARGET	n/a	LTP151	ltpFR	4	2	1	CRIMINAL	409	1	5	1	n/a	n/a	n/a	n/a	n/a
3250876	RECOG_RESP	n/a	LTP151	ltpFR	4	2	1	CRIMINAL	409	1	n/a	1	n/a	n/a	n/a	n/a	n/a
3251933	RECOG_CONF	n/a	LTP151	ltpFR	4	2	1	CRIMINAL	409	n/a	5	1	n/a	n/a	n/a	n/a	n/a
3253683	RECOG_LURE	n/a	LTP151	ltpFR	4	2	n/a	NEWSSTAND	949	0	5	n/a	n/a	n/a	n/a	n/a	n/a
3254727	RECOG_RESP	n/a	LTP151	ltpFR	4	2	n/a	NEWSSTAND	949	0	n/a	n/a	n/a	n/a	n/a	n/a	n/a
3255816	RECOG_CONF	n/a	LTP151	ltpFR	4	2	n/a	NEWSSTAND	949	n/a	5	n/a	n/a	n/a	n/a	n/a	n/a
3257379	RECOG_LURE	n/a	LTP151	ltpFR	4	2	n/a	CONCERT	360	0	3	n/a	n/a	n/a	n/a	n/a	n/a
3259542	RECOG_RESP	n/a	LTP151	ltpFR	4	2	n/a	CONCERT	360	0	n/a	n/a	n/a	n/a	n/a	n/a	n/a
3260708	RECOG_CONF	n/a	LTP151	ltpFR	4	2	n/a	CONCERT	360	n/a	3	n/a	n/a	n/a	n/a	n/a	n/a
3262381	RECOG_TARGET	n/a	LTP151	ltpFR	4	2	1	BUCKET	184	1	2	0	n/a	n/a	n/a	n/a	n/a
3266533	RECOG_RESP	n/a	LTP151	ltpFR	4	2	1	BUCKET	184	1	n/a	0	n/a	n/a	n/a	n/a	n/a
3267878	RECOG_CONF	n/a	LTP151	ltpFR	4	2	1	BUCKET	184	n/a	2	0	n/a	n/a	n/a	n/a	n/a
3269498	RECOG_TARGET	n/a	LTP151	ltpFR	4	2	0	COAL	332	1	5	0	n/a	n/a	n/a	n/a	n/a
3270461	RECOG_RESP	n/a	LTP151	ltpFR	4	2	0	COAL	332	1	n/a	0	n/a	n/a	n/a	n/a	n/a
3271559	RECOG_CONF	n/a	LTP151	ltpFR	4	2	0	COAL	332	n/a	5	0	n/a	n/a	n/a	n/a	n/a
3273127	RECOG_LURE	n/a	LTP151	ltpFR	4	2	n/a	SNOB	1335	0	4	n/a	n/a	n/a	n/a	n/a	n/a
3273968	RECOG_RESP	n/a	LTP151	ltpFR	4	2	n/a	SNOB	1335	0	n/a	n/a	n/a	n/a	n/a	n/a	n/a
3275310	RECOG_CONF	n/a	LTP151	ltpFR	4	2	n/a	SNOB	1335	n/a	4	n/a	n/a	n/a	n/a	n/a	n/a
3276723	RECOG_TARGET	n/a	LTP151	ltpFR	4	2	1	FATHER	554	1	5	1	n/a	n/a	n/a	n/a	n/a
3277515	RECOG_RESP	n/a	LTP151	ltpFR	4	2	1	FATHER	554	1	n/a	1	n/a	n/a	n/a	n/a	n/a
3278632	RECOG_CONF	n/a	LTP151	ltpFR	4	2	1	FATHER	554	n/a	5	1	n/a	n/a	n/a	n/a	n/a
3280235	RECOG_TARGET	n/a	LTP151	ltpFR	4	2	1	TEENAGER	1444	1	5	1	n/a	n/a	n/a	n/a	n/a
3281072	RECOG_RESP	n/a	LTP151	ltpFR	4	2	1	TEENAGER	1444	1	n/a	1	n/a	n/a	n/a	n/a	n/a
3282404	RECOG_CONF	n/a	LTP151	ltpFR	4	2	1	TEENAGER	1444	n/a	5	1	n/a	n/a	n/a	n/a	n/a
3284148	RECOG_TARGET	n/a	LTP151	ltpFR	4	2	1	SHELTER	1282	1	5	0	n/a	n/a	n/a	n/a	n/a
3285028	RECOG_RESP	n/a	LTP151	ltpFR	4	2	1	SHELTER	1282	1	n/a	0	n/a	n/a	n/a	n/a	n/a
3286125	RECOG_CONF	n/a	LTP151	ltpFR	4	2	1	SHELTER	1282	n/a	5	0	n/a	n/a	n/a	n/a	n/a
3287735	RECOG_TARGET	n/a	LTP151	ltpFR	4	2	0	CUFF	423	1	5	0	n/a	n/a	n/a	n/a	n/a
3288555	RECOG_RESP	n/a	LTP151	ltpFR	4	2	0	CUFF	423	1	n/a	0	n/a	n/a	n/a	n/a	n/a
3289659	RECOG_CONF	n/a	LTP151	ltpFR	4	2	0	CUFF	423	n/a	5	0	n/a	n/a	n/a	n/a	n/a
3291256	RECOG_LURE	n/a	LTP151	ltpFR	4	2	n/a	CLOWN	330	1	4	n/a	n/a	n/a	n/a	n/a	n/a
3292167	RECOG_RESP	n/a	LTP151	ltpFR	4	2	n/a	CLOWN	330	1	n/a	n/a	n/a	n/a	n/a	n/a	n/a
3293294	RECOG_CONF	n/a	LTP151	ltpFR	4	2	n/a	CLOWN	330	n/a	4	n/a	n/a	n/a	n/a	n/a	n/a
3294685	RECOG_LURE	n/a	LTP151	ltpFR	4	2	n/a	ORANGE	980	0	4	n/a	n/a	n/a	n/a	n/a	n/a
3295699	RECOG_RESP	n/a	LTP151	ltpFR	4	2	n/a	ORANGE	980	0	n/a	n/a	n/a	n/a	n/a	n/a	n/a
3297061	RECOG_CONF	n/a	LTP151	ltpFR	4	2	n/a	ORANGE	980	n/a	4	n/a	n/a	n/a	n/a	n/a	n/a
3298489	RECOG_LURE	n/a	LTP151	ltpFR	4	2	n/a	COMPASS	358	0	4	n/a	n/a	n/a	n/a	n/a	n/a
3300069	RECOG_RESP	n/a	LTP151	ltpFR	4	2	n/a	COMPASS	358	0	n/a	n/a	n/a	n/a	n/a	n/a	n/a
3301251	RECOG_CONF	n/a	LTP151	ltpFR	4	2	n/a	COMPASS	358	n/a	4	n/a	n/a	n/a	n/a	n/a	n/a
3302834	RECOG_LURE	n/a	LTP151	ltpFR	4	2	n/a	TULIP	1517	0	4	n/a	n/a	n/a	n/a	n/a	n/a
3303821	RECOG_RESP	n/a	LTP151	ltpFR	4	2	n/a	TULIP	1517	0	n/a	n/a	n/a	n/a	n/a	n/a	n/a
3305242	RECOG_CONF	n/a	LTP151	ltpFR	4	2	n/a	TULIP	1517	n/a	4	n/a	n/a	n/a	n/a	n/a	n/a
3306622	RECOG_LURE	n/a	LTP151	ltpFR	4	2	n/a	DUST	508	0	3	n/a	n/a	n/a	n/a	n/a	n/a
3308345	RECOG_RESP	n/a	LTP151	ltpFR	4	2	n/a	DUST	508	0	n/a	n/a	n/a	n/a	n/a	n/a	n/a
3309473	RECOG_CONF	n/a	LTP151	ltpFR	4	2	n/a	DUST	508	n/a	3	n/a	n/a	n/a	n/a	n/a	n/a
3311066	RECOG_TARGET	n/a	LTP151	ltpFR	4	2	-1	SHOULDER	1294	1	5	-1	n/a	n/a	n/a	n/a	n/a
3315134	RECOG_RESP	n/a	LTP151	ltpFR	4	2	-1	SHOULDER	1294	1	n/a	-1	n/a	n/a	n/a	n/a	n/a
3316496	RECOG_CONF	n/a	LTP151	ltpFR	4	2	-1	SHOULDER	1294	n/a	5	-1	n/a	n/a	n/a	n/a	n/a
3318083	RECOG_LURE	n/a	LTP151	ltpFR	4	2	n/a	SAND	1230	0	4	n/a	n/a	n/a	n/a	n/a	n/a
3319324	RECOG_RESP	n/a	LTP151	ltpFR	4	2	n/a	SAND	1230	0	n/a	n/a	n/a	n/a	n/a	n/a	n/a
3320876	RECOG_CONF	n/a	LTP151	ltpFR	4	2	n/a	SAND	1230	n/a	4	n/a	n/a	n/a	n/a	n/a	n/a
3324061	REC_START	n/a	LTP151	ltpFR	4	3	n/a	n/a	n/a	n/a	n/a	n/a	n/a	n/a	n/a	n/a	n/a
3324085	RECOG_TARGET	n/a	LTP151	ltpFR	4	3	0	MARS	873	1	5	1	n/a	n/a	n/a	n/a	n/a
3324849	RECOG_RESP	n/a	LTP151	ltpFR	4	3	0	MARS	873	1	n/a	1	n/a	n/a	n/a	n/a	n/a
3325953	RECOG_CONF	n/a	LTP151	ltpFR	4	3	0	MARS	873	n/a	5	1	n/a	n/a	n/a	n/a	n/a
3327489	RECOG_TARGET	n/a	LTP151	ltpFR	4	3	-1	REFRIGERATOR	1179	1	5	-1	n/a	n/a	n/a	n/a	n/a
3328206	RECOG_RESP	n/a	LTP151	ltpFR	4	3	-1	REFRIGERATOR	1179	1	n/a	-1	n/a	n/a	n/a	n/a	n/a
3329354	RECOG_CONF	n/a	LTP151	ltpFR	4	3	-1	REFRIGERATOR	1179	n/a	5	-1	n/a	n/a	n/a	n/a	n/a
3330827	RECOG_TARGET	n/a	LTP151	ltpFR	4	3	-1	MOOSE	915	1	5	-1	n/a	n/a	n/a	n/a	n/a
3331614	RECOG_RESP	n/a	LTP151	ltpFR	4	3	-1	MOOSE	915	1	n/a	-1	n/a	n/a	n/a	n/a	n/a
3332757	RECOG_CONF	n/a	LTP151	ltpFR	4	3	-1	MOOSE	915	n/a	5	-1	n/a	n/a	n/a	n/a	n/a
3334239	RECOG_LURE	n/a	LTP151	ltpFR	4	3	n/a	FACE	547	0	4	n/a	n/a	n/a	n/a	n/a	n/a
3335914	RECOG_RESP	n/a	LTP151	ltpFR	4	3	n/a	FACE	547	0	n/a	n/a	n/a	n/a	n/a	n/a	n/a
3337036	RECOG_CONF	n/a	LTP151	ltpFR	4	3	n/a	FACE	547	n/a	4	n/a	n/a	n/a	n/a	n/a	n/a
3338526	RECOG_LURE	n/a	LTP151	ltpFR	4	3	n/a	JEEP	753	0	5	n/a	n/a	n/a	n/a	n/a	n/a
3339356	RECOG_RESP	n/a	LTP151	ltpFR	4	3	n/a	JEEP	753	0	n/a	n/a	n/a	n/a	n/a	n/a	n/a
3340359	RECOG_CONF	n/a	LTP151	ltpFR	4	3	n/a	JEEP	753	n/a	5	n/a	n/a	n/a	n/a	n/a	n/a
3341956	RECOG_TARGET	n/a	LTP151	ltpFR	4	3	1	NECKLACE	940	1	5	0	n/a	n/a	n/a	n/a	n/a
3342793	RECOG_RESP	n/a	LTP151	ltpFR	4	3	1	NECKLACE	940	1	n/a	0	n/a	n/a	n/a	n/a	n/a
3343901	RECOG_CONF	n/a	LTP151	ltpFR	4	3	1	NECKLACE	940	n/a	5	0	n/a	n/a	n/a	n/a	n/a
3345476	RECOG_LURE	n/a	LTP151	ltpFR	4	3	n/a	THRONE	1461	0	5	n/a	n/a	n/a	n/a	n/a	n/a
3346365	RECOG_RESP	n/a	LTP151	ltpFR	4	3	n/a	THRONE	1461	0	n/a	n/a	n/a	n/a	n/a	n/a	n/a
3347423	RECOG_CONF	n/a	LTP151	ltpFR	4	3	n/a	THRONE	1461	n/a	5	n/a	n/a	n/a	n/a	n/a	n/a
3348956	RECOG_LURE	n/a	LTP151	ltpFR	4	3	n/a	DISC	473	0	5	n/a	n/a	n/a	n/a	n/a	n/a
3349722	RECOG_RESP	n/a	LTP151	ltpFR	4	3	n/a	DISC	473	0	n/a	n/a	n/a	n/a	n/a	n/a	n/a
3350695	RECOG_CONF	n/a	LTP151	ltpFR	4	3	n/a	DISC	473	n/a	5	n/a	n/a	n/a	n/a	n/a	n/a
3352277	RECOG_TARGET	n/a	LTP151	ltpFR	4	3	-1	GRAVE	658	1	5	-1	n/a	n/a	n/a	n/a	n/a
3353670	RECOG_RESP	n/a	LTP151	ltpFR	4	3	-1	GRAVE	658	1	n/a	-1	n/a	n/a	n/a	n/a	n/a
3354646	RECOG_CONF	n/a	LTP151	ltpFR	4	3	-1	GRAVE	658	n/a	5	-1	n/a	n/a	n/a	n/a	n/a
3356147	RECOG_TARGET	n/a	LTP151	ltpFR	4	3	0	LIPSTICK	829	1	5	0	n/a	n/a	n/a	n/a	n/a
3356845	RECOG_RESP	n/a	LTP151	ltpFR	4	3	0	LIPSTICK	829	1	n/a	0	n/a	n/a	n/a	n/a	n/a
3357924	RECOG_CONF	n/a	LTP151	ltpFR	4	3	0	LIPSTICK	829	n/a	5	0	n/a	n/a	n/a	n/a	n/a
3359477	RECOG_TARGET	n/a	LTP151	ltpFR	4	3	1	POPCORN	1104	1	5	0	n/a	n/a	n/a	n/a	n/a
3360225	RECOG_RESP	n/a	LTP151	ltpFR	4	3	1	POPCORN	1104	1	n/a	0	n/a	n/a	n/a	n/a	n/a
3361365	RECOG_CONF	n/a	LTP151	ltpFR	4	3	1	POPCORN	1104	n/a	5	0	n/a	n/a	n/a	n/a	n/a
3362773	RECOG_TARGET	n/a	LTP151	ltpFR	4	3	0	WINGS	1614	1	5	0	n/a	n/a	n/a	n/a	n/a
3363602	RECOG_RESP	n/a	LTP151	ltpFR	4	3	0	WINGS	1614	1	n/a	0	n/a	n/a	n/a	n/a	n/a
3364652	RECOG_CONF	n/a	LTP151	ltpFR	4	3	0	WINGS	1614	n/a	5	0	n/a	n/a	n/a	n/a	n/a
3366103	RECOG_TARGET	n/a	LTP151	ltpFR	4	3	1	BLACKBOARD	133	1	5	0	n/a	n/a	n/a	n/a	n/a
3367737	RECOG_RESP	n/a	LTP151	ltpFR	4	3	1	BLACKBOARD	133	1	n/a	0	n/a	n/a	n/a	n/a	n/a
3368774	RECOG_CONF	n/a	LTP151	ltpFR	4	3	1	BLACKBOARD	133	n/a	5	0	n/a	n/a	n/a	n/a	n/a
3370322	RECOG_TARGET	n/a	LTP151	ltpFR	4	3	1	MITTEN	902	1	5	0	n/a	n/a	n/a	n/a	n/a
3371044	RECOG_RESP	n/a	LTP151	ltpFR	4	3	1	MITTEN	902	1	n/a	0	n/a	n/a	n/a	n/a	n/a
3372087	RECOG_CONF	n/a	LTP151	ltpFR	4	3	1	MITTEN	902	n/a	5	0	n/a	n/a	n/a	n/a	n/a
3373652	RECOG_TARGET	n/a	LTP151	ltpFR	4	3	-1	PAD	998	1	5	-1	n/a	n/a	n/a	n/a	n/a
3374532	RECOG_RESP	n/a	LTP151	ltpFR	4	3	-1	PAD	998	1	n/a	-1	n/a	n/a	n/a	n/a	n/a
3375629	RECOG_CONF	n/a	LTP151	ltpFR	4	3	-1	PAD	998	n/a	5	-1	n/a	n/a	n/a	n/a	n/a
3377273	RECOG_TARGET	n/a	LTP151	ltpFR	4	3	0	VISITOR	1573	1	5	1	n/a	n/a	n/a	n/a	n/a
3378158	RECOG_RESP	n/a	LTP151	ltpFR	4	3	0	VISITOR	1573	1	n/a	1	n/a	n/a	n/a	n/a	n/a
3379151	RECOG_CONF	n/a	LTP151	ltpFR	4	3	0	VISITOR	1573	n/a	5	1	n/a	n/a	n/a	n/a	n/a
3380636	RECOG_TARGET	n/a	LTP151	ltpFR	4	3	-1	RAKE	1164	1	5	-1	n/a	n/a	n/a	n/a	n/a
3381415	RECOG_RESP	n/a	LTP151	ltpFR	4	3	-1	RAKE	1164	1	n/a	-1	n/a	n/a	n/a	n/a	n/a
3382505	RECOG_CONF	n/a	LTP151	ltpFR	4	3	-1	RAKE	1164	n/a	5	-1	n/a	n/a	n/a	n/a	n/a
3383965	RECOG_LURE	n/a	LTP151	ltpFR	4	3	n/a	PRISON	1127	0	3	n/a	n/a	n/a	n/a	n/a	n/a
3385780	RECOG_RESP	n/a	LTP151	ltpFR	4	3	n/a	PRISON	1127	0	n/a	n/a	n/a	n/a	n/a	n/a	n/a
3387083	RECOG_CONF	n/a	LTP151	ltpFR	4	3	n/a	PRISON	1127	n/a	3	n/a	n/a	n/a	n/a	n/a	n/a
3388593	RECOG_TARGET	n/a	LTP151	ltpFR	4	3	0	CRUTCH	417	1	5	1	n/a	n/a	n/a	n/a	n/a
3389442	RECOG_RESP	n/a	LTP151	ltpFR	4	3	0	CRUTCH	417	1	n/a	1	n/a	n/a	n/a	n/a	n/a
3390505	RECOG_CONF	n/a	LTP151	ltpFR	4	3	0	CRUTCH	417	n/a	5	1	n/a	n/a	n/a	n/a	n/a
3391989	RECOG_TARGET	n/a	LTP151	ltpFR	4	3	1	PEN	1041	1	5	0	n/a	n/a	n/a	n/a	n/a
3392704	RECOG_RESP	n/a	LTP151	ltpFR	4	3	1	PEN	1041	1	n/a	0	n/a	n/a	n/a	n/a	n/a
3393792	RECOG_CONF	n/a	LTP151	ltpFR	4	3	1	PEN	1041	n/a	5	0	n/a	n/a	n/a	n/a	n/a
3397189	REC_START	n/a	LTP151	ltpFR	4	4	n/a	n/a	n/a	n/a	n/a	n/a	n/a	n/a	n/a	n/a	n/a
3397216	RECOG_LURE	n/a	LTP151	ltpFR	4	4	n/a	ALBUM	14	0	4	n/a	n/a	n/a	n/a	n/a	n/a
3398165	RECOG_RESP	n/a	LTP151	ltpFR	4	4	n/a	ALBUM	14	0	n/a	n/a	n/a	n/a	n/a	n/a	n/a
3399318	RECOG_CONF	n/a	LTP151	ltpFR	4	4	n/a	ALBUM	14	n/a	4	n/a	n/a	n/a	n/a	n/a	n/a
3400754	RECOG_TARGET	n/a	LTP151	ltpFR	4	4	1	IGLOO	734	1	5	0	n/a	n/a	n/a	n/a	n/a
3401524	RECOG_RESP	n/a	LTP151	ltpFR	4	4	1	IGLOO	734	1	n/a	0	n/a	n/a	n/a	n/a	n/a
3402549	RECOG_CONF	n/a	LTP151	ltpFR	4	4	1	IGLOO	734	n/a	5	0	n/a	n/a	n/a	n/a	n/a
3404042	RECOG_LURE	n/a	LTP151	ltpFR	4	4	n/a	ELM	527	0	4	n/a	n/a	n/a	n/a	n/a	n/a
3404991	RECOG_RESP	n/a	LTP151	ltpFR	4	4	n/a	ELM	527	0	n/a	n/a	n/a	n/a	n/a	n/a	n/a
3406104	RECOG_CONF	n/a	LTP151	ltpFR	4	4	n/a	ELM	527	n/a	4	n/a	n/a	n/a	n/a	n/a	n/a
3407638	RECOG_TARGET	n/a	LTP151	ltpFR	4	4	1	MONGOOSE	909	1	5	1	n/a	n/a	n/a	n/a	n/a
3408538	RECOG_RESP	n/a	LTP151	ltpFR	4	4	1	MONGOOSE	909	1	n/a	1	n/a	n/a	n/a	n/a	n/a
3409684	RECOG_CONF	n/a	LTP151	ltpFR	4	4	1	MONGOOSE	909	n/a	5	1	n/a	n/a	n/a	n/a	n/a
3411175	RECOG_LURE	n/a	LTP151	ltpFR	4	4	n/a	COLESLAW	344	0	5	n/a	n/a	n/a	n/a	n/a	n/a
3412049	RECOG_RESP	n/a	LTP151	ltpFR	4	4	n/a	COLESLAW	344	0	n/a	n/a	n/a	n/a	n/a	n/a	n/a
3413038	RECOG_CONF	n/a	LTP151	ltpFR	4	4	n/a	COLESLAW	344	n/a	5	n/a	n/a	n/a	n/a	n/a	n/a
3414755	RECOG_LURE	n/a	LTP151	ltpFR	4	4	n/a	MOSS	918	0	5	n/a	n/a	n/a	n/a	n/a	n/a
3415627	RECOG_RESP	n/a	LTP151	ltpFR	4	4	n/a	MOSS	918	0	n/a	n/a	n/a	n/a	n/a	n/a	n/a
3416650	RECOG_CONF	n/a	LTP151	ltpFR	4	4	n/a	MOSS	918	n/a	5	n/a	n/a	n/a	n/a	n/a	n/a
3418267	RECOG_TARGET	n/a	LTP151	ltpFR	4	4	1	FLASK	576	1	5	0	n/a	n/a	n/a	n/a	n/a
3418989	RECOG_RESP	n/a	LTP151	ltpFR	4	4	1	FLASK	576	1	n/a	0	n/a	n/a	n/a	n/a	n/a
3420111	RECOG_CONF	n/a	LTP151	ltpFR	4	4	1	FLASK	576	n/a	5	0	n/a	n/a	n/a	n/a	n/a
3421696	RECOG_LURE	n/a	LTP151	ltpFR	4	4	n/a	OCTOPUS	971	0	5	n/a	n/a	n/a	n/a	n/a	n/a
3422686	RECOG_RESP	n/a	LTP151	ltpFR	4	4	n/a	OCTOPUS	971	0	n/a	n/a	n/a	n/a	n/a	n/a	n/a
3423773	RECOG_CONF	n/a	LTP151	ltpFR	4	4	n/a	OCTOPUS	971	n/a	5	n/a	n/a	n/a	n/a	n/a	n/a
3425292	RECOG_TARGET	n/a	LTP151	ltpFR	4	4	0	SHERIFF	1284	1	5	1	n/a	n/a	n/a	n/a	n/a
3426103	RECOG_RESP	n/a	LTP151	ltpFR	4	4	0	SHERIFF	1284	1	n/a	1	n/a	n/a	n/a	n/a	n/a
3427194	RECOG_CONF	n/a	LTP151	ltpFR	4	4	0	SHERIFF	1284	n/a	5	1	n/a	n/a	n/a	n/a	n/a
3428755	RECOG_TARGET	n/a	LTP151	ltpFR	4	4	-1	HARP	689	1	5	-1	n/a	n/a	n/a	n/a	n/a
3429543	RECOG_RESP	n/a	LTP151	ltpFR	4	4	-1	HARP	689	1	n/a	-1	n/a	n/a	n/a	n/a	n/a
3430599	RECOG_CONF	n/a	LTP151	ltpFR	4	4	-1	HARP	689	n/a	5	-1	n/a	n/a	n/a	n/a	n/a
3432043	RECOG_LURE	n/a	LTP151	ltpFR	4	4	n/a	THESAURUS	1454	0	5	n/a	n/a	n/a	n/a	n/a	n/a
3432898	RECOG_RESP	n/a	LTP151	ltpFR	4	4	n/a	THESAURUS	1454	0	n/a	n/a	n/a	n/a	n/a	n/a	n/a
3433970	RECOG_CONF	n/a	LTP151	ltpFR	4	4	n/a	THESAURUS	1454	n/a	5	n/a	n/a	n/a	n/a	n/a	n/a
3435614	RECOG_LURE	n/a	LTP151	ltpFR	4	4	n/a	CANOE	233	0	4	n/a	n/a	n/a	n/a	n/a	n/a
3436355	RECOG_RESP	n/a	LTP151	ltpFR	4	4	n/a	CANOE	233	0	n/a	n/a	n/a	n/a	n/a	n/a	n/a
3437434	RECOG_CONF	n/a	LTP151	ltpFR	4	4	n/a	CANOE	233	n/a	4	n/a	n/a	n/a	n/a	n/a	n/a
3438952	RECOG_TARGET	n/a	LTP151	ltpFR	4	4	-1	AUTOMOBILE	62	1	5	-1	n/a	n/a	n/a	n/a	n/a
3439707	RECOG_RESP	n/a	LTP151	ltpFR	4	4	-1	AUTOMOBILE	62	1	n/a	-1	n/a	n/a	n/a	n/a	n/a
3440772	RECOG_CONF	n/a	LTP151	ltpFR	4	4	-1	AUTOMOBILE	62	n/a	5	-1	n/a	n/a	n/a	n/a	n/a
3442397	RECOG_TARGET	n/a	LTP151	ltpFR	4	4	0	SLIDE	1326	1	5	1	n/a	n/a	n/a	n/a	n/a
3443199	RECOG_RESP	n/a	LTP151	ltpFR	4	4	0	SLIDE	1326	1	n/a	1	n/a	n/a	n/a	n/a	n/a
3444401	RECOG_CONF	n/a	LTP151	ltpFR	4	4	0	SLIDE	1326	n/a	5	1	n/a	n/a	n/a	n/a	n/a
3445935	RECOG_LURE	n/a	LTP151	ltpFR	4	4	n/a	BLACKBERRY	132	0	4	n/a	n/a	n/a	n/a	n/a	n/a
3447576	RECOG_RESP	n/a	LTP151	ltpFR	4	4	n/a	BLACKBERRY	132	0	n/a	n/a	n/a	n/a	n/a	n/a	n/a
3448718	RECOG_CONF	n/a	LTP151	ltpFR	4	4	n/a	BLACKBERRY	132	n/a	4	n/a	n/a	n/a	n/a	n/a	n/a
3450238	RECOG_LURE	n/a	LTP151	ltpFR	4	4	n/a	SCAPEGOAT	1244	0	5	n/a	n/a	n/a	n/a	n/a	n/a
3451131	RECOG_RESP	n/a	LTP151	ltpFR	4	4	n/a	SCAPEGOAT	1244	0	n/a	n/a	n/a	n/a	n/a	n/a	n/a
3452092	RECOG_CONF	n/a	LTP151	ltpFR	4	4	n/a	SCAPEGOAT	1244	n/a	5	n/a	n/a	n/a	n/a	n/a	n/a
3453751	RECOG_LURE	n/a	LTP151	ltpFR	4	4	n/a	NEUTRON	947	0	5	n/a	n/a	n/a	n/a	n/a	n/a
3454858	RECOG_RESP	n/a	LTP151	ltpFR	4	4	n/a	NEUTRON	947	0	n/a	n/a	n/a	n/a	n/a	n/a	n/a
3455915	RECOG_CONF	n/a	LTP151	ltpFR	4	4	n/a	NEUTRON	947	n/a	5	n/a	n/a	n/a	n/a	n/a	n/a
3457455	RECOG_LURE	n/a	LTP151	ltpFR	4	4	n/a	SWAN	1417	0	5	n/a	n/a	n/a	n/a	n/a	n/a
3458310	RECOG_RESP	n/a	LTP151	ltpFR	4	4	n/a	SWAN	1417	0	n/a	n/a	n/a	n/a	n/a	n/a	n/a
3459376	RECOG_CONF	n/a	LTP151	ltpFR	4	4	n/a	SWAN	1417	n/a	5	n/a	n/a	n/a	n/a	n/a	n/a
3460909	RECOG_TARGET	n/a	LTP151	ltpFR	4	4	0	PARTNER	1017	1	5	1	n/a	n/a	n/a	n/a	n/a
3461727	RECOG_RESP	n/a	LTP151	ltpFR	4	4	0	PARTNER	1017	1	n/a	1	n/a	n/a	n/a	n/a	n/a
3462781	RECOG_CONF	n/a	LTP151	ltpFR	4	4	0	PARTNER	1017	n/a	5	1	n/a	n/a	n/a	n/a	n/a
3464538	RECOG_LURE	n/a	LTP151	ltpFR	4	4	n/a	TREAT	1501	0	5	n/a	n/a	n/a	n/a	n/a	n/a
3465344	RECOG_RESP	n/a	LTP151	ltpFR	4	4	n/a	TREAT	1501	0	n/a	n/a	n/a	n/a	n/a	n/a	n/a
3466397	RECOG_CONF	n/a	LTP151	ltpFR	4	4	n/a	TREAT	1501	n/a	5	n/a	n/a	n/a	n/a	n/a	n/a
3470199	REC_START	n/a	LTP151	ltpFR	4	5	n/a	n/a	n/a	n/a	n/a	n/a	n/a	n/a	n/a	n/a	n/a
3470224	RECOG_TARGET	n/a	LTP151	ltpFR	4	5	0	TURNIP	1521	1	5	0	n/a	n/a	n/a	n/a	n/a
3470962	RECOG_RESP	n/a	LTP151	ltpFR	4	5	0	TURNIP	1521	1	n/a	0	n/a	n/a	n/a	n/a	n/a
3472063	RECOG_CONF	n/a	LTP151	ltpFR	4	5	0	TURNIP	1521	n/a	5	0	n/a	n/a	n/a	n/a	n/a
3473495	RECOG_TARGET	n/a	LTP151	ltpFR	4	5	1	SEAGULL	1261	1	5	1	n/a	n/a	n/a	n/a	n/a
3474260	RECOG_RESP	n/a	LTP151	ltpFR	4	5	1	SEAGULL	1261	1	n/a	1	n/a	n/a	n/a	n/a	n/a
3475268	RECOG_CONF	n/a	LTP151	ltpFR	4	5	1	SEAGULL	1261	n/a	5	1	n/a	n/a	n/a	n/a	n/a
3476858	RECOG_TARGET	n/a	LTP151	ltpFR	4	5	1	BASEMENT	94	1	5	0	n/a	n/a	n/a	n/a	n/a
3477692	RECOG_RESP	n/a	LTP151	ltpFR	4	5	1	BASEMENT	94	1	n/a	0	n/a	n/a	n/a	n/a	n/a
3478675	RECOG_CONF	n/a	LTP151	ltpFR	4	5	1	BASEMENT	94	n/a	5	0	n/a	n/a	n/a	n/a	n/a
3480262	RECOG_TARGET	n/a	LTP151	ltpFR	4	5	1	INTESTINE	742	1	5	0	n/a	n/a	n/a	n/a	n/a
3481064	RECOG_RESP	n/a	LTP151	ltpFR	4	5	1	INTESTINE	742	1	n/a	0	n/a	n/a	n/a	n/a	n/a
3482147	RECOG_CONF	n/a	LTP151	ltpFR	4	5	1	INTESTINE	742	n/a	5	0	n/a	n/a	n/a	n/a	n/a
3483683	RECOG_TARGET	n/a	LTP151	ltpFR	4	5	1	SWAMP	1416	1	5	0	n/a	n/a	n/a	n/a	n/a
3484401	RECOG_RESP	n/a	LTP151	ltpFR	4	5	1	SWAMP	1416	1	n/a	0	n/a	n/a	n/a	n/a	n/a
3485471	RECOG_CONF	n/a	LTP151	ltpFR	4	5	1	SWAMP	1416	n/a	5	0	n/a	n/a	n/a	n/a	n/a
3486937	RECOG_LURE	n/a	LTP151	ltpFR	4	5	n/a	CIGAR	308	0	4	n/a	n/a	n/a	n/a	n/a	n/a
3487908	RECOG_RESP	n/a	LTP151	ltpFR	4	5	n/a	CIGAR	308	0	n/a	n/a	n/a	n/a	n/a	n/a	n/a
3489101	RECOG_CONF	n/a	LTP151	ltpFR	4	5	n/a	CIGAR	308	n/a	4	n/a	n/a	n/a	n/a	n/a	n/a
3490442	RECOG_TARGET	n/a	LTP151	ltpFR	4	5	-1	PIANO	1057	1	5	-1	n/a	n/a	n/a	n/a	n/a
3491171	RECOG_RESP	n/a	LTP151	ltpFR	4	5	-1	PIANO	1057	1	n/a	-1	n/a	n/a	n/a	n/a	n/a
3492130	RECOG_CONF	n/a	LTP151	ltpFR	4	5	-1	PIANO	1057	n/a	5	-1	n/a	n/a	n/a	n/a	n/a
3493671	RECOG_LURE	n/a	LTP151	ltpFR	4	5	n/a	MARINE	869	0	4	n/a	n/a	n/a	n/a	n/a	n/a
3494793	RECOG_RESP	n/a	LTP151	ltpFR	4	5	n/a	MARINE	869	0	n/a	n/a	n/a	n/a	n/a	n/a	n/a
3495917	RECOG_CONF	n/a	LTP151	ltpFR	4	5	n/a	MARINE	869	n/a	4	n/a	n/a	n/a	n/a	n/a	n/a
3497358	RECOG_LURE	n/a	LTP151	ltpFR	4	5	n/a	ARTERY	41	0	4	n/a	n/a	n/a	n/a	n/a	n/a
3498275	RECOG_RESP	n/a	LTP151	ltpFR	4	5	n/a	ARTERY	41	0	n/a	n/a	n/a	n/a	n/a	n/a	n/a
3499421	RECOG_CONF	n/a	LTP151	ltpFR	4	5	n/a	ARTERY	41	n/a	4	n/a	n/a	n/a	n/a	n/a	n/a
3500838	RECOG_LURE	n/a	LTP151	ltpFR	4	5	n/a	PUDDLE	1140	0	5	n/a	n/a	n/a	n/a	n/a	n/a
3501642	RECOG_RESP	n/a	LTP151	ltpFR	4	5	n/a	PUDDLE	1140	0	n/a	n/a	n/a	n/a	n/a	n/a	n/a
3502610	RECOG_CONF	n/a	LTP151	ltpFR	4	5	n/a	PUDDLE	1140	n/a	5	n/a	n/a	n/a	n/a	n/a	n/a
3504276	RECOG_TARGET	n/a	LTP151	ltpFR	4	5	1	MARKET	871	1	5	0	n/a	n/a	n/a	n/a	n/a
3505783	RECOG_RESP	n/a	LTP151	ltpFR	4	5	1	MARKET	871	1	n/a	0	n/a	n/a	n/a	n/a	n/a
3507591	RECOG_CONF	n/a	LTP151	ltpFR	4	5	1	MARKET	871	n/a	5	0	n/a	n/a	n/a	n/a	n/a
3509037	RECOG_TARGET	n/a	LTP151	ltpFR	4	5	-1	NEST	945	1	5	-1	n/a	n/a	n/a	n/a	n/a
3509819	RECOG_RESP	n/a	LTP151	ltpFR	4	5	-1	NEST	945	1	n/a	-1	n/a	n/a	n/a	n/a	n/a
3510901	RECOG_CONF	n/a	LTP151	ltpFR	4	5	-1	NEST	945	n/a	5	-1	n/a	n/a	n/a	n/a	n/a
3512340	RECOG_LURE	n/a	LTP151	ltpFR	4	5	n/a	LOFT	840	0	4	n/a	n/a	n/a	n/a	n/a	n/a
3513520	RECOG_RESP	n/a	LTP151	ltpFR	4	5	n/a	LOFT	840	0	n/a	n/a	n/a	n/a	n/a	n/a	n/a
3514605	RECOG_CONF	n/a	LTP151	ltpFR	4	5	n/a	LOFT	840	n/a	4	n/a	n/a	n/a	n/a	n/a	n/a
3515871	RECOG_TARGET	n/a	LTP151	ltpFR	4	5	1	SCRIBBLE	1256	1	5	0	n/a	n/a	n/a	n/a	n/a
3516748	RECOG_RESP	n/a	LTP151	ltpFR	4	5	1	SCRIBBLE	1256	1	n/a	0	n/a	n/a	n/a	n/a	n/a
3517802	RECOG_CONF	n/a	LTP151	ltpFR	4	5	1	SCRIBBLE	1256	n/a	5	0	n/a	n/a	n/a	n/a	n/a
3519375	RECOG_TARGET	n/a	LTP151	ltpFR	4	5	-1	SCROLL	1257	1	5	-1	n/a	n/a	n/a	n/a	n/a
3520325	RECOG_RESP	n/a	LTP151	ltpFR	4	5	-1	SCROLL	1257	1	n/a	-1	n/a	n/a	n/a	n/a	n/a
3521405	RECOG_CONF	n/a	LTP151	ltpFR	4	5	-1	SCROLL	1257	n/a	5	-1	n/a	n/a	n/a	n/a	n/a
3522829	RECOG_LURE	n/a	LTP151	ltpFR	4	5	n/a	DRIVER	499	0	3	n/a	n/a	n/a	n/a	n/a	n/a
3525059	RECOG_RESP	n/a	LTP151	ltpFR	4	5	n/a	DRIVER	499	0	n/a	n/a	n/a	n/a	n/a	n/a	n/a
3526167	RECOG_CONF	n/a	LTP151	ltpFR	4	5	n/a	DRIVER	499	n/a	3	n/a	n/a	n/a	n/a	n/a	n/a
3527499	RECOG_LURE	n/a	LTP151	ltpFR	4	5	n/a	EMPIRE	530	0	5	n/a	n/a	n/a	n/a	n/a	n/a
3528461	RECOG_RESP	n/a	LTP151	ltpFR	4	5	n/a	EMPIRE	530	0	n/a	n/a	n/a	n/a	n/a	n/a	n/a
3529669	RECOG_CONF	n/a	LTP151	ltpFR	4	5	n/a	EMPIRE	530	n/a	5	n/a	n/a	n/a	n/a	n/a	n/a
3531111	RECOG_LURE	n/a	LTP151	ltpFR	4	5	n/a	TWIN	1528	0	5	n/a	n/a	n/a	n/a	n/a	n/a
3532208	RECOG_RESP	n/a	LTP151	ltpFR	4	5	n/a	TWIN	1528	0	n/a	n/a	n/a	n/a	n/a	n/a	n/a
3533171	RECOG_CONF	n/a	LTP151	ltpFR	4	5	n/a	TWIN	1528	n/a	5	n/a	n/a	n/a	n/a	n/a	n/a
3534732	RECOG_TARGET	n/a	LTP151	ltpFR	4	5	1	MOVIE	927	1	3	0	n/a	n/a	n/a	n/a	n/a
3537880	RECOG_RESP	n/a	LTP151	ltpFR	4	5	1	MOVIE	927	1	n/a	0	n/a	n/a	n/a	n/a	n/a
3539397	RECOG_CONF	n/a	LTP151	ltpFR	4	5	1	MOVIE	927	n/a	3	0	n/a	n/a	n/a	n/a	n/a
3540825	RECOG_TARGET	n/a	LTP151	ltpFR	4	5	1	COMB	351	1	4	0	n/a	n/a	n/a	n/a	n/a
3541761	RECOG_RESP	n/a	LTP151	ltpFR	4	5	1	COMB	351	1	n/a	0	n/a	n/a	n/a	n/a	n/a
3542926	RECOG_CONF	n/a	LTP151	ltpFR	4	5	1	COMB	351	n/a	4	0	n/a	n/a	n/a	n/a	n/a
3547138	REC_START	n/a	LTP151	ltpFR	4	6	n/a	n/a	n/a	n/a	n/a	n/a	n/a	n/a	n/a	n/a	n/a
3547168	RECOG_LURE	n/a	LTP151	ltpFR	4	6	n/a	FOLDER	588	0	2	n/a	n/a	n/a	n/a	n/a	n/a
3549992	RECOG_RESP	n/a	LTP151	ltpFR	4	6	n/a	FOLDER	588	0	n/a	n/a	n/a	n/a	n/a	n/a	n/a
3551100	RECOG_CONF	n/a	LTP151	ltpFR	4	6	n/a	FOLDER	588	n/a	2	n/a	n/a	n/a	n/a	n/a	n/a
3552578	RECOG_LURE	n/a	LTP151	ltpFR	4	6	n/a	TEAPOT	1442	0	4	n/a	n/a	n/a	n/a	n/a	n/a
3553418	RECOG_RESP	n/a	LTP151	ltpFR	4	6	n/a	TEAPOT	1442	0	n/a	n/a	n/a	n/a	n/a	n/a	n/a
3554568	RECOG_CONF	n/a	LTP151	ltpFR	4	6	n/a	TEAPOT	1442	n/a	4	n/a	n/a	n/a	n/a	n/a	n/a
3555982	RECOG_LURE	n/a	LTP151	ltpFR	4	6	n/a	BULL	193	0	4	n/a	n/a	n/a	n/a	n/a	n/a
3556880	RECOG_RESP	n/a	LTP151	ltpFR	4	6	n/a	BULL	193	0	n/a	n/a	n/a	n/a	n/a	n/a	n/a
3557976	RECOG_CONF	n/a	LTP151	ltpFR	4	6	n/a	BULL	193	n/a	4	n/a	n/a	n/a	n/a	n/a	n/a
3559369	RECOG_LURE	n/a	LTP151	ltpFR	4	6	n/a	ELECTRON	522	0	4	n/a	n/a	n/a	n/a	n/a	n/a
3560467	RECOG_RESP	n/a	LTP151	ltpFR	4	6	n/a	ELECTRON	522	0	n/a	n/a	n/a	n/a	n/a	n/a	n/a
3561500	RECOG_CONF	n/a	LTP151	ltpFR	4	6	n/a	ELECTRON	522	n/a	4	n/a	n/a	n/a	n/a	n/a	n/a
3563041	RECOG_TARGET	n/a	LTP151	ltpFR	4	6	0	TOMBSTONE	1478	1	5	1	n/a	n/a	n/a	n/a	n/a
3564096	RECOG_RESP	n/a	LTP151	ltpFR	4	6	0	TOMBSTONE	1478	1	n/a	1	n/a	n/a	n/a	n/a	n/a
3565298	RECOG_CONF	n/a	LTP151	ltpFR	4	6	0	TOMBSTONE	1478	n/a	5	1	n/a	n/a	n/a	n/a	n/a
3566695	RECOG_TARGET	n/a	LTP151	ltpFR	4	6	1	PARROT	1015	1	4	1	n/a	n/a	n/a	n/a	n/a
3567661	RECOG_RESP	n/a	LTP151	ltpFR	4	6	1	PARROT	1015	1	n/a	1	n/a	n/a	n/a	n/a	n/a
3568936	RECOG_CONF	n/a	LTP151	ltpFR	4	6	1	PARROT	1015	n/a	4	1	n/a	n/a	n/a	n/a	n/a
3570298	RECOG_TARGET	n/a	LTP151	ltpFR	4	6	0	REFEREE	1178	0	4	1	n/a	n/a	n/a	n/a	n/a
3571438	RECOG_RESP	n/a	LTP151	ltpFR	4	6	0	REFEREE	1178	0	n/a	1	n/a	n/a	n/a	n/a	n/a
3572517	RECOG_CONF	n/a	LTP151	ltpFR	4	6	0	REFEREE	1178	n/a	4	1	n/a	n/a	n/a	n/a	n/a
3573978	RECOG_TARGET	n/a	LTP151	ltpFR	4	6	0	TUTU	1524	1	5	1	n/a	n/a	n/a	n/a	n/a
3574815	RECOG_RESP	n/a	LTP151	ltpFR	4	6	0	TUTU	1524	1	n/a	1	n/a	n/a	n/a	n/a	n/a
3575921	RECOG_CONF	n/a	LTP151	ltpFR	4	6	0	TUTU	1524	n/a	5	1	n/a	n/a	n/a	n/a	n/a
3577391	RECOG_LURE	n/a	LTP151	ltpFR	4	6	n/a	RUG	1215	0	2	n/a	n/a	n/a	n/a	n/a	n/a
3579913	RECOG_RESP	n/a	LTP151	ltpFR	4	6	n/a	RUG	1215	0	n/a	n/a	n/a	n/a	n/a	n/a	n/a
3580965	RECOG_CONF	n/a	LTP151	ltpFR	4	6	n/a	RUG	1215	n/a	2	n/a	n/a	n/a	n/a	n/a	n/a
3582552	RECOG_TARGET	n/a	LTP151	ltpFR	4	6	1	SCREEN	1253	1	5	0	n/a	n/a	n/a	n/a	n/a
3583585	RECOG_RESP	n/a	LTP151	ltpFR	4	6	1	SCREEN	1253	1	n/a	0	n/a	n/a	n/a	n/a	n/a
3584533	RECOG_CONF	n/a	LTP151	ltpFR	4	6	1	SCREEN	1253	n/a	5	0	n/a	n/a	n/a	n/a	n/a
3585981	RECOG_LURE	n/a	LTP151	ltpFR	4	6	n/a	BELT	120	0	4	n/a	n/a	n/a	n/a	n/a	n/a
3587287	RECOG_RESP	n/a	LTP151	ltpFR	4	6	n/a	BELT	120	0	n/a	n/a	n/a	n/a	n/a	n/a	n/a
3588555	RECOG_CONF	n/a	LTP151	ltpFR	4	6	n/a	BELT	120	n/a	4	n/a	n/a	n/a	n/a	n/a	n/a
3590001	RECOG_LURE	n/a	LTP151	ltpFR	4	6	n/a	GRASS	655	0	3	n/a	n/a	n/a	n/a	n/a	n/a
3591910	RECOG_RESP	n/a	LTP151	ltpFR	4	6	n/a	GRASS	655	0	n/a	n/a	n/a	n/a	n/a	n/a	n/a
3593737	RECOG_CONF	n/a	LTP151	ltpFR	4	6	n/a	GRASS	655	n/a	3	n/a	n/a	n/a	n/a	n/a	n/a
3595096	RECOG_TARGET	n/a	LTP151	ltpFR	4	6	1	VAMPIRE	1547	1	5	1	n/a	n/a	n/a	n/a	n/a
3595918	RECOG_RESP	n/a	LTP151	ltpFR	4	6	1	VAMPIRE	1547	1	n/a	1	n/a	n/a	n/a	n/a	n/a
3596987	RECOG_CONF	n/a	LTP151	ltpFR	4	6	1	VAMPIRE	1547	n/a	5	1	n/a	n/a	n/a	n/a	n/a
3598533	RECOG_LURE	n/a	LTP151	ltpFR	4	6	n/a	SKIN	1318	0	4	n/a	n/a	n/a	n/a	n/a	n/a
3599464	RECOG_RESP	n/a	LTP151	ltpFR	4	6	n/a	SKIN	1318	0	n/a	n/a	n/a	n/a	n/a	n/a	n/a
3600551	RECOG_CONF	n/a	LTP151	ltpFR	4	6	n/a	SKIN	1318	n/a	4	n/a	n/a	n/a	n/a	n/a	n/a
3601896	RECOG_LURE	n/a	LTP151	ltpFR	4	6	n/a	TAXI	1438	0	4	n/a	n/a	n/a	n/a	n/a	n/a
3602766	RECOG_RESP	n/a	LTP151	ltpFR	4	6	n/a	TAXI	1438	0	n/a	n/a	n/a	n/a	n/a	n/a	n/a
3603904	RECOG_CONF	n/a	LTP151	ltpFR	4	6	n/a	TAXI	1438	n/a	4	n/a	n/a	n/a	n/a	n/a	n/a
3605433	RECOG_LURE	n/a	LTP151	ltpFR	4	6	n/a	PRUNE	1134	0	5	n/a	n/a	n/a	n/a	n/a	n/a
3606238	RECOG_RESP	n/a	LTP151	ltpFR	4	6	n/a	PRUNE	1134	0	n/a	n/a	n/a	n/a	n/a	n/a	n/a
3607258	RECOG_CONF	n/a	LTP151	ltpFR	4	6	n/a	PRUNE	1134	n/a	5	n/a	n/a	n/a	n/a	n/a	n/a
3608646	RECOG_LURE	n/a	LTP151	ltpFR	4	6	n/a	OFFICER	973	0	5	n/a	n/a	n/a	n/a	n/a	n/a
3609536	RECOG_RESP	n/a	LTP151	ltpFR	4	6	n/a	OFFICER	973	0	n/a	n/a	n/a	n/a	n/a	n/a	n/a
3610590	RECOG_CONF	n/a	LTP151	ltpFR	4	6	n/a	OFFICER	973	n/a	5	n/a	n/a	n/a	n/a	n/a	n/a
3612101	RECOG_TARGET	n/a	LTP151	ltpFR	4	6	0	BATH	98	1	5	1	n/a	n/a	n/a	n/a	n/a
3613033	RECOG_RESP	n/a	LTP151	ltpFR	4	6	0	BATH	98	1	n/a	1	n/a	n/a	n/a	n/a	n/a
3613987	RECOG_CONF	n/a	LTP151	ltpFR	4	6	0	BATH	98	n/a	5	1	n/a	n/a	n/a	n/a	n/a
3615613	RECOG_LURE	n/a	LTP151	ltpFR	4	6	n/a	STEWARDESS	1381	0	4	n/a	n/a	n/a	n/a	n/a	n/a
3618640	RECOG_RESP	n/a	LTP151	ltpFR	4	6	n/a	STEWARDESS	1381	0	n/a	n/a	n/a	n/a	n/a	n/a	n/a
3620010	RECOG_CONF	n/a	LTP151	ltpFR	4	6	n/a	STEWARDESS	1381	n/a	4	n/a	n/a	n/a	n/a	n/a	n/a
