onset	duration	trial_type	sample	stim_file	subject	experiment	session	trial	task	item_name	item_num	recog_resp	recog_conf	resp	answer	test_x	test_y	test_z	color_r	color_g	color_b	case	font
264.184	n/a	SESS_START	132092	n/a	LTP145	ltpFR	8	n/a	n/a	n/a	n/a	1	n/a	n/a	n/a	0	0	0	n/a	n/a	n/a	n/a	n/a
308.656	n/a	START	154328	n/a	LTP145	ltpFR	8	n/a	n/a	n/a	n/a	n/a	n/a	n/a	n/a	n/a	n/a	n/a	n/a	n/a	n/a	n/a	n/a
308.68	n/a	PROB	154340	n/a	LTP145	ltpFR	8	n/a	n/a	n/a	n/a	n/a	n/a	n/a	6	1	4	1	n/a	n/a	n/a	n/a	n/a
311.38	n/a	PROB	155690	n/a	LTP145	ltpFR	8	n/a	n/a	n/a	n/a	n/a	n/a	n/a	15	2	8	5	n/a	n/a	n/a	n/a	n/a
313.596	n/a	PROB	156798	n/a	LTP145	ltpFR	8	n/a	n/a	n/a	n/a	n/a	n/a	n/a	14	2	9	3	n/a	n/a	n/a	n/a	n/a
316.796	n/a	PROB	158398	n/a	LTP145	ltpFR	8	n/a	n/a	n/a	n/a	n/a	n/a	n/a	14	5	5	4	n/a	n/a	n/a	n/a	n/a
318.336	n/a	PROB	159168	n/a	LTP145	ltpFR	8	n/a	n/a	n/a	n/a	n/a	n/a	n/a	13	1	5	7	n/a	n/a	n/a	n/a	n/a
320.102	n/a	PROB	160051	n/a	LTP145	ltpFR	8	n/a	n/a	n/a	n/a	n/a	n/a	n/a	21	6	7	8	n/a	n/a	n/a	n/a	n/a
322.642	n/a	PROB	161321	n/a	LTP145	ltpFR	8	n/a	n/a	n/a	n/a	n/a	n/a	n/a	24	9	6	9	n/a	n/a	n/a	n/a	n/a
326.0	n/a	PROB	163000	n/a	LTP145	ltpFR	8	n/a	n/a	n/a	n/a	n/a	n/a	n/a	11	1	8	2	n/a	n/a	n/a	n/a	n/a
327.502	n/a	STOP	163751	n/a	LTP145	ltpFR	8	n/a	n/a	n/a	n/a	n/a	n/a	n/a	n/a	n/a	n/a	n/a	n/a	n/a	n/a	n/a	n/a
374.862	n/a	START	187431	n/a	LTP145	ltpFR	8	n/a	n/a	n/a	n/a	n/a	n/a	n/a	n/a	n/a	n/a	n/a	n/a	n/a	n/a	n/a	n/a
376.368	n/a	PROB	188184	n/a	LTP145	ltpFR	8	n/a	n/a	n/a	n/a	n/a	n/a	n/a	16	1	9	6	n/a	n/a	n/a	n/a	n/a
378.218	n/a	PROB	189109	n/a	LTP145	ltpFR	8	n/a	n/a	n/a	n/a	n/a	n/a	n/a	14	1	8	5	n/a	n/a	n/a	n/a	n/a
380.0	n/a	PROB	190000	n/a	LTP145	ltpFR	8	n/a	n/a	n/a	n/a	n/a	n/a	n/a	9	3	5	1	n/a	n/a	n/a	n/a	n/a
381.61	n/a	STOP	190805	n/a	LTP145	ltpFR	8	n/a	n/a	n/a	n/a	n/a	n/a	n/a	n/a	n/a	n/a	n/a	n/a	n/a	n/a	n/a	n/a
383.874	n/a	WORD	191937	wordpools/wasnorm_wordpool.txt	LTP145	ltpFR	8	1	1	OBOE	969	n/a	n/a	0	n/a	0	0	0	0.422607421875	0.5869140625	0	upper	amplitud.ttf
386.884	n/a	START	193442	n/a	LTP145	ltpFR	8	n/a	n/a	n/a	n/a	n/a	n/a	n/a	n/a	n/a	n/a	n/a	n/a	n/a	n/a	n/a	n/a
387.824	n/a	PROB	193912	n/a	LTP145	ltpFR	8	n/a	n/a	n/a	n/a	n/a	n/a	n/a	12	1	6	5	n/a	n/a	n/a	n/a	n/a
389.906	n/a	PROB	194953	n/a	LTP145	ltpFR	8	n/a	n/a	n/a	n/a	n/a	n/a	n/a	15	4	5	6	n/a	n/a	n/a	n/a	n/a
391.764	n/a	PROB	195882	n/a	LTP145	ltpFR	8	n/a	n/a	n/a	n/a	n/a	n/a	n/a	12	5	2	5	n/a	n/a	n/a	n/a	n/a
393.072	n/a	PROB	196536	n/a	LTP145	ltpFR	8	n/a	n/a	n/a	n/a	n/a	n/a	n/a	18	8	3	7	n/a	n/a	n/a	n/a	n/a
394.578	n/a	STOP	197289	n/a	LTP145	ltpFR	8	n/a	n/a	n/a	n/a	n/a	n/a	n/a	n/a	n/a	n/a	n/a	n/a	n/a	n/a	n/a	n/a
395.838	n/a	WORD	197919	wordpools/wasnorm_wordpool.txt	LTP145	ltpFR	8	1	1	CHAMPION	279	n/a	n/a	1	n/a	0	0	0	0.422607421875	0.5869140625	0	upper	amplitud.ttf
398.846	n/a	START	199423	n/a	LTP145	ltpFR	8	n/a	n/a	n/a	n/a	n/a	n/a	n/a	n/a	n/a	n/a	n/a	n/a	n/a	n/a	n/a	n/a
399.72	n/a	PROB	199860	n/a	LTP145	ltpFR	8	n/a	n/a	n/a	n/a	n/a	n/a	n/a	14	6	2	6	n/a	n/a	n/a	n/a	n/a
401.344	n/a	PROB	200672	n/a	LTP145	ltpFR	8	n/a	n/a	n/a	n/a	n/a	n/a	n/a	20	7	7	6	n/a	n/a	n/a	n/a	n/a
403.802	n/a	PROB	201901	n/a	LTP145	ltpFR	8	n/a	n/a	n/a	n/a	n/a	n/a	n/a	16	7	4	5	n/a	n/a	n/a	n/a	n/a
405.948	n/a	STOP	202974	n/a	LTP145	ltpFR	8	n/a	n/a	n/a	n/a	n/a	n/a	n/a	n/a	n/a	n/a	n/a	n/a	n/a	n/a	n/a	n/a
408.026	n/a	WORD	204013	wordpools/wasnorm_wordpool.txt	LTP145	ltpFR	8	1	1	DICE	461	n/a	n/a	0	n/a	0	0	0	0.422607421875	0.5869140625	0	upper	amplitud.ttf
411.032	n/a	START	205516	n/a	LTP145	ltpFR	8	n/a	n/a	n/a	n/a	n/a	n/a	n/a	n/a	n/a	n/a	n/a	n/a	n/a	n/a	n/a	n/a
411.966	n/a	PROB	205983	n/a	LTP145	ltpFR	8	n/a	n/a	n/a	n/a	n/a	n/a	n/a	12	3	8	1	n/a	n/a	n/a	n/a	n/a
413.898	n/a	PROB	206949	n/a	LTP145	ltpFR	8	n/a	n/a	n/a	n/a	n/a	n/a	n/a	13	6	5	2	n/a	n/a	n/a	n/a	n/a
416.498	n/a	PROB	208249	n/a	LTP145	ltpFR	8	n/a	n/a	n/a	n/a	n/a	n/a	n/a	21	9	3	9	n/a	n/a	n/a	n/a	n/a
418.66	n/a	STOP	209330	n/a	LTP145	ltpFR	8	n/a	n/a	n/a	n/a	n/a	n/a	n/a	n/a	n/a	n/a	n/a	n/a	n/a	n/a	n/a	n/a
420.08	n/a	WORD	210040	wordpools/wasnorm_wordpool.txt	LTP145	ltpFR	8	1	0	VIDEO	1564	n/a	n/a	2	n/a	0	0	0	0.57763671875	0.412841796875	1	lower	zerothre.ttf
421.17	n/a	KEY_MSG	210585	n/a	LTP145	ltpFR	8	1	n/a	n/a	n/a	n/a	n/a	n/a	n/a	0	0	0	n/a	n/a	n/a	n/a	n/a
423.086	n/a	START	211543	n/a	LTP145	ltpFR	8	n/a	n/a	n/a	n/a	n/a	n/a	n/a	n/a	n/a	n/a	n/a	n/a	n/a	n/a	n/a	n/a
424.238	n/a	PROB	212119	n/a	LTP145	ltpFR	8	n/a	n/a	n/a	n/a	n/a	n/a	n/a	15	2	6	7	n/a	n/a	n/a	n/a	n/a
426.52	n/a	PROB	213260	n/a	LTP145	ltpFR	8	n/a	n/a	n/a	n/a	n/a	n/a	n/a	16	6	6	4	n/a	n/a	n/a	n/a	n/a
428.436	n/a	PROB	214218	n/a	LTP145	ltpFR	8	n/a	n/a	n/a	n/a	n/a	n/a	n/a	17	6	5	6	n/a	n/a	n/a	n/a	n/a
431.068	n/a	STOP	215534	n/a	LTP145	ltpFR	8	n/a	n/a	n/a	n/a	n/a	n/a	n/a	n/a	n/a	n/a	n/a	n/a	n/a	n/a	n/a	n/a
431.992	n/a	WORD	215996	wordpools/wasnorm_wordpool.txt	LTP145	ltpFR	8	1	0	VEIN	1554	n/a	n/a	0	n/a	0	0	0	0.57763671875	0.412841796875	1	lower	zerothre.ttf
435.0	n/a	START	217500	n/a	LTP145	ltpFR	8	n/a	n/a	n/a	n/a	n/a	n/a	n/a	n/a	n/a	n/a	n/a	n/a	n/a	n/a	n/a	n/a
435.982	n/a	PROB	217991	n/a	LTP145	ltpFR	8	n/a	n/a	n/a	n/a	n/a	n/a	n/a	9	1	4	4	n/a	n/a	n/a	n/a	n/a
437.482	n/a	PROB	218741	n/a	LTP145	ltpFR	8	n/a	n/a	n/a	n/a	n/a	n/a	n/a	16	7	1	8	n/a	n/a	n/a	n/a	n/a
439.882	n/a	PROB	219941	n/a	LTP145	ltpFR	8	n/a	n/a	n/a	n/a	n/a	n/a	n/a	18	7	5	6	n/a	n/a	n/a	n/a	n/a
441.964	n/a	STOP	220982	n/a	LTP145	ltpFR	8	n/a	n/a	n/a	n/a	n/a	n/a	n/a	n/a	n/a	n/a	n/a	n/a	n/a	n/a	n/a	n/a
443.898	n/a	WORD	221949	wordpools/wasnorm_wordpool.txt	LTP145	ltpFR	8	1	0	COPIER	377	n/a	n/a	1	n/a	0	0	0	0.57763671875	0.412841796875	1	lower	zerothre.ttf
446.906	n/a	START	223453	n/a	LTP145	ltpFR	8	n/a	n/a	n/a	n/a	n/a	n/a	n/a	n/a	n/a	n/a	n/a	n/a	n/a	n/a	n/a	n/a
448.022	n/a	PROB	224011	n/a	LTP145	ltpFR	8	n/a	n/a	n/a	n/a	n/a	n/a	n/a	17	7	1	9	n/a	n/a	n/a	n/a	n/a
450.47	n/a	PROB	225235	n/a	LTP145	ltpFR	8	n/a	n/a	n/a	n/a	n/a	n/a	n/a	23	8	8	7	n/a	n/a	n/a	n/a	n/a
454.906	n/a	STOP	227453	n/a	LTP145	ltpFR	8	n/a	n/a	n/a	n/a	n/a	n/a	n/a	n/a	n/a	n/a	n/a	n/a	n/a	n/a	n/a	n/a
455.844	n/a	WORD	227922	wordpools/wasnorm_wordpool.txt	LTP145	ltpFR	8	1	0	CONCERT	360	n/a	n/a	1	n/a	0	0	0	0.57763671875	0.412841796875	1	lower	zerothre.ttf
458.852	n/a	START	229426	n/a	LTP145	ltpFR	8	n/a	n/a	n/a	n/a	n/a	n/a	n/a	n/a	n/a	n/a	n/a	n/a	n/a	n/a	n/a	n/a
459.76	n/a	PROB	229880	n/a	LTP145	ltpFR	8	n/a	n/a	n/a	n/a	n/a	n/a	n/a	8	4	1	3	n/a	n/a	n/a	n/a	n/a
461.358	n/a	PROB	230679	n/a	LTP145	ltpFR	8	n/a	n/a	n/a	n/a	n/a	n/a	n/a	18	4	9	5	n/a	n/a	n/a	n/a	n/a
464.274	n/a	PROB	232137	n/a	LTP145	ltpFR	8	n/a	n/a	n/a	n/a	n/a	n/a	n/a	16	5	8	3	n/a	n/a	n/a	n/a	n/a
466.438	n/a	STOP	233219	n/a	LTP145	ltpFR	8	n/a	n/a	n/a	n/a	n/a	n/a	n/a	n/a	n/a	n/a	n/a	n/a	n/a	n/a	n/a	n/a
467.692	n/a	WORD	233846	wordpools/wasnorm_wordpool.txt	LTP145	ltpFR	8	1	0	BEGGAR	117	n/a	n/a	1	n/a	0	0	0	0.57763671875	0.412841796875	1	lower	zerothre.ttf
470.698	n/a	START	235349	n/a	LTP145	ltpFR	8	n/a	n/a	n/a	n/a	n/a	n/a	n/a	n/a	n/a	n/a	n/a	n/a	n/a	n/a	n/a	n/a
471.882	n/a	PROB	235941	n/a	LTP145	ltpFR	8	n/a	n/a	n/a	n/a	n/a	n/a	n/a	12	4	3	5	n/a	n/a	n/a	n/a	n/a
474.48	n/a	PROB	237240	n/a	LTP145	ltpFR	8	n/a	n/a	n/a	n/a	n/a	n/a	n/a	15	5	3	7	n/a	n/a	n/a	n/a	n/a
476.154	n/a	PROB	238077	n/a	LTP145	ltpFR	8	n/a	n/a	n/a	n/a	n/a	n/a	n/a	16	7	7	2	n/a	n/a	n/a	n/a	n/a
477.848	n/a	STOP	238924	n/a	LTP145	ltpFR	8	n/a	n/a	n/a	n/a	n/a	n/a	n/a	n/a	n/a	n/a	n/a	n/a	n/a	n/a	n/a	n/a
479.87	n/a	WORD	239935	wordpools/wasnorm_wordpool.txt	LTP145	ltpFR	8	1	0	GRAPE	654	n/a	n/a	0	n/a	0	0	0	0.57763671875	0.412841796875	1	lower	zerothre.ttf
482.878	n/a	START	241439	n/a	LTP145	ltpFR	8	n/a	n/a	n/a	n/a	n/a	n/a	n/a	n/a	n/a	n/a	n/a	n/a	n/a	n/a	n/a	n/a
483.736	n/a	PROB	241868	n/a	LTP145	ltpFR	8	n/a	n/a	n/a	n/a	n/a	n/a	n/a	20	7	6	7	n/a	n/a	n/a	n/a	n/a
486.218	n/a	PROB	243109	n/a	LTP145	ltpFR	8	n/a	n/a	n/a	n/a	n/a	n/a	n/a	6	3	1	2	n/a	n/a	n/a	n/a	n/a
490.878	n/a	STOP	245439	n/a	LTP145	ltpFR	8	n/a	n/a	n/a	n/a	n/a	n/a	n/a	n/a	n/a	n/a	n/a	n/a	n/a	n/a	n/a	n/a
491.958	n/a	WORD	245979	wordpools/wasnorm_wordpool.txt	LTP145	ltpFR	8	1	1	SARDINE	1235	n/a	n/a	0	n/a	0	0	0	0.422607421875	0.5869140625	0	upper	amplitud.ttf
494.966	n/a	START	247483	n/a	LTP145	ltpFR	8	n/a	n/a	n/a	n/a	n/a	n/a	n/a	n/a	n/a	n/a	n/a	n/a	n/a	n/a	n/a	n/a
496.106	n/a	PROB	248053	n/a	LTP145	ltpFR	8	n/a	n/a	n/a	n/a	n/a	n/a	n/a	18	9	3	6	n/a	n/a	n/a	n/a	n/a
498.238	n/a	PROB	249119	n/a	LTP145	ltpFR	8	n/a	n/a	n/a	n/a	n/a	n/a	n/a	14	2	9	3	n/a	n/a	n/a	n/a	n/a
500.672	n/a	PROB	250336	n/a	LTP145	ltpFR	8	n/a	n/a	n/a	n/a	n/a	n/a	n/a	12	3	7	2	n/a	n/a	n/a	n/a	n/a
502.088	n/a	STOP	251044	n/a	LTP145	ltpFR	8	n/a	n/a	n/a	n/a	n/a	n/a	n/a	n/a	n/a	n/a	n/a	n/a	n/a	n/a	n/a	n/a
504.12	n/a	WORD	252060	wordpools/wasnorm_wordpool.txt	LTP145	ltpFR	8	1	1	SHARK	1275	n/a	n/a	1	n/a	0	0	0	0.422607421875	0.5869140625	0	upper	amplitud.ttf
507.128	n/a	START	253564	n/a	LTP145	ltpFR	8	n/a	n/a	n/a	n/a	n/a	n/a	n/a	n/a	n/a	n/a	n/a	n/a	n/a	n/a	n/a	n/a
508.186	n/a	PROB	254093	n/a	LTP145	ltpFR	8	n/a	n/a	n/a	n/a	n/a	n/a	n/a	20	7	8	5	n/a	n/a	n/a	n/a	n/a
510.36	n/a	PROB	255180	n/a	LTP145	ltpFR	8	n/a	n/a	n/a	n/a	n/a	n/a	n/a	13	4	3	6	n/a	n/a	n/a	n/a	n/a
513.018	n/a	PROB	256509	n/a	LTP145	ltpFR	8	n/a	n/a	n/a	n/a	n/a	n/a	n/a	18	8	7	3	n/a	n/a	n/a	n/a	n/a
514.536	n/a	STOP	257268	n/a	LTP145	ltpFR	8	n/a	n/a	n/a	n/a	n/a	n/a	n/a	n/a	n/a	n/a	n/a	n/a	n/a	n/a	n/a	n/a
516.284	n/a	WORD	258142	wordpools/wasnorm_wordpool.txt	LTP145	ltpFR	8	1	1	JACKET	747	n/a	n/a	0	n/a	0	0	0	0.422607421875	0.5869140625	0	upper	amplitud.ttf
519.292	n/a	START	259646	n/a	LTP145	ltpFR	8	n/a	n/a	n/a	n/a	n/a	n/a	n/a	n/a	n/a	n/a	n/a	n/a	n/a	n/a	n/a	n/a
520.442	n/a	PROB	260221	n/a	LTP145	ltpFR	8	n/a	n/a	n/a	n/a	n/a	n/a	n/a	9	5	1	3	n/a	n/a	n/a	n/a	n/a
521.908	n/a	PROB	260954	n/a	LTP145	ltpFR	8	n/a	n/a	n/a	n/a	n/a	n/a	n/a	14	5	4	5	n/a	n/a	n/a	n/a	n/a
523.824	n/a	PROB	261912	n/a	LTP145	ltpFR	8	n/a	n/a	n/a	n/a	n/a	n/a	n/a	15	7	1	7	n/a	n/a	n/a	n/a	n/a
527.292	n/a	STOP	263646	n/a	LTP145	ltpFR	8	n/a	n/a	n/a	n/a	n/a	n/a	n/a	n/a	n/a	n/a	n/a	n/a	n/a	n/a	n/a	n/a
528.164	n/a	WORD	264082	wordpools/wasnorm_wordpool.txt	LTP145	ltpFR	8	1	0	CAPE	237	n/a	n/a	2	n/a	0	0	0	0.57763671875	0.412841796875	1	lower	zerothre.ttf
530.512	n/a	KEY_MSG	265256	n/a	LTP145	ltpFR	8	1	n/a	n/a	n/a	n/a	n/a	n/a	n/a	0	0	0	n/a	n/a	n/a	n/a	n/a
532.028	n/a	START	266014	n/a	LTP145	ltpFR	8	n/a	n/a	n/a	n/a	n/a	n/a	n/a	n/a	n/a	n/a	n/a	n/a	n/a	n/a	n/a	n/a
533.144	n/a	PROB	266572	n/a	LTP145	ltpFR	8	n/a	n/a	n/a	n/a	n/a	n/a	n/a	16	7	3	6	n/a	n/a	n/a	n/a	n/a
534.97	n/a	PROB	267485	n/a	LTP145	ltpFR	8	n/a	n/a	n/a	n/a	n/a	n/a	n/a	16	6	7	3	n/a	n/a	n/a	n/a	n/a
536.394	n/a	PROB	268197	n/a	LTP145	ltpFR	8	n/a	n/a	n/a	n/a	n/a	n/a	n/a	11	2	1	8	n/a	n/a	n/a	n/a	n/a
540.03	n/a	STOP	270015	n/a	LTP145	ltpFR	8	n/a	n/a	n/a	n/a	n/a	n/a	n/a	n/a	n/a	n/a	n/a	n/a	n/a	n/a	n/a	n/a
541.06	n/a	WORD	270530	wordpools/wasnorm_wordpool.txt	LTP145	ltpFR	8	1	0	SERVANT	1271	n/a	n/a	3	n/a	0	0	0	0.57763671875	0.412841796875	1	lower	zerothre.ttf
541.934	n/a	KEY_MSG	270967	n/a	LTP145	ltpFR	8	1	n/a	n/a	n/a	n/a	n/a	n/a	n/a	0	0	0	n/a	n/a	n/a	n/a	n/a
544.068	n/a	START	272034	n/a	LTP145	ltpFR	8	n/a	n/a	n/a	n/a	n/a	n/a	n/a	n/a	n/a	n/a	n/a	n/a	n/a	n/a	n/a	n/a
545.184	n/a	PROB	272592	n/a	LTP145	ltpFR	8	n/a	n/a	n/a	n/a	n/a	n/a	n/a	16	2	6	8	n/a	n/a	n/a	n/a	n/a
547.6	n/a	PROB	273800	n/a	LTP145	ltpFR	8	n/a	n/a	n/a	n/a	n/a	n/a	n/a	18	5	7	6	n/a	n/a	n/a	n/a	n/a
552.068	n/a	STOP	276034	n/a	LTP145	ltpFR	8	n/a	n/a	n/a	n/a	n/a	n/a	n/a	n/a	n/a	n/a	n/a	n/a	n/a	n/a	n/a	n/a
553.238	n/a	WORD	276619	wordpools/wasnorm_wordpool.txt	LTP145	ltpFR	8	1	1	DOCUMENT	479	n/a	n/a	0	n/a	0	0	0	0.422607421875	0.5869140625	0	upper	amplitud.ttf
556.246	n/a	START	278123	n/a	LTP145	ltpFR	8	n/a	n/a	n/a	n/a	n/a	n/a	n/a	n/a	n/a	n/a	n/a	n/a	n/a	n/a	n/a	n/a
557.246	n/a	PROB	278623	n/a	LTP145	ltpFR	8	n/a	n/a	n/a	n/a	n/a	n/a	n/a	16	8	1	7	n/a	n/a	n/a	n/a	n/a
559.062	n/a	PROB	279531	n/a	LTP145	ltpFR	8	n/a	n/a	n/a	n/a	n/a	n/a	n/a	10	7	2	1	n/a	n/a	n/a	n/a	n/a
560.962	n/a	PROB	280481	n/a	LTP145	ltpFR	8	n/a	n/a	n/a	n/a	n/a	n/a	n/a	14	1	9	4	n/a	n/a	n/a	n/a	n/a
564.248	n/a	STOP	282124	n/a	LTP145	ltpFR	8	n/a	n/a	n/a	n/a	n/a	n/a	n/a	n/a	n/a	n/a	n/a	n/a	n/a	n/a	n/a	n/a
565.128	n/a	WORD	282564	wordpools/wasnorm_wordpool.txt	LTP145	ltpFR	8	1	1	RUNNER	1218	n/a	n/a	1	n/a	0	0	0	0.422607421875	0.5869140625	0	upper	amplitud.ttf
568.134	n/a	START	284067	n/a	LTP145	ltpFR	8	n/a	n/a	n/a	n/a	n/a	n/a	n/a	n/a	n/a	n/a	n/a	n/a	n/a	n/a	n/a	n/a
569.318	n/a	PROB	284659	n/a	LTP145	ltpFR	8	n/a	n/a	n/a	n/a	n/a	n/a	n/a	13	7	3	3	n/a	n/a	n/a	n/a	n/a
570.916	n/a	PROB	285458	n/a	LTP145	ltpFR	8	n/a	n/a	n/a	n/a	n/a	n/a	n/a	18	1	8	9	n/a	n/a	n/a	n/a	n/a
572.784	n/a	PROB	286392	n/a	LTP145	ltpFR	8	n/a	n/a	n/a	n/a	n/a	n/a	n/a	15	3	6	6	n/a	n/a	n/a	n/a	n/a
575.428	n/a	STOP	287714	n/a	LTP145	ltpFR	8	n/a	n/a	n/a	n/a	n/a	n/a	n/a	n/a	n/a	n/a	n/a	n/a	n/a	n/a	n/a	n/a
578.058	n/a	REC_START	289029	n/a	LTP145	ltpFR	8	1	n/a	n/a	n/a	n/a	n/a	n/a	n/a	0	0	0	n/a	n/a	n/a	n/a	n/a
581.246	n/a	REC_WORD	290623	wordpools/wasnorm_wordpool.txt	LTP145	ltpFR	8	1	1	RUNNER	1218	n/a	n/a	1	n/a	0	0	0	n/a	n/a	n/a	n/a	n/a
583.77	n/a	REC_WORD	291885	wordpools/wasnorm_wordpool.txt	LTP145	ltpFR	8	1	1	OBOE	969	n/a	n/a	0	n/a	0	0	0	n/a	n/a	n/a	n/a	n/a
585.136	n/a	REC_WORD	292568	wordpools/wasnorm_wordpool.txt	LTP145	ltpFR	8	1	0	CONCERT	360	n/a	n/a	1	n/a	0	0	0	n/a	n/a	n/a	n/a	n/a
589.122	n/a	REC_WORD	294561	wordpools/wasnorm_wordpool.txt	LTP145	ltpFR	8	1	1	CHAMPION	279	n/a	n/a	1	n/a	0	0	0	n/a	n/a	n/a	n/a	n/a
591.742	n/a	REC_WORD	295871	wordpools/wasnorm_wordpool.txt	LTP145	ltpFR	8	1	0	GRAPE	654	n/a	n/a	0	n/a	0	0	0	n/a	n/a	n/a	n/a	n/a
597.908	n/a	REC_WORD	298954	wordpools/wasnorm_wordpool.txt	LTP145	ltpFR	8	1	0	CAPE	237	n/a	n/a	2	n/a	0	0	0	n/a	n/a	n/a	n/a	n/a
648.21	n/a	REC_WORD	324105	wordpools/wasnorm_wordpool.txt	LTP145	ltpFR	8	1	0	VEIN	1554	n/a	n/a	0	n/a	0	0	0	n/a	n/a	n/a	n/a	n/a
657.074	n/a	WORD	328537	wordpools/wasnorm_wordpool.txt	LTP145	ltpFR	8	2	1	WILDERNESS	1610	n/a	n/a	0	n/a	0	0	0	0.422607421875	0.5869140625	0	upper	amplitud.ttf
661.172	n/a	WORD	330586	wordpools/wasnorm_wordpool.txt	LTP145	ltpFR	8	2	1	LUGGAGE	847	n/a	n/a	0	n/a	0	0	0	0.422607421875	0.5869140625	0	upper	amplitud.ttf
665.238	n/a	WORD	332619	wordpools/wasnorm_wordpool.txt	LTP145	ltpFR	8	2	0	DILL	465	n/a	n/a	0	n/a	0	0	0	0.57763671875	0.412841796875	1	lower	zerothre.ttf
669.312	n/a	WORD	334656	wordpools/wasnorm_wordpool.txt	LTP145	ltpFR	8	2	0	TAPE	1433	n/a	n/a	0	n/a	0	0	0	0.57763671875	0.412841796875	1	lower	zerothre.ttf
673.136	n/a	WORD	336568	wordpools/wasnorm_wordpool.txt	LTP145	ltpFR	8	2	0	ALBUM	14	n/a	n/a	0	n/a	0	0	0	0.57763671875	0.412841796875	1	lower	zerothre.ttf
677.01	n/a	WORD	338505	wordpools/wasnorm_wordpool.txt	LTP145	ltpFR	8	2	0	FUNGUS	614	n/a	n/a	0	n/a	0	0	0	0.57763671875	0.412841796875	1	lower	zerothre.ttf
681.05	n/a	WORD	340525	wordpools/wasnorm_wordpool.txt	LTP145	ltpFR	8	2	0	CALCULATOR	220	n/a	n/a	0	n/a	0	0	0	0.57763671875	0.412841796875	1	lower	zerothre.ttf
685.256	n/a	WORD	342628	wordpools/wasnorm_wordpool.txt	LTP145	ltpFR	8	2	1	SPIDER	1351	n/a	n/a	1	n/a	0	0	0	0.422607421875	0.5869140625	0	upper	amplitud.ttf
689.422	n/a	WORD	344711	wordpools/wasnorm_wordpool.txt	LTP145	ltpFR	8	2	1	MOUNTAIN	924	n/a	n/a	0	n/a	0	0	0	0.422607421875	0.5869140625	0	upper	amplitud.ttf
693.538	n/a	WORD	346769	wordpools/wasnorm_wordpool.txt	LTP145	ltpFR	8	2	1	MEADOW	881	n/a	n/a	0	n/a	0	0	0	0.422607421875	0.5869140625	0	upper	amplitud.ttf
697.396	n/a	WORD	348698	wordpools/wasnorm_wordpool.txt	LTP145	ltpFR	8	2	1	DICTATOR	462	n/a	n/a	1	n/a	0	0	0	0.422607421875	0.5869140625	0	upper	amplitud.ttf
701.318	n/a	WORD	350659	wordpools/wasnorm_wordpool.txt	LTP145	ltpFR	8	2	1	SLOPE	1328	n/a	n/a	0	n/a	0	0	0	0.422607421875	0.5869140625	0	upper	amplitud.ttf
705.4	n/a	WORD	352700	wordpools/wasnorm_wordpool.txt	LTP145	ltpFR	8	2	1	SNAKE	1333	n/a	n/a	0	n/a	0	0	0	0.422607421875	0.5869140625	0	upper	amplitud.ttf
709.426	n/a	WORD	354713	wordpools/wasnorm_wordpool.txt	LTP145	ltpFR	8	2	0	REPTILE	1185	n/a	n/a	0	n/a	0	0	0	0.57763671875	0.412841796875	1	lower	zerothre.ttf
713.248	n/a	WORD	356624	wordpools/wasnorm_wordpool.txt	LTP145	ltpFR	8	2	0	BRICK	172	n/a	n/a	0	n/a	0	0	0	0.57763671875	0.412841796875	1	lower	zerothre.ttf
717.106	n/a	WORD	358553	wordpools/wasnorm_wordpool.txt	LTP145	ltpFR	8	2	0	MONUMENT	913	n/a	n/a	1	n/a	0	0	0	0.57763671875	0.412841796875	1	lower	zerothre.ttf
720.114	n/a	START	360057	n/a	LTP145	ltpFR	8	n/a	n/a	n/a	n/a	n/a	n/a	n/a	n/a	n/a	n/a	n/a	n/a	n/a	n/a	n/a	n/a
721.072	n/a	PROB	360536	n/a	LTP145	ltpFR	8	n/a	n/a	n/a	n/a	n/a	n/a	n/a	15	4	4	7	n/a	n/a	n/a	n/a	n/a
723.812	n/a	PROB	361906	n/a	LTP145	ltpFR	8	n/a	n/a	n/a	n/a	n/a	n/a	n/a	16	6	6	4	n/a	n/a	n/a	n/a	n/a
725.412	n/a	PROB	362706	n/a	LTP145	ltpFR	8	n/a	n/a	n/a	n/a	n/a	n/a	n/a	11	5	3	3	n/a	n/a	n/a	n/a	n/a
727.284	n/a	STOP	363642	n/a	LTP145	ltpFR	8	n/a	n/a	n/a	n/a	n/a	n/a	n/a	n/a	n/a	n/a	n/a	n/a	n/a	n/a	n/a	n/a
729.912	n/a	REC_START	364956	n/a	LTP145	ltpFR	8	2	n/a	n/a	n/a	n/a	n/a	n/a	n/a	0	0	0	n/a	n/a	n/a	n/a	n/a
732.242	n/a	REC_WORD	366121	wordpools/wasnorm_wordpool.txt	LTP145	ltpFR	8	2	0	DILL	465	n/a	n/a	0	n/a	0	0	0	n/a	n/a	n/a	n/a	n/a
733.418	n/a	REC_WORD	366709	wordpools/wasnorm_wordpool.txt	LTP145	ltpFR	8	2	1	MOUNTAIN	924	n/a	n/a	0	n/a	0	0	0	n/a	n/a	n/a	n/a	n/a
734.496	n/a	REC_WORD	367248	wordpools/wasnorm_wordpool.txt	LTP145	ltpFR	8	2	1	SLOPE	1328	n/a	n/a	0	n/a	0	0	0	n/a	n/a	n/a	n/a	n/a
736.002	n/a	REC_WORD	368001	wordpools/wasnorm_wordpool.txt	LTP145	ltpFR	8	2	1	MEADOW	881	n/a	n/a	0	n/a	0	0	0	n/a	n/a	n/a	n/a	n/a
737.36	n/a	REC_WORD	368680	wordpools/wasnorm_wordpool.txt	LTP145	ltpFR	8	2	1	WILDERNESS	1610	n/a	n/a	0	n/a	0	0	0	n/a	n/a	n/a	n/a	n/a
738.95	n/a	REC_WORD	369475	wordpools/wasnorm_wordpool.txt	LTP145	ltpFR	8	2	1	LUGGAGE	847	n/a	n/a	0	n/a	0	0	0	n/a	n/a	n/a	n/a	n/a
741.766	n/a	REC_WORD	370883	wordpools/wasnorm_wordpool.txt	LTP145	ltpFR	8	2	0	FUNGUS	614	n/a	n/a	0	n/a	0	0	0	n/a	n/a	n/a	n/a	n/a
809.362	n/a	WORD	404681	wordpools/wasnorm_wordpool.txt	LTP145	ltpFR	8	3	1	STRANGER	1389	n/a	n/a	1	n/a	0	0	0	0.422607421875	0.5869140625	0	upper	amplitud.ttf
813.186	n/a	WORD	406593	wordpools/wasnorm_wordpool.txt	LTP145	ltpFR	8	3	1	RIB	1188	n/a	n/a	0	n/a	0	0	0	0.422607421875	0.5869140625	0	upper	amplitud.ttf
817.242	n/a	WORD	408621	wordpools/wasnorm_wordpool.txt	LTP145	ltpFR	8	3	1	CITY	314	n/a	n/a	1	n/a	0	0	0	0.422607421875	0.5869140625	0	upper	amplitud.ttf
821.39	n/a	WORD	410695	wordpools/wasnorm_wordpool.txt	LTP145	ltpFR	8	3	1	GUEST	669	n/a	n/a	1	n/a	0	0	0	0.422607421875	0.5869140625	0	upper	amplitud.ttf
825.316	n/a	WORD	412658	wordpools/wasnorm_wordpool.txt	LTP145	ltpFR	8	3	1	COMPANION	357	n/a	n/a	1	n/a	0	0	0	0.422607421875	0.5869140625	0	upper	amplitud.ttf
829.464	n/a	WORD	414732	wordpools/wasnorm_wordpool.txt	LTP145	ltpFR	8	3	1	SUNRISE	1407	n/a	n/a	0	n/a	0	0	0	0.422607421875	0.5869140625	0	upper	amplitud.ttf
833.446	n/a	WORD	416723	wordpools/wasnorm_wordpool.txt	LTP145	ltpFR	8	3	1	SCENERY	1247	n/a	n/a	0	n/a	0	0	0	0.422607421875	0.5869140625	0	upper	amplitud.ttf
837.428	n/a	WORD	418714	wordpools/wasnorm_wordpool.txt	LTP145	ltpFR	8	3	1	TRIANGLE	1504	n/a	n/a	0	n/a	0	0	0	0.422607421875	0.5869140625	0	upper	amplitud.ttf
841.392	n/a	WORD	420696	wordpools/wasnorm_wordpool.txt	LTP145	ltpFR	8	3	1	ANTENNA	28	n/a	n/a	0	n/a	0	0	0	0.422607421875	0.5869140625	0	upper	amplitud.ttf
845.358	n/a	WORD	422679	wordpools/wasnorm_wordpool.txt	LTP145	ltpFR	8	3	1	CHERRY	293	n/a	n/a	0	n/a	0	0	0	0.422607421875	0.5869140625	0	upper	amplitud.ttf
849.516	n/a	WORD	424758	wordpools/wasnorm_wordpool.txt	LTP145	ltpFR	8	3	1	COUNTRY	388	n/a	n/a	0	n/a	0	0	0	0.422607421875	0.5869140625	0	upper	amplitud.ttf
853.69	n/a	WORD	426845	wordpools/wasnorm_wordpool.txt	LTP145	ltpFR	8	3	1	STORE	1387	n/a	n/a	0	n/a	0	0	0	0.422607421875	0.5869140625	0	upper	amplitud.ttf
857.898	n/a	WORD	428949	wordpools/wasnorm_wordpool.txt	LTP145	ltpFR	8	3	1	GROCERY	664	n/a	n/a	0	n/a	0	0	0	0.422607421875	0.5869140625	0	upper	amplitud.ttf
861.938	n/a	WORD	430969	wordpools/wasnorm_wordpool.txt	LTP145	ltpFR	8	3	1	ATTIC	56	n/a	n/a	0	n/a	0	0	0	0.422607421875	0.5869140625	0	upper	amplitud.ttf
866.078	n/a	WORD	433039	wordpools/wasnorm_wordpool.txt	LTP145	ltpFR	8	3	1	MEAL	882	n/a	n/a	0	n/a	0	0	0	0.422607421875	0.5869140625	0	upper	amplitud.ttf
870.26	n/a	WORD	435130	wordpools/wasnorm_wordpool.txt	LTP145	ltpFR	8	3	1	WAITER	1580	n/a	n/a	1	n/a	0	0	0	0.422607421875	0.5869140625	0	upper	amplitud.ttf
875.992	n/a	REC_START	437996	n/a	LTP145	ltpFR	8	3	n/a	n/a	n/a	n/a	n/a	n/a	n/a	0	0	0	n/a	n/a	n/a	n/a	n/a
877.672	n/a	REC_WORD	438836	wordpools/wasnorm_wordpool.txt	LTP145	ltpFR	8	3	1	WAITER	1580	n/a	n/a	1	n/a	0	0	0	n/a	n/a	n/a	n/a	n/a
878.63	n/a	REC_WORD	439315	wordpools/wasnorm_wordpool.txt	LTP145	ltpFR	8	3	1	COMPANION	357	n/a	n/a	1	n/a	0	0	0	n/a	n/a	n/a	n/a	n/a
880.392	n/a	REC_WORD	440196	wordpools/wasnorm_wordpool.txt	LTP145	ltpFR	8	3	1	ATTIC	56	n/a	n/a	0	n/a	0	0	0	n/a	n/a	n/a	n/a	n/a
881.634	n/a	REC_WORD	440817	wordpools/wasnorm_wordpool.txt	LTP145	ltpFR	8	3	1	CHERRY	293	n/a	n/a	0	n/a	0	0	0	n/a	n/a	n/a	n/a	n/a
883.016	n/a	REC_WORD	441508	wordpools/wasnorm_wordpool.txt	LTP145	ltpFR	8	3	1	GROCERY	664	n/a	n/a	0	n/a	0	0	0	n/a	n/a	n/a	n/a	n/a
885.322	n/a	REC_WORD	442661	wordpools/wasnorm_wordpool.txt	LTP145	ltpFR	8	3	1	MEAL	882	n/a	n/a	0	n/a	0	0	0	n/a	n/a	n/a	n/a	n/a
887.91	n/a	REC_WORD	443955	wordpools/wasnorm_wordpool.txt	LTP145	ltpFR	8	3	1	TRIANGLE	1504	n/a	n/a	0	n/a	0	0	0	n/a	n/a	n/a	n/a	n/a
899.0	n/a	REC_WORD	449500	wordpools/wasnorm_wordpool.txt	LTP145	ltpFR	8	3	1	STRANGER	1389	n/a	n/a	1	n/a	0	0	0	n/a	n/a	n/a	n/a	n/a
900.79	n/a	REC_WORD	450395	wordpools/wasnorm_wordpool.txt	LTP145	ltpFR	8	3	1	GUEST	669	n/a	n/a	1	n/a	0	0	0	n/a	n/a	n/a	n/a	n/a
931.264	n/a	REC_WORD	465632	wordpools/wasnorm_wordpool.txt	LTP145	ltpFR	8	3	1	COUNTRY	388	n/a	n/a	0	n/a	0	0	0	n/a	n/a	n/a	n/a	n/a
953.802	n/a	START	476901	n/a	LTP145	ltpFR	8	n/a	n/a	n/a	n/a	n/a	n/a	n/a	n/a	n/a	n/a	n/a	n/a	n/a	n/a	n/a	n/a
955.308	n/a	PROB	477654	n/a	LTP145	ltpFR	8	n/a	n/a	n/a	n/a	n/a	n/a	n/a	19	8	7	4	n/a	n/a	n/a	n/a	n/a
957.86	n/a	PROB	478930	n/a	LTP145	ltpFR	8	n/a	n/a	n/a	n/a	n/a	n/a	n/a	13	8	4	1	n/a	n/a	n/a	n/a	n/a
960.666	n/a	PROB	480333	n/a	LTP145	ltpFR	8	n/a	n/a	n/a	n/a	n/a	n/a	n/a	20	9	3	8	n/a	n/a	n/a	n/a	n/a
963.456	n/a	PROB	481728	n/a	LTP145	ltpFR	8	n/a	n/a	n/a	n/a	n/a	n/a	n/a	15	7	6	2	n/a	n/a	n/a	n/a	n/a
965.314	n/a	PROB	482657	n/a	LTP145	ltpFR	8	n/a	n/a	n/a	n/a	n/a	n/a	n/a	16	3	7	6	n/a	n/a	n/a	n/a	n/a
969.802	n/a	STOP	484901	n/a	LTP145	ltpFR	8	n/a	n/a	n/a	n/a	n/a	n/a	n/a	n/a	n/a	n/a	n/a	n/a	n/a	n/a	n/a	n/a
970.904	n/a	WORD	485452	wordpools/wasnorm_wordpool.txt	LTP145	ltpFR	8	4	1	HANDCUFFS	685	n/a	n/a	0	n/a	0	0	0	0.422607421875	0.5869140625	0	upper	amplitud.ttf
973.912	n/a	START	486956	n/a	LTP145	ltpFR	8	n/a	n/a	n/a	n/a	n/a	n/a	n/a	n/a	n/a	n/a	n/a	n/a	n/a	n/a	n/a	n/a
975.11	n/a	PROB	487555	n/a	LTP145	ltpFR	8	n/a	n/a	n/a	n/a	n/a	n/a	n/a	17	8	6	4	n/a	n/a	n/a	n/a	n/a
977.544	n/a	PROB	488772	n/a	LTP145	ltpFR	8	n/a	n/a	n/a	n/a	n/a	n/a	n/a	14	6	1	7	n/a	n/a	n/a	n/a	n/a
980.452	n/a	PROB	490226	n/a	LTP145	ltpFR	8	n/a	n/a	n/a	n/a	n/a	n/a	n/a	17	4	5	8	n/a	n/a	n/a	n/a	n/a
983.226	n/a	PROB	491613	n/a	LTP145	ltpFR	8	n/a	n/a	n/a	n/a	n/a	n/a	n/a	17	6	4	7	n/a	n/a	n/a	n/a	n/a
985.25	n/a	PROB	492625	n/a	LTP145	ltpFR	8	n/a	n/a	n/a	n/a	n/a	n/a	n/a	13	1	3	9	n/a	n/a	n/a	n/a	n/a
986.9	n/a	PROB	493450	n/a	LTP145	ltpFR	8	n/a	n/a	n/a	n/a	n/a	n/a	n/a	18	9	7	2	n/a	n/a	n/a	n/a	n/a
989.002	n/a	STOP	494501	n/a	LTP145	ltpFR	8	n/a	n/a	n/a	n/a	n/a	n/a	n/a	n/a	n/a	n/a	n/a	n/a	n/a	n/a	n/a	n/a
991.13	n/a	WORD	495565	wordpools/wasnorm_wordpool.txt	LTP145	ltpFR	8	4	1	FUGITIVE	612	n/a	n/a	1	n/a	0	0	0	0.422607421875	0.5869140625	0	upper	amplitud.ttf
994.138	n/a	START	497069	n/a	LTP145	ltpFR	8	n/a	n/a	n/a	n/a	n/a	n/a	n/a	n/a	n/a	n/a	n/a	n/a	n/a	n/a	n/a	n/a
995.088	n/a	PROB	497544	n/a	LTP145	ltpFR	8	n/a	n/a	n/a	n/a	n/a	n/a	n/a	18	5	4	9	n/a	n/a	n/a	n/a	n/a
997.004	n/a	PROB	498502	n/a	LTP145	ltpFR	8	n/a	n/a	n/a	n/a	n/a	n/a	n/a	20	9	8	3	n/a	n/a	n/a	n/a	n/a
999.604	n/a	PROB	499802	n/a	LTP145	ltpFR	8	n/a	n/a	n/a	n/a	n/a	n/a	n/a	21	7	5	9	n/a	n/a	n/a	n/a	n/a
1002.694	n/a	PROB	501347	n/a	LTP145	ltpFR	8	n/a	n/a	n/a	n/a	n/a	n/a	n/a	15	5	6	3	n/a	n/a	n/a	n/a	n/a
1004.444	n/a	PROB	502222	n/a	LTP145	ltpFR	8	n/a	n/a	n/a	n/a	n/a	n/a	n/a	9	5	3	1	n/a	n/a	n/a	n/a	n/a
1006.202	n/a	PROB	503101	n/a	LTP145	ltpFR	8	n/a	n/a	n/a	n/a	n/a	n/a	n/a	15	8	6	1	n/a	n/a	n/a	n/a	n/a
1010.14	n/a	STOP	505070	n/a	LTP145	ltpFR	8	n/a	n/a	n/a	n/a	n/a	n/a	n/a	n/a	n/a	n/a	n/a	n/a	n/a	n/a	n/a	n/a
1011.032	n/a	WORD	505516	wordpools/wasnorm_wordpool.txt	LTP145	ltpFR	8	4	1	MUG	930	n/a	n/a	0	n/a	0	0	0	0.422607421875	0.5869140625	0	upper	amplitud.ttf
1014.042	n/a	START	507021	n/a	LTP145	ltpFR	8	n/a	n/a	n/a	n/a	n/a	n/a	n/a	n/a	n/a	n/a	n/a	n/a	n/a	n/a	n/a	n/a
1015.098	n/a	PROB	507549	n/a	LTP145	ltpFR	8	n/a	n/a	n/a	n/a	n/a	n/a	n/a	17	9	1	7	n/a	n/a	n/a	n/a	n/a
1017.198	n/a	PROB	508599	n/a	LTP145	ltpFR	8	n/a	n/a	n/a	n/a	n/a	n/a	n/a	10	4	1	5	n/a	n/a	n/a	n/a	n/a
1019.214	n/a	PROB	509607	n/a	LTP145	ltpFR	8	n/a	n/a	n/a	n/a	n/a	n/a	n/a	15	1	8	6	n/a	n/a	n/a	n/a	n/a
1020.856	n/a	PROB	510428	n/a	LTP145	ltpFR	8	n/a	n/a	n/a	n/a	n/a	n/a	n/a	8	1	3	4	n/a	n/a	n/a	n/a	n/a
1022.564	n/a	PROB	511282	n/a	LTP145	ltpFR	8	n/a	n/a	n/a	n/a	n/a	n/a	n/a	10	6	3	1	n/a	n/a	n/a	n/a	n/a
1024.554	n/a	PROB	512277	n/a	LTP145	ltpFR	8	n/a	n/a	n/a	n/a	n/a	n/a	n/a	10	7	2	1	n/a	n/a	n/a	n/a	n/a
1026.396	n/a	PROB	513198	n/a	LTP145	ltpFR	8	n/a	n/a	n/a	n/a	n/a	n/a	n/a	20	8	9	3	n/a	n/a	n/a	n/a	n/a
1028.932	n/a	STOP	514466	n/a	LTP145	ltpFR	8	n/a	n/a	n/a	n/a	n/a	n/a	n/a	n/a	n/a	n/a	n/a	n/a	n/a	n/a	n/a	n/a
1031.11	n/a	WORD	515555	wordpools/wasnorm_wordpool.txt	LTP145	ltpFR	8	4	1	STUDENT	1395	n/a	n/a	1	n/a	0	0	0	0.422607421875	0.5869140625	0	upper	amplitud.ttf
1034.118	n/a	START	517059	n/a	LTP145	ltpFR	8	n/a	n/a	n/a	n/a	n/a	n/a	n/a	n/a	n/a	n/a	n/a	n/a	n/a	n/a	n/a	n/a
1035.16	n/a	PROB	517580	n/a	LTP145	ltpFR	8	n/a	n/a	n/a	n/a	n/a	n/a	n/a	16	7	4	5	n/a	n/a	n/a	n/a	n/a
1037.842	n/a	PROB	518921	n/a	LTP145	ltpFR	8	n/a	n/a	n/a	n/a	n/a	n/a	n/a	20	9	6	5	n/a	n/a	n/a	n/a	n/a
1040.032	n/a	PROB	520016	n/a	LTP145	ltpFR	8	n/a	n/a	n/a	n/a	n/a	n/a	n/a	9	5	1	3	n/a	n/a	n/a	n/a	n/a
1042.566	n/a	PROB	521283	n/a	LTP145	ltpFR	8	n/a	n/a	n/a	n/a	n/a	n/a	n/a	16	6	6	4	n/a	n/a	n/a	n/a	n/a
1044.282	n/a	PROB	522141	n/a	LTP145	ltpFR	8	n/a	n/a	n/a	n/a	n/a	n/a	n/a	13	5	2	6	n/a	n/a	n/a	n/a	n/a
1046.622	n/a	PROB	523311	n/a	LTP145	ltpFR	8	n/a	n/a	n/a	n/a	n/a	n/a	n/a	20	3	9	8	n/a	n/a	n/a	n/a	n/a
1048.676	n/a	STOP	524338	n/a	LTP145	ltpFR	8	n/a	n/a	n/a	n/a	n/a	n/a	n/a	n/a	n/a	n/a	n/a	n/a	n/a	n/a	n/a	n/a
1051.104	n/a	WORD	525552	wordpools/wasnorm_wordpool.txt	LTP145	ltpFR	8	4	1	VINEGAR	1569	n/a	n/a	0	n/a	0	0	0	0.422607421875	0.5869140625	0	upper	amplitud.ttf
1054.112	n/a	START	527056	n/a	LTP145	ltpFR	8	n/a	n/a	n/a	n/a	n/a	n/a	n/a	n/a	n/a	n/a	n/a	n/a	n/a	n/a	n/a	n/a
1055.112	n/a	PROB	527556	n/a	LTP145	ltpFR	8	n/a	n/a	n/a	n/a	n/a	n/a	n/a	5	2	2	1	n/a	n/a	n/a	n/a	n/a
1056.42	n/a	PROB	528210	n/a	LTP145	ltpFR	8	n/a	n/a	n/a	n/a	n/a	n/a	n/a	14	4	4	6	n/a	n/a	n/a	n/a	n/a
1057.986	n/a	PROB	528993	n/a	LTP145	ltpFR	8	n/a	n/a	n/a	n/a	n/a	n/a	n/a	12	6	5	1	n/a	n/a	n/a	n/a	n/a
1059.576	n/a	PROB	529788	n/a	LTP145	ltpFR	8	n/a	n/a	n/a	n/a	n/a	n/a	n/a	20	6	8	6	n/a	n/a	n/a	n/a	n/a
1061.652	n/a	PROB	530826	n/a	LTP145	ltpFR	8	n/a	n/a	n/a	n/a	n/a	n/a	n/a	15	4	6	5	n/a	n/a	n/a	n/a	n/a
1063.218	n/a	PROB	531609	n/a	LTP145	ltpFR	8	n/a	n/a	n/a	n/a	n/a	n/a	n/a	17	9	6	2	n/a	n/a	n/a	n/a	n/a
1066.274	n/a	PROB	533137	n/a	LTP145	ltpFR	8	n/a	n/a	n/a	n/a	n/a	n/a	n/a	13	7	4	2	n/a	n/a	n/a	n/a	n/a
1069.438	n/a	STOP	534719	n/a	LTP145	ltpFR	8	n/a	n/a	n/a	n/a	n/a	n/a	n/a	n/a	n/a	n/a	n/a	n/a	n/a	n/a	n/a	n/a
1071.082	n/a	WORD	535541	wordpools/wasnorm_wordpool.txt	LTP145	ltpFR	8	4	1	GANGSTER	620	n/a	n/a	1	n/a	0	0	0	0.422607421875	0.5869140625	0	upper	amplitud.ttf
1074.09	n/a	START	537045	n/a	LTP145	ltpFR	8	n/a	n/a	n/a	n/a	n/a	n/a	n/a	n/a	n/a	n/a	n/a	n/a	n/a	n/a	n/a	n/a
1075.248	n/a	PROB	537624	n/a	LTP145	ltpFR	8	n/a	n/a	n/a	n/a	n/a	n/a	n/a	10	2	4	4	n/a	n/a	n/a	n/a	n/a
1077.254	n/a	PROB	538627	n/a	LTP145	ltpFR	8	n/a	n/a	n/a	n/a	n/a	n/a	n/a	12	4	6	2	n/a	n/a	n/a	n/a	n/a
1079.412	n/a	PROB	539706	n/a	LTP145	ltpFR	8	n/a	n/a	n/a	n/a	n/a	n/a	n/a	19	9	3	7	n/a	n/a	n/a	n/a	n/a
1080.996	n/a	PROB	540498	n/a	LTP145	ltpFR	8	n/a	n/a	n/a	n/a	n/a	n/a	n/a	19	1	9	9	n/a	n/a	n/a	n/a	n/a
1083.052	n/a	PROB	541526	n/a	LTP145	ltpFR	8	n/a	n/a	n/a	n/a	n/a	n/a	n/a	9	1	6	2	n/a	n/a	n/a	n/a	n/a
1085.044	n/a	PROB	542522	n/a	LTP145	ltpFR	8	n/a	n/a	n/a	n/a	n/a	n/a	n/a	21	6	9	6	n/a	n/a	n/a	n/a	n/a
1087.652	n/a	PROB	543826	n/a	LTP145	ltpFR	8	n/a	n/a	n/a	n/a	n/a	n/a	n/a	15	2	8	5	n/a	n/a	n/a	n/a	n/a
1089.752	n/a	STOP	544876	n/a	LTP145	ltpFR	8	n/a	n/a	n/a	n/a	n/a	n/a	n/a	n/a	n/a	n/a	n/a	n/a	n/a	n/a	n/a	n/a
1091.21	n/a	WORD	545605	wordpools/wasnorm_wordpool.txt	LTP145	ltpFR	8	4	1	WHEEL	1603	n/a	n/a	0	n/a	0	0	0	0.422607421875	0.5869140625	0	upper	amplitud.ttf
1094.216	n/a	START	547108	n/a	LTP145	ltpFR	8	n/a	n/a	n/a	n/a	n/a	n/a	n/a	n/a	n/a	n/a	n/a	n/a	n/a	n/a	n/a	n/a
1095.158	n/a	PROB	547579	n/a	LTP145	ltpFR	8	n/a	n/a	n/a	n/a	n/a	n/a	n/a	21	6	6	9	n/a	n/a	n/a	n/a	n/a
1097.424	n/a	PROB	548712	n/a	LTP145	ltpFR	8	n/a	n/a	n/a	n/a	n/a	n/a	n/a	13	1	9	3	n/a	n/a	n/a	n/a	n/a
1099.572	n/a	PROB	549786	n/a	LTP145	ltpFR	8	n/a	n/a	n/a	n/a	n/a	n/a	n/a	21	8	8	5	n/a	n/a	n/a	n/a	n/a
1101.348	n/a	PROB	550674	n/a	LTP145	ltpFR	8	n/a	n/a	n/a	n/a	n/a	n/a	n/a	13	2	6	5	n/a	n/a	n/a	n/a	n/a
1103.864	n/a	PROB	551932	n/a	LTP145	ltpFR	8	n/a	n/a	n/a	n/a	n/a	n/a	n/a	16	1	7	8	n/a	n/a	n/a	n/a	n/a
1105.938	n/a	PROB	552969	n/a	LTP145	ltpFR	8	n/a	n/a	n/a	n/a	n/a	n/a	n/a	21	8	5	8	n/a	n/a	n/a	n/a	n/a
1108.68	n/a	STOP	554340	n/a	LTP145	ltpFR	8	n/a	n/a	n/a	n/a	n/a	n/a	n/a	n/a	n/a	n/a	n/a	n/a	n/a	n/a	n/a	n/a
1111.204	n/a	WORD	555602	wordpools/wasnorm_wordpool.txt	LTP145	ltpFR	8	4	1	AIRPORT	13	n/a	n/a	0	n/a	0	0	0	0.422607421875	0.5869140625	0	upper	amplitud.ttf
1114.21	n/a	START	557105	n/a	LTP145	ltpFR	8	n/a	n/a	n/a	n/a	n/a	n/a	n/a	n/a	n/a	n/a	n/a	n/a	n/a	n/a	n/a	n/a
1115.018	n/a	PROB	557509	n/a	LTP145	ltpFR	8	n/a	n/a	n/a	n/a	n/a	n/a	n/a	19	2	9	8	n/a	n/a	n/a	n/a	n/a
1117.776	n/a	PROB	558888	n/a	LTP145	ltpFR	8	n/a	n/a	n/a	n/a	n/a	n/a	n/a	14	4	3	7	n/a	n/a	n/a	n/a	n/a
1119.6	n/a	PROB	559800	n/a	LTP145	ltpFR	8	n/a	n/a	n/a	n/a	n/a	n/a	n/a	14	6	6	2	n/a	n/a	n/a	n/a	n/a
1121.482	n/a	PROB	560741	n/a	LTP145	ltpFR	8	n/a	n/a	n/a	n/a	n/a	n/a	n/a	8	6	1	1	n/a	n/a	n/a	n/a	n/a
1123.716	n/a	PROB	561858	n/a	LTP145	ltpFR	8	n/a	n/a	n/a	n/a	n/a	n/a	n/a	23	8	7	8	n/a	n/a	n/a	n/a	n/a
1127.532	n/a	PROB	563766	n/a	LTP145	ltpFR	8	n/a	n/a	n/a	n/a	n/a	n/a	n/a	17	5	5	7	n/a	n/a	n/a	n/a	n/a
1129.13	n/a	STOP	564565	n/a	LTP145	ltpFR	8	n/a	n/a	n/a	n/a	n/a	n/a	n/a	n/a	n/a	n/a	n/a	n/a	n/a	n/a	n/a	n/a
1131.256	n/a	WORD	565628	wordpools/wasnorm_wordpool.txt	LTP145	ltpFR	8	4	1	TERMINAL	1450	n/a	n/a	0	n/a	0	0	0	0.422607421875	0.5869140625	0	upper	amplitud.ttf
1134.262	n/a	START	567131	n/a	LTP145	ltpFR	8	n/a	n/a	n/a	n/a	n/a	n/a	n/a	n/a	n/a	n/a	n/a	n/a	n/a	n/a	n/a	n/a
1135.262	n/a	PROB	567631	n/a	LTP145	ltpFR	8	n/a	n/a	n/a	n/a	n/a	n/a	n/a	13	2	4	7	n/a	n/a	n/a	n/a	n/a
1137.394	n/a	PROB	568697	n/a	LTP145	ltpFR	8	n/a	n/a	n/a	n/a	n/a	n/a	n/a	23	7	8	8	n/a	n/a	n/a	n/a	n/a
1140.144	n/a	PROB	570072	n/a	LTP145	ltpFR	8	n/a	n/a	n/a	n/a	n/a	n/a	n/a	17	9	1	7	n/a	n/a	n/a	n/a	n/a
1142.076	n/a	PROB	571038	n/a	LTP145	ltpFR	8	n/a	n/a	n/a	n/a	n/a	n/a	n/a	11	2	1	8	n/a	n/a	n/a	n/a	n/a
1143.752	n/a	PROB	571876	n/a	LTP145	ltpFR	8	n/a	n/a	n/a	n/a	n/a	n/a	n/a	17	8	6	3	n/a	n/a	n/a	n/a	n/a
1146.65	n/a	PROB	573325	n/a	LTP145	ltpFR	8	n/a	n/a	n/a	n/a	n/a	n/a	n/a	19	6	7	6	n/a	n/a	n/a	n/a	n/a
1149.138	n/a	STOP	574569	n/a	LTP145	ltpFR	8	n/a	n/a	n/a	n/a	n/a	n/a	n/a	n/a	n/a	n/a	n/a	n/a	n/a	n/a	n/a	n/a
1151.3	n/a	WORD	575650	wordpools/wasnorm_wordpool.txt	LTP145	ltpFR	8	4	1	FIGHTER	564	n/a	n/a	0	n/a	0	0	0	0.422607421875	0.5869140625	0	upper	amplitud.ttf
1154.306	n/a	START	577153	n/a	LTP145	ltpFR	8	n/a	n/a	n/a	n/a	n/a	n/a	n/a	n/a	n/a	n/a	n/a	n/a	n/a	n/a	n/a	n/a
1155.49	n/a	PROB	577745	n/a	LTP145	ltpFR	8	n/a	n/a	n/a	n/a	n/a	n/a	n/a	19	3	8	8	n/a	n/a	n/a	n/a	n/a
1157.572	n/a	PROB	578786	n/a	LTP145	ltpFR	8	n/a	n/a	n/a	n/a	n/a	n/a	n/a	12	2	6	4	n/a	n/a	n/a	n/a	n/a
1159.004	n/a	PROB	579502	n/a	LTP145	ltpFR	8	n/a	n/a	n/a	n/a	n/a	n/a	n/a	14	1	8	5	n/a	n/a	n/a	n/a	n/a
1161.178	n/a	PROB	580589	n/a	LTP145	ltpFR	8	n/a	n/a	n/a	n/a	n/a	n/a	n/a	19	5	7	7	n/a	n/a	n/a	n/a	n/a
1163.444	n/a	PROB	581722	n/a	LTP145	ltpFR	8	n/a	n/a	n/a	n/a	n/a	n/a	n/a	17	1	7	9	n/a	n/a	n/a	n/a	n/a
1166.136	n/a	PROB	583068	n/a	LTP145	ltpFR	8	n/a	n/a	n/a	n/a	n/a	n/a	n/a	15	4	5	6	n/a	n/a	n/a	n/a	n/a
1167.936	n/a	PROB	583968	n/a	LTP145	ltpFR	8	n/a	n/a	n/a	n/a	n/a	n/a	n/a	8	3	4	1	n/a	n/a	n/a	n/a	n/a
1169.588	n/a	STOP	584794	n/a	LTP145	ltpFR	8	n/a	n/a	n/a	n/a	n/a	n/a	n/a	n/a	n/a	n/a	n/a	n/a	n/a	n/a	n/a	n/a
1171.284	n/a	WORD	585642	wordpools/wasnorm_wordpool.txt	LTP145	ltpFR	8	4	1	NAVIGATOR	938	n/a	n/a	1	n/a	0	0	0	0.422607421875	0.5869140625	0	upper	amplitud.ttf
1174.292	n/a	START	587146	n/a	LTP145	ltpFR	8	n/a	n/a	n/a	n/a	n/a	n/a	n/a	n/a	n/a	n/a	n/a	n/a	n/a	n/a	n/a	n/a
1175.142	n/a	PROB	587571	n/a	LTP145	ltpFR	8	n/a	n/a	n/a	n/a	n/a	n/a	n/a	10	7	2	1	n/a	n/a	n/a	n/a	n/a
1176.942	n/a	PROB	588471	n/a	LTP145	ltpFR	8	n/a	n/a	n/a	n/a	n/a	n/a	n/a	15	8	2	5	n/a	n/a	n/a	n/a	n/a
1179.074	n/a	PROB	589537	n/a	LTP145	ltpFR	8	n/a	n/a	n/a	n/a	n/a	n/a	n/a	21	7	8	6	n/a	n/a	n/a	n/a	n/a
1182.998	n/a	PROB	591499	n/a	LTP145	ltpFR	8	n/a	n/a	n/a	n/a	n/a	n/a	n/a	17	5	9	3	n/a	n/a	n/a	n/a	n/a
1185.456	n/a	PROB	592728	n/a	LTP145	ltpFR	8	n/a	n/a	n/a	n/a	n/a	n/a	n/a	15	5	3	7	n/a	n/a	n/a	n/a	n/a
1186.98	n/a	PROB	593490	n/a	LTP145	ltpFR	8	n/a	n/a	n/a	n/a	n/a	n/a	n/a	19	9	6	4	n/a	n/a	n/a	n/a	n/a
1190.294	n/a	STOP	595147	n/a	LTP145	ltpFR	8	n/a	n/a	n/a	n/a	n/a	n/a	n/a	n/a	n/a	n/a	n/a	n/a	n/a	n/a	n/a	n/a
1191.412	n/a	WORD	595706	wordpools/wasnorm_wordpool.txt	LTP145	ltpFR	8	4	1	MOTOR	922	n/a	n/a	0	n/a	0	0	0	0.422607421875	0.5869140625	0	upper	amplitud.ttf
1194.42	n/a	START	597210	n/a	LTP145	ltpFR	8	n/a	n/a	n/a	n/a	n/a	n/a	n/a	n/a	n/a	n/a	n/a	n/a	n/a	n/a	n/a	n/a
1195.544	n/a	PROB	597772	n/a	LTP145	ltpFR	8	n/a	n/a	n/a	n/a	n/a	n/a	n/a	14	2	9	3	n/a	n/a	n/a	n/a	n/a
1198.234	n/a	PROB	599117	n/a	LTP145	ltpFR	8	n/a	n/a	n/a	n/a	n/a	n/a	n/a	10	5	3	2	n/a	n/a	n/a	n/a	n/a
1200.492	n/a	PROB	600246	n/a	LTP145	ltpFR	8	n/a	n/a	n/a	n/a	n/a	n/a	n/a	22	6	9	7	n/a	n/a	n/a	n/a	n/a
1203.424	n/a	PROB	601712	n/a	LTP145	ltpFR	8	n/a	n/a	n/a	n/a	n/a	n/a	n/a	17	8	3	6	n/a	n/a	n/a	n/a	n/a
1206.282	n/a	PROB	603141	n/a	LTP145	ltpFR	8	n/a	n/a	n/a	n/a	n/a	n/a	n/a	13	1	4	8	n/a	n/a	n/a	n/a	n/a
1208.706	n/a	PROB	604353	n/a	LTP145	ltpFR	8	n/a	n/a	n/a	n/a	n/a	n/a	n/a	14	6	2	6	n/a	n/a	n/a	n/a	n/a
1210.318	n/a	STOP	605159	n/a	LTP145	ltpFR	8	n/a	n/a	n/a	n/a	n/a	n/a	n/a	n/a	n/a	n/a	n/a	n/a	n/a	n/a	n/a	n/a
1211.506	n/a	WORD	605753	wordpools/wasnorm_wordpool.txt	LTP145	ltpFR	8	4	1	DESSERT	453	n/a	n/a	0	n/a	0	0	0	0.422607421875	0.5869140625	0	upper	amplitud.ttf
1214.514	n/a	START	607257	n/a	LTP145	ltpFR	8	n/a	n/a	n/a	n/a	n/a	n/a	n/a	n/a	n/a	n/a	n/a	n/a	n/a	n/a	n/a	n/a
1215.68	n/a	PROB	607840	n/a	LTP145	ltpFR	8	n/a	n/a	n/a	n/a	n/a	n/a	n/a	14	3	8	3	n/a	n/a	n/a	n/a	n/a
1218.812	n/a	PROB	609406	n/a	LTP145	ltpFR	8	n/a	n/a	n/a	n/a	n/a	n/a	n/a	20	7	8	5	n/a	n/a	n/a	n/a	n/a
1221.302	n/a	PROB	610651	n/a	LTP145	ltpFR	8	n/a	n/a	n/a	n/a	n/a	n/a	n/a	21	3	5	3	n/a	n/a	n/a	n/a	n/a
1223.594	n/a	PROB	611797	n/a	LTP145	ltpFR	8	n/a	n/a	n/a	n/a	n/a	n/a	n/a	16	2	6	8	n/a	n/a	n/a	n/a	n/a
1226.684	n/a	PROB	613342	n/a	LTP145	ltpFR	8	n/a	n/a	n/a	n/a	n/a	n/a	n/a	18	9	5	4	n/a	n/a	n/a	n/a	n/a
1230.514	n/a	STOP	615257	n/a	LTP145	ltpFR	8	n/a	n/a	n/a	n/a	n/a	n/a	n/a	n/a	n/a	n/a	n/a	n/a	n/a	n/a	n/a	n/a
1231.566	n/a	WORD	615783	wordpools/wasnorm_wordpool.txt	LTP145	ltpFR	8	4	1	PUDDLE	1140	n/a	n/a	0	n/a	0	0	0	0.422607421875	0.5869140625	0	upper	amplitud.ttf
1234.574	n/a	START	617287	n/a	LTP145	ltpFR	8	n/a	n/a	n/a	n/a	n/a	n/a	n/a	n/a	n/a	n/a	n/a	n/a	n/a	n/a	n/a	n/a
1235.432	n/a	PROB	617716	n/a	LTP145	ltpFR	8	n/a	n/a	n/a	n/a	n/a	n/a	n/a	15	8	6	1	n/a	n/a	n/a	n/a	n/a
1237.09	n/a	PROB	618545	n/a	LTP145	ltpFR	8	n/a	n/a	n/a	n/a	n/a	n/a	n/a	16	5	5	6	n/a	n/a	n/a	n/a	n/a
1238.664	n/a	PROB	619332	n/a	LTP145	ltpFR	8	n/a	n/a	n/a	n/a	n/a	n/a	n/a	11	1	9	1	n/a	n/a	n/a	n/a	n/a
1240.172	n/a	PROB	620086	n/a	LTP145	ltpFR	8	n/a	n/a	n/a	n/a	n/a	n/a	n/a	12	4	1	7	n/a	n/a	n/a	n/a	n/a
1242.346	n/a	PROB	621173	n/a	LTP145	ltpFR	8	n/a	n/a	n/a	n/a	n/a	n/a	n/a	23	6	9	8	n/a	n/a	n/a	n/a	n/a
1247.036	n/a	PROB	623518	n/a	LTP145	ltpFR	8	n/a	n/a	n/a	n/a	n/a	n/a	n/a	15	5	3	7	n/a	n/a	n/a	n/a	n/a
1248.544	n/a	PROB	624272	n/a	LTP145	ltpFR	8	n/a	n/a	n/a	n/a	n/a	n/a	n/a	20	7	8	5	n/a	n/a	n/a	n/a	n/a
1250.544	n/a	STOP	625272	n/a	LTP145	ltpFR	8	n/a	n/a	n/a	n/a	n/a	n/a	n/a	n/a	n/a	n/a	n/a	n/a	n/a	n/a	n/a	n/a
1251.394	n/a	WORD	625697	wordpools/wasnorm_wordpool.txt	LTP145	ltpFR	8	4	1	TRUMPET	1513	n/a	n/a	0	n/a	0	0	0	0.422607421875	0.5869140625	0	upper	amplitud.ttf
1254.402	n/a	START	627201	n/a	LTP145	ltpFR	8	n/a	n/a	n/a	n/a	n/a	n/a	n/a	n/a	n/a	n/a	n/a	n/a	n/a	n/a	n/a	n/a
1255.284	n/a	PROB	627642	n/a	LTP145	ltpFR	8	n/a	n/a	n/a	n/a	n/a	n/a	n/a	8	4	1	3	n/a	n/a	n/a	n/a	n/a
1257.334	n/a	PROB	628667	n/a	LTP145	ltpFR	8	n/a	n/a	n/a	n/a	n/a	n/a	n/a	3	1	1	1	n/a	n/a	n/a	n/a	n/a
1258.858	n/a	PROB	629429	n/a	LTP145	ltpFR	8	n/a	n/a	n/a	n/a	n/a	n/a	n/a	21	5	9	7	n/a	n/a	n/a	n/a	n/a
1260.716	n/a	PROB	630358	n/a	LTP145	ltpFR	8	n/a	n/a	n/a	n/a	n/a	n/a	n/a	14	5	4	5	n/a	n/a	n/a	n/a	n/a
1262.508	n/a	PROB	631254	n/a	LTP145	ltpFR	8	n/a	n/a	n/a	n/a	n/a	n/a	n/a	8	6	1	1	n/a	n/a	n/a	n/a	n/a
1263.94	n/a	PROB	631970	n/a	LTP145	ltpFR	8	n/a	n/a	n/a	n/a	n/a	n/a	n/a	12	3	8	1	n/a	n/a	n/a	n/a	n/a
1267.338	n/a	PROB	633669	n/a	LTP145	ltpFR	8	n/a	n/a	n/a	n/a	n/a	n/a	n/a	18	9	5	4	n/a	n/a	n/a	n/a	n/a
1269.384	n/a	STOP	634692	n/a	LTP145	ltpFR	8	n/a	n/a	n/a	n/a	n/a	n/a	n/a	n/a	n/a	n/a	n/a	n/a	n/a	n/a	n/a	n/a
1271.528	n/a	WORD	635764	wordpools/wasnorm_wordpool.txt	LTP145	ltpFR	8	4	1	PIE	1062	n/a	n/a	0	n/a	0	0	0	0.422607421875	0.5869140625	0	upper	amplitud.ttf
1274.536	n/a	START	637268	n/a	LTP145	ltpFR	8	n/a	n/a	n/a	n/a	n/a	n/a	n/a	n/a	n/a	n/a	n/a	n/a	n/a	n/a	n/a	n/a
1275.444	n/a	PROB	637722	n/a	LTP145	ltpFR	8	n/a	n/a	n/a	n/a	n/a	n/a	n/a	16	7	3	6	n/a	n/a	n/a	n/a	n/a
1277.544	n/a	PROB	638772	n/a	LTP145	ltpFR	8	n/a	n/a	n/a	n/a	n/a	n/a	n/a	21	3	9	9	n/a	n/a	n/a	n/a	n/a
1281.202	n/a	PROB	640601	n/a	LTP145	ltpFR	8	n/a	n/a	n/a	n/a	n/a	n/a	n/a	13	2	7	4	n/a	n/a	n/a	n/a	n/a
1283.95	n/a	PROB	641975	n/a	LTP145	ltpFR	8	n/a	n/a	n/a	n/a	n/a	n/a	n/a	12	9	2	1	n/a	n/a	n/a	n/a	n/a
1285.634	n/a	PROB	642817	n/a	LTP145	ltpFR	8	n/a	n/a	n/a	n/a	n/a	n/a	n/a	18	4	8	6	n/a	n/a	n/a	n/a	n/a
1287.324	n/a	PROB	643662	n/a	LTP145	ltpFR	8	n/a	n/a	n/a	n/a	n/a	n/a	n/a	15	8	4	3	n/a	n/a	n/a	n/a	n/a
1290.042	n/a	STOP	645021	n/a	LTP145	ltpFR	8	n/a	n/a	n/a	n/a	n/a	n/a	n/a	n/a	n/a	n/a	n/a	n/a	n/a	n/a	n/a	n/a
1292.306	n/a	REC_START	646153	n/a	LTP145	ltpFR	8	4	n/a	n/a	n/a	n/a	n/a	n/a	n/a	0	0	0	n/a	n/a	n/a	n/a	n/a
1294.526	n/a	REC_WORD	647263	wordpools/wasnorm_wordpool.txt	LTP145	ltpFR	8	4	1	PIE	1062	n/a	n/a	0	n/a	0	0	0	n/a	n/a	n/a	n/a	n/a
1296.012	n/a	REC_WORD	648006	wordpools/wasnorm_wordpool.txt	LTP145	ltpFR	8	4	1	WHEEL	1603	n/a	n/a	0	n/a	0	0	0	n/a	n/a	n/a	n/a	n/a
1300.02	n/a	REC_WORD	650010	wordpools/wasnorm_wordpool.txt	LTP145	ltpFR	8	4	1	AIRPORT	13	n/a	n/a	0	n/a	0	0	0	n/a	n/a	n/a	n/a	n/a
1332.96	n/a	REC_WORD	666480	wordpools/wasnorm_wordpool.txt	LTP145	ltpFR	8	4	1	FUGITIVE	612	n/a	n/a	1	n/a	0	0	0	n/a	n/a	n/a	n/a	n/a
1339.078	n/a	REC_WORD	669539	wordpools/wasnorm_wordpool.txt	LTP145	ltpFR	8	4	n/a	CONDUCTOR	362	n/a	n/a	n/a	n/a	0	0	0	n/a	n/a	n/a	n/a	n/a
1359.638	n/a	REC_WORD	679819	wordpools/wasnorm_wordpool.txt	LTP145	ltpFR	8	4	1	PUDDLE	1140	n/a	n/a	0	n/a	0	0	0	n/a	n/a	n/a	n/a	n/a
1370.766	n/a	WORD	685383	wordpools/wasnorm_wordpool.txt	LTP145	ltpFR	8	5	0	ANTEATER	26	n/a	n/a	0	n/a	0	0	0	0.57763671875	0.412841796875	1	lower	zerothre.ttf
1374.932	n/a	WORD	687466	wordpools/wasnorm_wordpool.txt	LTP145	ltpFR	8	5	0	BROOK	177	n/a	n/a	0	n/a	0	0	0	0.57763671875	0.412841796875	1	lower	zerothre.ttf
1379.064	n/a	WORD	689532	wordpools/wasnorm_wordpool.txt	LTP145	ltpFR	8	5	0	REEF	1177	n/a	n/a	1	n/a	0	0	0	0.57763671875	0.412841796875	1	lower	zerothre.ttf
1383.028	n/a	WORD	691514	wordpools/wasnorm_wordpool.txt	LTP145	ltpFR	8	5	0	QUILL	1150	n/a	n/a	0	n/a	0	0	0	0.57763671875	0.412841796875	1	lower	zerothre.ttf
1387.126	n/a	WORD	693563	wordpools/wasnorm_wordpool.txt	LTP145	ltpFR	8	5	0	SKETCH	1315	n/a	n/a	0	n/a	0	0	0	0.57763671875	0.412841796875	1	lower	zerothre.ttf
1391.208	n/a	WORD	695604	wordpools/wasnorm_wordpool.txt	LTP145	ltpFR	8	5	0	HOSE	720	n/a	n/a	0	n/a	0	0	0	0.57763671875	0.412841796875	1	lower	zerothre.ttf
1395.134	n/a	WORD	697567	wordpools/wasnorm_wordpool.txt	LTP145	ltpFR	8	5	0	SEAL	1262	n/a	n/a	1	n/a	0	0	0	0.57763671875	0.412841796875	1	lower	zerothre.ttf
1399.116	n/a	WORD	699558	wordpools/wasnorm_wordpool.txt	LTP145	ltpFR	8	5	0	CHECKERS	285	n/a	n/a	0	n/a	0	0	0	0.57763671875	0.412841796875	1	lower	zerothre.ttf
1403.114	n/a	WORD	701557	wordpools/wasnorm_wordpool.txt	LTP145	ltpFR	8	5	0	JUG	762	n/a	n/a	0	n/a	0	0	0	0.57763671875	0.412841796875	1	lower	zerothre.ttf
1407.08	n/a	WORD	703540	wordpools/wasnorm_wordpool.txt	LTP145	ltpFR	8	5	0	WATER	1594	n/a	n/a	0	n/a	0	0	0	0.57763671875	0.412841796875	1	lower	zerothre.ttf
1411.12	n/a	WORD	705560	wordpools/wasnorm_wordpool.txt	LTP145	ltpFR	8	5	0	LAWN	805	n/a	n/a	1	n/a	0	0	0	0.57763671875	0.412841796875	1	lower	zerothre.ttf
1415.152	n/a	WORD	707576	wordpools/wasnorm_wordpool.txt	LTP145	ltpFR	8	5	0	CHISEL	305	n/a	n/a	0	n/a	0	0	0	0.57763671875	0.412841796875	1	lower	zerothre.ttf
1419.2	n/a	WORD	709600	wordpools/wasnorm_wordpool.txt	LTP145	ltpFR	8	5	0	BEE	112	n/a	n/a	0	n/a	0	0	0	0.57763671875	0.412841796875	1	lower	zerothre.ttf
1423.132	n/a	WORD	711566	wordpools/wasnorm_wordpool.txt	LTP145	ltpFR	8	5	0	BLACKBOARD	133	n/a	n/a	1	n/a	0	0	0	0.57763671875	0.412841796875	1	lower	zerothre.ttf
1427.29	n/a	WORD	713645	wordpools/wasnorm_wordpool.txt	LTP145	ltpFR	8	5	0	SUPERVISOR	1410	n/a	n/a	1	n/a	0	0	0	0.57763671875	0.412841796875	1	lower	zerothre.ttf
1431.222	n/a	WORD	715611	wordpools/wasnorm_wordpool.txt	LTP145	ltpFR	8	5	0	HONEY	713	n/a	n/a	0	n/a	0	0	0	0.57763671875	0.412841796875	1	lower	zerothre.ttf
1434.23	n/a	START	717115	n/a	LTP145	ltpFR	8	n/a	n/a	n/a	n/a	n/a	n/a	n/a	n/a	n/a	n/a	n/a	n/a	n/a	n/a	n/a	n/a
1435.046	n/a	PROB	717523	n/a	LTP145	ltpFR	8	n/a	n/a	n/a	n/a	n/a	n/a	n/a	19	8	6	5	n/a	n/a	n/a	n/a	n/a
1437.796	n/a	PROB	718898	n/a	LTP145	ltpFR	8	n/a	n/a	n/a	n/a	n/a	n/a	n/a	12	5	1	6	n/a	n/a	n/a	n/a	n/a
1439.636	n/a	PROB	719818	n/a	LTP145	ltpFR	8	n/a	n/a	n/a	n/a	n/a	n/a	n/a	15	6	7	2	n/a	n/a	n/a	n/a	n/a
1441.554	n/a	STOP	720777	n/a	LTP145	ltpFR	8	n/a	n/a	n/a	n/a	n/a	n/a	n/a	n/a	n/a	n/a	n/a	n/a	n/a	n/a	n/a	n/a
1444.086	n/a	REC_START	722043	n/a	LTP145	ltpFR	8	5	n/a	n/a	n/a	n/a	n/a	n/a	n/a	0	0	0	n/a	n/a	n/a	n/a	n/a
1445.976	n/a	REC_WORD	722988	wordpools/wasnorm_wordpool.txt	LTP145	ltpFR	8	5	0	CHISEL	305	n/a	n/a	0	n/a	0	0	0	n/a	n/a	n/a	n/a	n/a
1455.66	n/a	REC_WORD	727830	wordpools/wasnorm_wordpool.txt	LTP145	ltpFR	8	5	0	WATER	1594	n/a	n/a	0	n/a	0	0	0	n/a	n/a	n/a	n/a	n/a
1457.222	n/a	REC_WORD	728611	wordpools/wasnorm_wordpool.txt	LTP145	ltpFR	8	5	0	REEF	1177	n/a	n/a	1	n/a	0	0	0	n/a	n/a	n/a	n/a	n/a
1458.802	n/a	REC_WORD	729401	wordpools/wasnorm_wordpool.txt	LTP145	ltpFR	8	5	0	SEAL	1262	n/a	n/a	1	n/a	0	0	0	n/a	n/a	n/a	n/a	n/a
1460.604	n/a	REC_WORD	730302	wordpools/wasnorm_wordpool.txt	LTP145	ltpFR	8	5	0	ANTEATER	26	n/a	n/a	0	n/a	0	0	0	n/a	n/a	n/a	n/a	n/a
1462.708	n/a	REC_WORD	731354	wordpools/wasnorm_wordpool.txt	LTP145	ltpFR	8	5	0	LAWN	805	n/a	n/a	1	n/a	0	0	0	n/a	n/a	n/a	n/a	n/a
1469.348	n/a	REC_WORD	734674	wordpools/wasnorm_wordpool.txt	LTP145	ltpFR	8	5	0	HOSE	720	n/a	n/a	0	n/a	0	0	0	n/a	n/a	n/a	n/a	n/a
1491.784	n/a	REC_WORD	745892	wordpools/wasnorm_wordpool.txt	LTP145	ltpFR	8	5	0	BLACKBOARD	133	n/a	n/a	1	n/a	0	0	0	n/a	n/a	n/a	n/a	n/a
1505.25	n/a	REC_WORD	752625	wordpools/wasnorm_wordpool.txt	LTP145	ltpFR	8	5	0	CHECKERS	285	n/a	n/a	0	n/a	0	0	0	n/a	n/a	n/a	n/a	n/a
1509.496	n/a	REC_WORD	754748	wordpools/wasnorm_wordpool.txt	LTP145	ltpFR	8	5	0	JUG	762	n/a	n/a	0	n/a	0	0	0	n/a	n/a	n/a	n/a	n/a
1522.194	n/a	START	761097	n/a	LTP145	ltpFR	8	n/a	n/a	n/a	n/a	n/a	n/a	n/a	n/a	n/a	n/a	n/a	n/a	n/a	n/a	n/a	n/a
1523.702	n/a	PROB	761851	n/a	LTP145	ltpFR	8	n/a	n/a	n/a	n/a	n/a	n/a	n/a	20	4	7	9	n/a	n/a	n/a	n/a	n/a
1528.144	n/a	PROB	764072	n/a	LTP145	ltpFR	8	n/a	n/a	n/a	n/a	n/a	n/a	n/a	16	7	8	1	n/a	n/a	n/a	n/a	n/a
1529.784	n/a	STOP	764892	n/a	LTP145	ltpFR	8	n/a	n/a	n/a	n/a	n/a	n/a	n/a	n/a	n/a	n/a	n/a	n/a	n/a	n/a	n/a	n/a
1531.034	n/a	WORD	765517	wordpools/wasnorm_wordpool.txt	LTP145	ltpFR	8	6	0	NITROGEN	954	n/a	n/a	0	n/a	0	0	0	0.57763671875	0.412841796875	1	lower	zerothre.ttf
1534.042	n/a	START	767021	n/a	LTP145	ltpFR	8	n/a	n/a	n/a	n/a	n/a	n/a	n/a	n/a	n/a	n/a	n/a	n/a	n/a	n/a	n/a	n/a
1535.224	n/a	PROB	767612	n/a	LTP145	ltpFR	8	n/a	n/a	n/a	n/a	n/a	n/a	n/a	20	8	3	9	n/a	n/a	n/a	n/a	n/a
1537.49	n/a	PROB	768745	n/a	LTP145	ltpFR	8	n/a	n/a	n/a	n/a	n/a	n/a	n/a	18	7	4	7	n/a	n/a	n/a	n/a	n/a
1539.314	n/a	PROB	769657	n/a	LTP145	ltpFR	8	n/a	n/a	n/a	n/a	n/a	n/a	n/a	18	8	8	2	n/a	n/a	n/a	n/a	n/a
1541.158	n/a	STOP	770579	n/a	LTP145	ltpFR	8	n/a	n/a	n/a	n/a	n/a	n/a	n/a	n/a	n/a	n/a	n/a	n/a	n/a	n/a	n/a	n/a
1542.93	n/a	WORD	771465	wordpools/wasnorm_wordpool.txt	LTP145	ltpFR	8	6	0	SALT	1229	n/a	n/a	0	n/a	0	0	0	0.57763671875	0.412841796875	1	lower	zerothre.ttf
1545.94	n/a	START	772970	n/a	LTP145	ltpFR	8	n/a	n/a	n/a	n/a	n/a	n/a	n/a	n/a	n/a	n/a	n/a	n/a	n/a	n/a	n/a	n/a
1547.096	n/a	PROB	773548	n/a	LTP145	ltpFR	8	n/a	n/a	n/a	n/a	n/a	n/a	n/a	16	5	3	8	n/a	n/a	n/a	n/a	n/a
1549.254	n/a	PROB	774627	n/a	LTP145	ltpFR	8	n/a	n/a	n/a	n/a	n/a	n/a	n/a	10	3	6	1	n/a	n/a	n/a	n/a	n/a
1551.036	n/a	PROB	775518	n/a	LTP145	ltpFR	8	n/a	n/a	n/a	n/a	n/a	n/a	n/a	23	5	8	9	n/a	n/a	n/a	n/a	n/a
1553.896	n/a	STOP	776948	n/a	LTP145	ltpFR	8	n/a	n/a	n/a	n/a	n/a	n/a	n/a	n/a	n/a	n/a	n/a	n/a	n/a	n/a	n/a	n/a
1555.052	n/a	WORD	777526	wordpools/wasnorm_wordpool.txt	LTP145	ltpFR	8	6	0	HERO	706	n/a	n/a	1	n/a	0	0	0	0.57763671875	0.412841796875	1	lower	zerothre.ttf
1558.058	n/a	START	779029	n/a	LTP145	ltpFR	8	n/a	n/a	n/a	n/a	n/a	n/a	n/a	n/a	n/a	n/a	n/a	n/a	n/a	n/a	n/a	n/a
1559.182	n/a	PROB	779591	n/a	LTP145	ltpFR	8	n/a	n/a	n/a	n/a	n/a	n/a	n/a	17	4	6	7	n/a	n/a	n/a	n/a	n/a
1561.85	n/a	PROB	780925	n/a	LTP145	ltpFR	8	n/a	n/a	n/a	n/a	n/a	n/a	n/a	18	8	7	3	n/a	n/a	n/a	n/a	n/a
1564.09	n/a	PROB	782045	n/a	LTP145	ltpFR	8	n/a	n/a	n/a	n/a	n/a	n/a	n/a	20	8	8	4	n/a	n/a	n/a	n/a	n/a
1565.842	n/a	STOP	782921	n/a	LTP145	ltpFR	8	n/a	n/a	n/a	n/a	n/a	n/a	n/a	n/a	n/a	n/a	n/a	n/a	n/a	n/a	n/a	n/a
1566.932	n/a	WORD	783466	wordpools/wasnorm_wordpool.txt	LTP145	ltpFR	8	6	0	STRAW	1390	n/a	n/a	0	n/a	0	0	0	0.57763671875	0.412841796875	1	lower	zerothre.ttf
1569.94	n/a	START	784970	n/a	LTP145	ltpFR	8	n/a	n/a	n/a	n/a	n/a	n/a	n/a	n/a	n/a	n/a	n/a	n/a	n/a	n/a	n/a	n/a
1570.79	n/a	PROB	785395	n/a	LTP145	ltpFR	8	n/a	n/a	n/a	n/a	n/a	n/a	n/a	15	2	4	9	n/a	n/a	n/a	n/a	n/a
1573.17	n/a	PROB	786585	n/a	LTP145	ltpFR	8	n/a	n/a	n/a	n/a	n/a	n/a	n/a	12	5	3	4	n/a	n/a	n/a	n/a	n/a
1576.794	n/a	STOP	788397	n/a	LTP145	ltpFR	8	n/a	n/a	n/a	n/a	n/a	n/a	n/a	n/a	n/a	n/a	n/a	n/a	n/a	n/a	n/a	n/a
1578.912	n/a	WORD	789456	wordpools/wasnorm_wordpool.txt	LTP145	ltpFR	8	6	0	DUNGEON	507	n/a	n/a	1	n/a	0	0	0	0.57763671875	0.412841796875	1	lower	zerothre.ttf
1581.918	n/a	START	790959	n/a	LTP145	ltpFR	8	n/a	n/a	n/a	n/a	n/a	n/a	n/a	n/a	n/a	n/a	n/a	n/a	n/a	n/a	n/a	n/a
1582.992	n/a	PROB	791496	n/a	LTP145	ltpFR	8	n/a	n/a	n/a	n/a	n/a	n/a	n/a	14	1	4	9	n/a	n/a	n/a	n/a	n/a
1584.776	n/a	PROB	792388	n/a	LTP145	ltpFR	8	n/a	n/a	n/a	n/a	n/a	n/a	n/a	9	6	1	2	n/a	n/a	n/a	n/a	n/a
1586.6	n/a	PROB	793300	n/a	LTP145	ltpFR	8	n/a	n/a	n/a	n/a	n/a	n/a	n/a	9	4	3	2	n/a	n/a	n/a	n/a	n/a
1588.3	n/a	PROB	794150	n/a	LTP145	ltpFR	8	n/a	n/a	n/a	n/a	n/a	n/a	n/a	9	1	5	3	n/a	n/a	n/a	n/a	n/a
1589.77	n/a	STOP	794885	n/a	LTP145	ltpFR	8	n/a	n/a	n/a	n/a	n/a	n/a	n/a	n/a	n/a	n/a	n/a	n/a	n/a	n/a	n/a	n/a
1590.85	n/a	WORD	795425	wordpools/wasnorm_wordpool.txt	LTP145	ltpFR	8	6	0	CHAMBER	277	n/a	n/a	1	n/a	0	0	0	0.57763671875	0.412841796875	1	lower	zerothre.ttf
1593.858	n/a	START	796929	n/a	LTP145	ltpFR	8	n/a	n/a	n/a	n/a	n/a	n/a	n/a	n/a	n/a	n/a	n/a	n/a	n/a	n/a	n/a	n/a
1594.874	n/a	PROB	797437	n/a	LTP145	ltpFR	8	n/a	n/a	n/a	n/a	n/a	n/a	n/a	16	9	1	6	n/a	n/a	n/a	n/a	n/a
1597.338	n/a	PROB	798669	n/a	LTP145	ltpFR	8	n/a	n/a	n/a	n/a	n/a	n/a	n/a	19	4	8	7	n/a	n/a	n/a	n/a	n/a
1599.462	n/a	PROB	799731	n/a	LTP145	ltpFR	8	n/a	n/a	n/a	n/a	n/a	n/a	n/a	13	7	3	3	n/a	n/a	n/a	n/a	n/a
1601.082	n/a	STOP	800541	n/a	LTP145	ltpFR	8	n/a	n/a	n/a	n/a	n/a	n/a	n/a	n/a	n/a	n/a	n/a	n/a	n/a	n/a	n/a	n/a
1602.92	n/a	WORD	801460	wordpools/wasnorm_wordpool.txt	LTP145	ltpFR	8	6	0	MICROSCOPE	891	n/a	n/a	0	n/a	0	0	0	0.57763671875	0.412841796875	1	lower	zerothre.ttf
1605.93	n/a	START	802965	n/a	LTP145	ltpFR	8	n/a	n/a	n/a	n/a	n/a	n/a	n/a	n/a	n/a	n/a	n/a	n/a	n/a	n/a	n/a	n/a
1606.904	n/a	PROB	803452	n/a	LTP145	ltpFR	8	n/a	n/a	n/a	n/a	n/a	n/a	n/a	13	5	6	2	n/a	n/a	n/a	n/a	n/a
1609.46	n/a	PROB	804730	n/a	LTP145	ltpFR	8	n/a	n/a	n/a	n/a	n/a	n/a	n/a	16	4	4	8	n/a	n/a	n/a	n/a	n/a
1613.93	n/a	STOP	806965	n/a	LTP145	ltpFR	8	n/a	n/a	n/a	n/a	n/a	n/a	n/a	n/a	n/a	n/a	n/a	n/a	n/a	n/a	n/a	n/a
1614.868	n/a	WORD	807434	wordpools/wasnorm_wordpool.txt	LTP145	ltpFR	8	6	0	BOMB	147	n/a	n/a	0	n/a	0	0	0	0.57763671875	0.412841796875	1	lower	zerothre.ttf
1617.874	n/a	START	808937	n/a	LTP145	ltpFR	8	n/a	n/a	n/a	n/a	n/a	n/a	n/a	n/a	n/a	n/a	n/a	n/a	n/a	n/a	n/a	n/a
1618.874	n/a	PROB	809437	n/a	LTP145	ltpFR	8	n/a	n/a	n/a	n/a	n/a	n/a	n/a	14	5	2	7	n/a	n/a	n/a	n/a	n/a
1621.18	n/a	PROB	810590	n/a	LTP145	ltpFR	8	n/a	n/a	n/a	n/a	n/a	n/a	n/a	17	6	9	2	n/a	n/a	n/a	n/a	n/a
1625.874	n/a	STOP	812937	n/a	LTP145	ltpFR	8	n/a	n/a	n/a	n/a	n/a	n/a	n/a	n/a	n/a	n/a	n/a	n/a	n/a	n/a	n/a	n/a
1627.004	n/a	WORD	813502	wordpools/wasnorm_wordpool.txt	LTP145	ltpFR	8	6	0	GARLIC	624	n/a	n/a	0	n/a	0	0	0	0.57763671875	0.412841796875	1	lower	zerothre.ttf
1630.012	n/a	START	815006	n/a	LTP145	ltpFR	8	n/a	n/a	n/a	n/a	n/a	n/a	n/a	n/a	n/a	n/a	n/a	n/a	n/a	n/a	n/a	n/a
1631.12	n/a	PROB	815560	n/a	LTP145	ltpFR	8	n/a	n/a	n/a	n/a	n/a	n/a	n/a	14	4	7	3	n/a	n/a	n/a	n/a	n/a
1632.702	n/a	PROB	816351	n/a	LTP145	ltpFR	8	n/a	n/a	n/a	n/a	n/a	n/a	n/a	13	4	7	2	n/a	n/a	n/a	n/a	n/a
1638.012	n/a	STOP	819006	n/a	LTP145	ltpFR	8	n/a	n/a	n/a	n/a	n/a	n/a	n/a	n/a	n/a	n/a	n/a	n/a	n/a	n/a	n/a	n/a
1638.942	n/a	WORD	819471	wordpools/wasnorm_wordpool.txt	LTP145	ltpFR	8	6	0	CLOCK	325	n/a	n/a	0	n/a	0	0	0	0.57763671875	0.412841796875	1	lower	zerothre.ttf
1641.952	n/a	START	820976	n/a	LTP145	ltpFR	8	n/a	n/a	n/a	n/a	n/a	n/a	n/a	n/a	n/a	n/a	n/a	n/a	n/a	n/a	n/a	n/a
1642.776	n/a	PROB	821388	n/a	LTP145	ltpFR	8	n/a	n/a	n/a	n/a	n/a	n/a	n/a	13	3	3	7	n/a	n/a	n/a	n/a	n/a
1644.324	n/a	PROB	822162	n/a	LTP145	ltpFR	8	n/a	n/a	n/a	n/a	n/a	n/a	n/a	17	3	9	5	n/a	n/a	n/a	n/a	n/a
1649.952	n/a	STOP	824976	n/a	LTP145	ltpFR	8	n/a	n/a	n/a	n/a	n/a	n/a	n/a	n/a	n/a	n/a	n/a	n/a	n/a	n/a	n/a	n/a
1651.096	n/a	WORD	825548	wordpools/wasnorm_wordpool.txt	LTP145	ltpFR	8	6	0	VET	1560	n/a	n/a	0	n/a	0	0	0	0.57763671875	0.412841796875	1	lower	zerothre.ttf
1654.104	n/a	START	827052	n/a	LTP145	ltpFR	8	n/a	n/a	n/a	n/a	n/a	n/a	n/a	n/a	n/a	n/a	n/a	n/a	n/a	n/a	n/a	n/a
1655.138	n/a	PROB	827569	n/a	LTP145	ltpFR	8	n/a	n/a	n/a	n/a	n/a	n/a	n/a	15	8	2	5	n/a	n/a	n/a	n/a	n/a
1656.804	n/a	PROB	828402	n/a	LTP145	ltpFR	8	n/a	n/a	n/a	n/a	n/a	n/a	n/a	9	5	1	3	n/a	n/a	n/a	n/a	n/a
1659.128	n/a	PROB	829564	n/a	LTP145	ltpFR	8	n/a	n/a	n/a	n/a	n/a	n/a	n/a	8	2	4	2	n/a	n/a	n/a	n/a	n/a
1660.982	n/a	STOP	830491	n/a	LTP145	ltpFR	8	n/a	n/a	n/a	n/a	n/a	n/a	n/a	n/a	n/a	n/a	n/a	n/a	n/a	n/a	n/a	n/a
1663.11	n/a	WORD	831555	wordpools/wasnorm_wordpool.txt	LTP145	ltpFR	8	6	0	CAMEL	223	n/a	n/a	1	n/a	0	0	0	0.57763671875	0.412841796875	1	lower	zerothre.ttf
1666.118	n/a	START	833059	n/a	LTP145	ltpFR	8	n/a	n/a	n/a	n/a	n/a	n/a	n/a	n/a	n/a	n/a	n/a	n/a	n/a	n/a	n/a	n/a
1667.3	n/a	PROB	833650	n/a	LTP145	ltpFR	8	n/a	n/a	n/a	n/a	n/a	n/a	n/a	17	6	8	3	n/a	n/a	n/a	n/a	n/a
1670.258	n/a	PROB	835129	n/a	LTP145	ltpFR	8	n/a	n/a	n/a	n/a	n/a	n/a	n/a	14	1	5	8	n/a	n/a	n/a	n/a	n/a
1674.118	n/a	STOP	837059	n/a	LTP145	ltpFR	8	n/a	n/a	n/a	n/a	n/a	n/a	n/a	n/a	n/a	n/a	n/a	n/a	n/a	n/a	n/a	n/a
1675.022	n/a	WORD	837511	wordpools/wasnorm_wordpool.txt	LTP145	ltpFR	8	6	0	PERISCOPE	1050	n/a	n/a	1	n/a	0	0	0	0.57763671875	0.412841796875	1	lower	zerothre.ttf
1678.03	n/a	START	839015	n/a	LTP145	ltpFR	8	n/a	n/a	n/a	n/a	n/a	n/a	n/a	n/a	n/a	n/a	n/a	n/a	n/a	n/a	n/a	n/a
1679.004	n/a	PROB	839502	n/a	LTP145	ltpFR	8	n/a	n/a	n/a	n/a	n/a	n/a	n/a	15	9	1	5	n/a	n/a	n/a	n/a	n/a
1680.638	n/a	PROB	840319	n/a	LTP145	ltpFR	8	n/a	n/a	n/a	n/a	n/a	n/a	n/a	14	9	3	2	n/a	n/a	n/a	n/a	n/a
1682.98	n/a	PROB	841490	n/a	LTP145	ltpFR	8	n/a	n/a	n/a	n/a	n/a	n/a	n/a	12	7	4	1	n/a	n/a	n/a	n/a	n/a
1685.88	n/a	STOP	842940	n/a	LTP145	ltpFR	8	n/a	n/a	n/a	n/a	n/a	n/a	n/a	n/a	n/a	n/a	n/a	n/a	n/a	n/a	n/a	n/a
1687.178	n/a	WORD	843589	wordpools/wasnorm_wordpool.txt	LTP145	ltpFR	8	6	0	PELICAN	1039	n/a	n/a	1	n/a	0	0	0	0.57763671875	0.412841796875	1	lower	zerothre.ttf
1690.186	n/a	START	845093	n/a	LTP145	ltpFR	8	n/a	n/a	n/a	n/a	n/a	n/a	n/a	n/a	n/a	n/a	n/a	n/a	n/a	n/a	n/a	n/a
1691.118	n/a	PROB	845559	n/a	LTP145	ltpFR	8	n/a	n/a	n/a	n/a	n/a	n/a	n/a	19	8	9	2	n/a	n/a	n/a	n/a	n/a
1692.934	n/a	PROB	846467	n/a	LTP145	ltpFR	8	n/a	n/a	n/a	n/a	n/a	n/a	n/a	19	9	3	7	n/a	n/a	n/a	n/a	n/a
1694.484	n/a	PROB	847242	n/a	LTP145	ltpFR	8	n/a	n/a	n/a	n/a	n/a	n/a	n/a	12	3	2	7	n/a	n/a	n/a	n/a	n/a
1696.266	n/a	PROB	848133	n/a	LTP145	ltpFR	8	n/a	n/a	n/a	n/a	n/a	n/a	n/a	8	1	4	3	n/a	n/a	n/a	n/a	n/a
1698.022	n/a	STOP	849011	n/a	LTP145	ltpFR	8	n/a	n/a	n/a	n/a	n/a	n/a	n/a	n/a	n/a	n/a	n/a	n/a	n/a	n/a	n/a	n/a
1699.058	n/a	WORD	849529	wordpools/wasnorm_wordpool.txt	LTP145	ltpFR	8	6	0	HAWK	692	n/a	n/a	1	n/a	0	0	0	0.57763671875	0.412841796875	1	lower	zerothre.ttf
1702.066	n/a	START	851033	n/a	LTP145	ltpFR	8	n/a	n/a	n/a	n/a	n/a	n/a	n/a	n/a	n/a	n/a	n/a	n/a	n/a	n/a	n/a	n/a
1702.916	n/a	PROB	851458	n/a	LTP145	ltpFR	8	n/a	n/a	n/a	n/a	n/a	n/a	n/a	21	8	5	8	n/a	n/a	n/a	n/a	n/a
1704.898	n/a	PROB	852449	n/a	LTP145	ltpFR	8	n/a	n/a	n/a	n/a	n/a	n/a	n/a	22	9	9	4	n/a	n/a	n/a	n/a	n/a
1707.122	n/a	PROB	853561	n/a	LTP145	ltpFR	8	n/a	n/a	n/a	n/a	n/a	n/a	n/a	16	4	5	7	n/a	n/a	n/a	n/a	n/a
1709.456	n/a	STOP	854728	n/a	LTP145	ltpFR	8	n/a	n/a	n/a	n/a	n/a	n/a	n/a	n/a	n/a	n/a	n/a	n/a	n/a	n/a	n/a	n/a
1710.938	n/a	WORD	855469	wordpools/wasnorm_wordpool.txt	LTP145	ltpFR	8	6	0	CYCLONE	431	n/a	n/a	1	n/a	0	0	0	0.57763671875	0.412841796875	1	lower	zerothre.ttf
1713.946	n/a	START	856973	n/a	LTP145	ltpFR	8	n/a	n/a	n/a	n/a	n/a	n/a	n/a	n/a	n/a	n/a	n/a	n/a	n/a	n/a	n/a	n/a
1714.962	n/a	PROB	857481	n/a	LTP145	ltpFR	8	n/a	n/a	n/a	n/a	n/a	n/a	n/a	19	1	9	9	n/a	n/a	n/a	n/a	n/a
1716.56	n/a	PROB	858280	n/a	LTP145	ltpFR	8	n/a	n/a	n/a	n/a	n/a	n/a	n/a	17	5	8	4	n/a	n/a	n/a	n/a	n/a
1719.094	n/a	PROB	859547	n/a	LTP145	ltpFR	8	n/a	n/a	n/a	n/a	n/a	n/a	n/a	10	2	6	2	n/a	n/a	n/a	n/a	n/a
1721.384	n/a	STOP	860692	n/a	LTP145	ltpFR	8	n/a	n/a	n/a	n/a	n/a	n/a	n/a	n/a	n/a	n/a	n/a	n/a	n/a	n/a	n/a	n/a
1723.844	n/a	REC_START	861922	n/a	LTP145	ltpFR	8	6	n/a	n/a	n/a	n/a	n/a	n/a	n/a	0	0	0	n/a	n/a	n/a	n/a	n/a
1725.28	n/a	REC_WORD	862640	wordpools/wasnorm_wordpool.txt	LTP145	ltpFR	8	6	0	CYCLONE	431	n/a	n/a	1	n/a	0	0	0	n/a	n/a	n/a	n/a	n/a
1728.098	n/a	REC_WORD	864049	wordpools/wasnorm_wordpool.txt	LTP145	ltpFR	8	6	0	HAWK	692	n/a	n/a	1	n/a	0	0	0	n/a	n/a	n/a	n/a	n/a
1729.086	n/a	REC_WORD	864543	wordpools/wasnorm_wordpool.txt	LTP145	ltpFR	8	6	0	PELICAN	1039	n/a	n/a	1	n/a	0	0	0	n/a	n/a	n/a	n/a	n/a
1802.268	n/a	WORD	901134	wordpools/wasnorm_wordpool.txt	LTP145	ltpFR	8	7	1	ALMANAC	17	n/a	n/a	0	n/a	0	0	0	0.422607421875	0.5869140625	0	upper	amplitud.ttf
1806.308	n/a	WORD	903154	wordpools/wasnorm_wordpool.txt	LTP145	ltpFR	8	7	1	SEA	1259	n/a	n/a	0	n/a	0	0	0	0.422607421875	0.5869140625	0	upper	amplitud.ttf
1810.248	n/a	WORD	905124	wordpools/wasnorm_wordpool.txt	LTP145	ltpFR	8	7	0	SNACK	1331	n/a	n/a	0	n/a	0	0	0	0.57763671875	0.412841796875	1	lower	zerothre.ttf
1814.13	n/a	WORD	907065	wordpools/wasnorm_wordpool.txt	LTP145	ltpFR	8	7	0	SERGEANT	1269	n/a	n/a	1	n/a	0	0	0	0.57763671875	0.412841796875	1	lower	zerothre.ttf
1818.172	n/a	WORD	909086	wordpools/wasnorm_wordpool.txt	LTP145	ltpFR	8	7	0	SURF	1412	n/a	n/a	1	n/a	0	0	0	0.57763671875	0.412841796875	1	lower	zerothre.ttf
1822.086	n/a	WORD	911043	wordpools/wasnorm_wordpool.txt	LTP145	ltpFR	8	7	1	SQUIRREL	1362	n/a	n/a	1	n/a	0	0	0	0.422607421875	0.5869140625	0	upper	amplitud.ttf
1826.11	n/a	WORD	913055	wordpools/wasnorm_wordpool.txt	LTP145	ltpFR	8	7	1	PEANUT	1032	n/a	n/a	0	n/a	0	0	0	0.422607421875	0.5869140625	0	upper	amplitud.ttf
1830.184	n/a	WORD	915092	wordpools/wasnorm_wordpool.txt	LTP145	ltpFR	8	7	1	DIRT	472	n/a	n/a	0	n/a	0	0	0	0.422607421875	0.5869140625	0	upper	amplitud.ttf
1834.05	n/a	WORD	917025	wordpools/wasnorm_wordpool.txt	LTP145	ltpFR	8	7	1	DUNE	506	n/a	n/a	0	n/a	0	0	0	0.422607421875	0.5869140625	0	upper	amplitud.ttf
1837.892	n/a	WORD	918946	wordpools/wasnorm_wordpool.txt	LTP145	ltpFR	8	7	0	RANCH	1166	n/a	n/a	0	n/a	0	0	0	0.57763671875	0.412841796875	1	lower	zerothre.ttf
1841.874	n/a	WORD	920937	wordpools/wasnorm_wordpool.txt	LTP145	ltpFR	8	7	0	HORSE	719	n/a	n/a	1	n/a	0	0	0	0.57763671875	0.412841796875	1	lower	zerothre.ttf
1845.72	n/a	WORD	922860	wordpools/wasnorm_wordpool.txt	LTP145	ltpFR	8	7	0	COLONEL	348	n/a	n/a	1	n/a	0	0	0	0.57763671875	0.412841796875	1	lower	zerothre.ttf
1849.62	n/a	WORD	924810	wordpools/wasnorm_wordpool.txt	LTP145	ltpFR	8	7	0	YOUTH	1634	n/a	n/a	1	n/a	0	0	0	0.57763671875	0.412841796875	1	lower	zerothre.ttf
1853.82	n/a	WORD	926910	wordpools/wasnorm_wordpool.txt	LTP145	ltpFR	8	7	0	CONE	363	n/a	n/a	0	n/a	0	0	0	0.57763671875	0.412841796875	1	lower	zerothre.ttf
1857.944	n/a	WORD	928972	wordpools/wasnorm_wordpool.txt	LTP145	ltpFR	8	7	1	PROFESSOR	1131	n/a	n/a	1	n/a	0	0	0	0.422607421875	0.5869140625	0	upper	amplitud.ttf
1861.958	n/a	WORD	930979	wordpools/wasnorm_wordpool.txt	LTP145	ltpFR	8	7	1	THESAURUS	1454	n/a	n/a	0	n/a	0	0	0	0.422607421875	0.5869140625	0	upper	amplitud.ttf
1864.966	n/a	START	932483	n/a	LTP145	ltpFR	8	n/a	n/a	n/a	n/a	n/a	n/a	n/a	n/a	n/a	n/a	n/a	n/a	n/a	n/a	n/a	n/a
1865.774	n/a	PROB	932887	n/a	LTP145	ltpFR	8	n/a	n/a	n/a	n/a	n/a	n/a	n/a	15	4	2	9	n/a	n/a	n/a	n/a	n/a
1868.764	n/a	PROB	934382	n/a	LTP145	ltpFR	8	n/a	n/a	n/a	n/a	n/a	n/a	n/a	19	9	6	4	n/a	n/a	n/a	n/a	n/a
1871.056	n/a	PROB	935528	n/a	LTP145	ltpFR	8	n/a	n/a	n/a	n/a	n/a	n/a	n/a	17	5	8	4	n/a	n/a	n/a	n/a	n/a
1873.38	n/a	PROB	936690	n/a	LTP145	ltpFR	8	n/a	n/a	n/a	n/a	n/a	n/a	n/a	19	6	5	8	n/a	n/a	n/a	n/a	n/a
1875.954	n/a	PROB	937977	n/a	LTP145	ltpFR	8	n/a	n/a	n/a	n/a	n/a	n/a	n/a	9	6	2	1	n/a	n/a	n/a	n/a	n/a
1877.762	n/a	PROB	938881	n/a	LTP145	ltpFR	8	n/a	n/a	n/a	n/a	n/a	n/a	n/a	17	3	6	8	n/a	n/a	n/a	n/a	n/a
1880.168	n/a	STOP	940084	n/a	LTP145	ltpFR	8	n/a	n/a	n/a	n/a	n/a	n/a	n/a	n/a	n/a	n/a	n/a	n/a	n/a	n/a	n/a	n/a
1882.794	n/a	REC_START	941397	n/a	LTP145	ltpFR	8	7	n/a	n/a	n/a	n/a	n/a	n/a	n/a	0	0	0	n/a	n/a	n/a	n/a	n/a
1884.296	n/a	REC_WORD	942148	wordpools/wasnorm_wordpool.txt	LTP145	ltpFR	8	7	1	ALMANAC	17	n/a	n/a	0	n/a	0	0	0	n/a	n/a	n/a	n/a	n/a
1885.464	n/a	REC_WORD	942732	wordpools/wasnorm_wordpool.txt	LTP145	ltpFR	8	7	1	THESAURUS	1454	n/a	n/a	0	n/a	0	0	0	n/a	n/a	n/a	n/a	n/a
1887.0	n/a	REC_WORD	943500	wordpools/wasnorm_wordpool.txt	LTP145	ltpFR	8	7	1	PROFESSOR	1131	n/a	n/a	1	n/a	0	0	0	n/a	n/a	n/a	n/a	n/a
1893.48	n/a	REC_WORD_VV	946740	wordpools/wasnorm_wordpool.txt	LTP145	ltpFR	8	7	n/a	<>	-1	n/a	n/a	n/a	n/a	0	0	0	n/a	n/a	n/a	n/a	n/a
1898.64	n/a	REC_WORD	949320	wordpools/wasnorm_wordpool.txt	LTP145	ltpFR	8	7	0	HORSE	719	n/a	n/a	1	n/a	0	0	0	n/a	n/a	n/a	n/a	n/a
1899.716	n/a	REC_WORD	949858	wordpools/wasnorm_wordpool.txt	LTP145	ltpFR	8	7	0	RANCH	1166	n/a	n/a	0	n/a	0	0	0	n/a	n/a	n/a	n/a	n/a
1919.068	n/a	REC_WORD	959534	wordpools/wasnorm_wordpool.txt	LTP145	ltpFR	8	7	0	SNACK	1331	n/a	n/a	0	n/a	0	0	0	n/a	n/a	n/a	n/a	n/a
1926.578	n/a	REC_WORD	963289	wordpools/wasnorm_wordpool.txt	LTP145	ltpFR	8	7	1	SEA	1259	n/a	n/a	0	n/a	0	0	0	n/a	n/a	n/a	n/a	n/a
1927.87	n/a	REC_WORD	963935	wordpools/wasnorm_wordpool.txt	LTP145	ltpFR	8	7	0	SURF	1412	n/a	n/a	1	n/a	0	0	0	n/a	n/a	n/a	n/a	n/a
1930.608	n/a	REC_WORD	965304	wordpools/wasnorm_wordpool.txt	LTP145	ltpFR	8	7	0	SERGEANT	1269	n/a	n/a	1	n/a	0	0	0	n/a	n/a	n/a	n/a	n/a
1931.466	n/a	REC_WORD	965733	wordpools/wasnorm_wordpool.txt	LTP145	ltpFR	8	7	0	COLONEL	348	n/a	n/a	1	n/a	0	0	0	n/a	n/a	n/a	n/a	n/a
1962.936	n/a	WORD	981468	wordpools/wasnorm_wordpool.txt	LTP145	ltpFR	8	8	0	CRICKET	408	n/a	n/a	0	n/a	0	0	0	0.57763671875	0.412841796875	1	lower	zerothre.ttf
1966.96	n/a	WORD	983480	wordpools/wasnorm_wordpool.txt	LTP145	ltpFR	8	8	0	PORCUPINE	1107	n/a	n/a	0	n/a	0	0	0	0.57763671875	0.412841796875	1	lower	zerothre.ttf
1970.776	n/a	WORD	985388	wordpools/wasnorm_wordpool.txt	LTP145	ltpFR	8	8	0	WRENCH	1625	n/a	n/a	0	n/a	0	0	0	0.57763671875	0.412841796875	1	lower	zerothre.ttf
1974.748	n/a	WORD	987374	wordpools/wasnorm_wordpool.txt	LTP145	ltpFR	8	8	0	INDIAN	736	n/a	n/a	1	n/a	0	0	0	0.57763671875	0.412841796875	1	lower	zerothre.ttf
1978.714	n/a	WORD	989357	wordpools/wasnorm_wordpool.txt	LTP145	ltpFR	8	8	0	MACARONI	851	n/a	n/a	0	n/a	0	0	0	0.57763671875	0.412841796875	1	lower	zerothre.ttf
1982.738	n/a	WORD	991369	wordpools/wasnorm_wordpool.txt	LTP145	ltpFR	8	8	0	NURSE	963	n/a	n/a	1	n/a	0	0	0	0.57763671875	0.412841796875	1	lower	zerothre.ttf
1986.796	n/a	WORD	993398	wordpools/wasnorm_wordpool.txt	LTP145	ltpFR	8	8	0	POSSUM	1112	n/a	n/a	0	n/a	0	0	0	0.57763671875	0.412841796875	1	lower	zerothre.ttf
1990.844	n/a	WORD	995422	wordpools/wasnorm_wordpool.txt	LTP145	ltpFR	8	8	0	PUBLISHER	1137	n/a	n/a	1	n/a	0	0	0	0.57763671875	0.412841796875	1	lower	zerothre.ttf
1994.734	n/a	WORD	997367	wordpools/wasnorm_wordpool.txt	LTP145	ltpFR	8	8	0	JOURNAL	760	n/a	n/a	0	n/a	0	0	0	0.57763671875	0.412841796875	1	lower	zerothre.ttf
1998.942	n/a	WORD	999471	wordpools/wasnorm_wordpool.txt	LTP145	ltpFR	8	8	0	ISLAND	745	n/a	n/a	1	n/a	0	0	0	0.57763671875	0.412841796875	1	lower	zerothre.ttf
2002.916	n/a	WORD	1001458	wordpools/wasnorm_wordpool.txt	LTP145	ltpFR	8	8	0	FOUNTAIN	597	n/a	n/a	1	n/a	0	0	0	0.57763671875	0.412841796875	1	lower	zerothre.ttf
2006.98	n/a	WORD	1003490	wordpools/wasnorm_wordpool.txt	LTP145	ltpFR	8	8	0	SOFTBALL	1343	n/a	n/a	1	n/a	0	0	0	0.57763671875	0.412841796875	1	lower	zerothre.ttf
2010.796	n/a	WORD	1005398	wordpools/wasnorm_wordpool.txt	LTP145	ltpFR	8	8	0	SCREW	1254	n/a	n/a	0	n/a	0	0	0	0.57763671875	0.412841796875	1	lower	zerothre.ttf
2014.702	n/a	WORD	1007351	wordpools/wasnorm_wordpool.txt	LTP145	ltpFR	8	8	0	YARN	1631	n/a	n/a	0	n/a	0	0	0	0.57763671875	0.412841796875	1	lower	zerothre.ttf
2018.828	n/a	WORD	1009414	wordpools/wasnorm_wordpool.txt	LTP145	ltpFR	8	8	0	GATE	625	n/a	n/a	1	n/a	0	0	0	0.57763671875	0.412841796875	1	lower	zerothre.ttf
2022.726	n/a	WORD	1011363	wordpools/wasnorm_wordpool.txt	LTP145	ltpFR	8	8	0	GRASS	655	n/a	n/a	1	n/a	0	0	0	0.57763671875	0.412841796875	1	lower	zerothre.ttf
2028.474	n/a	REC_START	1014237	n/a	LTP145	ltpFR	8	8	n/a	n/a	n/a	n/a	n/a	n/a	n/a	0	0	0	n/a	n/a	n/a	n/a	n/a
2030.81	n/a	REC_WORD	1015405	wordpools/wasnorm_wordpool.txt	LTP145	ltpFR	8	8	0	GRASS	655	n/a	n/a	1	n/a	0	0	0	n/a	n/a	n/a	n/a	n/a
2032.022	n/a	REC_WORD	1016011	wordpools/wasnorm_wordpool.txt	LTP145	ltpFR	8	8	0	RANCH	1166	n/a	n/a	0	n/a	0	0	0	n/a	n/a	n/a	n/a	n/a
2034.476	n/a	REC_WORD	1017238	wordpools/wasnorm_wordpool.txt	LTP145	ltpFR	8	8	0	SCREW	1254	n/a	n/a	0	n/a	0	0	0	n/a	n/a	n/a	n/a	n/a
2038.626	n/a	REC_WORD	1019313	wordpools/wasnorm_wordpool.txt	LTP145	ltpFR	8	8	0	INDIAN	736	n/a	n/a	1	n/a	0	0	0	n/a	n/a	n/a	n/a	n/a
2040.506	n/a	REC_WORD	1020253	wordpools/wasnorm_wordpool.txt	LTP145	ltpFR	8	8	0	PUBLISHER	1137	n/a	n/a	1	n/a	0	0	0	n/a	n/a	n/a	n/a	n/a
2042.474	n/a	REC_WORD	1021237	wordpools/wasnorm_wordpool.txt	LTP145	ltpFR	8	8	0	JOURNAL	760	n/a	n/a	0	n/a	0	0	0	n/a	n/a	n/a	n/a	n/a
2044.21	n/a	REC_WORD	1022105	wordpools/wasnorm_wordpool.txt	LTP145	ltpFR	8	8	0	ISLAND	745	n/a	n/a	1	n/a	0	0	0	n/a	n/a	n/a	n/a	n/a
2045.382	n/a	REC_WORD	1022691	wordpools/wasnorm_wordpool.txt	LTP145	ltpFR	8	8	0	FOUNTAIN	597	n/a	n/a	1	n/a	0	0	0	n/a	n/a	n/a	n/a	n/a
2047.922	n/a	REC_WORD	1023961	wordpools/wasnorm_wordpool.txt	LTP145	ltpFR	8	8	0	PORCUPINE	1107	n/a	n/a	0	n/a	0	0	0	n/a	n/a	n/a	n/a	n/a
2049.832	n/a	REC_WORD	1024916	wordpools/wasnorm_wordpool.txt	LTP145	ltpFR	8	8	0	POSSUM	1112	n/a	n/a	0	n/a	0	0	0	n/a	n/a	n/a	n/a	n/a
2051.942	n/a	REC_WORD	1025971	wordpools/wasnorm_wordpool.txt	LTP145	ltpFR	8	8	0	CRICKET	408	n/a	n/a	0	n/a	0	0	0	n/a	n/a	n/a	n/a	n/a
2078.192	n/a	REC_WORD	1039096	wordpools/wasnorm_wordpool.txt	LTP145	ltpFR	8	8	0	SOFTBALL	1343	n/a	n/a	1	n/a	0	0	0	n/a	n/a	n/a	n/a	n/a
2107.35	n/a	WORD	1053675	wordpools/wasnorm_wordpool.txt	LTP145	ltpFR	8	9	1	SINK	1309	n/a	n/a	0	n/a	0	0	0	0.422607421875	0.5869140625	0	upper	amplitud.ttf
2111.432	n/a	WORD	1055716	wordpools/wasnorm_wordpool.txt	LTP145	ltpFR	8	9	1	RIVER	1194	n/a	n/a	0	n/a	0	0	0	0.422607421875	0.5869140625	0	upper	amplitud.ttf
2115.556	n/a	WORD	1057778	wordpools/wasnorm_wordpool.txt	LTP145	ltpFR	8	9	1	COYOTE	396	n/a	n/a	1	n/a	0	0	0	0.422607421875	0.5869140625	0	upper	amplitud.ttf
2119.454	n/a	WORD	1059727	wordpools/wasnorm_wordpool.txt	LTP145	ltpFR	8	9	1	WINGS	1614	n/a	n/a	0	n/a	0	0	0	0.422607421875	0.5869140625	0	upper	amplitud.ttf
2123.512	n/a	WORD	1061756	wordpools/wasnorm_wordpool.txt	LTP145	ltpFR	8	9	1	PLANE	1081	n/a	n/a	1	n/a	0	0	0	0.422607421875	0.5869140625	0	upper	amplitud.ttf
2127.526	n/a	WORD	1063763	wordpools/wasnorm_wordpool.txt	LTP145	ltpFR	8	9	1	ZIPPER	1636	n/a	n/a	0	n/a	0	0	0	0.422607421875	0.5869140625	0	upper	amplitud.ttf
2131.626	n/a	WORD	1065813	wordpools/wasnorm_wordpool.txt	LTP145	ltpFR	8	9	1	TORTOISE	1486	n/a	n/a	1	n/a	0	0	0	0.422607421875	0.5869140625	0	upper	amplitud.ttf
2135.598	n/a	WORD	1067799	wordpools/wasnorm_wordpool.txt	LTP145	ltpFR	8	9	1	BULLY	196	n/a	n/a	1	n/a	0	0	0	0.422607421875	0.5869140625	0	upper	amplitud.ttf
2139.716	n/a	WORD	1069858	wordpools/wasnorm_wordpool.txt	LTP145	ltpFR	8	9	1	PUPPY	1144	n/a	n/a	1	n/a	0	0	0	0.422607421875	0.5869140625	0	upper	amplitud.ttf
2143.84	n/a	WORD	1071920	wordpools/wasnorm_wordpool.txt	LTP145	ltpFR	8	9	1	SHELL	1281	n/a	n/a	0	n/a	0	0	0	0.422607421875	0.5869140625	0	upper	amplitud.ttf
2147.972	n/a	WORD	1073986	wordpools/wasnorm_wordpool.txt	LTP145	ltpFR	8	9	1	PHOTO	1055	n/a	n/a	0	n/a	0	0	0	0.422607421875	0.5869140625	0	upper	amplitud.ttf
2151.904	n/a	WORD	1075952	wordpools/wasnorm_wordpool.txt	LTP145	ltpFR	8	9	1	CLOTHES	327	n/a	n/a	0	n/a	0	0	0	0.422607421875	0.5869140625	0	upper	amplitud.ttf
2155.986	n/a	WORD	1077993	wordpools/wasnorm_wordpool.txt	LTP145	ltpFR	8	9	1	GUN	673	n/a	n/a	0	n/a	0	0	0	0.422607421875	0.5869140625	0	upper	amplitud.ttf
2159.826	n/a	WORD	1079913	wordpools/wasnorm_wordpool.txt	LTP145	ltpFR	8	9	1	TRANSPLANT	1496	n/a	n/a	0	n/a	0	0	0	0.422607421875	0.5869140625	0	upper	amplitud.ttf
2163.958	n/a	WORD	1081979	wordpools/wasnorm_wordpool.txt	LTP145	ltpFR	8	9	1	ICE	730	n/a	n/a	0	n/a	0	0	0	0.422607421875	0.5869140625	0	upper	amplitud.ttf
2168.04	n/a	WORD	1084020	wordpools/wasnorm_wordpool.txt	LTP145	ltpFR	8	9	1	FROST	609	n/a	n/a	0	n/a	0	0	0	0.422607421875	0.5869140625	0	upper	amplitud.ttf
2171.046	n/a	START	1085523	n/a	LTP145	ltpFR	8	n/a	n/a	n/a	n/a	n/a	n/a	n/a	n/a	n/a	n/a	n/a	n/a	n/a	n/a	n/a	n/a
2172.154	n/a	PROB	1086077	n/a	LTP145	ltpFR	8	n/a	n/a	n/a	n/a	n/a	n/a	n/a	19	7	9	3	n/a	n/a	n/a	n/a	n/a
2174.554	n/a	PROB	1087277	n/a	LTP145	ltpFR	8	n/a	n/a	n/a	n/a	n/a	n/a	n/a	12	2	4	6	n/a	n/a	n/a	n/a	n/a
2176.246	n/a	PROB	1088123	n/a	LTP145	ltpFR	8	n/a	n/a	n/a	n/a	n/a	n/a	n/a	11	1	2	8	n/a	n/a	n/a	n/a	n/a
2177.752	n/a	STOP	1088876	n/a	LTP145	ltpFR	8	n/a	n/a	n/a	n/a	n/a	n/a	n/a	n/a	n/a	n/a	n/a	n/a	n/a	n/a	n/a	n/a
2180.88	n/a	REC_START	1090440	n/a	LTP145	ltpFR	8	9	n/a	n/a	n/a	n/a	n/a	n/a	n/a	0	0	0	n/a	n/a	n/a	n/a	n/a
2182.534	n/a	REC_WORD	1091267	wordpools/wasnorm_wordpool.txt	LTP145	ltpFR	8	9	1	ICE	730	n/a	n/a	0	n/a	0	0	0	n/a	n/a	n/a	n/a	n/a
2183.562	n/a	REC_WORD	1091781	wordpools/wasnorm_wordpool.txt	LTP145	ltpFR	8	9	1	FROST	609	n/a	n/a	0	n/a	0	0	0	n/a	n/a	n/a	n/a	n/a
2185.554	n/a	REC_WORD	1092777	wordpools/wasnorm_wordpool.txt	LTP145	ltpFR	8	9	1	SHELL	1281	n/a	n/a	0	n/a	0	0	0	n/a	n/a	n/a	n/a	n/a
2187.374	n/a	REC_WORD	1093687	wordpools/wasnorm_wordpool.txt	LTP145	ltpFR	8	9	1	BULLY	196	n/a	n/a	1	n/a	0	0	0	n/a	n/a	n/a	n/a	n/a
2191.76	n/a	REC_WORD	1095880	wordpools/wasnorm_wordpool.txt	LTP145	ltpFR	8	9	1	PHOTO	1055	n/a	n/a	0	n/a	0	0	0	n/a	n/a	n/a	n/a	n/a
2193.212	n/a	REC_WORD	1096606	wordpools/wasnorm_wordpool.txt	LTP145	ltpFR	8	9	1	PLANE	1081	n/a	n/a	1	n/a	0	0	0	n/a	n/a	n/a	n/a	n/a
2194.534	n/a	REC_WORD	1097267	wordpools/wasnorm_wordpool.txt	LTP145	ltpFR	8	9	1	WINGS	1614	n/a	n/a	0	n/a	0	0	0	n/a	n/a	n/a	n/a	n/a
2195.686	n/a	REC_WORD	1097843	wordpools/wasnorm_wordpool.txt	LTP145	ltpFR	8	9	1	ZIPPER	1636	n/a	n/a	0	n/a	0	0	0	n/a	n/a	n/a	n/a	n/a
2197.104	n/a	REC_WORD	1098552	wordpools/wasnorm_wordpool.txt	LTP145	ltpFR	8	9	1	CLOTHES	327	n/a	n/a	0	n/a	0	0	0	n/a	n/a	n/a	n/a	n/a
2204.182	n/a	REC_WORD	1102091	wordpools/wasnorm_wordpool.txt	LTP145	ltpFR	8	9	1	RIVER	1194	n/a	n/a	0	n/a	0	0	0	n/a	n/a	n/a	n/a	n/a
2208.292	n/a	REC_WORD	1104146	wordpools/wasnorm_wordpool.txt	LTP145	ltpFR	8	9	1	SINK	1309	n/a	n/a	0	n/a	0	0	0	n/a	n/a	n/a	n/a	n/a
2258.138	n/a	START	1129069	n/a	LTP145	ltpFR	8	n/a	n/a	n/a	n/a	n/a	n/a	n/a	n/a	n/a	n/a	n/a	n/a	n/a	n/a	n/a	n/a
2259.644	n/a	PROB	1129822	n/a	LTP145	ltpFR	8	n/a	n/a	n/a	n/a	n/a	n/a	n/a	18	8	8	2	n/a	n/a	n/a	n/a	n/a
2261.694	n/a	PROB	1130847	n/a	LTP145	ltpFR	8	n/a	n/a	n/a	n/a	n/a	n/a	n/a	15	1	5	9	n/a	n/a	n/a	n/a	n/a
2263.36	n/a	PROB	1131680	n/a	LTP145	ltpFR	8	n/a	n/a	n/a	n/a	n/a	n/a	n/a	13	3	3	7	n/a	n/a	n/a	n/a	n/a
2264.716	n/a	STOP	1132358	n/a	LTP145	ltpFR	8	n/a	n/a	n/a	n/a	n/a	n/a	n/a	n/a	n/a	n/a	n/a	n/a	n/a	n/a	n/a	n/a
2267.0	n/a	WORD	1133500	wordpools/wasnorm_wordpool.txt	LTP145	ltpFR	8	10	0	ANTELOPE	27	n/a	n/a	1	n/a	0	0	0	0.57763671875	0.412841796875	1	lower	zerothre.ttf
2270.01	n/a	START	1135005	n/a	LTP145	ltpFR	8	n/a	n/a	n/a	n/a	n/a	n/a	n/a	n/a	n/a	n/a	n/a	n/a	n/a	n/a	n/a	n/a
2271.066	n/a	PROB	1135533	n/a	LTP145	ltpFR	8	n/a	n/a	n/a	n/a	n/a	n/a	n/a	21	9	8	4	n/a	n/a	n/a	n/a	n/a
2275.224	n/a	PROB	1137612	n/a	LTP145	ltpFR	8	n/a	n/a	n/a	n/a	n/a	n/a	n/a	16	5	4	7	n/a	n/a	n/a	n/a	n/a
2277.606	n/a	STOP	1138803	n/a	LTP145	ltpFR	8	n/a	n/a	n/a	n/a	n/a	n/a	n/a	n/a	n/a	n/a	n/a	n/a	n/a	n/a	n/a	n/a
2278.832	n/a	WORD	1139416	wordpools/wasnorm_wordpool.txt	LTP145	ltpFR	8	10	0	SOFA	1342	n/a	n/a	1	n/a	0	0	0	0.57763671875	0.412841796875	1	lower	zerothre.ttf
2281.84	n/a	START	1140920	n/a	LTP145	ltpFR	8	n/a	n/a	n/a	n/a	n/a	n/a	n/a	n/a	n/a	n/a	n/a	n/a	n/a	n/a	n/a	n/a
2282.662	n/a	PROB	1141331	n/a	LTP145	ltpFR	8	n/a	n/a	n/a	n/a	n/a	n/a	n/a	13	6	5	2	n/a	n/a	n/a	n/a	n/a
2285.246	n/a	PROB	1142623	n/a	LTP145	ltpFR	8	n/a	n/a	n/a	n/a	n/a	n/a	n/a	17	7	8	2	n/a	n/a	n/a	n/a	n/a
2287.094	n/a	PROB	1143547	n/a	LTP145	ltpFR	8	n/a	n/a	n/a	n/a	n/a	n/a	n/a	20	8	9	3	n/a	n/a	n/a	n/a	n/a
2289.478	n/a	STOP	1144739	n/a	LTP145	ltpFR	8	n/a	n/a	n/a	n/a	n/a	n/a	n/a	n/a	n/a	n/a	n/a	n/a	n/a	n/a	n/a	n/a
2290.82	n/a	WORD	1145410	wordpools/wasnorm_wordpool.txt	LTP145	ltpFR	8	10	0	LEVER	815	n/a	n/a	0	n/a	0	0	0	0.57763671875	0.412841796875	1	lower	zerothre.ttf
2293.828	n/a	START	1146914	n/a	LTP145	ltpFR	8	n/a	n/a	n/a	n/a	n/a	n/a	n/a	n/a	n/a	n/a	n/a	n/a	n/a	n/a	n/a	n/a
2295.034	n/a	PROB	1147517	n/a	LTP145	ltpFR	8	n/a	n/a	n/a	n/a	n/a	n/a	n/a	15	3	8	4	n/a	n/a	n/a	n/a	n/a
2297.3	n/a	PROB	1148650	n/a	LTP145	ltpFR	8	n/a	n/a	n/a	n/a	n/a	n/a	n/a	14	3	5	6	n/a	n/a	n/a	n/a	n/a
2299.124	n/a	PROB	1149562	n/a	LTP145	ltpFR	8	n/a	n/a	n/a	n/a	n/a	n/a	n/a	18	7	4	7	n/a	n/a	n/a	n/a	n/a
2300.734	n/a	STOP	1150367	n/a	LTP145	ltpFR	8	n/a	n/a	n/a	n/a	n/a	n/a	n/a	n/a	n/a	n/a	n/a	n/a	n/a	n/a	n/a	n/a
2302.724	n/a	WORD	1151362	wordpools/wasnorm_wordpool.txt	LTP145	ltpFR	8	10	0	SOAP	1337	n/a	n/a	0	n/a	0	0	0	0.57763671875	0.412841796875	1	lower	zerothre.ttf
2305.732	n/a	START	1152866	n/a	LTP145	ltpFR	8	n/a	n/a	n/a	n/a	n/a	n/a	n/a	n/a	n/a	n/a	n/a	n/a	n/a	n/a	n/a	n/a
2306.832	n/a	PROB	1153416	n/a	LTP145	ltpFR	8	n/a	n/a	n/a	n/a	n/a	n/a	n/a	15	8	6	1	n/a	n/a	n/a	n/a	n/a
2309.238	n/a	PROB	1154619	n/a	LTP145	ltpFR	8	n/a	n/a	n/a	n/a	n/a	n/a	n/a	15	9	2	4	n/a	n/a	n/a	n/a	n/a
2313.732	n/a	STOP	1156866	n/a	LTP145	ltpFR	8	n/a	n/a	n/a	n/a	n/a	n/a	n/a	n/a	n/a	n/a	n/a	n/a	n/a	n/a	n/a	n/a
2314.912	n/a	WORD	1157456	wordpools/wasnorm_wordpool.txt	LTP145	ltpFR	8	10	1	HERD	705	n/a	n/a	1	n/a	0	0	0	0.422607421875	0.5869140625	0	upper	amplitud.ttf
2317.92	n/a	START	1158960	n/a	LTP145	ltpFR	8	n/a	n/a	n/a	n/a	n/a	n/a	n/a	n/a	n/a	n/a	n/a	n/a	n/a	n/a	n/a	n/a
2318.786	n/a	PROB	1159393	n/a	LTP145	ltpFR	8	n/a	n/a	n/a	n/a	n/a	n/a	n/a	15	3	6	6	n/a	n/a	n/a	n/a	n/a
2320.734	n/a	PROB	1160367	n/a	LTP145	ltpFR	8	n/a	n/a	n/a	n/a	n/a	n/a	n/a	19	6	9	4	n/a	n/a	n/a	n/a	n/a
2323.276	n/a	PROB	1161638	n/a	LTP145	ltpFR	8	n/a	n/a	n/a	n/a	n/a	n/a	n/a	14	1	7	6	n/a	n/a	n/a	n/a	n/a
2325.008	n/a	STOP	1162504	n/a	LTP145	ltpFR	8	n/a	n/a	n/a	n/a	n/a	n/a	n/a	n/a	n/a	n/a	n/a	n/a	n/a	n/a	n/a	n/a
2327.134	n/a	WORD	1163567	wordpools/wasnorm_wordpool.txt	LTP145	ltpFR	8	10	1	POPCORN	1104	n/a	n/a	0	n/a	0	0	0	0.422607421875	0.5869140625	0	upper	amplitud.ttf
2330.14	n/a	START	1165070	n/a	LTP145	ltpFR	8	n/a	n/a	n/a	n/a	n/a	n/a	n/a	n/a	n/a	n/a	n/a	n/a	n/a	n/a	n/a	n/a
2331.132	n/a	PROB	1165566	n/a	LTP145	ltpFR	8	n/a	n/a	n/a	n/a	n/a	n/a	n/a	14	4	4	6	n/a	n/a	n/a	n/a	n/a
2332.59	n/a	PROB	1166295	n/a	LTP145	ltpFR	8	n/a	n/a	n/a	n/a	n/a	n/a	n/a	13	2	3	8	n/a	n/a	n/a	n/a	n/a
2334.09	n/a	PROB	1167045	n/a	LTP145	ltpFR	8	n/a	n/a	n/a	n/a	n/a	n/a	n/a	19	5	5	9	n/a	n/a	n/a	n/a	n/a
2335.722	n/a	PROB	1167861	n/a	LTP145	ltpFR	8	n/a	n/a	n/a	n/a	n/a	n/a	n/a	8	2	5	1	n/a	n/a	n/a	n/a	n/a
2337.12	n/a	STOP	1168560	n/a	LTP145	ltpFR	8	n/a	n/a	n/a	n/a	n/a	n/a	n/a	n/a	n/a	n/a	n/a	n/a	n/a	n/a	n/a	n/a
2339.128	n/a	WORD	1169564	wordpools/wasnorm_wordpool.txt	LTP145	ltpFR	8	10	1	WHISTLE	1606	n/a	n/a	0	n/a	0	0	0	0.422607421875	0.5869140625	0	upper	amplitud.ttf
2342.136	n/a	START	1171068	n/a	LTP145	ltpFR	8	n/a	n/a	n/a	n/a	n/a	n/a	n/a	n/a	n/a	n/a	n/a	n/a	n/a	n/a	n/a	n/a
2343.202	n/a	PROB	1171601	n/a	LTP145	ltpFR	8	n/a	n/a	n/a	n/a	n/a	n/a	n/a	16	4	2	9	n/a	n/a	n/a	n/a	n/a
2345.636	n/a	PROB	1172818	n/a	LTP145	ltpFR	8	n/a	n/a	n/a	n/a	n/a	n/a	n/a	13	1	4	8	n/a	n/a	n/a	n/a	n/a
2350.136	n/a	STOP	1175068	n/a	LTP145	ltpFR	8	n/a	n/a	n/a	n/a	n/a	n/a	n/a	n/a	n/a	n/a	n/a	n/a	n/a	n/a	n/a	n/a
2351.326	n/a	WORD	1175663	wordpools/wasnorm_wordpool.txt	LTP145	ltpFR	8	10	1	DAISY	435	n/a	n/a	0	n/a	0	0	0	0.422607421875	0.5869140625	0	upper	amplitud.ttf
2354.334	n/a	START	1177167	n/a	LTP145	ltpFR	8	n/a	n/a	n/a	n/a	n/a	n/a	n/a	n/a	n/a	n/a	n/a	n/a	n/a	n/a	n/a	n/a
2355.358	n/a	PROB	1177679	n/a	LTP145	ltpFR	8	n/a	n/a	n/a	n/a	n/a	n/a	n/a	8	1	2	5	n/a	n/a	n/a	n/a	n/a
2356.932	n/a	PROB	1178466	n/a	LTP145	ltpFR	8	n/a	n/a	n/a	n/a	n/a	n/a	n/a	16	3	7	6	n/a	n/a	n/a	n/a	n/a
2358.374	n/a	PROB	1179187	n/a	LTP145	ltpFR	8	n/a	n/a	n/a	n/a	n/a	n/a	n/a	18	7	9	2	n/a	n/a	n/a	n/a	n/a
2362.334	n/a	STOP	1181167	n/a	LTP145	ltpFR	8	n/a	n/a	n/a	n/a	n/a	n/a	n/a	n/a	n/a	n/a	n/a	n/a	n/a	n/a	n/a	n/a
2363.246	n/a	WORD	1181623	wordpools/wasnorm_wordpool.txt	LTP145	ltpFR	8	10	1	ORCHID	982	n/a	n/a	0	n/a	0	0	0	0.422607421875	0.5869140625	0	upper	amplitud.ttf
2366.256	n/a	START	1183128	n/a	LTP145	ltpFR	8	n/a	n/a	n/a	n/a	n/a	n/a	n/a	n/a	n/a	n/a	n/a	n/a	n/a	n/a	n/a	n/a
2367.254	n/a	PROB	1183627	n/a	LTP145	ltpFR	8	n/a	n/a	n/a	n/a	n/a	n/a	n/a	19	4	6	9	n/a	n/a	n/a	n/a	n/a
2368.972	n/a	PROB	1184486	n/a	LTP145	ltpFR	8	n/a	n/a	n/a	n/a	n/a	n/a	n/a	15	3	9	3	n/a	n/a	n/a	n/a	n/a
2371.17	n/a	PROB	1185585	n/a	LTP145	ltpFR	8	n/a	n/a	n/a	n/a	n/a	n/a	n/a	18	8	4	6	n/a	n/a	n/a	n/a	n/a
2372.844	n/a	STOP	1186422	n/a	LTP145	ltpFR	8	n/a	n/a	n/a	n/a	n/a	n/a	n/a	n/a	n/a	n/a	n/a	n/a	n/a	n/a	n/a	n/a
2375.252	n/a	WORD	1187626	wordpools/wasnorm_wordpool.txt	LTP145	ltpFR	8	10	0	MOVIE	927	n/a	n/a	0	n/a	0	0	0	0.57763671875	0.412841796875	1	lower	zerothre.ttf
2378.258	n/a	START	1189129	n/a	LTP145	ltpFR	8	n/a	n/a	n/a	n/a	n/a	n/a	n/a	n/a	n/a	n/a	n/a	n/a	n/a	n/a	n/a	n/a
2379.384	n/a	PROB	1189692	n/a	LTP145	ltpFR	8	n/a	n/a	n/a	n/a	n/a	n/a	n/a	10	2	7	1	n/a	n/a	n/a	n/a	n/a
2381.074	n/a	PROB	1190537	n/a	LTP145	ltpFR	8	n/a	n/a	n/a	n/a	n/a	n/a	n/a	8	2	2	4	n/a	n/a	n/a	n/a	n/a
2383.3	n/a	PROB	1191650	n/a	LTP145	ltpFR	8	n/a	n/a	n/a	n/a	n/a	n/a	n/a	8	4	1	3	n/a	n/a	n/a	n/a	n/a
2384.924	n/a	STOP	1192462	n/a	LTP145	ltpFR	8	n/a	n/a	n/a	n/a	n/a	n/a	n/a	n/a	n/a	n/a	n/a	n/a	n/a	n/a	n/a	n/a
2387.256	n/a	WORD	1193628	wordpools/wasnorm_wordpool.txt	LTP145	ltpFR	8	10	0	MILK	895	n/a	n/a	0	n/a	0	0	0	0.57763671875	0.412841796875	1	lower	zerothre.ttf
2390.264	n/a	START	1195132	n/a	LTP145	ltpFR	8	n/a	n/a	n/a	n/a	n/a	n/a	n/a	n/a	n/a	n/a	n/a	n/a	n/a	n/a	n/a	n/a
2391.122	n/a	PROB	1195561	n/a	LTP145	ltpFR	8	n/a	n/a	n/a	n/a	n/a	n/a	n/a	16	5	7	4	n/a	n/a	n/a	n/a	n/a
2393.396	n/a	PROB	1196698	n/a	LTP145	ltpFR	8	n/a	n/a	n/a	n/a	n/a	n/a	n/a	13	2	2	9	n/a	n/a	n/a	n/a	n/a
2395.67	n/a	PROB	1197835	n/a	LTP145	ltpFR	8	n/a	n/a	n/a	n/a	n/a	n/a	n/a	11	2	1	8	n/a	n/a	n/a	n/a	n/a
2397.5	n/a	STOP	1198750	n/a	LTP145	ltpFR	8	n/a	n/a	n/a	n/a	n/a	n/a	n/a	n/a	n/a	n/a	n/a	n/a	n/a	n/a	n/a	n/a
2399.268	n/a	WORD	1199634	wordpools/wasnorm_wordpool.txt	LTP145	ltpFR	8	10	0	BANJO	82	n/a	n/a	0	n/a	0	0	0	0.57763671875	0.412841796875	1	lower	zerothre.ttf
2402.278	n/a	START	1201139	n/a	LTP145	ltpFR	8	n/a	n/a	n/a	n/a	n/a	n/a	n/a	n/a	n/a	n/a	n/a	n/a	n/a	n/a	n/a	n/a
2403.31	n/a	PROB	1201655	n/a	LTP145	ltpFR	8	n/a	n/a	n/a	n/a	n/a	n/a	n/a	21	3	9	9	n/a	n/a	n/a	n/a	n/a
2405.7	n/a	PROB	1202850	n/a	LTP145	ltpFR	8	n/a	n/a	n/a	n/a	n/a	n/a	n/a	24	5	9	9	n/a	n/a	n/a	n/a	n/a
2408.266	n/a	PROB	1204133	n/a	LTP145	ltpFR	8	n/a	n/a	n/a	n/a	n/a	n/a	n/a	12	1	5	6	n/a	n/a	n/a	n/a	n/a
2410.076	n/a	STOP	1205038	n/a	LTP145	ltpFR	8	n/a	n/a	n/a	n/a	n/a	n/a	n/a	n/a	n/a	n/a	n/a	n/a	n/a	n/a	n/a	n/a
2411.458	n/a	WORD	1205729	wordpools/wasnorm_wordpool.txt	LTP145	ltpFR	8	10	0	DOLPHIN	483	n/a	n/a	1	n/a	0	0	0	0.57763671875	0.412841796875	1	lower	zerothre.ttf
2414.464	n/a	START	1207232	n/a	LTP145	ltpFR	8	n/a	n/a	n/a	n/a	n/a	n/a	n/a	n/a	n/a	n/a	n/a	n/a	n/a	n/a	n/a	n/a
2415.414	n/a	PROB	1207707	n/a	LTP145	ltpFR	8	n/a	n/a	n/a	n/a	n/a	n/a	n/a	18	3	8	7	n/a	n/a	n/a	n/a	n/a
2417.722	n/a	PROB	1208861	n/a	LTP145	ltpFR	8	n/a	n/a	n/a	n/a	n/a	n/a	n/a	13	1	8	4	n/a	n/a	n/a	n/a	n/a
2420.204	n/a	PROB	1210102	n/a	LTP145	ltpFR	8	n/a	n/a	n/a	n/a	n/a	n/a	n/a	20	9	2	9	n/a	n/a	n/a	n/a	n/a
2421.934	n/a	STOP	1210967	n/a	LTP145	ltpFR	8	n/a	n/a	n/a	n/a	n/a	n/a	n/a	n/a	n/a	n/a	n/a	n/a	n/a	n/a	n/a	n/a
2423.42	n/a	WORD	1211710	wordpools/wasnorm_wordpool.txt	LTP145	ltpFR	8	10	1	MERMAID	887	n/a	n/a	1	n/a	0	0	0	0.422607421875	0.5869140625	0	upper	amplitud.ttf
2426.428	n/a	START	1213214	n/a	LTP145	ltpFR	8	n/a	n/a	n/a	n/a	n/a	n/a	n/a	n/a	n/a	n/a	n/a	n/a	n/a	n/a	n/a	n/a
2427.37	n/a	PROB	1213685	n/a	LTP145	ltpFR	8	n/a	n/a	n/a	n/a	n/a	n/a	n/a	10	3	1	6	n/a	n/a	n/a	n/a	n/a
2429.036	n/a	PROB	1214518	n/a	LTP145	ltpFR	8	n/a	n/a	n/a	n/a	n/a	n/a	n/a	11	3	6	2	n/a	n/a	n/a	n/a	n/a
2432.2	n/a	PROB	1216100	n/a	LTP145	ltpFR	8	n/a	n/a	n/a	n/a	n/a	n/a	n/a	18	4	6	8	n/a	n/a	n/a	n/a	n/a
2433.974	n/a	STOP	1216987	n/a	LTP145	ltpFR	8	n/a	n/a	n/a	n/a	n/a	n/a	n/a	n/a	n/a	n/a	n/a	n/a	n/a	n/a	n/a	n/a
2435.474	n/a	WORD	1217737	wordpools/wasnorm_wordpool.txt	LTP145	ltpFR	8	10	1	ROBE	1198	n/a	n/a	0	n/a	0	0	0	0.422607421875	0.5869140625	0	upper	amplitud.ttf
2438.482	n/a	START	1219241	n/a	LTP145	ltpFR	8	n/a	n/a	n/a	n/a	n/a	n/a	n/a	n/a	n/a	n/a	n/a	n/a	n/a	n/a	n/a	n/a
2439.398	n/a	PROB	1219699	n/a	LTP145	ltpFR	8	n/a	n/a	n/a	n/a	n/a	n/a	n/a	9	1	5	3	n/a	n/a	n/a	n/a	n/a
2441.574	n/a	PROB	1220787	n/a	LTP145	ltpFR	8	n/a	n/a	n/a	n/a	n/a	n/a	n/a	19	3	7	9	n/a	n/a	n/a	n/a	n/a
2443.966	n/a	PROB	1221983	n/a	LTP145	ltpFR	8	n/a	n/a	n/a	n/a	n/a	n/a	n/a	21	5	8	8	n/a	n/a	n/a	n/a	n/a
2446.086	n/a	STOP	1223043	n/a	LTP145	ltpFR	8	n/a	n/a	n/a	n/a	n/a	n/a	n/a	n/a	n/a	n/a	n/a	n/a	n/a	n/a	n/a	n/a
2447.338	n/a	WORD	1223669	wordpools/wasnorm_wordpool.txt	LTP145	ltpFR	8	10	1	EWE	542	n/a	n/a	1	n/a	0	0	0	0.422607421875	0.5869140625	0	upper	amplitud.ttf
2450.346	n/a	START	1225173	n/a	LTP145	ltpFR	8	n/a	n/a	n/a	n/a	n/a	n/a	n/a	n/a	n/a	n/a	n/a	n/a	n/a	n/a	n/a	n/a
2451.512	n/a	PROB	1225756	n/a	LTP145	ltpFR	8	n/a	n/a	n/a	n/a	n/a	n/a	n/a	13	5	3	5	n/a	n/a	n/a	n/a	n/a
2453.302	n/a	PROB	1226651	n/a	LTP145	ltpFR	8	n/a	n/a	n/a	n/a	n/a	n/a	n/a	9	3	2	4	n/a	n/a	n/a	n/a	n/a
2455.994	n/a	PROB	1227997	n/a	LTP145	ltpFR	8	n/a	n/a	n/a	n/a	n/a	n/a	n/a	17	5	5	7	n/a	n/a	n/a	n/a	n/a
2457.662	n/a	STOP	1228831	n/a	LTP145	ltpFR	8	n/a	n/a	n/a	n/a	n/a	n/a	n/a	n/a	n/a	n/a	n/a	n/a	n/a	n/a	n/a	n/a
2460.234	n/a	REC_START	1230117	n/a	LTP145	ltpFR	8	10	n/a	n/a	n/a	n/a	n/a	n/a	n/a	0	0	0	n/a	n/a	n/a	n/a	n/a
2462.24	n/a	REC_WORD	1231120	wordpools/wasnorm_wordpool.txt	LTP145	ltpFR	8	10	1	EWE	542	n/a	n/a	1	n/a	0	0	0	n/a	n/a	n/a	n/a	n/a
2464.274	n/a	REC_WORD	1232137	wordpools/wasnorm_wordpool.txt	LTP145	ltpFR	8	10	0	LEVER	815	n/a	n/a	0	n/a	0	0	0	n/a	n/a	n/a	n/a	n/a
2465.702	n/a	REC_WORD	1232851	wordpools/wasnorm_wordpool.txt	LTP145	ltpFR	8	10	0	SOAP	1337	n/a	n/a	0	n/a	0	0	0	n/a	n/a	n/a	n/a	n/a
2467.294	n/a	REC_WORD	1233647	wordpools/wasnorm_wordpool.txt	LTP145	ltpFR	8	10	1	DAISY	435	n/a	n/a	0	n/a	0	0	0	n/a	n/a	n/a	n/a	n/a
2468.69	n/a	REC_WORD	1234345	wordpools/wasnorm_wordpool.txt	LTP145	ltpFR	8	10	1	ORCHID	982	n/a	n/a	0	n/a	0	0	0	n/a	n/a	n/a	n/a	n/a
2496.274	n/a	REC_WORD	1248137	wordpools/wasnorm_wordpool.txt	LTP145	ltpFR	8	10	0	MILK	895	n/a	n/a	0	n/a	0	0	0	n/a	n/a	n/a	n/a	n/a
2500.53	n/a	REC_WORD	1250265	wordpools/wasnorm_wordpool.txt	LTP145	ltpFR	8	10	1	POPCORN	1104	n/a	n/a	0	n/a	0	0	0	n/a	n/a	n/a	n/a	n/a
2535.846	n/a	REST_REWET	1267923	n/a	LTP145	ltpFR	8	10	n/a	n/a	n/a	n/a	n/a	n/a	n/a	0	0	0	n/a	n/a	n/a	n/a	n/a
2793.392	n/a	START	1396696	n/a	LTP145	ltpFR	8	n/a	n/a	n/a	n/a	n/a	n/a	n/a	n/a	n/a	n/a	n/a	n/a	n/a	n/a	n/a	n/a
2794.892	n/a	PROB	1397446	n/a	LTP145	ltpFR	8	n/a	n/a	n/a	n/a	n/a	n/a	n/a	8	2	5	1	n/a	n/a	n/a	n/a	n/a
2797.022	n/a	PROB	1398511	n/a	LTP145	ltpFR	8	n/a	n/a	n/a	n/a	n/a	n/a	n/a	17	5	8	4	n/a	n/a	n/a	n/a	n/a
2799.746	n/a	PROB	1399873	n/a	LTP145	ltpFR	8	n/a	n/a	n/a	n/a	n/a	n/a	n/a	11	6	4	1	n/a	n/a	n/a	n/a	n/a
2801.238	n/a	PROB	1400619	n/a	LTP145	ltpFR	8	n/a	n/a	n/a	n/a	n/a	n/a	n/a	8	2	4	2	n/a	n/a	n/a	n/a	n/a
2803.072	n/a	PROB	1401536	n/a	LTP145	ltpFR	8	n/a	n/a	n/a	n/a	n/a	n/a	n/a	15	5	9	1	n/a	n/a	n/a	n/a	n/a
2805.48	n/a	PROB	1402740	n/a	LTP145	ltpFR	8	n/a	n/a	n/a	n/a	n/a	n/a	n/a	11	2	7	2	n/a	n/a	n/a	n/a	n/a
2807.428	n/a	PROB	1403714	n/a	LTP145	ltpFR	8	n/a	n/a	n/a	n/a	n/a	n/a	n/a	15	1	8	6	n/a	n/a	n/a	n/a	n/a
2809.17	n/a	STOP	1404585	n/a	LTP145	ltpFR	8	n/a	n/a	n/a	n/a	n/a	n/a	n/a	n/a	n/a	n/a	n/a	n/a	n/a	n/a	n/a	n/a
2810.41	n/a	WORD	1405205	wordpools/wasnorm_wordpool.txt	LTP145	ltpFR	8	11	0	HOOK	715	n/a	n/a	0	n/a	0	0	0	0.57763671875	0.412841796875	1	lower	zerothre.ttf
2813.418	n/a	START	1406709	n/a	LTP145	ltpFR	8	n/a	n/a	n/a	n/a	n/a	n/a	n/a	n/a	n/a	n/a	n/a	n/a	n/a	n/a	n/a	n/a
2814.426	n/a	PROB	1407213	n/a	LTP145	ltpFR	8	n/a	n/a	n/a	n/a	n/a	n/a	n/a	16	2	8	6	n/a	n/a	n/a	n/a	n/a
2816.376	n/a	PROB	1408188	n/a	LTP145	ltpFR	8	n/a	n/a	n/a	n/a	n/a	n/a	n/a	21	5	7	9	n/a	n/a	n/a	n/a	n/a
2819.608	n/a	PROB	1409804	n/a	LTP145	ltpFR	8	n/a	n/a	n/a	n/a	n/a	n/a	n/a	17	6	9	2	n/a	n/a	n/a	n/a	n/a
2822.25	n/a	PROB	1411125	n/a	LTP145	ltpFR	8	n/a	n/a	n/a	n/a	n/a	n/a	n/a	10	5	1	4	n/a	n/a	n/a	n/a	n/a
2823.95	n/a	PROB	1411975	n/a	LTP145	ltpFR	8	n/a	n/a	n/a	n/a	n/a	n/a	n/a	20	9	8	3	n/a	n/a	n/a	n/a	n/a
2825.99	n/a	PROB	1412995	n/a	LTP145	ltpFR	8	n/a	n/a	n/a	n/a	n/a	n/a	n/a	13	1	7	5	n/a	n/a	n/a	n/a	n/a
2829.418	n/a	STOP	1414709	n/a	LTP145	ltpFR	8	n/a	n/a	n/a	n/a	n/a	n/a	n/a	n/a	n/a	n/a	n/a	n/a	n/a	n/a	n/a	n/a
2830.322	n/a	WORD	1415161	wordpools/wasnorm_wordpool.txt	LTP145	ltpFR	8	11	0	TROUT	1511	n/a	n/a	0	n/a	0	0	0	0.57763671875	0.412841796875	1	lower	zerothre.ttf
2833.33	n/a	START	1416665	n/a	LTP145	ltpFR	8	n/a	n/a	n/a	n/a	n/a	n/a	n/a	n/a	n/a	n/a	n/a	n/a	n/a	n/a	n/a	n/a
2834.146	n/a	PROB	1417073	n/a	LTP145	ltpFR	8	n/a	n/a	n/a	n/a	n/a	n/a	n/a	20	4	7	9	n/a	n/a	n/a	n/a	n/a
2836.87	n/a	PROB	1418435	n/a	LTP145	ltpFR	8	n/a	n/a	n/a	n/a	n/a	n/a	n/a	14	5	8	1	n/a	n/a	n/a	n/a	n/a
2839.11	n/a	PROB	1419555	n/a	LTP145	ltpFR	8	n/a	n/a	n/a	n/a	n/a	n/a	n/a	15	7	4	4	n/a	n/a	n/a	n/a	n/a
2841.302	n/a	PROB	1420651	n/a	LTP145	ltpFR	8	n/a	n/a	n/a	n/a	n/a	n/a	n/a	15	1	9	5	n/a	n/a	n/a	n/a	n/a
2843.268	n/a	PROB	1421634	n/a	LTP145	ltpFR	8	n/a	n/a	n/a	n/a	n/a	n/a	n/a	19	7	3	9	n/a	n/a	n/a	n/a	n/a
2845.134	n/a	PROB	1422567	n/a	LTP145	ltpFR	8	n/a	n/a	n/a	n/a	n/a	n/a	n/a	14	5	6	3	n/a	n/a	n/a	n/a	n/a
2847.084	n/a	PROB	1423542	n/a	LTP145	ltpFR	8	n/a	n/a	n/a	n/a	n/a	n/a	n/a	6	1	2	3	n/a	n/a	n/a	n/a	n/a
2848.612	n/a	STOP	1424306	n/a	LTP145	ltpFR	8	n/a	n/a	n/a	n/a	n/a	n/a	n/a	n/a	n/a	n/a	n/a	n/a	n/a	n/a	n/a	n/a
2850.206	n/a	WORD	1425103	wordpools/wasnorm_wordpool.txt	LTP145	ltpFR	8	11	1	CUP	424	n/a	n/a	0	n/a	0	0	0	0.422607421875	0.5869140625	0	upper	amplitud.ttf
2853.214	n/a	START	1426607	n/a	LTP145	ltpFR	8	n/a	n/a	n/a	n/a	n/a	n/a	n/a	n/a	n/a	n/a	n/a	n/a	n/a	n/a	n/a	n/a
2854.156	n/a	PROB	1427078	n/a	LTP145	ltpFR	8	n/a	n/a	n/a	n/a	n/a	n/a	n/a	10	4	5	1	n/a	n/a	n/a	n/a	n/a
2855.746	n/a	PROB	1427873	n/a	LTP145	ltpFR	8	n/a	n/a	n/a	n/a	n/a	n/a	n/a	14	5	8	1	n/a	n/a	n/a	n/a	n/a
2857.77	n/a	PROB	1428885	n/a	LTP145	ltpFR	8	n/a	n/a	n/a	n/a	n/a	n/a	n/a	7	5	1	1	n/a	n/a	n/a	n/a	n/a
2859.53	n/a	PROB	1429765	n/a	LTP145	ltpFR	8	n/a	n/a	n/a	n/a	n/a	n/a	n/a	12	8	1	3	n/a	n/a	n/a	n/a	n/a
2862.972	n/a	PROB	1431486	n/a	LTP145	ltpFR	8	n/a	n/a	n/a	n/a	n/a	n/a	n/a	16	7	5	4	n/a	n/a	n/a	n/a	n/a
2869.214	n/a	STOP	1434607	n/a	LTP145	ltpFR	8	n/a	n/a	n/a	n/a	n/a	n/a	n/a	n/a	n/a	n/a	n/a	n/a	n/a	n/a	n/a	n/a
2870.184	n/a	WORD	1435092	wordpools/wasnorm_wordpool.txt	LTP145	ltpFR	8	11	1	MAGNET	855	n/a	n/a	0	n/a	0	0	0	0.422607421875	0.5869140625	0	upper	amplitud.ttf
2873.2	n/a	START	1436600	n/a	LTP145	ltpFR	8	n/a	n/a	n/a	n/a	n/a	n/a	n/a	n/a	n/a	n/a	n/a	n/a	n/a	n/a	n/a	n/a
2874.34	n/a	PROB	1437170	n/a	LTP145	ltpFR	8	n/a	n/a	n/a	n/a	n/a	n/a	n/a	13	6	4	3	n/a	n/a	n/a	n/a	n/a
2875.866	n/a	PROB	1437933	n/a	LTP145	ltpFR	8	n/a	n/a	n/a	n/a	n/a	n/a	n/a	17	3	7	7	n/a	n/a	n/a	n/a	n/a
2878.666	n/a	PROB	1439333	n/a	LTP145	ltpFR	8	n/a	n/a	n/a	n/a	n/a	n/a	n/a	12	5	6	1	n/a	n/a	n/a	n/a	n/a
2880.882	n/a	PROB	1440441	n/a	LTP145	ltpFR	8	n/a	n/a	n/a	n/a	n/a	n/a	n/a	11	7	3	1	n/a	n/a	n/a	n/a	n/a
2882.39	n/a	PROB	1441195	n/a	LTP145	ltpFR	8	n/a	n/a	n/a	n/a	n/a	n/a	n/a	20	9	4	7	n/a	n/a	n/a	n/a	n/a
2885.296	n/a	PROB	1442648	n/a	LTP145	ltpFR	8	n/a	n/a	n/a	n/a	n/a	n/a	n/a	8	6	1	1	n/a	n/a	n/a	n/a	n/a
2886.864	n/a	PROB	1443432	n/a	LTP145	ltpFR	8	n/a	n/a	n/a	n/a	n/a	n/a	n/a	17	5	7	5	n/a	n/a	n/a	n/a	n/a
2888.502	n/a	STOP	1444251	n/a	LTP145	ltpFR	8	n/a	n/a	n/a	n/a	n/a	n/a	n/a	n/a	n/a	n/a	n/a	n/a	n/a	n/a	n/a	n/a
2890.012	n/a	WORD	1445006	wordpools/wasnorm_wordpool.txt	LTP145	ltpFR	8	11	0	DRUM	502	n/a	n/a	2	n/a	0	0	0	0.57763671875	0.412841796875	1	lower	zerothre.ttf
2891.42	n/a	KEY_MSG	1445710	n/a	LTP145	ltpFR	8	11	n/a	n/a	n/a	n/a	n/a	n/a	n/a	0	0	0	n/a	n/a	n/a	n/a	n/a
2893.02	n/a	START	1446510	n/a	LTP145	ltpFR	8	n/a	n/a	n/a	n/a	n/a	n/a	n/a	n/a	n/a	n/a	n/a	n/a	n/a	n/a	n/a	n/a
2894.218	n/a	PROB	1447109	n/a	LTP145	ltpFR	8	n/a	n/a	n/a	n/a	n/a	n/a	n/a	13	4	3	6	n/a	n/a	n/a	n/a	n/a
2896.626	n/a	PROB	1448313	n/a	LTP145	ltpFR	8	n/a	n/a	n/a	n/a	n/a	n/a	n/a	22	9	5	8	n/a	n/a	n/a	n/a	n/a
2900.118	n/a	PROB	1450059	n/a	LTP145	ltpFR	8	n/a	n/a	n/a	n/a	n/a	n/a	n/a	18	1	8	9	n/a	n/a	n/a	n/a	n/a
2902.366	n/a	PROB	1451183	n/a	LTP145	ltpFR	8	n/a	n/a	n/a	n/a	n/a	n/a	n/a	18	8	3	7	n/a	n/a	n/a	n/a	n/a
2904.174	n/a	PROB	1452087	n/a	LTP145	ltpFR	8	n/a	n/a	n/a	n/a	n/a	n/a	n/a	13	3	4	6	n/a	n/a	n/a	n/a	n/a
2906.04	n/a	PROB	1453020	n/a	LTP145	ltpFR	8	n/a	n/a	n/a	n/a	n/a	n/a	n/a	15	5	8	2	n/a	n/a	n/a	n/a	n/a
2908.07	n/a	STOP	1454035	n/a	LTP145	ltpFR	8	n/a	n/a	n/a	n/a	n/a	n/a	n/a	n/a	n/a	n/a	n/a	n/a	n/a	n/a	n/a	n/a
2910.214	n/a	WORD	1455107	wordpools/wasnorm_wordpool.txt	LTP145	ltpFR	8	11	0	BATH	98	n/a	n/a	1	n/a	0	0	0	0.57763671875	0.412841796875	1	lower	zerothre.ttf
2913.222	n/a	START	1456611	n/a	LTP145	ltpFR	8	n/a	n/a	n/a	n/a	n/a	n/a	n/a	n/a	n/a	n/a	n/a	n/a	n/a	n/a	n/a	n/a
2914.062	n/a	PROB	1457031	n/a	LTP145	ltpFR	8	n/a	n/a	n/a	n/a	n/a	n/a	n/a	12	2	7	3	n/a	n/a	n/a	n/a	n/a
2916.304	n/a	PROB	1458152	n/a	LTP145	ltpFR	8	n/a	n/a	n/a	n/a	n/a	n/a	n/a	6	4	1	1	n/a	n/a	n/a	n/a	n/a
2917.804	n/a	PROB	1458902	n/a	LTP145	ltpFR	8	n/a	n/a	n/a	n/a	n/a	n/a	n/a	17	7	4	6	n/a	n/a	n/a	n/a	n/a
2919.42	n/a	PROB	1459710	n/a	LTP145	ltpFR	8	n/a	n/a	n/a	n/a	n/a	n/a	n/a	18	8	2	8	n/a	n/a	n/a	n/a	n/a
2921.228	n/a	PROB	1460614	n/a	LTP145	ltpFR	8	n/a	n/a	n/a	n/a	n/a	n/a	n/a	22	9	5	8	n/a	n/a	n/a	n/a	n/a
2924.11	n/a	PROB	1462055	n/a	LTP145	ltpFR	8	n/a	n/a	n/a	n/a	n/a	n/a	n/a	7	1	1	5	n/a	n/a	n/a	n/a	n/a
2926.15	n/a	PROB	1463075	n/a	LTP145	ltpFR	8	n/a	n/a	n/a	n/a	n/a	n/a	n/a	20	4	9	7	n/a	n/a	n/a	n/a	n/a
2928.952	n/a	STOP	1464476	n/a	LTP145	ltpFR	8	n/a	n/a	n/a	n/a	n/a	n/a	n/a	n/a	n/a	n/a	n/a	n/a	n/a	n/a	n/a	n/a
2930.14	n/a	WORD	1465070	wordpools/wasnorm_wordpool.txt	LTP145	ltpFR	8	11	1	SIBLING	1301	n/a	n/a	1	n/a	0	0	0	0.422607421875	0.5869140625	0	upper	amplitud.ttf
2933.148	n/a	START	1466574	n/a	LTP145	ltpFR	8	n/a	n/a	n/a	n/a	n/a	n/a	n/a	n/a	n/a	n/a	n/a	n/a	n/a	n/a	n/a	n/a
2934.172	n/a	PROB	1467086	n/a	LTP145	ltpFR	8	n/a	n/a	n/a	n/a	n/a	n/a	n/a	13	4	7	2	n/a	n/a	n/a	n/a	n/a
2937.156	n/a	PROB	1468578	n/a	LTP145	ltpFR	8	n/a	n/a	n/a	n/a	n/a	n/a	n/a	15	5	3	7	n/a	n/a	n/a	n/a	n/a
2938.84	n/a	PROB	1469420	n/a	LTP145	ltpFR	8	n/a	n/a	n/a	n/a	n/a	n/a	n/a	9	5	1	3	n/a	n/a	n/a	n/a	n/a
2940.746	n/a	PROB	1470373	n/a	LTP145	ltpFR	8	n/a	n/a	n/a	n/a	n/a	n/a	n/a	22	5	8	9	n/a	n/a	n/a	n/a	n/a
2943.586	n/a	PROB	1471793	n/a	LTP145	ltpFR	8	n/a	n/a	n/a	n/a	n/a	n/a	n/a	13	5	6	2	n/a	n/a	n/a	n/a	n/a
2945.612	n/a	PROB	1472806	n/a	LTP145	ltpFR	8	n/a	n/a	n/a	n/a	n/a	n/a	n/a	8	1	2	5	n/a	n/a	n/a	n/a	n/a
2949.15	n/a	STOP	1474575	n/a	LTP145	ltpFR	8	n/a	n/a	n/a	n/a	n/a	n/a	n/a	n/a	n/a	n/a	n/a	n/a	n/a	n/a	n/a	n/a
2950.234	n/a	WORD	1475117	wordpools/wasnorm_wordpool.txt	LTP145	ltpFR	8	11	1	SHED	1277	n/a	n/a	0	n/a	0	0	0	0.422607421875	0.5869140625	0	upper	amplitud.ttf
2953.242	n/a	START	1476621	n/a	LTP145	ltpFR	8	n/a	n/a	n/a	n/a	n/a	n/a	n/a	n/a	n/a	n/a	n/a	n/a	n/a	n/a	n/a	n/a
2954.392	n/a	PROB	1477196	n/a	LTP145	ltpFR	8	n/a	n/a	n/a	n/a	n/a	n/a	n/a	17	7	5	5	n/a	n/a	n/a	n/a	n/a
2956.042	n/a	PROB	1478021	n/a	LTP145	ltpFR	8	n/a	n/a	n/a	n/a	n/a	n/a	n/a	9	3	2	4	n/a	n/a	n/a	n/a	n/a
2958.708	n/a	PROB	1479354	n/a	LTP145	ltpFR	8	n/a	n/a	n/a	n/a	n/a	n/a	n/a	10	2	2	6	n/a	n/a	n/a	n/a	n/a
2960.85	n/a	PROB	1480425	n/a	LTP145	ltpFR	8	n/a	n/a	n/a	n/a	n/a	n/a	n/a	13	4	2	7	n/a	n/a	n/a	n/a	n/a
2963.498	n/a	PROB	1481749	n/a	LTP145	ltpFR	8	n/a	n/a	n/a	n/a	n/a	n/a	n/a	19	7	7	5	n/a	n/a	n/a	n/a	n/a
2966.43	n/a	PROB	1483215	n/a	LTP145	ltpFR	8	n/a	n/a	n/a	n/a	n/a	n/a	n/a	11	3	2	6	n/a	n/a	n/a	n/a	n/a
2968.69	n/a	STOP	1484345	n/a	LTP145	ltpFR	8	n/a	n/a	n/a	n/a	n/a	n/a	n/a	n/a	n/a	n/a	n/a	n/a	n/a	n/a	n/a	n/a
2970.112	n/a	WORD	1485056	wordpools/wasnorm_wordpool.txt	LTP145	ltpFR	8	11	1	DOG	480	n/a	n/a	1	n/a	0	0	0	0.422607421875	0.5869140625	0	upper	amplitud.ttf
2973.12	n/a	START	1486560	n/a	LTP145	ltpFR	8	n/a	n/a	n/a	n/a	n/a	n/a	n/a	n/a	n/a	n/a	n/a	n/a	n/a	n/a	n/a	n/a
2974.186	n/a	PROB	1487093	n/a	LTP145	ltpFR	8	n/a	n/a	n/a	n/a	n/a	n/a	n/a	22	7	9	6	n/a	n/a	n/a	n/a	n/a
2976.87	n/a	PROB	1488435	n/a	LTP145	ltpFR	8	n/a	n/a	n/a	n/a	n/a	n/a	n/a	7	1	5	1	n/a	n/a	n/a	n/a	n/a
2978.82	n/a	PROB	1489410	n/a	LTP145	ltpFR	8	n/a	n/a	n/a	n/a	n/a	n/a	n/a	13	1	5	7	n/a	n/a	n/a	n/a	n/a
2980.618	n/a	PROB	1490309	n/a	LTP145	ltpFR	8	n/a	n/a	n/a	n/a	n/a	n/a	n/a	15	5	5	5	n/a	n/a	n/a	n/a	n/a
2981.952	n/a	PROB	1490976	n/a	LTP145	ltpFR	8	n/a	n/a	n/a	n/a	n/a	n/a	n/a	17	8	7	2	n/a	n/a	n/a	n/a	n/a
2985.29	n/a	PROB	1492645	n/a	LTP145	ltpFR	8	n/a	n/a	n/a	n/a	n/a	n/a	n/a	16	4	5	7	n/a	n/a	n/a	n/a	n/a
2987.626	n/a	STOP	1493813	n/a	LTP145	ltpFR	8	n/a	n/a	n/a	n/a	n/a	n/a	n/a	n/a	n/a	n/a	n/a	n/a	n/a	n/a	n/a	n/a
2990.106	n/a	WORD	1495053	wordpools/wasnorm_wordpool.txt	LTP145	ltpFR	8	11	1	TEAPOT	1442	n/a	n/a	0	n/a	0	0	0	0.422607421875	0.5869140625	0	upper	amplitud.ttf
2993.114	n/a	START	1496557	n/a	LTP145	ltpFR	8	n/a	n/a	n/a	n/a	n/a	n/a	n/a	n/a	n/a	n/a	n/a	n/a	n/a	n/a	n/a	n/a
2994.188	n/a	PROB	1497094	n/a	LTP145	ltpFR	8	n/a	n/a	n/a	n/a	n/a	n/a	n/a	22	6	9	8	n/a	n/a	n/a	n/a	n/a
2997.312	n/a	PROB	1498656	n/a	LTP145	ltpFR	8	n/a	n/a	n/a	n/a	n/a	n/a	n/a	12	2	2	8	n/a	n/a	n/a	n/a	n/a
2999.62	n/a	PROB	1499810	n/a	LTP145	ltpFR	8	n/a	n/a	n/a	n/a	n/a	n/a	n/a	21	7	6	8	n/a	n/a	n/a	n/a	n/a
3003.144	n/a	PROB	1501572	n/a	LTP145	ltpFR	8	n/a	n/a	n/a	n/a	n/a	n/a	n/a	12	3	4	5	n/a	n/a	n/a	n/a	n/a
3005.226	n/a	PROB	1502613	n/a	LTP145	ltpFR	8	n/a	n/a	n/a	n/a	n/a	n/a	n/a	23	9	6	8	n/a	n/a	n/a	n/a	n/a
3008.316	n/a	STOP	1504158	n/a	LTP145	ltpFR	8	n/a	n/a	n/a	n/a	n/a	n/a	n/a	n/a	n/a	n/a	n/a	n/a	n/a	n/a	n/a	n/a
3010.018	n/a	WORD	1505009	wordpools/wasnorm_wordpool.txt	LTP145	ltpFR	8	11	1	TOMATO	1476	n/a	n/a	0	n/a	0	0	0	0.422607421875	0.5869140625	0	upper	amplitud.ttf
3013.026	n/a	START	1506513	n/a	LTP145	ltpFR	8	n/a	n/a	n/a	n/a	n/a	n/a	n/a	n/a	n/a	n/a	n/a	n/a	n/a	n/a	n/a	n/a
3014.04	n/a	PROB	1507020	n/a	LTP145	ltpFR	8	n/a	n/a	n/a	n/a	n/a	n/a	n/a	11	4	1	6	n/a	n/a	n/a	n/a	n/a
3015.648	n/a	PROB	1507824	n/a	LTP145	ltpFR	8	n/a	n/a	n/a	n/a	n/a	n/a	n/a	19	6	9	4	n/a	n/a	n/a	n/a	n/a
3018.448	n/a	PROB	1509224	n/a	LTP145	ltpFR	8	n/a	n/a	n/a	n/a	n/a	n/a	n/a	6	1	4	1	n/a	n/a	n/a	n/a	n/a
3019.94	n/a	PROB	1509970	n/a	LTP145	ltpFR	8	n/a	n/a	n/a	n/a	n/a	n/a	n/a	15	6	8	1	n/a	n/a	n/a	n/a	n/a
3021.554	n/a	PROB	1510777	n/a	LTP145	ltpFR	8	n/a	n/a	n/a	n/a	n/a	n/a	n/a	12	1	3	8	n/a	n/a	n/a	n/a	n/a
3023.538	n/a	PROB	1511769	n/a	LTP145	ltpFR	8	n/a	n/a	n/a	n/a	n/a	n/a	n/a	17	8	2	7	n/a	n/a	n/a	n/a	n/a
3025.404	n/a	PROB	1512702	n/a	LTP145	ltpFR	8	n/a	n/a	n/a	n/a	n/a	n/a	n/a	19	8	6	5	n/a	n/a	n/a	n/a	n/a
3028.1	n/a	STOP	1514050	n/a	LTP145	ltpFR	8	n/a	n/a	n/a	n/a	n/a	n/a	n/a	n/a	n/a	n/a	n/a	n/a	n/a	n/a	n/a	n/a
3030.094	n/a	WORD	1515047	wordpools/wasnorm_wordpool.txt	LTP145	ltpFR	8	11	1	CITRUS	313	n/a	n/a	0	n/a	0	0	0	0.422607421875	0.5869140625	0	upper	amplitud.ttf
3033.102	n/a	START	1516551	n/a	LTP145	ltpFR	8	n/a	n/a	n/a	n/a	n/a	n/a	n/a	n/a	n/a	n/a	n/a	n/a	n/a	n/a	n/a	n/a
3034.06	n/a	PROB	1517030	n/a	LTP145	ltpFR	8	n/a	n/a	n/a	n/a	n/a	n/a	n/a	17	7	6	4	n/a	n/a	n/a	n/a	n/a
3035.542	n/a	PROB	1517771	n/a	LTP145	ltpFR	8	n/a	n/a	n/a	n/a	n/a	n/a	n/a	14	7	6	1	n/a	n/a	n/a	n/a	n/a
3037.784	n/a	PROB	1518892	n/a	LTP145	ltpFR	8	n/a	n/a	n/a	n/a	n/a	n/a	n/a	22	8	7	7	n/a	n/a	n/a	n/a	n/a
3041.44	n/a	PROB	1520720	n/a	LTP145	ltpFR	8	n/a	n/a	n/a	n/a	n/a	n/a	n/a	7	1	5	1	n/a	n/a	n/a	n/a	n/a
3043.34	n/a	PROB	1521670	n/a	LTP145	ltpFR	8	n/a	n/a	n/a	n/a	n/a	n/a	n/a	14	2	8	4	n/a	n/a	n/a	n/a	n/a
3045.056	n/a	PROB	1522528	n/a	LTP145	ltpFR	8	n/a	n/a	n/a	n/a	n/a	n/a	n/a	23	9	6	8	n/a	n/a	n/a	n/a	n/a
3048.046	n/a	STOP	1524023	n/a	LTP145	ltpFR	8	n/a	n/a	n/a	n/a	n/a	n/a	n/a	n/a	n/a	n/a	n/a	n/a	n/a	n/a	n/a	n/a
3050.054	n/a	WORD	1525027	wordpools/wasnorm_wordpool.txt	LTP145	ltpFR	8	11	0	ASTRONAUT	51	n/a	n/a	1	n/a	0	0	0	0.57763671875	0.412841796875	1	lower	zerothre.ttf
3053.062	n/a	START	1526531	n/a	LTP145	ltpFR	8	n/a	n/a	n/a	n/a	n/a	n/a	n/a	n/a	n/a	n/a	n/a	n/a	n/a	n/a	n/a	n/a
3054.062	n/a	PROB	1527031	n/a	LTP145	ltpFR	8	n/a	n/a	n/a	n/a	n/a	n/a	n/a	14	3	6	5	n/a	n/a	n/a	n/a	n/a
3056.502	n/a	PROB	1528251	n/a	LTP145	ltpFR	8	n/a	n/a	n/a	n/a	n/a	n/a	n/a	17	7	2	8	n/a	n/a	n/a	n/a	n/a
3058.102	n/a	PROB	1529051	n/a	LTP145	ltpFR	8	n/a	n/a	n/a	n/a	n/a	n/a	n/a	13	2	8	3	n/a	n/a	n/a	n/a	n/a
3060.584	n/a	PROB	1530292	n/a	LTP145	ltpFR	8	n/a	n/a	n/a	n/a	n/a	n/a	n/a	18	6	4	8	n/a	n/a	n/a	n/a	n/a
3062.1	n/a	PROB	1531050	n/a	LTP145	ltpFR	8	n/a	n/a	n/a	n/a	n/a	n/a	n/a	18	5	5	8	n/a	n/a	n/a	n/a	n/a
3063.642	n/a	PROB	1531821	n/a	LTP145	ltpFR	8	n/a	n/a	n/a	n/a	n/a	n/a	n/a	7	4	1	2	n/a	n/a	n/a	n/a	n/a
3065.432	n/a	PROB	1532716	n/a	LTP145	ltpFR	8	n/a	n/a	n/a	n/a	n/a	n/a	n/a	10	2	6	2	n/a	n/a	n/a	n/a	n/a
3069.064	n/a	STOP	1534532	n/a	LTP145	ltpFR	8	n/a	n/a	n/a	n/a	n/a	n/a	n/a	n/a	n/a	n/a	n/a	n/a	n/a	n/a	n/a	n/a
3070.09	n/a	WORD	1535045	wordpools/wasnorm_wordpool.txt	LTP145	ltpFR	8	11	0	CANDIDATE	228	n/a	n/a	1	n/a	0	0	0	0.57763671875	0.412841796875	1	lower	zerothre.ttf
3073.098	n/a	START	1536549	n/a	LTP145	ltpFR	8	n/a	n/a	n/a	n/a	n/a	n/a	n/a	n/a	n/a	n/a	n/a	n/a	n/a	n/a	n/a	n/a
3073.956	n/a	PROB	1536978	n/a	LTP145	ltpFR	8	n/a	n/a	n/a	n/a	n/a	n/a	n/a	13	6	3	4	n/a	n/a	n/a	n/a	n/a
3075.438	n/a	PROB	1537719	n/a	LTP145	ltpFR	8	n/a	n/a	n/a	n/a	n/a	n/a	n/a	10	3	4	3	n/a	n/a	n/a	n/a	n/a
3077.696	n/a	PROB	1538848	n/a	LTP145	ltpFR	8	n/a	n/a	n/a	n/a	n/a	n/a	n/a	14	2	5	7	n/a	n/a	n/a	n/a	n/a
3079.988	n/a	PROB	1539994	n/a	LTP145	ltpFR	8	n/a	n/a	n/a	n/a	n/a	n/a	n/a	20	5	6	9	n/a	n/a	n/a	n/a	n/a
3081.996	n/a	PROB	1540998	n/a	LTP145	ltpFR	8	n/a	n/a	n/a	n/a	n/a	n/a	n/a	15	6	3	6	n/a	n/a	n/a	n/a	n/a
3084.004	n/a	PROB	1542002	n/a	LTP145	ltpFR	8	n/a	n/a	n/a	n/a	n/a	n/a	n/a	14	4	3	7	n/a	n/a	n/a	n/a	n/a
3089.1	n/a	STOP	1544550	n/a	LTP145	ltpFR	8	n/a	n/a	n/a	n/a	n/a	n/a	n/a	n/a	n/a	n/a	n/a	n/a	n/a	n/a	n/a	n/a
3090.284	n/a	WORD	1545142	wordpools/wasnorm_wordpool.txt	LTP145	ltpFR	8	11	0	RECORD	1176	n/a	n/a	0	n/a	0	0	0	0.57763671875	0.412841796875	1	lower	zerothre.ttf
3093.292	n/a	START	1546646	n/a	LTP145	ltpFR	8	n/a	n/a	n/a	n/a	n/a	n/a	n/a	n/a	n/a	n/a	n/a	n/a	n/a	n/a	n/a	n/a
3094.482	n/a	PROB	1547241	n/a	LTP145	ltpFR	8	n/a	n/a	n/a	n/a	n/a	n/a	n/a	18	5	5	8	n/a	n/a	n/a	n/a	n/a
3095.992	n/a	PROB	1547996	n/a	LTP145	ltpFR	8	n/a	n/a	n/a	n/a	n/a	n/a	n/a	17	8	5	4	n/a	n/a	n/a	n/a	n/a
3098.348	n/a	PROB	1549174	n/a	LTP145	ltpFR	8	n/a	n/a	n/a	n/a	n/a	n/a	n/a	14	5	7	2	n/a	n/a	n/a	n/a	n/a
3101.238	n/a	PROB	1550619	n/a	LTP145	ltpFR	8	n/a	n/a	n/a	n/a	n/a	n/a	n/a	12	6	1	5	n/a	n/a	n/a	n/a	n/a
3103.254	n/a	PROB	1551627	n/a	LTP145	ltpFR	8	n/a	n/a	n/a	n/a	n/a	n/a	n/a	12	3	8	1	n/a	n/a	n/a	n/a	n/a
3105.67	n/a	PROB	1552835	n/a	LTP145	ltpFR	8	n/a	n/a	n/a	n/a	n/a	n/a	n/a	18	7	2	9	n/a	n/a	n/a	n/a	n/a
3108.082	n/a	STOP	1554041	n/a	LTP145	ltpFR	8	n/a	n/a	n/a	n/a	n/a	n/a	n/a	n/a	n/a	n/a	n/a	n/a	n/a	n/a	n/a	n/a
3110.32	n/a	WORD	1555160	wordpools/wasnorm_wordpool.txt	LTP145	ltpFR	8	11	0	LAGOON	795	n/a	n/a	1	n/a	0	0	0	0.57763671875	0.412841796875	1	lower	zerothre.ttf
3113.328	n/a	START	1556664	n/a	LTP145	ltpFR	8	n/a	n/a	n/a	n/a	n/a	n/a	n/a	n/a	n/a	n/a	n/a	n/a	n/a	n/a	n/a	n/a
3114.268	n/a	PROB	1557134	n/a	LTP145	ltpFR	8	n/a	n/a	n/a	n/a	n/a	n/a	n/a	11	3	2	6	n/a	n/a	n/a	n/a	n/a
3116.092	n/a	PROB	1558046	n/a	LTP145	ltpFR	8	n/a	n/a	n/a	n/a	n/a	n/a	n/a	19	3	9	7	n/a	n/a	n/a	n/a	n/a
3118.134	n/a	PROB	1559067	n/a	LTP145	ltpFR	8	n/a	n/a	n/a	n/a	n/a	n/a	n/a	12	1	4	7	n/a	n/a	n/a	n/a	n/a
3121.24	n/a	PROB	1560620	n/a	LTP145	ltpFR	8	n/a	n/a	n/a	n/a	n/a	n/a	n/a	12	1	3	8	n/a	n/a	n/a	n/a	n/a
3124.248	n/a	PROB	1562124	n/a	LTP145	ltpFR	8	n/a	n/a	n/a	n/a	n/a	n/a	n/a	20	7	6	7	n/a	n/a	n/a	n/a	n/a
3126.382	n/a	PROB	1563191	n/a	LTP145	ltpFR	8	n/a	n/a	n/a	n/a	n/a	n/a	n/a	17	7	9	1	n/a	n/a	n/a	n/a	n/a
3127.964	n/a	STOP	1563982	n/a	LTP145	ltpFR	8	n/a	n/a	n/a	n/a	n/a	n/a	n/a	n/a	n/a	n/a	n/a	n/a	n/a	n/a	n/a	n/a
3131.114	n/a	REC_START	1565557	n/a	LTP145	ltpFR	8	11	n/a	n/a	n/a	n/a	n/a	n/a	n/a	0	0	0	n/a	n/a	n/a	n/a	n/a
3133.918	n/a	REC_WORD	1566959	wordpools/wasnorm_wordpool.txt	LTP145	ltpFR	8	11	0	LAGOON	795	n/a	n/a	1	n/a	0	0	0	n/a	n/a	n/a	n/a	n/a
3142.184	n/a	REC_WORD	1571092	wordpools/wasnorm_wordpool.txt	LTP145	ltpFR	8	11	1	DOG	480	n/a	n/a	1	n/a	0	0	0	n/a	n/a	n/a	n/a	n/a
3154.956	n/a	REC_WORD	1577478	wordpools/wasnorm_wordpool.txt	LTP145	ltpFR	8	11	1	TOMATO	1476	n/a	n/a	0	n/a	0	0	0	n/a	n/a	n/a	n/a	n/a
3168.496	n/a	REC_WORD	1584248	wordpools/wasnorm_wordpool.txt	LTP145	ltpFR	8	11	0	CANDIDATE	228	n/a	n/a	1	n/a	0	0	0	n/a	n/a	n/a	n/a	n/a
3210.248	n/a	WORD	1605124	wordpools/wasnorm_wordpool.txt	LTP145	ltpFR	8	12	0	CAVE	263	n/a	n/a	1	n/a	0	0	0	0.57763671875	0.412841796875	1	lower	zerothre.ttf
3214.254	n/a	WORD	1607127	wordpools/wasnorm_wordpool.txt	LTP145	ltpFR	8	12	0	HEDGE	699	n/a	n/a	1	n/a	0	0	0	0.57763671875	0.412841796875	1	lower	zerothre.ttf
3218.186	n/a	WORD	1609093	wordpools/wasnorm_wordpool.txt	LTP145	ltpFR	8	12	0	BROCCOLI	176	n/a	n/a	0	n/a	0	0	0	0.57763671875	0.412841796875	1	lower	zerothre.ttf
3222.302	n/a	WORD	1611151	wordpools/wasnorm_wordpool.txt	LTP145	ltpFR	8	12	1	PIGEON	1065	n/a	n/a	1	n/a	0	0	0	0.422607421875	0.5869140625	0	upper	amplitud.ttf
3226.284	n/a	WORD	1613142	wordpools/wasnorm_wordpool.txt	LTP145	ltpFR	8	12	1	QUAIL	1147	n/a	n/a	1	n/a	0	0	0	0.422607421875	0.5869140625	0	upper	amplitud.ttf
3230.284	n/a	WORD	1615142	wordpools/wasnorm_wordpool.txt	LTP145	ltpFR	8	12	1	EMPLOYEE	531	n/a	n/a	1	n/a	0	0	0	0.422607421875	0.5869140625	0	upper	amplitud.ttf
3234.498	n/a	WORD	1617249	wordpools/wasnorm_wordpool.txt	LTP145	ltpFR	8	12	1	BUTTERFLY	206	n/a	n/a	1	n/a	0	0	0	0.422607421875	0.5869140625	0	upper	amplitud.ttf
3238.53	n/a	WORD	1619265	wordpools/wasnorm_wordpool.txt	LTP145	ltpFR	8	12	1	PAW	1029	n/a	n/a	0	n/a	0	0	0	0.422607421875	0.5869140625	0	upper	amplitud.ttf
