mstime	trial_type	stim_file	subject	experiment	session	trial	item_name	item_num	list	answer	test_x	test_y	test_z
0	SESS_START	n/a	LTP316	ltpFR2	2	n/a	n/a	n/a	n/a	n/a	0	0	0
31245	START	n/a	LTP316	ltpFR2	2	n/a	n/a	n/a	-1	n/a	n/a	n/a	n/a
31276	PROB	n/a	LTP316	ltpFR2	2	n/a	n/a	n/a	-1	18	7	6	5
34296	PROB	n/a	LTP316	ltpFR2	2	n/a	n/a	n/a	-1	12	6	4	2
35764	PROB	n/a	LTP316	ltpFR2	2	n/a	n/a	n/a	-1	18	7	7	4
38017	PROB	n/a	LTP316	ltpFR2	2	n/a	n/a	n/a	-1	4	1	2	1
39751	PROB	n/a	LTP316	ltpFR2	2	n/a	n/a	n/a	-1	15	5	9	2
43245	STOP	n/a	LTP316	ltpFR2	2	n/a	n/a	n/a	-1	n/a	n/a	n/a	n/a
107259	WORD	wordpools/wasnorm_wordpool_576.txt	LTP316	ltpFR2	2	1	COMET	353	n/a	n/a	0	0	0
109846	WORD	wordpools/wasnorm_wordpool_576.txt	LTP316	ltpFR2	2	1	AIRPLANE	12	n/a	n/a	0	0	0
112681	WORD	wordpools/wasnorm_wordpool_576.txt	LTP316	ltpFR2	2	1	SCISSORS	1250	n/a	n/a	0	0	0
115216	WORD	wordpools/wasnorm_wordpool_576.txt	LTP316	ltpFR2	2	1	DENTIST	447	n/a	n/a	0	0	0
117936	WORD	wordpools/wasnorm_wordpool_576.txt	LTP316	ltpFR2	2	1	CARROT	249	n/a	n/a	0	0	0
120688	WORD	wordpools/wasnorm_wordpool_576.txt	LTP316	ltpFR2	2	1	DASHBOARD	441	n/a	n/a	0	0	0
123524	WORD	wordpools/wasnorm_wordpool_576.txt	LTP316	ltpFR2	2	1	BIKE	125	n/a	n/a	0	0	0
126060	WORD	wordpools/wasnorm_wordpool_576.txt	LTP316	ltpFR2	2	1	ORANGE	980	n/a	n/a	0	0	0
128545	WORD	wordpools/wasnorm_wordpool_576.txt	LTP316	ltpFR2	2	1	FRAGRANCE	599	n/a	n/a	0	0	0
131048	WORD	wordpools/wasnorm_wordpool_576.txt	LTP316	ltpFR2	2	1	PERFUME	1049	n/a	n/a	0	0	0
133800	WORD	wordpools/wasnorm_wordpool_576.txt	LTP316	ltpFR2	2	1	BUCKET	184	n/a	n/a	0	0	0
136536	WORD	wordpools/wasnorm_wordpool_576.txt	LTP316	ltpFR2	2	1	BRACES	164	n/a	n/a	0	0	0
139337	WORD	wordpools/wasnorm_wordpool_576.txt	LTP316	ltpFR2	2	1	SMOG	1330	n/a	n/a	0	0	0
142106	WORD	wordpools/wasnorm_wordpool_576.txt	LTP316	ltpFR2	2	1	STICKER	1382	n/a	n/a	0	0	0
144910	WORD	wordpools/wasnorm_wordpool_576.txt	LTP316	ltpFR2	2	1	BUTCHER	203	n/a	n/a	0	0	0
147745	WORD	wordpools/wasnorm_wordpool_576.txt	LTP316	ltpFR2	2	1	FRIAR	605	n/a	n/a	0	0	0
150347	WORD	wordpools/wasnorm_wordpool_576.txt	LTP316	ltpFR2	2	1	SALT	1229	n/a	n/a	0	0	0
152967	WORD	wordpools/wasnorm_wordpool_576.txt	LTP316	ltpFR2	2	1	PLATE	1086	n/a	n/a	0	0	0
155485	WORD	wordpools/wasnorm_wordpool_576.txt	LTP316	ltpFR2	2	1	PROTON	1132	n/a	n/a	0	0	0
158153	WORD	wordpools/wasnorm_wordpool_576.txt	LTP316	ltpFR2	2	1	PIGMENT	1066	n/a	n/a	0	0	0
160657	WORD	wordpools/wasnorm_wordpool_576.txt	LTP316	ltpFR2	2	1	STOVE	1388	n/a	n/a	0	0	0
163308	WORD	wordpools/wasnorm_wordpool_576.txt	LTP316	ltpFR2	2	1	SCULPTURE	1258	n/a	n/a	0	0	0
166061	WORD	wordpools/wasnorm_wordpool_576.txt	LTP316	ltpFR2	2	1	BRANCH	168	n/a	n/a	0	0	0
168680	WORD	wordpools/wasnorm_wordpool_576.txt	LTP316	ltpFR2	2	1	MAPLE	866	n/a	n/a	0	0	0
170298	START	n/a	LTP316	ltpFR2	2	n/a	n/a	n/a	1	n/a	n/a	n/a	n/a
171427	DISTRACTOR	n/a	LTP316	ltpFR2	2	1	n/a	n/a	n/a	n/a	0	0	0
171449	PROB	n/a	LTP316	ltpFR2	2	n/a	n/a	n/a	1	15	6	6	3
173083	PROB	n/a	LTP316	ltpFR2	2	n/a	n/a	n/a	1	8	1	6	1
174736	PROB	n/a	LTP316	ltpFR2	2	n/a	n/a	n/a	1	16	7	3	6
176136	PROB	n/a	LTP316	ltpFR2	2	n/a	n/a	n/a	1	17	6	4	7
177538	PROB	n/a	LTP316	ltpFR2	2	n/a	n/a	n/a	1	13	5	4	4
179222	PROB	n/a	LTP316	ltpFR2	2	n/a	n/a	n/a	1	14	4	8	2
180607	PROB	n/a	LTP316	ltpFR2	2	n/a	n/a	n/a	1	16	4	9	3
182042	PROB	n/a	LTP316	ltpFR2	2	n/a	n/a	n/a	1	13	1	9	3
183393	PROB	n/a	LTP316	ltpFR2	2	n/a	n/a	n/a	1	13	7	5	1
185862	PROB	n/a	LTP316	ltpFR2	2	n/a	n/a	n/a	1	16	9	2	5
187345	PROB	n/a	LTP316	ltpFR2	2	n/a	n/a	n/a	1	16	7	5	4
189015	PROB	n/a	LTP316	ltpFR2	2	n/a	n/a	n/a	1	16	2	8	6
190599	PROB	n/a	LTP316	ltpFR2	2	n/a	n/a	n/a	1	18	8	4	6
192250	PROB	n/a	LTP316	ltpFR2	2	n/a	n/a	n/a	1	20	7	4	9
193977	STOP	n/a	LTP316	ltpFR2	2	n/a	n/a	n/a	1	n/a	n/a	n/a	n/a
196104	REC_START	n/a	LTP316	ltpFR2	2	1	n/a	n/a	n/a	n/a	0	0	0
197876	REC_WORD	wordpools/wasnorm_wordpool_576.txt	LTP316	ltpFR2	2	1	AIRPLANE	12	n/a	n/a	0	0	0
198599	REC_WORD	wordpools/wasnorm_wordpool_576.txt	LTP316	ltpFR2	2	1	SMOG	1330	n/a	n/a	0	0	0
199464	REC_WORD	wordpools/wasnorm_wordpool_576.txt	LTP316	ltpFR2	2	1	COMET	353	n/a	n/a	0	0	0
200629	REC_WORD	wordpools/wasnorm_wordpool_576.txt	LTP316	ltpFR2	2	1	FRIAR	605	n/a	n/a	0	0	0
201434	REC_WORD	wordpools/wasnorm_wordpool_576.txt	LTP316	ltpFR2	2	1	PROTON	1132	n/a	n/a	0	0	0
203707	REC_WORD	wordpools/wasnorm_wordpool_576.txt	LTP316	ltpFR2	2	1	DENTIST	447	n/a	n/a	0	0	0
204432	REC_WORD	wordpools/wasnorm_wordpool_576.txt	LTP316	ltpFR2	2	1	CARROT	249	n/a	n/a	0	0	0
205157	REC_WORD	wordpools/wasnorm_wordpool_576.txt	LTP316	ltpFR2	2	1	DASHBOARD	441	n/a	n/a	0	0	0
206306	REC_WORD	wordpools/wasnorm_wordpool_576.txt	LTP316	ltpFR2	2	1	BRACES	164	n/a	n/a	0	0	0
207765	REC_WORD	wordpools/wasnorm_wordpool_576.txt	LTP316	ltpFR2	2	1	ORANGE	980	n/a	n/a	0	0	0
210085	REC_WORD	wordpools/wasnorm_wordpool_576.txt	LTP316	ltpFR2	2	1	FRAGRANCE	599	n/a	n/a	0	0	0
210767	REC_WORD	wordpools/wasnorm_wordpool_576.txt	LTP316	ltpFR2	2	1	PERFUME	1049	n/a	n/a	0	0	0
211965	REC_WORD	wordpools/wasnorm_wordpool_576.txt	LTP316	ltpFR2	2	1	PIGMENT	1066	n/a	n/a	0	0	0
213440	REC_WORD	wordpools/wasnorm_wordpool_576.txt	LTP316	ltpFR2	2	1	STOVE	1388	n/a	n/a	0	0	0
231400	REC_WORD	wordpools/wasnorm_wordpool_576.txt	LTP316	ltpFR2	2	1	SCISSORS	1250	n/a	n/a	0	0	0
241450	REC_WORD	wordpools/wasnorm_wordpool_576.txt	LTP316	ltpFR2	2	1	PAIL	1002	n/a	n/a	0	0	0
286566	DISTRACTOR	n/a	LTP316	ltpFR2	2	2	n/a	n/a	n/a	n/a	0	0	0
286567	START	n/a	LTP316	ltpFR2	2	n/a	n/a	n/a	2	n/a	n/a	n/a	n/a
286583	PROB	n/a	LTP316	ltpFR2	2	n/a	n/a	n/a	2	12	4	1	7
289035	PROB	n/a	LTP316	ltpFR2	2	n/a	n/a	n/a	2	13	6	4	3
290302	PROB	n/a	LTP316	ltpFR2	2	n/a	n/a	n/a	2	16	3	5	8
291637	PROB	n/a	LTP316	ltpFR2	2	n/a	n/a	n/a	2	17	7	5	5
293238	PROB	n/a	LTP316	ltpFR2	2	n/a	n/a	n/a	2	12	3	6	3
294840	PROB	n/a	LTP316	ltpFR2	2	n/a	n/a	n/a	2	12	3	8	1
296307	PROB	n/a	LTP316	ltpFR2	2	n/a	n/a	n/a	2	20	9	3	8
298043	PROB	n/a	LTP316	ltpFR2	2	n/a	n/a	n/a	2	18	7	2	9
299628	PROB	n/a	LTP316	ltpFR2	2	n/a	n/a	n/a	2	17	7	9	1
301563	PROB	n/a	LTP316	ltpFR2	2	n/a	n/a	n/a	2	16	5	7	4
303096	PROB	n/a	LTP316	ltpFR2	2	n/a	n/a	n/a	2	12	8	2	2
304432	PROB	n/a	LTP316	ltpFR2	2	n/a	n/a	n/a	2	12	4	7	1
305783	PROB	n/a	LTP316	ltpFR2	2	n/a	n/a	n/a	2	25	8	8	9
307785	PROB	n/a	LTP316	ltpFR2	2	n/a	n/a	n/a	2	14	5	6	3
309205	STOP	n/a	LTP316	ltpFR2	2	n/a	n/a	n/a	2	n/a	n/a	n/a	n/a
311722	WORD	wordpools/wasnorm_wordpool_576.txt	LTP316	ltpFR2	2	2	PREACHER	1119	n/a	n/a	0	0	0
314457	WORD	wordpools/wasnorm_wordpool_576.txt	LTP316	ltpFR2	2	2	SKETCH	1315	n/a	n/a	0	0	0
317209	WORD	wordpools/wasnorm_wordpool_576.txt	LTP316	ltpFR2	2	2	PICTURE	1061	n/a	n/a	0	0	0
319962	WORD	wordpools/wasnorm_wordpool_576.txt	LTP316	ltpFR2	2	2	DIVER	476	n/a	n/a	0	0	0
322631	WORD	wordpools/wasnorm_wordpool_576.txt	LTP316	ltpFR2	2	2	VAGRANT	1544	n/a	n/a	0	0	0
325149	WORD	wordpools/wasnorm_wordpool_576.txt	LTP316	ltpFR2	2	2	MATCH	878	n/a	n/a	0	0	0
327969	WORD	wordpools/wasnorm_wordpool_576.txt	LTP316	ltpFR2	2	2	HORNET	718	n/a	n/a	0	0	0
330488	WORD	wordpools/wasnorm_wordpool_576.txt	LTP316	ltpFR2	2	2	ONION	977	n/a	n/a	0	0	0
332957	WORD	wordpools/wasnorm_wordpool_576.txt	LTP316	ltpFR2	2	2	CRIB	407	n/a	n/a	0	0	0
335492	WORD	wordpools/wasnorm_wordpool_576.txt	LTP316	ltpFR2	2	2	CLIMBER	323	n/a	n/a	0	0	0
337928	WORD	wordpools/wasnorm_wordpool_576.txt	LTP316	ltpFR2	2	2	FRECKLE	602	n/a	n/a	0	0	0
340447	WORD	wordpools/wasnorm_wordpool_576.txt	LTP316	ltpFR2	2	2	EYELASH	546	n/a	n/a	0	0	0
343198	WORD	wordpools/wasnorm_wordpool_576.txt	LTP316	ltpFR2	2	2	PASSAGE	1019	n/a	n/a	0	0	0
346018	WORD	wordpools/wasnorm_wordpool_576.txt	LTP316	ltpFR2	2	2	FLASHLIGHT	575	n/a	n/a	0	0	0
348654	WORD	wordpools/wasnorm_wordpool_576.txt	LTP316	ltpFR2	2	2	SEAL	1262	n/a	n/a	0	0	0
351440	WORD	wordpools/wasnorm_wordpool_576.txt	LTP316	ltpFR2	2	2	SLIDE	1326	n/a	n/a	0	0	0
354075	WORD	wordpools/wasnorm_wordpool_576.txt	LTP316	ltpFR2	2	2	HUMAN	726	n/a	n/a	0	0	0
356778	WORD	wordpools/wasnorm_wordpool_576.txt	LTP316	ltpFR2	2	2	SLOPE	1328	n/a	n/a	0	0	0
359513	WORD	wordpools/wasnorm_wordpool_576.txt	LTP316	ltpFR2	2	2	WORKER	1621	n/a	n/a	0	0	0
362032	WORD	wordpools/wasnorm_wordpool_576.txt	LTP316	ltpFR2	2	2	SERVER	1272	n/a	n/a	0	0	0
364851	WORD	wordpools/wasnorm_wordpool_576.txt	LTP316	ltpFR2	2	2	WARDROBE	1587	n/a	n/a	0	0	0
367504	WORD	wordpools/wasnorm_wordpool_576.txt	LTP316	ltpFR2	2	2	WAGON	1578	n/a	n/a	0	0	0
370238	WORD	wordpools/wasnorm_wordpool_576.txt	LTP316	ltpFR2	2	2	MUMMY	932	n/a	n/a	0	0	0
372858	WORD	wordpools/wasnorm_wordpool_576.txt	LTP316	ltpFR2	2	2	COOKBOOK	373	n/a	n/a	0	0	0
374476	START	n/a	LTP316	ltpFR2	2	n/a	n/a	n/a	3	n/a	n/a	n/a	n/a
375649	DISTRACTOR	n/a	LTP316	ltpFR2	2	2	n/a	n/a	n/a	n/a	0	0	0
375677	PROB	n/a	LTP316	ltpFR2	2	n/a	n/a	n/a	3	14	6	2	6
378379	PROB	n/a	LTP316	ltpFR2	2	n/a	n/a	n/a	3	14	4	6	4
379714	PROB	n/a	LTP316	ltpFR2	2	n/a	n/a	n/a	3	23	9	6	7
382984	PROB	n/a	LTP316	ltpFR2	2	n/a	n/a	n/a	3	18	5	9	4
386102	PROB	n/a	LTP316	ltpFR2	2	n/a	n/a	n/a	3	13	5	5	3
387404	PROB	n/a	LTP316	ltpFR2	2	n/a	n/a	n/a	3	15	8	3	4
388872	PROB	n/a	LTP316	ltpFR2	2	n/a	n/a	n/a	3	17	3	9	5
390507	PROB	n/a	LTP316	ltpFR2	2	n/a	n/a	n/a	3	20	9	8	5
392174	PROB	n/a	LTP316	ltpFR2	2	n/a	n/a	n/a	3	14	3	5	6
394109	PROB	n/a	LTP316	ltpFR2	2	n/a	n/a	n/a	3	21	7	8	6
396378	PROB	n/a	LTP316	ltpFR2	2	n/a	n/a	n/a	3	15	5	2	8
398160	STOP	n/a	LTP316	ltpFR2	2	n/a	n/a	n/a	3	n/a	n/a	n/a	n/a
400399	REC_START	n/a	LTP316	ltpFR2	2	2	n/a	n/a	n/a	n/a	0	0	0
401196	REC_WORD	wordpools/wasnorm_wordpool_576.txt	LTP316	ltpFR2	2	2	PREACHER	1119	n/a	n/a	0	0	0
401896	REC_WORD	wordpools/wasnorm_wordpool_576.txt	LTP316	ltpFR2	2	2	SKETCH	1315	n/a	n/a	0	0	0
403306	REC_WORD	wordpools/wasnorm_wordpool_576.txt	LTP316	ltpFR2	2	2	PICTURE	1061	n/a	n/a	0	0	0
404226	REC_WORD	wordpools/wasnorm_wordpool_576.txt	LTP316	ltpFR2	2	2	PASSAGE	1019	n/a	n/a	0	0	0
406806	REC_WORD	wordpools/wasnorm_wordpool_576.txt	LTP316	ltpFR2	2	2	DIVER	476	n/a	n/a	0	0	0
407756	REC_WORD	wordpools/wasnorm_wordpool_576.txt	LTP316	ltpFR2	2	2	WORKER	1621	n/a	n/a	0	0	0
408516	REC_WORD	wordpools/wasnorm_wordpool_576.txt	LTP316	ltpFR2	2	2	SERVER	1272	n/a	n/a	0	0	0
409806	REC_WORD	wordpools/wasnorm_wordpool_576.txt	LTP316	ltpFR2	2	2	CLIMBER	323	n/a	n/a	0	0	0
410646	REC_WORD	wordpools/wasnorm_wordpool_576.txt	LTP316	ltpFR2	2	2	FRECKLE	602	n/a	n/a	0	0	0
411706	REC_WORD	wordpools/wasnorm_wordpool_576.txt	LTP316	ltpFR2	2	2	EYELASH	546	n/a	n/a	0	0	0
413566	REC_WORD	wordpools/wasnorm_wordpool_576.txt	LTP316	ltpFR2	2	2	ONION	977	n/a	n/a	0	0	0
414416	REC_WORD	wordpools/wasnorm_wordpool_576.txt	LTP316	ltpFR2	2	2	CRIB	407	n/a	n/a	0	0	0
416121	REC_WORD	wordpools/wasnorm_wordpool_576.txt	LTP316	ltpFR2	2	2	SLIDE	1326	n/a	n/a	0	0	0
417006	REC_WORD	wordpools/wasnorm_wordpool_576.txt	LTP316	ltpFR2	2	2	HUMAN	726	n/a	n/a	0	0	0
418701	REC_WORD	wordpools/wasnorm_wordpool_576.txt	LTP316	ltpFR2	2	2	SEAL	1262	n/a	n/a	0	0	0
427391	REC_WORD	wordpools/wasnorm_wordpool_576.txt	LTP316	ltpFR2	2	2	MUMMY	932	n/a	n/a	0	0	0
429916	REC_WORD	wordpools/wasnorm_wordpool_576.txt	LTP316	ltpFR2	2	2	WARDROBE	1587	n/a	n/a	0	0	0
490861	DISTRACTOR	n/a	LTP316	ltpFR2	2	3	n/a	n/a	n/a	n/a	0	0	0
490861	START	n/a	LTP316	ltpFR2	2	n/a	n/a	n/a	4	n/a	n/a	n/a	n/a
490878	PROB	n/a	LTP316	ltpFR2	2	n/a	n/a	n/a	4	14	6	1	7
493162	PROB	n/a	LTP316	ltpFR2	2	n/a	n/a	n/a	4	15	2	8	5
494381	PROB	n/a	LTP316	ltpFR2	2	n/a	n/a	n/a	4	12	3	6	3
495665	PROB	n/a	LTP316	ltpFR2	2	n/a	n/a	n/a	4	12	1	6	5
497583	PROB	n/a	LTP316	ltpFR2	2	n/a	n/a	n/a	4	11	1	8	2
499234	PROB	n/a	LTP316	ltpFR2	2	n/a	n/a	n/a	4	14	5	7	2
500736	PROB	n/a	LTP316	ltpFR2	2	n/a	n/a	n/a	4	12	2	1	9
502120	PROB	n/a	LTP316	ltpFR2	2	n/a	n/a	n/a	4	7	1	1	5
503589	PROB	n/a	LTP316	ltpFR2	2	n/a	n/a	n/a	4	10	4	2	4
505841	PROB	n/a	LTP316	ltpFR2	2	n/a	n/a	n/a	4	13	6	1	6
507742	PROB	n/a	LTP316	ltpFR2	2	n/a	n/a	n/a	4	14	6	3	5
509527	PROB	n/a	LTP316	ltpFR2	2	n/a	n/a	n/a	4	15	3	8	4
511111	PROB	n/a	LTP316	ltpFR2	2	n/a	n/a	n/a	4	11	7	1	3
514317	STOP	n/a	LTP316	ltpFR2	2	n/a	n/a	n/a	4	n/a	n/a	n/a	n/a
516066	WORD	wordpools/wasnorm_wordpool_576.txt	LTP316	ltpFR2	2	3	NOMAD	955	n/a	n/a	0	0	0
518852	WORD	wordpools/wasnorm_wordpool_576.txt	LTP316	ltpFR2	2	3	LAMP	798	n/a	n/a	0	0	0
521604	WORD	wordpools/wasnorm_wordpool_576.txt	LTP316	ltpFR2	2	3	QUAIL	1147	n/a	n/a	0	0	0
524372	WORD	wordpools/wasnorm_wordpool_576.txt	LTP316	ltpFR2	2	3	TURKEY	1520	n/a	n/a	0	0	0
526909	WORD	wordpools/wasnorm_wordpool_576.txt	LTP316	ltpFR2	2	3	GLOVE	642	n/a	n/a	0	0	0
529478	WORD	wordpools/wasnorm_wordpool_576.txt	LTP316	ltpFR2	2	3	KITCHEN	778	n/a	n/a	0	0	0
532246	WORD	wordpools/wasnorm_wordpool_576.txt	LTP316	ltpFR2	2	3	APRON	35	n/a	n/a	0	0	0
534732	WORD	wordpools/wasnorm_wordpool_576.txt	LTP316	ltpFR2	2	3	GRAVEL	659	n/a	n/a	0	0	0
537234	WORD	wordpools/wasnorm_wordpool_576.txt	LTP316	ltpFR2	2	3	WITNESS	1618	n/a	n/a	0	0	0
539937	WORD	wordpools/wasnorm_wordpool_576.txt	LTP316	ltpFR2	2	3	CONCERT	360	n/a	n/a	0	0	0
542406	WORD	wordpools/wasnorm_wordpool_576.txt	LTP316	ltpFR2	2	3	BUGGY	188	n/a	n/a	0	0	0
544891	WORD	wordpools/wasnorm_wordpool_576.txt	LTP316	ltpFR2	2	3	CRATER	400	n/a	n/a	0	0	0
547376	WORD	wordpools/wasnorm_wordpool_576.txt	LTP316	ltpFR2	2	3	ICEBERG	731	n/a	n/a	0	0	0
549862	WORD	wordpools/wasnorm_wordpool_576.txt	LTP316	ltpFR2	2	3	ANTLER	29	n/a	n/a	0	0	0
552398	WORD	wordpools/wasnorm_wordpool_576.txt	LTP316	ltpFR2	2	3	ELBOW	520	n/a	n/a	0	0	0
554950	WORD	wordpools/wasnorm_wordpool_576.txt	LTP316	ltpFR2	2	3	CRUTCH	417	n/a	n/a	0	0	0
557486	WORD	wordpools/wasnorm_wordpool_576.txt	LTP316	ltpFR2	2	3	BOARD	143	n/a	n/a	0	0	0
559938	WORD	wordpools/wasnorm_wordpool_576.txt	LTP316	ltpFR2	2	3	BALLOON	75	n/a	n/a	0	0	0
562607	WORD	wordpools/wasnorm_wordpool_576.txt	LTP316	ltpFR2	2	3	TREAT	1501	n/a	n/a	0	0	0
565275	WORD	wordpools/wasnorm_wordpool_576.txt	LTP316	ltpFR2	2	3	KLEENEX	782	n/a	n/a	0	0	0
567811	WORD	wordpools/wasnorm_wordpool_576.txt	LTP316	ltpFR2	2	3	JURY	766	n/a	n/a	0	0	0
570464	WORD	wordpools/wasnorm_wordpool_576.txt	LTP316	ltpFR2	2	3	GAVEL	627	n/a	n/a	0	0	0
572949	WORD	wordpools/wasnorm_wordpool_576.txt	LTP316	ltpFR2	2	3	WIFE	1609	n/a	n/a	0	0	0
575718	WORD	wordpools/wasnorm_wordpool_576.txt	LTP316	ltpFR2	2	3	CLOCK	325	n/a	n/a	0	0	0
577336	START	n/a	LTP316	ltpFR2	2	n/a	n/a	n/a	5	n/a	n/a	n/a	n/a
578517	DISTRACTOR	n/a	LTP316	ltpFR2	2	3	n/a	n/a	n/a	n/a	0	0	0
578537	PROB	n/a	LTP316	ltpFR2	2	n/a	n/a	n/a	5	22	6	9	7
580906	PROB	n/a	LTP316	ltpFR2	2	n/a	n/a	n/a	5	14	2	6	6
582474	PROB	n/a	LTP316	ltpFR2	2	n/a	n/a	n/a	5	17	9	2	6
584291	PROB	n/a	LTP316	ltpFR2	2	n/a	n/a	n/a	5	23	9	5	9
587562	PROB	n/a	LTP316	ltpFR2	2	n/a	n/a	n/a	5	16	7	5	4
589312	PROB	n/a	LTP316	ltpFR2	2	n/a	n/a	n/a	5	21	5	7	9
591164	PROB	n/a	LTP316	ltpFR2	2	n/a	n/a	n/a	5	9	1	2	6
592883	PROB	n/a	LTP316	ltpFR2	2	n/a	n/a	n/a	5	12	7	1	4
594852	PROB	n/a	LTP316	ltpFR2	2	n/a	n/a	n/a	5	13	2	7	4
596553	PROB	n/a	LTP316	ltpFR2	2	n/a	n/a	n/a	5	7	2	1	4
598421	PROB	n/a	LTP316	ltpFR2	2	n/a	n/a	n/a	5	11	4	2	5
600136	STOP	n/a	LTP316	ltpFR2	2	n/a	n/a	n/a	5	n/a	n/a	n/a	n/a
603308	REC_START	n/a	LTP316	ltpFR2	2	3	n/a	n/a	n/a	n/a	0	0	0
605228	REC_WORD	wordpools/wasnorm_wordpool_576.txt	LTP316	ltpFR2	2	3	NOMAD	955	n/a	n/a	0	0	0
606482	REC_WORD	wordpools/wasnorm_wordpool_576.txt	LTP316	ltpFR2	2	3	GAVEL	627	n/a	n/a	0	0	0
607717	REC_WORD	wordpools/wasnorm_wordpool_576.txt	LTP316	ltpFR2	2	3	GRAVEL	659	n/a	n/a	0	0	0
609237	REC_WORD	wordpools/wasnorm_wordpool_576.txt	LTP316	ltpFR2	2	3	JURY	766	n/a	n/a	0	0	0
611182	REC_WORD	wordpools/wasnorm_wordpool_576.txt	LTP316	ltpFR2	2	3	WITNESS	1618	n/a	n/a	0	0	0
614278	REC_WORD	wordpools/wasnorm_wordpool_576.txt	LTP316	ltpFR2	2	3	TURKEY	1520	n/a	n/a	0	0	0
615323	REC_WORD	wordpools/wasnorm_wordpool_576.txt	LTP316	ltpFR2	2	3	QUAIL	1147	n/a	n/a	0	0	0
618793	REC_WORD	wordpools/wasnorm_wordpool_576.txt	LTP316	ltpFR2	2	3	BOARD	143	n/a	n/a	0	0	0
620446	REC_WORD	wordpools/wasnorm_wordpool_576.txt	LTP316	ltpFR2	2	3	APRON	35	n/a	n/a	0	0	0
621841	REC_WORD	wordpools/wasnorm_wordpool_576.txt	LTP316	ltpFR2	2	3	GLOVE	642	n/a	n/a	0	0	0
623311	REC_WORD	wordpools/wasnorm_wordpool_576.txt	LTP316	ltpFR2	2	3	KITCHEN	778	n/a	n/a	0	0	0
624601	REC_WORD	wordpools/wasnorm_wordpool_576.txt	LTP316	ltpFR2	2	3	STOVE	1388	n/a	n/a	0	0	0
628381	REC_WORD	wordpools/wasnorm_wordpool_576.txt	LTP316	ltpFR2	2	3	WIFE	1609	n/a	n/a	0	0	0
629416	REC_WORD	wordpools/wasnorm_wordpool_576.txt	LTP316	ltpFR2	2	3	CLOCK	325	n/a	n/a	0	0	0
637115	REC_WORD	wordpools/wasnorm_wordpool_576.txt	LTP316	ltpFR2	2	3	ICEBERG	731	n/a	n/a	0	0	0
639540	REC_WORD	wordpools/wasnorm_wordpool_576.txt	LTP316	ltpFR2	2	3	CRATER	400	n/a	n/a	0	0	0
642365	REC_WORD	wordpools/wasnorm_wordpool_576.txt	LTP316	ltpFR2	2	3	ELBOW	520	n/a	n/a	0	0	0
643110	REC_WORD	wordpools/wasnorm_wordpool_576.txt	LTP316	ltpFR2	2	3	CRUTCH	417	n/a	n/a	0	0	0
693771	DISTRACTOR	n/a	LTP316	ltpFR2	2	4	n/a	n/a	n/a	n/a	0	0	0
693771	START	n/a	LTP316	ltpFR2	2	n/a	n/a	n/a	6	n/a	n/a	n/a	n/a
693788	PROB	n/a	LTP316	ltpFR2	2	n/a	n/a	n/a	6	14	2	6	6
695773	PROB	n/a	LTP316	ltpFR2	2	n/a	n/a	n/a	6	15	4	2	9
697925	PROB	n/a	LTP316	ltpFR2	2	n/a	n/a	n/a	6	14	2	8	4
699443	PROB	n/a	LTP316	ltpFR2	2	n/a	n/a	n/a	6	21	6	7	8
701528	PROB	n/a	LTP316	ltpFR2	2	n/a	n/a	n/a	6	14	5	5	4
702929	PROB	n/a	LTP316	ltpFR2	2	n/a	n/a	n/a	6	8	2	3	3
704631	PROB	n/a	LTP316	ltpFR2	2	n/a	n/a	n/a	6	15	2	6	7
706364	PROB	n/a	LTP316	ltpFR2	2	n/a	n/a	n/a	6	14	5	8	1
707967	PROB	n/a	LTP316	ltpFR2	2	n/a	n/a	n/a	6	23	6	8	9
710351	PROB	n/a	LTP316	ltpFR2	2	n/a	n/a	n/a	6	10	2	5	3
712938	PROB	n/a	LTP316	ltpFR2	2	n/a	n/a	n/a	6	12	1	8	4
714439	PROB	n/a	LTP316	ltpFR2	2	n/a	n/a	n/a	6	17	6	5	6
717293	STOP	n/a	LTP316	ltpFR2	2	n/a	n/a	n/a	6	n/a	n/a	n/a	n/a
718976	WORD	wordpools/wasnorm_wordpool_576.txt	LTP316	ltpFR2	2	4	OMELET	976	n/a	n/a	0	0	0
721693	WORD	wordpools/wasnorm_wordpool_576.txt	LTP316	ltpFR2	2	4	EAGLE	512	n/a	n/a	0	0	0
724468	WORD	wordpools/wasnorm_wordpool_576.txt	LTP316	ltpFR2	2	4	LADDER	793	n/a	n/a	0	0	0
727181	WORD	wordpools/wasnorm_wordpool_576.txt	LTP316	ltpFR2	2	4	CANAL	226	n/a	n/a	0	0	0
729789	WORD	wordpools/wasnorm_wordpool_576.txt	LTP316	ltpFR2	2	4	STUDENT	1395	n/a	n/a	0	0	0
732586	WORD	wordpools/wasnorm_wordpool_576.txt	LTP316	ltpFR2	2	4	NEUTRON	947	n/a	n/a	0	0	0
735071	WORD	wordpools/wasnorm_wordpool_576.txt	LTP316	ltpFR2	2	4	HANDBAG	684	n/a	n/a	0	0	0
737773	WORD	wordpools/wasnorm_wordpool_576.txt	LTP316	ltpFR2	2	4	YOLK	1633	n/a	n/a	0	0	0
740543	WORD	wordpools/wasnorm_wordpool_576.txt	LTP316	ltpFR2	2	4	ROD	1203	n/a	n/a	0	0	0
743227	WORD	wordpools/wasnorm_wordpool_576.txt	LTP316	ltpFR2	2	4	PRINCESS	1125	n/a	n/a	0	0	0
746031	WORD	wordpools/wasnorm_wordpool_576.txt	LTP316	ltpFR2	2	4	SKIRT	1319	n/a	n/a	0	0	0
748455	WORD	wordpools/wasnorm_wordpool_576.txt	LTP316	ltpFR2	2	4	MARROW	872	n/a	n/a	0	0	0
751190	WORD	wordpools/wasnorm_wordpool_576.txt	LTP316	ltpFR2	2	4	ATLAS	53	n/a	n/a	0	0	0
753987	WORD	wordpools/wasnorm_wordpool_576.txt	LTP316	ltpFR2	2	4	SWAMP	1416	n/a	n/a	0	0	0
756639	WORD	wordpools/wasnorm_wordpool_576.txt	LTP316	ltpFR2	2	4	COMPASS	358	n/a	n/a	0	0	0
759190	WORD	wordpools/wasnorm_wordpool_576.txt	LTP316	ltpFR2	2	4	PEPPER	1047	n/a	n/a	0	0	0
761876	WORD	wordpools/wasnorm_wordpool_576.txt	LTP316	ltpFR2	2	4	LUMBER	848	n/a	n/a	0	0	0
764495	WORD	wordpools/wasnorm_wordpool_576.txt	LTP316	ltpFR2	2	4	PARROT	1015	n/a	n/a	0	0	0
767246	WORD	wordpools/wasnorm_wordpool_576.txt	LTP316	ltpFR2	2	4	RUG	1215	n/a	n/a	0	0	0
769891	WORD	wordpools/wasnorm_wordpool_576.txt	LTP316	ltpFR2	2	4	GROUND	666	n/a	n/a	0	0	0
772652	WORD	wordpools/wasnorm_wordpool_576.txt	LTP316	ltpFR2	2	4	MUFFIN	929	n/a	n/a	0	0	0
775252	WORD	wordpools/wasnorm_wordpool_576.txt	LTP316	ltpFR2	2	4	SCARECROW	1245	n/a	n/a	0	0	0
777981	WORD	wordpools/wasnorm_wordpool_576.txt	LTP316	ltpFR2	2	4	INMATE	738	n/a	n/a	0	0	0
780625	WORD	wordpools/wasnorm_wordpool_576.txt	LTP316	ltpFR2	2	4	CAPTIVE	240	n/a	n/a	0	0	0
782234	START	n/a	LTP316	ltpFR2	2	n/a	n/a	n/a	7	n/a	n/a	n/a	n/a
783283	DISTRACTOR	n/a	LTP316	ltpFR2	2	4	n/a	n/a	n/a	n/a	0	0	0
783292	PROB	n/a	LTP316	ltpFR2	2	n/a	n/a	n/a	7	13	1	6	6
785127	PROB	n/a	LTP316	ltpFR2	2	n/a	n/a	n/a	7	10	4	3	3
787078	PROB	n/a	LTP316	ltpFR2	2	n/a	n/a	n/a	7	12	3	2	7
788396	PROB	n/a	LTP316	ltpFR2	2	n/a	n/a	n/a	7	16	6	4	6
789647	PROB	n/a	LTP316	ltpFR2	2	n/a	n/a	n/a	7	16	9	2	5
791466	PROB	n/a	LTP316	ltpFR2	2	n/a	n/a	n/a	7	16	2	5	9
795234	PROB	n/a	LTP316	ltpFR2	2	n/a	n/a	n/a	7	18	8	3	7
797119	PROB	n/a	LTP316	ltpFR2	2	n/a	n/a	n/a	7	11	6	3	2
799254	PROB	n/a	LTP316	ltpFR2	2	n/a	n/a	n/a	7	12	4	2	6
800991	PROB	n/a	LTP316	ltpFR2	2	n/a	n/a	n/a	7	17	6	9	2
803192	PROB	n/a	LTP316	ltpFR2	2	n/a	n/a	n/a	7	15	7	7	1
804493	PROB	n/a	LTP316	ltpFR2	2	n/a	n/a	n/a	7	5	2	1	2
805626	STOP	n/a	LTP316	ltpFR2	2	n/a	n/a	n/a	7	n/a	n/a	n/a	n/a
808062	REC_START	n/a	LTP316	ltpFR2	2	4	n/a	n/a	n/a	n/a	0	0	0
809682	REC_WORD	wordpools/wasnorm_wordpool_576.txt	LTP316	ltpFR2	2	4	INMATE	738	n/a	n/a	0	0	0
810419	REC_WORD	wordpools/wasnorm_wordpool_576.txt	LTP316	ltpFR2	2	4	CAPTIVE	240	n/a	n/a	0	0	0
813351	REC_WORD	wordpools/wasnorm_wordpool_576.txt	LTP316	ltpFR2	2	4	EAGLE	512	n/a	n/a	0	0	0
813941	REC_WORD	wordpools/wasnorm_wordpool_576.txt	LTP316	ltpFR2	2	4	PARROT	1015	n/a	n/a	0	0	0
814726	REC_WORD	wordpools/wasnorm_wordpool_576.txt	LTP316	ltpFR2	2	4	OMELET	976	n/a	n/a	0	0	0
815486	REC_WORD	wordpools/wasnorm_wordpool_576.txt	LTP316	ltpFR2	2	4	YOLK	1633	n/a	n/a	0	0	0
817024	REC_WORD	wordpools/wasnorm_wordpool_576.txt	LTP316	ltpFR2	2	4	PEPPER	1047	n/a	n/a	0	0	0
822749	REC_WORD	wordpools/wasnorm_wordpool_576.txt	LTP316	ltpFR2	2	4	LADDER	793	n/a	n/a	0	0	0
823634	REC_WORD	wordpools/wasnorm_wordpool_576.txt	LTP316	ltpFR2	2	4	GROUND	666	n/a	n/a	0	0	0
825234	REC_WORD	wordpools/wasnorm_wordpool_576.txt	LTP316	ltpFR2	2	4	CANAL	226	n/a	n/a	0	0	0
826029	REC_WORD	wordpools/wasnorm_wordpool_576.txt	LTP316	ltpFR2	2	4	SWAMP	1416	n/a	n/a	0	0	0
827204	REC_WORD	wordpools/wasnorm_wordpool_576.txt	LTP316	ltpFR2	2	4	COMPASS	358	n/a	n/a	0	0	0
830634	REC_WORD	wordpools/wasnorm_wordpool_576.txt	LTP316	ltpFR2	2	4	STUDENT	1395	n/a	n/a	0	0	0
831768	REC_WORD	wordpools/wasnorm_wordpool_576.txt	LTP316	ltpFR2	2	4	NEUTRON	947	n/a	n/a	0	0	0
833016	REC_WORD	wordpools/wasnorm_wordpool_576.txt	LTP316	ltpFR2	2	4	HANDBAG	684	n/a	n/a	0	0	0
833976	REC_WORD	wordpools/wasnorm_wordpool_576.txt	LTP316	ltpFR2	2	4	PRINCESS	1125	n/a	n/a	0	0	0
836187	REC_WORD	wordpools/wasnorm_wordpool_576.txt	LTP316	ltpFR2	2	4	SKIRT	1319	n/a	n/a	0	0	0
898535	WORD	wordpools/wasnorm_wordpool_576.txt	LTP316	ltpFR2	2	5	SCALPEL	1243	n/a	n/a	0	0	0
901155	WORD	wordpools/wasnorm_wordpool_576.txt	LTP316	ltpFR2	2	5	LOVER	846	n/a	n/a	0	0	0
903857	WORD	wordpools/wasnorm_wordpool_576.txt	LTP316	ltpFR2	2	5	TOURIST	1488	n/a	n/a	0	0	0
906308	WORD	wordpools/wasnorm_wordpool_576.txt	LTP316	ltpFR2	2	5	STREAM	1392	n/a	n/a	0	0	0
908761	WORD	wordpools/wasnorm_wordpool_576.txt	LTP316	ltpFR2	2	5	JUNGLE	764	n/a	n/a	0	0	0
911262	WORD	wordpools/wasnorm_wordpool_576.txt	LTP316	ltpFR2	2	5	COWBOY	395	n/a	n/a	0	0	0
913965	WORD	wordpools/wasnorm_wordpool_576.txt	LTP316	ltpFR2	2	5	FIDDLE	561	n/a	n/a	0	0	0
916751	WORD	wordpools/wasnorm_wordpool_576.txt	LTP316	ltpFR2	2	5	TUBA	1515	n/a	n/a	0	0	0
919234	WORD	wordpools/wasnorm_wordpool_576.txt	LTP316	ltpFR2	2	5	PATIENT	1024	n/a	n/a	0	0	0
921787	WORD	wordpools/wasnorm_wordpool_576.txt	LTP316	ltpFR2	2	5	FLAG	573	n/a	n/a	0	0	0
924558	WORD	wordpools/wasnorm_wordpool_576.txt	LTP316	ltpFR2	2	5	GHETTO	633	n/a	n/a	0	0	0
927091	WORD	wordpools/wasnorm_wordpool_576.txt	LTP316	ltpFR2	2	5	HORSE	719	n/a	n/a	0	0	0
929711	WORD	wordpools/wasnorm_wordpool_576.txt	LTP316	ltpFR2	2	5	OX	994	n/a	n/a	0	0	0
932245	WORD	wordpools/wasnorm_wordpool_576.txt	LTP316	ltpFR2	2	5	DANDRUFF	439	n/a	n/a	0	0	0
934665	WORD	wordpools/wasnorm_wordpool_576.txt	LTP316	ltpFR2	2	5	BEEF	113	n/a	n/a	0	0	0
937366	WORD	wordpools/wasnorm_wordpool_576.txt	LTP316	ltpFR2	2	5	WORLD	1622	n/a	n/a	0	0	0
940169	WORD	wordpools/wasnorm_wordpool_576.txt	LTP316	ltpFR2	2	5	PRIMATE	1123	n/a	n/a	0	0	0
942621	WORD	wordpools/wasnorm_wordpool_576.txt	LTP316	ltpFR2	2	5	COLONEL	348	n/a	n/a	0	0	0
945358	WORD	wordpools/wasnorm_wordpool_576.txt	LTP316	ltpFR2	2	5	CANDY	230	n/a	n/a	0	0	0
948174	WORD	wordpools/wasnorm_wordpool_576.txt	LTP316	ltpFR2	2	5	PASTRY	1022	n/a	n/a	0	0	0
950811	WORD	wordpools/wasnorm_wordpool_576.txt	LTP316	ltpFR2	2	5	BASEMENT	94	n/a	n/a	0	0	0
953379	WORD	wordpools/wasnorm_wordpool_576.txt	LTP316	ltpFR2	2	5	SUSPECT	1415	n/a	n/a	0	0	0
956115	WORD	wordpools/wasnorm_wordpool_576.txt	LTP316	ltpFR2	2	5	CHEMIST	292	n/a	n/a	0	0	0
958688	WORD	wordpools/wasnorm_wordpool_576.txt	LTP316	ltpFR2	2	5	CHURCH	307	n/a	n/a	0	0	0
960302	START	n/a	LTP316	ltpFR2	2	n/a	n/a	n/a	8	n/a	n/a	n/a	n/a
961497	DISTRACTOR	n/a	LTP316	ltpFR2	2	5	n/a	n/a	n/a	n/a	0	0	0
961503	PROB	n/a	LTP316	ltpFR2	2	n/a	n/a	n/a	8	7	3	2	2
964588	PROB	n/a	LTP316	ltpFR2	2	n/a	n/a	n/a	8	13	6	6	1
965972	PROB	n/a	LTP316	ltpFR2	2	n/a	n/a	n/a	8	18	7	8	3
967640	PROB	n/a	LTP316	ltpFR2	2	n/a	n/a	n/a	8	15	7	1	7
969375	PROB	n/a	LTP316	ltpFR2	2	n/a	n/a	n/a	8	17	8	3	6
970927	PROB	n/a	LTP316	ltpFR2	2	n/a	n/a	n/a	8	19	9	9	1
972979	PROB	n/a	LTP316	ltpFR2	2	n/a	n/a	n/a	8	12	2	3	7
974512	PROB	n/a	LTP316	ltpFR2	2	n/a	n/a	n/a	8	16	1	7	8
975913	PROB	n/a	LTP316	ltpFR2	2	n/a	n/a	n/a	8	6	2	3	1
977331	PROB	n/a	LTP316	ltpFR2	2	n/a	n/a	n/a	8	6	2	2	2
978833	PROB	n/a	LTP316	ltpFR2	2	n/a	n/a	n/a	8	17	2	6	9
980667	PROB	n/a	LTP316	ltpFR2	2	n/a	n/a	n/a	8	10	7	1	2
982503	PROB	n/a	LTP316	ltpFR2	2	n/a	n/a	n/a	8	20	9	3	8
984168	STOP	n/a	LTP316	ltpFR2	2	n/a	n/a	n/a	8	n/a	n/a	n/a	n/a
986155	REC_START	n/a	LTP316	ltpFR2	2	5	n/a	n/a	n/a	n/a	0	0	0
988630	REC_WORD	wordpools/wasnorm_wordpool_576.txt	LTP316	ltpFR2	2	5	SCALPEL	1243	n/a	n/a	0	0	0
989680	REC_WORD	wordpools/wasnorm_wordpool_576.txt	LTP316	ltpFR2	2	5	TOURIST	1488	n/a	n/a	0	0	0
990630	REC_WORD	wordpools/wasnorm_wordpool_576.txt	LTP316	ltpFR2	2	5	LOVER	846	n/a	n/a	0	0	0
991520	REC_WORD	wordpools/wasnorm_wordpool_576.txt	LTP316	ltpFR2	2	5	JUNGLE	764	n/a	n/a	0	0	0
992550	REC_WORD	wordpools/wasnorm_wordpool_576.txt	LTP316	ltpFR2	2	5	COWBOY	395	n/a	n/a	0	0	0
993535	REC_WORD	wordpools/wasnorm_wordpool_576.txt	LTP316	ltpFR2	2	5	OX	994	n/a	n/a	0	0	0
994580	REC_WORD	wordpools/wasnorm_wordpool_576.txt	LTP316	ltpFR2	2	5	CATTLE	261	n/a	n/a	0	0	0
995560	REC_WORD	wordpools/wasnorm_wordpool_576.txt	LTP316	ltpFR2	2	5	BEEF	113	n/a	n/a	0	0	0
999290	REC_WORD	wordpools/wasnorm_wordpool_576.txt	LTP316	ltpFR2	2	5	FLAG	573	n/a	n/a	0	0	0
1000350	REC_WORD	wordpools/wasnorm_wordpool_576.txt	LTP316	ltpFR2	2	5	FIDDLE	561	n/a	n/a	0	0	0
1001380	REC_WORD	wordpools/wasnorm_wordpool_576.txt	LTP316	ltpFR2	2	5	TUBA	1515	n/a	n/a	0	0	0
1002455	REC_WORD	wordpools/wasnorm_wordpool_576.txt	LTP316	ltpFR2	2	5	PATIENT	1024	n/a	n/a	0	0	0
1007835	REC_WORD	wordpools/wasnorm_wordpool_576.txt	LTP316	ltpFR2	2	5	GHETTO	633	n/a	n/a	0	0	0
1014945	REC_WORD	wordpools/wasnorm_wordpool_576.txt	LTP316	ltpFR2	2	5	CHEMIST	292	n/a	n/a	0	0	0
1015975	REC_WORD	wordpools/wasnorm_wordpool_576.txt	LTP316	ltpFR2	2	5	CHURCH	307	n/a	n/a	0	0	0
1016785	REC_WORD	wordpools/wasnorm_wordpool_576.txt	LTP316	ltpFR2	2	5	SUSPECT	1415	n/a	n/a	0	0	0
1033625	REC_WORD	wordpools/wasnorm_wordpool_576.txt	LTP316	ltpFR2	2	5	PRIMATE	1123	n/a	n/a	0	0	0
1036270	REC_WORD	wordpools/wasnorm_wordpool_576.txt	LTP316	ltpFR2	2	5	COLONEL	348	n/a	n/a	0	0	0
1048365	REC_WORD	wordpools/wasnorm_wordpool_576.txt	LTP316	ltpFR2	2	5	PASTRY	1022	n/a	n/a	0	0	0
1049255	REC_WORD	wordpools/wasnorm_wordpool_576.txt	LTP316	ltpFR2	2	5	CANDY	230	n/a	n/a	0	0	0
1076590	WORD	wordpools/wasnorm_wordpool_576.txt	LTP316	ltpFR2	2	6	COBRA	336	n/a	n/a	0	0	0
1079292	WORD	wordpools/wasnorm_wordpool_576.txt	LTP316	ltpFR2	2	6	EUROPE	541	n/a	n/a	0	0	0
1081978	WORD	wordpools/wasnorm_wordpool_576.txt	LTP316	ltpFR2	2	6	LOFT	840	n/a	n/a	0	0	0
1084615	WORD	wordpools/wasnorm_wordpool_576.txt	LTP316	ltpFR2	2	6	LILY	821	n/a	n/a	0	0	0
1087232	WORD	wordpools/wasnorm_wordpool_576.txt	LTP316	ltpFR2	2	6	ICING	732	n/a	n/a	0	0	0
1089802	WORD	wordpools/wasnorm_wordpool_576.txt	LTP316	ltpFR2	2	6	COURSE	390	n/a	n/a	0	0	0
1092522	WORD	wordpools/wasnorm_wordpool_576.txt	LTP316	ltpFR2	2	6	FLEET	578	n/a	n/a	0	0	0
1095205	WORD	wordpools/wasnorm_wordpool_576.txt	LTP316	ltpFR2	2	6	ROBOT	1200	n/a	n/a	0	0	0
1097860	WORD	wordpools/wasnorm_wordpool_576.txt	LTP316	ltpFR2	2	6	LONDON	843	n/a	n/a	0	0	0
1100445	WORD	wordpools/wasnorm_wordpool_576.txt	LTP316	ltpFR2	2	6	CROWN	415	n/a	n/a	0	0	0
1102881	WORD	wordpools/wasnorm_wordpool_576.txt	LTP316	ltpFR2	2	6	JELLY	755	n/a	n/a	0	0	0
1105385	WORD	wordpools/wasnorm_wordpool_576.txt	LTP316	ltpFR2	2	6	TEACHER	1440	n/a	n/a	0	0	0
1107985	WORD	wordpools/wasnorm_wordpool_576.txt	LTP316	ltpFR2	2	6	WRIST	1626	n/a	n/a	0	0	0
1110704	WORD	wordpools/wasnorm_wordpool_576.txt	LTP316	ltpFR2	2	6	LUGGAGE	847	n/a	n/a	0	0	0
1113171	WORD	wordpools/wasnorm_wordpool_576.txt	LTP316	ltpFR2	2	6	MILK	895	n/a	n/a	0	0	0
1115958	WORD	wordpools/wasnorm_wordpool_576.txt	LTP316	ltpFR2	2	6	GALLON	618	n/a	n/a	0	0	0
1118410	WORD	wordpools/wasnorm_wordpool_576.txt	LTP316	ltpFR2	2	6	SNAKE	1333	n/a	n/a	0	0	0
1121211	WORD	wordpools/wasnorm_wordpool_576.txt	LTP316	ltpFR2	2	6	SHORTCAKE	1292	n/a	n/a	0	0	0
1123766	WORD	wordpools/wasnorm_wordpool_576.txt	LTP316	ltpFR2	2	6	GARLIC	624	n/a	n/a	0	0	0
1126568	WORD	wordpools/wasnorm_wordpool_576.txt	LTP316	ltpFR2	2	6	PARSLEY	1016	n/a	n/a	0	0	0
1129302	WORD	wordpools/wasnorm_wordpool_576.txt	LTP316	ltpFR2	2	6	ARMY	39	n/a	n/a	0	0	0
1131756	WORD	wordpools/wasnorm_wordpool_576.txt	LTP316	ltpFR2	2	6	THREAD	1460	n/a	n/a	0	0	0
1134357	WORD	wordpools/wasnorm_wordpool_576.txt	LTP316	ltpFR2	2	6	MEDAL	885	n/a	n/a	0	0	0
1136810	WORD	wordpools/wasnorm_wordpool_576.txt	LTP316	ltpFR2	2	6	SWIMMER	1420	n/a	n/a	0	0	0
1138429	START	n/a	LTP316	ltpFR2	2	n/a	n/a	n/a	9	n/a	n/a	n/a	n/a
1139480	DISTRACTOR	n/a	LTP316	ltpFR2	2	6	n/a	n/a	n/a	n/a	0	0	0
1139495	PROB	n/a	LTP316	ltpFR2	2	n/a	n/a	n/a	9	17	7	5	5
1142882	PROB	n/a	LTP316	ltpFR2	2	n/a	n/a	n/a	9	14	3	5	6
1144516	PROB	n/a	LTP316	ltpFR2	2	n/a	n/a	n/a	9	10	2	7	1
1146435	PROB	n/a	LTP316	ltpFR2	2	n/a	n/a	n/a	9	10	1	1	8
1147684	PROB	n/a	LTP316	ltpFR2	2	n/a	n/a	n/a	9	14	4	7	3
1149454	PROB	n/a	LTP316	ltpFR2	2	n/a	n/a	n/a	9	16	9	6	1
1151121	PROB	n/a	LTP316	ltpFR2	2	n/a	n/a	n/a	9	18	4	7	7
1153406	PROB	n/a	LTP316	ltpFR2	2	n/a	n/a	n/a	9	19	6	4	9
1154724	PROB	n/a	LTP316	ltpFR2	2	n/a	n/a	n/a	9	17	7	3	7
1156324	PROB	n/a	LTP316	ltpFR2	2	n/a	n/a	n/a	9	9	5	2	2
1157994	PROB	n/a	LTP316	ltpFR2	2	n/a	n/a	n/a	9	17	8	6	3
1159560	PROB	n/a	LTP316	ltpFR2	2	n/a	n/a	n/a	9	15	2	5	8
1161032	STOP	n/a	LTP316	ltpFR2	2	n/a	n/a	n/a	9	n/a	n/a	n/a	n/a
1164365	REC_START	n/a	LTP316	ltpFR2	2	6	n/a	n/a	n/a	n/a	0	0	0
1166800	REC_WORD	wordpools/wasnorm_wordpool_576.txt	LTP316	ltpFR2	2	6	COBRA	336	n/a	n/a	0	0	0
1168840	REC_WORD	wordpools/wasnorm_wordpool_576.txt	LTP316	ltpFR2	2	6	SNAKE	1333	n/a	n/a	0	0	0
1170117	REC_WORD	wordpools/wasnorm_wordpool_576.txt	LTP316	ltpFR2	2	6	EUROPE	541	n/a	n/a	0	0	0
1170850	REC_WORD	wordpools/wasnorm_wordpool_576.txt	LTP316	ltpFR2	2	6	FLEET	578	n/a	n/a	0	0	0
1171817	REC_WORD	wordpools/wasnorm_wordpool_576.txt	LTP316	ltpFR2	2	6	ARMY	39	n/a	n/a	0	0	0
1173077	REC_WORD	wordpools/wasnorm_wordpool_576.txt	LTP316	ltpFR2	2	6	MEDAL	885	n/a	n/a	0	0	0
1176396	REC_WORD	wordpools/wasnorm_wordpool_576.txt	LTP316	ltpFR2	2	6	LILY	821	n/a	n/a	0	0	0
1177097	REC_WORD	wordpools/wasnorm_wordpool_576.txt	LTP316	ltpFR2	2	6	ICING	732	n/a	n/a	0	0	0
1177917	REC_WORD	wordpools/wasnorm_wordpool_576.txt	LTP316	ltpFR2	2	6	SHORTCAKE	1292	n/a	n/a	0	0	0
1179019	REC_WORD	wordpools/wasnorm_wordpool_576.txt	LTP316	ltpFR2	2	6	JELLY	755	n/a	n/a	0	0	0
1179859	REC_WORD	wordpools/wasnorm_wordpool_576.txt	LTP316	ltpFR2	2	6	MILK	895	n/a	n/a	0	0	0
1180661	REC_WORD	wordpools/wasnorm_wordpool_576.txt	LTP316	ltpFR2	2	6	GALLON	618	n/a	n/a	0	0	0
1181470	REC_WORD	wordpools/wasnorm_wordpool_576.txt	LTP316	ltpFR2	2	6	THREAD	1460	n/a	n/a	0	0	0
1183870	REC_WORD	wordpools/wasnorm_wordpool_576.txt	LTP316	ltpFR2	2	6	COURSE	390	n/a	n/a	0	0	0
1185505	REC_WORD	wordpools/wasnorm_wordpool_576.txt	LTP316	ltpFR2	2	6	TEACHER	1440	n/a	n/a	0	0	0
1187180	REC_WORD	wordpools/wasnorm_wordpool_576.txt	LTP316	ltpFR2	2	6	WRIST	1626	n/a	n/a	0	0	0
1188615	REC_WORD	wordpools/wasnorm_wordpool_576.txt	LTP316	ltpFR2	2	6	LUGGAGE	847	n/a	n/a	0	0	0
1209668	REC_WORD	wordpools/wasnorm_wordpool_576.txt	LTP316	ltpFR2	2	6	JELLY	755	n/a	n/a	0	0	0
1254803	WORD	wordpools/wasnorm_wordpool_576.txt	LTP316	ltpFR2	2	7	UNCLE	1536	n/a	n/a	0	0	0
1257574	WORD	wordpools/wasnorm_wordpool_576.txt	LTP316	ltpFR2	2	7	ASIA	46	n/a	n/a	0	0	0
1260166	WORD	wordpools/wasnorm_wordpool_576.txt	LTP316	ltpFR2	2	7	MISTER	901	n/a	n/a	0	0	0
1262802	WORD	wordpools/wasnorm_wordpool_576.txt	LTP316	ltpFR2	2	7	CLOTHES	327	n/a	n/a	0	0	0
1265338	WORD	wordpools/wasnorm_wordpool_576.txt	LTP316	ltpFR2	2	7	WIDOW	1608	n/a	n/a	0	0	0
1267991	WORD	wordpools/wasnorm_wordpool_576.txt	LTP316	ltpFR2	2	7	HONEY	713	n/a	n/a	0	0	0
1270702	WORD	wordpools/wasnorm_wordpool_576.txt	LTP316	ltpFR2	2	7	TWIG	1527	n/a	n/a	0	0	0
1273186	WORD	wordpools/wasnorm_wordpool_576.txt	LTP316	ltpFR2	2	7	VALVE	1546	n/a	n/a	0	0	0
1275965	WORD	wordpools/wasnorm_wordpool_576.txt	LTP316	ltpFR2	2	7	ROOSTER	1209	n/a	n/a	0	0	0
1278691	WORD	wordpools/wasnorm_wordpool_576.txt	LTP316	ltpFR2	2	7	SPARROW	1347	n/a	n/a	0	0	0
1281335	WORD	wordpools/wasnorm_wordpool_576.txt	LTP316	ltpFR2	2	7	KEEPER	769	n/a	n/a	0	0	0
1283962	WORD	wordpools/wasnorm_wordpool_576.txt	LTP316	ltpFR2	2	7	BUBBLE	183	n/a	n/a	0	0	0
1286773	WORD	wordpools/wasnorm_wordpool_576.txt	LTP316	ltpFR2	2	7	BEAST	108	n/a	n/a	0	0	0
1289400	WORD	wordpools/wasnorm_wordpool_576.txt	LTP316	ltpFR2	2	7	MILDEW	893	n/a	n/a	0	0	0
1292012	WORD	wordpools/wasnorm_wordpool_576.txt	LTP316	ltpFR2	2	7	TAXI	1438	n/a	n/a	0	0	0
1294580	WORD	wordpools/wasnorm_wordpool_576.txt	LTP316	ltpFR2	2	7	BATHTUB	100	n/a	n/a	0	0	0
1297116	WORD	wordpools/wasnorm_wordpool_576.txt	LTP316	ltpFR2	2	7	BRICK	172	n/a	n/a	0	0	0
1299641	WORD	wordpools/wasnorm_wordpool_576.txt	LTP316	ltpFR2	2	7	VENUS	1557	n/a	n/a	0	0	0
1302303	WORD	wordpools/wasnorm_wordpool_576.txt	LTP316	ltpFR2	2	7	BLUEPRINT	142	n/a	n/a	0	0	0
1305089	WORD	wordpools/wasnorm_wordpool_576.txt	LTP316	ltpFR2	2	7	COTTAGE	384	n/a	n/a	0	0	0
1307659	WORD	wordpools/wasnorm_wordpool_576.txt	LTP316	ltpFR2	2	7	GIFT	635	n/a	n/a	0	0	0
1310411	WORD	wordpools/wasnorm_wordpool_576.txt	LTP316	ltpFR2	2	7	PACKAGE	997	n/a	n/a	0	0	0
1312847	WORD	wordpools/wasnorm_wordpool_576.txt	LTP316	ltpFR2	2	7	HOUND	724	n/a	n/a	0	0	0
1315388	WORD	wordpools/wasnorm_wordpool_576.txt	LTP316	ltpFR2	2	7	RELISH	1183	n/a	n/a	0	0	0
1317002	START	n/a	LTP316	ltpFR2	2	n/a	n/a	n/a	10	n/a	n/a	n/a	n/a
1318184	DISTRACTOR	n/a	LTP316	ltpFR2	2	7	n/a	n/a	n/a	n/a	0	0	0
1318189	PROB	n/a	LTP316	ltpFR2	2	n/a	n/a	n/a	10	7	2	3	2
1319734	PROB	n/a	LTP316	ltpFR2	2	n/a	n/a	n/a	10	10	6	1	2
1322325	PROB	n/a	LTP316	ltpFR2	2	n/a	n/a	n/a	10	14	6	7	1
1324043	PROB	n/a	LTP316	ltpFR2	2	n/a	n/a	n/a	10	20	9	6	5
1326813	PROB	n/a	LTP316	ltpFR2	2	n/a	n/a	n/a	10	11	2	4	5
1328748	PROB	n/a	LTP316	ltpFR2	2	n/a	n/a	n/a	10	16	6	6	4
1330382	PROB	n/a	LTP316	ltpFR2	2	n/a	n/a	n/a	10	7	2	2	3
1332001	PROB	n/a	LTP316	ltpFR2	2	n/a	n/a	n/a	10	16	7	2	7
1334280	PROB	n/a	LTP316	ltpFR2	2	n/a	n/a	n/a	10	24	7	8	9
1336651	PROB	n/a	LTP316	ltpFR2	2	n/a	n/a	n/a	10	17	2	8	7
1338385	PROB	n/a	LTP316	ltpFR2	2	n/a	n/a	n/a	10	19	8	5	6
1340190	STOP	n/a	LTP316	ltpFR2	2	n/a	n/a	n/a	10	n/a	n/a	n/a	n/a
1342807	REC_START	n/a	LTP316	ltpFR2	2	7	n/a	n/a	n/a	n/a	0	0	0
1345917	REC_WORD	wordpools/wasnorm_wordpool_576.txt	LTP316	ltpFR2	2	7	UNCLE	1536	n/a	n/a	0	0	0
1346417	REC_WORD	wordpools/wasnorm_wordpool_576.txt	LTP316	ltpFR2	2	7	RELISH	1183	n/a	n/a	0	0	0
1347106	REC_WORD	wordpools/wasnorm_wordpool_576.txt	LTP316	ltpFR2	2	7	HOUND	724	n/a	n/a	0	0	0
1347816	REC_WORD	wordpools/wasnorm_wordpool_576.txt	LTP316	ltpFR2	2	7	PACKAGE	997	n/a	n/a	0	0	0
1350276	REC_WORD	wordpools/wasnorm_wordpool_576.txt	LTP316	ltpFR2	2	7	COTTAGE	384	n/a	n/a	0	0	0
1350861	REC_WORD	wordpools/wasnorm_wordpool_576.txt	LTP316	ltpFR2	2	7	BLUEPRINT	142	n/a	n/a	0	0	0
1355004	REC_WORD	wordpools/wasnorm_wordpool_576.txt	LTP316	ltpFR2	2	7	ASIA	46	n/a	n/a	0	0	0
1355659	REC_WORD	wordpools/wasnorm_wordpool_576.txt	LTP316	ltpFR2	2	7	TWIG	1527	n/a	n/a	0	0	0
1356359	REC_WORD	wordpools/wasnorm_wordpool_576.txt	LTP316	ltpFR2	2	7	CLOTHES	327	n/a	n/a	0	0	0
1362821	REC_WORD	wordpools/wasnorm_wordpool_576.txt	LTP316	ltpFR2	2	7	BATH	98	n/a	n/a	0	0	0
1363541	REC_WORD	wordpools/wasnorm_wordpool_576.txt	LTP316	ltpFR2	2	7	BATHTUB	100	n/a	n/a	0	0	0
1364397	REC_WORD	wordpools/wasnorm_wordpool_576.txt	LTP316	ltpFR2	2	7	BUBBLE	183	n/a	n/a	0	0	0
1370042	REC_WORD	wordpools/wasnorm_wordpool_576.txt	LTP316	ltpFR2	2	7	WIDOW	1608	n/a	n/a	0	0	0
1379459	REC_WORD	wordpools/wasnorm_wordpool_576.txt	LTP316	ltpFR2	2	7	HONEY	713	n/a	n/a	0	0	0
1386719	REC_WORD	wordpools/wasnorm_wordpool_576.txt	LTP316	ltpFR2	2	7	ROOSTER	1209	n/a	n/a	0	0	0
1387349	REC_WORD	wordpools/wasnorm_wordpool_576.txt	LTP316	ltpFR2	2	7	SPARROW	1347	n/a	n/a	0	0	0
1398854	REC_WORD	wordpools/wasnorm_wordpool_576.txt	LTP316	ltpFR2	2	7	TAXI	1438	n/a	n/a	0	0	0
1433265	DISTRACTOR	n/a	LTP316	ltpFR2	2	8	n/a	n/a	n/a	n/a	0	0	0
1433265	START	n/a	LTP316	ltpFR2	2	n/a	n/a	n/a	11	n/a	n/a	n/a	n/a
1433281	PROB	n/a	LTP316	ltpFR2	2	n/a	n/a	n/a	11	20	9	5	6
1436115	PROB	n/a	LTP316	ltpFR2	2	n/a	n/a	n/a	11	20	8	6	6
1437968	PROB	n/a	LTP316	ltpFR2	2	n/a	n/a	n/a	11	23	8	7	8
1441820	PROB	n/a	LTP316	ltpFR2	2	n/a	n/a	n/a	11	18	7	4	7
1443489	PROB	n/a	LTP316	ltpFR2	2	n/a	n/a	n/a	11	18	9	4	5
1446024	PROB	n/a	LTP316	ltpFR2	2	n/a	n/a	n/a	11	20	7	9	4
1448324	PROB	n/a	LTP316	ltpFR2	2	n/a	n/a	n/a	11	8	2	4	2
1450093	PROB	n/a	LTP316	ltpFR2	2	n/a	n/a	n/a	11	15	6	8	1
1451596	PROB	n/a	LTP316	ltpFR2	2	n/a	n/a	n/a	11	14	7	1	6
1453313	PROB	n/a	LTP316	ltpFR2	2	n/a	n/a	n/a	11	8	5	1	2
1457265	STOP	n/a	LTP316	ltpFR2	2	n/a	n/a	n/a	11	n/a	n/a	n/a	n/a
1458084	WORD	wordpools/wasnorm_wordpool_576.txt	LTP316	ltpFR2	2	8	WAITRESS	1581	n/a	n/a	0	0	0
1460820	WORD	wordpools/wasnorm_wordpool_576.txt	LTP316	ltpFR2	2	8	LUNCH	849	n/a	n/a	0	0	0
1463344	WORD	wordpools/wasnorm_wordpool_576.txt	LTP316	ltpFR2	2	8	FLIPPER	580	n/a	n/a	0	0	0
1466047	WORD	wordpools/wasnorm_wordpool_576.txt	LTP316	ltpFR2	2	8	ULCER	1533	n/a	n/a	0	0	0
1468849	WORD	wordpools/wasnorm_wordpool_576.txt	LTP316	ltpFR2	2	8	GARDEN	623	n/a	n/a	0	0	0
1471445	WORD	wordpools/wasnorm_wordpool_576.txt	LTP316	ltpFR2	2	8	CATCHER	258	n/a	n/a	0	0	0
1474231	WORD	wordpools/wasnorm_wordpool_576.txt	LTP316	ltpFR2	2	8	SPOOL	1356	n/a	n/a	0	0	0
1476933	WORD	wordpools/wasnorm_wordpool_576.txt	LTP316	ltpFR2	2	8	YARN	1631	n/a	n/a	0	0	0
1479519	WORD	wordpools/wasnorm_wordpool_576.txt	LTP316	ltpFR2	2	8	HIGHWAY	707	n/a	n/a	0	0	0
1482128	WORD	wordpools/wasnorm_wordpool_576.txt	LTP316	ltpFR2	2	8	ROCKET	1202	n/a	n/a	0	0	0
1484630	WORD	wordpools/wasnorm_wordpool_576.txt	LTP316	ltpFR2	2	8	BLENDER	136	n/a	n/a	0	0	0
1487208	WORD	wordpools/wasnorm_wordpool_576.txt	LTP316	ltpFR2	2	8	DRAGON	492	n/a	n/a	0	0	0
1489910	WORD	wordpools/wasnorm_wordpool_576.txt	LTP316	ltpFR2	2	8	FLESH	579	n/a	n/a	0	0	0
1492361	WORD	wordpools/wasnorm_wordpool_576.txt	LTP316	ltpFR2	2	8	COSTUME	383	n/a	n/a	0	0	0
1494848	WORD	wordpools/wasnorm_wordpool_576.txt	LTP316	ltpFR2	2	8	SWITCH	1422	n/a	n/a	0	0	0
1497557	WORD	wordpools/wasnorm_wordpool_576.txt	LTP316	ltpFR2	2	8	VELVET	1555	n/a	n/a	0	0	0
1499993	WORD	wordpools/wasnorm_wordpool_576.txt	LTP316	ltpFR2	2	8	PARTNER	1017	n/a	n/a	0	0	0
1502537	WORD	wordpools/wasnorm_wordpool_576.txt	LTP316	ltpFR2	2	8	BOYFRIEND	162	n/a	n/a	0	0	0
1505114	WORD	wordpools/wasnorm_wordpool_576.txt	LTP316	ltpFR2	2	8	RADISH	1158	n/a	n/a	0	0	0
1507708	WORD	wordpools/wasnorm_wordpool_576.txt	LTP316	ltpFR2	2	8	LIZARD	834	n/a	n/a	0	0	0
1510176	WORD	wordpools/wasnorm_wordpool_576.txt	LTP316	ltpFR2	2	8	FOOT	590	n/a	n/a	0	0	0
1512811	WORD	wordpools/wasnorm_wordpool_576.txt	LTP316	ltpFR2	2	8	DOLPHIN	483	n/a	n/a	0	0	0
1515414	WORD	wordpools/wasnorm_wordpool_576.txt	LTP316	ltpFR2	2	8	CABIN	211	n/a	n/a	0	0	0
1518149	WORD	wordpools/wasnorm_wordpool_576.txt	LTP316	ltpFR2	2	8	REBEL	1172	n/a	n/a	0	0	0
1519761	START	n/a	LTP316	ltpFR2	2	n/a	n/a	n/a	12	n/a	n/a	n/a	n/a
1520684	DISTRACTOR	n/a	LTP316	ltpFR2	2	8	n/a	n/a	n/a	n/a	0	0	0
1520695	PROB	n/a	LTP316	ltpFR2	2	n/a	n/a	n/a	12	16	7	8	1
1522234	PROB	n/a	LTP316	ltpFR2	2	n/a	n/a	n/a	12	13	5	3	5
1525254	PROB	n/a	LTP316	ltpFR2	2	n/a	n/a	n/a	12	14	8	4	2
1526889	PROB	n/a	LTP316	ltpFR2	2	n/a	n/a	n/a	12	16	6	8	2
1528558	PROB	n/a	LTP316	ltpFR2	2	n/a	n/a	n/a	12	20	9	5	7
1531044	PROB	n/a	LTP316	ltpFR2	2	n/a	n/a	n/a	12	15	1	8	6
1533411	PROB	n/a	LTP316	ltpFR2	2	n/a	n/a	n/a	12	14	2	9	3
1534979	PROB	n/a	LTP316	ltpFR2	2	n/a	n/a	n/a	12	13	3	4	6
1538265	PROB	n/a	LTP316	ltpFR2	2	n/a	n/a	n/a	12	20	7	7	6
1539783	PROB	n/a	LTP316	ltpFR2	2	n/a	n/a	n/a	12	13	2	4	7
1543761	STOP	n/a	LTP316	ltpFR2	2	n/a	n/a	n/a	12	n/a	n/a	n/a	n/a
1545539	REC_START	n/a	LTP316	ltpFR2	2	8	n/a	n/a	n/a	n/a	0	0	0
1548433	REC_WORD	wordpools/wasnorm_wordpool_576.txt	LTP316	ltpFR2	2	8	LUNCH	849	n/a	n/a	0	0	0
1549166	REC_WORD	wordpools/wasnorm_wordpool_576.txt	LTP316	ltpFR2	2	8	WAITRESS	1581	n/a	n/a	0	0	0
1550180	REC_WORD	wordpools/wasnorm_wordpool_576.txt	LTP316	ltpFR2	2	8	FLIPPER	580	n/a	n/a	0	0	0
1551199	REC_WORD	wordpools/wasnorm_wordpool_576.txt	LTP316	ltpFR2	2	8	ULCER	1533	n/a	n/a	0	0	0
1553504	REC_WORD	wordpools/wasnorm_wordpool_576.txt	LTP316	ltpFR2	2	8	GARDEN	623	n/a	n/a	0	0	0
1554424	REC_WORD	wordpools/wasnorm_wordpool_576.txt	LTP316	ltpFR2	2	8	CATCHER	258	n/a	n/a	0	0	0
1556669	REC_WORD	wordpools/wasnorm_wordpool_576.txt	LTP316	ltpFR2	2	8	SPOOL	1356	n/a	n/a	0	0	0
1557749	REC_WORD	wordpools/wasnorm_wordpool_576.txt	LTP316	ltpFR2	2	8	YARN	1631	n/a	n/a	0	0	0
1560493	REC_WORD	wordpools/wasnorm_wordpool_576.txt	LTP316	ltpFR2	2	8	HIGHWAY	707	n/a	n/a	0	0	0
1561687	REC_WORD	wordpools/wasnorm_wordpool_576.txt	LTP316	ltpFR2	2	8	ROCKET	1202	n/a	n/a	0	0	0
1562877	REC_WORD	wordpools/wasnorm_wordpool_576.txt	LTP316	ltpFR2	2	8	BLENDER	136	n/a	n/a	0	0	0
1563937	REC_WORD	wordpools/wasnorm_wordpool_576.txt	LTP316	ltpFR2	2	8	DRAGON	492	n/a	n/a	0	0	0
1566262	REC_WORD	wordpools/wasnorm_wordpool_576.txt	LTP316	ltpFR2	2	8	FLESH	579	n/a	n/a	0	0	0
1572682	REC_WORD	wordpools/wasnorm_wordpool_576.txt	LTP316	ltpFR2	2	8	VELVET	1555	n/a	n/a	0	0	0
1574417	REC_WORD	wordpools/wasnorm_wordpool_576.txt	LTP316	ltpFR2	2	8	SWITCH	1422	n/a	n/a	0	0	0
1576470	REC_WORD	wordpools/wasnorm_wordpool_576.txt	LTP316	ltpFR2	2	8	FOOT	590	n/a	n/a	0	0	0
1577580	REC_WORD	wordpools/wasnorm_wordpool_576.txt	LTP316	ltpFR2	2	8	BOYFRIEND	162	n/a	n/a	0	0	0
1578570	REC_WORD	wordpools/wasnorm_wordpool_576.txt	LTP316	ltpFR2	2	8	PARTNER	1017	n/a	n/a	0	0	0
1579560	REC_WORD	wordpools/wasnorm_wordpool_576.txt	LTP316	ltpFR2	2	8	RELISH	1183	n/a	n/a	0	0	0
1582795	REC_WORD	wordpools/wasnorm_wordpool_576.txt	LTP316	ltpFR2	2	8	LIZARD	834	n/a	n/a	0	0	0
1583775	REC_WORD	wordpools/wasnorm_wordpool_576.txt	LTP316	ltpFR2	2	8	DOLPHIN	483	n/a	n/a	0	0	0
1622082	REST_REWET	n/a	LTP316	ltpFR2	2	8	n/a	n/a	n/a	n/a	0	0	0
1778308	DISTRACTOR	n/a	LTP316	ltpFR2	2	9	n/a	n/a	n/a	n/a	0	0	0
1778309	START	n/a	LTP316	ltpFR2	2	n/a	n/a	n/a	13	n/a	n/a	n/a	n/a
1778324	PROB	n/a	LTP316	ltpFR2	2	n/a	n/a	n/a	13	15	6	8	1
1779943	PROB	n/a	LTP316	ltpFR2	2	n/a	n/a	n/a	13	16	5	9	2
1781543	PROB	n/a	LTP316	ltpFR2	2	n/a	n/a	n/a	13	12	7	3	2
1782860	PROB	n/a	LTP316	ltpFR2	2	n/a	n/a	n/a	13	16	1	8	7
1785064	PROB	n/a	LTP316	ltpFR2	2	n/a	n/a	n/a	13	19	2	9	8
1786814	PROB	n/a	LTP316	ltpFR2	2	n/a	n/a	n/a	13	18	6	5	7
1789000	PROB	n/a	LTP316	ltpFR2	2	n/a	n/a	n/a	13	12	6	1	5
1791168	PROB	n/a	LTP316	ltpFR2	2	n/a	n/a	n/a	13	9	2	3	4
1793704	PROB	n/a	LTP316	ltpFR2	2	n/a	n/a	n/a	13	14	2	8	4
1795270	PROB	n/a	LTP316	ltpFR2	2	n/a	n/a	n/a	13	8	5	2	1
1796824	PROB	n/a	LTP316	ltpFR2	2	n/a	n/a	n/a	13	17	9	3	7
1798339	PROB	n/a	LTP316	ltpFR2	2	n/a	n/a	n/a	13	20	6	8	6
1802308	STOP	n/a	LTP316	ltpFR2	2	n/a	n/a	n/a	13	n/a	n/a	n/a	n/a
1803340	WORD	wordpools/wasnorm_wordpool_576.txt	LTP316	ltpFR2	2	9	BABY	64	n/a	n/a	0	0	0
1806109	WORD	wordpools/wasnorm_wordpool_576.txt	LTP316	ltpFR2	2	9	SISTER	1312	n/a	n/a	0	0	0
1808700	WORD	wordpools/wasnorm_wordpool_576.txt	LTP316	ltpFR2	2	9	ATOM	55	n/a	n/a	0	0	0
1811147	WORD	wordpools/wasnorm_wordpool_576.txt	LTP316	ltpFR2	2	9	JELLO	754	n/a	n/a	0	0	0
1813733	WORD	wordpools/wasnorm_wordpool_576.txt	LTP316	ltpFR2	2	9	FLASK	576	n/a	n/a	0	0	0
1816506	WORD	wordpools/wasnorm_wordpool_576.txt	LTP316	ltpFR2	2	9	NURSE	963	n/a	n/a	0	0	0
1818971	WORD	wordpools/wasnorm_wordpool_576.txt	LTP316	ltpFR2	2	9	CITRUS	313	n/a	n/a	0	0	0
1821723	WORD	wordpools/wasnorm_wordpool_576.txt	LTP316	ltpFR2	2	9	BLOUSE	139	n/a	n/a	0	0	0
1824175	WORD	wordpools/wasnorm_wordpool_576.txt	LTP316	ltpFR2	2	9	SUBWAY	1400	n/a	n/a	0	0	0
1826795	WORD	wordpools/wasnorm_wordpool_576.txt	LTP316	ltpFR2	2	9	SANDWICH	1232	n/a	n/a	0	0	0
1829497	WORD	wordpools/wasnorm_wordpool_576.txt	LTP316	ltpFR2	2	9	COCKTAIL	338	n/a	n/a	0	0	0
1832265	WORD	wordpools/wasnorm_wordpool_576.txt	LTP316	ltpFR2	2	9	OINTMENT	974	n/a	n/a	0	0	0
1834784	WORD	wordpools/wasnorm_wordpool_576.txt	LTP316	ltpFR2	2	9	JUDGE	761	n/a	n/a	0	0	0
1837272	WORD	wordpools/wasnorm_wordpool_576.txt	LTP316	ltpFR2	2	9	COOK	372	n/a	n/a	0	0	0
1839772	WORD	wordpools/wasnorm_wordpool_576.txt	LTP316	ltpFR2	2	9	DOUGHNUT	490	n/a	n/a	0	0	0
1842575	WORD	wordpools/wasnorm_wordpool_576.txt	LTP316	ltpFR2	2	9	FREEZER	604	n/a	n/a	0	0	0
1845061	WORD	wordpools/wasnorm_wordpool_576.txt	LTP316	ltpFR2	2	9	TART	1436	n/a	n/a	0	0	0
1847663	WORD	wordpools/wasnorm_wordpool_576.txt	LTP316	ltpFR2	2	9	CHILD	299	n/a	n/a	0	0	0
1850448	WORD	wordpools/wasnorm_wordpool_576.txt	LTP316	ltpFR2	2	9	PLAID	1080	n/a	n/a	0	0	0
1852901	WORD	wordpools/wasnorm_wordpool_576.txt	LTP316	ltpFR2	2	9	CLAM	315	n/a	n/a	0	0	0
1855469	WORD	wordpools/wasnorm_wordpool_576.txt	LTP316	ltpFR2	2	9	OYSTER	995	n/a	n/a	0	0	0
1857988	WORD	wordpools/wasnorm_wordpool_576.txt	LTP316	ltpFR2	2	9	SNACK	1331	n/a	n/a	0	0	0
1860541	WORD	wordpools/wasnorm_wordpool_576.txt	LTP316	ltpFR2	2	9	WHISKERS	1605	n/a	n/a	0	0	0
1863208	WORD	wordpools/wasnorm_wordpool_576.txt	LTP316	ltpFR2	2	9	BEAKER	104	n/a	n/a	0	0	0
1864828	START	n/a	LTP316	ltpFR2	2	n/a	n/a	n/a	14	n/a	n/a	n/a	n/a
1865685	DISTRACTOR	n/a	LTP316	ltpFR2	2	9	n/a	n/a	n/a	n/a	0	0	0
1865695	PROB	n/a	LTP316	ltpFR2	2	n/a	n/a	n/a	14	14	2	4	8
1867580	PROB	n/a	LTP316	ltpFR2	2	n/a	n/a	n/a	14	9	2	2	5
1868996	PROB	n/a	LTP316	ltpFR2	2	n/a	n/a	n/a	14	23	7	8	7
1870714	PROB	n/a	LTP316	ltpFR2	2	n/a	n/a	n/a	14	22	9	5	8
1876770	PROB	n/a	LTP316	ltpFR2	2	n/a	n/a	n/a	14	14	9	4	1
1878355	PROB	n/a	LTP316	ltpFR2	2	n/a	n/a	n/a	14	23	9	7	7
1881191	PROB	n/a	LTP316	ltpFR2	2	n/a	n/a	n/a	14	15	7	1	7
1883157	PROB	n/a	LTP316	ltpFR2	2	n/a	n/a	n/a	14	15	2	6	7
1884893	PROB	n/a	LTP316	ltpFR2	2	n/a	n/a	n/a	14	12	8	3	1
1886861	PROB	n/a	LTP316	ltpFR2	2	n/a	n/a	n/a	14	19	6	4	9
1888100	STOP	n/a	LTP316	ltpFR2	2	n/a	n/a	n/a	14	n/a	n/a	n/a	n/a
1890715	REC_START	n/a	LTP316	ltpFR2	2	9	n/a	n/a	n/a	n/a	0	0	0
1893166	REC_WORD	wordpools/wasnorm_wordpool_576.txt	LTP316	ltpFR2	2	9	BABY	64	n/a	n/a	0	0	0
1893857	REC_WORD	wordpools/wasnorm_wordpool_576.txt	LTP316	ltpFR2	2	9	SISTER	1312	n/a	n/a	0	0	0
1895007	REC_WORD	wordpools/wasnorm_wordpool_576.txt	LTP316	ltpFR2	2	9	ATOM	55	n/a	n/a	0	0	0
1895997	REC_WORD	wordpools/wasnorm_wordpool_576.txt	LTP316	ltpFR2	2	9	JELLO	754	n/a	n/a	0	0	0
1897972	REC_WORD	wordpools/wasnorm_wordpool_576.txt	LTP316	ltpFR2	2	9	CITRUS	313	n/a	n/a	0	0	0
1899167	REC_WORD	wordpools/wasnorm_wordpool_576.txt	LTP316	ltpFR2	2	9	BLOUSE	139	n/a	n/a	0	0	0
1900157	REC_WORD	wordpools/wasnorm_wordpool_576.txt	LTP316	ltpFR2	2	9	PLAID	1080	n/a	n/a	0	0	0
1901877	REC_WORD	wordpools/wasnorm_wordpool_576.txt	LTP316	ltpFR2	2	9	FREEZER	604	n/a	n/a	0	0	0
1902767	REC_WORD	wordpools/wasnorm_wordpool_576.txt	LTP316	ltpFR2	2	9	TART	1436	n/a	n/a	0	0	0
1903512	REC_WORD	wordpools/wasnorm_wordpool_576.txt	LTP316	ltpFR2	2	9	DOUGHNUT	490	n/a	n/a	0	0	0
1904177	REC_WORD	wordpools/wasnorm_wordpool_576.txt	LTP316	ltpFR2	2	9	OYSTER	995	n/a	n/a	0	0	0
1904852	REC_WORD	wordpools/wasnorm_wordpool_576.txt	LTP316	ltpFR2	2	9	CLAM	315	n/a	n/a	0	0	0
1907751	REC_WORD	wordpools/wasnorm_wordpool_576.txt	LTP316	ltpFR2	2	9	FLASK	576	n/a	n/a	0	0	0
1908696	REC_WORD	wordpools/wasnorm_wordpool_576.txt	LTP316	ltpFR2	2	9	COCKTAIL	338	n/a	n/a	0	0	0
1910456	REC_WORD	wordpools/wasnorm_wordpool_576.txt	LTP316	ltpFR2	2	9	JUDGE	761	n/a	n/a	0	0	0
1911591	REC_WORD	wordpools/wasnorm_wordpool_576.txt	LTP316	ltpFR2	2	9	OINTMENT	974	n/a	n/a	0	0	0
1913611	REC_WORD	wordpools/wasnorm_wordpool_576.txt	LTP316	ltpFR2	2	9	CHILD	299	n/a	n/a	0	0	0
1920926	REC_WORD	wordpools/wasnorm_wordpool_576.txt	LTP316	ltpFR2	2	9	WHISKERS	1605	n/a	n/a	0	0	0
1922096	REC_WORD	wordpools/wasnorm_wordpool_576.txt	LTP316	ltpFR2	2	9	BEAKER	104	n/a	n/a	0	0	0
1981138	DISTRACTOR	n/a	LTP316	ltpFR2	2	10	n/a	n/a	n/a	n/a	0	0	0
1981138	START	n/a	LTP316	ltpFR2	2	n/a	n/a	n/a	15	n/a	n/a	n/a	n/a
1981153	PROB	n/a	LTP316	ltpFR2	2	n/a	n/a	n/a	15	10	1	4	5
1982854	PROB	n/a	LTP316	ltpFR2	2	n/a	n/a	n/a	15	14	2	9	3
1985089	PROB	n/a	LTP316	ltpFR2	2	n/a	n/a	n/a	15	21	4	8	9
1987009	PROB	n/a	LTP316	ltpFR2	2	n/a	n/a	n/a	15	13	5	5	3
1988442	PROB	n/a	LTP316	ltpFR2	2	n/a	n/a	n/a	15	11	7	1	3
1990944	PROB	n/a	LTP316	ltpFR2	2	n/a	n/a	n/a	15	14	2	5	7
1992613	PROB	n/a	LTP316	ltpFR2	2	n/a	n/a	n/a	15	16	6	1	9
1994464	PROB	n/a	LTP316	ltpFR2	2	n/a	n/a	n/a	15	20	6	9	5
1996448	PROB	n/a	LTP316	ltpFR2	2	n/a	n/a	n/a	15	18	4	6	8
1998951	PROB	n/a	LTP316	ltpFR2	2	n/a	n/a	n/a	15	16	3	9	4
2001354	PROB	n/a	LTP316	ltpFR2	2	n/a	n/a	n/a	15	9	4	1	4
2002603	PROB	n/a	LTP316	ltpFR2	2	n/a	n/a	n/a	15	14	4	8	2
2004160	STOP	n/a	LTP316	ltpFR2	2	n/a	n/a	n/a	15	n/a	n/a	n/a	n/a
2006167	WORD	wordpools/wasnorm_wordpool_576.txt	LTP316	ltpFR2	2	10	DRINK	498	n/a	n/a	0	0	0
2008860	WORD	wordpools/wasnorm_wordpool_576.txt	LTP316	ltpFR2	2	10	LETTUCE	814	n/a	n/a	0	0	0
2011622	WORD	wordpools/wasnorm_wordpool_576.txt	LTP316	ltpFR2	2	10	SCARF	1246	n/a	n/a	0	0	0
2014306	WORD	wordpools/wasnorm_wordpool_576.txt	LTP316	ltpFR2	2	10	BACKBONE	66	n/a	n/a	0	0	0
2016967	WORD	wordpools/wasnorm_wordpool_576.txt	LTP316	ltpFR2	2	10	WAITER	1580	n/a	n/a	0	0	0
2019479	WORD	wordpools/wasnorm_wordpool_576.txt	LTP316	ltpFR2	2	10	OUTFIT	988	n/a	n/a	0	0	0
2022113	WORD	wordpools/wasnorm_wordpool_576.txt	LTP316	ltpFR2	2	10	CASHIER	254	n/a	n/a	0	0	0
2024623	WORD	wordpools/wasnorm_wordpool_576.txt	LTP316	ltpFR2	2	10	KIDNEY	776	n/a	n/a	0	0	0
2027135	WORD	wordpools/wasnorm_wordpool_576.txt	LTP316	ltpFR2	2	10	BANQUET	86	n/a	n/a	0	0	0
2029638	WORD	wordpools/wasnorm_wordpool_576.txt	LTP316	ltpFR2	2	10	PASTA	1021	n/a	n/a	0	0	0
2032272	WORD	wordpools/wasnorm_wordpool_576.txt	LTP316	ltpFR2	2	10	BANK	83	n/a	n/a	0	0	0
2035010	WORD	wordpools/wasnorm_wordpool_576.txt	LTP316	ltpFR2	2	10	CONVICT	371	n/a	n/a	0	0	0
2037562	WORD	wordpools/wasnorm_wordpool_576.txt	LTP316	ltpFR2	2	10	VICTIM	1562	n/a	n/a	0	0	0
2040113	WORD	wordpools/wasnorm_wordpool_576.txt	LTP316	ltpFR2	2	10	PRINCE	1124	n/a	n/a	0	0	0
2042883	WORD	wordpools/wasnorm_wordpool_576.txt	LTP316	ltpFR2	2	10	BARLEY	88	n/a	n/a	0	0	0
2045601	WORD	wordpools/wasnorm_wordpool_576.txt	LTP316	ltpFR2	2	10	PEBBLE	1035	n/a	n/a	0	0	0
2048287	WORD	wordpools/wasnorm_wordpool_576.txt	LTP316	ltpFR2	2	10	SCRIBBLE	1256	n/a	n/a	0	0	0
2050843	WORD	wordpools/wasnorm_wordpool_576.txt	LTP316	ltpFR2	2	10	CASHEW	253	n/a	n/a	0	0	0
2053609	WORD	wordpools/wasnorm_wordpool_576.txt	LTP316	ltpFR2	2	10	PEANUT	1032	n/a	n/a	0	0	0
2056160	WORD	wordpools/wasnorm_wordpool_576.txt	LTP316	ltpFR2	2	10	CREVICE	405	n/a	n/a	0	0	0
2058630	WORD	wordpools/wasnorm_wordpool_576.txt	LTP316	ltpFR2	2	10	LIGHTNING	820	n/a	n/a	0	0	0
2061201	WORD	wordpools/wasnorm_wordpool_576.txt	LTP316	ltpFR2	2	10	TEMPLE	1448	n/a	n/a	0	0	0
2063918	WORD	wordpools/wasnorm_wordpool_576.txt	LTP316	ltpFR2	2	10	SPOON	1357	n/a	n/a	0	0	0
2066420	WORD	wordpools/wasnorm_wordpool_576.txt	LTP316	ltpFR2	2	10	GOBLIN	645	n/a	n/a	0	0	0
2068026	START	n/a	LTP316	ltpFR2	2	n/a	n/a	n/a	16	n/a	n/a	n/a	n/a
2068936	DISTRACTOR	n/a	LTP316	ltpFR2	2	10	n/a	n/a	n/a	n/a	0	0	0
2068942	PROB	n/a	LTP316	ltpFR2	2	n/a	n/a	n/a	16	15	7	5	3
2070889	PROB	n/a	LTP316	ltpFR2	2	n/a	n/a	n/a	16	23	8	6	9
2073107	PROB	n/a	LTP316	ltpFR2	2	n/a	n/a	n/a	16	14	3	2	9
2074710	PROB	n/a	LTP316	ltpFR2	2	n/a	n/a	n/a	16	11	1	4	6
2076832	PROB	n/a	LTP316	ltpFR2	2	n/a	n/a	n/a	16	11	4	3	4
2079613	PROB	n/a	LTP316	ltpFR2	2	n/a	n/a	n/a	16	14	1	5	8
2081050	PROB	n/a	LTP316	ltpFR2	2	n/a	n/a	n/a	16	9	1	1	7
2082349	PROB	n/a	LTP316	ltpFR2	2	n/a	n/a	n/a	16	17	9	6	2
2084051	PROB	n/a	LTP316	ltpFR2	2	n/a	n/a	n/a	16	14	4	7	3
2085635	PROB	n/a	LTP316	ltpFR2	2	n/a	n/a	n/a	16	17	3	9	5
2088188	PROB	n/a	LTP316	ltpFR2	2	n/a	n/a	n/a	16	7	5	1	1
2089692	PROB	n/a	LTP316	ltpFR2	2	n/a	n/a	n/a	16	5	3	1	1
2090997	STOP	n/a	LTP316	ltpFR2	2	n/a	n/a	n/a	16	n/a	n/a	n/a	n/a
2093813	REC_START	n/a	LTP316	ltpFR2	2	10	n/a	n/a	n/a	n/a	0	0	0
2095387	REC_WORD	wordpools/wasnorm_wordpool_576.txt	LTP316	ltpFR2	2	10	CONVICT	371	n/a	n/a	0	0	0
2096280	REC_WORD	wordpools/wasnorm_wordpool_576.txt	LTP316	ltpFR2	2	10	VICTIM	1562	n/a	n/a	0	0	0
2096880	REC_WORD	wordpools/wasnorm_wordpool_576.txt	LTP316	ltpFR2	2	10	TEMPLE	1448	n/a	n/a	0	0	0
2097456	REC_WORD	wordpools/wasnorm_wordpool_576.txt	LTP316	ltpFR2	2	10	LIGHTNING	820	n/a	n/a	0	0	0
2098272	REC_WORD	wordpools/wasnorm_wordpool_576.txt	LTP316	ltpFR2	2	10	GOBLIN	645	n/a	n/a	0	0	0
2098837	REC_WORD	wordpools/wasnorm_wordpool_576.txt	LTP316	ltpFR2	2	10	SPOON	1357	n/a	n/a	0	0	0
2100109	REC_WORD	wordpools/wasnorm_wordpool_576.txt	LTP316	ltpFR2	2	10	WAITER	1580	n/a	n/a	0	0	0
2100479	REC_WORD	wordpools/wasnorm_wordpool_576.txt	LTP316	ltpFR2	2	10	SCARF	1246	n/a	n/a	0	0	0
2101129	REC_WORD	wordpools/wasnorm_wordpool_576.txt	LTP316	ltpFR2	2	10	BACKBONE	66	n/a	n/a	0	0	0
2101829	REC_WORD	wordpools/wasnorm_wordpool_576.txt	LTP316	ltpFR2	2	10	KIDNEY	776	n/a	n/a	0	0	0
2103269	REC_WORD	wordpools/wasnorm_wordpool_576.txt	LTP316	ltpFR2	2	10	LETTUCE	814	n/a	n/a	0	0	0
2103949	REC_WORD	wordpools/wasnorm_wordpool_576.txt	LTP316	ltpFR2	2	10	PASTA	1021	n/a	n/a	0	0	0
2106029	REC_WORD	wordpools/wasnorm_wordpool_576.txt	LTP316	ltpFR2	2	10	PEBBLE	1035	n/a	n/a	0	0	0
2106589	REC_WORD	wordpools/wasnorm_wordpool_576.txt	LTP316	ltpFR2	2	10	BARLEY	88	n/a	n/a	0	0	0
2108924	REC_WORD	wordpools/wasnorm_wordpool_576.txt	LTP316	ltpFR2	2	10	CASHEW	253	n/a	n/a	0	0	0
2109559	REC_WORD	wordpools/wasnorm_wordpool_576.txt	LTP316	ltpFR2	2	10	PEANUT	1032	n/a	n/a	0	0	0
2114612	REC_WORD	wordpools/wasnorm_wordpool_576.txt	LTP316	ltpFR2	2	10	BANQUET	86	n/a	n/a	0	0	0
2116732	REC_WORD	wordpools/wasnorm_wordpool_576.txt	LTP316	ltpFR2	2	10	CASHIER	254	n/a	n/a	0	0	0
2117288	REC_WORD	wordpools/wasnorm_wordpool_576.txt	LTP316	ltpFR2	2	10	SCRIBBLE	1256	n/a	n/a	0	0	0
2166211	REC_WORD	wordpools/wasnorm_wordpool_576.txt	LTP316	ltpFR2	2	10	OUTFIT	988	n/a	n/a	0	0	0
2184250	WORD	wordpools/wasnorm_wordpool_576.txt	LTP316	ltpFR2	2	11	PLAYGROUND	1087	n/a	n/a	0	0	0
2186719	WORD	wordpools/wasnorm_wordpool_576.txt	LTP316	ltpFR2	2	11	SERVANT	1271	n/a	n/a	0	0	0
2189188	WORD	wordpools/wasnorm_wordpool_576.txt	LTP316	ltpFR2	2	11	SIDEWALK	1303	n/a	n/a	0	0	0
2191890	WORD	wordpools/wasnorm_wordpool_576.txt	LTP316	ltpFR2	2	11	SAUSAGE	1238	n/a	n/a	0	0	0
2194399	WORD	wordpools/wasnorm_wordpool_576.txt	LTP316	ltpFR2	2	11	SHARK	1275	n/a	n/a	0	0	0
2196944	WORD	wordpools/wasnorm_wordpool_576.txt	LTP316	ltpFR2	2	11	TRIBE	1505	n/a	n/a	0	0	0
2199663	WORD	wordpools/wasnorm_wordpool_576.txt	LTP316	ltpFR2	2	11	SUNRISE	1407	n/a	n/a	0	0	0
2202204	WORD	wordpools/wasnorm_wordpool_576.txt	LTP316	ltpFR2	2	11	TERMITE	1451	n/a	n/a	0	0	0
2204958	WORD	wordpools/wasnorm_wordpool_576.txt	LTP316	ltpFR2	2	11	PICNIC	1060	n/a	n/a	0	0	0
2207702	WORD	wordpools/wasnorm_wordpool_576.txt	LTP316	ltpFR2	2	11	LASER	801	n/a	n/a	0	0	0
2210144	WORD	wordpools/wasnorm_wordpool_576.txt	LTP316	ltpFR2	2	11	FINGER	567	n/a	n/a	0	0	0
2212757	WORD	wordpools/wasnorm_wordpool_576.txt	LTP316	ltpFR2	2	11	VIKING	1565	n/a	n/a	0	0	0
2215476	WORD	wordpools/wasnorm_wordpool_576.txt	LTP316	ltpFR2	2	11	MOP	916	n/a	n/a	0	0	0
2218011	WORD	wordpools/wasnorm_wordpool_576.txt	LTP316	ltpFR2	2	11	DUSTPAN	509	n/a	n/a	0	0	0
2220588	WORD	wordpools/wasnorm_wordpool_576.txt	LTP316	ltpFR2	2	11	ORCHID	982	n/a	n/a	0	0	0
2223080	WORD	wordpools/wasnorm_wordpool_576.txt	LTP316	ltpFR2	2	11	MISSILE	900	n/a	n/a	0	0	0
2225843	WORD	wordpools/wasnorm_wordpool_576.txt	LTP316	ltpFR2	2	11	QUEEN	1149	n/a	n/a	0	0	0
2228461	WORD	wordpools/wasnorm_wordpool_576.txt	LTP316	ltpFR2	2	11	CLOUD	328	n/a	n/a	0	0	0
2231221	WORD	wordpools/wasnorm_wordpool_576.txt	LTP316	ltpFR2	2	11	SPONGE	1355	n/a	n/a	0	0	0
2234007	WORD	wordpools/wasnorm_wordpool_576.txt	LTP316	ltpFR2	2	11	MARINE	869	n/a	n/a	0	0	0
2236602	WORD	wordpools/wasnorm_wordpool_576.txt	LTP316	ltpFR2	2	11	SUNSET	1408	n/a	n/a	0	0	0
2239136	WORD	wordpools/wasnorm_wordpool_576.txt	LTP316	ltpFR2	2	11	ANKLE	24	n/a	n/a	0	0	0
2241589	WORD	wordpools/wasnorm_wordpool_576.txt	LTP316	ltpFR2	2	11	RAFT	1159	n/a	n/a	0	0	0
2244041	WORD	wordpools/wasnorm_wordpool_576.txt	LTP316	ltpFR2	2	11	TYPIST	1532	n/a	n/a	0	0	0
2245651	START	n/a	LTP316	ltpFR2	2	n/a	n/a	n/a	17	n/a	n/a	n/a	n/a
2246713	DISTRACTOR	n/a	LTP316	ltpFR2	2	11	n/a	n/a	n/a	n/a	0	0	0
2246717	PROB	n/a	LTP316	ltpFR2	2	n/a	n/a	n/a	17	18	8	3	7
2248601	PROB	n/a	LTP316	ltpFR2	2	n/a	n/a	n/a	17	17	8	5	4
2253103	PROB	n/a	LTP316	ltpFR2	2	n/a	n/a	n/a	17	13	9	3	1
2255508	PROB	n/a	LTP316	ltpFR2	2	n/a	n/a	n/a	17	17	7	6	4
2257157	PROB	n/a	LTP316	ltpFR2	2	n/a	n/a	n/a	17	17	9	6	2
2259175	PROB	n/a	LTP316	ltpFR2	2	n/a	n/a	n/a	17	3	1	1	1
2260344	PROB	n/a	LTP316	ltpFR2	2	n/a	n/a	n/a	17	14	1	8	5
2263013	PROB	n/a	LTP316	ltpFR2	2	n/a	n/a	n/a	17	20	6	5	9
2265163	PROB	n/a	LTP316	ltpFR2	2	n/a	n/a	n/a	17	17	5	8	4
2267500	PROB	n/a	LTP316	ltpFR2	2	n/a	n/a	n/a	17	10	4	1	5
2269083	STOP	n/a	LTP316	ltpFR2	2	n/a	n/a	n/a	17	n/a	n/a	n/a	n/a
2271555	REC_START	n/a	LTP316	ltpFR2	2	11	n/a	n/a	n/a	n/a	0	0	0
2273137	REC_WORD	wordpools/wasnorm_wordpool_576.txt	LTP316	ltpFR2	2	11	PLAYGROUND	1087	n/a	n/a	0	0	0
2273796	REC_WORD	wordpools/wasnorm_wordpool_576.txt	LTP316	ltpFR2	2	11	SIDEWALK	1303	n/a	n/a	0	0	0
2274746	REC_WORD	wordpools/wasnorm_wordpool_576.txt	LTP316	ltpFR2	2	11	SERVANT	1271	n/a	n/a	0	0	0
2277256	REC_WORD	wordpools/wasnorm_wordpool_576.txt	LTP316	ltpFR2	2	11	TRIBE	1505	n/a	n/a	0	0	0
2277866	REC_WORD	wordpools/wasnorm_wordpool_576.txt	LTP316	ltpFR2	2	11	SUNRISE	1407	n/a	n/a	0	0	0
2278713	REC_WORD	wordpools/wasnorm_wordpool_576.txt	LTP316	ltpFR2	2	11	SUNSET	1408	n/a	n/a	0	0	0
2279458	REC_WORD	wordpools/wasnorm_wordpool_576.txt	LTP316	ltpFR2	2	11	RAFT	1159	n/a	n/a	0	0	0
2282860	REC_WORD	wordpools/wasnorm_wordpool_576.txt	LTP316	ltpFR2	2	11	MOP	916	n/a	n/a	0	0	0
2283520	REC_WORD	wordpools/wasnorm_wordpool_576.txt	LTP316	ltpFR2	2	11	DUSTPAN	509	n/a	n/a	0	0	0
2284520	REC_WORD_VV	wordpools/wasnorm_wordpool_576.txt	LTP316	ltpFR2	2	11	<>	-1	n/a	n/a	0	0	0
2285203	REC_WORD	wordpools/wasnorm_wordpool_576.txt	LTP316	ltpFR2	2	11	SHARK	1275	n/a	n/a	0	0	0
2286203	REC_WORD_VV	wordpools/wasnorm_wordpool_576.txt	LTP316	ltpFR2	2	11	<>	-1	n/a	n/a	0	0	0
2286358	REC_WORD	wordpools/wasnorm_wordpool_576.txt	LTP316	ltpFR2	2	11	SAUSAGE	1238	n/a	n/a	0	0	0
2287358	REC_WORD_VV	wordpools/wasnorm_wordpool_576.txt	LTP316	ltpFR2	2	11	<>	-1	n/a	n/a	0	0	0
2289231	REC_WORD	wordpools/wasnorm_wordpool_576.txt	LTP316	ltpFR2	2	11	VIKING	1565	n/a	n/a	0	0	0
2289956	REC_WORD	wordpools/wasnorm_wordpool_576.txt	LTP316	ltpFR2	2	11	FINGER	567	n/a	n/a	0	0	0
2290851	REC_WORD	wordpools/wasnorm_wordpool_576.txt	LTP316	ltpFR2	2	11	TYPIST	1532	n/a	n/a	0	0	0
2291915	REC_WORD	wordpools/wasnorm_wordpool_576.txt	LTP316	ltpFR2	2	11	LASER	801	n/a	n/a	0	0	0
2292726	REC_WORD	wordpools/wasnorm_wordpool_576.txt	LTP316	ltpFR2	2	11	MISSILE	900	n/a	n/a	0	0	0
2293628	REC_WORD	wordpools/wasnorm_wordpool_576.txt	LTP316	ltpFR2	2	11	QUEEN	1149	n/a	n/a	0	0	0
2301736	REC_WORD	wordpools/wasnorm_wordpool_576.txt	LTP316	ltpFR2	2	11	MARINE	869	n/a	n/a	0	0	0
2302591	REC_WORD	wordpools/wasnorm_wordpool_576.txt	LTP316	ltpFR2	2	11	SPONGE	1355	n/a	n/a	0	0	0
2362026	WORD	wordpools/wasnorm_wordpool_576.txt	LTP316	ltpFR2	2	12	COUNTRY	388	n/a	n/a	0	0	0
2364463	WORD	wordpools/wasnorm_wordpool_576.txt	LTP316	ltpFR2	2	12	BADGE	68	n/a	n/a	0	0	0
2367081	WORD	wordpools/wasnorm_wordpool_576.txt	LTP316	ltpFR2	2	12	PECAN	1036	n/a	n/a	0	0	0
2369583	WORD	wordpools/wasnorm_wordpool_576.txt	LTP316	ltpFR2	2	12	BULLET	194	n/a	n/a	0	0	0
2372283	WORD	wordpools/wasnorm_wordpool_576.txt	LTP316	ltpFR2	2	12	SLUG	1329	n/a	n/a	0	0	0
2374954	WORD	wordpools/wasnorm_wordpool_576.txt	LTP316	ltpFR2	2	12	FUNGUS	614	n/a	n/a	0	0	0
2377388	WORD	wordpools/wasnorm_wordpool_576.txt	LTP316	ltpFR2	2	12	TRUCK	1512	n/a	n/a	0	0	0
2379858	WORD	wordpools/wasnorm_wordpool_576.txt	LTP316	ltpFR2	2	12	PISTON	1076	n/a	n/a	0	0	0
2382393	WORD	wordpools/wasnorm_wordpool_576.txt	LTP316	ltpFR2	2	12	CHAPEL	280	n/a	n/a	0	0	0
2384845	WORD	wordpools/wasnorm_wordpool_576.txt	LTP316	ltpFR2	2	12	HAWK	692	n/a	n/a	0	0	0
2387366	WORD	wordpools/wasnorm_wordpool_576.txt	LTP316	ltpFR2	2	12	CORAL	378	n/a	n/a	0	0	0
2389832	WORD	wordpools/wasnorm_wordpool_576.txt	LTP316	ltpFR2	2	12	SHELF	1280	n/a	n/a	0	0	0
2392333	WORD	wordpools/wasnorm_wordpool_576.txt	LTP316	ltpFR2	2	12	JAPAN	749	n/a	n/a	0	0	0
2395003	WORD	wordpools/wasnorm_wordpool_576.txt	LTP316	ltpFR2	2	12	CELLAR	267	n/a	n/a	0	0	0
2397571	WORD	wordpools/wasnorm_wordpool_576.txt	LTP316	ltpFR2	2	12	FOREST	593	n/a	n/a	0	0	0
2400057	WORD	wordpools/wasnorm_wordpool_576.txt	LTP316	ltpFR2	2	12	POPCORN	1104	n/a	n/a	0	0	0
2402746	WORD	wordpools/wasnorm_wordpool_576.txt	LTP316	ltpFR2	2	12	COD	340	n/a	n/a	0	0	0
2405226	WORD	wordpools/wasnorm_wordpool_576.txt	LTP316	ltpFR2	2	12	HEART	697	n/a	n/a	0	0	0
2407930	WORD	wordpools/wasnorm_wordpool_576.txt	LTP316	ltpFR2	2	12	CUPBOARD	425	n/a	n/a	0	0	0
2410432	WORD	wordpools/wasnorm_wordpool_576.txt	LTP316	ltpFR2	2	12	CATTLE	261	n/a	n/a	0	0	0
2413035	WORD	wordpools/wasnorm_wordpool_576.txt	LTP316	ltpFR2	2	12	LIVER	833	n/a	n/a	0	0	0
2415553	WORD	wordpools/wasnorm_wordpool_576.txt	LTP316	ltpFR2	2	12	OZONE	996	n/a	n/a	0	0	0
2418071	WORD	wordpools/wasnorm_wordpool_576.txt	LTP316	ltpFR2	2	12	LAPEL	800	n/a	n/a	0	0	0
2420774	WORD	wordpools/wasnorm_wordpool_576.txt	LTP316	ltpFR2	2	12	TRENCH	1503	n/a	n/a	0	0	0
2422382	START	n/a	LTP316	ltpFR2	2	n/a	n/a	n/a	18	n/a	n/a	n/a	n/a
2423377	DISTRACTOR	n/a	LTP316	ltpFR2	2	12	n/a	n/a	n/a	n/a	0	0	0
2423392	PROB	n/a	LTP316	ltpFR2	2	n/a	n/a	n/a	18	19	2	8	9
2424959	PROB	n/a	LTP316	ltpFR2	2	n/a	n/a	n/a	18	19	9	6	4
2427095	PROB	n/a	LTP316	ltpFR2	2	n/a	n/a	n/a	18	14	4	6	4
2428628	PROB	n/a	LTP316	ltpFR2	2	n/a	n/a	n/a	18	11	1	2	8
2429996	PROB	n/a	LTP316	ltpFR2	2	n/a	n/a	n/a	18	12	6	3	2
2431615	PROB	n/a	LTP316	ltpFR2	2	n/a	n/a	n/a	18	10	2	7	1
2434917	PROB	n/a	LTP316	ltpFR2	2	n/a	n/a	n/a	18	19	4	8	7
2437721	PROB	n/a	LTP316	ltpFR2	2	n/a	n/a	n/a	18	18	7	9	2
2439821	PROB	n/a	LTP316	ltpFR2	2	n/a	n/a	n/a	18	10	1	3	7
2441074	PROB	n/a	LTP316	ltpFR2	2	n/a	n/a	n/a	18	15	8	2	5
2443524	PROB	n/a	LTP316	ltpFR2	2	n/a	n/a	n/a	18	16	8	6	2
2445258	STOP	n/a	LTP316	ltpFR2	2	n/a	n/a	n/a	18	n/a	n/a	n/a	n/a
2448178	REC_START	n/a	LTP316	ltpFR2	2	12	n/a	n/a	n/a	n/a	0	0	0
2450131	REC_WORD	wordpools/wasnorm_wordpool_576.txt	LTP316	ltpFR2	2	12	COUNTRY	388	n/a	n/a	0	0	0
2451261	REC_WORD	wordpools/wasnorm_wordpool_576.txt	LTP316	ltpFR2	2	12	SLUG	1329	n/a	n/a	0	0	0
2452243	REC_WORD	wordpools/wasnorm_wordpool_576.txt	LTP316	ltpFR2	2	12	HAWK	692	n/a	n/a	0	0	0
2452948	REC_WORD	wordpools/wasnorm_wordpool_576.txt	LTP316	ltpFR2	2	12	FOREST	593	n/a	n/a	0	0	0
2456151	REC_WORD	wordpools/wasnorm_wordpool_576.txt	LTP316	ltpFR2	2	12	CELLAR	267	n/a	n/a	0	0	0
2456893	REC_WORD	wordpools/wasnorm_wordpool_576.txt	LTP316	ltpFR2	2	12	SLUG	1329	n/a	n/a	0	0	0
2458961	REC_WORD	wordpools/wasnorm_wordpool_576.txt	LTP316	ltpFR2	2	12	FUNGUS	614	n/a	n/a	0	0	0
2464949	REC_WORD	wordpools/wasnorm_wordpool_576.txt	LTP316	ltpFR2	2	12	CUPBOARD	425	n/a	n/a	0	0	0
2465750	REC_WORD	wordpools/wasnorm_wordpool_576.txt	LTP316	ltpFR2	2	12	HEART	697	n/a	n/a	0	0	0
2467175	REC_WORD	wordpools/wasnorm_wordpool_576.txt	LTP316	ltpFR2	2	12	OZONE	996	n/a	n/a	0	0	0
2468460	REC_WORD	wordpools/wasnorm_wordpool_576.txt	LTP316	ltpFR2	2	12	CORAL	378	n/a	n/a	0	0	0
2469355	REC_WORD	wordpools/wasnorm_wordpool_576.txt	LTP316	ltpFR2	2	12	SHELF	1280	n/a	n/a	0	0	0
2470510	REC_WORD	wordpools/wasnorm_wordpool_576.txt	LTP316	ltpFR2	2	12	JAPAN	749	n/a	n/a	0	0	0
2474710	REC_WORD	wordpools/wasnorm_wordpool_576.txt	LTP316	ltpFR2	2	12	PECAN	1036	n/a	n/a	0	0	0
2485058	REC_WORD	wordpools/wasnorm_wordpool_576.txt	LTP316	ltpFR2	2	12	PISTON	1076	n/a	n/a	0	0	0
2487258	REC_WORD	wordpools/wasnorm_wordpool_576.txt	LTP316	ltpFR2	2	12	BULLET	194	n/a	n/a	0	0	0
2487968	REC_WORD	wordpools/wasnorm_wordpool_576.txt	LTP316	ltpFR2	2	12	BADGE	68	n/a	n/a	0	0	0
2517483	REC_WORD	wordpools/wasnorm_wordpool_576.txt	LTP316	ltpFR2	2	12	TRUCK	1512	n/a	n/a	0	0	0
2567040	WORD	wordpools/wasnorm_wordpool_576.txt	LTP316	ltpFR2	2	13	POSSUM	1112	n/a	n/a	0	0	0
2569492	WORD	wordpools/wasnorm_wordpool_576.txt	LTP316	ltpFR2	2	13	STAKE	1368	n/a	n/a	0	0	0
2571944	WORD	wordpools/wasnorm_wordpool_576.txt	LTP316	ltpFR2	2	13	MAILMAN	858	n/a	n/a	0	0	0
2574530	WORD	wordpools/wasnorm_wordpool_576.txt	LTP316	ltpFR2	2	13	WINDOW	1611	n/a	n/a	0	0	0
2577214	WORD	wordpools/wasnorm_wordpool_576.txt	LTP316	ltpFR2	2	13	BACON	67	n/a	n/a	0	0	0
2580018	WORD	wordpools/wasnorm_wordpool_576.txt	LTP316	ltpFR2	2	13	LACE	792	n/a	n/a	0	0	0
2582487	WORD	wordpools/wasnorm_wordpool_576.txt	LTP316	ltpFR2	2	13	FOOTBALL	591	n/a	n/a	0	0	0
2585238	WORD	wordpools/wasnorm_wordpool_576.txt	LTP316	ltpFR2	2	13	SOFTBALL	1343	n/a	n/a	0	0	0
2587958	WORD	wordpools/wasnorm_wordpool_576.txt	LTP316	ltpFR2	2	13	SUPPER	1411	n/a	n/a	0	0	0
2590777	WORD	wordpools/wasnorm_wordpool_576.txt	LTP316	ltpFR2	2	13	PILOT	1070	n/a	n/a	0	0	0
2593396	WORD	wordpools/wasnorm_wordpool_576.txt	LTP316	ltpFR2	2	13	GRIZZLY	662	n/a	n/a	0	0	0
2595881	WORD	wordpools/wasnorm_wordpool_576.txt	LTP316	ltpFR2	2	13	TWEEZERS	1526	n/a	n/a	0	0	0
2598315	WORD	wordpools/wasnorm_wordpool_576.txt	LTP316	ltpFR2	2	13	BOUQUET	157	n/a	n/a	0	0	0
2600885	WORD	wordpools/wasnorm_wordpool_576.txt	LTP316	ltpFR2	2	13	SHERIFF	1284	n/a	n/a	0	0	0
2603504	WORD	wordpools/wasnorm_wordpool_576.txt	LTP316	ltpFR2	2	13	PATROL	1027	n/a	n/a	0	0	0
2606139	WORD	wordpools/wasnorm_wordpool_576.txt	LTP316	ltpFR2	2	13	PERMIT	1051	n/a	n/a	0	0	0
2608642	WORD	wordpools/wasnorm_wordpool_576.txt	LTP316	ltpFR2	2	13	MAMMAL	861	n/a	n/a	0	0	0
2611410	WORD	wordpools/wasnorm_wordpool_576.txt	LTP316	ltpFR2	2	13	OUTLAW	989	n/a	n/a	0	0	0
2614062	WORD	wordpools/wasnorm_wordpool_576.txt	LTP316	ltpFR2	2	13	ZIPPER	1636	n/a	n/a	0	0	0
2616682	WORD	wordpools/wasnorm_wordpool_576.txt	LTP316	ltpFR2	2	13	DRESS	495	n/a	n/a	0	0	0
2619265	WORD	wordpools/wasnorm_wordpool_576.txt	LTP316	ltpFR2	2	13	DRILL	497	n/a	n/a	0	0	0
2621785	WORD	wordpools/wasnorm_wordpool_576.txt	LTP316	ltpFR2	2	13	YACHT	1629	n/a	n/a	0	0	0
2624238	WORD	wordpools/wasnorm_wordpool_576.txt	LTP316	ltpFR2	2	13	CIGAR	308	n/a	n/a	0	0	0
2626756	WORD	wordpools/wasnorm_wordpool_576.txt	LTP316	ltpFR2	2	13	DUST	508	n/a	n/a	0	0	0
2628374	START	n/a	LTP316	ltpFR2	2	n/a	n/a	n/a	19	n/a	n/a	n/a	n/a
2629341	DISTRACTOR	n/a	LTP316	ltpFR2	2	13	n/a	n/a	n/a	n/a	0	0	0
2629357	PROB	n/a	LTP316	ltpFR2	2	n/a	n/a	n/a	19	12	4	4	4
2631459	PROB	n/a	LTP316	ltpFR2	2	n/a	n/a	n/a	19	12	8	1	3
2633677	PROB	n/a	LTP316	ltpFR2	2	n/a	n/a	n/a	19	13	4	2	7
2635628	PROB	n/a	LTP316	ltpFR2	2	n/a	n/a	n/a	19	6	2	3	1
2637212	PROB	n/a	LTP316	ltpFR2	2	n/a	n/a	n/a	19	14	4	5	5
2638847	PROB	n/a	LTP316	ltpFR2	2	n/a	n/a	n/a	19	14	3	4	7
2640516	PROB	n/a	LTP316	ltpFR2	2	n/a	n/a	n/a	19	14	4	5	5
2642132	PROB	n/a	LTP316	ltpFR2	2	n/a	n/a	n/a	19	18	3	9	6
2643903	PROB	n/a	LTP316	ltpFR2	2	n/a	n/a	n/a	19	9	3	3	3
2647238	PROB	n/a	LTP316	ltpFR2	2	n/a	n/a	n/a	19	17	5	9	3
2649156	PROB	n/a	LTP316	ltpFR2	2	n/a	n/a	n/a	19	113	2	3	6
2651563	STOP	n/a	LTP316	ltpFR2	2	n/a	n/a	n/a	19	n/a	n/a	n/a	n/a
2654260	REC_START	n/a	LTP316	ltpFR2	2	13	n/a	n/a	n/a	n/a	0	0	0
2655351	REC_WORD	wordpools/wasnorm_wordpool_576.txt	LTP316	ltpFR2	2	13	POSSUM	1112	n/a	n/a	0	0	0
2655946	REC_WORD	wordpools/wasnorm_wordpool_576.txt	LTP316	ltpFR2	2	13	STAKE	1368	n/a	n/a	0	0	0
2658372	REC_WORD	wordpools/wasnorm_wordpool_576.txt	LTP316	ltpFR2	2	13	MAILMAN	858	n/a	n/a	0	0	0
2659252	REC_WORD	wordpools/wasnorm_wordpool_576.txt	LTP316	ltpFR2	2	13	WINDOW	1611	n/a	n/a	0	0	0
2659928	REC_WORD	wordpools/wasnorm_wordpool_576.txt	LTP316	ltpFR2	2	13	LACE	792	n/a	n/a	0	0	0
2660618	REC_WORD	wordpools/wasnorm_wordpool_576.txt	LTP316	ltpFR2	2	13	BACON	67	n/a	n/a	0	0	0
2661083	REC_WORD	wordpools/wasnorm_wordpool_576.txt	LTP316	ltpFR2	2	13	SUPPER	1411	n/a	n/a	0	0	0
2663743	REC_WORD	wordpools/wasnorm_wordpool_576.txt	LTP316	ltpFR2	2	13	GRIZZLY	662	n/a	n/a	0	0	0
2664573	REC_WORD	wordpools/wasnorm_wordpool_576.txt	LTP316	ltpFR2	2	13	PILOT	1070	n/a	n/a	0	0	0
2665243	REC_WORD	wordpools/wasnorm_wordpool_576.txt	LTP316	ltpFR2	2	13	SHERIFF	1284	n/a	n/a	0	0	0
2666613	REC_WORD	wordpools/wasnorm_wordpool_576.txt	LTP316	ltpFR2	2	13	TWEEZERS	1526	n/a	n/a	0	0	0
2667558	REC_WORD	wordpools/wasnorm_wordpool_576.txt	LTP316	ltpFR2	2	13	BOUQUET	157	n/a	n/a	0	0	0
2668818	REC_WORD	wordpools/wasnorm_wordpool_576.txt	LTP316	ltpFR2	2	13	CIGAR	308	n/a	n/a	0	0	0
2669681	REC_WORD	wordpools/wasnorm_wordpool_576.txt	LTP316	ltpFR2	2	13	YACHT	1629	n/a	n/a	0	0	0
2677628	REC_WORD_VV	wordpools/wasnorm_wordpool_576.txt	LTP316	ltpFR2	2	13	<>	-1	n/a	n/a	0	0	0
2678123	REC_WORD	wordpools/wasnorm_wordpool_576.txt	LTP316	ltpFR2	2	13	PATROL	1027	n/a	n/a	0	0	0
2680289	REC_WORD	wordpools/wasnorm_wordpool_576.txt	LTP316	ltpFR2	2	13	PERMIT	1051	n/a	n/a	0	0	0
2681288	REC_WORD	wordpools/wasnorm_wordpool_576.txt	LTP316	ltpFR2	2	13	OUTLAW	989	n/a	n/a	0	0	0
2682398	REC_WORD	wordpools/wasnorm_wordpool_576.txt	LTP316	ltpFR2	2	13	MAMMAL	861	n/a	n/a	0	0	0
2690543	REC_WORD	wordpools/wasnorm_wordpool_576.txt	LTP316	ltpFR2	2	13	ZIPPER	1636	n/a	n/a	0	0	0
2691333	REC_WORD	wordpools/wasnorm_wordpool_576.txt	LTP316	ltpFR2	2	13	DRESS	495	n/a	n/a	0	0	0
2744699	WORD	wordpools/wasnorm_wordpool_576.txt	LTP316	ltpFR2	2	14	HELMET	702	n/a	n/a	0	0	0
2747446	WORD	wordpools/wasnorm_wordpool_576.txt	LTP316	ltpFR2	2	14	LAGOON	795	n/a	n/a	0	0	0
2750148	WORD	wordpools/wasnorm_wordpool_576.txt	LTP316	ltpFR2	2	14	BOX	159	n/a	n/a	0	0	0
2752702	WORD	wordpools/wasnorm_wordpool_576.txt	LTP316	ltpFR2	2	14	DAISY	435	n/a	n/a	0	0	0
2755208	WORD	wordpools/wasnorm_wordpool_576.txt	LTP316	ltpFR2	2	14	MONSTER	912	n/a	n/a	0	0	0
2757839	WORD	wordpools/wasnorm_wordpool_576.txt	LTP316	ltpFR2	2	14	PEDAL	1037	n/a	n/a	0	0	0
2760374	WORD	wordpools/wasnorm_wordpool_576.txt	LTP316	ltpFR2	2	14	AUTHOR	61	n/a	n/a	0	0	0
2762948	WORD	wordpools/wasnorm_wordpool_576.txt	LTP316	ltpFR2	2	14	SPOUSE	1358	n/a	n/a	0	0	0
2765479	WORD	wordpools/wasnorm_wordpool_576.txt	LTP316	ltpFR2	2	14	SHOVEL	1295	n/a	n/a	0	0	0
2768032	WORD	wordpools/wasnorm_wordpool_576.txt	LTP316	ltpFR2	2	14	PLIERS	1089	n/a	n/a	0	0	0
2770650	WORD	wordpools/wasnorm_wordpool_576.txt	LTP316	ltpFR2	2	14	CREATURE	403	n/a	n/a	0	0	0
2773151	WORD	wordpools/wasnorm_wordpool_576.txt	LTP316	ltpFR2	2	14	HOOK	715	n/a	n/a	0	0	0
2775705	WORD	wordpools/wasnorm_wordpool_576.txt	LTP316	ltpFR2	2	14	SCALLOP	1242	n/a	n/a	0	0	0
2778190	WORD	wordpools/wasnorm_wordpool_576.txt	LTP316	ltpFR2	2	14	GUITAR	670	n/a	n/a	0	0	0
2780942	WORD	wordpools/wasnorm_wordpool_576.txt	LTP316	ltpFR2	2	14	SPIDER	1351	n/a	n/a	0	0	0
2783495	WORD	wordpools/wasnorm_wordpool_576.txt	LTP316	ltpFR2	2	14	WRENCH	1625	n/a	n/a	0	0	0
2786280	WORD	wordpools/wasnorm_wordpool_576.txt	LTP316	ltpFR2	2	14	RECORD	1176	n/a	n/a	0	0	0
2788803	WORD	wordpools/wasnorm_wordpool_576.txt	LTP316	ltpFR2	2	14	ARM	38	n/a	n/a	0	0	0
2791572	WORD	wordpools/wasnorm_wordpool_576.txt	LTP316	ltpFR2	2	14	PIZZA	1079	n/a	n/a	0	0	0
2794391	WORD	wordpools/wasnorm_wordpool_576.txt	LTP316	ltpFR2	2	14	OUTDOORS	987	n/a	n/a	0	0	0
2796856	WORD	wordpools/wasnorm_wordpool_576.txt	LTP316	ltpFR2	2	14	COFFEE	341	n/a	n/a	0	0	0
2799308	WORD	wordpools/wasnorm_wordpool_576.txt	LTP316	ltpFR2	2	14	CRAYON	401	n/a	n/a	0	0	0
2801995	WORD	wordpools/wasnorm_wordpool_576.txt	LTP316	ltpFR2	2	14	MATTRESS	879	n/a	n/a	0	0	0
2804713	WORD	wordpools/wasnorm_wordpool_576.txt	LTP316	ltpFR2	2	14	NIGHTGOWN	953	n/a	n/a	0	0	0
2806332	START	n/a	LTP316	ltpFR2	2	n/a	n/a	n/a	20	n/a	n/a	n/a	n/a
2807363	DISTRACTOR	n/a	LTP316	ltpFR2	2	14	n/a	n/a	n/a	n/a	0	0	0
2807383	PROB	n/a	LTP316	ltpFR2	2	n/a	n/a	n/a	20	16	8	5	3
2810053	PROB	n/a	LTP316	ltpFR2	2	n/a	n/a	n/a	20	18	6	4	8
2811351	PROB	n/a	LTP316	ltpFR2	2	n/a	n/a	n/a	20	14	9	4	1
2814055	PROB	n/a	LTP316	ltpFR2	2	n/a	n/a	n/a	20	12	5	5	2
2815356	PROB	n/a	LTP316	ltpFR2	2	n/a	n/a	n/a	20	15	9	2	4
2816842	PROB	n/a	LTP316	ltpFR2	2	n/a	n/a	n/a	20	16	1	8	7
2820076	PROB	n/a	LTP316	ltpFR2	2	n/a	n/a	n/a	20	16	5	3	8
2822762	PROB	n/a	LTP316	ltpFR2	2	n/a	n/a	n/a	20	18	1	9	8
2824064	PROB	n/a	LTP316	ltpFR2	2	n/a	n/a	n/a	20	14	3	9	1
2825616	PROB	n/a	LTP316	ltpFR2	2	n/a	n/a	n/a	20	18	6	6	6
2827165	PROB	n/a	LTP316	ltpFR2	2	n/a	n/a	n/a	20	11	3	3	5
2828922	STOP	n/a	LTP316	ltpFR2	2	n/a	n/a	n/a	20	n/a	n/a	n/a	n/a
2832170	REC_START	n/a	LTP316	ltpFR2	2	14	n/a	n/a	n/a	n/a	0	0	0
2833950	REC_WORD	wordpools/wasnorm_wordpool_576.txt	LTP316	ltpFR2	2	14	SCALLOP	1242	n/a	n/a	0	0	0
2834611	REC_WORD	wordpools/wasnorm_wordpool_576.txt	LTP316	ltpFR2	2	14	CREATURE	403	n/a	n/a	0	0	0
2835041	REC_WORD	wordpools/wasnorm_wordpool_576.txt	LTP316	ltpFR2	2	14	LAGOON	795	n/a	n/a	0	0	0
2835720	REC_WORD	wordpools/wasnorm_wordpool_576.txt	LTP316	ltpFR2	2	14	AUTHOR	61	n/a	n/a	0	0	0
2836160	REC_WORD	wordpools/wasnorm_wordpool_576.txt	LTP316	ltpFR2	2	14	SPOUSE	1358	n/a	n/a	0	0	0
2839207	REC_WORD	wordpools/wasnorm_wordpool_576.txt	LTP316	ltpFR2	2	14	PLIERS	1089	n/a	n/a	0	0	0
2845093	REC_WORD	wordpools/wasnorm_wordpool_576.txt	LTP316	ltpFR2	2	14	RECORD	1176	n/a	n/a	0	0	0
2846498	REC_WORD	wordpools/wasnorm_wordpool_576.txt	LTP316	ltpFR2	2	14	ARM	38	n/a	n/a	0	0	0
2904909	REC_WORD	wordpools/wasnorm_wordpool_576.txt	LTP316	ltpFR2	2	14	MATTRESS	879	n/a	n/a	0	0	0
2905518	REC_WORD	wordpools/wasnorm_wordpool_576.txt	LTP316	ltpFR2	2	14	NIGHTGOWN	953	n/a	n/a	0	0	0
2922608	WORD	wordpools/wasnorm_wordpool_576.txt	LTP316	ltpFR2	2	15	THRONE	1461	n/a	n/a	0	0	0
2925250	WORD	wordpools/wasnorm_wordpool_576.txt	LTP316	ltpFR2	2	15	BLADE	134	n/a	n/a	0	0	0
2927871	WORD	wordpools/wasnorm_wordpool_576.txt	LTP316	ltpFR2	2	15	CHAUFFEUR	283	n/a	n/a	0	0	0
2930348	WORD	wordpools/wasnorm_wordpool_576.txt	LTP316	ltpFR2	2	15	DRIVER	499	n/a	n/a	0	0	0
2932884	WORD	wordpools/wasnorm_wordpool_576.txt	LTP316	ltpFR2	2	15	BUG	187	n/a	n/a	0	0	0
2935678	WORD	wordpools/wasnorm_wordpool_576.txt	LTP316	ltpFR2	2	15	HOOD	714	n/a	n/a	0	0	0
2938255	WORD	wordpools/wasnorm_wordpool_576.txt	LTP316	ltpFR2	2	15	BROOK	177	n/a	n/a	0	0	0
2940842	WORD	wordpools/wasnorm_wordpool_576.txt	LTP316	ltpFR2	2	15	GRAPE	654	n/a	n/a	0	0	0
2943444	WORD	wordpools/wasnorm_wordpool_576.txt	LTP316	ltpFR2	2	15	BRANDY	169	n/a	n/a	0	0	0
2946045	WORD	wordpools/wasnorm_wordpool_576.txt	LTP316	ltpFR2	2	15	RABBIT	1152	n/a	n/a	0	0	0
2948538	WORD	wordpools/wasnorm_wordpool_576.txt	LTP316	ltpFR2	2	15	HATCHET	691	n/a	n/a	0	0	0
2951273	WORD	wordpools/wasnorm_wordpool_576.txt	LTP316	ltpFR2	2	15	PIANO	1057	n/a	n/a	0	0	0
2953826	WORD	wordpools/wasnorm_wordpool_576.txt	LTP316	ltpFR2	2	15	CASKET	255	n/a	n/a	0	0	0
2956277	WORD	wordpools/wasnorm_wordpool_576.txt	LTP316	ltpFR2	2	15	POISON	1096	n/a	n/a	0	0	0
2958772	WORD	wordpools/wasnorm_wordpool_576.txt	LTP316	ltpFR2	2	15	FIREMAN	569	n/a	n/a	0	0	0
2961340	WORD	wordpools/wasnorm_wordpool_576.txt	LTP316	ltpFR2	2	15	STATUE	1374	n/a	n/a	0	0	0
2964019	WORD	wordpools/wasnorm_wordpool_576.txt	LTP316	ltpFR2	2	15	WASP	1593	n/a	n/a	0	0	0
2966662	WORD	wordpools/wasnorm_wordpool_576.txt	LTP316	ltpFR2	2	15	ITEM	746	n/a	n/a	0	0	0
2969296	WORD	wordpools/wasnorm_wordpool_576.txt	LTP316	ltpFR2	2	15	RATTLE	1170	n/a	n/a	0	0	0
2971992	WORD	wordpools/wasnorm_wordpool_576.txt	LTP316	ltpFR2	2	15	BUNNY	198	n/a	n/a	0	0	0
2974568	WORD	wordpools/wasnorm_wordpool_576.txt	LTP316	ltpFR2	2	15	PALACE	1006	n/a	n/a	0	0	0
2977146	WORD	wordpools/wasnorm_wordpool_576.txt	LTP316	ltpFR2	2	15	EGYPT	519	n/a	n/a	0	0	0
2979632	WORD	wordpools/wasnorm_wordpool_576.txt	LTP316	ltpFR2	2	15	DONOR	485	n/a	n/a	0	0	0
2982217	WORD	wordpools/wasnorm_wordpool_576.txt	LTP316	ltpFR2	2	15	BLACKBOARD	133	n/a	n/a	0	0	0
2983826	START	n/a	LTP316	ltpFR2	2	n/a	n/a	n/a	21	n/a	n/a	n/a	n/a
2984893	DISTRACTOR	n/a	LTP316	ltpFR2	2	15	n/a	n/a	n/a	n/a	0	0	0
2984903	PROB	n/a	LTP316	ltpFR2	2	n/a	n/a	n/a	21	14	7	1	6
2986677	PROB	n/a	LTP316	ltpFR2	2	n/a	n/a	n/a	21	13	9	2	2
2988395	PROB	n/a	LTP316	ltpFR2	2	n/a	n/a	n/a	21	15	6	3	6
2990448	PROB	n/a	LTP316	ltpFR2	2	n/a	n/a	n/a	21	14	6	3	5
2992616	PROB	n/a	LTP316	ltpFR2	2	n/a	n/a	n/a	21	15	3	8	4
2994667	PROB	n/a	LTP316	ltpFR2	2	n/a	n/a	n/a	21	18	7	4	7
2996885	PROB	n/a	LTP316	ltpFR2	2	n/a	n/a	n/a	21	20	7	7	6
2998753	PROB	n/a	LTP316	ltpFR2	2	n/a	n/a	n/a	21	8	1	5	2
3000923	PROB	n/a	LTP316	ltpFR2	2	n/a	n/a	n/a	21	14	7	4	3
3002489	PROB	n/a	LTP316	ltpFR2	2	n/a	n/a	n/a	21	15	6	1	7
3004106	PROB	n/a	LTP316	ltpFR2	2	n/a	n/a	n/a	21	12	8	2	2
3007826	STOP	n/a	LTP316	ltpFR2	2	n/a	n/a	n/a	21	n/a	n/a	n/a	n/a
3009647	REC_START	n/a	LTP316	ltpFR2	2	15	n/a	n/a	n/a	n/a	0	0	0
3011712	REC_WORD	wordpools/wasnorm_wordpool_576.txt	LTP316	ltpFR2	2	15	BRANDY	169	n/a	n/a	0	0	0
3012681	REC_WORD	wordpools/wasnorm_wordpool_576.txt	LTP316	ltpFR2	2	15	BROOK	177	n/a	n/a	0	0	0
3013671	REC_WORD	wordpools/wasnorm_wordpool_576.txt	LTP316	ltpFR2	2	15	GRAPE	654	n/a	n/a	0	0	0
3014621	REC_WORD	wordpools/wasnorm_wordpool_576.txt	LTP316	ltpFR2	2	15	BLACKBOARD	133	n/a	n/a	0	0	0
3015686	REC_WORD	wordpools/wasnorm_wordpool_576.txt	LTP316	ltpFR2	2	15	PALACE	1006	n/a	n/a	0	0	0
3017576	REC_WORD	wordpools/wasnorm_wordpool_576.txt	LTP316	ltpFR2	2	15	RABBIT	1152	n/a	n/a	0	0	0
3018591	REC_WORD	wordpools/wasnorm_wordpool_576.txt	LTP316	ltpFR2	2	15	BUNNY	198	n/a	n/a	0	0	0
3019604	REC_WORD	wordpools/wasnorm_wordpool_576.txt	LTP316	ltpFR2	2	15	HATCHET	691	n/a	n/a	0	0	0
3020668	REC_WORD	wordpools/wasnorm_wordpool_576.txt	LTP316	ltpFR2	2	15	BLADE	134	n/a	n/a	0	0	0
3021681	REC_WORD	wordpools/wasnorm_wordpool_576.txt	LTP316	ltpFR2	2	15	THRONE	1461	n/a	n/a	0	0	0
3046242	REC_WORD	wordpools/wasnorm_wordpool_576.txt	LTP316	ltpFR2	2	15	FIREMAN	569	n/a	n/a	0	0	0
3048627	REC_WORD	wordpools/wasnorm_wordpool_576.txt	LTP316	ltpFR2	2	15	CASKET	255	n/a	n/a	0	0	0
3147757	DISTRACTOR	n/a	LTP316	ltpFR2	2	16	n/a	n/a	n/a	n/a	0	0	0
3147758	START	n/a	LTP316	ltpFR2	2	n/a	n/a	n/a	22	n/a	n/a	n/a	n/a
3147774	PROB	n/a	LTP316	ltpFR2	2	n/a	n/a	n/a	22	13	3	8	2
3149490	PROB	n/a	LTP316	ltpFR2	2	n/a	n/a	n/a	22	16	7	7	2
3151710	PROB	n/a	LTP316	ltpFR2	2	n/a	n/a	n/a	22	19	8	9	2
3154011	PROB	n/a	LTP316	ltpFR2	2	n/a	n/a	n/a	22	10	7	2	1
3155795	PROB	n/a	LTP316	ltpFR2	2	n/a	n/a	n/a	22	10	3	4	3
3157582	PROB	n/a	LTP316	ltpFR2	2	n/a	n/a	n/a	22	12	2	1	9
3159297	PROB	n/a	LTP316	ltpFR2	2	n/a	n/a	n/a	22	11	6	2	3
3160950	PROB	n/a	LTP316	ltpFR2	2	n/a	n/a	n/a	22	18	7	9	2
3163118	PROB	n/a	LTP316	ltpFR2	2	n/a	n/a	n/a	22	6	3	2	1
3164636	PROB	n/a	LTP316	ltpFR2	2	n/a	n/a	n/a	22	9	1	7	1
3166319	PROB	n/a	LTP316	ltpFR2	2	n/a	n/a	n/a	22	25	9	8	6
3168739	PROB	n/a	LTP316	ltpFR2	2	n/a	n/a	n/a	22	15	6	6	3
3170704	STOP	n/a	LTP316	ltpFR2	2	n/a	n/a	n/a	22	n/a	n/a	n/a	n/a
3172727	WORD	wordpools/wasnorm_wordpool_576.txt	LTP316	ltpFR2	2	16	TUNNEL	1519	n/a	n/a	0	0	0
3175429	WORD	wordpools/wasnorm_wordpool_576.txt	LTP316	ltpFR2	2	16	DIME	466	n/a	n/a	0	0	0
3178056	WORD	wordpools/wasnorm_wordpool_576.txt	LTP316	ltpFR2	2	16	HERO	706	n/a	n/a	0	0	0
3180790	WORD	wordpools/wasnorm_wordpool_576.txt	LTP316	ltpFR2	2	16	POWDER	1117	n/a	n/a	0	0	0
3183218	WORD	wordpools/wasnorm_wordpool_576.txt	LTP316	ltpFR2	2	16	TABLET	1427	n/a	n/a	0	0	0
3185871	WORD	wordpools/wasnorm_wordpool_576.txt	LTP316	ltpFR2	2	16	PUDDING	1139	n/a	n/a	0	0	0
3188339	WORD	wordpools/wasnorm_wordpool_576.txt	LTP316	ltpFR2	2	16	PEACH	1031	n/a	n/a	0	0	0
3190758	WORD	wordpools/wasnorm_wordpool_576.txt	LTP316	ltpFR2	2	16	DENIM	446	n/a	n/a	0	0	0
3193276	WORD	wordpools/wasnorm_wordpool_576.txt	LTP316	ltpFR2	2	16	BLOCKADE	137	n/a	n/a	0	0	0
3196046	WORD	wordpools/wasnorm_wordpool_576.txt	LTP316	ltpFR2	2	16	BRAKE	166	n/a	n/a	0	0	0
3198673	WORD	wordpools/wasnorm_wordpool_576.txt	LTP316	ltpFR2	2	16	CABBAGE	210	n/a	n/a	0	0	0
3201257	WORD	wordpools/wasnorm_wordpool_576.txt	LTP316	ltpFR2	2	16	PIGEON	1065	n/a	n/a	0	0	0
3203969	WORD	wordpools/wasnorm_wordpool_576.txt	LTP316	ltpFR2	2	16	NECKLACE	940	n/a	n/a	0	0	0
3206680	WORD	wordpools/wasnorm_wordpool_576.txt	LTP316	ltpFR2	2	16	CAFE	216	n/a	n/a	0	0	0
3209439	WORD	wordpools/wasnorm_wordpool_576.txt	LTP316	ltpFR2	2	16	SEAGULL	1261	n/a	n/a	0	0	0
3212059	WORD	wordpools/wasnorm_wordpool_576.txt	LTP316	ltpFR2	2	16	SHRUB	1299	n/a	n/a	0	0	0
3214854	WORD	wordpools/wasnorm_wordpool_576.txt	LTP316	ltpFR2	2	16	LIPSTICK	829	n/a	n/a	0	0	0
3217390	WORD	wordpools/wasnorm_wordpool_576.txt	LTP316	ltpFR2	2	16	WOMAN	1620	n/a	n/a	0	0	0
3219958	WORD	wordpools/wasnorm_wordpool_576.txt	LTP316	ltpFR2	2	16	PAIL	1002	n/a	n/a	0	0	0
3222584	WORD	wordpools/wasnorm_wordpool_576.txt	LTP316	ltpFR2	2	16	ISLAND	745	n/a	n/a	0	0	0
3225013	WORD	wordpools/wasnorm_wordpool_576.txt	LTP316	ltpFR2	2	16	TOMBSTONE	1478	n/a	n/a	0	0	0
3227665	WORD	wordpools/wasnorm_wordpool_576.txt	LTP316	ltpFR2	2	16	JUGGLER	763	n/a	n/a	0	0	0
3230406	WORD	wordpools/wasnorm_wordpool_576.txt	LTP316	ltpFR2	2	16	IGLOO	734	n/a	n/a	0	0	0
3232970	WORD	wordpools/wasnorm_wordpool_576.txt	LTP316	ltpFR2	2	16	PENGUIN	1044	n/a	n/a	0	0	0
3234578	START	n/a	LTP316	ltpFR2	2	n/a	n/a	n/a	23	n/a	n/a	n/a	n/a
3235567	DISTRACTOR	n/a	LTP316	ltpFR2	2	16	n/a	n/a	n/a	n/a	0	0	0
3235571	PROB	n/a	LTP316	ltpFR2	2	n/a	n/a	n/a	23	23	7	8	8
3237629	PROB	n/a	LTP316	ltpFR2	2	n/a	n/a	n/a	23	21	9	7	5
3239631	PROB	n/a	LTP316	ltpFR2	2	n/a	n/a	n/a	23	15	3	9	3
3241633	PROB	n/a	LTP316	ltpFR2	2	n/a	n/a	n/a	23	24	9	9	6
3244133	PROB	n/a	LTP316	ltpFR2	2	n/a	n/a	n/a	23	20	9	6	5
3246101	PROB	n/a	LTP316	ltpFR2	2	n/a	n/a	n/a	23	15	7	4	4
3249169	PROB	n/a	LTP316	ltpFR2	2	n/a	n/a	n/a	23	10	5	4	1
3250557	PROB	n/a	LTP316	ltpFR2	2	n/a	n/a	n/a	23	11	2	2	7
3252106	PROB	n/a	LTP316	ltpFR2	2	n/a	n/a	n/a	23	20	3	8	9
3253742	PROB	n/a	LTP316	ltpFR2	2	n/a	n/a	n/a	23	8	3	4	1
3255371	PROB	n/a	LTP316	ltpFR2	2	n/a	n/a	n/a	23	12	6	4	2
3258577	STOP	n/a	LTP316	ltpFR2	2	n/a	n/a	n/a	23	n/a	n/a	n/a	n/a
3260446	REC_START	n/a	LTP316	ltpFR2	2	16	n/a	n/a	n/a	n/a	0	0	0
3262251	REC_WORD	wordpools/wasnorm_wordpool_576.txt	LTP316	ltpFR2	2	16	HERO	706	n/a	n/a	0	0	0
3263154	REC_WORD	wordpools/wasnorm_wordpool_576.txt	LTP316	ltpFR2	2	16	DIME	466	n/a	n/a	0	0	0
3263879	REC_WORD	wordpools/wasnorm_wordpool_576.txt	LTP316	ltpFR2	2	16	PIGEON	1065	n/a	n/a	0	0	0
3265984	REC_WORD	wordpools/wasnorm_wordpool_576.txt	LTP316	ltpFR2	2	16	PEACH	1031	n/a	n/a	0	0	0
3266599	REC_WORD	wordpools/wasnorm_wordpool_576.txt	LTP316	ltpFR2	2	16	PUDDING	1139	n/a	n/a	0	0	0
3267429	REC_WORD	wordpools/wasnorm_wordpool_576.txt	LTP316	ltpFR2	2	16	DENIM	446	n/a	n/a	0	0	0
3268379	REC_WORD	wordpools/wasnorm_wordpool_576.txt	LTP316	ltpFR2	2	16	NECKLACE	940	n/a	n/a	0	0	0
3270722	REC_WORD	wordpools/wasnorm_wordpool_576.txt	LTP316	ltpFR2	2	16	LIPSTICK	829	n/a	n/a	0	0	0
3271501	REC_WORD	wordpools/wasnorm_wordpool_576.txt	LTP316	ltpFR2	2	16	WOMAN	1620	n/a	n/a	0	0	0
3275345	REC_WORD	wordpools/wasnorm_wordpool_576.txt	LTP316	ltpFR2	2	16	TUNNEL	1519	n/a	n/a	0	0	0
3276970	REC_WORD	wordpools/wasnorm_wordpool_576.txt	LTP316	ltpFR2	2	16	BLOCKADE	137	n/a	n/a	0	0	0
3278108	REC_WORD	wordpools/wasnorm_wordpool_576.txt	LTP316	ltpFR2	2	16	POWDER	1117	n/a	n/a	0	0	0
3279023	REC_WORD	wordpools/wasnorm_wordpool_576.txt	LTP316	ltpFR2	2	16	BRAKE	166	n/a	n/a	0	0	0
3280693	REC_WORD	wordpools/wasnorm_wordpool_576.txt	LTP316	ltpFR2	2	16	TOMBSTONE	1478	n/a	n/a	0	0	0
3281919	REC_WORD	wordpools/wasnorm_wordpool_576.txt	LTP316	ltpFR2	2	16	JUGGLER	763	n/a	n/a	0	0	0
3287559	REC_WORD	wordpools/wasnorm_wordpool_576.txt	LTP316	ltpFR2	2	16	ISLAND	745	n/a	n/a	0	0	0
3288444	REC_WORD	wordpools/wasnorm_wordpool_576.txt	LTP316	ltpFR2	2	16	PAIL	1002	n/a	n/a	0	0	0
3289684	REC_WORD	wordpools/wasnorm_wordpool_576.txt	LTP316	ltpFR2	2	16	IGLOO	734	n/a	n/a	0	0	0
3290474	REC_WORD	wordpools/wasnorm_wordpool_576.txt	LTP316	ltpFR2	2	16	PENGUIN	1044	n/a	n/a	0	0	0
3336992	REST_REWET	n/a	LTP316	ltpFR2	2	16	n/a	n/a	n/a	n/a	0	0	0
3543157	WORD	wordpools/wasnorm_wordpool_576.txt	LTP316	ltpFR2	2	17	TRACTOR	1493	n/a	n/a	0	0	0
3545892	WORD	wordpools/wasnorm_wordpool_576.txt	LTP316	ltpFR2	2	17	FARMER	553	n/a	n/a	0	0	0
3548628	WORD	wordpools/wasnorm_wordpool_576.txt	LTP316	ltpFR2	2	17	RECEIPT	1173	n/a	n/a	0	0	0
3551063	WORD	wordpools/wasnorm_wordpool_576.txt	LTP316	ltpFR2	2	17	KETCHUP	771	n/a	n/a	0	0	0
3553699	WORD	wordpools/wasnorm_wordpool_576.txt	LTP316	ltpFR2	2	17	FIREPLACE	570	n/a	n/a	0	0	0
3556435	WORD	wordpools/wasnorm_wordpool_576.txt	LTP316	ltpFR2	2	17	MARSH	874	n/a	n/a	0	0	0
3558919	WORD	wordpools/wasnorm_wordpool_576.txt	LTP316	ltpFR2	2	17	PADDING	999	n/a	n/a	0	0	0
3561706	WORD	wordpools/wasnorm_wordpool_576.txt	LTP316	ltpFR2	2	17	PIMPLE	1071	n/a	n/a	0	0	0
3564525	WORD	wordpools/wasnorm_wordpool_576.txt	LTP316	ltpFR2	2	17	MAILBOX	857	n/a	n/a	0	0	0
3567077	WORD	wordpools/wasnorm_wordpool_576.txt	LTP316	ltpFR2	2	17	ACTRESS	6	n/a	n/a	0	0	0
3569812	WORD	wordpools/wasnorm_wordpool_576.txt	LTP316	ltpFR2	2	17	STAR	1373	n/a	n/a	0	0	0
3572280	WORD	wordpools/wasnorm_wordpool_576.txt	LTP316	ltpFR2	2	17	MARKET	871	n/a	n/a	0	0	0
3574816	WORD	wordpools/wasnorm_wordpool_576.txt	LTP316	ltpFR2	2	17	PLAZA	1088	n/a	n/a	0	0	0
3577267	WORD	wordpools/wasnorm_wordpool_576.txt	LTP316	ltpFR2	2	17	CHEST	295	n/a	n/a	0	0	0
3580054	WORD	wordpools/wasnorm_wordpool_576.txt	LTP316	ltpFR2	2	17	DRAWING	494	n/a	n/a	0	0	0
3582505	WORD	wordpools/wasnorm_wordpool_576.txt	LTP316	ltpFR2	2	17	COUNTY	389	n/a	n/a	0	0	0
3585256	WORD	wordpools/wasnorm_wordpool_576.txt	LTP316	ltpFR2	2	17	COLLEGE	346	n/a	n/a	0	0	0
3587712	WORD	wordpools/wasnorm_wordpool_576.txt	LTP316	ltpFR2	2	17	STAMP	1370	n/a	n/a	0	0	0
3590161	WORD	wordpools/wasnorm_wordpool_576.txt	LTP316	ltpFR2	2	17	REPORT	1184	n/a	n/a	0	0	0
3592614	WORD	wordpools/wasnorm_wordpool_576.txt	LTP316	ltpFR2	2	17	GRILL	661	n/a	n/a	0	0	0
3595365	WORD	wordpools/wasnorm_wordpool_576.txt	LTP316	ltpFR2	2	17	LAKE	796	n/a	n/a	0	0	0
3598035	WORD	wordpools/wasnorm_wordpool_576.txt	LTP316	ltpFR2	2	17	CHIPMUNK	304	n/a	n/a	0	0	0
3600804	WORD	wordpools/wasnorm_wordpool_576.txt	LTP316	ltpFR2	2	17	TOASTER	1472	n/a	n/a	0	0	0
3603506	WORD	wordpools/wasnorm_wordpool_576.txt	LTP316	ltpFR2	2	17	GARBAGE	622	n/a	n/a	0	0	0
3605124	START	n/a	LTP316	ltpFR2	2	n/a	n/a	n/a	24	n/a	n/a	n/a	n/a
3605970	DISTRACTOR	n/a	LTP316	ltpFR2	2	17	n/a	n/a	n/a	n/a	0	0	0
3605975	PROB	n/a	LTP316	ltpFR2	2	n/a	n/a	n/a	24	21	6	7	8
3607925	PROB	n/a	LTP316	ltpFR2	2	n/a	n/a	n/a	24	19	8	6	5
3611495	PROB	n/a	LTP316	ltpFR2	2	n/a	n/a	n/a	24	8	1	2	5
3612962	PROB	n/a	LTP316	ltpFR2	2	n/a	n/a	n/a	24	20	7	7	6
3614764	PROB	n/a	LTP316	ltpFR2	2	n/a	n/a	n/a	24	10	1	1	8
3616531	PROB	n/a	LTP316	ltpFR2	2	n/a	n/a	n/a	24	15	1	5	9
3618601	PROB	n/a	LTP316	ltpFR2	2	n/a	n/a	n/a	24	20	7	4	9
3620235	PROB	n/a	LTP316	ltpFR2	2	n/a	n/a	n/a	24	10	6	2	2
3622637	PROB	n/a	LTP316	ltpFR2	2	n/a	n/a	n/a	24	12	7	1	4
3625188	PROB	n/a	LTP316	ltpFR2	2	n/a	n/a	n/a	24	22	8	5	9
3627025	PROB	n/a	LTP316	ltpFR2	2	n/a	n/a	n/a	24	16	4	7	5
3628514	STOP	n/a	LTP316	ltpFR2	2	n/a	n/a	n/a	24	n/a	n/a	n/a	n/a
3631029	REC_START	n/a	LTP316	ltpFR2	2	17	n/a	n/a	n/a	n/a	0	0	0
3632399	REC_WORD	wordpools/wasnorm_wordpool_576.txt	LTP316	ltpFR2	2	17	FARMER	553	n/a	n/a	0	0	0
3633264	REC_WORD	wordpools/wasnorm_wordpool_576.txt	LTP316	ltpFR2	2	17	TRACTOR	1493	n/a	n/a	0	0	0
3634209	REC_WORD	wordpools/wasnorm_wordpool_576.txt	LTP316	ltpFR2	2	17	KETCHUP	771	n/a	n/a	0	0	0
3634944	REC_WORD	wordpools/wasnorm_wordpool_576.txt	LTP316	ltpFR2	2	17	RECEIPT	1173	n/a	n/a	0	0	0
3635889	REC_WORD	wordpools/wasnorm_wordpool_576.txt	LTP316	ltpFR2	2	17	FIREPLACE	570	n/a	n/a	0	0	0
3636889	REC_WORD_VV	wordpools/wasnorm_wordpool_576.txt	LTP316	ltpFR2	2	17	<>	-1	n/a	n/a	0	0	0
3637754	REC_WORD	wordpools/wasnorm_wordpool_576.txt	LTP316	ltpFR2	2	17	MARSH	874	n/a	n/a	0	0	0
3639409	REC_WORD	wordpools/wasnorm_wordpool_576.txt	LTP316	ltpFR2	2	17	LAKE	796	n/a	n/a	0	0	0
3641829	REC_WORD	wordpools/wasnorm_wordpool_576.txt	LTP316	ltpFR2	2	17	CHEST	295	n/a	n/a	0	0	0
3642639	REC_WORD	wordpools/wasnorm_wordpool_576.txt	LTP316	ltpFR2	2	17	PADDING	999	n/a	n/a	0	0	0
3643699	REC_WORD	wordpools/wasnorm_wordpool_576.txt	LTP316	ltpFR2	2	17	PIMPLE	1071	n/a	n/a	0	0	0
3646734	REC_WORD	wordpools/wasnorm_wordpool_576.txt	LTP316	ltpFR2	2	17	ACTRESS	6	n/a	n/a	0	0	0
3647629	REC_WORD	wordpools/wasnorm_wordpool_576.txt	LTP316	ltpFR2	2	17	STAR	1373	n/a	n/a	0	0	0
3649513	REC_WORD	wordpools/wasnorm_wordpool_576.txt	LTP316	ltpFR2	2	17	MARKET	871	n/a	n/a	0	0	0
3650423	REC_WORD	wordpools/wasnorm_wordpool_576.txt	LTP316	ltpFR2	2	17	PLAZA	1088	n/a	n/a	0	0	0
3652683	REC_WORD	wordpools/wasnorm_wordpool_576.txt	LTP316	ltpFR2	2	17	COUNTY	389	n/a	n/a	0	0	0
3653323	REC_WORD	wordpools/wasnorm_wordpool_576.txt	LTP316	ltpFR2	2	17	COLLEGE	346	n/a	n/a	0	0	0
3656385	REC_WORD	wordpools/wasnorm_wordpool_576.txt	LTP316	ltpFR2	2	17	REPORT	1184	n/a	n/a	0	0	0
3721463	DISTRACTOR	n/a	LTP316	ltpFR2	2	18	n/a	n/a	n/a	n/a	0	0	0
3721463	START	n/a	LTP316	ltpFR2	2	n/a	n/a	n/a	25	n/a	n/a	n/a	n/a
3721478	PROB	n/a	LTP316	ltpFR2	2	n/a	n/a	n/a	25	22	7	6	9
3724068	PROB	n/a	LTP316	ltpFR2	2	n/a	n/a	n/a	25	15	3	3	9
3726236	PROB	n/a	LTP316	ltpFR2	2	n/a	n/a	n/a	25	17	2	7	8
3729507	PROB	n/a	LTP316	ltpFR2	2	n/a	n/a	n/a	25	12	1	8	3
3732493	PROB	n/a	LTP316	ltpFR2	2	n/a	n/a	n/a	25	14	5	8	1
3734227	PROB	n/a	LTP316	ltpFR2	2	n/a	n/a	n/a	25	13	1	4	8
3736160	PROB	n/a	LTP316	ltpFR2	2	n/a	n/a	n/a	25	18	8	1	9
3737714	PROB	n/a	LTP316	ltpFR2	2	n/a	n/a	n/a	25	12	7	3	2
3738909	PROB	n/a	LTP316	ltpFR2	2	n/a	n/a	n/a	25	13	6	6	1
3740264	PROB	n/a	LTP316	ltpFR2	2	n/a	n/a	n/a	25	15	3	8	4
3741883	PROB	n/a	LTP316	ltpFR2	2	n/a	n/a	n/a	25	13	2	7	4
3745462	STOP	n/a	LTP316	ltpFR2	2	n/a	n/a	n/a	25	n/a	n/a	n/a	n/a
3746684	WORD	wordpools/wasnorm_wordpool_576.txt	LTP316	ltpFR2	2	18	RUST	1219	n/a	n/a	0	0	0
3749352	WORD	wordpools/wasnorm_wordpool_576.txt	LTP316	ltpFR2	2	18	SODA	1341	n/a	n/a	0	0	0
3752059	WORD	wordpools/wasnorm_wordpool_576.txt	LTP316	ltpFR2	2	18	INFANT	737	n/a	n/a	0	0	0
3754608	WORD	wordpools/wasnorm_wordpool_576.txt	LTP316	ltpFR2	2	18	CARRIAGE	248	n/a	n/a	0	0	0
3757359	WORD	wordpools/wasnorm_wordpool_576.txt	LTP316	ltpFR2	2	18	TILE	1468	n/a	n/a	0	0	0
3759828	WORD	wordpools/wasnorm_wordpool_576.txt	LTP316	ltpFR2	2	18	HEADBAND	696	n/a	n/a	0	0	0
3762464	WORD	wordpools/wasnorm_wordpool_576.txt	LTP316	ltpFR2	2	18	HAND	683	n/a	n/a	0	0	0
3765216	WORD	wordpools/wasnorm_wordpool_576.txt	LTP316	ltpFR2	2	18	HUSBAND	728	n/a	n/a	0	0	0
3767819	WORD	wordpools/wasnorm_wordpool_576.txt	LTP316	ltpFR2	2	18	SHELTER	1282	n/a	n/a	0	0	0
3770572	WORD	wordpools/wasnorm_wordpool_576.txt	LTP316	ltpFR2	2	18	SPHINX	1349	n/a	n/a	0	0	0
3773139	WORD	wordpools/wasnorm_wordpool_576.txt	LTP316	ltpFR2	2	18	LAVA	804	n/a	n/a	0	0	0
3775792	WORD	wordpools/wasnorm_wordpool_576.txt	LTP316	ltpFR2	2	18	MARKER	870	n/a	n/a	0	0	0
3778595	WORD	wordpools/wasnorm_wordpool_576.txt	LTP316	ltpFR2	2	18	LION	827	n/a	n/a	0	0	0
3781313	WORD	wordpools/wasnorm_wordpool_576.txt	LTP316	ltpFR2	2	18	LEOPARD	812	n/a	n/a	0	0	0
3783849	WORD	wordpools/wasnorm_wordpool_576.txt	LTP316	ltpFR2	2	18	TURTLE	1522	n/a	n/a	0	0	0
3786652	WORD	wordpools/wasnorm_wordpool_576.txt	LTP316	ltpFR2	2	18	DINER	467	n/a	n/a	0	0	0
3789236	WORD	wordpools/wasnorm_wordpool_576.txt	LTP316	ltpFR2	2	18	UMPIRE	1535	n/a	n/a	0	0	0
3791957	WORD	wordpools/wasnorm_wordpool_576.txt	LTP316	ltpFR2	2	18	CURTAIN	427	n/a	n/a	0	0	0
3794675	WORD	wordpools/wasnorm_wordpool_576.txt	LTP316	ltpFR2	2	18	CHAMPAGNE	278	n/a	n/a	0	0	0
3797144	WORD	wordpools/wasnorm_wordpool_576.txt	LTP316	ltpFR2	2	18	BREAST	171	n/a	n/a	0	0	0
3799612	WORD	wordpools/wasnorm_wordpool_576.txt	LTP316	ltpFR2	2	18	GIRL	637	n/a	n/a	0	0	0
3802347	WORD	wordpools/wasnorm_wordpool_576.txt	LTP316	ltpFR2	2	18	SEAFOOD	1260	n/a	n/a	0	0	0
3804967	WORD	wordpools/wasnorm_wordpool_576.txt	LTP316	ltpFR2	2	18	CEILING	265	n/a	n/a	0	0	0
3807469	WORD	wordpools/wasnorm_wordpool_576.txt	LTP316	ltpFR2	2	18	BARREL	91	n/a	n/a	0	0	0
3809087	START	n/a	LTP316	ltpFR2	2	n/a	n/a	n/a	26	n/a	n/a	n/a	n/a
3810001	DISTRACTOR	n/a	LTP316	ltpFR2	2	18	n/a	n/a	n/a	n/a	0	0	0
3810006	PROB	n/a	LTP316	ltpFR2	2	n/a	n/a	n/a	26	18	9	3	6
3813439	PROB	n/a	LTP316	ltpFR2	2	n/a	n/a	n/a	26	15	5	4	6
3814924	PROB	n/a	LTP316	ltpFR2	2	n/a	n/a	n/a	26	12	1	2	9
3816409	PROB	n/a	LTP316	ltpFR2	2	n/a	n/a	n/a	26	15	9	3	3
3818309	PROB	n/a	LTP316	ltpFR2	2	n/a	n/a	n/a	26	18	7	9	2
3820079	PROB	n/a	LTP316	ltpFR2	2	n/a	n/a	n/a	26	21	9	5	7
3823965	PROB	n/a	LTP316	ltpFR2	2	n/a	n/a	n/a	26	10	3	1	6
3825700	PROB	n/a	LTP316	ltpFR2	2	n/a	n/a	n/a	26	20	8	3	9
3828184	PROB	n/a	LTP316	ltpFR2	2	n/a	n/a	n/a	26	14	9	4	1
3830388	PROB	n/a	LTP316	ltpFR2	2	n/a	n/a	n/a	26	17	7	7	3
3832018	STOP	n/a	LTP316	ltpFR2	2	n/a	n/a	n/a	26	n/a	n/a	n/a	n/a
3834909	REC_START	n/a	LTP316	ltpFR2	2	18	n/a	n/a	n/a	n/a	0	0	0
3838118	REC_WORD	wordpools/wasnorm_wordpool_576.txt	LTP316	ltpFR2	2	18	INFANT	737	n/a	n/a	0	0	0
3839003	REC_WORD	wordpools/wasnorm_wordpool_576.txt	LTP316	ltpFR2	2	18	CARRIAGE	248	n/a	n/a	0	0	0
3839838	REC_WORD	wordpools/wasnorm_wordpool_576.txt	LTP316	ltpFR2	2	18	RUST	1219	n/a	n/a	0	0	0
3840707	REC_WORD	wordpools/wasnorm_wordpool_576.txt	LTP316	ltpFR2	2	18	SODA	1341	n/a	n/a	0	0	0
3841669	REC_WORD	wordpools/wasnorm_wordpool_576.txt	LTP316	ltpFR2	2	18	HAND	683	n/a	n/a	0	0	0
3842503	REC_WORD	wordpools/wasnorm_wordpool_576.txt	LTP316	ltpFR2	2	18	HEADBAND	696	n/a	n/a	0	0	0
3843493	REC_WORD	wordpools/wasnorm_wordpool_576.txt	LTP316	ltpFR2	2	18	TILE	1468	n/a	n/a	0	0	0
3844183	REC_WORD	wordpools/wasnorm_wordpool_576.txt	LTP316	ltpFR2	2	18	HUSBAND	728	n/a	n/a	0	0	0
3845067	REC_WORD	wordpools/wasnorm_wordpool_576.txt	LTP316	ltpFR2	2	18	UMPIRE	1535	n/a	n/a	0	0	0
3846796	REC_WORD	wordpools/wasnorm_wordpool_576.txt	LTP316	ltpFR2	2	18	SHELTER	1282	n/a	n/a	0	0	0
3847837	REC_WORD	wordpools/wasnorm_wordpool_576.txt	LTP316	ltpFR2	2	18	GIRL	637	n/a	n/a	0	0	0
3848606	REC_WORD	wordpools/wasnorm_wordpool_576.txt	LTP316	ltpFR2	2	18	BREAST	171	n/a	n/a	0	0	0
3852079	REC_WORD	wordpools/wasnorm_wordpool_576.txt	LTP316	ltpFR2	2	18	DINER	467	n/a	n/a	0	0	0
3853404	REC_WORD	wordpools/wasnorm_wordpool_576.txt	LTP316	ltpFR2	2	18	CHAMPAGNE	278	n/a	n/a	0	0	0
3856071	REC_WORD	wordpools/wasnorm_wordpool_576.txt	LTP316	ltpFR2	2	18	CURTAIN	427	n/a	n/a	0	0	0
3925331	DISTRACTOR	n/a	LTP316	ltpFR2	2	19	n/a	n/a	n/a	n/a	0	0	0
3925331	START	n/a	LTP316	ltpFR2	2	n/a	n/a	n/a	27	n/a	n/a	n/a	n/a
3925346	PROB	n/a	LTP316	ltpFR2	2	n/a	n/a	n/a	27	12	3	8	1
3927014	PROB	n/a	LTP316	ltpFR2	2	n/a	n/a	n/a	27	20	3	8	9
3928766	PROB	n/a	LTP316	ltpFR2	2	n/a	n/a	n/a	27	14	9	2	3
3931652	PROB	n/a	LTP316	ltpFR2	2	n/a	n/a	n/a	27	17	4	4	9
3933802	PROB	n/a	LTP316	ltpFR2	2	n/a	n/a	n/a	27	17	3	5	9
3936305	PROB	n/a	LTP316	ltpFR2	2	n/a	n/a	n/a	27	11	3	3	5
3937857	PROB	n/a	LTP316	ltpFR2	2	n/a	n/a	n/a	27	10	4	1	5
3940341	PROB	n/a	LTP316	ltpFR2	2	n/a	n/a	n/a	27	9	2	4	3
3942326	PROB	n/a	LTP316	ltpFR2	2	n/a	n/a	n/a	27	18	7	9	2
3944679	PROB	n/a	LTP316	ltpFR2	2	n/a	n/a	n/a	27	16	3	8	5
3946345	PROB	n/a	LTP316	ltpFR2	2	n/a	n/a	n/a	27	12	4	4	4
3947681	PROB	n/a	LTP316	ltpFR2	2	n/a	n/a	n/a	27	5	1	1	2
3948790	STOP	n/a	LTP316	ltpFR2	2	n/a	n/a	n/a	27	n/a	n/a	n/a	n/a
3950245	WORD	wordpools/wasnorm_wordpool_576.txt	LTP316	ltpFR2	2	19	DONKEY	484	n/a	n/a	0	0	0
3952947	WORD	wordpools/wasnorm_wordpool_576.txt	LTP316	ltpFR2	2	19	PADDLE	1000	n/a	n/a	0	0	0
3955516	WORD	wordpools/wasnorm_wordpool_576.txt	LTP316	ltpFR2	2	19	LADY	794	n/a	n/a	0	0	0
3958035	WORD	wordpools/wasnorm_wordpool_576.txt	LTP316	ltpFR2	2	19	NAPKIN	937	n/a	n/a	0	0	0
3960521	WORD	wordpools/wasnorm_wordpool_576.txt	LTP316	ltpFR2	2	19	SILK	1307	n/a	n/a	0	0	0
3963210	WORD	wordpools/wasnorm_wordpool_576.txt	LTP316	ltpFR2	2	19	GLOBE	641	n/a	n/a	0	0	0
3965930	WORD	wordpools/wasnorm_wordpool_576.txt	LTP316	ltpFR2	2	19	HIKER	708	n/a	n/a	0	0	0
3968528	WORD	wordpools/wasnorm_wordpool_576.txt	LTP316	ltpFR2	2	19	BELLY	119	n/a	n/a	0	0	0
3971034	WORD	wordpools/wasnorm_wordpool_576.txt	LTP316	ltpFR2	2	19	EMPIRE	530	n/a	n/a	0	0	0
3973735	WORD	wordpools/wasnorm_wordpool_576.txt	LTP316	ltpFR2	2	19	CYCLONE	431	n/a	n/a	0	0	0
3976501	WORD	wordpools/wasnorm_wordpool_576.txt	LTP316	ltpFR2	2	19	CANYON	235	n/a	n/a	0	0	0
3978940	WORD	wordpools/wasnorm_wordpool_576.txt	LTP316	ltpFR2	2	19	RAZOR	1171	n/a	n/a	0	0	0
3981388	WORD	wordpools/wasnorm_wordpool_576.txt	LTP316	ltpFR2	2	19	POET	1095	n/a	n/a	0	0	0
3983907	WORD	wordpools/wasnorm_wordpool_576.txt	LTP316	ltpFR2	2	19	JOURNAL	760	n/a	n/a	0	0	0
3986663	WORD	wordpools/wasnorm_wordpool_576.txt	LTP316	ltpFR2	2	19	MOTOR	922	n/a	n/a	0	0	0
3989412	WORD	wordpools/wasnorm_wordpool_576.txt	LTP316	ltpFR2	2	19	VALLEY	1545	n/a	n/a	0	0	0
3991901	WORD	wordpools/wasnorm_wordpool_576.txt	LTP316	ltpFR2	2	19	PUPPY	1144	n/a	n/a	0	0	0
3994400	WORD	wordpools/wasnorm_wordpool_576.txt	LTP316	ltpFR2	2	19	NOTEBOOK	959	n/a	n/a	0	0	0
3996935	WORD	wordpools/wasnorm_wordpool_576.txt	LTP316	ltpFR2	2	19	SCOTCH	1251	n/a	n/a	0	0	0
3999521	WORD	wordpools/wasnorm_wordpool_576.txt	LTP316	ltpFR2	2	19	SUMMIT	1405	n/a	n/a	0	0	0
4001956	WORD	wordpools/wasnorm_wordpool_576.txt	LTP316	ltpFR2	2	19	SALMON	1227	n/a	n/a	0	0	0
4004526	WORD	wordpools/wasnorm_wordpool_576.txt	LTP316	ltpFR2	2	19	PERCH	1048	n/a	n/a	0	0	0
4007226	WORD	wordpools/wasnorm_wordpool_576.txt	LTP316	ltpFR2	2	19	HAMPER	682	n/a	n/a	0	0	0
4009746	WORD	wordpools/wasnorm_wordpool_576.txt	LTP316	ltpFR2	2	19	WASHER	1592	n/a	n/a	0	0	0
4011364	START	n/a	LTP316	ltpFR2	2	n/a	n/a	n/a	28	n/a	n/a	n/a	n/a
4012209	DISTRACTOR	n/a	LTP316	ltpFR2	2	19	n/a	n/a	n/a	n/a	0	0	0
4012214	PROB	n/a	LTP316	ltpFR2	2	n/a	n/a	n/a	28	18	6	4	8
4013833	PROB	n/a	LTP316	ltpFR2	2	n/a	n/a	n/a	28	16	7	8	9
4015920	PROB	n/a	LTP316	ltpFR2	2	n/a	n/a	n/a	28	8	2	3	3
4018639	PROB	n/a	LTP316	ltpFR2	2	n/a	n/a	n/a	28	11	8	2	1
4019956	PROB	n/a	LTP316	ltpFR2	2	n/a	n/a	n/a	28	10	7	2	1
4021592	PROB	n/a	LTP316	ltpFR2	2	n/a	n/a	n/a	28	9	3	1	6
4023206	PROB	n/a	LTP316	ltpFR2	2	n/a	n/a	n/a	28	15	5	9	1
4026778	PROB	n/a	LTP316	ltpFR2	2	n/a	n/a	n/a	28	11	8	1	2
4029730	PROB	n/a	LTP316	ltpFR2	2	n/a	n/a	n/a	28	12	3	3	3
4031698	PROB	n/a	LTP316	ltpFR2	2	n/a	n/a	n/a	28	13	1	9	3
4033890	STOP	n/a	LTP316	ltpFR2	2	n/a	n/a	n/a	28	n/a	n/a	n/a	n/a
4037304	REC_START	n/a	LTP316	ltpFR2	2	19	n/a	n/a	n/a	n/a	0	0	0
4039353	REC_WORD	wordpools/wasnorm_wordpool_576.txt	LTP316	ltpFR2	2	19	LADY	794	n/a	n/a	0	0	0
4040148	REC_WORD	wordpools/wasnorm_wordpool_576.txt	LTP316	ltpFR2	2	19	NAPKIN	937	n/a	n/a	0	0	0
4041003	REC_WORD	wordpools/wasnorm_wordpool_576.txt	LTP316	ltpFR2	2	19	SILK	1307	n/a	n/a	0	0	0
4042208	REC_WORD	wordpools/wasnorm_wordpool_576.txt	LTP316	ltpFR2	2	19	GLOBE	641	n/a	n/a	0	0	0
4045218	REC_WORD	wordpools/wasnorm_wordpool_576.txt	LTP316	ltpFR2	2	19	HIKER	708	n/a	n/a	0	0	0
4046543	REC_WORD	wordpools/wasnorm_wordpool_576.txt	LTP316	ltpFR2	2	19	DONKEY	484	n/a	n/a	0	0	0
4047588	REC_WORD	wordpools/wasnorm_wordpool_576.txt	LTP316	ltpFR2	2	19	EMPIRE	530	n/a	n/a	0	0	0
4048643	REC_WORD	wordpools/wasnorm_wordpool_576.txt	LTP316	ltpFR2	2	19	CANYON	235	n/a	n/a	0	0	0
4050263	REC_WORD	wordpools/wasnorm_wordpool_576.txt	LTP316	ltpFR2	2	19	SUMMIT	1405	n/a	n/a	0	0	0
4051023	REC_WORD	wordpools/wasnorm_wordpool_576.txt	LTP316	ltpFR2	2	19	SALMON	1227	n/a	n/a	0	0	0
4051981	REC_WORD	wordpools/wasnorm_wordpool_576.txt	LTP316	ltpFR2	2	19	PERCH	1048	n/a	n/a	0	0	0
4053611	REC_WORD	wordpools/wasnorm_wordpool_576.txt	LTP316	ltpFR2	2	19	MOTOR	922	n/a	n/a	0	0	0
4054286	REC_WORD	wordpools/wasnorm_wordpool_576.txt	LTP316	ltpFR2	2	19	VALLEY	1545	n/a	n/a	0	0	0
4055221	REC_WORD	wordpools/wasnorm_wordpool_576.txt	LTP316	ltpFR2	2	19	PUPPY	1144	n/a	n/a	0	0	0
4059352	REC_WORD	wordpools/wasnorm_wordpool_576.txt	LTP316	ltpFR2	2	19	POET	1095	n/a	n/a	0	0	0
4061102	REC_WORD	wordpools/wasnorm_wordpool_576.txt	LTP316	ltpFR2	2	19	JOURNAL	760	n/a	n/a	0	0	0
4062617	REC_WORD	wordpools/wasnorm_wordpool_576.txt	LTP316	ltpFR2	2	19	NOTEBOOK	959	n/a	n/a	0	0	0
4063617	REC_WORD_VV	wordpools/wasnorm_wordpool_576.txt	LTP316	ltpFR2	2	19	<>	-1	n/a	n/a	0	0	0
4127726	DISTRACTOR	n/a	LTP316	ltpFR2	2	20	n/a	n/a	n/a	n/a	0	0	0
4127726	START	n/a	LTP316	ltpFR2	2	n/a	n/a	n/a	29	n/a	n/a	n/a	n/a
4127742	PROB	n/a	LTP316	ltpFR2	2	n/a	n/a	n/a	29	14	6	4	4
4129544	PROB	n/a	LTP316	ltpFR2	2	n/a	n/a	n/a	29	22	9	9	4
4131310	PROB	n/a	LTP316	ltpFR2	2	n/a	n/a	n/a	29	19	3	8	8
4133396	PROB	n/a	LTP316	ltpFR2	2	n/a	n/a	n/a	29	12	8	3	1
4135113	PROB	n/a	LTP316	ltpFR2	2	n/a	n/a	n/a	29	22	6	8	8
4137233	PROB	n/a	LTP316	ltpFR2	2	n/a	n/a	n/a	29	7	4	1	2
4140118	PROB	n/a	LTP316	ltpFR2	2	n/a	n/a	n/a	29	10	2	3	5
4141619	PROB	n/a	LTP316	ltpFR2	2	n/a	n/a	n/a	29	21	7	9	5
4143504	PROB	n/a	LTP316	ltpFR2	2	n/a	n/a	n/a	29	12	4	7	1
4144988	PROB	n/a	LTP316	ltpFR2	2	n/a	n/a	n/a	29	23	9	6	8
4151726	STOP	n/a	LTP316	ltpFR2	2	n/a	n/a	n/a	29	n/a	n/a	n/a	n/a
4152863	WORD	wordpools/wasnorm_wordpool_576.txt	LTP316	ltpFR2	2	20	PORK	1108	n/a	n/a	0	0	0
4155339	WORD	wordpools/wasnorm_wordpool_576.txt	LTP316	ltpFR2	2	20	CLAMP	316	n/a	n/a	0	0	0
