onset	duration	trial_type	sample	stim_file	subject	experiment	session	trial	task	item_name	item_num	recog_resp	recog_conf	resp	color_r	color_g	color_b	case	font
428.102	n/a	SESS_START	214051	n/a	LTP280	ltpFR	6	n/a	n/a	n/a	n/a	1	2	n/a	n/a	n/a	n/a	n/a	n/a
524.346	n/a	WORD	262173	wordpools/wasnorm_wordpool_less_exclusions.txt	LTP280	ltpFR	6	1	0	WAREHOUSE	1588	1	n/a	1	0.57763671875	0.412841796875	1	lower	amplitud.ttf
528.412	n/a	WORD	264206	wordpools/wasnorm_wordpool_less_exclusions.txt	LTP280	ltpFR	6	1	0	AUTOMOBILE	62	n/a	n/a	1	0.57763671875	0.412841796875	1	lower	amplitud.ttf
532.444	n/a	WORD	266222	wordpools/wasnorm_wordpool_less_exclusions.txt	LTP280	ltpFR	6	1	0	RADIATOR	1156	n/a	n/a	1	0.57763671875	0.412841796875	1	lower	amplitud.ttf
536.542	n/a	WORD	268271	wordpools/wasnorm_wordpool_less_exclusions.txt	LTP280	ltpFR	6	1	1	GRASSHOPPER	656	n/a	n/a	0	0.422607421875	0.5869140625	0	upper	zerothre.ttf
540.608	n/a	WORD	270304	wordpools/wasnorm_wordpool_less_exclusions.txt	LTP280	ltpFR	6	1	1	BALLOT	76	n/a	n/a	0	0.422607421875	0.5869140625	0	upper	zerothre.ttf
544.522	n/a	WORD	272261	wordpools/wasnorm_wordpool_less_exclusions.txt	LTP280	ltpFR	6	1	1	LOBSTER	837	n/a	n/a	1	0.422607421875	0.5869140625	0	upper	zerothre.ttf
548.504	n/a	WORD	274252	wordpools/wasnorm_wordpool_less_exclusions.txt	LTP280	ltpFR	6	1	0	SEA	1259	n/a	n/a	1	0.57763671875	0.412841796875	1	lower	amplitud.ttf
552.518	n/a	WORD	276259	wordpools/wasnorm_wordpool_less_exclusions.txt	LTP280	ltpFR	6	1	0	HAYSTACK	694	n/a	n/a	1	0.57763671875	0.412841796875	1	lower	amplitud.ttf
556.738	n/a	WORD	278369	wordpools/wasnorm_wordpool_less_exclusions.txt	LTP280	ltpFR	6	1	0	SPOON	1357	n/a	n/a	0	0.57763671875	0.412841796875	1	lower	amplitud.ttf
560.952	n/a	WORD	280476	wordpools/wasnorm_wordpool_less_exclusions.txt	LTP280	ltpFR	6	1	0	BEAVER	109	n/a	n/a	1	0.57763671875	0.412841796875	1	lower	amplitud.ttf
564.902	n/a	WORD	282451	wordpools/wasnorm_wordpool_less_exclusions.txt	LTP280	ltpFR	6	1	0	BISON	131	n/a	n/a	1	0.57763671875	0.412841796875	1	lower	amplitud.ttf
569.032	n/a	WORD	284516	wordpools/wasnorm_wordpool_less_exclusions.txt	LTP280	ltpFR	6	1	1	SPIDER	1351	n/a	n/a	1	0.422607421875	0.5869140625	0	upper	zerothre.ttf
573.066	n/a	WORD	286533	wordpools/wasnorm_wordpool_less_exclusions.txt	LTP280	ltpFR	6	1	1	SPACE	1345	n/a	n/a	0	0.422607421875	0.5869140625	0	upper	zerothre.ttf
577.182	n/a	WORD	288591	wordpools/wasnorm_wordpool_less_exclusions.txt	LTP280	ltpFR	6	1	1	SALAD	1224	n/a	n/a	0	0.422607421875	0.5869140625	0	upper	zerothre.ttf
581.214	n/a	WORD	290607	wordpools/wasnorm_wordpool_less_exclusions.txt	LTP280	ltpFR	6	1	1	DISH	474	n/a	n/a	0	0.422607421875	0.5869140625	0	upper	zerothre.ttf
585.346	n/a	WORD	292673	wordpools/wasnorm_wordpool_less_exclusions.txt	LTP280	ltpFR	6	1	1	STUMP	1396	n/a	n/a	0	0.422607421875	0.5869140625	0	upper	zerothre.ttf
591.47	n/a	REC_START	295735	n/a	LTP280	ltpFR	6	1	n/a	n/a	n/a	n/a	n/a	n/a	n/a	n/a	n/a	n/a	n/a
591.812	n/a	REC_WORD	295906	wordpools/wasnorm_wordpool_less_exclusions.txt	LTP280	ltpFR	6	1	1	SPIDER	1351	n/a	n/a	1	n/a	n/a	n/a	n/a	n/a
592.63	n/a	REC_WORD	296315	wordpools/wasnorm_wordpool_less_exclusions.txt	LTP280	ltpFR	6	1	1	SPACE	1345	n/a	n/a	0	n/a	n/a	n/a	n/a	n/a
594.136	n/a	REC_WORD	297068	wordpools/wasnorm_wordpool_less_exclusions.txt	LTP280	ltpFR	6	1	1	SALAD	1224	n/a	n/a	0	n/a	n/a	n/a	n/a	n/a
596.036	n/a	REC_WORD	298018	wordpools/wasnorm_wordpool_less_exclusions.txt	LTP280	ltpFR	6	1	1	DISH	474	n/a	n/a	0	n/a	n/a	n/a	n/a	n/a
603.492	n/a	REC_WORD	301746	wordpools/wasnorm_wordpool_less_exclusions.txt	LTP280	ltpFR	6	1	0	SPOON	1357	n/a	n/a	0	n/a	n/a	n/a	n/a	n/a
610.156	n/a	REC_WORD	305078	wordpools/wasnorm_wordpool_less_exclusions.txt	LTP280	ltpFR	6	1	0	RADIATOR	1156	n/a	n/a	1	n/a	n/a	n/a	n/a	n/a
611.188	n/a	REC_WORD	305594	wordpools/wasnorm_wordpool_less_exclusions.txt	LTP280	ltpFR	6	1	0	AUTOMOBILE	62	n/a	n/a	1	n/a	n/a	n/a	n/a	n/a
611.992	n/a	REC_WORD	305996	wordpools/wasnorm_wordpool_less_exclusions.txt	LTP280	ltpFR	6	1	0	WAREHOUSE	1588	n/a	n/a	1	n/a	n/a	n/a	n/a	n/a
613.74	n/a	REC_WORD	306870	wordpools/wasnorm_wordpool_less_exclusions.txt	LTP280	ltpFR	6	1	0	HAYSTACK	694	n/a	n/a	1	n/a	n/a	n/a	n/a	n/a
615.698	n/a	REC_WORD	307849	wordpools/wasnorm_wordpool_less_exclusions.txt	LTP280	ltpFR	6	1	0	BISON	131	n/a	n/a	1	n/a	n/a	n/a	n/a	n/a
694.33	n/a	WORD	347165	wordpools/wasnorm_wordpool_less_exclusions.txt	LTP280	ltpFR	6	2	1	VINEGAR	1569	n/a	n/a	0	0.422607421875	0.5869140625	0	upper	zerothre.ttf
698.294	n/a	WORD	349147	wordpools/wasnorm_wordpool_less_exclusions.txt	LTP280	ltpFR	6	2	1	COWBOY	395	n/a	n/a	1	0.422607421875	0.5869140625	0	upper	zerothre.ttf
702.294	n/a	WORD	351147	wordpools/wasnorm_wordpool_less_exclusions.txt	LTP280	ltpFR	6	2	0	PRIEST	1122	n/a	n/a	1	0.57763671875	0.412841796875	1	lower	amplitud.ttf
706.208	n/a	WORD	353104	wordpools/wasnorm_wordpool_less_exclusions.txt	LTP280	ltpFR	6	2	0	WHALE	1601	n/a	n/a	1	0.57763671875	0.412841796875	1	lower	amplitud.ttf
710.206	n/a	WORD	355103	wordpools/wasnorm_wordpool_less_exclusions.txt	LTP280	ltpFR	6	2	0	SALT	1229	n/a	n/a	0	0.57763671875	0.412841796875	1	lower	amplitud.ttf
714.038	n/a	WORD	357019	wordpools/wasnorm_wordpool_less_exclusions.txt	LTP280	ltpFR	6	2	0	ROCK	1201	n/a	n/a	0	0.57763671875	0.412841796875	1	lower	amplitud.ttf
717.92	n/a	WORD	358960	wordpools/wasnorm_wordpool_less_exclusions.txt	LTP280	ltpFR	6	2	1	PORT	1110	n/a	n/a	0	0.422607421875	0.5869140625	0	upper	zerothre.ttf
721.968	n/a	WORD	360984	wordpools/wasnorm_wordpool_less_exclusions.txt	LTP280	ltpFR	6	2	1	PADDLE	1000	n/a	n/a	0	0.422607421875	0.5869140625	0	upper	zerothre.ttf
726.134	n/a	WORD	363067	wordpools/wasnorm_wordpool_less_exclusions.txt	LTP280	ltpFR	6	2	1	CELERY	266	n/a	n/a	1	0.422607421875	0.5869140625	0	upper	zerothre.ttf
730.216	n/a	WORD	365108	wordpools/wasnorm_wordpool_less_exclusions.txt	LTP280	ltpFR	6	2	1	ROOT	1210	n/a	n/a	0	0.422607421875	0.5869140625	0	upper	zerothre.ttf
734.366	n/a	WORD	367183	wordpools/wasnorm_wordpool_less_exclusions.txt	LTP280	ltpFR	6	2	0	SAP	1233	n/a	n/a	0	0.57763671875	0.412841796875	1	lower	amplitud.ttf
738.332	n/a	WORD	369166	wordpools/wasnorm_wordpool_less_exclusions.txt	LTP280	ltpFR	6	2	0	PERFUME	1049	n/a	n/a	0	0.57763671875	0.412841796875	1	lower	amplitud.ttf
742.346	n/a	WORD	371173	wordpools/wasnorm_wordpool_less_exclusions.txt	LTP280	ltpFR	6	2	0	FLEA	577	n/a	n/a	1	0.57763671875	0.412841796875	1	lower	amplitud.ttf
746.428	n/a	WORD	373214	wordpools/wasnorm_wordpool_less_exclusions.txt	LTP280	ltpFR	6	2	0	COLLAR	345	n/a	n/a	0	0.57763671875	0.412841796875	1	lower	amplitud.ttf
750.526	n/a	WORD	375263	wordpools/wasnorm_wordpool_less_exclusions.txt	LTP280	ltpFR	6	2	1	DONKEY	484	n/a	n/a	1	0.422607421875	0.5869140625	0	upper	zerothre.ttf
754.426	n/a	WORD	377213	wordpools/wasnorm_wordpool_less_exclusions.txt	LTP280	ltpFR	6	2	1	FISH	571	n/a	n/a	1	0.422607421875	0.5869140625	0	upper	zerothre.ttf
760.132	n/a	REC_START	380066	n/a	LTP280	ltpFR	6	2	n/a	n/a	n/a	n/a	n/a	n/a	n/a	n/a	n/a	n/a	n/a
760.826	n/a	REC_WORD	380413	wordpools/wasnorm_wordpool_less_exclusions.txt	LTP280	ltpFR	6	2	1	VINEGAR	1569	n/a	n/a	0	n/a	n/a	n/a	n/a	n/a
761.392	n/a	REC_WORD	380696	wordpools/wasnorm_wordpool_less_exclusions.txt	LTP280	ltpFR	6	2	1	COWBOY	395	n/a	n/a	1	n/a	n/a	n/a	n/a	n/a
762.086	n/a	REC_WORD	381043	wordpools/wasnorm_wordpool_less_exclusions.txt	LTP280	ltpFR	6	2	0	PRIEST	1122	n/a	n/a	1	n/a	n/a	n/a	n/a	n/a
763.732	n/a	REC_WORD	381866	wordpools/wasnorm_wordpool_less_exclusions.txt	LTP280	ltpFR	6	2	1	DONKEY	484	n/a	n/a	1	n/a	n/a	n/a	n/a	n/a
764.836	n/a	REC_WORD	382418	wordpools/wasnorm_wordpool_less_exclusions.txt	LTP280	ltpFR	6	2	1	FISH	571	n/a	n/a	1	n/a	n/a	n/a	n/a	n/a
767.826	n/a	REC_WORD	383913	wordpools/wasnorm_wordpool_less_exclusions.txt	LTP280	ltpFR	6	2	0	SALT	1229	n/a	n/a	0	n/a	n/a	n/a	n/a	n/a
789.088	n/a	REC_WORD_VV	394544	wordpools/wasnorm_wordpool_less_exclusions.txt	LTP280	ltpFR	6	2	n/a	<>	-1	n/a	n/a	n/a	n/a	n/a	n/a	n/a	n/a
790.448	n/a	REC_WORD	395224	wordpools/wasnorm_wordpool_less_exclusions.txt	LTP280	ltpFR	6	2	1	CELERY	266	n/a	n/a	1	n/a	n/a	n/a	n/a	n/a
807.872	n/a	REC_WORD	403936	wordpools/wasnorm_wordpool_less_exclusions.txt	LTP280	ltpFR	6	2	0	WHALE	1601	n/a	n/a	1	n/a	n/a	n/a	n/a	n/a
854.76	n/a	WORD	427380	wordpools/wasnorm_wordpool_less_exclusions.txt	LTP280	ltpFR	6	3	-1	TUSK	1523	n/a	n/a	-1	1.0	1.0	1	upper	Verdana.ttf
858.756	n/a	WORD	429378	wordpools/wasnorm_wordpool_less_exclusions.txt	LTP280	ltpFR	6	3	-1	SHINGLE	1285	n/a	n/a	-1	1.0	1.0	1	upper	Verdana.ttf
862.84	n/a	WORD	431420	wordpools/wasnorm_wordpool_less_exclusions.txt	LTP280	ltpFR	6	3	-1	LOG	841	n/a	n/a	-1	1.0	1.0	1	upper	Verdana.ttf
866.67	n/a	WORD	433335	wordpools/wasnorm_wordpool_less_exclusions.txt	LTP280	ltpFR	6	3	-1	OX	994	n/a	n/a	-1	1.0	1.0	1	upper	Verdana.ttf
870.652	n/a	WORD	435326	wordpools/wasnorm_wordpool_less_exclusions.txt	LTP280	ltpFR	6	3	-1	SPONGE	1355	n/a	n/a	-1	1.0	1.0	1	upper	Verdana.ttf
874.6	n/a	WORD	437300	wordpools/wasnorm_wordpool_less_exclusions.txt	LTP280	ltpFR	6	3	-1	TAVERN	1437	n/a	n/a	-1	1.0	1.0	1	upper	Verdana.ttf
878.666	n/a	WORD	439333	wordpools/wasnorm_wordpool_less_exclusions.txt	LTP280	ltpFR	6	3	-1	PELICAN	1039	n/a	n/a	-1	1.0	1.0	1	upper	Verdana.ttf
882.632	n/a	WORD	441316	wordpools/wasnorm_wordpool_less_exclusions.txt	LTP280	ltpFR	6	3	-1	BEAN	105	n/a	n/a	-1	1.0	1.0	1	upper	Verdana.ttf
886.596	n/a	WORD	443298	wordpools/wasnorm_wordpool_less_exclusions.txt	LTP280	ltpFR	6	3	-1	SANDWICH	1232	n/a	n/a	-1	1.0	1.0	1	upper	Verdana.ttf
890.48	n/a	WORD	445240	wordpools/wasnorm_wordpool_less_exclusions.txt	LTP280	ltpFR	6	3	-1	SICKLE	1302	n/a	n/a	-1	1.0	1.0	1	upper	Verdana.ttf
894.462	n/a	WORD	447231	wordpools/wasnorm_wordpool_less_exclusions.txt	LTP280	ltpFR	6	3	-1	HANGER	687	n/a	n/a	-1	1.0	1.0	1	upper	Verdana.ttf
898.442	n/a	WORD	449221	wordpools/wasnorm_wordpool_less_exclusions.txt	LTP280	ltpFR	6	3	-1	SHIP	1286	n/a	n/a	-1	1.0	1.0	1	upper	Verdana.ttf
902.358	n/a	WORD	451179	wordpools/wasnorm_wordpool_less_exclusions.txt	LTP280	ltpFR	6	3	-1	BEVERAGE	123	n/a	n/a	-1	1.0	1.0	1	upper	Verdana.ttf
906.506	n/a	WORD	453253	wordpools/wasnorm_wordpool_less_exclusions.txt	LTP280	ltpFR	6	3	-1	AUTHOR	61	n/a	n/a	-1	1.0	1.0	1	upper	Verdana.ttf
910.44	n/a	WORD	455220	wordpools/wasnorm_wordpool_less_exclusions.txt	LTP280	ltpFR	6	3	-1	LITERATURE	831	n/a	n/a	-1	1.0	1.0	1	upper	Verdana.ttf
914.338	n/a	WORD	457169	wordpools/wasnorm_wordpool_less_exclusions.txt	LTP280	ltpFR	6	3	-1	HAWK	692	n/a	n/a	-1	1.0	1.0	1	upper	Verdana.ttf
919.976	n/a	REC_START	459988	n/a	LTP280	ltpFR	6	3	n/a	n/a	n/a	n/a	n/a	n/a	n/a	n/a	n/a	n/a	n/a
920.386	n/a	REC_WORD	460193	wordpools/wasnorm_wordpool_less_exclusions.txt	LTP280	ltpFR	6	3	-1	LITERATURE	831	n/a	n/a	-1	n/a	n/a	n/a	n/a	n/a
921.188	n/a	REC_WORD	460594	wordpools/wasnorm_wordpool_less_exclusions.txt	LTP280	ltpFR	6	3	-1	HAWK	692	n/a	n/a	-1	n/a	n/a	n/a	n/a	n/a
922.684	n/a	REC_WORD	461342	wordpools/wasnorm_wordpool_less_exclusions.txt	LTP280	ltpFR	6	3	-1	TUSK	1523	n/a	n/a	-1	n/a	n/a	n/a	n/a	n/a
923.2	n/a	REC_WORD	461600	wordpools/wasnorm_wordpool_less_exclusions.txt	LTP280	ltpFR	6	3	-1	SHINGLE	1285	n/a	n/a	-1	n/a	n/a	n/a	n/a	n/a
932.034	n/a	REC_WORD	466017	wordpools/wasnorm_wordpool_less_exclusions.txt	LTP280	ltpFR	6	3	-1	OX	994	n/a	n/a	-1	n/a	n/a	n/a	n/a	n/a
932.59	n/a	REC_WORD	466295	wordpools/wasnorm_wordpool_less_exclusions.txt	LTP280	ltpFR	6	3	-1	LOG	841	n/a	n/a	-1	n/a	n/a	n/a	n/a	n/a
959.088	n/a	REC_WORD	479544	wordpools/wasnorm_wordpool_less_exclusions.txt	LTP280	ltpFR	6	3	-1	SICKLE	1302	n/a	n/a	-1	n/a	n/a	n/a	n/a	n/a
1040.42	n/a	WORD	520210	wordpools/wasnorm_wordpool_less_exclusions.txt	LTP280	ltpFR	6	4	1	DIRECTOR	471	n/a	n/a	1	0.422607421875	0.5869140625	0	upper	zerothre.ttf
1044.498	n/a	WORD	522249	wordpools/wasnorm_wordpool_less_exclusions.txt	LTP280	ltpFR	6	4	1	PUDDING	1139	n/a	n/a	0	0.422607421875	0.5869140625	0	upper	zerothre.ttf
1048.532	n/a	WORD	524266	wordpools/wasnorm_wordpool_less_exclusions.txt	LTP280	ltpFR	6	4	1	POTATO	1115	n/a	n/a	1	0.422607421875	0.5869140625	0	upper	zerothre.ttf
1052.48	n/a	WORD	526240	wordpools/wasnorm_wordpool_less_exclusions.txt	LTP280	ltpFR	6	4	1	BANANA	77	n/a	n/a	1	0.422607421875	0.5869140625	0	upper	zerothre.ttf
1056.562	n/a	WORD	528281	wordpools/wasnorm_wordpool_less_exclusions.txt	LTP280	ltpFR	6	4	1	MONKEY	911	n/a	n/a	1	0.422607421875	0.5869140625	0	upper	zerothre.ttf
1060.578	n/a	WORD	530289	wordpools/wasnorm_wordpool_less_exclusions.txt	LTP280	ltpFR	6	4	1	KANGAROO	768	n/a	n/a	1	0.422607421875	0.5869140625	0	upper	zerothre.ttf
1064.56	n/a	WORD	532280	wordpools/wasnorm_wordpool_less_exclusions.txt	LTP280	ltpFR	6	4	1	BEER	114	n/a	n/a	0	0.422607421875	0.5869140625	0	upper	zerothre.ttf
1068.576	n/a	WORD	534288	wordpools/wasnorm_wordpool_less_exclusions.txt	LTP280	ltpFR	6	4	1	BANQUET	86	n/a	n/a	0	0.422607421875	0.5869140625	0	upper	zerothre.ttf
1072.692	n/a	WORD	536346	wordpools/wasnorm_wordpool_less_exclusions.txt	LTP280	ltpFR	6	4	1	TRAY	1498	n/a	n/a	0	0.422607421875	0.5869140625	0	upper	zerothre.ttf
1076.776	n/a	WORD	538388	wordpools/wasnorm_wordpool_less_exclusions.txt	LTP280	ltpFR	6	4	1	LODGE	839	n/a	n/a	0	0.422607421875	0.5869140625	0	upper	zerothre.ttf
1080.84	n/a	WORD	540420	wordpools/wasnorm_wordpool_less_exclusions.txt	LTP280	ltpFR	6	4	1	CRAB	397	n/a	n/a	1	0.422607421875	0.5869140625	0	upper	zerothre.ttf
1084.838	n/a	WORD	542419	wordpools/wasnorm_wordpool_less_exclusions.txt	LTP280	ltpFR	6	4	1	PUB	1135	n/a	n/a	0	0.422607421875	0.5869140625	0	upper	zerothre.ttf
1089.038	n/a	WORD	544519	wordpools/wasnorm_wordpool_less_exclusions.txt	LTP280	ltpFR	6	4	1	COOKBOOK	373	n/a	n/a	0	0.422607421875	0.5869140625	0	upper	zerothre.ttf
1093.036	n/a	WORD	546518	wordpools/wasnorm_wordpool_less_exclusions.txt	LTP280	ltpFR	6	4	1	BEAR	106	n/a	n/a	1	0.422607421875	0.5869140625	0	upper	zerothre.ttf
1097.036	n/a	WORD	548518	wordpools/wasnorm_wordpool_less_exclusions.txt	LTP280	ltpFR	6	4	1	PAW	1029	n/a	n/a	0	0.422607421875	0.5869140625	0	upper	zerothre.ttf
1100.984	n/a	WORD	550492	wordpools/wasnorm_wordpool_less_exclusions.txt	LTP280	ltpFR	6	4	1	LETTUCE	814	n/a	n/a	1	0.422607421875	0.5869140625	0	upper	zerothre.ttf
1106.572	n/a	REC_START	553286	n/a	LTP280	ltpFR	6	4	n/a	n/a	n/a	n/a	n/a	n/a	n/a	n/a	n/a	n/a	n/a
1107.096	n/a	REC_WORD	553548	wordpools/wasnorm_wordpool_less_exclusions.txt	LTP280	ltpFR	6	4	1	PUB	1135	n/a	n/a	0	n/a	n/a	n/a	n/a	n/a
1107.854	n/a	REC_WORD	553927	wordpools/wasnorm_wordpool_less_exclusions.txt	LTP280	ltpFR	6	4	1	LETTUCE	814	n/a	n/a	1	n/a	n/a	n/a	n/a	n/a
1132.844	n/a	REC_WORD	566422	wordpools/wasnorm_wordpool_less_exclusions.txt	LTP280	ltpFR	6	4	1	POTATO	1115	n/a	n/a	1	n/a	n/a	n/a	n/a	n/a
1134.334	n/a	REC_WORD	567167	wordpools/wasnorm_wordpool_less_exclusions.txt	LTP280	ltpFR	6	4	1	KANGAROO	768	n/a	n/a	1	n/a	n/a	n/a	n/a	n/a
1135.088	n/a	REC_WORD	567544	wordpools/wasnorm_wordpool_less_exclusions.txt	LTP280	ltpFR	6	4	1	BANANA	77	n/a	n/a	1	n/a	n/a	n/a	n/a	n/a
1137.6	n/a	REC_WORD	568800	wordpools/wasnorm_wordpool_less_exclusions.txt	LTP280	ltpFR	6	4	1	MONKEY	911	n/a	n/a	1	n/a	n/a	n/a	n/a	n/a
1212.158	n/a	WORD	606079	wordpools/wasnorm_wordpool_less_exclusions.txt	LTP280	ltpFR	6	5	-1	FELLOW	558	n/a	n/a	-1	1.0	1.0	1	upper	Verdana.ttf
1216.342	n/a	WORD	608171	wordpools/wasnorm_wordpool_less_exclusions.txt	LTP280	ltpFR	6	5	-1	MOLECULE	905	n/a	n/a	-1	1.0	1.0	1	upper	Verdana.ttf
1220.472	n/a	WORD	610236	wordpools/wasnorm_wordpool_less_exclusions.txt	LTP280	ltpFR	6	5	-1	CHICK	296	n/a	n/a	-1	1.0	1.0	1	upper	Verdana.ttf
1224.386	n/a	WORD	612193	wordpools/wasnorm_wordpool_less_exclusions.txt	LTP280	ltpFR	6	5	-1	WOMAN	1620	n/a	n/a	-1	1.0	1.0	1	upper	Verdana.ttf
1228.304	n/a	WORD	614152	wordpools/wasnorm_wordpool_less_exclusions.txt	LTP280	ltpFR	6	5	-1	STAGE	1366	n/a	n/a	-1	1.0	1.0	1	upper	Verdana.ttf
1232.386	n/a	WORD	616193	wordpools/wasnorm_wordpool_less_exclusions.txt	LTP280	ltpFR	6	5	-1	HOUSE	725	n/a	n/a	-1	1.0	1.0	1	upper	Verdana.ttf
1236.402	n/a	WORD	618201	wordpools/wasnorm_wordpool_less_exclusions.txt	LTP280	ltpFR	6	5	-1	DOLL	481	n/a	n/a	-1	1.0	1.0	1	upper	Verdana.ttf
1240.266	n/a	WORD	620133	wordpools/wasnorm_wordpool_less_exclusions.txt	LTP280	ltpFR	6	5	-1	BALCONY	72	n/a	n/a	-1	1.0	1.0	1	upper	Verdana.ttf
1244.164	n/a	WORD	622082	wordpools/wasnorm_wordpool_less_exclusions.txt	LTP280	ltpFR	6	5	-1	BOWL	158	n/a	n/a	-1	1.0	1.0	1	upper	Verdana.ttf
1248.164	n/a	WORD	624082	wordpools/wasnorm_wordpool_less_exclusions.txt	LTP280	ltpFR	6	5	-1	WALL	1582	n/a	n/a	-1	1.0	1.0	1	upper	Verdana.ttf
1252.112	n/a	WORD	626056	wordpools/wasnorm_wordpool_less_exclusions.txt	LTP280	ltpFR	6	5	-1	POSTAGE	1113	n/a	n/a	-1	1.0	1.0	1	upper	Verdana.ttf
1256.21	n/a	WORD	628105	wordpools/wasnorm_wordpool_less_exclusions.txt	LTP280	ltpFR	6	5	-1	STAMP	1370	n/a	n/a	-1	1.0	1.0	1	upper	Verdana.ttf
1260.09	n/a	WORD	630045	wordpools/wasnorm_wordpool_less_exclusions.txt	LTP280	ltpFR	6	5	-1	CARD	243	n/a	n/a	-1	1.0	1.0	1	upper	Verdana.ttf
1263.94	n/a	WORD	631970	wordpools/wasnorm_wordpool_less_exclusions.txt	LTP280	ltpFR	6	5	-1	UMPIRE	1535	n/a	n/a	-1	1.0	1.0	1	upper	Verdana.ttf
1268.122	n/a	WORD	634061	wordpools/wasnorm_wordpool_less_exclusions.txt	LTP280	ltpFR	6	5	-1	PROTON	1132	n/a	n/a	-1	1.0	1.0	1	upper	Verdana.ttf
1272.204	n/a	WORD	636102	wordpools/wasnorm_wordpool_less_exclusions.txt	LTP280	ltpFR	6	5	-1	ACTRESS	6	n/a	n/a	-1	1.0	1.0	1	upper	Verdana.ttf
1278.078	n/a	REC_START	639039	n/a	LTP280	ltpFR	6	5	n/a	n/a	n/a	n/a	n/a	n/a	n/a	n/a	n/a	n/a	n/a
1278.702	n/a	REC_WORD	639351	wordpools/wasnorm_wordpool_less_exclusions.txt	LTP280	ltpFR	6	5	-1	PROTON	1132	n/a	n/a	-1	n/a	n/a	n/a	n/a	n/a
1279.646	n/a	REC_WORD	639823	wordpools/wasnorm_wordpool_less_exclusions.txt	LTP280	ltpFR	6	5	-1	ACTRESS	6	n/a	n/a	-1	n/a	n/a	n/a	n/a	n/a
1281.714	n/a	REC_WORD	640857	wordpools/wasnorm_wordpool_less_exclusions.txt	LTP280	ltpFR	6	5	-1	WALL	1582	n/a	n/a	-1	n/a	n/a	n/a	n/a	n/a
1287.772	n/a	REC_WORD	643886	wordpools/wasnorm_wordpool_less_exclusions.txt	LTP280	ltpFR	6	5	-1	MOLECULE	905	n/a	n/a	-1	n/a	n/a	n/a	n/a	n/a
1290.414	n/a	REC_WORD	645207	wordpools/wasnorm_wordpool_less_exclusions.txt	LTP280	ltpFR	6	5	-1	WOMAN	1620	n/a	n/a	-1	n/a	n/a	n/a	n/a	n/a
1291.31	n/a	REC_WORD	645655	wordpools/wasnorm_wordpool_less_exclusions.txt	LTP280	ltpFR	6	5	-1	CHICK	296	n/a	n/a	-1	n/a	n/a	n/a	n/a	n/a
1298.964	n/a	REC_WORD	649482	wordpools/wasnorm_wordpool_less_exclusions.txt	LTP280	ltpFR	6	5	-1	BOWL	158	n/a	n/a	-1	n/a	n/a	n/a	n/a	n/a
1421.81	n/a	WORD	710905	wordpools/wasnorm_wordpool_less_exclusions.txt	LTP280	ltpFR	6	6	0	CANDIDATE	228	n/a	n/a	1	0.57763671875	0.412841796875	1	lower	amplitud.ttf
1425.892	n/a	WORD	712946	wordpools/wasnorm_wordpool_less_exclusions.txt	LTP280	ltpFR	6	6	0	LINT	826	n/a	n/a	0	0.57763671875	0.412841796875	1	lower	amplitud.ttf
1430.092	n/a	WORD	715046	wordpools/wasnorm_wordpool_less_exclusions.txt	LTP280	ltpFR	6	6	0	COTTON	385	n/a	n/a	0	0.57763671875	0.412841796875	1	lower	amplitud.ttf
1433.924	n/a	WORD	716962	wordpools/wasnorm_wordpool_less_exclusions.txt	LTP280	ltpFR	6	6	0	BRANCH	168	n/a	n/a	0	0.57763671875	0.412841796875	1	lower	amplitud.ttf
1438.122	n/a	WORD	719061	wordpools/wasnorm_wordpool_less_exclusions.txt	LTP280	ltpFR	6	6	0	MONARCH	906	n/a	n/a	1	0.57763671875	0.412841796875	1	lower	amplitud.ttf
1442.204	n/a	WORD	721102	wordpools/wasnorm_wordpool_less_exclusions.txt	LTP280	ltpFR	6	6	1	CROWN	415	n/a	n/a	0	0.422607421875	0.5869140625	0	upper	zerothre.ttf
1446.388	n/a	WORD	723194	wordpools/wasnorm_wordpool_less_exclusions.txt	LTP280	ltpFR	6	6	1	PEPPER	1047	n/a	n/a	0	0.422607421875	0.5869140625	0	upper	zerothre.ttf
1450.502	n/a	WORD	725251	wordpools/wasnorm_wordpool_less_exclusions.txt	LTP280	ltpFR	6	6	1	SHARK	1275	n/a	n/a	1	0.422607421875	0.5869140625	0	upper	zerothre.ttf
1454.552	n/a	WORD	727276	wordpools/wasnorm_wordpool_less_exclusions.txt	LTP280	ltpFR	6	6	1	SPRINKLE	1359	n/a	n/a	0	0.422607421875	0.5869140625	0	upper	zerothre.ttf
1458.566	n/a	WORD	729283	wordpools/wasnorm_wordpool_less_exclusions.txt	LTP280	ltpFR	6	6	0	COMMANDER	354	n/a	n/a	1	0.57763671875	0.412841796875	1	lower	amplitud.ttf
1462.682	n/a	WORD	731341	wordpools/wasnorm_wordpool_less_exclusions.txt	LTP280	ltpFR	6	6	0	CHEEK	287	n/a	n/a	0	0.57763671875	0.412841796875	1	lower	amplitud.ttf
1466.782	n/a	WORD	733391	wordpools/wasnorm_wordpool_less_exclusions.txt	LTP280	ltpFR	6	6	0	TONGUE	1479	n/a	n/a	0	0.57763671875	0.412841796875	1	lower	amplitud.ttf
1470.628	n/a	WORD	735314	wordpools/wasnorm_wordpool_less_exclusions.txt	LTP280	ltpFR	6	6	1	VIKING	1565	n/a	n/a	1	0.422607421875	0.5869140625	0	upper	zerothre.ttf
1474.644	n/a	WORD	737322	wordpools/wasnorm_wordpool_less_exclusions.txt	LTP280	ltpFR	6	6	1	RELATIVE	1182	n/a	n/a	1	0.422607421875	0.5869140625	0	upper	zerothre.ttf
1478.626	n/a	WORD	739313	wordpools/wasnorm_wordpool_less_exclusions.txt	LTP280	ltpFR	6	6	1	CANAL	226	n/a	n/a	0	0.422607421875	0.5869140625	0	upper	zerothre.ttf
1482.776	n/a	WORD	741388	wordpools/wasnorm_wordpool_less_exclusions.txt	LTP280	ltpFR	6	6	1	TIMBER	1469	n/a	n/a	1	0.422607421875	0.5869140625	0	upper	zerothre.ttf
1488.398	n/a	REC_START	744199	n/a	LTP280	ltpFR	6	6	n/a	n/a	n/a	n/a	n/a	n/a	n/a	n/a	n/a	n/a	n/a
1489.092	n/a	REC_WORD	744546	wordpools/wasnorm_wordpool_less_exclusions.txt	LTP280	ltpFR	6	6	1	VIKING	1565	n/a	n/a	1	n/a	n/a	n/a	n/a	n/a
1489.65	n/a	REC_WORD	744825	wordpools/wasnorm_wordpool_less_exclusions.txt	LTP280	ltpFR	6	6	1	RELATIVE	1182	n/a	n/a	1	n/a	n/a	n/a	n/a	n/a
1490.34	n/a	REC_WORD	745170	wordpools/wasnorm_wordpool_less_exclusions.txt	LTP280	ltpFR	6	6	1	CANAL	226	n/a	n/a	0	n/a	n/a	n/a	n/a	n/a
1491.056	n/a	REC_WORD	745528	wordpools/wasnorm_wordpool_less_exclusions.txt	LTP280	ltpFR	6	6	1	TIMBER	1469	n/a	n/a	1	n/a	n/a	n/a	n/a	n/a
1495.836	n/a	REC_WORD	747918	wordpools/wasnorm_wordpool_less_exclusions.txt	LTP280	ltpFR	6	6	0	CANDIDATE	228	n/a	n/a	1	n/a	n/a	n/a	n/a	n/a
1503.286	n/a	REC_WORD	751643	wordpools/wasnorm_wordpool_less_exclusions.txt	LTP280	ltpFR	6	6	0	MONARCH	906	n/a	n/a	1	n/a	n/a	n/a	n/a	n/a
1507.28	n/a	REC_WORD	753640	wordpools/wasnorm_wordpool_less_exclusions.txt	LTP280	ltpFR	6	6	0	BRANCH	168	n/a	n/a	0	n/a	n/a	n/a	n/a	n/a
1508.26	n/a	REC_WORD	754130	wordpools/wasnorm_wordpool_less_exclusions.txt	LTP280	ltpFR	6	6	0	LINT	826	n/a	n/a	0	n/a	n/a	n/a	n/a	n/a
1508.67	n/a	REC_WORD	754335	wordpools/wasnorm_wordpool_less_exclusions.txt	LTP280	ltpFR	6	6	0	COTTON	385	n/a	n/a	0	n/a	n/a	n/a	n/a	n/a
1524.834	n/a	REC_WORD	762417	wordpools/wasnorm_wordpool_less_exclusions.txt	LTP280	ltpFR	6	6	1	PEPPER	1047	n/a	n/a	0	n/a	n/a	n/a	n/a	n/a
1560.788	n/a	REC_WORD	780394	wordpools/wasnorm_wordpool_less_exclusions.txt	LTP280	ltpFR	6	6	1	TIMBER	1469	n/a	n/a	1	n/a	n/a	n/a	n/a	n/a
1574.71	n/a	WORD	787355	wordpools/wasnorm_wordpool_less_exclusions.txt	LTP280	ltpFR	6	7	1	RASPBERRY	1168	n/a	n/a	1	0.422607421875	0.5869140625	0	upper	zerothre.ttf
1578.608	n/a	WORD	789304	wordpools/wasnorm_wordpool_less_exclusions.txt	LTP280	ltpFR	6	7	1	SHOELACE	1289	n/a	n/a	0	0.422607421875	0.5869140625	0	upper	zerothre.ttf
1582.742	n/a	WORD	791371	wordpools/wasnorm_wordpool_less_exclusions.txt	LTP280	ltpFR	6	7	1	GREASE	660	n/a	n/a	0	0.422607421875	0.5869140625	0	upper	zerothre.ttf
1586.956	n/a	WORD	793478	wordpools/wasnorm_wordpool_less_exclusions.txt	LTP280	ltpFR	6	7	1	TECHNICIAN	1443	n/a	n/a	1	0.422607421875	0.5869140625	0	upper	zerothre.ttf
1590.822	n/a	WORD	795411	wordpools/wasnorm_wordpool_less_exclusions.txt	LTP280	ltpFR	6	7	1	TOOTHPASTE	1483	n/a	n/a	0	0.422607421875	0.5869140625	0	upper	zerothre.ttf
1594.904	n/a	WORD	797452	wordpools/wasnorm_wordpool_less_exclusions.txt	LTP280	ltpFR	6	7	1	MATCH	878	n/a	n/a	0	0.422607421875	0.5869140625	0	upper	zerothre.ttf
1598.954	n/a	WORD	799477	wordpools/wasnorm_wordpool_less_exclusions.txt	LTP280	ltpFR	6	7	1	CONDUCTOR	362	n/a	n/a	1	0.422607421875	0.5869140625	0	upper	zerothre.ttf
1602.986	n/a	WORD	801493	wordpools/wasnorm_wordpool_less_exclusions.txt	LTP280	ltpFR	6	7	1	KEYBOARD	774	n/a	n/a	0	0.422607421875	0.5869140625	0	upper	zerothre.ttf
1606.85	n/a	WORD	803425	wordpools/wasnorm_wordpool_less_exclusions.txt	LTP280	ltpFR	6	7	1	FREEWAY	603	n/a	n/a	0	0.422607421875	0.5869140625	0	upper	zerothre.ttf
1610.748	n/a	WORD	805374	wordpools/wasnorm_wordpool_less_exclusions.txt	LTP280	ltpFR	6	7	1	TORCH	1484	n/a	n/a	0	0.422607421875	0.5869140625	0	upper	zerothre.ttf
1614.748	n/a	WORD	807374	wordpools/wasnorm_wordpool_less_exclusions.txt	LTP280	ltpFR	6	7	1	CARTON	251	n/a	n/a	0	0.422607421875	0.5869140625	0	upper	zerothre.ttf
1618.912	n/a	WORD	809456	wordpools/wasnorm_wordpool_less_exclusions.txt	LTP280	ltpFR	6	7	1	SENATE	1267	n/a	n/a	1	0.422607421875	0.5869140625	0	upper	zerothre.ttf
1623.08	n/a	WORD	811540	wordpools/wasnorm_wordpool_less_exclusions.txt	LTP280	ltpFR	6	7	1	GOVERNOR	651	n/a	n/a	1	0.422607421875	0.5869140625	0	upper	zerothre.ttf
1626.944	n/a	WORD	813472	wordpools/wasnorm_wordpool_less_exclusions.txt	LTP280	ltpFR	6	7	1	PAINTER	1004	n/a	n/a	1	0.422607421875	0.5869140625	0	upper	zerothre.ttf
1630.826	n/a	WORD	815413	wordpools/wasnorm_wordpool_less_exclusions.txt	LTP280	ltpFR	6	7	1	SEED	1266	n/a	n/a	1	0.422607421875	0.5869140625	0	upper	zerothre.ttf
1634.974	n/a	WORD	817487	wordpools/wasnorm_wordpool_less_exclusions.txt	LTP280	ltpFR	6	7	1	GARDEN	623	n/a	n/a	1	0.422607421875	0.5869140625	0	upper	zerothre.ttf
1640.662	n/a	REC_START	820331	n/a	LTP280	ltpFR	6	7	n/a	n/a	n/a	n/a	n/a	n/a	n/a	n/a	n/a	n/a	n/a
1641.178	n/a	REC_WORD	820589	wordpools/wasnorm_wordpool_less_exclusions.txt	LTP280	ltpFR	6	7	1	GOVERNOR	651	n/a	n/a	1	n/a	n/a	n/a	n/a	n/a
1641.75	n/a	REC_WORD	820875	wordpools/wasnorm_wordpool_less_exclusions.txt	LTP280	ltpFR	6	7	1	PAINTER	1004	n/a	n/a	1	n/a	n/a	n/a	n/a	n/a
1642.522	n/a	REC_WORD	821261	wordpools/wasnorm_wordpool_less_exclusions.txt	LTP280	ltpFR	6	7	1	TECHNICIAN	1443	n/a	n/a	1	n/a	n/a	n/a	n/a	n/a
1644.062	n/a	REC_WORD	822031	wordpools/wasnorm_wordpool_less_exclusions.txt	LTP280	ltpFR	6	7	1	GARDEN	623	n/a	n/a	1	n/a	n/a	n/a	n/a	n/a
1647.896	n/a	REC_WORD	823948	wordpools/wasnorm_wordpool_less_exclusions.txt	LTP280	ltpFR	6	7	1	RASPBERRY	1168	n/a	n/a	1	n/a	n/a	n/a	n/a	n/a
1661.22	n/a	REC_WORD	830610	wordpools/wasnorm_wordpool_less_exclusions.txt	LTP280	ltpFR	6	7	1	SENATE	1267	n/a	n/a	1	n/a	n/a	n/a	n/a	n/a
1732.296	n/a	WORD	866148	wordpools/wasnorm_wordpool_less_exclusions.txt	LTP280	ltpFR	6	8	1	CURTAIN	427	n/a	n/a	0	0.422607421875	0.5869140625	0	upper	zerothre.ttf
1736.296	n/a	WORD	868148	wordpools/wasnorm_wordpool_less_exclusions.txt	LTP280	ltpFR	6	8	1	KIWI	781	n/a	n/a	1	0.422607421875	0.5869140625	0	upper	zerothre.ttf
1740.16	n/a	WORD	870080	wordpools/wasnorm_wordpool_less_exclusions.txt	LTP280	ltpFR	6	8	1	BLUEBERRY	140	n/a	n/a	1	0.422607421875	0.5869140625	0	upper	zerothre.ttf
1744.276	n/a	WORD	872138	wordpools/wasnorm_wordpool_less_exclusions.txt	LTP280	ltpFR	6	8	0	MINER	896	n/a	n/a	1	0.57763671875	0.412841796875	1	lower	amplitud.ttf
1748.474	n/a	WORD	874237	wordpools/wasnorm_wordpool_less_exclusions.txt	LTP280	ltpFR	6	8	0	TICK	1463	n/a	n/a	0	0.57763671875	0.412841796875	1	lower	amplitud.ttf
1752.656	n/a	WORD	876328	wordpools/wasnorm_wordpool_less_exclusions.txt	LTP280	ltpFR	6	8	0	ANTEATER	26	n/a	n/a	1	0.57763671875	0.412841796875	1	lower	amplitud.ttf
1756.672	n/a	WORD	878336	wordpools/wasnorm_wordpool_less_exclusions.txt	LTP280	ltpFR	6	8	0	HEART	697	n/a	n/a	1	0.57763671875	0.412841796875	1	lower	amplitud.ttf
1760.856	n/a	WORD	880428	wordpools/wasnorm_wordpool_less_exclusions.txt	LTP280	ltpFR	6	8	0	KIDNEY	776	n/a	n/a	0	0.57763671875	0.412841796875	1	lower	amplitud.ttf
1764.788	n/a	WORD	882394	wordpools/wasnorm_wordpool_less_exclusions.txt	LTP280	ltpFR	6	8	1	ABDOMEN	1	n/a	n/a	1	0.422607421875	0.5869140625	0	upper	zerothre.ttf
1768.702	n/a	WORD	884351	wordpools/wasnorm_wordpool_less_exclusions.txt	LTP280	ltpFR	6	8	1	APE	31	n/a	n/a	1	0.422607421875	0.5869140625	0	upper	zerothre.ttf
1772.6	n/a	WORD	886300	wordpools/wasnorm_wordpool_less_exclusions.txt	LTP280	ltpFR	6	8	1	COLONEL	348	n/a	n/a	1	0.422607421875	0.5869140625	0	upper	zerothre.ttf
1776.598	n/a	WORD	888299	wordpools/wasnorm_wordpool_less_exclusions.txt	LTP280	ltpFR	6	8	1	CHERRY	293	n/a	n/a	1	0.422607421875	0.5869140625	0	upper	zerothre.ttf
1780.53	n/a	WORD	890265	wordpools/wasnorm_wordpool_less_exclusions.txt	LTP280	ltpFR	6	8	1	JAM	748	n/a	n/a	0	0.422607421875	0.5869140625	0	upper	zerothre.ttf
1784.696	n/a	WORD	892348	wordpools/wasnorm_wordpool_less_exclusions.txt	LTP280	ltpFR	6	8	0	CASHIER	254	n/a	n/a	1	0.57763671875	0.412841796875	1	lower	amplitud.ttf
1788.746	n/a	WORD	894373	wordpools/wasnorm_wordpool_less_exclusions.txt	LTP280	ltpFR	6	8	0	WALLET	1583	n/a	n/a	0	0.57763671875	0.412841796875	1	lower	amplitud.ttf
1792.96	n/a	WORD	896480	wordpools/wasnorm_wordpool_less_exclusions.txt	LTP280	ltpFR	6	8	0	BEAD	103	n/a	n/a	0	0.57763671875	0.412841796875	1	lower	amplitud.ttf
1798.616	n/a	REC_START	899308	n/a	LTP280	ltpFR	6	8	n/a	n/a	n/a	n/a	n/a	n/a	n/a	n/a	n/a	n/a	n/a
1799.276	n/a	REC_WORD	899638	wordpools/wasnorm_wordpool_less_exclusions.txt	LTP280	ltpFR	6	8	0	BEAD	103	n/a	n/a	0	n/a	n/a	n/a	n/a	n/a
1799.852	n/a	REC_WORD	899926	wordpools/wasnorm_wordpool_less_exclusions.txt	LTP280	ltpFR	6	8	0	WALLET	1583	n/a	n/a	0	n/a	n/a	n/a	n/a	n/a
1801.378	n/a	REC_WORD	900689	wordpools/wasnorm_wordpool_less_exclusions.txt	LTP280	ltpFR	6	8	0	KIDNEY	776	n/a	n/a	0	n/a	n/a	n/a	n/a	n/a
1802.292	n/a	REC_WORD	901146	wordpools/wasnorm_wordpool_less_exclusions.txt	LTP280	ltpFR	6	8	0	HEART	697	n/a	n/a	1	n/a	n/a	n/a	n/a	n/a
1803.476	n/a	REC_WORD	901738	wordpools/wasnorm_wordpool_less_exclusions.txt	LTP280	ltpFR	6	8	0	ANTEATER	26	n/a	n/a	1	n/a	n/a	n/a	n/a	n/a
1808.074	n/a	REC_WORD	904037	wordpools/wasnorm_wordpool_less_exclusions.txt	LTP280	ltpFR	6	8	1	BLUEBERRY	140	n/a	n/a	1	n/a	n/a	n/a	n/a	n/a
1808.804	n/a	REC_WORD	904402	wordpools/wasnorm_wordpool_less_exclusions.txt	LTP280	ltpFR	6	8	1	CHERRY	293	n/a	n/a	1	n/a	n/a	n/a	n/a	n/a
1814.826	n/a	REC_WORD	907413	wordpools/wasnorm_wordpool_less_exclusions.txt	LTP280	ltpFR	6	8	1	JAM	748	n/a	n/a	0	n/a	n/a	n/a	n/a	n/a
1831.122	n/a	REC_WORD	915561	wordpools/wasnorm_wordpool_less_exclusions.txt	LTP280	ltpFR	6	8	0	TICK	1463	n/a	n/a	0	n/a	n/a	n/a	n/a	n/a
1874.272	n/a	REST_REWET	937136	n/a	LTP280	ltpFR	6	8	n/a	n/a	n/a	n/a	n/a	n/a	n/a	n/a	n/a	n/a	n/a
2169.752	n/a	WORD	1084876	wordpools/wasnorm_wordpool_less_exclusions.txt	LTP280	ltpFR	6	9	0	DAUGHTER	442	n/a	n/a	1	0.57763671875	0.412841796875	1	lower	amplitud.ttf
2173.682	n/a	WORD	1086841	wordpools/wasnorm_wordpool_less_exclusions.txt	LTP280	ltpFR	6	9	0	ROOMMATE	1207	n/a	n/a	1	0.57763671875	0.412841796875	1	lower	amplitud.ttf
2177.816	n/a	WORD	1088908	wordpools/wasnorm_wordpool_less_exclusions.txt	LTP280	ltpFR	6	9	0	BOXER	160	n/a	n/a	1	0.57763671875	0.412841796875	1	lower	amplitud.ttf
2181.662	n/a	WORD	1090831	wordpools/wasnorm_wordpool_less_exclusions.txt	LTP280	ltpFR	6	9	0	NEPTUNE	943	n/a	n/a	1	0.57763671875	0.412841796875	1	lower	amplitud.ttf
2185.662	n/a	WORD	1092831	wordpools/wasnorm_wordpool_less_exclusions.txt	LTP280	ltpFR	6	9	0	DOOR	486	n/a	n/a	1	0.57763671875	0.412841796875	1	lower	amplitud.ttf
2189.846	n/a	WORD	1094923	wordpools/wasnorm_wordpool_less_exclusions.txt	LTP280	ltpFR	6	9	0	BROTHER	179	n/a	n/a	1	0.57763671875	0.412841796875	1	lower	amplitud.ttf
2193.878	n/a	WORD	1096939	wordpools/wasnorm_wordpool_less_exclusions.txt	LTP280	ltpFR	6	9	0	COYOTE	396	n/a	n/a	1	0.57763671875	0.412841796875	1	lower	amplitud.ttf
2197.824	n/a	WORD	1098912	wordpools/wasnorm_wordpool_less_exclusions.txt	LTP280	ltpFR	6	9	0	PICNIC	1060	n/a	n/a	1	0.57763671875	0.412841796875	1	lower	amplitud.ttf
2202.008	n/a	WORD	1101004	wordpools/wasnorm_wordpool_less_exclusions.txt	LTP280	ltpFR	6	9	0	MUSHROOM	934	n/a	n/a	0	0.57763671875	0.412841796875	1	lower	amplitud.ttf
2206.108	n/a	WORD	1103054	wordpools/wasnorm_wordpool_less_exclusions.txt	LTP280	ltpFR	6	9	0	CHECK	284	n/a	n/a	0	0.57763671875	0.412841796875	1	lower	amplitud.ttf
2210.006	n/a	WORD	1105003	wordpools/wasnorm_wordpool_less_exclusions.txt	LTP280	ltpFR	6	9	0	LOAF	835	n/a	n/a	1	0.57763671875	0.412841796875	1	lower	amplitud.ttf
2213.904	n/a	WORD	1106952	wordpools/wasnorm_wordpool_less_exclusions.txt	LTP280	ltpFR	6	9	0	DOUGH	489	n/a	n/a	1	0.57763671875	0.412841796875	1	lower	amplitud.ttf
2217.818	n/a	WORD	1108909	wordpools/wasnorm_wordpool_less_exclusions.txt	LTP280	ltpFR	6	9	0	EWE	542	n/a	n/a	1	0.57763671875	0.412841796875	1	lower	amplitud.ttf
2221.682	n/a	WORD	1110841	wordpools/wasnorm_wordpool_less_exclusions.txt	LTP280	ltpFR	6	9	0	BONE	148	n/a	n/a	0	0.57763671875	0.412841796875	1	lower	amplitud.ttf
2225.85	n/a	WORD	1112925	wordpools/wasnorm_wordpool_less_exclusions.txt	LTP280	ltpFR	6	9	0	BACKBONE	66	n/a	n/a	1	0.57763671875	0.412841796875	1	lower	amplitud.ttf
2230.05	n/a	WORD	1115025	wordpools/wasnorm_wordpool_less_exclusions.txt	LTP280	ltpFR	6	9	0	LAMB	797	n/a	n/a	1	0.57763671875	0.412841796875	1	lower	amplitud.ttf
2235.938	n/a	REC_START	1117969	n/a	LTP280	ltpFR	6	9	n/a	n/a	n/a	n/a	n/a	n/a	n/a	n/a	n/a	n/a	n/a
2236.456	n/a	REC_WORD	1118228	wordpools/wasnorm_wordpool_less_exclusions.txt	LTP280	ltpFR	6	9	0	BONE	148	n/a	n/a	0	n/a	n/a	n/a	n/a	n/a
2237.154	n/a	REC_WORD	1118577	wordpools/wasnorm_wordpool_less_exclusions.txt	LTP280	ltpFR	6	9	0	BACKBONE	66	n/a	n/a	1	n/a	n/a	n/a	n/a	n/a
2238.104	n/a	REC_WORD	1119052	wordpools/wasnorm_wordpool_less_exclusions.txt	LTP280	ltpFR	6	9	0	LAMB	797	n/a	n/a	1	n/a	n/a	n/a	n/a	n/a
2239.832	n/a	REC_WORD	1119916	wordpools/wasnorm_wordpool_less_exclusions.txt	LTP280	ltpFR	6	9	0	DAUGHTER	442	n/a	n/a	1	n/a	n/a	n/a	n/a	n/a
2240.698	n/a	REC_WORD	1120349	wordpools/wasnorm_wordpool_less_exclusions.txt	LTP280	ltpFR	6	9	0	BROTHER	179	n/a	n/a	1	n/a	n/a	n/a	n/a	n/a
2249.208	n/a	REC_WORD	1124604	wordpools/wasnorm_wordpool_less_exclusions.txt	LTP280	ltpFR	6	9	0	DOUGH	489	n/a	n/a	1	n/a	n/a	n/a	n/a	n/a
2250.128	n/a	REC_WORD	1125064	wordpools/wasnorm_wordpool_less_exclusions.txt	LTP280	ltpFR	6	9	0	LOAF	835	n/a	n/a	1	n/a	n/a	n/a	n/a	n/a
2335.402	n/a	WORD	1167701	wordpools/wasnorm_wordpool_less_exclusions.txt	LTP280	ltpFR	6	10	0	FOX	598	n/a	n/a	1	0.57763671875	0.412841796875	1	lower	amplitud.ttf
2339.518	n/a	WORD	1169759	wordpools/wasnorm_wordpool_less_exclusions.txt	LTP280	ltpFR	6	10	0	MERMAID	887	n/a	n/a	1	0.57763671875	0.412841796875	1	lower	amplitud.ttf
2343.632	n/a	WORD	1171816	wordpools/wasnorm_wordpool_less_exclusions.txt	LTP280	ltpFR	6	10	0	CHEESE	289	n/a	n/a	0	0.57763671875	0.412841796875	1	lower	amplitud.ttf
2347.514	n/a	WORD	1173757	wordpools/wasnorm_wordpool_less_exclusions.txt	LTP280	ltpFR	6	10	0	MONGOOSE	909	n/a	n/a	1	0.57763671875	0.412841796875	1	lower	amplitud.ttf
2351.48	n/a	WORD	1175740	wordpools/wasnorm_wordpool_less_exclusions.txt	LTP280	ltpFR	6	10	0	EUROPE	541	n/a	n/a	1	0.57763671875	0.412841796875	1	lower	amplitud.ttf
2355.628	n/a	WORD	1177814	wordpools/wasnorm_wordpool_less_exclusions.txt	LTP280	ltpFR	6	10	0	ASIA	46	n/a	n/a	1	0.57763671875	0.412841796875	1	lower	amplitud.ttf
2359.776	n/a	WORD	1179888	wordpools/wasnorm_wordpool_less_exclusions.txt	LTP280	ltpFR	6	10	0	CENT	270	n/a	n/a	0	0.57763671875	0.412841796875	1	lower	amplitud.ttf
2363.608	n/a	WORD	1181804	wordpools/wasnorm_wordpool_less_exclusions.txt	LTP280	ltpFR	6	10	0	RADIO	1157	n/a	n/a	0	0.57763671875	0.412841796875	1	lower	amplitud.ttf
2367.574	n/a	WORD	1183787	wordpools/wasnorm_wordpool_less_exclusions.txt	LTP280	ltpFR	6	10	0	CONCERT	360	n/a	n/a	1	0.57763671875	0.412841796875	1	lower	amplitud.ttf
2371.706	n/a	WORD	1185853	wordpools/wasnorm_wordpool_less_exclusions.txt	LTP280	ltpFR	6	10	0	TROMBONE	1508	n/a	n/a	1	0.57763671875	0.412841796875	1	lower	amplitud.ttf
2375.736	n/a	WORD	1187868	wordpools/wasnorm_wordpool_less_exclusions.txt	LTP280	ltpFR	6	10	0	BIBLE	124	n/a	n/a	2	0.57763671875	0.412841796875	1	lower	amplitud.ttf
2375.956	n/a	KEY_MSG	1187978	n/a	LTP280	ltpFR	6	10	n/a	n/a	n/a	n/a	n/a	n/a	n/a	n/a	n/a	n/a	n/a
2379.62	n/a	WORD	1189810	wordpools/wasnorm_wordpool_less_exclusions.txt	LTP280	ltpFR	6	10	0	CHEMIST	292	n/a	n/a	1	0.57763671875	0.412841796875	1	lower	amplitud.ttf
2383.55	n/a	WORD	1191775	wordpools/wasnorm_wordpool_less_exclusions.txt	LTP280	ltpFR	6	10	0	CASTLE	256	n/a	n/a	1	0.57763671875	0.412841796875	1	lower	amplitud.ttf
2387.634	n/a	WORD	1193817	wordpools/wasnorm_wordpool_less_exclusions.txt	LTP280	ltpFR	6	10	0	CHESS	294	n/a	n/a	1	0.57763671875	0.412841796875	1	lower	amplitud.ttf
2391.716	n/a	WORD	1195858	wordpools/wasnorm_wordpool_less_exclusions.txt	LTP280	ltpFR	6	10	0	CRACKER	398	n/a	n/a	0	0.57763671875	0.412841796875	1	lower	amplitud.ttf
2395.58	n/a	WORD	1197790	wordpools/wasnorm_wordpool_less_exclusions.txt	LTP280	ltpFR	6	10	0	TUBA	1515	n/a	n/a	1	0.57763671875	0.412841796875	1	lower	amplitud.ttf
2401.354	n/a	REC_START	1200677	n/a	LTP280	ltpFR	6	10	n/a	n/a	n/a	n/a	n/a	n/a	n/a	n/a	n/a	n/a	n/a
2401.926	n/a	REC_WORD	1200963	wordpools/wasnorm_wordpool_less_exclusions.txt	LTP280	ltpFR	6	10	0	CHEMIST	292	n/a	n/a	1	n/a	n/a	n/a	n/a	n/a
2402.742	n/a	REC_WORD	1201371	wordpools/wasnorm_wordpool_less_exclusions.txt	LTP280	ltpFR	6	10	0	CASTLE	256	n/a	n/a	1	n/a	n/a	n/a	n/a	n/a
2404.09	n/a	REC_WORD	1202045	wordpools/wasnorm_wordpool_less_exclusions.txt	LTP280	ltpFR	6	10	0	CHESS	294	n/a	n/a	1	n/a	n/a	n/a	n/a	n/a
2405.346	n/a	REC_WORD	1202673	wordpools/wasnorm_wordpool_less_exclusions.txt	LTP280	ltpFR	6	10	0	TROMBONE	1508	n/a	n/a	1	n/a	n/a	n/a	n/a	n/a
2407.104	n/a	REC_WORD	1203552	wordpools/wasnorm_wordpool_less_exclusions.txt	LTP280	ltpFR	6	10	0	TUBA	1515	n/a	n/a	1	n/a	n/a	n/a	n/a	n/a
2435.922	n/a	REC_WORD	1217961	wordpools/wasnorm_wordpool_less_exclusions.txt	LTP280	ltpFR	6	10	0	MONGOOSE	909	n/a	n/a	1	n/a	n/a	n/a	n/a	n/a
2492.988	n/a	WORD	1246494	wordpools/wasnorm_wordpool_less_exclusions.txt	LTP280	ltpFR	6	11	1	ENGINEER	536	n/a	n/a	1	0.422607421875	0.5869140625	0	upper	zerothre.ttf
2497.07	n/a	WORD	1248535	wordpools/wasnorm_wordpool_less_exclusions.txt	LTP280	ltpFR	6	11	1	CITIZEN	312	n/a	n/a	1	0.422607421875	0.5869140625	0	upper	zerothre.ttf
2500.984	n/a	WORD	1250492	wordpools/wasnorm_wordpool_less_exclusions.txt	LTP280	ltpFR	6	11	1	CHEERLEADER	288	n/a	n/a	1	0.422607421875	0.5869140625	0	upper	zerothre.ttf
2505.184	n/a	WORD	1252592	wordpools/wasnorm_wordpool_less_exclusions.txt	LTP280	ltpFR	6	11	1	STOMACH	1384	n/a	n/a	0	0.422607421875	0.5869140625	0	upper	zerothre.ttf
2509.216	n/a	WORD	1254608	wordpools/wasnorm_wordpool_less_exclusions.txt	LTP280	ltpFR	6	11	1	WELL	1600	n/a	n/a	0	0.422607421875	0.5869140625	0	upper	zerothre.ttf
2513.43	n/a	WORD	1256715	wordpools/wasnorm_wordpool_less_exclusions.txt	LTP280	ltpFR	6	11	1	BISCUIT	130	n/a	n/a	0	0.422607421875	0.5869140625	0	upper	zerothre.ttf
2517.396	n/a	WORD	1258698	wordpools/wasnorm_wordpool_less_exclusions.txt	LTP280	ltpFR	6	11	1	WHISTLE	1606	n/a	n/a	0	0.422607421875	0.5869140625	0	upper	zerothre.ttf
2521.496	n/a	WORD	1260748	wordpools/wasnorm_wordpool_less_exclusions.txt	LTP280	ltpFR	6	11	1	SAILOR	1223	n/a	n/a	0	0.422607421875	0.5869140625	0	upper	zerothre.ttf
2525.612	n/a	WORD	1262806	wordpools/wasnorm_wordpool_less_exclusions.txt	LTP280	ltpFR	6	11	1	RAFT	1159	n/a	n/a	0	0.422607421875	0.5869140625	0	upper	zerothre.ttf
2529.644	n/a	WORD	1264822	wordpools/wasnorm_wordpool_less_exclusions.txt	LTP280	ltpFR	6	11	1	OCEAN	970	n/a	n/a	0	0.422607421875	0.5869140625	0	upper	zerothre.ttf
2533.708	n/a	WORD	1266854	wordpools/wasnorm_wordpool_less_exclusions.txt	LTP280	ltpFR	6	11	1	KETTLE	772	n/a	n/a	0	0.422607421875	0.5869140625	0	upper	zerothre.ttf
2537.674	n/a	WORD	1268837	wordpools/wasnorm_wordpool_less_exclusions.txt	LTP280	ltpFR	6	11	1	SUITCASE	1403	n/a	n/a	0	0.422607421875	0.5869140625	0	upper	zerothre.ttf
2541.672	n/a	WORD	1270836	wordpools/wasnorm_wordpool_less_exclusions.txt	LTP280	ltpFR	6	11	1	STADIUM	1364	n/a	n/a	0	0.422607421875	0.5869140625	0	upper	zerothre.ttf
2545.84	n/a	WORD	1272920	wordpools/wasnorm_wordpool_less_exclusions.txt	LTP280	ltpFR	6	11	1	FEAST	556	n/a	n/a	0	0.422607421875	0.5869140625	0	upper	zerothre.ttf
2549.788	n/a	WORD	1274894	wordpools/wasnorm_wordpool_less_exclusions.txt	LTP280	ltpFR	6	11	1	COD	340	n/a	n/a	1	0.422607421875	0.5869140625	0	upper	zerothre.ttf
2553.986	n/a	WORD	1276993	wordpools/wasnorm_wordpool_less_exclusions.txt	LTP280	ltpFR	6	11	1	NET	946	n/a	n/a	0	0.422607421875	0.5869140625	0	upper	zerothre.ttf
2559.854	n/a	REC_START	1279927	n/a	LTP280	ltpFR	6	11	n/a	n/a	n/a	n/a	n/a	n/a	n/a	n/a	n/a	n/a	n/a
2560.136	n/a	REC_WORD	1280068	wordpools/wasnorm_wordpool_less_exclusions.txt	LTP280	ltpFR	6	11	1	FEAST	556	n/a	n/a	0	n/a	n/a	n/a	n/a	n/a
2560.942	n/a	REC_WORD	1280471	wordpools/wasnorm_wordpool_less_exclusions.txt	LTP280	ltpFR	6	11	1	COD	340	n/a	n/a	1	n/a	n/a	n/a	n/a	n/a
2561.696	n/a	REC_WORD	1280848	wordpools/wasnorm_wordpool_less_exclusions.txt	LTP280	ltpFR	6	11	1	NET	946	n/a	n/a	0	n/a	n/a	n/a	n/a	n/a
2564.314	n/a	REC_WORD	1282157	wordpools/wasnorm_wordpool_less_exclusions.txt	LTP280	ltpFR	6	11	1	ENGINEER	536	n/a	n/a	1	n/a	n/a	n/a	n/a	n/a
2567.096	n/a	REC_WORD	1283548	wordpools/wasnorm_wordpool_less_exclusions.txt	LTP280	ltpFR	6	11	1	CHEERLEADER	288	n/a	n/a	1	n/a	n/a	n/a	n/a	n/a
2577.094	n/a	REC_WORD	1288547	wordpools/wasnorm_wordpool_less_exclusions.txt	LTP280	ltpFR	6	11	n/a	BLADDER	-1	n/a	n/a	n/a	n/a	n/a	n/a	n/a	n/a
2577.92	n/a	REC_WORD_VV	1288960	wordpools/wasnorm_wordpool_less_exclusions.txt	LTP280	ltpFR	6	11	n/a	<>	-1	n/a	n/a	n/a	n/a	n/a	n/a	n/a	n/a
2578.138	n/a	REC_WORD	1289069	wordpools/wasnorm_wordpool_less_exclusions.txt	LTP280	ltpFR	6	11	1	STOMACH	1384	n/a	n/a	0	n/a	n/a	n/a	n/a	n/a
2596.37	n/a	REC_WORD	1298185	wordpools/wasnorm_wordpool_less_exclusions.txt	LTP280	ltpFR	6	11	1	RAFT	1159	n/a	n/a	0	n/a	n/a	n/a	n/a	n/a
2597.346	n/a	REC_WORD	1298673	wordpools/wasnorm_wordpool_less_exclusions.txt	LTP280	ltpFR	6	11	1	OCEAN	970	n/a	n/a	0	n/a	n/a	n/a	n/a	n/a
2610.202	n/a	REC_WORD	1305101	wordpools/wasnorm_wordpool_less_exclusions.txt	LTP280	ltpFR	6	11	1	SAILOR	1223	n/a	n/a	0	n/a	n/a	n/a	n/a	n/a
2647.092	n/a	WORD	1323546	wordpools/wasnorm_wordpool_less_exclusions.txt	LTP280	ltpFR	6	12	0	LOOP	844	n/a	n/a	0	0.57763671875	0.412841796875	1	lower	amplitud.ttf
2651.226	n/a	WORD	1325613	wordpools/wasnorm_wordpool_less_exclusions.txt	LTP280	ltpFR	6	12	0	CREATURE	403	n/a	n/a	1	0.57763671875	0.412841796875	1	lower	amplitud.ttf
2655.14	n/a	WORD	1327570	wordpools/wasnorm_wordpool_less_exclusions.txt	LTP280	ltpFR	6	12	0	ZOO	1637	n/a	n/a	1	0.57763671875	0.412841796875	1	lower	amplitud.ttf
2659.29	n/a	WORD	1329645	wordpools/wasnorm_wordpool_less_exclusions.txt	LTP280	ltpFR	6	12	1	HAM	678	n/a	n/a	1	0.422607421875	0.5869140625	0	upper	zerothre.ttf
2663.354	n/a	WORD	1331677	wordpools/wasnorm_wordpool_less_exclusions.txt	LTP280	ltpFR	6	12	1	TURTLE	1522	n/a	n/a	1	0.422607421875	0.5869140625	0	upper	zerothre.ttf
2667.27	n/a	WORD	1333635	wordpools/wasnorm_wordpool_less_exclusions.txt	LTP280	ltpFR	6	12	1	PAINTING	1005	n/a	n/a	0	0.422607421875	0.5869140625	0	upper	zerothre.ttf
2671.25	n/a	WORD	1335625	wordpools/wasnorm_wordpool_less_exclusions.txt	LTP280	ltpFR	6	12	0	RUM	1217	n/a	n/a	0	0.57763671875	0.412841796875	1	lower	amplitud.ttf
2675.25	n/a	WORD	1337625	wordpools/wasnorm_wordpool_less_exclusions.txt	LTP280	ltpFR	6	12	0	JUG	762	n/a	n/a	0	0.57763671875	0.412841796875	1	lower	amplitud.ttf
2679.166	n/a	WORD	1339583	wordpools/wasnorm_wordpool_less_exclusions.txt	LTP280	ltpFR	6	12	0	BUCKLE	185	n/a	n/a	0	0.57763671875	0.412841796875	1	lower	amplitud.ttf
2683.148	n/a	WORD	1341574	wordpools/wasnorm_wordpool_less_exclusions.txt	LTP280	ltpFR	6	12	1	PACKAGE	997	n/a	n/a	0	0.422607421875	0.5869140625	0	upper	zerothre.ttf
2687.33	n/a	WORD	1343665	wordpools/wasnorm_wordpool_less_exclusions.txt	LTP280	ltpFR	6	12	1	COW	393	n/a	n/a	1	0.422607421875	0.5869140625	0	upper	zerothre.ttf
2691.262	n/a	WORD	1345631	wordpools/wasnorm_wordpool_less_exclusions.txt	LTP280	ltpFR	6	12	1	ANIMAL	23	n/a	n/a	1	0.422607421875	0.5869140625	0	upper	zerothre.ttf
2695.26	n/a	WORD	1347630	wordpools/wasnorm_wordpool_less_exclusions.txt	LTP280	ltpFR	6	12	1	LEG	809	n/a	n/a	1	0.422607421875	0.5869140625	0	upper	zerothre.ttf
2699.19	n/a	WORD	1349595	wordpools/wasnorm_wordpool_less_exclusions.txt	LTP280	ltpFR	6	12	1	KNEE	784	n/a	n/a	1	0.422607421875	0.5869140625	0	upper	zerothre.ttf
2703.074	n/a	WORD	1351537	wordpools/wasnorm_wordpool_less_exclusions.txt	LTP280	ltpFR	6	12	0	FACTORY	548	n/a	n/a	1	0.57763671875	0.412841796875	1	lower	amplitud.ttf
2707.188	n/a	WORD	1353594	wordpools/wasnorm_wordpool_less_exclusions.txt	LTP280	ltpFR	6	12	0	ASH	44	n/a	n/a	0	0.57763671875	0.412841796875	1	lower	amplitud.ttf
2712.928	n/a	REC_START	1356464	n/a	LTP280	ltpFR	6	12	n/a	n/a	n/a	n/a	n/a	n/a	n/a	n/a	n/a	n/a	n/a
2713.654	n/a	REC_WORD	1356827	wordpools/wasnorm_wordpool_less_exclusions.txt	LTP280	ltpFR	6	12	0	ASH	44	n/a	n/a	0	n/a	n/a	n/a	n/a	n/a
2714.64	n/a	REC_WORD	1357320	wordpools/wasnorm_wordpool_less_exclusions.txt	LTP280	ltpFR	6	12	0	RUM	1217	n/a	n/a	0	n/a	n/a	n/a	n/a	n/a
2715.166	n/a	REC_WORD	1357583	wordpools/wasnorm_wordpool_less_exclusions.txt	LTP280	ltpFR	6	12	0	JUG	762	n/a	n/a	0	n/a	n/a	n/a	n/a	n/a
2716.386	n/a	REC_WORD	1358193	wordpools/wasnorm_wordpool_less_exclusions.txt	LTP280	ltpFR	6	12	1	PACKAGE	997	n/a	n/a	0	n/a	n/a	n/a	n/a	n/a
2717.4	n/a	REC_WORD	1358700	wordpools/wasnorm_wordpool_less_exclusions.txt	LTP280	ltpFR	6	12	1	KNEE	784	n/a	n/a	1	n/a	n/a	n/a	n/a	n/a
2723.552	n/a	REC_WORD_VV	1361776	wordpools/wasnorm_wordpool_less_exclusions.txt	LTP280	ltpFR	6	12	n/a	<>	-1	n/a	n/a	n/a	n/a	n/a	n/a	n/a	n/a
2871.282	n/a	WORD	1435641	wordpools/wasnorm_wordpool_less_exclusions.txt	LTP280	ltpFR	6	13	-1	MARKER	870	n/a	n/a	-1	1.0	1.0	1	upper	Verdana.ttf
2875.282	n/a	WORD	1437641	wordpools/wasnorm_wordpool_less_exclusions.txt	LTP280	ltpFR	6	13	-1	COMPANION	357	n/a	n/a	-1	1.0	1.0	1	upper	Verdana.ttf
2879.396	n/a	WORD	1439698	wordpools/wasnorm_wordpool_less_exclusions.txt	LTP280	ltpFR	6	13	-1	STRANGER	1389	n/a	n/a	-1	1.0	1.0	1	upper	Verdana.ttf
2883.414	n/a	WORD	1441707	wordpools/wasnorm_wordpool_less_exclusions.txt	LTP280	ltpFR	6	13	-1	QUILL	1150	n/a	n/a	-1	1.0	1.0	1	upper	Verdana.ttf
2887.394	n/a	WORD	1443697	wordpools/wasnorm_wordpool_less_exclusions.txt	LTP280	ltpFR	6	13	-1	TRENCH	1503	n/a	n/a	-1	1.0	1.0	1	upper	Verdana.ttf
2891.276	n/a	WORD	1445638	wordpools/wasnorm_wordpool_less_exclusions.txt	LTP280	ltpFR	6	13	-1	CHOCOLATE	306	n/a	n/a	-1	1.0	1.0	1	upper	Verdana.ttf
2895.424	n/a	WORD	1447712	wordpools/wasnorm_wordpool_less_exclusions.txt	LTP280	ltpFR	6	13	-1	CREVICE	405	n/a	n/a	-1	1.0	1.0	1	upper	Verdana.ttf
2899.574	n/a	WORD	1449787	wordpools/wasnorm_wordpool_less_exclusions.txt	LTP280	ltpFR	6	13	-1	MOON	914	n/a	n/a	-1	1.0	1.0	1	upper	Verdana.ttf
2903.756	n/a	WORD	1451878	wordpools/wasnorm_wordpool_less_exclusions.txt	LTP280	ltpFR	6	13	-1	HAMMOCK	681	n/a	n/a	-1	1.0	1.0	1	upper	Verdana.ttf
2907.638	n/a	WORD	1453819	wordpools/wasnorm_wordpool_less_exclusions.txt	LTP280	ltpFR	6	13	-1	CAKE	219	n/a	n/a	-1	1.0	1.0	1	upper	Verdana.ttf
2911.854	n/a	WORD	1455927	wordpools/wasnorm_wordpool_less_exclusions.txt	LTP280	ltpFR	6	13	-1	SNACK	1331	n/a	n/a	-1	1.0	1.0	1	upper	Verdana.ttf
2915.718	n/a	WORD	1457859	wordpools/wasnorm_wordpool_less_exclusions.txt	LTP280	ltpFR	6	13	-1	ELK	526	n/a	n/a	-1	1.0	1.0	1	upper	Verdana.ttf
2919.936	n/a	WORD	1459968	wordpools/wasnorm_wordpool_less_exclusions.txt	LTP280	ltpFR	6	13	-1	MONEY	908	n/a	n/a	-1	1.0	1.0	1	upper	Verdana.ttf
2923.984	n/a	WORD	1461992	wordpools/wasnorm_wordpool_less_exclusions.txt	LTP280	ltpFR	6	13	-1	PAWN	1030	n/a	n/a	-1	1.0	1.0	1	upper	Verdana.ttf
2928.132	n/a	WORD	1464066	wordpools/wasnorm_wordpool_less_exclusions.txt	LTP280	ltpFR	6	13	-1	ALLIGATOR	16	n/a	n/a	-1	1.0	1.0	1	upper	Verdana.ttf
2932.25	n/a	WORD	1466125	wordpools/wasnorm_wordpool_less_exclusions.txt	LTP280	ltpFR	6	13	-1	WILDERNESS	1610	n/a	n/a	-1	1.0	1.0	1	upper	Verdana.ttf
2938.222	n/a	REC_START	1469111	n/a	LTP280	ltpFR	6	13	n/a	n/a	n/a	n/a	n/a	n/a	n/a	n/a	n/a	n/a	n/a
2938.592	n/a	REC_WORD	1469296	wordpools/wasnorm_wordpool_less_exclusions.txt	LTP280	ltpFR	6	13	-1	PAWN	1030	n/a	n/a	-1	n/a	n/a	n/a	n/a	n/a
2939.262	n/a	REC_WORD	1469631	wordpools/wasnorm_wordpool_less_exclusions.txt	LTP280	ltpFR	6	13	-1	MONEY	908	n/a	n/a	-1	n/a	n/a	n/a	n/a	n/a
2940.396	n/a	REC_WORD	1470198	wordpools/wasnorm_wordpool_less_exclusions.txt	LTP280	ltpFR	6	13	-1	ALLIGATOR	16	n/a	n/a	-1	n/a	n/a	n/a	n/a	n/a
2941.092	n/a	REC_WORD	1470546	wordpools/wasnorm_wordpool_less_exclusions.txt	LTP280	ltpFR	6	13	-1	WILDERNESS	1610	n/a	n/a	-1	n/a	n/a	n/a	n/a	n/a
2942.726	n/a	REC_WORD	1471363	wordpools/wasnorm_wordpool_less_exclusions.txt	LTP280	ltpFR	6	13	-1	COMPANION	357	n/a	n/a	-1	n/a	n/a	n/a	n/a	n/a
2943.432	n/a	REC_WORD	1471716	wordpools/wasnorm_wordpool_less_exclusions.txt	LTP280	ltpFR	6	13	-1	STRANGER	1389	n/a	n/a	-1	n/a	n/a	n/a	n/a	n/a
2944.432	n/a	REC_WORD_VV	1472216	wordpools/wasnorm_wordpool_less_exclusions.txt	LTP280	ltpFR	6	13	n/a	<>	-1	n/a	n/a	n/a	n/a	n/a	n/a	n/a	n/a
2958.142	n/a	REC_WORD	1479071	wordpools/wasnorm_wordpool_less_exclusions.txt	LTP280	ltpFR	6	13	-1	ELK	526	n/a	n/a	-1	n/a	n/a	n/a	n/a	n/a
2960.526	n/a	REC_WORD	1480263	wordpools/wasnorm_wordpool_less_exclusions.txt	LTP280	ltpFR	6	13	-1	HAMMOCK	681	n/a	n/a	-1	n/a	n/a	n/a	n/a	n/a
2964.518	n/a	REC_WORD	1482259	wordpools/wasnorm_wordpool_less_exclusions.txt	LTP280	ltpFR	6	13	-1	MOON	914	n/a	n/a	-1	n/a	n/a	n/a	n/a	n/a
3035.126	n/a	WORD	1517563	wordpools/wasnorm_wordpool_less_exclusions.txt	LTP280	ltpFR	6	14	0	TILE	1468	n/a	n/a	0	0.57763671875	0.412841796875	1	lower	amplitud.ttf
3038.974	n/a	WORD	1519487	wordpools/wasnorm_wordpool_less_exclusions.txt	LTP280	ltpFR	6	14	0	THORN	1459	n/a	n/a	0	0.57763671875	0.412841796875	1	lower	amplitud.ttf
3042.822	n/a	WORD	1521411	wordpools/wasnorm_wordpool_less_exclusions.txt	LTP280	ltpFR	6	14	0	CUPBOARD	425	n/a	n/a	1	0.57763671875	0.412841796875	1	lower	amplitud.ttf
3046.736	n/a	WORD	1523368	wordpools/wasnorm_wordpool_less_exclusions.txt	LTP280	ltpFR	6	14	0	DETERGENT	455	n/a	n/a	0	0.57763671875	0.412841796875	1	lower	amplitud.ttf
3050.768	n/a	WORD	1525384	wordpools/wasnorm_wordpool_less_exclusions.txt	LTP280	ltpFR	6	14	0	SIREN	1310	n/a	n/a	0	0.57763671875	0.412841796875	1	lower	amplitud.ttf
3054.716	n/a	WORD	1527358	wordpools/wasnorm_wordpool_less_exclusions.txt	LTP280	ltpFR	6	14	0	TOOTH	1481	n/a	n/a	0	0.57763671875	0.412841796875	1	lower	amplitud.ttf
3058.682	n/a	WORD	1529341	wordpools/wasnorm_wordpool_less_exclusions.txt	LTP280	ltpFR	6	14	0	SYRUP	1425	n/a	n/a	0	0.57763671875	0.412841796875	1	lower	amplitud.ttf
3062.864	n/a	WORD	1531432	wordpools/wasnorm_wordpool_less_exclusions.txt	LTP280	ltpFR	6	14	0	SIRLOIN	1311	n/a	n/a	0	0.57763671875	0.412841796875	1	lower	amplitud.ttf
3066.762	n/a	WORD	1533381	wordpools/wasnorm_wordpool_less_exclusions.txt	LTP280	ltpFR	6	14	0	PLIERS	1089	n/a	n/a	0	0.57763671875	0.412841796875	1	lower	amplitud.ttf
3070.778	n/a	WORD	1535389	wordpools/wasnorm_wordpool_less_exclusions.txt	LTP280	ltpFR	6	14	0	SWAN	1417	n/a	n/a	1	0.57763671875	0.412841796875	1	lower	amplitud.ttf
3074.66	n/a	WORD	1537330	wordpools/wasnorm_wordpool_less_exclusions.txt	LTP280	ltpFR	6	14	0	EAGLE	512	n/a	n/a	1	0.57763671875	0.412841796875	1	lower	amplitud.ttf
3078.524	n/a	WORD	1539262	wordpools/wasnorm_wordpool_less_exclusions.txt	LTP280	ltpFR	6	14	0	PENGUIN	1044	n/a	n/a	1	0.57763671875	0.412841796875	1	lower	amplitud.ttf
3082.524	n/a	WORD	1541262	wordpools/wasnorm_wordpool_less_exclusions.txt	LTP280	ltpFR	6	14	0	WRENCH	1625	n/a	n/a	0	0.57763671875	0.412841796875	1	lower	amplitud.ttf
3086.556	n/a	WORD	1543278	wordpools/wasnorm_wordpool_less_exclusions.txt	LTP280	ltpFR	6	14	0	CLAY	320	n/a	n/a	0	0.57763671875	0.412841796875	1	lower	amplitud.ttf
3090.688	n/a	WORD	1545344	wordpools/wasnorm_wordpool_less_exclusions.txt	LTP280	ltpFR	6	14	0	THIGH	1457	n/a	n/a	1	0.57763671875	0.412841796875	1	lower	amplitud.ttf
3094.768	n/a	WORD	1547384	wordpools/wasnorm_wordpool_less_exclusions.txt	LTP280	ltpFR	6	14	0	LIMB	822	n/a	n/a	1	0.57763671875	0.412841796875	1	lower	amplitud.ttf
3100.776	n/a	REC_START	1550388	n/a	LTP280	ltpFR	6	14	n/a	n/a	n/a	n/a	n/a	n/a	n/a	n/a	n/a	n/a	n/a
3101.402	n/a	REC_WORD	1550701	wordpools/wasnorm_wordpool_less_exclusions.txt	LTP280	ltpFR	6	14	0	TILE	1468	n/a	n/a	0	n/a	n/a	n/a	n/a	n/a
3101.864	n/a	REC_WORD	1550932	wordpools/wasnorm_wordpool_less_exclusions.txt	LTP280	ltpFR	6	14	0	THORN	1459	n/a	n/a	0	n/a	n/a	n/a	n/a	n/a
3104.144	n/a	REC_WORD	1552072	wordpools/wasnorm_wordpool_less_exclusions.txt	LTP280	ltpFR	6	14	0	LIMB	822	n/a	n/a	1	n/a	n/a	n/a	n/a	n/a
3105.49	n/a	REC_WORD	1552745	wordpools/wasnorm_wordpool_less_exclusions.txt	LTP280	ltpFR	6	14	0	CUPBOARD	425	n/a	n/a	1	n/a	n/a	n/a	n/a	n/a
3189.934	n/a	WORD	1594967	wordpools/wasnorm_wordpool_less_exclusions.txt	LTP280	ltpFR	6	15	-1	BOUILLON	154	n/a	n/a	-1	1.0	1.0	1	upper	Verdana.ttf
3193.916	n/a	WORD	1596958	wordpools/wasnorm_wordpool_less_exclusions.txt	LTP280	ltpFR	6	15	-1	DRIVEWAY	500	n/a	n/a	-1	1.0	1.0	1	upper	Verdana.ttf
3198.132	n/a	WORD	1599066	wordpools/wasnorm_wordpool_less_exclusions.txt	LTP280	ltpFR	6	15	-1	DOORBELL	487	n/a	n/a	-1	1.0	1.0	1	upper	Verdana.ttf
3202.246	n/a	WORD	1601123	wordpools/wasnorm_wordpool_less_exclusions.txt	LTP280	ltpFR	6	15	-1	FINGER	567	n/a	n/a	-1	1.0	1.0	1	upper	Verdana.ttf
3206.464	n/a	WORD	1603232	wordpools/wasnorm_wordpool_less_exclusions.txt	LTP280	ltpFR	6	15	-1	POLYESTER	1100	n/a	n/a	-1	1.0	1.0	1	upper	Verdana.ttf
3210.51	n/a	WORD	1605255	wordpools/wasnorm_wordpool_less_exclusions.txt	LTP280	ltpFR	6	15	-1	VALLEY	1545	n/a	n/a	-1	1.0	1.0	1	upper	Verdana.ttf
3214.544	n/a	WORD	1607272	wordpools/wasnorm_wordpool_less_exclusions.txt	LTP280	ltpFR	6	15	-1	SLOPE	1328	n/a	n/a	-1	1.0	1.0	1	upper	Verdana.ttf
3218.492	n/a	WORD	1609246	wordpools/wasnorm_wordpool_less_exclusions.txt	LTP280	ltpFR	6	15	-1	ROBE	1198	n/a	n/a	-1	1.0	1.0	1	upper	Verdana.ttf
3222.342	n/a	WORD	1611171	wordpools/wasnorm_wordpool_less_exclusions.txt	LTP280	ltpFR	6	15	-1	UNIFORM	1539	n/a	n/a	-1	1.0	1.0	1	upper	Verdana.ttf
3226.374	n/a	WORD	1613187	wordpools/wasnorm_wordpool_less_exclusions.txt	LTP280	ltpFR	6	15	-1	SILK	1307	n/a	n/a	-1	1.0	1.0	1	upper	Verdana.ttf
3230.49	n/a	WORD	1615245	wordpools/wasnorm_wordpool_less_exclusions.txt	LTP280	ltpFR	6	15	-1	TOE	1473	n/a	n/a	-1	1.0	1.0	1	upper	Verdana.ttf
3234.404	n/a	WORD	1617202	wordpools/wasnorm_wordpool_less_exclusions.txt	LTP280	ltpFR	6	15	-1	GLACIER	638	n/a	n/a	-1	1.0	1.0	1	upper	Verdana.ttf
3238.234	n/a	WORD	1619117	wordpools/wasnorm_wordpool_less_exclusions.txt	LTP280	ltpFR	6	15	-1	SPATULA	1348	n/a	n/a	-1	1.0	1.0	1	upper	Verdana.ttf
3242.318	n/a	WORD	1621159	wordpools/wasnorm_wordpool_less_exclusions.txt	LTP280	ltpFR	6	15	-1	RICE	1190	n/a	n/a	-1	1.0	1.0	1	upper	Verdana.ttf
3246.516	n/a	WORD	1623258	wordpools/wasnorm_wordpool_less_exclusions.txt	LTP280	ltpFR	6	15	-1	ICE	730	n/a	n/a	-1	1.0	1.0	1	upper	Verdana.ttf
3250.364	n/a	WORD	1625182	wordpools/wasnorm_wordpool_less_exclusions.txt	LTP280	ltpFR	6	15	-1	SUSPECT	1415	n/a	n/a	-1	1.0	1.0	1	upper	Verdana.ttf
3256.304	n/a	REC_START	1628152	n/a	LTP280	ltpFR	6	15	n/a	n/a	n/a	n/a	n/a	n/a	n/a	n/a	n/a	n/a	n/a
3256.706	n/a	REC_WORD	1628353	wordpools/wasnorm_wordpool_less_exclusions.txt	LTP280	ltpFR	6	15	-1	SPATULA	1348	n/a	n/a	-1	n/a	n/a	n/a	n/a	n/a
3257.54	n/a	REC_WORD	1628770	wordpools/wasnorm_wordpool_less_exclusions.txt	LTP280	ltpFR	6	15	-1	RICE	1190	n/a	n/a	-1	n/a	n/a	n/a	n/a	n/a
3258.234	n/a	REC_WORD	1629117	wordpools/wasnorm_wordpool_less_exclusions.txt	LTP280	ltpFR	6	15	-1	ICE	730	n/a	n/a	-1	n/a	n/a	n/a	n/a	n/a
3258.554	n/a	REC_WORD	1629277	wordpools/wasnorm_wordpool_less_exclusions.txt	LTP280	ltpFR	6	15	-1	SUSPECT	1415	n/a	n/a	-1	n/a	n/a	n/a	n/a	n/a
3259.556	n/a	REC_WORD_VV	1629778	wordpools/wasnorm_wordpool_less_exclusions.txt	LTP280	ltpFR	6	15	n/a	<>	-1	n/a	n/a	n/a	n/a	n/a	n/a	n/a	n/a
3266.164	n/a	REC_WORD	1633082	wordpools/wasnorm_wordpool_less_exclusions.txt	LTP280	ltpFR	6	15	-1	DOORBELL	487	n/a	n/a	-1	n/a	n/a	n/a	n/a	n/a
3270.23	n/a	REC_WORD	1635115	wordpools/wasnorm_wordpool_less_exclusions.txt	LTP280	ltpFR	6	15	-1	SILK	1307	n/a	n/a	-1	n/a	n/a	n/a	n/a	n/a
3270.956	n/a	REC_WORD	1635478	wordpools/wasnorm_wordpool_less_exclusions.txt	LTP280	ltpFR	6	15	-1	ROBE	1198	n/a	n/a	-1	n/a	n/a	n/a	n/a	n/a
3271.284	n/a	REC_WORD	1635642	wordpools/wasnorm_wordpool_less_exclusions.txt	LTP280	ltpFR	6	15	-1	UNIFORM	1539	n/a	n/a	-1	n/a	n/a	n/a	n/a	n/a
3272.79	n/a	REC_WORD	1636395	wordpools/wasnorm_wordpool_less_exclusions.txt	LTP280	ltpFR	6	15	-1	DRIVEWAY	500	n/a	n/a	-1	n/a	n/a	n/a	n/a	n/a
3342.4	n/a	WORD	1671200	wordpools/wasnorm_wordpool_less_exclusions.txt	LTP280	ltpFR	6	16	1	HARE	688	n/a	n/a	1	0.422607421875	0.5869140625	0	upper	zerothre.ttf
3346.582	n/a	WORD	1673291	wordpools/wasnorm_wordpool_less_exclusions.txt	LTP280	ltpFR	6	16	1	TOENAIL	1474	n/a	n/a	0	0.422607421875	0.5869140625	0	upper	zerothre.ttf
3350.548	n/a	WORD	1675274	wordpools/wasnorm_wordpool_less_exclusions.txt	LTP280	ltpFR	6	16	1	VIDEO	1564	n/a	n/a	0	0.422607421875	0.5869140625	0	upper	zerothre.ttf
3354.58	n/a	WORD	1677290	wordpools/wasnorm_wordpool_less_exclusions.txt	LTP280	ltpFR	6	16	1	RULER	1216	n/a	n/a	0	0.422607421875	0.5869140625	0	upper	zerothre.ttf
3358.412	n/a	WORD	1679206	wordpools/wasnorm_wordpool_less_exclusions.txt	LTP280	ltpFR	6	16	0	QUEEN	1149	n/a	n/a	1	0.57763671875	0.412841796875	1	lower	amplitud.ttf
3362.444	n/a	WORD	1681222	wordpools/wasnorm_wordpool_less_exclusions.txt	LTP280	ltpFR	6	16	0	DIGGER	464	n/a	n/a	1	0.57763671875	0.412841796875	1	lower	amplitud.ttf
3366.642	n/a	WORD	1683321	wordpools/wasnorm_wordpool_less_exclusions.txt	LTP280	ltpFR	6	16	0	THESAURUS	1454	n/a	n/a	0	0.57763671875	0.412841796875	1	lower	amplitud.ttf
3370.608	n/a	WORD	1685304	wordpools/wasnorm_wordpool_less_exclusions.txt	LTP280	ltpFR	6	16	1	BANKER	84	n/a	n/a	1	0.422607421875	0.5869140625	0	upper	zerothre.ttf
3374.622	n/a	WORD	1687311	wordpools/wasnorm_wordpool_less_exclusions.txt	LTP280	ltpFR	6	16	1	TREE	1502	n/a	n/a	1	0.422607421875	0.5869140625	0	upper	zerothre.ttf
3378.606	n/a	WORD	1689303	wordpools/wasnorm_wordpool_less_exclusions.txt	LTP280	ltpFR	6	16	0	HEDGE	699	n/a	n/a	1	0.57763671875	0.412841796875	1	lower	amplitud.ttf
3382.67	n/a	WORD	1691335	wordpools/wasnorm_wordpool_less_exclusions.txt	LTP280	ltpFR	6	16	0	SEAL	1262	n/a	n/a	1	0.57763671875	0.412841796875	1	lower	amplitud.ttf
3386.768	n/a	WORD	1693384	wordpools/wasnorm_wordpool_less_exclusions.txt	LTP280	ltpFR	6	16	0	FOUNTAIN	597	n/a	n/a	0	0.57763671875	0.412841796875	1	lower	amplitud.ttf
3390.902	n/a	WORD	1695451	wordpools/wasnorm_wordpool_less_exclusions.txt	LTP280	ltpFR	6	16	0	RECEIPT	1173	n/a	n/a	0	0.57763671875	0.412841796875	1	lower	amplitud.ttf
3395.102	n/a	WORD	1697551	wordpools/wasnorm_wordpool_less_exclusions.txt	LTP280	ltpFR	6	16	0	ANKLE	24	n/a	n/a	0	0.57763671875	0.412841796875	1	lower	amplitud.ttf
3399.184	n/a	WORD	1699592	wordpools/wasnorm_wordpool_less_exclusions.txt	LTP280	ltpFR	6	16	1	JURY	766	n/a	n/a	1	0.422607421875	0.5869140625	0	upper	zerothre.ttf
3403.132	n/a	WORD	1701566	wordpools/wasnorm_wordpool_less_exclusions.txt	LTP280	ltpFR	6	16	1	CAULIFLOWER	262	n/a	n/a	1	0.422607421875	0.5869140625	0	upper	zerothre.ttf
3409.072	n/a	REC_START	1704536	n/a	LTP280	ltpFR	6	16	n/a	n/a	n/a	n/a	n/a	n/a	n/a	n/a	n/a	n/a	n/a
3409.438	n/a	REC_WORD	1704719	wordpools/wasnorm_wordpool_less_exclusions.txt	LTP280	ltpFR	6	16	1	CAULIFLOWER	262	n/a	n/a	1	n/a	n/a	n/a	n/a	n/a
3410.506	n/a	REC_WORD	1705253	wordpools/wasnorm_wordpool_less_exclusions.txt	LTP280	ltpFR	6	16	1	JURY	766	n/a	n/a	1	n/a	n/a	n/a	n/a	n/a
3927.504	n/a	REC_START	1963752	n/a	LTP280	ltpFR	6	1	n/a	n/a	n/a	n/a	n/a	n/a	n/a	n/a	n/a	n/a	n/a
3927.552	n/a	RECOG_TARGET	1963776	n/a	LTP280	ltpFR	6	1	-1	DOORBELL	487	1	3	-1	n/a	n/a	n/a	n/a	n/a
3929.366	n/a	RECOG_RESP	1964683	n/a	LTP280	ltpFR	6	1	-1	DOORBELL	487	1	n/a	-1	n/a	n/a	n/a	n/a	n/a
3930.454	n/a	RECOG_CONF	1965227	n/a	LTP280	ltpFR	6	1	-1	DOORBELL	487	n/a	3	-1	n/a	n/a	n/a	n/a	n/a
3932.204	n/a	RECOG_TARGET	1966102	n/a	LTP280	ltpFR	6	1	1	STUMP	1396	1	5	0	n/a	n/a	n/a	n/a	n/a
3933.182	n/a	RECOG_RESP	1966591	n/a	LTP280	ltpFR	6	1	1	STUMP	1396	1	n/a	0	n/a	n/a	n/a	n/a	n/a
3933.894	n/a	RECOG_CONF	1966947	n/a	LTP280	ltpFR	6	1	1	STUMP	1396	n/a	5	0	n/a	n/a	n/a	n/a	n/a
3935.85	n/a	RECOG_TARGET	1967925	n/a	LTP280	ltpFR	6	1	1	SUITCASE	1403	1	4	0	n/a	n/a	n/a	n/a	n/a
3936.754	n/a	RECOG_RESP	1968377	n/a	LTP280	ltpFR	6	1	1	SUITCASE	1403	1	n/a	0	n/a	n/a	n/a	n/a	n/a
3937.414	n/a	RECOG_CONF	1968707	n/a	LTP280	ltpFR	6	1	1	SUITCASE	1403	n/a	4	0	n/a	n/a	n/a	n/a	n/a
3939.148	n/a	RECOG_TARGET	1969574	n/a	LTP280	ltpFR	6	1	1	BLUEBERRY	140	1	5	1	n/a	n/a	n/a	n/a	n/a
3939.934	n/a	RECOG_RESP	1969967	n/a	LTP280	ltpFR	6	1	1	BLUEBERRY	140	1	n/a	1	n/a	n/a	n/a	n/a	n/a
3940.514	n/a	RECOG_CONF	1970257	n/a	LTP280	ltpFR	6	1	1	BLUEBERRY	140	n/a	5	1	n/a	n/a	n/a	n/a	n/a
3942.242	n/a	RECOG_LURE	1971121	n/a	LTP280	ltpFR	6	1	n/a	INFANT	737	0	3	n/a	n/a	n/a	n/a	n/a	n/a
3943.464	n/a	RECOG_RESP	1971732	n/a	LTP280	ltpFR	6	1	n/a	INFANT	737	0	n/a	n/a	n/a	n/a	n/a	n/a	n/a
3944.884	n/a	RECOG_CONF	1972442	n/a	LTP280	ltpFR	6	1	n/a	INFANT	737	n/a	3	n/a	n/a	n/a	n/a	n/a	n/a
3946.61	n/a	RECOG_LURE	1973305	n/a	LTP280	ltpFR	6	1	n/a	LUNCH	849	0	3	n/a	n/a	n/a	n/a	n/a	n/a
3947.854	n/a	RECOG_RESP	1973927	n/a	LTP280	ltpFR	6	1	n/a	LUNCH	849	0	n/a	n/a	n/a	n/a	n/a	n/a	n/a
3948.664	n/a	RECOG_CONF	1974332	n/a	LTP280	ltpFR	6	1	n/a	LUNCH	849	n/a	3	n/a	n/a	n/a	n/a	n/a	n/a
3950.306	n/a	RECOG_TARGET	1975153	n/a	LTP280	ltpFR	6	1	0	SPOON	1357	1	4	0	n/a	n/a	n/a	n/a	n/a
3951.224	n/a	RECOG_RESP	1975612	n/a	LTP280	ltpFR	6	1	0	SPOON	1357	1	n/a	0	n/a	n/a	n/a	n/a	n/a
3951.944	n/a	RECOG_CONF	1975972	n/a	LTP280	ltpFR	6	1	0	SPOON	1357	n/a	4	0	n/a	n/a	n/a	n/a	n/a
3953.6	n/a	RECOG_LURE	1976800	n/a	LTP280	ltpFR	6	1	n/a	HEEL	700	0	4	n/a	n/a	n/a	n/a	n/a	n/a
3954.9	n/a	RECOG_RESP	1977450	n/a	LTP280	ltpFR	6	1	n/a	HEEL	700	0	n/a	n/a	n/a	n/a	n/a	n/a	n/a
3955.686	n/a	RECOG_CONF	1977843	n/a	LTP280	ltpFR	6	1	n/a	HEEL	700	n/a	4	n/a	n/a	n/a	n/a	n/a	n/a
3957.432	n/a	RECOG_LURE	1978716	n/a	LTP280	ltpFR	6	1	n/a	BRIDE	173	0	2	n/a	n/a	n/a	n/a	n/a	n/a
3958.44	n/a	RECOG_RESP	1979220	n/a	LTP280	ltpFR	6	1	n/a	BRIDE	173	0	n/a	n/a	n/a	n/a	n/a	n/a	n/a
3959.216	n/a	RECOG_CONF	1979608	n/a	LTP280	ltpFR	6	1	n/a	BRIDE	173	n/a	2	n/a	n/a	n/a	n/a	n/a	n/a
3960.93	n/a	RECOG_LURE	1980465	n/a	LTP280	ltpFR	6	1	n/a	FLASK	576	0	3	n/a	n/a	n/a	n/a	n/a	n/a
3962.006	n/a	RECOG_RESP	1981003	n/a	LTP280	ltpFR	6	1	n/a	FLASK	576	0	n/a	n/a	n/a	n/a	n/a	n/a	n/a
3962.646	n/a	RECOG_CONF	1981323	n/a	LTP280	ltpFR	6	1	n/a	FLASK	576	n/a	3	n/a	n/a	n/a	n/a	n/a	n/a
3964.494	n/a	RECOG_LURE	1982247	n/a	LTP280	ltpFR	6	1	n/a	DIARY	460	0	3	n/a	n/a	n/a	n/a	n/a	n/a
3966.096	n/a	RECOG_RESP	1983048	n/a	LTP280	ltpFR	6	1	n/a	DIARY	460	0	n/a	n/a	n/a	n/a	n/a	n/a	n/a
3966.766	n/a	RECOG_CONF	1983383	n/a	LTP280	ltpFR	6	1	n/a	DIARY	460	n/a	3	n/a	n/a	n/a	n/a	n/a	n/a
3968.492	n/a	RECOG_LURE	1984246	n/a	LTP280	ltpFR	6	1	n/a	POLICE	1098	0	3	n/a	n/a	n/a	n/a	n/a	n/a
3969.58	n/a	RECOG_RESP	1984790	n/a	LTP280	ltpFR	6	1	n/a	POLICE	1098	0	n/a	n/a	n/a	n/a	n/a	n/a	n/a
3970.226	n/a	RECOG_CONF	1985113	n/a	LTP280	ltpFR	6	1	n/a	POLICE	1098	n/a	3	n/a	n/a	n/a	n/a	n/a	n/a
3971.888	n/a	RECOG_LURE	1985944	n/a	LTP280	ltpFR	6	1	n/a	STY	1397	0	5	n/a	n/a	n/a	n/a	n/a	n/a
3973.33	n/a	RECOG_RESP	1986665	n/a	LTP280	ltpFR	6	1	n/a	STY	1397	0	n/a	n/a	n/a	n/a	n/a	n/a	n/a
3973.946	n/a	RECOG_CONF	1986973	n/a	LTP280	ltpFR	6	1	n/a	STY	1397	n/a	5	n/a	n/a	n/a	n/a	n/a	n/a
3975.704	n/a	RECOG_LURE	1987852	n/a	LTP280	ltpFR	6	1	n/a	SKATE	1313	0	4	n/a	n/a	n/a	n/a	n/a	n/a
3976.802	n/a	RECOG_RESP	1988401	n/a	LTP280	ltpFR	6	1	n/a	SKATE	1313	0	n/a	n/a	n/a	n/a	n/a	n/a	n/a
3977.536	n/a	RECOG_CONF	1988768	n/a	LTP280	ltpFR	6	1	n/a	SKATE	1313	n/a	4	n/a	n/a	n/a	n/a	n/a	n/a
3979.1	n/a	RECOG_LURE	1989550	n/a	LTP280	ltpFR	6	1	n/a	SIDEWALK	1303	0	1	n/a	n/a	n/a	n/a	n/a	n/a
3980.572	n/a	RECOG_RESP	1990286	n/a	LTP280	ltpFR	6	1	n/a	SIDEWALK	1303	0	n/a	n/a	n/a	n/a	n/a	n/a	n/a
3981.418	n/a	RECOG_CONF	1990709	n/a	LTP280	ltpFR	6	1	n/a	SIDEWALK	1303	n/a	1	n/a	n/a	n/a	n/a	n/a	n/a
3983.198	n/a	RECOG_LURE	1991599	n/a	LTP280	ltpFR	6	1	n/a	POSSUM	1112	0	3	n/a	n/a	n/a	n/a	n/a	n/a
3984.302	n/a	RECOG_RESP	1992151	n/a	LTP280	ltpFR	6	1	n/a	POSSUM	1112	0	n/a	n/a	n/a	n/a	n/a	n/a	n/a
3984.966	n/a	RECOG_CONF	1992483	n/a	LTP280	ltpFR	6	1	n/a	POSSUM	1112	n/a	3	n/a	n/a	n/a	n/a	n/a	n/a
3986.594	n/a	RECOG_LURE	1993297	n/a	LTP280	ltpFR	6	1	n/a	GUM	672	0	4	n/a	n/a	n/a	n/a	n/a	n/a
3987.436	n/a	RECOG_RESP	1993718	n/a	LTP280	ltpFR	6	1	n/a	GUM	672	0	n/a	n/a	n/a	n/a	n/a	n/a	n/a
3988.046	n/a	RECOG_CONF	1994023	n/a	LTP280	ltpFR	6	1	n/a	GUM	672	n/a	4	n/a	n/a	n/a	n/a	n/a	n/a
3989.89	n/a	RECOG_TARGET	1994945	n/a	LTP280	ltpFR	6	1	1	PACKAGE	997	1	3	0	n/a	n/a	n/a	n/a	n/a
3991.106	n/a	RECOG_RESP	1995553	n/a	LTP280	ltpFR	6	1	1	PACKAGE	997	1	n/a	0	n/a	n/a	n/a	n/a	n/a
3991.836	n/a	RECOG_CONF	1995918	n/a	LTP280	ltpFR	6	1	1	PACKAGE	997	n/a	3	0	n/a	n/a	n/a	n/a	n/a
3993.622	n/a	RECOG_TARGET	1996811	n/a	LTP280	ltpFR	6	1	1	PAINTING	1005	1	4	0	n/a	n/a	n/a	n/a	n/a
3994.722	n/a	RECOG_RESP	1997361	n/a	LTP280	ltpFR	6	1	1	PAINTING	1005	1	n/a	0	n/a	n/a	n/a	n/a	n/a
3995.368	n/a	RECOG_CONF	1997684	n/a	LTP280	ltpFR	6	1	1	PAINTING	1005	n/a	4	0	n/a	n/a	n/a	n/a	n/a
3997.086	n/a	RECOG_LURE	1998543	n/a	LTP280	ltpFR	6	1	n/a	BATH	98	0	2	n/a	n/a	n/a	n/a	n/a	n/a
3998.388	n/a	RECOG_RESP	1999194	n/a	LTP280	ltpFR	6	1	n/a	BATH	98	0	n/a	n/a	n/a	n/a	n/a	n/a	n/a
3999.158	n/a	RECOG_CONF	1999579	n/a	LTP280	ltpFR	6	1	n/a	BATH	98	n/a	2	n/a	n/a	n/a	n/a	n/a	n/a
4003.65	n/a	REC_START	2001825	n/a	LTP280	ltpFR	6	2	n/a	n/a	n/a	n/a	n/a	n/a	n/a	n/a	n/a	n/a	n/a
4003.692	n/a	RECOG_TARGET	2001846	n/a	LTP280	ltpFR	6	2	0	BRANCH	168	1	5	0	n/a	n/a	n/a	n/a	n/a
4004.616	n/a	RECOG_RESP	2002308	n/a	LTP280	ltpFR	6	2	0	BRANCH	168	1	n/a	0	n/a	n/a	n/a	n/a	n/a
4005.19	n/a	RECOG_CONF	2002595	n/a	LTP280	ltpFR	6	2	0	BRANCH	168	n/a	5	0	n/a	n/a	n/a	n/a	n/a
4006.922	n/a	RECOG_TARGET	2003461	n/a	LTP280	ltpFR	6	2	0	CHECK	284	1	3	0	n/a	n/a	n/a	n/a	n/a
4008.04	n/a	RECOG_RESP	2004020	n/a	LTP280	ltpFR	6	2	0	CHECK	284	1	n/a	0	n/a	n/a	n/a	n/a	n/a
4008.77	n/a	RECOG_CONF	2004385	n/a	LTP280	ltpFR	6	2	0	CHECK	284	n/a	3	0	n/a	n/a	n/a	n/a	n/a
4010.486	n/a	RECOG_TARGET	2005243	n/a	LTP280	ltpFR	6	2	1	SAILOR	1223	1	4	0	n/a	n/a	n/a	n/a	n/a
4011.356	n/a	RECOG_RESP	2005678	n/a	LTP280	ltpFR	6	2	1	SAILOR	1223	1	n/a	0	n/a	n/a	n/a	n/a	n/a
4011.94	n/a	RECOG_CONF	2005970	n/a	LTP280	ltpFR	6	2	1	SAILOR	1223	n/a	4	0	n/a	n/a	n/a	n/a	n/a
4013.698	n/a	RECOG_LURE	2006849	n/a	LTP280	ltpFR	6	2	n/a	STORE	1387	0	2	n/a	n/a	n/a	n/a	n/a	n/a
4014.916	n/a	RECOG_RESP	2007458	n/a	LTP280	ltpFR	6	2	n/a	STORE	1387	0	n/a	n/a	n/a	n/a	n/a	n/a	n/a
4015.622	n/a	RECOG_CONF	2007811	n/a	LTP280	ltpFR	6	2	n/a	STORE	1387	n/a	2	n/a	n/a	n/a	n/a	n/a	n/a
4017.38	n/a	RECOG_TARGET	2008690	n/a	LTP280	ltpFR	6	2	-1	BEAN	105	0	3	-1	n/a	n/a	n/a	n/a	n/a
4018.576	n/a	RECOG_RESP	2009288	n/a	LTP280	ltpFR	6	2	-1	BEAN	105	0	n/a	-1	n/a	n/a	n/a	n/a	n/a
4019.282	n/a	RECOG_CONF	2009641	n/a	LTP280	ltpFR	6	2	-1	BEAN	105	n/a	3	-1	n/a	n/a	n/a	n/a	n/a
4021.01	n/a	RECOG_TARGET	2010505	n/a	LTP280	ltpFR	6	2	-1	TAVERN	1437	0	4	-1	n/a	n/a	n/a	n/a	n/a
4022.106	n/a	RECOG_RESP	2011053	n/a	LTP280	ltpFR	6	2	-1	TAVERN	1437	0	n/a	-1	n/a	n/a	n/a	n/a	n/a
4022.662	n/a	RECOG_CONF	2011331	n/a	LTP280	ltpFR	6	2	-1	TAVERN	1437	n/a	4	-1	n/a	n/a	n/a	n/a	n/a
4024.372	n/a	RECOG_LURE	2012186	n/a	LTP280	ltpFR	6	2	n/a	CLOUD	328	0	1	n/a	n/a	n/a	n/a	n/a	n/a
4027.222	n/a	RECOG_RESP	2013611	n/a	LTP280	ltpFR	6	2	n/a	CLOUD	328	0	n/a	n/a	n/a	n/a	n/a	n/a	n/a
4027.872	n/a	RECOG_CONF	2013936	n/a	LTP280	ltpFR	6	2	n/a	CLOUD	328	n/a	1	n/a	n/a	n/a	n/a	n/a	n/a
4029.526	n/a	RECOG_LURE	2014763	n/a	LTP280	ltpFR	6	2	n/a	PUBLISHER	1137	0	1	n/a	n/a	n/a	n/a	n/a	n/a
4031.738	n/a	RECOG_RESP	2015869	n/a	LTP280	ltpFR	6	2	n/a	PUBLISHER	1137	0	n/a	n/a	n/a	n/a	n/a	n/a	n/a
4032.502	n/a	RECOG_CONF	2016251	n/a	LTP280	ltpFR	6	2	n/a	PUBLISHER	1137	n/a	1	n/a	n/a	n/a	n/a	n/a	n/a
4034.144	n/a	RECOG_LURE	2017072	n/a	LTP280	ltpFR	6	2	n/a	FRAME	600	0	2	n/a	n/a	n/a	n/a	n/a	n/a
4035.812	n/a	RECOG_RESP	2017906	n/a	LTP280	ltpFR	6	2	n/a	FRAME	600	0	n/a	n/a	n/a	n/a	n/a	n/a	n/a
4036.502	n/a	RECOG_CONF	2018251	n/a	LTP280	ltpFR	6	2	n/a	FRAME	600	n/a	2	n/a	n/a	n/a	n/a	n/a	n/a
4038.058	n/a	RECOG_LURE	2019029	n/a	LTP280	ltpFR	6	2	n/a	BENCH	121	0	2	n/a	n/a	n/a	n/a	n/a	n/a
4039.162	n/a	RECOG_RESP	2019581	n/a	LTP280	ltpFR	6	2	n/a	BENCH	121	0	n/a	n/a	n/a	n/a	n/a	n/a	n/a
4039.812	n/a	RECOG_CONF	2019906	n/a	LTP280	ltpFR	6	2	n/a	BENCH	121	n/a	2	n/a	n/a	n/a	n/a	n/a	n/a
4041.488	n/a	RECOG_TARGET	2020744	n/a	LTP280	ltpFR	6	2	1	BANKER	84	1	4	1	n/a	n/a	n/a	n/a	n/a
4042.838	n/a	RECOG_RESP	2021419	n/a	LTP280	ltpFR	6	2	1	BANKER	84	1	n/a	1	n/a	n/a	n/a	n/a	n/a
4043.872	n/a	RECOG_CONF	2021936	n/a	LTP280	ltpFR	6	2	1	BANKER	84	n/a	4	1	n/a	n/a	n/a	n/a	n/a
4045.636	n/a	RECOG_LURE	2022818	n/a	LTP280	ltpFR	6	2	n/a	BUGGY	188	0	3	n/a	n/a	n/a	n/a	n/a	n/a
4047.192	n/a	RECOG_RESP	2023596	n/a	LTP280	ltpFR	6	2	n/a	BUGGY	188	0	n/a	n/a	n/a	n/a	n/a	n/a	n/a
4047.852	n/a	RECOG_CONF	2023926	n/a	LTP280	ltpFR	6	2	n/a	BUGGY	188	n/a	3	n/a	n/a	n/a	n/a	n/a	n/a
4049.468	n/a	RECOG_LURE	2024734	n/a	LTP280	ltpFR	6	2	n/a	PAN	1008	0	3	n/a	n/a	n/a	n/a	n/a	n/a
4051.114	n/a	RECOG_RESP	2025557	n/a	LTP280	ltpFR	6	2	n/a	PAN	1008	0	n/a	n/a	n/a	n/a	n/a	n/a	n/a
4051.744	n/a	RECOG_CONF	2025872	n/a	LTP280	ltpFR	6	2	n/a	PAN	1008	n/a	3	n/a	n/a	n/a	n/a	n/a	n/a
4053.3	n/a	RECOG_LURE	2026650	n/a	LTP280	ltpFR	6	2	n/a	CHURCH	307	0	3	n/a	n/a	n/a	n/a	n/a	n/a
4054.558	n/a	RECOG_RESP	2027279	n/a	LTP280	ltpFR	6	2	n/a	CHURCH	307	0	n/a	n/a	n/a	n/a	n/a	n/a	n/a
4055.184	n/a	RECOG_CONF	2027592	n/a	LTP280	ltpFR	6	2	n/a	CHURCH	307	n/a	3	n/a	n/a	n/a	n/a	n/a	n/a
4057.014	n/a	RECOG_TARGET	2028507	n/a	LTP280	ltpFR	6	2	1	FEAST	556	1	4	0	n/a	n/a	n/a	n/a	n/a
4057.768	n/a	RECOG_RESP	2028884	n/a	LTP280	ltpFR	6	2	1	FEAST	556	1	n/a	0	n/a	n/a	n/a	n/a	n/a
4058.404	n/a	RECOG_CONF	2029202	n/a	LTP280	ltpFR	6	2	1	FEAST	556	n/a	4	0	n/a	n/a	n/a	n/a	n/a
4060.126	n/a	RECOG_LURE	2030063	n/a	LTP280	ltpFR	6	2	n/a	GARBAGE	622	0	4	n/a	n/a	n/a	n/a	n/a	n/a
4061.018	n/a	RECOG_RESP	2030509	n/a	LTP280	ltpFR	6	2	n/a	GARBAGE	622	0	n/a	n/a	n/a	n/a	n/a	n/a	n/a
4061.714	n/a	RECOG_CONF	2030857	n/a	LTP280	ltpFR	6	2	n/a	GARBAGE	622	n/a	4	n/a	n/a	n/a	n/a	n/a	n/a
4063.372	n/a	RECOG_TARGET	2031686	n/a	LTP280	ltpFR	6	2	-1	GLACIER	638	0	2	-1	n/a	n/a	n/a	n/a	n/a
4064.768	n/a	RECOG_RESP	2032384	n/a	LTP280	ltpFR	6	2	-1	GLACIER	638	0	n/a	-1	n/a	n/a	n/a	n/a	n/a
4065.494	n/a	RECOG_CONF	2032747	n/a	LTP280	ltpFR	6	2	-1	GLACIER	638	n/a	2	-1	n/a	n/a	n/a	n/a	n/a
4067.22	n/a	RECOG_LURE	2033610	n/a	LTP280	ltpFR	6	2	n/a	WINDOW	1611	0	1	n/a	n/a	n/a	n/a	n/a	n/a
4068.72	n/a	RECOG_RESP	2034360	n/a	LTP280	ltpFR	6	2	n/a	WINDOW	1611	0	n/a	n/a	n/a	n/a	n/a	n/a	n/a
4069.604	n/a	RECOG_CONF	2034802	n/a	LTP280	ltpFR	6	2	n/a	WINDOW	1611	n/a	1	n/a	n/a	n/a	n/a	n/a	n/a
4071.27	n/a	RECOG_TARGET	2035635	n/a	LTP280	ltpFR	6	2	-1	HOUSE	725	1	1	-1	n/a	n/a	n/a	n/a	n/a
4073.314	n/a	RECOG_RESP	2036657	n/a	LTP280	ltpFR	6	2	-1	HOUSE	725	1	n/a	-1	n/a	n/a	n/a	n/a	n/a
4074.294	n/a	RECOG_CONF	2037147	n/a	LTP280	ltpFR	6	2	-1	HOUSE	725	n/a	1	-1	n/a	n/a	n/a	n/a	n/a
4076.054	n/a	RECOG_TARGET	2038027	n/a	LTP280	ltpFR	6	2	-1	LOG	841	1	3	-1	n/a	n/a	n/a	n/a	n/a
4077.374	n/a	RECOG_RESP	2038687	n/a	LTP280	ltpFR	6	2	-1	LOG	841	1	n/a	-1	n/a	n/a	n/a	n/a	n/a
4078.394	n/a	RECOG_CONF	2039197	n/a	LTP280	ltpFR	6	2	-1	LOG	841	n/a	3	-1	n/a	n/a	n/a	n/a	n/a
4082.164	n/a	REC_START	2041082	n/a	LTP280	ltpFR	6	3	n/a	n/a	n/a	n/a	n/a	n/a	n/a	n/a	n/a	n/a	n/a
4082.228	n/a	RECOG_TARGET	2041114	n/a	LTP280	ltpFR	6	3	0	ROCK	1201	1	4	0	n/a	n/a	n/a	n/a	n/a
4083.09	n/a	RECOG_RESP	2041545	n/a	LTP280	ltpFR	6	3	0	ROCK	1201	1	n/a	0	n/a	n/a	n/a	n/a	n/a
4083.694	n/a	RECOG_CONF	2041847	n/a	LTP280	ltpFR	6	3	0	ROCK	1201	n/a	4	0	n/a	n/a	n/a	n/a	n/a
4085.272	n/a	RECOG_TARGET	2042636	n/a	LTP280	ltpFR	6	3	1	OCEAN	970	1	4	0	n/a	n/a	n/a	n/a	n/a
4086.264	n/a	RECOG_RESP	2043132	n/a	LTP280	ltpFR	6	3	1	OCEAN	970	1	n/a	0	n/a	n/a	n/a	n/a	n/a
4086.864	n/a	RECOG_CONF	2043432	n/a	LTP280	ltpFR	6	3	1	OCEAN	970	n/a	4	0	n/a	n/a	n/a	n/a	n/a
4088.536	n/a	RECOG_LURE	2044268	n/a	LTP280	ltpFR	6	3	n/a	PAPER	1011	0	4	n/a	n/a	n/a	n/a	n/a	n/a
4089.45	n/a	RECOG_RESP	2044725	n/a	LTP280	ltpFR	6	3	n/a	PAPER	1011	0	n/a	n/a	n/a	n/a	n/a	n/a	n/a
4090.176	n/a	RECOG_CONF	2045088	n/a	LTP280	ltpFR	6	3	n/a	PAPER	1011	n/a	4	n/a	n/a	n/a	n/a	n/a	n/a
4091.864	n/a	RECOG_TARGET	2045932	n/a	LTP280	ltpFR	6	3	0	EWE	542	1	5	1	n/a	n/a	n/a	n/a	n/a
4092.7	n/a	RECOG_RESP	2046350	n/a	LTP280	ltpFR	6	3	0	EWE	542	1	n/a	1	n/a	n/a	n/a	n/a	n/a
4093.366	n/a	RECOG_CONF	2046683	n/a	LTP280	ltpFR	6	3	0	EWE	542	n/a	5	1	n/a	n/a	n/a	n/a	n/a
4094.992	n/a	RECOG_LURE	2047496	n/a	LTP280	ltpFR	6	3	n/a	SAUSAGE	1238	0	4	n/a	n/a	n/a	n/a	n/a	n/a
4095.87	n/a	RECOG_RESP	2047935	n/a	LTP280	ltpFR	6	3	n/a	SAUSAGE	1238	0	n/a	n/a	n/a	n/a	n/a	n/a	n/a
4096.486	n/a	RECOG_CONF	2048243	n/a	LTP280	ltpFR	6	3	n/a	SAUSAGE	1238	n/a	4	n/a	n/a	n/a	n/a	n/a	n/a
4098.206	n/a	RECOG_LURE	2049103	n/a	LTP280	ltpFR	6	3	n/a	GANGSTER	620	0	5	n/a	n/a	n/a	n/a	n/a	n/a
4099.35	n/a	RECOG_RESP	2049675	n/a	LTP280	ltpFR	6	3	n/a	GANGSTER	620	0	n/a	n/a	n/a	n/a	n/a	n/a	n/a
4099.976	n/a	RECOG_CONF	2049988	n/a	LTP280	ltpFR	6	3	n/a	GANGSTER	620	n/a	5	n/a	n/a	n/a	n/a	n/a	n/a
4101.568	n/a	RECOG_TARGET	2050784	n/a	LTP280	ltpFR	6	3	0	DOUGH	489	1	5	1	n/a	n/a	n/a	n/a	n/a
4102.43	n/a	RECOG_RESP	2051215	n/a	LTP280	ltpFR	6	3	0	DOUGH	489	1	n/a	1	n/a	n/a	n/a	n/a	n/a
4103.026	n/a	RECOG_CONF	2051513	n/a	LTP280	ltpFR	6	3	0	DOUGH	489	n/a	5	1	n/a	n/a	n/a	n/a	n/a
4104.762	n/a	RECOG_LURE	2052381	n/a	LTP280	ltpFR	6	3	n/a	SEASHORE	1263	0	2	n/a	n/a	n/a	n/a	n/a	n/a
4105.86	n/a	RECOG_RESP	2052930	n/a	LTP280	ltpFR	6	3	n/a	SEASHORE	1263	0	n/a	n/a	n/a	n/a	n/a	n/a	n/a
4107.096	n/a	RECOG_CONF	2053548	n/a	LTP280	ltpFR	6	3	n/a	SEASHORE	1263	n/a	2	n/a	n/a	n/a	n/a	n/a	n/a
4108.744	n/a	RECOG_TARGET	2054372	n/a	LTP280	ltpFR	6	3	-1	HANGER	687	0	3	-1	n/a	n/a	n/a	n/a	n/a
4110.132	n/a	RECOG_RESP	2055066	n/a	LTP280	ltpFR	6	3	-1	HANGER	687	0	n/a	-1	n/a	n/a	n/a	n/a	n/a
4110.906	n/a	RECOG_CONF	2055453	n/a	LTP280	ltpFR	6	3	-1	HANGER	687	n/a	3	-1	n/a	n/a	n/a	n/a	n/a
4112.424	n/a	RECOG_LURE	2056212	n/a	LTP280	ltpFR	6	3	n/a	FATHER	554	0	2	n/a	n/a	n/a	n/a	n/a	n/a
4114.252	n/a	RECOG_RESP	2057126	n/a	LTP280	ltpFR	6	3	n/a	FATHER	554	0	n/a	n/a	n/a	n/a	n/a	n/a	n/a
4114.986	n/a	RECOG_CONF	2057493	n/a	LTP280	ltpFR	6	3	n/a	FATHER	554	n/a	2	n/a	n/a	n/a	n/a	n/a	n/a
4116.542	n/a	RECOG_TARGET	2058271	n/a	LTP280	ltpFR	6	3	-1	WILDERNESS	1610	1	5	-1	n/a	n/a	n/a	n/a	n/a
4117.306	n/a	RECOG_RESP	2058653	n/a	LTP280	ltpFR	6	3	-1	WILDERNESS	1610	1	n/a	-1	n/a	n/a	n/a	n/a	n/a
4117.956	n/a	RECOG_CONF	2058978	n/a	LTP280	ltpFR	6	3	-1	WILDERNESS	1610	n/a	5	-1	n/a	n/a	n/a	n/a	n/a
4119.652	n/a	RECOG_LURE	2059826	n/a	LTP280	ltpFR	6	3	n/a	WIFE	1609	0	3	n/a	n/a	n/a	n/a	n/a	n/a
4120.806	n/a	RECOG_RESP	2060403	n/a	LTP280	ltpFR	6	3	n/a	WIFE	1609	0	n/a	n/a	n/a	n/a	n/a	n/a	n/a
4121.786	n/a	RECOG_CONF	2060893	n/a	LTP280	ltpFR	6	3	n/a	WIFE	1609	n/a	3	n/a	n/a	n/a	n/a	n/a	n/a
4123.368	n/a	RECOG_LURE	2061684	n/a	LTP280	ltpFR	6	3	n/a	EMPLOYEE	531	0	2	n/a	n/a	n/a	n/a	n/a	n/a
4125.908	n/a	RECOG_RESP	2062954	n/a	LTP280	ltpFR	6	3	n/a	EMPLOYEE	531	0	n/a	n/a	n/a	n/a	n/a	n/a	n/a
4126.628	n/a	RECOG_CONF	2063314	n/a	LTP280	ltpFR	6	3	n/a	EMPLOYEE	531	n/a	2	n/a	n/a	n/a	n/a	n/a	n/a
4128.354	n/a	RECOG_TARGET	2064177	n/a	LTP280	ltpFR	6	3	-1	CREVICE	405	1	5	-1	n/a	n/a	n/a	n/a	n/a
4129.128	n/a	RECOG_RESP	2064564	n/a	LTP280	ltpFR	6	3	-1	CREVICE	405	1	n/a	-1	n/a	n/a	n/a	n/a	n/a
4129.728	n/a	RECOG_CONF	2064864	n/a	LTP280	ltpFR	6	3	-1	CREVICE	405	n/a	5	-1	n/a	n/a	n/a	n/a	n/a
4131.266	n/a	RECOG_TARGET	2065633	n/a	LTP280	ltpFR	6	3	1	LODGE	839	1	4	0	n/a	n/a	n/a	n/a	n/a
4132.162	n/a	RECOG_RESP	2066081	n/a	LTP280	ltpFR	6	3	1	LODGE	839	1	n/a	0	n/a	n/a	n/a	n/a	n/a
4132.838	n/a	RECOG_CONF	2066419	n/a	LTP280	ltpFR	6	3	1	LODGE	839	n/a	4	0	n/a	n/a	n/a	n/a	n/a
4134.544	n/a	RECOG_TARGET	2067272	n/a	LTP280	ltpFR	6	3	-1	MOLECULE	905	1	4	-1	n/a	n/a	n/a	n/a	n/a
4135.388	n/a	RECOG_RESP	2067694	n/a	LTP280	ltpFR	6	3	-1	MOLECULE	905	1	n/a	-1	n/a	n/a	n/a	n/a	n/a
4135.968	n/a	RECOG_CONF	2067984	n/a	LTP280	ltpFR	6	3	-1	MOLECULE	905	n/a	4	-1	n/a	n/a	n/a	n/a	n/a
4137.522	n/a	RECOG_TARGET	2068761	n/a	LTP280	ltpFR	6	3	0	JUG	762	1	5	0	n/a	n/a	n/a	n/a	n/a
4138.492	n/a	RECOG_RESP	2069246	n/a	LTP280	ltpFR	6	3	0	JUG	762	1	n/a	0	n/a	n/a	n/a	n/a	n/a
4139.218	n/a	RECOG_CONF	2069609	n/a	LTP280	ltpFR	6	3	0	JUG	762	n/a	5	0	n/a	n/a	n/a	n/a	n/a
4140.868	n/a	RECOG_LURE	2070434	n/a	LTP280	ltpFR	6	3	n/a	EAR	513	0	3	n/a	n/a	n/a	n/a	n/a	n/a
4141.948	n/a	RECOG_RESP	2070974	n/a	LTP280	ltpFR	6	3	n/a	EAR	513	0	n/a	n/a	n/a	n/a	n/a	n/a	n/a
4142.558	n/a	RECOG_CONF	2071279	n/a	LTP280	ltpFR	6	3	n/a	EAR	513	n/a	3	n/a	n/a	n/a	n/a	n/a	n/a
4144.182	n/a	RECOG_TARGET	2072091	n/a	LTP280	ltpFR	6	3	1	RASPBERRY	1168	1	5	1	n/a	n/a	n/a	n/a	n/a
4144.948	n/a	RECOG_RESP	2072474	n/a	LTP280	ltpFR	6	3	1	RASPBERRY	1168	1	n/a	1	n/a	n/a	n/a	n/a	n/a
4145.638	n/a	RECOG_CONF	2072819	n/a	LTP280	ltpFR	6	3	1	RASPBERRY	1168	n/a	5	1	n/a	n/a	n/a	n/a	n/a
4147.226	n/a	RECOG_TARGET	2073613	n/a	LTP280	ltpFR	6	3	0	SEA	1259	1	3	1	n/a	n/a	n/a	n/a	n/a
4148.484	n/a	RECOG_RESP	2074242	n/a	LTP280	ltpFR	6	3	0	SEA	1259	1	n/a	1	n/a	n/a	n/a	n/a	n/a
4149.198	n/a	RECOG_CONF	2074599	n/a	LTP280	ltpFR	6	3	0	SEA	1259	n/a	3	1	n/a	n/a	n/a	n/a	n/a
4152.832	n/a	REC_START	2076416	n/a	LTP280	ltpFR	6	4	n/a	n/a	n/a	n/a	n/a	n/a	n/a	n/a	n/a	n/a	n/a
4152.88	n/a	RECOG_LURE	2076440	n/a	LTP280	ltpFR	6	4	n/a	PILL	1068	0	3	n/a	n/a	n/a	n/a	n/a	n/a
4153.966	n/a	RECOG_RESP	2076983	n/a	LTP280	ltpFR	6	4	n/a	PILL	1068	0	n/a	n/a	n/a	n/a	n/a	n/a	n/a
4154.612	n/a	RECOG_CONF	2077306	n/a	LTP280	ltpFR	6	4	n/a	PILL	1068	n/a	3	n/a	n/a	n/a	n/a	n/a	n/a
4156.16	n/a	RECOG_TARGET	2078080	n/a	LTP280	ltpFR	6	4	0	MUSHROOM	934	1	4	0	n/a	n/a	n/a	n/a	n/a
4157.876	n/a	RECOG_RESP	2078938	n/a	LTP280	ltpFR	6	4	0	MUSHROOM	934	1	n/a	0	n/a	n/a	n/a	n/a	n/a
4158.472	n/a	RECOG_CONF	2079236	n/a	LTP280	ltpFR	6	4	0	MUSHROOM	934	n/a	4	0	n/a	n/a	n/a	n/a	n/a
4160.142	n/a	RECOG_TARGET	2080071	n/a	LTP280	ltpFR	6	4	1	HAM	678	1	4	1	n/a	n/a	n/a	n/a	n/a
4160.892	n/a	RECOG_RESP	2080446	n/a	LTP280	ltpFR	6	4	1	HAM	678	1	n/a	1	n/a	n/a	n/a	n/a	n/a
4161.552	n/a	RECOG_CONF	2080776	n/a	LTP280	ltpFR	6	4	1	HAM	678	n/a	4	1	n/a	n/a	n/a	n/a	n/a
4163.104	n/a	RECOG_LURE	2081552	n/a	LTP280	ltpFR	6	4	n/a	OINTMENT	974	0	5	n/a	n/a	n/a	n/a	n/a	n/a
4164.172	n/a	RECOG_RESP	2082086	n/a	LTP280	ltpFR	6	4	n/a	OINTMENT	974	0	n/a	n/a	n/a	n/a	n/a	n/a	n/a
4164.822	n/a	RECOG_CONF	2082411	n/a	LTP280	ltpFR	6	4	n/a	OINTMENT	974	n/a	5	n/a	n/a	n/a	n/a	n/a	n/a
4166.4	n/a	RECOG_LURE	2083200	n/a	LTP280	ltpFR	6	4	n/a	POPCORN	1104	0	4	n/a	n/a	n/a	n/a	n/a	n/a
4167.428	n/a	RECOG_RESP	2083714	n/a	LTP280	ltpFR	6	4	n/a	POPCORN	1104	0	n/a	n/a	n/a	n/a	n/a	n/a	n/a
4168.162	n/a	RECOG_CONF	2084081	n/a	LTP280	ltpFR	6	4	n/a	POPCORN	1104	n/a	4	n/a	n/a	n/a	n/a	n/a	n/a
4169.726	n/a	RECOG_TARGET	2084863	n/a	LTP280	ltpFR	6	4	0	ANKLE	24	1	4	0	n/a	n/a	n/a	n/a	n/a
4170.498	n/a	RECOG_RESP	2085249	n/a	LTP280	ltpFR	6	4	0	ANKLE	24	1	n/a	0	n/a	n/a	n/a	n/a	n/a
4171.102	n/a	RECOG_CONF	2085551	n/a	LTP280	ltpFR	6	4	0	ANKLE	24	n/a	4	0	n/a	n/a	n/a	n/a	n/a
4172.756	n/a	RECOG_LURE	2086378	n/a	LTP280	ltpFR	6	4	n/a	BACK	65	0	3	n/a	n/a	n/a	n/a	n/a	n/a
4174.502	n/a	RECOG_RESP	2087251	n/a	LTP280	ltpFR	6	4	n/a	BACK	65	0	n/a	n/a	n/a	n/a	n/a	n/a	n/a
4175.292	n/a	RECOG_CONF	2087646	n/a	LTP280	ltpFR	6	4	n/a	BACK	65	n/a	3	n/a	n/a	n/a	n/a	n/a	n/a
4176.854	n/a	RECOG_TARGET	2088427	n/a	LTP280	ltpFR	6	4	0	QUEEN	1149	1	4	1	n/a	n/a	n/a	n/a	n/a
4177.632	n/a	RECOG_RESP	2088816	n/a	LTP280	ltpFR	6	4	0	QUEEN	1149	1	n/a	1	n/a	n/a	n/a	n/a	n/a
4178.212	n/a	RECOG_CONF	2089106	n/a	LTP280	ltpFR	6	4	0	QUEEN	1149	n/a	4	1	n/a	n/a	n/a	n/a	n/a
4179.798	n/a	RECOG_TARGET	2089899	n/a	LTP280	ltpFR	6	4	0	CASTLE	256	1	5	1	n/a	n/a	n/a	n/a	n/a
4180.618	n/a	RECOG_RESP	2090309	n/a	LTP280	ltpFR	6	4	0	CASTLE	256	1	n/a	1	n/a	n/a	n/a	n/a	n/a
4181.222	n/a	RECOG_CONF	2090611	n/a	LTP280	ltpFR	6	4	0	CASTLE	256	n/a	5	1	n/a	n/a	n/a	n/a	n/a
4182.878	n/a	RECOG_LURE	2091439	n/a	LTP280	ltpFR	6	4	n/a	DRAWING	494	0	2	n/a	n/a	n/a	n/a	n/a	n/a
4184.424	n/a	RECOG_RESP	2092212	n/a	LTP280	ltpFR	6	4	n/a	DRAWING	494	0	n/a	n/a	n/a	n/a	n/a	n/a	n/a
4185.094	n/a	RECOG_CONF	2092547	n/a	LTP280	ltpFR	6	4	n/a	DRAWING	494	n/a	2	n/a	n/a	n/a	n/a	n/a	n/a
4186.81	n/a	RECOG_LURE	2093405	n/a	LTP280	ltpFR	6	4	n/a	FROG	608	1	3	n/a	n/a	n/a	n/a	n/a	n/a
4188.134	n/a	RECOG_RESP	2094067	n/a	LTP280	ltpFR	6	4	n/a	FROG	608	1	n/a	n/a	n/a	n/a	n/a	n/a	n/a
4188.774	n/a	RECOG_CONF	2094387	n/a	LTP280	ltpFR	6	4	n/a	FROG	608	n/a	3	n/a	n/a	n/a	n/a	n/a	n/a
4190.24	n/a	RECOG_TARGET	2095120	n/a	LTP280	ltpFR	6	4	0	BEAVER	109	1	4	1	n/a	n/a	n/a	n/a	n/a
4191.118	n/a	RECOG_RESP	2095559	n/a	LTP280	ltpFR	6	4	0	BEAVER	109	1	n/a	1	n/a	n/a	n/a	n/a	n/a
4191.734	n/a	RECOG_CONF	2095867	n/a	LTP280	ltpFR	6	4	0	BEAVER	109	n/a	4	1	n/a	n/a	n/a	n/a	n/a
4193.352	n/a	RECOG_TARGET	2096676	n/a	LTP280	ltpFR	6	4	1	TORCH	1484	1	2	0	n/a	n/a	n/a	n/a	n/a
4194.354	n/a	RECOG_RESP	2097177	n/a	LTP280	ltpFR	6	4	1	TORCH	1484	1	n/a	0	n/a	n/a	n/a	n/a	n/a
4195.084	n/a	RECOG_CONF	2097542	n/a	LTP280	ltpFR	6	4	1	TORCH	1484	n/a	2	0	n/a	n/a	n/a	n/a	n/a
4196.78	n/a	RECOG_TARGET	2098390	n/a	LTP280	ltpFR	6	4	1	GRASSHOPPER	656	1	2	0	n/a	n/a	n/a	n/a	n/a
4198.878	n/a	RECOG_RESP	2099439	n/a	LTP280	ltpFR	6	4	1	GRASSHOPPER	656	1	n/a	0	n/a	n/a	n/a	n/a	n/a
4199.684	n/a	RECOG_CONF	2099842	n/a	LTP280	ltpFR	6	4	1	GRASSHOPPER	656	n/a	2	0	n/a	n/a	n/a	n/a	n/a
4201.298	n/a	RECOG_LURE	2100649	n/a	LTP280	ltpFR	6	4	n/a	PUPPY	1144	0	1	n/a	n/a	n/a	n/a	n/a	n/a
4203.24	n/a	RECOG_RESP	2101620	n/a	LTP280	ltpFR	6	4	n/a	PUPPY	1144	0	n/a	n/a	n/a	n/a	n/a	n/a	n/a
4204.124	n/a	RECOG_CONF	2102062	n/a	LTP280	ltpFR	6	4	n/a	PUPPY	1144	n/a	1	n/a	n/a	n/a	n/a	n/a	n/a
4205.63	n/a	RECOG_TARGET	2102815	n/a	LTP280	ltpFR	6	4	1	BALLOT	76	0	2	0	n/a	n/a	n/a	n/a	n/a
4207.13	n/a	RECOG_RESP	2103565	n/a	LTP280	ltpFR	6	4	1	BALLOT	76	0	n/a	0	n/a	n/a	n/a	n/a	n/a
4207.704	n/a	RECOG_CONF	2103852	n/a	LTP280	ltpFR	6	4	1	BALLOT	76	n/a	2	0	n/a	n/a	n/a	n/a	n/a
4209.414	n/a	RECOG_LURE	2104707	n/a	LTP280	ltpFR	6	4	n/a	TREAT	1501	0	1	n/a	n/a	n/a	n/a	n/a	n/a
4210.494	n/a	RECOG_RESP	2105247	n/a	LTP280	ltpFR	6	4	n/a	TREAT	1501	0	n/a	n/a	n/a	n/a	n/a	n/a	n/a
4211.192	n/a	RECOG_CONF	2105596	n/a	LTP280	ltpFR	6	4	n/a	TREAT	1501	n/a	1	n/a	n/a	n/a	n/a	n/a	n/a
4212.876	n/a	RECOG_TARGET	2106438	n/a	LTP280	ltpFR	6	4	1	TECHNICIAN	1443	1	3	1	n/a	n/a	n/a	n/a	n/a
4213.79	n/a	RECOG_RESP	2106895	n/a	LTP280	ltpFR	6	4	1	TECHNICIAN	1443	1	n/a	1	n/a	n/a	n/a	n/a	n/a
4214.374	n/a	RECOG_CONF	2107187	n/a	LTP280	ltpFR	6	4	1	TECHNICIAN	1443	n/a	3	1	n/a	n/a	n/a	n/a	n/a
4215.872	n/a	RECOG_TARGET	2107936	n/a	LTP280	ltpFR	6	4	0	SIRLOIN	1311	1	4	0	n/a	n/a	n/a	n/a	n/a
4216.73	n/a	RECOG_RESP	2108365	n/a	LTP280	ltpFR	6	4	0	SIRLOIN	1311	1	n/a	0	n/a	n/a	n/a	n/a	n/a
4217.324	n/a	RECOG_CONF	2108662	n/a	LTP280	ltpFR	6	4	0	SIRLOIN	1311	n/a	4	0	n/a	n/a	n/a	n/a	n/a
4218.932	n/a	RECOG_LURE	2109466	n/a	LTP280	ltpFR	6	4	n/a	REPORT	1184	0	2	n/a	n/a	n/a	n/a	n/a	n/a
4220.046	n/a	RECOG_RESP	2110023	n/a	LTP280	ltpFR	6	4	n/a	REPORT	1184	0	n/a	n/a	n/a	n/a	n/a	n/a	n/a
4220.696	n/a	RECOG_CONF	2110348	n/a	LTP280	ltpFR	6	4	n/a	REPORT	1184	n/a	2	n/a	n/a	n/a	n/a	n/a	n/a
4224.572	n/a	REC_START	2112286	n/a	LTP280	ltpFR	6	5	n/a	n/a	n/a	n/a	n/a	n/a	n/a	n/a	n/a	n/a	n/a
4224.622	n/a	RECOG_LURE	2112311	n/a	LTP280	ltpFR	6	5	n/a	INTESTINE	742	0	3	n/a	n/a	n/a	n/a	n/a	n/a
4225.578	n/a	RECOG_RESP	2112789	n/a	LTP280	ltpFR	6	5	n/a	INTESTINE	742	0	n/a	n/a	n/a	n/a	n/a	n/a	n/a
4226.222	n/a	RECOG_CONF	2113111	n/a	LTP280	ltpFR	6	5	n/a	INTESTINE	742	n/a	3	n/a	n/a	n/a	n/a	n/a	n/a
4227.848	n/a	RECOG_LURE	2113924	n/a	LTP280	ltpFR	6	5	n/a	LUMBER	848	0	3	n/a	n/a	n/a	n/a	n/a	n/a
4229.362	n/a	RECOG_RESP	2114681	n/a	LTP280	ltpFR	6	5	n/a	LUMBER	848	0	n/a	n/a	n/a	n/a	n/a	n/a	n/a
4229.962	n/a	RECOG_CONF	2114981	n/a	LTP280	ltpFR	6	5	n/a	LUMBER	848	n/a	3	n/a	n/a	n/a	n/a	n/a	n/a
4231.546	n/a	RECOG_LURE	2115773	n/a	LTP280	ltpFR	6	5	n/a	SKI	1316	0	4	n/a	n/a	n/a	n/a	n/a	n/a
4232.492	n/a	RECOG_RESP	2116246	n/a	LTP280	ltpFR	6	5	n/a	SKI	1316	0	n/a	n/a	n/a	n/a	n/a	n/a	n/a
4233.082	n/a	RECOG_CONF	2116541	n/a	LTP280	ltpFR	6	5	n/a	SKI	1316	n/a	4	n/a	n/a	n/a	n/a	n/a	n/a
4234.792	n/a	RECOG_LURE	2117396	n/a	LTP280	ltpFR	6	5	n/a	BUNNY	198	0	4	n/a	n/a	n/a	n/a	n/a	n/a
4235.848	n/a	RECOG_RESP	2117924	n/a	LTP280	ltpFR	6	5	n/a	BUNNY	198	0	n/a	n/a	n/a	n/a	n/a	n/a	n/a
4236.382	n/a	RECOG_CONF	2118191	n/a	LTP280	ltpFR	6	5	n/a	BUNNY	198	n/a	4	n/a	n/a	n/a	n/a	n/a	n/a
4238.106	n/a	RECOG_TARGET	2119053	n/a	LTP280	ltpFR	6	5	1	PAINTER	1004	1	2	1	n/a	n/a	n/a	n/a	n/a
4239.428	n/a	RECOG_RESP	2119714	n/a	LTP280	ltpFR	6	5	1	PAINTER	1004	1	n/a	1	n/a	n/a	n/a	n/a	n/a
4240.084	n/a	RECOG_CONF	2120042	n/a	LTP280	ltpFR	6	5	1	PAINTER	1004	n/a	2	1	n/a	n/a	n/a	n/a	n/a
4241.668	n/a	RECOG_TARGET	2120834	n/a	LTP280	ltpFR	6	5	0	LOOP	844	1	4	0	n/a	n/a	n/a	n/a	n/a
4242.564	n/a	RECOG_RESP	2121282	n/a	LTP280	ltpFR	6	5	0	LOOP	844	1	n/a	0	n/a	n/a	n/a	n/a	n/a
4243.154	n/a	RECOG_CONF	2121577	n/a	LTP280	ltpFR	6	5	0	LOOP	844	n/a	4	0	n/a	n/a	n/a	n/a	n/a
4244.798	n/a	RECOG_LURE	2122399	n/a	LTP280	ltpFR	6	5	n/a	KNUCKLE	789	0	3	n/a	n/a	n/a	n/a	n/a	n/a
4246.024	n/a	RECOG_RESP	2123012	n/a	LTP280	ltpFR	6	5	n/a	KNUCKLE	789	0	n/a	n/a	n/a	n/a	n/a	n/a	n/a
4246.704	n/a	RECOG_CONF	2123352	n/a	LTP280	ltpFR	6	5	n/a	KNUCKLE	789	n/a	3	n/a	n/a	n/a	n/a	n/a	n/a
4248.462	n/a	RECOG_TARGET	2124231	n/a	LTP280	ltpFR	6	5	0	THORN	1459	1	5	0	n/a	n/a	n/a	n/a	n/a
4249.268	n/a	RECOG_RESP	2124634	n/a	LTP280	ltpFR	6	5	0	THORN	1459	1	n/a	0	n/a	n/a	n/a	n/a	n/a
4249.804	n/a	RECOG_CONF	2124902	n/a	LTP280	ltpFR	6	5	0	THORN	1459	n/a	5	0	n/a	n/a	n/a	n/a	n/a
4251.408	n/a	RECOG_TARGET	2125704	n/a	LTP280	ltpFR	6	5	0	LINT	826	1	4	0	n/a	n/a	n/a	n/a	n/a
4252.678	n/a	RECOG_RESP	2126339	n/a	LTP280	ltpFR	6	5	0	LINT	826	1	n/a	0	n/a	n/a	n/a	n/a	n/a
4253.264	n/a	RECOG_CONF	2126632	n/a	LTP280	ltpFR	6	5	0	LINT	826	n/a	4	0	n/a	n/a	n/a	n/a	n/a
4254.82	n/a	RECOG_TARGET	2127410	n/a	LTP280	ltpFR	6	5	1	VINEGAR	1569	1	3	0	n/a	n/a	n/a	n/a	n/a
4255.678	n/a	RECOG_RESP	2127839	n/a	LTP280	ltpFR	6	5	1	VINEGAR	1569	1	n/a	0	n/a	n/a	n/a	n/a	n/a
4256.254	n/a	RECOG_CONF	2128127	n/a	LTP280	ltpFR	6	5	1	VINEGAR	1569	n/a	3	0	n/a	n/a	n/a	n/a	n/a
4257.764	n/a	RECOG_LURE	2128882	n/a	LTP280	ltpFR	6	5	n/a	CANDLE	229	0	4	n/a	n/a	n/a	n/a	n/a	n/a
4258.8	n/a	RECOG_RESP	2129400	n/a	LTP280	ltpFR	6	5	n/a	CANDLE	229	0	n/a	n/a	n/a	n/a	n/a	n/a	n/a
4259.404	n/a	RECOG_CONF	2129702	n/a	LTP280	ltpFR	6	5	n/a	CANDLE	229	n/a	4	n/a	n/a	n/a	n/a	n/a	n/a
4261.028	n/a	RECOG_LURE	2130514	n/a	LTP280	ltpFR	6	5	n/a	VAGRANT	1544	0	5	n/a	n/a	n/a	n/a	n/a	n/a
4262.144	n/a	RECOG_RESP	2131072	n/a	LTP280	ltpFR	6	5	n/a	VAGRANT	1544	0	n/a	n/a	n/a	n/a	n/a	n/a	n/a
4262.814	n/a	RECOG_CONF	2131407	n/a	LTP280	ltpFR	6	5	n/a	VAGRANT	1544	n/a	5	n/a	n/a	n/a	n/a	n/a	n/a
4264.574	n/a	RECOG_LURE	2132287	n/a	LTP280	ltpFR	6	5	n/a	RODENT	1204	0	4	n/a	n/a	n/a	n/a	n/a	n/a
4265.68	n/a	RECOG_RESP	2132840	n/a	LTP280	ltpFR	6	5	n/a	RODENT	1204	0	n/a	n/a	n/a	n/a	n/a	n/a	n/a
4266.244	n/a	RECOG_CONF	2133122	n/a	LTP280	ltpFR	6	5	n/a	RODENT	1204	n/a	4	n/a	n/a	n/a	n/a	n/a	n/a
4267.97	n/a	RECOG_TARGET	2133985	n/a	LTP280	ltpFR	6	5	1	PUDDING	1139	1	5	0	n/a	n/a	n/a	n/a	n/a
4268.79	n/a	RECOG_RESP	2134395	n/a	LTP280	ltpFR	6	5	1	PUDDING	1139	1	n/a	0	n/a	n/a	n/a	n/a	n/a
4269.454	n/a	RECOG_CONF	2134727	n/a	LTP280	ltpFR	6	5	1	PUDDING	1139	n/a	5	0	n/a	n/a	n/a	n/a	n/a
4271.232	n/a	RECOG_LURE	2135616	n/a	LTP280	ltpFR	6	5	n/a	BUG	187	0	2	n/a	n/a	n/a	n/a	n/a	n/a
4273.14	n/a	RECOG_RESP	2136570	n/a	LTP280	ltpFR	6	5	n/a	BUG	187	0	n/a	n/a	n/a	n/a	n/a	n/a	n/a
4273.804	n/a	RECOG_CONF	2136902	n/a	LTP280	ltpFR	6	5	n/a	BUG	187	n/a	2	n/a	n/a	n/a	n/a	n/a	n/a
4275.38	n/a	RECOG_TARGET	2137690	n/a	LTP280	ltpFR	6	5	0	SYRUP	1425	1	2	0	n/a	n/a	n/a	n/a	n/a
4276.566	n/a	RECOG_RESP	2138283	n/a	LTP280	ltpFR	6	5	0	SYRUP	1425	1	n/a	0	n/a	n/a	n/a	n/a	n/a
4277.186	n/a	RECOG_CONF	2138593	n/a	LTP280	ltpFR	6	5	0	SYRUP	1425	n/a	2	0	n/a	n/a	n/a	n/a	n/a
4278.744	n/a	RECOG_TARGET	2139372	n/a	LTP280	ltpFR	6	5	1	TIMBER	1469	1	4	1	n/a	n/a	n/a	n/a	n/a
4279.706	n/a	RECOG_RESP	2139853	n/a	LTP280	ltpFR	6	5	1	TIMBER	1469	1	n/a	1	n/a	n/a	n/a	n/a	n/a
4280.296	n/a	RECOG_CONF	2140148	n/a	LTP280	ltpFR	6	5	1	TIMBER	1469	n/a	4	1	n/a	n/a	n/a	n/a	n/a
4281.874	n/a	RECOG_TARGET	2140937	n/a	LTP280	ltpFR	6	5	1	SALAD	1224	1	3	0	n/a	n/a	n/a	n/a	n/a
4283.236	n/a	RECOG_RESP	2141618	n/a	LTP280	ltpFR	6	5	1	SALAD	1224	1	n/a	0	n/a	n/a	n/a	n/a	n/a
4283.806	n/a	RECOG_CONF	2141903	n/a	LTP280	ltpFR	6	5	1	SALAD	1224	n/a	3	0	n/a	n/a	n/a	n/a	n/a
4285.438	n/a	RECOG_LURE	2142719	n/a	LTP280	ltpFR	6	5	n/a	CAPTIVE	240	0	2	n/a	n/a	n/a	n/a	n/a	n/a
4286.87	n/a	RECOG_RESP	2143435	n/a	LTP280	ltpFR	6	5	n/a	CAPTIVE	240	0	n/a	n/a	n/a	n/a	n/a	n/a	n/a
4287.526	n/a	RECOG_CONF	2143763	n/a	LTP280	ltpFR	6	5	n/a	CAPTIVE	240	n/a	2	n/a	n/a	n/a	n/a	n/a	n/a
4289.234	n/a	RECOG_TARGET	2144617	n/a	LTP280	ltpFR	6	5	0	CRACKER	398	1	3	0	n/a	n/a	n/a	n/a	n/a
4290.036	n/a	RECOG_RESP	2145018	n/a	LTP280	ltpFR	6	5	0	CRACKER	398	1	n/a	0	n/a	n/a	n/a	n/a	n/a
4290.746	n/a	RECOG_CONF	2145373	n/a	LTP280	ltpFR	6	5	0	CRACKER	398	n/a	3	0	n/a	n/a	n/a	n/a	n/a
4294.5	n/a	REC_START	2147250	n/a	LTP280	ltpFR	6	6	n/a	n/a	n/a	n/a	n/a	n/a	n/a	n/a	n/a	n/a	n/a
4294.556	n/a	RECOG_LURE	2147278	n/a	LTP280	ltpFR	6	6	n/a	BUGLE	189	0	3	n/a	n/a	n/a	n/a	n/a	n/a
4295.674	n/a	RECOG_RESP	2147837	n/a	LTP280	ltpFR	6	6	n/a	BUGLE	189	0	n/a	n/a	n/a	n/a	n/a	n/a	n/a
4296.53	n/a	RECOG_CONF	2148265	n/a	LTP280	ltpFR	6	6	n/a	BUGLE	189	n/a	3	n/a	n/a	n/a	n/a	n/a	n/a
4298.152	n/a	RECOG_LURE	2149076	n/a	LTP280	ltpFR	6	6	n/a	FAIRY	549	0	3	n/a	n/a	n/a	n/a	n/a	n/a
4299.22	n/a	RECOG_RESP	2149610	n/a	LTP280	ltpFR	6	6	n/a	FAIRY	549	0	n/a	n/a	n/a	n/a	n/a	n/a	n/a
4299.82	n/a	RECOG_CONF	2149910	n/a	LTP280	ltpFR	6	6	n/a	FAIRY	549	n/a	3	n/a	n/a	n/a	n/a	n/a	n/a
4301.282	n/a	RECOG_LURE	2150641	n/a	LTP280	ltpFR	6	6	n/a	DRAGON	492	0	5	n/a	n/a	n/a	n/a	n/a	n/a
4302.51	n/a	RECOG_RESP	2151255	n/a	LTP280	ltpFR	6	6	n/a	DRAGON	492	0	n/a	n/a	n/a	n/a	n/a	n/a	n/a
4303.2	n/a	RECOG_CONF	2151600	n/a	LTP280	ltpFR	6	6	n/a	DRAGON	492	n/a	5	n/a	n/a	n/a	n/a	n/a	n/a
4304.844	n/a	RECOG_TARGET	2152422	n/a	LTP280	ltpFR	6	6	0	EAGLE	512	0	4	1	n/a	n/a	n/a	n/a	n/a
4305.854	n/a	RECOG_RESP	2152927	n/a	LTP280	ltpFR	6	6	0	EAGLE	512	0	n/a	1	n/a	n/a	n/a	n/a	n/a
4306.39	n/a	RECOG_CONF	2153195	n/a	LTP280	ltpFR	6	6	0	EAGLE	512	n/a	4	1	n/a	n/a	n/a	n/a	n/a
4307.974	n/a	RECOG_LURE	2153987	n/a	LTP280	ltpFR	6	6	n/a	INSTRUCTOR	741	0	1	n/a	n/a	n/a	n/a	n/a	n/a
4309.984	n/a	RECOG_RESP	2154992	n/a	LTP280	ltpFR	6	6	n/a	INSTRUCTOR	741	0	n/a	n/a	n/a	n/a	n/a	n/a	n/a
4310.64	n/a	RECOG_CONF	2155320	n/a	LTP280	ltpFR	6	6	n/a	INSTRUCTOR	741	n/a	1	n/a	n/a	n/a	n/a	n/a	n/a
4312.29	n/a	RECOG_LURE	2156145	n/a	LTP280	ltpFR	6	6	n/a	RASH	1167	0	2	n/a	n/a	n/a	n/a	n/a	n/a
4313.746	n/a	RECOG_RESP	2156873	n/a	LTP280	ltpFR	6	6	n/a	RASH	1167	0	n/a	n/a	n/a	n/a	n/a	n/a	n/a
4314.35	n/a	RECOG_CONF	2157175	n/a	LTP280	ltpFR	6	6	n/a	RASH	1167	n/a	2	n/a	n/a	n/a	n/a	n/a	n/a
4315.852	n/a	RECOG_LURE	2157926	n/a	LTP280	ltpFR	6	6	n/a	HOME	712	0	3	n/a	n/a	n/a	n/a	n/a	n/a
4317.25	n/a	RECOG_RESP	2158625	n/a	LTP280	ltpFR	6	6	n/a	HOME	712	0	n/a	n/a	n/a	n/a	n/a	n/a	n/a
4317.762	n/a	RECOG_CONF	2158881	n/a	LTP280	ltpFR	6	6	n/a	HOME	712	n/a	3	n/a	n/a	n/a	n/a	n/a	n/a
4319.368	n/a	RECOG_TARGET	2159684	n/a	LTP280	ltpFR	6	6	-1	SNACK	1331	0	1	-1	n/a	n/a	n/a	n/a	n/a
4321.07	n/a	RECOG_RESP	2160535	n/a	LTP280	ltpFR	6	6	-1	SNACK	1331	0	n/a	-1	n/a	n/a	n/a	n/a	n/a
4321.74	n/a	RECOG_CONF	2160870	n/a	LTP280	ltpFR	6	6	-1	SNACK	1331	n/a	1	-1	n/a	n/a	n/a	n/a	n/a
4323.282	n/a	RECOG_LURE	2161641	n/a	LTP280	ltpFR	6	6	n/a	BUBBLE	183	0	2	n/a	n/a	n/a	n/a	n/a	n/a
4324.546	n/a	RECOG_RESP	2162273	n/a	LTP280	ltpFR	6	6	n/a	BUBBLE	183	0	n/a	n/a	n/a	n/a	n/a	n/a	n/a
4325.1	n/a	RECOG_CONF	2162550	n/a	LTP280	ltpFR	6	6	n/a	BUBBLE	183	n/a	2	n/a	n/a	n/a	n/a	n/a	n/a
4326.81	n/a	RECOG_LURE	2163405	n/a	LTP280	ltpFR	6	6	n/a	SHOVEL	1295	0	3	n/a	n/a	n/a	n/a	n/a	n/a
4328.05	n/a	RECOG_RESP	2164025	n/a	LTP280	ltpFR	6	6	n/a	SHOVEL	1295	0	n/a	n/a	n/a	n/a	n/a	n/a	n/a
4328.75	n/a	RECOG_CONF	2164375	n/a	LTP280	ltpFR	6	6	n/a	SHOVEL	1295	n/a	3	n/a	n/a	n/a	n/a	n/a	n/a
4330.408	n/a	RECOG_LURE	2165204	n/a	LTP280	ltpFR	6	6	n/a	DANDRUFF	439	0	4	n/a	n/a	n/a	n/a	n/a	n/a
4331.44	n/a	RECOG_RESP	2165720	n/a	LTP280	ltpFR	6	6	n/a	DANDRUFF	439	0	n/a	n/a	n/a	n/a	n/a	n/a	n/a
4332.022	n/a	RECOG_CONF	2166011	n/a	LTP280	ltpFR	6	6	n/a	DANDRUFF	439	n/a	4	n/a	n/a	n/a	n/a	n/a	n/a
4333.704	n/a	RECOG_LURE	2166852	n/a	LTP280	ltpFR	6	6	n/a	TERMINAL	1450	0	4	n/a	n/a	n/a	n/a	n/a	n/a
4334.592	n/a	RECOG_RESP	2167296	n/a	LTP280	ltpFR	6	6	n/a	TERMINAL	1450	0	n/a	n/a	n/a	n/a	n/a	n/a	n/a
4335.092	n/a	RECOG_CONF	2167546	n/a	LTP280	ltpFR	6	6	n/a	TERMINAL	1450	n/a	4	n/a	n/a	n/a	n/a	n/a	n/a
4336.75	n/a	RECOG_TARGET	2168375	n/a	LTP280	ltpFR	6	6	0	TICK	1463	1	5	0	n/a	n/a	n/a	n/a	n/a
4337.872	n/a	RECOG_RESP	2168936	n/a	LTP280	ltpFR	6	6	0	TICK	1463	1	n/a	0	n/a	n/a	n/a	n/a	n/a
4338.432	n/a	RECOG_CONF	2169216	n/a	LTP280	ltpFR	6	6	0	TICK	1463	n/a	5	0	n/a	n/a	n/a	n/a	n/a
4340.114	n/a	RECOG_TARGET	2170057	n/a	LTP280	ltpFR	6	6	1	KANGAROO	768	1	5	1	n/a	n/a	n/a	n/a	n/a
4340.836	n/a	RECOG_RESP	2170418	n/a	LTP280	ltpFR	6	6	1	KANGAROO	768	1	n/a	1	n/a	n/a	n/a	n/a	n/a
4341.342	n/a	RECOG_CONF	2170671	n/a	LTP280	ltpFR	6	6	1	KANGAROO	768	n/a	5	1	n/a	n/a	n/a	n/a	n/a
4342.94	n/a	RECOG_LURE	2171470	n/a	LTP280	ltpFR	6	6	n/a	PROTRACTOR	1133	0	3	n/a	n/a	n/a	n/a	n/a	n/a
4344.056	n/a	RECOG_RESP	2172028	n/a	LTP280	ltpFR	6	6	n/a	PROTRACTOR	1133	0	n/a	n/a	n/a	n/a	n/a	n/a	n/a
4344.732	n/a	RECOG_CONF	2172366	n/a	LTP280	ltpFR	6	6	n/a	PROTRACTOR	1133	n/a	3	n/a	n/a	n/a	n/a	n/a	n/a
4346.32	n/a	RECOG_LURE	2173160	n/a	LTP280	ltpFR	6	6	n/a	HOOP	716	0	4	n/a	n/a	n/a	n/a	n/a	n/a
4348.062	n/a	RECOG_RESP	2174031	n/a	LTP280	ltpFR	6	6	n/a	HOOP	716	0	n/a	n/a	n/a	n/a	n/a	n/a	n/a
4348.622	n/a	RECOG_CONF	2174311	n/a	LTP280	ltpFR	6	6	n/a	HOOP	716	n/a	4	n/a	n/a	n/a	n/a	n/a	n/a
4350.302	n/a	RECOG_LURE	2175151	n/a	LTP280	ltpFR	6	6	n/a	ACROBAT	4	0	2	n/a	n/a	n/a	n/a	n/a	n/a
4351.758	n/a	RECOG_RESP	2175879	n/a	LTP280	ltpFR	6	6	n/a	ACROBAT	4	0	n/a	n/a	n/a	n/a	n/a	n/a	n/a
4352.332	n/a	RECOG_CONF	2176166	n/a	LTP280	ltpFR	6	6	n/a	ACROBAT	4	n/a	2	n/a	n/a	n/a	n/a	n/a	n/a
4353.984	n/a	RECOG_LURE	2176992	n/a	LTP280	ltpFR	6	6	n/a	PARSLEY	1016	0	3	n/a	n/a	n/a	n/a	n/a	n/a
4355.248	n/a	RECOG_RESP	2177624	n/a	LTP280	ltpFR	6	6	n/a	PARSLEY	1016	0	n/a	n/a	n/a	n/a	n/a	n/a	n/a
4355.862	n/a	RECOG_CONF	2177931	n/a	LTP280	ltpFR	6	6	n/a	PARSLEY	1016	n/a	3	n/a	n/a	n/a	n/a	n/a	n/a
4357.412	n/a	RECOG_LURE	2178706	n/a	LTP280	ltpFR	6	6	n/a	DISHWASHER	475	0	4	n/a	n/a	n/a	n/a	n/a	n/a
4359.132	n/a	RECOG_RESP	2179566	n/a	LTP280	ltpFR	6	6	n/a	DISHWASHER	475	0	n/a	n/a	n/a	n/a	n/a	n/a	n/a
4359.692	n/a	RECOG_CONF	2179846	n/a	LTP280	ltpFR	6	6	n/a	DISHWASHER	475	n/a	4	n/a	n/a	n/a	n/a	n/a	n/a
4361.294	n/a	RECOG_TARGET	2180647	n/a	LTP280	ltpFR	6	6	0	PRIEST	1122	1	4	1	n/a	n/a	n/a	n/a	n/a
4362.572	n/a	RECOG_RESP	2181286	n/a	LTP280	ltpFR	6	6	0	PRIEST	1122	1	n/a	1	n/a	n/a	n/a	n/a	n/a
4363.162	n/a	RECOG_CONF	2181581	n/a	LTP280	ltpFR	6	6	0	PRIEST	1122	n/a	4	1	n/a	n/a	n/a	n/a	n/a
4367.504	n/a	REC_START	2183752	n/a	LTP280	ltpFR	6	7	n/a	n/a	n/a	n/a	n/a	n/a	n/a	n/a	n/a	n/a	n/a
4367.55	n/a	RECOG_TARGET	2183775	n/a	LTP280	ltpFR	6	7	-1	BEVERAGE	123	0	3	-1	n/a	n/a	n/a	n/a	n/a
4368.618	n/a	RECOG_RESP	2184309	n/a	LTP280	ltpFR	6	7	-1	BEVERAGE	123	0	n/a	-1	n/a	n/a	n/a	n/a	n/a
4369.214	n/a	RECOG_CONF	2184607	n/a	LTP280	ltpFR	6	7	-1	BEVERAGE	123	n/a	3	-1	n/a	n/a	n/a	n/a	n/a
4370.83	n/a	RECOG_TARGET	2185415	n/a	LTP280	ltpFR	6	7	-1	PELICAN	1039	0	4	-1	n/a	n/a	n/a	n/a	n/a
4371.82	n/a	RECOG_RESP	2185910	n/a	LTP280	ltpFR	6	7	-1	PELICAN	1039	0	n/a	-1	n/a	n/a	n/a	n/a	n/a
4372.404	n/a	RECOG_CONF	2186202	n/a	LTP280	ltpFR	6	7	-1	PELICAN	1039	n/a	4	-1	n/a	n/a	n/a	n/a	n/a
4374.01	n/a	RECOG_LURE	2187005	n/a	LTP280	ltpFR	6	7	n/a	CANNON	232	0	4	n/a	n/a	n/a	n/a	n/a	n/a
4375.224	n/a	RECOG_RESP	2187612	n/a	LTP280	ltpFR	6	7	n/a	CANNON	232	0	n/a	n/a	n/a	n/a	n/a	n/a	n/a
4375.824	n/a	RECOG_CONF	2187912	n/a	LTP280	ltpFR	6	7	n/a	CANNON	232	n/a	4	n/a	n/a	n/a	n/a	n/a	n/a
4377.472	n/a	RECOG_TARGET	2188736	n/a	LTP280	ltpFR	6	7	0	CASHIER	254	0	2	1	n/a	n/a	n/a	n/a	n/a
4379.16	n/a	RECOG_RESP	2189580	n/a	LTP280	ltpFR	6	7	0	CASHIER	254	0	n/a	1	n/a	n/a	n/a	n/a	n/a
4379.714	n/a	RECOG_CONF	2189857	n/a	LTP280	ltpFR	6	7	0	CASHIER	254	n/a	2	1	n/a	n/a	n/a	n/a	n/a
4381.338	n/a	RECOG_TARGET	2190669	n/a	LTP280	ltpFR	6	7	0	WHALE	1601	1	5	1	n/a	n/a	n/a	n/a	n/a
4382.08	n/a	RECOG_RESP	2191040	n/a	LTP280	ltpFR	6	7	0	WHALE	1601	1	n/a	1	n/a	n/a	n/a	n/a	n/a
4382.724	n/a	RECOG_CONF	2191362	n/a	LTP280	ltpFR	6	7	0	WHALE	1601	n/a	5	1	n/a	n/a	n/a	n/a	n/a
4384.398	n/a	RECOG_LURE	2192199	n/a	LTP280	ltpFR	6	7	n/a	CRITIC	410	0	3	n/a	n/a	n/a	n/a	n/a	n/a
4386.0	n/a	RECOG_RESP	2193000	n/a	LTP280	ltpFR	6	7	n/a	CRITIC	410	0	n/a	n/a	n/a	n/a	n/a	n/a	n/a
4386.584	n/a	RECOG_CONF	2193292	n/a	LTP280	ltpFR	6	7	n/a	CRITIC	410	n/a	3	n/a	n/a	n/a	n/a	n/a	n/a
4388.396	n/a	RECOG_LURE	2194198	n/a	LTP280	ltpFR	6	7	n/a	SKULL	1320	0	2	n/a	n/a	n/a	n/a	n/a	n/a
4390.526	n/a	RECOG_RESP	2195263	n/a	LTP280	ltpFR	6	7	n/a	SKULL	1320	0	n/a	n/a	n/a	n/a	n/a	n/a	n/a
4391.256	n/a	RECOG_CONF	2195628	n/a	LTP280	ltpFR	6	7	n/a	SKULL	1320	n/a	2	n/a	n/a	n/a	n/a	n/a	n/a
4392.964	n/a	RECOG_LURE	2196482	n/a	LTP280	ltpFR	6	7	n/a	MAGAZINE	853	0	4	n/a	n/a	n/a	n/a	n/a	n/a
4393.89	n/a	RECOG_RESP	2196945	n/a	LTP280	ltpFR	6	7	n/a	MAGAZINE	853	0	n/a	n/a	n/a	n/a	n/a	n/a	n/a
4394.546	n/a	RECOG_CONF	2197273	n/a	LTP280	ltpFR	6	7	n/a	MAGAZINE	853	n/a	4	n/a	n/a	n/a	n/a	n/a	n/a
4396.178	n/a	RECOG_LURE	2198089	n/a	LTP280	ltpFR	6	7	n/a	IRON	744	0	3	n/a	n/a	n/a	n/a	n/a	n/a
4397.26	n/a	RECOG_RESP	2198630	n/a	LTP280	ltpFR	6	7	n/a	IRON	744	0	n/a	n/a	n/a	n/a	n/a	n/a	n/a
4397.836	n/a	RECOG_CONF	2198918	n/a	LTP280	ltpFR	6	7	n/a	IRON	744	n/a	3	n/a	n/a	n/a	n/a	n/a	n/a
4399.372	n/a	RECOG_TARGET	2199686	n/a	LTP280	ltpFR	6	7	1	CHEERLEADER	288	1	3	1	n/a	n/a	n/a	n/a	n/a
4400.606	n/a	RECOG_RESP	2200303	n/a	LTP280	ltpFR	6	7	1	CHEERLEADER	288	1	n/a	1	n/a	n/a	n/a	n/a	n/a
4401.206	n/a	RECOG_CONF	2200603	n/a	LTP280	ltpFR	6	7	1	CHEERLEADER	288	n/a	3	1	n/a	n/a	n/a	n/a	n/a
4402.902	n/a	RECOG_LURE	2201451	n/a	LTP280	ltpFR	6	7	n/a	PICK	1058	0	1	n/a	n/a	n/a	n/a	n/a	n/a
4405.256	n/a	RECOG_RESP	2202628	n/a	LTP280	ltpFR	6	7	n/a	PICK	1058	0	n/a	n/a	n/a	n/a	n/a	n/a	n/a
4406.032	n/a	RECOG_CONF	2203016	n/a	LTP280	ltpFR	6	7	n/a	PICK	1058	n/a	1	n/a	n/a	n/a	n/a	n/a	n/a
4407.638	n/a	RECOG_TARGET	2203819	n/a	LTP280	ltpFR	6	7	0	CHEMIST	292	1	4	1	n/a	n/a	n/a	n/a	n/a
4408.982	n/a	RECOG_RESP	2204491	n/a	LTP280	ltpFR	6	7	0	CHEMIST	292	1	n/a	1	n/a	n/a	n/a	n/a	n/a
4409.556	n/a	RECOG_CONF	2204778	n/a	LTP280	ltpFR	6	7	0	CHEMIST	292	n/a	4	1	n/a	n/a	n/a	n/a	n/a
4411.118	n/a	RECOG_LURE	2205559	n/a	LTP280	ltpFR	6	7	n/a	POPE	1105	0	3	n/a	n/a	n/a	n/a	n/a	n/a
4413.472	n/a	RECOG_RESP	2206736	n/a	LTP280	ltpFR	6	7	n/a	POPE	1105	0	n/a	n/a	n/a	n/a	n/a	n/a	n/a
4414.186	n/a	RECOG_CONF	2207093	n/a	LTP280	ltpFR	6	7	n/a	POPE	1105	n/a	3	n/a	n/a	n/a	n/a	n/a	n/a
4415.782	n/a	RECOG_LURE	2207891	n/a	LTP280	ltpFR	6	7	n/a	JUPITER	765	1	4	n/a	n/a	n/a	n/a	n/a	n/a
4416.622	n/a	RECOG_RESP	2208311	n/a	LTP280	ltpFR	6	7	n/a	JUPITER	765	1	n/a	n/a	n/a	n/a	n/a	n/a	n/a
4417.206	n/a	RECOG_CONF	2208603	n/a	LTP280	ltpFR	6	7	n/a	JUPITER	765	n/a	4	n/a	n/a	n/a	n/a	n/a	n/a
4418.796	n/a	RECOG_LURE	2209398	n/a	LTP280	ltpFR	6	7	n/a	PRINCE	1124	0	3	n/a	n/a	n/a	n/a	n/a	n/a
4421.632	n/a	RECOG_RESP	2210816	n/a	LTP280	ltpFR	6	7	n/a	PRINCE	1124	0	n/a	n/a	n/a	n/a	n/a	n/a	n/a
4422.126	n/a	RECOG_CONF	2211063	n/a	LTP280	ltpFR	6	7	n/a	PRINCE	1124	n/a	3	n/a	n/a	n/a	n/a	n/a	n/a
4423.932	n/a	RECOG_TARGET	2211966	n/a	LTP280	ltpFR	6	7	-1	SICKLE	1302	1	4	-1	n/a	n/a	n/a	n/a	n/a
4424.842	n/a	RECOG_RESP	2212421	n/a	LTP280	ltpFR	6	7	-1	SICKLE	1302	1	n/a	-1	n/a	n/a	n/a	n/a	n/a
4425.366	n/a	RECOG_CONF	2212683	n/a	LTP280	ltpFR	6	7	-1	SICKLE	1302	n/a	4	-1	n/a	n/a	n/a	n/a	n/a
4426.962	n/a	RECOG_LURE	2213481	n/a	LTP280	ltpFR	6	7	n/a	CREAM	402	0	4	n/a	n/a	n/a	n/a	n/a	n/a
4427.932	n/a	RECOG_RESP	2213966	n/a	LTP280	ltpFR	6	7	n/a	CREAM	402	0	n/a	n/a	n/a	n/a	n/a	n/a	n/a
4428.418	n/a	RECOG_CONF	2214209	n/a	LTP280	ltpFR	6	7	n/a	CREAM	402	n/a	4	n/a	n/a	n/a	n/a	n/a	n/a
4429.94	n/a	RECOG_TARGET	2214970	n/a	LTP280	ltpFR	6	7	-1	OX	994	1	4	-1	n/a	n/a	n/a	n/a	n/a
4430.702	n/a	RECOG_RESP	2215351	n/a	LTP280	ltpFR	6	7	-1	OX	994	1	n/a	-1	n/a	n/a	n/a	n/a	n/a
4431.358	n/a	RECOG_CONF	2215679	n/a	LTP280	ltpFR	6	7	-1	OX	994	n/a	4	-1	n/a	n/a	n/a	n/a	n/a
4433.168	n/a	RECOG_LURE	2216584	n/a	LTP280	ltpFR	6	7	n/a	WIDOW	1608	0	3	n/a	n/a	n/a	n/a	n/a	n/a
4434.138	n/a	RECOG_RESP	2217069	n/a	LTP280	ltpFR	6	7	n/a	WIDOW	1608	0	n/a	n/a	n/a	n/a	n/a	n/a	n/a
4434.638	n/a	RECOG_CONF	2217319	n/a	LTP280	ltpFR	6	7	n/a	WIDOW	1608	n/a	3	n/a	n/a	n/a	n/a	n/a	n/a
4436.448	n/a	RECOG_TARGET	2218224	n/a	LTP280	ltpFR	6	7	1	SHARK	1275	1	3	1	n/a	n/a	n/a	n/a	n/a
4437.278	n/a	RECOG_RESP	2218639	n/a	LTP280	ltpFR	6	7	1	SHARK	1275	1	n/a	1	n/a	n/a	n/a	n/a	n/a
4437.948	n/a	RECOG_CONF	2218974	n/a	LTP280	ltpFR	6	7	1	SHARK	1275	n/a	3	1	n/a	n/a	n/a	n/a	n/a
