onset	duration	trial_type	sample	stim_file	subject	experiment	session	trial	item_name	item_num	list	answer	test_x	test_y	test_z
237.854	n/a	SESS_START	118927	n/a	LTP287	ltpFR2	8	n/a	n/a	n/a	n/a	n/a	0	0	0
268.642	n/a	START	134321	n/a	LTP287	ltpFR2	8	n/a	n/a	n/a	-1	n/a	n/a	n/a	n/a
268.674	n/a	PROB	134337	n/a	LTP287	ltpFR2	8	n/a	n/a	n/a	-1	12	4	7	1
270.356	n/a	PROB	135178	n/a	LTP287	ltpFR2	8	n/a	n/a	n/a	-1	21	8	5	8
272.136	n/a	PROB	136068	n/a	LTP287	ltpFR2	8	n/a	n/a	n/a	-1	20	8	6	6
274.034	n/a	PROB	137017	n/a	LTP287	ltpFR2	8	n/a	n/a	n/a	-1	10	6	1	2
275.78	n/a	PROB	137890	n/a	LTP287	ltpFR2	8	n/a	n/a	n/a	-1	14	7	3	4
277.178	n/a	PROB	138589	n/a	LTP287	ltpFR2	8	n/a	n/a	n/a	-1	22	9	9	5
280.24	n/a	STOP	140120	n/a	LTP287	ltpFR2	8	n/a	n/a	n/a	-1	n/a	n/a	n/a	n/a
312.194	n/a	DISTRACTOR	156097	n/a	LTP287	ltpFR2	8	1	n/a	n/a	n/a	n/a	0	0	0
312.194	n/a	START	156097	n/a	LTP287	ltpFR2	8	n/a	n/a	n/a	1	n/a	n/a	n/a	n/a
312.228	n/a	PROB	156114	n/a	LTP287	ltpFR2	8	n/a	n/a	n/a	1	16	5	5	6
313.376	n/a	PROB	156688	n/a	LTP287	ltpFR2	8	n/a	n/a	n/a	1	17	5	5	7
314.39	n/a	PROB	157195	n/a	LTP287	ltpFR2	8	n/a	n/a	n/a	1	15	5	2	8
315.922	n/a	PROB	157961	n/a	LTP287	ltpFR2	8	n/a	n/a	n/a	1	6	2	1	3
317.07	n/a	PROB	158535	n/a	LTP287	ltpFR2	8	n/a	n/a	n/a	1	7	3	3	1
318.252	n/a	PROB	159126	n/a	LTP287	ltpFR2	8	n/a	n/a	n/a	1	21	7	7	7
319.5	n/a	PROB	159750	n/a	LTP287	ltpFR2	8	n/a	n/a	n/a	1	14	6	5	3
321.098	n/a	PROB	160549	n/a	LTP287	ltpFR2	8	n/a	n/a	n/a	1	14	4	5	5
322.678	n/a	PROB	161339	n/a	LTP287	ltpFR2	8	n/a	n/a	n/a	1	12	9	2	1
324.142	n/a	PROB	162071	n/a	LTP287	ltpFR2	8	n/a	n/a	n/a	1	16	8	2	6
325.708	n/a	PROB	162854	n/a	LTP287	ltpFR2	8	n/a	n/a	n/a	1	17	4	8	5
327.688	n/a	PROB	163844	n/a	LTP287	ltpFR2	8	n/a	n/a	n/a	1	7	2	4	1
330.35	n/a	PROB	165175	n/a	LTP287	ltpFR2	8	n/a	n/a	n/a	1	23	8	8	7
333.512	n/a	PROB	166756	n/a	LTP287	ltpFR2	8	n/a	n/a	n/a	1	20	7	4	9
335.298	n/a	STOP	167649	n/a	LTP287	ltpFR2	8	n/a	n/a	n/a	1	n/a	n/a	n/a	n/a
337.324	n/a	WORD	168662	wordpools/wasnorm_wordpool_576.txt	LTP287	ltpFR2	8	1	PLAYGROUND	1087	n/a	n/a	0	0	0
339.87	n/a	WORD	169935	wordpools/wasnorm_wordpool_576.txt	LTP287	ltpFR2	8	1	CREVICE	405	n/a	n/a	0	0	0
342.666	n/a	WORD	171333	wordpools/wasnorm_wordpool_576.txt	LTP287	ltpFR2	8	1	PLATE	1086	n/a	n/a	0	0	0
345.278	n/a	WORD	172639	wordpools/wasnorm_wordpool_576.txt	LTP287	ltpFR2	8	1	SCARF	1246	n/a	n/a	0	0	0
347.958	n/a	WORD	173979	wordpools/wasnorm_wordpool_576.txt	LTP287	ltpFR2	8	1	PACKAGE	997	n/a	n/a	0	0	0
350.704	n/a	WORD	175352	wordpools/wasnorm_wordpool_576.txt	LTP287	ltpFR2	8	1	JELLY	755	n/a	n/a	0	0	0
353.166	n/a	WORD	176583	wordpools/wasnorm_wordpool_576.txt	LTP287	ltpFR2	8	1	GREASE	660	n/a	n/a	0	0	0
355.78	n/a	WORD	177890	wordpools/wasnorm_wordpool_576.txt	LTP287	ltpFR2	8	1	CHAPEL	280	n/a	n/a	0	0	0
358.41	n/a	WORD	179205	wordpools/wasnorm_wordpool_576.txt	LTP287	ltpFR2	8	1	BACON	67	n/a	n/a	0	0	0
361.006	n/a	WORD	180503	wordpools/wasnorm_wordpool_576.txt	LTP287	ltpFR2	8	1	LETTUCE	814	n/a	n/a	0	0	0
363.734	n/a	WORD	181867	wordpools/wasnorm_wordpool_576.txt	LTP287	ltpFR2	8	1	INFANT	737	n/a	n/a	0	0	0
366.448	n/a	WORD	183224	wordpools/wasnorm_wordpool_576.txt	LTP287	ltpFR2	8	1	CANDY	230	n/a	n/a	0	0	0
368.894	n/a	WORD	184447	wordpools/wasnorm_wordpool_576.txt	LTP287	ltpFR2	8	1	SALAD	1224	n/a	n/a	0	0	0
371.64	n/a	WORD	185820	wordpools/wasnorm_wordpool_576.txt	LTP287	ltpFR2	8	1	GRAVEL	659	n/a	n/a	0	0	0
374.136	n/a	WORD	187068	wordpools/wasnorm_wordpool_576.txt	LTP287	ltpFR2	8	1	GLASS	639	n/a	n/a	0	0	0
376.714	n/a	WORD	188357	wordpools/wasnorm_wordpool_576.txt	LTP287	ltpFR2	8	1	IDOL	733	n/a	n/a	0	0	0
379.41	n/a	WORD	189705	wordpools/wasnorm_wordpool_576.txt	LTP287	ltpFR2	8	1	DUSTPAN	509	n/a	n/a	0	0	0
382.206	n/a	WORD	191103	wordpools/wasnorm_wordpool_576.txt	LTP287	ltpFR2	8	1	MOP	916	n/a	n/a	0	0	0
385.02	n/a	WORD	192510	wordpools/wasnorm_wordpool_576.txt	LTP287	ltpFR2	8	1	BUCKET	184	n/a	n/a	0	0	0
387.682	n/a	WORD	193841	wordpools/wasnorm_wordpool_576.txt	LTP287	ltpFR2	8	1	PEBBLE	1035	n/a	n/a	0	0	0
390.112	n/a	WORD	195056	wordpools/wasnorm_wordpool_576.txt	LTP287	ltpFR2	8	1	DRAGON	492	n/a	n/a	0	0	0
392.608	n/a	WORD	196304	wordpools/wasnorm_wordpool_576.txt	LTP287	ltpFR2	8	1	MATCH	878	n/a	n/a	0	0	0
395.072	n/a	WORD	197536	wordpools/wasnorm_wordpool_576.txt	LTP287	ltpFR2	8	1	JOURNAL	760	n/a	n/a	0	0	0
397.8	n/a	WORD	198900	wordpools/wasnorm_wordpool_576.txt	LTP287	ltpFR2	8	1	HERO	706	n/a	n/a	0	0	0
399.414	n/a	START	199707	n/a	LTP287	ltpFR2	8	n/a	n/a	n/a	2	n/a	n/a	n/a	n/a
400.52	n/a	DISTRACTOR	200260	n/a	LTP287	ltpFR2	8	1	n/a	n/a	n/a	n/a	0	0	0
400.53	n/a	PROB	200265	n/a	LTP287	ltpFR2	8	n/a	n/a	n/a	2	21	4	9	8
402.526	n/a	PROB	201263	n/a	LTP287	ltpFR2	8	n/a	n/a	n/a	2	12	9	2	1
403.824	n/a	PROB	201912	n/a	LTP287	ltpFR2	8	n/a	n/a	n/a	2	15	6	4	5
405.306	n/a	PROB	202653	n/a	LTP287	ltpFR2	8	n/a	n/a	n/a	2	17	7	7	3
407.136	n/a	PROB	203568	n/a	LTP287	ltpFR2	8	n/a	n/a	n/a	2	13	4	5	4
409.984	n/a	PROB	204992	n/a	LTP287	ltpFR2	8	n/a	n/a	n/a	2	5	1	1	3
411.016	n/a	PROB	205508	n/a	LTP287	ltpFR2	8	n/a	n/a	n/a	2	16	8	2	6
412.096	n/a	PROB	206048	n/a	LTP287	ltpFR2	8	n/a	n/a	n/a	2	13	3	7	3
413.96	n/a	PROB	206980	n/a	LTP287	ltpFR2	8	n/a	n/a	n/a	2	25	9	7	9
416.472	n/a	PROB	208236	n/a	LTP287	ltpFR2	8	n/a	n/a	n/a	2	13	9	1	3
417.804	n/a	PROB	208902	n/a	LTP287	ltpFR2	8	n/a	n/a	n/a	2	21	9	8	4
419.684	n/a	PROB	209842	n/a	LTP287	ltpFR2	8	n/a	n/a	n/a	2	10	6	1	3
421.616	n/a	PROB	210808	n/a	LTP287	ltpFR2	8	n/a	n/a	n/a	2	7	4	1	2
423.226	n/a	STOP	211613	n/a	LTP287	ltpFR2	8	n/a	n/a	n/a	2	n/a	n/a	n/a	n/a
425.344	n/a	REC_START	212672	n/a	LTP287	ltpFR2	8	1	n/a	n/a	n/a	n/a	0	0	0
426.736	n/a	REC_WORD	213368	wordpools/wasnorm_wordpool_576.txt	LTP287	ltpFR2	8	1	PLAYGROUND	1087	n/a	n/a	0	0	0
427.774	n/a	REC_WORD	213887	wordpools/wasnorm_wordpool_576.txt	LTP287	ltpFR2	8	1	MOP	916	n/a	n/a	0	0	0
428.878	n/a	REC_WORD	214439	wordpools/wasnorm_wordpool_576.txt	LTP287	ltpFR2	8	1	BUCKET	184	n/a	n/a	0	0	0
429.838	n/a	REC_WORD	214919	wordpools/wasnorm_wordpool_576.txt	LTP287	ltpFR2	8	1	CHAPEL	280	n/a	n/a	0	0	0
430.794	n/a	REC_WORD	215397	wordpools/wasnorm_wordpool_576.txt	LTP287	ltpFR2	8	1	PEBBLE	1035	n/a	n/a	0	0	0
442.822	n/a	REC_WORD	221411	wordpools/wasnorm_wordpool_576.txt	LTP287	ltpFR2	8	1	DRAGON	492	n/a	n/a	0	0	0
453.082	n/a	REC_WORD	226541	wordpools/wasnorm_wordpool_576.txt	LTP287	ltpFR2	8	1	CREVICE	405	n/a	n/a	0	0	0
516.06	n/a	WORD	258030	wordpools/wasnorm_wordpool_576.txt	LTP287	ltpFR2	8	2	WRIST	1626	n/a	n/a	0	0	0
518.804	n/a	WORD	259402	wordpools/wasnorm_wordpool_576.txt	LTP287	ltpFR2	8	2	PICTURE	1061	n/a	n/a	0	0	0
521.35	n/a	WORD	260675	wordpools/wasnorm_wordpool_576.txt	LTP287	ltpFR2	8	2	BOYFRIEND	162	n/a	n/a	0	0	0
524.048	n/a	WORD	262024	wordpools/wasnorm_wordpool_576.txt	LTP287	ltpFR2	8	2	PARTNER	1017	n/a	n/a	0	0	0
526.544	n/a	WORD	263272	wordpools/wasnorm_wordpool_576.txt	LTP287	ltpFR2	8	2	YACHT	1629	n/a	n/a	0	0	0
529.008	n/a	WORD	264504	wordpools/wasnorm_wordpool_576.txt	LTP287	ltpFR2	8	2	BLUEPRINT	142	n/a	n/a	0	0	0
531.72	n/a	WORD	265860	wordpools/wasnorm_wordpool_576.txt	LTP287	ltpFR2	8	2	FLAG	573	n/a	n/a	0	0	0
534.166	n/a	WORD	267083	wordpools/wasnorm_wordpool_576.txt	LTP287	ltpFR2	8	2	MISSILE	900	n/a	n/a	0	0	0
536.978	n/a	WORD	268489	wordpools/wasnorm_wordpool_576.txt	LTP287	ltpFR2	8	2	TYPIST	1532	n/a	n/a	0	0	0
539.758	n/a	WORD	269879	wordpools/wasnorm_wordpool_576.txt	LTP287	ltpFR2	8	2	PREACHER	1119	n/a	n/a	0	0	0
542.22	n/a	WORD	271110	wordpools/wasnorm_wordpool_576.txt	LTP287	ltpFR2	8	2	COOK	372	n/a	n/a	0	0	0
544.684	n/a	WORD	272342	wordpools/wasnorm_wordpool_576.txt	LTP287	ltpFR2	8	2	PUPIL	1143	n/a	n/a	0	0	0
547.396	n/a	WORD	273698	wordpools/wasnorm_wordpool_576.txt	LTP287	ltpFR2	8	2	RECORD	1176	n/a	n/a	0	0	0
550.176	n/a	WORD	275088	wordpools/wasnorm_wordpool_576.txt	LTP287	ltpFR2	8	2	POLICE	1098	n/a	n/a	0	0	0
552.654	n/a	WORD	276327	wordpools/wasnorm_wordpool_576.txt	LTP287	ltpFR2	8	2	SNACK	1331	n/a	n/a	0	0	0
555.252	n/a	WORD	277626	wordpools/wasnorm_wordpool_576.txt	LTP287	ltpFR2	8	2	WAITRESS	1581	n/a	n/a	0	0	0
557.914	n/a	WORD	278957	wordpools/wasnorm_wordpool_576.txt	LTP287	ltpFR2	8	2	SUPPER	1411	n/a	n/a	0	0	0
560.576	n/a	WORD	280288	wordpools/wasnorm_wordpool_576.txt	LTP287	ltpFR2	8	2	ICING	732	n/a	n/a	0	0	0
563.008	n/a	WORD	281504	wordpools/wasnorm_wordpool_576.txt	LTP287	ltpFR2	8	2	SHOULDER	1294	n/a	n/a	0	0	0
565.752	n/a	WORD	282876	wordpools/wasnorm_wordpool_576.txt	LTP287	ltpFR2	8	2	FUNGUS	614	n/a	n/a	0	0	0
568.466	n/a	WORD	284233	wordpools/wasnorm_wordpool_576.txt	LTP287	ltpFR2	8	2	POPCORN	1104	n/a	n/a	0	0	0
570.928	n/a	WORD	285464	wordpools/wasnorm_wordpool_576.txt	LTP287	ltpFR2	8	2	ORCHID	982	n/a	n/a	0	0	0
573.59	n/a	WORD	286795	wordpools/wasnorm_wordpool_576.txt	LTP287	ltpFR2	8	2	APPLE	33	n/a	n/a	0	0	0
576.186	n/a	WORD	288093	wordpools/wasnorm_wordpool_576.txt	LTP287	ltpFR2	8	2	PEACH	1031	n/a	n/a	0	0	0
577.802	n/a	START	288901	n/a	LTP287	ltpFR2	8	n/a	n/a	n/a	3	n/a	n/a	n/a	n/a
578.756	n/a	DISTRACTOR	289378	n/a	LTP287	ltpFR2	8	2	n/a	n/a	n/a	n/a	0	0	0
578.766	n/a	PROB	289383	n/a	LTP287	ltpFR2	8	n/a	n/a	n/a	3	23	9	7	7
580.73	n/a	PROB	290365	n/a	LTP287	ltpFR2	8	n/a	n/a	n/a	3	15	5	3	7
582.494	n/a	PROB	291247	n/a	LTP287	ltpFR2	8	n/a	n/a	n/a	3	3	1	1	1
583.46	n/a	PROB	291730	n/a	LTP287	ltpFR2	8	n/a	n/a	n/a	3	19	3	8	8
584.924	n/a	PROB	292462	n/a	LTP287	ltpFR2	8	n/a	n/a	n/a	3	19	5	5	9
585.99	n/a	PROB	292995	n/a	LTP287	ltpFR2	8	n/a	n/a	n/a	3	13	7	1	5
589.318	n/a	PROB	294659	n/a	LTP287	ltpFR2	8	n/a	n/a	n/a	3	21	9	4	8
591.798	n/a	PROB	295899	n/a	LTP287	ltpFR2	8	n/a	n/a	n/a	3	10	1	8	1
593.162	n/a	PROB	296581	n/a	LTP287	ltpFR2	8	n/a	n/a	n/a	3	17	5	8	4
595.142	n/a	PROB	297571	n/a	LTP287	ltpFR2	8	n/a	n/a	n/a	3	17	9	7	1
598.488	n/a	PROB	299244	n/a	LTP287	ltpFR2	8	n/a	n/a	n/a	3	16	3	7	6
601.802	n/a	STOP	300901	n/a	LTP287	ltpFR2	8	n/a	n/a	n/a	3	n/a	n/a	n/a	n/a
603.73	n/a	REC_START	301865	n/a	LTP287	ltpFR2	8	2	n/a	n/a	n/a	n/a	0	0	0
606.396	n/a	REC_WORD	303198	wordpools/wasnorm_wordpool_576.txt	LTP287	ltpFR2	8	2	ORCHID	982	n/a	n/a	0	0	0
607.232	n/a	REC_WORD	303616	wordpools/wasnorm_wordpool_576.txt	LTP287	ltpFR2	8	2	SUPPER	1411	n/a	n/a	0	0	0
671.496	n/a	REC_WORD	335748	wordpools/wasnorm_wordpool_576.txt	LTP287	ltpFR2	8	2	WRIST	1626	n/a	n/a	0	0	0
673.68	n/a	REC_WORD	336840	wordpools/wasnorm_wordpool_576.txt	LTP287	ltpFR2	8	2	BOYFRIEND	162	n/a	n/a	0	0	0
674.558	n/a	REC_WORD	337279	wordpools/wasnorm_wordpool_576.txt	LTP287	ltpFR2	8	2	PARTNER	1017	n/a	n/a	0	0	0
694.396	n/a	DISTRACTOR	347198	n/a	LTP287	ltpFR2	8	3	n/a	n/a	n/a	n/a	0	0	0
694.396	n/a	START	347198	n/a	LTP287	ltpFR2	8	n/a	n/a	n/a	4	n/a	n/a	n/a	n/a
694.428	n/a	PROB	347214	n/a	LTP287	ltpFR2	8	n/a	n/a	n/a	4	16	8	6	2
696.726	n/a	PROB	348363	n/a	LTP287	ltpFR2	8	n/a	n/a	n/a	4	1	8	1	2
698.356	n/a	PROB	349178	n/a	LTP287	ltpFR2	8	n/a	n/a	n/a	4	10	1	1	8
699.738	n/a	PROB	349869	n/a	LTP287	ltpFR2	8	n/a	n/a	n/a	4	17	7	8	2
701.118	n/a	PROB	350559	n/a	LTP287	ltpFR2	8	n/a	n/a	n/a	4	19	5	6	8
702.616	n/a	PROB	351308	n/a	LTP287	ltpFR2	8	n/a	n/a	n/a	4	16	3	9	4
704.964	n/a	PROB	352482	n/a	LTP287	ltpFR2	8	n/a	n/a	n/a	4	15	5	3	7
706.096	n/a	PROB	353048	n/a	LTP287	ltpFR2	8	n/a	n/a	n/a	4	18	3	8	7
707.294	n/a	PROB	353647	n/a	LTP287	ltpFR2	8	n/a	n/a	n/a	4	19	8	6	5
708.942	n/a	PROB	354471	n/a	LTP287	ltpFR2	8	n/a	n/a	n/a	4	24	6	9	9
711.586	n/a	PROB	355793	n/a	LTP287	ltpFR2	8	n/a	n/a	n/a	4	10	2	2	6
713.234	n/a	PROB	356617	n/a	LTP287	ltpFR2	8	n/a	n/a	n/a	4	13	2	3	8
715.0	n/a	PROB	357500	n/a	LTP287	ltpFR2	8	n/a	n/a	n/a	4	21	8	9	4
717.886	n/a	STOP	358943	n/a	LTP287	ltpFR2	8	n/a	n/a	n/a	4	n/a	n/a	n/a	n/a
719.508	n/a	WORD	359754	wordpools/wasnorm_wordpool_576.txt	LTP287	ltpFR2	8	3	RIFLE	1192	n/a	n/a	0	0	0
721.99	n/a	WORD	360995	wordpools/wasnorm_wordpool_576.txt	LTP287	ltpFR2	8	3	EGYPT	519	n/a	n/a	0	0	0
724.8	n/a	WORD	362400	wordpools/wasnorm_wordpool_576.txt	LTP287	ltpFR2	8	3	COTTAGE	384	n/a	n/a	0	0	0
727.496	n/a	WORD	363748	wordpools/wasnorm_wordpool_576.txt	LTP287	ltpFR2	8	3	LEADER	807	n/a	n/a	0	0	0
730.26	n/a	WORD	365130	wordpools/wasnorm_wordpool_576.txt	LTP287	ltpFR2	8	3	RATTLE	1170	n/a	n/a	0	0	0
732.922	n/a	WORD	366461	wordpools/wasnorm_wordpool_576.txt	LTP287	ltpFR2	8	3	BRANDY	169	n/a	n/a	0	0	0
735.602	n/a	WORD	367801	wordpools/wasnorm_wordpool_576.txt	LTP287	ltpFR2	8	3	MOTOR	922	n/a	n/a	0	0	0
738.032	n/a	WORD	369016	wordpools/wasnorm_wordpool_576.txt	LTP287	ltpFR2	8	3	PUPPY	1144	n/a	n/a	0	0	0
740.494	n/a	WORD	370247	wordpools/wasnorm_wordpool_576.txt	LTP287	ltpFR2	8	3	MATTRESS	879	n/a	n/a	0	0	0
743.026	n/a	WORD	371513	wordpools/wasnorm_wordpool_576.txt	LTP287	ltpFR2	8	3	NIGHTGOWN	953	n/a	n/a	0	0	0
745.454	n/a	WORD	372727	wordpools/wasnorm_wordpool_576.txt	LTP287	ltpFR2	8	3	ATOM	55	n/a	n/a	0	0	0
748.184	n/a	WORD	374092	wordpools/wasnorm_wordpool_576.txt	LTP287	ltpFR2	8	3	COMET	353	n/a	n/a	0	0	0
750.746	n/a	WORD	375373	wordpools/wasnorm_wordpool_576.txt	LTP287	ltpFR2	8	3	MUFFIN	929	n/a	n/a	0	0	0
753.558	n/a	WORD	376779	wordpools/wasnorm_wordpool_576.txt	LTP287	ltpFR2	8	3	CHEMIST	292	n/a	n/a	0	0	0
756.104	n/a	WORD	378052	wordpools/wasnorm_wordpool_576.txt	LTP287	ltpFR2	8	3	SERVANT	1271	n/a	n/a	0	0	0
758.684	n/a	WORD	379342	wordpools/wasnorm_wordpool_576.txt	LTP287	ltpFR2	8	3	STREAM	1392	n/a	n/a	0	0	0
761.396	n/a	WORD	380698	wordpools/wasnorm_wordpool_576.txt	LTP287	ltpFR2	8	3	SWAMP	1416	n/a	n/a	0	0	0
764.01	n/a	WORD	382005	wordpools/wasnorm_wordpool_576.txt	LTP287	ltpFR2	8	3	UMPIRE	1535	n/a	n/a	0	0	0
766.456	n/a	WORD	383228	wordpools/wasnorm_wordpool_576.txt	LTP287	ltpFR2	8	3	RACKET	1155	n/a	n/a	0	0	0
768.886	n/a	WORD	384443	wordpools/wasnorm_wordpool_576.txt	LTP287	ltpFR2	8	3	TUNNEL	1519	n/a	n/a	0	0	0
771.58	n/a	WORD	385790	wordpools/wasnorm_wordpool_576.txt	LTP287	ltpFR2	8	3	COURSE	390	n/a	n/a	0	0	0
774.194	n/a	WORD	387097	wordpools/wasnorm_wordpool_576.txt	LTP287	ltpFR2	8	3	SUNSET	1408	n/a	n/a	0	0	0
776.906	n/a	WORD	388453	wordpools/wasnorm_wordpool_576.txt	LTP287	ltpFR2	8	3	SPHINX	1349	n/a	n/a	0	0	0
779.67	n/a	WORD	389835	wordpools/wasnorm_wordpool_576.txt	LTP287	ltpFR2	8	3	BABY	64	n/a	n/a	0	0	0
781.284	n/a	START	390642	n/a	LTP287	ltpFR2	8	n/a	n/a	n/a	5	n/a	n/a	n/a	n/a
782.436	n/a	DISTRACTOR	391218	n/a	LTP287	ltpFR2	8	3	n/a	n/a	n/a	n/a	0	0	0
782.448	n/a	PROB	391224	n/a	LTP287	ltpFR2	8	n/a	n/a	n/a	5	24	6	9	9
784.578	n/a	PROB	392289	n/a	LTP287	ltpFR2	8	n/a	n/a	n/a	5	5	1	3	1
785.56	n/a	PROB	392780	n/a	LTP287	ltpFR2	8	n/a	n/a	n/a	5	23	9	7	7
787.242	n/a	PROB	393621	n/a	LTP287	ltpFR2	8	n/a	n/a	n/a	5	15	7	4	4
788.706	n/a	PROB	394353	n/a	LTP287	ltpFR2	8	n/a	n/a	n/a	5	16	4	5	7
790.304	n/a	PROB	395152	n/a	LTP287	ltpFR2	8	n/a	n/a	n/a	5	18	3	8	7
791.768	n/a	PROB	395884	n/a	LTP287	ltpFR2	8	n/a	n/a	n/a	5	13	3	5	5
792.784	n/a	PROB	396392	n/a	LTP287	ltpFR2	8	n/a	n/a	n/a	5	7	2	4	1
794.398	n/a	PROB	397199	n/a	LTP287	ltpFR2	8	n/a	n/a	n/a	5	13	4	5	4
796.012	n/a	PROB	398006	n/a	LTP287	ltpFR2	8	n/a	n/a	n/a	5	4	1	2	1
797.176	n/a	PROB	398588	n/a	LTP287	ltpFR2	8	n/a	n/a	n/a	5	15	8	4	3
799.092	n/a	PROB	399546	n/a	LTP287	ltpFR2	8	n/a	n/a	n/a	5	20	9	3	8
801.42	n/a	PROB	400710	n/a	LTP287	ltpFR2	8	n/a	n/a	n/a	5	15	3	4	8
803.76	n/a	STOP	401880	n/a	LTP287	ltpFR2	8	n/a	n/a	n/a	5	n/a	n/a	n/a	n/a
807.048	n/a	REC_START	403524	n/a	LTP287	ltpFR2	8	3	n/a	n/a	n/a	n/a	0	0	0
808.416	n/a	REC_WORD	404208	wordpools/wasnorm_wordpool_576.txt	LTP287	ltpFR2	8	3	TUNNEL	1519	n/a	n/a	0	0	0
809.456	n/a	REC_WORD	404728	wordpools/wasnorm_wordpool_576.txt	LTP287	ltpFR2	8	3	EGYPT	519	n/a	n/a	0	0	0
810.568	n/a	REC_WORD	405284	wordpools/wasnorm_wordpool_576.txt	LTP287	ltpFR2	8	3	COURSE	390	n/a	n/a	0	0	0
811.512	n/a	REC_WORD	405756	wordpools/wasnorm_wordpool_576.txt	LTP287	ltpFR2	8	3	SPHINX	1349	n/a	n/a	0	0	0
812.544	n/a	REC_WORD	406272	wordpools/wasnorm_wordpool_576.txt	LTP287	ltpFR2	8	3	BABY	64	n/a	n/a	0	0	0
845.416	n/a	REC_WORD	422708	wordpools/wasnorm_wordpool_576.txt	LTP287	ltpFR2	8	3	BRANDY	169	n/a	n/a	0	0	0
853.11	n/a	REC_WORD	426555	wordpools/wasnorm_wordpool_576.txt	LTP287	ltpFR2	8	3	STREAM	1392	n/a	n/a	0	0	0
897.694	n/a	DISTRACTOR	448847	n/a	LTP287	ltpFR2	8	4	n/a	n/a	n/a	n/a	0	0	0
897.694	n/a	START	448847	n/a	LTP287	ltpFR2	8	n/a	n/a	n/a	6	n/a	n/a	n/a	n/a
897.728	n/a	PROB	448864	n/a	LTP287	ltpFR2	8	n/a	n/a	n/a	6	10	2	4	4
899.11	n/a	PROB	449555	n/a	LTP287	ltpFR2	8	n/a	n/a	n/a	6	18	9	6	3
900.69	n/a	PROB	450345	n/a	LTP287	ltpFR2	8	n/a	n/a	n/a	6	19	9	9	1
902.138	n/a	PROB	451069	n/a	LTP287	ltpFR2	8	n/a	n/a	n/a	6	16	5	6	5
903.302	n/a	PROB	451651	n/a	LTP287	ltpFR2	8	n/a	n/a	n/a	6	19	4	7	8
904.7	n/a	PROB	452350	n/a	LTP287	ltpFR2	8	n/a	n/a	n/a	6	7	4	1	2
906.148	n/a	PROB	453074	n/a	LTP287	ltpFR2	8	n/a	n/a	n/a	6	14	4	4	6
907.862	n/a	PROB	453931	n/a	LTP287	ltpFR2	8	n/a	n/a	n/a	6	13	4	2	5
909.644	n/a	PROB	454822	n/a	LTP287	ltpFR2	8	n/a	n/a	n/a	6	21	8	4	9
913.638	n/a	PROB	456819	n/a	LTP287	ltpFR2	8	n/a	n/a	n/a	6	12	1	5	6
914.87	n/a	PROB	457435	n/a	LTP287	ltpFR2	8	n/a	n/a	n/a	6	20	9	8	3
916.784	n/a	PROB	458392	n/a	LTP287	ltpFR2	8	n/a	n/a	n/a	6	17	4	6	7
918.148	n/a	PROB	459074	n/a	LTP287	ltpFR2	8	n/a	n/a	n/a	6	16	2	9	5
921.694	n/a	STOP	460847	n/a	LTP287	ltpFR2	8	n/a	n/a	n/a	6	n/a	n/a	n/a	n/a
922.874	n/a	WORD	461437	wordpools/wasnorm_wordpool_576.txt	LTP287	ltpFR2	8	4	SUITCASE	1403	n/a	n/a	0	0	0
925.32	n/a	WORD	462660	wordpools/wasnorm_wordpool_576.txt	LTP287	ltpFR2	8	4	HANDBAG	684	n/a	n/a	0	0	0
927.75	n/a	WORD	463875	wordpools/wasnorm_wordpool_576.txt	LTP287	ltpFR2	8	4	TURTLE	1522	n/a	n/a	0	0	0
930.196	n/a	WORD	465098	wordpools/wasnorm_wordpool_576.txt	LTP287	ltpFR2	8	4	STAPLE	1371	n/a	n/a	0	0	0
932.66	n/a	WORD	466330	wordpools/wasnorm_wordpool_576.txt	LTP287	ltpFR2	8	4	CASHIER	254	n/a	n/a	0	0	0
935.122	n/a	WORD	467561	wordpools/wasnorm_wordpool_576.txt	LTP287	ltpFR2	8	4	CLOCK	325	n/a	n/a	0	0	0
937.936	n/a	WORD	468968	wordpools/wasnorm_wordpool_576.txt	LTP287	ltpFR2	8	4	PICNIC	1060	n/a	n/a	0	0	0
940.714	n/a	WORD	470357	wordpools/wasnorm_wordpool_576.txt	LTP287	ltpFR2	8	4	BASEMENT	94	n/a	n/a	0	0	0
943.494	n/a	WORD	471747	wordpools/wasnorm_wordpool_576.txt	LTP287	ltpFR2	8	4	TORTOISE	1486	n/a	n/a	0	0	0
946.058	n/a	WORD	473029	wordpools/wasnorm_wordpool_576.txt	LTP287	ltpFR2	8	4	POISON	1096	n/a	n/a	0	0	0
948.62	n/a	WORD	474310	wordpools/wasnorm_wordpool_576.txt	LTP287	ltpFR2	8	4	LAPEL	800	n/a	n/a	0	0	0
951.116	n/a	WORD	475558	wordpools/wasnorm_wordpool_576.txt	LTP287	ltpFR2	8	4	CELLAR	267	n/a	n/a	0	0	0
953.846	n/a	WORD	476923	wordpools/wasnorm_wordpool_576.txt	LTP287	ltpFR2	8	4	PASTRY	1022	n/a	n/a	0	0	0
956.558	n/a	WORD	478279	wordpools/wasnorm_wordpool_576.txt	LTP287	ltpFR2	8	4	HAMPER	682	n/a	n/a	0	0	0
959.27	n/a	WORD	479635	wordpools/wasnorm_wordpool_576.txt	LTP287	ltpFR2	8	4	AGENT	10	n/a	n/a	0	0	0
962.05	n/a	WORD	481025	wordpools/wasnorm_wordpool_576.txt	LTP287	ltpFR2	8	4	POCKET	1093	n/a	n/a	0	0	0
964.796	n/a	WORD	482398	wordpools/wasnorm_wordpool_576.txt	LTP287	ltpFR2	8	4	KNAPSACK	783	n/a	n/a	0	0	0
967.492	n/a	WORD	483746	wordpools/wasnorm_wordpool_576.txt	LTP287	ltpFR2	8	4	TOASTER	1472	n/a	n/a	0	0	0
970.104	n/a	WORD	485052	wordpools/wasnorm_wordpool_576.txt	LTP287	ltpFR2	8	4	PUDDING	1139	n/a	n/a	0	0	0
972.668	n/a	WORD	486334	wordpools/wasnorm_wordpool_576.txt	LTP287	ltpFR2	8	4	WAITER	1580	n/a	n/a	0	0	0
975.164	n/a	WORD	487582	wordpools/wasnorm_wordpool_576.txt	LTP287	ltpFR2	8	4	SWIMMER	1420	n/a	n/a	0	0	0
977.928	n/a	WORD	488964	wordpools/wasnorm_wordpool_576.txt	LTP287	ltpFR2	8	4	YOLK	1633	n/a	n/a	0	0	0
980.572	n/a	WORD	490286	wordpools/wasnorm_wordpool_576.txt	LTP287	ltpFR2	8	4	WORLD	1622	n/a	n/a	0	0	0
983.07	n/a	WORD	491535	wordpools/wasnorm_wordpool_576.txt	LTP287	ltpFR2	8	4	ATLAS	53	n/a	n/a	0	0	0
984.684	n/a	START	492342	n/a	LTP287	ltpFR2	8	n/a	n/a	n/a	7	n/a	n/a	n/a	n/a
985.766	n/a	DISTRACTOR	492883	n/a	LTP287	ltpFR2	8	4	n/a	n/a	n/a	n/a	0	0	0
985.782	n/a	PROB	492891	n/a	LTP287	ltpFR2	8	n/a	n/a	n/a	7	17	7	5	5
987.08	n/a	PROB	493540	n/a	LTP287	ltpFR2	8	n/a	n/a	n/a	7	19	7	7	5
988.944	n/a	PROB	494472	n/a	LTP287	ltpFR2	8	n/a	n/a	n/a	7	17	9	7	1
990.358	n/a	PROB	495179	n/a	LTP287	ltpFR2	8	n/a	n/a	n/a	7	16	2	9	5
992.172	n/a	PROB	496086	n/a	LTP287	ltpFR2	8	n/a	n/a	n/a	7	9	3	5	1
994.918	n/a	PROB	497459	n/a	LTP287	ltpFR2	8	n/a	n/a	n/a	7	13	4	5	4
996.666	n/a	PROB	498333	n/a	LTP287	ltpFR2	8	n/a	n/a	n/a	7	17	8	2	7
997.914	n/a	PROB	498957	n/a	LTP287	ltpFR2	8	n/a	n/a	n/a	7	6	3	1	2
999.412	n/a	PROB	499706	n/a	LTP287	ltpFR2	8	n/a	n/a	n/a	7	18	9	2	7
1002.39	n/a	PROB	501195	n/a	LTP287	ltpFR2	8	n/a	n/a	n/a	7	14	2	6	6
1004.172	n/a	PROB	502086	n/a	LTP287	ltpFR2	8	n/a	n/a	n/a	7	24	9	7	8
1006.516	n/a	PROB	503258	n/a	LTP287	ltpFR2	8	n/a	n/a	n/a	7	17	9	7	1
1007.988	n/a	STOP	503994	n/a	LTP287	ltpFR2	8	n/a	n/a	n/a	7	n/a	n/a	n/a	n/a
1010.628	n/a	REC_START	505314	n/a	LTP287	ltpFR2	8	4	n/a	n/a	n/a	n/a	0	0	0
1011.098	n/a	REC_WORD	505549	wordpools/wasnorm_wordpool_576.txt	LTP287	ltpFR2	8	4	YOLK	1633	n/a	n/a	0	0	0
1016.452	n/a	REC_WORD	508226	wordpools/wasnorm_wordpool_576.txt	LTP287	ltpFR2	8	4	POISON	1096	n/a	n/a	0	0	0
1017.396	n/a	REC_WORD	508698	wordpools/wasnorm_wordpool_576.txt	LTP287	ltpFR2	8	4	TURTLE	1522	n/a	n/a	0	0	0
1018.336	n/a	REC_WORD	509168	wordpools/wasnorm_wordpool_576.txt	LTP287	ltpFR2	8	4	TORTOISE	1486	n/a	n/a	0	0	0
1019.182	n/a	REC_WORD	509591	wordpools/wasnorm_wordpool_576.txt	LTP287	ltpFR2	8	4	HANDBAG	684	n/a	n/a	0	0	0
1019.976	n/a	REC_WORD	509988	wordpools/wasnorm_wordpool_576.txt	LTP287	ltpFR2	8	4	SUITCASE	1403	n/a	n/a	0	0	0
1020.974	n/a	REC_WORD	510487	wordpools/wasnorm_wordpool_576.txt	LTP287	ltpFR2	8	4	BASEMENT	94	n/a	n/a	0	0	0
1101.294	n/a	WORD	550647	wordpools/wasnorm_wordpool_576.txt	LTP287	ltpFR2	8	5	SLOPE	1328	n/a	n/a	0	0	0
1103.924	n/a	WORD	551962	wordpools/wasnorm_wordpool_576.txt	LTP287	ltpFR2	8	5	CABIN	211	n/a	n/a	0	0	0
1106.554	n/a	WORD	553277	wordpools/wasnorm_wordpool_576.txt	LTP287	ltpFR2	8	5	TRUCK	1512	n/a	n/a	0	0	0
1109.15	n/a	WORD	554575	wordpools/wasnorm_wordpool_576.txt	LTP287	ltpFR2	8	5	OX	994	n/a	n/a	0	0	0
1111.746	n/a	WORD	555873	wordpools/wasnorm_wordpool_576.txt	LTP287	ltpFR2	8	5	COLONEL	348	n/a	n/a	0	0	0
1114.258	n/a	WORD	557129	wordpools/wasnorm_wordpool_576.txt	LTP287	ltpFR2	8	5	ARMY	39	n/a	n/a	0	0	0
1116.938	n/a	WORD	558469	wordpools/wasnorm_wordpool_576.txt	LTP287	ltpFR2	8	5	BIKE	125	n/a	n/a	0	0	0
1119.684	n/a	WORD	559842	wordpools/wasnorm_wordpool_576.txt	LTP287	ltpFR2	8	5	ONION	977	n/a	n/a	0	0	0
1122.346	n/a	WORD	561173	wordpools/wasnorm_wordpool_576.txt	LTP287	ltpFR2	8	5	SPONGE	1355	n/a	n/a	0	0	0
1124.978	n/a	WORD	562489	wordpools/wasnorm_wordpool_576.txt	LTP287	ltpFR2	8	5	LAKE	796	n/a	n/a	0	0	0
1127.656	n/a	WORD	563828	wordpools/wasnorm_wordpool_576.txt	LTP287	ltpFR2	8	5	COD	340	n/a	n/a	0	0	0
1130.468	n/a	WORD	565234	wordpools/wasnorm_wordpool_576.txt	LTP287	ltpFR2	8	5	EXPERT	543	n/a	n/a	0	0	0
1133.164	n/a	WORD	566582	wordpools/wasnorm_wordpool_576.txt	LTP287	ltpFR2	8	5	SUMMIT	1405	n/a	n/a	0	0	0
1135.592	n/a	WORD	567796	wordpools/wasnorm_wordpool_576.txt	LTP287	ltpFR2	8	5	LACE	792	n/a	n/a	0	0	0
1138.156	n/a	WORD	569078	wordpools/wasnorm_wordpool_576.txt	LTP287	ltpFR2	8	5	BEAST	108	n/a	n/a	0	0	0
1140.952	n/a	WORD	570476	wordpools/wasnorm_wordpool_576.txt	LTP287	ltpFR2	8	5	DRINK	498	n/a	n/a	0	0	0
1143.68	n/a	WORD	571840	wordpools/wasnorm_wordpool_576.txt	LTP287	ltpFR2	8	5	BISON	131	n/a	n/a	0	0	0
1146.16	n/a	WORD	573080	wordpools/wasnorm_wordpool_576.txt	LTP287	ltpFR2	8	5	WASP	1593	n/a	n/a	0	0	0
1148.606	n/a	WORD	574303	wordpools/wasnorm_wordpool_576.txt	LTP287	ltpFR2	8	5	BARREL	91	n/a	n/a	0	0	0
1151.154	n/a	WORD	575577	wordpools/wasnorm_wordpool_576.txt	LTP287	ltpFR2	8	5	HOSTESS	723	n/a	n/a	0	0	0
1153.682	n/a	WORD	576841	wordpools/wasnorm_wordpool_576.txt	LTP287	ltpFR2	8	5	SCISSORS	1250	n/a	n/a	0	0	0
1156.362	n/a	WORD	578181	wordpools/wasnorm_wordpool_576.txt	LTP287	ltpFR2	8	5	GARDEN	623	n/a	n/a	0	0	0
1159.108	n/a	WORD	579554	wordpools/wasnorm_wordpool_576.txt	LTP287	ltpFR2	8	5	SKIRT	1319	n/a	n/a	0	0	0
1161.688	n/a	WORD	580844	wordpools/wasnorm_wordpool_576.txt	LTP287	ltpFR2	8	5	RELISH	1183	n/a	n/a	0	0	0
1163.302	n/a	START	581651	n/a	LTP287	ltpFR2	8	n/a	n/a	n/a	8	n/a	n/a	n/a	n/a
1164.326	n/a	DISTRACTOR	582163	n/a	LTP287	ltpFR2	8	5	n/a	n/a	n/a	n/a	0	0	0
1164.334	n/a	PROB	582167	n/a	LTP287	ltpFR2	8	n/a	n/a	n/a	8	12	1	3	8
1166.796	n/a	PROB	583398	n/a	LTP287	ltpFR2	8	n/a	n/a	n/a	8	16	1	8	7
1168.81	n/a	PROB	584405	n/a	LTP287	ltpFR2	8	n/a	n/a	n/a	8	13	6	6	1
1170.176	n/a	PROB	585088	n/a	LTP287	ltpFR2	8	n/a	n/a	n/a	8	24	9	9	6
1172.288	n/a	PROB	586144	n/a	LTP287	ltpFR2	8	n/a	n/a	n/a	8	16	8	2	6
1173.904	n/a	PROB	586952	n/a	LTP287	ltpFR2	8	n/a	n/a	n/a	8	17	1	7	9
1175.418	n/a	PROB	587709	n/a	LTP287	ltpFR2	8	n/a	n/a	n/a	8	14	8	2	4
1176.616	n/a	PROB	588308	n/a	LTP287	ltpFR2	8	n/a	n/a	n/a	8	9	2	3	4
1178.396	n/a	PROB	589198	n/a	LTP287	ltpFR2	8	n/a	n/a	n/a	8	16	7	3	6
1179.544	n/a	PROB	589772	n/a	LTP287	ltpFR2	8	n/a	n/a	n/a	8	20	7	8	5
1182.108	n/a	PROB	591054	n/a	LTP287	ltpFR2	8	n/a	n/a	n/a	8	21	7	9	5
1183.738	n/a	PROB	591869	n/a	LTP287	ltpFR2	8	n/a	n/a	n/a	8	19	7	8	4
1186.102	n/a	STOP	593051	n/a	LTP287	ltpFR2	8	n/a	n/a	n/a	8	n/a	n/a	n/a	n/a
1189.132	n/a	REC_START	594566	n/a	LTP287	ltpFR2	8	5	n/a	n/a	n/a	n/a	0	0	0
1189.71	n/a	REC_WORD	594855	wordpools/wasnorm_wordpool_576.txt	LTP287	ltpFR2	8	5	GARDEN	623	n/a	n/a	0	0	0
1190.512	n/a	REC_WORD	595256	wordpools/wasnorm_wordpool_576.txt	LTP287	ltpFR2	8	5	SCISSORS	1250	n/a	n/a	0	0	0
1191.332	n/a	REC_WORD	595666	wordpools/wasnorm_wordpool_576.txt	LTP287	ltpFR2	8	5	SKIRT	1319	n/a	n/a	0	0	0
1194.962	n/a	REC_WORD	597481	wordpools/wasnorm_wordpool_576.txt	LTP287	ltpFR2	8	5	COLONEL	348	n/a	n/a	0	0	0
1196.06	n/a	REC_WORD	598030	wordpools/wasnorm_wordpool_576.txt	LTP287	ltpFR2	8	5	ARMY	39	n/a	n/a	0	0	0
1196.9	n/a	REC_WORD	598450	wordpools/wasnorm_wordpool_576.txt	LTP287	ltpFR2	8	5	OX	994	n/a	n/a	0	0	0
1197.68	n/a	REC_WORD	598840	wordpools/wasnorm_wordpool_576.txt	LTP287	ltpFR2	8	5	TRUCK	1512	n/a	n/a	0	0	0
1201.596	n/a	REC_WORD	600798	wordpools/wasnorm_wordpool_576.txt	LTP287	ltpFR2	8	5	RELISH	1183	n/a	n/a	0	0	0
1279.796	n/a	WORD	639898	wordpools/wasnorm_wordpool_576.txt	LTP287	ltpFR2	8	6	ELBOW	520	n/a	n/a	0	0	0
1282.492	n/a	WORD	641246	wordpools/wasnorm_wordpool_576.txt	LTP287	ltpFR2	8	6	BLENDER	136	n/a	n/a	0	0	0
1284.99	n/a	WORD	642495	wordpools/wasnorm_wordpool_576.txt	LTP287	ltpFR2	8	6	KITCHEN	778	n/a	n/a	0	0	0
1287.568	n/a	WORD	643784	wordpools/wasnorm_wordpool_576.txt	LTP287	ltpFR2	8	6	BLOCKADE	137	n/a	n/a	0	0	0
1290.164	n/a	WORD	645082	wordpools/wasnorm_wordpool_576.txt	LTP287	ltpFR2	8	6	NECKLACE	940	n/a	n/a	0	0	0
1292.778	n/a	WORD	646389	wordpools/wasnorm_wordpool_576.txt	LTP287	ltpFR2	8	6	KEEPER	769	n/a	n/a	0	0	0
1295.274	n/a	WORD	647637	wordpools/wasnorm_wordpool_576.txt	LTP287	ltpFR2	8	6	DONOR	485	n/a	n/a	0	0	0
1298.038	n/a	WORD	649019	wordpools/wasnorm_wordpool_576.txt	LTP287	ltpFR2	8	6	MILDEW	893	n/a	n/a	0	0	0
1300.782	n/a	WORD	650391	wordpools/wasnorm_wordpool_576.txt	LTP287	ltpFR2	8	6	LADY	794	n/a	n/a	0	0	0
1303.462	n/a	WORD	651731	wordpools/wasnorm_wordpool_576.txt	LTP287	ltpFR2	8	6	MISTER	901	n/a	n/a	0	0	0
1306.224	n/a	WORD	653112	wordpools/wasnorm_wordpool_576.txt	LTP287	ltpFR2	8	6	BRAKE	166	n/a	n/a	0	0	0
1308.788	n/a	WORD	654394	wordpools/wasnorm_wordpool_576.txt	LTP287	ltpFR2	8	6	PROTON	1132	n/a	n/a	0	0	0
1311.534	n/a	WORD	655767	wordpools/wasnorm_wordpool_576.txt	LTP287	ltpFR2	8	6	CRATER	400	n/a	n/a	0	0	0
1314.048	n/a	WORD	657024	wordpools/wasnorm_wordpool_576.txt	LTP287	ltpFR2	8	6	PERMIT	1051	n/a	n/a	0	0	0
1316.492	n/a	WORD	658246	wordpools/wasnorm_wordpool_576.txt	LTP287	ltpFR2	8	6	CATTLE	261	n/a	n/a	0	0	0
1319.256	n/a	WORD	659628	wordpools/wasnorm_wordpool_576.txt	LTP287	ltpFR2	8	6	FARMER	553	n/a	n/a	0	0	0
1321.884	n/a	WORD	660942	wordpools/wasnorm_wordpool_576.txt	LTP287	ltpFR2	8	6	CUSTARD	429	n/a	n/a	0	0	0
1324.464	n/a	WORD	662232	wordpools/wasnorm_wordpool_576.txt	LTP287	ltpFR2	8	6	THREAD	1460	n/a	n/a	0	0	0
1327.012	n/a	WORD	663506	wordpools/wasnorm_wordpool_576.txt	LTP287	ltpFR2	8	6	STONE	1385	n/a	n/a	0	0	0
1329.474	n/a	WORD	664737	wordpools/wasnorm_wordpool_576.txt	LTP287	ltpFR2	8	6	SLIME	1327	n/a	n/a	0	0	0
1331.97	n/a	WORD	665985	wordpools/wasnorm_wordpool_576.txt	LTP287	ltpFR2	8	6	KNIFE	785	n/a	n/a	0	0	0
1334.582	n/a	WORD	667291	wordpools/wasnorm_wordpool_576.txt	LTP287	ltpFR2	8	6	NEUTRON	947	n/a	n/a	0	0	0
1337.08	n/a	WORD	668540	wordpools/wasnorm_wordpool_576.txt	LTP287	ltpFR2	8	6	PAIL	1002	n/a	n/a	0	0	0
1339.758	n/a	WORD	669879	wordpools/wasnorm_wordpool_576.txt	LTP287	ltpFR2	8	6	HATCHET	691	n/a	n/a	0	0	0
1341.372	n/a	START	670686	n/a	LTP287	ltpFR2	8	n/a	n/a	n/a	9	n/a	n/a	n/a	n/a
1342.368	n/a	DISTRACTOR	671184	n/a	LTP287	ltpFR2	8	6	n/a	n/a	n/a	n/a	0	0	0
1342.372	n/a	PROB	671186	n/a	LTP287	ltpFR2	8	n/a	n/a	n/a	9	15	4	8	1
1344.984	n/a	PROB	672492	n/a	LTP287	ltpFR2	8	n/a	n/a	n/a	9	15	7	2	6
1347.948	n/a	PROB	673974	n/a	LTP287	ltpFR2	8	n/a	n/a	n/a	9	10	1	5	4
1349.644	n/a	PROB	674822	n/a	LTP287	ltpFR2	8	n/a	n/a	n/a	9	18	7	4	7
1351.06	n/a	PROB	675530	n/a	LTP287	ltpFR2	8	n/a	n/a	n/a	9	16	9	3	4
1354.72	n/a	PROB	677360	n/a	LTP287	ltpFR2	8	n/a	n/a	n/a	9	16	3	7	6
1355.784	n/a	PROB	677892	n/a	LTP287	ltpFR2	8	n/a	n/a	n/a	9	19	9	5	5
1356.968	n/a	PROB	678484	n/a	LTP287	ltpFR2	8	n/a	n/a	n/a	9	15	3	8	4
1359.196	n/a	PROB	679598	n/a	LTP287	ltpFR2	8	n/a	n/a	n/a	9	12	3	3	6
1361.226	n/a	PROB	680613	n/a	LTP287	ltpFR2	8	n/a	n/a	n/a	9	20	7	6	7
1362.742	n/a	PROB	681371	n/a	LTP287	ltpFR2	8	n/a	n/a	n/a	9	16	2	8	6
1364.002	n/a	STOP	682001	n/a	LTP287	ltpFR2	8	n/a	n/a	n/a	9	n/a	n/a	n/a	n/a
1367.236	n/a	REC_START	683618	n/a	LTP287	ltpFR2	8	6	n/a	n/a	n/a	n/a	0	0	0
1368.444	n/a	REC_WORD	684222	wordpools/wasnorm_wordpool_576.txt	LTP287	ltpFR2	8	6	CRATER	400	n/a	n/a	0	0	0
1369.31	n/a	REC_WORD	684655	wordpools/wasnorm_wordpool_576.txt	LTP287	ltpFR2	8	6	CATTLE	261	n/a	n/a	0	0	0
1370.024	n/a	REC_WORD	685012	wordpools/wasnorm_wordpool_576.txt	LTP287	ltpFR2	8	6	PERMIT	1051	n/a	n/a	0	0	0
1371.026	n/a	REC_WORD	685513	wordpools/wasnorm_wordpool_576.txt	LTP287	ltpFR2	8	6	FARMER	553	n/a	n/a	0	0	0
1375.87	n/a	REC_WORD	687935	wordpools/wasnorm_wordpool_576.txt	LTP287	ltpFR2	8	6	STONE	1385	n/a	n/a	0	0	0
1457.884	n/a	DISTRACTOR	728942	n/a	LTP287	ltpFR2	8	7	n/a	n/a	n/a	n/a	0	0	0
1457.884	n/a	START	728942	n/a	LTP287	ltpFR2	8	n/a	n/a	n/a	10	n/a	n/a	n/a	n/a
1457.916	n/a	PROB	728958	n/a	LTP287	ltpFR2	8	n/a	n/a	n/a	10	18	6	5	7
1459.73	n/a	PROB	729865	n/a	LTP287	ltpFR2	8	n/a	n/a	n/a	10	18	4	8	6
1461.08	n/a	PROB	730540	n/a	LTP287	ltpFR2	8	n/a	n/a	n/a	10	21	7	7	7
1462.228	n/a	PROB	731114	n/a	LTP287	ltpFR2	8	n/a	n/a	n/a	10	15	5	5	5
1463.242	n/a	PROB	731621	n/a	LTP287	ltpFR2	8	n/a	n/a	n/a	10	12	2	1	9
1465.522	n/a	PROB	732761	n/a	LTP287	ltpFR2	8	n/a	n/a	n/a	10	18	2	7	9
1467.954	n/a	PROB	733977	n/a	LTP287	ltpFR2	8	n/a	n/a	n/a	10	8	6	1	1
1469.45	n/a	PROB	734725	n/a	LTP287	ltpFR2	8	n/a	n/a	n/a	10	17	2	8	7
1470.932	n/a	PROB	735466	n/a	LTP287	ltpFR2	8	n/a	n/a	n/a	10	17	7	1	9
1472.578	n/a	PROB	736289	n/a	LTP287	ltpFR2	8	n/a	n/a	n/a	10	23	5	8	9
1475.54	n/a	PROB	737770	n/a	LTP287	ltpFR2	8	n/a	n/a	n/a	10	19	7	4	8
1478.12	n/a	PROB	739060	n/a	LTP287	ltpFR2	8	n/a	n/a	n/a	10	13	1	9	3
1479.452	n/a	PROB	739726	n/a	LTP287	ltpFR2	8	n/a	n/a	n/a	10	10	1	6	3
1481.306	n/a	STOP	740653	n/a	LTP287	ltpFR2	8	n/a	n/a	n/a	10	n/a	n/a	n/a	n/a
1482.948	n/a	WORD	741474	wordpools/wasnorm_wordpool_576.txt	LTP287	ltpFR2	8	7	POET	1095	n/a	n/a	0	0	0
1485.71	n/a	WORD	742855	wordpools/wasnorm_wordpool_576.txt	LTP287	ltpFR2	8	7	FILM	565	n/a	n/a	0	0	0
1488.172	n/a	WORD	744086	wordpools/wasnorm_wordpool_576.txt	LTP287	ltpFR2	8	7	DOUGHNUT	490	n/a	n/a	0	0	0
1490.636	n/a	WORD	745318	wordpools/wasnorm_wordpool_576.txt	LTP287	ltpFR2	8	7	COMPASS	358	n/a	n/a	0	0	0
1493.214	n/a	WORD	746607	wordpools/wasnorm_wordpool_576.txt	LTP287	ltpFR2	8	7	MESSAGE	888	n/a	n/a	0	0	0
1495.928	n/a	WORD	747964	wordpools/wasnorm_wordpool_576.txt	LTP287	ltpFR2	8	7	WIFE	1609	n/a	n/a	0	0	0
1498.674	n/a	WORD	749337	wordpools/wasnorm_wordpool_576.txt	LTP287	ltpFR2	8	7	GRIZZLY	662	n/a	n/a	0	0	0
1501.254	n/a	WORD	750627	wordpools/wasnorm_wordpool_576.txt	LTP287	ltpFR2	8	7	MASK	876	n/a	n/a	0	0	0
1503.85	n/a	WORD	751925	wordpools/wasnorm_wordpool_576.txt	LTP287	ltpFR2	8	7	SEAFOOD	1260	n/a	n/a	0	0	0
1506.528	n/a	WORD	753264	wordpools/wasnorm_wordpool_576.txt	LTP287	ltpFR2	8	7	MAMMAL	861	n/a	n/a	0	0	0
1509.208	n/a	WORD	754604	wordpools/wasnorm_wordpool_576.txt	LTP287	ltpFR2	8	7	STAMP	1370	n/a	n/a	0	0	0
1511.736	n/a	WORD	755868	wordpools/wasnorm_wordpool_576.txt	LTP287	ltpFR2	8	7	ROD	1203	n/a	n/a	0	0	0
1514.416	n/a	WORD	757208	wordpools/wasnorm_wordpool_576.txt	LTP287	ltpFR2	8	7	WARDROBE	1587	n/a	n/a	0	0	0
1517.196	n/a	WORD	758598	wordpools/wasnorm_wordpool_576.txt	LTP287	ltpFR2	8	7	LOVER	846	n/a	n/a	0	0	0
1519.842	n/a	WORD	759921	wordpools/wasnorm_wordpool_576.txt	LTP287	ltpFR2	8	7	CAPTIVE	240	n/a	n/a	0	0	0
1522.604	n/a	WORD	761302	wordpools/wasnorm_wordpool_576.txt	LTP287	ltpFR2	8	7	BANKER	84	n/a	n/a	0	0	0
1525.366	n/a	WORD	762683	wordpools/wasnorm_wordpool_576.txt	LTP287	ltpFR2	8	7	BANK	83	n/a	n/a	0	0	0
1527.998	n/a	WORD	763999	wordpools/wasnorm_wordpool_576.txt	LTP287	ltpFR2	8	7	WORKER	1621	n/a	n/a	0	0	0
1530.56	n/a	WORD	765280	wordpools/wasnorm_wordpool_576.txt	LTP287	ltpFR2	8	7	OFFICE	972	n/a	n/a	0	0	0
1533.338	n/a	WORD	766669	wordpools/wasnorm_wordpool_576.txt	LTP287	ltpFR2	8	7	PAPER	1011	n/a	n/a	0	0	0
1536.018	n/a	WORD	768009	wordpools/wasnorm_wordpool_576.txt	LTP287	ltpFR2	8	7	DRIVER	499	n/a	n/a	0	0	0
1538.78	n/a	WORD	769390	wordpools/wasnorm_wordpool_576.txt	LTP287	ltpFR2	8	7	ACTRESS	6	n/a	n/a	0	0	0
1541.31	n/a	WORD	770655	wordpools/wasnorm_wordpool_576.txt	LTP287	ltpFR2	8	7	BOX	159	n/a	n/a	0	0	0
1543.974	n/a	WORD	771987	wordpools/wasnorm_wordpool_576.txt	LTP287	ltpFR2	8	7	VALVE	1546	n/a	n/a	0	0	0
1545.588	n/a	START	772794	n/a	LTP287	ltpFR2	8	n/a	n/a	n/a	11	n/a	n/a	n/a	n/a
1546.626	n/a	DISTRACTOR	773313	n/a	LTP287	ltpFR2	8	7	n/a	n/a	n/a	n/a	0	0	0
1546.636	n/a	PROB	773318	n/a	LTP287	ltpFR2	8	n/a	n/a	n/a	11	24	7	9	8
1549.482	n/a	PROB	774741	n/a	LTP287	ltpFR2	8	n/a	n/a	n/a	11	10	2	3	5
1550.862	n/a	PROB	775431	n/a	LTP287	ltpFR2	8	n/a	n/a	n/a	11	13	6	2	5
1553.592	n/a	PROB	776796	n/a	LTP287	ltpFR2	8	n/a	n/a	n/a	11	22	8	9	5
1555.838	n/a	PROB	777919	n/a	LTP287	ltpFR2	8	n/a	n/a	n/a	11	13	8	2	3
1557.186	n/a	PROB	778593	n/a	LTP287	ltpFR2	8	n/a	n/a	n/a	11	22	8	7	7
1559.85	n/a	PROB	779925	n/a	LTP287	ltpFR2	8	n/a	n/a	n/a	11	23	9	7	7
1561.248	n/a	PROB	780624	n/a	LTP287	ltpFR2	8	n/a	n/a	n/a	11	10	4	5	1
1562.612	n/a	PROB	781306	n/a	LTP287	ltpFR2	8	n/a	n/a	n/a	11	17	2	8	7
1563.91	n/a	PROB	781955	n/a	LTP287	ltpFR2	8	n/a	n/a	n/a	11	18	7	8	3
1566.09	n/a	PROB	783045	n/a	LTP287	ltpFR2	8	n/a	n/a	n/a	11	28	8	2	8
1569.314	n/a	STOP	784657	n/a	LTP287	ltpFR2	8	n/a	n/a	n/a	11	n/a	n/a	n/a	n/a
1571.416	n/a	REC_START	785708	n/a	LTP287	ltpFR2	8	7	n/a	n/a	n/a	n/a	0	0	0
1579.27	n/a	REC_WORD	789635	wordpools/wasnorm_wordpool_576.txt	LTP287	ltpFR2	8	7	ACTRESS	6	n/a	n/a	0	0	0
1581.118	n/a	REC_WORD	790559	wordpools/wasnorm_wordpool_576.txt	LTP287	ltpFR2	8	7	MASK	876	n/a	n/a	0	0	0
1582.004	n/a	REC_WORD	791002	wordpools/wasnorm_wordpool_576.txt	LTP287	ltpFR2	8	7	GRIZZLY	662	n/a	n/a	0	0	0
1594.23	n/a	REC_WORD	797115	wordpools/wasnorm_wordpool_576.txt	LTP287	ltpFR2	8	7	STAMP	1370	n/a	n/a	0	0	0
1595.68	n/a	REC_WORD	797840	wordpools/wasnorm_wordpool_576.txt	LTP287	ltpFR2	8	7	MAMMAL	861	n/a	n/a	0	0	0
1601.224	n/a	REC_WORD	800612	wordpools/wasnorm_wordpool_576.txt	LTP287	ltpFR2	8	7	COMPASS	358	n/a	n/a	0	0	0
1602.452	n/a	REC_WORD	801226	wordpools/wasnorm_wordpool_576.txt	LTP287	ltpFR2	8	7	DOUGHNUT	490	n/a	n/a	0	0	0
1619.588	n/a	REC_WORD	809794	wordpools/wasnorm_wordpool_576.txt	LTP287	ltpFR2	8	7	SEAFOOD	1260	n/a	n/a	0	0	0
1662.098	n/a	DISTRACTOR	831049	n/a	LTP287	ltpFR2	8	8	n/a	n/a	n/a	n/a	0	0	0
1662.098	n/a	START	831049	n/a	LTP287	ltpFR2	8	n/a	n/a	n/a	12	n/a	n/a	n/a	n/a
1662.132	n/a	PROB	831066	n/a	LTP287	ltpFR2	8	n/a	n/a	n/a	12	5	2	1	2
1663.312	n/a	PROB	831656	n/a	LTP287	ltpFR2	8	n/a	n/a	n/a	12	8	3	3	2
1664.844	n/a	PROB	832422	n/a	LTP287	ltpFR2	8	n/a	n/a	n/a	12	15	3	9	3
1666.758	n/a	PROB	833379	n/a	LTP287	ltpFR2	8	n/a	n/a	n/a	12	15	8	5	2
1668.156	n/a	PROB	834078	n/a	LTP287	ltpFR2	8	n/a	n/a	n/a	12	9	2	5	2
1669.354	n/a	PROB	834677	n/a	LTP287	ltpFR2	8	n/a	n/a	n/a	12	16	8	6	2
1671.284	n/a	PROB	835642	n/a	LTP287	ltpFR2	8	n/a	n/a	n/a	12	22	7	6	9
1674.196	n/a	PROB	837098	n/a	LTP287	ltpFR2	8	n/a	n/a	n/a	12	17	9	1	7
1675.812	n/a	PROB	837906	n/a	LTP287	ltpFR2	8	n/a	n/a	n/a	12	21	4	8	9
1677.608	n/a	PROB	838804	n/a	LTP287	ltpFR2	8	n/a	n/a	n/a	12	8	2	4	2
1679.172	n/a	PROB	839586	n/a	LTP287	ltpFR2	8	n/a	n/a	n/a	12	15	8	4	3
1681.636	n/a	PROB	840818	n/a	LTP287	ltpFR2	8	n/a	n/a	n/a	12	9	6	2	1
1683.416	n/a	PROB	841708	n/a	LTP287	ltpFR2	8	n/a	n/a	n/a	12	9	1	6	2
1684.716	n/a	STOP	842358	n/a	LTP287	ltpFR2	8	n/a	n/a	n/a	12	n/a	n/a	n/a	n/a
1686.996	n/a	WORD	843498	wordpools/wasnorm_wordpool_576.txt	LTP287	ltpFR2	8	8	PIGMENT	1066	n/a	n/a	0	0	0
1689.508	n/a	WORD	844754	wordpools/wasnorm_wordpool_576.txt	LTP287	ltpFR2	8	8	VELVET	1555	n/a	n/a	0	0	0
1692.12	n/a	WORD	846060	wordpools/wasnorm_wordpool_576.txt	LTP287	ltpFR2	8	8	MAPLE	866	n/a	n/a	0	0	0
1694.584	n/a	WORD	847292	wordpools/wasnorm_wordpool_576.txt	LTP287	ltpFR2	8	8	LABEL	790	n/a	n/a	0	0	0
1697.212	n/a	WORD	848606	wordpools/wasnorm_wordpool_576.txt	LTP287	ltpFR2	8	8	GIFT	635	n/a	n/a	0	0	0
1699.994	n/a	WORD	849997	wordpools/wasnorm_wordpool_576.txt	LTP287	ltpFR2	8	8	SHELTER	1282	n/a	n/a	0	0	0
1702.456	n/a	WORD	851228	wordpools/wasnorm_wordpool_576.txt	LTP287	ltpFR2	8	8	BRIEFCASE	175	n/a	n/a	0	0	0
1704.97	n/a	WORD	852485	wordpools/wasnorm_wordpool_576.txt	LTP287	ltpFR2	8	8	MARINE	869	n/a	n/a	0	0	0
1707.548	n/a	WORD	853774	wordpools/wasnorm_wordpool_576.txt	LTP287	ltpFR2	8	8	CANAL	226	n/a	n/a	0	0	0
1710.078	n/a	WORD	855039	wordpools/wasnorm_wordpool_576.txt	LTP287	ltpFR2	8	8	CEILING	265	n/a	n/a	0	0	0
1712.774	n/a	WORD	856387	wordpools/wasnorm_wordpool_576.txt	LTP287	ltpFR2	8	8	QUEEN	1149	n/a	n/a	0	0	0
1715.47	n/a	WORD	857735	wordpools/wasnorm_wordpool_576.txt	LTP287	ltpFR2	8	8	BRACES	164	n/a	n/a	0	0	0
1717.95	n/a	WORD	858975	wordpools/wasnorm_wordpool_576.txt	LTP287	ltpFR2	8	8	LAGOON	795	n/a	n/a	0	0	0
1720.412	n/a	WORD	860206	wordpools/wasnorm_wordpool_576.txt	LTP287	ltpFR2	8	8	BODY	145	n/a	n/a	0	0	0
1723.142	n/a	WORD	861571	wordpools/wasnorm_wordpool_576.txt	LTP287	ltpFR2	8	8	CRUTCH	417	n/a	n/a	0	0	0
1725.688	n/a	WORD	862844	wordpools/wasnorm_wordpool_576.txt	LTP287	ltpFR2	8	8	AWARD	63	n/a	n/a	0	0	0
1728.118	n/a	WORD	864059	wordpools/wasnorm_wordpool_576.txt	LTP287	ltpFR2	8	8	BELLY	119	n/a	n/a	0	0	0
1730.932	n/a	WORD	865466	wordpools/wasnorm_wordpool_576.txt	LTP287	ltpFR2	8	8	TILE	1468	n/a	n/a	0	0	0
1733.592	n/a	WORD	866796	wordpools/wasnorm_wordpool_576.txt	LTP287	ltpFR2	8	8	DAISY	435	n/a	n/a	0	0	0
1736.288	n/a	WORD	868144	wordpools/wasnorm_wordpool_576.txt	LTP287	ltpFR2	8	8	BADGE	68	n/a	n/a	0	0	0
1738.768	n/a	WORD	869384	wordpools/wasnorm_wordpool_576.txt	LTP287	ltpFR2	8	8	FRUIT	610	n/a	n/a	0	0	0
1741.198	n/a	WORD	870599	wordpools/wasnorm_wordpool_576.txt	LTP287	ltpFR2	8	8	PERFUME	1049	n/a	n/a	0	0	0
1743.794	n/a	WORD	871897	wordpools/wasnorm_wordpool_576.txt	LTP287	ltpFR2	8	8	ZIPPER	1636	n/a	n/a	0	0	0
1746.29	n/a	WORD	873145	wordpools/wasnorm_wordpool_576.txt	LTP287	ltpFR2	8	8	PLAID	1080	n/a	n/a	0	0	0
1747.906	n/a	START	873953	n/a	LTP287	ltpFR2	8	n/a	n/a	n/a	13	n/a	n/a	n/a	n/a
1748.854	n/a	DISTRACTOR	874427	n/a	LTP287	ltpFR2	8	8	n/a	n/a	n/a	n/a	0	0	0
1748.87	n/a	PROB	874435	n/a	LTP287	ltpFR2	8	n/a	n/a	n/a	13	17	5	3	9
1751.25	n/a	PROB	875625	n/a	LTP287	ltpFR2	8	n/a	n/a	n/a	13	11	4	4	3
1753.398	n/a	PROB	876699	n/a	LTP287	ltpFR2	8	n/a	n/a	n/a	13	7	1	1	5
1754.646	n/a	PROB	877323	n/a	LTP287	ltpFR2	8	n/a	n/a	n/a	13	19	8	4	7
1756.826	n/a	PROB	878413	n/a	LTP287	ltpFR2	8	n/a	n/a	n/a	13	15	1	5	9
1759.006	n/a	PROB	879503	n/a	LTP287	ltpFR2	8	n/a	n/a	n/a	13	25	9	8	8
1762.732	n/a	PROB	881366	n/a	LTP287	ltpFR2	8	n/a	n/a	n/a	13	16	5	5	6
1764.048	n/a	PROB	882024	n/a	LTP287	ltpFR2	8	n/a	n/a	n/a	13	19	3	8	8
1766.526	n/a	PROB	883263	n/a	LTP287	ltpFR2	8	n/a	n/a	n/a	13	18	3	8	7
1767.992	n/a	PROB	883996	n/a	LTP287	ltpFR2	8	n/a	n/a	n/a	13	14	4	3	7
1769.522	n/a	PROB	884761	n/a	LTP287	ltpFR2	8	n/a	n/a	n/a	13	13	2	5	6
1771.286	n/a	STOP	885643	n/a	LTP287	ltpFR2	8	n/a	n/a	n/a	13	n/a	n/a	n/a	n/a
1773.816	n/a	REC_START	886908	n/a	LTP287	ltpFR2	8	8	n/a	n/a	n/a	n/a	0	0	0
1804.544	n/a	REC_WORD	902272	wordpools/wasnorm_wordpool_576.txt	LTP287	ltpFR2	8	8	ACTOR	5	n/a	n/a	0	0	0
1822.752	n/a	REC_WORD	911376	wordpools/wasnorm_wordpool_576.txt	LTP287	ltpFR2	8	8	PLAID	1080	n/a	n/a	0	0	0
1823.49	n/a	REC_WORD	911745	wordpools/wasnorm_wordpool_576.txt	LTP287	ltpFR2	8	8	ZIPPER	1636	n/a	n/a	0	0	0
1850.42	n/a	REST_REWET	925210	n/a	LTP287	ltpFR2	8	8	n/a	n/a	n/a	n/a	0	0	0
2154.62	n/a	WORD	1077310	wordpools/wasnorm_wordpool_576.txt	LTP287	ltpFR2	8	9	YARN	1631	n/a	n/a	0	0	0
2157.366	n/a	WORD	1078683	wordpools/wasnorm_wordpool_576.txt	LTP287	ltpFR2	8	9	POWDER	1117	n/a	n/a	0	0	0
2160.112	n/a	WORD	1080056	wordpools/wasnorm_wordpool_576.txt	LTP287	ltpFR2	8	9	TURKEY	1520	n/a	n/a	0	0	0
2162.926	n/a	WORD	1081463	wordpools/wasnorm_wordpool_576.txt	LTP287	ltpFR2	8	9	MARROW	872	n/a	n/a	0	0	0
2165.438	n/a	WORD	1082719	wordpools/wasnorm_wordpool_576.txt	LTP287	ltpFR2	8	9	BARLEY	88	n/a	n/a	0	0	0
2167.952	n/a	WORD	1083976	wordpools/wasnorm_wordpool_576.txt	LTP287	ltpFR2	8	9	CLAMP	316	n/a	n/a	0	0	0
2170.414	n/a	WORD	1085207	wordpools/wasnorm_wordpool_576.txt	LTP287	ltpFR2	8	9	STAKE	1368	n/a	n/a	0	0	0
2172.978	n/a	WORD	1086489	wordpools/wasnorm_wordpool_576.txt	LTP287	ltpFR2	8	9	PIZZA	1079	n/a	n/a	0	0	0
2175.49	n/a	WORD	1087745	wordpools/wasnorm_wordpool_576.txt	LTP287	ltpFR2	8	9	NOMAD	955	n/a	n/a	0	0	0
2178.186	n/a	WORD	1089093	wordpools/wasnorm_wordpool_576.txt	LTP287	ltpFR2	8	9	TOURIST	1488	n/a	n/a	0	0	0
2180.648	n/a	WORD	1090324	wordpools/wasnorm_wordpool_576.txt	LTP287	ltpFR2	8	9	SPOOL	1356	n/a	n/a	0	0	0
2183.244	n/a	WORD	1091622	wordpools/wasnorm_wordpool_576.txt	LTP287	ltpFR2	8	9	CABBAGE	210	n/a	n/a	0	0	0
2185.874	n/a	WORD	1092937	wordpools/wasnorm_wordpool_576.txt	LTP287	ltpFR2	8	9	EAGLE	512	n/a	n/a	0	0	0
2188.554	n/a	WORD	1094277	wordpools/wasnorm_wordpool_576.txt	LTP287	ltpFR2	8	9	HOUND	724	n/a	n/a	0	0	0
2191.0	n/a	WORD	1095500	wordpools/wasnorm_wordpool_576.txt	LTP287	ltpFR2	8	9	CATCHER	258	n/a	n/a	0	0	0
2193.612	n/a	WORD	1096806	wordpools/wasnorm_wordpool_576.txt	LTP287	ltpFR2	8	9	BANQUET	86	n/a	n/a	0	0	0
2196.358	n/a	WORD	1098179	wordpools/wasnorm_wordpool_576.txt	LTP287	ltpFR2	8	9	OYSTER	995	n/a	n/a	0	0	0
2198.988	n/a	WORD	1099494	wordpools/wasnorm_wordpool_576.txt	LTP287	ltpFR2	8	9	HELMET	702	n/a	n/a	0	0	0
2201.65	n/a	WORD	1100825	wordpools/wasnorm_wordpool_576.txt	LTP287	ltpFR2	8	9	MAILMAN	858	n/a	n/a	0	0	0
2204.446	n/a	WORD	1102223	wordpools/wasnorm_wordpool_576.txt	LTP287	ltpFR2	8	9	LUMBER	848	n/a	n/a	0	0	0
2207.258	n/a	WORD	1103629	wordpools/wasnorm_wordpool_576.txt	LTP287	ltpFR2	8	9	PORTRAIT	1111	n/a	n/a	0	0	0
2209.722	n/a	WORD	1104861	wordpools/wasnorm_wordpool_576.txt	LTP287	ltpFR2	8	9	NOVEL	960	n/a	n/a	0	0	0
2212.484	n/a	WORD	1106242	wordpools/wasnorm_wordpool_576.txt	LTP287	ltpFR2	8	9	SHELF	1280	n/a	n/a	0	0	0
2214.998	n/a	WORD	1107499	wordpools/wasnorm_wordpool_576.txt	LTP287	ltpFR2	8	9	SNAKE	1333	n/a	n/a	0	0	0
2216.612	n/a	START	1108306	n/a	LTP287	ltpFR2	8	n/a	n/a	n/a	14	n/a	n/a	n/a	n/a
2217.506	n/a	DISTRACTOR	1108753	n/a	LTP287	ltpFR2	8	9	n/a	n/a	n/a	n/a	0	0	0
2217.51	n/a	PROB	1108755	n/a	LTP287	ltpFR2	8	n/a	n/a	n/a	14	17	9	5	3
2219.092	n/a	PROB	1109546	n/a	LTP287	ltpFR2	8	n/a	n/a	n/a	14	16	1	6	9
2222.104	n/a	PROB	1111052	n/a	LTP287	ltpFR2	8	n/a	n/a	n/a	14	22	9	4	9
2223.618	n/a	PROB	1111809	n/a	LTP287	ltpFR2	8	n/a	n/a	n/a	14	15	9	4	2
2226.164	n/a	PROB	1113082	n/a	LTP287	ltpFR2	8	n/a	n/a	n/a	14	17	4	6	7
2227.512	n/a	PROB	1113756	n/a	LTP287	ltpFR2	8	n/a	n/a	n/a	14	14	7	5	2
2228.978	n/a	PROB	1114489	n/a	LTP287	ltpFR2	8	n/a	n/a	n/a	14	14	5	4	5
2230.142	n/a	PROB	1115071	n/a	LTP287	ltpFR2	8	n/a	n/a	n/a	14	20	5	7	8
2233.538	n/a	PROB	1116769	n/a	LTP287	ltpFR2	8	n/a	n/a	n/a	14	14	6	3	5
2235.052	n/a	PROB	1117526	n/a	LTP287	ltpFR2	8	n/a	n/a	n/a	14	15	8	1	8
2236.916	n/a	PROB	1118458	n/a	LTP287	ltpFR2	8	n/a	n/a	n/a	14	12	1	8	3
2238.846	n/a	PROB	1119423	n/a	LTP287	ltpFR2	8	n/a	n/a	n/a	14	8	1	2	5
2240.438	n/a	STOP	1120219	n/a	LTP287	ltpFR2	8	n/a	n/a	n/a	14	n/a	n/a	n/a	n/a
2242.408	n/a	REC_START	1121204	n/a	LTP287	ltpFR2	8	9	n/a	n/a	n/a	n/a	0	0	0
2242.948	n/a	REC_WORD	1121474	wordpools/wasnorm_wordpool_576.txt	LTP287	ltpFR2	8	9	YARN	1631	n/a	n/a	0	0	0
2243.888	n/a	REC_WORD	1121944	wordpools/wasnorm_wordpool_576.txt	LTP287	ltpFR2	8	9	SNAKE	1333	n/a	n/a	0	0	0
2289.756	n/a	REC_WORD	1144878	wordpools/wasnorm_wordpool_576.txt	LTP287	ltpFR2	8	9	BARLEY	88	n/a	n/a	0	0	0
2333.058	n/a	DISTRACTOR	1166529	n/a	LTP287	ltpFR2	8	10	n/a	n/a	n/a	n/a	0	0	0
2333.058	n/a	START	1166529	n/a	LTP287	ltpFR2	8	n/a	n/a	n/a	15	n/a	n/a	n/a	n/a
2333.09	n/a	PROB	1166545	n/a	LTP287	ltpFR2	8	n/a	n/a	n/a	15	18	7	2	9
2334.47	n/a	PROB	1167235	n/a	LTP287	ltpFR2	8	n/a	n/a	n/a	15	20	9	7	4
2336.368	n/a	PROB	1168184	n/a	LTP287	ltpFR2	8	n/a	n/a	n/a	15	12	3	8	2
2340.646	n/a	PROB	1170323	n/a	LTP287	ltpFR2	8	n/a	n/a	n/a	15	12	7	3	2
2342.078	n/a	PROB	1171039	n/a	LTP287	ltpFR2	8	n/a	n/a	n/a	15	10	2	4	4
2344.224	n/a	PROB	1172112	n/a	LTP287	ltpFR2	8	n/a	n/a	n/a	15	9	6	2	1
2346.57	n/a	PROB	1173285	n/a	LTP287	ltpFR2	8	n/a	n/a	n/a	15	18	9	1	8
2347.884	n/a	PROB	1173942	n/a	LTP287	ltpFR2	8	n/a	n/a	n/a	15	15	6	3	6
2349.498	n/a	PROB	1174749	n/a	LTP287	ltpFR2	8	n/a	n/a	n/a	15	9	1	4	4
2350.814	n/a	PROB	1175407	n/a	LTP287	ltpFR2	8	n/a	n/a	n/a	15	12	8	3	1
2352.844	n/a	PROB	1176422	n/a	LTP287	ltpFR2	8	n/a	n/a	n/a	15	7	4	1	2
2354.642	n/a	PROB	1177321	n/a	LTP287	ltpFR2	8	n/a	n/a	n/a	15	14	3	3	8
2356.936	n/a	STOP	1178468	n/a	LTP287	ltpFR2	8	n/a	n/a	n/a	15	n/a	n/a	n/a	n/a
2358.12	n/a	WORD	1179060	wordpools/wasnorm_wordpool_576.txt	LTP287	ltpFR2	8	10	ROBIN	1199	n/a	n/a	0	0	0
2360.65	n/a	WORD	1180325	wordpools/wasnorm_wordpool_576.txt	LTP287	ltpFR2	8	10	ROOSTER	1209	n/a	n/a	0	0	0
2363.162	n/a	WORD	1181581	wordpools/wasnorm_wordpool_576.txt	LTP287	ltpFR2	8	10	DIME	466	n/a	n/a	0	0	0
2365.774	n/a	WORD	1182887	wordpools/wasnorm_wordpool_576.txt	LTP287	ltpFR2	8	10	TRACTOR	1493	n/a	n/a	0	0	0
2368.288	n/a	WORD	1184144	wordpools/wasnorm_wordpool_576.txt	LTP287	ltpFR2	8	10	VIKING	1565	n/a	n/a	0	0	0
2371.1	n/a	WORD	1185550	wordpools/wasnorm_wordpool_576.txt	LTP287	ltpFR2	8	10	BREAST	171	n/a	n/a	0	0	0
2373.746	n/a	WORD	1186873	wordpools/wasnorm_wordpool_576.txt	LTP287	ltpFR2	8	10	BEAVER	109	n/a	n/a	0	0	0
2376.292	n/a	WORD	1188146	wordpools/wasnorm_wordpool_576.txt	LTP287	ltpFR2	8	10	SALMON	1227	n/a	n/a	0	0	0
2379.074	n/a	WORD	1189537	wordpools/wasnorm_wordpool_576.txt	LTP287	ltpFR2	8	10	BANJO	82	n/a	n/a	0	0	0
2381.702	n/a	WORD	1190851	wordpools/wasnorm_wordpool_576.txt	LTP287	ltpFR2	8	10	CANYON	235	n/a	n/a	0	0	0
2384.264	n/a	WORD	1192132	wordpools/wasnorm_wordpool_576.txt	LTP287	ltpFR2	8	10	SUBWAY	1400	n/a	n/a	0	0	0
2386.778	n/a	WORD	1193389	wordpools/wasnorm_wordpool_576.txt	LTP287	ltpFR2	8	10	RAFT	1159	n/a	n/a	0	0	0
2389.406	n/a	WORD	1194703	wordpools/wasnorm_wordpool_576.txt	LTP287	ltpFR2	8	10	ANKLE	24	n/a	n/a	0	0	0
2392.036	n/a	WORD	1196018	wordpools/wasnorm_wordpool_576.txt	LTP287	ltpFR2	8	10	FOOT	590	n/a	n/a	0	0	0
2394.532	n/a	WORD	1197266	wordpools/wasnorm_wordpool_576.txt	LTP287	ltpFR2	8	10	COCKTAIL	338	n/a	n/a	0	0	0
2397.144	n/a	WORD	1198572	wordpools/wasnorm_wordpool_576.txt	LTP287	ltpFR2	8	10	WHISTLE	1606	n/a	n/a	0	0	0
2399.79	n/a	WORD	1199895	wordpools/wasnorm_wordpool_576.txt	LTP287	ltpFR2	8	10	BURGLAR	200	n/a	n/a	0	0	0
2402.254	n/a	WORD	1201127	wordpools/wasnorm_wordpool_576.txt	LTP287	ltpFR2	8	10	CONVICT	371	n/a	n/a	0	0	0
2404.734	n/a	WORD	1202367	wordpools/wasnorm_wordpool_576.txt	LTP287	ltpFR2	8	10	FLUTE	585	n/a	n/a	0	0	0
2407.446	n/a	WORD	1203723	wordpools/wasnorm_wordpool_576.txt	LTP287	ltpFR2	8	10	TAXI	1438	n/a	n/a	0	0	0
2410.076	n/a	WORD	1205038	wordpools/wasnorm_wordpool_576.txt	LTP287	ltpFR2	8	10	GLOBE	641	n/a	n/a	0	0	0
2412.722	n/a	WORD	1206361	wordpools/wasnorm_wordpool_576.txt	LTP287	ltpFR2	8	10	DAUGHTER	442	n/a	n/a	0	0	0
2415.434	n/a	WORD	1207717	wordpools/wasnorm_wordpool_576.txt	LTP287	ltpFR2	8	10	PARENT	1013	n/a	n/a	0	0	0
2418.13	n/a	WORD	1209065	wordpools/wasnorm_wordpool_576.txt	LTP287	ltpFR2	8	10	PEDAL	1037	n/a	n/a	0	0	0
2419.744	n/a	START	1209872	n/a	LTP287	ltpFR2	8	n/a	n/a	n/a	16	n/a	n/a	n/a	n/a
2420.662	n/a	DISTRACTOR	1210331	n/a	LTP287	ltpFR2	8	10	n/a	n/a	n/a	n/a	0	0	0
2420.676	n/a	PROB	1210338	n/a	LTP287	ltpFR2	8	n/a	n/a	n/a	16	18	9	6	3
2422.308	n/a	PROB	1211154	n/a	LTP287	ltpFR2	8	n/a	n/a	n/a	16	8	4	1	3
2423.99	n/a	PROB	1211995	n/a	LTP287	ltpFR2	8	n/a	n/a	n/a	16	14	2	3	9
2426.818	n/a	PROB	1213409	n/a	LTP287	ltpFR2	8	n/a	n/a	n/a	16	12	4	6	2
2428.516	n/a	PROB	1214258	n/a	LTP287	ltpFR2	8	n/a	n/a	n/a	16	16	7	5	4
2431.062	n/a	PROB	1215531	n/a	LTP287	ltpFR2	8	n/a	n/a	n/a	16	18	8	2	8
2432.476	n/a	PROB	1216238	n/a	LTP287	ltpFR2	8	n/a	n/a	n/a	16	18	3	6	9
2434.106	n/a	PROB	1217053	n/a	LTP287	ltpFR2	8	n/a	n/a	n/a	16	19	9	7	3
2435.604	n/a	PROB	1217802	n/a	LTP287	ltpFR2	8	n/a	n/a	n/a	16	25	8	9	8
2437.586	n/a	PROB	1218793	n/a	LTP287	ltpFR2	8	n/a	n/a	n/a	16	16	1	7	8
2439.498	n/a	PROB	1219749	n/a	LTP287	ltpFR2	8	n/a	n/a	n/a	16	16	9	3	4
2441.446	n/a	PROB	1220723	n/a	LTP287	ltpFR2	8	n/a	n/a	n/a	16	22	9	6	7
2443.576	n/a	STOP	1221788	n/a	LTP287	ltpFR2	8	n/a	n/a	n/a	16	n/a	n/a	n/a	n/a
2445.574	n/a	REC_START	1222787	n/a	LTP287	ltpFR2	8	10	n/a	n/a	n/a	n/a	0	0	0
2480.144	n/a	REC_WORD	1240072	wordpools/wasnorm_wordpool_576.txt	LTP287	ltpFR2	8	10	GARDENER	-1	n/a	n/a	0	0	0
2488.212	n/a	REC_WORD	1244106	wordpools/wasnorm_wordpool_576.txt	LTP287	ltpFR2	8	10	CANYON	235	n/a	n/a	0	0	0
2489.128	n/a	REC_WORD	1244564	wordpools/wasnorm_wordpool_576.txt	LTP287	ltpFR2	8	10	RAFT	1159	n/a	n/a	0	0	0
2536.288	n/a	WORD	1268144	wordpools/wasnorm_wordpool_576.txt	LTP287	ltpFR2	8	11	JELLO	754	n/a	n/a	0	0	0
2538.886	n/a	WORD	1269443	wordpools/wasnorm_wordpool_576.txt	LTP287	ltpFR2	8	11	NAPKIN	937	n/a	n/a	0	0	0
2541.564	n/a	WORD	1270782	wordpools/wasnorm_wordpool_576.txt	LTP287	ltpFR2	8	11	LASER	801	n/a	n/a	0	0	0
2544.128	n/a	WORD	1272064	wordpools/wasnorm_wordpool_576.txt	LTP287	ltpFR2	8	11	FEMALE	559	n/a	n/a	0	0	0
2546.608	n/a	WORD	1273304	wordpools/wasnorm_wordpool_576.txt	LTP287	ltpFR2	8	11	TROMBONE	1508	n/a	n/a	0	0	0
2549.072	n/a	WORD	1274536	wordpools/wasnorm_wordpool_576.txt	LTP287	ltpFR2	8	11	NOTEBOOK	959	n/a	n/a	0	0	0
2551.682	n/a	WORD	1275841	wordpools/wasnorm_wordpool_576.txt	LTP287	ltpFR2	8	11	JEANS	752	n/a	n/a	0	0	0
2554.162	n/a	WORD	1277081	wordpools/wasnorm_wordpool_576.txt	LTP287	ltpFR2	8	11	CRAB	397	n/a	n/a	0	0	0
2556.908	n/a	WORD	1278454	wordpools/wasnorm_wordpool_576.txt	LTP287	ltpFR2	8	11	SEAGULL	1261	n/a	n/a	0	0	0
2559.538	n/a	WORD	1279769	wordpools/wasnorm_wordpool_576.txt	LTP287	ltpFR2	8	11	OMELET	976	n/a	n/a	0	0	0
2562.218	n/a	WORD	1281109	wordpools/wasnorm_wordpool_576.txt	LTP287	ltpFR2	8	11	SKILLET	1317	n/a	n/a	0	0	0
2564.698	n/a	WORD	1282349	wordpools/wasnorm_wordpool_576.txt	LTP287	ltpFR2	8	11	CROSS	413	n/a	n/a	0	0	0
2567.41	n/a	WORD	1283705	wordpools/wasnorm_wordpool_576.txt	LTP287	ltpFR2	8	11	CHILD	299	n/a	n/a	0	0	0
2569.99	n/a	WORD	1284995	wordpools/wasnorm_wordpool_576.txt	LTP287	ltpFR2	8	11	PLIERS	1089	n/a	n/a	0	0	0
2572.668	n/a	WORD	1286334	wordpools/wasnorm_wordpool_576.txt	LTP287	ltpFR2	8	11	GOBLIN	645	n/a	n/a	0	0	0
2575.432	n/a	WORD	1287716	wordpools/wasnorm_wordpool_576.txt	LTP287	ltpFR2	8	11	SCULPTURE	1258	n/a	n/a	0	0	0
2578.228	n/a	WORD	1289114	wordpools/wasnorm_wordpool_576.txt	LTP287	ltpFR2	8	11	RUST	1219	n/a	n/a	0	0	0
2580.706	n/a	WORD	1290353	wordpools/wasnorm_wordpool_576.txt	LTP287	ltpFR2	8	11	SPACE	1345	n/a	n/a	0	0	0
2583.236	n/a	WORD	1291618	wordpools/wasnorm_wordpool_576.txt	LTP287	ltpFR2	8	11	STAR	1373	n/a	n/a	0	0	0
2586.05	n/a	WORD	1293025	wordpools/wasnorm_wordpool_576.txt	LTP287	ltpFR2	8	11	SPOON	1357	n/a	n/a	0	0	0
2588.678	n/a	WORD	1294339	wordpools/wasnorm_wordpool_576.txt	LTP287	ltpFR2	8	11	WRENCH	1625	n/a	n/a	0	0	0
2591.442	n/a	WORD	1295721	wordpools/wasnorm_wordpool_576.txt	LTP287	ltpFR2	8	11	SUSPECT	1415	n/a	n/a	0	0	0
2594.238	n/a	WORD	1297119	wordpools/wasnorm_wordpool_576.txt	LTP287	ltpFR2	8	11	INMATE	738	n/a	n/a	0	0	0
2596.968	n/a	WORD	1298484	wordpools/wasnorm_wordpool_576.txt	LTP287	ltpFR2	8	11	BUGGY	188	n/a	n/a	0	0	0
2598.58	n/a	START	1299290	n/a	LTP287	ltpFR2	8	n/a	n/a	n/a	17	n/a	n/a	n/a	n/a
2599.55	n/a	DISTRACTOR	1299775	n/a	LTP287	ltpFR2	8	11	n/a	n/a	n/a	n/a	0	0	0
2599.562	n/a	PROB	1299781	n/a	LTP287	ltpFR2	8	n/a	n/a	n/a	17	21	9	9	3
2602.192	n/a	PROB	1301096	n/a	LTP287	ltpFR2	8	n/a	n/a	n/a	17	14	6	4	4
2604.588	n/a	PROB	1302294	n/a	LTP287	ltpFR2	8	n/a	n/a	n/a	17	14	7	3	4
2605.704	n/a	PROB	1302852	n/a	LTP287	ltpFR2	8	n/a	n/a	n/a	17	23	9	7	7
2607.368	n/a	PROB	1303684	n/a	LTP287	ltpFR2	8	n/a	n/a	n/a	17	12	6	3	3
2609.248	n/a	PROB	1304624	n/a	LTP287	ltpFR2	8	n/a	n/a	n/a	17	7	1	1	5
2611.262	n/a	PROB	1305631	n/a	LTP287	ltpFR2	8	n/a	n/a	n/a	17	22	8	9	5
2614.608	n/a	PROB	1307304	n/a	LTP287	ltpFR2	8	n/a	n/a	n/a	17	14	4	4	6
2616.438	n/a	PROB	1308219	n/a	LTP287	ltpFR2	8	n/a	n/a	n/a	17	11	2	8	1
2618.268	n/a	PROB	1309134	n/a	LTP287	ltpFR2	8	n/a	n/a	n/a	17	11	2	3	6
2620.632	n/a	PROB	1310316	n/a	LTP287	ltpFR2	8	n/a	n/a	n/a	17	19	4	6	9
2622.012	n/a	STOP	1311006	n/a	LTP287	ltpFR2	8	n/a	n/a	n/a	17	n/a	n/a	n/a	n/a
2624.526	n/a	REC_START	1312263	n/a	LTP287	ltpFR2	8	11	n/a	n/a	n/a	n/a	0	0	0
2624.996	n/a	REC_WORD	1312498	wordpools/wasnorm_wordpool_576.txt	LTP287	ltpFR2	8	11	SUSPECT	1415	n/a	n/a	0	0	0
2627.084	n/a	REC_WORD	1313542	wordpools/wasnorm_wordpool_576.txt	LTP287	ltpFR2	8	11	NAPKIN	937	n/a	n/a	0	0	0
2627.926	n/a	REC_WORD	1313963	wordpools/wasnorm_wordpool_576.txt	LTP287	ltpFR2	8	11	JELLO	754	n/a	n/a	0	0	0
2628.746	n/a	REC_WORD	1314373	wordpools/wasnorm_wordpool_576.txt	LTP287	ltpFR2	8	11	LASER	801	n/a	n/a	0	0	0
2629.514	n/a	REC_WORD	1314757	wordpools/wasnorm_wordpool_576.txt	LTP287	ltpFR2	8	11	WOMAN	1620	n/a	n/a	0	0	0
2642.194	n/a	REC_WORD	1321097	wordpools/wasnorm_wordpool_576.txt	LTP287	ltpFR2	8	11	RUST	1219	n/a	n/a	0	0	0
2715.192	n/a	DISTRACTOR	1357596	n/a	LTP287	ltpFR2	8	12	n/a	n/a	n/a	n/a	0	0	0
2715.192	n/a	START	1357596	n/a	LTP287	ltpFR2	8	n/a	n/a	n/a	18	n/a	n/a	n/a	n/a
2715.224	n/a	PROB	1357612	n/a	LTP287	ltpFR2	8	n/a	n/a	n/a	18	14	1	5	8
2717.206	n/a	PROB	1358603	n/a	LTP287	ltpFR2	8	n/a	n/a	n/a	18	23	8	7	8
2721.116	n/a	PROB	1360558	n/a	LTP287	ltpFR2	8	n/a	n/a	n/a	18	19	6	4	9
2722.348	n/a	PROB	1361174	n/a	LTP287	ltpFR2	8	n/a	n/a	n/a	18	20	3	8	9
2723.914	n/a	PROB	1361957	n/a	LTP287	ltpFR2	8	n/a	n/a	n/a	18	17	6	5	6
2725.376	n/a	PROB	1362688	n/a	LTP287	ltpFR2	8	n/a	n/a	n/a	18	13	7	4	2
2727.556	n/a	PROB	1363778	n/a	LTP287	ltpFR2	8	n/a	n/a	n/a	18	19	8	4	7
2729.488	n/a	PROB	1364744	n/a	LTP287	ltpFR2	8	n/a	n/a	n/a	18	20	2	9	9
2730.902	n/a	PROB	1365451	n/a	LTP287	ltpFR2	8	n/a	n/a	n/a	18	14	5	3	6
2732.65	n/a	PROB	1366325	n/a	LTP287	ltpFR2	8	n/a	n/a	n/a	18	14	5	8	1
2734.53	n/a	PROB	1367265	n/a	LTP287	ltpFR2	8	n/a	n/a	n/a	18	15	4	7	4
2735.928	n/a	PROB	1367964	n/a	LTP287	ltpFR2	8	n/a	n/a	n/a	18	26	9	9	7
2737.974	n/a	STOP	1368987	n/a	LTP287	ltpFR2	8	n/a	n/a	n/a	18	n/a	n/a	n/a	n/a
2740.304	n/a	WORD	1370152	wordpools/wasnorm_wordpool_576.txt	LTP287	ltpFR2	8	12	FLESH	579	n/a	n/a	0	0	0
2743.018	n/a	WORD	1371509	wordpools/wasnorm_wordpool_576.txt	LTP287	ltpFR2	8	12	RADISH	1158	n/a	n/a	0	0	0
2745.546	n/a	WORD	1372773	wordpools/wasnorm_wordpool_576.txt	LTP287	ltpFR2	8	12	PLAZA	1088	n/a	n/a	0	0	0
2748.176	n/a	WORD	1374088	wordpools/wasnorm_wordpool_576.txt	LTP287	ltpFR2	8	12	SWORD	1423	n/a	n/a	0	0	0
2750.622	n/a	WORD	1375311	wordpools/wasnorm_wordpool_576.txt	LTP287	ltpFR2	8	12	PECAN	1036	n/a	n/a	0	0	0
2753.086	n/a	WORD	1376543	wordpools/wasnorm_wordpool_576.txt	LTP287	ltpFR2	8	12	GARBAGE	622	n/a	n/a	0	0	0
2755.598	n/a	WORD	1377799	wordpools/wasnorm_wordpool_576.txt	LTP287	ltpFR2	8	12	JURY	766	n/a	n/a	0	0	0
2758.046	n/a	WORD	1379023	wordpools/wasnorm_wordpool_576.txt	LTP287	ltpFR2	8	12	QUARTER	1148	n/a	n/a	0	0	0
2760.724	n/a	WORD	1380362	wordpools/wasnorm_wordpool_576.txt	LTP287	ltpFR2	8	12	AUTHOR	61	n/a	n/a	0	0	0
2763.42	n/a	WORD	1381710	wordpools/wasnorm_wordpool_576.txt	LTP287	ltpFR2	8	12	LAMP	798	n/a	n/a	0	0	0
2766.05	n/a	WORD	1383025	wordpools/wasnorm_wordpool_576.txt	LTP287	ltpFR2	8	12	CROWN	415	n/a	n/a	0	0	0
2768.596	n/a	WORD	1384298	wordpools/wasnorm_wordpool_576.txt	LTP287	ltpFR2	8	12	SHORTCAKE	1292	n/a	n/a	0	0	0
2771.374	n/a	WORD	1385687	wordpools/wasnorm_wordpool_576.txt	LTP287	ltpFR2	8	12	CITRUS	313	n/a	n/a	0	0	0
2774.138	n/a	WORD	1387069	wordpools/wasnorm_wordpool_576.txt	LTP287	ltpFR2	8	12	COIN	343	n/a	n/a	0	0	0
2776.6	n/a	WORD	1388300	wordpools/wasnorm_wordpool_576.txt	LTP287	ltpFR2	8	12	TUTU	1524	n/a	n/a	0	0	0
2779.23	n/a	WORD	1389615	wordpools/wasnorm_wordpool_576.txt	LTP287	ltpFR2	8	12	LODGE	839	n/a	n/a	0	0	0
2781.742	n/a	WORD	1390871	wordpools/wasnorm_wordpool_576.txt	LTP287	ltpFR2	8	12	MOTEL	919	n/a	n/a	0	0	0
2784.438	n/a	WORD	1392219	wordpools/wasnorm_wordpool_576.txt	LTP287	ltpFR2	8	12	SODA	1341	n/a	n/a	0	0	0
2787.052	n/a	WORD	1393526	wordpools/wasnorm_wordpool_576.txt	LTP287	ltpFR2	8	12	SHERIFF	1284	n/a	n/a	0	0	0
2789.864	n/a	WORD	1394932	wordpools/wasnorm_wordpool_576.txt	LTP287	ltpFR2	8	12	STOVE	1388	n/a	n/a	0	0	0
2792.51	n/a	WORD	1396255	wordpools/wasnorm_wordpool_576.txt	LTP287	ltpFR2	8	12	EUROPE	541	n/a	n/a	0	0	0
2794.974	n/a	WORD	1397487	wordpools/wasnorm_wordpool_576.txt	LTP287	ltpFR2	8	12	BULLET	194	n/a	n/a	0	0	0
2797.736	n/a	WORD	1398868	wordpools/wasnorm_wordpool_576.txt	LTP287	ltpFR2	8	12	BALLOON	75	n/a	n/a	0	0	0
2800.166	n/a	WORD	1400083	wordpools/wasnorm_wordpool_576.txt	LTP287	ltpFR2	8	12	EMPIRE	530	n/a	n/a	0	0	0
2801.78	n/a	START	1400890	n/a	LTP287	ltpFR2	8	n/a	n/a	n/a	19	n/a	n/a	n/a	n/a
2802.658	n/a	DISTRACTOR	1401329	n/a	LTP287	ltpFR2	8	12	n/a	n/a	n/a	n/a	0	0	0
2802.662	n/a	PROB	1401331	n/a	LTP287	ltpFR2	8	n/a	n/a	n/a	19	20	8	8	4
2806.49	n/a	PROB	1403245	n/a	LTP287	ltpFR2	8	n/a	n/a	n/a	19	19	3	9	8
2808.67	n/a	PROB	1404335	n/a	LTP287	ltpFR2	8	n/a	n/a	n/a	19	19	7	9	3
2810.4	n/a	PROB	1405200	n/a	LTP287	ltpFR2	8	n/a	n/a	n/a	19	17	5	7	5
2812.332	n/a	PROB	1406166	n/a	LTP287	ltpFR2	8	n/a	n/a	n/a	19	10	2	4	4
2814.244	n/a	PROB	1407122	n/a	LTP287	ltpFR2	8	n/a	n/a	n/a	19	15	3	8	4
2816.192	n/a	PROB	1408096	n/a	LTP287	ltpFR2	8	n/a	n/a	n/a	19	14	5	7	2
2818.306	n/a	PROB	1409153	n/a	LTP287	ltpFR2	8	n/a	n/a	n/a	19	19	6	9	4
2822.284	n/a	PROB	1411142	n/a	LTP287	ltpFR2	8	n/a	n/a	n/a	19	19	7	4	8
2823.982	n/a	PROB	1411991	n/a	LTP287	ltpFR2	8	n/a	n/a	n/a	19	4	1	2	1
2825.086	n/a	STOP	1412543	n/a	LTP287	ltpFR2	8	n/a	n/a	n/a	19	n/a	n/a	n/a	n/a
2827.542	n/a	REC_START	1413771	n/a	LTP287	ltpFR2	8	12	n/a	n/a	n/a	n/a	0	0	0
2828.596	n/a	REC_WORD	1414298	wordpools/wasnorm_wordpool_576.txt	LTP287	ltpFR2	8	12	SWORD	1423	n/a	n/a	0	0	0
2856.628	n/a	REC_WORD	1428314	wordpools/wasnorm_wordpool_576.txt	LTP287	ltpFR2	8	12	FLESH	579	n/a	n/a	0	0	0
2858.042	n/a	REC_WORD	1429021	wordpools/wasnorm_wordpool_576.txt	LTP287	ltpFR2	8	12	RADISH	1158	n/a	n/a	0	0	0
2918.274	n/a	WORD	1459137	wordpools/wasnorm_wordpool_576.txt	LTP287	ltpFR2	8	13	POSSUM	1112	n/a	n/a	0	0	0
2921.072	n/a	WORD	1460536	wordpools/wasnorm_wordpool_576.txt	LTP287	ltpFR2	8	13	CREATURE	403	n/a	n/a	0	0	0
2923.75	n/a	WORD	1461875	wordpools/wasnorm_wordpool_576.txt	LTP287	ltpFR2	8	13	ORANGE	980	n/a	n/a	0	0	0
2926.562	n/a	WORD	1463281	wordpools/wasnorm_wordpool_576.txt	LTP287	ltpFR2	8	13	GRAPE	654	n/a	n/a	0	0	0
2929.142	n/a	WORD	1464571	wordpools/wasnorm_wordpool_576.txt	LTP287	ltpFR2	8	13	HEART	697	n/a	n/a	0	0	0
2931.872	n/a	WORD	1465936	wordpools/wasnorm_wordpool_576.txt	LTP287	ltpFR2	8	13	COLLEGE	346	n/a	n/a	0	0	0
2934.334	n/a	WORD	1467167	wordpools/wasnorm_wordpool_576.txt	LTP287	ltpFR2	8	13	CRAYON	401	n/a	n/a	0	0	0
2937.114	n/a	WORD	1468557	wordpools/wasnorm_wordpool_576.txt	LTP287	ltpFR2	8	13	KETCHUP	771	n/a	n/a	0	0	0
2939.842	n/a	WORD	1469921	wordpools/wasnorm_wordpool_576.txt	LTP287	ltpFR2	8	13	TEACHER	1440	n/a	n/a	0	0	0
2942.338	n/a	WORD	1471169	wordpools/wasnorm_wordpool_576.txt	LTP287	ltpFR2	8	13	GUITAR	670	n/a	n/a	0	0	0
2945.102	n/a	WORD	1472551	wordpools/wasnorm_wordpool_576.txt	LTP287	ltpFR2	8	13	THRONE	1461	n/a	n/a	0	0	0
2947.632	n/a	WORD	1473816	wordpools/wasnorm_wordpool_576.txt	LTP287	ltpFR2	8	13	WITNESS	1618	n/a	n/a	0	0	0
2950.144	n/a	WORD	1475072	wordpools/wasnorm_wordpool_576.txt	LTP287	ltpFR2	8	13	FRIAR	605	n/a	n/a	0	0	0
2952.924	n/a	WORD	1476462	wordpools/wasnorm_wordpool_576.txt	LTP287	ltpFR2	8	13	OUTLAW	989	n/a	n/a	0	0	0
2955.536	n/a	WORD	1477768	wordpools/wasnorm_wordpool_576.txt	LTP287	ltpFR2	8	13	MUMMY	932	n/a	n/a	0	0	0
2958.216	n/a	WORD	1479108	wordpools/wasnorm_wordpool_576.txt	LTP287	ltpFR2	8	13	PERCH	1048	n/a	n/a	0	0	0
2960.728	n/a	WORD	1480364	wordpools/wasnorm_wordpool_576.txt	LTP287	ltpFR2	8	13	PISTOL	1075	n/a	n/a	0	0	0
2963.192	n/a	WORD	1481596	wordpools/wasnorm_wordpool_576.txt	LTP287	ltpFR2	8	13	CARROT	249	n/a	n/a	0	0	0
2965.704	n/a	WORD	1482852	wordpools/wasnorm_wordpool_576.txt	LTP287	ltpFR2	8	13	HIGHWAY	707	n/a	n/a	0	0	0
2968.218	n/a	WORD	1484109	wordpools/wasnorm_wordpool_576.txt	LTP287	ltpFR2	8	13	DASHBOARD	441	n/a	n/a	0	0	0
2970.648	n/a	WORD	1485324	wordpools/wasnorm_wordpool_576.txt	LTP287	ltpFR2	8	13	WAGON	1578	n/a	n/a	0	0	0
2973.094	n/a	WORD	1486547	wordpools/wasnorm_wordpool_576.txt	LTP287	ltpFR2	8	13	MILK	895	n/a	n/a	0	0	0
2975.872	n/a	WORD	1487936	wordpools/wasnorm_wordpool_576.txt	LTP287	ltpFR2	8	13	PADDLE	1000	n/a	n/a	0	0	0
2978.37	n/a	WORD	1489185	wordpools/wasnorm_wordpool_576.txt	LTP287	ltpFR2	8	13	PARROT	1015	n/a	n/a	0	0	0
2979.984	n/a	START	1489992	n/a	LTP287	ltpFR2	8	n/a	n/a	n/a	20	n/a	n/a	n/a	n/a
2980.988	n/a	DISTRACTOR	1490494	n/a	LTP287	ltpFR2	8	13	n/a	n/a	n/a	n/a	0	0	0
2981.0	n/a	PROB	1490500	n/a	LTP287	ltpFR2	8	n/a	n/a	n/a	20	9	2	2	5
2982.896	n/a	PROB	1491448	n/a	LTP287	ltpFR2	8	n/a	n/a	n/a	20	17	6	8	3
2985.874	n/a	PROB	1492937	n/a	LTP287	ltpFR2	8	n/a	n/a	n/a	20	9	6	1	2
2987.806	n/a	PROB	1493903	n/a	LTP287	ltpFR2	8	n/a	n/a	n/a	20	9	4	4	1
2989.154	n/a	PROB	1494577	n/a	LTP287	ltpFR2	8	n/a	n/a	n/a	20	16	6	1	9
2991.366	n/a	PROB	1495683	n/a	LTP287	ltpFR2	8	n/a	n/a	n/a	20	18	6	8	4
2993.148	n/a	PROB	1496574	n/a	LTP287	ltpFR2	8	n/a	n/a	n/a	20	20	8	8	6
2995.128	n/a	PROB	1497564	n/a	LTP287	ltpFR2	8	n/a	n/a	n/a	20	16	4	5	7
2998.09	n/a	PROB	1499045	n/a	LTP287	ltpFR2	8	n/a	n/a	n/a	20	11	2	1	8
2999.572	n/a	PROB	1499786	n/a	LTP287	ltpFR2	8	n/a	n/a	n/a	20	14	2	6	6
3001.318	n/a	PROB	1500659	n/a	LTP287	ltpFR2	8	n/a	n/a	n/a	20	12	2	3	7
3003.24	n/a	STOP	1501620	n/a	LTP287	ltpFR2	8	n/a	n/a	n/a	20	n/a	n/a	n/a	n/a
3005.914	n/a	REC_START	1502957	n/a	LTP287	ltpFR2	8	13	n/a	n/a	n/a	n/a	0	0	0
3007.144	n/a	REC_WORD	1503572	wordpools/wasnorm_wordpool_576.txt	LTP287	ltpFR2	8	13	DASHBOARD	441	n/a	n/a	0	0	0
3008.244	n/a	REC_WORD	1504122	wordpools/wasnorm_wordpool_576.txt	LTP287	ltpFR2	8	13	POSSUM	1112	n/a	n/a	0	0	0
3016.666	n/a	REC_WORD	1508333	wordpools/wasnorm_wordpool_576.txt	LTP287	ltpFR2	8	13	PARROT	1015	n/a	n/a	0	0	0
3027.78	n/a	REC_WORD	1513890	wordpools/wasnorm_wordpool_576.txt	LTP287	ltpFR2	8	13	ORANGE	980	n/a	n/a	0	0	0
3096.612	n/a	WORD	1548306	wordpools/wasnorm_wordpool_576.txt	LTP287	ltpFR2	8	14	PRIMATE	1123	n/a	n/a	0	0	0
3099.258	n/a	WORD	1549629	wordpools/wasnorm_wordpool_576.txt	LTP287	ltpFR2	8	14	BUNNY	198	n/a	n/a	0	0	0
3101.97	n/a	WORD	1550985	wordpools/wasnorm_wordpool_576.txt	LTP287	ltpFR2	8	14	BRICK	172	n/a	n/a	0	0	0
3104.482	n/a	WORD	1552241	wordpools/wasnorm_wordpool_576.txt	LTP287	ltpFR2	8	14	PLASTER	1085	n/a	n/a	0	0	0
3106.98	n/a	WORD	1553490	wordpools/wasnorm_wordpool_576.txt	LTP287	ltpFR2	8	14	SUNRISE	1407	n/a	n/a	0	0	0
3109.526	n/a	WORD	1554763	wordpools/wasnorm_wordpool_576.txt	LTP287	ltpFR2	8	14	CARRIAGE	248	n/a	n/a	0	0	0
3112.072	n/a	WORD	1556036	wordpools/wasnorm_wordpool_576.txt	LTP287	ltpFR2	8	14	HONEY	713	n/a	n/a	0	0	0
3114.718	n/a	WORD	1557359	wordpools/wasnorm_wordpool_576.txt	LTP287	ltpFR2	8	14	LEG	809	n/a	n/a	0	0	0
3117.448	n/a	WORD	1558724	wordpools/wasnorm_wordpool_576.txt	LTP287	ltpFR2	8	14	VICTIM	1562	n/a	n/a	0	0	0
3120.26	n/a	WORD	1560130	wordpools/wasnorm_wordpool_576.txt	LTP287	ltpFR2	8	14	AIRPORT	13	n/a	n/a	0	0	0
3123.024	n/a	WORD	1561512	wordpools/wasnorm_wordpool_576.txt	LTP287	ltpFR2	8	14	SIBLING	1301	n/a	n/a	0	0	0
3125.702	n/a	WORD	1562851	wordpools/wasnorm_wordpool_576.txt	LTP287	ltpFR2	8	14	TUBA	1515	n/a	n/a	0	0	0
3128.298	n/a	WORD	1564149	wordpools/wasnorm_wordpool_576.txt	LTP287	ltpFR2	8	14	CASKET	255	n/a	n/a	0	0	0
3131.012	n/a	WORD	1565506	wordpools/wasnorm_wordpool_576.txt	LTP287	ltpFR2	8	14	GRAVE	658	n/a	n/a	0	0	0
3133.64	n/a	WORD	1566820	wordpools/wasnorm_wordpool_576.txt	LTP287	ltpFR2	8	14	WASHER	1592	n/a	n/a	0	0	0
3136.402	n/a	WORD	1568201	wordpools/wasnorm_wordpool_576.txt	LTP287	ltpFR2	8	14	JUDGE	761	n/a	n/a	0	0	0
3138.898	n/a	WORD	1569449	wordpools/wasnorm_wordpool_576.txt	LTP287	ltpFR2	8	14	FOX	598	n/a	n/a	0	0	0
3141.412	n/a	WORD	1570706	wordpools/wasnorm_wordpool_576.txt	LTP287	ltpFR2	8	14	GYMNAST	675	n/a	n/a	0	0	0
3143.974	n/a	WORD	1571987	wordpools/wasnorm_wordpool_576.txt	LTP287	ltpFR2	8	14	CURTAIN	427	n/a	n/a	0	0	0
3146.754	n/a	WORD	1573377	wordpools/wasnorm_wordpool_576.txt	LTP287	ltpFR2	8	14	CRIB	407	n/a	n/a	0	0	0
3149.266	n/a	WORD	1574633	wordpools/wasnorm_wordpool_576.txt	LTP287	ltpFR2	8	14	FLEET	578	n/a	n/a	0	0	0
3151.828	n/a	WORD	1575914	wordpools/wasnorm_wordpool_576.txt	LTP287	ltpFR2	8	14	SCARECROW	1245	n/a	n/a	0	0	0
3154.492	n/a	WORD	1577246	wordpools/wasnorm_wordpool_576.txt	LTP287	ltpFR2	8	14	QUAIL	1147	n/a	n/a	0	0	0
3157.072	n/a	WORD	1578536	wordpools/wasnorm_wordpool_576.txt	LTP287	ltpFR2	8	14	HORNET	718	n/a	n/a	0	0	0
3158.686	n/a	START	1579343	n/a	LTP287	ltpFR2	8	n/a	n/a	n/a	21	n/a	n/a	n/a	n/a
3159.668	n/a	DISTRACTOR	1579834	n/a	LTP287	ltpFR2	8	14	n/a	n/a	n/a	n/a	0	0	0
3159.684	n/a	PROB	1579842	n/a	LTP287	ltpFR2	8	n/a	n/a	n/a	21	19	9	1	9
3161.532	n/a	PROB	1580766	n/a	LTP287	ltpFR2	8	n/a	n/a	n/a	21	12	3	3	6
3163.146	n/a	PROB	1581573	n/a	LTP287	ltpFR2	8	n/a	n/a	n/a	21	16	2	7	7
3164.71	n/a	PROB	1582355	n/a	LTP287	ltpFR2	8	n/a	n/a	n/a	21	19	2	9	8
3166.558	n/a	PROB	1583279	n/a	LTP287	ltpFR2	8	n/a	n/a	n/a	21	16	3	7	6
3168.072	n/a	PROB	1584036	n/a	LTP287	ltpFR2	8	n/a	n/a	n/a	21	20	2	9	9
3171.018	n/a	PROB	1585509	n/a	LTP287	ltpFR2	8	n/a	n/a	n/a	21	13	4	2	7
3172.682	n/a	PROB	1586341	n/a	LTP287	ltpFR2	8	n/a	n/a	n/a	21	16	6	1	9
3174.778	n/a	PROB	1587389	n/a	LTP287	ltpFR2	8	n/a	n/a	n/a	21	19	6	7	6
3176.776	n/a	PROB	1588388	n/a	LTP287	ltpFR2	8	n/a	n/a	n/a	21	21	8	5	8
3178.424	n/a	PROB	1589212	n/a	LTP287	ltpFR2	8	n/a	n/a	n/a	21	16	7	2	7
3180.586	n/a	PROB	1590293	n/a	LTP287	ltpFR2	8	n/a	n/a	n/a	21	19	9	1	9
3181.77	n/a	STOP	1590885	n/a	LTP287	ltpFR2	8	n/a	n/a	n/a	21	n/a	n/a	n/a	n/a
3184.614	n/a	REC_START	1592307	n/a	LTP287	ltpFR2	8	14	n/a	n/a	n/a	n/a	0	0	0
3185.166	n/a	REC_WORD	1592583	wordpools/wasnorm_wordpool_576.txt	LTP287	ltpFR2	8	14	QUAIL	1147	n/a	n/a	0	0	0
3185.97	n/a	REC_WORD	1592985	wordpools/wasnorm_wordpool_576.txt	LTP287	ltpFR2	8	14	SCARECROW	1245	n/a	n/a	0	0	0
3187.162	n/a	REC_WORD	1593581	wordpools/wasnorm_wordpool_576.txt	LTP287	ltpFR2	8	14	HORNET	718	n/a	n/a	0	0	0
3227.928	n/a	REC_WORD	1613964	wordpools/wasnorm_wordpool_576.txt	LTP287	ltpFR2	8	14	FLEET	578	n/a	n/a	0	0	0
3237.938	n/a	REC_WORD	1618969	wordpools/wasnorm_wordpool_576.txt	LTP287	ltpFR2	8	14	WASHER	1592	n/a	n/a	0	0	0
3275.28	n/a	DISTRACTOR	1637640	n/a	LTP287	ltpFR2	8	15	n/a	n/a	n/a	n/a	0	0	0
3275.28	n/a	START	1637640	n/a	LTP287	ltpFR2	8	n/a	n/a	n/a	22	n/a	n/a	n/a	n/a
3275.312	n/a	PROB	1637656	n/a	LTP287	ltpFR2	8	n/a	n/a	n/a	22	15	5	3	7
3276.778	n/a	PROB	1638389	n/a	LTP287	ltpFR2	8	n/a	n/a	n/a	22	13	1	4	8
3280.506	n/a	PROB	1640253	n/a	LTP287	ltpFR2	8	n/a	n/a	n/a	22	19	4	7	8
3282.32	n/a	PROB	1641160	n/a	LTP287	ltpFR2	8	n/a	n/a	n/a	22	17	4	4	9
3284.134	n/a	PROB	1642067	n/a	LTP287	ltpFR2	8	n/a	n/a	n/a	22	9	1	1	7
3285.198	n/a	PROB	1642599	n/a	LTP287	ltpFR2	8	n/a	n/a	n/a	22	11	5	1	5
3286.264	n/a	PROB	1643132	n/a	LTP287	ltpFR2	8	n/a	n/a	n/a	22	19	6	7	6
3290.674	n/a	PROB	1645337	n/a	LTP287	ltpFR2	8	n/a	n/a	n/a	22	9	2	4	3
3292.504	n/a	PROB	1646252	n/a	LTP287	ltpFR2	8	n/a	n/a	n/a	22	16	4	7	5
3294.402	n/a	PROB	1647201	n/a	LTP287	ltpFR2	8	n/a	n/a	n/a	22	10	1	5	4
3296.198	n/a	PROB	1648099	n/a	LTP287	ltpFR2	8	n/a	n/a	n/a	22	10	6	1	3
3297.884	n/a	STOP	1648942	n/a	LTP287	ltpFR2	8	n/a	n/a	n/a	22	n/a	n/a	n/a	n/a
3300.16	n/a	WORD	1650080	wordpools/wasnorm_wordpool_576.txt	LTP287	ltpFR2	8	15	MARS	873	n/a	n/a	0	0	0
3302.606	n/a	WORD	1651303	wordpools/wasnorm_wordpool_576.txt	LTP287	ltpFR2	8	15	SERVER	1272	n/a	n/a	0	0	0
3305.086	n/a	WORD	1652543	wordpools/wasnorm_wordpool_576.txt	LTP287	ltpFR2	8	15	ACTOR	5	n/a	n/a	0	0	0
3307.866	n/a	WORD	1653933	wordpools/wasnorm_wordpool_576.txt	LTP287	ltpFR2	8	15	SURVEY	1414	n/a	n/a	0	0	0
3310.294	n/a	WORD	1655147	wordpools/wasnorm_wordpool_576.txt	LTP287	ltpFR2	8	15	GIRL	637	n/a	n/a	0	0	0
3312.908	n/a	WORD	1656454	wordpools/wasnorm_wordpool_576.txt	LTP287	ltpFR2	8	15	MEDAL	885	n/a	n/a	0	0	0
3315.388	n/a	WORD	1657694	wordpools/wasnorm_wordpool_576.txt	LTP287	ltpFR2	8	15	CYCLONE	431	n/a	n/a	0	0	0
3317.818	n/a	WORD	1658909	wordpools/wasnorm_wordpool_576.txt	LTP287	ltpFR2	8	15	PISTON	1076	n/a	n/a	0	0	0
3320.38	n/a	WORD	1660190	wordpools/wasnorm_wordpool_576.txt	LTP287	ltpFR2	8	15	APRON	35	n/a	n/a	0	0	0
3322.91	n/a	WORD	1661455	wordpools/wasnorm_wordpool_576.txt	LTP287	ltpFR2	8	15	WIDOW	1608	n/a	n/a	0	0	0
3325.606	n/a	WORD	1662803	wordpools/wasnorm_wordpool_576.txt	LTP287	ltpFR2	8	15	TOMBSTONE	1478	n/a	n/a	0	0	0
3328.402	n/a	WORD	1664201	wordpools/wasnorm_wordpool_576.txt	LTP287	ltpFR2	8	15	COUNTRY	388	n/a	n/a	0	0	0
3331.048	n/a	WORD	1665524	wordpools/wasnorm_wordpool_576.txt	LTP287	ltpFR2	8	15	BROTHER	179	n/a	n/a	0	0	0
3333.578	n/a	WORD	1666789	wordpools/wasnorm_wordpool_576.txt	LTP287	ltpFR2	8	15	WOMAN	1620	n/a	n/a	0	0	0
3336.374	n/a	WORD	1668187	wordpools/wasnorm_wordpool_576.txt	LTP287	ltpFR2	8	15	SHIRT	1287	n/a	n/a	0	0	0
3338.97	n/a	WORD	1669485	wordpools/wasnorm_wordpool_576.txt	LTP287	ltpFR2	8	15	BEAKER	104	n/a	n/a	0	0	0
3341.732	n/a	WORD	1670866	wordpools/wasnorm_wordpool_576.txt	LTP287	ltpFR2	8	15	FLASK	576	n/a	n/a	0	0	0
3344.228	n/a	WORD	1672114	wordpools/wasnorm_wordpool_576.txt	LTP287	ltpFR2	8	15	CLOUD	328	n/a	n/a	0	0	0
3346.724	n/a	WORD	1673362	wordpools/wasnorm_wordpool_576.txt	LTP287	ltpFR2	8	15	ULCER	1533	n/a	n/a	0	0	0
3349.37	n/a	WORD	1674685	wordpools/wasnorm_wordpool_576.txt	LTP287	ltpFR2	8	15	SMOG	1330	n/a	n/a	0	0	0
3351.85	n/a	WORD	1675925	wordpools/wasnorm_wordpool_576.txt	LTP287	ltpFR2	8	15	PUDDLE	1140	n/a	n/a	0	0	0
3354.414	n/a	WORD	1677207	wordpools/wasnorm_wordpool_576.txt	LTP287	ltpFR2	8	15	ASIA	46	n/a	n/a	0	0	0
3357.16	n/a	WORD	1678580	wordpools/wasnorm_wordpool_576.txt	LTP287	ltpFR2	8	15	PASTA	1021	n/a	n/a	0	0	0
3359.788	n/a	WORD	1679894	wordpools/wasnorm_wordpool_576.txt	LTP287	ltpFR2	8	15	LIGHTNING	820	n/a	n/a	0	0	0
3361.404	n/a	START	1680702	n/a	LTP287	ltpFR2	8	n/a	n/a	n/a	23	n/a	n/a	n/a	n/a
3362.336	n/a	DISTRACTOR	1681168	n/a	LTP287	ltpFR2	8	15	n/a	n/a	n/a	n/a	0	0	0
3362.352	n/a	PROB	1681176	n/a	LTP287	ltpFR2	8	n/a	n/a	n/a	23	9	7	1	1
3363.766	n/a	PROB	1681883	n/a	LTP287	ltpFR2	8	n/a	n/a	n/a	23	10	2	6	2
3365.148	n/a	PROB	1682574	n/a	LTP287	ltpFR2	8	n/a	n/a	n/a	23	12	6	1	5
3366.678	n/a	PROB	1683339	n/a	LTP287	ltpFR2	8	n/a	n/a	n/a	23	13	9	3	1
3369.042	n/a	PROB	1684521	n/a	LTP287	ltpFR2	8	n/a	n/a	n/a	23	16	3	5	8
3370.672	n/a	PROB	1685336	n/a	LTP287	ltpFR2	8	n/a	n/a	n/a	23	16	7	5	4
3373.186	n/a	PROB	1686593	n/a	LTP287	ltpFR2	8	n/a	n/a	n/a	23	20	7	5	8
3376.132	n/a	PROB	1688066	n/a	LTP287	ltpFR2	8	n/a	n/a	n/a	23	24	8	9	7
3378.628	n/a	PROB	1689314	n/a	LTP287	ltpFR2	8	n/a	n/a	n/a	23	19	5	6	8
3382.854	n/a	PROB	1691427	n/a	LTP287	ltpFR2	8	n/a	n/a	n/a	23	9	3	3	3
3385.404	n/a	STOP	1692702	n/a	LTP287	ltpFR2	8	n/a	n/a	n/a	23	n/a	n/a	n/a	n/a
3387.316	n/a	REC_START	1693658	n/a	LTP287	ltpFR2	8	15	n/a	n/a	n/a	n/a	0	0	0
3388.01	n/a	REC_WORD	1694005	wordpools/wasnorm_wordpool_576.txt	LTP287	ltpFR2	8	15	BEAKER	104	n/a	n/a	0	0	0
3388.768	n/a	REC_WORD	1694384	wordpools/wasnorm_wordpool_576.txt	LTP287	ltpFR2	8	15	ULCER	1533	n/a	n/a	0	0	0
3389.536	n/a	REC_WORD	1694768	wordpools/wasnorm_wordpool_576.txt	LTP287	ltpFR2	8	15	FLASK	576	n/a	n/a	0	0	0
3390.228	n/a	REC_WORD	1695114	wordpools/wasnorm_wordpool_576.txt	LTP287	ltpFR2	8	15	CLOUD	328	n/a	n/a	0	0	0
3390.842	n/a	REC_WORD	1695421	wordpools/wasnorm_wordpool_576.txt	LTP287	ltpFR2	8	15	SMOG	1330	n/a	n/a	0	0	0
3391.564	n/a	REC_WORD	1695782	wordpools/wasnorm_wordpool_576.txt	LTP287	ltpFR2	8	15	PUDDLE	1140	n/a	n/a	0	0	0
3400.09	n/a	REC_WORD	1700045	wordpools/wasnorm_wordpool_576.txt	LTP287	ltpFR2	8	15	ACTOR	5	n/a	n/a	0	0	0
3477.982	n/a	WORD	1738991	wordpools/wasnorm_wordpool_576.txt	LTP287	ltpFR2	8	16	CLOTHES	327	n/a	n/a	0	0	0
3480.56	n/a	WORD	1740280	wordpools/wasnorm_wordpool_576.txt	LTP287	ltpFR2	8	16	OUTFIT	988	n/a	n/a	0	0	0
3483.256	n/a	WORD	1741628	wordpools/wasnorm_wordpool_576.txt	LTP287	ltpFR2	8	16	LADDER	793	n/a	n/a	0	0	0
3485.936	n/a	WORD	1742968	wordpools/wasnorm_wordpool_576.txt	LTP287	ltpFR2	8	16	KLEENEX	782	n/a	n/a	0	0	0
3488.582	n/a	WORD	1744291	wordpools/wasnorm_wordpool_576.txt	LTP287	ltpFR2	8	16	FRAGRANCE	599	n/a	n/a	0	0	0
3491.36	n/a	WORD	1745680	wordpools/wasnorm_wordpool_576.txt	LTP287	ltpFR2	8	16	HIKER	708	n/a	n/a	0	0	0
3493.974	n/a	WORD	1746987	wordpools/wasnorm_wordpool_576.txt	LTP287	ltpFR2	8	16	LUGGAGE	847	n/a	n/a	0	0	0
3496.47	n/a	WORD	1748235	wordpools/wasnorm_wordpool_576.txt	LTP287	ltpFR2	8	16	DINER	467	n/a	n/a	0	0	0
3499.15	n/a	WORD	1749575	wordpools/wasnorm_wordpool_576.txt	LTP287	ltpFR2	8	16	REPORT	1184	n/a	n/a	0	0	0
3501.696	n/a	WORD	1750848	wordpools/wasnorm_wordpool_576.txt	LTP287	ltpFR2	8	16	BUBBLE	183	n/a	n/a	0	0	0
3504.392	n/a	WORD	1752196	wordpools/wasnorm_wordpool_576.txt	LTP287	ltpFR2	8	16	TWIG	1527	n/a	n/a	0	0	0
3506.972	n/a	WORD	1753486	wordpools/wasnorm_wordpool_576.txt	LTP287	ltpFR2	8	16	SPIDER	1351	n/a	n/a	0	0	0
3509.584	n/a	WORD	1754792	wordpools/wasnorm_wordpool_576.txt	LTP287	ltpFR2	8	16	COCOON	339	n/a	n/a	0	0	0
3512.032	n/a	WORD	1756016	wordpools/wasnorm_wordpool_576.txt	LTP287	ltpFR2	8	16	SIDEWALK	1303	n/a	n/a	0	0	0
3514.576	n/a	WORD	1757288	wordpools/wasnorm_wordpool_576.txt	LTP287	ltpFR2	8	16	GANGSTER	620	n/a	n/a	0	0	0
3517.29	n/a	WORD	1758645	wordpools/wasnorm_wordpool_576.txt	LTP287	ltpFR2	8	16	MEAT	883	n/a	n/a	0	0	0
3519.802	n/a	WORD	1759901	wordpools/wasnorm_wordpool_576.txt	LTP287	ltpFR2	8	16	SCOTCH	1251	n/a	n/a	0	0	0
3522.498	n/a	WORD	1761249	wordpools/wasnorm_wordpool_576.txt	LTP287	ltpFR2	8	16	GLOVE	642	n/a	n/a	0	0	0
3524.928	n/a	WORD	1762464	wordpools/wasnorm_wordpool_576.txt	LTP287	ltpFR2	8	16	ICEBERG	731	n/a	n/a	0	0	0
3527.656	n/a	WORD	1763828	wordpools/wasnorm_wordpool_576.txt	LTP287	ltpFR2	8	16	ROCKET	1202	n/a	n/a	0	0	0
3530.154	n/a	WORD	1765077	wordpools/wasnorm_wordpool_576.txt	LTP287	ltpFR2	8	16	COSTUME	383	n/a	n/a	0	0	0
3532.666	n/a	WORD	1766333	wordpools/wasnorm_wordpool_576.txt	LTP287	ltpFR2	8	16	SCRIBBLE	1256	n/a	n/a	0	0	0
3535.296	n/a	WORD	1767648	wordpools/wasnorm_wordpool_576.txt	LTP287	ltpFR2	8	16	FINGER	567	n/a	n/a	0	0	0
3537.992	n/a	WORD	1768996	wordpools/wasnorm_wordpool_576.txt	LTP287	ltpFR2	8	16	REBEL	1172	n/a	n/a	0	0	0
3539.606	n/a	START	1769803	n/a	LTP287	ltpFR2	8	n/a	n/a	n/a	24	n/a	n/a	n/a	n/a
3540.692	n/a	DISTRACTOR	1770346	n/a	LTP287	ltpFR2	8	16	n/a	n/a	n/a	n/a	0	0	0
3540.704	n/a	PROB	1770352	n/a	LTP287	ltpFR2	8	n/a	n/a	n/a	24	13	7	1	5
3543.968	n/a	PROB	1771984	n/a	LTP287	ltpFR2	8	n/a	n/a	n/a	24	16	9	6	1
3545.448	n/a	PROB	1772724	n/a	LTP287	ltpFR2	8	n/a	n/a	n/a	24	15	6	7	2
3547.094	n/a	PROB	1773547	n/a	LTP287	ltpFR2	8	n/a	n/a	n/a	24	15	2	4	9
3549.308	n/a	PROB	1774654	n/a	LTP287	ltpFR2	8	n/a	n/a	n/a	24	10	5	3	2
3550.89	n/a	PROB	1775445	n/a	LTP287	ltpFR2	8	n/a	n/a	n/a	24	15	7	3	5
3553.038	n/a	PROB	1776519	n/a	LTP287	ltpFR2	8	n/a	n/a	n/a	24	17	9	2	6
3555.116	n/a	PROB	1777558	n/a	LTP287	ltpFR2	8	n/a	n/a	n/a	24	15	2	4	9
3557.68	n/a	PROB	1778840	n/a	LTP287	ltpFR2	8	n/a	n/a	n/a	24	19	9	7	3
3563.604	n/a	STOP	1781802	n/a	LTP287	ltpFR2	8	n/a	n/a	n/a	24	n/a	n/a	n/a	n/a
3565.402	n/a	REC_START	1782701	n/a	LTP287	ltpFR2	8	16	n/a	n/a	n/a	n/a	0	0	0
3591.924	n/a	REC_WORD	1795962	wordpools/wasnorm_wordpool_576.txt	LTP287	ltpFR2	8	16	QUAIL	1147	n/a	n/a	0	0	0
3636.072	n/a	REC_WORD	1818036	wordpools/wasnorm_wordpool_576.txt	LTP287	ltpFR2	8	16	LADDER	793	n/a	n/a	0	0	0
3642.04	n/a	REST_REWET	1821020	n/a	LTP287	ltpFR2	8	16	n/a	n/a	n/a	n/a	0	0	0
3853.092	n/a	DISTRACTOR	1926546	n/a	LTP287	ltpFR2	8	17	n/a	n/a	n/a	n/a	0	0	0
3853.094	n/a	START	1926547	n/a	LTP287	ltpFR2	8	n/a	n/a	n/a	25	n/a	n/a	n/a	n/a
3853.126	n/a	PROB	1926563	n/a	LTP287	ltpFR2	8	n/a	n/a	n/a	25	10	1	1	8
3854.174	n/a	PROB	1927087	n/a	LTP287	ltpFR2	8	n/a	n/a	n/a	25	14	9	1	4
3855.456	n/a	PROB	1927728	n/a	LTP287	ltpFR2	8	n/a	n/a	n/a	25	15	6	5	4
3858.02	n/a	PROB	1929010	n/a	LTP287	ltpFR2	8	n/a	n/a	n/a	25	10	4	4	2
3859.75	n/a	PROB	1929875	n/a	LTP287	ltpFR2	8	n/a	n/a	n/a	25	11	3	3	5
3862.28	n/a	PROB	1931140	n/a	LTP287	ltpFR2	8	n/a	n/a	n/a	25	13	3	7	3
3863.828	n/a	PROB	1931914	n/a	LTP287	ltpFR2	8	n/a	n/a	n/a	25	26	9	9	8
3866.54	n/a	PROB	1933270	n/a	LTP287	ltpFR2	8	n/a	n/a	n/a	25	15	8	6	1
3868.486	n/a	PROB	1934243	n/a	LTP287	ltpFR2	8	n/a	n/a	n/a	25	14	4	8	2
3870.368	n/a	PROB	1935184	n/a	LTP287	ltpFR2	8	n/a	n/a	n/a	25	25	8	9	8
3872.298	n/a	PROB	1936149	n/a	LTP287	ltpFR2	8	n/a	n/a	n/a	25	15	9	2	4
3875.062	n/a	PROB	1937531	n/a	LTP287	ltpFR2	8	n/a	n/a	n/a	25	26	9	9	8
3876.99	n/a	STOP	1938495	n/a	LTP287	ltpFR2	8	n/a	n/a	n/a	25	n/a	n/a	n/a	n/a
3878.14	n/a	WORD	1939070	wordpools/wasnorm_wordpool_576.txt	LTP287	ltpFR2	8	17	MONSTER	912	n/a	n/a	0	0	0
3880.636	n/a	WORD	1940318	wordpools/wasnorm_wordpool_576.txt	LTP287	ltpFR2	8	17	FRANCE	601	n/a	n/a	0	0	0
3883.382	n/a	WORD	1941691	wordpools/wasnorm_wordpool_576.txt	LTP287	ltpFR2	8	17	CHURCH	307	n/a	n/a	0	0	0
3886.078	n/a	WORD	1943039	wordpools/wasnorm_wordpool_576.txt	LTP287	ltpFR2	8	17	BLOUSE	139	n/a	n/a	0	0	0
3888.856	n/a	WORD	1944428	wordpools/wasnorm_wordpool_576.txt	LTP287	ltpFR2	8	17	TWEEZERS	1526	n/a	n/a	0	0	0
3891.686	n/a	WORD	1945843	wordpools/wasnorm_wordpool_576.txt	LTP287	ltpFR2	8	17	PALACE	1006	n/a	n/a	0	0	0
3894.232	n/a	WORD	1947116	wordpools/wasnorm_wordpool_576.txt	LTP287	ltpFR2	8	17	CHAMPAGNE	278	n/a	n/a	0	0	0
3897.046	n/a	WORD	1948523	wordpools/wasnorm_wordpool_576.txt	LTP287	ltpFR2	8	17	HOOK	715	n/a	n/a	0	0	0
3899.74	n/a	WORD	1949870	wordpools/wasnorm_wordpool_576.txt	LTP287	ltpFR2	8	17	BOARD	143	n/a	n/a	0	0	0
3902.204	n/a	WORD	1951102	wordpools/wasnorm_wordpool_576.txt	LTP287	ltpFR2	8	17	GALLON	618	n/a	n/a	0	0	0
3904.916	n/a	WORD	1952458	wordpools/wasnorm_wordpool_576.txt	LTP287	ltpFR2	8	17	RIVER	1194	n/a	n/a	0	0	0
3907.644	n/a	WORD	1953822	wordpools/wasnorm_wordpool_576.txt	LTP287	ltpFR2	8	17	PRINCESS	1125	n/a	n/a	0	0	0
3910.408	n/a	WORD	1955204	wordpools/wasnorm_wordpool_576.txt	LTP287	ltpFR2	8	17	PILOT	1070	n/a	n/a	0	0	0
3913.038	n/a	WORD	1956519	wordpools/wasnorm_wordpool_576.txt	LTP287	ltpFR2	8	17	RABBIT	1152	n/a	n/a	0	0	0
3915.766	n/a	WORD	1957883	wordpools/wasnorm_wordpool_576.txt	LTP287	ltpFR2	8	17	STATUE	1374	n/a	n/a	0	0	0
3918.512	n/a	WORD	1959256	wordpools/wasnorm_wordpool_576.txt	LTP287	ltpFR2	8	17	HUMAN	726	n/a	n/a	0	0	0
3921.324	n/a	WORD	1960662	wordpools/wasnorm_wordpool_576.txt	LTP287	ltpFR2	8	17	LIVER	833	n/a	n/a	0	0	0
3923.754	n/a	WORD	1961877	wordpools/wasnorm_wordpool_576.txt	LTP287	ltpFR2	8	17	HAND	683	n/a	n/a	0	0	0
3926.3	n/a	WORD	1963150	wordpools/wasnorm_wordpool_576.txt	LTP287	ltpFR2	8	17	LONDON	843	n/a	n/a	0	0	0
3928.964	n/a	WORD	1964482	wordpools/wasnorm_wordpool_576.txt	LTP287	ltpFR2	8	17	SCALPEL	1243	n/a	n/a	0	0	0
3931.76	n/a	WORD	1965880	wordpools/wasnorm_wordpool_576.txt	LTP287	ltpFR2	8	17	NURSE	963	n/a	n/a	0	0	0
3934.388	n/a	WORD	1967194	wordpools/wasnorm_wordpool_576.txt	LTP287	ltpFR2	8	17	HOOD	714	n/a	n/a	0	0	0
3937.168	n/a	WORD	1968584	wordpools/wasnorm_wordpool_576.txt	LTP287	ltpFR2	8	17	RUG	1215	n/a	n/a	0	0	0
3939.83	n/a	WORD	1969915	wordpools/wasnorm_wordpool_576.txt	LTP287	ltpFR2	8	17	GROUND	666	n/a	n/a	0	0	0
3941.446	n/a	START	1970723	n/a	LTP287	ltpFR2	8	n/a	n/a	n/a	26	n/a	n/a	n/a	n/a
3942.416	n/a	DISTRACTOR	1971208	n/a	LTP287	ltpFR2	8	17	n/a	n/a	n/a	n/a	0	0	0
3942.428	n/a	PROB	1971214	n/a	LTP287	ltpFR2	8	n/a	n/a	n/a	26	7	2	3	4
3944.408	n/a	PROB	1972204	n/a	LTP287	ltpFR2	8	n/a	n/a	n/a	26	15	2	9	4
3946.804	n/a	PROB	1973402	n/a	LTP287	ltpFR2	8	n/a	n/a	n/a	26	12	3	6	3
3948.702	n/a	PROB	1974351	n/a	LTP287	ltpFR2	8	n/a	n/a	n/a	26	13	6	5	2
3951.398	n/a	PROB	1975699	n/a	LTP287	ltpFR2	8	n/a	n/a	n/a	26	15	6	8	1
3953.278	n/a	PROB	1976639	n/a	LTP287	ltpFR2	8	n/a	n/a	n/a	26	7	3	3	1
3955.192	n/a	PROB	1977596	n/a	LTP287	ltpFR2	8	n/a	n/a	n/a	26	22	8	5	9
3958.238	n/a	PROB	1979119	n/a	LTP287	ltpFR2	8	n/a	n/a	n/a	26	17	9	7	1
3959.884	n/a	PROB	1979942	n/a	LTP287	ltpFR2	8	n/a	n/a	n/a	26	9	4	1	4
3961.266	n/a	PROB	1980633	n/a	LTP287	ltpFR2	8	n/a	n/a	n/a	26	13	2	9	2
3965.446	n/a	STOP	1982723	n/a	LTP287	ltpFR2	8	n/a	n/a	n/a	26	n/a	n/a	n/a	n/a
3967.324	n/a	REC_START	1983662	n/a	LTP287	ltpFR2	8	17	n/a	n/a	n/a	n/a	0	0	0
3967.932	n/a	REC_WORD	1983966	wordpools/wasnorm_wordpool_576.txt	LTP287	ltpFR2	8	17	PRINCESS	1125	n/a	n/a	0	0	0
3969.088	n/a	REC_WORD	1984544	wordpools/wasnorm_wordpool_576.txt	LTP287	ltpFR2	8	17	BOARD	143	n/a	n/a	0	0	0
3970.614	n/a	REC_WORD	1985307	wordpools/wasnorm_wordpool_576.txt	LTP287	ltpFR2	8	17	PILOT	1070	n/a	n/a	0	0	0
3995.664	n/a	REC_WORD	1997832	wordpools/wasnorm_wordpool_576.txt	LTP287	ltpFR2	8	17	MONSTER	912	n/a	n/a	0	0	0
4057.974	n/a	DISTRACTOR	2028987	n/a	LTP287	ltpFR2	8	18	n/a	n/a	n/a	n/a	0	0	0
4057.974	n/a	START	2028987	n/a	LTP287	ltpFR2	8	n/a	n/a	n/a	27	n/a	n/a	n/a	n/a
4058.008	n/a	PROB	2029004	n/a	LTP287	ltpFR2	8	n/a	n/a	n/a	27	12	3	1	8
4061.168	n/a	PROB	2030584	n/a	LTP287	ltpFR2	8	n/a	n/a	n/a	27	16	2	6	8
4063.082	n/a	PROB	2031541	n/a	LTP287	ltpFR2	8	n/a	n/a	n/a	27	21	4	8	9
4065.878	n/a	PROB	2032939	n/a	LTP287	ltpFR2	8	n/a	n/a	n/a	27	12	5	2	5
4067.192	n/a	PROB	2033596	n/a	LTP287	ltpFR2	8	n/a	n/a	n/a	27	18	5	9	4
4068.84	n/a	PROB	2034420	n/a	LTP287	ltpFR2	8	n/a	n/a	n/a	27	14	1	7	6
4070.404	n/a	PROB	2035202	n/a	LTP287	ltpFR2	8	n/a	n/a	n/a	27	19	9	1	9
4071.852	n/a	PROB	2035926	n/a	LTP287	ltpFR2	8	n/a	n/a	n/a	27	19	4	6	9
4073.002	n/a	PROB	2036501	n/a	LTP287	ltpFR2	8	n/a	n/a	n/a	27	12	3	3	6
4074.998	n/a	PROB	2037499	n/a	LTP287	ltpFR2	8	n/a	n/a	n/a	27	9	2	4	3
4077.928	n/a	PROB	2038964	n/a	LTP287	ltpFR2	8	n/a	n/a	n/a	27	8	1	2	5
4079.542	n/a	PROB	2039771	n/a	LTP287	ltpFR2	8	n/a	n/a	n/a	27	20	9	6	5
4081.488	n/a	STOP	2040744	n/a	LTP287	ltpFR2	8	n/a	n/a	n/a	27	n/a	n/a	n/a	n/a
4082.82	n/a	WORD	2041410	wordpools/wasnorm_wordpool_576.txt	LTP287	ltpFR2	8	18	SHORTS	1293	n/a	n/a	0	0	0
4085.416	n/a	WORD	2042708	wordpools/wasnorm_wordpool_576.txt	LTP287	ltpFR2	8	18	DENIM	446	n/a	n/a	0	0	0
4088.212	n/a	WORD	2044106	wordpools/wasnorm_wordpool_576.txt	LTP287	ltpFR2	8	18	SEAL	1262	n/a	n/a	0	0	0
4090.742	n/a	WORD	2045371	wordpools/wasnorm_wordpool_576.txt	LTP287	ltpFR2	8	18	GAVEL	627	n/a	n/a	0	0	0
4093.304	n/a	WORD	2046652	wordpools/wasnorm_wordpool_576.txt	LTP287	ltpFR2	8	18	TRIBE	1505	n/a	n/a	0	0	0
4095.918	n/a	WORD	2047959	wordpools/wasnorm_wordpool_576.txt	LTP287	ltpFR2	8	18	MAILBOX	857	n/a	n/a	0	0	0
4098.414	n/a	WORD	2049207	wordpools/wasnorm_wordpool_576.txt	LTP287	ltpFR2	8	18	CIGAR	308	n/a	n/a	0	0	0
4101.044	n/a	WORD	2050522	wordpools/wasnorm_wordpool_576.txt	LTP287	ltpFR2	8	18	GARLIC	624	n/a	n/a	0	0	0
4103.672	n/a	WORD	2051836	wordpools/wasnorm_wordpool_576.txt	LTP287	ltpFR2	8	18	DIVER	476	n/a	n/a	0	0	0
4106.486	n/a	WORD	2053243	wordpools/wasnorm_wordpool_576.txt	LTP287	ltpFR2	8	18	JAPAN	749	n/a	n/a	0	0	0
4108.982	n/a	WORD	2054491	wordpools/wasnorm_wordpool_576.txt	LTP287	ltpFR2	8	18	WINDOW	1611	n/a	n/a	0	0	0
4111.462	n/a	WORD	2055731	wordpools/wasnorm_wordpool_576.txt	LTP287	ltpFR2	8	18	CONCERT	360	n/a	n/a	0	0	0
4114.29	n/a	WORD	2057145	wordpools/wasnorm_wordpool_576.txt	LTP287	ltpFR2	8	18	SLIDE	1326	n/a	n/a	0	0	0
4117.02	n/a	WORD	2058510	wordpools/wasnorm_wordpool_576.txt	LTP287	ltpFR2	8	18	DRAWING	494	n/a	n/a	0	0	0
4119.45	n/a	WORD	2059725	wordpools/wasnorm_wordpool_576.txt	LTP287	ltpFR2	8	18	FRAME	600	n/a	n/a	0	0	0
4122.03	n/a	WORD	2061015	wordpools/wasnorm_wordpool_576.txt	LTP287	ltpFR2	8	18	POSTAGE	1113	n/a	n/a	0	0	0
4124.708	n/a	WORD	2062354	wordpools/wasnorm_wordpool_576.txt	LTP287	ltpFR2	8	18	COWBOY	395	n/a	n/a	0	0	0
4127.504	n/a	WORD	2063752	wordpools/wasnorm_wordpool_576.txt	LTP287	ltpFR2	8	18	XEROX	1628	n/a	n/a	0	0	0
4130.134	n/a	WORD	2065067	wordpools/wasnorm_wordpool_576.txt	LTP287	ltpFR2	8	18	PARSLEY	1016	n/a	n/a	0	0	0
4132.564	n/a	WORD	2066282	wordpools/wasnorm_wordpool_576.txt	LTP287	ltpFR2	8	18	BACKBONE	66	n/a	n/a	0	0	0
4135.076	n/a	WORD	2067538	wordpools/wasnorm_wordpool_576.txt	LTP287	ltpFR2	8	18	DANCER	437	n/a	n/a	0	0	0
4137.556	n/a	WORD	2068778	wordpools/wasnorm_wordpool_576.txt	LTP287	ltpFR2	8	18	JUNGLE	764	n/a	n/a	0	0	0
4140.152	n/a	WORD	2070076	wordpools/wasnorm_wordpool_576.txt	LTP287	ltpFR2	8	18	RECEIPT	1173	n/a	n/a	0	0	0
4142.748	n/a	WORD	2071374	wordpools/wasnorm_wordpool_576.txt	LTP287	ltpFR2	8	18	SKETCH	1315	n/a	n/a	0	0	0
4144.362	n/a	START	2072181	n/a	LTP287	ltpFR2	8	n/a	n/a	n/a	28	n/a	n/a	n/a	n/a
4145.46	n/a	DISTRACTOR	2072730	n/a	LTP287	ltpFR2	8	18	n/a	n/a	n/a	n/a	0	0	0
4145.478	n/a	PROB	2072739	n/a	LTP287	ltpFR2	8	n/a	n/a	n/a	28	17	8	5	4
4148.058	n/a	PROB	2074029	n/a	LTP287	ltpFR2	8	n/a	n/a	n/a	28	13	5	4	4
4150.22	n/a	PROB	2075110	n/a	LTP287	ltpFR2	8	n/a	n/a	n/a	28	14	1	5	8
4151.902	n/a	PROB	2075951	n/a	LTP287	ltpFR2	8	n/a	n/a	n/a	28	18	9	1	8
4153.082	n/a	PROB	2076541	n/a	LTP287	ltpFR2	8	n/a	n/a	n/a	28	13	6	6	1
4154.414	n/a	PROB	2077207	n/a	LTP287	ltpFR2	8	n/a	n/a	n/a	28	6	1	3	2
4156.094	n/a	PROB	2078047	n/a	LTP287	ltpFR2	8	n/a	n/a	n/a	28	17	8	6	3
4158.158	n/a	PROB	2079079	n/a	LTP287	ltpFR2	8	n/a	n/a	n/a	28	12	8	3	1
4160.088	n/a	PROB	2080044	n/a	LTP287	ltpFR2	8	n/a	n/a	n/a	28	19	5	6	8
4163.218	n/a	PROB	2081609	n/a	LTP287	ltpFR2	8	n/a	n/a	n/a	28	19	2	8	9
4164.548	n/a	PROB	2082274	n/a	LTP287	ltpFR2	8	n/a	n/a	n/a	28	22	9	7	6
4166.906	n/a	STOP	2083453	n/a	LTP287	ltpFR2	8	n/a	n/a	n/a	28	n/a	n/a	n/a	n/a
4170.224	n/a	REC_START	2085112	n/a	LTP287	ltpFR2	8	18	n/a	n/a	n/a	n/a	0	0	0
4172.882	n/a	REC_WORD	2086441	wordpools/wasnorm_wordpool_576.txt	LTP287	ltpFR2	8	18	TRIBE	1505	n/a	n/a	0	0	0
4260.858	n/a	DISTRACTOR	2130429	n/a	LTP287	ltpFR2	8	19	n/a	n/a	n/a	n/a	0	0	0
4260.858	n/a	START	2130429	n/a	LTP287	ltpFR2	8	n/a	n/a	n/a	29	n/a	n/a	n/a	n/a
4260.89	n/a	PROB	2130445	n/a	LTP287	ltpFR2	8	n/a	n/a	n/a	29	17	9	5	3
4262.572	n/a	PROB	2131286	n/a	LTP287	ltpFR2	8	n/a	n/a	n/a	29	17	7	7	3
4264.368	n/a	PROB	2132184	n/a	LTP287	ltpFR2	8	n/a	n/a	n/a	29	13	3	8	2
4266.598	n/a	PROB	2133299	n/a	LTP287	ltpFR2	8	n/a	n/a	n/a	29	17	5	6	6
4268.63	n/a	PROB	2134315	n/a	LTP287	ltpFR2	8	n/a	n/a	n/a	29	16	9	3	4
4272.024	n/a	PROB	2136012	n/a	LTP287	ltpFR2	8	n/a	n/a	n/a	29	11	4	3	4
4274.886	n/a	PROB	2137443	n/a	LTP287	ltpFR2	8	n/a	n/a	n/a	29	19	6	8	5
4276.832	n/a	PROB	2138416	n/a	LTP287	ltpFR2	8	n/a	n/a	n/a	29	14	6	6	2
4278.13	n/a	PROB	2139065	n/a	LTP287	ltpFR2	8	n/a	n/a	n/a	29	22	9	4	9
4280.294	n/a	PROB	2140147	n/a	LTP287	ltpFR2	8	n/a	n/a	n/a	29	16	9	6	1
4282.274	n/a	PROB	2141137	n/a	LTP287	ltpFR2	8	n/a	n/a	n/a	29	21	9	8	4
4284.146	n/a	STOP	2142073	n/a	LTP287	ltpFR2	8	n/a	n/a	n/a	29	n/a	n/a	n/a	n/a
4285.986	n/a	WORD	2142993	wordpools/wasnorm_wordpool_576.txt	LTP287	ltpFR2	8	19	SALT	1229	n/a	n/a	0	0	0
4288.698	n/a	WORD	2144349	wordpools/wasnorm_wordpool_576.txt	LTP287	ltpFR2	8	19	PEPPER	1047	n/a	n/a	0	0	0
4291.312	n/a	WORD	2145656	wordpools/wasnorm_wordpool_576.txt	LTP287	ltpFR2	8	19	ITEM	746	n/a	n/a	0	0	0
4293.84	n/a	WORD	2146920	wordpools/wasnorm_wordpool_576.txt	LTP287	ltpFR2	8	19	SHOVEL	1295	n/a	n/a	0	0	0
4296.604	n/a	WORD	2148302	wordpools/wasnorm_wordpool_576.txt	LTP287	ltpFR2	8	19	GAZELLE	628	n/a	n/a	0	0	0
4299.382	n/a	WORD	2149691	wordpools/wasnorm_wordpool_576.txt	LTP287	ltpFR2	8	19	PANTHER	1009	n/a	n/a	0	0	0
4302.162	n/a	WORD	2151081	wordpools/wasnorm_wordpool_576.txt	LTP287	ltpFR2	8	19	CORAL	378	n/a	n/a	0	0	0
4304.724	n/a	WORD	2152362	wordpools/wasnorm_wordpool_576.txt	LTP287	ltpFR2	8	19	THIEF	1456	n/a	n/a	0	0	0
4307.222	n/a	WORD	2153611	wordpools/wasnorm_wordpool_576.txt	LTP287	ltpFR2	8	19	CHAUFFEUR	283	n/a	n/a	0	0	0
4309.952	n/a	WORD	2154976	wordpools/wasnorm_wordpool_576.txt	LTP287	ltpFR2	8	19	BUREAU	199	n/a	n/a	0	0	0
4312.464	n/a	WORD	2156232	wordpools/wasnorm_wordpool_576.txt	LTP287	ltpFR2	8	19	HEDGE	699	n/a	n/a	0	0	0
4315.276	n/a	WORD	2157638	wordpools/wasnorm_wordpool_576.txt	LTP287	ltpFR2	8	19	GHETTO	633	n/a	n/a	0	0	0
4317.924	n/a	WORD	2158962	wordpools/wasnorm_wordpool_576.txt	LTP287	ltpFR2	8	19	BLADE	134	n/a	n/a	0	0	0
4320.734	n/a	WORD	2160367	wordpools/wasnorm_wordpool_576.txt	LTP287	ltpFR2	8	19	LAVA	804	n/a	n/a	0	0	0
4323.33	n/a	WORD	2161665	wordpools/wasnorm_wordpool_576.txt	LTP287	ltpFR2	8	19	STICKER	1382	n/a	n/a	0	0	0
4326.126	n/a	WORD	2163063	wordpools/wasnorm_wordpool_576.txt	LTP287	ltpFR2	8	19	TRANSPLANT	1496	n/a	n/a	0	0	0
4328.872	n/a	WORD	2164436	wordpools/wasnorm_wordpool_576.txt	LTP287	ltpFR2	8	19	ANTLER	29	n/a	n/a	0	0	0
4331.618	n/a	WORD	2165809	wordpools/wasnorm_wordpool_576.txt	LTP287	ltpFR2	8	19	BEEF	113	n/a	n/a	0	0	0
4334.314	n/a	WORD	2167157	wordpools/wasnorm_wordpool_576.txt	LTP287	ltpFR2	8	19	LUNCH	849	n/a	n/a	0	0	0
4336.778	n/a	WORD	2168389	wordpools/wasnorm_wordpool_576.txt	LTP287	ltpFR2	8	19	CAFE	216	n/a	n/a	0	0	0
4339.44	n/a	WORD	2169720	wordpools/wasnorm_wordpool_576.txt	LTP287	ltpFR2	8	19	DONKEY	484	n/a	n/a	0	0	0
4342.236	n/a	WORD	2171118	wordpools/wasnorm_wordpool_576.txt	LTP287	ltpFR2	8	19	BUTCHER	203	n/a	n/a	0	0	0
4344.7	n/a	WORD	2172350	wordpools/wasnorm_wordpool_576.txt	LTP287	ltpFR2	8	19	MARSH	874	n/a	n/a	0	0	0
4347.446	n/a	WORD	2173723	wordpools/wasnorm_wordpool_576.txt	LTP287	ltpFR2	8	19	SADDLE	1221	n/a	n/a	0	0	0
4349.062	n/a	START	2174531	n/a	LTP287	ltpFR2	8	n/a	n/a	n/a	30	n/a	n/a	n/a	n/a
4349.878	n/a	DISTRACTOR	2174939	n/a	LTP287	ltpFR2	8	19	n/a	n/a	n/a	n/a	0	0	0
4349.892	n/a	PROB	2174946	n/a	LTP287	ltpFR2	8	n/a	n/a	n/a	30	20	9	5	6
4352.804	n/a	PROB	2176402	n/a	LTP287	ltpFR2	8	n/a	n/a	n/a	30	14	9	2	3
4354.768	n/a	PROB	2177384	n/a	LTP287	ltpFR2	8	n/a	n/a	n/a	30	23	9	9	5
4356.782	n/a	PROB	2178391	n/a	LTP287	ltpFR2	8	n/a	n/a	n/a	30	12	4	1	7
4359.444	n/a	PROB	2179722	n/a	LTP287	ltpFR2	8	n/a	n/a	n/a	30	10	3	1	6
4361.258	n/a	PROB	2180629	n/a	LTP287	ltpFR2	8	n/a	n/a	n/a	30	20	2	9	9
4362.806	n/a	PROB	2181403	n/a	LTP287	ltpFR2	8	n/a	n/a	n/a	30	19	6	5	8
4366.134	n/a	PROB	2183067	n/a	LTP287	ltpFR2	8	n/a	n/a	n/a	30	14	4	5	5
4367.332	n/a	PROB	2183666	n/a	LTP287	ltpFR2	8	n/a	n/a	n/a	30	11	8	2	1
4368.364	n/a	PROB	2184182	n/a	LTP287	ltpFR2	8	n/a	n/a	n/a	30	18	6	4	8
4369.68	n/a	PROB	2184840	n/a	LTP287	ltpFR2	8	n/a	n/a	n/a	30	11	5	1	5
4370.678	n/a	PROB	2185339	n/a	LTP287	ltpFR2	8	n/a	n/a	n/a	30	16	8	6	2
4373.046	n/a	STOP	2186523	n/a	LTP287	ltpFR2	8	n/a	n/a	n/a	30	n/a	n/a	n/a	n/a
4374.974	n/a	REC_START	2187487	n/a	LTP287	ltpFR2	8	19	n/a	n/a	n/a	n/a	0	0	0
4375.452	n/a	REC_WORD	2187726	wordpools/wasnorm_wordpool_576.txt	LTP287	ltpFR2	8	19	SALT	1229	n/a	n/a	0	0	0
4376.448	n/a	REC_WORD	2188224	wordpools/wasnorm_wordpool_576.txt	LTP287	ltpFR2	8	19	PEPPER	1047	n/a	n/a	0	0	0
4377.31	n/a	REC_WORD	2188655	wordpools/wasnorm_wordpool_576.txt	LTP287	ltpFR2	8	19	ITEM	746	n/a	n/a	0	0	0
4465.62	n/a	WORD	2232810	wordpools/wasnorm_wordpool_576.txt	LTP287	ltpFR2	8	20	HORSE	719	n/a	n/a	0	0	0
4468.2	n/a	WORD	2234100	wordpools/wasnorm_wordpool_576.txt	LTP287	ltpFR2	8	20	SHARK	1275	n/a	n/a	0	0	0
4470.746	n/a	WORD	2235373	wordpools/wasnorm_wordpool_576.txt	LTP287	ltpFR2	8	20	WHISKERS	1605	n/a	n/a	0	0	0
4473.492	n/a	WORD	2236746	wordpools/wasnorm_wordpool_576.txt	LTP287	ltpFR2	8	20	SWITCH	1422	n/a	n/a	0	0	0
4475.99	n/a	WORD	2237995	wordpools/wasnorm_wordpool_576.txt	LTP287	ltpFR2	8	20	FLASHLIGHT	575	n/a	n/a	0	0	0
4478.668	n/a	WORD	2239334	wordpools/wasnorm_wordpool_576.txt	LTP287	ltpFR2	8	20	FRIEND	606	n/a	n/a	0	0	0
4481.264	n/a	WORD	2240632	wordpools/wasnorm_wordpool_576.txt	LTP287	ltpFR2	8	20	HAWK	692	n/a	n/a	0	0	0
4483.778	n/a	WORD	2241889	wordpools/wasnorm_wordpool_576.txt	LTP287	ltpFR2	8	20	CLAM	315	n/a	n/a	0	0	0
4486.208	n/a	WORD	2243104	wordpools/wasnorm_wordpool_576.txt	LTP287	ltpFR2	8	20	BUG	187	n/a	n/a	0	0	0
4488.87	n/a	WORD	2244435	wordpools/wasnorm_wordpool_576.txt	LTP287	ltpFR2	8	20	DORM	488	n/a	n/a	0	0	0
4491.382	n/a	WORD	2245691	wordpools/wasnorm_wordpool_576.txt	LTP287	ltpFR2	8	20	HEADBAND	696	n/a	n/a	0	0	0
4494.014	n/a	WORD	2247007	wordpools/wasnorm_wordpool_576.txt	LTP287	ltpFR2	8	20	LILY	821	n/a	n/a	0	0	0
4496.742	n/a	WORD	2248371	wordpools/wasnorm_wordpool_576.txt	LTP287	ltpFR2	8	20	KIDNEY	776	n/a	n/a	0	0	0
4499.538	n/a	WORD	2249769	wordpools/wasnorm_wordpool_576.txt	LTP287	ltpFR2	8	20	FIREPLACE	570	n/a	n/a	0	0	0
4502.084	n/a	WORD	2251042	wordpools/wasnorm_wordpool_576.txt	LTP287	ltpFR2	8	20	FIREMAN	569	n/a	n/a	0	0	0
4504.83	n/a	WORD	2252415	wordpools/wasnorm_wordpool_576.txt	LTP287	ltpFR2	8	20	STALLION	1369	n/a	n/a	0	0	0
4507.576	n/a	WORD	2253788	wordpools/wasnorm_wordpool_576.txt	LTP287	ltpFR2	8	20	DRESSER	496	n/a	n/a	0	0	0
4510.156	n/a	WORD	2255078	wordpools/wasnorm_wordpool_576.txt	LTP287	ltpFR2	8	20	ARM	38	n/a	n/a	0	0	0
4512.634	n/a	WORD	2256317	wordpools/wasnorm_wordpool_576.txt	LTP287	ltpFR2	8	20	TWISTER	1530	n/a	n/a	0	0	0
4515.348	n/a	WORD	2257674	wordpools/wasnorm_wordpool_576.txt	LTP287	ltpFR2	8	20	CRITIC	410	n/a	n/a	0	0	0
4518.012	n/a	WORD	2259006	wordpools/wasnorm_wordpool_576.txt	LTP287	ltpFR2	8	20	OINTMENT	974	n/a	n/a	0	0	0
4520.59	n/a	WORD	2260295	wordpools/wasnorm_wordpool_576.txt	LTP287	ltpFR2	8	20	PATIENT	1024	n/a	n/a	0	0	0
4523.136	n/a	WORD	2261568	wordpools/wasnorm_wordpool_576.txt	LTP287	ltpFR2	8	20	TABLE	1426	n/a	n/a	0	0	0
4525.9	n/a	WORD	2262950	wordpools/wasnorm_wordpool_576.txt	LTP287	ltpFR2	8	20	TABLET	1427	n/a	n/a	0	0	0
4527.512	n/a	START	2263756	n/a	LTP287	ltpFR2	8	n/a	n/a	n/a	31	n/a	n/a	n/a	n/a
4528.57	n/a	DISTRACTOR	2264285	n/a	LTP287	ltpFR2	8	20	n/a	n/a	n/a	n/a	0	0	0
4528.578	n/a	PROB	2264289	n/a	LTP287	ltpFR2	8	n/a	n/a	n/a	31	24	9	6	9
4530.64	n/a	PROB	2265320	n/a	LTP287	ltpFR2	8	n/a	n/a	n/a	31	22	9	6	2
4531.99	n/a	PROB	2265995	n/a	LTP287	ltpFR2	8	n/a	n/a	n/a	31	25	8	9	8
4536.648	n/a	PROB	2268324	n/a	LTP287	ltpFR2	8	n/a	n/a	n/a	31	14	6	6	2
4538.446	n/a	PROB	2269223	n/a	LTP287	ltpFR2	8	n/a	n/a	n/a	31	15	9	1	5
4539.528	n/a	PROB	2269764	n/a	LTP287	ltpFR2	8	n/a	n/a	n/a	31	11	7	3	1
4540.726	n/a	PROB	2270363	n/a	LTP287	ltpFR2	8	n/a	n/a	n/a	31	18	6	6	6
4542.908	n/a	PROB	2271454	n/a	LTP287	ltpFR2	8	n/a	n/a	n/a	31	8	4	3	1
4544.654	n/a	PROB	2272327	n/a	LTP287	ltpFR2	8	n/a	n/a	n/a	31	17	4	7	6
4547.466	n/a	PROB	2273733	n/a	LTP287	ltpFR2	8	n/a	n/a	n/a	31	17	5	6	6
4550.008	n/a	STOP	2275004	n/a	LTP287	ltpFR2	8	n/a	n/a	n/a	31	n/a	n/a	n/a	n/a
4553.324	n/a	REC_START	2276662	n/a	LTP287	ltpFR2	8	20	n/a	n/a	n/a	n/a	0	0	0
4553.996	n/a	REC_WORD	2276998	wordpools/wasnorm_wordpool_576.txt	LTP287	ltpFR2	8	20	OINTMENT	974	n/a	n/a	0	0	0
4554.754	n/a	REC_WORD	2277377	wordpools/wasnorm_wordpool_576.txt	LTP287	ltpFR2	8	20	TABLET	1427	n/a	n/a	0	0	0
4555.38	n/a	REC_WORD	2277690	wordpools/wasnorm_wordpool_576.txt	LTP287	ltpFR2	8	20	TABLE	1426	n/a	n/a	0	0	0
4556.192	n/a	REC_WORD	2278096	wordpools/wasnorm_wordpool_576.txt	LTP287	ltpFR2	8	20	PATIENT	1024	n/a	n/a	0	0	0
4556.84	n/a	REC_WORD	2278420	wordpools/wasnorm_wordpool_576.txt	LTP287	ltpFR2	8	20	STALLION	1369	n/a	n/a	0	0	0
4557.748	n/a	REC_WORD	2278874	wordpools/wasnorm_wordpool_576.txt	LTP287	ltpFR2	8	20	HORSE	719	n/a	n/a	0	0	0
4558.438	n/a	REC_WORD	2279219	wordpools/wasnorm_wordpool_576.txt	LTP287	ltpFR2	8	20	SHARK	1275	n/a	n/a	0	0	0
4559.678	n/a	REC_WORD	2279839	wordpools/wasnorm_wordpool_576.txt	LTP287	ltpFR2	8	20	ARM	38	n/a	n/a	0	0	0
4644.026	n/a	WORD	2322013	wordpools/wasnorm_wordpool_576.txt	LTP287	ltpFR2	8	21	TREAT	1501	n/a	n/a	0	0	0
4646.77	n/a	WORD	2323385	wordpools/wasnorm_wordpool_576.txt	LTP287	ltpFR2	8	21	LEOPARD	812	n/a	n/a	0	0	0
4649.234	n/a	WORD	2324617	wordpools/wasnorm_wordpool_576.txt	LTP287	ltpFR2	8	21	LOFT	840	n/a	n/a	0	0	0
4651.78	n/a	WORD	2325890	wordpools/wasnorm_wordpool_576.txt	LTP287	ltpFR2	8	21	PLUTO	1092	n/a	n/a	0	0	0
4654.558	n/a	WORD	2327279	wordpools/wasnorm_wordpool_576.txt	LTP287	ltpFR2	8	21	BLACKBOARD	133	n/a	n/a	0	0	0
4657.006	n/a	WORD	2328503	wordpools/wasnorm_wordpool_576.txt	LTP287	ltpFR2	8	21	DRESS	495	n/a	n/a	0	0	0
4659.434	n/a	WORD	2329717	wordpools/wasnorm_wordpool_576.txt	LTP287	ltpFR2	8	21	CRICKET	408	n/a	n/a	0	0	0
4662.03	n/a	WORD	2331015	wordpools/wasnorm_wordpool_576.txt	LTP287	ltpFR2	8	21	TART	1436	n/a	n/a	0	0	0
4664.626	n/a	WORD	2332313	wordpools/wasnorm_wordpool_576.txt	LTP287	ltpFR2	8	21	JUGGLER	763	n/a	n/a	0	0	0
4667.322	n/a	WORD	2333661	wordpools/wasnorm_wordpool_576.txt	LTP287	ltpFR2	8	21	FOREHEAD	592	n/a	n/a	0	0	0
4670.118	n/a	WORD	2335059	wordpools/wasnorm_wordpool_576.txt	LTP287	ltpFR2	8	21	TEMPLE	1448	n/a	n/a	0	0	0
4672.88	n/a	WORD	2336440	wordpools/wasnorm_wordpool_576.txt	LTP287	ltpFR2	8	21	EYELASH	546	n/a	n/a	0	0	0
4675.378	n/a	WORD	2337689	wordpools/wasnorm_wordpool_576.txt	LTP287	ltpFR2	8	21	FREEZER	604	n/a	n/a	0	0	0
4678.172	n/a	WORD	2339086	wordpools/wasnorm_wordpool_576.txt	LTP287	ltpFR2	8	21	IGLOO	734	n/a	n/a	0	0	0
4680.802	n/a	WORD	2340401	wordpools/wasnorm_wordpool_576.txt	LTP287	ltpFR2	8	21	CLIMBER	323	n/a	n/a	0	0	0
4683.282	n/a	WORD	2341641	wordpools/wasnorm_wordpool_576.txt	LTP287	ltpFR2	8	21	BRANCH	168	n/a	n/a	0	0	0
4686.03	n/a	WORD	2343015	wordpools/wasnorm_wordpool_576.txt	LTP287	ltpFR2	8	21	TERMITE	1451	n/a	n/a	0	0	0
4688.84	n/a	WORD	2344420	wordpools/wasnorm_wordpool_576.txt	LTP287	ltpFR2	8	21	SHRUB	1299	n/a	n/a	0	0	0
4691.57	n/a	WORD	2345785	wordpools/wasnorm_wordpool_576.txt	LTP287	ltpFR2	8	21	PORK	1108	n/a	n/a	0	0	0
4694.018	n/a	WORD	2347009	wordpools/wasnorm_wordpool_576.txt	LTP287	ltpFR2	8	21	FOOTBALL	591	n/a	n/a	0	0	0
4696.512	n/a	WORD	2348256	wordpools/wasnorm_wordpool_576.txt	LTP287	ltpFR2	8	21	SOFTBALL	1343	n/a	n/a	0	0	0
4699.292	n/a	WORD	2349646	wordpools/wasnorm_wordpool_576.txt	LTP287	ltpFR2	8	21	COUNTY	389	n/a	n/a	0	0	0
4701.888	n/a	WORD	2350944	wordpools/wasnorm_wordpool_576.txt	LTP287	ltpFR2	8	21	VENUS	1557	n/a	n/a	0	0	0
4704.584	n/a	WORD	2352292	wordpools/wasnorm_wordpool_576.txt	LTP287	ltpFR2	8	21	SANDWICH	1232	n/a	n/a	0	0	0
4706.198	n/a	START	2353099	n/a	LTP287	ltpFR2	8	n/a	n/a	n/a	32	n/a	n/a	n/a	n/a
4707.094	n/a	DISTRACTOR	2353547	n/a	LTP287	ltpFR2	8	21	n/a	n/a	n/a	n/a	0	0	0
4707.098	n/a	PROB	2353549	n/a	LTP287	ltpFR2	8	n/a	n/a	n/a	32	17	2	9	6
4709.994	n/a	PROB	2354997	n/a	LTP287	ltpFR2	8	n/a	n/a	n/a	32	15	8	4	3
4712.606	n/a	PROB	2356303	n/a	LTP287	ltpFR2	8	n/a	n/a	n/a	32	21	9	9	3
4714.47	n/a	PROB	2357235	n/a	LTP287	ltpFR2	8	n/a	n/a	n/a	32	18	6	5	7
4718.964	n/a	PROB	2359482	n/a	LTP287	ltpFR2	8	n/a	n/a	n/a	32	11	8	1	2
4722.508	n/a	PROB	2361254	n/a	LTP287	ltpFR2	8	n/a	n/a	n/a	32	10	1	8	1
4723.89	n/a	PROB	2361945	n/a	LTP287	ltpFR2	8	n/a	n/a	n/a	32	15	1	7	7
4725.87	n/a	PROB	2362935	n/a	LTP287	ltpFR2	8	n/a	n/a	n/a	32	11	1	8	2
4727.734	n/a	PROB	2363867	n/a	LTP287	ltpFR2	8	n/a	n/a	n/a	32	15	5	7	3
4729.354	n/a	STOP	2364677	n/a	LTP287	ltpFR2	8	n/a	n/a	n/a	32	n/a	n/a	n/a	n/a
4732.062	n/a	REC_START	2366031	n/a	LTP287	ltpFR2	8	21	n/a	n/a	n/a	n/a	0	0	0
4733.11	n/a	REC_WORD	2366555	wordpools/wasnorm_wordpool_576.txt	LTP287	ltpFR2	8	21	CLIMBER	323	n/a	n/a	0	0	0
4734.32	n/a	REC_WORD	2367160	wordpools/wasnorm_wordpool_576.txt	LTP287	ltpFR2	8	21	IGLOO	734	n/a	n/a	0	0	0
4735.368	n/a	REC_WORD	2367684	wordpools/wasnorm_wordpool_576.txt	LTP287	ltpFR2	8	21	FREEZER	604	n/a	n/a	0	0	0
4756.286	n/a	REC_WORD	2378143	wordpools/wasnorm_wordpool_576.txt	LTP287	ltpFR2	8	21	TEMPLE	1448	n/a	n/a	0	0	0
4822.76	n/a	WORD	2411380	wordpools/wasnorm_wordpool_576.txt	LTP287	ltpFR2	8	22	SISTER	1312	n/a	n/a	0	0	0
4825.356	n/a	WORD	2412678	wordpools/wasnorm_wordpool_576.txt	LTP287	ltpFR2	8	22	PIMPLE	1071	n/a	n/a	0	0	0
4828.084	n/a	WORD	2414042	wordpools/wasnorm_wordpool_576.txt	LTP287	ltpFR2	8	22	VALLEY	1545	n/a	n/a	0	0	0
4830.698	n/a	WORD	2415349	wordpools/wasnorm_wordpool_576.txt	LTP287	ltpFR2	8	22	HARP	689	n/a	n/a	0	0	0
4833.328	n/a	WORD	2416664	wordpools/wasnorm_wordpool_576.txt	LTP287	ltpFR2	8	22	BOUQUET	157	n/a	n/a	0	0	0
4835.908	n/a	WORD	2417954	wordpools/wasnorm_wordpool_576.txt	LTP287	ltpFR2	8	22	TROUT	1511	n/a	n/a	0	0	0
4838.686	n/a	WORD	2419343	wordpools/wasnorm_wordpool_576.txt	LTP287	ltpFR2	8	22	OZONE	996	n/a	n/a	0	0	0
4841.198	n/a	WORD	2420599	wordpools/wasnorm_wordpool_576.txt	LTP287	ltpFR2	8	22	LIPSTICK	829	n/a	n/a	0	0	0
4843.746	n/a	WORD	2421873	wordpools/wasnorm_wordpool_576.txt	LTP287	ltpFR2	8	22	BINDER	127	n/a	n/a	0	0	0
4846.208	n/a	WORD	2423104	wordpools/wasnorm_wordpool_576.txt	LTP287	ltpFR2	8	22	MARKER	870	n/a	n/a	0	0	0
4848.988	n/a	WORD	2424494	wordpools/wasnorm_wordpool_576.txt	LTP287	ltpFR2	8	22	SLUG	1329	n/a	n/a	0	0	0
4851.666	n/a	WORD	2425833	wordpools/wasnorm_wordpool_576.txt	LTP287	ltpFR2	8	22	FIDDLE	561	n/a	n/a	0	0	0
