mstime	trial_type	stim_file	subject	experiment	session	trial	item_name	item_num	list	answer	test_x	test_y	test_z
0	SESS_START	n/a	LTP310	ltpFR2	0	n/a	n/a	n/a	n/a	n/a	0	0	0
65643	START	n/a	LTP310	ltpFR2	0	n/a	n/a	n/a	-1	n/a	n/a	n/a	n/a
65675	PROB	n/a	LTP310	ltpFR2	0	n/a	n/a	n/a	-1	17	6	5	6
69177	PROB	n/a	LTP310	ltpFR2	0	n/a	n/a	n/a	-1	17	7	6	4
72029	PROB	n/a	LTP310	ltpFR2	0	n/a	n/a	n/a	-1	13	4	8	1
75232	PROB	n/a	LTP310	ltpFR2	0	n/a	n/a	n/a	-1	15	4	5	6
77528	STOP	n/a	LTP310	ltpFR2	0	n/a	n/a	n/a	-1	n/a	n/a	n/a	n/a
151683	WORD	wordpools/wasnorm_wordpool_576.txt	LTP310	ltpFR2	0	1	CLOTHES	327	n/a	n/a	0	0	0
154469	WORD	wordpools/wasnorm_wordpool_576.txt	LTP310	ltpFR2	0	1	SERVANT	1271	n/a	n/a	0	0	0
157171	WORD	wordpools/wasnorm_wordpool_576.txt	LTP310	ltpFR2	0	1	COD	340	n/a	n/a	0	0	0
159956	WORD	wordpools/wasnorm_wordpool_576.txt	LTP310	ltpFR2	0	1	HEDGE	699	n/a	n/a	0	0	0
162643	WORD	wordpools/wasnorm_wordpool_576.txt	LTP310	ltpFR2	0	1	FRECKLE	602	n/a	n/a	0	0	0
165178	WORD	wordpools/wasnorm_wordpool_576.txt	LTP310	ltpFR2	0	1	FOOTBALL	591	n/a	n/a	0	0	0
167897	WORD	wordpools/wasnorm_wordpool_576.txt	LTP310	ltpFR2	0	1	VALLEY	1545	n/a	n/a	0	0	0
170400	WORD	wordpools/wasnorm_wordpool_576.txt	LTP310	ltpFR2	0	1	LILY	821	n/a	n/a	0	0	0
172984	WORD	wordpools/wasnorm_wordpool_576.txt	LTP310	ltpFR2	0	1	ZEBRA	1635	n/a	n/a	0	0	0
175654	WORD	wordpools/wasnorm_wordpool_576.txt	LTP310	ltpFR2	0	1	MARKER	870	n/a	n/a	0	0	0
178272	WORD	wordpools/wasnorm_wordpool_576.txt	LTP310	ltpFR2	0	1	PLIERS	1089	n/a	n/a	0	0	0
180891	WORD	wordpools/wasnorm_wordpool_576.txt	LTP310	ltpFR2	0	1	TURTLE	1522	n/a	n/a	0	0	0
183528	WORD	wordpools/wasnorm_wordpool_576.txt	LTP310	ltpFR2	0	1	SNAIL	1332	n/a	n/a	0	0	0
186029	WORD	wordpools/wasnorm_wordpool_576.txt	LTP310	ltpFR2	0	1	ACTOR	5	n/a	n/a	0	0	0
188782	WORD	wordpools/wasnorm_wordpool_576.txt	LTP310	ltpFR2	0	1	CATCHER	258	n/a	n/a	0	0	0
191335	WORD	wordpools/wasnorm_wordpool_576.txt	LTP310	ltpFR2	0	1	MISSILE	900	n/a	n/a	0	0	0
194103	WORD	wordpools/wasnorm_wordpool_576.txt	LTP310	ltpFR2	0	1	PEDAL	1037	n/a	n/a	0	0	0
196756	WORD	wordpools/wasnorm_wordpool_576.txt	LTP310	ltpFR2	0	1	TURNIP	1521	n/a	n/a	0	0	0
199342	WORD	wordpools/wasnorm_wordpool_576.txt	LTP310	ltpFR2	0	1	FRIAR	605	n/a	n/a	0	0	0
202060	WORD	wordpools/wasnorm_wordpool_576.txt	LTP310	ltpFR2	0	1	OX	994	n/a	n/a	0	0	0
204530	WORD	wordpools/wasnorm_wordpool_576.txt	LTP310	ltpFR2	0	1	BEEF	113	n/a	n/a	0	0	0
207048	WORD	wordpools/wasnorm_wordpool_576.txt	LTP310	ltpFR2	0	1	CANYON	235	n/a	n/a	0	0	0
209617	WORD	wordpools/wasnorm_wordpool_576.txt	LTP310	ltpFR2	0	1	DRAWING	494	n/a	n/a	0	0	0
212219	WORD	wordpools/wasnorm_wordpool_576.txt	LTP310	ltpFR2	0	1	CHAUFFEUR	283	n/a	n/a	0	0	0
213837	START	n/a	LTP310	ltpFR2	0	n/a	n/a	n/a	1	n/a	n/a	n/a	n/a
214930	DISTRACTOR	n/a	LTP310	ltpFR2	0	1	n/a	n/a	n/a	n/a	0	0	0
214938	PROB	n/a	LTP310	ltpFR2	0	n/a	n/a	n/a	1	19	9	3	7
217724	PROB	n/a	LTP310	ltpFR2	0	n/a	n/a	n/a	1	10	3	1	6
220460	PROB	n/a	LTP310	ltpFR2	0	n/a	n/a	n/a	1	19	7	7	5
225665	PROB	n/a	LTP310	ltpFR2	0	n/a	n/a	n/a	1	17	6	5	6
227999	PROB	n/a	LTP310	ltpFR2	0	n/a	n/a	n/a	1	24	7	8	9
230536	PROB	n/a	LTP310	ltpFR2	0	n/a	n/a	n/a	1	10	5	4	1
232521	PROB	n/a	LTP310	ltpFR2	0	n/a	n/a	n/a	1	16	9	1	6
234822	PROB	n/a	LTP310	ltpFR2	0	n/a	n/a	n/a	1	17	7	7	3
236822	STOP	n/a	LTP310	ltpFR2	0	n/a	n/a	n/a	1	n/a	n/a	n/a	n/a
239761	REC_START	n/a	LTP310	ltpFR2	0	1	n/a	n/a	n/a	n/a	0	0	0
241390	REC_WORD	wordpools/wasnorm_wordpool_576.txt	LTP310	ltpFR2	0	1	CHAUFFEUR	283	n/a	n/a	0	0	0
242763	REC_WORD	wordpools/wasnorm_wordpool_576.txt	LTP310	ltpFR2	0	1	SERVANT	1271	n/a	n/a	0	0	0
245222	REC_WORD	wordpools/wasnorm_wordpool_576.txt	LTP310	ltpFR2	0	1	OX	994	n/a	n/a	0	0	0
246248	REC_WORD	wordpools/wasnorm_wordpool_576.txt	LTP310	ltpFR2	0	1	BEEF	113	n/a	n/a	0	0	0
247549	REC_WORD	wordpools/wasnorm_wordpool_576.txt	LTP310	ltpFR2	0	1	LILY	821	n/a	n/a	0	0	0
248622	REC_WORD	wordpools/wasnorm_wordpool_576.txt	LTP310	ltpFR2	0	1	VALLEY	1545	n/a	n/a	0	0	0
249955	REC_WORD	wordpools/wasnorm_wordpool_576.txt	LTP310	ltpFR2	0	1	CANYON	235	n/a	n/a	0	0	0
251474	REC_WORD	wordpools/wasnorm_wordpool_576.txt	LTP310	ltpFR2	0	1	TURTLE	1522	n/a	n/a	0	0	0
252728	REC_WORD	wordpools/wasnorm_wordpool_576.txt	LTP310	ltpFR2	0	1	ZEBRA	1635	n/a	n/a	0	0	0
257334	REC_WORD_VV	wordpools/wasnorm_wordpool_576.txt	LTP310	ltpFR2	0	1	<>	-1	n/a	n/a	0	0	0
263272	REC_WORD	wordpools/wasnorm_wordpool_576.txt	LTP310	ltpFR2	0	1	CLOTHES	327	n/a	n/a	0	0	0
265692	REC_WORD_VV	wordpools/wasnorm_wordpool_576.txt	LTP310	ltpFR2	0	1	<>	-1	n/a	n/a	0	0	0
274942	REC_WORD	wordpools/wasnorm_wordpool_576.txt	LTP310	ltpFR2	0	1	FRIAR	605	n/a	n/a	0	0	0
288007	REC_WORD	wordpools/wasnorm_wordpool_576.txt	LTP310	ltpFR2	0	1	TURNIP	1521	n/a	n/a	0	0	0
330390	DISTRACTOR	n/a	LTP310	ltpFR2	0	2	n/a	n/a	n/a	n/a	0	0	0
330390	START	n/a	LTP310	ltpFR2	0	n/a	n/a	n/a	2	n/a	n/a	n/a	n/a
330423	PROB	n/a	LTP310	ltpFR2	0	n/a	n/a	n/a	2	12	1	3	8
333559	PROB	n/a	LTP310	ltpFR2	0	n/a	n/a	n/a	2	13	2	4	7
335994	PROB	n/a	LTP310	ltpFR2	0	n/a	n/a	n/a	2	15	8	1	6
338996	PROB	n/a	LTP310	ltpFR2	0	n/a	n/a	n/a	2	15	3	3	9
342801	PROB	n/a	LTP310	ltpFR2	0	n/a	n/a	n/a	2	17	4	7	6
345470	PROB	n/a	LTP310	ltpFR2	0	n/a	n/a	n/a	2	10	2	4	4
347455	PROB	n/a	LTP310	ltpFR2	0	n/a	n/a	n/a	2	15	3	3	9
350290	PROB	n/a	LTP310	ltpFR2	0	n/a	n/a	n/a	2	12	3	2	7
354390	STOP	n/a	LTP310	ltpFR2	0	n/a	n/a	n/a	2	n/a	n/a	n/a	n/a
355412	WORD	wordpools/wasnorm_wordpool_576.txt	LTP310	ltpFR2	0	2	TOMBSTONE	1478	n/a	n/a	0	0	0
358230	WORD	wordpools/wasnorm_wordpool_576.txt	LTP310	ltpFR2	0	2	FEMALE	559	n/a	n/a	0	0	0
360832	WORD	wordpools/wasnorm_wordpool_576.txt	LTP310	ltpFR2	0	2	VALVE	1546	n/a	n/a	0	0	0
363369	WORD	wordpools/wasnorm_wordpool_576.txt	LTP310	ltpFR2	0	2	GREASE	660	n/a	n/a	0	0	0
366020	WORD	wordpools/wasnorm_wordpool_576.txt	LTP310	ltpFR2	0	2	BARREL	91	n/a	n/a	0	0	0
368573	WORD	wordpools/wasnorm_wordpool_576.txt	LTP310	ltpFR2	0	2	SHELTER	1282	n/a	n/a	0	0	0
371308	WORD	wordpools/wasnorm_wordpool_576.txt	LTP310	ltpFR2	0	2	ITEM	746	n/a	n/a	0	0	0
373744	WORD	wordpools/wasnorm_wordpool_576.txt	LTP310	ltpFR2	0	2	FIREMAN	569	n/a	n/a	0	0	0
376296	WORD	wordpools/wasnorm_wordpool_576.txt	LTP310	ltpFR2	0	2	CASKET	255	n/a	n/a	0	0	0
378831	WORD	wordpools/wasnorm_wordpool_576.txt	LTP310	ltpFR2	0	2	PICNIC	1060	n/a	n/a	0	0	0
381651	WORD	wordpools/wasnorm_wordpool_576.txt	LTP310	ltpFR2	0	2	NURSE	963	n/a	n/a	0	0	0
384119	WORD	wordpools/wasnorm_wordpool_576.txt	LTP310	ltpFR2	0	2	OINTMENT	974	n/a	n/a	0	0	0
386922	WORD	wordpools/wasnorm_wordpool_576.txt	LTP310	ltpFR2	0	2	XEROX	1628	n/a	n/a	0	0	0
389391	WORD	wordpools/wasnorm_wordpool_576.txt	LTP310	ltpFR2	0	2	WOMAN	1620	n/a	n/a	0	0	0
391959	WORD	wordpools/wasnorm_wordpool_576.txt	LTP310	ltpFR2	0	2	DRIVER	499	n/a	n/a	0	0	0
394529	WORD	wordpools/wasnorm_wordpool_576.txt	LTP310	ltpFR2	0	2	TRUCK	1512	n/a	n/a	0	0	0
397047	WORD	wordpools/wasnorm_wordpool_576.txt	LTP310	ltpFR2	0	2	SCOTCH	1251	n/a	n/a	0	0	0
399667	WORD	wordpools/wasnorm_wordpool_576.txt	LTP310	ltpFR2	0	2	HUSBAND	728	n/a	n/a	0	0	0
402235	WORD	wordpools/wasnorm_wordpool_576.txt	LTP310	ltpFR2	0	2	BLADE	134	n/a	n/a	0	0	0
404954	WORD	wordpools/wasnorm_wordpool_576.txt	LTP310	ltpFR2	0	2	MONSTER	912	n/a	n/a	0	0	0
407591	WORD	wordpools/wasnorm_wordpool_576.txt	LTP310	ltpFR2	0	2	CRITIC	410	n/a	n/a	0	0	0
410275	WORD	wordpools/wasnorm_wordpool_576.txt	LTP310	ltpFR2	0	2	RIFLE	1192	n/a	n/a	0	0	0
412762	WORD	wordpools/wasnorm_wordpool_576.txt	LTP310	ltpFR2	0	2	BLOUSE	139	n/a	n/a	0	0	0
415297	WORD	wordpools/wasnorm_wordpool_576.txt	LTP310	ltpFR2	0	2	BUG	187	n/a	n/a	0	0	0
416915	START	n/a	LTP310	ltpFR2	0	n/a	n/a	n/a	3	n/a	n/a	n/a	n/a
417732	DISTRACTOR	n/a	LTP310	ltpFR2	0	2	n/a	n/a	n/a	n/a	0	0	0
417750	PROB	n/a	LTP310	ltpFR2	0	n/a	n/a	n/a	3	15	5	4	6
420017	PROB	n/a	LTP310	ltpFR2	0	n/a	n/a	n/a	3	23	6	8	9
422136	PROB	n/a	LTP310	ltpFR2	0	n/a	n/a	n/a	3	13	1	9	3
423671	PROB	n/a	LTP310	ltpFR2	0	n/a	n/a	n/a	3	17	8	6	8
426056	PROB	n/a	LTP310	ltpFR2	0	n/a	n/a	n/a	3	17	3	8	6
428442	PROB	n/a	LTP310	ltpFR2	0	n/a	n/a	n/a	3	11	7	6	8
430943	PROB	n/a	LTP310	ltpFR2	0	n/a	n/a	n/a	3	21	8	9	4
433463	PROB	n/a	LTP310	ltpFR2	0	n/a	n/a	n/a	3	15	5	1	9
435415	PROB	n/a	LTP310	ltpFR2	0	n/a	n/a	n/a	3	16	4	6	6
437049	PROB	n/a	LTP310	ltpFR2	0	n/a	n/a	n/a	3	15	5	4	6
440915	STOP	n/a	LTP310	ltpFR2	0	n/a	n/a	n/a	3	n/a	n/a	n/a	n/a
442789	REC_START	n/a	LTP310	ltpFR2	0	2	n/a	n/a	n/a	n/a	0	0	0
446151	REC_WORD	wordpools/wasnorm_wordpool_576.txt	LTP310	ltpFR2	0	2	TOMBSTONE	1478	n/a	n/a	0	0	0
448880	REC_WORD	wordpools/wasnorm_wordpool_576.txt	LTP310	ltpFR2	0	2	FEMALE	559	n/a	n/a	0	0	0
450117	REC_WORD	wordpools/wasnorm_wordpool_576.txt	LTP310	ltpFR2	0	2	WOMAN	1620	n/a	n/a	0	0	0
451117	REC_WORD	wordpools/wasnorm_wordpool_576.txt	LTP310	ltpFR2	0	2	HUSBAND	728	n/a	n/a	0	0	0
452710	REC_WORD	wordpools/wasnorm_wordpool_576.txt	LTP310	ltpFR2	0	2	BLADE	134	n/a	n/a	0	0	0
453853	REC_WORD	wordpools/wasnorm_wordpool_576.txt	LTP310	ltpFR2	0	2	RIFLE	1192	n/a	n/a	0	0	0
455295	REC_WORD	wordpools/wasnorm_wordpool_576.txt	LTP310	ltpFR2	0	2	NUN	962	n/a	n/a	0	0	0
457083	REC_WORD	wordpools/wasnorm_wordpool_576.txt	LTP310	ltpFR2	0	2	FIREMAN	569	n/a	n/a	0	0	0
458764	REC_WORD	wordpools/wasnorm_wordpool_576.txt	LTP310	ltpFR2	0	2	DRIVER	499	n/a	n/a	0	0	0
460294	REC_WORD	wordpools/wasnorm_wordpool_576.txt	LTP310	ltpFR2	0	2	TRUCK	1512	n/a	n/a	0	0	0
462897	REC_WORD	wordpools/wasnorm_wordpool_576.txt	LTP310	ltpFR2	0	2	BLOUSE	139	n/a	n/a	0	0	0
464383	REC_WORD	wordpools/wasnorm_wordpool_576.txt	LTP310	ltpFR2	0	2	BUG	187	n/a	n/a	0	0	0
465876	REC_WORD	wordpools/wasnorm_wordpool_576.txt	LTP310	ltpFR2	0	2	PICNIC	1060	n/a	n/a	0	0	0
468377	REC_WORD	wordpools/wasnorm_wordpool_576.txt	LTP310	ltpFR2	0	2	VALVE	1546	n/a	n/a	0	0	0
469802	REC_WORD	wordpools/wasnorm_wordpool_576.txt	LTP310	ltpFR2	0	2	GREASE	660	n/a	n/a	0	0	0
485010	REC_WORD	wordpools/wasnorm_wordpool_576.txt	LTP310	ltpFR2	0	2	BARREL	91	n/a	n/a	0	0	0
498410	REC_WORD	wordpools/wasnorm_wordpool_576.txt	LTP310	ltpFR2	0	2	XEROX	1628	n/a	n/a	0	0	0
515065	REC_WORD	wordpools/wasnorm_wordpool_576.txt	LTP310	ltpFR2	0	2	TRUCK	1512	n/a	n/a	0	0	0
533266	DISTRACTOR	n/a	LTP310	ltpFR2	0	3	n/a	n/a	n/a	n/a	0	0	0
533266	START	n/a	LTP310	ltpFR2	0	n/a	n/a	n/a	4	n/a	n/a	n/a	n/a
533283	PROB	n/a	LTP310	ltpFR2	0	n/a	n/a	n/a	4	12	4	5	3
536052	PROB	n/a	LTP310	ltpFR2	0	n/a	n/a	n/a	4	19	3	9	7
539155	PROB	n/a	LTP310	ltpFR2	0	n/a	n/a	n/a	4	18	6	5	7
540973	PROB	n/a	LTP310	ltpFR2	0	n/a	n/a	n/a	4	17	7	2	8
542975	PROB	n/a	LTP310	ltpFR2	0	n/a	n/a	n/a	4	11	3	7	1
544577	PROB	n/a	LTP310	ltpFR2	0	n/a	n/a	n/a	4	19	3	7	9
546345	PROB	n/a	LTP310	ltpFR2	0	n/a	n/a	n/a	4	10	3	2	4
548179	PROB	n/a	LTP310	ltpFR2	0	n/a	n/a	n/a	4	13	6	3	4
550932	PROB	n/a	LTP310	ltpFR2	0	n/a	n/a	n/a	4	15	4	6	5
557266	STOP	n/a	LTP310	ltpFR2	0	n/a	n/a	n/a	4	n/a	n/a	n/a	n/a
558406	WORD	wordpools/wasnorm_wordpool_576.txt	LTP310	ltpFR2	0	3	CHURCH	307	n/a	n/a	0	0	0
561241	WORD	wordpools/wasnorm_wordpool_576.txt	LTP310	ltpFR2	0	3	SPONGE	1355	n/a	n/a	0	0	0
563893	WORD	wordpools/wasnorm_wordpool_576.txt	LTP310	ltpFR2	0	3	FLASK	576	n/a	n/a	0	0	0
566413	WORD	wordpools/wasnorm_wordpool_576.txt	LTP310	ltpFR2	0	3	BRANDY	169	n/a	n/a	0	0	0
568964	WORD	wordpools/wasnorm_wordpool_576.txt	LTP310	ltpFR2	0	3	MOP	916	n/a	n/a	0	0	0
571634	WORD	wordpools/wasnorm_wordpool_576.txt	LTP310	ltpFR2	0	3	BATHTUB	100	n/a	n/a	0	0	0
574252	WORD	wordpools/wasnorm_wordpool_576.txt	LTP310	ltpFR2	0	3	DANDRUFF	439	n/a	n/a	0	0	0
577088	WORD	wordpools/wasnorm_wordpool_576.txt	LTP310	ltpFR2	0	3	COLLEGE	346	n/a	n/a	0	0	0
579691	WORD	wordpools/wasnorm_wordpool_576.txt	LTP310	ltpFR2	0	3	ROOSTER	1209	n/a	n/a	0	0	0
582159	WORD	wordpools/wasnorm_wordpool_576.txt	LTP310	ltpFR2	0	3	BASEMENT	94	n/a	n/a	0	0	0
584762	WORD	wordpools/wasnorm_wordpool_576.txt	LTP310	ltpFR2	0	3	KITCHEN	778	n/a	n/a	0	0	0
587415	WORD	wordpools/wasnorm_wordpool_576.txt	LTP310	ltpFR2	0	3	COOK	372	n/a	n/a	0	0	0
590083	WORD	wordpools/wasnorm_wordpool_576.txt	LTP310	ltpFR2	0	3	POSTAGE	1113	n/a	n/a	0	0	0
592686	WORD	wordpools/wasnorm_wordpool_576.txt	LTP310	ltpFR2	0	3	DUST	508	n/a	n/a	0	0	0
595405	WORD	wordpools/wasnorm_wordpool_576.txt	LTP310	ltpFR2	0	3	JELLO	754	n/a	n/a	0	0	0
598090	WORD	wordpools/wasnorm_wordpool_576.txt	LTP310	ltpFR2	0	3	SNACK	1331	n/a	n/a	0	0	0
600660	WORD	wordpools/wasnorm_wordpool_576.txt	LTP310	ltpFR2	0	3	SUBWAY	1400	n/a	n/a	0	0	0
603144	WORD	wordpools/wasnorm_wordpool_576.txt	LTP310	ltpFR2	0	3	KLEENEX	782	n/a	n/a	0	0	0
605880	WORD	wordpools/wasnorm_wordpool_576.txt	LTP310	ltpFR2	0	3	POCKET	1093	n/a	n/a	0	0	0
608600	WORD	wordpools/wasnorm_wordpool_576.txt	LTP310	ltpFR2	0	3	CAPTIVE	240	n/a	n/a	0	0	0
611285	WORD	wordpools/wasnorm_wordpool_576.txt	LTP310	ltpFR2	0	3	DUSTPAN	509	n/a	n/a	0	0	0
614054	WORD	wordpools/wasnorm_wordpool_576.txt	LTP310	ltpFR2	0	3	BOYFRIEND	162	n/a	n/a	0	0	0
616557	WORD	wordpools/wasnorm_wordpool_576.txt	LTP310	ltpFR2	0	3	BOX	159	n/a	n/a	0	0	0
619091	WORD	wordpools/wasnorm_wordpool_576.txt	LTP310	ltpFR2	0	3	TRACTOR	1493	n/a	n/a	0	0	0
620711	START	n/a	LTP310	ltpFR2	0	n/a	n/a	n/a	5	n/a	n/a	n/a	n/a
621704	DISTRACTOR	n/a	LTP310	ltpFR2	0	3	n/a	n/a	n/a	n/a	0	0	0
621728	PROB	n/a	LTP310	ltpFR2	0	n/a	n/a	n/a	5	18	7	9	2
624597	PROB	n/a	LTP310	ltpFR2	0	n/a	n/a	n/a	5	14	8	2	4
626415	PROB	n/a	LTP310	ltpFR2	0	n/a	n/a	n/a	5	18	9	1	8
628133	PROB	n/a	LTP310	ltpFR2	0	n/a	n/a	n/a	5	10	5	1	4
630319	PROB	n/a	LTP310	ltpFR2	0	n/a	n/a	n/a	5	12	7	7	8
632437	PROB	n/a	LTP310	ltpFR2	0	n/a	n/a	n/a	5	13	9	1	3
634523	PROB	n/a	LTP310	ltpFR2	0	n/a	n/a	n/a	5	15	2	5	8
636741	PROB	n/a	LTP310	ltpFR2	0	n/a	n/a	n/a	5	14	2	4	8
639176	PROB	n/a	LTP310	ltpFR2	0	n/a	n/a	n/a	5	23	8	7	8
644711	STOP	n/a	LTP310	ltpFR2	0	n/a	n/a	n/a	5	n/a	n/a	n/a	n/a
646550	REC_START	n/a	LTP310	ltpFR2	0	3	n/a	n/a	n/a	n/a	0	0	0
648529	REC_WORD	wordpools/wasnorm_wordpool_576.txt	LTP310	ltpFR2	0	3	CHURCH	307	n/a	n/a	0	0	0
649724	REC_WORD	wordpools/wasnorm_wordpool_576.txt	LTP310	ltpFR2	0	3	ROOSTER	1209	n/a	n/a	0	0	0
651138	REC_WORD	wordpools/wasnorm_wordpool_576.txt	LTP310	ltpFR2	0	3	BASEMENT	94	n/a	n/a	0	0	0
652817	REC_WORD	wordpools/wasnorm_wordpool_576.txt	LTP310	ltpFR2	0	3	KITCHEN	778	n/a	n/a	0	0	0
654089	REC_WORD	wordpools/wasnorm_wordpool_576.txt	LTP310	ltpFR2	0	3	COOK	372	n/a	n/a	0	0	0
655653	REC_WORD	wordpools/wasnorm_wordpool_576.txt	LTP310	ltpFR2	0	3	KLEENEX	782	n/a	n/a	0	0	0
657038	REC_WORD	wordpools/wasnorm_wordpool_576.txt	LTP310	ltpFR2	0	3	JELLO	754	n/a	n/a	0	0	0
659133	REC_WORD	wordpools/wasnorm_wordpool_576.txt	LTP310	ltpFR2	0	3	DUSTPAN	509	n/a	n/a	0	0	0
660805	REC_WORD	wordpools/wasnorm_wordpool_576.txt	LTP310	ltpFR2	0	3	MOP	916	n/a	n/a	0	0	0
662584	REC_WORD	wordpools/wasnorm_wordpool_576.txt	LTP310	ltpFR2	0	3	BROOM	178	n/a	n/a	0	0	0
665307	REC_WORD	wordpools/wasnorm_wordpool_576.txt	LTP310	ltpFR2	0	3	SPONGE	1355	n/a	n/a	0	0	0
669293	REC_WORD	wordpools/wasnorm_wordpool_576.txt	LTP310	ltpFR2	0	3	POSTAGE	1113	n/a	n/a	0	0	0
671549	REC_WORD	wordpools/wasnorm_wordpool_576.txt	LTP310	ltpFR2	0	3	SNACK	1331	n/a	n/a	0	0	0
673240	REC_WORD	wordpools/wasnorm_wordpool_576.txt	LTP310	ltpFR2	0	3	SUBWAY	1400	n/a	n/a	0	0	0
675576	REC_WORD	wordpools/wasnorm_wordpool_576.txt	LTP310	ltpFR2	0	3	CAPTIVE	240	n/a	n/a	0	0	0
677723	REC_WORD	wordpools/wasnorm_wordpool_576.txt	LTP310	ltpFR2	0	3	BATHTUB	100	n/a	n/a	0	0	0
679590	REC_WORD	wordpools/wasnorm_wordpool_576.txt	LTP310	ltpFR2	0	3	BOYFRIEND	162	n/a	n/a	0	0	0
686170	REC_WORD	wordpools/wasnorm_wordpool_576.txt	LTP310	ltpFR2	0	3	CHURCH	307	n/a	n/a	0	0	0
687223	REC_WORD_VV	wordpools/wasnorm_wordpool_576.txt	LTP310	ltpFR2	0	3	<>	-1	n/a	n/a	0	0	0
701931	REC_WORD	wordpools/wasnorm_wordpool_576.txt	LTP310	ltpFR2	0	3	JELLO	754	n/a	n/a	0	0	0
715406	REC_WORD	wordpools/wasnorm_wordpool_576.txt	LTP310	ltpFR2	0	3	TRUCK	1512	n/a	n/a	0	0	0
737028	WORD	wordpools/wasnorm_wordpool_576.txt	LTP310	ltpFR2	0	4	WAITER	1580	n/a	n/a	0	0	0
739481	WORD	wordpools/wasnorm_wordpool_576.txt	LTP310	ltpFR2	0	4	MILDEW	893	n/a	n/a	0	0	0
742299	WORD	wordpools/wasnorm_wordpool_576.txt	LTP310	ltpFR2	0	4	QUARTER	1148	n/a	n/a	0	0	0
744885	WORD	wordpools/wasnorm_wordpool_576.txt	LTP310	ltpFR2	0	4	STREAM	1392	n/a	n/a	0	0	0
747355	WORD	wordpools/wasnorm_wordpool_576.txt	LTP310	ltpFR2	0	4	KIDNEY	776	n/a	n/a	0	0	0
749839	WORD	wordpools/wasnorm_wordpool_576.txt	LTP310	ltpFR2	0	4	PISTOL	1075	n/a	n/a	0	0	0
752326	WORD	wordpools/wasnorm_wordpool_576.txt	LTP310	ltpFR2	0	4	PASTA	1021	n/a	n/a	0	0	0
754860	WORD	wordpools/wasnorm_wordpool_576.txt	LTP310	ltpFR2	0	4	YARN	1631	n/a	n/a	0	0	0
757330	WORD	wordpools/wasnorm_wordpool_576.txt	LTP310	ltpFR2	0	4	BODY	145	n/a	n/a	0	0	0
760098	WORD	wordpools/wasnorm_wordpool_576.txt	LTP310	ltpFR2	0	4	PERMIT	1051	n/a	n/a	0	0	0
762685	WORD	wordpools/wasnorm_wordpool_576.txt	LTP310	ltpFR2	0	4	BEAKER	104	n/a	n/a	0	0	0
765404	WORD	wordpools/wasnorm_wordpool_576.txt	LTP310	ltpFR2	0	4	LEADER	807	n/a	n/a	0	0	0
768105	WORD	wordpools/wasnorm_wordpool_576.txt	LTP310	ltpFR2	0	4	BELLY	119	n/a	n/a	0	0	0
770874	WORD	wordpools/wasnorm_wordpool_576.txt	LTP310	ltpFR2	0	4	PADDING	999	n/a	n/a	0	0	0
773511	WORD	wordpools/wasnorm_wordpool_576.txt	LTP310	ltpFR2	0	4	VELVET	1555	n/a	n/a	0	0	0
775962	WORD	wordpools/wasnorm_wordpool_576.txt	LTP310	ltpFR2	0	4	DIME	466	n/a	n/a	0	0	0
778715	WORD	wordpools/wasnorm_wordpool_576.txt	LTP310	ltpFR2	0	4	MARROW	872	n/a	n/a	0	0	0
781468	WORD	wordpools/wasnorm_wordpool_576.txt	LTP310	ltpFR2	0	4	SHRUB	1299	n/a	n/a	0	0	0
783952	WORD	wordpools/wasnorm_wordpool_576.txt	LTP310	ltpFR2	0	4	LEOPARD	812	n/a	n/a	0	0	0
786722	WORD	wordpools/wasnorm_wordpool_576.txt	LTP310	ltpFR2	0	4	CREATURE	403	n/a	n/a	0	0	0
789207	WORD	wordpools/wasnorm_wordpool_576.txt	LTP310	ltpFR2	0	4	PANTHER	1009	n/a	n/a	0	0	0
791694	WORD	wordpools/wasnorm_wordpool_576.txt	LTP310	ltpFR2	0	4	LABEL	790	n/a	n/a	0	0	0
794396	WORD	wordpools/wasnorm_wordpool_576.txt	LTP310	ltpFR2	0	4	STICKER	1382	n/a	n/a	0	0	0
796997	WORD	wordpools/wasnorm_wordpool_576.txt	LTP310	ltpFR2	0	4	DOLPHIN	483	n/a	n/a	0	0	0
798617	START	n/a	LTP310	ltpFR2	0	n/a	n/a	n/a	6	n/a	n/a	n/a	n/a
799621	DISTRACTOR	n/a	LTP310	ltpFR2	0	4	n/a	n/a	n/a	n/a	0	0	0
799634	PROB	n/a	LTP310	ltpFR2	0	n/a	n/a	n/a	6	23	7	9	7
803504	PROB	n/a	LTP310	ltpFR2	0	n/a	n/a	n/a	6	12	7	2	3
805472	PROB	n/a	LTP310	ltpFR2	0	n/a	n/a	n/a	6	11	9	1	1
807089	PROB	n/a	LTP310	ltpFR2	0	n/a	n/a	n/a	6	20	6	5	9
809825	PROB	n/a	LTP310	ltpFR2	0	n/a	n/a	n/a	6	23	7	8	8
812144	PROB	n/a	LTP310	ltpFR2	0	n/a	n/a	n/a	6	11	1	9	1
814029	PROB	n/a	LTP310	ltpFR2	0	n/a	n/a	n/a	6	15	2	8	5
815581	PROB	n/a	LTP310	ltpFR2	0	n/a	n/a	n/a	6	19	7	6	6
817616	PROB	n/a	LTP310	ltpFR2	0	n/a	n/a	n/a	6	15	5	5	5
819368	PROB	n/a	LTP310	ltpFR2	0	n/a	n/a	n/a	6	15	5	7	1
821761	STOP	n/a	LTP310	ltpFR2	0	n/a	n/a	n/a	6	n/a	n/a	n/a	n/a
824523	REC_START	n/a	LTP310	ltpFR2	0	4	n/a	n/a	n/a	n/a	0	0	0
826497	REC_WORD	wordpools/wasnorm_wordpool_576.txt	LTP310	ltpFR2	0	4	LEOPARD	812	n/a	n/a	0	0	0
828042	REC_WORD	wordpools/wasnorm_wordpool_576.txt	LTP310	ltpFR2	0	4	DOLPHIN	483	n/a	n/a	0	0	0
829495	REC_WORD	wordpools/wasnorm_wordpool_576.txt	LTP310	ltpFR2	0	4	CREATURE	403	n/a	n/a	0	0	0
831190	REC_WORD	wordpools/wasnorm_wordpool_576.txt	LTP310	ltpFR2	0	4	WAITER	1580	n/a	n/a	0	0	0
832965	REC_WORD	wordpools/wasnorm_wordpool_576.txt	LTP310	ltpFR2	0	4	MILDEW	893	n/a	n/a	0	0	0
834427	REC_WORD	wordpools/wasnorm_wordpool_576.txt	LTP310	ltpFR2	0	4	QUARTER	1148	n/a	n/a	0	0	0
836069	REC_WORD	wordpools/wasnorm_wordpool_576.txt	LTP310	ltpFR2	0	4	DIME	466	n/a	n/a	0	0	0
837882	REC_WORD	wordpools/wasnorm_wordpool_576.txt	LTP310	ltpFR2	0	4	BEAKER	104	n/a	n/a	0	0	0
839322	REC_WORD	wordpools/wasnorm_wordpool_576.txt	LTP310	ltpFR2	0	4	LEADER	807	n/a	n/a	0	0	0
841074	REC_WORD	wordpools/wasnorm_wordpool_576.txt	LTP310	ltpFR2	0	4	LABEL	790	n/a	n/a	0	0	0
844483	REC_WORD	wordpools/wasnorm_wordpool_576.txt	LTP310	ltpFR2	0	4	BELLY	119	n/a	n/a	0	0	0
846104	REC_WORD	wordpools/wasnorm_wordpool_576.txt	LTP310	ltpFR2	0	4	VELVET	1555	n/a	n/a	0	0	0
848001	REC_WORD	wordpools/wasnorm_wordpool_576.txt	LTP310	ltpFR2	0	4	PADDING	999	n/a	n/a	0	0	0
854968	REC_WORD	wordpools/wasnorm_wordpool_576.txt	LTP310	ltpFR2	0	4	SHRUB	1299	n/a	n/a	0	0	0
860314	REC_WORD	wordpools/wasnorm_wordpool_576.txt	LTP310	ltpFR2	0	4	PANTHER	1009	n/a	n/a	0	0	0
915067	DISTRACTOR	n/a	LTP310	ltpFR2	0	5	n/a	n/a	n/a	n/a	0	0	0
915067	START	n/a	LTP310	ltpFR2	0	n/a	n/a	n/a	7	n/a	n/a	n/a	n/a
915084	PROB	n/a	LTP310	ltpFR2	0	n/a	n/a	n/a	7	11	1	3	7
917236	PROB	n/a	LTP310	ltpFR2	0	n/a	n/a	n/a	7	9	3	3	3
918705	PROB	n/a	LTP310	ltpFR2	0	n/a	n/a	n/a	7	20	7	5	8
921239	PROB	n/a	LTP310	ltpFR2	0	n/a	n/a	n/a	7	21	8	8	5
923509	PROB	n/a	LTP310	ltpFR2	0	n/a	n/a	n/a	7	18	3	9	6
925827	PROB	n/a	LTP310	ltpFR2	0	n/a	n/a	n/a	7	14	5	8	1
927796	PROB	n/a	LTP310	ltpFR2	0	n/a	n/a	n/a	7	8	1	2	5
929930	PROB	n/a	LTP310	ltpFR2	0	n/a	n/a	n/a	7	6	3	2	1
931483	PROB	n/a	LTP310	ltpFR2	0	n/a	n/a	n/a	7	15	5	1	9
933200	PROB	n/a	LTP310	ltpFR2	0	n/a	n/a	n/a	7	19	8	4	7
935703	PROB	n/a	LTP310	ltpFR2	0	n/a	n/a	n/a	7	17	8	5	4
937845	STOP	n/a	LTP310	ltpFR2	0	n/a	n/a	n/a	7	n/a	n/a	n/a	n/a
940139	WORD	wordpools/wasnorm_wordpool_576.txt	LTP310	ltpFR2	0	5	COUSIN	392	n/a	n/a	0	0	0
942792	WORD	wordpools/wasnorm_wordpool_576.txt	LTP310	ltpFR2	0	5	MUFFIN	929	n/a	n/a	0	0	0
945561	WORD	wordpools/wasnorm_wordpool_576.txt	LTP310	ltpFR2	0	5	APPLE	33	n/a	n/a	0	0	0
947996	WORD	wordpools/wasnorm_wordpool_576.txt	LTP310	ltpFR2	0	5	PLUTO	1092	n/a	n/a	0	0	0
950466	WORD	wordpools/wasnorm_wordpool_576.txt	LTP310	ltpFR2	0	5	DRESSER	496	n/a	n/a	0	0	0
953150	WORD	wordpools/wasnorm_wordpool_576.txt	LTP310	ltpFR2	0	5	GLOVE	642	n/a	n/a	0	0	0
955770	WORD	wordpools/wasnorm_wordpool_576.txt	LTP310	ltpFR2	0	5	POET	1095	n/a	n/a	0	0	0
958523	WORD	wordpools/wasnorm_wordpool_576.txt	LTP310	ltpFR2	0	5	AUTHOR	61	n/a	n/a	0	0	0
961325	WORD	wordpools/wasnorm_wordpool_576.txt	LTP310	ltpFR2	0	5	FOREHEAD	592	n/a	n/a	0	0	0
963860	WORD	wordpools/wasnorm_wordpool_576.txt	LTP310	ltpFR2	0	5	SUPPER	1411	n/a	n/a	0	0	0
966596	WORD	wordpools/wasnorm_wordpool_576.txt	LTP310	ltpFR2	0	5	EYELASH	546	n/a	n/a	0	0	0
969316	WORD	wordpools/wasnorm_wordpool_576.txt	LTP310	ltpFR2	0	5	PUPIL	1143	n/a	n/a	0	0	0
971900	WORD	wordpools/wasnorm_wordpool_576.txt	LTP310	ltpFR2	0	5	ACTRESS	6	n/a	n/a	0	0	0
974687	WORD	wordpools/wasnorm_wordpool_576.txt	LTP310	ltpFR2	0	5	CONVICT	371	n/a	n/a	0	0	0
977356	WORD	wordpools/wasnorm_wordpool_576.txt	LTP310	ltpFR2	0	5	INMATE	738	n/a	n/a	0	0	0
979924	WORD	wordpools/wasnorm_wordpool_576.txt	LTP310	ltpFR2	0	5	PIGEON	1065	n/a	n/a	0	0	0
982410	WORD	wordpools/wasnorm_wordpool_576.txt	LTP310	ltpFR2	0	5	WAGON	1578	n/a	n/a	0	0	0
985128	WORD	wordpools/wasnorm_wordpool_576.txt	LTP310	ltpFR2	0	5	WHISKERS	1605	n/a	n/a	0	0	0
987682	WORD	wordpools/wasnorm_wordpool_576.txt	LTP310	ltpFR2	0	5	PARTNER	1017	n/a	n/a	0	0	0
990283	WORD	wordpools/wasnorm_wordpool_576.txt	LTP310	ltpFR2	0	5	SWIMMER	1420	n/a	n/a	0	0	0
993019	WORD	wordpools/wasnorm_wordpool_576.txt	LTP310	ltpFR2	0	5	MASK	876	n/a	n/a	0	0	0
995689	WORD	wordpools/wasnorm_wordpool_576.txt	LTP310	ltpFR2	0	5	FLAG	573	n/a	n/a	0	0	0
998240	WORD	wordpools/wasnorm_wordpool_576.txt	LTP310	ltpFR2	0	5	MOTOR	922	n/a	n/a	0	0	0
1000992	WORD	wordpools/wasnorm_wordpool_576.txt	LTP310	ltpFR2	0	5	VENUS	1557	n/a	n/a	0	0	0
1002612	START	n/a	LTP310	ltpFR2	0	n/a	n/a	n/a	8	n/a	n/a	n/a	n/a
1003423	DISTRACTOR	n/a	LTP310	ltpFR2	0	5	n/a	n/a	n/a	n/a	0	0	0
1003445	PROB	n/a	LTP310	ltpFR2	0	n/a	n/a	n/a	8	23	5	9	9
1012119	PROB	n/a	LTP310	ltpFR2	0	n/a	n/a	n/a	8	16	9	2	5
1015171	PROB	n/a	LTP310	ltpFR2	0	n/a	n/a	n/a	8	13	6	5	2
1018291	PROB	n/a	LTP310	ltpFR2	0	n/a	n/a	n/a	8	12	2	1	9
1020292	PROB	n/a	LTP310	ltpFR2	0	n/a	n/a	n/a	8	17	6	9	2
1022762	PROB	n/a	LTP310	ltpFR2	0	n/a	n/a	n/a	8	19	1	9	9
1026612	STOP	n/a	LTP310	ltpFR2	0	n/a	n/a	n/a	8	n/a	n/a	n/a	n/a
1028501	REC_START	n/a	LTP310	ltpFR2	0	5	n/a	n/a	n/a	n/a	0	0	0
1029664	REC_WORD	wordpools/wasnorm_wordpool_576.txt	LTP310	ltpFR2	0	5	COUSIN	392	n/a	n/a	0	0	0
1030684	REC_WORD	wordpools/wasnorm_wordpool_576.txt	LTP310	ltpFR2	0	5	MUFFIN	929	n/a	n/a	0	0	0
1031977	REC_WORD	wordpools/wasnorm_wordpool_576.txt	LTP310	ltpFR2	0	5	APPLE	33	n/a	n/a	0	0	0
1033212	REC_WORD	wordpools/wasnorm_wordpool_576.txt	LTP310	ltpFR2	0	5	FOREHEAD	592	n/a	n/a	0	0	0
1034645	REC_WORD	wordpools/wasnorm_wordpool_576.txt	LTP310	ltpFR2	0	5	EYELASH	546	n/a	n/a	0	0	0
1037253	REC_WORD	wordpools/wasnorm_wordpool_576.txt	LTP310	ltpFR2	0	5	ACTRESS	6	n/a	n/a	0	0	0
1039628	REC_WORD	wordpools/wasnorm_wordpool_576.txt	LTP310	ltpFR2	0	5	CONVICT	371	n/a	n/a	0	0	0
1041001	REC_WORD	wordpools/wasnorm_wordpool_576.txt	LTP310	ltpFR2	0	5	INMATE	738	n/a	n/a	0	0	0
1042458	REC_WORD	wordpools/wasnorm_wordpool_576.txt	LTP310	ltpFR2	0	5	PLUTO	1092	n/a	n/a	0	0	0
1043908	REC_WORD	wordpools/wasnorm_wordpool_576.txt	LTP310	ltpFR2	0	5	VENUS	1557	n/a	n/a	0	0	0
1046273	REC_WORD	wordpools/wasnorm_wordpool_576.txt	LTP310	ltpFR2	0	5	DRESSER	496	n/a	n/a	0	0	0
1050704	REC_WORD	wordpools/wasnorm_wordpool_576.txt	LTP310	ltpFR2	0	5	WAGON	1578	n/a	n/a	0	0	0
1051852	REC_WORD	wordpools/wasnorm_wordpool_576.txt	LTP310	ltpFR2	0	5	PIGEON	1065	n/a	n/a	0	0	0
1057419	REC_WORD	wordpools/wasnorm_wordpool_576.txt	LTP310	ltpFR2	0	5	AUTHOR	61	n/a	n/a	0	0	0
1058685	REC_WORD	wordpools/wasnorm_wordpool_576.txt	LTP310	ltpFR2	0	5	POET	1095	n/a	n/a	0	0	0
1073429	REC_WORD	wordpools/wasnorm_wordpool_576.txt	LTP310	ltpFR2	0	5	MOTOR	922	n/a	n/a	0	0	0
1075714	REC_WORD	wordpools/wasnorm_wordpool_576.txt	LTP310	ltpFR2	0	5	MASK	876	n/a	n/a	0	0	0
1077231	REC_WORD	wordpools/wasnorm_wordpool_576.txt	LTP310	ltpFR2	0	5	FLAG	573	n/a	n/a	0	0	0
1119162	WORD	wordpools/wasnorm_wordpool_576.txt	LTP310	ltpFR2	0	6	GRILL	661	n/a	n/a	0	0	0
1121616	WORD	wordpools/wasnorm_wordpool_576.txt	LTP310	ltpFR2	0	6	GARDEN	623	n/a	n/a	0	0	0
1124434	WORD	wordpools/wasnorm_wordpool_576.txt	LTP310	ltpFR2	0	6	LAKE	796	n/a	n/a	0	0	0
1127053	WORD	wordpools/wasnorm_wordpool_576.txt	LTP310	ltpFR2	0	6	SWAMP	1416	n/a	n/a	0	0	0
1129656	WORD	wordpools/wasnorm_wordpool_576.txt	LTP310	ltpFR2	0	6	GLASS	639	n/a	n/a	0	0	0
1132224	WORD	wordpools/wasnorm_wordpool_576.txt	LTP310	ltpFR2	0	6	FOREST	593	n/a	n/a	0	0	0
1134744	WORD	wordpools/wasnorm_wordpool_576.txt	LTP310	ltpFR2	0	6	PENGUIN	1044	n/a	n/a	0	0	0
1137261	WORD	wordpools/wasnorm_wordpool_576.txt	LTP310	ltpFR2	0	6	QUAIL	1147	n/a	n/a	0	0	0
1140080	WORD	wordpools/wasnorm_wordpool_576.txt	LTP310	ltpFR2	0	6	BRANCH	168	n/a	n/a	0	0	0
1142584	WORD	wordpools/wasnorm_wordpool_576.txt	LTP310	ltpFR2	0	6	COUCH	386	n/a	n/a	0	0	0
1145218	WORD	wordpools/wasnorm_wordpool_576.txt	LTP310	ltpFR2	0	6	DRINK	498	n/a	n/a	0	0	0
1147987	WORD	wordpools/wasnorm_wordpool_576.txt	LTP310	ltpFR2	0	6	RAFT	1159	n/a	n/a	0	0	0
1150591	WORD	wordpools/wasnorm_wordpool_576.txt	LTP310	ltpFR2	0	6	MAPLE	866	n/a	n/a	0	0	0
1153242	WORD	wordpools/wasnorm_wordpool_576.txt	LTP310	ltpFR2	0	6	PROTON	1132	n/a	n/a	0	0	0
1155944	WORD	wordpools/wasnorm_wordpool_576.txt	LTP310	ltpFR2	0	6	CREVICE	405	n/a	n/a	0	0	0
1158364	WORD	wordpools/wasnorm_wordpool_576.txt	LTP310	ltpFR2	0	6	NEUTRON	947	n/a	n/a	0	0	0
1161082	WORD	wordpools/wasnorm_wordpool_576.txt	LTP310	ltpFR2	0	6	WINDOW	1611	n/a	n/a	0	0	0
1163735	WORD	wordpools/wasnorm_wordpool_576.txt	LTP310	ltpFR2	0	6	LODGE	839	n/a	n/a	0	0	0
1166405	WORD	wordpools/wasnorm_wordpool_576.txt	LTP310	ltpFR2	0	6	PICTURE	1061	n/a	n/a	0	0	0
1169039	WORD	wordpools/wasnorm_wordpool_576.txt	LTP310	ltpFR2	0	6	APRON	35	n/a	n/a	0	0	0
1171676	WORD	wordpools/wasnorm_wordpool_576.txt	LTP310	ltpFR2	0	6	KEEPER	769	n/a	n/a	0	0	0
1174462	WORD	wordpools/wasnorm_wordpool_576.txt	LTP310	ltpFR2	0	6	BURGLAR	200	n/a	n/a	0	0	0
1176996	WORD	wordpools/wasnorm_wordpool_576.txt	LTP310	ltpFR2	0	6	LIPSTICK	829	n/a	n/a	0	0	0
1179483	WORD	wordpools/wasnorm_wordpool_576.txt	LTP310	ltpFR2	0	6	REBEL	1172	n/a	n/a	0	0	0
1181100	START	n/a	LTP310	ltpFR2	0	n/a	n/a	n/a	9	n/a	n/a	n/a	n/a
1182283	DISTRACTOR	n/a	LTP310	ltpFR2	0	6	n/a	n/a	n/a	n/a	0	0	0
1182301	PROB	n/a	LTP310	ltpFR2	0	n/a	n/a	n/a	9	23	8	7	8
1186405	PROB	n/a	LTP310	ltpFR2	0	n/a	n/a	n/a	9	15	7	5	3
1188540	PROB	n/a	LTP310	ltpFR2	0	n/a	n/a	n/a	9	15	5	5	5
1190124	PROB	n/a	LTP310	ltpFR2	0	n/a	n/a	n/a	9	15	8	2	5
1191476	PROB	n/a	LTP310	ltpFR2	0	n/a	n/a	n/a	9	10	2	5	3
1193662	PROB	n/a	LTP310	ltpFR2	0	n/a	n/a	n/a	9	15	9	3	3
1195397	PROB	n/a	LTP310	ltpFR2	0	n/a	n/a	n/a	9	23	9	5	9
1197432	PROB	n/a	LTP310	ltpFR2	0	n/a	n/a	n/a	9	17	2	9	6
1200233	PROB	n/a	LTP310	ltpFR2	0	n/a	n/a	n/a	9	24	9	9	6
1205088	STOP	n/a	LTP310	ltpFR2	0	n/a	n/a	n/a	9	n/a	n/a	n/a	n/a
1207040	REC_START	n/a	LTP310	ltpFR2	0	6	n/a	n/a	n/a	n/a	0	0	0
1208859	REC_WORD	wordpools/wasnorm_wordpool_576.txt	LTP310	ltpFR2	0	6	BURGLAR	200	n/a	n/a	0	0	0
1210128	REC_WORD	wordpools/wasnorm_wordpool_576.txt	LTP310	ltpFR2	0	6	LODGE	839	n/a	n/a	0	0	0
1211490	REC_WORD	wordpools/wasnorm_wordpool_576.txt	LTP310	ltpFR2	0	6	KEEPER	769	n/a	n/a	0	0	0
1212907	REC_WORD	wordpools/wasnorm_wordpool_576.txt	LTP310	ltpFR2	0	6	GRILL	661	n/a	n/a	0	0	0
1214070	REC_WORD	wordpools/wasnorm_wordpool_576.txt	LTP310	ltpFR2	0	6	GARDEN	623	n/a	n/a	0	0	0
1215437	REC_WORD	wordpools/wasnorm_wordpool_576.txt	LTP310	ltpFR2	0	6	LAKE	796	n/a	n/a	0	0	0
1216495	REC_WORD	wordpools/wasnorm_wordpool_576.txt	LTP310	ltpFR2	0	6	SWAMP	1416	n/a	n/a	0	0	0
1218289	REC_WORD	wordpools/wasnorm_wordpool_576.txt	LTP310	ltpFR2	0	6	GLASS	639	n/a	n/a	0	0	0
1219502	REC_WORD	wordpools/wasnorm_wordpool_576.txt	LTP310	ltpFR2	0	6	FOREST	593	n/a	n/a	0	0	0
1220931	REC_WORD	wordpools/wasnorm_wordpool_576.txt	LTP310	ltpFR2	0	6	PENGUIN	1044	n/a	n/a	0	0	0
1222512	REC_WORD	wordpools/wasnorm_wordpool_576.txt	LTP310	ltpFR2	0	6	QUAIL	1147	n/a	n/a	0	0	0
1227123	REC_WORD	wordpools/wasnorm_wordpool_576.txt	LTP310	ltpFR2	0	6	PICTURE	1061	n/a	n/a	0	0	0
1228708	REC_WORD_VV	wordpools/wasnorm_wordpool_576.txt	LTP310	ltpFR2	0	6	<>	-1	n/a	n/a	0	0	0
1229301	REC_WORD	wordpools/wasnorm_wordpool_576.txt	LTP310	ltpFR2	0	6	APRON	35	n/a	n/a	0	0	0
1231236	REC_WORD	wordpools/wasnorm_wordpool_576.txt	LTP310	ltpFR2	0	6	CREVICE	405	n/a	n/a	0	0	0
1232726	REC_WORD	wordpools/wasnorm_wordpool_576.txt	LTP310	ltpFR2	0	6	NEUTRON	947	n/a	n/a	0	0	0
1234196	REC_WORD	wordpools/wasnorm_wordpool_576.txt	LTP310	ltpFR2	0	6	PROTON	1132	n/a	n/a	0	0	0
1297686	WORD	wordpools/wasnorm_wordpool_576.txt	LTP310	ltpFR2	0	7	COURSE	390	n/a	n/a	0	0	0
1300154	WORD	wordpools/wasnorm_wordpool_576.txt	LTP310	ltpFR2	0	7	CABIN	211	n/a	n/a	0	0	0
1302707	WORD	wordpools/wasnorm_wordpool_576.txt	LTP310	ltpFR2	0	7	SADDLE	1221	n/a	n/a	0	0	0
1305326	WORD	wordpools/wasnorm_wordpool_576.txt	LTP310	ltpFR2	0	7	LAVA	804	n/a	n/a	0	0	0
1307861	WORD	wordpools/wasnorm_wordpool_576.txt	LTP310	ltpFR2	0	7	TURKEY	1520	n/a	n/a	0	0	0
1310547	WORD	wordpools/wasnorm_wordpool_576.txt	LTP310	ltpFR2	0	7	SWITCH	1422	n/a	n/a	0	0	0
1313015	WORD	wordpools/wasnorm_wordpool_576.txt	LTP310	ltpFR2	0	7	BACKBONE	66	n/a	n/a	0	0	0
1315635	WORD	wordpools/wasnorm_wordpool_576.txt	LTP310	ltpFR2	0	7	WIFE	1609	n/a	n/a	0	0	0
1318388	WORD	wordpools/wasnorm_wordpool_576.txt	LTP310	ltpFR2	0	7	CURTAIN	427	n/a	n/a	0	0	0
1321006	WORD	wordpools/wasnorm_wordpool_576.txt	LTP310	ltpFR2	0	7	ICING	732	n/a	n/a	0	0	0
1323559	WORD	wordpools/wasnorm_wordpool_576.txt	LTP310	ltpFR2	0	7	STOVE	1388	n/a	n/a	0	0	0
1326361	WORD	wordpools/wasnorm_wordpool_576.txt	LTP310	ltpFR2	0	7	PALACE	1006	n/a	n/a	0	0	0
1328862	WORD	wordpools/wasnorm_wordpool_576.txt	LTP310	ltpFR2	0	7	PRINCESS	1125	n/a	n/a	0	0	0
1331466	WORD	wordpools/wasnorm_wordpool_576.txt	LTP310	ltpFR2	0	7	SUNSET	1408	n/a	n/a	0	0	0
1333917	WORD	wordpools/wasnorm_wordpool_576.txt	LTP310	ltpFR2	0	7	ANTLER	29	n/a	n/a	0	0	0
1336637	WORD	wordpools/wasnorm_wordpool_576.txt	LTP310	ltpFR2	0	7	GAZELLE	628	n/a	n/a	0	0	0
1339205	WORD	wordpools/wasnorm_wordpool_576.txt	LTP310	ltpFR2	0	7	ORANGE	980	n/a	n/a	0	0	0
1341708	WORD	wordpools/wasnorm_wordpool_576.txt	LTP310	ltpFR2	0	7	FINGER	567	n/a	n/a	0	0	0
1344444	WORD	wordpools/wasnorm_wordpool_576.txt	LTP310	ltpFR2	0	7	GLOBE	641	n/a	n/a	0	0	0
1346928	WORD	wordpools/wasnorm_wordpool_576.txt	LTP310	ltpFR2	0	7	STAKE	1368	n/a	n/a	0	0	0
1349765	WORD	wordpools/wasnorm_wordpool_576.txt	LTP310	ltpFR2	0	7	GALLON	618	n/a	n/a	0	0	0
1352517	WORD	wordpools/wasnorm_wordpool_576.txt	LTP310	ltpFR2	0	7	GYMNAST	675	n/a	n/a	0	0	0
1355085	WORD	wordpools/wasnorm_wordpool_576.txt	LTP310	ltpFR2	0	7	ATLAS	53	n/a	n/a	0	0	0
1357789	WORD	wordpools/wasnorm_wordpool_576.txt	LTP310	ltpFR2	0	7	GARBAGE	622	n/a	n/a	0	0	0
1359407	START	n/a	LTP310	ltpFR2	0	n/a	n/a	n/a	10	n/a	n/a	n/a	n/a
1360421	DISTRACTOR	n/a	LTP310	ltpFR2	0	7	n/a	n/a	n/a	n/a	0	0	0
1360441	PROB	n/a	LTP310	ltpFR2	0	n/a	n/a	n/a	10	23	9	5	9
1362842	PROB	n/a	LTP310	ltpFR2	0	n/a	n/a	n/a	10	21	8	3	9
1367296	PROB	n/a	LTP310	ltpFR2	0	n/a	n/a	n/a	10	13	2	6	5
1369164	PROB	n/a	LTP310	ltpFR2	0	n/a	n/a	n/a	10	17	4	4	9
1371717	PROB	n/a	LTP310	ltpFR2	0	n/a	n/a	n/a	10	21	7	9	5
1373935	PROB	n/a	LTP310	ltpFR2	0	n/a	n/a	n/a	10	15	6	2	7
1375820	PROB	n/a	LTP310	ltpFR2	0	n/a	n/a	n/a	10	13	6	4	3
1377271	PROB	n/a	LTP310	ltpFR2	0	n/a	n/a	n/a	10	13	6	4	3
1378540	PROB	n/a	LTP310	ltpFR2	0	n/a	n/a	n/a	10	14	2	3	9
1380709	PROB	n/a	LTP310	ltpFR2	0	n/a	n/a	n/a	10	19	5	8	6
1382785	STOP	n/a	LTP310	ltpFR2	0	n/a	n/a	n/a	10	n/a	n/a	n/a	n/a
1385279	REC_START	n/a	LTP310	ltpFR2	0	7	n/a	n/a	n/a	n/a	0	0	0
1390301	REC_WORD	wordpools/wasnorm_wordpool_576.txt	LTP310	ltpFR2	0	7	WIFE	1609	n/a	n/a	0	0	0
1391565	REC_WORD	wordpools/wasnorm_wordpool_576.txt	LTP310	ltpFR2	0	7	CURTAIN	427	n/a	n/a	0	0	0
1393150	REC_WORD	wordpools/wasnorm_wordpool_576.txt	LTP310	ltpFR2	0	7	ICING	732	n/a	n/a	0	0	0
1394609	REC_WORD	wordpools/wasnorm_wordpool_576.txt	LTP310	ltpFR2	0	7	STOVE	1388	n/a	n/a	0	0	0
1396398	REC_WORD	wordpools/wasnorm_wordpool_576.txt	LTP310	ltpFR2	0	7	LAVA	804	n/a	n/a	0	0	0
1398266	REC_WORD	wordpools/wasnorm_wordpool_576.txt	LTP310	ltpFR2	0	7	TURKEY	1520	n/a	n/a	0	0	0
1399774	REC_WORD	wordpools/wasnorm_wordpool_576.txt	LTP310	ltpFR2	0	7	COURSE	390	n/a	n/a	0	0	0
1401588	REC_WORD	wordpools/wasnorm_wordpool_576.txt	LTP310	ltpFR2	0	7	SADDLE	1221	n/a	n/a	0	0	0
1403904	REC_WORD	wordpools/wasnorm_wordpool_576.txt	LTP310	ltpFR2	0	7	BACKBONE	66	n/a	n/a	0	0	0
1406941	REC_WORD	wordpools/wasnorm_wordpool_576.txt	LTP310	ltpFR2	0	7	CASTLE	256	n/a	n/a	0	0	0
1408087	REC_WORD	wordpools/wasnorm_wordpool_576.txt	LTP310	ltpFR2	0	7	PRINCESS	1125	n/a	n/a	0	0	0
1409683	REC_WORD	wordpools/wasnorm_wordpool_576.txt	LTP310	ltpFR2	0	7	SUNSET	1408	n/a	n/a	0	0	0
1412037	REC_WORD	wordpools/wasnorm_wordpool_576.txt	LTP310	ltpFR2	0	7	GLOBE	641	n/a	n/a	0	0	0
1413180	REC_WORD	wordpools/wasnorm_wordpool_576.txt	LTP310	ltpFR2	0	7	STAKE	1368	n/a	n/a	0	0	0
1415244	REC_WORD	wordpools/wasnorm_wordpool_576.txt	LTP310	ltpFR2	0	7	GARBAGE	622	n/a	n/a	0	0	0
1451961	REC_WORD	wordpools/wasnorm_wordpool_576.txt	LTP310	ltpFR2	0	7	FINGER	567	n/a	n/a	0	0	0
1475725	DISTRACTOR	n/a	LTP310	ltpFR2	0	8	n/a	n/a	n/a	n/a	0	0	0
1475725	START	n/a	LTP310	ltpFR2	0	n/a	n/a	n/a	11	n/a	n/a	n/a	n/a
1475742	PROB	n/a	LTP310	ltpFR2	0	n/a	n/a	n/a	11	10	4	5	1
1478511	PROB	n/a	LTP310	ltpFR2	0	n/a	n/a	n/a	11	18	1	9	8
1480462	PROB	n/a	LTP310	ltpFR2	0	n/a	n/a	n/a	11	14	3	9	2
1482614	PROB	n/a	LTP310	ltpFR2	0	n/a	n/a	n/a	11	16	8	1	7
1484549	PROB	n/a	LTP310	ltpFR2	0	n/a	n/a	n/a	11	10	7	2	1
1486701	PROB	n/a	LTP310	ltpFR2	0	n/a	n/a	n/a	11	16	8	2	6
1488386	PROB	n/a	LTP310	ltpFR2	0	n/a	n/a	n/a	11	19	9	9	1
1489953	PROB	n/a	LTP310	ltpFR2	0	n/a	n/a	n/a	11	11	1	3	7
1491589	PROB	n/a	LTP310	ltpFR2	0	n/a	n/a	n/a	11	18	6	5	7
1493374	PROB	n/a	LTP310	ltpFR2	0	n/a	n/a	n/a	11	19	9	4	6
1495526	PROB	n/a	LTP310	ltpFR2	0	n/a	n/a	n/a	11	12	2	7	3
1497511	PROB	n/a	LTP310	ltpFR2	0	n/a	n/a	n/a	11	19	3	8	8
1499678	STOP	n/a	LTP310	ltpFR2	0	n/a	n/a	n/a	11	n/a	n/a	n/a	n/a
1500814	WORD	wordpools/wasnorm_wordpool_576.txt	LTP310	ltpFR2	0	8	COSTUME	383	n/a	n/a	0	0	0
1503298	WORD	wordpools/wasnorm_wordpool_576.txt	LTP310	ltpFR2	0	8	GHETTO	633	n/a	n/a	0	0	0
1506001	WORD	wordpools/wasnorm_wordpool_576.txt	LTP310	ltpFR2	0	8	CARRIAGE	248	n/a	n/a	0	0	0
1508537	WORD	wordpools/wasnorm_wordpool_576.txt	LTP310	ltpFR2	0	8	COCOON	339	n/a	n/a	0	0	0
1511288	WORD	wordpools/wasnorm_wordpool_576.txt	LTP310	ltpFR2	0	8	ORCHID	982	n/a	n/a	0	0	0
1513775	WORD	wordpools/wasnorm_wordpool_576.txt	LTP310	ltpFR2	0	8	STOMACH	1384	n/a	n/a	0	0	0
1516461	WORD	wordpools/wasnorm_wordpool_576.txt	LTP310	ltpFR2	0	8	COIN	343	n/a	n/a	0	0	0
1519095	WORD	wordpools/wasnorm_wordpool_576.txt	LTP310	ltpFR2	0	8	CASHIER	254	n/a	n/a	0	0	0
1521682	WORD	wordpools/wasnorm_wordpool_576.txt	LTP310	ltpFR2	0	8	BUGGY	188	n/a	n/a	0	0	0
1524334	WORD	wordpools/wasnorm_wordpool_576.txt	LTP310	ltpFR2	0	8	SISTER	1312	n/a	n/a	0	0	0
1527086	WORD	wordpools/wasnorm_wordpool_576.txt	LTP310	ltpFR2	0	8	CRATER	400	n/a	n/a	0	0	0
1529871	WORD	wordpools/wasnorm_wordpool_576.txt	LTP310	ltpFR2	0	8	BANKER	84	n/a	n/a	0	0	0
1532458	WORD	wordpools/wasnorm_wordpool_576.txt	LTP310	ltpFR2	0	8	JAPAN	749	n/a	n/a	0	0	0
1534909	WORD	wordpools/wasnorm_wordpool_576.txt	LTP310	ltpFR2	0	8	OUTFIT	988	n/a	n/a	0	0	0
1537512	WORD	wordpools/wasnorm_wordpool_576.txt	LTP310	ltpFR2	0	8	LUGGAGE	847	n/a	n/a	0	0	0
1540230	WORD	wordpools/wasnorm_wordpool_576.txt	LTP310	ltpFR2	0	8	CUSTARD	429	n/a	n/a	0	0	0
1542833	WORD	wordpools/wasnorm_wordpool_576.txt	LTP310	ltpFR2	0	8	DRESS	495	n/a	n/a	0	0	0
1545603	WORD	wordpools/wasnorm_wordpool_576.txt	LTP310	ltpFR2	0	8	NIGHTGOWN	953	n/a	n/a	0	0	0
1548271	WORD	wordpools/wasnorm_wordpool_576.txt	LTP310	ltpFR2	0	8	BROTHER	179	n/a	n/a	0	0	0
1550906	WORD	wordpools/wasnorm_wordpool_576.txt	LTP310	ltpFR2	0	8	RECEIPT	1173	n/a	n/a	0	0	0
1553426	WORD	wordpools/wasnorm_wordpool_576.txt	LTP310	ltpFR2	0	8	STONE	1385	n/a	n/a	0	0	0
1556111	WORD	wordpools/wasnorm_wordpool_576.txt	LTP310	ltpFR2	0	8	WASHER	1592	n/a	n/a	0	0	0
1558847	WORD	wordpools/wasnorm_wordpool_576.txt	LTP310	ltpFR2	0	8	ROBOT	1200	n/a	n/a	0	0	0
1561316	WORD	wordpools/wasnorm_wordpool_576.txt	LTP310	ltpFR2	0	8	CRICKET	408	n/a	n/a	0	0	0
1562934	START	n/a	LTP310	ltpFR2	0	n/a	n/a	n/a	12	n/a	n/a	n/a	n/a
1563802	DISTRACTOR	n/a	LTP310	ltpFR2	0	8	n/a	n/a	n/a	n/a	0	0	0
1563819	PROB	n/a	LTP310	ltpFR2	0	n/a	n/a	n/a	12	15	8	4	3
1567237	PROB	n/a	LTP310	ltpFR2	0	n/a	n/a	n/a	12	22	8	5	9
1570257	PROB	n/a	LTP310	ltpFR2	0	n/a	n/a	n/a	12	6	4	1	1
1572909	PROB	n/a	LTP310	ltpFR2	0	n/a	n/a	n/a	12	15	9	5	1
1574628	PROB	n/a	LTP310	ltpFR2	0	n/a	n/a	n/a	12	21	7	4	9
1578164	PROB	n/a	LTP310	ltpFR2	0	n/a	n/a	n/a	12	18	5	6	7
1580833	PROB	n/a	LTP310	ltpFR2	0	n/a	n/a	n/a	12	14	7	2	5
1583251	PROB	n/a	LTP310	ltpFR2	0	n/a	n/a	n/a	12	17	8	1	8
1585401	STOP	n/a	LTP310	ltpFR2	0	n/a	n/a	n/a	12	n/a	n/a	n/a	n/a
1588823	REC_START	n/a	LTP310	ltpFR2	0	8	n/a	n/a	n/a	n/a	0	0	0
1591184	REC_WORD	wordpools/wasnorm_wordpool_576.txt	LTP310	ltpFR2	0	8	BROTHER	179	n/a	n/a	0	0	0
1592021	REC_WORD	wordpools/wasnorm_wordpool_576.txt	LTP310	ltpFR2	0	8	SISTER	1312	n/a	n/a	0	0	0
1593439	REC_WORD	wordpools/wasnorm_wordpool_576.txt	LTP310	ltpFR2	0	8	CRATER	400	n/a	n/a	0	0	0
1594832	REC_WORD	wordpools/wasnorm_wordpool_576.txt	LTP310	ltpFR2	0	8	CARRIAGE	248	n/a	n/a	0	0	0
1596160	REC_WORD	wordpools/wasnorm_wordpool_576.txt	LTP310	ltpFR2	0	8	BUGGY	188	n/a	n/a	0	0	0
1597575	REC_WORD	wordpools/wasnorm_wordpool_576.txt	LTP310	ltpFR2	0	8	GHETTO	633	n/a	n/a	0	0	0
1598707	REC_WORD	wordpools/wasnorm_wordpool_576.txt	LTP310	ltpFR2	0	8	COSTUME	383	n/a	n/a	0	0	0
1600539	REC_WORD	wordpools/wasnorm_wordpool_576.txt	LTP310	ltpFR2	0	8	DRESS	495	n/a	n/a	0	0	0
1601788	REC_WORD	wordpools/wasnorm_wordpool_576.txt	LTP310	ltpFR2	0	8	NIGHTGOWN	953	n/a	n/a	0	0	0
1603356	REC_WORD	wordpools/wasnorm_wordpool_576.txt	LTP310	ltpFR2	0	8	CUSTARD	429	n/a	n/a	0	0	0
1605122	REC_WORD	wordpools/wasnorm_wordpool_576.txt	LTP310	ltpFR2	0	8	STONE	1385	n/a	n/a	0	0	0
1606917	REC_WORD	wordpools/wasnorm_wordpool_576.txt	LTP310	ltpFR2	0	8	WASHER	1592	n/a	n/a	0	0	0
1608681	REC_WORD	wordpools/wasnorm_wordpool_576.txt	LTP310	ltpFR2	0	8	ROBOT	1200	n/a	n/a	0	0	0
1610438	REC_WORD	wordpools/wasnorm_wordpool_576.txt	LTP310	ltpFR2	0	8	CRICKET	408	n/a	n/a	0	0	0
1615012	REC_WORD	wordpools/wasnorm_wordpool_576.txt	LTP310	ltpFR2	0	8	BANKER	84	n/a	n/a	0	0	0
1623329	REC_WORD	wordpools/wasnorm_wordpool_576.txt	LTP310	ltpFR2	0	8	JAPAN	749	n/a	n/a	0	0	0
1644838	REC_WORD	wordpools/wasnorm_wordpool_576.txt	LTP310	ltpFR2	0	8	LUGGAGE	847	n/a	n/a	0	0	0
1665374	REST_REWET	n/a	LTP310	ltpFR2	0	8	n/a	n/a	n/a	n/a	0	0	0
2016431	DISTRACTOR	n/a	LTP310	ltpFR2	0	9	n/a	n/a	n/a	n/a	0	0	0
2016431	START	n/a	LTP310	ltpFR2	0	n/a	n/a	n/a	13	n/a	n/a	n/a	n/a
2016465	PROB	n/a	LTP310	ltpFR2	0	n/a	n/a	n/a	13	12	5	6	1
2020083	PROB	n/a	LTP310	ltpFR2	0	n/a	n/a	n/a	13	19	3	8	8
2021868	PROB	n/a	LTP310	ltpFR2	0	n/a	n/a	n/a	13	16	4	3	9
2023621	PROB	n/a	LTP310	ltpFR2	0	n/a	n/a	n/a	13	13	4	3	6
2025221	PROB	n/a	LTP310	ltpFR2	0	n/a	n/a	n/a	13	13	1	9	3
2026657	PROB	n/a	LTP310	ltpFR2	0	n/a	n/a	n/a	13	9	5	2	2
2028107	PROB	n/a	LTP310	ltpFR2	0	n/a	n/a	n/a	13	19	9	5	5
2030292	PROB	n/a	LTP310	ltpFR2	0	n/a	n/a	n/a	13	16	3	6	7
2032010	PROB	n/a	LTP310	ltpFR2	0	n/a	n/a	n/a	13	11	7	3	1
2033413	PROB	n/a	LTP310	ltpFR2	0	n/a	n/a	n/a	13	19	9	2	8
2035247	PROB	n/a	LTP310	ltpFR2	0	n/a	n/a	n/a	13	8	3	3	2
2037416	PROB	n/a	LTP310	ltpFR2	0	n/a	n/a	n/a	13	11	5	2	4
2039461	STOP	n/a	LTP310	ltpFR2	0	n/a	n/a	n/a	13	n/a	n/a	n/a	n/a
2041586	WORD	wordpools/wasnorm_wordpool_576.txt	LTP310	ltpFR2	0	9	SPACE	1345	n/a	n/a	0	0	0
2044356	WORD	wordpools/wasnorm_wordpool_576.txt	LTP310	ltpFR2	0	9	RIVER	1194	n/a	n/a	0	0	0
2046857	WORD	wordpools/wasnorm_wordpool_576.txt	LTP310	ltpFR2	0	9	BOARD	143	n/a	n/a	0	0	0
2049410	WORD	wordpools/wasnorm_wordpool_576.txt	LTP310	ltpFR2	0	9	PIZZA	1079	n/a	n/a	0	0	0
2052145	WORD	wordpools/wasnorm_wordpool_576.txt	LTP310	ltpFR2	0	9	HOSTESS	723	n/a	n/a	0	0	0
2054698	WORD	wordpools/wasnorm_wordpool_576.txt	LTP310	ltpFR2	0	9	CROSS	413	n/a	n/a	0	0	0
2057334	WORD	wordpools/wasnorm_wordpool_576.txt	LTP310	ltpFR2	0	9	HIGHWAY	707	n/a	n/a	0	0	0
2059786	WORD	wordpools/wasnorm_wordpool_576.txt	LTP310	ltpFR2	0	9	SPOUSE	1358	n/a	n/a	0	0	0
2062555	WORD	wordpools/wasnorm_wordpool_576.txt	LTP310	ltpFR2	0	9	RACKET	1155	n/a	n/a	0	0	0
2065106	WORD	wordpools/wasnorm_wordpool_576.txt	LTP310	ltpFR2	0	9	BIKE	125	n/a	n/a	0	0	0
2067643	WORD	wordpools/wasnorm_wordpool_576.txt	LTP310	ltpFR2	0	9	PLASTER	1085	n/a	n/a	0	0	0
2070445	WORD	wordpools/wasnorm_wordpool_576.txt	LTP310	ltpFR2	0	9	FRANCE	601	n/a	n/a	0	0	0
2072996	WORD	wordpools/wasnorm_wordpool_576.txt	LTP310	ltpFR2	0	9	SPHINX	1349	n/a	n/a	0	0	0
2075733	WORD	wordpools/wasnorm_wordpool_576.txt	LTP310	ltpFR2	0	9	FARMER	553	n/a	n/a	0	0	0
2078319	WORD	wordpools/wasnorm_wordpool_576.txt	LTP310	ltpFR2	0	9	LADY	794	n/a	n/a	0	0	0
2080887	WORD	wordpools/wasnorm_wordpool_576.txt	LTP310	ltpFR2	0	9	BLACKBOARD	133	n/a	n/a	0	0	0
2083573	WORD	wordpools/wasnorm_wordpool_576.txt	LTP310	ltpFR2	0	9	VICTIM	1562	n/a	n/a	0	0	0
2086141	WORD	wordpools/wasnorm_wordpool_576.txt	LTP310	ltpFR2	0	9	TRIBE	1505	n/a	n/a	0	0	0
2088661	WORD	wordpools/wasnorm_wordpool_576.txt	LTP310	ltpFR2	0	9	SOFTBALL	1343	n/a	n/a	0	0	0
2091196	WORD	wordpools/wasnorm_wordpool_576.txt	LTP310	ltpFR2	0	9	SCULPTURE	1258	n/a	n/a	0	0	0
2093915	WORD	wordpools/wasnorm_wordpool_576.txt	LTP310	ltpFR2	0	9	ROBIN	1199	n/a	n/a	0	0	0
2096384	WORD	wordpools/wasnorm_wordpool_576.txt	LTP310	ltpFR2	0	9	EAGLE	512	n/a	n/a	0	0	0
2098902	WORD	wordpools/wasnorm_wordpool_576.txt	LTP310	ltpFR2	0	9	PUDDLE	1140	n/a	n/a	0	0	0
2101422	WORD	wordpools/wasnorm_wordpool_576.txt	LTP310	ltpFR2	0	9	SALMON	1227	n/a	n/a	0	0	0
2103039	START	n/a	LTP310	ltpFR2	0	n/a	n/a	n/a	14	n/a	n/a	n/a	n/a
2104168	DISTRACTOR	n/a	LTP310	ltpFR2	0	9	n/a	n/a	n/a	n/a	0	0	0
2104190	PROB	n/a	LTP310	ltpFR2	0	n/a	n/a	n/a	14	20	7	6	7
2107910	PROB	n/a	LTP310	ltpFR2	0	n/a	n/a	n/a	14	14	2	7	5
2110863	PROB	n/a	LTP310	ltpFR2	0	n/a	n/a	n/a	14	13	4	5	4
2113449	PROB	n/a	LTP310	ltpFR2	0	n/a	n/a	n/a	14	20	4	7	9
2116469	PROB	n/a	LTP310	ltpFR2	0	n/a	n/a	n/a	14	17	3	7	7
2117969	PROB	n/a	LTP310	ltpFR2	0	n/a	n/a	n/a	14	14	6	7	1
2119854	PROB	n/a	LTP310	ltpFR2	0	n/a	n/a	n/a	14	9	3	2	3
2121573	PROB	n/a	LTP310	ltpFR2	0	n/a	n/a	n/a	14	2	8	7	7
2124326	PROB	n/a	LTP310	ltpFR2	0	n/a	n/a	n/a	14	15	8	5	2
2126337	STOP	n/a	LTP310	ltpFR2	0	n/a	n/a	n/a	14	n/a	n/a	n/a	n/a
2128912	REC_START	n/a	LTP310	ltpFR2	0	9	n/a	n/a	n/a	n/a	0	0	0
2130690	REC_WORD	wordpools/wasnorm_wordpool_576.txt	LTP310	ltpFR2	0	9	SPACE	1345	n/a	n/a	0	0	0
2132329	REC_WORD	wordpools/wasnorm_wordpool_576.txt	LTP310	ltpFR2	0	9	BOARD	143	n/a	n/a	0	0	0
2134623	REC_WORD	wordpools/wasnorm_wordpool_576.txt	LTP310	ltpFR2	0	9	HOSTESS	723	n/a	n/a	0	0	0
2135994	REC_WORD	wordpools/wasnorm_wordpool_576.txt	LTP310	ltpFR2	0	9	PIZZA	1079	n/a	n/a	0	0	0
2137442	REC_WORD	wordpools/wasnorm_wordpool_576.txt	LTP310	ltpFR2	0	9	FARMER	553	n/a	n/a	0	0	0
2138771	REC_WORD	wordpools/wasnorm_wordpool_576.txt	LTP310	ltpFR2	0	9	LADY	794	n/a	n/a	0	0	0
2140045	REC_WORD	wordpools/wasnorm_wordpool_576.txt	LTP310	ltpFR2	0	9	SPHINX	1349	n/a	n/a	0	0	0
2141485	REC_WORD	wordpools/wasnorm_wordpool_576.txt	LTP310	ltpFR2	0	9	SCULPTURE	1258	n/a	n/a	0	0	0
2143360	REC_WORD	wordpools/wasnorm_wordpool_576.txt	LTP310	ltpFR2	0	9	EAGLE	512	n/a	n/a	0	0	0
2144555	REC_WORD	wordpools/wasnorm_wordpool_576.txt	LTP310	ltpFR2	0	9	ROBIN	1199	n/a	n/a	0	0	0
2150252	REC_WORD	wordpools/wasnorm_wordpool_576.txt	LTP310	ltpFR2	0	9	HIGHWAY	707	n/a	n/a	0	0	0
2151810	REC_WORD	wordpools/wasnorm_wordpool_576.txt	LTP310	ltpFR2	0	9	SPOUSE	1358	n/a	n/a	0	0	0
2153851	REC_WORD	wordpools/wasnorm_wordpool_576.txt	LTP310	ltpFR2	0	9	RACKET	1155	n/a	n/a	0	0	0
2160182	REC_WORD	wordpools/wasnorm_wordpool_576.txt	LTP310	ltpFR2	0	9	CROSS	413	n/a	n/a	0	0	0
2168082	REC_WORD	wordpools/wasnorm_wordpool_576.txt	LTP310	ltpFR2	0	9	BLACKBOARD	133	n/a	n/a	0	0	0
2170008	REC_WORD	wordpools/wasnorm_wordpool_576.txt	LTP310	ltpFR2	0	9	TRIBE	1505	n/a	n/a	0	0	0
2172421	REC_WORD	wordpools/wasnorm_wordpool_576.txt	LTP310	ltpFR2	0	9	SOFTBALL	1343	n/a	n/a	0	0	0
2219392	WORD	wordpools/wasnorm_wordpool_576.txt	LTP310	ltpFR2	0	10	SHELF	1280	n/a	n/a	0	0	0
2222193	WORD	wordpools/wasnorm_wordpool_576.txt	LTP310	ltpFR2	0	10	FIDDLE	561	n/a	n/a	0	0	0
2224929	WORD	wordpools/wasnorm_wordpool_576.txt	LTP310	ltpFR2	0	10	RUST	1219	n/a	n/a	0	0	0
2227532	WORD	wordpools/wasnorm_wordpool_576.txt	LTP310	ltpFR2	0	10	AIRPORT	13	n/a	n/a	0	0	0
2230017	WORD	wordpools/wasnorm_wordpool_576.txt	LTP310	ltpFR2	0	10	BANJO	82	n/a	n/a	0	0	0
2232553	WORD	wordpools/wasnorm_wordpool_576.txt	LTP310	ltpFR2	0	10	COWBOY	395	n/a	n/a	0	0	0
2235356	WORD	wordpools/wasnorm_wordpool_576.txt	LTP310	ltpFR2	0	10	UMPIRE	1535	n/a	n/a	0	0	0
2237840	WORD	wordpools/wasnorm_wordpool_576.txt	LTP310	ltpFR2	0	10	SCISSORS	1250	n/a	n/a	0	0	0
2240309	WORD	wordpools/wasnorm_wordpool_576.txt	LTP310	ltpFR2	0	10	KNIFE	785	n/a	n/a	0	0	0
2242812	WORD	wordpools/wasnorm_wordpool_576.txt	LTP310	ltpFR2	0	10	DASHBOARD	441	n/a	n/a	0	0	0
2245280	WORD	wordpools/wasnorm_wordpool_576.txt	LTP310	ltpFR2	0	10	CABBAGE	210	n/a	n/a	0	0	0
2247767	WORD	wordpools/wasnorm_wordpool_576.txt	LTP310	ltpFR2	0	10	LOFT	840	n/a	n/a	0	0	0
2250336	WORD	wordpools/wasnorm_wordpool_576.txt	LTP310	ltpFR2	0	10	HAWK	692	n/a	n/a	0	0	0
2252904	WORD	wordpools/wasnorm_wordpool_576.txt	LTP310	ltpFR2	0	10	STUDENT	1395	n/a	n/a	0	0	0
2255690	WORD	wordpools/wasnorm_wordpool_576.txt	LTP310	ltpFR2	0	10	NOVEL	960	n/a	n/a	0	0	0
2258141	WORD	wordpools/wasnorm_wordpool_576.txt	LTP310	ltpFR2	0	10	RABBIT	1152	n/a	n/a	0	0	0
2260728	WORD	wordpools/wasnorm_wordpool_576.txt	LTP310	ltpFR2	0	10	TORTOISE	1486	n/a	n/a	0	0	0
2263347	WORD	wordpools/wasnorm_wordpool_576.txt	LTP310	ltpFR2	0	10	LION	827	n/a	n/a	0	0	0
2265932	WORD	wordpools/wasnorm_wordpool_576.txt	LTP310	ltpFR2	0	10	MARKET	871	n/a	n/a	0	0	0
2268702	WORD	wordpools/wasnorm_wordpool_576.txt	LTP310	ltpFR2	0	10	BANQUET	86	n/a	n/a	0	0	0
2271354	WORD	wordpools/wasnorm_wordpool_576.txt	LTP310	ltpFR2	0	10	CHAPEL	280	n/a	n/a	0	0	0
2273922	WORD	wordpools/wasnorm_wordpool_576.txt	LTP310	ltpFR2	0	10	TRANSPLANT	1496	n/a	n/a	0	0	0
2276692	WORD	wordpools/wasnorm_wordpool_576.txt	LTP310	ltpFR2	0	10	EGYPT	519	n/a	n/a	0	0	0
2279328	WORD	wordpools/wasnorm_wordpool_576.txt	LTP310	ltpFR2	0	10	MUMMY	932	n/a	n/a	0	0	0
2280945	START	n/a	LTP310	ltpFR2	0	n/a	n/a	n/a	15	n/a	n/a	n/a	n/a
2282031	DISTRACTOR	n/a	LTP310	ltpFR2	0	10	n/a	n/a	n/a	n/a	0	0	0
2282046	PROB	n/a	LTP310	ltpFR2	0	n/a	n/a	n/a	15	22	6	9	7
2285483	PROB	n/a	LTP310	ltpFR2	0	n/a	n/a	n/a	15	21	9	9	3
2287785	PROB	n/a	LTP310	ltpFR2	0	n/a	n/a	n/a	15	14	2	3	9
2289804	PROB	n/a	LTP310	ltpFR2	0	n/a	n/a	n/a	15	11	1	7	3
2292121	PROB	n/a	LTP310	ltpFR2	0	n/a	n/a	n/a	15	13	1	7	5
2294441	PROB	n/a	LTP310	ltpFR2	0	n/a	n/a	n/a	15	19	6	4	9
2296025	PROB	n/a	LTP310	ltpFR2	0	n/a	n/a	n/a	15	12	1	6	5
2299662	PROB	n/a	LTP310	ltpFR2	0	n/a	n/a	n/a	15	18	3	8	7
2301497	PROB	n/a	LTP310	ltpFR2	0	n/a	n/a	n/a	15	15	6	3	6
2303728	STOP	n/a	LTP310	ltpFR2	0	n/a	n/a	n/a	15	n/a	n/a	n/a	n/a
2306851	REC_START	n/a	LTP310	ltpFR2	0	10	n/a	n/a	n/a	n/a	0	0	0
2308677	REC_WORD	wordpools/wasnorm_wordpool_576.txt	LTP310	ltpFR2	0	10	TRANSPLANT	1496	n/a	n/a	0	0	0
2310551	REC_WORD	wordpools/wasnorm_wordpool_576.txt	LTP310	ltpFR2	0	10	EGYPT	519	n/a	n/a	0	0	0
2311677	REC_WORD	wordpools/wasnorm_wordpool_576.txt	LTP310	ltpFR2	0	10	MUMMY	932	n/a	n/a	0	0	0
2313315	REC_WORD	wordpools/wasnorm_wordpool_576.txt	LTP310	ltpFR2	0	10	AIRPORT	13	n/a	n/a	0	0	0
2314820	REC_WORD	wordpools/wasnorm_wordpool_576.txt	LTP310	ltpFR2	0	10	SHELF	1280	n/a	n/a	0	0	0
2316055	REC_WORD	wordpools/wasnorm_wordpool_576.txt	LTP310	ltpFR2	0	10	GUITAR	670	n/a	n/a	0	0	0
2317672	REC_WORD	wordpools/wasnorm_wordpool_576.txt	LTP310	ltpFR2	0	10	BANJO	82	n/a	n/a	0	0	0
2319353	REC_WORD	wordpools/wasnorm_wordpool_576.txt	LTP310	ltpFR2	0	10	COWBOY	395	n/a	n/a	0	0	0
2320629	REC_WORD	wordpools/wasnorm_wordpool_576.txt	LTP310	ltpFR2	0	10	UMPIRE	1535	n/a	n/a	0	0	0
2321781	REC_WORD	wordpools/wasnorm_wordpool_576.txt	LTP310	ltpFR2	0	10	STUDENT	1395	n/a	n/a	0	0	0
2324417	REC_WORD	wordpools/wasnorm_wordpool_576.txt	LTP310	ltpFR2	0	10	KNIFE	785	n/a	n/a	0	0	0
2327283	REC_WORD	wordpools/wasnorm_wordpool_576.txt	LTP310	ltpFR2	0	10	BLADE	134	n/a	n/a	0	0	0
2329672	REC_WORD	wordpools/wasnorm_wordpool_576.txt	LTP310	ltpFR2	0	10	CABBAGE	210	n/a	n/a	0	0	0
2330941	REC_WORD	wordpools/wasnorm_wordpool_576.txt	LTP310	ltpFR2	0	10	DASHBOARD	441	n/a	n/a	0	0	0
2332559	REC_WORD	wordpools/wasnorm_wordpool_576.txt	LTP310	ltpFR2	0	10	NOVEL	960	n/a	n/a	0	0	0
2336065	REC_WORD	wordpools/wasnorm_wordpool_576.txt	LTP310	ltpFR2	0	10	TORTOISE	1486	n/a	n/a	0	0	0
2338639	REC_WORD	wordpools/wasnorm_wordpool_576.txt	LTP310	ltpFR2	0	10	EAGLE	512	n/a	n/a	0	0	0
2341528	REC_WORD	wordpools/wasnorm_wordpool_576.txt	LTP310	ltpFR2	0	10	RABBIT	1152	n/a	n/a	0	0	0
2351937	REC_WORD	wordpools/wasnorm_wordpool_576.txt	LTP310	ltpFR2	0	10	SHELF	1280	n/a	n/a	0	0	0
2364859	REC_WORD	wordpools/wasnorm_wordpool_576.txt	LTP310	ltpFR2	0	10	TRANSPLANT	1496	n/a	n/a	0	0	0
2377098	REC_WORD	wordpools/wasnorm_wordpool_576.txt	LTP310	ltpFR2	0	10	LION	827	n/a	n/a	0	0	0
2397314	DISTRACTOR	n/a	LTP310	ltpFR2	0	11	n/a	n/a	n/a	n/a	0	0	0
2397314	START	n/a	LTP310	ltpFR2	0	n/a	n/a	n/a	16	n/a	n/a	n/a	n/a
2397331	PROB	n/a	LTP310	ltpFR2	0	n/a	n/a	n/a	16	19	7	7	5
2400116	PROB	n/a	LTP310	ltpFR2	0	n/a	n/a	n/a	16	15	3	8	4
2402318	PROB	n/a	LTP310	ltpFR2	0	n/a	n/a	n/a	16	19	9	4	6
2404437	PROB	n/a	LTP310	ltpFR2	0	n/a	n/a	n/a	16	20	9	6	5
2406921	PROB	n/a	LTP310	ltpFR2	0	n/a	n/a	n/a	16	15	3	7	5
2408441	PROB	n/a	LTP310	ltpFR2	0	n/a	n/a	n/a	16	16	6	7	3
2410224	PROB	n/a	LTP310	ltpFR2	0	n/a	n/a	n/a	16	17	6	6	5
2412578	PROB	n/a	LTP310	ltpFR2	0	n/a	n/a	n/a	16	22	1	4	7
2414613	PROB	n/a	LTP310	ltpFR2	0	n/a	n/a	n/a	16	11	4	1	6
2416096	PROB	n/a	LTP310	ltpFR2	0	n/a	n/a	n/a	16	18	4	6	8
2417649	PROB	n/a	LTP310	ltpFR2	0	n/a	n/a	n/a	16	15	8	1	6
2421314	STOP	n/a	LTP310	ltpFR2	0	n/a	n/a	n/a	16	n/a	n/a	n/a	n/a
2422419	WORD	wordpools/wasnorm_wordpool_576.txt	LTP310	ltpFR2	0	11	PAPER	1011	n/a	n/a	0	0	0
2425254	WORD	wordpools/wasnorm_wordpool_576.txt	LTP310	ltpFR2	0	11	BRIEFCASE	175	n/a	n/a	0	0	0
2428073	WORD	wordpools/wasnorm_wordpool_576.txt	LTP310	ltpFR2	0	11	SPIDER	1351	n/a	n/a	0	0	0
2430576	WORD	wordpools/wasnorm_wordpool_576.txt	LTP310	ltpFR2	0	11	MEAT	883	n/a	n/a	0	0	0
2433061	WORD	wordpools/wasnorm_wordpool_576.txt	LTP310	ltpFR2	0	11	WHISTLE	1606	n/a	n/a	0	0	0
2435614	WORD	wordpools/wasnorm_wordpool_576.txt	LTP310	ltpFR2	0	11	HIKER	708	n/a	n/a	0	0	0
2438116	WORD	wordpools/wasnorm_wordpool_576.txt	LTP310	ltpFR2	0	11	CLIMBER	323	n/a	n/a	0	0	0
2440819	WORD	wordpools/wasnorm_wordpool_576.txt	LTP310	ltpFR2	0	11	POSSUM	1112	n/a	n/a	0	0	0
2443388	WORD	wordpools/wasnorm_wordpool_576.txt	LTP310	ltpFR2	0	11	BROOK	177	n/a	n/a	0	0	0
2445989	WORD	wordpools/wasnorm_wordpool_576.txt	LTP310	ltpFR2	0	11	CUPBOARD	425	n/a	n/a	0	0	0
2448759	WORD	wordpools/wasnorm_wordpool_576.txt	LTP310	ltpFR2	0	11	FLESH	579	n/a	n/a	0	0	0
2451561	WORD	wordpools/wasnorm_wordpool_576.txt	LTP310	ltpFR2	0	11	HERO	706	n/a	n/a	0	0	0
2454029	WORD	wordpools/wasnorm_wordpool_576.txt	LTP310	ltpFR2	0	11	TABLE	1426	n/a	n/a	0	0	0
2456783	WORD	wordpools/wasnorm_wordpool_576.txt	LTP310	ltpFR2	0	11	BEAST	108	n/a	n/a	0	0	0
2459485	WORD	wordpools/wasnorm_wordpool_576.txt	LTP310	ltpFR2	0	11	TYPIST	1532	n/a	n/a	0	0	0
2462187	WORD	wordpools/wasnorm_wordpool_576.txt	LTP310	ltpFR2	0	11	CAFE	216	n/a	n/a	0	0	0
2464656	WORD	wordpools/wasnorm_wordpool_576.txt	LTP310	ltpFR2	0	11	ISLAND	745	n/a	n/a	0	0	0
2467425	WORD	wordpools/wasnorm_wordpool_576.txt	LTP310	ltpFR2	0	11	CHIPMUNK	304	n/a	n/a	0	0	0
2469910	WORD	wordpools/wasnorm_wordpool_576.txt	LTP310	ltpFR2	0	11	SURVEY	1414	n/a	n/a	0	0	0
2472447	WORD	wordpools/wasnorm_wordpool_576.txt	LTP310	ltpFR2	0	11	BINDER	127	n/a	n/a	0	0	0
2474948	WORD	wordpools/wasnorm_wordpool_576.txt	LTP310	ltpFR2	0	11	BLOCKADE	137	n/a	n/a	0	0	0
2477584	WORD	wordpools/wasnorm_wordpool_576.txt	LTP310	ltpFR2	0	11	CHAMPAGNE	278	n/a	n/a	0	0	0
2480136	WORD	wordpools/wasnorm_wordpool_576.txt	LTP310	ltpFR2	0	11	PILOT	1070	n/a	n/a	0	0	0
2482971	WORD	wordpools/wasnorm_wordpool_576.txt	LTP310	ltpFR2	0	11	STAPLE	1371	n/a	n/a	0	0	0
2484591	START	n/a	LTP310	ltpFR2	0	n/a	n/a	n/a	17	n/a	n/a	n/a	n/a
2485492	DISTRACTOR	n/a	LTP310	ltpFR2	0	11	n/a	n/a	n/a	n/a	0	0	0
2485508	PROB	n/a	LTP310	ltpFR2	0	n/a	n/a	n/a	17	13	9	2	2
2487959	PROB	n/a	LTP310	ltpFR2	0	n/a	n/a	n/a	17	22	8	5	9
2489927	PROB	n/a	LTP310	ltpFR2	0	n/a	n/a	n/a	17	17	9	7	1
2491546	PROB	n/a	LTP310	ltpFR2	0	n/a	n/a	n/a	17	8	2	4	2
2492963	PROB	n/a	LTP310	ltpFR2	0	n/a	n/a	n/a	17	17	5	7	5
2495500	PROB	n/a	LTP310	ltpFR2	0	n/a	n/a	n/a	17	12	1	4	7
2497502	PROB	n/a	LTP310	ltpFR2	0	n/a	n/a	n/a	17	11	4	4	2
2499770	PROB	n/a	LTP310	ltpFR2	0	n/a	n/a	n/a	17	15	4	5	6
2502690	PROB	n/a	LTP310	ltpFR2	0	n/a	n/a	n/a	17	9	4	3	2
2504924	PROB	n/a	LTP310	ltpFR2	0	n/a	n/a	n/a	17	13	6	5	2
2507529	STOP	n/a	LTP310	ltpFR2	0	n/a	n/a	n/a	17	n/a	n/a	n/a	n/a
2510480	REC_START	n/a	LTP310	ltpFR2	0	11	n/a	n/a	n/a	n/a	0	0	0
2513077	REC_WORD	wordpools/wasnorm_wordpool_576.txt	LTP310	ltpFR2	0	11	BLOCKADE	137	n/a	n/a	0	0	0
2514514	REC_WORD	wordpools/wasnorm_wordpool_576.txt	LTP310	ltpFR2	0	11	BROOK	177	n/a	n/a	0	0	0
2516005	REC_WORD	wordpools/wasnorm_wordpool_576.txt	LTP310	ltpFR2	0	11	ISLAND	745	n/a	n/a	0	0	0
2517624	REC_WORD	wordpools/wasnorm_wordpool_576.txt	LTP310	ltpFR2	0	11	TYPIST	1532	n/a	n/a	0	0	0
2519354	REC_WORD	wordpools/wasnorm_wordpool_576.txt	LTP310	ltpFR2	0	11	CHAMPAGNE	278	n/a	n/a	0	0	0
2521099	REC_WORD	wordpools/wasnorm_wordpool_576.txt	LTP310	ltpFR2	0	11	PILOT	1070	n/a	n/a	0	0	0
2522714	REC_WORD	wordpools/wasnorm_wordpool_576.txt	LTP310	ltpFR2	0	11	HIKER	708	n/a	n/a	0	0	0
2524351	REC_WORD	wordpools/wasnorm_wordpool_576.txt	LTP310	ltpFR2	0	11	CLIMBER	323	n/a	n/a	0	0	0
2525852	REC_WORD	wordpools/wasnorm_wordpool_576.txt	LTP310	ltpFR2	0	11	WHISTLE	1606	n/a	n/a	0	0	0
2527570	REC_WORD	wordpools/wasnorm_wordpool_576.txt	LTP310	ltpFR2	0	11	BRIEFCASE	175	n/a	n/a	0	0	0
2528984	REC_WORD	wordpools/wasnorm_wordpool_576.txt	LTP310	ltpFR2	0	11	TABLE	1426	n/a	n/a	0	0	0
2530917	REC_WORD	wordpools/wasnorm_wordpool_576.txt	LTP310	ltpFR2	0	11	SPIDER	1351	n/a	n/a	0	0	0
2532650	REC_WORD	wordpools/wasnorm_wordpool_576.txt	LTP310	ltpFR2	0	11	MEAT	883	n/a	n/a	0	0	0
2533973	REC_WORD	wordpools/wasnorm_wordpool_576.txt	LTP310	ltpFR2	0	11	FLESH	579	n/a	n/a	0	0	0
2536127	REC_WORD	wordpools/wasnorm_wordpool_576.txt	LTP310	ltpFR2	0	11	POSSUM	1112	n/a	n/a	0	0	0
2567277	REC_WORD	wordpools/wasnorm_wordpool_576.txt	LTP310	ltpFR2	0	11	HERO	706	n/a	n/a	0	0	0
2576377	REC_WORD	wordpools/wasnorm_wordpool_576.txt	LTP310	ltpFR2	0	11	BINDER	127	n/a	n/a	0	0	0
2601075	DISTRACTOR	n/a	LTP310	ltpFR2	0	12	n/a	n/a	n/a	n/a	0	0	0
2601075	START	n/a	LTP310	ltpFR2	0	n/a	n/a	n/a	18	n/a	n/a	n/a	n/a
2601091	PROB	n/a	LTP310	ltpFR2	0	n/a	n/a	n/a	18	19	8	2	9
2603478	PROB	n/a	LTP310	ltpFR2	0	n/a	n/a	n/a	18	23	6	8	9
2607515	PROB	n/a	LTP310	ltpFR2	0	n/a	n/a	n/a	18	22	8	7	7
2609832	PROB	n/a	LTP310	ltpFR2	0	n/a	n/a	n/a	18	17	4	8	5
2611668	PROB	n/a	LTP310	ltpFR2	0	n/a	n/a	n/a	18	15	7	1	7
2614019	PROB	n/a	LTP310	ltpFR2	0	n/a	n/a	n/a	18	17	7	6	4
2615921	PROB	n/a	LTP310	ltpFR2	0	n/a	n/a	n/a	18	15	5	9	1
2617557	PROB	n/a	LTP310	ltpFR2	0	n/a	n/a	n/a	18	10	2	5	3
2619575	PROB	n/a	LTP310	ltpFR2	0	n/a	n/a	n/a	18	11	2	8	1
2621092	PROB	n/a	LTP310	ltpFR2	0	n/a	n/a	n/a	18	18	8	3	7
2622877	PROB	n/a	LTP310	ltpFR2	0	n/a	n/a	n/a	18	14	2	3	6
2624821	STOP	n/a	LTP310	ltpFR2	0	n/a	n/a	n/a	18	n/a	n/a	n/a	n/a
2626280	WORD	wordpools/wasnorm_wordpool_576.txt	LTP310	ltpFR2	0	12	HAND	683	n/a	n/a	0	0	0
2628766	WORD	wordpools/wasnorm_wordpool_576.txt	LTP310	ltpFR2	0	12	ROBBER	1197	n/a	n/a	0	0	0
2631234	WORD	wordpools/wasnorm_wordpool_576.txt	LTP310	ltpFR2	0	12	OUTLAW	989	n/a	n/a	0	0	0
2633687	WORD	wordpools/wasnorm_wordpool_576.txt	LTP310	ltpFR2	0	12	CYCLONE	431	n/a	n/a	0	0	0
2636490	WORD	wordpools/wasnorm_wordpool_576.txt	LTP310	ltpFR2	0	12	HANDBAG	684	n/a	n/a	0	0	0
2639074	WORD	wordpools/wasnorm_wordpool_576.txt	LTP310	ltpFR2	0	12	KNAPSACK	783	n/a	n/a	0	0	0
2641827	WORD	wordpools/wasnorm_wordpool_576.txt	LTP310	ltpFR2	0	12	SLUG	1329	n/a	n/a	0	0	0
2644364	WORD	wordpools/wasnorm_wordpool_576.txt	LTP310	ltpFR2	0	12	TOASTER	1472	n/a	n/a	0	0	0
2647132	WORD	wordpools/wasnorm_wordpool_576.txt	LTP310	ltpFR2	0	12	TART	1436	n/a	n/a	0	0	0
2649601	WORD	wordpools/wasnorm_wordpool_576.txt	LTP310	ltpFR2	0	12	SODA	1341	n/a	n/a	0	0	0
2652086	WORD	wordpools/wasnorm_wordpool_576.txt	LTP310	ltpFR2	0	12	ARM	38	n/a	n/a	0	0	0
2654855	WORD	wordpools/wasnorm_wordpool_576.txt	LTP310	ltpFR2	0	12	GOBLIN	645	n/a	n/a	0	0	0
2657492	WORD	wordpools/wasnorm_wordpool_576.txt	LTP310	ltpFR2	0	12	PEACH	1031	n/a	n/a	0	0	0
2660059	WORD	wordpools/wasnorm_wordpool_576.txt	LTP310	ltpFR2	0	12	UNCLE	1536	n/a	n/a	0	0	0
2662862	WORD	wordpools/wasnorm_wordpool_576.txt	LTP310	ltpFR2	0	12	WORKER	1621	n/a	n/a	0	0	0
2665382	WORD	wordpools/wasnorm_wordpool_576.txt	LTP310	ltpFR2	0	12	CITRUS	313	n/a	n/a	0	0	0
2667850	WORD	wordpools/wasnorm_wordpool_576.txt	LTP310	ltpFR2	0	12	LEG	809	n/a	n/a	0	0	0
2670620	WORD	wordpools/wasnorm_wordpool_576.txt	LTP310	ltpFR2	0	12	COOKBOOK	373	n/a	n/a	0	0	0
2673204	WORD	wordpools/wasnorm_wordpool_576.txt	LTP310	ltpFR2	0	12	MESSAGE	888	n/a	n/a	0	0	0
2675907	WORD	wordpools/wasnorm_wordpool_576.txt	LTP310	ltpFR2	0	12	BUREAU	199	n/a	n/a	0	0	0
2678493	WORD	wordpools/wasnorm_wordpool_576.txt	LTP310	ltpFR2	0	12	OFFICE	972	n/a	n/a	0	0	0
2681228	WORD	wordpools/wasnorm_wordpool_576.txt	LTP310	ltpFR2	0	12	IDOL	733	n/a	n/a	0	0	0
2683847	WORD	wordpools/wasnorm_wordpool_576.txt	LTP310	ltpFR2	0	12	ROCKET	1202	n/a	n/a	0	0	0
2686650	WORD	wordpools/wasnorm_wordpool_576.txt	LTP310	ltpFR2	0	12	SHORTCAKE	1292	n/a	n/a	0	0	0
2688268	START	n/a	LTP310	ltpFR2	0	n/a	n/a	n/a	19	n/a	n/a	n/a	n/a
2689165	DISTRACTOR	n/a	LTP310	ltpFR2	0	12	n/a	n/a	n/a	n/a	0	0	0
2689185	PROB	n/a	LTP310	ltpFR2	0	n/a	n/a	n/a	19	10	2	6	2
2691555	PROB	n/a	LTP310	ltpFR2	0	n/a	n/a	n/a	19	19	7	6	6
2694840	PROB	n/a	LTP310	ltpFR2	0	n/a	n/a	n/a	19	14	4	4	6
2696376	PROB	n/a	LTP310	ltpFR2	0	n/a	n/a	n/a	19	10	2	6	2
2698126	PROB	n/a	LTP310	ltpFR2	0	n/a	n/a	n/a	19	17	6	4	7
2699645	PROB	n/a	LTP310	ltpFR2	0	n/a	n/a	n/a	19	22	1	7	4
2701896	PROB	n/a	LTP310	ltpFR2	0	n/a	n/a	n/a	19	16	4	6	6
2703565	PROB	n/a	LTP310	ltpFR2	0	n/a	n/a	n/a	19	19	9	7	3
2705900	PROB	n/a	LTP310	ltpFR2	0	n/a	n/a	n/a	19	13	3	4	6
2707819	PROB	n/a	LTP310	ltpFR2	0	n/a	n/a	n/a	19	17	7	8	2
2709454	PROB	n/a	LTP310	ltpFR2	0	n/a	n/a	n/a	19	12	2	1	9
2711169	STOP	n/a	LTP310	ltpFR2	0	n/a	n/a	n/a	19	n/a	n/a	n/a	n/a
2714224	REC_START	n/a	LTP310	ltpFR2	0	12	n/a	n/a	n/a	n/a	0	0	0
2716491	REC_WORD	wordpools/wasnorm_wordpool_576.txt	LTP310	ltpFR2	0	12	ROBBER	1197	n/a	n/a	0	0	0
2717835	REC_WORD	wordpools/wasnorm_wordpool_576.txt	LTP310	ltpFR2	0	12	HAND	683	n/a	n/a	0	0	0
2719461	REC_WORD	wordpools/wasnorm_wordpool_576.txt	LTP310	ltpFR2	0	12	ARM	38	n/a	n/a	0	0	0
2720865	REC_WORD	wordpools/wasnorm_wordpool_576.txt	LTP310	ltpFR2	0	12	LEG	809	n/a	n/a	0	0	0
2722283	REC_WORD	wordpools/wasnorm_wordpool_576.txt	LTP310	ltpFR2	0	12	CYCLONE	431	n/a	n/a	0	0	0
2723942	REC_WORD	wordpools/wasnorm_wordpool_576.txt	LTP310	ltpFR2	0	12	SLUG	1329	n/a	n/a	0	0	0
2725671	REC_WORD	wordpools/wasnorm_wordpool_576.txt	LTP310	ltpFR2	0	12	TOASTER	1472	n/a	n/a	0	0	0
2727412	REC_WORD	wordpools/wasnorm_wordpool_576.txt	LTP310	ltpFR2	0	12	TART	1436	n/a	n/a	0	0	0
2729222	REC_WORD	wordpools/wasnorm_wordpool_576.txt	LTP310	ltpFR2	0	12	CITRUS	313	n/a	n/a	0	0	0
2731206	REC_WORD	wordpools/wasnorm_wordpool_576.txt	LTP310	ltpFR2	0	12	PEACH	1031	n/a	n/a	0	0	0
2734302	REC_WORD	wordpools/wasnorm_wordpool_576.txt	LTP310	ltpFR2	0	12	SHORTCAKE	1292	n/a	n/a	0	0	0
2738723	REC_WORD	wordpools/wasnorm_wordpool_576.txt	LTP310	ltpFR2	0	12	UNCLE	1536	n/a	n/a	0	0	0
2741260	REC_WORD	wordpools/wasnorm_wordpool_576.txt	LTP310	ltpFR2	0	12	BUREAU	199	n/a	n/a	0	0	0
2742866	REC_WORD	wordpools/wasnorm_wordpool_576.txt	LTP310	ltpFR2	0	12	OFFICE	972	n/a	n/a	0	0	0
2747939	REC_WORD	wordpools/wasnorm_wordpool_576.txt	LTP310	ltpFR2	0	12	WORKER	1621	n/a	n/a	0	0	0
2755417	REC_WORD	wordpools/wasnorm_wordpool_576.txt	LTP310	ltpFR2	0	12	CULPRIT	-1	n/a	n/a	0	0	0
2775604	REC_WORD	wordpools/wasnorm_wordpool_576.txt	LTP310	ltpFR2	0	12	HAND	683	n/a	n/a	0	0	0
2804853	DISTRACTOR	n/a	LTP310	ltpFR2	0	13	n/a	n/a	n/a	n/a	0	0	0
2804853	START	n/a	LTP310	ltpFR2	0	n/a	n/a	n/a	20	n/a	n/a	n/a	n/a
2804886	PROB	n/a	LTP310	ltpFR2	0	n/a	n/a	n/a	20	18	7	4	7
2806955	PROB	n/a	LTP310	ltpFR2	0	n/a	n/a	n/a	20	12	2	1	9
2808424	PROB	n/a	LTP310	ltpFR2	0	n/a	n/a	n/a	20	13	6	2	5
2810325	PROB	n/a	LTP310	ltpFR2	0	n/a	n/a	n/a	20	16	9	1	6
2811842	PROB	n/a	LTP310	ltpFR2	0	n/a	n/a	n/a	20	17	7	9	1
2813495	PROB	n/a	LTP310	ltpFR2	0	n/a	n/a	n/a	20	14	7	3	4
2814978	PROB	n/a	LTP310	ltpFR2	0	n/a	n/a	n/a	20	11	1	4	6
2816714	PROB	n/a	LTP310	ltpFR2	0	n/a	n/a	n/a	20	19	4	7	8
2818783	PROB	n/a	LTP310	ltpFR2	0	n/a	n/a	n/a	20	13	3	1	9
2820300	PROB	n/a	LTP310	ltpFR2	0	n/a	n/a	n/a	20	9	2	6	1
2821984	PROB	n/a	LTP310	ltpFR2	0	n/a	n/a	n/a	20	14	6	2	6
2824186	PROB	n/a	LTP310	ltpFR2	0	n/a	n/a	n/a	20	15	5	8	2
2825622	PROB	n/a	LTP310	ltpFR2	0	n/a	n/a	n/a	20	16	5	5	6
2827479	STOP	n/a	LTP310	ltpFR2	0	n/a	n/a	n/a	20	n/a	n/a	n/a	n/a
2829809	WORD	wordpools/wasnorm_wordpool_576.txt	LTP310	ltpFR2	0	13	PLAZA	1088	n/a	n/a	0	0	0
2832611	WORD	wordpools/wasnorm_wordpool_576.txt	LTP310	ltpFR2	0	13	GUITAR	670	n/a	n/a	0	0	0
2835447	WORD	wordpools/wasnorm_wordpool_576.txt	LTP310	ltpFR2	0	13	GROUND	666	n/a	n/a	0	0	0
2838265	WORD	wordpools/wasnorm_wordpool_576.txt	LTP310	ltpFR2	0	13	HARP	689	n/a	n/a	0	0	0
2841001	WORD	wordpools/wasnorm_wordpool_576.txt	LTP310	ltpFR2	0	13	RECORD	1176	n/a	n/a	0	0	0
2843571	WORD	wordpools/wasnorm_wordpool_576.txt	LTP310	ltpFR2	0	13	GIFT	635	n/a	n/a	0	0	0
2846139	WORD	wordpools/wasnorm_wordpool_576.txt	LTP310	ltpFR2	0	13	SHOULDER	1294	n/a	n/a	0	0	0
2848809	WORD	wordpools/wasnorm_wordpool_576.txt	LTP310	ltpFR2	0	13	SLIME	1327	n/a	n/a	0	0	0
2851628	WORD	wordpools/wasnorm_wordpool_576.txt	LTP310	ltpFR2	0	13	RADISH	1158	n/a	n/a	0	0	0
2854314	WORD	wordpools/wasnorm_wordpool_576.txt	LTP310	ltpFR2	0	13	TWISTER	1530	n/a	n/a	0	0	0
2856865	WORD	wordpools/wasnorm_wordpool_576.txt	LTP310	ltpFR2	0	13	STAR	1373	n/a	n/a	0	0	0
2859351	WORD	wordpools/wasnorm_wordpool_576.txt	LTP310	ltpFR2	0	13	MAILMAN	858	n/a	n/a	0	0	0
2861836	WORD	wordpools/wasnorm_wordpool_576.txt	LTP310	ltpFR2	0	13	TILE	1468	n/a	n/a	0	0	0
2864389	WORD	wordpools/wasnorm_wordpool_576.txt	LTP310	ltpFR2	0	13	SAUSAGE	1238	n/a	n/a	0	0	0
2866974	WORD	wordpools/wasnorm_wordpool_576.txt	LTP310	ltpFR2	0	13	POPCORN	1104	n/a	n/a	0	0	0
2869594	WORD	wordpools/wasnorm_wordpool_576.txt	LTP310	ltpFR2	0	13	SHERIFF	1284	n/a	n/a	0	0	0
2872313	WORD	wordpools/wasnorm_wordpool_576.txt	LTP310	ltpFR2	0	13	TERMITE	1451	n/a	n/a	0	0	0
2874947	WORD	wordpools/wasnorm_wordpool_576.txt	LTP310	ltpFR2	0	13	BRICK	172	n/a	n/a	0	0	0
2877784	WORD	wordpools/wasnorm_wordpool_576.txt	LTP310	ltpFR2	0	13	BLENDER	136	n/a	n/a	0	0	0
2880587	WORD	wordpools/wasnorm_wordpool_576.txt	LTP310	ltpFR2	0	13	PLAYGROUND	1087	n/a	n/a	0	0	0
2883155	WORD	wordpools/wasnorm_wordpool_576.txt	LTP310	ltpFR2	0	13	SUSPECT	1415	n/a	n/a	0	0	0
2885957	WORD	wordpools/wasnorm_wordpool_576.txt	LTP310	ltpFR2	0	13	CHEMIST	292	n/a	n/a	0	0	0
2888627	WORD	wordpools/wasnorm_wordpool_576.txt	LTP310	ltpFR2	0	13	COMET	353	n/a	n/a	0	0	0
2891095	WORD	wordpools/wasnorm_wordpool_576.txt	LTP310	ltpFR2	0	13	FRUIT	610	n/a	n/a	0	0	0
2892714	START	n/a	LTP310	ltpFR2	0	n/a	n/a	n/a	21	n/a	n/a	n/a	n/a
2893822	DISTRACTOR	n/a	LTP310	ltpFR2	0	13	n/a	n/a	n/a	n/a	0	0	0
2893831	PROB	n/a	LTP310	ltpFR2	0	n/a	n/a	n/a	21	21	4	8	9
2896551	PROB	n/a	LTP310	ltpFR2	0	n/a	n/a	n/a	21	19	2	9	8
2900203	PROB	n/a	LTP310	ltpFR2	0	n/a	n/a	n/a	21	19	8	8	3
2902038	PROB	n/a	LTP310	ltpFR2	0	n/a	n/a	n/a	21	16	8	3	5
2905508	PROB	n/a	LTP310	ltpFR2	0	n/a	n/a	n/a	21	23	7	9	7
2907993	PROB	n/a	LTP310	ltpFR2	0	n/a	n/a	n/a	21	23	6	8	9
2910078	PROB	n/a	LTP310	ltpFR2	0	n/a	n/a	n/a	21	11	6	2	3
2911880	PROB	n/a	LTP310	ltpFR2	0	n/a	n/a	n/a	21	16	5	5	6
2913399	PROB	n/a	LTP310	ltpFR2	0	n/a	n/a	n/a	21	13	3	1	9
2916714	STOP	n/a	LTP310	ltpFR2	0	n/a	n/a	n/a	21	n/a	n/a	n/a	n/a
2918604	REC_START	n/a	LTP310	ltpFR2	0	13	n/a	n/a	n/a	n/a	0	0	0
2919672	REC_WORD	wordpools/wasnorm_wordpool_576.txt	LTP310	ltpFR2	0	13	SUSPECT	1415	n/a	n/a	0	0	0
2921375	REC_WORD	wordpools/wasnorm_wordpool_576.txt	LTP310	ltpFR2	0	13	CHEMIST	292	n/a	n/a	0	0	0
2922823	REC_WORD	wordpools/wasnorm_wordpool_576.txt	LTP310	ltpFR2	0	13	STAR	1373	n/a	n/a	0	0	0
2924581	REC_WORD	wordpools/wasnorm_wordpool_576.txt	LTP310	ltpFR2	0	13	COMET	353	n/a	n/a	0	0	0
2926263	REC_WORD	wordpools/wasnorm_wordpool_576.txt	LTP310	ltpFR2	0	13	PLAZA	1088	n/a	n/a	0	0	0
2927911	REC_WORD	wordpools/wasnorm_wordpool_576.txt	LTP310	ltpFR2	0	13	GROUND	666	n/a	n/a	0	0	0
2929579	REC_WORD	wordpools/wasnorm_wordpool_576.txt	LTP310	ltpFR2	0	13	TILE	1468	n/a	n/a	0	0	0
2931383	REC_WORD	wordpools/wasnorm_wordpool_576.txt	LTP310	ltpFR2	0	13	BRICK	172	n/a	n/a	0	0	0
2933010	REC_WORD	wordpools/wasnorm_wordpool_576.txt	LTP310	ltpFR2	0	13	HARP	689	n/a	n/a	0	0	0
2935029	REC_WORD	wordpools/wasnorm_wordpool_576.txt	LTP310	ltpFR2	0	13	GUITAR	670	n/a	n/a	0	0	0
2936812	REC_WORD	wordpools/wasnorm_wordpool_576.txt	LTP310	ltpFR2	0	13	TERMITE	1451	n/a	n/a	0	0	0
2939147	REC_WORD	wordpools/wasnorm_wordpool_576.txt	LTP310	ltpFR2	0	13	SHERIFF	1284	n/a	n/a	0	0	0
2942891	REC_WORD	wordpools/wasnorm_wordpool_576.txt	LTP310	ltpFR2	0	13	SAUSAGE	1238	n/a	n/a	0	0	0
2945288	REC_WORD	wordpools/wasnorm_wordpool_576.txt	LTP310	ltpFR2	0	13	FRUIT	610	n/a	n/a	0	0	0
2950408	REC_WORD	wordpools/wasnorm_wordpool_576.txt	LTP310	ltpFR2	0	13	BLENDER	136	n/a	n/a	0	0	0
2961513	REC_WORD	wordpools/wasnorm_wordpool_576.txt	LTP310	ltpFR2	0	13	RECORD	1176	n/a	n/a	0	0	0
2963464	REC_WORD	wordpools/wasnorm_wordpool_576.txt	LTP310	ltpFR2	0	13	GIFT	635	n/a	n/a	0	0	0
2965509	REC_WORD	wordpools/wasnorm_wordpool_576.txt	LTP310	ltpFR2	0	13	SHOULDER	1294	n/a	n/a	0	0	0
2967148	REC_WORD	wordpools/wasnorm_wordpool_576.txt	LTP310	ltpFR2	0	13	SLIME	1327	n/a	n/a	0	0	0
3009231	DISTRACTOR	n/a	LTP310	ltpFR2	0	14	n/a	n/a	n/a	n/a	0	0	0
3009231	START	n/a	LTP310	ltpFR2	0	n/a	n/a	n/a	22	n/a	n/a	n/a	n/a
3009265	PROB	n/a	LTP310	ltpFR2	0	n/a	n/a	n/a	22	5	1	3	1
3011300	PROB	n/a	LTP310	ltpFR2	0	n/a	n/a	n/a	22	10	3	2	5
3012968	PROB	n/a	LTP310	ltpFR2	0	n/a	n/a	n/a	22	16	2	9	5
3014920	PROB	n/a	LTP310	ltpFR2	0	n/a	n/a	n/a	22	19	9	3	7
3016288	PROB	n/a	LTP310	ltpFR2	0	n/a	n/a	n/a	22	21	5	8	8
3018172	PROB	n/a	LTP310	ltpFR2	0	n/a	n/a	n/a	22	13	9	2	2
3020392	PROB	n/a	LTP310	ltpFR2	0	n/a	n/a	n/a	22	15	6	5	4
3022860	PROB	n/a	LTP310	ltpFR2	0	n/a	n/a	n/a	22	22	8	8	6
3024895	PROB	n/a	LTP310	ltpFR2	0	n/a	n/a	n/a	22	11	2	1	8
3026598	PROB	n/a	LTP310	ltpFR2	0	n/a	n/a	n/a	22	20	7	5	8
3028633	PROB	n/a	LTP310	ltpFR2	0	n/a	n/a	n/a	22	20	6	5	9
3033231	STOP	n/a	LTP310	ltpFR2	0	n/a	n/a	n/a	22	n/a	n/a	n/a	n/a
3034371	WORD	wordpools/wasnorm_wordpool_576.txt	LTP310	ltpFR2	0	14	MAMMAL	861	n/a	n/a	0	0	0
3036872	WORD	wordpools/wasnorm_wordpool_576.txt	LTP310	ltpFR2	0	14	MATCH	878	n/a	n/a	0	0	0
3039426	WORD	wordpools/wasnorm_wordpool_576.txt	LTP310	ltpFR2	0	14	CELLAR	267	n/a	n/a	0	0	0
3042160	WORD	wordpools/wasnorm_wordpool_576.txt	LTP310	ltpFR2	0	14	LACE	792	n/a	n/a	0	0	0
3044896	WORD	wordpools/wasnorm_wordpool_576.txt	LTP310	ltpFR2	0	14	OYSTER	995	n/a	n/a	0	0	0
3047399	WORD	wordpools/wasnorm_wordpool_576.txt	LTP310	ltpFR2	0	14	SEAFOOD	1260	n/a	n/a	0	0	0
3050201	WORD	wordpools/wasnorm_wordpool_576.txt	LTP310	ltpFR2	0	14	TWEEZERS	1526	n/a	n/a	0	0	0
3052903	WORD	wordpools/wasnorm_wordpool_576.txt	LTP310	ltpFR2	0	14	FRAME	600	n/a	n/a	0	0	0
3055556	WORD	wordpools/wasnorm_wordpool_576.txt	LTP310	ltpFR2	0	14	MARINE	869	n/a	n/a	0	0	0
3058375	WORD	wordpools/wasnorm_wordpool_576.txt	LTP310	ltpFR2	0	14	DIVER	476	n/a	n/a	0	0	0
3061094	WORD	wordpools/wasnorm_wordpool_576.txt	LTP310	ltpFR2	0	14	GRAVE	658	n/a	n/a	0	0	0
3063829	WORD	wordpools/wasnorm_wordpool_576.txt	LTP310	ltpFR2	0	14	PORTRAIT	1111	n/a	n/a	0	0	0
3066382	WORD	wordpools/wasnorm_wordpool_576.txt	LTP310	ltpFR2	0	14	FUNGUS	614	n/a	n/a	0	0	0
3069000	WORD	wordpools/wasnorm_wordpool_576.txt	LTP310	ltpFR2	0	14	DRUG	501	n/a	n/a	0	0	0
3071787	WORD	wordpools/wasnorm_wordpool_576.txt	LTP310	ltpFR2	0	14	WRENCH	1625	n/a	n/a	0	0	0
3074406	WORD	wordpools/wasnorm_wordpool_576.txt	LTP310	ltpFR2	0	14	SHORTS	1293	n/a	n/a	0	0	0
3077041	WORD	wordpools/wasnorm_wordpool_576.txt	LTP310	ltpFR2	0	14	SCARF	1246	n/a	n/a	0	0	0
3079594	WORD	wordpools/wasnorm_wordpool_576.txt	LTP310	ltpFR2	0	14	SCRIBBLE	1256	n/a	n/a	0	0	0
3082062	WORD	wordpools/wasnorm_wordpool_576.txt	LTP310	ltpFR2	0	14	RUG	1215	n/a	n/a	0	0	0
3084864	WORD	wordpools/wasnorm_wordpool_576.txt	LTP310	ltpFR2	0	14	GAVEL	627	n/a	n/a	0	0	0
3087351	WORD	wordpools/wasnorm_wordpool_576.txt	LTP310	ltpFR2	0	14	PUPPY	1144	n/a	n/a	0	0	0
3090052	WORD	wordpools/wasnorm_wordpool_576.txt	LTP310	ltpFR2	0	14	LASER	801	n/a	n/a	0	0	0
3092755	WORD	wordpools/wasnorm_wordpool_576.txt	LTP310	ltpFR2	0	14	JURY	766	n/a	n/a	0	0	0
3095240	WORD	wordpools/wasnorm_wordpool_576.txt	LTP310	ltpFR2	0	14	PARENT	1013	n/a	n/a	0	0	0
3096858	START	n/a	LTP310	ltpFR2	0	n/a	n/a	n/a	23	n/a	n/a	n/a	n/a
3097693	DISTRACTOR	n/a	LTP310	ltpFR2	0	14	n/a	n/a	n/a	n/a	0	0	0
3097710	PROB	n/a	LTP310	ltpFR2	0	n/a	n/a	n/a	23	6	2	3	1
3099877	PROB	n/a	LTP310	ltpFR2	0	n/a	n/a	n/a	23	13	8	2	3
3101446	PROB	n/a	LTP310	ltpFR2	0	n/a	n/a	n/a	23	12	3	5	4
3103247	PROB	n/a	LTP310	ltpFR2	0	n/a	n/a	n/a	23	11	2	1	8
3105400	PROB	n/a	LTP310	ltpFR2	0	n/a	n/a	n/a	23	15	6	2	7
3107250	PROB	n/a	LTP310	ltpFR2	0	n/a	n/a	n/a	23	9	6	1	2
3109252	PROB	n/a	LTP310	ltpFR2	0	n/a	n/a	n/a	23	12	7	3	2
3110755	PROB	n/a	LTP310	ltpFR2	0	n/a	n/a	n/a	23	18	2	8	8
3112255	PROB	n/a	LTP310	ltpFR2	0	n/a	n/a	n/a	23	13	2	9	2
3114206	PROB	n/a	LTP310	ltpFR2	0	n/a	n/a	n/a	23	20	8	4	8
3118026	PROB	n/a	LTP310	ltpFR2	0	n/a	n/a	n/a	23	14	5	2	7
3119707	STOP	n/a	LTP310	ltpFR2	0	n/a	n/a	n/a	23	n/a	n/a	n/a	n/a
3122665	REC_START	n/a	LTP310	ltpFR2	0	14	n/a	n/a	n/a	n/a	0	0	0
3124949	REC_WORD	wordpools/wasnorm_wordpool_576.txt	LTP310	ltpFR2	0	14	MAMMAL	861	n/a	n/a	0	0	0
3126304	REC_WORD	wordpools/wasnorm_wordpool_576.txt	LTP310	ltpFR2	0	14	DIVER	476	n/a	n/a	0	0	0
3127466	REC_WORD	wordpools/wasnorm_wordpool_576.txt	LTP310	ltpFR2	0	14	FRAME	600	n/a	n/a	0	0	0
3129100	REC_WORD	wordpools/wasnorm_wordpool_576.txt	LTP310	ltpFR2	0	14	PORTRAIT	1111	n/a	n/a	0	0	0
3130598	REC_WORD	wordpools/wasnorm_wordpool_576.txt	LTP310	ltpFR2	0	14	SCRIBBLE	1256	n/a	n/a	0	0	0
3132412	REC_WORD	wordpools/wasnorm_wordpool_576.txt	LTP310	ltpFR2	0	14	RUG	1215	n/a	n/a	0	0	0
3134887	REC_WORD	wordpools/wasnorm_wordpool_576.txt	LTP310	ltpFR2	0	14	SCARF	1246	n/a	n/a	0	0	0
3136429	REC_WORD	wordpools/wasnorm_wordpool_576.txt	LTP310	ltpFR2	0	14	SHORTS	1293	n/a	n/a	0	0	0
3163040	REC_WORD	wordpools/wasnorm_wordpool_576.txt	LTP310	ltpFR2	0	14	FRAME	600	n/a	n/a	0	0	0
3213276	WORD	wordpools/wasnorm_wordpool_576.txt	LTP310	ltpFR2	0	15	WITNESS	1618	n/a	n/a	0	0	0
3215929	WORD	wordpools/wasnorm_wordpool_576.txt	LTP310	ltpFR2	0	15	GRIZZLY	662	n/a	n/a	0	0	0
3218599	WORD	wordpools/wasnorm_wordpool_576.txt	LTP310	ltpFR2	0	15	ICEBERG	731	n/a	n/a	0	0	0
3221133	WORD	wordpools/wasnorm_wordpool_576.txt	LTP310	ltpFR2	0	15	RATTLE	1170	n/a	n/a	0	0	0
3223586	WORD	wordpools/wasnorm_wordpool_576.txt	LTP310	ltpFR2	0	15	HORNET	718	n/a	n/a	0	0	0
3226171	WORD	wordpools/wasnorm_wordpool_576.txt	LTP310	ltpFR2	0	15	TOURIST	1488	n/a	n/a	0	0	0
3228990	WORD	wordpools/wasnorm_wordpool_576.txt	LTP310	ltpFR2	0	15	SUITCASE	1403	n/a	n/a	0	0	0
3231543	WORD	wordpools/wasnorm_wordpool_576.txt	LTP310	ltpFR2	0	15	HATCHET	691	n/a	n/a	0	0	0
3234144	WORD	wordpools/wasnorm_wordpool_576.txt	LTP310	ltpFR2	0	15	CONCERT	360	n/a	n/a	0	0	0
3236698	WORD	wordpools/wasnorm_wordpool_576.txt	LTP310	ltpFR2	0	15	MUSTARD	935	n/a	n/a	0	0	0
3239400	WORD	wordpools/wasnorm_wordpool_576.txt	LTP310	ltpFR2	0	15	SKIRT	1319	n/a	n/a	0	0	0
3242102	WORD	wordpools/wasnorm_wordpool_576.txt	LTP310	ltpFR2	0	15	PLAID	1080	n/a	n/a	0	0	0
3244571	WORD	wordpools/wasnorm_wordpool_576.txt	LTP310	ltpFR2	0	15	HOUND	724	n/a	n/a	0	0	0
3247390	WORD	wordpools/wasnorm_wordpool_576.txt	LTP310	ltpFR2	0	15	BUNNY	198	n/a	n/a	0	0	0
3250075	WORD	wordpools/wasnorm_wordpool_576.txt	LTP310	ltpFR2	0	15	PACKAGE	997	n/a	n/a	0	0	0
3252578	WORD	wordpools/wasnorm_wordpool_576.txt	LTP310	ltpFR2	0	15	HONEY	713	n/a	n/a	0	0	0
3255246	WORD	wordpools/wasnorm_wordpool_576.txt	LTP310	ltpFR2	0	15	CONTRACT	368	n/a	n/a	0	0	0
3258032	WORD	wordpools/wasnorm_wordpool_576.txt	LTP310	ltpFR2	0	15	TAXI	1438	n/a	n/a	0	0	0
3260552	WORD	wordpools/wasnorm_wordpool_576.txt	LTP310	ltpFR2	0	15	BUCKET	184	n/a	n/a	0	0	0
3263203	WORD	wordpools/wasnorm_wordpool_576.txt	LTP310	ltpFR2	0	15	LAMP	798	n/a	n/a	0	0	0
3265972	WORD	wordpools/wasnorm_wordpool_576.txt	LTP310	ltpFR2	0	15	COMPASS	358	n/a	n/a	0	0	0
3268492	WORD	wordpools/wasnorm_wordpool_576.txt	LTP310	ltpFR2	0	15	FOX	598	n/a	n/a	0	0	0
3271311	WORD	wordpools/wasnorm_wordpool_576.txt	LTP310	ltpFR2	0	15	SPARROW	1347	n/a	n/a	0	0	0
3274063	WORD	wordpools/wasnorm_wordpool_576.txt	LTP310	ltpFR2	0	15	SCARECROW	1245	n/a	n/a	0	0	0
3275682	START	n/a	LTP310	ltpFR2	0	n/a	n/a	n/a	24	n/a	n/a	n/a	n/a
3276499	DISTRACTOR	n/a	LTP310	ltpFR2	0	15	n/a	n/a	n/a	n/a	0	0	0
3276516	PROB	n/a	LTP310	ltpFR2	0	n/a	n/a	n/a	24	22	6	7	9
3279117	PROB	n/a	LTP310	ltpFR2	0	n/a	n/a	n/a	24	21	9	4	8
3281754	PROB	n/a	LTP310	ltpFR2	0	n/a	n/a	n/a	24	19	9	8	2
3283439	PROB	n/a	LTP310	ltpFR2	0	n/a	n/a	n/a	24	23	6	9	8
3285507	PROB	n/a	LTP310	ltpFR2	0	n/a	n/a	n/a	24	18	7	2	9
3287359	PROB	n/a	LTP310	ltpFR2	0	n/a	n/a	n/a	24	25	8	8	9
3289259	PROB	n/a	LTP310	ltpFR2	0	n/a	n/a	n/a	24	18	4	7	7
3291912	PROB	n/a	LTP310	ltpFR2	0	n/a	n/a	n/a	24	9	3	2	4
3293547	PROB	n/a	LTP310	ltpFR2	0	n/a	n/a	n/a	24	15	5	4	6
3295583	PROB	n/a	LTP310	ltpFR2	0	n/a	n/a	n/a	24	11	5	5	1
3296999	PROB	n/a	LTP310	ltpFR2	0	n/a	n/a	n/a	24	22	8	6	8
3299305	STOP	n/a	LTP310	ltpFR2	0	n/a	n/a	n/a	24	n/a	n/a	n/a	n/a
3301588	REC_START	n/a	LTP310	ltpFR2	0	15	n/a	n/a	n/a	n/a	0	0	0
3302948	REC_WORD	wordpools/wasnorm_wordpool_576.txt	LTP310	ltpFR2	0	15	SCARECROW	1245	n/a	n/a	0	0	0
3304813	REC_WORD	wordpools/wasnorm_wordpool_576.txt	LTP310	ltpFR2	0	15	TOURIST	1488	n/a	n/a	0	0	0
3306560	REC_WORD	wordpools/wasnorm_wordpool_576.txt	LTP310	ltpFR2	0	15	WITNESS	1618	n/a	n/a	0	0	0
3308015	REC_WORD	wordpools/wasnorm_wordpool_576.txt	LTP310	ltpFR2	0	15	GRIZZLY	662	n/a	n/a	0	0	0
3310989	REC_WORD	wordpools/wasnorm_wordpool_576.txt	LTP310	ltpFR2	0	15	HATCHET	691	n/a	n/a	0	0	0
3314756	REC_WORD	wordpools/wasnorm_wordpool_576.txt	LTP310	ltpFR2	0	15	LUGGAGE	847	n/a	n/a	0	0	0
3316123	REC_WORD	wordpools/wasnorm_wordpool_576.txt	LTP310	ltpFR2	0	15	BUCKET	184	n/a	n/a	0	0	0
3317278	REC_WORD	wordpools/wasnorm_wordpool_576.txt	LTP310	ltpFR2	0	15	LAMP	798	n/a	n/a	0	0	0
3320129	REC_WORD	wordpools/wasnorm_wordpool_576.txt	LTP310	ltpFR2	0	15	PACKAGE	997	n/a	n/a	0	0	0
3321455	REC_WORD	wordpools/wasnorm_wordpool_576.txt	LTP310	ltpFR2	0	15	HONEY	713	n/a	n/a	0	0	0
3324716	REC_WORD	wordpools/wasnorm_wordpool_576.txt	LTP310	ltpFR2	0	15	HOUND	724	n/a	n/a	0	0	0
3326110	REC_WORD	wordpools/wasnorm_wordpool_576.txt	LTP310	ltpFR2	0	15	BUNNY	198	n/a	n/a	0	0	0
3327386	REC_WORD	wordpools/wasnorm_wordpool_576.txt	LTP310	ltpFR2	0	15	FOX	598	n/a	n/a	0	0	0
3331772	REC_WORD	wordpools/wasnorm_wordpool_576.txt	LTP310	ltpFR2	0	15	CONTRACT	368	n/a	n/a	0	0	0
3333658	REC_WORD	wordpools/wasnorm_wordpool_576.txt	LTP310	ltpFR2	0	15	TAXI	1438	n/a	n/a	0	0	0
3340541	REC_WORD	wordpools/wasnorm_wordpool_576.txt	LTP310	ltpFR2	0	15	ICEBERG	731	n/a	n/a	0	0	0
3353017	REC_WORD	wordpools/wasnorm_wordpool_576.txt	LTP310	ltpFR2	0	15	MUSTARD	935	n/a	n/a	0	0	0
3354594	REC_WORD	wordpools/wasnorm_wordpool_576.txt	LTP310	ltpFR2	0	15	PLAID	1080	n/a	n/a	0	0	0
3355906	REC_WORD	wordpools/wasnorm_wordpool_576.txt	LTP310	ltpFR2	0	15	SKIRT	1319	n/a	n/a	0	0	0
3392049	DISTRACTOR	n/a	LTP310	ltpFR2	0	16	n/a	n/a	n/a	n/a	0	0	0
3392049	START	n/a	LTP310	ltpFR2	0	n/a	n/a	n/a	25	n/a	n/a	n/a	n/a
3392066	PROB	n/a	LTP310	ltpFR2	0	n/a	n/a	n/a	25	6	3	2	1
3394001	PROB	n/a	LTP310	ltpFR2	0	n/a	n/a	n/a	25	20	6	6	8
3397571	PROB	n/a	LTP310	ltpFR2	0	n/a	n/a	n/a	25	7	1	2	4
3399923	PROB	n/a	LTP310	ltpFR2	0	n/a	n/a	n/a	25	17	6	6	5
3402810	PROB	n/a	LTP310	ltpFR2	0	n/a	n/a	n/a	25	12	3	2	7
3404661	PROB	n/a	LTP310	ltpFR2	0	n/a	n/a	n/a	25	14	3	6	5
3406446	PROB	n/a	LTP310	ltpFR2	0	n/a	n/a	n/a	25	21	8	4	9
3408464	PROB	n/a	LTP310	ltpFR2	0	n/a	n/a	n/a	25	23	7	9	7
3410265	PROB	n/a	LTP310	ltpFR2	0	n/a	n/a	n/a	25	16	1	6	9
3412117	PROB	n/a	LTP310	ltpFR2	0	n/a	n/a	n/a	25	10	2	5	3
3416049	STOP	n/a	LTP310	ltpFR2	0	n/a	n/a	n/a	25	n/a	n/a	n/a	n/a
3416954	WORD	wordpools/wasnorm_wordpool_576.txt	LTP310	ltpFR2	0	16	PIMPLE	1071	n/a	n/a	0	0	0
3419707	WORD	wordpools/wasnorm_wordpool_576.txt	LTP310	ltpFR2	0	16	BUTCHER	203	n/a	n/a	0	0	0
3422460	WORD	wordpools/wasnorm_wordpool_576.txt	LTP310	ltpFR2	0	16	AIRPLANE	12	n/a	n/a	0	0	0
3425145	WORD	wordpools/wasnorm_wordpool_576.txt	LTP310	ltpFR2	0	16	SKETCH	1315	n/a	n/a	0	0	0
3427581	WORD	wordpools/wasnorm_wordpool_576.txt	LTP310	ltpFR2	0	16	STATUE	1374	n/a	n/a	0	0	0
3430367	WORD	wordpools/wasnorm_wordpool_576.txt	LTP310	ltpFR2	0	16	LIGHTNING	820	n/a	n/a	0	0	0
3432851	WORD	wordpools/wasnorm_wordpool_576.txt	LTP310	ltpFR2	0	16	PISTON	1076	n/a	n/a	0	0	0
3435621	WORD	wordpools/wasnorm_wordpool_576.txt	LTP310	ltpFR2	0	16	BRAKE	166	n/a	n/a	0	0	0
3438139	WORD	wordpools/wasnorm_wordpool_576.txt	LTP310	ltpFR2	0	16	FRIEND	606	n/a	n/a	0	0	0
3440908	WORD	wordpools/wasnorm_wordpool_576.txt	LTP310	ltpFR2	0	16	SCALPEL	1243	n/a	n/a	0	0	0
3443462	WORD	wordpools/wasnorm_wordpool_576.txt	LTP310	ltpFR2	0	16	PRIMATE	1123	n/a	n/a	0	0	0
3446113	WORD	wordpools/wasnorm_wordpool_576.txt	LTP310	ltpFR2	0	16	WIDOW	1608	n/a	n/a	0	0	0
3448700	WORD	wordpools/wasnorm_wordpool_576.txt	LTP310	ltpFR2	0	16	CEILING	265	n/a	n/a	0	0	0
3451352	WORD	wordpools/wasnorm_wordpool_576.txt	LTP310	ltpFR2	0	16	JEANS	752	n/a	n/a	0	0	0
3454170	WORD	wordpools/wasnorm_wordpool_576.txt	LTP310	ltpFR2	0	16	ASIA	46	n/a	n/a	0	0	0
3456723	WORD	wordpools/wasnorm_wordpool_576.txt	LTP310	ltpFR2	0	16	EUROPE	541	n/a	n/a	0	0	0
3459326	WORD	wordpools/wasnorm_wordpool_576.txt	LTP310	ltpFR2	0	16	TEMPLE	1448	n/a	n/a	0	0	0
3461811	WORD	wordpools/wasnorm_wordpool_576.txt	LTP310	ltpFR2	0	16	MISTER	901	n/a	n/a	0	0	0
3464480	WORD	wordpools/wasnorm_wordpool_576.txt	LTP310	ltpFR2	0	16	ZIPPER	1636	n/a	n/a	0	0	0
3466965	WORD	wordpools/wasnorm_wordpool_576.txt	LTP310	ltpFR2	0	16	SLIDE	1326	n/a	n/a	0	0	0
3469585	WORD	wordpools/wasnorm_wordpool_576.txt	LTP310	ltpFR2	0	16	SPOON	1357	n/a	n/a	0	0	0
3472303	WORD	wordpools/wasnorm_wordpool_576.txt	LTP310	ltpFR2	0	16	STAMP	1370	n/a	n/a	0	0	0
3475105	WORD	wordpools/wasnorm_wordpool_576.txt	LTP310	ltpFR2	0	16	GIRL	637	n/a	n/a	0	0	0
3477775	WORD	wordpools/wasnorm_wordpool_576.txt	LTP310	ltpFR2	0	16	ARMY	39	n/a	n/a	0	0	0
3479393	START	n/a	LTP310	ltpFR2	0	n/a	n/a	n/a	26	n/a	n/a	n/a	n/a
3480197	DISTRACTOR	n/a	LTP310	ltpFR2	0	16	n/a	n/a	n/a	n/a	0	0	0
3480209	PROB	n/a	LTP310	ltpFR2	0	n/a	n/a	n/a	26	13	8	3	2
3482412	PROB	n/a	LTP310	ltpFR2	0	n/a	n/a	n/a	26	16	5	3	8
3484514	PROB	n/a	LTP310	ltpFR2	0	n/a	n/a	n/a	26	19	8	9	2
3486198	PROB	n/a	LTP310	ltpFR2	0	n/a	n/a	n/a	26	14	4	9	1
3488150	PROB	n/a	LTP310	ltpFR2	0	n/a	n/a	n/a	26	19	9	4	6
3489851	PROB	n/a	LTP310	ltpFR2	0	n/a	n/a	n/a	26	21	7	7	7
3491370	PROB	n/a	LTP310	ltpFR2	0	n/a	n/a	n/a	26	13	7	2	4
3493221	PROB	n/a	LTP310	ltpFR2	0	n/a	n/a	n/a	26	13	1	8	4
3495173	PROB	n/a	LTP310	ltpFR2	0	n/a	n/a	n/a	26	7	1	5	1
3497091	PROB	n/a	LTP310	ltpFR2	0	n/a	n/a	n/a	26	8	2	2	4
3498976	PROB	n/a	LTP310	ltpFR2	0	n/a	n/a	n/a	26	17	7	6	4
3500877	PROB	n/a	LTP310	ltpFR2	0	n/a	n/a	n/a	26	15	5	9	1
3502266	STOP	n/a	LTP310	ltpFR2	0	n/a	n/a	n/a	26	n/a	n/a	n/a	n/a
3505282	REC_START	n/a	LTP310	ltpFR2	0	16	n/a	n/a	n/a	n/a	0	0	0
3507111	REC_WORD	wordpools/wasnorm_wordpool_576.txt	LTP310	ltpFR2	0	16	WIDOW	1608	n/a	n/a	0	0	0
3508481	REC_WORD	wordpools/wasnorm_wordpool_576.txt	LTP310	ltpFR2	0	16	GIRL	637	n/a	n/a	0	0	0
3509786	REC_WORD	wordpools/wasnorm_wordpool_576.txt	LTP310	ltpFR2	0	16	ARMY	39	n/a	n/a	0	0	0
3511441	REC_WORD	wordpools/wasnorm_wordpool_576.txt	LTP310	ltpFR2	0	16	BUTCHER	203	n/a	n/a	0	0	0
3512900	REC_WORD	wordpools/wasnorm_wordpool_576.txt	LTP310	ltpFR2	0	16	PIMPLE	1071	n/a	n/a	0	0	0
3514187	REC_WORD	wordpools/wasnorm_wordpool_576.txt	LTP310	ltpFR2	0	16	SKETCH	1315	n/a	n/a	0	0	0
3515770	REC_WORD	wordpools/wasnorm_wordpool_576.txt	LTP310	ltpFR2	0	16	STATUE	1374	n/a	n/a	0	0	0
3517379	REC_WORD	wordpools/wasnorm_wordpool_576.txt	LTP310	ltpFR2	0	16	LIGHTNING	820	n/a	n/a	0	0	0
3519580	REC_WORD	wordpools/wasnorm_wordpool_576.txt	LTP310	ltpFR2	0	16	PISTON	1076	n/a	n/a	0	0	0
3522583	REC_WORD	wordpools/wasnorm_wordpool_576.txt	LTP310	ltpFR2	0	16	SCALPEL	1243	n/a	n/a	0	0	0
3524369	REC_WORD	wordpools/wasnorm_wordpool_576.txt	LTP310	ltpFR2	0	16	FRIEND	606	n/a	n/a	0	0	0
3525752	REC_WORD	wordpools/wasnorm_wordpool_576.txt	LTP310	ltpFR2	0	16	SPOON	1357	n/a	n/a	0	0	0
3527410	REC_WORD	wordpools/wasnorm_wordpool_576.txt	LTP310	ltpFR2	0	16	SLIDE	1326	n/a	n/a	0	0	0
3529148	REC_WORD	wordpools/wasnorm_wordpool_576.txt	LTP310	ltpFR2	0	16	CEILING	265	n/a	n/a	0	0	0
3531030	REC_WORD	wordpools/wasnorm_wordpool_576.txt	LTP310	ltpFR2	0	16	JEANS	752	n/a	n/a	0	0	0
3532812	REC_WORD	wordpools/wasnorm_wordpool_576.txt	LTP310	ltpFR2	0	16	ASIA	46	n/a	n/a	0	0	0
3534402	REC_WORD	wordpools/wasnorm_wordpool_576.txt	LTP310	ltpFR2	0	16	EUROPE	541	n/a	n/a	0	0	0
3536002	REC_WORD	wordpools/wasnorm_wordpool_576.txt	LTP310	ltpFR2	0	16	TEMPLE	1448	n/a	n/a	0	0	0
3540117	REC_WORD	wordpools/wasnorm_wordpool_576.txt	LTP310	ltpFR2	0	16	PRIMATE	1123	n/a	n/a	0	0	0
3545515	REC_WORD_VV	wordpools/wasnorm_wordpool_576.txt	LTP310	ltpFR2	0	16	<>	-1	n/a	n/a	0	0	0
3552881	REC_WORD	wordpools/wasnorm_wordpool_576.txt	LTP310	ltpFR2	0	16	AIRPLANE	12	n/a	n/a	0	0	0
3574869	REC_WORD	wordpools/wasnorm_wordpool_576.txt	LTP310	ltpFR2	0	16	FRIEND	606	n/a	n/a	0	0	0
3581816	REST_REWET	n/a	LTP310	ltpFR2	0	16	n/a	n/a	n/a	n/a	0	0	0
3772982	WORD	wordpools/wasnorm_wordpool_576.txt	LTP310	ltpFR2	0	17	NOTEBOOK	959	n/a	n/a	0	0	0
3775735	WORD	wordpools/wasnorm_wordpool_576.txt	LTP310	ltpFR2	0	17	TROUT	1511	n/a	n/a	0	0	0
3778203	WORD	wordpools/wasnorm_wordpool_576.txt	LTP310	ltpFR2	0	17	THREAD	1460	n/a	n/a	0	0	0
3780955	WORD	wordpools/wasnorm_wordpool_576.txt	LTP310	ltpFR2	0	17	SPOOL	1356	n/a	n/a	0	0	0
3783609	WORD	wordpools/wasnorm_wordpool_576.txt	LTP310	ltpFR2	0	17	SILK	1307	n/a	n/a	0	0	0
3786444	WORD	wordpools/wasnorm_wordpool_576.txt	LTP310	ltpFR2	0	17	OZONE	996	n/a	n/a	0	0	0
3789262	WORD	wordpools/wasnorm_wordpool_576.txt	LTP310	ltpFR2	0	17	WORLD	1622	n/a	n/a	0	0	0
3791898	WORD	wordpools/wasnorm_wordpool_576.txt	LTP310	ltpFR2	0	17	JUNGLE	764	n/a	n/a	0	0	0
3794418	WORD	wordpools/wasnorm_wordpool_576.txt	LTP310	ltpFR2	0	17	CLOUD	328	n/a	n/a	0	0	0
3796869	WORD	wordpools/wasnorm_wordpool_576.txt	LTP310	ltpFR2	0	17	SIDEWALK	1303	n/a	n/a	0	0	0
3799406	WORD	wordpools/wasnorm_wordpool_576.txt	LTP310	ltpFR2	0	17	GRAVEL	659	n/a	n/a	0	0	0
3801940	WORD	wordpools/wasnorm_wordpool_576.txt	LTP310	ltpFR2	0	17	CLAMP	316	n/a	n/a	0	0	0
3804410	WORD	wordpools/wasnorm_wordpool_576.txt	LTP310	ltpFR2	0	17	BOUQUET	157	n/a	n/a	0	0	0
3807095	WORD	wordpools/wasnorm_wordpool_576.txt	LTP310	ltpFR2	0	17	JOURNAL	760	n/a	n/a	0	0	0
3809615	WORD	wordpools/wasnorm_wordpool_576.txt	LTP310	ltpFR2	0	17	LAGOON	795	n/a	n/a	0	0	0
3812149	WORD	wordpools/wasnorm_wordpool_576.txt	LTP310	ltpFR2	0	17	OUTDOORS	987	n/a	n/a	0	0	0
3814652	WORD	wordpools/wasnorm_wordpool_576.txt	LTP310	ltpFR2	0	17	DAISY	435	n/a	n/a	0	0	0
3817104	WORD	wordpools/wasnorm_wordpool_576.txt	LTP310	ltpFR2	0	17	THRONE	1461	n/a	n/a	0	0	0
3819856	WORD	wordpools/wasnorm_wordpool_576.txt	LTP310	ltpFR2	0	17	CRAYON	401	n/a	n/a	0	0	0
3822509	WORD	wordpools/wasnorm_wordpool_576.txt	LTP310	ltpFR2	0	17	REPORT	1184	n/a	n/a	0	0	0
3825277	WORD	wordpools/wasnorm_wordpool_576.txt	LTP310	ltpFR2	0	17	CRIB	407	n/a	n/a	0	0	0
3827863	WORD	wordpools/wasnorm_wordpool_576.txt	LTP310	ltpFR2	0	17	LUNCH	849	n/a	n/a	0	0	0
3830299	WORD	wordpools/wasnorm_wordpool_576.txt	LTP310	ltpFR2	0	17	CRAB	397	n/a	n/a	0	0	0
3832834	WORD	wordpools/wasnorm_wordpool_576.txt	LTP310	ltpFR2	0	17	MARSH	874	n/a	n/a	0	0	0
3834453	START	n/a	LTP310	ltpFR2	0	n/a	n/a	n/a	27	n/a	n/a	n/a	n/a
3835575	DISTRACTOR	n/a	LTP310	ltpFR2	0	17	n/a	n/a	n/a	n/a	0	0	0
3835587	PROB	n/a	LTP310	ltpFR2	0	n/a	n/a	n/a	27	10	7	1	2
3839424	PROB	n/a	LTP310	ltpFR2	0	n/a	n/a	n/a	27	14	8	4	2
3841008	PROB	n/a	LTP310	ltpFR2	0	n/a	n/a	n/a	27	6	3	2	1
3842477	PROB	n/a	LTP310	ltpFR2	0	n/a	n/a	n/a	27	11	2	8	1
3843795	PROB	n/a	LTP310	ltpFR2	0	n/a	n/a	n/a	27	13	2	3	8
3846380	PROB	n/a	LTP310	ltpFR2	0	n/a	n/a	n/a	27	15	5	4	6
3848948	PROB	n/a	LTP310	ltpFR2	0	n/a	n/a	n/a	27	16	5	7	4
3851368	PROB	n/a	LTP310	ltpFR2	0	n/a	n/a	n/a	27	10	4	3	3
3853035	PROB	n/a	LTP310	ltpFR2	0	n/a	n/a	n/a	27	12	5	1	6
3855237	PROB	n/a	LTP310	ltpFR2	0	n/a	n/a	n/a	27	8	1	3	4
3858453	STOP	n/a	LTP310	ltpFR2	0	n/a	n/a	n/a	27	n/a	n/a	n/a	n/a
3860242	REC_START	n/a	LTP310	ltpFR2	0	17	n/a	n/a	n/a	n/a	0	0	0
3862042	REC_WORD	wordpools/wasnorm_wordpool_576.txt	LTP310	ltpFR2	0	17	LAGOON	795	n/a	n/a	0	0	0
3863349	REC_WORD	wordpools/wasnorm_wordpool_576.txt	LTP310	ltpFR2	0	17	MARSH	874	n/a	n/a	0	0	0
3865015	REC_WORD	wordpools/wasnorm_wordpool_576.txt	LTP310	ltpFR2	0	17	CRAYON	401	n/a	n/a	0	0	0
3866205	REC_WORD	wordpools/wasnorm_wordpool_576.txt	LTP310	ltpFR2	0	17	FOREST	593	n/a	n/a	0	0	0
3867854	REC_WORD	wordpools/wasnorm_wordpool_576.txt	LTP310	ltpFR2	0	17	NOTEBOOK	959	n/a	n/a	0	0	0
3869560	REC_WORD	wordpools/wasnorm_wordpool_576.txt	LTP310	ltpFR2	0	17	JOURNAL	760	n/a	n/a	0	0	0
3871536	REC_WORD	wordpools/wasnorm_wordpool_576.txt	LTP310	ltpFR2	0	17	TROUT	1511	n/a	n/a	0	0	0
3872841	REC_WORD	wordpools/wasnorm_wordpool_576.txt	LTP310	ltpFR2	0	17	SPOOL	1356	n/a	n/a	0	0	0
3874251	REC_WORD_VV	wordpools/wasnorm_wordpool_576.txt	LTP310	ltpFR2	0	17	<>	-1	n/a	n/a	0	0	0
3874660	REC_WORD	wordpools/wasnorm_wordpool_576.txt	LTP310	ltpFR2	0	17	SILK	1307	n/a	n/a	0	0	0
3876201	REC_WORD	wordpools/wasnorm_wordpool_576.txt	LTP310	ltpFR2	0	17	THREAD	1460	n/a	n/a	0	0	0
3877967	REC_WORD	wordpools/wasnorm_wordpool_576.txt	LTP310	ltpFR2	0	17	OZONE	996	n/a	n/a	0	0	0
3879634	REC_WORD	wordpools/wasnorm_wordpool_576.txt	LTP310	ltpFR2	0	17	CLOUD	328	n/a	n/a	0	0	0
3882205	REC_WORD	wordpools/wasnorm_wordpool_576.txt	LTP310	ltpFR2	0	17	DAISY	435	n/a	n/a	0	0	0
3883847	REC_WORD	wordpools/wasnorm_wordpool_576.txt	LTP310	ltpFR2	0	17	THRONE	1461	n/a	n/a	0	0	0
3885694	REC_WORD	wordpools/wasnorm_wordpool_576.txt	LTP310	ltpFR2	0	17	CRIB	407	n/a	n/a	0	0	0
3908780	REC_WORD	wordpools/wasnorm_wordpool_576.txt	LTP310	ltpFR2	0	17	NOTEBOOK	959	n/a	n/a	0	0	0
3910641	REC_WORD	wordpools/wasnorm_wordpool_576.txt	LTP310	ltpFR2	0	17	JOURNAL	760	n/a	n/a	0	0	0
3920370	REC_WORD	wordpools/wasnorm_wordpool_576.txt	LTP310	ltpFR2	0	17	SIDEWALK	1303	n/a	n/a	0	0	0
3922471	REC_WORD_VV	wordpools/wasnorm_wordpool_576.txt	LTP310	ltpFR2	0	17	<>	-1	n/a	n/a	0	0	0
3924685	REC_WORD	wordpools/wasnorm_wordpool_576.txt	LTP310	ltpFR2	0	17	GRAVEL	659	n/a	n/a	0	0	0
3950870	DISTRACTOR	n/a	LTP310	ltpFR2	0	18	n/a	n/a	n/a	n/a	0	0	0
3950871	START	n/a	LTP310	ltpFR2	0	n/a	n/a	n/a	28	n/a	n/a	n/a	n/a
3950904	PROB	n/a	LTP310	ltpFR2	0	n/a	n/a	n/a	28	17	8	8	1
3953022	PROB	n/a	LTP310	ltpFR2	0	n/a	n/a	n/a	28	21	9	5	8
3955659	PROB	n/a	LTP310	ltpFR2	0	n/a	n/a	n/a	28	20	4	8	8
3957577	PROB	n/a	LTP310	ltpFR2	0	n/a	n/a	n/a	28	13	6	3	4
3959445	PROB	n/a	LTP310	ltpFR2	0	n/a	n/a	n/a	28	20	7	5	8
3961798	PROB	n/a	LTP310	ltpFR2	0	n/a	n/a	n/a	28	11	3	2	6
3964032	PROB	n/a	LTP310	ltpFR2	0	n/a	n/a	n/a	28	5	1	2	2
3965467	PROB	n/a	LTP310	ltpFR2	0	n/a	n/a	n/a	28	14	4	8	2
3966951	PROB	n/a	LTP310	ltpFR2	0	n/a	n/a	n/a	28	11	3	2	6
3968503	PROB	n/a	LTP310	ltpFR2	0	n/a	n/a	n/a	28	15	9	2	4
3970438	PROB	n/a	LTP310	ltpFR2	0	n/a	n/a	n/a	28	21	6	8	7
3972407	PROB	n/a	LTP310	ltpFR2	0	n/a	n/a	n/a	28	17	4	5	8
3974069	STOP	n/a	LTP310	ltpFR2	0	n/a	n/a	n/a	28	n/a	n/a	n/a	n/a
3976109	WORD	wordpools/wasnorm_wordpool_576.txt	LTP310	ltpFR2	0	18	TUTU	1524	n/a	n/a	0	0	0
3978612	WORD	wordpools/wasnorm_wordpool_576.txt	LTP310	ltpFR2	0	18	PATROL	1027	n/a	n/a	0	0	0
3981297	WORD	wordpools/wasnorm_wordpool_576.txt	LTP310	ltpFR2	0	18	DOUGHNUT	490	n/a	n/a	0	0	0
3983849	WORD	wordpools/wasnorm_wordpool_576.txt	LTP310	ltpFR2	0	18	VIRUS	1572	n/a	n/a	0	0	0
3986419	WORD	wordpools/wasnorm_wordpool_576.txt	LTP310	ltpFR2	0	18	HEART	697	n/a	n/a	0	0	0
3988887	WORD	wordpools/wasnorm_wordpool_576.txt	LTP310	ltpFR2	0	18	DONOR	485	n/a	n/a	0	0	0
3991523	WORD	wordpools/wasnorm_wordpool_576.txt	LTP310	ltpFR2	0	18	MACHINE	852	n/a	n/a	0	0	0
3994175	WORD	wordpools/wasnorm_wordpool_576.txt	LTP310	ltpFR2	0	18	CLAM	315	n/a	n/a	0	0	0
3996795	WORD	wordpools/wasnorm_wordpool_576.txt	LTP310	ltpFR2	0	18	COUNTY	389	n/a	n/a	0	0	0
3999514	WORD	wordpools/wasnorm_wordpool_576.txt	LTP310	ltpFR2	0	18	SHARK	1275	n/a	n/a	0	0	0
4002232	WORD	wordpools/wasnorm_wordpool_576.txt	LTP310	ltpFR2	0	18	LETTUCE	814	n/a	n/a	0	0	0
4004802	WORD	wordpools/wasnorm_wordpool_576.txt	LTP310	ltpFR2	0	18	DANCER	437	n/a	n/a	0	0	0
4007554	WORD	wordpools/wasnorm_wordpool_576.txt	LTP310	ltpFR2	0	18	CATTLE	261	n/a	n/a	0	0	0
4010039	WORD	wordpools/wasnorm_wordpool_576.txt	LTP310	ltpFR2	0	18	SIBLING	1301	n/a	n/a	0	0	0
4012759	WORD	wordpools/wasnorm_wordpool_576.txt	LTP310	ltpFR2	0	18	PIGMENT	1066	n/a	n/a	0	0	0
4015344	WORD	wordpools/wasnorm_wordpool_576.txt	LTP310	ltpFR2	0	18	BADGE	68	n/a	n/a	0	0	0
4017912	WORD	wordpools/wasnorm_wordpool_576.txt	LTP310	ltpFR2	0	18	DRAGON	492	n/a	n/a	0	0	0
4020465	WORD	wordpools/wasnorm_wordpool_576.txt	LTP310	ltpFR2	0	18	NECKLACE	940	n/a	n/a	0	0	0
4023267	WORD	wordpools/wasnorm_wordpool_576.txt	LTP310	ltpFR2	0	18	FOOT	590	n/a	n/a	0	0	0
4025819	WORD	wordpools/wasnorm_wordpool_576.txt	LTP310	ltpFR2	0	18	PARSLEY	1016	n/a	n/a	0	0	0
4028356	WORD	wordpools/wasnorm_wordpool_576.txt	LTP310	ltpFR2	0	18	JUDGE	761	n/a	n/a	0	0	0
4030874	WORD	wordpools/wasnorm_wordpool_576.txt	LTP310	ltpFR2	0	18	MILK	895	n/a	n/a	0	0	0
4033460	WORD	wordpools/wasnorm_wordpool_576.txt	LTP310	ltpFR2	0	18	BARLEY	88	n/a	n/a	0	0	0
4036095	WORD	wordpools/wasnorm_wordpool_576.txt	LTP310	ltpFR2	0	18	PEPPER	1047	n/a	n/a	0	0	0
4037714	START	n/a	LTP310	ltpFR2	0	n/a	n/a	n/a	29	n/a	n/a	n/a	n/a
4038758	DISTRACTOR	n/a	LTP310	ltpFR2	0	18	n/a	n/a	n/a	n/a	0	0	0
4038781	PROB	n/a	LTP310	ltpFR2	0	n/a	n/a	n/a	29	10	6	3	1
4041767	PROB	n/a	LTP310	ltpFR2	0	n/a	n/a	n/a	29	14	8	1	5
4043552	PROB	n/a	LTP310	ltpFR2	0	n/a	n/a	n/a	29	15	9	4	2
4046605	PROB	n/a	LTP310	ltpFR2	0	n/a	n/a	n/a	29	15	3	7	5
4047972	PROB	n/a	LTP310	ltpFR2	0	n/a	n/a	n/a	29	21	9	9	4
4049674	PROB	n/a	LTP310	ltpFR2	0	n/a	n/a	n/a	29	16	4	9	3
4051693	PROB	n/a	LTP310	ltpFR2	0	n/a	n/a	n/a	29	14	8	3	3
4054211	PROB	n/a	LTP310	ltpFR2	0	n/a	n/a	n/a	29	5	3	1	1
4055813	PROB	n/a	LTP310	ltpFR2	0	n/a	n/a	n/a	29	16	8	2	6
4057230	PROB	n/a	LTP310	ltpFR2	0	n/a	n/a	n/a	29	19	9	4	6
4059466	PROB	n/a	LTP310	ltpFR2	0	n/a	n/a	n/a	29	14	6	2	6
4061426	STOP	n/a	LTP310	ltpFR2	0	n/a	n/a	n/a	29	n/a	n/a	n/a	n/a
4063537	REC_START	n/a	LTP310	ltpFR2	0	18	n/a	n/a	n/a	n/a	0	0	0
4065584	REC_WORD	wordpools/wasnorm_wordpool_576.txt	LTP310	ltpFR2	0	18	COUNTY	389	n/a	n/a	0	0	0
4066928	REC_WORD	wordpools/wasnorm_wordpool_576.txt	LTP310	ltpFR2	0	18	PATROL	1027	n/a	n/a	0	0	0
4068753	REC_WORD	wordpools/wasnorm_wordpool_576.txt	LTP310	ltpFR2	0	18	TUTU	1524	n/a	n/a	0	0	0
4070658	REC_WORD	wordpools/wasnorm_wordpool_576.txt	LTP310	ltpFR2	0	18	DOUGHNUT	490	n/a	n/a	0	0	0
4072416	REC_WORD	wordpools/wasnorm_wordpool_576.txt	LTP310	ltpFR2	0	18	DANCER	437	n/a	n/a	0	0	0
4074191	REC_WORD	wordpools/wasnorm_wordpool_576.txt	LTP310	ltpFR2	0	18	LETTUCE	814	n/a	n/a	0	0	0
4076483	REC_WORD	wordpools/wasnorm_wordpool_576.txt	LTP310	ltpFR2	0	18	JUDGE	761	n/a	n/a	0	0	0
4077909	REC_WORD	wordpools/wasnorm_wordpool_576.txt	LTP310	ltpFR2	0	18	MILK	895	n/a	n/a	0	0	0
4079352	REC_WORD	wordpools/wasnorm_wordpool_576.txt	LTP310	ltpFR2	0	18	BARLEY	88	n/a	n/a	0	0	0
4080671	REC_WORD	wordpools/wasnorm_wordpool_576.txt	LTP310	ltpFR2	0	18	HEART	697	n/a	n/a	0	0	0
4082438	REC_WORD	wordpools/wasnorm_wordpool_576.txt	LTP310	ltpFR2	0	18	DONOR	485	n/a	n/a	0	0	0
4087754	REC_WORD	wordpools/wasnorm_wordpool_576.txt	LTP310	ltpFR2	0	18	CLAM	315	n/a	n/a	0	0	0
4090710	REC_WORD	wordpools/wasnorm_wordpool_576.txt	LTP310	ltpFR2	0	18	DOLPHIN	483	n/a	n/a	0	0	0
4100314	REC_WORD	wordpools/wasnorm_wordpool_576.txt	LTP310	ltpFR2	0	18	BADGE	68	n/a	n/a	0	0	0
4154031	WORD	wordpools/wasnorm_wordpool_576.txt	LTP310	ltpFR2	0	19	NAPKIN	937	n/a	n/a	0	0	0
4156634	WORD	wordpools/wasnorm_wordpool_576.txt	LTP310	ltpFR2	0	19	CROWN	415	n/a	n/a	0	0	0
4159152	WORD	wordpools/wasnorm_wordpool_576.txt	LTP310	ltpFR2	0	19	WASP	1593	n/a	n/a	0	0	0
4161938	WORD	wordpools/wasnorm_wordpool_576.txt	LTP310	ltpFR2	0	19	TRENCH	1503	n/a	n/a	0	0	0
4164608	WORD	wordpools/wasnorm_wordpool_576.txt	LTP310	ltpFR2	0	19	PAIL	1002	n/a	n/a	0	0	0
4167059	WORD	wordpools/wasnorm_wordpool_576.txt	LTP310	ltpFR2	0	19	CANAL	226	n/a	n/a	0	0	0
4169779	WORD	wordpools/wasnorm_wordpool_576.txt	LTP310	ltpFR2	0	19	SALT	1229	n/a	n/a	0	0	0
4172365	WORD	wordpools/wasnorm_wordpool_576.txt	LTP310	ltpFR2	0	19	LIZARD	834	n/a	n/a	0	0	0
4175083	WORD	wordpools/wasnorm_wordpool_576.txt	LTP310	ltpFR2	0	19	POISON	1096	n/a	n/a	0	0	0
4177603	WORD	wordpools/wasnorm_wordpool_576.txt	LTP310	ltpFR2	0	19	EMPIRE	530	n/a	n/a	0	0	0
4180372	WORD	wordpools/wasnorm_wordpool_576.txt	LTP310	ltpFR2	0	19	PLATE	1086	n/a	n/a	0	0	0
4182823	WORD	wordpools/wasnorm_wordpool_576.txt	LTP310	ltpFR2	0	19	ONION	977	n/a	n/a	0	0	0
4185526	WORD	wordpools/wasnorm_wordpool_576.txt	LTP310	ltpFR2	0	19	DRILL	497	n/a	n/a	0	0	0
4188194	WORD	wordpools/wasnorm_wordpool_576.txt	LTP310	ltpFR2	0	19	PEBBLE	1035	n/a	n/a	0	0	0
4190863	WORD	wordpools/wasnorm_wordpool_576.txt	LTP310	ltpFR2	0	19	SANDWICH	1232	n/a	n/a	0	0	0
4193417	WORD	wordpools/wasnorm_wordpool_576.txt	LTP310	ltpFR2	0	19	BABY	64	n/a	n/a	0	0	0
4196034	WORD	wordpools/wasnorm_wordpool_576.txt	LTP310	ltpFR2	0	19	CAMEL	223	n/a	n/a	0	0	0
4198504	WORD	wordpools/wasnorm_wordpool_576.txt	LTP310	ltpFR2	0	19	GARLIC	624	n/a	n/a	0	0	0
4200955	WORD	wordpools/wasnorm_wordpool_576.txt	LTP310	ltpFR2	0	19	PEANUT	1032	n/a	n/a	0	0	0
4203525	WORD	wordpools/wasnorm_wordpool_576.txt	LTP310	ltpFR2	0	19	SMOG	1330	n/a	n/a	0	0	0
4206310	WORD	wordpools/wasnorm_wordpool_576.txt	LTP310	ltpFR2	0	19	JUGGLER	763	n/a	n/a	0	0	0
4209079	WORD	wordpools/wasnorm_wordpool_576.txt	LTP310	ltpFR2	0	19	DENTIST	447	n/a	n/a	0	0	0
4211848	WORD	wordpools/wasnorm_wordpool_576.txt	LTP310	ltpFR2	0	19	FREEZER	604	n/a	n/a	0	0	0
4214318	WORD	wordpools/wasnorm_wordpool_576.txt	LTP310	ltpFR2	0	19	QUEEN	1149	n/a	n/a	0	0	0
4215935	START	n/a	LTP310	ltpFR2	0	n/a	n/a	n/a	30	n/a	n/a	n/a	n/a
4216751	DISTRACTOR	n/a	LTP310	ltpFR2	0	19	n/a	n/a	n/a	n/a	0	0	0
4216770	PROB	n/a	LTP310	ltpFR2	0	n/a	n/a	n/a	30	15	3	3	9
4219506	PROB	n/a	LTP310	ltpFR2	0	n/a	n/a	n/a	30	21	6	9	6
4222858	PROB	n/a	LTP310	ltpFR2	0	n/a	n/a	n/a	30	10	3	1	6
4225143	PROB	n/a	LTP310	ltpFR2	0	n/a	n/a	n/a	30	11	3	7	1
4226529	PROB	n/a	LTP310	ltpFR2	0	n/a	n/a	n/a	30	20	5	7	8
4228714	PROB	n/a	LTP310	ltpFR2	0	n/a	n/a	n/a	30	12	3	6	3
4231032	PROB	n/a	LTP310	ltpFR2	0	n/a	n/a	n/a	30	11	6	2	3
4232634	PROB	n/a	LTP310	ltpFR2	0	n/a	n/a	n/a	30	13	5	6	2
4234184	PROB	n/a	LTP310	ltpFR2	0	n/a	n/a	n/a	30	25	9	8	8
4236253	PROB	n/a	LTP310	ltpFR2	0	n/a	n/a	n/a	30	10	1	7	2
4237904	PROB	n/a	LTP310	ltpFR2	0	n/a	n/a	n/a	30	8	1	4	3
4239593	STOP	n/a	LTP310	ltpFR2	0	n/a	n/a	n/a	30	n/a	n/a	n/a	n/a
4241793	REC_START	n/a	LTP310	ltpFR2	0	19	n/a	n/a	n/a	n/a	0	0	0
4243794	REC_WORD	wordpools/wasnorm_wordpool_576.txt	LTP310	ltpFR2	0	19	CANAL	226	n/a	n/a	0	0	0
4245100	REC_WORD	wordpools/wasnorm_wordpool_576.txt	LTP310	ltpFR2	0	19	TRENCH	1503	n/a	n/a	0	0	0
4246233	REC_WORD	wordpools/wasnorm_wordpool_576.txt	LTP310	ltpFR2	0	19	SALT	1229	n/a	n/a	0	0	0
4247752	REC_WORD	wordpools/wasnorm_wordpool_576.txt	LTP310	ltpFR2	0	19	LIZARD	834	n/a	n/a	0	0	0
4249091	REC_WORD	wordpools/wasnorm_wordpool_576.txt	LTP310	ltpFR2	0	19	NAPKIN	937	n/a	n/a	0	0	0
4250419	REC_WORD	wordpools/wasnorm_wordpool_576.txt	LTP310	ltpFR2	0	19	CROWN	415	n/a	n/a	0	0	0
4251910	REC_WORD	wordpools/wasnorm_wordpool_576.txt	LTP310	ltpFR2	0	19	WASP	1593	n/a	n/a	0	0	0
4254621	REC_WORD_VV	wordpools/wasnorm_wordpool_576.txt	LTP310	ltpFR2	0	19	<>	-1	n/a	n/a	0	0	0
4255301	REC_WORD	wordpools/wasnorm_wordpool_576.txt	LTP310	ltpFR2	0	19	PAIL	1002	n/a	n/a	0	0	0
4257938	REC_WORD	wordpools/wasnorm_wordpool_576.txt	LTP310	ltpFR2	0	19	EMPIRE	530	n/a	n/a	0	0	0
4259382	REC_WORD	wordpools/wasnorm_wordpool_576.txt	LTP310	ltpFR2	0	19	SMOG	1330	n/a	n/a	0	0	0
4267601	REC_WORD	wordpools/wasnorm_wordpool_576.txt	LTP310	ltpFR2	0	19	QUEEN	1149	n/a	n/a	0	0	0
4273904	REC_WORD	wordpools/wasnorm_wordpool_576.txt	LTP310	ltpFR2	0	19	FREEZER	604	n/a	n/a	0	0	0
4275908	REC_WORD	wordpools/wasnorm_wordpool_576.txt	LTP310	ltpFR2	0	19	DENTIST	447	n/a	n/a	0	0	0
4280705	REC_WORD	wordpools/wasnorm_wordpool_576.txt	LTP310	ltpFR2	0	19	POISON	1096	n/a	n/a	0	0	0
4285498	REC_WORD	wordpools/wasnorm_wordpool_576.txt	LTP310	ltpFR2	0	19	PLATE	1086	n/a	n/a	0	0	0
4287468	REC_WORD	wordpools/wasnorm_wordpool_576.txt	LTP310	ltpFR2	0	19	ONION	977	n/a	n/a	0	0	0
4288634	REC_WORD	wordpools/wasnorm_wordpool_576.txt	LTP310	ltpFR2	0	19	SANDWICH	1232	n/a	n/a	0	0	0
4290523	REC_WORD	wordpools/wasnorm_wordpool_576.txt	LTP310	ltpFR2	0	19	GARLIC	624	n/a	n/a	0	0	0
4292224	REC_WORD	wordpools/wasnorm_wordpool_576.txt	LTP310	ltpFR2	0	19	PEANUT	1032	n/a	n/a	0	0	0
4293794	REC_WORD	wordpools/wasnorm_wordpool_576.txt	LTP310	ltpFR2	0	19	BABY	64	n/a	n/a	0	0	0
4297922	REC_WORD	wordpools/wasnorm_wordpool_576.txt	LTP310	ltpFR2	0	19	DRILL	497	n/a	n/a	0	0	0
4302867	REC_WORD	wordpools/wasnorm_wordpool_576.txt	LTP310	ltpFR2	0	19	JUGGLER	763	n/a	n/a	0	0	0
4332253	WORD	wordpools/wasnorm_wordpool_576.txt	LTP310	ltpFR2	0	20	BLUEPRINT	142	n/a	n/a	0	0	0
4334956	WORD	wordpools/wasnorm_wordpool_576.txt	LTP310	ltpFR2	0	20	DORM	488	n/a	n/a	0	0	0
4337676	WORD	wordpools/wasnorm_wordpool_576.txt	LTP310	ltpFR2	0	20	FLEET	578	n/a	n/a	0	0	0
4340395	WORD	wordpools/wasnorm_wordpool_576.txt	LTP310	ltpFR2	0	20	BEAVER	109	n/a	n/a	0	0	0
4342913	WORD	wordpools/wasnorm_wordpool_576.txt	LTP310	ltpFR2	0	20	IGLOO	734	n/a	n/a	0	0	0
4345516	WORD	wordpools/wasnorm_wordpool_576.txt	LTP310	ltpFR2	0	20	COUNTRY	388	n/a	n/a	0	0	0
4348134	WORD	wordpools/wasnorm_wordpool_576.txt	LTP310	ltpFR2	0	20	LONDON	843	n/a	n/a	0	0	0
4350936	WORD	wordpools/wasnorm_wordpool_576.txt	LTP310	ltpFR2	0	20	SLOPE	1328	n/a	n/a	0	0	0
4353389	WORD	wordpools/wasnorm_wordpool_576.txt	LTP310	ltpFR2	0	20	FRAGRANCE	599	n/a	n/a	0	0	0
4355824	WORD	wordpools/wasnorm_wordpool_576.txt	LTP310	ltpFR2	0	20	TUNNEL	1519	n/a	n/a	0	0	0
4358309	WORD	wordpools/wasnorm_wordpool_576.txt	LTP310	ltpFR2	0	20	LAPEL	800	n/a	n/a	0	0	0
4361012	WORD	wordpools/wasnorm_wordpool_576.txt	LTP310	ltpFR2	0	20	MEDAL	885	n/a	n/a	0	0	0
4363615	WORD	wordpools/wasnorm_wordpool_576.txt	LTP310	ltpFR2	0	20	SUMMIT	1405	n/a	n/a	0	0	0
4366083	WORD	wordpools/wasnorm_wordpool_576.txt	LTP310	ltpFR2	0	20	COLONEL	348	n/a	n/a	0	0	0
4368885	WORD	wordpools/wasnorm_wordpool_576.txt	LTP310	ltpFR2	0	20	AWARD	63	n/a	n/a	0	0	0
4371372	WORD	wordpools/wasnorm_wordpool_576.txt	LTP310	ltpFR2	0	20	PIANO	1057	n/a	n/a	0	0	0
