mstime	trial_type	stim_file	subject	experiment	session	trial	item_name	item_num	list	answer	test_x	test_y	test_z
0	SESS_START	n/a	LTP329	ltpFR2	4	n/a	n/a	n/a	n/a	n/a	0	0	0
17200	START	n/a	LTP329	ltpFR2	4	n/a	n/a	n/a	-1	n/a	n/a	n/a	n/a
17232	PROB	n/a	LTP329	ltpFR2	4	n/a	n/a	n/a	-1	24	6	8	8
19383	PROB	n/a	LTP329	ltpFR2	4	n/a	n/a	n/a	-1	16	2	9	5
21152	PROB	n/a	LTP329	ltpFR2	4	n/a	n/a	n/a	-1	23	8	9	5
23187	PROB	n/a	LTP329	ltpFR2	4	n/a	n/a	n/a	-1	15	1	7	7
24655	PROB	n/a	LTP329	ltpFR2	4	n/a	n/a	n/a	-1	14	1	4	9
25939	PROB	n/a	LTP329	ltpFR2	4	n/a	n/a	n/a	-1	13	8	3	2
27902	STOP	n/a	LTP329	ltpFR2	4	n/a	n/a	n/a	-1	n/a	n/a	n/a	n/a
64189	WORD	wordpools/wasnorm_wordpool_576.txt	LTP329	ltpFR2	4	1	PACKAGE	997	n/a	n/a	0	0	0
66874	WORD	wordpools/wasnorm_wordpool_576.txt	LTP329	ltpFR2	4	1	STAMP	1370	n/a	n/a	0	0	0
69527	WORD	wordpools/wasnorm_wordpool_576.txt	LTP329	ltpFR2	4	1	SWAMP	1416	n/a	n/a	0	0	0
72180	WORD	wordpools/wasnorm_wordpool_576.txt	LTP329	ltpFR2	4	1	TABLET	1427	n/a	n/a	0	0	0
74864	WORD	wordpools/wasnorm_wordpool_576.txt	LTP329	ltpFR2	4	1	ISLAND	745	n/a	n/a	0	0	0
77367	WORD	wordpools/wasnorm_wordpool_576.txt	LTP329	ltpFR2	4	1	DAISY	435	n/a	n/a	0	0	0
79970	WORD	wordpools/wasnorm_wordpool_576.txt	LTP329	ltpFR2	4	1	ROBIN	1199	n/a	n/a	0	0	0
82472	WORD	wordpools/wasnorm_wordpool_576.txt	LTP329	ltpFR2	4	1	SCARECROW	1245	n/a	n/a	0	0	0
84941	WORD	wordpools/wasnorm_wordpool_576.txt	LTP329	ltpFR2	4	1	POLICE	1098	n/a	n/a	0	0	0
87759	WORD	wordpools/wasnorm_wordpool_576.txt	LTP329	ltpFR2	4	1	BADGE	68	n/a	n/a	0	0	0
90345	WORD	wordpools/wasnorm_wordpool_576.txt	LTP329	ltpFR2	4	1	SKETCH	1315	n/a	n/a	0	0	0
93165	WORD	wordpools/wasnorm_wordpool_576.txt	LTP329	ltpFR2	4	1	EXPERT	543	n/a	n/a	0	0	0
95682	WORD	wordpools/wasnorm_wordpool_576.txt	LTP329	ltpFR2	4	1	MUSTARD	935	n/a	n/a	0	0	0
98402	WORD	wordpools/wasnorm_wordpool_576.txt	LTP329	ltpFR2	4	1	CLIMBER	323	n/a	n/a	0	0	0
100921	WORD	wordpools/wasnorm_wordpool_576.txt	LTP329	ltpFR2	4	1	AGENT	10	n/a	n/a	0	0	0
103457	WORD	wordpools/wasnorm_wordpool_576.txt	LTP329	ltpFR2	4	1	BRANDY	169	n/a	n/a	0	0	0
106209	WORD	wordpools/wasnorm_wordpool_576.txt	LTP329	ltpFR2	4	1	CRIB	407	n/a	n/a	0	0	0
108894	WORD	wordpools/wasnorm_wordpool_576.txt	LTP329	ltpFR2	4	1	STOVE	1388	n/a	n/a	0	0	0
111696	WORD	wordpools/wasnorm_wordpool_576.txt	LTP329	ltpFR2	4	1	DIVER	476	n/a	n/a	0	0	0
114466	WORD	wordpools/wasnorm_wordpool_576.txt	LTP329	ltpFR2	4	1	STATUE	1374	n/a	n/a	0	0	0
116919	WORD	wordpools/wasnorm_wordpool_576.txt	LTP329	ltpFR2	4	1	SLOPE	1328	n/a	n/a	0	0	0
119703	WORD	wordpools/wasnorm_wordpool_576.txt	LTP329	ltpFR2	4	1	PAIL	1002	n/a	n/a	0	0	0
122407	WORD	wordpools/wasnorm_wordpool_576.txt	LTP329	ltpFR2	4	1	TILE	1468	n/a	n/a	0	0	0
124909	WORD	wordpools/wasnorm_wordpool_576.txt	LTP329	ltpFR2	4	1	JUDGE	761	n/a	n/a	0	0	0
126527	START	n/a	LTP329	ltpFR2	4	n/a	n/a	n/a	1	n/a	n/a	n/a	n/a
127348	DISTRACTOR	n/a	LTP329	ltpFR2	4	1	n/a	n/a	n/a	n/a	0	0	0
127378	PROB	n/a	LTP329	ltpFR2	4	n/a	n/a	n/a	1	13	7	4	2
129329	PROB	n/a	LTP329	ltpFR2	4	n/a	n/a	n/a	1	18	9	6	3
130964	PROB	n/a	LTP329	ltpFR2	4	n/a	n/a	n/a	1	16	2	4	9
133083	PROB	n/a	LTP329	ltpFR2	4	n/a	n/a	n/a	1	12	5	2	5
134300	PROB	n/a	LTP329	ltpFR2	4	n/a	n/a	n/a	1	20	6	7	7
137587	PROB	n/a	LTP329	ltpFR2	4	n/a	n/a	n/a	1	8	2	1	5
138954	PROB	n/a	LTP329	ltpFR2	4	n/a	n/a	n/a	1	26	9	8	9
140722	PROB	n/a	LTP329	ltpFR2	4	n/a	n/a	n/a	1	10	4	1	5
142074	PROB	n/a	LTP329	ltpFR2	4	n/a	n/a	n/a	1	20	3	8	9
143858	PROB	n/a	LTP329	ltpFR2	4	n/a	n/a	n/a	1	15	4	7	4
145826	PROB	n/a	LTP329	ltpFR2	4	n/a	n/a	n/a	1	14	2	7	5
150527	STOP	n/a	LTP329	ltpFR2	4	n/a	n/a	n/a	1	n/a	n/a	n/a	n/a
152333	REC_START	n/a	LTP329	ltpFR2	4	1	n/a	n/a	n/a	n/a	0	0	0
154257	REC_WORD	wordpools/wasnorm_wordpool_576.txt	LTP329	ltpFR2	4	1	DIVER	476	n/a	n/a	0	0	0
156125	REC_WORD	wordpools/wasnorm_wordpool_576.txt	LTP329	ltpFR2	4	1	PAIL	1002	n/a	n/a	0	0	0
157733	REC_WORD	wordpools/wasnorm_wordpool_576.txt	LTP329	ltpFR2	4	1	SLOPE	1328	n/a	n/a	0	0	0
159676	REC_WORD	wordpools/wasnorm_wordpool_576.txt	LTP329	ltpFR2	4	1	ROBIN	1199	n/a	n/a	0	0	0
161400	REC_WORD	wordpools/wasnorm_wordpool_576.txt	LTP329	ltpFR2	4	1	SCARECROW	1245	n/a	n/a	0	0	0
167589	REC_WORD	wordpools/wasnorm_wordpool_576.txt	LTP329	ltpFR2	4	1	MARSH	874	n/a	n/a	0	0	0
171818	REC_WORD	wordpools/wasnorm_wordpool_576.txt	LTP329	ltpFR2	4	1	POLICE	1098	n/a	n/a	0	0	0
173689	REC_WORD	wordpools/wasnorm_wordpool_576.txt	LTP329	ltpFR2	4	1	SKETCH	1315	n/a	n/a	0	0	0
176120	REC_WORD	wordpools/wasnorm_wordpool_576.txt	LTP329	ltpFR2	4	1	EXPERT	543	n/a	n/a	0	0	0
178257	REC_WORD	wordpools/wasnorm_wordpool_576.txt	LTP329	ltpFR2	4	1	JUDGE	761	n/a	n/a	0	0	0
181416	REC_WORD	wordpools/wasnorm_wordpool_576.txt	LTP329	ltpFR2	4	1	CRIB	407	n/a	n/a	0	0	0
183658	REC_WORD	wordpools/wasnorm_wordpool_576.txt	LTP329	ltpFR2	4	1	MUSTARD	935	n/a	n/a	0	0	0
187607	REC_WORD	wordpools/wasnorm_wordpool_576.txt	LTP329	ltpFR2	4	1	DAISY	435	n/a	n/a	0	0	0
189732	REC_WORD	wordpools/wasnorm_wordpool_576.txt	LTP329	ltpFR2	4	1	ISLAND	745	n/a	n/a	0	0	0
203840	REC_WORD	wordpools/wasnorm_wordpool_576.txt	LTP329	ltpFR2	4	1	DIVER	476	n/a	n/a	0	0	0
217395	REC_WORD	wordpools/wasnorm_wordpool_576.txt	LTP329	ltpFR2	4	1	BADGE	68	n/a	n/a	0	0	0
242794	DISTRACTOR	n/a	LTP329	ltpFR2	4	2	n/a	n/a	n/a	n/a	0	0	0
242794	START	n/a	LTP329	ltpFR2	4	n/a	n/a	n/a	2	n/a	n/a	n/a	n/a
242811	PROB	n/a	LTP329	ltpFR2	4	n/a	n/a	n/a	2	16	9	4	3
245663	PROB	n/a	LTP329	ltpFR2	4	n/a	n/a	n/a	2	22	7	7	8
247815	PROB	n/a	LTP329	ltpFR2	4	n/a	n/a	n/a	2	6	1	3	2
249618	PROB	n/a	LTP329	ltpFR2	4	n/a	n/a	n/a	2	11	4	4	3
251603	PROB	n/a	LTP329	ltpFR2	4	n/a	n/a	n/a	2	24	8	6	9
255256	PROB	n/a	LTP329	ltpFR2	4	n/a	n/a	n/a	2	24	7	8	9
262178	PROB	n/a	LTP329	ltpFR2	4	n/a	n/a	n/a	2	11	4	3	4
264547	PROB	n/a	LTP329	ltpFR2	4	n/a	n/a	n/a	2	7	2	1	4
266432	STOP	n/a	LTP329	ltpFR2	4	n/a	n/a	n/a	2	n/a	n/a	n/a	n/a
267934	WORD	wordpools/wasnorm_wordpool_576.txt	LTP329	ltpFR2	4	2	DONKEY	484	n/a	n/a	0	0	0
270552	WORD	wordpools/wasnorm_wordpool_576.txt	LTP329	ltpFR2	4	2	MILDEW	893	n/a	n/a	0	0	0
272988	WORD	wordpools/wasnorm_wordpool_576.txt	LTP329	ltpFR2	4	2	BOUQUET	157	n/a	n/a	0	0	0
275772	WORD	wordpools/wasnorm_wordpool_576.txt	LTP329	ltpFR2	4	2	PUPPY	1144	n/a	n/a	0	0	0
278226	WORD	wordpools/wasnorm_wordpool_576.txt	LTP329	ltpFR2	4	2	JUNGLE	764	n/a	n/a	0	0	0
280961	WORD	wordpools/wasnorm_wordpool_576.txt	LTP329	ltpFR2	4	2	VALVE	1546	n/a	n/a	0	0	0
283564	WORD	wordpools/wasnorm_wordpool_576.txt	LTP329	ltpFR2	4	2	BUGGY	188	n/a	n/a	0	0	0
286316	WORD	wordpools/wasnorm_wordpool_576.txt	LTP329	ltpFR2	4	2	CARRIAGE	248	n/a	n/a	0	0	0
288834	WORD	wordpools/wasnorm_wordpool_576.txt	LTP329	ltpFR2	4	2	DUST	508	n/a	n/a	0	0	0
291287	WORD	wordpools/wasnorm_wordpool_576.txt	LTP329	ltpFR2	4	2	HANDBAG	684	n/a	n/a	0	0	0
293855	WORD	wordpools/wasnorm_wordpool_576.txt	LTP329	ltpFR2	4	2	RUG	1215	n/a	n/a	0	0	0
296408	WORD	wordpools/wasnorm_wordpool_576.txt	LTP329	ltpFR2	4	2	CHEMIST	292	n/a	n/a	0	0	0
298843	WORD	wordpools/wasnorm_wordpool_576.txt	LTP329	ltpFR2	4	2	CRUTCH	417	n/a	n/a	0	0	0
301279	WORD	wordpools/wasnorm_wordpool_576.txt	LTP329	ltpFR2	4	2	FIREPLACE	570	n/a	n/a	0	0	0
304098	WORD	wordpools/wasnorm_wordpool_576.txt	LTP329	ltpFR2	4	2	BELLY	119	n/a	n/a	0	0	0
306900	WORD	wordpools/wasnorm_wordpool_576.txt	LTP329	ltpFR2	4	2	LONDON	843	n/a	n/a	0	0	0
309503	WORD	wordpools/wasnorm_wordpool_576.txt	LTP329	ltpFR2	4	2	LEG	809	n/a	n/a	0	0	0
312022	WORD	wordpools/wasnorm_wordpool_576.txt	LTP329	ltpFR2	4	2	EUROPE	541	n/a	n/a	0	0	0
314507	WORD	wordpools/wasnorm_wordpool_576.txt	LTP329	ltpFR2	4	2	TOURIST	1488	n/a	n/a	0	0	0
317126	WORD	wordpools/wasnorm_wordpool_576.txt	LTP329	ltpFR2	4	2	PALACE	1006	n/a	n/a	0	0	0
319562	WORD	wordpools/wasnorm_wordpool_576.txt	LTP329	ltpFR2	4	2	LIZARD	834	n/a	n/a	0	0	0
322231	WORD	wordpools/wasnorm_wordpool_576.txt	LTP329	ltpFR2	4	2	CELLAR	267	n/a	n/a	0	0	0
324882	WORD	wordpools/wasnorm_wordpool_576.txt	LTP329	ltpFR2	4	2	SOFTBALL	1343	n/a	n/a	0	0	0
327435	WORD	wordpools/wasnorm_wordpool_576.txt	LTP329	ltpFR2	4	2	CATCHER	258	n/a	n/a	0	0	0
329054	START	n/a	LTP329	ltpFR2	4	n/a	n/a	n/a	3	n/a	n/a	n/a	n/a
330036	DISTRACTOR	n/a	LTP329	ltpFR2	4	2	n/a	n/a	n/a	n/a	0	0	0
330054	PROB	n/a	LTP329	ltpFR2	4	n/a	n/a	n/a	3	18	3	9	6
333790	PROB	n/a	LTP329	ltpFR2	4	n/a	n/a	n/a	3	12	1	8	3
335559	PROB	n/a	LTP329	ltpFR2	4	n/a	n/a	n/a	3	17	6	8	3
337777	PROB	n/a	LTP329	ltpFR2	4	n/a	n/a	n/a	3	15	2	7	6
339246	PROB	n/a	LTP329	ltpFR2	4	n/a	n/a	n/a	3	17	7	2	8
341131	PROB	n/a	LTP329	ltpFR2	4	n/a	n/a	n/a	3	18	4	7	7
342714	PROB	n/a	LTP329	ltpFR2	4	n/a	n/a	n/a	3	14	5	1	8
344583	PROB	n/a	LTP329	ltpFR2	4	n/a	n/a	n/a	3	19	5	8	6
346519	PROB	n/a	LTP329	ltpFR2	4	n/a	n/a	n/a	3	6	2	2	2
347819	PROB	n/a	LTP329	ltpFR2	4	n/a	n/a	n/a	3	9	1	7	1
349138	PROB	n/a	LTP329	ltpFR2	4	n/a	n/a	n/a	3	17	9	7	1
351089	PROB	n/a	LTP329	ltpFR2	4	n/a	n/a	n/a	3	14	2	7	5
352738	STOP	n/a	LTP329	ltpFR2	4	n/a	n/a	n/a	3	n/a	n/a	n/a	n/a
355026	REC_START	n/a	LTP329	ltpFR2	4	2	n/a	n/a	n/a	n/a	0	0	0
359654	REC_WORD	wordpools/wasnorm_wordpool_576.txt	LTP329	ltpFR2	4	2	DONKEY	484	n/a	n/a	0	0	0
363227	REC_WORD	wordpools/wasnorm_wordpool_576.txt	LTP329	ltpFR2	4	2	BUGGY	188	n/a	n/a	0	0	0
364835	REC_WORD	wordpools/wasnorm_wordpool_576.txt	LTP329	ltpFR2	4	2	CARRIAGE	248	n/a	n/a	0	0	0
366900	REC_WORD	wordpools/wasnorm_wordpool_576.txt	LTP329	ltpFR2	4	2	RUG	1215	n/a	n/a	0	0	0
376381	REC_WORD	wordpools/wasnorm_wordpool_576.txt	LTP329	ltpFR2	4	2	BOUQUET	157	n/a	n/a	0	0	0
378600	REC_WORD	wordpools/wasnorm_wordpool_576.txt	LTP329	ltpFR2	4	2	MILDEW	893	n/a	n/a	0	0	0
405101	REC_WORD	wordpools/wasnorm_wordpool_576.txt	LTP329	ltpFR2	4	2	EUROPE	541	n/a	n/a	0	0	0
406820	REC_WORD	wordpools/wasnorm_wordpool_576.txt	LTP329	ltpFR2	4	2	PALACE	1006	n/a	n/a	0	0	0
408608	REC_WORD	wordpools/wasnorm_wordpool_576.txt	LTP329	ltpFR2	4	2	TOURIST	1488	n/a	n/a	0	0	0
410419	REC_WORD	wordpools/wasnorm_wordpool_576.txt	LTP329	ltpFR2	4	2	LONDON	843	n/a	n/a	0	0	0
425586	REC_WORD	wordpools/wasnorm_wordpool_576.txt	LTP329	ltpFR2	4	2	FIREPLACE	570	n/a	n/a	0	0	0
426586	REC_WORD_VV	wordpools/wasnorm_wordpool_576.txt	LTP329	ltpFR2	4	2	<>	-1	n/a	n/a	0	0	0
445505	WORD	wordpools/wasnorm_wordpool_576.txt	LTP329	ltpFR2	4	3	AIRPLANE	12	n/a	n/a	0	0	0
448307	WORD	wordpools/wasnorm_wordpool_576.txt	LTP329	ltpFR2	4	3	COFFEE	341	n/a	n/a	0	0	0
451060	WORD	wordpools/wasnorm_wordpool_576.txt	LTP329	ltpFR2	4	3	SHORTS	1293	n/a	n/a	0	0	0
453828	WORD	wordpools/wasnorm_wordpool_576.txt	LTP329	ltpFR2	4	3	FLIPPER	580	n/a	n/a	0	0	0
456331	WORD	wordpools/wasnorm_wordpool_576.txt	LTP329	ltpFR2	4	3	MAMMAL	861	n/a	n/a	0	0	0
459100	WORD	wordpools/wasnorm_wordpool_576.txt	LTP329	ltpFR2	4	3	VIRUS	1572	n/a	n/a	0	0	0
461785	WORD	wordpools/wasnorm_wordpool_576.txt	LTP329	ltpFR2	4	3	PLAYGROUND	1087	n/a	n/a	0	0	0
464371	WORD	wordpools/wasnorm_wordpool_576.txt	LTP329	ltpFR2	4	3	BRIEFCASE	175	n/a	n/a	0	0	0
467190	WORD	wordpools/wasnorm_wordpool_576.txt	LTP329	ltpFR2	4	3	KLEENEX	782	n/a	n/a	0	0	0
469643	WORD	wordpools/wasnorm_wordpool_576.txt	LTP329	ltpFR2	4	3	DRILL	497	n/a	n/a	0	0	0
472078	WORD	wordpools/wasnorm_wordpool_576.txt	LTP329	ltpFR2	4	3	CANAL	226	n/a	n/a	0	0	0
474829	WORD	wordpools/wasnorm_wordpool_576.txt	LTP329	ltpFR2	4	3	LUGGAGE	847	n/a	n/a	0	0	0
477583	WORD	wordpools/wasnorm_wordpool_576.txt	LTP329	ltpFR2	4	3	BATHTUB	100	n/a	n/a	0	0	0
480035	WORD	wordpools/wasnorm_wordpool_576.txt	LTP329	ltpFR2	4	3	GALLON	618	n/a	n/a	0	0	0
482520	WORD	wordpools/wasnorm_wordpool_576.txt	LTP329	ltpFR2	4	3	ICEBERG	731	n/a	n/a	0	0	0
485156	WORD	wordpools/wasnorm_wordpool_576.txt	LTP329	ltpFR2	4	3	YARN	1631	n/a	n/a	0	0	0
487992	WORD	wordpools/wasnorm_wordpool_576.txt	LTP329	ltpFR2	4	3	SLIDE	1326	n/a	n/a	0	0	0
490611	WORD	wordpools/wasnorm_wordpool_576.txt	LTP329	ltpFR2	4	3	HIKER	708	n/a	n/a	0	0	0
493213	WORD	wordpools/wasnorm_wordpool_576.txt	LTP329	ltpFR2	4	3	TAXI	1438	n/a	n/a	0	0	0
495764	WORD	wordpools/wasnorm_wordpool_576.txt	LTP329	ltpFR2	4	3	AUTHOR	61	n/a	n/a	0	0	0
498451	WORD	wordpools/wasnorm_wordpool_576.txt	LTP329	ltpFR2	4	3	VALLEY	1545	n/a	n/a	0	0	0
500885	WORD	wordpools/wasnorm_wordpool_576.txt	LTP329	ltpFR2	4	3	TRIBE	1505	n/a	n/a	0	0	0
503539	WORD	wordpools/wasnorm_wordpool_576.txt	LTP329	ltpFR2	4	3	CAPTIVE	240	n/a	n/a	0	0	0
506074	WORD	wordpools/wasnorm_wordpool_576.txt	LTP329	ltpFR2	4	3	SUSPECT	1415	n/a	n/a	0	0	0
507692	START	n/a	LTP329	ltpFR2	4	n/a	n/a	n/a	4	n/a	n/a	n/a	n/a
508496	DISTRACTOR	n/a	LTP329	ltpFR2	4	3	n/a	n/a	n/a	n/a	0	0	0
508510	PROB	n/a	LTP329	ltpFR2	4	n/a	n/a	n/a	4	14	5	1	8
511245	PROB	n/a	LTP329	ltpFR2	4	n/a	n/a	n/a	4	6	1	4	1
512280	PROB	n/a	LTP329	ltpFR2	4	n/a	n/a	n/a	4	14	9	3	2
514748	PROB	n/a	LTP329	ltpFR2	4	n/a	n/a	n/a	4	11	4	4	3
516517	PROB	n/a	LTP329	ltpFR2	4	n/a	n/a	n/a	4	13	6	3	4
519785	PROB	n/a	LTP329	ltpFR2	4	n/a	n/a	n/a	4	10	1	8	1
520886	PROB	n/a	LTP329	ltpFR2	4	n/a	n/a	n/a	4	16	6	2	7
522405	PROB	n/a	LTP329	ltpFR2	4	n/a	n/a	n/a	4	20	8	3	9
525091	PROB	n/a	LTP329	ltpFR2	4	n/a	n/a	n/a	4	6	3	2	1
526175	PROB	n/a	LTP329	ltpFR2	4	n/a	n/a	n/a	4	12	8	3	1
527892	PROB	n/a	LTP329	ltpFR2	4	n/a	n/a	n/a	4	13	3	1	9
529228	PROB	n/a	LTP329	ltpFR2	4	n/a	n/a	n/a	4	15	8	6	1
531083	STOP	n/a	LTP329	ltpFR2	4	n/a	n/a	n/a	4	n/a	n/a	n/a	n/a
533599	REC_START	n/a	LTP329	ltpFR2	4	3	n/a	n/a	n/a	n/a	0	0	0
535535	REC_WORD	wordpools/wasnorm_wordpool_576.txt	LTP329	ltpFR2	4	3	TRIBE	1505	n/a	n/a	0	0	0
537708	REC_WORD	wordpools/wasnorm_wordpool_576.txt	LTP329	ltpFR2	4	3	CAPTIVE	240	n/a	n/a	0	0	0
539899	REC_WORD	wordpools/wasnorm_wordpool_576.txt	LTP329	ltpFR2	4	3	SUSPECT	1415	n/a	n/a	0	0	0
542218	REC_WORD	wordpools/wasnorm_wordpool_576.txt	LTP329	ltpFR2	4	3	BRIEFCASE	175	n/a	n/a	0	0	0
544568	REC_WORD	wordpools/wasnorm_wordpool_576.txt	LTP329	ltpFR2	4	3	LUGGAGE	847	n/a	n/a	0	0	0
551847	REC_WORD	wordpools/wasnorm_wordpool_576.txt	LTP329	ltpFR2	4	3	GALLON	618	n/a	n/a	0	0	0
557523	REC_WORD	wordpools/wasnorm_wordpool_576.txt	LTP329	ltpFR2	4	3	AIRPLANE	12	n/a	n/a	0	0	0
624227	DISTRACTOR	n/a	LTP329	ltpFR2	4	4	n/a	n/a	n/a	n/a	0	0	0
624227	START	n/a	LTP329	ltpFR2	4	n/a	n/a	n/a	5	n/a	n/a	n/a	n/a
624261	PROB	n/a	LTP329	ltpFR2	4	n/a	n/a	n/a	5	14	8	4	2
625995	PROB	n/a	LTP329	ltpFR2	4	n/a	n/a	n/a	5	10	8	1	1
627347	PROB	n/a	LTP329	ltpFR2	4	n/a	n/a	n/a	5	20	9	8	3
630899	PROB	n/a	LTP329	ltpFR2	4	n/a	n/a	n/a	5	13	1	8	4
632667	PROB	n/a	LTP329	ltpFR2	4	n/a	n/a	n/a	5	7	3	3	1
634019	PROB	n/a	LTP329	ltpFR2	4	n/a	n/a	n/a	5	7	5	1	1
635137	PROB	n/a	LTP329	ltpFR2	4	n/a	n/a	n/a	5	14	3	5	6
637372	PROB	n/a	LTP329	ltpFR2	4	n/a	n/a	n/a	5	9	1	4	4
638990	PROB	n/a	LTP329	ltpFR2	4	n/a	n/a	n/a	5	11	4	6	1
640225	PROB	n/a	LTP329	ltpFR2	4	n/a	n/a	n/a	5	11	6	4	1
641476	PROB	n/a	LTP329	ltpFR2	4	n/a	n/a	n/a	5	15	6	3	6
643394	PROB	n/a	LTP329	ltpFR2	4	n/a	n/a	n/a	5	15	9	2	4
644962	PROB	n/a	LTP329	ltpFR2	4	n/a	n/a	n/a	5	11	9	1	1
648223	STOP	n/a	LTP329	ltpFR2	4	n/a	n/a	n/a	5	n/a	n/a	n/a	n/a
649182	WORD	wordpools/wasnorm_wordpool_576.txt	LTP329	ltpFR2	4	4	MUMMY	932	n/a	n/a	0	0	0
651651	WORD	wordpools/wasnorm_wordpool_576.txt	LTP329	ltpFR2	4	4	EGYPT	519	n/a	n/a	0	0	0
654387	WORD	wordpools/wasnorm_wordpool_576.txt	LTP329	ltpFR2	4	4	MAPLE	866	n/a	n/a	0	0	0
657123	WORD	wordpools/wasnorm_wordpool_576.txt	LTP329	ltpFR2	4	4	PIZZA	1079	n/a	n/a	0	0	0
659891	WORD	wordpools/wasnorm_wordpool_576.txt	LTP329	ltpFR2	4	4	PRINCE	1124	n/a	n/a	0	0	0
662461	WORD	wordpools/wasnorm_wordpool_576.txt	LTP329	ltpFR2	4	4	BRANCH	168	n/a	n/a	0	0	0
664946	WORD	wordpools/wasnorm_wordpool_576.txt	LTP329	ltpFR2	4	4	COUCH	386	n/a	n/a	0	0	0
667415	WORD	wordpools/wasnorm_wordpool_576.txt	LTP329	ltpFR2	4	4	MARINE	869	n/a	n/a	0	0	0
670167	WORD	wordpools/wasnorm_wordpool_576.txt	LTP329	ltpFR2	4	4	PADDING	999	n/a	n/a	0	0	0
672685	WORD	wordpools/wasnorm_wordpool_576.txt	LTP329	ltpFR2	4	4	OFFICE	972	n/a	n/a	0	0	0
675222	WORD	wordpools/wasnorm_wordpool_576.txt	LTP329	ltpFR2	4	4	BUBBLE	183	n/a	n/a	0	0	0
678007	WORD	wordpools/wasnorm_wordpool_576.txt	LTP329	ltpFR2	4	4	QUAIL	1147	n/a	n/a	0	0	0
680560	WORD	wordpools/wasnorm_wordpool_576.txt	LTP329	ltpFR2	4	4	COUNTRY	388	n/a	n/a	0	0	0
682995	WORD	wordpools/wasnorm_wordpool_576.txt	LTP329	ltpFR2	4	4	TRACTOR	1493	n/a	n/a	0	0	0
685597	WORD	wordpools/wasnorm_wordpool_576.txt	LTP329	ltpFR2	4	4	VELVET	1555	n/a	n/a	0	0	0
688066	WORD	wordpools/wasnorm_wordpool_576.txt	LTP329	ltpFR2	4	4	MEAT	883	n/a	n/a	0	0	0
690784	WORD	wordpools/wasnorm_wordpool_576.txt	LTP329	ltpFR2	4	4	BLOUSE	139	n/a	n/a	0	0	0
693338	WORD	wordpools/wasnorm_wordpool_576.txt	LTP329	ltpFR2	4	4	STAKE	1368	n/a	n/a	0	0	0
695822	WORD	wordpools/wasnorm_wordpool_576.txt	LTP329	ltpFR2	4	4	GRAVE	658	n/a	n/a	0	0	0
698425	WORD	wordpools/wasnorm_wordpool_576.txt	LTP329	ltpFR2	4	4	FRIEND	606	n/a	n/a	0	0	0
700944	WORD	wordpools/wasnorm_wordpool_576.txt	LTP329	ltpFR2	4	4	BOARD	143	n/a	n/a	0	0	0
703446	WORD	wordpools/wasnorm_wordpool_576.txt	LTP329	ltpFR2	4	4	COMET	353	n/a	n/a	0	0	0
706165	WORD	wordpools/wasnorm_wordpool_576.txt	LTP329	ltpFR2	4	4	IDOL	733	n/a	n/a	0	0	0
708733	WORD	wordpools/wasnorm_wordpool_576.txt	LTP329	ltpFR2	4	4	BROOK	177	n/a	n/a	0	0	0
710353	START	n/a	LTP329	ltpFR2	4	n/a	n/a	n/a	6	n/a	n/a	n/a	n/a
711391	DISTRACTOR	n/a	LTP329	ltpFR2	4	4	n/a	n/a	n/a	n/a	0	0	0
711403	PROB	n/a	LTP329	ltpFR2	4	n/a	n/a	n/a	6	15	1	8	4
714072	PROB	n/a	LTP329	ltpFR2	4	n/a	n/a	n/a	6	13	5	6	2
716241	PROB	n/a	LTP329	ltpFR2	4	n/a	n/a	n/a	6	14	2	4	8
717758	PROB	n/a	LTP329	ltpFR2	4	n/a	n/a	n/a	6	17	5	6	6
719826	PROB	n/a	LTP329	ltpFR2	4	n/a	n/a	n/a	6	20	9	7	4
722646	PROB	n/a	LTP329	ltpFR2	4	n/a	n/a	n/a	6	16	6	1	9
724331	PROB	n/a	LTP329	ltpFR2	4	n/a	n/a	n/a	6	22	6	8	8
728468	PROB	n/a	LTP329	ltpFR2	4	n/a	n/a	n/a	6	18	5	8	5
730270	PROB	n/a	LTP329	ltpFR2	4	n/a	n/a	n/a	6	10	4	5	1
731554	PROB	n/a	LTP329	ltpFR2	4	n/a	n/a	n/a	6	17	7	3	7
733283	STOP	n/a	LTP329	ltpFR2	4	n/a	n/a	n/a	6	n/a	n/a	n/a	n/a
736243	REC_START	n/a	LTP329	ltpFR2	4	4	n/a	n/a	n/a	n/a	0	0	0
738426	REC_WORD	wordpools/wasnorm_wordpool_576.txt	LTP329	ltpFR2	4	4	COMET	353	n/a	n/a	0	0	0
740728	REC_WORD	wordpools/wasnorm_wordpool_576.txt	LTP329	ltpFR2	4	4	GRAVE	658	n/a	n/a	0	0	0
742651	REC_WORD	wordpools/wasnorm_wordpool_576.txt	LTP329	ltpFR2	4	4	FRIEND	606	n/a	n/a	0	0	0
745154	REC_WORD	wordpools/wasnorm_wordpool_576.txt	LTP329	ltpFR2	4	4	COUNTRY	388	n/a	n/a	0	0	0
747210	REC_WORD	wordpools/wasnorm_wordpool_576.txt	LTP329	ltpFR2	4	4	TRACTOR	1493	n/a	n/a	0	0	0
751637	REC_WORD	wordpools/wasnorm_wordpool_576.txt	LTP329	ltpFR2	4	4	COUCH	386	n/a	n/a	0	0	0
754180	REC_WORD	wordpools/wasnorm_wordpool_576.txt	LTP329	ltpFR2	4	4	PADDING	999	n/a	n/a	0	0	0
756405	REC_WORD	wordpools/wasnorm_wordpool_576.txt	LTP329	ltpFR2	4	4	PIZZA	1079	n/a	n/a	0	0	0
759067	REC_WORD	wordpools/wasnorm_wordpool_576.txt	LTP329	ltpFR2	4	4	QUAIL	1147	n/a	n/a	0	0	0
763258	REC_WORD	wordpools/wasnorm_wordpool_576.txt	LTP329	ltpFR2	4	4	EGYPT	519	n/a	n/a	0	0	0
765671	REC_WORD	wordpools/wasnorm_wordpool_576.txt	LTP329	ltpFR2	4	4	MUMMY	932	n/a	n/a	0	0	0
768503	REC_WORD	wordpools/wasnorm_wordpool_576.txt	LTP329	ltpFR2	4	4	PRINCE	1124	n/a	n/a	0	0	0
792836	REC_WORD	wordpools/wasnorm_wordpool_576.txt	LTP329	ltpFR2	4	4	STAKE	1368	n/a	n/a	0	0	0
794847	REC_WORD	wordpools/wasnorm_wordpool_576.txt	LTP329	ltpFR2	4	4	MEAT	883	n/a	n/a	0	0	0
826886	WORD	wordpools/wasnorm_wordpool_576.txt	LTP329	ltpFR2	4	5	CIGAR	308	n/a	n/a	0	0	0
829423	WORD	wordpools/wasnorm_wordpool_576.txt	LTP329	ltpFR2	4	5	PIGEON	1065	n/a	n/a	0	0	0
832175	WORD	wordpools/wasnorm_wordpool_576.txt	LTP329	ltpFR2	4	5	ROOSTER	1209	n/a	n/a	0	0	0
834928	WORD	wordpools/wasnorm_wordpool_576.txt	LTP329	ltpFR2	4	5	PLUTO	1092	n/a	n/a	0	0	0
837513	WORD	wordpools/wasnorm_wordpool_576.txt	LTP329	ltpFR2	4	5	MISSILE	900	n/a	n/a	0	0	0
840065	WORD	wordpools/wasnorm_wordpool_576.txt	LTP329	ltpFR2	4	5	SCISSORS	1250	n/a	n/a	0	0	0
842567	WORD	wordpools/wasnorm_wordpool_576.txt	LTP329	ltpFR2	4	5	BEAST	108	n/a	n/a	0	0	0
845136	WORD	wordpools/wasnorm_wordpool_576.txt	LTP329	ltpFR2	4	5	PECAN	1036	n/a	n/a	0	0	0
847855	WORD	wordpools/wasnorm_wordpool_576.txt	LTP329	ltpFR2	4	5	WRIST	1626	n/a	n/a	0	0	0
850674	WORD	wordpools/wasnorm_wordpool_576.txt	LTP329	ltpFR2	4	5	PEANUT	1032	n/a	n/a	0	0	0
853410	WORD	wordpools/wasnorm_wordpool_576.txt	LTP329	ltpFR2	4	5	TUNNEL	1519	n/a	n/a	0	0	0
855878	WORD	wordpools/wasnorm_wordpool_576.txt	LTP329	ltpFR2	4	5	STICKER	1382	n/a	n/a	0	0	0
858398	WORD	wordpools/wasnorm_wordpool_576.txt	LTP329	ltpFR2	4	5	SHOVEL	1295	n/a	n/a	0	0	0
861084	WORD	wordpools/wasnorm_wordpool_576.txt	LTP329	ltpFR2	4	5	INMATE	738	n/a	n/a	0	0	0
863603	WORD	wordpools/wasnorm_wordpool_576.txt	LTP329	ltpFR2	4	5	OUTLAW	989	n/a	n/a	0	0	0
866405	WORD	wordpools/wasnorm_wordpool_576.txt	LTP329	ltpFR2	4	5	SCALPEL	1243	n/a	n/a	0	0	0
868890	WORD	wordpools/wasnorm_wordpool_576.txt	LTP329	ltpFR2	4	5	SILK	1307	n/a	n/a	0	0	0
871459	WORD	wordpools/wasnorm_wordpool_576.txt	LTP329	ltpFR2	4	5	SWITCH	1422	n/a	n/a	0	0	0
873894	WORD	wordpools/wasnorm_wordpool_576.txt	LTP329	ltpFR2	4	5	BUCKET	184	n/a	n/a	0	0	0
876730	WORD	wordpools/wasnorm_wordpool_576.txt	LTP329	ltpFR2	4	5	DUSTPAN	509	n/a	n/a	0	0	0
879316	WORD	wordpools/wasnorm_wordpool_576.txt	LTP329	ltpFR2	4	5	MOP	916	n/a	n/a	0	0	0
881767	WORD	wordpools/wasnorm_wordpool_576.txt	LTP329	ltpFR2	4	5	BRICK	172	n/a	n/a	0	0	0
884254	WORD	wordpools/wasnorm_wordpool_576.txt	LTP329	ltpFR2	4	5	SUNRISE	1407	n/a	n/a	0	0	0
887056	WORD	wordpools/wasnorm_wordpool_576.txt	LTP329	ltpFR2	4	5	ELBOW	520	n/a	n/a	0	0	0
888674	START	n/a	LTP329	ltpFR2	4	n/a	n/a	n/a	7	n/a	n/a	n/a	n/a
889530	DISTRACTOR	n/a	LTP329	ltpFR2	4	5	n/a	n/a	n/a	n/a	0	0	0
889559	PROB	n/a	LTP329	ltpFR2	4	n/a	n/a	n/a	7	9	4	2	3
891994	PROB	n/a	LTP329	ltpFR2	4	n/a	n/a	n/a	7	20	7	6	7
893811	PROB	n/a	LTP329	ltpFR2	4	n/a	n/a	n/a	7	21	9	3	9
895547	PROB	n/a	LTP329	ltpFR2	4	n/a	n/a	n/a	7	6	1	1	4
896648	PROB	n/a	LTP329	ltpFR2	4	n/a	n/a	n/a	7	11	2	4	5
898650	PROB	n/a	LTP329	ltpFR2	4	n/a	n/a	n/a	7	12	3	6	3
900435	PROB	n/a	LTP329	ltpFR2	4	n/a	n/a	n/a	7	14	4	4	6
902169	PROB	n/a	LTP329	ltpFR2	4	n/a	n/a	n/a	7	13	8	1	4
903938	PROB	n/a	LTP329	ltpFR2	4	n/a	n/a	n/a	7	12	3	5	4
906006	PROB	n/a	LTP329	ltpFR2	4	n/a	n/a	n/a	7	11	5	5	1
907224	PROB	n/a	LTP329	ltpFR2	4	n/a	n/a	n/a	7	11	7	1	3
908475	PROB	n/a	LTP329	ltpFR2	4	n/a	n/a	n/a	7	15	3	4	8
910160	PROB	n/a	LTP329	ltpFR2	4	n/a	n/a	n/a	7	10	2	6	2
911450	STOP	n/a	LTP329	ltpFR2	4	n/a	n/a	n/a	7	n/a	n/a	n/a	n/a
914447	REC_START	n/a	LTP329	ltpFR2	4	5	n/a	n/a	n/a	n/a	0	0	0
916204	REC_WORD	wordpools/wasnorm_wordpool_576.txt	LTP329	ltpFR2	4	5	WRIST	1626	n/a	n/a	0	0	0
918147	REC_WORD	wordpools/wasnorm_wordpool_576.txt	LTP329	ltpFR2	4	5	ELBOW	520	n/a	n/a	0	0	0
921552	REC_WORD	wordpools/wasnorm_wordpool_576.txt	LTP329	ltpFR2	4	5	PIGEON	1065	n/a	n/a	0	0	0
924214	REC_WORD	wordpools/wasnorm_wordpool_576.txt	LTP329	ltpFR2	4	5	PECAN	1036	n/a	n/a	0	0	0
926563	REC_WORD	wordpools/wasnorm_wordpool_576.txt	LTP329	ltpFR2	4	5	PEANUT	1032	n/a	n/a	0	0	0
929349	REC_WORD	wordpools/wasnorm_wordpool_576.txt	LTP329	ltpFR2	4	5	INMATE	738	n/a	n/a	0	0	0
937888	REC_WORD	wordpools/wasnorm_wordpool_576.txt	LTP329	ltpFR2	4	5	STICKER	1382	n/a	n/a	0	0	0
942045	REC_WORD	wordpools/wasnorm_wordpool_576.txt	LTP329	ltpFR2	4	5	SILK	1307	n/a	n/a	0	0	0
950196	REC_WORD	wordpools/wasnorm_wordpool_576.txt	LTP329	ltpFR2	4	5	PLUTO	1092	n/a	n/a	0	0	0
953188	REC_WORD	wordpools/wasnorm_wordpool_576.txt	LTP329	ltpFR2	4	5	MISSILE	900	n/a	n/a	0	0	0
959887	REC_WORD	wordpools/wasnorm_wordpool_576.txt	LTP329	ltpFR2	4	5	DUSTPAN	509	n/a	n/a	0	0	0
962833	REC_WORD	wordpools/wasnorm_wordpool_576.txt	LTP329	ltpFR2	4	5	BUCKET	184	n/a	n/a	0	0	0
1004926	WORD	wordpools/wasnorm_wordpool_576.txt	LTP329	ltpFR2	4	6	CRAB	397	n/a	n/a	0	0	0
1007394	WORD	wordpools/wasnorm_wordpool_576.txt	LTP329	ltpFR2	4	6	STREAM	1392	n/a	n/a	0	0	0
1010147	WORD	wordpools/wasnorm_wordpool_576.txt	LTP329	ltpFR2	4	6	PICNIC	1060	n/a	n/a	0	0	0
1012649	WORD	wordpools/wasnorm_wordpool_576.txt	LTP329	ltpFR2	4	6	VAGRANT	1544	n/a	n/a	0	0	0
1015351	WORD	wordpools/wasnorm_wordpool_576.txt	LTP329	ltpFR2	4	6	VICTIM	1562	n/a	n/a	0	0	0
1017937	WORD	wordpools/wasnorm_wordpool_576.txt	LTP329	ltpFR2	4	6	LIPSTICK	829	n/a	n/a	0	0	0
1020539	WORD	wordpools/wasnorm_wordpool_576.txt	LTP329	ltpFR2	4	6	GIRL	637	n/a	n/a	0	0	0
1023258	WORD	wordpools/wasnorm_wordpool_576.txt	LTP329	ltpFR2	4	6	ASIA	46	n/a	n/a	0	0	0
1026011	WORD	wordpools/wasnorm_wordpool_576.txt	LTP329	ltpFR2	4	6	JAPAN	749	n/a	n/a	0	0	0
1028646	WORD	wordpools/wasnorm_wordpool_576.txt	LTP329	ltpFR2	4	6	LEADER	807	n/a	n/a	0	0	0
1031415	WORD	wordpools/wasnorm_wordpool_576.txt	LTP329	ltpFR2	4	6	COOKBOOK	373	n/a	n/a	0	0	0
1034168	WORD	wordpools/wasnorm_wordpool_576.txt	LTP329	ltpFR2	4	6	GRILL	661	n/a	n/a	0	0	0
1036669	WORD	wordpools/wasnorm_wordpool_576.txt	LTP329	ltpFR2	4	6	CHAPEL	280	n/a	n/a	0	0	0
1039422	WORD	wordpools/wasnorm_wordpool_576.txt	LTP329	ltpFR2	4	6	STAPLE	1371	n/a	n/a	0	0	0
1042025	WORD	wordpools/wasnorm_wordpool_576.txt	LTP329	ltpFR2	4	6	STAR	1373	n/a	n/a	0	0	0
1044776	WORD	wordpools/wasnorm_wordpool_576.txt	LTP329	ltpFR2	4	6	SPARROW	1347	n/a	n/a	0	0	0
1047329	WORD	wordpools/wasnorm_wordpool_576.txt	LTP329	ltpFR2	4	6	YACHT	1629	n/a	n/a	0	0	0
1049831	WORD	wordpools/wasnorm_wordpool_576.txt	LTP329	ltpFR2	4	6	CRICKET	408	n/a	n/a	0	0	0
1052634	WORD	wordpools/wasnorm_wordpool_576.txt	LTP329	ltpFR2	4	6	THIEF	1456	n/a	n/a	0	0	0
1055103	WORD	wordpools/wasnorm_wordpool_576.txt	LTP329	ltpFR2	4	6	LADY	794	n/a	n/a	0	0	0
1057787	WORD	wordpools/wasnorm_wordpool_576.txt	LTP329	ltpFR2	4	6	WORLD	1622	n/a	n/a	0	0	0
1060507	WORD	wordpools/wasnorm_wordpool_576.txt	LTP329	ltpFR2	4	6	PRIMATE	1123	n/a	n/a	0	0	0
1063343	WORD	wordpools/wasnorm_wordpool_576.txt	LTP329	ltpFR2	4	6	BUG	187	n/a	n/a	0	0	0
1066012	WORD	wordpools/wasnorm_wordpool_576.txt	LTP329	ltpFR2	4	6	BINDER	127	n/a	n/a	0	0	0
1067631	START	n/a	LTP329	ltpFR2	4	n/a	n/a	n/a	8	n/a	n/a	n/a	n/a
1068560	DISTRACTOR	n/a	LTP329	ltpFR2	4	6	n/a	n/a	n/a	n/a	0	0	0
1068581	PROB	n/a	LTP329	ltpFR2	4	n/a	n/a	n/a	8	16	2	8	6
1071234	PROB	n/a	LTP329	ltpFR2	4	n/a	n/a	n/a	8	24	9	7	8
1074786	PROB	n/a	LTP329	ltpFR2	4	n/a	n/a	n/a	8	12	7	3	2
1076188	PROB	n/a	LTP329	ltpFR2	4	n/a	n/a	n/a	8	14	9	4	1
1077472	PROB	n/a	LTP329	ltpFR2	4	n/a	n/a	n/a	8	14	4	5	5
1078739	PROB	n/a	LTP329	ltpFR2	4	n/a	n/a	n/a	8	7	2	4	1
1080275	PROB	n/a	LTP329	ltpFR2	4	n/a	n/a	n/a	8	14	4	7	3
1081943	PROB	n/a	LTP329	ltpFR2	4	n/a	n/a	n/a	8	17	4	7	6
1084245	PROB	n/a	LTP329	ltpFR2	4	n/a	n/a	n/a	8	14	5	6	3
1086180	PROB	n/a	LTP329	ltpFR2	4	n/a	n/a	n/a	8	10	6	1	3
1088398	PROB	n/a	LTP329	ltpFR2	4	n/a	n/a	n/a	8	15	3	5	7
1091631	STOP	n/a	LTP329	ltpFR2	4	n/a	n/a	n/a	8	n/a	n/a	n/a	n/a
1093604	REC_START	n/a	LTP329	ltpFR2	4	6	n/a	n/a	n/a	n/a	0	0	0
1095787	REC_WORD	wordpools/wasnorm_wordpool_576.txt	LTP329	ltpFR2	4	6	BUG	187	n/a	n/a	0	0	0
1097877	REC_WORD	wordpools/wasnorm_wordpool_576.txt	LTP329	ltpFR2	4	6	SPARROW	1347	n/a	n/a	0	0	0
1112360	REC_WORD	wordpools/wasnorm_wordpool_576.txt	LTP329	ltpFR2	4	6	ASIA	46	n/a	n/a	0	0	0
1114724	REC_WORD	wordpools/wasnorm_wordpool_576.txt	LTP329	ltpFR2	4	6	JAPAN	749	n/a	n/a	0	0	0
1117043	REC_WORD	wordpools/wasnorm_wordpool_576.txt	LTP329	ltpFR2	4	6	LEADER	807	n/a	n/a	0	0	0
1120153	REC_WORD	wordpools/wasnorm_wordpool_576.txt	LTP329	ltpFR2	4	6	CHAPEL	280	n/a	n/a	0	0	0
1123323	REC_WORD	wordpools/wasnorm_wordpool_576.txt	LTP329	ltpFR2	4	6	STAPLE	1371	n/a	n/a	0	0	0
1127151	REC_WORD	wordpools/wasnorm_wordpool_576.txt	LTP329	ltpFR2	4	6	LADY	794	n/a	n/a	0	0	0
1129791	REC_WORD	wordpools/wasnorm_wordpool_576.txt	LTP329	ltpFR2	4	6	GIRL	637	n/a	n/a	0	0	0
1132342	REC_WORD	wordpools/wasnorm_wordpool_576.txt	LTP329	ltpFR2	4	6	LIPSTICK	829	n/a	n/a	0	0	0
1184049	DISTRACTOR	n/a	LTP329	ltpFR2	4	7	n/a	n/a	n/a	n/a	0	0	0
1184049	START	n/a	LTP329	ltpFR2	4	n/a	n/a	n/a	9	n/a	n/a	n/a	n/a
1184065	PROB	n/a	LTP329	ltpFR2	4	n/a	n/a	n/a	9	19	5	6	8
1186167	PROB	n/a	LTP329	ltpFR2	4	n/a	n/a	n/a	9	11	6	4	1
1187268	PROB	n/a	LTP329	ltpFR2	4	n/a	n/a	n/a	9	22	8	8	6
1189186	PROB	n/a	LTP329	ltpFR2	4	n/a	n/a	n/a	9	14	3	8	3
1191238	PROB	n/a	LTP329	ltpFR2	4	n/a	n/a	n/a	9	12	2	1	9
1192705	PROB	n/a	LTP329	ltpFR2	4	n/a	n/a	n/a	9	13	5	7	1
1195791	PROB	n/a	LTP329	ltpFR2	4	n/a	n/a	n/a	9	9	4	1	4
1197210	PROB	n/a	LTP329	ltpFR2	4	n/a	n/a	n/a	9	18	5	6	7
1199579	PROB	n/a	LTP329	ltpFR2	4	n/a	n/a	n/a	9	15	7	4	4
1201647	PROB	n/a	LTP329	ltpFR2	4	n/a	n/a	n/a	9	7	1	3	3
1203198	PROB	n/a	LTP329	ltpFR2	4	n/a	n/a	n/a	9	18	5	4	9
1206614	STOP	n/a	LTP329	ltpFR2	4	n/a	n/a	n/a	9	n/a	n/a	n/a	n/a
1209070	WORD	wordpools/wasnorm_wordpool_576.txt	LTP329	ltpFR2	4	7	DIME	466	n/a	n/a	0	0	0
1211656	WORD	wordpools/wasnorm_wordpool_576.txt	LTP329	ltpFR2	4	7	GYMNAST	675	n/a	n/a	0	0	0
1214175	WORD	wordpools/wasnorm_wordpool_576.txt	LTP329	ltpFR2	4	7	MEDAL	885	n/a	n/a	0	0	0
1216809	WORD	wordpools/wasnorm_wordpool_576.txt	LTP329	ltpFR2	4	7	CRATER	400	n/a	n/a	0	0	0
1219246	WORD	wordpools/wasnorm_wordpool_576.txt	LTP329	ltpFR2	4	7	SCOTCH	1251	n/a	n/a	0	0	0
1221730	WORD	wordpools/wasnorm_wordpool_576.txt	LTP329	ltpFR2	4	7	WINDOW	1611	n/a	n/a	0	0	0
1224367	WORD	wordpools/wasnorm_wordpool_576.txt	LTP329	ltpFR2	4	7	MAILBOX	857	n/a	n/a	0	0	0
1227003	WORD	wordpools/wasnorm_wordpool_576.txt	LTP329	ltpFR2	4	7	NEUTRON	947	n/a	n/a	0	0	0
1229737	WORD	wordpools/wasnorm_wordpool_576.txt	LTP329	ltpFR2	4	7	DANDRUFF	439	n/a	n/a	0	0	0
1232224	WORD	wordpools/wasnorm_wordpool_576.txt	LTP329	ltpFR2	4	7	LAVA	804	n/a	n/a	0	0	0
1235010	WORD	wordpools/wasnorm_wordpool_576.txt	LTP329	ltpFR2	4	7	HORNET	718	n/a	n/a	0	0	0
1237595	WORD	wordpools/wasnorm_wordpool_576.txt	LTP329	ltpFR2	4	7	HONEY	713	n/a	n/a	0	0	0
1240264	WORD	wordpools/wasnorm_wordpool_576.txt	LTP329	ltpFR2	4	7	WHISKERS	1605	n/a	n/a	0	0	0
1243017	WORD	wordpools/wasnorm_wordpool_576.txt	LTP329	ltpFR2	4	7	TURNIP	1521	n/a	n/a	0	0	0
1245735	WORD	wordpools/wasnorm_wordpool_576.txt	LTP329	ltpFR2	4	7	PASTA	1021	n/a	n/a	0	0	0
1248271	WORD	wordpools/wasnorm_wordpool_576.txt	LTP329	ltpFR2	4	7	MAILMAN	858	n/a	n/a	0	0	0
1250957	WORD	wordpools/wasnorm_wordpool_576.txt	LTP329	ltpFR2	4	7	SEAL	1262	n/a	n/a	0	0	0
1253643	WORD	wordpools/wasnorm_wordpool_576.txt	LTP329	ltpFR2	4	7	STOMACH	1384	n/a	n/a	0	0	0
1256128	WORD	wordpools/wasnorm_wordpool_576.txt	LTP329	ltpFR2	4	7	GIFT	635	n/a	n/a	0	0	0
1258597	WORD	wordpools/wasnorm_wordpool_576.txt	LTP329	ltpFR2	4	7	GHETTO	633	n/a	n/a	0	0	0
1261282	WORD	wordpools/wasnorm_wordpool_576.txt	LTP329	ltpFR2	4	7	ROD	1203	n/a	n/a	0	0	0
1263734	WORD	wordpools/wasnorm_wordpool_576.txt	LTP329	ltpFR2	4	7	EMPIRE	530	n/a	n/a	0	0	0
1266203	WORD	wordpools/wasnorm_wordpool_576.txt	LTP329	ltpFR2	4	7	DRINK	498	n/a	n/a	0	0	0
1268639	WORD	wordpools/wasnorm_wordpool_576.txt	LTP329	ltpFR2	4	7	CREVICE	405	n/a	n/a	0	0	0
1270257	START	n/a	LTP329	ltpFR2	4	n/a	n/a	n/a	10	n/a	n/a	n/a	n/a
1271075	DISTRACTOR	n/a	LTP329	ltpFR2	4	7	n/a	n/a	n/a	n/a	0	0	0
1271091	PROB	n/a	LTP329	ltpFR2	4	n/a	n/a	n/a	10	15	4	6	5
1275045	PROB	n/a	LTP329	ltpFR2	4	n/a	n/a	n/a	10	14	3	4	7
1276379	PROB	n/a	LTP329	ltpFR2	4	n/a	n/a	n/a	10	11	2	2	7
1278447	PROB	n/a	LTP329	ltpFR2	4	n/a	n/a	n/a	10	14	2	6	6
1279915	PROB	n/a	LTP329	ltpFR2	4	n/a	n/a	n/a	10	12	1	9	2
1281016	PROB	n/a	LTP329	ltpFR2	4	n/a	n/a	n/a	10	13	5	4	4
1284336	PROB	n/a	LTP329	ltpFR2	4	n/a	n/a	n/a	10	7	2	3	2
1286087	PROB	n/a	LTP329	ltpFR2	4	n/a	n/a	n/a	10	9	6	2	1
1289057	PROB	n/a	LTP329	ltpFR2	4	n/a	n/a	n/a	10	13	4	2	7
1290891	PROB	n/a	LTP329	ltpFR2	4	n/a	n/a	n/a	10	12	6	3	3
1292840	STOP	n/a	LTP329	ltpFR2	4	n/a	n/a	n/a	10	n/a	n/a	n/a	n/a
1296130	REC_START	n/a	LTP329	ltpFR2	4	7	n/a	n/a	n/a	n/a	0	0	0
1297376	REC_WORD	wordpools/wasnorm_wordpool_576.txt	LTP329	ltpFR2	4	7	CREVICE	405	n/a	n/a	0	0	0
1299496	REC_WORD	wordpools/wasnorm_wordpool_576.txt	LTP329	ltpFR2	4	7	CRATER	400	n/a	n/a	0	0	0
1304716	REC_WORD	wordpools/wasnorm_wordpool_576.txt	LTP329	ltpFR2	4	7	DRINK	498	n/a	n/a	0	0	0
1307463	REC_WORD	wordpools/wasnorm_wordpool_576.txt	LTP329	ltpFR2	4	7	PASTA	1021	n/a	n/a	0	0	0
1386774	DISTRACTOR	n/a	LTP329	ltpFR2	4	8	n/a	n/a	n/a	n/a	0	0	0
1386774	START	n/a	LTP329	ltpFR2	4	n/a	n/a	n/a	11	n/a	n/a	n/a	n/a
1386807	PROB	n/a	LTP329	ltpFR2	4	n/a	n/a	n/a	11	15	1	9	5
1389561	PROB	n/a	LTP329	ltpFR2	4	n/a	n/a	n/a	11	14	2	8	4
1391229	PROB	n/a	LTP329	ltpFR2	4	n/a	n/a	n/a	11	18	7	3	8
1392829	PROB	n/a	LTP329	ltpFR2	4	n/a	n/a	n/a	11	17	7	6	4
1394698	PROB	n/a	LTP329	ltpFR2	4	n/a	n/a	n/a	11	17	9	6	2
1397334	PROB	n/a	LTP329	ltpFR2	4	n/a	n/a	n/a	11	17	2	9	6
1398952	PROB	n/a	LTP329	ltpFR2	4	n/a	n/a	n/a	11	17	2	6	9
1402072	PROB	n/a	LTP329	ltpFR2	4	n/a	n/a	n/a	11	10	3	5	2
1404541	PROB	n/a	LTP329	ltpFR2	4	n/a	n/a	n/a	11	12	6	3	3
1406025	PROB	n/a	LTP329	ltpFR2	4	n/a	n/a	n/a	11	17	9	6	1
1407876	PROB	n/a	LTP329	ltpFR2	4	n/a	n/a	n/a	11	16	4	5	7
1410486	STOP	n/a	LTP329	ltpFR2	4	n/a	n/a	n/a	11	n/a	n/a	n/a	n/a
1411779	WORD	wordpools/wasnorm_wordpool_576.txt	LTP329	ltpFR2	4	8	PREACHER	1119	n/a	n/a	0	0	0
1414216	WORD	wordpools/wasnorm_wordpool_576.txt	LTP329	ltpFR2	4	8	SUPPER	1411	n/a	n/a	0	0	0
1416667	WORD	wordpools/wasnorm_wordpool_576.txt	LTP329	ltpFR2	4	8	BACON	67	n/a	n/a	0	0	0
1419304	WORD	wordpools/wasnorm_wordpool_576.txt	LTP329	ltpFR2	4	8	QUARTER	1148	n/a	n/a	0	0	0
1421972	WORD	wordpools/wasnorm_wordpool_576.txt	LTP329	ltpFR2	4	8	SUMMIT	1405	n/a	n/a	0	0	0
1424508	WORD	wordpools/wasnorm_wordpool_576.txt	LTP329	ltpFR2	4	8	LUNCH	849	n/a	n/a	0	0	0
1427294	WORD	wordpools/wasnorm_wordpool_576.txt	LTP329	ltpFR2	4	8	PARENT	1013	n/a	n/a	0	0	0
1430113	WORD	wordpools/wasnorm_wordpool_576.txt	LTP329	ltpFR2	4	8	DOUGHNUT	490	n/a	n/a	0	0	0
1432582	WORD	wordpools/wasnorm_wordpool_576.txt	LTP329	ltpFR2	4	8	FOOT	590	n/a	n/a	0	0	0
1435034	WORD	wordpools/wasnorm_wordpool_576.txt	LTP329	ltpFR2	4	8	CROSS	413	n/a	n/a	0	0	0
1437752	WORD	wordpools/wasnorm_wordpool_576.txt	LTP329	ltpFR2	4	8	ICING	732	n/a	n/a	0	0	0
1440222	WORD	wordpools/wasnorm_wordpool_576.txt	LTP329	ltpFR2	4	8	GANGSTER	620	n/a	n/a	0	0	0
1442790	WORD	wordpools/wasnorm_wordpool_576.txt	LTP329	ltpFR2	4	8	SPHINX	1349	n/a	n/a	0	0	0
1445326	WORD	wordpools/wasnorm_wordpool_576.txt	LTP329	ltpFR2	4	8	PORTRAIT	1111	n/a	n/a	0	0	0
1447761	WORD	wordpools/wasnorm_wordpool_576.txt	LTP329	ltpFR2	4	8	DRAWING	494	n/a	n/a	0	0	0
1450264	WORD	wordpools/wasnorm_wordpool_576.txt	LTP329	ltpFR2	4	8	COTTAGE	384	n/a	n/a	0	0	0
1452748	WORD	wordpools/wasnorm_wordpool_576.txt	LTP329	ltpFR2	4	8	LOFT	840	n/a	n/a	0	0	0
1455502	WORD	wordpools/wasnorm_wordpool_576.txt	LTP329	ltpFR2	4	8	FIREMAN	569	n/a	n/a	0	0	0
1458104	WORD	wordpools/wasnorm_wordpool_576.txt	LTP329	ltpFR2	4	8	SCRIBBLE	1256	n/a	n/a	0	0	0
1460805	WORD	wordpools/wasnorm_wordpool_576.txt	LTP329	ltpFR2	4	8	HEDGE	699	n/a	n/a	0	0	0
1463342	WORD	wordpools/wasnorm_wordpool_576.txt	LTP329	ltpFR2	4	8	LUMBER	848	n/a	n/a	0	0	0
1465860	WORD	wordpools/wasnorm_wordpool_576.txt	LTP329	ltpFR2	4	8	BOYFRIEND	162	n/a	n/a	0	0	0
1468513	WORD	wordpools/wasnorm_wordpool_576.txt	LTP329	ltpFR2	4	8	POISON	1096	n/a	n/a	0	0	0
1470982	WORD	wordpools/wasnorm_wordpool_576.txt	LTP329	ltpFR2	4	8	EAGLE	512	n/a	n/a	0	0	0
1472600	START	n/a	LTP329	ltpFR2	4	n/a	n/a	n/a	12	n/a	n/a	n/a	n/a
1473523	DISTRACTOR	n/a	LTP329	ltpFR2	4	8	n/a	n/a	n/a	n/a	0	0	0
1473534	PROB	n/a	LTP329	ltpFR2	4	n/a	n/a	n/a	12	24	6	8	9
1479589	PROB	n/a	LTP329	ltpFR2	4	n/a	n/a	n/a	12	20	7	4	9
1482775	PROB	n/a	LTP329	ltpFR2	4	n/a	n/a	n/a	12	7	1	3	3
1484143	PROB	n/a	LTP329	ltpFR2	4	n/a	n/a	n/a	12	12	3	8	1
1487729	PROB	n/a	LTP329	ltpFR2	4	n/a	n/a	n/a	12	12	1	7	4
1489281	PROB	n/a	LTP329	ltpFR2	4	n/a	n/a	n/a	12	17	9	3	5
1492150	PROB	n/a	LTP329	ltpFR2	4	n/a	n/a	n/a	12	18	6	8	4
1496600	STOP	n/a	LTP329	ltpFR2	4	n/a	n/a	n/a	12	n/a	n/a	n/a	n/a
1498390	REC_START	n/a	LTP329	ltpFR2	4	8	n/a	n/a	n/a	n/a	0	0	0
1502591	REC_WORD	wordpools/wasnorm_wordpool_576.txt	LTP329	ltpFR2	4	8	PREACHER	1119	n/a	n/a	0	0	0
1504767	REC_WORD	wordpools/wasnorm_wordpool_576.txt	LTP329	ltpFR2	4	8	CROSS	413	n/a	n/a	0	0	0
1508123	REC_WORD	wordpools/wasnorm_wordpool_576.txt	LTP329	ltpFR2	4	8	FOOT	590	n/a	n/a	0	0	0
1510581	REC_WORD	wordpools/wasnorm_wordpool_576.txt	LTP329	ltpFR2	4	8	POISON	1096	n/a	n/a	0	0	0
1512781	REC_WORD	wordpools/wasnorm_wordpool_576.txt	LTP329	ltpFR2	4	8	QUARTER	1148	n/a	n/a	0	0	0
1517082	REC_WORD	wordpools/wasnorm_wordpool_576.txt	LTP329	ltpFR2	4	8	BACON	67	n/a	n/a	0	0	0
1518920	REC_WORD	wordpools/wasnorm_wordpool_576.txt	LTP329	ltpFR2	4	8	SUPPER	1411	n/a	n/a	0	0	0
1521465	REC_WORD	wordpools/wasnorm_wordpool_576.txt	LTP329	ltpFR2	4	8	LUNCH	849	n/a	n/a	0	0	0
1523357	REC_WORD	wordpools/wasnorm_wordpool_576.txt	LTP329	ltpFR2	4	8	LOFT	840	n/a	n/a	0	0	0
1525503	REC_WORD	wordpools/wasnorm_wordpool_576.txt	LTP329	ltpFR2	4	8	ICING	732	n/a	n/a	0	0	0
1527528	REC_WORD	wordpools/wasnorm_wordpool_576.txt	LTP329	ltpFR2	4	8	FIREMAN	569	n/a	n/a	0	0	0
1544856	REC_WORD	wordpools/wasnorm_wordpool_576.txt	LTP329	ltpFR2	4	8	EAGLE	512	n/a	n/a	0	0	0
1574939	REST_REWET	n/a	LTP329	ltpFR2	4	8	n/a	n/a	n/a	n/a	0	0	0
1890381	DISTRACTOR	n/a	LTP329	ltpFR2	4	9	n/a	n/a	n/a	n/a	0	0	0
1890381	START	n/a	LTP329	ltpFR2	4	n/a	n/a	n/a	13	n/a	n/a	n/a	n/a
1890397	PROB	n/a	LTP329	ltpFR2	4	n/a	n/a	n/a	13	13	3	9	1
1891915	PROB	n/a	LTP329	ltpFR2	4	n/a	n/a	n/a	13	14	2	7	4
1893417	PROB	n/a	LTP329	ltpFR2	4	n/a	n/a	n/a	13	14	3	7	4
1894884	PROB	n/a	LTP329	ltpFR2	4	n/a	n/a	n/a	13	14	6	6	2
1896169	PROB	n/a	LTP329	ltpFR2	4	n/a	n/a	n/a	13	20	8	7	5
1898271	PROB	n/a	LTP329	ltpFR2	4	n/a	n/a	n/a	13	14	3	8	3
1899972	PROB	n/a	LTP329	ltpFR2	4	n/a	n/a	n/a	13	21	4	8	9
1902041	PROB	n/a	LTP329	ltpFR2	4	n/a	n/a	n/a	13	18	7	8	3
1903526	PROB	n/a	LTP329	ltpFR2	4	n/a	n/a	n/a	13	21	6	9	6
1905743	PROB	n/a	LTP329	ltpFR2	4	n/a	n/a	n/a	13	10	6	1	3
1908563	PROB	n/a	LTP329	ltpFR2	4	n/a	n/a	n/a	13	13	3	7	3
1909897	PROB	n/a	LTP329	ltpFR2	4	n/a	n/a	n/a	13	16	6	7	3
1914381	STOP	n/a	LTP329	ltpFR2	4	n/a	n/a	n/a	13	n/a	n/a	n/a	n/a
1915286	WORD	wordpools/wasnorm_wordpool_576.txt	LTP329	ltpFR2	4	9	HARP	689	n/a	n/a	0	0	0
1918021	WORD	wordpools/wasnorm_wordpool_576.txt	LTP329	ltpFR2	4	9	JELLY	755	n/a	n/a	0	0	0
1920823	WORD	wordpools/wasnorm_wordpool_576.txt	LTP329	ltpFR2	4	9	SISTER	1312	n/a	n/a	0	0	0
1923610	WORD	wordpools/wasnorm_wordpool_576.txt	LTP329	ltpFR2	4	9	BACKBONE	66	n/a	n/a	0	0	0
1926079	WORD	wordpools/wasnorm_wordpool_576.txt	LTP329	ltpFR2	4	9	BLACKBOARD	133	n/a	n/a	0	0	0
1928614	WORD	wordpools/wasnorm_wordpool_576.txt	LTP329	ltpFR2	4	9	FLOWER	584	n/a	n/a	0	0	0
1931433	WORD	wordpools/wasnorm_wordpool_576.txt	LTP329	ltpFR2	4	9	BURGLAR	200	n/a	n/a	0	0	0
1934219	WORD	wordpools/wasnorm_wordpool_576.txt	LTP329	ltpFR2	4	9	BREAST	171	n/a	n/a	0	0	0
1936971	WORD	wordpools/wasnorm_wordpool_576.txt	LTP329	ltpFR2	4	9	RACKET	1155	n/a	n/a	0	0	0
1939557	WORD	wordpools/wasnorm_wordpool_576.txt	LTP329	ltpFR2	4	9	CREATURE	403	n/a	n/a	0	0	0
1942109	WORD	wordpools/wasnorm_wordpool_576.txt	LTP329	ltpFR2	4	9	INFANT	737	n/a	n/a	0	0	0
1944827	WORD	wordpools/wasnorm_wordpool_576.txt	LTP329	ltpFR2	4	9	RATTLE	1170	n/a	n/a	0	0	0
1947581	WORD	wordpools/wasnorm_wordpool_576.txt	LTP329	ltpFR2	4	9	SPOON	1357	n/a	n/a	0	0	0
1950283	WORD	wordpools/wasnorm_wordpool_576.txt	LTP329	ltpFR2	4	9	SNAIL	1332	n/a	n/a	0	0	0
1952952	WORD	wordpools/wasnorm_wordpool_576.txt	LTP329	ltpFR2	4	9	CLAM	315	n/a	n/a	0	0	0
1955454	WORD	wordpools/wasnorm_wordpool_576.txt	LTP329	ltpFR2	4	9	TUTU	1524	n/a	n/a	0	0	0
1958106	WORD	wordpools/wasnorm_wordpool_576.txt	LTP329	ltpFR2	4	9	ULCER	1533	n/a	n/a	0	0	0
1960625	WORD	wordpools/wasnorm_wordpool_576.txt	LTP329	ltpFR2	4	9	MARKER	870	n/a	n/a	0	0	0
1963111	WORD	wordpools/wasnorm_wordpool_576.txt	LTP329	ltpFR2	4	9	HELMET	702	n/a	n/a	0	0	0
1965879	WORD	wordpools/wasnorm_wordpool_576.txt	LTP329	ltpFR2	4	9	SWIMMER	1420	n/a	n/a	0	0	0
1968599	WORD	wordpools/wasnorm_wordpool_576.txt	LTP329	ltpFR2	4	9	RAFT	1159	n/a	n/a	0	0	0
1971134	WORD	wordpools/wasnorm_wordpool_576.txt	LTP329	ltpFR2	4	9	DANCER	437	n/a	n/a	0	0	0
1973869	WORD	wordpools/wasnorm_wordpool_576.txt	LTP329	ltpFR2	4	9	JUGGLER	763	n/a	n/a	0	0	0
1976439	WORD	wordpools/wasnorm_wordpool_576.txt	LTP329	ltpFR2	4	9	ANTLER	29	n/a	n/a	0	0	0
1978057	START	n/a	LTP329	ltpFR2	4	n/a	n/a	n/a	14	n/a	n/a	n/a	n/a
1979070	DISTRACTOR	n/a	LTP329	ltpFR2	4	9	n/a	n/a	n/a	n/a	0	0	0
1979091	PROB	n/a	LTP329	ltpFR2	4	n/a	n/a	n/a	14	14	2	3	9
1982860	PROB	n/a	LTP329	ltpFR2	4	n/a	n/a	n/a	14	11	5	3	3
1984613	PROB	n/a	LTP329	ltpFR2	4	n/a	n/a	n/a	14	16	5	9	2
1986747	PROB	n/a	LTP329	ltpFR2	4	n/a	n/a	n/a	14	15	3	7	5
1987982	PROB	n/a	LTP329	ltpFR2	4	n/a	n/a	n/a	14	21	6	6	9
1991485	PROB	n/a	LTP329	ltpFR2	4	n/a	n/a	n/a	14	17	9	2	6
1993320	PROB	n/a	LTP329	ltpFR2	4	n/a	n/a	n/a	14	23	6	8	9
1997324	PROB	n/a	LTP329	ltpFR2	4	n/a	n/a	n/a	14	6	1	4	1
1998858	PROB	n/a	LTP329	ltpFR2	4	n/a	n/a	n/a	14	16	6	3	7
2000160	PROB	n/a	LTP329	ltpFR2	4	n/a	n/a	n/a	14	17	7	3	7
2001740	STOP	n/a	LTP329	ltpFR2	4	n/a	n/a	n/a	14	n/a	n/a	n/a	n/a
2003980	REC_START	n/a	LTP329	ltpFR2	4	9	n/a	n/a	n/a	n/a	0	0	0
2005717	REC_WORD	wordpools/wasnorm_wordpool_576.txt	LTP329	ltpFR2	4	9	INFANT	737	n/a	n/a	0	0	0
2007677	REC_WORD	wordpools/wasnorm_wordpool_576.txt	LTP329	ltpFR2	4	9	RATTLE	1170	n/a	n/a	0	0	0
2009939	REC_WORD	wordpools/wasnorm_wordpool_576.txt	LTP329	ltpFR2	4	9	SISTER	1312	n/a	n/a	0	0	0
2011907	REC_WORD	wordpools/wasnorm_wordpool_576.txt	LTP329	ltpFR2	4	9	SWIMMER	1420	n/a	n/a	0	0	0
2013787	REC_WORD	wordpools/wasnorm_wordpool_576.txt	LTP329	ltpFR2	4	9	RAFT	1159	n/a	n/a	0	0	0
2015613	REC_WORD	wordpools/wasnorm_wordpool_576.txt	LTP329	ltpFR2	4	9	JUGGLER	763	n/a	n/a	0	0	0
2017370	REC_WORD	wordpools/wasnorm_wordpool_576.txt	LTP329	ltpFR2	4	9	DANCER	437	n/a	n/a	0	0	0
2019195	REC_WORD	wordpools/wasnorm_wordpool_576.txt	LTP329	ltpFR2	4	9	HELMET	702	n/a	n/a	0	0	0
2028320	REC_WORD	wordpools/wasnorm_wordpool_576.txt	LTP329	ltpFR2	4	9	ULCER	1533	n/a	n/a	0	0	0
2034880	REC_WORD	wordpools/wasnorm_wordpool_576.txt	LTP329	ltpFR2	4	9	SNAIL	1332	n/a	n/a	0	0	0
2039135	REC_WORD	wordpools/wasnorm_wordpool_576.txt	LTP329	ltpFR2	4	9	CLAM	315	n/a	n/a	0	0	0
2041080	REC_WORD	wordpools/wasnorm_wordpool_576.txt	LTP329	ltpFR2	4	9	TUTU	1524	n/a	n/a	0	0	0
2053576	REC_WORD	wordpools/wasnorm_wordpool_576.txt	LTP329	ltpFR2	4	9	BACKBONE	66	n/a	n/a	0	0	0
2055815	REC_WORD	wordpools/wasnorm_wordpool_576.txt	LTP329	ltpFR2	4	9	BLACKBOARD	133	n/a	n/a	0	0	0
2094642	WORD	wordpools/wasnorm_wordpool_576.txt	LTP329	ltpFR2	4	10	CRAYON	401	n/a	n/a	0	0	0
2097261	WORD	wordpools/wasnorm_wordpool_576.txt	LTP329	ltpFR2	4	10	FLESH	579	n/a	n/a	0	0	0
2099930	WORD	wordpools/wasnorm_wordpool_576.txt	LTP329	ltpFR2	4	10	UMPIRE	1535	n/a	n/a	0	0	0
2102549	WORD	wordpools/wasnorm_wordpool_576.txt	LTP329	ltpFR2	4	10	MARS	873	n/a	n/a	0	0	0
2105318	WORD	wordpools/wasnorm_wordpool_576.txt	LTP329	ltpFR2	4	10	THRONE	1461	n/a	n/a	0	0	0
2108087	WORD	wordpools/wasnorm_wordpool_576.txt	LTP329	ltpFR2	4	10	PARSLEY	1016	n/a	n/a	0	0	0
2110573	WORD	wordpools/wasnorm_wordpool_576.txt	LTP329	ltpFR2	4	10	REPORT	1184	n/a	n/a	0	0	0
2113208	WORD	wordpools/wasnorm_wordpool_576.txt	LTP329	ltpFR2	4	10	CASHEW	253	n/a	n/a	0	0	0
2115759	WORD	wordpools/wasnorm_wordpool_576.txt	LTP329	ltpFR2	4	10	CHIPMUNK	304	n/a	n/a	0	0	0
2118463	WORD	wordpools/wasnorm_wordpool_576.txt	LTP329	ltpFR2	4	10	TEACHER	1440	n/a	n/a	0	0	0
2120965	WORD	wordpools/wasnorm_wordpool_576.txt	LTP329	ltpFR2	4	10	MUFFIN	929	n/a	n/a	0	0	0
2123683	WORD	wordpools/wasnorm_wordpool_576.txt	LTP329	ltpFR2	4	10	FEMALE	559	n/a	n/a	0	0	0
2126303	WORD	wordpools/wasnorm_wordpool_576.txt	LTP329	ltpFR2	4	10	CABBAGE	210	n/a	n/a	0	0	0
2128887	WORD	wordpools/wasnorm_wordpool_576.txt	LTP329	ltpFR2	4	10	ATOM	55	n/a	n/a	0	0	0
2131474	WORD	wordpools/wasnorm_wordpool_576.txt	LTP329	ltpFR2	4	10	TREAT	1501	n/a	n/a	0	0	0
2134110	WORD	wordpools/wasnorm_wordpool_576.txt	LTP329	ltpFR2	4	10	CLOCK	325	n/a	n/a	0	0	0
2136912	WORD	wordpools/wasnorm_wordpool_576.txt	LTP329	ltpFR2	4	10	STUDENT	1395	n/a	n/a	0	0	0
2139364	WORD	wordpools/wasnorm_wordpool_576.txt	LTP329	ltpFR2	4	10	NECKLACE	940	n/a	n/a	0	0	0
2142184	WORD	wordpools/wasnorm_wordpool_576.txt	LTP329	ltpFR2	4	10	BUNNY	198	n/a	n/a	0	0	0
2144885	WORD	wordpools/wasnorm_wordpool_576.txt	LTP329	ltpFR2	4	10	CARROT	249	n/a	n/a	0	0	0
2147521	WORD	wordpools/wasnorm_wordpool_576.txt	LTP329	ltpFR2	4	10	MATTRESS	879	n/a	n/a	0	0	0
2150057	WORD	wordpools/wasnorm_wordpool_576.txt	LTP329	ltpFR2	4	10	SHORTCAKE	1292	n/a	n/a	0	0	0
2152576	WORD	wordpools/wasnorm_wordpool_576.txt	LTP329	ltpFR2	4	10	MONEY	908	n/a	n/a	0	0	0
2155111	WORD	wordpools/wasnorm_wordpool_576.txt	LTP329	ltpFR2	4	10	FOOTBALL	591	n/a	n/a	0	0	0
2156729	START	n/a	LTP329	ltpFR2	4	n/a	n/a	n/a	15	n/a	n/a	n/a	n/a
2157735	DISTRACTOR	n/a	LTP329	ltpFR2	4	10	n/a	n/a	n/a	n/a	0	0	0
2157746	PROB	n/a	LTP329	ltpFR2	4	n/a	n/a	n/a	15	20	8	9	3
2162051	PROB	n/a	LTP329	ltpFR2	4	n/a	n/a	n/a	15	18	9	8	1
2163902	PROB	n/a	LTP329	ltpFR2	4	n/a	n/a	n/a	15	12	3	7	2
2165137	PROB	n/a	LTP329	ltpFR2	4	n/a	n/a	n/a	15	20	8	8	4
2166804	PROB	n/a	LTP329	ltpFR2	4	n/a	n/a	n/a	15	19	5	6	8
2168373	PROB	n/a	LTP329	ltpFR2	4	n/a	n/a	n/a	15	10	3	4	3
2170491	PROB	n/a	LTP329	ltpFR2	4	n/a	n/a	n/a	15	22	7	8	7
2172859	PROB	n/a	LTP329	ltpFR2	4	n/a	n/a	n/a	15	13	5	2	6
2175112	PROB	n/a	LTP329	ltpFR2	4	n/a	n/a	n/a	15	8	2	1	5
2176263	PROB	n/a	LTP329	ltpFR2	4	n/a	n/a	n/a	15	15	7	4	4
2178415	PROB	n/a	LTP329	ltpFR2	4	n/a	n/a	n/a	15	13	1	7	5
2180340	STOP	n/a	LTP329	ltpFR2	4	n/a	n/a	n/a	15	n/a	n/a	n/a	n/a
2182519	REC_START	n/a	LTP329	ltpFR2	4	10	n/a	n/a	n/a	n/a	0	0	0
2187492	REC_WORD	wordpools/wasnorm_wordpool_576.txt	LTP329	ltpFR2	4	10	RABBIT	1152	n/a	n/a	0	0	0
2191876	REC_WORD	wordpools/wasnorm_wordpool_576.txt	LTP329	ltpFR2	4	10	CARROT	249	n/a	n/a	0	0	0
2224037	REC_WORD	wordpools/wasnorm_wordpool_576.txt	LTP329	ltpFR2	4	10	NECKLACE	940	n/a	n/a	0	0	0
2225419	REC_WORD	wordpools/wasnorm_wordpool_576.txt	LTP329	ltpFR2	4	10	STUDENT	1395	n/a	n/a	0	0	0
2227269	REC_WORD	wordpools/wasnorm_wordpool_576.txt	LTP329	ltpFR2	4	10	TEACHER	1440	n/a	n/a	0	0	0
2228995	REC_WORD	wordpools/wasnorm_wordpool_576.txt	LTP329	ltpFR2	4	10	UMPIRE	1535	n/a	n/a	0	0	0
2253540	REC_WORD	wordpools/wasnorm_wordpool_576.txt	LTP329	ltpFR2	4	10	PARSLEY	1016	n/a	n/a	0	0	0
2273164	WORD	wordpools/wasnorm_wordpool_576.txt	LTP329	ltpFR2	4	11	TOASTER	1472	n/a	n/a	0	0	0
2275933	WORD	wordpools/wasnorm_wordpool_576.txt	LTP329	ltpFR2	4	11	BLENDER	136	n/a	n/a	0	0	0
2278701	WORD	wordpools/wasnorm_wordpool_576.txt	LTP329	ltpFR2	4	11	PERFUME	1049	n/a	n/a	0	0	0
2281388	WORD	wordpools/wasnorm_wordpool_576.txt	LTP329	ltpFR2	4	11	WAGON	1578	n/a	n/a	0	0	0
2284191	WORD	wordpools/wasnorm_wordpool_576.txt	LTP329	ltpFR2	4	11	SUNSET	1408	n/a	n/a	0	0	0
2286692	WORD	wordpools/wasnorm_wordpool_576.txt	LTP329	ltpFR2	4	11	BARREL	91	n/a	n/a	0	0	0
2289262	WORD	wordpools/wasnorm_wordpool_576.txt	LTP329	ltpFR2	4	11	DRESSER	496	n/a	n/a	0	0	0
2291914	WORD	wordpools/wasnorm_wordpool_576.txt	LTP329	ltpFR2	4	11	POCKET	1093	n/a	n/a	0	0	0
2294383	WORD	wordpools/wasnorm_wordpool_576.txt	LTP329	ltpFR2	4	11	FUNGUS	614	n/a	n/a	0	0	0
2297068	WORD	wordpools/wasnorm_wordpool_576.txt	LTP329	ltpFR2	4	11	PAPER	1011	n/a	n/a	0	0	0
2299604	WORD	wordpools/wasnorm_wordpool_576.txt	LTP329	ltpFR2	4	11	LODGE	839	n/a	n/a	0	0	0
2302106	WORD	wordpools/wasnorm_wordpool_576.txt	LTP329	ltpFR2	4	11	RIFLE	1192	n/a	n/a	0	0	0
2304575	WORD	wordpools/wasnorm_wordpool_576.txt	LTP329	ltpFR2	4	11	SPACE	1345	n/a	n/a	0	0	0
2307344	WORD	wordpools/wasnorm_wordpool_576.txt	LTP329	ltpFR2	4	11	ROCKET	1202	n/a	n/a	0	0	0
2310080	WORD	wordpools/wasnorm_wordpool_576.txt	LTP329	ltpFR2	4	11	OYSTER	995	n/a	n/a	0	0	0
2312714	WORD	wordpools/wasnorm_wordpool_576.txt	LTP329	ltpFR2	4	11	TURTLE	1522	n/a	n/a	0	0	0
2315401	WORD	wordpools/wasnorm_wordpool_576.txt	LTP329	ltpFR2	4	11	FRAGRANCE	599	n/a	n/a	0	0	0
2317903	WORD	wordpools/wasnorm_wordpool_576.txt	LTP329	ltpFR2	4	11	TRUCK	1512	n/a	n/a	0	0	0
2320556	WORD	wordpools/wasnorm_wordpool_576.txt	LTP329	ltpFR2	4	11	COUSIN	392	n/a	n/a	0	0	0
2323325	WORD	wordpools/wasnorm_wordpool_576.txt	LTP329	ltpFR2	4	11	LIGHTNING	820	n/a	n/a	0	0	0
2325826	WORD	wordpools/wasnorm_wordpool_576.txt	LTP329	ltpFR2	4	11	CLOUD	328	n/a	n/a	0	0	0
2328446	WORD	wordpools/wasnorm_wordpool_576.txt	LTP329	ltpFR2	4	11	NAPKIN	937	n/a	n/a	0	0	0
2331198	WORD	wordpools/wasnorm_wordpool_576.txt	LTP329	ltpFR2	4	11	COSTUME	383	n/a	n/a	0	0	0
2333883	WORD	wordpools/wasnorm_wordpool_576.txt	LTP329	ltpFR2	4	11	WHISTLE	1606	n/a	n/a	0	0	0
2335502	START	n/a	LTP329	ltpFR2	4	n/a	n/a	n/a	16	n/a	n/a	n/a	n/a
2336306	DISTRACTOR	n/a	LTP329	ltpFR2	4	11	n/a	n/a	n/a	n/a	0	0	0
2336336	PROB	n/a	LTP329	ltpFR2	4	n/a	n/a	n/a	16	15	7	3	5
2338804	PROB	n/a	LTP329	ltpFR2	4	n/a	n/a	n/a	16	22	5	8	9
2342992	PROB	n/a	LTP329	ltpFR2	4	n/a	n/a	n/a	16	15	7	1	7
2344393	PROB	n/a	LTP329	ltpFR2	4	n/a	n/a	n/a	16	27	9	9	9
2347596	PROB	n/a	LTP329	ltpFR2	4	n/a	n/a	n/a	16	11	3	2	6
2349797	PROB	n/a	LTP329	ltpFR2	4	n/a	n/a	n/a	16	20	8	5	7
2355252	PROB	n/a	LTP329	ltpFR2	4	n/a	n/a	n/a	16	18	7	2	9
2358251	STOP	n/a	LTP329	ltpFR2	4	n/a	n/a	n/a	16	n/a	n/a	n/a	n/a
2361425	REC_START	n/a	LTP329	ltpFR2	4	11	n/a	n/a	n/a	n/a	0	0	0
2362691	REC_WORD	wordpools/wasnorm_wordpool_576.txt	LTP329	ltpFR2	4	11	DRESSER	496	n/a	n/a	0	0	0
2364157	REC_WORD	wordpools/wasnorm_wordpool_576.txt	LTP329	ltpFR2	4	11	FRAGRANCE	599	n/a	n/a	0	0	0
2366027	REC_WORD	wordpools/wasnorm_wordpool_576.txt	LTP329	ltpFR2	4	11	PERFUME	1049	n/a	n/a	0	0	0
2368426	REC_WORD	wordpools/wasnorm_wordpool_576.txt	LTP329	ltpFR2	4	11	TOASTER	1472	n/a	n/a	0	0	0
2370982	REC_WORD	wordpools/wasnorm_wordpool_576.txt	LTP329	ltpFR2	4	11	BLENDER	136	n/a	n/a	0	0	0
2386765	REC_WORD	wordpools/wasnorm_wordpool_576.txt	LTP329	ltpFR2	4	11	OYSTER	995	n/a	n/a	0	0	0
2451903	WORD	wordpools/wasnorm_wordpool_576.txt	LTP329	ltpFR2	4	12	TROUT	1511	n/a	n/a	0	0	0
2454721	WORD	wordpools/wasnorm_wordpool_576.txt	LTP329	ltpFR2	4	12	SAUSAGE	1238	n/a	n/a	0	0	0
2457308	WORD	wordpools/wasnorm_wordpool_576.txt	LTP329	ltpFR2	4	12	CUSTARD	429	n/a	n/a	0	0	0
2460094	WORD	wordpools/wasnorm_wordpool_576.txt	LTP329	ltpFR2	4	12	POET	1095	n/a	n/a	0	0	0
2462662	WORD	wordpools/wasnorm_wordpool_576.txt	LTP329	ltpFR2	4	12	BARLEY	88	n/a	n/a	0	0	0
2465182	WORD	wordpools/wasnorm_wordpool_576.txt	LTP329	ltpFR2	4	12	SALMON	1227	n/a	n/a	0	0	0
2467951	WORD	wordpools/wasnorm_wordpool_576.txt	LTP329	ltpFR2	4	12	BALLOON	75	n/a	n/a	0	0	0
2470453	WORD	wordpools/wasnorm_wordpool_576.txt	LTP329	ltpFR2	4	12	WAITER	1580	n/a	n/a	0	0	0
2473139	WORD	wordpools/wasnorm_wordpool_576.txt	LTP329	ltpFR2	4	12	PUDDING	1139	n/a	n/a	0	0	0
2475673	WORD	wordpools/wasnorm_wordpool_576.txt	LTP329	ltpFR2	4	12	RAZOR	1171	n/a	n/a	0	0	0
2478443	WORD	wordpools/wasnorm_wordpool_576.txt	LTP329	ltpFR2	4	12	BRACES	164	n/a	n/a	0	0	0
2480878	WORD	wordpools/wasnorm_wordpool_576.txt	LTP329	ltpFR2	4	12	TORTOISE	1486	n/a	n/a	0	0	0
2483531	WORD	wordpools/wasnorm_wordpool_576.txt	LTP329	ltpFR2	4	12	BLOCKADE	137	n/a	n/a	0	0	0
2486100	WORD	wordpools/wasnorm_wordpool_576.txt	LTP329	ltpFR2	4	12	MISTER	901	n/a	n/a	0	0	0
2488569	WORD	wordpools/wasnorm_wordpool_576.txt	LTP329	ltpFR2	4	12	SUITCASE	1403	n/a	n/a	0	0	0
2491371	WORD	wordpools/wasnorm_wordpool_576.txt	LTP329	ltpFR2	4	12	JELLO	754	n/a	n/a	0	0	0
2493907	WORD	wordpools/wasnorm_wordpool_576.txt	LTP329	ltpFR2	4	12	COD	340	n/a	n/a	0	0	0
2496559	WORD	wordpools/wasnorm_wordpool_576.txt	LTP329	ltpFR2	4	12	QUEEN	1149	n/a	n/a	0	0	0
2499361	WORD	wordpools/wasnorm_wordpool_576.txt	LTP329	ltpFR2	4	12	PRINCESS	1125	n/a	n/a	0	0	0
2502131	WORD	wordpools/wasnorm_wordpool_576.txt	LTP329	ltpFR2	4	12	NOVEL	960	n/a	n/a	0	0	0
2504682	WORD	wordpools/wasnorm_wordpool_576.txt	LTP329	ltpFR2	4	12	OINTMENT	974	n/a	n/a	0	0	0
2507502	WORD	wordpools/wasnorm_wordpool_576.txt	LTP329	ltpFR2	4	12	ROBOT	1200	n/a	n/a	0	0	0
2509954	WORD	wordpools/wasnorm_wordpool_576.txt	LTP329	ltpFR2	4	12	RIVER	1194	n/a	n/a	0	0	0
2512623	WORD	wordpools/wasnorm_wordpool_576.txt	LTP329	ltpFR2	4	12	LAGOON	795	n/a	n/a	0	0	0
2514241	START	n/a	LTP329	ltpFR2	4	n/a	n/a	n/a	17	n/a	n/a	n/a	n/a
2515371	DISTRACTOR	n/a	LTP329	ltpFR2	4	12	n/a	n/a	n/a	n/a	0	0	0
2515392	PROB	n/a	LTP329	ltpFR2	4	n/a	n/a	n/a	17	9	1	6	2
2518311	PROB	n/a	LTP329	ltpFR2	4	n/a	n/a	n/a	17	14	1	7	6
2520280	PROB	n/a	LTP329	ltpFR2	4	n/a	n/a	n/a	17	19	6	5	8
2523149	PROB	n/a	LTP329	ltpFR2	4	n/a	n/a	n/a	17	21	7	6	8
2525767	PROB	n/a	LTP329	ltpFR2	4	n/a	n/a	n/a	17	17	6	5	6
2528003	PROB	n/a	LTP329	ltpFR2	4	n/a	n/a	n/a	17	16	3	9	4
2530372	PROB	n/a	LTP329	ltpFR2	4	n/a	n/a	n/a	17	14	1	6	7
2532057	PROB	n/a	LTP329	ltpFR2	4	n/a	n/a	n/a	17	17	2	7	8
2533807	PROB	n/a	LTP329	ltpFR2	4	n/a	n/a	n/a	17	21	7	9	5
2536527	PROB	n/a	LTP329	ltpFR2	4	n/a	n/a	n/a	17	8	2	5	1
2537939	STOP	n/a	LTP329	ltpFR2	4	n/a	n/a	n/a	17	n/a	n/a	n/a	n/a
2540164	REC_START	n/a	LTP329	ltpFR2	4	12	n/a	n/a	n/a	n/a	0	0	0
2541724	REC_WORD	wordpools/wasnorm_wordpool_576.txt	LTP329	ltpFR2	4	12	QUEEN	1149	n/a	n/a	0	0	0
2543697	REC_WORD	wordpools/wasnorm_wordpool_576.txt	LTP329	ltpFR2	4	12	PRINCESS	1125	n/a	n/a	0	0	0
2545593	REC_WORD	wordpools/wasnorm_wordpool_576.txt	LTP329	ltpFR2	4	12	SUITCASE	1403	n/a	n/a	0	0	0
2546593	REC_WORD_VV	wordpools/wasnorm_wordpool_576.txt	LTP329	ltpFR2	4	12	<>	-1	n/a	n/a	0	0	0
2548248	REC_WORD	wordpools/wasnorm_wordpool_576.txt	LTP329	ltpFR2	4	12	TORTOISE	1486	n/a	n/a	0	0	0
2558546	REC_WORD	wordpools/wasnorm_wordpool_576.txt	LTP329	ltpFR2	4	12	JELLO	754	n/a	n/a	0	0	0
2561116	REC_WORD	wordpools/wasnorm_wordpool_576.txt	LTP329	ltpFR2	4	12	PUDDING	1139	n/a	n/a	0	0	0
2563410	REC_WORD	wordpools/wasnorm_wordpool_576.txt	LTP329	ltpFR2	4	12	SALMON	1227	n/a	n/a	0	0	0
2565550	REC_WORD	wordpools/wasnorm_wordpool_576.txt	LTP329	ltpFR2	4	12	COD	340	n/a	n/a	0	0	0
2567413	REC_WORD	wordpools/wasnorm_wordpool_576.txt	LTP329	ltpFR2	4	12	TROUT	1511	n/a	n/a	0	0	0
2569470	REC_WORD	wordpools/wasnorm_wordpool_576.txt	LTP329	ltpFR2	4	12	BALLOON	75	n/a	n/a	0	0	0
2608252	REC_WORD	wordpools/wasnorm_wordpool_576.txt	LTP329	ltpFR2	4	12	NOVEL	960	n/a	n/a	0	0	0
2630626	DISTRACTOR	n/a	LTP329	ltpFR2	4	13	n/a	n/a	n/a	n/a	0	0	0
2630626	START	n/a	LTP329	ltpFR2	4	n/a	n/a	n/a	18	n/a	n/a	n/a	n/a
2630643	PROB	n/a	LTP329	ltpFR2	4	n/a	n/a	n/a	18	20	8	3	9
2633495	PROB	n/a	LTP329	ltpFR2	4	n/a	n/a	n/a	18	10	4	4	2
2634845	PROB	n/a	LTP329	ltpFR2	4	n/a	n/a	n/a	18	14	6	3	5
2636897	PROB	n/a	LTP329	ltpFR2	4	n/a	n/a	n/a	18	21	6	8	7
2641635	PROB	n/a	LTP329	ltpFR2	4	n/a	n/a	n/a	18	20	9	8	3
2643587	PROB	n/a	LTP329	ltpFR2	4	n/a	n/a	n/a	18	18	1	9	8
2645122	PROB	n/a	LTP329	ltpFR2	4	n/a	n/a	n/a	18	12	2	4	6
2646640	PROB	n/a	LTP329	ltpFR2	4	n/a	n/a	n/a	18	8	1	3	4
2648275	PROB	n/a	LTP329	ltpFR2	4	n/a	n/a	n/a	18	12	1	3	8
2650043	PROB	n/a	LTP329	ltpFR2	4	n/a	n/a	n/a	18	17	7	3	7
2651843	PROB	n/a	LTP329	ltpFR2	4	n/a	n/a	n/a	18	22	9	8	5
2654327	STOP	n/a	LTP329	ltpFR2	4	n/a	n/a	n/a	18	n/a	n/a	n/a	n/a
2655847	WORD	wordpools/wasnorm_wordpool_576.txt	LTP329	ltpFR2	4	13	FLUTE	585	n/a	n/a	0	0	0
2658417	WORD	wordpools/wasnorm_wordpool_576.txt	LTP329	ltpFR2	4	13	LOVER	846	n/a	n/a	0	0	0
2660936	WORD	wordpools/wasnorm_wordpool_576.txt	LTP329	ltpFR2	4	13	DINER	467	n/a	n/a	0	0	0
2663571	WORD	wordpools/wasnorm_wordpool_576.txt	LTP329	ltpFR2	4	13	TUBA	1515	n/a	n/a	0	0	0
2666190	WORD	wordpools/wasnorm_wordpool_576.txt	LTP329	ltpFR2	4	13	HIGHWAY	707	n/a	n/a	0	0	0
2668926	WORD	wordpools/wasnorm_wordpool_576.txt	LTP329	ltpFR2	4	13	CONCERT	360	n/a	n/a	0	0	0
2671561	WORD	wordpools/wasnorm_wordpool_576.txt	LTP329	ltpFR2	4	13	KNIFE	785	n/a	n/a	0	0	0
2674230	WORD	wordpools/wasnorm_wordpool_576.txt	LTP329	ltpFR2	4	13	DOLPHIN	483	n/a	n/a	0	0	0
2676865	WORD	wordpools/wasnorm_wordpool_576.txt	LTP329	ltpFR2	4	13	LETTUCE	814	n/a	n/a	0	0	0
2679318	WORD	wordpools/wasnorm_wordpool_576.txt	LTP329	ltpFR2	4	13	HOOD	714	n/a	n/a	0	0	0
2681753	WORD	wordpools/wasnorm_wordpool_576.txt	LTP329	ltpFR2	4	13	SEAFOOD	1260	n/a	n/a	0	0	0
2684289	WORD	wordpools/wasnorm_wordpool_576.txt	LTP329	ltpFR2	4	13	HOOK	715	n/a	n/a	0	0	0
2687125	WORD	wordpools/wasnorm_wordpool_576.txt	LTP329	ltpFR2	4	13	TART	1436	n/a	n/a	0	0	0
2689826	WORD	wordpools/wasnorm_wordpool_576.txt	LTP329	ltpFR2	4	13	CITRUS	313	n/a	n/a	0	0	0
2692313	WORD	wordpools/wasnorm_wordpool_576.txt	LTP329	ltpFR2	4	13	PLASTER	1085	n/a	n/a	0	0	0
2694948	WORD	wordpools/wasnorm_wordpool_576.txt	LTP329	ltpFR2	4	13	SHARK	1275	n/a	n/a	0	0	0
2697434	WORD	wordpools/wasnorm_wordpool_576.txt	LTP329	ltpFR2	4	13	SCALLOP	1242	n/a	n/a	0	0	0
2700070	WORD	wordpools/wasnorm_wordpool_576.txt	LTP329	ltpFR2	4	13	SUBWAY	1400	n/a	n/a	0	0	0
2702821	WORD	wordpools/wasnorm_wordpool_576.txt	LTP329	ltpFR2	4	13	PILOT	1070	n/a	n/a	0	0	0
2705324	WORD	wordpools/wasnorm_wordpool_576.txt	LTP329	ltpFR2	4	13	TWEEZERS	1526	n/a	n/a	0	0	0
2708077	WORD	wordpools/wasnorm_wordpool_576.txt	LTP329	ltpFR2	4	13	PIANO	1057	n/a	n/a	0	0	0
2710845	WORD	wordpools/wasnorm_wordpool_576.txt	LTP329	ltpFR2	4	13	CATTLE	261	n/a	n/a	0	0	0
2713298	WORD	wordpools/wasnorm_wordpool_576.txt	LTP329	ltpFR2	4	13	COOK	372	n/a	n/a	0	0	0
2715849	WORD	wordpools/wasnorm_wordpool_576.txt	LTP329	ltpFR2	4	13	FRANCE	601	n/a	n/a	0	0	0
2717468	START	n/a	LTP329	ltpFR2	4	n/a	n/a	n/a	19	n/a	n/a	n/a	n/a
2718651	DISTRACTOR	n/a	LTP329	ltpFR2	4	13	n/a	n/a	n/a	n/a	0	0	0
2718668	PROB	n/a	LTP329	ltpFR2	4	n/a	n/a	n/a	19	19	9	4	6
2721138	PROB	n/a	LTP329	ltpFR2	4	n/a	n/a	n/a	19	16	5	5	6
2722322	PROB	n/a	LTP329	ltpFR2	4	n/a	n/a	n/a	19	19	6	7	6
2724641	PROB	n/a	LTP329	ltpFR2	4	n/a	n/a	n/a	19	14	7	4	3
2726977	PROB	n/a	LTP329	ltpFR2	4	n/a	n/a	n/a	19	15	5	2	8
2728378	PROB	n/a	LTP329	ltpFR2	4	n/a	n/a	n/a	19	16	5	7	4
2730745	PROB	n/a	LTP329	ltpFR2	4	n/a	n/a	n/a	19	18	9	4	5
2733916	PROB	n/a	LTP329	ltpFR2	4	n/a	n/a	n/a	19	21	6	8	7
2737335	PROB	n/a	LTP329	ltpFR2	4	n/a	n/a	n/a	19	12	6	4	2
2741468	STOP	n/a	LTP329	ltpFR2	4	n/a	n/a	n/a	19	n/a	n/a	n/a	n/a
2743358	REC_START	n/a	LTP329	ltpFR2	4	13	n/a	n/a	n/a	n/a	0	0	0
2746665	REC_WORD	wordpools/wasnorm_wordpool_576.txt	LTP329	ltpFR2	4	13	DOLPHIN	483	n/a	n/a	0	0	0
2748130	REC_WORD	wordpools/wasnorm_wordpool_576.txt	LTP329	ltpFR2	4	13	SHARK	1275	n/a	n/a	0	0	0
2750096	REC_WORD	wordpools/wasnorm_wordpool_576.txt	LTP329	ltpFR2	4	13	SEAFOOD	1260	n/a	n/a	0	0	0
2753312	REC_WORD	wordpools/wasnorm_wordpool_576.txt	LTP329	ltpFR2	4	13	KNIFE	785	n/a	n/a	0	0	0
2756725	REC_WORD	wordpools/wasnorm_wordpool_576.txt	LTP329	ltpFR2	4	13	SCALLOP	1242	n/a	n/a	0	0	0
2763063	REC_WORD	wordpools/wasnorm_wordpool_576.txt	LTP329	ltpFR2	4	13	LETTUCE	814	n/a	n/a	0	0	0
2766369	REC_WORD	wordpools/wasnorm_wordpool_576.txt	LTP329	ltpFR2	4	13	COOK	372	n/a	n/a	0	0	0
2777843	REC_WORD	wordpools/wasnorm_wordpool_576.txt	LTP329	ltpFR2	4	13	DINER	467	n/a	n/a	0	0	0
2779611	REC_WORD	wordpools/wasnorm_wordpool_576.txt	LTP329	ltpFR2	4	13	LOVER	846	n/a	n/a	0	0	0
2833986	DISTRACTOR	n/a	LTP329	ltpFR2	4	14	n/a	n/a	n/a	n/a	0	0	0
2833986	START	n/a	LTP329	ltpFR2	4	n/a	n/a	n/a	20	n/a	n/a	n/a	n/a
2834020	PROB	n/a	LTP329	ltpFR2	4	n/a	n/a	n/a	20	20	9	6	5
2837039	PROB	n/a	LTP329	ltpFR2	4	n/a	n/a	n/a	20	17	8	4	5
2839107	PROB	n/a	LTP329	ltpFR2	4	n/a	n/a	n/a	20	12	6	4	2
2840359	PROB	n/a	LTP329	ltpFR2	4	n/a	n/a	n/a	20	13	1	3	9
2841675	PROB	n/a	LTP329	ltpFR2	4	n/a	n/a	n/a	20	9	4	3	2
2843777	PROB	n/a	LTP329	ltpFR2	4	n/a	n/a	n/a	20	25	9	9	7
2845779	PROB	n/a	LTP329	ltpFR2	4	n/a	n/a	n/a	20	14	2	5	7
2847281	PROB	n/a	LTP329	ltpFR2	4	n/a	n/a	n/a	20	12	4	6	2
2848366	PROB	n/a	LTP329	ltpFR2	4	n/a	n/a	n/a	20	11	5	1	5
2849433	PROB	n/a	LTP329	ltpFR2	4	n/a	n/a	n/a	20	13	6	6	1
2852369	PROB	n/a	LTP329	ltpFR2	4	n/a	n/a	n/a	20	15	7	6	1
2854670	PROB	n/a	LTP329	ltpFR2	4	n/a	n/a	n/a	20	17	8	2	7
2856222	PROB	n/a	LTP329	ltpFR2	4	n/a	n/a	n/a	20	17	5	3	9
2857894	STOP	n/a	LTP329	ltpFR2	4	n/a	n/a	n/a	20	n/a	n/a	n/a	n/a
2859075	WORD	wordpools/wasnorm_wordpool_576.txt	LTP329	ltpFR2	4	14	OZONE	996	n/a	n/a	0	0	0
2861627	WORD	wordpools/wasnorm_wordpool_576.txt	LTP329	ltpFR2	4	14	LABEL	790	n/a	n/a	0	0	0
2864063	WORD	wordpools/wasnorm_wordpool_576.txt	LTP329	ltpFR2	4	14	SPOOL	1356	n/a	n/a	0	0	0
2866730	WORD	wordpools/wasnorm_wordpool_576.txt	LTP329	ltpFR2	4	14	YOLK	1633	n/a	n/a	0	0	0
2869451	WORD	wordpools/wasnorm_wordpool_576.txt	LTP329	ltpFR2	4	14	TURKEY	1520	n/a	n/a	0	0	0
2872153	WORD	wordpools/wasnorm_wordpool_576.txt	LTP329	ltpFR2	4	14	BODY	145	n/a	n/a	0	0	0
2874704	WORD	wordpools/wasnorm_wordpool_576.txt	LTP329	ltpFR2	4	14	ACTOR	5	n/a	n/a	0	0	0
2877174	WORD	wordpools/wasnorm_wordpool_576.txt	LTP329	ltpFR2	4	14	GRAVEL	659	n/a	n/a	0	0	0
2879759	WORD	wordpools/wasnorm_wordpool_576.txt	LTP329	ltpFR2	4	14	FIDDLE	561	n/a	n/a	0	0	0
2882295	WORD	wordpools/wasnorm_wordpool_576.txt	LTP329	ltpFR2	4	14	RECORD	1176	n/a	n/a	0	0	0
2884846	WORD	wordpools/wasnorm_wordpool_576.txt	LTP329	ltpFR2	4	14	LAPEL	800	n/a	n/a	0	0	0
2887682	WORD	wordpools/wasnorm_wordpool_576.txt	LTP329	ltpFR2	4	14	SHIRT	1287	n/a	n/a	0	0	0
2890185	WORD	wordpools/wasnorm_wordpool_576.txt	LTP329	ltpFR2	4	14	SERVANT	1271	n/a	n/a	0	0	0
2892753	WORD	wordpools/wasnorm_wordpool_576.txt	LTP329	ltpFR2	4	14	THREAD	1460	n/a	n/a	0	0	0
2895356	WORD	wordpools/wasnorm_wordpool_576.txt	LTP329	ltpFR2	4	14	SLUG	1329	n/a	n/a	0	0	0
2898025	WORD	wordpools/wasnorm_wordpool_576.txt	LTP329	ltpFR2	4	14	FLASK	576	n/a	n/a	0	0	0
2900511	WORD	wordpools/wasnorm_wordpool_576.txt	LTP329	ltpFR2	4	14	NOMAD	955	n/a	n/a	0	0	0
2903047	WORD	wordpools/wasnorm_wordpool_576.txt	LTP329	ltpFR2	4	14	PISTOL	1075	n/a	n/a	0	0	0
2905748	WORD	wordpools/wasnorm_wordpool_576.txt	LTP329	ltpFR2	4	14	SIDEWALK	1303	n/a	n/a	0	0	0
2908318	WORD	wordpools/wasnorm_wordpool_576.txt	LTP329	ltpFR2	4	14	BISON	131	n/a	n/a	0	0	0
2910937	WORD	wordpools/wasnorm_wordpool_576.txt	LTP329	ltpFR2	4	14	HEADBAND	696	n/a	n/a	0	0	0
2913506	WORD	wordpools/wasnorm_wordpool_576.txt	LTP329	ltpFR2	4	14	SALAD	1224	n/a	n/a	0	0	0
2916125	WORD	wordpools/wasnorm_wordpool_576.txt	LTP329	ltpFR2	4	14	COWBOY	395	n/a	n/a	0	0	0
2918826	WORD	wordpools/wasnorm_wordpool_576.txt	LTP329	ltpFR2	4	14	CANYON	235	n/a	n/a	0	0	0
2920445	START	n/a	LTP329	ltpFR2	4	n/a	n/a	n/a	21	n/a	n/a	n/a	n/a
2921372	DISTRACTOR	n/a	LTP329	ltpFR2	4	14	n/a	n/a	n/a	n/a	0	0	0
2921396	PROB	n/a	LTP329	ltpFR2	4	n/a	n/a	n/a	21	9	2	6	1
2924764	PROB	n/a	LTP329	ltpFR2	4	n/a	n/a	n/a	21	13	8	4	1
2926167	PROB	n/a	LTP329	ltpFR2	4	n/a	n/a	n/a	21	12	2	1	9
2927435	PROB	n/a	LTP329	ltpFR2	4	n/a	n/a	n/a	21	16	7	3	6
2928652	PROB	n/a	LTP329	ltpFR2	4	n/a	n/a	n/a	21	15	6	5	4
2930204	PROB	n/a	LTP329	ltpFR2	4	n/a	n/a	n/a	21	14	7	6	1
2932339	PROB	n/a	LTP329	ltpFR2	4	n/a	n/a	n/a	21	17	2	8	7
2933856	PROB	n/a	LTP329	ltpFR2	4	n/a	n/a	n/a	21	14	5	8	1
2936492	PROB	n/a	LTP329	ltpFR2	4	n/a	n/a	n/a	21	12	3	4	5
2938311	PROB	n/a	LTP329	ltpFR2	4	n/a	n/a	n/a	21	18	5	6	7
2941397	PROB	n/a	LTP329	ltpFR2	4	n/a	n/a	n/a	21	18	9	3	6
2942963	STOP	n/a	LTP329	ltpFR2	4	n/a	n/a	n/a	21	n/a	n/a	n/a	n/a
2946251	REC_START	n/a	LTP329	ltpFR2	4	14	n/a	n/a	n/a	n/a	0	0	0
2949889	REC_WORD	wordpools/wasnorm_wordpool_576.txt	LTP329	ltpFR2	4	14	GRAVEL	659	n/a	n/a	0	0	0
3036913	WORD	wordpools/wasnorm_wordpool_576.txt	LTP329	ltpFR2	4	15	HOUND	724	n/a	n/a	0	0	0
3039632	WORD	wordpools/wasnorm_wordpool_576.txt	LTP329	ltpFR2	4	15	FOX	598	n/a	n/a	0	0	0
3042301	WORD	wordpools/wasnorm_wordpool_576.txt	LTP329	ltpFR2	4	15	DRAGON	492	n/a	n/a	0	0	0
3044904	WORD	wordpools/wasnorm_wordpool_576.txt	LTP329	ltpFR2	4	15	PANTHER	1009	n/a	n/a	0	0	0
3047522	WORD	wordpools/wasnorm_wordpool_576.txt	LTP329	ltpFR2	4	15	HUSBAND	728	n/a	n/a	0	0	0
3050308	WORD	wordpools/wasnorm_wordpool_576.txt	LTP329	ltpFR2	4	15	LADDER	793	n/a	n/a	0	0	0
3053127	WORD	wordpools/wasnorm_wordpool_576.txt	LTP329	ltpFR2	4	15	CAMEL	223	n/a	n/a	0	0	0
3055629	WORD	wordpools/wasnorm_wordpool_576.txt	LTP329	ltpFR2	4	15	NIGHTGOWN	953	n/a	n/a	0	0	0
3058098	WORD	wordpools/wasnorm_wordpool_576.txt	LTP329	ltpFR2	4	15	MACHINE	852	n/a	n/a	0	0	0
3060666	WORD	wordpools/wasnorm_wordpool_576.txt	LTP329	ltpFR2	4	15	SPOUSE	1358	n/a	n/a	0	0	0
3063436	WORD	wordpools/wasnorm_wordpool_576.txt	LTP329	ltpFR2	4	15	WIDOW	1608	n/a	n/a	0	0	0
3066022	WORD	wordpools/wasnorm_wordpool_576.txt	LTP329	ltpFR2	4	15	ORANGE	980	n/a	n/a	0	0	0
3068840	WORD	wordpools/wasnorm_wordpool_576.txt	LTP329	ltpFR2	4	15	TERMITE	1451	n/a	n/a	0	0	0
3071610	WORD	wordpools/wasnorm_wordpool_576.txt	LTP329	ltpFR2	4	15	LASER	801	n/a	n/a	0	0	0
3074229	WORD	wordpools/wasnorm_wordpool_576.txt	LTP329	ltpFR2	4	15	CEILING	265	n/a	n/a	0	0	0
3077015	WORD	wordpools/wasnorm_wordpool_576.txt	LTP329	ltpFR2	4	15	HAMPER	682	n/a	n/a	0	0	0
3079750	WORD	wordpools/wasnorm_wordpool_576.txt	LTP329	ltpFR2	4	15	CLOTHES	327	n/a	n/a	0	0	0
3082269	WORD	wordpools/wasnorm_wordpool_576.txt	LTP329	ltpFR2	4	15	LAKE	796	n/a	n/a	0	0	0
3084871	WORD	wordpools/wasnorm_wordpool_576.txt	LTP329	ltpFR2	4	15	SPIDER	1351	n/a	n/a	0	0	0
3087457	WORD	wordpools/wasnorm_wordpool_576.txt	LTP329	ltpFR2	4	15	PASTRY	1022	n/a	n/a	0	0	0
3090143	WORD	wordpools/wasnorm_wordpool_576.txt	LTP329	ltpFR2	4	15	APPLE	33	n/a	n/a	0	0	0
3092661	WORD	wordpools/wasnorm_wordpool_576.txt	LTP329	ltpFR2	4	15	WIFE	1609	n/a	n/a	0	0	0
3095347	WORD	wordpools/wasnorm_wordpool_576.txt	LTP329	ltpFR2	4	15	GARDEN	623	n/a	n/a	0	0	0
3098167	WORD	wordpools/wasnorm_wordpool_576.txt	LTP329	ltpFR2	4	15	LION	827	n/a	n/a	0	0	0
3099784	START	n/a	LTP329	ltpFR2	4	n/a	n/a	n/a	22	n/a	n/a	n/a	n/a
3100824	DISTRACTOR	n/a	LTP329	ltpFR2	4	15	n/a	n/a	n/a	n/a	0	0	0
3100835	PROB	n/a	LTP329	ltpFR2	4	n/a	n/a	n/a	22	13	1	5	7
3103621	PROB	n/a	LTP329	ltpFR2	4	n/a	n/a	n/a	22	19	9	2	8
3105339	PROB	n/a	LTP329	ltpFR2	4	n/a	n/a	n/a	22	11	3	6	2
3107041	PROB	n/a	LTP329	ltpFR2	4	n/a	n/a	n/a	22	12	8	3	1
3108409	PROB	n/a	LTP329	ltpFR2	4	n/a	n/a	n/a	22	14	7	1	6
3110327	PROB	n/a	LTP329	ltpFR2	4	n/a	n/a	n/a	22	11	1	2	8
3111744	PROB	n/a	LTP329	ltpFR2	4	n/a	n/a	n/a	22	16	5	6	5
3113763	PROB	n/a	LTP329	ltpFR2	4	n/a	n/a	n/a	22	15	3	5	7
3115031	PROB	n/a	LTP329	ltpFR2	4	n/a	n/a	n/a	22	18	5	6	7
3117100	PROB	n/a	LTP329	ltpFR2	4	n/a	n/a	n/a	22	14	4	4	6
3118601	PROB	n/a	LTP329	ltpFR2	4	n/a	n/a	n/a	22	14	3	5	6
3120436	PROB	n/a	LTP329	ltpFR2	4	n/a	n/a	n/a	22	11	6	2	3
3122088	PROB	n/a	LTP329	ltpFR2	4	n/a	n/a	n/a	22	9	1	4	4
3123418	STOP	n/a	LTP329	ltpFR2	4	n/a	n/a	n/a	22	n/a	n/a	n/a	n/a
3125658	REC_START	n/a	LTP329	ltpFR2	4	15	n/a	n/a	n/a	n/a	0	0	0
3134813	REC_WORD	wordpools/wasnorm_wordpool_576.txt	LTP329	ltpFR2	4	15	HUSBAND	728	n/a	n/a	0	0	0
3136847	REC_WORD	wordpools/wasnorm_wordpool_576.txt	LTP329	ltpFR2	4	15	WIFE	1609	n/a	n/a	0	0	0
3138747	REC_WORD	wordpools/wasnorm_wordpool_576.txt	LTP329	ltpFR2	4	15	WIDOW	1608	n/a	n/a	0	0	0
3140792	REC_WORD	wordpools/wasnorm_wordpool_576.txt	LTP329	ltpFR2	4	15	SPOUSE	1358	n/a	n/a	0	0	0
3142934	REC_WORD	wordpools/wasnorm_wordpool_576.txt	LTP329	ltpFR2	4	15	APPLE	33	n/a	n/a	0	0	0
3144898	REC_WORD	wordpools/wasnorm_wordpool_576.txt	LTP329	ltpFR2	4	15	PASTRY	1022	n/a	n/a	0	0	0
3147080	REC_WORD	wordpools/wasnorm_wordpool_576.txt	LTP329	ltpFR2	4	15	ORANGE	980	n/a	n/a	0	0	0
3157069	REC_WORD	wordpools/wasnorm_wordpool_576.txt	LTP329	ltpFR2	4	15	LION	827	n/a	n/a	0	0	0
3216286	DISTRACTOR	n/a	LTP329	ltpFR2	4	16	n/a	n/a	n/a	n/a	0	0	0
3216286	START	n/a	LTP329	ltpFR2	4	n/a	n/a	n/a	23	n/a	n/a	n/a	n/a
3216320	PROB	n/a	LTP329	ltpFR2	4	n/a	n/a	n/a	23	15	8	3	4
3218521	PROB	n/a	LTP329	ltpFR2	4	n/a	n/a	n/a	23	14	3	4	7
3220240	PROB	n/a	LTP329	ltpFR2	4	n/a	n/a	n/a	23	19	7	9	3
3222108	PROB	n/a	LTP329	ltpFR2	4	n/a	n/a	n/a	23	15	9	3	3
3224527	PROB	n/a	LTP329	ltpFR2	4	n/a	n/a	n/a	23	16	4	5	8
3227296	PROB	n/a	LTP329	ltpFR2	4	n/a	n/a	n/a	23	14	1	6	7
3228931	PROB	n/a	LTP329	ltpFR2	4	n/a	n/a	n/a	23	11	4	5	2
3230615	PROB	n/a	LTP329	ltpFR2	4	n/a	n/a	n/a	23	18	8	8	2
3232050	PROB	n/a	LTP329	ltpFR2	4	n/a	n/a	n/a	23	16	6	7	3
3233968	PROB	n/a	LTP329	ltpFR2	4	n/a	n/a	n/a	23	13	1	8	4
3235470	PROB	n/a	LTP329	ltpFR2	4	n/a	n/a	n/a	23	10	6	2	2
3236654	PROB	n/a	LTP329	ltpFR2	4	n/a	n/a	n/a	23	9	1	2	6
3237887	PROB	n/a	LTP329	ltpFR2	4	n/a	n/a	n/a	23	15	6	4	5
3239183	STOP	n/a	LTP329	ltpFR2	4	n/a	n/a	n/a	23	n/a	n/a	n/a	n/a
3241508	WORD	wordpools/wasnorm_wordpool_576.txt	LTP329	ltpFR2	4	16	CORAL	378	n/a	n/a	0	0	0
3244160	WORD	wordpools/wasnorm_wordpool_576.txt	LTP329	ltpFR2	4	16	TWIG	1527	n/a	n/a	0	0	0
3246778	WORD	wordpools/wasnorm_wordpool_576.txt	LTP329	ltpFR2	4	16	HATCHET	691	n/a	n/a	0	0	0
3249232	WORD	wordpools/wasnorm_wordpool_576.txt	LTP329	ltpFR2	4	16	HORSE	719	n/a	n/a	0	0	0
3251917	WORD	wordpools/wasnorm_wordpool_576.txt	LTP329	ltpFR2	4	16	ZEBRA	1635	n/a	n/a	0	0	0
3254353	WORD	wordpools/wasnorm_wordpool_576.txt	LTP329	ltpFR2	4	16	GLOVE	642	n/a	n/a	0	0	0
3256938	WORD	wordpools/wasnorm_wordpool_576.txt	LTP329	ltpFR2	4	16	LIVER	833	n/a	n/a	0	0	0
3259723	WORD	wordpools/wasnorm_wordpool_576.txt	LTP329	ltpFR2	4	16	MATCH	878	n/a	n/a	0	0	0
3262477	WORD	wordpools/wasnorm_wordpool_576.txt	LTP329	ltpFR2	4	16	PEDAL	1037	n/a	n/a	0	0	0
3265045	WORD	wordpools/wasnorm_wordpool_576.txt	LTP329	ltpFR2	4	16	TROMBONE	1508	n/a	n/a	0	0	0
3267514	WORD	wordpools/wasnorm_wordpool_576.txt	LTP329	ltpFR2	4	16	PATIENT	1024	n/a	n/a	0	0	0
3270317	WORD	wordpools/wasnorm_wordpool_576.txt	LTP329	ltpFR2	4	16	CHAUFFEUR	283	n/a	n/a	0	0	0
3273086	WORD	wordpools/wasnorm_wordpool_576.txt	LTP329	ltpFR2	4	16	MARKET	871	n/a	n/a	0	0	0
3275870	WORD	wordpools/wasnorm_wordpool_576.txt	LTP329	ltpFR2	4	16	FINGER	567	n/a	n/a	0	0	0
3278641	WORD	wordpools/wasnorm_wordpool_576.txt	LTP329	ltpFR2	4	16	CABIN	211	n/a	n/a	0	0	0
3281209	WORD	wordpools/wasnorm_wordpool_576.txt	LTP329	ltpFR2	4	16	ACTRESS	6	n/a	n/a	0	0	0
3283945	WORD	wordpools/wasnorm_wordpool_576.txt	LTP329	ltpFR2	4	16	FILM	565	n/a	n/a	0	0	0
3286564	WORD	wordpools/wasnorm_wordpool_576.txt	LTP329	ltpFR2	4	16	SADDLE	1221	n/a	n/a	0	0	0
3289267	WORD	wordpools/wasnorm_wordpool_576.txt	LTP329	ltpFR2	4	16	TYPIST	1532	n/a	n/a	0	0	0
3291902	WORD	wordpools/wasnorm_wordpool_576.txt	LTP329	ltpFR2	4	16	SALT	1229	n/a	n/a	0	0	0
3294371	WORD	wordpools/wasnorm_wordpool_576.txt	LTP329	ltpFR2	4	16	GLASS	639	n/a	n/a	0	0	0
3297040	WORD	wordpools/wasnorm_wordpool_576.txt	LTP329	ltpFR2	4	16	FLEET	578	n/a	n/a	0	0	0
3299825	WORD	wordpools/wasnorm_wordpool_576.txt	LTP329	ltpFR2	4	16	AIRPORT	13	n/a	n/a	0	0	0
3302495	WORD	wordpools/wasnorm_wordpool_576.txt	LTP329	ltpFR2	4	16	FLASHLIGHT	575	n/a	n/a	0	0	0
3304113	START	n/a	LTP329	ltpFR2	4	n/a	n/a	n/a	24	n/a	n/a	n/a	n/a
3305237	DISTRACTOR	n/a	LTP329	ltpFR2	4	16	n/a	n/a	n/a	n/a	0	0	0
3305264	PROB	n/a	LTP329	ltpFR2	4	n/a	n/a	n/a	24	12	3	5	4
3309050	PROB	n/a	LTP329	ltpFR2	4	n/a	n/a	n/a	24	13	2	7	4
3311102	PROB	n/a	LTP329	ltpFR2	4	n/a	n/a	n/a	24	18	8	3	7
3312669	PROB	n/a	LTP329	ltpFR2	4	n/a	n/a	n/a	24	9	3	1	5
3314322	PROB	n/a	LTP329	ltpFR2	4	n/a	n/a	n/a	24	17	8	7	2
3317558	PROB	n/a	LTP329	ltpFR2	4	n/a	n/a	n/a	24	13	6	4	3
3319109	PROB	n/a	LTP329	ltpFR2	4	n/a	n/a	n/a	24	20	7	8	5
3320793	PROB	n/a	LTP329	ltpFR2	4	n/a	n/a	n/a	24	26	7	7	8
3322979	PROB	n/a	LTP329	ltpFR2	4	n/a	n/a	n/a	24	15	4	3	6
3324981	PROB	n/a	LTP329	ltpFR2	4	n/a	n/a	n/a	24	20	5	7	8
3327962	STOP	n/a	LTP329	ltpFR2	4	n/a	n/a	n/a	24	n/a	n/a	n/a	n/a
3329902	REC_START	n/a	LTP329	ltpFR2	4	16	n/a	n/a	n/a	n/a	0	0	0
3331365	REC_WORD	wordpools/wasnorm_wordpool_576.txt	LTP329	ltpFR2	4	16	FLEET	578	n/a	n/a	0	0	0
3334313	REC_WORD	wordpools/wasnorm_wordpool_576.txt	LTP329	ltpFR2	4	16	AIRPORT	13	n/a	n/a	0	0	0
3350192	REC_WORD	wordpools/wasnorm_wordpool_576.txt	LTP329	ltpFR2	4	16	LIVER	833	n/a	n/a	0	0	0
3406485	REST_REWET	n/a	LTP329	ltpFR2	4	16	n/a	n/a	n/a	n/a	0	0	0
3709283	DISTRACTOR	n/a	LTP329	ltpFR2	4	17	n/a	n/a	n/a	n/a	0	0	0
3709283	START	n/a	LTP329	ltpFR2	4	n/a	n/a	n/a	25	n/a	n/a	n/a	n/a
3709316	PROB	n/a	LTP329	ltpFR2	4	n/a	n/a	n/a	25	21	4	9	8
3711767	PROB	n/a	LTP329	ltpFR2	4	n/a	n/a	n/a	25	7	3	1	3
3713570	PROB	n/a	LTP329	ltpFR2	4	n/a	n/a	n/a	25	18	9	3	6
3717739	PROB	n/a	LTP329	ltpFR2	4	n/a	n/a	n/a	25	17	7	9	1
3719141	PROB	n/a	LTP329	ltpFR2	4	n/a	n/a	n/a	25	16	5	3	8
3721627	PROB	n/a	LTP329	ltpFR2	4	n/a	n/a	n/a	25	14	7	3	4
3723595	PROB	n/a	LTP329	ltpFR2	4	n/a	n/a	n/a	25	12	5	4	3
3725130	PROB	n/a	LTP329	ltpFR2	4	n/a	n/a	n/a	25	14	3	8	3
3726830	PROB	n/a	LTP329	ltpFR2	4	n/a	n/a	n/a	25	11	1	9	1
3727949	PROB	n/a	LTP329	ltpFR2	4	n/a	n/a	n/a	25	18	7	3	8
3729233	PROB	n/a	LTP329	ltpFR2	4	n/a	n/a	n/a	25	10	1	7	2
3730634	PROB	n/a	LTP329	ltpFR2	4	n/a	n/a	n/a	25	11	3	5	3
3732082	STOP	n/a	LTP329	ltpFR2	4	n/a	n/a	n/a	25	n/a	n/a	n/a	n/a
3734454	WORD	wordpools/wasnorm_wordpool_576.txt	LTP329	ltpFR2	4	17	GUITAR	670	n/a	n/a	0	0	0
3737190	WORD	wordpools/wasnorm_wordpool_576.txt	LTP329	ltpFR2	4	17	PENGUIN	1044	n/a	n/a	0	0	0
3739909	WORD	wordpools/wasnorm_wordpool_576.txt	LTP329	ltpFR2	4	17	TRANSPLANT	1496	n/a	n/a	0	0	0
3742595	WORD	wordpools/wasnorm_wordpool_576.txt	LTP329	ltpFR2	4	17	PEACH	1031	n/a	n/a	0	0	0
3745264	WORD	wordpools/wasnorm_wordpool_576.txt	LTP329	ltpFR2	4	17	FRUIT	610	n/a	n/a	0	0	0
3747865	WORD	wordpools/wasnorm_wordpool_576.txt	LTP329	ltpFR2	4	17	COIN	343	n/a	n/a	0	0	0
3750619	WORD	wordpools/wasnorm_wordpool_576.txt	LTP329	ltpFR2	4	17	WORKER	1621	n/a	n/a	0	0	0
3753304	WORD	wordpools/wasnorm_wordpool_576.txt	LTP329	ltpFR2	4	17	PUPIL	1143	n/a	n/a	0	0	0
3755973	WORD	wordpools/wasnorm_wordpool_576.txt	LTP329	ltpFR2	4	17	GAZELLE	628	n/a	n/a	0	0	0
3758708	WORD	wordpools/wasnorm_wordpool_576.txt	LTP329	ltpFR2	4	17	STONE	1385	n/a	n/a	0	0	0
3761361	WORD	wordpools/wasnorm_wordpool_576.txt	LTP329	ltpFR2	4	17	KIDNEY	776	n/a	n/a	0	0	0
3764030	WORD	wordpools/wasnorm_wordpool_576.txt	LTP329	ltpFR2	4	17	BANK	83	n/a	n/a	0	0	0
3766616	WORD	wordpools/wasnorm_wordpool_576.txt	LTP329	ltpFR2	4	17	BUTCHER	203	n/a	n/a	0	0	0
3769351	WORD	wordpools/wasnorm_wordpool_576.txt	LTP329	ltpFR2	4	17	DENTIST	447	n/a	n/a	0	0	0
3771836	WORD	wordpools/wasnorm_wordpool_576.txt	LTP329	ltpFR2	4	17	MOTOR	922	n/a	n/a	0	0	0
3774389	WORD	wordpools/wasnorm_wordpool_576.txt	LTP329	ltpFR2	4	17	TOMBSTONE	1478	n/a	n/a	0	0	0
3776908	WORD	wordpools/wasnorm_wordpool_576.txt	LTP329	ltpFR2	4	17	NURSE	963	n/a	n/a	0	0	0
3779510	WORD	wordpools/wasnorm_wordpool_576.txt	LTP329	ltpFR2	4	17	RECEIPT	1173	n/a	n/a	0	0	0
3782196	WORD	wordpools/wasnorm_wordpool_576.txt	LTP329	ltpFR2	4	17	BLADE	134	n/a	n/a	0	0	0
3784681	WORD	wordpools/wasnorm_wordpool_576.txt	LTP329	ltpFR2	4	17	WASP	1593	n/a	n/a	0	0	0
3787200	WORD	wordpools/wasnorm_wordpool_576.txt	LTP329	ltpFR2	4	17	JEANS	752	n/a	n/a	0	0	0
3789852	WORD	wordpools/wasnorm_wordpool_576.txt	LTP329	ltpFR2	4	17	CASKET	255	n/a	n/a	0	0	0
3792438	WORD	wordpools/wasnorm_wordpool_576.txt	LTP329	ltpFR2	4	17	ORCHID	982	n/a	n/a	0	0	0
3794941	WORD	wordpools/wasnorm_wordpool_576.txt	LTP329	ltpFR2	4	17	KNAPSACK	783	n/a	n/a	0	0	0
3796559	START	n/a	LTP329	ltpFR2	4	n/a	n/a	n/a	26	n/a	n/a	n/a	n/a
3797562	DISTRACTOR	n/a	LTP329	ltpFR2	4	17	n/a	n/a	n/a	n/a	0	0	0
3797593	PROB	n/a	LTP329	ltpFR2	4	n/a	n/a	n/a	26	16	4	5	7
3801596	PROB	n/a	LTP329	ltpFR2	4	n/a	n/a	n/a	26	12	1	3	8
3803114	PROB	n/a	LTP329	ltpFR2	4	n/a	n/a	n/a	26	21	8	9	4
3804881	PROB	n/a	LTP329	ltpFR2	4	n/a	n/a	n/a	26	7	1	1	5
3806683	PROB	n/a	LTP329	ltpFR2	4	n/a	n/a	n/a	26	7	1	5	1
3808885	PROB	n/a	LTP329	ltpFR2	4	n/a	n/a	n/a	26	17	9	1	7
3810421	PROB	n/a	LTP329	ltpFR2	4	n/a	n/a	n/a	26	25	8	9	8
3812372	PROB	n/a	LTP329	ltpFR2	4	n/a	n/a	n/a	26	17	3	8	6
3814224	PROB	n/a	LTP329	ltpFR2	4	n/a	n/a	n/a	26	10	1	3	6
3815425	PROB	n/a	LTP329	ltpFR2	4	n/a	n/a	n/a	26	17	5	9	3
3817260	PROB	n/a	LTP329	ltpFR2	4	n/a	n/a	n/a	26	18	3	9	6
3819982	STOP	n/a	LTP329	ltpFR2	4	n/a	n/a	n/a	26	n/a	n/a	n/a	n/a
3822432	REC_START	n/a	LTP329	ltpFR2	4	17	n/a	n/a	n/a	n/a	0	0	0
3824540	REC_WORD	wordpools/wasnorm_wordpool_576.txt	LTP329	ltpFR2	4	17	TOMBSTONE	1478	n/a	n/a	0	0	0
3826651	REC_WORD	wordpools/wasnorm_wordpool_576.txt	LTP329	ltpFR2	4	17	CASKET	255	n/a	n/a	0	0	0
3828541	REC_WORD	wordpools/wasnorm_wordpool_576.txt	LTP329	ltpFR2	4	17	ORCHID	982	n/a	n/a	0	0	0
3833295	REC_WORD	wordpools/wasnorm_wordpool_576.txt	LTP329	ltpFR2	4	17	PUPIL	1143	n/a	n/a	0	0	0
3835281	REC_WORD	wordpools/wasnorm_wordpool_576.txt	LTP329	ltpFR2	4	17	WORKER	1621	n/a	n/a	0	0	0
3837490	REC_WORD	wordpools/wasnorm_wordpool_576.txt	LTP329	ltpFR2	4	17	NURSE	963	n/a	n/a	0	0	0
3839292	REC_WORD	wordpools/wasnorm_wordpool_576.txt	LTP329	ltpFR2	4	17	DENTIST	447	n/a	n/a	0	0	0
3841639	REC_WORD	wordpools/wasnorm_wordpool_576.txt	LTP329	ltpFR2	4	17	BUTCHER	203	n/a	n/a	0	0	0
3846443	REC_WORD	wordpools/wasnorm_wordpool_576.txt	LTP329	ltpFR2	4	17	PEACH	1031	n/a	n/a	0	0	0
3848607	REC_WORD	wordpools/wasnorm_wordpool_576.txt	LTP329	ltpFR2	4	17	FRUIT	610	n/a	n/a	0	0	0
3857964	REC_WORD	wordpools/wasnorm_wordpool_576.txt	LTP329	ltpFR2	4	17	TRANSPLANT	1496	n/a	n/a	0	0	0
3859843	REC_WORD	wordpools/wasnorm_wordpool_576.txt	LTP329	ltpFR2	4	17	KIDNEY	776	n/a	n/a	0	0	0
3861910	REC_WORD	wordpools/wasnorm_wordpool_576.txt	LTP329	ltpFR2	4	17	STONE	1385	n/a	n/a	0	0	0
3879314	REC_WORD	wordpools/wasnorm_wordpool_576.txt	LTP329	ltpFR2	4	17	GAZELLE	628	n/a	n/a	0	0	0
3882853	REC_WORD	wordpools/wasnorm_wordpool_576.txt	LTP329	ltpFR2	4	17	PENGUIN	1044	n/a	n/a	0	0	0
3912943	DISTRACTOR	n/a	LTP329	ltpFR2	4	18	n/a	n/a	n/a	n/a	0	0	0
3912943	START	n/a	LTP329	ltpFR2	4	n/a	n/a	n/a	27	n/a	n/a	n/a	n/a
3912977	PROB	n/a	LTP329	ltpFR2	4	n/a	n/a	n/a	27	17	2	6	9
3915562	PROB	n/a	LTP329	ltpFR2	4	n/a	n/a	n/a	27	14	8	2	4
3916913	PROB	n/a	LTP329	ltpFR2	4	n/a	n/a	n/a	27	1	6	1	4
3918131	PROB	n/a	LTP329	ltpFR2	4	n/a	n/a	n/a	27	20	9	8	3
3920650	PROB	n/a	LTP329	ltpFR2	4	n/a	n/a	n/a	27	12	3	4	5
3922585	PROB	n/a	LTP329	ltpFR2	4	n/a	n/a	n/a	27	9	3	1	5
3924553	PROB	n/a	LTP329	ltpFR2	4	n/a	n/a	n/a	27	11	2	3	6
3926288	PROB	n/a	LTP329	ltpFR2	4	n/a	n/a	n/a	27	14	1	8	3
3928373	PROB	n/a	LTP329	ltpFR2	4	n/a	n/a	n/a	27	15	4	7	4
3931576	PROB	n/a	LTP329	ltpFR2	4	n/a	n/a	n/a	27	13	9	3	1
3934195	PROB	n/a	LTP329	ltpFR2	4	n/a	n/a	n/a	27	12	7	2	3
3936082	STOP	n/a	LTP329	ltpFR2	4	n/a	n/a	n/a	27	n/a	n/a	n/a	n/a
3938015	WORD	wordpools/wasnorm_wordpool_576.txt	LTP329	ltpFR2	4	18	PERCH	1048	n/a	n/a	0	0	0
3940733	WORD	wordpools/wasnorm_wordpool_576.txt	LTP329	ltpFR2	4	18	SERVER	1272	n/a	n/a	0	0	0
3943170	WORD	wordpools/wasnorm_wordpool_576.txt	LTP329	ltpFR2	4	18	KITCHEN	778	n/a	n/a	0	0	0
3945687	WORD	wordpools/wasnorm_wordpool_576.txt	LTP329	ltpFR2	4	18	OX	994	n/a	n/a	0	0	0
3948157	WORD	wordpools/wasnorm_wordpool_576.txt	LTP329	ltpFR2	4	18	TABLE	1426	n/a	n/a	0	0	0
3950825	WORD	wordpools/wasnorm_wordpool_576.txt	LTP329	ltpFR2	4	18	DONOR	485	n/a	n/a	0	0	0
3953412	WORD	wordpools/wasnorm_wordpool_576.txt	LTP329	ltpFR2	4	18	HEART	697	n/a	n/a	0	0	0
3955931	WORD	wordpools/wasnorm_wordpool_576.txt	LTP329	ltpFR2	4	18	CASHIER	254	n/a	n/a	0	0	0
3958433	WORD	wordpools/wasnorm_wordpool_576.txt	LTP329	ltpFR2	4	18	CANDY	230	n/a	n/a	0	0	0
3961135	WORD	wordpools/wasnorm_wordpool_576.txt	LTP329	ltpFR2	4	18	ROBBER	1197	n/a	n/a	0	0	0
3963954	WORD	wordpools/wasnorm_wordpool_576.txt	LTP329	ltpFR2	4	18	HOSTESS	723	n/a	n/a	0	0	0
3966590	WORD	wordpools/wasnorm_wordpool_576.txt	LTP329	ltpFR2	4	18	BANQUET	86	n/a	n/a	0	0	0
3969409	WORD	wordpools/wasnorm_wordpool_576.txt	LTP329	ltpFR2	4	18	DENIM	446	n/a	n/a	0	0	0
3972045	WORD	wordpools/wasnorm_wordpool_576.txt	LTP329	ltpFR2	4	18	PEPPER	1047	n/a	n/a	0	0	0
3974663	WORD	wordpools/wasnorm_wordpool_576.txt	LTP329	ltpFR2	4	18	DRUG	501	n/a	n/a	0	0	0
3977133	WORD	wordpools/wasnorm_wordpool_576.txt	LTP329	ltpFR2	4	18	MARROW	872	n/a	n/a	0	0	0
3979867	WORD	wordpools/wasnorm_wordpool_576.txt	LTP329	ltpFR2	4	18	GROUND	666	n/a	n/a	0	0	0
3982637	WORD	wordpools/wasnorm_wordpool_576.txt	LTP329	ltpFR2	4	18	PLAZA	1088	n/a	n/a	0	0	0
3985173	WORD	wordpools/wasnorm_wordpool_576.txt	LTP329	ltpFR2	4	18	LEOPARD	812	n/a	n/a	0	0	0
3987975	WORD	wordpools/wasnorm_wordpool_576.txt	LTP329	ltpFR2	4	18	POSSUM	1112	n/a	n/a	0	0	0
3990677	WORD	wordpools/wasnorm_wordpool_576.txt	LTP329	ltpFR2	4	18	PARROT	1015	n/a	n/a	0	0	0
3993130	WORD	wordpools/wasnorm_wordpool_576.txt	LTP329	ltpFR2	4	18	PARTNER	1017	n/a	n/a	0	0	0
3995916	WORD	wordpools/wasnorm_wordpool_576.txt	LTP329	ltpFR2	4	18	WAITRESS	1581	n/a	n/a	0	0	0
3998484	WORD	wordpools/wasnorm_wordpool_576.txt	LTP329	ltpFR2	4	18	ZIPPER	1636	n/a	n/a	0	0	0
4000103	START	n/a	LTP329	ltpFR2	4	n/a	n/a	n/a	28	n/a	n/a	n/a	n/a
4001057	DISTRACTOR	n/a	LTP329	ltpFR2	4	18	n/a	n/a	n/a	n/a	0	0	0
4001087	PROB	n/a	LTP329	ltpFR2	4	n/a	n/a	n/a	28	16	6	3	7
4003705	PROB	n/a	LTP329	ltpFR2	4	n/a	n/a	n/a	28	23	8	8	7
4007875	PROB	n/a	LTP329	ltpFR2	4	n/a	n/a	n/a	28	9	3	5	1
4009893	PROB	n/a	LTP329	ltpFR2	4	n/a	n/a	n/a	28	16	6	3	7
4011346	PROB	n/a	LTP329	ltpFR2	4	n/a	n/a	n/a	28	21	5	9	7
4014015	PROB	n/a	LTP329	ltpFR2	4	n/a	n/a	n/a	28	25	9	7	9
4016050	PROB	n/a	LTP329	ltpFR2	4	n/a	n/a	n/a	28	19	5	8	6
4019503	PROB	n/a	LTP329	ltpFR2	4	n/a	n/a	n/a	28	20	8	5	7
4021521	PROB	n/a	LTP329	ltpFR2	4	n/a	n/a	n/a	28	17	4	9	4
4023454	STOP	n/a	LTP329	ltpFR2	4	n/a	n/a	n/a	28	n/a	n/a	n/a	n/a
4026026	REC_START	n/a	LTP329	ltpFR2	4	18	n/a	n/a	n/a	n/a	0	0	0
4026806	REC_WORD	wordpools/wasnorm_wordpool_576.txt	LTP329	ltpFR2	4	18	PERCH	1048	n/a	n/a	0	0	0
4029040	REC_WORD	wordpools/wasnorm_wordpool_576.txt	LTP329	ltpFR2	4	18	PARROT	1015	n/a	n/a	0	0	0
4037804	REC_WORD	wordpools/wasnorm_wordpool_576.txt	LTP329	ltpFR2	4	18	HEART	697	n/a	n/a	0	0	0
4040453	REC_WORD	wordpools/wasnorm_wordpool_576.txt	LTP329	ltpFR2	4	18	DONOR	485	n/a	n/a	0	0	0
4042468	REC_WORD	wordpools/wasnorm_wordpool_576.txt	LTP329	ltpFR2	4	18	GROUND	666	n/a	n/a	0	0	0
4068594	REC_WORD	wordpools/wasnorm_wordpool_576.txt	LTP329	ltpFR2	4	18	LEOPARD	812	n/a	n/a	0	0	0
4116487	DISTRACTOR	n/a	LTP329	ltpFR2	4	19	n/a	n/a	n/a	n/a	0	0	0
4116487	START	n/a	LTP329	ltpFR2	4	n/a	n/a	n/a	29	n/a	n/a	n/a	n/a
4116504	PROB	n/a	LTP329	ltpFR2	4	n/a	n/a	n/a	29	15	6	5	4
4118872	PROB	n/a	LTP329	ltpFR2	4	n/a	n/a	n/a	29	21	6	7	8
4121041	PROB	n/a	LTP329	ltpFR2	4	n/a	n/a	n/a	29	11	5	3	3
4123327	PROB	n/a	LTP329	ltpFR2	4	n/a	n/a	n/a	29	17	4	8	5
4125128	PROB	n/a	LTP329	ltpFR2	4	n/a	n/a	n/a	29	11	1	9	1
4126246	PROB	n/a	LTP329	ltpFR2	4	n/a	n/a	n/a	29	18	6	6	6
4127514	PROB	n/a	LTP329	ltpFR2	4	n/a	n/a	n/a	29	15	4	2	9
4129365	PROB	n/a	LTP329	ltpFR2	4	n/a	n/a	n/a	29	13	8	4	1
4130967	PROB	n/a	LTP329	ltpFR2	4	n/a	n/a	n/a	29	17	8	5	4
4133102	PROB	n/a	LTP329	ltpFR2	4	n/a	n/a	n/a	29	20	7	4	9
4135087	PROB	n/a	LTP329	ltpFR2	4	n/a	n/a	n/a	29	15	7	2	6
4136804	PROB	n/a	LTP329	ltpFR2	4	n/a	n/a	n/a	29	9	1	7	1
4138023	PROB	n/a	LTP329	ltpFR2	4	n/a	n/a	n/a	29	15	5	1	9
4139411	STOP	n/a	LTP329	ltpFR2	4	n/a	n/a	n/a	29	n/a	n/a	n/a	n/a
4141526	WORD	wordpools/wasnorm_wordpool_576.txt	LTP329	ltpFR2	4	19	VIKING	1565	n/a	n/a	0	0	0
4144178	WORD	wordpools/wasnorm_wordpool_576.txt	LTP329	ltpFR2	4	19	PADDLE	1000	n/a	n/a	0	0	0
4146796	WORD	wordpools/wasnorm_wordpool_576.txt	LTP329	ltpFR2	4	19	SHOULDER	1294	n/a	n/a	0	0	0
4149516	WORD	wordpools/wasnorm_wordpool_576.txt	LTP329	ltpFR2	4	19	BLUEPRINT	142	n/a	n/a	0	0	0
4151985	WORD	wordpools/wasnorm_wordpool_576.txt	LTP329	ltpFR2	4	19	XEROX	1628	n/a	n/a	0	0	0
4154504	WORD	wordpools/wasnorm_wordpool_576.txt	LTP329	ltpFR2	4	19	BULLET	194	n/a	n/a	0	0	0
4157206	WORD	wordpools/wasnorm_wordpool_576.txt	LTP329	ltpFR2	4	19	ANKLE	24	n/a	n/a	0	0	0
4160009	WORD	wordpools/wasnorm_wordpool_576.txt	LTP329	ltpFR2	4	19	SMOG	1330	n/a	n/a	0	0	0
4162777	WORD	wordpools/wasnorm_wordpool_576.txt	LTP329	ltpFR2	4	19	CHEST	295	n/a	n/a	0	0	0
4165430	WORD	wordpools/wasnorm_wordpool_576.txt	LTP329	ltpFR2	4	19	PICTURE	1061	n/a	n/a	0	0	0
4168016	WORD	wordpools/wasnorm_wordpool_576.txt	LTP329	ltpFR2	4	19	CROWN	415	n/a	n/a	0	0	0
4170501	WORD	wordpools/wasnorm_wordpool_576.txt	LTP329	ltpFR2	4	19	RUST	1219	n/a	n/a	0	0	0
4173153	WORD	wordpools/wasnorm_wordpool_576.txt	LTP329	ltpFR2	4	19	SWORD	1423	n/a	n/a	0	0	0
4175721	WORD	wordpools/wasnorm_wordpool_576.txt	LTP329	ltpFR2	4	19	ARM	38	n/a	n/a	0	0	0
4178542	WORD	wordpools/wasnorm_wordpool_576.txt	LTP329	ltpFR2	4	19	FRECKLE	602	n/a	n/a	0	0	0
4181244	WORD	wordpools/wasnorm_wordpool_576.txt	LTP329	ltpFR2	4	19	FRAME	600	n/a	n/a	0	0	0
4184013	WORD	wordpools/wasnorm_wordpool_576.txt	LTP329	ltpFR2	4	19	SCULPTURE	1258	n/a	n/a	0	0	0
4186698	WORD	wordpools/wasnorm_wordpool_576.txt	LTP329	ltpFR2	4	19	CAFE	216	n/a	n/a	0	0	0
4189317	WORD	wordpools/wasnorm_wordpool_576.txt	LTP329	ltpFR2	4	19	PEBBLE	1035	n/a	n/a	0	0	0
4191785	WORD	wordpools/wasnorm_wordpool_576.txt	LTP329	ltpFR2	4	19	MASK	876	n/a	n/a	0	0	0
4194489	WORD	wordpools/wasnorm_wordpool_576.txt	LTP329	ltpFR2	4	19	FOREHEAD	592	n/a	n/a	0	0	0
4196958	WORD	wordpools/wasnorm_wordpool_576.txt	LTP329	ltpFR2	4	19	LAMP	798	n/a	n/a	0	0	0
4199776	WORD	wordpools/wasnorm_wordpool_576.txt	LTP329	ltpFR2	4	19	COCKTAIL	338	n/a	n/a	0	0	0
4202379	WORD	wordpools/wasnorm_wordpool_576.txt	LTP329	ltpFR2	4	19	BEEF	113	n/a	n/a	0	0	0
4203997	START	n/a	LTP329	ltpFR2	4	n/a	n/a	n/a	30	n/a	n/a	n/a	n/a
4204996	DISTRACTOR	n/a	LTP329	ltpFR2	4	19	n/a	n/a	n/a	n/a	0	0	0
4205015	PROB	n/a	LTP329	ltpFR2	4	n/a	n/a	n/a	30	14	6	2	6
4207650	PROB	n/a	LTP329	ltpFR2	4	n/a	n/a	n/a	30	18	8	8	2
4209185	PROB	n/a	LTP329	ltpFR2	4	n/a	n/a	n/a	30	16	4	7	5
4211270	PROB	n/a	LTP329	ltpFR2	4	n/a	n/a	n/a	30	12	8	3	1
4215740	PROB	n/a	LTP329	ltpFR2	4	n/a	n/a	n/a	30	18	9	8	1
4217542	PROB	n/a	LTP329	ltpFR2	4	n/a	n/a	n/a	30	15	8	3	4
4219510	PROB	n/a	LTP329	ltpFR2	4	n/a	n/a	n/a	30	12	6	2	5
4222363	PROB	n/a	LTP329	ltpFR2	4	n/a	n/a	n/a	30	15	2	4	9
4225065	PROB	n/a	LTP329	ltpFR2	4	n/a	n/a	n/a	30	15	2	9	4
4226741	STOP	n/a	LTP329	ltpFR2	4	n/a	n/a	n/a	30	n/a	n/a	n/a	n/a
4229903	REC_START	n/a	LTP329	ltpFR2	4	19	n/a	n/a	n/a	n/a	0	0	0
4232076	REC_WORD	wordpools/wasnorm_wordpool_576.txt	LTP329	ltpFR2	4	19	PEBBLE	1035	n/a	n/a	0	0	0
4237293	REC_WORD	wordpools/wasnorm_wordpool_576.txt	LTP329	ltpFR2	4	19	CHEST	295	n/a	n/a	0	0	0
4240991	REC_WORD	wordpools/wasnorm_wordpool_576.txt	LTP329	ltpFR2	4	19	SHOULDER	1294	n/a	n/a	0	0	0
4243375	REC_WORD	wordpools/wasnorm_wordpool_576.txt	LTP329	ltpFR2	4	19	ANKLE	24	n/a	n/a	0	0	0
4245315	REC_WORD	wordpools/wasnorm_wordpool_576.txt	LTP329	ltpFR2	4	19	FRECKLE	602	n/a	n/a	0	0	0
4247273	REC_WORD	wordpools/wasnorm_wordpool_576.txt	LTP329	ltpFR2	4	19	FOREHEAD	592	n/a	n/a	0	0	0
4249728	REC_WORD	wordpools/wasnorm_wordpool_576.txt	LTP329	ltpFR2	4	19	MASK	876	n/a	n/a	0	0	0
4261671	REC_WORD	wordpools/wasnorm_wordpool_576.txt	LTP329	ltpFR2	4	19	XEROX	1628	n/a	n/a	0	0	0
4293013	REC_WORD	wordpools/wasnorm_wordpool_576.txt	LTP329	ltpFR2	4	19	VIKING	1565	n/a	n/a	0	0	0
4294846	REC_WORD	wordpools/wasnorm_wordpool_576.txt	LTP329	ltpFR2	4	19	CROWN	415	n/a	n/a	0	0	0
4320382	WORD	wordpools/wasnorm_wordpool_576.txt	LTP329	ltpFR2	4	20	POSTAGE	1113	n/a	n/a	0	0	0
4323117	WORD	wordpools/wasnorm_wordpool_576.txt	LTP329	ltpFR2	4	20	PLAID	1080	n/a	n/a	0	0	0
4325835	WORD	wordpools/wasnorm_wordpool_576.txt	LTP329	ltpFR2	4	20	DORM	488	n/a	n/a	0	0	0
4328322	WORD	wordpools/wasnorm_wordpool_576.txt	LTP329	ltpFR2	4	20	CHAMPAGNE	278	n/a	n/a	0	0	0
4330773	WORD	wordpools/wasnorm_wordpool_576.txt	LTP329	ltpFR2	4	20	CYCLONE	431	n/a	n/a	0	0	0
4333510	WORD	wordpools/wasnorm_wordpool_576.txt	LTP329	ltpFR2	4	20	GAVEL	627	n/a	n/a	0	0	0
4336179	WORD	wordpools/wasnorm_wordpool_576.txt	LTP329	ltpFR2	4	20	MOTEL	919	n/a	n/a	0	0	0
4338830	WORD	wordpools/wasnorm_wordpool_576.txt	LTP329	ltpFR2	4	20	EYELASH	546	n/a	n/a	0	0	0
4341400	WORD	wordpools/wasnorm_wordpool_576.txt	LTP329	ltpFR2	4	20	GARBAGE	622	n/a	n/a	0	0	0
4344069	WORD	wordpools/wasnorm_wordpool_576.txt	LTP329	ltpFR2	4	20	ATLAS	53	n/a	n/a	0	0	0
4346655	WORD	wordpools/wasnorm_wordpool_576.txt	LTP329	ltpFR2	4	20	WITNESS	1618	n/a	n/a	0	0	0
4349290	WORD	wordpools/wasnorm_wordpool_576.txt	LTP329	ltpFR2	4	20	JURY	766	n/a	n/a	0	0	0
4351808	WORD	wordpools/wasnorm_wordpool_576.txt	LTP329	ltpFR2	4	20	DASHBOARD	441	n/a	n/a	0	0	0
4354361	WORD	wordpools/wasnorm_wordpool_576.txt	LTP329	ltpFR2	4	20	SHERIFF	1284	n/a	n/a	0	0	0
4357030	WORD	wordpools/wasnorm_wordpool_576.txt	LTP329	ltpFR2	4	20	JOURNAL	760	n/a	n/a	0	0	0
4359798	WORD	wordpools/wasnorm_wordpool_576.txt	LTP329	ltpFR2	4	20	NOTEBOOK	959	n/a	n/a	0	0	0
4362569	WORD	wordpools/wasnorm_wordpool_576.txt	LTP329	ltpFR2	4	20	FRIAR	605	n/a	n/a	0	0	0
4365087	WORD	wordpools/wasnorm_wordpool_576.txt	LTP329	ltpFR2	4	20	SKIRT	1319	n/a	n/a	0	0	0
4367855	WORD	wordpools/wasnorm_wordpool_576.txt	LTP329	ltpFR2	4	20	WARDROBE	1587	n/a	n/a	0	0	0
4370576	WORD	wordpools/wasnorm_wordpool_576.txt	LTP329	ltpFR2	4	20	SODA	1341	n/a	n/a	0	0	0
4373361	WORD	wordpools/wasnorm_wordpool_576.txt	LTP329	ltpFR2	4	20	GRIZZLY	662	n/a	n/a	0	0	0
4375913	WORD	wordpools/wasnorm_wordpool_576.txt	LTP329	ltpFR2	4	20	SANDWICH	1232	n/a	n/a	0	0	0
4378566	WORD	wordpools/wasnorm_wordpool_576.txt	LTP329	ltpFR2	4	20	TWISTER	1530	n/a	n/a	0	0	0
4381135	WORD	wordpools/wasnorm_wordpool_576.txt	LTP329	ltpFR2	4	20	FARMER	553	n/a	n/a	0	0	0
4382752	START	n/a	LTP329	ltpFR2	4	n/a	n/a	n/a	31	n/a	n/a	n/a	n/a
4383691	DISTRACTOR	n/a	LTP329	ltpFR2	4	20	n/a	n/a	n/a	n/a	0	0	0
4383702	PROB	n/a	LTP329	ltpFR2	4	n/a	n/a	n/a	31	14	4	1	9
4386389	PROB	n/a	LTP329	ltpFR2	4	n/a	n/a	n/a	31	12	6	4	2
4387739	PROB	n/a	LTP329	ltpFR2	4	n/a	n/a	n/a	31	22	9	5	8
4390343	PROB	n/a	LTP329	ltpFR2	4	n/a	n/a	n/a	31	14	1	4	9
4391759	PROB	n/a	LTP329	ltpFR2	4	n/a	n/a	n/a	31	15	8	2	5
4393012	PROB	n/a	LTP329	ltpFR2	4	n/a	n/a	n/a	31	15	4	2	9
4394596	PROB	n/a	LTP329	ltpFR2	4	n/a	n/a	n/a	31	13	8	1	4
4396548	PROB	n/a	LTP329	ltpFR2	4	n/a	n/a	n/a	31	16	9	4	3
4398300	PROB	n/a	LTP329	ltpFR2	4	n/a	n/a	n/a	31	15	3	8	4
4400001	PROB	n/a	LTP329	ltpFR2	4	n/a	n/a	n/a	31	9	2	1	6
4401502	PROB	n/a	LTP329	ltpFR2	4	n/a	n/a	n/a	31	19	4	8	7
4403387	PROB	n/a	LTP329	ltpFR2	4	n/a	n/a	n/a	31	19	8	8	3
4406752	STOP	n/a	LTP329	ltpFR2	4	n/a	n/a	n/a	31	n/a	n/a	n/a	n/a
4408559	REC_START	n/a	LTP329	ltpFR2	4	20	n/a	n/a	n/a	n/a	0	0	0
4410782	REC_WORD	wordpools/wasnorm_wordpool_576.txt	LTP329	ltpFR2	4	20	GAVEL	627	n/a	n/a	0	0	0
4412513	REC_WORD	wordpools/wasnorm_wordpool_576.txt	LTP329	ltpFR2	4	20	JURY	766	n/a	n/a	0	0	0
4415095	REC_WORD	wordpools/wasnorm_wordpool_576.txt	LTP329	ltpFR2	4	20	WITNESS	1618	n/a	n/a	0	0	0
4416856	REC_WORD	wordpools/wasnorm_wordpool_576.txt	LTP329	ltpFR2	4	20	SHERIFF	1284	n/a	n/a	0	0	0
4421830	REC_WORD	wordpools/wasnorm_wordpool_576.txt	LTP329	ltpFR2	4	20	JOURNAL	760	n/a	n/a	0	0	0
4423940	REC_WORD	wordpools/wasnorm_wordpool_576.txt	LTP329	ltpFR2	4	20	NOTEBOOK	959	n/a	n/a	0	0	0
4434658	REC_WORD	wordpools/wasnorm_wordpool_576.txt	LTP329	ltpFR2	4	20	GRIZZLY	662	n/a	n/a	0	0	0
4441981	REC_WORD	wordpools/wasnorm_wordpool_576.txt	LTP329	ltpFR2	4	20	ATLAS	53	n/a	n/a	0	0	0
4499221	WORD	wordpools/wasnorm_wordpool_576.txt	LTP329	ltpFR2	4	21	BASEMENT	94	n/a	n/a	0	0	0
4501722	WORD	wordpools/wasnorm_wordpool_576.txt	LTP329	ltpFR2	4	21	PISTON	1076	n/a	n/a	0	0	0
4504275	WORD	wordpools/wasnorm_wordpool_576.txt	LTP329	ltpFR2	4	21	PERMIT	1051	n/a	n/a	0	0	0
4506978	WORD	wordpools/wasnorm_wordpool_576.txt	LTP329	ltpFR2	4	21	GOBLIN	645	n/a	n/a	0	0	0
4509763	WORD	wordpools/wasnorm_wordpool_576.txt	LTP329	ltpFR2	4	21	COMPASS	358	n/a	n/a	0	0	0
4512299	WORD	wordpools/wasnorm_wordpool_576.txt	LTP329	ltpFR2	4	21	BRAKE	166	n/a	n/a	0	0	0
4514800	WORD	wordpools/wasnorm_wordpool_576.txt	LTP329	ltpFR2	4	21	DRIVER	499	n/a	n/a	0	0	0
4517637	WORD	wordpools/wasnorm_wordpool_576.txt	LTP329	ltpFR2	4	21	OMELET	976	n/a	n/a	0	0	0
4520373	WORD	wordpools/wasnorm_wordpool_576.txt	LTP329	ltpFR2	4	21	KEEPER	769	n/a	n/a	0	0	0
4522942	WORD	wordpools/wasnorm_wordpool_576.txt	LTP329	ltpFR2	4	21	LILY	821	n/a	n/a	0	0	0
4525444	WORD	wordpools/wasnorm_wordpool_576.txt	LTP329	ltpFR2	4	21	POWDER	1117	n/a	n/a	0	0	0
4527878	WORD	wordpools/wasnorm_wordpool_576.txt	LTP329	ltpFR2	4	21	BEAKER	104	n/a	n/a	0	0	0
4530581	WORD	wordpools/wasnorm_wordpool_576.txt	LTP329	ltpFR2	4	21	TRENCH	1503	n/a	n/a	0	0	0
4533317	WORD	wordpools/wasnorm_wordpool_576.txt	LTP329	ltpFR2	4	21	OUTDOORS	987	n/a	n/a	0	0	0
4535802	WORD	wordpools/wasnorm_wordpool_576.txt	LTP329	ltpFR2	4	21	CURTAIN	427	n/a	n/a	0	0	0
4538272	WORD	wordpools/wasnorm_wordpool_576.txt	LTP329	ltpFR2	4	21	HAND	683	n/a	n/a	0	0	0
4541074	WORD	wordpools/wasnorm_wordpool_576.txt	LTP329	ltpFR2	4	21	CLAMP	316	n/a	n/a	0	0	0
4543792	WORD	wordpools/wasnorm_wordpool_576.txt	LTP329	ltpFR2	4	21	CHURCH	307	n/a	n/a	0	0	0
4546495	WORD	wordpools/wasnorm_wordpool_576.txt	LTP329	ltpFR2	4	21	TEMPLE	1448	n/a	n/a	0	0	0
4549048	WORD	wordpools/wasnorm_wordpool_576.txt	LTP329	ltpFR2	4	21	CRITIC	410	n/a	n/a	0	0	0
4551633	WORD	wordpools/wasnorm_wordpool_576.txt	LTP329	ltpFR2	4	21	MONSTER	912	n/a	n/a	0	0	0
4554135	WORD	wordpools/wasnorm_wordpool_576.txt	LTP329	ltpFR2	4	21	COURSE	390	n/a	n/a	0	0	0
4556921	WORD	wordpools/wasnorm_wordpool_576.txt	LTP329	ltpFR2	4	21	COLLEGE	346	n/a	n/a	0	0	0
4559407	WORD	wordpools/wasnorm_wordpool_576.txt	LTP329	ltpFR2	4	21	BEAVER	109	n/a	n/a	0	0	0
4561025	START	n/a	LTP329	ltpFR2	4	n/a	n/a	n/a	32	n/a	n/a	n/a	n/a
4562144	DISTRACTOR	n/a	LTP329	ltpFR2	4	21	n/a	n/a	n/a	n/a	0	0	0
4562159	PROB	n/a	LTP329	ltpFR2	4	n/a	n/a	n/a	32	13	5	6	2
4566163	PROB	n/a	LTP329	ltpFR2	4	n/a	n/a	n/a	32	8	6	1	1
4567280	PROB	n/a	LTP329	ltpFR2	4	n/a	n/a	n/a	32	15	8	3	4
4569249	PROB	n/a	LTP329	ltpFR2	4	n/a	n/a	n/a	32	8	3	1	4
4571067	PROB	n/a	LTP329	ltpFR2	4	n/a	n/a	n/a	32	11	2	4	5
4573885	PROB	n/a	LTP329	ltpFR2	4	n/a	n/a	n/a	32	11	8	2	1
4574970	PROB	n/a	LTP329	ltpFR2	4	n/a	n/a	n/a	32	16	6	5	5
4576288	PROB	n/a	LTP329	ltpFR2	4	n/a	n/a	n/a	32	12	2	1	9
4577522	PROB	n/a	LTP329	ltpFR2	4	n/a	n/a	n/a	32	18	3	7	8
4578789	PROB	n/a	LTP329	ltpFR2	4	n/a	n/a	n/a	32	4	1	1	2
4579941	PROB	n/a	LTP329	ltpFR2	4	n/a	n/a	n/a	32	12	7	1	4
4584044	STOP	n/a	LTP329	ltpFR2	4	n/a	n/a	n/a	32	n/a	n/a	n/a	n/a
4586847	REC_START	n/a	LTP329	ltpFR2	4	21	n/a	n/a	n/a	n/a	0	0	0
4596663	REC_WORD	wordpools/wasnorm_wordpool_576.txt	LTP329	ltpFR2	4	21	COLLEGE	346	n/a	n/a	0	0	0
4598298	REC_WORD	wordpools/wasnorm_wordpool_576.txt	LTP329	ltpFR2	4	21	COURSE	390	n/a	n/a	0	0	0
4604678	REC_WORD	wordpools/wasnorm_wordpool_576.txt	LTP329	ltpFR2	4	21	TEMPLE	1448	n/a	n/a	0	0	0
4606408	REC_WORD	wordpools/wasnorm_wordpool_576.txt	LTP329	ltpFR2	4	21	CHURCH	307	n/a	n/a	0	0	0
4615194	REC_WORD	wordpools/wasnorm_wordpool_576.txt	LTP329	ltpFR2	4	21	DRIVER	499	n/a	n/a	0	0	0
4617170	REC_WORD	wordpools/wasnorm_wordpool_576.txt	LTP329	ltpFR2	4	21	BRAKE	166	n/a	n/a	0	0	0
4621295	REC_WORD	wordpools/wasnorm_wordpool_576.txt	LTP329	ltpFR2	4	21	HAND	683	n/a	n/a	0	0	0
4630821	REC_WORD	wordpools/wasnorm_wordpool_576.txt	LTP329	ltpFR2	4	21	LILY	821	n/a	n/a	0	0	0
4677476	DISTRACTOR	n/a	LTP329	ltpFR2	4	22	n/a	n/a	n/a	n/a	0	0	0
4677476	START	n/a	LTP329	ltpFR2	4	n/a	n/a	n/a	33	n/a	n/a	n/a	n/a
4677510	PROB	n/a	LTP329	ltpFR2	4	n/a	n/a	n/a	33	14	1	9	4
4679777	PROB	n/a	LTP329	ltpFR2	4	n/a	n/a	n/a	33	12	5	3	5
4682597	PROB	n/a	LTP329	ltpFR2	4	n/a	n/a	n/a	33	8	3	4	1
4684865	PROB	n/a	LTP329	ltpFR2	4	n/a	n/a	n/a	33	11	2	5	4
4686968	PROB	n/a	LTP329	ltpFR2	4	n/a	n/a	n/a	33	14	7	6	1
4688986	PROB	n/a	LTP329	ltpFR2	4	n/a	n/a	n/a	33	9	2	1	6
4690438	PROB	n/a	LTP329	ltpFR2	4	n/a	n/a	n/a	33	15	4	3	8
4693006	PROB	n/a	LTP329	ltpFR2	4	n/a	n/a	n/a	33	22	7	9	6
4696993	PROB	n/a	LTP329	ltpFR2	4	n/a	n/a	n/a	33	13	2	8	3
4698178	PROB	n/a	LTP329	ltpFR2	4	n/a	n/a	n/a	33	14	2	9	3
4701475	STOP	n/a	LTP329	ltpFR2	4	n/a	n/a	n/a	33	n/a	n/a	n/a	n/a
4702565	WORD	wordpools/wasnorm_wordpool_576.txt	LTP329	ltpFR2	4	22	REBEL	1172	n/a	n/a	0	0	0
4705334	WORD	wordpools/wasnorm_wordpool_576.txt	LTP329	ltpFR2	4	22	BOX	159	n/a	n/a	0	0	0
4707903	WORD	wordpools/wasnorm_wordpool_576.txt	LTP329	ltpFR2	4	22	WRENCH	1625	n/a	n/a	0	0	0
4710555	WORD	wordpools/wasnorm_wordpool_576.txt	LTP329	ltpFR2	4	22	RABBIT	1152	n/a	n/a	0	0	0
4713141	WORD	wordpools/wasnorm_wordpool_576.txt	LTP329	ltpFR2	4	22	CONVICT	371	n/a	n/a	0	0	0
4715960	WORD	wordpools/wasnorm_wordpool_576.txt	LTP329	ltpFR2	4	22	SCARF	1246	n/a	n/a	0	0	0
4718629	WORD	wordpools/wasnorm_wordpool_576.txt	LTP329	ltpFR2	4	22	SIBLING	1301	n/a	n/a	0	0	0
4721114	WORD	wordpools/wasnorm_wordpool_576.txt	LTP329	ltpFR2	4	22	WOMAN	1620	n/a	n/a	0	0	0
4723682	WORD	wordpools/wasnorm_wordpool_576.txt	LTP329	ltpFR2	4	22	PLIERS	1089	n/a	n/a	0	0	0
4726169	WORD	wordpools/wasnorm_wordpool_576.txt	LTP329	ltpFR2	4	22	SHELTER	1282	n/a	n/a	0	0	0
4728955	WORD	wordpools/wasnorm_wordpool_576.txt	LTP329	ltpFR2	4	22	BIKE	125	n/a	n/a	0	0	0
4731490	WORD	wordpools/wasnorm_wordpool_576.txt	LTP329	ltpFR2	4	22	BANKER	84	n/a	n/a	0	0	0
4734309	WORD	wordpools/wasnorm_wordpool_576.txt	LTP329	ltpFR2	4	22	PATROL	1027	n/a	n/a	0	0	0
4736860	WORD	wordpools/wasnorm_wordpool_576.txt	LTP329	ltpFR2	4	22	COBRA	336	n/a	n/a	0	0	0
4739430	WORD	wordpools/wasnorm_wordpool_576.txt	LTP329	ltpFR2	4	22	RELISH	1183	n/a	n/a	0	0	0
4741982	WORD	wordpools/wasnorm_wordpool_576.txt	LTP329	ltpFR2	4	22	KETCHUP	771	n/a	n/a	0	0	0
4744485	WORD	wordpools/wasnorm_wordpool_576.txt	LTP329	ltpFR2	4	22	BROTHER	179	n/a	n/a	0	0	0
4747287	WORD	wordpools/wasnorm_wordpool_576.txt	LTP329	ltpFR2	4	22	PROTON	1132	n/a	n/a	0	0	0
4749990	WORD	wordpools/wasnorm_wordpool_576.txt	LTP329	ltpFR2	4	22	CUPBOARD	425	n/a	n/a	0	0	0
4752808	WORD	wordpools/wasnorm_wordpool_576.txt	LTP329	ltpFR2	4	22	APRON	35	n/a	n/a	0	0	0
4755578	WORD	wordpools/wasnorm_wordpool_576.txt	LTP329	ltpFR2	4	22	GUARD	667	n/a	n/a	0	0	0
4758046	WORD	wordpools/wasnorm_wordpool_576.txt	LTP329	ltpFR2	4	22	PIGMENT	1066	n/a	n/a	0	0	0
4760881	WORD	wordpools/wasnorm_wordpool_576.txt	LTP329	ltpFR2	4	22	FLAG	573	n/a	n/a	0	0	0
4763485	WORD	wordpools/wasnorm_wordpool_576.txt	LTP329	ltpFR2	4	22	COUNTY	389	n/a	n/a	0	0	0
4765086	START	n/a	LTP329	ltpFR2	4	n/a	n/a	n/a	34	n/a	n/a	n/a	n/a
4766148	DISTRACTOR	n/a	LTP329	ltpFR2	4	22	n/a	n/a	n/a	n/a	0	0	0
4766154	PROB	n/a	LTP329	ltpFR2	4	n/a	n/a	n/a	34	12	4	5	3
4769106	PROB	n/a	LTP329	ltpFR2	4	n/a	n/a	n/a	34	17	5	8	4
4771642	PROB	n/a	LTP329	ltpFR2	4	n/a	n/a	n/a	34	17	8	8	1
4773143	PROB	n/a	LTP329	ltpFR2	4	n/a	n/a	n/a	34	7	2	4	1
4774777	PROB	n/a	LTP329	ltpFR2	4	n/a	n/a	n/a	34	18	5	9	4
4780066	PROB	n/a	LTP329	ltpFR2	4	n/a	n/a	n/a	34	8	3	1	4
4781450	PROB	n/a	LTP329	ltpFR2	4	n/a	n/a	n/a	34	26	9	9	8
4782918	PROB	n/a	LTP329	ltpFR2	4	n/a	n/a	n/a	34	17	7	3	7
4784920	PROB	n/a	LTP329	ltpFR2	4	n/a	n/a	n/a	34	10	4	2	4
4786321	PROB	n/a	LTP329	ltpFR2	4	n/a	n/a	n/a	34	12	1	8	3
4787803	STOP	n/a	LTP329	ltpFR2	4	n/a	n/a	n/a	34	n/a	n/a	n/a	n/a
4790992	REC_START	n/a	LTP329	ltpFR2	4	22	n/a	n/a	n/a	n/a	0	0	0
4805432	REC_WORD	wordpools/wasnorm_wordpool_576.txt	LTP329	ltpFR2	4	22	BOX	159	n/a	n/a	0	0	0
4807712	REC_WORD	wordpools/wasnorm_wordpool_576.txt	LTP329	ltpFR2	4	22	RABBIT	1152	n/a	n/a	0	0	0
4829432	REC_WORD	wordpools/wasnorm_wordpool_576.txt	LTP329	ltpFR2	4	22	BROTHER	179	n/a	n/a	0	0	0
4831095	REC_WORD	wordpools/wasnorm_wordpool_576.txt	LTP329	ltpFR2	4	22	SIBLING	1301	n/a	n/a	0	0	0
4835553	REC_WORD	wordpools/wasnorm_wordpool_576.txt	LTP329	ltpFR2	4	22	WRENCH	1625	n/a	n/a	0	0	0
4837260	REC_WORD	wordpools/wasnorm_wordpool_576.txt	LTP329	ltpFR2	4	22	SHELTER	1282	n/a	n/a	0	0	0
4838872	REC_WORD	wordpools/wasnorm_wordpool_576.txt	LTP329	ltpFR2	4	22	REBEL	1172	n/a	n/a	0	0	0
4840541	REC_WORD	wordpools/wasnorm_wordpool_576.txt	LTP329	ltpFR2	4	22	WOMAN	1620	n/a	n/a	0	0	0
4842055	REC_WORD	wordpools/wasnorm_wordpool_576.txt	LTP329	ltpFR2	4	22	SCARF	1246	n/a	n/a	0	0	0
4852722	REC_WORD	wordpools/wasnorm_wordpool_576.txt	LTP329	ltpFR2	4	22	BIKE	125	n/a	n/a	0	0	0
4881521	WORD	wordpools/wasnorm_wordpool_576.txt	LTP329	ltpFR2	4	23	PASSAGE	1019	n/a	n/a	0	0	0
4884056	WORD	wordpools/wasnorm_wordpool_576.txt	LTP329	ltpFR2	4	23	LACE	792	n/a	n/a	0	0	0
4886542	WORD	wordpools/wasnorm_wordpool_576.txt	LTP329	ltpFR2	4	23	PUDDLE	1140	n/a	n/a	0	0	0
4889378	WORD	wordpools/wasnorm_wordpool_576.txt	LTP329	ltpFR2	4	23	SLIME	1327	n/a	n/a	0	0	0
4892013	WORD	wordpools/wasnorm_wordpool_576.txt	LTP329	ltpFR2	4	23	DRESS	495	n/a	n/a	0	0	0
4894565	WORD	wordpools/wasnorm_wordpool_576.txt	LTP329	ltpFR2	4	23	SPONGE	1355	n/a	n/a	0	0	0
4897051	WORD	wordpools/wasnorm_wordpool_576.txt	LTP329	ltpFR2	4	23	PLATE	1086	n/a	n/a	0	0	0
4899603	WORD	wordpools/wasnorm_wordpool_576.txt	LTP329	ltpFR2	4	23	SHELF	1280	n/a	n/a	0	0	0
4902055	WORD	wordpools/wasnorm_wordpool_576.txt	LTP329	ltpFR2	4	23	HERO	706	n/a	n/a	0	0	0
4904607	WORD	wordpools/wasnorm_wordpool_576.txt	LTP329	ltpFR2	4	23	GLOBE	641	n/a	n/a	0	0	0
4907076	WORD	wordpools/wasnorm_wordpool_576.txt	LTP329	ltpFR2	4	23	GARLIC	624	n/a	n/a	0	0	0
4909645	WORD	wordpools/wasnorm_wordpool_576.txt	LTP329	ltpFR2	4	23	AWARD	63	n/a	n/a	0	0	0
4912414	WORD	wordpools/wasnorm_wordpool_576.txt	LTP329	ltpFR2	4	23	MARSH	874	n/a	n/a	0	0	0
4914950	WORD	wordpools/wasnorm_wordpool_576.txt	LTP329	ltpFR2	4	23	GREASE	660	n/a	n/a	0	0	0
4917419	WORD	wordpools/wasnorm_wordpool_576.txt	LTP329	ltpFR2	4	23	BANJO	82	n/a	n/a	0	0	0
4919904	WORD	wordpools/wasnorm_wordpool_576.txt	LTP329	ltpFR2	4	23	RADISH	1158	n/a	n/a	0	0	0
4922623	WORD	wordpools/wasnorm_wordpool_576.txt	LTP329	ltpFR2	4	23	SHRUB	1299	n/a	n/a	0	0	0
4925175	WORD	wordpools/wasnorm_wordpool_576.txt	LTP329	ltpFR2	4	23	ITEM	746	n/a	n/a	0	0	0
4927893	WORD	wordpools/wasnorm_wordpool_576.txt	LTP329	ltpFR2	4	23	SNACK	1331	n/a	n/a	0	0	0
4930696	WORD	wordpools/wasnorm_wordpool_576.txt	LTP329	ltpFR2	4	23	BUREAU	199	n/a	n/a	0	0	0
4933266	WORD	wordpools/wasnorm_wordpool_576.txt	LTP329	ltpFR2	4	23	OUTFIT	988	n/a	n/a	0	0	0
4935834	WORD	wordpools/wasnorm_wordpool_576.txt	LTP329	ltpFR2	4	23	SNAKE	1333	n/a	n/a	0	0	0
4938354	WORD	wordpools/wasnorm_wordpool_576.txt	LTP329	ltpFR2	4	23	ARMY	39	n/a	n/a	0	0	0
4941023	WORD	wordpools/wasnorm_wordpool_576.txt	LTP329	ltpFR2	4	23	COLONEL	348	n/a	n/a	0	0	0
4942641	START	n/a	LTP329	ltpFR2	4	n/a	n/a	n/a	35	n/a	n/a	n/a	n/a
4943799	DISTRACTOR	n/a	LTP329	ltpFR2	4	23	n/a	n/a	n/a	n/a	0	0	0
4943824	PROB	n/a	LTP329	ltpFR2	4	n/a	n/a	n/a	35	20	8	4	8
4947028	PROB	n/a	LTP329	ltpFR2	4	n/a	n/a	n/a	35	13	7	3	3
4948446	PROB	n/a	LTP329	ltpFR2	4	n/a	n/a	n/a	35	19	4	6	9
4949846	PROB	n/a	LTP329	ltpFR2	4	n/a	n/a	n/a	35	14	5	7	2
4954518	PROB	n/a	LTP329	ltpFR2	4	n/a	n/a	n/a	35	16	2	6	8
4956102	PROB	n/a	LTP329	ltpFR2	4	n/a	n/a	n/a	35	14	3	5	6
4957853	PROB	n/a	LTP329	ltpFR2	4	n/a	n/a	n/a	35	17	9	6	2
4961706	PROB	n/a	LTP329	ltpFR2	4	n/a	n/a	n/a	35	10	5	4	1
4962874	PROB	n/a	LTP329	ltpFR2	4	n/a	n/a	n/a	35	22	8	8	6
