onset	duration	trial_type	sample	stim_file	subject	experiment	session	trial	item_name	item_num	list	answer	test_x	test_y	test_z
253.822	n/a	SESS_START	126911	n/a	LTP279	ltpFR2	3	n/a	n/a	n/a	n/a	n/a	0	0	0
274.98	n/a	START	137490	n/a	LTP279	ltpFR2	3	n/a	n/a	n/a	-1	n/a	n/a	n/a	n/a
275.034	n/a	PROB	137517	n/a	LTP279	ltpFR2	3	n/a	n/a	n/a	-1	16	8	3	5
277.764	n/a	PROB	138882	n/a	LTP279	ltpFR2	3	n/a	n/a	n/a	-1	10	2	6	2
279.302	n/a	PROB	139651	n/a	LTP279	ltpFR2	3	n/a	n/a	n/a	-1	12	8	2	2
280.792	n/a	PROB	140396	n/a	LTP279	ltpFR2	3	n/a	n/a	n/a	-1	17	4	9	4
283.032	n/a	PROB	141516	n/a	LTP279	ltpFR2	3	n/a	n/a	n/a	-1	19	7	7	5
284.952	n/a	PROB	142476	n/a	LTP279	ltpFR2	3	n/a	n/a	n/a	-1	14	2	9	3
286.79	n/a	STOP	143395	n/a	LTP279	ltpFR2	3	n/a	n/a	n/a	-1	n/a	n/a	n/a	n/a
321.06	n/a	WORD	160530	wordpools/wasnorm_wordpool_576.txt	LTP279	ltpFR2	3	1	WAGON	1578	n/a	n/a	0	0	0
323.856	n/a	WORD	161928	wordpools/wasnorm_wordpool_576.txt	LTP279	ltpFR2	3	1	PISTON	1076	n/a	n/a	0	0	0
326.51	n/a	WORD	163255	wordpools/wasnorm_wordpool_576.txt	LTP279	ltpFR2	3	1	TAXI	1438	n/a	n/a	0	0	0
329.288	n/a	WORD	164644	wordpools/wasnorm_wordpool_576.txt	LTP279	ltpFR2	3	1	COSTUME	383	n/a	n/a	0	0	0
331.98	n/a	WORD	165990	wordpools/wasnorm_wordpool_576.txt	LTP279	ltpFR2	3	1	SERVER	1272	n/a	n/a	0	0	0
334.462	n/a	WORD	167231	wordpools/wasnorm_wordpool_576.txt	LTP279	ltpFR2	3	1	SERVANT	1271	n/a	n/a	0	0	0
337.252	n/a	WORD	168626	wordpools/wasnorm_wordpool_576.txt	LTP279	ltpFR2	3	1	STOMACH	1384	n/a	n/a	0	0	0
339.968	n/a	WORD	169984	wordpools/wasnorm_wordpool_576.txt	LTP279	ltpFR2	3	1	BANQUET	86	n/a	n/a	0	0	0
342.762	n/a	WORD	171381	wordpools/wasnorm_wordpool_576.txt	LTP279	ltpFR2	3	1	HORNET	718	n/a	n/a	0	0	0
345.198	n/a	WORD	172599	wordpools/wasnorm_wordpool_576.txt	LTP279	ltpFR2	3	1	SISTER	1312	n/a	n/a	0	0	0
347.93	n/a	WORD	173965	wordpools/wasnorm_wordpool_576.txt	LTP279	ltpFR2	3	1	HEADBAND	696	n/a	n/a	0	0	0
350.54	n/a	WORD	175270	wordpools/wasnorm_wordpool_576.txt	LTP279	ltpFR2	3	1	POPCORN	1104	n/a	n/a	0	0	0
353.15	n/a	WORD	176575	wordpools/wasnorm_wordpool_576.txt	LTP279	ltpFR2	3	1	AIRPORT	13	n/a	n/a	0	0	0
355.946	n/a	WORD	177973	wordpools/wasnorm_wordpool_576.txt	LTP279	ltpFR2	3	1	TUBA	1515	n/a	n/a	0	0	0
358.622	n/a	WORD	179311	wordpools/wasnorm_wordpool_576.txt	LTP279	ltpFR2	3	1	DASHBOARD	441	n/a	n/a	0	0	0
361.394	n/a	WORD	180697	wordpools/wasnorm_wordpool_576.txt	LTP279	ltpFR2	3	1	FOREST	593	n/a	n/a	0	0	0
364.208	n/a	WORD	182104	wordpools/wasnorm_wordpool_576.txt	LTP279	ltpFR2	3	1	FLUTE	585	n/a	n/a	0	0	0
366.682	n/a	WORD	183341	wordpools/wasnorm_wordpool_576.txt	LTP279	ltpFR2	3	1	QUARTER	1148	n/a	n/a	0	0	0
369.29	n/a	WORD	184645	wordpools/wasnorm_wordpool_576.txt	LTP279	ltpFR2	3	1	HEDGE	699	n/a	n/a	0	0	0
371.952	n/a	WORD	185976	wordpools/wasnorm_wordpool_576.txt	LTP279	ltpFR2	3	1	GREASE	660	n/a	n/a	0	0	0
374.578	n/a	WORD	187289	wordpools/wasnorm_wordpool_576.txt	LTP279	ltpFR2	3	1	FRECKLE	602	n/a	n/a	0	0	0
377.042	n/a	WORD	188521	wordpools/wasnorm_wordpool_576.txt	LTP279	ltpFR2	3	1	KITCHEN	778	n/a	n/a	0	0	0
379.518	n/a	WORD	189759	wordpools/wasnorm_wordpool_576.txt	LTP279	ltpFR2	3	1	WHISKERS	1605	n/a	n/a	0	0	0
382.144	n/a	WORD	191072	wordpools/wasnorm_wordpool_576.txt	LTP279	ltpFR2	3	1	CROSS	413	n/a	n/a	0	0	0
383.752	n/a	START	191876	n/a	LTP279	ltpFR2	3	n/a	n/a	n/a	1	n/a	n/a	n/a	n/a
384.768	n/a	DISTRACTOR	192384	n/a	LTP279	ltpFR2	3	1	n/a	n/a	n/a	n/a	0	0	0
384.784	n/a	PROB	192392	n/a	LTP279	ltpFR2	3	n/a	n/a	n/a	1	15	5	9	1
386.624	n/a	PROB	193312	n/a	LTP279	ltpFR2	3	n/a	n/a	n/a	1	23	7	9	7
389.674	n/a	PROB	194837	n/a	LTP279	ltpFR2	3	n/a	n/a	n/a	1	20	5	6	9
391.878	n/a	PROB	195939	n/a	LTP279	ltpFR2	3	n/a	n/a	n/a	1	15	5	1	9
393.584	n/a	PROB	196792	n/a	LTP279	ltpFR2	3	n/a	n/a	n/a	1	18	3	7	8
395.844	n/a	PROB	197922	n/a	LTP279	ltpFR2	3	n/a	n/a	n/a	1	18	7	4	7
397.704	n/a	PROB	198852	n/a	LTP279	ltpFR2	3	n/a	n/a	n/a	1	15	7	4	4
399.372	n/a	PROB	199686	n/a	LTP279	ltpFR2	3	n/a	n/a	n/a	1	20	8	6	6
401.25	n/a	PROB	200625	n/a	LTP279	ltpFR2	3	n/a	n/a	n/a	1	11	3	2	6
404.63	n/a	PROB	202315	n/a	LTP279	ltpFR2	3	n/a	n/a	n/a	1	23	9	9	5
406.3	n/a	STOP	203150	n/a	LTP279	ltpFR2	3	n/a	n/a	n/a	1	n/a	n/a	n/a	n/a
409.68	n/a	REC_START	204840	n/a	LTP279	ltpFR2	3	1	n/a	n/a	n/a	n/a	0	0	0
410.486	n/a	REC_WORD	205243	wordpools/wasnorm_wordpool_576.txt	LTP279	ltpFR2	3	1	WHISKERS	1605	n/a	n/a	0	0	0
411.428	n/a	REC_WORD	205714	wordpools/wasnorm_wordpool_576.txt	LTP279	ltpFR2	3	1	CROSS	413	n/a	n/a	0	0	0
412.642	n/a	REC_WORD	206321	wordpools/wasnorm_wordpool_576.txt	LTP279	ltpFR2	3	1	WAGON	1578	n/a	n/a	0	0	0
413.996	n/a	REC_WORD	206998	wordpools/wasnorm_wordpool_576.txt	LTP279	ltpFR2	3	1	PISTON	1076	n/a	n/a	0	0	0
416.372	n/a	REC_WORD	208186	wordpools/wasnorm_wordpool_576.txt	LTP279	ltpFR2	3	1	COSTUME	383	n/a	n/a	0	0	0
418.542	n/a	REC_WORD	209271	wordpools/wasnorm_wordpool_576.txt	LTP279	ltpFR2	3	1	STOMACH	1384	n/a	n/a	0	0	0
420.372	n/a	REC_WORD	210186	wordpools/wasnorm_wordpool_576.txt	LTP279	ltpFR2	3	1	BANQUET	86	n/a	n/a	0	0	0
423.862	n/a	REC_WORD	211931	wordpools/wasnorm_wordpool_576.txt	LTP279	ltpFR2	3	1	TAXI	1438	n/a	n/a	0	0	0
426.536	n/a	REC_WORD	213268	wordpools/wasnorm_wordpool_576.txt	LTP279	ltpFR2	3	1	HORNET	718	n/a	n/a	0	0	0
427.398	n/a	REC_WORD	213699	wordpools/wasnorm_wordpool_576.txt	LTP279	ltpFR2	3	1	SISTER	1312	n/a	n/a	0	0	0
428.44	n/a	REC_WORD	214220	wordpools/wasnorm_wordpool_576.txt	LTP279	ltpFR2	3	1	HEADBAND	696	n/a	n/a	0	0	0
431.508	n/a	REC_WORD	215754	wordpools/wasnorm_wordpool_576.txt	LTP279	ltpFR2	3	1	POPCORN	1104	n/a	n/a	0	0	0
432.738	n/a	REC_WORD	216369	wordpools/wasnorm_wordpool_576.txt	LTP279	ltpFR2	3	1	AIRPORT	13	n/a	n/a	0	0	0
435.752	n/a	REC_WORD	217876	wordpools/wasnorm_wordpool_576.txt	LTP279	ltpFR2	3	1	TUBA	1515	n/a	n/a	0	0	0
436.354	n/a	REC_WORD	218177	wordpools/wasnorm_wordpool_576.txt	LTP279	ltpFR2	3	1	DASHBOARD	441	n/a	n/a	0	0	0
438.416	n/a	REC_WORD	219208	wordpools/wasnorm_wordpool_576.txt	LTP279	ltpFR2	3	1	FOREST	593	n/a	n/a	0	0	0
441.07	n/a	REC_WORD	220535	wordpools/wasnorm_wordpool_576.txt	LTP279	ltpFR2	3	1	QUARTER	1148	n/a	n/a	0	0	0
441.97	n/a	REC_WORD	220985	wordpools/wasnorm_wordpool_576.txt	LTP279	ltpFR2	3	1	HEDGE	699	n/a	n/a	0	0	0
443.09	n/a	REC_WORD	221545	wordpools/wasnorm_wordpool_576.txt	LTP279	ltpFR2	3	1	GREASE	660	n/a	n/a	0	0	0
446.69	n/a	REC_WORD	223345	wordpools/wasnorm_wordpool_576.txt	LTP279	ltpFR2	3	1	KITCHEN	778	n/a	n/a	0	0	0
459.812	n/a	REC_WORD	229906	wordpools/wasnorm_wordpool_576.txt	LTP279	ltpFR2	3	1	SERVANT	1271	n/a	n/a	0	0	0
460.626	n/a	REC_WORD	230313	wordpools/wasnorm_wordpool_576.txt	LTP279	ltpFR2	3	1	SERVER	1272	n/a	n/a	0	0	0
478.34	n/a	REC_WORD	239170	wordpools/wasnorm_wordpool_576.txt	LTP279	ltpFR2	3	1	JUNGLE	764	n/a	n/a	0	0	0
479.648	n/a	REC_WORD	239824	wordpools/wasnorm_wordpool_576.txt	LTP279	ltpFR2	3	1	FOREST	593	n/a	n/a	0	0	0
500.764	n/a	DISTRACTOR	250382	n/a	LTP279	ltpFR2	3	2	n/a	n/a	n/a	n/a	0	0	0
500.764	n/a	START	250382	n/a	LTP279	ltpFR2	3	n/a	n/a	n/a	2	n/a	n/a	n/a	n/a
500.814	n/a	PROB	250407	n/a	LTP279	ltpFR2	3	n/a	n/a	n/a	2	20	6	7	7
502.886	n/a	PROB	251443	n/a	LTP279	ltpFR2	3	n/a	n/a	n/a	2	11	2	6	3
504.344	n/a	PROB	252172	n/a	LTP279	ltpFR2	3	n/a	n/a	n/a	2	13	1	7	5
506.148	n/a	PROB	253074	n/a	LTP279	ltpFR2	3	n/a	n/a	n/a	2	21	7	6	8
508.44	n/a	PROB	254220	n/a	LTP279	ltpFR2	3	n/a	n/a	n/a	2	18	4	8	6
510.58	n/a	PROB	255290	n/a	LTP279	ltpFR2	3	n/a	n/a	n/a	2	16	7	7	2
511.986	n/a	PROB	255993	n/a	LTP279	ltpFR2	3	n/a	n/a	n/a	2	5	2	1	2
513.324	n/a	PROB	256662	n/a	LTP279	ltpFR2	3	n/a	n/a	n/a	2	17	3	9	5
515.148	n/a	PROB	257574	n/a	LTP279	ltpFR2	3	n/a	n/a	n/a	2	13	3	8	3
516.872	n/a	PROB	258436	n/a	LTP279	ltpFR2	3	n/a	n/a	n/a	2	9	1	1	7
518.476	n/a	PROB	259238	n/a	LTP279	ltpFR2	3	n/a	n/a	n/a	2	17	5	3	9
520.202	n/a	PROB	260101	n/a	LTP279	ltpFR2	3	n/a	n/a	n/a	2	22	9	9	4
522.18	n/a	PROB	261090	n/a	LTP279	ltpFR2	3	n/a	n/a	n/a	2	20	8	7	5
524.684	n/a	STOP	262342	n/a	LTP279	ltpFR2	3	n/a	n/a	n/a	2	n/a	n/a	n/a	n/a
525.862	n/a	WORD	262931	wordpools/wasnorm_wordpool_576.txt	LTP279	ltpFR2	3	2	CRITIC	410	n/a	n/a	0	0	0
528.354	n/a	WORD	264177	wordpools/wasnorm_wordpool_576.txt	LTP279	ltpFR2	3	2	OYSTER	995	n/a	n/a	0	0	0
531.046	n/a	WORD	265523	wordpools/wasnorm_wordpool_576.txt	LTP279	ltpFR2	3	2	BASEMENT	94	n/a	n/a	0	0	0
533.54	n/a	WORD	266770	wordpools/wasnorm_wordpool_576.txt	LTP279	ltpFR2	3	2	COWBOY	395	n/a	n/a	0	0	0
536.216	n/a	WORD	268108	wordpools/wasnorm_wordpool_576.txt	LTP279	ltpFR2	3	2	CEILING	265	n/a	n/a	0	0	0
538.894	n/a	WORD	269447	wordpools/wasnorm_wordpool_576.txt	LTP279	ltpFR2	3	2	TOMBSTONE	1478	n/a	n/a	0	0	0
541.588	n/a	WORD	270794	wordpools/wasnorm_wordpool_576.txt	LTP279	ltpFR2	3	2	DRAGON	492	n/a	n/a	0	0	0
544.08	n/a	WORD	272040	wordpools/wasnorm_wordpool_576.txt	LTP279	ltpFR2	3	2	DRILL	497	n/a	n/a	0	0	0
546.506	n/a	WORD	273253	wordpools/wasnorm_wordpool_576.txt	LTP279	ltpFR2	3	2	MISSILE	900	n/a	n/a	0	0	0
549.166	n/a	WORD	274583	wordpools/wasnorm_wordpool_576.txt	LTP279	ltpFR2	3	2	GRAVE	658	n/a	n/a	0	0	0
551.978	n/a	WORD	275989	wordpools/wasnorm_wordpool_576.txt	LTP279	ltpFR2	3	2	BUGGY	188	n/a	n/a	0	0	0
554.536	n/a	WORD	277268	wordpools/wasnorm_wordpool_576.txt	LTP279	ltpFR2	3	2	CARRIAGE	248	n/a	n/a	0	0	0
557.18	n/a	WORD	278590	wordpools/wasnorm_wordpool_576.txt	LTP279	ltpFR2	3	2	BUCKET	184	n/a	n/a	0	0	0
559.702	n/a	WORD	279851	wordpools/wasnorm_wordpool_576.txt	LTP279	ltpFR2	3	2	AGENT	10	n/a	n/a	0	0	0
562.334	n/a	WORD	281167	wordpools/wasnorm_wordpool_576.txt	LTP279	ltpFR2	3	2	GAZELLE	628	n/a	n/a	0	0	0
565.044	n/a	WORD	282522	wordpools/wasnorm_wordpool_576.txt	LTP279	ltpFR2	3	2	DORM	488	n/a	n/a	0	0	0
567.586	n/a	WORD	283793	wordpools/wasnorm_wordpool_576.txt	LTP279	ltpFR2	3	2	JELLY	755	n/a	n/a	0	0	0
570.392	n/a	WORD	285196	wordpools/wasnorm_wordpool_576.txt	LTP279	ltpFR2	3	2	SHRUB	1299	n/a	n/a	0	0	0
573.074	n/a	WORD	286537	wordpools/wasnorm_wordpool_576.txt	LTP279	ltpFR2	3	2	FILM	565	n/a	n/a	0	0	0
575.544	n/a	WORD	287772	wordpools/wasnorm_wordpool_576.txt	LTP279	ltpFR2	3	2	CELLAR	267	n/a	n/a	0	0	0
578.144	n/a	WORD	289072	wordpools/wasnorm_wordpool_576.txt	LTP279	ltpFR2	3	2	OX	994	n/a	n/a	0	0	0
580.654	n/a	WORD	290327	wordpools/wasnorm_wordpool_576.txt	LTP279	ltpFR2	3	2	HUMAN	726	n/a	n/a	0	0	0
583.43	n/a	WORD	291715	wordpools/wasnorm_wordpool_576.txt	LTP279	ltpFR2	3	2	PARROT	1015	n/a	n/a	0	0	0
586.124	n/a	WORD	293062	wordpools/wasnorm_wordpool_576.txt	LTP279	ltpFR2	3	2	SHORTS	1293	n/a	n/a	0	0	0
587.732	n/a	START	293866	n/a	LTP279	ltpFR2	3	n/a	n/a	n/a	3	n/a	n/a	n/a	n/a
588.872	n/a	DISTRACTOR	294436	n/a	LTP279	ltpFR2	3	2	n/a	n/a	n/a	n/a	0	0	0
588.886	n/a	PROB	294443	n/a	LTP279	ltpFR2	3	n/a	n/a	n/a	3	11	9	1	1
590.552	n/a	PROB	295276	n/a	LTP279	ltpFR2	3	n/a	n/a	n/a	3	14	1	7	6
592.594	n/a	PROB	296297	n/a	LTP279	ltpFR2	3	n/a	n/a	n/a	3	13	5	3	4
594.922	n/a	PROB	297461	n/a	LTP279	ltpFR2	3	n/a	n/a	n/a	3	22	8	9	5
597.146	n/a	PROB	298573	n/a	LTP279	ltpFR2	3	n/a	n/a	n/a	3	17	6	7	4
600.68	n/a	PROB	300340	n/a	LTP279	ltpFR2	3	n/a	n/a	n/a	3	17	6	5	6
603.034	n/a	PROB	301517	n/a	LTP279	ltpFR2	3	n/a	n/a	n/a	3	11	5	5	1
604.406	n/a	PROB	302203	n/a	LTP279	ltpFR2	3	n/a	n/a	n/a	3	23	6	9	8
606.804	n/a	PROB	303402	n/a	LTP279	ltpFR2	3	n/a	n/a	n/a	3	17	8	1	8
608.538	n/a	PROB	304269	n/a	LTP279	ltpFR2	3	n/a	n/a	n/a	3	13	7	4	2
610.744	n/a	STOP	305372	n/a	LTP279	ltpFR2	3	n/a	n/a	n/a	3	n/a	n/a	n/a	n/a
613.546	n/a	REC_START	306773	n/a	LTP279	ltpFR2	3	2	n/a	n/a	n/a	n/a	0	0	0
613.884	n/a	REC_WORD	306942	wordpools/wasnorm_wordpool_576.txt	LTP279	ltpFR2	3	2	HUMAN	726	n/a	n/a	0	0	0
615.09	n/a	REC_WORD	307545	wordpools/wasnorm_wordpool_576.txt	LTP279	ltpFR2	3	2	OX	994	n/a	n/a	0	0	0
616.024	n/a	REC_WORD	308012	wordpools/wasnorm_wordpool_576.txt	LTP279	ltpFR2	3	2	PARROT	1015	n/a	n/a	0	0	0
616.92	n/a	REC_WORD	308460	wordpools/wasnorm_wordpool_576.txt	LTP279	ltpFR2	3	2	SHORTS	1293	n/a	n/a	0	0	0
618.058	n/a	REC_WORD	309029	wordpools/wasnorm_wordpool_576.txt	LTP279	ltpFR2	3	2	CRITIC	410	n/a	n/a	0	0	0
619.274	n/a	REC_WORD	309637	wordpools/wasnorm_wordpool_576.txt	LTP279	ltpFR2	3	2	OYSTER	995	n/a	n/a	0	0	0
620.364	n/a	REC_WORD	310182	wordpools/wasnorm_wordpool_576.txt	LTP279	ltpFR2	3	2	BASEMENT	94	n/a	n/a	0	0	0
621.52	n/a	REC_WORD	310760	wordpools/wasnorm_wordpool_576.txt	LTP279	ltpFR2	3	2	COWBOY	395	n/a	n/a	0	0	0
622.472	n/a	REC_WORD	311236	wordpools/wasnorm_wordpool_576.txt	LTP279	ltpFR2	3	2	CEILING	265	n/a	n/a	0	0	0
623.978	n/a	REC_WORD	311989	wordpools/wasnorm_wordpool_576.txt	LTP279	ltpFR2	3	2	TOMBSTONE	1478	n/a	n/a	0	0	0
625.368	n/a	REC_WORD	312684	wordpools/wasnorm_wordpool_576.txt	LTP279	ltpFR2	3	2	DRAGON	492	n/a	n/a	0	0	0
628.044	n/a	REC_WORD	314022	wordpools/wasnorm_wordpool_576.txt	LTP279	ltpFR2	3	2	DRILL	497	n/a	n/a	0	0	0
629.186	n/a	REC_WORD	314593	wordpools/wasnorm_wordpool_576.txt	LTP279	ltpFR2	3	2	MISSILE	900	n/a	n/a	0	0	0
631.07	n/a	REC_WORD	315535	wordpools/wasnorm_wordpool_576.txt	LTP279	ltpFR2	3	2	GRAVE	658	n/a	n/a	0	0	0
647.898	n/a	REC_WORD	323949	wordpools/wasnorm_wordpool_576.txt	LTP279	ltpFR2	3	2	DORM	488	n/a	n/a	0	0	0
651.116	n/a	REC_WORD	325558	wordpools/wasnorm_wordpool_576.txt	LTP279	ltpFR2	3	2	BUCKET	184	n/a	n/a	0	0	0
652.15	n/a	REC_WORD	326075	wordpools/wasnorm_wordpool_576.txt	LTP279	ltpFR2	3	2	AGENT	10	n/a	n/a	0	0	0
653.692	n/a	REC_WORD	326846	wordpools/wasnorm_wordpool_576.txt	LTP279	ltpFR2	3	2	GAZELLE	628	n/a	n/a	0	0	0
656.982	n/a	REC_WORD	328491	wordpools/wasnorm_wordpool_576.txt	LTP279	ltpFR2	3	2	SHRUB	1299	n/a	n/a	0	0	0
678.53	n/a	REC_WORD	339265	wordpools/wasnorm_wordpool_576.txt	LTP279	ltpFR2	3	2	CELLAR	267	n/a	n/a	0	0	0
681.022	n/a	REC_WORD	340511	wordpools/wasnorm_wordpool_576.txt	LTP279	ltpFR2	3	2	OX	994	n/a	n/a	0	0	0
686.452	n/a	REC_WORD	343226	wordpools/wasnorm_wordpool_576.txt	LTP279	ltpFR2	3	2	FILM	565	n/a	n/a	0	0	0
704.626	n/a	WORD	352313	wordpools/wasnorm_wordpool_576.txt	LTP279	ltpFR2	3	3	CARROT	249	n/a	n/a	0	0	0
707.404	n/a	WORD	353702	wordpools/wasnorm_wordpool_576.txt	LTP279	ltpFR2	3	3	CABBAGE	210	n/a	n/a	0	0	0
710.076	n/a	WORD	355038	wordpools/wasnorm_wordpool_576.txt	LTP279	ltpFR2	3	3	MUMMY	932	n/a	n/a	0	0	0
712.708	n/a	WORD	356354	wordpools/wasnorm_wordpool_576.txt	LTP279	ltpFR2	3	3	HAMPER	682	n/a	n/a	0	0	0
715.402	n/a	WORD	357701	wordpools/wasnorm_wordpool_576.txt	LTP279	ltpFR2	3	3	SHORTCAKE	1292	n/a	n/a	0	0	0
718.078	n/a	WORD	359039	wordpools/wasnorm_wordpool_576.txt	LTP279	ltpFR2	3	3	PLATE	1086	n/a	n/a	0	0	0
720.756	n/a	WORD	360378	wordpools/wasnorm_wordpool_576.txt	LTP279	ltpFR2	3	3	LADY	794	n/a	n/a	0	0	0
723.364	n/a	WORD	361682	wordpools/wasnorm_wordpool_576.txt	LTP279	ltpFR2	3	3	MISTER	901	n/a	n/a	0	0	0
725.876	n/a	WORD	362938	wordpools/wasnorm_wordpool_576.txt	LTP279	ltpFR2	3	3	SUNRISE	1407	n/a	n/a	0	0	0
728.63	n/a	WORD	364315	wordpools/wasnorm_wordpool_576.txt	LTP279	ltpFR2	3	3	TREAT	1501	n/a	n/a	0	0	0
731.246	n/a	WORD	365623	wordpools/wasnorm_wordpool_576.txt	LTP279	ltpFR2	3	3	GLOVE	642	n/a	n/a	0	0	0
733.822	n/a	WORD	366911	wordpools/wasnorm_wordpool_576.txt	LTP279	ltpFR2	3	3	GARBAGE	622	n/a	n/a	0	0	0
736.414	n/a	WORD	368207	wordpools/wasnorm_wordpool_576.txt	LTP279	ltpFR2	3	3	RECORD	1176	n/a	n/a	0	0	0
739.036	n/a	WORD	369518	wordpools/wasnorm_wordpool_576.txt	LTP279	ltpFR2	3	3	CHEST	295	n/a	n/a	0	0	0
741.484	n/a	WORD	370742	wordpools/wasnorm_wordpool_576.txt	LTP279	ltpFR2	3	3	CYCLONE	431	n/a	n/a	0	0	0
744.274	n/a	WORD	372137	wordpools/wasnorm_wordpool_576.txt	LTP279	ltpFR2	3	3	SLOPE	1328	n/a	n/a	0	0	0
746.802	n/a	WORD	373401	wordpools/wasnorm_wordpool_576.txt	LTP279	ltpFR2	3	3	ATOM	55	n/a	n/a	0	0	0
749.23	n/a	WORD	374615	wordpools/wasnorm_wordpool_576.txt	LTP279	ltpFR2	3	3	STREAM	1392	n/a	n/a	0	0	0
752.024	n/a	WORD	376012	wordpools/wasnorm_wordpool_576.txt	LTP279	ltpFR2	3	3	SUNSET	1408	n/a	n/a	0	0	0
754.668	n/a	WORD	377334	wordpools/wasnorm_wordpool_576.txt	LTP279	ltpFR2	3	3	GRAPE	654	n/a	n/a	0	0	0
757.16	n/a	WORD	378580	wordpools/wasnorm_wordpool_576.txt	LTP279	ltpFR2	3	3	DANDRUFF	439	n/a	n/a	0	0	0
759.822	n/a	WORD	379911	wordpools/wasnorm_wordpool_576.txt	LTP279	ltpFR2	3	3	ORCHID	982	n/a	n/a	0	0	0
762.342	n/a	WORD	381171	wordpools/wasnorm_wordpool_576.txt	LTP279	ltpFR2	3	3	LUNCH	849	n/a	n/a	0	0	0
764.87	n/a	WORD	382435	wordpools/wasnorm_wordpool_576.txt	LTP279	ltpFR2	3	3	CRAB	397	n/a	n/a	0	0	0
766.48	n/a	START	383240	n/a	LTP279	ltpFR2	3	n/a	n/a	n/a	4	n/a	n/a	n/a	n/a
767.322	n/a	DISTRACTOR	383661	n/a	LTP279	ltpFR2	3	3	n/a	n/a	n/a	n/a	0	0	0
767.334	n/a	PROB	383667	n/a	LTP279	ltpFR2	3	n/a	n/a	n/a	4	13	6	1	6
769.24	n/a	PROB	384620	n/a	LTP279	ltpFR2	3	n/a	n/a	n/a	4	11	2	7	2
770.914	n/a	PROB	385457	n/a	LTP279	ltpFR2	3	n/a	n/a	n/a	4	13	7	5	1
773.122	n/a	PROB	386561	n/a	LTP279	ltpFR2	3	n/a	n/a	n/a	4	21	8	9	4
775.392	n/a	PROB	387696	n/a	LTP279	ltpFR2	3	n/a	n/a	n/a	4	12	1	8	3
777.12	n/a	PROB	388560	n/a	LTP279	ltpFR2	3	n/a	n/a	n/a	4	19	7	9	3
779.156	n/a	PROB	389578	n/a	LTP279	ltpFR2	3	n/a	n/a	n/a	4	11	5	2	4
781.13	n/a	PROB	390565	n/a	LTP279	ltpFR2	3	n/a	n/a	n/a	4	14	6	4	4
783.04	n/a	PROB	391520	n/a	LTP279	ltpFR2	3	n/a	n/a	n/a	4	11	2	4	5
784.532	n/a	PROB	392266	n/a	LTP279	ltpFR2	3	n/a	n/a	n/a	4	19	8	8	3
786.872	n/a	PROB	393436	n/a	LTP279	ltpFR2	3	n/a	n/a	n/a	4	14	6	1	7
789.072	n/a	STOP	394536	n/a	LTP279	ltpFR2	3	n/a	n/a	n/a	4	n/a	n/a	n/a	n/a
792.374	n/a	REC_START	396187	n/a	LTP279	ltpFR2	3	3	n/a	n/a	n/a	n/a	0	0	0
792.66	n/a	REC_WORD	396330	wordpools/wasnorm_wordpool_576.txt	LTP279	ltpFR2	3	3	LUNCH	849	n/a	n/a	0	0	0
793.62	n/a	REC_WORD	396810	wordpools/wasnorm_wordpool_576.txt	LTP279	ltpFR2	3	3	CRAB	397	n/a	n/a	0	0	0
794.698	n/a	REC_WORD	397349	wordpools/wasnorm_wordpool_576.txt	LTP279	ltpFR2	3	3	GRAPE	654	n/a	n/a	0	0	0
795.874	n/a	REC_WORD	397937	wordpools/wasnorm_wordpool_576.txt	LTP279	ltpFR2	3	3	ORCHID	982	n/a	n/a	0	0	0
796.792	n/a	REC_WORD	398396	wordpools/wasnorm_wordpool_576.txt	LTP279	ltpFR2	3	3	DANDRUFF	439	n/a	n/a	0	0	0
798.054	n/a	REC_WORD	399027	wordpools/wasnorm_wordpool_576.txt	LTP279	ltpFR2	3	3	ATOM	55	n/a	n/a	0	0	0
798.92	n/a	REC_WORD	399460	wordpools/wasnorm_wordpool_576.txt	LTP279	ltpFR2	3	3	SLOPE	1328	n/a	n/a	0	0	0
800.16	n/a	REC_WORD	400080	wordpools/wasnorm_wordpool_576.txt	LTP279	ltpFR2	3	3	STREAM	1392	n/a	n/a	0	0	0
809.164	n/a	REC_WORD	404582	wordpools/wasnorm_wordpool_576.txt	LTP279	ltpFR2	3	3	CARROT	249	n/a	n/a	0	0	0
810.762	n/a	REC_WORD	405381	wordpools/wasnorm_wordpool_576.txt	LTP279	ltpFR2	3	3	CABBAGE	210	n/a	n/a	0	0	0
811.842	n/a	REC_WORD	405921	wordpools/wasnorm_wordpool_576.txt	LTP279	ltpFR2	3	3	MUMMY	932	n/a	n/a	0	0	0
812.744	n/a	REC_WORD	406372	wordpools/wasnorm_wordpool_576.txt	LTP279	ltpFR2	3	3	HAMPER	682	n/a	n/a	0	0	0
815.774	n/a	REC_WORD_VV	407887	wordpools/wasnorm_wordpool_576.txt	LTP279	ltpFR2	3	3	<>	-1	n/a	n/a	0	0	0
817.012	n/a	REC_WORD	408506	wordpools/wasnorm_wordpool_576.txt	LTP279	ltpFR2	3	3	SUNRISE	1407	n/a	n/a	0	0	0
818.414	n/a	REC_WORD	409207	wordpools/wasnorm_wordpool_576.txt	LTP279	ltpFR2	3	3	PLATE	1086	n/a	n/a	0	0	0
819.374	n/a	REC_WORD	409687	wordpools/wasnorm_wordpool_576.txt	LTP279	ltpFR2	3	3	SHORTCAKE	1292	n/a	n/a	0	0	0
820.588	n/a	REC_WORD	410294	wordpools/wasnorm_wordpool_576.txt	LTP279	ltpFR2	3	3	GLOVE	642	n/a	n/a	0	0	0
821.726	n/a	REC_WORD	410863	wordpools/wasnorm_wordpool_576.txt	LTP279	ltpFR2	3	3	GARBAGE	622	n/a	n/a	0	0	0
822.734	n/a	REC_WORD	411367	wordpools/wasnorm_wordpool_576.txt	LTP279	ltpFR2	3	3	RECORD	1176	n/a	n/a	0	0	0
823.834	n/a	REC_WORD	411917	wordpools/wasnorm_wordpool_576.txt	LTP279	ltpFR2	3	3	CHEST	295	n/a	n/a	0	0	0
825.018	n/a	REC_WORD	412509	wordpools/wasnorm_wordpool_576.txt	LTP279	ltpFR2	3	3	CYCLONE	431	n/a	n/a	0	0	0
832.664	n/a	REC_WORD	416332	wordpools/wasnorm_wordpool_576.txt	LTP279	ltpFR2	3	3	SUNSET	1408	n/a	n/a	0	0	0
845.468	n/a	REC_WORD	422734	wordpools/wasnorm_wordpool_576.txt	LTP279	ltpFR2	3	3	LADY	794	n/a	n/a	0	0	0
847.002	n/a	REC_WORD	423501	wordpools/wasnorm_wordpool_576.txt	LTP279	ltpFR2	3	3	MISTER	901	n/a	n/a	0	0	0
883.476	n/a	WORD	441738	wordpools/wasnorm_wordpool_576.txt	LTP279	ltpFR2	3	4	PARTNER	1017	n/a	n/a	0	0	0
886.22	n/a	WORD	443110	wordpools/wasnorm_wordpool_576.txt	LTP279	ltpFR2	3	4	LADDER	793	n/a	n/a	0	0	0
888.978	n/a	WORD	444489	wordpools/wasnorm_wordpool_576.txt	LTP279	ltpFR2	3	4	CRATER	400	n/a	n/a	0	0	0
891.458	n/a	WORD	445729	wordpools/wasnorm_wordpool_576.txt	LTP279	ltpFR2	3	4	PUPPY	1144	n/a	n/a	0	0	0
894.102	n/a	WORD	447051	wordpools/wasnorm_wordpool_576.txt	LTP279	ltpFR2	3	4	PIMPLE	1071	n/a	n/a	0	0	0
896.824	n/a	WORD	448412	wordpools/wasnorm_wordpool_576.txt	LTP279	ltpFR2	3	4	KIDNEY	776	n/a	n/a	0	0	0
899.284	n/a	WORD	449642	wordpools/wasnorm_wordpool_576.txt	LTP279	ltpFR2	3	4	LOVER	846	n/a	n/a	0	0	0
902.014	n/a	WORD	451007	wordpools/wasnorm_wordpool_576.txt	LTP279	ltpFR2	3	4	SNAKE	1333	n/a	n/a	0	0	0
904.742	n/a	WORD	452371	wordpools/wasnorm_wordpool_576.txt	LTP279	ltpFR2	3	4	ROBBER	1197	n/a	n/a	0	0	0
907.486	n/a	WORD	453743	wordpools/wasnorm_wordpool_576.txt	LTP279	ltpFR2	3	4	DOUGHNUT	490	n/a	n/a	0	0	0
909.996	n/a	WORD	454998	wordpools/wasnorm_wordpool_576.txt	LTP279	ltpFR2	3	4	DIVER	476	n/a	n/a	0	0	0
912.588	n/a	WORD	456294	wordpools/wasnorm_wordpool_576.txt	LTP279	ltpFR2	3	4	XEROX	1628	n/a	n/a	0	0	0
915.064	n/a	WORD	457532	wordpools/wasnorm_wordpool_576.txt	LTP279	ltpFR2	3	4	COMPASS	358	n/a	n/a	0	0	0
917.722	n/a	WORD	458861	wordpools/wasnorm_wordpool_576.txt	LTP279	ltpFR2	3	4	BUREAU	199	n/a	n/a	0	0	0
920.384	n/a	WORD	460192	wordpools/wasnorm_wordpool_576.txt	LTP279	ltpFR2	3	4	TYPIST	1532	n/a	n/a	0	0	0
922.896	n/a	WORD	461448	wordpools/wasnorm_wordpool_576.txt	LTP279	ltpFR2	3	4	PEANUT	1032	n/a	n/a	0	0	0
925.672	n/a	WORD	462836	wordpools/wasnorm_wordpool_576.txt	LTP279	ltpFR2	3	4	CASHEW	253	n/a	n/a	0	0	0
928.264	n/a	WORD	464132	wordpools/wasnorm_wordpool_576.txt	LTP279	ltpFR2	3	4	CLIMBER	323	n/a	n/a	0	0	0
930.994	n/a	WORD	465497	wordpools/wasnorm_wordpool_576.txt	LTP279	ltpFR2	3	4	THIEF	1456	n/a	n/a	0	0	0
933.468	n/a	WORD	466734	wordpools/wasnorm_wordpool_576.txt	LTP279	ltpFR2	3	4	LIGHTNING	820	n/a	n/a	0	0	0
936.04	n/a	WORD	468020	wordpools/wasnorm_wordpool_576.txt	LTP279	ltpFR2	3	4	CLOUD	328	n/a	n/a	0	0	0
938.5	n/a	WORD	469250	wordpools/wasnorm_wordpool_576.txt	LTP279	ltpFR2	3	4	ANTLER	29	n/a	n/a	0	0	0
941.13	n/a	WORD	470565	wordpools/wasnorm_wordpool_576.txt	LTP279	ltpFR2	3	4	SHELF	1280	n/a	n/a	0	0	0
943.606	n/a	WORD	471803	wordpools/wasnorm_wordpool_576.txt	LTP279	ltpFR2	3	4	CONVICT	371	n/a	n/a	0	0	0
945.212	n/a	START	472606	n/a	LTP279	ltpFR2	3	n/a	n/a	n/a	5	n/a	n/a	n/a	n/a
946.294	n/a	DISTRACTOR	473147	n/a	LTP279	ltpFR2	3	4	n/a	n/a	n/a	n/a	0	0	0
946.312	n/a	PROB	473156	n/a	LTP279	ltpFR2	3	n/a	n/a	n/a	5	21	6	6	9
948.57	n/a	PROB	474285	n/a	LTP279	ltpFR2	3	n/a	n/a	n/a	5	13	4	5	4
950.618	n/a	PROB	475309	n/a	LTP279	ltpFR2	3	n/a	n/a	n/a	5	8	6	1	1
953.072	n/a	PROB	476536	n/a	LTP279	ltpFR2	3	n/a	n/a	n/a	5	21	6	9	6
955.298	n/a	PROB	477649	n/a	LTP279	ltpFR2	3	n/a	n/a	n/a	5	15	3	3	9
958.514	n/a	PROB	479257	n/a	LTP279	ltpFR2	3	n/a	n/a	n/a	5	25	8	9	8
962.01	n/a	PROB	481005	n/a	LTP279	ltpFR2	3	n/a	n/a	n/a	5	17	7	5	5
964.616	n/a	PROB	482308	n/a	LTP279	ltpFR2	3	n/a	n/a	n/a	5	11	5	1	5
965.954	n/a	PROB	482977	n/a	LTP279	ltpFR2	3	n/a	n/a	n/a	5	11	6	3	2
968.634	n/a	STOP	484317	n/a	LTP279	ltpFR2	3	n/a	n/a	n/a	5	n/a	n/a	n/a	n/a
971.126	n/a	REC_START	485563	n/a	LTP279	ltpFR2	3	4	n/a	n/a	n/a	n/a	0	0	0
972.27	n/a	REC_WORD	486135	wordpools/wasnorm_wordpool_576.txt	LTP279	ltpFR2	3	4	CONVICT	371	n/a	n/a	0	0	0
973.022	n/a	REC_WORD	486511	wordpools/wasnorm_wordpool_576.txt	LTP279	ltpFR2	3	4	THIEF	1456	n/a	n/a	0	0	0
973.834	n/a	REC_WORD	486917	wordpools/wasnorm_wordpool_576.txt	LTP279	ltpFR2	3	4	LIGHTNING	820	n/a	n/a	0	0	0
974.528	n/a	REC_WORD	487264	wordpools/wasnorm_wordpool_576.txt	LTP279	ltpFR2	3	4	CLOUD	328	n/a	n/a	0	0	0
975.284	n/a	REC_WORD	487642	wordpools/wasnorm_wordpool_576.txt	LTP279	ltpFR2	3	4	ANTLER	29	n/a	n/a	0	0	0
984.624	n/a	REC_WORD	492312	wordpools/wasnorm_wordpool_576.txt	LTP279	ltpFR2	3	4	PARTNER	1017	n/a	n/a	0	0	0
985.644	n/a	REC_WORD	492822	wordpools/wasnorm_wordpool_576.txt	LTP279	ltpFR2	3	4	LADDER	793	n/a	n/a	0	0	0
986.518	n/a	REC_WORD	493259	wordpools/wasnorm_wordpool_576.txt	LTP279	ltpFR2	3	4	CRATER	400	n/a	n/a	0	0	0
988.676	n/a	REC_WORD	494338	wordpools/wasnorm_wordpool_576.txt	LTP279	ltpFR2	3	4	PUPPY	1144	n/a	n/a	0	0	0
993.83	n/a	REC_WORD	496915	wordpools/wasnorm_wordpool_576.txt	LTP279	ltpFR2	3	4	PIMPLE	1071	n/a	n/a	0	0	0
994.92	n/a	REC_WORD	497460	wordpools/wasnorm_wordpool_576.txt	LTP279	ltpFR2	3	4	KIDNEY	776	n/a	n/a	0	0	0
996.476	n/a	REC_WORD	498238	wordpools/wasnorm_wordpool_576.txt	LTP279	ltpFR2	3	4	LOVER	846	n/a	n/a	0	0	0
997.348	n/a	REC_WORD	498674	wordpools/wasnorm_wordpool_576.txt	LTP279	ltpFR2	3	4	SNAKE	1333	n/a	n/a	0	0	0
998.552	n/a	REC_WORD	499276	wordpools/wasnorm_wordpool_576.txt	LTP279	ltpFR2	3	4	ROBBER	1197	n/a	n/a	0	0	0
999.832	n/a	REC_WORD	499916	wordpools/wasnorm_wordpool_576.txt	LTP279	ltpFR2	3	4	DOUGHNUT	490	n/a	n/a	0	0	0
1019.93	n/a	REC_WORD	509965	wordpools/wasnorm_wordpool_576.txt	LTP279	ltpFR2	3	4	XEROX	1628	n/a	n/a	0	0	0
1023.596	n/a	REC_WORD	511798	wordpools/wasnorm_wordpool_576.txt	LTP279	ltpFR2	3	4	DIVER	476	n/a	n/a	0	0	0
1027.168	n/a	REC_WORD	513584	wordpools/wasnorm_wordpool_576.txt	LTP279	ltpFR2	3	4	WATCH	-1	n/a	n/a	0	0	0
1030.024	n/a	REC_WORD	515012	wordpools/wasnorm_wordpool_576.txt	LTP279	ltpFR2	3	4	TYPIST	1532	n/a	n/a	0	0	0
1030.766	n/a	REC_WORD	515383	wordpools/wasnorm_wordpool_576.txt	LTP279	ltpFR2	3	4	PEANUT	1032	n/a	n/a	0	0	0
1031.486	n/a	REC_WORD	515743	wordpools/wasnorm_wordpool_576.txt	LTP279	ltpFR2	3	4	CASHEW	253	n/a	n/a	0	0	0
1062.178	n/a	DISTRACTOR	531089	n/a	LTP279	ltpFR2	3	5	n/a	n/a	n/a	n/a	0	0	0
1062.178	n/a	START	531089	n/a	LTP279	ltpFR2	3	n/a	n/a	n/a	6	n/a	n/a	n/a	n/a
1062.228	n/a	PROB	531114	n/a	LTP279	ltpFR2	3	n/a	n/a	n/a	6	18	4	7	7
1064.096	n/a	PROB	532048	n/a	LTP279	ltpFR2	3	n/a	n/a	n/a	6	18	5	8	5
1065.922	n/a	PROB	532961	n/a	LTP279	ltpFR2	3	n/a	n/a	n/a	6	12	9	1	2
1067.498	n/a	PROB	533749	n/a	LTP279	ltpFR2	3	n/a	n/a	n/a	6	12	8	2	2
1068.954	n/a	PROB	534477	n/a	LTP279	ltpFR2	3	n/a	n/a	n/a	6	6	1	3	2
1071.012	n/a	PROB	535506	n/a	LTP279	ltpFR2	3	n/a	n/a	n/a	6	18	7	9	2
1073.114	n/a	PROB	536557	n/a	LTP279	ltpFR2	3	n/a	n/a	n/a	6	16	7	8	1
1074.972	n/a	PROB	537486	n/a	LTP279	ltpFR2	3	n/a	n/a	n/a	6	14	4	7	3
1076.392	n/a	PROB	538196	n/a	LTP279	ltpFR2	3	n/a	n/a	n/a	6	21	9	5	7
1078.338	n/a	PROB	539169	n/a	LTP279	ltpFR2	3	n/a	n/a	n/a	6	14	5	6	3
1080.04	n/a	PROB	540020	n/a	LTP279	ltpFR2	3	n/a	n/a	n/a	6	17	3	9	5
1081.748	n/a	PROB	540874	n/a	LTP279	ltpFR2	3	n/a	n/a	n/a	6	12	2	7	3
1083.386	n/a	PROB	541693	n/a	LTP279	ltpFR2	3	n/a	n/a	n/a	6	14	1	6	7
1085.002	n/a	STOP	542501	n/a	LTP279	ltpFR2	3	n/a	n/a	n/a	6	n/a	n/a	n/a	n/a
1087.056	n/a	WORD	543528	wordpools/wasnorm_wordpool_576.txt	LTP279	ltpFR2	3	5	YARN	1631	n/a	n/a	0	0	0
1089.526	n/a	WORD	544763	wordpools/wasnorm_wordpool_576.txt	LTP279	ltpFR2	3	5	PUDDING	1139	n/a	n/a	0	0	0
1092.136	n/a	WORD	546068	wordpools/wasnorm_wordpool_576.txt	LTP279	ltpFR2	3	5	ROBOT	1200	n/a	n/a	0	0	0
1094.662	n/a	WORD	547331	wordpools/wasnorm_wordpool_576.txt	LTP279	ltpFR2	3	5	SUPPER	1411	n/a	n/a	0	0	0
1097.144	n/a	WORD	548572	wordpools/wasnorm_wordpool_576.txt	LTP279	ltpFR2	3	5	CUSTARD	429	n/a	n/a	0	0	0
1099.784	n/a	WORD	549892	wordpools/wasnorm_wordpool_576.txt	LTP279	ltpFR2	3	5	PASTRY	1022	n/a	n/a	0	0	0
1102.398	n/a	WORD	551199	wordpools/wasnorm_wordpool_576.txt	LTP279	ltpFR2	3	5	MACHINE	852	n/a	n/a	0	0	0
1105.052	n/a	WORD	552526	wordpools/wasnorm_wordpool_576.txt	LTP279	ltpFR2	3	5	SCALPEL	1243	n/a	n/a	0	0	0
1107.584	n/a	WORD	553792	wordpools/wasnorm_wordpool_576.txt	LTP279	ltpFR2	3	5	CAPTIVE	240	n/a	n/a	0	0	0
1110.172	n/a	WORD	555086	wordpools/wasnorm_wordpool_576.txt	LTP279	ltpFR2	3	5	LABEL	790	n/a	n/a	0	0	0
1112.938	n/a	WORD	556469	wordpools/wasnorm_wordpool_576.txt	LTP279	ltpFR2	3	5	VENUS	1557	n/a	n/a	0	0	0
1115.664	n/a	WORD	557832	wordpools/wasnorm_wordpool_576.txt	LTP279	ltpFR2	3	5	BLENDER	136	n/a	n/a	0	0	0
1118.208	n/a	WORD	559104	wordpools/wasnorm_wordpool_576.txt	LTP279	ltpFR2	3	5	VALVE	1546	n/a	n/a	0	0	0
1120.836	n/a	WORD	560418	wordpools/wasnorm_wordpool_576.txt	LTP279	ltpFR2	3	5	MOTOR	922	n/a	n/a	0	0	0
1123.478	n/a	WORD	561739	wordpools/wasnorm_wordpool_576.txt	LTP279	ltpFR2	3	5	MAILBOX	857	n/a	n/a	0	0	0
1126.254	n/a	WORD	563127	wordpools/wasnorm_wordpool_576.txt	LTP279	ltpFR2	3	5	BULLET	194	n/a	n/a	0	0	0
1128.716	n/a	WORD	564358	wordpools/wasnorm_wordpool_576.txt	LTP279	ltpFR2	3	5	SANDWICH	1232	n/a	n/a	0	0	0
1131.44	n/a	WORD	565720	wordpools/wasnorm_wordpool_576.txt	LTP279	ltpFR2	3	5	CASHIER	254	n/a	n/a	0	0	0
1134.102	n/a	WORD	567051	wordpools/wasnorm_wordpool_576.txt	LTP279	ltpFR2	3	5	BRIEFCASE	175	n/a	n/a	0	0	0
1136.696	n/a	WORD	568348	wordpools/wasnorm_wordpool_576.txt	LTP279	ltpFR2	3	5	CLOCK	325	n/a	n/a	0	0	0
1139.188	n/a	WORD	569594	wordpools/wasnorm_wordpool_576.txt	LTP279	ltpFR2	3	5	TUNNEL	1519	n/a	n/a	0	0	0
1141.844	n/a	WORD	570922	wordpools/wasnorm_wordpool_576.txt	LTP279	ltpFR2	3	5	BOYFRIEND	162	n/a	n/a	0	0	0
1144.336	n/a	WORD	572168	wordpools/wasnorm_wordpool_576.txt	LTP279	ltpFR2	3	5	HOUND	724	n/a	n/a	0	0	0
1146.796	n/a	WORD	573398	wordpools/wasnorm_wordpool_576.txt	LTP279	ltpFR2	3	5	COTTAGE	384	n/a	n/a	0	0	0
1148.406	n/a	START	574203	n/a	LTP279	ltpFR2	3	n/a	n/a	n/a	7	n/a	n/a	n/a	n/a
1149.276	n/a	DISTRACTOR	574638	n/a	LTP279	ltpFR2	3	5	n/a	n/a	n/a	n/a	0	0	0
1149.292	n/a	PROB	574646	n/a	LTP279	ltpFR2	3	n/a	n/a	n/a	7	20	5	7	8
1152.684	n/a	PROB	576342	n/a	LTP279	ltpFR2	3	n/a	n/a	n/a	7	15	6	1	8
1154.524	n/a	PROB	577262	n/a	LTP279	ltpFR2	3	n/a	n/a	n/a	7	15	4	6	5
1157.152	n/a	PROB	578576	n/a	LTP279	ltpFR2	3	n/a	n/a	n/a	7	21	9	7	5
1158.86	n/a	PROB	579430	n/a	LTP279	ltpFR2	3	n/a	n/a	n/a	7	18	3	6	9
1162.07	n/a	PROB	581035	n/a	LTP279	ltpFR2	3	n/a	n/a	n/a	7	18	7	5	6
1164.166	n/a	PROB	582083	n/a	LTP279	ltpFR2	3	n/a	n/a	n/a	7	22	7	6	8
1166.12	n/a	PROB	583060	n/a	LTP279	ltpFR2	3	n/a	n/a	n/a	7	9	5	1	3
1170.118	n/a	PROB	585059	n/a	LTP279	ltpFR2	3	n/a	n/a	n/a	7	18	9	8	1
1172.172	n/a	STOP	586086	n/a	LTP279	ltpFR2	3	n/a	n/a	n/a	7	n/a	n/a	n/a	n/a
1174.352	n/a	REC_START	587176	n/a	LTP279	ltpFR2	3	5	n/a	n/a	n/a	n/a	0	0	0
1174.706	n/a	REC_WORD	587353	wordpools/wasnorm_wordpool_576.txt	LTP279	ltpFR2	3	5	HOUND	724	n/a	n/a	0	0	0
1176.118	n/a	REC_WORD	588059	wordpools/wasnorm_wordpool_576.txt	LTP279	ltpFR2	3	5	COTTAGE	384	n/a	n/a	0	0	0
1181.532	n/a	REC_WORD	590766	wordpools/wasnorm_wordpool_576.txt	LTP279	ltpFR2	3	5	YARN	1631	n/a	n/a	0	0	0
1183.09	n/a	REC_WORD	591545	wordpools/wasnorm_wordpool_576.txt	LTP279	ltpFR2	3	5	PUDDING	1139	n/a	n/a	0	0	0
1184.696	n/a	REC_WORD	592348	wordpools/wasnorm_wordpool_576.txt	LTP279	ltpFR2	3	5	ROBOT	1200	n/a	n/a	0	0	0
1186.316	n/a	REC_WORD	593158	wordpools/wasnorm_wordpool_576.txt	LTP279	ltpFR2	3	5	CUSTARD	429	n/a	n/a	0	0	0
1188.064	n/a	REC_WORD	594032	wordpools/wasnorm_wordpool_576.txt	LTP279	ltpFR2	3	5	PASTRY	1022	n/a	n/a	0	0	0
1190.154	n/a	REC_WORD	595077	wordpools/wasnorm_wordpool_576.txt	LTP279	ltpFR2	3	5	MACHINE	852	n/a	n/a	0	0	0
1193.506	n/a	REC_WORD	596753	wordpools/wasnorm_wordpool_576.txt	LTP279	ltpFR2	3	5	SCALPEL	1243	n/a	n/a	0	0	0
1195.202	n/a	REC_WORD	597601	wordpools/wasnorm_wordpool_576.txt	LTP279	ltpFR2	3	5	CAPTIVE	240	n/a	n/a	0	0	0
1265.454	n/a	WORD	632727	wordpools/wasnorm_wordpool_576.txt	LTP279	ltpFR2	3	6	HORSE	719	n/a	n/a	0	0	0
1268.182	n/a	WORD	634091	wordpools/wasnorm_wordpool_576.txt	LTP279	ltpFR2	3	6	FIREPLACE	570	n/a	n/a	0	0	0
1270.854	n/a	WORD	635427	wordpools/wasnorm_wordpool_576.txt	LTP279	ltpFR2	3	6	JURY	766	n/a	n/a	0	0	0
1273.614	n/a	WORD	636807	wordpools/wasnorm_wordpool_576.txt	LTP279	ltpFR2	3	6	MOP	916	n/a	n/a	0	0	0
1276.112	n/a	WORD	638056	wordpools/wasnorm_wordpool_576.txt	LTP279	ltpFR2	3	6	SEAL	1262	n/a	n/a	0	0	0
1278.638	n/a	WORD	639319	wordpools/wasnorm_wordpool_576.txt	LTP279	ltpFR2	3	6	TILE	1468	n/a	n/a	0	0	0
1281.364	n/a	WORD	640682	wordpools/wasnorm_wordpool_576.txt	LTP279	ltpFR2	3	6	FOX	598	n/a	n/a	0	0	0
1283.942	n/a	WORD	641971	wordpools/wasnorm_wordpool_576.txt	LTP279	ltpFR2	3	6	MASK	876	n/a	n/a	0	0	0
1286.686	n/a	WORD	643343	wordpools/wasnorm_wordpool_576.txt	LTP279	ltpFR2	3	6	AIRPLANE	12	n/a	n/a	0	0	0
1289.244	n/a	WORD	644622	wordpools/wasnorm_wordpool_576.txt	LTP279	ltpFR2	3	6	COOK	372	n/a	n/a	0	0	0
1292.018	n/a	WORD	646009	wordpools/wasnorm_wordpool_576.txt	LTP279	ltpFR2	3	6	CUPBOARD	425	n/a	n/a	0	0	0
1294.766	n/a	WORD	647383	wordpools/wasnorm_wordpool_576.txt	LTP279	ltpFR2	3	6	EGYPT	519	n/a	n/a	0	0	0
1297.276	n/a	WORD	648638	wordpools/wasnorm_wordpool_576.txt	LTP279	ltpFR2	3	6	SPHINX	1349	n/a	n/a	0	0	0
1299.736	n/a	WORD	649868	wordpools/wasnorm_wordpool_576.txt	LTP279	ltpFR2	3	6	ZEBRA	1635	n/a	n/a	0	0	0
1302.256	n/a	WORD	651128	wordpools/wasnorm_wordpool_576.txt	LTP279	ltpFR2	3	6	FARMER	553	n/a	n/a	0	0	0
1305.056	n/a	WORD	652528	wordpools/wasnorm_wordpool_576.txt	LTP279	ltpFR2	3	6	GOBLIN	645	n/a	n/a	0	0	0
1307.582	n/a	WORD	653791	wordpools/wasnorm_wordpool_576.txt	LTP279	ltpFR2	3	6	SKILLET	1317	n/a	n/a	0	0	0
1310.142	n/a	WORD	655071	wordpools/wasnorm_wordpool_576.txt	LTP279	ltpFR2	3	6	SPARROW	1347	n/a	n/a	0	0	0
1312.852	n/a	WORD	656426	wordpools/wasnorm_wordpool_576.txt	LTP279	ltpFR2	3	6	JELLO	754	n/a	n/a	0	0	0
1315.428	n/a	WORD	657714	wordpools/wasnorm_wordpool_576.txt	LTP279	ltpFR2	3	6	PROTON	1132	n/a	n/a	0	0	0
1318.018	n/a	WORD	659009	wordpools/wasnorm_wordpool_576.txt	LTP279	ltpFR2	3	6	FLIPPER	580	n/a	n/a	0	0	0
1320.664	n/a	WORD	660332	wordpools/wasnorm_wordpool_576.txt	LTP279	ltpFR2	3	6	FLASK	576	n/a	n/a	0	0	0
1323.442	n/a	WORD	661721	wordpools/wasnorm_wordpool_576.txt	LTP279	ltpFR2	3	6	MAPLE	866	n/a	n/a	0	0	0
1325.986	n/a	WORD	662993	wordpools/wasnorm_wordpool_576.txt	LTP279	ltpFR2	3	6	CHIPMUNK	304	n/a	n/a	0	0	0
1327.604	n/a	START	663802	n/a	LTP279	ltpFR2	3	n/a	n/a	n/a	8	n/a	n/a	n/a	n/a
1328.59	n/a	DISTRACTOR	664295	n/a	LTP279	ltpFR2	3	6	n/a	n/a	n/a	n/a	0	0	0
1328.608	n/a	PROB	664304	n/a	LTP279	ltpFR2	3	n/a	n/a	n/a	8	18	8	2	8
1331.184	n/a	PROB	665592	n/a	LTP279	ltpFR2	3	n/a	n/a	n/a	8	20	8	5	7
1333.04	n/a	PROB	666520	n/a	LTP279	ltpFR2	3	n/a	n/a	n/a	8	15	2	5	8
1335.098	n/a	PROB	667549	n/a	LTP279	ltpFR2	3	n/a	n/a	n/a	8	10	4	1	5
1337.156	n/a	PROB	668578	n/a	LTP279	ltpFR2	3	n/a	n/a	n/a	8	12	2	6	4
1338.998	n/a	PROB	669499	n/a	LTP279	ltpFR2	3	n/a	n/a	n/a	8	9	3	3	3
1340.334	n/a	PROB	670167	n/a	LTP279	ltpFR2	3	n/a	n/a	n/a	8	24	8	7	9
1345.472	n/a	PROB	672736	n/a	LTP279	ltpFR2	3	n/a	n/a	n/a	8	11	2	9	2
1347.462	n/a	PROB	673731	n/a	LTP279	ltpFR2	3	n/a	n/a	n/a	8	13	5	6	2
1351.604	n/a	STOP	675802	n/a	LTP279	ltpFR2	3	n/a	n/a	n/a	8	n/a	n/a	n/a	n/a
1353.542	n/a	REC_START	676771	n/a	LTP279	ltpFR2	3	6	n/a	n/a	n/a	n/a	0	0	0
1354.256	n/a	REC_WORD	677128	wordpools/wasnorm_wordpool_576.txt	LTP279	ltpFR2	3	6	FLIPPER	580	n/a	n/a	0	0	0
1355.568	n/a	REC_WORD	677784	wordpools/wasnorm_wordpool_576.txt	LTP279	ltpFR2	3	6	FLASK	576	n/a	n/a	0	0	0
1366.312	n/a	REC_WORD	683156	wordpools/wasnorm_wordpool_576.txt	LTP279	ltpFR2	3	6	HORSE	719	n/a	n/a	0	0	0
1368.146	n/a	REC_WORD	684073	wordpools/wasnorm_wordpool_576.txt	LTP279	ltpFR2	3	6	FIREPLACE	570	n/a	n/a	0	0	0
1370.044	n/a	REC_WORD	685022	wordpools/wasnorm_wordpool_576.txt	LTP279	ltpFR2	3	6	JURY	766	n/a	n/a	0	0	0
1371.934	n/a	REC_WORD	685967	wordpools/wasnorm_wordpool_576.txt	LTP279	ltpFR2	3	6	MOP	916	n/a	n/a	0	0	0
1373.712	n/a	REC_WORD	686856	wordpools/wasnorm_wordpool_576.txt	LTP279	ltpFR2	3	6	SEAL	1262	n/a	n/a	0	0	0
1375.806	n/a	REC_WORD	687903	wordpools/wasnorm_wordpool_576.txt	LTP279	ltpFR2	3	6	TILE	1468	n/a	n/a	0	0	0
1377.614	n/a	REC_WORD	688807	wordpools/wasnorm_wordpool_576.txt	LTP279	ltpFR2	3	6	FOX	598	n/a	n/a	0	0	0
1379.554	n/a	REC_WORD	689777	wordpools/wasnorm_wordpool_576.txt	LTP279	ltpFR2	3	6	MASK	876	n/a	n/a	0	0	0
1381.606	n/a	REC_WORD	690803	wordpools/wasnorm_wordpool_576.txt	LTP279	ltpFR2	3	6	AIRPLANE	12	n/a	n/a	0	0	0
1383.592	n/a	REC_WORD	691796	wordpools/wasnorm_wordpool_576.txt	LTP279	ltpFR2	3	6	COOK	372	n/a	n/a	0	0	0
1385.24	n/a	REC_WORD	692620	wordpools/wasnorm_wordpool_576.txt	LTP279	ltpFR2	3	6	CUPBOARD	425	n/a	n/a	0	0	0
1389.222	n/a	REC_WORD	694611	wordpools/wasnorm_wordpool_576.txt	LTP279	ltpFR2	3	6	EGYPT	519	n/a	n/a	0	0	0
1390.648	n/a	REC_WORD	695324	wordpools/wasnorm_wordpool_576.txt	LTP279	ltpFR2	3	6	SPHINX	1349	n/a	n/a	0	0	0
1394.712	n/a	REC_WORD	697356	wordpools/wasnorm_wordpool_576.txt	LTP279	ltpFR2	3	6	ZEBRA	1635	n/a	n/a	0	0	0
1396.116	n/a	REC_WORD	698058	wordpools/wasnorm_wordpool_576.txt	LTP279	ltpFR2	3	6	FARMER	553	n/a	n/a	0	0	0
1397.786	n/a	REC_WORD	698893	wordpools/wasnorm_wordpool_576.txt	LTP279	ltpFR2	3	6	GOBLIN	645	n/a	n/a	0	0	0
1401.848	n/a	REC_WORD	700924	wordpools/wasnorm_wordpool_576.txt	LTP279	ltpFR2	3	6	CHIPMUNK	304	n/a	n/a	0	0	0
1404.63	n/a	REC_WORD	702315	wordpools/wasnorm_wordpool_576.txt	LTP279	ltpFR2	3	6	VENUS	1557	n/a	n/a	0	0	0
1421.874	n/a	REC_WORD	710937	wordpools/wasnorm_wordpool_576.txt	LTP279	ltpFR2	3	6	MAPLE	866	n/a	n/a	0	0	0
1444.572	n/a	DISTRACTOR	722286	n/a	LTP279	ltpFR2	3	7	n/a	n/a	n/a	n/a	0	0	0
1444.572	n/a	START	722286	n/a	LTP279	ltpFR2	3	n/a	n/a	n/a	9	n/a	n/a	n/a	n/a
1444.638	n/a	PROB	722319	n/a	LTP279	ltpFR2	3	n/a	n/a	n/a	9	17	8	5	4
1446.574	n/a	PROB	723287	n/a	LTP279	ltpFR2	3	n/a	n/a	n/a	9	13	3	6	4
1448.046	n/a	PROB	724023	n/a	LTP279	ltpFR2	3	n/a	n/a	n/a	9	16	5	5	6
1449.486	n/a	PROB	724743	n/a	LTP279	ltpFR2	3	n/a	n/a	n/a	9	11	2	1	8
1450.774	n/a	PROB	725387	n/a	LTP279	ltpFR2	3	n/a	n/a	n/a	9	10	2	1	7
1452.548	n/a	PROB	726274	n/a	LTP279	ltpFR2	3	n/a	n/a	n/a	9	7	3	3	1
1453.886	n/a	PROB	726943	n/a	LTP279	ltpFR2	3	n/a	n/a	n/a	9	15	9	1	5
1455.196	n/a	PROB	727598	n/a	LTP279	ltpFR2	3	n/a	n/a	n/a	9	23	6	9	8
1458.008	n/a	PROB	729004	n/a	LTP279	ltpFR2	3	n/a	n/a	n/a	9	16	5	9	2
1459.712	n/a	PROB	729856	n/a	LTP279	ltpFR2	3	n/a	n/a	n/a	9	11	1	1	9
1460.864	n/a	PROB	730432	n/a	LTP279	ltpFR2	3	n/a	n/a	n/a	9	18	4	6	8
1462.704	n/a	PROB	731352	n/a	LTP279	ltpFR2	3	n/a	n/a	n/a	9	21	7	5	9
1464.392	n/a	PROB	732196	n/a	LTP279	ltpFR2	3	n/a	n/a	n/a	9	6	1	4	1
1465.85	n/a	PROB	732925	n/a	LTP279	ltpFR2	3	n/a	n/a	n/a	9	23	9	5	9
1468.404	n/a	STOP	734202	n/a	LTP279	ltpFR2	3	n/a	n/a	n/a	9	n/a	n/a	n/a	n/a
1469.752	n/a	WORD	734876	wordpools/wasnorm_wordpool_576.txt	LTP279	ltpFR2	3	7	GUARD	667	n/a	n/a	0	0	0
1472.294	n/a	WORD	736147	wordpools/wasnorm_wordpool_576.txt	LTP279	ltpFR2	3	7	MARKER	870	n/a	n/a	0	0	0
1474.906	n/a	WORD	737453	wordpools/wasnorm_wordpool_576.txt	LTP279	ltpFR2	3	7	UMPIRE	1535	n/a	n/a	0	0	0
1477.682	n/a	WORD	738841	wordpools/wasnorm_wordpool_576.txt	LTP279	ltpFR2	3	7	PASSAGE	1019	n/a	n/a	0	0	0
1480.304	n/a	WORD	740152	wordpools/wasnorm_wordpool_576.txt	LTP279	ltpFR2	3	7	NOVEL	960	n/a	n/a	0	0	0
1483.132	n/a	WORD	741566	wordpools/wasnorm_wordpool_576.txt	LTP279	ltpFR2	3	7	BURGLAR	200	n/a	n/a	0	0	0
1485.796	n/a	WORD	742898	wordpools/wasnorm_wordpool_576.txt	LTP279	ltpFR2	3	7	TURKEY	1520	n/a	n/a	0	0	0
1488.268	n/a	WORD	744134	wordpools/wasnorm_wordpool_576.txt	LTP279	ltpFR2	3	7	TWISTER	1530	n/a	n/a	0	0	0
1490.982	n/a	WORD	745491	wordpools/wasnorm_wordpool_576.txt	LTP279	ltpFR2	3	7	JOURNAL	760	n/a	n/a	0	0	0
1493.728	n/a	WORD	746864	wordpools/wasnorm_wordpool_576.txt	LTP279	ltpFR2	3	7	MUFFIN	929	n/a	n/a	0	0	0
1496.286	n/a	WORD	748143	wordpools/wasnorm_wordpool_576.txt	LTP279	ltpFR2	3	7	BRANDY	169	n/a	n/a	0	0	0
1498.998	n/a	WORD	749499	wordpools/wasnorm_wordpool_576.txt	LTP279	ltpFR2	3	7	SIBLING	1301	n/a	n/a	0	0	0
1501.82	n/a	WORD	750910	wordpools/wasnorm_wordpool_576.txt	LTP279	ltpFR2	3	7	PARENT	1013	n/a	n/a	0	0	0
1504.35	n/a	WORD	752175	wordpools/wasnorm_wordpool_576.txt	LTP279	ltpFR2	3	7	TART	1436	n/a	n/a	0	0	0
1506.894	n/a	WORD	753447	wordpools/wasnorm_wordpool_576.txt	LTP279	ltpFR2	3	7	LAPEL	800	n/a	n/a	0	0	0
1509.436	n/a	WORD	754718	wordpools/wasnorm_wordpool_576.txt	LTP279	ltpFR2	3	7	SHERIFF	1284	n/a	n/a	0	0	0
1512.16	n/a	WORD	756080	wordpools/wasnorm_wordpool_576.txt	LTP279	ltpFR2	3	7	PADDING	999	n/a	n/a	0	0	0
1514.77	n/a	WORD	757385	wordpools/wasnorm_wordpool_576.txt	LTP279	ltpFR2	3	7	BREAST	171	n/a	n/a	0	0	0
1517.278	n/a	WORD	758639	wordpools/wasnorm_wordpool_576.txt	LTP279	ltpFR2	3	7	CATCHER	258	n/a	n/a	0	0	0
1520.072	n/a	WORD	760036	wordpools/wasnorm_wordpool_576.txt	LTP279	ltpFR2	3	7	MATTRESS	879	n/a	n/a	0	0	0
1522.666	n/a	WORD	761333	wordpools/wasnorm_wordpool_576.txt	LTP279	ltpFR2	3	7	POISON	1096	n/a	n/a	0	0	0
1525.464	n/a	WORD	762732	wordpools/wasnorm_wordpool_576.txt	LTP279	ltpFR2	3	7	KEEPER	769	n/a	n/a	0	0	0
1528.024	n/a	WORD	764012	wordpools/wasnorm_wordpool_576.txt	LTP279	ltpFR2	3	7	RATTLE	1170	n/a	n/a	0	0	0
1530.764	n/a	WORD	765382	wordpools/wasnorm_wordpool_576.txt	LTP279	ltpFR2	3	7	COBRA	336	n/a	n/a	0	0	0
1532.374	n/a	START	766187	n/a	LTP279	ltpFR2	3	n/a	n/a	n/a	10	n/a	n/a	n/a	n/a
1533.188	n/a	DISTRACTOR	766594	n/a	LTP279	ltpFR2	3	7	n/a	n/a	n/a	n/a	0	0	0
1533.206	n/a	PROB	766603	n/a	LTP279	ltpFR2	3	n/a	n/a	n/a	10	16	7	4	5
1536.434	n/a	PROB	768217	n/a	LTP279	ltpFR2	3	n/a	n/a	n/a	10	11	6	3	2
1538.174	n/a	PROB	769087	n/a	LTP279	ltpFR2	3	n/a	n/a	n/a	10	20	4	9	7
1540.668	n/a	PROB	770334	n/a	LTP279	ltpFR2	3	n/a	n/a	n/a	10	8	2	4	2
1543.044	n/a	PROB	771522	n/a	LTP279	ltpFR2	3	n/a	n/a	n/a	10	24	8	7	9
1546.06	n/a	PROB	773030	n/a	LTP279	ltpFR2	3	n/a	n/a	n/a	10	14	2	7	5
1548.13	n/a	PROB	774065	n/a	LTP279	ltpFR2	3	n/a	n/a	n/a	10	10	1	4	5
1550.176	n/a	PROB	775088	n/a	LTP279	ltpFR2	3	n/a	n/a	n/a	10	15	4	4	7
1552.078	n/a	PROB	776039	n/a	LTP279	ltpFR2	3	n/a	n/a	n/a	10	21	8	6	7
1554.174	n/a	PROB	777087	n/a	LTP279	ltpFR2	3	n/a	n/a	n/a	10	18	4	5	9
1556.25	n/a	STOP	778125	n/a	LTP279	ltpFR2	3	n/a	n/a	n/a	10	n/a	n/a	n/a	n/a
1558.218	n/a	REC_START	779109	n/a	LTP279	ltpFR2	3	7	n/a	n/a	n/a	n/a	0	0	0
1559.456	n/a	REC_WORD	779728	wordpools/wasnorm_wordpool_576.txt	LTP279	ltpFR2	3	7	COBRA	336	n/a	n/a	0	0	0
1584.488	n/a	REC_WORD	792244	wordpools/wasnorm_wordpool_576.txt	LTP279	ltpFR2	3	7	JOURNAL	760	n/a	n/a	0	0	0
1585.086	n/a	REC_WORD	792543	wordpools/wasnorm_wordpool_576.txt	LTP279	ltpFR2	3	7	MUFFIN	929	n/a	n/a	0	0	0
1591.02	n/a	REC_WORD	795510	wordpools/wasnorm_wordpool_576.txt	LTP279	ltpFR2	3	7	UMPIRE	1535	n/a	n/a	0	0	0
1592.482	n/a	REC_WORD	796241	wordpools/wasnorm_wordpool_576.txt	LTP279	ltpFR2	3	7	GUARD	667	n/a	n/a	0	0	0
1593.618	n/a	REC_WORD	796809	wordpools/wasnorm_wordpool_576.txt	LTP279	ltpFR2	3	7	MARKER	870	n/a	n/a	0	0	0
1595.004	n/a	REC_WORD	797502	wordpools/wasnorm_wordpool_576.txt	LTP279	ltpFR2	3	7	PASSAGE	1019	n/a	n/a	0	0	0
1596.518	n/a	REC_WORD	798259	wordpools/wasnorm_wordpool_576.txt	LTP279	ltpFR2	3	7	NOVICE	-1	n/a	n/a	0	0	0
1599.48	n/a	REC_WORD	799740	wordpools/wasnorm_wordpool_576.txt	LTP279	ltpFR2	3	7	BURGLAR	200	n/a	n/a	0	0	0
1601.084	n/a	REC_WORD	800542	wordpools/wasnorm_wordpool_576.txt	LTP279	ltpFR2	3	7	TURKEY	1520	n/a	n/a	0	0	0
1605.084	n/a	REC_WORD	802542	wordpools/wasnorm_wordpool_576.txt	LTP279	ltpFR2	3	7	TWISTER	1530	n/a	n/a	0	0	0
1620.484	n/a	REC_WORD	810242	wordpools/wasnorm_wordpool_576.txt	LTP279	ltpFR2	3	7	LAPEL	800	n/a	n/a	0	0	0
1621.648	n/a	REC_WORD	810824	wordpools/wasnorm_wordpool_576.txt	LTP279	ltpFR2	3	7	PADDING	999	n/a	n/a	0	0	0
1622.814	n/a	REC_WORD	811407	wordpools/wasnorm_wordpool_576.txt	LTP279	ltpFR2	3	7	BREAST	171	n/a	n/a	0	0	0
1625.096	n/a	REC_WORD	812548	wordpools/wasnorm_wordpool_576.txt	LTP279	ltpFR2	3	7	SHERIFF	1284	n/a	n/a	0	0	0
1626.38	n/a	REC_WORD	813190	wordpools/wasnorm_wordpool_576.txt	LTP279	ltpFR2	3	7	CATCHER	258	n/a	n/a	0	0	0
1649.304	n/a	DISTRACTOR	824652	n/a	LTP279	ltpFR2	3	8	n/a	n/a	n/a	n/a	0	0	0
1649.304	n/a	START	824652	n/a	LTP279	ltpFR2	3	n/a	n/a	n/a	11	n/a	n/a	n/a	n/a
1649.354	n/a	PROB	824677	n/a	LTP279	ltpFR2	3	n/a	n/a	n/a	11	10	8	1	1
1650.956	n/a	PROB	825478	n/a	LTP279	ltpFR2	3	n/a	n/a	n/a	11	17	3	8	6
1652.65	n/a	PROB	826325	n/a	LTP279	ltpFR2	3	n/a	n/a	n/a	11	21	7	6	8
1656.176	n/a	PROB	828088	n/a	LTP279	ltpFR2	3	n/a	n/a	n/a	11	17	6	5	6
1658.668	n/a	PROB	829334	n/a	LTP279	ltpFR2	3	n/a	n/a	n/a	11	19	8	4	7
1660.644	n/a	PROB	830322	n/a	LTP279	ltpFR2	3	n/a	n/a	n/a	11	10	3	3	4
1662.952	n/a	PROB	831476	n/a	LTP279	ltpFR2	3	n/a	n/a	n/a	11	24	6	9	9
1665.11	n/a	PROB	832555	n/a	LTP279	ltpFR2	3	n/a	n/a	n/a	11	15	6	5	4
1666.984	n/a	PROB	833492	n/a	LTP279	ltpFR2	3	n/a	n/a	n/a	11	12	7	3	2
1668.376	n/a	PROB	834188	n/a	LTP279	ltpFR2	3	n/a	n/a	n/a	11	13	3	8	2
1670.146	n/a	PROB	835073	n/a	LTP279	ltpFR2	3	n/a	n/a	n/a	11	10	1	3	6
1671.872	n/a	STOP	835936	n/a	LTP279	ltpFR2	3	n/a	n/a	n/a	11	n/a	n/a	n/a	n/a
1674.16	n/a	WORD	837080	wordpools/wasnorm_wordpool_576.txt	LTP279	ltpFR2	3	8	KNAPSACK	783	n/a	n/a	0	0	0
1676.838	n/a	WORD	838419	wordpools/wasnorm_wordpool_576.txt	LTP279	ltpFR2	3	8	PICNIC	1060	n/a	n/a	0	0	0
1679.536	n/a	WORD	839768	wordpools/wasnorm_wordpool_576.txt	LTP279	ltpFR2	3	8	GARLIC	624	n/a	n/a	0	0	0
1682.046	n/a	WORD	841023	wordpools/wasnorm_wordpool_576.txt	LTP279	ltpFR2	3	8	TERMITE	1451	n/a	n/a	0	0	0
1684.74	n/a	WORD	842370	wordpools/wasnorm_wordpool_576.txt	LTP279	ltpFR2	3	8	COCOON	339	n/a	n/a	0	0	0
1687.534	n/a	WORD	843767	wordpools/wasnorm_wordpool_576.txt	LTP279	ltpFR2	3	8	ONION	977	n/a	n/a	0	0	0
1690.176	n/a	WORD	845088	wordpools/wasnorm_wordpool_576.txt	LTP279	ltpFR2	3	8	SPOON	1357	n/a	n/a	0	0	0
1692.67	n/a	WORD	846335	wordpools/wasnorm_wordpool_576.txt	LTP279	ltpFR2	3	8	CRAYON	401	n/a	n/a	0	0	0
1695.208	n/a	WORD	847604	wordpools/wasnorm_wordpool_576.txt	LTP279	ltpFR2	3	8	DUSTPAN	509	n/a	n/a	0	0	0
1697.722	n/a	WORD	848861	wordpools/wasnorm_wordpool_576.txt	LTP279	ltpFR2	3	8	PORTRAIT	1111	n/a	n/a	0	0	0
1700.366	n/a	WORD	850183	wordpools/wasnorm_wordpool_576.txt	LTP279	ltpFR2	3	8	FIREMAN	569	n/a	n/a	0	0	0
1702.826	n/a	WORD	851413	wordpools/wasnorm_wordpool_576.txt	LTP279	ltpFR2	3	8	PENGUIN	1044	n/a	n/a	0	0	0
1705.652	n/a	WORD	852826	wordpools/wasnorm_wordpool_576.txt	LTP279	ltpFR2	3	8	SEAGULL	1261	n/a	n/a	0	0	0
1708.346	n/a	WORD	854173	wordpools/wasnorm_wordpool_576.txt	LTP279	ltpFR2	3	8	CLOTHES	327	n/a	n/a	0	0	0
1711.008	n/a	WORD	855504	wordpools/wasnorm_wordpool_576.txt	LTP279	ltpFR2	3	8	DENTIST	447	n/a	n/a	0	0	0
1713.6	n/a	WORD	856800	wordpools/wasnorm_wordpool_576.txt	LTP279	ltpFR2	3	8	QUEEN	1149	n/a	n/a	0	0	0
1716.244	n/a	WORD	858122	wordpools/wasnorm_wordpool_576.txt	LTP279	ltpFR2	3	8	DAUGHTER	442	n/a	n/a	0	0	0
1718.75	n/a	WORD	859375	wordpools/wasnorm_wordpool_576.txt	LTP279	ltpFR2	3	8	PIZZA	1079	n/a	n/a	0	0	0
1721.262	n/a	WORD	860631	wordpools/wasnorm_wordpool_576.txt	LTP279	ltpFR2	3	8	PANTHER	1009	n/a	n/a	0	0	0
1723.974	n/a	WORD	861987	wordpools/wasnorm_wordpool_576.txt	LTP279	ltpFR2	3	8	PALACE	1006	n/a	n/a	0	0	0
1726.428	n/a	WORD	863214	wordpools/wasnorm_wordpool_576.txt	LTP279	ltpFR2	3	8	RABBIT	1152	n/a	n/a	0	0	0
1728.888	n/a	WORD	864444	wordpools/wasnorm_wordpool_576.txt	LTP279	ltpFR2	3	8	SODA	1341	n/a	n/a	0	0	0
1731.668	n/a	WORD	865834	wordpools/wasnorm_wordpool_576.txt	LTP279	ltpFR2	3	8	FLESH	579	n/a	n/a	0	0	0
1734.144	n/a	WORD	867072	wordpools/wasnorm_wordpool_576.txt	LTP279	ltpFR2	3	8	ZIPPER	1636	n/a	n/a	0	0	0
1735.752	n/a	START	867876	n/a	LTP279	ltpFR2	3	n/a	n/a	n/a	12	n/a	n/a	n/a	n/a
1736.806	n/a	DISTRACTOR	868403	n/a	LTP279	ltpFR2	3	8	n/a	n/a	n/a	n/a	0	0	0
1736.824	n/a	PROB	868412	n/a	LTP279	ltpFR2	3	n/a	n/a	n/a	12	11	1	2	8
1740.398	n/a	PROB	870199	n/a	LTP279	ltpFR2	3	n/a	n/a	n/a	12	13	2	7	4
1742.522	n/a	PROB	871261	n/a	LTP279	ltpFR2	3	n/a	n/a	n/a	12	11	4	2	5
1744.434	n/a	PROB	872217	n/a	LTP279	ltpFR2	3	n/a	n/a	n/a	12	17	9	2	6
1746.89	n/a	PROB	873445	n/a	LTP279	ltpFR2	3	n/a	n/a	n/a	12	17	5	8	4
1749.014	n/a	PROB	874507	n/a	LTP279	ltpFR2	3	n/a	n/a	n/a	12	13	4	8	1
1750.906	n/a	PROB	875453	n/a	LTP279	ltpFR2	3	n/a	n/a	n/a	12	11	8	1	2
1752.98	n/a	PROB	876490	n/a	LTP279	ltpFR2	3	n/a	n/a	n/a	12	21	5	8	8
1754.67	n/a	PROB	877335	n/a	LTP279	ltpFR2	3	n/a	n/a	n/a	12	16	9	2	5
1757.046	n/a	PROB	878523	n/a	LTP279	ltpFR2	3	n/a	n/a	n/a	12	18	5	8	5
1759.244	n/a	STOP	879622	n/a	LTP279	ltpFR2	3	n/a	n/a	n/a	12	n/a	n/a	n/a	n/a
1761.702	n/a	REC_START	880851	n/a	LTP279	ltpFR2	3	8	n/a	n/a	n/a	n/a	0	0	0
1784.516	n/a	REC_WORD	892258	wordpools/wasnorm_wordpool_576.txt	LTP279	ltpFR2	3	8	SPOON	1357	n/a	n/a	0	0	0
1786.216	n/a	REC_WORD	893108	wordpools/wasnorm_wordpool_576.txt	LTP279	ltpFR2	3	8	CRAYON	401	n/a	n/a	0	0	0
1786.982	n/a	REC_WORD	893491	wordpools/wasnorm_wordpool_576.txt	LTP279	ltpFR2	3	8	PORTRAIT	1111	n/a	n/a	0	0	0
1787.79	n/a	REC_WORD	893895	wordpools/wasnorm_wordpool_576.txt	LTP279	ltpFR2	3	8	DUSTPAN	509	n/a	n/a	0	0	0
1788.622	n/a	REC_WORD	894311	wordpools/wasnorm_wordpool_576.txt	LTP279	ltpFR2	3	8	SEAGULL	1261	n/a	n/a	0	0	0
1792.516	n/a	REC_WORD	896258	wordpools/wasnorm_wordpool_576.txt	LTP279	ltpFR2	3	8	PENGUIN	1044	n/a	n/a	0	0	0
1794.754	n/a	REC_WORD	897377	wordpools/wasnorm_wordpool_576.txt	LTP279	ltpFR2	3	8	FIREMAN	569	n/a	n/a	0	0	0
1797.366	n/a	REC_WORD	898683	wordpools/wasnorm_wordpool_576.txt	LTP279	ltpFR2	3	8	CLOTHES	327	n/a	n/a	0	0	0
1799.848	n/a	REC_WORD	899924	wordpools/wasnorm_wordpool_576.txt	LTP279	ltpFR2	3	8	PANTHER	1009	n/a	n/a	0	0	0
1800.542	n/a	REC_WORD	900271	wordpools/wasnorm_wordpool_576.txt	LTP279	ltpFR2	3	8	PIZZA	1079	n/a	n/a	0	0	0
1808.248	n/a	REC_WORD	904124	wordpools/wasnorm_wordpool_576.txt	LTP279	ltpFR2	3	8	GARLIC	624	n/a	n/a	0	0	0
1808.94	n/a	REC_WORD	904470	wordpools/wasnorm_wordpool_576.txt	LTP279	ltpFR2	3	8	KNAPSACK	783	n/a	n/a	0	0	0
1838.54	n/a	REST_REWET	919270	n/a	LTP279	ltpFR2	3	8	n/a	n/a	n/a	n/a	0	0	0
2044.246	n/a	DISTRACTOR	1022123	n/a	LTP279	ltpFR2	3	9	n/a	n/a	n/a	n/a	0	0	0
2044.248	n/a	START	1022124	n/a	LTP279	ltpFR2	3	n/a	n/a	n/a	13	n/a	n/a	n/a	n/a
2044.314	n/a	PROB	1022157	n/a	LTP279	ltpFR2	3	n/a	n/a	n/a	13	11	9	1	1
2045.8	n/a	PROB	1022900	n/a	LTP279	ltpFR2	3	n/a	n/a	n/a	13	19	4	8	7
2047.726	n/a	PROB	1023863	n/a	LTP279	ltpFR2	3	n/a	n/a	n/a	13	16	7	6	3
2052.474	n/a	PROB	1026237	n/a	LTP279	ltpFR2	3	n/a	n/a	n/a	13	20	7	6	7
2055.184	n/a	PROB	1027592	n/a	LTP279	ltpFR2	3	n/a	n/a	n/a	13	22	8	8	6
2057.816	n/a	PROB	1028908	n/a	LTP279	ltpFR2	3	n/a	n/a	n/a	13	11	4	5	2
2059.304	n/a	PROB	1029652	n/a	LTP279	ltpFR2	3	n/a	n/a	n/a	13	19	9	2	8
2060.874	n/a	PROB	1030437	n/a	LTP279	ltpFR2	3	n/a	n/a	n/a	13	17	6	7	3
2063.08	n/a	PROB	1031540	n/a	LTP279	ltpFR2	3	n/a	n/a	n/a	13	14	4	1	9
2065.072	n/a	PROB	1032536	n/a	LTP279	ltpFR2	3	n/a	n/a	n/a	13	17	9	5	3
2067.204	n/a	STOP	1033602	n/a	LTP279	ltpFR2	3	n/a	n/a	n/a	13	n/a	n/a	n/a	n/a
2069.404	n/a	WORD	1034702	wordpools/wasnorm_wordpool_576.txt	LTP279	ltpFR2	3	9	GRAVEL	659	n/a	n/a	0	0	0
2071.954	n/a	WORD	1035977	wordpools/wasnorm_wordpool_576.txt	LTP279	ltpFR2	3	9	ROD	1203	n/a	n/a	0	0	0
2074.496	n/a	WORD	1037248	wordpools/wasnorm_wordpool_576.txt	LTP279	ltpFR2	3	9	LIZARD	834	n/a	n/a	0	0	0
2077.156	n/a	WORD	1038578	wordpools/wasnorm_wordpool_576.txt	LTP279	ltpFR2	3	9	SUSPECT	1415	n/a	n/a	0	0	0
2079.75	n/a	WORD	1039875	wordpools/wasnorm_wordpool_576.txt	LTP279	ltpFR2	3	9	OINTMENT	974	n/a	n/a	0	0	0
2082.258	n/a	WORD	1041129	wordpools/wasnorm_wordpool_576.txt	LTP279	ltpFR2	3	9	SHARK	1275	n/a	n/a	0	0	0
2084.92	n/a	WORD	1042460	wordpools/wasnorm_wordpool_576.txt	LTP279	ltpFR2	3	9	LOFT	840	n/a	n/a	0	0	0
2087.378	n/a	WORD	1043689	wordpools/wasnorm_wordpool_576.txt	LTP279	ltpFR2	3	9	BIKE	125	n/a	n/a	0	0	0
2090.118	n/a	WORD	1045059	wordpools/wasnorm_wordpool_576.txt	LTP279	ltpFR2	3	9	TRIBE	1505	n/a	n/a	0	0	0
2092.9	n/a	WORD	1046450	wordpools/wasnorm_wordpool_576.txt	LTP279	ltpFR2	3	9	VICTIM	1562	n/a	n/a	0	0	0
2095.694	n/a	WORD	1047847	wordpools/wasnorm_wordpool_576.txt	LTP279	ltpFR2	3	9	BALLOON	75	n/a	n/a	0	0	0
2098.232	n/a	WORD	1049116	wordpools/wasnorm_wordpool_576.txt	LTP279	ltpFR2	3	9	JUGGLER	763	n/a	n/a	0	0	0
2100.798	n/a	WORD	1050399	wordpools/wasnorm_wordpool_576.txt	LTP279	ltpFR2	3	9	TOASTER	1472	n/a	n/a	0	0	0
2103.356	n/a	WORD	1051678	wordpools/wasnorm_wordpool_576.txt	LTP279	ltpFR2	3	9	STOVE	1388	n/a	n/a	0	0	0
2106.062	n/a	WORD	1053031	wordpools/wasnorm_wordpool_576.txt	LTP279	ltpFR2	3	9	EAGLE	512	n/a	n/a	0	0	0
2108.874	n/a	WORD	1054437	wordpools/wasnorm_wordpool_576.txt	LTP279	ltpFR2	3	9	TRUCK	1512	n/a	n/a	0	0	0
2111.454	n/a	WORD	1055727	wordpools/wasnorm_wordpool_576.txt	LTP279	ltpFR2	3	9	HOOD	714	n/a	n/a	0	0	0
2113.91	n/a	WORD	1056955	wordpools/wasnorm_wordpool_576.txt	LTP279	ltpFR2	3	9	NAPKIN	937	n/a	n/a	0	0	0
2116.606	n/a	WORD	1058303	wordpools/wasnorm_wordpool_576.txt	LTP279	ltpFR2	3	9	TEMPLE	1448	n/a	n/a	0	0	0
2119.334	n/a	WORD	1059667	wordpools/wasnorm_wordpool_576.txt	LTP279	ltpFR2	3	9	SPACE	1345	n/a	n/a	0	0	0
2122.144	n/a	WORD	1061072	wordpools/wasnorm_wordpool_576.txt	LTP279	ltpFR2	3	9	ATLAS	53	n/a	n/a	0	0	0
2124.738	n/a	WORD	1062369	wordpools/wasnorm_wordpool_576.txt	LTP279	ltpFR2	3	9	DAISY	435	n/a	n/a	0	0	0
2127.382	n/a	WORD	1063691	wordpools/wasnorm_wordpool_576.txt	LTP279	ltpFR2	3	9	PERCH	1048	n/a	n/a	0	0	0
2130.076	n/a	WORD	1065038	wordpools/wasnorm_wordpool_576.txt	LTP279	ltpFR2	3	9	IDOL	733	n/a	n/a	0	0	0
2131.694	n/a	START	1065847	n/a	LTP279	ltpFR2	3	n/a	n/a	n/a	14	n/a	n/a	n/a	n/a
2132.658	n/a	DISTRACTOR	1066329	n/a	LTP279	ltpFR2	3	9	n/a	n/a	n/a	n/a	0	0	0
2132.668	n/a	PROB	1066334	n/a	LTP279	ltpFR2	3	n/a	n/a	n/a	14	24	8	9	7
2136.26	n/a	PROB	1068130	n/a	LTP279	ltpFR2	3	n/a	n/a	n/a	14	15	6	8	1
2138.704	n/a	PROB	1069352	n/a	LTP279	ltpFR2	3	n/a	n/a	n/a	14	14	5	4	5
2140.326	n/a	PROB	1070163	n/a	LTP279	ltpFR2	3	n/a	n/a	n/a	14	18	6	5	7
2142.07	n/a	PROB	1071035	n/a	LTP279	ltpFR2	3	n/a	n/a	n/a	14	6	1	3	2
2143.974	n/a	PROB	1071987	n/a	LTP279	ltpFR2	3	n/a	n/a	n/a	14	10	3	4	3
2145.886	n/a	PROB	1072943	n/a	LTP279	ltpFR2	3	n/a	n/a	n/a	14	20	7	5	8
2149.73	n/a	PROB	1074865	n/a	LTP279	ltpFR2	3	n/a	n/a	n/a	14	15	5	8	2
2152.64	n/a	PROB	1076320	n/a	LTP279	ltpFR2	3	n/a	n/a	n/a	14	21	7	6	8
2154.418	n/a	STOP	1077209	n/a	LTP279	ltpFR2	3	n/a	n/a	n/a	14	n/a	n/a	n/a	n/a
2157.542	n/a	REC_START	1078771	n/a	LTP279	ltpFR2	3	9	n/a	n/a	n/a	n/a	0	0	0
2158.302	n/a	REC_WORD	1079151	wordpools/wasnorm_wordpool_576.txt	LTP279	ltpFR2	3	9	DAISY	435	n/a	n/a	0	0	0
2159.39	n/a	REC_WORD	1079695	wordpools/wasnorm_wordpool_576.txt	LTP279	ltpFR2	3	9	IDOL	733	n/a	n/a	0	0	0
2161.334	n/a	REC_WORD	1080667	wordpools/wasnorm_wordpool_576.txt	LTP279	ltpFR2	3	9	HOOD	714	n/a	n/a	0	0	0
2162.502	n/a	REC_WORD	1081251	wordpools/wasnorm_wordpool_576.txt	LTP279	ltpFR2	3	9	EAGLE	512	n/a	n/a	0	0	0
2163.878	n/a	REC_WORD	1081939	wordpools/wasnorm_wordpool_576.txt	LTP279	ltpFR2	3	9	PERCH	1048	n/a	n/a	0	0	0
2166.998	n/a	REC_WORD	1083499	wordpools/wasnorm_wordpool_576.txt	LTP279	ltpFR2	3	9	SPACE	1345	n/a	n/a	0	0	0
2184.354	n/a	REC_WORD	1092177	wordpools/wasnorm_wordpool_576.txt	LTP279	ltpFR2	3	9	TRUCK	1512	n/a	n/a	0	0	0
2191.636	n/a	REC_WORD	1095818	wordpools/wasnorm_wordpool_576.txt	LTP279	ltpFR2	3	9	GRAVEL	659	n/a	n/a	0	0	0
2192.616	n/a	REC_WORD	1096308	wordpools/wasnorm_wordpool_576.txt	LTP279	ltpFR2	3	9	ROD	1203	n/a	n/a	0	0	0
2193.918	n/a	REC_WORD	1096959	wordpools/wasnorm_wordpool_576.txt	LTP279	ltpFR2	3	9	LIZARD	834	n/a	n/a	0	0	0
2196.252	n/a	REC_WORD	1098126	wordpools/wasnorm_wordpool_576.txt	LTP279	ltpFR2	3	9	SUSPECT	1415	n/a	n/a	0	0	0
2200.56	n/a	REC_WORD	1100280	wordpools/wasnorm_wordpool_576.txt	LTP279	ltpFR2	3	9	OINTMENT	974	n/a	n/a	0	0	0
2201.626	n/a	REC_WORD	1100813	wordpools/wasnorm_wordpool_576.txt	LTP279	ltpFR2	3	9	SHARK	1275	n/a	n/a	0	0	0
2203.294	n/a	REC_WORD	1101647	wordpools/wasnorm_wordpool_576.txt	LTP279	ltpFR2	3	9	LOFT	840	n/a	n/a	0	0	0
2204.548	n/a	REC_WORD	1102274	wordpools/wasnorm_wordpool_576.txt	LTP279	ltpFR2	3	9	BIKE	125	n/a	n/a	0	0	0
2206.572	n/a	REC_WORD	1103286	wordpools/wasnorm_wordpool_576.txt	LTP279	ltpFR2	3	9	TRIBE	1505	n/a	n/a	0	0	0
2208.366	n/a	REC_WORD	1104183	wordpools/wasnorm_wordpool_576.txt	LTP279	ltpFR2	3	9	VICTIM	1562	n/a	n/a	0	0	0
2209.484	n/a	REC_WORD	1104742	wordpools/wasnorm_wordpool_576.txt	LTP279	ltpFR2	3	9	BALLOON	75	n/a	n/a	0	0	0
2210.388	n/a	REC_WORD	1105194	wordpools/wasnorm_wordpool_576.txt	LTP279	ltpFR2	3	9	JUGGLER	763	n/a	n/a	0	0	0
2248.612	n/a	WORD	1124306	wordpools/wasnorm_wordpool_576.txt	LTP279	ltpFR2	3	10	PRIMATE	1123	n/a	n/a	0	0	0
2251.034	n/a	WORD	1125517	wordpools/wasnorm_wordpool_576.txt	LTP279	ltpFR2	3	10	FLEET	578	n/a	n/a	0	0	0
2253.844	n/a	WORD	1126922	wordpools/wasnorm_wordpool_576.txt	LTP279	ltpFR2	3	10	BARLEY	88	n/a	n/a	0	0	0
2256.358	n/a	WORD	1128179	wordpools/wasnorm_wordpool_576.txt	LTP279	ltpFR2	3	10	SWORD	1423	n/a	n/a	0	0	0
2259.114	n/a	WORD	1129557	wordpools/wasnorm_wordpool_576.txt	LTP279	ltpFR2	3	10	SWIMMER	1420	n/a	n/a	0	0	0
2261.758	n/a	WORD	1130879	wordpools/wasnorm_wordpool_576.txt	LTP279	ltpFR2	3	10	MILDEW	893	n/a	n/a	0	0	0
2264.4	n/a	WORD	1132200	wordpools/wasnorm_wordpool_576.txt	LTP279	ltpFR2	3	10	PARSLEY	1016	n/a	n/a	0	0	0
2266.944	n/a	WORD	1133472	wordpools/wasnorm_wordpool_576.txt	LTP279	ltpFR2	3	10	COUSIN	392	n/a	n/a	0	0	0
2269.624	n/a	WORD	1134812	wordpools/wasnorm_wordpool_576.txt	LTP279	ltpFR2	3	10	HUSBAND	728	n/a	n/a	0	0	0
2272.118	n/a	WORD	1136059	wordpools/wasnorm_wordpool_576.txt	LTP279	ltpFR2	3	10	IGLOO	734	n/a	n/a	0	0	0
2274.93	n/a	WORD	1137465	wordpools/wasnorm_wordpool_576.txt	LTP279	ltpFR2	3	10	BLADE	134	n/a	n/a	0	0	0
2277.472	n/a	WORD	1138736	wordpools/wasnorm_wordpool_576.txt	LTP279	ltpFR2	3	10	TUTU	1524	n/a	n/a	0	0	0
2280.062	n/a	WORD	1140031	wordpools/wasnorm_wordpool_576.txt	LTP279	ltpFR2	3	10	WAITER	1580	n/a	n/a	0	0	0
2282.86	n/a	WORD	1141430	wordpools/wasnorm_wordpool_576.txt	LTP279	ltpFR2	3	10	SCOTCH	1251	n/a	n/a	0	0	0
2285.298	n/a	WORD	1142649	wordpools/wasnorm_wordpool_576.txt	LTP279	ltpFR2	3	10	FLOWER	584	n/a	n/a	0	0	0
2287.722	n/a	WORD	1143861	wordpools/wasnorm_wordpool_576.txt	LTP279	ltpFR2	3	10	LILY	821	n/a	n/a	0	0	0
2290.438	n/a	WORD	1145219	wordpools/wasnorm_wordpool_576.txt	LTP279	ltpFR2	3	10	WRENCH	1625	n/a	n/a	0	0	0
2293.114	n/a	WORD	1146557	wordpools/wasnorm_wordpool_576.txt	LTP279	ltpFR2	3	10	BOX	159	n/a	n/a	0	0	0
2295.838	n/a	WORD	1147919	wordpools/wasnorm_wordpool_576.txt	LTP279	ltpFR2	3	10	CANDY	230	n/a	n/a	0	0	0
2298.514	n/a	WORD	1149257	wordpools/wasnorm_wordpool_576.txt	LTP279	ltpFR2	3	10	SUBWAY	1400	n/a	n/a	0	0	0
2300.996	n/a	WORD	1150498	wordpools/wasnorm_wordpool_576.txt	LTP279	ltpFR2	3	10	SNACK	1331	n/a	n/a	0	0	0
2303.656	n/a	WORD	1151828	wordpools/wasnorm_wordpool_576.txt	LTP279	ltpFR2	3	10	COUNTRY	388	n/a	n/a	0	0	0
2306.378	n/a	WORD	1153189	wordpools/wasnorm_wordpool_576.txt	LTP279	ltpFR2	3	10	PIGEON	1065	n/a	n/a	0	0	0
2309.01	n/a	WORD	1154505	wordpools/wasnorm_wordpool_576.txt	LTP279	ltpFR2	3	10	WHISTLE	1606	n/a	n/a	0	0	0
2310.628	n/a	START	1155314	n/a	LTP279	ltpFR2	3	n/a	n/a	n/a	15	n/a	n/a	n/a	n/a
2311.632	n/a	DISTRACTOR	1155816	n/a	LTP279	ltpFR2	3	10	n/a	n/a	n/a	n/a	0	0	0
2311.648	n/a	PROB	1155824	n/a	LTP279	ltpFR2	3	n/a	n/a	n/a	15	14	4	1	9
2313.812	n/a	PROB	1156906	n/a	LTP279	ltpFR2	3	n/a	n/a	n/a	15	14	4	3	7
2315.614	n/a	PROB	1157807	n/a	LTP279	ltpFR2	3	n/a	n/a	n/a	15	15	4	6	5
2317.654	n/a	PROB	1158827	n/a	LTP279	ltpFR2	3	n/a	n/a	n/a	15	19	6	6	7
2320.084	n/a	PROB	1160042	n/a	LTP279	ltpFR2	3	n/a	n/a	n/a	15	11	2	2	7
2323.678	n/a	PROB	1161839	n/a	LTP279	ltpFR2	3	n/a	n/a	n/a	15	13	4	6	3
2325.22	n/a	PROB	1162610	n/a	LTP279	ltpFR2	3	n/a	n/a	n/a	15	21	8	9	5
2327.776	n/a	PROB	1163888	n/a	LTP279	ltpFR2	3	n/a	n/a	n/a	15	13	6	2	5
2330.47	n/a	PROB	1165235	n/a	LTP279	ltpFR2	3	n/a	n/a	n/a	15	10	5	2	3
2332.612	n/a	PROB	1166306	n/a	LTP279	ltpFR2	3	n/a	n/a	n/a	15	12	1	3	8
2334.596	n/a	STOP	1167298	n/a	LTP279	ltpFR2	3	n/a	n/a	n/a	15	n/a	n/a	n/a	n/a
2336.582	n/a	REC_START	1168291	n/a	LTP279	ltpFR2	3	10	n/a	n/a	n/a	n/a	0	0	0
2337.014	n/a	REC_WORD	1168507	wordpools/wasnorm_wordpool_576.txt	LTP279	ltpFR2	3	10	PIGEON	1065	n/a	n/a	0	0	0
2338.04	n/a	REC_WORD	1169020	wordpools/wasnorm_wordpool_576.txt	LTP279	ltpFR2	3	10	WHISTLE	1606	n/a	n/a	0	0	0
2338.872	n/a	REC_WORD	1169436	wordpools/wasnorm_wordpool_576.txt	LTP279	ltpFR2	3	10	SUBWAY	1400	n/a	n/a	0	0	0
2341.874	n/a	REC_WORD	1170937	wordpools/wasnorm_wordpool_576.txt	LTP279	ltpFR2	3	10	BOX	159	n/a	n/a	0	0	0
2342.476	n/a	REC_WORD	1171238	wordpools/wasnorm_wordpool_576.txt	LTP279	ltpFR2	3	10	CANDY	230	n/a	n/a	0	0	0
2343.092	n/a	REC_WORD	1171546	wordpools/wasnorm_wordpool_576.txt	LTP279	ltpFR2	3	10	SNACK	1331	n/a	n/a	0	0	0
2345.062	n/a	REC_WORD	1172531	wordpools/wasnorm_wordpool_576.txt	LTP279	ltpFR2	3	10	COUNTRY	388	n/a	n/a	0	0	0
2354.478	n/a	REC_WORD	1177239	wordpools/wasnorm_wordpool_576.txt	LTP279	ltpFR2	3	10	WHISTLE	1606	n/a	n/a	0	0	0
2370.97	n/a	REC_WORD	1185485	wordpools/wasnorm_wordpool_576.txt	LTP279	ltpFR2	3	10	PRIMATE	1123	n/a	n/a	0	0	0
2371.876	n/a	REC_WORD	1185938	wordpools/wasnorm_wordpool_576.txt	LTP279	ltpFR2	3	10	FLEET	578	n/a	n/a	0	0	0
2373.392	n/a	REC_WORD	1186696	wordpools/wasnorm_wordpool_576.txt	LTP279	ltpFR2	3	10	BARLEY	88	n/a	n/a	0	0	0
2374.4	n/a	REC_WORD	1187200	wordpools/wasnorm_wordpool_576.txt	LTP279	ltpFR2	3	10	SWORD	1423	n/a	n/a	0	0	0
2379.99	n/a	REC_WORD	1189995	wordpools/wasnorm_wordpool_576.txt	LTP279	ltpFR2	3	10	COUSIN	392	n/a	n/a	0	0	0
2380.864	n/a	REC_WORD	1190432	wordpools/wasnorm_wordpool_576.txt	LTP279	ltpFR2	3	10	PARSLEY	1016	n/a	n/a	0	0	0
2384.246	n/a	REC_WORD	1192123	wordpools/wasnorm_wordpool_576.txt	LTP279	ltpFR2	3	10	SWIMMER	1420	n/a	n/a	0	0	0
2387.144	n/a	REC_WORD	1193572	wordpools/wasnorm_wordpool_576.txt	LTP279	ltpFR2	3	10	MILDEW	893	n/a	n/a	0	0	0
2427.696	n/a	WORD	1213848	wordpools/wasnorm_wordpool_576.txt	LTP279	ltpFR2	3	11	WORKER	1621	n/a	n/a	0	0	0
2430.156	n/a	WORD	1215078	wordpools/wasnorm_wordpool_576.txt	LTP279	ltpFR2	3	11	BLOCKADE	137	n/a	n/a	0	0	0
2432.878	n/a	WORD	1216439	wordpools/wasnorm_wordpool_576.txt	LTP279	ltpFR2	3	11	JAPAN	749	n/a	n/a	0	0	0
2435.626	n/a	WORD	1217813	wordpools/wasnorm_wordpool_576.txt	LTP279	ltpFR2	3	11	SAUSAGE	1238	n/a	n/a	0	0	0
2438.186	n/a	WORD	1219093	wordpools/wasnorm_wordpool_576.txt	LTP279	ltpFR2	3	11	PEPPER	1047	n/a	n/a	0	0	0
2440.88	n/a	WORD	1220440	wordpools/wasnorm_wordpool_576.txt	LTP279	ltpFR2	3	11	SALT	1229	n/a	n/a	0	0	0
2443.318	n/a	WORD	1221659	wordpools/wasnorm_wordpool_576.txt	LTP279	ltpFR2	3	11	SCULPTURE	1258	n/a	n/a	0	0	0
2446.1	n/a	WORD	1223050	wordpools/wasnorm_wordpool_576.txt	LTP279	ltpFR2	3	11	SKETCH	1315	n/a	n/a	0	0	0
2448.856	n/a	WORD	1224428	wordpools/wasnorm_wordpool_576.txt	LTP279	ltpFR2	3	11	HATCHET	691	n/a	n/a	0	0	0
2451.52	n/a	WORD	1225760	wordpools/wasnorm_wordpool_576.txt	LTP279	ltpFR2	3	11	CANYON	235	n/a	n/a	0	0	0
2454.096	n/a	WORD	1227048	wordpools/wasnorm_wordpool_576.txt	LTP279	ltpFR2	3	11	ICING	732	n/a	n/a	0	0	0
2456.908	n/a	WORD	1228454	wordpools/wasnorm_wordpool_576.txt	LTP279	ltpFR2	3	11	FREEZER	604	n/a	n/a	0	0	0
2459.346	n/a	WORD	1229673	wordpools/wasnorm_wordpool_576.txt	LTP279	ltpFR2	3	11	DINER	467	n/a	n/a	0	0	0
2462.062	n/a	WORD	1231031	wordpools/wasnorm_wordpool_576.txt	LTP279	ltpFR2	3	11	SPOOL	1356	n/a	n/a	0	0	0
2464.588	n/a	WORD	1232294	wordpools/wasnorm_wordpool_576.txt	LTP279	ltpFR2	3	11	PUPIL	1143	n/a	n/a	0	0	0
2467.364	n/a	WORD	1233682	wordpools/wasnorm_wordpool_576.txt	LTP279	ltpFR2	3	11	GIFT	635	n/a	n/a	0	0	0
2469.942	n/a	WORD	1234971	wordpools/wasnorm_wordpool_576.txt	LTP279	ltpFR2	3	11	PLAID	1080	n/a	n/a	0	0	0
2472.68	n/a	WORD	1236340	wordpools/wasnorm_wordpool_576.txt	LTP279	ltpFR2	3	11	SEAFOOD	1260	n/a	n/a	0	0	0
2475.44	n/a	WORD	1237720	wordpools/wasnorm_wordpool_576.txt	LTP279	ltpFR2	3	11	GARDEN	623	n/a	n/a	0	0	0
2478.222	n/a	WORD	1239111	wordpools/wasnorm_wordpool_576.txt	LTP279	ltpFR2	3	11	HEART	697	n/a	n/a	0	0	0
2481.016	n/a	WORD	1240508	wordpools/wasnorm_wordpool_576.txt	LTP279	ltpFR2	3	11	WRIST	1626	n/a	n/a	0	0	0
2483.796	n/a	WORD	1241898	wordpools/wasnorm_wordpool_576.txt	LTP279	ltpFR2	3	11	ASIA	46	n/a	n/a	0	0	0
2486.504	n/a	WORD	1243252	wordpools/wasnorm_wordpool_576.txt	LTP279	ltpFR2	3	11	CORAL	378	n/a	n/a	0	0	0
2489.164	n/a	WORD	1244582	wordpools/wasnorm_wordpool_576.txt	LTP279	ltpFR2	3	11	FINGER	567	n/a	n/a	0	0	0
2490.772	n/a	START	1245386	n/a	LTP279	ltpFR2	3	n/a	n/a	n/a	16	n/a	n/a	n/a	n/a
2491.924	n/a	DISTRACTOR	1245962	n/a	LTP279	ltpFR2	3	11	n/a	n/a	n/a	n/a	0	0	0
2491.938	n/a	PROB	1245969	n/a	LTP279	ltpFR2	3	n/a	n/a	n/a	16	8	5	1	2
2493.85	n/a	PROB	1246925	n/a	LTP279	ltpFR2	3	n/a	n/a	n/a	16	6	2	2	2
2495.2	n/a	PROB	1247600	n/a	LTP279	ltpFR2	3	n/a	n/a	n/a	16	17	1	8	8
2497.024	n/a	PROB	1248512	n/a	LTP279	ltpFR2	3	n/a	n/a	n/a	16	14	6	5	3
2498.478	n/a	PROB	1249239	n/a	LTP279	ltpFR2	3	n/a	n/a	n/a	16	13	1	9	3
2500.018	n/a	PROB	1250009	n/a	LTP279	ltpFR2	3	n/a	n/a	n/a	16	12	1	7	4
2501.696	n/a	PROB	1250848	n/a	LTP279	ltpFR2	3	n/a	n/a	n/a	16	4	1	2	1
2503.298	n/a	PROB	1251649	n/a	LTP279	ltpFR2	3	n/a	n/a	n/a	16	17	3	7	7
2505.304	n/a	PROB	1252652	n/a	LTP279	ltpFR2	3	n/a	n/a	n/a	16	11	2	7	2
2506.812	n/a	PROB	1253406	n/a	LTP279	ltpFR2	3	n/a	n/a	n/a	16	15	4	2	9
2510.256	n/a	PROB	1255128	n/a	LTP279	ltpFR2	3	n/a	n/a	n/a	16	13	9	1	3
2511.868	n/a	PROB	1255934	n/a	LTP279	ltpFR2	3	n/a	n/a	n/a	16	18	9	1	8
2513.212	n/a	STOP	1256606	n/a	LTP279	ltpFR2	3	n/a	n/a	n/a	16	n/a	n/a	n/a	n/a
2516.732	n/a	REC_START	1258366	n/a	LTP279	ltpFR2	3	11	n/a	n/a	n/a	n/a	0	0	0
2517.504	n/a	REC_WORD	1258752	wordpools/wasnorm_wordpool_576.txt	LTP279	ltpFR2	3	11	CORAL	378	n/a	n/a	0	0	0
2518.798	n/a	REC_WORD	1259399	wordpools/wasnorm_wordpool_576.txt	LTP279	ltpFR2	3	11	FINGER	567	n/a	n/a	0	0	0
2607.768	n/a	DISTRACTOR	1303884	n/a	LTP279	ltpFR2	3	12	n/a	n/a	n/a	n/a	0	0	0
2607.768	n/a	START	1303884	n/a	LTP279	ltpFR2	3	n/a	n/a	n/a	17	n/a	n/a	n/a	n/a
2607.818	n/a	PROB	1303909	n/a	LTP279	ltpFR2	3	n/a	n/a	n/a	17	14	4	7	3
2610.022	n/a	PROB	1305011	n/a	LTP279	ltpFR2	3	n/a	n/a	n/a	17	24	9	7	6
2612.018	n/a	PROB	1306009	n/a	LTP279	ltpFR2	3	n/a	n/a	n/a	17	21	8	6	7
2613.82	n/a	PROB	1306910	n/a	LTP279	ltpFR2	3	n/a	n/a	n/a	17	16	5	9	2
2615.614	n/a	PROB	1307807	n/a	LTP279	ltpFR2	3	n/a	n/a	n/a	17	19	7	3	9
2617.572	n/a	PROB	1308786	n/a	LTP279	ltpFR2	3	n/a	n/a	n/a	17	18	6	5	7
2621.014	n/a	PROB	1310507	n/a	LTP279	ltpFR2	3	n/a	n/a	n/a	17	14	5	8	1
2622.774	n/a	PROB	1311387	n/a	LTP279	ltpFR2	3	n/a	n/a	n/a	17	23	7	9	7
2625.046	n/a	PROB	1312523	n/a	LTP279	ltpFR2	3	n/a	n/a	n/a	17	17	7	2	8
2627.038	n/a	PROB	1313519	n/a	LTP279	ltpFR2	3	n/a	n/a	n/a	17	12	1	6	5
2628.374	n/a	PROB	1314187	n/a	LTP279	ltpFR2	3	n/a	n/a	n/a	17	16	8	5	3
2630.932	n/a	STOP	1315466	n/a	LTP279	ltpFR2	3	n/a	n/a	n/a	17	n/a	n/a	n/a	n/a
2632.844	n/a	WORD	1316422	wordpools/wasnorm_wordpool_576.txt	LTP279	ltpFR2	3	12	LAVA	804	n/a	n/a	0	0	0
2635.59	n/a	WORD	1317795	wordpools/wasnorm_wordpool_576.txt	LTP279	ltpFR2	3	12	FRUIT	610	n/a	n/a	0	0	0
2638.034	n/a	WORD	1319017	wordpools/wasnorm_wordpool_576.txt	LTP279	ltpFR2	3	12	NURSE	963	n/a	n/a	0	0	0
2640.492	n/a	WORD	1320246	wordpools/wasnorm_wordpool_576.txt	LTP279	ltpFR2	3	12	AWARD	63	n/a	n/a	0	0	0
2643.298	n/a	WORD	1321649	wordpools/wasnorm_wordpool_576.txt	LTP279	ltpFR2	3	12	OFFICE	972	n/a	n/a	0	0	0
2645.814	n/a	WORD	1322907	wordpools/wasnorm_wordpool_576.txt	LTP279	ltpFR2	3	12	EXPERT	543	n/a	n/a	0	0	0
2648.338	n/a	WORD	1324169	wordpools/wasnorm_wordpool_576.txt	LTP279	ltpFR2	3	12	SILK	1307	n/a	n/a	0	0	0
2650.834	n/a	WORD	1325417	wordpools/wasnorm_wordpool_576.txt	LTP279	ltpFR2	3	12	CHILD	299	n/a	n/a	0	0	0
2653.422	n/a	WORD	1326711	wordpools/wasnorm_wordpool_576.txt	LTP279	ltpFR2	3	12	CHAMPAGNE	278	n/a	n/a	0	0	0
2656.152	n/a	WORD	1328076	wordpools/wasnorm_wordpool_576.txt	LTP279	ltpFR2	3	12	VELVET	1555	n/a	n/a	0	0	0
2658.796	n/a	WORD	1329398	wordpools/wasnorm_wordpool_576.txt	LTP279	ltpFR2	3	12	BEAVER	109	n/a	n/a	0	0	0
2661.3	n/a	WORD	1330650	wordpools/wasnorm_wordpool_576.txt	LTP279	ltpFR2	3	12	BRANCH	168	n/a	n/a	0	0	0
2663.916	n/a	WORD	1331958	wordpools/wasnorm_wordpool_576.txt	LTP279	ltpFR2	3	12	FUNGUS	614	n/a	n/a	0	0	0
2666.508	n/a	WORD	1333254	wordpools/wasnorm_wordpool_576.txt	LTP279	ltpFR2	3	12	DONOR	485	n/a	n/a	0	0	0
2668.97	n/a	WORD	1334485	wordpools/wasnorm_wordpool_576.txt	LTP279	ltpFR2	3	12	LAGOON	795	n/a	n/a	0	0	0
2671.412	n/a	WORD	1335706	wordpools/wasnorm_wordpool_576.txt	LTP279	ltpFR2	3	12	CLAMP	316	n/a	n/a	0	0	0
2674.238	n/a	WORD	1337119	wordpools/wasnorm_wordpool_576.txt	LTP279	ltpFR2	3	12	GRIZZLY	662	n/a	n/a	0	0	0
2677.034	n/a	WORD	1338517	wordpools/wasnorm_wordpool_576.txt	LTP279	ltpFR2	3	12	BISON	131	n/a	n/a	0	0	0
2679.676	n/a	WORD	1339838	wordpools/wasnorm_wordpool_576.txt	LTP279	ltpFR2	3	12	RADISH	1158	n/a	n/a	0	0	0
2682.286	n/a	WORD	1341143	wordpools/wasnorm_wordpool_576.txt	LTP279	ltpFR2	3	12	MEAT	883	n/a	n/a	0	0	0
2685.03	n/a	WORD	1342515	wordpools/wasnorm_wordpool_576.txt	LTP279	ltpFR2	3	12	BUTCHER	203	n/a	n/a	0	0	0
2687.472	n/a	WORD	1343736	wordpools/wasnorm_wordpool_576.txt	LTP279	ltpFR2	3	12	OUTLAW	989	n/a	n/a	0	0	0
2690.066	n/a	WORD	1345033	wordpools/wasnorm_wordpool_576.txt	LTP279	ltpFR2	3	12	INMATE	738	n/a	n/a	0	0	0
2692.726	n/a	WORD	1346363	wordpools/wasnorm_wordpool_576.txt	LTP279	ltpFR2	3	12	PASTA	1021	n/a	n/a	0	0	0
2694.332	n/a	START	1347166	n/a	LTP279	ltpFR2	3	n/a	n/a	n/a	18	n/a	n/a	n/a	n/a
2695.374	n/a	DISTRACTOR	1347687	n/a	LTP279	ltpFR2	3	12	n/a	n/a	n/a	n/a	0	0	0
2695.386	n/a	PROB	1347693	n/a	LTP279	ltpFR2	3	n/a	n/a	n/a	18	21	7	8	6
2698.698	n/a	PROB	1349349	n/a	LTP279	ltpFR2	3	n/a	n/a	n/a	18	14	4	1	9
2700.182	n/a	PROB	1350091	n/a	LTP279	ltpFR2	3	n/a	n/a	n/a	18	16	2	9	5
2702.676	n/a	PROB	1351338	n/a	LTP279	ltpFR2	3	n/a	n/a	n/a	18	12	6	4	2
2705.406	n/a	PROB	1352703	n/a	LTP279	ltpFR2	3	n/a	n/a	n/a	18	18	4	5	9
2707.948	n/a	PROB	1353974	n/a	LTP279	ltpFR2	3	n/a	n/a	n/a	18	6	1	2	3
2710.706	n/a	PROB	1355353	n/a	LTP279	ltpFR2	3	n/a	n/a	n/a	18	19	4	6	9
2714.17	n/a	PROB	1357085	n/a	LTP279	ltpFR2	3	n/a	n/a	n/a	18	20	8	5	7
2717.544	n/a	STOP	1358772	n/a	LTP279	ltpFR2	3	n/a	n/a	n/a	18	n/a	n/a	n/a	n/a
2720.142	n/a	REC_START	1360071	n/a	LTP279	ltpFR2	3	12	n/a	n/a	n/a	n/a	0	0	0
2720.908	n/a	REC_WORD	1360454	wordpools/wasnorm_wordpool_576.txt	LTP279	ltpFR2	3	12	OUTLAW	989	n/a	n/a	0	0	0
2721.544	n/a	REC_WORD	1360772	wordpools/wasnorm_wordpool_576.txt	LTP279	ltpFR2	3	12	INMATE	738	n/a	n/a	0	0	0
2722.566	n/a	REC_WORD	1361283	wordpools/wasnorm_wordpool_576.txt	LTP279	ltpFR2	3	12	LAGOON	795	n/a	n/a	0	0	0
2735.448	n/a	REC_WORD	1367724	wordpools/wasnorm_wordpool_576.txt	LTP279	ltpFR2	3	12	LAVA	804	n/a	n/a	0	0	0
2736.532	n/a	REC_WORD	1368266	wordpools/wasnorm_wordpool_576.txt	LTP279	ltpFR2	3	12	NURSE	963	n/a	n/a	0	0	0
2737.956	n/a	REC_WORD	1368978	wordpools/wasnorm_wordpool_576.txt	LTP279	ltpFR2	3	12	AWARD	63	n/a	n/a	0	0	0
2811.278	n/a	WORD	1405639	wordpools/wasnorm_wordpool_576.txt	LTP279	ltpFR2	3	13	POSTAGE	1113	n/a	n/a	0	0	0
2814.052	n/a	WORD	1407026	wordpools/wasnorm_wordpool_576.txt	LTP279	ltpFR2	3	13	COUCH	386	n/a	n/a	0	0	0
2816.85	n/a	WORD	1408425	wordpools/wasnorm_wordpool_576.txt	LTP279	ltpFR2	3	13	BANKER	84	n/a	n/a	0	0	0
2819.31	n/a	WORD	1409655	wordpools/wasnorm_wordpool_576.txt	LTP279	ltpFR2	3	13	PACKAGE	997	n/a	n/a	0	0	0
2821.904	n/a	WORD	1410952	wordpools/wasnorm_wordpool_576.txt	LTP279	ltpFR2	3	13	SCISSORS	1250	n/a	n/a	0	0	0
2824.692	n/a	WORD	1412346	wordpools/wasnorm_wordpool_576.txt	LTP279	ltpFR2	3	13	STUDENT	1395	n/a	n/a	0	0	0
2827.306	n/a	WORD	1413653	wordpools/wasnorm_wordpool_576.txt	LTP279	ltpFR2	3	13	TROMBONE	1508	n/a	n/a	0	0	0
2829.834	n/a	WORD	1414917	wordpools/wasnorm_wordpool_576.txt	LTP279	ltpFR2	3	13	APPLE	33	n/a	n/a	0	0	0
2832.61	n/a	WORD	1416305	wordpools/wasnorm_wordpool_576.txt	LTP279	ltpFR2	3	13	FOREHEAD	592	n/a	n/a	0	0	0
2835.152	n/a	WORD	1417576	wordpools/wasnorm_wordpool_576.txt	LTP279	ltpFR2	3	13	RIFLE	1192	n/a	n/a	0	0	0
2837.916	n/a	WORD	1418958	wordpools/wasnorm_wordpool_576.txt	LTP279	ltpFR2	3	13	STAPLE	1371	n/a	n/a	0	0	0
2840.708	n/a	WORD	1420354	wordpools/wasnorm_wordpool_576.txt	LTP279	ltpFR2	3	13	GLOBE	641	n/a	n/a	0	0	0
2843.448	n/a	WORD	1421724	wordpools/wasnorm_wordpool_576.txt	LTP279	ltpFR2	3	13	LIVER	833	n/a	n/a	0	0	0
2846.062	n/a	WORD	1423031	wordpools/wasnorm_wordpool_576.txt	LTP279	ltpFR2	3	13	BEEF	113	n/a	n/a	0	0	0
2848.788	n/a	WORD	1424394	wordpools/wasnorm_wordpool_576.txt	LTP279	ltpFR2	3	13	EYELASH	546	n/a	n/a	0	0	0
2851.326	n/a	WORD	1425663	wordpools/wasnorm_wordpool_576.txt	LTP279	ltpFR2	3	13	EUROPE	541	n/a	n/a	0	0	0
2853.774	n/a	WORD	1426887	wordpools/wasnorm_wordpool_576.txt	LTP279	ltpFR2	3	13	DRIVER	499	n/a	n/a	0	0	0
2856.448	n/a	WORD	1428224	wordpools/wasnorm_wordpool_576.txt	LTP279	ltpFR2	3	13	PATROL	1027	n/a	n/a	0	0	0
2859.008	n/a	WORD	1429504	wordpools/wasnorm_wordpool_576.txt	LTP279	ltpFR2	3	13	RECEIPT	1173	n/a	n/a	0	0	0
2861.604	n/a	WORD	1430802	wordpools/wasnorm_wordpool_576.txt	LTP279	ltpFR2	3	13	DANCER	437	n/a	n/a	0	0	0
2864.314	n/a	WORD	1432157	wordpools/wasnorm_wordpool_576.txt	LTP279	ltpFR2	3	13	BOUQUET	157	n/a	n/a	0	0	0
2867.026	n/a	WORD	1433513	wordpools/wasnorm_wordpool_576.txt	LTP279	ltpFR2	3	13	PADDLE	1000	n/a	n/a	0	0	0
2869.568	n/a	WORD	1434784	wordpools/wasnorm_wordpool_576.txt	LTP279	ltpFR2	3	13	VIKING	1565	n/a	n/a	0	0	0
2872.244	n/a	WORD	1436122	wordpools/wasnorm_wordpool_576.txt	LTP279	ltpFR2	3	13	WORLD	1622	n/a	n/a	0	0	0
2873.852	n/a	START	1436926	n/a	LTP279	ltpFR2	3	n/a	n/a	n/a	19	n/a	n/a	n/a	n/a
2874.886	n/a	DISTRACTOR	1437443	n/a	LTP279	ltpFR2	3	13	n/a	n/a	n/a	n/a	0	0	0
2874.902	n/a	PROB	1437451	n/a	LTP279	ltpFR2	3	n/a	n/a	n/a	19	13	6	2	5
2877.946	n/a	PROB	1438973	n/a	LTP279	ltpFR2	3	n/a	n/a	n/a	19	16	8	7	1
2880.154	n/a	PROB	1440077	n/a	LTP279	ltpFR2	3	n/a	n/a	n/a	19	13	6	1	6
2881.598	n/a	PROB	1440799	n/a	LTP279	ltpFR2	3	n/a	n/a	n/a	19	18	4	8	6
2884.086	n/a	PROB	1442043	n/a	LTP279	ltpFR2	3	n/a	n/a	n/a	19	16	8	5	3
2887.082	n/a	PROB	1443541	n/a	LTP279	ltpFR2	3	n/a	n/a	n/a	19	20	8	9	3
2889.226	n/a	PROB	1444613	n/a	LTP279	ltpFR2	3	n/a	n/a	n/a	19	8	2	2	4
2891.064	n/a	PROB	1445532	n/a	LTP279	ltpFR2	3	n/a	n/a	n/a	19	15	3	4	8
2892.954	n/a	PROB	1446477	n/a	LTP279	ltpFR2	3	n/a	n/a	n/a	19	23	8	6	9
2895.096	n/a	PROB	1447548	n/a	LTP279	ltpFR2	3	n/a	n/a	n/a	19	18	2	9	7
2897.354	n/a	STOP	1448677	n/a	LTP279	ltpFR2	3	n/a	n/a	n/a	19	n/a	n/a	n/a	n/a
2899.73	n/a	REC_START	1449865	n/a	LTP279	ltpFR2	3	13	n/a	n/a	n/a	n/a	0	0	0
2900.03	n/a	REC_WORD	1450015	wordpools/wasnorm_wordpool_576.txt	LTP279	ltpFR2	3	13	PADDLE	1000	n/a	n/a	0	0	0
2900.54	n/a	REC_WORD	1450270	wordpools/wasnorm_wordpool_576.txt	LTP279	ltpFR2	3	13	VIKING	1565	n/a	n/a	0	0	0
2901.266	n/a	REC_WORD	1450633	wordpools/wasnorm_wordpool_576.txt	LTP279	ltpFR2	3	13	WORLD	1622	n/a	n/a	0	0	0
2901.894	n/a	REC_WORD	1450947	wordpools/wasnorm_wordpool_576.txt	LTP279	ltpFR2	3	13	POSTAGE	1113	n/a	n/a	0	0	0
2902.958	n/a	REC_WORD	1451479	wordpools/wasnorm_wordpool_576.txt	LTP279	ltpFR2	3	13	COUCH	386	n/a	n/a	0	0	0
2904.712	n/a	REC_WORD	1452356	wordpools/wasnorm_wordpool_576.txt	LTP279	ltpFR2	3	13	BANKER	84	n/a	n/a	0	0	0
2905.924	n/a	REC_WORD	1452962	wordpools/wasnorm_wordpool_576.txt	LTP279	ltpFR2	3	13	PACKAGE	997	n/a	n/a	0	0	0
2906.894	n/a	REC_WORD	1453447	wordpools/wasnorm_wordpool_576.txt	LTP279	ltpFR2	3	13	SCISSORS	1250	n/a	n/a	0	0	0
2908.008	n/a	REC_WORD	1454004	wordpools/wasnorm_wordpool_576.txt	LTP279	ltpFR2	3	13	STUDENT	1395	n/a	n/a	0	0	0
2910.458	n/a	REC_WORD	1455229	wordpools/wasnorm_wordpool_576.txt	LTP279	ltpFR2	3	13	TROMBONE	1508	n/a	n/a	0	0	0
2911.556	n/a	REC_WORD	1455778	wordpools/wasnorm_wordpool_576.txt	LTP279	ltpFR2	3	13	APPLE	33	n/a	n/a	0	0	0
2912.292	n/a	REC_WORD	1456146	wordpools/wasnorm_wordpool_576.txt	LTP279	ltpFR2	3	13	FOREHEAD	592	n/a	n/a	0	0	0
2913.412	n/a	REC_WORD	1456706	wordpools/wasnorm_wordpool_576.txt	LTP279	ltpFR2	3	13	RIFLE	1192	n/a	n/a	0	0	0
2916.122	n/a	REC_WORD	1458061	wordpools/wasnorm_wordpool_576.txt	LTP279	ltpFR2	3	13	STAPLE	1371	n/a	n/a	0	0	0
2917.09	n/a	REC_WORD	1458545	wordpools/wasnorm_wordpool_576.txt	LTP279	ltpFR2	3	13	GLOBE	641	n/a	n/a	0	0	0
2921.032	n/a	REC_WORD	1460516	wordpools/wasnorm_wordpool_576.txt	LTP279	ltpFR2	3	13	LIVER	833	n/a	n/a	0	0	0
2921.862	n/a	REC_WORD	1460931	wordpools/wasnorm_wordpool_576.txt	LTP279	ltpFR2	3	13	BEEF	113	n/a	n/a	0	0	0
2923.406	n/a	REC_WORD	1461703	wordpools/wasnorm_wordpool_576.txt	LTP279	ltpFR2	3	13	EYELASH	546	n/a	n/a	0	0	0
2924.23	n/a	REC_WORD	1462115	wordpools/wasnorm_wordpool_576.txt	LTP279	ltpFR2	3	13	EUROPE	541	n/a	n/a	0	0	0
2930.878	n/a	REC_WORD	1465439	wordpools/wasnorm_wordpool_576.txt	LTP279	ltpFR2	3	13	DANCER	437	n/a	n/a	0	0	0
2931.538	n/a	REC_WORD	1465769	wordpools/wasnorm_wordpool_576.txt	LTP279	ltpFR2	3	13	BOUQUET	157	n/a	n/a	0	0	0
2932.35	n/a	REC_WORD	1466175	wordpools/wasnorm_wordpool_576.txt	LTP279	ltpFR2	3	13	PADDLE	1000	n/a	n/a	0	0	0
2933.044	n/a	REC_WORD	1466522	wordpools/wasnorm_wordpool_576.txt	LTP279	ltpFR2	3	13	VIKING	1565	n/a	n/a	0	0	0
2933.852	n/a	REC_WORD	1466926	wordpools/wasnorm_wordpool_576.txt	LTP279	ltpFR2	3	13	WORLD	1622	n/a	n/a	0	0	0
2990.778	n/a	DISTRACTOR	1495389	n/a	LTP279	ltpFR2	3	14	n/a	n/a	n/a	n/a	0	0	0
2990.778	n/a	START	1495389	n/a	LTP279	ltpFR2	3	n/a	n/a	n/a	20	n/a	n/a	n/a	n/a
2990.832	n/a	PROB	1495416	n/a	LTP279	ltpFR2	3	n/a	n/a	n/a	20	16	2	9	5
2993.124	n/a	PROB	1496562	n/a	LTP279	ltpFR2	3	n/a	n/a	n/a	20	6	3	2	1
2994.524	n/a	PROB	1497262	n/a	LTP279	ltpFR2	3	n/a	n/a	n/a	20	5	1	3	1
2995.914	n/a	PROB	1497957	n/a	LTP279	ltpFR2	3	n/a	n/a	n/a	20	13	1	7	5
2997.336	n/a	PROB	1498668	n/a	LTP279	ltpFR2	3	n/a	n/a	n/a	20	15	7	1	7
2998.656	n/a	PROB	1499328	n/a	LTP279	ltpFR2	3	n/a	n/a	n/a	20	9	1	1	7
3000.046	n/a	PROB	1500023	n/a	LTP279	ltpFR2	3	n/a	n/a	n/a	20	17	7	6	4
3002.204	n/a	PROB	1501102	n/a	LTP279	ltpFR2	3	n/a	n/a	n/a	20	23	8	8	7
3004.212	n/a	PROB	1502106	n/a	LTP279	ltpFR2	3	n/a	n/a	n/a	20	26	9	9	7
3006.22	n/a	PROB	1503110	n/a	LTP279	ltpFR2	3	n/a	n/a	n/a	20	17	6	2	9
3008.628	n/a	PROB	1504314	n/a	LTP279	ltpFR2	3	n/a	n/a	n/a	20	21	9	5	8
3010.62	n/a	PROB	1505310	n/a	LTP279	ltpFR2	3	n/a	n/a	n/a	20	19	6	7	6
3013.212	n/a	PROB	1506606	n/a	LTP279	ltpFR2	3	n/a	n/a	n/a	20	11	1	3	7
3014.456	n/a	STOP	1507228	n/a	LTP279	ltpFR2	3	n/a	n/a	n/a	20	n/a	n/a	n/a	n/a
3015.71	n/a	WORD	1507855	wordpools/wasnorm_wordpool_576.txt	LTP279	ltpFR2	3	14	PAPER	1011	n/a	n/a	0	0	0
3018.32	n/a	WORD	1509160	wordpools/wasnorm_wordpool_576.txt	LTP279	ltpFR2	3	14	CHAUFFEUR	283	n/a	n/a	0	0	0
3021.114	n/a	WORD	1510557	wordpools/wasnorm_wordpool_576.txt	LTP279	ltpFR2	3	14	MARS	873	n/a	n/a	0	0	0
3023.786	n/a	WORD	1511893	wordpools/wasnorm_wordpool_576.txt	LTP279	ltpFR2	3	14	SHOULDER	1294	n/a	n/a	0	0	0
3026.586	n/a	WORD	1513293	wordpools/wasnorm_wordpool_576.txt	LTP279	ltpFR2	3	14	ELBOW	520	n/a	n/a	0	0	0
3029.308	n/a	WORD	1514654	wordpools/wasnorm_wordpool_576.txt	LTP279	ltpFR2	3	14	CRUTCH	417	n/a	n/a	0	0	0
3032.07	n/a	WORD	1516035	wordpools/wasnorm_wordpool_576.txt	LTP279	ltpFR2	3	14	ANKLE	24	n/a	n/a	0	0	0
3034.678	n/a	WORD	1517339	wordpools/wasnorm_wordpool_576.txt	LTP279	ltpFR2	3	14	SPOUSE	1358	n/a	n/a	0	0	0
3037.326	n/a	WORD	1518663	wordpools/wasnorm_wordpool_576.txt	LTP279	ltpFR2	3	14	OUTDOORS	987	n/a	n/a	0	0	0
3039.986	n/a	WORD	1519993	wordpools/wasnorm_wordpool_576.txt	LTP279	ltpFR2	3	14	SHIRT	1287	n/a	n/a	0	0	0
3042.462	n/a	WORD	1521231	wordpools/wasnorm_wordpool_576.txt	LTP279	ltpFR2	3	14	SALAD	1224	n/a	n/a	0	0	0
3045.252	n/a	WORD	1522626	wordpools/wasnorm_wordpool_576.txt	LTP279	ltpFR2	3	14	TWEEZERS	1526	n/a	n/a	0	0	0
3048.048	n/a	WORD	1524024	wordpools/wasnorm_wordpool_576.txt	LTP279	ltpFR2	3	14	CHURCH	307	n/a	n/a	0	0	0
3050.572	n/a	WORD	1525286	wordpools/wasnorm_wordpool_576.txt	LTP279	ltpFR2	3	14	THREAD	1460	n/a	n/a	0	0	0
3053.236	n/a	WORD	1526618	wordpools/wasnorm_wordpool_576.txt	LTP279	ltpFR2	3	14	COUNTY	389	n/a	n/a	0	0	0
3055.746	n/a	WORD	1527873	wordpools/wasnorm_wordpool_576.txt	LTP279	ltpFR2	3	14	BADGE	68	n/a	n/a	0	0	0
3058.506	n/a	WORD	1529253	wordpools/wasnorm_wordpool_576.txt	LTP279	ltpFR2	3	14	KETCHUP	771	n/a	n/a	0	0	0
3061.146	n/a	WORD	1530573	wordpools/wasnorm_wordpool_576.txt	LTP279	ltpFR2	3	14	WIFE	1609	n/a	n/a	0	0	0
3063.858	n/a	WORD	1531929	wordpools/wasnorm_wordpool_576.txt	LTP279	ltpFR2	3	14	BODY	145	n/a	n/a	0	0	0
3066.554	n/a	WORD	1533277	wordpools/wasnorm_wordpool_576.txt	LTP279	ltpFR2	3	14	HIGHWAY	707	n/a	n/a	0	0	0
3069.094	n/a	WORD	1534547	wordpools/wasnorm_wordpool_576.txt	LTP279	ltpFR2	3	14	SIDEWALK	1303	n/a	n/a	0	0	0
3071.686	n/a	WORD	1535843	wordpools/wasnorm_wordpool_576.txt	LTP279	ltpFR2	3	14	MUSTARD	935	n/a	n/a	0	0	0
3074.434	n/a	WORD	1537217	wordpools/wasnorm_wordpool_576.txt	LTP279	ltpFR2	3	14	SCALLOP	1242	n/a	n/a	0	0	0
3077.194	n/a	WORD	1538597	wordpools/wasnorm_wordpool_576.txt	LTP279	ltpFR2	3	14	JEANS	752	n/a	n/a	0	0	0
3078.802	n/a	START	1539401	n/a	LTP279	ltpFR2	3	n/a	n/a	n/a	21	n/a	n/a	n/a	n/a
3079.958	n/a	DISTRACTOR	1539979	n/a	LTP279	ltpFR2	3	14	n/a	n/a	n/a	n/a	0	0	0
3079.972	n/a	PROB	1539986	n/a	LTP279	ltpFR2	3	n/a	n/a	n/a	21	21	8	9	4
3083.436	n/a	PROB	1541718	n/a	LTP279	ltpFR2	3	n/a	n/a	n/a	21	12	3	2	7
3085.556	n/a	PROB	1542778	n/a	LTP279	ltpFR2	3	n/a	n/a	n/a	21	6	2	1	3
3087.05	n/a	PROB	1543525	n/a	LTP279	ltpFR2	3	n/a	n/a	n/a	21	16	5	6	6
3088.684	n/a	PROB	1544342	n/a	LTP279	ltpFR2	3	n/a	n/a	n/a	21	15	2	7	6
3092.286	n/a	PROB	1546143	n/a	LTP279	ltpFR2	3	n/a	n/a	n/a	21	11	2	6	3
3093.926	n/a	PROB	1546963	n/a	LTP279	ltpFR2	3	n/a	n/a	n/a	21	12	3	1	8
3095.962	n/a	PROB	1547981	n/a	LTP279	ltpFR2	3	n/a	n/a	n/a	21	14	6	2	5
3097.886	n/a	PROB	1548943	n/a	LTP279	ltpFR2	3	n/a	n/a	n/a	21	17	5	8	4
3100.464	n/a	PROB	1550232	n/a	LTP279	ltpFR2	3	n/a	n/a	n/a	21	20	6	5	9
3102.732	n/a	STOP	1551366	n/a	LTP279	ltpFR2	3	n/a	n/a	n/a	21	n/a	n/a	n/a	n/a
3104.73	n/a	REC_START	1552365	n/a	LTP279	ltpFR2	3	14	n/a	n/a	n/a	n/a	0	0	0
3104.926	n/a	REC_WORD	1552463	wordpools/wasnorm_wordpool_576.txt	LTP279	ltpFR2	3	14	SCALLOP	1242	n/a	n/a	0	0	0
3106.154	n/a	REC_WORD	1553077	wordpools/wasnorm_wordpool_576.txt	LTP279	ltpFR2	3	14	JEANS	752	n/a	n/a	0	0	0
3107.75	n/a	REC_WORD	1553875	wordpools/wasnorm_wordpool_576.txt	LTP279	ltpFR2	3	14	PAPER	1011	n/a	n/a	0	0	0
3109.852	n/a	REC_WORD	1554926	wordpools/wasnorm_wordpool_576.txt	LTP279	ltpFR2	3	14	CHAUFFEUR	283	n/a	n/a	0	0	0
3111.454	n/a	REC_WORD	1555727	wordpools/wasnorm_wordpool_576.txt	LTP279	ltpFR2	3	14	MARS	873	n/a	n/a	0	0	0
3117.642	n/a	REC_WORD	1558821	wordpools/wasnorm_wordpool_576.txt	LTP279	ltpFR2	3	14	SHOULDER	1294	n/a	n/a	0	0	0
3118.476	n/a	REC_WORD	1559238	wordpools/wasnorm_wordpool_576.txt	LTP279	ltpFR2	3	14	ELBOW	520	n/a	n/a	0	0	0
3126.986	n/a	REC_WORD	1563493	wordpools/wasnorm_wordpool_576.txt	LTP279	ltpFR2	3	14	WIFE	1609	n/a	n/a	0	0	0
3129.218	n/a	REC_WORD	1564609	wordpools/wasnorm_wordpool_576.txt	LTP279	ltpFR2	3	14	KETCHUP	771	n/a	n/a	0	0	0
3130.508	n/a	REC_WORD	1565254	wordpools/wasnorm_wordpool_576.txt	LTP279	ltpFR2	3	14	BADGE	68	n/a	n/a	0	0	0
3153.62	n/a	REC_WORD	1576810	wordpools/wasnorm_wordpool_576.txt	LTP279	ltpFR2	3	14	CRUTCH	417	n/a	n/a	0	0	0
3154.916	n/a	REC_WORD	1577458	wordpools/wasnorm_wordpool_576.txt	LTP279	ltpFR2	3	14	ANKLE	24	n/a	n/a	0	0	0
3162.374	n/a	REC_WORD	1581187	wordpools/wasnorm_wordpool_576.txt	LTP279	ltpFR2	3	14	SPOUSE	1358	n/a	n/a	0	0	0
3195.816	n/a	WORD	1597908	wordpools/wasnorm_wordpool_576.txt	LTP279	ltpFR2	3	15	SURVEY	1414	n/a	n/a	0	0	0
3198.408	n/a	WORD	1599204	wordpools/wasnorm_wordpool_576.txt	LTP279	ltpFR2	3	15	CHEMIST	292	n/a	n/a	0	0	0
3201.052	n/a	WORD	1600526	wordpools/wasnorm_wordpool_576.txt	LTP279	ltpFR2	3	15	CURTAIN	427	n/a	n/a	0	0	0
3203.83	n/a	WORD	1601915	wordpools/wasnorm_wordpool_576.txt	LTP279	ltpFR2	3	15	DRAWING	494	n/a	n/a	0	0	0
3206.338	n/a	WORD	1603169	wordpools/wasnorm_wordpool_576.txt	LTP279	ltpFR2	3	15	PIGMENT	1066	n/a	n/a	0	0	0
3209.132	n/a	WORD	1604566	wordpools/wasnorm_wordpool_576.txt	LTP279	ltpFR2	3	15	INFANT	737	n/a	n/a	0	0	0
3211.89	n/a	WORD	1605945	wordpools/wasnorm_wordpool_576.txt	LTP279	ltpFR2	3	15	SPONGE	1355	n/a	n/a	0	0	0
3214.42	n/a	WORD	1607210	wordpools/wasnorm_wordpool_576.txt	LTP279	ltpFR2	3	15	LEADER	807	n/a	n/a	0	0	0
3217.098	n/a	WORD	1608549	wordpools/wasnorm_wordpool_576.txt	LTP279	ltpFR2	3	15	ICEBERG	731	n/a	n/a	0	0	0
3219.556	n/a	WORD	1609778	wordpools/wasnorm_wordpool_576.txt	LTP279	ltpFR2	3	15	SCARF	1246	n/a	n/a	0	0	0
3222.028	n/a	WORD	1611014	wordpools/wasnorm_wordpool_576.txt	LTP279	ltpFR2	3	15	SUMMIT	1405	n/a	n/a	0	0	0
3224.558	n/a	WORD	1612279	wordpools/wasnorm_wordpool_576.txt	LTP279	ltpFR2	3	15	LEOPARD	812	n/a	n/a	0	0	0
3227.036	n/a	WORD	1613518	wordpools/wasnorm_wordpool_576.txt	LTP279	ltpFR2	3	15	PLAYGROUND	1087	n/a	n/a	0	0	0
3229.864	n/a	WORD	1614932	wordpools/wasnorm_wordpool_576.txt	LTP279	ltpFR2	3	15	PERFUME	1049	n/a	n/a	0	0	0
3232.634	n/a	WORD	1616317	wordpools/wasnorm_wordpool_576.txt	LTP279	ltpFR2	3	15	FRAGRANCE	599	n/a	n/a	0	0	0
3235.266	n/a	WORD	1617633	wordpools/wasnorm_wordpool_576.txt	LTP279	ltpFR2	3	15	CIGAR	308	n/a	n/a	0	0	0
3237.86	n/a	WORD	1618930	wordpools/wasnorm_wordpool_576.txt	LTP279	ltpFR2	3	15	SUITCASE	1403	n/a	n/a	0	0	0
3240.636	n/a	WORD	1620318	wordpools/wasnorm_wordpool_576.txt	LTP279	ltpFR2	3	15	BRICK	172	n/a	n/a	0	0	0
3243.33	n/a	WORD	1621665	wordpools/wasnorm_wordpool_576.txt	LTP279	ltpFR2	3	15	APRON	35	n/a	n/a	0	0	0
3246.008	n/a	WORD	1623004	wordpools/wasnorm_wordpool_576.txt	LTP279	ltpFR2	3	15	RELISH	1183	n/a	n/a	0	0	0
3248.82	n/a	WORD	1624410	wordpools/wasnorm_wordpool_576.txt	LTP279	ltpFR2	3	15	OMELET	976	n/a	n/a	0	0	0
3251.596	n/a	WORD	1625798	wordpools/wasnorm_wordpool_576.txt	LTP279	ltpFR2	3	15	PEBBLE	1035	n/a	n/a	0	0	0
3254.25	n/a	WORD	1627125	wordpools/wasnorm_wordpool_576.txt	LTP279	ltpFR2	3	15	CAMEL	223	n/a	n/a	0	0	0
3256.764	n/a	WORD	1628382	wordpools/wasnorm_wordpool_576.txt	LTP279	ltpFR2	3	15	HIKER	708	n/a	n/a	0	0	0
3258.372	n/a	START	1629186	n/a	LTP279	ltpFR2	3	n/a	n/a	n/a	22	n/a	n/a	n/a	n/a
3259.32	n/a	DISTRACTOR	1629660	n/a	LTP279	ltpFR2	3	15	n/a	n/a	n/a	n/a	0	0	0
3259.336	n/a	PROB	1629668	n/a	LTP279	ltpFR2	3	n/a	n/a	n/a	22	19	8	6	5
3261.728	n/a	PROB	1630864	n/a	LTP279	ltpFR2	3	n/a	n/a	n/a	22	18	9	3	6
3263.838	n/a	PROB	1631919	n/a	LTP279	ltpFR2	3	n/a	n/a	n/a	22	15	6	8	3
3266.13	n/a	PROB	1633065	n/a	LTP279	ltpFR2	3	n/a	n/a	n/a	22	20	8	4	8
3269.644	n/a	PROB	1634822	n/a	LTP279	ltpFR2	3	n/a	n/a	n/a	22	6	3	1	2
3271.952	n/a	PROB	1635976	n/a	LTP279	ltpFR2	3	n/a	n/a	n/a	22	18	4	5	9
3276.152	n/a	PROB	1638076	n/a	LTP279	ltpFR2	3	n/a	n/a	n/a	22	24	8	7	9
3278.828	n/a	PROB	1639414	n/a	LTP279	ltpFR2	3	n/a	n/a	n/a	22	20	7	9	4
3281.134	n/a	STOP	1640567	n/a	LTP279	ltpFR2	3	n/a	n/a	n/a	22	n/a	n/a	n/a	n/a
3284.3	n/a	REC_START	1642150	n/a	LTP279	ltpFR2	3	15	n/a	n/a	n/a	n/a	0	0	0
3284.594	n/a	REC_WORD	1642297	wordpools/wasnorm_wordpool_576.txt	LTP279	ltpFR2	3	15	CAMEL	223	n/a	n/a	0	0	0
3285.252	n/a	REC_WORD	1642626	wordpools/wasnorm_wordpool_576.txt	LTP279	ltpFR2	3	15	HIKER	708	n/a	n/a	0	0	0
3286.34	n/a	REC_WORD	1643170	wordpools/wasnorm_wordpool_576.txt	LTP279	ltpFR2	3	15	PEBBLE	1035	n/a	n/a	0	0	0
3341.202	n/a	REC_WORD	1670601	wordpools/wasnorm_wordpool_576.txt	LTP279	ltpFR2	3	15	CURTAIN	427	n/a	n/a	0	0	0
3342.164	n/a	REC_WORD	1671082	wordpools/wasnorm_wordpool_576.txt	LTP279	ltpFR2	3	15	WINDOW	1611	n/a	n/a	0	0	0
3343.192	n/a	REC_WORD	1671596	wordpools/wasnorm_wordpool_576.txt	LTP279	ltpFR2	3	15	PIGMENT	1066	n/a	n/a	0	0	0
3344.598	n/a	REC_WORD	1672299	wordpools/wasnorm_wordpool_576.txt	LTP279	ltpFR2	3	15	CHEMIST	292	n/a	n/a	0	0	0
3345.52	n/a	REC_WORD	1672760	wordpools/wasnorm_wordpool_576.txt	LTP279	ltpFR2	3	15	DRAWING	494	n/a	n/a	0	0	0
3348.468	n/a	REC_WORD	1674234	wordpools/wasnorm_wordpool_576.txt	LTP279	ltpFR2	3	15	INFANT	737	n/a	n/a	0	0	0
3351.822	n/a	REC_WORD	1675911	wordpools/wasnorm_wordpool_576.txt	LTP279	ltpFR2	3	15	SPONGE	1355	n/a	n/a	0	0	0
3375.384	n/a	WORD	1687692	wordpools/wasnorm_wordpool_576.txt	LTP279	ltpFR2	3	16	FRIAR	605	n/a	n/a	0	0	0
3378.194	n/a	WORD	1689097	wordpools/wasnorm_wordpool_576.txt	LTP279	ltpFR2	3	16	GUITAR	670	n/a	n/a	0	0	0
3380.79	n/a	WORD	1690395	wordpools/wasnorm_wordpool_576.txt	LTP279	ltpFR2	3	16	PISTOL	1075	n/a	n/a	0	0	0
3383.266	n/a	WORD	1691633	wordpools/wasnorm_wordpool_576.txt	LTP279	ltpFR2	3	16	FRAME	600	n/a	n/a	0	0	0
3385.91	n/a	WORD	1692955	wordpools/wasnorm_wordpool_576.txt	LTP279	ltpFR2	3	16	HELMET	702	n/a	n/a	0	0	0
3388.72	n/a	WORD	1694360	wordpools/wasnorm_wordpool_576.txt	LTP279	ltpFR2	3	16	PEDAL	1037	n/a	n/a	0	0	0
3391.174	n/a	WORD	1695587	wordpools/wasnorm_wordpool_576.txt	LTP279	ltpFR2	3	16	GANGSTER	620	n/a	n/a	0	0	0
3393.704	n/a	WORD	1696852	wordpools/wasnorm_wordpool_576.txt	LTP279	ltpFR2	3	16	BUBBLE	183	n/a	n/a	0	0	0
3396.264	n/a	WORD	1698132	wordpools/wasnorm_wordpool_576.txt	LTP279	ltpFR2	3	16	BANJO	82	n/a	n/a	0	0	0
3398.838	n/a	WORD	1699419	wordpools/wasnorm_wordpool_576.txt	LTP279	ltpFR2	3	16	SCARECROW	1245	n/a	n/a	0	0	0
3401.602	n/a	WORD	1700801	wordpools/wasnorm_wordpool_576.txt	LTP279	ltpFR2	3	16	TRACTOR	1493	n/a	n/a	0	0	0
3404.346	n/a	WORD	1702173	wordpools/wasnorm_wordpool_576.txt	LTP279	ltpFR2	3	16	ARM	38	n/a	n/a	0	0	0
3406.84	n/a	WORD	1703420	wordpools/wasnorm_wordpool_576.txt	LTP279	ltpFR2	3	16	BANK	83	n/a	n/a	0	0	0
3409.376	n/a	WORD	1704688	wordpools/wasnorm_wordpool_576.txt	LTP279	ltpFR2	3	16	LODGE	839	n/a	n/a	0	0	0
3411.842	n/a	WORD	1705921	wordpools/wasnorm_wordpool_576.txt	LTP279	ltpFR2	3	16	CRICKET	408	n/a	n/a	0	0	0
3414.614	n/a	WORD	1707307	wordpools/wasnorm_wordpool_576.txt	LTP279	ltpFR2	3	16	JUNGLE	764	n/a	n/a	0	0	0
3417.34	n/a	WORD	1708670	wordpools/wasnorm_wordpool_576.txt	LTP279	ltpFR2	3	16	HANDBAG	684	n/a	n/a	0	0	0
3419.84	n/a	WORD	1709920	wordpools/wasnorm_wordpool_576.txt	LTP279	ltpFR2	3	16	GHETTO	633	n/a	n/a	0	0	0
3422.426	n/a	WORD	1711213	wordpools/wasnorm_wordpool_576.txt	LTP279	ltpFR2	3	16	MOTEL	919	n/a	n/a	0	0	0
3424.876	n/a	WORD	1712438	wordpools/wasnorm_wordpool_576.txt	LTP279	ltpFR2	3	16	MATCH	878	n/a	n/a	0	0	0
3427.468	n/a	WORD	1713734	wordpools/wasnorm_wordpool_576.txt	LTP279	ltpFR2	3	16	RAFT	1159	n/a	n/a	0	0	0
3430.178	n/a	WORD	1715089	wordpools/wasnorm_wordpool_576.txt	LTP279	ltpFR2	3	16	LAKE	796	n/a	n/a	0	0	0
3432.736	n/a	WORD	1716368	wordpools/wasnorm_wordpool_576.txt	LTP279	ltpFR2	3	16	SMOG	1330	n/a	n/a	0	0	0
3435.198	n/a	WORD	1717599	wordpools/wasnorm_wordpool_576.txt	LTP279	ltpFR2	3	16	FLASHLIGHT	575	n/a	n/a	0	0	0
3436.816	n/a	START	1718408	n/a	LTP279	ltpFR2	3	n/a	n/a	n/a	23	n/a	n/a	n/a	n/a
3437.756	n/a	DISTRACTOR	1718878	n/a	LTP279	ltpFR2	3	16	n/a	n/a	n/a	n/a	0	0	0
3437.774	n/a	PROB	1718887	n/a	LTP279	ltpFR2	3	n/a	n/a	n/a	23	7	2	4	1
3440.278	n/a	PROB	1720139	n/a	LTP279	ltpFR2	3	n/a	n/a	n/a	23	17	8	4	5
3442.336	n/a	PROB	1721168	n/a	LTP279	ltpFR2	3	n/a	n/a	n/a	23	28	4	6	6
3444.264	n/a	PROB	1722132	n/a	LTP279	ltpFR2	3	n/a	n/a	n/a	23	17	9	4	4
3447.946	n/a	PROB	1723973	n/a	LTP279	ltpFR2	3	n/a	n/a	n/a	23	9	4	4	1
3449.938	n/a	PROB	1724969	n/a	LTP279	ltpFR2	3	n/a	n/a	n/a	23	13	7	1	5
3452.994	n/a	PROB	1726497	n/a	LTP279	ltpFR2	3	n/a	n/a	n/a	23	16	3	4	9
3455.22	n/a	PROB	1727610	n/a	LTP279	ltpFR2	3	n/a	n/a	n/a	23	17	4	5	8
3458.386	n/a	PROB	1729193	n/a	LTP279	ltpFR2	3	n/a	n/a	n/a	23	11	1	7	3
3459.944	n/a	STOP	1729972	n/a	LTP279	ltpFR2	3	n/a	n/a	n/a	23	n/a	n/a	n/a	n/a
3462.67	n/a	REC_START	1731335	n/a	LTP279	ltpFR2	3	16	n/a	n/a	n/a	n/a	0	0	0
3462.962	n/a	REC_WORD	1731481	wordpools/wasnorm_wordpool_576.txt	LTP279	ltpFR2	3	16	RAFT	1159	n/a	n/a	0	0	0
3463.592	n/a	REC_WORD	1731796	wordpools/wasnorm_wordpool_576.txt	LTP279	ltpFR2	3	16	LAKE	796	n/a	n/a	0	0	0
3464.264	n/a	REC_WORD	1732132	wordpools/wasnorm_wordpool_576.txt	LTP279	ltpFR2	3	16	SMOG	1330	n/a	n/a	0	0	0
3470.772	n/a	REC_WORD	1735386	wordpools/wasnorm_wordpool_576.txt	LTP279	ltpFR2	3	16	FRIAR	605	n/a	n/a	0	0	0
3471.796	n/a	REC_WORD	1735898	wordpools/wasnorm_wordpool_576.txt	LTP279	ltpFR2	3	16	GUITAR	670	n/a	n/a	0	0	0
3476.292	n/a	REC_WORD	1738146	wordpools/wasnorm_wordpool_576.txt	LTP279	ltpFR2	3	16	PISTOL	1075	n/a	n/a	0	0	0
3477.722	n/a	REC_WORD	1738861	wordpools/wasnorm_wordpool_576.txt	LTP279	ltpFR2	3	16	PORTRAIT	1111	n/a	n/a	0	0	0
3484.728	n/a	REC_WORD	1742364	wordpools/wasnorm_wordpool_576.txt	LTP279	ltpFR2	3	16	BUBBLE	183	n/a	n/a	0	0	0
3486.222	n/a	REC_WORD	1743111	wordpools/wasnorm_wordpool_576.txt	LTP279	ltpFR2	3	16	GANGSTER	620	n/a	n/a	0	0	0
3487.602	n/a	REC_WORD	1743801	wordpools/wasnorm_wordpool_576.txt	LTP279	ltpFR2	3	16	ARM	38	n/a	n/a	0	0	0
3488.564	n/a	REC_WORD	1744282	wordpools/wasnorm_wordpool_576.txt	LTP279	ltpFR2	3	16	BANK	83	n/a	n/a	0	0	0
3490.03	n/a	REC_WORD	1745015	wordpools/wasnorm_wordpool_576.txt	LTP279	ltpFR2	3	16	TRACTOR	1493	n/a	n/a	0	0	0
3492.412	n/a	REC_WORD	1746206	wordpools/wasnorm_wordpool_576.txt	LTP279	ltpFR2	3	16	SCARECROW	1245	n/a	n/a	0	0	0
3511.37	n/a	REC_WORD	1755685	wordpools/wasnorm_wordpool_576.txt	LTP279	ltpFR2	3	16	CRICKET	408	n/a	n/a	0	0	0
3513.086	n/a	REC_WORD	1756543	wordpools/wasnorm_wordpool_576.txt	LTP279	ltpFR2	3	16	JUNGLE	764	n/a	n/a	0	0	0
3513.672	n/a	REC_WORD	1756836	wordpools/wasnorm_wordpool_576.txt	LTP279	ltpFR2	3	16	HANDBAG	684	n/a	n/a	0	0	0
3515.314	n/a	REC_WORD	1757657	wordpools/wasnorm_wordpool_576.txt	LTP279	ltpFR2	3	16	GHETTO	633	n/a	n/a	0	0	0
3516.766	n/a	REC_WORD	1758383	wordpools/wasnorm_wordpool_576.txt	LTP279	ltpFR2	3	16	MOTEL	919	n/a	n/a	0	0	0
3539.528	n/a	REST_REWET	1769764	n/a	LTP279	ltpFR2	3	16	n/a	n/a	n/a	n/a	0	0	0
3764.522	n/a	DISTRACTOR	1882261	n/a	LTP279	ltpFR2	3	17	n/a	n/a	n/a	n/a	0	0	0
3764.522	n/a	START	1882261	n/a	LTP279	ltpFR2	3	n/a	n/a	n/a	24	n/a	n/a	n/a	n/a
3764.572	n/a	PROB	1882286	n/a	LTP279	ltpFR2	3	n/a	n/a	n/a	24	16	5	4	7
3766.48	n/a	PROB	1883240	n/a	LTP279	ltpFR2	3	n/a	n/a	n/a	24	14	4	8	2
3767.92	n/a	PROB	1883960	n/a	LTP279	ltpFR2	3	n/a	n/a	n/a	24	16	9	5	2
3769.792	n/a	PROB	1884896	n/a	LTP279	ltpFR2	3	n/a	n/a	n/a	24	18	6	7	5
3771.716	n/a	PROB	1885858	n/a	LTP279	ltpFR2	3	n/a	n/a	n/a	24	8	2	1	5
3773.352	n/a	PROB	1886676	n/a	LTP279	ltpFR2	3	n/a	n/a	n/a	24	8	1	4	3
3774.612	n/a	PROB	1887306	n/a	LTP279	ltpFR2	3	n/a	n/a	n/a	24	14	5	3	6
3776.764	n/a	PROB	1888382	n/a	LTP279	ltpFR2	3	n/a	n/a	n/a	24	12	6	4	2
3778.254	n/a	PROB	1889127	n/a	LTP279	ltpFR2	3	n/a	n/a	n/a	24	19	8	5	6
3780.55	n/a	PROB	1890275	n/a	LTP279	ltpFR2	3	n/a	n/a	n/a	24	17	4	4	9
3783.406	n/a	PROB	1891703	n/a	LTP279	ltpFR2	3	n/a	n/a	n/a	24	19	1	9	9
3785.08	n/a	PROB	1892540	n/a	LTP279	ltpFR2	3	n/a	n/a	n/a	24	10	5	1	4
3786.888	n/a	PROB	1893444	n/a	LTP279	ltpFR2	3	n/a	n/a	n/a	24	15	1	9	5
3788.344	n/a	STOP	1894172	n/a	LTP279	ltpFR2	3	n/a	n/a	n/a	24	n/a	n/a	n/a	n/a
3789.614	n/a	WORD	1894807	wordpools/wasnorm_wordpool_576.txt	LTP279	ltpFR2	3	17	RAZOR	1171	n/a	n/a	0	0	0
3792.346	n/a	WORD	1896173	wordpools/wasnorm_wordpool_576.txt	LTP279	ltpFR2	3	17	DUST	508	n/a	n/a	0	0	0
3794.804	n/a	WORD	1897402	wordpools/wasnorm_wordpool_576.txt	LTP279	ltpFR2	3	17	BABY	64	n/a	n/a	0	0	0
3797.298	n/a	WORD	1898649	wordpools/wasnorm_wordpool_576.txt	LTP279	ltpFR2	3	17	ROBIN	1199	n/a	n/a	0	0	0
3799.818	n/a	WORD	1899909	wordpools/wasnorm_wordpool_576.txt	LTP279	ltpFR2	3	17	SPIDER	1351	n/a	n/a	0	0	0
3802.4	n/a	WORD	1901200	wordpools/wasnorm_wordpool_576.txt	LTP279	ltpFR2	3	17	BRACES	164	n/a	n/a	0	0	0
3805.14	n/a	WORD	1902570	wordpools/wasnorm_wordpool_576.txt	LTP279	ltpFR2	3	17	FLAG	573	n/a	n/a	0	0	0
3807.872	n/a	WORD	1903936	wordpools/wasnorm_wordpool_576.txt	LTP279	ltpFR2	3	17	REBEL	1172	n/a	n/a	0	0	0
3810.694	n/a	WORD	1905347	wordpools/wasnorm_wordpool_576.txt	LTP279	ltpFR2	3	17	BUNNY	198	n/a	n/a	0	0	0
3813.404	n/a	WORD	1906702	wordpools/wasnorm_wordpool_576.txt	LTP279	ltpFR2	3	17	TORTOISE	1486	n/a	n/a	0	0	0
3816.186	n/a	WORD	1908093	wordpools/wasnorm_wordpool_576.txt	LTP279	ltpFR2	3	17	RIVER	1194	n/a	n/a	0	0	0
3818.926	n/a	WORD	1909463	wordpools/wasnorm_wordpool_576.txt	LTP279	ltpFR2	3	17	ARMY	39	n/a	n/a	0	0	0
3821.69	n/a	WORD	1910845	wordpools/wasnorm_wordpool_576.txt	LTP279	ltpFR2	3	17	COLONEL	348	n/a	n/a	0	0	0
3824.13	n/a	WORD	1912065	wordpools/wasnorm_wordpool_576.txt	LTP279	ltpFR2	3	17	GYMNAST	675	n/a	n/a	0	0	0
3826.692	n/a	WORD	1913346	wordpools/wasnorm_wordpool_576.txt	LTP279	ltpFR2	3	17	TEACHER	1440	n/a	n/a	0	0	0
3829.154	n/a	WORD	1914577	wordpools/wasnorm_wordpool_576.txt	LTP279	ltpFR2	3	17	WASP	1593	n/a	n/a	0	0	0
3831.628	n/a	WORD	1915814	wordpools/wasnorm_wordpool_576.txt	LTP279	ltpFR2	3	17	YACHT	1629	n/a	n/a	0	0	0
3834.156	n/a	WORD	1917078	wordpools/wasnorm_wordpool_576.txt	LTP279	ltpFR2	3	17	PLUTO	1092	n/a	n/a	0	0	0
3836.85	n/a	WORD	1918425	wordpools/wasnorm_wordpool_576.txt	LTP279	ltpFR2	3	17	REPORT	1184	n/a	n/a	0	0	0
3839.626	n/a	WORD	1919813	wordpools/wasnorm_wordpool_576.txt	LTP279	ltpFR2	3	17	COFFEE	341	n/a	n/a	0	0	0
3842.202	n/a	WORD	1921101	wordpools/wasnorm_wordpool_576.txt	LTP279	ltpFR2	3	17	CATTLE	261	n/a	n/a	0	0	0
3844.74	n/a	WORD	1922370	wordpools/wasnorm_wordpool_576.txt	LTP279	ltpFR2	3	17	CRIB	407	n/a	n/a	0	0	0
3847.54	n/a	WORD	1923770	wordpools/wasnorm_wordpool_576.txt	LTP279	ltpFR2	3	17	BUG	187	n/a	n/a	0	0	0
3850.362	n/a	WORD	1925181	wordpools/wasnorm_wordpool_576.txt	LTP279	ltpFR2	3	17	MILK	895	n/a	n/a	0	0	0
3851.974	n/a	START	1925987	n/a	LTP279	ltpFR2	3	n/a	n/a	n/a	25	n/a	n/a	n/a	n/a
3852.82	n/a	DISTRACTOR	1926410	n/a	LTP279	ltpFR2	3	17	n/a	n/a	n/a	n/a	0	0	0
3852.838	n/a	PROB	1926419	n/a	LTP279	ltpFR2	3	n/a	n/a	n/a	25	10	1	4	5
3855.314	n/a	PROB	1927657	n/a	LTP279	ltpFR2	3	n/a	n/a	n/a	25	16	8	3	5
3857.122	n/a	PROB	1928561	n/a	LTP279	ltpFR2	3	n/a	n/a	n/a	25	16	9	5	2
3859.23	n/a	PROB	1929615	n/a	LTP279	ltpFR2	3	n/a	n/a	n/a	25	12	7	1	4
3861.488	n/a	PROB	1930744	n/a	LTP279	ltpFR2	3	n/a	n/a	n/a	25	16	5	9	2
3863.162	n/a	PROB	1931581	n/a	LTP279	ltpFR2	3	n/a	n/a	n/a	25	12	4	6	2
3864.7	n/a	PROB	1932350	n/a	LTP279	ltpFR2	3	n/a	n/a	n/a	25	11	3	2	6
3866.512	n/a	PROB	1933256	n/a	LTP279	ltpFR2	3	n/a	n/a	n/a	25	12	3	3	6
3868.264	n/a	PROB	1934132	n/a	LTP279	ltpFR2	3	n/a	n/a	n/a	25	13	1	4	8
3870.172	n/a	PROB	1935086	n/a	LTP279	ltpFR2	3	n/a	n/a	n/a	25	16	9	4	3
3872.18	n/a	PROB	1936090	n/a	LTP279	ltpFR2	3	n/a	n/a	n/a	25	14	3	2	9
3873.904	n/a	PROB	1936952	n/a	LTP279	ltpFR2	3	n/a	n/a	n/a	25	17	8	1	8
3875.358	n/a	STOP	1937679	n/a	LTP279	ltpFR2	3	n/a	n/a	n/a	25	n/a	n/a	n/a	n/a
3877.87	n/a	REC_START	1938935	n/a	LTP279	ltpFR2	3	17	n/a	n/a	n/a	n/a	0	0	0
3878.598	n/a	REC_WORD	1939299	wordpools/wasnorm_wordpool_576.txt	LTP279	ltpFR2	3	17	BUG	187	n/a	n/a	0	0	0
3879.306	n/a	REC_WORD	1939653	wordpools/wasnorm_wordpool_576.txt	LTP279	ltpFR2	3	17	MILK	895	n/a	n/a	0	0	0
3880.538	n/a	REC_WORD	1940269	wordpools/wasnorm_wordpool_576.txt	LTP279	ltpFR2	3	17	CRIB	407	n/a	n/a	0	0	0
3884.13	n/a	REC_WORD	1942065	wordpools/wasnorm_wordpool_576.txt	LTP279	ltpFR2	3	17	WASP	1593	n/a	n/a	0	0	0
3885.096	n/a	REC_WORD	1942548	wordpools/wasnorm_wordpool_576.txt	LTP279	ltpFR2	3	17	YACHT	1629	n/a	n/a	0	0	0
3892.842	n/a	REC_WORD	1946421	wordpools/wasnorm_wordpool_576.txt	LTP279	ltpFR2	3	17	PLUTO	1092	n/a	n/a	0	0	0
3909.15	n/a	REC_WORD	1954575	wordpools/wasnorm_wordpool_576.txt	LTP279	ltpFR2	3	17	RAZOR	1171	n/a	n/a	0	0	0
3910.472	n/a	REC_WORD	1955236	wordpools/wasnorm_wordpool_576.txt	LTP279	ltpFR2	3	17	BABY	64	n/a	n/a	0	0	0
3911.87	n/a	REC_WORD	1955935	wordpools/wasnorm_wordpool_576.txt	LTP279	ltpFR2	3	17	DUST	508	n/a	n/a	0	0	0
3913.788	n/a	REC_WORD	1956894	wordpools/wasnorm_wordpool_576.txt	LTP279	ltpFR2	3	17	BRACES	164	n/a	n/a	0	0	0
3915.168	n/a	REC_WORD	1957584	wordpools/wasnorm_wordpool_576.txt	LTP279	ltpFR2	3	17	SPIDER	1351	n/a	n/a	0	0	0
3916.604	n/a	REC_WORD	1958302	wordpools/wasnorm_wordpool_576.txt	LTP279	ltpFR2	3	17	FLAG	573	n/a	n/a	0	0	0
3918.178	n/a	REC_WORD	1959089	wordpools/wasnorm_wordpool_576.txt	LTP279	ltpFR2	3	17	ROBIN	1199	n/a	n/a	0	0	0
3919.46	n/a	REC_WORD	1959730	wordpools/wasnorm_wordpool_576.txt	LTP279	ltpFR2	3	17	RIVER	1194	n/a	n/a	0	0	0
3924.46	n/a	REC_WORD	1962230	wordpools/wasnorm_wordpool_576.txt	LTP279	ltpFR2	3	17	TORTOISE	1486	n/a	n/a	0	0	0
3925.702	n/a	REC_WORD	1962851	wordpools/wasnorm_wordpool_576.txt	LTP279	ltpFR2	3	17	BUNNY	198	n/a	n/a	0	0	0
3926.432	n/a	REC_WORD	1963216	wordpools/wasnorm_wordpool_576.txt	LTP279	ltpFR2	3	17	REBEL	1172	n/a	n/a	0	0	0
3928.22	n/a	REC_WORD	1964110	wordpools/wasnorm_wordpool_576.txt	LTP279	ltpFR2	3	17	COLONEL	348	n/a	n/a	0	0	0
3934.342	n/a	REC_WORD	1967171	wordpools/wasnorm_wordpool_576.txt	LTP279	ltpFR2	3	17	ARMY	39	n/a	n/a	0	0	0
3968.938	n/a	DISTRACTOR	1984469	n/a	LTP279	ltpFR2	3	18	n/a	n/a	n/a	n/a	0	0	0
3968.938	n/a	START	1984469	n/a	LTP279	ltpFR2	3	n/a	n/a	n/a	26	n/a	n/a	n/a	n/a
3968.988	n/a	PROB	1984494	n/a	LTP279	ltpFR2	3	n/a	n/a	n/a	26	18	9	6	3
3970.858	n/a	PROB	1985429	n/a	LTP279	ltpFR2	3	n/a	n/a	n/a	26	16	6	2	8
3972.596	n/a	PROB	1986298	n/a	LTP279	ltpFR2	3	n/a	n/a	n/a	26	14	5	6	3
3975.608	n/a	PROB	1987804	n/a	LTP279	ltpFR2	3	n/a	n/a	n/a	26	7	2	1	4
3978.17	n/a	PROB	1989085	n/a	LTP279	ltpFR2	3	n/a	n/a	n/a	26	11	2	8	1
3980.11	n/a	PROB	1990055	n/a	LTP279	ltpFR2	3	n/a	n/a	n/a	26	17	3	9	5
3981.832	n/a	PROB	1990916	n/a	LTP279	ltpFR2	3	n/a	n/a	n/a	26	22	9	9	4
3983.576	n/a	PROB	1991788	n/a	LTP279	ltpFR2	3	n/a	n/a	n/a	26	14	7	4	3
3986.55	n/a	PROB	1993275	n/a	LTP279	ltpFR2	3	n/a	n/a	n/a	26	17	4	9	4
3988.708	n/a	PROB	1994354	n/a	LTP279	ltpFR2	3	n/a	n/a	n/a	26	14	5	7	2
3990.536	n/a	PROB	1995268	n/a	LTP279	ltpFR2	3	n/a	n/a	n/a	26	13	6	6	1
3992.372	n/a	STOP	1996186	n/a	LTP279	ltpFR2	3	n/a	n/a	n/a	26	n/a	n/a	n/a	n/a
3993.866	n/a	WORD	1996933	wordpools/wasnorm_wordpool_576.txt	LTP279	ltpFR2	3	18	SLIME	1327	n/a	n/a	0	0	0
3996.51	n/a	WORD	1998255	wordpools/wasnorm_wordpool_576.txt	LTP279	ltpFR2	3	18	COCKTAIL	338	n/a	n/a	0	0	0
3999.12	n/a	WORD	1999560	wordpools/wasnorm_wordpool_576.txt	LTP279	ltpFR2	3	18	MARSH	874	n/a	n/a	0	0	0
4001.808	n/a	WORD	2000904	wordpools/wasnorm_wordpool_576.txt	LTP279	ltpFR2	3	18	PUDDLE	1140	n/a	n/a	0	0	0
4004.434	n/a	WORD	2002217	wordpools/wasnorm_wordpool_576.txt	LTP279	ltpFR2	3	18	POLICE	1098	n/a	n/a	0	0	0
4007.234	n/a	WORD	2003617	wordpools/wasnorm_wordpool_576.txt	LTP279	ltpFR2	3	18	OZONE	996	n/a	n/a	0	0	0
4009.708	n/a	WORD	2004854	wordpools/wasnorm_wordpool_576.txt	LTP279	ltpFR2	3	18	PATIENT	1024	n/a	n/a	0	0	0
4012.42	n/a	WORD	2006210	wordpools/wasnorm_wordpool_576.txt	LTP279	ltpFR2	3	18	HONEY	713	n/a	n/a	0	0	0
