mstime	trial_type	stim_file	subject	experiment	session	trial	task	item_name	item_num	recog_conf	resp	color_b	color_g	color_r	case	font
0	SESS_START	n/a	LTP233	ltpFR	18	n/a	n/a	n/a	n/a	1	n/a	n/a	n/a	n/a	n/a	n/a
22781	WORD	wordpools/wasnorm_wordpool_less_exclusions.txt	LTP233	ltpFR	18	1	0	LENS	811	n/a	0	1	0.412841796875	0.57763671875	lower	../fonts/amplitud.ttf
26745	WORD	wordpools/wasnorm_wordpool_less_exclusions.txt	LTP233	ltpFR	18	1	0	PENNY	1045	n/a	0	1	0.412841796875	0.57763671875	lower	../fonts/amplitud.ttf
30861	WORD	wordpools/wasnorm_wordpool_less_exclusions.txt	LTP233	ltpFR	18	1	0	SHELF	1280	n/a	1	1	0.412841796875	0.57763671875	lower	../fonts/amplitud.ttf
35061	WORD	wordpools/wasnorm_wordpool_less_exclusions.txt	LTP233	ltpFR	18	1	0	JOURNAL	760	n/a	1	1	0.412841796875	0.57763671875	lower	../fonts/amplitud.ttf
38926	WORD	wordpools/wasnorm_wordpool_less_exclusions.txt	LTP233	ltpFR	18	1	1	LUNCH	849	n/a	0	0	0.5869140625	0.422607421875	upper	../fonts/zerothre.ttf
43108	WORD	wordpools/wasnorm_wordpool_less_exclusions.txt	LTP233	ltpFR	18	1	1	WALNUT	1584	n/a	0	0	0.5869140625	0.422607421875	upper	../fonts/zerothre.ttf
47257	WORD	wordpools/wasnorm_wordpool_less_exclusions.txt	LTP233	ltpFR	18	1	1	CONDUCTOR	362	n/a	1	0	0.5869140625	0.422607421875	upper	../fonts/zerothre.ttf
51255	WORD	wordpools/wasnorm_wordpool_less_exclusions.txt	LTP233	ltpFR	18	1	1	WHEAT	1602	n/a	0	0	0.5869140625	0.422607421875	upper	../fonts/zerothre.ttf
55103	WORD	wordpools/wasnorm_wordpool_less_exclusions.txt	LTP233	ltpFR	18	1	1	CHICKEN	297	n/a	0	0	0.5869140625	0.422607421875	upper	../fonts/zerothre.ttf
59202	WORD	wordpools/wasnorm_wordpool_less_exclusions.txt	LTP233	ltpFR	18	1	1	DINNER	468	n/a	0	0	0.5869140625	0.422607421875	upper	../fonts/zerothre.ttf
63334	WORD	wordpools/wasnorm_wordpool_less_exclusions.txt	LTP233	ltpFR	18	1	0	TRUMPET	1513	n/a	0	1	0.412841796875	0.57763671875	lower	../fonts/amplitud.ttf
67499	WORD	wordpools/wasnorm_wordpool_less_exclusions.txt	LTP233	ltpFR	18	1	0	BANKER	84	n/a	1	1	0.412841796875	0.57763671875	lower	../fonts/amplitud.ttf
71615	WORD	wordpools/wasnorm_wordpool_less_exclusions.txt	LTP233	ltpFR	18	1	1	PENCIL	1042	n/a	0	0	0.5869140625	0.422607421875	upper	../fonts/zerothre.ttf
75663	WORD	wordpools/wasnorm_wordpool_less_exclusions.txt	LTP233	ltpFR	18	1	1	CANNON	232	n/a	0	0	0.5869140625	0.422607421875	upper	../fonts/zerothre.ttf
79846	WORD	wordpools/wasnorm_wordpool_less_exclusions.txt	LTP233	ltpFR	18	1	0	COLONEL	348	n/a	0	1	0.412841796875	0.57763671875	lower	../fonts/amplitud.ttf
83979	WORD	wordpools/wasnorm_wordpool_less_exclusions.txt	LTP233	ltpFR	18	1	0	GENERAL	630	n/a	1	1	0.412841796875	0.57763671875	lower	../fonts/amplitud.ttf
89750	REC_START	n/a	LTP233	ltpFR	18	1	n/a	n/a	n/a	n/a	n/a	n/a	n/a	n/a	n/a	n/a
90877	REC_WORD	wordpools/wasnorm_wordpool_less_exclusions.txt	LTP233	ltpFR	18	1	0	COLONEL	348	n/a	0	n/a	n/a	n/a	n/a	n/a
92094	REC_WORD	wordpools/wasnorm_wordpool_less_exclusions.txt	LTP233	ltpFR	18	1	0	GENERAL	630	n/a	1	n/a	n/a	n/a	n/a	n/a
96065	REC_WORD	wordpools/wasnorm_wordpool_less_exclusions.txt	LTP233	ltpFR	18	1	0	BANKER	84	n/a	1	n/a	n/a	n/a	n/a	n/a
100326	REC_WORD	wordpools/wasnorm_wordpool_less_exclusions.txt	LTP233	ltpFR	18	1	1	DINNER	468	n/a	0	n/a	n/a	n/a	n/a	n/a
101323	REC_WORD	wordpools/wasnorm_wordpool_less_exclusions.txt	LTP233	ltpFR	18	1	1	CHICKEN	297	n/a	0	n/a	n/a	n/a	n/a	n/a
102391	REC_WORD	wordpools/wasnorm_wordpool_less_exclusions.txt	LTP233	ltpFR	18	1	1	WHEAT	1602	n/a	0	n/a	n/a	n/a	n/a	n/a
104297	REC_WORD	wordpools/wasnorm_wordpool_less_exclusions.txt	LTP233	ltpFR	18	1	1	LUNCH	849	n/a	0	n/a	n/a	n/a	n/a	n/a
105883	REC_WORD	wordpools/wasnorm_wordpool_less_exclusions.txt	LTP233	ltpFR	18	1	0	SHELF	1280	n/a	1	n/a	n/a	n/a	n/a	n/a
107255	REC_WORD	wordpools/wasnorm_wordpool_less_exclusions.txt	LTP233	ltpFR	18	1	0	LENS	811	n/a	0	n/a	n/a	n/a	n/a	n/a
119607	REC_WORD	wordpools/wasnorm_wordpool_less_exclusions.txt	LTP233	ltpFR	18	1	1	PENCIL	1042	n/a	0	n/a	n/a	n/a	n/a	n/a
120415	REC_WORD	wordpools/wasnorm_wordpool_less_exclusions.txt	LTP233	ltpFR	18	1	1	CANNON	232	n/a	0	n/a	n/a	n/a	n/a	n/a
129295	REC_WORD	wordpools/wasnorm_wordpool_less_exclusions.txt	LTP233	ltpFR	18	1	0	TRUMPET	1513	n/a	0	n/a	n/a	n/a	n/a	n/a
142779	REC_WORD	wordpools/wasnorm_wordpool_less_exclusions.txt	LTP233	ltpFR	18	1	1	WALNUT	1584	n/a	0	n/a	n/a	n/a	n/a	n/a
176874	WORD	wordpools/wasnorm_wordpool_less_exclusions.txt	LTP233	ltpFR	18	2	1	CLAW	319	n/a	0	0	0.5869140625	0.422607421875	upper	../fonts/zerothre.ttf
180709	WORD	wordpools/wasnorm_wordpool_less_exclusions.txt	LTP233	ltpFR	18	2	1	RACK	1154	n/a	0	0	0.5869140625	0.422607421875	upper	../fonts/zerothre.ttf
184641	WORD	wordpools/wasnorm_wordpool_less_exclusions.txt	LTP233	ltpFR	18	2	1	CLERK	321	n/a	1	0	0.5869140625	0.422607421875	upper	../fonts/zerothre.ttf
188622	WORD	wordpools/wasnorm_wordpool_less_exclusions.txt	LTP233	ltpFR	18	2	1	TECHNICIAN	1443	n/a	1	0	0.5869140625	0.422607421875	upper	../fonts/zerothre.ttf
192520	WORD	wordpools/wasnorm_wordpool_less_exclusions.txt	LTP233	ltpFR	18	2	1	DAUGHTER	442	n/a	1	0	0.5869140625	0.422607421875	upper	../fonts/zerothre.ttf
196386	WORD	wordpools/wasnorm_wordpool_less_exclusions.txt	LTP233	ltpFR	18	2	1	CORN	381	n/a	0	0	0.5869140625	0.422607421875	upper	../fonts/zerothre.ttf
200484	WORD	wordpools/wasnorm_wordpool_less_exclusions.txt	LTP233	ltpFR	18	2	0	WALRUS	1585	n/a	1	1	0.412841796875	0.57763671875	lower	../fonts/amplitud.ttf
204316	WORD	wordpools/wasnorm_wordpool_less_exclusions.txt	LTP233	ltpFR	18	2	0	BUGGY	188	n/a	1	1	0.412841796875	0.57763671875	lower	../fonts/amplitud.ttf
208493	WORD	wordpools/wasnorm_wordpool_less_exclusions.txt	LTP233	ltpFR	18	2	1	FATHER	554	n/a	1	0	0.5869140625	0.422607421875	upper	../fonts/zerothre.ttf
212680	WORD	wordpools/wasnorm_wordpool_less_exclusions.txt	LTP233	ltpFR	18	2	1	BEEF	113	n/a	0	0	0.5869140625	0.422607421875	upper	../fonts/zerothre.ttf
216875	WORD	wordpools/wasnorm_wordpool_less_exclusions.txt	LTP233	ltpFR	18	2	0	DICE	461	n/a	2	1	0.412841796875	0.57763671875	lower	../fonts/amplitud.ttf
218585	KEY_MSG	n/a	LTP233	ltpFR	18	2	n/a	n/a	n/a	n/a	n/a	n/a	n/a	n/a	n/a	n/a
221045	WORD	wordpools/wasnorm_wordpool_less_exclusions.txt	LTP233	ltpFR	18	2	0	STABLE	1363	n/a	1	1	0.412841796875	0.57763671875	lower	../fonts/amplitud.ttf
225194	WORD	wordpools/wasnorm_wordpool_less_exclusions.txt	LTP233	ltpFR	18	2	0	FLOOR	581	n/a	1	1	0.412841796875	0.57763671875	lower	../fonts/amplitud.ttf
229109	WORD	wordpools/wasnorm_wordpool_less_exclusions.txt	LTP233	ltpFR	18	2	0	MOP	916	n/a	1	1	0.412841796875	0.57763671875	lower	../fonts/amplitud.ttf
233124	WORD	wordpools/wasnorm_wordpool_less_exclusions.txt	LTP233	ltpFR	18	2	0	PUPPY	1144	n/a	1	1	0.412841796875	0.57763671875	lower	../fonts/amplitud.ttf
237240	WORD	wordpools/wasnorm_wordpool_less_exclusions.txt	LTP233	ltpFR	18	2	0	COYOTE	396	n/a	1	1	0.412841796875	0.57763671875	lower	../fonts/amplitud.ttf
243079	REC_START	n/a	LTP233	ltpFR	18	2	n/a	n/a	n/a	n/a	n/a	n/a	n/a	n/a	n/a	n/a
244081	REC_WORD	wordpools/wasnorm_wordpool_less_exclusions.txt	LTP233	ltpFR	18	2	0	DICE	461	n/a	2	n/a	n/a	n/a	n/a	n/a
244700	REC_WORD	wordpools/wasnorm_wordpool_less_exclusions.txt	LTP233	ltpFR	18	2	0	STABLE	1363	n/a	1	n/a	n/a	n/a	n/a	n/a
245847	REC_WORD	wordpools/wasnorm_wordpool_less_exclusions.txt	LTP233	ltpFR	18	2	0	FLOOR	581	n/a	1	n/a	n/a	n/a	n/a	n/a
246955	REC_WORD	wordpools/wasnorm_wordpool_less_exclusions.txt	LTP233	ltpFR	18	2	0	PUPPY	1144	n/a	1	n/a	n/a	n/a	n/a	n/a
247783	REC_WORD	wordpools/wasnorm_wordpool_less_exclusions.txt	LTP233	ltpFR	18	2	0	COYOTE	396	n/a	1	n/a	n/a	n/a	n/a	n/a
250103	REC_WORD	wordpools/wasnorm_wordpool_less_exclusions.txt	LTP233	ltpFR	18	2	0	PENNY	1045	n/a	0	n/a	n/a	n/a	n/a	n/a
260733	REC_WORD	wordpools/wasnorm_wordpool_less_exclusions.txt	LTP233	ltpFR	18	2	1	CLERK	321	n/a	1	n/a	n/a	n/a	n/a	n/a
261437	REC_WORD	wordpools/wasnorm_wordpool_less_exclusions.txt	LTP233	ltpFR	18	2	n/a	CLINICIAN	-1	n/a	n/a	n/a	n/a	n/a	n/a	n/a
262589	REC_WORD	wordpools/wasnorm_wordpool_less_exclusions.txt	LTP233	ltpFR	18	2	1	RACK	1154	n/a	0	n/a	n/a	n/a	n/a	n/a
266131	REC_WORD	wordpools/wasnorm_wordpool_less_exclusions.txt	LTP233	ltpFR	18	2	1	CLAW	319	n/a	0	n/a	n/a	n/a	n/a	n/a
268770	REC_WORD	wordpools/wasnorm_wordpool_less_exclusions.txt	LTP233	ltpFR	18	2	n/a	MOTHER	921	n/a	n/a	n/a	n/a	n/a	n/a	n/a
269479	REC_WORD	wordpools/wasnorm_wordpool_less_exclusions.txt	LTP233	ltpFR	18	2	1	FATHER	554	n/a	1	n/a	n/a	n/a	n/a	n/a
270516	REC_WORD	wordpools/wasnorm_wordpool_less_exclusions.txt	LTP233	ltpFR	18	2	1	BEEF	113	n/a	0	n/a	n/a	n/a	n/a	n/a
271888	REC_WORD	wordpools/wasnorm_wordpool_less_exclusions.txt	LTP233	ltpFR	18	2	0	WALRUS	1585	n/a	1	n/a	n/a	n/a	n/a	n/a
273994	REC_WORD	wordpools/wasnorm_wordpool_less_exclusions.txt	LTP233	ltpFR	18	2	0	BUGGY	188	n/a	1	n/a	n/a	n/a	n/a	n/a
274926	REC_WORD	wordpools/wasnorm_wordpool_less_exclusions.txt	LTP233	ltpFR	18	2	1	CORN	381	n/a	0	n/a	n/a	n/a	n/a	n/a
321307	WORD	wordpools/wasnorm_wordpool_less_exclusions.txt	LTP233	ltpFR	18	3	1	LONDON	843	n/a	0	0	0.5869140625	0.422607421875	upper	../fonts/zerothre.ttf
325372	WORD	wordpools/wasnorm_wordpool_less_exclusions.txt	LTP233	ltpFR	18	3	1	CELERY	266	n/a	0	0	0.5869140625	0.422607421875	upper	../fonts/zerothre.ttf
329253	WORD	wordpools/wasnorm_wordpool_less_exclusions.txt	LTP233	ltpFR	18	3	0	TIMBER	1469	n/a	0	1	0.412841796875	0.57763671875	lower	../fonts/amplitud.ttf
333118	WORD	wordpools/wasnorm_wordpool_less_exclusions.txt	LTP233	ltpFR	18	3	0	VOLUNTEER	1577	n/a	1	1	0.412841796875	0.57763671875	lower	../fonts/amplitud.ttf
337217	WORD	wordpools/wasnorm_wordpool_less_exclusions.txt	LTP233	ltpFR	18	3	0	TOWN	1491	n/a	1	1	0.412841796875	0.57763671875	lower	../fonts/amplitud.ttf
341098	WORD	wordpools/wasnorm_wordpool_less_exclusions.txt	LTP233	ltpFR	18	3	0	WAITER	1580	n/a	1	1	0.412841796875	0.57763671875	lower	../fonts/amplitud.ttf
345297	WORD	wordpools/wasnorm_wordpool_less_exclusions.txt	LTP233	ltpFR	18	3	0	VEAL	1551	n/a	0	1	0.412841796875	0.57763671875	lower	../fonts/amplitud.ttf
349228	WORD	wordpools/wasnorm_wordpool_less_exclusions.txt	LTP233	ltpFR	18	3	1	WAGON	1578	n/a	0	0	0.5869140625	0.422607421875	upper	../fonts/zerothre.ttf
353327	WORD	wordpools/wasnorm_wordpool_less_exclusions.txt	LTP233	ltpFR	18	3	1	COD	340	n/a	1	0	0.5869140625	0.422607421875	upper	../fonts/zerothre.ttf
357158	WORD	wordpools/wasnorm_wordpool_less_exclusions.txt	LTP233	ltpFR	18	3	1	ELEVATOR	524	n/a	0	0	0.5869140625	0.422607421875	upper	../fonts/zerothre.ttf
360989	WORD	wordpools/wasnorm_wordpool_less_exclusions.txt	LTP233	ltpFR	18	3	0	MECHANIC	884	n/a	1	1	0.412841796875	0.57763671875	lower	../fonts/amplitud.ttf
365155	WORD	wordpools/wasnorm_wordpool_less_exclusions.txt	LTP233	ltpFR	18	3	0	POLYESTER	1100	n/a	0	1	0.412841796875	0.57763671875	lower	../fonts/amplitud.ttf
369170	WORD	wordpools/wasnorm_wordpool_less_exclusions.txt	LTP233	ltpFR	18	3	0	LINT	826	n/a	0	1	0.412841796875	0.57763671875	lower	../fonts/amplitud.ttf
373236	WORD	wordpools/wasnorm_wordpool_less_exclusions.txt	LTP233	ltpFR	18	3	1	PLANT	1083	n/a	1	0	0.5869140625	0.422607421875	upper	../fonts/zerothre.ttf
377368	WORD	wordpools/wasnorm_wordpool_less_exclusions.txt	LTP233	ltpFR	18	3	1	GARDEN	623	n/a	0	0	0.5869140625	0.422607421875	upper	../fonts/zerothre.ttf
381299	WORD	wordpools/wasnorm_wordpool_less_exclusions.txt	LTP233	ltpFR	18	3	1	WHALE	1601	n/a	1	0	0.5869140625	0.422607421875	upper	../fonts/zerothre.ttf
387223	REC_START	n/a	LTP233	ltpFR	18	3	n/a	n/a	n/a	n/a	n/a	n/a	n/a	n/a	n/a	n/a
388709	REC_WORD	wordpools/wasnorm_wordpool_less_exclusions.txt	LTP233	ltpFR	18	3	1	WHALE	1601	n/a	1	n/a	n/a	n/a	n/a	n/a
390595	REC_WORD	wordpools/wasnorm_wordpool_less_exclusions.txt	LTP233	ltpFR	18	3	1	LONDON	843	n/a	0	n/a	n/a	n/a	n/a	n/a
391857	REC_WORD	wordpools/wasnorm_wordpool_less_exclusions.txt	LTP233	ltpFR	18	3	1	ELEVATOR	524	n/a	0	n/a	n/a	n/a	n/a	n/a
392995	REC_WORD	wordpools/wasnorm_wordpool_less_exclusions.txt	LTP233	ltpFR	18	3	0	MECHANIC	884	n/a	1	n/a	n/a	n/a	n/a	n/a
394272	REC_WORD	wordpools/wasnorm_wordpool_less_exclusions.txt	LTP233	ltpFR	18	3	1	CELERY	266	n/a	0	n/a	n/a	n/a	n/a	n/a
469314	WORD	wordpools/wasnorm_wordpool_less_exclusions.txt	LTP233	ltpFR	18	4	0	COLESLAW	344	n/a	0	1	0.412841796875	0.57763671875	lower	../fonts/amplitud.ttf
473313	WORD	wordpools/wasnorm_wordpool_less_exclusions.txt	LTP233	ltpFR	18	4	0	BOUILLON	154	n/a	0	1	0.412841796875	0.57763671875	lower	../fonts/amplitud.ttf
477228	WORD	wordpools/wasnorm_wordpool_less_exclusions.txt	LTP233	ltpFR	18	4	0	SUPERVISOR	1410	n/a	0	1	0.412841796875	0.57763671875	lower	../fonts/amplitud.ttf
481209	WORD	wordpools/wasnorm_wordpool_less_exclusions.txt	LTP233	ltpFR	18	4	0	SCARF	1246	n/a	0	1	0.412841796875	0.57763671875	lower	../fonts/amplitud.ttf
485040	WORD	wordpools/wasnorm_wordpool_less_exclusions.txt	LTP233	ltpFR	18	4	0	FRIAR	605	n/a	1	1	0.412841796875	0.57763671875	lower	../fonts/amplitud.ttf
489022	WORD	wordpools/wasnorm_wordpool_less_exclusions.txt	LTP233	ltpFR	18	4	0	BRIDE	173	n/a	1	1	0.412841796875	0.57763671875	lower	../fonts/amplitud.ttf
492852	WORD	wordpools/wasnorm_wordpool_less_exclusions.txt	LTP233	ltpFR	18	4	0	ALMOND	18	n/a	0	1	0.412841796875	0.57763671875	lower	../fonts/amplitud.ttf
496800	WORD	wordpools/wasnorm_wordpool_less_exclusions.txt	LTP233	ltpFR	18	4	0	SQUIRREL	1362	n/a	0	1	0.412841796875	0.57763671875	lower	../fonts/amplitud.ttf
500984	WORD	wordpools/wasnorm_wordpool_less_exclusions.txt	LTP233	ltpFR	18	4	0	DOLL	481	n/a	0	1	0.412841796875	0.57763671875	lower	../fonts/amplitud.ttf
504898	WORD	wordpools/wasnorm_wordpool_less_exclusions.txt	LTP233	ltpFR	18	4	0	PLATE	1086	n/a	0	1	0.412841796875	0.57763671875	lower	../fonts/amplitud.ttf
508812	WORD	wordpools/wasnorm_wordpool_less_exclusions.txt	LTP233	ltpFR	18	4	0	ELBOW	520	n/a	0	1	0.412841796875	0.57763671875	lower	../fonts/amplitud.ttf
512710	WORD	wordpools/wasnorm_wordpool_less_exclusions.txt	LTP233	ltpFR	18	4	0	FEAST	556	n/a	1	1	0.412841796875	0.57763671875	lower	../fonts/amplitud.ttf
516672	WORD	wordpools/wasnorm_wordpool_less_exclusions.txt	LTP233	ltpFR	18	4	0	CORPORATION	382	n/a	1	1	0.412841796875	0.57763671875	lower	../fonts/amplitud.ttf
520623	WORD	wordpools/wasnorm_wordpool_less_exclusions.txt	LTP233	ltpFR	18	4	0	ROOSTER	1209	n/a	1	1	0.412841796875	0.57763671875	lower	../fonts/amplitud.ttf
524655	WORD	wordpools/wasnorm_wordpool_less_exclusions.txt	LTP233	ltpFR	18	4	0	RECIPE	1175	n/a	0	1	0.412841796875	0.57763671875	lower	../fonts/amplitud.ttf
528537	WORD	wordpools/wasnorm_wordpool_less_exclusions.txt	LTP233	ltpFR	18	4	0	DRESSER	496	n/a	1	1	0.412841796875	0.57763671875	lower	../fonts/amplitud.ttf
534426	REC_START	n/a	LTP233	ltpFR	18	4	n/a	n/a	n/a	n/a	n/a	n/a	n/a	n/a	n/a	n/a
535633	REC_WORD	wordpools/wasnorm_wordpool_less_exclusions.txt	LTP233	ltpFR	18	4	0	DRESSER	496	n/a	1	n/a	n/a	n/a	n/a	n/a
536376	REC_WORD	wordpools/wasnorm_wordpool_less_exclusions.txt	LTP233	ltpFR	18	4	0	FRIAR	605	n/a	1	n/a	n/a	n/a	n/a	n/a
537524	REC_WORD	wordpools/wasnorm_wordpool_less_exclusions.txt	LTP233	ltpFR	18	4	0	BRIDE	173	n/a	1	n/a	n/a	n/a	n/a	n/a
539245	REC_WORD	wordpools/wasnorm_wordpool_less_exclusions.txt	LTP233	ltpFR	18	4	0	SQUIRREL	1362	n/a	0	n/a	n/a	n/a	n/a	n/a
540625	REC_WORD_VV	wordpools/wasnorm_wordpool_less_exclusions.txt	LTP233	ltpFR	18	4	n/a	<>	-1	n/a	n/a	n/a	n/a	n/a	n/a	n/a
541290	REC_WORD	wordpools/wasnorm_wordpool_less_exclusions.txt	LTP233	ltpFR	18	4	0	PLATE	1086	n/a	0	n/a	n/a	n/a	n/a	n/a
545066	REC_WORD	wordpools/wasnorm_wordpool_less_exclusions.txt	LTP233	ltpFR	18	4	0	SCARF	1246	n/a	0	n/a	n/a	n/a	n/a	n/a
550365	REC_WORD	wordpools/wasnorm_wordpool_less_exclusions.txt	LTP233	ltpFR	18	4	0	RECIPE	1175	n/a	0	n/a	n/a	n/a	n/a	n/a
553532	REC_WORD	wordpools/wasnorm_wordpool_less_exclusions.txt	LTP233	ltpFR	18	4	0	ROOSTER	1209	n/a	1	n/a	n/a	n/a	n/a	n/a
562522	REC_WORD	wordpools/wasnorm_wordpool_less_exclusions.txt	LTP233	ltpFR	18	4	0	BOUILLON	154	n/a	0	n/a	n/a	n/a	n/a	n/a
613123	WORD	wordpools/wasnorm_wordpool_less_exclusions.txt	LTP233	ltpFR	18	5	1	GALAXY	617	n/a	0	0	0.5869140625	0.422607421875	upper	../fonts/zerothre.ttf
616971	WORD	wordpools/wasnorm_wordpool_less_exclusions.txt	LTP233	ltpFR	18	5	1	NEPTUNE	943	n/a	0	0	0.5869140625	0.422607421875	upper	../fonts/zerothre.ttf
620834	WORD	wordpools/wasnorm_wordpool_less_exclusions.txt	LTP233	ltpFR	18	5	1	TORCH	1484	n/a	0	0	0.5869140625	0.422607421875	upper	../fonts/zerothre.ttf
624666	WORD	wordpools/wasnorm_wordpool_less_exclusions.txt	LTP233	ltpFR	18	5	1	DESSERT	453	n/a	0	0	0.5869140625	0.422607421875	upper	../fonts/zerothre.ttf
628777	WORD	wordpools/wasnorm_wordpool_less_exclusions.txt	LTP233	ltpFR	18	5	1	HERO	706	n/a	1	0	0.5869140625	0.422607421875	upper	../fonts/zerothre.ttf
632779	WORD	wordpools/wasnorm_wordpool_less_exclusions.txt	LTP233	ltpFR	18	5	1	MOB	904	n/a	1	0	0.5869140625	0.422607421875	upper	../fonts/zerothre.ttf
636874	WORD	wordpools/wasnorm_wordpool_less_exclusions.txt	LTP233	ltpFR	18	5	1	PEOPLE	1046	n/a	1	0	0.5869140625	0.422607421875	upper	../fonts/zerothre.ttf
640827	WORD	wordpools/wasnorm_wordpool_less_exclusions.txt	LTP233	ltpFR	18	5	1	BLUEBERRY	140	n/a	0	0	0.5869140625	0.422607421875	upper	../fonts/zerothre.ttf
644708	WORD	wordpools/wasnorm_wordpool_less_exclusions.txt	LTP233	ltpFR	18	5	1	TANGERINE	1431	n/a	0	0	0.5869140625	0.422607421875	upper	../fonts/zerothre.ttf
648669	WORD	wordpools/wasnorm_wordpool_less_exclusions.txt	LTP233	ltpFR	18	5	1	HAMMER	680	n/a	0	0	0.5869140625	0.422607421875	upper	../fonts/zerothre.ttf
652835	WORD	wordpools/wasnorm_wordpool_less_exclusions.txt	LTP233	ltpFR	18	5	1	POLITICIAN	1099	n/a	1	0	0.5869140625	0.422607421875	upper	../fonts/zerothre.ttf
656820	WORD	wordpools/wasnorm_wordpool_less_exclusions.txt	LTP233	ltpFR	18	5	1	CHAMPION	279	n/a	1	0	0.5869140625	0.422607421875	upper	../fonts/zerothre.ttf
660835	WORD	wordpools/wasnorm_wordpool_less_exclusions.txt	LTP233	ltpFR	18	5	1	SURF	1412	n/a	0	0	0.5869140625	0.422607421875	upper	../fonts/zerothre.ttf
664666	WORD	wordpools/wasnorm_wordpool_less_exclusions.txt	LTP233	ltpFR	18	5	1	NITROGEN	954	n/a	0	0	0.5869140625	0.422607421875	upper	../fonts/zerothre.ttf
668648	WORD	wordpools/wasnorm_wordpool_less_exclusions.txt	LTP233	ltpFR	18	5	1	SAW	1239	n/a	0	0	0.5869140625	0.422607421875	upper	../fonts/zerothre.ttf
672663	WORD	wordpools/wasnorm_wordpool_less_exclusions.txt	LTP233	ltpFR	18	5	1	SEA	1259	n/a	0	0	0.5869140625	0.422607421875	upper	../fonts/zerothre.ttf
678670	REC_START	n/a	LTP233	ltpFR	18	5	n/a	n/a	n/a	n/a	n/a	n/a	n/a	n/a	n/a	n/a
679184	REC_WORD	wordpools/wasnorm_wordpool_less_exclusions.txt	LTP233	ltpFR	18	5	1	SURF	1412	n/a	0	n/a	n/a	n/a	n/a	n/a
680191	REC_WORD	wordpools/wasnorm_wordpool_less_exclusions.txt	LTP233	ltpFR	18	5	1	NITROGEN	954	n/a	0	n/a	n/a	n/a	n/a	n/a
681518	REC_WORD	wordpools/wasnorm_wordpool_less_exclusions.txt	LTP233	ltpFR	18	5	1	SAW	1239	n/a	0	n/a	n/a	n/a	n/a	n/a
682476	REC_WORD	wordpools/wasnorm_wordpool_less_exclusions.txt	LTP233	ltpFR	18	5	1	SEA	1259	n/a	0	n/a	n/a	n/a	n/a	n/a
684322	REC_WORD	wordpools/wasnorm_wordpool_less_exclusions.txt	LTP233	ltpFR	18	5	1	NEPTUNE	943	n/a	0	n/a	n/a	n/a	n/a	n/a
685484	REC_WORD	wordpools/wasnorm_wordpool_less_exclusions.txt	LTP233	ltpFR	18	5	1	TORCH	1484	n/a	0	n/a	n/a	n/a	n/a	n/a
686587	REC_WORD	wordpools/wasnorm_wordpool_less_exclusions.txt	LTP233	ltpFR	18	5	1	MOB	904	n/a	1	n/a	n/a	n/a	n/a	n/a
687505	REC_WORD	wordpools/wasnorm_wordpool_less_exclusions.txt	LTP233	ltpFR	18	5	1	HERO	706	n/a	1	n/a	n/a	n/a	n/a	n/a
688552	REC_WORD	wordpools/wasnorm_wordpool_less_exclusions.txt	LTP233	ltpFR	18	5	1	CHAMPION	279	n/a	1	n/a	n/a	n/a	n/a	n/a
689725	REC_WORD	wordpools/wasnorm_wordpool_less_exclusions.txt	LTP233	ltpFR	18	5	1	PEOPLE	1046	n/a	1	n/a	n/a	n/a	n/a	n/a
692189	REC_WORD	wordpools/wasnorm_wordpool_less_exclusions.txt	LTP233	ltpFR	18	5	1	BLUEBERRY	140	n/a	0	n/a	n/a	n/a	n/a	n/a
695569	REC_WORD	wordpools/wasnorm_wordpool_less_exclusions.txt	LTP233	ltpFR	18	5	1	HAMMER	680	n/a	0	n/a	n/a	n/a	n/a	n/a
757166	WORD	wordpools/wasnorm_wordpool_less_exclusions.txt	LTP233	ltpFR	18	6	0	SNAIL	1332	n/a	0	1	0.412841796875	0.57763671875	lower	../fonts/amplitud.ttf
761164	WORD	wordpools/wasnorm_wordpool_less_exclusions.txt	LTP233	ltpFR	18	6	0	PRIEST	1122	n/a	1	1	0.412841796875	0.57763671875	lower	../fonts/amplitud.ttf
765330	WORD	wordpools/wasnorm_wordpool_less_exclusions.txt	LTP233	ltpFR	18	6	0	PICTURE	1061	n/a	0	1	0.412841796875	0.57763671875	lower	../fonts/amplitud.ttf
769345	WORD	wordpools/wasnorm_wordpool_less_exclusions.txt	LTP233	ltpFR	18	6	0	ANTELOPE	27	n/a	1	1	0.412841796875	0.57763671875	lower	../fonts/amplitud.ttf
773360	WORD	wordpools/wasnorm_wordpool_less_exclusions.txt	LTP233	ltpFR	18	6	0	ALLIGATOR	16	n/a	1	1	0.412841796875	0.57763671875	lower	../fonts/amplitud.ttf
777408	WORD	wordpools/wasnorm_wordpool_less_exclusions.txt	LTP233	ltpFR	18	6	0	BOOK	149	n/a	0	1	0.412841796875	0.57763671875	lower	../fonts/amplitud.ttf
781387	WORD	wordpools/wasnorm_wordpool_less_exclusions.txt	LTP233	ltpFR	18	6	0	PLAID	1080	n/a	0	1	0.412841796875	0.57763671875	lower	../fonts/amplitud.ttf
785488	WORD	wordpools/wasnorm_wordpool_less_exclusions.txt	LTP233	ltpFR	18	6	0	CLAM	315	n/a	0	1	0.412841796875	0.57763671875	lower	../fonts/amplitud.ttf
789637	WORD	wordpools/wasnorm_wordpool_less_exclusions.txt	LTP233	ltpFR	18	6	0	ACORN	3	n/a	0	1	0.412841796875	0.57763671875	lower	../fonts/amplitud.ttf
793820	WORD	wordpools/wasnorm_wordpool_less_exclusions.txt	LTP233	ltpFR	18	6	0	SCALLOP	1242	n/a	0	1	0.412841796875	0.57763671875	lower	../fonts/amplitud.ttf
797701	WORD	wordpools/wasnorm_wordpool_less_exclusions.txt	LTP233	ltpFR	18	6	0	CRAB	397	n/a	0	1	0.412841796875	0.57763671875	lower	../fonts/amplitud.ttf
801867	WORD	wordpools/wasnorm_wordpool_less_exclusions.txt	LTP233	ltpFR	18	6	0	CAVE	263	n/a	1	1	0.412841796875	0.57763671875	lower	../fonts/amplitud.ttf
806067	WORD	wordpools/wasnorm_wordpool_less_exclusions.txt	LTP233	ltpFR	18	6	0	POET	1095	n/a	1	1	0.412841796875	0.57763671875	lower	../fonts/amplitud.ttf
809915	WORD	wordpools/wasnorm_wordpool_less_exclusions.txt	LTP233	ltpFR	18	6	0	ROOT	1210	n/a	0	1	0.412841796875	0.57763671875	lower	../fonts/amplitud.ttf
813745	WORD	wordpools/wasnorm_wordpool_less_exclusions.txt	LTP233	ltpFR	18	6	0	PADDING	999	n/a	1	1	0.412841796875	0.57763671875	lower	../fonts/amplitud.ttf
817743	WORD	wordpools/wasnorm_wordpool_less_exclusions.txt	LTP233	ltpFR	18	6	0	PILLOW	1069	n/a	0	1	0.412841796875	0.57763671875	lower	../fonts/amplitud.ttf
823700	REC_START	n/a	LTP233	ltpFR	18	6	n/a	n/a	n/a	n/a	n/a	n/a	n/a	n/a	n/a	n/a
824154	REC_WORD	wordpools/wasnorm_wordpool_less_exclusions.txt	LTP233	ltpFR	18	6	0	PADDING	999	n/a	1	n/a	n/a	n/a	n/a	n/a
824678	REC_WORD	wordpools/wasnorm_wordpool_less_exclusions.txt	LTP233	ltpFR	18	6	0	PILLOW	1069	n/a	0	n/a	n/a	n/a	n/a	n/a
826927	REC_WORD	wordpools/wasnorm_wordpool_less_exclusions.txt	LTP233	ltpFR	18	6	0	CAVE	263	n/a	1	n/a	n/a	n/a	n/a	n/a
827880	REC_WORD	wordpools/wasnorm_wordpool_less_exclusions.txt	LTP233	ltpFR	18	6	0	SCALLOP	1242	n/a	0	n/a	n/a	n/a	n/a	n/a
829586	REC_WORD	wordpools/wasnorm_wordpool_less_exclusions.txt	LTP233	ltpFR	18	6	0	CRAB	397	n/a	0	n/a	n/a	n/a	n/a	n/a
833203	REC_WORD	wordpools/wasnorm_wordpool_less_exclusions.txt	LTP233	ltpFR	18	6	0	ACORN	3	n/a	0	n/a	n/a	n/a	n/a	n/a
903952	WORD	wordpools/wasnorm_wordpool_less_exclusions.txt	LTP233	ltpFR	18	7	1	WATER	1594	n/a	0	0	0.5869140625	0.422607421875	upper	../fonts/zerothre.ttf
908118	WORD	wordpools/wasnorm_wordpool_less_exclusions.txt	LTP233	ltpFR	18	7	1	BATHTUB	100	n/a	0	0	0.5869140625	0.422607421875	upper	../fonts/zerothre.ttf
912284	WORD	wordpools/wasnorm_wordpool_less_exclusions.txt	LTP233	ltpFR	18	7	0	ATLAS	53	n/a	1	1	0.412841796875	0.57763671875	lower	../fonts/amplitud.ttf
916148	WORD	wordpools/wasnorm_wordpool_less_exclusions.txt	LTP233	ltpFR	18	7	0	FRECKLE	602	n/a	0	1	0.412841796875	0.57763671875	lower	../fonts/amplitud.ttf
920126	WORD	wordpools/wasnorm_wordpool_less_exclusions.txt	LTP233	ltpFR	18	7	0	EAGLE	512	n/a	1	1	0.412841796875	0.57763671875	lower	../fonts/amplitud.ttf
924329	WORD	wordpools/wasnorm_wordpool_less_exclusions.txt	LTP233	ltpFR	18	7	0	YACHT	1629	n/a	0	1	0.412841796875	0.57763671875	lower	../fonts/amplitud.ttf
928244	WORD	wordpools/wasnorm_wordpool_less_exclusions.txt	LTP233	ltpFR	18	7	1	GLOBE	641	n/a	0	0	0.5869140625	0.422607421875	upper	../fonts/zerothre.ttf
932293	WORD	wordpools/wasnorm_wordpool_less_exclusions.txt	LTP233	ltpFR	18	7	1	WHEEL	1603	n/a	0	0	0.5869140625	0.422607421875	upper	../fonts/zerothre.ttf
936241	WORD	wordpools/wasnorm_wordpool_less_exclusions.txt	LTP233	ltpFR	18	7	1	DRIVER	499	n/a	0	0	0.5869140625	0.422607421875	upper	../fonts/zerothre.ttf
940422	WORD	wordpools/wasnorm_wordpool_less_exclusions.txt	LTP233	ltpFR	18	7	1	SENATE	1267	n/a	1	0	0.5869140625	0.422607421875	upper	../fonts/zerothre.ttf
944588	WORD	wordpools/wasnorm_wordpool_less_exclusions.txt	LTP233	ltpFR	18	7	1	DIARY	460	n/a	0	0	0.5869140625	0.422607421875	upper	../fonts/zerothre.ttf
948804	WORD	wordpools/wasnorm_wordpool_less_exclusions.txt	LTP233	ltpFR	18	7	1	CROW	414	n/a	1	0	0.5869140625	0.422607421875	upper	../fonts/zerothre.ttf
952937	WORD	wordpools/wasnorm_wordpool_less_exclusions.txt	LTP233	ltpFR	18	7	0	MASCARA	875	n/a	0	1	0.412841796875	0.57763671875	lower	../fonts/amplitud.ttf
957086	WORD	wordpools/wasnorm_wordpool_less_exclusions.txt	LTP233	ltpFR	18	7	0	ZOO	1637	n/a	1	1	0.412841796875	0.57763671875	lower	../fonts/amplitud.ttf
961068	WORD	wordpools/wasnorm_wordpool_less_exclusions.txt	LTP233	ltpFR	18	7	0	VICTOR	1563	n/a	1	1	0.412841796875	0.57763671875	lower	../fonts/amplitud.ttf
965167	WORD	wordpools/wasnorm_wordpool_less_exclusions.txt	LTP233	ltpFR	18	7	0	RIBBON	1189	n/a	0	1	0.412841796875	0.57763671875	lower	../fonts/amplitud.ttf
970989	REC_START	n/a	LTP233	ltpFR	18	7	n/a	n/a	n/a	n/a	n/a	n/a	n/a	n/a	n/a	n/a
972101	REC_WORD	wordpools/wasnorm_wordpool_less_exclusions.txt	LTP233	ltpFR	18	7	0	MASCARA	875	n/a	0	n/a	n/a	n/a	n/a	n/a
973553	REC_WORD	wordpools/wasnorm_wordpool_less_exclusions.txt	LTP233	ltpFR	18	7	0	ZOO	1637	n/a	1	n/a	n/a	n/a	n/a	n/a
974935	REC_WORD	wordpools/wasnorm_wordpool_less_exclusions.txt	LTP233	ltpFR	18	7	0	VICTOR	1563	n/a	1	n/a	n/a	n/a	n/a	n/a
975922	REC_WORD	wordpools/wasnorm_wordpool_less_exclusions.txt	LTP233	ltpFR	18	7	0	RIBBON	1189	n/a	0	n/a	n/a	n/a	n/a	n/a
977235	REC_WORD	wordpools/wasnorm_wordpool_less_exclusions.txt	LTP233	ltpFR	18	7	0	YACHT	1629	n/a	0	n/a	n/a	n/a	n/a	n/a
978901	REC_WORD	wordpools/wasnorm_wordpool_less_exclusions.txt	LTP233	ltpFR	18	7	0	ATLAS	53	n/a	1	n/a	n/a	n/a	n/a	n/a
979834	REC_WORD	wordpools/wasnorm_wordpool_less_exclusions.txt	LTP233	ltpFR	18	7	1	GLOBE	641	n/a	0	n/a	n/a	n/a	n/a	n/a
980806	REC_WORD	wordpools/wasnorm_wordpool_less_exclusions.txt	LTP233	ltpFR	18	7	1	WATER	1594	n/a	0	n/a	n/a	n/a	n/a	n/a
981759	REC_WORD	wordpools/wasnorm_wordpool_less_exclusions.txt	LTP233	ltpFR	18	7	1	BATHTUB	100	n/a	0	n/a	n/a	n/a	n/a	n/a
987910	REC_WORD	wordpools/wasnorm_wordpool_less_exclusions.txt	LTP233	ltpFR	18	7	1	WHEEL	1603	n/a	0	n/a	n/a	n/a	n/a	n/a
988758	REC_WORD	wordpools/wasnorm_wordpool_less_exclusions.txt	LTP233	ltpFR	18	7	1	DRIVER	499	n/a	0	n/a	n/a	n/a	n/a	n/a
989771	REC_WORD	wordpools/wasnorm_wordpool_less_exclusions.txt	LTP233	ltpFR	18	7	1	SENATE	1267	n/a	1	n/a	n/a	n/a	n/a	n/a
1021294	REC_WORD	wordpools/wasnorm_wordpool_less_exclusions.txt	LTP233	ltpFR	18	7	1	DIARY	460	n/a	0	n/a	n/a	n/a	n/a	n/a
1049953	WORD	wordpools/wasnorm_wordpool_less_exclusions.txt	LTP233	ltpFR	18	8	1	REBEL	1172	n/a	1	0	0.5869140625	0.422607421875	upper	../fonts/zerothre.ttf
1053850	WORD	wordpools/wasnorm_wordpool_less_exclusions.txt	LTP233	ltpFR	18	8	1	ATHLETE	52	n/a	1	0	0.5869140625	0.422607421875	upper	../fonts/zerothre.ttf
1058016	WORD	wordpools/wasnorm_wordpool_less_exclusions.txt	LTP233	ltpFR	18	8	1	CLARINET	317	n/a	0	0	0.5869140625	0.422607421875	upper	../fonts/zerothre.ttf
1061914	WORD	wordpools/wasnorm_wordpool_less_exclusions.txt	LTP233	ltpFR	18	8	1	TICK	1463	n/a	0	0	0.5869140625	0.422607421875	upper	../fonts/zerothre.ttf
1065795	WORD	wordpools/wasnorm_wordpool_less_exclusions.txt	LTP233	ltpFR	18	8	1	CLOWN	330	n/a	1	0	0.5869140625	0.422607421875	upper	../fonts/zerothre.ttf
1069991	WORD	wordpools/wasnorm_wordpool_less_exclusions.txt	LTP233	ltpFR	18	8	1	TAPE	1433	n/a	0	0	0.5869140625	0.422607421875	upper	../fonts/zerothre.ttf
1074090	WORD	wordpools/wasnorm_wordpool_less_exclusions.txt	LTP233	ltpFR	18	8	1	SUBMARINE	1398	n/a	0	0	0.5869140625	0.422607421875	upper	../fonts/zerothre.ttf
1078105	WORD	wordpools/wasnorm_wordpool_less_exclusions.txt	LTP233	ltpFR	18	8	1	PERSONNEL	1053	n/a	1	0	0.5869140625	0.422607421875	upper	../fonts/zerothre.ttf
1082271	WORD	wordpools/wasnorm_wordpool_less_exclusions.txt	LTP233	ltpFR	18	8	1	CRICKET	408	n/a	0	0	0.5869140625	0.422607421875	upper	../fonts/zerothre.ttf
1086156	WORD	wordpools/wasnorm_wordpool_less_exclusions.txt	LTP233	ltpFR	18	8	1	RIVER	1194	n/a	0	0	0.5869140625	0.422607421875	upper	../fonts/zerothre.ttf
1090171	WORD	wordpools/wasnorm_wordpool_less_exclusions.txt	LTP233	ltpFR	18	8	1	SWIMMER	1420	n/a	1	0	0.5869140625	0.422607421875	upper	../fonts/zerothre.ttf
1094366	WORD	wordpools/wasnorm_wordpool_less_exclusions.txt	LTP233	ltpFR	18	8	1	CORAL	378	n/a	0	0	0.5869140625	0.422607421875	upper	../fonts/zerothre.ttf
1098218	WORD	wordpools/wasnorm_wordpool_less_exclusions.txt	LTP233	ltpFR	18	8	1	COP	376	n/a	1	0	0.5869140625	0.422607421875	upper	../fonts/zerothre.ttf
1102266	WORD	wordpools/wasnorm_wordpool_less_exclusions.txt	LTP233	ltpFR	18	8	1	DEPARTMENT	449	n/a	0	0	0.5869140625	0.422607421875	upper	../fonts/zerothre.ttf
1106114	WORD	wordpools/wasnorm_wordpool_less_exclusions.txt	LTP233	ltpFR	18	8	1	TACK	1428	n/a	0	0	0.5869140625	0.422607421875	upper	../fonts/zerothre.ttf
1110226	WORD	wordpools/wasnorm_wordpool_less_exclusions.txt	LTP233	ltpFR	18	8	1	THUMB	1462	n/a	0	0	0.5869140625	0.422607421875	upper	../fonts/zerothre.ttf
1116019	REC_START	n/a	LTP233	ltpFR	18	8	n/a	n/a	n/a	n/a	n/a	n/a	n/a	n/a	n/a	n/a
1116573	REC_WORD	wordpools/wasnorm_wordpool_less_exclusions.txt	LTP233	ltpFR	18	8	1	TICK	1463	n/a	0	n/a	n/a	n/a	n/a	n/a
1117605	REC_WORD	wordpools/wasnorm_wordpool_less_exclusions.txt	LTP233	ltpFR	18	8	1	TACK	1428	n/a	0	n/a	n/a	n/a	n/a	n/a
1118892	REC_WORD	wordpools/wasnorm_wordpool_less_exclusions.txt	LTP233	ltpFR	18	8	1	THUMB	1462	n/a	0	n/a	n/a	n/a	n/a	n/a
1121372	REC_WORD	wordpools/wasnorm_wordpool_less_exclusions.txt	LTP233	ltpFR	18	8	1	SWIMMER	1420	n/a	1	n/a	n/a	n/a	n/a	n/a
1122514	REC_WORD	wordpools/wasnorm_wordpool_less_exclusions.txt	LTP233	ltpFR	18	8	1	CORAL	378	n/a	0	n/a	n/a	n/a	n/a	n/a
1123651	REC_WORD	wordpools/wasnorm_wordpool_less_exclusions.txt	LTP233	ltpFR	18	8	1	COP	376	n/a	1	n/a	n/a	n/a	n/a	n/a
1126011	REC_WORD	wordpools/wasnorm_wordpool_less_exclusions.txt	LTP233	ltpFR	18	8	1	SUBMARINE	1398	n/a	0	n/a	n/a	n/a	n/a	n/a
1127523	REC_WORD	wordpools/wasnorm_wordpool_less_exclusions.txt	LTP233	ltpFR	18	8	1	PERSONNEL	1053	n/a	1	n/a	n/a	n/a	n/a	n/a
1129733	REC_WORD	wordpools/wasnorm_wordpool_less_exclusions.txt	LTP233	ltpFR	18	8	1	TICK	1463	n/a	0	n/a	n/a	n/a	n/a	n/a
1130596	REC_WORD	wordpools/wasnorm_wordpool_less_exclusions.txt	LTP233	ltpFR	18	8	1	TACK	1428	n/a	0	n/a	n/a	n/a	n/a	n/a
1133549	REC_WORD	wordpools/wasnorm_wordpool_less_exclusions.txt	LTP233	ltpFR	18	8	1	CLARINET	317	n/a	0	n/a	n/a	n/a	n/a	n/a
1135315	REC_WORD	wordpools/wasnorm_wordpool_less_exclusions.txt	LTP233	ltpFR	18	8	1	CLOWN	330	n/a	1	n/a	n/a	n/a	n/a	n/a
1136562	REC_WORD	wordpools/wasnorm_wordpool_less_exclusions.txt	LTP233	ltpFR	18	8	1	REBEL	1172	n/a	1	n/a	n/a	n/a	n/a	n/a
1137769	REC_WORD	wordpools/wasnorm_wordpool_less_exclusions.txt	LTP233	ltpFR	18	8	1	ATHLETE	52	n/a	1	n/a	n/a	n/a	n/a	n/a
1194627	WORD	wordpools/wasnorm_wordpool_less_exclusions.txt	LTP233	ltpFR	18	9	-1	PADDLE	1000	n/a	-1	1	1.0	1.0	upper	../fonts/Verdana.ttf
1198645	WORD	wordpools/wasnorm_wordpool_less_exclusions.txt	LTP233	ltpFR	18	9	-1	COURT	391	n/a	-1	1	1.0	1.0	upper	../fonts/Verdana.ttf
1202543	WORD	wordpools/wasnorm_wordpool_less_exclusions.txt	LTP233	ltpFR	18	9	-1	UNIVERSE	1540	n/a	-1	1	1.0	1.0	upper	../fonts/Verdana.ttf
1206659	WORD	wordpools/wasnorm_wordpool_less_exclusions.txt	LTP233	ltpFR	18	9	-1	OX	994	n/a	-1	1	1.0	1.0	upper	../fonts/Verdana.ttf
1210825	WORD	wordpools/wasnorm_wordpool_less_exclusions.txt	LTP233	ltpFR	18	9	-1	LEMON	810	n/a	-1	1	1.0	1.0	upper	../fonts/Verdana.ttf
1214904	WORD	wordpools/wasnorm_wordpool_less_exclusions.txt	LTP233	ltpFR	18	9	-1	CELLO	268	n/a	-1	1	1.0	1.0	upper	../fonts/Verdana.ttf
1218956	WORD	wordpools/wasnorm_wordpool_less_exclusions.txt	LTP233	ltpFR	18	9	-1	RADIO	1157	n/a	-1	1	1.0	1.0	upper	../fonts/Verdana.ttf
1222853	WORD	wordpools/wasnorm_wordpool_less_exclusions.txt	LTP233	ltpFR	18	9	-1	ARCHITECT	36	n/a	-1	1	1.0	1.0	upper	../fonts/Verdana.ttf
1227003	WORD	wordpools/wasnorm_wordpool_less_exclusions.txt	LTP233	ltpFR	18	9	-1	PEARL	1034	n/a	-1	1	1.0	1.0	upper	../fonts/Verdana.ttf
1231052	WORD	wordpools/wasnorm_wordpool_less_exclusions.txt	LTP233	ltpFR	18	9	-1	BEAST	108	n/a	-1	1	1.0	1.0	upper	../fonts/Verdana.ttf
1235184	WORD	wordpools/wasnorm_wordpool_less_exclusions.txt	LTP233	ltpFR	18	9	-1	RAISIN	1163	n/a	-1	1	1.0	1.0	upper	../fonts/Verdana.ttf
1239095	WORD	wordpools/wasnorm_wordpool_less_exclusions.txt	LTP233	ltpFR	18	9	-1	BUILDER	190	n/a	-1	1	1.0	1.0	upper	../fonts/Verdana.ttf
1243030	WORD	wordpools/wasnorm_wordpool_less_exclusions.txt	LTP233	ltpFR	18	9	-1	STAR	1373	n/a	-1	1	1.0	1.0	upper	../fonts/Verdana.ttf
1246928	WORD	wordpools/wasnorm_wordpool_less_exclusions.txt	LTP233	ltpFR	18	9	-1	METEOR	889	n/a	-1	1	1.0	1.0	upper	../fonts/Verdana.ttf
1250910	WORD	wordpools/wasnorm_wordpool_less_exclusions.txt	LTP233	ltpFR	18	9	-1	NAIL	936	n/a	-1	1	1.0	1.0	upper	../fonts/Verdana.ttf
1255126	WORD	wordpools/wasnorm_wordpool_less_exclusions.txt	LTP233	ltpFR	18	9	-1	GAVEL	627	n/a	-1	1	1.0	1.0	upper	../fonts/Verdana.ttf
1260949	REC_START	n/a	LTP233	ltpFR	18	9	n/a	n/a	n/a	n/a	n/a	n/a	n/a	n/a	n/a	n/a
1261468	REC_WORD	wordpools/wasnorm_wordpool_less_exclusions.txt	LTP233	ltpFR	18	9	-1	GAVEL	627	n/a	-1	n/a	n/a	n/a	n/a	n/a
1262510	REC_WORD	wordpools/wasnorm_wordpool_less_exclusions.txt	LTP233	ltpFR	18	9	-1	PEARL	1034	n/a	-1	n/a	n/a	n/a	n/a	n/a
1263303	REC_WORD	wordpools/wasnorm_wordpool_less_exclusions.txt	LTP233	ltpFR	18	9	-1	BEAST	108	n/a	-1	n/a	n/a	n/a	n/a	n/a
1264671	REC_WORD_VV	wordpools/wasnorm_wordpool_less_exclusions.txt	LTP233	ltpFR	18	9	n/a	<>	-1	n/a	n/a	n/a	n/a	n/a	n/a	n/a
1265747	REC_WORD	wordpools/wasnorm_wordpool_less_exclusions.txt	LTP233	ltpFR	18	9	-1	STAR	1373	n/a	-1	n/a	n/a	n/a	n/a	n/a
1266910	REC_WORD	wordpools/wasnorm_wordpool_less_exclusions.txt	LTP233	ltpFR	18	9	n/a	NAVEL	-1	n/a	n/a	n/a	n/a	n/a	n/a	n/a
1282161	REC_WORD	wordpools/wasnorm_wordpool_less_exclusions.txt	LTP233	ltpFR	18	9	-1	OX	994	n/a	-1	n/a	n/a	n/a	n/a	n/a
1282819	REC_WORD	wordpools/wasnorm_wordpool_less_exclusions.txt	LTP233	ltpFR	18	9	-1	PADDLE	1000	n/a	-1	n/a	n/a	n/a	n/a	n/a
1283587	REC_WORD	wordpools/wasnorm_wordpool_less_exclusions.txt	LTP233	ltpFR	18	9	-1	COURT	391	n/a	-1	n/a	n/a	n/a	n/a	n/a
1284356	REC_WORD	wordpools/wasnorm_wordpool_less_exclusions.txt	LTP233	ltpFR	18	9	-1	UNIVERSE	1540	n/a	-1	n/a	n/a	n/a	n/a	n/a
1285563	REC_WORD	wordpools/wasnorm_wordpool_less_exclusions.txt	LTP233	ltpFR	18	9	-1	ARCHITECT	36	n/a	-1	n/a	n/a	n/a	n/a	n/a
1289130	REC_WORD	wordpools/wasnorm_wordpool_less_exclusions.txt	LTP233	ltpFR	18	9	-1	LEMON	810	n/a	-1	n/a	n/a	n/a	n/a	n/a
1290796	REC_WORD	wordpools/wasnorm_wordpool_less_exclusions.txt	LTP233	ltpFR	18	9	-1	CELLO	268	n/a	-1	n/a	n/a	n/a	n/a	n/a
1291824	REC_WORD	wordpools/wasnorm_wordpool_less_exclusions.txt	LTP233	ltpFR	18	9	-1	RADIO	1157	n/a	-1	n/a	n/a	n/a	n/a	n/a
1308660	REC_WORD	wordpools/wasnorm_wordpool_less_exclusions.txt	LTP233	ltpFR	18	9	-1	RAISIN	1163	n/a	-1	n/a	n/a	n/a	n/a	n/a
1352839	WORD	wordpools/wasnorm_wordpool_less_exclusions.txt	LTP233	ltpFR	18	10	0	VIOLIN	1571	n/a	0	1	0.412841796875	0.57763671875	lower	../fonts/amplitud.ttf
1356788	WORD	wordpools/wasnorm_wordpool_less_exclusions.txt	LTP233	ltpFR	18	10	0	ORCHESTRA	981	n/a	1	1	0.412841796875	0.57763671875	lower	../fonts/amplitud.ttf
1360623	WORD	wordpools/wasnorm_wordpool_less_exclusions.txt	LTP233	ltpFR	18	10	0	PLIERS	1089	n/a	0	1	0.412841796875	0.57763671875	lower	../fonts/amplitud.ttf
1364654	WORD	wordpools/wasnorm_wordpool_less_exclusions.txt	LTP233	ltpFR	18	10	1	DRILL	497	n/a	0	0	0.5869140625	0.422607421875	upper	../fonts/zerothre.ttf
1368552	WORD	wordpools/wasnorm_wordpool_less_exclusions.txt	LTP233	ltpFR	18	10	1	TERMINAL	1450	n/a	0	0	0.5869140625	0.422607421875	upper	../fonts/zerothre.ttf
1372434	WORD	wordpools/wasnorm_wordpool_less_exclusions.txt	LTP233	ltpFR	18	10	1	WINDSHIELD	1612	n/a	1	0	0.5869140625	0.422607421875	upper	../fonts/zerothre.ttf
1376266	WORD	wordpools/wasnorm_wordpool_less_exclusions.txt	LTP233	ltpFR	18	10	1	CYLINDER	432	n/a	0	0	0.5869140625	0.422607421875	upper	../fonts/zerothre.ttf
1380264	WORD	wordpools/wasnorm_wordpool_less_exclusions.txt	LTP233	ltpFR	18	10	0	CUPBOARD	425	n/a	0	1	0.412841796875	0.57763671875	lower	../fonts/amplitud.ttf
1384396	WORD	wordpools/wasnorm_wordpool_less_exclusions.txt	LTP233	ltpFR	18	10	0	SPY	1360	n/a	0	1	0.412841796875	0.57763671875	lower	../fonts/amplitud.ttf
1388228	WORD	wordpools/wasnorm_wordpool_less_exclusions.txt	LTP233	ltpFR	18	10	0	MONEY	908	n/a	0	1	0.412841796875	0.57763671875	lower	../fonts/amplitud.ttf
1392159	WORD	wordpools/wasnorm_wordpool_less_exclusions.txt	LTP233	ltpFR	18	10	0	DICTATOR	462	n/a	1	1	0.412841796875	0.57763671875	lower	../fonts/amplitud.ttf
1396074	WORD	wordpools/wasnorm_wordpool_less_exclusions.txt	LTP233	ltpFR	18	10	0	MINK	897	n/a	1	1	0.412841796875	0.57763671875	lower	../fonts/amplitud.ttf
1400102	WORD	wordpools/wasnorm_wordpool_less_exclusions.txt	LTP233	ltpFR	18	10	1	VISITOR	1573	n/a	1	0	0.5869140625	0.422607421875	upper	../fonts/zerothre.ttf
1404020	WORD	wordpools/wasnorm_wordpool_less_exclusions.txt	LTP233	ltpFR	18	10	1	POLICE	1098	n/a	1	0	0.5869140625	0.422607421875	upper	../fonts/zerothre.ttf
1408169	WORD	wordpools/wasnorm_wordpool_less_exclusions.txt	LTP233	ltpFR	18	10	1	NICKEL	950	n/a	0	0	0.5869140625	0.422607421875	upper	../fonts/zerothre.ttf
1412268	WORD	wordpools/wasnorm_wordpool_less_exclusions.txt	LTP233	ltpFR	18	10	1	LIVER	833	n/a	1	0	0.5869140625	0.422607421875	upper	../fonts/zerothre.ttf
1418275	REC_START	n/a	LTP233	ltpFR	18	10	n/a	n/a	n/a	n/a	n/a	n/a	n/a	n/a	n/a	n/a
1418953	REC_WORD	wordpools/wasnorm_wordpool_less_exclusions.txt	LTP233	ltpFR	18	10	1	LIVER	833	n/a	1	n/a	n/a	n/a	n/a	n/a
1420205	REC_WORD	wordpools/wasnorm_wordpool_less_exclusions.txt	LTP233	ltpFR	18	10	0	CUPBOARD	425	n/a	0	n/a	n/a	n/a	n/a	n/a
1497656	WORD	wordpools/wasnorm_wordpool_less_exclusions.txt	LTP233	ltpFR	18	11	-1	ALLEY	15	n/a	-1	1	1.0	1.0	upper	../fonts/Verdana.ttf
1501487	WORD	wordpools/wasnorm_wordpool_less_exclusions.txt	LTP233	ltpFR	18	11	-1	CURB	426	n/a	-1	1	1.0	1.0	upper	../fonts/Verdana.ttf
1505682	WORD	wordpools/wasnorm_wordpool_less_exclusions.txt	LTP233	ltpFR	18	11	-1	CREAM	402	n/a	-1	1	1.0	1.0	upper	../fonts/Verdana.ttf
1509734	WORD	wordpools/wasnorm_wordpool_less_exclusions.txt	LTP233	ltpFR	18	11	-1	BLACKBERRY	132	n/a	-1	1	1.0	1.0	upper	../fonts/Verdana.ttf
1513699	WORD	wordpools/wasnorm_wordpool_less_exclusions.txt	LTP233	ltpFR	18	11	-1	ROOST	1208	n/a	-1	1	1.0	1.0	upper	../fonts/Verdana.ttf
1517848	WORD	wordpools/wasnorm_wordpool_less_exclusions.txt	LTP233	ltpFR	18	11	-1	TAPIOCA	1434	n/a	-1	1	1.0	1.0	upper	../fonts/Verdana.ttf
1522032	WORD	wordpools/wasnorm_wordpool_less_exclusions.txt	LTP233	ltpFR	18	11	-1	BRAKE	166	n/a	-1	1	1.0	1.0	upper	../fonts/Verdana.ttf
1526248	WORD	wordpools/wasnorm_wordpool_less_exclusions.txt	LTP233	ltpFR	18	11	-1	COLUMN	350	n/a	-1	1	1.0	1.0	upper	../fonts/Verdana.ttf
1530343	WORD	wordpools/wasnorm_wordpool_less_exclusions.txt	LTP233	ltpFR	18	11	-1	RIB	1188	n/a	-1	1	1.0	1.0	upper	../fonts/Verdana.ttf
1534511	WORD	wordpools/wasnorm_wordpool_less_exclusions.txt	LTP233	ltpFR	18	11	-1	CAR	241	n/a	-1	1	1.0	1.0	upper	../fonts/Verdana.ttf
1538526	WORD	wordpools/wasnorm_wordpool_less_exclusions.txt	LTP233	ltpFR	18	11	-1	MAGAZINE	853	n/a	-1	1	1.0	1.0	upper	../fonts/Verdana.ttf
1542358	WORD	wordpools/wasnorm_wordpool_less_exclusions.txt	LTP233	ltpFR	18	11	-1	CART	250	n/a	-1	1	1.0	1.0	upper	../fonts/Verdana.ttf
1546439	WORD	wordpools/wasnorm_wordpool_less_exclusions.txt	LTP233	ltpFR	18	11	-1	HAY	693	n/a	-1	1	1.0	1.0	upper	../fonts/Verdana.ttf
1550588	WORD	wordpools/wasnorm_wordpool_less_exclusions.txt	LTP233	ltpFR	18	11	-1	ROOF	1205	n/a	-1	1	1.0	1.0	upper	../fonts/Verdana.ttf
1554537	WORD	wordpools/wasnorm_wordpool_less_exclusions.txt	LTP233	ltpFR	18	11	-1	SWORD	1423	n/a	-1	1	1.0	1.0	upper	../fonts/Verdana.ttf
1558518	WORD	wordpools/wasnorm_wordpool_less_exclusions.txt	LTP233	ltpFR	18	11	-1	NIECE	952	n/a	-1	1	1.0	1.0	upper	../fonts/Verdana.ttf
1564408	REC_START	n/a	LTP233	ltpFR	18	11	n/a	n/a	n/a	n/a	n/a	n/a	n/a	n/a	n/a	n/a
1565036	REC_WORD	wordpools/wasnorm_wordpool_less_exclusions.txt	LTP233	ltpFR	18	11	-1	SWORD	1423	n/a	-1	n/a	n/a	n/a	n/a	n/a
1565924	REC_WORD	wordpools/wasnorm_wordpool_less_exclusions.txt	LTP233	ltpFR	18	11	-1	NIECE	952	n/a	-1	n/a	n/a	n/a	n/a	n/a
1566862	REC_WORD	wordpools/wasnorm_wordpool_less_exclusions.txt	LTP233	ltpFR	18	11	-1	HAY	693	n/a	-1	n/a	n/a	n/a	n/a	n/a
1567895	REC_WORD	wordpools/wasnorm_wordpool_less_exclusions.txt	LTP233	ltpFR	18	11	-1	ROOF	1205	n/a	-1	n/a	n/a	n/a	n/a	n/a
1569741	REC_WORD	wordpools/wasnorm_wordpool_less_exclusions.txt	LTP233	ltpFR	18	11	-1	MAGAZINE	853	n/a	-1	n/a	n/a	n/a	n/a	n/a
1571861	REC_WORD	wordpools/wasnorm_wordpool_less_exclusions.txt	LTP233	ltpFR	18	11	-1	CAR	241	n/a	-1	n/a	n/a	n/a	n/a	n/a
1572559	REC_WORD	wordpools/wasnorm_wordpool_less_exclusions.txt	LTP233	ltpFR	18	11	-1	BRAKE	166	n/a	-1	n/a	n/a	n/a	n/a	n/a
1573407	REC_WORD	wordpools/wasnorm_wordpool_less_exclusions.txt	LTP233	ltpFR	18	11	-1	COLUMN	350	n/a	-1	n/a	n/a	n/a	n/a	n/a
1574335	REC_WORD	wordpools/wasnorm_wordpool_less_exclusions.txt	LTP233	ltpFR	18	11	-1	ROOST	1208	n/a	-1	n/a	n/a	n/a	n/a	n/a
1575123	REC_WORD	wordpools/wasnorm_wordpool_less_exclusions.txt	LTP233	ltpFR	18	11	-1	BLACKBERRY	132	n/a	-1	n/a	n/a	n/a	n/a	n/a
1575917	REC_WORD	wordpools/wasnorm_wordpool_less_exclusions.txt	LTP233	ltpFR	18	11	-1	CREAM	402	n/a	-1	n/a	n/a	n/a	n/a	n/a
1576775	REC_WORD	wordpools/wasnorm_wordpool_less_exclusions.txt	LTP233	ltpFR	18	11	-1	CURB	426	n/a	-1	n/a	n/a	n/a	n/a	n/a
1577643	REC_WORD	wordpools/wasnorm_wordpool_less_exclusions.txt	LTP233	ltpFR	18	11	-1	ALLEY	15	n/a	-1	n/a	n/a	n/a	n/a	n/a
1595587	REC_WORD	wordpools/wasnorm_wordpool_less_exclusions.txt	LTP233	ltpFR	18	11	-1	TAPIOCA	1434	n/a	-1	n/a	n/a	n/a	n/a	n/a
1643752	WORD	wordpools/wasnorm_wordpool_less_exclusions.txt	LTP233	ltpFR	18	12	-1	JUNGLE	764	n/a	-1	1	1.0	1.0	upper	../fonts/Verdana.ttf
1647654	WORD	wordpools/wasnorm_wordpool_less_exclusions.txt	LTP233	ltpFR	18	12	-1	PALM	1007	n/a	-1	1	1.0	1.0	upper	../fonts/Verdana.ttf
1651820	WORD	wordpools/wasnorm_wordpool_less_exclusions.txt	LTP233	ltpFR	18	12	-1	SILVERWARE	1308	n/a	-1	1	1.0	1.0	upper	../fonts/Verdana.ttf
1655698	WORD	wordpools/wasnorm_wordpool_less_exclusions.txt	LTP233	ltpFR	18	12	-1	ENVELOPE	537	n/a	-1	1	1.0	1.0	upper	../fonts/Verdana.ttf
1659914	WORD	wordpools/wasnorm_wordpool_less_exclusions.txt	LTP233	ltpFR	18	12	-1	MAILBOX	857	n/a	-1	1	1.0	1.0	upper	../fonts/Verdana.ttf
1663748	WORD	wordpools/wasnorm_wordpool_less_exclusions.txt	LTP233	ltpFR	18	12	-1	DEODORANT	448	n/a	-1	1	1.0	1.0	upper	../fonts/Verdana.ttf
1667932	WORD	wordpools/wasnorm_wordpool_less_exclusions.txt	LTP233	ltpFR	18	12	-1	BREAST	171	n/a	-1	1	1.0	1.0	upper	../fonts/Verdana.ttf
1672127	WORD	wordpools/wasnorm_wordpool_less_exclusions.txt	LTP233	ltpFR	18	12	-1	SUN	1406	n/a	-1	1	1.0	1.0	upper	../fonts/Verdana.ttf
1676330	WORD	wordpools/wasnorm_wordpool_less_exclusions.txt	LTP233	ltpFR	18	12	-1	VINEGAR	1569	n/a	-1	1	1.0	1.0	upper	../fonts/Verdana.ttf
1680191	WORD	wordpools/wasnorm_wordpool_less_exclusions.txt	LTP233	ltpFR	18	12	-1	CARDINAL	244	n/a	-1	1	1.0	1.0	upper	../fonts/Verdana.ttf
1684327	WORD	wordpools/wasnorm_wordpool_less_exclusions.txt	LTP233	ltpFR	18	12	-1	BEETLE	116	n/a	-1	1	1.0	1.0	upper	../fonts/Verdana.ttf
1688292	WORD	wordpools/wasnorm_wordpool_less_exclusions.txt	LTP233	ltpFR	18	12	-1	HEN	703	n/a	-1	1	1.0	1.0	upper	../fonts/Verdana.ttf
1692286	WORD	wordpools/wasnorm_wordpool_less_exclusions.txt	LTP233	ltpFR	18	12	-1	BEDROOM	111	n/a	-1	1	1.0	1.0	upper	../fonts/Verdana.ttf
1696372	WORD	wordpools/wasnorm_wordpool_less_exclusions.txt	LTP233	ltpFR	18	12	-1	BASKET	95	n/a	-1	1	1.0	1.0	upper	../fonts/Verdana.ttf
1700203	WORD	wordpools/wasnorm_wordpool_less_exclusions.txt	LTP233	ltpFR	18	12	-1	TABLE	1426	n/a	-1	1	1.0	1.0	upper	../fonts/Verdana.ttf
1704298	WORD	wordpools/wasnorm_wordpool_less_exclusions.txt	LTP233	ltpFR	18	12	-1	GRILL	661	n/a	-1	1	1.0	1.0	upper	../fonts/Verdana.ttf
1710292	REC_START	n/a	LTP233	ltpFR	18	12	n/a	n/a	n/a	n/a	n/a	n/a	n/a	n/a	n/a	n/a
1711294	REC_WORD	wordpools/wasnorm_wordpool_less_exclusions.txt	LTP233	ltpFR	18	12	-1	GRILL	661	n/a	-1	n/a	n/a	n/a	n/a	n/a
1712242	REC_WORD	wordpools/wasnorm_wordpool_less_exclusions.txt	LTP233	ltpFR	18	12	n/a	CHEST	295	n/a	n/a	n/a	n/a	n/a	n/a	n/a
1713260	REC_WORD	wordpools/wasnorm_wordpool_less_exclusions.txt	LTP233	ltpFR	18	12	-1	DEODORANT	448	n/a	-1	n/a	n/a	n/a	n/a	n/a
1714871	REC_WORD	wordpools/wasnorm_wordpool_less_exclusions.txt	LTP233	ltpFR	18	12	-1	JUNGLE	764	n/a	-1	n/a	n/a	n/a	n/a	n/a
1715560	REC_WORD	wordpools/wasnorm_wordpool_less_exclusions.txt	LTP233	ltpFR	18	12	-1	SILVERWARE	1308	n/a	-1	n/a	n/a	n/a	n/a	n/a
1716587	REC_WORD	wordpools/wasnorm_wordpool_less_exclusions.txt	LTP233	ltpFR	18	12	-1	ENVELOPE	537	n/a	-1	n/a	n/a	n/a	n/a	n/a
1717236	REC_WORD	wordpools/wasnorm_wordpool_less_exclusions.txt	LTP233	ltpFR	18	12	-1	MAILBOX	857	n/a	-1	n/a	n/a	n/a	n/a	n/a
1718244	REC_WORD	wordpools/wasnorm_wordpool_less_exclusions.txt	LTP233	ltpFR	18	12	0	ROOSTER	1209	n/a	1	n/a	n/a	n/a	n/a	n/a
1719042	REC_WORD	wordpools/wasnorm_wordpool_less_exclusions.txt	LTP233	ltpFR	18	12	-1	TABLE	1426	n/a	-1	n/a	n/a	n/a	n/a	n/a
1719800	REC_WORD	wordpools/wasnorm_wordpool_less_exclusions.txt	LTP233	ltpFR	18	12	-1	BEDROOM	111	n/a	-1	n/a	n/a	n/a	n/a	n/a
1785956	REST_REWET	n/a	LTP233	ltpFR	18	12	n/a	n/a	n/a	n/a	n/a	n/a	n/a	n/a	n/a	n/a
2055241	WORD	wordpools/wasnorm_wordpool_less_exclusions.txt	LTP233	ltpFR	18	13	-1	GOO	648	n/a	-1	1	1.0	1.0	upper	../fonts/Verdana.ttf
2059236	WORD	wordpools/wasnorm_wordpool_less_exclusions.txt	LTP233	ltpFR	18	13	-1	RAM	1165	n/a	-1	1	1.0	1.0	upper	../fonts/Verdana.ttf
2063455	WORD	wordpools/wasnorm_wordpool_less_exclusions.txt	LTP233	ltpFR	18	13	-1	BRAN	167	n/a	-1	1	1.0	1.0	upper	../fonts/Verdana.ttf
2067432	WORD	wordpools/wasnorm_wordpool_less_exclusions.txt	LTP233	ltpFR	18	13	-1	CASTLE	256	n/a	-1	1	1.0	1.0	upper	../fonts/Verdana.ttf
2071485	WORD	wordpools/wasnorm_wordpool_less_exclusions.txt	LTP233	ltpFR	18	13	-1	SCROLL	1257	n/a	-1	1	1.0	1.0	upper	../fonts/Verdana.ttf
2075701	WORD	wordpools/wasnorm_wordpool_less_exclusions.txt	LTP233	ltpFR	18	13	-1	BUN	197	n/a	-1	1	1.0	1.0	upper	../fonts/Verdana.ttf
2079866	WORD	wordpools/wasnorm_wordpool_less_exclusions.txt	LTP233	ltpFR	18	13	-1	OVEN	991	n/a	-1	1	1.0	1.0	upper	../fonts/Verdana.ttf
2083828	WORD	wordpools/wasnorm_wordpool_less_exclusions.txt	LTP233	ltpFR	18	13	-1	SANDWICH	1232	n/a	-1	1	1.0	1.0	upper	../fonts/Verdana.ttf
2087927	WORD	wordpools/wasnorm_wordpool_less_exclusions.txt	LTP233	ltpFR	18	13	-1	SAUSAGE	1238	n/a	-1	1	1.0	1.0	upper	../fonts/Verdana.ttf
2091895	WORD	wordpools/wasnorm_wordpool_less_exclusions.txt	LTP233	ltpFR	18	13	-1	JUG	762	n/a	-1	1	1.0	1.0	upper	../fonts/Verdana.ttf
2095806	WORD	wordpools/wasnorm_wordpool_less_exclusions.txt	LTP233	ltpFR	18	13	-1	SYRUP	1425	n/a	-1	1	1.0	1.0	upper	../fonts/Verdana.ttf
2099674	WORD	wordpools/wasnorm_wordpool_less_exclusions.txt	LTP233	ltpFR	18	13	-1	EDITORIAL	517	n/a	-1	1	1.0	1.0	upper	../fonts/Verdana.ttf
2103690	WORD	wordpools/wasnorm_wordpool_less_exclusions.txt	LTP233	ltpFR	18	13	-1	SCARECROW	1245	n/a	-1	1	1.0	1.0	upper	../fonts/Verdana.ttf
2107671	WORD	wordpools/wasnorm_wordpool_less_exclusions.txt	LTP233	ltpFR	18	13	-1	BUCKET	184	n/a	-1	1	1.0	1.0	upper	../fonts/Verdana.ttf
2111766	WORD	wordpools/wasnorm_wordpool_less_exclusions.txt	LTP233	ltpFR	18	13	-1	STUDENT	1395	n/a	-1	1	1.0	1.0	upper	../fonts/Verdana.ttf
2115635	WORD	wordpools/wasnorm_wordpool_less_exclusions.txt	LTP233	ltpFR	18	13	-1	PUPIL	1143	n/a	-1	1	1.0	1.0	upper	../fonts/Verdana.ttf
2121358	REC_START	n/a	LTP233	ltpFR	18	13	n/a	n/a	n/a	n/a	n/a	n/a	n/a	n/a	n/a	n/a
2123373	REC_WORD	wordpools/wasnorm_wordpool_less_exclusions.txt	LTP233	ltpFR	18	13	-1	PUPIL	1143	n/a	-1	n/a	n/a	n/a	n/a	n/a
2124136	REC_WORD	wordpools/wasnorm_wordpool_less_exclusions.txt	LTP233	ltpFR	18	13	-1	BUCKET	184	n/a	-1	n/a	n/a	n/a	n/a	n/a
2124950	REC_WORD	wordpools/wasnorm_wordpool_less_exclusions.txt	LTP233	ltpFR	18	13	-1	CASTLE	256	n/a	-1	n/a	n/a	n/a	n/a	n/a
2125743	REC_WORD	wordpools/wasnorm_wordpool_less_exclusions.txt	LTP233	ltpFR	18	13	-1	SCROLL	1257	n/a	-1	n/a	n/a	n/a	n/a	n/a
2129090	REC_WORD	wordpools/wasnorm_wordpool_less_exclusions.txt	LTP233	ltpFR	18	13	-1	GOO	648	n/a	-1	n/a	n/a	n/a	n/a	n/a
2129799	REC_WORD	wordpools/wasnorm_wordpool_less_exclusions.txt	LTP233	ltpFR	18	13	-1	BRAN	167	n/a	-1	n/a	n/a	n/a	n/a	n/a
2213387	WORD	wordpools/wasnorm_wordpool_less_exclusions.txt	LTP233	ltpFR	18	14	0	CONTRACT	368	n/a	0	1	0.412841796875	0.57763671875	lower	../fonts/amplitud.ttf
2217569	WORD	wordpools/wasnorm_wordpool_less_exclusions.txt	LTP233	ltpFR	18	14	0	HAMMOCK	681	n/a	1	1	0.412841796875	0.57763671875	lower	../fonts/amplitud.ttf
2221680	WORD	wordpools/wasnorm_wordpool_less_exclusions.txt	LTP233	ltpFR	18	14	0	CARTON	251	n/a	0	1	0.412841796875	0.57763671875	lower	../fonts/amplitud.ttf
2225662	WORD	wordpools/wasnorm_wordpool_less_exclusions.txt	LTP233	ltpFR	18	14	1	SCREW	1254	n/a	0	0	0.5869140625	0.422607421875	upper	../fonts/zerothre.ttf
2229648	WORD	wordpools/wasnorm_wordpool_less_exclusions.txt	LTP233	ltpFR	18	14	1	SCREWDRIVER	1255	n/a	0	0	0.5869140625	0.422607421875	upper	../fonts/zerothre.ttf
2233642	WORD	wordpools/wasnorm_wordpool_less_exclusions.txt	LTP233	ltpFR	18	14	1	ASH	44	n/a	0	0	0.5869140625	0.422607421875	upper	../fonts/zerothre.ttf
2237858	WORD	wordpools/wasnorm_wordpool_less_exclusions.txt	LTP233	ltpFR	18	14	1	SERPENT	1270	n/a	0	0	0.5869140625	0.422607421875	upper	../fonts/zerothre.ttf
2242062	WORD	wordpools/wasnorm_wordpool_less_exclusions.txt	LTP233	ltpFR	18	14	1	ENGINEER	536	n/a	1	0	0.5869140625	0.422607421875	upper	../fonts/zerothre.ttf
2245910	WORD	wordpools/wasnorm_wordpool_less_exclusions.txt	LTP233	ltpFR	18	14	1	COSTUME	383	n/a	0	0	0.5869140625	0.422607421875	upper	../fonts/zerothre.ttf
2250038	WORD	wordpools/wasnorm_wordpool_less_exclusions.txt	LTP233	ltpFR	18	14	0	SNAKE	1333	n/a	0	1	0.412841796875	0.57763671875	lower	../fonts/amplitud.ttf
2253940	WORD	wordpools/wasnorm_wordpool_less_exclusions.txt	LTP233	ltpFR	18	14	0	CONTINENT	367	n/a	1	1	0.412841796875	0.57763671875	lower	../fonts/amplitud.ttf
2257935	WORD	wordpools/wasnorm_wordpool_less_exclusions.txt	LTP233	ltpFR	18	14	0	RICE	1190	n/a	0	1	0.412841796875	0.57763671875	lower	../fonts/amplitud.ttf
2261802	WORD	wordpools/wasnorm_wordpool_less_exclusions.txt	LTP233	ltpFR	18	14	1	HOSTESS	723	n/a	1	0	0.5869140625	0.422607421875	upper	../fonts/zerothre.ttf
2265948	WORD	wordpools/wasnorm_wordpool_less_exclusions.txt	LTP233	ltpFR	18	14	1	HINGE	709	n/a	0	0	0.5869140625	0.422607421875	upper	../fonts/zerothre.ttf
2270047	WORD	wordpools/wasnorm_wordpool_less_exclusions.txt	LTP233	ltpFR	18	14	0	STEWARDESS	1381	n/a	1	1	0.412841796875	0.57763671875	lower	../fonts/amplitud.ttf
2274183	WORD	wordpools/wasnorm_wordpool_less_exclusions.txt	LTP233	ltpFR	18	14	0	PILOT	1070	n/a	0	1	0.412841796875	0.57763671875	lower	../fonts/amplitud.ttf
2280123	REC_START	n/a	LTP233	ltpFR	18	14	n/a	n/a	n/a	n/a	n/a	n/a	n/a	n/a	n/a	n/a
2280502	REC_WORD	wordpools/wasnorm_wordpool_less_exclusions.txt	LTP233	ltpFR	18	14	0	PILOT	1070	n/a	0	n/a	n/a	n/a	n/a	n/a
2281265	REC_WORD	wordpools/wasnorm_wordpool_less_exclusions.txt	LTP233	ltpFR	18	14	1	HOSTESS	723	n/a	1	n/a	n/a	n/a	n/a	n/a
2282292	REC_WORD	wordpools/wasnorm_wordpool_less_exclusions.txt	LTP233	ltpFR	18	14	0	STEWARDESS	1381	n/a	1	n/a	n/a	n/a	n/a	n/a
2283380	REC_WORD	wordpools/wasnorm_wordpool_less_exclusions.txt	LTP233	ltpFR	18	14	1	HINGE	709	n/a	0	n/a	n/a	n/a	n/a	n/a
2284273	REC_WORD	wordpools/wasnorm_wordpool_less_exclusions.txt	LTP233	ltpFR	18	14	1	SCREW	1254	n/a	0	n/a	n/a	n/a	n/a	n/a
2285341	REC_WORD	wordpools/wasnorm_wordpool_less_exclusions.txt	LTP233	ltpFR	18	14	1	SCREWDRIVER	1255	n/a	0	n/a	n/a	n/a	n/a	n/a
2286902	REC_WORD	wordpools/wasnorm_wordpool_less_exclusions.txt	LTP233	ltpFR	18	14	0	HAMMOCK	681	n/a	1	n/a	n/a	n/a	n/a	n/a
2287945	REC_WORD	wordpools/wasnorm_wordpool_less_exclusions.txt	LTP233	ltpFR	18	14	0	CONTRACT	368	n/a	0	n/a	n/a	n/a	n/a	n/a
2289102	REC_WORD	wordpools/wasnorm_wordpool_less_exclusions.txt	LTP233	ltpFR	18	14	1	ASH	44	n/a	0	n/a	n/a	n/a	n/a	n/a
2289945	REC_WORD	wordpools/wasnorm_wordpool_less_exclusions.txt	LTP233	ltpFR	18	14	1	SERPENT	1270	n/a	0	n/a	n/a	n/a	n/a	n/a
2290958	REC_WORD	wordpools/wasnorm_wordpool_less_exclusions.txt	LTP233	ltpFR	18	14	0	SNAKE	1333	n/a	0	n/a	n/a	n/a	n/a	n/a
2293971	REC_WORD	wordpools/wasnorm_wordpool_less_exclusions.txt	LTP233	ltpFR	18	14	1	ENGINEER	536	n/a	1	n/a	n/a	n/a	n/a	n/a
2358953	WORD	wordpools/wasnorm_wordpool_less_exclusions.txt	LTP233	ltpFR	18	15	0	ATOM	55	n/a	0	1	0.412841796875	0.57763671875	lower	../fonts/amplitud.ttf
2363001	WORD	wordpools/wasnorm_wordpool_less_exclusions.txt	LTP233	ltpFR	18	15	0	TABLET	1427	n/a	0	1	0.412841796875	0.57763671875	lower	../fonts/amplitud.ttf
2367050	WORD	wordpools/wasnorm_wordpool_less_exclusions.txt	LTP233	ltpFR	18	15	0	CONCERT	360	n/a	1	1	0.412841796875	0.57763671875	lower	../fonts/amplitud.ttf
2370914	WORD	wordpools/wasnorm_wordpool_less_exclusions.txt	LTP233	ltpFR	18	15	0	RECORD	1176	n/a	1	1	0.412841796875	0.57763671875	lower	../fonts/amplitud.ttf
2374996	WORD	wordpools/wasnorm_wordpool_less_exclusions.txt	LTP233	ltpFR	18	15	0	BARREL	91	n/a	1	1	0.412841796875	0.57763671875	lower	../fonts/amplitud.ttf
2378991	WORD	wordpools/wasnorm_wordpool_less_exclusions.txt	LTP233	ltpFR	18	15	0	SALOON	1228	n/a	1	1	0.412841796875	0.57763671875	lower	../fonts/amplitud.ttf
2383177	WORD	wordpools/wasnorm_wordpool_less_exclusions.txt	LTP233	ltpFR	18	15	0	PISTON	1076	n/a	1	1	0.412841796875	0.57763671875	lower	../fonts/amplitud.ttf
2387389	WORD	wordpools/wasnorm_wordpool_less_exclusions.txt	LTP233	ltpFR	18	15	0	PEDAL	1037	n/a	0	1	0.412841796875	0.57763671875	lower	../fonts/amplitud.ttf
2391241	WORD	wordpools/wasnorm_wordpool_less_exclusions.txt	LTP233	ltpFR	18	15	0	CAFE	216	n/a	1	1	0.412841796875	0.57763671875	lower	../fonts/amplitud.ttf
2395118	WORD	wordpools/wasnorm_wordpool_less_exclusions.txt	LTP233	ltpFR	18	15	0	VEHICLE	1553	n/a	1	1	0.412841796875	0.57763671875	lower	../fonts/amplitud.ttf
2399117	WORD	wordpools/wasnorm_wordpool_less_exclusions.txt	LTP233	ltpFR	18	15	0	PELICAN	1039	n/a	1	1	0.412841796875	0.57763671875	lower	../fonts/amplitud.ttf
2402968	WORD	wordpools/wasnorm_wordpool_less_exclusions.txt	LTP233	ltpFR	18	15	0	HAWK	692	n/a	1	1	0.412841796875	0.57763671875	lower	../fonts/amplitud.ttf
2407067	WORD	wordpools/wasnorm_wordpool_less_exclusions.txt	LTP233	ltpFR	18	15	0	BASEBALL	93	n/a	0	1	0.412841796875	0.57763671875	lower	../fonts/amplitud.ttf
2410915	WORD	wordpools/wasnorm_wordpool_less_exclusions.txt	LTP233	ltpFR	18	15	0	DESK	452	n/a	1	1	0.412841796875	0.57763671875	lower	../fonts/amplitud.ttf
2415081	WORD	wordpools/wasnorm_wordpool_less_exclusions.txt	LTP233	ltpFR	18	15	0	PENGUIN	1044	n/a	1	1	0.412841796875	0.57763671875	lower	../fonts/amplitud.ttf
2418912	WORD	wordpools/wasnorm_wordpool_less_exclusions.txt	LTP233	ltpFR	18	15	0	CONSOLE	364	n/a	0	1	0.412841796875	0.57763671875	lower	../fonts/amplitud.ttf
2424817	REC_START	n/a	LTP233	ltpFR	18	15	n/a	n/a	n/a	n/a	n/a	n/a	n/a	n/a	n/a	n/a
2425390	REC_WORD	wordpools/wasnorm_wordpool_less_exclusions.txt	LTP233	ltpFR	18	15	0	DESK	452	n/a	1	n/a	n/a	n/a	n/a	n/a
2426064	REC_WORD	wordpools/wasnorm_wordpool_less_exclusions.txt	LTP233	ltpFR	18	15	0	BASEBALL	93	n/a	0	n/a	n/a	n/a	n/a	n/a
2427281	REC_WORD	wordpools/wasnorm_wordpool_less_exclusions.txt	LTP233	ltpFR	18	15	0	PENGUIN	1044	n/a	1	n/a	n/a	n/a	n/a	n/a
2428668	REC_WORD	wordpools/wasnorm_wordpool_less_exclusions.txt	LTP233	ltpFR	18	15	0	CONSOLE	364	n/a	0	n/a	n/a	n/a	n/a	n/a
2430853	REC_WORD	wordpools/wasnorm_wordpool_less_exclusions.txt	LTP233	ltpFR	18	15	0	HAWK	692	n/a	1	n/a	n/a	n/a	n/a	n/a
2431911	REC_WORD	wordpools/wasnorm_wordpool_less_exclusions.txt	LTP233	ltpFR	18	15	0	PELICAN	1039	n/a	1	n/a	n/a	n/a	n/a	n/a
2433442	REC_WORD	wordpools/wasnorm_wordpool_less_exclusions.txt	LTP233	ltpFR	18	15	0	CAFE	216	n/a	1	n/a	n/a	n/a	n/a	n/a
2434485	REC_WORD	wordpools/wasnorm_wordpool_less_exclusions.txt	LTP233	ltpFR	18	15	0	SALOON	1228	n/a	1	n/a	n/a	n/a	n/a	n/a
2436400	REC_WORD	wordpools/wasnorm_wordpool_less_exclusions.txt	LTP233	ltpFR	18	15	0	PISTON	1076	n/a	1	n/a	n/a	n/a	n/a	n/a
2437568	REC_WORD	wordpools/wasnorm_wordpool_less_exclusions.txt	LTP233	ltpFR	18	15	0	BARREL	91	n/a	1	n/a	n/a	n/a	n/a	n/a
2438905	REC_WORD	wordpools/wasnorm_wordpool_less_exclusions.txt	LTP233	ltpFR	18	15	0	RECORD	1176	n/a	1	n/a	n/a	n/a	n/a	n/a
2440960	REC_WORD	wordpools/wasnorm_wordpool_less_exclusions.txt	LTP233	ltpFR	18	15	0	CONCERT	360	n/a	1	n/a	n/a	n/a	n/a	n/a
2442836	REC_WORD	wordpools/wasnorm_wordpool_less_exclusions.txt	LTP233	ltpFR	18	15	n/a	PILL	1068	n/a	n/a	n/a	n/a	n/a	n/a	n/a
2444372	REC_WORD	wordpools/wasnorm_wordpool_less_exclusions.txt	LTP233	ltpFR	18	15	0	ATOM	55	n/a	0	n/a	n/a	n/a	n/a	n/a
2503576	WORD	wordpools/wasnorm_wordpool_less_exclusions.txt	LTP233	ltpFR	18	16	1	LEVER	815	n/a	0	0	0.5869140625	0.422607421875	upper	../fonts/zerothre.ttf
2507695	WORD	wordpools/wasnorm_wordpool_less_exclusions.txt	LTP233	ltpFR	18	16	1	TRACTOR	1493	n/a	1	0	0.5869140625	0.422607421875	upper	../fonts/zerothre.ttf
2511744	WORD	wordpools/wasnorm_wordpool_less_exclusions.txt	LTP233	ltpFR	18	16	1	POTTERY	1116	n/a	0	0	0.5869140625	0.422607421875	upper	../fonts/zerothre.ttf
2515911	WORD	wordpools/wasnorm_wordpool_less_exclusions.txt	LTP233	ltpFR	18	16	1	CINNAMON	310	n/a	0	0	0.5869140625	0.422607421875	upper	../fonts/zerothre.ttf
2519926	WORD	wordpools/wasnorm_wordpool_less_exclusions.txt	LTP233	ltpFR	18	16	1	BOARD	143	n/a	1	0	0.5869140625	0.422607421875	upper	../fonts/zerothre.ttf
2523790	WORD	wordpools/wasnorm_wordpool_less_exclusions.txt	LTP233	ltpFR	18	16	1	DOOR	486	n/a	0	0	0.5869140625	0.422607421875	upper	../fonts/zerothre.ttf
2527986	WORD	wordpools/wasnorm_wordpool_less_exclusions.txt	LTP233	ltpFR	18	16	1	FLY	586	n/a	1	0	0.5869140625	0.422607421875	upper	../fonts/zerothre.ttf
2532172	WORD	wordpools/wasnorm_wordpool_less_exclusions.txt	LTP233	ltpFR	18	16	1	BLUEJAY	141	n/a	1	0	0.5869140625	0.422607421875	upper	../fonts/zerothre.ttf
2536304	WORD	wordpools/wasnorm_wordpool_less_exclusions.txt	LTP233	ltpFR	18	16	1	BAKER	71	n/a	1	0	0.5869140625	0.422607421875	upper	../fonts/zerothre.ttf
2540486	WORD	wordpools/wasnorm_wordpool_less_exclusions.txt	LTP233	ltpFR	18	16	1	BAY	102	n/a	0	0	0.5869140625	0.422607421875	upper	../fonts/zerothre.ttf
2544501	WORD	wordpools/wasnorm_wordpool_less_exclusions.txt	LTP233	ltpFR	18	16	1	STREAM	1392	n/a	0	0	0.5869140625	0.422607421875	upper	../fonts/zerothre.ttf
2548550	WORD	wordpools/wasnorm_wordpool_less_exclusions.txt	LTP233	ltpFR	18	16	1	CATERPILLAR	259	n/a	0	0	0.5869140625	0.422607421875	upper	../fonts/zerothre.ttf
2552715	WORD	wordpools/wasnorm_wordpool_less_exclusions.txt	LTP233	ltpFR	18	16	1	BLACKBOARD	133	n/a	0	0	0.5869140625	0.422607421875	upper	../fonts/zerothre.ttf
2556764	WORD	wordpools/wasnorm_wordpool_less_exclusions.txt	LTP233	ltpFR	18	16	1	GUARD	667	n/a	1	0	0.5869140625	0.422607421875	upper	../fonts/zerothre.ttf
2560812	WORD	wordpools/wasnorm_wordpool_less_exclusions.txt	LTP233	ltpFR	18	16	1	MILITARY	894	n/a	1	0	0.5869140625	0.422607421875	upper	../fonts/zerothre.ttf
2564773	WORD	wordpools/wasnorm_wordpool_less_exclusions.txt	LTP233	ltpFR	18	16	1	TURKEY	1520	n/a	1	0	0.5869140625	0.422607421875	upper	../fonts/zerothre.ttf
2570684	REC_START	n/a	LTP233	ltpFR	18	16	n/a	n/a	n/a	n/a	n/a	n/a	n/a	n/a	n/a	n/a
2571342	REC_WORD	wordpools/wasnorm_wordpool_less_exclusions.txt	LTP233	ltpFR	18	16	1	TURKEY	1520	n/a	1	n/a	n/a	n/a	n/a	n/a
2572280	REC_WORD	wordpools/wasnorm_wordpool_less_exclusions.txt	LTP233	ltpFR	18	16	1	MILITARY	894	n/a	1	n/a	n/a	n/a	n/a	n/a
2573911	REC_WORD	wordpools/wasnorm_wordpool_less_exclusions.txt	LTP233	ltpFR	18	16	1	FLY	586	n/a	1	n/a	n/a	n/a	n/a	n/a
2575019	REC_WORD	wordpools/wasnorm_wordpool_less_exclusions.txt	LTP233	ltpFR	18	16	1	DOOR	486	n/a	0	n/a	n/a	n/a	n/a	n/a
2576371	REC_WORD	wordpools/wasnorm_wordpool_less_exclusions.txt	LTP233	ltpFR	18	16	1	CINNAMON	310	n/a	0	n/a	n/a	n/a	n/a	n/a
2580821	REC_WORD	wordpools/wasnorm_wordpool_less_exclusions.txt	LTP233	ltpFR	18	16	1	TRACTOR	1493	n/a	1	n/a	n/a	n/a	n/a	n/a
2582133	REC_WORD	wordpools/wasnorm_wordpool_less_exclusions.txt	LTP233	ltpFR	18	16	1	BLUEJAY	141	n/a	1	n/a	n/a	n/a	n/a	n/a
2585510	REC_WORD	wordpools/wasnorm_wordpool_less_exclusions.txt	LTP233	ltpFR	18	16	1	BOARD	143	n/a	1	n/a	n/a	n/a	n/a	n/a
2591501	REC_WORD	wordpools/wasnorm_wordpool_less_exclusions.txt	LTP233	ltpFR	18	16	1	LEVER	815	n/a	0	n/a	n/a	n/a	n/a	n/a
2593397	REC_WORD	wordpools/wasnorm_wordpool_less_exclusions.txt	LTP233	ltpFR	18	16	1	POTTERY	1116	n/a	0	n/a	n/a	n/a	n/a	n/a
2655019	REC_START	n/a	LTP233	ltpFR	18	n/a	n/a	n/a	n/a	n/a	n/a	n/a	n/a	n/a	n/a	n/a
2656585	FFR_REC_WORD	wordpools/wasnorm_wordpool_less_exclusions.txt	LTP233	ltpFR	18	n/a	1	BLUEJAY	141	n/a	1	n/a	n/a	n/a	n/a	n/a
2657583	FFR_REC_WORD	wordpools/wasnorm_wordpool_less_exclusions.txt	LTP233	ltpFR	18	n/a	1	FLY	586	n/a	1	n/a	n/a	n/a	n/a	n/a
2659080	FFR_REC_WORD	wordpools/wasnorm_wordpool_less_exclusions.txt	LTP233	ltpFR	18	n/a	1	TRACTOR	1493	n/a	1	n/a	n/a	n/a	n/a	n/a
2666473	FFR_REC_WORD	wordpools/wasnorm_wordpool_less_exclusions.txt	LTP233	ltpFR	18	n/a	1	CINNAMON	310	n/a	0	n/a	n/a	n/a	n/a	n/a
2671461	FFR_REC_WORD	wordpools/wasnorm_wordpool_less_exclusions.txt	LTP233	ltpFR	18	n/a	1	BOARD	143	n/a	1	n/a	n/a	n/a	n/a	n/a
2674859	FFR_REC_WORD	wordpools/wasnorm_wordpool_less_exclusions.txt	LTP233	ltpFR	18	n/a	1	LEVER	815	n/a	0	n/a	n/a	n/a	n/a	n/a
2676774	FFR_REC_WORD	wordpools/wasnorm_wordpool_less_exclusions.txt	LTP233	ltpFR	18	n/a	1	POTTERY	1116	n/a	0	n/a	n/a	n/a	n/a	n/a
2685325	FFR_REC_WORD	wordpools/wasnorm_wordpool_less_exclusions.txt	LTP233	ltpFR	18	n/a	-1	CASTLE	256	n/a	-1	n/a	n/a	n/a	n/a	n/a
2688622	FFR_REC_WORD	wordpools/wasnorm_wordpool_less_exclusions.txt	LTP233	ltpFR	18	n/a	-1	ALLEY	15	n/a	-1	n/a	n/a	n/a	n/a	n/a
2690678	FFR_REC_WORD	wordpools/wasnorm_wordpool_less_exclusions.txt	LTP233	ltpFR	18	n/a	-1	CURB	426	n/a	-1	n/a	n/a	n/a	n/a	n/a
2692249	FFR_REC_WORD	wordpools/wasnorm_wordpool_less_exclusions.txt	LTP233	ltpFR	18	n/a	-1	CREAM	402	n/a	-1	n/a	n/a	n/a	n/a	n/a
2693930	FFR_REC_WORD	wordpools/wasnorm_wordpool_less_exclusions.txt	LTP233	ltpFR	18	n/a	-1	BLACKBERRY	132	n/a	-1	n/a	n/a	n/a	n/a	n/a
2695417	FFR_REC_WORD	wordpools/wasnorm_wordpool_less_exclusions.txt	LTP233	ltpFR	18	n/a	1	BLUEBERRY	140	n/a	0	n/a	n/a	n/a	n/a	n/a
2713376	FFR_REC_WORD	wordpools/wasnorm_wordpool_less_exclusions.txt	LTP233	ltpFR	18	n/a	0	PILOT	1070	n/a	0	n/a	n/a	n/a	n/a	n/a
2714494	FFR_REC_WORD	wordpools/wasnorm_wordpool_less_exclusions.txt	LTP233	ltpFR	18	n/a	0	STEWARDESS	1381	n/a	1	n/a	n/a	n/a	n/a	n/a
2715860	FFR_REC_WORD	wordpools/wasnorm_wordpool_less_exclusions.txt	LTP233	ltpFR	18	n/a	1	HOSTESS	723	n/a	1	n/a	n/a	n/a	n/a	n/a
2718145	FFR_REC_WORD	wordpools/wasnorm_wordpool_less_exclusions.txt	LTP233	ltpFR	18	n/a	0	HAMMOCK	681	n/a	1	n/a	n/a	n/a	n/a	n/a
2719203	FFR_REC_WORD	wordpools/wasnorm_wordpool_less_exclusions.txt	LTP233	ltpFR	18	n/a	1	HINGE	709	n/a	0	n/a	n/a	n/a	n/a	n/a
2720231	FFR_REC_WORD	wordpools/wasnorm_wordpool_less_exclusions.txt	LTP233	ltpFR	18	n/a	1	SCREW	1254	n/a	0	n/a	n/a	n/a	n/a	n/a
2721572	FFR_REC_WORD	wordpools/wasnorm_wordpool_less_exclusions.txt	LTP233	ltpFR	18	n/a	1	SCREWDRIVER	1255	n/a	0	n/a	n/a	n/a	n/a	n/a
2723234	FFR_REC_WORD	wordpools/wasnorm_wordpool_less_exclusions.txt	LTP233	ltpFR	18	n/a	1	ENGINEER	536	n/a	1	n/a	n/a	n/a	n/a	n/a
2724635	FFR_REC_WORD	wordpools/wasnorm_wordpool_less_exclusions.txt	LTP233	ltpFR	18	n/a	-1	ARCHITECT	36	n/a	-1	n/a	n/a	n/a	n/a	n/a
2727414	FFR_REC_WORD	wordpools/wasnorm_wordpool_less_exclusions.txt	LTP233	ltpFR	18	n/a	0	BANKER	84	n/a	1	n/a	n/a	n/a	n/a	n/a
2734049	FFR_REC_WORD	wordpools/wasnorm_wordpool_less_exclusions.txt	LTP233	ltpFR	18	n/a	0	HAWK	692	n/a	1	n/a	n/a	n/a	n/a	n/a
2735187	FFR_REC_WORD	wordpools/wasnorm_wordpool_less_exclusions.txt	LTP233	ltpFR	18	n/a	0	PELICAN	1039	n/a	1	n/a	n/a	n/a	n/a	n/a
2737456	FFR_REC_WORD	wordpools/wasnorm_wordpool_less_exclusions.txt	LTP233	ltpFR	18	n/a	0	CAFE	216	n/a	1	n/a	n/a	n/a	n/a	n/a
2738579	FFR_REC_WORD	wordpools/wasnorm_wordpool_less_exclusions.txt	LTP233	ltpFR	18	n/a	0	SALOON	1228	n/a	1	n/a	n/a	n/a	n/a	n/a
2740195	FFR_REC_WORD	wordpools/wasnorm_wordpool_less_exclusions.txt	LTP233	ltpFR	18	n/a	0	BARREL	91	n/a	1	n/a	n/a	n/a	n/a	n/a
2741343	FFR_REC_WORD	wordpools/wasnorm_wordpool_less_exclusions.txt	LTP233	ltpFR	18	n/a	0	RECORD	1176	n/a	1	n/a	n/a	n/a	n/a	n/a
2745488	FFR_REC_WORD	wordpools/wasnorm_wordpool_less_exclusions.txt	LTP233	ltpFR	18	n/a	0	CONCERT	360	n/a	1	n/a	n/a	n/a	n/a	n/a
2748726	FFR_REC_WORD	wordpools/wasnorm_wordpool_less_exclusions.txt	LTP233	ltpFR	18	n/a	n/a	PILL	1068	n/a	n/a	n/a	n/a	n/a	n/a	n/a
2749778	FFR_REC_WORD	wordpools/wasnorm_wordpool_less_exclusions.txt	LTP233	ltpFR	18	n/a	0	ATOM	55	n/a	0	n/a	n/a	n/a	n/a	n/a
2754992	FFR_REC_WORD	wordpools/wasnorm_wordpool_less_exclusions.txt	LTP233	ltpFR	18	n/a	-1	HAY	693	n/a	-1	n/a	n/a	n/a	n/a	n/a
2757221	FFR_REC_WORD	wordpools/wasnorm_wordpool_less_exclusions.txt	LTP233	ltpFR	18	n/a	-1	BRAKE	166	n/a	-1	n/a	n/a	n/a	n/a	n/a
2758539	FFR_REC_WORD	wordpools/wasnorm_wordpool_less_exclusions.txt	LTP233	ltpFR	18	n/a	0	PEDAL	1037	n/a	0	n/a	n/a	n/a	n/a	n/a
2759890	FFR_REC_WORD	wordpools/wasnorm_wordpool_less_exclusions.txt	LTP233	ltpFR	18	n/a	-1	CAR	241	n/a	-1	n/a	n/a	n/a	n/a	n/a
2761202	FFR_REC_WORD	wordpools/wasnorm_wordpool_less_exclusions.txt	LTP233	ltpFR	18	n/a	-1	COLUMN	350	n/a	-1	n/a	n/a	n/a	n/a	n/a
2772676	FFR_REC_WORD	wordpools/wasnorm_wordpool_less_exclusions.txt	LTP233	ltpFR	18	n/a	-1	SCROLL	1257	n/a	-1	n/a	n/a	n/a	n/a	n/a
2775899	FFR_REC_WORD	wordpools/wasnorm_wordpool_less_exclusions.txt	LTP233	ltpFR	18	n/a	0	PISTON	1076	n/a	1	n/a	n/a	n/a	n/a	n/a
2796482	FFR_REC_WORD	wordpools/wasnorm_wordpool_less_exclusions.txt	LTP233	ltpFR	18	n/a	-1	OX	994	n/a	-1	n/a	n/a	n/a	n/a	n/a
2797355	FFR_REC_WORD	wordpools/wasnorm_wordpool_less_exclusions.txt	LTP233	ltpFR	18	n/a	-1	PADDLE	1000	n/a	-1	n/a	n/a	n/a	n/a	n/a
2798438	FFR_REC_WORD	wordpools/wasnorm_wordpool_less_exclusions.txt	LTP233	ltpFR	18	n/a	-1	COURT	391	n/a	-1	n/a	n/a	n/a	n/a	n/a
2799575	FFR_REC_WORD	wordpools/wasnorm_wordpool_less_exclusions.txt	LTP233	ltpFR	18	n/a	-1	UNIVERSE	1540	n/a	-1	n/a	n/a	n/a	n/a	n/a
2929041	FFR_REC_WORD	wordpools/wasnorm_wordpool_less_exclusions.txt	LTP233	ltpFR	18	n/a	-1	RAISIN	1163	n/a	-1	n/a	n/a	n/a	n/a	n/a
2942331	FFR_REC_WORD	wordpools/wasnorm_wordpool_less_exclusions.txt	LTP233	ltpFR	18	n/a	0	VICTOR	1563	n/a	1	n/a	n/a	n/a	n/a	n/a
2943902	FFR_REC_WORD	wordpools/wasnorm_wordpool_less_exclusions.txt	LTP233	ltpFR	18	n/a	1	CHAMPION	279	n/a	1	n/a	n/a	n/a	n/a	n/a
2947808	FFR_REC_WORD	wordpools/wasnorm_wordpool_less_exclusions.txt	LTP233	ltpFR	18	n/a	1	HERO	706	n/a	1	n/a	n/a	n/a	n/a	n/a
2948646	FFR_REC_WORD	wordpools/wasnorm_wordpool_less_exclusions.txt	LTP233	ltpFR	18	n/a	1	TORCH	1484	n/a	0	n/a	n/a	n/a	n/a	n/a
2949854	FFR_REC_WORD	wordpools/wasnorm_wordpool_less_exclusions.txt	LTP233	ltpFR	18	n/a	1	NEPTUNE	943	n/a	0	n/a	n/a	n/a	n/a	n/a
2954004	FFR_REC_WORD	wordpools/wasnorm_wordpool_less_exclusions.txt	LTP233	ltpFR	18	n/a	1	PEOPLE	1046	n/a	1	n/a	n/a	n/a	n/a	n/a
2954817	FFR_REC_WORD_VV	wordpools/wasnorm_wordpool_less_exclusions.txt	LTP233	ltpFR	18	n/a	n/a	<>	-1	n/a	n/a	n/a	n/a	n/a	n/a	n/a
2978037	REC_START	n/a	LTP233	ltpFR	18	1	n/a	n/a	n/a	n/a	n/a	n/a	n/a	n/a	n/a	n/a
2978086	RECOG_TARGET	n/a	LTP233	ltpFR	18	1	0	MECHANIC	884	5	1	n/a	n/a	n/a	n/a	n/a
2979477	RECOG_RESP	n/a	LTP233	ltpFR	18	1	0	MECHANIC	884	n/a	1	n/a	n/a	n/a	n/a	n/a
2980125	RECOG_CONF	n/a	LTP233	ltpFR	18	1	0	MECHANIC	884	5	1	n/a	n/a	n/a	n/a	n/a
2981829	RECOG_LURE	n/a	LTP233	ltpFR	18	1	n/a	CANARY	227	3	n/a	n/a	n/a	n/a	n/a	n/a
2982719	RECOG_RESP	n/a	LTP233	ltpFR	18	1	n/a	CANARY	227	n/a	n/a	n/a	n/a	n/a	n/a	n/a
2983593	RECOG_CONF	n/a	LTP233	ltpFR	18	1	n/a	CANARY	227	3	n/a	n/a	n/a	n/a	n/a	n/a
2985263	RECOG_TARGET	n/a	LTP233	ltpFR	18	1	1	TAPE	1433	5	0	n/a	n/a	n/a	n/a	n/a
2985974	RECOG_RESP	n/a	LTP233	ltpFR	18	1	1	TAPE	1433	n/a	0	n/a	n/a	n/a	n/a	n/a
2986470	RECOG_CONF	n/a	LTP233	ltpFR	18	1	1	TAPE	1433	5	0	n/a	n/a	n/a	n/a	n/a
2988174	RECOG_TARGET	n/a	LTP233	ltpFR	18	1	0	SHELF	1280	5	1	n/a	n/a	n/a	n/a	n/a
2988757	RECOG_RESP	n/a	LTP233	ltpFR	18	1	0	SHELF	1280	n/a	1	n/a	n/a	n/a	n/a	n/a
2989170	RECOG_CONF	n/a	LTP233	ltpFR	18	1	0	SHELF	1280	5	1	n/a	n/a	n/a	n/a	n/a
2990749	RECOG_TARGET	n/a	LTP233	ltpFR	18	1	1	SERPENT	1270	5	0	n/a	n/a	n/a	n/a	n/a
2991324	RECOG_RESP	n/a	LTP233	ltpFR	18	1	1	SERPENT	1270	n/a	0	n/a	n/a	n/a	n/a	n/a
2991791	RECOG_CONF	n/a	LTP233	ltpFR	18	1	1	SERPENT	1270	5	0	n/a	n/a	n/a	n/a	n/a
2993526	RECOG_TARGET	n/a	LTP233	ltpFR	18	1	-1	CREAM	402	5	-1	n/a	n/a	n/a	n/a	n/a
2994070	RECOG_RESP	n/a	LTP233	ltpFR	18	1	-1	CREAM	402	n/a	-1	n/a	n/a	n/a	n/a	n/a
2994466	RECOG_CONF	n/a	LTP233	ltpFR	18	1	-1	CREAM	402	5	-1	n/a	n/a	n/a	n/a	n/a
2996204	RECOG_TARGET	n/a	LTP233	ltpFR	18	1	0	ALMOND	18	5	0	n/a	n/a	n/a	n/a	n/a
2996717	RECOG_RESP	n/a	LTP233	ltpFR	18	1	0	ALMOND	18	n/a	0	n/a	n/a	n/a	n/a	n/a
2997129	RECOG_CONF	n/a	LTP233	ltpFR	18	1	0	ALMOND	18	5	0	n/a	n/a	n/a	n/a	n/a
2998914	RECOG_TARGET	n/a	LTP233	ltpFR	18	1	0	HAWK	692	5	1	n/a	n/a	n/a	n/a	n/a
2999460	RECOG_RESP	n/a	LTP233	ltpFR	18	1	0	HAWK	692	n/a	1	n/a	n/a	n/a	n/a	n/a
2999847	RECOG_CONF	n/a	LTP233	ltpFR	18	1	0	HAWK	692	5	1	n/a	n/a	n/a	n/a	n/a
3001657	RECOG_LURE	n/a	LTP233	ltpFR	18	1	n/a	FRIEND	606	3	n/a	n/a	n/a	n/a	n/a	n/a
3002272	RECOG_RESP	n/a	LTP233	ltpFR	18	1	n/a	FRIEND	606	n/a	n/a	n/a	n/a	n/a	n/a	n/a
3002741	RECOG_CONF	n/a	LTP233	ltpFR	18	1	n/a	FRIEND	606	3	n/a	n/a	n/a	n/a	n/a	n/a
3004451	RECOG_LURE	n/a	LTP233	ltpFR	18	1	n/a	STAMP	1370	5	n/a	n/a	n/a	n/a	n/a	n/a
3005221	RECOG_RESP	n/a	LTP233	ltpFR	18	1	n/a	STAMP	1370	n/a	n/a	n/a	n/a	n/a	n/a	n/a
3005716	RECOG_CONF	n/a	LTP233	ltpFR	18	1	n/a	STAMP	1370	5	n/a	n/a	n/a	n/a	n/a	n/a
3007445	RECOG_TARGET	n/a	LTP233	ltpFR	18	1	1	WINDSHIELD	1612	1	1	n/a	n/a	n/a	n/a	n/a
3008173	RECOG_RESP_VV	n/a	LTP233	ltpFR	18	1	1	WINDSHIELD	1612	n/a	1	n/a	n/a	n/a	n/a	n/a
3008745	RECOG_RESP	n/a	LTP233	ltpFR	18	1	1	WINDSHIELD	1612	n/a	1	n/a	n/a	n/a	n/a	n/a
3009401	RECOG_CONF	n/a	LTP233	ltpFR	18	1	1	WINDSHIELD	1612	1	1	n/a	n/a	n/a	n/a	n/a
3011043	RECOG_TARGET	n/a	LTP233	ltpFR	18	1	1	GALAXY	617	5	0	n/a	n/a	n/a	n/a	n/a
3011814	RECOG_RESP	n/a	LTP233	ltpFR	18	1	1	GALAXY	617	n/a	0	n/a	n/a	n/a	n/a	n/a
3012225	RECOG_CONF	n/a	LTP233	ltpFR	18	1	1	GALAXY	617	5	0	n/a	n/a	n/a	n/a	n/a
3013921	RECOG_LURE	n/a	LTP233	ltpFR	18	1	n/a	TOY	1492	1	n/a	n/a	n/a	n/a	n/a	n/a
3014797	RECOG_RESP	n/a	LTP233	ltpFR	18	1	n/a	TOY	1492	n/a	n/a	n/a	n/a	n/a	n/a	n/a
3015372	RECOG_CONF	n/a	LTP233	ltpFR	18	1	n/a	TOY	1492	1	n/a	n/a	n/a	n/a	n/a	n/a
3016945	RECOG_LURE	n/a	LTP233	ltpFR	18	1	n/a	RABBIT	1152	1	n/a	n/a	n/a	n/a	n/a	n/a
3017771	RECOG_RESP	n/a	LTP233	ltpFR	18	1	n/a	RABBIT	1152	n/a	n/a	n/a	n/a	n/a	n/a	n/a
3018347	RECOG_CONF	n/a	LTP233	ltpFR	18	1	n/a	RABBIT	1152	1	n/a	n/a	n/a	n/a	n/a	n/a
3019892	RECOG_TARGET	n/a	LTP233	ltpFR	18	1	0	DESK	452	3	1	n/a	n/a	n/a	n/a	n/a
3020763	RECOG_RESP	n/a	LTP233	ltpFR	18	1	0	DESK	452	n/a	1	n/a	n/a	n/a	n/a	n/a
3021269	RECOG_CONF	n/a	LTP233	ltpFR	18	1	0	DESK	452	3	1	n/a	n/a	n/a	n/a	n/a
3022972	RECOG_TARGET	n/a	LTP233	ltpFR	18	1	0	SUPERVISOR	1410	1	0	n/a	n/a	n/a	n/a	n/a
3025314	RECOG_RESP	n/a	LTP233	ltpFR	18	1	0	SUPERVISOR	1410	n/a	0	n/a	n/a	n/a	n/a	n/a
3025869	RECOG_CONF	n/a	LTP233	ltpFR	18	1	0	SUPERVISOR	1410	1	0	n/a	n/a	n/a	n/a	n/a
3027739	RECOG_LURE	n/a	LTP233	ltpFR	18	1	n/a	SLOPE	1328	1	n/a	n/a	n/a	n/a	n/a	n/a
3028695	RECOG_RESP	n/a	LTP233	ltpFR	18	1	n/a	SLOPE	1328	n/a	n/a	n/a	n/a	n/a	n/a	n/a
3029226	RECOG_CONF	n/a	LTP233	ltpFR	18	1	n/a	SLOPE	1328	1	n/a	n/a	n/a	n/a	n/a	n/a
3031082	RECOG_LURE	n/a	LTP233	ltpFR	18	1	n/a	COW	393	3	n/a	n/a	n/a	n/a	n/a	n/a
3031961	RECOG_RESP	n/a	LTP233	ltpFR	18	1	n/a	COW	393	n/a	n/a	n/a	n/a	n/a	n/a	n/a
3032488	RECOG_CONF	n/a	LTP233	ltpFR	18	1	n/a	COW	393	3	n/a	n/a	n/a	n/a	n/a	n/a
3034181	RECOG_TARGET	n/a	LTP233	ltpFR	18	1	-1	SILVERWARE	1308	5	-1	n/a	n/a	n/a	n/a	n/a
3035687	RECOG_RESP	n/a	LTP233	ltpFR	18	1	-1	SILVERWARE	1308	n/a	-1	n/a	n/a	n/a	n/a	n/a
3036051	RECOG_CONF	n/a	LTP233	ltpFR	18	1	-1	SILVERWARE	1308	5	-1	n/a	n/a	n/a	n/a	n/a
3037777	RECOG_TARGET	n/a	LTP233	ltpFR	18	1	1	NEPTUNE	943	5	0	n/a	n/a	n/a	n/a	n/a
3038606	RECOG_RESP	n/a	LTP233	ltpFR	18	1	1	NEPTUNE	943	n/a	0	n/a	n/a	n/a	n/a	n/a
3039012	RECOG_CONF	n/a	LTP233	ltpFR	18	1	1	NEPTUNE	943	5	0	n/a	n/a	n/a	n/a	n/a
3042188	REC_START	n/a	LTP233	ltpFR	18	2	n/a	n/a	n/a	n/a	n/a	n/a	n/a	n/a	n/a	n/a
3042244	RECOG_LURE	n/a	LTP233	ltpFR	18	2	n/a	UTENSIL	1542	1	n/a	n/a	n/a	n/a	n/a	n/a
3042876	RECOG_RESP_VV	n/a	LTP233	ltpFR	18	2	n/a	UTENSIL	1542	n/a	n/a	n/a	n/a	n/a	n/a	n/a
3046348	RECOG_RESP	n/a	LTP233	ltpFR	18	2	n/a	UTENSIL	1542	n/a	n/a	n/a	n/a	n/a	n/a	n/a
3046879	RECOG_CONF	n/a	LTP233	ltpFR	18	2	n/a	UTENSIL	1542	1	n/a	n/a	n/a	n/a	n/a	n/a
3048634	RECOG_LURE	n/a	LTP233	ltpFR	18	2	n/a	COUCH	386	5	n/a	n/a	n/a	n/a	n/a	n/a
3049251	RECOG_RESP	n/a	LTP233	ltpFR	18	2	n/a	COUCH	386	n/a	n/a	n/a	n/a	n/a	n/a	n/a
3049729	RECOG_CONF	n/a	LTP233	ltpFR	18	2	n/a	COUCH	386	5	n/a	n/a	n/a	n/a	n/a	n/a
3051428	RECOG_TARGET	n/a	LTP233	ltpFR	18	2	-1	NIECE	952	5	-1	n/a	n/a	n/a	n/a	n/a
3053907	RECOG_RESP	n/a	LTP233	ltpFR	18	2	-1	NIECE	952	n/a	-1	n/a	n/a	n/a	n/a	n/a
3054346	RECOG_CONF	n/a	LTP233	ltpFR	18	2	-1	NIECE	952	5	-1	n/a	n/a	n/a	n/a	n/a
3056147	RECOG_TARGET	n/a	LTP233	ltpFR	18	2	1	MOB	904	5	1	n/a	n/a	n/a	n/a	n/a
3056803	RECOG_RESP	n/a	LTP233	ltpFR	18	2	1	MOB	904	n/a	1	n/a	n/a	n/a	n/a	n/a
3057241	RECOG_CONF	n/a	LTP233	ltpFR	18	2	1	MOB	904	5	1	n/a	n/a	n/a	n/a	n/a
3059041	RECOG_TARGET	n/a	LTP233	ltpFR	18	2	0	RECIPE	1175	5	0	n/a	n/a	n/a	n/a	n/a
3059668	RECOG_RESP	n/a	LTP233	ltpFR	18	2	0	RECIPE	1175	n/a	0	n/a	n/a	n/a	n/a	n/a
3060111	RECOG_CONF	n/a	LTP233	ltpFR	18	2	0	RECIPE	1175	5	0	n/a	n/a	n/a	n/a	n/a
3061784	RECOG_LURE	n/a	LTP233	ltpFR	18	2	n/a	FEATHER	557	1	n/a	n/a	n/a	n/a	n/a	n/a
3062475	RECOG_RESP_VV	n/a	LTP233	ltpFR	18	2	n/a	FEATHER	557	n/a	n/a	n/a	n/a	n/a	n/a	n/a
3063391	RECOG_RESP	n/a	LTP233	ltpFR	18	2	n/a	FEATHER	557	n/a	n/a	n/a	n/a	n/a	n/a	n/a
3063952	RECOG_CONF	n/a	LTP233	ltpFR	18	2	n/a	FEATHER	557	1	n/a	n/a	n/a	n/a	n/a	n/a
3065765	RECOG_TARGET	n/a	LTP233	ltpFR	18	2	1	COSTUME	383	3	0	n/a	n/a	n/a	n/a	n/a
3066535	RECOG_RESP	n/a	LTP233	ltpFR	18	2	1	COSTUME	383	n/a	0	n/a	n/a	n/a	n/a	n/a
3067046	RECOG_CONF	n/a	LTP233	ltpFR	18	2	1	COSTUME	383	3	0	n/a	n/a	n/a	n/a	n/a
3068693	RECOG_LURE	n/a	LTP233	ltpFR	18	2	n/a	PAD	998	1	n/a	n/a	n/a	n/a	n/a	n/a
3069278	RECOG_RESP	n/a	LTP233	ltpFR	18	2	n/a	PAD	998	n/a	n/a	n/a	n/a	n/a	n/a	n/a
3069811	RECOG_CONF	n/a	LTP233	ltpFR	18	2	n/a	PAD	998	1	n/a	n/a	n/a	n/a	n/a	n/a
3071420	RECOG_TARGET	n/a	LTP233	ltpFR	18	2	-1	BLACKBERRY	132	5	-1	n/a	n/a	n/a	n/a	n/a
3072029	RECOG_RESP	n/a	LTP233	ltpFR	18	2	-1	BLACKBERRY	132	n/a	-1	n/a	n/a	n/a	n/a	n/a
3072411	RECOG_CONF	n/a	LTP233	ltpFR	18	2	-1	BLACKBERRY	132	5	-1	n/a	n/a	n/a	n/a	n/a
3074148	RECOG_TARGET	n/a	LTP233	ltpFR	18	2	1	CONDUCTOR	362	2	1	n/a	n/a	n/a	n/a	n/a
3075095	RECOG_RESP_VV	n/a	LTP233	ltpFR	18	2	1	CONDUCTOR	362	n/a	1	n/a	n/a	n/a	n/a	n/a
3076517	RECOG_RESP	n/a	LTP233	ltpFR	18	2	1	CONDUCTOR	362	n/a	1	n/a	n/a	n/a	n/a	n/a
3077223	RECOG_CONF	n/a	LTP233	ltpFR	18	2	1	CONDUCTOR	362	2	1	n/a	n/a	n/a	n/a	n/a
3078861	RECOG_LURE	n/a	LTP233	ltpFR	18	2	n/a	PLUTO	1092	5	n/a	n/a	n/a	n/a	n/a	n/a
3079725	RECOG_RESP	n/a	LTP233	ltpFR	18	2	n/a	PLUTO	1092	n/a	n/a	n/a	n/a	n/a	n/a	n/a
3080119	RECOG_CONF	n/a	LTP233	ltpFR	18	2	n/a	PLUTO	1092	5	n/a	n/a	n/a	n/a	n/a	n/a
3081642	RECOG_TARGET	n/a	LTP233	ltpFR	18	2	1	ELEVATOR	524	5	0	n/a	n/a	n/a	n/a	n/a
3082279	RECOG_RESP	n/a	LTP233	ltpFR	18	2	1	ELEVATOR	524	n/a	0	n/a	n/a	n/a	n/a	n/a
3082640	RECOG_CONF	n/a	LTP233	ltpFR	18	2	1	ELEVATOR	524	5	0	n/a	n/a	n/a	n/a	n/a
3084286	RECOG_TARGET	n/a	LTP233	ltpFR	18	2	-1	GRILL	661	5	-1	n/a	n/a	n/a	n/a	n/a
3084843	RECOG_RESP	n/a	LTP233	ltpFR	18	2	-1	GRILL	661	n/a	-1	n/a	n/a	n/a	n/a	n/a
3085262	RECOG_CONF	n/a	LTP233	ltpFR	18	2	-1	GRILL	661	5	-1	n/a	n/a	n/a	n/a	n/a
3086895	RECOG_LURE	n/a	LTP233	ltpFR	18	2	n/a	DRUM	502	5	n/a	n/a	n/a	n/a	n/a	n/a
3087742	RECOG_RESP	n/a	LTP233	ltpFR	18	2	n/a	DRUM	502	n/a	n/a	n/a	n/a	n/a	n/a	n/a
3088142	RECOG_CONF	n/a	LTP233	ltpFR	18	2	n/a	DRUM	502	5	n/a	n/a	n/a	n/a	n/a	n/a
3089806	RECOG_TARGET	n/a	LTP233	ltpFR	18	2	-1	BRAKE	166	5	-1	n/a	n/a	n/a	n/a	n/a
3090262	RECOG_RESP	n/a	LTP233	ltpFR	18	2	-1	BRAKE	166	n/a	-1	n/a	n/a	n/a	n/a	n/a
3090650	RECOG_CONF	n/a	LTP233	ltpFR	18	2	-1	BRAKE	166	5	-1	n/a	n/a	n/a	n/a	n/a
3092300	RECOG_TARGET	n/a	LTP233	ltpFR	18	2	0	TABLET	1427	5	0	n/a	n/a	n/a	n/a	n/a
3092878	RECOG_RESP	n/a	LTP233	ltpFR	18	2	0	TABLET	1427	n/a	0	n/a	n/a	n/a	n/a	n/a
3093245	RECOG_CONF	n/a	LTP233	ltpFR	18	2	0	TABLET	1427	5	0	n/a	n/a	n/a	n/a	n/a
3094892	RECOG_TARGET	n/a	LTP233	ltpFR	18	2	-1	BUN	197	5	-1	n/a	n/a	n/a	n/a	n/a
3096316	RECOG_RESP	n/a	LTP233	ltpFR	18	2	-1	BUN	197	n/a	-1	n/a	n/a	n/a	n/a	n/a
3096675	RECOG_CONF	n/a	LTP233	ltpFR	18	2	-1	BUN	197	5	-1	n/a	n/a	n/a	n/a	n/a
3098389	RECOG_TARGET	n/a	LTP233	ltpFR	18	2	1	VISITOR	1573	2	1	n/a	n/a	n/a	n/a	n/a
3099659	RECOG_RESP	n/a	LTP233	ltpFR	18	2	1	VISITOR	1573	n/a	1	n/a	n/a	n/a	n/a	n/a
3100296	RECOG_CONF	n/a	LTP233	ltpFR	18	2	1	VISITOR	1573	2	1	n/a	n/a	n/a	n/a	n/a
3101818	RECOG_TARGET	n/a	LTP233	ltpFR	18	2	0	SALOON	1228	5	1	n/a	n/a	n/a	n/a	n/a
3102457	RECOG_RESP	n/a	LTP233	ltpFR	18	2	0	SALOON	1228	n/a	1	n/a	n/a	n/a	n/a	n/a
3102867	RECOG_CONF	n/a	LTP233	ltpFR	18	2	0	SALOON	1228	5	1	n/a	n/a	n/a	n/a	n/a
3104578	RECOG_TARGET	n/a	LTP233	ltpFR	18	2	1	BAKER	71	2	1	n/a	n/a	n/a	n/a	n/a
3105789	RECOG_RESP	n/a	LTP233	ltpFR	18	2	1	BAKER	71	n/a	1	n/a	n/a	n/a	n/a	n/a
3106308	RECOG_CONF	n/a	LTP233	ltpFR	18	2	1	BAKER	71	2	1	n/a	n/a	n/a	n/a	n/a
3109251	REC_START	n/a	LTP233	ltpFR	18	3	n/a	n/a	n/a	n/a	n/a	n/a	n/a	n/a	n/a	n/a
3109297	RECOG_TARGET	n/a	LTP233	ltpFR	18	3	1	CRICKET	408	5	0	n/a	n/a	n/a	n/a	n/a
3109921	RECOG_RESP	n/a	LTP233	ltpFR	18	3	1	CRICKET	408	n/a	0	n/a	n/a	n/a	n/a	n/a
3110353	RECOG_CONF	n/a	LTP233	ltpFR	18	3	1	CRICKET	408	5	0	n/a	n/a	n/a	n/a	n/a
3111937	RECOG_TARGET	n/a	LTP233	ltpFR	18	3	-1	BEAST	108	5	-1	n/a	n/a	n/a	n/a	n/a
3112561	RECOG_RESP	n/a	LTP233	ltpFR	18	3	-1	BEAST	108	n/a	-1	n/a	n/a	n/a	n/a	n/a
3112927	RECOG_CONF	n/a	LTP233	ltpFR	18	3	-1	BEAST	108	5	-1	n/a	n/a	n/a	n/a	n/a
3114666	RECOG_TARGET	n/a	LTP233	ltpFR	18	3	0	CUPBOARD	425	5	0	n/a	n/a	n/a	n/a	n/a
3115221	RECOG_RESP	n/a	LTP233	ltpFR	18	3	0	CUPBOARD	425	n/a	0	n/a	n/a	n/a	n/a	n/a
3115606	RECOG_CONF	n/a	LTP233	ltpFR	18	3	0	CUPBOARD	425	5	0	n/a	n/a	n/a	n/a	n/a
3117277	RECOG_TARGET	n/a	LTP233	ltpFR	18	3	1	BLUEJAY	141	5	1	n/a	n/a	n/a	n/a	n/a
3117921	RECOG_RESP	n/a	LTP233	ltpFR	18	3	1	BLUEJAY	141	n/a	1	n/a	n/a	n/a	n/a	n/a
3118296	RECOG_CONF	n/a	LTP233	ltpFR	18	3	1	BLUEJAY	141	5	1	n/a	n/a	n/a	n/a	n/a
3120017	RECOG_LURE	n/a	LTP233	ltpFR	18	3	n/a	QUARTER	1148	5	n/a	n/a	n/a	n/a	n/a	n/a
3120750	RECOG_RESP	n/a	LTP233	ltpFR	18	3	n/a	QUARTER	1148	n/a	n/a	n/a	n/a	n/a	n/a	n/a
3121185	RECOG_CONF	n/a	LTP233	ltpFR	18	3	n/a	QUARTER	1148	5	n/a	n/a	n/a	n/a	n/a	n/a
3122730	RECOG_TARGET	n/a	LTP233	ltpFR	18	3	0	CONTRACT	368	3	0	n/a	n/a	n/a	n/a	n/a
3123998	RECOG_RESP	n/a	LTP233	ltpFR	18	3	0	CONTRACT	368	n/a	0	n/a	n/a	n/a	n/a	n/a
3124475	RECOG_CONF	n/a	LTP233	ltpFR	18	3	0	CONTRACT	368	3	0	n/a	n/a	n/a	n/a	n/a
3126144	RECOG_LURE	n/a	LTP233	ltpFR	18	3	n/a	DOCUMENT	479	1	n/a	n/a	n/a	n/a	n/a	n/a
3126985	RECOG_RESP	n/a	LTP233	ltpFR	18	3	n/a	DOCUMENT	479	n/a	n/a	n/a	n/a	n/a	n/a	n/a
3127538	RECOG_CONF	n/a	LTP233	ltpFR	18	3	n/a	DOCUMENT	479	1	n/a	n/a	n/a	n/a	n/a	n/a
3129105	RECOG_LURE	n/a	LTP233	ltpFR	18	3	n/a	GLOVE	642	1	n/a	n/a	n/a	n/a	n/a	n/a
3129793	RECOG_RESP	n/a	LTP233	ltpFR	18	3	n/a	GLOVE	642	n/a	n/a	n/a	n/a	n/a	n/a	n/a
3130285	RECOG_CONF	n/a	LTP233	ltpFR	18	3	n/a	GLOVE	642	1	n/a	n/a	n/a	n/a	n/a	n/a
3131861	RECOG_LURE	n/a	LTP233	ltpFR	18	3	n/a	FROST	609	1	n/a	n/a	n/a	n/a	n/a	n/a
3133576	RECOG_RESP	n/a	LTP233	ltpFR	18	3	n/a	FROST	609	n/a	n/a	n/a	n/a	n/a	n/a	n/a
3134031	RECOG_CONF	n/a	LTP233	ltpFR	18	3	n/a	FROST	609	1	n/a	n/a	n/a	n/a	n/a	n/a
3135829	RECOG_TARGET	n/a	LTP233	ltpFR	18	3	1	PENCIL	1042	5	0	n/a	n/a	n/a	n/a	n/a
3136420	RECOG_RESP	n/a	LTP233	ltpFR	18	3	1	PENCIL	1042	n/a	0	n/a	n/a	n/a	n/a	n/a
3136833	RECOG_CONF	n/a	LTP233	ltpFR	18	3	1	PENCIL	1042	5	0	n/a	n/a	n/a	n/a	n/a
3138373	RECOG_TARGET	n/a	LTP233	ltpFR	18	3	-1	COLUMN	350	5	-1	n/a	n/a	n/a	n/a	n/a
3139013	RECOG_RESP	n/a	LTP233	ltpFR	18	3	-1	COLUMN	350	n/a	-1	n/a	n/a	n/a	n/a	n/a
3139364	RECOG_CONF	n/a	LTP233	ltpFR	18	3	-1	COLUMN	350	5	-1	n/a	n/a	n/a	n/a	n/a
3141100	RECOG_LURE	n/a	LTP233	ltpFR	18	3	n/a	PEACH	1031	3	n/a	n/a	n/a	n/a	n/a	n/a
3142375	RECOG_RESP	n/a	LTP233	ltpFR	18	3	n/a	PEACH	1031	n/a	n/a	n/a	n/a	n/a	n/a	n/a
3142869	RECOG_CONF	n/a	LTP233	ltpFR	18	3	n/a	PEACH	1031	3	n/a	n/a	n/a	n/a	n/a	n/a
3144396	RECOG_TARGET	n/a	LTP233	ltpFR	18	3	1	POLITICIAN	1099	2	1	n/a	n/a	n/a	n/a	n/a
3145643	RECOG_RESP	n/a	LTP233	ltpFR	18	3	1	POLITICIAN	1099	n/a	1	n/a	n/a	n/a	n/a	n/a
3146169	RECOG_CONF	n/a	LTP233	ltpFR	18	3	1	POLITICIAN	1099	2	1	n/a	n/a	n/a	n/a	n/a
3147808	RECOG_LURE	n/a	LTP233	ltpFR	18	3	n/a	BUYER	208	1	n/a	n/a	n/a	n/a	n/a	n/a
3148392	RECOG_RESP	n/a	LTP233	ltpFR	18	3	n/a	BUYER	208	n/a	n/a	n/a	n/a	n/a	n/a	n/a
3148981	RECOG_CONF	n/a	LTP233	ltpFR	18	3	n/a	BUYER	208	1	n/a	n/a	n/a	n/a	n/a	n/a
3150501	RECOG_TARGET	n/a	LTP233	ltpFR	18	3	0	ELBOW	520	5	0	n/a	n/a	n/a	n/a	n/a
3151125	RECOG_RESP	n/a	LTP233	ltpFR	18	3	0	ELBOW	520	n/a	0	n/a	n/a	n/a	n/a	n/a
3151488	RECOG_CONF	n/a	LTP233	ltpFR	18	3	0	ELBOW	520	5	0	n/a	n/a	n/a	n/a	n/a
3153212	RECOG_LURE	n/a	LTP233	ltpFR	18	3	n/a	CARRIAGE	248	5	n/a	n/a	n/a	n/a	n/a	n/a
3154020	RECOG_RESP	n/a	LTP233	ltpFR	18	3	n/a	CARRIAGE	248	n/a	n/a	n/a	n/a	n/a	n/a	n/a
3154468	RECOG_CONF	n/a	LTP233	ltpFR	18	3	n/a	CARRIAGE	248	5	n/a	n/a	n/a	n/a	n/a	n/a
3156023	RECOG_TARGET	n/a	LTP233	ltpFR	18	3	1	TURKEY	1520	3	1	n/a	n/a	n/a	n/a	n/a
3157118	RECOG_RESP	n/a	LTP233	ltpFR	18	3	1	TURKEY	1520	n/a	1	n/a	n/a	n/a	n/a	n/a
3157636	RECOG_CONF	n/a	LTP233	ltpFR	18	3	1	TURKEY	1520	3	1	n/a	n/a	n/a	n/a	n/a
3159219	RECOG_TARGET	n/a	LTP233	ltpFR	18	3	-1	OVEN	991	5	-1	n/a	n/a	n/a	n/a	n/a
3159891	RECOG_RESP	n/a	LTP233	ltpFR	18	3	-1	OVEN	991	n/a	-1	n/a	n/a	n/a	n/a	n/a
3160221	RECOG_CONF	n/a	LTP233	ltpFR	18	3	-1	OVEN	991	5	-1	n/a	n/a	n/a	n/a	n/a
3161807	RECOG_TARGET	n/a	LTP233	ltpFR	18	3	0	PEDAL	1037	5	0	n/a	n/a	n/a	n/a	n/a
3162476	RECOG_RESP	n/a	LTP233	ltpFR	18	3	0	PEDAL	1037	n/a	0	n/a	n/a	n/a	n/a	n/a
3162863	RECOG_CONF	n/a	LTP233	ltpFR	18	3	0	PEDAL	1037	5	0	n/a	n/a	n/a	n/a	n/a
3164554	RECOG_LURE	n/a	LTP233	ltpFR	18	3	n/a	BEARD	107	3	n/a	n/a	n/a	n/a	n/a	n/a
3165321	RECOG_RESP	n/a	LTP233	ltpFR	18	3	n/a	BEARD	107	n/a	n/a	n/a	n/a	n/a	n/a	n/a
3165805	RECOG_CONF	n/a	LTP233	ltpFR	18	3	n/a	BEARD	107	3	n/a	n/a	n/a	n/a	n/a	n/a
3169168	REC_START	n/a	LTP233	ltpFR	18	4	n/a	n/a	n/a	n/a	n/a	n/a	n/a	n/a	n/a	n/a
3169223	RECOG_LURE	n/a	LTP233	ltpFR	18	4	n/a	KEEPER	769	5	n/a	n/a	n/a	n/a	n/a	n/a
3170078	RECOG_RESP	n/a	LTP233	ltpFR	18	4	n/a	KEEPER	769	n/a	n/a	n/a	n/a	n/a	n/a	n/a
3170500	RECOG_CONF	n/a	LTP233	ltpFR	18	4	n/a	KEEPER	769	5	n/a	n/a	n/a	n/a	n/a	n/a
3171950	RECOG_LURE	n/a	LTP233	ltpFR	18	4	n/a	BARRACUDA	90	1	n/a	n/a	n/a	n/a	n/a	n/a
3172755	RECOG_RESP	n/a	LTP233	ltpFR	18	4	n/a	BARRACUDA	90	n/a	n/a	n/a	n/a	n/a	n/a	n/a
3173204	RECOG_CONF	n/a	LTP233	ltpFR	18	4	n/a	BARRACUDA	90	1	n/a	n/a	n/a	n/a	n/a	n/a
3174706	RECOG_LURE	n/a	LTP233	ltpFR	18	4	n/a	CHIEF	298	3	n/a	n/a	n/a	n/a	n/a	n/a
3175500	RECOG_RESP	n/a	LTP233	ltpFR	18	4	n/a	CHIEF	298	n/a	n/a	n/a	n/a	n/a	n/a	n/a
3175963	RECOG_CONF	n/a	LTP233	ltpFR	18	4	n/a	CHIEF	298	3	n/a	n/a	n/a	n/a	n/a	n/a
3177470	RECOG_TARGET	n/a	LTP233	ltpFR	18	4	1	CLERK	321	5	1	n/a	n/a	n/a	n/a	n/a
3178336	RECOG_RESP	n/a	LTP233	ltpFR	18	4	1	CLERK	321	n/a	1	n/a	n/a	n/a	n/a	n/a
3178716	RECOG_CONF	n/a	LTP233	ltpFR	18	4	1	CLERK	321	5	1	n/a	n/a	n/a	n/a	n/a
3180565	RECOG_TARGET	n/a	LTP233	ltpFR	18	4	-1	MAGAZINE	853	5	-1	n/a	n/a	n/a	n/a	n/a
3181090	RECOG_RESP	n/a	LTP233	ltpFR	18	4	-1	MAGAZINE	853	n/a	-1	n/a	n/a	n/a	n/a	n/a
3181474	RECOG_CONF	n/a	LTP233	ltpFR	18	4	-1	MAGAZINE	853	5	-1	n/a	n/a	n/a	n/a	n/a
3183075	RECOG_TARGET	n/a	LTP233	ltpFR	18	4	1	LONDON	843	5	0	n/a	n/a	n/a	n/a	n/a
3183581	RECOG_RESP	n/a	LTP233	ltpFR	18	4	1	LONDON	843	n/a	0	n/a	n/a	n/a	n/a	n/a
3183960	RECOG_CONF	n/a	LTP233	ltpFR	18	4	1	LONDON	843	5	0	n/a	n/a	n/a	n/a	n/a
3185550	RECOG_TARGET	n/a	LTP233	ltpFR	18	4	-1	SAUSAGE	1238	3	-1	n/a	n/a	n/a	n/a	n/a
3186228	RECOG_RESP	n/a	LTP233	ltpFR	18	4	-1	SAUSAGE	1238	n/a	-1	n/a	n/a	n/a	n/a	n/a
3186736	RECOG_CONF	n/a	LTP233	ltpFR	18	4	-1	SAUSAGE	1238	3	-1	n/a	n/a	n/a	n/a	n/a
3188261	RECOG_TARGET	n/a	LTP233	ltpFR	18	4	0	PILOT	1070	5	0	n/a	n/a	n/a	n/a	n/a
3188958	RECOG_RESP	n/a	LTP233	ltpFR	18	4	0	PILOT	1070	n/a	0	n/a	n/a	n/a	n/a	n/a
3189346	RECOG_CONF	n/a	LTP233	ltpFR	18	4	0	PILOT	1070	5	0	n/a	n/a	n/a	n/a	n/a
3191005	RECOG_LURE	n/a	LTP233	ltpFR	18	4	n/a	CALCULATOR	220	1	n/a	n/a	n/a	n/a	n/a	n/a
3192356	RECOG_RESP	n/a	LTP233	ltpFR	18	4	n/a	CALCULATOR	220	n/a	n/a	n/a	n/a	n/a	n/a	n/a
3192809	RECOG_CONF	n/a	LTP233	ltpFR	18	4	n/a	CALCULATOR	220	1	n/a	n/a	n/a	n/a	n/a	n/a
3194400	RECOG_TARGET	n/a	LTP233	ltpFR	18	4	-1	BASKET	95	5	-1	n/a	n/a	n/a	n/a	n/a
3196586	RECOG_RESP	n/a	LTP233	ltpFR	18	4	-1	BASKET	95	n/a	-1	n/a	n/a	n/a	n/a	n/a
3196980	RECOG_CONF	n/a	LTP233	ltpFR	18	4	-1	BASKET	95	5	-1	n/a	n/a	n/a	n/a	n/a
3198629	RECOG_TARGET	n/a	LTP233	ltpFR	18	4	0	VOLUNTEER	1577	3	1	n/a	n/a	n/a	n/a	n/a
3199286	RECOG_RESP	n/a	LTP233	ltpFR	18	4	0	VOLUNTEER	1577	n/a	1	n/a	n/a	n/a	n/a	n/a
3199807	RECOG_CONF	n/a	LTP233	ltpFR	18	4	0	VOLUNTEER	1577	3	1	n/a	n/a	n/a	n/a	n/a
3201377	RECOG_TARGET	n/a	LTP233	ltpFR	18	4	0	BASEBALL	93	5	0	n/a	n/a	n/a	n/a	n/a
3202166	RECOG_RESP	n/a	LTP233	ltpFR	18	4	0	BASEBALL	93	n/a	0	n/a	n/a	n/a	n/a	n/a
3202627	RECOG_CONF	n/a	LTP233	ltpFR	18	4	0	BASEBALL	93	5	0	n/a	n/a	n/a	n/a	n/a
3204188	RECOG_TARGET	n/a	LTP233	ltpFR	18	4	0	CONSOLE	364	5	0	n/a	n/a	n/a	n/a	n/a
3204869	RECOG_RESP	n/a	LTP233	ltpFR	18	4	0	CONSOLE	364	n/a	0	n/a	n/a	n/a	n/a	n/a
3205311	RECOG_CONF	n/a	LTP233	ltpFR	18	4	0	CONSOLE	364	5	0	n/a	n/a	n/a	n/a	n/a
3206999	RECOG_TARGET	n/a	LTP233	ltpFR	18	4	1	TANGERINE	1431	5	0	n/a	n/a	n/a	n/a	n/a
3207710	RECOG_RESP	n/a	LTP233	ltpFR	18	4	1	TANGERINE	1431	n/a	0	n/a	n/a	n/a	n/a	n/a
3208115	RECOG_CONF	n/a	LTP233	ltpFR	18	4	1	TANGERINE	1431	5	0	n/a	n/a	n/a	n/a	n/a
3209858	RECOG_LURE	n/a	LTP233	ltpFR	18	4	n/a	PERMIT	1051	5	n/a	n/a	n/a	n/a	n/a	n/a
3210516	RECOG_RESP	n/a	LTP233	ltpFR	18	4	n/a	PERMIT	1051	n/a	n/a	n/a	n/a	n/a	n/a	n/a
3210818	RECOG_CONF	n/a	LTP233	ltpFR	18	4	n/a	PERMIT	1051	5	n/a	n/a	n/a	n/a	n/a	n/a
3212602	RECOG_LURE	n/a	LTP233	ltpFR	18	4	n/a	INCENSE	735	5	n/a	n/a	n/a	n/a	n/a	n/a
3213276	RECOG_RESP	n/a	LTP233	ltpFR	18	4	n/a	INCENSE	735	n/a	n/a	n/a	n/a	n/a	n/a	n/a
3213692	RECOG_CONF	n/a	LTP233	ltpFR	18	4	n/a	INCENSE	735	5	n/a	n/a	n/a	n/a	n/a	n/a
3215246	RECOG_LURE	n/a	LTP233	ltpFR	18	4	n/a	HARE	688	3	n/a	n/a	n/a	n/a	n/a	n/a
3215812	RECOG_RESP	n/a	LTP233	ltpFR	18	4	n/a	HARE	688	n/a	n/a	n/a	n/a	n/a	n/a	n/a
3216332	RECOG_CONF	n/a	LTP233	ltpFR	18	4	n/a	HARE	688	3	n/a	n/a	n/a	n/a	n/a	n/a
3217940	RECOG_TARGET	n/a	LTP233	ltpFR	18	4	1	THUMB	1462	1	0	n/a	n/a	n/a	n/a	n/a
3218526	RECOG_RESP	n/a	LTP233	ltpFR	18	4	1	THUMB	1462	n/a	0	n/a	n/a	n/a	n/a	n/a
3219000	RECOG_CONF	n/a	LTP233	ltpFR	18	4	1	THUMB	1462	1	0	n/a	n/a	n/a	n/a	n/a
3220649	RECOG_LURE	n/a	LTP233	ltpFR	18	4	n/a	MIRROR	899	4	n/a	n/a	n/a	n/a	n/a	n/a
3221506	RECOG_RESP	n/a	LTP233	ltpFR	18	4	n/a	MIRROR	899	n/a	n/a	n/a	n/a	n/a	n/a	n/a
3221993	RECOG_CONF	n/a	LTP233	ltpFR	18	4	n/a	MIRROR	899	4	n/a	n/a	n/a	n/a	n/a	n/a
3223510	RECOG_TARGET	n/a	LTP233	ltpFR	18	4	1	GUARD	667	4	1	n/a	n/a	n/a	n/a	n/a
3224184	RECOG_RESP	n/a	LTP233	ltpFR	18	4	1	GUARD	667	n/a	1	n/a	n/a	n/a	n/a	n/a
3224593	RECOG_CONF	n/a	LTP233	ltpFR	18	4	1	GUARD	667	4	1	n/a	n/a	n/a	n/a	n/a
3227701	REC_START	n/a	LTP233	ltpFR	18	5	n/a	n/a	n/a	n/a	n/a	n/a	n/a	n/a	n/a	n/a
3227759	RECOG_TARGET	n/a	LTP233	ltpFR	18	5	1	CLARINET	317	5	0	n/a	n/a	n/a	n/a	n/a
3228441	RECOG_RESP	n/a	LTP233	ltpFR	18	5	1	CLARINET	317	n/a	0	n/a	n/a	n/a	n/a	n/a
3228805	RECOG_CONF	n/a	LTP233	ltpFR	18	5	1	CLARINET	317	5	0	n/a	n/a	n/a	n/a	n/a
3230486	RECOG_TARGET	n/a	LTP233	ltpFR	18	5	1	RACK	1154	5	0	n/a	n/a	n/a	n/a	n/a
3231193	RECOG_RESP	n/a	LTP233	ltpFR	18	5	1	RACK	1154	n/a	0	n/a	n/a	n/a	n/a	n/a
3231567	RECOG_CONF	n/a	LTP233	ltpFR	18	5	1	RACK	1154	5	0	n/a	n/a	n/a	n/a	n/a
3233248	RECOG_TARGET	n/a	LTP233	ltpFR	18	5	0	COLONEL	348	5	0	n/a	n/a	n/a	n/a	n/a
3233759	RECOG_RESP	n/a	LTP233	ltpFR	18	5	0	COLONEL	348	n/a	0	n/a	n/a	n/a	n/a	n/a
3234191	RECOG_CONF	n/a	LTP233	ltpFR	18	5	0	COLONEL	348	5	0	n/a	n/a	n/a	n/a	n/a
3235924	RECOG_TARGET	n/a	LTP233	ltpFR	18	5	1	WHEAT	1602	5	0	n/a	n/a	n/a	n/a	n/a
3236459	RECOG_RESP	n/a	LTP233	ltpFR	18	5	1	WHEAT	1602	n/a	0	n/a	n/a	n/a	n/a	n/a
3236799	RECOG_CONF	n/a	LTP233	ltpFR	18	5	1	WHEAT	1602	5	0	n/a	n/a	n/a	n/a	n/a
3238483	RECOG_LURE	n/a	LTP233	ltpFR	18	5	n/a	PRISON	1127	3	n/a	n/a	n/a	n/a	n/a	n/a
3239370	RECOG_RESP	n/a	LTP233	ltpFR	18	5	n/a	PRISON	1127	n/a	n/a	n/a	n/a	n/a	n/a	n/a
3239838	RECOG_CONF	n/a	LTP233	ltpFR	18	5	n/a	PRISON	1127	3	n/a	n/a	n/a	n/a	n/a	n/a
3241328	RECOG_LURE	n/a	LTP233	ltpFR	18	5	n/a	ULCER	1533	5	n/a	n/a	n/a	n/a	n/a	n/a
3242020	RECOG_RESP	n/a	LTP233	ltpFR	18	5	n/a	ULCER	1533	n/a	n/a	n/a	n/a	n/a	n/a	n/a
3242442	RECOG_CONF	n/a	LTP233	ltpFR	18	5	n/a	ULCER	1533	5	n/a	n/a	n/a	n/a	n/a	n/a
3244038	RECOG_TARGET	n/a	LTP233	ltpFR	18	5	1	DINNER	468	5	0	n/a	n/a	n/a	n/a	n/a
3244820	RECOG_RESP	n/a	LTP233	ltpFR	18	5	1	DINNER	468	n/a	0	n/a	n/a	n/a	n/a	n/a
3245145	RECOG_CONF	n/a	LTP233	ltpFR	18	5	1	DINNER	468	5	0	n/a	n/a	n/a	n/a	n/a
3246781	RECOG_LURE	n/a	LTP233	ltpFR	18	5	n/a	GRASS	655	1	n/a	n/a	n/a	n/a	n/a	n/a
3248233	RECOG_RESP	n/a	LTP233	ltpFR	18	5	n/a	GRASS	655	n/a	n/a	n/a	n/a	n/a	n/a	n/a
3248738	RECOG_CONF	n/a	LTP233	ltpFR	18	5	n/a	GRASS	655	1	n/a	n/a	n/a	n/a	n/a	n/a
3250495	RECOG_LURE	n/a	LTP233	ltpFR	18	5	n/a	SUNSET	1408	1	n/a	n/a	n/a	n/a	n/a	n/a
3251542	RECOG_RESP	n/a	LTP233	ltpFR	18	5	n/a	SUNSET	1408	n/a	n/a	n/a	n/a	n/a	n/a	n/a
3251971	RECOG_CONF	n/a	LTP233	ltpFR	18	5	n/a	SUNSET	1408	1	n/a	n/a	n/a	n/a	n/a	n/a
3253603	RECOG_TARGET	n/a	LTP233	ltpFR	18	5	0	VICTOR	1563	5	1	n/a	n/a	n/a	n/a	n/a
3254154	RECOG_RESP	n/a	LTP233	ltpFR	18	5	0	VICTOR	1563	n/a	1	n/a	n/a	n/a	n/a	n/a
3254547	RECOG_CONF	n/a	LTP233	ltpFR	18	5	0	VICTOR	1563	5	1	n/a	n/a	n/a	n/a	n/a
3256150	RECOG_LURE	n/a	LTP233	ltpFR	18	5	n/a	BOOT	150	3	n/a	n/a	n/a	n/a	n/a	n/a
3256837	RECOG_RESP	n/a	LTP233	ltpFR	18	5	n/a	BOOT	150	n/a	n/a	n/a	n/a	n/a	n/a	n/a
3257219	RECOG_CONF	n/a	LTP233	ltpFR	18	5	n/a	BOOT	150	3	n/a	n/a	n/a	n/a	n/a	n/a
3258659	RECOG_TARGET	n/a	LTP233	ltpFR	18	5	0	VEAL	1551	5	0	n/a	n/a	n/a	n/a	n/a
3259579	RECOG_RESP	n/a	LTP233	ltpFR	18	5	0	VEAL	1551	n/a	0	n/a	n/a	n/a	n/a	n/a
3259972	RECOG_CONF	n/a	LTP233	ltpFR	18	5	0	VEAL	1551	5	0	n/a	n/a	n/a	n/a	n/a
3261583	RECOG_TARGET	n/a	LTP233	ltpFR	18	5	0	PLIERS	1089	5	0	n/a	n/a	n/a	n/a	n/a
3262174	RECOG_RESP	n/a	LTP233	ltpFR	18	5	0	PLIERS	1089	n/a	0	n/a	n/a	n/a	n/a	n/a
3262557	RECOG_CONF	n/a	LTP233	ltpFR	18	5	0	PLIERS	1089	5	0	n/a	n/a	n/a	n/a	n/a
3264114	RECOG_TARGET	n/a	LTP233	ltpFR	18	5	0	SNAIL	1332	1	0	n/a	n/a	n/a	n/a	n/a
3264661	RECOG_RESP	n/a	LTP233	ltpFR	18	5	0	SNAIL	1332	n/a	0	n/a	n/a	n/a	n/a	n/a
3265254	RECOG_CONF	n/a	LTP233	ltpFR	18	5	0	SNAIL	1332	1	0	n/a	n/a	n/a	n/a	n/a
3266739	RECOG_TARGET	n/a	LTP233	ltpFR	18	5	1	ASH	44	5	0	n/a	n/a	n/a	n/a	n/a
3267386	RECOG_RESP	n/a	LTP233	ltpFR	18	5	1	ASH	44	n/a	0	n/a	n/a	n/a	n/a	n/a
3267701	RECOG_CONF	n/a	LTP233	ltpFR	18	5	1	ASH	44	5	0	n/a	n/a	n/a	n/a	n/a
3269300	RECOG_LURE	n/a	LTP233	ltpFR	18	5	n/a	THESAURUS	1454	1	n/a	n/a	n/a	n/a	n/a	n/a
3269969	RECOG_RESP	n/a	LTP233	ltpFR	18	5	n/a	THESAURUS	1454	n/a	n/a	n/a	n/a	n/a	n/a	n/a
3270446	RECOG_CONF	n/a	LTP233	ltpFR	18	5	n/a	THESAURUS	1454	1	n/a	n/a	n/a	n/a	n/a	n/a
3272073	RECOG_LURE	n/a	LTP233	ltpFR	18	5	n/a	CATCHER	258	5	n/a	n/a	n/a	n/a	n/a	n/a
3272823	RECOG_RESP	n/a	LTP233	ltpFR	18	5	n/a	CATCHER	258	n/a	n/a	n/a	n/a	n/a	n/a	n/a
3273200	RECOG_CONF	n/a	LTP233	ltpFR	18	5	n/a	CATCHER	258	5	n/a	n/a	n/a	n/a	n/a	n/a
3274887	RECOG_LURE	n/a	LTP233	ltpFR	18	5	n/a	DIAL	457	1	n/a	n/a	n/a	n/a	n/a	n/a
3275474	RECOG_RESP	n/a	LTP233	ltpFR	18	5	n/a	DIAL	457	n/a	n/a	n/a	n/a	n/a	n/a	n/a
3276738	RECOG_CONF	n/a	LTP233	ltpFR	18	5	n/a	DIAL	457	1	n/a	n/a	n/a	n/a	n/a	n/a
3278484	RECOG_TARGET	n/a	LTP233	ltpFR	18	5	0	CORPORATION	382	1	1	n/a	n/a	n/a	n/a	n/a
3279523	RECOG_RESP	n/a	LTP233	ltpFR	18	5	0	CORPORATION	382	n/a	1	n/a	n/a	n/a	n/a	n/a
3280092	RECOG_CONF	n/a	LTP233	ltpFR	18	5	0	CORPORATION	382	1	1	n/a	n/a	n/a	n/a	n/a
3281729	RECOG_TARGET	n/a	LTP233	ltpFR	18	5	1	SAW	1239	5	0	n/a	n/a	n/a	n/a	n/a
3282574	RECOG_RESP	n/a	LTP233	ltpFR	18	5	1	SAW	1239	n/a	0	n/a	n/a	n/a	n/a	n/a
3282930	RECOG_CONF	n/a	LTP233	ltpFR	18	5	1	SAW	1239	5	0	n/a	n/a	n/a	n/a	n/a
3286313	REC_START	n/a	LTP233	ltpFR	18	6	n/a	n/a	n/a	n/a	n/a	n/a	n/a	n/a	n/a	n/a
3286364	RECOG_LURE	n/a	LTP233	ltpFR	18	6	n/a	OINTMENT	974	2	n/a	n/a	n/a	n/a	n/a	n/a
3287878	RECOG_RESP	n/a	LTP233	ltpFR	18	6	n/a	OINTMENT	974	n/a	n/a	n/a	n/a	n/a	n/a	n/a
3288359	RECOG_CONF	n/a	LTP233	ltpFR	18	6	n/a	OINTMENT	974	2	n/a	n/a	n/a	n/a	n/a	n/a
3289957	RECOG_LURE	n/a	LTP233	ltpFR	18	6	n/a	FUR	615	1	n/a	n/a	n/a	n/a	n/a	n/a
3290625	RECOG_RESP	n/a	LTP233	ltpFR	18	6	n/a	FUR	615	n/a	n/a	n/a	n/a	n/a	n/a	n/a
3291032	RECOG_CONF	n/a	LTP233	ltpFR	18	6	n/a	FUR	615	1	n/a	n/a	n/a	n/a	n/a	n/a
3292503	RECOG_LURE	n/a	LTP233	ltpFR	18	6	n/a	BANQUET	86	3	n/a	n/a	n/a	n/a	n/a	n/a
3293487	RECOG_RESP	n/a	LTP233	ltpFR	18	6	n/a	BANQUET	86	n/a	n/a	n/a	n/a	n/a	n/a	n/a
3294386	RECOG_CONF	n/a	LTP233	ltpFR	18	6	n/a	BANQUET	86	3	n/a	n/a	n/a	n/a	n/a	n/a
3296034	RECOG_LURE	n/a	LTP233	ltpFR	18	6	n/a	MEDICINE	886	5	n/a	n/a	n/a	n/a	n/a	n/a
3296982	RECOG_RESP	n/a	LTP233	ltpFR	18	6	n/a	MEDICINE	886	n/a	n/a	n/a	n/a	n/a	n/a	n/a
3297439	RECOG_CONF	n/a	LTP233	ltpFR	18	6	n/a	MEDICINE	886	5	n/a	n/a	n/a	n/a	n/a	n/a
3299096	RECOG_TARGET	n/a	LTP233	ltpFR	18	6	-1	BUILDER	190	1	-1	n/a	n/a	n/a	n/a	n/a
3299804	RECOG_RESP	n/a	LTP233	ltpFR	18	6	-1	BUILDER	190	n/a	-1	n/a	n/a	n/a	n/a	n/a
3300286	RECOG_CONF	n/a	LTP233	ltpFR	18	6	-1	BUILDER	190	1	-1	n/a	n/a	n/a	n/a	n/a
3301805	RECOG_TARGET	n/a	LTP233	ltpFR	18	6	1	DAUGHTER	442	1	1	n/a	n/a	n/a	n/a	n/a
3302476	RECOG_RESP	n/a	LTP233	ltpFR	18	6	1	DAUGHTER	442	n/a	1	n/a	n/a	n/a	n/a	n/a
3302900	RECOG_CONF	n/a	LTP233	ltpFR	18	6	1	DAUGHTER	442	1	1	n/a	n/a	n/a	n/a	n/a
3304465	RECOG_TARGET	n/a	LTP233	ltpFR	18	6	-1	BRAN	167	5	-1	n/a	n/a	n/a	n/a	n/a
3305084	RECOG_RESP	n/a	LTP233	ltpFR	18	6	-1	BRAN	167	n/a	-1	n/a	n/a	n/a	n/a	n/a
3305494	RECOG_CONF	n/a	LTP233	ltpFR	18	6	-1	BRAN	167	5	-1	n/a	n/a	n/a	n/a	n/a
3307092	RECOG_TARGET	n/a	LTP233	ltpFR	18	6	0	CONTINENT	367	5	1	n/a	n/a	n/a	n/a	n/a
3307718	RECOG_RESP	n/a	LTP233	ltpFR	18	6	0	CONTINENT	367	n/a	1	n/a	n/a	n/a	n/a	n/a
3308088	RECOG_CONF	n/a	LTP233	ltpFR	18	6	0	CONTINENT	367	5	1	n/a	n/a	n/a	n/a	n/a
3309534	RECOG_TARGET	n/a	LTP233	ltpFR	18	6	-1	LEMON	810	5	-1	n/a	n/a	n/a	n/a	n/a
3310058	RECOG_RESP	n/a	LTP233	ltpFR	18	6	-1	LEMON	810	n/a	-1	n/a	n/a	n/a	n/a	n/a
3310463	RECOG_CONF	n/a	LTP233	ltpFR	18	6	-1	LEMON	810	5	-1	n/a	n/a	n/a	n/a	n/a
3312128	RECOG_LURE	n/a	LTP233	ltpFR	18	6	n/a	RODENT	1204	5	n/a	n/a	n/a	n/a	n/a	n/a
3312761	RECOG_RESP	n/a	LTP233	ltpFR	18	6	n/a	RODENT	1204	n/a	n/a	n/a	n/a	n/a	n/a	n/a
3313120	RECOG_CONF	n/a	LTP233	ltpFR	18	6	n/a	RODENT	1204	5	n/a	n/a	n/a	n/a	n/a	n/a
3314754	RECOG_LURE	n/a	LTP233	ltpFR	18	6	n/a	SPOUSE	1358	1	n/a	n/a	n/a	n/a	n/a	n/a
3315478	RECOG_RESP	n/a	LTP233	ltpFR	18	6	n/a	SPOUSE	1358	n/a	n/a	n/a	n/a	n/a	n/a	n/a
3315911	RECOG_CONF	n/a	LTP233	ltpFR	18	6	n/a	SPOUSE	1358	1	n/a	n/a	n/a	n/a	n/a	n/a
3317581	RECOG_LURE	n/a	LTP233	ltpFR	18	6	n/a	MOUTH	926	3	n/a	n/a	n/a	n/a	n/a	n/a
3318090	RECOG_RESP	n/a	LTP233	ltpFR	18	6	n/a	MOUTH	926	n/a	n/a	n/a	n/a	n/a	n/a	n/a
3318478	RECOG_CONF	n/a	LTP233	ltpFR	18	6	n/a	MOUTH	926	3	n/a	n/a	n/a	n/a	n/a	n/a
3320209	RECOG_TARGET	n/a	LTP233	ltpFR	18	6	1	DRILL	497	1	0	n/a	n/a	n/a	n/a	n/a
3320716	RECOG_RESP	n/a	LTP233	ltpFR	18	6	1	DRILL	497	n/a	0	n/a	n/a	n/a	n/a	n/a
3321206	RECOG_CONF	n/a	LTP233	ltpFR	18	6	1	DRILL	497	1	0	n/a	n/a	n/a	n/a	n/a
3322881	RECOG_TARGET	n/a	LTP233	ltpFR	18	6	1	SCREWDRIVER	1255	5	0	n/a	n/a	n/a	n/a	n/a
3323374	RECOG_RESP	n/a	LTP233	ltpFR	18	6	1	SCREWDRIVER	1255	n/a	0	n/a	n/a	n/a	n/a	n/a
3323708	RECOG_CONF	n/a	LTP233	ltpFR	18	6	1	SCREWDRIVER	1255	5	0	n/a	n/a	n/a	n/a	n/a
3325395	RECOG_TARGET	n/a	LTP233	ltpFR	18	6	-1	RIB	1188	5	-1	n/a	n/a	n/a	n/a	n/a
3326024	RECOG_RESP	n/a	LTP233	ltpFR	18	6	-1	RIB	1188	n/a	-1	n/a	n/a	n/a	n/a	n/a
3326407	RECOG_CONF	n/a	LTP233	ltpFR	18	6	-1	RIB	1188	5	-1	n/a	n/a	n/a	n/a	n/a
3327954	RECOG_TARGET	n/a	LTP233	ltpFR	18	6	1	BLUEBERRY	140	5	0	n/a	n/a	n/a	n/a	n/a
3328457	RECOG_RESP	n/a	LTP233	ltpFR	18	6	1	BLUEBERRY	140	n/a	0	n/a	n/a	n/a	n/a	n/a
3328871	RECOG_CONF	n/a	LTP233	ltpFR	18	6	1	BLUEBERRY	140	5	0	n/a	n/a	n/a	n/a	n/a
3330380	RECOG_TARGET	n/a	LTP233	ltpFR	18	6	-1	CART	250	5	-1	n/a	n/a	n/a	n/a	n/a
3331043	RECOG_RESP	n/a	LTP233	ltpFR	18	6	-1	CART	250	n/a	-1	n/a	n/a	n/a	n/a	n/a
3331375	RECOG_CONF	n/a	LTP233	ltpFR	18	6	-1	CART	250	5	-1	n/a	n/a	n/a	n/a	n/a
3333040	RECOG_LURE	n/a	LTP233	ltpFR	18	6	n/a	RUG	1215	5	n/a	n/a	n/a	n/a	n/a	n/a
3333543	RECOG_RESP	n/a	LTP233	ltpFR	18	6	n/a	RUG	1215	n/a	n/a	n/a	n/a	n/a	n/a	n/a
3334229	RECOG_CONF	n/a	LTP233	ltpFR	18	6	n/a	RUG	1215	5	n/a	n/a	n/a	n/a	n/a	n/a
3335866	RECOG_TARGET	n/a	LTP233	ltpFR	18	6	-1	OX	994	5	-1	n/a	n/a	n/a	n/a	n/a
3336489	RECOG_RESP	n/a	LTP233	ltpFR	18	6	-1	OX	994	n/a	-1	n/a	n/a	n/a	n/a	n/a
3336938	RECOG_CONF	n/a	LTP233	ltpFR	18	6	-1	OX	994	5	-1	n/a	n/a	n/a	n/a	n/a
3338460	RECOG_LURE	n/a	LTP233	ltpFR	18	6	n/a	SHUTTER	1300	2	n/a	n/a	n/a	n/a	n/a	n/a
3338989	RECOG_RESP	n/a	LTP233	ltpFR	18	6	n/a	SHUTTER	1300	n/a	n/a	n/a	n/a	n/a	n/a	n/a
3339926	RECOG_CONF	n/a	LTP233	ltpFR	18	6	n/a	SHUTTER	1300	2	n/a	n/a	n/a	n/a	n/a	n/a
3343229	REC_START	n/a	LTP233	ltpFR	18	7	n/a	n/a	n/a	n/a	n/a	n/a	n/a	n/a	n/a	n/a
3343279	RECOG_TARGET	n/a	LTP233	ltpFR	18	7	1	CANNON	232	5	0	n/a	n/a	n/a	n/a	n/a
3343876	RECOG_RESP	n/a	LTP233	ltpFR	18	7	1	CANNON	232	n/a	0	n/a	n/a	n/a	n/a	n/a
3344301	RECOG_CONF	n/a	LTP233	ltpFR	18	7	1	CANNON	232	5	0	n/a	n/a	n/a	n/a	n/a
3345804	RECOG_TARGET	n/a	LTP233	ltpFR	18	7	1	PLANT	1083	1	1	n/a	n/a	n/a	n/a	n/a
3346738	RECOG_RESP	n/a	LTP233	ltpFR	18	7	1	PLANT	1083	n/a	1	n/a	n/a	n/a	n/a	n/a
3347315	RECOG_CONF	n/a	LTP233	ltpFR	18	7	1	PLANT	1083	1	1	n/a	n/a	n/a	n/a	n/a
3348682	RECOG_TARGET	n/a	LTP233	ltpFR	18	7	1	BOARD	143	5	1	n/a	n/a	n/a	n/a	n/a
3349380	RECOG_RESP	n/a	LTP233	ltpFR	18	7	1	BOARD	143	n/a	1	n/a	n/a	n/a	n/a	n/a
3349806	RECOG_CONF	n/a	LTP233	ltpFR	18	7	1	BOARD	143	5	1	n/a	n/a	n/a	n/a	n/a
3351259	RECOG_TARGET	n/a	LTP233	ltpFR	18	7	1	STREAM	1392	5	0	n/a	n/a	n/a	n/a	n/a
3351746	RECOG_RESP	n/a	LTP233	ltpFR	18	7	1	STREAM	1392	n/a	0	n/a	n/a	n/a	n/a	n/a
3352073	RECOG_CONF	n/a	LTP233	ltpFR	18	7	1	STREAM	1392	5	0	n/a	n/a	n/a	n/a	n/a
3353717	RECOG_TARGET	n/a	LTP233	ltpFR	18	7	-1	RADIO	1157	5	-1	n/a	n/a	n/a	n/a	n/a
3354262	RECOG_RESP	n/a	LTP233	ltpFR	18	7	-1	RADIO	1157	n/a	-1	n/a	n/a	n/a	n/a	n/a
3354668	RECOG_CONF	n/a	LTP233	ltpFR	18	7	-1	RADIO	1157	5	-1	n/a	n/a	n/a	n/a	n/a
3356328	RECOG_TARGET	n/a	LTP233	ltpFR	18	7	-1	SWORD	1423	5	-1	n/a	n/a	n/a	n/a	n/a
3356853	RECOG_RESP	n/a	LTP233	ltpFR	18	7	-1	SWORD	1423	n/a	-1	n/a	n/a	n/a	n/a	n/a
3357222	RECOG_CONF	n/a	LTP233	ltpFR	18	7	-1	SWORD	1423	5	-1	n/a	n/a	n/a	n/a	n/a
3358686	RECOG_TARGET	n/a	LTP233	ltpFR	18	7	-1	DEODORANT	448	5	-1	n/a	n/a	n/a	n/a	n/a
3359269	RECOG_RESP	n/a	LTP233	ltpFR	18	7	-1	DEODORANT	448	n/a	-1	n/a	n/a	n/a	n/a	n/a
3359587	RECOG_CONF	n/a	LTP233	ltpFR	18	7	-1	DEODORANT	448	5	-1	n/a	n/a	n/a	n/a	n/a
3361142	RECOG_LURE	n/a	LTP233	ltpFR	18	7	n/a	CASHEW	253	3	n/a	n/a	n/a	n/a	n/a	n/a
3362028	RECOG_RESP	n/a	LTP233	ltpFR	18	7	n/a	CASHEW	253	n/a	n/a	n/a	n/a	n/a	n/a	n/a
3362433	RECOG_CONF	n/a	LTP233	ltpFR	18	7	n/a	CASHEW	253	3	n/a	n/a	n/a	n/a	n/a	n/a
