onset	duration	trial_type	sample	stim_file	subject	experiment	session	trial	task	item_name	item_num	recog_conf	resp	color_b	color_g	color_r	case	font
1173.036	n/a	SESS_START	586518	n/a	LTP158	ltpFR	1	n/a	n/a	n/a	n/a	4	n/a	n/a	n/a	n/a	n/a	n/a
1240.422	n/a	WORD	620211	wordpools/wasnorm_wordpool.txt	LTP158	ltpFR	1	1	0	FACE	547	n/a	1	1	0.412841796875	0.57763671875	lower	../fonts/zerothre.ttf
1244.384	n/a	WORD	622192	wordpools/wasnorm_wordpool.txt	LTP158	ltpFR	1	1	0	OLIVE	975	n/a	0	1	0.412841796875	0.57763671875	lower	../fonts/zerothre.ttf
1248.346	n/a	WORD	624173	wordpools/wasnorm_wordpool.txt	LTP158	ltpFR	1	1	0	MAN	862	n/a	1	1	0.412841796875	0.57763671875	lower	../fonts/zerothre.ttf
1252.274	n/a	WORD	626137	wordpools/wasnorm_wordpool.txt	LTP158	ltpFR	1	1	0	GENTLEMAN	631	n/a	1	1	0.412841796875	0.57763671875	lower	../fonts/zerothre.ttf
1256.354	n/a	WORD	628177	wordpools/wasnorm_wordpool.txt	LTP158	ltpFR	1	1	1	WIRE	1616	n/a	0	0	0.5869140625	0.422607421875	upper	../fonts/amplitud.ttf
1260.408	n/a	WORD	630204	wordpools/wasnorm_wordpool.txt	LTP158	ltpFR	1	1	1	LEOPARD	812	n/a	1	0	0.5869140625	0.422607421875	upper	../fonts/amplitud.ttf
1264.378	n/a	WORD	632189	wordpools/wasnorm_wordpool.txt	LTP158	ltpFR	1	1	1	ANTEATER	26	n/a	1	0	0.5869140625	0.422607421875	upper	../fonts/amplitud.ttf
1268.314	n/a	WORD	634157	wordpools/wasnorm_wordpool.txt	LTP158	ltpFR	1	1	1	AFRICA	9	n/a	0	0	0.5869140625	0.422607421875	upper	../fonts/amplitud.ttf
1272.276	n/a	WORD	636138	wordpools/wasnorm_wordpool.txt	LTP158	ltpFR	1	1	1	INDIAN	736	n/a	1	0	0.5869140625	0.422607421875	upper	../fonts/amplitud.ttf
1276.238	n/a	WORD	638119	wordpools/wasnorm_wordpool.txt	LTP158	ltpFR	1	1	1	DUNE	506	n/a	0	0	0.5869140625	0.422607421875	upper	../fonts/amplitud.ttf
1280.076	n/a	WORD	640038	wordpools/wasnorm_wordpool.txt	LTP158	ltpFR	1	1	0	SWAN	1417	n/a	1	1	0.412841796875	0.57763671875	lower	../fonts/zerothre.ttf
1284.14	n/a	WORD	642070	wordpools/wasnorm_wordpool.txt	LTP158	ltpFR	1	1	0	NOTE	958	n/a	0	1	0.412841796875	0.57763671875	lower	../fonts/zerothre.ttf
1288.192	n/a	WORD	644096	wordpools/wasnorm_wordpool.txt	LTP158	ltpFR	1	1	0	PREDATOR	1120	n/a	1	1	0.412841796875	0.57763671875	lower	../fonts/zerothre.ttf
1292.114	n/a	WORD	646057	wordpools/wasnorm_wordpool.txt	LTP158	ltpFR	1	1	0	SPARROW	1347	n/a	0	1	0.412841796875	0.57763671875	lower	../fonts/zerothre.ttf
1296.1	n/a	WORD	648050	wordpools/wasnorm_wordpool.txt	LTP158	ltpFR	1	1	1	CHAIN	273	n/a	0	0	0.5869140625	0.422607421875	upper	../fonts/amplitud.ttf
1300.054	n/a	WORD	650027	wordpools/wasnorm_wordpool.txt	LTP158	ltpFR	1	1	1	MAILBOX	857	n/a	0	0	0.5869140625	0.422607421875	upper	../fonts/amplitud.ttf
1305.882	n/a	REC_START	652941	n/a	LTP158	ltpFR	1	1	n/a	n/a	n/a	n/a	n/a	n/a	n/a	n/a	n/a	n/a
1307.936	n/a	REC_WORD	653968	wordpools/wasnorm_wordpool.txt	LTP158	ltpFR	1	1	1	CHAIN	273	n/a	0	n/a	n/a	n/a	n/a	n/a
1309.348	n/a	REC_WORD	654674	wordpools/wasnorm_wordpool.txt	LTP158	ltpFR	1	1	1	MAILBOX	857	n/a	0	n/a	n/a	n/a	n/a	n/a
1310.348	n/a	REC_WORD_VV	655174	wordpools/wasnorm_wordpool.txt	LTP158	ltpFR	1	1	n/a	<>	-1	n/a	n/a	n/a	n/a	n/a	n/a	n/a
1311.912	n/a	REC_WORD	655956	wordpools/wasnorm_wordpool.txt	LTP158	ltpFR	1	1	0	PREDATOR	1120	n/a	1	n/a	n/a	n/a	n/a	n/a
1313.828	n/a	REC_WORD	656914	wordpools/wasnorm_wordpool.txt	LTP158	ltpFR	1	1	1	LEOPARD	812	n/a	1	n/a	n/a	n/a	n/a	n/a
1315.504	n/a	REC_WORD	657752	wordpools/wasnorm_wordpool.txt	LTP158	ltpFR	1	1	1	ANTEATER	26	n/a	1	n/a	n/a	n/a	n/a	n/a
1317.61	n/a	REC_WORD	658805	wordpools/wasnorm_wordpool.txt	LTP158	ltpFR	1	1	0	NOTE	958	n/a	0	n/a	n/a	n/a	n/a	n/a
1319.68	n/a	REC_WORD	659840	wordpools/wasnorm_wordpool.txt	LTP158	ltpFR	1	1	1	AFRICA	9	n/a	0	n/a	n/a	n/a	n/a	n/a
1321.37	n/a	REC_WORD	660685	wordpools/wasnorm_wordpool.txt	LTP158	ltpFR	1	1	1	INDIAN	736	n/a	1	n/a	n/a	n/a	n/a	n/a
1324.17	n/a	REC_WORD	662085	wordpools/wasnorm_wordpool.txt	LTP158	ltpFR	1	1	1	DUNE	506	n/a	0	n/a	n/a	n/a	n/a	n/a
1326.09	n/a	REC_WORD	663045	wordpools/wasnorm_wordpool.txt	LTP158	ltpFR	1	1	0	OLIVE	975	n/a	0	n/a	n/a	n/a	n/a	n/a
1327.682	n/a	REC_WORD	663841	wordpools/wasnorm_wordpool.txt	LTP158	ltpFR	1	1	0	FACE	547	n/a	1	n/a	n/a	n/a	n/a	n/a
1329.348	n/a	REC_WORD	664674	wordpools/wasnorm_wordpool.txt	LTP158	ltpFR	1	1	0	MAN	862	n/a	1	n/a	n/a	n/a	n/a	n/a
1330.774	n/a	REC_WORD	665387	wordpools/wasnorm_wordpool.txt	LTP158	ltpFR	1	1	0	GENTLEMAN	631	n/a	1	n/a	n/a	n/a	n/a	n/a
1338.826	n/a	REC_WORD	669413	wordpools/wasnorm_wordpool.txt	LTP158	ltpFR	1	1	1	CHAIN	273	n/a	0	n/a	n/a	n/a	n/a	n/a
1343.5	n/a	REC_WORD	671750	wordpools/wasnorm_wordpool.txt	LTP158	ltpFR	1	1	1	MAILBOX	857	n/a	0	n/a	n/a	n/a	n/a	n/a
1385.414	n/a	WORD	692707	wordpools/wasnorm_wordpool.txt	LTP158	ltpFR	1	2	1	TELEPHONE	1445	n/a	0	0	0.5869140625	0.422607421875	upper	../fonts/amplitud.ttf
1389.434	n/a	WORD	694717	wordpools/wasnorm_wordpool.txt	LTP158	ltpFR	1	2	1	LITERATURE	831	n/a	0	0	0.5869140625	0.422607421875	upper	../fonts/amplitud.ttf
1393.48	n/a	WORD	696740	wordpools/wasnorm_wordpool.txt	LTP158	ltpFR	1	2	1	BLUEBERRY	140	n/a	0	0	0.5869140625	0.422607421875	upper	../fonts/amplitud.ttf
1397.474	n/a	WORD	698737	wordpools/wasnorm_wordpool.txt	LTP158	ltpFR	1	2	0	ASTEROID	50	n/a	1	1	0.412841796875	0.57763671875	lower	../fonts/zerothre.ttf
1401.604	n/a	WORD	700802	wordpools/wasnorm_wordpool.txt	LTP158	ltpFR	1	2	0	CHICKEN	297	n/a	1	1	0.412841796875	0.57763671875	lower	../fonts/zerothre.ttf
1405.632	n/a	WORD	702816	wordpools/wasnorm_wordpool.txt	LTP158	ltpFR	1	2	0	WINGS	1614	n/a	0	1	0.412841796875	0.57763671875	lower	../fonts/zerothre.ttf
1409.82	n/a	WORD	704910	wordpools/wasnorm_wordpool.txt	LTP158	ltpFR	1	2	1	MICROPHONE	890	n/a	0	0	0.5869140625	0.422607421875	upper	../fonts/amplitud.ttf
1413.672	n/a	WORD	706836	wordpools/wasnorm_wordpool.txt	LTP158	ltpFR	1	2	1	PIGEON	1065	n/a	1	0	0.5869140625	0.422607421875	upper	../fonts/amplitud.ttf
1417.844	n/a	WORD	708922	wordpools/wasnorm_wordpool.txt	LTP158	ltpFR	1	2	1	PELICAN	1039	n/a	1	0	0.5869140625	0.422607421875	upper	../fonts/amplitud.ttf
1421.998	n/a	WORD	710999	wordpools/wasnorm_wordpool.txt	LTP158	ltpFR	1	2	1	WIFE	1609	n/a	1	0	0.5869140625	0.422607421875	upper	../fonts/amplitud.ttf
1426.084	n/a	WORD	713042	wordpools/wasnorm_wordpool.txt	LTP158	ltpFR	1	2	1	RIB	1188	n/a	0	0	0.5869140625	0.422607421875	upper	../fonts/amplitud.ttf
1430.254	n/a	WORD	715127	wordpools/wasnorm_wordpool.txt	LTP158	ltpFR	1	2	0	MEAL	882	n/a	0	1	0.412841796875	0.57763671875	lower	../fonts/zerothre.ttf
1434.2	n/a	WORD	717100	wordpools/wasnorm_wordpool.txt	LTP158	ltpFR	1	2	0	INSTRUCTOR	741	n/a	1	1	0.412841796875	0.57763671875	lower	../fonts/zerothre.ttf
1438.062	n/a	WORD	719031	wordpools/wasnorm_wordpool.txt	LTP158	ltpFR	1	2	0	TIGER	1467	n/a	1	1	0.412841796875	0.57763671875	lower	../fonts/zerothre.ttf
1442.05	n/a	WORD	721025	wordpools/wasnorm_wordpool.txt	LTP158	ltpFR	1	2	0	BOOK	149	n/a	0	1	0.412841796875	0.57763671875	lower	../fonts/zerothre.ttf
1446.236	n/a	WORD	723118	wordpools/wasnorm_wordpool.txt	LTP158	ltpFR	1	2	0	PASTRY	1022	n/a	0	1	0.412841796875	0.57763671875	lower	../fonts/zerothre.ttf
1452.056	n/a	REC_START	726028	n/a	LTP158	ltpFR	1	2	n/a	n/a	n/a	n/a	n/a	n/a	n/a	n/a	n/a	n/a
1454.58	n/a	REC_WORD	727290	wordpools/wasnorm_wordpool.txt	LTP158	ltpFR	1	2	0	BOOK	149	n/a	0	n/a	n/a	n/a	n/a	n/a
1455.816	n/a	REC_WORD	727908	wordpools/wasnorm_wordpool.txt	LTP158	ltpFR	1	2	0	PASTRY	1022	n/a	0	n/a	n/a	n/a	n/a	n/a
1459.18	n/a	REC_WORD	729590	wordpools/wasnorm_wordpool.txt	LTP158	ltpFR	1	2	1	PIGEON	1065	n/a	1	n/a	n/a	n/a	n/a	n/a
1460.656	n/a	REC_WORD	730328	wordpools/wasnorm_wordpool.txt	LTP158	ltpFR	1	2	1	PELICAN	1039	n/a	1	n/a	n/a	n/a	n/a	n/a
1464.202	n/a	REC_WORD	732101	wordpools/wasnorm_wordpool.txt	LTP158	ltpFR	1	2	0	MEAL	882	n/a	0	n/a	n/a	n/a	n/a	n/a
1467.32	n/a	REC_WORD	733660	wordpools/wasnorm_wordpool.txt	LTP158	ltpFR	1	2	1	TELEPHONE	1445	n/a	0	n/a	n/a	n/a	n/a	n/a
1471.65	n/a	REC_WORD	735825	wordpools/wasnorm_wordpool.txt	LTP158	ltpFR	1	2	1	WIFE	1609	n/a	1	n/a	n/a	n/a	n/a	n/a
1475.596	n/a	REC_WORD	737798	wordpools/wasnorm_wordpool.txt	LTP158	ltpFR	1	2	1	RIB	1188	n/a	0	n/a	n/a	n/a	n/a	n/a
1490.886	n/a	REC_WORD	745443	wordpools/wasnorm_wordpool.txt	LTP158	ltpFR	1	2	1	BLUEBERRY	140	n/a	0	n/a	n/a	n/a	n/a	n/a
1537.73	n/a	WORD	768865	wordpools/wasnorm_wordpool.txt	LTP158	ltpFR	1	3	-1	TUNA	1518	n/a	-1	1	1.0	1.0	upper	../fonts/Verdana.ttf
1541.768	n/a	WORD	770884	wordpools/wasnorm_wordpool.txt	LTP158	ltpFR	1	3	-1	ORCHESTRA	981	n/a	-1	1	1.0	1.0	upper	../fonts/Verdana.ttf
1545.94	n/a	WORD	772970	wordpools/wasnorm_wordpool.txt	LTP158	ltpFR	1	3	-1	WAITRESS	1581	n/a	-1	1	1.0	1.0	upper	../fonts/Verdana.ttf
1549.892	n/a	WORD	774946	wordpools/wasnorm_wordpool.txt	LTP158	ltpFR	1	3	-1	NEST	945	n/a	-1	1	1.0	1.0	upper	../fonts/Verdana.ttf
1553.93	n/a	WORD	776965	wordpools/wasnorm_wordpool.txt	LTP158	ltpFR	1	3	-1	CUSTARD	429	n/a	-1	1	1.0	1.0	upper	../fonts/Verdana.ttf
1557.766	n/a	WORD	778883	wordpools/wasnorm_wordpool.txt	LTP158	ltpFR	1	3	-1	TRIANGLE	1504	n/a	-1	1	1.0	1.0	upper	../fonts/Verdana.ttf
1561.812	n/a	WORD	780906	wordpools/wasnorm_wordpool.txt	LTP158	ltpFR	1	3	-1	SKETCH	1315	n/a	-1	1	1.0	1.0	upper	../fonts/Verdana.ttf
1565.648	n/a	WORD	782824	wordpools/wasnorm_wordpool.txt	LTP158	ltpFR	1	3	-1	DRAWING	494	n/a	-1	1	1.0	1.0	upper	../fonts/Verdana.ttf
1569.828	n/a	WORD	784914	wordpools/wasnorm_wordpool.txt	LTP158	ltpFR	1	3	-1	TRICYCLE	1506	n/a	-1	1	1.0	1.0	upper	../fonts/Verdana.ttf
1573.672	n/a	WORD	786836	wordpools/wasnorm_wordpool.txt	LTP158	ltpFR	1	3	-1	HATCHET	691	n/a	-1	1	1.0	1.0	upper	../fonts/Verdana.ttf
1577.602	n/a	WORD	788801	wordpools/wasnorm_wordpool.txt	LTP158	ltpFR	1	3	-1	CHISEL	305	n/a	-1	1	1.0	1.0	upper	../fonts/Verdana.ttf
1581.764	n/a	WORD	790882	wordpools/wasnorm_wordpool.txt	LTP158	ltpFR	1	3	-1	PROTRACTOR	1133	n/a	-1	1	1.0	1.0	upper	../fonts/Verdana.ttf
1585.658	n/a	WORD	792829	wordpools/wasnorm_wordpool.txt	LTP158	ltpFR	1	3	-1	SPOON	1357	n/a	-1	1	1.0	1.0	upper	../fonts/Verdana.ttf
1589.864	n/a	WORD	794932	wordpools/wasnorm_wordpool.txt	LTP158	ltpFR	1	3	-1	APRON	35	n/a	-1	1	1.0	1.0	upper	../fonts/Verdana.ttf
1593.776	n/a	WORD	796888	wordpools/wasnorm_wordpool.txt	LTP158	ltpFR	1	3	-1	RECORD	1176	n/a	-1	1	1.0	1.0	upper	../fonts/Verdana.ttf
1597.78	n/a	WORD	798890	wordpools/wasnorm_wordpool.txt	LTP158	ltpFR	1	3	-1	SCALLOP	1242	n/a	-1	1	1.0	1.0	upper	../fonts/Verdana.ttf
1603.54	n/a	REC_START	801770	n/a	LTP158	ltpFR	1	3	n/a	n/a	n/a	n/a	n/a	n/a	n/a	n/a	n/a	n/a
1606.252	n/a	REC_WORD	803126	wordpools/wasnorm_wordpool.txt	LTP158	ltpFR	1	3	-1	SCALLOP	1242	n/a	-1	n/a	n/a	n/a	n/a	n/a
1608.778	n/a	REC_WORD	804389	wordpools/wasnorm_wordpool.txt	LTP158	ltpFR	1	3	-1	RECORD	1176	n/a	-1	n/a	n/a	n/a	n/a	n/a
1610.832	n/a	REC_WORD	805416	wordpools/wasnorm_wordpool.txt	LTP158	ltpFR	1	3	-1	WAITRESS	1581	n/a	-1	n/a	n/a	n/a	n/a	n/a
1614.51	n/a	REC_WORD	807255	wordpools/wasnorm_wordpool.txt	LTP158	ltpFR	1	3	-1	ORCHESTRA	981	n/a	-1	n/a	n/a	n/a	n/a	n/a
1617.268	n/a	REC_WORD	808634	wordpools/wasnorm_wordpool.txt	LTP158	ltpFR	1	3	-1	NEST	945	n/a	-1	n/a	n/a	n/a	n/a	n/a
1620.03	n/a	REC_WORD	810015	wordpools/wasnorm_wordpool.txt	LTP158	ltpFR	1	3	-1	SPOON	1357	n/a	-1	n/a	n/a	n/a	n/a	n/a
1623.78	n/a	REC_WORD	811890	wordpools/wasnorm_wordpool.txt	LTP158	ltpFR	1	3	-1	SKETCH	1315	n/a	-1	n/a	n/a	n/a	n/a	n/a
1625.678	n/a	REC_WORD	812839	wordpools/wasnorm_wordpool.txt	LTP158	ltpFR	1	3	-1	DRAWING	494	n/a	-1	n/a	n/a	n/a	n/a	n/a
1628.632	n/a	REC_WORD	814316	wordpools/wasnorm_wordpool.txt	LTP158	ltpFR	1	3	-1	HATCHET	691	n/a	-1	n/a	n/a	n/a	n/a	n/a
1630.088	n/a	REC_WORD	815044	wordpools/wasnorm_wordpool.txt	LTP158	ltpFR	1	3	-1	CHISEL	305	n/a	-1	n/a	n/a	n/a	n/a	n/a
1631.696	n/a	REC_WORD	815848	wordpools/wasnorm_wordpool.txt	LTP158	ltpFR	1	3	-1	PROTRACTOR	1133	n/a	-1	n/a	n/a	n/a	n/a	n/a
1655.186	n/a	REC_WORD	827593	wordpools/wasnorm_wordpool.txt	LTP158	ltpFR	1	3	-1	APRON	35	n/a	-1	n/a	n/a	n/a	n/a	n/a
1684.43	n/a	WORD	842215	wordpools/wasnorm_wordpool.txt	LTP158	ltpFR	1	4	1	SALIVA	1226	n/a	0	0	0.5869140625	0.422607421875	upper	../fonts/amplitud.ttf
1688.376	n/a	WORD	844188	wordpools/wasnorm_wordpool.txt	LTP158	ltpFR	1	4	1	IDOL	733	n/a	1	0	0.5869140625	0.422607421875	upper	../fonts/amplitud.ttf
1692.528	n/a	WORD	846264	wordpools/wasnorm_wordpool.txt	LTP158	ltpFR	1	4	1	TEMPLE	1448	n/a	0	0	0.5869140625	0.422607421875	upper	../fonts/amplitud.ttf
1696.574	n/a	WORD	848287	wordpools/wasnorm_wordpool.txt	LTP158	ltpFR	1	4	1	VOLUNTEER	1577	n/a	1	0	0.5869140625	0.422607421875	upper	../fonts/amplitud.ttf
1700.544	n/a	WORD	850272	wordpools/wasnorm_wordpool.txt	LTP158	ltpFR	1	4	0	MANAGER	863	n/a	1	1	0.412841796875	0.57763671875	lower	../fonts/zerothre.ttf
1704.614	n/a	WORD	852307	wordpools/wasnorm_wordpool.txt	LTP158	ltpFR	1	4	0	WORKER	1621	n/a	1	1	0.412841796875	0.57763671875	lower	../fonts/zerothre.ttf
1708.668	n/a	WORD	854334	wordpools/wasnorm_wordpool.txt	LTP158	ltpFR	1	4	0	SUPERVISOR	1410	n/a	1	1	0.412841796875	0.57763671875	lower	../fonts/zerothre.ttf
1712.588	n/a	WORD	856294	wordpools/wasnorm_wordpool.txt	LTP158	ltpFR	1	4	1	BANANA	77	n/a	0	0	0.5869140625	0.422607421875	upper	../fonts/amplitud.ttf
1716.584	n/a	WORD	858292	wordpools/wasnorm_wordpool.txt	LTP158	ltpFR	1	4	1	RAISIN	1163	n/a	0	0	0.5869140625	0.422607421875	upper	../fonts/amplitud.ttf
1720.788	n/a	WORD	860394	wordpools/wasnorm_wordpool.txt	LTP158	ltpFR	1	4	1	ARTICLE	42	n/a	0	0	0.5869140625	0.422607421875	upper	../fonts/amplitud.ttf
1724.842	n/a	WORD	862421	wordpools/wasnorm_wordpool.txt	LTP158	ltpFR	1	4	1	HERO	706	n/a	1	0	0.5869140625	0.422607421875	upper	../fonts/amplitud.ttf
1728.696	n/a	WORD	864348	wordpools/wasnorm_wordpool.txt	LTP158	ltpFR	1	4	0	COLT	349	n/a	1	1	0.412841796875	0.57763671875	lower	../fonts/zerothre.ttf
1732.784	n/a	WORD	866392	wordpools/wasnorm_wordpool.txt	LTP158	ltpFR	1	4	0	LOUNGE	845	n/a	1	1	0.412841796875	0.57763671875	lower	../fonts/zerothre.ttf
1736.71	n/a	WORD	868355	wordpools/wasnorm_wordpool.txt	LTP158	ltpFR	1	4	0	CHAPEL	280	n/a	1	1	0.412841796875	0.57763671875	lower	../fonts/zerothre.ttf
1740.848	n/a	WORD	870424	wordpools/wasnorm_wordpool.txt	LTP158	ltpFR	1	4	0	FAIRY	549	n/a	1	1	0.412841796875	0.57763671875	lower	../fonts/zerothre.ttf
1744.978	n/a	WORD	872489	wordpools/wasnorm_wordpool.txt	LTP158	ltpFR	1	4	0	DAM	436	n/a	1	1	0.412841796875	0.57763671875	lower	../fonts/zerothre.ttf
1750.67	n/a	REC_START	875335	n/a	LTP158	ltpFR	1	4	n/a	n/a	n/a	n/a	n/a	n/a	n/a	n/a	n/a	n/a
1753.384	n/a	REC_WORD	876692	wordpools/wasnorm_wordpool.txt	LTP158	ltpFR	1	4	0	FAIRY	549	n/a	1	n/a	n/a	n/a	n/a	n/a
1755.076	n/a	REC_WORD	877538	wordpools/wasnorm_wordpool.txt	LTP158	ltpFR	1	4	0	DAM	436	n/a	1	n/a	n/a	n/a	n/a	n/a
1756.728	n/a	REC_WORD	878364	wordpools/wasnorm_wordpool.txt	LTP158	ltpFR	1	4	0	CHAPEL	280	n/a	1	n/a	n/a	n/a	n/a	n/a
1759.052	n/a	REC_WORD	879526	wordpools/wasnorm_wordpool.txt	LTP158	ltpFR	1	4	1	TEMPLE	1448	n/a	0	n/a	n/a	n/a	n/a	n/a
1766.0	n/a	REC_WORD	883000	wordpools/wasnorm_wordpool.txt	LTP158	ltpFR	1	4	n/a	CELEBRITY	-1	n/a	n/a	n/a	n/a	n/a	n/a	n/a
1770.552	n/a	REC_WORD	885276	wordpools/wasnorm_wordpool.txt	LTP158	ltpFR	1	4	1	IDOL	733	n/a	1	n/a	n/a	n/a	n/a	n/a
1781.85	n/a	REC_WORD	890925	wordpools/wasnorm_wordpool.txt	LTP158	ltpFR	1	4	1	VOLUNTEER	1577	n/a	1	n/a	n/a	n/a	n/a	n/a
1783.252	n/a	REC_WORD	891626	wordpools/wasnorm_wordpool.txt	LTP158	ltpFR	1	4	0	MANAGER	863	n/a	1	n/a	n/a	n/a	n/a	n/a
1784.554	n/a	REC_WORD	892277	wordpools/wasnorm_wordpool.txt	LTP158	ltpFR	1	4	0	WORKER	1621	n/a	1	n/a	n/a	n/a	n/a	n/a
1785.62	n/a	REC_WORD	892810	wordpools/wasnorm_wordpool.txt	LTP158	ltpFR	1	4	0	SUPERVISOR	1410	n/a	1	n/a	n/a	n/a	n/a	n/a
1794.906	n/a	REC_WORD	897453	wordpools/wasnorm_wordpool.txt	LTP158	ltpFR	1	4	1	RAISIN	1163	n/a	0	n/a	n/a	n/a	n/a	n/a
1796.576	n/a	REC_WORD	898288	wordpools/wasnorm_wordpool.txt	LTP158	ltpFR	1	4	1	BANANA	77	n/a	0	n/a	n/a	n/a	n/a	n/a
1830.538	n/a	WORD	915269	wordpools/wasnorm_wordpool.txt	LTP158	ltpFR	1	5	0	SEAL	1262	n/a	1	1	0.412841796875	0.57763671875	lower	../fonts/zerothre.ttf
1834.368	n/a	WORD	917184	wordpools/wasnorm_wordpool.txt	LTP158	ltpFR	1	5	0	STORE	1387	n/a	1	1	0.412841796875	0.57763671875	lower	../fonts/zerothre.ttf
1838.246	n/a	WORD	919123	wordpools/wasnorm_wordpool.txt	LTP158	ltpFR	1	5	0	CONSUMER	365	n/a	1	1	0.412841796875	0.57763671875	lower	../fonts/zerothre.ttf
1842.1	n/a	WORD	921050	wordpools/wasnorm_wordpool.txt	LTP158	ltpFR	1	5	0	FOX	598	n/a	1	1	0.412841796875	0.57763671875	lower	../fonts/zerothre.ttf
1846.254	n/a	WORD	923127	wordpools/wasnorm_wordpool.txt	LTP158	ltpFR	1	5	0	METEOR	889	n/a	1	1	0.412841796875	0.57763671875	lower	../fonts/zerothre.ttf
1850.44	n/a	WORD	925220	wordpools/wasnorm_wordpool.txt	LTP158	ltpFR	1	5	0	RECEIPT	1173	n/a	0	1	0.412841796875	0.57763671875	lower	../fonts/zerothre.ttf
1854.352	n/a	WORD	927176	wordpools/wasnorm_wordpool.txt	LTP158	ltpFR	1	5	0	BLUEJAY	141	n/a	0	1	0.412841796875	0.57763671875	lower	../fonts/zerothre.ttf
1858.314	n/a	WORD	929157	wordpools/wasnorm_wordpool.txt	LTP158	ltpFR	1	5	0	ROOST	1208	n/a	1	1	0.412841796875	0.57763671875	lower	../fonts/zerothre.ttf
1862.376	n/a	WORD	931188	wordpools/wasnorm_wordpool.txt	LTP158	ltpFR	1	5	0	SALESMAN	1225	n/a	1	1	0.412841796875	0.57763671875	lower	../fonts/zerothre.ttf
1866.48	n/a	WORD	933240	wordpools/wasnorm_wordpool.txt	LTP158	ltpFR	1	5	0	CUSTOMER	430	n/a	1	1	0.412841796875	0.57763671875	lower	../fonts/zerothre.ttf
1870.608	n/a	WORD	935304	wordpools/wasnorm_wordpool.txt	LTP158	ltpFR	1	5	0	REPTILE	1185	n/a	1	1	0.412841796875	0.57763671875	lower	../fonts/zerothre.ttf
1874.72	n/a	WORD	937360	wordpools/wasnorm_wordpool.txt	LTP158	ltpFR	1	5	0	CAPTIVE	240	n/a	1	1	0.412841796875	0.57763671875	lower	../fonts/zerothre.ttf
1878.698	n/a	WORD	939349	wordpools/wasnorm_wordpool.txt	LTP158	ltpFR	1	5	0	ELBOW	520	n/a	1	1	0.412841796875	0.57763671875	lower	../fonts/zerothre.ttf
1882.702	n/a	WORD	941351	wordpools/wasnorm_wordpool.txt	LTP158	ltpFR	1	5	0	THIGH	1457	n/a	1	1	0.412841796875	0.57763671875	lower	../fonts/zerothre.ttf
1886.714	n/a	WORD	943357	wordpools/wasnorm_wordpool.txt	LTP158	ltpFR	1	5	0	PUB	1135	n/a	1	1	0.412841796875	0.57763671875	lower	../fonts/zerothre.ttf
1890.584	n/a	WORD	945292	wordpools/wasnorm_wordpool.txt	LTP158	ltpFR	1	5	0	DRINK	498	n/a	0	1	0.412841796875	0.57763671875	lower	../fonts/zerothre.ttf
1896.512	n/a	REC_START	948256	n/a	LTP158	ltpFR	1	5	n/a	n/a	n/a	n/a	n/a	n/a	n/a	n/a	n/a	n/a
1897.868	n/a	REC_WORD	948934	wordpools/wasnorm_wordpool.txt	LTP158	ltpFR	1	5	0	PUB	1135	n/a	1	n/a	n/a	n/a	n/a	n/a
1899.22	n/a	REC_WORD	949610	wordpools/wasnorm_wordpool.txt	LTP158	ltpFR	1	5	0	DRINK	498	n/a	0	n/a	n/a	n/a	n/a	n/a
1900.736	n/a	REC_WORD	950368	wordpools/wasnorm_wordpool.txt	LTP158	ltpFR	1	5	0	CONSUMER	365	n/a	1	n/a	n/a	n/a	n/a	n/a
1902.358	n/a	REC_WORD	951179	wordpools/wasnorm_wordpool.txt	LTP158	ltpFR	1	5	0	CUSTOMER	430	n/a	1	n/a	n/a	n/a	n/a	n/a
1903.72	n/a	REC_WORD	951860	wordpools/wasnorm_wordpool.txt	LTP158	ltpFR	1	5	0	SEAL	1262	n/a	1	n/a	n/a	n/a	n/a	n/a
1905.046	n/a	REC_WORD	952523	wordpools/wasnorm_wordpool.txt	LTP158	ltpFR	1	5	0	STORE	1387	n/a	1	n/a	n/a	n/a	n/a	n/a
1907.706	n/a	REC_WORD	953853	wordpools/wasnorm_wordpool.txt	LTP158	ltpFR	1	5	0	RECEIPT	1173	n/a	0	n/a	n/a	n/a	n/a	n/a
1908.978	n/a	REC_WORD	954489	wordpools/wasnorm_wordpool.txt	LTP158	ltpFR	1	5	0	FOX	598	n/a	1	n/a	n/a	n/a	n/a	n/a
1911.996	n/a	REC_WORD	955998	wordpools/wasnorm_wordpool.txt	LTP158	ltpFR	1	5	0	ROOST	1208	n/a	1	n/a	n/a	n/a	n/a	n/a
1915.664	n/a	REC_WORD	957832	wordpools/wasnorm_wordpool.txt	LTP158	ltpFR	1	5	0	REPTILE	1185	n/a	1	n/a	n/a	n/a	n/a	n/a
1918.766	n/a	REC_WORD	959383	wordpools/wasnorm_wordpool.txt	LTP158	ltpFR	1	5	0	CAPTIVE	240	n/a	1	n/a	n/a	n/a	n/a	n/a
1932.162	n/a	REC_WORD	966081	wordpools/wasnorm_wordpool.txt	LTP158	ltpFR	1	5	0	ELBOW	520	n/a	1	n/a	n/a	n/a	n/a	n/a
1933.842	n/a	REC_WORD	966921	wordpools/wasnorm_wordpool.txt	LTP158	ltpFR	1	5	0	THIGH	1457	n/a	1	n/a	n/a	n/a	n/a	n/a
1964.692	n/a	REC_WORD	982346	wordpools/wasnorm_wordpool.txt	LTP158	ltpFR	1	5	0	SALESMAN	1225	n/a	1	n/a	n/a	n/a	n/a	n/a
1990.422	n/a	WORD	995211	wordpools/wasnorm_wordpool.txt	LTP158	ltpFR	1	6	1	JUNGLE	764	n/a	0	0	0.5869140625	0.422607421875	upper	../fonts/amplitud.ttf
1994.326	n/a	WORD	997163	wordpools/wasnorm_wordpool.txt	LTP158	ltpFR	1	6	1	AUTOMOBILE	62	n/a	0	0	0.5869140625	0.422607421875	upper	../fonts/amplitud.ttf
1998.396	n/a	WORD	999198	wordpools/wasnorm_wordpool.txt	LTP158	ltpFR	1	6	1	BATTERY	101	n/a	0	0	0.5869140625	0.422607421875	upper	../fonts/amplitud.ttf
2002.458	n/a	WORD	1001229	wordpools/wasnorm_wordpool.txt	LTP158	ltpFR	1	6	1	SERVER	1272	n/a	0	0	0.5869140625	0.422607421875	upper	../fonts/amplitud.ttf
2006.66	n/a	WORD	1003330	wordpools/wasnorm_wordpool.txt	LTP158	ltpFR	1	6	1	BULLETIN	195	n/a	0	0	0.5869140625	0.422607421875	upper	../fonts/amplitud.ttf
2010.524	n/a	WORD	1005262	wordpools/wasnorm_wordpool.txt	LTP158	ltpFR	1	6	1	BARTENDER	92	n/a	1	0	0.5869140625	0.422607421875	upper	../fonts/amplitud.ttf
2014.536	n/a	WORD	1007268	wordpools/wasnorm_wordpool.txt	LTP158	ltpFR	1	6	1	BUGGY	188	n/a	0	0	0.5869140625	0.422607421875	upper	../fonts/amplitud.ttf
2018.514	n/a	WORD	1009257	wordpools/wasnorm_wordpool.txt	LTP158	ltpFR	1	6	1	CHIMPANZEE	302	n/a	1	0	0.5869140625	0.422607421875	upper	../fonts/amplitud.ttf
2022.444	n/a	WORD	1011222	wordpools/wasnorm_wordpool.txt	LTP158	ltpFR	1	6	1	BARLEY	88	n/a	0	0	0.5869140625	0.422607421875	upper	../fonts/amplitud.ttf
2026.34	n/a	WORD	1013170	wordpools/wasnorm_wordpool.txt	LTP158	ltpFR	1	6	1	BREAD	170	n/a	0	0	0.5869140625	0.422607421875	upper	../fonts/amplitud.ttf
2030.384	n/a	WORD	1015192	wordpools/wasnorm_wordpool.txt	LTP158	ltpFR	1	6	1	PORCUPINE	1107	n/a	1	0	0.5869140625	0.422607421875	upper	../fonts/amplitud.ttf
2034.372	n/a	WORD	1017186	wordpools/wasnorm_wordpool.txt	LTP158	ltpFR	1	6	1	BEAVER	109	n/a	1	0	0.5869140625	0.422607421875	upper	../fonts/amplitud.ttf
2038.566	n/a	WORD	1019283	wordpools/wasnorm_wordpool.txt	LTP158	ltpFR	1	6	1	MICROWAVE	892	n/a	0	0	0.5869140625	0.422607421875	upper	../fonts/amplitud.ttf
2042.628	n/a	WORD	1021314	wordpools/wasnorm_wordpool.txt	LTP158	ltpFR	1	6	1	CURB	426	n/a	0	0	0.5869140625	0.422607421875	upper	../fonts/amplitud.ttf
2046.682	n/a	WORD	1023341	wordpools/wasnorm_wordpool.txt	LTP158	ltpFR	1	6	1	SPY	1360	n/a	1	0	0.5869140625	0.422607421875	upper	../fonts/amplitud.ttf
2050.752	n/a	WORD	1025376	wordpools/wasnorm_wordpool.txt	LTP158	ltpFR	1	6	1	SPATULA	1348	n/a	0	0	0.5869140625	0.422607421875	upper	../fonts/amplitud.ttf
2056.62	n/a	REC_START	1028310	n/a	LTP158	ltpFR	1	6	n/a	n/a	n/a	n/a	n/a	n/a	n/a	n/a	n/a	n/a
2058.566	n/a	REC_WORD	1029283	wordpools/wasnorm_wordpool.txt	LTP158	ltpFR	1	6	1	SPY	1360	n/a	1	n/a	n/a	n/a	n/a	n/a
2059.668	n/a	REC_WORD	1029834	wordpools/wasnorm_wordpool.txt	LTP158	ltpFR	1	6	1	SPATULA	1348	n/a	0	n/a	n/a	n/a	n/a	n/a
2063.434	n/a	REC_WORD	1031717	wordpools/wasnorm_wordpool.txt	LTP158	ltpFR	1	6	1	JUNGLE	764	n/a	0	n/a	n/a	n/a	n/a	n/a
2065.416	n/a	REC_WORD	1032708	wordpools/wasnorm_wordpool.txt	LTP158	ltpFR	1	6	1	AUTOMOBILE	62	n/a	0	n/a	n/a	n/a	n/a	n/a
2067.102	n/a	REC_WORD	1033551	wordpools/wasnorm_wordpool.txt	LTP158	ltpFR	1	6	1	BUGGY	188	n/a	0	n/a	n/a	n/a	n/a	n/a
2069.448	n/a	REC_WORD	1034724	wordpools/wasnorm_wordpool.txt	LTP158	ltpFR	1	6	1	BATTERY	101	n/a	0	n/a	n/a	n/a	n/a	n/a
2070.54	n/a	REC_WORD	1035270	wordpools/wasnorm_wordpool.txt	LTP158	ltpFR	1	6	1	SERVER	1272	n/a	0	n/a	n/a	n/a	n/a	n/a
2072.26	n/a	REC_WORD	1036130	wordpools/wasnorm_wordpool.txt	LTP158	ltpFR	1	6	1	BULLETIN	195	n/a	0	n/a	n/a	n/a	n/a	n/a
2073.778	n/a	REC_WORD	1036889	wordpools/wasnorm_wordpool.txt	LTP158	ltpFR	1	6	1	MICROWAVE	892	n/a	0	n/a	n/a	n/a	n/a	n/a
2078.62	n/a	REC_WORD	1039310	wordpools/wasnorm_wordpool.txt	LTP158	ltpFR	1	6	1	PORCUPINE	1107	n/a	1	n/a	n/a	n/a	n/a	n/a
2089.936	n/a	REC_WORD	1044968	wordpools/wasnorm_wordpool.txt	LTP158	ltpFR	1	6	1	CURB	426	n/a	0	n/a	n/a	n/a	n/a	n/a
2149.89	n/a	WORD	1074945	wordpools/wasnorm_wordpool.txt	LTP158	ltpFR	1	7	1	TOOTHBRUSH	1482	n/a	0	0	0.5869140625	0.422607421875	upper	../fonts/amplitud.ttf
2154.018	n/a	WORD	1077009	wordpools/wasnorm_wordpool.txt	LTP158	ltpFR	1	7	1	PIT	1077	n/a	0	0	0.5869140625	0.422607421875	upper	../fonts/amplitud.ttf
2158.064	n/a	WORD	1079032	wordpools/wasnorm_wordpool.txt	LTP158	ltpFR	1	7	1	ORNAMENT	985	n/a	0	0	0.5869140625	0.422607421875	upper	../fonts/amplitud.ttf
2161.95	n/a	WORD	1080975	wordpools/wasnorm_wordpool.txt	LTP158	ltpFR	1	7	1	MOUTH	926	n/a	0	0	0.5869140625	0.422607421875	upper	../fonts/amplitud.ttf
2165.88	n/a	WORD	1082940	wordpools/wasnorm_wordpool.txt	LTP158	ltpFR	1	7	1	SKATE	1313	n/a	0	0	0.5869140625	0.422607421875	upper	../fonts/amplitud.ttf
2169.808	n/a	WORD	1084904	wordpools/wasnorm_wordpool.txt	LTP158	ltpFR	1	7	1	FLOWER	584	n/a	1	0	0.5869140625	0.422607421875	upper	../fonts/amplitud.ttf
2173.67	n/a	WORD	1086835	wordpools/wasnorm_wordpool.txt	LTP158	ltpFR	1	7	1	SEED	1266	n/a	0	0	0.5869140625	0.422607421875	upper	../fonts/amplitud.ttf
2177.532	n/a	WORD	1088766	wordpools/wasnorm_wordpool.txt	LTP158	ltpFR	1	7	1	TRAIN	1494	n/a	0	0	0.5869140625	0.422607421875	upper	../fonts/amplitud.ttf
2181.644	n/a	WORD	1090822	wordpools/wasnorm_wordpool.txt	LTP158	ltpFR	1	7	1	TREE	1502	n/a	1	0	0.5869140625	0.422607421875	upper	../fonts/amplitud.ttf
2185.456	n/a	WORD	1092728	wordpools/wasnorm_wordpool.txt	LTP158	ltpFR	1	7	1	PIPE	1073	n/a	0	0	0.5869140625	0.422607421875	upper	../fonts/amplitud.ttf
2189.626	n/a	WORD	1094813	wordpools/wasnorm_wordpool.txt	LTP158	ltpFR	1	7	1	KETTLE	772	n/a	0	0	0.5869140625	0.422607421875	upper	../fonts/amplitud.ttf
2193.554	n/a	WORD	1096777	wordpools/wasnorm_wordpool.txt	LTP158	ltpFR	1	7	1	WORM	1623	n/a	1	0	0.5869140625	0.422607421875	upper	../fonts/amplitud.ttf
2197.526	n/a	WORD	1098763	wordpools/wasnorm_wordpool.txt	LTP158	ltpFR	1	7	1	UNIFORM	1539	n/a	0	0	0.5869140625	0.422607421875	upper	../fonts/amplitud.ttf
2201.678	n/a	WORD	1100839	wordpools/wasnorm_wordpool.txt	LTP158	ltpFR	1	7	1	SOLDIER	1344	n/a	1	0	0.5869140625	0.422607421875	upper	../fonts/amplitud.ttf
2205.774	n/a	WORD	1102887	wordpools/wasnorm_wordpool.txt	LTP158	ltpFR	1	7	1	ROCK	1201	n/a	0	0	0.5869140625	0.422607421875	upper	../fonts/amplitud.ttf
2209.662	n/a	WORD	1104831	wordpools/wasnorm_wordpool.txt	LTP158	ltpFR	1	7	1	GAZELLE	628	n/a	1	0	0.5869140625	0.422607421875	upper	../fonts/amplitud.ttf
2215.44	n/a	REC_START	1107720	n/a	LTP158	ltpFR	1	7	n/a	n/a	n/a	n/a	n/a	n/a	n/a	n/a	n/a	n/a
2217.026	n/a	REC_WORD	1108513	wordpools/wasnorm_wordpool.txt	LTP158	ltpFR	1	7	1	ROCK	1201	n/a	0	n/a	n/a	n/a	n/a	n/a
2218.568	n/a	REC_WORD	1109284	wordpools/wasnorm_wordpool.txt	LTP158	ltpFR	1	7	1	GAZELLE	628	n/a	1	n/a	n/a	n/a	n/a	n/a
2222.814	n/a	REC_WORD	1111407	wordpools/wasnorm_wordpool.txt	LTP158	ltpFR	1	7	1	TOOTHBRUSH	1482	n/a	0	n/a	n/a	n/a	n/a	n/a
2224.18	n/a	REC_WORD	1112090	wordpools/wasnorm_wordpool.txt	LTP158	ltpFR	1	7	1	MOUTH	926	n/a	0	n/a	n/a	n/a	n/a	n/a
2225.506	n/a	REC_WORD	1112753	wordpools/wasnorm_wordpool.txt	LTP158	ltpFR	1	7	1	SKATE	1313	n/a	0	n/a	n/a	n/a	n/a	n/a
2226.506	n/a	REC_WORD_VV	1113253	wordpools/wasnorm_wordpool.txt	LTP158	ltpFR	1	7	n/a	<>	-1	n/a	n/a	n/a	n/a	n/a	n/a	n/a
2228.34	n/a	REC_WORD	1114170	wordpools/wasnorm_wordpool.txt	LTP158	ltpFR	1	7	1	PIT	1077	n/a	0	n/a	n/a	n/a	n/a	n/a
2230.072	n/a	REC_WORD	1115036	wordpools/wasnorm_wordpool.txt	LTP158	ltpFR	1	7	1	PIPE	1073	n/a	0	n/a	n/a	n/a	n/a	n/a
2232.098	n/a	REC_WORD	1116049	wordpools/wasnorm_wordpool.txt	LTP158	ltpFR	1	7	1	ORNAMENT	985	n/a	0	n/a	n/a	n/a	n/a	n/a
2261.156	n/a	REC_WORD	1130578	wordpools/wasnorm_wordpool.txt	LTP158	ltpFR	1	7	1	TREE	1502	n/a	1	n/a	n/a	n/a	n/a	n/a
2295.63	n/a	WORD	1147815	wordpools/wasnorm_wordpool.txt	LTP158	ltpFR	1	8	0	WAITER	1580	n/a	1	1	0.412841796875	0.57763671875	lower	../fonts/zerothre.ttf
2299.516	n/a	WORD	1149758	wordpools/wasnorm_wordpool.txt	LTP158	ltpFR	1	8	0	BANQUET	86	n/a	1	1	0.412841796875	0.57763671875	lower	../fonts/zerothre.ttf
2303.496	n/a	WORD	1151748	wordpools/wasnorm_wordpool.txt	LTP158	ltpFR	1	8	1	FINGER	567	n/a	0	0	0.5869140625	0.422607421875	upper	../fonts/amplitud.ttf
2307.31	n/a	WORD	1153655	wordpools/wasnorm_wordpool.txt	LTP158	ltpFR	1	8	1	DIVER	476	n/a	1	0	0.5869140625	0.422607421875	upper	../fonts/amplitud.ttf
2311.388	n/a	WORD	1155694	wordpools/wasnorm_wordpool.txt	LTP158	ltpFR	1	8	1	FAUCET	555	n/a	0	0	0.5869140625	0.422607421875	upper	../fonts/amplitud.ttf
2315.208	n/a	WORD	1157604	wordpools/wasnorm_wordpool.txt	LTP158	ltpFR	1	8	1	FLANNEL	574	n/a	0	0	0.5869140625	0.422607421875	upper	../fonts/amplitud.ttf
2319.388	n/a	WORD	1159694	wordpools/wasnorm_wordpool.txt	LTP158	ltpFR	1	8	1	MATTRESS	879	n/a	0	0	0.5869140625	0.422607421875	upper	../fonts/amplitud.ttf
2323.25	n/a	WORD	1161625	wordpools/wasnorm_wordpool.txt	LTP158	ltpFR	1	8	0	DISC	473	n/a	0	1	0.412841796875	0.57763671875	lower	../fonts/zerothre.ttf
2327.062	n/a	WORD	1163531	wordpools/wasnorm_wordpool.txt	LTP158	ltpFR	1	8	0	SINK	1309	n/a	1	1	0.412841796875	0.57763671875	lower	../fonts/zerothre.ttf
2331.216	n/a	WORD	1165608	wordpools/wasnorm_wordpool.txt	LTP158	ltpFR	1	8	0	PALM	1007	n/a	0	1	0.412841796875	0.57763671875	lower	../fonts/zerothre.ttf
2335.378	n/a	WORD	1167689	wordpools/wasnorm_wordpool.txt	LTP158	ltpFR	1	8	1	NICKEL	950	n/a	0	0	0.5869140625	0.422607421875	upper	../fonts/amplitud.ttf
2339.588	n/a	WORD	1169794	wordpools/wasnorm_wordpool.txt	LTP158	ltpFR	1	8	1	TUBA	1515	n/a	0	0	0.5869140625	0.422607421875	upper	../fonts/amplitud.ttf
2343.634	n/a	WORD	1171817	wordpools/wasnorm_wordpool.txt	LTP158	ltpFR	1	8	1	SHORE	1291	n/a	0	0	0.5869140625	0.422607421875	upper	../fonts/amplitud.ttf
2347.504	n/a	WORD	1173752	wordpools/wasnorm_wordpool.txt	LTP158	ltpFR	1	8	0	WIDOW	1608	n/a	1	1	0.412841796875	0.57763671875	lower	../fonts/zerothre.ttf
2351.392	n/a	WORD	1175696	wordpools/wasnorm_wordpool.txt	LTP158	ltpFR	1	8	0	INVENTOR	743	n/a	1	1	0.412841796875	0.57763671875	lower	../fonts/zerothre.ttf
2355.354	n/a	WORD	1177677	wordpools/wasnorm_wordpool.txt	LTP158	ltpFR	1	8	0	ALMANAC	17	n/a	0	1	0.412841796875	0.57763671875	lower	../fonts/zerothre.ttf
2361.298	n/a	REC_START	1180649	n/a	LTP158	ltpFR	1	8	n/a	n/a	n/a	n/a	n/a	n/a	n/a	n/a	n/a	n/a
2366.102	n/a	REC_WORD	1183051	wordpools/wasnorm_wordpool.txt	LTP158	ltpFR	1	8	0	WIDOW	1608	n/a	1	n/a	n/a	n/a	n/a	n/a
2367.308	n/a	REC_WORD	1183654	wordpools/wasnorm_wordpool.txt	LTP158	ltpFR	1	8	0	INVENTOR	743	n/a	1	n/a	n/a	n/a	n/a	n/a
2368.486	n/a	REC_WORD	1184243	wordpools/wasnorm_wordpool.txt	LTP158	ltpFR	1	8	0	ALMANAC	17	n/a	0	n/a	n/a	n/a	n/a	n/a
2370.496	n/a	REC_WORD	1185248	wordpools/wasnorm_wordpool.txt	LTP158	ltpFR	1	8	0	WAITER	1580	n/a	1	n/a	n/a	n/a	n/a	n/a
2371.718	n/a	REC_WORD	1185859	wordpools/wasnorm_wordpool.txt	LTP158	ltpFR	1	8	0	BANQUET	86	n/a	1	n/a	n/a	n/a	n/a	n/a
2375.59	n/a	REC_WORD	1187795	wordpools/wasnorm_wordpool.txt	LTP158	ltpFR	1	8	1	DIVER	476	n/a	1	n/a	n/a	n/a	n/a	n/a
2377.176	n/a	REC_WORD	1188588	wordpools/wasnorm_wordpool.txt	LTP158	ltpFR	1	8	1	FINGER	567	n/a	0	n/a	n/a	n/a	n/a	n/a
2380.504	n/a	REC_WORD	1190252	wordpools/wasnorm_wordpool.txt	LTP158	ltpFR	1	8	1	FAUCET	555	n/a	0	n/a	n/a	n/a	n/a	n/a
2440.972	n/a	WORD	1220486	wordpools/wasnorm_wordpool.txt	LTP158	ltpFR	1	9	0	SHRUB	1299	n/a	1	1	0.412841796875	0.57763671875	lower	../fonts/zerothre.ttf
2444.794	n/a	WORD	1222397	wordpools/wasnorm_wordpool.txt	LTP158	ltpFR	1	9	0	GARDEN	623	n/a	1	1	0.412841796875	0.57763671875	lower	../fonts/zerothre.ttf
2448.77	n/a	WORD	1224385	wordpools/wasnorm_wordpool.txt	LTP158	ltpFR	1	9	0	CIGAR	308	n/a	0	1	0.412841796875	0.57763671875	lower	../fonts/zerothre.ttf
2452.584	n/a	WORD	1226292	wordpools/wasnorm_wordpool.txt	LTP158	ltpFR	1	9	0	PAGE	1001	n/a	0	1	0.412841796875	0.57763671875	lower	../fonts/zerothre.ttf
2456.504	n/a	WORD	1228252	wordpools/wasnorm_wordpool.txt	LTP158	ltpFR	1	9	0	PAPER	1011	n/a	0	1	0.412841796875	0.57763671875	lower	../fonts/zerothre.ttf
2460.674	n/a	WORD	1230337	wordpools/wasnorm_wordpool.txt	LTP158	ltpFR	1	9	0	FOUNTAIN	597	n/a	1	1	0.412841796875	0.57763671875	lower	../fonts/zerothre.ttf
2464.496	n/a	WORD	1232248	wordpools/wasnorm_wordpool.txt	LTP158	ltpFR	1	9	0	THORN	1459	n/a	0	1	0.412841796875	0.57763671875	lower	../fonts/zerothre.ttf
2468.308	n/a	WORD	1234154	wordpools/wasnorm_wordpool.txt	LTP158	ltpFR	1	9	0	PELT	1040	n/a	1	1	0.412841796875	0.57763671875	lower	../fonts/zerothre.ttf
2472.362	n/a	WORD	1236181	wordpools/wasnorm_wordpool.txt	LTP158	ltpFR	1	9	0	SHEET	1279	n/a	1	1	0.412841796875	0.57763671875	lower	../fonts/zerothre.ttf
2476.182	n/a	WORD	1238091	wordpools/wasnorm_wordpool.txt	LTP158	ltpFR	1	9	0	ROSE	1212	n/a	0	1	0.412841796875	0.57763671875	lower	../fonts/zerothre.ttf
2480.12	n/a	WORD	1240060	wordpools/wasnorm_wordpool.txt	LTP158	ltpFR	1	9	0	CART	250	n/a	1	1	0.412841796875	0.57763671875	lower	../fonts/zerothre.ttf
2483.932	n/a	WORD	1241966	wordpools/wasnorm_wordpool.txt	LTP158	ltpFR	1	9	0	SKYSCRAPER	1322	n/a	1	1	0.412841796875	0.57763671875	lower	../fonts/zerothre.ttf
2487.92	n/a	WORD	1243960	wordpools/wasnorm_wordpool.txt	LTP158	ltpFR	1	9	0	FACTORY	548	n/a	1	1	0.412841796875	0.57763671875	lower	../fonts/zerothre.ttf
2491.84	n/a	WORD	1245920	wordpools/wasnorm_wordpool.txt	LTP158	ltpFR	1	9	0	STAR	1373	n/a	0	1	0.412841796875	0.57763671875	lower	../fonts/zerothre.ttf
2495.794	n/a	WORD	1247897	wordpools/wasnorm_wordpool.txt	LTP158	ltpFR	1	9	0	COMET	353	n/a	1	1	0.412841796875	0.57763671875	lower	../fonts/zerothre.ttf
2499.838	n/a	WORD	1249919	wordpools/wasnorm_wordpool.txt	LTP158	ltpFR	1	9	0	DRUM	502	n/a	1	1	0.412841796875	0.57763671875	lower	../fonts/zerothre.ttf
2505.466	n/a	REC_START	1252733	n/a	LTP158	ltpFR	1	9	n/a	n/a	n/a	n/a	n/a	n/a	n/a	n/a	n/a	n/a
2507.532	n/a	REC_WORD	1253766	wordpools/wasnorm_wordpool.txt	LTP158	ltpFR	1	9	0	DRUM	502	n/a	1	n/a	n/a	n/a	n/a	n/a
2509.058	n/a	REC_WORD	1254529	wordpools/wasnorm_wordpool.txt	LTP158	ltpFR	1	9	0	COMET	353	n/a	1	n/a	n/a	n/a	n/a	n/a
2509.822	n/a	REC_WORD	1254911	wordpools/wasnorm_wordpool.txt	LTP158	ltpFR	1	9	0	STAR	1373	n/a	0	n/a	n/a	n/a	n/a	n/a
2511.732	n/a	REC_WORD	1255866	wordpools/wasnorm_wordpool.txt	LTP158	ltpFR	1	9	0	SKYSCRAPER	1322	n/a	1	n/a	n/a	n/a	n/a	n/a
2512.732	n/a	REC_WORD_VV	1256366	wordpools/wasnorm_wordpool.txt	LTP158	ltpFR	1	9	n/a	<>	-1	n/a	n/a	n/a	n/a	n/a	n/a	n/a
2513.682	n/a	REC_WORD	1256841	wordpools/wasnorm_wordpool.txt	LTP158	ltpFR	1	9	0	FACTORY	548	n/a	1	n/a	n/a	n/a	n/a	n/a
2516.436	n/a	REC_WORD	1258218	wordpools/wasnorm_wordpool.txt	LTP158	ltpFR	1	9	0	ROSE	1212	n/a	0	n/a	n/a	n/a	n/a	n/a
2517.564	n/a	REC_WORD	1258782	wordpools/wasnorm_wordpool.txt	LTP158	ltpFR	1	9	0	THORN	1459	n/a	0	n/a	n/a	n/a	n/a	n/a
2518.97	n/a	REC_WORD	1259485	wordpools/wasnorm_wordpool.txt	LTP158	ltpFR	1	9	0	SHRUB	1299	n/a	1	n/a	n/a	n/a	n/a	n/a
2520.682	n/a	REC_WORD	1260341	wordpools/wasnorm_wordpool.txt	LTP158	ltpFR	1	9	0	GARDEN	623	n/a	1	n/a	n/a	n/a	n/a	n/a
2522.328	n/a	REC_WORD	1261164	wordpools/wasnorm_wordpool.txt	LTP158	ltpFR	1	9	0	PAGE	1001	n/a	0	n/a	n/a	n/a	n/a	n/a
2523.9	n/a	REC_WORD	1261950	wordpools/wasnorm_wordpool.txt	LTP158	ltpFR	1	9	0	SHEET	1279	n/a	1	n/a	n/a	n/a	n/a	n/a
2525.486	n/a	REC_WORD	1262743	wordpools/wasnorm_wordpool.txt	LTP158	ltpFR	1	9	0	PAPER	1011	n/a	0	n/a	n/a	n/a	n/a	n/a
2584.142	n/a	WORD	1292071	wordpools/wasnorm_wordpool.txt	LTP158	ltpFR	1	10	0	GOAT	644	n/a	1	1	0.412841796875	0.57763671875	lower	../fonts/zerothre.ttf
2588.062	n/a	WORD	1294031	wordpools/wasnorm_wordpool.txt	LTP158	ltpFR	1	10	0	SHEEP	1278	n/a	1	1	0.412841796875	0.57763671875	lower	../fonts/zerothre.ttf
2592.066	n/a	WORD	1296033	wordpools/wasnorm_wordpool.txt	LTP158	ltpFR	1	10	0	DICTIONARY	463	n/a	0	1	0.412841796875	0.57763671875	lower	../fonts/zerothre.ttf
2596.012	n/a	WORD	1298006	wordpools/wasnorm_wordpool.txt	LTP158	ltpFR	1	10	0	SKULL	1320	n/a	1	1	0.412841796875	0.57763671875	lower	../fonts/zerothre.ttf
2599.958	n/a	WORD	1299979	wordpools/wasnorm_wordpool.txt	LTP158	ltpFR	1	10	0	TWEEZERS	1526	n/a	0	1	0.412841796875	0.57763671875	lower	../fonts/zerothre.ttf
2603.96	n/a	WORD	1301980	wordpools/wasnorm_wordpool.txt	LTP158	ltpFR	1	10	0	BELT	120	n/a	0	1	0.412841796875	0.57763671875	lower	../fonts/zerothre.ttf
2607.94	n/a	WORD	1303970	wordpools/wasnorm_wordpool.txt	LTP158	ltpFR	1	10	0	PAW	1029	n/a	0	1	0.412841796875	0.57763671875	lower	../fonts/zerothre.ttf
2611.818	n/a	WORD	1305909	wordpools/wasnorm_wordpool.txt	LTP158	ltpFR	1	10	0	DANDELION	438	n/a	0	1	0.412841796875	0.57763671875	lower	../fonts/zerothre.ttf
2615.714	n/a	WORD	1307857	wordpools/wasnorm_wordpool.txt	LTP158	ltpFR	1	10	0	CACTUS	215	n/a	1	1	0.412841796875	0.57763671875	lower	../fonts/zerothre.ttf
2619.91	n/a	WORD	1309955	wordpools/wasnorm_wordpool.txt	LTP158	ltpFR	1	10	0	THESAURUS	1454	n/a	0	1	0.412841796875	0.57763671875	lower	../fonts/zerothre.ttf
2624.03	n/a	WORD	1312015	wordpools/wasnorm_wordpool.txt	LTP158	ltpFR	1	10	0	BOX	159	n/a	0	1	0.412841796875	0.57763671875	lower	../fonts/zerothre.ttf
2628.034	n/a	WORD	1314017	wordpools/wasnorm_wordpool.txt	LTP158	ltpFR	1	10	0	TACK	1428	n/a	0	1	0.412841796875	0.57763671875	lower	../fonts/zerothre.ttf
2632.18	n/a	WORD	1316090	wordpools/wasnorm_wordpool.txt	LTP158	ltpFR	1	10	0	KITTEN	780	n/a	0	1	0.412841796875	0.57763671875	lower	../fonts/zerothre.ttf
2636.108	n/a	WORD	1318054	wordpools/wasnorm_wordpool.txt	LTP158	ltpFR	1	10	0	VISITOR	1573	n/a	1	1	0.412841796875	0.57763671875	lower	../fonts/zerothre.ttf
2640.286	n/a	WORD	1320143	wordpools/wasnorm_wordpool.txt	LTP158	ltpFR	1	10	0	BANK	83	n/a	1	1	0.412841796875	0.57763671875	lower	../fonts/zerothre.ttf
2644.348	n/a	WORD	1322174	wordpools/wasnorm_wordpool.txt	LTP158	ltpFR	1	10	0	BALLOT	76	n/a	0	1	0.412841796875	0.57763671875	lower	../fonts/zerothre.ttf
2650.134	n/a	REC_START	1325067	n/a	LTP158	ltpFR	1	10	n/a	n/a	n/a	n/a	n/a	n/a	n/a	n/a	n/a	n/a
2651.646	n/a	REC_WORD	1325823	wordpools/wasnorm_wordpool.txt	LTP158	ltpFR	1	10	0	BANK	83	n/a	1	n/a	n/a	n/a	n/a	n/a
2652.838	n/a	REC_WORD	1326419	wordpools/wasnorm_wordpool.txt	LTP158	ltpFR	1	10	n/a	SALAD	1224	n/a	n/a	n/a	n/a	n/a	n/a	n/a
2654.35	n/a	REC_WORD	1327175	wordpools/wasnorm_wordpool.txt	LTP158	ltpFR	1	10	0	SHEEP	1278	n/a	1	n/a	n/a	n/a	n/a	n/a
2655.576	n/a	REC_WORD	1327788	wordpools/wasnorm_wordpool.txt	LTP158	ltpFR	1	10	0	GOAT	644	n/a	1	n/a	n/a	n/a	n/a	n/a
2657.044	n/a	REC_WORD	1328522	wordpools/wasnorm_wordpool.txt	LTP158	ltpFR	1	10	0	TWEEZERS	1526	n/a	0	n/a	n/a	n/a	n/a	n/a
2658.864	n/a	REC_WORD_VV	1329432	wordpools/wasnorm_wordpool.txt	LTP158	ltpFR	1	10	n/a	<>	-1	n/a	n/a	n/a	n/a	n/a	n/a	n/a
2659.632	n/a	REC_WORD	1329816	wordpools/wasnorm_wordpool.txt	LTP158	ltpFR	1	10	0	BELT	120	n/a	0	n/a	n/a	n/a	n/a	n/a
2671.526	n/a	REC_WORD	1335763	wordpools/wasnorm_wordpool.txt	LTP158	ltpFR	1	10	0	TACK	1428	n/a	0	n/a	n/a	n/a	n/a	n/a
2736.134	n/a	WORD	1368067	wordpools/wasnorm_wordpool.txt	LTP158	ltpFR	1	11	-1	HARE	688	n/a	-1	1	1.0	1.0	upper	../fonts/Verdana.ttf
2740.072	n/a	WORD	1370036	wordpools/wasnorm_wordpool.txt	LTP158	ltpFR	1	11	-1	WAND	1586	n/a	-1	1	1.0	1.0	upper	../fonts/Verdana.ttf
2743.91	n/a	WORD	1371955	wordpools/wasnorm_wordpool.txt	LTP158	ltpFR	1	11	-1	CLIFF	322	n/a	-1	1	1.0	1.0	upper	../fonts/Verdana.ttf
2747.98	n/a	WORD	1373990	wordpools/wasnorm_wordpool.txt	LTP158	ltpFR	1	11	-1	COW	393	n/a	-1	1	1.0	1.0	upper	../fonts/Verdana.ttf
2751.992	n/a	WORD	1375996	wordpools/wasnorm_wordpool.txt	LTP158	ltpFR	1	11	-1	ANGEL	22	n/a	-1	1	1.0	1.0	upper	../fonts/Verdana.ttf
2756.046	n/a	WORD	1378023	wordpools/wasnorm_wordpool.txt	LTP158	ltpFR	1	11	-1	OCEAN	970	n/a	-1	1	1.0	1.0	upper	../fonts/Verdana.ttf
2760.09	n/a	WORD	1380045	wordpools/wasnorm_wordpool.txt	LTP158	ltpFR	1	11	-1	GRASS	655	n/a	-1	1	1.0	1.0	upper	../fonts/Verdana.ttf
2764.036	n/a	WORD	1382018	wordpools/wasnorm_wordpool.txt	LTP158	ltpFR	1	11	-1	CREEK	404	n/a	-1	1	1.0	1.0	upper	../fonts/Verdana.ttf
2768.114	n/a	WORD	1384057	wordpools/wasnorm_wordpool.txt	LTP158	ltpFR	1	11	-1	COD	340	n/a	-1	1	1.0	1.0	upper	../fonts/Verdana.ttf
2772.178	n/a	WORD	1386089	wordpools/wasnorm_wordpool.txt	LTP158	ltpFR	1	11	-1	TROUT	1511	n/a	-1	1	1.0	1.0	upper	../fonts/Verdana.ttf
2776.124	n/a	WORD	1388062	wordpools/wasnorm_wordpool.txt	LTP158	ltpFR	1	11	-1	RAKE	1164	n/a	-1	1	1.0	1.0	upper	../fonts/Verdana.ttf
2780.176	n/a	WORD	1390088	wordpools/wasnorm_wordpool.txt	LTP158	ltpFR	1	11	-1	CUFF	423	n/a	-1	1	1.0	1.0	upper	../fonts/Verdana.ttf
2783.998	n/a	WORD	1391999	wordpools/wasnorm_wordpool.txt	LTP158	ltpFR	1	11	-1	PANTS	1010	n/a	-1	1	1.0	1.0	upper	../fonts/Verdana.ttf
2787.852	n/a	WORD	1393926	wordpools/wasnorm_wordpool.txt	LTP158	ltpFR	1	11	-1	SEA	1259	n/a	-1	1	1.0	1.0	upper	../fonts/Verdana.ttf
2791.954	n/a	WORD	1395977	wordpools/wasnorm_wordpool.txt	LTP158	ltpFR	1	11	-1	STEAM	1375	n/a	-1	1	1.0	1.0	upper	../fonts/Verdana.ttf
2796.034	n/a	WORD	1398017	wordpools/wasnorm_wordpool.txt	LTP158	ltpFR	1	11	-1	SEASHORE	1263	n/a	-1	1	1.0	1.0	upper	../fonts/Verdana.ttf
2801.968	n/a	REC_START	1400984	n/a	LTP158	ltpFR	1	11	n/a	n/a	n/a	n/a	n/a	n/a	n/a	n/a	n/a	n/a
2803.558	n/a	REC_WORD	1401779	wordpools/wasnorm_wordpool.txt	LTP158	ltpFR	1	11	-1	SEA	1259	n/a	-1	n/a	n/a	n/a	n/a	n/a
2804.302	n/a	REC_WORD	1402151	wordpools/wasnorm_wordpool.txt	LTP158	ltpFR	1	11	-1	SEASHORE	1263	n/a	-1	n/a	n/a	n/a	n/a	n/a
2805.146	n/a	REC_WORD	1402573	wordpools/wasnorm_wordpool.txt	LTP158	ltpFR	1	11	-1	STEAM	1375	n/a	-1	n/a	n/a	n/a	n/a	n/a
2807.43	n/a	REC_WORD	1403715	wordpools/wasnorm_wordpool.txt	LTP158	ltpFR	1	11	-1	HARE	688	n/a	-1	n/a	n/a	n/a	n/a	n/a
2809.566	n/a	REC_WORD	1404783	wordpools/wasnorm_wordpool.txt	LTP158	ltpFR	1	11	-1	WAND	1586	n/a	-1	n/a	n/a	n/a	n/a	n/a
2811.336	n/a	REC_WORD	1405668	wordpools/wasnorm_wordpool.txt	LTP158	ltpFR	1	11	-1	CLIFF	322	n/a	-1	n/a	n/a	n/a	n/a	n/a
2812.934	n/a	REC_WORD	1406467	wordpools/wasnorm_wordpool.txt	LTP158	ltpFR	1	11	-1	COW	393	n/a	-1	n/a	n/a	n/a	n/a	n/a
2814.13	n/a	REC_WORD	1407065	wordpools/wasnorm_wordpool.txt	LTP158	ltpFR	1	11	-1	ANGEL	22	n/a	-1	n/a	n/a	n/a	n/a	n/a
2815.992	n/a	REC_WORD	1407996	wordpools/wasnorm_wordpool.txt	LTP158	ltpFR	1	11	-1	OCEAN	970	n/a	-1	n/a	n/a	n/a	n/a	n/a
2818.356	n/a	REC_WORD	1409178	wordpools/wasnorm_wordpool.txt	LTP158	ltpFR	1	11	-1	GRASS	655	n/a	-1	n/a	n/a	n/a	n/a	n/a
2820.58	n/a	REC_WORD	1410290	wordpools/wasnorm_wordpool.txt	LTP158	ltpFR	1	11	-1	CREEK	404	n/a	-1	n/a	n/a	n/a	n/a	n/a
2822.642	n/a	REC_WORD	1411321	wordpools/wasnorm_wordpool.txt	LTP158	ltpFR	1	11	-1	COD	340	n/a	-1	n/a	n/a	n/a	n/a	n/a
2827.35	n/a	REC_WORD	1413675	wordpools/wasnorm_wordpool.txt	LTP158	ltpFR	1	11	-1	RAKE	1164	n/a	-1	n/a	n/a	n/a	n/a	n/a
2829.072	n/a	REC_WORD	1414536	wordpools/wasnorm_wordpool.txt	LTP158	ltpFR	1	11	-1	CUFF	423	n/a	-1	n/a	n/a	n/a	n/a	n/a
2896.802	n/a	WORD	1448401	wordpools/wasnorm_wordpool.txt	LTP158	ltpFR	1	12	-1	DEPARTMENT	449	n/a	-1	1	1.0	1.0	upper	../fonts/Verdana.ttf
2900.678	n/a	WORD	1450339	wordpools/wasnorm_wordpool.txt	LTP158	ltpFR	1	12	-1	SKELETON	1314	n/a	-1	1	1.0	1.0	upper	../fonts/Verdana.ttf
2904.876	n/a	WORD	1452438	wordpools/wasnorm_wordpool.txt	LTP158	ltpFR	1	12	-1	SCROLL	1257	n/a	-1	1	1.0	1.0	upper	../fonts/Verdana.ttf
2908.762	n/a	WORD	1454381	wordpools/wasnorm_wordpool.txt	LTP158	ltpFR	1	12	-1	RECIPE	1175	n/a	-1	1	1.0	1.0	upper	../fonts/Verdana.ttf
2912.682	n/a	WORD	1456341	wordpools/wasnorm_wordpool.txt	LTP158	ltpFR	1	12	-1	SPIDER	1351	n/a	-1	1	1.0	1.0	upper	../fonts/Verdana.ttf
2916.752	n/a	WORD	1458376	wordpools/wasnorm_wordpool.txt	LTP158	ltpFR	1	12	-1	WAGON	1578	n/a	-1	1	1.0	1.0	upper	../fonts/Verdana.ttf
2920.58	n/a	WORD	1460290	wordpools/wasnorm_wordpool.txt	LTP158	ltpFR	1	12	-1	CASHIER	254	n/a	-1	1	1.0	1.0	upper	../fonts/Verdana.ttf
2924.542	n/a	WORD	1462271	wordpools/wasnorm_wordpool.txt	LTP158	ltpFR	1	12	-1	SLACKS	1323	n/a	-1	1	1.0	1.0	upper	../fonts/Verdana.ttf
2928.44	n/a	WORD	1464220	wordpools/wasnorm_wordpool.txt	LTP158	ltpFR	1	12	-1	JAW	751	n/a	-1	1	1.0	1.0	upper	../fonts/Verdana.ttf
2932.61	n/a	WORD	1466305	wordpools/wasnorm_wordpool.txt	LTP158	ltpFR	1	12	-1	POPCORN	1104	n/a	-1	1	1.0	1.0	upper	../fonts/Verdana.ttf
2936.722	n/a	WORD	1468361	wordpools/wasnorm_wordpool.txt	LTP158	ltpFR	1	12	-1	PENCIL	1042	n/a	-1	1	1.0	1.0	upper	../fonts/Verdana.ttf
2940.842	n/a	WORD	1470421	wordpools/wasnorm_wordpool.txt	LTP158	ltpFR	1	12	-1	JEWEL	757	n/a	-1	1	1.0	1.0	upper	../fonts/Verdana.ttf
2944.846	n/a	WORD	1472423	wordpools/wasnorm_wordpool.txt	LTP158	ltpFR	1	12	-1	BRACELET	163	n/a	-1	1	1.0	1.0	upper	../fonts/Verdana.ttf
2948.658	n/a	WORD	1474329	wordpools/wasnorm_wordpool.txt	LTP158	ltpFR	1	12	-1	BATH	98	n/a	-1	1	1.0	1.0	upper	../fonts/Verdana.ttf
2952.828	n/a	WORD	1476414	wordpools/wasnorm_wordpool.txt	LTP158	ltpFR	1	12	-1	TOWEL	1489	n/a	-1	1	1.0	1.0	upper	../fonts/Verdana.ttf
2957.024	n/a	WORD	1478512	wordpools/wasnorm_wordpool.txt	LTP158	ltpFR	1	12	-1	ROACH	1195	n/a	-1	1	1.0	1.0	upper	../fonts/Verdana.ttf
2962.666	n/a	REC_START	1481333	n/a	LTP158	ltpFR	1	12	n/a	n/a	n/a	n/a	n/a	n/a	n/a	n/a	n/a	n/a
2963.878	n/a	REC_WORD	1481939	wordpools/wasnorm_wordpool.txt	LTP158	ltpFR	1	12	-1	ROACH	1195	n/a	-1	n/a	n/a	n/a	n/a	n/a
2966.432	n/a	REC_WORD	1483216	wordpools/wasnorm_wordpool.txt	LTP158	ltpFR	1	12	-1	BATH	98	n/a	-1	n/a	n/a	n/a	n/a	n/a
2967.326	n/a	REC_WORD	1483663	wordpools/wasnorm_wordpool.txt	LTP158	ltpFR	1	12	-1	TOWEL	1489	n/a	-1	n/a	n/a	n/a	n/a	n/a
2969.904	n/a	REC_WORD	1484952	wordpools/wasnorm_wordpool.txt	LTP158	ltpFR	1	12	-1	DEPARTMENT	449	n/a	-1	n/a	n/a	n/a	n/a	n/a
2970.838	n/a	REC_WORD	1485419	wordpools/wasnorm_wordpool.txt	LTP158	ltpFR	1	12	-1	SKELETON	1314	n/a	-1	n/a	n/a	n/a	n/a	n/a
2972.478	n/a	REC_WORD	1486239	wordpools/wasnorm_wordpool.txt	LTP158	ltpFR	1	12	-1	SCROLL	1257	n/a	-1	n/a	n/a	n/a	n/a	n/a
2973.84	n/a	REC_WORD	1486920	wordpools/wasnorm_wordpool.txt	LTP158	ltpFR	1	12	-1	RECIPE	1175	n/a	-1	n/a	n/a	n/a	n/a	n/a
2977.626	n/a	REC_WORD	1488813	wordpools/wasnorm_wordpool.txt	LTP158	ltpFR	1	12	-1	SPIDER	1351	n/a	-1	n/a	n/a	n/a	n/a	n/a
2979.872	n/a	REC_WORD	1489936	wordpools/wasnorm_wordpool.txt	LTP158	ltpFR	1	12	-1	WAGON	1578	n/a	-1	n/a	n/a	n/a	n/a	n/a
2981.264	n/a	REC_WORD	1490632	wordpools/wasnorm_wordpool.txt	LTP158	ltpFR	1	12	-1	CASHIER	254	n/a	-1	n/a	n/a	n/a	n/a	n/a
2983.952	n/a	REC_WORD	1491976	wordpools/wasnorm_wordpool.txt	LTP158	ltpFR	1	12	-1	SLACKS	1323	n/a	-1	n/a	n/a	n/a	n/a	n/a
2984.952	n/a	REC_WORD_VV	1492476	wordpools/wasnorm_wordpool.txt	LTP158	ltpFR	1	12	n/a	<>	-1	n/a	n/a	n/a	n/a	n/a	n/a	n/a
2997.826	n/a	REC_WORD	1498913	wordpools/wasnorm_wordpool.txt	LTP158	ltpFR	1	12	-1	PENCIL	1042	n/a	-1	n/a	n/a	n/a	n/a	n/a
2998.884	n/a	REC_WORD	1499442	wordpools/wasnorm_wordpool.txt	LTP158	ltpFR	1	12	-1	JEWEL	757	n/a	-1	n/a	n/a	n/a	n/a	n/a
2999.658	n/a	REC_WORD	1499829	wordpools/wasnorm_wordpool.txt	LTP158	ltpFR	1	12	-1	BRACELET	163	n/a	-1	n/a	n/a	n/a	n/a	n/a
3016.226	n/a	REC_WORD	1508113	wordpools/wasnorm_wordpool.txt	LTP158	ltpFR	1	12	-1	JAW	751	n/a	-1	n/a	n/a	n/a	n/a	n/a
3038.256	n/a	REST_REWET	1519128	n/a	LTP158	ltpFR	1	12	n/a	n/a	n/a	n/a	n/a	n/a	n/a	n/a	n/a	n/a
3340.268	n/a	WORD	1670134	wordpools/wasnorm_wordpool.txt	LTP158	ltpFR	1	13	1	EMPLOYEE	531	n/a	1	0	0.5869140625	0.422607421875	upper	../fonts/amplitud.ttf
3344.164	n/a	WORD	1672082	wordpools/wasnorm_wordpool.txt	LTP158	ltpFR	1	13	1	LODGE	839	n/a	0	0	0.5869140625	0.422607421875	upper	../fonts/amplitud.ttf
3348.094	n/a	WORD	1674047	wordpools/wasnorm_wordpool.txt	LTP158	ltpFR	1	13	1	LID	817	n/a	0	0	0.5869140625	0.422607421875	upper	../fonts/amplitud.ttf
3351.906	n/a	WORD	1675953	wordpools/wasnorm_wordpool.txt	LTP158	ltpFR	1	13	1	MUG	930	n/a	0	0	0.5869140625	0.422607421875	upper	../fonts/amplitud.ttf
3355.942	n/a	WORD	1677971	wordpools/wasnorm_wordpool.txt	LTP158	ltpFR	1	13	1	SALOON	1228	n/a	0	0	0.5869140625	0.422607421875	upper	../fonts/amplitud.ttf
3360.12	n/a	WORD	1680060	wordpools/wasnorm_wordpool.txt	LTP158	ltpFR	1	13	1	TYPIST	1532	n/a	1	0	0.5869140625	0.422607421875	upper	../fonts/amplitud.ttf
3364.0	n/a	WORD	1682000	wordpools/wasnorm_wordpool.txt	LTP158	ltpFR	1	13	1	LOBBY	836	n/a	0	0	0.5869140625	0.422607421875	upper	../fonts/amplitud.ttf
3367.862	n/a	WORD	1683931	wordpools/wasnorm_wordpool.txt	LTP158	ltpFR	1	13	1	VALVE	1546	n/a	0	0	0.5869140625	0.422607421875	upper	../fonts/amplitud.ttf
3371.798	n/a	WORD	1685899	wordpools/wasnorm_wordpool.txt	LTP158	ltpFR	1	13	1	PARCEL	1012	n/a	0	0	0.5869140625	0.422607421875	upper	../fonts/amplitud.ttf
3375.726	n/a	WORD	1687863	wordpools/wasnorm_wordpool.txt	LTP158	ltpFR	1	13	1	DOVE	491	n/a	1	0	0.5869140625	0.422607421875	upper	../fonts/amplitud.ttf
3379.814	n/a	WORD	1689907	wordpools/wasnorm_wordpool.txt	LTP158	ltpFR	1	13	1	BIRD	129	n/a	1	0	0.5869140625	0.422607421875	upper	../fonts/amplitud.ttf
3383.826	n/a	WORD	1691913	wordpools/wasnorm_wordpool.txt	LTP158	ltpFR	1	13	1	VICTIM	1562	n/a	1	0	0.5869140625	0.422607421875	upper	../fonts/amplitud.ttf
3387.946	n/a	WORD	1693973	wordpools/wasnorm_wordpool.txt	LTP158	ltpFR	1	13	1	CHARCOAL	281	n/a	0	0	0.5869140625	0.422607421875	upper	../fonts/amplitud.ttf
3392.026	n/a	WORD	1696013	wordpools/wasnorm_wordpool.txt	LTP158	ltpFR	1	13	1	TOMATO	1476	n/a	0	0	0.5869140625	0.422607421875	upper	../fonts/amplitud.ttf
3396.02	n/a	WORD	1698010	wordpools/wasnorm_wordpool.txt	LTP158	ltpFR	1	13	1	COURT	391	n/a	0	0	0.5869140625	0.422607421875	upper	../fonts/amplitud.ttf
3400.126	n/a	WORD	1700063	wordpools/wasnorm_wordpool.txt	LTP158	ltpFR	1	13	1	CLASS	318	n/a	0	0	0.5869140625	0.422607421875	upper	../fonts/amplitud.ttf
3405.994	n/a	REC_START	1702997	n/a	LTP158	ltpFR	1	13	n/a	n/a	n/a	n/a	n/a	n/a	n/a	n/a	n/a	n/a
3407.46	n/a	REC_WORD	1703730	wordpools/wasnorm_wordpool.txt	LTP158	ltpFR	1	13	1	TOMATO	1476	n/a	0	n/a	n/a	n/a	n/a	n/a
3408.628	n/a	REC_WORD	1704314	wordpools/wasnorm_wordpool.txt	LTP158	ltpFR	1	13	1	COURT	391	n/a	0	n/a	n/a	n/a	n/a	n/a
3409.576	n/a	REC_WORD	1704788	wordpools/wasnorm_wordpool.txt	LTP158	ltpFR	1	13	1	CLASS	318	n/a	0	n/a	n/a	n/a	n/a	n/a
3411.782	n/a	REC_WORD	1705891	wordpools/wasnorm_wordpool.txt	LTP158	ltpFR	1	13	1	EMPLOYEE	531	n/a	1	n/a	n/a	n/a	n/a	n/a
3412.938	n/a	REC_WORD	1706469	wordpools/wasnorm_wordpool.txt	LTP158	ltpFR	1	13	1	LODGE	839	n/a	0	n/a	n/a	n/a	n/a	n/a
3414.674	n/a	REC_WORD	1707337	wordpools/wasnorm_wordpool.txt	LTP158	ltpFR	1	13	1	LID	817	n/a	0	n/a	n/a	n/a	n/a	n/a
3415.608	n/a	REC_WORD	1707804	wordpools/wasnorm_wordpool.txt	LTP158	ltpFR	1	13	1	MUG	930	n/a	0	n/a	n/a	n/a	n/a	n/a
3417.992	n/a	REC_WORD	1708996	wordpools/wasnorm_wordpool.txt	LTP158	ltpFR	1	13	1	SALOON	1228	n/a	0	n/a	n/a	n/a	n/a	n/a
3421.694	n/a	REC_WORD	1710847	wordpools/wasnorm_wordpool.txt	LTP158	ltpFR	1	13	1	PARCEL	1012	n/a	0	n/a	n/a	n/a	n/a	n/a
3425.834	n/a	REC_WORD	1712917	wordpools/wasnorm_wordpool.txt	LTP158	ltpFR	1	13	1	VALVE	1546	n/a	0	n/a	n/a	n/a	n/a	n/a
3431.286	n/a	REC_WORD	1715643	wordpools/wasnorm_wordpool.txt	LTP158	ltpFR	1	13	1	DOVE	491	n/a	1	n/a	n/a	n/a	n/a	n/a
3432.4	n/a	REC_WORD	1716200	wordpools/wasnorm_wordpool.txt	LTP158	ltpFR	1	13	1	BIRD	129	n/a	1	n/a	n/a	n/a	n/a	n/a
3434.862	n/a	REC_WORD	1717431	wordpools/wasnorm_wordpool.txt	LTP158	ltpFR	1	13	1	VICTIM	1562	n/a	1	n/a	n/a	n/a	n/a	n/a
3436.994	n/a	REC_WORD	1718497	wordpools/wasnorm_wordpool.txt	LTP158	ltpFR	1	13	1	CHARCOAL	281	n/a	0	n/a	n/a	n/a	n/a	n/a
3438.052	n/a	REC_WORD	1719026	wordpools/wasnorm_wordpool.txt	LTP158	ltpFR	1	13	1	CHARCOAL	281	n/a	0	n/a	n/a	n/a	n/a	n/a
3518.182	n/a	WORD	1759091	wordpools/wasnorm_wordpool.txt	LTP158	ltpFR	1	14	0	PARSLEY	1016	n/a	0	1	0.412841796875	0.57763671875	lower	../fonts/zerothre.ttf
3522.286	n/a	WORD	1761143	wordpools/wasnorm_wordpool.txt	LTP158	ltpFR	1	14	0	CARPENTER	246	n/a	1	1	0.412841796875	0.57763671875	lower	../fonts/zerothre.ttf
3526.114	n/a	WORD	1763057	wordpools/wasnorm_wordpool.txt	LTP158	ltpFR	1	14	0	CLOWN	330	n/a	1	1	0.412841796875	0.57763671875	lower	../fonts/zerothre.ttf
3529.934	n/a	WORD	1764967	wordpools/wasnorm_wordpool.txt	LTP158	ltpFR	1	14	0	PLANET	1082	n/a	1	1	0.412841796875	0.57763671875	lower	../fonts/zerothre.ttf
3534.122	n/a	WORD	1767061	wordpools/wasnorm_wordpool.txt	LTP158	ltpFR	1	14	1	PENGUIN	1044	n/a	1	0	0.5869140625	0.422607421875	upper	../fonts/amplitud.ttf
3538.176	n/a	WORD	1769088	wordpools/wasnorm_wordpool.txt	LTP158	ltpFR	1	14	1	SEAGULL	1261	n/a	1	0	0.5869140625	0.422607421875	upper	../fonts/amplitud.ttf
3542.128	n/a	WORD	1771064	wordpools/wasnorm_wordpool.txt	LTP158	ltpFR	1	14	1	OUTDOORS	987	n/a	0	0	0.5869140625	0.422607421875	upper	../fonts/amplitud.ttf
3546.14	n/a	WORD	1773070	wordpools/wasnorm_wordpool.txt	LTP158	ltpFR	1	14	1	LIP	828	n/a	0	0	0.5869140625	0.422607421875	upper	../fonts/amplitud.ttf
3550.194	n/a	WORD	1775097	wordpools/wasnorm_wordpool.txt	LTP158	ltpFR	1	14	0	TUNNEL	1519	n/a	1	1	0.412841796875	0.57763671875	lower	../fonts/zerothre.ttf
3554.282	n/a	WORD	1777141	wordpools/wasnorm_wordpool.txt	LTP158	ltpFR	1	14	0	SICKLE	1302	n/a	0	1	0.412841796875	0.57763671875	lower	../fonts/zerothre.ttf
3558.394	n/a	WORD	1779197	wordpools/wasnorm_wordpool.txt	LTP158	ltpFR	1	14	0	NERVE	944	n/a	0	1	0.412841796875	0.57763671875	lower	../fonts/zerothre.ttf
3562.588	n/a	WORD	1781294	wordpools/wasnorm_wordpool.txt	LTP158	ltpFR	1	14	0	CHIMNEY	301	n/a	1	1	0.412841796875	0.57763671875	lower	../fonts/zerothre.ttf
3566.468	n/a	WORD	1783234	wordpools/wasnorm_wordpool.txt	LTP158	ltpFR	1	14	1	SPINACH	1352	n/a	1	0	0.5869140625	0.422607421875	upper	../fonts/amplitud.ttf
3570.638	n/a	WORD	1785319	wordpools/wasnorm_wordpool.txt	LTP158	ltpFR	1	14	1	MARS	873	n/a	0	0	0.5869140625	0.422607421875	upper	../fonts/amplitud.ttf
3574.782	n/a	WORD	1787391	wordpools/wasnorm_wordpool.txt	LTP158	ltpFR	1	14	1	SQUIRREL	1362	n/a	1	0	0.5869140625	0.422607421875	upper	../fonts/amplitud.ttf
3578.77	n/a	WORD	1789385	wordpools/wasnorm_wordpool.txt	LTP158	ltpFR	1	14	1	GARLIC	624	n/a	0	0	0.5869140625	0.422607421875	upper	../fonts/amplitud.ttf
3584.606	n/a	REC_START	1792303	n/a	LTP158	ltpFR	1	14	n/a	n/a	n/a	n/a	n/a	n/a	n/a	n/a	n/a	n/a
3586.686	n/a	REC_WORD	1793343	wordpools/wasnorm_wordpool.txt	LTP158	ltpFR	1	14	1	GARLIC	624	n/a	0	n/a	n/a	n/a	n/a	n/a
3587.862	n/a	REC_WORD	1793931	wordpools/wasnorm_wordpool.txt	LTP158	ltpFR	1	14	1	SQUIRREL	1362	n/a	1	n/a	n/a	n/a	n/a	n/a
3589.244	n/a	REC_WORD	1794622	wordpools/wasnorm_wordpool.txt	LTP158	ltpFR	1	14	1	MARS	873	n/a	0	n/a	n/a	n/a	n/a	n/a
3591.578	n/a	REC_WORD	1795789	wordpools/wasnorm_wordpool.txt	LTP158	ltpFR	1	14	0	SICKLE	1302	n/a	0	n/a	n/a	n/a	n/a	n/a
3594.168	n/a	REC_WORD	1797084	wordpools/wasnorm_wordpool.txt	LTP158	ltpFR	1	14	n/a	SALT	1229	n/a	n/a	n/a	n/a	n/a	n/a	n/a
3595.136	n/a	REC_WORD	1797568	wordpools/wasnorm_wordpool.txt	LTP158	ltpFR	1	14	0	CARPENTER	246	n/a	1	n/a	n/a	n/a	n/a	n/a
3602.848	n/a	REC_WORD	1801424	wordpools/wasnorm_wordpool.txt	LTP158	ltpFR	1	14	0	CLOWN	330	n/a	1	n/a	n/a	n/a	n/a	n/a
3605.254	n/a	REC_WORD	1802627	wordpools/wasnorm_wordpool.txt	LTP158	ltpFR	1	14	0	PLANET	1082	n/a	1	n/a	n/a	n/a	n/a	n/a
3611.066	n/a	REC_WORD	1805533	wordpools/wasnorm_wordpool.txt	LTP158	ltpFR	1	14	1	PELICAN	1039	n/a	1	n/a	n/a	n/a	n/a	n/a
3675.144	n/a	WORD	1837572	wordpools/wasnorm_wordpool.txt	LTP158	ltpFR	1	15	-1	HUMAN	726	n/a	-1	1	1.0	1.0	upper	../fonts/Verdana.ttf
3679.138	n/a	WORD	1839569	wordpools/wasnorm_wordpool.txt	LTP158	ltpFR	1	15	-1	HEDGE	699	n/a	-1	1	1.0	1.0	upper	../fonts/Verdana.ttf
3683.3	n/a	WORD	1841650	wordpools/wasnorm_wordpool.txt	LTP158	ltpFR	1	15	-1	TEACHER	1440	n/a	-1	1	1.0	1.0	upper	../fonts/Verdana.ttf
3687.18	n/a	WORD	1843590	wordpools/wasnorm_wordpool.txt	LTP158	ltpFR	1	15	-1	KNAPSACK	783	n/a	-1	1	1.0	1.0	upper	../fonts/Verdana.ttf
3691.2	n/a	WORD	1845600	wordpools/wasnorm_wordpool.txt	LTP158	ltpFR	1	15	-1	DAISY	435	n/a	-1	1	1.0	1.0	upper	../fonts/Verdana.ttf
3695.096	n/a	WORD	1847548	wordpools/wasnorm_wordpool.txt	LTP158	ltpFR	1	15	-1	PEDAL	1037	n/a	-1	1	1.0	1.0	upper	../fonts/Verdana.ttf
3699.224	n/a	WORD	1849612	wordpools/wasnorm_wordpool.txt	LTP158	ltpFR	1	15	-1	FOREST	593	n/a	-1	1	1.0	1.0	upper	../fonts/Verdana.ttf
3703.236	n/a	WORD	1851618	wordpools/wasnorm_wordpool.txt	LTP158	ltpFR	1	15	-1	SKIN	1318	n/a	-1	1	1.0	1.0	upper	../fonts/Verdana.ttf
3707.198	n/a	WORD	1853599	wordpools/wasnorm_wordpool.txt	LTP158	ltpFR	1	15	-1	PUBLICATION	1136	n/a	-1	1	1.0	1.0	upper	../fonts/Verdana.ttf
3711.286	n/a	WORD	1855643	wordpools/wasnorm_wordpool.txt	LTP158	ltpFR	1	15	-1	SUITCASE	1403	n/a	-1	1	1.0	1.0	upper	../fonts/Verdana.ttf
3715.44	n/a	WORD	1857720	wordpools/wasnorm_wordpool.txt	LTP158	ltpFR	1	15	-1	HANGER	687	n/a	-1	1	1.0	1.0	upper	../fonts/Verdana.ttf
3719.426	n/a	WORD	1859713	wordpools/wasnorm_wordpool.txt	LTP158	ltpFR	1	15	-1	RACK	1154	n/a	-1	1	1.0	1.0	upper	../fonts/Verdana.ttf
3723.628	n/a	WORD	1861814	wordpools/wasnorm_wordpool.txt	LTP158	ltpFR	1	15	-1	SURGEON	1413	n/a	-1	1	1.0	1.0	upper	../fonts/Verdana.ttf
3727.492	n/a	WORD	1863746	wordpools/wasnorm_wordpool.txt	LTP158	ltpFR	1	15	-1	BRAKE	166	n/a	-1	1	1.0	1.0	upper	../fonts/Verdana.ttf
3731.686	n/a	WORD	1865843	wordpools/wasnorm_wordpool.txt	LTP158	ltpFR	1	15	-1	SUIT	1402	n/a	-1	1	1.0	1.0	upper	../fonts/Verdana.ttf
3735.756	n/a	WORD	1867878	wordpools/wasnorm_wordpool.txt	LTP158	ltpFR	1	15	-1	VEST	1559	n/a	-1	1	1.0	1.0	upper	../fonts/Verdana.ttf
3741.666	n/a	REC_START	1870833	n/a	LTP158	ltpFR	1	15	n/a	n/a	n/a	n/a	n/a	n/a	n/a	n/a	n/a	n/a
3744.43	n/a	REC_WORD	1872215	wordpools/wasnorm_wordpool.txt	LTP158	ltpFR	1	15	-1	SURGEON	1413	n/a	-1	n/a	n/a	n/a	n/a	n/a
3745.438	n/a	REC_WORD	1872719	wordpools/wasnorm_wordpool.txt	LTP158	ltpFR	1	15	-1	SUIT	1402	n/a	-1	n/a	n/a	n/a	n/a	n/a
3746.62	n/a	REC_WORD	1873310	wordpools/wasnorm_wordpool.txt	LTP158	ltpFR	1	15	-1	VEST	1559	n/a	-1	n/a	n/a	n/a	n/a	n/a
3756.014	n/a	REC_WORD	1878007	wordpools/wasnorm_wordpool.txt	LTP158	ltpFR	1	15	-1	HEDGE	699	n/a	-1	n/a	n/a	n/a	n/a	n/a
3759.526	n/a	REC_WORD	1879763	wordpools/wasnorm_wordpool.txt	LTP158	ltpFR	1	15	-1	TEACHER	1440	n/a	-1	n/a	n/a	n/a	n/a	n/a
3761.736	n/a	REC_WORD	1880868	wordpools/wasnorm_wordpool.txt	LTP158	ltpFR	1	15	-1	KNAPSACK	783	n/a	-1	n/a	n/a	n/a	n/a	n/a
3762.588	n/a	REC_WORD	1881294	wordpools/wasnorm_wordpool.txt	LTP158	ltpFR	1	15	-1	SUITCASE	1403	n/a	-1	n/a	n/a	n/a	n/a	n/a
3763.666	n/a	REC_WORD	1881833	wordpools/wasnorm_wordpool.txt	LTP158	ltpFR	1	15	-1	HANGER	687	n/a	-1	n/a	n/a	n/a	n/a	n/a
3764.774	n/a	REC_WORD	1882387	wordpools/wasnorm_wordpool.txt	LTP158	ltpFR	1	15	-1	RACK	1154	n/a	-1	n/a	n/a	n/a	n/a	n/a
3765.786	n/a	REC_WORD	1882893	wordpools/wasnorm_wordpool.txt	LTP158	ltpFR	1	15	-1	DAISY	435	n/a	-1	n/a	n/a	n/a	n/a	n/a
3768.36	n/a	REC_WORD	1884180	wordpools/wasnorm_wordpool.txt	LTP158	ltpFR	1	15	-1	PEDAL	1037	n/a	-1	n/a	n/a	n/a	n/a	n/a
3772.866	n/a	REC_WORD	1886433	wordpools/wasnorm_wordpool.txt	LTP158	ltpFR	1	15	-1	BRAKE	166	n/a	-1	n/a	n/a	n/a	n/a	n/a
3801.52	n/a	REC_WORD	1900760	wordpools/wasnorm_wordpool.txt	LTP158	ltpFR	1	15	-1	PUBLICATION	1136	n/a	-1	n/a	n/a	n/a	n/a	n/a
3803.67	n/a	REC_WORD	1901835	wordpools/wasnorm_wordpool.txt	LTP158	ltpFR	1	15	-1	SKIN	1318	n/a	-1	n/a	n/a	n/a	n/a	n/a
3823.59	n/a	WORD	1911795	wordpools/wasnorm_wordpool.txt	LTP158	ltpFR	1	16	1	GRADUATE	653	n/a	1	0	0.5869140625	0.422607421875	upper	../fonts/amplitud.ttf
3827.41	n/a	WORD	1913705	wordpools/wasnorm_wordpool.txt	LTP158	ltpFR	1	16	1	PROFESSOR	1131	n/a	1	0	0.5869140625	0.422607421875	upper	../fonts/amplitud.ttf
3831.282	n/a	WORD	1915641	wordpools/wasnorm_wordpool.txt	LTP158	ltpFR	1	16	1	PEAR	1033	n/a	1	0	0.5869140625	0.422607421875	upper	../fonts/amplitud.ttf
3835.418	n/a	WORD	1917709	wordpools/wasnorm_wordpool.txt	LTP158	ltpFR	1	16	0	FISH	571	n/a	1	1	0.412841796875	0.57763671875	lower	../fonts/zerothre.ttf
3839.57	n/a	WORD	1919785	wordpools/wasnorm_wordpool.txt	LTP158	ltpFR	1	16	0	INSECT	740	n/a	0	1	0.412841796875	0.57763671875	lower	../fonts/zerothre.ttf
3843.476	n/a	WORD	1921738	wordpools/wasnorm_wordpool.txt	LTP158	ltpFR	1	16	0	LEAF	808	n/a	0	1	0.412841796875	0.57763671875	lower	../fonts/zerothre.ttf
3847.338	n/a	WORD	1923669	wordpools/wasnorm_wordpool.txt	LTP158	ltpFR	1	16	0	SHARK	1275	n/a	1	1	0.412841796875	0.57763671875	lower	../fonts/zerothre.ttf
3851.208	n/a	WORD	1925604	wordpools/wasnorm_wordpool.txt	LTP158	ltpFR	1	16	1	TELESCOPE	1446	n/a	0	0	0.5869140625	0.422607421875	upper	../fonts/amplitud.ttf
3855.212	n/a	WORD	1927606	wordpools/wasnorm_wordpool.txt	LTP158	ltpFR	1	16	1	BUTTON	207	n/a	0	0	0.5869140625	0.422607421875	upper	../fonts/amplitud.ttf
3859.3	n/a	WORD	1929650	wordpools/wasnorm_wordpool.txt	LTP158	ltpFR	1	16	1	SENATE	1267	n/a	1	0	0.5869140625	0.422607421875	upper	../fonts/amplitud.ttf
3863.162	n/a	WORD	1931581	wordpools/wasnorm_wordpool.txt	LTP158	ltpFR	1	16	0	ATTORNEY	58	n/a	1	1	0.412841796875	0.57763671875	lower	../fonts/zerothre.ttf
3867.156	n/a	WORD	1933578	wordpools/wasnorm_wordpool.txt	LTP158	ltpFR	1	16	0	GALAXY	617	n/a	1	1	0.412841796875	0.57763671875	lower	../fonts/zerothre.ttf
3871.32	n/a	WORD	1935660	wordpools/wasnorm_wordpool.txt	LTP158	ltpFR	1	16	0	TRENCH	1503	n/a	1	1	0.412841796875	0.57763671875	lower	../fonts/zerothre.ttf
3875.19	n/a	WORD	1937595	wordpools/wasnorm_wordpool.txt	LTP158	ltpFR	1	16	0	DIGGER	464	n/a	1	1	0.412841796875	0.57763671875	lower	../fonts/zerothre.ttf
3879.31	n/a	WORD	1939655	wordpools/wasnorm_wordpool.txt	LTP158	ltpFR	1	16	1	CHECKERS	285	n/a	0	0	0.5869140625	0.422607421875	upper	../fonts/amplitud.ttf
3883.414	n/a	WORD	1941707	wordpools/wasnorm_wordpool.txt	LTP158	ltpFR	1	16	1	PAIL	1002	n/a	0	0	0.5869140625	0.422607421875	upper	../fonts/amplitud.ttf
3889.108	n/a	REC_START	1944554	n/a	LTP158	ltpFR	1	16	n/a	n/a	n/a	n/a	n/a	n/a	n/a	n/a	n/a	n/a
3890.734	n/a	REC_WORD	1945367	wordpools/wasnorm_wordpool.txt	LTP158	ltpFR	1	16	0	DIGGER	464	n/a	1	n/a	n/a	n/a	n/a	n/a
3891.428	n/a	REC_WORD	1945714	wordpools/wasnorm_wordpool.txt	LTP158	ltpFR	1	16	1	CHECKERS	285	n/a	0	n/a	n/a	n/a	n/a	n/a
3892.44	n/a	REC_WORD	1946220	wordpools/wasnorm_wordpool.txt	LTP158	ltpFR	1	16	1	PAIL	1002	n/a	0	n/a	n/a	n/a	n/a	n/a
3893.552	n/a	REC_WORD	1946776	wordpools/wasnorm_wordpool.txt	LTP158	ltpFR	1	16	1	GRADUATE	653	n/a	1	n/a	n/a	n/a	n/a	n/a
3894.356	n/a	REC_WORD	1947178	wordpools/wasnorm_wordpool.txt	LTP158	ltpFR	1	16	1	PROFESSOR	1131	n/a	1	n/a	n/a	n/a	n/a	n/a
3896.64	n/a	REC_WORD	1948320	wordpools/wasnorm_wordpool.txt	LTP158	ltpFR	1	16	0	INSECT	740	n/a	0	n/a	n/a	n/a	n/a	n/a
3897.908	n/a	REC_WORD	1948954	wordpools/wasnorm_wordpool.txt	LTP158	ltpFR	1	16	0	LEAF	808	n/a	0	n/a	n/a	n/a	n/a	n/a
3900.556	n/a	REC_WORD	1950278	wordpools/wasnorm_wordpool.txt	LTP158	ltpFR	1	16	0	FISH	571	n/a	1	n/a	n/a	n/a	n/a	n/a
3901.33	n/a	REC_WORD	1950665	wordpools/wasnorm_wordpool.txt	LTP158	ltpFR	1	16	0	SHARK	1275	n/a	1	n/a	n/a	n/a	n/a	n/a
3905.65	n/a	REC_WORD	1952825	wordpools/wasnorm_wordpool.txt	LTP158	ltpFR	1	16	1	PEAR	1033	n/a	1	n/a	n/a	n/a	n/a	n/a
3921.798	n/a	REC_WORD	1960899	wordpools/wasnorm_wordpool.txt	LTP158	ltpFR	1	16	1	TELESCOPE	1446	n/a	0	n/a	n/a	n/a	n/a	n/a
3933.082	n/a	REC_WORD	1966541	wordpools/wasnorm_wordpool.txt	LTP158	ltpFR	1	16	1	SENATE	1267	n/a	1	n/a	n/a	n/a	n/a	n/a
3934.08	n/a	REC_WORD	1967040	wordpools/wasnorm_wordpool.txt	LTP158	ltpFR	1	16	0	ATTORNEY	58	n/a	1	n/a	n/a	n/a	n/a	n/a
3937.392	n/a	REC_WORD	1968696	wordpools/wasnorm_wordpool.txt	LTP158	ltpFR	1	16	0	GALAXY	617	n/a	1	n/a	n/a	n/a	n/a	n/a
3938.48	n/a	REC_WORD	1969240	wordpools/wasnorm_wordpool.txt	LTP158	ltpFR	1	16	0	TRENCH	1503	n/a	1	n/a	n/a	n/a	n/a	n/a
3981.6	n/a	REC_START	1990800	n/a	LTP158	ltpFR	1	n/a	n/a	n/a	n/a	n/a	n/a	n/a	n/a	n/a	n/a	n/a
3983.63	n/a	FFR_REC_WORD	1991815	wordpools/wasnorm_wordpool.txt	LTP158	ltpFR	1	n/a	-1	SURGEON	1413	n/a	-1	n/a	n/a	n/a	n/a	n/a
3984.762	n/a	FFR_REC_WORD	1992381	wordpools/wasnorm_wordpool.txt	LTP158	ltpFR	1	n/a	0	ATTORNEY	58	n/a	1	n/a	n/a	n/a	n/a	n/a
3987.436	n/a	FFR_REC_WORD	1993718	wordpools/wasnorm_wordpool.txt	LTP158	ltpFR	1	n/a	1	PROFESSOR	1131	n/a	1	n/a	n/a	n/a	n/a	n/a
3988.728	n/a	FFR_REC_WORD	1994364	wordpools/wasnorm_wordpool.txt	LTP158	ltpFR	1	n/a	-1	TEACHER	1440	n/a	-1	n/a	n/a	n/a	n/a	n/a
3989.782	n/a	FFR_REC_WORD	1994891	wordpools/wasnorm_wordpool.txt	LTP158	ltpFR	1	n/a	1	GRADUATE	653	n/a	1	n/a	n/a	n/a	n/a	n/a
3991.442	n/a	FFR_REC_WORD	1995721	wordpools/wasnorm_wordpool.txt	LTP158	ltpFR	1	n/a	1	VICTIM	1562	n/a	1	n/a	n/a	n/a	n/a	n/a
3995.254	n/a	FFR_REC_WORD	1997627	wordpools/wasnorm_wordpool.txt	LTP158	ltpFR	1	n/a	1	PEAR	1033	n/a	1	n/a	n/a	n/a	n/a	n/a
3996.996	n/a	FFR_REC_WORD	1998498	wordpools/wasnorm_wordpool.txt	LTP158	ltpFR	1	n/a	0	LEAF	808	n/a	0	n/a	n/a	n/a	n/a	n/a
3997.594	n/a	FFR_REC_WORD	1998797	wordpools/wasnorm_wordpool.txt	LTP158	ltpFR	1	n/a	0	INSECT	740	n/a	0	n/a	n/a	n/a	n/a	n/a
3998.594	n/a	FFR_REC_WORD_VV	1999297	wordpools/wasnorm_wordpool.txt	LTP158	ltpFR	1	n/a	n/a	<>	-1	n/a	n/a	n/a	n/a	n/a	n/a	n/a
3999.146	n/a	FFR_REC_WORD	1999573	wordpools/wasnorm_wordpool.txt	LTP158	ltpFR	1	n/a	1	LEOPARD	812	n/a	1	n/a	n/a	n/a	n/a	n/a
4000.612	n/a	FFR_REC_WORD	2000306	wordpools/wasnorm_wordpool.txt	LTP158	ltpFR	1	n/a	1	SQUIRREL	1362	n/a	1	n/a	n/a	n/a	n/a	n/a
4002.054	n/a	FFR_REC_WORD	2001027	wordpools/wasnorm_wordpool.txt	LTP158	ltpFR	1	n/a	1	PIGEON	1065	n/a	1	n/a	n/a	n/a	n/a	n/a
4002.812	n/a	FFR_REC_WORD	2001406	wordpools/wasnorm_wordpool.txt	LTP158	ltpFR	1	n/a	1	PELICAN	1039	n/a	1	n/a	n/a	n/a	n/a	n/a
4008.704	n/a	FFR_REC_WORD	2004352	wordpools/wasnorm_wordpool.txt	LTP158	ltpFR	1	n/a	1	TELESCOPE	1446	n/a	0	n/a	n/a	n/a	n/a	n/a
4009.92	n/a	FFR_REC_WORD	2004960	wordpools/wasnorm_wordpool.txt	LTP158	ltpFR	1	n/a	-1	SUITCASE	1403	n/a	-1	n/a	n/a	n/a	n/a	n/a
4010.92	n/a	FFR_REC_WORD_VV	2005460	wordpools/wasnorm_wordpool.txt	LTP158	ltpFR	1	n/a	n/a	<>	-1	n/a	n/a	n/a	n/a	n/a	n/a	n/a
4011.322	n/a	FFR_REC_WORD	2005661	wordpools/wasnorm_wordpool.txt	LTP158	ltpFR	1	n/a	-1	KNAPSACK	783	n/a	-1	n/a	n/a	n/a	n/a	n/a
4012.446	n/a	FFR_REC_WORD	2006223	wordpools/wasnorm_wordpool.txt	LTP158	ltpFR	1	n/a	0	GALAXY	617	n/a	1	n/a	n/a	n/a	n/a	n/a
4013.446	n/a	FFR_REC_WORD_VV	2006723	wordpools/wasnorm_wordpool.txt	LTP158	ltpFR	1	n/a	n/a	<>	-1	n/a	n/a	n/a	n/a	n/a	n/a	n/a
4016.402	n/a	FFR_REC_WORD	2008201	wordpools/wasnorm_wordpool.txt	LTP158	ltpFR	1	n/a	1	EMPLOYEE	531	n/a	1	n/a	n/a	n/a	n/a	n/a
4017.33	n/a	FFR_REC_WORD	2008665	wordpools/wasnorm_wordpool.txt	LTP158	ltpFR	1	n/a	1	LODGE	839	n/a	0	n/a	n/a	n/a	n/a	n/a
4018.032	n/a	FFR_REC_WORD	2009016	wordpools/wasnorm_wordpool.txt	LTP158	ltpFR	1	n/a	1	LID	817	n/a	0	n/a	n/a	n/a	n/a	n/a
4018.84	n/a	FFR_REC_WORD	2009420	wordpools/wasnorm_wordpool.txt	LTP158	ltpFR	1	n/a	1	MUG	930	n/a	0	n/a	n/a	n/a	n/a	n/a
4019.648	n/a	FFR_REC_WORD	2009824	wordpools/wasnorm_wordpool.txt	LTP158	ltpFR	1	n/a	1	SALOON	1228	n/a	0	n/a	n/a	n/a	n/a	n/a
4021.08	n/a	FFR_REC_WORD	2010540	wordpools/wasnorm_wordpool.txt	LTP158	ltpFR	1	n/a	-1	PUBLICATION	1136	n/a	-1	n/a	n/a	n/a	n/a	n/a
4022.08	n/a	FFR_REC_WORD_VV	2011040	wordpools/wasnorm_wordpool.txt	LTP158	ltpFR	1	n/a	n/a	<>	-1	n/a	n/a	n/a	n/a	n/a	n/a	n/a
4022.308	n/a	FFR_REC_WORD	2011154	wordpools/wasnorm_wordpool.txt	LTP158	ltpFR	1	n/a	-1	PENCIL	1042	n/a	-1	n/a	n/a	n/a	n/a	n/a
4023.82	n/a	FFR_REC_WORD	2011910	wordpools/wasnorm_wordpool.txt	LTP158	ltpFR	1	n/a	0	PAPER	1011	n/a	0	n/a	n/a	n/a	n/a	n/a
4024.488	n/a	FFR_REC_WORD	2012244	wordpools/wasnorm_wordpool.txt	LTP158	ltpFR	1	n/a	0	SHEET	1279	n/a	1	n/a	n/a	n/a	n/a	n/a
4033.204	n/a	FFR_REC_WORD	2016602	wordpools/wasnorm_wordpool.txt	LTP158	ltpFR	1	n/a	n/a	WRENCH	1625	n/a	n/a	n/a	n/a	n/a	n/a	n/a
4036.198	n/a	FFR_REC_WORD	2018099	wordpools/wasnorm_wordpool.txt	LTP158	ltpFR	1	n/a	-1	COD	340	n/a	-1	n/a	n/a	n/a	n/a	n/a
4045.994	n/a	FFR_REC_WORD	2022997	wordpools/wasnorm_wordpool.txt	LTP158	ltpFR	1	n/a	-1	SKIN	1318	n/a	-1	n/a	n/a	n/a	n/a	n/a
4049.282	n/a	FFR_REC_WORD	2024641	wordpools/wasnorm_wordpool.txt	LTP158	ltpFR	1	n/a	1	TOOTHBRUSH	1482	n/a	0	n/a	n/a	n/a	n/a	n/a
4050.282	n/a	FFR_REC_WORD_VV	2025141	wordpools/wasnorm_wordpool.txt	LTP158	ltpFR	1	n/a	n/a	<>	-1	n/a	n/a	n/a	n/a	n/a	n/a	n/a
4052.834	n/a	FFR_REC_WORD	2026417	wordpools/wasnorm_wordpool.txt	LTP158	ltpFR	1	n/a	-1	COW	393	n/a	-1	n/a	n/a	n/a	n/a	n/a
4053.662	n/a	FFR_REC_WORD	2026831	wordpools/wasnorm_wordpool.txt	LTP158	ltpFR	1	n/a	-1	ANGEL	22	n/a	-1	n/a	n/a	n/a	n/a	n/a
4054.566	n/a	FFR_REC_WORD	2027283	wordpools/wasnorm_wordpool.txt	LTP158	ltpFR	1	n/a	-1	CREEK	404	n/a	-1	n/a	n/a	n/a	n/a	n/a
4055.534	n/a	FFR_REC_WORD	2027767	wordpools/wasnorm_wordpool.txt	LTP158	ltpFR	1	n/a	-1	GRASS	655	n/a	-1	n/a	n/a	n/a	n/a	n/a
4056.416	n/a	FFR_REC_WORD	2028208	wordpools/wasnorm_wordpool.txt	LTP158	ltpFR	1	n/a	-1	CLIFF	322	n/a	-1	n/a	n/a	n/a	n/a	n/a
4057.15	n/a	FFR_REC_WORD	2028575	wordpools/wasnorm_wordpool.txt	LTP158	ltpFR	1	n/a	-1	OCEAN	970	n/a	-1	n/a	n/a	n/a	n/a	n/a
4060.208	n/a	FFR_REC_WORD	2030104	wordpools/wasnorm_wordpool.txt	LTP158	ltpFR	1	n/a	-1	RAKE	1164	n/a	-1	n/a	n/a	n/a	n/a	n/a
4060.96	n/a	FFR_REC_WORD	2030480	wordpools/wasnorm_wordpool.txt	LTP158	ltpFR	1	n/a	-1	CUFF	423	n/a	-1	n/a	n/a	n/a	n/a	n/a
4090.168	n/a	FFR_REC_WORD	2045084	wordpools/wasnorm_wordpool.txt	LTP158	ltpFR	1	n/a	1	SKATE	1313	n/a	0	n/a	n/a	n/a	n/a	n/a
4091.212	n/a	FFR_REC_WORD	2045606	wordpools/wasnorm_wordpool.txt	LTP158	ltpFR	1	n/a	n/a	RAIL	1161	n/a	n/a	n/a	n/a	n/a	n/a	n/a
4093.148	n/a	FFR_REC_WORD	2046574	wordpools/wasnorm_wordpool.txt	LTP158	ltpFR	1	n/a	1	PIT	1077	n/a	0	n/a	n/a	n/a	n/a	n/a
4099.692	n/a	FFR_REC_WORD	2049846	wordpools/wasnorm_wordpool.txt	LTP158	ltpFR	1	n/a	1	BLUEBERRY	140	n/a	0	n/a	n/a	n/a	n/a	n/a
4112.958	n/a	FFR_REC_WORD	2056479	wordpools/wasnorm_wordpool.txt	LTP158	ltpFR	1	n/a	0	STAR	1373	n/a	0	n/a	n/a	n/a	n/a	n/a
4113.678	n/a	FFR_REC_WORD	2056839	wordpools/wasnorm_wordpool.txt	LTP158	ltpFR	1	n/a	0	COMET	353	n/a	1	n/a	n/a	n/a	n/a	n/a
4118.386	n/a	FFR_REC_WORD	2059193	wordpools/wasnorm_wordpool.txt	LTP158	ltpFR	1	n/a	-1	BRAKE	166	n/a	-1	n/a	n/a	n/a	n/a	n/a
4118.91	n/a	FFR_REC_WORD	2059455	wordpools/wasnorm_wordpool.txt	LTP158	ltpFR	1	n/a	-1	PEDAL	1037	n/a	-1	n/a	n/a	n/a	n/a	n/a
4142.082	n/a	FFR_REC_WORD	2071041	wordpools/wasnorm_wordpool.txt	LTP158	ltpFR	1	n/a	1	RIB	1188	n/a	0	n/a	n/a	n/a	n/a	n/a
4149.958	n/a	FFR_REC_WORD	2074979	wordpools/wasnorm_wordpool.txt	LTP158	ltpFR	1	n/a	1	SPINACH	1352	n/a	1	n/a	n/a	n/a	n/a	n/a
4157.588	n/a	FFR_REC_WORD	2078794	wordpools/wasnorm_wordpool.txt	LTP158	ltpFR	1	n/a	1	GARLIC	624	n/a	0	n/a	n/a	n/a	n/a	n/a
4161.544	n/a	FFR_REC_WORD	2080772	wordpools/wasnorm_wordpool.txt	LTP158	ltpFR	1	n/a	0	PLANET	1082	n/a	1	n/a	n/a	n/a	n/a	n/a
4168.682	n/a	FFR_REC_WORD	2084341	wordpools/wasnorm_wordpool.txt	LTP158	ltpFR	1	n/a	0	CLOWN	330	n/a	1	n/a	n/a	n/a	n/a	n/a
4173.64	n/a	FFR_REC_WORD	2086820	wordpools/wasnorm_wordpool.txt	LTP158	ltpFR	1	n/a	0	WIDOW	1608	n/a	1	n/a	n/a	n/a	n/a	n/a
4175.138	n/a	FFR_REC_WORD	2087569	wordpools/wasnorm_wordpool.txt	LTP158	ltpFR	1	n/a	0	INVENTOR	743	n/a	1	n/a	n/a	n/a	n/a	n/a
4214.992	n/a	FFR_REC_WORD	2107496	wordpools/wasnorm_wordpool.txt	LTP158	ltpFR	1	n/a	0	SICKLE	1302	n/a	0	n/a	n/a	n/a	n/a	n/a
4217.812	n/a	FFR_REC_WORD	2108906	wordpools/wasnorm_wordpool.txt	LTP158	ltpFR	1	n/a	-1	CHISEL	305	n/a	-1	n/a	n/a	n/a	n/a	n/a
4237.422	n/a	FFR_REC_WORD	2118711	wordpools/wasnorm_wordpool.txt	LTP158	ltpFR	1	n/a	0	INSECT	740	n/a	0	n/a	n/a	n/a	n/a	n/a
4321.346	n/a	REC_START	2160673	n/a	LTP158	ltpFR	1	1	n/a	n/a	n/a	n/a	n/a	n/a	n/a	n/a	n/a	n/a
4321.378	n/a	RECOG_LURE	2160689	n/a	LTP158	ltpFR	1	1	n/a	SERPENT	1270	4	n/a	n/a	n/a	n/a	n/a	n/a
4322.744	n/a	RECOG_RESP	2161372	n/a	LTP158	ltpFR	1	1	n/a	SERPENT	1270	n/a	n/a	n/a	n/a	n/a	n/a	n/a
4326.116	n/a	RECOG_CONF	2163058	n/a	LTP158	ltpFR	1	1	n/a	SERPENT	1270	4	n/a	n/a	n/a	n/a	n/a	n/a
4328.296	n/a	RECOG_TARGET	2164148	n/a	LTP158	ltpFR	1	1	1	SPATULA	1348	2	0	n/a	n/a	n/a	n/a	n/a
4330.338	n/a	RECOG_RESP	2165169	n/a	LTP158	ltpFR	1	1	1	SPATULA	1348	n/a	0	n/a	n/a	n/a	n/a	n/a
4331.882	n/a	RECOG_CONF	2165941	n/a	LTP158	ltpFR	1	1	1	SPATULA	1348	2	0	n/a	n/a	n/a	n/a	n/a
4333.754	n/a	RECOG_TARGET	2166877	n/a	LTP158	ltpFR	1	1	1	MOUTH	926	3	0	n/a	n/a	n/a	n/a	n/a
4336.656	n/a	RECOG_RESP	2168328	n/a	LTP158	ltpFR	1	1	1	MOUTH	926	n/a	0	n/a	n/a	n/a	n/a	n/a
4338.818	n/a	RECOG_CONF	2169409	n/a	LTP158	ltpFR	1	1	1	MOUTH	926	3	0	n/a	n/a	n/a	n/a	n/a
4340.732	n/a	RECOG_TARGET	2170366	n/a	LTP158	ltpFR	1	1	0	TWEEZERS	1526	5	0	n/a	n/a	n/a	n/a	n/a
4341.536	n/a	RECOG_RESP	2170768	n/a	LTP158	ltpFR	1	1	0	TWEEZERS	1526	n/a	0	n/a	n/a	n/a	n/a	n/a
4343.202	n/a	RECOG_CONF	2171601	n/a	LTP158	ltpFR	1	1	0	TWEEZERS	1526	5	0	n/a	n/a	n/a	n/a	n/a
4345.152	n/a	RECOG_TARGET	2172576	n/a	LTP158	ltpFR	1	1	0	DRUM	502	4	1	n/a	n/a	n/a	n/a	n/a
4347.058	n/a	RECOG_RESP	2173529	n/a	LTP158	ltpFR	1	1	0	DRUM	502	n/a	1	n/a	n/a	n/a	n/a	n/a
4349.12	n/a	RECOG_CONF	2174560	n/a	LTP158	ltpFR	1	1	0	DRUM	502	4	1	n/a	n/a	n/a	n/a	n/a
4351.078	n/a	RECOG_LURE	2175539	n/a	LTP158	ltpFR	1	1	n/a	MOAT	903	3	n/a	n/a	n/a	n/a	n/a	n/a
4352.8	n/a	RECOG_RESP	2176400	n/a	LTP158	ltpFR	1	1	n/a	MOAT	903	n/a	n/a	n/a	n/a	n/a	n/a	n/a
4355.934	n/a	RECOG_CONF	2177967	n/a	LTP158	ltpFR	1	1	n/a	MOAT	903	3	n/a	n/a	n/a	n/a	n/a	n/a
4357.846	n/a	RECOG_TARGET	2178923	n/a	LTP158	ltpFR	1	1	0	REPTILE	1185	5	1	n/a	n/a	n/a	n/a	n/a
4358.776	n/a	RECOG_RESP	2179388	n/a	LTP158	ltpFR	1	1	0	REPTILE	1185	n/a	1	n/a	n/a	n/a	n/a	n/a
4361.062	n/a	RECOG_CONF	2180531	n/a	LTP158	ltpFR	1	1	0	REPTILE	1185	5	1	n/a	n/a	n/a	n/a	n/a
4363.114	n/a	RECOG_TARGET	2181557	n/a	LTP158	ltpFR	1	1	1	PIPE	1073	3	0	n/a	n/a	n/a	n/a	n/a
4364.428	n/a	RECOG_RESP	2182214	n/a	LTP158	ltpFR	1	1	1	PIPE	1073	n/a	0	n/a	n/a	n/a	n/a	n/a
4366.048	n/a	RECOG_CONF	2183024	n/a	LTP158	ltpFR	1	1	1	PIPE	1073	3	0	n/a	n/a	n/a	n/a	n/a
4368.524	n/a	RECOG_TARGET	2184262	n/a	LTP158	ltpFR	1	1	1	RIB	1188	5	0	n/a	n/a	n/a	n/a	n/a
4369.4	n/a	RECOG_RESP	2184700	n/a	LTP158	ltpFR	1	1	1	RIB	1188	n/a	0	n/a	n/a	n/a	n/a	n/a
4371.06	n/a	RECOG_CONF	2185530	n/a	LTP158	ltpFR	1	1	1	RIB	1188	5	0	n/a	n/a	n/a	n/a	n/a
4373.054	n/a	RECOG_TARGET	2186527	n/a	LTP158	ltpFR	1	1	1	TRAIN	1494	4	0	n/a	n/a	n/a	n/a	n/a
4374.196	n/a	RECOG_RESP	2187098	n/a	LTP158	ltpFR	1	1	1	TRAIN	1494	n/a	0	n/a	n/a	n/a	n/a	n/a
4375.984	n/a	RECOG_CONF	2187992	n/a	LTP158	ltpFR	1	1	1	TRAIN	1494	4	0	n/a	n/a	n/a	n/a	n/a
4377.822	n/a	RECOG_TARGET	2188911	n/a	LTP158	ltpFR	1	1	1	BARLEY	88	5	0	n/a	n/a	n/a	n/a	n/a
4378.642	n/a	RECOG_RESP	2189321	n/a	LTP158	ltpFR	1	1	1	BARLEY	88	n/a	0	n/a	n/a	n/a	n/a	n/a
4380.336	n/a	RECOG_CONF	2190168	n/a	LTP158	ltpFR	1	1	1	BARLEY	88	5	0	n/a	n/a	n/a	n/a	n/a
4382.142	n/a	RECOG_TARGET	2191071	n/a	LTP158	ltpFR	1	1	1	AUTOMOBILE	62	5	0	n/a	n/a	n/a	n/a	n/a
4382.972	n/a	RECOG_RESP	2191486	n/a	LTP158	ltpFR	1	1	1	AUTOMOBILE	62	n/a	0	n/a	n/a	n/a	n/a	n/a
4384.748	n/a	RECOG_CONF	2192374	n/a	LTP158	ltpFR	1	1	1	AUTOMOBILE	62	5	0	n/a	n/a	n/a	n/a	n/a
4386.778	n/a	RECOG_LURE	2193389	n/a	LTP158	ltpFR	1	1	n/a	CAKE	219	3	n/a	n/a	n/a	n/a	n/a	n/a
4388.544	n/a	RECOG_RESP	2194272	n/a	LTP158	ltpFR	1	1	n/a	CAKE	219	n/a	n/a	n/a	n/a	n/a	n/a	n/a
4390.726	n/a	RECOG_CONF	2195363	n/a	LTP158	ltpFR	1	1	n/a	CAKE	219	3	n/a	n/a	n/a	n/a	n/a	n/a
4392.438	n/a	RECOG_LURE	2196219	n/a	LTP158	ltpFR	1	1	n/a	ASHTRAY	45	2	n/a	n/a	n/a	n/a	n/a	n/a
4393.91	n/a	RECOG_RESP	2196955	n/a	LTP158	ltpFR	1	1	n/a	ASHTRAY	45	n/a	n/a	n/a	n/a	n/a	n/a	n/a
4395.73	n/a	RECOG_CONF	2197865	n/a	LTP158	ltpFR	1	1	n/a	ASHTRAY	45	2	n/a	n/a	n/a	n/a	n/a	n/a
4397.682	n/a	RECOG_TARGET	2198841	n/a	LTP158	ltpFR	1	1	-1	DAISY	435	5	-1	n/a	n/a	n/a	n/a	n/a
4398.434	n/a	RECOG_RESP	2199217	n/a	LTP158	ltpFR	1	1	-1	DAISY	435	n/a	-1	n/a	n/a	n/a	n/a	n/a
4399.906	n/a	RECOG_CONF	2199953	n/a	LTP158	ltpFR	1	1	-1	DAISY	435	5	-1	n/a	n/a	n/a	n/a	n/a
4401.652	n/a	RECOG_TARGET	2200826	n/a	LTP158	ltpFR	1	1	1	VALVE	1546	5	0	n/a	n/a	n/a	n/a	n/a
4402.332	n/a	RECOG_RESP	2201166	n/a	LTP158	ltpFR	1	1	1	VALVE	1546	n/a	0	n/a	n/a	n/a	n/a	n/a
4403.888	n/a	RECOG_CONF	2201944	n/a	LTP158	ltpFR	1	1	1	VALVE	1546	5	0	n/a	n/a	n/a	n/a	n/a
4405.824	n/a	RECOG_TARGET	2202912	n/a	LTP158	ltpFR	1	1	0	MANAGER	863	5	1	n/a	n/a	n/a	n/a	n/a
4406.882	n/a	RECOG_RESP	2203441	n/a	LTP158	ltpFR	1	1	0	MANAGER	863	n/a	1	n/a	n/a	n/a	n/a	n/a
4409.022	n/a	RECOG_CONF	2204511	n/a	LTP158	ltpFR	1	1	0	MANAGER	863	5	1	n/a	n/a	n/a	n/a	n/a
4410.96	n/a	RECOG_TARGET	2205480	n/a	LTP158	ltpFR	1	1	-1	PANTS	1010	3	-1	n/a	n/a	n/a	n/a	n/a
4413.394	n/a	RECOG_RESP	2206697	n/a	LTP158	ltpFR	1	1	-1	PANTS	1010	n/a	-1	n/a	n/a	n/a	n/a	n/a
4415.416	n/a	RECOG_CONF	2207708	n/a	LTP158	ltpFR	1	1	-1	PANTS	1010	3	-1	n/a	n/a	n/a	n/a	n/a
4417.11	n/a	RECOG_LURE	2208555	n/a	LTP158	ltpFR	1	1	n/a	HOOP	716	3	n/a	n/a	n/a	n/a	n/a	n/a
4418.472	n/a	RECOG_RESP	2209236	n/a	LTP158	ltpFR	1	1	n/a	HOOP	716	n/a	n/a	n/a	n/a	n/a	n/a	n/a
4420.248	n/a	RECOG_CONF	2210124	n/a	LTP158	ltpFR	1	1	n/a	HOOP	716	3	n/a	n/a	n/a	n/a	n/a	n/a
4421.94	n/a	RECOG_TARGET	2210970	n/a	LTP158	ltpFR	1	1	1	BULLETIN	195	5	0	n/a	n/a	n/a	n/a	n/a
4423.204	n/a	RECOG_RESP	2211602	n/a	LTP158	ltpFR	1	1	1	BULLETIN	195	n/a	0	n/a	n/a	n/a	n/a	n/a
4425.108	n/a	RECOG_CONF	2212554	n/a	LTP158	ltpFR	1	1	1	BULLETIN	195	5	0	n/a	n/a	n/a	n/a	n/a
4429.836	n/a	REC_START	2214918	n/a	LTP158	ltpFR	1	2	n/a	n/a	n/a	n/a	n/a	n/a	n/a	n/a	n/a	n/a
4429.864	n/a	RECOG_TARGET	2214932	n/a	LTP158	ltpFR	1	2	1	PEAR	1033	5	1	n/a	n/a	n/a	n/a	n/a
4430.622	n/a	RECOG_RESP	2215311	n/a	LTP158	ltpFR	1	2	1	PEAR	1033	n/a	1	n/a	n/a	n/a	n/a	n/a
4432.296	n/a	RECOG_CONF	2216148	n/a	LTP158	ltpFR	1	2	1	PEAR	1033	5	1	n/a	n/a	n/a	n/a	n/a
4433.958	n/a	RECOG_LURE	2216979	n/a	LTP158	ltpFR	1	2	n/a	DIPLOMA	470	5	n/a	n/a	n/a	n/a	n/a	n/a
4434.716	n/a	RECOG_RESP	2217358	n/a	LTP158	ltpFR	1	2	n/a	DIPLOMA	470	n/a	n/a	n/a	n/a	n/a	n/a	n/a
4436.836	n/a	RECOG_CONF	2218418	n/a	LTP158	ltpFR	1	2	n/a	DIPLOMA	470	5	n/a	n/a	n/a	n/a	n/a	n/a
4438.552	n/a	RECOG_TARGET	2219276	n/a	LTP158	ltpFR	1	2	0	KITTEN	780	5	0	n/a	n/a	n/a	n/a	n/a
4439.404	n/a	RECOG_RESP	2219702	n/a	LTP158	ltpFR	1	2	0	KITTEN	780	n/a	0	n/a	n/a	n/a	n/a	n/a
4440.916	n/a	RECOG_CONF	2220458	n/a	LTP158	ltpFR	1	2	0	KITTEN	780	5	0	n/a	n/a	n/a	n/a	n/a
4442.764	n/a	RECOG_TARGET	2221382	n/a	LTP158	ltpFR	1	2	0	SALESMAN	1225	5	1	n/a	n/a	n/a	n/a	n/a
4443.696	n/a	RECOG_RESP	2221848	n/a	LTP158	ltpFR	1	2	0	SALESMAN	1225	n/a	1	n/a	n/a	n/a	n/a	n/a
4445.148	n/a	RECOG_CONF	2222574	n/a	LTP158	ltpFR	1	2	0	SALESMAN	1225	5	1	n/a	n/a	n/a	n/a	n/a
4447.276	n/a	RECOG_TARGET	2223638	n/a	LTP158	ltpFR	1	2	-1	CREEK	404	5	-1	n/a	n/a	n/a	n/a	n/a
4447.944	n/a	RECOG_RESP	2223972	n/a	LTP158	ltpFR	1	2	-1	CREEK	404	n/a	-1	n/a	n/a	n/a	n/a	n/a
4449.536	n/a	RECOG_CONF	2224768	n/a	LTP158	ltpFR	1	2	-1	CREEK	404	5	-1	n/a	n/a	n/a	n/a	n/a
4451.604	n/a	RECOG_TARGET	2225802	n/a	LTP158	ltpFR	1	2	0	THESAURUS	1454	5	0	n/a	n/a	n/a	n/a	n/a
4452.556	n/a	RECOG_RESP	2226278	n/a	LTP158	ltpFR	1	2	0	THESAURUS	1454	n/a	0	n/a	n/a	n/a	n/a	n/a
4453.944	n/a	RECOG_CONF	2226972	n/a	LTP158	ltpFR	1	2	0	THESAURUS	1454	5	0	n/a	n/a	n/a	n/a	n/a
4455.908	n/a	RECOG_TARGET	2227954	n/a	LTP158	ltpFR	1	2	0	GENTLEMAN	631	5	1	n/a	n/a	n/a	n/a	n/a
4457.02	n/a	RECOG_RESP	2228510	n/a	LTP158	ltpFR	1	2	0	GENTLEMAN	631	n/a	1	n/a	n/a	n/a	n/a	n/a
4458.24	n/a	RECOG_CONF	2229120	n/a	LTP158	ltpFR	1	2	0	GENTLEMAN	631	5	1	n/a	n/a	n/a	n/a	n/a
4459.946	n/a	RECOG_TARGET	2229973	n/a	LTP158	ltpFR	1	2	0	STORE	1387	5	1	n/a	n/a	n/a	n/a	n/a
4461.044	n/a	RECOG_RESP	2230522	n/a	LTP158	ltpFR	1	2	0	STORE	1387	n/a	1	n/a	n/a	n/a	n/a	n/a
4462.566	n/a	RECOG_CONF	2231283	n/a	LTP158	ltpFR	1	2	0	STORE	1387	5	1	n/a	n/a	n/a	n/a	n/a
4464.24	n/a	RECOG_TARGET	2232120	n/a	LTP158	ltpFR	1	2	1	MARS	873	5	0	n/a	n/a	n/a	n/a	n/a
4464.926	n/a	RECOG_RESP	2232463	n/a	LTP158	ltpFR	1	2	1	MARS	873	n/a	0	n/a	n/a	n/a	n/a	n/a
4466.222	n/a	RECOG_CONF	2233111	n/a	LTP158	ltpFR	1	2	1	MARS	873	5	0	n/a	n/a	n/a	n/a	n/a
4468.028	n/a	RECOG_TARGET	2234014	n/a	LTP158	ltpFR	1	2	-1	TUNA	1518	5	-1	n/a	n/a	n/a	n/a	n/a
4468.816	n/a	RECOG_RESP	2234408	n/a	LTP158	ltpFR	1	2	-1	TUNA	1518	n/a	-1	n/a	n/a	n/a	n/a	n/a
4470.156	n/a	RECOG_CONF	2235078	n/a	LTP158	ltpFR	1	2	-1	TUNA	1518	5	-1	n/a	n/a	n/a	n/a	n/a
4471.882	n/a	RECOG_TARGET	2235941	n/a	LTP158	ltpFR	1	2	1	MUG	930	5	0	n/a	n/a	n/a	n/a	n/a
4472.41	n/a	RECOG_RESP	2236205	n/a	LTP158	ltpFR	1	2	1	MUG	930	n/a	0	n/a	n/a	n/a	n/a	n/a
4473.714	n/a	RECOG_CONF	2236857	n/a	LTP158	ltpFR	1	2	1	MUG	930	5	0	n/a	n/a	n/a	n/a	n/a
4475.592	n/a	RECOG_TARGET	2237796	n/a	LTP158	ltpFR	1	2	-1	HANGER	687	5	-1	n/a	n/a	n/a	n/a	n/a
4476.28	n/a	RECOG_RESP	2238140	n/a	LTP158	ltpFR	1	2	-1	HANGER	687	n/a	-1	n/a	n/a	n/a	n/a	n/a
4477.602	n/a	RECOG_CONF	2238801	n/a	LTP158	ltpFR	1	2	-1	HANGER	687	5	-1	n/a	n/a	n/a	n/a	n/a
4479.264	n/a	RECOG_LURE	2239632	n/a	LTP158	ltpFR	1	2	n/a	LUNG	850	3	n/a	n/a	n/a	n/a	n/a	n/a
4483.29	n/a	RECOG_RESP	2241645	n/a	LTP158	ltpFR	1	2	n/a	LUNG	850	n/a	n/a	n/a	n/a	n/a	n/a	n/a
4485.14	n/a	RECOG_CONF	2242570	n/a	LTP158	ltpFR	1	2	n/a	LUNG	850	3	n/a	n/a	n/a	n/a	n/a	n/a
4486.988	n/a	RECOG_TARGET	2243494	n/a	LTP158	ltpFR	1	2	1	BUGGY	188	5	0	n/a	n/a	n/a	n/a	n/a
4487.726	n/a	RECOG_RESP	2243863	n/a	LTP158	ltpFR	1	2	1	BUGGY	188	n/a	0	n/a	n/a	n/a	n/a	n/a
4489.184	n/a	RECOG_CONF	2244592	n/a	LTP158	ltpFR	1	2	1	BUGGY	188	5	0	n/a	n/a	n/a	n/a	n/a
4490.926	n/a	RECOG_LURE	2245463	n/a	LTP158	ltpFR	1	2	n/a	MARKER	870	3	n/a	n/a	n/a	n/a	n/a	n/a
4493.234	n/a	RECOG_RESP	2246617	n/a	LTP158	ltpFR	1	2	n/a	MARKER	870	n/a	n/a	n/a	n/a	n/a	n/a	n/a
4495.192	n/a	RECOG_CONF	2247596	n/a	LTP158	ltpFR	1	2	n/a	MARKER	870	3	n/a	n/a	n/a	n/a	n/a	n/a
4496.896	n/a	RECOG_TARGET	2248448	n/a	LTP158	ltpFR	1	2	0	SUPERVISOR	1410	5	1	n/a	n/a	n/a	n/a	n/a
4497.91	n/a	RECOG_RESP	2248955	n/a	LTP158	ltpFR	1	2	0	SUPERVISOR	1410	n/a	1	n/a	n/a	n/a	n/a	n/a
4499.664	n/a	RECOG_CONF	2249832	n/a	LTP158	ltpFR	1	2	0	SUPERVISOR	1410	5	1	n/a	n/a	n/a	n/a	n/a
4501.464	n/a	RECOG_TARGET	2250732	n/a	LTP158	ltpFR	1	2	0	DISC	473	5	0	n/a	n/a	n/a	n/a	n/a
4502.54	n/a	RECOG_RESP	2251270	n/a	LTP158	ltpFR	1	2	0	DISC	473	n/a	0	n/a	n/a	n/a	n/a	n/a
4503.878	n/a	RECOG_CONF	2251939	n/a	LTP158	ltpFR	1	2	0	DISC	473	5	0	n/a	n/a	n/a	n/a	n/a
4505.758	n/a	RECOG_TARGET	2252879	n/a	LTP158	ltpFR	1	2	-1	BATH	98	5	-1	n/a	n/a	n/a	n/a	n/a
4508.48	n/a	RECOG_RESP	2254240	n/a	LTP158	ltpFR	1	2	-1	BATH	98	n/a	-1	n/a	n/a	n/a	n/a	n/a
4509.892	n/a	RECOG_CONF	2254946	n/a	LTP158	ltpFR	1	2	-1	BATH	98	5	-1	n/a	n/a	n/a	n/a	n/a
4511.786	n/a	RECOG_TARGET	2255893	n/a	LTP158	ltpFR	1	2	1	ORNAMENT	985	5	0	n/a	n/a	n/a	n/a	n/a
4513.32	n/a	RECOG_RESP	2256660	n/a	LTP158	ltpFR	1	2	1	ORNAMENT	985	n/a	0	n/a	n/a	n/a	n/a	n/a
4514.598	n/a	RECOG_CONF	2257299	n/a	LTP158	ltpFR	1	2	1	ORNAMENT	985	5	0	n/a	n/a	n/a	n/a	n/a
4516.662	n/a	RECOG_TARGET	2258331	n/a	LTP158	ltpFR	1	2	1	GARLIC	624	5	0	n/a	n/a	n/a	n/a	n/a
4517.282	n/a	RECOG_RESP	2258641	n/a	LTP158	ltpFR	1	2	1	GARLIC	624	n/a	0	n/a	n/a	n/a	n/a	n/a
4518.83	n/a	RECOG_CONF	2259415	n/a	LTP158	ltpFR	1	2	1	GARLIC	624	5	0	n/a	n/a	n/a	n/a	n/a
4522.554	n/a	REC_START	2261277	n/a	LTP158	ltpFR	1	3	n/a	n/a	n/a	n/a	n/a	n/a	n/a	n/a	n/a	n/a
4522.582	n/a	RECOG_TARGET	2261291	n/a	LTP158	ltpFR	1	3	0	RECEIPT	1173	5	0	n/a	n/a	n/a	n/a	n/a
4523.344	n/a	RECOG_RESP	2261672	n/a	LTP158	ltpFR	1	3	0	RECEIPT	1173	n/a	0	n/a	n/a	n/a	n/a	n/a
4524.774	n/a	RECOG_CONF	2262387	n/a	LTP158	ltpFR	1	3	0	RECEIPT	1173	5	0	n/a	n/a	n/a	n/a	n/a
4526.534	n/a	RECOG_TARGET	2263267	n/a	LTP158	ltpFR	1	3	1	TYPIST	1532	5	1	n/a	n/a	n/a	n/a	n/a
4527.656	n/a	RECOG_RESP	2263828	n/a	LTP158	ltpFR	1	3	1	TYPIST	1532	n/a	1	n/a	n/a	n/a	n/a	n/a
4528.902	n/a	RECOG_CONF	2264451	n/a	LTP158	ltpFR	1	3	1	TYPIST	1532	5	1	n/a	n/a	n/a	n/a	n/a
4530.704	n/a	RECOG_TARGET	2265352	n/a	LTP158	ltpFR	1	3	1	SHORE	1291	4	0	n/a	n/a	n/a	n/a	n/a
4531.52	n/a	RECOG_RESP	2265760	n/a	LTP158	ltpFR	1	3	1	SHORE	1291	n/a	0	n/a	n/a	n/a	n/a	n/a
4533.072	n/a	RECOG_CONF	2266536	n/a	LTP158	ltpFR	1	3	1	SHORE	1291	4	0	n/a	n/a	n/a	n/a	n/a
4535.258	n/a	RECOG_LURE	2267629	n/a	LTP158	ltpFR	1	3	n/a	TULIP	1517	2	n/a	n/a	n/a	n/a	n/a	n/a
4538.098	n/a	RECOG_RESP	2269049	n/a	LTP158	ltpFR	1	3	n/a	TULIP	1517	n/a	n/a	n/a	n/a	n/a	n/a	n/a
4539.592	n/a	RECOG_CONF	2269796	n/a	LTP158	ltpFR	1	3	n/a	TULIP	1517	2	n/a	n/a	n/a	n/a	n/a	n/a
4541.402	n/a	RECOG_TARGET	2270701	n/a	LTP158	ltpFR	1	3	1	WIFE	1609	3	1	n/a	n/a	n/a	n/a	n/a
4549.18	n/a	RECOG_RESP	2274590	n/a	LTP158	ltpFR	1	3	1	WIFE	1609	n/a	1	n/a	n/a	n/a	n/a	n/a
4550.814	n/a	RECOG_CONF	2275407	n/a	LTP158	ltpFR	1	3	1	WIFE	1609	3	1	n/a	n/a	n/a	n/a	n/a
4552.83	n/a	RECOG_TARGET	2276415	n/a	LTP158	ltpFR	1	3	-1	DRAWING	494	3	-1	n/a	n/a	n/a	n/a	n/a
4555.532	n/a	RECOG_RESP	2277766	n/a	LTP158	ltpFR	1	3	-1	DRAWING	494	n/a	-1	n/a	n/a	n/a	n/a	n/a
4557.316	n/a	RECOG_CONF	2278658	n/a	LTP158	ltpFR	1	3	-1	DRAWING	494	3	-1	n/a	n/a	n/a	n/a	n/a
4559.24	n/a	RECOG_TARGET	2279620	n/a	LTP158	ltpFR	1	3	-1	HEDGE	699	2	-1	n/a	n/a	n/a	n/a	n/a
4561.092	n/a	RECOG_RESP	2280546	n/a	LTP158	ltpFR	1	3	-1	HEDGE	699	n/a	-1	n/a	n/a	n/a	n/a	n/a
4562.988	n/a	RECOG_CONF	2281494	n/a	LTP158	ltpFR	1	3	-1	HEDGE	699	2	-1	n/a	n/a	n/a	n/a	n/a
4564.69	n/a	RECOG_TARGET	2282345	n/a	LTP158	ltpFR	1	3	0	PALM	1007	4	0	n/a	n/a	n/a	n/a	n/a
4565.556	n/a	RECOG_RESP	2282778	n/a	LTP158	ltpFR	1	3	0	PALM	1007	n/a	0	n/a	n/a	n/a	n/a	n/a
4567.666	n/a	RECOG_CONF	2283833	n/a	LTP158	ltpFR	1	3	0	PALM	1007	4	0	n/a	n/a	n/a	n/a	n/a
4569.312	n/a	RECOG_TARGET	2284656	n/a	LTP158	ltpFR	1	3	0	INSTRUCTOR	741	3	1	n/a	n/a	n/a	n/a	n/a
4572.082	n/a	RECOG_RESP	2286041	n/a	LTP158	ltpFR	1	3	0	INSTRUCTOR	741	n/a	1	n/a	n/a	n/a	n/a	n/a
4573.948	n/a	RECOG_CONF	2286974	n/a	LTP158	ltpFR	1	3	0	INSTRUCTOR	741	3	1	n/a	n/a	n/a	n/a	n/a
4575.628	n/a	RECOG_TARGET	2287814	n/a	LTP158	ltpFR	1	3	-1	SKIN	1318	5	-1	n/a	n/a	n/a	n/a	n/a
4576.338	n/a	RECOG_RESP	2288169	n/a	LTP158	ltpFR	1	3	-1	SKIN	1318	n/a	-1	n/a	n/a	n/a	n/a	n/a
4577.792	n/a	RECOG_CONF	2288896	n/a	LTP158	ltpFR	1	3	-1	SKIN	1318	5	-1	n/a	n/a	n/a	n/a	n/a
4579.492	n/a	RECOG_TARGET	2289746	n/a	LTP158	ltpFR	1	3	0	CACTUS	215	5	1	n/a	n/a	n/a	n/a	n/a
4580.276	n/a	RECOG_RESP	2290138	n/a	LTP158	ltpFR	1	3	0	CACTUS	215	n/a	1	n/a	n/a	n/a	n/a	n/a
4581.514	n/a	RECOG_CONF	2290757	n/a	LTP158	ltpFR	1	3	0	CACTUS	215	5	1	n/a	n/a	n/a	n/a	n/a
4583.246	n/a	RECOG_TARGET	2291623	n/a	LTP158	ltpFR	1	3	-1	ROACH	1195	5	-1	n/a	n/a	n/a	n/a	n/a
4583.886	n/a	RECOG_RESP	2291943	n/a	LTP158	ltpFR	1	3	-1	ROACH	1195	n/a	-1	n/a	n/a	n/a	n/a	n/a
4585.21	n/a	RECOG_CONF	2292605	n/a	LTP158	ltpFR	1	3	-1	ROACH	1195	5	-1	n/a	n/a	n/a	n/a	n/a
4586.916	n/a	RECOG_TARGET	2293458	n/a	LTP158	ltpFR	1	3	0	PUB	1135	4	1	n/a	n/a	n/a	n/a	n/a
4588.304	n/a	RECOG_RESP	2294152	n/a	LTP158	ltpFR	1	3	0	PUB	1135	n/a	1	n/a	n/a	n/a	n/a	n/a
4589.83	n/a	RECOG_CONF	2294915	n/a	LTP158	ltpFR	1	3	0	PUB	1135	4	1	n/a	n/a	n/a	n/a	n/a
4591.618	n/a	RECOG_TARGET	2295809	n/a	LTP158	ltpFR	1	3	1	SPY	1360	5	1	n/a	n/a	n/a	n/a	n/a
4592.314	n/a	RECOG_RESP	2296157	n/a	LTP158	ltpFR	1	3	1	SPY	1360	n/a	1	n/a	n/a	n/a	n/a	n/a
4593.584	n/a	RECOG_CONF	2296792	n/a	LTP158	ltpFR	1	3	1	SPY	1360	5	1	n/a	n/a	n/a	n/a	n/a
4595.408	n/a	RECOG_LURE	2297704	n/a	LTP158	ltpFR	1	3	n/a	XEROX	1628	2	n/a	n/a	n/a	n/a	n/a	n/a
4597.268	n/a	RECOG_RESP	2298634	n/a	LTP158	ltpFR	1	3	n/a	XEROX	1628	n/a	n/a	n/a	n/a	n/a	n/a	n/a
4599.3	n/a	RECOG_CONF	2299650	n/a	LTP158	ltpFR	1	3	n/a	XEROX	1628	2	n/a	n/a	n/a	n/a	n/a	n/a
4601.068	n/a	RECOG_LURE	2300534	n/a	LTP158	ltpFR	1	3	n/a	TOAST	1471	2	n/a	n/a	n/a	n/a	n/a	n/a
4601.764	n/a	RECOG_RESP	2300882	n/a	LTP158	ltpFR	1	3	n/a	TOAST	1471	n/a	n/a	n/a	n/a	n/a	n/a	n/a
4603.468	n/a	RECOG_CONF	2301734	n/a	LTP158	ltpFR	1	3	n/a	TOAST	1471	2	n/a	n/a	n/a	n/a	n/a	n/a
4605.13	n/a	RECOG_TARGET	2302565	n/a	LTP158	ltpFR	1	3	1	LEOPARD	812	5	1	n/a	n/a	n/a	n/a	n/a
4605.758	n/a	RECOG_RESP	2302879	n/a	LTP158	ltpFR	1	3	1	LEOPARD	812	n/a	1	n/a	n/a	n/a	n/a	n/a
4607.386	n/a	RECOG_CONF	2303693	n/a	LTP158	ltpFR	1	3	1	LEOPARD	812	5	1	n/a	n/a	n/a	n/a	n/a
4609.058	n/a	RECOG_TARGET	2304529	n/a	LTP158	ltpFR	1	3	0	ROSE	1212	5	0	n/a	n/a	n/a	n/a	n/a
4609.764	n/a	RECOG_RESP	2304882	n/a	LTP158	ltpFR	1	3	0	ROSE	1212	n/a	0	n/a	n/a	n/a	n/a	n/a
4611.258	n/a	RECOG_CONF	2305629	n/a	LTP158	ltpFR	1	3	0	ROSE	1212	5	0	n/a	n/a	n/a	n/a	n/a
4613.078	n/a	RECOG_LURE	2306539	n/a	LTP158	ltpFR	1	3	n/a	SUGAR	1401	3	n/a	n/a	n/a	n/a	n/a	n/a
4614.854	n/a	RECOG_RESP	2307427	n/a	LTP158	ltpFR	1	3	n/a	SUGAR	1401	n/a	n/a	n/a	n/a	n/a	n/a	n/a
4616.102	n/a	RECOG_CONF	2308051	n/a	LTP158	ltpFR	1	3	n/a	SUGAR	1401	3	n/a	n/a	n/a	n/a	n/a	n/a
4617.98	n/a	RECOG_TARGET	2308990	n/a	LTP158	ltpFR	1	3	1	LITERATURE	831	4	0	n/a	n/a	n/a	n/a	n/a
4619.526	n/a	RECOG_RESP	2309763	n/a	LTP158	ltpFR	1	3	1	LITERATURE	831	n/a	0	n/a	n/a	n/a	n/a	n/a
4621.226	n/a	RECOG_CONF	2310613	n/a	LTP158	ltpFR	1	3	1	LITERATURE	831	4	0	n/a	n/a	n/a	n/a	n/a
4624.672	n/a	REC_START	2312336	n/a	LTP158	ltpFR	1	4	n/a	n/a	n/a	n/a	n/a	n/a	n/a	n/a	n/a	n/a
4624.698	n/a	RECOG_LURE	2312349	n/a	LTP158	ltpFR	1	4	n/a	DRESS	495	3	n/a	n/a	n/a	n/a	n/a	n/a
4626.246	n/a	RECOG_RESP	2313123	n/a	LTP158	ltpFR	1	4	n/a	DRESS	495	n/a	n/a	n/a	n/a	n/a	n/a	n/a
4627.894	n/a	RECOG_CONF	2313947	n/a	LTP158	ltpFR	1	4	n/a	DRESS	495	3	n/a	n/a	n/a	n/a	n/a	n/a
4629.566	n/a	RECOG_LURE	2314783	n/a	LTP158	ltpFR	1	4	n/a	SCISSORS	1250	2	n/a	n/a	n/a	n/a	n/a	n/a
4631.346	n/a	RECOG_RESP	2315673	n/a	LTP158	ltpFR	1	4	n/a	SCISSORS	1250	n/a	n/a	n/a	n/a	n/a	n/a	n/a
4632.796	n/a	RECOG_CONF	2316398	n/a	LTP158	ltpFR	1	4	n/a	SCISSORS	1250	2	n/a	n/a	n/a	n/a	n/a	n/a
4634.628	n/a	RECOG_TARGET	2317314	n/a	LTP158	ltpFR	1	4	1	MATTRESS	879	4	0	n/a	n/a	n/a	n/a	n/a
4635.546	n/a	RECOG_RESP	2317773	n/a	LTP158	ltpFR	1	4	1	MATTRESS	879	n/a	0	n/a	n/a	n/a	n/a	n/a
4636.978	n/a	RECOG_CONF	2318489	n/a	LTP158	ltpFR	1	4	1	MATTRESS	879	4	0	n/a	n/a	n/a	n/a	n/a
4638.632	n/a	RECOG_TARGET	2319316	n/a	LTP158	ltpFR	1	4	1	SOLDIER	1344	4	1	n/a	n/a	n/a	n/a	n/a
4639.778	n/a	RECOG_RESP	2319889	n/a	LTP158	ltpFR	1	4	1	SOLDIER	1344	n/a	1	n/a	n/a	n/a	n/a	n/a
4641.608	n/a	RECOG_CONF	2320804	n/a	LTP158	ltpFR	1	4	1	SOLDIER	1344	4	1	n/a	n/a	n/a	n/a	n/a
4643.326	n/a	RECOG_TARGET	2321663	n/a	LTP158	ltpFR	1	4	-1	JAW	751	5	-1	n/a	n/a	n/a	n/a	n/a
4644.02	n/a	RECOG_RESP	2322010	n/a	LTP158	ltpFR	1	4	-1	JAW	751	n/a	-1	n/a	n/a	n/a	n/a	n/a
4645.602	n/a	RECOG_CONF	2322801	n/a	LTP158	ltpFR	1	4	-1	JAW	751	5	-1	n/a	n/a	n/a	n/a	n/a
4647.38	n/a	RECOG_TARGET	2323690	n/a	LTP158	ltpFR	1	4	1	DOVE	491	5	1	n/a	n/a	n/a	n/a	n/a
4648.004	n/a	RECOG_RESP	2324002	n/a	LTP158	ltpFR	1	4	1	DOVE	491	n/a	1	n/a	n/a	n/a	n/a	n/a
4649.57	n/a	RECOG_CONF	2324785	n/a	LTP158	ltpFR	1	4	1	DOVE	491	5	1	n/a	n/a	n/a	n/a	n/a
4651.2	n/a	RECOG_TARGET	2325600	n/a	LTP158	ltpFR	1	4	0	ASTEROID	50	5	1	n/a	n/a	n/a	n/a	n/a
4651.808	n/a	RECOG_RESP	2325904	n/a	LTP158	ltpFR	1	4	0	ASTEROID	50	n/a	1	n/a	n/a	n/a	n/a	n/a
4653.25	n/a	RECOG_CONF	2326625	n/a	LTP158	ltpFR	1	4	0	ASTEROID	50	5	1	n/a	n/a	n/a	n/a	n/a
4654.914	n/a	RECOG_LURE	2327457	n/a	LTP158	ltpFR	1	4	n/a	THICKET	1455	5	n/a	n/a	n/a	n/a	n/a	n/a
4655.766	n/a	RECOG_RESP	2327883	n/a	LTP158	ltpFR	1	4	n/a	THICKET	1455	n/a	n/a	n/a	n/a	n/a	n/a	n/a
4657.55	n/a	RECOG_CONF	2328775	n/a	LTP158	ltpFR	1	4	n/a	THICKET	1455	5	n/a	n/a	n/a	n/a	n/a	n/a
4659.26	n/a	RECOG_TARGET	2329630	n/a	LTP158	ltpFR	1	4	-1	CUFF	423	5	-1	n/a	n/a	n/a	n/a	n/a
4659.886	n/a	RECOG_RESP	2329943	n/a	LTP158	ltpFR	1	4	-1	CUFF	423	n/a	-1	n/a	n/a	n/a	n/a	n/a
4661.414	n/a	RECOG_CONF	2330707	n/a	LTP158	ltpFR	1	4	-1	CUFF	423	5	-1	n/a	n/a	n/a	n/a	n/a
4663.18	n/a	RECOG_TARGET	2331590	n/a	LTP158	ltpFR	1	4	0	SEAL	1262	4	1	n/a	n/a	n/a	n/a	n/a
4663.824	n/a	RECOG_RESP	2331912	n/a	LTP158	ltpFR	1	4	0	SEAL	1262	n/a	1	n/a	n/a	n/a	n/a	n/a
4665.132	n/a	RECOG_CONF	2332566	n/a	LTP158	ltpFR	1	4	0	SEAL	1262	4	1	n/a	n/a	n/a	n/a	n/a
4667.092	n/a	RECOG_TARGET	2333546	n/a	LTP158	ltpFR	1	4	1	PIT	1077	5	0	n/a	n/a	n/a	n/a	n/a
4667.782	n/a	RECOG_RESP	2333891	n/a	LTP158	ltpFR	1	4	1	PIT	1077	n/a	0	n/a	n/a	n/a	n/a	n/a
4669.266	n/a	RECOG_CONF	2334633	n/a	LTP158	ltpFR	1	4	1	PIT	1077	5	0	n/a	n/a	n/a	n/a	n/a
4670.912	n/a	RECOG_TARGET	2335456	n/a	LTP158	ltpFR	1	4	1	FAUCET	555	5	0	n/a	n/a	n/a	n/a	n/a
4671.782	n/a	RECOG_RESP	2335891	n/a	LTP158	ltpFR	1	4	1	FAUCET	555	n/a	0	n/a	n/a	n/a	n/a	n/a
4673.236	n/a	RECOG_CONF	2336618	n/a	LTP158	ltpFR	1	4	1	FAUCET	555	5	0	n/a	n/a	n/a	n/a	n/a
4674.842	n/a	RECOG_TARGET	2337421	n/a	LTP158	ltpFR	1	4	0	STAR	1373	5	0	n/a	n/a	n/a	n/a	n/a
4675.458	n/a	RECOG_RESP	2337729	n/a	LTP158	ltpFR	1	4	0	STAR	1373	n/a	0	n/a	n/a	n/a	n/a	n/a
4677.3	n/a	RECOG_CONF	2338650	n/a	LTP158	ltpFR	1	4	0	STAR	1373	5	0	n/a	n/a	n/a	n/a	n/a
4678.954	n/a	RECOG_TARGET	2339477	n/a	LTP158	ltpFR	1	4	0	MAN	862	5	1	n/a	n/a	n/a	n/a	n/a
4679.598	n/a	RECOG_RESP	2339799	n/a	LTP158	ltpFR	1	4	0	MAN	862	n/a	1	n/a	n/a	n/a	n/a	n/a
4681.106	n/a	RECOG_CONF	2340553	n/a	LTP158	ltpFR	1	4	0	MAN	862	5	1	n/a	n/a	n/a	n/a	n/a
4682.848	n/a	RECOG_LURE	2341424	n/a	LTP158	ltpFR	1	4	n/a	EYE	545	2	n/a	n/a	n/a	n/a	n/a	n/a
4684.614	n/a	RECOG_RESP	2342307	n/a	LTP158	ltpFR	1	4	n/a	EYE	545	n/a	n/a	n/a	n/a	n/a	n/a	n/a
4686.748	n/a	RECOG_CONF	2343374	n/a	LTP158	ltpFR	1	4	n/a	EYE	545	2	n/a	n/a	n/a	n/a	n/a	n/a
4688.574	n/a	RECOG_TARGET	2344287	n/a	LTP158	ltpFR	1	4	1	SENATE	1267	5	1	n/a	n/a	n/a	n/a	n/a
4689.234	n/a	RECOG_RESP	2344617	n/a	LTP158	ltpFR	1	4	1	SENATE	1267	n/a	1	n/a	n/a	n/a	n/a	n/a
4690.74	n/a	RECOG_CONF	2345370	n/a	LTP158	ltpFR	1	4	1	SENATE	1267	5	1	n/a	n/a	n/a	n/a	n/a
4692.562	n/a	RECOG_TARGET	2346281	n/a	LTP158	ltpFR	1	4	-1	DEPARTMENT	449	5	-1	n/a	n/a	n/a	n/a	n/a
4693.452	n/a	RECOG_RESP	2346726	n/a	LTP158	ltpFR	1	4	-1	DEPARTMENT	449	n/a	-1	n/a	n/a	n/a	n/a	n/a
4694.772	n/a	RECOG_CONF	2347386	n/a	LTP158	ltpFR	1	4	-1	DEPARTMENT	449	5	-1	n/a	n/a	n/a	n/a	n/a
4696.548	n/a	RECOG_TARGET	2348274	n/a	LTP158	ltpFR	1	4	1	KETTLE	772	2	0	n/a	n/a	n/a	n/a	n/a
4698.538	n/a	RECOG_RESP	2349269	n/a	LTP158	ltpFR	1	4	1	KETTLE	772	n/a	0	n/a	n/a	n/a	n/a	n/a
4700.542	n/a	RECOG_CONF	2350271	n/a	LTP158	ltpFR	1	4	1	KETTLE	772	2	0	n/a	n/a	n/a	n/a	n/a
4702.252	n/a	RECOG_TARGET	2351126	n/a	LTP158	ltpFR	1	4	-1	KNAPSACK	783	5	-1	n/a	n/a	n/a	n/a	n/a
4702.922	n/a	RECOG_RESP	2351461	n/a	LTP158	ltpFR	1	4	-1	KNAPSACK	783	n/a	-1	n/a	n/a	n/a	n/a	n/a
4704.506	n/a	RECOG_CONF	2352253	n/a	LTP158	ltpFR	1	4	-1	KNAPSACK	783	5	-1	n/a	n/a	n/a	n/a	n/a
4706.296	n/a	RECOG_TARGET	2353148	n/a	LTP158	ltpFR	1	4	0	ROOST	1208	5	1	n/a	n/a	n/a	n/a	n/a
4706.848	n/a	RECOG_RESP	2353424	n/a	LTP158	ltpFR	1	4	0	ROOST	1208	n/a	1	n/a	n/a	n/a	n/a	n/a
4708.956	n/a	RECOG_CONF	2354478	n/a	LTP158	ltpFR	1	4	0	ROOST	1208	5	1	n/a	n/a	n/a	n/a	n/a
4712.88	n/a	REC_START	2356440	n/a	LTP158	ltpFR	1	5	n/a	n/a	n/a	n/a	n/a	n/a	n/a	n/a	n/a	n/a
4712.906	n/a	RECOG_LURE	2356453	n/a	LTP158	ltpFR	1	5	n/a	CHIP	303	1	n/a	n/a	n/a	n/a	n/a	n/a
4714.284	n/a	RECOG_RESP	2357142	n/a	LTP158	ltpFR	1	5	n/a	CHIP	303	n/a	n/a	n/a	n/a	n/a	n/a	n/a
4716.082	n/a	RECOG_CONF	2358041	n/a	LTP158	ltpFR	1	5	n/a	CHIP	303	1	n/a	n/a	n/a	n/a	n/a	n/a
4717.674	n/a	RECOG_TARGET	2358837	n/a	LTP158	ltpFR	1	5	-1	TRIANGLE	1504	5	-1	n/a	n/a	n/a	n/a	n/a
4719.566	n/a	RECOG_RESP	2359783	n/a	LTP158	ltpFR	1	5	-1	TRIANGLE	1504	n/a	-1	n/a	n/a	n/a	n/a	n/a
4720.876	n/a	RECOG_CONF	2360438	n/a	LTP158	ltpFR	1	5	-1	TRIANGLE	1504	5	-1	n/a	n/a	n/a	n/a	n/a
4722.584	n/a	RECOG_TARGET	2361292	n/a	LTP158	ltpFR	1	5	1	ROCK	1201	5	0	n/a	n/a	n/a	n/a	n/a
4723.312	n/a	RECOG_RESP	2361656	n/a	LTP158	ltpFR	1	5	1	ROCK	1201	n/a	0	n/a	n/a	n/a	n/a	n/a
4724.718	n/a	RECOG_CONF	2362359	n/a	LTP158	ltpFR	1	5	1	ROCK	1201	5	0	n/a	n/a	n/a	n/a	n/a
4726.596	n/a	RECOG_TARGET	2363298	n/a	LTP158	ltpFR	1	5	1	CLASS	318	5	0	n/a	n/a	n/a	n/a	n/a
4727.358	n/a	RECOG_RESP	2363679	n/a	LTP158	ltpFR	1	5	1	CLASS	318	n/a	0	n/a	n/a	n/a	n/a	n/a
4728.968	n/a	RECOG_CONF	2364484	n/a	LTP158	ltpFR	1	5	1	CLASS	318	5	0	n/a	n/a	n/a	n/a	n/a
4730.608	n/a	RECOG_LURE	2365304	n/a	LTP158	ltpFR	1	5	n/a	SLOPE	1328	3	n/a	n/a	n/a	n/a	n/a	n/a
4731.664	n/a	RECOG_RESP	2365832	n/a	LTP158	ltpFR	1	5	n/a	SLOPE	1328	n/a	n/a	n/a	n/a	n/a	n/a	n/a
4733.484	n/a	RECOG_CONF	2366742	n/a	LTP158	ltpFR	1	5	n/a	SLOPE	1328	3	n/a	n/a	n/a	n/a	n/a	n/a
4735.172	n/a	RECOG_TARGET	2367586	n/a	LTP158	ltpFR	1	5	0	ELBOW	520	5	1	n/a	n/a	n/a	n/a	n/a
4736.138	n/a	RECOG_RESP	2368069	n/a	LTP158	ltpFR	1	5	0	ELBOW	520	n/a	1	n/a	n/a	n/a	n/a	n/a
4737.92	n/a	RECOG_CONF	2368960	n/a	LTP158	ltpFR	1	5	0	ELBOW	520	5	1	n/a	n/a	n/a	n/a	n/a
4739.7	n/a	RECOG_TARGET	2369850	n/a	LTP158	ltpFR	1	5	-1	RECORD	1176	5	-1	n/a	n/a	n/a	n/a	n/a
4740.42	n/a	RECOG_RESP	2370210	n/a	LTP158	ltpFR	1	5	-1	RECORD	1176	n/a	-1	n/a	n/a	n/a	n/a	n/a
4741.814	n/a	RECOG_CONF	2370907	n/a	LTP158	ltpFR	1	5	-1	RECORD	1176	5	-1	n/a	n/a	n/a	n/a	n/a
4743.654	n/a	RECOG_TARGET	2371827	n/a	LTP158	ltpFR	1	5	1	CHAIN	273	1	0	n/a	n/a	n/a	n/a	n/a
4744.942	n/a	RECOG_RESP	2372471	n/a	LTP158	ltpFR	1	5	1	CHAIN	273	n/a	0	n/a	n/a	n/a	n/a	n/a
4747.428	n/a	RECOG_CONF	2373714	n/a	LTP158	ltpFR	1	5	1	CHAIN	273	1	0	n/a	n/a	n/a	n/a	n/a
4749.082	n/a	RECOG_TARGET	2374541	n/a	LTP158	ltpFR	1	5	1	LID	817	5	0	n/a	n/a	n/a	n/a	n/a
4749.848	n/a	RECOG_RESP	2374924	n/a	LTP158	ltpFR	1	5	1	LID	817	n/a	0	n/a	n/a	n/a	n/a	n/a
4751.3	n/a	RECOG_CONF	2375650	n/a	LTP158	ltpFR	1	5	1	LID	817	5	0	n/a	n/a	n/a	n/a	n/a
4752.902	n/a	RECOG_TARGET	2376451	n/a	LTP158	ltpFR	1	5	1	VICTIM	1562	5	1	n/a	n/a	n/a	n/a	n/a
4753.542	n/a	RECOG_RESP	2376771	n/a	LTP158	ltpFR	1	5	1	VICTIM	1562	n/a	1	n/a	n/a	n/a	n/a	n/a
4755.31	n/a	RECOG_CONF	2377655	n/a	LTP158	ltpFR	1	5	1	VICTIM	1562	5	1	n/a	n/a	n/a	n/a	n/a
4756.948	n/a	RECOG_TARGET	2378474	n/a	LTP158	ltpFR	1	5	1	FINGER	567	5	0	n/a	n/a	n/a	n/a	n/a
4757.966	n/a	RECOG_RESP	2378983	n/a	LTP158	ltpFR	1	5	1	FINGER	567	n/a	0	n/a	n/a	n/a	n/a	n/a
4759.62	n/a	RECOG_CONF	2379810	n/a	LTP158	ltpFR	1	5	1	FINGER	567	5	0	n/a	n/a	n/a	n/a	n/a
4761.484	n/a	RECOG_TARGET	2380742	n/a	LTP158	ltpFR	1	5	0	CLOWN	330	5	1	n/a	n/a	n/a	n/a	n/a
4762.064	n/a	RECOG_RESP	2381032	n/a	LTP158	ltpFR	1	5	0	CLOWN	330	n/a	1	n/a	n/a	n/a	n/a	n/a
4763.556	n/a	RECOG_CONF	2381778	n/a	LTP158	ltpFR	1	5	0	CLOWN	330	5	1	n/a	n/a	n/a	n/a	n/a
4765.338	n/a	RECOG_TARGET	2382669	n/a	LTP158	ltpFR	1	5	-1	ANGEL	22	5	-1	n/a	n/a	n/a	n/a	n/a
4765.896	n/a	RECOG_RESP	2382948	n/a	LTP158	ltpFR	1	5	-1	ANGEL	22	n/a	-1	n/a	n/a	n/a	n/a	n/a
4767.456	n/a	RECOG_CONF	2383728	n/a	LTP158	ltpFR	1	5	-1	ANGEL	22	5	-1	n/a	n/a	n/a	n/a	n/a
4769.416	n/a	RECOG_TARGET	2384708	n/a	LTP158	ltpFR	1	5	-1	CHISEL	305	5	-1	n/a	n/a	n/a	n/a	n/a
4769.994	n/a	RECOG_RESP	2384997	n/a	LTP158	ltpFR	1	5	-1	CHISEL	305	n/a	-1	n/a	n/a	n/a	n/a	n/a
4771.676	n/a	RECOG_CONF	2385838	n/a	LTP158	ltpFR	1	5	-1	CHISEL	305	5	-1	n/a	n/a	n/a	n/a	n/a
4773.462	n/a	RECOG_TARGET	2386731	n/a	LTP158	ltpFR	1	5	1	INDIAN	736	5	1	n/a	n/a	n/a	n/a	n/a
4774.17	n/a	RECOG_RESP	2387085	n/a	LTP158	ltpFR	1	5	1	INDIAN	736	n/a	1	n/a	n/a	n/a	n/a	n/a
4775.48	n/a	RECOG_CONF	2387740	n/a	LTP158	ltpFR	1	5	1	INDIAN	736	5	1	n/a	n/a	n/a	n/a	n/a
4777.324	n/a	RECOG_TARGET	2388662	n/a	LTP158	ltpFR	1	5	-1	HUMAN	726	4	-1	n/a	n/a	n/a	n/a	n/a
4778.966	n/a	RECOG_RESP	2389483	n/a	LTP158	ltpFR	1	5	-1	HUMAN	726	n/a	-1	n/a	n/a	n/a	n/a	n/a
4780.572	n/a	RECOG_CONF	2390286	n/a	LTP158	ltpFR	1	5	-1	HUMAN	726	4	-1	n/a	n/a	n/a	n/a	n/a
4782.292	n/a	RECOG_TARGET	2391146	n/a	LTP158	ltpFR	1	5	0	CUSTOMER	430	5	1	n/a	n/a	n/a	n/a	n/a
4783.068	n/a	RECOG_RESP	2391534	n/a	LTP158	ltpFR	1	5	0	CUSTOMER	430	n/a	1	n/a	n/a	n/a	n/a	n/a
4784.494	n/a	RECOG_CONF	2392247	n/a	LTP158	ltpFR	1	5	0	CUSTOMER	430	5	1	n/a	n/a	n/a	n/a	n/a
4786.254	n/a	RECOG_TARGET	2393127	n/a	LTP158	ltpFR	1	5	0	TUNNEL	1519	5	1	n/a	n/a	n/a	n/a	n/a
4786.912	n/a	RECOG_RESP	2393456	n/a	LTP158	ltpFR	1	5	0	TUNNEL	1519	n/a	1	n/a	n/a	n/a	n/a	n/a
4788.342	n/a	RECOG_CONF	2394171	n/a	LTP158	ltpFR	1	5	0	TUNNEL	1519	5	1	n/a	n/a	n/a	n/a	n/a
4790.034	n/a	RECOG_LURE	2395017	n/a	LTP158	ltpFR	1	5	n/a	HAMPER	682	3	n/a	n/a	n/a	n/a	n/a	n/a
4790.85	n/a	RECOG_RESP	2395425	n/a	LTP158	ltpFR	1	5	n/a	HAMPER	682	n/a	n/a	n/a	n/a	n/a	n/a	n/a
4792.268	n/a	RECOG_CONF	2396134	n/a	LTP158	ltpFR	1	5	n/a	HAMPER	682	3	n/a	n/a	n/a	n/a	n/a	n/a
4793.97	n/a	RECOG_LURE	2396985	n/a	LTP158	ltpFR	1	5	n/a	CLOVE	329	4	n/a	n/a	n/a	n/a	n/a	n/a
4795.564	n/a	RECOG_RESP	2397782	n/a	LTP158	ltpFR	1	5	n/a	CLOVE	329	n/a	n/a	n/a	n/a	n/a	n/a	n/a
4797.504	n/a	RECOG_CONF	2398752	n/a	LTP158	ltpFR	1	5	n/a	CLOVE	329	4	n/a	n/a	n/a	n/a	n/a	n/a
4800.968	n/a	REC_START	2400484	n/a	LTP158	ltpFR	1	6	n/a	n/a	n/a	n/a	n/a	n/a	n/a	n/a	n/a	n/a
4800.996	n/a	RECOG_TARGET	2400498	n/a	LTP158	ltpFR	1	6	1	SERVER	1272	4	0	n/a	n/a	n/a	n/a	n/a
4802.068	n/a	RECOG_RESP	2401034	n/a	LTP158	ltpFR	1	6	1	SERVER	1272	n/a	0	n/a	n/a	n/a	n/a	n/a
4803.416	n/a	RECOG_CONF	2401708	n/a	LTP158	ltpFR	1	6	1	SERVER	1272	4	0	n/a	n/a	n/a	n/a	n/a
4804.942	n/a	RECOG_TARGET	2402471	n/a	LTP158	ltpFR	1	6	0	WIDOW	1608	5	1	n/a	n/a	n/a	n/a	n/a
4805.748	n/a	RECOG_RESP	2402874	n/a	LTP158	ltpFR	1	6	0	WIDOW	1608	n/a	1	n/a	n/a	n/a	n/a	n/a
4807.2	n/a	RECOG_CONF	2403600	n/a	LTP158	ltpFR	1	6	0	WIDOW	1608	5	1	n/a	n/a	n/a	n/a	n/a
4809.104	n/a	RECOG_TARGET	2404552	n/a	LTP158	ltpFR	1	6	0	VISITOR	1573	4	1	n/a	n/a	n/a	n/a	n/a
4810.012	n/a	RECOG_RESP	2405006	n/a	LTP158	ltpFR	1	6	0	VISITOR	1573	n/a	1	n/a	n/a	n/a	n/a	n/a
4811.36	n/a	RECOG_CONF	2405680	n/a	LTP158	ltpFR	1	6	0	VISITOR	1573	4	1	n/a	n/a	n/a	n/a	n/a
4812.974	n/a	RECOG_TARGET	2406487	n/a	LTP158	ltpFR	1	6	1	CHECKERS	285	5	0	n/a	n/a	n/a	n/a	n/a
4813.634	n/a	RECOG_RESP	2406817	n/a	LTP158	ltpFR	1	6	1	CHECKERS	285	n/a	0	n/a	n/a	n/a	n/a	n/a
4815.15	n/a	RECOG_CONF	2407575	n/a	LTP158	ltpFR	1	6	1	CHECKERS	285	5	0	n/a	n/a	n/a	n/a	n/a
4816.862	n/a	RECOG_TARGET	2408431	n/a	LTP158	ltpFR	1	6	-1	WAND	1586	5	-1	n/a	n/a	n/a	n/a	n/a
4817.6	n/a	RECOG_RESP	2408800	n/a	LTP158	ltpFR	1	6	-1	WAND	1586	n/a	-1	n/a	n/a	n/a	n/a	n/a
4818.754	n/a	RECOG_CONF	2409377	n/a	LTP158	ltpFR	1	6	-1	WAND	1586	5	-1	n/a	n/a	n/a	n/a	n/a
4820.424	n/a	RECOG_TARGET	2410212	n/a	LTP158	ltpFR	1	6	1	TREE	1502	5	1	n/a	n/a	n/a	n/a	n/a
4820.952	n/a	RECOG_RESP	2410476	n/a	LTP158	ltpFR	1	6	1	TREE	1502	n/a	1	n/a	n/a	n/a	n/a	n/a
4822.552	n/a	RECOG_CONF	2411276	n/a	LTP158	ltpFR	1	6	1	TREE	1502	5	1	n/a	n/a	n/a	n/a	n/a
