mstime	trial_type	stim_file	subject	experiment	session	trial	item_name	item_num	list	answer	test_x	test_y	test_z
0	SESS_START	n/a	LTP306	ltpFR2	12	n/a	n/a	n/a	n/a	n/a	0	0	0
134011	START	n/a	LTP306	ltpFR2	12	n/a	n/a	n/a	-1	n/a	n/a	n/a	n/a
134026	PROB	n/a	LTP306	ltpFR2	12	n/a	n/a	n/a	-1	12	5	2	5
135808	PROB	n/a	LTP306	ltpFR2	12	n/a	n/a	n/a	-1	8	5	2	1
137361	PROB	n/a	LTP306	ltpFR2	12	n/a	n/a	n/a	-1	12	1	4	7
139062	PROB	n/a	LTP306	ltpFR2	12	n/a	n/a	n/a	-1	13	8	2	3
140248	PROB	n/a	LTP306	ltpFR2	12	n/a	n/a	n/a	-1	12	3	2	7
141331	PROB	n/a	LTP306	ltpFR2	12	n/a	n/a	n/a	-1	10	4	5	1
142681	PROB	n/a	LTP306	ltpFR2	12	n/a	n/a	n/a	-1	12	3	2	7
146011	STOP	n/a	LTP306	ltpFR2	12	n/a	n/a	n/a	-1	n/a	n/a	n/a	n/a
179628	WORD	wordpools/wasnorm_wordpool_576.txt	LTP306	ltpFR2	12	1	FLIPPER	580	n/a	n/a	0	0	0
182046	WORD	wordpools/wasnorm_wordpool_576.txt	LTP306	ltpFR2	12	1	CRAB	397	n/a	n/a	0	0	0
184550	WORD	wordpools/wasnorm_wordpool_576.txt	LTP306	ltpFR2	12	1	BARLEY	88	n/a	n/a	0	0	0
187018	WORD	wordpools/wasnorm_wordpool_576.txt	LTP306	ltpFR2	12	1	PUDDLE	1140	n/a	n/a	0	0	0
189565	WORD	wordpools/wasnorm_wordpool_576.txt	LTP306	ltpFR2	12	1	RADISH	1158	n/a	n/a	0	0	0
192083	WORD	wordpools/wasnorm_wordpool_576.txt	LTP306	ltpFR2	12	1	GIRL	637	n/a	n/a	0	0	0
194791	WORD	wordpools/wasnorm_wordpool_576.txt	LTP306	ltpFR2	12	1	YOLK	1633	n/a	n/a	0	0	0
197339	WORD	wordpools/wasnorm_wordpool_576.txt	LTP306	ltpFR2	12	1	CHILD	299	n/a	n/a	0	0	0
199973	WORD	wordpools/wasnorm_wordpool_576.txt	LTP306	ltpFR2	12	1	RACKET	1155	n/a	n/a	0	0	0
202526	WORD	wordpools/wasnorm_wordpool_576.txt	LTP306	ltpFR2	12	1	NOVEL	960	n/a	n/a	0	0	0
205245	WORD	wordpools/wasnorm_wordpool_576.txt	LTP306	ltpFR2	12	1	MILDEW	893	n/a	n/a	0	0	0
207680	WORD	wordpools/wasnorm_wordpool_576.txt	LTP306	ltpFR2	12	1	CABBAGE	210	n/a	n/a	0	0	0
210434	WORD	wordpools/wasnorm_wordpool_576.txt	LTP306	ltpFR2	12	1	BABY	64	n/a	n/a	0	0	0
213185	WORD	wordpools/wasnorm_wordpool_576.txt	LTP306	ltpFR2	12	1	SHELF	1280	n/a	n/a	0	0	0
215655	WORD	wordpools/wasnorm_wordpool_576.txt	LTP306	ltpFR2	12	1	FRANCE	601	n/a	n/a	0	0	0
218323	WORD	wordpools/wasnorm_wordpool_576.txt	LTP306	ltpFR2	12	1	THREAD	1460	n/a	n/a	0	0	0
221028	WORD	wordpools/wasnorm_wordpool_576.txt	LTP306	ltpFR2	12	1	HUSBAND	728	n/a	n/a	0	0	0
223645	WORD	wordpools/wasnorm_wordpool_576.txt	LTP306	ltpFR2	12	1	GARBAGE	622	n/a	n/a	0	0	0
226264	WORD	wordpools/wasnorm_wordpool_576.txt	LTP306	ltpFR2	12	1	RUST	1219	n/a	n/a	0	0	0
228932	WORD	wordpools/wasnorm_wordpool_576.txt	LTP306	ltpFR2	12	1	RECORD	1176	n/a	n/a	0	0	0
231485	WORD	wordpools/wasnorm_wordpool_576.txt	LTP306	ltpFR2	12	1	CONCERT	360	n/a	n/a	0	0	0
234254	WORD	wordpools/wasnorm_wordpool_576.txt	LTP306	ltpFR2	12	1	GIFT	635	n/a	n/a	0	0	0
236906	WORD	wordpools/wasnorm_wordpool_576.txt	LTP306	ltpFR2	12	1	MEDAL	885	n/a	n/a	0	0	0
239409	WORD	wordpools/wasnorm_wordpool_576.txt	LTP306	ltpFR2	12	1	GHETTO	633	n/a	n/a	0	0	0
241026	START	n/a	LTP306	ltpFR2	12	n/a	n/a	n/a	1	n/a	n/a	n/a	n/a
242076	DISTRACTOR	n/a	LTP306	ltpFR2	12	1	n/a	n/a	n/a	n/a	0	0	0
242093	PROB	n/a	LTP306	ltpFR2	12	n/a	n/a	n/a	1	15	5	7	3
243647	PROB	n/a	LTP306	ltpFR2	12	n/a	n/a	n/a	1	17	8	3	4
245529	PROB	n/a	LTP306	ltpFR2	12	n/a	n/a	n/a	1	18	6	8	4
246982	PROB	n/a	LTP306	ltpFR2	12	n/a	n/a	n/a	1	13	2	9	2
249017	PROB	n/a	LTP306	ltpFR2	12	n/a	n/a	n/a	1	22	9	9	4
250418	PROB	n/a	LTP306	ltpFR2	12	n/a	n/a	n/a	1	20	9	2	9
252185	PROB	n/a	LTP306	ltpFR2	12	n/a	n/a	n/a	1	17	6	4	7
254054	PROB	n/a	LTP306	ltpFR2	12	n/a	n/a	n/a	1	9	2	1	6
255340	PROB	n/a	LTP306	ltpFR2	12	n/a	n/a	n/a	1	8	4	1	3
256805	PROB	n/a	LTP306	ltpFR2	12	n/a	n/a	n/a	1	18	4	7	7
258190	PROB	n/a	LTP306	ltpFR2	12	n/a	n/a	n/a	1	20	6	9	5
260344	PROB	n/a	LTP306	ltpFR2	12	n/a	n/a	n/a	1	19	7	8	4
262127	PROB	n/a	LTP306	ltpFR2	12	n/a	n/a	n/a	1	14	3	3	8
263862	STOP	n/a	LTP306	ltpFR2	12	n/a	n/a	n/a	1	n/a	n/a	n/a	n/a
266816	REC_START	n/a	LTP306	ltpFR2	12	1	n/a	n/a	n/a	n/a	0	0	0
268036	REC_WORD	wordpools/wasnorm_wordpool_576.txt	LTP306	ltpFR2	12	1	RUST	1219	n/a	n/a	0	0	0
269092	REC_WORD	wordpools/wasnorm_wordpool_576.txt	LTP306	ltpFR2	12	1	RECORD	1176	n/a	n/a	0	0	0
270123	REC_WORD	wordpools/wasnorm_wordpool_576.txt	LTP306	ltpFR2	12	1	CONCERT	360	n/a	n/a	0	0	0
271622	REC_WORD	wordpools/wasnorm_wordpool_576.txt	LTP306	ltpFR2	12	1	GIFT	635	n/a	n/a	0	0	0
272582	REC_WORD	wordpools/wasnorm_wordpool_576.txt	LTP306	ltpFR2	12	1	MEDAL	885	n/a	n/a	0	0	0
273597	REC_WORD	wordpools/wasnorm_wordpool_576.txt	LTP306	ltpFR2	12	1	GHETTO	633	n/a	n/a	0	0	0
275086	REC_WORD	wordpools/wasnorm_wordpool_576.txt	LTP306	ltpFR2	12	1	BABY	64	n/a	n/a	0	0	0
275979	REC_WORD	wordpools/wasnorm_wordpool_576.txt	LTP306	ltpFR2	12	1	SHELF	1280	n/a	n/a	0	0	0
276892	REC_WORD	wordpools/wasnorm_wordpool_576.txt	LTP306	ltpFR2	12	1	FRANCE	601	n/a	n/a	0	0	0
278491	REC_WORD	wordpools/wasnorm_wordpool_576.txt	LTP306	ltpFR2	12	1	YOLK	1633	n/a	n/a	0	0	0
279450	REC_WORD	wordpools/wasnorm_wordpool_576.txt	LTP306	ltpFR2	12	1	CHILD	299	n/a	n/a	0	0	0
280306	REC_WORD	wordpools/wasnorm_wordpool_576.txt	LTP306	ltpFR2	12	1	RACKET	1155	n/a	n/a	0	0	0
281935	REC_WORD	wordpools/wasnorm_wordpool_576.txt	LTP306	ltpFR2	12	1	PUDDLE	1140	n/a	n/a	0	0	0
282794	REC_WORD	wordpools/wasnorm_wordpool_576.txt	LTP306	ltpFR2	12	1	RADISH	1158	n/a	n/a	0	0	0
283898	REC_WORD	wordpools/wasnorm_wordpool_576.txt	LTP306	ltpFR2	12	1	GIRL	637	n/a	n/a	0	0	0
285266	REC_WORD	wordpools/wasnorm_wordpool_576.txt	LTP306	ltpFR2	12	1	NOVEL	960	n/a	n/a	0	0	0
286218	REC_WORD	wordpools/wasnorm_wordpool_576.txt	LTP306	ltpFR2	12	1	MILDEW	893	n/a	n/a	0	0	0
287242	REC_WORD	wordpools/wasnorm_wordpool_576.txt	LTP306	ltpFR2	12	1	CABBAGE	210	n/a	n/a	0	0	0
288632	REC_WORD	wordpools/wasnorm_wordpool_576.txt	LTP306	ltpFR2	12	1	FLIPPER	580	n/a	n/a	0	0	0
290003	REC_WORD	wordpools/wasnorm_wordpool_576.txt	LTP306	ltpFR2	12	1	CRAB	397	n/a	n/a	0	0	0
291138	REC_WORD	wordpools/wasnorm_wordpool_576.txt	LTP306	ltpFR2	12	1	BARLEY	88	n/a	n/a	0	0	0
357244	DISTRACTOR	n/a	LTP306	ltpFR2	12	2	n/a	n/a	n/a	n/a	0	0	0
357245	START	n/a	LTP306	ltpFR2	12	n/a	n/a	n/a	2	n/a	n/a	n/a	n/a
357260	PROB	n/a	LTP306	ltpFR2	12	n/a	n/a	n/a	2	8	1	2	5
358539	PROB	n/a	LTP306	ltpFR2	12	n/a	n/a	n/a	2	14	3	6	5
360573	PROB	n/a	LTP306	ltpFR2	12	n/a	n/a	n/a	2	7	2	3	2
362173	PROB	n/a	LTP306	ltpFR2	12	n/a	n/a	n/a	2	12	1	3	9
363726	PROB	n/a	LTP306	ltpFR2	12	n/a	n/a	n/a	2	22	5	9	8
367746	PROB	n/a	LTP306	ltpFR2	12	n/a	n/a	n/a	2	8	1	6	1
368780	PROB	n/a	LTP306	ltpFR2	12	n/a	n/a	n/a	2	8	2	3	3
369947	PROB	n/a	LTP306	ltpFR2	12	n/a	n/a	n/a	2	14	5	4	5
371048	PROB	n/a	LTP306	ltpFR2	12	n/a	n/a	n/a	2	17	8	5	4
372701	PROB	n/a	LTP306	ltpFR2	12	n/a	n/a	n/a	2	13	3	8	2
373984	PROB	n/a	LTP306	ltpFR2	12	n/a	n/a	n/a	2	14	3	6	5
375769	PROB	n/a	LTP306	ltpFR2	12	n/a	n/a	n/a	2	10	2	7	1
377220	PROB	n/a	LTP306	ltpFR2	12	n/a	n/a	n/a	2	15	6	6	3
378689	PROB	n/a	LTP306	ltpFR2	12	n/a	n/a	n/a	2	20	8	8	4
380067	STOP	n/a	LTP306	ltpFR2	12	n/a	n/a	n/a	2	n/a	n/a	n/a	n/a
382342	WORD	wordpools/wasnorm_wordpool_576.txt	LTP306	ltpFR2	12	2	FRECKLE	602	n/a	n/a	0	0	0
384868	WORD	wordpools/wasnorm_wordpool_576.txt	LTP306	ltpFR2	12	2	FOREHEAD	592	n/a	n/a	0	0	0
387537	WORD	wordpools/wasnorm_wordpool_576.txt	LTP306	ltpFR2	12	2	PEBBLE	1035	n/a	n/a	0	0	0
390164	WORD	wordpools/wasnorm_wordpool_576.txt	LTP306	ltpFR2	12	2	DONKEY	484	n/a	n/a	0	0	0
392866	WORD	wordpools/wasnorm_wordpool_576.txt	LTP306	ltpFR2	12	2	SHRUB	1299	n/a	n/a	0	0	0
395361	WORD	wordpools/wasnorm_wordpool_576.txt	LTP306	ltpFR2	12	2	SEAL	1262	n/a	n/a	0	0	0
397803	WORD	wordpools/wasnorm_wordpool_576.txt	LTP306	ltpFR2	12	2	ROBIN	1199	n/a	n/a	0	0	0
400499	WORD	wordpools/wasnorm_wordpool_576.txt	LTP306	ltpFR2	12	2	PLIERS	1089	n/a	n/a	0	0	0
403292	WORD	wordpools/wasnorm_wordpool_576.txt	LTP306	ltpFR2	12	2	ZIPPER	1636	n/a	n/a	0	0	0
406060	WORD	wordpools/wasnorm_wordpool_576.txt	LTP306	ltpFR2	12	2	GLOBE	641	n/a	n/a	0	0	0
408862	WORD	wordpools/wasnorm_wordpool_576.txt	LTP306	ltpFR2	12	2	HORSE	719	n/a	n/a	0	0	0
411499	WORD	wordpools/wasnorm_wordpool_576.txt	LTP306	ltpFR2	12	2	SURVEY	1414	n/a	n/a	0	0	0
413942	WORD	wordpools/wasnorm_wordpool_576.txt	LTP306	ltpFR2	12	2	FLASK	576	n/a	n/a	0	0	0
416563	WORD	wordpools/wasnorm_wordpool_576.txt	LTP306	ltpFR2	12	2	LADDER	793	n/a	n/a	0	0	0
419265	WORD	wordpools/wasnorm_wordpool_576.txt	LTP306	ltpFR2	12	2	PILOT	1070	n/a	n/a	0	0	0
421717	WORD	wordpools/wasnorm_wordpool_576.txt	LTP306	ltpFR2	12	2	BEAST	108	n/a	n/a	0	0	0
424353	WORD	wordpools/wasnorm_wordpool_576.txt	LTP306	ltpFR2	12	2	LACE	792	n/a	n/a	0	0	0
427110	WORD	wordpools/wasnorm_wordpool_576.txt	LTP306	ltpFR2	12	2	SKIRT	1319	n/a	n/a	0	0	0
429823	WORD	wordpools/wasnorm_wordpool_576.txt	LTP306	ltpFR2	12	2	CRICKET	408	n/a	n/a	0	0	0
432433	WORD	wordpools/wasnorm_wordpool_576.txt	LTP306	ltpFR2	12	2	PICNIC	1060	n/a	n/a	0	0	0
435111	WORD	wordpools/wasnorm_wordpool_576.txt	LTP306	ltpFR2	12	2	SHORTS	1293	n/a	n/a	0	0	0
437565	WORD	wordpools/wasnorm_wordpool_576.txt	LTP306	ltpFR2	12	2	PARENT	1013	n/a	n/a	0	0	0
440071	WORD	wordpools/wasnorm_wordpool_576.txt	LTP306	ltpFR2	12	2	TABLE	1426	n/a	n/a	0	0	0
442502	WORD	wordpools/wasnorm_wordpool_576.txt	LTP306	ltpFR2	12	2	STREAM	1392	n/a	n/a	0	0	0
444109	START	n/a	LTP306	ltpFR2	12	n/a	n/a	n/a	3	n/a	n/a	n/a	n/a
445027	DISTRACTOR	n/a	LTP306	ltpFR2	12	2	n/a	n/a	n/a	n/a	0	0	0
445037	PROB	n/a	LTP306	ltpFR2	12	n/a	n/a	n/a	3	20	6	9	5
447371	PROB	n/a	LTP306	ltpFR2	12	n/a	n/a	n/a	3	16	8	1	7
448928	PROB	n/a	LTP306	ltpFR2	12	n/a	n/a	n/a	3	21	7	5	9
450911	PROB	n/a	LTP306	ltpFR2	12	n/a	n/a	n/a	3	12	1	4	7
452297	PROB	n/a	LTP306	ltpFR2	12	n/a	n/a	n/a	3	19	2	9	8
453715	PROB	n/a	LTP306	ltpFR2	12	n/a	n/a	n/a	3	12	1	4	7
454911	PROB	n/a	LTP306	ltpFR2	12	n/a	n/a	n/a	3	13	1	7	5
456585	PROB	n/a	LTP306	ltpFR2	12	n/a	n/a	n/a	3	15	5	3	7
458601	PROB	n/a	LTP306	ltpFR2	12	n/a	n/a	n/a	3	25	9	9	7
459952	PROB	n/a	LTP306	ltpFR2	12	n/a	n/a	n/a	3	10	3	5	2
461222	PROB	n/a	LTP306	ltpFR2	12	n/a	n/a	n/a	3	22	9	8	5
464221	PROB	n/a	LTP306	ltpFR2	12	n/a	n/a	n/a	3	24	8	7	9
465921	PROB	n/a	LTP306	ltpFR2	12	n/a	n/a	n/a	3	11	1	8	2
467030	STOP	n/a	LTP306	ltpFR2	12	n/a	n/a	n/a	3	n/a	n/a	n/a	n/a
469959	REC_START	n/a	LTP306	ltpFR2	12	2	n/a	n/a	n/a	n/a	0	0	0
471225	REC_WORD	wordpools/wasnorm_wordpool_576.txt	LTP306	ltpFR2	12	2	CRICKET	408	n/a	n/a	0	0	0
472339	REC_WORD	wordpools/wasnorm_wordpool_576.txt	LTP306	ltpFR2	12	2	PICNIC	1060	n/a	n/a	0	0	0
473362	REC_WORD	wordpools/wasnorm_wordpool_576.txt	LTP306	ltpFR2	12	2	SHORTS	1293	n/a	n/a	0	0	0
474788	REC_WORD	wordpools/wasnorm_wordpool_576.txt	LTP306	ltpFR2	12	2	PARENT	1013	n/a	n/a	0	0	0
475787	REC_WORD	wordpools/wasnorm_wordpool_576.txt	LTP306	ltpFR2	12	2	TABLE	1426	n/a	n/a	0	0	0
476652	REC_WORD	wordpools/wasnorm_wordpool_576.txt	LTP306	ltpFR2	12	2	STREAM	1392	n/a	n/a	0	0	0
478134	REC_WORD	wordpools/wasnorm_wordpool_576.txt	LTP306	ltpFR2	12	2	ROBIN	1199	n/a	n/a	0	0	0
479441	REC_WORD	wordpools/wasnorm_wordpool_576.txt	LTP306	ltpFR2	12	2	PLIERS	1089	n/a	n/a	0	0	0
480550	REC_WORD	wordpools/wasnorm_wordpool_576.txt	LTP306	ltpFR2	12	2	ZIPPER	1636	n/a	n/a	0	0	0
482103	REC_WORD	wordpools/wasnorm_wordpool_576.txt	LTP306	ltpFR2	12	2	BEAST	108	n/a	n/a	0	0	0
483039	REC_WORD	wordpools/wasnorm_wordpool_576.txt	LTP306	ltpFR2	12	2	LACE	792	n/a	n/a	0	0	0
484248	REC_WORD	wordpools/wasnorm_wordpool_576.txt	LTP306	ltpFR2	12	2	SKIRT	1319	n/a	n/a	0	0	0
495873	REC_WORD	wordpools/wasnorm_wordpool_576.txt	LTP306	ltpFR2	12	2	DONKEY	484	n/a	n/a	0	0	0
496862	REC_WORD	wordpools/wasnorm_wordpool_576.txt	LTP306	ltpFR2	12	2	SHRUB	1299	n/a	n/a	0	0	0
497841	REC_WORD	wordpools/wasnorm_wordpool_576.txt	LTP306	ltpFR2	12	2	SEAL	1262	n/a	n/a	0	0	0
499231	REC_WORD	wordpools/wasnorm_wordpool_576.txt	LTP306	ltpFR2	12	2	FRECKLE	602	n/a	n/a	0	0	0
500321	REC_WORD	wordpools/wasnorm_wordpool_576.txt	LTP306	ltpFR2	12	2	FOREHEAD	592	n/a	n/a	0	0	0
501542	REC_WORD	wordpools/wasnorm_wordpool_576.txt	LTP306	ltpFR2	12	2	PEBBLE	1035	n/a	n/a	0	0	0
560400	WORD	wordpools/wasnorm_wordpool_576.txt	LTP306	ltpFR2	12	3	STOVE	1388	n/a	n/a	0	0	0
563035	WORD	wordpools/wasnorm_wordpool_576.txt	LTP306	ltpFR2	12	3	SKILLET	1317	n/a	n/a	0	0	0
565588	WORD	wordpools/wasnorm_wordpool_576.txt	LTP306	ltpFR2	12	3	CONTRACT	368	n/a	n/a	0	0	0
568107	WORD	wordpools/wasnorm_wordpool_576.txt	LTP306	ltpFR2	12	3	BLOCKADE	137	n/a	n/a	0	0	0
570726	WORD	wordpools/wasnorm_wordpool_576.txt	LTP306	ltpFR2	12	3	PEPPER	1047	n/a	n/a	0	0	0
573216	WORD	wordpools/wasnorm_wordpool_576.txt	LTP306	ltpFR2	12	3	CLOUD	328	n/a	n/a	0	0	0
575868	WORD	wordpools/wasnorm_wordpool_576.txt	LTP306	ltpFR2	12	3	SHIRT	1287	n/a	n/a	0	0	0
578549	WORD	wordpools/wasnorm_wordpool_576.txt	LTP306	ltpFR2	12	3	GUITAR	670	n/a	n/a	0	0	0
581257	WORD	wordpools/wasnorm_wordpool_576.txt	LTP306	ltpFR2	12	3	LAVA	804	n/a	n/a	0	0	0
583902	WORD	wordpools/wasnorm_wordpool_576.txt	LTP306	ltpFR2	12	3	SALT	1229	n/a	n/a	0	0	0
586322	WORD	wordpools/wasnorm_wordpool_576.txt	LTP306	ltpFR2	12	3	REPORT	1184	n/a	n/a	0	0	0
588812	WORD	wordpools/wasnorm_wordpool_576.txt	LTP306	ltpFR2	12	3	DASHBOARD	441	n/a	n/a	0	0	0
591275	WORD	wordpools/wasnorm_wordpool_576.txt	LTP306	ltpFR2	12	3	CASHIER	254	n/a	n/a	0	0	0
593745	WORD	wordpools/wasnorm_wordpool_576.txt	LTP306	ltpFR2	12	3	SNAIL	1332	n/a	n/a	0	0	0
596303	WORD	wordpools/wasnorm_wordpool_576.txt	LTP306	ltpFR2	12	3	CRUTCH	417	n/a	n/a	0	0	0
598921	WORD	wordpools/wasnorm_wordpool_576.txt	LTP306	ltpFR2	12	3	ULCER	1533	n/a	n/a	0	0	0
601708	WORD	wordpools/wasnorm_wordpool_576.txt	LTP306	ltpFR2	12	3	ICEBERG	731	n/a	n/a	0	0	0
604376	WORD	wordpools/wasnorm_wordpool_576.txt	LTP306	ltpFR2	12	3	DRAWING	494	n/a	n/a	0	0	0
607171	WORD	wordpools/wasnorm_wordpool_576.txt	LTP306	ltpFR2	12	3	PUDDING	1139	n/a	n/a	0	0	0
609923	WORD	wordpools/wasnorm_wordpool_576.txt	LTP306	ltpFR2	12	3	LIGHTNING	820	n/a	n/a	0	0	0
612367	WORD	wordpools/wasnorm_wordpool_576.txt	LTP306	ltpFR2	12	3	CLIMBER	323	n/a	n/a	0	0	0
615162	WORD	wordpools/wasnorm_wordpool_576.txt	LTP306	ltpFR2	12	3	MOP	916	n/a	n/a	0	0	0
617605	WORD	wordpools/wasnorm_wordpool_576.txt	LTP306	ltpFR2	12	3	BRACES	164	n/a	n/a	0	0	0
620357	WORD	wordpools/wasnorm_wordpool_576.txt	LTP306	ltpFR2	12	3	DENTIST	447	n/a	n/a	0	0	0
621967	START	n/a	LTP306	ltpFR2	12	n/a	n/a	n/a	4	n/a	n/a	n/a	n/a
622906	DISTRACTOR	n/a	LTP306	ltpFR2	12	3	n/a	n/a	n/a	n/a	0	0	0
622918	PROB	n/a	LTP306	ltpFR2	12	n/a	n/a	n/a	4	21	8	6	7
624685	PROB	n/a	LTP306	ltpFR2	12	n/a	n/a	n/a	4	15	7	5	3
625885	PROB	n/a	LTP306	ltpFR2	12	n/a	n/a	n/a	4	13	3	9	1
627086	PROB	n/a	LTP306	ltpFR2	12	n/a	n/a	n/a	4	14	2	3	9
629155	PROB	n/a	LTP306	ltpFR2	12	n/a	n/a	n/a	4	15	6	4	5
630340	PROB	n/a	LTP306	ltpFR2	12	n/a	n/a	n/a	4	6	1	3	2
631541	PROB	n/a	LTP306	ltpFR2	12	n/a	n/a	n/a	4	11	7	2	2
632823	PROB	n/a	LTP306	ltpFR2	12	n/a	n/a	n/a	4	12	4	2	6
634393	PROB	n/a	LTP306	ltpFR2	12	n/a	n/a	n/a	4	16	4	4	8
636143	PROB	n/a	LTP306	ltpFR2	12	n/a	n/a	n/a	4	18	8	7	3
637596	PROB	n/a	LTP306	ltpFR2	12	n/a	n/a	n/a	4	23	8	7	8
639347	PROB	n/a	LTP306	ltpFR2	12	n/a	n/a	n/a	4	13	3	3	7
640632	PROB	n/a	LTP306	ltpFR2	12	n/a	n/a	n/a	4	21	9	6	6
641966	PROB	n/a	LTP306	ltpFR2	12	n/a	n/a	n/a	4	20	3	8	9
644066	PROB	n/a	LTP306	ltpFR2	12	n/a	n/a	n/a	4	16	6	5	5
645149	STOP	n/a	LTP306	ltpFR2	12	n/a	n/a	n/a	4	n/a	n/a	n/a	n/a
647754	REC_START	n/a	LTP306	ltpFR2	12	3	n/a	n/a	n/a	n/a	0	0	0
648485	REC_WORD	wordpools/wasnorm_wordpool_576.txt	LTP306	ltpFR2	12	3	MOP	916	n/a	n/a	0	0	0
649767	REC_WORD	wordpools/wasnorm_wordpool_576.txt	LTP306	ltpFR2	12	3	BRACES	164	n/a	n/a	0	0	0
651059	REC_WORD	wordpools/wasnorm_wordpool_576.txt	LTP306	ltpFR2	12	3	DENTIST	447	n/a	n/a	0	0	0
652798	REC_WORD	wordpools/wasnorm_wordpool_576.txt	LTP306	ltpFR2	12	3	ULCER	1533	n/a	n/a	0	0	0
654096	REC_WORD	wordpools/wasnorm_wordpool_576.txt	LTP306	ltpFR2	12	3	ICEBERG	731	n/a	n/a	0	0	0
655544	REC_WORD	wordpools/wasnorm_wordpool_576.txt	LTP306	ltpFR2	12	3	DRAWING	494	n/a	n/a	0	0	0
657604	REC_WORD	wordpools/wasnorm_wordpool_576.txt	LTP306	ltpFR2	12	3	BLOCKADE	137	n/a	n/a	0	0	0
659497	REC_WORD	wordpools/wasnorm_wordpool_576.txt	LTP306	ltpFR2	12	3	PEPPER	1047	n/a	n/a	0	0	0
663835	REC_WORD	wordpools/wasnorm_wordpool_576.txt	LTP306	ltpFR2	12	3	CLOUD	328	n/a	n/a	0	0	0
665619	REC_WORD	wordpools/wasnorm_wordpool_576.txt	LTP306	ltpFR2	12	3	CASHIER	254	n/a	n/a	0	0	0
666833	REC_WORD	wordpools/wasnorm_wordpool_576.txt	LTP306	ltpFR2	12	3	SNAIL	1332	n/a	n/a	0	0	0
668046	REC_WORD	wordpools/wasnorm_wordpool_576.txt	LTP306	ltpFR2	12	3	CRUTCH	417	n/a	n/a	0	0	0
669933	REC_WORD	wordpools/wasnorm_wordpool_576.txt	LTP306	ltpFR2	12	3	SALT	1229	n/a	n/a	0	0	0
670852	REC_WORD	wordpools/wasnorm_wordpool_576.txt	LTP306	ltpFR2	12	3	REPORT	1184	n/a	n/a	0	0	0
671974	REC_WORD	wordpools/wasnorm_wordpool_576.txt	LTP306	ltpFR2	12	3	DASHBOARD	441	n/a	n/a	0	0	0
673692	REC_WORD	wordpools/wasnorm_wordpool_576.txt	LTP306	ltpFR2	12	3	STOVE	1388	n/a	n/a	0	0	0
674692	REC_WORD_VV	wordpools/wasnorm_wordpool_576.txt	LTP306	ltpFR2	12	3	<>	-1	n/a	n/a	0	0	0
675471	REC_WORD	wordpools/wasnorm_wordpool_576.txt	LTP306	ltpFR2	12	3	SKILLET	1317	n/a	n/a	0	0	0
676746	REC_WORD	wordpools/wasnorm_wordpool_576.txt	LTP306	ltpFR2	12	3	CONTRACT	368	n/a	n/a	0	0	0
738210	DISTRACTOR	n/a	LTP306	ltpFR2	12	4	n/a	n/a	n/a	n/a	0	0	0
738210	START	n/a	LTP306	ltpFR2	12	n/a	n/a	n/a	5	n/a	n/a	n/a	n/a
738228	PROB	n/a	LTP306	ltpFR2	12	n/a	n/a	n/a	5	15	7	5	3
739462	PROB	n/a	LTP306	ltpFR2	12	n/a	n/a	n/a	5	16	5	6	6
740928	PROB	n/a	LTP306	ltpFR2	12	n/a	n/a	n/a	5	23	8	7	8
743080	PROB	n/a	LTP306	ltpFR2	12	n/a	n/a	n/a	5	18	9	5	4
744782	PROB	n/a	LTP306	ltpFR2	12	n/a	n/a	n/a	5	11	2	4	5
746132	PROB	n/a	LTP306	ltpFR2	12	n/a	n/a	n/a	5	17	5	6	6
748435	PROB	n/a	LTP306	ltpFR2	12	n/a	n/a	n/a	5	13	7	5	1
750587	PROB	n/a	LTP306	ltpFR2	12	n/a	n/a	n/a	5	10	6	1	3
751903	PROB	n/a	LTP306	ltpFR2	12	n/a	n/a	n/a	5	20	7	5	8
753739	PROB	n/a	LTP306	ltpFR2	12	n/a	n/a	n/a	5	19	7	9	3
755239	PROB	n/a	LTP306	ltpFR2	12	n/a	n/a	n/a	5	19	4	8	7
757124	PROB	n/a	LTP306	ltpFR2	12	n/a	n/a	n/a	5	18	8	8	2
758443	PROB	n/a	LTP306	ltpFR2	12	n/a	n/a	n/a	5	21	8	8	5
759792	PROB	n/a	LTP306	ltpFR2	12	n/a	n/a	n/a	5	10	1	5	4
760970	STOP	n/a	LTP306	ltpFR2	12	n/a	n/a	n/a	5	n/a	n/a	n/a	n/a
763333	WORD	wordpools/wasnorm_wordpool_576.txt	LTP306	ltpFR2	12	4	FUNGUS	614	n/a	n/a	0	0	0
765782	WORD	wordpools/wasnorm_wordpool_576.txt	LTP306	ltpFR2	12	4	HOUND	724	n/a	n/a	0	0	0
768484	WORD	wordpools/wasnorm_wordpool_576.txt	LTP306	ltpFR2	12	4	GRAPE	654	n/a	n/a	0	0	0
771271	WORD	wordpools/wasnorm_wordpool_576.txt	LTP306	ltpFR2	12	4	JUDGE	761	n/a	n/a	0	0	0
773972	WORD	wordpools/wasnorm_wordpool_576.txt	LTP306	ltpFR2	12	4	LIPSTICK	829	n/a	n/a	0	0	0
776558	WORD	wordpools/wasnorm_wordpool_576.txt	LTP306	ltpFR2	12	4	INMATE	738	n/a	n/a	0	0	0
779076	WORD	wordpools/wasnorm_wordpool_576.txt	LTP306	ltpFR2	12	4	SODA	1341	n/a	n/a	0	0	0
781829	WORD	wordpools/wasnorm_wordpool_576.txt	LTP306	ltpFR2	12	4	POWDER	1117	n/a	n/a	0	0	0
784280	WORD	wordpools/wasnorm_wordpool_576.txt	LTP306	ltpFR2	12	4	WINDOW	1611	n/a	n/a	0	0	0
786733	WORD	wordpools/wasnorm_wordpool_576.txt	LTP306	ltpFR2	12	4	JURY	766	n/a	n/a	0	0	0
789218	WORD	wordpools/wasnorm_wordpool_576.txt	LTP306	ltpFR2	12	4	PLASTER	1085	n/a	n/a	0	0	0
791786	WORD	wordpools/wasnorm_wordpool_576.txt	LTP306	ltpFR2	12	4	TRANSPLANT	1496	n/a	n/a	0	0	0
794356	WORD	wordpools/wasnorm_wordpool_576.txt	LTP306	ltpFR2	12	4	LIVER	833	n/a	n/a	0	0	0
797056	WORD	wordpools/wasnorm_wordpool_576.txt	LTP306	ltpFR2	12	4	BELLY	119	n/a	n/a	0	0	0
799609	WORD	wordpools/wasnorm_wordpool_576.txt	LTP306	ltpFR2	12	4	BARREL	91	n/a	n/a	0	0	0
802127	WORD	wordpools/wasnorm_wordpool_576.txt	LTP306	ltpFR2	12	4	SLIME	1327	n/a	n/a	0	0	0
804564	WORD	wordpools/wasnorm_wordpool_576.txt	LTP306	ltpFR2	12	4	LADY	794	n/a	n/a	0	0	0
807333	WORD	wordpools/wasnorm_wordpool_576.txt	LTP306	ltpFR2	12	4	WOMAN	1620	n/a	n/a	0	0	0
810051	WORD	wordpools/wasnorm_wordpool_576.txt	LTP306	ltpFR2	12	4	PIGEON	1065	n/a	n/a	0	0	0
812720	WORD	wordpools/wasnorm_wordpool_576.txt	LTP306	ltpFR2	12	4	LEG	809	n/a	n/a	0	0	0
815154	WORD	wordpools/wasnorm_wordpool_576.txt	LTP306	ltpFR2	12	4	FOOT	590	n/a	n/a	0	0	0
817773	WORD	wordpools/wasnorm_wordpool_576.txt	LTP306	ltpFR2	12	4	OUTLAW	989	n/a	n/a	0	0	0
820281	WORD	wordpools/wasnorm_wordpool_576.txt	LTP306	ltpFR2	12	4	PATROL	1027	n/a	n/a	0	0	0
822794	WORD	wordpools/wasnorm_wordpool_576.txt	LTP306	ltpFR2	12	4	BRIEFCASE	175	n/a	n/a	0	0	0
824402	START	n/a	LTP306	ltpFR2	12	n/a	n/a	n/a	6	n/a	n/a	n/a	n/a
825300	DISTRACTOR	n/a	LTP306	ltpFR2	12	4	n/a	n/a	n/a	n/a	0	0	0
825313	PROB	n/a	LTP306	ltpFR2	12	n/a	n/a	n/a	6	19	7	4	8
827147	PROB	n/a	LTP306	ltpFR2	12	n/a	n/a	n/a	6	7	4	2	1
829417	PROB	n/a	LTP306	ltpFR2	12	n/a	n/a	n/a	6	17	8	3	6
831133	PROB	n/a	LTP306	ltpFR2	12	n/a	n/a	n/a	6	10	2	7	1
832218	PROB	n/a	LTP306	ltpFR2	12	n/a	n/a	n/a	6	18	6	7	5
834002	PROB	n/a	LTP306	ltpFR2	12	n/a	n/a	n/a	6	13	2	8	3
835152	PROB	n/a	LTP306	ltpFR2	12	n/a	n/a	n/a	6	17	6	7	4
836787	PROB	n/a	LTP306	ltpFR2	12	n/a	n/a	n/a	6	8	1	5	2
839340	PROB	n/a	LTP306	ltpFR2	12	n/a	n/a	n/a	6	8	6	1	1
840374	PROB	n/a	LTP306	ltpFR2	12	n/a	n/a	n/a	6	16	4	9	3
842058	PROB	n/a	LTP306	ltpFR2	12	n/a	n/a	n/a	6	17	8	7	2
843510	PROB	n/a	LTP306	ltpFR2	12	n/a	n/a	n/a	6	16	7	6	3
845397	PROB	n/a	LTP306	ltpFR2	12	n/a	n/a	n/a	6	17	4	8	5
847133	STOP	n/a	LTP306	ltpFR2	12	n/a	n/a	n/a	6	n/a	n/a	n/a	n/a
850183	REC_START	n/a	LTP306	ltpFR2	12	4	n/a	n/a	n/a	n/a	0	0	0
852052	REC_WORD	wordpools/wasnorm_wordpool_576.txt	LTP306	ltpFR2	12	4	PATROL	1027	n/a	n/a	0	0	0
853449	REC_WORD	wordpools/wasnorm_wordpool_576.txt	LTP306	ltpFR2	12	4	OUTLAW	989	n/a	n/a	0	0	0
854572	REC_WORD	wordpools/wasnorm_wordpool_576.txt	LTP306	ltpFR2	12	4	BRIEFCASE	175	n/a	n/a	0	0	0
856578	REC_WORD	wordpools/wasnorm_wordpool_576.txt	LTP306	ltpFR2	12	4	JURY	766	n/a	n/a	0	0	0
859027	REC_WORD	wordpools/wasnorm_wordpool_576.txt	LTP306	ltpFR2	12	4	PLASTER	1085	n/a	n/a	0	0	0
861018	REC_WORD	wordpools/wasnorm_wordpool_576.txt	LTP306	ltpFR2	12	4	TRANSPLANT	1496	n/a	n/a	0	0	0
862690	REC_WORD	wordpools/wasnorm_wordpool_576.txt	LTP306	ltpFR2	12	4	LIVER	833	n/a	n/a	0	0	0
864077	REC_WORD	wordpools/wasnorm_wordpool_576.txt	LTP306	ltpFR2	12	4	BELLY	119	n/a	n/a	0	0	0
865246	REC_WORD	wordpools/wasnorm_wordpool_576.txt	LTP306	ltpFR2	12	4	BARREL	91	n/a	n/a	0	0	0
866736	REC_WORD	wordpools/wasnorm_wordpool_576.txt	LTP306	ltpFR2	12	4	JUDGE	761	n/a	n/a	0	0	0
867778	REC_WORD	wordpools/wasnorm_wordpool_576.txt	LTP306	ltpFR2	12	4	LIPSTICK	829	n/a	n/a	0	0	0
869024	REC_WORD	wordpools/wasnorm_wordpool_576.txt	LTP306	ltpFR2	12	4	INMATE	738	n/a	n/a	0	0	0
878280	REC_WORD	wordpools/wasnorm_wordpool_576.txt	LTP306	ltpFR2	12	4	FUNGUS	614	n/a	n/a	0	0	0
879906	REC_WORD	wordpools/wasnorm_wordpool_576.txt	LTP306	ltpFR2	12	4	HOUND	724	n/a	n/a	0	0	0
881432	REC_WORD	wordpools/wasnorm_wordpool_576.txt	LTP306	ltpFR2	12	4	GRAPE	654	n/a	n/a	0	0	0
882945	REC_WORD	wordpools/wasnorm_wordpool_576.txt	LTP306	ltpFR2	12	4	LADY	794	n/a	n/a	0	0	0
884235	REC_WORD	wordpools/wasnorm_wordpool_576.txt	LTP306	ltpFR2	12	4	SLIME	1327	n/a	n/a	0	0	0
885627	REC_WORD	wordpools/wasnorm_wordpool_576.txt	LTP306	ltpFR2	12	4	WOMAN	1620	n/a	n/a	0	0	0
887193	REC_WORD	wordpools/wasnorm_wordpool_576.txt	LTP306	ltpFR2	12	4	PIGEON	1065	n/a	n/a	0	0	0
888453	REC_WORD	wordpools/wasnorm_wordpool_576.txt	LTP306	ltpFR2	12	4	FOOT	590	n/a	n/a	0	0	0
889888	REC_WORD	wordpools/wasnorm_wordpool_576.txt	LTP306	ltpFR2	12	4	LEG	809	n/a	n/a	0	0	0
1009161	DISTRACTOR	n/a	LTP306	ltpFR2	12	5	n/a	n/a	n/a	n/a	0	0	0
1009161	START	n/a	LTP306	ltpFR2	12	n/a	n/a	n/a	7	n/a	n/a	n/a	n/a
1009176	PROB	n/a	LTP306	ltpFR2	12	n/a	n/a	n/a	7	13	8	2	3
1010496	PROB	n/a	LTP306	ltpFR2	12	n/a	n/a	n/a	7	13	6	4	3
1011679	PROB	n/a	LTP306	ltpFR2	12	n/a	n/a	n/a	7	18	6	5	7
1013330	PROB	n/a	LTP306	ltpFR2	12	n/a	n/a	n/a	7	14	2	3	9
1015565	PROB	n/a	LTP306	ltpFR2	12	n/a	n/a	n/a	7	15	7	1	7
1016782	PROB	n/a	LTP306	ltpFR2	12	n/a	n/a	n/a	7	7	2	4	1
1018034	PROB	n/a	LTP306	ltpFR2	12	n/a	n/a	n/a	7	21	8	9	4
1019786	PROB	n/a	LTP306	ltpFR2	12	n/a	n/a	n/a	7	17	8	8	1
1021068	PROB	n/a	LTP306	ltpFR2	12	n/a	n/a	n/a	7	16	4	5	7
1022970	PROB	n/a	LTP306	ltpFR2	12	n/a	n/a	n/a	7	24	9	6	9
1025121	PROB	n/a	LTP306	ltpFR2	12	n/a	n/a	n/a	7	17	5	6	6
1027292	PROB	n/a	LTP306	ltpFR2	12	n/a	n/a	n/a	7	12	2	4	6
1028559	PROB	n/a	LTP306	ltpFR2	12	n/a	n/a	n/a	7	26	9	9	8
1030460	PROB	n/a	LTP306	ltpFR2	12	n/a	n/a	n/a	7	11	2	7	2
1031924	STOP	n/a	LTP306	ltpFR2	12	n/a	n/a	n/a	7	n/a	n/a	n/a	n/a
1034080	WORD	wordpools/wasnorm_wordpool_576.txt	LTP306	ltpFR2	12	5	FIREPLACE	570	n/a	n/a	0	0	0
1036782	WORD	wordpools/wasnorm_wordpool_576.txt	LTP306	ltpFR2	12	5	SHELTER	1282	n/a	n/a	0	0	0
1039489	WORD	wordpools/wasnorm_wordpool_576.txt	LTP306	ltpFR2	12	5	OINTMENT	974	n/a	n/a	0	0	0
1042140	WORD	wordpools/wasnorm_wordpool_576.txt	LTP306	ltpFR2	12	5	CHURCH	307	n/a	n/a	0	0	0
1044839	WORD	wordpools/wasnorm_wordpool_576.txt	LTP306	ltpFR2	12	5	BREAST	171	n/a	n/a	0	0	0
1047413	WORD	wordpools/wasnorm_wordpool_576.txt	LTP306	ltpFR2	12	5	CITRUS	313	n/a	n/a	0	0	0
1050043	WORD	wordpools/wasnorm_wordpool_576.txt	LTP306	ltpFR2	12	5	PAPER	1011	n/a	n/a	0	0	0
1052530	WORD	wordpools/wasnorm_wordpool_576.txt	LTP306	ltpFR2	12	5	NOTEBOOK	959	n/a	n/a	0	0	0
1055281	WORD	wordpools/wasnorm_wordpool_576.txt	LTP306	ltpFR2	12	5	COOKBOOK	373	n/a	n/a	0	0	0
1058038	WORD	wordpools/wasnorm_wordpool_576.txt	LTP306	ltpFR2	12	5	PERFUME	1049	n/a	n/a	0	0	0
1060707	WORD	wordpools/wasnorm_wordpool_576.txt	LTP306	ltpFR2	12	5	BOUQUET	157	n/a	n/a	0	0	0
1063209	WORD	wordpools/wasnorm_wordpool_576.txt	LTP306	ltpFR2	12	5	COLONEL	348	n/a	n/a	0	0	0
1065745	WORD	wordpools/wasnorm_wordpool_576.txt	LTP306	ltpFR2	12	5	MISTER	901	n/a	n/a	0	0	0
1068458	WORD	wordpools/wasnorm_wordpool_576.txt	LTP306	ltpFR2	12	5	NURSE	963	n/a	n/a	0	0	0
1070932	WORD	wordpools/wasnorm_wordpool_576.txt	LTP306	ltpFR2	12	5	LUMBER	848	n/a	n/a	0	0	0
1073445	WORD	wordpools/wasnorm_wordpool_576.txt	LTP306	ltpFR2	12	5	OUTDOORS	987	n/a	n/a	0	0	0
1076164	WORD	wordpools/wasnorm_wordpool_576.txt	LTP306	ltpFR2	12	5	BRANDY	169	n/a	n/a	0	0	0
1078600	WORD	wordpools/wasnorm_wordpool_576.txt	LTP306	ltpFR2	12	5	BANK	83	n/a	n/a	0	0	0
1081308	WORD	wordpools/wasnorm_wordpool_576.txt	LTP306	ltpFR2	12	5	LUNCH	849	n/a	n/a	0	0	0
1084077	WORD	wordpools/wasnorm_wordpool_576.txt	LTP306	ltpFR2	12	5	PROTON	1132	n/a	n/a	0	0	0
1086590	WORD	wordpools/wasnorm_wordpool_576.txt	LTP306	ltpFR2	12	5	HOOK	715	n/a	n/a	0	0	0
1089315	WORD	wordpools/wasnorm_wordpool_576.txt	LTP306	ltpFR2	12	5	SCALLOP	1242	n/a	n/a	0	0	0
1092000	WORD	wordpools/wasnorm_wordpool_576.txt	LTP306	ltpFR2	12	5	PISTOL	1075	n/a	n/a	0	0	0
1094497	WORD	wordpools/wasnorm_wordpool_576.txt	LTP306	ltpFR2	12	5	LONDON	843	n/a	n/a	0	0	0
1096104	START	n/a	LTP306	ltpFR2	12	n/a	n/a	n/a	8	n/a	n/a	n/a	n/a
1096943	DISTRACTOR	n/a	LTP306	ltpFR2	12	5	n/a	n/a	n/a	n/a	0	0	0
1096948	PROB	n/a	LTP306	ltpFR2	12	n/a	n/a	n/a	8	15	6	8	1
1099915	PROB	n/a	LTP306	ltpFR2	12	n/a	n/a	n/a	8	13	3	4	6
1101800	PROB	n/a	LTP306	ltpFR2	12	n/a	n/a	n/a	8	23	7	9	7
1104201	PROB	n/a	LTP306	ltpFR2	12	n/a	n/a	n/a	8	12	2	2	8
1106055	PROB	n/a	LTP306	ltpFR2	12	n/a	n/a	n/a	8	10	3	2	5
1107506	PROB	n/a	LTP306	ltpFR2	12	n/a	n/a	n/a	8	17	4	6	7
1108822	PROB	n/a	LTP306	ltpFR2	12	n/a	n/a	n/a	8	17	2	7	8
1110858	PROB	n/a	LTP306	ltpFR2	12	n/a	n/a	n/a	8	16	2	9	5
1112726	PROB	n/a	LTP306	ltpFR2	12	n/a	n/a	n/a	8	12	4	6	2
1113861	PROB	n/a	LTP306	ltpFR2	12	n/a	n/a	n/a	8	18	1	8	9
1115263	PROB	n/a	LTP306	ltpFR2	12	n/a	n/a	n/a	8	18	3	8	7
1116514	PROB	n/a	LTP306	ltpFR2	12	n/a	n/a	n/a	8	14	9	1	4
1117665	PROB	n/a	LTP306	ltpFR2	12	n/a	n/a	n/a	8	22	8	7	7
1119385	STOP	n/a	LTP306	ltpFR2	12	n/a	n/a	n/a	8	n/a	n/a	n/a	n/a
1121902	REC_START	n/a	LTP306	ltpFR2	12	5	n/a	n/a	n/a	n/a	0	0	0
1122875	REC_WORD	wordpools/wasnorm_wordpool_576.txt	LTP306	ltpFR2	12	5	FIREPLACE	570	n/a	n/a	0	0	0
1124464	REC_WORD	wordpools/wasnorm_wordpool_576.txt	LTP306	ltpFR2	12	5	SHELTER	1282	n/a	n/a	0	0	0
1125803	REC_WORD	wordpools/wasnorm_wordpool_576.txt	LTP306	ltpFR2	12	5	OINTMENT	974	n/a	n/a	0	0	0
1127177	REC_WORD	wordpools/wasnorm_wordpool_576.txt	LTP306	ltpFR2	12	5	SCALLOP	1242	n/a	n/a	0	0	0
1128667	REC_WORD	wordpools/wasnorm_wordpool_576.txt	LTP306	ltpFR2	12	5	PISTOL	1075	n/a	n/a	0	0	0
1129773	REC_WORD	wordpools/wasnorm_wordpool_576.txt	LTP306	ltpFR2	12	5	LONDON	843	n/a	n/a	0	0	0
1131642	REC_WORD	wordpools/wasnorm_wordpool_576.txt	LTP306	ltpFR2	12	5	BRANDY	169	n/a	n/a	0	0	0
1132910	REC_WORD	wordpools/wasnorm_wordpool_576.txt	LTP306	ltpFR2	12	5	OUTDOORS	987	n/a	n/a	0	0	0
1134288	REC_WORD	wordpools/wasnorm_wordpool_576.txt	LTP306	ltpFR2	12	5	BANK	83	n/a	n/a	0	0	0
1135441	REC_WORD	wordpools/wasnorm_wordpool_576.txt	LTP306	ltpFR2	12	5	MISTER	901	n/a	n/a	0	0	0
1136783	REC_WORD	wordpools/wasnorm_wordpool_576.txt	LTP306	ltpFR2	12	5	NURSE	963	n/a	n/a	0	0	0
1137878	REC_WORD	wordpools/wasnorm_wordpool_576.txt	LTP306	ltpFR2	12	5	LUMBER	848	n/a	n/a	0	0	0
1140328	REC_WORD	wordpools/wasnorm_wordpool_576.txt	LTP306	ltpFR2	12	5	LUNCH	849	n/a	n/a	0	0	0
1145153	REC_WORD	wordpools/wasnorm_wordpool_576.txt	LTP306	ltpFR2	12	5	CHURCH	307	n/a	n/a	0	0	0
1146462	REC_WORD	wordpools/wasnorm_wordpool_576.txt	LTP306	ltpFR2	12	5	BREAST	171	n/a	n/a	0	0	0
1147391	REC_WORD	wordpools/wasnorm_wordpool_576.txt	LTP306	ltpFR2	12	5	CITRUS	313	n/a	n/a	0	0	0
1212357	DISTRACTOR	n/a	LTP306	ltpFR2	12	6	n/a	n/a	n/a	n/a	0	0	0
1212357	START	n/a	LTP306	ltpFR2	12	n/a	n/a	n/a	9	n/a	n/a	n/a	n/a
1212373	PROB	n/a	LTP306	ltpFR2	12	n/a	n/a	n/a	9	17	2	6	9
1214424	PROB	n/a	LTP306	ltpFR2	12	n/a	n/a	n/a	9	17	4	8	5
1216575	PROB	n/a	LTP306	ltpFR2	12	n/a	n/a	n/a	9	18	7	6	5
1218478	PROB	n/a	LTP306	ltpFR2	12	n/a	n/a	n/a	9	17	5	7	5
1219844	PROB	n/a	LTP306	ltpFR2	12	n/a	n/a	n/a	9	6	3	2	1
1221130	PROB	n/a	LTP306	ltpFR2	12	n/a	n/a	n/a	9	10	2	1	7
1222566	PROB	n/a	LTP306	ltpFR2	12	n/a	n/a	n/a	9	17	4	5	8
1223915	PROB	n/a	LTP306	ltpFR2	12	n/a	n/a	n/a	9	23	8	8	7
1225435	PROB	n/a	LTP306	ltpFR2	12	n/a	n/a	n/a	9	13	3	6	4
1226752	PROB	n/a	LTP306	ltpFR2	12	n/a	n/a	n/a	9	16	5	9	2
1228621	PROB	n/a	LTP306	ltpFR2	12	n/a	n/a	n/a	9	14	7	4	3
1230103	PROB	n/a	LTP306	ltpFR2	12	n/a	n/a	n/a	9	5	1	2	2
1231204	PROB	n/a	LTP306	ltpFR2	12	n/a	n/a	n/a	9	9	5	1	3
1232574	PROB	n/a	LTP306	ltpFR2	12	n/a	n/a	n/a	9	9	2	2	5
1233657	PROB	n/a	LTP306	ltpFR2	12	n/a	n/a	n/a	9	17	5	3	9
1235214	STOP	n/a	LTP306	ltpFR2	12	n/a	n/a	n/a	9	n/a	n/a	n/a	n/a
1237394	WORD	wordpools/wasnorm_wordpool_576.txt	LTP306	ltpFR2	12	6	MEAT	883	n/a	n/a	0	0	0
1240179	WORD	wordpools/wasnorm_wordpool_576.txt	LTP306	ltpFR2	12	6	LEADER	807	n/a	n/a	0	0	0
1242732	WORD	wordpools/wasnorm_wordpool_576.txt	LTP306	ltpFR2	12	6	VALLEY	1545	n/a	n/a	0	0	0
1245384	WORD	wordpools/wasnorm_wordpool_576.txt	LTP306	ltpFR2	12	6	MASK	876	n/a	n/a	0	0	0
1248086	WORD	wordpools/wasnorm_wordpool_576.txt	LTP306	ltpFR2	12	6	STAKE	1368	n/a	n/a	0	0	0
1250754	WORD	wordpools/wasnorm_wordpool_576.txt	LTP306	ltpFR2	12	6	GOBLIN	645	n/a	n/a	0	0	0
1253441	WORD	wordpools/wasnorm_wordpool_576.txt	LTP306	ltpFR2	12	6	CREATURE	403	n/a	n/a	0	0	0
1256142	WORD	wordpools/wasnorm_wordpool_576.txt	LTP306	ltpFR2	12	6	BLOUSE	139	n/a	n/a	0	0	0
1258928	WORD	wordpools/wasnorm_wordpool_576.txt	LTP306	ltpFR2	12	6	DRESS	495	n/a	n/a	0	0	0
1261413	WORD	wordpools/wasnorm_wordpool_576.txt	LTP306	ltpFR2	12	6	OYSTER	995	n/a	n/a	0	0	0
1264048	WORD	wordpools/wasnorm_wordpool_576.txt	LTP306	ltpFR2	12	6	TUNNEL	1519	n/a	n/a	0	0	0
1266670	WORD	wordpools/wasnorm_wordpool_576.txt	LTP306	ltpFR2	12	6	BACKBONE	66	n/a	n/a	0	0	0
1269256	WORD	wordpools/wasnorm_wordpool_576.txt	LTP306	ltpFR2	12	6	UNCLE	1536	n/a	n/a	0	0	0
1271820	WORD	wordpools/wasnorm_wordpool_576.txt	LTP306	ltpFR2	12	6	COD	340	n/a	n/a	0	0	0
1274408	WORD	wordpools/wasnorm_wordpool_576.txt	LTP306	ltpFR2	12	6	POCKET	1093	n/a	n/a	0	0	0
1277009	WORD	wordpools/wasnorm_wordpool_576.txt	LTP306	ltpFR2	12	6	EAGLE	512	n/a	n/a	0	0	0
1279497	WORD	wordpools/wasnorm_wordpool_576.txt	LTP306	ltpFR2	12	6	CORAL	378	n/a	n/a	0	0	0
1282096	WORD	wordpools/wasnorm_wordpool_576.txt	LTP306	ltpFR2	12	6	DENIM	446	n/a	n/a	0	0	0
1284568	WORD	wordpools/wasnorm_wordpool_576.txt	LTP306	ltpFR2	12	6	STAR	1373	n/a	n/a	0	0	0
1287150	WORD	wordpools/wasnorm_wordpool_576.txt	LTP306	ltpFR2	12	6	COMET	353	n/a	n/a	0	0	0
1289657	WORD	wordpools/wasnorm_wordpool_576.txt	LTP306	ltpFR2	12	6	MISSILE	900	n/a	n/a	0	0	0
1292137	WORD	wordpools/wasnorm_wordpool_576.txt	LTP306	ltpFR2	12	6	STAMP	1370	n/a	n/a	0	0	0
1294889	WORD	wordpools/wasnorm_wordpool_576.txt	LTP306	ltpFR2	12	6	HEADBAND	696	n/a	n/a	0	0	0
1297380	WORD	wordpools/wasnorm_wordpool_576.txt	LTP306	ltpFR2	12	6	SLOPE	1328	n/a	n/a	0	0	0
1298993	START	n/a	LTP306	ltpFR2	12	n/a	n/a	n/a	10	n/a	n/a	n/a	n/a
1300101	DISTRACTOR	n/a	LTP306	ltpFR2	12	6	n/a	n/a	n/a	n/a	0	0	0
1300110	PROB	n/a	LTP306	ltpFR2	12	n/a	n/a	n/a	10	15	5	2	8
1301328	PROB	n/a	LTP306	ltpFR2	12	n/a	n/a	n/a	10	13	1	4	8
1302994	PROB	n/a	LTP306	ltpFR2	12	n/a	n/a	n/a	10	14	8	4	2
1304313	PROB	n/a	LTP306	ltpFR2	12	n/a	n/a	n/a	10	14	1	7	6
1306163	PROB	n/a	LTP306	ltpFR2	12	n/a	n/a	n/a	10	12	6	3	3
1307982	PROB	n/a	LTP306	ltpFR2	12	n/a	n/a	n/a	10	19	5	5	9
1309100	PROB	n/a	LTP306	ltpFR2	12	n/a	n/a	n/a	10	11	1	4	6
1310167	PROB	n/a	LTP306	ltpFR2	12	n/a	n/a	n/a	10	15	6	3	6
1311388	PROB	n/a	LTP306	ltpFR2	12	n/a	n/a	n/a	10	11	3	1	7
1312420	PROB	n/a	LTP306	ltpFR2	12	n/a	n/a	n/a	10	18	9	4	5
1313805	PROB	n/a	LTP306	ltpFR2	12	n/a	n/a	n/a	10	22	7	7	8
1315088	PROB	n/a	LTP306	ltpFR2	12	n/a	n/a	n/a	10	12	8	3	1
1316690	PROB	n/a	LTP306	ltpFR2	12	n/a	n/a	n/a	10	14	8	3	5
1319107	PROB	n/a	LTP306	ltpFR2	12	n/a	n/a	n/a	10	17	9	6	2
1320494	PROB	n/a	LTP306	ltpFR2	12	n/a	n/a	n/a	10	9	1	2	6
1321537	STOP	n/a	LTP306	ltpFR2	12	n/a	n/a	n/a	10	n/a	n/a	n/a	n/a
1324797	REC_START	n/a	LTP306	ltpFR2	12	6	n/a	n/a	n/a	n/a	0	0	0
1325845	REC_WORD	wordpools/wasnorm_wordpool_576.txt	LTP306	ltpFR2	12	6	MEAT	883	n/a	n/a	0	0	0
1327104	REC_WORD	wordpools/wasnorm_wordpool_576.txt	LTP306	ltpFR2	12	6	LEADER	807	n/a	n/a	0	0	0
1328075	REC_WORD	wordpools/wasnorm_wordpool_576.txt	LTP306	ltpFR2	12	6	VALLEY	1545	n/a	n/a	0	0	0
1329631	REC_WORD	wordpools/wasnorm_wordpool_576.txt	LTP306	ltpFR2	12	6	UNCLE	1536	n/a	n/a	0	0	0
1330700	REC_WORD	wordpools/wasnorm_wordpool_576.txt	LTP306	ltpFR2	12	6	COD	340	n/a	n/a	0	0	0
1331793	REC_WORD	wordpools/wasnorm_wordpool_576.txt	LTP306	ltpFR2	12	6	POCKET	1093	n/a	n/a	0	0	0
1333103	REC_WORD	wordpools/wasnorm_wordpool_576.txt	LTP306	ltpFR2	12	6	STAR	1373	n/a	n/a	0	0	0
1334371	REC_WORD	wordpools/wasnorm_wordpool_576.txt	LTP306	ltpFR2	12	6	COMET	353	n/a	n/a	0	0	0
1335249	REC_WORD	wordpools/wasnorm_wordpool_576.txt	LTP306	ltpFR2	12	6	MISSILE	900	n/a	n/a	0	0	0
1336912	REC_WORD	wordpools/wasnorm_wordpool_576.txt	LTP306	ltpFR2	12	6	CREATURE	403	n/a	n/a	0	0	0
1338245	REC_WORD	wordpools/wasnorm_wordpool_576.txt	LTP306	ltpFR2	12	6	BLOUSE	139	n/a	n/a	0	0	0
1339337	REC_WORD	wordpools/wasnorm_wordpool_576.txt	LTP306	ltpFR2	12	6	DRESS	495	n/a	n/a	0	0	0
1340722	REC_WORD	wordpools/wasnorm_wordpool_576.txt	LTP306	ltpFR2	12	6	OYSTER	995	n/a	n/a	0	0	0
1341876	REC_WORD	wordpools/wasnorm_wordpool_576.txt	LTP306	ltpFR2	12	6	BACKBONE	66	n/a	n/a	0	0	0
1343032	REC_WORD	wordpools/wasnorm_wordpool_576.txt	LTP306	ltpFR2	12	6	TUNNEL	1519	n/a	n/a	0	0	0
1415232	WORD	wordpools/wasnorm_wordpool_576.txt	LTP306	ltpFR2	12	7	TOMBSTONE	1478	n/a	n/a	0	0	0
1417934	WORD	wordpools/wasnorm_wordpool_576.txt	LTP306	ltpFR2	12	7	JAPAN	749	n/a	n/a	0	0	0
1420520	WORD	wordpools/wasnorm_wordpool_576.txt	LTP306	ltpFR2	12	7	CUSTARD	429	n/a	n/a	0	0	0
1423038	WORD	wordpools/wasnorm_wordpool_576.txt	LTP306	ltpFR2	12	7	TWEEZERS	1526	n/a	n/a	0	0	0
1425825	WORD	wordpools/wasnorm_wordpool_576.txt	LTP306	ltpFR2	12	7	MUMMY	932	n/a	n/a	0	0	0
1428448	WORD	wordpools/wasnorm_wordpool_576.txt	LTP306	ltpFR2	12	7	TEMPLE	1448	n/a	n/a	0	0	0
1431046	WORD	wordpools/wasnorm_wordpool_576.txt	LTP306	ltpFR2	12	7	GLASS	639	n/a	n/a	0	0	0
1433585	WORD	wordpools/wasnorm_wordpool_576.txt	LTP306	ltpFR2	12	7	UMPIRE	1535	n/a	n/a	0	0	0
1436020	WORD	wordpools/wasnorm_wordpool_576.txt	LTP306	ltpFR2	12	7	JELLO	754	n/a	n/a	0	0	0
1438637	WORD	wordpools/wasnorm_wordpool_576.txt	LTP306	ltpFR2	12	7	ROCKET	1202	n/a	n/a	0	0	0
1441222	WORD	wordpools/wasnorm_wordpool_576.txt	LTP306	ltpFR2	12	7	BUNNY	198	n/a	n/a	0	0	0
1443741	WORD	wordpools/wasnorm_wordpool_576.txt	LTP306	ltpFR2	12	7	CARROT	249	n/a	n/a	0	0	0
1446260	WORD	wordpools/wasnorm_wordpool_576.txt	LTP306	ltpFR2	12	7	IGLOO	734	n/a	n/a	0	0	0
1448845	WORD	wordpools/wasnorm_wordpool_576.txt	LTP306	ltpFR2	12	7	GALLON	618	n/a	n/a	0	0	0
1451598	WORD	wordpools/wasnorm_wordpool_576.txt	LTP306	ltpFR2	12	7	MAILBOX	857	n/a	n/a	0	0	0
1454334	WORD	wordpools/wasnorm_wordpool_576.txt	LTP306	ltpFR2	12	7	PORK	1108	n/a	n/a	0	0	0
1456984	WORD	wordpools/wasnorm_wordpool_576.txt	LTP306	ltpFR2	12	7	WIFE	1609	n/a	n/a	0	0	0
1459688	WORD	wordpools/wasnorm_wordpool_576.txt	LTP306	ltpFR2	12	7	PIZZA	1079	n/a	n/a	0	0	0
1462156	WORD	wordpools/wasnorm_wordpool_576.txt	LTP306	ltpFR2	12	7	SPOON	1357	n/a	n/a	0	0	0
1464958	WORD	wordpools/wasnorm_wordpool_576.txt	LTP306	ltpFR2	12	7	TART	1436	n/a	n/a	0	0	0
1467512	WORD	wordpools/wasnorm_wordpool_576.txt	LTP306	ltpFR2	12	7	KETCHUP	771	n/a	n/a	0	0	0
1470214	WORD	wordpools/wasnorm_wordpool_576.txt	LTP306	ltpFR2	12	7	SANDWICH	1232	n/a	n/a	0	0	0
1473033	WORD	wordpools/wasnorm_wordpool_576.txt	LTP306	ltpFR2	12	7	OZONE	996	n/a	n/a	0	0	0
1475851	WORD	wordpools/wasnorm_wordpool_576.txt	LTP306	ltpFR2	12	7	CURTAIN	427	n/a	n/a	0	0	0
1477471	START	n/a	LTP306	ltpFR2	12	n/a	n/a	n/a	11	n/a	n/a	n/a	n/a
1478459	DISTRACTOR	n/a	LTP306	ltpFR2	12	7	n/a	n/a	n/a	n/a	0	0	0
1478470	PROB	n/a	LTP306	ltpFR2	12	n/a	n/a	n/a	11	16	5	8	3
1480154	PROB	n/a	LTP306	ltpFR2	12	n/a	n/a	n/a	11	6	1	1	4
1481139	PROB	n/a	LTP306	ltpFR2	12	n/a	n/a	n/a	11	12	6	4	2
1482172	PROB	n/a	LTP306	ltpFR2	12	n/a	n/a	n/a	11	18	6	5	7
1483708	PROB	n/a	LTP306	ltpFR2	12	n/a	n/a	n/a	11	19	9	7	3
1484924	PROB	n/a	LTP306	ltpFR2	12	n/a	n/a	n/a	11	18	9	2	7
1486459	PROB	n/a	LTP306	ltpFR2	12	n/a	n/a	n/a	11	18	9	6	3
1487943	PROB	n/a	LTP306	ltpFR2	12	n/a	n/a	n/a	11	16	8	3	5
1489978	PROB	n/a	LTP306	ltpFR2	12	n/a	n/a	n/a	11	17	1	8	8
1491447	PROB	n/a	LTP306	ltpFR2	12	n/a	n/a	n/a	11	12	6	4	2
1492467	PROB	n/a	LTP306	ltpFR2	12	n/a	n/a	n/a	11	21	8	8	5
1493832	PROB	n/a	LTP306	ltpFR2	12	n/a	n/a	n/a	11	14	1	7	6
1495148	PROB	n/a	LTP306	ltpFR2	12	n/a	n/a	n/a	11	15	9	1	5
1496352	PROB	n/a	LTP306	ltpFR2	12	n/a	n/a	n/a	11	14	4	8	2
1497602	PROB	n/a	LTP306	ltpFR2	12	n/a	n/a	n/a	11	12	1	2	9
1498869	PROB	n/a	LTP306	ltpFR2	12	n/a	n/a	n/a	11	11	2	4	5
1500712	STOP	n/a	LTP306	ltpFR2	12	n/a	n/a	n/a	11	n/a	n/a	n/a	n/a
1503308	REC_START	n/a	LTP306	ltpFR2	12	7	n/a	n/a	n/a	n/a	0	0	0
1505251	REC_WORD	wordpools/wasnorm_wordpool_576.txt	LTP306	ltpFR2	12	7	SANDWICH	1232	n/a	n/a	0	0	0
1506974	REC_WORD	wordpools/wasnorm_wordpool_576.txt	LTP306	ltpFR2	12	7	OZONE	996	n/a	n/a	0	0	0
1508157	REC_WORD	wordpools/wasnorm_wordpool_576.txt	LTP306	ltpFR2	12	7	CURTAIN	427	n/a	n/a	0	0	0
1509608	REC_WORD	wordpools/wasnorm_wordpool_576.txt	LTP306	ltpFR2	12	7	GLASS	639	n/a	n/a	0	0	0
1510736	REC_WORD	wordpools/wasnorm_wordpool_576.txt	LTP306	ltpFR2	12	7	UMPIRE	1535	n/a	n/a	0	0	0
1515991	REC_WORD	wordpools/wasnorm_wordpool_576.txt	LTP306	ltpFR2	12	7	JELLO	754	n/a	n/a	0	0	0
1520105	REC_WORD	wordpools/wasnorm_wordpool_576.txt	LTP306	ltpFR2	12	7	TOMBSTONE	1478	n/a	n/a	0	0	0
1521230	REC_WORD	wordpools/wasnorm_wordpool_576.txt	LTP306	ltpFR2	12	7	JAPAN	749	n/a	n/a	0	0	0
1522346	REC_WORD	wordpools/wasnorm_wordpool_576.txt	LTP306	ltpFR2	12	7	CUSTARD	429	n/a	n/a	0	0	0
1523969	REC_WORD	wordpools/wasnorm_wordpool_576.txt	LTP306	ltpFR2	12	7	SPOON	1357	n/a	n/a	0	0	0
1525352	REC_WORD	wordpools/wasnorm_wordpool_576.txt	LTP306	ltpFR2	12	7	TART	1436	n/a	n/a	0	0	0
1526449	REC_WORD	wordpools/wasnorm_wordpool_576.txt	LTP306	ltpFR2	12	7	KETCHUP	771	n/a	n/a	0	0	0
1529144	REC_WORD	wordpools/wasnorm_wordpool_576.txt	LTP306	ltpFR2	12	7	IGLOO	734	n/a	n/a	0	0	0
1530241	REC_WORD	wordpools/wasnorm_wordpool_576.txt	LTP306	ltpFR2	12	7	GALLON	618	n/a	n/a	0	0	0
1531255	REC_WORD	wordpools/wasnorm_wordpool_576.txt	LTP306	ltpFR2	12	7	MAILBOX	857	n/a	n/a	0	0	0
1534135	REC_WORD	wordpools/wasnorm_wordpool_576.txt	LTP306	ltpFR2	12	7	TWEEZERS	1526	n/a	n/a	0	0	0
1535631	REC_WORD	wordpools/wasnorm_wordpool_576.txt	LTP306	ltpFR2	12	7	MUMMY	932	n/a	n/a	0	0	0
1537106	REC_WORD	wordpools/wasnorm_wordpool_576.txt	LTP306	ltpFR2	12	7	TEMPLE	1448	n/a	n/a	0	0	0
1547352	REC_WORD	wordpools/wasnorm_wordpool_576.txt	LTP306	ltpFR2	12	7	ROCKET	1202	n/a	n/a	0	0	0
1548708	REC_WORD	wordpools/wasnorm_wordpool_576.txt	LTP306	ltpFR2	12	7	BUNNY	198	n/a	n/a	0	0	0
1549744	REC_WORD	wordpools/wasnorm_wordpool_576.txt	LTP306	ltpFR2	12	7	CARROT	249	n/a	n/a	0	0	0
1593747	WORD	wordpools/wasnorm_wordpool_576.txt	LTP306	ltpFR2	12	8	VAGRANT	1544	n/a	n/a	0	0	0
1596532	WORD	wordpools/wasnorm_wordpool_576.txt	LTP306	ltpFR2	12	8	TRENCH	1503	n/a	n/a	0	0	0
1599116	WORD	wordpools/wasnorm_wordpool_576.txt	LTP306	ltpFR2	12	8	CARRIAGE	248	n/a	n/a	0	0	0
1601696	WORD	wordpools/wasnorm_wordpool_576.txt	LTP306	ltpFR2	12	8	SMOG	1330	n/a	n/a	0	0	0
1604238	WORD	wordpools/wasnorm_wordpool_576.txt	LTP306	ltpFR2	12	8	WITNESS	1618	n/a	n/a	0	0	0
1606766	WORD	wordpools/wasnorm_wordpool_576.txt	LTP306	ltpFR2	12	8	GAVEL	627	n/a	n/a	0	0	0
1609536	WORD	wordpools/wasnorm_wordpool_576.txt	LTP306	ltpFR2	12	8	DRIVER	499	n/a	n/a	0	0	0
1611953	WORD	wordpools/wasnorm_wordpool_576.txt	LTP306	ltpFR2	12	8	RATTLE	1170	n/a	n/a	0	0	0
1614430	WORD	wordpools/wasnorm_wordpool_576.txt	LTP306	ltpFR2	12	8	BODY	145	n/a	n/a	0	0	0
1617098	WORD	wordpools/wasnorm_wordpool_576.txt	LTP306	ltpFR2	12	8	ARM	38	n/a	n/a	0	0	0
1619843	WORD	wordpools/wasnorm_wordpool_576.txt	LTP306	ltpFR2	12	8	SILK	1307	n/a	n/a	0	0	0
1622320	WORD	wordpools/wasnorm_wordpool_576.txt	LTP306	ltpFR2	12	8	CRATER	400	n/a	n/a	0	0	0
1625055	WORD	wordpools/wasnorm_wordpool_576.txt	LTP306	ltpFR2	12	8	SUBWAY	1400	n/a	n/a	0	0	0
1627540	WORD	wordpools/wasnorm_wordpool_576.txt	LTP306	ltpFR2	12	8	ELBOW	520	n/a	n/a	0	0	0
1630343	WORD	wordpools/wasnorm_wordpool_576.txt	LTP306	ltpFR2	12	8	MONSTER	912	n/a	n/a	0	0	0
1633005	WORD	wordpools/wasnorm_wordpool_576.txt	LTP306	ltpFR2	12	8	DRAGON	492	n/a	n/a	0	0	0
1635657	WORD	wordpools/wasnorm_wordpool_576.txt	LTP306	ltpFR2	12	8	BUTCHER	203	n/a	n/a	0	0	0
1638444	WORD	wordpools/wasnorm_wordpool_576.txt	LTP306	ltpFR2	12	8	SPOOL	1356	n/a	n/a	0	0	0
1640918	WORD	wordpools/wasnorm_wordpool_576.txt	LTP306	ltpFR2	12	8	MUFFIN	929	n/a	n/a	0	0	0
1643548	WORD	wordpools/wasnorm_wordpool_576.txt	LTP306	ltpFR2	12	8	PEANUT	1032	n/a	n/a	0	0	0
1646351	WORD	wordpools/wasnorm_wordpool_576.txt	LTP306	ltpFR2	12	8	COCOON	339	n/a	n/a	0	0	0
1649019	WORD	wordpools/wasnorm_wordpool_576.txt	LTP306	ltpFR2	12	8	BROTHER	179	n/a	n/a	0	0	0
1651589	WORD	wordpools/wasnorm_wordpool_576.txt	LTP306	ltpFR2	12	8	FIREMAN	569	n/a	n/a	0	0	0
1654106	WORD	wordpools/wasnorm_wordpool_576.txt	LTP306	ltpFR2	12	8	AIRPLANE	12	n/a	n/a	0	0	0
1655713	START	n/a	LTP306	ltpFR2	12	n/a	n/a	n/a	12	n/a	n/a	n/a	n/a
1656768	DISTRACTOR	n/a	LTP306	ltpFR2	12	8	n/a	n/a	n/a	n/a	0	0	0
1656776	PROB	n/a	LTP306	ltpFR2	12	n/a	n/a	n/a	12	15	6	1	8
1658611	PROB	n/a	LTP306	ltpFR2	12	n/a	n/a	n/a	12	14	9	1	4
1659782	PROB	n/a	LTP306	ltpFR2	12	n/a	n/a	n/a	12	19	4	7	8
1662614	PROB	n/a	LTP306	ltpFR2	12	n/a	n/a	n/a	12	19	7	7	5
1663964	PROB	n/a	LTP306	ltpFR2	12	n/a	n/a	n/a	12	19	8	6	5
1665370	PROB	n/a	LTP306	ltpFR2	12	n/a	n/a	n/a	12	13	9	3	1
1666687	PROB	n/a	LTP306	ltpFR2	12	n/a	n/a	n/a	12	17	6	5	6
1668239	PROB	n/a	LTP306	ltpFR2	12	n/a	n/a	n/a	12	17	4	4	9
1670202	PROB	n/a	LTP306	ltpFR2	12	n/a	n/a	n/a	12	13	2	9	2
1671626	PROB	n/a	LTP306	ltpFR2	12	n/a	n/a	n/a	12	14	7	6	1
1673158	PROB	n/a	LTP306	ltpFR2	12	n/a	n/a	n/a	12	10	4	3	3
1675961	PROB	n/a	LTP306	ltpFR2	12	n/a	n/a	n/a	12	21	8	7	6
1678193	PROB	n/a	LTP306	ltpFR2	12	n/a	n/a	n/a	12	18	4	5	9
1679367	STOP	n/a	LTP306	ltpFR2	12	n/a	n/a	n/a	12	n/a	n/a	n/a	n/a
1681482	REC_START	n/a	LTP306	ltpFR2	12	8	n/a	n/a	n/a	n/a	0	0	0
1682726	REC_WORD	wordpools/wasnorm_wordpool_576.txt	LTP306	ltpFR2	12	8	BROTHER	179	n/a	n/a	0	0	0
1683928	REC_WORD	wordpools/wasnorm_wordpool_576.txt	LTP306	ltpFR2	12	8	FIREMAN	569	n/a	n/a	0	0	0
1685066	REC_WORD	wordpools/wasnorm_wordpool_576.txt	LTP306	ltpFR2	12	8	AIRPLANE	12	n/a	n/a	0	0	0
1690324	REC_WORD	wordpools/wasnorm_wordpool_576.txt	LTP306	ltpFR2	12	8	SILK	1307	n/a	n/a	0	0	0
1691579	REC_WORD	wordpools/wasnorm_wordpool_576.txt	LTP306	ltpFR2	12	8	TRENCH	1503	n/a	n/a	0	0	0
1692754	REC_WORD	wordpools/wasnorm_wordpool_576.txt	LTP306	ltpFR2	12	8	CARRIAGE	248	n/a	n/a	0	0	0
1694388	REC_WORD	wordpools/wasnorm_wordpool_576.txt	LTP306	ltpFR2	12	8	DRIVER	499	n/a	n/a	0	0	0
1695420	REC_WORD	wordpools/wasnorm_wordpool_576.txt	LTP306	ltpFR2	12	8	RATTLE	1170	n/a	n/a	0	0	0
1696625	REC_WORD	wordpools/wasnorm_wordpool_576.txt	LTP306	ltpFR2	12	8	BODY	145	n/a	n/a	0	0	0
1701805	REC_WORD	wordpools/wasnorm_wordpool_576.txt	LTP306	ltpFR2	12	8	WITNESS	1618	n/a	n/a	0	0	0
1702981	REC_WORD	wordpools/wasnorm_wordpool_576.txt	LTP306	ltpFR2	12	8	SMOG	1330	n/a	n/a	0	0	0
1704916	REC_WORD	wordpools/wasnorm_wordpool_576.txt	LTP306	ltpFR2	12	8	GAVEL	627	n/a	n/a	0	0	0
1712861	REC_WORD	wordpools/wasnorm_wordpool_576.txt	LTP306	ltpFR2	12	8	PEANUT	1032	n/a	n/a	0	0	0
1714116	REC_WORD	wordpools/wasnorm_wordpool_576.txt	LTP306	ltpFR2	12	8	MUFFIN	929	n/a	n/a	0	0	0
1715285	REC_WORD	wordpools/wasnorm_wordpool_576.txt	LTP306	ltpFR2	12	8	COCOON	339	n/a	n/a	0	0	0
1758028	REST_REWET	n/a	LTP306	ltpFR2	12	8	n/a	n/a	n/a	n/a	0	0	0
2100519	WORD	wordpools/wasnorm_wordpool_576.txt	LTP306	ltpFR2	12	9	CAFE	216	n/a	n/a	0	0	0
2103064	WORD	wordpools/wasnorm_wordpool_576.txt	LTP306	ltpFR2	12	9	BUCKET	184	n/a	n/a	0	0	0
2105624	WORD	wordpools/wasnorm_wordpool_576.txt	LTP306	ltpFR2	12	9	THRONE	1461	n/a	n/a	0	0	0
2108219	WORD	wordpools/wasnorm_wordpool_576.txt	LTP306	ltpFR2	12	9	PECAN	1036	n/a	n/a	0	0	0
2110955	WORD	wordpools/wasnorm_wordpool_576.txt	LTP306	ltpFR2	12	9	PARROT	1015	n/a	n/a	0	0	0
2113613	WORD	wordpools/wasnorm_wordpool_576.txt	LTP306	ltpFR2	12	9	HAMPER	682	n/a	n/a	0	0	0
2116427	WORD	wordpools/wasnorm_wordpool_576.txt	LTP306	ltpFR2	12	9	FRAGRANCE	599	n/a	n/a	0	0	0
2119112	WORD	wordpools/wasnorm_wordpool_576.txt	LTP306	ltpFR2	12	9	CRAYON	401	n/a	n/a	0	0	0
2121615	WORD	wordpools/wasnorm_wordpool_576.txt	LTP306	ltpFR2	12	9	PLUTO	1092	n/a	n/a	0	0	0
2124099	WORD	wordpools/wasnorm_wordpool_576.txt	LTP306	ltpFR2	12	9	PUPPY	1144	n/a	n/a	0	0	0
2126552	WORD	wordpools/wasnorm_wordpool_576.txt	LTP306	ltpFR2	12	9	WRIST	1626	n/a	n/a	0	0	0
2129254	WORD	wordpools/wasnorm_wordpool_576.txt	LTP306	ltpFR2	12	9	FOOTBALL	591	n/a	n/a	0	0	0
2131707	WORD	wordpools/wasnorm_wordpool_576.txt	LTP306	ltpFR2	12	9	CAPTIVE	240	n/a	n/a	0	0	0
2134293	WORD	wordpools/wasnorm_wordpool_576.txt	LTP306	ltpFR2	12	9	LETTUCE	814	n/a	n/a	0	0	0
2137064	WORD	wordpools/wasnorm_wordpool_576.txt	LTP306	ltpFR2	12	9	SWAMP	1416	n/a	n/a	0	0	0
2139846	WORD	wordpools/wasnorm_wordpool_576.txt	LTP306	ltpFR2	12	9	PREACHER	1119	n/a	n/a	0	0	0
2142516	WORD	wordpools/wasnorm_wordpool_576.txt	LTP306	ltpFR2	12	9	CROSS	413	n/a	n/a	0	0	0
2144951	WORD	wordpools/wasnorm_wordpool_576.txt	LTP306	ltpFR2	12	9	GARLIC	624	n/a	n/a	0	0	0
2147688	WORD	wordpools/wasnorm_wordpool_576.txt	LTP306	ltpFR2	12	9	MATTRESS	879	n/a	n/a	0	0	0
2150306	WORD	wordpools/wasnorm_wordpool_576.txt	LTP306	ltpFR2	12	9	NIGHTGOWN	953	n/a	n/a	0	0	0
2152991	WORD	wordpools/wasnorm_wordpool_576.txt	LTP306	ltpFR2	12	9	ATLAS	53	n/a	n/a	0	0	0
2155627	WORD	wordpools/wasnorm_wordpool_576.txt	LTP306	ltpFR2	12	9	BOX	159	n/a	n/a	0	0	0
2158148	WORD	wordpools/wasnorm_wordpool_576.txt	LTP306	ltpFR2	12	9	PIGMENT	1066	n/a	n/a	0	0	0
2160616	WORD	wordpools/wasnorm_wordpool_576.txt	LTP306	ltpFR2	12	9	MOTOR	922	n/a	n/a	0	0	0
2162235	START	n/a	LTP306	ltpFR2	12	n/a	n/a	n/a	13	n/a	n/a	n/a	n/a
2163081	DISTRACTOR	n/a	LTP306	ltpFR2	12	9	n/a	n/a	n/a	n/a	0	0	0
2163086	PROB	n/a	LTP306	ltpFR2	12	n/a	n/a	n/a	13	10	5	3	2
2164984	PROB	n/a	LTP306	ltpFR2	12	n/a	n/a	n/a	13	13	3	1	9
2166586	PROB	n/a	LTP306	ltpFR2	12	n/a	n/a	n/a	13	21	8	4	9
2168071	PROB	n/a	LTP306	ltpFR2	12	n/a	n/a	n/a	13	17	9	6	2
2169906	PROB	n/a	LTP306	ltpFR2	12	n/a	n/a	n/a	13	19	8	8	3
2171540	PROB	n/a	LTP306	ltpFR2	12	n/a	n/a	n/a	13	6	1	1	4
2172678	PROB	n/a	LTP306	ltpFR2	12	n/a	n/a	n/a	13	18	7	9	2
2174229	PROB	n/a	LTP306	ltpFR2	12	n/a	n/a	n/a	13	12	2	5	5
2175494	PROB	n/a	LTP306	ltpFR2	12	n/a	n/a	n/a	13	16	6	6	4
2176996	PROB	n/a	LTP306	ltpFR2	12	n/a	n/a	n/a	13	15	9	5	1
2178181	PROB	n/a	LTP306	ltpFR2	12	n/a	n/a	n/a	13	12	8	3	1
2179832	PROB	n/a	LTP306	ltpFR2	12	n/a	n/a	n/a	13	20	6	7	7
2181469	PROB	n/a	LTP306	ltpFR2	12	n/a	n/a	n/a	13	20	6	6	8
2183169	PROB	n/a	LTP306	ltpFR2	12	n/a	n/a	n/a	13	16	6	5	5
2186234	STOP	n/a	LTP306	ltpFR2	12	n/a	n/a	n/a	13	n/a	n/a	n/a	n/a
2188223	REC_START	n/a	LTP306	ltpFR2	12	9	n/a	n/a	n/a	n/a	0	0	0
2189999	REC_WORD	wordpools/wasnorm_wordpool_576.txt	LTP306	ltpFR2	12	9	CAFE	216	n/a	n/a	0	0	0
2196611	REC_WORD	wordpools/wasnorm_wordpool_576.txt	LTP306	ltpFR2	12	9	PECAN	1036	n/a	n/a	0	0	0
2199866	REC_WORD	wordpools/wasnorm_wordpool_576.txt	LTP306	ltpFR2	12	9	BOX	159	n/a	n/a	0	0	0
2201646	REC_WORD	wordpools/wasnorm_wordpool_576.txt	LTP306	ltpFR2	12	9	PLUTO	1092	n/a	n/a	0	0	0
2202916	REC_WORD	wordpools/wasnorm_wordpool_576.txt	LTP306	ltpFR2	12	9	CRAYON	401	n/a	n/a	0	0	0
2204212	REC_WORD	wordpools/wasnorm_wordpool_576.txt	LTP306	ltpFR2	12	9	PUPPY	1144	n/a	n/a	0	0	0
2205344	REC_WORD	wordpools/wasnorm_wordpool_576.txt	LTP306	ltpFR2	12	9	FRAGRANCE	599	n/a	n/a	0	0	0
2206916	REC_WORD	wordpools/wasnorm_wordpool_576.txt	LTP306	ltpFR2	12	9	WRIST	1626	n/a	n/a	0	0	0
2208264	REC_WORD	wordpools/wasnorm_wordpool_576.txt	LTP306	ltpFR2	12	9	FOOTBALL	591	n/a	n/a	0	0	0
2210643	REC_WORD	wordpools/wasnorm_wordpool_576.txt	LTP306	ltpFR2	12	9	HAMPER	682	n/a	n/a	0	0	0
2212885	REC_WORD	wordpools/wasnorm_wordpool_576.txt	LTP306	ltpFR2	12	9	BUCKET	184	n/a	n/a	0	0	0
2213717	REC_WORD	wordpools/wasnorm_wordpool_576.txt	LTP306	ltpFR2	12	9	THRONE	1461	n/a	n/a	0	0	0
2215403	REC_WORD	wordpools/wasnorm_wordpool_576.txt	LTP306	ltpFR2	12	9	PREACHER	1119	n/a	n/a	0	0	0
2216490	REC_WORD	wordpools/wasnorm_wordpool_576.txt	LTP306	ltpFR2	12	9	GARLIC	624	n/a	n/a	0	0	0
2217342	REC_WORD	wordpools/wasnorm_wordpool_576.txt	LTP306	ltpFR2	12	9	CROSS	413	n/a	n/a	0	0	0
2224216	REC_WORD	wordpools/wasnorm_wordpool_576.txt	LTP306	ltpFR2	12	9	PARROT	1015	n/a	n/a	0	0	0
2278661	WORD	wordpools/wasnorm_wordpool_576.txt	LTP306	ltpFR2	12	10	COUCH	386	n/a	n/a	0	0	0
2281314	WORD	wordpools/wasnorm_wordpool_576.txt	LTP306	ltpFR2	12	10	GLOVE	642	n/a	n/a	0	0	0
2283805	WORD	wordpools/wasnorm_wordpool_576.txt	LTP306	ltpFR2	12	10	JEANS	752	n/a	n/a	0	0	0
2286469	WORD	wordpools/wasnorm_wordpool_576.txt	LTP306	ltpFR2	12	10	WORKER	1621	n/a	n/a	0	0	0
2288887	WORD	wordpools/wasnorm_wordpool_576.txt	LTP306	ltpFR2	12	10	TYPIST	1532	n/a	n/a	0	0	0
2291373	WORD	wordpools/wasnorm_wordpool_576.txt	LTP306	ltpFR2	12	10	HONEY	713	n/a	n/a	0	0	0
2294158	WORD	wordpools/wasnorm_wordpool_576.txt	LTP306	ltpFR2	12	10	HAND	683	n/a	n/a	0	0	0
2296834	WORD	wordpools/wasnorm_wordpool_576.txt	LTP306	ltpFR2	12	10	FILM	565	n/a	n/a	0	0	0
2299270	WORD	wordpools/wasnorm_wordpool_576.txt	LTP306	ltpFR2	12	10	PORTRAIT	1111	n/a	n/a	0	0	0
2301964	WORD	wordpools/wasnorm_wordpool_576.txt	LTP306	ltpFR2	12	10	LABEL	790	n/a	n/a	0	0	0
2304533	WORD	wordpools/wasnorm_wordpool_576.txt	LTP306	ltpFR2	12	10	BANJO	82	n/a	n/a	0	0	0
2307336	WORD	wordpools/wasnorm_wordpool_576.txt	LTP306	ltpFR2	12	10	KEEPER	769	n/a	n/a	0	0	0
2309945	WORD	wordpools/wasnorm_wordpool_576.txt	LTP306	ltpFR2	12	10	WAGON	1578	n/a	n/a	0	0	0
2312581	WORD	wordpools/wasnorm_wordpool_576.txt	LTP306	ltpFR2	12	10	APPLE	33	n/a	n/a	0	0	0
2315284	WORD	wordpools/wasnorm_wordpool_576.txt	LTP306	ltpFR2	12	10	CAMEL	223	n/a	n/a	0	0	0
2317960	WORD	wordpools/wasnorm_wordpool_576.txt	LTP306	ltpFR2	12	10	TROUT	1511	n/a	n/a	0	0	0
2320463	WORD	wordpools/wasnorm_wordpool_576.txt	LTP306	ltpFR2	12	10	SHOVEL	1295	n/a	n/a	0	0	0
2322914	WORD	wordpools/wasnorm_wordpool_576.txt	LTP306	ltpFR2	12	10	ZEBRA	1635	n/a	n/a	0	0	0
2325392	WORD	wordpools/wasnorm_wordpool_576.txt	LTP306	ltpFR2	12	10	SADDLE	1221	n/a	n/a	0	0	0
2327868	WORD	wordpools/wasnorm_wordpool_576.txt	LTP306	ltpFR2	12	10	EYELASH	546	n/a	n/a	0	0	0
2330346	WORD	wordpools/wasnorm_wordpool_576.txt	LTP306	ltpFR2	12	10	SPACE	1345	n/a	n/a	0	0	0
2332889	WORD	wordpools/wasnorm_wordpool_576.txt	LTP306	ltpFR2	12	10	DUST	508	n/a	n/a	0	0	0
2335475	WORD	wordpools/wasnorm_wordpool_576.txt	LTP306	ltpFR2	12	10	BUBBLE	183	n/a	n/a	0	0	0
2338043	WORD	wordpools/wasnorm_wordpool_576.txt	LTP306	ltpFR2	12	10	RABBIT	1152	n/a	n/a	0	0	0
2339656	START	n/a	LTP306	ltpFR2	12	n/a	n/a	n/a	14	n/a	n/a	n/a	n/a
2340495	DISTRACTOR	n/a	LTP306	ltpFR2	12	10	n/a	n/a	n/a	n/a	0	0	0
2340506	PROB	n/a	LTP306	ltpFR2	12	n/a	n/a	n/a	14	8	4	2	2
2341813	PROB	n/a	LTP306	ltpFR2	12	n/a	n/a	n/a	14	9	5	3	1
2343681	PROB	n/a	LTP306	ltpFR2	12	n/a	n/a	n/a	14	15	7	6	2
2345598	PROB	n/a	LTP306	ltpFR2	12	n/a	n/a	n/a	14	22	7	6	9
2348066	PROB	n/a	LTP306	ltpFR2	12	n/a	n/a	n/a	14	16	6	9	1
2349303	PROB	n/a	LTP306	ltpFR2	12	n/a	n/a	n/a	14	17	5	4	8
2350652	PROB	n/a	LTP306	ltpFR2	12	n/a	n/a	n/a	14	15	4	7	4
2352504	PROB	n/a	LTP306	ltpFR2	12	n/a	n/a	n/a	14	21	4	9	8
2354558	PROB	n/a	LTP306	ltpFR2	12	n/a	n/a	n/a	14	10	1	5	4
2355940	PROB	n/a	LTP306	ltpFR2	12	n/a	n/a	n/a	14	17	8	5	4
2357608	PROB	n/a	LTP306	ltpFR2	12	n/a	n/a	n/a	14	15	6	7	2
2359310	PROB	n/a	LTP306	ltpFR2	12	n/a	n/a	n/a	14	12	1	3	8
2361379	PROB	n/a	LTP306	ltpFR2	12	n/a	n/a	n/a	14	12	2	4	6
2362714	STOP	n/a	LTP306	ltpFR2	12	n/a	n/a	n/a	14	n/a	n/a	n/a	n/a
2365500	REC_START	n/a	LTP306	ltpFR2	12	10	n/a	n/a	n/a	n/a	0	0	0
2367548	REC_WORD	wordpools/wasnorm_wordpool_576.txt	LTP306	ltpFR2	12	10	DUST	508	n/a	n/a	0	0	0
2368979	REC_WORD	wordpools/wasnorm_wordpool_576.txt	LTP306	ltpFR2	12	10	BUBBLE	183	n/a	n/a	0	0	0
2370344	REC_WORD	wordpools/wasnorm_wordpool_576.txt	LTP306	ltpFR2	12	10	HAND	683	n/a	n/a	0	0	0
2371822	REC_WORD	wordpools/wasnorm_wordpool_576.txt	LTP306	ltpFR2	12	10	FILM	565	n/a	n/a	0	0	0
2373163	REC_WORD	wordpools/wasnorm_wordpool_576.txt	LTP306	ltpFR2	12	10	WORKER	1621	n/a	n/a	0	0	0
2374305	REC_WORD	wordpools/wasnorm_wordpool_576.txt	LTP306	ltpFR2	12	10	TYPIST	1532	n/a	n/a	0	0	0
2375280	REC_WORD	wordpools/wasnorm_wordpool_576.txt	LTP306	ltpFR2	12	10	HONEY	713	n/a	n/a	0	0	0
2376775	REC_WORD	wordpools/wasnorm_wordpool_576.txt	LTP306	ltpFR2	12	10	COUCH	386	n/a	n/a	0	0	0
2380317	REC_WORD	wordpools/wasnorm_wordpool_576.txt	LTP306	ltpFR2	12	10	GLOVE	642	n/a	n/a	0	0	0
2381780	REC_WORD	wordpools/wasnorm_wordpool_576.txt	LTP306	ltpFR2	12	10	JEANS	752	n/a	n/a	0	0	0
2383081	REC_WORD	wordpools/wasnorm_wordpool_576.txt	LTP306	ltpFR2	12	10	PORTRAIT	1111	n/a	n/a	0	0	0
2396619	REC_WORD	wordpools/wasnorm_wordpool_576.txt	LTP306	ltpFR2	12	10	SHOVEL	1295	n/a	n/a	0	0	0
2398245	REC_WORD	wordpools/wasnorm_wordpool_576.txt	LTP306	ltpFR2	12	10	TROUT	1511	n/a	n/a	0	0	0
2399397	REC_WORD	wordpools/wasnorm_wordpool_576.txt	LTP306	ltpFR2	12	10	ZEBRA	1635	n/a	n/a	0	0	0
2419980	REC_WORD	wordpools/wasnorm_wordpool_576.txt	LTP306	ltpFR2	12	10	APPLE	33	n/a	n/a	0	0	0
2420958	REC_WORD	wordpools/wasnorm_wordpool_576.txt	LTP306	ltpFR2	12	10	WAGON	1578	n/a	n/a	0	0	0
2455969	WORD	wordpools/wasnorm_wordpool_576.txt	LTP306	ltpFR2	12	11	FEMALE	559	n/a	n/a	0	0	0
2458540	WORD	wordpools/wasnorm_wordpool_576.txt	LTP306	ltpFR2	12	11	BEAKER	104	n/a	n/a	0	0	0
2460974	WORD	wordpools/wasnorm_wordpool_576.txt	LTP306	ltpFR2	12	11	CHEMIST	292	n/a	n/a	0	0	0
2463510	WORD	wordpools/wasnorm_wordpool_576.txt	LTP306	ltpFR2	12	11	RIFLE	1192	n/a	n/a	0	0	0
2465996	WORD	wordpools/wasnorm_wordpool_576.txt	LTP306	ltpFR2	12	11	PARSLEY	1016	n/a	n/a	0	0	0
2468432	WORD	wordpools/wasnorm_wordpool_576.txt	LTP306	ltpFR2	12	11	CUPBOARD	425	n/a	n/a	0	0	0
2470899	WORD	wordpools/wasnorm_wordpool_576.txt	LTP306	ltpFR2	12	11	SWORD	1423	n/a	n/a	0	0	0
2473403	WORD	wordpools/wasnorm_wordpool_576.txt	LTP306	ltpFR2	12	11	LOVER	846	n/a	n/a	0	0	0
2475873	WORD	wordpools/wasnorm_wordpool_576.txt	LTP306	ltpFR2	12	11	QUARTER	1148	n/a	n/a	0	0	0
2478674	WORD	wordpools/wasnorm_wordpool_576.txt	LTP306	ltpFR2	12	11	FLAG	573	n/a	n/a	0	0	0
2481375	WORD	wordpools/wasnorm_wordpool_576.txt	LTP306	ltpFR2	12	11	GUARD	667	n/a	n/a	0	0	0
2484093	WORD	wordpools/wasnorm_wordpool_576.txt	LTP306	ltpFR2	12	11	COMPASS	358	n/a	n/a	0	0	0
2486829	WORD	wordpools/wasnorm_wordpool_576.txt	LTP306	ltpFR2	12	11	BURGLAR	200	n/a	n/a	0	0	0
2489515	WORD	wordpools/wasnorm_wordpool_576.txt	LTP306	ltpFR2	12	11	PLATE	1086	n/a	n/a	0	0	0
2492032	WORD	wordpools/wasnorm_wordpool_576.txt	LTP306	ltpFR2	12	11	FLOWER	584	n/a	n/a	0	0	0
2494736	WORD	wordpools/wasnorm_wordpool_576.txt	LTP306	ltpFR2	12	11	HEDGE	699	n/a	n/a	0	0	0
2497455	WORD	wordpools/wasnorm_wordpool_576.txt	LTP306	ltpFR2	12	11	SEAGULL	1261	n/a	n/a	0	0	0
2499994	WORD	wordpools/wasnorm_wordpool_576.txt	LTP306	ltpFR2	12	11	LION	827	n/a	n/a	0	0	0
2502464	WORD	wordpools/wasnorm_wordpool_576.txt	LTP306	ltpFR2	12	11	CANYON	235	n/a	n/a	0	0	0
2504977	WORD	wordpools/wasnorm_wordpool_576.txt	LTP306	ltpFR2	12	11	STAPLE	1371	n/a	n/a	0	0	0
2507413	WORD	wordpools/wasnorm_wordpool_576.txt	LTP306	ltpFR2	12	11	PLAZA	1088	n/a	n/a	0	0	0
2510114	WORD	wordpools/wasnorm_wordpool_576.txt	LTP306	ltpFR2	12	11	CHAPEL	280	n/a	n/a	0	0	0
2512550	WORD	wordpools/wasnorm_wordpool_576.txt	LTP306	ltpFR2	12	11	BEEF	113	n/a	n/a	0	0	0
2515308	WORD	wordpools/wasnorm_wordpool_576.txt	LTP306	ltpFR2	12	11	CATTLE	261	n/a	n/a	0	0	0
2516921	START	n/a	LTP306	ltpFR2	12	n/a	n/a	n/a	15	n/a	n/a	n/a	n/a
2517781	DISTRACTOR	n/a	LTP306	ltpFR2	12	11	n/a	n/a	n/a	n/a	0	0	0
2517787	PROB	n/a	LTP306	ltpFR2	12	n/a	n/a	n/a	15	18	2	7	9
2519171	PROB	n/a	LTP306	ltpFR2	12	n/a	n/a	n/a	15	6	1	1	4
2520204	PROB	n/a	LTP306	ltpFR2	12	n/a	n/a	n/a	15	21	4	9	8
2522023	PROB	n/a	LTP306	ltpFR2	12	n/a	n/a	n/a	15	212	7	5	8
2524527	PROB	n/a	LTP306	ltpFR2	12	n/a	n/a	n/a	15	6	1	2	3
2526026	PROB	n/a	LTP306	ltpFR2	12	n/a	n/a	n/a	15	21	8	4	9
2527494	PROB	n/a	LTP306	ltpFR2	12	n/a	n/a	n/a	15	8	2	1	5
2529095	PROB	n/a	LTP306	ltpFR2	12	n/a	n/a	n/a	15	12	2	5	5
2530145	PROB	n/a	LTP306	ltpFR2	12	n/a	n/a	n/a	15	16	1	6	9
2531699	PROB	n/a	LTP306	ltpFR2	12	n/a	n/a	n/a	15	15	7	4	4
2533416	PROB	n/a	LTP306	ltpFR2	12	n/a	n/a	n/a	15	15	6	5	6
2534849	PROB	n/a	LTP306	ltpFR2	12	n/a	n/a	n/a	15	12	3	4	5
2537034	PROB	n/a	LTP306	ltpFR2	12	n/a	n/a	n/a	15	21	6	9	6
2539038	PROB	n/a	LTP306	ltpFR2	12	n/a	n/a	n/a	15	13	4	1	8
2540665	STOP	n/a	LTP306	ltpFR2	12	n/a	n/a	n/a	15	n/a	n/a	n/a	n/a
2542757	REC_START	n/a	LTP306	ltpFR2	12	11	n/a	n/a	n/a	n/a	0	0	0
2543594	REC_WORD	wordpools/wasnorm_wordpool_576.txt	LTP306	ltpFR2	12	11	CHAPEL	280	n/a	n/a	0	0	0
2544842	REC_WORD	wordpools/wasnorm_wordpool_576.txt	LTP306	ltpFR2	12	11	BEEF	113	n/a	n/a	0	0	0
2545760	REC_WORD	wordpools/wasnorm_wordpool_576.txt	LTP306	ltpFR2	12	11	CATTLE	261	n/a	n/a	0	0	0
2547300	REC_WORD	wordpools/wasnorm_wordpool_576.txt	LTP306	ltpFR2	12	11	STAPLE	1371	n/a	n/a	0	0	0
2548481	REC_WORD	wordpools/wasnorm_wordpool_576.txt	LTP306	ltpFR2	12	11	CANYON	235	n/a	n/a	0	0	0
2549449	REC_WORD	wordpools/wasnorm_wordpool_576.txt	LTP306	ltpFR2	12	11	PLAZA	1088	n/a	n/a	0	0	0
2551235	REC_WORD	wordpools/wasnorm_wordpool_576.txt	LTP306	ltpFR2	12	11	LOVER	846	n/a	n/a	0	0	0
2552281	REC_WORD	wordpools/wasnorm_wordpool_576.txt	LTP306	ltpFR2	12	11	QUARTER	1148	n/a	n/a	0	0	0
2553731	REC_WORD	wordpools/wasnorm_wordpool_576.txt	LTP306	ltpFR2	12	11	RIFLE	1192	n/a	n/a	0	0	0
2554856	REC_WORD	wordpools/wasnorm_wordpool_576.txt	LTP306	ltpFR2	12	11	PARSLEY	1016	n/a	n/a	0	0	0
2555891	REC_WORD	wordpools/wasnorm_wordpool_576.txt	LTP306	ltpFR2	12	11	CUPBOARD	425	n/a	n/a	0	0	0
2557866	REC_WORD	wordpools/wasnorm_wordpool_576.txt	LTP306	ltpFR2	12	11	FEMALE	559	n/a	n/a	0	0	0
2559194	REC_WORD	wordpools/wasnorm_wordpool_576.txt	LTP306	ltpFR2	12	11	BEAKER	104	n/a	n/a	0	0	0
2560159	REC_WORD	wordpools/wasnorm_wordpool_576.txt	LTP306	ltpFR2	12	11	CHEMIST	292	n/a	n/a	0	0	0
2563661	REC_WORD	wordpools/wasnorm_wordpool_576.txt	LTP306	ltpFR2	12	11	LION	827	n/a	n/a	0	0	0
2564889	REC_WORD	wordpools/wasnorm_wordpool_576.txt	LTP306	ltpFR2	12	11	HEDGE	699	n/a	n/a	0	0	0
2565904	REC_WORD	wordpools/wasnorm_wordpool_576.txt	LTP306	ltpFR2	12	11	SEAGULL	1261	n/a	n/a	0	0	0
2633193	DISTRACTOR	n/a	LTP306	ltpFR2	12	12	n/a	n/a	n/a	n/a	0	0	0
2633193	START	n/a	LTP306	ltpFR2	12	n/a	n/a	n/a	16	n/a	n/a	n/a	n/a
2633211	PROB	n/a	LTP306	ltpFR2	12	n/a	n/a	n/a	16	23	9	6	8
2636027	PROB	n/a	LTP306	ltpFR2	12	n/a	n/a	n/a	16	19	6	9	4
2637563	PROB	n/a	LTP306	ltpFR2	12	n/a	n/a	n/a	16	16	5	9	2
2639030	PROB	n/a	LTP306	ltpFR2	12	n/a	n/a	n/a	16	11	5	1	5
2640031	PROB	n/a	LTP306	ltpFR2	12	n/a	n/a	n/a	16	10	1	3	6
2641182	PROB	n/a	LTP306	ltpFR2	12	n/a	n/a	n/a	16	13	2	7	4
2642916	PROB	n/a	LTP306	ltpFR2	12	n/a	n/a	n/a	16	18	6	5	7
2644218	PROB	n/a	LTP306	ltpFR2	12	n/a	n/a	n/a	16	24	7	9	8
2646153	PROB	n/a	LTP306	ltpFR2	12	n/a	n/a	n/a	16	17	5	9	3
2647804	PROB	n/a	LTP306	ltpFR2	12	n/a	n/a	n/a	16	15	9	4	2
2649558	PROB	n/a	LTP306	ltpFR2	12	n/a	n/a	n/a	16	9	3	4	2
2653311	PROB	n/a	LTP306	ltpFR2	12	n/a	n/a	n/a	16	20	9	4	7
2657193	STOP	n/a	LTP306	ltpFR2	12	n/a	n/a	n/a	16	n/a	n/a	n/a	n/a
2658098	WORD	wordpools/wasnorm_wordpool_576.txt	LTP306	ltpFR2	12	12	TUTU	1524	n/a	n/a	0	0	0
2660718	WORD	wordpools/wasnorm_wordpool_576.txt	LTP306	ltpFR2	12	12	TILE	1468	n/a	n/a	0	0	0
2663254	WORD	wordpools/wasnorm_wordpool_576.txt	LTP306	ltpFR2	12	12	ROBOT	1200	n/a	n/a	0	0	0
2665939	WORD	wordpools/wasnorm_wordpool_576.txt	LTP306	ltpFR2	12	12	BLACKBOARD	133	n/a	n/a	0	0	0
2668558	WORD	wordpools/wasnorm_wordpool_576.txt	LTP306	ltpFR2	12	12	FARMER	553	n/a	n/a	0	0	0
2671126	WORD	wordpools/wasnorm_wordpool_576.txt	LTP306	ltpFR2	12	12	POET	1095	n/a	n/a	0	0	0
2673696	WORD	wordpools/wasnorm_wordpool_576.txt	LTP306	ltpFR2	12	12	PUPIL	1143	n/a	n/a	0	0	0
2676347	WORD	wordpools/wasnorm_wordpool_576.txt	LTP306	ltpFR2	12	12	WARDROBE	1587	n/a	n/a	0	0	0
2679149	WORD	wordpools/wasnorm_wordpool_576.txt	LTP306	ltpFR2	12	12	DAUGHTER	442	n/a	n/a	0	0	0
2681685	WORD	wordpools/wasnorm_wordpool_576.txt	LTP306	ltpFR2	12	12	APRON	35	n/a	n/a	0	0	0
2684238	WORD	wordpools/wasnorm_wordpool_576.txt	LTP306	ltpFR2	12	12	CROWN	415	n/a	n/a	0	0	0
2686939	WORD	wordpools/wasnorm_wordpool_576.txt	LTP306	ltpFR2	12	12	GRILL	661	n/a	n/a	0	0	0
2689509	WORD	wordpools/wasnorm_wordpool_576.txt	LTP306	ltpFR2	12	12	TURKEY	1520	n/a	n/a	0	0	0
2692177	WORD	wordpools/wasnorm_wordpool_576.txt	LTP306	ltpFR2	12	12	STOMACH	1384	n/a	n/a	0	0	0
2694846	WORD	wordpools/wasnorm_wordpool_576.txt	LTP306	ltpFR2	12	12	STUDENT	1395	n/a	n/a	0	0	0
2697499	WORD	wordpools/wasnorm_wordpool_576.txt	LTP306	ltpFR2	12	12	CANAL	226	n/a	n/a	0	0	0
2700234	WORD	wordpools/wasnorm_wordpool_576.txt	LTP306	ltpFR2	12	12	JUGGLER	763	n/a	n/a	0	0	0
2703036	WORD	wordpools/wasnorm_wordpool_576.txt	LTP306	ltpFR2	12	12	HORNET	718	n/a	n/a	0	0	0
2705522	WORD	wordpools/wasnorm_wordpool_576.txt	LTP306	ltpFR2	12	12	FLASHLIGHT	575	n/a	n/a	0	0	0
2708040	WORD	wordpools/wasnorm_wordpool_576.txt	LTP306	ltpFR2	12	12	LAMP	798	n/a	n/a	0	0	0
2710809	WORD	wordpools/wasnorm_wordpool_576.txt	LTP306	ltpFR2	12	12	GYMNAST	675	n/a	n/a	0	0	0
2713428	WORD	wordpools/wasnorm_wordpool_576.txt	LTP306	ltpFR2	12	12	BISON	131	n/a	n/a	0	0	0
2716197	WORD	wordpools/wasnorm_wordpool_576.txt	LTP306	ltpFR2	12	12	GRAVE	658	n/a	n/a	0	0	0
2718949	WORD	wordpools/wasnorm_wordpool_576.txt	LTP306	ltpFR2	12	12	TURNIP	1521	n/a	n/a	0	0	0
2720554	START	n/a	LTP306	ltpFR2	12	n/a	n/a	n/a	17	n/a	n/a	n/a	n/a
2721621	DISTRACTOR	n/a	LTP306	ltpFR2	12	12	n/a	n/a	n/a	n/a	0	0	0
2721635	PROB	n/a	LTP306	ltpFR2	12	n/a	n/a	n/a	17	16	6	7	3
2722900	PROB	n/a	LTP306	ltpFR2	12	n/a	n/a	n/a	17	17	9	4	4
2724453	PROB	n/a	LTP306	ltpFR2	12	n/a	n/a	n/a	17	20	9	9	2
2726220	PROB	n/a	LTP306	ltpFR2	12	n/a	n/a	n/a	17	20	7	4	9
2727739	PROB	n/a	LTP306	ltpFR2	12	n/a	n/a	n/a	17	14	4	4	6
2729105	PROB	n/a	LTP306	ltpFR2	12	n/a	n/a	n/a	17	19	4	8	5
2730840	PROB	n/a	LTP306	ltpFR2	12	n/a	n/a	n/a	17	16	4	6	6
2731958	PROB	n/a	LTP306	ltpFR2	12	n/a	n/a	n/a	17	18	7	8	3
2733677	PROB	n/a	LTP306	ltpFR2	12	n/a	n/a	n/a	17	19	9	8	2
2734811	PROB	n/a	LTP306	ltpFR2	12	n/a	n/a	n/a	17	20	9	3	8
2737146	PROB	n/a	LTP306	ltpFR2	12	n/a	n/a	n/a	17	18	7	4	7
2739196	PROB	n/a	LTP306	ltpFR2	12	n/a	n/a	n/a	17	17	9	3	5
2741064	PROB	n/a	LTP306	ltpFR2	12	n/a	n/a	n/a	17	14	2	9	3
2742566	PROB	n/a	LTP306	ltpFR2	12	n/a	n/a	n/a	17	18	6	8	4
2743864	STOP	n/a	LTP306	ltpFR2	12	n/a	n/a	n/a	17	n/a	n/a	n/a	n/a
2746455	REC_START	n/a	LTP306	ltpFR2	12	12	n/a	n/a	n/a	n/a	0	0	0
2747767	REC_WORD	wordpools/wasnorm_wordpool_576.txt	LTP306	ltpFR2	12	12	BISON	131	n/a	n/a	0	0	0
2748853	REC_WORD	wordpools/wasnorm_wordpool_576.txt	LTP306	ltpFR2	12	12	GRAVE	658	n/a	n/a	0	0	0
2749868	REC_WORD	wordpools/wasnorm_wordpool_576.txt	LTP306	ltpFR2	12	12	TURNIP	1521	n/a	n/a	0	0	0
2751326	REC_WORD	wordpools/wasnorm_wordpool_576.txt	LTP306	ltpFR2	12	12	TURKEY	1520	n/a	n/a	0	0	0
2752175	REC_WORD	wordpools/wasnorm_wordpool_576.txt	LTP306	ltpFR2	12	12	STOMACH	1384	n/a	n/a	0	0	0
2753160	REC_WORD	wordpools/wasnorm_wordpool_576.txt	LTP306	ltpFR2	12	12	STUDENT	1395	n/a	n/a	0	0	0
2754677	REC_WORD	wordpools/wasnorm_wordpool_576.txt	LTP306	ltpFR2	12	12	PUPIL	1143	n/a	n/a	0	0	0
2756054	REC_WORD	wordpools/wasnorm_wordpool_576.txt	LTP306	ltpFR2	12	12	WARDROBE	1587	n/a	n/a	0	0	0
2757370	REC_WORD	wordpools/wasnorm_wordpool_576.txt	LTP306	ltpFR2	12	12	DAUGHTER	442	n/a	n/a	0	0	0
2758601	REC_WORD	wordpools/wasnorm_wordpool_576.txt	LTP306	ltpFR2	12	12	FARMER	553	n/a	n/a	0	0	0
2759864	REC_WORD	wordpools/wasnorm_wordpool_576.txt	LTP306	ltpFR2	12	12	BLACKBOARD	133	n/a	n/a	0	0	0
2761608	REC_WORD	wordpools/wasnorm_wordpool_576.txt	LTP306	ltpFR2	12	12	POET	1095	n/a	n/a	0	0	0
2768222	REC_WORD	wordpools/wasnorm_wordpool_576.txt	LTP306	ltpFR2	12	12	APRON	35	n/a	n/a	0	0	0
2769359	REC_WORD	wordpools/wasnorm_wordpool_576.txt	LTP306	ltpFR2	12	12	CROWN	415	n/a	n/a	0	0	0
2770905	REC_WORD	wordpools/wasnorm_wordpool_576.txt	LTP306	ltpFR2	12	12	GRILL	661	n/a	n/a	0	0	0
2778706	REC_WORD	wordpools/wasnorm_wordpool_576.txt	LTP306	ltpFR2	12	12	JUGGLER	763	n/a	n/a	0	0	0
2779650	REC_WORD	wordpools/wasnorm_wordpool_576.txt	LTP306	ltpFR2	12	12	CANAL	226	n/a	n/a	0	0	0
2780814	REC_WORD	wordpools/wasnorm_wordpool_576.txt	LTP306	ltpFR2	12	12	HORNET	718	n/a	n/a	0	0	0
2789783	REC_WORD	wordpools/wasnorm_wordpool_576.txt	LTP306	ltpFR2	12	12	BURGLAR	200	n/a	n/a	0	0	0
2790865	REC_WORD	wordpools/wasnorm_wordpool_576.txt	LTP306	ltpFR2	12	12	PLATE	1086	n/a	n/a	0	0	0
2793157	REC_WORD	wordpools/wasnorm_wordpool_576.txt	LTP306	ltpFR2	12	12	FLOWER	584	n/a	n/a	0	0	0
2836888	DISTRACTOR	n/a	LTP306	ltpFR2	12	13	n/a	n/a	n/a	n/a	0	0	0
2836888	START	n/a	LTP306	ltpFR2	12	n/a	n/a	n/a	18	n/a	n/a	n/a	n/a
2836902	PROB	n/a	LTP306	ltpFR2	12	n/a	n/a	n/a	18	4	1	2	1
2838160	PROB	n/a	LTP306	ltpFR2	12	n/a	n/a	n/a	18	17	5	7	5
2839528	PROB	n/a	LTP306	ltpFR2	12	n/a	n/a	n/a	18	15	8	5	2
2840729	PROB	n/a	LTP306	ltpFR2	12	n/a	n/a	n/a	18	17	1	9	7
2841814	PROB	n/a	LTP306	ltpFR2	12	n/a	n/a	n/a	18	8	6	1	1
2842829	PROB	n/a	LTP306	ltpFR2	12	n/a	n/a	n/a	18	13	5	1	7
2844599	PROB	n/a	LTP306	ltpFR2	12	n/a	n/a	n/a	18	14	9	2	3
2846116	PROB	n/a	LTP306	ltpFR2	12	n/a	n/a	n/a	18	21	7	8	6
2847950	PROB	n/a	LTP306	ltpFR2	12	n/a	n/a	n/a	18	18	5	7	6
2850521	PROB	n/a	LTP306	ltpFR2	12	n/a	n/a	n/a	18	15	6	3	6
2852053	PROB	n/a	LTP306	ltpFR2	12	n/a	n/a	n/a	18	20	9	2	9
2853689	PROB	n/a	LTP306	ltpFR2	12	n/a	n/a	n/a	18	20	9	6	5
2855023	PROB	n/a	LTP306	ltpFR2	12	n/a	n/a	n/a	18	13	5	7	1
2856576	PROB	n/a	LTP306	ltpFR2	12	n/a	n/a	n/a	18	21	9	7	5
2858527	PROB	n/a	LTP306	ltpFR2	12	n/a	n/a	n/a	18	17	8	6	3
2859981	STOP	n/a	LTP306	ltpFR2	12	n/a	n/a	n/a	18	n/a	n/a	n/a	n/a
2862077	WORD	wordpools/wasnorm_wordpool_576.txt	LTP306	ltpFR2	12	13	LODGE	839	n/a	n/a	0	0	0
2864528	WORD	wordpools/wasnorm_wordpool_576.txt	LTP306	ltpFR2	12	13	TAXI	1438	n/a	n/a	0	0	0
2867080	WORD	wordpools/wasnorm_wordpool_576.txt	LTP306	ltpFR2	12	13	TRIBE	1505	n/a	n/a	0	0	0
2869882	WORD	wordpools/wasnorm_wordpool_576.txt	LTP306	ltpFR2	12	13	SCRIBBLE	1256	n/a	n/a	0	0	0
2872369	WORD	wordpools/wasnorm_wordpool_576.txt	LTP306	ltpFR2	12	13	EXPERT	543	n/a	n/a	0	0	0
2874987	WORD	wordpools/wasnorm_wordpool_576.txt	LTP306	ltpFR2	12	13	COUSIN	392	n/a	n/a	0	0	0
2877557	WORD	wordpools/wasnorm_wordpool_576.txt	LTP306	ltpFR2	12	13	MARKET	871	n/a	n/a	0	0	0
2880276	WORD	wordpools/wasnorm_wordpool_576.txt	LTP306	ltpFR2	12	13	POPCORN	1104	n/a	n/a	0	0	0
2882711	WORD	wordpools/wasnorm_wordpool_576.txt	LTP306	ltpFR2	12	13	MOTEL	919	n/a	n/a	0	0	0
2885314	WORD	wordpools/wasnorm_wordpool_576.txt	LTP306	ltpFR2	12	13	FRUIT	610	n/a	n/a	0	0	0
2888131	WORD	wordpools/wasnorm_wordpool_576.txt	LTP306	ltpFR2	12	13	DINER	467	n/a	n/a	0	0	0
2890553	WORD	wordpools/wasnorm_wordpool_576.txt	LTP306	ltpFR2	12	13	OX	994	n/a	n/a	0	0	0
2893287	WORD	wordpools/wasnorm_wordpool_576.txt	LTP306	ltpFR2	12	13	STALLION	1369	n/a	n/a	0	0	0
2895955	WORD	wordpools/wasnorm_wordpool_576.txt	LTP306	ltpFR2	12	13	ITEM	746	n/a	n/a	0	0	0
2898575	WORD	wordpools/wasnorm_wordpool_576.txt	LTP306	ltpFR2	12	13	COURSE	390	n/a	n/a	0	0	0
2901143	WORD	wordpools/wasnorm_wordpool_576.txt	LTP306	ltpFR2	12	13	ACTRESS	6	n/a	n/a	0	0	0
2903663	WORD	wordpools/wasnorm_wordpool_576.txt	LTP306	ltpFR2	12	13	GAZELLE	628	n/a	n/a	0	0	0
2906265	WORD	wordpools/wasnorm_wordpool_576.txt	LTP306	ltpFR2	12	13	PRIMATE	1123	n/a	n/a	0	0	0
2908832	WORD	wordpools/wasnorm_wordpool_576.txt	LTP306	ltpFR2	12	13	AUTHOR	61	n/a	n/a	0	0	0
2911253	WORD	wordpools/wasnorm_wordpool_576.txt	LTP306	ltpFR2	12	13	JOURNAL	760	n/a	n/a	0	0	0
2913838	WORD	wordpools/wasnorm_wordpool_576.txt	LTP306	ltpFR2	12	13	ORANGE	980	n/a	n/a	0	0	0
2916573	WORD	wordpools/wasnorm_wordpool_576.txt	LTP306	ltpFR2	12	13	TWIG	1527	n/a	n/a	0	0	0
2919293	WORD	wordpools/wasnorm_wordpool_576.txt	LTP306	ltpFR2	12	13	WAITER	1580	n/a	n/a	0	0	0
2921762	WORD	wordpools/wasnorm_wordpool_576.txt	LTP306	ltpFR2	12	13	SUPPER	1411	n/a	n/a	0	0	0
2923381	START	n/a	LTP306	ltpFR2	12	n/a	n/a	n/a	19	n/a	n/a	n/a	n/a
2924571	DISTRACTOR	n/a	LTP306	ltpFR2	12	13	n/a	n/a	n/a	n/a	0	0	0
2924581	PROB	n/a	LTP306	ltpFR2	12	n/a	n/a	n/a	19	16	5	3	8
2925880	PROB	n/a	LTP306	ltpFR2	12	n/a	n/a	n/a	19	6	3	2	1
2926964	PROB	n/a	LTP306	ltpFR2	12	n/a	n/a	n/a	19	16	9	2	5
2928600	PROB	n/a	LTP306	ltpFR2	12	n/a	n/a	n/a	19	11	3	7	1
2929734	PROB	n/a	LTP306	ltpFR2	12	n/a	n/a	n/a	19	13	5	5	3
2930768	PROB	n/a	LTP306	ltpFR2	12	n/a	n/a	n/a	19	6	1	2	3
2931852	PROB	n/a	LTP306	ltpFR2	12	n/a	n/a	n/a	19	7	3	3	4
2933186	PROB	n/a	LTP306	ltpFR2	12	n/a	n/a	n/a	19	16	9	6	1
2934820	PROB	n/a	LTP306	ltpFR2	12	n/a	n/a	n/a	19	12	3	7	2
2935890	PROB	n/a	LTP306	ltpFR2	12	n/a	n/a	n/a	19	19	5	8	6
2937690	PROB	n/a	LTP306	ltpFR2	12	n/a	n/a	n/a	19	17	3	6	8
2940626	PROB	n/a	LTP306	ltpFR2	12	n/a	n/a	n/a	19	12	3	7	2
2941726	PROB	n/a	LTP306	ltpFR2	12	n/a	n/a	n/a	19	12	5	4	3
2944478	PROB	n/a	LTP306	ltpFR2	12	n/a	n/a	n/a	19	16	8	7	1
2946008	STOP	n/a	LTP306	ltpFR2	12	n/a	n/a	n/a	19	n/a	n/a	n/a	n/a
2949216	REC_START	n/a	LTP306	ltpFR2	12	13	n/a	n/a	n/a	n/a	0	0	0
2950486	REC_WORD	wordpools/wasnorm_wordpool_576.txt	LTP306	ltpFR2	12	13	TWIG	1527	n/a	n/a	0	0	0
2951443	REC_WORD	wordpools/wasnorm_wordpool_576.txt	LTP306	ltpFR2	12	13	WAITER	1580	n/a	n/a	0	0	0
2952418	REC_WORD	wordpools/wasnorm_wordpool_576.txt	LTP306	ltpFR2	12	13	SUPPER	1411	n/a	n/a	0	0	0
2953516	REC_WORD	wordpools/wasnorm_wordpool_576.txt	LTP306	ltpFR2	12	13	FRUIT	610	n/a	n/a	0	0	0
2954706	REC_WORD	wordpools/wasnorm_wordpool_576.txt	LTP306	ltpFR2	12	13	DINER	467	n/a	n/a	0	0	0
2955550	REC_WORD	wordpools/wasnorm_wordpool_576.txt	LTP306	ltpFR2	12	13	OX	994	n/a	n/a	0	0	0
2956855	REC_WORD	wordpools/wasnorm_wordpool_576.txt	LTP306	ltpFR2	12	13	MOTEL	919	n/a	n/a	0	0	0
2962288	REC_WORD	wordpools/wasnorm_wordpool_576.txt	LTP306	ltpFR2	12	13	MARKET	871	n/a	n/a	0	0	0
2963391	REC_WORD	wordpools/wasnorm_wordpool_576.txt	LTP306	ltpFR2	12	13	POPCORN	1104	n/a	n/a	0	0	0
2966225	REC_WORD	wordpools/wasnorm_wordpool_576.txt	LTP306	ltpFR2	12	13	TAXI	1438	n/a	n/a	0	0	0
2967404	REC_WORD	wordpools/wasnorm_wordpool_576.txt	LTP306	ltpFR2	12	13	LODGE	839	n/a	n/a	0	0	0
2968557	REC_WORD	wordpools/wasnorm_wordpool_576.txt	LTP306	ltpFR2	12	13	TRIBE	1505	n/a	n/a	0	0	0
2969651	REC_WORD	wordpools/wasnorm_wordpool_576.txt	LTP306	ltpFR2	12	13	SCRIBBLE	1256	n/a	n/a	0	0	0
2970902	REC_WORD	wordpools/wasnorm_wordpool_576.txt	LTP306	ltpFR2	12	13	EXPERT	543	n/a	n/a	0	0	0
2971970	REC_WORD	wordpools/wasnorm_wordpool_576.txt	LTP306	ltpFR2	12	13	COUSIN	392	n/a	n/a	0	0	0
2985143	REC_WORD	wordpools/wasnorm_wordpool_576.txt	LTP306	ltpFR2	12	13	OX	994	n/a	n/a	0	0	0
2989706	REC_WORD	wordpools/wasnorm_wordpool_576.txt	LTP306	ltpFR2	12	13	ACTRESS	6	n/a	n/a	0	0	0
2990642	REC_WORD	wordpools/wasnorm_wordpool_576.txt	LTP306	ltpFR2	12	13	GAZELLE	628	n/a	n/a	0	0	0
2991879	REC_WORD	wordpools/wasnorm_wordpool_576.txt	LTP306	ltpFR2	12	13	PRIMATE	1123	n/a	n/a	0	0	0
2993489	REC_WORD	wordpools/wasnorm_wordpool_576.txt	LTP306	ltpFR2	12	13	AUTHOR	61	n/a	n/a	0	0	0
3039640	DISTRACTOR	n/a	LTP306	ltpFR2	12	14	n/a	n/a	n/a	n/a	0	0	0
3039641	START	n/a	LTP306	ltpFR2	12	n/a	n/a	n/a	20	n/a	n/a	n/a	n/a
3039656	PROB	n/a	LTP306	ltpFR2	12	n/a	n/a	n/a	20	19	4	9	6
3041006	PROB	n/a	LTP306	ltpFR2	12	n/a	n/a	n/a	20	15	8	5	2
3042474	PROB	n/a	LTP306	ltpFR2	12	n/a	n/a	n/a	20	19	7	9	3
3043692	PROB	n/a	LTP306	ltpFR2	12	n/a	n/a	n/a	20	13	6	2	5
3045611	PROB	n/a	LTP306	ltpFR2	12	n/a	n/a	n/a	20	25	8	6	9
3047793	PROB	n/a	LTP306	ltpFR2	12	n/a	n/a	n/a	20	14	1	7	6
3049581	PROB	n/a	LTP306	ltpFR2	12	n/a	n/a	n/a	20	18	8	2	8
3051215	PROB	n/a	LTP306	ltpFR2	12	n/a	n/a	n/a	20	13	8	2	3
3052366	PROB	n/a	LTP306	ltpFR2	12	n/a	n/a	n/a	20	21	8	5	8
3053965	PROB	n/a	LTP306	ltpFR2	12	n/a	n/a	n/a	20	12	3	7	2
3055452	PROB	n/a	LTP306	ltpFR2	12	n/a	n/a	n/a	20	5	2	2	1
3056435	PROB	n/a	LTP306	ltpFR2	12	n/a	n/a	n/a	20	6	2	2	2
3057387	PROB	n/a	LTP306	ltpFR2	12	n/a	n/a	n/a	20	20	4	9	7
3058953	PROB	n/a	LTP306	ltpFR2	12	n/a	n/a	n/a	20	19	9	1	9
3060170	PROB	n/a	LTP306	ltpFR2	12	n/a	n/a	n/a	20	7	1	5	1
3063641	STOP	n/a	LTP306	ltpFR2	12	n/a	n/a	n/a	20	n/a	n/a	n/a	n/a
3064486	WORD	wordpools/wasnorm_wordpool_576.txt	LTP306	ltpFR2	12	14	TRUCK	1512	n/a	n/a	0	0	0
3067212	WORD	wordpools/wasnorm_wordpool_576.txt	LTP306	ltpFR2	12	14	BUREAU	199	n/a	n/a	0	0	0
3070029	WORD	wordpools/wasnorm_wordpool_576.txt	LTP306	ltpFR2	12	14	PADDING	999	n/a	n/a	0	0	0
3072826	WORD	wordpools/wasnorm_wordpool_576.txt	LTP306	ltpFR2	12	14	ICING	732	n/a	n/a	0	0	0
3075296	WORD	wordpools/wasnorm_wordpool_576.txt	LTP306	ltpFR2	12	14	OUTFIT	988	n/a	n/a	0	0	0
3078053	WORD	wordpools/wasnorm_wordpool_576.txt	LTP306	ltpFR2	12	14	ACTOR	5	n/a	n/a	0	0	0
3080833	WORD	wordpools/wasnorm_wordpool_576.txt	LTP306	ltpFR2	12	14	TOASTER	1472	n/a	n/a	0	0	0
3083625	WORD	wordpools/wasnorm_wordpool_576.txt	LTP306	ltpFR2	12	14	COOK	372	n/a	n/a	0	0	0
3086154	WORD	wordpools/wasnorm_wordpool_576.txt	LTP306	ltpFR2	12	14	MARROW	872	n/a	n/a	0	0	0
3088956	WORD	wordpools/wasnorm_wordpool_576.txt	LTP306	ltpFR2	12	14	POISON	1096	n/a	n/a	0	0	0
3091694	WORD	wordpools/wasnorm_wordpool_576.txt	LTP306	ltpFR2	12	14	SNAKE	1333	n/a	n/a	0	0	0
3094267	WORD	wordpools/wasnorm_wordpool_576.txt	LTP306	ltpFR2	12	14	BANKER	84	n/a	n/a	0	0	0
3096830	WORD	wordpools/wasnorm_wordpool_576.txt	LTP306	ltpFR2	12	14	LOFT	840	n/a	n/a	0	0	0
3099254	WORD	wordpools/wasnorm_wordpool_576.txt	LTP306	ltpFR2	12	14	TRACTOR	1493	n/a	n/a	0	0	0
3101918	WORD	wordpools/wasnorm_wordpool_576.txt	LTP306	ltpFR2	12	14	BOARD	143	n/a	n/a	0	0	0
3104587	WORD	wordpools/wasnorm_wordpool_576.txt	LTP306	ltpFR2	12	14	MILK	895	n/a	n/a	0	0	0
3107223	WORD	wordpools/wasnorm_wordpool_576.txt	LTP306	ltpFR2	12	14	PISTON	1076	n/a	n/a	0	0	0
3109808	WORD	wordpools/wasnorm_wordpool_576.txt	LTP306	ltpFR2	12	14	SISTER	1312	n/a	n/a	0	0	0
3112628	WORD	wordpools/wasnorm_wordpool_576.txt	LTP306	ltpFR2	12	14	CLAMP	316	n/a	n/a	0	0	0
3115297	WORD	wordpools/wasnorm_wordpool_576.txt	LTP306	ltpFR2	12	14	QUAIL	1147	n/a	n/a	0	0	0
3118082	WORD	wordpools/wasnorm_wordpool_576.txt	LTP306	ltpFR2	12	14	GRIZZLY	662	n/a	n/a	0	0	0
3120722	WORD	wordpools/wasnorm_wordpool_576.txt	LTP306	ltpFR2	12	14	RECEIPT	1173	n/a	n/a	0	0	0
3123354	WORD	wordpools/wasnorm_wordpool_576.txt	LTP306	ltpFR2	12	14	COBRA	336	n/a	n/a	0	0	0
3126172	WORD	wordpools/wasnorm_wordpool_576.txt	LTP306	ltpFR2	12	14	EGYPT	519	n/a	n/a	0	0	0
3127777	START	n/a	LTP306	ltpFR2	12	n/a	n/a	n/a	21	n/a	n/a	n/a	n/a
3128783	DISTRACTOR	n/a	LTP306	ltpFR2	12	14	n/a	n/a	n/a	n/a	0	0	0
3128791	PROB	n/a	LTP306	ltpFR2	12	n/a	n/a	n/a	21	23	8	9	6
3131529	PROB	n/a	LTP306	ltpFR2	12	n/a	n/a	n/a	21	18	4	9	5
3133363	PROB	n/a	LTP306	ltpFR2	12	n/a	n/a	n/a	21	26	8	9	9
3135249	PROB	n/a	LTP306	ltpFR2	12	n/a	n/a	n/a	21	12	4	3	5
3139654	PROB	n/a	LTP306	ltpFR2	12	n/a	n/a	n/a	21	18	6	3	9
3141187	PROB	n/a	LTP306	ltpFR2	12	n/a	n/a	n/a	21	17	3	6	8
3143019	PROB	n/a	LTP306	ltpFR2	12	n/a	n/a	n/a	21	9	3	1	5
3145239	PROB	n/a	LTP306	ltpFR2	12	n/a	n/a	n/a	21	12	3	2	7
3146491	PROB	n/a	LTP306	ltpFR2	12	n/a	n/a	n/a	21	17	5	5	7
3147610	PROB	n/a	LTP306	ltpFR2	12	n/a	n/a	n/a	21	16	9	2	5
3149194	PROB	n/a	LTP306	ltpFR2	12	n/a	n/a	n/a	21	8	2	2	4
3150241	STOP	n/a	LTP306	ltpFR2	12	n/a	n/a	n/a	21	n/a	n/a	n/a	n/a
3153632	REC_START	n/a	LTP306	ltpFR2	12	14	n/a	n/a	n/a	n/a	0	0	0
3155044	REC_WORD	wordpools/wasnorm_wordpool_576.txt	LTP306	ltpFR2	12	14	POISON	1096	n/a	n/a	0	0	0
3156039	REC_WORD_VV	wordpools/wasnorm_wordpool_576.txt	LTP306	ltpFR2	12	14	<>	-1	n/a	n/a	0	0	0
3158076	REC_WORD	wordpools/wasnorm_wordpool_576.txt	LTP306	ltpFR2	12	14	SNAKE	1333	n/a	n/a	0	0	0
3159323	REC_WORD	wordpools/wasnorm_wordpool_576.txt	LTP306	ltpFR2	12	14	BANKER	84	n/a	n/a	0	0	0
3160787	REC_WORD	wordpools/wasnorm_wordpool_576.txt	LTP306	ltpFR2	12	14	COBRA	336	n/a	n/a	0	0	0
3161788	REC_WORD	wordpools/wasnorm_wordpool_576.txt	LTP306	ltpFR2	12	14	EGYPT	519	n/a	n/a	0	0	0
3162681	REC_WORD	wordpools/wasnorm_wordpool_576.txt	LTP306	ltpFR2	12	14	RECEIPT	1173	n/a	n/a	0	0	0
3171731	REC_WORD	wordpools/wasnorm_wordpool_576.txt	LTP306	ltpFR2	12	14	ACTOR	5	n/a	n/a	0	0	0
3172683	REC_WORD	wordpools/wasnorm_wordpool_576.txt	LTP306	ltpFR2	12	14	ICING	732	n/a	n/a	0	0	0
3173638	REC_WORD	wordpools/wasnorm_wordpool_576.txt	LTP306	ltpFR2	12	14	OUTFIT	988	n/a	n/a	0	0	0
3175402	REC_WORD	wordpools/wasnorm_wordpool_576.txt	LTP306	ltpFR2	12	14	TRUCK	1512	n/a	n/a	0	0	0
3176638	REC_WORD	wordpools/wasnorm_wordpool_576.txt	LTP306	ltpFR2	12	14	BUREAU	199	n/a	n/a	0	0	0
3177629	REC_WORD	wordpools/wasnorm_wordpool_576.txt	LTP306	ltpFR2	12	14	PADDING	999	n/a	n/a	0	0	0
3179148	REC_WORD	wordpools/wasnorm_wordpool_576.txt	LTP306	ltpFR2	12	14	LOFT	840	n/a	n/a	0	0	0
3180163	REC_WORD	wordpools/wasnorm_wordpool_576.txt	LTP306	ltpFR2	12	14	TRACTOR	1493	n/a	n/a	0	0	0
3181395	REC_WORD	wordpools/wasnorm_wordpool_576.txt	LTP306	ltpFR2	12	14	BOARD	143	n/a	n/a	0	0	0
3192234	REC_WORD	wordpools/wasnorm_wordpool_576.txt	LTP306	ltpFR2	12	14	MILK	895	n/a	n/a	0	0	0
3193349	REC_WORD	wordpools/wasnorm_wordpool_576.txt	LTP306	ltpFR2	12	14	PISTON	1076	n/a	n/a	0	0	0
3194264	REC_WORD	wordpools/wasnorm_wordpool_576.txt	LTP306	ltpFR2	12	14	SISTER	1312	n/a	n/a	0	0	0
3288571	WORD	wordpools/wasnorm_wordpool_576.txt	LTP306	ltpFR2	12	15	MARINE	869	n/a	n/a	0	0	0
3291199	WORD	wordpools/wasnorm_wordpool_576.txt	LTP306	ltpFR2	12	15	POLICE	1098	n/a	n/a	0	0	0
3293976	WORD	wordpools/wasnorm_wordpool_576.txt	LTP306	ltpFR2	12	15	SCARECROW	1245	n/a	n/a	0	0	0
3296738	WORD	wordpools/wasnorm_wordpool_576.txt	LTP306	ltpFR2	12	15	MUSTARD	935	n/a	n/a	0	0	0
3299206	WORD	wordpools/wasnorm_wordpool_576.txt	LTP306	ltpFR2	12	15	SHERIFF	1284	n/a	n/a	0	0	0
3301925	WORD	wordpools/wasnorm_wordpool_576.txt	LTP306	ltpFR2	12	15	THIEF	1456	n/a	n/a	0	0	0
3304712	WORD	wordpools/wasnorm_wordpool_576.txt	LTP306	ltpFR2	12	15	SKETCH	1315	n/a	n/a	0	0	0
3307404	WORD	wordpools/wasnorm_wordpool_576.txt	LTP306	ltpFR2	12	15	PICTURE	1061	n/a	n/a	0	0	0
3310217	WORD	wordpools/wasnorm_wordpool_576.txt	LTP306	ltpFR2	12	15	NECKLACE	940	n/a	n/a	0	0	0
3312957	WORD	wordpools/wasnorm_wordpool_576.txt	LTP306	ltpFR2	12	15	HANDBAG	684	n/a	n/a	0	0	0
3315555	WORD	wordpools/wasnorm_wordpool_576.txt	LTP306	ltpFR2	12	15	MAPLE	866	n/a	n/a	0	0	0
3318307	WORD	wordpools/wasnorm_wordpool_576.txt	LTP306	ltpFR2	12	15	JUNGLE	764	n/a	n/a	0	0	0
3320909	WORD	wordpools/wasnorm_wordpool_576.txt	LTP306	ltpFR2	12	15	COUNTY	389	n/a	n/a	0	0	0
3323651	WORD	wordpools/wasnorm_wordpool_576.txt	LTP306	ltpFR2	12	15	COUNTRY	388	n/a	n/a	0	0	0
3326320	WORD	wordpools/wasnorm_wordpool_576.txt	LTP306	ltpFR2	12	15	SALAD	1224	n/a	n/a	0	0	0
3329066	WORD	wordpools/wasnorm_wordpool_576.txt	LTP306	ltpFR2	12	15	INFANT	737	n/a	n/a	0	0	0
3331724	WORD	wordpools/wasnorm_wordpool_576.txt	LTP306	ltpFR2	12	15	LASER	801	n/a	n/a	0	0	0
3334489	WORD	wordpools/wasnorm_wordpool_576.txt	LTP306	ltpFR2	12	15	DOUGHNUT	490	n/a	n/a	0	0	0
3337241	WORD	wordpools/wasnorm_wordpool_576.txt	LTP306	ltpFR2	12	15	YACHT	1629	n/a	n/a	0	0	0
3339692	WORD	wordpools/wasnorm_wordpool_576.txt	LTP306	ltpFR2	12	15	COCKTAIL	338	n/a	n/a	0	0	0
3342379	WORD	wordpools/wasnorm_wordpool_576.txt	LTP306	ltpFR2	12	15	ROBBER	1197	n/a	n/a	0	0	0
3344967	WORD	wordpools/wasnorm_wordpool_576.txt	LTP306	ltpFR2	12	15	MARSH	874	n/a	n/a	0	0	0
3347466	WORD	wordpools/wasnorm_wordpool_576.txt	LTP306	ltpFR2	12	15	AIRPORT	13	n/a	n/a	0	0	0
3350071	WORD	wordpools/wasnorm_wordpool_576.txt	LTP306	ltpFR2	12	15	PADDLE	1000	n/a	n/a	0	0	0
3351687	START	n/a	LTP306	ltpFR2	12	n/a	n/a	n/a	22	n/a	n/a	n/a	n/a
3352570	DISTRACTOR	n/a	LTP306	ltpFR2	12	15	n/a	n/a	n/a	n/a	0	0	0
3352587	PROB	n/a	LTP306	ltpFR2	12	n/a	n/a	n/a	22	9	5	3	1
3354036	PROB	n/a	LTP306	ltpFR2	12	n/a	n/a	n/a	22	23	9	8	6
3356155	PROB	n/a	LTP306	ltpFR2	12	n/a	n/a	n/a	22	19	9	5	5
3357240	PROB	n/a	LTP306	ltpFR2	12	n/a	n/a	n/a	22	16	7	7	2
3358574	PROB	n/a	LTP306	ltpFR2	12	n/a	n/a	n/a	22	10	6	1	3
3359660	PROB	n/a	LTP306	ltpFR2	12	n/a	n/a	n/a	22	25	9	7	9
3361227	PROB	n/a	LTP306	ltpFR2	12	n/a	n/a	n/a	22	17	3	8	6
3362962	PROB	n/a	LTP306	ltpFR2	12	n/a	n/a	n/a	22	14	1	8	5
3366067	PROB	n/a	LTP306	ltpFR2	12	n/a	n/a	n/a	22	17	3	8	4
3368534	PROB	n/a	LTP306	ltpFR2	12	n/a	n/a	n/a	22	19	8	6	5
3370319	PROB	n/a	LTP306	ltpFR2	12	n/a	n/a	n/a	22	24	9	9	6
3371885	PROB	n/a	LTP306	ltpFR2	12	n/a	n/a	n/a	22	15	8	5	2
3373755	PROB	n/a	LTP306	ltpFR2	12	n/a	n/a	n/a	22	18	8	1	9
3375290	STOP	n/a	LTP306	ltpFR2	12	n/a	n/a	n/a	22	n/a	n/a	n/a	n/a
3377628	REC_START	n/a	LTP306	ltpFR2	12	15	n/a	n/a	n/a	n/a	0	0	0
3379178	REC_WORD	wordpools/wasnorm_wordpool_576.txt	LTP306	ltpFR2	12	15	MARSH	874	n/a	n/a	0	0	0
3380399	REC_WORD	wordpools/wasnorm_wordpool_576.txt	LTP306	ltpFR2	12	15	PADDLE	1000	n/a	n/a	0	0	0
3381358	REC_WORD	wordpools/wasnorm_wordpool_576.txt	LTP306	ltpFR2	12	15	AIRPORT	13	n/a	n/a	0	0	0
3382951	REC_WORD	wordpools/wasnorm_wordpool_576.txt	LTP306	ltpFR2	12	15	MUSTARD	935	n/a	n/a	0	0	0
3383958	REC_WORD	wordpools/wasnorm_wordpool_576.txt	LTP306	ltpFR2	12	15	SHERIFF	1284	n/a	n/a	0	0	0
3385087	REC_WORD	wordpools/wasnorm_wordpool_576.txt	LTP306	ltpFR2	12	15	THIEF	1456	n/a	n/a	0	0	0
3387014	REC_WORD	wordpools/wasnorm_wordpool_576.txt	LTP306	ltpFR2	12	15	ROBBER	1197	n/a	n/a	0	0	0
3388868	REC_WORD	wordpools/wasnorm_wordpool_576.txt	LTP306	ltpFR2	12	15	COUNTY	389	n/a	n/a	0	0	0
3389985	REC_WORD	wordpools/wasnorm_wordpool_576.txt	LTP306	ltpFR2	12	15	COUNTRY	388	n/a	n/a	0	0	0
3391005	REC_WORD	wordpools/wasnorm_wordpool_576.txt	LTP306	ltpFR2	12	15	SALAD	1224	n/a	n/a	0	0	0
3392585	REC_WORD	wordpools/wasnorm_wordpool_576.txt	LTP306	ltpFR2	12	15	MARINE	869	n/a	n/a	0	0	0
3394122	REC_WORD	wordpools/wasnorm_wordpool_576.txt	LTP306	ltpFR2	12	15	POLICE	1098	n/a	n/a	0	0	0
3395281	REC_WORD	wordpools/wasnorm_wordpool_576.txt	LTP306	ltpFR2	12	15	SCARECROW	1245	n/a	n/a	0	0	0
3408732	REC_WORD	wordpools/wasnorm_wordpool_576.txt	LTP306	ltpFR2	12	15	INFANT	737	n/a	n/a	0	0	0
3409677	REC_WORD	wordpools/wasnorm_wordpool_576.txt	LTP306	ltpFR2	12	15	LASER	801	n/a	n/a	0	0	0
3410839	REC_WORD	wordpools/wasnorm_wordpool_576.txt	LTP306	ltpFR2	12	15	DOUGHNUT	490	n/a	n/a	0	0	0
3412252	REC_WORD	wordpools/wasnorm_wordpool_576.txt	LTP306	ltpFR2	12	15	YACHT	1629	n/a	n/a	0	0	0
3413136	REC_WORD	wordpools/wasnorm_wordpool_576.txt	LTP306	ltpFR2	12	15	COCKTAIL	338	n/a	n/a	0	0	0
3519591	WORD	wordpools/wasnorm_wordpool_576.txt	LTP306	ltpFR2	12	16	DRUG	501	n/a	n/a	0	0	0
3522117	WORD	wordpools/wasnorm_wordpool_576.txt	LTP306	ltpFR2	12	16	HERO	706	n/a	n/a	0	0	0
3524545	WORD	wordpools/wasnorm_wordpool_576.txt	LTP306	ltpFR2	12	16	TERMITE	1451	n/a	n/a	0	0	0
3527239	WORD	wordpools/wasnorm_wordpool_576.txt	LTP306	ltpFR2	12	16	SAUSAGE	1238	n/a	n/a	0	0	0
3529782	WORD	wordpools/wasnorm_wordpool_576.txt	LTP306	ltpFR2	12	16	GARDEN	623	n/a	n/a	0	0	0
3532378	WORD	wordpools/wasnorm_wordpool_576.txt	LTP306	ltpFR2	12	16	SHORTCAKE	1292	n/a	n/a	0	0	0
3534803	WORD	wordpools/wasnorm_wordpool_576.txt	LTP306	ltpFR2	12	16	PEACH	1031	n/a	n/a	0	0	0
3537590	WORD	wordpools/wasnorm_wordpool_576.txt	LTP306	ltpFR2	12	16	BINDER	127	n/a	n/a	0	0	0
3540015	WORD	wordpools/wasnorm_wordpool_576.txt	LTP306	ltpFR2	12	16	SUITCASE	1403	n/a	n/a	0	0	0
3542736	WORD	wordpools/wasnorm_wordpool_576.txt	LTP306	ltpFR2	12	16	VIKING	1565	n/a	n/a	0	0	0
3545229	WORD	wordpools/wasnorm_wordpool_576.txt	LTP306	ltpFR2	12	16	KITCHEN	778	n/a	n/a	0	0	0
3548014	WORD	wordpools/wasnorm_wordpool_576.txt	LTP306	ltpFR2	12	16	BANQUET	86	n/a	n/a	0	0	0
3550600	WORD	wordpools/wasnorm_wordpool_576.txt	LTP306	ltpFR2	12	16	HIKER	708	n/a	n/a	0	0	0
3553362	WORD	wordpools/wasnorm_wordpool_576.txt	LTP306	ltpFR2	12	16	STICKER	1382	n/a	n/a	0	0	0
3555813	WORD	wordpools/wasnorm_wordpool_576.txt	LTP306	ltpFR2	12	16	FOREST	593	n/a	n/a	0	0	0
3558500	WORD	wordpools/wasnorm_wordpool_576.txt	LTP306	ltpFR2	12	16	SUMMIT	1405	n/a	n/a	0	0	0
3560918	WORD	wordpools/wasnorm_wordpool_576.txt	LTP306	ltpFR2	12	16	BUG	187	n/a	n/a	0	0	0
3563471	WORD	wordpools/wasnorm_wordpool_576.txt	LTP306	ltpFR2	12	16	CEILING	265	n/a	n/a	0	0	0
3566178	WORD	wordpools/wasnorm_wordpool_576.txt	LTP306	ltpFR2	12	16	CASHEW	253	n/a	n/a	0	0	0
3568658	WORD	wordpools/wasnorm_wordpool_576.txt	LTP306	ltpFR2	12	16	PASTA	1021	n/a	n/a	0	0	0
3571278	WORD	wordpools/wasnorm_wordpool_576.txt	LTP306	ltpFR2	12	16	ANTLER	29	n/a	n/a	0	0	0
3574050	WORD	wordpools/wasnorm_wordpool_576.txt	LTP306	ltpFR2	12	16	FRIAR	605	n/a	n/a	0	0	0
3576748	WORD	wordpools/wasnorm_wordpool_576.txt	LTP306	ltpFR2	12	16	LAPEL	800	n/a	n/a	0	0	0
3579184	WORD	wordpools/wasnorm_wordpool_576.txt	LTP306	ltpFR2	12	16	FOX	598	n/a	n/a	0	0	0
3580790	START	n/a	LTP306	ltpFR2	12	n/a	n/a	n/a	23	n/a	n/a	n/a	n/a
3581979	DISTRACTOR	n/a	LTP306	ltpFR2	12	16	n/a	n/a	n/a	n/a	0	0	0
3581986	PROB	n/a	LTP306	ltpFR2	12	n/a	n/a	n/a	23	14	2	4	8
3583291	PROB	n/a	LTP306	ltpFR2	12	n/a	n/a	n/a	23	26	8	9	9
3584843	PROB	n/a	LTP306	ltpFR2	12	n/a	n/a	n/a	23	11	5	1	5
3585826	PROB	n/a	LTP306	ltpFR2	12	n/a	n/a	n/a	23	19	7	7	5
3587093	PROB	n/a	LTP306	ltpFR2	12	n/a	n/a	n/a	23	13	7	3	3
3588248	PROB	n/a	LTP306	ltpFR2	12	n/a	n/a	n/a	23	14	9	3	2
3589714	PROB	n/a	LTP306	ltpFR2	12	n/a	n/a	n/a	23	18	8	7	3
3591059	PROB	n/a	LTP306	ltpFR2	12	n/a	n/a	n/a	23	14	4	2	8
3592261	PROB	n/a	LTP306	ltpFR2	12	n/a	n/a	n/a	23	17	5	7	5
3593479	PROB	n/a	LTP306	ltpFR2	12	n/a	n/a	n/a	23	14	3	6	5
3596231	PROB	n/a	LTP306	ltpFR2	12	n/a	n/a	n/a	23	15	5	2	8
3597550	PROB	n/a	LTP306	ltpFR2	12	n/a	n/a	n/a	23	20	8	4	8
3598955	PROB	n/a	LTP306	ltpFR2	12	n/a	n/a	n/a	23	20	9	8	3
3600784	PROB	n/a	LTP306	ltpFR2	12	n/a	n/a	n/a	23	10	7	2	1
3601869	PROB	n/a	LTP306	ltpFR2	12	n/a	n/a	n/a	23	21	7	6	8
3603794	STOP	n/a	LTP306	ltpFR2	12	n/a	n/a	n/a	23	n/a	n/a	n/a	n/a
3606557	REC_START	n/a	LTP306	ltpFR2	12	16	n/a	n/a	n/a	n/a	0	0	0
3607656	REC_WORD	wordpools/wasnorm_wordpool_576.txt	LTP306	ltpFR2	12	16	FRIAR	605	n/a	n/a	0	0	0
3609176	REC_WORD	wordpools/wasnorm_wordpool_576.txt	LTP306	ltpFR2	12	16	LAPEL	800	n/a	n/a	0	0	0
3610349	REC_WORD	wordpools/wasnorm_wordpool_576.txt	LTP306	ltpFR2	12	16	FOX	598	n/a	n/a	0	0	0
3612224	REC_WORD	wordpools/wasnorm_wordpool_576.txt	LTP306	ltpFR2	12	16	CASHEW	253	n/a	n/a	0	0	0
3630323	REC_WORD	wordpools/wasnorm_wordpool_576.txt	LTP306	ltpFR2	12	16	ANTLER	29	n/a	n/a	0	0	0
3635709	REC_WORD	wordpools/wasnorm_wordpool_576.txt	LTP306	ltpFR2	12	16	PEACH	1031	n/a	n/a	0	0	0
3636760	REC_WORD	wordpools/wasnorm_wordpool_576.txt	LTP306	ltpFR2	12	16	BINDER	127	n/a	n/a	0	0	0
3637610	REC_WORD	wordpools/wasnorm_wordpool_576.txt	LTP306	ltpFR2	12	16	SUITCASE	1403	n/a	n/a	0	0	0
3639459	REC_WORD	wordpools/wasnorm_wordpool_576.txt	LTP306	ltpFR2	12	16	SAUSAGE	1238	n/a	n/a	0	0	0
3640640	REC_WORD	wordpools/wasnorm_wordpool_576.txt	LTP306	ltpFR2	12	16	GARDEN	623	n/a	n/a	0	0	0
3641408	REC_WORD	wordpools/wasnorm_wordpool_576.txt	LTP306	ltpFR2	12	16	SHORTCAKE	1292	n/a	n/a	0	0	0
3647223	REC_WORD	wordpools/wasnorm_wordpool_576.txt	LTP306	ltpFR2	12	16	DRUG	501	n/a	n/a	0	0	0
3648263	REC_WORD	wordpools/wasnorm_wordpool_576.txt	LTP306	ltpFR2	12	16	HERO	706	n/a	n/a	0	0	0
3649355	REC_WORD	wordpools/wasnorm_wordpool_576.txt	LTP306	ltpFR2	12	16	TERMITE	1451	n/a	n/a	0	0	0
3651667	REC_WORD	wordpools/wasnorm_wordpool_576.txt	LTP306	ltpFR2	12	16	BUG	187	n/a	n/a	0	0	0
3652961	REC_WORD	wordpools/wasnorm_wordpool_576.txt	LTP306	ltpFR2	12	16	SUMMIT	1405	n/a	n/a	0	0	0
3654005	REC_WORD	wordpools/wasnorm_wordpool_576.txt	LTP306	ltpFR2	12	16	CEILING	265	n/a	n/a	0	0	0
3655762	REC_WORD	wordpools/wasnorm_wordpool_576.txt	LTP306	ltpFR2	12	16	HIKER	708	n/a	n/a	0	0	0
3683105	REST_REWET	n/a	LTP306	ltpFR2	12	16	n/a	n/a	n/a	n/a	0	0	0
3855545	DISTRACTOR	n/a	LTP306	ltpFR2	12	17	n/a	n/a	n/a	n/a	0	0	0
3855545	START	n/a	LTP306	ltpFR2	12	n/a	n/a	n/a	24	n/a	n/a	n/a	n/a
3855560	PROB	n/a	LTP306	ltpFR2	12	n/a	n/a	n/a	24	19	3	9	7
3856957	PROB	n/a	LTP306	ltpFR2	12	n/a	n/a	n/a	24	11	6	1	4
3858059	PROB	n/a	LTP306	ltpFR2	12	n/a	n/a	n/a	24	11	4	3	4
3860330	PROB	n/a	LTP306	ltpFR2	12	n/a	n/a	n/a	24	19	7	3	9
3861479	PROB	n/a	LTP306	ltpFR2	12	n/a	n/a	n/a	24	11	2	1	8
3862832	PROB	n/a	LTP306	ltpFR2	12	n/a	n/a	n/a	24	20	7	4	9
3864917	PROB	n/a	LTP306	ltpFR2	12	n/a	n/a	n/a	24	20	5	8	7
3866553	PROB	n/a	LTP306	ltpFR2	12	n/a	n/a	n/a	24	6	2	1	3
3867671	PROB	n/a	LTP306	ltpFR2	12	n/a	n/a	n/a	24	19	1	9	9
3868820	PROB	n/a	LTP306	ltpFR2	12	n/a	n/a	n/a	24	21	7	9	5
3870989	PROB	n/a	LTP306	ltpFR2	12	n/a	n/a	n/a	24	6	2	1	3
3872106	PROB	n/a	LTP306	ltpFR2	12	n/a	n/a	n/a	24	16	1	6	9
3873424	PROB	n/a	LTP306	ltpFR2	12	n/a	n/a	n/a	24	8	4	2	2
3874475	PROB	n/a	LTP306	ltpFR2	12	n/a	n/a	n/a	24	11	2	2	7
3875709	PROB	n/a	LTP306	ltpFR2	12	n/a	n/a	n/a	24	16	2	6	8
3877243	PROB	n/a	LTP306	ltpFR2	12	n/a	n/a	n/a	24	14	1	4	9
3878326	STOP	n/a	LTP306	ltpFR2	12	n/a	n/a	n/a	24	n/a	n/a	n/a	n/a
3880496	WORD	wordpools/wasnorm_wordpool_576.txt	LTP306	ltpFR2	12	17	LEOPARD	812	n/a	n/a	0	0	0
3882965	WORD	wordpools/wasnorm_wordpool_576.txt	LTP306	ltpFR2	12	17	TABLET	1427	n/a	n/a	0	0	0
3885618	WORD	wordpools/wasnorm_wordpool_576.txt	LTP306	ltpFR2	12	17	DORM	488	n/a	n/a	0	0	0
3888220	WORD	wordpools/wasnorm_wordpool_576.txt	LTP306	ltpFR2	12	17	BRANCH	168	n/a	n/a	0	0	0
3890988	WORD	wordpools/wasnorm_wordpool_576.txt	LTP306	ltpFR2	12	17	PALACE	1006	n/a	n/a	0	0	0
3893758	WORD	wordpools/wasnorm_wordpool_576.txt	LTP306	ltpFR2	12	17	HIGHWAY	707	n/a	n/a	0	0	0
3896343	WORD	wordpools/wasnorm_wordpool_576.txt	LTP306	ltpFR2	12	17	GRAVEL	659	n/a	n/a	0	0	0
3898995	WORD	wordpools/wasnorm_wordpool_576.txt	LTP306	ltpFR2	12	17	CONVICT	371	n/a	n/a	0	0	0
3901597	WORD	wordpools/wasnorm_wordpool_576.txt	LTP306	ltpFR2	12	17	PERCH	1048	n/a	n/a	0	0	0
3904283	WORD	wordpools/wasnorm_wordpool_576.txt	LTP306	ltpFR2	12	17	ARMY	39	n/a	n/a	0	0	0
3906952	WORD	wordpools/wasnorm_wordpool_576.txt	LTP306	ltpFR2	12	17	VELVET	1555	n/a	n/a	0	0	0
3909604	WORD	wordpools/wasnorm_wordpool_576.txt	LTP306	ltpFR2	12	17	SUNSET	1408	n/a	n/a	0	0	0
3912155	WORD	wordpools/wasnorm_wordpool_576.txt	LTP306	ltpFR2	12	17	HAWK	692	n/a	n/a	0	0	0
3914625	WORD	wordpools/wasnorm_wordpool_576.txt	LTP306	ltpFR2	12	17	PRINCE	1124	n/a	n/a	0	0	0
3917427	WORD	wordpools/wasnorm_wordpool_576.txt	LTP306	ltpFR2	12	17	CHIPMUNK	304	n/a	n/a	0	0	0
3919912	WORD	wordpools/wasnorm_wordpool_576.txt	LTP306	ltpFR2	12	17	GREASE	660	n/a	n/a	0	0	0
3922597	WORD	wordpools/wasnorm_wordpool_576.txt	LTP306	ltpFR2	12	17	ONION	977	n/a	n/a	0	0	0
3925401	WORD	wordpools/wasnorm_wordpool_576.txt	LTP306	ltpFR2	12	17	BALLOON	75	n/a	n/a	0	0	0
3928168	WORD	wordpools/wasnorm_wordpool_576.txt	LTP306	ltpFR2	12	17	BUGGY	188	n/a	n/a	0	0	0
3930887	WORD	wordpools/wasnorm_wordpool_576.txt	LTP306	ltpFR2	12	17	TURTLE	1522	n/a	n/a	0	0	0
3933507	WORD	wordpools/wasnorm_wordpool_576.txt	LTP306	ltpFR2	12	17	TORTOISE	1486	n/a	n/a	0	0	0
3936141	WORD	wordpools/wasnorm_wordpool_576.txt	LTP306	ltpFR2	12	17	SUSPECT	1415	n/a	n/a	0	0	0
3938762	WORD	wordpools/wasnorm_wordpool_576.txt	LTP306	ltpFR2	12	17	NOMAD	955	n/a	n/a	0	0	0
3941480	WORD	wordpools/wasnorm_wordpool_576.txt	LTP306	ltpFR2	12	17	HUMAN	726	n/a	n/a	0	0	0
3943098	START	n/a	LTP306	ltpFR2	12	n/a	n/a	n/a	25	n/a	n/a	n/a	n/a
3943924	DISTRACTOR	n/a	LTP306	ltpFR2	12	17	n/a	n/a	n/a	n/a	0	0	0
3943931	PROB	n/a	LTP306	ltpFR2	12	n/a	n/a	n/a	25	19	9	7	3
3945113	PROB	n/a	LTP306	ltpFR2	12	n/a	n/a	n/a	25	16	8	4	4
3946915	PROB	n/a	LTP306	ltpFR2	12	n/a	n/a	n/a	25	15	6	8	1
3948367	PROB	n/a	LTP306	ltpFR2	12	n/a	n/a	n/a	25	17	9	5	3
3949802	PROB	n/a	LTP306	ltpFR2	12	n/a	n/a	n/a	25	8	4	2	2
3950885	PROB	n/a	LTP306	ltpFR2	12	n/a	n/a	n/a	25	10	4	2	4
3953338	PROB	n/a	LTP306	ltpFR2	12	n/a	n/a	n/a	25	19	8	6	5
3954822	PROB	n/a	LTP306	ltpFR2	12	n/a	n/a	n/a	25	15	6	4	5
3956023	PROB	n/a	LTP306	ltpFR2	12	n/a	n/a	n/a	25	185	6	8	4
3957709	PROB	n/a	LTP306	ltpFR2	12	n/a	n/a	n/a	25	74	4	1	2
3959610	PROB	n/a	LTP306	ltpFR2	12	n/a	n/a	n/a	25	7	2	1	4
3961828	PROB	n/a	LTP306	ltpFR2	12	n/a	n/a	n/a	25	17	2	6	9
3963813	PROB	n/a	LTP306	ltpFR2	12	n/a	n/a	n/a	25	14	9	2	3
3965658	STOP	n/a	LTP306	ltpFR2	12	n/a	n/a	n/a	25	n/a	n/a	n/a	n/a
3968917	REC_START	n/a	LTP306	ltpFR2	12	17	n/a	n/a	n/a	n/a	0	0	0
3970163	REC_WORD	wordpools/wasnorm_wordpool_576.txt	LTP306	ltpFR2	12	17	LEOPARD	812	n/a	n/a	0	0	0
3971280	REC_WORD	wordpools/wasnorm_wordpool_576.txt	LTP306	ltpFR2	12	17	TABLET	1427	n/a	n/a	0	0	0
3972373	REC_WORD	wordpools/wasnorm_wordpool_576.txt	LTP306	ltpFR2	12	17	DORM	488	n/a	n/a	0	0	0
3974264	REC_WORD	wordpools/wasnorm_wordpool_576.txt	LTP306	ltpFR2	12	17	BRANCH	168	n/a	n/a	0	0	0
3975432	REC_WORD	wordpools/wasnorm_wordpool_576.txt	LTP306	ltpFR2	12	17	PALACE	1006	n/a	n/a	0	0	0
3976479	REC_WORD	wordpools/wasnorm_wordpool_576.txt	LTP306	ltpFR2	12	17	HIGHWAY	707	n/a	n/a	0	0	0
3978890	REC_WORD	wordpools/wasnorm_wordpool_576.txt	LTP306	ltpFR2	12	17	GRAVEL	659	n/a	n/a	0	0	0
3980063	REC_WORD	wordpools/wasnorm_wordpool_576.txt	LTP306	ltpFR2	12	17	CONVICT	371	n/a	n/a	0	0	0
3981319	REC_WORD	wordpools/wasnorm_wordpool_576.txt	LTP306	ltpFR2	12	17	PERCH	1048	n/a	n/a	0	0	0
3985004	REC_WORD	wordpools/wasnorm_wordpool_576.txt	LTP306	ltpFR2	12	17	TORTOISE	1486	n/a	n/a	0	0	0
3986108	REC_WORD	wordpools/wasnorm_wordpool_576.txt	LTP306	ltpFR2	12	17	TURTLE	1522	n/a	n/a	0	0	0
3987171	REC_WORD	wordpools/wasnorm_wordpool_576.txt	LTP306	ltpFR2	12	17	BUGGY	188	n/a	n/a	0	0	0
3988578	REC_WORD	wordpools/wasnorm_wordpool_576.txt	LTP306	ltpFR2	12	17	PRINCE	1124	n/a	n/a	0	0	0
3989537	REC_WORD	wordpools/wasnorm_wordpool_576.txt	LTP306	ltpFR2	12	17	HAWK	692	n/a	n/a	0	0	0
3990667	REC_WORD	wordpools/wasnorm_wordpool_576.txt	LTP306	ltpFR2	12	17	CHIPMUNK	304	n/a	n/a	0	0	0
4132982	WORD	wordpools/wasnorm_wordpool_576.txt	LTP306	ltpFR2	12	18	GROUND	666	n/a	n/a	0	0	0
4135636	WORD	wordpools/wasnorm_wordpool_576.txt	LTP306	ltpFR2	12	18	MARS	873	n/a	n/a	0	0	0
4138420	WORD	wordpools/wasnorm_wordpool_576.txt	LTP306	ltpFR2	12	18	BACON	67	n/a	n/a	0	0	0
4140905	WORD	wordpools/wasnorm_wordpool_576.txt	LTP306	ltpFR2	12	18	OMELET	976	n/a	n/a	0	0	0
4143725	WORD	wordpools/wasnorm_wordpool_576.txt	LTP306	ltpFR2	12	18	MAMMAL	861	n/a	n/a	0	0	0
4146427	WORD	wordpools/wasnorm_wordpool_576.txt	LTP306	ltpFR2	12	18	VICTIM	1562	n/a	n/a	0	0	0
4148945	WORD	wordpools/wasnorm_wordpool_576.txt	LTP306	ltpFR2	12	18	CLOTHES	327	n/a	n/a	0	0	0
4151531	WORD	wordpools/wasnorm_wordpool_576.txt	LTP306	ltpFR2	12	18	BEAVER	109	n/a	n/a	0	0	0
4154253	WORD	wordpools/wasnorm_wordpool_576.txt	LTP306	ltpFR2	12	18	IDOL	733	n/a	n/a	0	0	0
4156685	WORD	wordpools/wasnorm_wordpool_576.txt	LTP306	ltpFR2	12	18	POSSUM	1112	n/a	n/a	0	0	0
4159405	WORD	wordpools/wasnorm_wordpool_576.txt	LTP306	ltpFR2	12	18	HATCHET	691	n/a	n/a	0	0	0
4162039	WORD	wordpools/wasnorm_wordpool_576.txt	LTP306	ltpFR2	12	18	VENUS	1557	n/a	n/a	0	0	0
4164642	WORD	wordpools/wasnorm_wordpool_576.txt	LTP306	ltpFR2	12	18	SALMON	1227	n/a	n/a	0	0	0
4167260	WORD	wordpools/wasnorm_wordpool_576.txt	LTP306	ltpFR2	12	18	PLAYGROUND	1087	n/a	n/a	0	0	0
4169895	WORD	wordpools/wasnorm_wordpool_576.txt	LTP306	ltpFR2	12	18	DANDRUFF	439	n/a	n/a	0	0	0
4172581	WORD	wordpools/wasnorm_wordpool_576.txt	LTP306	ltpFR2	12	18	WASHER	1592	n/a	n/a	0	0	0
4175003	WORD	wordpools/wasnorm_wordpool_576.txt	LTP306	ltpFR2	12	18	COIN	343	n/a	n/a	0	0	0
4177735	WORD	wordpools/wasnorm_wordpool_576.txt	LTP306	ltpFR2	12	18	PARTNER	1017	n/a	n/a	0	0	0
4180509	WORD	wordpools/wasnorm_wordpool_576.txt	LTP306	ltpFR2	12	18	BOYFRIEND	162	n/a	n/a	0	0	0
4182956	WORD	wordpools/wasnorm_wordpool_576.txt	LTP306	ltpFR2	12	18	SNACK	1331	n/a	n/a	0	0	0
4185659	WORD	wordpools/wasnorm_wordpool_576.txt	LTP306	ltpFR2	12	18	RUG	1215	n/a	n/a	0	0	0
4188478	WORD	wordpools/wasnorm_wordpool_576.txt	LTP306	ltpFR2	12	18	BLENDER	136	n/a	n/a	0	0	0
4190979	WORD	wordpools/wasnorm_wordpool_576.txt	LTP306	ltpFR2	12	18	PATIENT	1024	n/a	n/a	0	0	0
4193432	WORD	wordpools/wasnorm_wordpool_576.txt	LTP306	ltpFR2	12	18	CASKET	255	n/a	n/a	0	0	0
4195037	START	n/a	LTP306	ltpFR2	12	n/a	n/a	n/a	26	n/a	n/a	n/a	n/a
4195934	DISTRACTOR	n/a	LTP306	ltpFR2	12	18	n/a	n/a	n/a	n/a	0	0	0
4195949	PROB	n/a	LTP306	ltpFR2	12	n/a	n/a	n/a	26	9	2	4	3
4200202	PROB	n/a	LTP306	ltpFR2	12	n/a	n/a	n/a	26	10	4	1	5
4201555	PROB	n/a	LTP306	ltpFR2	12	n/a	n/a	n/a	26	13	6	3	4
4202854	PROB	n/a	LTP306	ltpFR2	12	n/a	n/a	n/a	26	15	7	3	5
4203922	PROB	n/a	LTP306	ltpFR2	12	n/a	n/a	n/a	26	17	9	5	3
4205475	PROB	n/a	LTP306	ltpFR2	12	n/a	n/a	n/a	26	16	4	7	5
4207291	PROB	n/a	LTP306	ltpFR2	12	n/a	n/a	n/a	26	15	6	2	7
4209661	PROB	n/a	LTP306	ltpFR2	12	n/a	n/a	n/a	26	10	1	5	4
4210945	PROB	n/a	LTP306	ltpFR2	12	n/a	n/a	n/a	26	18	1	9	8
4212111	PROB	n/a	LTP306	ltpFR2	12	n/a	n/a	n/a	26	18	6	3	9
4213847	PROB	n/a	LTP306	ltpFR2	12	n/a	n/a	n/a	26	12	5	6	1
4215064	PROB	n/a	LTP306	ltpFR2	12	n/a	n/a	n/a	26	17	8	1	8
4216349	PROB	n/a	LTP306	ltpFR2	12	n/a	n/a	n/a	26	15	7	2	6
4218611	STOP	n/a	LTP306	ltpFR2	12	n/a	n/a	n/a	26	n/a	n/a	n/a	n/a
4220904	REC_START	n/a	LTP306	ltpFR2	12	18	n/a	n/a	n/a	n/a	0	0	0
4222013	REC_WORD	wordpools/wasnorm_wordpool_576.txt	LTP306	ltpFR2	12	18	BLENDER	136	n/a	n/a	0	0	0
4223083	REC_WORD	wordpools/wasnorm_wordpool_576.txt	LTP306	ltpFR2	12	18	CASKET	255	n/a	n/a	0	0	0
4224121	REC_WORD	wordpools/wasnorm_wordpool_576.txt	LTP306	ltpFR2	12	18	PATIENT	1024	n/a	n/a	0	0	0
4225621	REC_WORD	wordpools/wasnorm_wordpool_576.txt	LTP306	ltpFR2	12	18	GROUND	666	n/a	n/a	0	0	0
4226605	REC_WORD	wordpools/wasnorm_wordpool_576.txt	LTP306	ltpFR2	12	18	MARS	873	n/a	n/a	0	0	0
4227615	REC_WORD	wordpools/wasnorm_wordpool_576.txt	LTP306	ltpFR2	12	18	BACON	67	n/a	n/a	0	0	0
4229176	REC_WORD	wordpools/wasnorm_wordpool_576.txt	LTP306	ltpFR2	12	18	OMELET	976	n/a	n/a	0	0	0
4230320	REC_WORD	wordpools/wasnorm_wordpool_576.txt	LTP306	ltpFR2	12	18	MAMMAL	861	n/a	n/a	0	0	0
4231274	REC_WORD	wordpools/wasnorm_wordpool_576.txt	LTP306	ltpFR2	12	18	VICTIM	1562	n/a	n/a	0	0	0
4235413	REC_WORD	wordpools/wasnorm_wordpool_576.txt	LTP306	ltpFR2	12	18	VENUS	1557	n/a	n/a	0	0	0
4237330	REC_WORD	wordpools/wasnorm_wordpool_576.txt	LTP306	ltpFR2	12	18	BOYFRIEND	162	n/a	n/a	0	0	0
4238340	REC_WORD	wordpools/wasnorm_wordpool_576.txt	LTP306	ltpFR2	12	18	SNACK	1331	n/a	n/a	0	0	0
4240729	REC_WORD	wordpools/wasnorm_wordpool_576.txt	LTP306	ltpFR2	12	18	PARTNER	1017	n/a	n/a	0	0	0
4243751	REC_WORD	wordpools/wasnorm_wordpool_576.txt	LTP306	ltpFR2	12	18	DANDRUFF	439	n/a	n/a	0	0	0
4244782	REC_WORD	wordpools/wasnorm_wordpool_576.txt	LTP306	ltpFR2	12	18	PLAYGROUND	1087	n/a	n/a	0	0	0
4245752	REC_WORD	wordpools/wasnorm_wordpool_576.txt	LTP306	ltpFR2	12	18	SALMON	1227	n/a	n/a	0	0	0
4261413	REC_WORD	wordpools/wasnorm_wordpool_576.txt	LTP306	ltpFR2	12	18	COIN	343	n/a	n/a	0	0	0
4311324	DISTRACTOR	n/a	LTP306	ltpFR2	12	19	n/a	n/a	n/a	n/a	0	0	0
4311324	START	n/a	LTP306	ltpFR2	12	n/a	n/a	n/a	27	n/a	n/a	n/a	n/a
4311337	PROB	n/a	LTP306	ltpFR2	12	n/a	n/a	n/a	27	9	1	5	3
4313527	PROB	n/a	LTP306	ltpFR2	12	n/a	n/a	n/a	27	20	3	8	9
4314978	PROB	n/a	LTP306	ltpFR2	12	n/a	n/a	n/a	27	11	2	3	6
4316281	PROB	n/a	LTP306	ltpFR2	12	n/a	n/a	n/a	27	19	7	6	6
4317827	PROB	n/a	LTP306	ltpFR2	12	n/a	n/a	n/a	27	19	4	9	6
4319528	PROB	n/a	LTP306	ltpFR2	12	n/a	n/a	n/a	27	18	2	9	7
4320995	PROB	n/a	LTP306	ltpFR2	12	n/a	n/a	n/a	27	15	5	5	5
4321999	PROB	n/a	LTP306	ltpFR2	12	n/a	n/a	n/a	27	18	8	4	6
4323498	PROB	n/a	LTP306	ltpFR2	12	n/a	n/a	n/a	27	17	8	1	8
4324769	PROB	n/a	LTP306	ltpFR2	12	n/a	n/a	n/a	27	22	7	7	8
4326167	PROB	n/a	LTP306	ltpFR2	12	n/a	n/a	n/a	27	16	6	3	7
4328536	PROB	n/a	LTP306	ltpFR2	12	n/a	n/a	n/a	27	11	9	1	1
4329570	PROB	n/a	LTP306	ltpFR2	12	n/a	n/a	n/a	27	13	1	6	6
4330804	PROB	n/a	LTP306	ltpFR2	12	n/a	n/a	n/a	27	15	8	4	3
4332442	PROB	n/a	LTP306	ltpFR2	12	n/a	n/a	n/a	27	8	2	1	5
4333541	PROB	n/a	LTP306	ltpFR2	12	n/a	n/a	n/a	27	13	3	2	8
4334855	STOP	n/a	LTP306	ltpFR2	12	n/a	n/a	n/a	27	n/a	n/a	n/a	n/a
4336328	WORD	wordpools/wasnorm_wordpool_576.txt	LTP306	ltpFR2	12	19	BASEMENT	94	n/a	n/a	0	0	0
