mstime	trial_type	stim_file	subject	experiment	session	trial	task	item_name	item_num	recog_conf	resp	answer	test_x	test_y	test_z	color_b	color_g	color_r	case	font
0	SESS_START	n/a	LTP094	ltpFR	13	n/a	n/a	n/a	n/a	n/a	n/a	n/a	0	0	0	n/a	n/a	n/a	n/a	n/a
23686	START	n/a	LTP094	ltpFR	13	n/a	n/a	n/a	n/a	n/a	n/a	n/a	n/a	n/a	n/a	n/a	n/a	n/a	n/a	n/a
23710	PROB	n/a	LTP094	ltpFR	13	n/a	n/a	n/a	n/a	n/a	n/a	18	8	5	5	n/a	n/a	n/a	n/a	n/a
26224	PROB	n/a	LTP094	ltpFR	13	n/a	n/a	n/a	n/a	n/a	n/a	12	9	1	2	n/a	n/a	n/a	n/a	n/a
27756	PROB	n/a	LTP094	ltpFR	13	n/a	n/a	n/a	n/a	n/a	n/a	19	4	9	6	n/a	n/a	n/a	n/a	n/a
29803	PROB	n/a	LTP094	ltpFR	13	n/a	n/a	n/a	n/a	n/a	n/a	18	9	8	1	n/a	n/a	n/a	n/a	n/a
31709	PROB	n/a	LTP094	ltpFR	13	n/a	n/a	n/a	n/a	n/a	n/a	12	6	5	1	n/a	n/a	n/a	n/a	n/a
32999	PROB	n/a	LTP094	ltpFR	13	n/a	n/a	n/a	n/a	n/a	n/a	14	7	2	5	n/a	n/a	n/a	n/a	n/a
35014	PROB	n/a	LTP094	ltpFR	13	n/a	n/a	n/a	n/a	n/a	n/a	16	4	3	9	n/a	n/a	n/a	n/a	n/a
38301	PROB	n/a	LTP094	ltpFR	13	n/a	n/a	n/a	n/a	n/a	n/a	10	1	4	5	n/a	n/a	n/a	n/a	n/a
39825	PROB	n/a	LTP094	ltpFR	13	n/a	n/a	n/a	n/a	n/a	n/a	13	3	9	1	n/a	n/a	n/a	n/a	n/a
41731	PROB	n/a	LTP094	ltpFR	13	n/a	n/a	n/a	n/a	n/a	n/a	14	2	3	9	n/a	n/a	n/a	n/a	n/a
43308	STOP	n/a	LTP094	ltpFR	13	n/a	n/a	n/a	n/a	n/a	n/a	n/a	n/a	n/a	n/a	n/a	n/a	n/a	n/a	n/a
64554	START	n/a	LTP094	ltpFR	13	n/a	n/a	n/a	n/a	n/a	n/a	n/a	n/a	n/a	n/a	n/a	n/a	n/a	n/a	n/a
66061	PROB	n/a	LTP094	ltpFR	13	n/a	n/a	n/a	n/a	n/a	n/a	22	5	9	8	n/a	n/a	n/a	n/a	n/a
69315	PROB	n/a	LTP094	ltpFR	13	n/a	n/a	n/a	n/a	n/a	n/a	10	3	3	4	n/a	n/a	n/a	n/a	n/a
70864	PROB	n/a	LTP094	ltpFR	13	n/a	n/a	n/a	n/a	n/a	n/a	21	7	7	7	n/a	n/a	n/a	n/a	n/a
72364	STOP	n/a	LTP094	ltpFR	13	n/a	n/a	n/a	n/a	n/a	n/a	n/a	n/a	n/a	n/a	n/a	n/a	n/a	n/a	n/a
73585	WORD	wordpools/wasnorm_wordpool.txt	LTP094	ltpFR	13	1	0	BARTENDER	92	5	0	n/a	0	0	0	1	0.412841796875	0.57763671875	upper	../fonts/zerothre.ttf
76590	START	n/a	LTP094	ltpFR	13	n/a	n/a	n/a	n/a	n/a	n/a	n/a	n/a	n/a	n/a	n/a	n/a	n/a	n/a	n/a
77739	PROB	n/a	LTP094	ltpFR	13	n/a	n/a	n/a	n/a	n/a	n/a	9	4	1	4	n/a	n/a	n/a	n/a	n/a
79270	PROB	n/a	LTP094	ltpFR	13	n/a	n/a	n/a	n/a	n/a	n/a	16	8	4	4	n/a	n/a	n/a	n/a	n/a
80860	PROB	n/a	LTP094	ltpFR	13	n/a	n/a	n/a	n/a	n/a	n/a	16	5	8	3	n/a	n/a	n/a	n/a	n/a
84590	STOP	n/a	LTP094	ltpFR	13	n/a	n/a	n/a	n/a	n/a	n/a	n/a	n/a	n/a	n/a	n/a	n/a	n/a	n/a	n/a
85771	WORD	wordpools/wasnorm_wordpool.txt	LTP094	ltpFR	13	1	0	BOX	159	n/a	0	n/a	0	0	0	1	0.412841796875	0.57763671875	upper	../fonts/zerothre.ttf
88777	START	n/a	LTP094	ltpFR	13	n/a	n/a	n/a	n/a	n/a	n/a	n/a	n/a	n/a	n/a	n/a	n/a	n/a	n/a	n/a
89933	PROB	n/a	LTP094	ltpFR	13	n/a	n/a	n/a	n/a	n/a	n/a	21	9	7	5	n/a	n/a	n/a	n/a	n/a
91572	PROB	n/a	LTP094	ltpFR	13	n/a	n/a	n/a	n/a	n/a	n/a	12	6	2	4	n/a	n/a	n/a	n/a	n/a
93188	PROB	n/a	LTP094	ltpFR	13	n/a	n/a	n/a	n/a	n/a	n/a	15	3	3	9	n/a	n/a	n/a	n/a	n/a
94460	PROB	n/a	LTP094	ltpFR	13	n/a	n/a	n/a	n/a	n/a	n/a	11	1	7	3	n/a	n/a	n/a	n/a	n/a
95861	STOP	n/a	LTP094	ltpFR	13	n/a	n/a	n/a	n/a	n/a	n/a	n/a	n/a	n/a	n/a	n/a	n/a	n/a	n/a	n/a
97791	WORD	wordpools/wasnorm_wordpool.txt	LTP094	ltpFR	13	1	1	SHOELACE	1289	n/a	0	n/a	0	0	0	0	0.5869140625	0.422607421875	lower	../fonts/amplitud.ttf
100796	START	n/a	LTP094	ltpFR	13	n/a	n/a	n/a	n/a	n/a	n/a	n/a	n/a	n/a	n/a	n/a	n/a	n/a	n/a	n/a
101911	PROB	n/a	LTP094	ltpFR	13	n/a	n/a	n/a	n/a	n/a	n/a	21	9	9	3	n/a	n/a	n/a	n/a	n/a
103458	PROB	n/a	LTP094	ltpFR	13	n/a	n/a	n/a	n/a	n/a	n/a	21	7	8	6	n/a	n/a	n/a	n/a	n/a
105091	PROB	n/a	LTP094	ltpFR	13	n/a	n/a	n/a	n/a	n/a	n/a	13	1	3	9	n/a	n/a	n/a	n/a	n/a
107669	STOP	n/a	LTP094	ltpFR	13	n/a	n/a	n/a	n/a	n/a	n/a	n/a	n/a	n/a	n/a	n/a	n/a	n/a	n/a	n/a
109744	WORD	wordpools/wasnorm_wordpool.txt	LTP094	ltpFR	13	1	1	SUBURB	1399	n/a	0	n/a	0	0	0	0	0.5869140625	0.422607421875	lower	../fonts/amplitud.ttf
112749	START	n/a	LTP094	ltpFR	13	n/a	n/a	n/a	n/a	n/a	n/a	n/a	n/a	n/a	n/a	n/a	n/a	n/a	n/a	n/a
113897	PROB	n/a	LTP094	ltpFR	13	n/a	n/a	n/a	n/a	n/a	n/a	14	1	4	9	n/a	n/a	n/a	n/a	n/a
115762	PROB	n/a	LTP094	ltpFR	13	n/a	n/a	n/a	n/a	n/a	n/a	9	2	5	2	n/a	n/a	n/a	n/a	n/a
117575	PROB	n/a	LTP094	ltpFR	13	n/a	n/a	n/a	n/a	n/a	n/a	12	7	2	3	n/a	n/a	n/a	n/a	n/a
118933	PROB	n/a	LTP094	ltpFR	13	n/a	n/a	n/a	n/a	n/a	n/a	5	1	1	3	n/a	n/a	n/a	n/a	n/a
120436	STOP	n/a	LTP094	ltpFR	13	n/a	n/a	n/a	n/a	n/a	n/a	n/a	n/a	n/a	n/a	n/a	n/a	n/a	n/a	n/a
121671	WORD	wordpools/wasnorm_wordpool.txt	LTP094	ltpFR	13	1	0	TREE	1502	n/a	1	n/a	0	0	0	1	0.412841796875	0.57763671875	upper	../fonts/zerothre.ttf
124677	START	n/a	LTP094	ltpFR	13	n/a	n/a	n/a	n/a	n/a	n/a	n/a	n/a	n/a	n/a	n/a	n/a	n/a	n/a	n/a
125558	PROB	n/a	LTP094	ltpFR	13	n/a	n/a	n/a	n/a	n/a	n/a	20	5	6	9	n/a	n/a	n/a	n/a	n/a
130585	PROB	n/a	LTP094	ltpFR	13	n/a	n/a	n/a	n/a	n/a	n/a	14	5	1	8	n/a	n/a	n/a	n/a	n/a
132356	STOP	n/a	LTP094	ltpFR	13	n/a	n/a	n/a	n/a	n/a	n/a	n/a	n/a	n/a	n/a	n/a	n/a	n/a	n/a	n/a
133590	WORD	wordpools/wasnorm_wordpool.txt	LTP094	ltpFR	13	1	0	COBBLER	335	n/a	0	n/a	0	0	0	1	0.412841796875	0.57763671875	upper	../fonts/zerothre.ttf
136595	START	n/a	LTP094	ltpFR	13	n/a	n/a	n/a	n/a	n/a	n/a	n/a	n/a	n/a	n/a	n/a	n/a	n/a	n/a	n/a
137744	PROB	n/a	LTP094	ltpFR	13	n/a	n/a	n/a	n/a	n/a	n/a	20	8	7	5	n/a	n/a	n/a	n/a	n/a
139308	PROB	n/a	LTP094	ltpFR	13	n/a	n/a	n/a	n/a	n/a	n/a	12	5	4	3	n/a	n/a	n/a	n/a	n/a
142056	PROB	n/a	LTP094	ltpFR	13	n/a	n/a	n/a	n/a	n/a	n/a	17	3	6	8	n/a	n/a	n/a	n/a	n/a
143965	STOP	n/a	LTP094	ltpFR	13	n/a	n/a	n/a	n/a	n/a	n/a	n/a	n/a	n/a	n/a	n/a	n/a	n/a	n/a	n/a
145760	WORD	wordpools/wasnorm_wordpool.txt	LTP094	ltpFR	13	1	0	SOCIETY	1338	n/a	1	n/a	0	0	0	1	0.412841796875	0.57763671875	upper	../fonts/zerothre.ttf
148765	START	n/a	LTP094	ltpFR	13	n/a	n/a	n/a	n/a	n/a	n/a	n/a	n/a	n/a	n/a	n/a	n/a	n/a	n/a	n/a
149764	PROB	n/a	LTP094	ltpFR	13	n/a	n/a	n/a	n/a	n/a	n/a	12	1	6	5	n/a	n/a	n/a	n/a	n/a
151054	PROB	n/a	LTP094	ltpFR	13	n/a	n/a	n/a	n/a	n/a	n/a	20	5	6	9	n/a	n/a	n/a	n/a	n/a
153226	PROB	n/a	LTP094	ltpFR	13	n/a	n/a	n/a	n/a	n/a	n/a	18	6	5	7	n/a	n/a	n/a	n/a	n/a
154874	PROB	n/a	LTP094	ltpFR	13	n/a	n/a	n/a	n/a	n/a	n/a	16	7	8	1	n/a	n/a	n/a	n/a	n/a
156133	STOP	n/a	LTP094	ltpFR	13	n/a	n/a	n/a	n/a	n/a	n/a	n/a	n/a	n/a	n/a	n/a	n/a	n/a	n/a	n/a
157879	WORD	wordpools/wasnorm_wordpool.txt	LTP094	ltpFR	13	1	0	UNICORN	1538	n/a	0	n/a	0	0	0	1	0.412841796875	0.57763671875	upper	../fonts/zerothre.ttf
160885	START	n/a	LTP094	ltpFR	13	n/a	n/a	n/a	n/a	n/a	n/a	n/a	n/a	n/a	n/a	n/a	n/a	n/a	n/a	n/a
161841	PROB	n/a	LTP094	ltpFR	13	n/a	n/a	n/a	n/a	n/a	n/a	19	5	9	5	n/a	n/a	n/a	n/a	n/a
163914	PROB	n/a	LTP094	ltpFR	13	n/a	n/a	n/a	n/a	n/a	n/a	16	8	4	4	n/a	n/a	n/a	n/a	n/a
165345	PROB	n/a	LTP094	ltpFR	13	n/a	n/a	n/a	n/a	n/a	n/a	14	6	3	5	n/a	n/a	n/a	n/a	n/a
168733	STOP	n/a	LTP094	ltpFR	13	n/a	n/a	n/a	n/a	n/a	n/a	n/a	n/a	n/a	n/a	n/a	n/a	n/a	n/a	n/a
169865	WORD	wordpools/wasnorm_wordpool.txt	LTP094	ltpFR	13	1	0	STUMP	1396	n/a	0	n/a	0	0	0	1	0.412841796875	0.57763671875	upper	../fonts/zerothre.ttf
172871	START	n/a	LTP094	ltpFR	13	n/a	n/a	n/a	n/a	n/a	n/a	n/a	n/a	n/a	n/a	n/a	n/a	n/a	n/a	n/a
174052	PROB	n/a	LTP094	ltpFR	13	n/a	n/a	n/a	n/a	n/a	n/a	17	3	6	8	n/a	n/a	n/a	n/a	n/a
176440	PROB	n/a	LTP094	ltpFR	13	n/a	n/a	n/a	n/a	n/a	n/a	20	7	5	8	n/a	n/a	n/a	n/a	n/a
178098	PROB	n/a	LTP094	ltpFR	13	n/a	n/a	n/a	n/a	n/a	n/a	24	9	6	9	n/a	n/a	n/a	n/a	n/a
180388	STOP	n/a	LTP094	ltpFR	13	n/a	n/a	n/a	n/a	n/a	n/a	n/a	n/a	n/a	n/a	n/a	n/a	n/a	n/a	n/a
182035	WORD	wordpools/wasnorm_wordpool.txt	LTP094	ltpFR	13	1	0	BUTTER	205	n/a	0	n/a	0	0	0	1	0.412841796875	0.57763671875	upper	../fonts/zerothre.ttf
185040	START	n/a	LTP094	ltpFR	13	n/a	n/a	n/a	n/a	n/a	n/a	n/a	n/a	n/a	n/a	n/a	n/a	n/a	n/a	n/a
185905	PROB	n/a	LTP094	ltpFR	13	n/a	n/a	n/a	n/a	n/a	n/a	15	3	7	5	n/a	n/a	n/a	n/a	n/a
187261	PROB	n/a	LTP094	ltpFR	13	n/a	n/a	n/a	n/a	n/a	n/a	9	2	1	6	n/a	n/a	n/a	n/a	n/a
189558	PROB	n/a	LTP094	ltpFR	13	n/a	n/a	n/a	n/a	n/a	n/a	13	6	1	6	n/a	n/a	n/a	n/a	n/a
193040	STOP	n/a	LTP094	ltpFR	13	n/a	n/a	n/a	n/a	n/a	n/a	n/a	n/a	n/a	n/a	n/a	n/a	n/a	n/a	n/a
194187	WORD	wordpools/wasnorm_wordpool.txt	LTP094	ltpFR	13	1	1	GARLIC	624	n/a	1	n/a	0	0	0	0	0.5869140625	0.422607421875	lower	../fonts/amplitud.ttf
197192	START	n/a	LTP094	ltpFR	13	n/a	n/a	n/a	n/a	n/a	n/a	n/a	n/a	n/a	n/a	n/a	n/a	n/a	n/a	n/a
198024	PROB	n/a	LTP094	ltpFR	13	n/a	n/a	n/a	n/a	n/a	n/a	12	3	8	1	n/a	n/a	n/a	n/a	n/a
199472	PROB	n/a	LTP094	ltpFR	13	n/a	n/a	n/a	n/a	n/a	n/a	12	8	1	3	n/a	n/a	n/a	n/a	n/a
200755	PROB	n/a	LTP094	ltpFR	13	n/a	n/a	n/a	n/a	n/a	n/a	17	4	5	8	n/a	n/a	n/a	n/a	n/a
202327	PROB	n/a	LTP094	ltpFR	13	n/a	n/a	n/a	n/a	n/a	n/a	16	1	6	9	n/a	n/a	n/a	n/a	n/a
204324	STOP	n/a	LTP094	ltpFR	13	n/a	n/a	n/a	n/a	n/a	n/a	n/a	n/a	n/a	n/a	n/a	n/a	n/a	n/a	n/a
206140	WORD	wordpools/wasnorm_wordpool.txt	LTP094	ltpFR	13	1	1	ZOO	1637	n/a	1	n/a	0	0	0	0	0.5869140625	0.422607421875	lower	../fonts/amplitud.ttf
209145	START	n/a	LTP094	ltpFR	13	n/a	n/a	n/a	n/a	n/a	n/a	n/a	n/a	n/a	n/a	n/a	n/a	n/a	n/a	n/a
210077	PROB	n/a	LTP094	ltpFR	13	n/a	n/a	n/a	n/a	n/a	n/a	20	4	7	9	n/a	n/a	n/a	n/a	n/a
212691	PROB	n/a	LTP094	ltpFR	13	n/a	n/a	n/a	n/a	n/a	n/a	23	8	5	9	n/a	n/a	n/a	n/a	n/a
216181	STOP	n/a	LTP094	ltpFR	13	n/a	n/a	n/a	n/a	n/a	n/a	n/a	n/a	n/a	n/a	n/a	n/a	n/a	n/a	n/a
218316	WORD	wordpools/wasnorm_wordpool.txt	LTP094	ltpFR	13	1	1	POSSUM	1112	n/a	1	n/a	0	0	0	0	0.5869140625	0.422607421875	lower	../fonts/amplitud.ttf
221322	START	n/a	LTP094	ltpFR	13	n/a	n/a	n/a	n/a	n/a	n/a	n/a	n/a	n/a	n/a	n/a	n/a	n/a	n/a	n/a
222437	PROB	n/a	LTP094	ltpFR	13	n/a	n/a	n/a	n/a	n/a	n/a	18	5	4	9	n/a	n/a	n/a	n/a	n/a
223953	PROB	n/a	LTP094	ltpFR	13	n/a	n/a	n/a	n/a	n/a	n/a	17	8	2	7	n/a	n/a	n/a	n/a	n/a
225466	PROB	n/a	LTP094	ltpFR	13	n/a	n/a	n/a	n/a	n/a	n/a	20	3	8	9	n/a	n/a	n/a	n/a	n/a
229322	STOP	n/a	LTP094	ltpFR	13	n/a	n/a	n/a	n/a	n/a	n/a	n/a	n/a	n/a	n/a	n/a	n/a	n/a	n/a	n/a
230204	WORD	wordpools/wasnorm_wordpool.txt	LTP094	ltpFR	13	1	1	TERMINAL	1450	n/a	0	n/a	0	0	0	0	0.5869140625	0.422607421875	lower	../fonts/amplitud.ttf
233209	START	n/a	LTP094	ltpFR	13	n/a	n/a	n/a	n/a	n/a	n/a	n/a	n/a	n/a	n/a	n/a	n/a	n/a	n/a	n/a
234066	PROB	n/a	LTP094	ltpFR	13	n/a	n/a	n/a	n/a	n/a	n/a	12	2	7	3	n/a	n/a	n/a	n/a	n/a
235397	PROB	n/a	LTP094	ltpFR	13	n/a	n/a	n/a	n/a	n/a	n/a	10	5	2	3	n/a	n/a	n/a	n/a	n/a
237853	PROB	n/a	LTP094	ltpFR	13	n/a	n/a	n/a	n/a	n/a	n/a	20	5	9	6	n/a	n/a	n/a	n/a	n/a
241209	STOP	n/a	LTP094	ltpFR	13	n/a	n/a	n/a	n/a	n/a	n/a	n/a	n/a	n/a	n/a	n/a	n/a	n/a	n/a	n/a
242289	WORD	wordpools/wasnorm_wordpool.txt	LTP094	ltpFR	13	1	1	FIGHTER	564	n/a	1	n/a	0	0	0	0	0.5869140625	0.422607421875	lower	../fonts/amplitud.ttf
245294	START	n/a	LTP094	ltpFR	13	n/a	n/a	n/a	n/a	n/a	n/a	n/a	n/a	n/a	n/a	n/a	n/a	n/a	n/a	n/a
246409	PROB	n/a	LTP094	ltpFR	13	n/a	n/a	n/a	n/a	n/a	n/a	21	3	9	9	n/a	n/a	n/a	n/a	n/a
248431	PROB	n/a	LTP094	ltpFR	13	n/a	n/a	n/a	n/a	n/a	n/a	14	7	1	6	n/a	n/a	n/a	n/a	n/a
249831	PROB	n/a	LTP094	ltpFR	13	n/a	n/a	n/a	n/a	n/a	n/a	16	1	7	8	n/a	n/a	n/a	n/a	n/a
253293	STOP	n/a	LTP094	ltpFR	13	n/a	n/a	n/a	n/a	n/a	n/a	n/a	n/a	n/a	n/a	n/a	n/a	n/a	n/a	n/a
254383	WORD	wordpools/wasnorm_wordpool.txt	LTP094	ltpFR	13	1	1	VALVE	1546	n/a	0	n/a	0	0	0	0	0.5869140625	0.422607421875	lower	../fonts/amplitud.ttf
257388	START	n/a	LTP094	ltpFR	13	n/a	n/a	n/a	n/a	n/a	n/a	n/a	n/a	n/a	n/a	n/a	n/a	n/a	n/a	n/a
258578	PROB	n/a	LTP094	ltpFR	13	n/a	n/a	n/a	n/a	n/a	n/a	14	3	7	4	n/a	n/a	n/a	n/a	n/a
261475	PROB	n/a	LTP094	ltpFR	13	n/a	n/a	n/a	n/a	n/a	n/a	23	6	9	8	n/a	n/a	n/a	n/a	n/a
263207	PROB	n/a	LTP094	ltpFR	13	n/a	n/a	n/a	n/a	n/a	n/a	22	9	6	7	n/a	n/a	n/a	n/a	n/a
264861	STOP	n/a	LTP094	ltpFR	13	n/a	n/a	n/a	n/a	n/a	n/a	n/a	n/a	n/a	n/a	n/a	n/a	n/a	n/a	n/a
267170	REC_START	n/a	LTP094	ltpFR	13	1	n/a	n/a	n/a	n/a	n/a	n/a	0	0	0	n/a	n/a	n/a	n/a	n/a
268602	REC_WORD	wordpools/wasnorm_wordpool.txt	LTP094	ltpFR	13	1	1	POSSUM	1112	n/a	1	n/a	0	0	0	n/a	n/a	n/a	n/a	n/a
269460	REC_WORD	wordpools/wasnorm_wordpool.txt	LTP094	ltpFR	13	1	1	SHOELACE	1289	n/a	0	n/a	0	0	0	n/a	n/a	n/a	n/a	n/a
270457	REC_WORD	wordpools/wasnorm_wordpool.txt	LTP094	ltpFR	13	1	0	UNICORN	1538	n/a	0	n/a	0	0	0	n/a	n/a	n/a	n/a	n/a
271425	REC_WORD	wordpools/wasnorm_wordpool.txt	LTP094	ltpFR	13	1	n/a	FOX	598	n/a	n/a	n/a	0	0	0	n/a	n/a	n/a	n/a	n/a
272308	REC_WORD	wordpools/wasnorm_wordpool.txt	LTP094	ltpFR	13	1	0	TREE	1502	n/a	1	n/a	0	0	0	n/a	n/a	n/a	n/a	n/a
273325	REC_WORD	wordpools/wasnorm_wordpool.txt	LTP094	ltpFR	13	1	0	STUMP	1396	n/a	0	n/a	0	0	0	n/a	n/a	n/a	n/a	n/a
275386	REC_WORD	wordpools/wasnorm_wordpool.txt	LTP094	ltpFR	13	1	1	SUBURB	1399	n/a	0	n/a	0	0	0	n/a	n/a	n/a	n/a	n/a
277496	REC_WORD	wordpools/wasnorm_wordpool.txt	LTP094	ltpFR	13	1	1	GARLIC	624	n/a	1	n/a	0	0	0	n/a	n/a	n/a	n/a	n/a
279686	REC_WORD	wordpools/wasnorm_wordpool.txt	LTP094	ltpFR	13	1	1	VALVE	1546	n/a	0	n/a	0	0	0	n/a	n/a	n/a	n/a	n/a
282739	REC_WORD	wordpools/wasnorm_wordpool.txt	LTP094	ltpFR	13	1	0	BUTTER	205	n/a	0	n/a	0	0	0	n/a	n/a	n/a	n/a	n/a
289982	REC_WORD	wordpools/wasnorm_wordpool.txt	LTP094	ltpFR	13	1	0	SOCIETY	1338	n/a	1	n/a	0	0	0	n/a	n/a	n/a	n/a	n/a
292427	REC_WORD	wordpools/wasnorm_wordpool.txt	LTP094	ltpFR	13	1	0	BARTENDER	92	n/a	0	n/a	0	0	0	n/a	n/a	n/a	n/a	n/a
308970	REC_WORD	wordpools/wasnorm_wordpool.txt	LTP094	ltpFR	13	1	1	TERMINAL	1450	n/a	0	n/a	0	0	0	n/a	n/a	n/a	n/a	n/a
338842	REC_WORD	wordpools/wasnorm_wordpool.txt	LTP094	ltpFR	13	1	0	COBBLER	335	n/a	0	n/a	0	0	0	n/a	n/a	n/a	n/a	n/a
345786	WORD	wordpools/wasnorm_wordpool.txt	LTP094	ltpFR	13	2	1	CASHIER	254	n/a	1	n/a	0	0	0	0	0.5869140625	0.422607421875	lower	../fonts/amplitud.ttf
349740	WORD	wordpools/wasnorm_wordpool.txt	LTP094	ltpFR	13	2	1	PLAZA	1088	n/a	0	n/a	0	0	0	0	0.5869140625	0.422607421875	lower	../fonts/amplitud.ttf
353777	WORD	wordpools/wasnorm_wordpool.txt	LTP094	ltpFR	13	2	1	PAW	1029	n/a	1	n/a	0	0	0	0	0.5869140625	0.422607421875	lower	../fonts/amplitud.ttf
357805	WORD	wordpools/wasnorm_wordpool.txt	LTP094	ltpFR	13	2	1	SPIT	1354	n/a	0	n/a	0	0	0	0	0.5869140625	0.422607421875	lower	../fonts/amplitud.ttf
362009	WORD	wordpools/wasnorm_wordpool.txt	LTP094	ltpFR	13	2	1	BILL	126	n/a	0	n/a	0	0	0	0	0.5869140625	0.422607421875	lower	../fonts/amplitud.ttf
365996	WORD	wordpools/wasnorm_wordpool.txt	LTP094	ltpFR	13	2	1	RAG	1160	n/a	0	n/a	0	0	0	0	0.5869140625	0.422607421875	lower	../fonts/amplitud.ttf
370058	WORD	wordpools/wasnorm_wordpool.txt	LTP094	ltpFR	13	2	1	COLOGNE	347	n/a	0	n/a	0	0	0	0	0.5869140625	0.422607421875	lower	../fonts/amplitud.ttf
374103	WORD	wordpools/wasnorm_wordpool.txt	LTP094	ltpFR	13	2	1	ROSE	1212	n/a	1	n/a	0	0	0	0	0.5869140625	0.422607421875	lower	../fonts/amplitud.ttf
378015	WORD	wordpools/wasnorm_wordpool.txt	LTP094	ltpFR	13	2	1	COLT	349	n/a	1	n/a	0	0	0	0	0.5869140625	0.422607421875	lower	../fonts/amplitud.ttf
382119	WORD	wordpools/wasnorm_wordpool.txt	LTP094	ltpFR	13	2	1	ZEBRA	1635	n/a	1	n/a	0	0	0	0	0.5869140625	0.422607421875	lower	../fonts/amplitud.ttf
386106	WORD	wordpools/wasnorm_wordpool.txt	LTP094	ltpFR	13	2	1	TROMBONE	1508	n/a	0	n/a	0	0	0	0	0.5869140625	0.422607421875	lower	../fonts/amplitud.ttf
390068	WORD	wordpools/wasnorm_wordpool.txt	LTP094	ltpFR	13	2	1	CONDUCTOR	362	n/a	1	n/a	0	0	0	0	0.5869140625	0.422607421875	lower	../fonts/amplitud.ttf
394096	WORD	wordpools/wasnorm_wordpool.txt	LTP094	ltpFR	13	2	1	BRIDGE	174	n/a	0	n/a	0	0	0	0	0.5869140625	0.422607421875	lower	../fonts/amplitud.ttf
398167	WORD	wordpools/wasnorm_wordpool.txt	LTP094	ltpFR	13	2	1	KITTEN	780	n/a	1	n/a	0	0	0	0	0.5869140625	0.422607421875	lower	../fonts/amplitud.ttf
402286	WORD	wordpools/wasnorm_wordpool.txt	LTP094	ltpFR	13	2	1	TURNIP	1521	n/a	1	n/a	0	0	0	0	0.5869140625	0.422607421875	lower	../fonts/amplitud.ttf
406099	WORD	wordpools/wasnorm_wordpool.txt	LTP094	ltpFR	13	2	1	STRANGER	1389	n/a	1	n/a	0	0	0	0	0.5869140625	0.422607421875	lower	../fonts/amplitud.ttf
409104	START	n/a	LTP094	ltpFR	13	n/a	n/a	n/a	n/a	n/a	n/a	n/a	n/a	n/a	n/a	n/a	n/a	n/a	n/a	n/a
410236	PROB	n/a	LTP094	ltpFR	13	n/a	n/a	n/a	n/a	n/a	n/a	8	4	3	1	n/a	n/a	n/a	n/a	n/a
411876	PROB	n/a	LTP094	ltpFR	13	n/a	n/a	n/a	n/a	n/a	n/a	16	2	5	9	n/a	n/a	n/a	n/a	n/a
413606	PROB	n/a	LTP094	ltpFR	13	n/a	n/a	n/a	n/a	n/a	n/a	11	1	8	2	n/a	n/a	n/a	n/a	n/a
415006	PROB	n/a	LTP094	ltpFR	13	n/a	n/a	n/a	n/a	n/a	n/a	20	6	6	8	n/a	n/a	n/a	n/a	n/a
416404	STOP	n/a	LTP094	ltpFR	13	n/a	n/a	n/a	n/a	n/a	n/a	n/a	n/a	n/a	n/a	n/a	n/a	n/a	n/a	n/a
418893	REC_START	n/a	LTP094	ltpFR	13	2	n/a	n/a	n/a	n/a	n/a	n/a	0	0	0	n/a	n/a	n/a	n/a	n/a
420025	REC_WORD	wordpools/wasnorm_wordpool.txt	LTP094	ltpFR	13	2	1	COLT	349	n/a	1	n/a	0	0	0	n/a	n/a	n/a	n/a	n/a
421961	REC_WORD	wordpools/wasnorm_wordpool.txt	LTP094	ltpFR	13	2	1	TURNIP	1521	n/a	1	n/a	0	0	0	n/a	n/a	n/a	n/a	n/a
422809	REC_WORD	wordpools/wasnorm_wordpool.txt	LTP094	ltpFR	13	2	1	ROSE	1212	n/a	1	n/a	0	0	0	n/a	n/a	n/a	n/a	n/a
426540	REC_WORD	wordpools/wasnorm_wordpool.txt	LTP094	ltpFR	13	2	1	KITTEN	780	n/a	1	n/a	0	0	0	n/a	n/a	n/a	n/a	n/a
439571	REC_WORD	wordpools/wasnorm_wordpool.txt	LTP094	ltpFR	13	2	1	CASHIER	254	n/a	1	n/a	0	0	0	n/a	n/a	n/a	n/a	n/a
440638	REC_WORD	wordpools/wasnorm_wordpool.txt	LTP094	ltpFR	13	2	1	STRANGER	1389	n/a	1	n/a	0	0	0	n/a	n/a	n/a	n/a	n/a
449768	REC_WORD	wordpools/wasnorm_wordpool.txt	LTP094	ltpFR	13	2	1	PAW	1029	n/a	1	n/a	0	0	0	n/a	n/a	n/a	n/a	n/a
463256	REC_WORD	wordpools/wasnorm_wordpool.txt	LTP094	ltpFR	13	2	1	SPIT	1354	n/a	0	n/a	0	0	0	n/a	n/a	n/a	n/a	n/a
496610	START	n/a	LTP094	ltpFR	13	n/a	n/a	n/a	n/a	n/a	n/a	n/a	n/a	n/a	n/a	n/a	n/a	n/a	n/a	n/a
498117	PROB	n/a	LTP094	ltpFR	13	n/a	n/a	n/a	n/a	n/a	n/a	12	1	9	2	n/a	n/a	n/a	n/a	n/a
500215	PROB	n/a	LTP094	ltpFR	13	n/a	n/a	n/a	n/a	n/a	n/a	14	5	2	7	n/a	n/a	n/a	n/a	n/a
502544	PROB	n/a	LTP094	ltpFR	13	n/a	n/a	n/a	n/a	n/a	n/a	16	9	1	6	n/a	n/a	n/a	n/a	n/a
503981	STOP	n/a	LTP094	ltpFR	13	n/a	n/a	n/a	n/a	n/a	n/a	n/a	n/a	n/a	n/a	n/a	n/a	n/a	n/a	n/a
505474	WORD	wordpools/wasnorm_wordpool.txt	LTP094	ltpFR	13	3	0	CLIFF	322	n/a	1	n/a	0	0	0	1	0.412841796875	0.57763671875	upper	../fonts/zerothre.ttf
508480	START	n/a	LTP094	ltpFR	13	n/a	n/a	n/a	n/a	n/a	n/a	n/a	n/a	n/a	n/a	n/a	n/a	n/a	n/a	n/a
509486	PROB	n/a	LTP094	ltpFR	13	n/a	n/a	n/a	n/a	n/a	n/a	17	6	3	8	n/a	n/a	n/a	n/a	n/a
511818	PROB	n/a	LTP094	ltpFR	13	n/a	n/a	n/a	n/a	n/a	n/a	10	7	1	2	n/a	n/a	n/a	n/a	n/a
513158	PROB	n/a	LTP094	ltpFR	13	n/a	n/a	n/a	n/a	n/a	n/a	12	5	4	3	n/a	n/a	n/a	n/a	n/a
515877	STOP	n/a	LTP094	ltpFR	13	n/a	n/a	n/a	n/a	n/a	n/a	n/a	n/a	n/a	n/a	n/a	n/a	n/a	n/a	n/a
517460	WORD	wordpools/wasnorm_wordpool.txt	LTP094	ltpFR	13	3	0	CLIMBER	323	n/a	0	n/a	0	0	0	1	0.412841796875	0.57763671875	upper	../fonts/zerothre.ttf
520466	START	n/a	LTP094	ltpFR	13	n/a	n/a	n/a	n/a	n/a	n/a	n/a	n/a	n/a	n/a	n/a	n/a	n/a	n/a	n/a
521423	PROB	n/a	LTP094	ltpFR	13	n/a	n/a	n/a	n/a	n/a	n/a	20	7	4	9	n/a	n/a	n/a	n/a	n/a
523578	PROB	n/a	LTP094	ltpFR	13	n/a	n/a	n/a	n/a	n/a	n/a	12	3	2	7	n/a	n/a	n/a	n/a	n/a
525451	PROB	n/a	LTP094	ltpFR	13	n/a	n/a	n/a	n/a	n/a	n/a	16	1	6	9	n/a	n/a	n/a	n/a	n/a
528465	STOP	n/a	LTP094	ltpFR	13	n/a	n/a	n/a	n/a	n/a	n/a	n/a	n/a	n/a	n/a	n/a	n/a	n/a	n/a	n/a
529446	WORD	wordpools/wasnorm_wordpool.txt	LTP094	ltpFR	13	3	0	PLAID	1080	n/a	0	n/a	0	0	0	1	0.412841796875	0.57763671875	upper	../fonts/zerothre.ttf
532452	START	n/a	LTP094	ltpFR	13	n/a	n/a	n/a	n/a	n/a	n/a	n/a	n/a	n/a	n/a	n/a	n/a	n/a	n/a	n/a
533525	PROB	n/a	LTP094	ltpFR	13	n/a	n/a	n/a	n/a	n/a	n/a	10	4	3	3	n/a	n/a	n/a	n/a	n/a
535116	PROB	n/a	LTP094	ltpFR	13	n/a	n/a	n/a	n/a	n/a	n/a	14	7	4	3	n/a	n/a	n/a	n/a	n/a
537321	PROB	n/a	LTP094	ltpFR	13	n/a	n/a	n/a	n/a	n/a	n/a	20	7	9	4	n/a	n/a	n/a	n/a	n/a
539005	STOP	n/a	LTP094	ltpFR	13	n/a	n/a	n/a	n/a	n/a	n/a	n/a	n/a	n/a	n/a	n/a	n/a	n/a	n/a	n/a
541633	WORD	wordpools/wasnorm_wordpool.txt	LTP094	ltpFR	13	3	0	GRILL	661	n/a	0	n/a	0	0	0	1	0.412841796875	0.57763671875	upper	../fonts/zerothre.ttf
544639	START	n/a	LTP094	ltpFR	13	n/a	n/a	n/a	n/a	n/a	n/a	n/a	n/a	n/a	n/a	n/a	n/a	n/a	n/a	n/a
545594	PROB	n/a	LTP094	ltpFR	13	n/a	n/a	n/a	n/a	n/a	n/a	14	5	3	6	n/a	n/a	n/a	n/a	n/a
547909	PROB	n/a	LTP094	ltpFR	13	n/a	n/a	n/a	n/a	n/a	n/a	15	6	7	2	n/a	n/a	n/a	n/a	n/a
549498	PROB	n/a	LTP094	ltpFR	13	n/a	n/a	n/a	n/a	n/a	n/a	19	8	6	5	n/a	n/a	n/a	n/a	n/a
552237	STOP	n/a	LTP094	ltpFR	13	n/a	n/a	n/a	n/a	n/a	n/a	n/a	n/a	n/a	n/a	n/a	n/a	n/a	n/a	n/a
553602	WORD	wordpools/wasnorm_wordpool.txt	LTP094	ltpFR	13	3	0	PROTON	1132	n/a	0	n/a	0	0	0	1	0.412841796875	0.57763671875	upper	../fonts/zerothre.ttf
556607	START	n/a	LTP094	ltpFR	13	n/a	n/a	n/a	n/a	n/a	n/a	n/a	n/a	n/a	n/a	n/a	n/a	n/a	n/a	n/a
557715	PROB	n/a	LTP094	ltpFR	13	n/a	n/a	n/a	n/a	n/a	n/a	13	2	5	6	n/a	n/a	n/a	n/a	n/a
559870	PROB	n/a	LTP094	ltpFR	13	n/a	n/a	n/a	n/a	n/a	n/a	26	9	9	8	n/a	n/a	n/a	n/a	n/a
562984	PROB	n/a	LTP094	ltpFR	13	n/a	n/a	n/a	n/a	n/a	n/a	13	8	1	4	n/a	n/a	n/a	n/a	n/a
564420	STOP	n/a	LTP094	ltpFR	13	n/a	n/a	n/a	n/a	n/a	n/a	n/a	n/a	n/a	n/a	n/a	n/a	n/a	n/a	n/a
565563	WORD	wordpools/wasnorm_wordpool.txt	LTP094	ltpFR	13	3	0	CATCHER	258	n/a	0	n/a	0	0	0	1	0.412841796875	0.57763671875	upper	../fonts/zerothre.ttf
568568	START	n/a	LTP094	ltpFR	13	n/a	n/a	n/a	n/a	n/a	n/a	n/a	n/a	n/a	n/a	n/a	n/a	n/a	n/a	n/a
569608	PROB	n/a	LTP094	ltpFR	13	n/a	n/a	n/a	n/a	n/a	n/a	11	7	3	1	n/a	n/a	n/a	n/a	n/a
570833	PROB	n/a	LTP094	ltpFR	13	n/a	n/a	n/a	n/a	n/a	n/a	19	6	8	5	n/a	n/a	n/a	n/a	n/a
572930	PROB	n/a	LTP094	ltpFR	13	n/a	n/a	n/a	n/a	n/a	n/a	18	5	9	4	n/a	n/a	n/a	n/a	n/a
574544	PROB	n/a	LTP094	ltpFR	13	n/a	n/a	n/a	n/a	n/a	n/a	19	9	3	7	n/a	n/a	n/a	n/a	n/a
576364	STOP	n/a	LTP094	ltpFR	13	n/a	n/a	n/a	n/a	n/a	n/a	n/a	n/a	n/a	n/a	n/a	n/a	n/a	n/a	n/a
577391	WORD	wordpools/wasnorm_wordpool.txt	LTP094	ltpFR	13	3	0	DIME	466	n/a	0	n/a	0	0	0	1	0.412841796875	0.57763671875	upper	../fonts/zerothre.ttf
580396	START	n/a	LTP094	ltpFR	13	n/a	n/a	n/a	n/a	n/a	n/a	n/a	n/a	n/a	n/a	n/a	n/a	n/a	n/a	n/a
581311	PROB	n/a	LTP094	ltpFR	13	n/a	n/a	n/a	n/a	n/a	n/a	14	4	8	2	n/a	n/a	n/a	n/a	n/a
582652	PROB	n/a	LTP094	ltpFR	13	n/a	n/a	n/a	n/a	n/a	n/a	16	4	5	7	n/a	n/a	n/a	n/a	n/a
584192	PROB	n/a	LTP094	ltpFR	13	n/a	n/a	n/a	n/a	n/a	n/a	15	4	5	6	n/a	n/a	n/a	n/a	n/a
588395	STOP	n/a	LTP094	ltpFR	13	n/a	n/a	n/a	n/a	n/a	n/a	n/a	n/a	n/a	n/a	n/a	n/a	n/a	n/a	n/a
589285	WORD	wordpools/wasnorm_wordpool.txt	LTP094	ltpFR	13	3	0	NICKEL	950	n/a	0	n/a	0	0	0	1	0.412841796875	0.57763671875	upper	../fonts/zerothre.ttf
592291	START	n/a	LTP094	ltpFR	13	n/a	n/a	n/a	n/a	n/a	n/a	n/a	n/a	n/a	n/a	n/a	n/a	n/a	n/a	n/a
593489	PROB	n/a	LTP094	ltpFR	13	n/a	n/a	n/a	n/a	n/a	n/a	18	3	6	9	n/a	n/a	n/a	n/a	n/a
594855	PROB	n/a	LTP094	ltpFR	13	n/a	n/a	n/a	n/a	n/a	n/a	11	7	1	3	n/a	n/a	n/a	n/a	n/a
596803	PROB	n/a	LTP094	ltpFR	13	n/a	n/a	n/a	n/a	n/a	n/a	14	8	5	1	n/a	n/a	n/a	n/a	n/a
598267	PROB	n/a	LTP094	ltpFR	13	n/a	n/a	n/a	n/a	n/a	n/a	19	7	9	3	n/a	n/a	n/a	n/a	n/a
599773	STOP	n/a	LTP094	ltpFR	13	n/a	n/a	n/a	n/a	n/a	n/a	n/a	n/a	n/a	n/a	n/a	n/a	n/a	n/a	n/a
601338	WORD	wordpools/wasnorm_wordpool.txt	LTP094	ltpFR	13	3	0	RASPBERRY	1168	n/a	1	n/a	0	0	0	1	0.412841796875	0.57763671875	upper	../fonts/zerothre.ttf
604343	START	n/a	LTP094	ltpFR	13	n/a	n/a	n/a	n/a	n/a	n/a	n/a	n/a	n/a	n/a	n/a	n/a	n/a	n/a	n/a
605317	PROB	n/a	LTP094	ltpFR	13	n/a	n/a	n/a	n/a	n/a	n/a	13	4	3	6	n/a	n/a	n/a	n/a	n/a
606957	PROB	n/a	LTP094	ltpFR	13	n/a	n/a	n/a	n/a	n/a	n/a	13	3	3	7	n/a	n/a	n/a	n/a	n/a
608413	PROB	n/a	LTP094	ltpFR	13	n/a	n/a	n/a	n/a	n/a	n/a	15	4	2	9	n/a	n/a	n/a	n/a	n/a
609887	PROB	n/a	LTP094	ltpFR	13	n/a	n/a	n/a	n/a	n/a	n/a	12	1	9	2	n/a	n/a	n/a	n/a	n/a
611677	STOP	n/a	LTP094	ltpFR	13	n/a	n/a	n/a	n/a	n/a	n/a	n/a	n/a	n/a	n/a	n/a	n/a	n/a	n/a	n/a
613507	WORD	wordpools/wasnorm_wordpool.txt	LTP094	ltpFR	13	3	0	RUST	1219	n/a	0	n/a	0	0	0	1	0.412841796875	0.57763671875	upper	../fonts/zerothre.ttf
616512	START	n/a	LTP094	ltpFR	13	n/a	n/a	n/a	n/a	n/a	n/a	n/a	n/a	n/a	n/a	n/a	n/a	n/a	n/a	n/a
617453	PROB	n/a	LTP094	ltpFR	13	n/a	n/a	n/a	n/a	n/a	n/a	22	9	6	7	n/a	n/a	n/a	n/a	n/a
620258	PROB	n/a	LTP094	ltpFR	13	n/a	n/a	n/a	n/a	n/a	n/a	20	8	5	7	n/a	n/a	n/a	n/a	n/a
622165	PROB	n/a	LTP094	ltpFR	13	n/a	n/a	n/a	n/a	n/a	n/a	15	7	4	4	n/a	n/a	n/a	n/a	n/a
623420	STOP	n/a	LTP094	ltpFR	13	n/a	n/a	n/a	n/a	n/a	n/a	n/a	n/a	n/a	n/a	n/a	n/a	n/a	n/a	n/a
625610	WORD	wordpools/wasnorm_wordpool.txt	LTP094	ltpFR	13	3	0	OATS	968	n/a	0	n/a	0	0	0	1	0.412841796875	0.57763671875	upper	../fonts/zerothre.ttf
628615	START	n/a	LTP094	ltpFR	13	n/a	n/a	n/a	n/a	n/a	n/a	n/a	n/a	n/a	n/a	n/a	n/a	n/a	n/a	n/a
629489	PROB	n/a	LTP094	ltpFR	13	n/a	n/a	n/a	n/a	n/a	n/a	10	2	5	3	n/a	n/a	n/a	n/a	n/a
631229	PROB	n/a	LTP094	ltpFR	13	n/a	n/a	n/a	n/a	n/a	n/a	19	3	8	8	n/a	n/a	n/a	n/a	n/a
633135	PROB	n/a	LTP094	ltpFR	13	n/a	n/a	n/a	n/a	n/a	n/a	23	9	6	8	n/a	n/a	n/a	n/a	n/a
636615	STOP	n/a	LTP094	ltpFR	13	n/a	n/a	n/a	n/a	n/a	n/a	n/a	n/a	n/a	n/a	n/a	n/a	n/a	n/a	n/a
637688	WORD	wordpools/wasnorm_wordpool.txt	LTP094	ltpFR	13	3	0	UNIFORM	1539	n/a	0	n/a	0	0	0	1	0.412841796875	0.57763671875	upper	../fonts/zerothre.ttf
640694	START	n/a	LTP094	ltpFR	13	n/a	n/a	n/a	n/a	n/a	n/a	n/a	n/a	n/a	n/a	n/a	n/a	n/a	n/a	n/a
641675	PROB	n/a	LTP094	ltpFR	13	n/a	n/a	n/a	n/a	n/a	n/a	19	1	9	9	n/a	n/a	n/a	n/a	n/a
643016	PROB	n/a	LTP094	ltpFR	13	n/a	n/a	n/a	n/a	n/a	n/a	18	6	6	6	n/a	n/a	n/a	n/a	n/a
644471	PROB	n/a	LTP094	ltpFR	13	n/a	n/a	n/a	n/a	n/a	n/a	17	6	2	9	n/a	n/a	n/a	n/a	n/a
648694	STOP	n/a	LTP094	ltpFR	13	n/a	n/a	n/a	n/a	n/a	n/a	n/a	n/a	n/a	n/a	n/a	n/a	n/a	n/a	n/a
649716	WORD	wordpools/wasnorm_wordpool.txt	LTP094	ltpFR	13	3	0	ORNAMENT	985	n/a	0	n/a	0	0	0	1	0.412841796875	0.57763671875	upper	../fonts/zerothre.ttf
652721	START	n/a	LTP094	ltpFR	13	n/a	n/a	n/a	n/a	n/a	n/a	n/a	n/a	n/a	n/a	n/a	n/a	n/a	n/a	n/a
653870	PROB	n/a	LTP094	ltpFR	13	n/a	n/a	n/a	n/a	n/a	n/a	21	8	4	9	n/a	n/a	n/a	n/a	n/a
655792	PROB	n/a	LTP094	ltpFR	13	n/a	n/a	n/a	n/a	n/a	n/a	20	8	5	7	n/a	n/a	n/a	n/a	n/a
657865	PROB	n/a	LTP094	ltpFR	13	n/a	n/a	n/a	n/a	n/a	n/a	16	7	4	5	n/a	n/a	n/a	n/a	n/a
660125	STOP	n/a	LTP094	ltpFR	13	n/a	n/a	n/a	n/a	n/a	n/a	n/a	n/a	n/a	n/a	n/a	n/a	n/a	n/a	n/a
661669	WORD	wordpools/wasnorm_wordpool.txt	LTP094	ltpFR	13	3	0	SADDLE	1221	n/a	0	n/a	0	0	0	1	0.412841796875	0.57763671875	upper	../fonts/zerothre.ttf
664674	START	n/a	LTP094	ltpFR	13	n/a	n/a	n/a	n/a	n/a	n/a	n/a	n/a	n/a	n/a	n/a	n/a	n/a	n/a	n/a
665672	PROB	n/a	LTP094	ltpFR	13	n/a	n/a	n/a	n/a	n/a	n/a	11	4	2	5	n/a	n/a	n/a	n/a	n/a
667004	PROB	n/a	LTP094	ltpFR	13	n/a	n/a	n/a	n/a	n/a	n/a	13	2	8	3	n/a	n/a	n/a	n/a	n/a
668335	PROB	n/a	LTP094	ltpFR	13	n/a	n/a	n/a	n/a	n/a	n/a	21	7	6	8	n/a	n/a	n/a	n/a	n/a
670642	PROB	n/a	LTP094	ltpFR	13	n/a	n/a	n/a	n/a	n/a	n/a	9	3	2	4	n/a	n/a	n/a	n/a	n/a
672093	STOP	n/a	LTP094	ltpFR	13	n/a	n/a	n/a	n/a	n/a	n/a	n/a	n/a	n/a	n/a	n/a	n/a	n/a	n/a	n/a
673821	WORD	wordpools/wasnorm_wordpool.txt	LTP094	ltpFR	13	3	0	BUTCHER	203	n/a	1	n/a	0	0	0	1	0.412841796875	0.57763671875	upper	../fonts/zerothre.ttf
676827	START	n/a	LTP094	ltpFR	13	n/a	n/a	n/a	n/a	n/a	n/a	n/a	n/a	n/a	n/a	n/a	n/a	n/a	n/a	n/a
677975	PROB	n/a	LTP094	ltpFR	13	n/a	n/a	n/a	n/a	n/a	n/a	13	4	2	7	n/a	n/a	n/a	n/a	n/a
679856	PROB	n/a	LTP094	ltpFR	13	n/a	n/a	n/a	n/a	n/a	n/a	16	4	5	7	n/a	n/a	n/a	n/a	n/a
681486	PROB	n/a	LTP094	ltpFR	13	n/a	n/a	n/a	n/a	n/a	n/a	19	5	9	5	n/a	n/a	n/a	n/a	n/a
684827	STOP	n/a	LTP094	ltpFR	13	n/a	n/a	n/a	n/a	n/a	n/a	n/a	n/a	n/a	n/a	n/a	n/a	n/a	n/a	n/a
685674	WORD	wordpools/wasnorm_wordpool.txt	LTP094	ltpFR	13	3	0	REFRIGERATOR	1179	n/a	1	n/a	0	0	0	1	0.412841796875	0.57763671875	upper	../fonts/zerothre.ttf
688679	START	n/a	LTP094	ltpFR	13	n/a	n/a	n/a	n/a	n/a	n/a	n/a	n/a	n/a	n/a	n/a	n/a	n/a	n/a	n/a
689811	PROB	n/a	LTP094	ltpFR	13	n/a	n/a	n/a	n/a	n/a	n/a	17	6	5	6	n/a	n/a	n/a	n/a	n/a
691642	PROB	n/a	LTP094	ltpFR	13	n/a	n/a	n/a	n/a	n/a	n/a	16	9	3	4	n/a	n/a	n/a	n/a	n/a
694463	PROB	n/a	LTP094	ltpFR	13	n/a	n/a	n/a	n/a	n/a	n/a	19	6	7	6	n/a	n/a	n/a	n/a	n/a
696596	STOP	n/a	LTP094	ltpFR	13	n/a	n/a	n/a	n/a	n/a	n/a	n/a	n/a	n/a	n/a	n/a	n/a	n/a	n/a	n/a
698584	REC_START	n/a	LTP094	ltpFR	13	3	n/a	n/a	n/a	n/a	n/a	n/a	0	0	0	n/a	n/a	n/a	n/a	n/a
700170	REC_WORD	wordpools/wasnorm_wordpool.txt	LTP094	ltpFR	13	3	0	BUTCHER	203	n/a	1	n/a	0	0	0	n/a	n/a	n/a	n/a	n/a
701003	REC_WORD	wordpools/wasnorm_wordpool.txt	LTP094	ltpFR	13	3	0	CATCHER	258	n/a	0	n/a	0	0	0	n/a	n/a	n/a	n/a	n/a
702679	REC_WORD	wordpools/wasnorm_wordpool.txt	LTP094	ltpFR	13	3	0	PROTON	1132	n/a	0	n/a	0	0	0	n/a	n/a	n/a	n/a	n/a
717626	REC_WORD	wordpools/wasnorm_wordpool.txt	LTP094	ltpFR	13	3	0	REFRIGERATOR	1179	n/a	1	n/a	0	0	0	n/a	n/a	n/a	n/a	n/a
719955	REC_WORD	wordpools/wasnorm_wordpool.txt	LTP094	ltpFR	13	3	0	CLIFF	322	n/a	1	n/a	0	0	0	n/a	n/a	n/a	n/a	n/a
721028	REC_WORD	wordpools/wasnorm_wordpool.txt	LTP094	ltpFR	13	3	0	CLIMBER	323	n/a	0	n/a	0	0	0	n/a	n/a	n/a	n/a	n/a
723283	REC_WORD	wordpools/wasnorm_wordpool.txt	LTP094	ltpFR	13	3	0	DIME	466	n/a	0	n/a	0	0	0	n/a	n/a	n/a	n/a	n/a
724569	REC_WORD	wordpools/wasnorm_wordpool.txt	LTP094	ltpFR	13	3	0	NICKEL	950	n/a	0	n/a	0	0	0	n/a	n/a	n/a	n/a	n/a
731215	REC_WORD	wordpools/wasnorm_wordpool.txt	LTP094	ltpFR	13	3	0	RASPBERRY	1168	n/a	1	n/a	0	0	0	n/a	n/a	n/a	n/a	n/a
749583	REC_WORD	wordpools/wasnorm_wordpool.txt	LTP094	ltpFR	13	3	0	UNIFORM	1539	n/a	0	n/a	0	0	0	n/a	n/a	n/a	n/a	n/a
753963	REC_WORD	wordpools/wasnorm_wordpool.txt	LTP094	ltpFR	13	3	1	PLAZA	1088	n/a	0	n/a	0	0	0	n/a	n/a	n/a	n/a	n/a
775544	START	n/a	LTP094	ltpFR	13	n/a	n/a	n/a	n/a	n/a	n/a	n/a	n/a	n/a	n/a	n/a	n/a	n/a	n/a	n/a
777051	PROB	n/a	LTP094	ltpFR	13	n/a	n/a	n/a	n/a	n/a	n/a	7	4	1	2	n/a	n/a	n/a	n/a	n/a
778382	PROB	n/a	LTP094	ltpFR	13	n/a	n/a	n/a	n/a	n/a	n/a	14	7	5	2	n/a	n/a	n/a	n/a	n/a
779773	PROB	n/a	LTP094	ltpFR	13	n/a	n/a	n/a	n/a	n/a	n/a	25	9	7	9	n/a	n/a	n/a	n/a	n/a
782311	PROB	n/a	LTP094	ltpFR	13	n/a	n/a	n/a	n/a	n/a	n/a	16	8	6	2	n/a	n/a	n/a	n/a	n/a
784160	PROB	n/a	LTP094	ltpFR	13	n/a	n/a	n/a	n/a	n/a	n/a	21	5	7	9	n/a	n/a	n/a	n/a	n/a
785800	PROB	n/a	LTP094	ltpFR	13	n/a	n/a	n/a	n/a	n/a	n/a	18	6	7	5	n/a	n/a	n/a	n/a	n/a
787639	PROB	n/a	LTP094	ltpFR	13	n/a	n/a	n/a	n/a	n/a	n/a	16	2	6	8	n/a	n/a	n/a	n/a	n/a
789079	PROB	n/a	LTP094	ltpFR	13	n/a	n/a	n/a	n/a	n/a	n/a	9	2	4	3	n/a	n/a	n/a	n/a	n/a
790949	STOP	n/a	LTP094	ltpFR	13	n/a	n/a	n/a	n/a	n/a	n/a	n/a	n/a	n/a	n/a	n/a	n/a	n/a	n/a	n/a
792650	WORD	wordpools/wasnorm_wordpool.txt	LTP094	ltpFR	13	4	0	BUFFALO	186	n/a	1	n/a	0	0	0	1	0.412841796875	0.57763671875	upper	../fonts/zerothre.ttf
795655	START	n/a	LTP094	ltpFR	13	n/a	n/a	n/a	n/a	n/a	n/a	n/a	n/a	n/a	n/a	n/a	n/a	n/a	n/a	n/a
796712	PROB	n/a	LTP094	ltpFR	13	n/a	n/a	n/a	n/a	n/a	n/a	14	5	6	3	n/a	n/a	n/a	n/a	n/a
799466	PROB	n/a	LTP094	ltpFR	13	n/a	n/a	n/a	n/a	n/a	n/a	14	6	5	3	n/a	n/a	n/a	n/a	n/a
800707	PROB	n/a	LTP094	ltpFR	13	n/a	n/a	n/a	n/a	n/a	n/a	7	1	2	4	n/a	n/a	n/a	n/a	n/a
802521	PROB	n/a	LTP094	ltpFR	13	n/a	n/a	n/a	n/a	n/a	n/a	18	1	9	8	n/a	n/a	n/a	n/a	n/a
804153	PROB	n/a	LTP094	ltpFR	13	n/a	n/a	n/a	n/a	n/a	n/a	14	2	5	7	n/a	n/a	n/a	n/a	n/a
805576	PROB	n/a	LTP094	ltpFR	13	n/a	n/a	n/a	n/a	n/a	n/a	13	3	4	6	n/a	n/a	n/a	n/a	n/a
807058	PROB	n/a	LTP094	ltpFR	13	n/a	n/a	n/a	n/a	n/a	n/a	20	6	8	6	n/a	n/a	n/a	n/a	n/a
808964	PROB	n/a	LTP094	ltpFR	13	n/a	n/a	n/a	n/a	n/a	n/a	12	4	7	1	n/a	n/a	n/a	n/a	n/a
811165	STOP	n/a	LTP094	ltpFR	13	n/a	n/a	n/a	n/a	n/a	n/a	n/a	n/a	n/a	n/a	n/a	n/a	n/a	n/a	n/a
812735	WORD	wordpools/wasnorm_wordpool.txt	LTP094	ltpFR	13	4	0	LEOPARD	812	n/a	1	n/a	0	0	0	1	0.412841796875	0.57763671875	upper	../fonts/zerothre.ttf
815740	START	n/a	LTP094	ltpFR	13	n/a	n/a	n/a	n/a	n/a	n/a	n/a	n/a	n/a	n/a	n/a	n/a	n/a	n/a	n/a
816913	PROB	n/a	LTP094	ltpFR	13	n/a	n/a	n/a	n/a	n/a	n/a	12	6	3	3	n/a	n/a	n/a	n/a	n/a
818610	PROB	n/a	LTP094	ltpFR	13	n/a	n/a	n/a	n/a	n/a	n/a	21	3	9	9	n/a	n/a	n/a	n/a	n/a
820284	PROB	n/a	LTP094	ltpFR	13	n/a	n/a	n/a	n/a	n/a	n/a	10	1	7	2	n/a	n/a	n/a	n/a	n/a
822406	PROB	n/a	LTP094	ltpFR	13	n/a	n/a	n/a	n/a	n/a	n/a	18	9	7	2	n/a	n/a	n/a	n/a	n/a
824846	PROB	n/a	LTP094	ltpFR	13	n/a	n/a	n/a	n/a	n/a	n/a	12	4	5	3	n/a	n/a	n/a	n/a	n/a
827284	PROB	n/a	LTP094	ltpFR	13	n/a	n/a	n/a	n/a	n/a	n/a	8	1	2	5	n/a	n/a	n/a	n/a	n/a
828675	PROB	n/a	LTP094	ltpFR	13	n/a	n/a	n/a	n/a	n/a	n/a	15	3	7	5	n/a	n/a	n/a	n/a	n/a
831739	STOP	n/a	LTP094	ltpFR	13	n/a	n/a	n/a	n/a	n/a	n/a	n/a	n/a	n/a	n/a	n/a	n/a	n/a	n/a	n/a
832878	WORD	wordpools/wasnorm_wordpool.txt	LTP094	ltpFR	13	4	0	CAKE	219	n/a	0	n/a	0	0	0	1	0.412841796875	0.57763671875	upper	../fonts/zerothre.ttf
835883	START	n/a	LTP094	ltpFR	13	n/a	n/a	n/a	n/a	n/a	n/a	n/a	n/a	n/a	n/a	n/a	n/a	n/a	n/a	n/a
837032	PROB	n/a	LTP094	ltpFR	13	n/a	n/a	n/a	n/a	n/a	n/a	20	7	9	4	n/a	n/a	n/a	n/a	n/a
841451	PROB	n/a	LTP094	ltpFR	13	n/a	n/a	n/a	n/a	n/a	n/a	14	8	5	1	n/a	n/a	n/a	n/a	n/a
844798	PROB	n/a	LTP094	ltpFR	13	n/a	n/a	n/a	n/a	n/a	n/a	26	8	9	9	n/a	n/a	n/a	n/a	n/a
847552	PROB	n/a	LTP094	ltpFR	13	n/a	n/a	n/a	n/a	n/a	n/a	16	9	1	6	n/a	n/a	n/a	n/a	n/a
849516	PROB	n/a	LTP094	ltpFR	13	n/a	n/a	n/a	n/a	n/a	n/a	15	4	6	5	n/a	n/a	n/a	n/a	n/a
851077	STOP	n/a	LTP094	ltpFR	13	n/a	n/a	n/a	n/a	n/a	n/a	n/a	n/a	n/a	n/a	n/a	n/a	n/a	n/a	n/a
852830	WORD	wordpools/wasnorm_wordpool.txt	LTP094	ltpFR	13	4	0	CHEF	290	n/a	n/a	n/a	0	0	0	1	0.412841796875	0.57763671875	upper	../fonts/zerothre.ttf
855851	SLOW_MSG	n/a	LTP094	ltpFR	13	4	n/a	n/a	n/a	n/a	n/a	n/a	0	0	0	n/a	n/a	n/a	n/a	n/a
857366	START	n/a	LTP094	ltpFR	13	n/a	n/a	n/a	n/a	n/a	n/a	n/a	n/a	n/a	n/a	n/a	n/a	n/a	n/a	n/a
858207	PROB	n/a	LTP094	ltpFR	13	n/a	n/a	n/a	n/a	n/a	n/a	12	3	1	8	n/a	n/a	n/a	n/a	n/a
859772	PROB	n/a	LTP094	ltpFR	13	n/a	n/a	n/a	n/a	n/a	n/a	13	3	7	3	n/a	n/a	n/a	n/a	n/a
861070	PROB	n/a	LTP094	ltpFR	13	n/a	n/a	n/a	n/a	n/a	n/a	8	4	2	2	n/a	n/a	n/a	n/a	n/a
862910	PROB	n/a	LTP094	ltpFR	13	n/a	n/a	n/a	n/a	n/a	n/a	12	3	1	8	n/a	n/a	n/a	n/a	n/a
865041	PROB	n/a	LTP094	ltpFR	13	n/a	n/a	n/a	n/a	n/a	n/a	16	8	5	3	n/a	n/a	n/a	n/a	n/a
868519	PROB	n/a	LTP094	ltpFR	13	n/a	n/a	n/a	n/a	n/a	n/a	6	1	4	1	n/a	n/a	n/a	n/a	n/a
869869	PROB	n/a	LTP094	ltpFR	13	n/a	n/a	n/a	n/a	n/a	n/a	13	3	4	6	n/a	n/a	n/a	n/a	n/a
871217	PROB	n/a	LTP094	ltpFR	13	n/a	n/a	n/a	n/a	n/a	n/a	21	8	7	6	n/a	n/a	n/a	n/a	n/a
872701	STOP	n/a	LTP094	ltpFR	13	n/a	n/a	n/a	n/a	n/a	n/a	n/a	n/a	n/a	n/a	n/a	n/a	n/a	n/a	n/a
874487	WORD	wordpools/wasnorm_wordpool.txt	LTP094	ltpFR	13	4	0	TUB	1514	n/a	0	n/a	0	0	0	1	0.412841796875	0.57763671875	upper	../fonts/zerothre.ttf
877492	START	n/a	LTP094	ltpFR	13	n/a	n/a	n/a	n/a	n/a	n/a	n/a	n/a	n/a	n/a	n/a	n/a	n/a	n/a	n/a
878366	PROB	n/a	LTP094	ltpFR	13	n/a	n/a	n/a	n/a	n/a	n/a	13	2	3	8	n/a	n/a	n/a	n/a	n/a
881387	PROB	n/a	LTP094	ltpFR	13	n/a	n/a	n/a	n/a	n/a	n/a	14	2	5	7	n/a	n/a	n/a	n/a	n/a
882970	PROB	n/a	LTP094	ltpFR	13	n/a	n/a	n/a	n/a	n/a	n/a	9	4	2	3	n/a	n/a	n/a	n/a	n/a
885059	PROB	n/a	LTP094	ltpFR	13	n/a	n/a	n/a	n/a	n/a	n/a	23	7	7	9	n/a	n/a	n/a	n/a	n/a
887906	PROB	n/a	LTP094	ltpFR	13	n/a	n/a	n/a	n/a	n/a	n/a	16	8	1	7	n/a	n/a	n/a	n/a	n/a
889503	PROB	n/a	LTP094	ltpFR	13	n/a	n/a	n/a	n/a	n/a	n/a	12	2	6	4	n/a	n/a	n/a	n/a	n/a
891044	PROB	n/a	LTP094	ltpFR	13	n/a	n/a	n/a	n/a	n/a	n/a	14	6	2	6	n/a	n/a	n/a	n/a	n/a
892661	STOP	n/a	LTP094	ltpFR	13	n/a	n/a	n/a	n/a	n/a	n/a	n/a	n/a	n/a	n/a	n/a	n/a	n/a	n/a	n/a
894589	WORD	wordpools/wasnorm_wordpool.txt	LTP094	ltpFR	13	4	0	STREAM	1392	n/a	1	n/a	0	0	0	1	0.412841796875	0.57763671875	upper	../fonts/zerothre.ttf
897594	START	n/a	LTP094	ltpFR	13	n/a	n/a	n/a	n/a	n/a	n/a	n/a	n/a	n/a	n/a	n/a	n/a	n/a	n/a	n/a
898702	PROB	n/a	LTP094	ltpFR	13	n/a	n/a	n/a	n/a	n/a	n/a	11	1	9	1	n/a	n/a	n/a	n/a	n/a
899950	PROB	n/a	LTP094	ltpFR	13	n/a	n/a	n/a	n/a	n/a	n/a	13	7	5	1	n/a	n/a	n/a	n/a	n/a
903512	PROB	n/a	LTP094	ltpFR	13	n/a	n/a	n/a	n/a	n/a	n/a	18	7	8	3	n/a	n/a	n/a	n/a	n/a
904878	PROB	n/a	LTP094	ltpFR	13	n/a	n/a	n/a	n/a	n/a	n/a	13	1	7	5	n/a	n/a	n/a	n/a	n/a
906608	PROB	n/a	LTP094	ltpFR	13	n/a	n/a	n/a	n/a	n/a	n/a	23	9	8	6	n/a	n/a	n/a	n/a	n/a
910287	PROB	n/a	LTP094	ltpFR	13	n/a	n/a	n/a	n/a	n/a	n/a	13	1	5	7	n/a	n/a	n/a	n/a	n/a
913594	STOP	n/a	LTP094	ltpFR	13	n/a	n/a	n/a	n/a	n/a	n/a	n/a	n/a	n/a	n/a	n/a	n/a	n/a	n/a	n/a
914766	WORD	wordpools/wasnorm_wordpool.txt	LTP094	ltpFR	13	4	0	BEARD	107	n/a	0	n/a	0	0	0	1	0.412841796875	0.57763671875	upper	../fonts/zerothre.ttf
917772	START	n/a	LTP094	ltpFR	13	n/a	n/a	n/a	n/a	n/a	n/a	n/a	n/a	n/a	n/a	n/a	n/a	n/a	n/a	n/a
918586	PROB	n/a	LTP094	ltpFR	13	n/a	n/a	n/a	n/a	n/a	n/a	19	4	9	6	n/a	n/a	n/a	n/a	n/a
920743	PROB	n/a	LTP094	ltpFR	13	n/a	n/a	n/a	n/a	n/a	n/a	9	1	2	6	n/a	n/a	n/a	n/a	n/a
923364	PROB	n/a	LTP094	ltpFR	13	n/a	n/a	n/a	n/a	n/a	n/a	15	6	3	6	n/a	n/a	n/a	n/a	n/a
924813	PROB	n/a	LTP094	ltpFR	13	n/a	n/a	n/a	n/a	n/a	n/a	15	5	3	7	n/a	n/a	n/a	n/a	n/a
926711	PROB	n/a	LTP094	ltpFR	13	n/a	n/a	n/a	n/a	n/a	n/a	11	4	3	4	n/a	n/a	n/a	n/a	n/a
928375	PROB	n/a	LTP094	ltpFR	13	n/a	n/a	n/a	n/a	n/a	n/a	17	9	4	4	n/a	n/a	n/a	n/a	n/a
930831	PROB	n/a	LTP094	ltpFR	13	n/a	n/a	n/a	n/a	n/a	n/a	17	4	7	6	n/a	n/a	n/a	n/a	n/a
933077	STOP	n/a	LTP094	ltpFR	13	n/a	n/a	n/a	n/a	n/a	n/a	n/a	n/a	n/a	n/a	n/a	n/a	n/a	n/a	n/a
934768	WORD	wordpools/wasnorm_wordpool.txt	LTP094	ltpFR	13	4	0	DIPLOMA	470	n/a	1	n/a	0	0	0	1	0.412841796875	0.57763671875	upper	../fonts/zerothre.ttf
937773	START	n/a	LTP094	ltpFR	13	n/a	n/a	n/a	n/a	n/a	n/a	n/a	n/a	n/a	n/a	n/a	n/a	n/a	n/a	n/a
938714	PROB	n/a	LTP094	ltpFR	13	n/a	n/a	n/a	n/a	n/a	n/a	13	5	4	4	n/a	n/a	n/a	n/a	n/a
941677	PROB	n/a	LTP094	ltpFR	13	n/a	n/a	n/a	n/a	n/a	n/a	22	7	9	6	n/a	n/a	n/a	n/a	n/a
945613	PROB	n/a	LTP094	ltpFR	13	n/a	n/a	n/a	n/a	n/a	n/a	9	3	5	1	n/a	n/a	n/a	n/a	n/a
947244	PROB	n/a	LTP094	ltpFR	13	n/a	n/a	n/a	n/a	n/a	n/a	8	4	1	3	n/a	n/a	n/a	n/a	n/a
949625	PROB	n/a	LTP094	ltpFR	13	n/a	n/a	n/a	n/a	n/a	n/a	16	4	3	9	n/a	n/a	n/a	n/a	n/a
952396	STOP	n/a	LTP094	ltpFR	13	n/a	n/a	n/a	n/a	n/a	n/a	n/a	n/a	n/a	n/a	n/a	n/a	n/a	n/a	n/a
954961	WORD	wordpools/wasnorm_wordpool.txt	LTP094	ltpFR	13	4	0	FIN	566	n/a	0	n/a	0	0	0	1	0.412841796875	0.57763671875	upper	../fonts/zerothre.ttf
957967	START	n/a	LTP094	ltpFR	13	n/a	n/a	n/a	n/a	n/a	n/a	n/a	n/a	n/a	n/a	n/a	n/a	n/a	n/a	n/a
959131	PROB	n/a	LTP094	ltpFR	13	n/a	n/a	n/a	n/a	n/a	n/a	11	5	4	2	n/a	n/a	n/a	n/a	n/a
960479	PROB	n/a	LTP094	ltpFR	13	n/a	n/a	n/a	n/a	n/a	n/a	17	6	6	5	n/a	n/a	n/a	n/a	n/a
962576	PROB	n/a	LTP094	ltpFR	13	n/a	n/a	n/a	n/a	n/a	n/a	18	9	4	5	n/a	n/a	n/a	n/a	n/a
965149	PROB	n/a	LTP094	ltpFR	13	n/a	n/a	n/a	n/a	n/a	n/a	15	7	1	7	n/a	n/a	n/a	n/a	n/a
966464	PROB	n/a	LTP094	ltpFR	13	n/a	n/a	n/a	n/a	n/a	n/a	20	9	5	6	n/a	n/a	n/a	n/a	n/a
968436	PROB	n/a	LTP094	ltpFR	13	n/a	n/a	n/a	n/a	n/a	n/a	6	1	4	1	n/a	n/a	n/a	n/a	n/a
969669	PROB	n/a	LTP094	ltpFR	13	n/a	n/a	n/a	n/a	n/a	n/a	17	2	9	6	n/a	n/a	n/a	n/a	n/a
971591	PROB	n/a	LTP094	ltpFR	13	n/a	n/a	n/a	n/a	n/a	n/a	18	8	4	6	n/a	n/a	n/a	n/a	n/a
973109	STOP	n/a	LTP094	ltpFR	13	n/a	n/a	n/a	n/a	n/a	n/a	n/a	n/a	n/a	n/a	n/a	n/a	n/a	n/a	n/a
974813	WORD	wordpools/wasnorm_wordpool.txt	LTP094	ltpFR	13	4	0	MOUSE	925	n/a	0	n/a	0	0	0	1	0.412841796875	0.57763671875	upper	../fonts/zerothre.ttf
977818	START	n/a	LTP094	ltpFR	13	n/a	n/a	n/a	n/a	n/a	n/a	n/a	n/a	n/a	n/a	n/a	n/a	n/a	n/a	n/a
978892	PROB	n/a	LTP094	ltpFR	13	n/a	n/a	n/a	n/a	n/a	n/a	7	1	3	3	n/a	n/a	n/a	n/a	n/a
980232	PROB	n/a	LTP094	ltpFR	13	n/a	n/a	n/a	n/a	n/a	n/a	16	1	7	8	n/a	n/a	n/a	n/a	n/a
981797	PROB	n/a	LTP094	ltpFR	13	n/a	n/a	n/a	n/a	n/a	n/a	16	6	3	7	n/a	n/a	n/a	n/a	n/a
983619	PROB	n/a	LTP094	ltpFR	13	n/a	n/a	n/a	n/a	n/a	n/a	17	7	5	5	n/a	n/a	n/a	n/a	n/a
985400	PROB	n/a	LTP094	ltpFR	13	n/a	n/a	n/a	n/a	n/a	n/a	14	3	9	2	n/a	n/a	n/a	n/a	n/a
987232	PROB	n/a	LTP094	ltpFR	13	n/a	n/a	n/a	n/a	n/a	n/a	20	6	5	9	n/a	n/a	n/a	n/a	n/a
989796	PROB	n/a	LTP094	ltpFR	13	n/a	n/a	n/a	n/a	n/a	n/a	13	6	1	6	n/a	n/a	n/a	n/a	n/a
991061	PROB	n/a	LTP094	ltpFR	13	n/a	n/a	n/a	n/a	n/a	n/a	8	3	2	3	n/a	n/a	n/a	n/a	n/a
992813	STOP	n/a	LTP094	ltpFR	13	n/a	n/a	n/a	n/a	n/a	n/a	n/a	n/a	n/a	n/a	n/a	n/a	n/a	n/a	n/a
995006	WORD	wordpools/wasnorm_wordpool.txt	LTP094	ltpFR	13	4	0	BLOCKADE	137	n/a	1	n/a	0	0	0	1	0.412841796875	0.57763671875	upper	../fonts/zerothre.ttf
998012	START	n/a	LTP094	ltpFR	13	n/a	n/a	n/a	n/a	n/a	n/a	n/a	n/a	n/a	n/a	n/a	n/a	n/a	n/a	n/a
999143	PROB	n/a	LTP094	ltpFR	13	n/a	n/a	n/a	n/a	n/a	n/a	6	1	2	3	n/a	n/a	n/a	n/a	n/a
1000308	PROB	n/a	LTP094	ltpFR	13	n/a	n/a	n/a	n/a	n/a	n/a	18	8	9	1	n/a	n/a	n/a	n/a	n/a
1001882	PROB	n/a	LTP094	ltpFR	13	n/a	n/a	n/a	n/a	n/a	n/a	15	9	1	5	n/a	n/a	n/a	n/a	n/a
1003404	PROB	n/a	LTP094	ltpFR	13	n/a	n/a	n/a	n/a	n/a	n/a	16	7	8	1	n/a	n/a	n/a	n/a	n/a
1004753	PROB	n/a	LTP094	ltpFR	13	n/a	n/a	n/a	n/a	n/a	n/a	11	2	2	7	n/a	n/a	n/a	n/a	n/a
1007226	PROB	n/a	LTP094	ltpFR	13	n/a	n/a	n/a	n/a	n/a	n/a	15	3	3	9	n/a	n/a	n/a	n/a	n/a
1008540	PROB	n/a	LTP094	ltpFR	13	n/a	n/a	n/a	n/a	n/a	n/a	11	6	3	2	n/a	n/a	n/a	n/a	n/a
1009939	PROB	n/a	LTP094	ltpFR	13	n/a	n/a	n/a	n/a	n/a	n/a	13	3	9	1	n/a	n/a	n/a	n/a	n/a
1013556	STOP	n/a	LTP094	ltpFR	13	n/a	n/a	n/a	n/a	n/a	n/a	n/a	n/a	n/a	n/a	n/a	n/a	n/a	n/a	n/a
1014983	WORD	wordpools/wasnorm_wordpool.txt	LTP094	ltpFR	13	4	0	MAID	856	n/a	0	n/a	0	0	0	1	0.412841796875	0.57763671875	upper	../fonts/zerothre.ttf
1017988	START	n/a	LTP094	ltpFR	13	n/a	n/a	n/a	n/a	n/a	n/a	n/a	n/a	n/a	n/a	n/a	n/a	n/a	n/a	n/a
1018845	PROB	n/a	LTP094	ltpFR	13	n/a	n/a	n/a	n/a	n/a	n/a	21	6	8	7	n/a	n/a	n/a	n/a	n/a
1022241	PROB	n/a	LTP094	ltpFR	13	n/a	n/a	n/a	n/a	n/a	n/a	11	1	9	1	n/a	n/a	n/a	n/a	n/a
1023464	PROB	n/a	LTP094	ltpFR	13	n/a	n/a	n/a	n/a	n/a	n/a	22	7	7	8	n/a	n/a	n/a	n/a	n/a
1025837	PROB	n/a	LTP094	ltpFR	13	n/a	n/a	n/a	n/a	n/a	n/a	10	6	3	1	n/a	n/a	n/a	n/a	n/a
1027343	PROB	n/a	LTP094	ltpFR	13	n/a	n/a	n/a	n/a	n/a	n/a	16	4	3	9	n/a	n/a	n/a	n/a	n/a
1028742	PROB	n/a	LTP094	ltpFR	13	n/a	n/a	n/a	n/a	n/a	n/a	11	2	5	4	n/a	n/a	n/a	n/a	n/a
1030431	PROB	n/a	LTP094	ltpFR	13	n/a	n/a	n/a	n/a	n/a	n/a	13	1	5	7	n/a	n/a	n/a	n/a	n/a
1032492	STOP	n/a	LTP094	ltpFR	13	n/a	n/a	n/a	n/a	n/a	n/a	n/a	n/a	n/a	n/a	n/a	n/a	n/a	n/a	n/a
1034827	WORD	wordpools/wasnorm_wordpool.txt	LTP094	ltpFR	13	4	0	PLANT	1083	n/a	0	n/a	0	0	0	1	0.412841796875	0.57763671875	upper	../fonts/zerothre.ttf
1037832	START	n/a	LTP094	ltpFR	13	n/a	n/a	n/a	n/a	n/a	n/a	n/a	n/a	n/a	n/a	n/a	n/a	n/a	n/a	n/a
1038939	PROB	n/a	LTP094	ltpFR	13	n/a	n/a	n/a	n/a	n/a	n/a	20	8	8	4	n/a	n/a	n/a	n/a	n/a
1040336	PROB	n/a	LTP094	ltpFR	13	n/a	n/a	n/a	n/a	n/a	n/a	11	4	4	3	n/a	n/a	n/a	n/a	n/a
1042876	PROB	n/a	LTP094	ltpFR	13	n/a	n/a	n/a	n/a	n/a	n/a	18	7	2	9	n/a	n/a	n/a	n/a	n/a
1044832	PROB	n/a	LTP094	ltpFR	13	n/a	n/a	n/a	n/a	n/a	n/a	15	1	7	7	n/a	n/a	n/a	n/a	n/a
1045997	PROB	n/a	LTP094	ltpFR	13	n/a	n/a	n/a	n/a	n/a	n/a	19	6	7	6	n/a	n/a	n/a	n/a	n/a
1049984	PROB	n/a	LTP094	ltpFR	13	n/a	n/a	n/a	n/a	n/a	n/a	18	7	8	3	n/a	n/a	n/a	n/a	n/a
1051423	PROB	n/a	LTP094	ltpFR	13	n/a	n/a	n/a	n/a	n/a	n/a	21	8	7	6	n/a	n/a	n/a	n/a	n/a
1053157	STOP	n/a	LTP094	ltpFR	13	n/a	n/a	n/a	n/a	n/a	n/a	n/a	n/a	n/a	n/a	n/a	n/a	n/a	n/a	n/a
1054679	WORD	wordpools/wasnorm_wordpool.txt	LTP094	ltpFR	13	4	0	HALL	677	n/a	1	n/a	0	0	0	1	0.412841796875	0.57763671875	upper	../fonts/zerothre.ttf
1057684	START	n/a	LTP094	ltpFR	13	n/a	n/a	n/a	n/a	n/a	n/a	n/a	n/a	n/a	n/a	n/a	n/a	n/a	n/a	n/a
1058556	PROB	n/a	LTP094	ltpFR	13	n/a	n/a	n/a	n/a	n/a	n/a	16	9	4	3	n/a	n/a	n/a	n/a	n/a
1061229	PROB	n/a	LTP094	ltpFR	13	n/a	n/a	n/a	n/a	n/a	n/a	15	5	7	3	n/a	n/a	n/a	n/a	n/a
1062552	PROB	n/a	LTP094	ltpFR	13	n/a	n/a	n/a	n/a	n/a	n/a	11	6	1	4	n/a	n/a	n/a	n/a	n/a
1063793	PROB	n/a	LTP094	ltpFR	13	n/a	n/a	n/a	n/a	n/a	n/a	19	7	7	5	n/a	n/a	n/a	n/a	n/a
1065733	PROB	n/a	LTP094	ltpFR	13	n/a	n/a	n/a	n/a	n/a	n/a	9	1	1	7	n/a	n/a	n/a	n/a	n/a
1067239	PROB	n/a	LTP094	ltpFR	13	n/a	n/a	n/a	n/a	n/a	n/a	9	3	2	4	n/a	n/a	n/a	n/a	n/a
1068970	PROB	n/a	LTP094	ltpFR	13	n/a	n/a	n/a	n/a	n/a	n/a	13	7	4	2	n/a	n/a	n/a	n/a	n/a
1071450	PROB	n/a	LTP094	ltpFR	13	n/a	n/a	n/a	n/a	n/a	n/a	18	7	5	6	n/a	n/a	n/a	n/a	n/a
1073037	STOP	n/a	LTP094	ltpFR	13	n/a	n/a	n/a	n/a	n/a	n/a	n/a	n/a	n/a	n/a	n/a	n/a	n/a	n/a	n/a
1074639	WORD	wordpools/wasnorm_wordpool.txt	LTP094	ltpFR	13	4	0	SQUID	1361	n/a	0	n/a	0	0	0	1	0.412841796875	0.57763671875	upper	../fonts/zerothre.ttf
1077644	START	n/a	LTP094	ltpFR	13	n/a	n/a	n/a	n/a	n/a	n/a	n/a	n/a	n/a	n/a	n/a	n/a	n/a	n/a	n/a
1078726	PROB	n/a	LTP094	ltpFR	13	n/a	n/a	n/a	n/a	n/a	n/a	14	2	6	6	n/a	n/a	n/a	n/a	n/a
1080124	PROB	n/a	LTP094	ltpFR	13	n/a	n/a	n/a	n/a	n/a	n/a	16	5	6	5	n/a	n/a	n/a	n/a	n/a
1081830	PROB	n/a	LTP094	ltpFR	13	n/a	n/a	n/a	n/a	n/a	n/a	18	1	9	8	n/a	n/a	n/a	n/a	n/a
1083953	PROB	n/a	LTP094	ltpFR	13	n/a	n/a	n/a	n/a	n/a	n/a	11	2	5	4	n/a	n/a	n/a	n/a	n/a
1086001	PROB	n/a	LTP094	ltpFR	13	n/a	n/a	n/a	n/a	n/a	n/a	21	5	8	8	n/a	n/a	n/a	n/a	n/a
1087598	PROB	n/a	LTP094	ltpFR	13	n/a	n/a	n/a	n/a	n/a	n/a	17	3	6	8	n/a	n/a	n/a	n/a	n/a
1090187	PROB	n/a	LTP094	ltpFR	13	n/a	n/a	n/a	n/a	n/a	n/a	17	4	8	5	n/a	n/a	n/a	n/a	n/a
1092308	STOP	n/a	LTP094	ltpFR	13	n/a	n/a	n/a	n/a	n/a	n/a	n/a	n/a	n/a	n/a	n/a	n/a	n/a	n/a	n/a
1094641	WORD	wordpools/wasnorm_wordpool.txt	LTP094	ltpFR	13	4	0	CLAW	319	n/a	0	n/a	0	0	0	1	0.412841796875	0.57763671875	upper	../fonts/zerothre.ttf
1097646	START	n/a	LTP094	ltpFR	13	n/a	n/a	n/a	n/a	n/a	n/a	n/a	n/a	n/a	n/a	n/a	n/a	n/a	n/a	n/a
1098777	PROB	n/a	LTP094	ltpFR	13	n/a	n/a	n/a	n/a	n/a	n/a	16	5	3	8	n/a	n/a	n/a	n/a	n/a
1101448	PROB	n/a	LTP094	ltpFR	13	n/a	n/a	n/a	n/a	n/a	n/a	15	8	5	2	n/a	n/a	n/a	n/a	n/a
1103496	PROB	n/a	LTP094	ltpFR	13	n/a	n/a	n/a	n/a	n/a	n/a	23	8	8	7	n/a	n/a	n/a	n/a	n/a
1105311	PROB	n/a	LTP094	ltpFR	13	n/a	n/a	n/a	n/a	n/a	n/a	14	4	7	3	n/a	n/a	n/a	n/a	n/a
1107508	PROB	n/a	LTP094	ltpFR	13	n/a	n/a	n/a	n/a	n/a	n/a	11	3	5	3	n/a	n/a	n/a	n/a	n/a
1109673	PROB	n/a	LTP094	ltpFR	13	n/a	n/a	n/a	n/a	n/a	n/a	21	8	7	6	n/a	n/a	n/a	n/a	n/a
1113646	STOP	n/a	LTP094	ltpFR	13	n/a	n/a	n/a	n/a	n/a	n/a	n/a	n/a	n/a	n/a	n/a	n/a	n/a	n/a	n/a
1115491	REC_START	n/a	LTP094	ltpFR	13	4	n/a	n/a	n/a	n/a	n/a	n/a	0	0	0	n/a	n/a	n/a	n/a	n/a
1116349	REC_WORD	wordpools/wasnorm_wordpool.txt	LTP094	ltpFR	13	4	0	CLAW	319	n/a	0	n/a	0	0	0	n/a	n/a	n/a	n/a	n/a
1117307	REC_WORD	wordpools/wasnorm_wordpool.txt	LTP094	ltpFR	13	4	0	FIN	566	n/a	0	n/a	0	0	0	n/a	n/a	n/a	n/a	n/a
1131255	REC_WORD	wordpools/wasnorm_wordpool.txt	LTP094	ltpFR	13	4	0	DIPLOMA	470	n/a	1	n/a	0	0	0	n/a	n/a	n/a	n/a	n/a
1158712	REC_WORD	wordpools/wasnorm_wordpool.txt	LTP094	ltpFR	13	4	0	LEOPARD	812	n/a	1	n/a	0	0	0	n/a	n/a	n/a	n/a	n/a
1160029	REC_WORD	wordpools/wasnorm_wordpool.txt	LTP094	ltpFR	13	4	0	BUFFALO	186	n/a	1	n/a	0	0	0	n/a	n/a	n/a	n/a	n/a
1165063	REC_WORD	wordpools/wasnorm_wordpool.txt	LTP094	ltpFR	13	4	0	CAKE	219	n/a	0	n/a	0	0	0	n/a	n/a	n/a	n/a	n/a
1193659	WORD	wordpools/wasnorm_wordpool.txt	LTP094	ltpFR	13	5	1	CHECK	284	n/a	0	n/a	0	0	0	0	0.5869140625	0.422607421875	lower	../fonts/amplitud.ttf
1197854	WORD	wordpools/wasnorm_wordpool.txt	LTP094	ltpFR	13	5	1	PLIERS	1089	n/a	0	n/a	0	0	0	0	0.5869140625	0.422607421875	lower	../fonts/amplitud.ttf
1201824	WORD	wordpools/wasnorm_wordpool.txt	LTP094	ltpFR	13	5	0	VOLLEYBALL	1576	n/a	0	n/a	0	0	0	1	0.412841796875	0.57763671875	upper	../fonts/zerothre.ttf
1205703	WORD	wordpools/wasnorm_wordpool.txt	LTP094	ltpFR	13	5	0	SEAFOOD	1260	n/a	0	n/a	0	0	0	1	0.412841796875	0.57763671875	upper	../fonts/zerothre.ttf
1209690	WORD	wordpools/wasnorm_wordpool.txt	LTP094	ltpFR	13	5	0	WORKER	1621	n/a	1	n/a	0	0	0	1	0.412841796875	0.57763671875	upper	../fonts/zerothre.ttf
1213551	WORD	wordpools/wasnorm_wordpool.txt	LTP094	ltpFR	13	5	0	MALL	860	n/a	1	n/a	0	0	0	1	0.412841796875	0.57763671875	upper	../fonts/zerothre.ttf
1217739	WORD	wordpools/wasnorm_wordpool.txt	LTP094	ltpFR	13	5	1	HOE	711	n/a	0	n/a	0	0	0	0	0.5869140625	0.422607421875	lower	../fonts/amplitud.ttf
1221760	WORD	wordpools/wasnorm_wordpool.txt	LTP094	ltpFR	13	5	1	SIBLING	1301	n/a	1	n/a	0	0	0	0	0.5869140625	0.422607421875	lower	../fonts/amplitud.ttf
1225830	WORD	wordpools/wasnorm_wordpool.txt	LTP094	ltpFR	13	5	1	FUNGUS	614	n/a	1	n/a	0	0	0	0	0.5869140625	0.422607421875	lower	../fonts/amplitud.ttf
1229759	WORD	wordpools/wasnorm_wordpool.txt	LTP094	ltpFR	13	5	0	APPLICATION	34	n/a	1	n/a	0	0	0	1	0.412841796875	0.57763671875	upper	../fonts/zerothre.ttf
1233812	WORD	wordpools/wasnorm_wordpool.txt	LTP094	ltpFR	13	5	0	HAWK	692	n/a	1	n/a	0	0	0	1	0.412841796875	0.57763671875	upper	../fonts/zerothre.ttf
1237882	WORD	wordpools/wasnorm_wordpool.txt	LTP094	ltpFR	13	5	0	PELICAN	1039	n/a	1	n/a	0	0	0	1	0.412841796875	0.57763671875	upper	../fonts/zerothre.ttf
1241961	WORD	wordpools/wasnorm_wordpool.txt	LTP094	ltpFR	13	5	0	BUSH	202	n/a	1	n/a	0	0	0	1	0.412841796875	0.57763671875	upper	../fonts/zerothre.ttf
1246073	WORD	wordpools/wasnorm_wordpool.txt	LTP094	ltpFR	13	5	1	CASH	252	n/a	0	n/a	0	0	0	0	0.5869140625	0.422607421875	lower	../fonts/amplitud.ttf
1250127	WORD	wordpools/wasnorm_wordpool.txt	LTP094	ltpFR	13	5	1	MINK	897	n/a	1	n/a	0	0	0	0	0.5869140625	0.422607421875	lower	../fonts/amplitud.ttf
1254055	WORD	wordpools/wasnorm_wordpool.txt	LTP094	ltpFR	13	5	1	SWEATER	1419	n/a	0	n/a	0	0	0	0	0.5869140625	0.422607421875	lower	../fonts/amplitud.ttf
1257060	START	n/a	LTP094	ltpFR	13	n/a	n/a	n/a	n/a	n/a	n/a	n/a	n/a	n/a	n/a	n/a	n/a	n/a	n/a	n/a
1258258	PROB	n/a	LTP094	ltpFR	13	n/a	n/a	n/a	n/a	n/a	n/a	17	3	7	7	n/a	n/a	n/a	n/a	n/a
1260330	PROB	n/a	LTP094	ltpFR	13	n/a	n/a	n/a	n/a	n/a	n/a	15	6	8	1	n/a	n/a	n/a	n/a	n/a
1263045	PROB	n/a	LTP094	ltpFR	13	n/a	n/a	n/a	n/a	n/a	n/a	11	1	5	5	n/a	n/a	n/a	n/a	n/a
1264242	PROB	n/a	LTP094	ltpFR	13	n/a	n/a	n/a	n/a	n/a	n/a	14	2	8	4	n/a	n/a	n/a	n/a	n/a
1265624	PROB	n/a	LTP094	ltpFR	13	n/a	n/a	n/a	n/a	n/a	n/a	18	5	9	4	n/a	n/a	n/a	n/a	n/a
1267514	PROB	n/a	LTP094	ltpFR	13	n/a	n/a	n/a	n/a	n/a	n/a	19	5	7	7	n/a	n/a	n/a	n/a	n/a
1269005	PROB	n/a	LTP094	ltpFR	13	n/a	n/a	n/a	n/a	n/a	n/a	5	2	2	1	n/a	n/a	n/a	n/a	n/a
1270170	PROB	n/a	LTP094	ltpFR	13	n/a	n/a	n/a	n/a	n/a	n/a	16	5	9	2	n/a	n/a	n/a	n/a	n/a
1272029	STOP	n/a	LTP094	ltpFR	13	n/a	n/a	n/a	n/a	n/a	n/a	n/a	n/a	n/a	n/a	n/a	n/a	n/a	n/a	n/a
1274957	REC_START	n/a	LTP094	ltpFR	13	5	n/a	n/a	n/a	n/a	n/a	n/a	0	0	0	n/a	n/a	n/a	n/a	n/a
1275675	REC_WORD	wordpools/wasnorm_wordpool.txt	LTP094	ltpFR	13	5	1	MINK	897	n/a	1	n/a	0	0	0	n/a	n/a	n/a	n/a	n/a
1276608	REC_WORD	wordpools/wasnorm_wordpool.txt	LTP094	ltpFR	13	5	1	CHECK	284	n/a	0	n/a	0	0	0	n/a	n/a	n/a	n/a	n/a
1278254	REC_WORD	wordpools/wasnorm_wordpool.txt	LTP094	ltpFR	13	5	1	CASH	252	n/a	0	n/a	0	0	0	n/a	n/a	n/a	n/a	n/a
1279596	REC_WORD	wordpools/wasnorm_wordpool.txt	LTP094	ltpFR	13	5	1	SWEATER	1419	n/a	0	n/a	0	0	0	n/a	n/a	n/a	n/a	n/a
1284185	REC_WORD	wordpools/wasnorm_wordpool.txt	LTP094	ltpFR	13	5	0	HAWK	692	n/a	1	n/a	0	0	0	n/a	n/a	n/a	n/a	n/a
1285258	REC_WORD	wordpools/wasnorm_wordpool.txt	LTP094	ltpFR	13	5	0	PELICAN	1039	n/a	1	n/a	0	0	0	n/a	n/a	n/a	n/a	n/a
1288242	REC_WORD	wordpools/wasnorm_wordpool.txt	LTP094	ltpFR	13	5	0	APPLICATION	34	n/a	1	n/a	0	0	0	n/a	n/a	n/a	n/a	n/a
1291454	REC_WORD	wordpools/wasnorm_wordpool.txt	LTP094	ltpFR	13	5	0	SEAFOOD	1260	n/a	0	n/a	0	0	0	n/a	n/a	n/a	n/a	n/a
1321157	REC_WORD	wordpools/wasnorm_wordpool.txt	LTP094	ltpFR	13	5	0	MALL	860	n/a	1	n/a	0	0	0	n/a	n/a	n/a	n/a	n/a
1322643	REC_WORD	wordpools/wasnorm_wordpool.txt	LTP094	ltpFR	13	5	0	WORKER	1621	n/a	1	n/a	0	0	0	n/a	n/a	n/a	n/a	n/a
1349303	REC_WORD	wordpools/wasnorm_wordpool.txt	LTP094	ltpFR	13	5	0	PLANT	1083	n/a	0	n/a	0	0	0	n/a	n/a	n/a	n/a	n/a
1352857	WORD	wordpools/wasnorm_wordpool.txt	LTP094	ltpFR	13	6	1	BATHTUB	100	n/a	0	n/a	0	0	0	0	0.5869140625	0.422607421875	lower	../fonts/amplitud.ttf
1356794	WORD	wordpools/wasnorm_wordpool.txt	LTP094	ltpFR	13	6	1	SOAP	1337	n/a	0	n/a	0	0	0	0	0.5869140625	0.422607421875	lower	../fonts/amplitud.ttf
1360706	WORD	wordpools/wasnorm_wordpool.txt	LTP094	ltpFR	13	6	0	BUTTERFLY	206	n/a	0	n/a	0	0	0	1	0.412841796875	0.57763671875	upper	../fonts/zerothre.ttf
1364677	WORD	wordpools/wasnorm_wordpool.txt	LTP094	ltpFR	13	6	0	TRAY	1498	n/a	0	n/a	0	0	0	1	0.412841796875	0.57763671875	upper	../fonts/zerothre.ttf
1368755	WORD	wordpools/wasnorm_wordpool.txt	LTP094	ltpFR	13	6	0	BARREL	91	n/a	1	n/a	0	0	0	1	0.412841796875	0.57763671875	upper	../fonts/zerothre.ttf
1372942	WORD	wordpools/wasnorm_wordpool.txt	LTP094	ltpFR	13	6	0	DECK	443	n/a	1	n/a	0	0	0	1	0.412841796875	0.57763671875	upper	../fonts/zerothre.ttf
1376979	WORD	wordpools/wasnorm_wordpool.txt	LTP094	ltpFR	13	6	0	BOAT	144	n/a	1	n/a	0	0	0	1	0.412841796875	0.57763671875	upper	../fonts/zerothre.ttf
1380924	WORD	wordpools/wasnorm_wordpool.txt	LTP094	ltpFR	13	6	0	INSECT	740	n/a	0	n/a	0	0	0	1	0.412841796875	0.57763671875	upper	../fonts/zerothre.ttf
1385086	WORD	wordpools/wasnorm_wordpool.txt	LTP094	ltpFR	13	6	1	CRICKET	408	n/a	1	n/a	0	0	0	0	0.5869140625	0.422607421875	lower	../fonts/amplitud.ttf
1389240	WORD	wordpools/wasnorm_wordpool.txt	LTP094	ltpFR	13	6	1	MINT	898	n/a	0	n/a	0	0	0	0	0.5869140625	0.422607421875	lower	../fonts/amplitud.ttf
1393235	WORD	wordpools/wasnorm_wordpool.txt	LTP094	ltpFR	13	6	1	ASHTRAY	45	n/a	0	n/a	0	0	0	0	0.5869140625	0.422607421875	lower	../fonts/amplitud.ttf
1397346	WORD	wordpools/wasnorm_wordpool.txt	LTP094	ltpFR	13	6	1	LOVER	846	n/a	1	n/a	0	0	0	0	0.5869140625	0.422607421875	lower	../fonts/amplitud.ttf
1401308	WORD	wordpools/wasnorm_wordpool.txt	LTP094	ltpFR	13	6	1	JUVENILE	767	n/a	1	n/a	0	0	0	0	0.5869140625	0.422607421875	lower	../fonts/amplitud.ttf
1405254	WORD	wordpools/wasnorm_wordpool.txt	LTP094	ltpFR	13	6	1	DISH	474	n/a	0	n/a	0	0	0	0	0.5869140625	0.422607421875	lower	../fonts/amplitud.ttf
1409307	WORD	wordpools/wasnorm_wordpool.txt	LTP094	ltpFR	13	6	0	FARM	552	n/a	1	n/a	0	0	0	1	0.412841796875	0.57763671875	upper	../fonts/zerothre.ttf
1413336	WORD	wordpools/wasnorm_wordpool.txt	LTP094	ltpFR	13	6	0	VET	1560	n/a	1	n/a	0	0	0	1	0.412841796875	0.57763671875	upper	../fonts/zerothre.ttf
1419231	REC_START	n/a	LTP094	ltpFR	13	6	n/a	n/a	n/a	n/a	n/a	n/a	0	0	0	n/a	n/a	n/a	n/a	n/a
1420313	REC_WORD	wordpools/wasnorm_wordpool.txt	LTP094	ltpFR	13	6	0	VET	1560	n/a	1	n/a	0	0	0	n/a	n/a	n/a	n/a	n/a
1421061	REC_WORD	wordpools/wasnorm_wordpool.txt	LTP094	ltpFR	13	6	0	FARM	552	n/a	1	n/a	0	0	0	n/a	n/a	n/a	n/a	n/a
1423272	REC_WORD	wordpools/wasnorm_wordpool.txt	LTP094	ltpFR	13	6	0	TRAY	1498	n/a	0	n/a	0	0	0	n/a	n/a	n/a	n/a	n/a
1424304	REC_WORD	wordpools/wasnorm_wordpool.txt	LTP094	ltpFR	13	6	1	DISH	474	n/a	0	n/a	0	0	0	n/a	n/a	n/a	n/a	n/a
1425936	REC_WORD	wordpools/wasnorm_wordpool.txt	LTP094	ltpFR	13	6	1	ASHTRAY	45	n/a	0	n/a	0	0	0	n/a	n/a	n/a	n/a	n/a
1430086	REC_WORD	wordpools/wasnorm_wordpool.txt	LTP094	ltpFR	13	6	0	INSECT	740	n/a	0	n/a	0	0	0	n/a	n/a	n/a	n/a	n/a
1431003	REC_WORD	wordpools/wasnorm_wordpool.txt	LTP094	ltpFR	13	6	1	CRICKET	408	n/a	1	n/a	0	0	0	n/a	n/a	n/a	n/a	n/a
1497255	WORD	wordpools/wasnorm_wordpool.txt	LTP094	ltpFR	13	7	1	BANANA	77	n/a	1	n/a	0	0	0	0	0.5869140625	0.422607421875	lower	../fonts/amplitud.ttf
1501442	WORD	wordpools/wasnorm_wordpool.txt	LTP094	ltpFR	13	7	1	CUSTOMER	430	n/a	1	n/a	0	0	0	0	0.5869140625	0.422607421875	lower	../fonts/amplitud.ttf
1505537	WORD	wordpools/wasnorm_wordpool.txt	LTP094	ltpFR	13	7	1	DEPARTMENT	449	n/a	0	n/a	0	0	0	0	0.5869140625	0.422607421875	lower	../fonts/amplitud.ttf
1509449	WORD	wordpools/wasnorm_wordpool.txt	LTP094	ltpFR	13	7	1	BONE	148	n/a	1	n/a	0	0	0	0	0.5869140625	0.422607421875	lower	../fonts/amplitud.ttf
1513278	WORD	wordpools/wasnorm_wordpool.txt	LTP094	ltpFR	13	7	1	BELLY	119	n/a	1	n/a	0	0	0	0	0.5869140625	0.422607421875	lower	../fonts/amplitud.ttf
1517248	WORD	wordpools/wasnorm_wordpool.txt	LTP094	ltpFR	13	7	0	MARKER	870	n/a	2	n/a	0	0	0	1	0.412841796875	0.57763671875	upper	../fonts/zerothre.ttf
1518132	KEY_MSG	n/a	LTP094	ltpFR	13	7	n/a	n/a	n/a	n/a	n/a	n/a	0	0	0	n/a	n/a	n/a	n/a	n/a
1521112	WORD	wordpools/wasnorm_wordpool.txt	LTP094	ltpFR	13	7	0	RANCH	1166	n/a	1	n/a	0	0	0	1	0.412841796875	0.57763671875	upper	../fonts/zerothre.ttf
1525174	WORD	wordpools/wasnorm_wordpool.txt	LTP094	ltpFR	13	7	0	SCALPEL	1243	n/a	0	n/a	0	0	0	1	0.412841796875	0.57763671875	upper	../fonts/zerothre.ttf
1529144	WORD	wordpools/wasnorm_wordpool.txt	LTP094	ltpFR	13	7	0	FRIES	607	n/a	0	n/a	0	0	0	1	0.412841796875	0.57763671875	upper	../fonts/zerothre.ttf
1532998	WORD	wordpools/wasnorm_wordpool.txt	LTP094	ltpFR	13	7	1	WRIST	1626	n/a	1	n/a	0	0	0	0	0.5869140625	0.422607421875	lower	../fonts/amplitud.ttf
1537026	WORD	wordpools/wasnorm_wordpool.txt	LTP094	ltpFR	13	7	1	JUNGLE	764	n/a	1	n/a	0	0	0	0	0.5869140625	0.422607421875	lower	../fonts/amplitud.ttf
1540905	WORD	wordpools/wasnorm_wordpool.txt	LTP094	ltpFR	13	7	1	SEAGULL	1261	n/a	1	n/a	0	0	0	0	0.5869140625	0.422607421875	lower	../fonts/amplitud.ttf
1544826	WORD	wordpools/wasnorm_wordpool.txt	LTP094	ltpFR	13	7	0	PERCH	1048	n/a	0	n/a	0	0	0	1	0.412841796875	0.57763671875	upper	../fonts/zerothre.ttf
1548896	WORD	wordpools/wasnorm_wordpool.txt	LTP094	ltpFR	13	7	0	PHYSICIAN	1056	n/a	1	n/a	0	0	0	1	0.412841796875	0.57763671875	upper	../fonts/zerothre.ttf
1553041	WORD	wordpools/wasnorm_wordpool.txt	LTP094	ltpFR	13	7	0	NIECE	952	n/a	0	n/a	0	0	0	1	0.412841796875	0.57763671875	upper	../fonts/zerothre.ttf
1557153	WORD	wordpools/wasnorm_wordpool.txt	LTP094	ltpFR	13	7	0	EARRING	514	n/a	0	n/a	0	0	0	1	0.412841796875	0.57763671875	upper	../fonts/zerothre.ttf
1560158	START	n/a	LTP094	ltpFR	13	n/a	n/a	n/a	n/a	n/a	n/a	n/a	n/a	n/a	n/a	n/a	n/a	n/a	n/a	n/a
1561272	PROB	n/a	LTP094	ltpFR	13	n/a	n/a	n/a	n/a	n/a	n/a	17	9	7	1	n/a	n/a	n/a	n/a	n/a
1563445	PROB	n/a	LTP094	ltpFR	13	n/a	n/a	n/a	n/a	n/a	n/a	13	6	6	1	n/a	n/a	n/a	n/a	n/a
1568158	STOP	n/a	LTP094	ltpFR	13	n/a	n/a	n/a	n/a	n/a	n/a	n/a	n/a	n/a	n/a	n/a	n/a	n/a	n/a	n/a
1569997	REC_START	n/a	LTP094	ltpFR	13	7	n/a	n/a	n/a	n/a	n/a	n/a	0	0	0	n/a	n/a	n/a	n/a	n/a
1571169	REC_WORD	wordpools/wasnorm_wordpool.txt	LTP094	ltpFR	13	7	0	EARRING	514	n/a	0	n/a	0	0	0	n/a	n/a	n/a	n/a	n/a
1571987	REC_WORD	wordpools/wasnorm_wordpool.txt	LTP094	ltpFR	13	7	0	PERCH	1048	n/a	0	n/a	0	0	0	n/a	n/a	n/a	n/a	n/a
1572945	REC_WORD	wordpools/wasnorm_wordpool.txt	LTP094	ltpFR	13	7	0	NIECE	952	n/a	0	n/a	0	0	0	n/a	n/a	n/a	n/a	n/a
1575140	REC_WORD	wordpools/wasnorm_wordpool.txt	LTP094	ltpFR	13	7	0	SCALPEL	1243	n/a	0	n/a	0	0	0	n/a	n/a	n/a	n/a	n/a
1576557	REC_WORD	wordpools/wasnorm_wordpool.txt	LTP094	ltpFR	13	7	1	WRIST	1626	n/a	1	n/a	0	0	0	n/a	n/a	n/a	n/a	n/a
1577520	REC_WORD	wordpools/wasnorm_wordpool.txt	LTP094	ltpFR	13	7	1	BONE	148	n/a	1	n/a	0	0	0	n/a	n/a	n/a	n/a	n/a
1579605	REC_WORD	wordpools/wasnorm_wordpool.txt	LTP094	ltpFR	13	7	1	SEAGULL	1261	n/a	1	n/a	0	0	0	n/a	n/a	n/a	n/a	n/a
1593917	REC_WORD	wordpools/wasnorm_wordpool.txt	LTP094	ltpFR	13	7	1	BELLY	119	n/a	1	n/a	0	0	0	n/a	n/a	n/a	n/a	n/a
1602079	REC_WORD	wordpools/wasnorm_wordpool.txt	LTP094	ltpFR	13	7	1	JUNGLE	764	n/a	1	n/a	0	0	0	n/a	n/a	n/a	n/a	n/a
1647066	START	n/a	LTP094	ltpFR	13	n/a	n/a	n/a	n/a	n/a	n/a	n/a	n/a	n/a	n/a	n/a	n/a	n/a	n/a	n/a
1648571	PROB	n/a	LTP094	ltpFR	13	n/a	n/a	n/a	n/a	n/a	n/a	15	1	8	6	n/a	n/a	n/a	n/a	n/a
1650444	PROB	n/a	LTP094	ltpFR	13	n/a	n/a	n/a	n/a	n/a	n/a	15	3	7	5	n/a	n/a	n/a	n/a	n/a
1651710	PROB	n/a	LTP094	ltpFR	13	n/a	n/a	n/a	n/a	n/a	n/a	14	5	1	8	n/a	n/a	n/a	n/a	n/a
1653773	STOP	n/a	LTP094	ltpFR	13	n/a	n/a	n/a	n/a	n/a	n/a	n/a	n/a	n/a	n/a	n/a	n/a	n/a	n/a	n/a
1656105	WORD	wordpools/wasnorm_wordpool.txt	LTP094	ltpFR	13	8	1	BATHROOM	99	n/a	0	n/a	0	0	0	0	0.5869140625	0.422607421875	lower	../fonts/amplitud.ttf
1659110	START	n/a	LTP094	ltpFR	13	n/a	n/a	n/a	n/a	n/a	n/a	n/a	n/a	n/a	n/a	n/a	n/a	n/a	n/a	n/a
1660233	PROB	n/a	LTP094	ltpFR	13	n/a	n/a	n/a	n/a	n/a	n/a	17	5	7	5	n/a	n/a	n/a	n/a	n/a
1662672	PROB	n/a	LTP094	ltpFR	13	n/a	n/a	n/a	n/a	n/a	n/a	16	1	7	8	n/a	n/a	n/a	n/a	n/a
1664012	PROB	n/a	LTP094	ltpFR	13	n/a	n/a	n/a	n/a	n/a	n/a	7	1	2	4	n/a	n/a	n/a	n/a	n/a
1667110	STOP	n/a	LTP094	ltpFR	13	n/a	n/a	n/a	n/a	n/a	n/a	n/a	n/a	n/a	n/a	n/a	n/a	n/a	n/a	n/a
1668182	WORD	wordpools/wasnorm_wordpool.txt	LTP094	ltpFR	13	8	1	GLOVE	642	n/a	0	n/a	0	0	0	0	0.5869140625	0.422607421875	lower	../fonts/amplitud.ttf
1671188	START	n/a	LTP094	ltpFR	13	n/a	n/a	n/a	n/a	n/a	n/a	n/a	n/a	n/a	n/a	n/a	n/a	n/a	n/a	n/a
1672318	PROB	n/a	LTP094	ltpFR	13	n/a	n/a	n/a	n/a	n/a	n/a	16	9	1	6	n/a	n/a	n/a	n/a	n/a
1673892	PROB	n/a	LTP094	ltpFR	13	n/a	n/a	n/a	n/a	n/a	n/a	16	9	5	2	n/a	n/a	n/a	n/a	n/a
1676090	PROB	n/a	LTP094	ltpFR	13	n/a	n/a	n/a	n/a	n/a	n/a	17	5	9	3	n/a	n/a	n/a	n/a	n/a
1678133	STOP	n/a	LTP094	ltpFR	13	n/a	n/a	n/a	n/a	n/a	n/a	n/a	n/a	n/a	n/a	n/a	n/a	n/a	n/a	n/a
1680160	WORD	wordpools/wasnorm_wordpool.txt	LTP094	ltpFR	13	8	1	HAND	683	n/a	1	n/a	0	0	0	0	0.5869140625	0.422607421875	lower	../fonts/amplitud.ttf
1683165	START	n/a	LTP094	ltpFR	13	n/a	n/a	n/a	n/a	n/a	n/a	n/a	n/a	n/a	n/a	n/a	n/a	n/a	n/a	n/a
1684064	PROB	n/a	LTP094	ltpFR	13	n/a	n/a	n/a	n/a	n/a	n/a	18	5	7	6	n/a	n/a	n/a	n/a	n/a
1686636	PROB	n/a	LTP094	ltpFR	13	n/a	n/a	n/a	n/a	n/a	n/a	22	7	8	7	n/a	n/a	n/a	n/a	n/a
1689457	PROB	n/a	LTP094	ltpFR	13	n/a	n/a	n/a	n/a	n/a	n/a	14	1	4	9	n/a	n/a	n/a	n/a	n/a
1691117	STOP	n/a	LTP094	ltpFR	13	n/a	n/a	n/a	n/a	n/a	n/a	n/a	n/a	n/a	n/a	n/a	n/a	n/a	n/a	n/a
1692113	WORD	wordpools/wasnorm_wordpool.txt	LTP094	ltpFR	13	8	1	STETHOSCOPE	1379	n/a	0	n/a	0	0	0	0	0.5869140625	0.422607421875	lower	../fonts/amplitud.ttf
1695118	START	n/a	LTP094	ltpFR	13	n/a	n/a	n/a	n/a	n/a	n/a	n/a	n/a	n/a	n/a	n/a	n/a	n/a	n/a	n/a
1696008	PROB	n/a	LTP094	ltpFR	13	n/a	n/a	n/a	n/a	n/a	n/a	22	8	7	7	n/a	n/a	n/a	n/a	n/a
1698197	PROB	n/a	LTP094	ltpFR	13	n/a	n/a	n/a	n/a	n/a	n/a	17	9	2	6	n/a	n/a	n/a	n/a	n/a
1700170	PROB	n/a	LTP094	ltpFR	13	n/a	n/a	n/a	n/a	n/a	n/a	7	1	2	4	n/a	n/a	n/a	n/a	n/a
1701661	STOP	n/a	LTP094	ltpFR	13	n/a	n/a	n/a	n/a	n/a	n/a	n/a	n/a	n/a	n/a	n/a	n/a	n/a	n/a	n/a
1704232	WORD	wordpools/wasnorm_wordpool.txt	LTP094	ltpFR	13	8	1	COMMITTEE	355	n/a	1	n/a	0	0	0	0	0.5869140625	0.422607421875	lower	../fonts/amplitud.ttf
1707237	START	n/a	LTP094	ltpFR	13	n/a	n/a	n/a	n/a	n/a	n/a	n/a	n/a	n/a	n/a	n/a	n/a	n/a	n/a	n/a
1708186	PROB	n/a	LTP094	ltpFR	13	n/a	n/a	n/a	n/a	n/a	n/a	19	7	7	5	n/a	n/a	n/a	n/a	n/a
1709751	PROB	n/a	LTP094	ltpFR	13	n/a	n/a	n/a	n/a	n/a	n/a	15	8	1	6	n/a	n/a	n/a	n/a	n/a
1711748	PROB	n/a	LTP094	ltpFR	13	n/a	n/a	n/a	n/a	n/a	n/a	19	2	9	8	n/a	n/a	n/a	n/a	n/a
1714941	STOP	n/a	LTP094	ltpFR	13	n/a	n/a	n/a	n/a	n/a	n/a	n/a	n/a	n/a	n/a	n/a	n/a	n/a	n/a	n/a
1716168	WORD	wordpools/wasnorm_wordpool.txt	LTP094	ltpFR	13	8	1	CITIZEN	312	n/a	1	n/a	0	0	0	0	0.5869140625	0.422607421875	lower	../fonts/amplitud.ttf
1719174	START	n/a	LTP094	ltpFR	13	n/a	n/a	n/a	n/a	n/a	n/a	n/a	n/a	n/a	n/a	n/a	n/a	n/a	n/a	n/a
1720213	PROB	n/a	LTP094	ltpFR	13	n/a	n/a	n/a	n/a	n/a	n/a	17	8	4	5	n/a	n/a	n/a	n/a	n/a
1721970	PROB	n/a	LTP094	ltpFR	13	n/a	n/a	n/a	n/a	n/a	n/a	8	2	4	2	n/a	n/a	n/a	n/a	n/a
1723567	PROB	n/a	LTP094	ltpFR	13	n/a	n/a	n/a	n/a	n/a	n/a	10	1	2	7	n/a	n/a	n/a	n/a	n/a
1725050	PROB	n/a	LTP094	ltpFR	13	n/a	n/a	n/a	n/a	n/a	n/a	19	7	5	7	n/a	n/a	n/a	n/a	n/a
1726693	STOP	n/a	LTP094	ltpFR	13	n/a	n/a	n/a	n/a	n/a	n/a	n/a	n/a	n/a	n/a	n/a	n/a	n/a	n/a	n/a
1728328	WORD	wordpools/wasnorm_wordpool.txt	LTP094	ltpFR	13	8	1	VIOLIN	1571	n/a	0	n/a	0	0	0	0	0.5869140625	0.422607421875	lower	../fonts/amplitud.ttf
1731333	START	n/a	LTP094	ltpFR	13	n/a	n/a	n/a	n/a	n/a	n/a	n/a	n/a	n/a	n/a	n/a	n/a	n/a	n/a	n/a
1732523	PROB	n/a	LTP094	ltpFR	13	n/a	n/a	n/a	n/a	n/a	n/a	14	2	9	3	n/a	n/a	n/a	n/a	n/a
1734755	PROB	n/a	LTP094	ltpFR	13	n/a	n/a	n/a	n/a	n/a	n/a	18	1	9	8	n/a	n/a	n/a	n/a	n/a
1736527	PROB	n/a	LTP094	ltpFR	13	n/a	n/a	n/a	n/a	n/a	n/a	12	5	3	4	n/a	n/a	n/a	n/a	n/a
1737909	STOP	n/a	LTP094	ltpFR	13	n/a	n/a	n/a	n/a	n/a	n/a	n/a	n/a	n/a	n/a	n/a	n/a	n/a	n/a	n/a
1740456	WORD	wordpools/wasnorm_wordpool.txt	LTP094	ltpFR	13	8	1	PASTA	1021	n/a	0	n/a	0	0	0	0	0.5869140625	0.422607421875	lower	../fonts/amplitud.ttf
1743461	START	n/a	LTP094	ltpFR	13	n/a	n/a	n/a	n/a	n/a	n/a	n/a	n/a	n/a	n/a	n/a	n/a	n/a	n/a	n/a
1744559	PROB	n/a	LTP094	ltpFR	13	n/a	n/a	n/a	n/a	n/a	n/a	11	1	6	4	n/a	n/a	n/a	n/a	n/a
1745717	PROB	n/a	LTP094	ltpFR	13	n/a	n/a	n/a	n/a	n/a	n/a	20	7	4	9	n/a	n/a	n/a	n/a	n/a
1751460	STOP	n/a	LTP094	ltpFR	13	n/a	n/a	n/a	n/a	n/a	n/a	n/a	n/a	n/a	n/a	n/a	n/a	n/a	n/a	n/a
1752558	WORD	wordpools/wasnorm_wordpool.txt	LTP094	ltpFR	13	8	1	SURGEON	1413	n/a	1	n/a	0	0	0	0	0.5869140625	0.422607421875	lower	../fonts/amplitud.ttf
1755564	START	n/a	LTP094	ltpFR	13	n/a	n/a	n/a	n/a	n/a	n/a	n/a	n/a	n/a	n/a	n/a	n/a	n/a	n/a	n/a
1756763	PROB	n/a	LTP094	ltpFR	13	n/a	n/a	n/a	n/a	n/a	n/a	14	4	1	9	n/a	n/a	n/a	n/a	n/a
1758977	PROB	n/a	LTP094	ltpFR	13	n/a	n/a	n/a	n/a	n/a	n/a	12	2	1	9	n/a	n/a	n/a	n/a	n/a
1761498	PROB	n/a	LTP094	ltpFR	13	n/a	n/a	n/a	n/a	n/a	n/a	14	2	4	8	n/a	n/a	n/a	n/a	n/a
1763101	STOP	n/a	LTP094	ltpFR	13	n/a	n/a	n/a	n/a	n/a	n/a	n/a	n/a	n/a	n/a	n/a	n/a	n/a	n/a	n/a
1764603	WORD	wordpools/wasnorm_wordpool.txt	LTP094	ltpFR	13	8	1	WAREHOUSE	1588	n/a	0	n/a	0	0	0	0	0.5869140625	0.422607421875	lower	../fonts/amplitud.ttf
1767616	START	n/a	LTP094	ltpFR	13	n/a	n/a	n/a	n/a	n/a	n/a	n/a	n/a	n/a	n/a	n/a	n/a	n/a	n/a	n/a
1768799	PROB	n/a	LTP094	ltpFR	13	n/a	n/a	n/a	n/a	n/a	n/a	14	3	8	3	n/a	n/a	n/a	n/a	n/a
1770813	PROB	n/a	LTP094	ltpFR	13	n/a	n/a	n/a	n/a	n/a	n/a	20	8	4	8	n/a	n/a	n/a	n/a	n/a
1772711	PROB	n/a	LTP094	ltpFR	13	n/a	n/a	n/a	n/a	n/a	n/a	19	2	8	9	n/a	n/a	n/a	n/a	n/a
1775077	STOP	n/a	LTP094	ltpFR	13	n/a	n/a	n/a	n/a	n/a	n/a	n/a	n/a	n/a	n/a	n/a	n/a	n/a	n/a	n/a
1776539	WORD	wordpools/wasnorm_wordpool.txt	LTP094	ltpFR	13	8	1	BOLT	146	n/a	0	n/a	0	0	0	0	0.5869140625	0.422607421875	lower	../fonts/amplitud.ttf
1779544	START	n/a	LTP094	ltpFR	13	n/a	n/a	n/a	n/a	n/a	n/a	n/a	n/a	n/a	n/a	n/a	n/a	n/a	n/a	n/a
1780710	PROB	n/a	LTP094	ltpFR	13	n/a	n/a	n/a	n/a	n/a	n/a	12	7	4	1	n/a	n/a	n/a	n/a	n/a
1782615	PROB	n/a	LTP094	ltpFR	13	n/a	n/a	n/a	n/a	n/a	n/a	17	3	8	6	n/a	n/a	n/a	n/a	n/a
1787532	STOP	n/a	LTP094	ltpFR	13	n/a	n/a	n/a	n/a	n/a	n/a	n/a	n/a	n/a	n/a	n/a	n/a	n/a	n/a	n/a
1788616	WORD	wordpools/wasnorm_wordpool.txt	LTP094	ltpFR	13	8	1	SNACK	1331	n/a	0	n/a	0	0	0	0	0.5869140625	0.422607421875	lower	../fonts/amplitud.ttf
1791622	START	n/a	LTP094	ltpFR	13	n/a	n/a	n/a	n/a	n/a	n/a	n/a	n/a	n/a	n/a	n/a	n/a	n/a	n/a	n/a
1792821	PROB	n/a	LTP094	ltpFR	13	n/a	n/a	n/a	n/a	n/a	n/a	18	9	4	5	n/a	n/a	n/a	n/a	n/a
1796225	PROB	n/a	LTP094	ltpFR	13	n/a	n/a	n/a	n/a	n/a	n/a	13	3	2	8	n/a	n/a	n/a	n/a	n/a
1799622	STOP	n/a	LTP094	ltpFR	13	n/a	n/a	n/a	n/a	n/a	n/a	n/a	n/a	n/a	n/a	n/a	n/a	n/a	n/a	n/a
1800436	WORD	wordpools/wasnorm_wordpool.txt	LTP094	ltpFR	13	8	1	TURKEY	1520	n/a	1	n/a	0	0	0	0	0.5869140625	0.422607421875	lower	../fonts/amplitud.ttf
1803441	START	n/a	LTP094	ltpFR	13	n/a	n/a	n/a	n/a	n/a	n/a	n/a	n/a	n/a	n/a	n/a	n/a	n/a	n/a	n/a
1804323	PROB	n/a	LTP094	ltpFR	13	n/a	n/a	n/a	n/a	n/a	n/a	18	5	7	6	n/a	n/a	n/a	n/a	n/a
1805706	PROB	n/a	LTP094	ltpFR	13	n/a	n/a	n/a	n/a	n/a	n/a	11	8	2	1	n/a	n/a	n/a	n/a	n/a
1807403	PROB	n/a	LTP094	ltpFR	13	n/a	n/a	n/a	n/a	n/a	n/a	21	7	9	5	n/a	n/a	n/a	n/a	n/a
1811440	STOP	n/a	LTP094	ltpFR	13	n/a	n/a	n/a	n/a	n/a	n/a	n/a	n/a	n/a	n/a	n/a	n/a	n/a	n/a	n/a
1812622	WORD	wordpools/wasnorm_wordpool.txt	LTP094	ltpFR	13	8	1	BLUEPRINT	142	n/a	0	n/a	0	0	0	0	0.5869140625	0.422607421875	lower	../fonts/amplitud.ttf
1815628	START	n/a	LTP094	ltpFR	13	n/a	n/a	n/a	n/a	n/a	n/a	n/a	n/a	n/a	n/a	n/a	n/a	n/a	n/a	n/a
1816834	PROB	n/a	LTP094	ltpFR	13	n/a	n/a	n/a	n/a	n/a	n/a	16	9	5	2	n/a	n/a	n/a	n/a	n/a
1818432	PROB	n/a	LTP094	ltpFR	13	n/a	n/a	n/a	n/a	n/a	n/a	20	7	4	9	n/a	n/a	n/a	n/a	n/a
1821063	PROB	n/a	LTP094	ltpFR	13	n/a	n/a	n/a	n/a	n/a	n/a	20	7	7	6	n/a	n/a	n/a	n/a	n/a
1822524	STOP	n/a	LTP094	ltpFR	13	n/a	n/a	n/a	n/a	n/a	n/a	n/a	n/a	n/a	n/a	n/a	n/a	n/a	n/a	n/a
1824767	WORD	wordpools/wasnorm_wordpool.txt	LTP094	ltpFR	13	8	1	COMB	351	n/a	0	n/a	0	0	0	0	0.5869140625	0.422607421875	lower	../fonts/amplitud.ttf
1827772	START	n/a	LTP094	ltpFR	13	n/a	n/a	n/a	n/a	n/a	n/a	n/a	n/a	n/a	n/a	n/a	n/a	n/a	n/a	n/a
1828754	PROB	n/a	LTP094	ltpFR	13	n/a	n/a	n/a	n/a	n/a	n/a	12	2	8	2	n/a	n/a	n/a	n/a	n/a
1830276	PROB	n/a	LTP094	ltpFR	13	n/a	n/a	n/a	n/a	n/a	n/a	10	7	2	1	n/a	n/a	n/a	n/a	n/a
1831701	PROB	n/a	LTP094	ltpFR	13	n/a	n/a	n/a	n/a	n/a	n/a	22	9	6	7	n/a	n/a	n/a	n/a	n/a
1833840	PROB	n/a	LTP094	ltpFR	13	n/a	n/a	n/a	n/a	n/a	n/a	11	9	1	1	n/a	n/a	n/a	n/a	n/a
1835029	STOP	n/a	LTP094	ltpFR	13	n/a	n/a	n/a	n/a	n/a	n/a	n/a	n/a	n/a	n/a	n/a	n/a	n/a	n/a	n/a
1836969	WORD	wordpools/wasnorm_wordpool.txt	LTP094	ltpFR	13	8	1	SQUIRREL	1362	n/a	1	n/a	0	0	0	0	0.5869140625	0.422607421875	lower	../fonts/amplitud.ttf
1839975	START	n/a	LTP094	ltpFR	13	n/a	n/a	n/a	n/a	n/a	n/a	n/a	n/a	n/a	n/a	n/a	n/a	n/a	n/a	n/a
1841015	PROB	n/a	LTP094	ltpFR	13	n/a	n/a	n/a	n/a	n/a	n/a	22	8	7	7	n/a	n/a	n/a	n/a	n/a
1842996	PROB	n/a	LTP094	ltpFR	13	n/a	n/a	n/a	n/a	n/a	n/a	22	8	7	7	n/a	n/a	n/a	n/a	n/a
1844153	PROB	n/a	LTP094	ltpFR	13	n/a	n/a	n/a	n/a	n/a	n/a	16	3	4	9	n/a	n/a	n/a	n/a	n/a
1847975	STOP	n/a	LTP094	ltpFR	13	n/a	n/a	n/a	n/a	n/a	n/a	n/a	n/a	n/a	n/a	n/a	n/a	n/a	n/a	n/a
1849888	REC_START	n/a	LTP094	ltpFR	13	8	n/a	n/a	n/a	n/a	n/a	n/a	0	0	0	n/a	n/a	n/a	n/a	n/a
1851295	REC_WORD	wordpools/wasnorm_wordpool.txt	LTP094	ltpFR	13	8	1	BOLT	146	n/a	0	n/a	0	0	0	n/a	n/a	n/a	n/a	n/a
1852068	REC_WORD	wordpools/wasnorm_wordpool.txt	LTP094	ltpFR	13	8	1	WAREHOUSE	1588	n/a	0	n/a	0	0	0	n/a	n/a	n/a	n/a	n/a
1853189	REC_WORD	wordpools/wasnorm_wordpool.txt	LTP094	ltpFR	13	8	1	SURGEON	1413	n/a	1	n/a	0	0	0	n/a	n/a	n/a	n/a	n/a
1854716	REC_WORD	wordpools/wasnorm_wordpool.txt	LTP094	ltpFR	13	8	1	STETHOSCOPE	1379	n/a	0	n/a	0	0	0	n/a	n/a	n/a	n/a	n/a
1861796	REC_WORD	wordpools/wasnorm_wordpool.txt	LTP094	ltpFR	13	8	1	HAND	683	n/a	1	n/a	0	0	0	n/a	n/a	n/a	n/a	n/a
1867158	REC_WORD	wordpools/wasnorm_wordpool.txt	LTP094	ltpFR	13	8	1	SQUIRREL	1362	n/a	1	n/a	0	0	0	n/a	n/a	n/a	n/a	n/a
1882788	REC_WORD	wordpools/wasnorm_wordpool.txt	LTP094	ltpFR	13	8	1	SNACK	1331	n/a	0	n/a	0	0	0	n/a	n/a	n/a	n/a	n/a
1884305	REC_WORD	wordpools/wasnorm_wordpool.txt	LTP094	ltpFR	13	8	1	TURKEY	1520	n/a	1	n/a	0	0	0	n/a	n/a	n/a	n/a	n/a
1926749	START	n/a	LTP094	ltpFR	13	n/a	n/a	n/a	n/a	n/a	n/a	n/a	n/a	n/a	n/a	n/a	n/a	n/a	n/a	n/a
1928254	PROB	n/a	LTP094	ltpFR	13	n/a	n/a	n/a	n/a	n/a	n/a	8	1	4	3	n/a	n/a	n/a	n/a	n/a
1929619	PROB	n/a	LTP094	ltpFR	13	n/a	n/a	n/a	n/a	n/a	n/a	12	6	2	4	n/a	n/a	n/a	n/a	n/a
1930927	PROB	n/a	LTP094	ltpFR	13	n/a	n/a	n/a	n/a	n/a	n/a	16	7	7	2	n/a	n/a	n/a	n/a	n/a
1932192	PROB	n/a	LTP094	ltpFR	13	n/a	n/a	n/a	n/a	n/a	n/a	7	1	1	5	n/a	n/a	n/a	n/a	n/a
1933373	PROB	n/a	LTP094	ltpFR	13	n/a	n/a	n/a	n/a	n/a	n/a	9	2	1	6	n/a	n/a	n/a	n/a	n/a
1934989	PROB	n/a	LTP094	ltpFR	13	n/a	n/a	n/a	n/a	n/a	n/a	16	5	2	7	n/a	n/a	n/a	n/a	n/a
1936654	PROB	n/a	LTP094	ltpFR	13	n/a	n/a	n/a	n/a	n/a	n/a	11	1	7	3	n/a	n/a	n/a	n/a	n/a
1938309	PROB	n/a	LTP094	ltpFR	13	n/a	n/a	n/a	n/a	n/a	n/a	12	1	2	9	n/a	n/a	n/a	n/a	n/a
1940273	PROB	n/a	LTP094	ltpFR	13	n/a	n/a	n/a	n/a	n/a	n/a	18	8	9	1	n/a	n/a	n/a	n/a	n/a
1942669	STOP	n/a	LTP094	ltpFR	13	n/a	n/a	n/a	n/a	n/a	n/a	n/a	n/a	n/a	n/a	n/a	n/a	n/a	n/a	n/a
1943929	WORD	wordpools/wasnorm_wordpool.txt	LTP094	ltpFR	13	9	0	BASKET	95	n/a	0	n/a	0	0	0	1	0.412841796875	0.57763671875	upper	../fonts/zerothre.ttf
1946934	START	n/a	LTP094	ltpFR	13	n/a	n/a	n/a	n/a	n/a	n/a	n/a	n/a	n/a	n/a	n/a	n/a	n/a	n/a	n/a
1947749	PROB	n/a	LTP094	ltpFR	13	n/a	n/a	n/a	n/a	n/a	n/a	10	2	1	7	n/a	n/a	n/a	n/a	n/a
1949388	PROB	n/a	LTP094	ltpFR	13	n/a	n/a	n/a	n/a	n/a	n/a	10	3	4	3	n/a	n/a	n/a	n/a	n/a
1951112	PROB	n/a	LTP094	ltpFR	13	n/a	n/a	n/a	n/a	n/a	n/a	24	8	7	9	n/a	n/a	n/a	n/a	n/a
1953242	PROB	n/a	LTP094	ltpFR	13	n/a	n/a	n/a	n/a	n/a	n/a	23	8	9	6	n/a	n/a	n/a	n/a	n/a
1957213	PROB	n/a	LTP094	ltpFR	13	n/a	n/a	n/a	n/a	n/a	n/a	14	1	4	9	n/a	n/a	n/a	n/a	n/a
1958761	PROB	n/a	LTP094	ltpFR	13	n/a	n/a	n/a	n/a	n/a	n/a	16	8	3	5	n/a	n/a	n/a	n/a	n/a
1962005	STOP	n/a	LTP094	ltpFR	13	n/a	n/a	n/a	n/a	n/a	n/a	n/a	n/a	n/a	n/a	n/a	n/a	n/a	n/a	n/a
1963880	WORD	wordpools/wasnorm_wordpool.txt	LTP094	ltpFR	13	9	0	MUFFIN	929	n/a	0	n/a	0	0	0	1	0.412841796875	0.57763671875	upper	../fonts/zerothre.ttf
1966886	START	n/a	LTP094	ltpFR	13	n/a	n/a	n/a	n/a	n/a	n/a	n/a	n/a	n/a	n/a	n/a	n/a	n/a	n/a	n/a
1967776	PROB	n/a	LTP094	ltpFR	13	n/a	n/a	n/a	n/a	n/a	n/a	16	6	1	9	n/a	n/a	n/a	n/a	n/a
1969365	PROB	n/a	LTP094	ltpFR	13	n/a	n/a	n/a	n/a	n/a	n/a	16	9	1	6	n/a	n/a	n/a	n/a	n/a
1970964	PROB	n/a	LTP094	ltpFR	13	n/a	n/a	n/a	n/a	n/a	n/a	14	7	1	6	n/a	n/a	n/a	n/a	n/a
1972419	PROB	n/a	LTP094	ltpFR	13	n/a	n/a	n/a	n/a	n/a	n/a	23	9	7	7	n/a	n/a	n/a	n/a	n/a
1978288	PROB	n/a	LTP094	ltpFR	13	n/a	n/a	n/a	n/a	n/a	n/a	16	6	5	5	n/a	n/a	n/a	n/a	n/a
1979528	PROB	n/a	LTP094	ltpFR	13	n/a	n/a	n/a	n/a	n/a	n/a	18	9	3	6	n/a	n/a	n/a	n/a	n/a
1981869	STOP	n/a	LTP094	ltpFR	13	n/a	n/a	n/a	n/a	n/a	n/a	n/a	n/a	n/a	n/a	n/a	n/a	n/a	n/a	n/a
1983724	WORD	wordpools/wasnorm_wordpool.txt	LTP094	ltpFR	13	9	0	DWARF	510	n/a	0	n/a	0	0	0	1	0.412841796875	0.57763671875	upper	../fonts/zerothre.ttf
1986729	START	n/a	LTP094	ltpFR	13	n/a	n/a	n/a	n/a	n/a	n/a	n/a	n/a	n/a	n/a	n/a	n/a	n/a	n/a	n/a
1987686	PROB	n/a	LTP094	ltpFR	13	n/a	n/a	n/a	n/a	n/a	n/a	23	8	7	8	n/a	n/a	n/a	n/a	n/a
1990482	PROB	n/a	LTP094	ltpFR	13	n/a	n/a	n/a	n/a	n/a	n/a	14	4	3	7	n/a	n/a	n/a	n/a	n/a
1991864	PROB	n/a	LTP094	ltpFR	13	n/a	n/a	n/a	n/a	n/a	n/a	14	6	7	2	n/a	n/a	n/a	n/a	n/a
1993495	PROB	n/a	LTP094	ltpFR	13	n/a	n/a	n/a	n/a	n/a	n/a	8	6	1	1	n/a	n/a	n/a	n/a	n/a
1994786	PROB	n/a	LTP094	ltpFR	13	n/a	n/a	n/a	n/a	n/a	n/a	6	1	2	3	n/a	n/a	n/a	n/a	n/a
1996234	PROB	n/a	LTP094	ltpFR	13	n/a	n/a	n/a	n/a	n/a	n/a	21	6	6	9	n/a	n/a	n/a	n/a	n/a
1998539	PROB	n/a	LTP094	ltpFR	13	n/a	n/a	n/a	n/a	n/a	n/a	20	2	9	9	n/a	n/a	n/a	n/a	n/a
2001821	STOP	n/a	LTP094	ltpFR	13	n/a	n/a	n/a	n/a	n/a	n/a	n/a	n/a	n/a	n/a	n/a	n/a	n/a	n/a	n/a
2003900	WORD	wordpools/wasnorm_wordpool.txt	LTP094	ltpFR	13	9	0	FEAST	556	n/a	1	n/a	0	0	0	1	0.412841796875	0.57763671875	upper	../fonts/zerothre.ttf
2006906	START	n/a	LTP094	ltpFR	13	n/a	n/a	n/a	n/a	n/a	n/a	n/a	n/a	n/a	n/a	n/a	n/a	n/a	n/a	n/a
2007829	PROB	n/a	LTP094	ltpFR	13	n/a	n/a	n/a	n/a	n/a	n/a	11	1	4	6	n/a	n/a	n/a	n/a	n/a
2008961	PROB	n/a	LTP094	ltpFR	13	n/a	n/a	n/a	n/a	n/a	n/a	11	6	1	4	n/a	n/a	n/a	n/a	n/a
2011424	PROB	n/a	LTP094	ltpFR	13	n/a	n/a	n/a	n/a	n/a	n/a	11	7	3	1	n/a	n/a	n/a	n/a	n/a
2012773	PROB	n/a	LTP094	ltpFR	13	n/a	n/a	n/a	n/a	n/a	n/a	8	1	6	1	n/a	n/a	n/a	n/a	n/a
2014122	PROB	n/a	LTP094	ltpFR	13	n/a	n/a	n/a	n/a	n/a	n/a	14	5	3	6	n/a	n/a	n/a	n/a	n/a
2016070	PROB	n/a	LTP094	ltpFR	13	n/a	n/a	n/a	n/a	n/a	n/a	12	1	9	2	n/a	n/a	n/a	n/a	n/a
2017884	PROB	n/a	LTP094	ltpFR	13	n/a	n/a	n/a	n/a	n/a	n/a	11	2	5	4	n/a	n/a	n/a	n/a	n/a
2019724	PROB	n/a	LTP094	ltpFR	13	n/a	n/a	n/a	n/a	n/a	n/a	10	3	1	6	n/a	n/a	n/a	n/a	n/a
2021338	PROB	n/a	LTP094	ltpFR	13	n/a	n/a	n/a	n/a	n/a	n/a	5	1	3	1	n/a	n/a	n/a	n/a	n/a
2022476	STOP	n/a	LTP094	ltpFR	13	n/a	n/a	n/a	n/a	n/a	n/a	n/a	n/a	n/a	n/a	n/a	n/a	n/a	n/a	n/a
2024035	WORD	wordpools/wasnorm_wordpool.txt	LTP094	ltpFR	13	9	1	GROCERY	664	n/a	0	n/a	0	0	0	0	0.5869140625	0.422607421875	lower	../fonts/amplitud.ttf
2027041	START	n/a	LTP094	ltpFR	13	n/a	n/a	n/a	n/a	n/a	n/a	n/a	n/a	n/a	n/a	n/a	n/a	n/a	n/a	n/a
2028231	PROB	n/a	LTP094	ltpFR	13	n/a	n/a	n/a	n/a	n/a	n/a	10	6	3	1	n/a	n/a	n/a	n/a	n/a
2029528	PROB	n/a	LTP094	ltpFR	13	n/a	n/a	n/a	n/a	n/a	n/a	21	8	4	9	n/a	n/a	n/a	n/a	n/a
2031268	PROB	n/a	LTP094	ltpFR	13	n/a	n/a	n/a	n/a	n/a	n/a	17	8	7	2	n/a	n/a	n/a	n/a	n/a
2033757	PROB	n/a	LTP094	ltpFR	13	n/a	n/a	n/a	n/a	n/a	n/a	15	1	9	5	n/a	n/a	n/a	n/a	n/a
2035288	PROB	n/a	LTP094	ltpFR	13	n/a	n/a	n/a	n/a	n/a	n/a	6	1	4	1	n/a	n/a	n/a	n/a	n/a
2036804	PROB	n/a	LTP094	ltpFR	13	n/a	n/a	n/a	n/a	n/a	n/a	18	9	5	4	n/a	n/a	n/a	n/a	n/a
2039275	PROB	n/a	LTP094	ltpFR	13	n/a	n/a	n/a	n/a	n/a	n/a	13	7	4	2	n/a	n/a	n/a	n/a	n/a
2043041	STOP	n/a	LTP094	ltpFR	13	n/a	n/a	n/a	n/a	n/a	n/a	n/a	n/a	n/a	n/a	n/a	n/a	n/a	n/a	n/a
2044187	WORD	wordpools/wasnorm_wordpool.txt	LTP094	ltpFR	13	9	1	PASSAGE	1019	n/a	0	n/a	0	0	0	0	0.5869140625	0.422607421875	lower	../fonts/amplitud.ttf
2047192	START	n/a	LTP094	ltpFR	13	n/a	n/a	n/a	n/a	n/a	n/a	n/a	n/a	n/a	n/a	n/a	n/a	n/a	n/a	n/a
2048323	PROB	n/a	LTP094	ltpFR	13	n/a	n/a	n/a	n/a	n/a	n/a	19	6	7	6	n/a	n/a	n/a	n/a	n/a
2052376	PROB	n/a	LTP094	ltpFR	13	n/a	n/a	n/a	n/a	n/a	n/a	20	9	8	3	n/a	n/a	n/a	n/a	n/a
2054666	PROB	n/a	LTP094	ltpFR	13	n/a	n/a	n/a	n/a	n/a	n/a	17	8	8	1	n/a	n/a	n/a	n/a	n/a
2056363	PROB	n/a	LTP094	ltpFR	13	n/a	n/a	n/a	n/a	n/a	n/a	6	2	1	3	n/a	n/a	n/a	n/a	n/a
2057763	PROB	n/a	LTP094	ltpFR	13	n/a	n/a	n/a	n/a	n/a	n/a	8	3	1	4	n/a	n/a	n/a	n/a	n/a
2058995	PROB	n/a	LTP094	ltpFR	13	n/a	n/a	n/a	n/a	n/a	n/a	16	7	5	4	n/a	n/a	n/a	n/a	n/a
2060459	PROB	n/a	LTP094	ltpFR	13	n/a	n/a	n/a	n/a	n/a	n/a	21	5	8	8	n/a	n/a	n/a	n/a	n/a
2061941	STOP	n/a	LTP094	ltpFR	13	n/a	n/a	n/a	n/a	n/a	n/a	n/a	n/a	n/a	n/a	n/a	n/a	n/a	n/a	n/a
2064205	WORD	wordpools/wasnorm_wordpool.txt	LTP094	ltpFR	13	9	1	WRITER	1627	n/a	1	n/a	0	0	0	0	0.5869140625	0.422607421875	lower	../fonts/amplitud.ttf
2067211	START	n/a	LTP094	ltpFR	13	n/a	n/a	n/a	n/a	n/a	n/a	n/a	n/a	n/a	n/a	n/a	n/a	n/a	n/a	n/a
2068101	PROB	n/a	LTP094	ltpFR	13	n/a	n/a	n/a	n/a	n/a	n/a	10	4	3	3	n/a	n/a	n/a	n/a	n/a
2069498	PROB	n/a	LTP094	ltpFR	13	n/a	n/a	n/a	n/a	n/a	n/a	8	4	2	2	n/a	n/a	n/a	n/a	n/a
2071780	PROB	n/a	LTP094	ltpFR	13	n/a	n/a	n/a	n/a	n/a	n/a	21	7	5	9	n/a	n/a	n/a	n/a	n/a
2073344	PROB	n/a	LTP094	ltpFR	13	n/a	n/a	n/a	n/a	n/a	n/a	13	9	1	3	n/a	n/a	n/a	n/a	n/a
2075391	PROB	n/a	LTP094	ltpFR	13	n/a	n/a	n/a	n/a	n/a	n/a	18	4	9	5	n/a	n/a	n/a	n/a	n/a
2077622	PROB	n/a	LTP094	ltpFR	13	n/a	n/a	n/a	n/a	n/a	n/a	10	1	1	8	n/a	n/a	n/a	n/a	n/a
2079021	PROB	n/a	LTP094	ltpFR	13	n/a	n/a	n/a	n/a	n/a	n/a	4	1	1	2	n/a	n/a	n/a	n/a	n/a
2080460	PROB	n/a	LTP094	ltpFR	13	n/a	n/a	n/a	n/a	n/a	n/a	16	2	7	7	n/a	n/a	n/a	n/a	n/a
2082292	STOP	n/a	LTP094	ltpFR	13	n/a	n/a	n/a	n/a	n/a	n/a	n/a	n/a	n/a	n/a	n/a	n/a	n/a	n/a	n/a
2084049	WORD	wordpools/wasnorm_wordpool.txt	LTP094	ltpFR	13	9	1	TUNA	1518	n/a	1	n/a	0	0	0	0	0.5869140625	0.422607421875	lower	../fonts/amplitud.ttf
2087054	START	n/a	LTP094	ltpFR	13	n/a	n/a	n/a	n/a	n/a	n/a	n/a	n/a	n/a	n/a	n/a	n/a	n/a	n/a	n/a
2088161	PROB	n/a	LTP094	ltpFR	13	n/a	n/a	n/a	n/a	n/a	n/a	21	9	5	7	n/a	n/a	n/a	n/a	n/a
2090125	PROB	n/a	LTP094	ltpFR	13	n/a	n/a	n/a	n/a	n/a	n/a	16	6	6	4	n/a	n/a	n/a	n/a	n/a
2091439	PROB	n/a	LTP094	ltpFR	13	n/a	n/a	n/a	n/a	n/a	n/a	13	7	1	5	n/a	n/a	n/a	n/a	n/a
2093105	PROB	n/a	LTP094	ltpFR	13	n/a	n/a	n/a	n/a	n/a	n/a	17	7	9	1	n/a	n/a	n/a	n/a	n/a
2094828	PROB	n/a	LTP094	ltpFR	13	n/a	n/a	n/a	n/a	n/a	n/a	16	3	5	8	n/a	n/a	n/a	n/a	n/a
2097117	PROB	n/a	LTP094	ltpFR	13	n/a	n/a	n/a	n/a	n/a	n/a	10	7	1	2	n/a	n/a	n/a	n/a	n/a
2098415	PROB	n/a	LTP094	ltpFR	13	n/a	n/a	n/a	n/a	n/a	n/a	26	8	9	9	n/a	n/a	n/a	n/a	n/a
2100755	PROB	n/a	LTP094	ltpFR	13	n/a	n/a	n/a	n/a	n/a	n/a	26	9	8	9	n/a	n/a	n/a	n/a	n/a
2102781	STOP	n/a	LTP094	ltpFR	13	n/a	n/a	n/a	n/a	n/a	n/a	n/a	n/a	n/a	n/a	n/a	n/a	n/a	n/a	n/a
2103967	WORD	wordpools/wasnorm_wordpool.txt	LTP094	ltpFR	13	9	0	TORNADO	1485	n/a	1	n/a	0	0	0	1	0.412841796875	0.57763671875	upper	../fonts/zerothre.ttf
2106973	START	n/a	LTP094	ltpFR	13	n/a	n/a	n/a	n/a	n/a	n/a	n/a	n/a	n/a	n/a	n/a	n/a	n/a	n/a	n/a
2107805	PROB	n/a	LTP094	ltpFR	13	n/a	n/a	n/a	n/a	n/a	n/a	11	3	6	2	n/a	n/a	n/a	n/a	n/a
2109577	PROB	n/a	LTP094	ltpFR	13	n/a	n/a	n/a	n/a	n/a	n/a	18	6	9	3	n/a	n/a	n/a	n/a	n/a
2111366	PROB	n/a	LTP094	ltpFR	13	n/a	n/a	n/a	n/a	n/a	n/a	17	8	1	8	n/a	n/a	n/a	n/a	n/a
2112965	PROB	n/a	LTP094	ltpFR	13	n/a	n/a	n/a	n/a	n/a	n/a	11	7	3	1	n/a	n/a	n/a	n/a	n/a
2114039	PROB	n/a	LTP094	ltpFR	13	n/a	n/a	n/a	n/a	n/a	n/a	14	4	3	7	n/a	n/a	n/a	n/a	n/a
2116618	PROB	n/a	LTP094	ltpFR	13	n/a	n/a	n/a	n/a	n/a	n/a	11	2	1	8	n/a	n/a	n/a	n/a	n/a
2117918	PROB	n/a	LTP094	ltpFR	13	n/a	n/a	n/a	n/a	n/a	n/a	10	4	1	5	n/a	n/a	n/a	n/a	n/a
2119225	PROB	n/a	LTP094	ltpFR	13	n/a	n/a	n/a	n/a	n/a	n/a	14	1	8	6	n/a	n/a	n/a	n/a	n/a
2122973	STOP	n/a	LTP094	ltpFR	13	n/a	n/a	n/a	n/a	n/a	n/a	n/a	n/a	n/a	n/a	n/a	n/a	n/a	n/a	n/a
2123936	WORD	wordpools/wasnorm_wordpool.txt	LTP094	ltpFR	13	9	0	NUT	965	n/a	0	n/a	0	0	0	1	0.412841796875	0.57763671875	upper	../fonts/zerothre.ttf
2126941	START	n/a	LTP094	ltpFR	13	n/a	n/a	n/a	n/a	n/a	n/a	n/a	n/a	n/a	n/a	n/a	n/a	n/a	n/a	n/a
2127815	PROB	n/a	LTP094	ltpFR	13	n/a	n/a	n/a	n/a	n/a	n/a	14	9	4	1	n/a	n/a	n/a	n/a	n/a
2129420	PROB	n/a	LTP094	ltpFR	13	n/a	n/a	n/a	n/a	n/a	n/a	18	4	9	5	n/a	n/a	n/a	n/a	n/a
2131893	PROB	n/a	LTP094	ltpFR	13	n/a	n/a	n/a	n/a	n/a	n/a	12	1	9	2	n/a	n/a	n/a	n/a	n/a
2133449	PROB	n/a	LTP094	ltpFR	13	n/a	n/a	n/a	n/a	n/a	n/a	16	4	7	5	n/a	n/a	n/a	n/a	n/a
2135714	PROB	n/a	LTP094	ltpFR	13	n/a	n/a	n/a	n/a	n/a	n/a	20	9	9	2	n/a	n/a	n/a	n/a	n/a
2137129	PROB	n/a	LTP094	ltpFR	13	n/a	n/a	n/a	n/a	n/a	n/a	18	8	9	1	n/a	n/a	n/a	n/a	n/a
2139575	PROB	n/a	LTP094	ltpFR	13	n/a	n/a	n/a	n/a	n/a	n/a	17	9	3	5	n/a	n/a	n/a	n/a	n/a
2141532	STOP	n/a	LTP094	ltpFR	13	n/a	n/a	n/a	n/a	n/a	n/a	n/a	n/a	n/a	n/a	n/a	n/a	n/a	n/a	n/a
2144113	WORD	wordpools/wasnorm_wordpool.txt	LTP094	ltpFR	13	9	0	PEANUT	1032	n/a	0	n/a	0	0	0	1	0.412841796875	0.57763671875	upper	../fonts/zerothre.ttf
2147118	START	n/a	LTP094	ltpFR	13	n/a	n/a	n/a	n/a	n/a	n/a	n/a	n/a	n/a	n/a	n/a	n/a	n/a	n/a	n/a
2148100	PROB	n/a	LTP094	ltpFR	13	n/a	n/a	n/a	n/a	n/a	n/a	14	5	5	4	n/a	n/a	n/a	n/a	n/a
2149215	PROB	n/a	LTP094	ltpFR	13	n/a	n/a	n/a	n/a	n/a	n/a	23	8	8	7	n/a	n/a	n/a	n/a	n/a
2151345	PROB	n/a	LTP094	ltpFR	13	n/a	n/a	n/a	n/a	n/a	n/a	9	1	2	6	n/a	n/a	n/a	n/a	n/a
2153317	PROB	n/a	LTP094	ltpFR	13	n/a	n/a	n/a	n/a	n/a	n/a	21	7	7	7	n/a	n/a	n/a	n/a	n/a
2154491	PROB	n/a	LTP094	ltpFR	13	n/a	n/a	n/a	n/a	n/a	n/a	6	2	3	1	n/a	n/a	n/a	n/a	n/a
2155606	PROB	n/a	LTP094	ltpFR	13	n/a	n/a	n/a	n/a	n/a	n/a	20	6	8	6	n/a	n/a	n/a	n/a	n/a
2158837	PROB	n/a	LTP094	ltpFR	13	n/a	n/a	n/a	n/a	n/a	n/a	11	1	7	3	n/a	n/a	n/a	n/a	n/a
2160517	PROB	n/a	LTP094	ltpFR	13	n/a	n/a	n/a	n/a	n/a	n/a	21	5	8	8	n/a	n/a	n/a	n/a	n/a
2161917	STOP	n/a	LTP094	ltpFR	13	n/a	n/a	n/a	n/a	n/a	n/a	n/a	n/a	n/a	n/a	n/a	n/a	n/a	n/a	n/a
2163948	WORD	wordpools/wasnorm_wordpool.txt	LTP094	ltpFR	13	9	0	BUCKET	184	n/a	0	n/a	0	0	0	1	0.412841796875	0.57763671875	upper	../fonts/zerothre.ttf
2166953	START	n/a	LTP094	ltpFR	13	n/a	n/a	n/a	n/a	n/a	n/a	n/a	n/a	n/a	n/a	n/a	n/a	n/a	n/a	n/a
2168010	PROB	n/a	LTP094	ltpFR	13	n/a	n/a	n/a	n/a	n/a	n/a	21	9	6	6	n/a	n/a	n/a	n/a	n/a
2170940	PROB	n/a	LTP094	ltpFR	13	n/a	n/a	n/a	n/a	n/a	n/a	17	7	4	6	n/a	n/a	n/a	n/a	n/a
2173045	PROB	n/a	LTP094	ltpFR	13	n/a	n/a	n/a	n/a	n/a	n/a	5	2	1	2	n/a	n/a	n/a	n/a	n/a
2174276	PROB	n/a	LTP094	ltpFR	13	n/a	n/a	n/a	n/a	n/a	n/a	17	8	8	1	n/a	n/a	n/a	n/a	n/a
2175567	PROB	n/a	LTP094	ltpFR	13	n/a	n/a	n/a	n/a	n/a	n/a	9	3	4	2	n/a	n/a	n/a	n/a	n/a
2178198	PROB	n/a	LTP094	ltpFR	13	n/a	n/a	n/a	n/a	n/a	n/a	11	2	8	1	n/a	n/a	n/a	n/a	n/a
2180628	PROB	n/a	LTP094	ltpFR	13	n/a	n/a	n/a	n/a	n/a	n/a	15	7	3	5	n/a	n/a	n/a	n/a	n/a
2181909	STOP	n/a	LTP094	ltpFR	13	n/a	n/a	n/a	n/a	n/a	n/a	n/a	n/a	n/a	n/a	n/a	n/a	n/a	n/a	n/a
2183775	WORD	wordpools/wasnorm_wordpool.txt	LTP094	ltpFR	13	9	1	WHALE	1601	n/a	1	n/a	0	0	0	0	0.5869140625	0.422607421875	lower	../fonts/amplitud.ttf
2186780	START	n/a	LTP094	ltpFR	13	n/a	n/a	n/a	n/a	n/a	n/a	n/a	n/a	n/a	n/a	n/a	n/a	n/a	n/a	n/a
2187594	PROB	n/a	LTP094	ltpFR	13	n/a	n/a	n/a	n/a	n/a	n/a	13	6	4	3	n/a	n/a	n/a	n/a	n/a
2188677	PROB	n/a	LTP094	ltpFR	13	n/a	n/a	n/a	n/a	n/a	n/a	11	2	8	1	n/a	n/a	n/a	n/a	n/a
2189834	PROB	n/a	LTP094	ltpFR	13	n/a	n/a	n/a	n/a	n/a	n/a	15	9	5	1	n/a	n/a	n/a	n/a	n/a
2191033	PROB	n/a	LTP094	ltpFR	13	n/a	n/a	n/a	n/a	n/a	n/a	10	1	8	1	n/a	n/a	n/a	n/a	n/a
2192380	PROB	n/a	LTP094	ltpFR	13	n/a	n/a	n/a	n/a	n/a	n/a	11	2	7	2	n/a	n/a	n/a	n/a	n/a
2194004	PROB	n/a	LTP094	ltpFR	13	n/a	n/a	n/a	n/a	n/a	n/a	14	8	5	1	n/a	n/a	n/a	n/a	n/a
2195703	PROB	n/a	LTP094	ltpFR	13	n/a	n/a	n/a	n/a	n/a	n/a	10	4	2	4	n/a	n/a	n/a	n/a	n/a
2197599	PROB	n/a	LTP094	ltpFR	13	n/a	n/a	n/a	n/a	n/a	n/a	15	9	3	3	n/a	n/a	n/a	n/a	n/a
2202780	STOP	n/a	LTP094	ltpFR	13	n/a	n/a	n/a	n/a	n/a	n/a	n/a	n/a	n/a	n/a	n/a	n/a	n/a	n/a	n/a
2203668	WORD	wordpools/wasnorm_wordpool.txt	LTP094	ltpFR	13	9	1	ROCK	1201	n/a	0	n/a	0	0	0	0	0.5869140625	0.422607421875	lower	../fonts/amplitud.ttf
2206674	START	n/a	LTP094	ltpFR	13	n/a	n/a	n/a	n/a	n/a	n/a	n/a	n/a	n/a	n/a	n/a	n/a	n/a	n/a	n/a
2207755	PROB	n/a	LTP094	ltpFR	13	n/a	n/a	n/a	n/a	n/a	n/a	9	5	2	2	n/a	n/a	n/a	n/a	n/a
2209602	PROB	n/a	LTP094	ltpFR	13	n/a	n/a	n/a	n/a	n/a	n/a	19	4	8	7	n/a	n/a	n/a	n/a	n/a
2211591	PROB	n/a	LTP094	ltpFR	13	n/a	n/a	n/a	n/a	n/a	n/a	17	1	9	7	n/a	n/a	n/a	n/a	n/a
2213339	PROB	n/a	LTP094	ltpFR	13	n/a	n/a	n/a	n/a	n/a	n/a	25	7	9	9	n/a	n/a	n/a	n/a	n/a
2216645	PROB	n/a	LTP094	ltpFR	13	n/a	n/a	n/a	n/a	n/a	n/a	16	7	3	6	n/a	n/a	n/a	n/a	n/a
2218143	PROB	n/a	LTP094	ltpFR	13	n/a	n/a	n/a	n/a	n/a	n/a	6	1	1	4	n/a	n/a	n/a	n/a	n/a
2219324	PROB	n/a	LTP094	ltpFR	13	n/a	n/a	n/a	n/a	n/a	n/a	16	3	7	6	n/a	n/a	n/a	n/a	n/a
2220765	PROB	n/a	LTP094	ltpFR	13	n/a	n/a	n/a	n/a	n/a	n/a	11	1	3	7	n/a	n/a	n/a	n/a	n/a
2222484	STOP	n/a	LTP094	ltpFR	13	n/a	n/a	n/a	n/a	n/a	n/a	n/a	n/a	n/a	n/a	n/a	n/a	n/a	n/a	n/a
2223820	WORD	wordpools/wasnorm_wordpool.txt	LTP094	ltpFR	13	9	1	FISH	571	n/a	1	n/a	0	0	0	0	0.5869140625	0.422607421875	lower	../fonts/amplitud.ttf
2226825	START	n/a	LTP094	ltpFR	13	n/a	n/a	n/a	n/a	n/a	n/a	n/a	n/a	n/a	n/a	n/a	n/a	n/a	n/a	n/a
2227799	PROB	n/a	LTP094	ltpFR	13	n/a	n/a	n/a	n/a	n/a	n/a	21	8	4	9	n/a	n/a	n/a	n/a	n/a
2229412	PROB	n/a	LTP094	ltpFR	13	n/a	n/a	n/a	n/a	n/a	n/a	16	5	6	5	n/a	n/a	n/a	n/a	n/a
2231228	PROB	n/a	LTP094	ltpFR	13	n/a	n/a	n/a	n/a	n/a	n/a	12	1	6	5	n/a	n/a	n/a	n/a	n/a
2233209	PROB	n/a	LTP094	ltpFR	13	n/a	n/a	n/a	n/a	n/a	n/a	6	1	3	2	n/a	n/a	n/a	n/a	n/a
2235098	PROB	n/a	LTP094	ltpFR	13	n/a	n/a	n/a	n/a	n/a	n/a	14	4	5	5	n/a	n/a	n/a	n/a	n/a
2236404	PROB	n/a	LTP094	ltpFR	13	n/a	n/a	n/a	n/a	n/a	n/a	18	2	7	9	n/a	n/a	n/a	n/a	n/a
2238162	PROB	n/a	LTP094	ltpFR	13	n/a	n/a	n/a	n/a	n/a	n/a	20	8	4	8	n/a	n/a	n/a	n/a	n/a
2240009	PROB	n/a	LTP094	ltpFR	13	n/a	n/a	n/a	n/a	n/a	n/a	15	5	5	5	n/a	n/a	n/a	n/a	n/a
2241075	PROB	n/a	LTP094	ltpFR	13	n/a	n/a	n/a	n/a	n/a	n/a	16	7	1	8	n/a	n/a	n/a	n/a	n/a
2242484	STOP	n/a	LTP094	ltpFR	13	n/a	n/a	n/a	n/a	n/a	n/a	n/a	n/a	n/a	n/a	n/a	n/a	n/a	n/a	n/a
2243897	WORD	wordpools/wasnorm_wordpool.txt	LTP094	ltpFR	13	9	1	SOFA	1342	n/a	0	n/a	0	0	0	0	0.5869140625	0.422607421875	lower	../fonts/amplitud.ttf
2246902	START	n/a	LTP094	ltpFR	13	n/a	n/a	n/a	n/a	n/a	n/a	n/a	n/a	n/a	n/a	n/a	n/a	n/a	n/a	n/a
2247742	PROB	n/a	LTP094	ltpFR	13	n/a	n/a	n/a	n/a	n/a	n/a	17	6	7	4	n/a	n/a	n/a	n/a	n/a
2249356	PROB	n/a	LTP094	ltpFR	13	n/a	n/a	n/a	n/a	n/a	n/a	18	2	9	7	n/a	n/a	n/a	n/a	n/a
2251896	PROB	n/a	LTP094	ltpFR	13	n/a	n/a	n/a	n/a	n/a	n/a	13	5	2	6	n/a	n/a	n/a	n/a	n/a
2253852	PROB	n/a	LTP094	ltpFR	13	n/a	n/a	n/a	n/a	n/a	n/a	18	9	5	4	n/a	n/a	n/a	n/a	n/a
2255233	PROB	n/a	LTP094	ltpFR	13	n/a	n/a	n/a	n/a	n/a	n/a	17	4	4	9	n/a	n/a	n/a	n/a	n/a
2257689	PROB	n/a	LTP094	ltpFR	13	n/a	n/a	n/a	n/a	n/a	n/a	14	8	3	3	n/a	n/a	n/a	n/a	n/a
2259444	PROB	n/a	LTP094	ltpFR	13	n/a	n/a	n/a	n/a	n/a	n/a	25	8	8	9	n/a	n/a	n/a	n/a	n/a
2262205	STOP	n/a	LTP094	ltpFR	13	n/a	n/a	n/a	n/a	n/a	n/a	n/a	n/a	n/a	n/a	n/a	n/a	n/a	n/a	n/a
2264814	REC_START	n/a	LTP094	ltpFR	13	9	n/a	n/a	n/a	n/a	n/a	n/a	0	0	0	n/a	n/a	n/a	n/a	n/a
2266111	REC_WORD	wordpools/wasnorm_wordpool.txt	LTP094	ltpFR	13	9	1	FISH	571	n/a	1	n/a	0	0	0	n/a	n/a	n/a	n/a	n/a
2266814	REC_WORD	wordpools/wasnorm_wordpool.txt	LTP094	ltpFR	13	9	1	TUNA	1518	n/a	1	n/a	0	0	0	n/a	n/a	n/a	n/a	n/a
2268540	REC_WORD	wordpools/wasnorm_wordpool.txt	LTP094	ltpFR	13	9	1	WHALE	1601	n/a	1	n/a	0	0	0	n/a	n/a	n/a	n/a	n/a
2270286	REC_WORD	wordpools/wasnorm_wordpool.txt	LTP094	ltpFR	13	9	1	SOFA	1342	n/a	0	n/a	0	0	0	n/a	n/a	n/a	n/a	n/a
2283546	REC_WORD	wordpools/wasnorm_wordpool.txt	LTP094	ltpFR	13	9	1	GROCERY	664	n/a	0	n/a	0	0	0	n/a	n/a	n/a	n/a	n/a
2343073	WORD	wordpools/wasnorm_wordpool.txt	LTP094	ltpFR	13	10	1	RIB	1188	n/a	1	n/a	0	0	0	0	0.5869140625	0.422607421875	lower	../fonts/amplitud.ttf
2346902	WORD	wordpools/wasnorm_wordpool.txt	LTP094	ltpFR	13	10	1	ROUGE	1213	n/a	0	n/a	0	0	0	0	0.5869140625	0.422607421875	lower	../fonts/amplitud.ttf
2351014	WORD	wordpools/wasnorm_wordpool.txt	LTP094	ltpFR	13	10	1	PEARL	1034	n/a	0	n/a	0	0	0	0	0.5869140625	0.422607421875	lower	../fonts/amplitud.ttf
2354826	WORD	wordpools/wasnorm_wordpool.txt	LTP094	ltpFR	13	10	1	BRACELET	163	n/a	0	n/a	0	0	0	0	0.5869140625	0.422607421875	lower	../fonts/amplitud.ttf
2358988	WORD	wordpools/wasnorm_wordpool.txt	LTP094	ltpFR	13	10	1	ARTIST	43	n/a	1	n/a	0	0	0	0	0.5869140625	0.422607421875	lower	../fonts/amplitud.ttf
2362858	WORD	wordpools/wasnorm_wordpool.txt	LTP094	ltpFR	13	10	1	CAVE	263	n/a	0	n/a	0	0	0	0	0.5869140625	0.422607421875	lower	../fonts/amplitud.ttf
2366820	WORD	wordpools/wasnorm_wordpool.txt	LTP094	ltpFR	13	10	1	DIGGER	464	n/a	1	n/a	0	0	0	0	0.5869140625	0.422607421875	lower	../fonts/amplitud.ttf
2371015	WORD	wordpools/wasnorm_wordpool.txt	LTP094	ltpFR	13	10	1	NEST	945	n/a	0	n/a	0	0	0	0	0.5869140625	0.422607421875	lower	../fonts/amplitud.ttf
2374878	WORD	wordpools/wasnorm_wordpool.txt	LTP094	ltpFR	13	10	1	SHED	1277	n/a	0	n/a	0	0	0	0	0.5869140625	0.422607421875	lower	../fonts/amplitud.ttf
2378840	WORD	wordpools/wasnorm_wordpool.txt	LTP094	ltpFR	13	10	1	ZUCCHINI	1638	n/a	1	n/a	0	0	0	0	0.5869140625	0.422607421875	lower	../fonts/amplitud.ttf
2383035	WORD	wordpools/wasnorm_wordpool.txt	LTP094	ltpFR	13	10	1	ROOF	1205	n/a	0	n/a	0	0	0	0	0.5869140625	0.422607421875	lower	../fonts/amplitud.ttf
2387197	WORD	wordpools/wasnorm_wordpool.txt	LTP094	ltpFR	13	10	1	SCULPTURE	1258	n/a	0	n/a	0	0	0	0	0.5869140625	0.422607421875	lower	../fonts/amplitud.ttf
2391349	WORD	wordpools/wasnorm_wordpool.txt	LTP094	ltpFR	13	10	1	ARCHITECT	36	n/a	1	n/a	0	0	0	0	0.5869140625	0.422607421875	lower	../fonts/amplitud.ttf
2395212	WORD	wordpools/wasnorm_wordpool.txt	LTP094	ltpFR	13	10	1	PRAIRIE	1118	n/a	0	n/a	0	0	0	0	0.5869140625	0.422607421875	lower	../fonts/amplitud.ttf
2399066	WORD	wordpools/wasnorm_wordpool.txt	LTP094	ltpFR	13	10	1	SEAL	1262	n/a	1	n/a	0	0	0	0	0.5869140625	0.422607421875	lower	../fonts/amplitud.ttf
2402887	WORD	wordpools/wasnorm_wordpool.txt	LTP094	ltpFR	13	10	1	GAZELLE	628	n/a	1	n/a	0	0	0	0	0.5869140625	0.422607421875	lower	../fonts/amplitud.ttf
2408605	REC_START	n/a	LTP094	ltpFR	13	10	n/a	n/a	n/a	n/a	n/a	n/a	0	0	0	n/a	n/a	n/a	n/a	n/a
2409787	REC_WORD	wordpools/wasnorm_wordpool.txt	LTP094	ltpFR	13	10	1	GAZELLE	628	n/a	1	n/a	0	0	0	n/a	n/a	n/a	n/a	n/a
2410740	REC_WORD	wordpools/wasnorm_wordpool.txt	LTP094	ltpFR	13	10	1	SEAL	1262	n/a	1	n/a	0	0	0	n/a	n/a	n/a	n/a	n/a
2412132	REC_WORD	wordpools/wasnorm_wordpool.txt	LTP094	ltpFR	13	10	1	PRAIRIE	1118	n/a	0	n/a	0	0	0	n/a	n/a	n/a	n/a	n/a
2437494	REC_WORD	wordpools/wasnorm_wordpool.txt	LTP094	ltpFR	13	10	1	ARTIST	43	n/a	1	n/a	0	0	0	n/a	n/a	n/a	n/a	n/a
2438392	REC_WORD	wordpools/wasnorm_wordpool.txt	LTP094	ltpFR	13	10	1	ARCHITECT	36	n/a	1	n/a	0	0	0	n/a	n/a	n/a	n/a	n/a
2439420	REC_WORD	wordpools/wasnorm_wordpool.txt	LTP094	ltpFR	13	10	1	SCULPTURE	1258	n/a	0	n/a	0	0	0	n/a	n/a	n/a	n/a	n/a
2443042	REC_WORD	wordpools/wasnorm_wordpool.txt	LTP094	ltpFR	13	10	1	BRACELET	163	n/a	0	n/a	0	0	0	n/a	n/a	n/a	n/a	n/a
2443860	REC_WORD	wordpools/wasnorm_wordpool.txt	LTP094	ltpFR	13	10	1	PEARL	1034	n/a	0	n/a	0	0	0	n/a	n/a	n/a	n/a	n/a
2484176	REST_REWET	n/a	LTP094	ltpFR	13	10	n/a	n/a	n/a	n/a	n/a	n/a	0	0	0	n/a	n/a	n/a	n/a	n/a
2943366	WORD	wordpools/wasnorm_wordpool.txt	LTP094	ltpFR	13	11	0	EDITOR	516	n/a	0	n/a	0	0	0	1	0.412841796875	0.57763671875	upper	../fonts/zerothre.ttf
2947245	WORD	wordpools/wasnorm_wordpool.txt	LTP094	ltpFR	13	11	0	NEWSSTAND	949	n/a	1	n/a	0	0	0	1	0.412841796875	0.57763671875	upper	../fonts/zerothre.ttf
2951166	WORD	wordpools/wasnorm_wordpool.txt	LTP094	ltpFR	13	11	0	STOMACH	1384	n/a	0	n/a	0	0	0	1	0.412841796875	0.57763671875	upper	../fonts/zerothre.ttf
2955003	WORD	wordpools/wasnorm_wordpool.txt	LTP094	ltpFR	13	11	0	MILITARY	894	n/a	1	n/a	0	0	0	1	0.412841796875	0.57763671875	upper	../fonts/zerothre.ttf
2958915	WORD	wordpools/wasnorm_wordpool.txt	LTP094	ltpFR	13	11	0	POPCORN	1104	n/a	0	n/a	0	0	0	1	0.412841796875	0.57763671875	upper	../fonts/zerothre.ttf
2962736	WORD	wordpools/wasnorm_wordpool.txt	LTP094	ltpFR	13	11	0	TAPE	1433	n/a	0	n/a	0	0	0	1	0.412841796875	0.57763671875	upper	../fonts/zerothre.ttf
2966873	WORD	wordpools/wasnorm_wordpool.txt	LTP094	ltpFR	13	11	0	CLAM	315	n/a	0	n/a	0	0	0	1	0.412841796875	0.57763671875	upper	../fonts/zerothre.ttf
2970735	WORD	wordpools/wasnorm_wordpool.txt	LTP094	ltpFR	13	11	0	CART	250	n/a	0	n/a	0	0	0	1	0.412841796875	0.57763671875	upper	../fonts/zerothre.ttf
2974613	WORD	wordpools/wasnorm_wordpool.txt	LTP094	ltpFR	13	11	0	GAUZE	626	n/a	0	n/a	0	0	0	1	0.412841796875	0.57763671875	upper	../fonts/zerothre.ttf
2978751	WORD	wordpools/wasnorm_wordpool.txt	LTP094	ltpFR	13	11	0	TYPIST	1532	n/a	0	n/a	0	0	0	1	0.412841796875	0.57763671875	upper	../fonts/zerothre.ttf
2982763	WORD	wordpools/wasnorm_wordpool.txt	LTP094	ltpFR	13	11	0	EMPLOYEE	531	n/a	0	n/a	0	0	0	1	0.412841796875	0.57763671875	upper	../fonts/zerothre.ttf
2986750	WORD	wordpools/wasnorm_wordpool.txt	LTP094	ltpFR	13	11	0	MUSHROOM	934	n/a	0	n/a	0	0	0	1	0.412841796875	0.57763671875	upper	../fonts/zerothre.ttf
2990670	WORD	wordpools/wasnorm_wordpool.txt	LTP094	ltpFR	13	11	0	PLATE	1086	n/a	0	n/a	0	0	0	1	0.412841796875	0.57763671875	upper	../fonts/zerothre.ttf
2994782	WORD	wordpools/wasnorm_wordpool.txt	LTP094	ltpFR	13	11	0	VIDEO	1564	n/a	0	n/a	0	0	0	1	0.412841796875	0.57763671875	upper	../fonts/zerothre.ttf
2998694	WORD	wordpools/wasnorm_wordpool.txt	LTP094	ltpFR	13	11	0	CRAB	397	n/a	0	n/a	0	0	0	1	0.412841796875	0.57763671875	upper	../fonts/zerothre.ttf
3002773	WORD	wordpools/wasnorm_wordpool.txt	LTP094	ltpFR	13	11	0	BASSINET	97	n/a	0	n/a	0	0	0	1	0.412841796875	0.57763671875	upper	../fonts/zerothre.ttf
3005778	START	n/a	LTP094	ltpFR	13	n/a	n/a	n/a	n/a	n/a	n/a	n/a	n/a	n/a	n/a	n/a	n/a	n/a	n/a	n/a
3006985	PROB	n/a	LTP094	ltpFR	13	n/a	n/a	n/a	n/a	n/a	n/a	12	6	1	5	n/a	n/a	n/a	n/a	n/a
3009581	PROB	n/a	LTP094	ltpFR	13	n/a	n/a	n/a	n/a	n/a	n/a	9	1	1	7	n/a	n/a	n/a	n/a	n/a
3011663	PROB	n/a	LTP094	ltpFR	13	n/a	n/a	n/a	n/a	n/a	n/a	17	7	7	3	n/a	n/a	n/a	n/a	n/a
3013229	STOP	n/a	LTP094	ltpFR	13	n/a	n/a	n/a	n/a	n/a	n/a	n/a	n/a	n/a	n/a	n/a	n/a	n/a	n/a	n/a
3015566	REC_START	n/a	LTP094	ltpFR	13	11	n/a	n/a	n/a	n/a	n/a	n/a	0	0	0	n/a	n/a	n/a	n/a	n/a
3016419	REC_WORD	wordpools/wasnorm_wordpool.txt	LTP094	ltpFR	13	11	0	BASSINET	97	n/a	0	n/a	0	0	0	n/a	n/a	n/a	n/a	n/a
3017681	REC_WORD	wordpools/wasnorm_wordpool.txt	LTP094	ltpFR	13	11	0	CRAB	397	n/a	0	n/a	0	0	0	n/a	n/a	n/a	n/a	n/a
3018943	REC_WORD	wordpools/wasnorm_wordpool.txt	LTP094	ltpFR	13	11	0	GAUZE	626	n/a	0	n/a	0	0	0	n/a	n/a	n/a	n/a	n/a
3021262	REC_WORD	wordpools/wasnorm_wordpool.txt	LTP094	ltpFR	13	11	0	EMPLOYEE	531	n/a	0	n/a	0	0	0	n/a	n/a	n/a	n/a	n/a
3022286	REC_WORD	wordpools/wasnorm_wordpool.txt	LTP094	ltpFR	13	11	0	EDITOR	516	n/a	0	n/a	0	0	0	n/a	n/a	n/a	n/a	n/a
3023383	REC_WORD	wordpools/wasnorm_wordpool.txt	LTP094	ltpFR	13	11	0	TYPIST	1532	n/a	0	n/a	0	0	0	n/a	n/a	n/a	n/a	n/a
3024849	REC_WORD	wordpools/wasnorm_wordpool.txt	LTP094	ltpFR	13	11	0	STOMACH	1384	n/a	0	n/a	0	0	0	n/a	n/a	n/a	n/a	n/a
3042011	REC_WORD	wordpools/wasnorm_wordpool.txt	LTP094	ltpFR	13	11	0	MUSHROOM	934	n/a	0	n/a	0	0	0	n/a	n/a	n/a	n/a	n/a
3043063	REC_WORD	wordpools/wasnorm_wordpool.txt	LTP094	ltpFR	13	11	0	PLATE	1086	n/a	0	n/a	0	0	0	n/a	n/a	n/a	n/a	n/a
3076077	REC_WORD	wordpools/wasnorm_wordpool.txt	LTP094	ltpFR	13	11	0	NEWSSTAND	949	n/a	1	n/a	0	0	0	n/a	n/a	n/a	n/a	n/a
3086918	REC_WORD	wordpools/wasnorm_wordpool.txt	LTP094	ltpFR	13	11	0	CLAM	315	n/a	0	n/a	0	0	0	n/a	n/a	n/a	n/a	n/a
3093742	WORD	wordpools/wasnorm_wordpool.txt	LTP094	ltpFR	13	12	0	IDOL	733	n/a	1	n/a	0	0	0	1	0.412841796875	0.57763671875	upper	../fonts/zerothre.ttf
3097937	WORD	wordpools/wasnorm_wordpool.txt	LTP094	ltpFR	13	12	0	SHRINE	1298	n/a	1	n/a	0	0	0	1	0.412841796875	0.57763671875	upper	../fonts/zerothre.ttf
3101841	WORD	wordpools/wasnorm_wordpool.txt	LTP094	ltpFR	13	12	0	COOKBOOK	373	n/a	1	n/a	0	0	0	1	0.412841796875	0.57763671875	upper	../fonts/zerothre.ttf
3105662	WORD	wordpools/wasnorm_wordpool.txt	LTP094	ltpFR	13	12	0	LOBSTER	837	n/a	0	n/a	0	0	0	1	0.412841796875	0.57763671875	upper	../fonts/zerothre.ttf
3109848	WORD	wordpools/wasnorm_wordpool.txt	LTP094	ltpFR	13	12	1	OATMEAL	967	n/a	0	n/a	0	0	0	0	0.5869140625	0.422607421875	lower	../fonts/amplitud.ttf
3114035	WORD	wordpools/wasnorm_wordpool.txt	LTP094	ltpFR	13	12	1	POLITICIAN	1099	n/a	1	n/a	0	0	0	0	0.5869140625	0.422607421875	lower	../fonts/amplitud.ttf
3118180	WORD	wordpools/wasnorm_wordpool.txt	LTP094	ltpFR	13	12	0	BEAN	105	n/a	0	n/a	0	0	0	1	0.412841796875	0.57763671875	upper	../fonts/zerothre.ttf
3122391	WORD	wordpools/wasnorm_wordpool.txt	LTP094	ltpFR	13	12	0	WHEAT	1602	n/a	0	n/a	0	0	0	1	0.412841796875	0.57763671875	upper	../fonts/zerothre.ttf
3126461	WORD	wordpools/wasnorm_wordpool.txt	LTP094	ltpFR	13	12	1	POET	1095	n/a	1	n/a	0	0	0	0	0.5869140625	0.422607421875	lower	../fonts/amplitud.ttf
3130465	WORD	wordpools/wasnorm_wordpool.txt	LTP094	ltpFR	13	12	1	THUMB	1462	n/a	1	n/a	0	0	0	0	0.5869140625	0.422607421875	lower	../fonts/amplitud.ttf
3134327	WORD	wordpools/wasnorm_wordpool.txt	LTP094	ltpFR	13	12	1	FINGERNAIL	568	n/a	1	n/a	0	0	0	0	0.5869140625	0.422607421875	lower	../fonts/amplitud.ttf
3138273	WORD	wordpools/wasnorm_wordpool.txt	LTP094	ltpFR	13	12	1	ROOST	1208	n/a	0	n/a	0	0	0	0	0.5869140625	0.422607421875	lower	../fonts/amplitud.ttf
3142310	WORD	wordpools/wasnorm_wordpool.txt	LTP094	ltpFR	13	12	1	LOUNGE	845	n/a	0	n/a	0	0	0	0	0.5869140625	0.422607421875	lower	../fonts/amplitud.ttf
3146322	WORD	wordpools/wasnorm_wordpool.txt	LTP094	ltpFR	13	12	1	PRESIDENT	1121	n/a	1	n/a	0	0	0	0	0.5869140625	0.422607421875	lower	../fonts/amplitud.ttf
3150475	WORD	wordpools/wasnorm_wordpool.txt	LTP094	ltpFR	13	12	0	CAPITAL	238	n/a	1	n/a	0	0	0	1	0.412841796875	0.57763671875	upper	../fonts/zerothre.ttf
3154437	WORD	wordpools/wasnorm_wordpool.txt	LTP094	ltpFR	13	12	0	MECHANIC	884	n/a	0	n/a	0	0	0	1	0.412841796875	0.57763671875	upper	../fonts/zerothre.ttf
3157442	START	n/a	LTP094	ltpFR	13	n/a	n/a	n/a	n/a	n/a	n/a	n/a	n/a	n/a	n/a	n/a	n/a	n/a	n/a	n/a
3158507	PROB	n/a	LTP094	ltpFR	13	n/a	n/a	n/a	n/a	n/a	n/a	16	7	8	1	n/a	n/a	n/a	n/a	n/a
3161830	PROB	n/a	LTP094	ltpFR	13	n/a	n/a	n/a	n/a	n/a	n/a	18	5	5	8	n/a	n/a	n/a	n/a	n/a
3163385	PROB	n/a	LTP094	ltpFR	13	n/a	n/a	n/a	n/a	n/a	n/a	12	1	3	8	n/a	n/a	n/a	n/a	n/a
3164567	PROB	n/a	LTP094	ltpFR	13	n/a	n/a	n/a	n/a	n/a	n/a	15	6	2	7	n/a	n/a	n/a	n/a	n/a
3166682	PROB	n/a	LTP094	ltpFR	13	n/a	n/a	n/a	n/a	n/a	n/a	16	9	5	2	n/a	n/a	n/a	n/a	n/a
3168006	PROB	n/a	LTP094	ltpFR	13	n/a	n/a	n/a	n/a	n/a	n/a	13	3	7	3	n/a	n/a	n/a	n/a	n/a
3169378	PROB	n/a	LTP094	ltpFR	13	n/a	n/a	n/a	n/a	n/a	n/a	13	4	2	7	n/a	n/a	n/a	n/a	n/a
3171301	PROB	n/a	LTP094	ltpFR	13	n/a	n/a	n/a	n/a	n/a	n/a	17	5	3	9	n/a	n/a	n/a	n/a	n/a
3172893	STOP	n/a	LTP094	ltpFR	13	n/a	n/a	n/a	n/a	n/a	n/a	n/a	n/a	n/a	n/a	n/a	n/a	n/a	n/a	n/a
3175364	REC_START	n/a	LTP094	ltpFR	13	12	n/a	n/a	n/a	n/a	n/a	n/a	0	0	0	n/a	n/a	n/a	n/a	n/a
3176287	REC_WORD	wordpools/wasnorm_wordpool.txt	LTP094	ltpFR	13	12	1	ROOST	1208	n/a	0	n/a	0	0	0	n/a	n/a	n/a	n/a	n/a
3177060	REC_WORD	wordpools/wasnorm_wordpool.txt	LTP094	ltpFR	13	12	1	FINGERNAIL	568	n/a	1	n/a	0	0	0	n/a	n/a	n/a	n/a	n/a
3178227	REC_WORD	wordpools/wasnorm_wordpool.txt	LTP094	ltpFR	13	12	1	THUMB	1462	n/a	1	n/a	0	0	0	n/a	n/a	n/a	n/a	n/a
3179215	REC_WORD	wordpools/wasnorm_wordpool.txt	LTP094	ltpFR	13	12	0	COOKBOOK	373	n/a	1	n/a	0	0	0	n/a	n/a	n/a	n/a	n/a
3180542	REC_WORD	wordpools/wasnorm_wordpool.txt	LTP094	ltpFR	13	12	0	LOBSTER	837	n/a	0	n/a	0	0	0	n/a	n/a	n/a	n/a	n/a
3181570	REC_WORD	wordpools/wasnorm_wordpool.txt	LTP094	ltpFR	13	12	1	POLITICIAN	1099	n/a	1	n/a	0	0	0	n/a	n/a	n/a	n/a	n/a
3183261	REC_WORD	wordpools/wasnorm_wordpool.txt	LTP094	ltpFR	13	12	0	CAPITAL	238	n/a	1	n/a	0	0	0	n/a	n/a	n/a	n/a	n/a
3184548	REC_WORD	wordpools/wasnorm_wordpool.txt	LTP094	ltpFR	13	12	1	PRESIDENT	1121	n/a	1	n/a	0	0	0	n/a	n/a	n/a	n/a	n/a
3191801	REC_WORD	wordpools/wasnorm_wordpool.txt	LTP094	ltpFR	13	12	0	SHRINE	1298	n/a	1	n/a	0	0	0	n/a	n/a	n/a	n/a	n/a
3201045	REC_WORD	wordpools/wasnorm_wordpool.txt	LTP094	ltpFR	13	12	1	POET	1095	n/a	1	n/a	0	0	0	n/a	n/a	n/a	n/a	n/a
3211332	REC_WORD	wordpools/wasnorm_wordpool.txt	LTP094	ltpFR	13	12	0	MECHANIC	884	n/a	0	n/a	0	0	0	n/a	n/a	n/a	n/a	n/a
3266975	REC_START	n/a	LTP094	ltpFR	13	1	n/a	n/a	n/a	n/a	n/a	n/a	0	0	0	n/a	n/a	n/a	n/a	n/a
3267007	RECOG_LURE	n/a	LTP094	ltpFR	13	1	n/a	FEMALE	559	3	n/a	n/a	0	0	0	n/a	n/a	n/a	n/a	n/a
3269554	RECOG_RESP	n/a	LTP094	ltpFR	13	1	n/a	FEMALE	559	n/a	n/a	n/a	0	0	0	n/a	n/a	n/a	n/a	n/a
3270781	RECOG_CONF	n/a	LTP094	ltpFR	13	1	n/a	FEMALE	559	3	n/a	n/a	0	0	0	n/a	n/a	n/a	n/a	n/a
3272367	RECOG_LURE	n/a	LTP094	ltpFR	13	1	n/a	DISHWASHER	475	4	n/a	n/a	0	0	0	n/a	n/a	n/a	n/a	n/a
3273635	RECOG_RESP	n/a	LTP094	ltpFR	13	1	n/a	DISHWASHER	475	n/a	n/a	n/a	0	0	0	n/a	n/a	n/a	n/a	n/a
3274373	RECOG_CONF	n/a	LTP094	ltpFR	13	1	n/a	DISHWASHER	475	4	n/a	n/a	0	0	0	n/a	n/a	n/a	n/a	n/a
3275722	RECOG_TARGET	n/a	LTP094	ltpFR	13	1	0	EDITOR	516	4	0	n/a	0	0	0	n/a	n/a	n/a	n/a	n/a
3276378	RECOG_RESP	n/a	LTP094	ltpFR	13	1	0	EDITOR	516	n/a	0	n/a	0	0	0	n/a	n/a	n/a	n/a	n/a
3277067	RECOG_CONF	n/a	LTP094	ltpFR	13	1	0	EDITOR	516	4	0	n/a	0	0	0	n/a	n/a	n/a	n/a	n/a
3278410	RECOG_LURE	n/a	LTP094	ltpFR	13	1	n/a	BANQUET	86	3	n/a	n/a	0	0	0	n/a	n/a	n/a	n/a	n/a
3279292	RECOG_RESP	n/a	LTP094	ltpFR	13	1	n/a	BANQUET	86	n/a	n/a	n/a	0	0	0	n/a	n/a	n/a	n/a	n/a
3279880	RECOG_CONF	n/a	LTP094	ltpFR	13	1	n/a	BANQUET	86	3	n/a	n/a	0	0	0	n/a	n/a	n/a	n/a	n/a
3281281	RECOG_TARGET	n/a	LTP094	ltpFR	13	1	1	TERMINAL	1450	4	0	n/a	0	0	0	n/a	n/a	n/a	n/a	n/a
3282240	RECOG_RESP	n/a	LTP094	ltpFR	13	1	1	TERMINAL	1450	n/a	0	n/a	0	0	0	n/a	n/a	n/a	n/a	n/a
3282804	RECOG_CONF	n/a	LTP094	ltpFR	13	1	1	TERMINAL	1450	4	0	n/a	0	0	0	n/a	n/a	n/a	n/a	n/a
3284162	RECOG_TARGET	n/a	LTP094	ltpFR	13	1	1	ZEBRA	1635	4	1	n/a	0	0	0	n/a	n/a	n/a	n/a	n/a
3284729	RECOG_RESP	n/a	LTP094	ltpFR	13	1	1	ZEBRA	1635	n/a	1	n/a	0	0	0	n/a	n/a	n/a	n/a	n/a
3285398	RECOG_CONF	n/a	LTP094	ltpFR	13	1	1	ZEBRA	1635	4	1	n/a	0	0	0	n/a	n/a	n/a	n/a	n/a
3286660	RECOG_TARGET	n/a	LTP094	ltpFR	13	1	1	BRIDGE	174	4	0	n/a	0	0	0	n/a	n/a	n/a	n/a	n/a
3287348	RECOG_RESP	n/a	LTP094	ltpFR	13	1	1	BRIDGE	174	n/a	0	n/a	0	0	0	n/a	n/a	n/a	n/a	n/a
3288002	RECOG_CONF	n/a	LTP094	ltpFR	13	1	1	BRIDGE	174	4	0	n/a	0	0	0	n/a	n/a	n/a	n/a	n/a
3289305	RECOG_LURE	n/a	LTP094	ltpFR	13	1	n/a	CANDY	230	3	n/a	n/a	0	0	0	n/a	n/a	n/a	n/a	n/a
3289923	RECOG_RESP	n/a	LTP094	ltpFR	13	1	n/a	CANDY	230	n/a	n/a	n/a	0	0	0	n/a	n/a	n/a	n/a	n/a
3290506	RECOG_CONF	n/a	LTP094	ltpFR	13	1	n/a	CANDY	230	3	n/a	n/a	0	0	0	n/a	n/a	n/a	n/a	n/a
3291928	RECOG_TARGET	n/a	LTP094	ltpFR	13	1	1	PRAIRIE	1118	4	0	n/a	0	0	0	n/a	n/a	n/a	n/a	n/a
