onset	duration	trial_type	sample	stim_file	subject	experiment	session	trial	item_name	item_num	list	answer	test_x	test_y	test_z
209.646	n/a	SESS_START	104823	n/a	LTP293	ltpFR2	12	n/a	n/a	n/a	n/a	n/a	0	0	0
225.094	n/a	START	112547	n/a	LTP293	ltpFR2	12	n/a	n/a	n/a	-1	n/a	n/a	n/a	n/a
225.108	n/a	PROB	112554	n/a	LTP293	ltpFR2	12	n/a	n/a	n/a	-1	20	7	6	7
227.396	n/a	PROB	113698	n/a	LTP293	ltpFR2	12	n/a	n/a	n/a	-1	14	3	3	8
229.03	n/a	PROB	114515	n/a	LTP293	ltpFR2	12	n/a	n/a	n/a	-1	18	3	8	7
230.596	n/a	PROB	115298	n/a	LTP293	ltpFR2	12	n/a	n/a	n/a	-1	20	8	4	8
231.982	n/a	PROB	115991	n/a	LTP293	ltpFR2	12	n/a	n/a	n/a	-1	21	5	7	9
233.282	n/a	PROB	116641	n/a	LTP293	ltpFR2	12	n/a	n/a	n/a	-1	24	9	7	8
234.85	n/a	PROB	117425	n/a	LTP293	ltpFR2	12	n/a	n/a	n/a	-1	11	3	1	7
236.178	n/a	STOP	118089	n/a	LTP293	ltpFR2	12	n/a	n/a	n/a	-1	n/a	n/a	n/a	n/a
268.21	n/a	WORD	134105	wordpools/wasnorm_wordpool_576.txt	LTP293	ltpFR2	12	1	TABLET	1427	n/a	n/a	0	0	0
270.68	n/a	WORD	135340	wordpools/wasnorm_wordpool_576.txt	LTP293	ltpFR2	12	1	RIFLE	1192	n/a	n/a	0	0	0
273.5	n/a	WORD	136750	wordpools/wasnorm_wordpool_576.txt	LTP293	ltpFR2	12	1	SPHINX	1349	n/a	n/a	0	0	0
276.152	n/a	WORD	138076	wordpools/wasnorm_wordpool_576.txt	LTP293	ltpFR2	12	1	AIRPLANE	12	n/a	n/a	0	0	0
278.67	n/a	WORD	139335	wordpools/wasnorm_wordpool_576.txt	LTP293	ltpFR2	12	1	FRUIT	610	n/a	n/a	0	0	0
281.188	n/a	WORD	140594	wordpools/wasnorm_wordpool_576.txt	LTP293	ltpFR2	12	1	DENTIST	447	n/a	n/a	0	0	0
283.708	n/a	WORD	141854	wordpools/wasnorm_wordpool_576.txt	LTP293	ltpFR2	12	1	BRACES	164	n/a	n/a	0	0	0
286.46	n/a	WORD	143230	wordpools/wasnorm_wordpool_576.txt	LTP293	ltpFR2	12	1	FIREPLACE	570	n/a	n/a	0	0	0
288.894	n/a	WORD	144447	wordpools/wasnorm_wordpool_576.txt	LTP293	ltpFR2	12	1	STAKE	1368	n/a	n/a	0	0	0
291.364	n/a	WORD	145682	wordpools/wasnorm_wordpool_576.txt	LTP293	ltpFR2	12	1	KNIFE	785	n/a	n/a	0	0	0
294.014	n/a	WORD	147007	wordpools/wasnorm_wordpool_576.txt	LTP293	ltpFR2	12	1	DUST	508	n/a	n/a	0	0	0
296.688	n/a	WORD	148344	wordpools/wasnorm_wordpool_576.txt	LTP293	ltpFR2	12	1	GRILL	661	n/a	n/a	0	0	0
299.402	n/a	WORD	149701	wordpools/wasnorm_wordpool_576.txt	LTP293	ltpFR2	12	1	LEADER	807	n/a	n/a	0	0	0
301.82	n/a	WORD	150910	wordpools/wasnorm_wordpool_576.txt	LTP293	ltpFR2	12	1	QUEEN	1149	n/a	n/a	0	0	0
304.374	n/a	WORD	152187	wordpools/wasnorm_wordpool_576.txt	LTP293	ltpFR2	12	1	TRUCK	1512	n/a	n/a	0	0	0
306.942	n/a	WORD	153471	wordpools/wasnorm_wordpool_576.txt	LTP293	ltpFR2	12	1	COMPASS	358	n/a	n/a	0	0	0
309.498	n/a	WORD	154749	wordpools/wasnorm_wordpool_576.txt	LTP293	ltpFR2	12	1	SODA	1341	n/a	n/a	0	0	0
311.946	n/a	WORD	155973	wordpools/wasnorm_wordpool_576.txt	LTP293	ltpFR2	12	1	GLOVE	642	n/a	n/a	0	0	0
314.468	n/a	WORD	157234	wordpools/wasnorm_wordpool_576.txt	LTP293	ltpFR2	12	1	FOOT	590	n/a	n/a	0	0	0
317.2	n/a	WORD	158600	wordpools/wasnorm_wordpool_576.txt	LTP293	ltpFR2	12	1	GARBAGE	622	n/a	n/a	0	0	0
319.702	n/a	WORD	159851	wordpools/wasnorm_wordpool_576.txt	LTP293	ltpFR2	12	1	WINDOW	1611	n/a	n/a	0	0	0
322.46	n/a	WORD	161230	wordpools/wasnorm_wordpool_576.txt	LTP293	ltpFR2	12	1	PRINCESS	1125	n/a	n/a	0	0	0
324.89	n/a	WORD	162445	wordpools/wasnorm_wordpool_576.txt	LTP293	ltpFR2	12	1	VIRUS	1572	n/a	n/a	0	0	0
327.43	n/a	WORD	163715	wordpools/wasnorm_wordpool_576.txt	LTP293	ltpFR2	12	1	BLADE	134	n/a	n/a	0	0	0
329.042	n/a	START	164521	n/a	LTP293	ltpFR2	12	n/a	n/a	n/a	1	n/a	n/a	n/a	n/a
329.848	n/a	DISTRACTOR	164924	n/a	LTP293	ltpFR2	12	1	n/a	n/a	n/a	n/a	0	0	0
329.86	n/a	PROB	164930	n/a	LTP293	ltpFR2	12	n/a	n/a	n/a	1	14	6	4	4
331.192	n/a	PROB	165596	n/a	LTP293	ltpFR2	12	n/a	n/a	n/a	1	15	4	6	5
332.194	n/a	PROB	166097	n/a	LTP293	ltpFR2	12	n/a	n/a	n/a	1	25	9	7	9
333.728	n/a	PROB	166864	n/a	LTP293	ltpFR2	12	n/a	n/a	n/a	1	12	5	1	6
334.896	n/a	PROB	167448	n/a	LTP293	ltpFR2	12	n/a	n/a	n/a	1	14	9	3	2
336.014	n/a	PROB	168007	n/a	LTP293	ltpFR2	12	n/a	n/a	n/a	1	18	5	6	7
337.668	n/a	PROB	168834	n/a	LTP293	ltpFR2	12	n/a	n/a	n/a	1	13	6	6	1
338.65	n/a	PROB	169325	n/a	LTP293	ltpFR2	12	n/a	n/a	n/a	1	14	9	2	3
339.718	n/a	PROB	169859	n/a	LTP293	ltpFR2	12	n/a	n/a	n/a	1	9	5	3	1
341.118	n/a	PROB	170559	n/a	LTP293	ltpFR2	12	n/a	n/a	n/a	1	14	4	3	7
342.12	n/a	PROB	171060	n/a	LTP293	ltpFR2	12	n/a	n/a	n/a	1	21	6	9	6
343.254	n/a	PROB	171627	n/a	LTP293	ltpFR2	12	n/a	n/a	n/a	1	22	9	7	6
345.688	n/a	PROB	172844	n/a	LTP293	ltpFR2	12	n/a	n/a	n/a	1	16	3	9	4
346.89	n/a	PROB	173445	n/a	LTP293	ltpFR2	12	n/a	n/a	n/a	1	24	9	7	8
348.292	n/a	PROB	174146	n/a	LTP293	ltpFR2	12	n/a	n/a	n/a	1	17	2	8	7
349.474	n/a	PROB	174737	n/a	LTP293	ltpFR2	12	n/a	n/a	n/a	1	19	9	2	8
351.06	n/a	PROB	175530	n/a	LTP293	ltpFR2	12	n/a	n/a	n/a	1	11	3	7	1
352.022	n/a	STOP	176011	n/a	LTP293	ltpFR2	12	n/a	n/a	n/a	1	n/a	n/a	n/a	n/a
354.93	n/a	REC_START	177465	n/a	LTP293	ltpFR2	12	1	n/a	n/a	n/a	n/a	0	0	0
355.698	n/a	REC_WORD	177849	wordpools/wasnorm_wordpool_576.txt	LTP293	ltpFR2	12	1	TABLET	1427	n/a	n/a	0	0	0
356.776	n/a	REC_WORD	178388	wordpools/wasnorm_wordpool_576.txt	LTP293	ltpFR2	12	1	STAKE	1368	n/a	n/a	0	0	0
358.57	n/a	REC_WORD	179285	wordpools/wasnorm_wordpool_576.txt	LTP293	ltpFR2	12	1	DENTIST	447	n/a	n/a	0	0	0
359.806	n/a	REC_WORD	179903	wordpools/wasnorm_wordpool_576.txt	LTP293	ltpFR2	12	1	VIRUS	1572	n/a	n/a	0	0	0
361.038	n/a	REC_WORD	180519	wordpools/wasnorm_wordpool_576.txt	LTP293	ltpFR2	12	1	LEADER	807	n/a	n/a	0	0	0
362.088	n/a	REC_WORD	181044	wordpools/wasnorm_wordpool_576.txt	LTP293	ltpFR2	12	1	QUEEN	1149	n/a	n/a	0	0	0
363.116	n/a	REC_WORD	181558	wordpools/wasnorm_wordpool_576.txt	LTP293	ltpFR2	12	1	PRINCESS	1125	n/a	n/a	0	0	0
365.86	n/a	REC_WORD	182930	wordpools/wasnorm_wordpool_576.txt	LTP293	ltpFR2	12	1	RIFLE	1192	n/a	n/a	0	0	0
366.928	n/a	REC_WORD	183464	wordpools/wasnorm_wordpool_576.txt	LTP293	ltpFR2	12	1	TRUCK	1512	n/a	n/a	0	0	0
368.368	n/a	REC_WORD	184184	wordpools/wasnorm_wordpool_576.txt	LTP293	ltpFR2	12	1	FRUIT	610	n/a	n/a	0	0	0
370.002	n/a	REC_WORD	185001	wordpools/wasnorm_wordpool_576.txt	LTP293	ltpFR2	12	1	GARBAGE	622	n/a	n/a	0	0	0
371.6	n/a	REC_WORD	185800	wordpools/wasnorm_wordpool_576.txt	LTP293	ltpFR2	12	1	DUST	508	n/a	n/a	0	0	0
373.764	n/a	REC_WORD	186882	wordpools/wasnorm_wordpool_576.txt	LTP293	ltpFR2	12	1	FIREPLACE	570	n/a	n/a	0	0	0
375.048	n/a	REC_WORD	187524	wordpools/wasnorm_wordpool_576.txt	LTP293	ltpFR2	12	1	WINDOW	1611	n/a	n/a	0	0	0
377.864	n/a	REC_WORD	188932	wordpools/wasnorm_wordpool_576.txt	LTP293	ltpFR2	12	1	BLADE	134	n/a	n/a	0	0	0
378.978	n/a	REC_WORD	189489	wordpools/wasnorm_wordpool_576.txt	LTP293	ltpFR2	12	1	KNIFE	785	n/a	n/a	0	0	0
382.218	n/a	REC_WORD	191109	wordpools/wasnorm_wordpool_576.txt	LTP293	ltpFR2	12	1	BRACES	164	n/a	n/a	0	0	0
397.956	n/a	REC_WORD	198978	wordpools/wasnorm_wordpool_576.txt	LTP293	ltpFR2	12	1	SPHINX	1349	n/a	n/a	0	0	0
415.198	n/a	REC_WORD	207599	wordpools/wasnorm_wordpool_576.txt	LTP293	ltpFR2	12	1	SODA	1341	n/a	n/a	0	0	0
445.354	n/a	DISTRACTOR	222677	n/a	LTP293	ltpFR2	12	2	n/a	n/a	n/a	n/a	0	0	0
445.354	n/a	START	222677	n/a	LTP293	ltpFR2	12	n/a	n/a	n/a	2	n/a	n/a	n/a	n/a
445.368	n/a	PROB	222684	n/a	LTP293	ltpFR2	12	n/a	n/a	n/a	2	23	7	7	9
446.348	n/a	PROB	223174	n/a	LTP293	ltpFR2	12	n/a	n/a	n/a	2	10	7	2	1
447.482	n/a	PROB	223741	n/a	LTP293	ltpFR2	12	n/a	n/a	n/a	2	15	6	1	8
448.818	n/a	PROB	224409	n/a	LTP293	ltpFR2	12	n/a	n/a	n/a	2	17	1	7	9
449.938	n/a	PROB	224969	n/a	LTP293	ltpFR2	12	n/a	n/a	n/a	2	14	6	6	2
450.956	n/a	PROB	225478	n/a	LTP293	ltpFR2	12	n/a	n/a	n/a	2	10	2	4	4
452.586	n/a	PROB	226293	n/a	LTP293	ltpFR2	12	n/a	n/a	n/a	2	15	2	9	4
453.688	n/a	PROB	226844	n/a	LTP293	ltpFR2	12	n/a	n/a	n/a	2	5	2	2	1
454.556	n/a	PROB	227278	n/a	LTP293	ltpFR2	12	n/a	n/a	n/a	2	17	5	8	4
456.01	n/a	PROB	228005	n/a	LTP293	ltpFR2	12	n/a	n/a	n/a	2	11	8	2	1
457.192	n/a	PROB	228596	n/a	LTP293	ltpFR2	12	n/a	n/a	n/a	2	18	4	5	9
458.16	n/a	PROB	229080	n/a	LTP293	ltpFR2	12	n/a	n/a	n/a	2	9	5	1	3
459.392	n/a	PROB	229696	n/a	LTP293	ltpFR2	12	n/a	n/a	n/a	2	16	8	3	5
460.864	n/a	PROB	230432	n/a	LTP293	ltpFR2	12	n/a	n/a	n/a	2	12	1	7	4
461.93	n/a	PROB	230965	n/a	LTP293	ltpFR2	12	n/a	n/a	n/a	2	9	3	2	4
463.83	n/a	PROB	231915	n/a	LTP293	ltpFR2	12	n/a	n/a	n/a	2	11	3	5	3
465.748	n/a	PROB	232874	n/a	LTP293	ltpFR2	12	n/a	n/a	n/a	2	21	3	9	9
467.302	n/a	PROB	233651	n/a	LTP293	ltpFR2	12	n/a	n/a	n/a	2	14	3	8	3
468.544	n/a	STOP	234272	n/a	LTP293	ltpFR2	12	n/a	n/a	n/a	2	n/a	n/a	n/a	n/a
470.42	n/a	WORD	235210	wordpools/wasnorm_wordpool_576.txt	LTP293	ltpFR2	12	2	WARDROBE	1587	n/a	n/a	0	0	0
473.038	n/a	WORD	236519	wordpools/wasnorm_wordpool_576.txt	LTP293	ltpFR2	12	2	SCARF	1246	n/a	n/a	0	0	0
475.574	n/a	WORD	237787	wordpools/wasnorm_wordpool_576.txt	LTP293	ltpFR2	12	2	APRON	35	n/a	n/a	0	0	0
478.044	n/a	WORD	239022	wordpools/wasnorm_wordpool_576.txt	LTP293	ltpFR2	12	2	LAMP	798	n/a	n/a	0	0	0
480.78	n/a	WORD	240390	wordpools/wasnorm_wordpool_576.txt	LTP293	ltpFR2	12	2	HEART	697	n/a	n/a	0	0	0
483.432	n/a	WORD	241716	wordpools/wasnorm_wordpool_576.txt	LTP293	ltpFR2	12	2	EUROPE	541	n/a	n/a	0	0	0
486.1	n/a	WORD	243050	wordpools/wasnorm_wordpool_576.txt	LTP293	ltpFR2	12	2	FRANCE	601	n/a	n/a	0	0	0
488.702	n/a	WORD	244351	wordpools/wasnorm_wordpool_576.txt	LTP293	ltpFR2	12	2	COURSE	390	n/a	n/a	0	0	0
491.204	n/a	WORD	245602	wordpools/wasnorm_wordpool_576.txt	LTP293	ltpFR2	12	2	PASSAGE	1019	n/a	n/a	0	0	0
493.856	n/a	WORD	246928	wordpools/wasnorm_wordpool_576.txt	LTP293	ltpFR2	12	2	CUPBOARD	425	n/a	n/a	0	0	0
496.358	n/a	WORD	248179	wordpools/wasnorm_wordpool_576.txt	LTP293	ltpFR2	12	2	FREEZER	604	n/a	n/a	0	0	0
499.11	n/a	WORD	249555	wordpools/wasnorm_wordpool_576.txt	LTP293	ltpFR2	12	2	JUDGE	761	n/a	n/a	0	0	0
501.63	n/a	WORD	250815	wordpools/wasnorm_wordpool_576.txt	LTP293	ltpFR2	12	2	BANKER	84	n/a	n/a	0	0	0
504.132	n/a	WORD	252066	wordpools/wasnorm_wordpool_576.txt	LTP293	ltpFR2	12	2	GANGSTER	620	n/a	n/a	0	0	0
506.918	n/a	WORD	253459	wordpools/wasnorm_wordpool_576.txt	LTP293	ltpFR2	12	2	LABEL	790	n/a	n/a	0	0	0
509.504	n/a	WORD	254752	wordpools/wasnorm_wordpool_576.txt	LTP293	ltpFR2	12	2	MISSILE	900	n/a	n/a	0	0	0
512.222	n/a	WORD	256111	wordpools/wasnorm_wordpool_576.txt	LTP293	ltpFR2	12	2	PLATE	1086	n/a	n/a	0	0	0
514.674	n/a	WORD	257337	wordpools/wasnorm_wordpool_576.txt	LTP293	ltpFR2	12	2	CHILD	299	n/a	n/a	0	0	0
517.292	n/a	WORD	258646	wordpools/wasnorm_wordpool_576.txt	LTP293	ltpFR2	12	2	INFANT	737	n/a	n/a	0	0	0
519.978	n/a	WORD	259989	wordpools/wasnorm_wordpool_576.txt	LTP293	ltpFR2	12	2	POLICE	1098	n/a	n/a	0	0	0
522.462	n/a	WORD	261231	wordpools/wasnorm_wordpool_576.txt	LTP293	ltpFR2	12	2	ZIPPER	1636	n/a	n/a	0	0	0
525.218	n/a	WORD	262609	wordpools/wasnorm_wordpool_576.txt	LTP293	ltpFR2	12	2	LIGHTNING	820	n/a	n/a	0	0	0
527.9	n/a	WORD	263950	wordpools/wasnorm_wordpool_576.txt	LTP293	ltpFR2	12	2	BACON	67	n/a	n/a	0	0	0
530.368	n/a	WORD	265184	wordpools/wasnorm_wordpool_576.txt	LTP293	ltpFR2	12	2	CURTAIN	427	n/a	n/a	0	0	0
531.974	n/a	START	265987	n/a	LTP293	ltpFR2	12	n/a	n/a	n/a	3	n/a	n/a	n/a	n/a
532.926	n/a	DISTRACTOR	266463	n/a	LTP293	ltpFR2	12	2	n/a	n/a	n/a	n/a	0	0	0
532.938	n/a	PROB	266469	n/a	LTP293	ltpFR2	12	n/a	n/a	n/a	3	14	2	6	6
534.672	n/a	PROB	267336	n/a	LTP293	ltpFR2	12	n/a	n/a	n/a	3	16	5	7	4
536.172	n/a	PROB	268086	n/a	LTP293	ltpFR2	12	n/a	n/a	n/a	3	9	3	2	4
537.256	n/a	PROB	268628	n/a	LTP293	ltpFR2	12	n/a	n/a	n/a	3	26	8	9	9
538.644	n/a	PROB	269322	n/a	LTP293	ltpFR2	12	n/a	n/a	n/a	3	15	1	9	5
539.642	n/a	PROB	269821	n/a	LTP293	ltpFR2	12	n/a	n/a	n/a	3	21	4	8	9
540.66	n/a	PROB	270330	n/a	LTP293	ltpFR2	12	n/a	n/a	n/a	3	17	8	6	3
541.76	n/a	PROB	270880	n/a	LTP293	ltpFR2	12	n/a	n/a	n/a	3	12	2	4	6
542.912	n/a	PROB	271456	n/a	LTP293	ltpFR2	12	n/a	n/a	n/a	3	21	9	4	8
544.28	n/a	PROB	272140	n/a	LTP293	ltpFR2	12	n/a	n/a	n/a	3	15	7	2	6
545.4	n/a	PROB	272700	n/a	LTP293	ltpFR2	12	n/a	n/a	n/a	3	14	4	6	4
546.648	n/a	PROB	273324	n/a	LTP293	ltpFR2	12	n/a	n/a	n/a	3	24	7	9	8
548.168	n/a	PROB	274084	n/a	LTP293	ltpFR2	12	n/a	n/a	n/a	3	15	7	5	3
549.8	n/a	PROB	274900	n/a	LTP293	ltpFR2	12	n/a	n/a	n/a	3	10	1	8	1
550.852	n/a	PROB	275426	n/a	LTP293	ltpFR2	12	n/a	n/a	n/a	3	17	8	7	5
552.368	n/a	PROB	276184	n/a	LTP293	ltpFR2	12	n/a	n/a	n/a	3	13	2	9	2
553.888	n/a	PROB	276944	n/a	LTP293	ltpFR2	12	n/a	n/a	n/a	3	13	4	4	9
554.876	n/a	STOP	277438	n/a	LTP293	ltpFR2	12	n/a	n/a	n/a	3	n/a	n/a	n/a	n/a
557.89	n/a	REC_START	278945	n/a	LTP293	ltpFR2	12	2	n/a	n/a	n/a	n/a	0	0	0
558.482	n/a	REC_WORD	279241	wordpools/wasnorm_wordpool_576.txt	LTP293	ltpFR2	12	2	WARDROBE	1587	n/a	n/a	0	0	0
559.68	n/a	REC_WORD	279840	wordpools/wasnorm_wordpool_576.txt	LTP293	ltpFR2	12	2	FREEZER	604	n/a	n/a	0	0	0
560.994	n/a	REC_WORD	280497	wordpools/wasnorm_wordpool_576.txt	LTP293	ltpFR2	12	2	CUPBOARD	425	n/a	n/a	0	0	0
562.348	n/a	REC_WORD	281174	wordpools/wasnorm_wordpool_576.txt	LTP293	ltpFR2	12	2	SCARF	1246	n/a	n/a	0	0	0
563.642	n/a	REC_WORD	281821	wordpools/wasnorm_wordpool_576.txt	LTP293	ltpFR2	12	2	APRON	35	n/a	n/a	0	0	0
564.93	n/a	REC_WORD	282465	wordpools/wasnorm_wordpool_576.txt	LTP293	ltpFR2	12	2	MISSILE	900	n/a	n/a	0	0	0
566.18	n/a	REC_WORD	283090	wordpools/wasnorm_wordpool_576.txt	LTP293	ltpFR2	12	2	LIGHTNING	820	n/a	n/a	0	0	0
567.396	n/a	REC_WORD	283698	wordpools/wasnorm_wordpool_576.txt	LTP293	ltpFR2	12	2	CURTAIN	427	n/a	n/a	0	0	0
568.84	n/a	REC_WORD	284420	wordpools/wasnorm_wordpool_576.txt	LTP293	ltpFR2	12	2	INFANT	737	n/a	n/a	0	0	0
570.13	n/a	REC_WORD	285065	wordpools/wasnorm_wordpool_576.txt	LTP293	ltpFR2	12	2	CHILD	299	n/a	n/a	0	0	0
571.39	n/a	REC_WORD	285695	wordpools/wasnorm_wordpool_576.txt	LTP293	ltpFR2	12	2	POLICE	1098	n/a	n/a	0	0	0
572.72	n/a	REC_WORD	286360	wordpools/wasnorm_wordpool_576.txt	LTP293	ltpFR2	12	2	ZIPPER	1636	n/a	n/a	0	0	0
576.232	n/a	REC_WORD	288116	wordpools/wasnorm_wordpool_576.txt	LTP293	ltpFR2	12	2	PLATE	1086	n/a	n/a	0	0	0
577.392	n/a	REC_WORD	288696	wordpools/wasnorm_wordpool_576.txt	LTP293	ltpFR2	12	2	BACON	67	n/a	n/a	0	0	0
586.192	n/a	REC_WORD	293096	wordpools/wasnorm_wordpool_576.txt	LTP293	ltpFR2	12	2	GANGSTER	620	n/a	n/a	0	0	0
603.526	n/a	REC_WORD	301763	wordpools/wasnorm_wordpool_576.txt	LTP293	ltpFR2	12	2	BANKER	84	n/a	n/a	0	0	0
648.328	n/a	WORD	324164	wordpools/wasnorm_wordpool_576.txt	LTP293	ltpFR2	12	3	WASP	1593	n/a	n/a	0	0	0
651.026	n/a	WORD	325513	wordpools/wasnorm_wordpool_576.txt	LTP293	ltpFR2	12	3	ICING	732	n/a	n/a	0	0	0
653.61	n/a	WORD	326805	wordpools/wasnorm_wordpool_576.txt	LTP293	ltpFR2	12	3	RABBIT	1152	n/a	n/a	0	0	0
656.364	n/a	WORD	328182	wordpools/wasnorm_wordpool_576.txt	LTP293	ltpFR2	12	3	WHISTLE	1606	n/a	n/a	0	0	0
659.032	n/a	WORD	329516	wordpools/wasnorm_wordpool_576.txt	LTP293	ltpFR2	12	3	LEOPARD	812	n/a	n/a	0	0	0
661.756	n/a	WORD	330878	wordpools/wasnorm_wordpool_576.txt	LTP293	ltpFR2	12	3	PADDLE	1000	n/a	n/a	0	0	0
664.552	n/a	WORD	332276	wordpools/wasnorm_wordpool_576.txt	LTP293	ltpFR2	12	3	SUNSET	1408	n/a	n/a	0	0	0
667.178	n/a	WORD	333589	wordpools/wasnorm_wordpool_576.txt	LTP293	ltpFR2	12	3	FLASHLIGHT	575	n/a	n/a	0	0	0
669.678	n/a	WORD	334839	wordpools/wasnorm_wordpool_576.txt	LTP293	ltpFR2	12	3	TUNNEL	1519	n/a	n/a	0	0	0
672.21	n/a	WORD	336105	wordpools/wasnorm_wordpool_576.txt	LTP293	ltpFR2	12	3	SHERIFF	1284	n/a	n/a	0	0	0
674.864	n/a	WORD	337432	wordpools/wasnorm_wordpool_576.txt	LTP293	ltpFR2	12	3	HOOD	714	n/a	n/a	0	0	0
677.548	n/a	WORD	338774	wordpools/wasnorm_wordpool_576.txt	LTP293	ltpFR2	12	3	BOYFRIEND	162	n/a	n/a	0	0	0
680.134	n/a	WORD	340067	wordpools/wasnorm_wordpool_576.txt	LTP293	ltpFR2	12	3	SAUSAGE	1238	n/a	n/a	0	0	0
682.686	n/a	WORD	341343	wordpools/wasnorm_wordpool_576.txt	LTP293	ltpFR2	12	3	SCALPEL	1243	n/a	n/a	0	0	0
685.438	n/a	WORD	342719	wordpools/wasnorm_wordpool_576.txt	LTP293	ltpFR2	12	3	OMELET	976	n/a	n/a	0	0	0
687.874	n/a	WORD	343937	wordpools/wasnorm_wordpool_576.txt	LTP293	ltpFR2	12	3	BUG	187	n/a	n/a	0	0	0
690.626	n/a	WORD	345313	wordpools/wasnorm_wordpool_576.txt	LTP293	ltpFR2	12	3	TURTLE	1522	n/a	n/a	0	0	0
693.112	n/a	WORD	346556	wordpools/wasnorm_wordpool_576.txt	LTP293	ltpFR2	12	3	CONTRACT	368	n/a	n/a	0	0	0
695.918	n/a	WORD	347959	wordpools/wasnorm_wordpool_576.txt	LTP293	ltpFR2	12	3	PUDDING	1139	n/a	n/a	0	0	0
698.466	n/a	WORD	349233	wordpools/wasnorm_wordpool_576.txt	LTP293	ltpFR2	12	3	JELLO	754	n/a	n/a	0	0	0
701.168	n/a	WORD	350584	wordpools/wasnorm_wordpool_576.txt	LTP293	ltpFR2	12	3	CAPTIVE	240	n/a	n/a	0	0	0
703.602	n/a	WORD	351801	wordpools/wasnorm_wordpool_576.txt	LTP293	ltpFR2	12	3	SUSPECT	1415	n/a	n/a	0	0	0
706.39	n/a	WORD	353195	wordpools/wasnorm_wordpool_576.txt	LTP293	ltpFR2	12	3	PREACHER	1119	n/a	n/a	0	0	0
709.192	n/a	WORD	354596	wordpools/wasnorm_wordpool_576.txt	LTP293	ltpFR2	12	3	SUNRISE	1407	n/a	n/a	0	0	0
710.812	n/a	START	355406	n/a	LTP293	ltpFR2	12	n/a	n/a	n/a	4	n/a	n/a	n/a	n/a
711.742	n/a	DISTRACTOR	355871	n/a	LTP293	ltpFR2	12	3	n/a	n/a	n/a	n/a	0	0	0
711.746	n/a	PROB	355873	n/a	LTP293	ltpFR2	12	n/a	n/a	n/a	4	17	5	9	3
713.164	n/a	PROB	356582	n/a	LTP293	ltpFR2	12	n/a	n/a	n/a	4	9	3	4	2
715.014	n/a	PROB	357507	n/a	LTP293	ltpFR2	12	n/a	n/a	n/a	4	10	2	1	7
716.114	n/a	PROB	358057	n/a	LTP293	ltpFR2	12	n/a	n/a	n/a	4	20	8	4	8
717.366	n/a	PROB	358683	n/a	LTP293	ltpFR2	12	n/a	n/a	n/a	4	5	3	1	1
718.152	n/a	PROB	359076	n/a	LTP293	ltpFR2	12	n/a	n/a	n/a	4	13	6	3	4
719.784	n/a	PROB	359892	n/a	LTP293	ltpFR2	12	n/a	n/a	n/a	4	10	4	2	4
721.054	n/a	PROB	360527	n/a	LTP293	ltpFR2	12	n/a	n/a	n/a	4	17	8	1	8
722.602	n/a	PROB	361301	n/a	LTP293	ltpFR2	12	n/a	n/a	n/a	4	15	3	7	5
723.672	n/a	PROB	361836	n/a	LTP293	ltpFR2	12	n/a	n/a	n/a	4	17	6	4	7
724.754	n/a	PROB	362377	n/a	LTP293	ltpFR2	12	n/a	n/a	n/a	4	19	6	7	6
726.54	n/a	PROB	363270	n/a	LTP293	ltpFR2	12	n/a	n/a	n/a	4	14	1	6	7
727.592	n/a	PROB	363796	n/a	LTP293	ltpFR2	12	n/a	n/a	n/a	4	10	7	2	1
728.542	n/a	PROB	364271	n/a	LTP293	ltpFR2	12	n/a	n/a	n/a	4	19	7	6	6
730.01	n/a	PROB	365005	n/a	LTP293	ltpFR2	12	n/a	n/a	n/a	4	25	8	9	8
731.728	n/a	PROB	365864	n/a	LTP293	ltpFR2	12	n/a	n/a	n/a	4	16	7	6	3
734.81	n/a	STOP	367405	n/a	LTP293	ltpFR2	12	n/a	n/a	n/a	4	n/a	n/a	n/a	n/a
736.714	n/a	REC_START	368357	n/a	LTP293	ltpFR2	12	3	n/a	n/a	n/a	n/a	0	0	0
737.332	n/a	REC_WORD	368666	wordpools/wasnorm_wordpool_576.txt	LTP293	ltpFR2	12	3	SUNRISE	1407	n/a	n/a	0	0	0
738.39	n/a	REC_WORD	369195	wordpools/wasnorm_wordpool_576.txt	LTP293	ltpFR2	12	3	SUNSET	1408	n/a	n/a	0	0	0
739.722	n/a	REC_WORD	369861	wordpools/wasnorm_wordpool_576.txt	LTP293	ltpFR2	12	3	WASP	1593	n/a	n/a	0	0	0
741.042	n/a	REC_WORD	370521	wordpools/wasnorm_wordpool_576.txt	LTP293	ltpFR2	12	3	RABBIT	1152	n/a	n/a	0	0	0
741.83	n/a	REC_WORD	370915	wordpools/wasnorm_wordpool_576.txt	LTP293	ltpFR2	12	3	SAUSAGE	1238	n/a	n/a	0	0	0
742.896	n/a	REC_WORD	371448	wordpools/wasnorm_wordpool_576.txt	LTP293	ltpFR2	12	3	SCALPEL	1243	n/a	n/a	0	0	0
745.126	n/a	REC_WORD	372563	wordpools/wasnorm_wordpool_576.txt	LTP293	ltpFR2	12	3	LEOPARD	812	n/a	n/a	0	0	0
746.468	n/a	REC_WORD	373234	wordpools/wasnorm_wordpool_576.txt	LTP293	ltpFR2	12	3	HOOD	714	n/a	n/a	0	0	0
747.98	n/a	REC_WORD	373990	wordpools/wasnorm_wordpool_576.txt	LTP293	ltpFR2	12	3	FLASHLIGHT	575	n/a	n/a	0	0	0
749.318	n/a	REC_WORD	374659	wordpools/wasnorm_wordpool_576.txt	LTP293	ltpFR2	12	3	TUNNEL	1519	n/a	n/a	0	0	0
752.198	n/a	REC_WORD	376099	wordpools/wasnorm_wordpool_576.txt	LTP293	ltpFR2	12	3	PREACHER	1119	n/a	n/a	0	0	0
755.924	n/a	REC_WORD	377962	wordpools/wasnorm_wordpool_576.txt	LTP293	ltpFR2	12	3	CAPTIVE	240	n/a	n/a	0	0	0
756.816	n/a	REC_WORD	378408	wordpools/wasnorm_wordpool_576.txt	LTP293	ltpFR2	12	3	SUSPECT	1415	n/a	n/a	0	0	0
760.724	n/a	REC_WORD	380362	wordpools/wasnorm_wordpool_576.txt	LTP293	ltpFR2	12	3	WHISTLE	1606	n/a	n/a	0	0	0
762.552	n/a	REC_WORD	381276	wordpools/wasnorm_wordpool_576.txt	LTP293	ltpFR2	12	3	SHERIFF	1284	n/a	n/a	0	0	0
768.848	n/a	REC_WORD	384424	wordpools/wasnorm_wordpool_576.txt	LTP293	ltpFR2	12	3	PUDDING	1139	n/a	n/a	0	0	0
774.018	n/a	REC_WORD	387009	wordpools/wasnorm_wordpool_576.txt	LTP293	ltpFR2	12	3	BUG	187	n/a	n/a	0	0	0
827.152	n/a	WORD	413576	wordpools/wasnorm_wordpool_576.txt	LTP293	ltpFR2	12	4	PERFUME	1049	n/a	n/a	0	0	0
829.88	n/a	WORD	414940	wordpools/wasnorm_wordpool_576.txt	LTP293	ltpFR2	12	4	PLAZA	1088	n/a	n/a	0	0	0
832.508	n/a	WORD	416254	wordpools/wasnorm_wordpool_576.txt	LTP293	ltpFR2	12	4	FLAG	573	n/a	n/a	0	0	0
835.06	n/a	WORD	417530	wordpools/wasnorm_wordpool_576.txt	LTP293	ltpFR2	12	4	SPOOL	1356	n/a	n/a	0	0	0
837.584	n/a	WORD	418792	wordpools/wasnorm_wordpool_576.txt	LTP293	ltpFR2	12	4	TRENCH	1503	n/a	n/a	0	0	0
840.272	n/a	WORD	420136	wordpools/wasnorm_wordpool_576.txt	LTP293	ltpFR2	12	4	ROBOT	1200	n/a	n/a	0	0	0
842.908	n/a	WORD	421454	wordpools/wasnorm_wordpool_576.txt	LTP293	ltpFR2	12	4	CITRUS	313	n/a	n/a	0	0	0
845.51	n/a	WORD	422755	wordpools/wasnorm_wordpool_576.txt	LTP293	ltpFR2	12	4	CARROT	249	n/a	n/a	0	0	0
848.112	n/a	WORD	424056	wordpools/wasnorm_wordpool_576.txt	LTP293	ltpFR2	12	4	HIKER	708	n/a	n/a	0	0	0
850.58	n/a	WORD	425290	wordpools/wasnorm_wordpool_576.txt	LTP293	ltpFR2	12	4	ARM	38	n/a	n/a	0	0	0
853.126	n/a	WORD	426563	wordpools/wasnorm_wordpool_576.txt	LTP293	ltpFR2	12	4	FRECKLE	602	n/a	n/a	0	0	0
855.768	n/a	WORD	427884	wordpools/wasnorm_wordpool_576.txt	LTP293	ltpFR2	12	4	NURSE	963	n/a	n/a	0	0	0
858.586	n/a	WORD	429293	wordpools/wasnorm_wordpool_576.txt	LTP293	ltpFR2	12	4	MATCH	878	n/a	n/a	0	0	0
861.232	n/a	WORD	430616	wordpools/wasnorm_wordpool_576.txt	LTP293	ltpFR2	12	4	BLENDER	136	n/a	n/a	0	0	0
863.7	n/a	WORD	431850	wordpools/wasnorm_wordpool_576.txt	LTP293	ltpFR2	12	4	SPONGE	1355	n/a	n/a	0	0	0
866.428	n/a	WORD	433214	wordpools/wasnorm_wordpool_576.txt	LTP293	ltpFR2	12	4	REBEL	1172	n/a	n/a	0	0	0
868.87	n/a	WORD	434435	wordpools/wasnorm_wordpool_576.txt	LTP293	ltpFR2	12	4	COFFEE	341	n/a	n/a	0	0	0
871.532	n/a	WORD	435766	wordpools/wasnorm_wordpool_576.txt	LTP293	ltpFR2	12	4	MATTRESS	879	n/a	n/a	0	0	0
874.268	n/a	WORD	437134	wordpools/wasnorm_wordpool_576.txt	LTP293	ltpFR2	12	4	NIGHTGOWN	953	n/a	n/a	0	0	0
876.794	n/a	WORD	438397	wordpools/wasnorm_wordpool_576.txt	LTP293	ltpFR2	12	4	CELLAR	267	n/a	n/a	0	0	0
879.556	n/a	WORD	439778	wordpools/wasnorm_wordpool_576.txt	LTP293	ltpFR2	12	4	PIMPLE	1071	n/a	n/a	0	0	0
882.064	n/a	WORD	441032	wordpools/wasnorm_wordpool_576.txt	LTP293	ltpFR2	12	4	MARKET	871	n/a	n/a	0	0	0
884.678	n/a	WORD	442339	wordpools/wasnorm_wordpool_576.txt	LTP293	ltpFR2	12	4	HELMET	702	n/a	n/a	0	0	0
887.112	n/a	WORD	443556	wordpools/wasnorm_wordpool_576.txt	LTP293	ltpFR2	12	4	CONVICT	371	n/a	n/a	0	0	0
888.72	n/a	START	444360	n/a	LTP293	ltpFR2	12	n/a	n/a	n/a	5	n/a	n/a	n/a	n/a
889.552	n/a	DISTRACTOR	444776	n/a	LTP293	ltpFR2	12	4	n/a	n/a	n/a	n/a	0	0	0
889.564	n/a	PROB	444782	n/a	LTP293	ltpFR2	12	n/a	n/a	n/a	5	19	6	4	9
890.886	n/a	PROB	445443	n/a	LTP293	ltpFR2	12	n/a	n/a	n/a	5	20	9	7	4
893.188	n/a	PROB	446594	n/a	LTP293	ltpFR2	12	n/a	n/a	n/a	5	15	5	9	1
894.274	n/a	PROB	447137	n/a	LTP293	ltpFR2	12	n/a	n/a	n/a	5	13	4	8	1
895.674	n/a	PROB	447837	n/a	LTP293	ltpFR2	12	n/a	n/a	n/a	5	16	3	5	8
896.774	n/a	PROB	448387	n/a	LTP293	ltpFR2	12	n/a	n/a	n/a	5	14	7	3	4
897.842	n/a	PROB	448921	n/a	LTP293	ltpFR2	12	n/a	n/a	n/a	5	15	5	4	6
899.094	n/a	PROB	449547	n/a	LTP293	ltpFR2	12	n/a	n/a	n/a	5	17	4	8	5
900.778	n/a	PROB	450389	n/a	LTP293	ltpFR2	12	n/a	n/a	n/a	5	16	8	4	4
902.13	n/a	PROB	451065	n/a	LTP293	ltpFR2	12	n/a	n/a	n/a	5	15	5	2	8
903.514	n/a	PROB	451757	n/a	LTP293	ltpFR2	12	n/a	n/a	n/a	5	22	9	9	4
905.032	n/a	PROB	452516	n/a	LTP293	ltpFR2	12	n/a	n/a	n/a	5	18	9	2	7
906.332	n/a	PROB	453166	n/a	LTP293	ltpFR2	12	n/a	n/a	n/a	5	10	2	6	2
907.718	n/a	PROB	453859	n/a	LTP293	ltpFR2	12	n/a	n/a	n/a	5	19	5	7	7
909.052	n/a	PROB	454526	n/a	LTP293	ltpFR2	12	n/a	n/a	n/a	5	14	5	4	5
910.786	n/a	PROB	455393	n/a	LTP293	ltpFR2	12	n/a	n/a	n/a	5	17	7	1	9
912.072	n/a	STOP	456036	n/a	LTP293	ltpFR2	12	n/a	n/a	n/a	5	n/a	n/a	n/a	n/a
914.574	n/a	REC_START	457287	n/a	LTP293	ltpFR2	12	4	n/a	n/a	n/a	n/a	0	0	0
915.374	n/a	REC_WORD	457687	wordpools/wasnorm_wordpool_576.txt	LTP293	ltpFR2	12	4	CONVICT	371	n/a	n/a	0	0	0
916.432	n/a	REC_WORD	458216	wordpools/wasnorm_wordpool_576.txt	LTP293	ltpFR2	12	4	PERFUME	1049	n/a	n/a	0	0	0
917.382	n/a	REC_WORD	458691	wordpools/wasnorm_wordpool_576.txt	LTP293	ltpFR2	12	4	CITRUS	313	n/a	n/a	0	0	0
919.144	n/a	REC_WORD	459572	wordpools/wasnorm_wordpool_576.txt	LTP293	ltpFR2	12	4	PLAZA	1088	n/a	n/a	0	0	0
920.244	n/a	REC_WORD	460122	wordpools/wasnorm_wordpool_576.txt	LTP293	ltpFR2	12	4	MARKET	871	n/a	n/a	0	0	0
922.364	n/a	REC_WORD	461182	wordpools/wasnorm_wordpool_576.txt	LTP293	ltpFR2	12	4	CARROT	249	n/a	n/a	0	0	0
923.792	n/a	REC_WORD	461896	wordpools/wasnorm_wordpool_576.txt	LTP293	ltpFR2	12	4	SPONGE	1355	n/a	n/a	0	0	0
927.132	n/a	REC_WORD	463566	wordpools/wasnorm_wordpool_576.txt	LTP293	ltpFR2	12	4	HIKER	708	n/a	n/a	0	0	0
928.282	n/a	REC_WORD	464141	wordpools/wasnorm_wordpool_576.txt	LTP293	ltpFR2	12	4	ARM	38	n/a	n/a	0	0	0
929.344	n/a	REC_WORD	464672	wordpools/wasnorm_wordpool_576.txt	LTP293	ltpFR2	12	4	FRECKLE	602	n/a	n/a	0	0	0
944.672	n/a	REC_WORD	472336	wordpools/wasnorm_wordpool_576.txt	LTP293	ltpFR2	12	4	PIMPLE	1071	n/a	n/a	0	0	0
1005.028	n/a	DISTRACTOR	502514	n/a	LTP293	ltpFR2	12	5	n/a	n/a	n/a	n/a	0	0	0
1005.028	n/a	START	502514	n/a	LTP293	ltpFR2	12	n/a	n/a	n/a	6	n/a	n/a	n/a	n/a
1005.044	n/a	PROB	502522	n/a	LTP293	ltpFR2	12	n/a	n/a	n/a	6	19	4	8	7
1006.628	n/a	PROB	503314	n/a	LTP293	ltpFR2	12	n/a	n/a	n/a	6	19	3	9	7
1008.048	n/a	PROB	504024	n/a	LTP293	ltpFR2	12	n/a	n/a	n/a	6	21	9	3	9
1009.732	n/a	PROB	504866	n/a	LTP293	ltpFR2	12	n/a	n/a	n/a	6	16	5	2	9
1010.682	n/a	PROB	505341	n/a	LTP293	ltpFR2	12	n/a	n/a	n/a	6	15	7	6	2
1011.75	n/a	PROB	505875	n/a	LTP293	ltpFR2	12	n/a	n/a	n/a	6	16	4	7	5
1013.35	n/a	PROB	506675	n/a	LTP293	ltpFR2	12	n/a	n/a	n/a	6	13	3	3	7
1014.686	n/a	PROB	507343	n/a	LTP293	ltpFR2	12	n/a	n/a	n/a	6	14	7	4	3
1015.736	n/a	PROB	507868	n/a	LTP293	ltpFR2	12	n/a	n/a	n/a	6	13	2	5	6
1017.772	n/a	PROB	508886	n/a	LTP293	ltpFR2	12	n/a	n/a	n/a	6	10	4	5	1
1019.09	n/a	PROB	509545	n/a	LTP293	ltpFR2	12	n/a	n/a	n/a	6	23	9	8	6
1022.108	n/a	PROB	511054	n/a	LTP293	ltpFR2	12	n/a	n/a	n/a	6	14	3	9	2
1023.226	n/a	PROB	511613	n/a	LTP293	ltpFR2	12	n/a	n/a	n/a	6	15	4	6	5
1025.176	n/a	PROB	512588	n/a	LTP293	ltpFR2	12	n/a	n/a	n/a	6	19	9	6	4
1026.294	n/a	PROB	513147	n/a	LTP293	ltpFR2	12	n/a	n/a	n/a	6	16	8	1	7
1029.028	n/a	STOP	514514	n/a	LTP293	ltpFR2	12	n/a	n/a	n/a	6	n/a	n/a	n/a	n/a
1029.964	n/a	WORD	514982	wordpools/wasnorm_wordpool_576.txt	LTP293	ltpFR2	12	5	STAMP	1370	n/a	n/a	0	0	0
1032.55	n/a	WORD	516275	wordpools/wasnorm_wordpool_576.txt	LTP293	ltpFR2	12	5	STICKER	1382	n/a	n/a	0	0	0
1035.286	n/a	WORD	517643	wordpools/wasnorm_wordpool_576.txt	LTP293	ltpFR2	12	5	CANAL	226	n/a	n/a	0	0	0
1037.904	n/a	WORD	518952	wordpools/wasnorm_wordpool_576.txt	LTP293	ltpFR2	12	5	RIVER	1194	n/a	n/a	0	0	0
1040.694	n/a	WORD	520347	wordpools/wasnorm_wordpool_576.txt	LTP293	ltpFR2	12	5	DORM	488	n/a	n/a	0	0	0
1043.514	n/a	WORD	521757	wordpools/wasnorm_wordpool_576.txt	LTP293	ltpFR2	12	5	FRAME	600	n/a	n/a	0	0	0
1046.162	n/a	WORD	523081	wordpools/wasnorm_wordpool_576.txt	LTP293	ltpFR2	12	5	CHAMPAGNE	278	n/a	n/a	0	0	0
1048.736	n/a	WORD	524368	wordpools/wasnorm_wordpool_576.txt	LTP293	ltpFR2	12	5	SIBLING	1301	n/a	n/a	0	0	0
1051.282	n/a	WORD	525641	wordpools/wasnorm_wordpool_576.txt	LTP293	ltpFR2	12	5	ACTRESS	6	n/a	n/a	0	0	0
1054.05	n/a	WORD	527025	wordpools/wasnorm_wordpool_576.txt	LTP293	ltpFR2	12	5	LIVER	833	n/a	n/a	0	0	0
1056.86	n/a	WORD	528430	wordpools/wasnorm_wordpool_576.txt	LTP293	ltpFR2	12	5	GOBLIN	645	n/a	n/a	0	0	0
1059.46	n/a	WORD	529730	wordpools/wasnorm_wordpool_576.txt	LTP293	ltpFR2	12	5	TWISTER	1530	n/a	n/a	0	0	0
1062.022	n/a	WORD	531011	wordpools/wasnorm_wordpool_576.txt	LTP293	ltpFR2	12	5	BASEMENT	94	n/a	n/a	0	0	0
1064.508	n/a	WORD	532254	wordpools/wasnorm_wordpool_576.txt	LTP293	ltpFR2	12	5	BEAKER	104	n/a	n/a	0	0	0
1067.26	n/a	WORD	533630	wordpools/wasnorm_wordpool_576.txt	LTP293	ltpFR2	12	5	PAIL	1002	n/a	n/a	0	0	0
1070.014	n/a	WORD	535007	wordpools/wasnorm_wordpool_576.txt	LTP293	ltpFR2	12	5	WIFE	1609	n/a	n/a	0	0	0
1072.538	n/a	WORD	536269	wordpools/wasnorm_wordpool_576.txt	LTP293	ltpFR2	12	5	BARREL	91	n/a	n/a	0	0	0
1074.968	n/a	WORD	537484	wordpools/wasnorm_wordpool_576.txt	LTP293	ltpFR2	12	5	SUBWAY	1400	n/a	n/a	0	0	0
1077.578	n/a	WORD	538789	wordpools/wasnorm_wordpool_576.txt	LTP293	ltpFR2	12	5	KETCHUP	771	n/a	n/a	0	0	0
1079.996	n/a	WORD	539998	wordpools/wasnorm_wordpool_576.txt	LTP293	ltpFR2	12	5	PORTRAIT	1111	n/a	n/a	0	0	0
1082.464	n/a	WORD	541232	wordpools/wasnorm_wordpool_576.txt	LTP293	ltpFR2	12	5	SUMMIT	1405	n/a	n/a	0	0	0
1085.15	n/a	WORD	542575	wordpools/wasnorm_wordpool_576.txt	LTP293	ltpFR2	12	5	CEILING	265	n/a	n/a	0	0	0
1087.96	n/a	WORD	543980	wordpools/wasnorm_wordpool_576.txt	LTP293	ltpFR2	12	5	PLASTER	1085	n/a	n/a	0	0	0
1090.654	n/a	WORD	545327	wordpools/wasnorm_wordpool_576.txt	LTP293	ltpFR2	12	5	CLOUD	328	n/a	n/a	0	0	0
1092.266	n/a	START	546133	n/a	LTP293	ltpFR2	12	n/a	n/a	n/a	7	n/a	n/a	n/a	n/a
1093.118	n/a	DISTRACTOR	546559	n/a	LTP293	ltpFR2	12	5	n/a	n/a	n/a	n/a	0	0	0
1093.124	n/a	PROB	546562	n/a	LTP293	ltpFR2	12	n/a	n/a	n/a	7	15	5	8	2
1094.398	n/a	PROB	547199	n/a	LTP293	ltpFR2	12	n/a	n/a	n/a	7	20	9	8	3
1095.682	n/a	PROB	547841	n/a	LTP293	ltpFR2	12	n/a	n/a	n/a	7	13	2	6	5
1098.284	n/a	PROB	549142	n/a	LTP293	ltpFR2	12	n/a	n/a	n/a	7	8	3	3	2
1100.136	n/a	PROB	550068	n/a	LTP293	ltpFR2	12	n/a	n/a	n/a	7	21	7	5	9
1101.804	n/a	PROB	550902	n/a	LTP293	ltpFR2	12	n/a	n/a	n/a	7	18	8	7	3
1102.972	n/a	PROB	551486	n/a	LTP293	ltpFR2	12	n/a	n/a	n/a	7	15	7	2	6
1104.14	n/a	PROB	552070	n/a	LTP293	ltpFR2	12	n/a	n/a	n/a	7	20	9	6	5
1105.206	n/a	PROB	552603	n/a	LTP293	ltpFR2	12	n/a	n/a	n/a	7	13	2	5	6
1106.474	n/a	PROB	553237	n/a	LTP293	ltpFR2	12	n/a	n/a	n/a	7	4	2	1	1
1107.392	n/a	PROB	553696	n/a	LTP293	ltpFR2	12	n/a	n/a	n/a	7	23	9	8	7
1108.876	n/a	PROB	554438	n/a	LTP293	ltpFR2	12	n/a	n/a	n/a	7	19	1	9	9
1110.244	n/a	PROB	555122	n/a	LTP293	ltpFR2	12	n/a	n/a	n/a	7	10	1	6	3
1111.746	n/a	PROB	555873	n/a	LTP293	ltpFR2	12	n/a	n/a	n/a	7	15	6	4	5
1113.664	n/a	PROB	556832	n/a	LTP293	ltpFR2	12	n/a	n/a	n/a	7	12	6	2	4
1114.958	n/a	STOP	557479	n/a	LTP293	ltpFR2	12	n/a	n/a	n/a	7	n/a	n/a	n/a	n/a
1118.084	n/a	REC_START	559042	n/a	LTP293	ltpFR2	12	5	n/a	n/a	n/a	n/a	0	0	0
1118.652	n/a	REC_WORD	559326	wordpools/wasnorm_wordpool_576.txt	LTP293	ltpFR2	12	5	CLOUD	328	n/a	n/a	0	0	0
1119.58	n/a	REC_WORD	559790	wordpools/wasnorm_wordpool_576.txt	LTP293	ltpFR2	12	5	SUMMIT	1405	n/a	n/a	0	0	0
1120.756	n/a	REC_WORD	560378	wordpools/wasnorm_wordpool_576.txt	LTP293	ltpFR2	12	5	PORTRAIT	1111	n/a	n/a	0	0	0
1121.69	n/a	REC_WORD	560845	wordpools/wasnorm_wordpool_576.txt	LTP293	ltpFR2	12	5	FRAME	600	n/a	n/a	0	0	0
1122.896	n/a	REC_WORD	561448	wordpools/wasnorm_wordpool_576.txt	LTP293	ltpFR2	12	5	BASEMENT	94	n/a	n/a	0	0	0
1125.07	n/a	REC_WORD	562535	wordpools/wasnorm_wordpool_576.txt	LTP293	ltpFR2	12	5	KETCHUP	771	n/a	n/a	0	0	0
1126.066	n/a	REC_WORD	563033	wordpools/wasnorm_wordpool_576.txt	LTP293	ltpFR2	12	5	CANAL	226	n/a	n/a	0	0	0
1127.182	n/a	REC_WORD	563591	wordpools/wasnorm_wordpool_576.txt	LTP293	ltpFR2	12	5	SUBWAY	1400	n/a	n/a	0	0	0
1129.366	n/a	REC_WORD	564683	wordpools/wasnorm_wordpool_576.txt	LTP293	ltpFR2	12	5	RIVER	1194	n/a	n/a	0	0	0
1131.134	n/a	REC_WORD	565567	wordpools/wasnorm_wordpool_576.txt	LTP293	ltpFR2	12	5	SIBLING	1301	n/a	n/a	0	0	0
1132.126	n/a	REC_WORD	566063	wordpools/wasnorm_wordpool_576.txt	LTP293	ltpFR2	12	5	STAMP	1370	n/a	n/a	0	0	0
1133.642	n/a	REC_WORD	566821	wordpools/wasnorm_wordpool_576.txt	LTP293	ltpFR2	12	5	STICKER	1382	n/a	n/a	0	0	0
1208.54	n/a	DISTRACTOR	604270	n/a	LTP293	ltpFR2	12	6	n/a	n/a	n/a	n/a	0	0	0
1208.54	n/a	START	604270	n/a	LTP293	ltpFR2	12	n/a	n/a	n/a	8	n/a	n/a	n/a	n/a
1208.556	n/a	PROB	604278	n/a	LTP293	ltpFR2	12	n/a	n/a	n/a	8	24	8	9	7
1210.324	n/a	PROB	605162	n/a	LTP293	ltpFR2	12	n/a	n/a	n/a	8	15	4	7	4
1211.358	n/a	PROB	605679	n/a	LTP293	ltpFR2	12	n/a	n/a	n/a	8	10	4	4	2
1212.476	n/a	PROB	606238	n/a	LTP293	ltpFR2	12	n/a	n/a	n/a	8	9	4	2	3
1214.094	n/a	PROB	607047	n/a	LTP293	ltpFR2	12	n/a	n/a	n/a	8	9	2	2	5
1215.344	n/a	PROB	607672	n/a	LTP293	ltpFR2	12	n/a	n/a	n/a	8	14	7	7	2
1216.528	n/a	PROB	608264	n/a	LTP293	ltpFR2	12	n/a	n/a	n/a	8	11	9	1	1
1218.446	n/a	PROB	609223	n/a	LTP293	ltpFR2	12	n/a	n/a	n/a	8	14	5	4	6
1219.664	n/a	PROB	609832	n/a	LTP293	ltpFR2	12	n/a	n/a	n/a	8	16	6	2	8
1221.532	n/a	PROB	610766	n/a	LTP293	ltpFR2	12	n/a	n/a	n/a	8	13	7	2	4
1223.166	n/a	PROB	611583	n/a	LTP293	ltpFR2	12	n/a	n/a	n/a	8	15	5	2	8
1224.302	n/a	PROB	612151	n/a	LTP293	ltpFR2	12	n/a	n/a	n/a	8	11	5	1	5
1225.386	n/a	PROB	612693	n/a	LTP293	ltpFR2	12	n/a	n/a	n/a	8	23	9	5	9
1226.804	n/a	PROB	613402	n/a	LTP293	ltpFR2	12	n/a	n/a	n/a	8	14	5	7	2
1228.422	n/a	PROB	614211	n/a	LTP293	ltpFR2	12	n/a	n/a	n/a	8	26	6	8	8
1231.72	n/a	STOP	615860	n/a	LTP293	ltpFR2	12	n/a	n/a	n/a	8	n/a	n/a	n/a	n/a
1233.71	n/a	WORD	616855	wordpools/wasnorm_wordpool_576.txt	LTP293	ltpFR2	12	6	DONOR	485	n/a	n/a	0	0	0
1236.46	n/a	WORD	618230	wordpools/wasnorm_wordpool_576.txt	LTP293	ltpFR2	12	6	LODGE	839	n/a	n/a	0	0	0
1239.214	n/a	WORD	619607	wordpools/wasnorm_wordpool_576.txt	LTP293	ltpFR2	12	6	RECEIPT	1173	n/a	n/a	0	0	0
1241.916	n/a	WORD	620958	wordpools/wasnorm_wordpool_576.txt	LTP293	ltpFR2	12	6	PLAID	1080	n/a	n/a	0	0	0
1244.634	n/a	WORD	622317	wordpools/wasnorm_wordpool_576.txt	LTP293	ltpFR2	12	6	THIEF	1456	n/a	n/a	0	0	0
1247.238	n/a	WORD	623619	wordpools/wasnorm_wordpool_576.txt	LTP293	ltpFR2	12	6	ORANGE	980	n/a	n/a	0	0	0
1249.908	n/a	WORD	624954	wordpools/wasnorm_wordpool_576.txt	LTP293	ltpFR2	12	6	PIGMENT	1066	n/a	n/a	0	0	0
1252.392	n/a	WORD	626196	wordpools/wasnorm_wordpool_576.txt	LTP293	ltpFR2	12	6	VICTIM	1562	n/a	n/a	0	0	0
1254.996	n/a	WORD	627498	wordpools/wasnorm_wordpool_576.txt	LTP293	ltpFR2	12	6	CYCLONE	431	n/a	n/a	0	0	0
1257.432	n/a	WORD	628716	wordpools/wasnorm_wordpool_576.txt	LTP293	ltpFR2	12	6	DRILL	497	n/a	n/a	0	0	0
1259.93	n/a	WORD	629965	wordpools/wasnorm_wordpool_576.txt	LTP293	ltpFR2	12	6	DRAGON	492	n/a	n/a	0	0	0
1262.37	n/a	WORD	631185	wordpools/wasnorm_wordpool_576.txt	LTP293	ltpFR2	12	6	BLUEPRINT	142	n/a	n/a	0	0	0
1264.968	n/a	WORD	632484	wordpools/wasnorm_wordpool_576.txt	LTP293	ltpFR2	12	6	CREVICE	405	n/a	n/a	0	0	0
1267.436	n/a	WORD	633718	wordpools/wasnorm_wordpool_576.txt	LTP293	ltpFR2	12	6	MARKER	870	n/a	n/a	0	0	0
1269.97	n/a	WORD	634985	wordpools/wasnorm_wordpool_576.txt	LTP293	ltpFR2	12	6	MOTEL	919	n/a	n/a	0	0	0
1272.44	n/a	WORD	636220	wordpools/wasnorm_wordpool_576.txt	LTP293	ltpFR2	12	6	SLUG	1329	n/a	n/a	0	0	0
1274.942	n/a	WORD	637471	wordpools/wasnorm_wordpool_576.txt	LTP293	ltpFR2	12	6	SNAIL	1332	n/a	n/a	0	0	0
1277.56	n/a	WORD	638780	wordpools/wasnorm_wordpool_576.txt	LTP293	ltpFR2	12	6	BRIEFCASE	175	n/a	n/a	0	0	0
1280.134	n/a	WORD	640067	wordpools/wasnorm_wordpool_576.txt	LTP293	ltpFR2	12	6	FILM	565	n/a	n/a	0	0	0
1282.8	n/a	WORD	641400	wordpools/wasnorm_wordpool_576.txt	LTP293	ltpFR2	12	6	CASHIER	254	n/a	n/a	0	0	0
1285.566	n/a	WORD	642783	wordpools/wasnorm_wordpool_576.txt	LTP293	ltpFR2	12	6	CATTLE	261	n/a	n/a	0	0	0
1288.102	n/a	WORD	644051	wordpools/wasnorm_wordpool_576.txt	LTP293	ltpFR2	12	6	STAR	1373	n/a	n/a	0	0	0
1290.678	n/a	WORD	645339	wordpools/wasnorm_wordpool_576.txt	LTP293	ltpFR2	12	6	CRATER	400	n/a	n/a	0	0	0
1293.324	n/a	WORD	646662	wordpools/wasnorm_wordpool_576.txt	LTP293	ltpFR2	12	6	STOVE	1388	n/a	n/a	0	0	0
1294.932	n/a	START	647466	n/a	LTP293	ltpFR2	12	n/a	n/a	n/a	9	n/a	n/a	n/a	n/a
1295.868	n/a	DISTRACTOR	647934	n/a	LTP293	ltpFR2	12	6	n/a	n/a	n/a	n/a	0	0	0
1295.876	n/a	PROB	647938	n/a	LTP293	ltpFR2	12	n/a	n/a	n/a	9	19	8	8	3
1298.126	n/a	PROB	649063	n/a	LTP293	ltpFR2	12	n/a	n/a	n/a	9	15	5	1	9
1299.328	n/a	PROB	649664	n/a	LTP293	ltpFR2	12	n/a	n/a	n/a	9	14	4	1	9
1300.494	n/a	PROB	650247	n/a	LTP293	ltpFR2	12	n/a	n/a	n/a	9	15	6	5	4
1301.846	n/a	PROB	650923	n/a	LTP293	ltpFR2	12	n/a	n/a	n/a	9	15	3	4	8
1302.898	n/a	PROB	651449	n/a	LTP293	ltpFR2	12	n/a	n/a	n/a	9	16	2	5	9
1303.916	n/a	PROB	651958	n/a	LTP293	ltpFR2	12	n/a	n/a	n/a	9	17	6	3	8
1305.834	n/a	PROB	652917	n/a	LTP293	ltpFR2	12	n/a	n/a	n/a	9	15	2	7	6
1307.284	n/a	PROB	653642	n/a	LTP293	ltpFR2	12	n/a	n/a	n/a	9	17	4	7	6
1308.518	n/a	PROB	654259	n/a	LTP293	ltpFR2	12	n/a	n/a	n/a	9	19	8	3	8
1310.136	n/a	PROB	655068	n/a	LTP293	ltpFR2	12	n/a	n/a	n/a	9	14	5	5	4
1311.07	n/a	PROB	655535	n/a	LTP293	ltpFR2	12	n/a	n/a	n/a	9	15	6	3	4
1312.44	n/a	PROB	656220	n/a	LTP293	ltpFR2	12	n/a	n/a	n/a	9	16	2	5	9
1313.406	n/a	PROB	656703	n/a	LTP293	ltpFR2	12	n/a	n/a	n/a	9	17	7	6	4
1314.64	n/a	PROB	657320	n/a	LTP293	ltpFR2	12	n/a	n/a	n/a	9	8	4	1	3
1316.126	n/a	PROB	658063	n/a	LTP293	ltpFR2	12	n/a	n/a	n/a	9	10	5	2	3
1317.546	n/a	STOP	658773	n/a	LTP293	ltpFR2	12	n/a	n/a	n/a	9	n/a	n/a	n/a	n/a
1320.728	n/a	REC_START	660364	n/a	LTP293	ltpFR2	12	6	n/a	n/a	n/a	n/a	0	0	0
1321.332	n/a	REC_WORD	660666	wordpools/wasnorm_wordpool_576.txt	LTP293	ltpFR2	12	6	CATTLE	261	n/a	n/a	0	0	0
1322.302	n/a	REC_WORD	661151	wordpools/wasnorm_wordpool_576.txt	LTP293	ltpFR2	12	6	CRATER	400	n/a	n/a	0	0	0
1323.356	n/a	REC_WORD	661678	wordpools/wasnorm_wordpool_576.txt	LTP293	ltpFR2	12	6	STOVE	1388	n/a	n/a	0	0	0
1324.834	n/a	REC_WORD	662417	wordpools/wasnorm_wordpool_576.txt	LTP293	ltpFR2	12	6	LODGE	839	n/a	n/a	0	0	0
1325.754	n/a	REC_WORD	662877	wordpools/wasnorm_wordpool_576.txt	LTP293	ltpFR2	12	6	MOTEL	919	n/a	n/a	0	0	0
1327.034	n/a	REC_WORD	663517	wordpools/wasnorm_wordpool_576.txt	LTP293	ltpFR2	12	6	PLAID	1080	n/a	n/a	0	0	0
1327.94	n/a	REC_WORD	663970	wordpools/wasnorm_wordpool_576.txt	LTP293	ltpFR2	12	6	RECEIPT	1173	n/a	n/a	0	0	0
1329.386	n/a	REC_WORD	664693	wordpools/wasnorm_wordpool_576.txt	LTP293	ltpFR2	12	6	DRILL	497	n/a	n/a	0	0	0
1330.726	n/a	REC_WORD	665363	wordpools/wasnorm_wordpool_576.txt	LTP293	ltpFR2	12	6	CYCLONE	431	n/a	n/a	0	0	0
1335.668	n/a	REC_WORD	667834	wordpools/wasnorm_wordpool_576.txt	LTP293	ltpFR2	12	6	ORANGE	980	n/a	n/a	0	0	0
1339.19	n/a	REC_WORD	669595	wordpools/wasnorm_wordpool_576.txt	LTP293	ltpFR2	12	6	DRAGON	492	n/a	n/a	0	0	0
1341.1	n/a	REC_WORD	670550	wordpools/wasnorm_wordpool_576.txt	LTP293	ltpFR2	12	6	FILM	565	n/a	n/a	0	0	0
1348.354	n/a	REC_WORD	674177	wordpools/wasnorm_wordpool_576.txt	LTP293	ltpFR2	12	6	BRIEFCASE	175	n/a	n/a	0	0	0
1411.166	n/a	WORD	705583	wordpools/wasnorm_wordpool_576.txt	LTP293	ltpFR2	12	7	SCULPTURE	1258	n/a	n/a	0	0	0
1413.9	n/a	WORD	706950	wordpools/wasnorm_wordpool_576.txt	LTP293	ltpFR2	12	7	DIME	466	n/a	n/a	0	0	0
1416.418	n/a	WORD	708209	wordpools/wasnorm_wordpool_576.txt	LTP293	ltpFR2	12	7	POSTAGE	1113	n/a	n/a	0	0	0
1418.872	n/a	WORD	709436	wordpools/wasnorm_wordpool_576.txt	LTP293	ltpFR2	12	7	KEEPER	769	n/a	n/a	0	0	0
1421.324	n/a	WORD	710662	wordpools/wasnorm_wordpool_576.txt	LTP293	ltpFR2	12	7	LADY	794	n/a	n/a	0	0	0
1423.758	n/a	WORD	711879	wordpools/wasnorm_wordpool_576.txt	LTP293	ltpFR2	12	7	MISTER	901	n/a	n/a	0	0	0
1426.56	n/a	WORD	713280	wordpools/wasnorm_wordpool_576.txt	LTP293	ltpFR2	12	7	BROOK	177	n/a	n/a	0	0	0
1429.13	n/a	WORD	714565	wordpools/wasnorm_wordpool_576.txt	LTP293	ltpFR2	12	7	DRAWING	494	n/a	n/a	0	0	0
1431.73	n/a	WORD	715865	wordpools/wasnorm_wordpool_576.txt	LTP293	ltpFR2	12	7	EGYPT	519	n/a	n/a	0	0	0
1434.216	n/a	WORD	717108	wordpools/wasnorm_wordpool_576.txt	LTP293	ltpFR2	12	7	TEMPLE	1448	n/a	n/a	0	0	0
1437.002	n/a	WORD	718501	wordpools/wasnorm_wordpool_576.txt	LTP293	ltpFR2	12	7	PACKAGE	997	n/a	n/a	0	0	0
1439.688	n/a	WORD	719844	wordpools/wasnorm_wordpool_576.txt	LTP293	ltpFR2	12	7	ARMY	39	n/a	n/a	0	0	0
1442.158	n/a	WORD	721079	wordpools/wasnorm_wordpool_576.txt	LTP293	ltpFR2	12	7	VELVET	1555	n/a	n/a	0	0	0
1444.626	n/a	WORD	722313	wordpools/wasnorm_wordpool_576.txt	LTP293	ltpFR2	12	7	FUNGUS	614	n/a	n/a	0	0	0
1447.212	n/a	WORD	723606	wordpools/wasnorm_wordpool_576.txt	LTP293	ltpFR2	12	7	PISTON	1076	n/a	n/a	0	0	0
1449.698	n/a	WORD	724849	wordpools/wasnorm_wordpool_576.txt	LTP293	ltpFR2	12	7	SANDWICH	1232	n/a	n/a	0	0	0
1452.3	n/a	WORD	726150	wordpools/wasnorm_wordpool_576.txt	LTP293	ltpFR2	12	7	DUSTPAN	509	n/a	n/a	0	0	0
1454.768	n/a	WORD	727384	wordpools/wasnorm_wordpool_576.txt	LTP293	ltpFR2	12	7	BRANDY	169	n/a	n/a	0	0	0
1457.554	n/a	WORD	728777	wordpools/wasnorm_wordpool_576.txt	LTP293	ltpFR2	12	7	ANTLER	29	n/a	n/a	0	0	0
1460.022	n/a	WORD	730011	wordpools/wasnorm_wordpool_576.txt	LTP293	ltpFR2	12	7	PEBBLE	1035	n/a	n/a	0	0	0
1462.792	n/a	WORD	731396	wordpools/wasnorm_wordpool_576.txt	LTP293	ltpFR2	12	7	LAVA	804	n/a	n/a	0	0	0
1465.344	n/a	WORD	732672	wordpools/wasnorm_wordpool_576.txt	LTP293	ltpFR2	12	7	MEAT	883	n/a	n/a	0	0	0
1468.146	n/a	WORD	734073	wordpools/wasnorm_wordpool_576.txt	LTP293	ltpFR2	12	7	FLASK	576	n/a	n/a	0	0	0
1470.88	n/a	WORD	735440	wordpools/wasnorm_wordpool_576.txt	LTP293	ltpFR2	12	7	CRIB	407	n/a	n/a	0	0	0
1472.5	n/a	START	736250	n/a	LTP293	ltpFR2	12	n/a	n/a	n/a	10	n/a	n/a	n/a	n/a
1473.648	n/a	DISTRACTOR	736824	n/a	LTP293	ltpFR2	12	7	n/a	n/a	n/a	n/a	0	0	0
1473.666	n/a	PROB	736833	n/a	LTP293	ltpFR2	12	n/a	n/a	n/a	10	14	1	8	5
1474.8	n/a	PROB	737400	n/a	LTP293	ltpFR2	12	n/a	n/a	n/a	10	24	8	9	7
1476.2	n/a	PROB	738100	n/a	LTP293	ltpFR2	12	n/a	n/a	n/a	10	19	1	9	9
1477.504	n/a	PROB	738752	n/a	LTP293	ltpFR2	12	n/a	n/a	n/a	10	17	7	3	7
1478.636	n/a	PROB	739318	n/a	LTP293	ltpFR2	12	n/a	n/a	n/a	10	15	6	2	7
1479.72	n/a	PROB	739860	n/a	LTP293	ltpFR2	12	n/a	n/a	n/a	10	9	2	4	3
1481.238	n/a	PROB	740619	n/a	LTP293	ltpFR2	12	n/a	n/a	n/a	10	17	9	6	2
1482.69	n/a	PROB	741345	n/a	LTP293	ltpFR2	12	n/a	n/a	n/a	10	19	5	6	8
1484.142	n/a	PROB	742071	n/a	LTP293	ltpFR2	12	n/a	n/a	n/a	10	13	4	2	7
1485.692	n/a	PROB	742846	n/a	LTP293	ltpFR2	12	n/a	n/a	n/a	10	27	9	9	9
1487.326	n/a	PROB	743663	n/a	LTP293	ltpFR2	12	n/a	n/a	n/a	10	14	2	8	4
1488.846	n/a	PROB	744423	n/a	LTP293	ltpFR2	12	n/a	n/a	n/a	10	17	6	7	4
1490.746	n/a	PROB	745373	n/a	LTP293	ltpFR2	12	n/a	n/a	n/a	10	19	4	9	6
1491.914	n/a	PROB	745957	n/a	LTP293	ltpFR2	12	n/a	n/a	n/a	10	16	9	4	3
1492.914	n/a	PROB	746457	n/a	LTP293	ltpFR2	12	n/a	n/a	n/a	10	10	1	2	7
1494.098	n/a	PROB	747049	n/a	LTP293	ltpFR2	12	n/a	n/a	n/a	10	20	8	3	9
1495.272	n/a	STOP	747636	n/a	LTP293	ltpFR2	12	n/a	n/a	n/a	10	n/a	n/a	n/a	n/a
1498.354	n/a	REC_START	749177	n/a	LTP293	ltpFR2	12	7	n/a	n/a	n/a	n/a	0	0	0
1498.778	n/a	REC_WORD	749389	wordpools/wasnorm_wordpool_576.txt	LTP293	ltpFR2	12	7	CRIB	407	n/a	n/a	0	0	0
1499.806	n/a	REC_WORD	749903	wordpools/wasnorm_wordpool_576.txt	LTP293	ltpFR2	12	7	MEAT	883	n/a	n/a	0	0	0
1500.67	n/a	REC_WORD	750335	wordpools/wasnorm_wordpool_576.txt	LTP293	ltpFR2	12	7	SANDWICH	1232	n/a	n/a	0	0	0
1502.264	n/a	REC_WORD	751132	wordpools/wasnorm_wordpool_576.txt	LTP293	ltpFR2	12	7	FLASK	576	n/a	n/a	0	0	0
1503.252	n/a	REC_WORD	751626	wordpools/wasnorm_wordpool_576.txt	LTP293	ltpFR2	12	7	BRANDY	169	n/a	n/a	0	0	0
1504.208	n/a	REC_WORD	752104	wordpools/wasnorm_wordpool_576.txt	LTP293	ltpFR2	12	7	KEEPER	769	n/a	n/a	0	0	0
1505.652	n/a	REC_WORD	752826	wordpools/wasnorm_wordpool_576.txt	LTP293	ltpFR2	12	7	SANDWICH	1232	n/a	n/a	0	0	0
1508.25	n/a	REC_WORD	754125	wordpools/wasnorm_wordpool_576.txt	LTP293	ltpFR2	12	7	SCULPTURE	1258	n/a	n/a	0	0	0
1512.038	n/a	REC_WORD	756019	wordpools/wasnorm_wordpool_576.txt	LTP293	ltpFR2	12	7	VELVET	1555	n/a	n/a	0	0	0
1513.26	n/a	REC_WORD	756630	wordpools/wasnorm_wordpool_576.txt	LTP293	ltpFR2	12	7	FUNGUS	614	n/a	n/a	0	0	0
1588.774	n/a	DISTRACTOR	794387	n/a	LTP293	ltpFR2	12	8	n/a	n/a	n/a	n/a	0	0	0
1588.776	n/a	START	794388	n/a	LTP293	ltpFR2	12	n/a	n/a	n/a	11	n/a	n/a	n/a	n/a
1588.79	n/a	PROB	794395	n/a	LTP293	ltpFR2	12	n/a	n/a	n/a	11	13	4	4	5
1591.242	n/a	PROB	795621	n/a	LTP293	ltpFR2	12	n/a	n/a	n/a	11	21	6	7	8
1592.61	n/a	PROB	796305	n/a	LTP293	ltpFR2	12	n/a	n/a	n/a	11	12	3	5	4
1593.878	n/a	PROB	796939	n/a	LTP293	ltpFR2	12	n/a	n/a	n/a	11	16	6	9	1
1595.03	n/a	PROB	797515	n/a	LTP293	ltpFR2	12	n/a	n/a	n/a	11	23	8	6	9
1596.112	n/a	PROB	798056	n/a	LTP293	ltpFR2	12	n/a	n/a	n/a	11	15	4	6	5
1598.548	n/a	PROB	799274	n/a	LTP293	ltpFR2	12	n/a	n/a	n/a	11	12	4	7	1
1599.948	n/a	PROB	799974	n/a	LTP293	ltpFR2	12	n/a	n/a	n/a	11	12	2	7	3
1602.702	n/a	PROB	801351	n/a	LTP293	ltpFR2	12	n/a	n/a	n/a	11	9	2	3	4
1604.786	n/a	PROB	802393	n/a	LTP293	ltpFR2	12	n/a	n/a	n/a	11	14	4	9	1
1605.92	n/a	PROB	802960	n/a	LTP293	ltpFR2	12	n/a	n/a	n/a	11	17	3	7	7
1607.072	n/a	PROB	803536	n/a	LTP293	ltpFR2	12	n/a	n/a	n/a	11	11	5	2	4
1608.622	n/a	PROB	804311	n/a	LTP293	ltpFR2	12	n/a	n/a	n/a	11	5	3	1	1
1609.508	n/a	PROB	804754	n/a	LTP293	ltpFR2	12	n/a	n/a	n/a	11	12	1	3	8
1612.308	n/a	STOP	806154	n/a	LTP293	ltpFR2	12	n/a	n/a	n/a	11	n/a	n/a	n/a	n/a
1613.722	n/a	WORD	806861	wordpools/wasnorm_wordpool_576.txt	LTP293	ltpFR2	12	8	COOKBOOK	373	n/a	n/a	0	0	0
1616.392	n/a	WORD	808196	wordpools/wasnorm_wordpool_576.txt	LTP293	ltpFR2	12	8	CUSTARD	429	n/a	n/a	0	0	0
1619.076	n/a	WORD	809538	wordpools/wasnorm_wordpool_576.txt	LTP293	ltpFR2	12	8	SERVER	1272	n/a	n/a	0	0	0
1621.868	n/a	WORD	810934	wordpools/wasnorm_wordpool_576.txt	LTP293	ltpFR2	12	8	WOMAN	1620	n/a	n/a	0	0	0
1624.486	n/a	WORD	812243	wordpools/wasnorm_wordpool_576.txt	LTP293	ltpFR2	12	8	BRANCH	168	n/a	n/a	0	0	0
1627.038	n/a	WORD	813519	wordpools/wasnorm_wordpool_576.txt	LTP293	ltpFR2	12	8	SMOG	1330	n/a	n/a	0	0	0
1629.502	n/a	WORD	814751	wordpools/wasnorm_wordpool_576.txt	LTP293	ltpFR2	12	8	FEMALE	559	n/a	n/a	0	0	0
1632.304	n/a	WORD	816152	wordpools/wasnorm_wordpool_576.txt	LTP293	ltpFR2	12	8	COCKTAIL	338	n/a	n/a	0	0	0
1634.956	n/a	WORD	817478	wordpools/wasnorm_wordpool_576.txt	LTP293	ltpFR2	12	8	LADDER	793	n/a	n/a	0	0	0
1637.496	n/a	WORD	818748	wordpools/wasnorm_wordpool_576.txt	LTP293	ltpFR2	12	8	SERVANT	1271	n/a	n/a	0	0	0
1640.044	n/a	WORD	820022	wordpools/wasnorm_wordpool_576.txt	LTP293	ltpFR2	12	8	WORKER	1621	n/a	n/a	0	0	0
1642.496	n/a	WORD	821248	wordpools/wasnorm_wordpool_576.txt	LTP293	ltpFR2	12	8	DRINK	498	n/a	n/a	0	0	0
1645.15	n/a	WORD	822575	wordpools/wasnorm_wordpool_576.txt	LTP293	ltpFR2	12	8	PEACH	1031	n/a	n/a	0	0	0
1647.566	n/a	WORD	823783	wordpools/wasnorm_wordpool_576.txt	LTP293	ltpFR2	12	8	SHIRT	1287	n/a	n/a	0	0	0
1650.17	n/a	WORD	825085	wordpools/wasnorm_wordpool_576.txt	LTP293	ltpFR2	12	8	IGLOO	734	n/a	n/a	0	0	0
1652.91	n/a	WORD	826455	wordpools/wasnorm_wordpool_576.txt	LTP293	ltpFR2	12	8	KLEENEX	782	n/a	n/a	0	0	0
1655.374	n/a	WORD	827687	wordpools/wasnorm_wordpool_576.txt	LTP293	ltpFR2	12	8	TEACHER	1440	n/a	n/a	0	0	0
1657.926	n/a	WORD	828963	wordpools/wasnorm_wordpool_576.txt	LTP293	ltpFR2	12	8	STUDENT	1395	n/a	n/a	0	0	0
1660.696	n/a	WORD	830348	wordpools/wasnorm_wordpool_576.txt	LTP293	ltpFR2	12	8	QUAIL	1147	n/a	n/a	0	0	0
1663.164	n/a	WORD	831582	wordpools/wasnorm_wordpool_576.txt	LTP293	ltpFR2	12	8	SUITCASE	1403	n/a	n/a	0	0	0
1666.0	n/a	WORD	833000	wordpools/wasnorm_wordpool_576.txt	LTP293	ltpFR2	12	8	PLIERS	1089	n/a	n/a	0	0	0
1668.686	n/a	WORD	834343	wordpools/wasnorm_wordpool_576.txt	LTP293	ltpFR2	12	8	BUTCHER	203	n/a	n/a	0	0	0
1671.206	n/a	WORD	835603	wordpools/wasnorm_wordpool_576.txt	LTP293	ltpFR2	12	8	EAGLE	512	n/a	n/a	0	0	0
1673.956	n/a	WORD	836978	wordpools/wasnorm_wordpool_576.txt	LTP293	ltpFR2	12	8	COBRA	336	n/a	n/a	0	0	0
1675.574	n/a	START	837787	n/a	LTP293	ltpFR2	12	n/a	n/a	n/a	12	n/a	n/a	n/a	n/a
1676.526	n/a	DISTRACTOR	838263	n/a	LTP293	ltpFR2	12	8	n/a	n/a	n/a	n/a	0	0	0
1676.542	n/a	PROB	838271	n/a	LTP293	ltpFR2	12	n/a	n/a	n/a	12	16	7	4	5
1678.328	n/a	PROB	839164	n/a	LTP293	ltpFR2	12	n/a	n/a	n/a	12	13	1	8	4
1679.446	n/a	PROB	839723	n/a	LTP293	ltpFR2	12	n/a	n/a	n/a	12	15	8	6	1
1680.962	n/a	PROB	840481	n/a	LTP293	ltpFR2	12	n/a	n/a	n/a	12	11	6	3	2
1682.164	n/a	PROB	841082	n/a	LTP293	ltpFR2	12	n/a	n/a	n/a	12	15	4	6	5
1683.348	n/a	PROB	841674	n/a	LTP293	ltpFR2	12	n/a	n/a	n/a	12	11	2	8	1
1684.4	n/a	PROB	842200	n/a	LTP293	ltpFR2	12	n/a	n/a	n/a	12	16	8	7	1
1685.666	n/a	PROB	842833	n/a	LTP293	ltpFR2	12	n/a	n/a	n/a	12	15	8	5	2
1687.036	n/a	PROB	843518	n/a	LTP293	ltpFR2	12	n/a	n/a	n/a	12	12	6	5	1
1688.552	n/a	PROB	844276	n/a	LTP293	ltpFR2	12	n/a	n/a	n/a	12	16	6	5	5
1689.804	n/a	PROB	844902	n/a	LTP293	ltpFR2	12	n/a	n/a	n/a	12	11	9	1	1
1690.87	n/a	PROB	845435	n/a	LTP293	ltpFR2	12	n/a	n/a	n/a	12	15	5	6	4
1691.974	n/a	PROB	845987	n/a	LTP293	ltpFR2	12	n/a	n/a	n/a	12	7	3	3	1
1693.372	n/a	PROB	846686	n/a	LTP293	ltpFR2	12	n/a	n/a	n/a	12	15	5	2	8
1694.49	n/a	PROB	847245	n/a	LTP293	ltpFR2	12	n/a	n/a	n/a	12	15	6	1	8
1696.274	n/a	PROB	848137	n/a	LTP293	ltpFR2	12	n/a	n/a	n/a	12	11	8	1	2
1698.646	n/a	STOP	849323	n/a	LTP293	ltpFR2	12	n/a	n/a	n/a	12	n/a	n/a	n/a	n/a
1701.43	n/a	REC_START	850715	n/a	LTP293	ltpFR2	12	8	n/a	n/a	n/a	n/a	0	0	0
1702.084	n/a	REC_WORD	851042	wordpools/wasnorm_wordpool_576.txt	LTP293	ltpFR2	12	8	EAGLE	512	n/a	n/a	0	0	0
1703.02	n/a	REC_WORD	851510	wordpools/wasnorm_wordpool_576.txt	LTP293	ltpFR2	12	8	COBRA	336	n/a	n/a	0	0	0
1704.11	n/a	REC_WORD	852055	wordpools/wasnorm_wordpool_576.txt	LTP293	ltpFR2	12	8	IGLOO	734	n/a	n/a	0	0	0
1705.09	n/a	REC_WORD	852545	wordpools/wasnorm_wordpool_576.txt	LTP293	ltpFR2	12	8	SMOG	1330	n/a	n/a	0	0	0
1706.382	n/a	REC_WORD	853191	wordpools/wasnorm_wordpool_576.txt	LTP293	ltpFR2	12	8	TEACHER	1440	n/a	n/a	0	0	0
1707.396	n/a	REC_WORD	853698	wordpools/wasnorm_wordpool_576.txt	LTP293	ltpFR2	12	8	STUDENT	1395	n/a	n/a	0	0	0
1708.612	n/a	REC_WORD	854306	wordpools/wasnorm_wordpool_576.txt	LTP293	ltpFR2	12	8	SERVER	1272	n/a	n/a	0	0	0
1709.858	n/a	REC_WORD	854929	wordpools/wasnorm_wordpool_576.txt	LTP293	ltpFR2	12	8	SERVANT	1271	n/a	n/a	0	0	0
1711.012	n/a	REC_WORD	855506	wordpools/wasnorm_wordpool_576.txt	LTP293	ltpFR2	12	8	WORKER	1621	n/a	n/a	0	0	0
1712.356	n/a	REC_WORD	856178	wordpools/wasnorm_wordpool_576.txt	LTP293	ltpFR2	12	8	FEMALE	559	n/a	n/a	0	0	0
1714.088	n/a	REC_WORD	857044	wordpools/wasnorm_wordpool_576.txt	LTP293	ltpFR2	12	8	WOMAN	1620	n/a	n/a	0	0	0
1716.192	n/a	REC_WORD	858096	wordpools/wasnorm_wordpool_576.txt	LTP293	ltpFR2	12	8	COCKTAIL	338	n/a	n/a	0	0	0
1717.264	n/a	REC_WORD	858632	wordpools/wasnorm_wordpool_576.txt	LTP293	ltpFR2	12	8	DRINK	498	n/a	n/a	0	0	0
1718.148	n/a	REC_WORD	859074	wordpools/wasnorm_wordpool_576.txt	LTP293	ltpFR2	12	8	PEACH	1031	n/a	n/a	0	0	0
1719.95	n/a	REC_WORD	859975	wordpools/wasnorm_wordpool_576.txt	LTP293	ltpFR2	12	8	CUSTARD	429	n/a	n/a	0	0	0
1720.902	n/a	REC_WORD	860451	wordpools/wasnorm_wordpool_576.txt	LTP293	ltpFR2	12	8	COOKBOOK	373	n/a	n/a	0	0	0
1777.964	n/a	REST_REWET	888982	n/a	LTP293	ltpFR2	12	8	n/a	n/a	n/a	n/a	0	0	0
2011.692	n/a	WORD	1005846	wordpools/wasnorm_wordpool_576.txt	LTP293	ltpFR2	12	9	LAGOON	795	n/a	n/a	0	0	0
2014.212	n/a	WORD	1007106	wordpools/wasnorm_wordpool_576.txt	LTP293	ltpFR2	12	9	EXPERT	543	n/a	n/a	0	0	0
2016.948	n/a	WORD	1008474	wordpools/wasnorm_wordpool_576.txt	LTP293	ltpFR2	12	9	CHEST	295	n/a	n/a	0	0	0
2019.716	n/a	WORD	1009858	wordpools/wasnorm_wordpool_576.txt	LTP293	ltpFR2	12	9	GRIZZLY	662	n/a	n/a	0	0	0
2022.502	n/a	WORD	1011251	wordpools/wasnorm_wordpool_576.txt	LTP293	ltpFR2	12	9	TWEEZERS	1526	n/a	n/a	0	0	0
2025.236	n/a	WORD	1012618	wordpools/wasnorm_wordpool_576.txt	LTP293	ltpFR2	12	9	CLOTHES	327	n/a	n/a	0	0	0
2027.872	n/a	WORD	1013936	wordpools/wasnorm_wordpool_576.txt	LTP293	ltpFR2	12	9	DRESSER	496	n/a	n/a	0	0	0
2030.374	n/a	WORD	1015187	wordpools/wasnorm_wordpool_576.txt	LTP293	ltpFR2	12	9	ATOM	55	n/a	n/a	0	0	0
2032.976	n/a	WORD	1016488	wordpools/wasnorm_wordpool_576.txt	LTP293	ltpFR2	12	9	SHELTER	1282	n/a	n/a	0	0	0
2035.452	n/a	WORD	1017726	wordpools/wasnorm_wordpool_576.txt	LTP293	ltpFR2	12	9	SLIDE	1326	n/a	n/a	0	0	0
2038.12	n/a	WORD	1019060	wordpools/wasnorm_wordpool_576.txt	LTP293	ltpFR2	12	9	SIDEWALK	1303	n/a	n/a	0	0	0
2040.856	n/a	WORD	1020428	wordpools/wasnorm_wordpool_576.txt	LTP293	ltpFR2	12	9	TUTU	1524	n/a	n/a	0	0	0
2043.552	n/a	WORD	1021776	wordpools/wasnorm_wordpool_576.txt	LTP293	ltpFR2	12	9	WAITER	1580	n/a	n/a	0	0	0
2046.07	n/a	WORD	1023035	wordpools/wasnorm_wordpool_576.txt	LTP293	ltpFR2	12	9	BULLET	194	n/a	n/a	0	0	0
2048.556	n/a	WORD	1024278	wordpools/wasnorm_wordpool_576.txt	LTP293	ltpFR2	12	9	DRESS	495	n/a	n/a	0	0	0
2051.366	n/a	WORD	1025683	wordpools/wasnorm_wordpool_576.txt	LTP293	ltpFR2	12	9	PROTON	1132	n/a	n/a	0	0	0
2054.01	n/a	WORD	1027005	wordpools/wasnorm_wordpool_576.txt	LTP293	ltpFR2	12	9	PLUTO	1092	n/a	n/a	0	0	0
2056.828	n/a	WORD	1028414	wordpools/wasnorm_wordpool_576.txt	LTP293	ltpFR2	12	9	ATLAS	53	n/a	n/a	0	0	0
2059.448	n/a	WORD	1029724	wordpools/wasnorm_wordpool_576.txt	LTP293	ltpFR2	12	9	COSTUME	383	n/a	n/a	0	0	0
2062.0	n/a	WORD	1031000	wordpools/wasnorm_wordpool_576.txt	LTP293	ltpFR2	12	9	OX	994	n/a	n/a	0	0	0
2064.584	n/a	WORD	1032292	wordpools/wasnorm_wordpool_576.txt	LTP293	ltpFR2	12	9	HIGHWAY	707	n/a	n/a	0	0	0
2067.236	n/a	WORD	1033618	wordpools/wasnorm_wordpool_576.txt	LTP293	ltpFR2	12	9	GRAVEL	659	n/a	n/a	0	0	0
2070.022	n/a	WORD	1035011	wordpools/wasnorm_wordpool_576.txt	LTP293	ltpFR2	12	9	BISON	131	n/a	n/a	0	0	0
2072.834	n/a	WORD	1036417	wordpools/wasnorm_wordpool_576.txt	LTP293	ltpFR2	12	9	GARLIC	624	n/a	n/a	0	0	0
2074.444	n/a	START	1037222	n/a	LTP293	ltpFR2	12	n/a	n/a	n/a	13	n/a	n/a	n/a	n/a
2075.448	n/a	DISTRACTOR	1037724	n/a	LTP293	ltpFR2	12	9	n/a	n/a	n/a	n/a	0	0	0
2075.452	n/a	PROB	1037726	n/a	LTP293	ltpFR2	12	n/a	n/a	n/a	13	21	6	8	7
2076.794	n/a	PROB	1038397	n/a	LTP293	ltpFR2	12	n/a	n/a	n/a	13	11	2	8	1
2077.944	n/a	PROB	1038972	n/a	LTP293	ltpFR2	12	n/a	n/a	n/a	13	16	2	9	5
2079.094	n/a	PROB	1039547	n/a	LTP293	ltpFR2	12	n/a	n/a	n/a	13	15	6	7	2
2081.014	n/a	PROB	1040507	n/a	LTP293	ltpFR2	12	n/a	n/a	n/a	13	21	4	9	8
2083.266	n/a	PROB	1041633	n/a	LTP293	ltpFR2	12	n/a	n/a	n/a	13	20	5	9	6
2084.684	n/a	PROB	1042342	n/a	LTP293	ltpFR2	12	n/a	n/a	n/a	13	17	6	9	2
2086.384	n/a	PROB	1043192	n/a	LTP293	ltpFR2	12	n/a	n/a	n/a	13	14	6	7	1
2087.652	n/a	PROB	1043826	n/a	LTP293	ltpFR2	12	n/a	n/a	n/a	13	18	4	5	9
2089.052	n/a	PROB	1044526	n/a	LTP293	ltpFR2	12	n/a	n/a	n/a	13	19	9	6	4
2090.354	n/a	PROB	1045177	n/a	LTP293	ltpFR2	12	n/a	n/a	n/a	13	18	1	8	9
2091.422	n/a	PROB	1045711	n/a	LTP293	ltpFR2	12	n/a	n/a	n/a	13	15	7	6	2
2092.924	n/a	PROB	1046462	n/a	LTP293	ltpFR2	12	n/a	n/a	n/a	13	17	2	7	8
2095.24	n/a	PROB	1047620	n/a	LTP293	ltpFR2	12	n/a	n/a	n/a	13	14	7	5	2
2096.71	n/a	PROB	1048355	n/a	LTP293	ltpFR2	12	n/a	n/a	n/a	13	9	5	3	1
2097.89	n/a	STOP	1048945	n/a	LTP293	ltpFR2	12	n/a	n/a	n/a	13	n/a	n/a	n/a	n/a
2100.264	n/a	REC_START	1050132	n/a	LTP293	ltpFR2	12	9	n/a	n/a	n/a	n/a	0	0	0
2100.672	n/a	REC_WORD	1050336	wordpools/wasnorm_wordpool_576.txt	LTP293	ltpFR2	12	9	GARLIC	624	n/a	n/a	0	0	0
2101.904	n/a	REC_WORD	1050952	wordpools/wasnorm_wordpool_576.txt	LTP293	ltpFR2	12	9	COSTUME	383	n/a	n/a	0	0	0
2103.37	n/a	REC_WORD	1051685	wordpools/wasnorm_wordpool_576.txt	LTP293	ltpFR2	12	9	OX	994	n/a	n/a	0	0	0
2104.502	n/a	REC_WORD	1052251	wordpools/wasnorm_wordpool_576.txt	LTP293	ltpFR2	12	9	BISON	131	n/a	n/a	0	0	0
2105.556	n/a	REC_WORD	1052778	wordpools/wasnorm_wordpool_576.txt	LTP293	ltpFR2	12	9	SIDEWALK	1303	n/a	n/a	0	0	0
2107.008	n/a	REC_WORD	1053504	wordpools/wasnorm_wordpool_576.txt	LTP293	ltpFR2	12	9	GRAVEL	659	n/a	n/a	0	0	0
2108.196	n/a	REC_WORD	1054098	wordpools/wasnorm_wordpool_576.txt	LTP293	ltpFR2	12	9	EXPERT	543	n/a	n/a	0	0	0
2109.498	n/a	REC_WORD	1054749	wordpools/wasnorm_wordpool_576.txt	LTP293	ltpFR2	12	9	CHEST	295	n/a	n/a	0	0	0
2110.666	n/a	REC_WORD	1055333	wordpools/wasnorm_wordpool_576.txt	LTP293	ltpFR2	12	9	GRIZZLY	662	n/a	n/a	0	0	0
2111.788	n/a	REC_WORD	1055894	wordpools/wasnorm_wordpool_576.txt	LTP293	ltpFR2	12	9	TWEEZERS	1526	n/a	n/a	0	0	0
2138.172	n/a	REC_WORD	1069086	wordpools/wasnorm_wordpool_576.txt	LTP293	ltpFR2	12	9	ATOM	55	n/a	n/a	0	0	0
2139.47	n/a	REC_WORD	1069735	wordpools/wasnorm_wordpool_576.txt	LTP293	ltpFR2	12	9	PROTON	1132	n/a	n/a	0	0	0
2146.522	n/a	REC_WORD	1073261	wordpools/wasnorm_wordpool_576.txt	LTP293	ltpFR2	12	9	SLIDE	1326	n/a	n/a	0	0	0
2164.994	n/a	REC_WORD	1082497	wordpools/wasnorm_wordpool_576.txt	LTP293	ltpFR2	12	9	ATLAS	53	n/a	n/a	0	0	0
2190.72	n/a	DISTRACTOR	1095360	n/a	LTP293	ltpFR2	12	10	n/a	n/a	n/a	n/a	0	0	0
2190.72	n/a	START	1095360	n/a	LTP293	ltpFR2	12	n/a	n/a	n/a	14	n/a	n/a	n/a	n/a
2190.734	n/a	PROB	1095367	n/a	LTP293	ltpFR2	12	n/a	n/a	n/a	14	10	8	1	1
2192.334	n/a	PROB	1096167	n/a	LTP293	ltpFR2	12	n/a	n/a	n/a	14	10	6	3	1
2193.584	n/a	PROB	1096792	n/a	LTP293	ltpFR2	12	n/a	n/a	n/a	14	10	4	4	2
2194.636	n/a	PROB	1097318	n/a	LTP293	ltpFR2	12	n/a	n/a	n/a	14	15	7	7	1
2195.704	n/a	PROB	1097852	n/a	LTP293	ltpFR2	12	n/a	n/a	n/a	14	7	5	1	1
2196.738	n/a	PROB	1098369	n/a	LTP293	ltpFR2	12	n/a	n/a	n/a	14	14	4	2	8
2197.84	n/a	PROB	1098920	n/a	LTP293	ltpFR2	12	n/a	n/a	n/a	14	13	7	1	5
2199.008	n/a	PROB	1099504	n/a	LTP293	ltpFR2	12	n/a	n/a	n/a	14	9	4	1	4
2200.324	n/a	PROB	1100162	n/a	LTP293	ltpFR2	12	n/a	n/a	n/a	14	17	6	5	6
2201.492	n/a	PROB	1100746	n/a	LTP293	ltpFR2	12	n/a	n/a	n/a	14	19	7	8	4
2203.06	n/a	PROB	1101530	n/a	LTP293	ltpFR2	12	n/a	n/a	n/a	14	12	8	2	2
2204.26	n/a	PROB	1102130	n/a	LTP293	ltpFR2	12	n/a	n/a	n/a	14	15	5	7	3
2205.428	n/a	PROB	1102714	n/a	LTP293	ltpFR2	12	n/a	n/a	n/a	14	19	9	5	5
2206.562	n/a	PROB	1103281	n/a	LTP293	ltpFR2	12	n/a	n/a	n/a	14	12	3	1	8
2208.18	n/a	PROB	1104090	n/a	LTP293	ltpFR2	12	n/a	n/a	n/a	14	17	6	6	5
2209.35	n/a	PROB	1104675	n/a	LTP293	ltpFR2	12	n/a	n/a	n/a	14	13	8	2	3
2210.648	n/a	PROB	1105324	n/a	LTP293	ltpFR2	12	n/a	n/a	n/a	14	18	8	4	6
2211.834	n/a	PROB	1105917	n/a	LTP293	ltpFR2	12	n/a	n/a	n/a	14	13	8	1	5
2213.084	n/a	PROB	1106542	n/a	LTP293	ltpFR2	12	n/a	n/a	n/a	14	10	4	1	5
2214.502	n/a	STOP	1107251	n/a	LTP293	ltpFR2	12	n/a	n/a	n/a	14	n/a	n/a	n/a	n/a
2215.572	n/a	WORD	1107786	wordpools/wasnorm_wordpool_576.txt	LTP293	ltpFR2	12	10	BODY	145	n/a	n/a	0	0	0
2218.056	n/a	WORD	1109028	wordpools/wasnorm_wordpool_576.txt	LTP293	ltpFR2	12	10	EMPIRE	530	n/a	n/a	0	0	0
2220.846	n/a	WORD	1110423	wordpools/wasnorm_wordpool_576.txt	LTP293	ltpFR2	12	10	PIANO	1057	n/a	n/a	0	0	0
2223.428	n/a	WORD	1111714	wordpools/wasnorm_wordpool_576.txt	LTP293	ltpFR2	12	10	DENIM	446	n/a	n/a	0	0	0
2226.232	n/a	WORD	1113116	wordpools/wasnorm_wordpool_576.txt	LTP293	ltpFR2	12	10	MARINE	869	n/a	n/a	0	0	0
2228.78	n/a	WORD	1114390	wordpools/wasnorm_wordpool_576.txt	LTP293	ltpFR2	12	10	STATUE	1374	n/a	n/a	0	0	0
2231.2	n/a	WORD	1115600	wordpools/wasnorm_wordpool_576.txt	LTP293	ltpFR2	12	10	PATROL	1027	n/a	n/a	0	0	0
2233.852	n/a	WORD	1116926	wordpools/wasnorm_wordpool_576.txt	LTP293	ltpFR2	12	10	CONCERT	360	n/a	n/a	0	0	0
2236.554	n/a	WORD	1118277	wordpools/wasnorm_wordpool_576.txt	LTP293	ltpFR2	12	10	STREAM	1392	n/a	n/a	0	0	0
2239.222	n/a	WORD	1119611	wordpools/wasnorm_wordpool_576.txt	LTP293	ltpFR2	12	10	BOUQUET	157	n/a	n/a	0	0	0
2241.662	n/a	WORD	1120831	wordpools/wasnorm_wordpool_576.txt	LTP293	ltpFR2	12	10	LIPSTICK	829	n/a	n/a	0	0	0
2244.41	n/a	WORD	1122205	wordpools/wasnorm_wordpool_576.txt	LTP293	ltpFR2	12	10	CLAM	315	n/a	n/a	0	0	0
2247.08	n/a	WORD	1123540	wordpools/wasnorm_wordpool_576.txt	LTP293	ltpFR2	12	10	MOTOR	922	n/a	n/a	0	0	0
2249.688	n/a	WORD	1124844	wordpools/wasnorm_wordpool_576.txt	LTP293	ltpFR2	12	10	WAGON	1578	n/a	n/a	0	0	0
2252.418	n/a	WORD	1126209	wordpools/wasnorm_wordpool_576.txt	LTP293	ltpFR2	12	10	FRAGRANCE	599	n/a	n/a	0	0	0
2255.17	n/a	WORD	1127585	wordpools/wasnorm_wordpool_576.txt	LTP293	ltpFR2	12	10	FOOTBALL	591	n/a	n/a	0	0	0
2257.704	n/a	WORD	1128852	wordpools/wasnorm_wordpool_576.txt	LTP293	ltpFR2	12	10	JURY	766	n/a	n/a	0	0	0
2260.306	n/a	WORD	1130153	wordpools/wasnorm_wordpool_576.txt	LTP293	ltpFR2	12	10	WITNESS	1618	n/a	n/a	0	0	0
2262.764	n/a	WORD	1131382	wordpools/wasnorm_wordpool_576.txt	LTP293	ltpFR2	12	10	CRAYON	401	n/a	n/a	0	0	0
2265.31	n/a	WORD	1132655	wordpools/wasnorm_wordpool_576.txt	LTP293	ltpFR2	12	10	SURVEY	1414	n/a	n/a	0	0	0
2267.818	n/a	WORD	1133909	wordpools/wasnorm_wordpool_576.txt	LTP293	ltpFR2	12	10	LEG	809	n/a	n/a	0	0	0
2270.388	n/a	WORD	1135194	wordpools/wasnorm_wordpool_576.txt	LTP293	ltpFR2	12	10	BOARD	143	n/a	n/a	0	0	0
2272.982	n/a	WORD	1136491	wordpools/wasnorm_wordpool_576.txt	LTP293	ltpFR2	12	10	SHORTS	1293	n/a	n/a	0	0	0
2275.584	n/a	WORD	1137792	wordpools/wasnorm_wordpool_576.txt	LTP293	ltpFR2	12	10	YACHT	1629	n/a	n/a	0	0	0
2277.194	n/a	START	1138597	n/a	LTP293	ltpFR2	12	n/a	n/a	n/a	15	n/a	n/a	n/a	n/a
2278.28	n/a	DISTRACTOR	1139140	n/a	LTP293	ltpFR2	12	10	n/a	n/a	n/a	n/a	0	0	0
2278.286	n/a	PROB	1139143	n/a	LTP293	ltpFR2	12	n/a	n/a	n/a	15	17	4	7	6
2279.454	n/a	PROB	1139727	n/a	LTP293	ltpFR2	12	n/a	n/a	n/a	15	12	2	2	8
2280.524	n/a	PROB	1140262	n/a	LTP293	ltpFR2	12	n/a	n/a	n/a	15	20	9	6	5
2281.656	n/a	PROB	1140828	n/a	LTP293	ltpFR2	12	n/a	n/a	n/a	15	17	9	1	7
2282.724	n/a	PROB	1141362	n/a	LTP293	ltpFR2	12	n/a	n/a	n/a	15	19	5	8	6
2285.542	n/a	PROB	1142771	n/a	LTP293	ltpFR2	12	n/a	n/a	n/a	15	20	8	6	6
2286.844	n/a	PROB	1143422	n/a	LTP293	ltpFR2	12	n/a	n/a	n/a	15	14	3	3	8
2287.912	n/a	PROB	1143956	n/a	LTP293	ltpFR2	12	n/a	n/a	n/a	15	25	9	9	7
2289.096	n/a	PROB	1144548	n/a	LTP293	ltpFR2	12	n/a	n/a	n/a	15	11	2	4	5
2290.28	n/a	PROB	1145140	n/a	LTP293	ltpFR2	12	n/a	n/a	n/a	15	15	3	4	8
2292.38	n/a	PROB	1146190	n/a	LTP293	ltpFR2	12	n/a	n/a	n/a	15	19	9	7	3
2293.484	n/a	PROB	1146742	n/a	LTP293	ltpFR2	12	n/a	n/a	n/a	15	18	7	3	8
2295.1	n/a	PROB	1147550	n/a	LTP293	ltpFR2	12	n/a	n/a	n/a	15	8	1	1	6
2295.984	n/a	PROB	1147992	n/a	LTP293	ltpFR2	12	n/a	n/a	n/a	15	7	1	4	2
2297.986	n/a	PROB	1148993	n/a	LTP293	ltpFR2	12	n/a	n/a	n/a	15	13	1	3	9
2299.204	n/a	PROB	1149602	n/a	LTP293	ltpFR2	12	n/a	n/a	n/a	15	25	6	9	8
2300.864	n/a	STOP	1150432	n/a	LTP293	ltpFR2	12	n/a	n/a	n/a	15	n/a	n/a	n/a	n/a
2303.006	n/a	REC_START	1151503	n/a	LTP293	ltpFR2	12	10	n/a	n/a	n/a	n/a	0	0	0
2303.482	n/a	REC_WORD	1151741	wordpools/wasnorm_wordpool_576.txt	LTP293	ltpFR2	12	10	YACHT	1629	n/a	n/a	0	0	0
2304.512	n/a	REC_WORD	1152256	wordpools/wasnorm_wordpool_576.txt	LTP293	ltpFR2	12	10	SHORTS	1293	n/a	n/a	0	0	0
2305.756	n/a	REC_WORD	1152878	wordpools/wasnorm_wordpool_576.txt	LTP293	ltpFR2	12	10	DENIM	446	n/a	n/a	0	0	0
2306.852	n/a	REC_WORD	1153426	wordpools/wasnorm_wordpool_576.txt	LTP293	ltpFR2	12	10	MARINE	869	n/a	n/a	0	0	0
2308.066	n/a	REC_WORD	1154033	wordpools/wasnorm_wordpool_576.txt	LTP293	ltpFR2	12	10	BOARD	143	n/a	n/a	0	0	0
2309.142	n/a	REC_WORD	1154571	wordpools/wasnorm_wordpool_576.txt	LTP293	ltpFR2	12	10	SURVEY	1414	n/a	n/a	0	0	0
2310.416	n/a	REC_WORD	1155208	wordpools/wasnorm_wordpool_576.txt	LTP293	ltpFR2	12	10	PIANO	1057	n/a	n/a	0	0	0
2312.642	n/a	REC_WORD	1156321	wordpools/wasnorm_wordpool_576.txt	LTP293	ltpFR2	12	10	BODY	145	n/a	n/a	0	0	0
2314.37	n/a	REC_WORD	1157185	wordpools/wasnorm_wordpool_576.txt	LTP293	ltpFR2	12	10	FOOTBALL	591	n/a	n/a	0	0	0
2316.764	n/a	REC_WORD	1158382	wordpools/wasnorm_wordpool_576.txt	LTP293	ltpFR2	12	10	JURY	766	n/a	n/a	0	0	0
2318.272	n/a	REC_WORD	1159136	wordpools/wasnorm_wordpool_576.txt	LTP293	ltpFR2	12	10	CONCERT	360	n/a	n/a	0	0	0
2393.46	n/a	DISTRACTOR	1196730	n/a	LTP293	ltpFR2	12	11	n/a	n/a	n/a	n/a	0	0	0
2393.46	n/a	START	1196730	n/a	LTP293	ltpFR2	12	n/a	n/a	n/a	16	n/a	n/a	n/a	n/a
2393.478	n/a	PROB	1196739	n/a	LTP293	ltpFR2	12	n/a	n/a	n/a	16	19	6	5	8
2397.064	n/a	PROB	1198532	n/a	LTP293	ltpFR2	12	n/a	n/a	n/a	16	15	3	4	8
2398.032	n/a	PROB	1199016	n/a	LTP293	ltpFR2	12	n/a	n/a	n/a	16	14	3	7	4
2399.434	n/a	PROB	1199717	n/a	LTP293	ltpFR2	12	n/a	n/a	n/a	16	19	7	5	7
2400.882	n/a	PROB	1200441	n/a	LTP293	ltpFR2	12	n/a	n/a	n/a	16	21	6	7	8
2402.268	n/a	PROB	1201134	n/a	LTP293	ltpFR2	12	n/a	n/a	n/a	16	19	5	5	9
2403.586	n/a	PROB	1201793	n/a	LTP293	ltpFR2	12	n/a	n/a	n/a	16	7	3	1	3
2405.188	n/a	PROB	1202594	n/a	LTP293	ltpFR2	12	n/a	n/a	n/a	16	11	3	3	5
2406.586	n/a	PROB	1203293	n/a	LTP293	ltpFR2	12	n/a	n/a	n/a	16	8	5	1	2
2408.158	n/a	PROB	1204079	n/a	LTP293	ltpFR2	12	n/a	n/a	n/a	16	23	8	6	9
2409.34	n/a	PROB	1204670	n/a	LTP293	ltpFR2	12	n/a	n/a	n/a	16	23	7	9	7
2410.39	n/a	PROB	1205195	n/a	LTP293	ltpFR2	12	n/a	n/a	n/a	16	14	1	6	7
2411.476	n/a	PROB	1205738	n/a	LTP293	ltpFR2	12	n/a	n/a	n/a	16	15	3	8	4
2413.344	n/a	PROB	1206672	n/a	LTP293	ltpFR2	12	n/a	n/a	n/a	16	20	8	6	6
2414.38	n/a	PROB	1207190	n/a	LTP293	ltpFR2	12	n/a	n/a	n/a	16	14	6	4	4
2415.362	n/a	PROB	1207681	n/a	LTP293	ltpFR2	12	n/a	n/a	n/a	16	15	2	6	7
2416.62	n/a	STOP	1208310	n/a	LTP293	ltpFR2	12	n/a	n/a	n/a	16	n/a	n/a	n/a	n/a
2418.684	n/a	WORD	1209342	wordpools/wasnorm_wordpool_576.txt	LTP293	ltpFR2	12	11	ISLAND	745	n/a	n/a	0	0	0
2421.218	n/a	WORD	1210609	wordpools/wasnorm_wordpool_576.txt	LTP293	ltpFR2	12	11	LUGGAGE	847	n/a	n/a	0	0	0
2423.836	n/a	WORD	1211918	wordpools/wasnorm_wordpool_576.txt	LTP293	ltpFR2	12	11	PERCH	1048	n/a	n/a	0	0	0
2426.572	n/a	WORD	1213286	wordpools/wasnorm_wordpool_576.txt	LTP293	ltpFR2	12	11	SCISSORS	1250	n/a	n/a	0	0	0
2429.074	n/a	WORD	1214537	wordpools/wasnorm_wordpool_576.txt	LTP293	ltpFR2	12	11	NOTEBOOK	959	n/a	n/a	0	0	0
2431.692	n/a	WORD	1215846	wordpools/wasnorm_wordpool_576.txt	LTP293	ltpFR2	12	11	SEAGULL	1261	n/a	n/a	0	0	0
2434.128	n/a	WORD	1217064	wordpools/wasnorm_wordpool_576.txt	LTP293	ltpFR2	12	11	HORNET	718	n/a	n/a	0	0	0
2436.762	n/a	WORD	1218381	wordpools/wasnorm_wordpool_576.txt	LTP293	ltpFR2	12	11	PARSLEY	1016	n/a	n/a	0	0	0
2439.382	n/a	WORD	1219691	wordpools/wasnorm_wordpool_576.txt	LTP293	ltpFR2	12	11	RAFT	1159	n/a	n/a	0	0	0
2442.15	n/a	WORD	1221075	wordpools/wasnorm_wordpool_576.txt	LTP293	ltpFR2	12	11	COUNTY	389	n/a	n/a	0	0	0
2444.768	n/a	WORD	1222384	wordpools/wasnorm_wordpool_576.txt	LTP293	ltpFR2	12	11	FLOWER	584	n/a	n/a	0	0	0
2447.522	n/a	WORD	1223761	wordpools/wasnorm_wordpool_576.txt	LTP293	ltpFR2	12	11	WRIST	1626	n/a	n/a	0	0	0
2450.306	n/a	WORD	1225153	wordpools/wasnorm_wordpool_576.txt	LTP293	ltpFR2	12	11	LOFT	840	n/a	n/a	0	0	0
2452.942	n/a	WORD	1226471	wordpools/wasnorm_wordpool_576.txt	LTP293	ltpFR2	12	11	CRITIC	410	n/a	n/a	0	0	0
2455.478	n/a	WORD	1227739	wordpools/wasnorm_wordpool_576.txt	LTP293	ltpFR2	12	11	POPCORN	1104	n/a	n/a	0	0	0
2458.096	n/a	WORD	1229048	wordpools/wasnorm_wordpool_576.txt	LTP293	ltpFR2	12	11	COCOON	339	n/a	n/a	0	0	0
2460.752	n/a	WORD	1230376	wordpools/wasnorm_wordpool_576.txt	LTP293	ltpFR2	12	11	GLASS	639	n/a	n/a	0	0	0
2463.552	n/a	WORD	1231776	wordpools/wasnorm_wordpool_576.txt	LTP293	ltpFR2	12	11	ACTOR	5	n/a	n/a	0	0	0
2466.036	n/a	WORD	1233018	wordpools/wasnorm_wordpool_576.txt	LTP293	ltpFR2	12	11	LETTUCE	814	n/a	n/a	0	0	0
2468.772	n/a	WORD	1234386	wordpools/wasnorm_wordpool_576.txt	LTP293	ltpFR2	12	11	SWORD	1423	n/a	n/a	0	0	0
2471.506	n/a	WORD	1235753	wordpools/wasnorm_wordpool_576.txt	LTP293	ltpFR2	12	11	CLAMP	316	n/a	n/a	0	0	0
2474.012	n/a	WORD	1237006	wordpools/wasnorm_wordpool_576.txt	LTP293	ltpFR2	12	11	SHOULDER	1294	n/a	n/a	0	0	0
2476.46	n/a	WORD	1238230	wordpools/wasnorm_wordpool_576.txt	LTP293	ltpFR2	12	11	DONKEY	484	n/a	n/a	0	0	0
2479.13	n/a	WORD	1239565	wordpools/wasnorm_wordpool_576.txt	LTP293	ltpFR2	12	11	STALLION	1369	n/a	n/a	0	0	0
2480.736	n/a	START	1240368	n/a	LTP293	ltpFR2	12	n/a	n/a	n/a	17	n/a	n/a	n/a	n/a
2481.55	n/a	DISTRACTOR	1240775	n/a	LTP293	ltpFR2	12	11	n/a	n/a	n/a	n/a	0	0	0
2481.566	n/a	PROB	1240783	n/a	LTP293	ltpFR2	12	n/a	n/a	n/a	17	9	3	5	1
2483.082	n/a	PROB	1241541	n/a	LTP293	ltpFR2	12	n/a	n/a	n/a	17	19	7	4	8
2484.684	n/a	PROB	1242342	n/a	LTP293	ltpFR2	12	n/a	n/a	n/a	17	19	7	3	9
2486.086	n/a	PROB	1243043	n/a	LTP293	ltpFR2	12	n/a	n/a	n/a	17	16	4	5	7
2488.02	n/a	PROB	1244010	n/a	LTP293	ltpFR2	12	n/a	n/a	n/a	17	17	7	6	4
2489.404	n/a	PROB	1244702	n/a	LTP293	ltpFR2	12	n/a	n/a	n/a	17	12	4	7	1
2490.636	n/a	PROB	1245318	n/a	LTP293	ltpFR2	12	n/a	n/a	n/a	17	9	2	3	4
2492.256	n/a	PROB	1246128	n/a	LTP293	ltpFR2	12	n/a	n/a	n/a	17	24	9	7	8
2493.44	n/a	PROB	1246720	n/a	LTP293	ltpFR2	12	n/a	n/a	n/a	17	11	9	1	1
2494.442	n/a	PROB	1247221	n/a	LTP293	ltpFR2	12	n/a	n/a	n/a	17	10	3	5	2
2495.976	n/a	PROB	1247988	n/a	LTP293	ltpFR2	12	n/a	n/a	n/a	17	16	4	5	7
2497.91	n/a	PROB	1248955	n/a	LTP293	ltpFR2	12	n/a	n/a	n/a	17	18	8	8	2
2499.328	n/a	PROB	1249664	n/a	LTP293	ltpFR2	12	n/a	n/a	n/a	17	6	1	3	2
2500.796	n/a	PROB	1250398	n/a	LTP293	ltpFR2	12	n/a	n/a	n/a	17	20	7	6	9
2502.498	n/a	PROB	1251249	n/a	LTP293	ltpFR2	12	n/a	n/a	n/a	17	16	2	8	6
2504.238	n/a	STOP	1252119	n/a	LTP293	ltpFR2	12	n/a	n/a	n/a	17	n/a	n/a	n/a	n/a
2506.67	n/a	REC_START	1253335	n/a	LTP293	ltpFR2	12	11	n/a	n/a	n/a	n/a	0	0	0
2507.09	n/a	REC_WORD	1253545	wordpools/wasnorm_wordpool_576.txt	LTP293	ltpFR2	12	11	STALLION	1369	n/a	n/a	0	0	0
2508.358	n/a	REC_WORD	1254179	wordpools/wasnorm_wordpool_576.txt	LTP293	ltpFR2	12	11	DONKEY	484	n/a	n/a	0	0	0
2509.48	n/a	REC_WORD	1254740	wordpools/wasnorm_wordpool_576.txt	LTP293	ltpFR2	12	11	RAFT	1159	n/a	n/a	0	0	0
2510.602	n/a	REC_WORD	1255301	wordpools/wasnorm_wordpool_576.txt	LTP293	ltpFR2	12	11	CLAMP	316	n/a	n/a	0	0	0
2511.818	n/a	REC_WORD	1255909	wordpools/wasnorm_wordpool_576.txt	LTP293	ltpFR2	12	11	GLASS	639	n/a	n/a	0	0	0
2513.476	n/a	REC_WORD	1256738	wordpools/wasnorm_wordpool_576.txt	LTP293	ltpFR2	12	11	HORNET	718	n/a	n/a	0	0	0
2514.684	n/a	REC_WORD	1257342	wordpools/wasnorm_wordpool_576.txt	LTP293	ltpFR2	12	11	ISLAND	745	n/a	n/a	0	0	0
2516.972	n/a	REC_WORD	1258486	wordpools/wasnorm_wordpool_576.txt	LTP293	ltpFR2	12	11	POPCORN	1104	n/a	n/a	0	0	0
2523.454	n/a	REC_WORD	1261727	wordpools/wasnorm_wordpool_576.txt	LTP293	ltpFR2	12	11	SHOULDER	1294	n/a	n/a	0	0	0
2597.118	n/a	WORD	1298559	wordpools/wasnorm_wordpool_576.txt	LTP293	ltpFR2	12	12	LION	827	n/a	n/a	0	0	0
2599.908	n/a	WORD	1299954	wordpools/wasnorm_wordpool_576.txt	LTP293	ltpFR2	12	12	HATCHET	691	n/a	n/a	0	0	0
2602.39	n/a	WORD	1301195	wordpools/wasnorm_wordpool_576.txt	LTP293	ltpFR2	12	12	BEAST	108	n/a	n/a	0	0	0
2605.16	n/a	WORD	1302580	wordpools/wasnorm_wordpool_576.txt	LTP293	ltpFR2	12	12	BARLEY	88	n/a	n/a	0	0	0
2607.578	n/a	WORD	1303789	wordpools/wasnorm_wordpool_576.txt	LTP293	ltpFR2	12	12	BEAVER	109	n/a	n/a	0	0	0
2610.364	n/a	WORD	1305182	wordpools/wasnorm_wordpool_576.txt	LTP293	ltpFR2	12	12	POSSUM	1112	n/a	n/a	0	0	0
2612.882	n/a	WORD	1306441	wordpools/wasnorm_wordpool_576.txt	LTP293	ltpFR2	12	12	WORLD	1622	n/a	n/a	0	0	0
2615.634	n/a	WORD	1307817	wordpools/wasnorm_wordpool_576.txt	LTP293	ltpFR2	12	12	VIKING	1565	n/a	n/a	0	0	0
2618.338	n/a	WORD	1309169	wordpools/wasnorm_wordpool_576.txt	LTP293	ltpFR2	12	12	SHELF	1280	n/a	n/a	0	0	0
2620.94	n/a	WORD	1310470	wordpools/wasnorm_wordpool_576.txt	LTP293	ltpFR2	12	12	SALAD	1224	n/a	n/a	0	0	0
2623.692	n/a	WORD	1311846	wordpools/wasnorm_wordpool_576.txt	LTP293	ltpFR2	12	12	BACKBONE	66	n/a	n/a	0	0	0
2626.378	n/a	WORD	1313189	wordpools/wasnorm_wordpool_576.txt	LTP293	ltpFR2	12	12	ORCHID	982	n/a	n/a	0	0	0
2629.096	n/a	WORD	1314548	wordpools/wasnorm_wordpool_576.txt	LTP293	ltpFR2	12	12	PEDAL	1037	n/a	n/a	0	0	0
2631.766	n/a	WORD	1315883	wordpools/wasnorm_wordpool_576.txt	LTP293	ltpFR2	12	12	COUCH	386	n/a	n/a	0	0	0
2634.236	n/a	WORD	1317118	wordpools/wasnorm_wordpool_576.txt	LTP293	ltpFR2	12	12	PADDING	999	n/a	n/a	0	0	0
2636.952	n/a	WORD	1318476	wordpools/wasnorm_wordpool_576.txt	LTP293	ltpFR2	12	12	PORK	1108	n/a	n/a	0	0	0
2639.738	n/a	WORD	1319869	wordpools/wasnorm_wordpool_576.txt	LTP293	ltpFR2	12	12	PIGEON	1065	n/a	n/a	0	0	0
2642.308	n/a	WORD	1321154	wordpools/wasnorm_wordpool_576.txt	LTP293	ltpFR2	12	12	BRICK	172	n/a	n/a	0	0	0
2644.776	n/a	WORD	1322388	wordpools/wasnorm_wordpool_576.txt	LTP293	ltpFR2	12	12	PRINCE	1124	n/a	n/a	0	0	0
2647.546	n/a	WORD	1323773	wordpools/wasnorm_wordpool_576.txt	LTP293	ltpFR2	12	12	POET	1095	n/a	n/a	0	0	0
2649.998	n/a	WORD	1324999	wordpools/wasnorm_wordpool_576.txt	LTP293	ltpFR2	12	12	FLESH	579	n/a	n/a	0	0	0
2652.718	n/a	WORD	1326359	wordpools/wasnorm_wordpool_576.txt	LTP293	ltpFR2	12	12	SNAKE	1333	n/a	n/a	0	0	0
2655.402	n/a	WORD	1327701	wordpools/wasnorm_wordpool_576.txt	LTP293	ltpFR2	12	12	COTTAGE	384	n/a	n/a	0	0	0
2658.106	n/a	WORD	1329053	wordpools/wasnorm_wordpool_576.txt	LTP293	ltpFR2	12	12	WRENCH	1625	n/a	n/a	0	0	0
2659.724	n/a	START	1329862	n/a	LTP293	ltpFR2	12	n/a	n/a	n/a	18	n/a	n/a	n/a	n/a
2660.904	n/a	DISTRACTOR	1330452	n/a	LTP293	ltpFR2	12	12	n/a	n/a	n/a	n/a	0	0	0
2660.924	n/a	PROB	1330462	n/a	LTP293	ltpFR2	12	n/a	n/a	n/a	18	14	3	6	5
2662.29	n/a	PROB	1331145	n/a	LTP293	ltpFR2	12	n/a	n/a	n/a	18	1	1	9	7
2663.858	n/a	PROB	1331929	n/a	LTP293	ltpFR2	12	n/a	n/a	n/a	18	14	7	6	1
2665.326	n/a	PROB	1332663	n/a	LTP293	ltpFR2	12	n/a	n/a	n/a	18	13	6	6	1
2666.41	n/a	PROB	1333205	n/a	LTP293	ltpFR2	12	n/a	n/a	n/a	18	11	3	7	1
2667.362	n/a	PROB	1333681	n/a	LTP293	ltpFR2	12	n/a	n/a	n/a	18	18	5	8	5
2668.478	n/a	PROB	1334239	n/a	LTP293	ltpFR2	12	n/a	n/a	n/a	18	21	6	7	8
2669.58	n/a	PROB	1334790	n/a	LTP293	ltpFR2	12	n/a	n/a	n/a	18	15	6	4	5
2670.998	n/a	PROB	1335499	n/a	LTP293	ltpFR2	12	n/a	n/a	n/a	18	12	3	8	1
2673.866	n/a	PROB	1336933	n/a	LTP293	ltpFR2	12	n/a	n/a	n/a	18	9	5	1	3
2675.2	n/a	PROB	1337600	n/a	LTP293	ltpFR2	12	n/a	n/a	n/a	18	7	3	2	2
2676.718	n/a	PROB	1338359	n/a	LTP293	ltpFR2	12	n/a	n/a	n/a	18	24	7	9	8
2678.22	n/a	PROB	1339110	n/a	LTP293	ltpFR2	12	n/a	n/a	n/a	18	22	8	9	5
2679.586	n/a	PROB	1339793	n/a	LTP293	ltpFR2	12	n/a	n/a	n/a	18	11	2	3	6
2681.104	n/a	PROB	1340552	n/a	LTP293	ltpFR2	12	n/a	n/a	n/a	18	10	2	3	5
2682.29	n/a	STOP	1341145	n/a	LTP293	ltpFR2	12	n/a	n/a	n/a	18	n/a	n/a	n/a	n/a
2685.678	n/a	REC_START	1342839	n/a	LTP293	ltpFR2	12	12	n/a	n/a	n/a	n/a	0	0	0
2686.33	n/a	REC_WORD	1343165	wordpools/wasnorm_wordpool_576.txt	LTP293	ltpFR2	12	12	WRENCH	1625	n/a	n/a	0	0	0
2687.16	n/a	REC_WORD	1343580	wordpools/wasnorm_wordpool_576.txt	LTP293	ltpFR2	12	12	HATCHET	691	n/a	n/a	0	0	0
2688.464	n/a	REC_WORD	1344232	wordpools/wasnorm_wordpool_576.txt	LTP293	ltpFR2	12	12	VIKING	1565	n/a	n/a	0	0	0
2689.54	n/a	REC_WORD	1344770	wordpools/wasnorm_wordpool_576.txt	LTP293	ltpFR2	12	12	BEAST	108	n/a	n/a	0	0	0
2690.708	n/a	REC_WORD	1345354	wordpools/wasnorm_wordpool_576.txt	LTP293	ltpFR2	12	12	SHELF	1280	n/a	n/a	0	0	0
2691.756	n/a	REC_WORD	1345878	wordpools/wasnorm_wordpool_576.txt	LTP293	ltpFR2	12	12	LION	827	n/a	n/a	0	0	0
2693.202	n/a	REC_WORD	1346601	wordpools/wasnorm_wordpool_576.txt	LTP293	ltpFR2	12	12	ORCHID	982	n/a	n/a	0	0	0
2696.758	n/a	REC_WORD	1348379	wordpools/wasnorm_wordpool_576.txt	LTP293	ltpFR2	12	12	COUCH	386	n/a	n/a	0	0	0
2698.072	n/a	REC_WORD	1349036	wordpools/wasnorm_wordpool_576.txt	LTP293	ltpFR2	12	12	PADDING	999	n/a	n/a	0	0	0
2699.512	n/a	REC_WORD	1349756	wordpools/wasnorm_wordpool_576.txt	LTP293	ltpFR2	12	12	PORK	1108	n/a	n/a	0	0	0
2703.482	n/a	REC_WORD	1351741	wordpools/wasnorm_wordpool_576.txt	LTP293	ltpFR2	12	12	COTTAGE	384	n/a	n/a	0	0	0
2705.078	n/a	REC_WORD	1352539	wordpools/wasnorm_wordpool_576.txt	LTP293	ltpFR2	12	12	PIGEON	1065	n/a	n/a	0	0	0
2706.698	n/a	REC_WORD	1353349	wordpools/wasnorm_wordpool_576.txt	LTP293	ltpFR2	12	12	BEAVER	109	n/a	n/a	0	0	0
2708.98	n/a	REC_WORD	1354490	wordpools/wasnorm_wordpool_576.txt	LTP293	ltpFR2	12	12	POSSUM	1112	n/a	n/a	0	0	0
2710.592	n/a	REC_WORD	1355296	wordpools/wasnorm_wordpool_576.txt	LTP293	ltpFR2	12	12	PEDAL	1037	n/a	n/a	0	0	0
2776.114	n/a	WORD	1388057	wordpools/wasnorm_wordpool_576.txt	LTP293	ltpFR2	12	13	COLLEGE	346	n/a	n/a	0	0	0
2778.566	n/a	WORD	1389283	wordpools/wasnorm_wordpool_576.txt	LTP293	ltpFR2	12	13	GALLON	618	n/a	n/a	0	0	0
2781.202	n/a	WORD	1390601	wordpools/wasnorm_wordpool_576.txt	LTP293	ltpFR2	12	13	ROOSTER	1209	n/a	n/a	0	0	0
2783.888	n/a	WORD	1391944	wordpools/wasnorm_wordpool_576.txt	LTP293	ltpFR2	12	13	TOASTER	1472	n/a	n/a	0	0	0
2786.566	n/a	WORD	1393283	wordpools/wasnorm_wordpool_576.txt	LTP293	ltpFR2	12	13	PAPER	1011	n/a	n/a	0	0	0
2789.034	n/a	WORD	1394517	wordpools/wasnorm_wordpool_576.txt	LTP293	ltpFR2	12	13	COUNTRY	388	n/a	n/a	0	0	0
2791.786	n/a	WORD	1395893	wordpools/wasnorm_wordpool_576.txt	LTP293	ltpFR2	12	13	TURKEY	1520	n/a	n/a	0	0	0
2794.496	n/a	WORD	1397248	wordpools/wasnorm_wordpool_576.txt	LTP293	ltpFR2	12	13	CANYON	235	n/a	n/a	0	0	0
2797.274	n/a	WORD	1398637	wordpools/wasnorm_wordpool_576.txt	LTP293	ltpFR2	12	13	PASTA	1021	n/a	n/a	0	0	0
2800.052	n/a	WORD	1400026	wordpools/wasnorm_wordpool_576.txt	LTP293	ltpFR2	12	13	NAPKIN	937	n/a	n/a	0	0	0
2802.652	n/a	WORD	1401326	wordpools/wasnorm_wordpool_576.txt	LTP293	ltpFR2	12	13	SEAL	1262	n/a	n/a	0	0	0
2805.288	n/a	WORD	1402644	wordpools/wasnorm_wordpool_576.txt	LTP293	ltpFR2	12	13	SCOTCH	1251	n/a	n/a	0	0	0
2808.1	n/a	WORD	1404050	wordpools/wasnorm_wordpool_576.txt	LTP293	ltpFR2	12	13	GRAPE	654	n/a	n/a	0	0	0
2810.818	n/a	WORD	1405409	wordpools/wasnorm_wordpool_576.txt	LTP293	ltpFR2	12	13	MUFFIN	929	n/a	n/a	0	0	0
2813.61	n/a	WORD	1406805	wordpools/wasnorm_wordpool_576.txt	LTP293	ltpFR2	12	13	TOURIST	1488	n/a	n/a	0	0	0
2816.258	n/a	WORD	1408129	wordpools/wasnorm_wordpool_576.txt	LTP293	ltpFR2	12	13	UNCLE	1536	n/a	n/a	0	0	0
2818.816	n/a	WORD	1409408	wordpools/wasnorm_wordpool_576.txt	LTP293	ltpFR2	12	13	BURGLAR	200	n/a	n/a	0	0	0
2821.628	n/a	WORD	1410814	wordpools/wasnorm_wordpool_576.txt	LTP293	ltpFR2	12	13	BRAKE	166	n/a	n/a	0	0	0
2824.298	n/a	WORD	1412149	wordpools/wasnorm_wordpool_576.txt	LTP293	ltpFR2	12	13	RUST	1219	n/a	n/a	0	0	0
2827.1	n/a	WORD	1413550	wordpools/wasnorm_wordpool_576.txt	LTP293	ltpFR2	12	13	ROBBER	1197	n/a	n/a	0	0	0
2829.708	n/a	WORD	1414854	wordpools/wasnorm_wordpool_576.txt	LTP293	ltpFR2	12	13	SILK	1307	n/a	n/a	0	0	0
2832.422	n/a	WORD	1416211	wordpools/wasnorm_wordpool_576.txt	LTP293	ltpFR2	12	13	LACE	792	n/a	n/a	0	0	0
2834.958	n/a	WORD	1417479	wordpools/wasnorm_wordpool_576.txt	LTP293	ltpFR2	12	13	CHURCH	307	n/a	n/a	0	0	0
2837.458	n/a	WORD	1418729	wordpools/wasnorm_wordpool_576.txt	LTP293	ltpFR2	12	13	CROSS	413	n/a	n/a	0	0	0
2839.066	n/a	START	1419533	n/a	LTP293	ltpFR2	12	n/a	n/a	n/a	19	n/a	n/a	n/a	n/a
2839.908	n/a	DISTRACTOR	1419954	n/a	LTP293	ltpFR2	12	13	n/a	n/a	n/a	n/a	0	0	0
2839.916	n/a	PROB	1419958	n/a	LTP293	ltpFR2	12	n/a	n/a	n/a	19	16	9	6	1
2841.016	n/a	PROB	1420508	n/a	LTP293	ltpFR2	12	n/a	n/a	n/a	19	19	6	6	7
2842.368	n/a	PROB	1421184	n/a	LTP293	ltpFR2	12	n/a	n/a	n/a	19	19	7	9	3
2843.486	n/a	PROB	1421743	n/a	LTP293	ltpFR2	12	n/a	n/a	n/a	19	15	5	9	1
2844.752	n/a	PROB	1422376	n/a	LTP293	ltpFR2	12	n/a	n/a	n/a	19	14	5	4	5
2845.804	n/a	PROB	1422902	n/a	LTP293	ltpFR2	12	n/a	n/a	n/a	19	18	7	2	9
2847.034	n/a	PROB	1423517	n/a	LTP293	ltpFR2	12	n/a	n/a	n/a	19	16	8	7	1
2848.25	n/a	PROB	1424125	n/a	LTP293	ltpFR2	12	n/a	n/a	n/a	19	14	5	3	6
2850.524	n/a	PROB	1425262	n/a	LTP293	ltpFR2	12	n/a	n/a	n/a	19	13	8	4	1
2852.088	n/a	PROB	1426044	n/a	LTP293	ltpFR2	12	n/a	n/a	n/a	19	17	4	4	9
2853.322	n/a	PROB	1426661	n/a	LTP293	ltpFR2	12	n/a	n/a	n/a	19	14	5	3	6
2854.456	n/a	PROB	1427228	n/a	LTP293	ltpFR2	12	n/a	n/a	n/a	19	20	5	7	8
2855.59	n/a	PROB	1427795	n/a	LTP293	ltpFR2	12	n/a	n/a	n/a	19	16	3	4	9
2856.624	n/a	PROB	1428312	n/a	LTP293	ltpFR2	12	n/a	n/a	n/a	19	25	9	9	7
2859.194	n/a	PROB	1429597	n/a	LTP293	ltpFR2	12	n/a	n/a	n/a	19	8	5	2	1
2860.162	n/a	PROB	1430081	n/a	LTP293	ltpFR2	12	n/a	n/a	n/a	19	11	1	8	2
2861.624	n/a	STOP	1430812	n/a	LTP293	ltpFR2	12	n/a	n/a	n/a	19	n/a	n/a	n/a	n/a
2864.984	n/a	REC_START	1432492	n/a	LTP293	ltpFR2	12	13	n/a	n/a	n/a	n/a	0	0	0
2865.464	n/a	REC_WORD	1432732	wordpools/wasnorm_wordpool_576.txt	LTP293	ltpFR2	12	13	COLLEGE	346	n/a	n/a	0	0	0
2866.724	n/a	REC_WORD	1433362	wordpools/wasnorm_wordpool_576.txt	LTP293	ltpFR2	12	13	COUNTRY	388	n/a	n/a	0	0	0
2867.988	n/a	REC_WORD	1433994	wordpools/wasnorm_wordpool_576.txt	LTP293	ltpFR2	12	13	SILK	1307	n/a	n/a	0	0	0
2869.244	n/a	REC_WORD	1434622	wordpools/wasnorm_wordpool_576.txt	LTP293	ltpFR2	12	13	LACE	792	n/a	n/a	0	0	0
2870.452	n/a	REC_WORD	1435226	wordpools/wasnorm_wordpool_576.txt	LTP293	ltpFR2	12	13	MUFFIN	929	n/a	n/a	0	0	0
2871.644	n/a	REC_WORD	1435822	wordpools/wasnorm_wordpool_576.txt	LTP293	ltpFR2	12	13	GRAPE	654	n/a	n/a	0	0	0
2872.728	n/a	REC_WORD	1436364	wordpools/wasnorm_wordpool_576.txt	LTP293	ltpFR2	12	13	TURKEY	1520	n/a	n/a	0	0	0
2874.076	n/a	REC_WORD	1437038	wordpools/wasnorm_wordpool_576.txt	LTP293	ltpFR2	12	13	BURGLAR	200	n/a	n/a	0	0	0
2875.234	n/a	REC_WORD	1437617	wordpools/wasnorm_wordpool_576.txt	LTP293	ltpFR2	12	13	ROBBER	1197	n/a	n/a	0	0	0
2876.72	n/a	REC_WORD	1438360	wordpools/wasnorm_wordpool_576.txt	LTP293	ltpFR2	12	13	TOURIST	1488	n/a	n/a	0	0	0
2878.024	n/a	REC_WORD	1439012	wordpools/wasnorm_wordpool_576.txt	LTP293	ltpFR2	12	13	UNCLE	1536	n/a	n/a	0	0	0
2879.304	n/a	REC_WORD	1439652	wordpools/wasnorm_wordpool_576.txt	LTP293	ltpFR2	12	13	RUST	1219	n/a	n/a	0	0	0
2888.404	n/a	REC_WORD	1444202	wordpools/wasnorm_wordpool_576.txt	LTP293	ltpFR2	12	13	BRAKE	166	n/a	n/a	0	0	0
2894.446	n/a	REC_WORD	1447223	wordpools/wasnorm_wordpool_576.txt	LTP293	ltpFR2	12	13	SEAL	1262	n/a	n/a	0	0	0
2955.442	n/a	WORD	1477721	wordpools/wasnorm_wordpool_576.txt	LTP293	ltpFR2	12	14	MARS	873	n/a	n/a	0	0	0
2957.914	n/a	WORD	1478957	wordpools/wasnorm_wordpool_576.txt	LTP293	ltpFR2	12	14	VENUS	1557	n/a	n/a	0	0	0
2960.462	n/a	WORD	1480231	wordpools/wasnorm_wordpool_576.txt	LTP293	ltpFR2	12	14	SKIRT	1319	n/a	n/a	0	0	0
2963.28	n/a	WORD	1481640	wordpools/wasnorm_wordpool_576.txt	LTP293	ltpFR2	12	14	PENGUIN	1044	n/a	n/a	0	0	0
2965.704	n/a	WORD	1482852	wordpools/wasnorm_wordpool_576.txt	LTP293	ltpFR2	12	14	ASIA	46	n/a	n/a	0	0	0
2968.206	n/a	WORD	1484103	wordpools/wasnorm_wordpool_576.txt	LTP293	ltpFR2	12	14	LONDON	843	n/a	n/a	0	0	0
2970.686	n/a	WORD	1485343	wordpools/wasnorm_wordpool_576.txt	LTP293	ltpFR2	12	14	MONEY	908	n/a	n/a	0	0	0
2973.472	n/a	WORD	1486736	wordpools/wasnorm_wordpool_576.txt	LTP293	ltpFR2	12	14	RAZOR	1171	n/a	n/a	0	0	0
2976.024	n/a	WORD	1488012	wordpools/wasnorm_wordpool_576.txt	LTP293	ltpFR2	12	14	BINDER	127	n/a	n/a	0	0	0
2978.656	n/a	WORD	1489328	wordpools/wasnorm_wordpool_576.txt	LTP293	ltpFR2	12	14	JUNGLE	764	n/a	n/a	0	0	0
2981.3	n/a	WORD	1490650	wordpools/wasnorm_wordpool_576.txt	LTP293	ltpFR2	12	14	OUTLAW	989	n/a	n/a	0	0	0
2983.818	n/a	WORD	1491909	wordpools/wasnorm_wordpool_576.txt	LTP293	ltpFR2	12	14	MAILBOX	857	n/a	n/a	0	0	0
2986.498	n/a	WORD	1493249	wordpools/wasnorm_wordpool_576.txt	LTP293	ltpFR2	12	14	PEANUT	1032	n/a	n/a	0	0	0
2988.968	n/a	WORD	1494484	wordpools/wasnorm_wordpool_576.txt	LTP293	ltpFR2	12	14	LUMBER	848	n/a	n/a	0	0	0
2991.576	n/a	WORD	1495788	wordpools/wasnorm_wordpool_576.txt	LTP293	ltpFR2	12	14	LAPEL	800	n/a	n/a	0	0	0
2994.156	n/a	WORD	1497078	wordpools/wasnorm_wordpool_576.txt	LTP293	ltpFR2	12	14	BOX	159	n/a	n/a	0	0	0
2996.796	n/a	WORD	1498398	wordpools/wasnorm_wordpool_576.txt	LTP293	ltpFR2	12	14	ONION	977	n/a	n/a	0	0	0
2999.382	n/a	WORD	1499691	wordpools/wasnorm_wordpool_576.txt	LTP293	ltpFR2	12	14	FLUTE	585	n/a	n/a	0	0	0
3002.044	n/a	WORD	1501022	wordpools/wasnorm_wordpool_576.txt	LTP293	ltpFR2	12	14	FARMER	553	n/a	n/a	0	0	0
3004.504	n/a	WORD	1502252	wordpools/wasnorm_wordpool_576.txt	LTP293	ltpFR2	12	14	GAVEL	627	n/a	n/a	0	0	0
3007.122	n/a	WORD	1503561	wordpools/wasnorm_wordpool_576.txt	LTP293	ltpFR2	12	14	PRIMATE	1123	n/a	n/a	0	0	0
3009.892	n/a	WORD	1504946	wordpools/wasnorm_wordpool_576.txt	LTP293	ltpFR2	12	14	FOREHEAD	592	n/a	n/a	0	0	0
3012.536	n/a	WORD	1506268	wordpools/wasnorm_wordpool_576.txt	LTP293	ltpFR2	12	14	ULCER	1533	n/a	n/a	0	0	0
3015.054	n/a	WORD	1507527	wordpools/wasnorm_wordpool_576.txt	LTP293	ltpFR2	12	14	KIDNEY	776	n/a	n/a	0	0	0
3016.662	n/a	START	1508331	n/a	LTP293	ltpFR2	12	n/a	n/a	n/a	20	n/a	n/a	n/a	n/a
3017.846	n/a	DISTRACTOR	1508923	n/a	LTP293	ltpFR2	12	14	n/a	n/a	n/a	n/a	0	0	0
3017.858	n/a	PROB	1508929	n/a	LTP293	ltpFR2	12	n/a	n/a	n/a	20	12	9	2	1
3019.024	n/a	PROB	1509512	n/a	LTP293	ltpFR2	12	n/a	n/a	n/a	20	21	6	6	9
3020.108	n/a	PROB	1510054	n/a	LTP293	ltpFR2	12	n/a	n/a	n/a	20	15	6	8	1
3022.126	n/a	PROB	1511063	n/a	LTP293	ltpFR2	12	n/a	n/a	n/a	20	6	3	2	1
3023.426	n/a	PROB	1511713	n/a	LTP293	ltpFR2	12	n/a	n/a	n/a	20	10	4	5	1
3025.644	n/a	PROB	1512822	n/a	LTP293	ltpFR2	12	n/a	n/a	n/a	20	15	6	1	5
3027.798	n/a	PROB	1513899	n/a	LTP293	ltpFR2	12	n/a	n/a	n/a	20	7	2	1	4
3031.284	n/a	PROB	1515642	n/a	LTP293	ltpFR2	12	n/a	n/a	n/a	20	12	5	3	4
3032.884	n/a	PROB	1516442	n/a	LTP293	ltpFR2	12	n/a	n/a	n/a	20	20	2	9	9
3034.202	n/a	PROB	1517101	n/a	LTP293	ltpFR2	12	n/a	n/a	n/a	20	8	1	4	3
3035.454	n/a	PROB	1517727	n/a	LTP293	ltpFR2	12	n/a	n/a	n/a	20	14	4	8	2
3037.222	n/a	PROB	1518611	n/a	LTP293	ltpFR2	12	n/a	n/a	n/a	20	14	4	9	1
3038.324	n/a	PROB	1519162	n/a	LTP293	ltpFR2	12	n/a	n/a	n/a	20	1	6	4	4
3039.59	n/a	STOP	1519795	n/a	LTP293	ltpFR2	12	n/a	n/a	n/a	20	n/a	n/a	n/a	n/a
3042.46	n/a	REC_START	1521230	n/a	LTP293	ltpFR2	12	14	n/a	n/a	n/a	n/a	0	0	0
3042.972	n/a	REC_WORD	1521486	wordpools/wasnorm_wordpool_576.txt	LTP293	ltpFR2	12	14	ULCER	1533	n/a	n/a	0	0	0
3044.076	n/a	REC_WORD	1522038	wordpools/wasnorm_wordpool_576.txt	LTP293	ltpFR2	12	14	KIDNEY	776	n/a	n/a	0	0	0
3046.826	n/a	REC_WORD	1523413	wordpools/wasnorm_wordpool_576.txt	LTP293	ltpFR2	12	14	SKIRT	1319	n/a	n/a	0	0	0
3048.116	n/a	REC_WORD	1524058	wordpools/wasnorm_wordpool_576.txt	LTP293	ltpFR2	12	14	RAZOR	1171	n/a	n/a	0	0	0
3051.526	n/a	REC_WORD	1525763	wordpools/wasnorm_wordpool_576.txt	LTP293	ltpFR2	12	14	MAILBOX	857	n/a	n/a	0	0	0
3053.64	n/a	REC_WORD	1526820	wordpools/wasnorm_wordpool_576.txt	LTP293	ltpFR2	12	14	BOX	159	n/a	n/a	0	0	0
3057.632	n/a	REC_WORD	1528816	wordpools/wasnorm_wordpool_576.txt	LTP293	ltpFR2	12	14	VENUS	1557	n/a	n/a	0	0	0
3058.748	n/a	REC_WORD	1529374	wordpools/wasnorm_wordpool_576.txt	LTP293	ltpFR2	12	14	MARS	873	n/a	n/a	0	0	0
3065.984	n/a	REC_WORD	1532992	wordpools/wasnorm_wordpool_576.txt	LTP293	ltpFR2	12	14	PENGUIN	1044	n/a	n/a	0	0	0
3074.37	n/a	REC_WORD	1537185	wordpools/wasnorm_wordpool_576.txt	LTP293	ltpFR2	12	14	GAVEL	627	n/a	n/a	0	0	0
3132.914	n/a	DISTRACTOR	1566457	n/a	LTP293	ltpFR2	12	15	n/a	n/a	n/a	n/a	0	0	0
3132.914	n/a	START	1566457	n/a	LTP293	ltpFR2	12	n/a	n/a	n/a	21	n/a	n/a	n/a	n/a
3132.932	n/a	PROB	1566466	n/a	LTP293	ltpFR2	12	n/a	n/a	n/a	21	17	3	5	9
3134.132	n/a	PROB	1567066	n/a	LTP293	ltpFR2	12	n/a	n/a	n/a	21	20	6	7	7
3135.464	n/a	PROB	1567732	n/a	LTP293	ltpFR2	12	n/a	n/a	n/a	21	24	7	9	8
3136.834	n/a	PROB	1568417	n/a	LTP293	ltpFR2	12	n/a	n/a	n/a	21	18	5	5	8
3137.834	n/a	PROB	1568917	n/a	LTP293	ltpFR2	12	n/a	n/a	n/a	21	10	6	3	1
3138.97	n/a	PROB	1569485	n/a	LTP293	ltpFR2	12	n/a	n/a	n/a	21	7	1	2	4
3140.118	n/a	PROB	1570059	n/a	LTP293	ltpFR2	12	n/a	n/a	n/a	21	3	1	1	1
3141.136	n/a	PROB	1570568	n/a	LTP293	ltpFR2	12	n/a	n/a	n/a	21	12	3	5	4
3142.27	n/a	PROB	1571135	n/a	LTP293	ltpFR2	12	n/a	n/a	n/a	21	16	9	5	2
3143.338	n/a	PROB	1571669	n/a	LTP293	ltpFR2	12	n/a	n/a	n/a	21	9	7	1	1
3144.472	n/a	PROB	1572236	n/a	LTP293	ltpFR2	12	n/a	n/a	n/a	21	17	7	9	1
3145.84	n/a	PROB	1572920	n/a	LTP293	ltpFR2	12	n/a	n/a	n/a	21	11	7	3	1
3146.908	n/a	PROB	1573454	n/a	LTP293	ltpFR2	12	n/a	n/a	n/a	21	18	8	1	9
3148.376	n/a	PROB	1574188	n/a	LTP293	ltpFR2	12	n/a	n/a	n/a	21	14	3	5	6
3150.844	n/a	PROB	1575422	n/a	LTP293	ltpFR2	12	n/a	n/a	n/a	21	7	4	2	1
3152.33	n/a	PROB	1576165	n/a	LTP293	ltpFR2	12	n/a	n/a	n/a	21	17	6	6	5
3153.514	n/a	PROB	1576757	n/a	LTP293	ltpFR2	12	n/a	n/a	n/a	21	15	3	5	7
3154.982	n/a	PROB	1577491	n/a	LTP293	ltpFR2	12	n/a	n/a	n/a	21	20	4	9	7
3156.178	n/a	STOP	1578089	n/a	LTP293	ltpFR2	12	n/a	n/a	n/a	21	n/a	n/a	n/a	n/a
3157.8	n/a	WORD	1578900	wordpools/wasnorm_wordpool_576.txt	LTP293	ltpFR2	12	15	RUG	1215	n/a	n/a	0	0	0
3160.354	n/a	WORD	1580177	wordpools/wasnorm_wordpool_576.txt	LTP293	ltpFR2	12	15	SKILLET	1317	n/a	n/a	0	0	0
3163.122	n/a	WORD	1581561	wordpools/wasnorm_wordpool_576.txt	LTP293	ltpFR2	12	15	SOFTBALL	1343	n/a	n/a	0	0	0
3165.558	n/a	WORD	1582779	wordpools/wasnorm_wordpool_576.txt	LTP293	ltpFR2	12	15	CRICKET	408	n/a	n/a	0	0	0
3168.176	n/a	WORD	1584088	wordpools/wasnorm_wordpool_576.txt	LTP293	ltpFR2	12	15	PECAN	1036	n/a	n/a	0	0	0
3170.812	n/a	WORD	1585406	wordpools/wasnorm_wordpool_576.txt	LTP293	ltpFR2	12	15	RATTLE	1170	n/a	n/a	0	0	0
3173.414	n/a	WORD	1586707	wordpools/wasnorm_wordpool_576.txt	LTP293	ltpFR2	12	15	BABY	64	n/a	n/a	0	0	0
3175.902	n/a	WORD	1587951	wordpools/wasnorm_wordpool_576.txt	LTP293	ltpFR2	12	15	MOP	916	n/a	n/a	0	0	0
3178.484	n/a	WORD	1589242	wordpools/wasnorm_wordpool_576.txt	LTP293	ltpFR2	12	15	RADISH	1158	n/a	n/a	0	0	0
3181.17	n/a	WORD	1590585	wordpools/wasnorm_wordpool_576.txt	LTP293	ltpFR2	12	15	PASTRY	1022	n/a	n/a	0	0	0
3183.938	n/a	WORD	1591969	wordpools/wasnorm_wordpool_576.txt	LTP293	ltpFR2	12	15	BANK	83	n/a	n/a	0	0	0
3186.64	n/a	WORD	1593320	wordpools/wasnorm_wordpool_576.txt	LTP293	ltpFR2	12	15	THRONE	1461	n/a	n/a	0	0	0
3189.392	n/a	WORD	1594696	wordpools/wasnorm_wordpool_576.txt	LTP293	ltpFR2	12	15	STAPLE	1371	n/a	n/a	0	0	0
3191.978	n/a	WORD	1595989	wordpools/wasnorm_wordpool_576.txt	LTP293	ltpFR2	12	15	ROBIN	1199	n/a	n/a	0	0	0
3194.698	n/a	WORD	1597349	wordpools/wasnorm_wordpool_576.txt	LTP293	ltpFR2	12	15	BUCKET	184	n/a	n/a	0	0	0
3197.452	n/a	WORD	1598726	wordpools/wasnorm_wordpool_576.txt	LTP293	ltpFR2	12	15	INMATE	738	n/a	n/a	0	0	0
3200.202	n/a	WORD	1600101	wordpools/wasnorm_wordpool_576.txt	LTP293	ltpFR2	12	15	CREATURE	403	n/a	n/a	0	0	0
3202.902	n/a	WORD	1601451	wordpools/wasnorm_wordpool_576.txt	LTP293	ltpFR2	12	15	LAKE	796	n/a	n/a	0	0	0
3205.438	n/a	WORD	1602719	wordpools/wasnorm_wordpool_576.txt	LTP293	ltpFR2	12	15	AUTHOR	61	n/a	n/a	0	0	0
3207.896	n/a	WORD	1603948	wordpools/wasnorm_wordpool_576.txt	LTP293	ltpFR2	12	15	COIN	343	n/a	n/a	0	0	0
3210.68	n/a	WORD	1605340	wordpools/wasnorm_wordpool_576.txt	LTP293	ltpFR2	12	15	BELLY	119	n/a	n/a	0	0	0
3213.294	n/a	WORD	1606647	wordpools/wasnorm_wordpool_576.txt	LTP293	ltpFR2	12	15	SWIMMER	1420	n/a	n/a	0	0	0
3215.996	n/a	WORD	1607998	wordpools/wasnorm_wordpool_576.txt	LTP293	ltpFR2	12	15	PALACE	1006	n/a	n/a	0	0	0
3218.666	n/a	WORD	1609333	wordpools/wasnorm_wordpool_576.txt	LTP293	ltpFR2	12	15	CROWN	415	n/a	n/a	0	0	0
3220.272	n/a	START	1610136	n/a	LTP293	ltpFR2	12	n/a	n/a	n/a	22	n/a	n/a	n/a	n/a
3221.126	n/a	DISTRACTOR	1610563	n/a	LTP293	ltpFR2	12	15	n/a	n/a	n/a	n/a	0	0	0
3221.136	n/a	PROB	1610568	n/a	LTP293	ltpFR2	12	n/a	n/a	n/a	22	14	8	4	2
3222.384	n/a	PROB	1611192	n/a	LTP293	ltpFR2	12	n/a	n/a	n/a	22	17	9	7	1
3224.754	n/a	PROB	1612377	n/a	LTP293	ltpFR2	12	n/a	n/a	n/a	22	5	2	2	1
3225.57	n/a	PROB	1612785	n/a	LTP293	ltpFR2	12	n/a	n/a	n/a	22	12	8	1	3
3227.14	n/a	PROB	1613570	n/a	LTP293	ltpFR2	12	n/a	n/a	n/a	22	21	9	5	8
3228.356	n/a	PROB	1614178	n/a	LTP293	ltpFR2	12	n/a	n/a	n/a	22	4	1	1	2
3229.224	n/a	PROB	1614612	n/a	LTP293	ltpFR2	12	n/a	n/a	n/a	22	10	2	3	5
3230.708	n/a	PROB	1615354	n/a	LTP293	ltpFR2	12	n/a	n/a	n/a	22	10	1	6	3
3231.958	n/a	PROB	1615979	n/a	LTP293	ltpFR2	12	n/a	n/a	n/a	22	18	2	9	7
3233.208	n/a	PROB	1616604	n/a	LTP293	ltpFR2	12	n/a	n/a	n/a	22	11	1	7	3
3234.476	n/a	PROB	1617238	n/a	LTP293	ltpFR2	12	n/a	n/a	n/a	22	11	4	1	6
3235.61	n/a	PROB	1617805	n/a	LTP293	ltpFR2	12	n/a	n/a	n/a	22	11	4	3	4
3237.012	n/a	PROB	1618506	n/a	LTP293	ltpFR2	12	n/a	n/a	n/a	22	7	2	3	2
3238.48	n/a	PROB	1619240	n/a	LTP293	ltpFR2	12	n/a	n/a	n/a	22	11	2	8	1
3239.698	n/a	PROB	1619849	n/a	LTP293	ltpFR2	12	n/a	n/a	n/a	22	22	4	9	9
3241.148	n/a	PROB	1620574	n/a	LTP293	ltpFR2	12	n/a	n/a	n/a	22	17	6	9	2
3243.14	n/a	STOP	1621570	n/a	LTP293	ltpFR2	12	n/a	n/a	n/a	22	n/a	n/a	n/a	n/a
3246.102	n/a	REC_START	1623051	n/a	LTP293	ltpFR2	12	15	n/a	n/a	n/a	n/a	0	0	0
3247.304	n/a	REC_WORD	1623652	wordpools/wasnorm_wordpool_576.txt	LTP293	ltpFR2	12	15	PALACE	1006	n/a	n/a	0	0	0
3248.632	n/a	REC_WORD	1624316	wordpools/wasnorm_wordpool_576.txt	LTP293	ltpFR2	12	15	THRONE	1461	n/a	n/a	0	0	0
3251.5	n/a	REC_WORD	1625750	wordpools/wasnorm_wordpool_576.txt	LTP293	ltpFR2	12	15	TURNIP	1521	n/a	n/a	0	0	0
3253.036	n/a	REC_WORD	1626518	wordpools/wasnorm_wordpool_576.txt	LTP293	ltpFR2	12	15	PECAN	1036	n/a	n/a	0	0	0
3254.436	n/a	REC_WORD	1627218	wordpools/wasnorm_wordpool_576.txt	LTP293	ltpFR2	12	15	PASTRY	1022	n/a	n/a	0	0	0
3256.302	n/a	REC_WORD	1628151	wordpools/wasnorm_wordpool_576.txt	LTP293	ltpFR2	12	15	SKILLET	1317	n/a	n/a	0	0	0
3336.558	n/a	WORD	1668279	wordpools/wasnorm_wordpool_576.txt	LTP293	ltpFR2	12	16	SHARK	1275	n/a	n/a	0	0	0
3339.326	n/a	WORD	1669663	wordpools/wasnorm_wordpool_576.txt	LTP293	ltpFR2	12	16	SHORTCAKE	1292	n/a	n/a	0	0	0
3341.944	n/a	WORD	1670972	wordpools/wasnorm_wordpool_576.txt	LTP293	ltpFR2	12	16	TART	1436	n/a	n/a	0	0	0
3344.446	n/a	WORD	1672223	wordpools/wasnorm_wordpool_576.txt	LTP293	ltpFR2	12	16	TWIG	1527	n/a	n/a	0	0	0
3347.114	n/a	WORD	1673557	wordpools/wasnorm_wordpool_576.txt	LTP293	ltpFR2	12	16	AGENT	10	n/a	n/a	0	0	0
3349.784	n/a	WORD	1674892	wordpools/wasnorm_wordpool_576.txt	LTP293	ltpFR2	12	16	BLOUSE	139	n/a	n/a	0	0	0
3352.47	n/a	WORD	1676235	wordpools/wasnorm_wordpool_576.txt	LTP293	ltpFR2	12	16	POCKET	1093	n/a	n/a	0	0	0
3355.222	n/a	WORD	1677611	wordpools/wasnorm_wordpool_576.txt	LTP293	ltpFR2	12	16	PARROT	1015	n/a	n/a	0	0	0
3357.974	n/a	WORD	1678987	wordpools/wasnorm_wordpool_576.txt	LTP293	ltpFR2	12	16	SPARROW	1347	n/a	n/a	0	0	0
3360.626	n/a	WORD	1680313	wordpools/wasnorm_wordpool_576.txt	LTP293	ltpFR2	12	16	ROCKET	1202	n/a	n/a	0	0	0
3363.23	n/a	WORD	1681615	wordpools/wasnorm_wordpool_576.txt	LTP293	ltpFR2	12	16	CRUTCH	417	n/a	n/a	0	0	0
3365.814	n/a	WORD	1682907	wordpools/wasnorm_wordpool_576.txt	LTP293	ltpFR2	12	16	ANKLE	24	n/a	n/a	0	0	0
3368.632	n/a	WORD	1684316	wordpools/wasnorm_wordpool_576.txt	LTP293	ltpFR2	12	16	CANDY	230	n/a	n/a	0	0	0
3371.102	n/a	WORD	1685551	wordpools/wasnorm_wordpool_576.txt	LTP293	ltpFR2	12	16	WIDOW	1608	n/a	n/a	0	0	0
3373.722	n/a	WORD	1686861	wordpools/wasnorm_wordpool_576.txt	LTP293	ltpFR2	12	16	JEANS	752	n/a	n/a	0	0	0
3376.322	n/a	WORD	1688161	wordpools/wasnorm_wordpool_576.txt	LTP293	ltpFR2	12	16	COUSIN	392	n/a	n/a	0	0	0
3378.876	n/a	WORD	1689438	wordpools/wasnorm_wordpool_576.txt	LTP293	ltpFR2	12	16	DANDRUFF	439	n/a	n/a	0	0	0
3381.528	n/a	WORD	1690764	wordpools/wasnorm_wordpool_576.txt	LTP293	ltpFR2	12	16	YOLK	1633	n/a	n/a	0	0	0
3384.03	n/a	WORD	1692015	wordpools/wasnorm_wordpool_576.txt	LTP293	ltpFR2	12	16	LOVER	846	n/a	n/a	0	0	0
3386.7	n/a	WORD	1693350	wordpools/wasnorm_wordpool_576.txt	LTP293	ltpFR2	12	16	REPORT	1184	n/a	n/a	0	0	0
3389.302	n/a	WORD	1694651	wordpools/wasnorm_wordpool_576.txt	LTP293	ltpFR2	12	16	KITCHEN	778	n/a	n/a	0	0	0
3392.07	n/a	WORD	1696035	wordpools/wasnorm_wordpool_576.txt	LTP293	ltpFR2	12	16	WASHER	1592	n/a	n/a	0	0	0
3394.772	n/a	WORD	1697386	wordpools/wasnorm_wordpool_576.txt	LTP293	ltpFR2	12	16	VALVE	1546	n/a	n/a	0	0	0
3397.24	n/a	WORD	1698620	wordpools/wasnorm_wordpool_576.txt	LTP293	ltpFR2	12	16	HANDBAG	684	n/a	n/a	0	0	0
3398.86	n/a	START	1699430	n/a	LTP293	ltpFR2	12	n/a	n/a	n/a	23	n/a	n/a	n/a	n/a
3399.728	n/a	DISTRACTOR	1699864	n/a	LTP293	ltpFR2	12	16	n/a	n/a	n/a	n/a	0	0	0
3399.742	n/a	PROB	1699871	n/a	LTP293	ltpFR2	12	n/a	n/a	n/a	23	6	2	2	2
3401.328	n/a	PROB	1700664	n/a	LTP293	ltpFR2	12	n/a	n/a	n/a	23	12	2	3	7
3403.412	n/a	PROB	1701706	n/a	LTP293	ltpFR2	12	n/a	n/a	n/a	23	12	3	3	6
3404.912	n/a	PROB	1702456	n/a	LTP293	ltpFR2	12	n/a	n/a	n/a	23	18	3	6	9
3406.164	n/a	PROB	1703082	n/a	LTP293	ltpFR2	12	n/a	n/a	n/a	23	22	8	9	5
3407.314	n/a	PROB	1703657	n/a	LTP293	ltpFR2	12	n/a	n/a	n/a	23	19	7	5	7
3408.614	n/a	PROB	1704307	n/a	LTP293	ltpFR2	12	n/a	n/a	n/a	23	19	5	9	5
3410.0	n/a	PROB	1705000	n/a	LTP293	ltpFR2	12	n/a	n/a	n/a	23	22	7	9	6
3411.468	n/a	PROB	1705734	n/a	LTP293	ltpFR2	12	n/a	n/a	n/a	23	21	7	6	9
3412.734	n/a	PROB	1706367	n/a	LTP293	ltpFR2	12	n/a	n/a	n/a	23	14	7	3	4
3414.218	n/a	PROB	1707109	n/a	LTP293	ltpFR2	12	n/a	n/a	n/a	23	15	4	5	6
3415.572	n/a	PROB	1707786	n/a	LTP293	ltpFR2	12	n/a	n/a	n/a	23	13	3	5	5
3416.772	n/a	PROB	1708386	n/a	LTP293	ltpFR2	12	n/a	n/a	n/a	23	15	5	5	5
3417.756	n/a	PROB	1708878	n/a	LTP293	ltpFR2	12	n/a	n/a	n/a	23	11	1	4	6
3418.94	n/a	PROB	1709470	n/a	LTP293	ltpFR2	12	n/a	n/a	n/a	23	8	3	4	1
3420.008	n/a	PROB	1710004	n/a	LTP293	ltpFR2	12	n/a	n/a	n/a	23	17	7	9	1
3422.86	n/a	STOP	1711430	n/a	LTP293	ltpFR2	12	n/a	n/a	n/a	23	n/a	n/a	n/a	n/a
3424.798	n/a	REC_START	1712399	n/a	LTP293	ltpFR2	12	16	n/a	n/a	n/a	n/a	0	0	0
3425.68	n/a	REC_WORD	1712840	wordpools/wasnorm_wordpool_576.txt	LTP293	ltpFR2	12	16	SHORTCAKE	1292	n/a	n/a	0	0	0
3428.624	n/a	REC_WORD	1714312	wordpools/wasnorm_wordpool_576.txt	LTP293	ltpFR2	12	16	COUSIN	392	n/a	n/a	0	0	0
3430.066	n/a	REC_WORD	1715033	wordpools/wasnorm_wordpool_576.txt	LTP293	ltpFR2	12	16	YOLK	1633	n/a	n/a	0	0	0
3432.358	n/a	REC_WORD	1716179	wordpools/wasnorm_wordpool_576.txt	LTP293	ltpFR2	12	16	TART	1436	n/a	n/a	0	0	0
3435.022	n/a	REC_WORD	1717511	wordpools/wasnorm_wordpool_576.txt	LTP293	ltpFR2	12	16	WIDOW	1608	n/a	n/a	0	0	0
3443.066	n/a	REC_WORD	1721533	wordpools/wasnorm_wordpool_576.txt	LTP293	ltpFR2	12	16	AGENT	10	n/a	n/a	0	0	0
3444.476	n/a	REC_WORD	1722238	wordpools/wasnorm_wordpool_576.txt	LTP293	ltpFR2	12	16	BLOUSE	139	n/a	n/a	0	0	0
3445.644	n/a	REC_WORD	1722822	wordpools/wasnorm_wordpool_576.txt	LTP293	ltpFR2	12	16	POCKET	1093	n/a	n/a	0	0	0
3447.1	n/a	REC_WORD	1723550	wordpools/wasnorm_wordpool_576.txt	LTP293	ltpFR2	12	16	SPARROW	1347	n/a	n/a	0	0	0
3449.718	n/a	REC_WORD	1724859	wordpools/wasnorm_wordpool_576.txt	LTP293	ltpFR2	12	16	SHARK	1275	n/a	n/a	0	0	0
3466.74	n/a	REC_WORD	1733370	wordpools/wasnorm_wordpool_576.txt	LTP293	ltpFR2	12	16	DANDRUFF	439	n/a	n/a	0	0	0
3473.592	n/a	REC_WORD	1736796	wordpools/wasnorm_wordpool_576.txt	LTP293	ltpFR2	12	16	CANDY	230	n/a	n/a	0	0	0
3501.332	n/a	REST_REWET	1750666	n/a	LTP293	ltpFR2	12	16	n/a	n/a	n/a	n/a	0	0	0
3749.684	n/a	WORD	1874842	wordpools/wasnorm_wordpool_576.txt	LTP293	ltpFR2	12	17	TROMBONE	1508	n/a	n/a	0	0	0
3752.348	n/a	WORD	1876174	wordpools/wasnorm_wordpool_576.txt	LTP293	ltpFR2	12	17	HEADBAND	696	n/a	n/a	0	0	0
3755.124	n/a	WORD	1877562	wordpools/wasnorm_wordpool_576.txt	LTP293	ltpFR2	12	17	GRAVE	658	n/a	n/a	0	0	0
3757.802	n/a	WORD	1878901	wordpools/wasnorm_wordpool_576.txt	LTP293	ltpFR2	12	17	MAPLE	866	n/a	n/a	0	0	0
3760.496	n/a	WORD	1880248	wordpools/wasnorm_wordpool_576.txt	LTP293	ltpFR2	12	17	SCALLOP	1242	n/a	n/a	0	0	0
3763.24	n/a	WORD	1881620	wordpools/wasnorm_wordpool_576.txt	LTP293	ltpFR2	12	17	OYSTER	995	n/a	n/a	0	0	0
3765.698	n/a	WORD	1882849	wordpools/wasnorm_wordpool_576.txt	LTP293	ltpFR2	12	17	TOMBSTONE	1478	n/a	n/a	0	0	0
3768.284	n/a	WORD	1884142	wordpools/wasnorm_wordpool_576.txt	LTP293	ltpFR2	12	17	VALLEY	1545	n/a	n/a	0	0	0
3771.038	n/a	WORD	1885519	wordpools/wasnorm_wordpool_576.txt	LTP293	ltpFR2	12	17	THREAD	1460	n/a	n/a	0	0	0
3773.572	n/a	WORD	1886786	wordpools/wasnorm_wordpool_576.txt	LTP293	ltpFR2	12	17	BALLOON	75	n/a	n/a	0	0	0
3776.068	n/a	WORD	1888034	wordpools/wasnorm_wordpool_576.txt	LTP293	ltpFR2	12	17	GREASE	660	n/a	n/a	0	0	0
3778.82	n/a	WORD	1889410	wordpools/wasnorm_wordpool_576.txt	LTP293	ltpFR2	12	17	MARROW	872	n/a	n/a	0	0	0
3781.44	n/a	WORD	1890720	wordpools/wasnorm_wordpool_576.txt	LTP293	ltpFR2	12	17	TRANSPLANT	1496	n/a	n/a	0	0	0
3784.124	n/a	WORD	1892062	wordpools/wasnorm_wordpool_576.txt	LTP293	ltpFR2	12	17	RELISH	1183	n/a	n/a	0	0	0
3786.76	n/a	WORD	1893380	wordpools/wasnorm_wordpool_576.txt	LTP293	ltpFR2	12	17	CASKET	255	n/a	n/a	0	0	0
3789.268	n/a	WORD	1894634	wordpools/wasnorm_wordpool_576.txt	LTP293	ltpFR2	12	17	KNAPSACK	783	n/a	n/a	0	0	0
3791.97	n/a	WORD	1895985	wordpools/wasnorm_wordpool_576.txt	LTP293	ltpFR2	12	17	LIZARD	834	n/a	n/a	0	0	0
3794.768	n/a	WORD	1897384	wordpools/wasnorm_wordpool_576.txt	LTP293	ltpFR2	12	17	DASHBOARD	441	n/a	n/a	0	0	0
3797.47	n/a	WORD	1898735	wordpools/wasnorm_wordpool_576.txt	LTP293	ltpFR2	12	17	SPACE	1345	n/a	n/a	0	0	0
3799.922	n/a	WORD	1899961	wordpools/wasnorm_wordpool_576.txt	LTP293	ltpFR2	12	17	HONEY	713	n/a	n/a	0	0	0
3802.424	n/a	WORD	1901212	wordpools/wasnorm_wordpool_576.txt	LTP293	ltpFR2	12	17	HORSE	719	n/a	n/a	0	0	0
3804.96	n/a	WORD	1902480	wordpools/wasnorm_wordpool_576.txt	LTP293	ltpFR2	12	17	BUGGY	188	n/a	n/a	0	0	0
3807.748	n/a	WORD	1903874	wordpools/wasnorm_wordpool_576.txt	LTP293	ltpFR2	12	17	OZONE	996	n/a	n/a	0	0	0
3810.23	n/a	WORD	1905115	wordpools/wasnorm_wordpool_576.txt	LTP293	ltpFR2	12	17	LILY	821	n/a	n/a	0	0	0
3811.836	n/a	START	1905918	n/a	LTP293	ltpFR2	12	n/a	n/a	n/a	24	n/a	n/a	n/a	n/a
3812.854	n/a	DISTRACTOR	1906427	n/a	LTP293	ltpFR2	12	17	n/a	n/a	n/a	n/a	0	0	0
3812.866	n/a	PROB	1906433	n/a	LTP293	ltpFR2	12	n/a	n/a	n/a	24	22	9	9	4
3814.066	n/a	PROB	1907033	n/a	LTP293	ltpFR2	12	n/a	n/a	n/a	24	14	5	4	5
3815.138	n/a	PROB	1907569	n/a	LTP293	ltpFR2	12	n/a	n/a	n/a	24	16	6	5	5
3816.052	n/a	PROB	1908026	n/a	LTP293	ltpFR2	12	n/a	n/a	n/a	24	17	6	2	9
3817.222	n/a	PROB	1908611	n/a	LTP293	ltpFR2	12	n/a	n/a	n/a	24	24	9	8	7
3818.372	n/a	PROB	1909186	n/a	LTP293	ltpFR2	12	n/a	n/a	n/a	24	12	3	7	2
3819.386	n/a	PROB	1909693	n/a	LTP293	ltpFR2	12	n/a	n/a	n/a	24	9	2	5	2
3821.71	n/a	PROB	1910855	n/a	LTP293	ltpFR2	12	n/a	n/a	n/a	24	8	1	6	1
3822.574	n/a	PROB	1911287	n/a	LTP293	ltpFR2	12	n/a	n/a	n/a	24	11	2	4	5
3823.69	n/a	PROB	1911845	n/a	LTP293	ltpFR2	12	n/a	n/a	n/a	24	20	8	6	6
3824.846	n/a	PROB	1912423	n/a	LTP293	ltpFR2	12	n/a	n/a	n/a	24	15	6	5	4
3826.626	n/a	PROB	1913313	n/a	LTP293	ltpFR2	12	n/a	n/a	n/a	24	10	3	6	1
3827.796	n/a	PROB	1913898	n/a	LTP293	ltpFR2	12	n/a	n/a	n/a	24	16	9	5	2
3829.296	n/a	PROB	1914648	n/a	LTP293	ltpFR2	12	n/a	n/a	n/a	24	7	2	2	3
3830.63	n/a	PROB	1915315	n/a	LTP293	ltpFR2	12	n/a	n/a	n/a	24	11	1	2	8
3831.948	n/a	PROB	1915974	n/a	LTP293	ltpFR2	12	n/a	n/a	n/a	24	6	1	2	3
3834.186	n/a	PROB	1917093	n/a	LTP293	ltpFR2	12	n/a	n/a	n/a	24	16	9	6	1
3835.406	n/a	STOP	1917703	n/a	LTP293	ltpFR2	12	n/a	n/a	n/a	24	n/a	n/a	n/a	n/a
3837.754	n/a	REC_START	1918877	n/a	LTP293	ltpFR2	12	17	n/a	n/a	n/a	n/a	0	0	0
3838.286	n/a	REC_WORD	1919143	wordpools/wasnorm_wordpool_576.txt	LTP293	ltpFR2	12	17	OZONE	996	n/a	n/a	0	0	0
3839.364	n/a	REC_WORD	1919682	wordpools/wasnorm_wordpool_576.txt	LTP293	ltpFR2	12	17	HORSE	719	n/a	n/a	0	0	0
3840.394	n/a	REC_WORD	1920197	wordpools/wasnorm_wordpool_576.txt	LTP293	ltpFR2	12	17	BUGGY	188	n/a	n/a	0	0	0
3842.184	n/a	REC_WORD	1921092	wordpools/wasnorm_wordpool_576.txt	LTP293	ltpFR2	12	17	CASKET	255	n/a	n/a	0	0	0
