onset	duration	trial_type	sample	stim_file	subject	experiment	session	trial	task	item_name	item_num	recog_conf	resp	color_b	color_g	color_r	case	font
275.154	n/a	SESS_START	137577	n/a	LTP078	ltpFR	0	n/a	n/a	n/a	n/a	n/a	n/a	n/a	n/a	n/a	n/a	n/a
305.564	n/a	WORD	152782	wordpools/wasnorm_wordpool.txt	LTP078	ltpFR	0	1	-1	CAR	241	n/a	-1	1	1.0	1.0	upper	../fonts/Verdana.ttf
309.616	n/a	WORD	154808	wordpools/wasnorm_wordpool.txt	LTP078	ltpFR	0	1	-1	PROFESSIONAL	1130	n/a	-1	1	1.0	1.0	upper	../fonts/Verdana.ttf
313.614	n/a	WORD	156807	wordpools/wasnorm_wordpool.txt	LTP078	ltpFR	0	1	-1	TURKEY	1520	n/a	-1	1	1.0	1.0	upper	../fonts/Verdana.ttf
317.722	n/a	WORD	158861	wordpools/wasnorm_wordpool.txt	LTP078	ltpFR	0	1	-1	MEAL	882	n/a	-1	1	1.0	1.0	upper	../fonts/Verdana.ttf
321.63	n/a	WORD	160815	wordpools/wasnorm_wordpool.txt	LTP078	ltpFR	0	1	-1	TROUT	1511	n/a	-1	1	1.0	1.0	upper	../fonts/Verdana.ttf
325.622	n/a	WORD	162811	wordpools/wasnorm_wordpool.txt	LTP078	ltpFR	0	1	-1	MAMMAL	861	n/a	-1	1	1.0	1.0	upper	../fonts/Verdana.ttf
329.524	n/a	WORD	164762	wordpools/wasnorm_wordpool.txt	LTP078	ltpFR	0	1	-1	TUB	1514	n/a	-1	1	1.0	1.0	upper	../fonts/Verdana.ttf
333.556	n/a	WORD	166778	wordpools/wasnorm_wordpool.txt	LTP078	ltpFR	0	1	-1	PISTON	1076	n/a	-1	1	1.0	1.0	upper	../fonts/Verdana.ttf
337.714	n/a	WORD	168857	wordpools/wasnorm_wordpool.txt	LTP078	ltpFR	0	1	-1	EAGLE	512	n/a	-1	1	1.0	1.0	upper	../fonts/Verdana.ttf
341.804	n/a	WORD	170902	wordpools/wasnorm_wordpool.txt	LTP078	ltpFR	0	1	-1	VETERAN	1561	n/a	-1	1	1.0	1.0	upper	../fonts/Verdana.ttf
345.696	n/a	WORD	172848	wordpools/wasnorm_wordpool.txt	LTP078	ltpFR	0	1	-1	STAGE	1366	n/a	-1	1	1.0	1.0	upper	../fonts/Verdana.ttf
349.73	n/a	WORD	174865	wordpools/wasnorm_wordpool.txt	LTP078	ltpFR	0	1	-1	CANARY	227	n/a	-1	1	1.0	1.0	upper	../fonts/Verdana.ttf
353.556	n/a	WORD	176778	wordpools/wasnorm_wordpool.txt	LTP078	ltpFR	0	1	-1	JEEP	753	n/a	-1	1	1.0	1.0	upper	../fonts/Verdana.ttf
357.646	n/a	WORD	178823	wordpools/wasnorm_wordpool.txt	LTP078	ltpFR	0	1	-1	PUMP	1141	n/a	-1	1	1.0	1.0	upper	../fonts/Verdana.ttf
361.82	n/a	WORD	180910	wordpools/wasnorm_wordpool.txt	LTP078	ltpFR	0	1	-1	SINK	1309	n/a	-1	1	1.0	1.0	upper	../fonts/Verdana.ttf
365.812	n/a	WORD	182906	wordpools/wasnorm_wordpool.txt	LTP078	ltpFR	0	1	-1	POOL	1103	n/a	-1	1	1.0	1.0	upper	../fonts/Verdana.ttf
371.572	n/a	REC_START	185786	n/a	LTP078	ltpFR	0	1	n/a	n/a	n/a	n/a	n/a	n/a	n/a	n/a	n/a	n/a
372.336	n/a	REC_WORD	186168	wordpools/wasnorm_wordpool.txt	LTP078	ltpFR	0	1	-1	JEEP	753	n/a	-1	n/a	n/a	n/a	n/a	n/a
373.064	n/a	REC_WORD	186532	wordpools/wasnorm_wordpool.txt	LTP078	ltpFR	0	1	-1	PUMP	1141	n/a	-1	n/a	n/a	n/a	n/a	n/a
374.286	n/a	REC_WORD	187143	wordpools/wasnorm_wordpool.txt	LTP078	ltpFR	0	1	-1	SINK	1309	n/a	-1	n/a	n/a	n/a	n/a	n/a
375.084	n/a	REC_WORD	187542	wordpools/wasnorm_wordpool.txt	LTP078	ltpFR	0	1	-1	POOL	1103	n/a	-1	n/a	n/a	n/a	n/a	n/a
376.486	n/a	REC_WORD	188243	wordpools/wasnorm_wordpool.txt	LTP078	ltpFR	0	1	-1	CAR	241	n/a	-1	n/a	n/a	n/a	n/a	n/a
378.742	n/a	REC_WORD	189371	wordpools/wasnorm_wordpool.txt	LTP078	ltpFR	0	1	-1	PROFESSIONAL	1130	n/a	-1	n/a	n/a	n/a	n/a	n/a
381.574	n/a	REC_WORD	190787	wordpools/wasnorm_wordpool.txt	LTP078	ltpFR	0	1	-1	MEAL	882	n/a	-1	n/a	n/a	n/a	n/a	n/a
382.462	n/a	REC_WORD	191231	wordpools/wasnorm_wordpool.txt	LTP078	ltpFR	0	1	-1	TURKEY	1520	n/a	-1	n/a	n/a	n/a	n/a	n/a
383.61	n/a	REC_WORD	191805	wordpools/wasnorm_wordpool.txt	LTP078	ltpFR	0	1	-1	TROUT	1511	n/a	-1	n/a	n/a	n/a	n/a	n/a
398.018	n/a	REC_WORD	199009	wordpools/wasnorm_wordpool.txt	LTP078	ltpFR	0	1	n/a	VETERNARIAN	-1	n/a	n/a	n/a	n/a	n/a	n/a	n/a
399.08	n/a	REC_WORD	199540	wordpools/wasnorm_wordpool.txt	LTP078	ltpFR	0	1	-1	EAGLE	512	n/a	-1	n/a	n/a	n/a	n/a	n/a
405.71	n/a	REC_WORD	202855	wordpools/wasnorm_wordpool.txt	LTP078	ltpFR	0	1	-1	PISTON	1076	n/a	-1	n/a	n/a	n/a	n/a	n/a
453.644	n/a	WORD	226822	wordpools/wasnorm_wordpool.txt	LTP078	ltpFR	0	2	-1	DOLLAR	482	n/a	-1	1	1.0	1.0	upper	../fonts/Verdana.ttf
457.52	n/a	WORD	228760	wordpools/wasnorm_wordpool.txt	LTP078	ltpFR	0	2	-1	RIDER	1191	n/a	-1	1	1.0	1.0	upper	../fonts/Verdana.ttf
461.362	n/a	WORD	230681	wordpools/wasnorm_wordpool.txt	LTP078	ltpFR	0	2	-1	PITCHFORK	1078	n/a	-1	1	1.0	1.0	upper	../fonts/Verdana.ttf
465.194	n/a	WORD	232597	wordpools/wasnorm_wordpool.txt	LTP078	ltpFR	0	2	-1	COCKTAIL	338	n/a	-1	1	1.0	1.0	upper	../fonts/Verdana.ttf
469.086	n/a	WORD	234543	wordpools/wasnorm_wordpool.txt	LTP078	ltpFR	0	2	-1	PIGMENT	1066	n/a	-1	1	1.0	1.0	upper	../fonts/Verdana.ttf
473.102	n/a	WORD	236551	wordpools/wasnorm_wordpool.txt	LTP078	ltpFR	0	2	-1	CARDINAL	244	n/a	-1	1	1.0	1.0	upper	../fonts/Verdana.ttf
477.134	n/a	WORD	238567	wordpools/wasnorm_wordpool.txt	LTP078	ltpFR	0	2	-1	DRIVEWAY	500	n/a	-1	1	1.0	1.0	upper	../fonts/Verdana.ttf
481.192	n/a	WORD	240596	wordpools/wasnorm_wordpool.txt	LTP078	ltpFR	0	2	-1	CHAIRPERSON	275	n/a	-1	1	1.0	1.0	upper	../fonts/Verdana.ttf
485.302	n/a	WORD	242651	wordpools/wasnorm_wordpool.txt	LTP078	ltpFR	0	2	-1	LUMBER	848	n/a	-1	1	1.0	1.0	upper	../fonts/Verdana.ttf
489.46	n/a	WORD	244730	wordpools/wasnorm_wordpool.txt	LTP078	ltpFR	0	2	-1	BULLETIN	195	n/a	-1	1	1.0	1.0	upper	../fonts/Verdana.ttf
493.486	n/a	WORD	246743	wordpools/wasnorm_wordpool.txt	LTP078	ltpFR	0	2	-1	DART	440	n/a	-1	1	1.0	1.0	upper	../fonts/Verdana.ttf
497.594	n/a	WORD	248797	wordpools/wasnorm_wordpool.txt	LTP078	ltpFR	0	2	-1	LASER	801	n/a	-1	1	1.0	1.0	upper	../fonts/Verdana.ttf
501.61	n/a	WORD	250805	wordpools/wasnorm_wordpool.txt	LTP078	ltpFR	0	2	-1	ELECTRICIAN	521	n/a	-1	1	1.0	1.0	upper	../fonts/Verdana.ttf
505.594	n/a	WORD	252797	wordpools/wasnorm_wordpool.txt	LTP078	ltpFR	0	2	-1	BIRD	129	n/a	-1	1	1.0	1.0	upper	../fonts/Verdana.ttf
509.76	n/a	WORD	254880	wordpools/wasnorm_wordpool.txt	LTP078	ltpFR	0	2	-1	SHRUB	1299	n/a	-1	1	1.0	1.0	upper	../fonts/Verdana.ttf
513.626	n/a	WORD	256813	wordpools/wasnorm_wordpool.txt	LTP078	ltpFR	0	2	-1	STICKER	1382	n/a	-1	1	1.0	1.0	upper	../fonts/Verdana.ttf
519.31	n/a	REC_START	259655	n/a	LTP078	ltpFR	0	2	n/a	n/a	n/a	n/a	n/a	n/a	n/a	n/a	n/a	n/a
520.428	n/a	REC_WORD	260214	wordpools/wasnorm_wordpool.txt	LTP078	ltpFR	0	2	-1	BIRD	129	n/a	-1	n/a	n/a	n/a	n/a	n/a
521.32	n/a	REC_WORD	260660	wordpools/wasnorm_wordpool.txt	LTP078	ltpFR	0	2	-1	STICKER	1382	n/a	-1	n/a	n/a	n/a	n/a	n/a
522.142	n/a	REC_WORD	261071	wordpools/wasnorm_wordpool.txt	LTP078	ltpFR	0	2	-1	SHRUB	1299	n/a	-1	n/a	n/a	n/a	n/a	n/a
524.488	n/a	REC_WORD	262244	wordpools/wasnorm_wordpool.txt	LTP078	ltpFR	0	2	-1	RIDER	1191	n/a	-1	n/a	n/a	n/a	n/a	n/a
525.278	n/a	REC_WORD	262639	wordpools/wasnorm_wordpool.txt	LTP078	ltpFR	0	2	-1	DOLLAR	482	n/a	-1	n/a	n/a	n/a	n/a	n/a
530.686	n/a	REC_WORD	265343	wordpools/wasnorm_wordpool.txt	LTP078	ltpFR	0	2	-1	COCKTAIL	338	n/a	-1	n/a	n/a	n/a	n/a	n/a
531.582	n/a	REC_WORD	265791	wordpools/wasnorm_wordpool.txt	LTP078	ltpFR	0	2	-1	PIGMENT	1066	n/a	-1	n/a	n/a	n/a	n/a	n/a
537.694	n/a	REC_WORD	268847	wordpools/wasnorm_wordpool.txt	LTP078	ltpFR	0	2	-1	CHAIRPERSON	275	n/a	-1	n/a	n/a	n/a	n/a	n/a
539.066	n/a	REC_WORD	269533	wordpools/wasnorm_wordpool.txt	LTP078	ltpFR	0	2	-1	DRIVEWAY	500	n/a	-1	n/a	n/a	n/a	n/a	n/a
552.442	n/a	REC_WORD	276221	wordpools/wasnorm_wordpool.txt	LTP078	ltpFR	0	2	-1	BULLETIN	195	n/a	-1	n/a	n/a	n/a	n/a	n/a
553.206	n/a	REC_WORD	276603	wordpools/wasnorm_wordpool.txt	LTP078	ltpFR	0	2	-1	DART	440	n/a	-1	n/a	n/a	n/a	n/a	n/a
553.884	n/a	REC_WORD	276942	wordpools/wasnorm_wordpool.txt	LTP078	ltpFR	0	2	-1	LASER	801	n/a	-1	n/a	n/a	n/a	n/a	n/a
600.756	n/a	WORD	300378	wordpools/wasnorm_wordpool.txt	LTP078	ltpFR	0	3	-1	STOMACH	1384	n/a	-1	1	1.0	1.0	upper	../fonts/Verdana.ttf
604.682	n/a	WORD	302341	wordpools/wasnorm_wordpool.txt	LTP078	ltpFR	0	3	-1	STREAM	1392	n/a	-1	1	1.0	1.0	upper	../fonts/Verdana.ttf
608.674	n/a	WORD	304337	wordpools/wasnorm_wordpool.txt	LTP078	ltpFR	0	3	-1	WART	1590	n/a	-1	1	1.0	1.0	upper	../fonts/Verdana.ttf
612.532	n/a	WORD	306266	wordpools/wasnorm_wordpool.txt	LTP078	ltpFR	0	3	-1	BELLY	119	n/a	-1	1	1.0	1.0	upper	../fonts/Verdana.ttf
616.466	n/a	WORD	308233	wordpools/wasnorm_wordpool.txt	LTP078	ltpFR	0	3	-1	LEAF	808	n/a	-1	1	1.0	1.0	upper	../fonts/Verdana.ttf
620.466	n/a	WORD	310233	wordpools/wasnorm_wordpool.txt	LTP078	ltpFR	0	3	-1	TREE	1502	n/a	-1	1	1.0	1.0	upper	../fonts/Verdana.ttf
624.298	n/a	WORD	312149	wordpools/wasnorm_wordpool.txt	LTP078	ltpFR	0	3	-1	TELESCOPE	1446	n/a	-1	1	1.0	1.0	upper	../fonts/Verdana.ttf
628.138	n/a	WORD	314069	wordpools/wasnorm_wordpool.txt	LTP078	ltpFR	0	3	-1	KNIFE	785	n/a	-1	1	1.0	1.0	upper	../fonts/Verdana.ttf
631.974	n/a	WORD	315987	wordpools/wasnorm_wordpool.txt	LTP078	ltpFR	0	3	-1	COAT	333	n/a	-1	1	1.0	1.0	upper	../fonts/Verdana.ttf
635.956	n/a	WORD	317978	wordpools/wasnorm_wordpool.txt	LTP078	ltpFR	0	3	-1	LIVER	833	n/a	-1	1	1.0	1.0	upper	../fonts/Verdana.ttf
640.098	n/a	WORD	320049	wordpools/wasnorm_wordpool.txt	LTP078	ltpFR	0	3	-1	SUBWAY	1400	n/a	-1	1	1.0	1.0	upper	../fonts/Verdana.ttf
644.138	n/a	WORD	322069	wordpools/wasnorm_wordpool.txt	LTP078	ltpFR	0	3	-1	METEOR	889	n/a	-1	1	1.0	1.0	upper	../fonts/Verdana.ttf
647.972	n/a	WORD	323986	wordpools/wasnorm_wordpool.txt	LTP078	ltpFR	0	3	-1	CREAM	402	n/a	-1	1	1.0	1.0	upper	../fonts/Verdana.ttf
651.88	n/a	WORD	325940	wordpools/wasnorm_wordpool.txt	LTP078	ltpFR	0	3	-1	STEREO	1378	n/a	-1	1	1.0	1.0	upper	../fonts/Verdana.ttf
655.864	n/a	WORD	327932	wordpools/wasnorm_wordpool.txt	LTP078	ltpFR	0	3	-1	LOLLIPOP	842	n/a	-1	1	1.0	1.0	upper	../fonts/Verdana.ttf
659.83	n/a	WORD	329915	wordpools/wasnorm_wordpool.txt	LTP078	ltpFR	0	3	-1	SUGAR	1401	n/a	-1	1	1.0	1.0	upper	../fonts/Verdana.ttf
665.73	n/a	REC_START	332865	n/a	LTP078	ltpFR	0	3	n/a	n/a	n/a	n/a	n/a	n/a	n/a	n/a	n/a	n/a
666.104	n/a	REC_WORD	333052	wordpools/wasnorm_wordpool.txt	LTP078	ltpFR	0	3	-1	CREAM	402	n/a	-1	n/a	n/a	n/a	n/a	n/a
666.506	n/a	REC_WORD	333253	wordpools/wasnorm_wordpool.txt	LTP078	ltpFR	0	3	-1	SUGAR	1401	n/a	-1	n/a	n/a	n/a	n/a	n/a
668.45	n/a	REC_WORD	334225	wordpools/wasnorm_wordpool.txt	LTP078	ltpFR	0	3	-1	LOLLIPOP	842	n/a	-1	n/a	n/a	n/a	n/a	n/a
669.576	n/a	REC_WORD	334788	wordpools/wasnorm_wordpool.txt	LTP078	ltpFR	0	3	-1	STEREO	1378	n/a	-1	n/a	n/a	n/a	n/a	n/a
671.402	n/a	REC_WORD	335701	wordpools/wasnorm_wordpool.txt	LTP078	ltpFR	0	3	-1	STOMACH	1384	n/a	-1	n/a	n/a	n/a	n/a	n/a
672.256	n/a	REC_WORD	336128	wordpools/wasnorm_wordpool.txt	LTP078	ltpFR	0	3	-1	WART	1590	n/a	-1	n/a	n/a	n/a	n/a	n/a
673.484	n/a	REC_WORD	336742	wordpools/wasnorm_wordpool.txt	LTP078	ltpFR	0	3	-1	STREAM	1392	n/a	-1	n/a	n/a	n/a	n/a	n/a
675.334	n/a	REC_WORD	337667	wordpools/wasnorm_wordpool.txt	LTP078	ltpFR	0	3	-1	TELESCOPE	1446	n/a	-1	n/a	n/a	n/a	n/a	n/a
676.124	n/a	REC_WORD	338062	wordpools/wasnorm_wordpool.txt	LTP078	ltpFR	0	3	-1	TREE	1502	n/a	-1	n/a	n/a	n/a	n/a	n/a
677.086	n/a	REC_WORD	338543	wordpools/wasnorm_wordpool.txt	LTP078	ltpFR	0	3	-1	LEAF	808	n/a	-1	n/a	n/a	n/a	n/a	n/a
680.104	n/a	REC_WORD	340052	wordpools/wasnorm_wordpool.txt	LTP078	ltpFR	0	3	-1	LIVER	833	n/a	-1	n/a	n/a	n/a	n/a	n/a
681.306	n/a	REC_WORD	340653	wordpools/wasnorm_wordpool.txt	LTP078	ltpFR	0	3	-1	COAT	333	n/a	-1	n/a	n/a	n/a	n/a	n/a
684.33	n/a	REC_WORD	342165	wordpools/wasnorm_wordpool.txt	LTP078	ltpFR	0	3	-1	SUBWAY	1400	n/a	-1	n/a	n/a	n/a	n/a	n/a
691.218	n/a	REC_WORD	345609	wordpools/wasnorm_wordpool.txt	LTP078	ltpFR	0	3	-1	METEOR	889	n/a	-1	n/a	n/a	n/a	n/a	n/a
714.836	n/a	REC_WORD	357418	wordpools/wasnorm_wordpool.txt	LTP078	ltpFR	0	3	-1	BELLY	119	n/a	-1	n/a	n/a	n/a	n/a	n/a
746.588	n/a	WORD	373294	wordpools/wasnorm_wordpool.txt	LTP078	ltpFR	0	4	-1	BOMB	147	n/a	-1	1	1.0	1.0	upper	../fonts/Verdana.ttf
750.404	n/a	WORD	375202	wordpools/wasnorm_wordpool.txt	LTP078	ltpFR	0	4	-1	ASTRONAUT	51	n/a	-1	1	1.0	1.0	upper	../fonts/Verdana.ttf
754.304	n/a	WORD	377152	wordpools/wasnorm_wordpool.txt	LTP078	ltpFR	0	4	-1	GROCERIES	663	n/a	-1	1	1.0	1.0	upper	../fonts/Verdana.ttf
758.262	n/a	WORD	379131	wordpools/wasnorm_wordpool.txt	LTP078	ltpFR	0	4	-1	UNIFORM	1539	n/a	-1	1	1.0	1.0	upper	../fonts/Verdana.ttf
762.32	n/a	WORD	381160	wordpools/wasnorm_wordpool.txt	LTP078	ltpFR	0	4	-1	HANDCUFFS	685	n/a	-1	1	1.0	1.0	upper	../fonts/Verdana.ttf
766.202	n/a	WORD	383101	wordpools/wasnorm_wordpool.txt	LTP078	ltpFR	0	4	-1	WITNESS	1618	n/a	-1	1	1.0	1.0	upper	../fonts/Verdana.ttf
770.168	n/a	WORD	385084	wordpools/wasnorm_wordpool.txt	LTP078	ltpFR	0	4	-1	STAR	1373	n/a	-1	1	1.0	1.0	upper	../fonts/Verdana.ttf
774.144	n/a	WORD	387072	wordpools/wasnorm_wordpool.txt	LTP078	ltpFR	0	4	-1	COOKIE	374	n/a	-1	1	1.0	1.0	upper	../fonts/Verdana.ttf
777.97	n/a	WORD	388985	wordpools/wasnorm_wordpool.txt	LTP078	ltpFR	0	4	-1	CHARCOAL	281	n/a	-1	1	1.0	1.0	upper	../fonts/Verdana.ttf
781.81	n/a	WORD	390905	wordpools/wasnorm_wordpool.txt	LTP078	ltpFR	0	4	-1	ROOT	1210	n/a	-1	1	1.0	1.0	upper	../fonts/Verdana.ttf
785.644	n/a	WORD	392822	wordpools/wasnorm_wordpool.txt	LTP078	ltpFR	0	4	-1	ELM	527	n/a	-1	1	1.0	1.0	upper	../fonts/Verdana.ttf
789.594	n/a	WORD	394797	wordpools/wasnorm_wordpool.txt	LTP078	ltpFR	0	4	-1	SCRIBBLE	1256	n/a	-1	1	1.0	1.0	upper	../fonts/Verdana.ttf
793.57	n/a	WORD	396785	wordpools/wasnorm_wordpool.txt	LTP078	ltpFR	0	4	-1	ARTIST	43	n/a	-1	1	1.0	1.0	upper	../fonts/Verdana.ttf
797.628	n/a	WORD	398814	wordpools/wasnorm_wordpool.txt	LTP078	ltpFR	0	4	-1	SAW	1239	n/a	-1	1	1.0	1.0	upper	../fonts/Verdana.ttf
801.744	n/a	WORD	400872	wordpools/wasnorm_wordpool.txt	LTP078	ltpFR	0	4	-1	MILK	895	n/a	-1	1	1.0	1.0	upper	../fonts/Verdana.ttf
805.952	n/a	WORD	402976	wordpools/wasnorm_wordpool.txt	LTP078	ltpFR	0	4	-1	CAFE	216	n/a	-1	1	1.0	1.0	upper	../fonts/Verdana.ttf
811.662	n/a	REC_START	405831	n/a	LTP078	ltpFR	0	4	n/a	n/a	n/a	n/a	n/a	n/a	n/a	n/a	n/a	n/a
812.026	n/a	REC_WORD	406013	wordpools/wasnorm_wordpool.txt	LTP078	ltpFR	0	4	-1	ARTIST	43	n/a	-1	n/a	n/a	n/a	n/a	n/a
812.644	n/a	REC_WORD	406322	wordpools/wasnorm_wordpool.txt	LTP078	ltpFR	0	4	-1	SAW	1239	n/a	-1	n/a	n/a	n/a	n/a	n/a
813.562	n/a	REC_WORD	406781	wordpools/wasnorm_wordpool.txt	LTP078	ltpFR	0	4	-1	MILK	895	n/a	-1	n/a	n/a	n/a	n/a	n/a
814.126	n/a	REC_WORD	407063	wordpools/wasnorm_wordpool.txt	LTP078	ltpFR	0	4	-1	CAFE	216	n/a	-1	n/a	n/a	n/a	n/a	n/a
815.01	n/a	REC_WORD	407505	wordpools/wasnorm_wordpool.txt	LTP078	ltpFR	0	4	-1	ASTRONAUT	51	n/a	-1	n/a	n/a	n/a	n/a	n/a
816.012	n/a	REC_WORD	408006	wordpools/wasnorm_wordpool.txt	LTP078	ltpFR	0	4	-1	BOMB	147	n/a	-1	n/a	n/a	n/a	n/a	n/a
816.68	n/a	REC_WORD	408340	wordpools/wasnorm_wordpool.txt	LTP078	ltpFR	0	4	-1	GROCERIES	663	n/a	-1	n/a	n/a	n/a	n/a	n/a
825.392	n/a	REC_WORD	412696	wordpools/wasnorm_wordpool.txt	LTP078	ltpFR	0	4	-1	ELM	527	n/a	-1	n/a	n/a	n/a	n/a	n/a
826.254	n/a	REC_WORD	413127	wordpools/wasnorm_wordpool.txt	LTP078	ltpFR	0	4	-1	CHARCOAL	281	n/a	-1	n/a	n/a	n/a	n/a	n/a
827.596	n/a	REC_WORD	413798	wordpools/wasnorm_wordpool.txt	LTP078	ltpFR	0	4	-1	SCRIBBLE	1256	n/a	-1	n/a	n/a	n/a	n/a	n/a
828.838	n/a	REC_WORD	414419	wordpools/wasnorm_wordpool.txt	LTP078	ltpFR	0	4	-1	ROOT	1210	n/a	-1	n/a	n/a	n/a	n/a	n/a
832.446	n/a	REC_WORD	416223	wordpools/wasnorm_wordpool.txt	LTP078	ltpFR	0	4	-1	WITNESS	1618	n/a	-1	n/a	n/a	n/a	n/a	n/a
833.18	n/a	REC_WORD	416590	wordpools/wasnorm_wordpool.txt	LTP078	ltpFR	0	4	-1	HANDCUFFS	685	n/a	-1	n/a	n/a	n/a	n/a	n/a
835.988	n/a	REC_WORD	417994	wordpools/wasnorm_wordpool.txt	LTP078	ltpFR	0	4	-1	COOKIE	374	n/a	-1	n/a	n/a	n/a	n/a	n/a
840.562	n/a	REC_WORD	420281	wordpools/wasnorm_wordpool.txt	LTP078	ltpFR	0	4	-1	STAR	1373	n/a	-1	n/a	n/a	n/a	n/a	n/a
997.78	n/a	WORD	498890	wordpools/wasnorm_wordpool.txt	LTP078	ltpFR	0	5	0	CONCERT	360	n/a	2	1	0.412841796875	0.57763671875	upper	../fonts/zerothre.ttf
999.514	n/a	KEY_MSG	499757	n/a	LTP078	ltpFR	0	5	n/a	n/a	n/a	n/a	n/a	n/a	n/a	n/a	n/a	n/a
1001.838	n/a	WORD	500919	wordpools/wasnorm_wordpool.txt	LTP078	ltpFR	0	5	0	KID	775	n/a	3	1	0.412841796875	0.57763671875	upper	../fonts/zerothre.ttf
1003.506	n/a	KEY_MSG	501753	n/a	LTP078	ltpFR	0	5	n/a	n/a	n/a	n/a	n/a	n/a	n/a	n/a	n/a	n/a
1006.18	n/a	WORD	503090	wordpools/wasnorm_wordpool.txt	LTP078	ltpFR	0	5	0	LEG	809	n/a	1	1	0.412841796875	0.57763671875	upper	../fonts/zerothre.ttf
1010.08	n/a	WORD	505040	wordpools/wasnorm_wordpool.txt	LTP078	ltpFR	0	5	0	BLANKET	135	n/a	1	1	0.412841796875	0.57763671875	upper	../fonts/zerothre.ttf
1014.096	n/a	WORD	507048	wordpools/wasnorm_wordpool.txt	LTP078	ltpFR	0	5	0	OVEN	991	n/a	1	1	0.412841796875	0.57763671875	upper	../fonts/zerothre.ttf
1018.214	n/a	WORD	509107	wordpools/wasnorm_wordpool.txt	LTP078	ltpFR	0	5	0	LIBRARY	816	n/a	1	1	0.412841796875	0.57763671875	upper	../fonts/zerothre.ttf
1022.18	n/a	WORD	511090	wordpools/wasnorm_wordpool.txt	LTP078	ltpFR	0	5	0	FIST	572	n/a	0	1	0.412841796875	0.57763671875	upper	../fonts/zerothre.ttf
1026.38	n/a	WORD	513190	wordpools/wasnorm_wordpool.txt	LTP078	ltpFR	0	5	0	PASTRY	1022	n/a	0	1	0.412841796875	0.57763671875	upper	../fonts/zerothre.ttf
1030.538	n/a	WORD	515269	wordpools/wasnorm_wordpool.txt	LTP078	ltpFR	0	5	0	TOY	1492	n/a	0	1	0.412841796875	0.57763671875	upper	../fonts/zerothre.ttf
1034.354	n/a	WORD	517177	wordpools/wasnorm_wordpool.txt	LTP078	ltpFR	0	5	0	FOOT	590	n/a	0	1	0.412841796875	0.57763671875	upper	../fonts/zerothre.ttf
1038.438	n/a	WORD	519219	wordpools/wasnorm_wordpool.txt	LTP078	ltpFR	0	5	0	COBBLER	335	n/a	0	1	0.412841796875	0.57763671875	upper	../fonts/zerothre.ttf
1042.538	n/a	WORD	521269	wordpools/wasnorm_wordpool.txt	LTP078	ltpFR	0	5	0	THIGH	1457	n/a	0	1	0.412841796875	0.57763671875	upper	../fonts/zerothre.ttf
1046.58	n/a	WORD	523290	wordpools/wasnorm_wordpool.txt	LTP078	ltpFR	0	5	0	APPLE	33	n/a	0	1	0.412841796875	0.57763671875	upper	../fonts/zerothre.ttf
1050.414	n/a	WORD	525207	wordpools/wasnorm_wordpool.txt	LTP078	ltpFR	0	5	0	REFEREE	1178	n/a	1	1	0.412841796875	0.57763671875	upper	../fonts/zerothre.ttf
1054.312	n/a	WORD	527156	wordpools/wasnorm_wordpool.txt	LTP078	ltpFR	0	5	0	CUSTARD	429	n/a	0	1	0.412841796875	0.57763671875	upper	../fonts/zerothre.ttf
1058.488	n/a	WORD	529244	wordpools/wasnorm_wordpool.txt	LTP078	ltpFR	0	5	0	CHOCOLATE	306	n/a	0	1	0.412841796875	0.57763671875	upper	../fonts/zerothre.ttf
1064.288	n/a	REC_START	532144	n/a	LTP078	ltpFR	0	5	n/a	n/a	n/a	n/a	n/a	n/a	n/a	n/a	n/a	n/a
1064.896	n/a	REC_WORD	532448	wordpools/wasnorm_wordpool.txt	LTP078	ltpFR	0	5	0	REFEREE	1178	n/a	1	n/a	n/a	n/a	n/a	n/a
1065.636	n/a	REC_WORD	532818	wordpools/wasnorm_wordpool.txt	LTP078	ltpFR	0	5	0	CUSTARD	429	n/a	0	n/a	n/a	n/a	n/a	n/a
1066.454	n/a	REC_WORD	533227	wordpools/wasnorm_wordpool.txt	LTP078	ltpFR	0	5	0	CHOCOLATE	306	n/a	0	n/a	n/a	n/a	n/a	n/a
1067.452	n/a	REC_WORD	533726	wordpools/wasnorm_wordpool.txt	LTP078	ltpFR	0	5	0	LIBRARY	816	n/a	1	n/a	n/a	n/a	n/a	n/a
1070.454	n/a	REC_WORD	535227	wordpools/wasnorm_wordpool.txt	LTP078	ltpFR	0	5	0	APPLE	33	n/a	0	n/a	n/a	n/a	n/a	n/a
1071.212	n/a	REC_WORD	535606	wordpools/wasnorm_wordpool.txt	LTP078	ltpFR	0	5	0	COBBLER	335	n/a	0	n/a	n/a	n/a	n/a	n/a
1072.384	n/a	REC_WORD	536192	wordpools/wasnorm_wordpool.txt	LTP078	ltpFR	0	5	0	FOOT	590	n/a	0	n/a	n/a	n/a	n/a	n/a
1074.506	n/a	REC_WORD	537253	wordpools/wasnorm_wordpool.txt	LTP078	ltpFR	0	5	0	TOY	1492	n/a	0	n/a	n/a	n/a	n/a	n/a
1076.67	n/a	REC_WORD	538335	wordpools/wasnorm_wordpool.txt	LTP078	ltpFR	0	5	0	OVEN	991	n/a	1	n/a	n/a	n/a	n/a	n/a
1085.836	n/a	REC_WORD	542918	wordpools/wasnorm_wordpool.txt	LTP078	ltpFR	0	5	0	BLANKET	135	n/a	1	n/a	n/a	n/a	n/a	n/a
1088.424	n/a	REC_WORD	544212	wordpools/wasnorm_wordpool.txt	LTP078	ltpFR	0	5	n/a	BOY	161	n/a	n/a	n/a	n/a	n/a	n/a	n/a
1097.644	n/a	REC_WORD	548822	wordpools/wasnorm_wordpool.txt	LTP078	ltpFR	0	5	0	THIGH	1457	n/a	0	n/a	n/a	n/a	n/a	n/a
1113.214	n/a	REC_WORD	556607	wordpools/wasnorm_wordpool.txt	LTP078	ltpFR	0	5	0	CHOCOLATE	306	n/a	0	n/a	n/a	n/a	n/a	n/a
1144.312	n/a	WORD	572156	wordpools/wasnorm_wordpool.txt	LTP078	ltpFR	0	6	0	EMPLOYER	532	n/a	1	1	0.412841796875	0.57763671875	upper	../fonts/zerothre.ttf
1148.436	n/a	WORD	574218	wordpools/wasnorm_wordpool.txt	LTP078	ltpFR	0	6	0	SILK	1307	n/a	0	1	0.412841796875	0.57763671875	upper	../fonts/zerothre.ttf
1152.402	n/a	WORD	576201	wordpools/wasnorm_wordpool.txt	LTP078	ltpFR	0	6	0	PLANE	1081	n/a	1	1	0.412841796875	0.57763671875	upper	../fonts/zerothre.ttf
1156.294	n/a	WORD	578147	wordpools/wasnorm_wordpool.txt	LTP078	ltpFR	0	6	0	FLY	586	n/a	0	1	0.412841796875	0.57763671875	upper	../fonts/zerothre.ttf
1160.26	n/a	WORD	580130	wordpools/wasnorm_wordpool.txt	LTP078	ltpFR	0	6	0	FIN	566	n/a	0	1	0.412841796875	0.57763671875	upper	../fonts/zerothre.ttf
1164.452	n/a	WORD	582226	wordpools/wasnorm_wordpool.txt	LTP078	ltpFR	0	6	0	BED	110	n/a	1	1	0.412841796875	0.57763671875	upper	../fonts/zerothre.ttf
1168.536	n/a	WORD	584268	wordpools/wasnorm_wordpool.txt	LTP078	ltpFR	0	6	0	WHEAT	1602	n/a	0	1	0.412841796875	0.57763671875	upper	../fonts/zerothre.ttf
1172.734	n/a	WORD	586367	wordpools/wasnorm_wordpool.txt	LTP078	ltpFR	0	6	0	CHICK	296	n/a	0	1	0.412841796875	0.57763671875	upper	../fonts/zerothre.ttf
1176.742	n/a	WORD	588371	wordpools/wasnorm_wordpool.txt	LTP078	ltpFR	0	6	0	BUTLER	204	n/a	1	1	0.412841796875	0.57763671875	upper	../fonts/zerothre.ttf
1180.776	n/a	WORD	590388	wordpools/wasnorm_wordpool.txt	LTP078	ltpFR	0	6	0	DIRT	472	n/a	0	1	0.412841796875	0.57763671875	upper	../fonts/zerothre.ttf
1184.71	n/a	WORD	592355	wordpools/wasnorm_wordpool.txt	LTP078	ltpFR	0	6	0	CRATER	400	n/a	1	1	0.412841796875	0.57763671875	upper	../fonts/zerothre.ttf
1188.908	n/a	WORD	594454	wordpools/wasnorm_wordpool.txt	LTP078	ltpFR	0	6	0	TOASTER	1472	n/a	0	1	0.412841796875	0.57763671875	upper	../fonts/zerothre.ttf
1193.042	n/a	WORD	596521	wordpools/wasnorm_wordpool.txt	LTP078	ltpFR	0	6	0	SHARK	1275	n/a	1	1	0.412841796875	0.57763671875	upper	../fonts/zerothre.ttf
1197.092	n/a	WORD	598546	wordpools/wasnorm_wordpool.txt	LTP078	ltpFR	0	6	0	TRANSPLANT	1496	n/a	0	1	0.412841796875	0.57763671875	upper	../fonts/zerothre.ttf
1201.268	n/a	WORD	600634	wordpools/wasnorm_wordpool.txt	LTP078	ltpFR	0	6	0	ORGAN	984	n/a	1	1	0.412841796875	0.57763671875	upper	../fonts/zerothre.ttf
1205.158	n/a	WORD	602579	wordpools/wasnorm_wordpool.txt	LTP078	ltpFR	0	6	0	FAIRY	549	n/a	0	1	0.412841796875	0.57763671875	upper	../fonts/zerothre.ttf
1210.776	n/a	REC_START	605388	n/a	LTP078	ltpFR	0	6	n/a	n/a	n/a	n/a	n/a	n/a	n/a	n/a	n/a	n/a
1212.062	n/a	REC_WORD	606031	wordpools/wasnorm_wordpool.txt	LTP078	ltpFR	0	6	0	SHARK	1275	n/a	1	n/a	n/a	n/a	n/a	n/a
1212.688	n/a	REC_WORD	606344	wordpools/wasnorm_wordpool.txt	LTP078	ltpFR	0	6	0	TRANSPLANT	1496	n/a	0	n/a	n/a	n/a	n/a	n/a
1213.734	n/a	REC_WORD	606867	wordpools/wasnorm_wordpool.txt	LTP078	ltpFR	0	6	0	FAIRY	549	n/a	0	n/a	n/a	n/a	n/a	n/a
1214.692	n/a	REC_WORD	607346	wordpools/wasnorm_wordpool.txt	LTP078	ltpFR	0	6	0	BUTLER	204	n/a	1	n/a	n/a	n/a	n/a	n/a
1215.794	n/a	REC_WORD	607897	wordpools/wasnorm_wordpool.txt	LTP078	ltpFR	0	6	0	CHICK	296	n/a	0	n/a	n/a	n/a	n/a	n/a
1216.528	n/a	REC_WORD	608264	wordpools/wasnorm_wordpool.txt	LTP078	ltpFR	0	6	0	DIRT	472	n/a	0	n/a	n/a	n/a	n/a	n/a
1217.564	n/a	REC_WORD	608782	wordpools/wasnorm_wordpool.txt	LTP078	ltpFR	0	6	0	FLY	586	n/a	0	n/a	n/a	n/a	n/a	n/a
1218.282	n/a	REC_WORD	609141	wordpools/wasnorm_wordpool.txt	LTP078	ltpFR	0	6	0	FIN	566	n/a	0	n/a	n/a	n/a	n/a	n/a
1221.328	n/a	REC_WORD	610664	wordpools/wasnorm_wordpool.txt	LTP078	ltpFR	0	6	0	PLANE	1081	n/a	1	n/a	n/a	n/a	n/a	n/a
1223.248	n/a	REC_WORD	611624	wordpools/wasnorm_wordpool.txt	LTP078	ltpFR	0	6	0	EMPLOYER	532	n/a	1	n/a	n/a	n/a	n/a	n/a
1224.068	n/a	REC_WORD	612034	wordpools/wasnorm_wordpool.txt	LTP078	ltpFR	0	6	0	SILK	1307	n/a	0	n/a	n/a	n/a	n/a	n/a
1232.232	n/a	REC_WORD	616116	wordpools/wasnorm_wordpool.txt	LTP078	ltpFR	0	6	0	ORGAN	984	n/a	1	n/a	n/a	n/a	n/a	n/a
1232.874	n/a	REC_WORD	616437	wordpools/wasnorm_wordpool.txt	LTP078	ltpFR	0	6	0	TRANSPLANT	1496	n/a	0	n/a	n/a	n/a	n/a	n/a
1240.704	n/a	REC_WORD	620352	wordpools/wasnorm_wordpool.txt	LTP078	ltpFR	0	6	0	FAIRY	549	n/a	0	n/a	n/a	n/a	n/a	n/a
1290.998	n/a	WORD	645499	wordpools/wasnorm_wordpool.txt	LTP078	ltpFR	0	7	0	GAUZE	626	n/a	0	1	0.412841796875	0.57763671875	upper	../fonts/zerothre.ttf
1294.972	n/a	WORD	647486	wordpools/wasnorm_wordpool.txt	LTP078	ltpFR	0	7	0	BENCH	121	n/a	1	1	0.412841796875	0.57763671875	upper	../fonts/zerothre.ttf
1299.006	n/a	WORD	649503	wordpools/wasnorm_wordpool.txt	LTP078	ltpFR	0	7	0	CABIN	211	n/a	1	1	0.412841796875	0.57763671875	upper	../fonts/zerothre.ttf
1302.982	n/a	WORD	651491	wordpools/wasnorm_wordpool.txt	LTP078	ltpFR	0	7	0	HALL	677	n/a	1	1	0.412841796875	0.57763671875	upper	../fonts/zerothre.ttf
1307.122	n/a	WORD	653561	wordpools/wasnorm_wordpool.txt	LTP078	ltpFR	0	7	0	DESK	452	n/a	1	1	0.412841796875	0.57763671875	upper	../fonts/zerothre.ttf
1310.964	n/a	WORD	655482	wordpools/wasnorm_wordpool.txt	LTP078	ltpFR	0	7	0	HEART	697	n/a	0	1	0.412841796875	0.57763671875	upper	../fonts/zerothre.ttf
1314.88	n/a	WORD	657440	wordpools/wasnorm_wordpool.txt	LTP078	ltpFR	0	7	0	SMOG	1330	n/a	1	1	0.412841796875	0.57763671875	upper	../fonts/zerothre.ttf
1318.746	n/a	WORD	659373	wordpools/wasnorm_wordpool.txt	LTP078	ltpFR	0	7	0	ROBE	1198	n/a	1	1	0.412841796875	0.57763671875	upper	../fonts/zerothre.ttf
1322.84	n/a	WORD	661420	wordpools/wasnorm_wordpool.txt	LTP078	ltpFR	0	7	0	WALLET	1583	n/a	0	1	0.412841796875	0.57763671875	upper	../fonts/zerothre.ttf
1326.988	n/a	WORD	663494	wordpools/wasnorm_wordpool.txt	LTP078	ltpFR	0	7	0	CROWN	415	n/a	0	1	0.412841796875	0.57763671875	upper	../fonts/zerothre.ttf
1330.922	n/a	WORD	665461	wordpools/wasnorm_wordpool.txt	LTP078	ltpFR	0	7	0	RICE	1190	n/a	0	1	0.412841796875	0.57763671875	upper	../fonts/zerothre.ttf
1334.93	n/a	WORD	667465	wordpools/wasnorm_wordpool.txt	LTP078	ltpFR	0	7	0	TRAY	1498	n/a	0	1	0.412841796875	0.57763671875	upper	../fonts/zerothre.ttf
1339.138	n/a	WORD	669569	wordpools/wasnorm_wordpool.txt	LTP078	ltpFR	0	7	0	VEST	1559	n/a	n/a	1	0.412841796875	0.57763671875	upper	../fonts/zerothre.ttf
1342.162	n/a	SLOW_MSG	671081	n/a	LTP078	ltpFR	0	7	n/a	n/a	n/a	n/a	n/a	n/a	n/a	n/a	n/a	n/a
1344.648	n/a	WORD	672324	wordpools/wasnorm_wordpool.txt	LTP078	ltpFR	0	7	0	ALLEY	15	n/a	1	1	0.412841796875	0.57763671875	upper	../fonts/zerothre.ttf
1348.698	n/a	WORD	674349	wordpools/wasnorm_wordpool.txt	LTP078	ltpFR	0	7	0	CURB	426	n/a	1	1	0.412841796875	0.57763671875	upper	../fonts/zerothre.ttf
1352.714	n/a	WORD	676357	wordpools/wasnorm_wordpool.txt	LTP078	ltpFR	0	7	0	OFFICER	973	n/a	1	1	0.412841796875	0.57763671875	upper	../fonts/zerothre.ttf
1358.44	n/a	REC_START	679220	n/a	LTP078	ltpFR	0	7	n/a	n/a	n/a	n/a	n/a	n/a	n/a	n/a	n/a	n/a
1359.188	n/a	REC_WORD	679594	wordpools/wasnorm_wordpool.txt	LTP078	ltpFR	0	7	0	ALLEY	15	n/a	1	n/a	n/a	n/a	n/a	n/a
1359.756	n/a	REC_WORD	679878	wordpools/wasnorm_wordpool.txt	LTP078	ltpFR	0	7	0	CURB	426	n/a	1	n/a	n/a	n/a	n/a	n/a
1360.514	n/a	REC_WORD	680257	wordpools/wasnorm_wordpool.txt	LTP078	ltpFR	0	7	0	OFFICER	973	n/a	1	n/a	n/a	n/a	n/a	n/a
1362.16	n/a	REC_WORD	681080	wordpools/wasnorm_wordpool.txt	LTP078	ltpFR	0	7	0	TRAY	1498	n/a	0	n/a	n/a	n/a	n/a	n/a
1364.766	n/a	REC_WORD	682383	wordpools/wasnorm_wordpool.txt	LTP078	ltpFR	0	7	0	GAUZE	626	n/a	0	n/a	n/a	n/a	n/a	n/a
1365.814	n/a	REC_WORD	682907	wordpools/wasnorm_wordpool.txt	LTP078	ltpFR	0	7	0	BENCH	121	n/a	1	n/a	n/a	n/a	n/a	n/a
1367.036	n/a	REC_WORD	683518	wordpools/wasnorm_wordpool.txt	LTP078	ltpFR	0	7	0	CABIN	211	n/a	1	n/a	n/a	n/a	n/a	n/a
1368.128	n/a	REC_WORD	684064	wordpools/wasnorm_wordpool.txt	LTP078	ltpFR	0	7	0	HALL	677	n/a	1	n/a	n/a	n/a	n/a	n/a
1369.042	n/a	REC_WORD	684521	wordpools/wasnorm_wordpool.txt	LTP078	ltpFR	0	7	0	SMOG	1330	n/a	1	n/a	n/a	n/a	n/a	n/a
1370.986	n/a	REC_WORD	685493	wordpools/wasnorm_wordpool.txt	LTP078	ltpFR	0	7	0	DESK	452	n/a	1	n/a	n/a	n/a	n/a	n/a
1384.004	n/a	REC_WORD	692002	wordpools/wasnorm_wordpool.txt	LTP078	ltpFR	0	7	0	HEART	697	n/a	0	n/a	n/a	n/a	n/a	n/a
1387.914	n/a	REC_WORD	693957	wordpools/wasnorm_wordpool.txt	LTP078	ltpFR	0	7	0	OFFICER	973	n/a	1	n/a	n/a	n/a	n/a	n/a
1397.836	n/a	REC_WORD	698918	wordpools/wasnorm_wordpool.txt	LTP078	ltpFR	0	7	0	CURB	426	n/a	1	n/a	n/a	n/a	n/a	n/a
1399.158	n/a	REC_WORD	699579	wordpools/wasnorm_wordpool.txt	LTP078	ltpFR	0	7	0	ALLEY	15	n/a	1	n/a	n/a	n/a	n/a	n/a
1437.178	n/a	WORD	718589	wordpools/wasnorm_wordpool.txt	LTP078	ltpFR	0	8	0	SURGEON	1413	n/a	1	1	0.412841796875	0.57763671875	upper	../fonts/zerothre.ttf
1441.094	n/a	WORD	720547	wordpools/wasnorm_wordpool.txt	LTP078	ltpFR	0	8	0	ONION	977	n/a	0	1	0.412841796875	0.57763671875	upper	../fonts/zerothre.ttf
1445.286	n/a	WORD	722643	wordpools/wasnorm_wordpool.txt	LTP078	ltpFR	0	8	0	SNORKEL	1336	n/a	0	1	0.412841796875	0.57763671875	upper	../fonts/zerothre.ttf
1449.396	n/a	WORD	724698	wordpools/wasnorm_wordpool.txt	LTP078	ltpFR	0	8	0	STEAM	1375	n/a	0	1	0.412841796875	0.57763671875	upper	../fonts/zerothre.ttf
1453.362	n/a	WORD	726681	wordpools/wasnorm_wordpool.txt	LTP078	ltpFR	0	8	0	POLYESTER	1100	n/a	1	1	0.412841796875	0.57763671875	upper	../fonts/zerothre.ttf
1457.528	n/a	WORD	728764	wordpools/wasnorm_wordpool.txt	LTP078	ltpFR	0	8	0	NET	946	n/a	0	1	0.412841796875	0.57763671875	upper	../fonts/zerothre.ttf
1461.628	n/a	WORD	730814	wordpools/wasnorm_wordpool.txt	LTP078	ltpFR	0	8	0	NURSE	963	n/a	1	1	0.412841796875	0.57763671875	upper	../fonts/zerothre.ttf
1465.636	n/a	WORD	732818	wordpools/wasnorm_wordpool.txt	LTP078	ltpFR	0	8	0	PORCUPINE	1107	n/a	0	1	0.412841796875	0.57763671875	upper	../fonts/zerothre.ttf
1469.604	n/a	WORD	734802	wordpools/wasnorm_wordpool.txt	LTP078	ltpFR	0	8	0	ORCHESTRA	981	n/a	1	1	0.412841796875	0.57763671875	upper	../fonts/zerothre.ttf
1473.768	n/a	WORD	736884	wordpools/wasnorm_wordpool.txt	LTP078	ltpFR	0	8	0	NIECE	952	n/a	1	1	0.412841796875	0.57763671875	upper	../fonts/zerothre.ttf
1477.67	n/a	WORD	738835	wordpools/wasnorm_wordpool.txt	LTP078	ltpFR	0	8	0	ANT	25	n/a	0	1	0.412841796875	0.57763671875	upper	../fonts/zerothre.ttf
1481.586	n/a	WORD	740793	wordpools/wasnorm_wordpool.txt	LTP078	ltpFR	0	8	0	PARTNER	1017	n/a	1	1	0.412841796875	0.57763671875	upper	../fonts/zerothre.ttf
1485.478	n/a	WORD	742739	wordpools/wasnorm_wordpool.txt	LTP078	ltpFR	0	8	0	FOE	587	n/a	1	1	0.412841796875	0.57763671875	upper	../fonts/zerothre.ttf
1489.57	n/a	WORD	744785	wordpools/wasnorm_wordpool.txt	LTP078	ltpFR	0	8	0	SKIRT	1319	n/a	0	1	0.412841796875	0.57763671875	upper	../fonts/zerothre.ttf
1493.42	n/a	WORD	746710	wordpools/wasnorm_wordpool.txt	LTP078	ltpFR	0	8	0	SCARECROW	1245	n/a	1	1	0.412841796875	0.57763671875	upper	../fonts/zerothre.ttf
1497.46	n/a	WORD	748730	wordpools/wasnorm_wordpool.txt	LTP078	ltpFR	0	8	0	ROOST	1208	n/a	0	1	0.412841796875	0.57763671875	upper	../fonts/zerothre.ttf
1503.318	n/a	REC_START	751659	n/a	LTP078	ltpFR	0	8	n/a	n/a	n/a	n/a	n/a	n/a	n/a	n/a	n/a	n/a
1503.852	n/a	REC_WORD	751926	wordpools/wasnorm_wordpool.txt	LTP078	ltpFR	0	8	0	ROOST	1208	n/a	0	n/a	n/a	n/a	n/a	n/a
1504.436	n/a	REC_WORD	752218	wordpools/wasnorm_wordpool.txt	LTP078	ltpFR	0	8	0	FOE	587	n/a	1	n/a	n/a	n/a	n/a	n/a
1505.574	n/a	REC_WORD	752787	wordpools/wasnorm_wordpool.txt	LTP078	ltpFR	0	8	0	SCARECROW	1245	n/a	1	n/a	n/a	n/a	n/a	n/a
1506.686	n/a	REC_WORD	753343	wordpools/wasnorm_wordpool.txt	LTP078	ltpFR	0	8	0	SKIRT	1319	n/a	0	n/a	n/a	n/a	n/a	n/a
1507.894	n/a	REC_WORD	753947	wordpools/wasnorm_wordpool.txt	LTP078	ltpFR	0	8	0	ORCHESTRA	981	n/a	1	n/a	n/a	n/a	n/a	n/a
1508.946	n/a	REC_WORD	754473	wordpools/wasnorm_wordpool.txt	LTP078	ltpFR	0	8	n/a	KNEE	784	n/a	n/a	n/a	n/a	n/a	n/a	n/a
1511.202	n/a	REC_WORD	755601	wordpools/wasnorm_wordpool.txt	LTP078	ltpFR	0	8	0	ANT	25	n/a	0	n/a	n/a	n/a	n/a	n/a
1512.258	n/a	REC_WORD	756129	wordpools/wasnorm_wordpool.txt	LTP078	ltpFR	0	8	0	PARTNER	1017	n/a	1	n/a	n/a	n/a	n/a	n/a
1514.628	n/a	REC_WORD	757314	wordpools/wasnorm_wordpool.txt	LTP078	ltpFR	0	8	0	SURGEON	1413	n/a	1	n/a	n/a	n/a	n/a	n/a
1517.378	n/a	REC_WORD	758689	wordpools/wasnorm_wordpool.txt	LTP078	ltpFR	0	8	0	ONION	977	n/a	0	n/a	n/a	n/a	n/a	n/a
1518.29	n/a	REC_WORD	759145	wordpools/wasnorm_wordpool.txt	LTP078	ltpFR	0	8	0	STEAM	1375	n/a	0	n/a	n/a	n/a	n/a	n/a
1521.01	n/a	REC_WORD	760505	wordpools/wasnorm_wordpool.txt	LTP078	ltpFR	0	8	0	NURSE	963	n/a	1	n/a	n/a	n/a	n/a	n/a
1521.812	n/a	REC_WORD	760906	wordpools/wasnorm_wordpool.txt	LTP078	ltpFR	0	8	0	POLYESTER	1100	n/a	1	n/a	n/a	n/a	n/a	n/a
1523.378	n/a	REC_WORD	761689	wordpools/wasnorm_wordpool.txt	LTP078	ltpFR	0	8	0	NET	946	n/a	0	n/a	n/a	n/a	n/a	n/a
1583.098	n/a	WORD	791549	wordpools/wasnorm_wordpool.txt	LTP078	ltpFR	0	9	1	COLLEGE	346	n/a	0	0	0.5869140625	0.422607421875	lower	../fonts/amplitud.ttf
1587.066	n/a	WORD	793533	wordpools/wasnorm_wordpool.txt	LTP078	ltpFR	0	9	1	COTTON	385	n/a	0	0	0.5869140625	0.422607421875	lower	../fonts/amplitud.ttf
1591.082	n/a	WORD	795541	wordpools/wasnorm_wordpool.txt	LTP078	ltpFR	0	9	1	OUTFIT	988	n/a	0	0	0.5869140625	0.422607421875	lower	../fonts/amplitud.ttf
1595.116	n/a	WORD	797558	wordpools/wasnorm_wordpool.txt	LTP078	ltpFR	0	9	1	VIOLIN	1571	n/a	0	0	0.5869140625	0.422607421875	lower	../fonts/amplitud.ttf
1599.24	n/a	WORD	799620	wordpools/wasnorm_wordpool.txt	LTP078	ltpFR	0	9	1	BANJO	82	n/a	0	0	0.5869140625	0.422607421875	lower	../fonts/amplitud.ttf
1603.374	n/a	WORD	801687	wordpools/wasnorm_wordpool.txt	LTP078	ltpFR	0	9	1	ALLIGATOR	16	n/a	1	0	0.5869140625	0.422607421875	lower	../fonts/amplitud.ttf
1607.308	n/a	WORD	803654	wordpools/wasnorm_wordpool.txt	LTP078	ltpFR	0	9	1	SHED	1277	n/a	0	0	0.5869140625	0.422607421875	lower	../fonts/amplitud.ttf
1611.316	n/a	WORD	805658	wordpools/wasnorm_wordpool.txt	LTP078	ltpFR	0	9	1	SCREEN	1253	n/a	0	0	0.5869140625	0.422607421875	lower	../fonts/amplitud.ttf
1615.39	n/a	WORD	807695	wordpools/wasnorm_wordpool.txt	LTP078	ltpFR	0	9	1	ANIMAL	23	n/a	1	0	0.5869140625	0.422607421875	lower	../fonts/amplitud.ttf
1619.298	n/a	WORD	809649	wordpools/wasnorm_wordpool.txt	LTP078	ltpFR	0	9	1	MOVIE	927	n/a	0	0	0.5869140625	0.422607421875	lower	../fonts/amplitud.ttf
1623.19	n/a	WORD	811595	wordpools/wasnorm_wordpool.txt	LTP078	ltpFR	0	9	1	SERGEANT	1269	n/a	1	0	0.5869140625	0.422607421875	lower	../fonts/amplitud.ttf
1627.298	n/a	WORD	813649	wordpools/wasnorm_wordpool.txt	LTP078	ltpFR	0	9	1	POLICE	1098	n/a	1	0	0.5869140625	0.422607421875	lower	../fonts/amplitud.ttf
1631.24	n/a	WORD	815620	wordpools/wasnorm_wordpool.txt	LTP078	ltpFR	0	9	1	SHELL	1281	n/a	0	0	0.5869140625	0.422607421875	lower	../fonts/amplitud.ttf
1635.182	n/a	WORD	817591	wordpools/wasnorm_wordpool.txt	LTP078	ltpFR	0	9	1	LOBSTER	837	n/a	1	0	0.5869140625	0.422607421875	lower	../fonts/amplitud.ttf
1639.298	n/a	WORD	819649	wordpools/wasnorm_wordpool.txt	LTP078	ltpFR	0	9	1	SCENERY	1247	n/a	1	0	0.5869140625	0.422607421875	lower	../fonts/amplitud.ttf
1643.156	n/a	WORD	821578	wordpools/wasnorm_wordpool.txt	LTP078	ltpFR	0	9	1	DRESSER	496	n/a	0	0	0.5869140625	0.422607421875	lower	../fonts/amplitud.ttf
1648.974	n/a	REC_START	824487	n/a	LTP078	ltpFR	0	9	n/a	n/a	n/a	n/a	n/a	n/a	n/a	n/a	n/a	n/a
1649.556	n/a	REC_WORD	824778	wordpools/wasnorm_wordpool.txt	LTP078	ltpFR	0	9	1	LOBSTER	837	n/a	1	n/a	n/a	n/a	n/a	n/a
1650.2	n/a	REC_WORD	825100	wordpools/wasnorm_wordpool.txt	LTP078	ltpFR	0	9	1	SHELL	1281	n/a	0	n/a	n/a	n/a	n/a	n/a
1650.756	n/a	REC_WORD	825378	wordpools/wasnorm_wordpool.txt	LTP078	ltpFR	0	9	1	SCENERY	1247	n/a	1	n/a	n/a	n/a	n/a	n/a
1651.682	n/a	REC_WORD	825841	wordpools/wasnorm_wordpool.txt	LTP078	ltpFR	0	9	1	DRESSER	496	n/a	0	n/a	n/a	n/a	n/a	n/a
1653.134	n/a	REC_WORD	826567	wordpools/wasnorm_wordpool.txt	LTP078	ltpFR	0	9	1	COLLEGE	346	n/a	0	n/a	n/a	n/a	n/a	n/a
1661.534	n/a	REC_WORD	830767	wordpools/wasnorm_wordpool.txt	LTP078	ltpFR	0	9	1	MOVIE	927	n/a	0	n/a	n/a	n/a	n/a	n/a
1662.462	n/a	REC_WORD	831231	wordpools/wasnorm_wordpool.txt	LTP078	ltpFR	0	9	1	SCREEN	1253	n/a	0	n/a	n/a	n/a	n/a	n/a
1663.294	n/a	REC_WORD	831647	wordpools/wasnorm_wordpool.txt	LTP078	ltpFR	0	9	1	SHED	1277	n/a	0	n/a	n/a	n/a	n/a	n/a
1665.766	n/a	REC_WORD	832883	wordpools/wasnorm_wordpool.txt	LTP078	ltpFR	0	9	1	ALLIGATOR	16	n/a	1	n/a	n/a	n/a	n/a	n/a
1666.998	n/a	REC_WORD	833499	wordpools/wasnorm_wordpool.txt	LTP078	ltpFR	0	9	1	ANIMAL	23	n/a	1	n/a	n/a	n/a	n/a	n/a
1729.364	n/a	WORD	864682	wordpools/wasnorm_wordpool.txt	LTP078	ltpFR	0	10	1	PARENT	1013	n/a	1	0	0.5869140625	0.422607421875	lower	../fonts/amplitud.ttf
1733.372	n/a	WORD	866686	wordpools/wasnorm_wordpool.txt	LTP078	ltpFR	0	10	1	SCOTCH	1251	n/a	0	0	0.5869140625	0.422607421875	lower	../fonts/amplitud.ttf
1737.27	n/a	WORD	868635	wordpools/wasnorm_wordpool.txt	LTP078	ltpFR	0	10	1	KEG	770	n/a	0	0	0.5869140625	0.422607421875	lower	../fonts/amplitud.ttf
1741.286	n/a	WORD	870643	wordpools/wasnorm_wordpool.txt	LTP078	ltpFR	0	10	1	STAKE	1368	n/a	0	0	0.5869140625	0.422607421875	lower	../fonts/amplitud.ttf
1745.162	n/a	WORD	872581	wordpools/wasnorm_wordpool.txt	LTP078	ltpFR	0	10	1	FOLDER	588	n/a	0	0	0.5869140625	0.422607421875	lower	../fonts/amplitud.ttf
1749.212	n/a	WORD	874606	wordpools/wasnorm_wordpool.txt	LTP078	ltpFR	0	10	1	COFFEE	341	n/a	0	0	0.5869140625	0.422607421875	lower	../fonts/amplitud.ttf
1753.38	n/a	WORD	876690	wordpools/wasnorm_wordpool.txt	LTP078	ltpFR	0	10	1	DETECTIVE	454	n/a	1	0	0.5869140625	0.422607421875	lower	../fonts/amplitud.ttf
1757.404	n/a	WORD	878702	wordpools/wasnorm_wordpool.txt	LTP078	ltpFR	0	10	1	EDITORIAL	517	n/a	0	0	0.5869140625	0.422607421875	lower	../fonts/amplitud.ttf
1761.554	n/a	WORD	880777	wordpools/wasnorm_wordpool.txt	LTP078	ltpFR	0	10	1	MAGAZINE	853	n/a	0	0	0.5869140625	0.422607421875	lower	../fonts/amplitud.ttf
1765.478	n/a	WORD	882739	wordpools/wasnorm_wordpool.txt	LTP078	ltpFR	0	10	1	HIKER	708	n/a	1	0	0.5869140625	0.422607421875	lower	../fonts/amplitud.ttf
1769.504	n/a	WORD	884752	wordpools/wasnorm_wordpool.txt	LTP078	ltpFR	0	10	1	SCROLL	1257	n/a	0	0	0.5869140625	0.422607421875	lower	../fonts/amplitud.ttf
1773.578	n/a	WORD	886789	wordpools/wasnorm_wordpool.txt	LTP078	ltpFR	0	10	1	VEIN	1554	n/a	1	0	0.5869140625	0.422607421875	lower	../fonts/amplitud.ttf
1777.736	n/a	WORD	888868	wordpools/wasnorm_wordpool.txt	LTP078	ltpFR	0	10	1	TEENAGER	1444	n/a	1	0	0.5869140625	0.422607421875	lower	../fonts/amplitud.ttf
1781.694	n/a	WORD	890847	wordpools/wasnorm_wordpool.txt	LTP078	ltpFR	0	10	1	TOE	1473	n/a	0	0	0.5869140625	0.422607421875	lower	../fonts/amplitud.ttf
1785.62	n/a	WORD	892810	wordpools/wasnorm_wordpool.txt	LTP078	ltpFR	0	10	1	FINGER	567	n/a	0	0	0.5869140625	0.422607421875	lower	../fonts/amplitud.ttf
1789.768	n/a	WORD	894884	wordpools/wasnorm_wordpool.txt	LTP078	ltpFR	0	10	1	MILDEW	893	n/a	1	0	0.5869140625	0.422607421875	lower	../fonts/amplitud.ttf
1795.786	n/a	REC_START	897893	n/a	LTP078	ltpFR	0	10	n/a	n/a	n/a	n/a	n/a	n/a	n/a	n/a	n/a	n/a
1796.3	n/a	REC_WORD	898150	wordpools/wasnorm_wordpool.txt	LTP078	ltpFR	0	10	1	TEENAGER	1444	n/a	1	n/a	n/a	n/a	n/a	n/a
1797.124	n/a	REC_WORD	898562	wordpools/wasnorm_wordpool.txt	LTP078	ltpFR	0	10	1	TOE	1473	n/a	0	n/a	n/a	n/a	n/a	n/a
1797.812	n/a	REC_WORD	898906	wordpools/wasnorm_wordpool.txt	LTP078	ltpFR	0	10	1	FINGER	567	n/a	0	n/a	n/a	n/a	n/a	n/a
1798.9	n/a	REC_WORD	899450	wordpools/wasnorm_wordpool.txt	LTP078	ltpFR	0	10	1	MILDEW	893	n/a	1	n/a	n/a	n/a	n/a	n/a
1799.868	n/a	REC_WORD	899934	wordpools/wasnorm_wordpool.txt	LTP078	ltpFR	0	10	1	PARENT	1013	n/a	1	n/a	n/a	n/a	n/a	n/a
1800.736	n/a	REC_WORD	900368	wordpools/wasnorm_wordpool.txt	LTP078	ltpFR	0	10	1	KEG	770	n/a	0	n/a	n/a	n/a	n/a	n/a
1801.354	n/a	REC_WORD	900677	wordpools/wasnorm_wordpool.txt	LTP078	ltpFR	0	10	1	SCOTCH	1251	n/a	0	n/a	n/a	n/a	n/a	n/a
1802.86	n/a	REC_WORD	901430	wordpools/wasnorm_wordpool.txt	LTP078	ltpFR	0	10	1	STAKE	1368	n/a	0	n/a	n/a	n/a	n/a	n/a
1805.604	n/a	REC_WORD	902802	wordpools/wasnorm_wordpool.txt	LTP078	ltpFR	0	10	1	DETECTIVE	454	n/a	1	n/a	n/a	n/a	n/a	n/a
1806.626	n/a	REC_WORD	903313	wordpools/wasnorm_wordpool.txt	LTP078	ltpFR	0	10	1	EDITORIAL	517	n/a	0	n/a	n/a	n/a	n/a	n/a
1812.844	n/a	REC_WORD	906422	wordpools/wasnorm_wordpool.txt	LTP078	ltpFR	0	10	1	FOLDER	588	n/a	0	n/a	n/a	n/a	n/a	n/a
1814.898	n/a	REC_WORD	907449	wordpools/wasnorm_wordpool.txt	LTP078	ltpFR	0	10	1	COFFEE	341	n/a	0	n/a	n/a	n/a	n/a	n/a
1817.394	n/a	REC_WORD	908697	wordpools/wasnorm_wordpool.txt	LTP078	ltpFR	0	10	1	HIKER	708	n/a	1	n/a	n/a	n/a	n/a	n/a
1819.154	n/a	REC_WORD	909577	wordpools/wasnorm_wordpool.txt	LTP078	ltpFR	0	10	1	SCROLL	1257	n/a	0	n/a	n/a	n/a	n/a	n/a
1820.996	n/a	REC_WORD	910498	wordpools/wasnorm_wordpool.txt	LTP078	ltpFR	0	10	1	MAGAZINE	853	n/a	0	n/a	n/a	n/a	n/a	n/a
1835.562	n/a	REC_WORD	917781	wordpools/wasnorm_wordpool.txt	LTP078	ltpFR	0	10	1	VEIN	1554	n/a	1	n/a	n/a	n/a	n/a	n/a
1876.526	n/a	WORD	938263	wordpools/wasnorm_wordpool.txt	LTP078	ltpFR	0	11	1	OTTER	986	n/a	1	0	0.5869140625	0.422607421875	lower	../fonts/amplitud.ttf
1880.476	n/a	WORD	940238	wordpools/wasnorm_wordpool.txt	LTP078	ltpFR	0	11	1	FARM	552	n/a	0	0	0.5869140625	0.422607421875	lower	../fonts/amplitud.ttf
1884.576	n/a	WORD	942288	wordpools/wasnorm_wordpool.txt	LTP078	ltpFR	0	11	1	ISLAND	745	n/a	0	0	0.5869140625	0.422607421875	lower	../fonts/amplitud.ttf
1888.676	n/a	WORD	944338	wordpools/wasnorm_wordpool.txt	LTP078	ltpFR	0	11	1	SALOON	1228	n/a	0	0	0.5869140625	0.422607421875	lower	../fonts/amplitud.ttf
1892.742	n/a	WORD	946371	wordpools/wasnorm_wordpool.txt	LTP078	ltpFR	0	11	1	VEAL	1551	n/a	1	0	0.5869140625	0.422607421875	lower	../fonts/amplitud.ttf
1896.8	n/a	WORD	948400	wordpools/wasnorm_wordpool.txt	LTP078	ltpFR	0	11	1	LAPEL	800	n/a	0	0	0.5869140625	0.422607421875	lower	../fonts/amplitud.ttf
1900.734	n/a	WORD	950367	wordpools/wasnorm_wordpool.txt	LTP078	ltpFR	0	11	1	TOWER	1490	n/a	0	0	0.5869140625	0.422607421875	lower	../fonts/amplitud.ttf
1904.85	n/a	WORD	952425	wordpools/wasnorm_wordpool.txt	LTP078	ltpFR	0	11	1	FISH	571	n/a	1	0	0.5869140625	0.422607421875	lower	../fonts/amplitud.ttf
1908.974	n/a	WORD	954487	wordpools/wasnorm_wordpool.txt	LTP078	ltpFR	0	11	1	BEGGAR	117	n/a	0	0	0.5869140625	0.422607421875	lower	../fonts/amplitud.ttf
1912.866	n/a	WORD	956433	wordpools/wasnorm_wordpool.txt	LTP078	ltpFR	0	11	1	DINNER	468	n/a	0	0	0.5869140625	0.422607421875	lower	../fonts/amplitud.ttf
1916.782	n/a	WORD	958391	wordpools/wasnorm_wordpool.txt	LTP078	ltpFR	0	11	1	PADDLE	1000	n/a	0	0	0.5869140625	0.422607421875	lower	../fonts/amplitud.ttf
1920.858	n/a	WORD	960429	wordpools/wasnorm_wordpool.txt	LTP078	ltpFR	0	11	1	CREEK	404	n/a	0	0	0.5869140625	0.422607421875	lower	../fonts/amplitud.ttf
1924.798	n/a	WORD	962399	wordpools/wasnorm_wordpool.txt	LTP078	ltpFR	0	11	1	SCALLOP	1242	n/a	1	0	0.5869140625	0.422607421875	lower	../fonts/amplitud.ttf
1928.998	n/a	WORD	964499	wordpools/wasnorm_wordpool.txt	LTP078	ltpFR	0	11	1	SHRIMP	1297	n/a	1	0	0.5869140625	0.422607421875	lower	../fonts/amplitud.ttf
1933.2	n/a	WORD	966600	wordpools/wasnorm_wordpool.txt	LTP078	ltpFR	0	11	1	REEF	1177	n/a	0	0	0.5869140625	0.422607421875	lower	../fonts/amplitud.ttf
1937.174	n/a	WORD	968587	wordpools/wasnorm_wordpool.txt	LTP078	ltpFR	0	11	1	BLOUSE	139	n/a	0	0	0.5869140625	0.422607421875	lower	../fonts/amplitud.ttf
1942.924	n/a	REC_START	971462	n/a	LTP078	ltpFR	0	11	n/a	n/a	n/a	n/a	n/a	n/a	n/a	n/a	n/a	n/a
1943.746	n/a	REC_WORD	971873	wordpools/wasnorm_wordpool.txt	LTP078	ltpFR	0	11	1	SCALLOP	1242	n/a	1	n/a	n/a	n/a	n/a	n/a
1944.402	n/a	REC_WORD	972201	wordpools/wasnorm_wordpool.txt	LTP078	ltpFR	0	11	1	SHRIMP	1297	n/a	1	n/a	n/a	n/a	n/a	n/a
1945.732	n/a	REC_WORD	972866	wordpools/wasnorm_wordpool.txt	LTP078	ltpFR	0	11	1	BEGGAR	117	n/a	0	n/a	n/a	n/a	n/a	n/a
1946.304	n/a	REC_WORD	973152	wordpools/wasnorm_wordpool.txt	LTP078	ltpFR	0	11	1	DINNER	468	n/a	0	n/a	n/a	n/a	n/a	n/a
1947.338	n/a	REC_WORD	973669	wordpools/wasnorm_wordpool.txt	LTP078	ltpFR	0	11	1	TOWER	1490	n/a	0	n/a	n/a	n/a	n/a	n/a
1949.484	n/a	REC_WORD	974742	wordpools/wasnorm_wordpool.txt	LTP078	ltpFR	0	11	1	FARM	552	n/a	0	n/a	n/a	n/a	n/a	n/a
1951.2	n/a	REC_WORD	975600	wordpools/wasnorm_wordpool.txt	LTP078	ltpFR	0	11	1	ISLAND	745	n/a	0	n/a	n/a	n/a	n/a	n/a
1952.306	n/a	REC_WORD	976153	wordpools/wasnorm_wordpool.txt	LTP078	ltpFR	0	11	1	OTTER	986	n/a	1	n/a	n/a	n/a	n/a	n/a
1956.498	n/a	REC_WORD	978249	wordpools/wasnorm_wordpool.txt	LTP078	ltpFR	0	11	1	SALOON	1228	n/a	0	n/a	n/a	n/a	n/a	n/a
1960.644	n/a	REC_WORD	980322	wordpools/wasnorm_wordpool.txt	LTP078	ltpFR	0	11	1	LAPEL	800	n/a	0	n/a	n/a	n/a	n/a	n/a
1962.066	n/a	REC_WORD	981033	wordpools/wasnorm_wordpool.txt	LTP078	ltpFR	0	11	1	VEAL	1551	n/a	1	n/a	n/a	n/a	n/a	n/a
1979.982	n/a	REC_WORD	989991	wordpools/wasnorm_wordpool.txt	LTP078	ltpFR	0	11	1	REEF	1177	n/a	0	n/a	n/a	n/a	n/a	n/a
2023.122	n/a	WORD	1011561	wordpools/wasnorm_wordpool.txt	LTP078	ltpFR	0	12	1	OREGANO	983	n/a	0	0	0.5869140625	0.422607421875	lower	../fonts/amplitud.ttf
2027.296	n/a	WORD	1013648	wordpools/wasnorm_wordpool.txt	LTP078	ltpFR	0	12	1	SAGE	1222	n/a	1	0	0.5869140625	0.422607421875	lower	../fonts/amplitud.ttf
2031.188	n/a	WORD	1015594	wordpools/wasnorm_wordpool.txt	LTP078	ltpFR	0	12	1	MACHINE	852	n/a	0	0	0.5869140625	0.422607421875	lower	../fonts/amplitud.ttf
2035.39	n/a	WORD	1017695	wordpools/wasnorm_wordpool.txt	LTP078	ltpFR	0	12	1	CHEMICAL	291	n/a	0	0	0.5869140625	0.422607421875	lower	../fonts/amplitud.ttf
2039.262	n/a	WORD	1019631	wordpools/wasnorm_wordpool.txt	LTP078	ltpFR	0	12	1	POISON	1096	n/a	0	0	0.5869140625	0.422607421875	lower	../fonts/amplitud.ttf
2043.088	n/a	WORD	1021544	wordpools/wasnorm_wordpool.txt	LTP078	ltpFR	0	12	1	BANDAGE	79	n/a	0	0	0.5869140625	0.422607421875	lower	../fonts/amplitud.ttf
2047.288	n/a	WORD	1023644	wordpools/wasnorm_wordpool.txt	LTP078	ltpFR	0	12	1	LOUNGE	845	n/a	0	0	0.5869140625	0.422607421875	lower	../fonts/amplitud.ttf
2051.154	n/a	WORD	1025577	wordpools/wasnorm_wordpool.txt	LTP078	ltpFR	0	12	1	RAM	1165	n/a	1	0	0.5869140625	0.422607421875	lower	../fonts/amplitud.ttf
2055.196	n/a	WORD	1027598	wordpools/wasnorm_wordpool.txt	LTP078	ltpFR	0	12	1	ANCHOR	21	n/a	0	0	0.5869140625	0.422607421875	lower	../fonts/amplitud.ttf
2059.356	n/a	WORD	1029678	wordpools/wasnorm_wordpool.txt	LTP078	ltpFR	0	12	1	PAPER	1011	n/a	0	0	0.5869140625	0.422607421875	lower	../fonts/amplitud.ttf
2063.372	n/a	WORD	1031686	wordpools/wasnorm_wordpool.txt	LTP078	ltpFR	0	12	1	KANGAROO	768	n/a	1	0	0.5869140625	0.422607421875	lower	../fonts/amplitud.ttf
2067.286	n/a	WORD	1033643	wordpools/wasnorm_wordpool.txt	LTP078	ltpFR	0	12	1	PURSE	1145	n/a	0	0	0.5869140625	0.422607421875	lower	../fonts/amplitud.ttf
2071.404	n/a	WORD	1035702	wordpools/wasnorm_wordpool.txt	LTP078	ltpFR	0	12	1	PRINTER	1126	n/a	0	0	0.5869140625	0.422607421875	lower	../fonts/amplitud.ttf
2075.438	n/a	WORD	1037719	wordpools/wasnorm_wordpool.txt	LTP078	ltpFR	0	12	1	CREW	406	n/a	1	0	0.5869140625	0.422607421875	lower	../fonts/amplitud.ttf
2079.63	n/a	WORD	1039815	wordpools/wasnorm_wordpool.txt	LTP078	ltpFR	0	12	1	MECHANIC	884	n/a	1	0	0.5869140625	0.422607421875	lower	../fonts/amplitud.ttf
2083.836	n/a	WORD	1041918	wordpools/wasnorm_wordpool.txt	LTP078	ltpFR	0	12	1	BODY	145	n/a	1	0	0.5869140625	0.422607421875	lower	../fonts/amplitud.ttf
2089.77	n/a	REC_START	1044885	n/a	LTP078	ltpFR	0	12	n/a	n/a	n/a	n/a	n/a	n/a	n/a	n/a	n/a	n/a
2090.532	n/a	REC_WORD	1045266	wordpools/wasnorm_wordpool.txt	LTP078	ltpFR	0	12	1	PRINTER	1126	n/a	0	n/a	n/a	n/a	n/a	n/a
2091.088	n/a	REC_WORD	1045544	wordpools/wasnorm_wordpool.txt	LTP078	ltpFR	0	12	1	CREW	406	n/a	1	n/a	n/a	n/a	n/a	n/a
2091.53	n/a	REC_WORD	1045765	wordpools/wasnorm_wordpool.txt	LTP078	ltpFR	0	12	1	MECHANIC	884	n/a	1	n/a	n/a	n/a	n/a	n/a
2092.478	n/a	REC_WORD	1046239	wordpools/wasnorm_wordpool.txt	LTP078	ltpFR	0	12	1	BODY	145	n/a	1	n/a	n/a	n/a	n/a	n/a
2093.736	n/a	REC_WORD	1046868	wordpools/wasnorm_wordpool.txt	LTP078	ltpFR	0	12	1	SAGE	1222	n/a	1	n/a	n/a	n/a	n/a	n/a
2095.048	n/a	REC_WORD	1047524	wordpools/wasnorm_wordpool.txt	LTP078	ltpFR	0	12	1	OREGANO	983	n/a	0	n/a	n/a	n/a	n/a	n/a
2097.098	n/a	REC_WORD	1048549	wordpools/wasnorm_wordpool.txt	LTP078	ltpFR	0	12	1	MACHINE	852	n/a	0	n/a	n/a	n/a	n/a	n/a
2098.396	n/a	REC_WORD	1049198	wordpools/wasnorm_wordpool.txt	LTP078	ltpFR	0	12	1	CHEMICAL	291	n/a	0	n/a	n/a	n/a	n/a	n/a
2099.238	n/a	REC_WORD	1049619	wordpools/wasnorm_wordpool.txt	LTP078	ltpFR	0	12	1	POISON	1096	n/a	0	n/a	n/a	n/a	n/a	n/a
2100.266	n/a	REC_WORD	1050133	wordpools/wasnorm_wordpool.txt	LTP078	ltpFR	0	12	1	BANDAGE	79	n/a	0	n/a	n/a	n/a	n/a	n/a
2100.972	n/a	REC_WORD	1050486	wordpools/wasnorm_wordpool.txt	LTP078	ltpFR	0	12	1	LOUNGE	845	n/a	0	n/a	n/a	n/a	n/a	n/a
2106.716	n/a	REC_WORD	1053358	wordpools/wasnorm_wordpool.txt	LTP078	ltpFR	0	12	1	RAM	1165	n/a	1	n/a	n/a	n/a	n/a	n/a
2108.618	n/a	REC_WORD	1054309	wordpools/wasnorm_wordpool.txt	LTP078	ltpFR	0	12	1	ANCHOR	21	n/a	0	n/a	n/a	n/a	n/a	n/a
2109.368	n/a	REC_WORD	1054684	wordpools/wasnorm_wordpool.txt	LTP078	ltpFR	0	12	1	PAPER	1011	n/a	0	n/a	n/a	n/a	n/a	n/a
2111.362	n/a	REC_WORD	1055681	wordpools/wasnorm_wordpool.txt	LTP078	ltpFR	0	12	1	KANGAROO	768	n/a	1	n/a	n/a	n/a	n/a	n/a
2115.052	n/a	REC_WORD	1057526	wordpools/wasnorm_wordpool.txt	LTP078	ltpFR	0	12	1	PURSE	1145	n/a	0	n/a	n/a	n/a	n/a	n/a
2165.36	n/a	REST_REWET	1082680	n/a	LTP078	ltpFR	0	12	n/a	n/a	n/a	n/a	n/a	n/a	n/a	n/a	n/a	n/a
2938.832	n/a	WORD	1469416	wordpools/wasnorm_wordpool.txt	LTP078	ltpFR	0	13	1	ANKLE	24	n/a	0	0	0.5869140625	0.422607421875	lower	../fonts/amplitud.ttf
2942.716	n/a	WORD	1471358	wordpools/wasnorm_wordpool.txt	LTP078	ltpFR	0	13	1	LIZARD	834	n/a	1	0	0.5869140625	0.422607421875	lower	../fonts/amplitud.ttf
2946.906	n/a	WORD	1473453	wordpools/wasnorm_wordpool.txt	LTP078	ltpFR	0	13	1	OWL	992	n/a	1	0	0.5869140625	0.422607421875	lower	../fonts/amplitud.ttf
2950.982	n/a	WORD	1475491	wordpools/wasnorm_wordpool.txt	LTP078	ltpFR	0	13	1	KLEENEX	782	n/a	0	0	0.5869140625	0.422607421875	lower	../fonts/amplitud.ttf
2954.964	n/a	WORD	1477482	wordpools/wasnorm_wordpool.txt	LTP078	ltpFR	0	13	1	DRUG	501	n/a	0	0	0.5869140625	0.422607421875	lower	../fonts/amplitud.ttf
2959.122	n/a	WORD	1479561	wordpools/wasnorm_wordpool.txt	LTP078	ltpFR	0	13	0	MONSTER	912	n/a	0	1	0.412841796875	0.57763671875	upper	../fonts/zerothre.ttf
2963.28	n/a	WORD	1481640	wordpools/wasnorm_wordpool.txt	LTP078	ltpFR	0	13	0	SEAGULL	1261	n/a	0	1	0.412841796875	0.57763671875	upper	../fonts/zerothre.ttf
2967.248	n/a	WORD	1483624	wordpools/wasnorm_wordpool.txt	LTP078	ltpFR	0	13	0	CHIMNEY	301	n/a	1	1	0.412841796875	0.57763671875	upper	../fonts/zerothre.ttf
2971.332	n/a	WORD	1485666	wordpools/wasnorm_wordpool.txt	LTP078	ltpFR	0	13	0	SIREN	1310	n/a	0	1	0.412841796875	0.57763671875	upper	../fonts/zerothre.ttf
2975.256	n/a	WORD	1487628	wordpools/wasnorm_wordpool.txt	LTP078	ltpFR	0	13	0	BISON	131	n/a	1	1	0.412841796875	0.57763671875	upper	../fonts/zerothre.ttf
2979.206	n/a	WORD	1489603	wordpools/wasnorm_wordpool.txt	LTP078	ltpFR	0	13	0	SEAT	1264	n/a	1	1	0.412841796875	0.57763671875	upper	../fonts/zerothre.ttf
2983.356	n/a	WORD	1491678	wordpools/wasnorm_wordpool.txt	LTP078	ltpFR	0	13	1	TABLE	1426	n/a	0	0	0.5869140625	0.422607421875	lower	../fonts/amplitud.ttf
2987.214	n/a	WORD	1493607	wordpools/wasnorm_wordpool.txt	LTP078	ltpFR	0	13	1	QUAIL	1147	n/a	1	0	0.5869140625	0.422607421875	lower	../fonts/amplitud.ttf
2991.09	n/a	WORD	1495545	wordpools/wasnorm_wordpool.txt	LTP078	ltpFR	0	13	1	ELBOW	520	n/a	0	0	0.5869140625	0.422607421875	lower	../fonts/amplitud.ttf
2995.298	n/a	WORD	1497649	wordpools/wasnorm_wordpool.txt	LTP078	ltpFR	0	13	0	ROCKET	1202	n/a	1	1	0.412841796875	0.57763671875	upper	../fonts/zerothre.ttf
2999.196	n/a	WORD	1499598	wordpools/wasnorm_wordpool.txt	LTP078	ltpFR	0	13	0	COMET	353	n/a	1	1	0.412841796875	0.57763671875	upper	../fonts/zerothre.ttf
3004.998	n/a	REC_START	1502499	n/a	LTP078	ltpFR	0	13	n/a	n/a	n/a	n/a	n/a	n/a	n/a	n/a	n/a	n/a
3005.522	n/a	REC_WORD	1502761	wordpools/wasnorm_wordpool.txt	LTP078	ltpFR	0	13	0	ROCKET	1202	n/a	1	n/a	n/a	n/a	n/a	n/a
3006.224	n/a	REC_WORD	1503112	wordpools/wasnorm_wordpool.txt	LTP078	ltpFR	0	13	0	COMET	353	n/a	1	n/a	n/a	n/a	n/a	n/a
3007.242	n/a	REC_WORD	1503621	wordpools/wasnorm_wordpool.txt	LTP078	ltpFR	0	13	1	LIZARD	834	n/a	1	n/a	n/a	n/a	n/a	n/a
3009.108	n/a	REC_WORD	1504554	wordpools/wasnorm_wordpool.txt	LTP078	ltpFR	0	13	1	QUAIL	1147	n/a	1	n/a	n/a	n/a	n/a	n/a
3013.978	n/a	REC_WORD	1506989	wordpools/wasnorm_wordpool.txt	LTP078	ltpFR	0	13	1	TABLE	1426	n/a	0	n/a	n/a	n/a	n/a	n/a
3016.886	n/a	REC_WORD	1508443	wordpools/wasnorm_wordpool.txt	LTP078	ltpFR	0	13	0	ROCKET	1202	n/a	1	n/a	n/a	n/a	n/a	n/a
3021.76	n/a	REC_WORD	1510880	wordpools/wasnorm_wordpool.txt	LTP078	ltpFR	0	13	0	CHIMNEY	301	n/a	1	n/a	n/a	n/a	n/a	n/a
3032.842	n/a	REC_WORD	1516421	wordpools/wasnorm_wordpool.txt	LTP078	ltpFR	0	13	1	KLEENEX	782	n/a	0	n/a	n/a	n/a	n/a	n/a
3033.964	n/a	REC_WORD	1516982	wordpools/wasnorm_wordpool.txt	LTP078	ltpFR	0	13	1	LIZARD	834	n/a	1	n/a	n/a	n/a	n/a	n/a
3034.6	n/a	REC_WORD	1517300	wordpools/wasnorm_wordpool.txt	LTP078	ltpFR	0	13	1	ANKLE	24	n/a	0	n/a	n/a	n/a	n/a	n/a
3035.206	n/a	REC_WORD	1517603	wordpools/wasnorm_wordpool.txt	LTP078	ltpFR	0	13	1	OWL	992	n/a	1	n/a	n/a	n/a	n/a	n/a
3040.378	n/a	REC_WORD	1520189	wordpools/wasnorm_wordpool.txt	LTP078	ltpFR	0	13	0	MONSTER	912	n/a	0	n/a	n/a	n/a	n/a	n/a
3043.752	n/a	REC_WORD	1521876	wordpools/wasnorm_wordpool.txt	LTP078	ltpFR	0	13	1	DRUG	501	n/a	0	n/a	n/a	n/a	n/a	n/a
3084.538	n/a	WORD	1542269	wordpools/wasnorm_wordpool.txt	LTP078	ltpFR	0	14	0	ERASER	538	n/a	0	1	0.412841796875	0.57763671875	upper	../fonts/zerothre.ttf
3088.538	n/a	WORD	1544269	wordpools/wasnorm_wordpool.txt	LTP078	ltpFR	0	14	0	BANQUET	86	n/a	1	1	0.412841796875	0.57763671875	upper	../fonts/zerothre.ttf
3092.596	n/a	WORD	1546298	wordpools/wasnorm_wordpool.txt	LTP078	ltpFR	0	14	0	OINTMENT	974	n/a	0	1	0.412841796875	0.57763671875	upper	../fonts/zerothre.ttf
3096.412	n/a	WORD	1548206	wordpools/wasnorm_wordpool.txt	LTP078	ltpFR	0	14	1	RAFT	1159	n/a	0	0	0.5869140625	0.422607421875	lower	../fonts/amplitud.ttf
3100.262	n/a	WORD	1550131	wordpools/wasnorm_wordpool.txt	LTP078	ltpFR	0	14	1	SWAN	1417	n/a	1	0	0.5869140625	0.422607421875	lower	../fonts/amplitud.ttf
3104.152	n/a	WORD	1552076	wordpools/wasnorm_wordpool.txt	LTP078	ltpFR	0	14	1	SALESMAN	1225	n/a	1	0	0.5869140625	0.422607421875	lower	../fonts/amplitud.ttf
3108.31	n/a	WORD	1554155	wordpools/wasnorm_wordpool.txt	LTP078	ltpFR	0	14	1	VICTIM	1562	n/a	0	0	0.5869140625	0.422607421875	lower	../fonts/amplitud.ttf
3112.152	n/a	WORD	1556076	wordpools/wasnorm_wordpool.txt	LTP078	ltpFR	0	14	0	TREAD	1499	n/a	0	1	0.412841796875	0.57763671875	upper	../fonts/zerothre.ttf
3116.16	n/a	WORD	1558080	wordpools/wasnorm_wordpool.txt	LTP078	ltpFR	0	14	0	DIARY	460	n/a	0	1	0.412841796875	0.57763671875	upper	../fonts/zerothre.ttf
3120.018	n/a	WORD	1560009	wordpools/wasnorm_wordpool.txt	LTP078	ltpFR	0	14	0	COOKBOOK	373	n/a	0	1	0.412841796875	0.57763671875	upper	../fonts/zerothre.ttf
3124.176	n/a	WORD	1562088	wordpools/wasnorm_wordpool.txt	LTP078	ltpFR	0	14	1	POPCORN	1104	n/a	0	0	0.5869140625	0.422607421875	lower	../fonts/amplitud.ttf
3128.236	n/a	WORD	1564118	wordpools/wasnorm_wordpool.txt	LTP078	ltpFR	0	14	1	TIDE	1465	n/a	0	0	0.5869140625	0.422607421875	lower	../fonts/amplitud.ttf
3132.234	n/a	WORD	1566117	wordpools/wasnorm_wordpool.txt	LTP078	ltpFR	0	14	1	WELL	1600	n/a	0	0	0.5869140625	0.422607421875	lower	../fonts/amplitud.ttf
3136.218	n/a	WORD	1568109	wordpools/wasnorm_wordpool.txt	LTP078	ltpFR	0	14	1	CAGE	218	n/a	0	0	0.5869140625	0.422607421875	lower	../fonts/amplitud.ttf
3140.36	n/a	WORD	1570180	wordpools/wasnorm_wordpool.txt	LTP078	ltpFR	0	14	0	LIEUTENANT	818	n/a	0	1	0.412841796875	0.57763671875	upper	../fonts/zerothre.ttf
3144.46	n/a	WORD	1572230	wordpools/wasnorm_wordpool.txt	LTP078	ltpFR	0	14	0	COLONEL	348	n/a	1	1	0.412841796875	0.57763671875	upper	../fonts/zerothre.ttf
3150.394	n/a	REC_START	1575197	n/a	LTP078	ltpFR	0	14	n/a	n/a	n/a	n/a	n/a	n/a	n/a	n/a	n/a	n/a
3151.218	n/a	REC_WORD	1575609	wordpools/wasnorm_wordpool.txt	LTP078	ltpFR	0	14	0	LIEUTENANT	818	n/a	0	n/a	n/a	n/a	n/a	n/a
3151.89	n/a	REC_WORD	1575945	wordpools/wasnorm_wordpool.txt	LTP078	ltpFR	0	14	0	COLONEL	348	n/a	1	n/a	n/a	n/a	n/a	n/a
3153.134	n/a	REC_WORD	1576567	wordpools/wasnorm_wordpool.txt	LTP078	ltpFR	0	14	1	TIDE	1465	n/a	0	n/a	n/a	n/a	n/a	n/a
3154.166	n/a	REC_WORD	1577083	wordpools/wasnorm_wordpool.txt	LTP078	ltpFR	0	14	1	CAGE	218	n/a	0	n/a	n/a	n/a	n/a	n/a
3155.674	n/a	REC_WORD	1577837	wordpools/wasnorm_wordpool.txt	LTP078	ltpFR	0	14	0	BANQUET	86	n/a	1	n/a	n/a	n/a	n/a	n/a
3156.766	n/a	REC_WORD	1578383	wordpools/wasnorm_wordpool.txt	LTP078	ltpFR	0	14	0	ERASER	538	n/a	0	n/a	n/a	n/a	n/a	n/a
3157.834	n/a	REC_WORD	1578917	wordpools/wasnorm_wordpool.txt	LTP078	ltpFR	0	14	0	OINTMENT	974	n/a	0	n/a	n/a	n/a	n/a	n/a
3159.256	n/a	REC_WORD	1579628	wordpools/wasnorm_wordpool.txt	LTP078	ltpFR	0	14	1	RAFT	1159	n/a	0	n/a	n/a	n/a	n/a	n/a
3160.388	n/a	REC_WORD	1580194	wordpools/wasnorm_wordpool.txt	LTP078	ltpFR	0	14	1	SWAN	1417	n/a	1	n/a	n/a	n/a	n/a	n/a
3162.318	n/a	REC_WORD	1581159	wordpools/wasnorm_wordpool.txt	LTP078	ltpFR	0	14	1	SALESMAN	1225	n/a	1	n/a	n/a	n/a	n/a	n/a
3171.128	n/a	REC_WORD	1585564	wordpools/wasnorm_wordpool.txt	LTP078	ltpFR	0	14	0	DIARY	460	n/a	0	n/a	n/a	n/a	n/a	n/a
3171.862	n/a	REC_WORD	1585931	wordpools/wasnorm_wordpool.txt	LTP078	ltpFR	0	14	0	COOKBOOK	373	n/a	0	n/a	n/a	n/a	n/a	n/a
3173.564	n/a	REC_WORD	1586782	wordpools/wasnorm_wordpool.txt	LTP078	ltpFR	0	14	1	POPCORN	1104	n/a	0	n/a	n/a	n/a	n/a	n/a
3176.122	n/a	REC_WORD	1588061	wordpools/wasnorm_wordpool.txt	LTP078	ltpFR	0	14	0	TREAD	1499	n/a	0	n/a	n/a	n/a	n/a	n/a
3230.174	n/a	WORD	1615087	wordpools/wasnorm_wordpool.txt	LTP078	ltpFR	0	15	1	RECIPE	1175	n/a	0	0	0.5869140625	0.422607421875	lower	../fonts/amplitud.ttf
3234.358	n/a	WORD	1617179	wordpools/wasnorm_wordpool.txt	LTP078	ltpFR	0	15	1	BAKER	71	n/a	1	0	0.5869140625	0.422607421875	lower	../fonts/amplitud.ttf
3238.292	n/a	WORD	1619146	wordpools/wasnorm_wordpool.txt	LTP078	ltpFR	0	15	0	ENGINE	535	n/a	1	1	0.412841796875	0.57763671875	upper	../fonts/zerothre.ttf
3242.158	n/a	WORD	1621079	wordpools/wasnorm_wordpool.txt	LTP078	ltpFR	0	15	0	WINDSHIELD	1612	n/a	1	1	0.412841796875	0.57763671875	upper	../fonts/zerothre.ttf
3246.29	n/a	WORD	1623145	wordpools/wasnorm_wordpool.txt	LTP078	ltpFR	0	15	0	SCULPTURE	1258	n/a	1	1	0.412841796875	0.57763671875	upper	../fonts/zerothre.ttf
3250.382	n/a	WORD	1625191	wordpools/wasnorm_wordpool.txt	LTP078	ltpFR	0	15	1	THUMB	1462	n/a	0	0	0.5869140625	0.422607421875	lower	../fonts/amplitud.ttf
3254.492	n/a	WORD	1627246	wordpools/wasnorm_wordpool.txt	LTP078	ltpFR	0	15	1	RACK	1154	n/a	0	0	0.5869140625	0.422607421875	lower	../fonts/amplitud.ttf
3258.366	n/a	WORD	1629183	wordpools/wasnorm_wordpool.txt	LTP078	ltpFR	0	15	1	CONVICT	371	n/a	1	0	0.5869140625	0.422607421875	lower	../fonts/amplitud.ttf
3262.248	n/a	WORD	1631124	wordpools/wasnorm_wordpool.txt	LTP078	ltpFR	0	15	0	HAMMER	680	n/a	0	1	0.412841796875	0.57763671875	upper	../fonts/zerothre.ttf
3266.298	n/a	WORD	1633149	wordpools/wasnorm_wordpool.txt	LTP078	ltpFR	0	15	0	VILLAIN	1567	n/a	1	1	0.412841796875	0.57763671875	upper	../fonts/zerothre.ttf
3270.39	n/a	WORD	1635195	wordpools/wasnorm_wordpool.txt	LTP078	ltpFR	0	15	0	GUEST	669	n/a	1	1	0.412841796875	0.57763671875	upper	../fonts/zerothre.ttf
3274.372	n/a	WORD	1637186	wordpools/wasnorm_wordpool.txt	LTP078	ltpFR	0	15	0	POTTERY	1116	n/a	0	1	0.412841796875	0.57763671875	upper	../fonts/zerothre.ttf
3278.282	n/a	WORD	1639141	wordpools/wasnorm_wordpool.txt	LTP078	ltpFR	0	15	0	MARBLE	867	n/a	0	1	0.412841796875	0.57763671875	upper	../fonts/zerothre.ttf
3282.482	n/a	WORD	1641241	wordpools/wasnorm_wordpool.txt	LTP078	ltpFR	0	15	1	ACTRESS	6	n/a	1	0	0.5869140625	0.422607421875	lower	../fonts/amplitud.ttf
3286.306	n/a	WORD	1643153	wordpools/wasnorm_wordpool.txt	LTP078	ltpFR	0	15	1	SNEAKER	1334	n/a	0	0	0.5869140625	0.422607421875	lower	../fonts/amplitud.ttf
3290.49	n/a	WORD	1645245	wordpools/wasnorm_wordpool.txt	LTP078	ltpFR	0	15	1	PRISONER	1128	n/a	1	0	0.5869140625	0.422607421875	lower	../fonts/amplitud.ttf
3296.232	n/a	REC_START	1648116	n/a	LTP078	ltpFR	0	15	n/a	n/a	n/a	n/a	n/a	n/a	n/a	n/a	n/a	n/a
3296.576	n/a	REC_WORD	1648288	wordpools/wasnorm_wordpool.txt	LTP078	ltpFR	0	15	1	ACTRESS	6	n/a	1	n/a	n/a	n/a	n/a	n/a
3297.32	n/a	REC_WORD	1648660	wordpools/wasnorm_wordpool.txt	LTP078	ltpFR	0	15	0	MARBLE	867	n/a	0	n/a	n/a	n/a	n/a	n/a
3298.086	n/a	REC_WORD	1649043	wordpools/wasnorm_wordpool.txt	LTP078	ltpFR	0	15	1	SNEAKER	1334	n/a	0	n/a	n/a	n/a	n/a	n/a
3299.904	n/a	REC_WORD	1649952	wordpools/wasnorm_wordpool.txt	LTP078	ltpFR	0	15	1	PRISONER	1128	n/a	1	n/a	n/a	n/a	n/a	n/a
3316.786	n/a	REC_WORD	1658393	wordpools/wasnorm_wordpool.txt	LTP078	ltpFR	0	15	0	VILLAIN	1567	n/a	1	n/a	n/a	n/a	n/a	n/a
3317.456	n/a	REC_WORD	1658728	wordpools/wasnorm_wordpool.txt	LTP078	ltpFR	0	15	0	HAMMER	680	n/a	0	n/a	n/a	n/a	n/a	n/a
3319.286	n/a	REC_WORD	1659643	wordpools/wasnorm_wordpool.txt	LTP078	ltpFR	0	15	0	GUEST	669	n/a	1	n/a	n/a	n/a	n/a	n/a
3322.17	n/a	REC_WORD	1661085	wordpools/wasnorm_wordpool.txt	LTP078	ltpFR	0	15	n/a	CHEF	290	n/a	n/a	n/a	n/a	n/a	n/a	n/a
3324.678	n/a	REC_WORD	1662339	wordpools/wasnorm_wordpool.txt	LTP078	ltpFR	0	15	1	RECIPE	1175	n/a	0	n/a	n/a	n/a	n/a	n/a
3326.3	n/a	REC_WORD	1663150	wordpools/wasnorm_wordpool.txt	LTP078	ltpFR	0	15	0	WINDSHIELD	1612	n/a	1	n/a	n/a	n/a	n/a	n/a
3327.338	n/a	REC_WORD	1663669	wordpools/wasnorm_wordpool.txt	LTP078	ltpFR	0	15	0	ENGINE	535	n/a	1	n/a	n/a	n/a	n/a	n/a
3353.49	n/a	REC_WORD	1676745	wordpools/wasnorm_wordpool.txt	LTP078	ltpFR	0	15	1	THUMB	1462	n/a	0	n/a	n/a	n/a	n/a	n/a
3360.574	n/a	REC_WORD	1680287	wordpools/wasnorm_wordpool.txt	LTP078	ltpFR	0	15	0	SCULPTURE	1258	n/a	1	n/a	n/a	n/a	n/a	n/a
3375.464	n/a	WORD	1687732	wordpools/wasnorm_wordpool.txt	LTP078	ltpFR	0	16	0	COOK	372	n/a	1	1	0.412841796875	0.57763671875	upper	../fonts/zerothre.ttf
3379.564	n/a	WORD	1689782	wordpools/wasnorm_wordpool.txt	LTP078	ltpFR	0	16	0	ANCESTOR	20	n/a	1	1	0.412841796875	0.57763671875	upper	../fonts/zerothre.ttf
3383.546	n/a	WORD	1691773	wordpools/wasnorm_wordpool.txt	LTP078	ltpFR	0	16	0	IGLOO	734	n/a	1	1	0.412841796875	0.57763671875	upper	../fonts/zerothre.ttf
3387.63	n/a	WORD	1693815	wordpools/wasnorm_wordpool.txt	LTP078	ltpFR	0	16	0	SUSPECT	1415	n/a	1	1	0.412841796875	0.57763671875	upper	../fonts/zerothre.ttf
3391.622	n/a	WORD	1695811	wordpools/wasnorm_wordpool.txt	LTP078	ltpFR	0	16	0	SIRLOIN	1311	n/a	0	1	0.412841796875	0.57763671875	upper	../fonts/zerothre.ttf
3395.638	n/a	WORD	1697819	wordpools/wasnorm_wordpool.txt	LTP078	ltpFR	0	16	1	RAG	1160	n/a	0	0	0.5869140625	0.422607421875	lower	../fonts/amplitud.ttf
3399.488	n/a	WORD	1699744	wordpools/wasnorm_wordpool.txt	LTP078	ltpFR	0	16	1	WATER	1594	n/a	0	0	0.5869140625	0.422607421875	lower	../fonts/amplitud.ttf
3403.32	n/a	WORD	1701660	wordpools/wasnorm_wordpool.txt	LTP078	ltpFR	0	16	1	SHOWER	1296	n/a	0	0	0.5869140625	0.422607421875	lower	../fonts/amplitud.ttf
3407.162	n/a	WORD	1703581	wordpools/wasnorm_wordpool.txt	LTP078	ltpFR	0	16	0	FAUCET	555	n/a	0	1	0.412841796875	0.57763671875	upper	../fonts/zerothre.ttf
3411.12	n/a	WORD	1705560	wordpools/wasnorm_wordpool.txt	LTP078	ltpFR	0	16	0	JUDGE	761	n/a	1	1	0.412841796875	0.57763671875	upper	../fonts/zerothre.ttf
3415.094	n/a	WORD	1707547	wordpools/wasnorm_wordpool.txt	LTP078	ltpFR	0	16	0	BEET	115	n/a	0	1	0.412841796875	0.57763671875	upper	../fonts/zerothre.ttf
3419.078	n/a	WORD	1709539	wordpools/wasnorm_wordpool.txt	LTP078	ltpFR	0	16	1	DAM	436	n/a	0	0	0.5869140625	0.422607421875	lower	../fonts/amplitud.ttf
3423.194	n/a	WORD	1711597	wordpools/wasnorm_wordpool.txt	LTP078	ltpFR	0	16	1	LAGOON	795	n/a	0	0	0.5869140625	0.422607421875	lower	../fonts/amplitud.ttf
3427.044	n/a	WORD	1713522	wordpools/wasnorm_wordpool.txt	LTP078	ltpFR	0	16	1	LADY	794	n/a	1	0	0.5869140625	0.422607421875	lower	../fonts/amplitud.ttf
3431.044	n/a	WORD	1715522	wordpools/wasnorm_wordpool.txt	LTP078	ltpFR	0	16	1	LIPSTICK	829	n/a	0	0	0.5869140625	0.422607421875	lower	../fonts/amplitud.ttf
3435.028	n/a	WORD	1717514	wordpools/wasnorm_wordpool.txt	LTP078	ltpFR	0	16	1	ICE	730	n/a	0	0	0.5869140625	0.422607421875	lower	../fonts/amplitud.ttf
3440.746	n/a	REC_START	1720373	n/a	LTP078	ltpFR	0	16	n/a	n/a	n/a	n/a	n/a	n/a	n/a	n/a	n/a	n/a
3441.12	n/a	REC_WORD	1720560	wordpools/wasnorm_wordpool.txt	LTP078	ltpFR	0	16	1	LADY	794	n/a	1	n/a	n/a	n/a	n/a	n/a
3441.656	n/a	REC_WORD	1720828	wordpools/wasnorm_wordpool.txt	LTP078	ltpFR	0	16	1	LAGOON	795	n/a	0	n/a	n/a	n/a	n/a	n/a
3442.786	n/a	REC_WORD	1721393	wordpools/wasnorm_wordpool.txt	LTP078	ltpFR	0	16	1	LIPSTICK	829	n/a	0	n/a	n/a	n/a	n/a	n/a
3444.134	n/a	REC_WORD	1722067	wordpools/wasnorm_wordpool.txt	LTP078	ltpFR	0	16	1	ICE	730	n/a	0	n/a	n/a	n/a	n/a	n/a
3445.056	n/a	REC_WORD	1722528	wordpools/wasnorm_wordpool.txt	LTP078	ltpFR	0	16	0	COOK	372	n/a	1	n/a	n/a	n/a	n/a	n/a
3446.174	n/a	REC_WORD	1723087	wordpools/wasnorm_wordpool.txt	LTP078	ltpFR	0	16	0	ANCESTOR	20	n/a	1	n/a	n/a	n/a	n/a	n/a
3447.432	n/a	REC_WORD	1723716	wordpools/wasnorm_wordpool.txt	LTP078	ltpFR	0	16	0	IGLOO	734	n/a	1	n/a	n/a	n/a	n/a	n/a
3448.136	n/a	REC_WORD	1724068	wordpools/wasnorm_wordpool.txt	LTP078	ltpFR	0	16	0	SUSPECT	1415	n/a	1	n/a	n/a	n/a	n/a	n/a
3455.882	n/a	REC_WORD	1727941	wordpools/wasnorm_wordpool.txt	LTP078	ltpFR	0	16	0	SIRLOIN	1311	n/a	0	n/a	n/a	n/a	n/a	n/a
3458.642	n/a	REC_WORD	1729321	wordpools/wasnorm_wordpool.txt	LTP078	ltpFR	0	16	1	WATER	1594	n/a	0	n/a	n/a	n/a	n/a	n/a
3460.064	n/a	REC_WORD	1730032	wordpools/wasnorm_wordpool.txt	LTP078	ltpFR	0	16	1	RAG	1160	n/a	0	n/a	n/a	n/a	n/a	n/a
3463.75	n/a	REC_WORD	1731875	wordpools/wasnorm_wordpool.txt	LTP078	ltpFR	0	16	1	WELL	1600	n/a	0	n/a	n/a	n/a	n/a	n/a
3466.19	n/a	REC_WORD	1733095	wordpools/wasnorm_wordpool.txt	LTP078	ltpFR	0	16	0	FAUCET	555	n/a	0	n/a	n/a	n/a	n/a	n/a
3469.118	n/a	REC_WORD	1734559	wordpools/wasnorm_wordpool.txt	LTP078	ltpFR	0	16	0	JUDGE	761	n/a	1	n/a	n/a	n/a	n/a	n/a
3472.526	n/a	REC_WORD	1736263	wordpools/wasnorm_wordpool.txt	LTP078	ltpFR	0	16	0	BEET	115	n/a	0	n/a	n/a	n/a	n/a	n/a
3540.436	n/a	REC_START	1770218	n/a	LTP078	ltpFR	0	n/a	n/a	n/a	n/a	n/a	n/a	n/a	n/a	n/a	n/a	n/a
3541.434	n/a	FFR_REC_WORD	1770717	wordpools/wasnorm_wordpool.txt	LTP078	ltpFR	0	n/a	0	COOK	372	n/a	1	n/a	n/a	n/a	n/a	n/a
3542.466	n/a	FFR_REC_WORD	1771233	wordpools/wasnorm_wordpool.txt	LTP078	ltpFR	0	n/a	n/a	CHEF	290	n/a	n/a	n/a	n/a	n/a	n/a	n/a
3543.634	n/a	FFR_REC_WORD	1771817	wordpools/wasnorm_wordpool.txt	LTP078	ltpFR	0	n/a	0	IGLOO	734	n/a	1	n/a	n/a	n/a	n/a	n/a
3544.19	n/a	FFR_REC_WORD	1772095	wordpools/wasnorm_wordpool.txt	LTP078	ltpFR	0	n/a	0	SUSPECT	1415	n/a	1	n/a	n/a	n/a	n/a	n/a
3546.662	n/a	FFR_REC_WORD	1773331	wordpools/wasnorm_wordpool.txt	LTP078	ltpFR	0	n/a	0	JUDGE	761	n/a	1	n/a	n/a	n/a	n/a	n/a
3547.494	n/a	FFR_REC_WORD	1773747	wordpools/wasnorm_wordpool.txt	LTP078	ltpFR	0	n/a	0	SIRLOIN	1311	n/a	0	n/a	n/a	n/a	n/a	n/a
3548.632	n/a	FFR_REC_WORD	1774316	wordpools/wasnorm_wordpool.txt	LTP078	ltpFR	0	n/a	1	WATER	1594	n/a	0	n/a	n/a	n/a	n/a	n/a
3549.364	n/a	FFR_REC_WORD	1774682	wordpools/wasnorm_wordpool.txt	LTP078	ltpFR	0	n/a	1	WELL	1600	n/a	0	n/a	n/a	n/a	n/a	n/a
3551.296	n/a	FFR_REC_WORD	1775648	wordpools/wasnorm_wordpool.txt	LTP078	ltpFR	0	n/a	0	BEET	115	n/a	0	n/a	n/a	n/a	n/a	n/a
3552.838	n/a	FFR_REC_WORD	1776419	wordpools/wasnorm_wordpool.txt	LTP078	ltpFR	0	n/a	0	COOK	372	n/a	1	n/a	n/a	n/a	n/a	n/a
3554.004	n/a	FFR_REC_WORD	1777002	wordpools/wasnorm_wordpool.txt	LTP078	ltpFR	0	n/a	0	COOKBOOK	373	n/a	0	n/a	n/a	n/a	n/a	n/a
3555.322	n/a	FFR_REC_WORD	1777661	wordpools/wasnorm_wordpool.txt	LTP078	ltpFR	0	n/a	1	RECIPE	1175	n/a	0	n/a	n/a	n/a	n/a	n/a
3558.668	n/a	FFR_REC_WORD	1779334	wordpools/wasnorm_wordpool.txt	LTP078	ltpFR	0	n/a	1	ICE	730	n/a	0	n/a	n/a	n/a	n/a	n/a
3559.748	n/a	FFR_REC_WORD	1779874	wordpools/wasnorm_wordpool.txt	LTP078	ltpFR	0	n/a	0	SCULPTURE	1258	n/a	1	n/a	n/a	n/a	n/a	n/a
3560.716	n/a	FFR_REC_WORD	1780358	wordpools/wasnorm_wordpool.txt	LTP078	ltpFR	0	n/a	1	THUMB	1462	n/a	0	n/a	n/a	n/a	n/a	n/a
3564.396	n/a	FFR_REC_WORD	1782198	wordpools/wasnorm_wordpool.txt	LTP078	ltpFR	0	n/a	0	VILLAIN	1567	n/a	1	n/a	n/a	n/a	n/a	n/a
3565.34	n/a	FFR_REC_WORD	1782670	wordpools/wasnorm_wordpool.txt	LTP078	ltpFR	0	n/a	-1	TREE	1502	n/a	-1	n/a	n/a	n/a	n/a	n/a
3566.248	n/a	FFR_REC_WORD	1783124	wordpools/wasnorm_wordpool.txt	LTP078	ltpFR	0	n/a	-1	LEAF	808	n/a	-1	n/a	n/a	n/a	n/a	n/a
3568.308	n/a	FFR_REC_WORD	1784154	wordpools/wasnorm_wordpool.txt	LTP078	ltpFR	0	n/a	-1	STREAM	1392	n/a	-1	n/a	n/a	n/a	n/a	n/a
3571.352	n/a	FFR_REC_WORD	1785676	wordpools/wasnorm_wordpool.txt	LTP078	ltpFR	0	n/a	0	HEART	697	n/a	0	n/a	n/a	n/a	n/a	n/a
3577.302	n/a	FFR_REC_WORD	1788651	wordpools/wasnorm_wordpool.txt	LTP078	ltpFR	0	n/a	-1	WART	1590	n/a	-1	n/a	n/a	n/a	n/a	n/a
3580.346	n/a	FFR_REC_WORD	1790173	wordpools/wasnorm_wordpool.txt	LTP078	ltpFR	0	n/a	1	THUMB	1462	n/a	0	n/a	n/a	n/a	n/a	n/a
3584.846	n/a	FFR_REC_WORD	1792423	wordpools/wasnorm_wordpool.txt	LTP078	ltpFR	0	n/a	1	KANGAROO	768	n/a	1	n/a	n/a	n/a	n/a	n/a
3588.02	n/a	FFR_REC_WORD	1794010	wordpools/wasnorm_wordpool.txt	LTP078	ltpFR	0	n/a	1	PURSE	1145	n/a	0	n/a	n/a	n/a	n/a	n/a
3589.974	n/a	FFR_REC_WORD	1794987	wordpools/wasnorm_wordpool.txt	LTP078	ltpFR	0	n/a	1	DRUG	501	n/a	0	n/a	n/a	n/a	n/a	n/a
3599.722	n/a	FFR_REC_WORD	1799861	wordpools/wasnorm_wordpool.txt	LTP078	ltpFR	0	n/a	0	ENGINE	535	n/a	1	n/a	n/a	n/a	n/a	n/a
3600.856	n/a	FFR_REC_WORD	1800428	wordpools/wasnorm_wordpool.txt	LTP078	ltpFR	0	n/a	0	WINDSHIELD	1612	n/a	1	n/a	n/a	n/a	n/a	n/a
3603.002	n/a	FFR_REC_WORD	1801501	wordpools/wasnorm_wordpool.txt	LTP078	ltpFR	0	n/a	-1	CAR	241	n/a	-1	n/a	n/a	n/a	n/a	n/a
3615.762	n/a	FFR_REC_WORD	1807881	wordpools/wasnorm_wordpool.txt	LTP078	ltpFR	0	n/a	1	SALESMAN	1225	n/a	1	n/a	n/a	n/a	n/a	n/a
3619.694	n/a	FFR_REC_WORD	1809847	wordpools/wasnorm_wordpool.txt	LTP078	ltpFR	0	n/a	1	SWAN	1417	n/a	1	n/a	n/a	n/a	n/a	n/a
3625.286	n/a	FFR_REC_WORD	1812643	wordpools/wasnorm_wordpool.txt	LTP078	ltpFR	0	n/a	0	TREAD	1499	n/a	0	n/a	n/a	n/a	n/a	n/a
3628.17	n/a	FFR_REC_WORD	1814085	wordpools/wasnorm_wordpool.txt	LTP078	ltpFR	0	n/a	0	LIBRARY	816	n/a	1	n/a	n/a	n/a	n/a	n/a
3629.506	n/a	FFR_REC_WORD	1814753	wordpools/wasnorm_wordpool.txt	LTP078	ltpFR	0	n/a	0	OVEN	991	n/a	1	n/a	n/a	n/a	n/a	n/a
3631.812	n/a	FFR_REC_WORD	1815906	wordpools/wasnorm_wordpool.txt	LTP078	ltpFR	0	n/a	0	FOOT	590	n/a	0	n/a	n/a	n/a	n/a	n/a
3681.316	n/a	FFR_REC_WORD	1840658	wordpools/wasnorm_wordpool.txt	LTP078	ltpFR	0	n/a	1	LAGOON	795	n/a	0	n/a	n/a	n/a	n/a	n/a
3682.196	n/a	FFR_REC_WORD	1841098	wordpools/wasnorm_wordpool.txt	LTP078	ltpFR	0	n/a	1	LADY	794	n/a	1	n/a	n/a	n/a	n/a	n/a
3682.86	n/a	FFR_REC_WORD	1841430	wordpools/wasnorm_wordpool.txt	LTP078	ltpFR	0	n/a	1	LIPSTICK	829	n/a	0	n/a	n/a	n/a	n/a	n/a
3687.434	n/a	FFR_REC_WORD	1843717	wordpools/wasnorm_wordpool.txt	LTP078	ltpFR	0	n/a	1	LAPEL	800	n/a	0	n/a	n/a	n/a	n/a	n/a
3689.368	n/a	FFR_REC_WORD	1844684	wordpools/wasnorm_wordpool.txt	LTP078	ltpFR	0	n/a	1	VEAL	1551	n/a	1	n/a	n/a	n/a	n/a	n/a
3690.226	n/a	FFR_REC_WORD	1845113	wordpools/wasnorm_wordpool.txt	LTP078	ltpFR	0	n/a	1	TOWER	1490	n/a	0	n/a	n/a	n/a	n/a	n/a
3706.262	n/a	FFR_REC_WORD	1853131	wordpools/wasnorm_wordpool.txt	LTP078	ltpFR	0	n/a	1	BEGGAR	117	n/a	0	n/a	n/a	n/a	n/a	n/a
3708.946	n/a	FFR_REC_WORD	1854473	wordpools/wasnorm_wordpool.txt	LTP078	ltpFR	0	n/a	1	DINNER	468	n/a	0	n/a	n/a	n/a	n/a	n/a
3709.456	n/a	FFR_REC_WORD	1854728	wordpools/wasnorm_wordpool.txt	LTP078	ltpFR	0	n/a	0	BANQUET	86	n/a	1	n/a	n/a	n/a	n/a	n/a
3714.204	n/a	FFR_REC_WORD	1857102	wordpools/wasnorm_wordpool.txt	LTP078	ltpFR	0	n/a	0	OINTMENT	974	n/a	0	n/a	n/a	n/a	n/a	n/a
3720.624	n/a	FFR_REC_WORD	1860312	wordpools/wasnorm_wordpool.txt	LTP078	ltpFR	0	n/a	0	ERASER	538	n/a	0	n/a	n/a	n/a	n/a	n/a
3722.426	n/a	FFR_REC_WORD	1861213	wordpools/wasnorm_wordpool.txt	LTP078	ltpFR	0	n/a	0	BUTLER	204	n/a	1	n/a	n/a	n/a	n/a	n/a
3724.366	n/a	FFR_REC_WORD_VV	1862183	wordpools/wasnorm_wordpool.txt	LTP078	ltpFR	0	n/a	n/a	<>	-1	n/a	n/a	n/a	n/a	n/a	n/a	n/a
3724.926	n/a	FFR_REC_WORD	1862463	wordpools/wasnorm_wordpool.txt	LTP078	ltpFR	0	n/a	0	VEST	1559	n/a	n/a	n/a	n/a	n/a	n/a	n/a
3725.818	n/a	FFR_REC_WORD_VV	1862909	wordpools/wasnorm_wordpool.txt	LTP078	ltpFR	0	n/a	n/a	<>	-1	n/a	n/a	n/a	n/a	n/a	n/a	n/a
3726.198	n/a	FFR_REC_WORD	1863099	wordpools/wasnorm_wordpool.txt	LTP078	ltpFR	0	n/a	0	VEST	1559	n/a	n/a	n/a	n/a	n/a	n/a	n/a
3726.6	n/a	FFR_REC_WORD	1863300	wordpools/wasnorm_wordpool.txt	LTP078	ltpFR	0	n/a	n/a	SUIT	1402	n/a	n/a	n/a	n/a	n/a	n/a	n/a
3730.018	n/a	FFR_REC_WORD	1865009	wordpools/wasnorm_wordpool.txt	LTP078	ltpFR	0	n/a	0	TRAY	1498	n/a	0	n/a	n/a	n/a	n/a	n/a
3731.106	n/a	FFR_REC_WORD	1865553	wordpools/wasnorm_wordpool.txt	LTP078	ltpFR	0	n/a	0	DIRT	472	n/a	0	n/a	n/a	n/a	n/a	n/a
3731.674	n/a	FFR_REC_WORD	1865837	wordpools/wasnorm_wordpool.txt	LTP078	ltpFR	0	n/a	0	CHICK	296	n/a	0	n/a	n/a	n/a	n/a	n/a
3748.602	n/a	FFR_REC_WORD	1874301	wordpools/wasnorm_wordpool.txt	LTP078	ltpFR	0	n/a	-1	DRIVEWAY	500	n/a	-1	n/a	n/a	n/a	n/a	n/a
3750.02	n/a	FFR_REC_WORD	1875010	wordpools/wasnorm_wordpool.txt	LTP078	ltpFR	0	n/a	-1	CHAIRPERSON	275	n/a	-1	n/a	n/a	n/a	n/a	n/a
3756.37	n/a	FFR_REC_WORD	1878185	wordpools/wasnorm_wordpool.txt	LTP078	ltpFR	0	n/a	-1	RIDER	1191	n/a	-1	n/a	n/a	n/a	n/a	n/a
3757.932	n/a	FFR_REC_WORD	1878966	wordpools/wasnorm_wordpool.txt	LTP078	ltpFR	0	n/a	-1	DOLLAR	482	n/a	-1	n/a	n/a	n/a	n/a	n/a
3771.342	n/a	FFR_REC_WORD	1885671	wordpools/wasnorm_wordpool.txt	LTP078	ltpFR	0	n/a	-1	COCKTAIL	338	n/a	-1	n/a	n/a	n/a	n/a	n/a
3772.174	n/a	FFR_REC_WORD	1886087	wordpools/wasnorm_wordpool.txt	LTP078	ltpFR	0	n/a	-1	PIGMENT	1066	n/a	-1	n/a	n/a	n/a	n/a	n/a
3820.706	n/a	FFR_REC_WORD	1910353	wordpools/wasnorm_wordpool.txt	LTP078	ltpFR	0	n/a	0	SURGEON	1413	n/a	1	n/a	n/a	n/a	n/a	n/a
3822.108	n/a	FFR_REC_WORD	1911054	wordpools/wasnorm_wordpool.txt	LTP078	ltpFR	0	n/a	0	ONION	977	n/a	0	n/a	n/a	n/a	n/a	n/a
3822.646	n/a	FFR_REC_WORD	1911323	wordpools/wasnorm_wordpool.txt	LTP078	ltpFR	0	n/a	0	STEAM	1375	n/a	0	n/a	n/a	n/a	n/a	n/a
3832.9	n/a	FFR_REC_WORD	1916450	wordpools/wasnorm_wordpool.txt	LTP078	ltpFR	0	n/a	0	NURSE	963	n/a	1	n/a	n/a	n/a	n/a	n/a
3921.718	n/a	REC_START	1960859	n/a	LTP078	ltpFR	0	1	n/a	n/a	n/a	n/a	n/a	n/a	n/a	n/a	n/a	n/a
3921.75	n/a	RECOG_LURE	1960875	n/a	LTP078	ltpFR	0	1	n/a	PAINTING	1005	2	n/a	n/a	n/a	n/a	n/a	n/a
3932.354	n/a	RECOG_RESP	1966177	n/a	LTP078	ltpFR	0	1	n/a	PAINTING	1005	n/a	n/a	n/a	n/a	n/a	n/a	n/a
3934.11	n/a	RECOG_CONF	1967055	n/a	LTP078	ltpFR	0	1	n/a	PAINTING	1005	2	n/a	n/a	n/a	n/a	n/a	n/a
3937.732	n/a	RECOG_TARGET	1968866	n/a	LTP078	ltpFR	0	1	0	BUTLER	204	5	1	n/a	n/a	n/a	n/a	n/a
3940.306	n/a	RECOG_RESP	1970153	n/a	LTP078	ltpFR	0	1	0	BUTLER	204	n/a	1	n/a	n/a	n/a	n/a	n/a
3943.784	n/a	RECOG_RESP_VV	1971892	n/a	LTP078	ltpFR	0	1	0	BUTLER	204	5	1	n/a	n/a	n/a	n/a	n/a
3947.192	n/a	RECOG_CONF	1973596	n/a	LTP078	ltpFR	0	1	0	BUTLER	204	5	1	n/a	n/a	n/a	n/a	n/a
3949.824	n/a	RECOG_LURE	1974912	n/a	LTP078	ltpFR	0	1	n/a	HEEL	700	5	n/a	n/a	n/a	n/a	n/a	n/a
3952.62	n/a	RECOG_RESP	1976310	n/a	LTP078	ltpFR	0	1	n/a	HEEL	700	n/a	n/a	n/a	n/a	n/a	n/a	n/a
3955.168	n/a	RECOG_CONF	1977584	n/a	LTP078	ltpFR	0	1	n/a	HEEL	700	5	n/a	n/a	n/a	n/a	n/a	n/a
3957.056	n/a	RECOG_TARGET	1978528	n/a	LTP078	ltpFR	0	1	0	VILLAIN	1567	5	1	n/a	n/a	n/a	n/a	n/a
3958.84	n/a	RECOG_RESP	1979420	n/a	LTP078	ltpFR	0	1	0	VILLAIN	1567	n/a	1	n/a	n/a	n/a	n/a	n/a
3960.286	n/a	RECOG_CONF	1980143	n/a	LTP078	ltpFR	0	1	0	VILLAIN	1567	5	1	n/a	n/a	n/a	n/a	n/a
3962.14	n/a	RECOG_LURE	1981070	n/a	LTP078	ltpFR	0	1	n/a	SCALE	1241	4	n/a	n/a	n/a	n/a	n/a	n/a
3965.03	n/a	RECOG_RESP	1982515	n/a	LTP078	ltpFR	0	1	n/a	SCALE	1241	n/a	n/a	n/a	n/a	n/a	n/a	n/a
3966.748	n/a	RECOG_CONF	1983374	n/a	LTP078	ltpFR	0	1	n/a	SCALE	1241	4	n/a	n/a	n/a	n/a	n/a	n/a
3968.298	n/a	RECOG_LURE	1984149	n/a	LTP078	ltpFR	0	1	n/a	MOUNTAIN	924	5	n/a	n/a	n/a	n/a	n/a	n/a
3970.304	n/a	RECOG_RESP	1985152	n/a	LTP078	ltpFR	0	1	n/a	MOUNTAIN	924	n/a	n/a	n/a	n/a	n/a	n/a	n/a
3971.208	n/a	RECOG_CONF	1985604	n/a	LTP078	ltpFR	0	1	n/a	MOUNTAIN	924	5	n/a	n/a	n/a	n/a	n/a	n/a
3972.616	n/a	RECOG_TARGET	1986308	n/a	LTP078	ltpFR	0	1	1	BANDAGE	79	5	0	n/a	n/a	n/a	n/a	n/a
3975.094	n/a	RECOG_RESP	1987547	n/a	LTP078	ltpFR	0	1	1	BANDAGE	79	n/a	0	n/a	n/a	n/a	n/a	n/a
3976.262	n/a	RECOG_CONF	1988131	n/a	LTP078	ltpFR	0	1	1	BANDAGE	79	5	0	n/a	n/a	n/a	n/a	n/a
3977.948	n/a	RECOG_TARGET	1988974	n/a	LTP078	ltpFR	0	1	0	FLY	586	5	0	n/a	n/a	n/a	n/a	n/a
3979.244	n/a	RECOG_RESP	1989622	n/a	LTP078	ltpFR	0	1	0	FLY	586	n/a	0	n/a	n/a	n/a	n/a	n/a
3980.228	n/a	RECOG_CONF	1990114	n/a	LTP078	ltpFR	0	1	0	FLY	586	5	0	n/a	n/a	n/a	n/a	n/a
3981.648	n/a	RECOG_TARGET	1990824	n/a	LTP078	ltpFR	0	1	0	HALL	677	5	1	n/a	n/a	n/a	n/a	n/a
3982.832	n/a	RECOG_RESP	1991416	n/a	LTP078	ltpFR	0	1	0	HALL	677	n/a	1	n/a	n/a	n/a	n/a	n/a
3983.978	n/a	RECOG_CONF	1991989	n/a	LTP078	ltpFR	0	1	0	HALL	677	5	1	n/a	n/a	n/a	n/a	n/a
3985.354	n/a	RECOG_TARGET	1992677	n/a	LTP078	ltpFR	0	1	0	SIREN	1310	2	0	n/a	n/a	n/a	n/a	n/a
3987.832	n/a	RECOG_RESP	1993916	n/a	LTP078	ltpFR	0	1	0	SIREN	1310	n/a	0	n/a	n/a	n/a	n/a	n/a
3990.156	n/a	RECOG_CONF	1995078	n/a	LTP078	ltpFR	0	1	0	SIREN	1310	2	0	n/a	n/a	n/a	n/a	n/a
3991.774	n/a	RECOG_TARGET	1995887	n/a	LTP078	ltpFR	0	1	1	SCOTCH	1251	5	0	n/a	n/a	n/a	n/a	n/a
3993.114	n/a	RECOG_RESP	1996557	n/a	LTP078	ltpFR	0	1	1	SCOTCH	1251	n/a	0	n/a	n/a	n/a	n/a	n/a
3993.896	n/a	RECOG_CONF	1996948	n/a	LTP078	ltpFR	0	1	1	SCOTCH	1251	5	0	n/a	n/a	n/a	n/a	n/a
3995.322	n/a	RECOG_LURE	1997661	n/a	LTP078	ltpFR	0	1	n/a	BULB	192	5	n/a	n/a	n/a	n/a	n/a	n/a
3998.138	n/a	RECOG_RESP	1999069	n/a	LTP078	ltpFR	0	1	n/a	BULB	192	n/a	n/a	n/a	n/a	n/a	n/a	n/a
3999.206	n/a	RECOG_CONF	1999603	n/a	LTP078	ltpFR	0	1	n/a	BULB	192	5	n/a	n/a	n/a	n/a	n/a	n/a
4000.64	n/a	RECOG_TARGET	2000320	n/a	LTP078	ltpFR	0	1	1	CREEK	404	3	0	n/a	n/a	n/a	n/a	n/a
4004.388	n/a	RECOG_RESP	2002194	n/a	LTP078	ltpFR	0	1	1	CREEK	404	n/a	0	n/a	n/a	n/a	n/a	n/a
4007.402	n/a	RECOG_CONF	2003701	n/a	LTP078	ltpFR	0	1	1	CREEK	404	3	0	n/a	n/a	n/a	n/a	n/a
4009.264	n/a	RECOG_TARGET	2004632	n/a	LTP078	ltpFR	0	1	-1	HANDCUFFS	685	5	-1	n/a	n/a	n/a	n/a	n/a
4010.716	n/a	RECOG_RESP	2005358	n/a	LTP078	ltpFR	0	1	-1	HANDCUFFS	685	n/a	-1	n/a	n/a	n/a	n/a	n/a
4011.408	n/a	RECOG_CONF	2005704	n/a	LTP078	ltpFR	0	1	-1	HANDCUFFS	685	5	-1	n/a	n/a	n/a	n/a	n/a
4012.69	n/a	RECOG_LURE	2006345	n/a	LTP078	ltpFR	0	1	n/a	CHIEF	298	5	n/a	n/a	n/a	n/a	n/a	n/a
4013.588	n/a	RECOG_RESP	2006794	n/a	LTP078	ltpFR	0	1	n/a	CHIEF	298	n/a	n/a	n/a	n/a	n/a	n/a	n/a
4014.306	n/a	RECOG_CONF	2007153	n/a	LTP078	ltpFR	0	1	n/a	CHIEF	298	5	n/a	n/a	n/a	n/a	n/a	n/a
4015.64	n/a	RECOG_TARGET	2007820	n/a	LTP078	ltpFR	0	1	-1	PUMP	1141	5	-1	n/a	n/a	n/a	n/a	n/a
4017.01	n/a	RECOG_RESP	2008505	n/a	LTP078	ltpFR	0	1	-1	PUMP	1141	n/a	-1	n/a	n/a	n/a	n/a	n/a
4017.808	n/a	RECOG_CONF	2008904	n/a	LTP078	ltpFR	0	1	-1	PUMP	1141	5	-1	n/a	n/a	n/a	n/a	n/a
4019.112	n/a	RECOG_LURE	2009556	n/a	LTP078	ltpFR	0	1	n/a	OFFICE	972	4	n/a	n/a	n/a	n/a	n/a	n/a
4021.292	n/a	RECOG_RESP	2010646	n/a	LTP078	ltpFR	0	1	n/a	OFFICE	972	n/a	n/a	n/a	n/a	n/a	n/a	n/a
4022.588	n/a	RECOG_CONF	2011294	n/a	LTP078	ltpFR	0	1	n/a	OFFICE	972	4	n/a	n/a	n/a	n/a	n/a	n/a
4023.946	n/a	RECOG_LURE	2011973	n/a	LTP078	ltpFR	0	1	n/a	PROTON	1132	5	n/a	n/a	n/a	n/a	n/a	n/a
4025.522	n/a	RECOG_RESP	2012761	n/a	LTP078	ltpFR	0	1	n/a	PROTON	1132	n/a	n/a	n/a	n/a	n/a	n/a	n/a
4026.27	n/a	RECOG_CONF	2013135	n/a	LTP078	ltpFR	0	1	n/a	PROTON	1132	5	n/a	n/a	n/a	n/a	n/a	n/a
4027.564	n/a	RECOG_TARGET	2013782	n/a	LTP078	ltpFR	0	1	0	DIRT	472	5	0	n/a	n/a	n/a	n/a	n/a
4028.69	n/a	RECOG_RESP	2014345	n/a	LTP078	ltpFR	0	1	0	DIRT	472	n/a	0	n/a	n/a	n/a	n/a	n/a
4029.298	n/a	RECOG_CONF	2014649	n/a	LTP078	ltpFR	0	1	0	DIRT	472	5	0	n/a	n/a	n/a	n/a	n/a
4030.714	n/a	RECOG_LURE	2015357	n/a	LTP078	ltpFR	0	1	n/a	RODENT	1204	4	n/a	n/a	n/a	n/a	n/a	n/a
4032.392	n/a	RECOG_RESP	2016196	n/a	LTP078	ltpFR	0	1	n/a	RODENT	1204	n/a	n/a	n/a	n/a	n/a	n/a	n/a
4033.914	n/a	RECOG_CONF	2016957	n/a	LTP078	ltpFR	0	1	n/a	RODENT	1204	4	n/a	n/a	n/a	n/a	n/a	n/a
4052.984	n/a	REC_START	2026492	n/a	LTP078	ltpFR	0	2	n/a	n/a	n/a	n/a	n/a	n/a	n/a	n/a	n/a	n/a
4053.02	n/a	RECOG_TARGET	2026510	n/a	LTP078	ltpFR	0	2	1	PURSE	1145	5	0	n/a	n/a	n/a	n/a	n/a
4054.246	n/a	RECOG_RESP	2027123	n/a	LTP078	ltpFR	0	2	1	PURSE	1145	n/a	0	n/a	n/a	n/a	n/a	n/a
4056.21	n/a	RECOG_CONF	2028105	n/a	LTP078	ltpFR	0	2	1	PURSE	1145	5	0	n/a	n/a	n/a	n/a	n/a
4057.738	n/a	RECOG_TARGET	2028869	n/a	LTP078	ltpFR	0	2	0	CHOCOLATE	306	5	0	n/a	n/a	n/a	n/a	n/a
4058.716	n/a	RECOG_RESP	2029358	n/a	LTP078	ltpFR	0	2	0	CHOCOLATE	306	n/a	0	n/a	n/a	n/a	n/a	n/a
4059.908	n/a	RECOG_CONF	2029954	n/a	LTP078	ltpFR	0	2	0	CHOCOLATE	306	5	0	n/a	n/a	n/a	n/a	n/a
4061.522	n/a	RECOG_TARGET	2030761	n/a	LTP078	ltpFR	0	2	0	COMET	353	3	1	n/a	n/a	n/a	n/a	n/a
4063.624	n/a	RECOG_RESP	2031812	n/a	LTP078	ltpFR	0	2	0	COMET	353	n/a	1	n/a	n/a	n/a	n/a	n/a
4065.918	n/a	RECOG_CONF	2032959	n/a	LTP078	ltpFR	0	2	0	COMET	353	3	1	n/a	n/a	n/a	n/a	n/a
4067.72	n/a	RECOG_TARGET	2033860	n/a	LTP078	ltpFR	0	2	0	NURSE	963	5	1	n/a	n/a	n/a	n/a	n/a
4068.638	n/a	RECOG_RESP	2034319	n/a	LTP078	ltpFR	0	2	0	NURSE	963	n/a	1	n/a	n/a	n/a	n/a	n/a
4069.856	n/a	RECOG_CONF	2034928	n/a	LTP078	ltpFR	0	2	0	NURSE	963	5	1	n/a	n/a	n/a	n/a	n/a
4071.378	n/a	RECOG_LURE	2035689	n/a	LTP078	ltpFR	0	2	n/a	HANDKERCHIEF	686	3	n/a	n/a	n/a	n/a	n/a	n/a
4073.284	n/a	RECOG_RESP	2036642	n/a	LTP078	ltpFR	0	2	n/a	HANDKERCHIEF	686	n/a	n/a	n/a	n/a	n/a	n/a	n/a
4074.586	n/a	RECOG_CONF	2037293	n/a	LTP078	ltpFR	0	2	n/a	HANDKERCHIEF	686	3	n/a	n/a	n/a	n/a	n/a	n/a
4076.22	n/a	RECOG_LURE	2038110	n/a	LTP078	ltpFR	0	2	n/a	SPACE	1345	4	n/a	n/a	n/a	n/a	n/a	n/a
4078.736	n/a	RECOG_RESP	2039368	n/a	LTP078	ltpFR	0	2	n/a	SPACE	1345	n/a	n/a	n/a	n/a	n/a	n/a	n/a
4079.942	n/a	RECOG_CONF	2039971	n/a	LTP078	ltpFR	0	2	n/a	SPACE	1345	4	n/a	n/a	n/a	n/a	n/a	n/a
4081.446	n/a	RECOG_LURE	2040723	n/a	LTP078	ltpFR	0	2	n/a	CONTINENT	367	4	n/a	n/a	n/a	n/a	n/a	n/a
4083.32	n/a	RECOG_RESP	2041660	n/a	LTP078	ltpFR	0	2	n/a	CONTINENT	367	n/a	n/a	n/a	n/a	n/a	n/a	n/a
4084.244	n/a	RECOG_CONF	2042122	n/a	LTP078	ltpFR	0	2	n/a	CONTINENT	367	4	n/a	n/a	n/a	n/a	n/a	n/a
4085.746	n/a	RECOG_TARGET	2042873	n/a	LTP078	ltpFR	0	2	1	VEAL	1551	5	1	n/a	n/a	n/a	n/a	n/a
4086.592	n/a	RECOG_RESP	2043296	n/a	LTP078	ltpFR	0	2	1	VEAL	1551	n/a	1	n/a	n/a	n/a	n/a	n/a
4087.55	n/a	RECOG_CONF	2043775	n/a	LTP078	ltpFR	0	2	1	VEAL	1551	5	1	n/a	n/a	n/a	n/a	n/a
4089.078	n/a	RECOG_LURE	2044539	n/a	LTP078	ltpFR	0	2	n/a	CHISEL	305	5	n/a	n/a	n/a	n/a	n/a	n/a
4090.5	n/a	RECOG_RESP	2045250	n/a	LTP078	ltpFR	0	2	n/a	CHISEL	305	n/a	n/a	n/a	n/a	n/a	n/a	n/a
4091.672	n/a	RECOG_CONF	2045836	n/a	LTP078	ltpFR	0	2	n/a	CHISEL	305	5	n/a	n/a	n/a	n/a	n/a	n/a
4093.204	n/a	RECOG_LURE	2046602	n/a	LTP078	ltpFR	0	2	n/a	OPERATOR	979	4	n/a	n/a	n/a	n/a	n/a	n/a
4094.696	n/a	RECOG_RESP	2047348	n/a	LTP078	ltpFR	0	2	n/a	OPERATOR	979	n/a	n/a	n/a	n/a	n/a	n/a	n/a
4095.688	n/a	RECOG_CONF	2047844	n/a	LTP078	ltpFR	0	2	n/a	OPERATOR	979	4	n/a	n/a	n/a	n/a	n/a	n/a
4097.212	n/a	RECOG_TARGET	2048606	n/a	LTP078	ltpFR	0	2	1	RAM	1165	5	1	n/a	n/a	n/a	n/a	n/a
4098.078	n/a	RECOG_RESP	2049039	n/a	LTP078	ltpFR	0	2	1	RAM	1165	n/a	1	n/a	n/a	n/a	n/a	n/a
4099.096	n/a	RECOG_CONF	2049548	n/a	LTP078	ltpFR	0	2	1	RAM	1165	5	1	n/a	n/a	n/a	n/a	n/a
4100.586	n/a	RECOG_TARGET	2050293	n/a	LTP078	ltpFR	0	2	0	CABIN	211	3	1	n/a	n/a	n/a	n/a	n/a
4102.768	n/a	RECOG_RESP	2051384	n/a	LTP078	ltpFR	0	2	0	CABIN	211	n/a	1	n/a	n/a	n/a	n/a	n/a
4104.04	n/a	RECOG_CONF	2052020	n/a	LTP078	ltpFR	0	2	0	CABIN	211	3	1	n/a	n/a	n/a	n/a	n/a
4105.562	n/a	RECOG_TARGET	2052781	n/a	LTP078	ltpFR	0	2	-1	TURKEY	1520	4	-1	n/a	n/a	n/a	n/a	n/a
4106.738	n/a	RECOG_RESP	2053369	n/a	LTP078	ltpFR	0	2	-1	TURKEY	1520	n/a	-1	n/a	n/a	n/a	n/a	n/a
4107.99	n/a	RECOG_CONF	2053995	n/a	LTP078	ltpFR	0	2	-1	TURKEY	1520	4	-1	n/a	n/a	n/a	n/a	n/a
4109.52	n/a	RECOG_LURE	2054760	n/a	LTP078	ltpFR	0	2	n/a	SLEIGH	1325	4	n/a	n/a	n/a	n/a	n/a	n/a
4110.64	n/a	RECOG_RESP	2055320	n/a	LTP078	ltpFR	0	2	n/a	SLEIGH	1325	n/a	n/a	n/a	n/a	n/a	n/a	n/a
4111.474	n/a	RECOG_CONF	2055737	n/a	LTP078	ltpFR	0	2	n/a	SLEIGH	1325	4	n/a	n/a	n/a	n/a	n/a	n/a
4112.97	n/a	RECOG_TARGET	2056485	n/a	LTP078	ltpFR	0	2	1	ACTRESS	6	5	1	n/a	n/a	n/a	n/a	n/a
4113.842	n/a	RECOG_RESP	2056921	n/a	LTP078	ltpFR	0	2	1	ACTRESS	6	n/a	1	n/a	n/a	n/a	n/a	n/a
4114.846	n/a	RECOG_CONF	2057423	n/a	LTP078	ltpFR	0	2	1	ACTRESS	6	5	1	n/a	n/a	n/a	n/a	n/a
4116.394	n/a	RECOG_TARGET	2058197	n/a	LTP078	ltpFR	0	2	0	SNORKEL	1336	5	0	n/a	n/a	n/a	n/a	n/a
4117.27	n/a	RECOG_RESP	2058635	n/a	LTP078	ltpFR	0	2	0	SNORKEL	1336	n/a	0	n/a	n/a	n/a	n/a	n/a
4118.308	n/a	RECOG_CONF	2059154	n/a	LTP078	ltpFR	0	2	0	SNORKEL	1336	5	0	n/a	n/a	n/a	n/a	n/a
4119.644	n/a	RECOG_TARGET	2059822	n/a	LTP078	ltpFR	0	2	1	VICTIM	1562	5	0	n/a	n/a	n/a	n/a	n/a
4121.232	n/a	RECOG_RESP	2060616	n/a	LTP078	ltpFR	0	2	1	VICTIM	1562	n/a	0	n/a	n/a	n/a	n/a	n/a
4122.174	n/a	RECOG_CONF	2061087	n/a	LTP078	ltpFR	0	2	1	VICTIM	1562	5	0	n/a	n/a	n/a	n/a	n/a
4123.644	n/a	RECOG_LURE	2061822	n/a	LTP078	ltpFR	0	2	n/a	TAG	1429	4	n/a	n/a	n/a	n/a	n/a	n/a
4125.192	n/a	RECOG_RESP	2062596	n/a	LTP078	ltpFR	0	2	n/a	TAG	1429	n/a	n/a	n/a	n/a	n/a	n/a	n/a
4126.664	n/a	RECOG_CONF	2063332	n/a	LTP078	ltpFR	0	2	n/a	TAG	1429	4	n/a	n/a	n/a	n/a	n/a	n/a
4128.184	n/a	RECOG_TARGET	2064092	n/a	LTP078	ltpFR	0	2	1	PAPER	1011	5	0	n/a	n/a	n/a	n/a	n/a
4129.494	n/a	RECOG_RESP	2064747	n/a	LTP078	ltpFR	0	2	1	PAPER	1011	n/a	0	n/a	n/a	n/a	n/a	n/a
4130.412	n/a	RECOG_CONF	2065206	n/a	LTP078	ltpFR	0	2	1	PAPER	1011	5	0	n/a	n/a	n/a	n/a	n/a
4131.918	n/a	RECOG_TARGET	2065959	n/a	LTP078	ltpFR	0	2	-1	STOMACH	1384	5	-1	n/a	n/a	n/a	n/a	n/a
4132.632	n/a	RECOG_RESP	2066316	n/a	LTP078	ltpFR	0	2	-1	STOMACH	1384	n/a	-1	n/a	n/a	n/a	n/a	n/a
4133.708	n/a	RECOG_CONF	2066854	n/a	LTP078	ltpFR	0	2	-1	STOMACH	1384	5	-1	n/a	n/a	n/a	n/a	n/a
4157.354	n/a	REC_START	2078677	n/a	LTP078	ltpFR	0	3	n/a	n/a	n/a	n/a	n/a	n/a	n/a	n/a	n/a	n/a
4157.384	n/a	RECOG_LURE	2078692	n/a	LTP078	ltpFR	0	3	n/a	LIMB	822	2	n/a	n/a	n/a	n/a	n/a	n/a
4160.092	n/a	RECOG_RESP	2080046	n/a	LTP078	ltpFR	0	3	n/a	LIMB	822	n/a	n/a	n/a	n/a	n/a	n/a	n/a
4161.44	n/a	RECOG_CONF	2080720	n/a	LTP078	ltpFR	0	3	n/a	LIMB	822	2	n/a	n/a	n/a	n/a	n/a	n/a
4162.818	n/a	RECOG_TARGET	2081409	n/a	LTP078	ltpFR	0	3	-1	WART	1590	5	-1	n/a	n/a	n/a	n/a	n/a
4163.614	n/a	RECOG_RESP	2081807	n/a	LTP078	ltpFR	0	3	-1	WART	1590	n/a	-1	n/a	n/a	n/a	n/a	n/a
4164.472	n/a	RECOG_CONF	2082236	n/a	LTP078	ltpFR	0	3	-1	WART	1590	5	-1	n/a	n/a	n/a	n/a	n/a
4166.05	n/a	RECOG_TARGET	2083025	n/a	LTP078	ltpFR	0	3	0	HAMMER	680	5	0	n/a	n/a	n/a	n/a	n/a
4166.862	n/a	RECOG_RESP	2083431	n/a	LTP078	ltpFR	0	3	0	HAMMER	680	n/a	0	n/a	n/a	n/a	n/a	n/a
4167.74	n/a	RECOG_CONF	2083870	n/a	LTP078	ltpFR	0	3	0	HAMMER	680	5	0	n/a	n/a	n/a	n/a	n/a
4169.176	n/a	RECOG_TARGET	2084588	n/a	LTP078	ltpFR	0	3	0	WHEAT	1602	4	0	n/a	n/a	n/a	n/a	n/a
4170.504	n/a	RECOG_RESP	2085252	n/a	LTP078	ltpFR	0	3	0	WHEAT	1602	n/a	0	n/a	n/a	n/a	n/a	n/a
4171.582	n/a	RECOG_CONF	2085791	n/a	LTP078	ltpFR	0	3	0	WHEAT	1602	4	0	n/a	n/a	n/a	n/a	n/a
4172.942	n/a	RECOG_TARGET	2086471	n/a	LTP078	ltpFR	0	3	-1	BOMB	147	5	-1	n/a	n/a	n/a	n/a	n/a
4173.648	n/a	RECOG_RESP	2086824	n/a	LTP078	ltpFR	0	3	-1	BOMB	147	n/a	-1	n/a	n/a	n/a	n/a	n/a
4174.55	n/a	RECOG_CONF	2087275	n/a	LTP078	ltpFR	0	3	-1	BOMB	147	5	-1	n/a	n/a	n/a	n/a	n/a
4175.934	n/a	RECOG_LURE	2087967	n/a	LTP078	ltpFR	0	3	n/a	HONEY	713	4	n/a	n/a	n/a	n/a	n/a	n/a
4176.9	n/a	RECOG_RESP	2088450	n/a	LTP078	ltpFR	0	3	n/a	HONEY	713	n/a	n/a	n/a	n/a	n/a	n/a	n/a
4177.604	n/a	RECOG_CONF	2088802	n/a	LTP078	ltpFR	0	3	n/a	HONEY	713	4	n/a	n/a	n/a	n/a	n/a	n/a
4179.092	n/a	RECOG_TARGET	2089546	n/a	LTP078	ltpFR	0	3	0	LIEUTENANT	818	5	0	n/a	n/a	n/a	n/a	n/a
4179.928	n/a	RECOG_RESP	2089964	n/a	LTP078	ltpFR	0	3	0	LIEUTENANT	818	n/a	0	n/a	n/a	n/a	n/a	n/a
4180.522	n/a	RECOG_CONF	2090261	n/a	LTP078	ltpFR	0	3	0	LIEUTENANT	818	5	0	n/a	n/a	n/a	n/a	n/a
4182.092	n/a	RECOG_LURE	2091046	n/a	LTP078	ltpFR	0	3	n/a	MOOSE	915	3	n/a	n/a	n/a	n/a	n/a	n/a
4183.908	n/a	RECOG_RESP	2091954	n/a	LTP078	ltpFR	0	3	n/a	MOOSE	915	n/a	n/a	n/a	n/a	n/a	n/a	n/a
4185.116	n/a	RECOG_CONF	2092558	n/a	LTP078	ltpFR	0	3	n/a	MOOSE	915	3	n/a	n/a	n/a	n/a	n/a	n/a
4186.792	n/a	RECOG_LURE	2093396	n/a	LTP078	ltpFR	0	3	n/a	CANVAS	234	2	n/a	n/a	n/a	n/a	n/a	n/a
4189.048	n/a	RECOG_RESP	2094524	n/a	LTP078	ltpFR	0	3	n/a	CANVAS	234	n/a	n/a	n/a	n/a	n/a	n/a	n/a
4190.386	n/a	RECOG_CONF	2095193	n/a	LTP078	ltpFR	0	3	n/a	CANVAS	234	2	n/a	n/a	n/a	n/a	n/a	n/a
4191.91	n/a	RECOG_TARGET	2095955	n/a	LTP078	ltpFR	0	3	1	TOE	1473	5	0	n/a	n/a	n/a	n/a	n/a
4192.77	n/a	RECOG_RESP	2096385	n/a	LTP078	ltpFR	0	3	1	TOE	1473	n/a	0	n/a	n/a	n/a	n/a	n/a
4193.798	n/a	RECOG_CONF	2096899	n/a	LTP078	ltpFR	0	3	1	TOE	1473	5	0	n/a	n/a	n/a	n/a	n/a
4195.384	n/a	RECOG_LURE	2097692	n/a	LTP078	ltpFR	0	3	n/a	YOKE	1632	3	n/a	n/a	n/a	n/a	n/a	n/a
4197.02	n/a	RECOG_RESP	2098510	n/a	LTP078	ltpFR	0	3	n/a	YOKE	1632	n/a	n/a	n/a	n/a	n/a	n/a	n/a
4198.158	n/a	RECOG_CONF	2099079	n/a	LTP078	ltpFR	0	3	n/a	YOKE	1632	3	n/a	n/a	n/a	n/a	n/a	n/a
4199.618	n/a	RECOG_TARGET	2099809	n/a	LTP078	ltpFR	0	3	1	RECIPE	1175	5	0	n/a	n/a	n/a	n/a	n/a
4200.712	n/a	RECOG_RESP	2100356	n/a	LTP078	ltpFR	0	3	1	RECIPE	1175	n/a	0	n/a	n/a	n/a	n/a	n/a
4201.76	n/a	RECOG_CONF	2100880	n/a	LTP078	ltpFR	0	3	1	RECIPE	1175	5	0	n/a	n/a	n/a	n/a	n/a
4203.424	n/a	RECOG_TARGET	2101712	n/a	LTP078	ltpFR	0	3	1	SCROLL	1257	5	0	n/a	n/a	n/a	n/a	n/a
4204.268	n/a	RECOG_RESP	2102134	n/a	LTP078	ltpFR	0	3	1	SCROLL	1257	n/a	0	n/a	n/a	n/a	n/a	n/a
4205.322	n/a	RECOG_CONF	2102661	n/a	LTP078	ltpFR	0	3	1	SCROLL	1257	5	0	n/a	n/a	n/a	n/a	n/a
4206.85	n/a	RECOG_LURE	2103425	n/a	LTP078	ltpFR	0	3	n/a	ZOO	1637	4	n/a	n/a	n/a	n/a	n/a	n/a
4207.806	n/a	RECOG_RESP	2103903	n/a	LTP078	ltpFR	0	3	n/a	ZOO	1637	n/a	n/a	n/a	n/a	n/a	n/a	n/a
4208.694	n/a	RECOG_CONF	2104347	n/a	LTP078	ltpFR	0	3	n/a	ZOO	1637	4	n/a	n/a	n/a	n/a	n/a	n/a
4210.108	n/a	RECOG_TARGET	2105054	n/a	LTP078	ltpFR	0	3	0	APPLE	33	5	0	n/a	n/a	n/a	n/a	n/a
4211.628	n/a	RECOG_RESP	2105814	n/a	LTP078	ltpFR	0	3	0	APPLE	33	n/a	0	n/a	n/a	n/a	n/a	n/a
4213.07	n/a	RECOG_CONF	2106535	n/a	LTP078	ltpFR	0	3	0	APPLE	33	5	0	n/a	n/a	n/a	n/a	n/a
4215.192	n/a	RECOG_TARGET	2107596	n/a	LTP078	ltpFR	0	3	0	WINDSHIELD	1612	5	1	n/a	n/a	n/a	n/a	n/a
4216.646	n/a	RECOG_RESP	2108323	n/a	LTP078	ltpFR	0	3	0	WINDSHIELD	1612	n/a	1	n/a	n/a	n/a	n/a	n/a
4217.62	n/a	RECOG_CONF	2108810	n/a	LTP078	ltpFR	0	3	0	WINDSHIELD	1612	5	1	n/a	n/a	n/a	n/a	n/a
4218.974	n/a	RECOG_LURE	2109487	n/a	LTP078	ltpFR	0	3	n/a	QUILT	1151	3	n/a	n/a	n/a	n/a	n/a	n/a
4221.446	n/a	RECOG_RESP	2110723	n/a	LTP078	ltpFR	0	3	n/a	QUILT	1151	n/a	n/a	n/a	n/a	n/a	n/a	n/a
4223.806	n/a	RECOG_CONF	2111903	n/a	LTP078	ltpFR	0	3	n/a	QUILT	1151	3	n/a	n/a	n/a	n/a	n/a	n/a
4225.316	n/a	RECOG_TARGET	2112658	n/a	LTP078	ltpFR	0	3	-1	TROUT	1511	4	-1	n/a	n/a	n/a	n/a	n/a
4228.474	n/a	RECOG_RESP	2114237	n/a	LTP078	ltpFR	0	3	-1	TROUT	1511	n/a	-1	n/a	n/a	n/a	n/a	n/a
4229.882	n/a	RECOG_CONF	2114941	n/a	LTP078	ltpFR	0	3	-1	TROUT	1511	4	-1	n/a	n/a	n/a	n/a	n/a
4231.35	n/a	RECOG_LURE	2115675	n/a	LTP078	ltpFR	0	3	n/a	BIBLE	124	5	n/a	n/a	n/a	n/a	n/a	n/a
4232.682	n/a	RECOG_RESP	2116341	n/a	LTP078	ltpFR	0	3	n/a	BIBLE	124	n/a	n/a	n/a	n/a	n/a	n/a	n/a
4233.574	n/a	RECOG_CONF	2116787	n/a	LTP078	ltpFR	0	3	n/a	BIBLE	124	5	n/a	n/a	n/a	n/a	n/a	n/a
4235.158	n/a	RECOG_TARGET	2117579	n/a	LTP078	ltpFR	0	3	1	MACHINE	852	5	0	n/a	n/a	n/a	n/a	n/a
4236.442	n/a	RECOG_RESP	2118221	n/a	LTP078	ltpFR	0	3	1	MACHINE	852	n/a	0	n/a	n/a	n/a	n/a	n/a
4237.31	n/a	RECOG_CONF	2118655	n/a	LTP078	ltpFR	0	3	1	MACHINE	852	5	0	n/a	n/a	n/a	n/a	n/a
4242.696	n/a	REC_START	2121348	n/a	LTP078	ltpFR	0	4	n/a	n/a	n/a	n/a	n/a	n/a	n/a	n/a	n/a	n/a
4242.734	n/a	RECOG_TARGET	2121367	n/a	LTP078	ltpFR	0	4	1	ELBOW	520	3	0	n/a	n/a	n/a	n/a	n/a
4244.666	n/a	RECOG_RESP	2122333	n/a	LTP078	ltpFR	0	4	1	ELBOW	520	n/a	0	n/a	n/a	n/a	n/a	n/a
4247.33	n/a	RECOG_CONF	2123665	n/a	LTP078	ltpFR	0	4	1	ELBOW	520	3	0	n/a	n/a	n/a	n/a	n/a
4249.066	n/a	RECOG_LURE	2124533	n/a	LTP078	ltpFR	0	4	n/a	GENERAL	630	2	n/a	n/a	n/a	n/a	n/a	n/a
4250.704	n/a	RECOG_RESP	2125352	n/a	LTP078	ltpFR	0	4	n/a	GENERAL	630	n/a	n/a	n/a	n/a	n/a	n/a	n/a
4252.176	n/a	RECOG_CONF	2126088	n/a	LTP078	ltpFR	0	4	n/a	GENERAL	630	2	n/a	n/a	n/a	n/a	n/a	n/a
4254.366	n/a	RECOG_TARGET	2127183	n/a	LTP078	ltpFR	0	4	-1	EAGLE	512	5	-1	n/a	n/a	n/a	n/a	n/a
4255.244	n/a	RECOG_RESP	2127622	n/a	LTP078	ltpFR	0	4	-1	EAGLE	512	n/a	-1	n/a	n/a	n/a	n/a	n/a
4256.162	n/a	RECOG_CONF	2128081	n/a	LTP078	ltpFR	0	4	-1	EAGLE	512	5	-1	n/a	n/a	n/a	n/a	n/a
4257.566	n/a	RECOG_TARGET	2128783	n/a	LTP078	ltpFR	0	4	-1	STICKER	1382	5	-1	n/a	n/a	n/a	n/a	n/a
4258.302	n/a	RECOG_RESP	2129151	n/a	LTP078	ltpFR	0	4	-1	STICKER	1382	n/a	-1	n/a	n/a	n/a	n/a	n/a
4259.364	n/a	RECOG_CONF	2129682	n/a	LTP078	ltpFR	0	4	-1	STICKER	1382	5	-1	n/a	n/a	n/a	n/a	n/a
4260.858	n/a	RECOG_TARGET	2130429	n/a	LTP078	ltpFR	0	4	-1	MILK	895	5	-1	n/a	n/a	n/a	n/a	n/a
4263.22	n/a	RECOG_RESP	2131610	n/a	LTP078	ltpFR	0	4	-1	MILK	895	n/a	-1	n/a	n/a	n/a	n/a	n/a
4264.294	n/a	RECOG_CONF	2132147	n/a	LTP078	ltpFR	0	4	-1	MILK	895	5	-1	n/a	n/a	n/a	n/a	n/a
4265.766	n/a	RECOG_TARGET	2132883	n/a	LTP078	ltpFR	0	4	-1	CARDINAL	244	2	-1	n/a	n/a	n/a	n/a	n/a
4268.264	n/a	RECOG_RESP	2134132	n/a	LTP078	ltpFR	0	4	-1	CARDINAL	244	n/a	-1	n/a	n/a	n/a	n/a	n/a
4269.542	n/a	RECOG_CONF	2134771	n/a	LTP078	ltpFR	0	4	-1	CARDINAL	244	2	-1	n/a	n/a	n/a	n/a	n/a
4271.032	n/a	RECOG_LURE	2135516	n/a	LTP078	ltpFR	0	4	n/a	PUB	1135	2	n/a	n/a	n/a	n/a	n/a	n/a
4272.66	n/a	RECOG_RESP	2136330	n/a	LTP078	ltpFR	0	4	n/a	PUB	1135	n/a	n/a	n/a	n/a	n/a	n/a	n/a
4273.938	n/a	RECOG_CONF	2136969	n/a	LTP078	ltpFR	0	4	n/a	PUB	1135	2	n/a	n/a	n/a	n/a	n/a	n/a
4275.266	n/a	RECOG_LURE	2137633	n/a	LTP078	ltpFR	0	4	n/a	WAITER	1580	3	n/a	n/a	n/a	n/a	n/a	n/a
4276.182	n/a	RECOG_RESP	2138091	n/a	LTP078	ltpFR	0	4	n/a	WAITER	1580	n/a	n/a	n/a	n/a	n/a	n/a	n/a
4278.028	n/a	RECOG_CONF	2139014	n/a	LTP078	ltpFR	0	4	n/a	WAITER	1580	3	n/a	n/a	n/a	n/a	n/a	n/a
4279.424	n/a	RECOG_TARGET	2139712	n/a	LTP078	ltpFR	0	4	1	MECHANIC	884	3	1	n/a	n/a	n/a	n/a	n/a
4281.022	n/a	RECOG_RESP	2140511	n/a	LTP078	ltpFR	0	4	1	MECHANIC	884	n/a	1	n/a	n/a	n/a	n/a	n/a
4282.014	n/a	RECOG_CONF	2141007	n/a	LTP078	ltpFR	0	4	1	MECHANIC	884	3	1	n/a	n/a	n/a	n/a	n/a
4283.406	n/a	RECOG_TARGET	2141703	n/a	LTP078	ltpFR	0	4	-1	STAR	1373	5	-1	n/a	n/a	n/a	n/a	n/a
4284.368	n/a	RECOG_RESP	2142184	n/a	LTP078	ltpFR	0	4	-1	STAR	1373	n/a	-1	n/a	n/a	n/a	n/a	n/a
4285.326	n/a	RECOG_CONF	2142663	n/a	LTP078	ltpFR	0	4	-1	STAR	1373	5	-1	n/a	n/a	n/a	n/a	n/a
4286.798	n/a	RECOG_LURE	2143399	n/a	LTP078	ltpFR	0	4	n/a	INMATE	738	5	n/a	n/a	n/a	n/a	n/a	n/a
4288.23	n/a	RECOG_RESP	2144115	n/a	LTP078	ltpFR	0	4	n/a	INMATE	738	n/a	n/a	n/a	n/a	n/a	n/a	n/a
4289.666	n/a	RECOG_CONF	2144833	n/a	LTP078	ltpFR	0	4	n/a	INMATE	738	5	n/a	n/a	n/a	n/a	n/a	n/a
4291.122	n/a	RECOG_LURE	2145561	n/a	LTP078	ltpFR	0	4	n/a	GYM	674	2	n/a	n/a	n/a	n/a	n/a	n/a
4293.868	n/a	RECOG_RESP	2146934	n/a	LTP078	ltpFR	0	4	n/a	GYM	674	n/a	n/a	n/a	n/a	n/a	n/a	n/a
4295.14	n/a	RECOG_CONF	2147570	n/a	LTP078	ltpFR	0	4	n/a	GYM	674	2	n/a	n/a	n/a	n/a	n/a	n/a
4296.666	n/a	RECOG_TARGET	2148333	n/a	LTP078	ltpFR	0	4	-1	ARTIST	43	5	-1	n/a	n/a	n/a	n/a	n/a
4297.614	n/a	RECOG_RESP	2148807	n/a	LTP078	ltpFR	0	4	-1	ARTIST	43	n/a	-1	n/a	n/a	n/a	n/a	n/a
4298.658	n/a	RECOG_CONF	2149329	n/a	LTP078	ltpFR	0	4	-1	ARTIST	43	5	-1	n/a	n/a	n/a	n/a	n/a
4300.132	n/a	RECOG_LURE	2150066	n/a	LTP078	ltpFR	0	4	n/a	ORCHID	982	3	n/a	n/a	n/a	n/a	n/a	n/a
4301.63	n/a	RECOG_RESP	2150815	n/a	LTP078	ltpFR	0	4	n/a	ORCHID	982	n/a	n/a	n/a	n/a	n/a	n/a	n/a
4303.176	n/a	RECOG_CONF	2151588	n/a	LTP078	ltpFR	0	4	n/a	ORCHID	982	3	n/a	n/a	n/a	n/a	n/a	n/a
4304.806	n/a	RECOG_TARGET	2152403	n/a	LTP078	ltpFR	0	4	0	BANQUET	86	5	1	n/a	n/a	n/a	n/a	n/a
4306.11	n/a	RECOG_RESP	2153055	n/a	LTP078	ltpFR	0	4	0	BANQUET	86	n/a	1	n/a	n/a	n/a	n/a	n/a
4307.238	n/a	RECOG_CONF	2153619	n/a	LTP078	ltpFR	0	4	0	BANQUET	86	5	1	n/a	n/a	n/a	n/a	n/a
4308.74	n/a	RECOG_LURE	2154370	n/a	LTP078	ltpFR	0	4	n/a	OCEAN	970	2	n/a	n/a	n/a	n/a	n/a	n/a
4311.548	n/a	RECOG_RESP	2155774	n/a	LTP078	ltpFR	0	4	n/a	OCEAN	970	n/a	n/a	n/a	n/a	n/a	n/a	n/a
4313.364	n/a	RECOG_CONF	2156682	n/a	LTP078	ltpFR	0	4	n/a	OCEAN	970	2	n/a	n/a	n/a	n/a	n/a	n/a
4314.874	n/a	RECOG_LURE	2157437	n/a	LTP078	ltpFR	0	4	n/a	NOVEL	960	4	n/a	n/a	n/a	n/a	n/a	n/a
4316.018	n/a	RECOG_RESP	2158009	n/a	LTP078	ltpFR	0	4	n/a	NOVEL	960	n/a	n/a	n/a	n/a	n/a	n/a	n/a
4316.996	n/a	RECOG_CONF	2158498	n/a	LTP078	ltpFR	0	4	n/a	NOVEL	960	4	n/a	n/a	n/a	n/a	n/a	n/a
4318.548	n/a	RECOG_LURE	2159274	n/a	LTP078	ltpFR	0	4	n/a	PUBLISHER	1137	4	n/a	n/a	n/a	n/a	n/a	n/a
4320.04	n/a	RECOG_RESP	2160020	n/a	LTP078	ltpFR	0	4	n/a	PUBLISHER	1137	n/a	n/a	n/a	n/a	n/a	n/a	n/a
4321.078	n/a	RECOG_CONF	2160539	n/a	LTP078	ltpFR	0	4	n/a	PUBLISHER	1137	4	n/a	n/a	n/a	n/a	n/a	n/a
4322.564	n/a	RECOG_LURE	2161282	n/a	LTP078	ltpFR	0	4	n/a	EMPEROR	529	5	n/a	n/a	n/a	n/a	n/a	n/a
4324.344	n/a	RECOG_RESP	2162172	n/a	LTP078	ltpFR	0	4	n/a	EMPEROR	529	n/a	n/a	n/a	n/a	n/a	n/a	n/a
4325.706	n/a	RECOG_CONF	2162853	n/a	LTP078	ltpFR	0	4	n/a	EMPEROR	529	5	n/a	n/a	n/a	n/a	n/a	n/a
4327.014	n/a	RECOG_LURE	2163507	n/a	LTP078	ltpFR	0	4	n/a	LAMB	797	2	n/a	n/a	n/a	n/a	n/a	n/a
4329.762	n/a	RECOG_RESP	2164881	n/a	LTP078	ltpFR	0	4	n/a	LAMB	797	n/a	n/a	n/a	n/a	n/a	n/a	n/a
4331.25	n/a	RECOG_CONF	2165625	n/a	LTP078	ltpFR	0	4	n/a	LAMB	797	2	n/a	n/a	n/a	n/a	n/a	n/a
4335.814	n/a	REC_START	2167907	n/a	LTP078	ltpFR	0	5	n/a	n/a	n/a	n/a	n/a	n/a	n/a	n/a	n/a	n/a
4335.848	n/a	RECOG_LURE	2167924	n/a	LTP078	ltpFR	0	5	n/a	HORSE	719	3	n/a	n/a	n/a	n/a	n/a	n/a
4337.494	n/a	RECOG_RESP	2168747	n/a	LTP078	ltpFR	0	5	n/a	HORSE	719	n/a	n/a	n/a	n/a	n/a	n/a	n/a
4338.982	n/a	RECOG_CONF	2169491	n/a	LTP078	ltpFR	0	5	n/a	HORSE	719	3	n/a	n/a	n/a	n/a	n/a	n/a
4340.498	n/a	RECOG_TARGET	2170249	n/a	LTP078	ltpFR	0	5	0	OINTMENT	974	5	0	n/a	n/a	n/a	n/a	n/a
4341.5	n/a	RECOG_RESP	2170750	n/a	LTP078	ltpFR	0	5	0	OINTMENT	974	n/a	0	n/a	n/a	n/a	n/a	n/a
4342.498	n/a	RECOG_CONF	2171249	n/a	LTP078	ltpFR	0	5	0	OINTMENT	974	5	0	n/a	n/a	n/a	n/a	n/a
4343.954	n/a	RECOG_LURE	2171977	n/a	LTP078	ltpFR	0	5	n/a	GARLIC	624	4	n/a	n/a	n/a	n/a	n/a	n/a
4345.542	n/a	RECOG_RESP	2172771	n/a	LTP078	ltpFR	0	5	n/a	GARLIC	624	n/a	n/a	n/a	n/a	n/a	n/a	n/a
4347.472	n/a	RECOG_CONF	2173736	n/a	LTP078	ltpFR	0	5	n/a	GARLIC	624	4	n/a	n/a	n/a	n/a	n/a	n/a
4349.08	n/a	RECOG_TARGET	2174540	n/a	LTP078	ltpFR	0	5	1	COLLEGE	346	5	0	n/a	n/a	n/a	n/a	n/a
4350.08	n/a	RECOG_RESP	2175040	n/a	LTP078	ltpFR	0	5	1	COLLEGE	346	n/a	0	n/a	n/a	n/a	n/a	n/a
4351.074	n/a	RECOG_CONF	2175537	n/a	LTP078	ltpFR	0	5	1	COLLEGE	346	5	0	n/a	n/a	n/a	n/a	n/a
4352.572	n/a	RECOG_TARGET	2176286	n/a	LTP078	ltpFR	0	5	1	FISH	571	4	1	n/a	n/a	n/a	n/a	n/a
4354.308	n/a	RECOG_RESP	2177154	n/a	LTP078	ltpFR	0	5	1	FISH	571	n/a	1	n/a	n/a	n/a	n/a	n/a
4355.44	n/a	RECOG_CONF	2177720	n/a	LTP078	ltpFR	0	5	1	FISH	571	4	1	n/a	n/a	n/a	n/a	n/a
4356.972	n/a	RECOG_TARGET	2178486	n/a	LTP078	ltpFR	0	5	0	COOKBOOK	373	5	0	n/a	n/a	n/a	n/a	n/a
4358.064	n/a	RECOG_RESP	2179032	n/a	LTP078	ltpFR	0	5	0	COOKBOOK	373	n/a	0	n/a	n/a	n/a	n/a	n/a
4359.296	n/a	RECOG_CONF	2179648	n/a	LTP078	ltpFR	0	5	0	COOKBOOK	373	5	0	n/a	n/a	n/a	n/a	n/a
4360.706	n/a	RECOG_TARGET	2180353	n/a	LTP078	ltpFR	0	5	1	BLOUSE	139	4	0	n/a	n/a	n/a	n/a	n/a
4362.684	n/a	RECOG_RESP	2181342	n/a	LTP078	ltpFR	0	5	1	BLOUSE	139	n/a	0	n/a	n/a	n/a	n/a	n/a
4364.974	n/a	RECOG_CONF	2182487	n/a	LTP078	ltpFR	0	5	1	BLOUSE	139	4	0	n/a	n/a	n/a	n/a	n/a
4366.538	n/a	RECOG_TARGET	2183269	n/a	LTP078	ltpFR	0	5	-1	KNIFE	785	2	-1	n/a	n/a	n/a	n/a	n/a
4369.084	n/a	RECOG_RESP	2184542	n/a	LTP078	ltpFR	0	5	-1	KNIFE	785	n/a	-1	n/a	n/a	n/a	n/a	n/a
4370.76	n/a	RECOG_CONF	2185380	n/a	LTP078	ltpFR	0	5	-1	KNIFE	785	2	-1	n/a	n/a	n/a	n/a	n/a
4372.346	n/a	RECOG_LURE	2186173	n/a	LTP078	ltpFR	0	5	n/a	SURVEY	1414	4	n/a	n/a	n/a	n/a	n/a	n/a
4373.46	n/a	RECOG_RESP	2186730	n/a	LTP078	ltpFR	0	5	n/a	SURVEY	1414	n/a	n/a	n/a	n/a	n/a	n/a	n/a
4374.382	n/a	RECOG_CONF	2187191	n/a	LTP078	ltpFR	0	5	n/a	SURVEY	1414	4	n/a	n/a	n/a	n/a	n/a	n/a
4375.888	n/a	RECOG_TARGET	2187944	n/a	LTP078	ltpFR	0	5	0	ERASER	538	5	0	n/a	n/a	n/a	n/a	n/a
4377.596	n/a	RECOG_RESP	2188798	n/a	LTP078	ltpFR	0	5	0	ERASER	538	n/a	0	n/a	n/a	n/a	n/a	n/a
4379.018	n/a	RECOG_CONF	2189509	n/a	LTP078	ltpFR	0	5	0	ERASER	538	5	0	n/a	n/a	n/a	n/a	n/a
4380.596	n/a	RECOG_TARGET	2190298	n/a	LTP078	ltpFR	0	5	1	EDITORIAL	517	1	0	n/a	n/a	n/a	n/a	n/a
4381.81	n/a	RECOG_RESP	2190905	n/a	LTP078	ltpFR	0	5	1	EDITORIAL	517	n/a	0	n/a	n/a	n/a	n/a	n/a
4384.18	n/a	RECOG_CONF	2192090	n/a	LTP078	ltpFR	0	5	1	EDITORIAL	517	1	0	n/a	n/a	n/a	n/a	n/a
4385.878	n/a	RECOG_LURE	2192939	n/a	LTP078	ltpFR	0	5	n/a	YARD	1630	3	n/a	n/a	n/a	n/a	n/a	n/a
4388.36	n/a	RECOG_RESP	2194180	n/a	LTP078	ltpFR	0	5	n/a	YARD	1630	n/a	n/a	n/a	n/a	n/a	n/a	n/a
4390.64	n/a	RECOG_CONF	2195320	n/a	LTP078	ltpFR	0	5	n/a	YARD	1630	3	n/a	n/a	n/a	n/a	n/a	n/a
4392.154	n/a	RECOG_LURE	2196077	n/a	LTP078	ltpFR	0	5	n/a	BUS	201	3	n/a	n/a	n/a	n/a	n/a	n/a
4395.142	n/a	RECOG_RESP	2197571	n/a	LTP078	ltpFR	0	5	n/a	BUS	201	n/a	n/a	n/a	n/a	n/a	n/a	n/a
4397.082	n/a	RECOG_CONF	2198541	n/a	LTP078	ltpFR	0	5	n/a	BUS	201	3	n/a	n/a	n/a	n/a	n/a	n/a
4398.638	n/a	RECOG_TARGET	2199319	n/a	LTP078	ltpFR	0	5	-1	CAR	241	4	-1	n/a	n/a	n/a	n/a	n/a
4399.686	n/a	RECOG_RESP	2199843	n/a	LTP078	ltpFR	0	5	-1	CAR	241	n/a	-1	n/a	n/a	n/a	n/a	n/a
4400.928	n/a	RECOG_CONF	2200464	n/a	LTP078	ltpFR	0	5	-1	CAR	241	4	-1	n/a	n/a	n/a	n/a	n/a
4402.32	n/a	RECOG_LURE	2201160	n/a	LTP078	ltpFR	0	5	n/a	TEACHER	1440	2	n/a	n/a	n/a	n/a	n/a	n/a
4403.698	n/a	RECOG_RESP	2201849	n/a	LTP078	ltpFR	0	5	n/a	TEACHER	1440	n/a	n/a	n/a	n/a	n/a	n/a	n/a
4406.91	n/a	RECOG_CONF	2203455	n/a	LTP078	ltpFR	0	5	n/a	TEACHER	1440	2	n/a	n/a	n/a	n/a	n/a	n/a
