mstime	trial_type	stim_file	subject	experiment	session	trial	task	item_name	item_num	recog_resp	recog_conf	resp	color_r	color_g	color_b	case	font
0	SESS_START	n/a	LTP073	ltpFR	3	n/a	n/a	n/a	n/a	1	2	n/a	n/a	n/a	n/a	n/a	n/a
137866	WORD	wordpools/wasnorm_wordpool.txt	LTP073	ltpFR	3	1	1	SUGAR	1401	0	1	0	0.422607421875	0.5869140625	0	lower	zerothre.ttf
142024	WORD	wordpools/wasnorm_wordpool.txt	LTP073	ltpFR	3	1	1	COSTUME	383	0	n/a	0	0.422607421875	0.5869140625	0	lower	zerothre.ttf
145932	WORD	wordpools/wasnorm_wordpool.txt	LTP073	ltpFR	3	1	1	PELICAN	1039	n/a	n/a	1	0.422607421875	0.5869140625	0	lower	zerothre.ttf
149766	WORD	wordpools/wasnorm_wordpool.txt	LTP073	ltpFR	3	1	0	SADDLE	1221	n/a	n/a	1	0.57763671875	0.412841796875	1	upper	amplitud.ttf
153923	WORD	wordpools/wasnorm_wordpool.txt	LTP073	ltpFR	3	1	0	COWBOY	395	n/a	n/a	1	0.57763671875	0.412841796875	1	upper	amplitud.ttf
158091	WORD	wordpools/wasnorm_wordpool.txt	LTP073	ltpFR	3	1	0	AFRICA	9	n/a	n/a	1	0.57763671875	0.412841796875	1	upper	amplitud.ttf
161973	WORD	wordpools/wasnorm_wordpool.txt	LTP073	ltpFR	3	1	0	BLOCKADE	137	n/a	n/a	1	0.57763671875	0.412841796875	1	upper	amplitud.ttf
166056	WORD	wordpools/wasnorm_wordpool.txt	LTP073	ltpFR	3	1	0	BIRD	129	n/a	n/a	0	0.57763671875	0.412841796875	1	upper	amplitud.ttf
169905	WORD	wordpools/wasnorm_wordpool.txt	LTP073	ltpFR	3	1	0	STOVE	1388	n/a	n/a	1	0.57763671875	0.412841796875	1	upper	amplitud.ttf
173872	WORD	wordpools/wasnorm_wordpool.txt	LTP073	ltpFR	3	1	1	LITERATURE	831	n/a	n/a	0	0.422607421875	0.5869140625	0	lower	zerothre.ttf
177831	WORD	wordpools/wasnorm_wordpool.txt	LTP073	ltpFR	3	1	1	BOUILLON	154	n/a	n/a	0	0.422607421875	0.5869140625	0	lower	zerothre.ttf
181963	WORD	wordpools/wasnorm_wordpool.txt	LTP073	ltpFR	3	1	1	LIVER	833	n/a	n/a	1	0.422607421875	0.5869140625	0	lower	zerothre.ttf
186046	WORD	wordpools/wasnorm_wordpool.txt	LTP073	ltpFR	3	1	1	HAY	693	n/a	n/a	0	0.422607421875	0.5869140625	0	lower	zerothre.ttf
189937	WORD	wordpools/wasnorm_wordpool.txt	LTP073	ltpFR	3	1	1	RIDER	1191	n/a	n/a	1	0.422607421875	0.5869140625	0	lower	zerothre.ttf
193821	WORD	wordpools/wasnorm_wordpool.txt	LTP073	ltpFR	3	1	0	LOLLIPOP	842	n/a	n/a	0	0.57763671875	0.412841796875	1	upper	amplitud.ttf
197813	WORD	wordpools/wasnorm_wordpool.txt	LTP073	ltpFR	3	1	0	WORLD	1622	n/a	n/a	1	0.57763671875	0.412841796875	1	upper	amplitud.ttf
203788	REC_START	n/a	LTP073	ltpFR	3	1	n/a	n/a	n/a	n/a	n/a	n/a	n/a	n/a	n/a	n/a	n/a
203793	REC_WORD	wordpools/wasnorm_wordpool.txt	LTP073	ltpFR	3	1	n/a	[???]	-1	n/a	n/a	n/a	n/a	n/a	n/a	n/a	n/a
205449	REC_WORD	wordpools/wasnorm_wordpool.txt	LTP073	ltpFR	3	1	0	WORLD	1622	n/a	n/a	1	n/a	n/a	n/a	n/a	n/a
206357	REC_WORD	wordpools/wasnorm_wordpool.txt	LTP073	ltpFR	3	1	0	AFRICA	9	n/a	n/a	1	n/a	n/a	n/a	n/a	n/a
207814	REC_WORD	wordpools/wasnorm_wordpool.txt	LTP073	ltpFR	3	1	1	RIDER	1191	n/a	n/a	1	n/a	n/a	n/a	n/a	n/a
208742	REC_WORD	wordpools/wasnorm_wordpool.txt	LTP073	ltpFR	3	1	0	COWBOY	395	n/a	n/a	1	n/a	n/a	n/a	n/a	n/a
209699	REC_WORD	wordpools/wasnorm_wordpool.txt	LTP073	ltpFR	3	1	0	SADDLE	1221	n/a	n/a	1	n/a	n/a	n/a	n/a	n/a
211036	REC_WORD	wordpools/wasnorm_wordpool.txt	LTP073	ltpFR	3	1	1	SUGAR	1401	n/a	n/a	0	n/a	n/a	n/a	n/a	n/a
212333	REC_WORD	wordpools/wasnorm_wordpool.txt	LTP073	ltpFR	3	1	0	BIRD	129	n/a	n/a	0	n/a	n/a	n/a	n/a	n/a
213381	REC_WORD	wordpools/wasnorm_wordpool.txt	LTP073	ltpFR	3	1	1	PELICAN	1039	n/a	n/a	1	n/a	n/a	n/a	n/a	n/a
215756	REC_WORD	wordpools/wasnorm_wordpool.txt	LTP073	ltpFR	3	1	1	BOUILLON	154	n/a	n/a	0	n/a	n/a	n/a	n/a	n/a
221413	REC_WORD	wordpools/wasnorm_wordpool.txt	LTP073	ltpFR	3	1	0	BLOCKADE	137	n/a	n/a	1	n/a	n/a	n/a	n/a	n/a
223533	REC_WORD_VV	wordpools/wasnorm_wordpool.txt	LTP073	ltpFR	3	1	n/a	<>	-1	n/a	n/a	n/a	n/a	n/a	n/a	n/a	n/a
226152	REC_WORD	wordpools/wasnorm_wordpool.txt	LTP073	ltpFR	3	1	1	COSTUME	383	n/a	n/a	0	n/a	n/a	n/a	n/a	n/a
244470	REC_WORD	wordpools/wasnorm_wordpool.txt	LTP073	ltpFR	3	1	1	LIVER	833	n/a	n/a	1	n/a	n/a	n/a	n/a	n/a
247064	REC_WORD	wordpools/wasnorm_wordpool.txt	LTP073	ltpFR	3	1	1	HAY	693	n/a	n/a	0	n/a	n/a	n/a	n/a	n/a
285140	WORD	wordpools/wasnorm_wordpool.txt	LTP073	ltpFR	3	2	0	DENIM	446	n/a	n/a	0	0.57763671875	0.412841796875	1	upper	amplitud.ttf
289231	WORD	wordpools/wasnorm_wordpool.txt	LTP073	ltpFR	3	2	0	ALBUM	14	n/a	n/a	0	0.57763671875	0.412841796875	1	upper	amplitud.ttf
293272	WORD	wordpools/wasnorm_wordpool.txt	LTP073	ltpFR	3	2	0	FLASHLIGHT	575	n/a	n/a	0	0.57763671875	0.412841796875	1	upper	amplitud.ttf
297372	WORD	wordpools/wasnorm_wordpool.txt	LTP073	ltpFR	3	2	0	ELECTRICIAN	521	n/a	n/a	1	0.57763671875	0.412841796875	1	upper	amplitud.ttf
301413	WORD	wordpools/wasnorm_wordpool.txt	LTP073	ltpFR	3	2	1	RUST	1219	n/a	n/a	0	0.422607421875	0.5869140625	0	lower	zerothre.ttf
305238	WORD	wordpools/wasnorm_wordpool.txt	LTP073	ltpFR	3	2	1	PUMP	1141	n/a	n/a	0	0.422607421875	0.5869140625	0	lower	zerothre.ttf
309363	WORD	wordpools/wasnorm_wordpool.txt	LTP073	ltpFR	3	2	1	PRESIDENT	1121	n/a	n/a	1	0.422607421875	0.5869140625	0	lower	zerothre.ttf
313471	WORD	wordpools/wasnorm_wordpool.txt	LTP073	ltpFR	3	2	1	FENCE	560	n/a	n/a	0	0.422607421875	0.5869140625	0	lower	zerothre.ttf
317504	WORD	wordpools/wasnorm_wordpool.txt	LTP073	ltpFR	3	2	1	NECKLACE	940	n/a	n/a	0	0.422607421875	0.5869140625	0	lower	zerothre.ttf
321387	WORD	wordpools/wasnorm_wordpool.txt	LTP073	ltpFR	3	2	0	ACTOR	5	n/a	n/a	1	0.57763671875	0.412841796875	1	upper	amplitud.ttf
325570	WORD	wordpools/wasnorm_wordpool.txt	LTP073	ltpFR	3	2	0	ORGAN	984	n/a	n/a	0	0.57763671875	0.412841796875	1	upper	amplitud.ttf
329661	WORD	wordpools/wasnorm_wordpool.txt	LTP073	ltpFR	3	2	1	CAR	241	n/a	n/a	0	0.422607421875	0.5869140625	0	lower	zerothre.ttf
333544	WORD	wordpools/wasnorm_wordpool.txt	LTP073	ltpFR	3	2	1	PANTS	1010	n/a	n/a	0	0.422607421875	0.5869140625	0	lower	zerothre.ttf
337736	WORD	wordpools/wasnorm_wordpool.txt	LTP073	ltpFR	3	2	1	FOLLOWER	589	n/a	n/a	1	0.422607421875	0.5869140625	0	lower	zerothre.ttf
341586	WORD	wordpools/wasnorm_wordpool.txt	LTP073	ltpFR	3	2	0	HORSE	719	n/a	n/a	1	0.57763671875	0.412841796875	1	upper	amplitud.ttf
345419	WORD	wordpools/wasnorm_wordpool.txt	LTP073	ltpFR	3	2	0	COLT	349	n/a	n/a	1	0.57763671875	0.412841796875	1	upper	amplitud.ttf
351419	REC_START	n/a	LTP073	ltpFR	3	2	n/a	n/a	n/a	n/a	n/a	n/a	n/a	n/a	n/a	n/a	n/a
351424	REC_WORD	wordpools/wasnorm_wordpool.txt	LTP073	ltpFR	3	2	n/a	[???]	-1	n/a	n/a	n/a	n/a	n/a	n/a	n/a	n/a
352392	REC_WORD	wordpools/wasnorm_wordpool.txt	LTP073	ltpFR	3	2	0	HORSE	719	n/a	n/a	1	n/a	n/a	n/a	n/a	n/a
353389	REC_WORD	wordpools/wasnorm_wordpool.txt	LTP073	ltpFR	3	2	0	COLT	349	n/a	n/a	1	n/a	n/a	n/a	n/a	n/a
354617	REC_WORD	wordpools/wasnorm_wordpool.txt	LTP073	ltpFR	3	2	0	DENIM	446	n/a	n/a	0	n/a	n/a	n/a	n/a	n/a
355515	REC_WORD	wordpools/wasnorm_wordpool.txt	LTP073	ltpFR	3	2	1	PANTS	1010	n/a	n/a	0	n/a	n/a	n/a	n/a	n/a
356482	REC_WORD	wordpools/wasnorm_wordpool.txt	LTP073	ltpFR	3	2	0	ACTOR	5	n/a	n/a	1	n/a	n/a	n/a	n/a	n/a
357450	REC_WORD	wordpools/wasnorm_wordpool.txt	LTP073	ltpFR	3	2	0	ELECTRICIAN	521	n/a	n/a	1	n/a	n/a	n/a	n/a	n/a
358597	REC_WORD	wordpools/wasnorm_wordpool.txt	LTP073	ltpFR	3	2	1	RUST	1219	n/a	n/a	0	n/a	n/a	n/a	n/a	n/a
359735	REC_WORD	wordpools/wasnorm_wordpool.txt	LTP073	ltpFR	3	2	1	FENCE	560	n/a	n/a	0	n/a	n/a	n/a	n/a	n/a
361052	REC_WORD	wordpools/wasnorm_wordpool.txt	LTP073	ltpFR	3	2	1	PRESIDENT	1121	n/a	n/a	1	n/a	n/a	n/a	n/a	n/a
362279	REC_WORD	wordpools/wasnorm_wordpool.txt	LTP073	ltpFR	3	2	1	CAR	241	n/a	n/a	0	n/a	n/a	n/a	n/a	n/a
384016	REC_WORD_VV	wordpools/wasnorm_wordpool.txt	LTP073	ltpFR	3	2	n/a	<>	-1	n/a	n/a	n/a	n/a	n/a	n/a	n/a	n/a
388330	REC_WORD	wordpools/wasnorm_wordpool.txt	LTP073	ltpFR	3	2	1	FOLLOWER	589	n/a	n/a	1	n/a	n/a	n/a	n/a	n/a
408424	REC_WORD	wordpools/wasnorm_wordpool.txt	LTP073	ltpFR	3	2	0	ORGAN	984	n/a	n/a	0	n/a	n/a	n/a	n/a	n/a
438545	WORD	wordpools/wasnorm_wordpool.txt	LTP073	ltpFR	3	3	1	LOBSTER	837	n/a	n/a	1	0.422607421875	0.5869140625	0	lower	zerothre.ttf
442545	WORD	wordpools/wasnorm_wordpool.txt	LTP073	ltpFR	3	3	1	CORAL	378	n/a	n/a	1	0.422607421875	0.5869140625	0	lower	zerothre.ttf
446703	WORD	wordpools/wasnorm_wordpool.txt	LTP073	ltpFR	3	3	1	CANDY	230	n/a	n/a	0	0.422607421875	0.5869140625	0	lower	zerothre.ttf
450852	WORD	wordpools/wasnorm_wordpool.txt	LTP073	ltpFR	3	3	0	ARTIST	43	n/a	n/a	1	0.57763671875	0.412841796875	1	upper	amplitud.ttf
455043	WORD	wordpools/wasnorm_wordpool.txt	LTP073	ltpFR	3	3	0	FLEA	577	n/a	n/a	0	0.57763671875	0.412841796875	1	upper	amplitud.ttf
459034	WORD	wordpools/wasnorm_wordpool.txt	LTP073	ltpFR	3	3	0	BOXER	160	n/a	n/a	1	0.57763671875	0.412841796875	1	upper	amplitud.ttf
463118	WORD	wordpools/wasnorm_wordpool.txt	LTP073	ltpFR	3	3	0	PAPER	1011	n/a	n/a	0	0.57763671875	0.412841796875	1	upper	amplitud.ttf
467000	WORD	wordpools/wasnorm_wordpool.txt	LTP073	ltpFR	3	3	1	DOCUMENT	479	n/a	n/a	0	0.422607421875	0.5869140625	0	lower	zerothre.ttf
470867	WORD	wordpools/wasnorm_wordpool.txt	LTP073	ltpFR	3	3	1	TUB	1514	n/a	n/a	0	0.422607421875	0.5869140625	0	lower	zerothre.ttf
474701	WORD	wordpools/wasnorm_wordpool.txt	LTP073	ltpFR	3	3	0	MAID	856	n/a	n/a	1	0.57763671875	0.412841796875	1	upper	amplitud.ttf
478883	WORD	wordpools/wasnorm_wordpool.txt	LTP073	ltpFR	3	3	0	OINTMENT	974	n/a	n/a	0	0.57763671875	0.412841796875	1	upper	amplitud.ttf
482924	WORD	wordpools/wasnorm_wordpool.txt	LTP073	ltpFR	3	3	0	RECORD	1176	n/a	n/a	0	0.57763671875	0.412841796875	1	upper	amplitud.ttf
486991	WORD	wordpools/wasnorm_wordpool.txt	LTP073	ltpFR	3	3	0	SCENERY	1247	n/a	n/a	1	0.57763671875	0.412841796875	1	upper	amplitud.ttf
490833	WORD	wordpools/wasnorm_wordpool.txt	LTP073	ltpFR	3	3	1	TRIBE	1505	n/a	n/a	1	0.422607421875	0.5869140625	0	lower	zerothre.ttf
494882	WORD	wordpools/wasnorm_wordpool.txt	LTP073	ltpFR	3	3	1	PILL	1068	n/a	n/a	0	0.422607421875	0.5869140625	0	lower	zerothre.ttf
498716	WORD	wordpools/wasnorm_wordpool.txt	LTP073	ltpFR	3	3	1	PORTRAIT	1111	n/a	n/a	0	0.422607421875	0.5869140625	0	lower	zerothre.ttf
504541	REC_START	n/a	LTP073	ltpFR	3	3	n/a	n/a	n/a	n/a	n/a	n/a	n/a	n/a	n/a	n/a	n/a
504546	REC_WORD	wordpools/wasnorm_wordpool.txt	LTP073	ltpFR	3	3	n/a	[???]	-1	n/a	n/a	n/a	n/a	n/a	n/a	n/a	n/a
505224	REC_WORD	wordpools/wasnorm_wordpool.txt	LTP073	ltpFR	3	3	1	PORTRAIT	1111	n/a	n/a	0	n/a	n/a	n/a	n/a	n/a
506172	REC_WORD	wordpools/wasnorm_wordpool.txt	LTP073	ltpFR	3	3	1	PILL	1068	n/a	n/a	0	n/a	n/a	n/a	n/a	n/a
506950	REC_WORD	wordpools/wasnorm_wordpool.txt	LTP073	ltpFR	3	3	0	OINTMENT	974	n/a	n/a	0	n/a	n/a	n/a	n/a	n/a
508407	REC_WORD	wordpools/wasnorm_wordpool.txt	LTP073	ltpFR	3	3	0	PAPER	1011	n/a	n/a	0	n/a	n/a	n/a	n/a	n/a
509375	REC_WORD	wordpools/wasnorm_wordpool.txt	LTP073	ltpFR	3	3	1	DOCUMENT	479	n/a	n/a	0	n/a	n/a	n/a	n/a	n/a
513615	REC_WORD	wordpools/wasnorm_wordpool.txt	LTP073	ltpFR	3	3	0	BOXER	160	n/a	n/a	1	n/a	n/a	n/a	n/a	n/a
514693	REC_WORD	wordpools/wasnorm_wordpool.txt	LTP073	ltpFR	3	3	0	FLEA	577	n/a	n/a	0	n/a	n/a	n/a	n/a	n/a
522485	REC_WORD	wordpools/wasnorm_wordpool.txt	LTP073	ltpFR	3	3	0	SCENERY	1247	n/a	n/a	1	n/a	n/a	n/a	n/a	n/a
560030	REC_WORD	wordpools/wasnorm_wordpool.txt	LTP073	ltpFR	3	3	1	CORAL	378	n/a	n/a	1	n/a	n/a	n/a	n/a	n/a
561596	REC_WORD	wordpools/wasnorm_wordpool.txt	LTP073	ltpFR	3	3	1	LOBSTER	837	n/a	n/a	1	n/a	n/a	n/a	n/a	n/a
586858	WORD	wordpools/wasnorm_wordpool.txt	LTP073	ltpFR	3	4	0	SACK	1220	n/a	n/a	0	0.57763671875	0.412841796875	1	upper	amplitud.ttf
590734	WORD	wordpools/wasnorm_wordpool.txt	LTP073	ltpFR	3	4	0	BIBLE	124	n/a	n/a	0	0.57763671875	0.412841796875	1	upper	amplitud.ttf
594809	WORD	wordpools/wasnorm_wordpool.txt	LTP073	ltpFR	3	4	0	WORM	1623	n/a	n/a	0	0.57763671875	0.412841796875	1	upper	amplitud.ttf
598999	WORD	wordpools/wasnorm_wordpool.txt	LTP073	ltpFR	3	4	0	SNAKE	1333	n/a	n/a	0	0.57763671875	0.412841796875	1	upper	amplitud.ttf
603150	WORD	wordpools/wasnorm_wordpool.txt	LTP073	ltpFR	3	4	1	EUROPE	541	n/a	n/a	0	0.422607421875	0.5869140625	0	lower	zerothre.ttf
607133	WORD	wordpools/wasnorm_wordpool.txt	LTP073	ltpFR	3	4	1	PIKE	1067	n/a	n/a	0	0.422607421875	0.5869140625	0	lower	zerothre.ttf
611241	WORD	wordpools/wasnorm_wordpool.txt	LTP073	ltpFR	3	4	1	CHURCH	307	n/a	n/a	0	0.422607421875	0.5869140625	0	lower	zerothre.ttf
615224	WORD	wordpools/wasnorm_wordpool.txt	LTP073	ltpFR	3	4	1	TEAM	1441	n/a	n/a	1	0.422607421875	0.5869140625	0	lower	zerothre.ttf
619074	WORD	wordpools/wasnorm_wordpool.txt	LTP073	ltpFR	3	4	0	REFEREE	1178	n/a	n/a	1	0.57763671875	0.412841796875	1	upper	amplitud.ttf
622947	WORD	wordpools/wasnorm_wordpool.txt	LTP073	ltpFR	3	4	0	KID	775	n/a	n/a	0	0.57763671875	0.412841796875	1	upper	amplitud.ttf
627065	WORD	wordpools/wasnorm_wordpool.txt	LTP073	ltpFR	3	4	0	MONARCH	906	n/a	n/a	1	0.57763671875	0.412841796875	1	upper	amplitud.ttf
630947	WORD	wordpools/wasnorm_wordpool.txt	LTP073	ltpFR	3	4	0	SUITCASE	1403	n/a	n/a	1	0.57763671875	0.412841796875	1	upper	amplitud.ttf
635148	WORD	wordpools/wasnorm_wordpool.txt	LTP073	ltpFR	3	4	1	ADULT	8	n/a	n/a	1	0.422607421875	0.5869140625	0	lower	zerothre.ttf
639214	WORD	wordpools/wasnorm_wordpool.txt	LTP073	ltpFR	3	4	1	BRAN	167	n/a	n/a	0	0.422607421875	0.5869140625	0	lower	zerothre.ttf
643080	WORD	wordpools/wasnorm_wordpool.txt	LTP073	ltpFR	3	4	1	REFRIGERATOR	1179	n/a	n/a	0	0.422607421875	0.5869140625	0	lower	zerothre.ttf
647072	WORD	wordpools/wasnorm_wordpool.txt	LTP073	ltpFR	3	4	1	SPOOL	1356	n/a	n/a	0	0.422607421875	0.5869140625	0	lower	zerothre.ttf
652996	REC_START	n/a	LTP073	ltpFR	3	4	n/a	n/a	n/a	n/a	n/a	n/a	n/a	n/a	n/a	n/a	n/a
653001	REC_WORD	wordpools/wasnorm_wordpool.txt	LTP073	ltpFR	3	4	n/a	[???]	-1	n/a	n/a	n/a	n/a	n/a	n/a	n/a	n/a
653859	REC_WORD	wordpools/wasnorm_wordpool.txt	LTP073	ltpFR	3	4	1	SPOOL	1356	n/a	n/a	0	n/a	n/a	n/a	n/a	n/a
655176	REC_WORD	wordpools/wasnorm_wordpool.txt	LTP073	ltpFR	3	4	1	BRAN	167	n/a	n/a	0	n/a	n/a	n/a	n/a	n/a
655953	REC_WORD	wordpools/wasnorm_wordpool.txt	LTP073	ltpFR	3	4	1	REFRIGERATOR	1179	n/a	n/a	0	n/a	n/a	n/a	n/a	n/a
657181	REC_WORD	wordpools/wasnorm_wordpool.txt	LTP073	ltpFR	3	4	0	KID	775	n/a	n/a	0	n/a	n/a	n/a	n/a	n/a
657880	REC_WORD	wordpools/wasnorm_wordpool.txt	LTP073	ltpFR	3	4	1	ADULT	8	n/a	n/a	1	n/a	n/a	n/a	n/a	n/a
659097	REC_WORD	wordpools/wasnorm_wordpool.txt	LTP073	ltpFR	3	4	0	BIBLE	124	n/a	n/a	0	n/a	n/a	n/a	n/a	n/a
660045	REC_WORD	wordpools/wasnorm_wordpool.txt	LTP073	ltpFR	3	4	1	CHURCH	307	n/a	n/a	0	n/a	n/a	n/a	n/a	n/a
661142	REC_WORD	wordpools/wasnorm_wordpool.txt	LTP073	ltpFR	3	4	0	SACK	1220	n/a	n/a	0	n/a	n/a	n/a	n/a	n/a
664365	REC_WORD	wordpools/wasnorm_wordpool.txt	LTP073	ltpFR	3	4	0	WORM	1623	n/a	n/a	0	n/a	n/a	n/a	n/a	n/a
665293	REC_WORD	wordpools/wasnorm_wordpool.txt	LTP073	ltpFR	3	4	0	SNAKE	1333	n/a	n/a	0	n/a	n/a	n/a	n/a	n/a
714421	REC_WORD	wordpools/wasnorm_wordpool.txt	LTP073	ltpFR	3	4	0	REFEREE	1178	n/a	n/a	1	n/a	n/a	n/a	n/a	n/a
715110	REC_WORD	wordpools/wasnorm_wordpool.txt	LTP073	ltpFR	3	4	1	TEAM	1441	n/a	n/a	1	n/a	n/a	n/a	n/a	n/a
737399	WORD	wordpools/wasnorm_wordpool.txt	LTP073	ltpFR	3	5	1	ONION	977	n/a	n/a	0	0.422607421875	0.5869140625	0	lower	zerothre.ttf
741340	WORD	wordpools/wasnorm_wordpool.txt	LTP073	ltpFR	3	5	1	MOLECULE	905	n/a	n/a	1	0.422607421875	0.5869140625	0	lower	zerothre.ttf
745206	WORD	wordpools/wasnorm_wordpool.txt	LTP073	ltpFR	3	5	0	PERISCOPE	1050	n/a	n/a	1	0.57763671875	0.412841796875	1	upper	amplitud.ttf
749047	WORD	wordpools/wasnorm_wordpool.txt	LTP073	ltpFR	3	5	0	WRIST	1626	n/a	n/a	0	0.57763671875	0.412841796875	1	upper	amplitud.ttf
753247	WORD	wordpools/wasnorm_wordpool.txt	LTP073	ltpFR	3	5	0	LEG	809	n/a	n/a	1	0.57763671875	0.412841796875	1	upper	amplitud.ttf
757430	WORD	wordpools/wasnorm_wordpool.txt	LTP073	ltpFR	3	5	0	YOKE	1632	n/a	n/a	0	0.57763671875	0.412841796875	1	upper	amplitud.ttf
761563	WORD	wordpools/wasnorm_wordpool.txt	LTP073	ltpFR	3	5	0	SPINACH	1352	n/a	n/a	0	0.57763671875	0.412841796875	1	upper	amplitud.ttf
765555	WORD	wordpools/wasnorm_wordpool.txt	LTP073	ltpFR	3	5	1	FUGITIVE	612	n/a	n/a	1	0.422607421875	0.5869140625	0	lower	zerothre.ttf
769438	WORD	wordpools/wasnorm_wordpool.txt	LTP073	ltpFR	3	5	1	SEASHORE	1263	n/a	n/a	0	0.422607421875	0.5869140625	0	lower	zerothre.ttf
773388	WORD	wordpools/wasnorm_wordpool.txt	LTP073	ltpFR	3	5	1	SKILLET	1317	n/a	n/a	0	0.422607421875	0.5869140625	0	lower	zerothre.ttf
777346	WORD	wordpools/wasnorm_wordpool.txt	LTP073	ltpFR	3	5	1	COUGAR	387	n/a	n/a	1	0.422607421875	0.5869140625	0	lower	zerothre.ttf
781529	WORD	wordpools/wasnorm_wordpool.txt	LTP073	ltpFR	3	5	1	VICTOR	1563	n/a	n/a	1	0.422607421875	0.5869140625	0	lower	zerothre.ttf
785628	WORD	wordpools/wasnorm_wordpool.txt	LTP073	ltpFR	3	5	1	GARLIC	624	n/a	n/a	0	0.422607421875	0.5869140625	0	lower	zerothre.ttf
789811	WORD	wordpools/wasnorm_wordpool.txt	LTP073	ltpFR	3	5	0	CATHEDRAL	260	n/a	n/a	1	0.57763671875	0.412841796875	1	upper	amplitud.ttf
793943	WORD	wordpools/wasnorm_wordpool.txt	LTP073	ltpFR	3	5	0	SHRINE	1298	n/a	n/a	1	0.57763671875	0.412841796875	1	upper	amplitud.ttf
797819	WORD	wordpools/wasnorm_wordpool.txt	LTP073	ltpFR	3	5	0	ANTEATER	26	n/a	n/a	1	0.57763671875	0.412841796875	1	upper	amplitud.ttf
803703	REC_START	n/a	LTP073	ltpFR	3	5	n/a	n/a	n/a	n/a	n/a	n/a	n/a	n/a	n/a	n/a	n/a
804946	REC_WORD	wordpools/wasnorm_wordpool.txt	LTP073	ltpFR	3	5	0	ANTEATER	26	n/a	n/a	1	n/a	n/a	n/a	n/a	n/a
806252	REC_WORD	wordpools/wasnorm_wordpool.txt	LTP073	ltpFR	3	5	1	ONION	977	n/a	n/a	0	n/a	n/a	n/a	n/a	n/a
807379	REC_WORD	wordpools/wasnorm_wordpool.txt	LTP073	ltpFR	3	5	1	GARLIC	624	n/a	n/a	0	n/a	n/a	n/a	n/a	n/a
808387	REC_WORD	wordpools/wasnorm_wordpool.txt	LTP073	ltpFR	3	5	0	CATHEDRAL	260	n/a	n/a	1	n/a	n/a	n/a	n/a	n/a
810163	REC_WORD	wordpools/wasnorm_wordpool.txt	LTP073	ltpFR	3	5	0	SHRINE	1298	n/a	n/a	1	n/a	n/a	n/a	n/a	n/a
811884	REC_WORD	wordpools/wasnorm_wordpool.txt	LTP073	ltpFR	3	5	1	VICTOR	1563	n/a	n/a	1	n/a	n/a	n/a	n/a	n/a
813994	REC_WORD	wordpools/wasnorm_wordpool.txt	LTP073	ltpFR	3	5	1	SEASHORE	1263	n/a	n/a	0	n/a	n/a	n/a	n/a	n/a
825768	REC_WORD	wordpools/wasnorm_wordpool.txt	LTP073	ltpFR	3	5	0	SPINACH	1352	n/a	n/a	0	n/a	n/a	n/a	n/a	n/a
831694	REC_WORD	wordpools/wasnorm_wordpool.txt	LTP073	ltpFR	3	5	1	MOLECULE	905	n/a	n/a	1	n/a	n/a	n/a	n/a	n/a
845882	REC_WORD	wordpools/wasnorm_wordpool.txt	LTP073	ltpFR	3	5	0	WRIST	1626	n/a	n/a	0	n/a	n/a	n/a	n/a	n/a
857755	REC_WORD	wordpools/wasnorm_wordpool.txt	LTP073	ltpFR	3	5	n/a	ARM	38	n/a	n/a	n/a	n/a	n/a	n/a	n/a	n/a
884571	WORD	wordpools/wasnorm_wordpool.txt	LTP073	ltpFR	3	6	-1	ROBE	1198	n/a	n/a	-1	1.0	1.0	1	upper	Verdana.ttf
888771	WORD	wordpools/wasnorm_wordpool.txt	LTP073	ltpFR	3	6	-1	KIDNEY	776	n/a	n/a	-1	1.0	1.0	1	upper	Verdana.ttf
892612	WORD	wordpools/wasnorm_wordpool.txt	LTP073	ltpFR	3	6	-1	BODY	145	n/a	n/a	-1	1.0	1.0	1	upper	Verdana.ttf
896487	WORD	wordpools/wasnorm_wordpool.txt	LTP073	ltpFR	3	6	-1	ATTIRE	57	n/a	n/a	-1	1.0	1.0	1	upper	Verdana.ttf
900320	WORD	wordpools/wasnorm_wordpool.txt	LTP073	ltpFR	3	6	-1	FIN	566	n/a	n/a	-1	1.0	1.0	1	upper	Verdana.ttf
904261	WORD	wordpools/wasnorm_wordpool.txt	LTP073	ltpFR	3	6	-1	CACTUS	215	n/a	n/a	-1	1.0	1.0	1	upper	Verdana.ttf
908136	WORD	wordpools/wasnorm_wordpool.txt	LTP073	ltpFR	3	6	-1	SIDING	1304	n/a	n/a	-1	1.0	1.0	1	upper	Verdana.ttf
912136	WORD	wordpools/wasnorm_wordpool.txt	LTP073	ltpFR	3	6	-1	WASHER	1592	n/a	n/a	-1	1.0	1.0	1	upper	Verdana.ttf
916152	WORD	wordpools/wasnorm_wordpool.txt	LTP073	ltpFR	3	6	-1	TOASTER	1472	n/a	n/a	-1	1.0	1.0	1	upper	Verdana.ttf
920169	WORD	wordpools/wasnorm_wordpool.txt	LTP073	ltpFR	3	6	-1	NEEDLE	941	n/a	n/a	-1	1.0	1.0	1	upper	Verdana.ttf
924177	WORD	wordpools/wasnorm_wordpool.txt	LTP073	ltpFR	3	6	-1	BIOLOGIST	128	n/a	n/a	-1	1.0	1.0	1	upper	Verdana.ttf
928210	WORD	wordpools/wasnorm_wordpool.txt	LTP073	ltpFR	3	6	-1	COURT	391	n/a	n/a	-1	1.0	1.0	1	upper	Verdana.ttf
932218	WORD	wordpools/wasnorm_wordpool.txt	LTP073	ltpFR	3	6	-1	GAVEL	627	n/a	n/a	-1	1.0	1.0	1	upper	Verdana.ttf
936217	WORD	wordpools/wasnorm_wordpool.txt	LTP073	ltpFR	3	6	-1	COMEDIAN	352	n/a	n/a	-1	1.0	1.0	1	upper	Verdana.ttf
940217	WORD	wordpools/wasnorm_wordpool.txt	LTP073	ltpFR	3	6	-1	LETTER	813	n/a	n/a	-1	1.0	1.0	1	upper	Verdana.ttf
944209	WORD	wordpools/wasnorm_wordpool.txt	LTP073	ltpFR	3	6	-1	CRAB	397	n/a	n/a	-1	1.0	1.0	1	upper	Verdana.ttf
950142	REC_START	n/a	LTP073	ltpFR	3	6	n/a	n/a	n/a	n/a	n/a	n/a	n/a	n/a	n/a	n/a	n/a
951235	REC_WORD	wordpools/wasnorm_wordpool.txt	LTP073	ltpFR	3	6	-1	CRAB	397	n/a	n/a	-1	n/a	n/a	n/a	n/a	n/a
952242	REC_WORD	wordpools/wasnorm_wordpool.txt	LTP073	ltpFR	3	6	-1	COURT	391	n/a	n/a	-1	n/a	n/a	n/a	n/a	n/a
953280	REC_WORD	wordpools/wasnorm_wordpool.txt	LTP073	ltpFR	3	6	-1	GAVEL	627	n/a	n/a	-1	n/a	n/a	n/a	n/a	n/a
954272	REC_WORD	wordpools/wasnorm_wordpool.txt	LTP073	ltpFR	3	6	-1	LETTER	813	n/a	n/a	-1	n/a	n/a	n/a	n/a	n/a
955320	REC_WORD	wordpools/wasnorm_wordpool.txt	LTP073	ltpFR	3	6	-1	ROBE	1198	n/a	n/a	-1	n/a	n/a	n/a	n/a	n/a
956752	REC_WORD	wordpools/wasnorm_wordpool.txt	LTP073	ltpFR	3	6	-1	NEEDLE	941	n/a	n/a	-1	n/a	n/a	n/a	n/a	n/a
957909	REC_WORD	wordpools/wasnorm_wordpool.txt	LTP073	ltpFR	3	6	-1	WASHER	1592	n/a	n/a	-1	n/a	n/a	n/a	n/a	n/a
959106	REC_WORD	wordpools/wasnorm_wordpool.txt	LTP073	ltpFR	3	6	-1	BODY	145	n/a	n/a	-1	n/a	n/a	n/a	n/a	n/a
961202	REC_WORD	wordpools/wasnorm_wordpool.txt	LTP073	ltpFR	3	6	-1	KIDNEY	776	n/a	n/a	-1	n/a	n/a	n/a	n/a	n/a
964774	REC_WORD	wordpools/wasnorm_wordpool.txt	LTP073	ltpFR	3	6	-1	ATTIRE	57	n/a	n/a	-1	n/a	n/a	n/a	n/a	n/a
1040152	WORD	wordpools/wasnorm_wordpool.txt	LTP073	ltpFR	3	7	-1	WHEEL	1603	n/a	n/a	-1	1.0	1.0	1	upper	Verdana.ttf
1044326	WORD	wordpools/wasnorm_wordpool.txt	LTP073	ltpFR	3	7	-1	PISTON	1076	n/a	n/a	-1	1.0	1.0	1	upper	Verdana.ttf
1048218	WORD	wordpools/wasnorm_wordpool.txt	LTP073	ltpFR	3	7	-1	BUSH	202	n/a	n/a	-1	1.0	1.0	1	upper	Verdana.ttf
1052401	WORD	wordpools/wasnorm_wordpool.txt	LTP073	ltpFR	3	7	-1	FORK	594	n/a	n/a	-1	1.0	1.0	1	upper	Verdana.ttf
1056267	WORD	wordpools/wasnorm_wordpool.txt	LTP073	ltpFR	3	7	-1	HATCHET	691	n/a	n/a	-1	1.0	1.0	1	upper	Verdana.ttf
1060309	WORD	wordpools/wasnorm_wordpool.txt	LTP073	ltpFR	3	7	-1	CHAMPAGNE	278	n/a	n/a	-1	1.0	1.0	1	upper	Verdana.ttf
1064508	WORD	wordpools/wasnorm_wordpool.txt	LTP073	ltpFR	3	7	-1	UMPIRE	1535	n/a	n/a	-1	1.0	1.0	1	upper	Verdana.ttf
1068616	WORD	wordpools/wasnorm_wordpool.txt	LTP073	ltpFR	3	7	-1	MAGNET	855	n/a	n/a	-1	1.0	1.0	1	upper	Verdana.ttf
1072708	WORD	wordpools/wasnorm_wordpool.txt	LTP073	ltpFR	3	7	-1	ICEBERG	731	n/a	n/a	-1	1.0	1.0	1	upper	Verdana.ttf
1076856	WORD	wordpools/wasnorm_wordpool.txt	LTP073	ltpFR	3	7	-1	BARREL	91	n/a	n/a	-1	1.0	1.0	1	upper	Verdana.ttf
1080998	WORD	wordpools/wasnorm_wordpool.txt	LTP073	ltpFR	3	7	-1	TANK	1432	n/a	n/a	-1	1.0	1.0	1	upper	Verdana.ttf
1085006	WORD	wordpools/wasnorm_wordpool.txt	LTP073	ltpFR	3	7	-1	ELM	527	n/a	n/a	-1	1.0	1.0	1	upper	Verdana.ttf
1089156	WORD	wordpools/wasnorm_wordpool.txt	LTP073	ltpFR	3	7	-1	DIRT	472	n/a	n/a	-1	1.0	1.0	1	upper	Verdana.ttf
1093223	WORD	wordpools/wasnorm_wordpool.txt	LTP073	ltpFR	3	7	-1	RIFLE	1192	n/a	n/a	-1	1.0	1.0	1	upper	Verdana.ttf
1097055	WORD	wordpools/wasnorm_wordpool.txt	LTP073	ltpFR	3	7	-1	RULER	1216	n/a	n/a	-1	1.0	1.0	1	upper	Verdana.ttf
1100896	WORD	wordpools/wasnorm_wordpool.txt	LTP073	ltpFR	3	7	-1	INCENSE	735	n/a	n/a	-1	1.0	1.0	1	upper	Verdana.ttf
1106731	REC_START	n/a	LTP073	ltpFR	3	7	n/a	n/a	n/a	n/a	n/a	n/a	n/a	n/a	n/a	n/a	n/a
1108572	REC_WORD	wordpools/wasnorm_wordpool.txt	LTP073	ltpFR	3	7	-1	WHEEL	1603	n/a	n/a	-1	n/a	n/a	n/a	n/a	n/a
1110018	REC_WORD	wordpools/wasnorm_wordpool.txt	LTP073	ltpFR	3	7	-1	PISTON	1076	n/a	n/a	-1	n/a	n/a	n/a	n/a	n/a
1111395	REC_WORD	wordpools/wasnorm_wordpool.txt	LTP073	ltpFR	3	7	-1	RIFLE	1192	n/a	n/a	-1	n/a	n/a	n/a	n/a	n/a
1112982	REC_WORD	wordpools/wasnorm_wordpool.txt	LTP073	ltpFR	3	7	-1	DIRT	472	n/a	n/a	-1	n/a	n/a	n/a	n/a	n/a
1114468	REC_WORD	wordpools/wasnorm_wordpool.txt	LTP073	ltpFR	3	7	-1	BUSH	202	n/a	n/a	-1	n/a	n/a	n/a	n/a	n/a
1142694	REC_WORD	wordpools/wasnorm_wordpool.txt	LTP073	ltpFR	3	7	-1	CHAMPAGNE	278	n/a	n/a	-1	n/a	n/a	n/a	n/a	n/a
1193074	WORD	wordpools/wasnorm_wordpool.txt	LTP073	ltpFR	3	8	1	BUYER	208	n/a	n/a	1	0.422607421875	0.5869140625	0	lower	zerothre.ttf
1197124	WORD	wordpools/wasnorm_wordpool.txt	LTP073	ltpFR	3	8	1	CRIMINAL	409	n/a	n/a	1	0.422607421875	0.5869140625	0	lower	zerothre.ttf
1200964	WORD	wordpools/wasnorm_wordpool.txt	LTP073	ltpFR	3	8	1	PRISON	1127	n/a	n/a	1	0.422607421875	0.5869140625	0	lower	zerothre.ttf
1204815	WORD	wordpools/wasnorm_wordpool.txt	LTP073	ltpFR	3	8	1	BATHROOM	99	n/a	n/a	0	0.422607421875	0.5869140625	0	lower	zerothre.ttf
1208938	WORD	wordpools/wasnorm_wordpool.txt	LTP073	ltpFR	3	8	1	CANNON	232	n/a	n/a	0	0.422607421875	0.5869140625	0	lower	zerothre.ttf
1212797	WORD	wordpools/wasnorm_wordpool.txt	LTP073	ltpFR	3	8	1	SKETCH	1315	n/a	n/a	0	0.422607421875	0.5869140625	0	lower	zerothre.ttf
1216888	WORD	wordpools/wasnorm_wordpool.txt	LTP073	ltpFR	3	8	1	ROBBER	1197	n/a	n/a	1	0.422607421875	0.5869140625	0	lower	zerothre.ttf
1220730	WORD	wordpools/wasnorm_wordpool.txt	LTP073	ltpFR	3	8	1	DINER	467	n/a	n/a	0	0.422607421875	0.5869140625	0	lower	zerothre.ttf
1224647	WORD	wordpools/wasnorm_wordpool.txt	LTP073	ltpFR	3	8	1	MEAL	882	n/a	n/a	0	0.422607421875	0.5869140625	0	lower	zerothre.ttf
1228580	WORD	wordpools/wasnorm_wordpool.txt	LTP073	ltpFR	3	8	1	TENT	1449	n/a	n/a	0	0.422607421875	0.5869140625	0	lower	zerothre.ttf
1232621	WORD	wordpools/wasnorm_wordpool.txt	LTP073	ltpFR	3	8	1	CONSUMER	365	n/a	n/a	1	0.422607421875	0.5869140625	0	lower	zerothre.ttf
1236729	WORD	wordpools/wasnorm_wordpool.txt	LTP073	ltpFR	3	8	1	OX	994	n/a	n/a	1	0.422607421875	0.5869140625	0	lower	zerothre.ttf
1240695	WORD	wordpools/wasnorm_wordpool.txt	LTP073	ltpFR	3	8	1	WALRUS	1585	n/a	n/a	1	0.422607421875	0.5869140625	0	lower	zerothre.ttf
1244837	WORD	wordpools/wasnorm_wordpool.txt	LTP073	ltpFR	3	8	1	VEAL	1551	n/a	n/a	0	0.422607421875	0.5869140625	0	lower	zerothre.ttf
1248960	WORD	wordpools/wasnorm_wordpool.txt	LTP073	ltpFR	3	8	1	GOAT	644	n/a	n/a	1	0.422607421875	0.5869140625	0	lower	zerothre.ttf
1252902	WORD	wordpools/wasnorm_wordpool.txt	LTP073	ltpFR	3	8	1	LAUNDRY	803	n/a	n/a	0	0.422607421875	0.5869140625	0	lower	zerothre.ttf
1258678	REC_START	n/a	LTP073	ltpFR	3	8	n/a	n/a	n/a	n/a	n/a	n/a	n/a	n/a	n/a	n/a	n/a
1260489	REC_WORD	wordpools/wasnorm_wordpool.txt	LTP073	ltpFR	3	8	1	VEAL	1551	n/a	n/a	0	n/a	n/a	n/a	n/a	n/a
1261496	REC_WORD	wordpools/wasnorm_wordpool.txt	LTP073	ltpFR	3	8	1	GOAT	644	n/a	n/a	1	n/a	n/a	n/a	n/a	n/a
1262354	REC_WORD	wordpools/wasnorm_wordpool.txt	LTP073	ltpFR	3	8	1	OX	994	n/a	n/a	1	n/a	n/a	n/a	n/a	n/a
1263642	REC_WORD	wordpools/wasnorm_wordpool.txt	LTP073	ltpFR	3	8	1	BUYER	208	n/a	n/a	1	n/a	n/a	n/a	n/a	n/a
1265547	REC_WORD	wordpools/wasnorm_wordpool.txt	LTP073	ltpFR	3	8	1	CRIMINAL	409	n/a	n/a	1	n/a	n/a	n/a	n/a	n/a
1269478	REC_WORD	wordpools/wasnorm_wordpool.txt	LTP073	ltpFR	3	8	1	PRISON	1127	n/a	n/a	1	n/a	n/a	n/a	n/a	n/a
1273389	REC_WORD_VV	wordpools/wasnorm_wordpool.txt	LTP073	ltpFR	3	8	n/a	<>	-1	n/a	n/a	n/a	n/a	n/a	n/a	n/a	n/a
1275026	REC_WORD	wordpools/wasnorm_wordpool.txt	LTP073	ltpFR	3	8	n/a	BURGLAR	200	n/a	n/a	n/a	n/a	n/a	n/a	n/a	n/a
1295384	REC_WORD	wordpools/wasnorm_wordpool.txt	LTP073	ltpFR	3	8	1	MEAL	882	n/a	n/a	0	n/a	n/a	n/a	n/a	n/a
1296517	REC_WORD	wordpools/wasnorm_wordpool.txt	LTP073	ltpFR	3	8	1	DINER	467	n/a	n/a	0	n/a	n/a	n/a	n/a	n/a
1297574	REC_WORD	wordpools/wasnorm_wordpool.txt	LTP073	ltpFR	3	8	1	TENT	1449	n/a	n/a	0	n/a	n/a	n/a	n/a	n/a
1344705	WORD	wordpools/wasnorm_wordpool.txt	LTP073	ltpFR	3	9	-1	COBBLER	335	n/a	n/a	-1	1.0	1.0	1	upper	Verdana.ttf
1348779	WORD	wordpools/wasnorm_wordpool.txt	LTP073	ltpFR	3	9	-1	CHERRY	293	n/a	n/a	-1	1.0	1.0	1	upper	Verdana.ttf
1352654	WORD	wordpools/wasnorm_wordpool.txt	LTP073	ltpFR	3	9	-1	WAVE	1596	n/a	n/a	-1	1.0	1.0	1	upper	Verdana.ttf
1356620	WORD	wordpools/wasnorm_wordpool.txt	LTP073	ltpFR	3	9	-1	COIN	343	n/a	n/a	-1	1.0	1.0	1	upper	Verdana.ttf
1360787	WORD	wordpools/wasnorm_wordpool.txt	LTP073	ltpFR	3	9	-1	BABY	64	n/a	n/a	-1	1.0	1.0	1	upper	Verdana.ttf
1364894	WORD	wordpools/wasnorm_wordpool.txt	LTP073	ltpFR	3	9	-1	LETTUCE	814	n/a	n/a	-1	1.0	1.0	1	upper	Verdana.ttf
1368952	WORD	wordpools/wasnorm_wordpool.txt	LTP073	ltpFR	3	9	-1	CEREAL	272	n/a	n/a	-1	1.0	1.0	1	upper	Verdana.ttf
1372786	WORD	wordpools/wasnorm_wordpool.txt	LTP073	ltpFR	3	9	-1	CLAM	315	n/a	n/a	-1	1.0	1.0	1	upper	Verdana.ttf
1376611	WORD	wordpools/wasnorm_wordpool.txt	LTP073	ltpFR	3	9	-1	STAKE	1368	n/a	n/a	-1	1.0	1.0	1	upper	Verdana.ttf
1380819	WORD	wordpools/wasnorm_wordpool.txt	LTP073	ltpFR	3	9	-1	LOG	841	n/a	n/a	-1	1.0	1.0	1	upper	Verdana.ttf
1384802	WORD	wordpools/wasnorm_wordpool.txt	LTP073	ltpFR	3	9	-1	CHISEL	305	n/a	n/a	-1	1.0	1.0	1	upper	Verdana.ttf
1388875	WORD	wordpools/wasnorm_wordpool.txt	LTP073	ltpFR	3	9	-1	COLESLAW	344	n/a	n/a	-1	1.0	1.0	1	upper	Verdana.ttf
1392793	WORD	wordpools/wasnorm_wordpool.txt	LTP073	ltpFR	3	9	-1	CORPORATION	382	n/a	n/a	-1	1.0	1.0	1	upper	Verdana.ttf
1396916	WORD	wordpools/wasnorm_wordpool.txt	LTP073	ltpFR	3	9	-1	TECHNICIAN	1443	n/a	n/a	-1	1.0	1.0	1	upper	Verdana.ttf
1401084	WORD	wordpools/wasnorm_wordpool.txt	LTP073	ltpFR	3	9	-1	LIMOUSINE	824	n/a	n/a	-1	1.0	1.0	1	upper	Verdana.ttf
1405184	WORD	wordpools/wasnorm_wordpool.txt	LTP073	ltpFR	3	9	-1	CANOE	233	n/a	n/a	-1	1.0	1.0	1	upper	Verdana.ttf
1410841	REC_START	n/a	LTP073	ltpFR	3	9	n/a	n/a	n/a	n/a	n/a	n/a	n/a	n/a	n/a	n/a	n/a
1412422	REC_WORD	wordpools/wasnorm_wordpool.txt	LTP073	ltpFR	3	9	-1	CANOE	233	n/a	n/a	-1	n/a	n/a	n/a	n/a	n/a
1413789	REC_WORD	wordpools/wasnorm_wordpool.txt	LTP073	ltpFR	3	9	-1	COBBLER	335	n/a	n/a	-1	n/a	n/a	n/a	n/a	n/a
1414817	REC_WORD	wordpools/wasnorm_wordpool.txt	LTP073	ltpFR	3	9	-1	CHISEL	305	n/a	n/a	-1	n/a	n/a	n/a	n/a	n/a
1418099	REC_WORD	wordpools/wasnorm_wordpool.txt	LTP073	ltpFR	3	9	-1	CORPORATION	382	n/a	n/a	-1	n/a	n/a	n/a	n/a	n/a
1420673	REC_WORD	wordpools/wasnorm_wordpool.txt	LTP073	ltpFR	3	9	-1	LETTUCE	814	n/a	n/a	-1	n/a	n/a	n/a	n/a	n/a
1422614	REC_WORD	wordpools/wasnorm_wordpool.txt	LTP073	ltpFR	3	9	-1	STAKE	1368	n/a	n/a	-1	n/a	n/a	n/a	n/a	n/a
1439082	REC_WORD	wordpools/wasnorm_wordpool.txt	LTP073	ltpFR	3	9	-1	CLAM	315	n/a	n/a	-1	n/a	n/a	n/a	n/a	n/a
1496260	WORD	wordpools/wasnorm_wordpool.txt	LTP073	ltpFR	3	10	0	TIMBER	1469	n/a	n/a	1	0.57763671875	0.412841796875	1	upper	amplitud.ttf
1500210	WORD	wordpools/wasnorm_wordpool.txt	LTP073	ltpFR	3	10	0	CARPENTER	246	n/a	n/a	1	0.57763671875	0.412841796875	1	upper	amplitud.ttf
1504135	WORD	wordpools/wasnorm_wordpool.txt	LTP073	ltpFR	3	10	0	BEAKER	104	n/a	n/a	0	0.57763671875	0.412841796875	1	upper	amplitud.ttf
1508218	WORD	wordpools/wasnorm_wordpool.txt	LTP073	ltpFR	3	10	0	RIVER	1194	n/a	n/a	1	0.57763671875	0.412841796875	1	upper	amplitud.ttf
1512259	WORD	wordpools/wasnorm_wordpool.txt	LTP073	ltpFR	3	10	0	PIER	1063	n/a	n/a	1	0.57763671875	0.412841796875	1	upper	amplitud.ttf
1516292	WORD	wordpools/wasnorm_wordpool.txt	LTP073	ltpFR	3	10	0	FLASK	576	n/a	n/a	0	0.57763671875	0.412841796875	1	upper	amplitud.ttf
1520142	WORD	wordpools/wasnorm_wordpool.txt	LTP073	ltpFR	3	10	0	SCREW	1254	n/a	n/a	0	0.57763671875	0.412841796875	1	upper	amplitud.ttf
1524217	WORD	wordpools/wasnorm_wordpool.txt	LTP073	ltpFR	3	10	0	CART	250	n/a	n/a	1	0.57763671875	0.412841796875	1	upper	amplitud.ttf
1528150	WORD	wordpools/wasnorm_wordpool.txt	LTP073	ltpFR	3	10	0	ROBIN	1199	n/a	n/a	0	0.57763671875	0.412841796875	1	upper	amplitud.ttf
1532291	WORD	wordpools/wasnorm_wordpool.txt	LTP073	ltpFR	3	10	0	GULL	671	n/a	n/a	0	0.57763671875	0.412841796875	1	upper	amplitud.ttf
1536191	WORD	wordpools/wasnorm_wordpool.txt	LTP073	ltpFR	3	10	0	ROCKET	1202	n/a	n/a	1	0.57763671875	0.412841796875	1	upper	amplitud.ttf
1540149	WORD	wordpools/wasnorm_wordpool.txt	LTP073	ltpFR	3	10	0	AIRCRAFT	11	n/a	n/a	1	0.57763671875	0.412841796875	1	upper	amplitud.ttf
1544014	WORD	wordpools/wasnorm_wordpool.txt	LTP073	ltpFR	3	10	0	BAG	69	n/a	n/a	0	0.57763671875	0.412841796875	1	upper	amplitud.ttf
1547922	WORD	wordpools/wasnorm_wordpool.txt	LTP073	ltpFR	3	10	0	ELEVATOR	524	n/a	n/a	1	0.57763671875	0.412841796875	1	upper	amplitud.ttf
1551731	WORD	wordpools/wasnorm_wordpool.txt	LTP073	ltpFR	3	10	0	SALESMAN	1225	n/a	n/a	1	0.57763671875	0.412841796875	1	upper	amplitud.ttf
1555831	WORD	wordpools/wasnorm_wordpool.txt	LTP073	ltpFR	3	10	0	ANGEL	22	n/a	n/a	1	0.57763671875	0.412841796875	1	upper	amplitud.ttf
1561706	REC_START	n/a	LTP073	ltpFR	3	10	n/a	n/a	n/a	n/a	n/a	n/a	n/a	n/a	n/a	n/a	n/a
1562778	REC_WORD	wordpools/wasnorm_wordpool.txt	LTP073	ltpFR	3	10	0	ANGEL	22	n/a	n/a	1	n/a	n/a	n/a	n/a	n/a
1563666	REC_WORD	wordpools/wasnorm_wordpool.txt	LTP073	ltpFR	3	10	0	SALESMAN	1225	n/a	n/a	1	n/a	n/a	n/a	n/a	n/a
1565013	REC_WORD	wordpools/wasnorm_wordpool.txt	LTP073	ltpFR	3	10	0	ELEVATOR	524	n/a	n/a	1	n/a	n/a	n/a	n/a	n/a
1566171	REC_WORD	wordpools/wasnorm_wordpool.txt	LTP073	ltpFR	3	10	0	CARPENTER	246	n/a	n/a	1	n/a	n/a	n/a	n/a	n/a
1567138	REC_WORD	wordpools/wasnorm_wordpool.txt	LTP073	ltpFR	3	10	0	TIMBER	1469	n/a	n/a	1	n/a	n/a	n/a	n/a	n/a
1567987	REC_WORD	wordpools/wasnorm_wordpool.txt	LTP073	ltpFR	3	10	0	SCREW	1254	n/a	n/a	0	n/a	n/a	n/a	n/a	n/a
1571249	REC_WORD	wordpools/wasnorm_wordpool.txt	LTP073	ltpFR	3	10	0	BEAKER	104	n/a	n/a	0	n/a	n/a	n/a	n/a	n/a
1572092	REC_WORD	wordpools/wasnorm_wordpool.txt	LTP073	ltpFR	3	10	0	RIVER	1194	n/a	n/a	1	n/a	n/a	n/a	n/a	n/a
1573035	REC_WORD	wordpools/wasnorm_wordpool.txt	LTP073	ltpFR	3	10	0	PIER	1063	n/a	n/a	1	n/a	n/a	n/a	n/a	n/a
1591204	REC_WORD_VV	wordpools/wasnorm_wordpool.txt	LTP073	ltpFR	3	10	n/a	<>	-1	n/a	n/a	n/a	n/a	n/a	n/a	n/a	n/a
1647724	WORD	wordpools/wasnorm_wordpool.txt	LTP073	ltpFR	3	11	0	SPOON	1357	n/a	n/a	0	0.57763671875	0.412841796875	1	upper	amplitud.ttf
1651807	WORD	wordpools/wasnorm_wordpool.txt	LTP073	ltpFR	3	11	0	BROTHER	179	n/a	n/a	1	0.57763671875	0.412841796875	1	upper	amplitud.ttf
1655989	WORD	wordpools/wasnorm_wordpool.txt	LTP073	ltpFR	3	11	0	BALCONY	72	n/a	n/a	1	0.57763671875	0.412841796875	1	upper	amplitud.ttf
1660082	WORD	wordpools/wasnorm_wordpool.txt	LTP073	ltpFR	3	11	1	HOME	712	n/a	n/a	0	0.422607421875	0.5869140625	0	lower	zerothre.ttf
1664206	WORD	wordpools/wasnorm_wordpool.txt	LTP073	ltpFR	3	11	1	SERVANT	1271	n/a	n/a	1	0.422607421875	0.5869140625	0	lower	zerothre.ttf
1668198	WORD	wordpools/wasnorm_wordpool.txt	LTP073	ltpFR	3	11	1	CONE	363	n/a	n/a	0	0.422607421875	0.5869140625	0	lower	zerothre.ttf
1672038	WORD	wordpools/wasnorm_wordpool.txt	LTP073	ltpFR	3	11	1	POTATO	1115	n/a	n/a	0	0.422607421875	0.5869140625	0	lower	zerothre.ttf
1676038	WORD	wordpools/wasnorm_wordpool.txt	LTP073	ltpFR	3	11	0	DAGGER	434	n/a	n/a	0	0.57763671875	0.412841796875	1	upper	amplitud.ttf
1680004	WORD	wordpools/wasnorm_wordpool.txt	LTP073	ltpFR	3	11	0	DAUGHTER	442	n/a	n/a	1	0.57763671875	0.412841796875	1	upper	amplitud.ttf
1684012	WORD	wordpools/wasnorm_wordpool.txt	LTP073	ltpFR	3	11	0	MATTRESS	879	n/a	n/a	1	0.57763671875	0.412841796875	1	upper	amplitud.ttf
1688205	WORD	wordpools/wasnorm_wordpool.txt	LTP073	ltpFR	3	11	1	DIGGER	464	n/a	n/a	1	0.422607421875	0.5869140625	0	lower	zerothre.ttf
1692020	WORD	wordpools/wasnorm_wordpool.txt	LTP073	ltpFR	3	11	1	DUST	508	n/a	n/a	0	0.422607421875	0.5869140625	0	lower	zerothre.ttf
1696028	WORD	wordpools/wasnorm_wordpool.txt	LTP073	ltpFR	3	11	1	CHIEF	298	n/a	n/a	1	0.422607421875	0.5869140625	0	lower	zerothre.ttf
1700028	WORD	wordpools/wasnorm_wordpool.txt	LTP073	ltpFR	3	11	1	SUPERMARKET	1409	n/a	n/a	0	0.422607421875	0.5869140625	0	lower	zerothre.ttf
1703944	WORD	wordpools/wasnorm_wordpool.txt	LTP073	ltpFR	3	11	0	VIOLA	1570	n/a	n/a	0	0.57763671875	0.412841796875	1	upper	amplitud.ttf
1708011	WORD	wordpools/wasnorm_wordpool.txt	LTP073	ltpFR	3	11	0	CLARINET	317	n/a	n/a	0	0.57763671875	0.412841796875	1	upper	amplitud.ttf
1713886	REC_START	n/a	LTP073	ltpFR	3	11	n/a	n/a	n/a	n/a	n/a	n/a	n/a	n/a	n/a	n/a	n/a
1714679	REC_WORD	wordpools/wasnorm_wordpool.txt	LTP073	ltpFR	3	11	0	CLARINET	317	n/a	n/a	0	n/a	n/a	n/a	n/a	n/a
1715657	REC_WORD	wordpools/wasnorm_wordpool.txt	LTP073	ltpFR	3	11	0	VIOLA	1570	n/a	n/a	0	n/a	n/a	n/a	n/a	n/a
1716714	REC_WORD	wordpools/wasnorm_wordpool.txt	LTP073	ltpFR	3	11	1	SERVANT	1271	n/a	n/a	1	n/a	n/a	n/a	n/a	n/a
1717852	REC_WORD	wordpools/wasnorm_wordpool.txt	LTP073	ltpFR	3	11	1	DIGGER	464	n/a	n/a	1	n/a	n/a	n/a	n/a	n/a
1718690	REC_WORD	wordpools/wasnorm_wordpool.txt	LTP073	ltpFR	3	11	1	HOME	712	n/a	n/a	0	n/a	n/a	n/a	n/a	n/a
1725112	REC_WORD_VV	wordpools/wasnorm_wordpool.txt	LTP073	ltpFR	3	11	n/a	<>	-1	n/a	n/a	n/a	n/a	n/a	n/a	n/a	n/a
1726712	REC_WORD	wordpools/wasnorm_wordpool.txt	LTP073	ltpFR	3	11	0	BROTHER	179	n/a	n/a	1	n/a	n/a	n/a	n/a	n/a
1727679	REC_WORD	wordpools/wasnorm_wordpool.txt	LTP073	ltpFR	3	11	0	DAUGHTER	442	n/a	n/a	1	n/a	n/a	n/a	n/a	n/a
1754209	REC_WORD	wordpools/wasnorm_wordpool.txt	LTP073	ltpFR	3	11	1	POTATO	1115	n/a	n/a	0	n/a	n/a	n/a	n/a	n/a
1755237	REC_WORD	wordpools/wasnorm_wordpool.txt	LTP073	ltpFR	3	11	0	SPOON	1357	n/a	n/a	0	n/a	n/a	n/a	n/a	n/a
1803646	WORD	wordpools/wasnorm_wordpool.txt	LTP073	ltpFR	3	12	0	OAR	966	n/a	n/a	1	0.57763671875	0.412841796875	1	upper	amplitud.ttf
1807496	WORD	wordpools/wasnorm_wordpool.txt	LTP073	ltpFR	3	12	0	SUBMARINE	1398	n/a	n/a	1	0.57763671875	0.412841796875	1	upper	amplitud.ttf
1811362	WORD	wordpools/wasnorm_wordpool.txt	LTP073	ltpFR	3	12	0	BEAN	105	n/a	n/a	0	0.57763671875	0.412841796875	1	upper	amplitud.ttf
1815362	WORD	wordpools/wasnorm_wordpool.txt	LTP073	ltpFR	3	12	0	FLIPPER	580	n/a	n/a	0	0.57763671875	0.412841796875	1	upper	amplitud.ttf
1819395	WORD	wordpools/wasnorm_wordpool.txt	LTP073	ltpFR	3	12	0	LAKE	796	n/a	n/a	1	0.57763671875	0.412841796875	1	upper	amplitud.ttf
1823512	WORD	wordpools/wasnorm_wordpool.txt	LTP073	ltpFR	3	12	0	REEF	1177	n/a	n/a	1	0.57763671875	0.412841796875	1	upper	amplitud.ttf
1827520	WORD	wordpools/wasnorm_wordpool.txt	LTP073	ltpFR	3	12	0	PORPOISE	1109	n/a	n/a	1	0.57763671875	0.412841796875	1	upper	amplitud.ttf
1831528	WORD	wordpools/wasnorm_wordpool.txt	LTP073	ltpFR	3	12	0	YACHT	1629	n/a	n/a	1	0.57763671875	0.412841796875	1	upper	amplitud.ttf
1835677	WORD	wordpools/wasnorm_wordpool.txt	LTP073	ltpFR	3	12	0	DILL	465	n/a	n/a	0	0.57763671875	0.412841796875	1	upper	amplitud.ttf
1839502	WORD	wordpools/wasnorm_wordpool.txt	LTP073	ltpFR	3	12	0	RECEIPT	1173	n/a	n/a	0	0.57763671875	0.412841796875	1	upper	amplitud.ttf
1843635	WORD	wordpools/wasnorm_wordpool.txt	LTP073	ltpFR	3	12	0	DIME	466	n/a	n/a	0	0.57763671875	0.412841796875	1	upper	amplitud.ttf
1847501	WORD	wordpools/wasnorm_wordpool.txt	LTP073	ltpFR	3	12	0	CASH	252	n/a	n/a	0	0.57763671875	0.412841796875	1	upper	amplitud.ttf
1851660	WORD	wordpools/wasnorm_wordpool.txt	LTP073	ltpFR	3	12	0	COBWEB	337	n/a	n/a	0	0.57763671875	0.412841796875	1	upper	amplitud.ttf
1855701	WORD	wordpools/wasnorm_wordpool.txt	LTP073	ltpFR	3	12	0	HERO	706	n/a	n/a	1	0.57763671875	0.412841796875	1	upper	amplitud.ttf
1859634	WORD	wordpools/wasnorm_wordpool.txt	LTP073	ltpFR	3	12	0	CREAM	402	n/a	n/a	0	0.57763671875	0.412841796875	1	upper	amplitud.ttf
1863834	WORD	wordpools/wasnorm_wordpool.txt	LTP073	ltpFR	3	12	0	CANE	231	n/a	n/a	1	0.57763671875	0.412841796875	1	upper	amplitud.ttf
1869759	REC_START	n/a	LTP073	ltpFR	3	12	n/a	n/a	n/a	n/a	n/a	n/a	n/a	n/a	n/a	n/a	n/a
1872029	REC_WORD	wordpools/wasnorm_wordpool.txt	LTP073	ltpFR	3	12	0	OAR	966	n/a	n/a	1	n/a	n/a	n/a	n/a	n/a
1872877	REC_WORD	wordpools/wasnorm_wordpool.txt	LTP073	ltpFR	3	12	0	SUBMARINE	1398	n/a	n/a	1	n/a	n/a	n/a	n/a	n/a
1874000	REC_WORD	wordpools/wasnorm_wordpool.txt	LTP073	ltpFR	3	12	0	FLIPPER	580	n/a	n/a	0	n/a	n/a	n/a	n/a	n/a
1875306	REC_WORD	wordpools/wasnorm_wordpool.txt	LTP073	ltpFR	3	12	0	LAKE	796	n/a	n/a	1	n/a	n/a	n/a	n/a	n/a
1876648	REC_WORD	wordpools/wasnorm_wordpool.txt	LTP073	ltpFR	3	12	0	CANE	231	n/a	n/a	1	n/a	n/a	n/a	n/a	n/a
1878913	REC_WORD	wordpools/wasnorm_wordpool.txt	LTP073	ltpFR	3	12	0	CREAM	402	n/a	n/a	0	n/a	n/a	n/a	n/a	n/a
1882974	REC_WORD	wordpools/wasnorm_wordpool.txt	LTP073	ltpFR	3	12	0	BEAN	105	n/a	n/a	0	n/a	n/a	n/a	n/a	n/a
1890876	REC_WORD	wordpools/wasnorm_wordpool.txt	LTP073	ltpFR	3	12	0	DILL	465	n/a	n/a	0	n/a	n/a	n/a	n/a	n/a
1911629	REC_WORD	wordpools/wasnorm_wordpool.txt	LTP073	ltpFR	3	12	0	DIME	466	n/a	n/a	0	n/a	n/a	n/a	n/a	n/a
1912936	REC_WORD	wordpools/wasnorm_wordpool.txt	LTP073	ltpFR	3	12	0	CASH	252	n/a	n/a	0	n/a	n/a	n/a	n/a	n/a
2330175	WORD	wordpools/wasnorm_wordpool.txt	LTP073	ltpFR	3	13	0	LADDER	793	n/a	n/a	1	0.57763671875	0.412841796875	1	upper	amplitud.ttf
2334324	WORD	wordpools/wasnorm_wordpool.txt	LTP073	ltpFR	3	13	0	THIGH	1457	n/a	n/a	1	0.57763671875	0.412841796875	1	upper	amplitud.ttf
2338191	WORD	wordpools/wasnorm_wordpool.txt	LTP073	ltpFR	3	13	0	CAT	257	n/a	n/a	1	0.57763671875	0.412841796875	1	upper	amplitud.ttf
2342224	WORD	wordpools/wasnorm_wordpool.txt	LTP073	ltpFR	3	13	0	TOMB	1477	n/a	n/a	1	0.57763671875	0.412841796875	1	upper	amplitud.ttf
2346149	WORD	wordpools/wasnorm_wordpool.txt	LTP073	ltpFR	3	13	0	SCIENTIST	1249	n/a	n/a	1	0.57763671875	0.412841796875	1	upper	amplitud.ttf
2350315	WORD	wordpools/wasnorm_wordpool.txt	LTP073	ltpFR	3	13	0	COMET	353	n/a	n/a	1	0.57763671875	0.412841796875	1	upper	amplitud.ttf
2354240	WORD	wordpools/wasnorm_wordpool.txt	LTP073	ltpFR	3	13	0	DEPUTY	450	n/a	n/a	1	0.57763671875	0.412841796875	1	upper	amplitud.ttf
2358289	WORD	wordpools/wasnorm_wordpool.txt	LTP073	ltpFR	3	13	0	UNIFORM	1539	n/a	n/a	1	0.57763671875	0.412841796875	1	upper	amplitud.ttf
2362164	WORD	wordpools/wasnorm_wordpool.txt	LTP073	ltpFR	3	13	0	DESSERT	453	n/a	n/a	1	0.57763671875	0.412841796875	1	upper	amplitud.ttf
2365996	WORD	wordpools/wasnorm_wordpool.txt	LTP073	ltpFR	3	13	0	WAITER	1580	n/a	n/a	1	0.57763671875	0.412841796875	1	upper	amplitud.ttf
2370122	WORD	wordpools/wasnorm_wordpool.txt	LTP073	ltpFR	3	13	0	CHOCOLATE	306	n/a	n/a	0	0.57763671875	0.412841796875	1	upper	amplitud.ttf
2374180	WORD	wordpools/wasnorm_wordpool.txt	LTP073	ltpFR	3	13	0	TAPIOCA	1434	n/a	n/a	0	0.57763671875	0.412841796875	1	upper	amplitud.ttf
2378271	WORD	wordpools/wasnorm_wordpool.txt	LTP073	ltpFR	3	13	0	HIKER	708	n/a	n/a	1	0.57763671875	0.412841796875	1	upper	amplitud.ttf
2382121	WORD	wordpools/wasnorm_wordpool.txt	LTP073	ltpFR	3	13	0	KNEE	784	n/a	n/a	0	0.57763671875	0.412841796875	1	upper	amplitud.ttf
2386204	WORD	wordpools/wasnorm_wordpool.txt	LTP073	ltpFR	3	13	0	PHYSICIAN	1056	n/a	n/a	1	0.57763671875	0.412841796875	1	upper	amplitud.ttf
2390137	WORD	wordpools/wasnorm_wordpool.txt	LTP073	ltpFR	3	13	0	POLITICIAN	1099	n/a	n/a	1	0.57763671875	0.412841796875	1	upper	amplitud.ttf
2396020	REC_START	n/a	LTP073	ltpFR	3	13	n/a	n/a	n/a	n/a	n/a	n/a	n/a	n/a	n/a	n/a	n/a
2397023	REC_WORD	wordpools/wasnorm_wordpool.txt	LTP073	ltpFR	3	13	0	POLITICIAN	1099	n/a	n/a	1	n/a	n/a	n/a	n/a	n/a
2398417	REC_WORD	wordpools/wasnorm_wordpool.txt	LTP073	ltpFR	3	13	0	PHYSICIAN	1056	n/a	n/a	1	n/a	n/a	n/a	n/a	n/a
2399726	REC_WORD	wordpools/wasnorm_wordpool.txt	LTP073	ltpFR	3	13	0	DEPUTY	450	n/a	n/a	1	n/a	n/a	n/a	n/a	n/a
2400614	REC_WORD	wordpools/wasnorm_wordpool.txt	LTP073	ltpFR	3	13	0	UNIFORM	1539	n/a	n/a	1	n/a	n/a	n/a	n/a	n/a
2401651	REC_WORD	wordpools/wasnorm_wordpool.txt	LTP073	ltpFR	3	13	0	SCIENTIST	1249	n/a	n/a	1	n/a	n/a	n/a	n/a	n/a
2402849	REC_WORD	wordpools/wasnorm_wordpool.txt	LTP073	ltpFR	3	13	0	COMET	353	n/a	n/a	1	n/a	n/a	n/a	n/a	n/a
2403977	REC_WORD	wordpools/wasnorm_wordpool.txt	LTP073	ltpFR	3	13	0	CAT	257	n/a	n/a	1	n/a	n/a	n/a	n/a	n/a
2404670	REC_WORD	wordpools/wasnorm_wordpool.txt	LTP073	ltpFR	3	13	0	THIGH	1457	n/a	n/a	1	n/a	n/a	n/a	n/a	n/a
2406381	REC_WORD	wordpools/wasnorm_wordpool.txt	LTP073	ltpFR	3	13	0	DESSERT	453	n/a	n/a	1	n/a	n/a	n/a	n/a	n/a
2407299	REC_WORD	wordpools/wasnorm_wordpool.txt	LTP073	ltpFR	3	13	0	TAPIOCA	1434	n/a	n/a	0	n/a	n/a	n/a	n/a	n/a
2408626	REC_WORD	wordpools/wasnorm_wordpool.txt	LTP073	ltpFR	3	13	0	CHOCOLATE	306	n/a	n/a	0	n/a	n/a	n/a	n/a	n/a
2409724	REC_WORD	wordpools/wasnorm_wordpool.txt	LTP073	ltpFR	3	13	0	KNEE	784	n/a	n/a	0	n/a	n/a	n/a	n/a	n/a
2411669	REC_WORD_VV	wordpools/wasnorm_wordpool.txt	LTP073	ltpFR	3	13	n/a	<>	-1	n/a	n/a	n/a	n/a	n/a	n/a	n/a	n/a
2412669	REC_WORD_VV	wordpools/wasnorm_wordpool.txt	LTP073	ltpFR	3	13	n/a	<>	-1	n/a	n/a	n/a	n/a	n/a	n/a	n/a	n/a
2413669	REC_WORD_VV	wordpools/wasnorm_wordpool.txt	LTP073	ltpFR	3	13	n/a	<>	-1	n/a	n/a	n/a	n/a	n/a	n/a	n/a	n/a
2416648	REC_WORD	wordpools/wasnorm_wordpool.txt	LTP073	ltpFR	3	13	0	LADDER	793	n/a	n/a	1	n/a	n/a	n/a	n/a	n/a
2421218	REC_WORD	wordpools/wasnorm_wordpool.txt	LTP073	ltpFR	3	13	0	TOMB	1477	n/a	n/a	1	n/a	n/a	n/a	n/a	n/a
2478272	WORD	wordpools/wasnorm_wordpool.txt	LTP073	ltpFR	3	14	1	WOLF	1619	n/a	n/a	1	0.422607421875	0.5869140625	0	lower	zerothre.ttf
2482097	WORD	wordpools/wasnorm_wordpool.txt	LTP073	ltpFR	3	14	1	ENGINEER	536	n/a	n/a	1	0.422607421875	0.5869140625	0	lower	zerothre.ttf
2486172	WORD	wordpools/wasnorm_wordpool.txt	LTP073	ltpFR	3	14	1	LOAF	835	n/a	n/a	0	0.422607421875	0.5869140625	0	lower	zerothre.ttf
2490238	WORD	wordpools/wasnorm_wordpool.txt	LTP073	ltpFR	3	14	1	PRAIRIE	1118	n/a	n/a	0	0.422607421875	0.5869140625	0	lower	zerothre.ttf
2494113	WORD	wordpools/wasnorm_wordpool.txt	LTP073	ltpFR	3	14	1	SALIVA	1226	n/a	n/a	0	0.422607421875	0.5869140625	0	lower	zerothre.ttf
2498045	WORD	wordpools/wasnorm_wordpool.txt	LTP073	ltpFR	3	14	1	TOOTHBRUSH	1482	n/a	n/a	0	0.422607421875	0.5869140625	0	lower	zerothre.ttf
2502196	WORD	wordpools/wasnorm_wordpool.txt	LTP073	ltpFR	3	14	1	BEAST	108	n/a	n/a	1	0.422607421875	0.5869140625	0	lower	zerothre.ttf
2506304	WORD	wordpools/wasnorm_wordpool.txt	LTP073	ltpFR	3	14	1	REPTILE	1185	n/a	n/a	1	0.422607421875	0.5869140625	0	lower	zerothre.ttf
2510253	WORD	wordpools/wasnorm_wordpool.txt	LTP073	ltpFR	3	14	1	ALLIGATOR	16	n/a	n/a	1	0.422607421875	0.5869140625	0	lower	zerothre.ttf
2514361	WORD	wordpools/wasnorm_wordpool.txt	LTP073	ltpFR	3	14	1	FILM	565	n/a	n/a	0	0.422607421875	0.5869140625	0	lower	zerothre.ttf
2518186	WORD	wordpools/wasnorm_wordpool.txt	LTP073	ltpFR	3	14	1	POPCORN	1104	n/a	n/a	0	0.422607421875	0.5869140625	0	lower	zerothre.ttf
2522169	WORD	wordpools/wasnorm_wordpool.txt	LTP073	ltpFR	3	14	1	SWAN	1417	n/a	n/a	1	0.422607421875	0.5869140625	0	lower	zerothre.ttf
2526302	WORD	wordpools/wasnorm_wordpool.txt	LTP073	ltpFR	3	14	1	SLEEVE	1324	n/a	n/a	0	0.422607421875	0.5869140625	0	lower	zerothre.ttf
2530452	WORD	wordpools/wasnorm_wordpool.txt	LTP073	ltpFR	3	14	1	SHACK	1273	n/a	n/a	0	0.422607421875	0.5869140625	0	lower	zerothre.ttf
2534652	WORD	wordpools/wasnorm_wordpool.txt	LTP073	ltpFR	3	14	1	SCARECROW	1245	n/a	n/a	0	0.422607421875	0.5869140625	0	lower	zerothre.ttf
2538501	WORD	wordpools/wasnorm_wordpool.txt	LTP073	ltpFR	3	14	1	BUN	197	n/a	n/a	0	0.422607421875	0.5869140625	0	lower	zerothre.ttf
2544368	REC_START	n/a	LTP073	ltpFR	3	14	n/a	n/a	n/a	n/a	n/a	n/a	n/a	n/a	n/a	n/a	n/a
2545138	REC_WORD	wordpools/wasnorm_wordpool.txt	LTP073	ltpFR	3	14	1	BUN	197	n/a	n/a	0	n/a	n/a	n/a	n/a	n/a
2545795	REC_WORD	wordpools/wasnorm_wordpool.txt	LTP073	ltpFR	3	14	1	SCARECROW	1245	n/a	n/a	0	n/a	n/a	n/a	n/a	n/a
2546905	REC_WORD	wordpools/wasnorm_wordpool.txt	LTP073	ltpFR	3	14	1	SHACK	1273	n/a	n/a	0	n/a	n/a	n/a	n/a	n/a
2548299	REC_WORD	wordpools/wasnorm_wordpool.txt	LTP073	ltpFR	3	14	1	WOLF	1619	n/a	n/a	1	n/a	n/a	n/a	n/a	n/a
2549192	REC_WORD	wordpools/wasnorm_wordpool.txt	LTP073	ltpFR	3	14	1	LOAF	835	n/a	n/a	0	n/a	n/a	n/a	n/a	n/a
2551217	REC_WORD	wordpools/wasnorm_wordpool.txt	LTP073	ltpFR	3	14	1	ALLIGATOR	16	n/a	n/a	1	n/a	n/a	n/a	n/a	n/a
2552289	REC_WORD	wordpools/wasnorm_wordpool.txt	LTP073	ltpFR	3	14	1	REPTILE	1185	n/a	n/a	1	n/a	n/a	n/a	n/a	n/a
2553432	REC_WORD	wordpools/wasnorm_wordpool.txt	LTP073	ltpFR	3	14	1	SWAN	1417	n/a	n/a	1	n/a	n/a	n/a	n/a	n/a
2559858	REC_WORD	wordpools/wasnorm_wordpool.txt	LTP073	ltpFR	3	14	1	POPCORN	1104	n/a	n/a	0	n/a	n/a	n/a	n/a	n/a
2560726	REC_WORD	wordpools/wasnorm_wordpool.txt	LTP073	ltpFR	3	14	1	FILM	565	n/a	n/a	0	n/a	n/a	n/a	n/a	n/a
2591027	REC_WORD	wordpools/wasnorm_wordpool.txt	LTP073	ltpFR	3	14	1	BEAST	108	n/a	n/a	1	n/a	n/a	n/a	n/a	n/a
2626620	WORD	wordpools/wasnorm_wordpool.txt	LTP073	ltpFR	3	15	1	MASK	876	n/a	n/a	0	0.422607421875	0.5869140625	0	lower	zerothre.ttf
2630795	WORD	wordpools/wasnorm_wordpool.txt	LTP073	ltpFR	3	15	1	DANDRUFF	439	n/a	n/a	0	0.422607421875	0.5869140625	0	lower	zerothre.ttf
2634860	WORD	wordpools/wasnorm_wordpool.txt	LTP073	ltpFR	3	15	1	OATMEAL	967	n/a	n/a	0	0.422607421875	0.5869140625	0	lower	zerothre.ttf
2638901	WORD	wordpools/wasnorm_wordpool.txt	LTP073	ltpFR	3	15	1	PIRATE	1074	n/a	n/a	1	0.422607421875	0.5869140625	0	lower	zerothre.ttf
2642959	WORD	wordpools/wasnorm_wordpool.txt	LTP073	ltpFR	3	15	1	ANCESTOR	20	n/a	n/a	1	0.422607421875	0.5869140625	0	lower	zerothre.ttf
2647018	WORD	wordpools/wasnorm_wordpool.txt	LTP073	ltpFR	3	15	1	AUNT	60	n/a	n/a	1	0.422607421875	0.5869140625	0	lower	zerothre.ttf
2651177	WORD	wordpools/wasnorm_wordpool.txt	LTP073	ltpFR	3	15	1	BARK	87	n/a	n/a	0	0.422607421875	0.5869140625	0	lower	zerothre.ttf
2655168	WORD	wordpools/wasnorm_wordpool.txt	LTP073	ltpFR	3	15	1	PAN	1008	n/a	n/a	0	0.422607421875	0.5869140625	0	lower	zerothre.ttf
2659343	WORD	wordpools/wasnorm_wordpool.txt	LTP073	ltpFR	3	15	1	JUDGE	761	n/a	n/a	1	0.422607421875	0.5869140625	0	lower	zerothre.ttf
2663417	WORD	wordpools/wasnorm_wordpool.txt	LTP073	ltpFR	3	15	1	OZONE	996	n/a	n/a	0	0.422607421875	0.5869140625	0	lower	zerothre.ttf
2667534	WORD	wordpools/wasnorm_wordpool.txt	LTP073	ltpFR	3	15	1	FOX	598	n/a	n/a	1	0.422607421875	0.5869140625	0	lower	zerothre.ttf
2671375	WORD	wordpools/wasnorm_wordpool.txt	LTP073	ltpFR	3	15	1	NEUTRON	947	n/a	n/a	1	0.422607421875	0.5869140625	0	lower	zerothre.ttf
2675200	WORD	wordpools/wasnorm_wordpool.txt	LTP073	ltpFR	3	15	1	DECK	443	n/a	n/a	0	0.422607421875	0.5869140625	0	lower	zerothre.ttf
2679300	WORD	wordpools/wasnorm_wordpool.txt	LTP073	ltpFR	3	15	1	PIT	1077	n/a	n/a	0	0.422607421875	0.5869140625	0	lower	zerothre.ttf
2683233	WORD	wordpools/wasnorm_wordpool.txt	LTP073	ltpFR	3	15	1	COURSE	390	n/a	n/a	0	0.422607421875	0.5869140625	0	lower	zerothre.ttf
2687282	WORD	wordpools/wasnorm_wordpool.txt	LTP073	ltpFR	3	15	1	CLASS	318	n/a	n/a	0	0.422607421875	0.5869140625	0	lower	zerothre.ttf
2693124	REC_START	n/a	LTP073	ltpFR	3	15	n/a	n/a	n/a	n/a	n/a	n/a	n/a	n/a	n/a	n/a	n/a
2694047	REC_WORD	wordpools/wasnorm_wordpool.txt	LTP073	ltpFR	3	15	1	COURSE	390	n/a	n/a	0	n/a	n/a	n/a	n/a	n/a
2694815	REC_WORD	wordpools/wasnorm_wordpool.txt	LTP073	ltpFR	3	15	1	CLASS	318	n/a	n/a	0	n/a	n/a	n/a	n/a	n/a
2695703	REC_WORD	wordpools/wasnorm_wordpool.txt	LTP073	ltpFR	3	15	1	DECK	443	n/a	n/a	0	n/a	n/a	n/a	n/a	n/a
2696431	REC_WORD	wordpools/wasnorm_wordpool.txt	LTP073	ltpFR	3	15	1	PIT	1077	n/a	n/a	0	n/a	n/a	n/a	n/a	n/a
2697808	REC_WORD	wordpools/wasnorm_wordpool.txt	LTP073	ltpFR	3	15	1	PIRATE	1074	n/a	n/a	1	n/a	n/a	n/a	n/a	n/a
2698716	REC_WORD	wordpools/wasnorm_wordpool.txt	LTP073	ltpFR	3	15	1	AUNT	60	n/a	n/a	1	n/a	n/a	n/a	n/a	n/a
2699534	REC_WORD	wordpools/wasnorm_wordpool.txt	LTP073	ltpFR	3	15	1	ANCESTOR	20	n/a	n/a	1	n/a	n/a	n/a	n/a	n/a
2701390	REC_WORD	wordpools/wasnorm_wordpool.txt	LTP073	ltpFR	3	15	1	DANDRUFF	439	n/a	n/a	0	n/a	n/a	n/a	n/a	n/a
2702208	REC_WORD	wordpools/wasnorm_wordpool.txt	LTP073	ltpFR	3	15	1	MASK	876	n/a	n/a	0	n/a	n/a	n/a	n/a	n/a
2707057	REC_WORD	wordpools/wasnorm_wordpool.txt	LTP073	ltpFR	3	15	1	FOX	598	n/a	n/a	1	n/a	n/a	n/a	n/a	n/a
2716965	REC_WORD	wordpools/wasnorm_wordpool.txt	LTP073	ltpFR	3	15	1	OZONE	996	n/a	n/a	0	n/a	n/a	n/a	n/a	n/a
2781134	WORD	wordpools/wasnorm_wordpool.txt	LTP073	ltpFR	3	16	-1	SEAL	1262	n/a	n/a	-1	1.0	1.0	1	upper	Verdana.ttf
2785125	WORD	wordpools/wasnorm_wordpool.txt	LTP073	ltpFR	3	16	-1	WHISTLE	1606	n/a	n/a	-1	1.0	1.0	1	upper	Verdana.ttf
2789117	WORD	wordpools/wasnorm_wordpool.txt	LTP073	ltpFR	3	16	-1	FOLDER	588	n/a	n/a	-1	1.0	1.0	1	upper	Verdana.ttf
2793275	WORD	wordpools/wasnorm_wordpool.txt	LTP073	ltpFR	3	16	-1	SLUG	1329	n/a	n/a	-1	1.0	1.0	1	upper	Verdana.ttf
2797366	WORD	wordpools/wasnorm_wordpool.txt	LTP073	ltpFR	3	16	-1	CREATURE	403	n/a	n/a	-1	1.0	1.0	1	upper	Verdana.ttf
2801491	WORD	wordpools/wasnorm_wordpool.txt	LTP073	ltpFR	3	16	-1	LIP	828	n/a	n/a	-1	1.0	1.0	1	upper	Verdana.ttf
2805565	WORD	wordpools/wasnorm_wordpool.txt	LTP073	ltpFR	3	16	-1	PAD	998	n/a	n/a	-1	1.0	1.0	1	upper	Verdana.ttf
2809457	WORD	wordpools/wasnorm_wordpool.txt	LTP073	ltpFR	3	16	-1	SCOUT	1252	n/a	n/a	-1	1.0	1.0	1	upper	Verdana.ttf
2813473	WORD	wordpools/wasnorm_wordpool.txt	LTP073	ltpFR	3	16	-1	CHEERLEADER	288	n/a	n/a	-1	1.0	1.0	1	upper	Verdana.ttf
2817481	WORD	wordpools/wasnorm_wordpool.txt	LTP073	ltpFR	3	16	-1	CUSHION	428	n/a	n/a	-1	1.0	1.0	1	upper	Verdana.ttf
2821606	WORD	wordpools/wasnorm_wordpool.txt	LTP073	ltpFR	3	16	-1	STY	1397	n/a	n/a	-1	1.0	1.0	1	upper	Verdana.ttf
2825489	WORD	wordpools/wasnorm_wordpool.txt	LTP073	ltpFR	3	16	-1	EYE	545	n/a	n/a	-1	1.0	1.0	1	upper	Verdana.ttf
2829364	WORD	wordpools/wasnorm_wordpool.txt	LTP073	ltpFR	3	16	-1	DISH	474	n/a	n/a	-1	1.0	1.0	1	upper	Verdana.ttf
2833363	WORD	wordpools/wasnorm_wordpool.txt	LTP073	ltpFR	3	16	-1	GLASS	639	n/a	n/a	-1	1.0	1.0	1	upper	Verdana.ttf
2837463	WORD	wordpools/wasnorm_wordpool.txt	LTP073	ltpFR	3	16	-1	SOAP	1337	n/a	n/a	-1	1.0	1.0	1	upper	Verdana.ttf
2841504	WORD	wordpools/wasnorm_wordpool.txt	LTP073	ltpFR	3	16	-1	BEAVER	109	n/a	n/a	-1	1.0	1.0	1	upper	Verdana.ttf
2847196	REC_START	n/a	LTP073	ltpFR	3	16	n/a	n/a	n/a	n/a	n/a	n/a	n/a	n/a	n/a	n/a	n/a
2848139	REC_WORD	wordpools/wasnorm_wordpool.txt	LTP073	ltpFR	3	16	-1	BEAVER	109	n/a	n/a	-1	n/a	n/a	n/a	n/a	n/a
2849027	REC_WORD	wordpools/wasnorm_wordpool.txt	LTP073	ltpFR	3	16	-1	SOAP	1337	n/a	n/a	-1	n/a	n/a	n/a	n/a	n/a
2849855	REC_WORD	wordpools/wasnorm_wordpool.txt	LTP073	ltpFR	3	16	-1	DISH	474	n/a	n/a	-1	n/a	n/a	n/a	n/a	n/a
2850483	REC_WORD	wordpools/wasnorm_wordpool.txt	LTP073	ltpFR	3	16	-1	GLASS	639	n/a	n/a	-1	n/a	n/a	n/a	n/a	n/a
2851401	REC_WORD	wordpools/wasnorm_wordpool.txt	LTP073	ltpFR	3	16	n/a	SKY	-1	n/a	n/a	n/a	n/a	n/a	n/a	n/a	n/a
2852469	REC_WORD	wordpools/wasnorm_wordpool.txt	LTP073	ltpFR	3	16	n/a	HIGH	-1	n/a	n/a	n/a	n/a	n/a	n/a	n/a	n/a
2855931	REC_WORD	wordpools/wasnorm_wordpool.txt	LTP073	ltpFR	3	16	-1	SLUG	1329	n/a	n/a	-1	n/a	n/a	n/a	n/a	n/a
2857891	REC_WORD	wordpools/wasnorm_wordpool.txt	LTP073	ltpFR	3	16	-1	SEAL	1262	n/a	n/a	-1	n/a	n/a	n/a	n/a	n/a
2859144	REC_WORD	wordpools/wasnorm_wordpool.txt	LTP073	ltpFR	3	16	-1	WHISTLE	1606	n/a	n/a	-1	n/a	n/a	n/a	n/a	n/a
2860281	REC_WORD	wordpools/wasnorm_wordpool.txt	LTP073	ltpFR	3	16	-1	CREATURE	403	n/a	n/a	-1	n/a	n/a	n/a	n/a	n/a
2861937	REC_WORD	wordpools/wasnorm_wordpool.txt	LTP073	ltpFR	3	16	-1	PAD	998	n/a	n/a	-1	n/a	n/a	n/a	n/a	n/a
2863085	REC_WORD	wordpools/wasnorm_wordpool.txt	LTP073	ltpFR	3	16	-1	CUSHION	428	n/a	n/a	-1	n/a	n/a	n/a	n/a	n/a
2950181	REC_START	n/a	LTP073	ltpFR	3	1	n/a	n/a	n/a	n/a	n/a	n/a	n/a	n/a	n/a	n/a	n/a
2950213	RECOG_TARGET	n/a	LTP073	ltpFR	3	1	0	ROBIN	1199	1	2	0	n/a	n/a	n/a	n/a	n/a
2951902	RECOG_RESP	n/a	LTP073	ltpFR	3	1	0	ROBIN	1199	1	n/a	0	n/a	n/a	n/a	n/a	n/a
2954187	RECOG_CONF	n/a	LTP073	ltpFR	3	1	0	ROBIN	1199	n/a	2	0	n/a	n/a	n/a	n/a	n/a
2955937	RECOG_TARGET	n/a	LTP073	ltpFR	3	1	1	SCARECROW	1245	1	5	0	n/a	n/a	n/a	n/a	n/a
2956896	RECOG_RESP	n/a	LTP073	ltpFR	3	1	1	SCARECROW	1245	1	n/a	0	n/a	n/a	n/a	n/a	n/a
2958128	RECOG_CONF	n/a	LTP073	ltpFR	3	1	1	SCARECROW	1245	n/a	5	0	n/a	n/a	n/a	n/a	n/a
2959738	RECOG_LURE	n/a	LTP073	ltpFR	3	1	n/a	CANDIDATE	228	0	2	n/a	n/a	n/a	n/a	n/a	n/a
2961006	RECOG_RESP	n/a	LTP073	ltpFR	3	1	n/a	CANDIDATE	228	0	n/a	n/a	n/a	n/a	n/a	n/a	n/a
2962238	RECOG_CONF	n/a	LTP073	ltpFR	3	1	n/a	CANDIDATE	228	n/a	2	n/a	n/a	n/a	n/a	n/a	n/a
2963737	RECOG_TARGET	n/a	LTP073	ltpFR	3	1	-1	EYE	545	1	5	-1	n/a	n/a	n/a	n/a	n/a
2964977	RECOG_RESP	n/a	LTP073	ltpFR	3	1	-1	EYE	545	1	n/a	-1	n/a	n/a	n/a	n/a	n/a
2965810	RECOG_CONF	n/a	LTP073	ltpFR	3	1	-1	EYE	545	n/a	5	-1	n/a	n/a	n/a	n/a	n/a
2967554	RECOG_TARGET	n/a	LTP073	ltpFR	3	1	-1	PAD	998	1	5	-1	n/a	n/a	n/a	n/a	n/a
2968414	RECOG_RESP	n/a	LTP073	ltpFR	3	1	-1	PAD	998	1	n/a	-1	n/a	n/a	n/a	n/a	n/a
2969312	RECOG_CONF	n/a	LTP073	ltpFR	3	1	-1	PAD	998	n/a	5	-1	n/a	n/a	n/a	n/a	n/a
2970969	RECOG_TARGET	n/a	LTP073	ltpFR	3	1	1	SKILLET	1317	0	3	0	n/a	n/a	n/a	n/a	n/a
2972166	RECOG_RESP	n/a	LTP073	ltpFR	3	1	1	SKILLET	1317	0	n/a	0	n/a	n/a	n/a	n/a	n/a
2973692	RECOG_CONF	n/a	LTP073	ltpFR	3	1	1	SKILLET	1317	n/a	3	0	n/a	n/a	n/a	n/a	n/a
2975270	RECOG_TARGET	n/a	LTP073	ltpFR	3	1	1	PIKE	1067	1	5	0	n/a	n/a	n/a	n/a	n/a
2976187	RECOG_RESP	n/a	LTP073	ltpFR	3	1	1	PIKE	1067	1	n/a	0	n/a	n/a	n/a	n/a	n/a
2977174	RECOG_CONF	n/a	LTP073	ltpFR	3	1	1	PIKE	1067	n/a	5	0	n/a	n/a	n/a	n/a	n/a
2978811	RECOG_TARGET	n/a	LTP073	ltpFR	3	1	0	BIRD	129	1	5	0	n/a	n/a	n/a	n/a	n/a
2979868	RECOG_RESP	n/a	LTP073	ltpFR	3	1	0	BIRD	129	1	n/a	0	n/a	n/a	n/a	n/a	n/a
2980846	RECOG_CONF	n/a	LTP073	ltpFR	3	1	0	BIRD	129	n/a	5	0	n/a	n/a	n/a	n/a	n/a
2982419	RECOG_LURE	n/a	LTP073	ltpFR	3	1	n/a	UNIVERSE	1540	0	3	n/a	n/a	n/a	n/a	n/a	n/a
2983370	RECOG_RESP	n/a	LTP073	ltpFR	3	1	n/a	UNIVERSE	1540	0	n/a	n/a	n/a	n/a	n/a	n/a	n/a
2984338	RECOG_CONF	n/a	LTP073	ltpFR	3	1	n/a	UNIVERSE	1540	n/a	3	n/a	n/a	n/a	n/a	n/a	n/a
2985960	RECOG_TARGET	n/a	LTP073	ltpFR	3	1	0	CATHEDRAL	260	1	5	1	n/a	n/a	n/a	n/a	n/a
2986808	RECOG_RESP	n/a	LTP073	ltpFR	3	1	0	CATHEDRAL	260	1	n/a	1	n/a	n/a	n/a	n/a	n/a
2987790	RECOG_CONF	n/a	LTP073	ltpFR	3	1	0	CATHEDRAL	260	n/a	5	1	n/a	n/a	n/a	n/a	n/a
2989452	RECOG_TARGET	n/a	LTP073	ltpFR	3	1	0	PAPER	1011	1	4	0	n/a	n/a	n/a	n/a	n/a
2990464	RECOG_RESP	n/a	LTP073	ltpFR	3	1	0	PAPER	1011	1	n/a	0	n/a	n/a	n/a	n/a	n/a
2991662	RECOG_CONF	n/a	LTP073	ltpFR	3	1	0	PAPER	1011	n/a	4	0	n/a	n/a	n/a	n/a	n/a
2993235	RECOG_TARGET	n/a	LTP073	ltpFR	3	1	-1	BIOLOGIST	128	0	3	-1	n/a	n/a	n/a	n/a	n/a
2994455	RECOG_RESP	n/a	LTP073	ltpFR	3	1	-1	BIOLOGIST	128	0	n/a	-1	n/a	n/a	n/a	n/a	n/a
2995473	RECOG_CONF	n/a	LTP073	ltpFR	3	1	-1	BIOLOGIST	128	n/a	3	-1	n/a	n/a	n/a	n/a	n/a
2996967	RECOG_LURE	n/a	LTP073	ltpFR	3	1	n/a	CHILD	299	1	3	n/a	n/a	n/a	n/a	n/a	n/a
2998586	RECOG_RESP	n/a	LTP073	ltpFR	3	1	n/a	CHILD	299	1	n/a	n/a	n/a	n/a	n/a	n/a	n/a
2999743	RECOG_CONF	n/a	LTP073	ltpFR	3	1	n/a	CHILD	299	n/a	3	n/a	n/a	n/a	n/a	n/a	n/a
3001309	RECOG_TARGET	n/a	LTP073	ltpFR	3	1	0	TIMBER	1469	1	5	1	n/a	n/a	n/a	n/a	n/a
3002233	RECOG_RESP	n/a	LTP073	ltpFR	3	1	0	TIMBER	1469	1	n/a	1	n/a	n/a	n/a	n/a	n/a
3003265	RECOG_CONF	n/a	LTP073	ltpFR	3	1	0	TIMBER	1469	n/a	5	1	n/a	n/a	n/a	n/a	n/a
3004942	RECOG_LURE	n/a	LTP073	ltpFR	3	1	n/a	HAWK	692	0	3	n/a	n/a	n/a	n/a	n/a	n/a
3006009	RECOG_RESP	n/a	LTP073	ltpFR	3	1	n/a	HAWK	692	0	n/a	n/a	n/a	n/a	n/a	n/a	n/a
3006957	RECOG_CONF	n/a	LTP073	ltpFR	3	1	n/a	HAWK	692	n/a	3	n/a	n/a	n/a	n/a	n/a	n/a
3008401	RECOG_TARGET	n/a	LTP073	ltpFR	3	1	0	SPOON	1357	1	5	0	n/a	n/a	n/a	n/a	n/a
3009661	RECOG_RESP	n/a	LTP073	ltpFR	3	1	0	SPOON	1357	1	n/a	0	n/a	n/a	n/a	n/a	n/a
3010618	RECOG_CONF	n/a	LTP073	ltpFR	3	1	0	SPOON	1357	n/a	5	0	n/a	n/a	n/a	n/a	n/a
3012300	RECOG_TARGET	n/a	LTP073	ltpFR	3	1	-1	KIDNEY	776	1	5	-1	n/a	n/a	n/a	n/a	n/a
3013272	RECOG_RESP	n/a	LTP073	ltpFR	3	1	-1	KIDNEY	776	1	n/a	-1	n/a	n/a	n/a	n/a	n/a
3014370	RECOG_CONF	n/a	LTP073	ltpFR	3	1	-1	KIDNEY	776	n/a	5	-1	n/a	n/a	n/a	n/a	n/a
3016158	RECOG_TARGET	n/a	LTP073	ltpFR	3	1	-1	ATTIRE	57	1	5	-1	n/a	n/a	n/a	n/a	n/a
3017134	RECOG_RESP	n/a	LTP073	ltpFR	3	1	-1	ATTIRE	57	1	n/a	-1	n/a	n/a	n/a	n/a	n/a
3018171	RECOG_CONF	n/a	LTP073	ltpFR	3	1	-1	ATTIRE	57	n/a	5	-1	n/a	n/a	n/a	n/a	n/a
3019957	RECOG_TARGET	n/a	LTP073	ltpFR	3	1	-1	DIRT	472	1	5	-1	n/a	n/a	n/a	n/a	n/a
3020760	RECOG_RESP	n/a	LTP073	ltpFR	3	1	-1	DIRT	472	1	n/a	-1	n/a	n/a	n/a	n/a	n/a
3021813	RECOG_CONF	n/a	LTP073	ltpFR	3	1	-1	DIRT	472	n/a	5	-1	n/a	n/a	n/a	n/a	n/a
3023483	RECOG_TARGET	n/a	LTP073	ltpFR	3	1	1	CHURCH	307	0	2	0	n/a	n/a	n/a	n/a	n/a
3025664	RECOG_RESP	n/a	LTP073	ltpFR	3	1	1	CHURCH	307	0	n/a	0	n/a	n/a	n/a	n/a	n/a
3026702	RECOG_CONF	n/a	LTP073	ltpFR	3	1	1	CHURCH	307	n/a	2	0	n/a	n/a	n/a	n/a	n/a
3036952	REC_START	n/a	LTP073	ltpFR	3	2	n/a	n/a	n/a	n/a	n/a	n/a	n/a	n/a	n/a	n/a	n/a
3036981	RECOG_TARGET	n/a	LTP073	ltpFR	3	2	1	RUST	1219	1	5	0	n/a	n/a	n/a	n/a	n/a
3037905	RECOG_RESP	n/a	LTP073	ltpFR	3	2	1	RUST	1219	1	n/a	0	n/a	n/a	n/a	n/a	n/a
3039042	RECOG_CONF	n/a	LTP073	ltpFR	3	2	1	RUST	1219	n/a	5	0	n/a	n/a	n/a	n/a	n/a
3040623	RECOG_TARGET	n/a	LTP073	ltpFR	3	2	1	WALRUS	1585	0	5	1	n/a	n/a	n/a	n/a	n/a
3041656	RECOG_RESP	n/a	LTP073	ltpFR	3	2	1	WALRUS	1585	0	n/a	1	n/a	n/a	n/a	n/a	n/a
3042504	RECOG_CONF	n/a	LTP073	ltpFR	3	2	1	WALRUS	1585	n/a	5	1	n/a	n/a	n/a	n/a	n/a
3044014	RECOG_LURE	n/a	LTP073	ltpFR	3	2	n/a	MATCH	878	0	3	n/a	n/a	n/a	n/a	n/a	n/a
3045413	RECOG_RESP	n/a	LTP073	ltpFR	3	2	n/a	MATCH	878	0	n/a	n/a	n/a	n/a	n/a	n/a	n/a
3046246	RECOG_CONF	n/a	LTP073	ltpFR	3	2	n/a	MATCH	878	n/a	3	n/a	n/a	n/a	n/a	n/a	n/a
3047764	RECOG_TARGET	n/a	LTP073	ltpFR	3	2	0	REEF	1177	1	5	1	n/a	n/a	n/a	n/a	n/a
3048860	RECOG_RESP	n/a	LTP073	ltpFR	3	2	0	REEF	1177	1	n/a	1	n/a	n/a	n/a	n/a	n/a
3049618	RECOG_CONF	n/a	LTP073	ltpFR	3	2	0	REEF	1177	n/a	5	1	n/a	n/a	n/a	n/a	n/a
3051214	RECOG_TARGET	n/a	LTP073	ltpFR	3	2	-1	WAVE	1596	1	1	-1	n/a	n/a	n/a	n/a	n/a
3052911	RECOG_RESP	n/a	LTP073	ltpFR	3	2	-1	WAVE	1596	1	n/a	-1	n/a	n/a	n/a	n/a	n/a
3054068	RECOG_CONF	n/a	LTP073	ltpFR	3	2	-1	WAVE	1596	n/a	1	-1	n/a	n/a	n/a	n/a	n/a
3055622	RECOG_TARGET	n/a	LTP073	ltpFR	3	2	1	CHIEF	298	1	3	1	n/a	n/a	n/a	n/a	n/a
3056697	RECOG_RESP	n/a	LTP073	ltpFR	3	2	1	CHIEF	298	1	n/a	1	n/a	n/a	n/a	n/a	n/a
3057560	RECOG_CONF	n/a	LTP073	ltpFR	3	2	1	CHIEF	298	n/a	3	1	n/a	n/a	n/a	n/a	n/a
3059046	RECOG_TARGET	n/a	LTP073	ltpFR	3	2	0	ORGAN	984	1	5	0	n/a	n/a	n/a	n/a	n/a
3060104	RECOG_RESP	n/a	LTP073	ltpFR	3	2	0	ORGAN	984	1	n/a	0	n/a	n/a	n/a	n/a	n/a
3060972	RECOG_CONF	n/a	LTP073	ltpFR	3	2	0	ORGAN	984	n/a	5	0	n/a	n/a	n/a	n/a	n/a
3062380	RECOG_TARGET	n/a	LTP073	ltpFR	3	2	0	BOXER	160	1	5	1	n/a	n/a	n/a	n/a	n/a
3063107	RECOG_RESP	n/a	LTP073	ltpFR	3	2	0	BOXER	160	1	n/a	1	n/a	n/a	n/a	n/a	n/a
3064245	RECOG_CONF	n/a	LTP073	ltpFR	3	2	0	BOXER	160	n/a	5	1	n/a	n/a	n/a	n/a	n/a
3065771	RECOG_TARGET	n/a	LTP073	ltpFR	3	2	-1	CHAMPAGNE	278	1	5	-1	n/a	n/a	n/a	n/a	n/a
3066570	RECOG_RESP	n/a	LTP073	ltpFR	3	2	-1	CHAMPAGNE	278	1	n/a	-1	n/a	n/a	n/a	n/a	n/a
3067378	RECOG_CONF	n/a	LTP073	ltpFR	3	2	-1	CHAMPAGNE	278	n/a	5	-1	n/a	n/a	n/a	n/a	n/a
3068862	RECOG_TARGET	n/a	LTP073	ltpFR	3	2	1	PIRATE	1074	1	5	1	n/a	n/a	n/a	n/a	n/a
3069558	RECOG_RESP	n/a	LTP073	ltpFR	3	2	1	PIRATE	1074	1	n/a	1	n/a	n/a	n/a	n/a	n/a
3070281	RECOG_CONF	n/a	LTP073	ltpFR	3	2	1	PIRATE	1074	n/a	5	1	n/a	n/a	n/a	n/a	n/a
3071788	RECOG_LURE	n/a	LTP073	ltpFR	3	2	n/a	DRINK	498	0	2	n/a	n/a	n/a	n/a	n/a	n/a
3072845	RECOG_RESP	n/a	LTP073	ltpFR	3	2	n/a	DRINK	498	0	n/a	n/a	n/a	n/a	n/a	n/a	n/a
3074062	RECOG_CONF	n/a	LTP073	ltpFR	3	2	n/a	DRINK	498	n/a	2	n/a	n/a	n/a	n/a	n/a	n/a
3075571	RECOG_LURE	n/a	LTP073	ltpFR	3	2	n/a	PERCH	1048	1	3	n/a	n/a	n/a	n/a	n/a	n/a
3076716	RECOG_RESP	n/a	LTP073	ltpFR	3	2	n/a	PERCH	1048	1	n/a	n/a	n/a	n/a	n/a	n/a	n/a
3078472	RECOG_CONF	n/a	LTP073	ltpFR	3	2	n/a	PERCH	1048	n/a	3	n/a	n/a	n/a	n/a	n/a	n/a
3079978	RECOG_TARGET	n/a	LTP073	ltpFR	3	2	-1	CHERRY	293	1	5	-1	n/a	n/a	n/a	n/a	n/a
3080697	RECOG_RESP	n/a	LTP073	ltpFR	3	2	-1	CHERRY	293	1	n/a	-1	n/a	n/a	n/a	n/a	n/a
3081575	RECOG_CONF	n/a	LTP073	ltpFR	3	2	-1	CHERRY	293	n/a	5	-1	n/a	n/a	n/a	n/a	n/a
3083104	RECOG_TARGET	n/a	LTP073	ltpFR	3	2	1	MOLECULE	905	1	3	1	n/a	n/a	n/a	n/a	n/a
3084609	RECOG_RESP	n/a	LTP073	ltpFR	3	2	1	MOLECULE	905	1	n/a	1	n/a	n/a	n/a	n/a	n/a
3085806	RECOG_CONF	n/a	LTP073	ltpFR	3	2	1	MOLECULE	905	n/a	3	1	n/a	n/a	n/a	n/a	n/a
3087370	RECOG_TARGET	n/a	LTP073	ltpFR	3	2	-1	STAKE	1368	1	5	-1	n/a	n/a	n/a	n/a	n/a
3088350	RECOG_RESP	n/a	LTP073	ltpFR	3	2	-1	STAKE	1368	1	n/a	-1	n/a	n/a	n/a	n/a	n/a
3089058	RECOG_CONF	n/a	LTP073	ltpFR	3	2	-1	STAKE	1368	n/a	5	-1	n/a	n/a	n/a	n/a	n/a
3090811	RECOG_TARGET	n/a	LTP073	ltpFR	3	2	-1	INCENSE	735	1	3	-1	n/a	n/a	n/a	n/a	n/a
3092067	RECOG_RESP	n/a	LTP073	ltpFR	3	2	-1	INCENSE	735	1	n/a	-1	n/a	n/a	n/a	n/a	n/a
3093069	RECOG_CONF	n/a	LTP073	ltpFR	3	2	-1	INCENSE	735	n/a	3	-1	n/a	n/a	n/a	n/a	n/a
3094578	RECOG_LURE	n/a	LTP073	ltpFR	3	2	n/a	SENATOR	1268	0	2	n/a	n/a	n/a	n/a	n/a	n/a
3095623	RECOG_RESP	n/a	LTP073	ltpFR	3	2	n/a	SENATOR	1268	0	n/a	n/a	n/a	n/a	n/a	n/a	n/a
3096781	RECOG_CONF	n/a	LTP073	ltpFR	3	2	n/a	SENATOR	1268	n/a	2	n/a	n/a	n/a	n/a	n/a	n/a
3098319	RECOG_TARGET	n/a	LTP073	ltpFR	3	2	1	COURSE	390	1	5	0	n/a	n/a	n/a	n/a	n/a
3099200	RECOG_RESP	n/a	LTP073	ltpFR	3	2	1	COURSE	390	1	n/a	0	n/a	n/a	n/a	n/a	n/a
3100004	RECOG_CONF	n/a	LTP073	ltpFR	3	2	1	COURSE	390	n/a	5	0	n/a	n/a	n/a	n/a	n/a
3101552	RECOG_TARGET	n/a	LTP073	ltpFR	3	2	1	TRIBE	1505	1	2	1	n/a	n/a	n/a	n/a	n/a
3102657	RECOG_RESP	n/a	LTP073	ltpFR	3	2	1	TRIBE	1505	1	n/a	1	n/a	n/a	n/a	n/a	n/a
3103605	RECOG_CONF	n/a	LTP073	ltpFR	3	2	1	TRIBE	1505	n/a	2	1	n/a	n/a	n/a	n/a	n/a
3105144	RECOG_TARGET	n/a	LTP073	ltpFR	3	2	-1	CREATURE	403	1	5	-1	n/a	n/a	n/a	n/a	n/a
3105780	RECOG_RESP	n/a	LTP073	ltpFR	3	2	-1	CREATURE	403	1	n/a	-1	n/a	n/a	n/a	n/a	n/a
3106609	RECOG_CONF	n/a	LTP073	ltpFR	3	2	-1	CREATURE	403	n/a	5	-1	n/a	n/a	n/a	n/a	n/a
3112915	REC_START	n/a	LTP073	ltpFR	3	3	n/a	n/a	n/a	n/a	n/a	n/a	n/a	n/a	n/a	n/a	n/a
3112950	RECOG_TARGET	n/a	LTP073	ltpFR	3	3	0	ROCKET	1202	1	5	1	n/a	n/a	n/a	n/a	n/a
3113903	RECOG_RESP	n/a	LTP073	ltpFR	3	3	0	ROCKET	1202	1	n/a	1	n/a	n/a	n/a	n/a	n/a
3114766	RECOG_CONF	n/a	LTP073	ltpFR	3	3	0	ROCKET	1202	n/a	5	1	n/a	n/a	n/a	n/a	n/a
3116118	RECOG_TARGET	n/a	LTP073	ltpFR	3	3	1	POTATO	1115	1	3	0	n/a	n/a	n/a	n/a	n/a
3117080	RECOG_RESP	n/a	LTP073	ltpFR	3	3	1	POTATO	1115	1	n/a	0	n/a	n/a	n/a	n/a	n/a
3117958	RECOG_CONF	n/a	LTP073	ltpFR	3	3	1	POTATO	1115	n/a	3	0	n/a	n/a	n/a	n/a	n/a
3119318	RECOG_TARGET	n/a	LTP073	ltpFR	3	3	1	COSTUME	383	1	5	0	n/a	n/a	n/a	n/a	n/a
3119859	RECOG_RESP	n/a	LTP073	ltpFR	3	3	1	COSTUME	383	1	n/a	0	n/a	n/a	n/a	n/a	n/a
3120602	RECOG_CONF	n/a	LTP073	ltpFR	3	3	1	COSTUME	383	n/a	5	0	n/a	n/a	n/a	n/a	n/a
3121958	RECOG_TARGET	n/a	LTP073	ltpFR	3	3	0	BROTHER	179	1	5	1	n/a	n/a	n/a	n/a	n/a
3122568	RECOG_RESP	n/a	LTP073	ltpFR	3	3	0	BROTHER	179	1	n/a	1	n/a	n/a	n/a	n/a	n/a
3123276	RECOG_CONF	n/a	LTP073	ltpFR	3	3	0	BROTHER	179	n/a	5	1	n/a	n/a	n/a	n/a	n/a
3124667	RECOG_LURE	n/a	LTP073	ltpFR	3	3	n/a	CLAW	319	0	1	n/a	n/a	n/a	n/a	n/a	n/a
3125501	RECOG_RESP	n/a	LTP073	ltpFR	3	3	n/a	CLAW	319	0	n/a	n/a	n/a	n/a	n/a	n/a	n/a
3126439	RECOG_CONF	n/a	LTP073	ltpFR	3	3	n/a	CLAW	319	n/a	1	n/a	n/a	n/a	n/a	n/a	n/a
3127684	RECOG_TARGET	n/a	LTP073	ltpFR	3	3	-1	HATCHET	691	0	1	-1	n/a	n/a	n/a	n/a	n/a
3128704	RECOG_RESP	n/a	LTP073	ltpFR	3	3	-1	HATCHET	691	0	n/a	-1	n/a	n/a	n/a	n/a	n/a
3129642	RECOG_CONF	n/a	LTP073	ltpFR	3	3	-1	HATCHET	691	n/a	1	-1	n/a	n/a	n/a	n/a	n/a
3130974	RECOG_LURE	n/a	LTP073	ltpFR	3	3	n/a	THICKET	1455	1	3	n/a	n/a	n/a	n/a	n/a	n/a
3132071	RECOG_RESP	n/a	LTP073	ltpFR	3	3	n/a	THICKET	1455	1	n/a	n/a	n/a	n/a	n/a	n/a	n/a
3132994	RECOG_CONF	n/a	LTP073	ltpFR	3	3	n/a	THICKET	1455	n/a	3	n/a	n/a	n/a	n/a	n/a	n/a
3134433	RECOG_TARGET	n/a	LTP073	ltpFR	3	3	1	EUROPE	541	1	3	0	n/a	n/a	n/a	n/a	n/a
3136676	RECOG_RESP	n/a	LTP073	ltpFR	3	3	1	EUROPE	541	1	n/a	0	n/a	n/a	n/a	n/a	n/a
3137614	RECOG_CONF	n/a	LTP073	ltpFR	3	3	1	EUROPE	541	n/a	3	0	n/a	n/a	n/a	n/a	n/a
3139108	RECOG_TARGET	n/a	LTP073	ltpFR	3	3	1	CANNON	232	0	1	0	n/a	n/a	n/a	n/a	n/a
3140896	RECOG_RESP	n/a	LTP073	ltpFR	3	3	1	CANNON	232	0	n/a	0	n/a	n/a	n/a	n/a	n/a
3141664	RECOG_CONF	n/a	LTP073	ltpFR	3	3	1	CANNON	232	n/a	1	0	n/a	n/a	n/a	n/a	n/a
3143066	RECOG_TARGET	n/a	LTP073	ltpFR	3	3	1	SHACK	1273	1	5	0	n/a	n/a	n/a	n/a	n/a
3143770	RECOG_RESP	n/a	LTP073	ltpFR	3	3	1	SHACK	1273	1	n/a	0	n/a	n/a	n/a	n/a	n/a
3144488	RECOG_CONF	n/a	LTP073	ltpFR	3	3	1	SHACK	1273	n/a	5	0	n/a	n/a	n/a	n/a	n/a
3145940	RECOG_TARGET	n/a	LTP073	ltpFR	3	3	1	SERVANT	1271	1	5	1	n/a	n/a	n/a	n/a	n/a
3146942	RECOG_RESP	n/a	LTP073	ltpFR	3	3	1	SERVANT	1271	1	n/a	1	n/a	n/a	n/a	n/a	n/a
3147671	RECOG_CONF	n/a	LTP073	ltpFR	3	3	1	SERVANT	1271	n/a	5	1	n/a	n/a	n/a	n/a	n/a
3149182	RECOG_LURE	n/a	LTP073	ltpFR	3	3	n/a	PERFUME	1049	0	1	n/a	n/a	n/a	n/a	n/a	n/a
3150235	RECOG_RESP	n/a	LTP073	ltpFR	3	3	n/a	PERFUME	1049	0	n/a	n/a	n/a	n/a	n/a	n/a	n/a
3150953	RECOG_CONF	n/a	LTP073	ltpFR	3	3	n/a	PERFUME	1049	n/a	1	n/a	n/a	n/a	n/a	n/a	n/a
3152215	RECOG_TARGET	n/a	LTP073	ltpFR	3	3	0	VIOLA	1570	1	5	0	n/a	n/a	n/a	n/a	n/a
3153039	RECOG_RESP	n/a	LTP073	ltpFR	3	3	0	VIOLA	1570	1	n/a	0	n/a	n/a	n/a	n/a	n/a
3153666	RECOG_CONF	n/a	LTP073	ltpFR	3	3	0	VIOLA	1570	n/a	5	0	n/a	n/a	n/a	n/a	n/a
3155073	RECOG_TARGET	n/a	LTP073	ltpFR	3	3	0	BIBLE	124	1	5	0	n/a	n/a	n/a	n/a	n/a
3155842	RECOG_RESP	n/a	LTP073	ltpFR	3	3	0	BIBLE	124	1	n/a	0	n/a	n/a	n/a	n/a	n/a
3156620	RECOG_CONF	n/a	LTP073	ltpFR	3	3	0	BIBLE	124	n/a	5	0	n/a	n/a	n/a	n/a	n/a
3157997	RECOG_TARGET	n/a	LTP073	ltpFR	3	3	1	ONION	977	1	5	0	n/a	n/a	n/a	n/a	n/a
3158631	RECOG_RESP	n/a	LTP073	ltpFR	3	3	1	ONION	977	1	n/a	0	n/a	n/a	n/a	n/a	n/a
3159394	RECOG_CONF	n/a	LTP073	ltpFR	3	3	1	ONION	977	n/a	5	0	n/a	n/a	n/a	n/a	n/a
3160665	RECOG_TARGET	n/a	LTP073	ltpFR	3	3	1	SUGAR	1401	1	3	0	n/a	n/a	n/a	n/a	n/a
3161450	RECOG_RESP	n/a	LTP073	ltpFR	3	3	1	SUGAR	1401	1	n/a	0	n/a	n/a	n/a	n/a	n/a
3162268	RECOG_CONF	n/a	LTP073	ltpFR	3	3	1	SUGAR	1401	n/a	3	0	n/a	n/a	n/a	n/a	n/a
3163689	RECOG_LURE	n/a	LTP073	ltpFR	3	3	n/a	PLANE	1081	1	3	n/a	n/a	n/a	n/a	n/a	n/a
3164313	RECOG_RESP	n/a	LTP073	ltpFR	3	3	n/a	PLANE	1081	1	n/a	n/a	n/a	n/a	n/a	n/a	n/a
3165161	RECOG_CONF	n/a	LTP073	ltpFR	3	3	n/a	PLANE	1081	n/a	3	n/a	n/a	n/a	n/a	n/a	n/a
3166597	RECOG_LURE	n/a	LTP073	ltpFR	3	3	n/a	EMPLOYER	532	0	1	n/a	n/a	n/a	n/a	n/a	n/a
3167620	RECOG_RESP	n/a	LTP073	ltpFR	3	3	n/a	EMPLOYER	532	0	n/a	n/a	n/a	n/a	n/a	n/a	n/a
3168344	RECOG_CONF	n/a	LTP073	ltpFR	3	3	n/a	EMPLOYER	532	n/a	1	n/a	n/a	n/a	n/a	n/a	n/a
3169739	RECOG_TARGET	n/a	LTP073	ltpFR	3	3	-1	BABY	64	0	1	-1	n/a	n/a	n/a	n/a	n/a
3170639	RECOG_RESP	n/a	LTP073	ltpFR	3	3	-1	BABY	64	0	n/a	-1	n/a	n/a	n/a	n/a	n/a
3171367	RECOG_CONF	n/a	LTP073	ltpFR	3	3	-1	BABY	64	n/a	1	-1	n/a	n/a	n/a	n/a	n/a
3172780	RECOG_LURE	n/a	LTP073	ltpFR	3	3	n/a	MILITARY	894	0	2	n/a	n/a	n/a	n/a	n/a	n/a
3173677	RECOG_RESP	n/a	LTP073	ltpFR	3	3	n/a	MILITARY	894	0	n/a	n/a	n/a	n/a	n/a	n/a	n/a
3174570	RECOG_CONF	n/a	LTP073	ltpFR	3	3	n/a	MILITARY	894	n/a	2	n/a	n/a	n/a	n/a	n/a	n/a
3181307	REC_START	n/a	LTP073	ltpFR	3	4	n/a	n/a	n/a	n/a	n/a	n/a	n/a	n/a	n/a	n/a	n/a
3181338	RECOG_TARGET	n/a	LTP073	ltpFR	3	4	0	UNIFORM	1539	n/a	1	1	n/a	n/a	n/a	n/a	n/a
3186849	RECOG_CONF	n/a	LTP073	ltpFR	3	4	0	UNIFORM	1539	n/a	1	1	n/a	n/a	n/a	n/a	n/a
3188012	RECOG_TARGET	n/a	LTP073	ltpFR	3	4	0	LEG	809	1	3	1	n/a	n/a	n/a	n/a	n/a
3190536	RECOG_RESP	n/a	LTP073	ltpFR	3	4	0	LEG	809	1	n/a	1	n/a	n/a	n/a	n/a	n/a
3193334	RECOG_CONF	n/a	LTP073	ltpFR	3	4	0	LEG	809	n/a	3	1	n/a	n/a	n/a	n/a	n/a
3195011	RECOG_TARGET	n/a	LTP073	ltpFR	3	4	1	HOME	712	1	5	0	n/a	n/a	n/a	n/a	n/a
3195804	RECOG_RESP	n/a	LTP073	ltpFR	3	4	1	HOME	712	1	n/a	0	n/a	n/a	n/a	n/a	n/a
3196617	RECOG_CONF	n/a	LTP073	ltpFR	3	4	1	HOME	712	n/a	5	0	n/a	n/a	n/a	n/a	n/a
3198011	RECOG_LURE	n/a	LTP073	ltpFR	3	4	n/a	SOCK	1339	0	1	n/a	n/a	n/a	n/a	n/a	n/a
3200319	RECOG_RESP	n/a	LTP073	ltpFR	3	4	n/a	SOCK	1339	0	n/a	n/a	n/a	n/a	n/a	n/a	n/a
3201137	RECOG_CONF	n/a	LTP073	ltpFR	3	4	n/a	SOCK	1339	n/a	1	n/a	n/a	n/a	n/a	n/a	n/a
3202520	RECOG_TARGET	n/a	LTP073	ltpFR	3	4	1	BEAST	108	1	5	1	n/a	n/a	n/a	n/a	n/a
3204045	RECOG_RESP	n/a	LTP073	ltpFR	3	4	1	BEAST	108	1	n/a	1	n/a	n/a	n/a	n/a	n/a
3204639	RECOG_CONF	n/a	LTP073	ltpFR	3	4	1	BEAST	108	n/a	5	1	n/a	n/a	n/a	n/a	n/a
3206010	RECOG_TARGET	n/a	LTP073	ltpFR	3	4	1	PIT	1077	1	5	0	n/a	n/a	n/a	n/a	n/a
3207203	RECOG_RESP	n/a	LTP073	ltpFR	3	4	1	PIT	1077	1	n/a	0	n/a	n/a	n/a	n/a	n/a
3207881	RECOG_CONF	n/a	LTP073	ltpFR	3	4	1	PIT	1077	n/a	5	0	n/a	n/a	n/a	n/a	n/a
3209261	RECOG_TARGET	n/a	LTP073	ltpFR	3	4	1	FILM	565	1	5	0	n/a	n/a	n/a	n/a	n/a
3209967	RECOG_RESP	n/a	LTP073	ltpFR	3	4	1	FILM	565	1	n/a	0	n/a	n/a	n/a	n/a	n/a
3210615	RECOG_CONF	n/a	LTP073	ltpFR	3	4	1	FILM	565	n/a	5	0	n/a	n/a	n/a	n/a	n/a
3212094	RECOG_TARGET	n/a	LTP073	ltpFR	3	4	0	PERISCOPE	1050	1	5	1	n/a	n/a	n/a	n/a	n/a
3212875	RECOG_RESP	n/a	LTP073	ltpFR	3	4	0	PERISCOPE	1050	1	n/a	1	n/a	n/a	n/a	n/a	n/a
3213499	RECOG_CONF	n/a	LTP073	ltpFR	3	4	0	PERISCOPE	1050	n/a	5	1	n/a	n/a	n/a	n/a	n/a
3214868	RECOG_TARGET	n/a	LTP073	ltpFR	3	4	-1	MAGNET	855	0	2	-1	n/a	n/a	n/a	n/a	n/a
3219380	RECOG_RESP	n/a	LTP073	ltpFR	3	4	-1	MAGNET	855	0	n/a	-1	n/a	n/a	n/a	n/a	n/a
3220433	RECOG_CONF	n/a	LTP073	ltpFR	3	4	-1	MAGNET	855	n/a	2	-1	n/a	n/a	n/a	n/a	n/a
3221876	RECOG_TARGET	n/a	LTP073	ltpFR	3	4	1	SEASHORE	1263	1	5	0	n/a	n/a	n/a	n/a	n/a
3222668	RECOG_RESP	n/a	LTP073	ltpFR	3	4	1	SEASHORE	1263	1	n/a	0	n/a	n/a	n/a	n/a	n/a
3223266	RECOG_CONF	n/a	LTP073	ltpFR	3	4	1	SEASHORE	1263	n/a	5	0	n/a	n/a	n/a	n/a	n/a
3224693	RECOG_TARGET	n/a	LTP073	ltpFR	3	4	0	GULL	671	0	1	0	n/a	n/a	n/a	n/a	n/a
3225910	RECOG_RESP	n/a	LTP073	ltpFR	3	4	0	GULL	671	0	n/a	0	n/a	n/a	n/a	n/a	n/a
3226599	RECOG_CONF	n/a	LTP073	ltpFR	3	4	0	GULL	671	n/a	1	0	n/a	n/a	n/a	n/a	n/a
3228009	RECOG_LURE	n/a	LTP073	ltpFR	3	4	n/a	STAGE	1366	1	1	n/a	n/a	n/a	n/a	n/a	n/a
3230864	RECOG_RESP	n/a	LTP073	ltpFR	3	4	n/a	STAGE	1366	1	n/a	n/a	n/a	n/a	n/a	n/a	n/a
3232944	RECOG_CONF	n/a	LTP073	ltpFR	3	4	n/a	STAGE	1366	n/a	1	n/a	n/a	n/a	n/a	n/a	n/a
3234501	RECOG_TARGET	n/a	LTP073	ltpFR	3	4	-1	SEAL	1262	1	5	-1	n/a	n/a	n/a	n/a	n/a
3235484	RECOG_RESP	n/a	LTP073	ltpFR	3	4	-1	SEAL	1262	1	n/a	-1	n/a	n/a	n/a	n/a	n/a
3236427	RECOG_CONF	n/a	LTP073	ltpFR	3	4	-1	SEAL	1262	n/a	5	-1	n/a	n/a	n/a	n/a	n/a
3237958	RECOG_TARGET	n/a	LTP073	ltpFR	3	4	1	NEUTRON	947	1	5	1	n/a	n/a	n/a	n/a	n/a
3239480	RECOG_RESP	n/a	LTP073	ltpFR	3	4	1	NEUTRON	947	1	n/a	1	n/a	n/a	n/a	n/a	n/a
3240168	RECOG_CONF	n/a	LTP073	ltpFR	3	4	1	NEUTRON	947	n/a	5	1	n/a	n/a	n/a	n/a	n/a
3241642	RECOG_TARGET	n/a	LTP073	ltpFR	3	4	1	LAUNDRY	803	1	1	0	n/a	n/a	n/a	n/a	n/a
3243012	RECOG_RESP	n/a	LTP073	ltpFR	3	4	1	LAUNDRY	803	1	n/a	0	n/a	n/a	n/a	n/a	n/a
3243700	RECOG_CONF	n/a	LTP073	ltpFR	3	4	1	LAUNDRY	803	n/a	1	0	n/a	n/a	n/a	n/a	n/a
3245117	RECOG_TARGET	n/a	LTP073	ltpFR	3	4	-1	TOASTER	1472	1	3	-1	n/a	n/a	n/a	n/a	n/a
3246134	RECOG_RESP	n/a	LTP073	ltpFR	3	4	-1	TOASTER	1472	1	n/a	-1	n/a	n/a	n/a	n/a	n/a
3246903	RECOG_CONF	n/a	LTP073	ltpFR	3	4	-1	TOASTER	1472	n/a	3	-1	n/a	n/a	n/a	n/a	n/a
3248258	RECOG_TARGET	n/a	LTP073	ltpFR	3	4	0	LOLLIPOP	842	1	5	0	n/a	n/a	n/a	n/a	n/a
3249133	RECOG_RESP	n/a	LTP073	ltpFR	3	4	0	LOLLIPOP	842	1	n/a	0	n/a	n/a	n/a	n/a	n/a
3249776	RECOG_CONF	n/a	LTP073	ltpFR	3	4	0	LOLLIPOP	842	n/a	5	0	n/a	n/a	n/a	n/a	n/a
3251225	RECOG_TARGET	n/a	LTP073	ltpFR	3	4	1	SUPERMARKET	1409	1	3	0	n/a	n/a	n/a	n/a	n/a
3252809	RECOG_RESP	n/a	LTP073	ltpFR	3	4	1	SUPERMARKET	1409	1	n/a	0	n/a	n/a	n/a	n/a	n/a
3253687	RECOG_CONF	n/a	LTP073	ltpFR	3	4	1	SUPERMARKET	1409	n/a	3	0	n/a	n/a	n/a	n/a	n/a
3255216	RECOG_LURE	n/a	LTP073	ltpFR	3	4	n/a	BULLET	194	0	2	n/a	n/a	n/a	n/a	n/a	n/a
3256202	RECOG_RESP	n/a	LTP073	ltpFR	3	4	n/a	BULLET	194	0	n/a	n/a	n/a	n/a	n/a	n/a	n/a
3257409	RECOG_CONF	n/a	LTP073	ltpFR	3	4	n/a	BULLET	194	n/a	2	n/a	n/a	n/a	n/a	n/a	n/a
3258774	RECOG_TARGET	n/a	LTP073	ltpFR	3	4	0	OAR	966	1	5	1	n/a	n/a	n/a	n/a	n/a
3259609	RECOG_RESP	n/a	LTP073	ltpFR	3	4	0	OAR	966	1	n/a	1	n/a	n/a	n/a	n/a	n/a
3260302	RECOG_CONF	n/a	LTP073	ltpFR	3	4	0	OAR	966	n/a	5	1	n/a	n/a	n/a	n/a	n/a
3264893	REC_START	n/a	LTP073	ltpFR	3	5	n/a	n/a	n/a	n/a	n/a	n/a	n/a	n/a	n/a	n/a	n/a
3264923	RECOG_TARGET	n/a	LTP073	ltpFR	3	5	1	JUDGE	761	1	5	1	n/a	n/a	n/a	n/a	n/a
3265846	RECOG_RESP	n/a	LTP073	ltpFR	3	5	1	JUDGE	761	1	n/a	1	n/a	n/a	n/a	n/a	n/a
3268629	RECOG_CONF	n/a	LTP073	ltpFR	3	5	1	JUDGE	761	n/a	5	1	n/a	n/a	n/a	n/a	n/a
3270014	RECOG_LURE	n/a	LTP073	ltpFR	3	5	n/a	MOTHER	921	1	1	n/a	n/a	n/a	n/a	n/a	n/a
3271667	RECOG_RESP	n/a	LTP073	ltpFR	3	5	n/a	MOTHER	921	1	n/a	n/a	n/a	n/a	n/a	n/a	n/a
3272491	RECOG_CONF	n/a	LTP073	ltpFR	3	5	n/a	MOTHER	921	n/a	1	n/a	n/a	n/a	n/a	n/a	n/a
3273864	RECOG_TARGET	n/a	LTP073	ltpFR	3	5	0	SUITCASE	1403	1	3	1	n/a	n/a	n/a	n/a	n/a
3274795	RECOG_RESP	n/a	LTP073	ltpFR	3	5	0	SUITCASE	1403	1	n/a	1	n/a	n/a	n/a	n/a	n/a
3275773	RECOG_CONF	n/a	LTP073	ltpFR	3	5	0	SUITCASE	1403	n/a	3	1	n/a	n/a	n/a	n/a	n/a
3277073	RECOG_TARGET	n/a	LTP073	ltpFR	3	5	1	SKETCH	1315	1	4	0	n/a	n/a	n/a	n/a	n/a
3277828	RECOG_RESP	n/a	LTP073	ltpFR	3	5	1	SKETCH	1315	1	n/a	0	n/a	n/a	n/a	n/a	n/a
3278557	RECOG_CONF	n/a	LTP073	ltpFR	3	5	1	SKETCH	1315	n/a	4	0	n/a	n/a	n/a	n/a	n/a
3279955	RECOG_TARGET	n/a	LTP073	ltpFR	3	5	-1	ICEBERG	731	1	1	-1	n/a	n/a	n/a	n/a	n/a
3281101	RECOG_RESP	n/a	LTP073	ltpFR	3	5	-1	ICEBERG	731	1	n/a	-1	n/a	n/a	n/a	n/a	n/a
3282029	RECOG_CONF	n/a	LTP073	ltpFR	3	5	-1	ICEBERG	731	n/a	1	-1	n/a	n/a	n/a	n/a	n/a
3283389	RECOG_TARGET	n/a	LTP073	ltpFR	3	5	-1	TANK	1432	1	3	-1	n/a	n/a	n/a	n/a	n/a
3284179	RECOG_RESP	n/a	LTP073	ltpFR	3	5	-1	TANK	1432	1	n/a	-1	n/a	n/a	n/a	n/a	n/a
3285112	RECOG_CONF	n/a	LTP073	ltpFR	3	5	-1	TANK	1432	n/a	3	-1	n/a	n/a	n/a	n/a	n/a
3286472	RECOG_TARGET	n/a	LTP073	ltpFR	3	5	-1	LIP	828	1	5	-1	n/a	n/a	n/a	n/a	n/a
3287257	RECOG_RESP	n/a	LTP073	ltpFR	3	5	-1	LIP	828	1	n/a	-1	n/a	n/a	n/a	n/a	n/a
3287935	RECOG_CONF	n/a	LTP073	ltpFR	3	5	-1	LIP	828	n/a	5	-1	n/a	n/a	n/a	n/a	n/a
3289455	RECOG_TARGET	n/a	LTP073	ltpFR	3	5	0	POLITICIAN	1099	1	5	1	n/a	n/a	n/a	n/a	n/a
3290315	RECOG_RESP	n/a	LTP073	ltpFR	3	5	0	POLITICIAN	1099	1	n/a	1	n/a	n/a	n/a	n/a	n/a
3291028	RECOG_CONF	n/a	LTP073	ltpFR	3	5	0	POLITICIAN	1099	n/a	5	1	n/a	n/a	n/a	n/a	n/a
3292472	RECOG_TARGET	n/a	LTP073	ltpFR	3	5	0	DAUGHTER	442	1	4	1	n/a	n/a	n/a	n/a	n/a
3294301	RECOG_RESP	n/a	LTP073	ltpFR	3	5	0	DAUGHTER	442	1	n/a	1	n/a	n/a	n/a	n/a	n/a
3295289	RECOG_CONF	n/a	LTP073	ltpFR	3	5	0	DAUGHTER	442	n/a	4	1	n/a	n/a	n/a	n/a	n/a
3296738	RECOG_TARGET	n/a	LTP073	ltpFR	3	5	0	CARPENTER	246	1	5	1	n/a	n/a	n/a	n/a	n/a
3297414	RECOG_RESP	n/a	LTP073	ltpFR	3	5	0	CARPENTER	246	1	n/a	1	n/a	n/a	n/a	n/a	n/a
3298062	RECOG_CONF	n/a	LTP073	ltpFR	3	5	0	CARPENTER	246	n/a	5	1	n/a	n/a	n/a	n/a	n/a
3299271	RECOG_TARGET	n/a	LTP073	ltpFR	3	5	1	FOLLOWER	589	1	5	1	n/a	n/a	n/a	n/a	n/a
3300178	RECOG_RESP	n/a	LTP073	ltpFR	3	5	1	FOLLOWER	589	1	n/a	1	n/a	n/a	n/a	n/a	n/a
3300826	RECOG_CONF	n/a	LTP073	ltpFR	3	5	1	FOLLOWER	589	n/a	5	1	n/a	n/a	n/a	n/a	n/a
3302221	RECOG_LURE	n/a	LTP073	ltpFR	3	5	n/a	HEART	697	0	1	n/a	n/a	n/a	n/a	n/a	n/a
3303191	RECOG_RESP	n/a	LTP073	ltpFR	3	5	n/a	HEART	697	0	n/a	n/a	n/a	n/a	n/a	n/a	n/a
3303959	RECOG_CONF	n/a	LTP073	ltpFR	3	5	n/a	HEART	697	n/a	1	n/a	n/a	n/a	n/a	n/a	n/a
3305237	RECOG_TARGET	n/a	LTP073	ltpFR	3	5	0	MONARCH	906	1	5	1	n/a	n/a	n/a	n/a	n/a
3306149	RECOG_RESP	n/a	LTP073	ltpFR	3	5	0	MONARCH	906	1	n/a	1	n/a	n/a	n/a	n/a	n/a
3306803	RECOG_CONF	n/a	LTP073	ltpFR	3	5	0	MONARCH	906	n/a	5	1	n/a	n/a	n/a	n/a	n/a
3308179	RECOG_TARGET	n/a	LTP073	ltpFR	3	5	1	DANDRUFF	439	1	5	0	n/a	n/a	n/a	n/a	n/a
3308858	RECOG_RESP	n/a	LTP073	ltpFR	3	5	1	DANDRUFF	439	1	n/a	0	n/a	n/a	n/a	n/a	n/a
3309516	RECOG_CONF	n/a	LTP073	ltpFR	3	5	1	DANDRUFF	439	n/a	5	0	n/a	n/a	n/a	n/a	n/a
3310804	RECOG_TARGET	n/a	LTP073	ltpFR	3	5	-1	CUSHION	428	1	5	-1	n/a	n/a	n/a	n/a	n/a
3311542	RECOG_RESP	n/a	LTP073	ltpFR	3	5	-1	CUSHION	428	1	n/a	-1	n/a	n/a	n/a	n/a	n/a
3312150	RECOG_CONF	n/a	LTP073	ltpFR	3	5	-1	CUSHION	428	n/a	5	-1	n/a	n/a	n/a	n/a	n/a
3313587	RECOG_TARGET	n/a	LTP073	ltpFR	3	5	0	HERO	706	0	1	1	n/a	n/a	n/a	n/a	n/a
3314580	RECOG_RESP	n/a	LTP073	ltpFR	3	5	0	HERO	706	0	n/a	1	n/a	n/a	n/a	n/a	n/a
3315293	RECOG_CONF	n/a	LTP073	ltpFR	3	5	0	HERO	706	n/a	1	1	n/a	n/a	n/a	n/a	n/a
3316653	RECOG_TARGET	n/a	LTP073	ltpFR	3	5	1	PRAIRIE	1118	1	5	0	n/a	n/a	n/a	n/a	n/a
3317428	RECOG_RESP	n/a	LTP073	ltpFR	3	5	1	PRAIRIE	1118	1	n/a	0	n/a	n/a	n/a	n/a	n/a
3318147	RECOG_CONF	n/a	LTP073	ltpFR	3	5	1	PRAIRIE	1118	n/a	5	0	n/a	n/a	n/a	n/a	n/a
3319411	RECOG_TARGET	n/a	LTP073	ltpFR	3	5	-1	TECHNICIAN	1443	0	2	-1	n/a	n/a	n/a	n/a	n/a
3320766	RECOG_RESP	n/a	LTP073	ltpFR	3	5	-1	TECHNICIAN	1443	0	n/a	-1	n/a	n/a	n/a	n/a	n/a
3321519	RECOG_CONF	n/a	LTP073	ltpFR	3	5	-1	TECHNICIAN	1443	n/a	2	-1	n/a	n/a	n/a	n/a	n/a
3322803	RECOG_TARGET	n/a	LTP073	ltpFR	3	5	0	CASH	252	1	5	0	n/a	n/a	n/a	n/a	n/a
3323420	RECOG_RESP	n/a	LTP073	ltpFR	3	5	0	CASH	252	1	n/a	0	n/a	n/a	n/a	n/a	n/a
3324482	RECOG_CONF	n/a	LTP073	ltpFR	3	5	0	CASH	252	n/a	5	0	n/a	n/a	n/a	n/a	n/a
3325877	RECOG_TARGET	n/a	LTP073	ltpFR	3	5	1	COUGAR	387	1	5	1	n/a	n/a	n/a	n/a	n/a
3326578	RECOG_RESP	n/a	LTP073	ltpFR	3	5	1	COUGAR	387	1	n/a	1	n/a	n/a	n/a	n/a	n/a
3327336	RECOG_CONF	n/a	LTP073	ltpFR	3	5	1	COUGAR	387	n/a	5	1	n/a	n/a	n/a	n/a	n/a
3332510	REC_START	n/a	LTP073	ltpFR	3	6	n/a	n/a	n/a	n/a	n/a	n/a	n/a	n/a	n/a	n/a	n/a
3332544	RECOG_TARGET	n/a	LTP073	ltpFR	3	6	1	OZONE	996	1	5	0	n/a	n/a	n/a	n/a	n/a
3333358	RECOG_RESP	n/a	LTP073	ltpFR	3	6	1	OZONE	996	1	n/a	0	n/a	n/a	n/a	n/a	n/a
3334061	RECOG_CONF	n/a	LTP073	ltpFR	3	6	1	OZONE	996	n/a	5	0	n/a	n/a	n/a	n/a	n/a
3335494	RECOG_LURE	n/a	LTP073	ltpFR	3	6	n/a	HALL	677	1	1	n/a	n/a	n/a	n/a	n/a	n/a
3337349	RECOG_RESP	n/a	LTP073	ltpFR	3	6	n/a	HALL	677	1	n/a	n/a	n/a	n/a	n/a	n/a	n/a
3338002	RECOG_CONF	n/a	LTP073	ltpFR	3	6	n/a	HALL	677	n/a	1	n/a	n/a	n/a	n/a	n/a	n/a
3339377	RECOG_TARGET	n/a	LTP073	ltpFR	3	6	0	COLT	349	1	5	1	n/a	n/a	n/a	n/a	n/a
3340063	RECOG_RESP	n/a	LTP073	ltpFR	3	6	0	COLT	349	1	n/a	1	n/a	n/a	n/a	n/a	n/a
3340706	RECOG_CONF	n/a	LTP073	ltpFR	3	6	0	COLT	349	n/a	5	1	n/a	n/a	n/a	n/a	n/a
3342034	RECOG_TARGET	n/a	LTP073	ltpFR	3	6	-1	COBBLER	335	1	5	-1	n/a	n/a	n/a	n/a	n/a
3342821	RECOG_RESP	n/a	LTP073	ltpFR	3	6	-1	COBBLER	335	1	n/a	-1	n/a	n/a	n/a	n/a	n/a
3343460	RECOG_CONF	n/a	LTP073	ltpFR	3	6	-1	COBBLER	335	n/a	5	-1	n/a	n/a	n/a	n/a	n/a
3344835	RECOG_TARGET	n/a	LTP073	ltpFR	3	6	0	MAID	856	0	1	1	n/a	n/a	n/a	n/a	n/a
3345894	RECOG_RESP	n/a	LTP073	ltpFR	3	6	0	MAID	856	0	n/a	1	n/a	n/a	n/a	n/a	n/a
3346533	RECOG_CONF	n/a	LTP073	ltpFR	3	6	0	MAID	856	n/a	1	1	n/a	n/a	n/a	n/a	n/a
3347809	RECOG_TARGET	n/a	LTP073	ltpFR	3	6	-1	LIMOUSINE	824	1	1	-1	n/a	n/a	n/a	n/a	n/a
3349676	RECOG_RESP	n/a	LTP073	ltpFR	3	6	-1	LIMOUSINE	824	1	n/a	-1	n/a	n/a	n/a	n/a	n/a
3350534	RECOG_CONF	n/a	LTP073	ltpFR	3	6	-1	LIMOUSINE	824	n/a	1	-1	n/a	n/a	n/a	n/a	n/a
3351850	RECOG_TARGET	n/a	LTP073	ltpFR	3	6	1	AUNT	60	1	5	1	n/a	n/a	n/a	n/a	n/a
3352479	RECOG_RESP	n/a	LTP073	ltpFR	3	6	1	AUNT	60	1	n/a	1	n/a	n/a	n/a	n/a	n/a
3353138	RECOG_CONF	n/a	LTP073	ltpFR	3	6	1	AUNT	60	n/a	5	1	n/a	n/a	n/a	n/a	n/a
3354501	RECOG_TARGET	n/a	LTP073	ltpFR	3	6	1	PAN	1008	1	5	0	n/a	n/a	n/a	n/a	n/a
3355258	RECOG_RESP	n/a	LTP073	ltpFR	3	6	1	PAN	1008	1	n/a	0	n/a	n/a	n/a	n/a	n/a
3355942	RECOG_CONF	n/a	LTP073	ltpFR	3	6	1	PAN	1008	n/a	5	0	n/a	n/a	n/a	n/a	n/a
3357317	RECOG_TARGET	n/a	LTP073	ltpFR	3	6	-1	COIN	343	1	3	-1	n/a	n/a	n/a	n/a	n/a
3357882	RECOG_RESP	n/a	LTP073	ltpFR	3	6	-1	COIN	343	1	n/a	-1	n/a	n/a	n/a	n/a	n/a
3359005	RECOG_CONF	n/a	LTP073	ltpFR	3	6	-1	COIN	343	n/a	3	-1	n/a	n/a	n/a	n/a	n/a
3360359	RECOG_TARGET	n/a	LTP073	ltpFR	3	6	-1	WHISTLE	1606	1	5	-1	n/a	n/a	n/a	n/a	n/a
3361010	RECOG_RESP	n/a	LTP073	ltpFR	3	6	-1	WHISTLE	1606	1	n/a	-1	n/a	n/a	n/a	n/a	n/a
3361609	RECOG_CONF	n/a	LTP073	ltpFR	3	6	-1	WHISTLE	1606	n/a	5	-1	n/a	n/a	n/a	n/a	n/a
3363007	RECOG_TARGET	n/a	LTP073	ltpFR	3	6	0	SPINACH	1352	1	5	0	n/a	n/a	n/a	n/a	n/a
3363674	RECOG_RESP	n/a	LTP073	ltpFR	3	6	0	SPINACH	1352	1	n/a	0	n/a	n/a	n/a	n/a	n/a
3364263	RECOG_CONF	n/a	LTP073	ltpFR	3	6	0	SPINACH	1352	n/a	5	0	n/a	n/a	n/a	n/a	n/a
3365750	RECOG_LURE	n/a	LTP073	ltpFR	3	6	n/a	EXPERT	543	0	1	n/a	n/a	n/a	n/a	n/a	n/a
3366667	RECOG_RESP	n/a	LTP073	ltpFR	3	6	n/a	EXPERT	543	0	n/a	n/a	n/a	n/a	n/a	n/a	n/a
3367386	RECOG_CONF	n/a	LTP073	ltpFR	3	6	n/a	EXPERT	543	n/a	1	n/a	n/a	n/a	n/a	n/a	n/a
3368641	RECOG_TARGET	n/a	LTP073	ltpFR	3	6	-1	CLAM	315	1	5	-1	n/a	n/a	n/a	n/a	n/a
3369351	RECOG_RESP	n/a	LTP073	ltpFR	3	6	-1	CLAM	315	1	n/a	-1	n/a	n/a	n/a	n/a	n/a
3369940	RECOG_CONF	n/a	LTP073	ltpFR	3	6	-1	CLAM	315	n/a	5	-1	n/a	n/a	n/a	n/a	n/a
3371324	RECOG_TARGET	n/a	LTP073	ltpFR	3	6	1	PRESIDENT	1121	1	2	1	n/a	n/a	n/a	n/a	n/a
3372020	RECOG_RESP	n/a	LTP073	ltpFR	3	6	1	PRESIDENT	1121	1	n/a	1	n/a	n/a	n/a	n/a	n/a
3372923	RECOG_CONF	n/a	LTP073	ltpFR	3	6	1	PRESIDENT	1121	n/a	2	1	n/a	n/a	n/a	n/a	n/a
3374299	RECOG_TARGET	n/a	LTP073	ltpFR	3	6	1	ENGINEER	536	1	5	1	n/a	n/a	n/a	n/a	n/a
3375208	RECOG_RESP	n/a	LTP073	ltpFR	3	6	1	ENGINEER	536	1	n/a	1	n/a	n/a	n/a	n/a	n/a
3375846	RECOG_CONF	n/a	LTP073	ltpFR	3	6	1	ENGINEER	536	n/a	5	1	n/a	n/a	n/a	n/a	n/a
3377224	RECOG_LURE	n/a	LTP073	ltpFR	3	6	n/a	CHART	282	0	2	n/a	n/a	n/a	n/a	n/a	n/a
3378131	RECOG_RESP	n/a	LTP073	ltpFR	3	6	n/a	CHART	282	0	n/a	n/a	n/a	n/a	n/a	n/a	n/a
3378899	RECOG_CONF	n/a	LTP073	ltpFR	3	6	n/a	CHART	282	n/a	2	n/a	n/a	n/a	n/a	n/a	n/a
3380207	RECOG_TARGET	n/a	LTP073	ltpFR	3	6	1	REPTILE	1185	1	5	1	n/a	n/a	n/a	n/a	n/a
3380985	RECOG_RESP	n/a	LTP073	ltpFR	3	6	1	REPTILE	1185	1	n/a	1	n/a	n/a	n/a	n/a	n/a
3381633	RECOG_CONF	n/a	LTP073	ltpFR	3	6	1	REPTILE	1185	n/a	5	1	n/a	n/a	n/a	n/a	n/a
3383065	RECOG_TARGET	n/a	LTP073	ltpFR	3	6	-1	LETTUCE	814	1	5	-1	n/a	n/a	n/a	n/a	n/a
3383823	RECOG_RESP	n/a	LTP073	ltpFR	3	6	-1	LETTUCE	814	1	n/a	-1	n/a	n/a	n/a	n/a	n/a
3384407	RECOG_CONF	n/a	LTP073	ltpFR	3	6	-1	LETTUCE	814	n/a	5	-1	n/a	n/a	n/a	n/a	n/a
3385782	RECOG_TARGET	n/a	LTP073	ltpFR	3	6	-1	PISTON	1076	1	5	-1	n/a	n/a	n/a	n/a	n/a
3386492	RECOG_RESP	n/a	LTP073	ltpFR	3	6	-1	PISTON	1076	1	n/a	-1	n/a	n/a	n/a	n/a	n/a
3387201	RECOG_CONF	n/a	LTP073	ltpFR	3	6	-1	PISTON	1076	n/a	5	-1	n/a	n/a	n/a	n/a	n/a
3388598	RECOG_LURE	n/a	LTP073	ltpFR	3	6	n/a	LEADER	807	1	1	n/a	n/a	n/a	n/a	n/a	n/a
3389635	RECOG_RESP	n/a	LTP073	ltpFR	3	6	n/a	LEADER	807	1	n/a	n/a	n/a	n/a	n/a	n/a	n/a
3392119	RECOG_CONF	n/a	LTP073	ltpFR	3	6	n/a	LEADER	807	n/a	1	n/a	n/a	n/a	n/a	n/a	n/a
3398539	REC_START	n/a	LTP073	ltpFR	3	7	n/a	n/a	n/a	n/a	n/a	n/a	n/a	n/a	n/a	n/a	n/a
3398572	RECOG_TARGET	n/a	LTP073	ltpFR	3	7	1	PILL	1068	1	5	0	n/a	n/a	n/a	n/a	n/a
3399342	RECOG_RESP	n/a	LTP073	ltpFR	3	7	1	PILL	1068	1	n/a	0	n/a	n/a	n/a	n/a	n/a
3399971	RECOG_CONF	n/a	LTP073	ltpFR	3	7	1	PILL	1068	n/a	5	0	n/a	n/a	n/a	n/a	n/a
3401364	RECOG_TARGET	n/a	LTP073	ltpFR	3	7	0	COBWEB	337	1	5	0	n/a	n/a	n/a	n/a	n/a
3402041	RECOG_RESP	n/a	LTP073	ltpFR	3	7	0	COBWEB	337	1	n/a	0	n/a	n/a	n/a	n/a	n/a
3402734	RECOG_CONF	n/a	LTP073	ltpFR	3	7	0	COBWEB	337	n/a	5	0	n/a	n/a	n/a	n/a	n/a
3404029	RECOG_TARGET	n/a	LTP073	ltpFR	3	7	-1	SLUG	1329	1	5	-1	n/a	n/a	n/a	n/a	n/a
3404780	RECOG_RESP	n/a	LTP073	ltpFR	3	7	-1	SLUG	1329	1	n/a	-1	n/a	n/a	n/a	n/a	n/a
3405338	RECOG_CONF	n/a	LTP073	ltpFR	3	7	-1	SLUG	1329	n/a	5	-1	n/a	n/a	n/a	n/a	n/a
3406713	RECOG_TARGET	n/a	LTP073	ltpFR	3	7	0	PORPOISE	1109	1	5	1	n/a	n/a	n/a	n/a	n/a
3407493	RECOG_RESP	n/a	LTP073	ltpFR	3	7	0	PORPOISE	1109	1	n/a	1	n/a	n/a	n/a	n/a	n/a
3408092	RECOG_CONF	n/a	LTP073	ltpFR	3	7	0	PORPOISE	1109	n/a	5	1	n/a	n/a	n/a	n/a	n/a
3409438	RECOG_TARGET	n/a	LTP073	ltpFR	3	7	1	VEAL	1551	1	5	0	n/a	n/a	n/a	n/a	n/a
3410068	RECOG_RESP	n/a	LTP073	ltpFR	3	7	1	VEAL	1551	1	n/a	0	n/a	n/a	n/a	n/a	n/a
3410626	RECOG_CONF	n/a	LTP073	ltpFR	3	7	1	VEAL	1551	n/a	5	0	n/a	n/a	n/a	n/a	n/a
3411945	RECOG_TARGET	n/a	LTP073	ltpFR	3	7	0	BAG	69	1	5	0	n/a	n/a	n/a	n/a	n/a
3412587	RECOG_RESP	n/a	LTP073	ltpFR	3	7	0	BAG	69	1	n/a	0	n/a	n/a	n/a	n/a	n/a
3413151	RECOG_CONF	n/a	LTP073	ltpFR	3	7	0	BAG	69	n/a	5	0	n/a	n/a	n/a	n/a	n/a
3414421	RECOG_LURE	n/a	LTP073	ltpFR	3	7	n/a	TAG	1429	0	1	n/a	n/a	n/a	n/a	n/a	n/a
3415356	RECOG_RESP	n/a	LTP073	ltpFR	3	7	n/a	TAG	1429	0	n/a	n/a	n/a	n/a	n/a	n/a	n/a
3416044	RECOG_CONF	n/a	LTP073	ltpFR	3	7	n/a	TAG	1429	n/a	1	n/a	n/a	n/a	n/a	n/a	n/a
3417263	RECOG_LURE	n/a	LTP073	ltpFR	3	7	n/a	EMPIRE	530	0	2	n/a	n/a	n/a	n/a	n/a	n/a
3418314	RECOG_RESP	n/a	LTP073	ltpFR	3	7	n/a	EMPIRE	530	0	n/a	n/a	n/a	n/a	n/a	n/a	n/a
3418957	RECOG_CONF	n/a	LTP073	ltpFR	3	7	n/a	EMPIRE	530	n/a	2	n/a	n/a	n/a	n/a	n/a	n/a
3420171	RECOG_TARGET	n/a	LTP073	ltpFR	3	7	1	DECK	443	1	5	0	n/a	n/a	n/a	n/a	n/a
3420858	RECOG_RESP	n/a	LTP073	ltpFR	3	7	1	DECK	443	1	n/a	0	n/a	n/a	n/a	n/a	n/a
3421412	RECOG_CONF	n/a	LTP073	ltpFR	3	7	1	DECK	443	n/a	5	0	n/a	n/a	n/a	n/a	n/a
3422729	RECOG_TARGET	n/a	LTP073	ltpFR	3	7	-1	CEREAL	272	1	5	-1	n/a	n/a	n/a	n/a	n/a
3423437	RECOG_RESP	n/a	LTP073	ltpFR	3	7	-1	CEREAL	272	1	n/a	-1	n/a	n/a	n/a	n/a	n/a
3424056	RECOG_CONF	n/a	LTP073	ltpFR	3	7	-1	CEREAL	272	n/a	5	-1	n/a	n/a	n/a	n/a	n/a
3425295	RECOG_TARGET	n/a	LTP073	ltpFR	3	7	1	VICTOR	1563	1	5	1	n/a	n/a	n/a	n/a	n/a
3426076	RECOG_RESP	n/a	LTP073	ltpFR	3	7	1	VICTOR	1563	1	n/a	1	n/a	n/a	n/a	n/a	n/a
3426670	RECOG_CONF	n/a	LTP073	ltpFR	3	7	1	VICTOR	1563	n/a	5	1	n/a	n/a	n/a	n/a	n/a
3427961	RECOG_TARGET	n/a	LTP073	ltpFR	3	7	-1	BODY	145	1	5	-1	n/a	n/a	n/a	n/a	n/a
3428730	RECOG_RESP	n/a	LTP073	ltpFR	3	7	-1	BODY	145	1	n/a	-1	n/a	n/a	n/a	n/a	n/a
3429314	RECOG_CONF	n/a	LTP073	ltpFR	3	7	-1	BODY	145	n/a	5	-1	n/a	n/a	n/a	n/a	n/a
3430562	RECOG_TARGET	n/a	LTP073	ltpFR	3	7	-1	RIFLE	1192	1	5	-1	n/a	n/a	n/a	n/a	n/a
3431309	RECOG_RESP	n/a	LTP073	ltpFR	3	7	-1	RIFLE	1192	1	n/a	-1	n/a	n/a	n/a	n/a	n/a
3431968	RECOG_CONF	n/a	LTP073	ltpFR	3	7	-1	RIFLE	1192	n/a	5	-1	n/a	n/a	n/a	n/a	n/a
3433112	RECOG_TARGET	n/a	LTP073	ltpFR	3	7	1	CANDY	230	1	4	0	n/a	n/a	n/a	n/a	n/a
3433784	RECOG_RESP	n/a	LTP073	ltpFR	3	7	1	CANDY	230	1	n/a	0	n/a	n/a	n/a	n/a	n/a
3434592	RECOG_CONF	n/a	LTP073	ltpFR	3	7	1	CANDY	230	n/a	4	0	n/a	n/a	n/a	n/a	n/a
3435786	RECOG_TARGET	n/a	LTP073	ltpFR	3	7	1	TEAM	1441	1	5	1	n/a	n/a	n/a	n/a	n/a
3436453	RECOG_RESP	n/a	LTP073	ltpFR	3	7	1	TEAM	1441	1	n/a	1	n/a	n/a	n/a	n/a	n/a
3437006	RECOG_CONF	n/a	LTP073	ltpFR	3	7	1	TEAM	1441	n/a	5	1	n/a	n/a	n/a	n/a	n/a
3438311	RECOG_TARGET	n/a	LTP073	ltpFR	3	7	1	SLEEVE	1324	1	4	0	n/a	n/a	n/a	n/a	n/a
3439301	RECOG_RESP	n/a	LTP073	ltpFR	3	7	1	SLEEVE	1324	1	n/a	0	n/a	n/a	n/a	n/a	n/a
3439970	RECOG_CONF	n/a	LTP073	ltpFR	3	7	1	SLEEVE	1324	n/a	4	0	n/a	n/a	n/a	n/a	n/a
3441219	RECOG_TARGET	n/a	LTP073	ltpFR	3	7	0	WORLD	1622	1	4	1	n/a	n/a	n/a	n/a	n/a
3442005	RECOG_RESP	n/a	LTP073	ltpFR	3	7	0	WORLD	1622	1	n/a	1	n/a	n/a	n/a	n/a	n/a
3442624	RECOG_CONF	n/a	LTP073	ltpFR	3	7	0	WORLD	1622	n/a	4	1	n/a	n/a	n/a	n/a	n/a
3443860	RECOG_TARGET	n/a	LTP073	ltpFR	3	7	-1	FOLDER	588	1	4	-1	n/a	n/a	n/a	n/a	n/a
3444754	RECOG_RESP	n/a	LTP073	ltpFR	3	7	-1	FOLDER	588	1	n/a	-1	n/a	n/a	n/a	n/a	n/a
3445397	RECOG_CONF	n/a	LTP073	ltpFR	3	7	-1	FOLDER	588	n/a	4	-1	n/a	n/a	n/a	n/a	n/a
3446711	RECOG_TARGET	n/a	LTP073	ltpFR	3	7	0	FLASHLIGHT	575	1	2	0	n/a	n/a	n/a	n/a	n/a
3447966	RECOG_RESP	n/a	LTP073	ltpFR	3	7	0	FLASHLIGHT	575	1	n/a	0	n/a	n/a	n/a	n/a	n/a
3448600	RECOG_CONF	n/a	LTP073	ltpFR	3	7	0	FLASHLIGHT	575	n/a	2	0	n/a	n/a	n/a	n/a	n/a
3449859	RECOG_LURE	n/a	LTP073	ltpFR	3	7	n/a	PLAID	1080	0	2	n/a	n/a	n/a	n/a	n/a	n/a
3451054	RECOG_RESP	n/a	LTP073	ltpFR	3	7	n/a	PLAID	1080	0	n/a	n/a	n/a	n/a	n/a	n/a	n/a
3451783	RECOG_CONF	n/a	LTP073	ltpFR	3	7	n/a	PLAID	1080	n/a	2	n/a	n/a	n/a	n/a	n/a	n/a
3457507	REC_START	n/a	LTP073	ltpFR	3	8	n/a	n/a	n/a	n/a	n/a	n/a	n/a	n/a	n/a	n/a	n/a
3457543	RECOG_LURE	n/a	LTP073	ltpFR	3	8	n/a	PORCH	1106	0	1	n/a	n/a	n/a	n/a	n/a	n/a
3458804	RECOG_RESP	n/a	LTP073	ltpFR	3	8	n/a	PORCH	1106	0	n/a	n/a	n/a	n/a	n/a	n/a	n/a
3459427	RECOG_CONF	n/a	LTP073	ltpFR	3	8	n/a	PORCH	1106	n/a	1	n/a	n/a	n/a	n/a	n/a	n/a
3460710	RECOG_LURE	n/a	LTP073	ltpFR	3	8	n/a	DICTATOR	462	0	2	n/a	n/a	n/a	n/a	n/a	n/a
3461652	RECOG_RESP	n/a	LTP073	ltpFR	3	8	n/a	DICTATOR	462	0	n/a	n/a	n/a	n/a	n/a	n/a	n/a
3462271	RECOG_CONF	n/a	LTP073	ltpFR	3	8	n/a	DICTATOR	462	n/a	2	n/a	n/a	n/a	n/a	n/a	n/a
3463518	RECOG_TARGET	n/a	LTP073	ltpFR	3	8	0	CHOCOLATE	306	1	5	0	n/a	n/a	n/a	n/a	n/a
3464247	RECOG_RESP	n/a	LTP073	ltpFR	3	8	0	CHOCOLATE	306	1	n/a	0	n/a	n/a	n/a	n/a	n/a
3464795	RECOG_CONF	n/a	LTP073	ltpFR	3	8	0	CHOCOLATE	306	n/a	5	0	n/a	n/a	n/a	n/a	n/a
3465991	RECOG_TARGET	n/a	LTP073	ltpFR	3	8	-1	CHEERLEADER	288	1	5	-1	n/a	n/a	n/a	n/a	n/a
3466661	RECOG_RESP	n/a	LTP073	ltpFR	3	8	-1	CHEERLEADER	288	1	n/a	-1	n/a	n/a	n/a	n/a	n/a
3467190	RECOG_CONF	n/a	LTP073	ltpFR	3	8	-1	CHEERLEADER	288	n/a	5	-1	n/a	n/a	n/a	n/a	n/a
3468417	RECOG_TARGET	n/a	LTP073	ltpFR	3	8	1	LOAF	835	1	5	0	n/a	n/a	n/a	n/a	n/a
3469036	RECOG_RESP	n/a	LTP073	ltpFR	3	8	1	LOAF	835	1	n/a	0	n/a	n/a	n/a	n/a	n/a
3469654	RECOG_CONF	n/a	LTP073	ltpFR	3	8	1	LOAF	835	n/a	5	0	n/a	n/a	n/a	n/a	n/a
3470908	RECOG_TARGET	n/a	LTP073	ltpFR	3	8	1	FENCE	560	1	5	0	n/a	n/a	n/a	n/a	n/a
3471919	RECOG_RESP	n/a	LTP073	ltpFR	3	8	1	FENCE	560	1	n/a	0	n/a	n/a	n/a	n/a	n/a
3472488	RECOG_CONF	n/a	LTP073	ltpFR	3	8	1	FENCE	560	n/a	5	0	n/a	n/a	n/a	n/a	n/a
3473834	RECOG_TARGET	n/a	LTP073	ltpFR	3	8	1	WOLF	1619	1	5	1	n/a	n/a	n/a	n/a	n/a
3474458	RECOG_RESP	n/a	LTP073	ltpFR	3	8	1	WOLF	1619	1	n/a	1	n/a	n/a	n/a	n/a	n/a
3475032	RECOG_CONF	n/a	LTP073	ltpFR	3	8	1	WOLF	1619	n/a	5	1	n/a	n/a	n/a	n/a	n/a
3476342	RECOG_TARGET	n/a	LTP073	ltpFR	3	8	1	CORAL	378	1	5	1	n/a	n/a	n/a	n/a	n/a
3477067	RECOG_RESP	n/a	LTP073	ltpFR	3	8	1	CORAL	378	1	n/a	1	n/a	n/a	n/a	n/a	n/a
3477726	RECOG_CONF	n/a	LTP073	ltpFR	3	8	1	CORAL	378	n/a	5	1	n/a	n/a	n/a	n/a	n/a
3478991	RECOG_TARGET	n/a	LTP073	ltpFR	3	8	-1	SIDING	1304	1	4	-1	n/a	n/a	n/a	n/a	n/a
3479861	RECOG_RESP	n/a	LTP073	ltpFR	3	8	-1	SIDING	1304	1	n/a	-1	n/a	n/a	n/a	n/a	n/a
3480480	RECOG_CONF	n/a	LTP073	ltpFR	3	8	-1	SIDING	1304	n/a	4	-1	n/a	n/a	n/a	n/a	n/a
3481783	RECOG_TARGET	n/a	LTP073	ltpFR	3	8	1	FUGITIVE	612	1	2	1	n/a	n/a	n/a	n/a	n/a
3483468	RECOG_RESP	n/a	LTP073	ltpFR	3	8	1	FUGITIVE	612	1	n/a	1	n/a	n/a	n/a	n/a	n/a
3484111	RECOG_CONF	n/a	LTP073	ltpFR	3	8	1	FUGITIVE	612	n/a	2	1	n/a	n/a	n/a	n/a	n/a
3485416	RECOG_TARGET	n/a	LTP073	ltpFR	3	8	0	SALESMAN	1225	1	4	1	n/a	n/a	n/a	n/a	n/a
3486286	RECOG_RESP	n/a	LTP073	ltpFR	3	8	0	SALESMAN	1225	1	n/a	1	n/a	n/a	n/a	n/a	n/a
3487484	RECOG_CONF	n/a	LTP073	ltpFR	3	8	0	SALESMAN	1225	n/a	4	1	n/a	n/a	n/a	n/a	n/a
3488848	RECOG_TARGET	n/a	LTP073	ltpFR	3	8	0	RECEIPT	1173	1	5	0	n/a	n/a	n/a	n/a	n/a
3489888	RECOG_RESP	n/a	LTP073	ltpFR	3	8	0	RECEIPT	1173	1	n/a	0	n/a	n/a	n/a	n/a	n/a
3490457	RECOG_CONF	n/a	LTP073	ltpFR	3	8	0	RECEIPT	1173	n/a	5	0	n/a	n/a	n/a	n/a	n/a
3491816	RECOG_TARGET	n/a	LTP073	ltpFR	3	8	1	SWAN	1417	1	5	1	n/a	n/a	n/a	n/a	n/a
3492452	RECOG_RESP	n/a	LTP073	ltpFR	3	8	1	SWAN	1417	1	n/a	1	n/a	n/a	n/a	n/a	n/a
3493001	RECOG_CONF	n/a	LTP073	ltpFR	3	8	1	SWAN	1417	n/a	5	1	n/a	n/a	n/a	n/a	n/a
3494332	RECOG_TARGET	n/a	LTP073	ltpFR	3	8	0	ANTEATER	26	1	5	1	n/a	n/a	n/a	n/a	n/a
3494967	RECOG_RESP	n/a	LTP073	ltpFR	3	8	0	ANTEATER	26	1	n/a	1	n/a	n/a	n/a	n/a	n/a
3495525	RECOG_CONF	n/a	LTP073	ltpFR	3	8	0	ANTEATER	26	n/a	5	1	n/a	n/a	n/a	n/a	n/a
3496914	RECOG_TARGET	n/a	LTP073	ltpFR	3	8	1	DINER	467	1	5	0	n/a	n/a	n/a	n/a	n/a
3497621	RECOG_RESP	n/a	LTP073	ltpFR	3	8	1	DINER	467	1	n/a	0	n/a	n/a	n/a	n/a	n/a
3498159	RECOG_CONF	n/a	LTP073	ltpFR	3	8	1	DINER	467	n/a	5	0	n/a	n/a	n/a	n/a	n/a
3499523	RECOG_TARGET	n/a	LTP073	ltpFR	3	8	0	THIGH	1457	1	5	1	n/a	n/a	n/a	n/a	n/a
3500240	RECOG_RESP	n/a	LTP073	ltpFR	3	8	0	THIGH	1457	1	n/a	1	n/a	n/a	n/a	n/a	n/a
3500873	RECOG_CONF	n/a	LTP073	ltpFR	3	8	0	THIGH	1457	n/a	5	1	n/a	n/a	n/a	n/a	n/a
3502157	RECOG_TARGET	n/a	LTP073	ltpFR	3	8	1	DIGGER	464	1	5	1	n/a	n/a	n/a	n/a	n/a
3502789	RECOG_RESP	n/a	LTP073	ltpFR	3	8	1	DIGGER	464	1	n/a	1	n/a	n/a	n/a	n/a	n/a
3503378	RECOG_CONF	n/a	LTP073	ltpFR	3	8	1	DIGGER	464	n/a	5	1	n/a	n/a	n/a	n/a	n/a
3504706	RECOG_TARGET	n/a	LTP073	ltpFR	3	8	1	REFRIGERATOR	1179	1	5	0	n/a	n/a	n/a	n/a	n/a
3505413	RECOG_RESP	n/a	LTP073	ltpFR	3	8	1	REFRIGERATOR	1179	1	n/a	0	n/a	n/a	n/a	n/a	n/a
3506081	RECOG_CONF	n/a	LTP073	ltpFR	3	8	1	REFRIGERATOR	1179	n/a	5	0	n/a	n/a	n/a	n/a	n/a
3507348	RECOG_LURE	n/a	LTP073	ltpFR	3	8	n/a	PUZZLE	1146	0	2	n/a	n/a	n/a	n/a	n/a	n/a
3508316	RECOG_RESP	n/a	LTP073	ltpFR	3	8	n/a	PUZZLE	1146	0	n/a	n/a	n/a	n/a	n/a	n/a	n/a
3508905	RECOG_CONF	n/a	LTP073	ltpFR	3	8	n/a	PUZZLE	1146	n/a	2	n/a	n/a	n/a	n/a	n/a	n/a
3510231	RECOG_TARGET	n/a	LTP073	ltpFR	3	8	0	BLOCKADE	137	1	5	1	n/a	n/a	n/a	n/a	n/a
3511055	RECOG_RESP	n/a	LTP073	ltpFR	3	8	0	BLOCKADE	137	1	n/a	1	n/a	n/a	n/a	n/a	n/a
3511599	RECOG_CONF	n/a	LTP073	ltpFR	3	8	0	BLOCKADE	137	n/a	5	1	n/a	n/a	n/a	n/a	n/a
3517776	REC_START	n/a	LTP073	ltpFR	3	9	n/a	n/a	n/a	n/a	n/a	n/a	n/a	n/a	n/a	n/a	n/a
3517814	RECOG_LURE	n/a	LTP073	ltpFR	3	9	n/a	PLASTER	1085	0	2	n/a	n/a	n/a	n/a	n/a	n/a
3518918	RECOG_RESP	n/a	LTP073	ltpFR	3	9	n/a	PLASTER	1085	0	n/a	n/a	n/a	n/a	n/a	n/a	n/a
3519557	RECOG_CONF	n/a	LTP073	ltpFR	3	9	n/a	PLASTER	1085	n/a	2	n/a	n/a	n/a	n/a	n/a	n/a
3520838	RECOG_TARGET	n/a	LTP073	ltpFR	3	9	0	AIRCRAFT	11	1	2	1	n/a	n/a	n/a	n/a	n/a
3522231	RECOG_RESP	n/a	LTP073	ltpFR	3	9	0	AIRCRAFT	11	1	n/a	1	n/a	n/a	n/a	n/a	n/a
3522979	RECOG_CONF	n/a	LTP073	ltpFR	3	9	0	AIRCRAFT	11	n/a	2	1	n/a	n/a	n/a	n/a	n/a
3524313	RECOG_TARGET	n/a	LTP073	ltpFR	3	9	1	SALIVA	1226	1	5	0	n/a	n/a	n/a	n/a	n/a
3525074	RECOG_RESP	n/a	LTP073	ltpFR	3	9	1	SALIVA	1226	1	n/a	0	n/a	n/a	n/a	n/a	n/a
3525673	RECOG_CONF	n/a	LTP073	ltpFR	3	9	1	SALIVA	1226	n/a	5	0	n/a	n/a	n/a	n/a	n/a
3526945	RECOG_LURE	n/a	LTP073	ltpFR	3	9	n/a	BELL	118	0	2	n/a	n/a	n/a	n/a	n/a	n/a
3527968	RECOG_RESP	n/a	LTP073	ltpFR	3	9	n/a	BELL	118	0	n/a	n/a	n/a	n/a	n/a	n/a	n/a
3528596	RECOG_CONF	n/a	LTP073	ltpFR	3	9	n/a	BELL	118	n/a	2	n/a	n/a	n/a	n/a	n/a	n/a
3529912	RECOG_TARGET	n/a	LTP073	ltpFR	3	9	0	WORM	1623	1	5	0	n/a	n/a	n/a	n/a	n/a
3530542	RECOG_RESP	n/a	LTP073	ltpFR	3	9	0	WORM	1623	1	n/a	0	n/a	n/a	n/a	n/a	n/a
3531140	RECOG_CONF	n/a	LTP073	ltpFR	3	9	0	WORM	1623	n/a	5	0	n/a	n/a	n/a	n/a	n/a
3532438	RECOG_TARGET	n/a	LTP073	ltpFR	3	9	-1	SCOUT	1252	1	5	-1	n/a	n/a	n/a	n/a	n/a
3533086	RECOG_RESP	n/a	LTP073	ltpFR	3	9	-1	SCOUT	1252	1	n/a	-1	n/a	n/a	n/a	n/a	n/a
3533675	RECOG_CONF	n/a	LTP073	ltpFR	3	9	-1	SCOUT	1252	n/a	5	-1	n/a	n/a	n/a	n/a	n/a
3534970	RECOG_TARGET	n/a	LTP073	ltpFR	3	9	1	OATMEAL	967	1	5	0	n/a	n/a	n/a	n/a	n/a
3535680	RECOG_RESP	n/a	LTP073	ltpFR	3	9	1	OATMEAL	967	1	n/a	0	n/a	n/a	n/a	n/a	n/a
3536359	RECOG_CONF	n/a	LTP073	ltpFR	3	9	1	OATMEAL	967	n/a	5	0	n/a	n/a	n/a	n/a	n/a
3537646	RECOG_TARGET	n/a	LTP073	ltpFR	3	9	0	DILL	465	1	5	0	n/a	n/a	n/a	n/a	n/a
3538274	RECOG_RESP	n/a	LTP073	ltpFR	3	9	0	DILL	465	1	n/a	0	n/a	n/a	n/a	n/a	n/a
3538883	RECOG_CONF	n/a	LTP073	ltpFR	3	9	0	DILL	465	n/a	5	0	n/a	n/a	n/a	n/a	n/a
3540220	RECOG_TARGET	n/a	LTP073	ltpFR	3	9	-1	COLESLAW	344	1	5	-1	n/a	n/a	n/a	n/a	n/a
3541053	RECOG_RESP	n/a	LTP073	ltpFR	3	9	-1	COLESLAW	344	1	n/a	-1	n/a	n/a	n/a	n/a	n/a
3541667	RECOG_CONF	n/a	LTP073	ltpFR	3	9	-1	COLESLAW	344	n/a	5	-1	n/a	n/a	n/a	n/a	n/a
3543003	RECOG_TARGET	n/a	LTP073	ltpFR	3	9	1	CONSUMER	365	1	5	1	n/a	n/a	n/a	n/a	n/a
3543812	RECOG_RESP	n/a	LTP073	ltpFR	3	9	1	CONSUMER	365	1	n/a	1	n/a	n/a	n/a	n/a	n/a
3544400	RECOG_CONF	n/a	LTP073	ltpFR	3	9	1	CONSUMER	365	n/a	5	1	n/a	n/a	n/a	n/a	n/a
3545737	RECOG_TARGET	n/a	LTP073	ltpFR	3	9	0	COWBOY	395	1	5	1	n/a	n/a	n/a	n/a	n/a
3546466	RECOG_RESP	n/a	LTP073	ltpFR	3	9	0	COWBOY	395	1	n/a	1	n/a	n/a	n/a	n/a	n/a
3547104	RECOG_CONF	n/a	LTP073	ltpFR	3	9	0	COWBOY	395	n/a	5	1	n/a	n/a	n/a	n/a	n/a
3548395	RECOG_TARGET	n/a	LTP073	ltpFR	3	9	0	FLASK	576	1	3	0	n/a	n/a	n/a	n/a	n/a
3549130	RECOG_RESP	n/a	LTP073	ltpFR	3	9	0	FLASK	576	1	n/a	0	n/a	n/a	n/a	n/a	n/a
3550646	RECOG_CONF	n/a	LTP073	ltpFR	3	9	0	FLASK	576	n/a	3	0	n/a	n/a	n/a	n/a	n/a
3551985	RECOG_TARGET	n/a	LTP073	ltpFR	3	9	0	DENIM	446	1	5	0	n/a	n/a	n/a	n/a	n/a
3552622	RECOG_RESP	n/a	LTP073	ltpFR	3	9	0	DENIM	446	1	n/a	0	n/a	n/a	n/a	n/a	n/a
3553220	RECOG_CONF	n/a	LTP073	ltpFR	3	9	0	DENIM	446	n/a	5	0	n/a	n/a	n/a	n/a	n/a
3554411	RECOG_TARGET	n/a	LTP073	ltpFR	3	9	1	CAR	241	1	3	0	n/a	n/a	n/a	n/a	n/a
3555365	RECOG_RESP	n/a	LTP073	ltpFR	3	9	1	CAR	241	1	n/a	0	n/a	n/a	n/a	n/a	n/a
3556363	RECOG_CONF	n/a	LTP073	ltpFR	3	9	1	CAR	241	n/a	3	0	n/a	n/a	n/a	n/a	n/a
3557728	RECOG_TARGET	n/a	LTP073	ltpFR	3	9	1	PORTRAIT	1111	1	1	0	n/a	n/a	n/a	n/a	n/a
3558738	RECOG_RESP	n/a	LTP073	ltpFR	3	9	1	PORTRAIT	1111	1	n/a	0	n/a	n/a	n/a	n/a	n/a
3559686	RECOG_CONF	n/a	LTP073	ltpFR	3	9	1	PORTRAIT	1111	n/a	1	0	n/a	n/a	n/a	n/a	n/a
3561060	RECOG_TARGET	n/a	LTP073	ltpFR	3	9	-1	STY	1397	1	5	-1	n/a	n/a	n/a	n/a	n/a
3562090	RECOG_RESP	n/a	LTP073	ltpFR	3	9	-1	STY	1397	1	n/a	-1	n/a	n/a	n/a	n/a	n/a
3562659	RECOG_CONF	n/a	LTP073	ltpFR	3	9	-1	STY	1397	n/a	5	-1	n/a	n/a	n/a	n/a	n/a
3563984	RECOG_TARGET	n/a	LTP073	ltpFR	3	9	0	FLEA	577	1	5	0	n/a	n/a	n/a	n/a	n/a
3564664	RECOG_RESP	n/a	LTP073	ltpFR	3	9	0	FLEA	577	1	n/a	0	n/a	n/a	n/a	n/a	n/a
3565313	RECOG_CONF	n/a	LTP073	ltpFR	3	9	0	FLEA	577	n/a	5	0	n/a	n/a	n/a	n/a	n/a
3566619	RECOG_TARGET	n/a	LTP073	ltpFR	3	9	0	TAPIOCA	1434	1	5	0	n/a	n/a	n/a	n/a	n/a
3567408	RECOG_RESP	n/a	LTP073	ltpFR	3	9	0	TAPIOCA	1434	1	n/a	0	n/a	n/a	n/a	n/a	n/a
3568037	RECOG_CONF	n/a	LTP073	ltpFR	3	9	0	TAPIOCA	1434	n/a	5	0	n/a	n/a	n/a	n/a	n/a
3569360	RECOG_TARGET	n/a	LTP073	ltpFR	3	9	1	GOAT	644	1	4	1	n/a	n/a	n/a	n/a	n/a
3570182	RECOG_RESP	n/a	LTP073	ltpFR	3	9	1	GOAT	644	1	n/a	1	n/a	n/a	n/a	n/a	n/a
3570820	RECOG_CONF	n/a	LTP073	ltpFR	3	9	1	GOAT	644	n/a	4	1	n/a	n/a	n/a	n/a	n/a
3572126	RECOG_TARGET	n/a	LTP073	ltpFR	3	9	-1	GAVEL	627	1	5	-1	n/a	n/a	n/a	n/a	n/a
3572911	RECOG_RESP	n/a	LTP073	ltpFR	3	9	-1	GAVEL	627	1	n/a	-1	n/a	n/a	n/a	n/a	n/a
3573454	RECOG_CONF	n/a	LTP073	ltpFR	3	9	-1	GAVEL	627	n/a	5	-1	n/a	n/a	n/a	n/a	n/a
3578215	REC_START	n/a	LTP073	ltpFR	3	10	n/a	n/a	n/a	n/a	n/a	n/a	n/a	n/a	n/a	n/a	n/a
3578243	RECOG_TARGET	n/a	LTP073	ltpFR	3	10	1	TUB	1514	1	3	0	n/a	n/a	n/a	n/a	n/a
3579492	RECOG_RESP	n/a	LTP073	ltpFR	3	10	1	TUB	1514	1	n/a	0	n/a	n/a	n/a	n/a	n/a
3580485	RECOG_CONF	n/a	LTP073	ltpFR	3	10	1	TUB	1514	n/a	3	0	n/a	n/a	n/a	n/a	n/a
3581834	RECOG_TARGET	n/a	LTP073	ltpFR	3	10	0	CART	250	1	5	1	n/a	n/a	n/a	n/a	n/a
3582590	RECOG_RESP	n/a	LTP073	ltpFR	3	10	0	CART	250	1	n/a	1	n/a	n/a	n/a	n/a	n/a
3583218	RECOG_CONF	n/a	LTP073	ltpFR	3	10	0	CART	250	n/a	5	1	n/a	n/a	n/a	n/a	n/a
3584484	RECOG_LURE	n/a	LTP073	ltpFR	3	10	n/a	HORNET	718	0	3	n/a	n/a	n/a	n/a	n/a	n/a
3585339	RECOG_RESP	n/a	LTP073	ltpFR	3	10	n/a	HORNET	718	0	n/a	n/a	n/a	n/a	n/a	n/a	n/a
3586122	RECOG_CONF	n/a	LTP073	ltpFR	3	10	n/a	HORNET	718	n/a	3	n/a	n/a	n/a	n/a	n/a	n/a
3587392	RECOG_TARGET	n/a	LTP073	ltpFR	3	10	0	HORSE	719	1	5	1	n/a	n/a	n/a	n/a	n/a
