mstime	trial_type	stim_file	subject	experiment	session	trial	task	item_name	item_num	recog_conf	resp	color_b	color_g	color_r	case	font
0	SESS_START	n/a	LTP093	ltpFR	5	n/a	n/a	n/a	n/a	5	n/a	n/a	n/a	n/a	n/a	n/a
50380	WORD	wordpools/wasnorm_wordpool.txt	LTP093	ltpFR	5	1	1	DELINQUENT	445	n/a	1	1	0.412841796875	0.57763671875	upper	../fonts/zerothre.ttf
54375	WORD	wordpools/wasnorm_wordpool.txt	LTP093	ltpFR	5	1	1	ADULT	8	n/a	1	1	0.412841796875	0.57763671875	upper	../fonts/zerothre.ttf
58545	WORD	wordpools/wasnorm_wordpool.txt	LTP093	ltpFR	5	1	0	CREATURE	403	n/a	0	0	0.5869140625	0.422607421875	lower	../fonts/amplitud.ttf
62357	WORD	wordpools/wasnorm_wordpool.txt	LTP093	ltpFR	5	1	0	DRILL	497	n/a	0	0	0.5869140625	0.422607421875	lower	../fonts/amplitud.ttf
66253	WORD	wordpools/wasnorm_wordpool.txt	LTP093	ltpFR	5	1	0	BELL	118	n/a	0	0	0.5869140625	0.422607421875	lower	../fonts/amplitud.ttf
70198	WORD	wordpools/wasnorm_wordpool.txt	LTP093	ltpFR	5	1	0	ELK	526	n/a	1	0	0.5869140625	0.422607421875	lower	../fonts/amplitud.ttf
74377	WORD	wordpools/wasnorm_wordpool.txt	LTP093	ltpFR	5	1	1	TYPIST	1532	n/a	1	1	0.412841796875	0.57763671875	upper	../fonts/zerothre.ttf
78247	WORD	wordpools/wasnorm_wordpool.txt	LTP093	ltpFR	5	1	1	DUSTPAN	509	n/a	0	1	0.412841796875	0.57763671875	upper	../fonts/zerothre.ttf
82234	WORD	wordpools/wasnorm_wordpool.txt	LTP093	ltpFR	5	1	1	ALBUM	14	n/a	0	1	0.412841796875	0.57763671875	upper	../fonts/zerothre.ttf
86196	WORD	wordpools/wasnorm_wordpool.txt	LTP093	ltpFR	5	1	0	SKETCH	1315	n/a	0	0	0.5869140625	0.422607421875	lower	../fonts/amplitud.ttf
90034	WORD	wordpools/wasnorm_wordpool.txt	LTP093	ltpFR	5	1	0	PICNIC	1060	n/a	0	0	0.5869140625	0.422607421875	lower	../fonts/amplitud.ttf
93921	WORD	wordpools/wasnorm_wordpool.txt	LTP093	ltpFR	5	1	0	UTENSIL	1542	n/a	0	0	0.5869140625	0.422607421875	lower	../fonts/amplitud.ttf
97924	WORD	wordpools/wasnorm_wordpool.txt	LTP093	ltpFR	5	1	0	BAY	102	n/a	1	0	0.5869140625	0.422607421875	lower	../fonts/amplitud.ttf
101837	WORD	wordpools/wasnorm_wordpool.txt	LTP093	ltpFR	5	1	1	WOLF	1619	n/a	1	1	0.412841796875	0.57763671875	upper	../fonts/zerothre.ttf
105840	WORD	wordpools/wasnorm_wordpool.txt	LTP093	ltpFR	5	1	1	TONGUE	1479	n/a	1	1	0.412841796875	0.57763671875	upper	../fonts/zerothre.ttf
109927	WORD	wordpools/wasnorm_wordpool.txt	LTP093	ltpFR	5	1	1	ANTELOPE	27	n/a	1	1	0.412841796875	0.57763671875	upper	../fonts/zerothre.ttf
115655	REC_START	n/a	LTP093	ltpFR	5	1	n/a	n/a	n/a	n/a	n/a	n/a	n/a	n/a	n/a	n/a
116418	REC_WORD	wordpools/wasnorm_wordpool.txt	LTP093	ltpFR	5	1	1	ANTELOPE	27	n/a	1	n/a	n/a	n/a	n/a	n/a
117585	REC_WORD	wordpools/wasnorm_wordpool.txt	LTP093	ltpFR	5	1	1	TONGUE	1479	n/a	1	n/a	n/a	n/a	n/a	n/a
118523	REC_WORD	wordpools/wasnorm_wordpool.txt	LTP093	ltpFR	5	1	1	WOLF	1619	n/a	1	n/a	n/a	n/a	n/a	n/a
119995	REC_WORD	wordpools/wasnorm_wordpool.txt	LTP093	ltpFR	5	1	0	ELK	526	n/a	1	n/a	n/a	n/a	n/a	n/a
121407	REC_WORD	wordpools/wasnorm_wordpool.txt	LTP093	ltpFR	5	1	1	TYPIST	1532	n/a	1	n/a	n/a	n/a	n/a	n/a
122624	REC_WORD	wordpools/wasnorm_wordpool.txt	LTP093	ltpFR	5	1	1	DELINQUENT	445	n/a	1	n/a	n/a	n/a	n/a	n/a
124095	REC_WORD	wordpools/wasnorm_wordpool.txt	LTP093	ltpFR	5	1	0	BAY	102	n/a	1	n/a	n/a	n/a	n/a	n/a
125068	REC_WORD	wordpools/wasnorm_wordpool.txt	LTP093	ltpFR	5	1	0	SKETCH	1315	n/a	0	n/a	n/a	n/a	n/a	n/a
128511	REC_WORD	wordpools/wasnorm_wordpool.txt	LTP093	ltpFR	5	1	0	PICNIC	1060	n/a	0	n/a	n/a	n/a	n/a	n/a
228681	WORD	wordpools/wasnorm_wordpool.txt	LTP093	ltpFR	5	2	0	TART	1436	n/a	0	0	0.5869140625	0.422607421875	lower	../fonts/amplitud.ttf
232510	WORD	wordpools/wasnorm_wordpool.txt	LTP093	ltpFR	5	2	0	LUGGAGE	847	n/a	1	0	0.5869140625	0.422607421875	lower	../fonts/amplitud.ttf
236455	WORD	wordpools/wasnorm_wordpool.txt	LTP093	ltpFR	5	2	1	VAULT	1550	n/a	0	1	0.412841796875	0.57763671875	upper	../fonts/zerothre.ttf
240642	WORD	wordpools/wasnorm_wordpool.txt	LTP093	ltpFR	5	2	1	BISON	131	n/a	1	1	0.412841796875	0.57763671875	upper	../fonts/zerothre.ttf
244704	WORD	wordpools/wasnorm_wordpool.txt	LTP093	ltpFR	5	2	1	ISLAND	745	n/a	0	1	0.412841796875	0.57763671875	upper	../fonts/zerothre.ttf
248891	WORD	wordpools/wasnorm_wordpool.txt	LTP093	ltpFR	5	2	1	PANTS	1010	n/a	0	1	0.412841796875	0.57763671875	upper	../fonts/zerothre.ttf
252903	WORD	wordpools/wasnorm_wordpool.txt	LTP093	ltpFR	5	2	1	NICKEL	950	n/a	0	1	0.412841796875	0.57763671875	upper	../fonts/zerothre.ttf
256890	WORD	wordpools/wasnorm_wordpool.txt	LTP093	ltpFR	5	2	1	BILL	126	n/a	0	1	0.412841796875	0.57763671875	upper	../fonts/zerothre.ttf
260760	WORD	wordpools/wasnorm_wordpool.txt	LTP093	ltpFR	5	2	0	SIGNATURE	1306	n/a	0	0	0.5869140625	0.422607421875	lower	../fonts/amplitud.ttf
264714	WORD	wordpools/wasnorm_wordpool.txt	LTP093	ltpFR	5	2	0	SLEEVE	1324	n/a	0	0	0.5869140625	0.422607421875	lower	../fonts/amplitud.ttf
268876	WORD	wordpools/wasnorm_wordpool.txt	LTP093	ltpFR	5	2	1	JACKET	747	n/a	0	1	0.412841796875	0.57763671875	upper	../fonts/zerothre.ttf
272838	WORD	wordpools/wasnorm_wordpool.txt	LTP093	ltpFR	5	2	1	BULL	193	n/a	1	1	0.412841796875	0.57763671875	upper	../fonts/zerothre.ttf
276850	WORD	wordpools/wasnorm_wordpool.txt	LTP093	ltpFR	5	2	0	ANIMAL	23	n/a	0	0	0.5869140625	0.422607421875	lower	../fonts/amplitud.ttf
281045	WORD	wordpools/wasnorm_wordpool.txt	LTP093	ltpFR	5	2	0	STUMP	1396	n/a	0	0	0.5869140625	0.422607421875	lower	../fonts/amplitud.ttf
285058	WORD	wordpools/wasnorm_wordpool.txt	LTP093	ltpFR	5	2	0	PUPIL	1143	n/a	0	0	0.5869140625	0.422607421875	lower	../fonts/amplitud.ttf
289153	WORD	wordpools/wasnorm_wordpool.txt	LTP093	ltpFR	5	2	0	TEACHER	1440	n/a	0	0	0.5869140625	0.422607421875	lower	../fonts/amplitud.ttf
295039	REC_START	n/a	LTP093	ltpFR	5	2	n/a	n/a	n/a	n/a	n/a	n/a	n/a	n/a	n/a	n/a
295578	REC_WORD	wordpools/wasnorm_wordpool.txt	LTP093	ltpFR	5	2	0	TEACHER	1440	n/a	0	n/a	n/a	n/a	n/a	n/a
296406	REC_WORD	wordpools/wasnorm_wordpool.txt	LTP093	ltpFR	5	2	0	PUPIL	1143	n/a	0	n/a	n/a	n/a	n/a	n/a
298251	REC_WORD	wordpools/wasnorm_wordpool.txt	LTP093	ltpFR	5	2	1	ISLAND	745	n/a	0	n/a	n/a	n/a	n/a	n/a
299339	REC_WORD	wordpools/wasnorm_wordpool.txt	LTP093	ltpFR	5	2	1	VAULT	1550	n/a	0	n/a	n/a	n/a	n/a	n/a
300681	REC_WORD_VV	wordpools/wasnorm_wordpool.txt	LTP093	ltpFR	5	2	n/a	<>	-1	n/a	n/a	n/a	n/a	n/a	n/a	n/a
302307	REC_WORD	wordpools/wasnorm_wordpool.txt	LTP093	ltpFR	5	2	1	PANTS	1010	n/a	0	n/a	n/a	n/a	n/a	n/a
303465	REC_WORD	wordpools/wasnorm_wordpool.txt	LTP093	ltpFR	5	2	0	SLEEVE	1324	n/a	0	n/a	n/a	n/a	n/a	n/a
305680	REC_WORD	wordpools/wasnorm_wordpool.txt	LTP093	ltpFR	5	2	0	SIGNATURE	1306	n/a	0	n/a	n/a	n/a	n/a	n/a
307036	REC_WORD	wordpools/wasnorm_wordpool.txt	LTP093	ltpFR	5	2	1	BILL	126	n/a	0	n/a	n/a	n/a	n/a	n/a
308548	REC_WORD	wordpools/wasnorm_wordpool.txt	LTP093	ltpFR	5	2	0	ANIMAL	23	n/a	0	n/a	n/a	n/a	n/a	n/a
309770	REC_WORD	wordpools/wasnorm_wordpool.txt	LTP093	ltpFR	5	2	1	BISON	131	n/a	1	n/a	n/a	n/a	n/a	n/a
319179	REC_WORD	wordpools/wasnorm_wordpool.txt	LTP093	ltpFR	5	2	0	STUMP	1396	n/a	0	n/a	n/a	n/a	n/a	n/a
346207	REC_WORD	wordpools/wasnorm_wordpool.txt	LTP093	ltpFR	5	2	1	NICKEL	950	n/a	0	n/a	n/a	n/a	n/a	n/a
415464	WORD	wordpools/wasnorm_wordpool.txt	LTP093	ltpFR	5	3	1	PUCK	1138	n/a	0	1	0.412841796875	0.57763671875	upper	../fonts/zerothre.ttf
419360	WORD	wordpools/wasnorm_wordpool.txt	LTP093	ltpFR	5	3	1	STAR	1373	n/a	0	1	0.412841796875	0.57763671875	upper	../fonts/zerothre.ttf
423288	WORD	wordpools/wasnorm_wordpool.txt	LTP093	ltpFR	5	3	1	SPACE	1345	n/a	0	1	0.412841796875	0.57763671875	upper	../fonts/zerothre.ttf
427434	WORD	wordpools/wasnorm_wordpool.txt	LTP093	ltpFR	5	3	1	HAT	690	n/a	0	1	0.412841796875	0.57763671875	upper	../fonts/zerothre.ttf
431379	WORD	wordpools/wasnorm_wordpool.txt	LTP093	ltpFR	5	3	1	HERB	704	n/a	1	1	0.412841796875	0.57763671875	upper	../fonts/zerothre.ttf
435532	WORD	wordpools/wasnorm_wordpool.txt	LTP093	ltpFR	5	3	1	LEG	809	n/a	1	1	0.412841796875	0.57763671875	upper	../fonts/zerothre.ttf
439561	WORD	wordpools/wasnorm_wordpool.txt	LTP093	ltpFR	5	3	1	ELBOW	520	n/a	1	1	0.412841796875	0.57763671875	upper	../fonts/zerothre.ttf
443448	WORD	wordpools/wasnorm_wordpool.txt	LTP093	ltpFR	5	3	1	KIDNEY	776	n/a	1	1	0.412841796875	0.57763671875	upper	../fonts/zerothre.ttf
447452	WORD	wordpools/wasnorm_wordpool.txt	LTP093	ltpFR	5	3	1	REEF	1177	n/a	1	1	0.412841796875	0.57763671875	upper	../fonts/zerothre.ttf
451464	WORD	wordpools/wasnorm_wordpool.txt	LTP093	ltpFR	5	3	1	WALNUT	1584	n/a	1	1	0.412841796875	0.57763671875	upper	../fonts/zerothre.ttf
455276	WORD	wordpools/wasnorm_wordpool.txt	LTP093	ltpFR	5	3	1	PIGEON	1065	n/a	1	1	0.412841796875	0.57763671875	upper	../fonts/zerothre.ttf
459438	WORD	wordpools/wasnorm_wordpool.txt	LTP093	ltpFR	5	3	1	GIRAFFE	636	n/a	1	1	0.412841796875	0.57763671875	upper	../fonts/zerothre.ttf
463325	WORD	wordpools/wasnorm_wordpool.txt	LTP093	ltpFR	5	3	1	JUNGLE	764	n/a	1	1	0.412841796875	0.57763671875	upper	../fonts/zerothre.ttf
467479	WORD	wordpools/wasnorm_wordpool.txt	LTP093	ltpFR	5	3	1	PELICAN	1039	n/a	1	1	0.412841796875	0.57763671875	upper	../fonts/zerothre.ttf
471499	WORD	wordpools/wasnorm_wordpool.txt	LTP093	ltpFR	5	3	1	COACH	331	n/a	1	1	0.412841796875	0.57763671875	upper	../fonts/zerothre.ttf
475544	WORD	wordpools/wasnorm_wordpool.txt	LTP093	ltpFR	5	3	1	KNOT	788	n/a	0	1	0.412841796875	0.57763671875	upper	../fonts/zerothre.ttf
481297	REC_START	n/a	LTP093	ltpFR	5	3	n/a	n/a	n/a	n/a	n/a	n/a	n/a	n/a	n/a	n/a
481925	REC_WORD	wordpools/wasnorm_wordpool.txt	LTP093	ltpFR	5	3	1	KNOT	788	n/a	0	n/a	n/a	n/a	n/a	n/a
482948	REC_WORD	wordpools/wasnorm_wordpool.txt	LTP093	ltpFR	5	3	1	COACH	331	n/a	1	n/a	n/a	n/a	n/a	n/a
483746	REC_WORD	wordpools/wasnorm_wordpool.txt	LTP093	ltpFR	5	3	1	GIRAFFE	636	n/a	1	n/a	n/a	n/a	n/a	n/a
487398	REC_WORD	wordpools/wasnorm_wordpool.txt	LTP093	ltpFR	5	3	1	PELICAN	1039	n/a	1	n/a	n/a	n/a	n/a	n/a
488395	REC_WORD	wordpools/wasnorm_wordpool.txt	LTP093	ltpFR	5	3	1	JUNGLE	764	n/a	1	n/a	n/a	n/a	n/a	n/a
492980	REC_WORD	wordpools/wasnorm_wordpool.txt	LTP093	ltpFR	5	3	1	SPACE	1345	n/a	0	n/a	n/a	n/a	n/a	n/a
494173	REC_WORD	wordpools/wasnorm_wordpool.txt	LTP093	ltpFR	5	3	1	STAR	1373	n/a	0	n/a	n/a	n/a	n/a	n/a
541869	REC_WORD	wordpools/wasnorm_wordpool.txt	LTP093	ltpFR	5	3	1	KIDNEY	776	n/a	1	n/a	n/a	n/a	n/a	n/a
543116	REC_WORD	wordpools/wasnorm_wordpool.txt	LTP093	ltpFR	5	3	1	ELBOW	520	n/a	1	n/a	n/a	n/a	n/a	n/a
544009	REC_WORD	wordpools/wasnorm_wordpool.txt	LTP093	ltpFR	5	3	1	LEG	809	n/a	1	n/a	n/a	n/a	n/a	n/a
606177	WORD	wordpools/wasnorm_wordpool.txt	LTP093	ltpFR	5	4	1	HAND	683	n/a	1	1	0.412841796875	0.57763671875	upper	../fonts/zerothre.ttf
610213	WORD	wordpools/wasnorm_wordpool.txt	LTP093	ltpFR	5	4	1	GARDEN	623	n/a	1	1	0.412841796875	0.57763671875	upper	../fonts/zerothre.ttf
614366	WORD	wordpools/wasnorm_wordpool.txt	LTP093	ltpFR	5	4	1	OINTMENT	974	n/a	0	1	0.412841796875	0.57763671875	upper	../fonts/zerothre.ttf
618537	WORD	wordpools/wasnorm_wordpool.txt	LTP093	ltpFR	5	4	1	HUT	729	n/a	0	1	0.412841796875	0.57763671875	upper	../fonts/zerothre.ttf
622424	WORD	wordpools/wasnorm_wordpool.txt	LTP093	ltpFR	5	4	1	OCEAN	970	n/a	1	1	0.412841796875	0.57763671875	upper	../fonts/zerothre.ttf
626577	WORD	wordpools/wasnorm_wordpool.txt	LTP093	ltpFR	5	4	1	SHARK	1275	n/a	1	1	0.412841796875	0.57763671875	upper	../fonts/zerothre.ttf
630631	WORD	wordpools/wasnorm_wordpool.txt	LTP093	ltpFR	5	4	1	FUR	615	n/a	0	1	0.412841796875	0.57763671875	upper	../fonts/zerothre.ttf
634784	WORD	wordpools/wasnorm_wordpool.txt	LTP093	ltpFR	5	4	1	TWIG	1527	n/a	0	1	0.412841796875	0.57763671875	upper	../fonts/zerothre.ttf
638930	WORD	wordpools/wasnorm_wordpool.txt	LTP093	ltpFR	5	4	1	RAKE	1164	n/a	0	1	0.412841796875	0.57763671875	upper	../fonts/zerothre.ttf
642967	WORD	wordpools/wasnorm_wordpool.txt	LTP093	ltpFR	5	4	1	HATCHET	691	n/a	0	1	0.412841796875	0.57763671875	upper	../fonts/zerothre.ttf
646962	WORD	wordpools/wasnorm_wordpool.txt	LTP093	ltpFR	5	4	1	BANDAGE	79	n/a	0	1	0.412841796875	0.57763671875	upper	../fonts/zerothre.ttf
650999	WORD	wordpools/wasnorm_wordpool.txt	LTP093	ltpFR	5	4	1	ACORN	3	n/a	1	1	0.412841796875	0.57763671875	upper	../fonts/zerothre.ttf
655128	WORD	wordpools/wasnorm_wordpool.txt	LTP093	ltpFR	5	4	1	VEST	1559	n/a	0	1	0.412841796875	0.57763671875	upper	../fonts/zerothre.ttf
659082	WORD	wordpools/wasnorm_wordpool.txt	LTP093	ltpFR	5	4	1	WORM	1623	n/a	1	1	0.412841796875	0.57763671875	upper	../fonts/zerothre.ttf
663010	WORD	wordpools/wasnorm_wordpool.txt	LTP093	ltpFR	5	4	1	YOUTH	1634	n/a	1	1	0.412841796875	0.57763671875	upper	../fonts/zerothre.ttf
666972	WORD	wordpools/wasnorm_wordpool.txt	LTP093	ltpFR	5	4	1	TEENAGER	1444	n/a	1	1	0.412841796875	0.57763671875	upper	../fonts/zerothre.ttf
672724	REC_START	n/a	LTP093	ltpFR	5	4	n/a	n/a	n/a	n/a	n/a	n/a	n/a	n/a	n/a	n/a
673382	REC_WORD	wordpools/wasnorm_wordpool.txt	LTP093	ltpFR	5	4	1	TEENAGER	1444	n/a	1	n/a	n/a	n/a	n/a	n/a
674330	REC_WORD	wordpools/wasnorm_wordpool.txt	LTP093	ltpFR	5	4	1	YOUTH	1634	n/a	1	n/a	n/a	n/a	n/a	n/a
675542	REC_WORD	wordpools/wasnorm_wordpool.txt	LTP093	ltpFR	5	4	1	ACORN	3	n/a	1	n/a	n/a	n/a	n/a	n/a
676570	REC_WORD	wordpools/wasnorm_wordpool.txt	LTP093	ltpFR	5	4	1	OCEAN	970	n/a	1	n/a	n/a	n/a	n/a	n/a
677498	REC_WORD	wordpools/wasnorm_wordpool.txt	LTP093	ltpFR	5	4	1	SHARK	1275	n/a	1	n/a	n/a	n/a	n/a	n/a
682955	REC_WORD	wordpools/wasnorm_wordpool.txt	LTP093	ltpFR	5	4	1	VEST	1559	n/a	0	n/a	n/a	n/a	n/a	n/a
696156	REC_WORD	wordpools/wasnorm_wordpool.txt	LTP093	ltpFR	5	4	1	HAND	683	n/a	1	n/a	n/a	n/a	n/a	n/a
746172	REC_WORD	wordpools/wasnorm_wordpool.txt	LTP093	ltpFR	5	4	1	BANDAGE	79	n/a	0	n/a	n/a	n/a	n/a	n/a
773540	WORD	wordpools/wasnorm_wordpool.txt	LTP093	ltpFR	5	5	-1	TEA	1439	n/a	-1	1	1.0	1.0	upper	../fonts/Verdana.ttf
777469	WORD	wordpools/wasnorm_wordpool.txt	LTP093	ltpFR	5	5	-1	PATROL	1027	n/a	-1	1	1.0	1.0	upper	../fonts/Verdana.ttf
781456	WORD	wordpools/wasnorm_wordpool.txt	LTP093	ltpFR	5	5	-1	COBRA	336	n/a	-1	1	1.0	1.0	upper	../fonts/Verdana.ttf
785335	WORD	wordpools/wasnorm_wordpool.txt	LTP093	ltpFR	5	5	-1	LIZARD	834	n/a	-1	1	1.0	1.0	upper	../fonts/Verdana.ttf
789189	WORD	wordpools/wasnorm_wordpool.txt	LTP093	ltpFR	5	5	-1	UNDERWEAR	1537	n/a	-1	1	1.0	1.0	upper	../fonts/Verdana.ttf
793135	WORD	wordpools/wasnorm_wordpool.txt	LTP093	ltpFR	5	5	-1	CARTON	251	n/a	-1	1	1.0	1.0	upper	../fonts/Verdana.ttf
797139	WORD	wordpools/wasnorm_wordpool.txt	LTP093	ltpFR	5	5	-1	PATIO	1025	n/a	-1	1	1.0	1.0	upper	../fonts/Verdana.ttf
801208	WORD	wordpools/wasnorm_wordpool.txt	LTP093	ltpFR	5	5	-1	FIGHTER	564	n/a	-1	1	1.0	1.0	upper	../fonts/Verdana.ttf
805154	WORD	wordpools/wasnorm_wordpool.txt	LTP093	ltpFR	5	5	-1	KITCHEN	778	n/a	-1	1	1.0	1.0	upper	../fonts/Verdana.ttf
809199	WORD	wordpools/wasnorm_wordpool.txt	LTP093	ltpFR	5	5	-1	TOAST	1471	n/a	-1	1	1.0	1.0	upper	../fonts/Verdana.ttf
813352	WORD	wordpools/wasnorm_wordpool.txt	LTP093	ltpFR	5	5	-1	DRUG	501	n/a	-1	1	1.0	1.0	upper	../fonts/Verdana.ttf
817297	WORD	wordpools/wasnorm_wordpool.txt	LTP093	ltpFR	5	5	-1	POT	1114	n/a	-1	1	1.0	1.0	upper	../fonts/Verdana.ttf
821144	WORD	wordpools/wasnorm_wordpool.txt	LTP093	ltpFR	5	5	-1	DESK	452	n/a	-1	1	1.0	1.0	upper	../fonts/Verdana.ttf
825005	WORD	wordpools/wasnorm_wordpool.txt	LTP093	ltpFR	5	5	-1	CUP	424	n/a	-1	1	1.0	1.0	upper	../fonts/Verdana.ttf
828984	WORD	wordpools/wasnorm_wordpool.txt	LTP093	ltpFR	5	5	-1	WARDROBE	1587	n/a	-1	1	1.0	1.0	upper	../fonts/Verdana.ttf
832954	WORD	wordpools/wasnorm_wordpool.txt	LTP093	ltpFR	5	5	-1	SLEIGH	1325	n/a	-1	1	1.0	1.0	upper	../fonts/Verdana.ttf
838881	REC_START	n/a	LTP093	ltpFR	5	5	n/a	n/a	n/a	n/a	n/a	n/a	n/a	n/a	n/a	n/a
839360	REC_WORD	wordpools/wasnorm_wordpool.txt	LTP093	ltpFR	5	5	-1	SLEIGH	1325	n/a	-1	n/a	n/a	n/a	n/a	n/a
841021	REC_WORD	wordpools/wasnorm_wordpool.txt	LTP093	ltpFR	5	5	-1	PATIO	1025	n/a	-1	n/a	n/a	n/a	n/a	n/a
842428	REC_WORD	wordpools/wasnorm_wordpool.txt	LTP093	ltpFR	5	5	-1	DRUG	501	n/a	-1	n/a	n/a	n/a	n/a	n/a
843775	REC_WORD	wordpools/wasnorm_wordpool.txt	LTP093	ltpFR	5	5	-1	POT	1114	n/a	-1	n/a	n/a	n/a	n/a	n/a
846703	REC_WORD	wordpools/wasnorm_wordpool.txt	LTP093	ltpFR	5	5	-1	COBRA	336	n/a	-1	n/a	n/a	n/a	n/a	n/a
849596	REC_WORD	wordpools/wasnorm_wordpool.txt	LTP093	ltpFR	5	5	-1	TEA	1439	n/a	-1	n/a	n/a	n/a	n/a	n/a
876360	REC_WORD	wordpools/wasnorm_wordpool.txt	LTP093	ltpFR	5	5	-1	LIZARD	834	n/a	-1	n/a	n/a	n/a	n/a	n/a
942893	WORD	wordpools/wasnorm_wordpool.txt	LTP093	ltpFR	5	6	-1	FLUTE	585	n/a	-1	1	1.0	1.0	upper	../fonts/Verdana.ttf
946872	WORD	wordpools/wasnorm_wordpool.txt	LTP093	ltpFR	5	6	-1	CONCERT	360	n/a	-1	1	1.0	1.0	upper	../fonts/Verdana.ttf
951001	WORD	wordpools/wasnorm_wordpool.txt	LTP093	ltpFR	5	6	-1	ZUCCHINI	1638	n/a	-1	1	1.0	1.0	upper	../fonts/Verdana.ttf
955055	WORD	wordpools/wasnorm_wordpool.txt	LTP093	ltpFR	5	6	-1	SCALLOP	1242	n/a	-1	1	1.0	1.0	upper	../fonts/Verdana.ttf
958908	WORD	wordpools/wasnorm_wordpool.txt	LTP093	ltpFR	5	6	-1	RATTLE	1170	n/a	-1	1	1.0	1.0	upper	../fonts/Verdana.ttf
962995	WORD	wordpools/wasnorm_wordpool.txt	LTP093	ltpFR	5	6	-1	LEAF	808	n/a	-1	1	1.0	1.0	upper	../fonts/Verdana.ttf
967198	WORD	wordpools/wasnorm_wordpool.txt	LTP093	ltpFR	5	6	-1	SHEEP	1278	n/a	-1	1	1.0	1.0	upper	../fonts/Verdana.ttf
971385	WORD	wordpools/wasnorm_wordpool.txt	LTP093	ltpFR	5	6	-1	SHED	1277	n/a	-1	1	1.0	1.0	upper	../fonts/Verdana.ttf
975381	WORD	wordpools/wasnorm_wordpool.txt	LTP093	ltpFR	5	6	-1	FOREST	593	n/a	-1	1	1.0	1.0	upper	../fonts/Verdana.ttf
979243	WORD	wordpools/wasnorm_wordpool.txt	LTP093	ltpFR	5	6	-1	GRAVEL	659	n/a	-1	1	1.0	1.0	upper	../fonts/Verdana.ttf
983288	WORD	wordpools/wasnorm_wordpool.txt	LTP093	ltpFR	5	6	-1	PAVEMENT	1028	n/a	-1	1	1.0	1.0	upper	../fonts/Verdana.ttf
987233	WORD	wordpools/wasnorm_wordpool.txt	LTP093	ltpFR	5	6	-1	EAR	513	n/a	-1	1	1.0	1.0	upper	../fonts/Verdana.ttf
991072	WORD	wordpools/wasnorm_wordpool.txt	LTP093	ltpFR	5	6	-1	CONSOLE	364	n/a	-1	1	1.0	1.0	upper	../fonts/Verdana.ttf
994899	WORD	wordpools/wasnorm_wordpool.txt	LTP093	ltpFR	5	6	-1	TOURIST	1488	n/a	-1	1	1.0	1.0	upper	../fonts/Verdana.ttf
998912	WORD	wordpools/wasnorm_wordpool.txt	LTP093	ltpFR	5	6	-1	GRATE	657	n/a	-1	1	1.0	1.0	upper	../fonts/Verdana.ttf
1002840	WORD	wordpools/wasnorm_wordpool.txt	LTP093	ltpFR	5	6	-1	WINDSHIELD	1612	n/a	-1	1	1.0	1.0	upper	../fonts/Verdana.ttf
1008676	REC_START	n/a	LTP093	ltpFR	5	6	n/a	n/a	n/a	n/a	n/a	n/a	n/a	n/a	n/a	n/a
1009898	REC_WORD	wordpools/wasnorm_wordpool.txt	LTP093	ltpFR	5	6	-1	GRATE	657	n/a	-1	n/a	n/a	n/a	n/a	n/a
1010786	REC_WORD	wordpools/wasnorm_wordpool.txt	LTP093	ltpFR	5	6	-1	WINDSHIELD	1612	n/a	-1	n/a	n/a	n/a	n/a	n/a
1012702	REC_WORD	wordpools/wasnorm_wordpool.txt	LTP093	ltpFR	5	6	-1	FLUTE	585	n/a	-1	n/a	n/a	n/a	n/a	n/a
1013754	REC_WORD	wordpools/wasnorm_wordpool.txt	LTP093	ltpFR	5	6	-1	CONCERT	360	n/a	-1	n/a	n/a	n/a	n/a	n/a
1023911	REC_WORD	wordpools/wasnorm_wordpool.txt	LTP093	ltpFR	5	6	-1	TOURIST	1488	n/a	-1	n/a	n/a	n/a	n/a	n/a
1031334	REC_WORD	wordpools/wasnorm_wordpool.txt	LTP093	ltpFR	5	6	-1	GRAVEL	659	n/a	-1	n/a	n/a	n/a	n/a	n/a
1145816	WORD	wordpools/wasnorm_wordpool.txt	LTP093	ltpFR	5	7	0	LIGHTNING	820	n/a	1	0	0.5869140625	0.422607421875	lower	../fonts/amplitud.ttf
1149795	WORD	wordpools/wasnorm_wordpool.txt	LTP093	ltpFR	5	7	0	PIG	1064	n/a	1	0	0.5869140625	0.422607421875	lower	../fonts/amplitud.ttf
1153923	WORD	wordpools/wasnorm_wordpool.txt	LTP093	ltpFR	5	7	0	SKUNK	1321	n/a	0	0	0.5869140625	0.422607421875	lower	../fonts/amplitud.ttf
1157835	WORD	wordpools/wasnorm_wordpool.txt	LTP093	ltpFR	5	7	0	SARDINE	1235	n/a	0	0	0.5869140625	0.422607421875	lower	../fonts/amplitud.ttf
1161772	WORD	wordpools/wasnorm_wordpool.txt	LTP093	ltpFR	5	7	0	CUCUMBER	421	n/a	0	0	0.5869140625	0.422607421875	lower	../fonts/amplitud.ttf
1165868	WORD	wordpools/wasnorm_wordpool.txt	LTP093	ltpFR	5	7	0	RELISH	1183	n/a	0	0	0.5869140625	0.422607421875	lower	../fonts/amplitud.ttf
1169821	WORD	wordpools/wasnorm_wordpool.txt	LTP093	ltpFR	5	7	0	CLOWN	330	n/a	1	0	0.5869140625	0.422607421875	lower	../fonts/amplitud.ttf
1173825	WORD	wordpools/wasnorm_wordpool.txt	LTP093	ltpFR	5	7	0	STEAM	1375	n/a	0	0	0.5869140625	0.422607421875	lower	../fonts/amplitud.ttf
1177804	WORD	wordpools/wasnorm_wordpool.txt	LTP093	ltpFR	5	7	0	HAIL	676	n/a	0	0	0.5869140625	0.422607421875	lower	../fonts/amplitud.ttf
1181849	WORD	wordpools/wasnorm_wordpool.txt	LTP093	ltpFR	5	7	0	CIRCUS	311	n/a	1	0	0.5869140625	0.422607421875	lower	../fonts/amplitud.ttf
1185844	WORD	wordpools/wasnorm_wordpool.txt	LTP093	ltpFR	5	7	0	KETCHUP	771	n/a	0	0	0.5869140625	0.422607421875	lower	../fonts/amplitud.ttf
1189873	WORD	wordpools/wasnorm_wordpool.txt	LTP093	ltpFR	5	7	0	DILL	465	n/a	0	0	0.5869140625	0.422607421875	lower	../fonts/amplitud.ttf
1193818	WORD	wordpools/wasnorm_wordpool.txt	LTP093	ltpFR	5	7	0	MEDAL	885	n/a	0	0	0.5869140625	0.422607421875	lower	../fonts/amplitud.ttf
1197955	WORD	wordpools/wasnorm_wordpool.txt	LTP093	ltpFR	5	7	0	WHEEL	1603	n/a	0	0	0.5869140625	0.422607421875	lower	../fonts/amplitud.ttf
1202060	WORD	wordpools/wasnorm_wordpool.txt	LTP093	ltpFR	5	7	0	VEHICLE	1553	n/a	1	0	0.5869140625	0.422607421875	lower	../fonts/amplitud.ttf
1205913	WORD	wordpools/wasnorm_wordpool.txt	LTP093	ltpFR	5	7	0	DRINK	498	n/a	0	0	0.5869140625	0.422607421875	lower	../fonts/amplitud.ttf
1211732	REC_START	n/a	LTP093	ltpFR	5	7	n/a	n/a	n/a	n/a	n/a	n/a	n/a	n/a	n/a	n/a
1212410	REC_WORD	wordpools/wasnorm_wordpool.txt	LTP093	ltpFR	5	7	0	DRINK	498	n/a	0	n/a	n/a	n/a	n/a	n/a
1213158	REC_WORD	wordpools/wasnorm_wordpool.txt	LTP093	ltpFR	5	7	0	VEHICLE	1553	n/a	1	n/a	n/a	n/a	n/a	n/a
1214121	REC_WORD	wordpools/wasnorm_wordpool.txt	LTP093	ltpFR	5	7	0	WHEEL	1603	n/a	0	n/a	n/a	n/a	n/a	n/a
1214890	REC_WORD	wordpools/wasnorm_wordpool.txt	LTP093	ltpFR	5	7	0	CIRCUS	311	n/a	1	n/a	n/a	n/a	n/a	n/a
1215937	REC_WORD	wordpools/wasnorm_wordpool.txt	LTP093	ltpFR	5	7	0	CLOWN	330	n/a	1	n/a	n/a	n/a	n/a	n/a
1217249	REC_WORD	wordpools/wasnorm_wordpool.txt	LTP093	ltpFR	5	7	0	DILL	465	n/a	0	n/a	n/a	n/a	n/a	n/a
1218102	REC_WORD	wordpools/wasnorm_wordpool.txt	LTP093	ltpFR	5	7	n/a	PICKLE	1059	n/a	n/a	n/a	n/a	n/a	n/a	n/a
1222103	REC_WORD	wordpools/wasnorm_wordpool.txt	LTP093	ltpFR	5	7	0	LIGHTNING	820	n/a	1	n/a	n/a	n/a	n/a	n/a
1223156	REC_WORD	wordpools/wasnorm_wordpool.txt	LTP093	ltpFR	5	7	0	PIG	1064	n/a	1	n/a	n/a	n/a	n/a	n/a
1229037	REC_WORD	wordpools/wasnorm_wordpool.txt	LTP093	ltpFR	5	7	0	RELISH	1183	n/a	0	n/a	n/a	n/a	n/a	n/a
1298073	WORD	wordpools/wasnorm_wordpool.txt	LTP093	ltpFR	5	8	-1	TREAD	1499	n/a	-1	1	1.0	1.0	upper	../fonts/Verdana.ttf
1302243	WORD	wordpools/wasnorm_wordpool.txt	LTP093	ltpFR	5	8	-1	CREEK	404	n/a	-1	1	1.0	1.0	upper	../fonts/Verdana.ttf
1306196	WORD	wordpools/wasnorm_wordpool.txt	LTP093	ltpFR	5	8	-1	INMATE	738	n/a	-1	1	1.0	1.0	upper	../fonts/Verdana.ttf
1310109	WORD	wordpools/wasnorm_wordpool.txt	LTP093	ltpFR	5	8	-1	CAR	241	n/a	-1	1	1.0	1.0	upper	../fonts/Verdana.ttf
1313946	WORD	wordpools/wasnorm_wordpool.txt	LTP093	ltpFR	5	8	-1	BONE	148	n/a	-1	1	1.0	1.0	upper	../fonts/Verdana.ttf
1318041	WORD	wordpools/wasnorm_wordpool.txt	LTP093	ltpFR	5	8	-1	NECK	939	n/a	-1	1	1.0	1.0	upper	../fonts/Verdana.ttf
1321986	WORD	wordpools/wasnorm_wordpool.txt	LTP093	ltpFR	5	8	-1	TELESCOPE	1446	n/a	-1	1	1.0	1.0	upper	../fonts/Verdana.ttf
1325882	WORD	wordpools/wasnorm_wordpool.txt	LTP093	ltpFR	5	8	-1	BUGGY	188	n/a	-1	1	1.0	1.0	upper	../fonts/Verdana.ttf
1329861	WORD	wordpools/wasnorm_wordpool.txt	LTP093	ltpFR	5	8	-1	SUSPECT	1415	n/a	-1	1	1.0	1.0	upper	../fonts/Verdana.ttf
1333981	WORD	wordpools/wasnorm_wordpool.txt	LTP093	ltpFR	5	8	-1	BINDER	127	n/a	-1	1	1.0	1.0	upper	../fonts/Verdana.ttf
1337976	WORD	wordpools/wasnorm_wordpool.txt	LTP093	ltpFR	5	8	-1	ZEBRA	1635	n/a	-1	1	1.0	1.0	upper	../fonts/Verdana.ttf
1342172	WORD	wordpools/wasnorm_wordpool.txt	LTP093	ltpFR	5	8	-1	COUGAR	387	n/a	-1	1	1.0	1.0	upper	../fonts/Verdana.ttf
1346250	WORD	wordpools/wasnorm_wordpool.txt	LTP093	ltpFR	5	8	-1	EMERALD	528	n/a	-1	1	1.0	1.0	upper	../fonts/Verdana.ttf
1350229	WORD	wordpools/wasnorm_wordpool.txt	LTP093	ltpFR	5	8	-1	COLLEGE	346	n/a	-1	1	1.0	1.0	upper	../fonts/Verdana.ttf
1354424	WORD	wordpools/wasnorm_wordpool.txt	LTP093	ltpFR	5	8	-1	BAND	78	n/a	-1	1	1.0	1.0	upper	../fonts/Verdana.ttf
1358402	WORD	wordpools/wasnorm_wordpool.txt	LTP093	ltpFR	5	8	-1	ORGAN	984	n/a	-1	1	1.0	1.0	upper	../fonts/Verdana.ttf
1364123	REC_START	n/a	LTP093	ltpFR	5	8	n/a	n/a	n/a	n/a	n/a	n/a	n/a	n/a	n/a	n/a
1364662	REC_WORD	wordpools/wasnorm_wordpool.txt	LTP093	ltpFR	5	8	-1	ORGAN	984	n/a	-1	n/a	n/a	n/a	n/a	n/a
1365594	REC_WORD	wordpools/wasnorm_wordpool.txt	LTP093	ltpFR	5	8	-1	BAND	78	n/a	-1	n/a	n/a	n/a	n/a	n/a
1366757	REC_WORD	wordpools/wasnorm_wordpool.txt	LTP093	ltpFR	5	8	-1	COLLEGE	346	n/a	-1	n/a	n/a	n/a	n/a	n/a
1368109	REC_WORD	wordpools/wasnorm_wordpool.txt	LTP093	ltpFR	5	8	-1	BINDER	127	n/a	-1	n/a	n/a	n/a	n/a	n/a
1369216	REC_WORD	wordpools/wasnorm_wordpool.txt	LTP093	ltpFR	5	8	-1	BONE	148	n/a	-1	n/a	n/a	n/a	n/a	n/a
1371391	REC_WORD_VV	wordpools/wasnorm_wordpool.txt	LTP093	ltpFR	5	8	n/a	<>	-1	n/a	n/a	n/a	n/a	n/a	n/a	n/a
1383891	REC_WORD	wordpools/wasnorm_wordpool.txt	LTP093	ltpFR	5	8	-1	TREAD	1499	n/a	-1	n/a	n/a	n/a	n/a	n/a
1385310	REC_WORD	wordpools/wasnorm_wordpool.txt	LTP093	ltpFR	5	8	-1	CREEK	404	n/a	-1	n/a	n/a	n/a	n/a	n/a
1396040	REC_WORD	wordpools/wasnorm_wordpool.txt	LTP093	ltpFR	5	8	-1	INMATE	738	n/a	-1	n/a	n/a	n/a	n/a	n/a
1458636	WORD	wordpools/wasnorm_wordpool.txt	LTP093	ltpFR	5	9	0	HIGHWAY	707	n/a	0	0	0.5869140625	0.422607421875	lower	../fonts/amplitud.ttf
1462715	WORD	wordpools/wasnorm_wordpool.txt	LTP093	ltpFR	5	9	0	LABEL	790	n/a	0	0	0.5869140625	0.422607421875	lower	../fonts/amplitud.ttf
1466727	WORD	wordpools/wasnorm_wordpool.txt	LTP093	ltpFR	5	9	0	LIST	830	n/a	0	0	0.5869140625	0.422607421875	lower	../fonts/amplitud.ttf
1470730	WORD	wordpools/wasnorm_wordpool.txt	LTP093	ltpFR	5	9	0	NAPKIN	937	n/a	0	0	0.5869140625	0.422607421875	lower	../fonts/amplitud.ttf
1474742	WORD	wordpools/wasnorm_wordpool.txt	LTP093	ltpFR	5	9	0	DRUM	502	n/a	0	0	0.5869140625	0.422607421875	lower	../fonts/amplitud.ttf
1478621	WORD	wordpools/wasnorm_wordpool.txt	LTP093	ltpFR	5	9	0	WILDERNESS	1610	n/a	1	0	0.5869140625	0.422607421875	lower	../fonts/amplitud.ttf
1482600	WORD	wordpools/wasnorm_wordpool.txt	LTP093	ltpFR	5	9	0	BENCH	121	n/a	0	0	0.5869140625	0.422607421875	lower	../fonts/amplitud.ttf
1486620	WORD	wordpools/wasnorm_wordpool.txt	LTP093	ltpFR	5	9	0	CANVAS	234	n/a	0	0	0.5869140625	0.422607421875	lower	../fonts/amplitud.ttf
1490732	WORD	wordpools/wasnorm_wordpool.txt	LTP093	ltpFR	5	9	0	PAINTING	1005	n/a	0	0	0.5869140625	0.422607421875	lower	../fonts/amplitud.ttf
1494636	WORD	wordpools/wasnorm_wordpool.txt	LTP093	ltpFR	5	9	0	FUNGUS	614	n/a	0	0	0.5869140625	0.422607421875	lower	../fonts/amplitud.ttf
1498523	WORD	wordpools/wasnorm_wordpool.txt	LTP093	ltpFR	5	9	0	PICKLE	1059	n/a	0	0	0.5869140625	0.422607421875	lower	../fonts/amplitud.ttf
1502552	WORD	wordpools/wasnorm_wordpool.txt	LTP093	ltpFR	5	9	0	MARBLE	867	n/a	0	0	0.5869140625	0.422607421875	lower	../fonts/amplitud.ttf
1506630	WORD	wordpools/wasnorm_wordpool.txt	LTP093	ltpFR	5	9	0	KLEENEX	782	n/a	0	0	0.5869140625	0.422607421875	lower	../fonts/amplitud.ttf
1510576	WORD	wordpools/wasnorm_wordpool.txt	LTP093	ltpFR	5	9	0	FURNITURE	616	n/a	1	0	0.5869140625	0.422607421875	lower	../fonts/amplitud.ttf
1514496	WORD	wordpools/wasnorm_wordpool.txt	LTP093	ltpFR	5	9	0	PLAID	1080	n/a	0	0	0.5869140625	0.422607421875	lower	../fonts/amplitud.ttf
1518450	WORD	wordpools/wasnorm_wordpool.txt	LTP093	ltpFR	5	9	0	PEDESTRIAN	1038	n/a	0	0	0.5869140625	0.422607421875	lower	../fonts/amplitud.ttf
1524452	REC_START	n/a	LTP093	ltpFR	5	9	n/a	n/a	n/a	n/a	n/a	n/a	n/a	n/a	n/a	n/a
1524941	REC_WORD	wordpools/wasnorm_wordpool.txt	LTP093	ltpFR	5	9	0	PEDESTRIAN	1038	n/a	0	n/a	n/a	n/a	n/a	n/a
1526253	REC_WORD	wordpools/wasnorm_wordpool.txt	LTP093	ltpFR	5	9	0	PLAID	1080	n/a	0	n/a	n/a	n/a	n/a	n/a
1527465	REC_WORD	wordpools/wasnorm_wordpool.txt	LTP093	ltpFR	5	9	0	HIGHWAY	707	n/a	0	n/a	n/a	n/a	n/a	n/a
1528852	REC_WORD	wordpools/wasnorm_wordpool.txt	LTP093	ltpFR	5	9	0	BENCH	121	n/a	0	n/a	n/a	n/a	n/a	n/a
1530253	REC_WORD	wordpools/wasnorm_wordpool.txt	LTP093	ltpFR	5	9	0	WILDERNESS	1610	n/a	1	n/a	n/a	n/a	n/a	n/a
1532713	REC_WORD	wordpools/wasnorm_wordpool.txt	LTP093	ltpFR	5	9	0	NAPKIN	937	n/a	0	n/a	n/a	n/a	n/a	n/a
1539473	REC_WORD	wordpools/wasnorm_wordpool.txt	LTP093	ltpFR	5	9	0	PICKLE	1059	n/a	0	n/a	n/a	n/a	n/a	n/a
1554364	REC_WORD	wordpools/wasnorm_wordpool.txt	LTP093	ltpFR	5	9	0	DRUM	502	n/a	0	n/a	n/a	n/a	n/a	n/a
1561258	REC_WORD	wordpools/wasnorm_wordpool.txt	LTP093	ltpFR	5	9	0	CANVAS	234	n/a	0	n/a	n/a	n/a	n/a	n/a
1562655	REC_WORD	wordpools/wasnorm_wordpool.txt	LTP093	ltpFR	5	9	0	PAINTING	1005	n/a	0	n/a	n/a	n/a	n/a	n/a
1575007	REC_WORD	wordpools/wasnorm_wordpool.txt	LTP093	ltpFR	5	9	0	WILDERNESS	1610	n/a	1	n/a	n/a	n/a	n/a	n/a
1682161	WORD	wordpools/wasnorm_wordpool.txt	LTP093	ltpFR	5	10	0	CATERPILLAR	259	n/a	0	0	0.5869140625	0.422607421875	lower	../fonts/amplitud.ttf
1685997	WORD	wordpools/wasnorm_wordpool.txt	LTP093	ltpFR	5	10	0	MOTH	920	n/a	0	0	0.5869140625	0.422607421875	lower	../fonts/amplitud.ttf
1689992	WORD	wordpools/wasnorm_wordpool.txt	LTP093	ltpFR	5	10	0	SPATULA	1348	n/a	0	0	0.5869140625	0.422607421875	lower	../fonts/amplitud.ttf
1693896	WORD	wordpools/wasnorm_wordpool.txt	LTP093	ltpFR	5	10	0	RECIPE	1175	n/a	0	0	0.5869140625	0.422607421875	lower	../fonts/amplitud.ttf
1697983	WORD	wordpools/wasnorm_wordpool.txt	LTP093	ltpFR	5	10	0	NEWSSTAND	949	n/a	1	0	0.5869140625	0.422607421875	lower	../fonts/amplitud.ttf
1702063	WORD	wordpools/wasnorm_wordpool.txt	LTP093	ltpFR	5	10	0	ROOF	1205	n/a	1	0	0.5869140625	0.422607421875	lower	../fonts/amplitud.ttf
1706257	WORD	wordpools/wasnorm_wordpool.txt	LTP093	ltpFR	5	10	0	CRIB	407	n/a	0	0	0.5869140625	0.422607421875	lower	../fonts/amplitud.ttf
1710186	WORD	wordpools/wasnorm_wordpool.txt	LTP093	ltpFR	5	10	0	BELLY	119	n/a	1	0	0.5869140625	0.422607421875	lower	../fonts/amplitud.ttf
1714065	WORD	wordpools/wasnorm_wordpool.txt	LTP093	ltpFR	5	10	0	SOLDIER	1344	n/a	1	0	0.5869140625	0.422607421875	lower	../fonts/amplitud.ttf
1718268	WORD	wordpools/wasnorm_wordpool.txt	LTP093	ltpFR	5	10	0	TRENCH	1503	n/a	1	0	0.5869140625	0.422607421875	lower	../fonts/amplitud.ttf
1722246	WORD	wordpools/wasnorm_wordpool.txt	LTP093	ltpFR	5	10	0	HOUSE	725	n/a	1	0	0.5869140625	0.422607421875	lower	../fonts/amplitud.ttf
1726233	WORD	wordpools/wasnorm_wordpool.txt	LTP093	ltpFR	5	10	0	CABINET	212	n/a	0	0	0.5869140625	0.422607421875	lower	../fonts/amplitud.ttf
1730312	WORD	wordpools/wasnorm_wordpool.txt	LTP093	ltpFR	5	10	0	CRADLE	399	n/a	0	0	0.5869140625	0.422607421875	lower	../fonts/amplitud.ttf
1734208	WORD	wordpools/wasnorm_wordpool.txt	LTP093	ltpFR	5	10	0	PATH	1023	n/a	1	0	0.5869140625	0.422607421875	lower	../fonts/amplitud.ttf
1738187	WORD	wordpools/wasnorm_wordpool.txt	LTP093	ltpFR	5	10	0	CEREAL	272	n/a	0	0	0.5869140625	0.422607421875	lower	../fonts/amplitud.ttf
1742365	WORD	wordpools/wasnorm_wordpool.txt	LTP093	ltpFR	5	10	0	OFFICER	973	n/a	1	0	0.5869140625	0.422607421875	lower	../fonts/amplitud.ttf
1747975	REC_START	n/a	LTP093	ltpFR	5	10	n/a	n/a	n/a	n/a	n/a	n/a	n/a	n/a	n/a	n/a
1748638	REC_WORD	wordpools/wasnorm_wordpool.txt	LTP093	ltpFR	5	10	0	OFFICER	973	n/a	1	n/a	n/a	n/a	n/a	n/a
1749606	REC_WORD	wordpools/wasnorm_wordpool.txt	LTP093	ltpFR	5	10	0	SOLDIER	1344	n/a	1	n/a	n/a	n/a	n/a	n/a
1750699	REC_WORD	wordpools/wasnorm_wordpool.txt	LTP093	ltpFR	5	10	0	TRENCH	1503	n/a	1	n/a	n/a	n/a	n/a	n/a
1751811	REC_WORD	wordpools/wasnorm_wordpool.txt	LTP093	ltpFR	5	10	0	CEREAL	272	n/a	0	n/a	n/a	n/a	n/a	n/a
1753013	REC_WORD	wordpools/wasnorm_wordpool.txt	LTP093	ltpFR	5	10	0	RECIPE	1175	n/a	0	n/a	n/a	n/a	n/a	n/a
1754246	REC_WORD	wordpools/wasnorm_wordpool.txt	LTP093	ltpFR	5	10	0	CABINET	212	n/a	0	n/a	n/a	n/a	n/a	n/a
1755418	REC_WORD	wordpools/wasnorm_wordpool.txt	LTP093	ltpFR	5	10	0	HOUSE	725	n/a	1	n/a	n/a	n/a	n/a	n/a
1756346	REC_WORD	wordpools/wasnorm_wordpool.txt	LTP093	ltpFR	5	10	0	ROOF	1205	n/a	1	n/a	n/a	n/a	n/a	n/a
1757413	REC_WORD	wordpools/wasnorm_wordpool.txt	LTP093	ltpFR	5	10	0	NEWSSTAND	949	n/a	1	n/a	n/a	n/a	n/a	n/a
1770638	REC_WORD	wordpools/wasnorm_wordpool.txt	LTP093	ltpFR	5	10	0	CRADLE	399	n/a	0	n/a	n/a	n/a	n/a	n/a
1771701	REC_WORD	wordpools/wasnorm_wordpool.txt	LTP093	ltpFR	5	10	0	CRIB	407	n/a	0	n/a	n/a	n/a	n/a	n/a
1836256	WORD	wordpools/wasnorm_wordpool.txt	LTP093	ltpFR	5	11	1	CHILD	299	n/a	1	1	0.412841796875	0.57763671875	upper	../fonts/zerothre.ttf
1840426	WORD	wordpools/wasnorm_wordpool.txt	LTP093	ltpFR	5	11	1	NOTE	958	n/a	0	1	0.412841796875	0.57763671875	upper	../fonts/zerothre.ttf
1844405	WORD	wordpools/wasnorm_wordpool.txt	LTP093	ltpFR	5	11	1	CARD	243	n/a	0	1	0.412841796875	0.57763671875	upper	../fonts/zerothre.ttf
1848267	WORD	wordpools/wasnorm_wordpool.txt	LTP093	ltpFR	5	11	1	STEWARDESS	1381	n/a	1	1	0.412841796875	0.57763671875	upper	../fonts/zerothre.ttf
1852270	WORD	wordpools/wasnorm_wordpool.txt	LTP093	ltpFR	5	11	1	FORK	594	n/a	0	1	0.412841796875	0.57763671875	upper	../fonts/zerothre.ttf
1856249	WORD	wordpools/wasnorm_wordpool.txt	LTP093	ltpFR	5	11	0	CHEMIST	292	n/a	3	0	0.5869140625	0.422607421875	lower	../fonts/amplitud.ttf
1858214	KEY_MSG	n/a	LTP093	ltpFR	5	11	n/a	n/a	n/a	n/a	n/a	n/a	n/a	n/a	n/a	n/a
1860619	WORD	wordpools/wasnorm_wordpool.txt	LTP093	ltpFR	5	11	0	ALMOND	18	n/a	0	0	0.5869140625	0.422607421875	lower	../fonts/amplitud.ttf
1864789	WORD	wordpools/wasnorm_wordpool.txt	LTP093	ltpFR	5	11	0	BABY	64	n/a	0	0	0.5869140625	0.422607421875	lower	../fonts/amplitud.ttf
1868835	WORD	wordpools/wasnorm_wordpool.txt	LTP093	ltpFR	5	11	0	CAPE	237	n/a	0	0	0.5869140625	0.422607421875	lower	../fonts/amplitud.ttf
1873005	WORD	wordpools/wasnorm_wordpool.txt	LTP093	ltpFR	5	11	0	ARENA	37	n/a	1	0	0.5869140625	0.422607421875	lower	../fonts/amplitud.ttf
1877033	WORD	wordpools/wasnorm_wordpool.txt	LTP093	ltpFR	5	11	0	NAVIGATOR	938	n/a	0	0	0.5869140625	0.422607421875	lower	../fonts/amplitud.ttf
1880879	WORD	wordpools/wasnorm_wordpool.txt	LTP093	ltpFR	5	11	1	SALAD	1224	n/a	0	1	0.412841796875	0.57763671875	upper	../fonts/zerothre.ttf
1884999	WORD	wordpools/wasnorm_wordpool.txt	LTP093	ltpFR	5	11	1	LETTUCE	814	n/a	1	1	0.412841796875	0.57763671875	upper	../fonts/zerothre.ttf
1889137	WORD	wordpools/wasnorm_wordpool.txt	LTP093	ltpFR	5	11	1	POND	1101	n/a	1	1	0.412841796875	0.57763671875	upper	../fonts/zerothre.ttf
1893248	WORD	wordpools/wasnorm_wordpool.txt	LTP093	ltpFR	5	11	0	LAKE	796	n/a	1	0	0.5869140625	0.422607421875	lower	../fonts/amplitud.ttf
1897410	WORD	wordpools/wasnorm_wordpool.txt	LTP093	ltpFR	5	11	0	FAMILY	550	n/a	0	0	0.5869140625	0.422607421875	lower	../fonts/amplitud.ttf
1903113	REC_START	n/a	LTP093	ltpFR	5	11	n/a	n/a	n/a	n/a	n/a	n/a	n/a	n/a	n/a	n/a
1903551	REC_WORD	wordpools/wasnorm_wordpool.txt	LTP093	ltpFR	5	11	0	FAMILY	550	n/a	0	n/a	n/a	n/a	n/a	n/a
1904669	REC_WORD	wordpools/wasnorm_wordpool.txt	LTP093	ltpFR	5	11	0	LAKE	796	n/a	1	n/a	n/a	n/a	n/a	n/a
1905812	REC_WORD	wordpools/wasnorm_wordpool.txt	LTP093	ltpFR	5	11	1	POND	1101	n/a	1	n/a	n/a	n/a	n/a	n/a
1907089	REC_WORD	wordpools/wasnorm_wordpool.txt	LTP093	ltpFR	5	11	0	CHEMIST	292	n/a	3	n/a	n/a	n/a	n/a	n/a
1911948	REC_WORD	wordpools/wasnorm_wordpool.txt	LTP093	ltpFR	5	11	0	NAVIGATOR	938	n/a	0	n/a	n/a	n/a	n/a	n/a
1924295	REC_WORD	wordpools/wasnorm_wordpool.txt	LTP093	ltpFR	5	11	1	CHILD	299	n/a	1	n/a	n/a	n/a	n/a	n/a
1925387	REC_WORD	wordpools/wasnorm_wordpool.txt	LTP093	ltpFR	5	11	0	BABY	64	n/a	0	n/a	n/a	n/a	n/a	n/a
1932526	REC_WORD	wordpools/wasnorm_wordpool.txt	LTP093	ltpFR	5	11	1	LETTUCE	814	n/a	1	n/a	n/a	n/a	n/a	n/a
1933399	REC_WORD	wordpools/wasnorm_wordpool.txt	LTP093	ltpFR	5	11	1	SALAD	1224	n/a	0	n/a	n/a	n/a	n/a	n/a
2046130	WORD	wordpools/wasnorm_wordpool.txt	LTP093	ltpFR	5	12	0	PREDATOR	1120	n/a	1	0	0.5869140625	0.422607421875	lower	../fonts/amplitud.ttf
2050207	WORD	wordpools/wasnorm_wordpool.txt	LTP093	ltpFR	5	12	0	RODENT	1204	n/a	0	0	0.5869140625	0.422607421875	lower	../fonts/amplitud.ttf
2054137	WORD	wordpools/wasnorm_wordpool.txt	LTP093	ltpFR	5	12	0	DONOR	485	n/a	1	0	0.5869140625	0.422607421875	lower	../fonts/amplitud.ttf
2057982	WORD	wordpools/wasnorm_wordpool.txt	LTP093	ltpFR	5	12	0	LUNG	850	n/a	0	0	0.5869140625	0.422607421875	lower	../fonts/amplitud.ttf
2062010	WORD	wordpools/wasnorm_wordpool.txt	LTP093	ltpFR	5	12	0	BOYFRIEND	162	n/a	1	0	0.5869140625	0.422607421875	lower	../fonts/amplitud.ttf
2066022	WORD	wordpools/wasnorm_wordpool.txt	LTP093	ltpFR	5	12	1	KID	775	n/a	1	1	0.412841796875	0.57763671875	upper	../fonts/zerothre.ttf
2069934	WORD	wordpools/wasnorm_wordpool.txt	LTP093	ltpFR	5	12	1	BANANA	77	n/a	1	1	0.412841796875	0.57763671875	upper	../fonts/zerothre.ttf
2074081	WORD	wordpools/wasnorm_wordpool.txt	LTP093	ltpFR	5	12	1	ROSE	1212	n/a	1	1	0.412841796875	0.57763671875	upper	../fonts/zerothre.ttf
2078142	WORD	wordpools/wasnorm_wordpool.txt	LTP093	ltpFR	5	12	1	FREEZER	604	n/a	0	1	0.412841796875	0.57763671875	upper	../fonts/zerothre.ttf
2082295	WORD	wordpools/wasnorm_wordpool.txt	LTP093	ltpFR	5	12	1	RUST	1219	n/a	0	1	0.412841796875	0.57763671875	upper	../fonts/zerothre.ttf
2086158	WORD	wordpools/wasnorm_wordpool.txt	LTP093	ltpFR	5	12	0	FRIEND	606	n/a	0	0	0.5869140625	0.422607421875	lower	../fonts/amplitud.ttf
2090227	WORD	wordpools/wasnorm_wordpool.txt	LTP093	ltpFR	5	12	0	BLOSSOM	138	n/a	0	0	0.5869140625	0.422607421875	lower	../fonts/amplitud.ttf
2094381	WORD	wordpools/wasnorm_wordpool.txt	LTP093	ltpFR	5	12	0	OATMEAL	967	n/a	0	0	0.5869140625	0.422607421875	lower	../fonts/amplitud.ttf
2098534	WORD	wordpools/wasnorm_wordpool.txt	LTP093	ltpFR	5	12	1	RAISIN	1163	n/a	0	1	0.412841796875	0.57763671875	upper	../fonts/zerothre.ttf
2102663	WORD	wordpools/wasnorm_wordpool.txt	LTP093	ltpFR	5	12	1	JUDGE	761	n/a	1	1	0.412841796875	0.57763671875	upper	../fonts/zerothre.ttf
2106592	WORD	wordpools/wasnorm_wordpool.txt	LTP093	ltpFR	5	12	1	LAWYER	806	n/a	1	1	0.412841796875	0.57763671875	upper	../fonts/zerothre.ttf
2112694	REC_START	n/a	LTP093	ltpFR	5	12	n/a	n/a	n/a	n/a	n/a	n/a	n/a	n/a	n/a	n/a
2113397	REC_WORD	wordpools/wasnorm_wordpool.txt	LTP093	ltpFR	5	12	1	LAWYER	806	n/a	1	n/a	n/a	n/a	n/a	n/a
2114435	REC_WORD	wordpools/wasnorm_wordpool.txt	LTP093	ltpFR	5	12	1	JUDGE	761	n/a	1	n/a	n/a	n/a	n/a	n/a
2115408	REC_WORD	wordpools/wasnorm_wordpool.txt	LTP093	ltpFR	5	12	1	KID	775	n/a	1	n/a	n/a	n/a	n/a	n/a
2116480	REC_WORD	wordpools/wasnorm_wordpool.txt	LTP093	ltpFR	5	12	1	ROSE	1212	n/a	1	n/a	n/a	n/a	n/a	n/a
2120336	REC_WORD	wordpools/wasnorm_wordpool.txt	LTP093	ltpFR	5	12	0	PREDATOR	1120	n/a	1	n/a	n/a	n/a	n/a	n/a
2122282	REC_WORD	wordpools/wasnorm_wordpool.txt	LTP093	ltpFR	5	12	0	BOYFRIEND	162	n/a	1	n/a	n/a	n/a	n/a	n/a
2123359	REC_WORD	wordpools/wasnorm_wordpool.txt	LTP093	ltpFR	5	12	0	FRIEND	606	n/a	0	n/a	n/a	n/a	n/a	n/a
2129845	REC_WORD	wordpools/wasnorm_wordpool.txt	LTP093	ltpFR	5	12	0	DONOR	485	n/a	1	n/a	n/a	n/a	n/a	n/a
2130842	REC_WORD	wordpools/wasnorm_wordpool.txt	LTP093	ltpFR	5	12	0	LUNG	850	n/a	0	n/a	n/a	n/a	n/a	n/a
2154539	REC_WORD	wordpools/wasnorm_wordpool.txt	LTP093	ltpFR	5	12	1	RAISIN	1163	n/a	0	n/a	n/a	n/a	n/a	n/a
2161747	REC_WORD	wordpools/wasnorm_wordpool.txt	LTP093	ltpFR	5	12	0	BLOSSOM	138	n/a	0	n/a	n/a	n/a	n/a	n/a
2188264	REST_REWET	n/a	LTP093	ltpFR	5	12	n/a	n/a	n/a	n/a	n/a	n/a	n/a	n/a	n/a	n/a
2665509	WORD	wordpools/wasnorm_wordpool.txt	LTP093	ltpFR	5	13	0	YACHT	1629	n/a	1	0	0.5869140625	0.422607421875	lower	../fonts/amplitud.ttf
2669496	WORD	wordpools/wasnorm_wordpool.txt	LTP093	ltpFR	5	13	0	PRODUCER	1129	n/a	1	0	0.5869140625	0.422607421875	lower	../fonts/amplitud.ttf
2673575	WORD	wordpools/wasnorm_wordpool.txt	LTP093	ltpFR	5	13	1	SCREEN	1253	n/a	0	1	0.412841796875	0.57763671875	upper	../fonts/zerothre.ttf
2677445	WORD	wordpools/wasnorm_wordpool.txt	LTP093	ltpFR	5	13	1	PLUM	1090	n/a	0	1	0.412841796875	0.57763671875	upper	../fonts/zerothre.ttf
2681382	WORD	wordpools/wasnorm_wordpool.txt	LTP093	ltpFR	5	13	1	CHERRY	293	n/a	1	1	0.412841796875	0.57763671875	upper	../fonts/zerothre.ttf
2685353	WORD	wordpools/wasnorm_wordpool.txt	LTP093	ltpFR	5	13	1	SCHOOL	1248	n/a	0	1	0.412841796875	0.57763671875	upper	../fonts/zerothre.ttf
2689431	WORD	wordpools/wasnorm_wordpool.txt	LTP093	ltpFR	5	13	1	SALESMAN	1225	n/a	1	1	0.412841796875	0.57763671875	upper	../fonts/zerothre.ttf
2693452	WORD	wordpools/wasnorm_wordpool.txt	LTP093	ltpFR	5	13	1	CARAVAN	242	n/a	0	1	0.412841796875	0.57763671875	upper	../fonts/zerothre.ttf
2697572	WORD	wordpools/wasnorm_wordpool.txt	LTP093	ltpFR	5	13	0	MONSTER	912	n/a	1	0	0.5869140625	0.422607421875	lower	../fonts/amplitud.ttf
2701468	WORD	wordpools/wasnorm_wordpool.txt	LTP093	ltpFR	5	13	0	GROCERY	664	n/a	0	0	0.5869140625	0.422607421875	lower	../fonts/amplitud.ttf
2705405	WORD	wordpools/wasnorm_wordpool.txt	LTP093	ltpFR	5	13	0	PEANUT	1032	n/a	0	0	0.5869140625	0.422607421875	lower	../fonts/amplitud.ttf
2709450	WORD	wordpools/wasnorm_wordpool.txt	LTP093	ltpFR	5	13	1	PEPPER	1047	n/a	1	1	0.412841796875	0.57763671875	upper	../fonts/zerothre.ttf
2713628	WORD	wordpools/wasnorm_wordpool.txt	LTP093	ltpFR	5	13	1	MARKET	871	n/a	0	1	0.412841796875	0.57763671875	upper	../fonts/zerothre.ttf
2717449	WORD	wordpools/wasnorm_wordpool.txt	LTP093	ltpFR	5	13	0	PEOPLE	1046	n/a	0	0	0.5869140625	0.422607421875	lower	../fonts/amplitud.ttf
2721569	WORD	wordpools/wasnorm_wordpool.txt	LTP093	ltpFR	5	13	0	COMPANION	357	n/a	0	0	0.5869140625	0.422607421875	lower	../fonts/amplitud.ttf
2725431	WORD	wordpools/wasnorm_wordpool.txt	LTP093	ltpFR	5	13	0	DOUGH	489	n/a	0	0	0.5869140625	0.422607421875	lower	../fonts/amplitud.ttf
2731292	REC_START	n/a	LTP093	ltpFR	5	13	n/a	n/a	n/a	n/a	n/a	n/a	n/a	n/a	n/a	n/a
2732080	REC_WORD	wordpools/wasnorm_wordpool.txt	LTP093	ltpFR	5	13	0	DOUGH	489	n/a	0	n/a	n/a	n/a	n/a	n/a
2732858	REC_WORD	wordpools/wasnorm_wordpool.txt	LTP093	ltpFR	5	13	0	COMPANION	357	n/a	0	n/a	n/a	n/a	n/a	n/a
2734150	REC_WORD	wordpools/wasnorm_wordpool.txt	LTP093	ltpFR	5	13	0	PEOPLE	1046	n/a	0	n/a	n/a	n/a	n/a	n/a
2735333	REC_WORD	wordpools/wasnorm_wordpool.txt	LTP093	ltpFR	5	13	1	CHERRY	293	n/a	1	n/a	n/a	n/a	n/a	n/a
2736435	REC_WORD	wordpools/wasnorm_wordpool.txt	LTP093	ltpFR	5	13	1	PLUM	1090	n/a	0	n/a	n/a	n/a	n/a	n/a
2743270	REC_WORD	wordpools/wasnorm_wordpool.txt	LTP093	ltpFR	5	13	1	SCREEN	1253	n/a	0	n/a	n/a	n/a	n/a	n/a
2744736	REC_WORD	wordpools/wasnorm_wordpool.txt	LTP093	ltpFR	5	13	0	PRODUCER	1129	n/a	1	n/a	n/a	n/a	n/a	n/a
2746213	REC_WORD	wordpools/wasnorm_wordpool.txt	LTP093	ltpFR	5	13	0	MONSTER	912	n/a	1	n/a	n/a	n/a	n/a	n/a
2747620	REC_WORD	wordpools/wasnorm_wordpool.txt	LTP093	ltpFR	5	13	0	YACHT	1629	n/a	1	n/a	n/a	n/a	n/a	n/a
2758600	REC_WORD	wordpools/wasnorm_wordpool.txt	LTP093	ltpFR	5	13	1	SALESMAN	1225	n/a	1	n/a	n/a	n/a	n/a	n/a
2787015	REC_WORD	wordpools/wasnorm_wordpool.txt	LTP093	ltpFR	5	13	0	PEANUT	1032	n/a	0	n/a	n/a	n/a	n/a	n/a
2860791	WORD	wordpools/wasnorm_wordpool.txt	LTP093	ltpFR	5	14	1	MOUNTAIN	924	n/a	0	1	0.412841796875	0.57763671875	upper	../fonts/zerothre.ttf
2864819	WORD	wordpools/wasnorm_wordpool.txt	LTP093	ltpFR	5	14	1	CORK	380	n/a	1	1	0.412841796875	0.57763671875	upper	../fonts/zerothre.ttf
2868765	WORD	wordpools/wasnorm_wordpool.txt	LTP093	ltpFR	5	14	0	GUARDIAN	668	n/a	1	0	0.5869140625	0.422607421875	lower	../fonts/amplitud.ttf
2872752	WORD	wordpools/wasnorm_wordpool.txt	LTP093	ltpFR	5	14	0	ANCESTOR	20	n/a	1	0	0.5869140625	0.422607421875	lower	../fonts/amplitud.ttf
2876789	WORD	wordpools/wasnorm_wordpool.txt	LTP093	ltpFR	5	14	0	SANDPAPER	1231	n/a	0	0	0.5869140625	0.422607421875	lower	../fonts/amplitud.ttf
2880626	WORD	wordpools/wasnorm_wordpool.txt	LTP093	ltpFR	5	14	1	SLOPE	1328	n/a	0	1	0.412841796875	0.57763671875	upper	../fonts/zerothre.ttf
2884555	WORD	wordpools/wasnorm_wordpool.txt	LTP093	ltpFR	5	14	1	LAMB	797	n/a	1	1	0.412841796875	0.57763671875	upper	../fonts/zerothre.ttf
2888733	WORD	wordpools/wasnorm_wordpool.txt	LTP093	ltpFR	5	14	1	WAITRESS	1581	n/a	1	1	0.412841796875	0.57763671875	upper	../fonts/zerothre.ttf
2892837	WORD	wordpools/wasnorm_wordpool.txt	LTP093	ltpFR	5	14	1	SQUIRREL	1362	n/a	1	1	0.412841796875	0.57763671875	upper	../fonts/zerothre.ttf
2896649	WORD	wordpools/wasnorm_wordpool.txt	LTP093	ltpFR	5	14	0	CHIP	303	n/a	0	0	0.5869140625	0.422607421875	lower	../fonts/amplitud.ttf
2900761	WORD	wordpools/wasnorm_wordpool.txt	LTP093	ltpFR	5	14	0	UNCLE	1536	n/a	1	0	0.5869140625	0.422607421875	lower	../fonts/amplitud.ttf
2904790	WORD	wordpools/wasnorm_wordpool.txt	LTP093	ltpFR	5	14	0	BOLT	146	n/a	0	0	0.5869140625	0.422607421875	lower	../fonts/amplitud.ttf
2908752	WORD	wordpools/wasnorm_wordpool.txt	LTP093	ltpFR	5	14	0	ERASER	538	n/a	0	0	0.5869140625	0.422607421875	lower	../fonts/amplitud.ttf
2912572	WORD	wordpools/wasnorm_wordpool.txt	LTP093	ltpFR	5	14	0	PENCIL	1042	n/a	0	0	0.5869140625	0.422607421875	lower	../fonts/amplitud.ttf
2916659	WORD	wordpools/wasnorm_wordpool.txt	LTP093	ltpFR	5	14	1	SOCK	1339	n/a	0	1	0.412841796875	0.57763671875	upper	../fonts/zerothre.ttf
2920771	WORD	wordpools/wasnorm_wordpool.txt	LTP093	ltpFR	5	14	1	TOE	1473	n/a	1	1	0.412841796875	0.57763671875	upper	../fonts/zerothre.ttf
2926665	REC_START	n/a	LTP093	ltpFR	5	14	n/a	n/a	n/a	n/a	n/a	n/a	n/a	n/a	n/a	n/a
2927358	REC_WORD	wordpools/wasnorm_wordpool.txt	LTP093	ltpFR	5	14	1	TOE	1473	n/a	1	n/a	n/a	n/a	n/a	n/a
2928321	REC_WORD	wordpools/wasnorm_wordpool.txt	LTP093	ltpFR	5	14	1	SOCK	1339	n/a	0	n/a	n/a	n/a	n/a	n/a
2929738	REC_WORD	wordpools/wasnorm_wordpool.txt	LTP093	ltpFR	5	14	1	WAITRESS	1581	n/a	1	n/a	n/a	n/a	n/a	n/a
2965292	REC_WORD	wordpools/wasnorm_wordpool.txt	LTP093	ltpFR	5	14	1	MOUNTAIN	924	n/a	0	n/a	n/a	n/a	n/a	n/a
2966255	REC_WORD	wordpools/wasnorm_wordpool.txt	LTP093	ltpFR	5	14	1	SLOPE	1328	n/a	0	n/a	n/a	n/a	n/a	n/a
3039450	WORD	wordpools/wasnorm_wordpool.txt	LTP093	ltpFR	5	15	1	MEDICINE	886	n/a	0	1	0.412841796875	0.57763671875	upper	../fonts/zerothre.ttf
3043454	WORD	wordpools/wasnorm_wordpool.txt	LTP093	ltpFR	5	15	1	SUPPER	1411	n/a	0	1	0.412841796875	0.57763671875	upper	../fonts/zerothre.ttf
3047649	WORD	wordpools/wasnorm_wordpool.txt	LTP093	ltpFR	5	15	1	SAP	1233	n/a	1	1	0.412841796875	0.57763671875	upper	../fonts/zerothre.ttf
3051702	WORD	wordpools/wasnorm_wordpool.txt	LTP093	ltpFR	5	15	1	NICOTINE	951	n/a	0	1	0.412841796875	0.57763671875	upper	../fonts/zerothre.ttf
3055806	WORD	wordpools/wasnorm_wordpool.txt	LTP093	ltpFR	5	15	1	EARTH	515	n/a	1	1	0.412841796875	0.57763671875	upper	../fonts/zerothre.ttf
3059818	WORD	wordpools/wasnorm_wordpool.txt	LTP093	ltpFR	5	15	1	MANSION	864	n/a	0	1	0.412841796875	0.57763671875	upper	../fonts/zerothre.ttf
3063664	WORD	wordpools/wasnorm_wordpool.txt	LTP093	ltpFR	5	15	1	MONARCH	906	n/a	1	1	0.412841796875	0.57763671875	upper	../fonts/zerothre.ttf
3067717	WORD	wordpools/wasnorm_wordpool.txt	LTP093	ltpFR	5	15	1	TREE	1502	n/a	1	1	0.412841796875	0.57763671875	upper	../fonts/zerothre.ttf
3071754	WORD	wordpools/wasnorm_wordpool.txt	LTP093	ltpFR	5	15	1	PLANE	1081	n/a	0	1	0.412841796875	0.57763671875	upper	../fonts/zerothre.ttf
3075691	WORD	wordpools/wasnorm_wordpool.txt	LTP093	ltpFR	5	15	1	TICKET	1464	n/a	0	1	0.412841796875	0.57763671875	upper	../fonts/zerothre.ttf
3079853	WORD	wordpools/wasnorm_wordpool.txt	LTP093	ltpFR	5	15	1	MILDEW	893	n/a	1	1	0.412841796875	0.57763671875	upper	../fonts/zerothre.ttf
3083724	WORD	wordpools/wasnorm_wordpool.txt	LTP093	ltpFR	5	15	1	COWBOY	395	n/a	1	1	0.412841796875	0.57763671875	upper	../fonts/zerothre.ttf
3087577	WORD	wordpools/wasnorm_wordpool.txt	LTP093	ltpFR	5	15	1	INVENTOR	743	n/a	1	1	0.412841796875	0.57763671875	upper	../fonts/zerothre.ttf
3091498	WORD	wordpools/wasnorm_wordpool.txt	LTP093	ltpFR	5	15	1	CHOCOLATE	306	n/a	0	1	0.412841796875	0.57763671875	upper	../fonts/zerothre.ttf
3095518	WORD	wordpools/wasnorm_wordpool.txt	LTP093	ltpFR	5	15	1	DESSERT	453	n/a	0	1	0.412841796875	0.57763671875	upper	../fonts/zerothre.ttf
3099547	WORD	wordpools/wasnorm_wordpool.txt	LTP093	ltpFR	5	15	1	ASTEROID	50	n/a	0	1	0.412841796875	0.57763671875	upper	../fonts/zerothre.ttf
3105375	REC_START	n/a	LTP093	ltpFR	5	15	n/a	n/a	n/a	n/a	n/a	n/a	n/a	n/a	n/a	n/a
3106053	REC_WORD	wordpools/wasnorm_wordpool.txt	LTP093	ltpFR	5	15	1	ASTEROID	50	n/a	0	n/a	n/a	n/a	n/a	n/a
3107201	REC_WORD	wordpools/wasnorm_wordpool.txt	LTP093	ltpFR	5	15	1	EARTH	515	n/a	1	n/a	n/a	n/a	n/a	n/a
3107989	REC_WORD_VV	wordpools/wasnorm_wordpool.txt	LTP093	ltpFR	5	15	n/a	<>	-1	n/a	n/a	n/a	n/a	n/a	n/a	n/a
3109346	REC_WORD	wordpools/wasnorm_wordpool.txt	LTP093	ltpFR	5	15	1	CHOCOLATE	306	n/a	0	n/a	n/a	n/a	n/a	n/a
3110224	REC_WORD	wordpools/wasnorm_wordpool.txt	LTP093	ltpFR	5	15	1	DESSERT	453	n/a	0	n/a	n/a	n/a	n/a	n/a
3112020	REC_WORD	wordpools/wasnorm_wordpool.txt	LTP093	ltpFR	5	15	1	INVENTOR	743	n/a	1	n/a	n/a	n/a	n/a	n/a
3134184	REC_WORD	wordpools/wasnorm_wordpool.txt	LTP093	ltpFR	5	15	1	MONARCH	906	n/a	1	n/a	n/a	n/a	n/a	n/a
3137028	REC_WORD	wordpools/wasnorm_wordpool.txt	LTP093	ltpFR	5	15	1	COWBOY	395	n/a	1	n/a	n/a	n/a	n/a	n/a
3139886	REC_WORD	wordpools/wasnorm_wordpool.txt	LTP093	ltpFR	5	15	1	MILDEW	893	n/a	1	n/a	n/a	n/a	n/a	n/a
3277515	WORD	wordpools/wasnorm_wordpool.txt	LTP093	ltpFR	5	16	-1	MUG	930	n/a	-1	1	1.0	1.0	upper	../fonts/Verdana.ttf
3281502	WORD	wordpools/wasnorm_wordpool.txt	LTP093	ltpFR	5	16	-1	MASK	876	n/a	-1	1	1.0	1.0	upper	../fonts/Verdana.ttf
3285573	WORD	wordpools/wasnorm_wordpool.txt	LTP093	ltpFR	5	16	-1	TOENAIL	1474	n/a	-1	1	1.0	1.0	upper	../fonts/Verdana.ttf
3289659	WORD	wordpools/wasnorm_wordpool.txt	LTP093	ltpFR	5	16	-1	TRIANGLE	1504	n/a	-1	1	1.0	1.0	upper	../fonts/Verdana.ttf
3293705	WORD	wordpools/wasnorm_wordpool.txt	LTP093	ltpFR	5	16	-1	TOMB	1477	n/a	-1	1	1.0	1.0	upper	../fonts/Verdana.ttf
3297825	WORD	wordpools/wasnorm_wordpool.txt	LTP093	ltpFR	5	16	-1	DOCUMENT	479	n/a	-1	1	1.0	1.0	upper	../fonts/Verdana.ttf
3301953	WORD	wordpools/wasnorm_wordpool.txt	LTP093	ltpFR	5	16	-1	SECRETARY	1265	n/a	-1	1	1.0	1.0	upper	../fonts/Verdana.ttf
3305941	WORD	wordpools/wasnorm_wordpool.txt	LTP093	ltpFR	5	16	-1	ANGEL	22	n/a	-1	1	1.0	1.0	upper	../fonts/Verdana.ttf
3309828	WORD	wordpools/wasnorm_wordpool.txt	LTP093	ltpFR	5	16	-1	GARAGE	621	n/a	-1	1	1.0	1.0	upper	../fonts/Verdana.ttf
3313873	WORD	wordpools/wasnorm_wordpool.txt	LTP093	ltpFR	5	16	-1	STY	1397	n/a	-1	1	1.0	1.0	upper	../fonts/Verdana.ttf
3317818	WORD	wordpools/wasnorm_wordpool.txt	LTP093	ltpFR	5	16	-1	THUMB	1462	n/a	-1	1	1.0	1.0	upper	../fonts/Verdana.ttf
3321714	WORD	wordpools/wasnorm_wordpool.txt	LTP093	ltpFR	5	16	-1	ENGINE	535	n/a	-1	1	1.0	1.0	upper	../fonts/Verdana.ttf
3325584	WORD	wordpools/wasnorm_wordpool.txt	LTP093	ltpFR	5	16	-1	CROWN	415	n/a	-1	1	1.0	1.0	upper	../fonts/Verdana.ttf
3329571	WORD	wordpools/wasnorm_wordpool.txt	LTP093	ltpFR	5	16	-1	TRIGGER	1507	n/a	-1	1	1.0	1.0	upper	../fonts/Verdana.ttf
3333600	WORD	wordpools/wasnorm_wordpool.txt	LTP093	ltpFR	5	16	-1	BULLET	194	n/a	-1	1	1.0	1.0	upper	../fonts/Verdana.ttf
3337754	WORD	wordpools/wasnorm_wordpool.txt	LTP093	ltpFR	5	16	-1	SOCKET	1340	n/a	-1	1	1.0	1.0	upper	../fonts/Verdana.ttf
3343331	REC_START	n/a	LTP093	ltpFR	5	16	n/a	n/a	n/a	n/a	n/a	n/a	n/a	n/a	n/a	n/a
3343730	REC_WORD	wordpools/wasnorm_wordpool.txt	LTP093	ltpFR	5	16	-1	SOCKET	1340	n/a	-1	n/a	n/a	n/a	n/a	n/a
3344797	REC_WORD	wordpools/wasnorm_wordpool.txt	LTP093	ltpFR	5	16	-1	TRIGGER	1507	n/a	-1	n/a	n/a	n/a	n/a	n/a
3345645	REC_WORD	wordpools/wasnorm_wordpool.txt	LTP093	ltpFR	5	16	-1	BULLET	194	n/a	-1	n/a	n/a	n/a	n/a	n/a
3346723	REC_WORD	wordpools/wasnorm_wordpool.txt	LTP093	ltpFR	5	16	-1	CROWN	415	n/a	-1	n/a	n/a	n/a	n/a	n/a
3351323	REC_WORD	wordpools/wasnorm_wordpool.txt	LTP093	ltpFR	5	16	-1	TOMB	1477	n/a	-1	n/a	n/a	n/a	n/a	n/a
3352345	REC_WORD	wordpools/wasnorm_wordpool.txt	LTP093	ltpFR	5	16	-1	SECRETARY	1265	n/a	-1	n/a	n/a	n/a	n/a	n/a
3353587	REC_WORD	wordpools/wasnorm_wordpool.txt	LTP093	ltpFR	5	16	-1	ANGEL	22	n/a	-1	n/a	n/a	n/a	n/a	n/a
3364717	REC_WORD	wordpools/wasnorm_wordpool.txt	LTP093	ltpFR	5	16	-1	MUG	930	n/a	-1	n/a	n/a	n/a	n/a	n/a
3365690	REC_WORD	wordpools/wasnorm_wordpool.txt	LTP093	ltpFR	5	16	-1	MASK	876	n/a	-1	n/a	n/a	n/a	n/a	n/a
3367586	REC_WORD_VV	wordpools/wasnorm_wordpool.txt	LTP093	ltpFR	5	16	n/a	<>	-1	n/a	n/a	n/a	n/a	n/a	n/a	n/a
3443923	REC_START	n/a	LTP093	ltpFR	5	1	n/a	n/a	n/a	n/a	n/a	n/a	n/a	n/a	n/a	n/a
3443955	RECOG_TARGET	n/a	LTP093	ltpFR	5	1	0	UNCLE	1536	5	1	n/a	n/a	n/a	n/a	n/a
3446044	RECOG_RESP	n/a	LTP093	ltpFR	5	1	0	UNCLE	1536	n/a	1	n/a	n/a	n/a	n/a	n/a
3447560	RECOG_CONF	n/a	LTP093	ltpFR	5	1	0	UNCLE	1536	5	1	n/a	n/a	n/a	n/a	n/a
3449167	RECOG_TARGET	n/a	LTP093	ltpFR	5	1	1	PLUM	1090	5	0	n/a	n/a	n/a	n/a	n/a
3449794	RECOG_RESP	n/a	LTP093	ltpFR	5	1	1	PLUM	1090	n/a	0	n/a	n/a	n/a	n/a	n/a
3450563	RECOG_CONF	n/a	LTP093	ltpFR	5	1	1	PLUM	1090	5	0	n/a	n/a	n/a	n/a	n/a
3451929	RECOG_TARGET	n/a	LTP093	ltpFR	5	1	-1	MUG	930	5	-1	n/a	n/a	n/a	n/a	n/a
3452453	RECOG_RESP	n/a	LTP093	ltpFR	5	1	-1	MUG	930	n/a	-1	n/a	n/a	n/a	n/a	n/a
3453207	RECOG_CONF	n/a	LTP093	ltpFR	5	1	-1	MUG	930	5	-1	n/a	n/a	n/a	n/a	n/a
3454651	RECOG_TARGET	n/a	LTP093	ltpFR	5	1	-1	CUP	424	4	-1	n/a	n/a	n/a	n/a	n/a
3455561	RECOG_RESP	n/a	LTP093	ltpFR	5	1	-1	CUP	424	n/a	-1	n/a	n/a	n/a	n/a	n/a
3456150	RECOG_CONF	n/a	LTP093	ltpFR	5	1	-1	CUP	424	4	-1	n/a	n/a	n/a	n/a	n/a
3457548	RECOG_LURE	n/a	LTP093	ltpFR	5	1	n/a	LIME	823	4	n/a	n/a	n/a	n/a	n/a	n/a
3458275	RECOG_RESP	n/a	LTP093	ltpFR	5	1	n/a	LIME	823	n/a	n/a	n/a	n/a	n/a	n/a	n/a
3458954	RECOG_CONF	n/a	LTP093	ltpFR	5	1	n/a	LIME	823	4	n/a	n/a	n/a	n/a	n/a	n/a
3460303	RECOG_TARGET	n/a	LTP093	ltpFR	5	1	0	CRIB	407	5	0	n/a	n/a	n/a	n/a	n/a
3460874	RECOG_RESP	n/a	LTP093	ltpFR	5	1	0	CRIB	407	n/a	0	n/a	n/a	n/a	n/a	n/a
3461508	RECOG_CONF	n/a	LTP093	ltpFR	5	1	0	CRIB	407	5	0	n/a	n/a	n/a	n/a	n/a
3463008	RECOG_LURE	n/a	LTP093	ltpFR	5	1	n/a	APARTMENT	30	4	n/a	n/a	n/a	n/a	n/a	n/a
3463703	RECOG_RESP	n/a	LTP093	ltpFR	5	1	n/a	APARTMENT	30	n/a	n/a	n/a	n/a	n/a	n/a	n/a
3464232	RECOG_CONF	n/a	LTP093	ltpFR	5	1	n/a	APARTMENT	30	4	n/a	n/a	n/a	n/a	n/a	n/a
3465697	RECOG_TARGET	n/a	LTP093	ltpFR	5	1	1	CHOCOLATE	306	5	0	n/a	n/a	n/a	n/a	n/a
3466247	RECOG_RESP	n/a	LTP093	ltpFR	5	1	1	CHOCOLATE	306	n/a	0	n/a	n/a	n/a	n/a	n/a
3466836	RECOG_CONF	n/a	LTP093	ltpFR	5	1	1	CHOCOLATE	306	5	0	n/a	n/a	n/a	n/a	n/a
3468294	RECOG_TARGET	n/a	LTP093	ltpFR	5	1	1	LEG	809	5	1	n/a	n/a	n/a	n/a	n/a
3468826	RECOG_RESP	n/a	LTP093	ltpFR	5	1	1	LEG	809	n/a	1	n/a	n/a	n/a	n/a	n/a
3469450	RECOG_CONF	n/a	LTP093	ltpFR	5	1	1	LEG	809	5	1	n/a	n/a	n/a	n/a	n/a
3470874	RECOG_TARGET	n/a	LTP093	ltpFR	5	1	0	PEANUT	1032	5	0	n/a	n/a	n/a	n/a	n/a
3471430	RECOG_RESP	n/a	LTP093	ltpFR	5	1	0	PEANUT	1032	n/a	0	n/a	n/a	n/a	n/a	n/a
3472014	RECOG_CONF	n/a	LTP093	ltpFR	5	1	0	PEANUT	1032	5	0	n/a	n/a	n/a	n/a	n/a
3473446	RECOG_LURE	n/a	LTP093	ltpFR	5	1	n/a	CHEMICAL	291	4	n/a	n/a	n/a	n/a	n/a	n/a
3474603	RECOG_RESP	n/a	LTP093	ltpFR	5	1	n/a	CHEMICAL	291	n/a	n/a	n/a	n/a	n/a	n/a	n/a
3475257	RECOG_CONF	n/a	LTP093	ltpFR	5	1	n/a	CHEMICAL	291	4	n/a	n/a	n/a	n/a	n/a	n/a
3476692	RECOG_TARGET	n/a	LTP093	ltpFR	5	1	1	PEPPER	1047	5	1	n/a	n/a	n/a	n/a	n/a
3477237	RECOG_RESP	n/a	LTP093	ltpFR	5	1	1	PEPPER	1047	n/a	1	n/a	n/a	n/a	n/a	n/a
3477841	RECOG_CONF	n/a	LTP093	ltpFR	5	1	1	PEPPER	1047	5	1	n/a	n/a	n/a	n/a	n/a
3479256	RECOG_LURE	n/a	LTP093	ltpFR	5	1	n/a	CONDUCTOR	362	4	n/a	n/a	n/a	n/a	n/a	n/a
3480006	RECOG_RESP	n/a	LTP093	ltpFR	5	1	n/a	CONDUCTOR	362	n/a	n/a	n/a	n/a	n/a	n/a	n/a
3480674	RECOG_CONF	n/a	LTP093	ltpFR	5	1	n/a	CONDUCTOR	362	4	n/a	n/a	n/a	n/a	n/a	n/a
3482019	RECOG_TARGET	n/a	LTP093	ltpFR	5	1	0	DRILL	497	5	0	n/a	n/a	n/a	n/a	n/a
3482570	RECOG_RESP	n/a	LTP093	ltpFR	5	1	0	DRILL	497	n/a	0	n/a	n/a	n/a	n/a	n/a
3483179	RECOG_CONF	n/a	LTP093	ltpFR	5	1	0	DRILL	497	5	0	n/a	n/a	n/a	n/a	n/a
3484625	RECOG_TARGET	n/a	LTP093	ltpFR	5	1	-1	RATTLE	1170	4	-1	n/a	n/a	n/a	n/a	n/a
3485224	RECOG_RESP	n/a	LTP093	ltpFR	5	1	-1	RATTLE	1170	n/a	-1	n/a	n/a	n/a	n/a	n/a
3485853	RECOG_CONF	n/a	LTP093	ltpFR	5	1	-1	RATTLE	1170	4	-1	n/a	n/a	n/a	n/a	n/a
3487297	RECOG_LURE	n/a	LTP093	ltpFR	5	1	n/a	KITTEN	780	4	n/a	n/a	n/a	n/a	n/a	n/a
3488038	RECOG_RESP	n/a	LTP093	ltpFR	5	1	n/a	KITTEN	780	n/a	n/a	n/a	n/a	n/a	n/a	n/a
3488846	RECOG_CONF	n/a	LTP093	ltpFR	5	1	n/a	KITTEN	780	4	n/a	n/a	n/a	n/a	n/a	n/a
3490169	RECOG_TARGET	n/a	LTP093	ltpFR	5	1	0	NAPKIN	937	5	0	n/a	n/a	n/a	n/a	n/a
3490731	RECOG_RESP	n/a	LTP093	ltpFR	5	1	0	NAPKIN	937	n/a	0	n/a	n/a	n/a	n/a	n/a
3491310	RECOG_CONF	n/a	LTP093	ltpFR	5	1	0	NAPKIN	937	5	0	n/a	n/a	n/a	n/a	n/a
3492848	RECOG_TARGET	n/a	LTP093	ltpFR	5	1	1	MARKET	871	5	0	n/a	n/a	n/a	n/a	n/a
3493375	RECOG_RESP	n/a	LTP093	ltpFR	5	1	1	MARKET	871	n/a	0	n/a	n/a	n/a	n/a	n/a
3493954	RECOG_CONF	n/a	LTP093	ltpFR	5	1	1	MARKET	871	5	0	n/a	n/a	n/a	n/a	n/a
3495387	RECOG_LURE	n/a	LTP093	ltpFR	5	1	n/a	COLLAR	345	4	n/a	n/a	n/a	n/a	n/a	n/a
3496069	RECOG_RESP	n/a	LTP093	ltpFR	5	1	n/a	COLLAR	345	n/a	n/a	n/a	n/a	n/a	n/a	n/a
3496688	RECOG_CONF	n/a	LTP093	ltpFR	5	1	n/a	COLLAR	345	4	n/a	n/a	n/a	n/a	n/a	n/a
3498127	RECOG_LURE	n/a	LTP093	ltpFR	5	1	n/a	SCISSORS	1250	4	n/a	n/a	n/a	n/a	n/a	n/a
3498813	RECOG_RESP	n/a	LTP093	ltpFR	5	1	n/a	SCISSORS	1250	n/a	n/a	n/a	n/a	n/a	n/a	n/a
3499621	RECOG_CONF	n/a	LTP093	ltpFR	5	1	n/a	SCISSORS	1250	4	n/a	n/a	n/a	n/a	n/a	n/a
3507903	REC_START	n/a	LTP093	ltpFR	5	2	n/a	n/a	n/a	n/a	n/a	n/a	n/a	n/a	n/a	n/a
3507931	RECOG_LURE	n/a	LTP093	ltpFR	5	2	n/a	FRAGRANCE	599	4	n/a	n/a	n/a	n/a	n/a	n/a
3508736	RECOG_RESP	n/a	LTP093	ltpFR	5	2	n/a	FRAGRANCE	599	n/a	n/a	n/a	n/a	n/a	n/a	n/a
3509275	RECOG_CONF	n/a	LTP093	ltpFR	5	2	n/a	FRAGRANCE	599	4	n/a	n/a	n/a	n/a	n/a	n/a
3510778	RECOG_LURE	n/a	LTP093	ltpFR	5	2	n/a	FOE	587	4	n/a	n/a	n/a	n/a	n/a	n/a
3511385	RECOG_RESP	n/a	LTP093	ltpFR	5	2	n/a	FOE	587	n/a	n/a	n/a	n/a	n/a	n/a	n/a
3512108	RECOG_CONF	n/a	LTP093	ltpFR	5	2	n/a	FOE	587	4	n/a	n/a	n/a	n/a	n/a	n/a
3513508	RECOG_TARGET	n/a	LTP093	ltpFR	5	2	1	HAT	690	5	0	n/a	n/a	n/a	n/a	n/a
3514159	RECOG_RESP	n/a	LTP093	ltpFR	5	2	1	HAT	690	n/a	0	n/a	n/a	n/a	n/a	n/a
3514922	RECOG_CONF	n/a	LTP093	ltpFR	5	2	1	HAT	690	5	0	n/a	n/a	n/a	n/a	n/a
3516621	RECOG_LURE	n/a	LTP093	ltpFR	5	2	n/a	PEACH	1031	4	n/a	n/a	n/a	n/a	n/a	n/a
3517192	RECOG_RESP	n/a	LTP093	ltpFR	5	2	n/a	PEACH	1031	n/a	n/a	n/a	n/a	n/a	n/a	n/a
3517835	RECOG_CONF	n/a	LTP093	ltpFR	5	2	n/a	PEACH	1031	4	n/a	n/a	n/a	n/a	n/a	n/a
3519301	RECOG_LURE	n/a	LTP093	ltpFR	5	2	n/a	CRYSTAL	418	4	n/a	n/a	n/a	n/a	n/a	n/a
3519841	RECOG_RESP	n/a	LTP093	ltpFR	5	2	n/a	CRYSTAL	418	n/a	n/a	n/a	n/a	n/a	n/a	n/a
3520609	RECOG_CONF	n/a	LTP093	ltpFR	5	2	n/a	CRYSTAL	418	4	n/a	n/a	n/a	n/a	n/a	n/a
3522023	RECOG_LURE	n/a	LTP093	ltpFR	5	2	n/a	SHRUB	1299	4	n/a	n/a	n/a	n/a	n/a	n/a
3522924	RECOG_RESP_VV	n/a	LTP093	ltpFR	5	2	n/a	SHRUB	1299	n/a	n/a	n/a	n/a	n/a	n/a	n/a
3523522	RECOG_RESP	n/a	LTP093	ltpFR	5	2	n/a	SHRUB	1299	n/a	n/a	n/a	n/a	n/a	n/a	n/a
3524251	RECOG_CONF	n/a	LTP093	ltpFR	5	2	n/a	SHRUB	1299	4	n/a	n/a	n/a	n/a	n/a	n/a
3525669	RECOG_LURE	n/a	LTP093	ltpFR	5	2	n/a	SMOG	1330	4	n/a	n/a	n/a	n/a	n/a	n/a
3526276	RECOG_RESP	n/a	LTP093	ltpFR	5	2	n/a	SMOG	1330	n/a	n/a	n/a	n/a	n/a	n/a	n/a
3526825	RECOG_CONF	n/a	LTP093	ltpFR	5	2	n/a	SMOG	1330	4	n/a	n/a	n/a	n/a	n/a	n/a
3528341	RECOG_LURE	n/a	LTP093	ltpFR	5	2	n/a	CUSTARD	429	4	n/a	n/a	n/a	n/a	n/a	n/a
3528815	RECOG_RESP	n/a	LTP093	ltpFR	5	2	n/a	CUSTARD	429	n/a	n/a	n/a	n/a	n/a	n/a	n/a
3529469	RECOG_CONF	n/a	LTP093	ltpFR	5	2	n/a	CUSTARD	429	4	n/a	n/a	n/a	n/a	n/a	n/a
3530979	RECOG_TARGET	n/a	LTP093	ltpFR	5	2	0	PAINTING	1005	5	0	n/a	n/a	n/a	n/a	n/a
3531669	RECOG_RESP	n/a	LTP093	ltpFR	5	2	0	PAINTING	1005	n/a	0	n/a	n/a	n/a	n/a	n/a
3532342	RECOG_CONF	n/a	LTP093	ltpFR	5	2	0	PAINTING	1005	5	0	n/a	n/a	n/a	n/a	n/a
3533768	RECOG_LURE	n/a	LTP093	ltpFR	5	2	n/a	PENDULUM	1043	4	n/a	n/a	n/a	n/a	n/a	n/a
3534418	RECOG_RESP	n/a	LTP093	ltpFR	5	2	n/a	PENDULUM	1043	n/a	n/a	n/a	n/a	n/a	n/a	n/a
3535116	RECOG_CONF	n/a	LTP093	ltpFR	5	2	n/a	PENDULUM	1043	4	n/a	n/a	n/a	n/a	n/a	n/a
3536539	RECOG_TARGET	n/a	LTP093	ltpFR	5	2	0	FURNITURE	616	4	1	n/a	n/a	n/a	n/a	n/a
3537296	RECOG_RESP	n/a	LTP093	ltpFR	5	2	0	FURNITURE	616	n/a	1	n/a	n/a	n/a	n/a	n/a
3537940	RECOG_CONF	n/a	LTP093	ltpFR	5	2	0	FURNITURE	616	4	1	n/a	n/a	n/a	n/a	n/a
3539353	RECOG_TARGET	n/a	LTP093	ltpFR	5	2	0	PEOPLE	1046	5	0	n/a	n/a	n/a	n/a	n/a
3539915	RECOG_RESP	n/a	LTP093	ltpFR	5	2	0	PEOPLE	1046	n/a	0	n/a	n/a	n/a	n/a	n/a
3540524	RECOG_CONF	n/a	LTP093	ltpFR	5	2	0	PEOPLE	1046	5	0	n/a	n/a	n/a	n/a	n/a
3541933	RECOG_LURE	n/a	LTP093	ltpFR	5	2	n/a	PIT	1077	4	n/a	n/a	n/a	n/a	n/a	n/a
3542519	RECOG_RESP	n/a	LTP093	ltpFR	5	2	n/a	PIT	1077	n/a	n/a	n/a	n/a	n/a	n/a	n/a
3543198	RECOG_CONF	n/a	LTP093	ltpFR	5	2	n/a	PIT	1077	4	n/a	n/a	n/a	n/a	n/a	n/a
3544580	RECOG_LURE	n/a	LTP093	ltpFR	5	2	n/a	HINGE	709	4	n/a	n/a	n/a	n/a	n/a	n/a
3545143	RECOG_RESP	n/a	LTP093	ltpFR	5	2	n/a	HINGE	709	n/a	n/a	n/a	n/a	n/a	n/a	n/a
3545762	RECOG_CONF	n/a	LTP093	ltpFR	5	2	n/a	HINGE	709	4	n/a	n/a	n/a	n/a	n/a	n/a
3547285	RECOG_LURE	n/a	LTP093	ltpFR	5	2	n/a	AMBULANCE	19	4	n/a	n/a	n/a	n/a	n/a	n/a
3547887	RECOG_RESP	n/a	LTP093	ltpFR	5	2	n/a	AMBULANCE	19	n/a	n/a	n/a	n/a	n/a	n/a	n/a
3548496	RECOG_CONF	n/a	LTP093	ltpFR	5	2	n/a	AMBULANCE	19	4	n/a	n/a	n/a	n/a	n/a	n/a
3550015	RECOG_TARGET	n/a	LTP093	ltpFR	5	2	1	PUCK	1138	5	0	n/a	n/a	n/a	n/a	n/a
3550591	RECOG_RESP	n/a	LTP093	ltpFR	5	2	1	PUCK	1138	n/a	0	n/a	n/a	n/a	n/a	n/a
3551279	RECOG_CONF	n/a	LTP093	ltpFR	5	2	1	PUCK	1138	5	0	n/a	n/a	n/a	n/a	n/a
3552696	RECOG_LURE	n/a	LTP093	ltpFR	5	2	n/a	COFFIN	342	4	n/a	n/a	n/a	n/a	n/a	n/a
3553424	RECOG_RESP	n/a	LTP093	ltpFR	5	2	n/a	COFFIN	342	n/a	n/a	n/a	n/a	n/a	n/a	n/a
3553933	RECOG_CONF	n/a	LTP093	ltpFR	5	2	n/a	COFFIN	342	4	n/a	n/a	n/a	n/a	n/a	n/a
3555492	RECOG_LURE	n/a	LTP093	ltpFR	5	2	n/a	WEB	1598	4	n/a	n/a	n/a	n/a	n/a	n/a
3556108	RECOG_RESP	n/a	LTP093	ltpFR	5	2	n/a	WEB	1598	n/a	n/a	n/a	n/a	n/a	n/a	n/a
3556697	RECOG_CONF	n/a	LTP093	ltpFR	5	2	n/a	WEB	1598	4	n/a	n/a	n/a	n/a	n/a	n/a
3558065	RECOG_LURE	n/a	LTP093	ltpFR	5	2	n/a	SPAGHETTI	1346	4	n/a	n/a	n/a	n/a	n/a	n/a
3558737	RECOG_RESP	n/a	LTP093	ltpFR	5	2	n/a	SPAGHETTI	1346	n/a	n/a	n/a	n/a	n/a	n/a	n/a
3559401	RECOG_CONF	n/a	LTP093	ltpFR	5	2	n/a	SPAGHETTI	1346	4	n/a	n/a	n/a	n/a	n/a	n/a
3560828	RECOG_TARGET	n/a	LTP093	ltpFR	5	2	-1	CROWN	415	4	-1	n/a	n/a	n/a	n/a	n/a
3561501	RECOG_RESP	n/a	LTP093	ltpFR	5	2	-1	CROWN	415	n/a	-1	n/a	n/a	n/a	n/a	n/a
3562155	RECOG_CONF	n/a	LTP093	ltpFR	5	2	-1	CROWN	415	4	-1	n/a	n/a	n/a	n/a	n/a
3620576	REC_START	n/a	LTP093	ltpFR	5	3	n/a	n/a	n/a	n/a	n/a	n/a	n/a	n/a	n/a	n/a
3620608	RECOG_LURE	n/a	LTP093	ltpFR	5	3	n/a	RABBIT	1152	4	n/a	n/a	n/a	n/a	n/a	n/a
3621823	RECOG_RESP	n/a	LTP093	ltpFR	5	3	n/a	RABBIT	1152	n/a	n/a	n/a	n/a	n/a	n/a	n/a
3622367	RECOG_CONF	n/a	LTP093	ltpFR	5	3	n/a	RABBIT	1152	4	n/a	n/a	n/a	n/a	n/a	n/a
3623954	RECOG_LURE	n/a	LTP093	ltpFR	5	3	n/a	PRIMATE	1123	4	n/a	n/a	n/a	n/a	n/a	n/a
3624622	RECOG_RESP	n/a	LTP093	ltpFR	5	3	n/a	PRIMATE	1123	n/a	n/a	n/a	n/a	n/a	n/a	n/a
3625240	RECOG_CONF	n/a	LTP093	ltpFR	5	3	n/a	PRIMATE	1123	4	n/a	n/a	n/a	n/a	n/a	n/a
3626768	RECOG_LURE	n/a	LTP093	ltpFR	5	3	n/a	COIN	343	4	n/a	n/a	n/a	n/a	n/a	n/a
3627286	RECOG_RESP	n/a	LTP093	ltpFR	5	3	n/a	COIN	343	n/a	n/a	n/a	n/a	n/a	n/a	n/a
3627864	RECOG_CONF	n/a	LTP093	ltpFR	5	3	n/a	COIN	343	4	n/a	n/a	n/a	n/a	n/a	n/a
3629340	RECOG_TARGET	n/a	LTP093	ltpFR	5	3	0	YACHT	1629	5	1	n/a	n/a	n/a	n/a	n/a
3629940	RECOG_RESP	n/a	LTP093	ltpFR	5	3	0	YACHT	1629	n/a	1	n/a	n/a	n/a	n/a	n/a
3630548	RECOG_CONF	n/a	LTP093	ltpFR	5	3	0	YACHT	1629	5	1	n/a	n/a	n/a	n/a	n/a
3632129	RECOG_LURE	n/a	LTP093	ltpFR	5	3	n/a	TELEPHONE	1445	4	n/a	n/a	n/a	n/a	n/a	n/a
3632633	RECOG_RESP	n/a	LTP093	ltpFR	5	3	n/a	TELEPHONE	1445	n/a	n/a	n/a	n/a	n/a	n/a	n/a
3633252	RECOG_CONF	n/a	LTP093	ltpFR	5	3	n/a	TELEPHONE	1445	4	n/a	n/a	n/a	n/a	n/a	n/a
3634809	RECOG_TARGET	n/a	LTP093	ltpFR	5	3	-1	WARDROBE	1587	5	-1	n/a	n/a	n/a	n/a	n/a
3635567	RECOG_RESP	n/a	LTP093	ltpFR	5	3	-1	WARDROBE	1587	n/a	-1	n/a	n/a	n/a	n/a	n/a
3636086	RECOG_CONF	n/a	LTP093	ltpFR	5	3	-1	WARDROBE	1587	5	-1	n/a	n/a	n/a	n/a	n/a
3637572	RECOG_TARGET	n/a	LTP093	ltpFR	5	3	0	HIGHWAY	707	5	0	n/a	n/a	n/a	n/a	n/a
3638141	RECOG_RESP	n/a	LTP093	ltpFR	5	3	0	HIGHWAY	707	n/a	0	n/a	n/a	n/a	n/a	n/a
3638720	RECOG_CONF	n/a	LTP093	ltpFR	5	3	0	HIGHWAY	707	5	0	n/a	n/a	n/a	n/a	n/a
3640087	RECOG_LURE	n/a	LTP093	ltpFR	5	3	n/a	TOTE	1487	4	n/a	n/a	n/a	n/a	n/a	n/a
3640695	RECOG_RESP	n/a	LTP093	ltpFR	5	3	n/a	TOTE	1487	n/a	n/a	n/a	n/a	n/a	n/a	n/a
3641254	RECOG_CONF	n/a	LTP093	ltpFR	5	3	n/a	TOTE	1487	4	n/a	n/a	n/a	n/a	n/a	n/a
3642741	RECOG_LURE	n/a	LTP093	ltpFR	5	3	n/a	OUTFIT	988	4	n/a	n/a	n/a	n/a	n/a	n/a
3643224	RECOG_RESP	n/a	LTP093	ltpFR	5	3	n/a	OUTFIT	988	n/a	n/a	n/a	n/a	n/a	n/a	n/a
3643938	RECOG_CONF	n/a	LTP093	ltpFR	5	3	n/a	OUTFIT	988	4	n/a	n/a	n/a	n/a	n/a	n/a
3645330	RECOG_LURE	n/a	LTP093	ltpFR	5	3	n/a	GLACIER	638	4	n/a	n/a	n/a	n/a	n/a	n/a
3646033	RECOG_RESP	n/a	LTP093	ltpFR	5	3	n/a	GLACIER	638	n/a	n/a	n/a	n/a	n/a	n/a	n/a
3646602	RECOG_CONF	n/a	LTP093	ltpFR	5	3	n/a	GLACIER	638	4	n/a	n/a	n/a	n/a	n/a	n/a
3648018	RECOG_TARGET	n/a	LTP093	ltpFR	5	3	1	BILL	126	5	0	n/a	n/a	n/a	n/a	n/a
3648652	RECOG_RESP	n/a	LTP093	ltpFR	5	3	1	BILL	126	n/a	0	n/a	n/a	n/a	n/a	n/a
3649276	RECOG_CONF	n/a	LTP093	ltpFR	5	3	1	BILL	126	5	0	n/a	n/a	n/a	n/a	n/a
3650640	RECOG_LURE	n/a	LTP093	ltpFR	5	3	n/a	SPINE	1353	4	n/a	n/a	n/a	n/a	n/a	n/a
3652146	RECOG_RESP	n/a	LTP093	ltpFR	5	3	n/a	SPINE	1353	n/a	n/a	n/a	n/a	n/a	n/a	n/a
3652867	RECOG_CONF	n/a	LTP093	ltpFR	5	3	n/a	SPINE	1353	4	n/a	n/a	n/a	n/a	n/a	n/a
3654586	RECOG_TARGET	n/a	LTP093	ltpFR	5	3	-1	SHEEP	1278	4	-1	n/a	n/a	n/a	n/a	n/a
3657028	RECOG_RESP	n/a	LTP093	ltpFR	5	3	-1	SHEEP	1278	n/a	-1	n/a	n/a	n/a	n/a	n/a
3657826	RECOG_CONF	n/a	LTP093	ltpFR	5	3	-1	SHEEP	1278	4	-1	n/a	n/a	n/a	n/a	n/a
3659255	RECOG_LURE	n/a	LTP093	ltpFR	5	3	n/a	SPARROW	1347	4	n/a	n/a	n/a	n/a	n/a	n/a
3660994	RECOG_RESP	n/a	LTP093	ltpFR	5	3	n/a	SPARROW	1347	n/a	n/a	n/a	n/a	n/a	n/a	n/a
3661637	RECOG_CONF	n/a	LTP093	ltpFR	5	3	n/a	SPARROW	1347	4	n/a	n/a	n/a	n/a	n/a	n/a
3663292	RECOG_TARGET	n/a	LTP093	ltpFR	5	3	0	BOLT	146	4	0	n/a	n/a	n/a	n/a	n/a
3664336	RECOG_RESP	n/a	LTP093	ltpFR	5	3	0	BOLT	146	n/a	0	n/a	n/a	n/a	n/a	n/a
3664970	RECOG_CONF	n/a	LTP093	ltpFR	5	3	0	BOLT	146	4	0	n/a	n/a	n/a	n/a	n/a
3666555	RECOG_TARGET	n/a	LTP093	ltpFR	5	3	1	COACH	331	5	1	n/a	n/a	n/a	n/a	n/a
3667215	RECOG_RESP	n/a	LTP093	ltpFR	5	3	1	COACH	331	n/a	1	n/a	n/a	n/a	n/a	n/a
3667823	RECOG_CONF	n/a	LTP093	ltpFR	5	3	1	COACH	331	5	1	n/a	n/a	n/a	n/a	n/a
3669294	RECOG_TARGET	n/a	LTP093	ltpFR	5	3	0	VEHICLE	1553	5	1	n/a	n/a	n/a	n/a	n/a
3670338	RECOG_RESP	n/a	LTP093	ltpFR	5	3	0	VEHICLE	1553	n/a	1	n/a	n/a	n/a	n/a	n/a
3671036	RECOG_CONF	n/a	LTP093	ltpFR	5	3	0	VEHICLE	1553	5	1	n/a	n/a	n/a	n/a	n/a
3672423	RECOG_LURE	n/a	LTP093	ltpFR	5	3	n/a	FLIPPER	580	4	n/a	n/a	n/a	n/a	n/a	n/a
3673101	RECOG_RESP	n/a	LTP093	ltpFR	5	3	n/a	FLIPPER	580	n/a	n/a	n/a	n/a	n/a	n/a	n/a
3673810	RECOG_CONF	n/a	LTP093	ltpFR	5	3	n/a	FLIPPER	580	4	n/a	n/a	n/a	n/a	n/a	n/a
3675295	RECOG_LURE	n/a	LTP093	ltpFR	5	3	n/a	MISSILE	900	4	n/a	n/a	n/a	n/a	n/a	n/a
3676025	RECOG_RESP	n/a	LTP093	ltpFR	5	3	n/a	MISSILE	900	n/a	n/a	n/a	n/a	n/a	n/a	n/a
3676673	RECOG_CONF	n/a	LTP093	ltpFR	5	3	n/a	MISSILE	900	4	n/a	n/a	n/a	n/a	n/a	n/a
3678159	RECOG_LURE	n/a	LTP093	ltpFR	5	3	n/a	CRITIC	410	4	n/a	n/a	n/a	n/a	n/a	n/a
3678883	RECOG_RESP	n/a	LTP093	ltpFR	5	3	n/a	CRITIC	410	n/a	n/a	n/a	n/a	n/a	n/a	n/a
3679647	RECOG_CONF	n/a	LTP093	ltpFR	5	3	n/a	CRITIC	410	4	n/a	n/a	n/a	n/a	n/a	n/a
3683417	REC_START	n/a	LTP093	ltpFR	5	4	n/a	n/a	n/a	n/a	n/a	n/a	n/a	n/a	n/a	n/a
3683444	RECOG_LURE	n/a	LTP093	ltpFR	5	4	n/a	ARMY	39	4	n/a	n/a	n/a	n/a	n/a	n/a
3684699	RECOG_RESP	n/a	LTP093	ltpFR	5	4	n/a	ARMY	39	n/a	n/a	n/a	n/a	n/a	n/a	n/a
3685377	RECOG_CONF	n/a	LTP093	ltpFR	5	4	n/a	ARMY	39	4	n/a	n/a	n/a	n/a	n/a	n/a
3686806	RECOG_LURE	n/a	LTP093	ltpFR	5	4	n/a	HERD	705	4	n/a	n/a	n/a	n/a	n/a	n/a
3687433	RECOG_RESP	n/a	LTP093	ltpFR	5	4	n/a	HERD	705	n/a	n/a	n/a	n/a	n/a	n/a	n/a
3688031	RECOG_CONF	n/a	LTP093	ltpFR	5	4	n/a	HERD	705	4	n/a	n/a	n/a	n/a	n/a	n/a
3689487	RECOG_TARGET	n/a	LTP093	ltpFR	5	4	1	ADULT	8	4	1	n/a	n/a	n/a	n/a	n/a
3690127	RECOG_RESP	n/a	LTP093	ltpFR	5	4	1	ADULT	8	n/a	1	n/a	n/a	n/a	n/a	n/a
3690755	RECOG_CONF	n/a	LTP093	ltpFR	5	4	1	ADULT	8	4	1	n/a	n/a	n/a	n/a	n/a
3692259	RECOG_TARGET	n/a	LTP093	ltpFR	5	4	0	BLOSSOM	138	5	0	n/a	n/a	n/a	n/a	n/a
3692980	RECOG_RESP	n/a	LTP093	ltpFR	5	4	0	BLOSSOM	138	n/a	0	n/a	n/a	n/a	n/a	n/a
3693609	RECOG_CONF	n/a	LTP093	ltpFR	5	4	0	BLOSSOM	138	5	0	n/a	n/a	n/a	n/a	n/a
3695164	RECOG_TARGET	n/a	LTP093	ltpFR	5	4	0	RECIPE	1175	5	0	n/a	n/a	n/a	n/a	n/a
3695874	RECOG_RESP	n/a	LTP093	ltpFR	5	4	0	RECIPE	1175	n/a	0	n/a	n/a	n/a	n/a	n/a
3696452	RECOG_CONF	n/a	LTP093	ltpFR	5	4	0	RECIPE	1175	5	0	n/a	n/a	n/a	n/a	n/a
3697919	RECOG_LURE	n/a	LTP093	ltpFR	5	4	n/a	CLIMBER	323	4	n/a	n/a	n/a	n/a	n/a	n/a
3698547	RECOG_RESP	n/a	LTP093	ltpFR	5	4	n/a	CLIMBER	323	n/a	n/a	n/a	n/a	n/a	n/a	n/a
3699146	RECOG_CONF	n/a	LTP093	ltpFR	5	4	n/a	CLIMBER	323	4	n/a	n/a	n/a	n/a	n/a	n/a
3700640	RECOG_TARGET	n/a	LTP093	ltpFR	5	4	-1	SHED	1277	5	-1	n/a	n/a	n/a	n/a	n/a
3701737	RECOG_RESP	n/a	LTP093	ltpFR	5	4	-1	SHED	1277	n/a	-1	n/a	n/a	n/a	n/a	n/a
3702299	RECOG_CONF	n/a	LTP093	ltpFR	5	4	-1	SHED	1277	5	-1	n/a	n/a	n/a	n/a	n/a
3704087	RECOG_LURE	n/a	LTP093	ltpFR	5	4	n/a	LETTER	813	4	n/a	n/a	n/a	n/a	n/a	n/a
3704738	RECOG_RESP	n/a	LTP093	ltpFR	5	4	n/a	LETTER	813	n/a	n/a	n/a	n/a	n/a	n/a	n/a
3705402	RECOG_CONF	n/a	LTP093	ltpFR	5	4	n/a	LETTER	813	4	n/a	n/a	n/a	n/a	n/a	n/a
3706783	RECOG_LURE	n/a	LTP093	ltpFR	5	4	n/a	JET	756	4	n/a	n/a	n/a	n/a	n/a	n/a
3707392	RECOG_RESP	n/a	LTP093	ltpFR	5	4	n/a	JET	756	n/a	n/a	n/a	n/a	n/a	n/a	n/a
3708056	RECOG_CONF	n/a	LTP093	ltpFR	5	4	n/a	JET	756	4	n/a	n/a	n/a	n/a	n/a	n/a
3709355	RECOG_LURE	n/a	LTP093	ltpFR	5	4	n/a	BALLOON	75	4	n/a	n/a	n/a	n/a	n/a	n/a
3709981	RECOG_RESP	n/a	LTP093	ltpFR	5	4	n/a	BALLOON	75	n/a	n/a	n/a	n/a	n/a	n/a	n/a
3710550	RECOG_CONF	n/a	LTP093	ltpFR	5	4	n/a	BALLOON	75	4	n/a	n/a	n/a	n/a	n/a	n/a
3711961	RECOG_LURE	n/a	LTP093	ltpFR	5	4	n/a	CASKET	255	4	n/a	n/a	n/a	n/a	n/a	n/a
3713439	RECOG_RESP	n/a	LTP093	ltpFR	5	4	n/a	CASKET	255	n/a	n/a	n/a	n/a	n/a	n/a	n/a
3714132	RECOG_CONF	n/a	LTP093	ltpFR	5	4	n/a	CASKET	255	4	n/a	n/a	n/a	n/a	n/a	n/a
3715532	RECOG_TARGET	n/a	LTP093	ltpFR	5	4	1	TONGUE	1479	5	1	n/a	n/a	n/a	n/a	n/a
3716122	RECOG_RESP	n/a	LTP093	ltpFR	5	4	1	TONGUE	1479	n/a	1	n/a	n/a	n/a	n/a	n/a
3716686	RECOG_CONF	n/a	LTP093	ltpFR	5	4	1	TONGUE	1479	5	1	n/a	n/a	n/a	n/a	n/a
3718146	RECOG_LURE	n/a	LTP093	ltpFR	5	4	n/a	PERISCOPE	1050	4	n/a	n/a	n/a	n/a	n/a	n/a
3718926	RECOG_RESP_VV	n/a	LTP093	ltpFR	5	4	n/a	PERISCOPE	1050	n/a	n/a	n/a	n/a	n/a	n/a	n/a
3719339	RECOG_RESP	n/a	LTP093	ltpFR	5	4	n/a	PERISCOPE	1050	n/a	n/a	n/a	n/a	n/a	n/a	n/a
3720039	RECOG_CONF	n/a	LTP093	ltpFR	5	4	n/a	PERISCOPE	1050	4	n/a	n/a	n/a	n/a	n/a	n/a
3721558	RECOG_LURE	n/a	LTP093	ltpFR	5	4	n/a	BARLEY	88	4	n/a	n/a	n/a	n/a	n/a	n/a
3722528	RECOG_RESP	n/a	LTP093	ltpFR	5	4	n/a	BARLEY	88	n/a	n/a	n/a	n/a	n/a	n/a	n/a
3723152	RECOG_CONF	n/a	LTP093	ltpFR	5	4	n/a	BARLEY	88	4	n/a	n/a	n/a	n/a	n/a	n/a
3724688	RECOG_LURE	n/a	LTP093	ltpFR	5	4	n/a	PAWN	1030	4	n/a	n/a	n/a	n/a	n/a	n/a
3725357	RECOG_RESP	n/a	LTP093	ltpFR	5	4	n/a	PAWN	1030	n/a	n/a	n/a	n/a	n/a	n/a	n/a
3725975	RECOG_CONF	n/a	LTP093	ltpFR	5	4	n/a	PAWN	1030	4	n/a	n/a	n/a	n/a	n/a	n/a
3727459	RECOG_LURE	n/a	LTP093	ltpFR	5	4	n/a	ROPE	1211	4	n/a	n/a	n/a	n/a	n/a	n/a
3729083	RECOG_RESP	n/a	LTP093	ltpFR	5	4	n/a	ROPE	1211	n/a	n/a	n/a	n/a	n/a	n/a	n/a
3729747	RECOG_CONF	n/a	LTP093	ltpFR	5	4	n/a	ROPE	1211	4	n/a	n/a	n/a	n/a	n/a	n/a
3731296	RECOG_TARGET	n/a	LTP093	ltpFR	5	4	1	WORM	1623	4	1	n/a	n/a	n/a	n/a	n/a
3732051	RECOG_RESP	n/a	LTP093	ltpFR	5	4	1	WORM	1623	n/a	1	n/a	n/a	n/a	n/a	n/a
3732790	RECOG_CONF	n/a	LTP093	ltpFR	5	4	1	WORM	1623	4	1	n/a	n/a	n/a	n/a	n/a
3734144	RECOG_LURE	n/a	LTP093	ltpFR	5	4	n/a	GLOVE	642	4	n/a	n/a	n/a	n/a	n/a	n/a
3734770	RECOG_RESP	n/a	LTP093	ltpFR	5	4	n/a	GLOVE	642	n/a	n/a	n/a	n/a	n/a	n/a	n/a
3735344	RECOG_CONF	n/a	LTP093	ltpFR	5	4	n/a	GLOVE	642	4	n/a	n/a	n/a	n/a	n/a	n/a
3736832	RECOG_TARGET	n/a	LTP093	ltpFR	5	4	1	SHARK	1275	5	1	n/a	n/a	n/a	n/a	n/a
3737429	RECOG_RESP	n/a	LTP093	ltpFR	5	4	1	SHARK	1275	n/a	1	n/a	n/a	n/a	n/a	n/a
3738088	RECOG_CONF	n/a	LTP093	ltpFR	5	4	1	SHARK	1275	5	1	n/a	n/a	n/a	n/a	n/a
3739545	RECOG_LURE	n/a	LTP093	ltpFR	5	4	n/a	ROUGE	1213	4	n/a	n/a	n/a	n/a	n/a	n/a
3740218	RECOG_RESP	n/a	LTP093	ltpFR	5	4	n/a	ROUGE	1213	n/a	n/a	n/a	n/a	n/a	n/a	n/a
3740861	RECOG_CONF	n/a	LTP093	ltpFR	5	4	n/a	ROUGE	1213	4	n/a	n/a	n/a	n/a	n/a	n/a
3748605	REC_START	n/a	LTP093	ltpFR	5	5	n/a	n/a	n/a	n/a	n/a	n/a	n/a	n/a	n/a	n/a
3748635	RECOG_LURE	n/a	LTP093	ltpFR	5	5	n/a	STOOL	1386	4	n/a	n/a	n/a	n/a	n/a	n/a
3749757	RECOG_RESP	n/a	LTP093	ltpFR	5	5	n/a	STOOL	1386	n/a	n/a	n/a	n/a	n/a	n/a	n/a
3751234	RECOG_CONF	n/a	LTP093	ltpFR	5	5	n/a	STOOL	1386	4	n/a	n/a	n/a	n/a	n/a	n/a
3752896	RECOG_TARGET	n/a	LTP093	ltpFR	5	5	1	WAITRESS	1581	5	1	n/a	n/a	n/a	n/a	n/a
3753539	RECOG_RESP	n/a	LTP093	ltpFR	5	5	1	WAITRESS	1581	n/a	1	n/a	n/a	n/a	n/a	n/a
3754187	RECOG_CONF	n/a	LTP093	ltpFR	5	5	1	WAITRESS	1581	5	1	n/a	n/a	n/a	n/a	n/a
3755627	RECOG_TARGET	n/a	LTP093	ltpFR	5	5	0	DRUM	502	5	0	n/a	n/a	n/a	n/a	n/a
3756213	RECOG_RESP	n/a	LTP093	ltpFR	5	5	0	DRUM	502	n/a	0	n/a	n/a	n/a	n/a	n/a
3756791	RECOG_CONF	n/a	LTP093	ltpFR	5	5	0	DRUM	502	5	0	n/a	n/a	n/a	n/a	n/a
3758183	RECOG_TARGET	n/a	LTP093	ltpFR	5	5	-1	STY	1397	5	-1	n/a	n/a	n/a	n/a	n/a
3758747	RECOG_RESP	n/a	LTP093	ltpFR	5	5	-1	STY	1397	n/a	-1	n/a	n/a	n/a	n/a	n/a
3759296	RECOG_CONF	n/a	LTP093	ltpFR	5	5	-1	STY	1397	5	-1	n/a	n/a	n/a	n/a	n/a
3760787	RECOG_LURE	n/a	LTP093	ltpFR	5	5	n/a	BLUEPRINT	142	4	n/a	n/a	n/a	n/a	n/a	n/a
3761351	RECOG_RESP	n/a	LTP093	ltpFR	5	5	n/a	BLUEPRINT	142	n/a	n/a	n/a	n/a	n/a	n/a	n/a
3761959	RECOG_CONF	n/a	LTP093	ltpFR	5	5	n/a	BLUEPRINT	142	4	n/a	n/a	n/a	n/a	n/a	n/a
3763584	RECOG_TARGET	n/a	LTP093	ltpFR	5	5	-1	PATIO	1025	5	-1	n/a	n/a	n/a	n/a	n/a
3764923	RECOG_RESP	n/a	LTP093	ltpFR	5	5	-1	PATIO	1025	n/a	-1	n/a	n/a	n/a	n/a	n/a
3765491	RECOG_CONF	n/a	LTP093	ltpFR	5	5	-1	PATIO	1025	5	-1	n/a	n/a	n/a	n/a	n/a
3767081	RECOG_LURE	n/a	LTP093	ltpFR	5	5	n/a	CAPITAL	238	4	n/a	n/a	n/a	n/a	n/a	n/a
3767651	RECOG_RESP	n/a	LTP093	ltpFR	5	5	n/a	CAPITAL	238	n/a	n/a	n/a	n/a	n/a	n/a	n/a
3768175	RECOG_CONF	n/a	LTP093	ltpFR	5	5	n/a	CAPITAL	238	4	n/a	n/a	n/a	n/a	n/a	n/a
3769702	RECOG_LURE	n/a	LTP093	ltpFR	5	5	n/a	ONION	977	4	n/a	n/a	n/a	n/a	n/a	n/a
3770196	RECOG_RESP	n/a	LTP093	ltpFR	5	5	n/a	ONION	977	n/a	n/a	n/a	n/a	n/a	n/a	n/a
3770869	RECOG_CONF	n/a	LTP093	ltpFR	5	5	n/a	ONION	977	4	n/a	n/a	n/a	n/a	n/a	n/a
3772224	RECOG_TARGET	n/a	LTP093	ltpFR	5	5	1	ISLAND	745	5	0	n/a	n/a	n/a	n/a	n/a
3773155	RECOG_RESP	n/a	LTP093	ltpFR	5	5	1	ISLAND	745	n/a	0	n/a	n/a	n/a	n/a	n/a
3773743	RECOG_CONF	n/a	LTP093	ltpFR	5	5	1	ISLAND	745	5	0	n/a	n/a	n/a	n/a	n/a
3775329	RECOG_LURE	n/a	LTP093	ltpFR	5	5	n/a	DUMP	505	4	n/a	n/a	n/a	n/a	n/a	n/a
3776072	RECOG_RESP	n/a	LTP093	ltpFR	5	5	n/a	DUMP	505	n/a	n/a	n/a	n/a	n/a	n/a	n/a
3776776	RECOG_CONF	n/a	LTP093	ltpFR	5	5	n/a	DUMP	505	4	n/a	n/a	n/a	n/a	n/a	n/a
3778558	RECOG_LURE	n/a	LTP093	ltpFR	5	5	n/a	BRAIN	165	4	n/a	n/a	n/a	n/a	n/a	n/a
3779549	RECOG_RESP	n/a	LTP093	ltpFR	5	5	n/a	BRAIN	165	n/a	n/a	n/a	n/a	n/a	n/a	n/a
3780248	RECOG_CONF	n/a	LTP093	ltpFR	5	5	n/a	BRAIN	165	4	n/a	n/a	n/a	n/a	n/a	n/a
3781738	RECOG_LURE	n/a	LTP093	ltpFR	5	5	n/a	HONEY	713	4	n/a	n/a	n/a	n/a	n/a	n/a
3782468	RECOG_RESP	n/a	LTP093	ltpFR	5	5	n/a	HONEY	713	n/a	n/a	n/a	n/a	n/a	n/a	n/a
3783151	RECOG_CONF	n/a	LTP093	ltpFR	5	5	n/a	HONEY	713	4	n/a	n/a	n/a	n/a	n/a	n/a
3784759	RECOG_LURE	n/a	LTP093	ltpFR	5	5	n/a	GAZELLE	628	4	n/a	n/a	n/a	n/a	n/a	n/a
3785606	RECOG_RESP	n/a	LTP093	ltpFR	5	5	n/a	GAZELLE	628	n/a	n/a	n/a	n/a	n/a	n/a	n/a
3786354	RECOG_CONF	n/a	LTP093	ltpFR	5	5	n/a	GAZELLE	628	4	n/a	n/a	n/a	n/a	n/a	n/a
3787689	RECOG_TARGET	n/a	LTP093	ltpFR	5	5	1	POND	1101	5	1	n/a	n/a	n/a	n/a	n/a
3788549	RECOG_RESP	n/a	LTP093	ltpFR	5	5	1	POND	1101	n/a	1	n/a	n/a	n/a	n/a	n/a
3789218	RECOG_CONF	n/a	LTP093	ltpFR	5	5	1	POND	1101	5	1	n/a	n/a	n/a	n/a	n/a
3790644	RECOG_TARGET	n/a	LTP093	ltpFR	5	5	1	EARTH	515	5	1	n/a	n/a	n/a	n/a	n/a
3791298	RECOG_RESP	n/a	LTP093	ltpFR	5	5	1	EARTH	515	n/a	1	n/a	n/a	n/a	n/a	n/a
3791901	RECOG_CONF	n/a	LTP093	ltpFR	5	5	1	EARTH	515	5	1	n/a	n/a	n/a	n/a	n/a
3793449	RECOG_LURE	n/a	LTP093	ltpFR	5	5	n/a	NUCLEUS	961	4	n/a	n/a	n/a	n/a	n/a	n/a
3794027	RECOG_RESP	n/a	LTP093	ltpFR	5	5	n/a	NUCLEUS	961	n/a	n/a	n/a	n/a	n/a	n/a	n/a
3794635	RECOG_CONF	n/a	LTP093	ltpFR	5	5	n/a	NUCLEUS	961	4	n/a	n/a	n/a	n/a	n/a	n/a
3796204	RECOG_TARGET	n/a	LTP093	ltpFR	5	5	-1	COLLEGE	346	5	-1	n/a	n/a	n/a	n/a	n/a
3796865	RECOG_RESP	n/a	LTP093	ltpFR	5	5	-1	COLLEGE	346	n/a	-1	n/a	n/a	n/a	n/a	n/a
3797479	RECOG_CONF	n/a	LTP093	ltpFR	5	5	-1	COLLEGE	346	5	-1	n/a	n/a	n/a	n/a	n/a
3799010	RECOG_LURE	n/a	LTP093	ltpFR	5	5	n/a	COOLER	375	4	n/a	n/a	n/a	n/a	n/a	n/a
3800661	RECOG_RESP	n/a	LTP093	ltpFR	5	5	n/a	COOLER	375	n/a	n/a	n/a	n/a	n/a	n/a	n/a
3801250	RECOG_CONF	n/a	LTP093	ltpFR	5	5	n/a	COOLER	375	4	n/a	n/a	n/a	n/a	n/a	n/a
3802955	RECOG_LURE	n/a	LTP093	ltpFR	5	5	n/a	SUIT	1402	4	n/a	n/a	n/a	n/a	n/a	n/a
3803640	RECOG_RESP	n/a	LTP093	ltpFR	5	5	n/a	SUIT	1402	n/a	n/a	n/a	n/a	n/a	n/a	n/a
3804293	RECOG_CONF	n/a	LTP093	ltpFR	5	5	n/a	SUIT	1402	4	n/a	n/a	n/a	n/a	n/a	n/a
3805860	RECOG_LURE	n/a	LTP093	ltpFR	5	5	n/a	CHEST	295	4	n/a	n/a	n/a	n/a	n/a	n/a
3806428	RECOG_RESP	n/a	LTP093	ltpFR	5	5	n/a	CHEST	295	n/a	n/a	n/a	n/a	n/a	n/a	n/a
3807197	RECOG_CONF	n/a	LTP093	ltpFR	5	5	n/a	CHEST	295	4	n/a	n/a	n/a	n/a	n/a	n/a
3816656	REC_START	n/a	LTP093	ltpFR	5	6	n/a	n/a	n/a	n/a	n/a	n/a	n/a	n/a	n/a	n/a
3816681	RECOG_LURE	n/a	LTP093	ltpFR	5	6	n/a	VILLAIN	1567	4	n/a	n/a	n/a	n/a	n/a	n/a
3817404	RECOG_RESP	n/a	LTP093	ltpFR	5	6	n/a	VILLAIN	1567	n/a	n/a	n/a	n/a	n/a	n/a	n/a
3818586	RECOG_CONF	n/a	LTP093	ltpFR	5	6	n/a	VILLAIN	1567	4	n/a	n/a	n/a	n/a	n/a	n/a
3820726	RECOG_LURE	n/a	LTP093	ltpFR	5	6	n/a	PIN	1072	4	n/a	n/a	n/a	n/a	n/a	n/a
3821380	RECOG_RESP	n/a	LTP093	ltpFR	5	6	n/a	PIN	1072	n/a	n/a	n/a	n/a	n/a	n/a	n/a
3822059	RECOG_CONF	n/a	LTP093	ltpFR	5	6	n/a	PIN	1072	4	n/a	n/a	n/a	n/a	n/a	n/a
3823648	RECOG_TARGET	n/a	LTP093	ltpFR	5	6	0	TART	1436	5	0	n/a	n/a	n/a	n/a	n/a
3824249	RECOG_RESP	n/a	LTP093	ltpFR	5	6	0	TART	1436	n/a	0	n/a	n/a	n/a	n/a	n/a
3824912	RECOG_CONF	n/a	LTP093	ltpFR	5	6	0	TART	1436	5	0	n/a	n/a	n/a	n/a	n/a
3826311	RECOG_TARGET	n/a	LTP093	ltpFR	5	6	-1	FLUTE	585	5	-1	n/a	n/a	n/a	n/a	n/a
3826833	RECOG_RESP	n/a	LTP093	ltpFR	5	6	-1	FLUTE	585	n/a	-1	n/a	n/a	n/a	n/a	n/a
3827466	RECOG_CONF	n/a	LTP093	ltpFR	5	6	-1	FLUTE	585	5	-1	n/a	n/a	n/a	n/a	n/a
3828966	RECOG_TARGET	n/a	LTP093	ltpFR	5	6	0	HAIL	676	5	0	n/a	n/a	n/a	n/a	n/a
3829616	RECOG_RESP	n/a	LTP093	ltpFR	5	6	0	HAIL	676	n/a	0	n/a	n/a	n/a	n/a	n/a
3830300	RECOG_CONF	n/a	LTP093	ltpFR	5	6	0	HAIL	676	5	0	n/a	n/a	n/a	n/a	n/a
3831755	RECOG_TARGET	n/a	LTP093	ltpFR	5	6	1	TWIG	1527	5	0	n/a	n/a	n/a	n/a	n/a
3832330	RECOG_RESP	n/a	LTP093	ltpFR	5	6	1	TWIG	1527	n/a	0	n/a	n/a	n/a	n/a	n/a
3833004	RECOG_CONF	n/a	LTP093	ltpFR	5	6	1	TWIG	1527	5	0	n/a	n/a	n/a	n/a	n/a
3834368	RECOG_TARGET	n/a	LTP093	ltpFR	5	6	-1	ZEBRA	1635	5	-1	n/a	n/a	n/a	n/a	n/a
3834904	RECOG_RESP	n/a	LTP093	ltpFR	5	6	-1	ZEBRA	1635	n/a	-1	n/a	n/a	n/a	n/a	n/a
3835468	RECOG_CONF	n/a	LTP093	ltpFR	5	6	-1	ZEBRA	1635	5	-1	n/a	n/a	n/a	n/a	n/a
3836965	RECOG_TARGET	n/a	LTP093	ltpFR	5	6	1	MOUNTAIN	924	5	0	n/a	n/a	n/a	n/a	n/a
3837503	RECOG_RESP	n/a	LTP093	ltpFR	5	6	1	MOUNTAIN	924	n/a	0	n/a	n/a	n/a	n/a	n/a
3837992	RECOG_CONF	n/a	LTP093	ltpFR	5	6	1	MOUNTAIN	924	5	0	n/a	n/a	n/a	n/a	n/a
3839438	RECOG_LURE	n/a	LTP093	ltpFR	5	6	n/a	PEDAL	1037	4	n/a	n/a	n/a	n/a	n/a	n/a
3840177	RECOG_RESP	n/a	LTP093	ltpFR	5	6	n/a	PEDAL	1037	n/a	n/a	n/a	n/a	n/a	n/a	n/a
3840666	RECOG_CONF	n/a	LTP093	ltpFR	5	6	n/a	PEDAL	1037	4	n/a	n/a	n/a	n/a	n/a	n/a
3842094	RECOG_TARGET	n/a	LTP093	ltpFR	5	6	-1	SUSPECT	1415	5	-1	n/a	n/a	n/a	n/a	n/a
3842886	RECOG_RESP	n/a	LTP093	ltpFR	5	6	-1	SUSPECT	1415	n/a	-1	n/a	n/a	n/a	n/a	n/a
3843415	RECOG_CONF	n/a	LTP093	ltpFR	5	6	-1	SUSPECT	1415	5	-1	n/a	n/a	n/a	n/a	n/a
3844914	RECOG_LURE	n/a	LTP093	ltpFR	5	6	n/a	DOCTOR	478	4	n/a	n/a	n/a	n/a	n/a	n/a
3845545	RECOG_RESP	n/a	LTP093	ltpFR	5	6	n/a	DOCTOR	478	n/a	n/a	n/a	n/a	n/a	n/a	n/a
3846004	RECOG_CONF	n/a	LTP093	ltpFR	5	6	n/a	DOCTOR	478	4	n/a	n/a	n/a	n/a	n/a	n/a
3847512	RECOG_TARGET	n/a	LTP093	ltpFR	5	6	0	WILDERNESS	1610	5	1	n/a	n/a	n/a	n/a	n/a
3848394	RECOG_RESP	n/a	LTP093	ltpFR	5	6	0	WILDERNESS	1610	n/a	1	n/a	n/a	n/a	n/a	n/a
3849476	RECOG_CONF	n/a	LTP093	ltpFR	5	6	0	WILDERNESS	1610	5	1	n/a	n/a	n/a	n/a	n/a
3850983	RECOG_LURE	n/a	LTP093	ltpFR	5	6	n/a	HOME	712	4	n/a	n/a	n/a	n/a	n/a	n/a
3851621	RECOG_RESP	n/a	LTP093	ltpFR	5	6	n/a	HOME	712	n/a	n/a	n/a	n/a	n/a	n/a	n/a
3852340	RECOG_CONF	n/a	LTP093	ltpFR	5	6	n/a	HOME	712	4	n/a	n/a	n/a	n/a	n/a	n/a
3853663	RECOG_TARGET	n/a	LTP093	ltpFR	5	6	0	CAPE	237	5	0	n/a	n/a	n/a	n/a	n/a
3854322	RECOG_RESP	n/a	LTP093	ltpFR	5	6	0	CAPE	237	n/a	0	n/a	n/a	n/a	n/a	n/a
3854855	RECOG_CONF	n/a	LTP093	ltpFR	5	6	0	CAPE	237	5	0	n/a	n/a	n/a	n/a	n/a
3856360	RECOG_TARGET	n/a	LTP093	ltpFR	5	6	1	MILDEW	893	5	1	n/a	n/a	n/a	n/a	n/a
3856954	RECOG_RESP	n/a	LTP093	ltpFR	5	6	1	MILDEW	893	n/a	1	n/a	n/a	n/a	n/a	n/a
3857558	RECOG_CONF	n/a	LTP093	ltpFR	5	6	1	MILDEW	893	5	1	n/a	n/a	n/a	n/a	n/a
3859006	RECOG_TARGET	n/a	LTP093	ltpFR	5	6	-1	NECK	939	5	-1	n/a	n/a	n/a	n/a	n/a
3859608	RECOG_RESP	n/a	LTP093	ltpFR	5	6	-1	NECK	939	n/a	-1	n/a	n/a	n/a	n/a	n/a
3860182	RECOG_CONF	n/a	LTP093	ltpFR	5	6	-1	NECK	939	5	-1	n/a	n/a	n/a	n/a	n/a
3861653	RECOG_TARGET	n/a	LTP093	ltpFR	5	6	1	SLOPE	1328	5	0	n/a	n/a	n/a	n/a	n/a
3862257	RECOG_RESP	n/a	LTP093	ltpFR	5	6	1	SLOPE	1328	n/a	0	n/a	n/a	n/a	n/a	n/a
3862806	RECOG_CONF	n/a	LTP093	ltpFR	5	6	1	SLOPE	1328	5	0	n/a	n/a	n/a	n/a	n/a
3864592	RECOG_LURE	n/a	LTP093	ltpFR	5	6	n/a	TAXI	1438	4	n/a	n/a	n/a	n/a	n/a	n/a
3865585	RECOG_RESP	n/a	LTP093	ltpFR	5	6	n/a	TAXI	1438	n/a	n/a	n/a	n/a	n/a	n/a	n/a
3866258	RECOG_CONF	n/a	LTP093	ltpFR	5	6	n/a	TAXI	1438	4	n/a	n/a	n/a	n/a	n/a	n/a
3867696	RECOG_LURE	n/a	LTP093	ltpFR	5	6	n/a	DRESSER	496	4	n/a	n/a	n/a	n/a	n/a	n/a
3868458	RECOG_RESP	n/a	LTP093	ltpFR	5	6	n/a	DRESSER	496	n/a	n/a	n/a	n/a	n/a	n/a	n/a
3870020	RECOG_CONF	n/a	LTP093	ltpFR	5	6	n/a	DRESSER	496	4	n/a	n/a	n/a	n/a	n/a	n/a
3871567	RECOG_LURE	n/a	LTP093	ltpFR	5	6	n/a	CARPENTER	246	4	n/a	n/a	n/a	n/a	n/a	n/a
3873033	RECOG_RESP	n/a	LTP093	ltpFR	5	6	n/a	CARPENTER	246	n/a	n/a	n/a	n/a	n/a	n/a	n/a
3873631	RECOG_CONF	n/a	LTP093	ltpFR	5	6	n/a	CARPENTER	246	4	n/a	n/a	n/a	n/a	n/a	n/a
3877378	REC_START	n/a	LTP093	ltpFR	5	7	n/a	n/a	n/a	n/a	n/a	n/a	n/a	n/a	n/a	n/a
3877410	RECOG_TARGET	n/a	LTP093	ltpFR	5	7	0	KETCHUP	771	5	0	n/a	n/a	n/a	n/a	n/a
3878121	RECOG_RESP	n/a	LTP093	ltpFR	5	7	0	KETCHUP	771	n/a	0	n/a	n/a	n/a	n/a	n/a
3878810	RECOG_CONF	n/a	LTP093	ltpFR	5	7	0	KETCHUP	771	5	0	n/a	n/a	n/a	n/a	n/a
3880158	RECOG_TARGET	n/a	LTP093	ltpFR	5	7	1	ALBUM	14	5	0	n/a	n/a	n/a	n/a	n/a
3881169	RECOG_RESP	n/a	LTP093	ltpFR	5	7	1	ALBUM	14	n/a	0	n/a	n/a	n/a	n/a	n/a
3881873	RECOG_CONF	n/a	LTP093	ltpFR	5	7	1	ALBUM	14	5	0	n/a	n/a	n/a	n/a	n/a
3883203	RECOG_LURE	n/a	LTP093	ltpFR	5	7	n/a	TULIP	1517	4	n/a	n/a	n/a	n/a	n/a	n/a
3883948	RECOG_RESP	n/a	LTP093	ltpFR	5	7	n/a	TULIP	1517	n/a	n/a	n/a	n/a	n/a	n/a	n/a
3884517	RECOG_CONF	n/a	LTP093	ltpFR	5	7	n/a	TULIP	1517	4	n/a	n/a	n/a	n/a	n/a	n/a
3885942	RECOG_TARGET	n/a	LTP093	ltpFR	5	7	1	BANDAGE	79	5	0	n/a	n/a	n/a	n/a	n/a
3886562	RECOG_RESP	n/a	LTP093	ltpFR	5	7	1	BANDAGE	79	n/a	0	n/a	n/a	n/a	n/a	n/a
3887210	RECOG_CONF	n/a	LTP093	ltpFR	5	7	1	BANDAGE	79	5	0	n/a	n/a	n/a	n/a	n/a
3888580	RECOG_TARGET	n/a	LTP093	ltpFR	5	7	0	ERASER	538	5	0	n/a	n/a	n/a	n/a	n/a
3889121	RECOG_RESP	n/a	LTP093	ltpFR	5	7	0	ERASER	538	n/a	0	n/a	n/a	n/a	n/a	n/a
3889785	RECOG_CONF	n/a	LTP093	ltpFR	5	7	0	ERASER	538	5	0	n/a	n/a	n/a	n/a	n/a
3891153	RECOG_LURE	n/a	LTP093	ltpFR	5	7	n/a	FRAME	600	3	n/a	n/a	n/a	n/a	n/a	n/a
3892633	RECOG_RESP	n/a	LTP093	ltpFR	5	7	n/a	FRAME	600	n/a	n/a	n/a	n/a	n/a	n/a	n/a
3895512	RECOG_CONF	n/a	LTP093	ltpFR	5	7	n/a	FRAME	600	3	n/a	n/a	n/a	n/a	n/a	n/a
3897113	RECOG_TARGET	n/a	LTP093	ltpFR	5	7	1	ASTEROID	50	4	0	n/a	n/a	n/a	n/a	n/a
3898016	RECOG_RESP	n/a	LTP093	ltpFR	5	7	1	ASTEROID	50	n/a	0	n/a	n/a	n/a	n/a	n/a
3898535	RECOG_CONF	n/a	LTP093	ltpFR	5	7	1	ASTEROID	50	4	0	n/a	n/a	n/a	n/a	n/a
3900068	RECOG_TARGET	n/a	LTP093	ltpFR	5	7	0	FAMILY	550	5	0	n/a	n/a	n/a	n/a	n/a
3900964	RECOG_RESP	n/a	LTP093	ltpFR	5	7	0	FAMILY	550	n/a	0	n/a	n/a	n/a	n/a	n/a
3901588	RECOG_CONF	n/a	LTP093	ltpFR	5	7	0	FAMILY	550	5	0	n/a	n/a	n/a	n/a	n/a
3903073	RECOG_LURE	n/a	LTP093	ltpFR	5	7	n/a	FLY	586	4	n/a	n/a	n/a	n/a	n/a	n/a
3904476	RECOG_RESP	n/a	LTP093	ltpFR	5	7	n/a	FLY	586	n/a	n/a	n/a	n/a	n/a	n/a	n/a
3905040	RECOG_CONF	n/a	LTP093	ltpFR	5	7	n/a	FLY	586	4	n/a	n/a	n/a	n/a	n/a	n/a
3906635	RECOG_LURE	n/a	LTP093	ltpFR	5	7	n/a	CROCODILE	411	4	n/a	n/a	n/a	n/a	n/a	n/a
3907459	RECOG_RESP	n/a	LTP093	ltpFR	5	7	n/a	CROCODILE	411	n/a	n/a	n/a	n/a	n/a	n/a	n/a
3908023	RECOG_CONF	n/a	LTP093	ltpFR	5	7	n/a	CROCODILE	411	4	n/a	n/a	n/a	n/a	n/a	n/a
3909448	RECOG_TARGET	n/a	LTP093	ltpFR	5	7	-1	PAVEMENT	1028	4	-1	n/a	n/a	n/a	n/a	n/a
3909999	RECOG_RESP	n/a	LTP093	ltpFR	5	7	-1	PAVEMENT	1028	n/a	-1	n/a	n/a	n/a	n/a	n/a
3910597	RECOG_CONF	n/a	LTP093	ltpFR	5	7	-1	PAVEMENT	1028	4	-1	n/a	n/a	n/a	n/a	n/a
3912054	RECOG_TARGET	n/a	LTP093	ltpFR	5	7	1	RAKE	1164	3	0	n/a	n/a	n/a	n/a	n/a
3912927	RECOG_RESP	n/a	LTP093	ltpFR	5	7	1	RAKE	1164	n/a	0	n/a	n/a	n/a	n/a	n/a
3917407	RECOG_CONF	n/a	LTP093	ltpFR	5	7	1	RAKE	1164	3	0	n/a	n/a	n/a	n/a	n/a
3919096	RECOG_TARGET	n/a	LTP093	ltpFR	5	7	1	RUST	1219	5	0	n/a	n/a	n/a	n/a	n/a
3921113	RECOG_RESP	n/a	LTP093	ltpFR	5	7	1	RUST	1219	n/a	0	n/a	n/a	n/a	n/a	n/a
3921847	RECOG_CONF	n/a	LTP093	ltpFR	5	7	1	RUST	1219	5	0	n/a	n/a	n/a	n/a	n/a
3923324	RECOG_TARGET	n/a	LTP093	ltpFR	5	7	-1	UNDERWEAR	1537	5	-1	n/a	n/a	n/a	n/a	n/a
3923992	RECOG_RESP	n/a	LTP093	ltpFR	5	7	-1	UNDERWEAR	1537	n/a	-1	n/a	n/a	n/a	n/a	n/a
3924576	RECOG_CONF	n/a	LTP093	ltpFR	5	7	-1	UNDERWEAR	1537	5	-1	n/a	n/a	n/a	n/a	n/a
3925995	RECOG_TARGET	n/a	LTP093	ltpFR	5	7	-1	TOMB	1477	5	-1	n/a	n/a	n/a	n/a	n/a
3926551	RECOG_RESP	n/a	LTP093	ltpFR	5	7	-1	TOMB	1477	n/a	-1	n/a	n/a	n/a	n/a	n/a
3927150	RECOG_CONF	n/a	LTP093	ltpFR	5	7	-1	TOMB	1477	5	-1	n/a	n/a	n/a	n/a	n/a
3928567	RECOG_TARGET	n/a	LTP093	ltpFR	5	7	-1	GRATE	657	5	-1	n/a	n/a	n/a	n/a	n/a
3929115	RECOG_RESP	n/a	LTP093	ltpFR	5	7	-1	GRATE	657	n/a	-1	n/a	n/a	n/a	n/a	n/a
3929714	RECOG_CONF	n/a	LTP093	ltpFR	5	7	-1	GRATE	657	5	-1	n/a	n/a	n/a	n/a	n/a
3931506	RECOG_TARGET	n/a	LTP093	ltpFR	5	7	-1	BULLET	194	5	-1	n/a	n/a	n/a	n/a	n/a
3932009	RECOG_RESP	n/a	LTP093	ltpFR	5	7	-1	BULLET	194	n/a	-1	n/a	n/a	n/a	n/a	n/a
3932647	RECOG_CONF	n/a	LTP093	ltpFR	5	7	-1	BULLET	194	5	-1	n/a	n/a	n/a	n/a	n/a
3934112	RECOG_LURE	n/a	LTP093	ltpFR	5	7	n/a	BIBLE	124	4	n/a	n/a	n/a	n/a	n/a	n/a
3934752	RECOG_RESP	n/a	LTP093	ltpFR	5	7	n/a	BIBLE	124	n/a	n/a	n/a	n/a	n/a	n/a	n/a
3935361	RECOG_CONF	n/a	LTP093	ltpFR	5	7	n/a	BIBLE	124	4	n/a	n/a	n/a	n/a	n/a	n/a
3936858	RECOG_LURE	n/a	LTP093	ltpFR	5	7	n/a	ELM	527	4	n/a	n/a	n/a	n/a	n/a	n/a
3937536	RECOG_RESP	n/a	LTP093	ltpFR	5	7	n/a	ELM	527	n/a	n/a	n/a	n/a	n/a	n/a	n/a
3938115	RECOG_CONF	n/a	LTP093	ltpFR	5	7	n/a	ELM	527	4	n/a	n/a	n/a	n/a	n/a	n/a
3939488	RECOG_TARGET	n/a	LTP093	ltpFR	5	7	-1	TEA	1439	5	-1	n/a	n/a	n/a	n/a	n/a
3940080	RECOG_RESP	n/a	LTP093	ltpFR	5	7	-1	TEA	1439	n/a	-1	n/a	n/a	n/a	n/a	n/a
3940679	RECOG_CONF	n/a	LTP093	ltpFR	5	7	-1	TEA	1439	5	-1	n/a	n/a	n/a	n/a	n/a
3944418	REC_START	n/a	LTP093	ltpFR	5	8	n/a	n/a	n/a	n/a	n/a	n/a	n/a	n/a	n/a	n/a
3944449	RECOG_LURE	n/a	LTP093	ltpFR	5	8	n/a	GOOSE	649	4	n/a	n/a	n/a	n/a	n/a	n/a
3945201	RECOG_RESP	n/a	LTP093	ltpFR	5	8	n/a	GOOSE	649	n/a	n/a	n/a	n/a	n/a	n/a	n/a
3945840	RECOG_CONF	n/a	LTP093	ltpFR	5	8	n/a	GOOSE	649	4	n/a	n/a	n/a	n/a	n/a	n/a
3947212	RECOG_TARGET	n/a	LTP093	ltpFR	5	8	0	STUMP	1396	5	0	n/a	n/a	n/a	n/a	n/a
3947825	RECOG_RESP	n/a	LTP093	ltpFR	5	8	0	STUMP	1396	n/a	0	n/a	n/a	n/a	n/a	n/a
3948504	RECOG_CONF	n/a	LTP093	ltpFR	5	8	0	STUMP	1396	5	0	n/a	n/a	n/a	n/a	n/a
3949884	RECOG_TARGET	n/a	LTP093	ltpFR	5	8	0	CLOWN	330	5	1	n/a	n/a	n/a	n/a	n/a
3950519	RECOG_RESP	n/a	LTP093	ltpFR	5	8	0	CLOWN	330	n/a	1	n/a	n/a	n/a	n/a	n/a
3951138	RECOG_CONF	n/a	LTP093	ltpFR	5	8	0	CLOWN	330	5	1	n/a	n/a	n/a	n/a	n/a
3952465	RECOG_LURE	n/a	LTP093	ltpFR	5	8	n/a	IDOL	733	4	n/a	n/a	n/a	n/a	n/a	n/a
3953083	RECOG_RESP	n/a	LTP093	ltpFR	5	8	n/a	IDOL	733	n/a	n/a	n/a	n/a	n/a	n/a	n/a
3953692	RECOG_CONF	n/a	LTP093	ltpFR	5	8	n/a	IDOL	733	4	n/a	n/a	n/a	n/a	n/a	n/a
3954995	RECOG_TARGET	n/a	LTP093	ltpFR	5	8	-1	PATROL	1027	4	-1	n/a	n/a	n/a	n/a	n/a
3955627	RECOG_RESP	n/a	LTP093	ltpFR	5	8	-1	PATROL	1027	n/a	-1	n/a	n/a	n/a	n/a	n/a
3956266	RECOG_CONF	n/a	LTP093	ltpFR	5	8	-1	PATROL	1027	4	-1	n/a	n/a	n/a	n/a	n/a
3957634	RECOG_TARGET	n/a	LTP093	ltpFR	5	8	-1	CAR	241	5	-1	n/a	n/a	n/a	n/a	n/a
3958286	RECOG_RESP	n/a	LTP093	ltpFR	5	8	-1	CAR	241	n/a	-1	n/a	n/a	n/a	n/a	n/a
3958900	RECOG_CONF	n/a	LTP093	ltpFR	5	8	-1	CAR	241	5	-1	n/a	n/a	n/a	n/a	n/a
3960239	RECOG_LURE	n/a	LTP093	ltpFR	5	8	n/a	SNORKEL	1336	4	n/a	n/a	n/a	n/a	n/a	n/a
3960855	RECOG_RESP	n/a	LTP093	ltpFR	5	8	n/a	SNORKEL	1336	n/a	n/a	n/a	n/a	n/a	n/a	n/a
3961494	RECOG_CONF	n/a	LTP093	ltpFR	5	8	n/a	SNORKEL	1336	4	n/a	n/a	n/a	n/a	n/a	n/a
3962794	RECOG_LURE	n/a	LTP093	ltpFR	5	8	n/a	SOFTBALL	1343	4	n/a	n/a	n/a	n/a	n/a	n/a
3963440	RECOG_RESP	n/a	LTP093	ltpFR	5	8	n/a	SOFTBALL	1343	n/a	n/a	n/a	n/a	n/a	n/a	n/a
3964078	RECOG_CONF	n/a	LTP093	ltpFR	5	8	n/a	SOFTBALL	1343	4	n/a	n/a	n/a	n/a	n/a	n/a
3965474	RECOG_TARGET	n/a	LTP093	ltpFR	5	8	0	BOYFRIEND	162	5	1	n/a	n/a	n/a	n/a	n/a
3966054	RECOG_RESP	n/a	LTP093	ltpFR	5	8	0	BOYFRIEND	162	n/a	1	n/a	n/a	n/a	n/a	n/a
3966672	RECOG_CONF	n/a	LTP093	ltpFR	5	8	0	BOYFRIEND	162	5	1	n/a	n/a	n/a	n/a	n/a
3968030	RECOG_TARGET	n/a	LTP093	ltpFR	5	8	-1	TOURIST	1488	5	-1	n/a	n/a	n/a	n/a	n/a
3968638	RECOG_RESP	n/a	LTP093	ltpFR	5	8	-1	TOURIST	1488	n/a	-1	n/a	n/a	n/a	n/a	n/a
3969236	RECOG_CONF	n/a	LTP093	ltpFR	5	8	-1	TOURIST	1488	5	-1	n/a	n/a	n/a	n/a	n/a
3970693	RECOG_LURE	n/a	LTP093	ltpFR	5	8	n/a	CANARY	227	4	n/a	n/a	n/a	n/a	n/a	n/a
3971441	RECOG_RESP	n/a	LTP093	ltpFR	5	8	n/a	CANARY	227	n/a	n/a	n/a	n/a	n/a	n/a	n/a
3972359	RECOG_CONF	n/a	LTP093	ltpFR	5	8	n/a	CANARY	227	4	n/a	n/a	n/a	n/a	n/a	n/a
3973632	RECOG_TARGET	n/a	LTP093	ltpFR	5	8	0	LUGGAGE	847	5	1	n/a	n/a	n/a	n/a	n/a
3974265	RECOG_RESP	n/a	LTP093	ltpFR	5	8	0	LUGGAGE	847	n/a	1	n/a	n/a	n/a	n/a	n/a
3975013	RECOG_CONF	n/a	LTP093	ltpFR	5	8	0	LUGGAGE	847	5	1	n/a	n/a	n/a	n/a	n/a
3976362	RECOG_LURE	n/a	LTP093	ltpFR	5	8	n/a	CASHEW	253	4	n/a	n/a	n/a	n/a	n/a	n/a
3977104	RECOG_RESP	n/a	LTP093	ltpFR	5	8	n/a	CASHEW	253	n/a	n/a	n/a	n/a	n/a	n/a	n/a
3977837	RECOG_CONF	n/a	LTP093	ltpFR	5	8	n/a	CASHEW	253	4	n/a	n/a	n/a	n/a	n/a	n/a
3979234	RECOG_LURE	n/a	LTP093	ltpFR	5	8	n/a	SURF	1412	4	n/a	n/a	n/a	n/a	n/a	n/a
3979812	RECOG_RESP	n/a	LTP093	ltpFR	5	8	n/a	SURF	1412	n/a	n/a	n/a	n/a	n/a	n/a	n/a
3980421	RECOG_CONF	n/a	LTP093	ltpFR	5	8	n/a	SURF	1412	4	n/a	n/a	n/a	n/a	n/a	n/a
3981806	RECOG_LURE	n/a	LTP093	ltpFR	5	8	n/a	FEAST	556	4	n/a	n/a	n/a	n/a	n/a	n/a
3982377	RECOG_RESP	n/a	LTP093	ltpFR	5	8	n/a	FEAST	556	n/a	n/a	n/a	n/a	n/a	n/a	n/a
3983065	RECOG_CONF	n/a	LTP093	ltpFR	5	8	n/a	FEAST	556	4	n/a	n/a	n/a	n/a	n/a	n/a
3984353	RECOG_TARGET	n/a	LTP093	ltpFR	5	8	0	CATERPILLAR	259	5	0	n/a	n/a	n/a	n/a	n/a
3984976	RECOG_RESP	n/a	LTP093	ltpFR	5	8	0	CATERPILLAR	259	n/a	0	n/a	n/a	n/a	n/a	n/a
3985629	RECOG_CONF	n/a	LTP093	ltpFR	5	8	0	CATERPILLAR	259	5	0	n/a	n/a	n/a	n/a	n/a
3986950	RECOG_LURE	n/a	LTP093	ltpFR	5	8	n/a	BASEMENT	94	4	n/a	n/a	n/a	n/a	n/a	n/a
3987565	RECOG_RESP	n/a	LTP093	ltpFR	5	8	n/a	BASEMENT	94	n/a	n/a	n/a	n/a	n/a	n/a	n/a
3988143	RECOG_CONF	n/a	LTP093	ltpFR	5	8	n/a	BASEMENT	94	4	n/a	n/a	n/a	n/a	n/a	n/a
3989463	RECOG_LURE	n/a	LTP093	ltpFR	5	8	n/a	POWDER	1117	4	n/a	n/a	n/a	n/a	n/a	n/a
3989929	RECOG_RESP	n/a	LTP093	ltpFR	5	8	n/a	POWDER	1117	n/a	n/a	n/a	n/a	n/a	n/a	n/a
3990608	RECOG_CONF	n/a	LTP093	ltpFR	5	8	n/a	POWDER	1117	4	n/a	n/a	n/a	n/a	n/a	n/a
3991977	RECOG_TARGET	n/a	LTP093	ltpFR	5	8	1	MEDICINE	886	5	0	n/a	n/a	n/a	n/a	n/a
3992543	RECOG_RESP	n/a	LTP093	ltpFR	5	8	1	MEDICINE	886	n/a	0	n/a	n/a	n/a	n/a	n/a
3993212	RECOG_CONF	n/a	LTP093	ltpFR	5	8	1	MEDICINE	886	5	0	n/a	n/a	n/a	n/a	n/a
3994624	RECOG_TARGET	n/a	LTP093	ltpFR	5	8	0	SIGNATURE	1306	5	0	n/a	n/a	n/a	n/a	n/a
3996011	RECOG_RESP	n/a	LTP093	ltpFR	5	8	0	SIGNATURE	1306	n/a	0	n/a	n/a	n/a	n/a	n/a
3996684	RECOG_CONF	n/a	LTP093	ltpFR	5	8	0	SIGNATURE	1306	5	0	n/a	n/a	n/a	n/a	n/a
4037634	REC_START	n/a	LTP093	ltpFR	5	9	n/a	n/a	n/a	n/a	n/a	n/a	n/a	n/a	n/a	n/a
4037657	RECOG_LURE	n/a	LTP093	ltpFR	5	9	n/a	CITY	314	1	n/a	n/a	n/a	n/a	n/a	n/a
4039011	RECOG_RESP	n/a	LTP093	ltpFR	5	9	n/a	CITY	314	n/a	n/a	n/a	n/a	n/a	n/a	n/a
4041261	RECOG_CONF	n/a	LTP093	ltpFR	5	9	n/a	CITY	314	1	n/a	n/a	n/a	n/a	n/a	n/a
4043001	RECOG_TARGET	n/a	LTP093	ltpFR	5	9	1	MONARCH	906	5	1	n/a	n/a	n/a	n/a	n/a
4043954	RECOG_RESP	n/a	LTP093	ltpFR	5	9	1	MONARCH	906	n/a	1	n/a	n/a	n/a	n/a	n/a
4044663	RECOG_CONF	n/a	LTP093	ltpFR	5	9	1	MONARCH	906	5	1	n/a	n/a	n/a	n/a	n/a
4046057	RECOG_TARGET	n/a	LTP093	ltpFR	5	9	-1	TRIGGER	1507	5	-1	n/a	n/a	n/a	n/a	n/a
4046758	RECOG_RESP	n/a	LTP093	ltpFR	5	9	-1	TRIGGER	1507	n/a	-1	n/a	n/a	n/a	n/a	n/a
4047347	RECOG_CONF	n/a	LTP093	ltpFR	5	9	-1	TRIGGER	1507	5	-1	n/a	n/a	n/a	n/a	n/a
4048819	RECOG_TARGET	n/a	LTP093	ltpFR	5	9	-1	SCALLOP	1242	5	-1	n/a	n/a	n/a	n/a	n/a
4049402	RECOG_RESP	n/a	LTP093	ltpFR	5	9	-1	SCALLOP	1242	n/a	-1	n/a	n/a	n/a	n/a	n/a
4050021	RECOG_CONF	n/a	LTP093	ltpFR	5	9	-1	SCALLOP	1242	5	-1	n/a	n/a	n/a	n/a	n/a
4051774	RECOG_LURE	n/a	LTP093	ltpFR	5	9	n/a	SCARF	1246	4	n/a	n/a	n/a	n/a	n/a	n/a
4053193	RECOG_RESP	n/a	LTP093	ltpFR	5	9	n/a	SCARF	1246	n/a	n/a	n/a	n/a	n/a	n/a	n/a
4053862	RECOG_CONF	n/a	LTP093	ltpFR	5	9	n/a	SCARF	1246	4	n/a	n/a	n/a	n/a	n/a	n/a
4055262	RECOG_TARGET	n/a	LTP093	ltpFR	5	9	1	ANTELOPE	27	5	1	n/a	n/a	n/a	n/a	n/a
4056356	RECOG_RESP	n/a	LTP093	ltpFR	5	9	1	ANTELOPE	27	n/a	1	n/a	n/a	n/a	n/a	n/a
4057075	RECOG_CONF	n/a	LTP093	ltpFR	5	9	1	ANTELOPE	27	5	1	n/a	n/a	n/a	n/a	n/a
4058483	RECOG_TARGET	n/a	LTP093	ltpFR	5	9	1	PLANE	1081	5	0	n/a	n/a	n/a	n/a	n/a
4059689	RECOG_RESP	n/a	LTP093	ltpFR	5	9	1	PLANE	1081	n/a	0	n/a	n/a	n/a	n/a	n/a
4060217	RECOG_CONF	n/a	LTP093	ltpFR	5	9	1	PLANE	1081	5	0	n/a	n/a	n/a	n/a	n/a
4061804	RECOG_TARGET	n/a	LTP093	ltpFR	5	9	0	MEDAL	885	1	0	n/a	n/a	n/a	n/a	n/a
4062472	RECOG_RESP	n/a	LTP093	ltpFR	5	9	0	MEDAL	885	n/a	0	n/a	n/a	n/a	n/a	n/a
4063919	RECOG_CONF	n/a	LTP093	ltpFR	5	9	0	MEDAL	885	1	0	n/a	n/a	n/a	n/a	n/a
4065317	RECOG_TARGET	n/a	LTP093	ltpFR	5	9	-1	EMERALD	528	5	-1	n/a	n/a	n/a	n/a	n/a
4066039	RECOG_RESP	n/a	LTP093	ltpFR	5	9	-1	EMERALD	528	n/a	-1	n/a	n/a	n/a	n/a	n/a
4066763	RECOG_CONF	n/a	LTP093	ltpFR	5	9	-1	EMERALD	528	5	-1	n/a	n/a	n/a	n/a	n/a
4068181	RECOG_TARGET	n/a	LTP093	ltpFR	5	9	-1	MASK	876	5	-1	n/a	n/a	n/a	n/a	n/a
4069516	RECOG_RESP	n/a	LTP093	ltpFR	5	9	-1	MASK	876	n/a	-1	n/a	n/a	n/a	n/a	n/a
4070255	RECOG_CONF	n/a	LTP093	ltpFR	5	9	-1	MASK	876	5	-1	n/a	n/a	n/a	n/a	n/a
4071618	RECOG_LURE	n/a	LTP093	ltpFR	5	9	n/a	BLOUSE	139	4	n/a	n/a	n/a	n/a	n/a	n/a
4072295	RECOG_RESP	n/a	LTP093	ltpFR	5	9	n/a	BLOUSE	139	n/a	n/a	n/a	n/a	n/a	n/a	n/a
4072879	RECOG_CONF	n/a	LTP093	ltpFR	5	9	n/a	BLOUSE	139	4	n/a	n/a	n/a	n/a	n/a	n/a
4074365	RECOG_TARGET	n/a	LTP093	ltpFR	5	9	1	GIRAFFE	636	5	1	n/a	n/a	n/a	n/a	n/a
4074964	RECOG_RESP	n/a	LTP093	ltpFR	5	9	1	GIRAFFE	636	n/a	1	n/a	n/a	n/a	n/a	n/a
4075583	RECOG_CONF	n/a	LTP093	ltpFR	5	9	1	GIRAFFE	636	5	1	n/a	n/a	n/a	n/a	n/a
4076903	RECOG_TARGET	n/a	LTP093	ltpFR	5	9	1	ACORN	3	5	1	n/a	n/a	n/a	n/a	n/a
4077359	RECOG_RESP	n/a	LTP093	ltpFR	5	9	1	ACORN	3	n/a	1	n/a	n/a	n/a	n/a	n/a
4077957	RECOG_CONF	n/a	LTP093	ltpFR	5	9	1	ACORN	3	5	1	n/a	n/a	n/a	n/a	n/a
4079251	RECOG_TARGET	n/a	LTP093	ltpFR	5	9	0	SOLDIER	1344	5	1	n/a	n/a	n/a	n/a	n/a
4079903	RECOG_RESP	n/a	LTP093	ltpFR	5	9	0	SOLDIER	1344	n/a	1	n/a	n/a	n/a	n/a	n/a
4080461	RECOG_CONF	n/a	LTP093	ltpFR	5	9	0	SOLDIER	1344	5	1	n/a	n/a	n/a	n/a	n/a
4081864	RECOG_TARGET	n/a	LTP093	ltpFR	5	9	0	CRADLE	399	5	0	n/a	n/a	n/a	n/a	n/a
4082432	RECOG_RESP	n/a	LTP093	ltpFR	5	9	0	CRADLE	399	n/a	0	n/a	n/a	n/a	n/a	n/a
4082986	RECOG_CONF	n/a	LTP093	ltpFR	5	9	0	CRADLE	399	5	0	n/a	n/a	n/a	n/a	n/a
4084420	RECOG_TARGET	n/a	LTP093	ltpFR	5	9	-1	COUGAR	387	5	-1	n/a	n/a	n/a	n/a	n/a
4084961	RECOG_RESP	n/a	LTP093	ltpFR	5	9	-1	COUGAR	387	n/a	-1	n/a	n/a	n/a	n/a	n/a
4085690	RECOG_CONF	n/a	LTP093	ltpFR	5	9	-1	COUGAR	387	5	-1	n/a	n/a	n/a	n/a	n/a
4087051	RECOG_LURE	n/a	LTP093	ltpFR	5	9	n/a	GENTLEMAN	631	4	n/a	n/a	n/a	n/a	n/a	n/a
4087740	RECOG_RESP	n/a	LTP093	ltpFR	5	9	n/a	GENTLEMAN	631	n/a	n/a	n/a	n/a	n/a	n/a	n/a
4088393	RECOG_CONF	n/a	LTP093	ltpFR	5	9	n/a	GENTLEMAN	631	4	n/a	n/a	n/a	n/a	n/a	n/a
4089747	RECOG_LURE	n/a	LTP093	ltpFR	5	9	n/a	VASE	1549	4	n/a	n/a	n/a	n/a	n/a	n/a
4090399	RECOG_RESP	n/a	LTP093	ltpFR	5	9	n/a	VASE	1549	n/a	n/a	n/a	n/a	n/a	n/a	n/a
4091057	RECOG_CONF	n/a	LTP093	ltpFR	5	9	n/a	VASE	1549	4	n/a	n/a	n/a	n/a	n/a	n/a
4092377	RECOG_TARGET	n/a	LTP093	ltpFR	5	9	0	ELK	526	5	1	n/a	n/a	n/a	n/a	n/a
4092953	RECOG_RESP	n/a	LTP093	ltpFR	5	9	0	ELK	526	n/a	1	n/a	n/a	n/a	n/a	n/a
4093612	RECOG_CONF	n/a	LTP093	ltpFR	5	9	0	ELK	526	5	1	n/a	n/a	n/a	n/a	n/a
4094908	RECOG_TARGET	n/a	LTP093	ltpFR	5	9	0	MARBLE	867	5	0	n/a	n/a	n/a	n/a	n/a
4095607	RECOG_RESP	n/a	LTP093	ltpFR	5	9	0	MARBLE	867	n/a	0	n/a	n/a	n/a	n/a	n/a
4096206	RECOG_CONF	n/a	LTP093	ltpFR	5	9	0	MARBLE	867	5	0	n/a	n/a	n/a	n/a	n/a
4099352	REC_START	n/a	LTP093	ltpFR	5	10	n/a	n/a	n/a	n/a	n/a	n/a	n/a	n/a	n/a	n/a
4099377	RECOG_TARGET	n/a	LTP093	ltpFR	5	10	0	LUNG	850	5	0	n/a	n/a	n/a	n/a	n/a
4100025	RECOG_RESP	n/a	LTP093	ltpFR	5	10	0	LUNG	850	n/a	0	n/a	n/a	n/a	n/a	n/a
4100644	RECOG_CONF	n/a	LTP093	ltpFR	5	10	0	LUNG	850	5	0	n/a	n/a	n/a	n/a	n/a
4102008	RECOG_LURE	n/a	LTP093	ltpFR	5	10	n/a	SWITCH	1422	4	n/a	n/a	n/a	n/a	n/a	n/a
4102594	RECOG_RESP	n/a	LTP093	ltpFR	5	10	n/a	SWITCH	1422	n/a	n/a	n/a	n/a	n/a	n/a	n/a
4103178	RECOG_CONF	n/a	LTP093	ltpFR	5	10	n/a	SWITCH	1422	4	n/a	n/a	n/a	n/a	n/a	n/a
4104546	RECOG_TARGET	n/a	LTP093	ltpFR	5	10	0	SKUNK	1321	5	0	n/a	n/a	n/a	n/a	n/a
4105243	RECOG_RESP_VV	n/a	LTP093	ltpFR	5	10	0	SKUNK	1321	n/a	0	n/a	n/a	n/a	n/a	n/a
4105837	RECOG_RESP	n/a	LTP093	ltpFR	5	10	0	SKUNK	1321	n/a	0	n/a	n/a	n/a	n/a	n/a
4106451	RECOG_CONF	n/a	LTP093	ltpFR	5	10	0	SKUNK	1321	5	0	n/a	n/a	n/a	n/a	n/a
4108042	RECOG_LURE	n/a	LTP093	ltpFR	5	10	n/a	ALMANAC	17	4	n/a	n/a	n/a	n/a	n/a	n/a
4108840	RECOG_RESP	n/a	LTP093	ltpFR	5	10	n/a	ALMANAC	17	n/a	n/a	n/a	n/a	n/a	n/a	n/a
4109424	RECOG_CONF	n/a	LTP093	ltpFR	5	10	n/a	ALMANAC	17	4	n/a	n/a	n/a	n/a	n/a	n/a
4110756	RECOG_TARGET	n/a	LTP093	ltpFR	5	10	-1	LEAF	808	5	-1	n/a	n/a	n/a	n/a	n/a
4111449	RECOG_RESP	n/a	LTP093	ltpFR	5	10	-1	LEAF	808	n/a	-1	n/a	n/a	n/a	n/a	n/a
4112118	RECOG_CONF	n/a	LTP093	ltpFR	5	10	-1	LEAF	808	5	-1	n/a	n/a	n/a	n/a	n/a
4113503	RECOG_TARGET	n/a	LTP093	ltpFR	5	10	-1	CARTON	251	1	-1	n/a	n/a	n/a	n/a	n/a
4115086	RECOG_RESP	n/a	LTP093	ltpFR	5	10	-1	CARTON	251	n/a	-1	n/a	n/a	n/a	n/a	n/a
4116977	RECOG_CONF	n/a	LTP093	ltpFR	5	10	-1	CARTON	251	1	-1	n/a	n/a	n/a	n/a	n/a
4118505	RECOG_LURE	n/a	LTP093	ltpFR	5	10	n/a	MARKER	870	4	n/a	n/a	n/a	n/a	n/a	n/a
4119386	RECOG_RESP	n/a	LTP093	ltpFR	5	10	n/a	MARKER	870	n/a	n/a	n/a	n/a	n/a	n/a	n/a
4119970	RECOG_CONF	n/a	LTP093	ltpFR	5	10	n/a	MARKER	870	4	n/a	n/a	n/a	n/a	n/a	n/a
4121860	RECOG_TARGET	n/a	LTP093	ltpFR	5	10	1	CHERRY	293	5	1	n/a	n/a	n/a	n/a	n/a
4122449	RECOG_RESP	n/a	LTP093	ltpFR	5	10	1	CHERRY	293	n/a	1	n/a	n/a	n/a	n/a	n/a
4123083	RECOG_CONF	n/a	LTP093	ltpFR	5	10	1	CHERRY	293	5	1	n/a	n/a	n/a	n/a	n/a
4124415	RECOG_LURE	n/a	LTP093	ltpFR	5	10	n/a	LACE	792	4	n/a	n/a	n/a	n/a	n/a	n/a
4125168	RECOG_RESP	n/a	LTP093	ltpFR	5	10	n/a	LACE	792	n/a	n/a	n/a	n/a	n/a	n/a	n/a
4125747	RECOG_CONF	n/a	LTP093	ltpFR	5	10	n/a	LACE	792	4	n/a	n/a	n/a	n/a	n/a	n/a
4127054	RECOG_TARGET	n/a	LTP093	ltpFR	5	10	0	BELL	118	4	0	n/a	n/a	n/a	n/a	n/a
4127722	RECOG_RESP	n/a	LTP093	ltpFR	5	10	0	BELL	118	n/a	0	n/a	n/a	n/a	n/a	n/a
4128441	RECOG_CONF	n/a	LTP093	ltpFR	5	10	0	BELL	118	4	0	n/a	n/a	n/a	n/a	n/a
4129725	RECOG_LURE	n/a	LTP093	ltpFR	5	10	n/a	CUB	419	4	n/a	n/a	n/a	n/a	n/a	n/a
4130366	RECOG_RESP	n/a	LTP093	ltpFR	5	10	n/a	CUB	419	n/a	n/a	n/a	n/a	n/a	n/a	n/a
4130985	RECOG_CONF	n/a	LTP093	ltpFR	5	10	n/a	CUB	419	4	n/a	n/a	n/a	n/a	n/a	n/a
4132356	RECOG_TARGET	n/a	LTP093	ltpFR	5	10	1	STAR	1373	5	0	n/a	n/a	n/a	n/a	n/a
4133050	RECOG_RESP	n/a	LTP093	ltpFR	5	10	1	STAR	1373	n/a	0	n/a	n/a	n/a	n/a	n/a
4133659	RECOG_CONF	n/a	LTP093	ltpFR	5	10	1	STAR	1373	5	0	n/a	n/a	n/a	n/a	n/a
4134986	RECOG_TARGET	n/a	LTP093	ltpFR	5	10	1	PELICAN	1039	5	1	n/a	n/a	n/a	n/a	n/a
4135654	RECOG_RESP	n/a	LTP093	ltpFR	5	10	1	PELICAN	1039	n/a	1	n/a	n/a	n/a	n/a	n/a
4136253	RECOG_CONF	n/a	LTP093	ltpFR	5	10	1	PELICAN	1039	5	1	n/a	n/a	n/a	n/a	n/a
4137758	RECOG_TARGET	n/a	LTP093	ltpFR	5	10	0	LABEL	790	5	0	n/a	n/a	n/a	n/a	n/a
4138368	RECOG_RESP	n/a	LTP093	ltpFR	5	10	0	LABEL	790	n/a	0	n/a	n/a	n/a	n/a	n/a
4138977	RECOG_CONF	n/a	LTP093	ltpFR	5	10	0	LABEL	790	5	0	n/a	n/a	n/a	n/a	n/a
4140413	RECOG_LURE	n/a	LTP093	ltpFR	5	10	n/a	POCKETBOOK	1094	4	n/a	n/a	n/a	n/a	n/a	n/a
4141027	RECOG_RESP	n/a	LTP093	ltpFR	5	10	n/a	POCKETBOOK	1094	n/a	n/a	n/a	n/a	n/a	n/a	n/a
4141641	RECOG_CONF	n/a	LTP093	ltpFR	5	10	n/a	POCKETBOOK	1094	4	n/a	n/a	n/a	n/a	n/a	n/a
4142985	RECOG_LURE	n/a	LTP093	ltpFR	5	10	n/a	BED	110	4	n/a	n/a	n/a	n/a	n/a	n/a
4143691	RECOG_RESP	n/a	LTP093	ltpFR	5	10	n/a	BED	110	n/a	n/a	n/a	n/a	n/a	n/a	n/a
4144315	RECOG_CONF	n/a	LTP093	ltpFR	5	10	n/a	BED	110	4	n/a	n/a	n/a	n/a	n/a	n/a
4145624	RECOG_TARGET	n/a	LTP093	ltpFR	5	10	-1	POT	1114	5	-1	n/a	n/a	n/a	n/a	n/a
4146270	RECOG_RESP	n/a	LTP093	ltpFR	5	10	-1	POT	1114	n/a	-1	n/a	n/a	n/a	n/a	n/a
