mstime	trial_type	stim_file	subject	experiment	session	trial	task	item_name	item_num	recog_resp	recog_conf	resp	answer	test_x	test_y	test_z	color_r	color_g	color_b	case	font
0	SESS_START	n/a	LTP090	ltpFR	12	n/a	n/a	n/a	n/a	1	3	n/a	n/a	0	0	0	n/a	n/a	n/a	n/a	n/a
33975	START	n/a	LTP090	ltpFR	12	n/a	n/a	n/a	n/a	n/a	n/a	n/a	n/a	n/a	n/a	n/a	n/a	n/a	n/a	n/a	n/a
34000	PROB	n/a	LTP090	ltpFR	12	n/a	n/a	n/a	n/a	n/a	n/a	n/a	9	6	1	2	n/a	n/a	n/a	n/a	n/a
35684	PROB	n/a	LTP090	ltpFR	12	n/a	n/a	n/a	n/a	n/a	n/a	n/a	14	1	5	8	n/a	n/a	n/a	n/a	n/a
38058	PROB	n/a	LTP090	ltpFR	12	n/a	n/a	n/a	n/a	n/a	n/a	n/a	10	6	1	3	n/a	n/a	n/a	n/a	n/a
39600	PROB	n/a	LTP090	ltpFR	12	n/a	n/a	n/a	n/a	n/a	n/a	n/a	21	4	9	8	n/a	n/a	n/a	n/a	n/a
41584	PROB	n/a	LTP090	ltpFR	12	n/a	n/a	n/a	n/a	n/a	n/a	n/a	5	2	2	1	n/a	n/a	n/a	n/a	n/a
43442	PROB	n/a	LTP090	ltpFR	12	n/a	n/a	n/a	n/a	n/a	n/a	n/a	16	9	4	3	n/a	n/a	n/a	n/a	n/a
45974	PROB	n/a	LTP090	ltpFR	12	n/a	n/a	n/a	n/a	n/a	n/a	n/a	21	9	3	9	n/a	n/a	n/a	n/a	n/a
48107	PROB	n/a	LTP090	ltpFR	12	n/a	n/a	n/a	n/a	n/a	n/a	n/a	14	5	4	4	n/a	n/a	n/a	n/a	n/a
51174	PROB	n/a	LTP090	ltpFR	12	n/a	n/a	n/a	n/a	n/a	n/a	n/a	17	5	5	7	n/a	n/a	n/a	n/a	n/a
52909	STOP	n/a	LTP090	ltpFR	12	n/a	n/a	n/a	n/a	n/a	n/a	n/a	n/a	n/a	n/a	n/a	n/a	n/a	n/a	n/a	n/a
85256	START	n/a	LTP090	ltpFR	12	n/a	n/a	n/a	n/a	n/a	n/a	n/a	n/a	n/a	n/a	n/a	n/a	n/a	n/a	n/a	n/a
86763	PROB	n/a	LTP090	ltpFR	12	n/a	n/a	n/a	n/a	n/a	n/a	n/a	17	7	4	6	n/a	n/a	n/a	n/a	n/a
88730	PROB	n/a	LTP090	ltpFR	12	n/a	n/a	n/a	n/a	n/a	n/a	n/a	13	4	1	8	n/a	n/a	n/a	n/a	n/a
92750	STOP	n/a	LTP090	ltpFR	12	n/a	n/a	n/a	n/a	n/a	n/a	n/a	n/a	n/a	n/a	n/a	n/a	n/a	n/a	n/a	n/a
94388	WORD	wordpools/wasnorm_wordpool.txt	LTP090	ltpFR	12	1	1	FUDGE	611	0	n/a	0	n/a	0	0	0	0.57763671875	0.412841796875	1	lower	zerothre.ttf
97396	START	n/a	LTP090	ltpFR	12	n/a	n/a	n/a	n/a	n/a	n/a	n/a	n/a	n/a	n/a	n/a	n/a	n/a	n/a	n/a	n/a
98337	PROB	n/a	LTP090	ltpFR	12	n/a	n/a	n/a	n/a	n/a	n/a	n/a	13	5	3	5	n/a	n/a	n/a	n/a	n/a
99886	PROB	n/a	LTP090	ltpFR	12	n/a	n/a	n/a	n/a	n/a	n/a	n/a	21	9	7	5	n/a	n/a	n/a	n/a	n/a
101604	PROB	n/a	LTP090	ltpFR	12	n/a	n/a	n/a	n/a	n/a	n/a	n/a	21	9	6	5	n/a	n/a	n/a	n/a	n/a
103909	STOP	n/a	LTP090	ltpFR	12	n/a	n/a	n/a	n/a	n/a	n/a	n/a	n/a	n/a	n/a	n/a	n/a	n/a	n/a	n/a	n/a
106454	WORD	wordpools/wasnorm_wordpool.txt	LTP090	ltpFR	12	1	1	MOOSE	915	n/a	n/a	1	n/a	0	0	0	0.57763671875	0.412841796875	1	lower	zerothre.ttf
109462	START	n/a	LTP090	ltpFR	12	n/a	n/a	n/a	n/a	n/a	n/a	n/a	n/a	n/a	n/a	n/a	n/a	n/a	n/a	n/a	n/a
110587	PROB	n/a	LTP090	ltpFR	12	n/a	n/a	n/a	n/a	n/a	n/a	n/a	10	1	1	8	n/a	n/a	n/a	n/a	n/a
112110	PROB	n/a	LTP090	ltpFR	12	n/a	n/a	n/a	n/a	n/a	n/a	n/a	17	7	9	1	n/a	n/a	n/a	n/a	n/a
113728	PROB	n/a	LTP090	ltpFR	12	n/a	n/a	n/a	n/a	n/a	n/a	n/a	9	5	1	3	n/a	n/a	n/a	n/a	n/a
115320	PROB	n/a	LTP090	ltpFR	12	n/a	n/a	n/a	n/a	n/a	n/a	n/a	17	8	3	6	n/a	n/a	n/a	n/a	n/a
117029	STOP	n/a	LTP090	ltpFR	12	n/a	n/a	n/a	n/a	n/a	n/a	n/a	n/a	n/a	n/a	n/a	n/a	n/a	n/a	n/a	n/a
118411	WORD	wordpools/wasnorm_wordpool.txt	LTP090	ltpFR	12	1	1	ROBE	1198	n/a	n/a	0	n/a	0	0	0	0.57763671875	0.412841796875	1	lower	zerothre.ttf
121419	START	n/a	LTP090	ltpFR	12	n/a	n/a	n/a	n/a	n/a	n/a	n/a	n/a	n/a	n/a	n/a	n/a	n/a	n/a	n/a	n/a
122252	PROB	n/a	LTP090	ltpFR	12	n/a	n/a	n/a	n/a	n/a	n/a	n/a	21	6	6	9	n/a	n/a	n/a	n/a	n/a
124469	PROB	n/a	LTP090	ltpFR	12	n/a	n/a	n/a	n/a	n/a	n/a	n/a	8	3	1	4	n/a	n/a	n/a	n/a	n/a
125959	PROB	n/a	LTP090	ltpFR	12	n/a	n/a	n/a	n/a	n/a	n/a	n/a	15	9	2	4	n/a	n/a	n/a	n/a	n/a
129419	STOP	n/a	LTP090	ltpFR	12	n/a	n/a	n/a	n/a	n/a	n/a	n/a	n/a	n/a	n/a	n/a	n/a	n/a	n/a	n/a	n/a
130310	WORD	wordpools/wasnorm_wordpool.txt	LTP090	ltpFR	12	1	1	PROFESSOR	1131	n/a	n/a	1	n/a	0	0	0	0.57763671875	0.412841796875	1	lower	zerothre.ttf
133318	START	n/a	LTP090	ltpFR	12	n/a	n/a	n/a	n/a	n/a	n/a	n/a	n/a	n/a	n/a	n/a	n/a	n/a	n/a	n/a	n/a
134235	PROB	n/a	LTP090	ltpFR	12	n/a	n/a	n/a	n/a	n/a	n/a	n/a	19	5	6	8	n/a	n/a	n/a	n/a	n/a
136034	PROB	n/a	LTP090	ltpFR	12	n/a	n/a	n/a	n/a	n/a	n/a	n/a	12	3	1	8	n/a	n/a	n/a	n/a	n/a
138634	PROB	n/a	LTP090	ltpFR	12	n/a	n/a	n/a	n/a	n/a	n/a	n/a	15	4	7	4	n/a	n/a	n/a	n/a	n/a
140414	STOP	n/a	LTP090	ltpFR	12	n/a	n/a	n/a	n/a	n/a	n/a	n/a	n/a	n/a	n/a	n/a	n/a	n/a	n/a	n/a	n/a
142384	WORD	wordpools/wasnorm_wordpool.txt	LTP090	ltpFR	12	1	1	PUPIL	1143	n/a	n/a	1	n/a	0	0	0	0.57763671875	0.412841796875	1	lower	zerothre.ttf
145393	START	n/a	LTP090	ltpFR	12	n/a	n/a	n/a	n/a	n/a	n/a	n/a	n/a	n/a	n/a	n/a	n/a	n/a	n/a	n/a	n/a
146342	PROB	n/a	LTP090	ltpFR	12	n/a	n/a	n/a	n/a	n/a	n/a	n/a	6	2	3	1	n/a	n/a	n/a	n/a	n/a
148242	PROB	n/a	LTP090	ltpFR	12	n/a	n/a	n/a	n/a	n/a	n/a	n/a	22	8	5	9	n/a	n/a	n/a	n/a	n/a
150417	PROB	n/a	LTP090	ltpFR	12	n/a	n/a	n/a	n/a	n/a	n/a	n/a	21	9	7	3	n/a	n/a	n/a	n/a	n/a
152782	STOP	n/a	LTP090	ltpFR	12	n/a	n/a	n/a	n/a	n/a	n/a	n/a	n/a	n/a	n/a	n/a	n/a	n/a	n/a	n/a	n/a
154458	WORD	wordpools/wasnorm_wordpool.txt	LTP090	ltpFR	12	1	1	THICKET	1455	n/a	n/a	0	n/a	0	0	0	0.57763671875	0.412841796875	1	lower	zerothre.ttf
157467	START	n/a	LTP090	ltpFR	12	n/a	n/a	n/a	n/a	n/a	n/a	n/a	n/a	n/a	n/a	n/a	n/a	n/a	n/a	n/a	n/a
158408	PROB	n/a	LTP090	ltpFR	12	n/a	n/a	n/a	n/a	n/a	n/a	n/a	16	7	7	2	n/a	n/a	n/a	n/a	n/a
160341	PROB	n/a	LTP090	ltpFR	12	n/a	n/a	n/a	n/a	n/a	n/a	n/a	15	4	6	5	n/a	n/a	n/a	n/a	n/a
161890	PROB	n/a	LTP090	ltpFR	12	n/a	n/a	n/a	n/a	n/a	n/a	n/a	7	1	1	5	n/a	n/a	n/a	n/a	n/a
165466	STOP	n/a	LTP090	ltpFR	12	n/a	n/a	n/a	n/a	n/a	n/a	n/a	n/a	n/a	n/a	n/a	n/a	n/a	n/a	n/a	n/a
166374	WORD	wordpools/wasnorm_wordpool.txt	LTP090	ltpFR	12	1	1	OUTFIT	988	n/a	n/a	0	n/a	0	0	0	0.57763671875	0.412841796875	1	lower	zerothre.ttf
169382	START	n/a	LTP090	ltpFR	12	n/a	n/a	n/a	n/a	n/a	n/a	n/a	n/a	n/a	n/a	n/a	n/a	n/a	n/a	n/a	n/a
170249	PROB	n/a	LTP090	ltpFR	12	n/a	n/a	n/a	n/a	n/a	n/a	n/a	15	2	5	8	n/a	n/a	n/a	n/a	n/a
172215	PROB	n/a	LTP090	ltpFR	12	n/a	n/a	n/a	n/a	n/a	n/a	n/a	14	7	4	3	n/a	n/a	n/a	n/a	n/a
174831	PROB	n/a	LTP090	ltpFR	12	n/a	n/a	n/a	n/a	n/a	n/a	n/a	19	5	5	9	n/a	n/a	n/a	n/a	n/a
176238	STOP	n/a	LTP090	ltpFR	12	n/a	n/a	n/a	n/a	n/a	n/a	n/a	n/a	n/a	n/a	n/a	n/a	n/a	n/a	n/a	n/a
178490	WORD	wordpools/wasnorm_wordpool.txt	LTP090	ltpFR	12	1	1	RIVER	1194	n/a	n/a	0	n/a	0	0	0	0.57763671875	0.412841796875	1	lower	zerothre.ttf
181498	START	n/a	LTP090	ltpFR	12	n/a	n/a	n/a	n/a	n/a	n/a	n/a	n/a	n/a	n/a	n/a	n/a	n/a	n/a	n/a	n/a
182598	PROB	n/a	LTP090	ltpFR	12	n/a	n/a	n/a	n/a	n/a	n/a	n/a	17	8	6	3	n/a	n/a	n/a	n/a	n/a
185888	PROB	n/a	LTP090	ltpFR	12	n/a	n/a	n/a	n/a	n/a	n/a	n/a	10	3	1	6	n/a	n/a	n/a	n/a	n/a
188877	STOP	n/a	LTP090	ltpFR	12	n/a	n/a	n/a	n/a	n/a	n/a	n/a	n/a	n/a	n/a	n/a	n/a	n/a	n/a	n/a	n/a
190439	WORD	wordpools/wasnorm_wordpool.txt	LTP090	ltpFR	12	1	1	ATTIRE	57	n/a	n/a	0	n/a	0	0	0	0.57763671875	0.412841796875	1	lower	zerothre.ttf
193447	START	n/a	LTP090	ltpFR	12	n/a	n/a	n/a	n/a	n/a	n/a	n/a	n/a	n/a	n/a	n/a	n/a	n/a	n/a	n/a	n/a
194388	PROB	n/a	LTP090	ltpFR	12	n/a	n/a	n/a	n/a	n/a	n/a	n/a	19	6	5	8	n/a	n/a	n/a	n/a	n/a
196380	PROB	n/a	LTP090	ltpFR	12	n/a	n/a	n/a	n/a	n/a	n/a	n/a	18	8	9	1	n/a	n/a	n/a	n/a	n/a
198037	PROB	n/a	LTP090	ltpFR	12	n/a	n/a	n/a	n/a	n/a	n/a	n/a	16	6	5	5	n/a	n/a	n/a	n/a	n/a
199321	PROB	n/a	LTP090	ltpFR	12	n/a	n/a	n/a	n/a	n/a	n/a	n/a	14	6	1	7	n/a	n/a	n/a	n/a	n/a
200742	STOP	n/a	LTP090	ltpFR	12	n/a	n/a	n/a	n/a	n/a	n/a	n/a	n/a	n/a	n/a	n/a	n/a	n/a	n/a	n/a	n/a
202271	WORD	wordpools/wasnorm_wordpool.txt	LTP090	ltpFR	12	1	1	FOX	598	n/a	n/a	1	n/a	0	0	0	0.57763671875	0.412841796875	1	lower	zerothre.ttf
205280	START	n/a	LTP090	ltpFR	12	n/a	n/a	n/a	n/a	n/a	n/a	n/a	n/a	n/a	n/a	n/a	n/a	n/a	n/a	n/a	n/a
206187	PROB	n/a	LTP090	ltpFR	12	n/a	n/a	n/a	n/a	n/a	n/a	n/a	22	9	6	7	n/a	n/a	n/a	n/a	n/a
208554	PROB	n/a	LTP090	ltpFR	12	n/a	n/a	n/a	n/a	n/a	n/a	n/a	21	5	7	8	n/a	n/a	n/a	n/a	n/a
213280	STOP	n/a	LTP090	ltpFR	12	n/a	n/a	n/a	n/a	n/a	n/a	n/a	n/a	n/a	n/a	n/a	n/a	n/a	n/a	n/a	n/a
214237	WORD	wordpools/wasnorm_wordpool.txt	LTP090	ltpFR	12	1	1	SWAMP	1416	n/a	n/a	1	n/a	0	0	0	0.57763671875	0.412841796875	1	lower	zerothre.ttf
217245	START	n/a	LTP090	ltpFR	12	n/a	n/a	n/a	n/a	n/a	n/a	n/a	n/a	n/a	n/a	n/a	n/a	n/a	n/a	n/a	n/a
218153	PROB	n/a	LTP090	ltpFR	12	n/a	n/a	n/a	n/a	n/a	n/a	n/a	16	8	1	7	n/a	n/a	n/a	n/a	n/a
219910	PROB	n/a	LTP090	ltpFR	12	n/a	n/a	n/a	n/a	n/a	n/a	n/a	13	1	4	8	n/a	n/a	n/a	n/a	n/a
222885	PROB	n/a	LTP090	ltpFR	12	n/a	n/a	n/a	n/a	n/a	n/a	n/a	14	7	1	5	n/a	n/a	n/a	n/a	n/a
225029	STOP	n/a	LTP090	ltpFR	12	n/a	n/a	n/a	n/a	n/a	n/a	n/a	n/a	n/a	n/a	n/a	n/a	n/a	n/a	n/a	n/a
226228	WORD	wordpools/wasnorm_wordpool.txt	LTP090	ltpFR	12	1	1	SPINACH	1352	n/a	n/a	0	n/a	0	0	0	0.57763671875	0.412841796875	1	lower	zerothre.ttf
229236	START	n/a	LTP090	ltpFR	12	n/a	n/a	n/a	n/a	n/a	n/a	n/a	n/a	n/a	n/a	n/a	n/a	n/a	n/a	n/a	n/a
230202	PROB	n/a	LTP090	ltpFR	12	n/a	n/a	n/a	n/a	n/a	n/a	n/a	12	4	1	7	n/a	n/a	n/a	n/a	n/a
232360	PROB	n/a	LTP090	ltpFR	12	n/a	n/a	n/a	n/a	n/a	n/a	n/a	22	8	7	7	n/a	n/a	n/a	n/a	n/a
237013	STOP	n/a	LTP090	ltpFR	12	n/a	n/a	n/a	n/a	n/a	n/a	n/a	n/a	n/a	n/a	n/a	n/a	n/a	n/a	n/a	n/a
238210	WORD	wordpools/wasnorm_wordpool.txt	LTP090	ltpFR	12	1	1	GROCERY	664	n/a	n/a	0	n/a	0	0	0	0.57763671875	0.412841796875	1	lower	zerothre.ttf
241219	START	n/a	LTP090	ltpFR	12	n/a	n/a	n/a	n/a	n/a	n/a	n/a	n/a	n/a	n/a	n/a	n/a	n/a	n/a	n/a	n/a
249219	STOP	n/a	LTP090	ltpFR	12	n/a	n/a	n/a	n/a	n/a	n/a	n/a	n/a	n/a	n/a	n/a	n/a	n/a	n/a	n/a	n/a
250117	WORD	wordpools/wasnorm_wordpool.txt	LTP090	ltpFR	12	1	1	LUNCH	849	n/a	n/a	0	n/a	0	0	0	0.57763671875	0.412841796875	1	lower	zerothre.ttf
253126	START	n/a	LTP090	ltpFR	12	n/a	n/a	n/a	n/a	n/a	n/a	n/a	n/a	n/a	n/a	n/a	n/a	n/a	n/a	n/a	n/a
254091	PROB	n/a	LTP090	ltpFR	12	n/a	n/a	n/a	n/a	n/a	n/a	n/a	17	1	9	7	n/a	n/a	n/a	n/a	n/a
255634	PROB	n/a	LTP090	ltpFR	12	n/a	n/a	n/a	n/a	n/a	n/a	n/a	15	1	4	8	n/a	n/a	n/a	n/a	n/a
258816	PROB	n/a	LTP090	ltpFR	12	n/a	n/a	n/a	n/a	n/a	n/a	n/a	15	7	3	5	n/a	n/a	n/a	n/a	n/a
260582	STOP	n/a	LTP090	ltpFR	12	n/a	n/a	n/a	n/a	n/a	n/a	n/a	n/a	n/a	n/a	n/a	n/a	n/a	n/a	n/a	n/a
262266	WORD	wordpools/wasnorm_wordpool.txt	LTP090	ltpFR	12	1	1	PALM	1007	n/a	n/a	0	n/a	0	0	0	0.57763671875	0.412841796875	1	lower	zerothre.ttf
265267	START	n/a	LTP090	ltpFR	12	n/a	n/a	n/a	n/a	n/a	n/a	n/a	n/a	n/a	n/a	n/a	n/a	n/a	n/a	n/a	n/a
266283	PROB	n/a	LTP090	ltpFR	12	n/a	n/a	n/a	n/a	n/a	n/a	n/a	13	5	6	2	n/a	n/a	n/a	n/a	n/a
268549	PROB	n/a	LTP090	ltpFR	12	n/a	n/a	n/a	n/a	n/a	n/a	n/a	21	7	8	6	n/a	n/a	n/a	n/a	n/a
273267	STOP	n/a	LTP090	ltpFR	12	n/a	n/a	n/a	n/a	n/a	n/a	n/a	n/a	n/a	n/a	n/a	n/a	n/a	n/a	n/a	n/a
274424	WORD	wordpools/wasnorm_wordpool.txt	LTP090	ltpFR	12	1	1	ELBOW	520	n/a	n/a	0	n/a	0	0	0	0.57763671875	0.412841796875	1	lower	zerothre.ttf
277432	START	n/a	LTP090	ltpFR	12	n/a	n/a	n/a	n/a	n/a	n/a	n/a	n/a	n/a	n/a	n/a	n/a	n/a	n/a	n/a	n/a
278615	PROB	n/a	LTP090	ltpFR	12	n/a	n/a	n/a	n/a	n/a	n/a	n/a	15	9	3	3	n/a	n/a	n/a	n/a	n/a
280648	PROB	n/a	LTP090	ltpFR	12	n/a	n/a	n/a	n/a	n/a	n/a	n/a	19	4	9	6	n/a	n/a	n/a	n/a	n/a
285431	STOP	n/a	LTP090	ltpFR	12	n/a	n/a	n/a	n/a	n/a	n/a	n/a	n/a	n/a	n/a	n/a	n/a	n/a	n/a	n/a	n/a
287257	REC_START	n/a	LTP090	ltpFR	12	1	n/a	n/a	n/a	n/a	n/a	n/a	n/a	0	0	0	n/a	n/a	n/a	n/a	n/a
289736	REC_WORD	wordpools/wasnorm_wordpool.txt	LTP090	ltpFR	12	1	1	ELBOW	520	n/a	n/a	0	n/a	0	0	0	n/a	n/a	n/a	n/a	n/a
290948	REC_WORD	wordpools/wasnorm_wordpool.txt	LTP090	ltpFR	12	1	1	GROCERY	664	n/a	n/a	0	n/a	0	0	0	n/a	n/a	n/a	n/a	n/a
292550	REC_WORD	wordpools/wasnorm_wordpool.txt	LTP090	ltpFR	12	1	1	MOOSE	915	n/a	n/a	1	n/a	0	0	0	n/a	n/a	n/a	n/a	n/a
294540	REC_WORD	wordpools/wasnorm_wordpool.txt	LTP090	ltpFR	12	1	1	PROFESSOR	1131	n/a	n/a	1	n/a	0	0	0	n/a	n/a	n/a	n/a	n/a
295857	REC_WORD	wordpools/wasnorm_wordpool.txt	LTP090	ltpFR	12	1	1	PUPIL	1143	n/a	n/a	1	n/a	0	0	0	n/a	n/a	n/a	n/a	n/a
297134	REC_WORD	wordpools/wasnorm_wordpool.txt	LTP090	ltpFR	12	1	1	ROBE	1198	n/a	n/a	0	n/a	0	0	0	n/a	n/a	n/a	n/a	n/a
298271	REC_WORD	wordpools/wasnorm_wordpool.txt	LTP090	ltpFR	12	1	1	THICKET	1455	n/a	n/a	0	n/a	0	0	0	n/a	n/a	n/a	n/a	n/a
299863	REC_WORD	wordpools/wasnorm_wordpool.txt	LTP090	ltpFR	12	1	1	RIVER	1194	n/a	n/a	0	n/a	0	0	0	n/a	n/a	n/a	n/a	n/a
303016	REC_WORD	wordpools/wasnorm_wordpool.txt	LTP090	ltpFR	12	1	1	OUTFIT	988	n/a	n/a	0	n/a	0	0	0	n/a	n/a	n/a	n/a	n/a
304413	REC_WORD	wordpools/wasnorm_wordpool.txt	LTP090	ltpFR	12	1	1	ATTIRE	57	n/a	n/a	0	n/a	0	0	0	n/a	n/a	n/a	n/a	n/a
306772	REC_WORD	wordpools/wasnorm_wordpool.txt	LTP090	ltpFR	12	1	1	FOX	598	n/a	n/a	1	n/a	0	0	0	n/a	n/a	n/a	n/a	n/a
314181	REC_WORD	wordpools/wasnorm_wordpool.txt	LTP090	ltpFR	12	1	1	LUNCH	849	n/a	n/a	0	n/a	0	0	0	n/a	n/a	n/a	n/a	n/a
367125	WORD	wordpools/wasnorm_wordpool.txt	LTP090	ltpFR	12	2	1	FACTORY	548	n/a	n/a	0	n/a	0	0	0	0.57763671875	0.412841796875	1	lower	zerothre.ttf
370990	WORD	wordpools/wasnorm_wordpool.txt	LTP090	ltpFR	12	2	1	MILITARY	894	n/a	n/a	0	n/a	0	0	0	0.57763671875	0.412841796875	1	lower	zerothre.ttf
375116	WORD	wordpools/wasnorm_wordpool.txt	LTP090	ltpFR	12	2	1	SOLDIER	1344	n/a	n/a	1	n/a	0	0	0	0.57763671875	0.412841796875	1	lower	zerothre.ttf
379241	WORD	wordpools/wasnorm_wordpool.txt	LTP090	ltpFR	12	2	1	CINNAMON	310	n/a	n/a	0	n/a	0	0	0	0.57763671875	0.412841796875	1	lower	zerothre.ttf
383182	WORD	wordpools/wasnorm_wordpool.txt	LTP090	ltpFR	12	2	1	JAW	751	n/a	n/a	0	n/a	0	0	0	0.57763671875	0.412841796875	1	lower	zerothre.ttf
387365	WORD	wordpools/wasnorm_wordpool.txt	LTP090	ltpFR	12	2	1	ASSOCIATE	49	n/a	n/a	1	n/a	0	0	0	0.57763671875	0.412841796875	1	lower	zerothre.ttf
391482	WORD	wordpools/wasnorm_wordpool.txt	LTP090	ltpFR	12	2	1	TOMB	1477	n/a	n/a	0	n/a	0	0	0	0.57763671875	0.412841796875	1	lower	zerothre.ttf
395315	WORD	wordpools/wasnorm_wordpool.txt	LTP090	ltpFR	12	2	1	OUTLAW	989	n/a	n/a	1	n/a	0	0	0	0.57763671875	0.412841796875	1	lower	zerothre.ttf
399464	WORD	wordpools/wasnorm_wordpool.txt	LTP090	ltpFR	12	2	1	HIGHWAY	707	n/a	n/a	0	n/a	0	0	0	0.57763671875	0.412841796875	1	lower	zerothre.ttf
403539	WORD	wordpools/wasnorm_wordpool.txt	LTP090	ltpFR	12	2	1	SALT	1229	n/a	n/a	0	n/a	0	0	0	0.57763671875	0.412841796875	1	lower	zerothre.ttf
407697	WORD	wordpools/wasnorm_wordpool.txt	LTP090	ltpFR	12	2	1	WALL	1582	n/a	n/a	0	n/a	0	0	0	0.57763671875	0.412841796875	1	lower	zerothre.ttf
411655	WORD	wordpools/wasnorm_wordpool.txt	LTP090	ltpFR	12	2	1	GRAVEL	659	n/a	n/a	0	n/a	0	0	0	0.57763671875	0.412841796875	1	lower	zerothre.ttf
415705	WORD	wordpools/wasnorm_wordpool.txt	LTP090	ltpFR	12	2	1	SCARF	1246	n/a	n/a	0	n/a	0	0	0	0.57763671875	0.412841796875	1	lower	zerothre.ttf
419746	WORD	wordpools/wasnorm_wordpool.txt	LTP090	ltpFR	12	2	1	SKULL	1320	n/a	n/a	0	n/a	0	0	0	0.57763671875	0.412841796875	1	lower	zerothre.ttf
423571	WORD	wordpools/wasnorm_wordpool.txt	LTP090	ltpFR	12	2	1	DRAGON	492	n/a	n/a	1	n/a	0	0	0	0.57763671875	0.412841796875	1	lower	zerothre.ttf
427570	WORD	wordpools/wasnorm_wordpool.txt	LTP090	ltpFR	12	2	1	RADISH	1158	n/a	n/a	0	n/a	0	0	0	0.57763671875	0.412841796875	1	lower	zerothre.ttf
430570	START	n/a	LTP090	ltpFR	12	n/a	n/a	n/a	n/a	n/a	n/a	n/a	n/a	n/a	n/a	n/a	n/a	n/a	n/a	n/a	n/a
431420	PROB	n/a	LTP090	ltpFR	12	n/a	n/a	n/a	n/a	n/a	n/a	n/a	15	6	2	7	n/a	n/a	n/a	n/a	n/a
434894	PROB	n/a	LTP090	ltpFR	12	n/a	n/a	n/a	n/a	n/a	n/a	n/a	5	2	1	2	n/a	n/a	n/a	n/a	n/a
438570	STOP	n/a	LTP090	ltpFR	12	n/a	n/a	n/a	n/a	n/a	n/a	n/a	n/a	n/a	n/a	n/a	n/a	n/a	n/a	n/a	n/a
440337	REC_START	n/a	LTP090	ltpFR	12	2	n/a	n/a	n/a	n/a	n/a	n/a	n/a	0	0	0	n/a	n/a	n/a	n/a	n/a
445255	REC_WORD	wordpools/wasnorm_wordpool.txt	LTP090	ltpFR	12	2	1	SCARF	1246	n/a	n/a	0	n/a	0	0	0	n/a	n/a	n/a	n/a	n/a
446457	REC_WORD	wordpools/wasnorm_wordpool.txt	LTP090	ltpFR	12	2	1	SKULL	1320	n/a	n/a	0	n/a	0	0	0	n/a	n/a	n/a	n/a	n/a
456734	REC_WORD	wordpools/wasnorm_wordpool.txt	LTP090	ltpFR	12	2	1	FACTORY	548	n/a	n/a	0	n/a	0	0	0	n/a	n/a	n/a	n/a	n/a
457832	REC_WORD	wordpools/wasnorm_wordpool.txt	LTP090	ltpFR	12	2	1	MILITARY	894	n/a	n/a	0	n/a	0	0	0	n/a	n/a	n/a	n/a	n/a
459024	REC_WORD	wordpools/wasnorm_wordpool.txt	LTP090	ltpFR	12	2	1	SOLDIER	1344	n/a	n/a	1	n/a	0	0	0	n/a	n/a	n/a	n/a	n/a
464392	REC_WORD	wordpools/wasnorm_wordpool.txt	LTP090	ltpFR	12	2	1	JAW	751	n/a	n/a	0	n/a	0	0	0	n/a	n/a	n/a	n/a	n/a
465160	REC_WORD	wordpools/wasnorm_wordpool.txt	LTP090	ltpFR	12	2	1	CINNAMON	310	n/a	n/a	0	n/a	0	0	0	n/a	n/a	n/a	n/a	n/a
466437	REC_WORD	wordpools/wasnorm_wordpool.txt	LTP090	ltpFR	12	2	1	SALT	1229	n/a	n/a	0	n/a	0	0	0	n/a	n/a	n/a	n/a	n/a
467595	REC_WORD	wordpools/wasnorm_wordpool.txt	LTP090	ltpFR	12	2	1	ASSOCIATE	49	n/a	n/a	1	n/a	0	0	0	n/a	n/a	n/a	n/a	n/a
471087	REC_WORD	wordpools/wasnorm_wordpool.txt	LTP090	ltpFR	12	2	1	HIGHWAY	707	n/a	n/a	0	n/a	0	0	0	n/a	n/a	n/a	n/a	n/a
472324	REC_WORD	wordpools/wasnorm_wordpool.txt	LTP090	ltpFR	12	2	1	TOMB	1477	n/a	n/a	0	n/a	0	0	0	n/a	n/a	n/a	n/a	n/a
473466	REC_WORD	wordpools/wasnorm_wordpool.txt	LTP090	ltpFR	12	2	1	OUTLAW	989	n/a	n/a	1	n/a	0	0	0	n/a	n/a	n/a	n/a	n/a
478550	REC_WORD	wordpools/wasnorm_wordpool.txt	LTP090	ltpFR	12	2	1	WALL	1582	n/a	n/a	0	n/a	0	0	0	n/a	n/a	n/a	n/a	n/a
479687	REC_WORD	wordpools/wasnorm_wordpool.txt	LTP090	ltpFR	12	2	1	GRAVEL	659	n/a	n/a	0	n/a	0	0	0	n/a	n/a	n/a	n/a	n/a
500695	REC_WORD	wordpools/wasnorm_wordpool.txt	LTP090	ltpFR	12	2	1	DRAGON	492	n/a	n/a	1	n/a	0	0	0	n/a	n/a	n/a	n/a	n/a
508651	REC_WORD	wordpools/wasnorm_wordpool.txt	LTP090	ltpFR	12	2	1	RADISH	1158	n/a	n/a	0	n/a	0	0	0	n/a	n/a	n/a	n/a	n/a
521330	WORD	wordpools/wasnorm_wordpool.txt	LTP090	ltpFR	12	3	1	WITNESS	1618	n/a	n/a	1	n/a	0	0	0	0.57763671875	0.412841796875	1	lower	zerothre.ttf
525288	WORD	wordpools/wasnorm_wordpool.txt	LTP090	ltpFR	12	3	1	RACCOON	1153	n/a	n/a	1	n/a	0	0	0	0.57763671875	0.412841796875	1	lower	zerothre.ttf
529121	WORD	wordpools/wasnorm_wordpool.txt	LTP090	ltpFR	12	3	1	ANTEATER	26	n/a	n/a	1	n/a	0	0	0	0.57763671875	0.412841796875	1	lower	zerothre.ttf
532995	WORD	wordpools/wasnorm_wordpool.txt	LTP090	ltpFR	12	3	1	SERVANT	1271	n/a	n/a	1	n/a	0	0	0	0.57763671875	0.412841796875	1	lower	zerothre.ttf
536819	WORD	wordpools/wasnorm_wordpool.txt	LTP090	ltpFR	12	3	0	SATURN	1236	n/a	n/a	1	n/a	0	0	0	0.422607421875	0.5869140625	0	upper	amplitud.ttf
540802	WORD	wordpools/wasnorm_wordpool.txt	LTP090	ltpFR	12	3	0	CROWN	415	n/a	n/a	1	n/a	0	0	0	0.422607421875	0.5869140625	0	upper	amplitud.ttf
544835	WORD	wordpools/wasnorm_wordpool.txt	LTP090	ltpFR	12	3	1	UNIFORM	1539	n/a	n/a	0	n/a	0	0	0	0.57763671875	0.412841796875	1	lower	zerothre.ttf
548993	WORD	wordpools/wasnorm_wordpool.txt	LTP090	ltpFR	12	3	1	LAWYER	806	n/a	n/a	1	n/a	0	0	0	0.57763671875	0.412841796875	1	lower	zerothre.ttf
553161	WORD	wordpools/wasnorm_wordpool.txt	LTP090	ltpFR	12	3	1	SADDLE	1221	n/a	n/a	0	n/a	0	0	0	0.57763671875	0.412841796875	1	lower	zerothre.ttf
557119	WORD	wordpools/wasnorm_wordpool.txt	LTP090	ltpFR	12	3	1	POWDER	1117	n/a	n/a	0	n/a	0	0	0	0.57763671875	0.412841796875	1	lower	zerothre.ttf
561243	WORD	wordpools/wasnorm_wordpool.txt	LTP090	ltpFR	12	3	0	RELISH	1183	n/a	n/a	0	n/a	0	0	0	0.422607421875	0.5869140625	0	upper	amplitud.ttf
565135	WORD	wordpools/wasnorm_wordpool.txt	LTP090	ltpFR	12	3	0	JURY	766	n/a	n/a	1	n/a	0	0	0	0.422607421875	0.5869140625	0	upper	amplitud.ttf
568975	WORD	wordpools/wasnorm_wordpool.txt	LTP090	ltpFR	12	3	0	BARREL	91	n/a	n/a	0	n/a	0	0	0	0.422607421875	0.5869140625	0	upper	amplitud.ttf
573159	WORD	wordpools/wasnorm_wordpool.txt	LTP090	ltpFR	12	3	0	WINE	1613	n/a	n/a	0	n/a	0	0	0	0.422607421875	0.5869140625	0	upper	amplitud.ttf
577225	WORD	wordpools/wasnorm_wordpool.txt	LTP090	ltpFR	12	3	0	MULE	931	n/a	n/a	1	n/a	0	0	0	0.422607421875	0.5869140625	0	upper	amplitud.ttf
581275	WORD	wordpools/wasnorm_wordpool.txt	LTP090	ltpFR	12	3	0	CIGARETTE	309	n/a	n/a	0	n/a	0	0	0	0.422607421875	0.5869140625	0	upper	amplitud.ttf
584283	START	n/a	LTP090	ltpFR	12	n/a	n/a	n/a	n/a	n/a	n/a	n/a	n/a	n/a	n/a	n/a	n/a	n/a	n/a	n/a	n/a
585300	PROB	n/a	LTP090	ltpFR	12	n/a	n/a	n/a	n/a	n/a	n/a	n/a	15	1	5	9	n/a	n/a	n/a	n/a	n/a
587433	PROB	n/a	LTP090	ltpFR	12	n/a	n/a	n/a	n/a	n/a	n/a	n/a	19	7	7	5	n/a	n/a	n/a	n/a	n/a
590258	PROB	n/a	LTP090	ltpFR	12	n/a	n/a	n/a	n/a	n/a	n/a	n/a	16	6	2	7	n/a	n/a	n/a	n/a	n/a
593158	PROB	n/a	LTP090	ltpFR	12	n/a	n/a	n/a	n/a	n/a	n/a	n/a	19	4	8	7	n/a	n/a	n/a	n/a	n/a
596282	PROB	n/a	LTP090	ltpFR	12	n/a	n/a	n/a	n/a	n/a	n/a	n/a	18	8	7	3	n/a	n/a	n/a	n/a	n/a
597914	PROB	n/a	LTP090	ltpFR	12	n/a	n/a	n/a	n/a	n/a	n/a	n/a	16	7	1	8	n/a	n/a	n/a	n/a	n/a
599909	STOP	n/a	LTP090	ltpFR	12	n/a	n/a	n/a	n/a	n/a	n/a	n/a	n/a	n/a	n/a	n/a	n/a	n/a	n/a	n/a	n/a
602124	REC_START	n/a	LTP090	ltpFR	12	3	n/a	n/a	n/a	n/a	n/a	n/a	n/a	0	0	0	n/a	n/a	n/a	n/a	n/a
605566	REC_WORD	wordpools/wasnorm_wordpool.txt	LTP090	ltpFR	12	3	1	WITNESS	1618	n/a	n/a	1	n/a	0	0	0	n/a	n/a	n/a	n/a	n/a
606812	REC_WORD	wordpools/wasnorm_wordpool.txt	LTP090	ltpFR	12	3	1	RACCOON	1153	n/a	n/a	1	n/a	0	0	0	n/a	n/a	n/a	n/a	n/a
609582	REC_WORD	wordpools/wasnorm_wordpool.txt	LTP090	ltpFR	12	3	1	SERVANT	1271	n/a	n/a	1	n/a	0	0	0	n/a	n/a	n/a	n/a	n/a
613702	REC_WORD	wordpools/wasnorm_wordpool.txt	LTP090	ltpFR	12	3	1	SADDLE	1221	n/a	n/a	0	n/a	0	0	0	n/a	n/a	n/a	n/a	n/a
615429	REC_WORD	wordpools/wasnorm_wordpool.txt	LTP090	ltpFR	12	3	0	MULE	931	n/a	n/a	1	n/a	0	0	0	n/a	n/a	n/a	n/a	n/a
618447	REC_WORD	wordpools/wasnorm_wordpool.txt	LTP090	ltpFR	12	3	0	JURY	766	n/a	n/a	1	n/a	0	0	0	n/a	n/a	n/a	n/a	n/a
623131	REC_WORD	wordpools/wasnorm_wordpool.txt	LTP090	ltpFR	12	3	0	CROWN	415	n/a	n/a	1	n/a	0	0	0	n/a	n/a	n/a	n/a	n/a
625072	REC_WORD	wordpools/wasnorm_wordpool.txt	LTP090	ltpFR	12	3	1	POWDER	1117	n/a	n/a	0	n/a	0	0	0	n/a	n/a	n/a	n/a	n/a
628903	REC_WORD	wordpools/wasnorm_wordpool.txt	LTP090	ltpFR	12	3	0	CIGARETTE	309	n/a	n/a	0	n/a	0	0	0	n/a	n/a	n/a	n/a	n/a
631367	REC_WORD	wordpools/wasnorm_wordpool.txt	LTP090	ltpFR	12	3	0	RELISH	1183	n/a	n/a	0	n/a	0	0	0	n/a	n/a	n/a	n/a	n/a
638213	REC_WORD_VV	wordpools/wasnorm_wordpool.txt	LTP090	ltpFR	12	3	n/a	<>	-1	n/a	n/a	n/a	n/a	0	0	0	n/a	n/a	n/a	n/a	n/a
639588	REC_WORD	wordpools/wasnorm_wordpool.txt	LTP090	ltpFR	12	3	1	UNIFORM	1539	n/a	n/a	0	n/a	0	0	0	n/a	n/a	n/a	n/a	n/a
648359	REC_WORD	wordpools/wasnorm_wordpool.txt	LTP090	ltpFR	12	3	1	LAWYER	806	n/a	n/a	1	n/a	0	0	0	n/a	n/a	n/a	n/a	n/a
655901	REC_WORD	wordpools/wasnorm_wordpool.txt	LTP090	ltpFR	12	3	0	WINE	1613	n/a	n/a	0	n/a	0	0	0	n/a	n/a	n/a	n/a	n/a
681426	WORD	wordpools/wasnorm_wordpool.txt	LTP090	ltpFR	12	4	1	DRIVER	499	n/a	n/a	1	n/a	0	0	0	0.57763671875	0.412841796875	1	lower	zerothre.ttf
685309	WORD	wordpools/wasnorm_wordpool.txt	LTP090	ltpFR	12	4	1	ROOT	1210	n/a	n/a	0	n/a	0	0	0	0.57763671875	0.412841796875	1	lower	zerothre.ttf
689442	WORD	wordpools/wasnorm_wordpool.txt	LTP090	ltpFR	12	4	1	MOSS	918	n/a	n/a	0	n/a	0	0	0	0.57763671875	0.412841796875	1	lower	zerothre.ttf
693650	WORD	wordpools/wasnorm_wordpool.txt	LTP090	ltpFR	12	4	1	CLOUD	328	n/a	n/a	0	n/a	0	0	0	0.57763671875	0.412841796875	1	lower	zerothre.ttf
697774	WORD	wordpools/wasnorm_wordpool.txt	LTP090	ltpFR	12	4	1	TORTOISE	1486	n/a	n/a	1	n/a	0	0	0	0.57763671875	0.412841796875	1	lower	zerothre.ttf
701990	WORD	wordpools/wasnorm_wordpool.txt	LTP090	ltpFR	12	4	0	QUARTER	1148	n/a	n/a	0	n/a	0	0	0	0.422607421875	0.5869140625	0	upper	amplitud.ttf
705956	WORD	wordpools/wasnorm_wordpool.txt	LTP090	ltpFR	12	4	0	SHOP	1290	n/a	n/a	1	n/a	0	0	0	0.422607421875	0.5869140625	0	upper	amplitud.ttf
710098	WORD	wordpools/wasnorm_wordpool.txt	LTP090	ltpFR	12	4	0	PATROL	1027	n/a	n/a	1	n/a	0	0	0	0.422607421875	0.5869140625	0	upper	amplitud.ttf
714190	WORD	wordpools/wasnorm_wordpool.txt	LTP090	ltpFR	12	4	0	PUPPY	1144	n/a	n/a	0	n/a	0	0	0	0.422607421875	0.5869140625	0	upper	amplitud.ttf
718306	WORD	wordpools/wasnorm_wordpool.txt	LTP090	ltpFR	12	4	0	CONVENT	370	n/a	n/a	1	n/a	0	0	0	0.422607421875	0.5869140625	0	upper	amplitud.ttf
722414	WORD	wordpools/wasnorm_wordpool.txt	LTP090	ltpFR	12	4	0	SIREN	1310	n/a	n/a	0	n/a	0	0	0	0.422607421875	0.5869140625	0	upper	amplitud.ttf
726256	WORD	wordpools/wasnorm_wordpool.txt	LTP090	ltpFR	12	4	1	COLLAR	345	n/a	n/a	0	n/a	0	0	0	0.57763671875	0.412841796875	1	lower	zerothre.ttf
730164	WORD	wordpools/wasnorm_wordpool.txt	LTP090	ltpFR	12	4	1	SISTER	1312	n/a	n/a	1	n/a	0	0	0	0.57763671875	0.412841796875	1	lower	zerothre.ttf
734288	WORD	wordpools/wasnorm_wordpool.txt	LTP090	ltpFR	12	4	1	PUDDING	1139	n/a	n/a	0	n/a	0	0	0	0.57763671875	0.412841796875	1	lower	zerothre.ttf
738255	WORD	wordpools/wasnorm_wordpool.txt	LTP090	ltpFR	12	4	0	SEA	1259	n/a	n/a	1	n/a	0	0	0	0.422607421875	0.5869140625	0	upper	amplitud.ttf
742204	WORD	wordpools/wasnorm_wordpool.txt	LTP090	ltpFR	12	4	0	SQUID	1361	n/a	n/a	0	n/a	0	0	0	0.422607421875	0.5869140625	0	upper	amplitud.ttf
748079	REC_START	n/a	LTP090	ltpFR	12	4	n/a	n/a	n/a	n/a	n/a	n/a	n/a	0	0	0	n/a	n/a	n/a	n/a	n/a
749466	REC_WORD	wordpools/wasnorm_wordpool.txt	LTP090	ltpFR	12	4	0	SEA	1259	n/a	n/a	1	n/a	0	0	0	n/a	n/a	n/a	n/a	n/a
750352	REC_WORD	wordpools/wasnorm_wordpool.txt	LTP090	ltpFR	12	4	0	SQUID	1361	n/a	n/a	0	n/a	0	0	0	n/a	n/a	n/a	n/a	n/a
751765	REC_WORD	wordpools/wasnorm_wordpool.txt	LTP090	ltpFR	12	4	1	SISTER	1312	n/a	n/a	1	n/a	0	0	0	n/a	n/a	n/a	n/a	n/a
755038	REC_WORD	wordpools/wasnorm_wordpool.txt	LTP090	ltpFR	12	4	1	COLLAR	345	n/a	n/a	0	n/a	0	0	0	n/a	n/a	n/a	n/a	n/a
756200	REC_WORD	wordpools/wasnorm_wordpool.txt	LTP090	ltpFR	12	4	0	PUPPY	1144	n/a	n/a	0	n/a	0	0	0	n/a	n/a	n/a	n/a	n/a
759009	REC_WORD	wordpools/wasnorm_wordpool.txt	LTP090	ltpFR	12	4	1	DRIVER	499	n/a	n/a	1	n/a	0	0	0	n/a	n/a	n/a	n/a	n/a
760605	REC_WORD	wordpools/wasnorm_wordpool.txt	LTP090	ltpFR	12	4	1	ROOT	1210	n/a	n/a	0	n/a	0	0	0	n/a	n/a	n/a	n/a	n/a
761823	REC_WORD	wordpools/wasnorm_wordpool.txt	LTP090	ltpFR	12	4	1	MOSS	918	n/a	n/a	0	n/a	0	0	0	n/a	n/a	n/a	n/a	n/a
764033	REC_WORD	wordpools/wasnorm_wordpool.txt	LTP090	ltpFR	12	4	1	CLOUD	328	n/a	n/a	0	n/a	0	0	0	n/a	n/a	n/a	n/a	n/a
765973	REC_WORD	wordpools/wasnorm_wordpool.txt	LTP090	ltpFR	12	4	0	PATROL	1027	n/a	n/a	1	n/a	0	0	0	n/a	n/a	n/a	n/a	n/a
768273	REC_WORD	wordpools/wasnorm_wordpool.txt	LTP090	ltpFR	12	4	0	CONVENT	370	n/a	n/a	1	n/a	0	0	0	n/a	n/a	n/a	n/a	n/a
770453	REC_WORD	wordpools/wasnorm_wordpool.txt	LTP090	ltpFR	12	4	0	SIREN	1310	n/a	n/a	0	n/a	0	0	0	n/a	n/a	n/a	n/a	n/a
772378	REC_WORD	wordpools/wasnorm_wordpool.txt	LTP090	ltpFR	12	4	0	SEA	1259	n/a	n/a	1	n/a	0	0	0	n/a	n/a	n/a	n/a	n/a
773535	REC_WORD	wordpools/wasnorm_wordpool.txt	LTP090	ltpFR	12	4	0	SQUID	1361	n/a	n/a	0	n/a	0	0	0	n/a	n/a	n/a	n/a	n/a
829165	START	n/a	LTP090	ltpFR	12	n/a	n/a	n/a	n/a	n/a	n/a	n/a	n/a	n/a	n/a	n/a	n/a	n/a	n/a	n/a	n/a
830673	PROB	n/a	LTP090	ltpFR	12	n/a	n/a	n/a	n/a	n/a	n/a	n/a	6	3	1	2	n/a	n/a	n/a	n/a	n/a
834905	PROB	n/a	LTP090	ltpFR	12	n/a	n/a	n/a	n/a	n/a	n/a	n/a	11	5	3	3	n/a	n/a	n/a	n/a	n/a
836913	PROB	n/a	LTP090	ltpFR	12	n/a	n/a	n/a	n/a	n/a	n/a	n/a	14	3	5	6	n/a	n/a	n/a	n/a	n/a
840505	PROB	n/a	LTP090	ltpFR	12	n/a	n/a	n/a	n/a	n/a	n/a	n/a	9	4	4	1	n/a	n/a	n/a	n/a	n/a
842463	PROB	n/a	LTP090	ltpFR	12	n/a	n/a	n/a	n/a	n/a	n/a	n/a	15	9	1	5	n/a	n/a	n/a	n/a	n/a
843933	STOP	n/a	LTP090	ltpFR	12	n/a	n/a	n/a	n/a	n/a	n/a	n/a	n/a	n/a	n/a	n/a	n/a	n/a	n/a	n/a	n/a
846205	WORD	wordpools/wasnorm_wordpool.txt	LTP090	ltpFR	12	5	1	LAUNDRY	803	n/a	n/a	0	n/a	0	0	0	0.57763671875	0.412841796875	1	lower	zerothre.ttf
849213	START	n/a	LTP090	ltpFR	12	n/a	n/a	n/a	n/a	n/a	n/a	n/a	n/a	n/a	n/a	n/a	n/a	n/a	n/a	n/a	n/a
850329	PROB	n/a	LTP090	ltpFR	12	n/a	n/a	n/a	n/a	n/a	n/a	n/a	13	1	7	5	n/a	n/a	n/a	n/a	n/a
852404	PROB	n/a	LTP090	ltpFR	12	n/a	n/a	n/a	n/a	n/a	n/a	n/a	16	7	6	3	n/a	n/a	n/a	n/a	n/a
853978	PROB	n/a	LTP090	ltpFR	12	n/a	n/a	n/a	n/a	n/a	n/a	n/a	14	4	3	7	n/a	n/a	n/a	n/a	n/a
855454	PROB	n/a	LTP090	ltpFR	12	n/a	n/a	n/a	n/a	n/a	n/a	n/a	11	4	4	3	n/a	n/a	n/a	n/a	n/a
857504	PROB	n/a	LTP090	ltpFR	12	n/a	n/a	n/a	n/a	n/a	n/a	n/a	14	9	3	2	n/a	n/a	n/a	n/a	n/a
859595	PROB	n/a	LTP090	ltpFR	12	n/a	n/a	n/a	n/a	n/a	n/a	n/a	13	2	5	6	n/a	n/a	n/a	n/a	n/a
865213	STOP	n/a	LTP090	ltpFR	12	n/a	n/a	n/a	n/a	n/a	n/a	n/a	n/a	n/a	n/a	n/a	n/a	n/a	n/a	n/a	n/a
866069	WORD	wordpools/wasnorm_wordpool.txt	LTP090	ltpFR	12	5	1	WASHER	1592	n/a	n/a	0	n/a	0	0	0	0.57763671875	0.412841796875	1	lower	zerothre.ttf
869077	START	n/a	LTP090	ltpFR	12	n/a	n/a	n/a	n/a	n/a	n/a	n/a	n/a	n/a	n/a	n/a	n/a	n/a	n/a	n/a	n/a
870002	PROB	n/a	LTP090	ltpFR	12	n/a	n/a	n/a	n/a	n/a	n/a	n/a	16	6	2	9	n/a	n/a	n/a	n/a	n/a
872761	PROB	n/a	LTP090	ltpFR	12	n/a	n/a	n/a	n/a	n/a	n/a	n/a	21	7	5	9	n/a	n/a	n/a	n/a	n/a
875985	PROB	n/a	LTP090	ltpFR	12	n/a	n/a	n/a	n/a	n/a	n/a	n/a	21	8	7	6	n/a	n/a	n/a	n/a	n/a
878793	PROB	n/a	LTP090	ltpFR	12	n/a	n/a	n/a	n/a	n/a	n/a	n/a	7	1	3	3	n/a	n/a	n/a	n/a	n/a
881051	PROB	n/a	LTP090	ltpFR	12	n/a	n/a	n/a	n/a	n/a	n/a	n/a	16	2	8	6	n/a	n/a	n/a	n/a	n/a
882502	PROB	n/a	LTP090	ltpFR	12	n/a	n/a	n/a	n/a	n/a	n/a	n/a	9	6	1	2	n/a	n/a	n/a	n/a	n/a
884021	STOP	n/a	LTP090	ltpFR	12	n/a	n/a	n/a	n/a	n/a	n/a	n/a	n/a	n/a	n/a	n/a	n/a	n/a	n/a	n/a	n/a
885892	WORD	wordpools/wasnorm_wordpool.txt	LTP090	ltpFR	12	5	0	PENCIL	1042	n/a	n/a	0	n/a	0	0	0	0.422607421875	0.5869140625	0	upper	amplitud.ttf
888901	START	n/a	LTP090	ltpFR	12	n/a	n/a	n/a	n/a	n/a	n/a	n/a	n/a	n/a	n/a	n/a	n/a	n/a	n/a	n/a	n/a
890067	PROB	n/a	LTP090	ltpFR	12	n/a	n/a	n/a	n/a	n/a	n/a	n/a	18	8	2	8	n/a	n/a	n/a	n/a	n/a
891443	PROB	n/a	LTP090	ltpFR	12	n/a	n/a	n/a	n/a	n/a	n/a	n/a	19	5	7	7	n/a	n/a	n/a	n/a	n/a
893259	PROB	n/a	LTP090	ltpFR	12	n/a	n/a	n/a	n/a	n/a	n/a	n/a	18	8	2	8	n/a	n/a	n/a	n/a	n/a
894626	PROB	n/a	LTP090	ltpFR	12	n/a	n/a	n/a	n/a	n/a	n/a	n/a	19	8	3	8	n/a	n/a	n/a	n/a	n/a
899866	PROB	n/a	LTP090	ltpFR	12	n/a	n/a	n/a	n/a	n/a	n/a	n/a	18	5	5	8	n/a	n/a	n/a	n/a	n/a
901192	PROB	n/a	LTP090	ltpFR	12	n/a	n/a	n/a	n/a	n/a	n/a	n/a	18	6	5	7	n/a	n/a	n/a	n/a	n/a
904901	STOP	n/a	LTP090	ltpFR	12	n/a	n/a	n/a	n/a	n/a	n/a	n/a	n/a	n/a	n/a	n/a	n/a	n/a	n/a	n/a	n/a
905832	WORD	wordpools/wasnorm_wordpool.txt	LTP090	ltpFR	12	5	0	BEAVER	109	n/a	n/a	0	n/a	0	0	0	0.422607421875	0.5869140625	0	upper	amplitud.ttf
908833	START	n/a	LTP090	ltpFR	12	n/a	n/a	n/a	n/a	n/a	n/a	n/a	n/a	n/a	n/a	n/a	n/a	n/a	n/a	n/a	n/a
909641	PROB	n/a	LTP090	ltpFR	12	n/a	n/a	n/a	n/a	n/a	n/a	n/a	12	1	9	2	n/a	n/a	n/a	n/a	n/a
911208	PROB	n/a	LTP090	ltpFR	12	n/a	n/a	n/a	n/a	n/a	n/a	n/a	11	1	3	7	n/a	n/a	n/a	n/a	n/a
913166	PROB	n/a	LTP090	ltpFR	12	n/a	n/a	n/a	n/a	n/a	n/a	n/a	20	4	9	7	n/a	n/a	n/a	n/a	n/a
915149	PROB	n/a	LTP090	ltpFR	12	n/a	n/a	n/a	n/a	n/a	n/a	n/a	19	6	7	6	n/a	n/a	n/a	n/a	n/a
917324	PROB	n/a	LTP090	ltpFR	12	n/a	n/a	n/a	n/a	n/a	n/a	n/a	20	6	5	9	n/a	n/a	n/a	n/a	n/a
921073	PROB	n/a	LTP090	ltpFR	12	n/a	n/a	n/a	n/a	n/a	n/a	n/a	14	3	4	7	n/a	n/a	n/a	n/a	n/a
923048	PROB	n/a	LTP090	ltpFR	12	n/a	n/a	n/a	n/a	n/a	n/a	n/a	19	8	4	5	n/a	n/a	n/a	n/a	n/a
924694	STOP	n/a	LTP090	ltpFR	12	n/a	n/a	n/a	n/a	n/a	n/a	n/a	n/a	n/a	n/a	n/a	n/a	n/a	n/a	n/a	n/a
925723	WORD	wordpools/wasnorm_wordpool.txt	LTP090	ltpFR	12	5	0	COP	376	n/a	n/a	1	n/a	0	0	0	0.422607421875	0.5869140625	0	upper	amplitud.ttf
928724	START	n/a	LTP090	ltpFR	12	n/a	n/a	n/a	n/a	n/a	n/a	n/a	n/a	n/a	n/a	n/a	n/a	n/a	n/a	n/a	n/a
929906	PROB	n/a	LTP090	ltpFR	12	n/a	n/a	n/a	n/a	n/a	n/a	n/a	11	1	1	9	n/a	n/a	n/a	n/a	n/a
931415	PROB	n/a	LTP090	ltpFR	12	n/a	n/a	n/a	n/a	n/a	n/a	n/a	17	1	8	8	n/a	n/a	n/a	n/a	n/a
933173	PROB	n/a	LTP090	ltpFR	12	n/a	n/a	n/a	n/a	n/a	n/a	n/a	11	5	4	2	n/a	n/a	n/a	n/a	n/a
935072	PROB	n/a	LTP090	ltpFR	12	n/a	n/a	n/a	n/a	n/a	n/a	n/a	12	2	4	6	n/a	n/a	n/a	n/a	n/a
937088	PROB	n/a	LTP090	ltpFR	12	n/a	n/a	n/a	n/a	n/a	n/a	n/a	15	1	9	5	n/a	n/a	n/a	n/a	n/a
938781	PROB	n/a	LTP090	ltpFR	12	n/a	n/a	n/a	n/a	n/a	n/a	n/a	17	5	6	6	n/a	n/a	n/a	n/a	n/a
941038	PROB	n/a	LTP090	ltpFR	12	n/a	n/a	n/a	n/a	n/a	n/a	n/a	8	2	3	3	n/a	n/a	n/a	n/a	n/a
944724	STOP	n/a	LTP090	ltpFR	12	n/a	n/a	n/a	n/a	n/a	n/a	n/a	n/a	n/a	n/a	n/a	n/a	n/a	n/a	n/a	n/a
945854	WORD	wordpools/wasnorm_wordpool.txt	LTP090	ltpFR	12	5	1	CLAMP	316	n/a	n/a	0	n/a	0	0	0	0.57763671875	0.412841796875	1	lower	zerothre.ttf
948854	START	n/a	LTP090	ltpFR	12	n/a	n/a	n/a	n/a	n/a	n/a	n/a	n/a	n/a	n/a	n/a	n/a	n/a	n/a	n/a	n/a
949987	PROB	n/a	LTP090	ltpFR	12	n/a	n/a	n/a	n/a	n/a	n/a	n/a	16	9	3	4	n/a	n/a	n/a	n/a	n/a
951962	PROB	n/a	LTP090	ltpFR	12	n/a	n/a	n/a	n/a	n/a	n/a	n/a	16	3	4	9	n/a	n/a	n/a	n/a	n/a
954346	PROB	n/a	LTP090	ltpFR	12	n/a	n/a	n/a	n/a	n/a	n/a	n/a	20	9	2	9	n/a	n/a	n/a	n/a	n/a
956779	PROB	n/a	LTP090	ltpFR	12	n/a	n/a	n/a	n/a	n/a	n/a	n/a	15	9	4	2	n/a	n/a	n/a	n/a	n/a
958604	PROB	n/a	LTP090	ltpFR	12	n/a	n/a	n/a	n/a	n/a	n/a	n/a	14	7	6	1	n/a	n/a	n/a	n/a	n/a
960179	PROB	n/a	LTP090	ltpFR	12	n/a	n/a	n/a	n/a	n/a	n/a	n/a	15	2	8	5	n/a	n/a	n/a	n/a	n/a
961637	PROB	n/a	LTP090	ltpFR	12	n/a	n/a	n/a	n/a	n/a	n/a	n/a	8	3	1	4	n/a	n/a	n/a	n/a	n/a
964854	STOP	n/a	LTP090	ltpFR	12	n/a	n/a	n/a	n/a	n/a	n/a	n/a	n/a	n/a	n/a	n/a	n/a	n/a	n/a	n/a	n/a
965919	WORD	wordpools/wasnorm_wordpool.txt	LTP090	ltpFR	12	5	1	MAPLE	866	n/a	n/a	1	n/a	0	0	0	0.57763671875	0.412841796875	1	lower	zerothre.ttf
968920	START	n/a	LTP090	ltpFR	12	n/a	n/a	n/a	n/a	n/a	n/a	n/a	n/a	n/a	n/a	n/a	n/a	n/a	n/a	n/a	n/a
970011	PROB	n/a	LTP090	ltpFR	12	n/a	n/a	n/a	n/a	n/a	n/a	n/a	23	7	9	7	n/a	n/a	n/a	n/a	n/a
972128	PROB	n/a	LTP090	ltpFR	12	n/a	n/a	n/a	n/a	n/a	n/a	n/a	14	2	5	7	n/a	n/a	n/a	n/a	n/a
974245	PROB	n/a	LTP090	ltpFR	12	n/a	n/a	n/a	n/a	n/a	n/a	n/a	24	8	8	8	n/a	n/a	n/a	n/a	n/a
976827	PROB	n/a	LTP090	ltpFR	12	n/a	n/a	n/a	n/a	n/a	n/a	n/a	11	2	7	2	n/a	n/a	n/a	n/a	n/a
978835	PROB	n/a	LTP090	ltpFR	12	n/a	n/a	n/a	n/a	n/a	n/a	n/a	7	1	5	1	n/a	n/a	n/a	n/a	n/a
980128	PROB	n/a	LTP090	ltpFR	12	n/a	n/a	n/a	n/a	n/a	n/a	n/a	15	5	9	1	n/a	n/a	n/a	n/a	n/a
982068	PROB	n/a	LTP090	ltpFR	12	n/a	n/a	n/a	n/a	n/a	n/a	n/a	14	8	3	3	n/a	n/a	n/a	n/a	n/a
984342	STOP	n/a	LTP090	ltpFR	12	n/a	n/a	n/a	n/a	n/a	n/a	n/a	n/a	n/a	n/a	n/a	n/a	n/a	n/a	n/a	n/a
985885	WORD	wordpools/wasnorm_wordpool.txt	LTP090	ltpFR	12	5	1	FOREST	593	n/a	n/a	1	n/a	0	0	0	0.57763671875	0.412841796875	1	lower	zerothre.ttf
988893	START	n/a	LTP090	ltpFR	12	n/a	n/a	n/a	n/a	n/a	n/a	n/a	n/a	n/a	n/a	n/a	n/a	n/a	n/a	n/a	n/a
989834	PROB	n/a	LTP090	ltpFR	12	n/a	n/a	n/a	n/a	n/a	n/a	n/a	21	9	8	4	n/a	n/a	n/a	n/a	n/a
993042	PROB	n/a	LTP090	ltpFR	12	n/a	n/a	n/a	n/a	n/a	n/a	n/a	14	3	9	3	n/a	n/a	n/a	n/a	n/a
995685	PROB	n/a	LTP090	ltpFR	12	n/a	n/a	n/a	n/a	n/a	n/a	n/a	15	8	3	4	n/a	n/a	n/a	n/a	n/a
998025	PROB	n/a	LTP090	ltpFR	12	n/a	n/a	n/a	n/a	n/a	n/a	n/a	16	2	5	9	n/a	n/a	n/a	n/a	n/a
1000134	PROB	n/a	LTP090	ltpFR	12	n/a	n/a	n/a	n/a	n/a	n/a	n/a	13	8	1	4	n/a	n/a	n/a	n/a	n/a
1001751	PROB	n/a	LTP090	ltpFR	12	n/a	n/a	n/a	n/a	n/a	n/a	n/a	15	5	8	2	n/a	n/a	n/a	n/a	n/a
1003151	PROB	n/a	LTP090	ltpFR	12	n/a	n/a	n/a	n/a	n/a	n/a	n/a	19	4	6	9	n/a	n/a	n/a	n/a	n/a
1004582	STOP	n/a	LTP090	ltpFR	12	n/a	n/a	n/a	n/a	n/a	n/a	n/a	n/a	n/a	n/a	n/a	n/a	n/a	n/a	n/a	n/a
1005908	WORD	wordpools/wasnorm_wordpool.txt	LTP090	ltpFR	12	5	0	BURGLAR	200	n/a	n/a	1	n/a	0	0	0	0.422607421875	0.5869140625	0	upper	amplitud.ttf
1008916	START	n/a	LTP090	ltpFR	12	n/a	n/a	n/a	n/a	n/a	n/a	n/a	n/a	n/a	n/a	n/a	n/a	n/a	n/a	n/a	n/a
1009858	PROB	n/a	LTP090	ltpFR	12	n/a	n/a	n/a	n/a	n/a	n/a	n/a	9	6	2	1	n/a	n/a	n/a	n/a	n/a
1011192	PROB	n/a	LTP090	ltpFR	12	n/a	n/a	n/a	n/a	n/a	n/a	n/a	11	8	2	1	n/a	n/a	n/a	n/a	n/a
1013300	PROB	n/a	LTP090	ltpFR	12	n/a	n/a	n/a	n/a	n/a	n/a	n/a	13	7	5	1	n/a	n/a	n/a	n/a	n/a
1017158	PROB	n/a	LTP090	ltpFR	12	n/a	n/a	n/a	n/a	n/a	n/a	n/a	5	2	2	1	n/a	n/a	n/a	n/a	n/a
1019175	PROB	n/a	LTP090	ltpFR	12	n/a	n/a	n/a	n/a	n/a	n/a	n/a	20	4	8	8	n/a	n/a	n/a	n/a	n/a
1021158	PROB	n/a	LTP090	ltpFR	12	n/a	n/a	n/a	n/a	n/a	n/a	n/a	17	5	5	7	n/a	n/a	n/a	n/a	n/a
1024916	STOP	n/a	LTP090	ltpFR	12	n/a	n/a	n/a	n/a	n/a	n/a	n/a	n/a	n/a	n/a	n/a	n/a	n/a	n/a	n/a	n/a
1025806	WORD	wordpools/wasnorm_wordpool.txt	LTP090	ltpFR	12	5	0	CHIP	303	n/a	n/a	0	n/a	0	0	0	0.422607421875	0.5869140625	0	upper	amplitud.ttf
1028815	START	n/a	LTP090	ltpFR	12	n/a	n/a	n/a	n/a	n/a	n/a	n/a	n/a	n/a	n/a	n/a	n/a	n/a	n/a	n/a	n/a
1029956	PROB	n/a	LTP090	ltpFR	12	n/a	n/a	n/a	n/a	n/a	n/a	n/a	13	5	6	2	n/a	n/a	n/a	n/a	n/a
1032056	PROB	n/a	LTP090	ltpFR	12	n/a	n/a	n/a	n/a	n/a	n/a	n/a	11	2	3	6	n/a	n/a	n/a	n/a	n/a
1034031	PROB	n/a	LTP090	ltpFR	12	n/a	n/a	n/a	n/a	n/a	n/a	n/a	11	7	3	1	n/a	n/a	n/a	n/a	n/a
1035590	PROB	n/a	LTP090	ltpFR	12	n/a	n/a	n/a	n/a	n/a	n/a	n/a	16	2	5	9	n/a	n/a	n/a	n/a	n/a
1037348	PROB	n/a	LTP090	ltpFR	12	n/a	n/a	n/a	n/a	n/a	n/a	n/a	117	7	3	7	n/a	n/a	n/a	n/a	n/a
1040498	PROB	n/a	LTP090	ltpFR	12	n/a	n/a	n/a	n/a	n/a	n/a	n/a	9	1	4	4	n/a	n/a	n/a	n/a	n/a
1044470	STOP	n/a	LTP090	ltpFR	12	n/a	n/a	n/a	n/a	n/a	n/a	n/a	n/a	n/a	n/a	n/a	n/a	n/a	n/a	n/a	n/a
1045838	WORD	wordpools/wasnorm_wordpool.txt	LTP090	ltpFR	12	5	0	BEEF	113	n/a	n/a	1	n/a	0	0	0	0.422607421875	0.5869140625	0	upper	amplitud.ttf
1048847	START	n/a	LTP090	ltpFR	12	n/a	n/a	n/a	n/a	n/a	n/a	n/a	n/a	n/a	n/a	n/a	n/a	n/a	n/a	n/a	n/a
1049913	PROB	n/a	LTP090	ltpFR	12	n/a	n/a	n/a	n/a	n/a	n/a	n/a	6	2	1	3	n/a	n/a	n/a	n/a	n/a
1051489	PROB	n/a	LTP090	ltpFR	12	n/a	n/a	n/a	n/a	n/a	n/a	n/a	16	3	6	7	n/a	n/a	n/a	n/a	n/a
1054130	PROB	n/a	LTP090	ltpFR	12	n/a	n/a	n/a	n/a	n/a	n/a	n/a	12	3	8	1	n/a	n/a	n/a	n/a	n/a
1057663	PROB	n/a	LTP090	ltpFR	12	n/a	n/a	n/a	n/a	n/a	n/a	n/a	18	5	5	8	n/a	n/a	n/a	n/a	n/a
1059255	PROB	n/a	LTP090	ltpFR	12	n/a	n/a	n/a	n/a	n/a	n/a	n/a	15	6	1	8	n/a	n/a	n/a	n/a	n/a
1061488	PROB	n/a	LTP090	ltpFR	12	n/a	n/a	n/a	n/a	n/a	n/a	n/a	16	8	3	5	n/a	n/a	n/a	n/a	n/a
1064037	STOP	n/a	LTP090	ltpFR	12	n/a	n/a	n/a	n/a	n/a	n/a	n/a	n/a	n/a	n/a	n/a	n/a	n/a	n/a	n/a	n/a
1065945	WORD	wordpools/wasnorm_wordpool.txt	LTP090	ltpFR	12	5	0	YACHT	1629	n/a	n/a	1	n/a	0	0	0	0.422607421875	0.5869140625	0	upper	amplitud.ttf
1068954	START	n/a	LTP090	ltpFR	12	n/a	n/a	n/a	n/a	n/a	n/a	n/a	n/a	n/a	n/a	n/a	n/a	n/a	n/a	n/a	n/a
1070121	PROB	n/a	LTP090	ltpFR	12	n/a	n/a	n/a	n/a	n/a	n/a	n/a	21	9	3	9	n/a	n/a	n/a	n/a	n/a
1074620	PROB	n/a	LTP090	ltpFR	12	n/a	n/a	n/a	n/a	n/a	n/a	n/a	13	7	2	4	n/a	n/a	n/a	n/a	n/a
1077178	PROB	n/a	LTP090	ltpFR	12	n/a	n/a	n/a	n/a	n/a	n/a	n/a	17	7	1	9	n/a	n/a	n/a	n/a	n/a
1080102	PROB	n/a	LTP090	ltpFR	12	n/a	n/a	n/a	n/a	n/a	n/a	n/a	10	5	1	4	n/a	n/a	n/a	n/a	n/a
1082128	PROB	n/a	LTP090	ltpFR	12	n/a	n/a	n/a	n/a	n/a	n/a	n/a	12	5	6	1	n/a	n/a	n/a	n/a	n/a
1083534	STOP	n/a	LTP090	ltpFR	12	n/a	n/a	n/a	n/a	n/a	n/a	n/a	n/a	n/a	n/a	n/a	n/a	n/a	n/a	n/a	n/a
1085835	WORD	wordpools/wasnorm_wordpool.txt	LTP090	ltpFR	12	5	0	GROCERIES	663	n/a	n/a	0	n/a	0	0	0	0.422607421875	0.5869140625	0	upper	amplitud.ttf
1088844	START	n/a	LTP090	ltpFR	12	n/a	n/a	n/a	n/a	n/a	n/a	n/a	n/a	n/a	n/a	n/a	n/a	n/a	n/a	n/a	n/a
1089661	PROB	n/a	LTP090	ltpFR	12	n/a	n/a	n/a	n/a	n/a	n/a	n/a	6	3	2	1	n/a	n/a	n/a	n/a	n/a
1091394	PROB	n/a	LTP090	ltpFR	12	n/a	n/a	n/a	n/a	n/a	n/a	n/a	14	7	6	1	n/a	n/a	n/a	n/a	n/a
1093010	PROB	n/a	LTP090	ltpFR	12	n/a	n/a	n/a	n/a	n/a	n/a	n/a	18	3	6	9	n/a	n/a	n/a	n/a	n/a
1095169	PROB	n/a	LTP090	ltpFR	12	n/a	n/a	n/a	n/a	n/a	n/a	n/a	19	7	7	5	n/a	n/a	n/a	n/a	n/a
1098777	PROB	n/a	LTP090	ltpFR	12	n/a	n/a	n/a	n/a	n/a	n/a	n/a	15	3	5	7	n/a	n/a	n/a	n/a	n/a
1100218	PROB	n/a	LTP090	ltpFR	12	n/a	n/a	n/a	n/a	n/a	n/a	n/a	18	4	6	8	n/a	n/a	n/a	n/a	n/a
1101452	PROB	n/a	LTP090	ltpFR	12	n/a	n/a	n/a	n/a	n/a	n/a	n/a	11	3	1	7	n/a	n/a	n/a	n/a	n/a
1104844	STOP	n/a	LTP090	ltpFR	12	n/a	n/a	n/a	n/a	n/a	n/a	n/a	n/a	n/a	n/a	n/a	n/a	n/a	n/a	n/a	n/a
1106009	WORD	wordpools/wasnorm_wordpool.txt	LTP090	ltpFR	12	5	1	SCRIBBLE	1256	n/a	n/a	0	n/a	0	0	0	0.57763671875	0.412841796875	1	lower	zerothre.ttf
1109017	START	n/a	LTP090	ltpFR	12	n/a	n/a	n/a	n/a	n/a	n/a	n/a	n/a	n/a	n/a	n/a	n/a	n/a	n/a	n/a	n/a
1109925	PROB	n/a	LTP090	ltpFR	12	n/a	n/a	n/a	n/a	n/a	n/a	n/a	20	9	2	9	n/a	n/a	n/a	n/a	n/a
1112392	PROB	n/a	LTP090	ltpFR	12	n/a	n/a	n/a	n/a	n/a	n/a	n/a	20	2	9	9	n/a	n/a	n/a	n/a	n/a
1114075	PROB	n/a	LTP090	ltpFR	12	n/a	n/a	n/a	n/a	n/a	n/a	n/a	15	8	3	4	n/a	n/a	n/a	n/a	n/a
1115874	PROB	n/a	LTP090	ltpFR	12	n/a	n/a	n/a	n/a	n/a	n/a	n/a	15	2	8	5	n/a	n/a	n/a	n/a	n/a
1117175	PROB	n/a	LTP090	ltpFR	12	n/a	n/a	n/a	n/a	n/a	n/a	n/a	16	5	6	5	n/a	n/a	n/a	n/a	n/a
1118575	PROB	n/a	LTP090	ltpFR	12	n/a	n/a	n/a	n/a	n/a	n/a	n/a	13	3	1	9	n/a	n/a	n/a	n/a	n/a
1121057	PROB	n/a	LTP090	ltpFR	12	n/a	n/a	n/a	n/a	n/a	n/a	n/a	16	6	2	7	n/a	n/a	n/a	n/a	n/a
1125017	STOP	n/a	LTP090	ltpFR	12	n/a	n/a	n/a	n/a	n/a	n/a	n/a	n/a	n/a	n/a	n/a	n/a	n/a	n/a	n/a	n/a
1125965	WORD	wordpools/wasnorm_wordpool.txt	LTP090	ltpFR	12	5	1	CHIPMUNK	304	n/a	n/a	1	n/a	0	0	0	0.57763671875	0.412841796875	1	lower	zerothre.ttf
1128974	START	n/a	LTP090	ltpFR	12	n/a	n/a	n/a	n/a	n/a	n/a	n/a	n/a	n/a	n/a	n/a	n/a	n/a	n/a	n/a	n/a
1129882	PROB	n/a	LTP090	ltpFR	12	n/a	n/a	n/a	n/a	n/a	n/a	n/a	19	9	7	3	n/a	n/a	n/a	n/a	n/a
1131241	PROB	n/a	LTP090	ltpFR	12	n/a	n/a	n/a	n/a	n/a	n/a	n/a	18	7	8	3	n/a	n/a	n/a	n/a	n/a
1132815	PROB	n/a	LTP090	ltpFR	12	n/a	n/a	n/a	n/a	n/a	n/a	n/a	7	4	1	2	n/a	n/a	n/a	n/a	n/a
1135707	PROB	n/a	LTP090	ltpFR	12	n/a	n/a	n/a	n/a	n/a	n/a	n/a	17	8	1	8	n/a	n/a	n/a	n/a	n/a
1138574	PROB	n/a	LTP090	ltpFR	12	n/a	n/a	n/a	n/a	n/a	n/a	n/a	18	1	8	9	n/a	n/a	n/a	n/a	n/a
1140081	PROB	n/a	LTP090	ltpFR	12	n/a	n/a	n/a	n/a	n/a	n/a	n/a	12	2	8	2	n/a	n/a	n/a	n/a	n/a
1141615	PROB	n/a	LTP090	ltpFR	12	n/a	n/a	n/a	n/a	n/a	n/a	n/a	18	9	1	8	n/a	n/a	n/a	n/a	n/a
1144061	STOP	n/a	LTP090	ltpFR	12	n/a	n/a	n/a	n/a	n/a	n/a	n/a	n/a	n/a	n/a	n/a	n/a	n/a	n/a	n/a	n/a
1145831	WORD	wordpools/wasnorm_wordpool.txt	LTP090	ltpFR	12	5	1	LIMOUSINE	824	n/a	n/a	0	n/a	0	0	0	0.57763671875	0.412841796875	1	lower	zerothre.ttf
1148839	START	n/a	LTP090	ltpFR	12	n/a	n/a	n/a	n/a	n/a	n/a	n/a	n/a	n/a	n/a	n/a	n/a	n/a	n/a	n/a	n/a
1149914	PROB	n/a	LTP090	ltpFR	12	n/a	n/a	n/a	n/a	n/a	n/a	n/a	18	7	3	8	n/a	n/a	n/a	n/a	n/a
1151913	PROB	n/a	LTP090	ltpFR	12	n/a	n/a	n/a	n/a	n/a	n/a	n/a	24	9	9	6	n/a	n/a	n/a	n/a	n/a
1154281	PROB	n/a	LTP090	ltpFR	12	n/a	n/a	n/a	n/a	n/a	n/a	n/a	20	7	6	7	n/a	n/a	n/a	n/a	n/a
1156689	PROB	n/a	LTP090	ltpFR	12	n/a	n/a	n/a	n/a	n/a	n/a	n/a	14	8	2	4	n/a	n/a	n/a	n/a	n/a
1158439	PROB	n/a	LTP090	ltpFR	12	n/a	n/a	n/a	n/a	n/a	n/a	n/a	21	8	4	9	n/a	n/a	n/a	n/a	n/a
1162464	PROB	n/a	LTP090	ltpFR	12	n/a	n/a	n/a	n/a	n/a	n/a	n/a	15	7	1	7	n/a	n/a	n/a	n/a	n/a
1164350	STOP	n/a	LTP090	ltpFR	12	n/a	n/a	n/a	n/a	n/a	n/a	n/a	n/a	n/a	n/a	n/a	n/a	n/a	n/a	n/a	n/a
1166605	REC_START	n/a	LTP090	ltpFR	12	5	n/a	n/a	n/a	n/a	n/a	n/a	n/a	0	0	0	n/a	n/a	n/a	n/a	n/a
1168680	REC_WORD	wordpools/wasnorm_wordpool.txt	LTP090	ltpFR	12	5	1	LIMOUSINE	824	n/a	n/a	0	n/a	0	0	0	n/a	n/a	n/a	n/a	n/a
1171593	REC_WORD	wordpools/wasnorm_wordpool.txt	LTP090	ltpFR	12	5	n/a	POLICE	1098	n/a	n/a	n/a	n/a	0	0	0	n/a	n/a	n/a	n/a	n/a
1172970	REC_WORD	wordpools/wasnorm_wordpool.txt	LTP090	ltpFR	12	5	1	LAUNDRY	803	n/a	n/a	0	n/a	0	0	0	n/a	n/a	n/a	n/a	n/a
1174437	REC_WORD	wordpools/wasnorm_wordpool.txt	LTP090	ltpFR	12	5	1	WASHER	1592	n/a	n/a	0	n/a	0	0	0	n/a	n/a	n/a	n/a	n/a
1176223	REC_WORD	wordpools/wasnorm_wordpool.txt	LTP090	ltpFR	12	5	0	BEAVER	109	n/a	n/a	0	n/a	0	0	0	n/a	n/a	n/a	n/a	n/a
1177929	REC_WORD	wordpools/wasnorm_wordpool.txt	LTP090	ltpFR	12	5	1	MAPLE	866	n/a	n/a	1	n/a	0	0	0	n/a	n/a	n/a	n/a	n/a
1181865	REC_WORD	wordpools/wasnorm_wordpool.txt	LTP090	ltpFR	12	5	1	FOREST	593	n/a	n/a	1	n/a	0	0	0	n/a	n/a	n/a	n/a	n/a
1190665	REC_WORD	wordpools/wasnorm_wordpool.txt	LTP090	ltpFR	12	5	0	BURGLAR	200	n/a	n/a	1	n/a	0	0	0	n/a	n/a	n/a	n/a	n/a
1196572	REC_WORD	wordpools/wasnorm_wordpool.txt	LTP090	ltpFR	12	5	0	GROCERIES	663	n/a	n/a	0	n/a	0	0	0	n/a	n/a	n/a	n/a	n/a
1197829	REC_WORD	wordpools/wasnorm_wordpool.txt	LTP090	ltpFR	12	5	0	BEEF	113	n/a	n/a	1	n/a	0	0	0	n/a	n/a	n/a	n/a	n/a
1201076	REC_WORD	wordpools/wasnorm_wordpool.txt	LTP090	ltpFR	12	5	1	CHIPMUNK	304	n/a	n/a	1	n/a	0	0	0	n/a	n/a	n/a	n/a	n/a
1245374	WORD	wordpools/wasnorm_wordpool.txt	LTP090	ltpFR	12	6	0	CAMERA	224	n/a	n/a	0	n/a	0	0	0	0.422607421875	0.5869140625	0	upper	amplitud.ttf
1249465	WORD	wordpools/wasnorm_wordpool.txt	LTP090	ltpFR	12	6	0	CAB	209	n/a	n/a	1	n/a	0	0	0	0.422607421875	0.5869140625	0	upper	amplitud.ttf
1253615	WORD	wordpools/wasnorm_wordpool.txt	LTP090	ltpFR	12	6	0	TERRITORY	1452	n/a	n/a	1	n/a	0	0	0	0.422607421875	0.5869140625	0	upper	amplitud.ttf
1257548	WORD	wordpools/wasnorm_wordpool.txt	LTP090	ltpFR	12	6	0	HOSE	720	n/a	n/a	0	n/a	0	0	0	0.422607421875	0.5869140625	0	upper	amplitud.ttf
1261598	WORD	wordpools/wasnorm_wordpool.txt	LTP090	ltpFR	12	6	0	BATTERY	101	n/a	n/a	0	n/a	0	0	0	0.422607421875	0.5869140625	0	upper	amplitud.ttf
1265796	WORD	wordpools/wasnorm_wordpool.txt	LTP090	ltpFR	12	6	0	SALESMAN	1225	n/a	n/a	1	n/a	0	0	0	0.422607421875	0.5869140625	0	upper	amplitud.ttf
1269622	WORD	wordpools/wasnorm_wordpool.txt	LTP090	ltpFR	12	6	0	OFFICE	972	n/a	n/a	1	n/a	0	0	0	0.422607421875	0.5869140625	0	upper	amplitud.ttf
1273722	WORD	wordpools/wasnorm_wordpool.txt	LTP090	ltpFR	12	6	0	RECORD	1176	n/a	n/a	0	n/a	0	0	0	0.422607421875	0.5869140625	0	upper	amplitud.ttf
1277837	WORD	wordpools/wasnorm_wordpool.txt	LTP090	ltpFR	12	6	0	SCHOOL	1248	n/a	n/a	1	n/a	0	0	0	0.422607421875	0.5869140625	0	upper	amplitud.ttf
1281995	WORD	wordpools/wasnorm_wordpool.txt	LTP090	ltpFR	12	6	0	CATTLE	261	n/a	n/a	1	n/a	0	0	0	0.422607421875	0.5869140625	0	upper	amplitud.ttf
1286121	WORD	wordpools/wasnorm_wordpool.txt	LTP090	ltpFR	12	6	0	MEADOW	881	n/a	n/a	1	n/a	0	0	0	0.422607421875	0.5869140625	0	upper	amplitud.ttf
1290304	WORD	wordpools/wasnorm_wordpool.txt	LTP090	ltpFR	12	6	0	DOG	480	n/a	n/a	1	n/a	0	0	0	0.422607421875	0.5869140625	0	upper	amplitud.ttf
1294345	WORD	wordpools/wasnorm_wordpool.txt	LTP090	ltpFR	12	6	0	FOLDER	588	n/a	n/a	0	n/a	0	0	0	0.422607421875	0.5869140625	0	upper	amplitud.ttf
1298261	WORD	wordpools/wasnorm_wordpool.txt	LTP090	ltpFR	12	6	0	DIME	466	n/a	n/a	0	n/a	0	0	0	0.422607421875	0.5869140625	0	upper	amplitud.ttf
1302369	WORD	wordpools/wasnorm_wordpool.txt	LTP090	ltpFR	12	6	0	RECEIPT	1173	n/a	n/a	0	n/a	0	0	0	0.422607421875	0.5869140625	0	upper	amplitud.ttf
1306569	WORD	wordpools/wasnorm_wordpool.txt	LTP090	ltpFR	12	6	0	HOUND	724	n/a	n/a	1	n/a	0	0	0	0.422607421875	0.5869140625	0	upper	amplitud.ttf
1309577	START	n/a	LTP090	ltpFR	12	n/a	n/a	n/a	n/a	n/a	n/a	n/a	n/a	n/a	n/a	n/a	n/a	n/a	n/a	n/a	n/a
1310602	PROB	n/a	LTP090	ltpFR	12	n/a	n/a	n/a	n/a	n/a	n/a	n/a	10	5	3	2	n/a	n/a	n/a	n/a	n/a
1313051	PROB	n/a	LTP090	ltpFR	12	n/a	n/a	n/a	n/a	n/a	n/a	n/a	16	2	5	9	n/a	n/a	n/a	n/a	n/a
1314817	PROB	n/a	LTP090	ltpFR	12	n/a	n/a	n/a	n/a	n/a	n/a	n/a	15	8	1	6	n/a	n/a	n/a	n/a	n/a
1316829	STOP	n/a	LTP090	ltpFR	12	n/a	n/a	n/a	n/a	n/a	n/a	n/a	n/a	n/a	n/a	n/a	n/a	n/a	n/a	n/a	n/a
1319360	REC_START	n/a	LTP090	ltpFR	12	6	n/a	n/a	n/a	n/a	n/a	n/a	n/a	0	0	0	n/a	n/a	n/a	n/a	n/a
1321644	REC_WORD	wordpools/wasnorm_wordpool.txt	LTP090	ltpFR	12	6	0	RECEIPT	1173	n/a	n/a	0	n/a	0	0	0	n/a	n/a	n/a	n/a	n/a
1323076	REC_WORD	wordpools/wasnorm_wordpool.txt	LTP090	ltpFR	12	6	0	FOLDER	588	n/a	n/a	0	n/a	0	0	0	n/a	n/a	n/a	n/a	n/a
1324618	REC_WORD	wordpools/wasnorm_wordpool.txt	LTP090	ltpFR	12	6	0	DIME	466	n/a	n/a	0	n/a	0	0	0	n/a	n/a	n/a	n/a	n/a
1325705	REC_WORD	wordpools/wasnorm_wordpool.txt	LTP090	ltpFR	12	6	0	HOUND	724	n/a	n/a	1	n/a	0	0	0	n/a	n/a	n/a	n/a	n/a
1327127	REC_WORD	wordpools/wasnorm_wordpool.txt	LTP090	ltpFR	12	6	0	DOG	480	n/a	n/a	1	n/a	0	0	0	n/a	n/a	n/a	n/a	n/a
1330155	REC_WORD	wordpools/wasnorm_wordpool.txt	LTP090	ltpFR	12	6	0	CAB	209	n/a	n/a	1	n/a	0	0	0	n/a	n/a	n/a	n/a	n/a
1332350	REC_WORD	wordpools/wasnorm_wordpool.txt	LTP090	ltpFR	12	6	0	CAMERA	224	n/a	n/a	0	n/a	0	0	0	n/a	n/a	n/a	n/a	n/a
1333563	REC_WORD	wordpools/wasnorm_wordpool.txt	LTP090	ltpFR	12	6	0	TERRITORY	1452	n/a	n/a	1	n/a	0	0	0	n/a	n/a	n/a	n/a	n/a
1338232	REC_WORD	wordpools/wasnorm_wordpool.txt	LTP090	ltpFR	12	6	0	HOSE	720	n/a	n/a	0	n/a	0	0	0	n/a	n/a	n/a	n/a	n/a
1340716	REC_WORD	wordpools/wasnorm_wordpool.txt	LTP090	ltpFR	12	6	0	OFFICE	972	n/a	n/a	1	n/a	0	0	0	n/a	n/a	n/a	n/a	n/a
1341718	REC_WORD	wordpools/wasnorm_wordpool.txt	LTP090	ltpFR	12	6	0	SCHOOL	1248	n/a	n/a	1	n/a	0	0	0	n/a	n/a	n/a	n/a	n/a
1343809	REC_WORD	wordpools/wasnorm_wordpool.txt	LTP090	ltpFR	12	6	0	CATTLE	261	n/a	n/a	1	n/a	0	0	0	n/a	n/a	n/a	n/a	n/a
1344897	REC_WORD	wordpools/wasnorm_wordpool.txt	LTP090	ltpFR	12	6	0	MEADOW	881	n/a	n/a	1	n/a	0	0	0	n/a	n/a	n/a	n/a	n/a
1400720	START	n/a	LTP090	ltpFR	12	n/a	n/a	n/a	n/a	n/a	n/a	n/a	n/a	n/a	n/a	n/a	n/a	n/a	n/a	n/a	n/a
1402228	PROB	n/a	LTP090	ltpFR	12	n/a	n/a	n/a	n/a	n/a	n/a	n/a	14	4	2	8	n/a	n/a	n/a	n/a	n/a
1405503	PROB	n/a	LTP090	ltpFR	12	n/a	n/a	n/a	n/a	n/a	n/a	n/a	19	3	8	8	n/a	n/a	n/a	n/a	n/a
1407278	STOP	n/a	LTP090	ltpFR	12	n/a	n/a	n/a	n/a	n/a	n/a	n/a	n/a	n/a	n/a	n/a	n/a	n/a	n/a	n/a	n/a
1409561	WORD	wordpools/wasnorm_wordpool.txt	LTP090	ltpFR	12	7	0	LOUNGE	845	n/a	n/a	1	n/a	0	0	0	0.422607421875	0.5869140625	0	upper	amplitud.ttf
1412570	START	n/a	LTP090	ltpFR	12	n/a	n/a	n/a	n/a	n/a	n/a	n/a	n/a	n/a	n/a	n/a	n/a	n/a	n/a	n/a	n/a
1413452	PROB	n/a	LTP090	ltpFR	12	n/a	n/a	n/a	n/a	n/a	n/a	n/a	19	4	9	6	n/a	n/a	n/a	n/a	n/a
1415269	PROB	n/a	LTP090	ltpFR	12	n/a	n/a	n/a	n/a	n/a	n/a	n/a	14	4	3	7	n/a	n/a	n/a	n/a	n/a
1416935	PROB	n/a	LTP090	ltpFR	12	n/a	n/a	n/a	n/a	n/a	n/a	n/a	4	2	1	1	n/a	n/a	n/a	n/a	n/a
1418610	PROB	n/a	LTP090	ltpFR	12	n/a	n/a	n/a	n/a	n/a	n/a	n/a	18	3	8	7	n/a	n/a	n/a	n/a	n/a
1420069	STOP	n/a	LTP090	ltpFR	12	n/a	n/a	n/a	n/a	n/a	n/a	n/a	n/a	n/a	n/a	n/a	n/a	n/a	n/a	n/a	n/a
1421743	WORD	wordpools/wasnorm_wordpool.txt	LTP090	ltpFR	12	7	0	HALL	677	n/a	n/a	1	n/a	0	0	0	0.422607421875	0.5869140625	0	upper	amplitud.ttf
1424744	START	n/a	LTP090	ltpFR	12	n/a	n/a	n/a	n/a	n/a	n/a	n/a	n/a	n/a	n/a	n/a	n/a	n/a	n/a	n/a	n/a
1425942	PROB	n/a	LTP090	ltpFR	12	n/a	n/a	n/a	n/a	n/a	n/a	n/a	16	4	7	5	n/a	n/a	n/a	n/a	n/a
1427635	PROB	n/a	LTP090	ltpFR	12	n/a	n/a	n/a	n/a	n/a	n/a	n/a	19	7	8	4	n/a	n/a	n/a	n/a	n/a
1429610	PROB	n/a	LTP090	ltpFR	12	n/a	n/a	n/a	n/a	n/a	n/a	n/a	11	8	1	2	n/a	n/a	n/a	n/a	n/a
1431821	STOP	n/a	LTP090	ltpFR	12	n/a	n/a	n/a	n/a	n/a	n/a	n/a	n/a	n/a	n/a	n/a	n/a	n/a	n/a	n/a	n/a
1433817	WORD	wordpools/wasnorm_wordpool.txt	LTP090	ltpFR	12	7	0	JUG	762	n/a	n/a	0	n/a	0	0	0	0.422607421875	0.5869140625	0	upper	amplitud.ttf
1436825	START	n/a	LTP090	ltpFR	12	n/a	n/a	n/a	n/a	n/a	n/a	n/a	n/a	n/a	n/a	n/a	n/a	n/a	n/a	n/a	n/a
1437659	PROB	n/a	LTP090	ltpFR	12	n/a	n/a	n/a	n/a	n/a	n/a	n/a	24	9	6	9	n/a	n/a	n/a	n/a	n/a
1440334	PROB	n/a	LTP090	ltpFR	12	n/a	n/a	n/a	n/a	n/a	n/a	n/a	11	1	6	4	n/a	n/a	n/a	n/a	n/a
1441999	PROB	n/a	LTP090	ltpFR	12	n/a	n/a	n/a	n/a	n/a	n/a	n/a	13	9	3	1	n/a	n/a	n/a	n/a	n/a
1443390	STOP	n/a	LTP090	ltpFR	12	n/a	n/a	n/a	n/a	n/a	n/a	n/a	n/a	n/a	n/a	n/a	n/a	n/a	n/a	n/a	n/a
1445991	WORD	wordpools/wasnorm_wordpool.txt	LTP090	ltpFR	12	7	0	LAKE	796	n/a	n/a	1	n/a	0	0	0	0.422607421875	0.5869140625	0	upper	amplitud.ttf
1448999	START	n/a	LTP090	ltpFR	12	n/a	n/a	n/a	n/a	n/a	n/a	n/a	n/a	n/a	n/a	n/a	n/a	n/a	n/a	n/a	n/a
1450057	PROB	n/a	LTP090	ltpFR	12	n/a	n/a	n/a	n/a	n/a	n/a	n/a	7	1	1	5	n/a	n/a	n/a	n/a	n/a
1451625	PROB	n/a	LTP090	ltpFR	12	n/a	n/a	n/a	n/a	n/a	n/a	n/a	15	6	4	5	n/a	n/a	n/a	n/a	n/a
1452815	PROB	n/a	LTP090	ltpFR	12	n/a	n/a	n/a	n/a	n/a	n/a	n/a	24	7	9	8	n/a	n/a	n/a	n/a	n/a
1454848	PROB	n/a	LTP090	ltpFR	12	n/a	n/a	n/a	n/a	n/a	n/a	n/a	14	6	4	4	n/a	n/a	n/a	n/a	n/a
1456422	STOP	n/a	LTP090	ltpFR	12	n/a	n/a	n/a	n/a	n/a	n/a	n/a	n/a	n/a	n/a	n/a	n/a	n/a	n/a	n/a	n/a
1457815	WORD	wordpools/wasnorm_wordpool.txt	LTP090	ltpFR	12	7	0	FARM	552	n/a	n/a	1	n/a	0	0	0	0.422607421875	0.5869140625	0	upper	amplitud.ttf
1460823	START	n/a	LTP090	ltpFR	12	n/a	n/a	n/a	n/a	n/a	n/a	n/a	n/a	n/a	n/a	n/a	n/a	n/a	n/a	n/a	n/a
1461632	PROB	n/a	LTP090	ltpFR	12	n/a	n/a	n/a	n/a	n/a	n/a	n/a	12	4	3	5	n/a	n/a	n/a	n/a	n/a
1463315	PROB	n/a	LTP090	ltpFR	12	n/a	n/a	n/a	n/a	n/a	n/a	n/a	10	2	2	6	n/a	n/a	n/a	n/a	n/a
1465031	PROB	n/a	LTP090	ltpFR	12	n/a	n/a	n/a	n/a	n/a	n/a	n/a	14	7	1	6	n/a	n/a	n/a	n/a	n/a
1466615	PROB	n/a	LTP090	ltpFR	12	n/a	n/a	n/a	n/a	n/a	n/a	n/a	19	7	8	4	n/a	n/a	n/a	n/a	n/a
1468494	STOP	n/a	LTP090	ltpFR	12	n/a	n/a	n/a	n/a	n/a	n/a	n/a	n/a	n/a	n/a	n/a	n/a	n/a	n/a	n/a	n/a
1469897	WORD	wordpools/wasnorm_wordpool.txt	LTP090	ltpFR	12	7	0	GRADUATE	653	n/a	n/a	1	n/a	0	0	0	0.422607421875	0.5869140625	0	upper	amplitud.ttf
1472906	START	n/a	LTP090	ltpFR	12	n/a	n/a	n/a	n/a	n/a	n/a	n/a	n/a	n/a	n/a	n/a	n/a	n/a	n/a	n/a	n/a
1473880	PROB	n/a	LTP090	ltpFR	12	n/a	n/a	n/a	n/a	n/a	n/a	n/a	26	8	9	9	n/a	n/a	n/a	n/a	n/a
1476198	PROB	n/a	LTP090	ltpFR	12	n/a	n/a	n/a	n/a	n/a	n/a	n/a	16	7	4	5	n/a	n/a	n/a	n/a	n/a
1478406	PROB	n/a	LTP090	ltpFR	12	n/a	n/a	n/a	n/a	n/a	n/a	n/a	12	1	5	6	n/a	n/a	n/a	n/a	n/a
1479766	STOP	n/a	LTP090	ltpFR	12	n/a	n/a	n/a	n/a	n/a	n/a	n/a	n/a	n/a	n/a	n/a	n/a	n/a	n/a	n/a	n/a
1481804	WORD	wordpools/wasnorm_wordpool.txt	LTP090	ltpFR	12	7	0	TEACHER	1440	n/a	n/a	1	n/a	0	0	0	0.422607421875	0.5869140625	0	upper	amplitud.ttf
1484813	START	n/a	LTP090	ltpFR	12	n/a	n/a	n/a	n/a	n/a	n/a	n/a	n/a	n/a	n/a	n/a	n/a	n/a	n/a	n/a	n/a
1485912	PROB	n/a	LTP090	ltpFR	12	n/a	n/a	n/a	n/a	n/a	n/a	n/a	12	6	3	3	n/a	n/a	n/a	n/a	n/a
1489372	PROB	n/a	LTP090	ltpFR	12	n/a	n/a	n/a	n/a	n/a	n/a	n/a	20	9	7	4	n/a	n/a	n/a	n/a	n/a
1492238	STOP	n/a	LTP090	ltpFR	12	n/a	n/a	n/a	n/a	n/a	n/a	n/a	n/a	n/a	n/a	n/a	n/a	n/a	n/a	n/a	n/a
1493904	WORD	wordpools/wasnorm_wordpool.txt	LTP090	ltpFR	12	7	0	MAT	877	n/a	n/a	0	n/a	0	0	0	0.422607421875	0.5869140625	0	upper	amplitud.ttf
1496912	START	n/a	LTP090	ltpFR	12	n/a	n/a	n/a	n/a	n/a	n/a	n/a	n/a	n/a	n/a	n/a	n/a	n/a	n/a	n/a	n/a
1498003	PROB	n/a	LTP090	ltpFR	12	n/a	n/a	n/a	n/a	n/a	n/a	n/a	16	5	9	2	n/a	n/a	n/a	n/a	n/a
1500103	PROB	n/a	LTP090	ltpFR	12	n/a	n/a	n/a	n/a	n/a	n/a	n/a	8	1	3	4	n/a	n/a	n/a	n/a	n/a
1504101	STOP	n/a	LTP090	ltpFR	12	n/a	n/a	n/a	n/a	n/a	n/a	n/a	n/a	n/a	n/a	n/a	n/a	n/a	n/a	n/a	n/a
1506036	WORD	wordpools/wasnorm_wordpool.txt	LTP090	ltpFR	12	7	0	INCENSE	735	n/a	n/a	0	n/a	0	0	0	0.422607421875	0.5869140625	0	upper	amplitud.ttf
1509044	START	n/a	LTP090	ltpFR	12	n/a	n/a	n/a	n/a	n/a	n/a	n/a	n/a	n/a	n/a	n/a	n/a	n/a	n/a	n/a	n/a
1509886	PROB	n/a	LTP090	ltpFR	12	n/a	n/a	n/a	n/a	n/a	n/a	n/a	26	9	8	9	n/a	n/a	n/a	n/a	n/a
1511695	PROB	n/a	LTP090	ltpFR	12	n/a	n/a	n/a	n/a	n/a	n/a	n/a	6	2	3	1	n/a	n/a	n/a	n/a	n/a
1513060	PROB	n/a	LTP090	ltpFR	12	n/a	n/a	n/a	n/a	n/a	n/a	n/a	7	2	1	4	n/a	n/a	n/a	n/a	n/a
1515002	PROB	n/a	LTP090	ltpFR	12	n/a	n/a	n/a	n/a	n/a	n/a	n/a	15	7	7	1	n/a	n/a	n/a	n/a	n/a
1516342	STOP	n/a	LTP090	ltpFR	12	n/a	n/a	n/a	n/a	n/a	n/a	n/a	n/a	n/a	n/a	n/a	n/a	n/a	n/a	n/a	n/a
1517910	WORD	wordpools/wasnorm_wordpool.txt	LTP090	ltpFR	12	7	0	CUFF	423	n/a	n/a	0	n/a	0	0	0	0.422607421875	0.5869140625	0	upper	amplitud.ttf
1520919	START	n/a	LTP090	ltpFR	12	n/a	n/a	n/a	n/a	n/a	n/a	n/a	n/a	n/a	n/a	n/a	n/a	n/a	n/a	n/a	n/a
1521951	PROB	n/a	LTP090	ltpFR	12	n/a	n/a	n/a	n/a	n/a	n/a	n/a	6	3	1	2	n/a	n/a	n/a	n/a	n/a
1523311	PROB	n/a	LTP090	ltpFR	12	n/a	n/a	n/a	n/a	n/a	n/a	n/a	6	4	1	1	n/a	n/a	n/a	n/a	n/a
1525719	PROB	n/a	LTP090	ltpFR	12	n/a	n/a	n/a	n/a	n/a	n/a	n/a	17	6	8	3	n/a	n/a	n/a	n/a	n/a
1527598	STOP	n/a	LTP090	ltpFR	12	n/a	n/a	n/a	n/a	n/a	n/a	n/a	n/a	n/a	n/a	n/a	n/a	n/a	n/a	n/a	n/a
1530109	WORD	wordpools/wasnorm_wordpool.txt	LTP090	ltpFR	12	7	0	VELVET	1555	n/a	n/a	0	n/a	0	0	0	0.422607421875	0.5869140625	0	upper	amplitud.ttf
1533119	START	n/a	LTP090	ltpFR	12	n/a	n/a	n/a	n/a	n/a	n/a	n/a	n/a	n/a	n/a	n/a	n/a	n/a	n/a	n/a	n/a
1533942	PROB	n/a	LTP090	ltpFR	12	n/a	n/a	n/a	n/a	n/a	n/a	n/a	18	7	9	2	n/a	n/a	n/a	n/a	n/a
1538858	PROB	n/a	LTP090	ltpFR	12	n/a	n/a	n/a	n/a	n/a	n/a	n/a	10	1	4	5	n/a	n/a	n/a	n/a	n/a
1540622	STOP	n/a	LTP090	ltpFR	12	n/a	n/a	n/a	n/a	n/a	n/a	n/a	n/a	n/a	n/a	n/a	n/a	n/a	n/a	n/a	n/a
1542267	WORD	wordpools/wasnorm_wordpool.txt	LTP090	ltpFR	12	7	0	BED	110	n/a	n/a	1	n/a	0	0	0	0.422607421875	0.5869140625	0	upper	amplitud.ttf
1545268	START	n/a	LTP090	ltpFR	12	n/a	n/a	n/a	n/a	n/a	n/a	n/a	n/a	n/a	n/a	n/a	n/a	n/a	n/a	n/a	n/a
1546134	PROB	n/a	LTP090	ltpFR	12	n/a	n/a	n/a	n/a	n/a	n/a	n/a	20	3	8	9	n/a	n/a	n/a	n/a	n/a
1548550	PROB	n/a	LTP090	ltpFR	12	n/a	n/a	n/a	n/a	n/a	n/a	n/a	14	6	7	1	n/a	n/a	n/a	n/a	n/a
1549899	PROB	n/a	LTP090	ltpFR	12	n/a	n/a	n/a	n/a	n/a	n/a	n/a	16	7	3	6	n/a	n/a	n/a	n/a	n/a
1551175	PROB	n/a	LTP090	ltpFR	12	n/a	n/a	n/a	n/a	n/a	n/a	n/a	12	4	3	5	n/a	n/a	n/a	n/a	n/a
1552670	STOP	n/a	LTP090	ltpFR	12	n/a	n/a	n/a	n/a	n/a	n/a	n/a	n/a	n/a	n/a	n/a	n/a	n/a	n/a	n/a	n/a
1554117	WORD	wordpools/wasnorm_wordpool.txt	LTP090	ltpFR	12	7	0	HEAD	695	n/a	n/a	1	n/a	0	0	0	0.422607421875	0.5869140625	0	upper	amplitud.ttf
1557125	START	n/a	LTP090	ltpFR	12	n/a	n/a	n/a	n/a	n/a	n/a	n/a	n/a	n/a	n/a	n/a	n/a	n/a	n/a	n/a	n/a
1558283	PROB	n/a	LTP090	ltpFR	12	n/a	n/a	n/a	n/a	n/a	n/a	n/a	19	8	4	7	n/a	n/a	n/a	n/a	n/a
1559982	PROB	n/a	LTP090	ltpFR	12	n/a	n/a	n/a	n/a	n/a	n/a	n/a	17	7	4	6	n/a	n/a	n/a	n/a	n/a
1561865	PROB	n/a	LTP090	ltpFR	12	n/a	n/a	n/a	n/a	n/a	n/a	n/a	19	5	7	7	n/a	n/a	n/a	n/a	n/a
1563670	STOP	n/a	LTP090	ltpFR	12	n/a	n/a	n/a	n/a	n/a	n/a	n/a	n/a	n/a	n/a	n/a	n/a	n/a	n/a	n/a	n/a
1566274	WORD	wordpools/wasnorm_wordpool.txt	LTP090	ltpFR	12	7	0	COUNTRY	388	n/a	n/a	1	n/a	0	0	0	0.422607421875	0.5869140625	0	upper	amplitud.ttf
1569282	START	n/a	LTP090	ltpFR	12	n/a	n/a	n/a	n/a	n/a	n/a	n/a	n/a	n/a	n/a	n/a	n/a	n/a	n/a	n/a	n/a
1570315	PROB	n/a	LTP090	ltpFR	12	n/a	n/a	n/a	n/a	n/a	n/a	n/a	20	5	9	6	n/a	n/a	n/a	n/a	n/a
1573398	PROB	n/a	LTP090	ltpFR	12	n/a	n/a	n/a	n/a	n/a	n/a	n/a	15	4	9	2	n/a	n/a	n/a	n/a	n/a
1577282	STOP	n/a	LTP090	ltpFR	12	n/a	n/a	n/a	n/a	n/a	n/a	n/a	n/a	n/a	n/a	n/a	n/a	n/a	n/a	n/a	n/a
1578323	WORD	wordpools/wasnorm_wordpool.txt	LTP090	ltpFR	12	7	0	DEODORANT	448	n/a	n/a	0	n/a	0	0	0	0.422607421875	0.5869140625	0	upper	amplitud.ttf
1581332	START	n/a	LTP090	ltpFR	12	n/a	n/a	n/a	n/a	n/a	n/a	n/a	n/a	n/a	n/a	n/a	n/a	n/a	n/a	n/a	n/a
1582373	PROB	n/a	LTP090	ltpFR	12	n/a	n/a	n/a	n/a	n/a	n/a	n/a	15	5	4	6	n/a	n/a	n/a	n/a	n/a
1584055	PROB	n/a	LTP090	ltpFR	12	n/a	n/a	n/a	n/a	n/a	n/a	n/a	18	9	5	4	n/a	n/a	n/a	n/a	n/a
1586297	PROB	n/a	LTP090	ltpFR	12	n/a	n/a	n/a	n/a	n/a	n/a	n/a	19	9	5	5	n/a	n/a	n/a	n/a	n/a
1588406	STOP	n/a	LTP090	ltpFR	12	n/a	n/a	n/a	n/a	n/a	n/a	n/a	n/a	n/a	n/a	n/a	n/a	n/a	n/a	n/a	n/a
1590255	WORD	wordpools/wasnorm_wordpool.txt	LTP090	ltpFR	12	7	0	HAM	678	n/a	n/a	0	n/a	0	0	0	0.422607421875	0.5869140625	0	upper	amplitud.ttf
1593255	START	n/a	LTP090	ltpFR	12	n/a	n/a	n/a	n/a	n/a	n/a	n/a	n/a	n/a	n/a	n/a	n/a	n/a	n/a	n/a	n/a
1594079	PROB	n/a	LTP090	ltpFR	12	n/a	n/a	n/a	n/a	n/a	n/a	n/a	11	6	3	2	n/a	n/a	n/a	n/a	n/a
1596247	PROB	n/a	LTP090	ltpFR	12	n/a	n/a	n/a	n/a	n/a	n/a	n/a	13	7	1	5	n/a	n/a	n/a	n/a	n/a
1601255	STOP	n/a	LTP090	ltpFR	12	n/a	n/a	n/a	n/a	n/a	n/a	n/a	n/a	n/a	n/a	n/a	n/a	n/a	n/a	n/a	n/a
1603071	REC_START	n/a	LTP090	ltpFR	12	7	n/a	n/a	n/a	n/a	n/a	n/a	n/a	0	0	0	n/a	n/a	n/a	n/a	n/a
1606603	REC_WORD	wordpools/wasnorm_wordpool.txt	LTP090	ltpFR	12	7	0	LOUNGE	845	n/a	n/a	1	n/a	0	0	0	n/a	n/a	n/a	n/a	n/a
1607700	REC_WORD	wordpools/wasnorm_wordpool.txt	LTP090	ltpFR	12	7	0	HALL	677	n/a	n/a	1	n/a	0	0	0	n/a	n/a	n/a	n/a	n/a
1609232	REC_WORD	wordpools/wasnorm_wordpool.txt	LTP090	ltpFR	12	7	0	JUG	762	n/a	n/a	0	n/a	0	0	0	n/a	n/a	n/a	n/a	n/a
1611661	REC_WORD	wordpools/wasnorm_wordpool.txt	LTP090	ltpFR	12	7	0	LAKE	796	n/a	n/a	1	n/a	0	0	0	n/a	n/a	n/a	n/a	n/a
1613587	REC_WORD	wordpools/wasnorm_wordpool.txt	LTP090	ltpFR	12	7	0	MAT	877	n/a	n/a	0	n/a	0	0	0	n/a	n/a	n/a	n/a	n/a
1615302	REC_WORD	wordpools/wasnorm_wordpool.txt	LTP090	ltpFR	12	7	0	FARM	552	n/a	n/a	1	n/a	0	0	0	n/a	n/a	n/a	n/a	n/a
1621948	REC_WORD	wordpools/wasnorm_wordpool.txt	LTP090	ltpFR	12	7	0	TEACHER	1440	n/a	n/a	1	n/a	0	0	0	n/a	n/a	n/a	n/a	n/a
1623370	REC_WORD	wordpools/wasnorm_wordpool.txt	LTP090	ltpFR	12	7	0	GRADUATE	653	n/a	n/a	1	n/a	0	0	0	n/a	n/a	n/a	n/a	n/a
1625969	REC_WORD	wordpools/wasnorm_wordpool.txt	LTP090	ltpFR	12	7	0	CUFF	423	n/a	n/a	0	n/a	0	0	0	n/a	n/a	n/a	n/a	n/a
1627321	REC_WORD	wordpools/wasnorm_wordpool.txt	LTP090	ltpFR	12	7	0	VELVET	1555	n/a	n/a	0	n/a	0	0	0	n/a	n/a	n/a	n/a	n/a
1628358	REC_WORD	wordpools/wasnorm_wordpool.txt	LTP090	ltpFR	12	7	0	BED	110	n/a	n/a	1	n/a	0	0	0	n/a	n/a	n/a	n/a	n/a
1629615	REC_WORD	wordpools/wasnorm_wordpool.txt	LTP090	ltpFR	12	7	0	HEAD	695	n/a	n/a	1	n/a	0	0	0	n/a	n/a	n/a	n/a	n/a
1645759	REC_WORD	wordpools/wasnorm_wordpool.txt	LTP090	ltpFR	12	7	0	HAM	678	n/a	n/a	0	n/a	0	0	0	n/a	n/a	n/a	n/a	n/a
1682123	WORD	wordpools/wasnorm_wordpool.txt	LTP090	ltpFR	12	8	1	PAW	1029	n/a	n/a	0	n/a	0	0	0	0.57763671875	0.412841796875	1	lower	zerothre.ttf
1686198	WORD	wordpools/wasnorm_wordpool.txt	LTP090	ltpFR	12	8	1	KITTEN	780	n/a	n/a	1	n/a	0	0	0	0.57763671875	0.412841796875	1	lower	zerothre.ttf
1690173	WORD	wordpools/wasnorm_wordpool.txt	LTP090	ltpFR	12	8	1	DONKEY	484	n/a	n/a	1	n/a	0	0	0	0.57763671875	0.412841796875	1	lower	zerothre.ttf
1694055	WORD	wordpools/wasnorm_wordpool.txt	LTP090	ltpFR	12	8	1	VIKING	1565	n/a	n/a	1	n/a	0	0	0	0.57763671875	0.412841796875	1	lower	zerothre.ttf
1698029	WORD	wordpools/wasnorm_wordpool.txt	LTP090	ltpFR	12	8	1	ANKLE	24	n/a	n/a	0	n/a	0	0	0	0.57763671875	0.412841796875	1	lower	zerothre.ttf
1701871	WORD	wordpools/wasnorm_wordpool.txt	LTP090	ltpFR	12	8	1	CAR	241	n/a	n/a	0	n/a	0	0	0	0.57763671875	0.412841796875	1	lower	zerothre.ttf
1705979	WORD	wordpools/wasnorm_wordpool.txt	LTP090	ltpFR	12	8	1	FREEWAY	603	n/a	n/a	0	n/a	0	0	0	0.57763671875	0.412841796875	1	lower	zerothre.ttf
1709987	WORD	wordpools/wasnorm_wordpool.txt	LTP090	ltpFR	12	8	1	CAVE	263	n/a	n/a	1	n/a	0	0	0	0.57763671875	0.412841796875	1	lower	zerothre.ttf
1714179	WORD	wordpools/wasnorm_wordpool.txt	LTP090	ltpFR	12	8	1	REINDEER	1181	n/a	n/a	1	n/a	0	0	0	0.57763671875	0.412841796875	1	lower	zerothre.ttf
1718154	WORD	wordpools/wasnorm_wordpool.txt	LTP090	ltpFR	12	8	1	WRIST	1626	n/a	n/a	0	n/a	0	0	0	0.57763671875	0.412841796875	1	lower	zerothre.ttf
1722345	WORD	wordpools/wasnorm_wordpool.txt	LTP090	ltpFR	12	8	1	PREDATOR	1120	n/a	n/a	1	n/a	0	0	0	0.57763671875	0.412841796875	1	lower	zerothre.ttf
1726520	WORD	wordpools/wasnorm_wordpool.txt	LTP090	ltpFR	12	8	1	CUB	419	n/a	n/a	1	n/a	0	0	0	0.57763671875	0.412841796875	1	lower	zerothre.ttf
1730503	WORD	wordpools/wasnorm_wordpool.txt	LTP090	ltpFR	12	8	1	SHIP	1286	n/a	n/a	0	n/a	0	0	0	0.57763671875	0.412841796875	1	lower	zerothre.ttf
1734711	WORD	wordpools/wasnorm_wordpool.txt	LTP090	ltpFR	12	8	1	GLASS	639	n/a	n/a	0	n/a	0	0	0	0.57763671875	0.412841796875	1	lower	zerothre.ttf
1738544	WORD	wordpools/wasnorm_wordpool.txt	LTP090	ltpFR	12	8	1	ORANGE	980	n/a	n/a	0	n/a	0	0	0	0.57763671875	0.412841796875	1	lower	zerothre.ttf
1742677	WORD	wordpools/wasnorm_wordpool.txt	LTP090	ltpFR	12	8	1	BANDANNA	80	n/a	n/a	0	n/a	0	0	0	0.57763671875	0.412841796875	1	lower	zerothre.ttf
1745685	START	n/a	LTP090	ltpFR	12	n/a	n/a	n/a	n/a	n/a	n/a	n/a	n/a	n/a	n/a	n/a	n/a	n/a	n/a	n/a	n/a
1746627	PROB	n/a	LTP090	ltpFR	12	n/a	n/a	n/a	n/a	n/a	n/a	n/a	21	9	3	9	n/a	n/a	n/a	n/a	n/a
1749025	PROB	n/a	LTP090	ltpFR	12	n/a	n/a	n/a	n/a	n/a	n/a	n/a	9	4	4	1	n/a	n/a	n/a	n/a	n/a
1750385	PROB	n/a	LTP090	ltpFR	12	n/a	n/a	n/a	n/a	n/a	n/a	n/a	12	2	1	9	n/a	n/a	n/a	n/a	n/a
1751800	PROB	n/a	LTP090	ltpFR	12	n/a	n/a	n/a	n/a	n/a	n/a	n/a	20	9	4	7	n/a	n/a	n/a	n/a	n/a
1753668	PROB	n/a	LTP090	ltpFR	12	n/a	n/a	n/a	n/a	n/a	n/a	n/a	18	3	9	6	n/a	n/a	n/a	n/a	n/a
1756875	PROB	n/a	LTP090	ltpFR	12	n/a	n/a	n/a	n/a	n/a	n/a	n/a	19	8	4	7	n/a	n/a	n/a	n/a	n/a
1759201	PROB	n/a	LTP090	ltpFR	12	n/a	n/a	n/a	n/a	n/a	n/a	n/a	17	6	3	8	n/a	n/a	n/a	n/a	n/a
1761214	STOP	n/a	LTP090	ltpFR	12	n/a	n/a	n/a	n/a	n/a	n/a	n/a	n/a	n/a	n/a	n/a	n/a	n/a	n/a	n/a	n/a
1763593	REC_START	n/a	LTP090	ltpFR	12	8	n/a	n/a	n/a	n/a	n/a	n/a	n/a	0	0	0	n/a	n/a	n/a	n/a	n/a
1765933	REC_WORD	wordpools/wasnorm_wordpool.txt	LTP090	ltpFR	12	8	1	BANDANNA	80	n/a	n/a	0	n/a	0	0	0	n/a	n/a	n/a	n/a	n/a
1767429	REC_WORD	wordpools/wasnorm_wordpool.txt	LTP090	ltpFR	12	8	1	ORANGE	980	n/a	n/a	0	n/a	0	0	0	n/a	n/a	n/a	n/a	n/a
1776434	REC_WORD	wordpools/wasnorm_wordpool.txt	LTP090	ltpFR	12	8	1	PAW	1029	n/a	n/a	0	n/a	0	0	0	n/a	n/a	n/a	n/a	n/a
1777292	REC_WORD	wordpools/wasnorm_wordpool.txt	LTP090	ltpFR	12	8	1	KITTEN	780	n/a	n/a	1	n/a	0	0	0	n/a	n/a	n/a	n/a	n/a
1778544	REC_WORD	wordpools/wasnorm_wordpool.txt	LTP090	ltpFR	12	8	1	DONKEY	484	n/a	n/a	1	n/a	0	0	0	n/a	n/a	n/a	n/a	n/a
1779781	REC_WORD	wordpools/wasnorm_wordpool.txt	LTP090	ltpFR	12	8	1	VIKING	1565	n/a	n/a	1	n/a	0	0	0	n/a	n/a	n/a	n/a	n/a
1781317	REC_WORD	wordpools/wasnorm_wordpool.txt	LTP090	ltpFR	12	8	1	ANKLE	24	n/a	n/a	0	n/a	0	0	0	n/a	n/a	n/a	n/a	n/a
1783727	REC_WORD	wordpools/wasnorm_wordpool.txt	LTP090	ltpFR	12	8	1	CAR	241	n/a	n/a	0	n/a	0	0	0	n/a	n/a	n/a	n/a	n/a
1784959	REC_WORD	wordpools/wasnorm_wordpool.txt	LTP090	ltpFR	12	8	1	FREEWAY	603	n/a	n/a	0	n/a	0	0	0	n/a	n/a	n/a	n/a	n/a
1786935	REC_WORD	wordpools/wasnorm_wordpool.txt	LTP090	ltpFR	12	8	1	CAVE	263	n/a	n/a	1	n/a	0	0	0	n/a	n/a	n/a	n/a	n/a
1788396	REC_WORD	wordpools/wasnorm_wordpool.txt	LTP090	ltpFR	12	8	1	PREDATOR	1120	n/a	n/a	1	n/a	0	0	0	n/a	n/a	n/a	n/a	n/a
1791015	REC_WORD	wordpools/wasnorm_wordpool.txt	LTP090	ltpFR	12	8	1	SHIP	1286	n/a	n/a	0	n/a	0	0	0	n/a	n/a	n/a	n/a	n/a
1792452	REC_WORD	wordpools/wasnorm_wordpool.txt	LTP090	ltpFR	12	8	1	GLASS	639	n/a	n/a	0	n/a	0	0	0	n/a	n/a	n/a	n/a	n/a
1793819	REC_WORD	wordpools/wasnorm_wordpool.txt	LTP090	ltpFR	12	8	1	WRIST	1626	n/a	n/a	0	n/a	0	0	0	n/a	n/a	n/a	n/a	n/a
1806241	REC_WORD	wordpools/wasnorm_wordpool.txt	LTP090	ltpFR	12	8	1	CUB	419	n/a	n/a	1	n/a	0	0	0	n/a	n/a	n/a	n/a	n/a
1842294	WORD	wordpools/wasnorm_wordpool.txt	LTP090	ltpFR	12	9	0	PLUMBER	1091	n/a	n/a	0	n/a	0	0	0	0.422607421875	0.5869140625	0	upper	amplitud.ttf
1846286	WORD	wordpools/wasnorm_wordpool.txt	LTP090	ltpFR	12	9	0	BATHROOM	99	n/a	n/a	0	n/a	0	0	0	0.422607421875	0.5869140625	0	upper	amplitud.ttf
1850452	WORD	wordpools/wasnorm_wordpool.txt	LTP090	ltpFR	12	9	0	BRACELET	163	n/a	n/a	0	n/a	0	0	0	0.422607421875	0.5869140625	0	upper	amplitud.ttf
1854527	WORD	wordpools/wasnorm_wordpool.txt	LTP090	ltpFR	12	9	1	SAP	1233	n/a	n/a	0	n/a	0	0	0	0.57763671875	0.412841796875	1	lower	zerothre.ttf
1858643	WORD	wordpools/wasnorm_wordpool.txt	LTP090	ltpFR	12	9	1	GORILLA	650	n/a	n/a	1	n/a	0	0	0	0.57763671875	0.412841796875	1	lower	zerothre.ttf
1862618	WORD	wordpools/wasnorm_wordpool.txt	LTP090	ltpFR	12	9	1	BALLOON	75	n/a	n/a	0	n/a	0	0	0	0.57763671875	0.412841796875	1	lower	zerothre.ttf
1866717	WORD	wordpools/wasnorm_wordpool.txt	LTP090	ltpFR	12	9	1	DILL	465	n/a	n/a	0	n/a	0	0	0	0.57763671875	0.412841796875	1	lower	zerothre.ttf
1870924	WORD	wordpools/wasnorm_wordpool.txt	LTP090	ltpFR	12	9	1	MOUTH	926	n/a	n/a	0	n/a	0	0	0	0.57763671875	0.412841796875	1	lower	zerothre.ttf
1874758	WORD	wordpools/wasnorm_wordpool.txt	LTP090	ltpFR	12	9	1	OZONE	996	n/a	n/a	0	n/a	0	0	0	0.57763671875	0.412841796875	1	lower	zerothre.ttf
1878866	WORD	wordpools/wasnorm_wordpool.txt	LTP090	ltpFR	12	9	0	AMBULANCE	19	n/a	n/a	0	n/a	0	0	0	0.422607421875	0.5869140625	0	upper	amplitud.ttf
1883007	WORD	wordpools/wasnorm_wordpool.txt	LTP090	ltpFR	12	9	0	DRILL	497	n/a	n/a	0	n/a	0	0	0	0.422607421875	0.5869140625	0	upper	amplitud.ttf
1887149	WORD	wordpools/wasnorm_wordpool.txt	LTP090	ltpFR	12	9	0	GIRAFFE	636	n/a	n/a	1	n/a	0	0	0	0.422607421875	0.5869140625	0	upper	amplitud.ttf
1891014	WORD	wordpools/wasnorm_wordpool.txt	LTP090	ltpFR	12	9	0	MAMMAL	861	n/a	n/a	1	n/a	0	0	0	0.422607421875	0.5869140625	0	upper	amplitud.ttf
1894981	WORD	wordpools/wasnorm_wordpool.txt	LTP090	ltpFR	12	9	0	GARLIC	624	n/a	n/a	0	n/a	0	0	0	0.422607421875	0.5869140625	0	upper	amplitud.ttf
1898922	WORD	wordpools/wasnorm_wordpool.txt	LTP090	ltpFR	12	9	1	LILY	821	n/a	n/a	0	n/a	0	0	0	0.57763671875	0.412841796875	1	lower	zerothre.ttf
1903014	WORD	wordpools/wasnorm_wordpool.txt	LTP090	ltpFR	12	9	1	GOLD	647	n/a	n/a	0	n/a	0	0	0	0.57763671875	0.412841796875	1	lower	zerothre.ttf
1906022	START	n/a	LTP090	ltpFR	12	n/a	n/a	n/a	n/a	n/a	n/a	n/a	n/a	n/a	n/a	n/a	n/a	n/a	n/a	n/a	n/a
1907072	PROB	n/a	LTP090	ltpFR	12	n/a	n/a	n/a	n/a	n/a	n/a	n/a	14	9	1	4	n/a	n/a	n/a	n/a	n/a
1909046	PROB	n/a	LTP090	ltpFR	12	n/a	n/a	n/a	n/a	n/a	n/a	n/a	11	1	6	4	n/a	n/a	n/a	n/a	n/a
1910372	PROB	n/a	LTP090	ltpFR	12	n/a	n/a	n/a	n/a	n/a	n/a	n/a	11	6	3	2	n/a	n/a	n/a	n/a	n/a
1912071	PROB	n/a	LTP090	ltpFR	12	n/a	n/a	n/a	n/a	n/a	n/a	n/a	24	9	9	6	n/a	n/a	n/a	n/a	n/a
1914005	STOP	n/a	LTP090	ltpFR	12	n/a	n/a	n/a	n/a	n/a	n/a	n/a	n/a	n/a	n/a	n/a	n/a	n/a	n/a	n/a	n/a
1915805	REC_START	n/a	LTP090	ltpFR	12	9	n/a	n/a	n/a	n/a	n/a	n/a	n/a	0	0	0	n/a	n/a	n/a	n/a	n/a
1916933	REC_WORD	wordpools/wasnorm_wordpool.txt	LTP090	ltpFR	12	9	1	LILY	821	n/a	n/a	0	n/a	0	0	0	n/a	n/a	n/a	n/a	n/a
1917995	REC_WORD	wordpools/wasnorm_wordpool.txt	LTP090	ltpFR	12	9	1	GOLD	647	n/a	n/a	0	n/a	0	0	0	n/a	n/a	n/a	n/a	n/a
1920220	REC_WORD	wordpools/wasnorm_wordpool.txt	LTP090	ltpFR	12	9	1	BALLOON	75	n/a	n/a	0	n/a	0	0	0	n/a	n/a	n/a	n/a	n/a
1922210	REC_WORD	wordpools/wasnorm_wordpool.txt	LTP090	ltpFR	12	9	0	DRILL	497	n/a	n/a	0	n/a	0	0	0	n/a	n/a	n/a	n/a	n/a
1926930	REC_WORD	wordpools/wasnorm_wordpool.txt	LTP090	ltpFR	12	9	0	AMBULANCE	19	n/a	n/a	0	n/a	0	0	0	n/a	n/a	n/a	n/a	n/a
1929793	REC_WORD	wordpools/wasnorm_wordpool.txt	LTP090	ltpFR	12	9	1	GORILLA	650	n/a	n/a	1	n/a	0	0	0	n/a	n/a	n/a	n/a	n/a
1930851	REC_WORD	wordpools/wasnorm_wordpool.txt	LTP090	ltpFR	12	9	0	MAMMAL	861	n/a	n/a	1	n/a	0	0	0	n/a	n/a	n/a	n/a	n/a
1932003	REC_WORD	wordpools/wasnorm_wordpool.txt	LTP090	ltpFR	12	9	0	GIRAFFE	636	n/a	n/a	1	n/a	0	0	0	n/a	n/a	n/a	n/a	n/a
1933105	REC_WORD	wordpools/wasnorm_wordpool.txt	LTP090	ltpFR	12	9	1	SAP	1233	n/a	n/a	0	n/a	0	0	0	n/a	n/a	n/a	n/a	n/a
1934961	REC_WORD	wordpools/wasnorm_wordpool.txt	LTP090	ltpFR	12	9	1	DILL	465	n/a	n/a	0	n/a	0	0	0	n/a	n/a	n/a	n/a	n/a
1936139	REC_WORD	wordpools/wasnorm_wordpool.txt	LTP090	ltpFR	12	9	0	GARLIC	624	n/a	n/a	0	n/a	0	0	0	n/a	n/a	n/a	n/a	n/a
1940129	REC_WORD	wordpools/wasnorm_wordpool.txt	LTP090	ltpFR	12	9	0	PLUMBER	1091	n/a	n/a	0	n/a	0	0	0	n/a	n/a	n/a	n/a	n/a
1941277	REC_WORD	wordpools/wasnorm_wordpool.txt	LTP090	ltpFR	12	9	0	BATHROOM	99	n/a	n/a	0	n/a	0	0	0	n/a	n/a	n/a	n/a	n/a
1942823	REC_WORD	wordpools/wasnorm_wordpool.txt	LTP090	ltpFR	12	9	0	BRACELET	163	n/a	n/a	0	n/a	0	0	0	n/a	n/a	n/a	n/a	n/a
1943961	REC_WORD	wordpools/wasnorm_wordpool.txt	LTP090	ltpFR	12	9	1	MOUTH	926	n/a	n/a	0	n/a	0	0	0	n/a	n/a	n/a	n/a	n/a
1994683	WORD	wordpools/wasnorm_wordpool.txt	LTP090	ltpFR	12	10	0	WATERFALL	1595	n/a	n/a	1	n/a	0	0	0	0.422607421875	0.5869140625	0	upper	amplitud.ttf
1998507	WORD	wordpools/wasnorm_wordpool.txt	LTP090	ltpFR	12	10	0	LINEN	825	n/a	n/a	0	n/a	0	0	0	0.422607421875	0.5869140625	0	upper	amplitud.ttf
2002482	WORD	wordpools/wasnorm_wordpool.txt	LTP090	ltpFR	12	10	0	RAG	1160	n/a	n/a	0	n/a	0	0	0	0.422607421875	0.5869140625	0	upper	amplitud.ttf
2006373	WORD	wordpools/wasnorm_wordpool.txt	LTP090	ltpFR	12	10	0	NAPKIN	937	n/a	n/a	0	n/a	0	0	0	0.422607421875	0.5869140625	0	upper	amplitud.ttf
2010281	WORD	wordpools/wasnorm_wordpool.txt	LTP090	ltpFR	12	10	0	POLYESTER	1100	n/a	n/a	0	n/a	0	0	0	0.422607421875	0.5869140625	0	upper	amplitud.ttf
2014231	WORD	wordpools/wasnorm_wordpool.txt	LTP090	ltpFR	12	10	0	BRIDGE	174	n/a	n/a	1	n/a	0	0	0	0.422607421875	0.5869140625	0	upper	amplitud.ttf
2018381	WORD	wordpools/wasnorm_wordpool.txt	LTP090	ltpFR	12	10	0	CANAL	226	n/a	n/a	1	n/a	0	0	0	0.422607421875	0.5869140625	0	upper	amplitud.ttf
2022205	WORD	wordpools/wasnorm_wordpool.txt	LTP090	ltpFR	12	10	0	OREGANO	983	n/a	n/a	0	n/a	0	0	0	0.422607421875	0.5869140625	0	upper	amplitud.ttf
2026288	WORD	wordpools/wasnorm_wordpool.txt	LTP090	ltpFR	12	10	0	EMERALD	528	n/a	n/a	0	n/a	0	0	0	0.422607421875	0.5869140625	0	upper	amplitud.ttf
2030263	WORD	wordpools/wasnorm_wordpool.txt	LTP090	ltpFR	12	10	0	UNIVERSITY	1541	n/a	n/a	1	n/a	0	0	0	0.422607421875	0.5869140625	0	upper	amplitud.ttf
2034371	WORD	wordpools/wasnorm_wordpool.txt	LTP090	ltpFR	12	10	0	WAITRESS	1581	n/a	n/a	1	n/a	0	0	0	0.422607421875	0.5869140625	0	upper	amplitud.ttf
2038221	WORD	wordpools/wasnorm_wordpool.txt	LTP090	ltpFR	12	10	0	BAND	78	n/a	n/a	1	n/a	0	0	0	0.422607421875	0.5869140625	0	upper	amplitud.ttf
2042204	WORD	wordpools/wasnorm_wordpool.txt	LTP090	ltpFR	12	10	0	CARAVAN	242	n/a	n/a	1	n/a	0	0	0	0.422607421875	0.5869140625	0	upper	amplitud.ttf
2046320	WORD	wordpools/wasnorm_wordpool.txt	LTP090	ltpFR	12	10	0	STAFF	1365	n/a	n/a	1	n/a	0	0	0	0.422607421875	0.5869140625	0	upper	amplitud.ttf
2050420	WORD	wordpools/wasnorm_wordpool.txt	LTP090	ltpFR	12	10	0	VEAL	1551	n/a	n/a	0	n/a	0	0	0	0.422607421875	0.5869140625	0	upper	amplitud.ttf
2054528	WORD	wordpools/wasnorm_wordpool.txt	LTP090	ltpFR	12	10	0	VIOLA	1570	n/a	n/a	0	n/a	0	0	0	0.422607421875	0.5869140625	0	upper	amplitud.ttf
2060253	REC_START	n/a	LTP090	ltpFR	12	10	n/a	n/a	n/a	n/a	n/a	n/a	n/a	0	0	0	n/a	n/a	n/a	n/a	n/a
2063705	REC_WORD	wordpools/wasnorm_wordpool.txt	LTP090	ltpFR	12	10	0	VIOLA	1570	n/a	n/a	0	n/a	0	0	0	n/a	n/a	n/a	n/a	n/a
2065256	REC_WORD	wordpools/wasnorm_wordpool.txt	LTP090	ltpFR	12	10	0	BAND	78	n/a	n/a	1	n/a	0	0	0	n/a	n/a	n/a	n/a	n/a
2067976	REC_WORD	wordpools/wasnorm_wordpool.txt	LTP090	ltpFR	12	10	0	WAITRESS	1581	n/a	n/a	1	n/a	0	0	0	n/a	n/a	n/a	n/a	n/a
2069881	REC_WORD	wordpools/wasnorm_wordpool.txt	LTP090	ltpFR	12	10	0	STAFF	1365	n/a	n/a	1	n/a	0	0	0	n/a	n/a	n/a	n/a	n/a
2072300	REC_WORD	wordpools/wasnorm_wordpool.txt	LTP090	ltpFR	12	10	0	WATERFALL	1595	n/a	n/a	1	n/a	0	0	0	n/a	n/a	n/a	n/a	n/a
2073772	REC_WORD	wordpools/wasnorm_wordpool.txt	LTP090	ltpFR	12	10	0	LINEN	825	n/a	n/a	0	n/a	0	0	0	n/a	n/a	n/a	n/a	n/a
2074625	REC_WORD	wordpools/wasnorm_wordpool.txt	LTP090	ltpFR	12	10	0	POLYESTER	1100	n/a	n/a	0	n/a	0	0	0	n/a	n/a	n/a	n/a	n/a
2076630	REC_WORD	wordpools/wasnorm_wordpool.txt	LTP090	ltpFR	12	10	0	NAPKIN	937	n/a	n/a	0	n/a	0	0	0	n/a	n/a	n/a	n/a	n/a
2078825	REC_WORD	wordpools/wasnorm_wordpool.txt	LTP090	ltpFR	12	10	0	RAG	1160	n/a	n/a	0	n/a	0	0	0	n/a	n/a	n/a	n/a	n/a
2081355	REC_WORD	wordpools/wasnorm_wordpool.txt	LTP090	ltpFR	12	10	0	BRIDGE	174	n/a	n/a	1	n/a	0	0	0	n/a	n/a	n/a	n/a	n/a
2084468	REC_WORD	wordpools/wasnorm_wordpool.txt	LTP090	ltpFR	12	10	0	CANAL	226	n/a	n/a	1	n/a	0	0	0	n/a	n/a	n/a	n/a	n/a
2086693	REC_WORD	wordpools/wasnorm_wordpool.txt	LTP090	ltpFR	12	10	0	CARAVAN	242	n/a	n/a	1	n/a	0	0	0	n/a	n/a	n/a	n/a	n/a
2088583	REC_WORD	wordpools/wasnorm_wordpool.txt	LTP090	ltpFR	12	10	0	UNIVERSITY	1541	n/a	n/a	1	n/a	0	0	0	n/a	n/a	n/a	n/a	n/a
2120845	REC_WORD	wordpools/wasnorm_wordpool.txt	LTP090	ltpFR	12	10	0	VEAL	1551	n/a	n/a	0	n/a	0	0	0	n/a	n/a	n/a	n/a	n/a
2135854	REST_REWET	n/a	LTP090	ltpFR	12	10	n/a	n/a	n/a	n/a	n/a	n/a	n/a	0	0	0	n/a	n/a	n/a	n/a	n/a
2527508	START	n/a	LTP090	ltpFR	12	n/a	n/a	n/a	n/a	n/a	n/a	n/a	n/a	n/a	n/a	n/a	n/a	n/a	n/a	n/a	n/a
2529015	PROB	n/a	LTP090	ltpFR	12	n/a	n/a	n/a	n/a	n/a	n/a	n/a	8	3	3	2	n/a	n/a	n/a	n/a	n/a
2530766	PROB	n/a	LTP090	ltpFR	12	n/a	n/a	n/a	n/a	n/a	n/a	n/a	12	7	4	1	n/a	n/a	n/a	n/a	n/a
2532316	PROB	n/a	LTP090	ltpFR	12	n/a	n/a	n/a	n/a	n/a	n/a	n/a	13	7	3	3	n/a	n/a	n/a	n/a	n/a
2533948	PROB	n/a	LTP090	ltpFR	12	n/a	n/a	n/a	n/a	n/a	n/a	n/a	17	9	4	4	n/a	n/a	n/a	n/a	n/a
2535881	PROB	n/a	LTP090	ltpFR	12	n/a	n/a	n/a	n/a	n/a	n/a	n/a	12	2	7	3	n/a	n/a	n/a	n/a	n/a
2537207	PROB	n/a	LTP090	ltpFR	12	n/a	n/a	n/a	n/a	n/a	n/a	n/a	15	3	2	9	n/a	n/a	n/a	n/a	n/a
2539039	PROB	n/a	LTP090	ltpFR	12	n/a	n/a	n/a	n/a	n/a	n/a	n/a	13	7	4	2	n/a	n/a	n/a	n/a	n/a
2540889	PROB	n/a	LTP090	ltpFR	12	n/a	n/a	n/a	n/a	n/a	n/a	n/a	14	8	3	3	n/a	n/a	n/a	n/a	n/a
2543222	STOP	n/a	LTP090	ltpFR	12	n/a	n/a	n/a	n/a	n/a	n/a	n/a	n/a	n/a	n/a	n/a	n/a	n/a	n/a	n/a	n/a
2544698	WORD	wordpools/wasnorm_wordpool.txt	LTP090	ltpFR	12	11	0	HUT	729	n/a	n/a	1	n/a	0	0	0	0.422607421875	0.5869140625	0	upper	amplitud.ttf
2547707	START	n/a	LTP090	ltpFR	12	n/a	n/a	n/a	n/a	n/a	n/a	n/a	n/a	n/a	n/a	n/a	n/a	n/a	n/a	n/a	n/a
2548905	PROB	n/a	LTP090	ltpFR	12	n/a	n/a	n/a	n/a	n/a	n/a	n/a	12	5	2	5	n/a	n/a	n/a	n/a	n/a
2550206	PROB	n/a	LTP090	ltpFR	12	n/a	n/a	n/a	n/a	n/a	n/a	n/a	16	9	4	3	n/a	n/a	n/a	n/a	n/a
2552164	PROB	n/a	LTP090	ltpFR	12	n/a	n/a	n/a	n/a	n/a	n/a	n/a	13	4	6	3	n/a	n/a	n/a	n/a	n/a
2553706	PROB	n/a	LTP090	ltpFR	12	n/a	n/a	n/a	n/a	n/a	n/a	n/a	7	5	1	1	n/a	n/a	n/a	n/a	n/a
2555880	PROB	n/a	LTP090	ltpFR	12	n/a	n/a	n/a	n/a	n/a	n/a	n/a	10	1	5	4	n/a	n/a	n/a	n/a	n/a
2557389	PROB	n/a	LTP090	ltpFR	12	n/a	n/a	n/a	n/a	n/a	n/a	n/a	12	3	3	5	n/a	n/a	n/a	n/a	n/a
2563707	STOP	n/a	LTP090	ltpFR	12	n/a	n/a	n/a	n/a	n/a	n/a	n/a	n/a	n/a	n/a	n/a	n/a	n/a	n/a	n/a	n/a
2564829	WORD	wordpools/wasnorm_wordpool.txt	LTP090	ltpFR	12	11	0	COIN	343	n/a	n/a	0	n/a	0	0	0	0.422607421875	0.5869140625	0	upper	amplitud.ttf
2567838	START	n/a	LTP090	ltpFR	12	n/a	n/a	n/a	n/a	n/a	n/a	n/a	n/a	n/a	n/a	n/a	n/a	n/a	n/a	n/a	n/a
2568804	PROB	n/a	LTP090	ltpFR	12	n/a	n/a	n/a	n/a	n/a	n/a	n/a	17	8	1	8	n/a	n/a	n/a	n/a	n/a
2570221	PROB	n/a	LTP090	ltpFR	12	n/a	n/a	n/a	n/a	n/a	n/a	n/a	15	9	5	1	n/a	n/a	n/a	n/a	n/a
2572053	PROB	n/a	LTP090	ltpFR	12	n/a	n/a	n/a	n/a	n/a	n/a	n/a	18	3	7	8	n/a	n/a	n/a	n/a	n/a
2573379	PROB	n/a	LTP090	ltpFR	12	n/a	n/a	n/a	n/a	n/a	n/a	n/a	23	9	8	7	n/a	n/a	n/a	n/a	n/a
2577637	PROB	n/a	LTP090	ltpFR	12	n/a	n/a	n/a	n/a	n/a	n/a	n/a	16	8	6	2	n/a	n/a	n/a	n/a	n/a
2579321	PROB	n/a	LTP090	ltpFR	12	n/a	n/a	n/a	n/a	n/a	n/a	n/a	15	7	3	5	n/a	n/a	n/a	n/a	n/a
2580571	PROB	n/a	LTP090	ltpFR	12	n/a	n/a	n/a	n/a	n/a	n/a	n/a	10	1	5	4	n/a	n/a	n/a	n/a	n/a
2583838	STOP	n/a	LTP090	ltpFR	12	n/a	n/a	n/a	n/a	n/a	n/a	n/a	n/a	n/a	n/a	n/a	n/a	n/a	n/a	n/a	n/a
2584869	WORD	wordpools/wasnorm_wordpool.txt	LTP090	ltpFR	12	11	0	STAPLE	1371	n/a	n/a	0	n/a	0	0	0	0.422607421875	0.5869140625	0	upper	amplitud.ttf
2587878	START	n/a	LTP090	ltpFR	12	n/a	n/a	n/a	n/a	n/a	n/a	n/a	n/a	n/a	n/a	n/a	n/a	n/a	n/a	n/a	n/a
2589027	PROB	n/a	LTP090	ltpFR	12	n/a	n/a	n/a	n/a	n/a	n/a	n/a	13	8	2	3	n/a	n/a	n/a	n/a	n/a
2590802	PROB	n/a	LTP090	ltpFR	12	n/a	n/a	n/a	n/a	n/a	n/a	n/a	21	4	8	9	n/a	n/a	n/a	n/a	n/a
2592761	PROB	n/a	LTP090	ltpFR	12	n/a	n/a	n/a	n/a	n/a	n/a	n/a	14	6	5	3	n/a	n/a	n/a	n/a	n/a
2595052	PROB	n/a	LTP090	ltpFR	12	n/a	n/a	n/a	n/a	n/a	n/a	n/a	1	2	7	8	n/a	n/a	n/a	n/a	n/a
2596818	PROB	n/a	LTP090	ltpFR	12	n/a	n/a	n/a	n/a	n/a	n/a	n/a	17	3	7	7	n/a	n/a	n/a	n/a	n/a
2598552	PROB	n/a	LTP090	ltpFR	12	n/a	n/a	n/a	n/a	n/a	n/a	n/a	13	7	1	5	n/a	n/a	n/a	n/a	n/a
2600269	PROB	n/a	LTP090	ltpFR	12	n/a	n/a	n/a	n/a	n/a	n/a	n/a	8	3	1	4	n/a	n/a	n/a	n/a	n/a
2601677	PROB	n/a	LTP090	ltpFR	12	n/a	n/a	n/a	n/a	n/a	n/a	n/a	11	3	4	4	n/a	n/a	n/a	n/a	n/a
2603718	STOP	n/a	LTP090	ltpFR	12	n/a	n/a	n/a	n/a	n/a	n/a	n/a	n/a	n/a	n/a	n/a	n/a	n/a	n/a	n/a	n/a
2605018	WORD	wordpools/wasnorm_wordpool.txt	LTP090	ltpFR	12	11	0	ELECTRICIAN	521	n/a	n/a	1	n/a	0	0	0	0.422607421875	0.5869140625	0	upper	amplitud.ttf
2608026	START	n/a	LTP090	ltpFR	12	n/a	n/a	n/a	n/a	n/a	n/a	n/a	n/a	n/a	n/a	n/a	n/a	n/a	n/a	n/a	n/a
2608984	PROB	n/a	LTP090	ltpFR	12	n/a	n/a	n/a	n/a	n/a	n/a	n/a	21	8	7	6	n/a	n/a	n/a	n/a	n/a
2612075	PROB	n/a	LTP090	ltpFR	12	n/a	n/a	n/a	n/a	n/a	n/a	n/a	13	9	1	3	n/a	n/a	n/a	n/a	n/a
2613551	PROB	n/a	LTP090	ltpFR	12	n/a	n/a	n/a	n/a	n/a	n/a	n/a	7	1	3	3	n/a	n/a	n/a	n/a	n/a
2614809	PROB	n/a	LTP090	ltpFR	12	n/a	n/a	n/a	n/a	n/a	n/a	n/a	18	9	2	7	n/a	n/a	n/a	n/a	n/a
2618334	PROB	n/a	LTP090	ltpFR	12	n/a	n/a	n/a	n/a	n/a	n/a	n/a	26	9	9	8	n/a	n/a	n/a	n/a	n/a
2620426	PROB	n/a	LTP090	ltpFR	12	n/a	n/a	n/a	n/a	n/a	n/a	n/a	9	4	1	4	n/a	n/a	n/a	n/a	n/a
2624026	STOP	n/a	LTP090	ltpFR	12	n/a	n/a	n/a	n/a	n/a	n/a	n/a	n/a	n/a	n/a	n/a	n/a	n/a	n/a	n/a	n/a
2625175	WORD	wordpools/wasnorm_wordpool.txt	LTP090	ltpFR	12	11	0	STALLION	1369	n/a	n/a	1	n/a	0	0	0	0.422607421875	0.5869140625	0	upper	amplitud.ttf
2628176	START	n/a	LTP090	ltpFR	12	n/a	n/a	n/a	n/a	n/a	n/a	n/a	n/a	n/a	n/a	n/a	n/a	n/a	n/a	n/a	n/a
2629125	PROB	n/a	LTP090	ltpFR	12	n/a	n/a	n/a	n/a	n/a	n/a	n/a	16	3	9	4	n/a	n/a	n/a	n/a	n/a
2632333	PROB	n/a	LTP090	ltpFR	12	n/a	n/a	n/a	n/a	n/a	n/a	n/a	21	9	8	4	n/a	n/a	n/a	n/a	n/a
2634766	PROB	n/a	LTP090	ltpFR	12	n/a	n/a	n/a	n/a	n/a	n/a	n/a	14	5	1	8	n/a	n/a	n/a	n/a	n/a
2637341	PROB	n/a	LTP090	ltpFR	12	n/a	n/a	n/a	n/a	n/a	n/a	n/a	15	6	2	7	n/a	n/a	n/a	n/a	n/a
2642694	STOP	n/a	LTP090	ltpFR	12	n/a	n/a	n/a	n/a	n/a	n/a	n/a	n/a	n/a	n/a	n/a	n/a	n/a	n/a	n/a	n/a
2645141	WORD	wordpools/wasnorm_wordpool.txt	LTP090	ltpFR	12	11	1	UNICORN	1538	n/a	n/a	1	n/a	0	0	0	0.57763671875	0.412841796875	1	lower	zerothre.ttf
2648149	START	n/a	LTP090	ltpFR	12	n/a	n/a	n/a	n/a	n/a	n/a	n/a	n/a	n/a	n/a	n/a	n/a	n/a	n/a	n/a	n/a
2649081	PROB	n/a	LTP090	ltpFR	12	n/a	n/a	n/a	n/a	n/a	n/a	n/a	9	6	1	2	n/a	n/a	n/a	n/a	n/a
2650557	PROB	n/a	LTP090	ltpFR	12	n/a	n/a	n/a	n/a	n/a	n/a	n/a	21	6	7	8	n/a	n/a	n/a	n/a	n/a
2653690	PROB	n/a	LTP090	ltpFR	12	n/a	n/a	n/a	n/a	n/a	n/a	n/a	12	1	5	6	n/a	n/a	n/a	n/a	n/a
2655030	PROB	n/a	LTP090	ltpFR	12	n/a	n/a	n/a	n/a	n/a	n/a	n/a	14	2	3	9	n/a	n/a	n/a	n/a	n/a
2657573	PROB	n/a	LTP090	ltpFR	12	n/a	n/a	n/a	n/a	n/a	n/a	n/a	11	2	1	8	n/a	n/a	n/a	n/a	n/a
2659423	PROB	n/a	LTP090	ltpFR	12	n/a	n/a	n/a	n/a	n/a	n/a	n/a	18	6	5	7	n/a	n/a	n/a	n/a	n/a
2662389	PROB	n/a	LTP090	ltpFR	12	n/a	n/a	n/a	n/a	n/a	n/a	n/a	14	1	9	4	n/a	n/a	n/a	n/a	n/a
2663837	STOP	n/a	LTP090	ltpFR	12	n/a	n/a	n/a	n/a	n/a	n/a	n/a	n/a	n/a	n/a	n/a	n/a	n/a	n/a	n/a	n/a
2665231	WORD	wordpools/wasnorm_wordpool.txt	LTP090	ltpFR	12	11	1	SECRETARY	1265	n/a	n/a	1	n/a	0	0	0	0.57763671875	0.412841796875	1	lower	zerothre.ttf
2668239	START	n/a	LTP090	ltpFR	12	n/a	n/a	n/a	n/a	n/a	n/a	n/a	n/a	n/a	n/a	n/a	n/a	n/a	n/a	n/a	n/a
2669372	PROB	n/a	LTP090	ltpFR	12	n/a	n/a	n/a	n/a	n/a	n/a	n/a	20	9	6	5	n/a	n/a	n/a	n/a	n/a
2673630	PROB	n/a	LTP090	ltpFR	12	n/a	n/a	n/a	n/a	n/a	n/a	n/a	19	9	1	9	n/a	n/a	n/a	n/a	n/a
2677029	PROB	n/a	LTP090	ltpFR	12	n/a	n/a	n/a	n/a	n/a	n/a	n/a	7	1	1	5	n/a	n/a	n/a	n/a	n/a
2678421	PROB	n/a	LTP090	ltpFR	12	n/a	n/a	n/a	n/a	n/a	n/a	n/a	16	4	6	6	n/a	n/a	n/a	n/a	n/a
2680588	PROB	n/a	LTP090	ltpFR	12	n/a	n/a	n/a	n/a	n/a	n/a	n/a	16	8	2	6	n/a	n/a	n/a	n/a	n/a
2681820	PROB	n/a	LTP090	ltpFR	12	n/a	n/a	n/a	n/a	n/a	n/a	n/a	14	7	5	2	n/a	n/a	n/a	n/a	n/a
2684222	STOP	n/a	LTP090	ltpFR	12	n/a	n/a	n/a	n/a	n/a	n/a	n/a	n/a	n/a	n/a	n/a	n/a	n/a	n/a	n/a	n/a
2685162	WORD	wordpools/wasnorm_wordpool.txt	LTP090	ltpFR	12	11	0	SUPERVISOR	1410	n/a	n/a	1	n/a	0	0	0	0.422607421875	0.5869140625	0	upper	amplitud.ttf
2688171	START	n/a	LTP090	ltpFR	12	n/a	n/a	n/a	n/a	n/a	n/a	n/a	n/a	n/a	n/a	n/a	n/a	n/a	n/a	n/a	n/a
2689111	PROB	n/a	LTP090	ltpFR	12	n/a	n/a	n/a	n/a	n/a	n/a	n/a	15	4	8	3	n/a	n/a	n/a	n/a	n/a
2692495	PROB	n/a	LTP090	ltpFR	12	n/a	n/a	n/a	n/a	n/a	n/a	n/a	5	1	1	3	n/a	n/a	n/a	n/a	n/a
2693762	PROB	n/a	LTP090	ltpFR	12	n/a	n/a	n/a	n/a	n/a	n/a	n/a	19	6	8	5	n/a	n/a	n/a	n/a	n/a
2695553	PROB	n/a	LTP090	ltpFR	12	n/a	n/a	n/a	n/a	n/a	n/a	n/a	11	2	8	1	n/a	n/a	n/a	n/a	n/a
2696861	PROB	n/a	LTP090	ltpFR	12	n/a	n/a	n/a	n/a	n/a	n/a	n/a	14	6	7	1	n/a	n/a	n/a	n/a	n/a
2698345	PROB	n/a	LTP090	ltpFR	12	n/a	n/a	n/a	n/a	n/a	n/a	n/a	18	2	8	8	n/a	n/a	n/a	n/a	n/a
2699695	PROB	n/a	LTP090	ltpFR	12	n/a	n/a	n/a	n/a	n/a	n/a	n/a	10	5	3	2	n/a	n/a	n/a	n/a	n/a
2701069	PROB	n/a	LTP090	ltpFR	12	n/a	n/a	n/a	n/a	n/a	n/a	n/a	16	6	7	3	n/a	n/a	n/a	n/a	n/a
2704171	STOP	n/a	LTP090	ltpFR	12	n/a	n/a	n/a	n/a	n/a	n/a	n/a	n/a	n/a	n/a	n/a	n/a	n/a	n/a	n/a	n/a
2705269	WORD	wordpools/wasnorm_wordpool.txt	LTP090	ltpFR	12	11	0	COURSE	390	n/a	n/a	1	n/a	0	0	0	0.422607421875	0.5869140625	0	upper	amplitud.ttf
2708278	START	n/a	LTP090	ltpFR	12	n/a	n/a	n/a	n/a	n/a	n/a	n/a	n/a	n/a	n/a	n/a	n/a	n/a	n/a	n/a	n/a
2709394	PROB	n/a	LTP090	ltpFR	12	n/a	n/a	n/a	n/a	n/a	n/a	n/a	18	4	7	7	n/a	n/a	n/a	n/a	n/a
2711702	PROB	n/a	LTP090	ltpFR	12	n/a	n/a	n/a	n/a	n/a	n/a	n/a	13	5	4	4	n/a	n/a	n/a	n/a	n/a
2714293	PROB	n/a	LTP090	ltpFR	12	n/a	n/a	n/a	n/a	n/a	n/a	n/a	13	5	2	5	n/a	n/a	n/a	n/a	n/a
2716660	PROB	n/a	LTP090	ltpFR	12	n/a	n/a	n/a	n/a	n/a	n/a	n/a	13	5	1	7	n/a	n/a	n/a	n/a	n/a
2720485	PROB	n/a	LTP090	ltpFR	12	n/a	n/a	n/a	n/a	n/a	n/a	n/a	13	1	4	8	n/a	n/a	n/a	n/a	n/a
2724278	STOP	n/a	LTP090	ltpFR	12	n/a	n/a	n/a	n/a	n/a	n/a	n/a	n/a	n/a	n/a	n/a	n/a	n/a	n/a	n/a	n/a
2725326	WORD	wordpools/wasnorm_wordpool.txt	LTP090	ltpFR	12	11	0	CUSTARD	429	n/a	n/a	0	n/a	0	0	0	0.422607421875	0.5869140625	0	upper	amplitud.ttf
2728335	START	n/a	LTP090	ltpFR	12	n/a	n/a	n/a	n/a	n/a	n/a	n/a	n/a	n/a	n/a	n/a	n/a	n/a	n/a	n/a	n/a
2729534	PROB	n/a	LTP090	ltpFR	12	n/a	n/a	n/a	n/a	n/a	n/a	n/a	21	9	9	3	n/a	n/a	n/a	n/a	n/a
2731534	PROB	n/a	LTP090	ltpFR	12	n/a	n/a	n/a	n/a	n/a	n/a	n/a	15	8	6	1	n/a	n/a	n/a	n/a	n/a
2733300	PROB	n/a	LTP090	ltpFR	12	n/a	n/a	n/a	n/a	n/a	n/a	n/a	11	1	5	5	n/a	n/a	n/a	n/a	n/a
2734484	PROB	n/a	LTP090	ltpFR	12	n/a	n/a	n/a	n/a	n/a	n/a	n/a	14	9	3	2	n/a	n/a	n/a	n/a	n/a
2737558	PROB	n/a	LTP090	ltpFR	12	n/a	n/a	n/a	n/a	n/a	n/a	n/a	17	5	8	4	n/a	n/a	n/a	n/a	n/a
2739807	PROB	n/a	LTP090	ltpFR	12	n/a	n/a	n/a	n/a	n/a	n/a	n/a	21	9	8	4	n/a	n/a	n/a	n/a	n/a
2742141	PROB	n/a	LTP090	ltpFR	12	n/a	n/a	n/a	n/a	n/a	n/a	n/a	16	7	8	1	n/a	n/a	n/a	n/a	n/a
2743702	STOP	n/a	LTP090	ltpFR	12	n/a	n/a	n/a	n/a	n/a	n/a	n/a	n/a	n/a	n/a	n/a	n/a	n/a	n/a	n/a	n/a
2745474	WORD	wordpools/wasnorm_wordpool.txt	LTP090	ltpFR	12	11	1	PASTRY	1022	n/a	n/a	0	n/a	0	0	0	0.57763671875	0.412841796875	1	lower	zerothre.ttf
2748475	START	n/a	LTP090	ltpFR	12	n/a	n/a	n/a	n/a	n/a	n/a	n/a	n/a	n/a	n/a	n/a	n/a	n/a	n/a	n/a	n/a
2749641	PROB	n/a	LTP090	ltpFR	12	n/a	n/a	n/a	n/a	n/a	n/a	n/a	21	4	9	8	n/a	n/a	n/a	n/a	n/a
2751391	PROB	n/a	LTP090	ltpFR	12	n/a	n/a	n/a	n/a	n/a	n/a	n/a	18	4	7	7	n/a	n/a	n/a	n/a	n/a
2753557	PROB	n/a	LTP090	ltpFR	12	n/a	n/a	n/a	n/a	n/a	n/a	n/a	20	8	5	7	n/a	n/a	n/a	n/a	n/a
2755390	PROB	n/a	LTP090	ltpFR	12	n/a	n/a	n/a	n/a	n/a	n/a	n/a	15	2	6	7	n/a	n/a	n/a	n/a	n/a
2757482	PROB	n/a	LTP090	ltpFR	12	n/a	n/a	n/a	n/a	n/a	n/a	n/a	15	4	8	3	n/a	n/a	n/a	n/a	n/a
2759323	PROB	n/a	LTP090	ltpFR	12	n/a	n/a	n/a	n/a	n/a	n/a	n/a	17	7	7	3	n/a	n/a	n/a	n/a	n/a
2761864	PROB	n/a	LTP090	ltpFR	12	n/a	n/a	n/a	n/a	n/a	n/a	n/a	16	7	1	8	n/a	n/a	n/a	n/a	n/a
2763263	STOP	n/a	LTP090	ltpFR	12	n/a	n/a	n/a	n/a	n/a	n/a	n/a	n/a	n/a	n/a	n/a	n/a	n/a	n/a	n/a	n/a
2765673	WORD	wordpools/wasnorm_wordpool.txt	LTP090	ltpFR	12	11	1	VILLAGE	1566	n/a	n/a	1	n/a	0	0	0	0.57763671875	0.412841796875	1	lower	zerothre.ttf
2768681	START	n/a	LTP090	ltpFR	12	n/a	n/a	n/a	n/a	n/a	n/a	n/a	n/a	n/a	n/a	n/a	n/a	n/a	n/a	n/a	n/a
2769714	PROB	n/a	LTP090	ltpFR	12	n/a	n/a	n/a	n/a	n/a	n/a	n/a	20	4	7	9	n/a	n/a	n/a	n/a	n/a
2773622	PROB	n/a	LTP090	ltpFR	12	n/a	n/a	n/a	n/a	n/a	n/a	n/a	6	2	2	2	n/a	n/a	n/a	n/a	n/a
2774888	PROB	n/a	LTP090	ltpFR	12	n/a	n/a	n/a	n/a	n/a	n/a	n/a	19	5	9	5	n/a	n/a	n/a	n/a	n/a
2776913	PROB	n/a	LTP090	ltpFR	12	n/a	n/a	n/a	n/a	n/a	n/a	n/a	21	5	8	8	n/a	n/a	n/a	n/a	n/a
2778879	PROB	n/a	LTP090	ltpFR	12	n/a	n/a	n/a	n/a	n/a	n/a	n/a	21	9	5	7	n/a	n/a	n/a	n/a	n/a
2782263	PROB	n/a	LTP090	ltpFR	12	n/a	n/a	n/a	n/a	n/a	n/a	n/a	10	6	2	2	n/a	n/a	n/a	n/a	n/a
2783550	STOP	n/a	LTP090	ltpFR	12	n/a	n/a	n/a	n/a	n/a	n/a	n/a	n/a	n/a	n/a	n/a	n/a	n/a	n/a	n/a	n/a
2785605	WORD	wordpools/wasnorm_wordpool.txt	LTP090	ltpFR	12	11	1	STAPLER	1372	n/a	n/a	0	n/a	0	0	0	0.57763671875	0.412841796875	1	lower	zerothre.ttf
2788613	START	n/a	LTP090	ltpFR	12	n/a	n/a	n/a	n/a	n/a	n/a	n/a	n/a	n/a	n/a	n/a	n/a	n/a	n/a	n/a	n/a
2789613	PROB	n/a	LTP090	ltpFR	12	n/a	n/a	n/a	n/a	n/a	n/a	n/a	12	1	5	6	n/a	n/a	n/a	n/a	n/a
2791820	PROB	n/a	LTP090	ltpFR	12	n/a	n/a	n/a	n/a	n/a	n/a	n/a	10	2	7	1	n/a	n/a	n/a	n/a	n/a
2793271	PROB	n/a	LTP090	ltpFR	12	n/a	n/a	n/a	n/a	n/a	n/a	n/a	14	2	8	4	n/a	n/a	n/a	n/a	n/a
2794886	PROB	n/a	LTP090	ltpFR	12	n/a	n/a	n/a	n/a	n/a	n/a	n/a	20	6	6	8	n/a	n/a	n/a	n/a	n/a
2796828	PROB	n/a	LTP090	ltpFR	12	n/a	n/a	n/a	n/a	n/a	n/a	n/a	15	2	7	6	n/a	n/a	n/a	n/a	n/a
2798878	PROB	n/a	LTP090	ltpFR	12	n/a	n/a	n/a	n/a	n/a	n/a	n/a	11	1	2	8	n/a	n/a	n/a	n/a	n/a
2801170	PROB	n/a	LTP090	ltpFR	12	n/a	n/a	n/a	n/a	n/a	n/a	n/a	19	9	9	1	n/a	n/a	n/a	n/a	n/a
2802545	PROB	n/a	LTP090	ltpFR	12	n/a	n/a	n/a	n/a	n/a	n/a	n/a	16	5	7	4	n/a	n/a	n/a	n/a	n/a
2804438	STOP	n/a	LTP090	ltpFR	12	n/a	n/a	n/a	n/a	n/a	n/a	n/a	n/a	n/a	n/a	n/a	n/a	n/a	n/a	n/a	n/a
2805495	WORD	wordpools/wasnorm_wordpool.txt	LTP090	ltpFR	12	11	1	FIST	572	n/a	n/a	0	n/a	0	0	0	0.57763671875	0.412841796875	1	lower	zerothre.ttf
2808503	START	n/a	LTP090	ltpFR	12	n/a	n/a	n/a	n/a	n/a	n/a	n/a	n/a	n/a	n/a	n/a	n/a	n/a	n/a	n/a	n/a
2809469	PROB	n/a	LTP090	ltpFR	12	n/a	n/a	n/a	n/a	n/a	n/a	n/a	18	9	3	6	n/a	n/a	n/a	n/a	n/a
2812261	PROB	n/a	LTP090	ltpFR	12	n/a	n/a	n/a	n/a	n/a	n/a	n/a	19	7	5	6	n/a	n/a	n/a	n/a	n/a
2814452	PROB	n/a	LTP090	ltpFR	12	n/a	n/a	n/a	n/a	n/a	n/a	n/a	8	3	1	4	n/a	n/a	n/a	n/a	n/a
2815993	PROB	n/a	LTP090	ltpFR	12	n/a	n/a	n/a	n/a	n/a	n/a	n/a	26	9	7	8	n/a	n/a	n/a	n/a	n/a
2819876	PROB	n/a	LTP090	ltpFR	12	n/a	n/a	n/a	n/a	n/a	n/a	n/a	20	3	9	8	n/a	n/a	n/a	n/a	n/a
2823558	STOP	n/a	LTP090	ltpFR	12	n/a	n/a	n/a	n/a	n/a	n/a	n/a	n/a	n/a	n/a	n/a	n/a	n/a	n/a	n/a	n/a
2825452	WORD	wordpools/wasnorm_wordpool.txt	LTP090	ltpFR	12	11	1	ARTERY	41	n/a	n/a	0	n/a	0	0	0	0.57763671875	0.412841796875	1	lower	zerothre.ttf
2828460	START	n/a	LTP090	ltpFR	12	n/a	n/a	n/a	n/a	n/a	n/a	n/a	n/a	n/a	n/a	n/a	n/a	n/a	n/a	n/a	n/a
2829601	PROB	n/a	LTP090	ltpFR	12	n/a	n/a	n/a	n/a	n/a	n/a	n/a	19	7	5	6	n/a	n/a	n/a	n/a	n/a
2831409	PROB	n/a	LTP090	ltpFR	12	n/a	n/a	n/a	n/a	n/a	n/a	n/a	16	6	6	4	n/a	n/a	n/a	n/a	n/a
2834693	PROB	n/a	LTP090	ltpFR	12	n/a	n/a	n/a	n/a	n/a	n/a	n/a	16	5	6	5	n/a	n/a	n/a	n/a	n/a
2836151	PROB	n/a	LTP090	ltpFR	12	n/a	n/a	n/a	n/a	n/a	n/a	n/a	14	5	6	3	n/a	n/a	n/a	n/a	n/a
2838417	PROB	n/a	LTP090	ltpFR	12	n/a	n/a	n/a	n/a	n/a	n/a	n/a	9	7	1	1	n/a	n/a	n/a	n/a	n/a
2840008	PROB	n/a	LTP090	ltpFR	12	n/a	n/a	n/a	n/a	n/a	n/a	n/a	13	9	9	5	n/a	n/a	n/a	n/a	n/a
2844460	STOP	n/a	LTP090	ltpFR	12	n/a	n/a	n/a	n/a	n/a	n/a	n/a	n/a	n/a	n/a	n/a	n/a	n/a	n/a	n/a	n/a
2845317	WORD	wordpools/wasnorm_wordpool.txt	LTP090	ltpFR	12	11	1	TREASURE	1500	n/a	n/a	0	n/a	0	0	0	0.57763671875	0.412841796875	1	lower	zerothre.ttf
2848325	START	n/a	LTP090	ltpFR	12	n/a	n/a	n/a	n/a	n/a	n/a	n/a	n/a	n/a	n/a	n/a	n/a	n/a	n/a	n/a	n/a
2849491	PROB	n/a	LTP090	ltpFR	12	n/a	n/a	n/a	n/a	n/a	n/a	n/a	19	4	7	8	n/a	n/a	n/a	n/a	n/a
2852815	PROB	n/a	LTP090	ltpFR	12	n/a	n/a	n/a	n/a	n/a	n/a	n/a	17	3	8	6	n/a	n/a	n/a	n/a	n/a
2855048	PROB	n/a	LTP090	ltpFR	12	n/a	n/a	n/a	n/a	n/a	n/a	n/a	12	3	6	3	n/a	n/a	n/a	n/a	n/a
2858316	PROB	n/a	LTP090	ltpFR	12	n/a	n/a	n/a	n/a	n/a	n/a	n/a	19	9	5	5	n/a	n/a	n/a	n/a	n/a
2859741	PROB	n/a	LTP090	ltpFR	12	n/a	n/a	n/a	n/a	n/a	n/a	n/a	16	6	5	5	n/a	n/a	n/a	n/a	n/a
2861023	PROB	n/a	LTP090	ltpFR	12	n/a	n/a	n/a	n/a	n/a	n/a	n/a	11	6	3	2	n/a	n/a	n/a	n/a	n/a
2863286	STOP	n/a	LTP090	ltpFR	12	n/a	n/a	n/a	n/a	n/a	n/a	n/a	n/a	n/a	n/a	n/a	n/a	n/a	n/a	n/a	n/a
2866199	REC_START	n/a	LTP090	ltpFR	12	11	n/a	n/a	n/a	n/a	n/a	n/a	n/a	0	0	0	n/a	n/a	n/a	n/a	n/a
2868234	REC_WORD	wordpools/wasnorm_wordpool.txt	LTP090	ltpFR	12	11	1	TREASURE	1500	n/a	n/a	0	n/a	0	0	0	n/a	n/a	n/a	n/a	n/a
2869761	REC_WORD	wordpools/wasnorm_wordpool.txt	LTP090	ltpFR	12	11	1	ARTERY	41	n/a	n/a	0	n/a	0	0	0	n/a	n/a	n/a	n/a	n/a
2871033	REC_WORD	wordpools/wasnorm_wordpool.txt	LTP090	ltpFR	12	11	1	FIST	572	n/a	n/a	0	n/a	0	0	0	n/a	n/a	n/a	n/a	n/a
2872033	REC_WORD_VV	wordpools/wasnorm_wordpool.txt	LTP090	ltpFR	12	11	n/a	<>	-1	n/a	n/a	n/a	n/a	0	0	0	n/a	n/a	n/a	n/a	n/a
2876050	REC_WORD_VV	wordpools/wasnorm_wordpool.txt	LTP090	ltpFR	12	11	n/a	<>	-1	n/a	n/a	n/a	n/a	0	0	0	n/a	n/a	n/a	n/a	n/a
2877050	REC_WORD_VV	wordpools/wasnorm_wordpool.txt	LTP090	ltpFR	12	11	n/a	<>	-1	n/a	n/a	n/a	n/a	0	0	0	n/a	n/a	n/a	n/a	n/a
2878050	REC_WORD_VV	wordpools/wasnorm_wordpool.txt	LTP090	ltpFR	12	11	n/a	<>	-1	n/a	n/a	n/a	n/a	0	0	0	n/a	n/a	n/a	n/a	n/a
2888284	REC_WORD	wordpools/wasnorm_wordpool.txt	LTP090	ltpFR	12	11	0	HUT	729	n/a	n/a	1	n/a	0	0	0	n/a	n/a	n/a	n/a	n/a
2889131	REC_WORD	wordpools/wasnorm_wordpool.txt	LTP090	ltpFR	12	11	1	VILLAGE	1566	n/a	n/a	1	n/a	0	0	0	n/a	n/a	n/a	n/a	n/a
2891227	REC_WORD	wordpools/wasnorm_wordpool.txt	LTP090	ltpFR	12	11	0	ELECTRICIAN	521	n/a	n/a	1	n/a	0	0	0	n/a	n/a	n/a	n/a	n/a
2892778	REC_WORD	wordpools/wasnorm_wordpool.txt	LTP090	ltpFR	12	11	0	STAPLE	1371	n/a	n/a	0	n/a	0	0	0	n/a	n/a	n/a	n/a	n/a
2894813	REC_WORD	wordpools/wasnorm_wordpool.txt	LTP090	ltpFR	12	11	1	STAPLER	1372	n/a	n/a	0	n/a	0	0	0	n/a	n/a	n/a	n/a	n/a
2898206	REC_WORD	wordpools/wasnorm_wordpool.txt	LTP090	ltpFR	12	11	0	COIN	343	n/a	n/a	0	n/a	0	0	0	n/a	n/a	n/a	n/a	n/a
2908507	REC_WORD	wordpools/wasnorm_wordpool.txt	LTP090	ltpFR	12	11	0	STALLION	1369	n/a	n/a	1	n/a	0	0	0	n/a	n/a	n/a	n/a	n/a
2911356	REC_WORD	wordpools/wasnorm_wordpool.txt	LTP090	ltpFR	12	11	1	UNICORN	1538	n/a	n/a	1	n/a	0	0	0	n/a	n/a	n/a	n/a	n/a
2947426	START	n/a	LTP090	ltpFR	12	n/a	n/a	n/a	n/a	n/a	n/a	n/a	n/a	n/a	n/a	n/a	n/a	n/a	n/a	n/a	n/a
2948933	PROB	n/a	LTP090	ltpFR	12	n/a	n/a	n/a	n/a	n/a	n/a	n/a	20	9	3	8	n/a	n/a	n/a	n/a	n/a
2951957	PROB	n/a	LTP090	ltpFR	12	n/a	n/a	n/a	n/a	n/a	n/a	n/a	11	5	5	1	n/a	n/a	n/a	n/a	n/a
2953225	PROB	n/a	LTP090	ltpFR	12	n/a	n/a	n/a	n/a	n/a	n/a	n/a	18	4	8	6	n/a	n/a	n/a	n/a	n/a
2954805	STOP	n/a	LTP090	ltpFR	12	n/a	n/a	n/a	n/a	n/a	n/a	n/a	n/a	n/a	n/a	n/a	n/a	n/a	n/a	n/a	n/a
2956475	WORD	wordpools/wasnorm_wordpool.txt	LTP090	ltpFR	12	12	0	ROOM	1206	n/a	n/a	1	n/a	0	0	0	0.422607421875	0.5869140625	0	upper	amplitud.ttf
2959483	START	n/a	LTP090	ltpFR	12	n/a	n/a	n/a	n/a	n/a	n/a	n/a	n/a	n/a	n/a	n/a	n/a	n/a	n/a	n/a	n/a
2960308	PROB	n/a	LTP090	ltpFR	12	n/a	n/a	n/a	n/a	n/a	n/a	n/a	9	1	1	7	n/a	n/a	n/a	n/a	n/a
2961741	PROB	n/a	LTP090	ltpFR	12	n/a	n/a	n/a	n/a	n/a	n/a	n/a	13	5	3	7	n/a	n/a	n/a	n/a	n/a
2967483	STOP	n/a	LTP090	ltpFR	12	n/a	n/a	n/a	n/a	n/a	n/a	n/a	n/a	n/a	n/a	n/a	n/a	n/a	n/a	n/a	n/a
2968524	WORD	wordpools/wasnorm_wordpool.txt	LTP090	ltpFR	12	12	0	WATER	1594	n/a	n/a	1	n/a	0	0	0	0.422607421875	0.5869140625	0	upper	amplitud.ttf
2971532	START	n/a	LTP090	ltpFR	12	n/a	n/a	n/a	n/a	n/a	n/a	n/a	n/a	n/a	n/a	n/a	n/a	n/a	n/a	n/a	n/a
2972365	PROB	n/a	LTP090	ltpFR	12	n/a	n/a	n/a	n/a	n/a	n/a	n/a	19	7	8	4	n/a	n/a	n/a	n/a	n/a
2974089	PROB	n/a	LTP090	ltpFR	12	n/a	n/a	n/a	n/a	n/a	n/a	n/a	14	3	9	2	n/a	n/a	n/a	n/a	n/a
2976648	PROB	n/a	LTP090	ltpFR	12	n/a	n/a	n/a	n/a	n/a	n/a	n/a	14	1	4	9	n/a	n/a	n/a	n/a	n/a
2979532	STOP	n/a	LTP090	ltpFR	12	n/a	n/a	n/a	n/a	n/a	n/a	n/a	n/a	n/a	n/a	n/a	n/a	n/a	n/a	n/a	n/a
2980656	WORD	wordpools/wasnorm_wordpool.txt	LTP090	ltpFR	12	12	1	SILVERWARE	1308	n/a	n/a	0	n/a	0	0	0	0.57763671875	0.412841796875	1	lower	zerothre.ttf
2983665	START	n/a	LTP090	ltpFR	12	n/a	n/a	n/a	n/a	n/a	n/a	n/a	n/a	n/a	n/a	n/a	n/a	n/a	n/a	n/a	n/a
2984473	PROB	n/a	LTP090	ltpFR	12	n/a	n/a	n/a	n/a	n/a	n/a	n/a	12	6	3	3	n/a	n/a	n/a	n/a	n/a
2986547	PROB	n/a	LTP090	ltpFR	12	n/a	n/a	n/a	n/a	n/a	n/a	n/a	10	4	1	5	n/a	n/a	n/a	n/a	n/a
2988063	PROB	n/a	LTP090	ltpFR	12	n/a	n/a	n/a	n/a	n/a	n/a	n/a	11	1	5	5	n/a	n/a	n/a	n/a	n/a
2989289	PROB	n/a	LTP090	ltpFR	12	n/a	n/a	n/a	n/a	n/a	n/a	n/a	15	1	8	4	n/a	n/a	n/a	n/a	n/a
2990727	STOP	n/a	LTP090	ltpFR	12	n/a	n/a	n/a	n/a	n/a	n/a	n/a	n/a	n/a	n/a	n/a	n/a	n/a	n/a	n/a	n/a
2992821	WORD	wordpools/wasnorm_wordpool.txt	LTP090	ltpFR	12	12	1	MOTOR	922	n/a	n/a	0	n/a	0	0	0	0.57763671875	0.412841796875	1	lower	zerothre.ttf
2995829	START	n/a	LTP090	ltpFR	12	n/a	n/a	n/a	n/a	n/a	n/a	n/a	n/a	n/a	n/a	n/a	n/a	n/a	n/a	n/a	n/a
2996796	PROB	n/a	LTP090	ltpFR	12	n/a	n/a	n/a	n/a	n/a	n/a	n/a	18	5	9	4	n/a	n/a	n/a	n/a	n/a
2998962	PROB	n/a	LTP090	ltpFR	12	n/a	n/a	n/a	n/a	n/a	n/a	n/a	24	8	7	9	n/a	n/a	n/a	n/a	n/a
3003822	STOP	n/a	LTP090	ltpFR	12	n/a	n/a	n/a	n/a	n/a	n/a	n/a	n/a	n/a	n/a	n/a	n/a	n/a	n/a	n/a	n/a
3004970	WORD	wordpools/wasnorm_wordpool.txt	LTP090	ltpFR	12	12	1	SAILOR	1223	n/a	n/a	1	n/a	0	0	0	0.57763671875	0.412841796875	1	lower	zerothre.ttf
3007979	START	n/a	LTP090	ltpFR	12	n/a	n/a	n/a	n/a	n/a	n/a	n/a	n/a	n/a	n/a	n/a	n/a	n/a	n/a	n/a	n/a
3009129	PROB	n/a	LTP090	ltpFR	12	n/a	n/a	n/a	n/a	n/a	n/a	n/a	13	7	5	1	n/a	n/a	n/a	n/a	n/a
3011237	PROB	n/a	LTP090	ltpFR	12	n/a	n/a	n/a	n/a	n/a	n/a	n/a	22	6	8	8	n/a	n/a	n/a	n/a	n/a
3014518	STOP	n/a	LTP090	ltpFR	12	n/a	n/a	n/a	n/a	n/a	n/a	n/a	n/a	n/a	n/a	n/a	n/a	n/a	n/a	n/a	n/a
3017170	WORD	wordpools/wasnorm_wordpool.txt	LTP090	ltpFR	12	12	1	CHOCOLATE	306	n/a	n/a	0	n/a	0	0	0	0.57763671875	0.412841796875	1	lower	zerothre.ttf
3020179	START	n/a	LTP090	ltpFR	12	n/a	n/a	n/a	n/a	n/a	n/a	n/a	n/a	n/a	n/a	n/a	n/a	n/a	n/a	n/a	n/a
3021253	PROB	n/a	LTP090	ltpFR	12	n/a	n/a	n/a	n/a	n/a	n/a	n/a	15	6	2	7	n/a	n/a	n/a	n/a	n/a
3024868	PROB	n/a	LTP090	ltpFR	12	n/a	n/a	n/a	n/a	n/a	n/a	n/a	23	7	8	8	n/a	n/a	n/a	n/a	n/a
3027246	STOP	n/a	LTP090	ltpFR	12	n/a	n/a	n/a	n/a	n/a	n/a	n/a	n/a	n/a	n/a	n/a	n/a	n/a	n/a	n/a	n/a
3029294	WORD	wordpools/wasnorm_wordpool.txt	LTP090	ltpFR	12	12	0	SKI	1316	n/a	n/a	0	n/a	0	0	0	0.422607421875	0.5869140625	0	upper	amplitud.ttf
3032303	START	n/a	LTP090	ltpFR	12	n/a	n/a	n/a	n/a	n/a	n/a	n/a	n/a	n/a	n/a	n/a	n/a	n/a	n/a	n/a	n/a
3033261	PROB	n/a	LTP090	ltpFR	12	n/a	n/a	n/a	n/a	n/a	n/a	n/a	19	7	6	6	n/a	n/a	n/a	n/a	n/a
3035777	PROB	n/a	LTP090	ltpFR	12	n/a	n/a	n/a	n/a	n/a	n/a	n/a	17	5	5	7	n/a	n/a	n/a	n/a	n/a
3040303	STOP	n/a	LTP090	ltpFR	12	n/a	n/a	n/a	n/a	n/a	n/a	n/a	n/a	n/a	n/a	n/a	n/a	n/a	n/a	n/a	n/a
3041335	WORD	wordpools/wasnorm_wordpool.txt	LTP090	ltpFR	12	12	0	ROACH	1195	n/a	n/a	0	n/a	0	0	0	0.422607421875	0.5869140625	0	upper	amplitud.ttf
3044343	START	n/a	LTP090	ltpFR	12	n/a	n/a	n/a	n/a	n/a	n/a	n/a	n/a	n/a	n/a	n/a	n/a	n/a	n/a	n/a	n/a
3045376	PROB	n/a	LTP090	ltpFR	12	n/a	n/a	n/a	n/a	n/a	n/a	n/a	17	5	3	9	n/a	n/a	n/a	n/a	n/a
3048201	PROB	n/a	LTP090	ltpFR	12	n/a	n/a	n/a	n/a	n/a	n/a	n/a	14	8	4	2	n/a	n/a	n/a	n/a	n/a
3050218	PROB	n/a	LTP090	ltpFR	12	n/a	n/a	n/a	n/a	n/a	n/a	n/a	19	3	9	7	n/a	n/a	n/a	n/a	n/a
3051925	STOP	n/a	LTP090	ltpFR	12	n/a	n/a	n/a	n/a	n/a	n/a	n/a	n/a	n/a	n/a	n/a	n/a	n/a	n/a	n/a	n/a
3053301	WORD	wordpools/wasnorm_wordpool.txt	LTP090	ltpFR	12	12	0	CLOSET	326	n/a	n/a	0	n/a	0	0	0	0.422607421875	0.5869140625	0	upper	amplitud.ttf
3056309	START	n/a	LTP090	ltpFR	12	n/a	n/a	n/a	n/a	n/a	n/a	n/a	n/a	n/a	n/a	n/a	n/a	n/a	n/a	n/a	n/a
3057242	PROB	n/a	LTP090	ltpFR	12	n/a	n/a	n/a	n/a	n/a	n/a	n/a	21	9	9	2	n/a	n/a	n/a	n/a	n/a
3059209	PROB	n/a	LTP090	ltpFR	12	n/a	n/a	n/a	n/a	n/a	n/a	n/a	10	1	3	6	n/a	n/a	n/a	n/a	n/a
3062542	PROB	n/a	LTP090	ltpFR	12	n/a	n/a	n/a	n/a	n/a	n/a	n/a	15	4	1	8	n/a	n/a	n/a	n/a	n/a
3064231	STOP	n/a	LTP090	ltpFR	12	n/a	n/a	n/a	n/a	n/a	n/a	n/a	n/a	n/a	n/a	n/a	n/a	n/a	n/a	n/a	n/a
3065400	WORD	wordpools/wasnorm_wordpool.txt	LTP090	ltpFR	12	12	1	UNDERWEAR	1537	n/a	n/a	n/a	n/a	0	0	0	0.57763671875	0.412841796875	1	lower	zerothre.ttf
3068424	SLOW_MSG	n/a	LTP090	ltpFR	12	12	n/a	n/a	n/a	n/a	n/a	n/a	n/a	0	0	0	n/a	n/a	n/a	n/a	n/a
3069940	START	n/a	LTP090	ltpFR	12	n/a	n/a	n/a	n/a	n/a	n/a	n/a	n/a	n/a	n/a	n/a	n/a	n/a	n/a	n/a	n/a
3070832	PROB	n/a	LTP090	ltpFR	12	n/a	n/a	n/a	n/a	n/a	n/a	n/a	14	7	6	1	n/a	n/a	n/a	n/a	n/a
3072324	PROB	n/a	LTP090	ltpFR	12	n/a	n/a	n/a	n/a	n/a	n/a	n/a	12	2	8	2	n/a	n/a	n/a	n/a	n/a
3073749	PROB	n/a	LTP090	ltpFR	12	n/a	n/a	n/a	n/a	n/a	n/a	n/a	12	8	2	2	n/a	n/a	n/a	n/a	n/a
3074898	PROB	n/a	LTP090	ltpFR	12	n/a	n/a	n/a	n/a	n/a	n/a	n/a	14	8	4	2	n/a	n/a	n/a	n/a	n/a
3076415	STOP	n/a	LTP090	ltpFR	12	n/a	n/a	n/a	n/a	n/a	n/a	n/a	n/a	n/a	n/a	n/a	n/a	n/a	n/a	n/a	n/a
3079089	WORD	wordpools/wasnorm_wordpool.txt	LTP090	ltpFR	12	12	1	LOAF	835	n/a	n/a	0	n/a	0	0	0	0.57763671875	0.412841796875	1	lower	zerothre.ttf
3082098	START	n/a	LTP090	ltpFR	12	n/a	n/a	n/a	n/a	n/a	n/a	n/a	n/a	n/a	n/a	n/a	n/a	n/a	n/a	n/a	n/a
3083014	PROB	n/a	LTP090	ltpFR	12	n/a	n/a	n/a	n/a	n/a	n/a	n/a	18	8	2	8	n/a	n/a	n/a	n/a	n/a
3085114	PROB	n/a	LTP090	ltpFR	12	n/a	n/a	n/a	n/a	n/a	n/a	n/a	23	8	4	9	n/a	n/a	n/a	n/a	n/a
3089837	STOP	n/a	LTP090	ltpFR	12	n/a	n/a	n/a	n/a	n/a	n/a	n/a	n/a	n/a	n/a	n/a	n/a	n/a	n/a	n/a	n/a
3091097	WORD	wordpools/wasnorm_wordpool.txt	LTP090	ltpFR	12	12	1	LADY	794	n/a	n/a	1	n/a	0	0	0	0.57763671875	0.412841796875	1	lower	zerothre.ttf
3094105	START	n/a	LTP090	ltpFR	12	n/a	n/a	n/a	n/a	n/a	n/a	n/a	n/a	n/a	n/a	n/a	n/a	n/a	n/a	n/a	n/a
3095113	PROB	n/a	LTP090	ltpFR	12	n/a	n/a	n/a	n/a	n/a	n/a	n/a	15	5	1	9	n/a	n/a	n/a	n/a	n/a
3096772	PROB	n/a	LTP090	ltpFR	12	n/a	n/a	n/a	n/a	n/a	n/a	n/a	8	4	1	3	n/a	n/a	n/a	n/a	n/a
3098547	PROB	n/a	LTP090	ltpFR	12	n/a	n/a	n/a	n/a	n/a	n/a	n/a	13	5	6	2	n/a	n/a	n/a	n/a	n/a
3102105	STOP	n/a	LTP090	ltpFR	12	n/a	n/a	n/a	n/a	n/a	n/a	n/a	n/a	n/a	n/a	n/a	n/a	n/a	n/a	n/a	n/a
3103155	WORD	wordpools/wasnorm_wordpool.txt	LTP090	ltpFR	12	12	1	TURKEY	1520	n/a	n/a	1	n/a	0	0	0	0.57763671875	0.412841796875	1	lower	zerothre.ttf
3106164	START	n/a	LTP090	ltpFR	12	n/a	n/a	n/a	n/a	n/a	n/a	n/a	n/a	n/a	n/a	n/a	n/a	n/a	n/a	n/a	n/a
3107213	PROB	n/a	LTP090	ltpFR	12	n/a	n/a	n/a	n/a	n/a	n/a	n/a	14	8	1	5	n/a	n/a	n/a	n/a	n/a
3109171	PROB	n/a	LTP090	ltpFR	12	n/a	n/a	n/a	n/a	n/a	n/a	n/a	18	7	4	7	n/a	n/a	n/a	n/a	n/a
3110721	PROB	n/a	LTP090	ltpFR	12	n/a	n/a	n/a	n/a	n/a	n/a	n/a	13	2	6	5	n/a	n/a	n/a	n/a	n/a
3113006	STOP	n/a	LTP090	ltpFR	12	n/a	n/a	n/a	n/a	n/a	n/a	n/a	n/a	n/a	n/a	n/a	n/a	n/a	n/a	n/a	n/a
3115338	WORD	wordpools/wasnorm_wordpool.txt	LTP090	ltpFR	12	12	0	KING	777	n/a	n/a	1	n/a	0	0	0	0.422607421875	0.5869140625	0	upper	amplitud.ttf
3118346	START	n/a	LTP090	ltpFR	12	n/a	n/a	n/a	n/a	n/a	n/a	n/a	n/a	n/a	n/a	n/a	n/a	n/a	n/a	n/a	n/a
3119487	PROB	n/a	LTP090	ltpFR	12	n/a	n/a	n/a	n/a	n/a	n/a	n/a	14	6	6	2	n/a	n/a	n/a	n/a	n/a
3121445	PROB	n/a	LTP090	ltpFR	12	n/a	n/a	n/a	n/a	n/a	n/a	n/a	14	4	7	3	n/a	n/a	n/a	n/a	n/a
3122903	PROB	n/a	LTP090	ltpFR	12	n/a	n/a	n/a	n/a	n/a	n/a	n/a	22	5	7	9	n/a	n/a	n/a	n/a	n/a
3125287	STOP	n/a	LTP090	ltpFR	12	n/a	n/a	n/a	n/a	n/a	n/a	n/a	n/a	n/a	n/a	n/a	n/a	n/a	n/a	n/a	n/a
3127487	WORD	wordpools/wasnorm_wordpool.txt	LTP090	ltpFR	12	12	0	PRINCESS	1125	n/a	n/a	1	n/a	0	0	0	0.422607421875	0.5869140625	0	upper	amplitud.ttf
3130495	START	n/a	LTP090	ltpFR	12	n/a	n/a	n/a	n/a	n/a	n/a	n/a	n/a	n/a	n/a	n/a	n/a	n/a	n/a	n/a	n/a
3131311	PROB	n/a	LTP090	ltpFR	12	n/a	n/a	n/a	n/a	n/a	n/a	n/a	15	9	4	2	n/a	n/a	n/a	n/a	n/a
3134002	PROB	n/a	LTP090	ltpFR	12	n/a	n/a	n/a	n/a	n/a	n/a	n/a	14	7	3	4	n/a	n/a	n/a	n/a	n/a
3135336	PROB	n/a	LTP090	ltpFR	12	n/a	n/a	n/a	n/a	n/a	n/a	n/a	18	4	6	8	n/a	n/a	n/a	n/a	n/a
3138495	STOP	n/a	LTP090	ltpFR	12	n/a	n/a	n/a	n/a	n/a	n/a	n/a	n/a	n/a	n/a	n/a	n/a	n/a	n/a	n/a	n/a
3139411	WORD	wordpools/wasnorm_wordpool.txt	LTP090	ltpFR	12	12	0	COOKIE	374	n/a	n/a	0	n/a	0	0	0	0.422607421875	0.5869140625	0	upper	amplitud.ttf
3142419	START	n/a	LTP090	ltpFR	12	n/a	n/a	n/a	n/a	n/a	n/a	n/a	n/a	n/a	n/a	n/a	n/a	n/a	n/a	n/a	n/a
3143402	PROB	n/a	LTP090	ltpFR	12	n/a	n/a	n/a	n/a	n/a	n/a	n/a	13	5	5	3	n/a	n/a	n/a	n/a	n/a
3144702	PROB	n/a	LTP090	ltpFR	12	n/a	n/a	n/a	n/a	n/a	n/a	n/a	19	5	9	6	n/a	n/a	n/a	n/a	n/a
3150419	STOP	n/a	LTP090	ltpFR	12	n/a	n/a	n/a	n/a	n/a	n/a	n/a	n/a	n/a	n/a	n/a	n/a	n/a	n/a	n/a	n/a
3152310	REC_START	n/a	LTP090	ltpFR	12	12	n/a	n/a	n/a	n/a	n/a	n/a	n/a	0	0	0	n/a	n/a	n/a	n/a	n/a
