mstime	trial_type	stim_file	subject	experiment	session	trial	task	item_name	item_num	recog_conf	resp	color_b	color_g	color_r	case	font
0	SESS_START	n/a	LTP110	ltpFR	16	n/a	n/a	n/a	n/a	4	n/a	n/a	n/a	n/a	n/a	n/a
30973	WORD	wordpools/wasnorm_wordpool.txt	LTP110	ltpFR	16	1	1	VICTIM	1562	n/a	1	1	0.412841796875	0.57763671875	upper	../fonts/amplitud.ttf
34855	WORD	wordpools/wasnorm_wordpool.txt	LTP110	ltpFR	16	1	1	BUTTON	207	n/a	0	1	0.412841796875	0.57763671875	upper	../fonts/amplitud.ttf
38753	WORD	wordpools/wasnorm_wordpool.txt	LTP110	ltpFR	16	1	1	RESTAURANT	1187	n/a	0	1	0.412841796875	0.57763671875	upper	../fonts/amplitud.ttf
42827	WORD	wordpools/wasnorm_wordpool.txt	LTP110	ltpFR	16	1	1	BEET	115	n/a	0	1	0.412841796875	0.57763671875	upper	../fonts/amplitud.ttf
46650	WORD	wordpools/wasnorm_wordpool.txt	LTP110	ltpFR	16	1	1	AMBULANCE	19	n/a	0	1	0.412841796875	0.57763671875	upper	../fonts/amplitud.ttf
50849	WORD	wordpools/wasnorm_wordpool.txt	LTP110	ltpFR	16	1	0	MAILBOX	857	n/a	1	0	0.5869140625	0.422607421875	lower	../fonts/zerothre.ttf
54989	WORD	wordpools/wasnorm_wordpool.txt	LTP110	ltpFR	16	1	0	CUPBOARD	425	n/a	1	0	0.5869140625	0.422607421875	lower	../fonts/zerothre.ttf
59063	WORD	wordpools/wasnorm_wordpool.txt	LTP110	ltpFR	16	1	0	PICKLE	1059	n/a	0	0	0.5869140625	0.422607421875	lower	../fonts/zerothre.ttf
63028	WORD	wordpools/wasnorm_wordpool.txt	LTP110	ltpFR	16	1	0	TART	1436	n/a	0	0	0.5869140625	0.422607421875	lower	../fonts/zerothre.ttf
67152	WORD	wordpools/wasnorm_wordpool.txt	LTP110	ltpFR	16	1	1	SUPPER	1411	n/a	0	1	0.412841796875	0.57763671875	upper	../fonts/amplitud.ttf
71200	WORD	wordpools/wasnorm_wordpool.txt	LTP110	ltpFR	16	1	1	PORCUPINE	1107	n/a	1	1	0.412841796875	0.57763671875	upper	../fonts/amplitud.ttf
75407	WORD	wordpools/wasnorm_wordpool.txt	LTP110	ltpFR	16	1	1	PENNY	1045	n/a	0	1	0.412841796875	0.57763671875	upper	../fonts/amplitud.ttf
79547	WORD	wordpools/wasnorm_wordpool.txt	LTP110	ltpFR	16	1	0	CUFF	423	n/a	0	0	0.5869140625	0.422607421875	lower	../fonts/zerothre.ttf
83646	WORD	wordpools/wasnorm_wordpool.txt	LTP110	ltpFR	16	1	0	MARINE	869	n/a	1	0	0.5869140625	0.422607421875	lower	../fonts/zerothre.ttf
87736	WORD	wordpools/wasnorm_wordpool.txt	LTP110	ltpFR	16	1	0	TEENAGER	1444	n/a	1	0	0.5869140625	0.422607421875	lower	../fonts/zerothre.ttf
91626	WORD	wordpools/wasnorm_wordpool.txt	LTP110	ltpFR	16	1	0	KID	775	n/a	1	0	0.5869140625	0.422607421875	lower	../fonts/zerothre.ttf
97450	REC_START	n/a	LTP110	ltpFR	16	1	n/a	n/a	n/a	n/a	n/a	n/a	n/a	n/a	n/a	n/a
98123	REC_WORD	wordpools/wasnorm_wordpool.txt	LTP110	ltpFR	16	1	0	MARINE	869	n/a	1	n/a	n/a	n/a	n/a	n/a
100363	REC_WORD	wordpools/wasnorm_wordpool.txt	LTP110	ltpFR	16	1	0	TEENAGER	1444	n/a	1	n/a	n/a	n/a	n/a	n/a
101331	REC_WORD	wordpools/wasnorm_wordpool.txt	LTP110	ltpFR	16	1	0	KID	775	n/a	1	n/a	n/a	n/a	n/a	n/a
102818	REC_WORD	wordpools/wasnorm_wordpool.txt	LTP110	ltpFR	16	1	1	VICTIM	1562	n/a	1	n/a	n/a	n/a	n/a	n/a
103790	REC_WORD	wordpools/wasnorm_wordpool.txt	LTP110	ltpFR	16	1	1	BUTTON	207	n/a	0	n/a	n/a	n/a	n/a	n/a
106100	REC_WORD	wordpools/wasnorm_wordpool.txt	LTP110	ltpFR	16	1	1	RESTAURANT	1187	n/a	0	n/a	n/a	n/a	n/a	n/a
107193	REC_WORD	wordpools/wasnorm_wordpool.txt	LTP110	ltpFR	16	1	1	BEET	115	n/a	0	n/a	n/a	n/a	n/a	n/a
109482	REC_WORD	wordpools/wasnorm_wordpool.txt	LTP110	ltpFR	16	1	0	MAILBOX	857	n/a	1	n/a	n/a	n/a	n/a	n/a
110400	REC_WORD	wordpools/wasnorm_wordpool.txt	LTP110	ltpFR	16	1	0	CUPBOARD	425	n/a	1	n/a	n/a	n/a	n/a	n/a
111593	REC_WORD	wordpools/wasnorm_wordpool.txt	LTP110	ltpFR	16	1	0	PICKLE	1059	n/a	0	n/a	n/a	n/a	n/a	n/a
112585	REC_WORD	wordpools/wasnorm_wordpool.txt	LTP110	ltpFR	16	1	0	TART	1436	n/a	0	n/a	n/a	n/a	n/a	n/a
137554	REC_WORD	wordpools/wasnorm_wordpool.txt	LTP110	ltpFR	16	1	0	CUFF	423	n/a	0	n/a	n/a	n/a	n/a	n/a
141624	REC_WORD	wordpools/wasnorm_wordpool.txt	LTP110	ltpFR	16	1	1	PENNY	1045	n/a	0	n/a	n/a	n/a	n/a	n/a
151617	REC_WORD	wordpools/wasnorm_wordpool.txt	LTP110	ltpFR	16	1	0	KID	775	n/a	1	n/a	n/a	n/a	n/a	n/a
175855	WORD	wordpools/wasnorm_wordpool.txt	LTP110	ltpFR	16	2	0	NEUTRON	947	n/a	0	0	0.5869140625	0.422607421875	lower	../fonts/zerothre.ttf
179812	WORD	wordpools/wasnorm_wordpool.txt	LTP110	ltpFR	16	2	0	APRON	35	n/a	1	0	0.5869140625	0.422607421875	lower	../fonts/zerothre.ttf
183652	WORD	wordpools/wasnorm_wordpool.txt	LTP110	ltpFR	16	2	0	WHEEL	1603	n/a	1	0	0.5869140625	0.422607421875	lower	../fonts/zerothre.ttf
187600	WORD	wordpools/wasnorm_wordpool.txt	LTP110	ltpFR	16	2	1	SALESMAN	1225	n/a	1	1	0.412841796875	0.57763671875	upper	../fonts/amplitud.ttf
191632	WORD	wordpools/wasnorm_wordpool.txt	LTP110	ltpFR	16	2	1	RUST	1219	n/a	0	1	0.412841796875	0.57763671875	upper	../fonts/amplitud.ttf
195739	WORD	wordpools/wasnorm_wordpool.txt	LTP110	ltpFR	16	2	1	MINER	896	n/a	1	1	0.412841796875	0.57763671875	upper	../fonts/amplitud.ttf
199946	WORD	wordpools/wasnorm_wordpool.txt	LTP110	ltpFR	16	2	1	BAKER	71	n/a	1	1	0.412841796875	0.57763671875	upper	../fonts/amplitud.ttf
204120	WORD	wordpools/wasnorm_wordpool.txt	LTP110	ltpFR	16	2	0	GAUZE	626	n/a	0	0	0.5869140625	0.422607421875	lower	../fonts/zerothre.ttf
208285	WORD	wordpools/wasnorm_wordpool.txt	LTP110	ltpFR	16	2	0	PITCHFORK	1078	n/a	1	0	0.5869140625	0.422607421875	lower	../fonts/zerothre.ttf
212392	WORD	wordpools/wasnorm_wordpool.txt	LTP110	ltpFR	16	2	1	ROACH	1195	n/a	1	1	0.412841796875	0.57763671875	upper	../fonts/amplitud.ttf
216349	WORD	wordpools/wasnorm_wordpool.txt	LTP110	ltpFR	16	2	1	REFEREE	1178	n/a	1	1	0.412841796875	0.57763671875	upper	../fonts/amplitud.ttf
220322	WORD	wordpools/wasnorm_wordpool.txt	LTP110	ltpFR	16	2	1	PLANT	1083	n/a	0	1	0.412841796875	0.57763671875	upper	../fonts/amplitud.ttf
224212	WORD	wordpools/wasnorm_wordpool.txt	LTP110	ltpFR	16	2	1	SYRINGE	1424	n/a	0	1	0.412841796875	0.57763671875	upper	../fonts/amplitud.ttf
228136	WORD	wordpools/wasnorm_wordpool.txt	LTP110	ltpFR	16	2	0	TUB	1514	n/a	1	0	0.5869140625	0.422607421875	lower	../fonts/zerothre.ttf
232260	WORD	wordpools/wasnorm_wordpool.txt	LTP110	ltpFR	16	2	0	LAGOON	795	n/a	1	0	0.5869140625	0.422607421875	lower	../fonts/zerothre.ttf
236442	WORD	wordpools/wasnorm_wordpool.txt	LTP110	ltpFR	16	2	0	NUCLEUS	961	n/a	0	0	0.5869140625	0.422607421875	lower	../fonts/zerothre.ttf
242282	REC_START	n/a	LTP110	ltpFR	16	2	n/a	n/a	n/a	n/a	n/a	n/a	n/a	n/a	n/a	n/a
242716	REC_WORD	wordpools/wasnorm_wordpool.txt	LTP110	ltpFR	16	2	0	NUCLEUS	961	n/a	0	n/a	n/a	n/a	n/a	n/a
243584	REC_WORD	wordpools/wasnorm_wordpool.txt	LTP110	ltpFR	16	2	0	NEUTRON	947	n/a	0	n/a	n/a	n/a	n/a	n/a
245370	REC_WORD	wordpools/wasnorm_wordpool.txt	LTP110	ltpFR	16	2	0	APRON	35	n/a	1	n/a	n/a	n/a	n/a	n/a
246048	REC_WORD	wordpools/wasnorm_wordpool.txt	LTP110	ltpFR	16	2	0	WHEEL	1603	n/a	1	n/a	n/a	n/a	n/a	n/a
246906	REC_WORD	wordpools/wasnorm_wordpool.txt	LTP110	ltpFR	16	2	1	RUST	1219	n/a	0	n/a	n/a	n/a	n/a	n/a
248178	REC_WORD	wordpools/wasnorm_wordpool.txt	LTP110	ltpFR	16	2	1	SALESMAN	1225	n/a	1	n/a	n/a	n/a	n/a	n/a
249770	REC_WORD	wordpools/wasnorm_wordpool.txt	LTP110	ltpFR	16	2	1	BAKER	71	n/a	1	n/a	n/a	n/a	n/a	n/a
250743	REC_WORD	wordpools/wasnorm_wordpool.txt	LTP110	ltpFR	16	2	1	MINER	896	n/a	1	n/a	n/a	n/a	n/a	n/a
252534	REC_WORD	wordpools/wasnorm_wordpool.txt	LTP110	ltpFR	16	2	0	GAUZE	626	n/a	0	n/a	n/a	n/a	n/a	n/a
253731	REC_WORD	wordpools/wasnorm_wordpool.txt	LTP110	ltpFR	16	2	0	PITCHFORK	1078	n/a	1	n/a	n/a	n/a	n/a	n/a
258640	REC_WORD	wordpools/wasnorm_wordpool.txt	LTP110	ltpFR	16	2	0	LAGOON	795	n/a	1	n/a	n/a	n/a	n/a	n/a
259797	REC_WORD	wordpools/wasnorm_wordpool.txt	LTP110	ltpFR	16	2	0	TUB	1514	n/a	1	n/a	n/a	n/a	n/a	n/a
270867	REC_WORD	wordpools/wasnorm_wordpool.txt	LTP110	ltpFR	16	2	n/a	KITCHEN	778	n/a	n/a	n/a	n/a	n/a	n/a	n/a
276454	REC_WORD	wordpools/wasnorm_wordpool.txt	LTP110	ltpFR	16	2	1	PLANT	1083	n/a	0	n/a	n/a	n/a	n/a	n/a
291570	REC_WORD	wordpools/wasnorm_wordpool.txt	LTP110	ltpFR	16	2	n/a	PORCH	1106	n/a	n/a	n/a	n/a	n/a	n/a	n/a
321261	WORD	wordpools/wasnorm_wordpool.txt	LTP110	ltpFR	16	3	1	COBBLER	335	n/a	0	1	0.412841796875	0.57763671875	upper	../fonts/amplitud.ttf
325452	WORD	wordpools/wasnorm_wordpool.txt	LTP110	ltpFR	16	3	1	DASHBOARD	441	n/a	0	1	0.412841796875	0.57763671875	upper	../fonts/amplitud.ttf
329325	WORD	wordpools/wasnorm_wordpool.txt	LTP110	ltpFR	16	3	1	CARAVAN	242	n/a	0	1	0.412841796875	0.57763671875	upper	../fonts/amplitud.ttf
333507	WORD	wordpools/wasnorm_wordpool.txt	LTP110	ltpFR	16	3	0	DENTIST	447	n/a	1	0	0.5869140625	0.422607421875	lower	../fonts/zerothre.ttf
337656	WORD	wordpools/wasnorm_wordpool.txt	LTP110	ltpFR	16	3	0	PILLOW	1069	n/a	1	0	0.5869140625	0.422607421875	lower	../fonts/zerothre.ttf
341737	WORD	wordpools/wasnorm_wordpool.txt	LTP110	ltpFR	16	3	0	CREAM	402	n/a	0	0	0.5869140625	0.422607421875	lower	../fonts/zerothre.ttf
345703	WORD	wordpools/wasnorm_wordpool.txt	LTP110	ltpFR	16	3	0	DOLL	481	n/a	0	0	0.5869140625	0.422607421875	lower	../fonts/zerothre.ttf
349751	WORD	wordpools/wasnorm_wordpool.txt	LTP110	ltpFR	16	3	0	SHACK	1273	n/a	1	0	0.5869140625	0.422607421875	lower	../fonts/zerothre.ttf
353675	WORD	wordpools/wasnorm_wordpool.txt	LTP110	ltpFR	16	3	0	CARDINAL	244	n/a	0	0	0.5869140625	0.422607421875	lower	../fonts/zerothre.ttf
357632	WORD	wordpools/wasnorm_wordpool.txt	LTP110	ltpFR	16	3	1	ASSISTANT	48	n/a	1	1	0.412841796875	0.57763671875	upper	../fonts/amplitud.ttf
361664	WORD	wordpools/wasnorm_wordpool.txt	LTP110	ltpFR	16	3	1	CHIPMUNK	304	n/a	1	1	0.412841796875	0.57763671875	upper	../fonts/amplitud.ttf
365596	WORD	wordpools/wasnorm_wordpool.txt	LTP110	ltpFR	16	3	0	SCAPEGOAT	1244	n/a	1	0	0.5869140625	0.422607421875	lower	../fonts/zerothre.ttf
369444	WORD	wordpools/wasnorm_wordpool.txt	LTP110	ltpFR	16	3	0	CLERK	321	n/a	1	0	0.5869140625	0.422607421875	lower	../fonts/zerothre.ttf
373393	WORD	wordpools/wasnorm_wordpool.txt	LTP110	ltpFR	16	3	1	PELICAN	1039	n/a	1	1	0.412841796875	0.57763671875	upper	../fonts/amplitud.ttf
377516	WORD	wordpools/wasnorm_wordpool.txt	LTP110	ltpFR	16	3	1	PATRIOT	1026	n/a	1	1	0.412841796875	0.57763671875	upper	../fonts/amplitud.ttf
381523	WORD	wordpools/wasnorm_wordpool.txt	LTP110	ltpFR	16	3	1	PLATE	1086	n/a	0	1	0.412841796875	0.57763671875	upper	../fonts/amplitud.ttf
387255	REC_START	n/a	LTP110	ltpFR	16	3	n/a	n/a	n/a	n/a	n/a	n/a	n/a	n/a	n/a	n/a
388208	REC_WORD	wordpools/wasnorm_wordpool.txt	LTP110	ltpFR	16	3	1	PATRIOT	1026	n/a	1	n/a	n/a	n/a	n/a	n/a
389225	REC_WORD	wordpools/wasnorm_wordpool.txt	LTP110	ltpFR	16	3	1	PLATE	1086	n/a	0	n/a	n/a	n/a	n/a	n/a
405653	REC_WORD	wordpools/wasnorm_wordpool.txt	LTP110	ltpFR	16	3	0	CUPBOARD	425	n/a	1	n/a	n/a	n/a	n/a	n/a
419985	REC_WORD	wordpools/wasnorm_wordpool.txt	LTP110	ltpFR	16	3	1	CHIPMUNK	304	n/a	1	n/a	n/a	n/a	n/a	n/a
425234	REC_WORD	wordpools/wasnorm_wordpool.txt	LTP110	ltpFR	16	3	1	DASHBOARD	441	n/a	0	n/a	n/a	n/a	n/a	n/a
426331	REC_WORD	wordpools/wasnorm_wordpool.txt	LTP110	ltpFR	16	3	0	DENTIST	447	n/a	1	n/a	n/a	n/a	n/a	n/a
427274	REC_WORD	wordpools/wasnorm_wordpool.txt	LTP110	ltpFR	16	3	0	PILLOW	1069	n/a	1	n/a	n/a	n/a	n/a	n/a
428760	REC_WORD	wordpools/wasnorm_wordpool.txt	LTP110	ltpFR	16	3	1	COBBLER	335	n/a	0	n/a	n/a	n/a	n/a	n/a
431639	REC_WORD	wordpools/wasnorm_wordpool.txt	LTP110	ltpFR	16	3	0	DOLL	481	n/a	0	n/a	n/a	n/a	n/a	n/a
432437	REC_WORD	wordpools/wasnorm_wordpool.txt	LTP110	ltpFR	16	3	0	CREAM	402	n/a	0	n/a	n/a	n/a	n/a	n/a
437471	REC_WORD	wordpools/wasnorm_wordpool.txt	LTP110	ltpFR	16	3	1	CARAVAN	242	n/a	0	n/a	n/a	n/a	n/a	n/a
439177	REC_WORD	wordpools/wasnorm_wordpool.txt	LTP110	ltpFR	16	3	0	SHACK	1273	n/a	1	n/a	n/a	n/a	n/a	n/a
442774	REC_WORD	wordpools/wasnorm_wordpool.txt	LTP110	ltpFR	16	3	0	CARDINAL	244	n/a	0	n/a	n/a	n/a	n/a	n/a
465135	WORD	wordpools/wasnorm_wordpool.txt	LTP110	ltpFR	16	4	0	MUSEUM	933	n/a	1	0	0.5869140625	0.422607421875	lower	../fonts/zerothre.ttf
469292	WORD	wordpools/wasnorm_wordpool.txt	LTP110	ltpFR	16	4	0	ANCESTOR	20	n/a	1	0	0.5869140625	0.422607421875	lower	../fonts/zerothre.ttf
473407	WORD	wordpools/wasnorm_wordpool.txt	LTP110	ltpFR	16	4	0	CLOVE	329	n/a	0	0	0.5869140625	0.422607421875	lower	../fonts/zerothre.ttf
477598	WORD	wordpools/wasnorm_wordpool.txt	LTP110	ltpFR	16	4	0	DIAPER	459	n/a	1	0	0.5869140625	0.422607421875	lower	../fonts/zerothre.ttf
481471	WORD	wordpools/wasnorm_wordpool.txt	LTP110	ltpFR	16	4	0	JELLO	754	n/a	0	0	0.5869140625	0.422607421875	lower	../fonts/zerothre.ttf
485611	WORD	wordpools/wasnorm_wordpool.txt	LTP110	ltpFR	16	4	0	VEHICLE	1553	n/a	1	0	0.5869140625	0.422607421875	lower	../fonts/zerothre.ttf
489568	WORD	wordpools/wasnorm_wordpool.txt	LTP110	ltpFR	16	4	0	TOOTHPASTE	1483	n/a	0	0	0.5869140625	0.422607421875	lower	../fonts/zerothre.ttf
493392	WORD	wordpools/wasnorm_wordpool.txt	LTP110	ltpFR	16	4	0	OATS	968	n/a	1	0	0.5869140625	0.422607421875	lower	../fonts/zerothre.ttf
497599	WORD	wordpools/wasnorm_wordpool.txt	LTP110	ltpFR	16	4	0	RADIATOR	1156	n/a	1	0	0.5869140625	0.422607421875	lower	../fonts/zerothre.ttf
501656	WORD	wordpools/wasnorm_wordpool.txt	LTP110	ltpFR	16	4	0	CHART	282	n/a	0	0	0.5869140625	0.422607421875	lower	../fonts/zerothre.ttf
505754	WORD	wordpools/wasnorm_wordpool.txt	LTP110	ltpFR	16	4	0	PICTURE	1061	n/a	0	0	0.5869140625	0.422607421875	lower	../fonts/zerothre.ttf
509578	WORD	wordpools/wasnorm_wordpool.txt	LTP110	ltpFR	16	4	0	ACTOR	5	n/a	1	0	0.5869140625	0.422607421875	lower	../fonts/zerothre.ttf
513652	WORD	wordpools/wasnorm_wordpool.txt	LTP110	ltpFR	16	4	0	TONGUE	1479	n/a	0	0	0.5869140625	0.422607421875	lower	../fonts/zerothre.ttf
517509	WORD	wordpools/wasnorm_wordpool.txt	LTP110	ltpFR	16	4	0	MOWER	928	n/a	1	0	0.5869140625	0.422607421875	lower	../fonts/zerothre.ttf
521407	WORD	wordpools/wasnorm_wordpool.txt	LTP110	ltpFR	16	4	0	LAWN	805	n/a	1	0	0.5869140625	0.422607421875	lower	../fonts/zerothre.ttf
525289	WORD	wordpools/wasnorm_wordpool.txt	LTP110	ltpFR	16	4	0	AGENT	10	n/a	1	0	0.5869140625	0.422607421875	lower	../fonts/zerothre.ttf
531021	REC_START	n/a	LTP110	ltpFR	16	4	n/a	n/a	n/a	n/a	n/a	n/a	n/a	n/a	n/a	n/a
531969	REC_WORD	wordpools/wasnorm_wordpool.txt	LTP110	ltpFR	16	4	0	AGENT	10	n/a	1	n/a	n/a	n/a	n/a	n/a
532981	REC_WORD	wordpools/wasnorm_wordpool.txt	LTP110	ltpFR	16	4	0	ACTOR	5	n/a	1	n/a	n/a	n/a	n/a	n/a
534887	REC_WORD	wordpools/wasnorm_wordpool.txt	LTP110	ltpFR	16	4	0	ANCESTOR	20	n/a	1	n/a	n/a	n/a	n/a	n/a
536443	REC_WORD	wordpools/wasnorm_wordpool.txt	LTP110	ltpFR	16	4	0	VEHICLE	1553	n/a	1	n/a	n/a	n/a	n/a	n/a
538943	REC_WORD	wordpools/wasnorm_wordpool.txt	LTP110	ltpFR	16	4	0	MOWER	928	n/a	1	n/a	n/a	n/a	n/a	n/a
539886	REC_WORD	wordpools/wasnorm_wordpool.txt	LTP110	ltpFR	16	4	0	LAWN	805	n/a	1	n/a	n/a	n/a	n/a	n/a
541697	REC_WORD	wordpools/wasnorm_wordpool.txt	LTP110	ltpFR	16	4	0	MUSEUM	933	n/a	1	n/a	n/a	n/a	n/a	n/a
543897	REC_WORD	wordpools/wasnorm_wordpool.txt	LTP110	ltpFR	16	4	0	CLOVE	329	n/a	0	n/a	n/a	n/a	n/a	n/a
545882	REC_WORD	wordpools/wasnorm_wordpool.txt	LTP110	ltpFR	16	4	0	DIAPER	459	n/a	1	n/a	n/a	n/a	n/a	n/a
547379	REC_WORD	wordpools/wasnorm_wordpool.txt	LTP110	ltpFR	16	4	0	TOOTHPASTE	1483	n/a	0	n/a	n/a	n/a	n/a	n/a
554966	REC_WORD	wordpools/wasnorm_wordpool.txt	LTP110	ltpFR	16	4	0	OATS	968	n/a	1	n/a	n/a	n/a	n/a	n/a
588151	REC_WORD	wordpools/wasnorm_wordpool.txt	LTP110	ltpFR	16	4	0	MUSEUM	933	n/a	1	n/a	n/a	n/a	n/a	n/a
612941	WORD	wordpools/wasnorm_wordpool.txt	LTP110	ltpFR	16	5	1	LITTER	832	n/a	0	1	0.412841796875	0.57763671875	upper	../fonts/amplitud.ttf
616932	WORD	wordpools/wasnorm_wordpool.txt	LTP110	ltpFR	16	5	1	CAFETERIA	217	n/a	0	1	0.412841796875	0.57763671875	upper	../fonts/amplitud.ttf
620805	WORD	wordpools/wasnorm_wordpool.txt	LTP110	ltpFR	16	5	1	CHEF	290	n/a	1	1	0.412841796875	0.57763671875	upper	../fonts/amplitud.ttf
624637	WORD	wordpools/wasnorm_wordpool.txt	LTP110	ltpFR	16	5	1	BULL	193	n/a	1	1	0.412841796875	0.57763671875	upper	../fonts/amplitud.ttf
628511	WORD	wordpools/wasnorm_wordpool.txt	LTP110	ltpFR	16	5	1	ASTRONAUT	51	n/a	1	1	0.412841796875	0.57763671875	upper	../fonts/amplitud.ttf
632343	WORD	wordpools/wasnorm_wordpool.txt	LTP110	ltpFR	16	5	1	COMPUTER	359	n/a	0	1	0.412841796875	0.57763671875	upper	../fonts/amplitud.ttf
636300	WORD	wordpools/wasnorm_wordpool.txt	LTP110	ltpFR	16	5	1	BERRY	122	n/a	1	1	0.412841796875	0.57763671875	upper	../fonts/amplitud.ttf
640498	WORD	wordpools/wasnorm_wordpool.txt	LTP110	ltpFR	16	5	1	SALAD	1224	n/a	0	1	0.412841796875	0.57763671875	upper	../fonts/amplitud.ttf
644364	WORD	wordpools/wasnorm_wordpool.txt	LTP110	ltpFR	16	5	1	GOVERNOR	651	n/a	1	1	0.412841796875	0.57763671875	upper	../fonts/amplitud.ttf
648345	WORD	wordpools/wasnorm_wordpool.txt	LTP110	ltpFR	16	5	1	TELESCOPE	1446	n/a	0	1	0.412841796875	0.57763671875	upper	../fonts/amplitud.ttf
652411	WORD	wordpools/wasnorm_wordpool.txt	LTP110	ltpFR	16	5	1	MEADOW	881	n/a	0	1	0.412841796875	0.57763671875	upper	../fonts/amplitud.ttf
656384	WORD	wordpools/wasnorm_wordpool.txt	LTP110	ltpFR	16	5	1	SENATOR	1268	n/a	1	1	0.412841796875	0.57763671875	upper	../fonts/amplitud.ttf
660458	WORD	wordpools/wasnorm_wordpool.txt	LTP110	ltpFR	16	5	1	CUSTOMER	430	n/a	1	1	0.412841796875	0.57763671875	upper	../fonts/amplitud.ttf
664415	WORD	wordpools/wasnorm_wordpool.txt	LTP110	ltpFR	16	5	1	RECEIPT	1173	n/a	0	1	0.412841796875	0.57763671875	upper	../fonts/amplitud.ttf
668305	WORD	wordpools/wasnorm_wordpool.txt	LTP110	ltpFR	16	5	1	HAMMER	680	n/a	0	1	0.412841796875	0.57763671875	upper	../fonts/amplitud.ttf
672412	WORD	wordpools/wasnorm_wordpool.txt	LTP110	ltpFR	16	5	1	NUN	962	n/a	1	1	0.412841796875	0.57763671875	upper	../fonts/amplitud.ttf
678235	REC_START	n/a	LTP110	ltpFR	16	5	n/a	n/a	n/a	n/a	n/a	n/a	n/a	n/a	n/a	n/a
678983	REC_WORD	wordpools/wasnorm_wordpool.txt	LTP110	ltpFR	16	5	1	NUN	962	n/a	1	n/a	n/a	n/a	n/a	n/a
679651	REC_WORD	wordpools/wasnorm_wordpool.txt	LTP110	ltpFR	16	5	1	SENATOR	1268	n/a	1	n/a	n/a	n/a	n/a	n/a
681298	REC_WORD	wordpools/wasnorm_wordpool.txt	LTP110	ltpFR	16	5	1	GOVERNOR	651	n/a	1	n/a	n/a	n/a	n/a	n/a
682036	REC_WORD	wordpools/wasnorm_wordpool.txt	LTP110	ltpFR	16	5	1	CUSTOMER	430	n/a	1	n/a	n/a	n/a	n/a	n/a
682893	REC_WORD	wordpools/wasnorm_wordpool.txt	LTP110	ltpFR	16	5	1	CHEF	290	n/a	1	n/a	n/a	n/a	n/a	n/a
684196	REC_WORD	wordpools/wasnorm_wordpool.txt	LTP110	ltpFR	16	5	1	BULL	193	n/a	1	n/a	n/a	n/a	n/a	n/a
687828	REC_WORD	wordpools/wasnorm_wordpool.txt	LTP110	ltpFR	16	5	1	LITTER	832	n/a	0	n/a	n/a	n/a	n/a	n/a
688886	REC_WORD	wordpools/wasnorm_wordpool.txt	LTP110	ltpFR	16	5	1	CAFETERIA	217	n/a	0	n/a	n/a	n/a	n/a	n/a
690970	REC_WORD	wordpools/wasnorm_wordpool.txt	LTP110	ltpFR	16	5	1	SALAD	1224	n/a	0	n/a	n/a	n/a	n/a	n/a
691979	REC_WORD	wordpools/wasnorm_wordpool.txt	LTP110	ltpFR	16	5	1	BERRY	122	n/a	1	n/a	n/a	n/a	n/a	n/a
698369	REC_WORD	wordpools/wasnorm_wordpool.txt	LTP110	ltpFR	16	5	1	COMPUTER	359	n/a	0	n/a	n/a	n/a	n/a	n/a
750939	REC_WORD	wordpools/wasnorm_wordpool.txt	LTP110	ltpFR	16	5	0	JELLO	754	n/a	0	n/a	n/a	n/a	n/a	n/a
756615	WORD	wordpools/wasnorm_wordpool.txt	LTP110	ltpFR	16	6	1	PROFESSIONAL	1130	n/a	1	1	0.412841796875	0.57763671875	upper	../fonts/amplitud.ttf
760564	WORD	wordpools/wasnorm_wordpool.txt	LTP110	ltpFR	16	6	1	CANDLE	229	n/a	0	1	0.412841796875	0.57763671875	upper	../fonts/amplitud.ttf
764696	WORD	wordpools/wasnorm_wordpool.txt	LTP110	ltpFR	16	6	1	MEDAL	885	n/a	0	1	0.412841796875	0.57763671875	upper	../fonts/amplitud.ttf
768719	WORD	wordpools/wasnorm_wordpool.txt	LTP110	ltpFR	16	6	0	BEAD	103	n/a	0	0	0.5869140625	0.422607421875	lower	../fonts/zerothre.ttf
772660	WORD	wordpools/wasnorm_wordpool.txt	LTP110	ltpFR	16	6	0	STADIUM	1364	n/a	1	0	0.5869140625	0.422607421875	lower	../fonts/zerothre.ttf
776675	WORD	wordpools/wasnorm_wordpool.txt	LTP110	ltpFR	16	6	0	CHAUFFEUR	283	n/a	1	0	0.5869140625	0.422607421875	lower	../fonts/zerothre.ttf
780682	WORD	wordpools/wasnorm_wordpool.txt	LTP110	ltpFR	16	6	0	BRANCH	168	n/a	0	0	0.5869140625	0.422607421875	lower	../fonts/zerothre.ttf
784789	WORD	wordpools/wasnorm_wordpool.txt	LTP110	ltpFR	16	6	1	PORCH	1106	n/a	0	1	0.412841796875	0.57763671875	upper	../fonts/amplitud.ttf
788687	WORD	wordpools/wasnorm_wordpool.txt	LTP110	ltpFR	16	6	1	SUPERMARKET	1409	n/a	0	1	0.412841796875	0.57763671875	upper	../fonts/amplitud.ttf
792594	WORD	wordpools/wasnorm_wordpool.txt	LTP110	ltpFR	16	6	1	THICKET	1455	n/a	0	1	0.412841796875	0.57763671875	upper	../fonts/amplitud.ttf
796626	WORD	wordpools/wasnorm_wordpool.txt	LTP110	ltpFR	16	6	1	NECK	939	n/a	0	1	0.412841796875	0.57763671875	upper	../fonts/amplitud.ttf
800691	WORD	wordpools/wasnorm_wordpool.txt	LTP110	ltpFR	16	6	1	SALIVA	1226	n/a	0	1	0.412841796875	0.57763671875	upper	../fonts/amplitud.ttf
804607	WORD	wordpools/wasnorm_wordpool.txt	LTP110	ltpFR	16	6	0	REFRIGERATOR	1179	n/a	1	0	0.5869140625	0.422607421875	lower	../fonts/zerothre.ttf
808539	WORD	wordpools/wasnorm_wordpool.txt	LTP110	ltpFR	16	6	0	FLEA	577	n/a	0	0	0.5869140625	0.422607421875	lower	../fonts/zerothre.ttf
812712	WORD	wordpools/wasnorm_wordpool.txt	LTP110	ltpFR	16	6	0	WOLF	1619	n/a	1	0	0.5869140625	0.422607421875	lower	../fonts/zerothre.ttf
816578	WORD	wordpools/wasnorm_wordpool.txt	LTP110	ltpFR	16	6	0	COMPANION	357	n/a	1	0	0.5869140625	0.422607421875	lower	../fonts/zerothre.ttf
822493	REC_START	n/a	LTP110	ltpFR	16	6	n/a	n/a	n/a	n/a	n/a	n/a	n/a	n/a	n/a	n/a
823296	REC_WORD	wordpools/wasnorm_wordpool.txt	LTP110	ltpFR	16	6	0	WOLF	1619	n/a	1	n/a	n/a	n/a	n/a	n/a
824139	REC_WORD	wordpools/wasnorm_wordpool.txt	LTP110	ltpFR	16	6	0	COMPANION	357	n/a	1	n/a	n/a	n/a	n/a	n/a
825127	REC_WORD	wordpools/wasnorm_wordpool.txt	LTP110	ltpFR	16	6	1	PROFESSIONAL	1130	n/a	1	n/a	n/a	n/a	n/a	n/a
828015	REC_WORD	wordpools/wasnorm_wordpool.txt	LTP110	ltpFR	16	6	1	CANDLE	229	n/a	0	n/a	n/a	n/a	n/a	n/a
828723	REC_WORD	wordpools/wasnorm_wordpool.txt	LTP110	ltpFR	16	6	1	MEDAL	885	n/a	0	n/a	n/a	n/a	n/a	n/a
829537	REC_WORD	wordpools/wasnorm_wordpool.txt	LTP110	ltpFR	16	6	0	FLEA	577	n/a	0	n/a	n/a	n/a	n/a	n/a
832635	REC_WORD	wordpools/wasnorm_wordpool.txt	LTP110	ltpFR	16	6	0	BEAD	103	n/a	0	n/a	n/a	n/a	n/a	n/a
835527	REC_WORD	wordpools/wasnorm_wordpool.txt	LTP110	ltpFR	16	6	0	STADIUM	1364	n/a	1	n/a	n/a	n/a	n/a	n/a
857563	REC_WORD	wordpools/wasnorm_wordpool.txt	LTP110	ltpFR	16	6	0	REFRIGERATOR	1179	n/a	1	n/a	n/a	n/a	n/a	n/a
902939	WORD	wordpools/wasnorm_wordpool.txt	LTP110	ltpFR	16	7	-1	CATCHER	258	n/a	-1	1	1.0	1.0	upper	../fonts/Verdana.ttf
907079	WORD	wordpools/wasnorm_wordpool.txt	LTP110	ltpFR	16	7	-1	CONTRACT	368	n/a	-1	1	1.0	1.0	upper	../fonts/Verdana.ttf
911152	WORD	wordpools/wasnorm_wordpool.txt	LTP110	ltpFR	16	7	-1	TEAM	1441	n/a	-1	1	1.0	1.0	upper	../fonts/Verdana.ttf
915242	WORD	wordpools/wasnorm_wordpool.txt	LTP110	ltpFR	16	7	-1	COP	376	n/a	-1	1	1.0	1.0	upper	../fonts/Verdana.ttf
919324	WORD	wordpools/wasnorm_wordpool.txt	LTP110	ltpFR	16	7	-1	BOTTLE	153	n/a	-1	1	1.0	1.0	upper	../fonts/Verdana.ttf
923431	WORD	wordpools/wasnorm_wordpool.txt	LTP110	ltpFR	16	7	-1	ISLAND	745	n/a	-1	1	1.0	1.0	upper	../fonts/Verdana.ttf
927305	WORD	wordpools/wasnorm_wordpool.txt	LTP110	ltpFR	16	7	-1	CREW	406	n/a	-1	1	1.0	1.0	upper	../fonts/Verdana.ttf
931478	WORD	wordpools/wasnorm_wordpool.txt	LTP110	ltpFR	16	7	-1	TUBE	1516	n/a	-1	1	1.0	1.0	upper	../fonts/Verdana.ttf
935502	WORD	wordpools/wasnorm_wordpool.txt	LTP110	ltpFR	16	7	-1	VAMPIRE	1547	n/a	-1	1	1.0	1.0	upper	../fonts/Verdana.ttf
939676	WORD	wordpools/wasnorm_wordpool.txt	LTP110	ltpFR	16	7	-1	STEAM	1375	n/a	-1	1	1.0	1.0	upper	../fonts/Verdana.ttf
943574	WORD	wordpools/wasnorm_wordpool.txt	LTP110	ltpFR	16	7	-1	ICING	732	n/a	-1	1	1.0	1.0	upper	../fonts/Verdana.ttf
947648	WORD	wordpools/wasnorm_wordpool.txt	LTP110	ltpFR	16	7	-1	CHOCOLATE	306	n/a	-1	1	1.0	1.0	upper	../fonts/Verdana.ttf
951746	WORD	wordpools/wasnorm_wordpool.txt	LTP110	ltpFR	16	7	-1	PATROL	1027	n/a	-1	1	1.0	1.0	upper	../fonts/Verdana.ttf
955945	WORD	wordpools/wasnorm_wordpool.txt	LTP110	ltpFR	16	7	-1	KETTLE	772	n/a	-1	1	1.0	1.0	upper	../fonts/Verdana.ttf
960127	WORD	wordpools/wasnorm_wordpool.txt	LTP110	ltpFR	16	7	-1	COFFEE	341	n/a	-1	1	1.0	1.0	upper	../fonts/Verdana.ttf
963992	WORD	wordpools/wasnorm_wordpool.txt	LTP110	ltpFR	16	7	-1	PICNIC	1060	n/a	-1	1	1.0	1.0	upper	../fonts/Verdana.ttf
969641	REC_START	n/a	LTP110	ltpFR	16	7	n/a	n/a	n/a	n/a	n/a	n/a	n/a	n/a	n/a	n/a
970399	REC_WORD	wordpools/wasnorm_wordpool.txt	LTP110	ltpFR	16	7	-1	COFFEE	341	n/a	-1	n/a	n/a	n/a	n/a	n/a
971247	REC_WORD	wordpools/wasnorm_wordpool.txt	LTP110	ltpFR	16	7	-1	CHOCOLATE	306	n/a	-1	n/a	n/a	n/a	n/a	n/a
972719	REC_WORD	wordpools/wasnorm_wordpool.txt	LTP110	ltpFR	16	7	-1	KETTLE	772	n/a	-1	n/a	n/a	n/a	n/a	n/a
981878	REC_WORD	wordpools/wasnorm_wordpool.txt	LTP110	ltpFR	16	7	-1	CATCHER	258	n/a	-1	n/a	n/a	n/a	n/a	n/a
982786	REC_WORD	wordpools/wasnorm_wordpool.txt	LTP110	ltpFR	16	7	-1	CONTRACT	368	n/a	-1	n/a	n/a	n/a	n/a	n/a
983786	REC_WORD_VV	wordpools/wasnorm_wordpool.txt	LTP110	ltpFR	16	7	n/a	<>	-1	n/a	n/a	n/a	n/a	n/a	n/a	n/a
985001	REC_WORD	wordpools/wasnorm_wordpool.txt	LTP110	ltpFR	16	7	-1	TEAM	1441	n/a	-1	n/a	n/a	n/a	n/a	n/a
987565	REC_WORD	wordpools/wasnorm_wordpool.txt	LTP110	ltpFR	16	7	-1	COP	376	n/a	-1	n/a	n/a	n/a	n/a	n/a
988568	REC_WORD	wordpools/wasnorm_wordpool.txt	LTP110	ltpFR	16	7	-1	CREW	406	n/a	-1	n/a	n/a	n/a	n/a	n/a
990508	REC_WORD	wordpools/wasnorm_wordpool.txt	LTP110	ltpFR	16	7	-1	TUBE	1516	n/a	-1	n/a	n/a	n/a	n/a	n/a
992898	REC_WORD	wordpools/wasnorm_wordpool.txt	LTP110	ltpFR	16	7	-1	PATROL	1027	n/a	-1	n/a	n/a	n/a	n/a	n/a
1022640	REC_WORD	wordpools/wasnorm_wordpool.txt	LTP110	ltpFR	16	7	-1	COFFEE	341	n/a	-1	n/a	n/a	n/a	n/a	n/a
1048145	WORD	wordpools/wasnorm_wordpool.txt	LTP110	ltpFR	16	8	0	CHAMBER	277	n/a	1	0	0.5869140625	0.422607421875	lower	../fonts/zerothre.ttf
1052235	WORD	wordpools/wasnorm_wordpool.txt	LTP110	ltpFR	16	8	0	CRIMINAL	409	n/a	1	0	0.5869140625	0.422607421875	lower	../fonts/zerothre.ttf
1056326	WORD	wordpools/wasnorm_wordpool.txt	LTP110	ltpFR	16	8	0	EMERALD	528	n/a	0	0	0.5869140625	0.422607421875	lower	../fonts/zerothre.ttf
1060174	WORD	wordpools/wasnorm_wordpool.txt	LTP110	ltpFR	16	8	0	JEWEL	757	n/a	0	0	0.5869140625	0.422607421875	lower	../fonts/zerothre.ttf
1064065	WORD	wordpools/wasnorm_wordpool.txt	LTP110	ltpFR	16	8	0	FLOWER	584	n/a	0	0	0.5869140625	0.422607421875	lower	../fonts/zerothre.ttf
1068105	WORD	wordpools/wasnorm_wordpool.txt	LTP110	ltpFR	16	8	0	PEDAL	1037	n/a	0	0	0.5869140625	0.422607421875	lower	../fonts/zerothre.ttf
1072278	WORD	wordpools/wasnorm_wordpool.txt	LTP110	ltpFR	16	8	0	BELT	120	n/a	0	0	0.5869140625	0.422607421875	lower	../fonts/zerothre.ttf
1076152	WORD	wordpools/wasnorm_wordpool.txt	LTP110	ltpFR	16	8	0	SCIENTIST	1249	n/a	1	0	0.5869140625	0.422607421875	lower	../fonts/zerothre.ttf
1079984	WORD	wordpools/wasnorm_wordpool.txt	LTP110	ltpFR	16	8	0	CLIPPERS	324	n/a	n/a	0	0.5869140625	0.422607421875	lower	../fonts/zerothre.ttf
1083008	SLOW_MSG	n/a	LTP110	ltpFR	16	8	n/a	n/a	n/a	n/a	n/a	n/a	n/a	n/a	n/a	n/a
1085382	WORD	wordpools/wasnorm_wordpool.txt	LTP110	ltpFR	16	8	0	MANSION	864	n/a	1	0	0.5869140625	0.422607421875	lower	../fonts/zerothre.ttf
1089256	WORD	wordpools/wasnorm_wordpool.txt	LTP110	ltpFR	16	8	0	HURRICANE	727	n/a	1	0	0.5869140625	0.422607421875	lower	../fonts/zerothre.ttf
1093346	WORD	wordpools/wasnorm_wordpool.txt	LTP110	ltpFR	16	8	0	CLOCK	325	n/a	1	0	0.5869140625	0.422607421875	lower	../fonts/zerothre.ttf
1097186	WORD	wordpools/wasnorm_wordpool.txt	LTP110	ltpFR	16	8	0	BANKER	84	n/a	1	0	0.5869140625	0.422607421875	lower	../fonts/zerothre.ttf
1101135	WORD	wordpools/wasnorm_wordpool.txt	LTP110	ltpFR	16	8	0	CYCLONE	431	n/a	1	0	0.5869140625	0.422607421875	lower	../fonts/zerothre.ttf
1105017	WORD	wordpools/wasnorm_wordpool.txt	LTP110	ltpFR	16	8	0	RAZOR	1171	n/a	0	0	0.5869140625	0.422607421875	lower	../fonts/zerothre.ttf
1108899	WORD	wordpools/wasnorm_wordpool.txt	LTP110	ltpFR	16	8	0	SEA	1259	n/a	1	0	0.5869140625	0.422607421875	lower	../fonts/zerothre.ttf
1114839	REC_START	n/a	LTP110	ltpFR	16	8	n/a	n/a	n/a	n/a	n/a	n/a	n/a	n/a	n/a	n/a
1117313	REC_WORD	wordpools/wasnorm_wordpool.txt	LTP110	ltpFR	16	8	0	CYCLONE	431	n/a	1	n/a	n/a	n/a	n/a	n/a
1118134	REC_WORD	wordpools/wasnorm_wordpool.txt	LTP110	ltpFR	16	8	0	HURRICANE	727	n/a	1	n/a	n/a	n/a	n/a	n/a
1119103	REC_WORD	wordpools/wasnorm_wordpool.txt	LTP110	ltpFR	16	8	0	MANSION	864	n/a	1	n/a	n/a	n/a	n/a	n/a
1120491	REC_WORD	wordpools/wasnorm_wordpool.txt	LTP110	ltpFR	16	8	0	CHAMBER	277	n/a	1	n/a	n/a	n/a	n/a	n/a
1121224	REC_WORD	wordpools/wasnorm_wordpool.txt	LTP110	ltpFR	16	8	0	CRIMINAL	409	n/a	1	n/a	n/a	n/a	n/a	n/a
1122087	REC_WORD	wordpools/wasnorm_wordpool.txt	LTP110	ltpFR	16	8	0	EMERALD	528	n/a	0	n/a	n/a	n/a	n/a	n/a
1122831	REC_WORD	wordpools/wasnorm_wordpool.txt	LTP110	ltpFR	16	8	0	JEWEL	757	n/a	0	n/a	n/a	n/a	n/a	n/a
1124696	REC_WORD	wordpools/wasnorm_wordpool.txt	LTP110	ltpFR	16	8	0	CLIPPERS	324	n/a	n/a	n/a	n/a	n/a	n/a	n/a
1126762	REC_WORD	wordpools/wasnorm_wordpool.txt	LTP110	ltpFR	16	8	0	BANKER	84	n/a	1	n/a	n/a	n/a	n/a	n/a
1131451	REC_WORD	wordpools/wasnorm_wordpool.txt	LTP110	ltpFR	16	8	0	FLOWER	584	n/a	0	n/a	n/a	n/a	n/a	n/a
1153666	REC_WORD	wordpools/wasnorm_wordpool.txt	LTP110	ltpFR	16	8	0	BANKER	84	n/a	1	n/a	n/a	n/a	n/a	n/a
1182355	REC_WORD	wordpools/wasnorm_wordpool.txt	LTP110	ltpFR	16	8	n/a	CAVE	263	n/a	n/a	n/a	n/a	n/a	n/a	n/a
1193877	WORD	wordpools/wasnorm_wordpool.txt	LTP110	ltpFR	16	9	0	DILL	465	n/a	0	0	0.5869140625	0.422607421875	lower	../fonts/zerothre.ttf
1197976	WORD	wordpools/wasnorm_wordpool.txt	LTP110	ltpFR	16	9	0	SHRINE	1298	n/a	1	0	0.5869140625	0.422607421875	lower	../fonts/zerothre.ttf
1201899	WORD	wordpools/wasnorm_wordpool.txt	LTP110	ltpFR	16	9	0	STAFF	1365	n/a	1	0	0.5869140625	0.422607421875	lower	../fonts/zerothre.ttf
1205898	WORD	wordpools/wasnorm_wordpool.txt	LTP110	ltpFR	16	9	1	FOOT	590	n/a	0	1	0.412841796875	0.57763671875	upper	../fonts/amplitud.ttf
1209805	WORD	wordpools/wasnorm_wordpool.txt	LTP110	ltpFR	16	9	1	LOBSTER	837	n/a	0	1	0.412841796875	0.57763671875	upper	../fonts/amplitud.ttf
1213837	WORD	wordpools/wasnorm_wordpool.txt	LTP110	ltpFR	16	9	1	SAUSAGE	1238	n/a	0	1	0.412841796875	0.57763671875	upper	../fonts/amplitud.ttf
1217902	WORD	wordpools/wasnorm_wordpool.txt	LTP110	ltpFR	16	9	1	PIG	1064	n/a	1	1	0.412841796875	0.57763671875	upper	../fonts/amplitud.ttf
1222034	WORD	wordpools/wasnorm_wordpool.txt	LTP110	ltpFR	16	9	0	ELBOW	520	n/a	0	0	0.5869140625	0.422607421875	lower	../fonts/zerothre.ttf
1225982	WORD	wordpools/wasnorm_wordpool.txt	LTP110	ltpFR	16	9	0	KNEE	784	n/a	0	0	0.5869140625	0.422607421875	lower	../fonts/zerothre.ttf
1229906	WORD	wordpools/wasnorm_wordpool.txt	LTP110	ltpFR	16	9	0	GRADUATE	653	n/a	1	0	0.5869140625	0.422607421875	lower	../fonts/zerothre.ttf
1233913	WORD	wordpools/wasnorm_wordpool.txt	LTP110	ltpFR	16	9	0	PAGE	1001	n/a	0	0	0.5869140625	0.422607421875	lower	../fonts/zerothre.ttf
1237820	WORD	wordpools/wasnorm_wordpool.txt	LTP110	ltpFR	16	9	0	CAB	209	n/a	1	0	0.5869140625	0.422607421875	lower	../fonts/zerothre.ttf
1241827	WORD	wordpools/wasnorm_wordpool.txt	LTP110	ltpFR	16	9	1	SQUID	1361	n/a	1	1	0.412841796875	0.57763671875	upper	../fonts/amplitud.ttf
1245992	WORD	wordpools/wasnorm_wordpool.txt	LTP110	ltpFR	16	9	1	CUSTARD	429	n/a	0	1	0.412841796875	0.57763671875	upper	../fonts/amplitud.ttf
1249891	WORD	wordpools/wasnorm_wordpool.txt	LTP110	ltpFR	16	9	1	SHORTCAKE	1292	n/a	0	1	0.412841796875	0.57763671875	upper	../fonts/amplitud.ttf
1254014	WORD	wordpools/wasnorm_wordpool.txt	LTP110	ltpFR	16	9	1	NAPKIN	937	n/a	0	1	0.412841796875	0.57763671875	upper	../fonts/amplitud.ttf
1259738	REC_START	n/a	LTP110	ltpFR	16	9	n/a	n/a	n/a	n/a	n/a	n/a	n/a	n/a	n/a	n/a
1260321	REC_WORD	wordpools/wasnorm_wordpool.txt	LTP110	ltpFR	16	9	n/a	CUPCAKE	-1	n/a	n/a	n/a	n/a	n/a	n/a	n/a
1261948	REC_WORD_VV	wordpools/wasnorm_wordpool.txt	LTP110	ltpFR	16	9	n/a	<>	-1	n/a	n/a	n/a	n/a	n/a	n/a	n/a
1263604	REC_WORD	wordpools/wasnorm_wordpool.txt	LTP110	ltpFR	16	9	1	SHORTCAKE	1292	n/a	0	n/a	n/a	n/a	n/a	n/a
1272304	REC_WORD	wordpools/wasnorm_wordpool.txt	LTP110	ltpFR	16	9	1	SQUID	1361	n/a	1	n/a	n/a	n/a	n/a	n/a
1274988	REC_WORD	wordpools/wasnorm_wordpool.txt	LTP110	ltpFR	16	9	1	LOBSTER	837	n/a	0	n/a	n/a	n/a	n/a	n/a
1284122	REC_WORD	wordpools/wasnorm_wordpool.txt	LTP110	ltpFR	16	9	0	DILL	465	n/a	0	n/a	n/a	n/a	n/a	n/a
1286307	REC_WORD	wordpools/wasnorm_wordpool.txt	LTP110	ltpFR	16	9	0	SHRINE	1298	n/a	1	n/a	n/a	n/a	n/a	n/a
1287484	REC_WORD	wordpools/wasnorm_wordpool.txt	LTP110	ltpFR	16	9	1	FOOT	590	n/a	0	n/a	n/a	n/a	n/a	n/a
1290094	REC_WORD	wordpools/wasnorm_wordpool.txt	LTP110	ltpFR	16	9	1	PIG	1064	n/a	1	n/a	n/a	n/a	n/a	n/a
1290842	REC_WORD	wordpools/wasnorm_wordpool.txt	LTP110	ltpFR	16	9	1	SAUSAGE	1238	n/a	0	n/a	n/a	n/a	n/a	n/a
1291842	REC_WORD_VV	wordpools/wasnorm_wordpool.txt	LTP110	ltpFR	16	9	n/a	<>	-1	n/a	n/a	n/a	n/a	n/a	n/a	n/a
1300095	REC_WORD	wordpools/wasnorm_wordpool.txt	LTP110	ltpFR	16	9	0	STAFF	1365	n/a	1	n/a	n/a	n/a	n/a	n/a
1337734	WORD	wordpools/wasnorm_wordpool.txt	LTP110	ltpFR	16	10	0	SPATULA	1348	n/a	0	0	0.5869140625	0.422607421875	lower	../fonts/zerothre.ttf
1341616	WORD	wordpools/wasnorm_wordpool.txt	LTP110	ltpFR	16	10	0	VET	1560	n/a	1	0	0.5869140625	0.422607421875	lower	../fonts/zerothre.ttf
1345632	WORD	wordpools/wasnorm_wordpool.txt	LTP110	ltpFR	16	10	1	PHYSICIAN	1056	n/a	1	1	0.412841796875	0.57763671875	upper	../fonts/amplitud.ttf
1349714	WORD	wordpools/wasnorm_wordpool.txt	LTP110	ltpFR	16	10	1	SEAL	1262	n/a	1	1	0.412841796875	0.57763671875	upper	../fonts/amplitud.ttf
1353654	WORD	wordpools/wasnorm_wordpool.txt	LTP110	ltpFR	16	10	1	BRANDY	169	n/a	0	1	0.412841796875	0.57763671875	upper	../fonts/amplitud.ttf
1357544	WORD	wordpools/wasnorm_wordpool.txt	LTP110	ltpFR	16	10	1	HOME	712	n/a	0	1	0.412841796875	0.57763671875	upper	../fonts/amplitud.ttf
1361401	WORD	wordpools/wasnorm_wordpool.txt	LTP110	ltpFR	16	10	1	KEEPER	769	n/a	1	1	0.412841796875	0.57763671875	upper	../fonts/amplitud.ttf
1365325	WORD	wordpools/wasnorm_wordpool.txt	LTP110	ltpFR	16	10	0	HOE	711	n/a	1	0	0.5869140625	0.422607421875	lower	../fonts/zerothre.ttf
1369523	WORD	wordpools/wasnorm_wordpool.txt	LTP110	ltpFR	16	10	0	TIE	1466	n/a	0	0	0.5869140625	0.422607421875	lower	../fonts/zerothre.ttf
1373622	WORD	wordpools/wasnorm_wordpool.txt	LTP110	ltpFR	16	10	1	VOLCANO	1575	n/a	0	1	0.412841796875	0.57763671875	upper	../fonts/amplitud.ttf
1377687	WORD	wordpools/wasnorm_wordpool.txt	LTP110	ltpFR	16	10	1	SEAGULL	1261	n/a	1	1	0.412841796875	0.57763671875	upper	../fonts/amplitud.ttf
1381877	WORD	wordpools/wasnorm_wordpool.txt	LTP110	ltpFR	16	10	1	FEATHER	557	n/a	0	1	0.412841796875	0.57763671875	upper	../fonts/amplitud.ttf
1385851	WORD	wordpools/wasnorm_wordpool.txt	LTP110	ltpFR	16	10	0	DINER	467	n/a	1	0	0.5869140625	0.422607421875	lower	../fonts/zerothre.ttf
1389908	WORD	wordpools/wasnorm_wordpool.txt	LTP110	ltpFR	16	10	0	GROUND	666	n/a	1	0	0.5869140625	0.422607421875	lower	../fonts/zerothre.ttf
1393998	WORD	wordpools/wasnorm_wordpool.txt	LTP110	ltpFR	16	10	0	STRING	1394	n/a	0	0	0.5869140625	0.422607421875	lower	../fonts/zerothre.ttf
1398096	WORD	wordpools/wasnorm_wordpool.txt	LTP110	ltpFR	16	10	0	NUT	965	n/a	0	0	0.5869140625	0.422607421875	lower	../fonts/zerothre.ttf
1404020	REC_START	n/a	LTP110	ltpFR	16	10	n/a	n/a	n/a	n/a	n/a	n/a	n/a	n/a	n/a	n/a
1405152	REC_WORD	wordpools/wasnorm_wordpool.txt	LTP110	ltpFR	16	10	0	STRING	1394	n/a	0	n/a	n/a	n/a	n/a	n/a
1405968	REC_WORD	wordpools/wasnorm_wordpool.txt	LTP110	ltpFR	16	10	0	NUT	965	n/a	0	n/a	n/a	n/a	n/a	n/a
1406918	REC_WORD	wordpools/wasnorm_wordpool.txt	LTP110	ltpFR	16	10	0	DINER	467	n/a	1	n/a	n/a	n/a	n/a	n/a
1410575	REC_WORD	wordpools/wasnorm_wordpool.txt	LTP110	ltpFR	16	10	1	VOLCANO	1575	n/a	0	n/a	n/a	n/a	n/a	n/a
1411575	REC_WORD_VV	wordpools/wasnorm_wordpool.txt	LTP110	ltpFR	16	10	n/a	<>	-1	n/a	n/a	n/a	n/a	n/a	n/a	n/a
1413179	REC_WORD	wordpools/wasnorm_wordpool.txt	LTP110	ltpFR	16	10	1	FEATHER	557	n/a	0	n/a	n/a	n/a	n/a	n/a
1413876	REC_WORD	wordpools/wasnorm_wordpool.txt	LTP110	ltpFR	16	10	1	SEAGULL	1261	n/a	1	n/a	n/a	n/a	n/a	n/a
1416856	REC_WORD	wordpools/wasnorm_wordpool.txt	LTP110	ltpFR	16	10	1	SEAL	1262	n/a	1	n/a	n/a	n/a	n/a	n/a
1418841	REC_WORD	wordpools/wasnorm_wordpool.txt	LTP110	ltpFR	16	10	0	VET	1560	n/a	1	n/a	n/a	n/a	n/a	n/a
1419859	REC_WORD	wordpools/wasnorm_wordpool.txt	LTP110	ltpFR	16	10	1	PHYSICIAN	1056	n/a	1	n/a	n/a	n/a	n/a	n/a
1421824	REC_WORD	wordpools/wasnorm_wordpool.txt	LTP110	ltpFR	16	10	1	KEEPER	769	n/a	1	n/a	n/a	n/a	n/a	n/a
1433722	REC_WORD	wordpools/wasnorm_wordpool.txt	LTP110	ltpFR	16	10	0	SEA	1259	n/a	1	n/a	n/a	n/a	n/a	n/a
1447476	REC_WORD	wordpools/wasnorm_wordpool.txt	LTP110	ltpFR	16	10	n/a	ZOO	1637	n/a	n/a	n/a	n/a	n/a	n/a	n/a
1467640	REC_WORD	wordpools/wasnorm_wordpool.txt	LTP110	ltpFR	16	10	0	GROUND	666	n/a	1	n/a	n/a	n/a	n/a	n/a
1483616	WORD	wordpools/wasnorm_wordpool.txt	LTP110	ltpFR	16	11	0	PILL	1068	n/a	0	0	0.5869140625	0.422607421875	lower	../fonts/zerothre.ttf
1487656	WORD	wordpools/wasnorm_wordpool.txt	LTP110	ltpFR	16	11	0	CROWN	415	n/a	0	0	0.5869140625	0.422607421875	lower	../fonts/zerothre.ttf
1491796	WORD	wordpools/wasnorm_wordpool.txt	LTP110	ltpFR	16	11	0	EMPEROR	529	n/a	1	0	0.5869140625	0.422607421875	lower	../fonts/zerothre.ttf
1495662	WORD	wordpools/wasnorm_wordpool.txt	LTP110	ltpFR	16	11	0	FRAGRANCE	599	n/a	0	0	0.5869140625	0.422607421875	lower	../fonts/zerothre.ttf
1499652	WORD	wordpools/wasnorm_wordpool.txt	LTP110	ltpFR	16	11	0	MARBLE	867	n/a	1	0	0.5869140625	0.422607421875	lower	../fonts/zerothre.ttf
1503684	WORD	wordpools/wasnorm_wordpool.txt	LTP110	ltpFR	16	11	0	ONION	977	n/a	0	0	0.5869140625	0.422607421875	lower	../fonts/zerothre.ttf
1507683	WORD	wordpools/wasnorm_wordpool.txt	LTP110	ltpFR	16	11	0	CIGAR	308	n/a	0	0	0.5869140625	0.422607421875	lower	../fonts/zerothre.ttf
1511839	WORD	wordpools/wasnorm_wordpool.txt	LTP110	ltpFR	16	11	0	OWNER	993	n/a	1	0	0.5869140625	0.422607421875	lower	../fonts/zerothre.ttf
1515755	WORD	wordpools/wasnorm_wordpool.txt	LTP110	ltpFR	16	11	0	AUNT	60	n/a	1	0	0.5869140625	0.422607421875	lower	../fonts/zerothre.ttf
1519678	WORD	wordpools/wasnorm_wordpool.txt	LTP110	ltpFR	16	11	0	NEPHEW	942	n/a	1	0	0.5869140625	0.422607421875	lower	../fonts/zerothre.ttf
1523868	WORD	wordpools/wasnorm_wordpool.txt	LTP110	ltpFR	16	11	0	TABLET	1427	n/a	0	0	0.5869140625	0.422607421875	lower	../fonts/zerothre.ttf
1527859	WORD	wordpools/wasnorm_wordpool.txt	LTP110	ltpFR	16	11	0	DRUM	502	n/a	1	0	0.5869140625	0.422607421875	lower	../fonts/zerothre.ttf
1531974	WORD	wordpools/wasnorm_wordpool.txt	LTP110	ltpFR	16	11	0	ANIMAL	23	n/a	1	0	0.5869140625	0.422607421875	lower	../fonts/zerothre.ttf
1536172	WORD	wordpools/wasnorm_wordpool.txt	LTP110	ltpFR	16	11	0	CASHIER	254	n/a	1	0	0.5869140625	0.422607421875	lower	../fonts/zerothre.ttf
1540013	WORD	wordpools/wasnorm_wordpool.txt	LTP110	ltpFR	16	11	0	GLUE	643	n/a	0	0	0.5869140625	0.422607421875	lower	../fonts/zerothre.ttf
1544078	WORD	wordpools/wasnorm_wordpool.txt	LTP110	ltpFR	16	11	0	NURSE	963	n/a	1	0	0.5869140625	0.422607421875	lower	../fonts/zerothre.ttf
1549885	REC_START	n/a	LTP110	ltpFR	16	11	n/a	n/a	n/a	n/a	n/a	n/a	n/a	n/a	n/a	n/a
1550608	REC_WORD	wordpools/wasnorm_wordpool.txt	LTP110	ltpFR	16	11	0	DRUM	502	n/a	1	n/a	n/a	n/a	n/a	n/a
1551237	REC_WORD	wordpools/wasnorm_wordpool.txt	LTP110	ltpFR	16	11	0	CASHIER	254	n/a	1	n/a	n/a	n/a	n/a	n/a
1552138	REC_WORD	wordpools/wasnorm_wordpool.txt	LTP110	ltpFR	16	11	0	NURSE	963	n/a	1	n/a	n/a	n/a	n/a	n/a
1553003	REC_WORD	wordpools/wasnorm_wordpool.txt	LTP110	ltpFR	16	11	0	GLUE	643	n/a	0	n/a	n/a	n/a	n/a	n/a
1555093	REC_WORD	wordpools/wasnorm_wordpool.txt	LTP110	ltpFR	16	11	0	MARBLE	867	n/a	1	n/a	n/a	n/a	n/a	n/a
1555946	REC_WORD	wordpools/wasnorm_wordpool.txt	LTP110	ltpFR	16	11	0	OWNER	993	n/a	1	n/a	n/a	n/a	n/a	n/a
1556829	REC_WORD	wordpools/wasnorm_wordpool.txt	LTP110	ltpFR	16	11	0	EMPEROR	529	n/a	1	n/a	n/a	n/a	n/a	n/a
1558405	REC_WORD	wordpools/wasnorm_wordpool.txt	LTP110	ltpFR	16	11	0	CROWN	415	n/a	0	n/a	n/a	n/a	n/a	n/a
1560141	REC_WORD	wordpools/wasnorm_wordpool.txt	LTP110	ltpFR	16	11	0	CIGAR	308	n/a	0	n/a	n/a	n/a	n/a	n/a
1561309	REC_WORD	wordpools/wasnorm_wordpool.txt	LTP110	ltpFR	16	11	0	PILL	1068	n/a	0	n/a	n/a	n/a	n/a	n/a
1562815	REC_WORD	wordpools/wasnorm_wordpool.txt	LTP110	ltpFR	16	11	0	TABLET	1427	n/a	0	n/a	n/a	n/a	n/a	n/a
1578734	REC_WORD	wordpools/wasnorm_wordpool.txt	LTP110	ltpFR	16	11	0	PILL	1068	n/a	0	n/a	n/a	n/a	n/a	n/a
1587370	REC_WORD	wordpools/wasnorm_wordpool.txt	LTP110	ltpFR	16	11	0	PILLOW	1069	n/a	1	n/a	n/a	n/a	n/a	n/a
1609829	REC_WORD	wordpools/wasnorm_wordpool.txt	LTP110	ltpFR	16	11	0	AUNT	60	n/a	1	n/a	n/a	n/a	n/a	n/a
1610507	REC_WORD	wordpools/wasnorm_wordpool.txt	LTP110	ltpFR	16	11	0	NEPHEW	942	n/a	1	n/a	n/a	n/a	n/a	n/a
1630564	WORD	wordpools/wasnorm_wordpool.txt	LTP110	ltpFR	16	12	-1	ANTEATER	26	n/a	-1	1	1.0	1.0	upper	../fonts/Verdana.ttf
1634704	WORD	wordpools/wasnorm_wordpool.txt	LTP110	ltpFR	16	12	-1	BUG	187	n/a	-1	1	1.0	1.0	upper	../fonts/Verdana.ttf
1638669	WORD	wordpools/wasnorm_wordpool.txt	LTP110	ltpFR	16	12	-1	DAISY	435	n/a	-1	1	1.0	1.0	upper	../fonts/Verdana.ttf
1642801	WORD	wordpools/wasnorm_wordpool.txt	LTP110	ltpFR	16	12	-1	YOUTH	1634	n/a	-1	1	1.0	1.0	upper	../fonts/Verdana.ttf
1646775	WORD	wordpools/wasnorm_wordpool.txt	LTP110	ltpFR	16	12	-1	INSECT	740	n/a	-1	1	1.0	1.0	upper	../fonts/Verdana.ttf
1650882	WORD	wordpools/wasnorm_wordpool.txt	LTP110	ltpFR	16	12	-1	PAW	1029	n/a	-1	1	1.0	1.0	upper	../fonts/Verdana.ttf
1654730	WORD	wordpools/wasnorm_wordpool.txt	LTP110	ltpFR	16	12	-1	PELT	1040	n/a	-1	1	1.0	1.0	upper	../fonts/Verdana.ttf
1658562	WORD	wordpools/wasnorm_wordpool.txt	LTP110	ltpFR	16	12	-1	SHEEP	1278	n/a	-1	1	1.0	1.0	upper	../fonts/Verdana.ttf
1662636	WORD	wordpools/wasnorm_wordpool.txt	LTP110	ltpFR	16	12	-1	HAND	683	n/a	-1	1	1.0	1.0	upper	../fonts/Verdana.ttf
1666651	WORD	wordpools/wasnorm_wordpool.txt	LTP110	ltpFR	16	12	-1	CACTUS	215	n/a	-1	1	1.0	1.0	upper	../fonts/Verdana.ttf
1670683	WORD	wordpools/wasnorm_wordpool.txt	LTP110	ltpFR	16	12	-1	THREAD	1460	n/a	-1	1	1.0	1.0	upper	../fonts/Verdana.ttf
1674748	WORD	wordpools/wasnorm_wordpool.txt	LTP110	ltpFR	16	12	-1	SPOOL	1356	n/a	-1	1	1.0	1.0	upper	../fonts/Verdana.ttf
1678705	WORD	wordpools/wasnorm_wordpool.txt	LTP110	ltpFR	16	12	-1	SPIDER	1351	n/a	-1	1	1.0	1.0	upper	../fonts/Verdana.ttf
1682879	WORD	wordpools/wasnorm_wordpool.txt	LTP110	ltpFR	16	12	-1	COYOTE	396	n/a	-1	1	1.0	1.0	upper	../fonts/Verdana.ttf
1686802	WORD	wordpools/wasnorm_wordpool.txt	LTP110	ltpFR	16	12	-1	PREDATOR	1120	n/a	-1	1	1.0	1.0	upper	../fonts/Verdana.ttf
1690917	WORD	wordpools/wasnorm_wordpool.txt	LTP110	ltpFR	16	12	-1	OCTOPUS	971	n/a	-1	1	1.0	1.0	upper	../fonts/Verdana.ttf
1696725	REC_START	n/a	LTP110	ltpFR	16	12	n/a	n/a	n/a	n/a	n/a	n/a	n/a	n/a	n/a	n/a
1698750	REC_WORD	wordpools/wasnorm_wordpool.txt	LTP110	ltpFR	16	12	-1	THREAD	1460	n/a	-1	n/a	n/a	n/a	n/a	n/a
1699474	REC_WORD	wordpools/wasnorm_wordpool.txt	LTP110	ltpFR	16	12	-1	SPOOL	1356	n/a	-1	n/a	n/a	n/a	n/a	n/a
1701055	REC_WORD	wordpools/wasnorm_wordpool.txt	LTP110	ltpFR	16	12	-1	OCTOPUS	971	n/a	-1	n/a	n/a	n/a	n/a	n/a
1702631	REC_WORD	wordpools/wasnorm_wordpool.txt	LTP110	ltpFR	16	12	-1	COYOTE	396	n/a	-1	n/a	n/a	n/a	n/a	n/a
1703440	REC_WORD	wordpools/wasnorm_wordpool.txt	LTP110	ltpFR	16	12	-1	PREDATOR	1120	n/a	-1	n/a	n/a	n/a	n/a	n/a
1704821	REC_WORD	wordpools/wasnorm_wordpool.txt	LTP110	ltpFR	16	12	-1	CACTUS	215	n/a	-1	n/a	n/a	n/a	n/a	n/a
1706707	REC_WORD	wordpools/wasnorm_wordpool.txt	LTP110	ltpFR	16	12	-1	DAISY	435	n/a	-1	n/a	n/a	n/a	n/a	n/a
1707500	REC_WORD	wordpools/wasnorm_wordpool.txt	LTP110	ltpFR	16	12	-1	INSECT	740	n/a	-1	n/a	n/a	n/a	n/a	n/a
1708568	REC_WORD	wordpools/wasnorm_wordpool.txt	LTP110	ltpFR	16	12	-1	BUG	187	n/a	-1	n/a	n/a	n/a	n/a	n/a
1709635	REC_WORD	wordpools/wasnorm_wordpool.txt	LTP110	ltpFR	16	12	-1	PAW	1029	n/a	-1	n/a	n/a	n/a	n/a	n/a
1710194	REC_WORD	wordpools/wasnorm_wordpool.txt	LTP110	ltpFR	16	12	-1	HAND	683	n/a	-1	n/a	n/a	n/a	n/a	n/a
1711676	REC_WORD	wordpools/wasnorm_wordpool.txt	LTP110	ltpFR	16	12	-1	PELT	1040	n/a	-1	n/a	n/a	n/a	n/a	n/a
1712434	REC_WORD	wordpools/wasnorm_wordpool.txt	LTP110	ltpFR	16	12	-1	SHEEP	1278	n/a	-1	n/a	n/a	n/a	n/a	n/a
1717323	REC_WORD	wordpools/wasnorm_wordpool.txt	LTP110	ltpFR	16	12	-1	ANTEATER	26	n/a	-1	n/a	n/a	n/a	n/a	n/a
1719318	REC_WORD	wordpools/wasnorm_wordpool.txt	LTP110	ltpFR	16	12	-1	YOUTH	1634	n/a	-1	n/a	n/a	n/a	n/a	n/a
1747295	REC_WORD	wordpools/wasnorm_wordpool.txt	LTP110	ltpFR	16	12	n/a	DESERT	-1	n/a	n/a	n/a	n/a	n/a	n/a	n/a
1772322	REST_REWET	n/a	LTP110	ltpFR	16	12	n/a	n/a	n/a	n/a	n/a	n/a	n/a	n/a	n/a	n/a
2112426	WORD	wordpools/wasnorm_wordpool.txt	LTP110	ltpFR	16	13	-1	FRIAR	605	n/a	-1	1	1.0	1.0	upper	../fonts/Verdana.ttf
2116508	WORD	wordpools/wasnorm_wordpool.txt	LTP110	ltpFR	16	13	-1	CUP	424	n/a	-1	1	1.0	1.0	upper	../fonts/Verdana.ttf
2120657	WORD	wordpools/wasnorm_wordpool.txt	LTP110	ltpFR	16	13	-1	CAPITAL	238	n/a	-1	1	1.0	1.0	upper	../fonts/Verdana.ttf
2124697	WORD	wordpools/wasnorm_wordpool.txt	LTP110	ltpFR	16	13	-1	CENT	270	n/a	-1	1	1.0	1.0	upper	../fonts/Verdana.ttf
2128896	WORD	wordpools/wasnorm_wordpool.txt	LTP110	ltpFR	16	13	-1	SWAMP	1416	n/a	-1	1	1.0	1.0	upper	../fonts/Verdana.ttf
2133011	WORD	wordpools/wasnorm_wordpool.txt	LTP110	ltpFR	16	13	-1	MARSH	874	n/a	-1	1	1.0	1.0	upper	../fonts/Verdana.ttf
2136843	WORD	wordpools/wasnorm_wordpool.txt	LTP110	ltpFR	16	13	-1	DISH	474	n/a	-1	1	1.0	1.0	upper	../fonts/Verdana.ttf
2141041	WORD	wordpools/wasnorm_wordpool.txt	LTP110	ltpFR	16	13	-1	BREAD	170	n/a	-1	1	1.0	1.0	upper	../fonts/Verdana.ttf
2145215	WORD	wordpools/wasnorm_wordpool.txt	LTP110	ltpFR	16	13	-1	UNICORN	1538	n/a	-1	1	1.0	1.0	upper	../fonts/Verdana.ttf
2149237	WORD	wordpools/wasnorm_wordpool.txt	LTP110	ltpFR	16	13	-1	EAGLE	512	n/a	-1	1	1.0	1.0	upper	../fonts/Verdana.ttf
2153087	WORD	wordpools/wasnorm_wordpool.txt	LTP110	ltpFR	16	13	-1	CAGE	218	n/a	-1	1	1.0	1.0	upper	../fonts/Verdana.ttf
2156902	WORD	wordpools/wasnorm_wordpool.txt	LTP110	ltpFR	16	13	-1	CYLINDER	432	n/a	-1	1	1.0	1.0	upper	../fonts/Verdana.ttf
2160859	WORD	wordpools/wasnorm_wordpool.txt	LTP110	ltpFR	16	13	-1	LOG	841	n/a	-1	1	1.0	1.0	upper	../fonts/Verdana.ttf
2164766	WORD	wordpools/wasnorm_wordpool.txt	LTP110	ltpFR	16	13	-1	CHAPEL	280	n/a	-1	1	1.0	1.0	upper	../fonts/Verdana.ttf
2168831	WORD	wordpools/wasnorm_wordpool.txt	LTP110	ltpFR	16	13	-1	WEED	1599	n/a	-1	1	1.0	1.0	upper	../fonts/Verdana.ttf
2172888	WORD	wordpools/wasnorm_wordpool.txt	LTP110	ltpFR	16	13	-1	SHINGLE	1285	n/a	-1	1	1.0	1.0	upper	../fonts/Verdana.ttf
2178745	REC_START	n/a	LTP110	ltpFR	16	13	n/a	n/a	n/a	n/a	n/a	n/a	n/a	n/a	n/a	n/a
2180117	REC_WORD	wordpools/wasnorm_wordpool.txt	LTP110	ltpFR	16	13	-1	SHINGLE	1285	n/a	-1	n/a	n/a	n/a	n/a	n/a
2180985	REC_WORD	wordpools/wasnorm_wordpool.txt	LTP110	ltpFR	16	13	-1	WEED	1599	n/a	-1	n/a	n/a	n/a	n/a	n/a
2181838	REC_WORD	wordpools/wasnorm_wordpool.txt	LTP110	ltpFR	16	13	-1	CHAPEL	280	n/a	-1	n/a	n/a	n/a	n/a	n/a
2182838	REC_WORD_VV	wordpools/wasnorm_wordpool.txt	LTP110	ltpFR	16	13	n/a	<>	-1	n/a	n/a	n/a	n/a	n/a	n/a	n/a
2184586	REC_WORD	wordpools/wasnorm_wordpool.txt	LTP110	ltpFR	16	13	-1	FRIAR	605	n/a	-1	n/a	n/a	n/a	n/a	n/a
2185460	REC_WORD	wordpools/wasnorm_wordpool.txt	LTP110	ltpFR	16	13	-1	CUP	424	n/a	-1	n/a	n/a	n/a	n/a	n/a
2187405	REC_WORD	wordpools/wasnorm_wordpool.txt	LTP110	ltpFR	16	13	-1	CENT	270	n/a	-1	n/a	n/a	n/a	n/a	n/a
2188218	REC_WORD	wordpools/wasnorm_wordpool.txt	LTP110	ltpFR	16	13	-1	CAPITAL	238	n/a	-1	n/a	n/a	n/a	n/a	n/a
2190084	REC_WORD	wordpools/wasnorm_wordpool.txt	LTP110	ltpFR	16	13	-1	DISH	474	n/a	-1	n/a	n/a	n/a	n/a	n/a
2191675	REC_WORD	wordpools/wasnorm_wordpool.txt	LTP110	ltpFR	16	13	-1	BREAD	170	n/a	-1	n/a	n/a	n/a	n/a	n/a
2193641	REC_WORD	wordpools/wasnorm_wordpool.txt	LTP110	ltpFR	16	13	-1	CAGE	218	n/a	-1	n/a	n/a	n/a	n/a	n/a
2194366	REC_WORD	wordpools/wasnorm_wordpool.txt	LTP110	ltpFR	16	13	-1	UNICORN	1538	n/a	-1	n/a	n/a	n/a	n/a	n/a
2197916	REC_WORD	wordpools/wasnorm_wordpool.txt	LTP110	ltpFR	16	13	-1	SWAMP	1416	n/a	-1	n/a	n/a	n/a	n/a	n/a
2198889	REC_WORD	wordpools/wasnorm_wordpool.txt	LTP110	ltpFR	16	13	-1	MARSH	874	n/a	-1	n/a	n/a	n/a	n/a	n/a
2215850	REC_WORD	wordpools/wasnorm_wordpool.txt	LTP110	ltpFR	16	13	0	ANIMAL	23	n/a	1	n/a	n/a	n/a	n/a	n/a
2242565	REC_WORD	wordpools/wasnorm_wordpool.txt	LTP110	ltpFR	16	13	-1	EAGLE	512	n/a	-1	n/a	n/a	n/a	n/a	n/a
2257417	WORD	wordpools/wasnorm_wordpool.txt	LTP110	ltpFR	16	14	1	FUNGUS	614	n/a	0	1	0.412841796875	0.57763671875	upper	../fonts/amplitud.ttf
2261565	WORD	wordpools/wasnorm_wordpool.txt	LTP110	ltpFR	16	14	1	BLANKET	135	n/a	0	1	0.412841796875	0.57763671875	upper	../fonts/amplitud.ttf
2265380	WORD	wordpools/wasnorm_wordpool.txt	LTP110	ltpFR	16	14	1	MATTRESS	879	n/a	0	1	0.412841796875	0.57763671875	upper	../fonts/amplitud.ttf
2269287	WORD	wordpools/wasnorm_wordpool.txt	LTP110	ltpFR	16	14	1	LIMB	822	n/a	0	1	0.412841796875	0.57763671875	upper	../fonts/amplitud.ttf
2273235	WORD	wordpools/wasnorm_wordpool.txt	LTP110	ltpFR	16	14	1	SENATE	1267	n/a	0	1	0.412841796875	0.57763671875	upper	../fonts/amplitud.ttf
2277351	WORD	wordpools/wasnorm_wordpool.txt	LTP110	ltpFR	16	14	1	SPY	1360	n/a	1	1	0.412841796875	0.57763671875	upper	../fonts/amplitud.ttf
2281224	WORD	wordpools/wasnorm_wordpool.txt	LTP110	ltpFR	16	14	1	SURF	1412	n/a	0	1	0.412841796875	0.57763671875	upper	../fonts/amplitud.ttf
2285273	WORD	wordpools/wasnorm_wordpool.txt	LTP110	ltpFR	16	14	1	CORN	381	n/a	0	1	0.412841796875	0.57763671875	upper	../fonts/amplitud.ttf
2289264	WORD	wordpools/wasnorm_wordpool.txt	LTP110	ltpFR	16	14	1	SYRUP	1425	n/a	0	1	0.412841796875	0.57763671875	upper	../fonts/amplitud.ttf
2293412	WORD	wordpools/wasnorm_wordpool.txt	LTP110	ltpFR	16	14	1	MAPLE	866	n/a	0	1	0.412841796875	0.57763671875	upper	../fonts/amplitud.ttf
2297253	WORD	wordpools/wasnorm_wordpool.txt	LTP110	ltpFR	16	14	1	STREAM	1392	n/a	0	1	0.412841796875	0.57763671875	upper	../fonts/amplitud.ttf
2301184	WORD	wordpools/wasnorm_wordpool.txt	LTP110	ltpFR	16	14	1	PORPOISE	1109	n/a	1	1	0.412841796875	0.57763671875	upper	../fonts/amplitud.ttf
2305108	WORD	wordpools/wasnorm_wordpool.txt	LTP110	ltpFR	16	14	1	SURVEY	1414	n/a	0	1	0.412841796875	0.57763671875	upper	../fonts/amplitud.ttf
2308973	WORD	wordpools/wasnorm_wordpool.txt	LTP110	ltpFR	16	14	1	GIRL	637	n/a	1	1	0.412841796875	0.57763671875	upper	../fonts/amplitud.ttf
2313114	WORD	wordpools/wasnorm_wordpool.txt	LTP110	ltpFR	16	14	1	JOKER	759	n/a	1	1	0.412841796875	0.57763671875	upper	../fonts/amplitud.ttf
2317012	WORD	wordpools/wasnorm_wordpool.txt	LTP110	ltpFR	16	14	1	APPENDAGE	32	n/a	0	1	0.412841796875	0.57763671875	upper	../fonts/amplitud.ttf
2322919	REC_START	n/a	LTP110	ltpFR	16	14	n/a	n/a	n/a	n/a	n/a	n/a	n/a	n/a	n/a	n/a
2323906	REC_WORD	wordpools/wasnorm_wordpool.txt	LTP110	ltpFR	16	14	1	APPENDAGE	32	n/a	0	n/a	n/a	n/a	n/a	n/a
2324751	REC_WORD	wordpools/wasnorm_wordpool.txt	LTP110	ltpFR	16	14	1	LIMB	822	n/a	0	n/a	n/a	n/a	n/a	n/a
2325447	REC_WORD	wordpools/wasnorm_wordpool.txt	LTP110	ltpFR	16	14	1	MATTRESS	879	n/a	0	n/a	n/a	n/a	n/a	n/a
2327174	REC_WORD	wordpools/wasnorm_wordpool.txt	LTP110	ltpFR	16	14	1	FUNGUS	614	n/a	0	n/a	n/a	n/a	n/a	n/a
2328157	REC_WORD	wordpools/wasnorm_wordpool.txt	LTP110	ltpFR	16	14	1	BLANKET	135	n/a	0	n/a	n/a	n/a	n/a	n/a
2329858	REC_WORD	wordpools/wasnorm_wordpool.txt	LTP110	ltpFR	16	14	1	SENATE	1267	n/a	0	n/a	n/a	n/a	n/a	n/a
2331693	REC_WORD	wordpools/wasnorm_wordpool.txt	LTP110	ltpFR	16	14	1	SPY	1360	n/a	1	n/a	n/a	n/a	n/a	n/a
2333240	REC_WORD	wordpools/wasnorm_wordpool.txt	LTP110	ltpFR	16	14	1	SURF	1412	n/a	0	n/a	n/a	n/a	n/a	n/a
2335211	REC_WORD	wordpools/wasnorm_wordpool.txt	LTP110	ltpFR	16	14	1	GIRL	637	n/a	1	n/a	n/a	n/a	n/a	n/a
2350561	REC_WORD	wordpools/wasnorm_wordpool.txt	LTP110	ltpFR	16	14	1	STREAM	1392	n/a	0	n/a	n/a	n/a	n/a	n/a
2373334	REC_WORD	wordpools/wasnorm_wordpool.txt	LTP110	ltpFR	16	14	1	JOKER	759	n/a	1	n/a	n/a	n/a	n/a	n/a
2404056	WORD	wordpools/wasnorm_wordpool.txt	LTP110	ltpFR	16	15	-1	HATCHET	691	n/a	-1	1	1.0	1.0	upper	../fonts/Verdana.ttf
2408255	WORD	wordpools/wasnorm_wordpool.txt	LTP110	ltpFR	16	15	-1	BEE	112	n/a	-1	1	1.0	1.0	upper	../fonts/Verdana.ttf
2412220	WORD	wordpools/wasnorm_wordpool.txt	LTP110	ltpFR	16	15	-1	BUSH	202	n/a	-1	1	1.0	1.0	upper	../fonts/Verdana.ttf
2416085	WORD	wordpools/wasnorm_wordpool.txt	LTP110	ltpFR	16	15	-1	SHRUB	1299	n/a	-1	1	1.0	1.0	upper	../fonts/Verdana.ttf
2420126	WORD	wordpools/wasnorm_wordpool.txt	LTP110	ltpFR	16	15	-1	DRINK	498	n/a	-1	1	1.0	1.0	upper	../fonts/Verdana.ttf
2424091	WORD	wordpools/wasnorm_wordpool.txt	LTP110	ltpFR	16	15	-1	KEG	770	n/a	-1	1	1.0	1.0	upper	../fonts/Verdana.ttf
2428223	WORD	wordpools/wasnorm_wordpool.txt	LTP110	ltpFR	16	15	-1	TEACHER	1440	n/a	-1	1	1.0	1.0	upper	../fonts/Verdana.ttf
2432413	WORD	wordpools/wasnorm_wordpool.txt	LTP110	ltpFR	16	15	-1	SHRIMP	1297	n/a	-1	1	1.0	1.0	upper	../fonts/Verdana.ttf
2436362	WORD	wordpools/wasnorm_wordpool.txt	LTP110	ltpFR	16	15	-1	MICROWAVE	892	n/a	-1	1	1.0	1.0	upper	../fonts/Verdana.ttf
2440185	WORD	wordpools/wasnorm_wordpool.txt	LTP110	ltpFR	16	15	-1	HORNET	718	n/a	-1	1	1.0	1.0	upper	../fonts/Verdana.ttf
2444184	WORD	wordpools/wasnorm_wordpool.txt	LTP110	ltpFR	16	15	-1	SPOON	1357	n/a	-1	1	1.0	1.0	upper	../fonts/Verdana.ttf
2448231	WORD	wordpools/wasnorm_wordpool.txt	LTP110	ltpFR	16	15	-1	RIDER	1191	n/a	-1	1	1.0	1.0	upper	../fonts/Verdana.ttf
2452397	WORD	wordpools/wasnorm_wordpool.txt	LTP110	ltpFR	16	15	-1	NICKEL	950	n/a	-1	1	1.0	1.0	upper	../fonts/Verdana.ttf
2456429	WORD	wordpools/wasnorm_wordpool.txt	LTP110	ltpFR	16	15	-1	TAG	1429	n/a	-1	1	1.0	1.0	upper	../fonts/Verdana.ttf
2460353	WORD	wordpools/wasnorm_wordpool.txt	LTP110	ltpFR	16	15	-1	TRICYCLE	1506	n/a	-1	1	1.0	1.0	upper	../fonts/Verdana.ttf
2464385	WORD	wordpools/wasnorm_wordpool.txt	LTP110	ltpFR	16	15	-1	THIEF	1456	n/a	-1	1	1.0	1.0	upper	../fonts/Verdana.ttf
2470142	REC_START	n/a	LTP110	ltpFR	16	15	n/a	n/a	n/a	n/a	n/a	n/a	n/a	n/a	n/a	n/a
2470755	REC_WORD	wordpools/wasnorm_wordpool.txt	LTP110	ltpFR	16	15	-1	NICKEL	950	n/a	-1	n/a	n/a	n/a	n/a	n/a
2471833	REC_WORD	wordpools/wasnorm_wordpool.txt	LTP110	ltpFR	16	15	-1	TAG	1429	n/a	-1	n/a	n/a	n/a	n/a	n/a
2472621	REC_WORD	wordpools/wasnorm_wordpool.txt	LTP110	ltpFR	16	15	-1	TRICYCLE	1506	n/a	-1	n/a	n/a	n/a	n/a	n/a
2473614	REC_WORD	wordpools/wasnorm_wordpool.txt	LTP110	ltpFR	16	15	-1	THIEF	1456	n/a	-1	n/a	n/a	n/a	n/a	n/a
2474851	REC_WORD	wordpools/wasnorm_wordpool.txt	LTP110	ltpFR	16	15	-1	HATCHET	691	n/a	-1	n/a	n/a	n/a	n/a	n/a
2475944	REC_WORD	wordpools/wasnorm_wordpool.txt	LTP110	ltpFR	16	15	-1	BUSH	202	n/a	-1	n/a	n/a	n/a	n/a	n/a
2476597	REC_WORD	wordpools/wasnorm_wordpool.txt	LTP110	ltpFR	16	15	-1	SHRUB	1299	n/a	-1	n/a	n/a	n/a	n/a	n/a
2478722	REC_WORD	wordpools/wasnorm_wordpool.txt	LTP110	ltpFR	16	15	-1	BEE	112	n/a	-1	n/a	n/a	n/a	n/a	n/a
2479820	REC_WORD	wordpools/wasnorm_wordpool.txt	LTP110	ltpFR	16	15	-1	HORNET	718	n/a	-1	n/a	n/a	n/a	n/a	n/a
2482808	REC_WORD	wordpools/wasnorm_wordpool.txt	LTP110	ltpFR	16	15	-1	SHRIMP	1297	n/a	-1	n/a	n/a	n/a	n/a	n/a
2483666	REC_WORD	wordpools/wasnorm_wordpool.txt	LTP110	ltpFR	16	15	-1	MICROWAVE	892	n/a	-1	n/a	n/a	n/a	n/a	n/a
2486445	REC_WORD	wordpools/wasnorm_wordpool.txt	LTP110	ltpFR	16	15	-1	TEACHER	1440	n/a	-1	n/a	n/a	n/a	n/a	n/a
2540412	REC_WORD	wordpools/wasnorm_wordpool.txt	LTP110	ltpFR	16	15	1	STREAM	1392	n/a	0	n/a	n/a	n/a	n/a	n/a
2549280	WORD	wordpools/wasnorm_wordpool.txt	LTP110	ltpFR	16	16	1	VEST	1559	n/a	0	1	0.412841796875	0.57763671875	upper	../fonts/amplitud.ttf
2553462	WORD	wordpools/wasnorm_wordpool.txt	LTP110	ltpFR	16	16	1	FARM	552	n/a	0	1	0.412841796875	0.57763671875	upper	../fonts/amplitud.ttf
2557419	WORD	wordpools/wasnorm_wordpool.txt	LTP110	ltpFR	16	16	1	SWATTER	1418	n/a	0	1	0.412841796875	0.57763671875	upper	../fonts/amplitud.ttf
2561575	WORD	wordpools/wasnorm_wordpool.txt	LTP110	ltpFR	16	16	1	TACK	1428	n/a	0	1	0.412841796875	0.57763671875	upper	../fonts/amplitud.ttf
2565657	WORD	wordpools/wasnorm_wordpool.txt	LTP110	ltpFR	16	16	1	DIRECTOR	471	n/a	1	1	0.412841796875	0.57763671875	upper	../fonts/amplitud.ttf
2569856	WORD	wordpools/wasnorm_wordpool.txt	LTP110	ltpFR	16	16	1	PAINTER	1004	n/a	1	1	0.412841796875	0.57763671875	upper	../fonts/amplitud.ttf
2573829	WORD	wordpools/wasnorm_wordpool.txt	LTP110	ltpFR	16	16	1	CRICKET	408	n/a	0	1	0.412841796875	0.57763671875	upper	../fonts/amplitud.ttf
2577978	WORD	wordpools/wasnorm_wordpool.txt	LTP110	ltpFR	16	16	1	RADIO	1157	n/a	0	1	0.412841796875	0.57763671875	upper	../fonts/amplitud.ttf
2581951	WORD	wordpools/wasnorm_wordpool.txt	LTP110	ltpFR	16	16	1	CONCERT	360	n/a	0	1	0.412841796875	0.57763671875	upper	../fonts/amplitud.ttf
2585842	WORD	wordpools/wasnorm_wordpool.txt	LTP110	ltpFR	16	16	1	CRITIC	410	n/a	1	1	0.412841796875	0.57763671875	upper	../fonts/amplitud.ttf
2589707	WORD	wordpools/wasnorm_wordpool.txt	LTP110	ltpFR	16	16	1	FRAME	600	n/a	0	1	0.412841796875	0.57763671875	upper	../fonts/amplitud.ttf
2593681	WORD	wordpools/wasnorm_wordpool.txt	LTP110	ltpFR	16	16	1	FEMALE	559	n/a	1	1	0.412841796875	0.57763671875	upper	../fonts/amplitud.ttf
2597829	WORD	wordpools/wasnorm_wordpool.txt	LTP110	ltpFR	16	16	1	SCOUT	1252	n/a	1	1	0.412841796875	0.57763671875	upper	../fonts/amplitud.ttf
2601694	WORD	wordpools/wasnorm_wordpool.txt	LTP110	ltpFR	16	16	1	BLOSSOM	138	n/a	0	1	0.412841796875	0.57763671875	upper	../fonts/amplitud.ttf
2605885	WORD	wordpools/wasnorm_wordpool.txt	LTP110	ltpFR	16	16	1	BROOK	177	n/a	0	1	0.412841796875	0.57763671875	upper	../fonts/amplitud.ttf
2610083	WORD	wordpools/wasnorm_wordpool.txt	LTP110	ltpFR	16	16	1	WATER	1594	n/a	0	1	0.412841796875	0.57763671875	upper	../fonts/amplitud.ttf
2615799	REC_START	n/a	LTP110	ltpFR	16	16	n/a	n/a	n/a	n/a	n/a	n/a	n/a	n/a	n/a	n/a
2616836	REC_WORD	wordpools/wasnorm_wordpool.txt	LTP110	ltpFR	16	16	1	BROOK	177	n/a	0	n/a	n/a	n/a	n/a	n/a
2618687	REC_WORD	wordpools/wasnorm_wordpool.txt	LTP110	ltpFR	16	16	1	FRAME	600	n/a	0	n/a	n/a	n/a	n/a	n/a
2619959	REC_WORD	wordpools/wasnorm_wordpool.txt	LTP110	ltpFR	16	16	1	WATER	1594	n/a	0	n/a	n/a	n/a	n/a	n/a
2622833	REC_WORD	wordpools/wasnorm_wordpool.txt	LTP110	ltpFR	16	16	1	DIRECTOR	471	n/a	1	n/a	n/a	n/a	n/a	n/a
2623708	REC_WORD	wordpools/wasnorm_wordpool.txt	LTP110	ltpFR	16	16	1	VEST	1559	n/a	0	n/a	n/a	n/a	n/a	n/a
2624549	REC_WORD	wordpools/wasnorm_wordpool.txt	LTP110	ltpFR	16	16	1	FARM	552	n/a	0	n/a	n/a	n/a	n/a	n/a
2628570	REC_WORD	wordpools/wasnorm_wordpool.txt	LTP110	ltpFR	16	16	1	TACK	1428	n/a	0	n/a	n/a	n/a	n/a	n/a
2679609	REC_WORD	wordpools/wasnorm_wordpool.txt	LTP110	ltpFR	16	16	1	DIRECTOR	471	n/a	1	n/a	n/a	n/a	n/a	n/a
2697395	REC_START	n/a	LTP110	ltpFR	16	1	n/a	n/a	n/a	n/a	n/a	n/a	n/a	n/a	n/a	n/a
2697427	RECOG_LURE	n/a	LTP110	ltpFR	16	1	n/a	ICEBERG	731	5	n/a	n/a	n/a	n/a	n/a	n/a
2698737	RECOG_RESP	n/a	LTP110	ltpFR	16	1	n/a	ICEBERG	731	n/a	n/a	n/a	n/a	n/a	n/a	n/a
2699834	RECOG_CONF	n/a	LTP110	ltpFR	16	1	n/a	ICEBERG	731	5	n/a	n/a	n/a	n/a	n/a	n/a
2701367	RECOG_LURE	n/a	LTP110	ltpFR	16	1	n/a	SEAFOOD	1260	5	n/a	n/a	n/a	n/a	n/a	n/a
2702019	RECOG_RESP	n/a	LTP110	ltpFR	16	1	n/a	SEAFOOD	1260	n/a	n/a	n/a	n/a	n/a	n/a	n/a
2702628	RECOG_CONF	n/a	LTP110	ltpFR	16	1	n/a	SEAFOOD	1260	5	n/a	n/a	n/a	n/a	n/a	n/a
2703992	RECOG_LURE	n/a	LTP110	ltpFR	16	1	n/a	ULCER	1533	5	n/a	n/a	n/a	n/a	n/a	n/a
2704544	RECOG_RESP	n/a	LTP110	ltpFR	16	1	n/a	ULCER	1533	n/a	n/a	n/a	n/a	n/a	n/a	n/a
2705013	RECOG_CONF	n/a	LTP110	ltpFR	16	1	n/a	ULCER	1533	5	n/a	n/a	n/a	n/a	n/a	n/a
2706449	RECOG_LURE	n/a	LTP110	ltpFR	16	1	n/a	JAR	750	5	n/a	n/a	n/a	n/a	n/a	n/a
2707003	RECOG_RESP	n/a	LTP110	ltpFR	16	1	n/a	JAR	750	n/a	n/a	n/a	n/a	n/a	n/a	n/a
2707617	RECOG_CONF	n/a	LTP110	ltpFR	16	1	n/a	JAR	750	5	n/a	n/a	n/a	n/a	n/a	n/a
2708890	RECOG_TARGET	n/a	LTP110	ltpFR	16	1	0	ACTOR	5	4	1	n/a	n/a	n/a	n/a	n/a
2709612	RECOG_RESP	n/a	LTP110	ltpFR	16	1	0	ACTOR	5	n/a	1	n/a	n/a	n/a	n/a	n/a
2710271	RECOG_CONF	n/a	LTP110	ltpFR	16	1	0	ACTOR	5	4	1	n/a	n/a	n/a	n/a	n/a
2711647	RECOG_TARGET	n/a	LTP110	ltpFR	16	1	-1	SPIDER	1351	1	-1	n/a	n/a	n/a	n/a	n/a
2712481	RECOG_RESP	n/a	LTP110	ltpFR	16	1	-1	SPIDER	1351	n/a	-1	n/a	n/a	n/a	n/a	n/a
2713413	RECOG_CONF	n/a	LTP110	ltpFR	16	1	-1	SPIDER	1351	1	-1	n/a	n/a	n/a	n/a	n/a
2714788	RECOG_LURE	n/a	LTP110	ltpFR	16	1	n/a	CIGARETTE	309	5	n/a	n/a	n/a	n/a	n/a	n/a
2715524	RECOG_RESP	n/a	LTP110	ltpFR	16	1	n/a	CIGARETTE	309	n/a	n/a	n/a	n/a	n/a	n/a	n/a
2716008	RECOG_CONF	n/a	LTP110	ltpFR	16	1	n/a	CIGARETTE	309	5	n/a	n/a	n/a	n/a	n/a	n/a
2717503	RECOG_LURE	n/a	LTP110	ltpFR	16	1	n/a	REBEL	1172	4	n/a	n/a	n/a	n/a	n/a	n/a
2718043	RECOG_RESP	n/a	LTP110	ltpFR	16	1	n/a	REBEL	1172	n/a	n/a	n/a	n/a	n/a	n/a	n/a
2718671	RECOG_CONF	n/a	LTP110	ltpFR	16	1	n/a	REBEL	1172	4	n/a	n/a	n/a	n/a	n/a	n/a
2720036	RECOG_LURE	n/a	LTP110	ltpFR	16	1	n/a	LEMON	810	5	n/a	n/a	n/a	n/a	n/a	n/a
2720532	RECOG_RESP	n/a	LTP110	ltpFR	16	1	n/a	LEMON	810	n/a	n/a	n/a	n/a	n/a	n/a	n/a
2721026	RECOG_CONF	n/a	LTP110	ltpFR	16	1	n/a	LEMON	810	5	n/a	n/a	n/a	n/a	n/a	n/a
2722502	RECOG_TARGET	n/a	LTP110	ltpFR	16	1	1	CUSTARD	429	4	0	n/a	n/a	n/a	n/a	n/a
2722952	RECOG_RESP	n/a	LTP110	ltpFR	16	1	1	CUSTARD	429	n/a	0	n/a	n/a	n/a	n/a	n/a
2723620	RECOG_CONF	n/a	LTP110	ltpFR	16	1	1	CUSTARD	429	4	0	n/a	n/a	n/a	n/a	n/a
2724992	RECOG_LURE	n/a	LTP110	ltpFR	16	1	n/a	MOOSE	915	5	n/a	n/a	n/a	n/a	n/a	n/a
2726110	RECOG_RESP	n/a	LTP110	ltpFR	16	1	n/a	MOOSE	915	n/a	n/a	n/a	n/a	n/a	n/a	n/a
2726753	RECOG_CONF	n/a	LTP110	ltpFR	16	1	n/a	MOOSE	915	5	n/a	n/a	n/a	n/a	n/a	n/a
2728141	RECOG_TARGET	n/a	LTP110	ltpFR	16	1	1	DASHBOARD	441	5	0	n/a	n/a	n/a	n/a	n/a
2729237	RECOG_RESP	n/a	LTP110	ltpFR	16	1	1	DASHBOARD	441	n/a	0	n/a	n/a	n/a	n/a	n/a
2729856	RECOG_CONF	n/a	LTP110	ltpFR	16	1	1	DASHBOARD	441	5	0	n/a	n/a	n/a	n/a	n/a
2731231	RECOG_LURE	n/a	LTP110	ltpFR	16	1	n/a	BEER	114	4	n/a	n/a	n/a	n/a	n/a	n/a
2731772	RECOG_RESP	n/a	LTP110	ltpFR	16	1	n/a	BEER	114	n/a	n/a	n/a	n/a	n/a	n/a	n/a
2732395	RECOG_CONF	n/a	LTP110	ltpFR	16	1	n/a	BEER	114	4	n/a	n/a	n/a	n/a	n/a	n/a
2733806	RECOG_TARGET	n/a	LTP110	ltpFR	16	1	1	SEAGULL	1261	5	1	n/a	n/a	n/a	n/a	n/a
2734346	RECOG_RESP	n/a	LTP110	ltpFR	16	1	1	SEAGULL	1261	n/a	1	n/a	n/a	n/a	n/a	n/a
2734915	RECOG_CONF	n/a	LTP110	ltpFR	16	1	1	SEAGULL	1261	5	1	n/a	n/a	n/a	n/a	n/a
2736313	RECOG_TARGET	n/a	LTP110	ltpFR	16	1	0	MARINE	869	5	1	n/a	n/a	n/a	n/a	n/a
2736810	RECOG_RESP	n/a	LTP110	ltpFR	16	1	0	MARINE	869	n/a	1	n/a	n/a	n/a	n/a	n/a
2737379	RECOG_CONF	n/a	LTP110	ltpFR	16	1	0	MARINE	869	5	1	n/a	n/a	n/a	n/a	n/a
2738729	RECOG_TARGET	n/a	LTP110	ltpFR	16	1	-1	MICROWAVE	892	5	-1	n/a	n/a	n/a	n/a	n/a
2739235	RECOG_RESP	n/a	LTP110	ltpFR	16	1	-1	MICROWAVE	892	n/a	-1	n/a	n/a	n/a	n/a	n/a
2739774	RECOG_CONF	n/a	LTP110	ltpFR	16	1	-1	MICROWAVE	892	5	-1	n/a	n/a	n/a	n/a	n/a
2741320	RECOG_TARGET	n/a	LTP110	ltpFR	16	1	1	AMBULANCE	19	5	0	n/a	n/a	n/a	n/a	n/a
2741754	RECOG_RESP	n/a	LTP110	ltpFR	16	1	1	AMBULANCE	19	n/a	0	n/a	n/a	n/a	n/a	n/a
2742288	RECOG_CONF	n/a	LTP110	ltpFR	16	1	1	AMBULANCE	19	5	0	n/a	n/a	n/a	n/a	n/a
2743644	RECOG_TARGET	n/a	LTP110	ltpFR	16	1	-1	THIEF	1456	5	-1	n/a	n/a	n/a	n/a	n/a
2744149	RECOG_RESP	n/a	LTP110	ltpFR	16	1	-1	THIEF	1456	n/a	-1	n/a	n/a	n/a	n/a	n/a
2744692	RECOG_CONF	n/a	LTP110	ltpFR	16	1	-1	THIEF	1456	5	-1	n/a	n/a	n/a	n/a	n/a
2746152	RECOG_TARGET	n/a	LTP110	ltpFR	16	1	1	GIRL	637	5	1	n/a	n/a	n/a	n/a	n/a
2746638	RECOG_RESP	n/a	LTP110	ltpFR	16	1	1	GIRL	637	n/a	1	n/a	n/a	n/a	n/a	n/a
2747117	RECOG_CONF	n/a	LTP110	ltpFR	16	1	1	GIRL	637	5	1	n/a	n/a	n/a	n/a	n/a
2748626	RECOG_TARGET	n/a	LTP110	ltpFR	16	1	0	NUCLEUS	961	5	0	n/a	n/a	n/a	n/a	n/a
2749117	RECOG_RESP	n/a	LTP110	ltpFR	16	1	0	NUCLEUS	961	n/a	0	n/a	n/a	n/a	n/a	n/a
2749631	RECOG_CONF	n/a	LTP110	ltpFR	16	1	0	NUCLEUS	961	5	0	n/a	n/a	n/a	n/a	n/a
2752807	REC_START	n/a	LTP110	ltpFR	16	2	n/a	n/a	n/a	n/a	n/a	n/a	n/a	n/a	n/a	n/a
2752841	RECOG_LURE	n/a	LTP110	ltpFR	16	2	n/a	JEANS	752	4	n/a	n/a	n/a	n/a	n/a	n/a
2753470	RECOG_RESP	n/a	LTP110	ltpFR	16	2	n/a	JEANS	752	n/a	n/a	n/a	n/a	n/a	n/a	n/a
2753989	RECOG_CONF	n/a	LTP110	ltpFR	16	2	n/a	JEANS	752	4	n/a	n/a	n/a	n/a	n/a	n/a
2755231	RECOG_TARGET	n/a	LTP110	ltpFR	16	2	-1	PREDATOR	1120	5	-1	n/a	n/a	n/a	n/a	n/a
2755725	RECOG_RESP	n/a	LTP110	ltpFR	16	2	-1	PREDATOR	1120	n/a	-1	n/a	n/a	n/a	n/a	n/a
2756164	RECOG_CONF	n/a	LTP110	ltpFR	16	2	-1	PREDATOR	1120	5	-1	n/a	n/a	n/a	n/a	n/a
2757798	RECOG_TARGET	n/a	LTP110	ltpFR	16	2	0	PILLOW	1069	5	1	n/a	n/a	n/a	n/a	n/a
2758354	RECOG_RESP	n/a	LTP110	ltpFR	16	2	0	PILLOW	1069	n/a	1	n/a	n/a	n/a	n/a	n/a
2758868	RECOG_CONF	n/a	LTP110	ltpFR	16	2	0	PILLOW	1069	5	1	n/a	n/a	n/a	n/a	n/a
2760130	RECOG_TARGET	n/a	LTP110	ltpFR	16	2	0	MOWER	928	5	1	n/a	n/a	n/a	n/a	n/a
2760679	RECOG_RESP	n/a	LTP110	ltpFR	16	2	0	MOWER	928	n/a	1	n/a	n/a	n/a	n/a	n/a
2761103	RECOG_CONF	n/a	LTP110	ltpFR	16	2	0	MOWER	928	5	1	n/a	n/a	n/a	n/a	n/a
2762529	RECOG_LURE	n/a	LTP110	ltpFR	16	2	n/a	POLICE	1098	5	n/a	n/a	n/a	n/a	n/a	n/a
2763088	RECOG_RESP	n/a	LTP110	ltpFR	16	2	n/a	POLICE	1098	n/a	n/a	n/a	n/a	n/a	n/a	n/a
2763587	RECOG_CONF	n/a	LTP110	ltpFR	16	2	n/a	POLICE	1098	5	n/a	n/a	n/a	n/a	n/a	n/a
2764887	RECOG_LURE	n/a	LTP110	ltpFR	16	2	n/a	STEM	1376	4	n/a	n/a	n/a	n/a	n/a	n/a
2767578	RECOG_RESP	n/a	LTP110	ltpFR	16	2	n/a	STEM	1376	n/a	n/a	n/a	n/a	n/a	n/a	n/a
2768366	RECOG_CONF	n/a	LTP110	ltpFR	16	2	n/a	STEM	1376	4	n/a	n/a	n/a	n/a	n/a	n/a
2769702	RECOG_LURE	n/a	LTP110	ltpFR	16	2	n/a	CHIMPANZEE	302	5	n/a	n/a	n/a	n/a	n/a	n/a
2770437	RECOG_RESP	n/a	LTP110	ltpFR	16	2	n/a	CHIMPANZEE	302	n/a	n/a	n/a	n/a	n/a	n/a	n/a
2770980	RECOG_CONF	n/a	LTP110	ltpFR	16	2	n/a	CHIMPANZEE	302	5	n/a	n/a	n/a	n/a	n/a	n/a
2772192	RECOG_TARGET	n/a	LTP110	ltpFR	16	2	1	BEET	115	5	0	n/a	n/a	n/a	n/a	n/a
2772906	RECOG_RESP	n/a	LTP110	ltpFR	16	2	1	BEET	115	n/a	0	n/a	n/a	n/a	n/a	n/a
2773390	RECOG_CONF	n/a	LTP110	ltpFR	16	2	1	BEET	115	5	0	n/a	n/a	n/a	n/a	n/a
2775175	RECOG_TARGET	n/a	LTP110	ltpFR	16	2	0	PICKLE	1059	1	0	n/a	n/a	n/a	n/a	n/a
2781347	RECOG_RESP	n/a	LTP110	ltpFR	16	2	0	PICKLE	1059	n/a	0	n/a	n/a	n/a	n/a	n/a
2782125	RECOG_CONF	n/a	LTP110	ltpFR	16	2	0	PICKLE	1059	1	0	n/a	n/a	n/a	n/a	n/a
2783655	RECOG_LURE	n/a	LTP110	ltpFR	16	2	n/a	COCOON	339	5	n/a	n/a	n/a	n/a	n/a	n/a
2784580	RECOG_RESP	n/a	LTP110	ltpFR	16	2	n/a	COCOON	339	n/a	n/a	n/a	n/a	n/a	n/a	n/a
2784989	RECOG_CONF	n/a	LTP110	ltpFR	16	2	n/a	COCOON	339	5	n/a	n/a	n/a	n/a	n/a	n/a
2786487	RECOG_LURE	n/a	LTP110	ltpFR	16	2	n/a	FLEET	578	4	n/a	n/a	n/a	n/a	n/a	n/a
2787568	RECOG_RESP	n/a	LTP110	ltpFR	16	2	n/a	FLEET	578	n/a	n/a	n/a	n/a	n/a	n/a	n/a
2788107	RECOG_CONF	n/a	LTP110	ltpFR	16	2	n/a	FLEET	578	4	n/a	n/a	n/a	n/a	n/a	n/a
2789453	RECOG_LURE	n/a	LTP110	ltpFR	16	2	n/a	CREATURE	403	5	n/a	n/a	n/a	n/a	n/a	n/a
2790062	RECOG_RESP	n/a	LTP110	ltpFR	16	2	n/a	CREATURE	403	n/a	n/a	n/a	n/a	n/a	n/a	n/a
2790466	RECOG_CONF	n/a	LTP110	ltpFR	16	2	n/a	CREATURE	403	5	n/a	n/a	n/a	n/a	n/a	n/a
2791810	RECOG_TARGET	n/a	LTP110	ltpFR	16	2	0	CRIMINAL	409	5	1	n/a	n/a	n/a	n/a	n/a
2792826	RECOG_RESP	n/a	LTP110	ltpFR	16	2	0	CRIMINAL	409	n/a	1	n/a	n/a	n/a	n/a	n/a
2793260	RECOG_CONF	n/a	LTP110	ltpFR	16	2	0	CRIMINAL	409	5	1	n/a	n/a	n/a	n/a	n/a
2794718	RECOG_LURE	n/a	LTP110	ltpFR	16	2	n/a	BRUISE	180	5	n/a	n/a	n/a	n/a	n/a	n/a
2795310	RECOG_RESP	n/a	LTP110	ltpFR	16	2	n/a	BRUISE	180	n/a	n/a	n/a	n/a	n/a	n/a	n/a
2795748	RECOG_CONF	n/a	LTP110	ltpFR	16	2	n/a	BRUISE	180	5	n/a	n/a	n/a	n/a	n/a	n/a
2797100	RECOG_TARGET	n/a	LTP110	ltpFR	16	2	1	ASSISTANT	48	4	1	n/a	n/a	n/a	n/a	n/a
2797760	RECOG_RESP	n/a	LTP110	ltpFR	16	2	1	ASSISTANT	48	n/a	1	n/a	n/a	n/a	n/a	n/a
2798288	RECOG_CONF	n/a	LTP110	ltpFR	16	2	1	ASSISTANT	48	4	1	n/a	n/a	n/a	n/a	n/a
2799641	RECOG_TARGET	n/a	LTP110	ltpFR	16	2	1	CARAVAN	242	5	0	n/a	n/a	n/a	n/a	n/a
2800254	RECOG_RESP	n/a	LTP110	ltpFR	16	2	1	CARAVAN	242	n/a	0	n/a	n/a	n/a	n/a	n/a
2800693	RECOG_CONF	n/a	LTP110	ltpFR	16	2	1	CARAVAN	242	5	0	n/a	n/a	n/a	n/a	n/a
2802007	RECOG_LURE	n/a	LTP110	ltpFR	16	2	n/a	DOOR	486	4	n/a	n/a	n/a	n/a	n/a	n/a
2802688	RECOG_RESP	n/a	LTP110	ltpFR	16	2	n/a	DOOR	486	n/a	n/a	n/a	n/a	n/a	n/a	n/a
2803204	RECOG_CONF	n/a	LTP110	ltpFR	16	2	n/a	DOOR	486	4	n/a	n/a	n/a	n/a	n/a	n/a
2804498	RECOG_TARGET	n/a	LTP110	ltpFR	16	2	1	MINER	896	5	1	n/a	n/a	n/a	n/a	n/a
2805208	RECOG_RESP	n/a	LTP110	ltpFR	16	2	1	MINER	896	n/a	1	n/a	n/a	n/a	n/a	n/a
2805662	RECOG_CONF	n/a	LTP110	ltpFR	16	2	1	MINER	896	5	1	n/a	n/a	n/a	n/a	n/a
2807030	RECOG_TARGET	n/a	LTP110	ltpFR	16	2	0	CLOCK	325	5	1	n/a	n/a	n/a	n/a	n/a
2807517	RECOG_RESP	n/a	LTP110	ltpFR	16	2	0	CLOCK	325	n/a	1	n/a	n/a	n/a	n/a	n/a
2807956	RECOG_CONF	n/a	LTP110	ltpFR	16	2	0	CLOCK	325	5	1	n/a	n/a	n/a	n/a	n/a
2809228	RECOG_TARGET	n/a	LTP110	ltpFR	16	2	-1	ANTEATER	26	5	-1	n/a	n/a	n/a	n/a	n/a
2809702	RECOG_RESP	n/a	LTP110	ltpFR	16	2	-1	ANTEATER	26	n/a	-1	n/a	n/a	n/a	n/a	n/a
2810132	RECOG_CONF	n/a	LTP110	ltpFR	16	2	-1	ANTEATER	26	5	-1	n/a	n/a	n/a	n/a	n/a
2812957	REC_START	n/a	LTP110	ltpFR	16	3	n/a	n/a	n/a	n/a	n/a	n/a	n/a	n/a	n/a	n/a
2812995	RECOG_LURE	n/a	LTP110	ltpFR	16	3	n/a	COCKTAIL	338	4	n/a	n/a	n/a	n/a	n/a	n/a
2813570	RECOG_RESP	n/a	LTP110	ltpFR	16	3	n/a	COCKTAIL	338	n/a	n/a	n/a	n/a	n/a	n/a	n/a
2814079	RECOG_CONF	n/a	LTP110	ltpFR	16	3	n/a	COCKTAIL	338	4	n/a	n/a	n/a	n/a	n/a	n/a
2815319	RECOG_LURE	n/a	LTP110	ltpFR	16	3	n/a	CARTON	251	4	n/a	n/a	n/a	n/a	n/a	n/a
2816055	RECOG_RESP	n/a	LTP110	ltpFR	16	3	n/a	CARTON	251	n/a	n/a	n/a	n/a	n/a	n/a	n/a
2816534	RECOG_CONF	n/a	LTP110	ltpFR	16	3	n/a	CARTON	251	4	n/a	n/a	n/a	n/a	n/a	n/a
2817760	RECOG_TARGET	n/a	LTP110	ltpFR	16	3	-1	PAW	1029	5	-1	n/a	n/a	n/a	n/a	n/a
2818340	RECOG_RESP	n/a	LTP110	ltpFR	16	3	-1	PAW	1029	n/a	-1	n/a	n/a	n/a	n/a	n/a
2818799	RECOG_CONF	n/a	LTP110	ltpFR	16	3	-1	PAW	1029	5	-1	n/a	n/a	n/a	n/a	n/a
2820075	RECOG_LURE	n/a	LTP110	ltpFR	16	3	n/a	NOTEBOOK	959	4	n/a	n/a	n/a	n/a	n/a	n/a
2820749	RECOG_RESP	n/a	LTP110	ltpFR	16	3	n/a	NOTEBOOK	959	n/a	n/a	n/a	n/a	n/a	n/a	n/a
2821233	RECOG_CONF	n/a	LTP110	ltpFR	16	3	n/a	NOTEBOOK	959	4	n/a	n/a	n/a	n/a	n/a	n/a
2822524	RECOG_TARGET	n/a	LTP110	ltpFR	16	3	0	SHACK	1273	5	1	n/a	n/a	n/a	n/a	n/a
2823199	RECOG_RESP	n/a	LTP110	ltpFR	16	3	0	SHACK	1273	n/a	1	n/a	n/a	n/a	n/a	n/a
2823667	RECOG_CONF	n/a	LTP110	ltpFR	16	3	0	SHACK	1273	5	1	n/a	n/a	n/a	n/a	n/a
2825015	RECOG_LURE	n/a	LTP110	ltpFR	16	3	n/a	POSSUM	1112	1	n/a	n/a	n/a	n/a	n/a	n/a
2825473	RECOG_RESP	n/a	LTP110	ltpFR	16	3	n/a	POSSUM	1112	n/a	n/a	n/a	n/a	n/a	n/a	n/a
2826990	RECOG_CONF	n/a	LTP110	ltpFR	16	3	n/a	POSSUM	1112	1	n/a	n/a	n/a	n/a	n/a	n/a
2828322	RECOG_TARGET	n/a	LTP110	ltpFR	16	3	0	CASHIER	254	5	1	n/a	n/a	n/a	n/a	n/a
2829414	RECOG_RESP	n/a	LTP110	ltpFR	16	3	0	CASHIER	254	n/a	1	n/a	n/a	n/a	n/a	n/a
2830013	RECOG_CONF	n/a	LTP110	ltpFR	16	3	0	CASHIER	254	5	1	n/a	n/a	n/a	n/a	n/a
2831413	RECOG_LURE	n/a	LTP110	ltpFR	16	3	n/a	SCULPTURE	1258	4	n/a	n/a	n/a	n/a	n/a	n/a
2831989	RECOG_RESP	n/a	LTP110	ltpFR	16	3	n/a	SCULPTURE	1258	n/a	n/a	n/a	n/a	n/a	n/a	n/a
2832459	RECOG_CONF	n/a	LTP110	ltpFR	16	3	n/a	SCULPTURE	1258	4	n/a	n/a	n/a	n/a	n/a	n/a
2833837	RECOG_TARGET	n/a	LTP110	ltpFR	16	3	0	MAILBOX	857	5	1	n/a	n/a	n/a	n/a	n/a
2834822	RECOG_RESP	n/a	LTP110	ltpFR	16	3	0	MAILBOX	857	n/a	1	n/a	n/a	n/a	n/a	n/a
2835570	RECOG_CONF	n/a	LTP110	ltpFR	16	3	0	MAILBOX	857	5	1	n/a	n/a	n/a	n/a	n/a
2836894	RECOG_LURE	n/a	LTP110	ltpFR	16	3	n/a	FREEZER	604	4	n/a	n/a	n/a	n/a	n/a	n/a
2837506	RECOG_RESP	n/a	LTP110	ltpFR	16	3	n/a	FREEZER	604	n/a	n/a	n/a	n/a	n/a	n/a	n/a
2837975	RECOG_CONF	n/a	LTP110	ltpFR	16	3	n/a	FREEZER	604	4	n/a	n/a	n/a	n/a	n/a	n/a
2839302	RECOG_TARGET	n/a	LTP110	ltpFR	16	3	1	LOBSTER	837	5	0	n/a	n/a	n/a	n/a	n/a
2840020	RECOG_RESP	n/a	LTP110	ltpFR	16	3	1	LOBSTER	837	n/a	0	n/a	n/a	n/a	n/a	n/a
2840489	RECOG_CONF	n/a	LTP110	ltpFR	16	3	1	LOBSTER	837	5	0	n/a	n/a	n/a	n/a	n/a
2841768	RECOG_TARGET	n/a	LTP110	ltpFR	16	3	0	GROUND	666	5	1	n/a	n/a	n/a	n/a	n/a
2842330	RECOG_RESP	n/a	LTP110	ltpFR	16	3	0	GROUND	666	n/a	1	n/a	n/a	n/a	n/a	n/a
2842774	RECOG_CONF	n/a	LTP110	ltpFR	16	3	0	GROUND	666	5	1	n/a	n/a	n/a	n/a	n/a
2844542	RECOG_TARGET	n/a	LTP110	ltpFR	16	3	1	PLANT	1083	5	0	n/a	n/a	n/a	n/a	n/a
2845074	RECOG_RESP	n/a	LTP110	ltpFR	16	3	1	PLANT	1083	n/a	0	n/a	n/a	n/a	n/a	n/a
2845508	RECOG_CONF	n/a	LTP110	ltpFR	16	3	1	PLANT	1083	5	0	n/a	n/a	n/a	n/a	n/a
2846866	RECOG_TARGET	n/a	LTP110	ltpFR	16	3	0	COMPANION	357	5	1	n/a	n/a	n/a	n/a	n/a
2847493	RECOG_RESP	n/a	LTP110	ltpFR	16	3	0	COMPANION	357	n/a	1	n/a	n/a	n/a	n/a	n/a
2847902	RECOG_CONF	n/a	LTP110	ltpFR	16	3	0	COMPANION	357	5	1	n/a	n/a	n/a	n/a	n/a
2849290	RECOG_TARGET	n/a	LTP110	ltpFR	16	3	0	WOLF	1619	5	1	n/a	n/a	n/a	n/a	n/a
2849803	RECOG_RESP	n/a	LTP110	ltpFR	16	3	0	WOLF	1619	n/a	1	n/a	n/a	n/a	n/a	n/a
2850223	RECOG_CONF	n/a	LTP110	ltpFR	16	3	0	WOLF	1619	5	1	n/a	n/a	n/a	n/a	n/a
2851548	RECOG_TARGET	n/a	LTP110	ltpFR	16	3	1	PAINTER	1004	5	1	n/a	n/a	n/a	n/a	n/a
2852028	RECOG_RESP	n/a	LTP110	ltpFR	16	3	1	PAINTER	1004	n/a	1	n/a	n/a	n/a	n/a	n/a
2852471	RECOG_CONF	n/a	LTP110	ltpFR	16	3	1	PAINTER	1004	5	1	n/a	n/a	n/a	n/a	n/a
2853813	RECOG_TARGET	n/a	LTP110	ltpFR	16	3	1	MAPLE	866	5	0	n/a	n/a	n/a	n/a	n/a
2854278	RECOG_RESP	n/a	LTP110	ltpFR	16	3	1	MAPLE	866	n/a	0	n/a	n/a	n/a	n/a	n/a
2854667	RECOG_CONF	n/a	LTP110	ltpFR	16	3	1	MAPLE	866	5	0	n/a	n/a	n/a	n/a	n/a
2856004	RECOG_LURE	n/a	LTP110	ltpFR	16	3	n/a	TOOL	1480	4	n/a	n/a	n/a	n/a	n/a	n/a
2856533	RECOG_RESP	n/a	LTP110	ltpFR	16	3	n/a	TOOL	1480	n/a	n/a	n/a	n/a	n/a	n/a	n/a
2857022	RECOG_CONF	n/a	LTP110	ltpFR	16	3	n/a	TOOL	1480	4	n/a	n/a	n/a	n/a	n/a	n/a
2858395	RECOG_LURE	n/a	LTP110	ltpFR	16	3	n/a	MALL	860	5	n/a	n/a	n/a	n/a	n/a	n/a
2858947	RECOG_RESP	n/a	LTP110	ltpFR	16	3	n/a	MALL	860	n/a	n/a	n/a	n/a	n/a	n/a	n/a
2859390	RECOG_CONF	n/a	LTP110	ltpFR	16	3	n/a	MALL	860	5	n/a	n/a	n/a	n/a	n/a	n/a
2860694	RECOG_LURE	n/a	LTP110	ltpFR	16	3	n/a	NITROGEN	954	5	n/a	n/a	n/a	n/a	n/a	n/a
2861342	RECOG_RESP	n/a	LTP110	ltpFR	16	3	n/a	NITROGEN	954	n/a	n/a	n/a	n/a	n/a	n/a	n/a
2861758	RECOG_CONF	n/a	LTP110	ltpFR	16	3	n/a	NITROGEN	954	5	n/a	n/a	n/a	n/a	n/a	n/a
2864458	REC_START	n/a	LTP110	ltpFR	16	4	n/a	n/a	n/a	n/a	n/a	n/a	n/a	n/a	n/a	n/a
2864493	RECOG_TARGET	n/a	LTP110	ltpFR	16	4	0	SPATULA	1348	5	0	n/a	n/a	n/a	n/a	n/a
2865136	RECOG_RESP	n/a	LTP110	ltpFR	16	4	0	SPATULA	1348	n/a	0	n/a	n/a	n/a	n/a	n/a
2865560	RECOG_CONF	n/a	LTP110	ltpFR	16	4	0	SPATULA	1348	5	0	n/a	n/a	n/a	n/a	n/a
2866825	RECOG_LURE	n/a	LTP110	ltpFR	16	4	n/a	BATTERY	101	4	n/a	n/a	n/a	n/a	n/a	n/a
2867406	RECOG_RESP	n/a	LTP110	ltpFR	16	4	n/a	BATTERY	101	n/a	n/a	n/a	n/a	n/a	n/a	n/a
2867853	RECOG_CONF	n/a	LTP110	ltpFR	16	4	n/a	BATTERY	101	4	n/a	n/a	n/a	n/a	n/a	n/a
2869158	RECOG_TARGET	n/a	LTP110	ltpFR	16	4	-1	CATCHER	258	5	-1	n/a	n/a	n/a	n/a	n/a
2869776	RECOG_RESP	n/a	LTP110	ltpFR	16	4	-1	CATCHER	258	n/a	-1	n/a	n/a	n/a	n/a	n/a
2870200	RECOG_CONF	n/a	LTP110	ltpFR	16	4	-1	CATCHER	258	5	-1	n/a	n/a	n/a	n/a	n/a
2871582	RECOG_TARGET	n/a	LTP110	ltpFR	16	4	0	CHART	282	5	0	n/a	n/a	n/a	n/a	n/a
2872320	RECOG_RESP	n/a	LTP110	ltpFR	16	4	0	CHART	282	n/a	0	n/a	n/a	n/a	n/a	n/a
2872754	RECOG_CONF	n/a	LTP110	ltpFR	16	4	0	CHART	282	5	0	n/a	n/a	n/a	n/a	n/a
2874048	RECOG_TARGET	n/a	LTP110	ltpFR	16	4	1	SYRINGE	1424	5	0	n/a	n/a	n/a	n/a	n/a
2874555	RECOG_RESP	n/a	LTP110	ltpFR	16	4	1	SYRINGE	1424	n/a	0	n/a	n/a	n/a	n/a	n/a
2874971	RECOG_CONF	n/a	LTP110	ltpFR	16	4	1	SYRINGE	1424	5	0	n/a	n/a	n/a	n/a	n/a
2876372	RECOG_TARGET	n/a	LTP110	ltpFR	16	4	0	CYCLONE	431	5	1	n/a	n/a	n/a	n/a	n/a
2876890	RECOG_RESP	n/a	LTP110	ltpFR	16	4	0	CYCLONE	431	n/a	1	n/a	n/a	n/a	n/a	n/a
2877334	RECOG_CONF	n/a	LTP110	ltpFR	16	4	0	CYCLONE	431	5	1	n/a	n/a	n/a	n/a	n/a
2878713	RECOG_LURE	n/a	LTP110	ltpFR	16	4	n/a	ZUCCHINI	1638	4	n/a	n/a	n/a	n/a	n/a	n/a
2879294	RECOG_RESP	n/a	LTP110	ltpFR	16	4	n/a	ZUCCHINI	1638	n/a	n/a	n/a	n/a	n/a	n/a	n/a
2879758	RECOG_CONF	n/a	LTP110	ltpFR	16	4	n/a	ZUCCHINI	1638	4	n/a	n/a	n/a	n/a	n/a	n/a
2881112	RECOG_LURE	n/a	LTP110	ltpFR	16	4	n/a	SUGAR	1401	4	n/a	n/a	n/a	n/a	n/a	n/a
2882103	RECOG_RESP	n/a	LTP110	ltpFR	16	4	n/a	SUGAR	1401	n/a	n/a	n/a	n/a	n/a	n/a	n/a
2882641	RECOG_CONF	n/a	LTP110	ltpFR	16	4	n/a	SUGAR	1401	4	n/a	n/a	n/a	n/a	n/a	n/a
2883961	RECOG_TARGET	n/a	LTP110	ltpFR	16	4	-1	SHEEP	1278	5	-1	n/a	n/a	n/a	n/a	n/a
2884512	RECOG_RESP	n/a	LTP110	ltpFR	16	4	-1	SHEEP	1278	n/a	-1	n/a	n/a	n/a	n/a	n/a
2885001	RECOG_CONF	n/a	LTP110	ltpFR	16	4	-1	SHEEP	1278	5	-1	n/a	n/a	n/a	n/a	n/a
2886402	RECOG_TARGET	n/a	LTP110	ltpFR	16	4	-1	BUSH	202	5	-1	n/a	n/a	n/a	n/a	n/a
2886882	RECOG_RESP	n/a	LTP110	ltpFR	16	4	-1	BUSH	202	n/a	-1	n/a	n/a	n/a	n/a	n/a
2887291	RECOG_CONF	n/a	LTP110	ltpFR	16	4	-1	BUSH	202	5	-1	n/a	n/a	n/a	n/a	n/a
2888626	RECOG_LURE	n/a	LTP110	ltpFR	16	4	n/a	TAR	1435	4	n/a	n/a	n/a	n/a	n/a	n/a
2889152	RECOG_RESP	n/a	LTP110	ltpFR	16	4	n/a	TAR	1435	n/a	n/a	n/a	n/a	n/a	n/a	n/a
2889534	RECOG_CONF	n/a	LTP110	ltpFR	16	4	n/a	TAR	1435	4	n/a	n/a	n/a	n/a	n/a	n/a
2890967	RECOG_TARGET	n/a	LTP110	ltpFR	16	4	0	SEA	1259	1	1	n/a	n/a	n/a	n/a	n/a
2891656	RECOG_RESP	n/a	LTP110	ltpFR	16	4	0	SEA	1259	n/a	1	n/a	n/a	n/a	n/a	n/a
2892489	RECOG_CONF	n/a	LTP110	ltpFR	16	4	0	SEA	1259	1	1	n/a	n/a	n/a	n/a	n/a
2893808	RECOG_TARGET	n/a	LTP110	ltpFR	16	4	0	HURRICANE	727	5	1	n/a	n/a	n/a	n/a	n/a
2894485	RECOG_RESP	n/a	LTP110	ltpFR	16	4	0	HURRICANE	727	n/a	1	n/a	n/a	n/a	n/a	n/a
2894928	RECOG_CONF	n/a	LTP110	ltpFR	16	4	0	HURRICANE	727	5	1	n/a	n/a	n/a	n/a	n/a
2896190	RECOG_TARGET	n/a	LTP110	ltpFR	16	4	-1	SHRIMP	1297	5	-1	n/a	n/a	n/a	n/a	n/a
2896690	RECOG_RESP	n/a	LTP110	ltpFR	16	4	-1	SHRIMP	1297	n/a	-1	n/a	n/a	n/a	n/a	n/a
2897119	RECOG_CONF	n/a	LTP110	ltpFR	16	4	-1	SHRIMP	1297	5	-1	n/a	n/a	n/a	n/a	n/a
2898481	RECOG_LURE	n/a	LTP110	ltpFR	16	4	n/a	KEYBOARD	774	4	n/a	n/a	n/a	n/a	n/a	n/a
2899079	RECOG_RESP	n/a	LTP110	ltpFR	16	4	n/a	KEYBOARD	774	n/a	n/a	n/a	n/a	n/a	n/a	n/a
2899553	RECOG_CONF	n/a	LTP110	ltpFR	16	4	n/a	KEYBOARD	774	4	n/a	n/a	n/a	n/a	n/a	n/a
2900897	RECOG_TARGET	n/a	LTP110	ltpFR	16	4	0	OATS	968	5	1	n/a	n/a	n/a	n/a	n/a
2901568	RECOG_RESP	n/a	LTP110	ltpFR	16	4	0	OATS	968	n/a	1	n/a	n/a	n/a	n/a	n/a
2901998	RECOG_CONF	n/a	LTP110	ltpFR	16	4	0	OATS	968	5	1	n/a	n/a	n/a	n/a	n/a
2903396	RECOG_LURE	n/a	LTP110	ltpFR	16	4	n/a	ARENA	37	4	n/a	n/a	n/a	n/a	n/a	n/a
2903963	RECOG_RESP	n/a	LTP110	ltpFR	16	4	n/a	ARENA	37	n/a	n/a	n/a	n/a	n/a	n/a	n/a
2904412	RECOG_CONF	n/a	LTP110	ltpFR	16	4	n/a	ARENA	37	4	n/a	n/a	n/a	n/a	n/a	n/a
2905678	RECOG_TARGET	n/a	LTP110	ltpFR	16	4	-1	MARSH	874	5	-1	n/a	n/a	n/a	n/a	n/a
2906457	RECOG_RESP	n/a	LTP110	ltpFR	16	4	-1	MARSH	874	n/a	-1	n/a	n/a	n/a	n/a	n/a
2906943	RECOG_CONF	n/a	LTP110	ltpFR	16	4	-1	MARSH	874	5	-1	n/a	n/a	n/a	n/a	n/a
2908269	RECOG_TARGET	n/a	LTP110	ltpFR	16	4	1	PORPOISE	1109	5	1	n/a	n/a	n/a	n/a	n/a
2908837	RECOG_RESP	n/a	LTP110	ltpFR	16	4	1	PORPOISE	1109	n/a	1	n/a	n/a	n/a	n/a	n/a
2909251	RECOG_CONF	n/a	LTP110	ltpFR	16	4	1	PORPOISE	1109	5	1	n/a	n/a	n/a	n/a	n/a
2910585	RECOG_TARGET	n/a	LTP110	ltpFR	16	4	0	EMERALD	528	5	0	n/a	n/a	n/a	n/a	n/a
2911152	RECOG_RESP	n/a	LTP110	ltpFR	16	4	0	EMERALD	528	n/a	0	n/a	n/a	n/a	n/a	n/a
2911576	RECOG_CONF	n/a	LTP110	ltpFR	16	4	0	EMERALD	528	5	0	n/a	n/a	n/a	n/a	n/a
2914969	REC_START	n/a	LTP110	ltpFR	16	5	n/a	n/a	n/a	n/a	n/a	n/a	n/a	n/a	n/a	n/a
2915000	RECOG_TARGET	n/a	LTP110	ltpFR	16	5	-1	ISLAND	745	4	-1	n/a	n/a	n/a	n/a	n/a
2915632	RECOG_RESP	n/a	LTP110	ltpFR	16	5	-1	ISLAND	745	n/a	-1	n/a	n/a	n/a	n/a	n/a
2916071	RECOG_CONF	n/a	LTP110	ltpFR	16	5	-1	ISLAND	745	4	-1	n/a	n/a	n/a	n/a	n/a
2917399	RECOG_TARGET	n/a	LTP110	ltpFR	16	5	1	SUPPER	1411	5	0	n/a	n/a	n/a	n/a	n/a
2919528	RECOG_RESP	n/a	LTP110	ltpFR	16	5	1	SUPPER	1411	n/a	0	n/a	n/a	n/a	n/a	n/a
2920002	RECOG_CONF	n/a	LTP110	ltpFR	16	5	1	SUPPER	1411	5	0	n/a	n/a	n/a	n/a	n/a
2921473	RECOG_LURE	n/a	LTP110	ltpFR	16	5	n/a	WHISKERS	1605	4	n/a	n/a	n/a	n/a	n/a	n/a
2921968	RECOG_RESP	n/a	LTP110	ltpFR	16	5	n/a	WHISKERS	1605	n/a	n/a	n/a	n/a	n/a	n/a	n/a
2922417	RECOG_CONF	n/a	LTP110	ltpFR	16	5	n/a	WHISKERS	1605	4	n/a	n/a	n/a	n/a	n/a	n/a
2923730	RECOG_LURE	n/a	LTP110	ltpFR	16	5	n/a	MASCARA	875	4	n/a	n/a	n/a	n/a	n/a	n/a
2924263	RECOG_RESP	n/a	LTP110	ltpFR	16	5	n/a	MASCARA	875	n/a	n/a	n/a	n/a	n/a	n/a	n/a
2924676	RECOG_CONF	n/a	LTP110	ltpFR	16	5	n/a	MASCARA	875	4	n/a	n/a	n/a	n/a	n/a	n/a
2926054	RECOG_LURE	n/a	LTP110	ltpFR	16	5	n/a	COOKBOOK	373	5	n/a	n/a	n/a	n/a	n/a	n/a
2926597	RECOG_RESP	n/a	LTP110	ltpFR	16	5	n/a	COOKBOOK	373	n/a	n/a	n/a	n/a	n/a	n/a	n/a
2927006	RECOG_CONF	n/a	LTP110	ltpFR	16	5	n/a	COOKBOOK	373	5	n/a	n/a	n/a	n/a	n/a	n/a
2928370	RECOG_LURE	n/a	LTP110	ltpFR	16	5	n/a	MICROSCOPE	891	4	n/a	n/a	n/a	n/a	n/a	n/a
2928947	RECOG_RESP	n/a	LTP110	ltpFR	16	5	n/a	MICROSCOPE	891	n/a	n/a	n/a	n/a	n/a	n/a	n/a
2929410	RECOG_CONF	n/a	LTP110	ltpFR	16	5	n/a	MICROSCOPE	891	4	n/a	n/a	n/a	n/a	n/a	n/a
2930719	RECOG_LURE	n/a	LTP110	ltpFR	16	5	n/a	HANDBAG	684	5	n/a	n/a	n/a	n/a	n/a	n/a
2931262	RECOG_RESP	n/a	LTP110	ltpFR	16	5	n/a	HANDBAG	684	n/a	n/a	n/a	n/a	n/a	n/a	n/a
2931655	RECOG_CONF	n/a	LTP110	ltpFR	16	5	n/a	HANDBAG	684	5	n/a	n/a	n/a	n/a	n/a	n/a
2933060	RECOG_LURE	n/a	LTP110	ltpFR	16	5	n/a	QUAIL	1147	5	n/a	n/a	n/a	n/a	n/a	n/a
2933547	RECOG_RESP	n/a	LTP110	ltpFR	16	5	n/a	QUAIL	1147	n/a	n/a	n/a	n/a	n/a	n/a	n/a
2933987	RECOG_CONF	n/a	LTP110	ltpFR	16	5	n/a	QUAIL	1147	5	n/a	n/a	n/a	n/a	n/a	n/a
2935276	RECOG_TARGET	n/a	LTP110	ltpFR	16	5	0	BANKER	84	5	1	n/a	n/a	n/a	n/a	n/a
2935841	RECOG_RESP	n/a	LTP110	ltpFR	16	5	0	BANKER	84	n/a	1	n/a	n/a	n/a	n/a	n/a
2936279	RECOG_CONF	n/a	LTP110	ltpFR	16	5	0	BANKER	84	5	1	n/a	n/a	n/a	n/a	n/a
2937642	RECOG_TARGET	n/a	LTP110	ltpFR	16	5	-1	BUG	187	5	-1	n/a	n/a	n/a	n/a	n/a
2938291	RECOG_RESP	n/a	LTP110	ltpFR	16	5	-1	BUG	187	n/a	-1	n/a	n/a	n/a	n/a	n/a
2938750	RECOG_CONF	n/a	LTP110	ltpFR	16	5	-1	BUG	187	5	-1	n/a	n/a	n/a	n/a	n/a
2940091	RECOG_TARGET	n/a	LTP110	ltpFR	16	5	0	SCIENTIST	1249	4	1	n/a	n/a	n/a	n/a	n/a
2940650	RECOG_RESP	n/a	LTP110	ltpFR	16	5	0	SCIENTIST	1249	n/a	1	n/a	n/a	n/a	n/a	n/a
2941084	RECOG_CONF	n/a	LTP110	ltpFR	16	5	0	SCIENTIST	1249	4	1	n/a	n/a	n/a	n/a	n/a
2942365	RECOG_TARGET	n/a	LTP110	ltpFR	16	5	0	VEHICLE	1553	5	1	n/a	n/a	n/a	n/a	n/a
2943329	RECOG_RESP	n/a	LTP110	ltpFR	16	5	0	VEHICLE	1553	n/a	1	n/a	n/a	n/a	n/a	n/a
2943709	RECOG_CONF	n/a	LTP110	ltpFR	16	5	0	VEHICLE	1553	5	1	n/a	n/a	n/a	n/a	n/a
2945131	RECOG_TARGET	n/a	LTP110	ltpFR	16	5	0	JEWEL	757	5	0	n/a	n/a	n/a	n/a	n/a
2945694	RECOG_RESP	n/a	LTP110	ltpFR	16	5	0	JEWEL	757	n/a	0	n/a	n/a	n/a	n/a	n/a
2946137	RECOG_CONF	n/a	LTP110	ltpFR	16	5	0	JEWEL	757	5	0	n/a	n/a	n/a	n/a	n/a
2947480	RECOG_TARGET	n/a	LTP110	ltpFR	16	5	0	PICTURE	1061	4	0	n/a	n/a	n/a	n/a	n/a
2948178	RECOG_RESP	n/a	LTP110	ltpFR	16	5	0	PICTURE	1061	n/a	0	n/a	n/a	n/a	n/a	n/a
2948967	RECOG_CONF	n/a	LTP110	ltpFR	16	5	0	PICTURE	1061	4	0	n/a	n/a	n/a	n/a	n/a
2950312	RECOG_TARGET	n/a	LTP110	ltpFR	16	5	1	SENATOR	1268	5	1	n/a	n/a	n/a	n/a	n/a
2950922	RECOG_RESP	n/a	LTP110	ltpFR	16	5	1	SENATOR	1268	n/a	1	n/a	n/a	n/a	n/a	n/a
2951342	RECOG_CONF	n/a	LTP110	ltpFR	16	5	1	SENATOR	1268	5	1	n/a	n/a	n/a	n/a	n/a
2952695	RECOG_TARGET	n/a	LTP110	ltpFR	16	5	1	CHEF	290	5	1	n/a	n/a	n/a	n/a	n/a
2953197	RECOG_RESP	n/a	LTP110	ltpFR	16	5	1	CHEF	290	n/a	1	n/a	n/a	n/a	n/a	n/a
2953636	RECOG_CONF	n/a	LTP110	ltpFR	16	5	1	CHEF	290	5	1	n/a	n/a	n/a	n/a	n/a
2954961	RECOG_TARGET	n/a	LTP110	ltpFR	16	5	0	TEENAGER	1444	1	1	n/a	n/a	n/a	n/a	n/a
2955986	RECOG_RESP_VV	n/a	LTP110	ltpFR	16	5	0	TEENAGER	1444	n/a	1	n/a	n/a	n/a	n/a	n/a
2957482	RECOG_RESP	n/a	LTP110	ltpFR	16	5	0	TEENAGER	1444	n/a	1	n/a	n/a	n/a	n/a	n/a
2958186	RECOG_CONF	n/a	LTP110	ltpFR	16	5	0	TEENAGER	1444	1	1	n/a	n/a	n/a	n/a	n/a
2959609	RECOG_LURE	n/a	LTP110	ltpFR	16	5	n/a	LID	817	4	n/a	n/a	n/a	n/a	n/a	n/a
2960416	RECOG_RESP	n/a	LTP110	ltpFR	16	5	n/a	LID	817	n/a	n/a	n/a	n/a	n/a	n/a	n/a
2960909	RECOG_CONF	n/a	LTP110	ltpFR	16	5	n/a	LID	817	4	n/a	n/a	n/a	n/a	n/a	n/a
2962292	RECOG_TARGET	n/a	LTP110	ltpFR	16	5	0	DENTIST	447	5	1	n/a	n/a	n/a	n/a	n/a
2963015	RECOG_RESP	n/a	LTP110	ltpFR	16	5	0	DENTIST	447	n/a	1	n/a	n/a	n/a	n/a	n/a
2963481	RECOG_CONF	n/a	LTP110	ltpFR	16	5	0	DENTIST	447	5	1	n/a	n/a	n/a	n/a	n/a
2964766	RECOG_TARGET	n/a	LTP110	ltpFR	16	5	0	MARBLE	867	5	1	n/a	n/a	n/a	n/a	n/a
2965344	RECOG_RESP	n/a	LTP110	ltpFR	16	5	0	MARBLE	867	n/a	1	n/a	n/a	n/a	n/a	n/a
2965760	RECOG_CONF	n/a	LTP110	ltpFR	16	5	0	MARBLE	867	5	1	n/a	n/a	n/a	n/a	n/a
2969587	REC_START	n/a	LTP110	ltpFR	16	6	n/a	n/a	n/a	n/a	n/a	n/a	n/a	n/a	n/a	n/a
2969622	RECOG_TARGET	n/a	LTP110	ltpFR	16	6	1	WATER	1594	5	0	n/a	n/a	n/a	n/a	n/a
2970170	RECOG_RESP	n/a	LTP110	ltpFR	16	6	1	WATER	1594	n/a	0	n/a	n/a	n/a	n/a	n/a
2970699	RECOG_CONF	n/a	LTP110	ltpFR	16	6	1	WATER	1594	5	0	n/a	n/a	n/a	n/a	n/a
2972030	RECOG_TARGET	n/a	LTP110	ltpFR	16	6	1	NAPKIN	937	5	0	n/a	n/a	n/a	n/a	n/a
2972635	RECOG_RESP	n/a	LTP110	ltpFR	16	6	1	NAPKIN	937	n/a	0	n/a	n/a	n/a	n/a	n/a
2973084	RECOG_CONF	n/a	LTP110	ltpFR	16	6	1	NAPKIN	937	5	0	n/a	n/a	n/a	n/a	n/a
2974387	RECOG_LURE	n/a	LTP110	ltpFR	16	6	n/a	PRINTER	1126	4	n/a	n/a	n/a	n/a	n/a	n/a
2975019	RECOG_RESP	n/a	LTP110	ltpFR	16	6	n/a	PRINTER	1126	n/a	n/a	n/a	n/a	n/a	n/a	n/a
2975416	RECOG_CONF	n/a	LTP110	ltpFR	16	6	n/a	PRINTER	1126	4	n/a	n/a	n/a	n/a	n/a	n/a
2976803	RECOG_TARGET	n/a	LTP110	ltpFR	16	6	-1	CAPITAL	238	5	-1	n/a	n/a	n/a	n/a	n/a
2977319	RECOG_RESP	n/a	LTP110	ltpFR	16	6	-1	CAPITAL	238	n/a	-1	n/a	n/a	n/a	n/a	n/a
2977743	RECOG_CONF	n/a	LTP110	ltpFR	16	6	-1	CAPITAL	238	5	-1	n/a	n/a	n/a	n/a	n/a
2979144	RECOG_LURE	n/a	LTP110	ltpFR	16	6	n/a	WARRIOR	1589	4	n/a	n/a	n/a	n/a	n/a	n/a
2979699	RECOG_RESP	n/a	LTP110	ltpFR	16	6	n/a	WARRIOR	1589	n/a	n/a	n/a	n/a	n/a	n/a	n/a
2980071	RECOG_CONF	n/a	LTP110	ltpFR	16	6	n/a	WARRIOR	1589	4	n/a	n/a	n/a	n/a	n/a	n/a
2981460	RECOG_TARGET	n/a	LTP110	ltpFR	16	6	-1	CUP	424	5	-1	n/a	n/a	n/a	n/a	n/a
2982068	RECOG_RESP	n/a	LTP110	ltpFR	16	6	-1	CUP	424	n/a	-1	n/a	n/a	n/a	n/a	n/a
2982473	RECOG_CONF	n/a	LTP110	ltpFR	16	6	-1	CUP	424	5	-1	n/a	n/a	n/a	n/a	n/a
2983867	RECOG_LURE	n/a	LTP110	ltpFR	16	6	n/a	PISTOL	1075	4	n/a	n/a	n/a	n/a	n/a	n/a
2985007	RECOG_RESP	n/a	LTP110	ltpFR	16	6	n/a	PISTOL	1075	n/a	n/a	n/a	n/a	n/a	n/a	n/a
2985473	RECOG_CONF	n/a	LTP110	ltpFR	16	6	n/a	PISTOL	1075	4	n/a	n/a	n/a	n/a	n/a	n/a
2986825	RECOG_TARGET	n/a	LTP110	ltpFR	16	6	-1	HORNET	718	5	-1	n/a	n/a	n/a	n/a	n/a
2987446	RECOG_RESP	n/a	LTP110	ltpFR	16	6	-1	HORNET	718	n/a	-1	n/a	n/a	n/a	n/a	n/a
2987880	RECOG_CONF	n/a	LTP110	ltpFR	16	6	-1	HORNET	718	5	-1	n/a	n/a	n/a	n/a	n/a
2989257	RECOG_LURE	n/a	LTP110	ltpFR	16	6	n/a	DAGGER	434	5	n/a	n/a	n/a	n/a	n/a	n/a
2989816	RECOG_RESP	n/a	LTP110	ltpFR	16	6	n/a	DAGGER	434	n/a	n/a	n/a	n/a	n/a	n/a	n/a
2990209	RECOG_CONF	n/a	LTP110	ltpFR	16	6	n/a	DAGGER	434	5	n/a	n/a	n/a	n/a	n/a	n/a
2991640	RECOG_TARGET	n/a	LTP110	ltpFR	16	6	1	PENNY	1045	5	0	n/a	n/a	n/a	n/a	n/a
2992240	RECOG_RESP	n/a	LTP110	ltpFR	16	6	1	PENNY	1045	n/a	0	n/a	n/a	n/a	n/a	n/a
2992629	RECOG_CONF	n/a	LTP110	ltpFR	16	6	1	PENNY	1045	5	0	n/a	n/a	n/a	n/a	n/a
2993980	RECOG_LURE	n/a	LTP110	ltpFR	16	6	n/a	CANARY	227	4	n/a	n/a	n/a	n/a	n/a	n/a
2994795	RECOG_RESP	n/a	LTP110	ltpFR	16	6	n/a	CANARY	227	n/a	n/a	n/a	n/a	n/a	n/a	n/a
2995188	RECOG_CONF	n/a	LTP110	ltpFR	16	6	n/a	CANARY	227	4	n/a	n/a	n/a	n/a	n/a	n/a
2996571	RECOG_TARGET	n/a	LTP110	ltpFR	16	6	0	PITCHFORK	1078	5	1	n/a	n/a	n/a	n/a	n/a
2997129	RECOG_RESP	n/a	LTP110	ltpFR	16	6	0	PITCHFORK	1078	n/a	1	n/a	n/a	n/a	n/a	n/a
2997548	RECOG_CONF	n/a	LTP110	ltpFR	16	6	0	PITCHFORK	1078	5	1	n/a	n/a	n/a	n/a	n/a
2998920	RECOG_LURE	n/a	LTP110	ltpFR	16	6	n/a	DIVER	476	4	n/a	n/a	n/a	n/a	n/a	n/a
2999544	RECOG_RESP	n/a	LTP110	ltpFR	16	6	n/a	DIVER	476	n/a	n/a	n/a	n/a	n/a	n/a	n/a
2999937	RECOG_CONF	n/a	LTP110	ltpFR	16	6	n/a	DIVER	476	4	n/a	n/a	n/a	n/a	n/a	n/a
3001303	RECOG_LURE	n/a	LTP110	ltpFR	16	6	n/a	BLUEBERRY	140	5	n/a	n/a	n/a	n/a	n/a	n/a
3001903	RECOG_RESP	n/a	LTP110	ltpFR	16	6	n/a	BLUEBERRY	140	n/a	n/a	n/a	n/a	n/a	n/a	n/a
3002342	RECOG_CONF	n/a	LTP110	ltpFR	16	6	n/a	BLUEBERRY	140	5	n/a	n/a	n/a	n/a	n/a	n/a
3003669	RECOG_TARGET	n/a	LTP110	ltpFR	16	6	1	NECK	939	5	0	n/a	n/a	n/a	n/a	n/a
3004263	RECOG_RESP	n/a	LTP110	ltpFR	16	6	1	NECK	939	n/a	0	n/a	n/a	n/a	n/a	n/a
3004706	RECOG_CONF	n/a	LTP110	ltpFR	16	6	1	NECK	939	5	0	n/a	n/a	n/a	n/a	n/a
3006059	RECOG_LURE	n/a	LTP110	ltpFR	16	6	n/a	FLAG	573	4	n/a	n/a	n/a	n/a	n/a	n/a
3006633	RECOG_RESP	n/a	LTP110	ltpFR	16	6	n/a	FLAG	573	n/a	n/a	n/a	n/a	n/a	n/a	n/a
3007051	RECOG_CONF	n/a	LTP110	ltpFR	16	6	n/a	FLAG	573	4	n/a	n/a	n/a	n/a	n/a	n/a
3008450	RECOG_TARGET	n/a	LTP110	ltpFR	16	6	-1	CONTRACT	368	5	-1	n/a	n/a	n/a	n/a	n/a
3009112	RECOG_RESP	n/a	LTP110	ltpFR	16	6	-1	CONTRACT	368	n/a	-1	n/a	n/a	n/a	n/a	n/a
3009582	RECOG_CONF	n/a	LTP110	ltpFR	16	6	-1	CONTRACT	368	5	-1	n/a	n/a	n/a	n/a	n/a
3010941	RECOG_TARGET	n/a	LTP110	ltpFR	16	6	1	RESTAURANT	1187	5	0	n/a	n/a	n/a	n/a	n/a
3011531	RECOG_RESP	n/a	LTP110	ltpFR	16	6	1	RESTAURANT	1187	n/a	0	n/a	n/a	n/a	n/a	n/a
3011938	RECOG_CONF	n/a	LTP110	ltpFR	16	6	1	RESTAURANT	1187	5	0	n/a	n/a	n/a	n/a	n/a
3013740	RECOG_TARGET	n/a	LTP110	ltpFR	16	6	1	PELICAN	1039	4	1	n/a	n/a	n/a	n/a	n/a
3014335	RECOG_RESP	n/a	LTP110	ltpFR	16	6	1	PELICAN	1039	n/a	1	n/a	n/a	n/a	n/a	n/a
3014769	RECOG_CONF	n/a	LTP110	ltpFR	16	6	1	PELICAN	1039	4	1	n/a	n/a	n/a	n/a	n/a
3016048	RECOG_TARGET	n/a	LTP110	ltpFR	16	6	0	CLERK	321	5	1	n/a	n/a	n/a	n/a	n/a
3017094	RECOG_RESP	n/a	LTP110	ltpFR	16	6	0	CLERK	321	n/a	1	n/a	n/a	n/a	n/a	n/a
3017463	RECOG_CONF	n/a	LTP110	ltpFR	16	6	0	CLERK	321	5	1	n/a	n/a	n/a	n/a	n/a
3020426	REC_START	n/a	LTP110	ltpFR	16	7	n/a	n/a	n/a	n/a	n/a	n/a	n/a	n/a	n/a	n/a
3020454	RECOG_TARGET	n/a	LTP110	ltpFR	16	7	0	KID	775	5	1	n/a	n/a	n/a	n/a	n/a
3021144	RECOG_RESP	n/a	LTP110	ltpFR	16	7	0	KID	775	n/a	1	n/a	n/a	n/a	n/a	n/a
3021568	RECOG_CONF	n/a	LTP110	ltpFR	16	7	0	KID	775	5	1	n/a	n/a	n/a	n/a	n/a
3022903	RECOG_LURE	n/a	LTP110	ltpFR	16	7	n/a	MAGICIAN	854	4	n/a	n/a	n/a	n/a	n/a	n/a
3023454	RECOG_RESP	n/a	LTP110	ltpFR	16	7	n/a	MAGICIAN	854	n/a	n/a	n/a	n/a	n/a	n/a	n/a
3023873	RECOG_CONF	n/a	LTP110	ltpFR	16	7	n/a	MAGICIAN	854	4	n/a	n/a	n/a	n/a	n/a	n/a
3025203	RECOG_TARGET	n/a	LTP110	ltpFR	16	7	0	DIAPER	459	5	1	n/a	n/a	n/a	n/a	n/a
3025848	RECOG_RESP	n/a	LTP110	ltpFR	16	7	0	DIAPER	459	n/a	1	n/a	n/a	n/a	n/a	n/a
3026268	RECOG_CONF	n/a	LTP110	ltpFR	16	7	0	DIAPER	459	5	1	n/a	n/a	n/a	n/a	n/a
3028077	RECOG_LURE	n/a	LTP110	ltpFR	16	7	n/a	DINOSAUR	469	4	n/a	n/a	n/a	n/a	n/a	n/a
3030044	RECOG_RESP	n/a	LTP110	ltpFR	16	7	n/a	DINOSAUR	469	n/a	n/a	n/a	n/a	n/a	n/a	n/a
3030518	RECOG_CONF	n/a	LTP110	ltpFR	16	7	n/a	DINOSAUR	469	4	n/a	n/a	n/a	n/a	n/a	n/a
3031934	RECOG_TARGET	n/a	LTP110	ltpFR	16	7	1	FARM	552	5	0	n/a	n/a	n/a	n/a	n/a
3032434	RECOG_RESP	n/a	LTP110	ltpFR	16	7	1	FARM	552	n/a	0	n/a	n/a	n/a	n/a	n/a
3032892	RECOG_CONF	n/a	LTP110	ltpFR	16	7	1	FARM	552	5	0	n/a	n/a	n/a	n/a	n/a
3034232	RECOG_LURE	n/a	LTP110	ltpFR	16	7	n/a	MOON	914	4	n/a	n/a	n/a	n/a	n/a	n/a
3034758	RECOG_RESP	n/a	LTP110	ltpFR	16	7	n/a	MOON	914	n/a	n/a	n/a	n/a	n/a	n/a	n/a
3035153	RECOG_CONF	n/a	LTP110	ltpFR	16	7	n/a	MOON	914	4	n/a	n/a	n/a	n/a	n/a	n/a
3036540	RECOG_TARGET	n/a	LTP110	ltpFR	16	7	1	SYRUP	1425	5	0	n/a	n/a	n/a	n/a	n/a
3036983	RECOG_RESP	n/a	LTP110	ltpFR	16	7	1	SYRUP	1425	n/a	0	n/a	n/a	n/a	n/a	n/a
3037422	RECOG_CONF	n/a	LTP110	ltpFR	16	7	1	SYRUP	1425	5	0	n/a	n/a	n/a	n/a	n/a
3038698	RECOG_TARGET	n/a	LTP110	ltpFR	16	7	1	SURVEY	1414	5	0	n/a	n/a	n/a	n/a	n/a
3039712	RECOG_RESP	n/a	LTP110	ltpFR	16	7	1	SURVEY	1414	n/a	0	n/a	n/a	n/a	n/a	n/a
3040206	RECOG_CONF	n/a	LTP110	ltpFR	16	7	1	SURVEY	1414	5	0	n/a	n/a	n/a	n/a	n/a
3041480	RECOG_TARGET	n/a	LTP110	ltpFR	16	7	1	ASTRONAUT	51	5	1	n/a	n/a	n/a	n/a	n/a
3042181	RECOG_RESP	n/a	LTP110	ltpFR	16	7	1	ASTRONAUT	51	n/a	1	n/a	n/a	n/a	n/a	n/a
3042640	RECOG_CONF	n/a	LTP110	ltpFR	16	7	1	ASTRONAUT	51	5	1	n/a	n/a	n/a	n/a	n/a
3043938	RECOG_TARGET	n/a	LTP110	ltpFR	16	7	1	PATRIOT	1026	5	1	n/a	n/a	n/a	n/a	n/a
3044571	RECOG_RESP	n/a	LTP110	ltpFR	16	7	1	PATRIOT	1026	n/a	1	n/a	n/a	n/a	n/a	n/a
3044985	RECOG_CONF	n/a	LTP110	ltpFR	16	7	1	PATRIOT	1026	5	1	n/a	n/a	n/a	n/a	n/a
3046337	RECOG_TARGET	n/a	LTP110	ltpFR	16	7	0	MANSION	864	5	1	n/a	n/a	n/a	n/a	n/a
3046831	RECOG_RESP	n/a	LTP110	ltpFR	16	7	0	MANSION	864	n/a	1	n/a	n/a	n/a	n/a	n/a
3047261	RECOG_CONF	n/a	LTP110	ltpFR	16	7	0	MANSION	864	5	1	n/a	n/a	n/a	n/a	n/a
3048586	RECOG_TARGET	n/a	LTP110	ltpFR	16	7	1	PLATE	1086	5	0	n/a	n/a	n/a	n/a	n/a
3049126	RECOG_RESP	n/a	LTP110	ltpFR	16	7	1	PLATE	1086	n/a	0	n/a	n/a	n/a	n/a	n/a
3049575	RECOG_CONF	n/a	LTP110	ltpFR	16	7	1	PLATE	1086	5	0	n/a	n/a	n/a	n/a	n/a
3050969	RECOG_TARGET	n/a	LTP110	ltpFR	16	7	1	PORCUPINE	1107	5	1	n/a	n/a	n/a	n/a	n/a
3051505	RECOG_RESP	n/a	LTP110	ltpFR	16	7	1	PORCUPINE	1107	n/a	1	n/a	n/a	n/a	n/a	n/a
3051989	RECOG_CONF	n/a	LTP110	ltpFR	16	7	1	PORCUPINE	1107	5	1	n/a	n/a	n/a	n/a	n/a
3053393	RECOG_LURE	n/a	LTP110	ltpFR	16	7	n/a	JELLY	755	5	n/a	n/a	n/a	n/a	n/a	n/a
3053900	RECOG_RESP	n/a	LTP110	ltpFR	16	7	n/a	JELLY	755	n/a	n/a	n/a	n/a	n/a	n/a	n/a
3054334	RECOG_CONF	n/a	LTP110	ltpFR	16	7	n/a	JELLY	755	5	n/a	n/a	n/a	n/a	n/a	n/a
3055642	RECOG_TARGET	n/a	LTP110	ltpFR	16	7	1	REFEREE	1178	5	1	n/a	n/a	n/a	n/a	n/a
3057746	RECOG_RESP	n/a	LTP110	ltpFR	16	7	1	REFEREE	1178	n/a	1	n/a	n/a	n/a	n/a	n/a
3058205	RECOG_CONF	n/a	LTP110	ltpFR	16	7	1	REFEREE	1178	5	1	n/a	n/a	n/a	n/a	n/a
3059657	RECOG_TARGET	n/a	LTP110	ltpFR	16	7	0	RADIATOR	1156	5	1	n/a	n/a	n/a	n/a	n/a
3060340	RECOG_RESP	n/a	LTP110	ltpFR	16	7	0	RADIATOR	1156	n/a	1	n/a	n/a	n/a	n/a	n/a
3060769	RECOG_CONF	n/a	LTP110	ltpFR	16	7	0	RADIATOR	1156	5	1	n/a	n/a	n/a	n/a	n/a
3062098	RECOG_LURE	n/a	LTP110	ltpFR	16	7	n/a	TREAT	1501	4	n/a	n/a	n/a	n/a	n/a	n/a
3062695	RECOG_RESP	n/a	LTP110	ltpFR	16	7	n/a	TREAT	1501	n/a	n/a	n/a	n/a	n/a	n/a	n/a
3063115	RECOG_CONF	n/a	LTP110	ltpFR	16	7	n/a	TREAT	1501	4	n/a	n/a	n/a	n/a	n/a	n/a
3064489	RECOG_TARGET	n/a	LTP110	ltpFR	16	7	0	AGENT	10	5	1	n/a	n/a	n/a	n/a	n/a
3065079	RECOG_RESP	n/a	LTP110	ltpFR	16	7	0	AGENT	10	n/a	1	n/a	n/a	n/a	n/a	n/a
3065498	RECOG_CONF	n/a	LTP110	ltpFR	16	7	0	AGENT	10	5	1	n/a	n/a	n/a	n/a	n/a
3066946	RECOG_TARGET	n/a	LTP110	ltpFR	16	7	0	REFRIGERATOR	1179	5	1	n/a	n/a	n/a	n/a	n/a
3067469	RECOG_RESP	n/a	LTP110	ltpFR	16	7	0	REFRIGERATOR	1179	n/a	1	n/a	n/a	n/a	n/a	n/a
3068023	RECOG_CONF	n/a	LTP110	ltpFR	16	7	0	REFRIGERATOR	1179	5	1	n/a	n/a	n/a	n/a	n/a
3069379	RECOG_TARGET	n/a	LTP110	ltpFR	16	7	0	TONGUE	1479	5	0	n/a	n/a	n/a	n/a	n/a
3070048	RECOG_RESP	n/a	LTP110	ltpFR	16	7	0	TONGUE	1479	n/a	0	n/a	n/a	n/a	n/a	n/a
3070448	RECOG_CONF	n/a	LTP110	ltpFR	16	7	0	TONGUE	1479	5	0	n/a	n/a	n/a	n/a	n/a
3073735	REC_START	n/a	LTP110	ltpFR	16	8	n/a	n/a	n/a	n/a	n/a	n/a	n/a	n/a	n/a	n/a
3073769	RECOG_TARGET	n/a	LTP110	ltpFR	16	8	1	BUTTON	207	5	0	n/a	n/a	n/a	n/a	n/a
3074348	RECOG_RESP	n/a	LTP110	ltpFR	16	8	1	BUTTON	207	n/a	0	n/a	n/a	n/a	n/a	n/a
3074728	RECOG_CONF	n/a	LTP110	ltpFR	16	8	1	BUTTON	207	5	0	n/a	n/a	n/a	n/a	n/a
3075993	RECOG_LURE	n/a	LTP110	ltpFR	16	8	n/a	FUNERAL	613	4	n/a	n/a	n/a	n/a	n/a	n/a
3076538	RECOG_RESP	n/a	LTP110	ltpFR	16	8	n/a	FUNERAL	613	n/a	n/a	n/a	n/a	n/a	n/a	n/a
3076953	RECOG_CONF	n/a	LTP110	ltpFR	16	8	n/a	FUNERAL	613	4	n/a	n/a	n/a	n/a	n/a	n/a
3078209	RECOG_LURE	n/a	LTP110	ltpFR	16	8	n/a	BIKE	125	4	n/a	n/a	n/a	n/a	n/a	n/a
3078913	RECOG_RESP	n/a	LTP110	ltpFR	16	8	n/a	BIKE	125	n/a	n/a	n/a	n/a	n/a	n/a	n/a
3079297	RECOG_CONF	n/a	LTP110	ltpFR	16	8	n/a	BIKE	125	4	n/a	n/a	n/a	n/a	n/a	n/a
3080608	RECOG_LURE	n/a	LTP110	ltpFR	16	8	n/a	OMELET	976	5	n/a	n/a	n/a	n/a	n/a	n/a
3081263	RECOG_RESP	n/a	LTP110	ltpFR	16	8	n/a	OMELET	976	n/a	n/a	n/a	n/a	n/a	n/a	n/a
3081610	RECOG_CONF	n/a	LTP110	ltpFR	16	8	n/a	OMELET	976	5	n/a	n/a	n/a	n/a	n/a	n/a
3083215	RECOG_TARGET	n/a	LTP110	ltpFR	16	8	1	COMPUTER	359	5	0	n/a	n/a	n/a	n/a	n/a
3083847	RECOG_RESP	n/a	LTP110	ltpFR	16	8	1	COMPUTER	359	n/a	0	n/a	n/a	n/a	n/a	n/a
3084236	RECOG_CONF	n/a	LTP110	ltpFR	16	8	1	COMPUTER	359	5	0	n/a	n/a	n/a	n/a	n/a
3085573	RECOG_TARGET	n/a	LTP110	ltpFR	16	8	0	WHEEL	1603	5	1	n/a	n/a	n/a	n/a	n/a
3086057	RECOG_RESP	n/a	LTP110	ltpFR	16	8	0	WHEEL	1603	n/a	1	n/a	n/a	n/a	n/a	n/a
3086431	RECOG_CONF	n/a	LTP110	ltpFR	16	8	0	WHEEL	1603	5	1	n/a	n/a	n/a	n/a	n/a
3087739	RECOG_TARGET	n/a	LTP110	ltpFR	16	8	0	TUB	1514	5	1	n/a	n/a	n/a	n/a	n/a
3088187	RECOG_RESP	n/a	LTP110	ltpFR	16	8	0	TUB	1514	n/a	1	n/a	n/a	n/a	n/a	n/a
3088576	RECOG_CONF	n/a	LTP110	ltpFR	16	8	0	TUB	1514	5	1	n/a	n/a	n/a	n/a	n/a
3089880	RECOG_TARGET	n/a	LTP110	ltpFR	16	8	1	BLANKET	135	5	0	n/a	n/a	n/a	n/a	n/a
3090397	RECOG_RESP	n/a	LTP110	ltpFR	16	8	1	BLANKET	135	n/a	0	n/a	n/a	n/a	n/a	n/a
3090821	RECOG_CONF	n/a	LTP110	ltpFR	16	8	1	BLANKET	135	5	0	n/a	n/a	n/a	n/a	n/a
3092146	RECOG_LURE	n/a	LTP110	ltpFR	16	8	n/a	DART	440	4	n/a	n/a	n/a	n/a	n/a	n/a
3092667	RECOG_RESP	n/a	LTP110	ltpFR	16	8	n/a	DART	440	n/a	n/a	n/a	n/a	n/a	n/a	n/a
3093085	RECOG_CONF	n/a	LTP110	ltpFR	16	8	n/a	DART	440	4	n/a	n/a	n/a	n/a	n/a	n/a
3094353	RECOG_TARGET	n/a	LTP110	ltpFR	16	8	-1	CHAPEL	280	5	-1	n/a	n/a	n/a	n/a	n/a
3094812	RECOG_RESP	n/a	LTP110	ltpFR	16	8	-1	CHAPEL	280	n/a	-1	n/a	n/a	n/a	n/a	n/a
3095230	RECOG_CONF	n/a	LTP110	ltpFR	16	8	-1	CHAPEL	280	5	-1	n/a	n/a	n/a	n/a	n/a
3096461	RECOG_TARGET	n/a	LTP110	ltpFR	16	8	-1	LOG	841	5	-1	n/a	n/a	n/a	n/a	n/a
3096912	RECOG_RESP	n/a	LTP110	ltpFR	16	8	-1	LOG	841	n/a	-1	n/a	n/a	n/a	n/a	n/a
3097323	RECOG_CONF	n/a	LTP110	ltpFR	16	8	-1	LOG	841	5	-1	n/a	n/a	n/a	n/a	n/a
3098610	RECOG_TARGET	n/a	LTP110	ltpFR	16	8	-1	WEED	1599	5	-1	n/a	n/a	n/a	n/a	n/a
3099092	RECOG_RESP	n/a	LTP110	ltpFR	16	8	-1	WEED	1599	n/a	-1	n/a	n/a	n/a	n/a	n/a
3099489	RECOG_CONF	n/a	LTP110	ltpFR	16	8	-1	WEED	1599	5	-1	n/a	n/a	n/a	n/a	n/a
3100693	RECOG_TARGET	n/a	LTP110	ltpFR	16	8	0	ANCESTOR	20	5	1	n/a	n/a	n/a	n/a	n/a
3101138	RECOG_RESP	n/a	LTP110	ltpFR	16	8	0	ANCESTOR	20	n/a	1	n/a	n/a	n/a	n/a	n/a
3101502	RECOG_CONF	n/a	LTP110	ltpFR	16	8	0	ANCESTOR	20	5	1	n/a	n/a	n/a	n/a	n/a
3103175	RECOG_LURE	n/a	LTP110	ltpFR	16	8	n/a	LETTUCE	814	4	n/a	n/a	n/a	n/a	n/a	n/a
3103667	RECOG_RESP	n/a	LTP110	ltpFR	16	8	n/a	LETTUCE	814	n/a	n/a	n/a	n/a	n/a	n/a	n/a
3104108	RECOG_CONF	n/a	LTP110	ltpFR	16	8	n/a	LETTUCE	814	4	n/a	n/a	n/a	n/a	n/a	n/a
3105383	RECOG_TARGET	n/a	LTP110	ltpFR	16	8	0	OWNER	993	5	1	n/a	n/a	n/a	n/a	n/a
3105942	RECOG_RESP	n/a	LTP110	ltpFR	16	8	0	OWNER	993	n/a	1	n/a	n/a	n/a	n/a	n/a
3106326	RECOG_CONF	n/a	LTP110	ltpFR	16	8	0	OWNER	993	5	1	n/a	n/a	n/a	n/a	n/a
3107682	RECOG_LURE	n/a	LTP110	ltpFR	16	8	n/a	PUDDLE	1140	4	n/a	n/a	n/a	n/a	n/a	n/a
3108281	RECOG_RESP	n/a	LTP110	ltpFR	16	8	n/a	PUDDLE	1140	n/a	n/a	n/a	n/a	n/a	n/a	n/a
3108697	RECOG_CONF	n/a	LTP110	ltpFR	16	8	n/a	PUDDLE	1140	4	n/a	n/a	n/a	n/a	n/a	n/a
3110023	RECOG_TARGET	n/a	LTP110	ltpFR	16	8	0	SHRINE	1298	5	1	n/a	n/a	n/a	n/a	n/a
3110461	RECOG_RESP	n/a	LTP110	ltpFR	16	8	0	SHRINE	1298	n/a	1	n/a	n/a	n/a	n/a	n/a
3110872	RECOG_CONF	n/a	LTP110	ltpFR	16	8	0	SHRINE	1298	5	1	n/a	n/a	n/a	n/a	n/a
3112180	RECOG_TARGET	n/a	LTP110	ltpFR	16	8	0	DILL	465	5	0	n/a	n/a	n/a	n/a	n/a
3112671	RECOG_RESP	n/a	LTP110	ltpFR	16	8	0	DILL	465	n/a	0	n/a	n/a	n/a	n/a	n/a
3113062	RECOG_CONF	n/a	LTP110	ltpFR	16	8	0	DILL	465	5	0	n/a	n/a	n/a	n/a	n/a
3114329	RECOG_TARGET	n/a	LTP110	ltpFR	16	8	-1	NICKEL	950	1	-1	n/a	n/a	n/a	n/a	n/a
3114956	RECOG_RESP_VV	n/a	LTP110	ltpFR	16	8	-1	NICKEL	950	n/a	-1	n/a	n/a	n/a	n/a	n/a
3115744	RECOG_RESP	n/a	LTP110	ltpFR	16	8	-1	NICKEL	950	n/a	-1	n/a	n/a	n/a	n/a	n/a
3116553	RECOG_CONF	n/a	LTP110	ltpFR	16	8	-1	NICKEL	950	1	-1	n/a	n/a	n/a	n/a	n/a
3117953	RECOG_LURE	n/a	LTP110	ltpFR	16	8	n/a	DIPLOMA	470	4	n/a	n/a	n/a	n/a	n/a	n/a
3118648	RECOG_RESP	n/a	LTP110	ltpFR	16	8	n/a	DIPLOMA	470	n/a	n/a	n/a	n/a	n/a	n/a	n/a
3119047	RECOG_CONF	n/a	LTP110	ltpFR	16	8	n/a	DIPLOMA	470	4	n/a	n/a	n/a	n/a	n/a	n/a
3121820	REC_START	n/a	LTP110	ltpFR	16	9	n/a	n/a	n/a	n/a	n/a	n/a	n/a	n/a	n/a	n/a
3121852	RECOG_LURE	n/a	LTP110	ltpFR	16	9	n/a	CREEK	404	1	n/a	n/a	n/a	n/a	n/a	n/a
3123341	RECOG_RESP	n/a	LTP110	ltpFR	16	9	n/a	CREEK	404	n/a	n/a	n/a	n/a	n/a	n/a	n/a
3123990	RECOG_CONF	n/a	LTP110	ltpFR	16	9	n/a	CREEK	404	1	n/a	n/a	n/a	n/a	n/a	n/a
3125384	RECOG_TARGET	n/a	LTP110	ltpFR	16	9	-1	BREAD	170	4	-1	n/a	n/a	n/a	n/a	n/a
3126195	RECOG_RESP	n/a	LTP110	ltpFR	16	9	-1	BREAD	170	n/a	-1	n/a	n/a	n/a	n/a	n/a
3126542	RECOG_CONF	n/a	LTP110	ltpFR	16	9	-1	BREAD	170	4	-1	n/a	n/a	n/a	n/a	n/a
3127891	RECOG_TARGET	n/a	LTP110	ltpFR	16	9	-1	KETTLE	772	5	-1	n/a	n/a	n/a	n/a	n/a
3130056	RECOG_RESP	n/a	LTP110	ltpFR	16	9	-1	KETTLE	772	n/a	-1	n/a	n/a	n/a	n/a	n/a
3130495	RECOG_CONF	n/a	LTP110	ltpFR	16	9	-1	KETTLE	772	5	-1	n/a	n/a	n/a	n/a	n/a
3131890	RECOG_TARGET	n/a	LTP110	ltpFR	16	9	0	SCAPEGOAT	1244	5	1	n/a	n/a	n/a	n/a	n/a
3132545	RECOG_RESP	n/a	LTP110	ltpFR	16	9	0	SCAPEGOAT	1244	n/a	1	n/a	n/a	n/a	n/a	n/a
3132947	RECOG_CONF	n/a	LTP110	ltpFR	16	9	0	SCAPEGOAT	1244	5	1	n/a	n/a	n/a	n/a	n/a
3134246	RECOG_LURE	n/a	LTP110	ltpFR	16	9	n/a	SUMMIT	1405	4	n/a	n/a	n/a	n/a	n/a	n/a
3134785	RECOG_RESP	n/a	LTP110	ltpFR	16	9	n/a	SUMMIT	1405	n/a	n/a	n/a	n/a	n/a	n/a	n/a
3135157	RECOG_CONF	n/a	LTP110	ltpFR	16	9	n/a	SUMMIT	1405	4	n/a	n/a	n/a	n/a	n/a	n/a
3136513	RECOG_TARGET	n/a	LTP110	ltpFR	16	9	0	TOOTHPASTE	1483	5	0	n/a	n/a	n/a	n/a	n/a
3137045	RECOG_RESP	n/a	LTP110	ltpFR	16	9	0	TOOTHPASTE	1483	n/a	0	n/a	n/a	n/a	n/a	n/a
3137465	RECOG_CONF	n/a	LTP110	ltpFR	16	9	0	TOOTHPASTE	1483	5	0	n/a	n/a	n/a	n/a	n/a
3138846	RECOG_TARGET	n/a	LTP110	ltpFR	16	9	1	CUSTOMER	430	5	1	n/a	n/a	n/a	n/a	n/a
3139375	RECOG_RESP	n/a	LTP110	ltpFR	16	9	1	CUSTOMER	430	n/a	1	n/a	n/a	n/a	n/a	n/a
3139774	RECOG_CONF	n/a	LTP110	ltpFR	16	9	1	CUSTOMER	430	5	1	n/a	n/a	n/a	n/a	n/a
3141162	RECOG_TARGET	n/a	LTP110	ltpFR	16	9	0	CREAM	402	5	0	n/a	n/a	n/a	n/a	n/a
3141645	RECOG_RESP	n/a	LTP110	ltpFR	16	9	0	CREAM	402	n/a	0	n/a	n/a	n/a	n/a	n/a
3142042	RECOG_CONF	n/a	LTP110	ltpFR	16	9	0	CREAM	402	5	0	n/a	n/a	n/a	n/a	n/a
3143311	RECOG_TARGET	n/a	LTP110	ltpFR	16	9	1	MATTRESS	879	5	0	n/a	n/a	n/a	n/a	n/a
3143825	RECOG_RESP	n/a	LTP110	ltpFR	16	9	1	MATTRESS	879	n/a	0	n/a	n/a	n/a	n/a	n/a
3144208	RECOG_CONF	n/a	LTP110	ltpFR	16	9	1	MATTRESS	879	5	0	n/a	n/a	n/a	n/a	n/a
3145493	RECOG_LURE	n/a	LTP110	ltpFR	16	9	n/a	HANGER	687	4	n/a	n/a	n/a	n/a	n/a	n/a
