mstime	trial_type	stim_file	subject	experiment	session	trial	item_name	item_num	list	answer	test_x	test_y	test_z
0	SESS_START	n/a	LTP278	ltpFR2	19	n/a	n/a	n/a	n/a	n/a	0	0	0
13098	START	n/a	LTP278	ltpFR2	19	n/a	n/a	n/a	-1	n/a	n/a	n/a	n/a
13131	PROB	n/a	LTP278	ltpFR2	19	n/a	n/a	n/a	-1	18	9	5	4
14827	PROB	n/a	LTP278	ltpFR2	19	n/a	n/a	n/a	-1	7	1	1	5
15993	PROB	n/a	LTP278	ltpFR2	19	n/a	n/a	n/a	-1	15	8	1	6
17440	PROB	n/a	LTP278	ltpFR2	19	n/a	n/a	n/a	-1	16	3	7	6
18755	PROB	n/a	LTP278	ltpFR2	19	n/a	n/a	n/a	-1	21	7	9	5
20319	PROB	n/a	LTP278	ltpFR2	19	n/a	n/a	n/a	-1	19	8	2	9
21534	PROB	n/a	LTP278	ltpFR2	19	n/a	n/a	n/a	-1	10	2	2	6
22782	PROB	n/a	LTP278	ltpFR2	19	n/a	n/a	n/a	-1	9	4	4	1
23800	STOP	n/a	LTP278	ltpFR2	19	n/a	n/a	n/a	-1	n/a	n/a	n/a	n/a
55301	WORD	wordpools/wasnorm_wordpool_576.txt	LTP278	ltpFR2	19	1	DUST	508	n/a	n/a	0	0	0
57797	WORD	wordpools/wasnorm_wordpool_576.txt	LTP278	ltpFR2	19	1	RAZOR	1171	n/a	n/a	0	0	0
60410	WORD	wordpools/wasnorm_wordpool_576.txt	LTP278	ltpFR2	19	1	OINTMENT	974	n/a	n/a	0	0	0
63074	WORD	wordpools/wasnorm_wordpool_576.txt	LTP278	ltpFR2	19	1	JELLY	755	n/a	n/a	0	0	0
65569	WORD	wordpools/wasnorm_wordpool_576.txt	LTP278	ltpFR2	19	1	TURTLE	1522	n/a	n/a	0	0	0
68365	WORD	wordpools/wasnorm_wordpool_576.txt	LTP278	ltpFR2	19	1	PIZZA	1079	n/a	n/a	0	0	0
71129	WORD	wordpools/wasnorm_wordpool_576.txt	LTP278	ltpFR2	19	1	AGENT	10	n/a	n/a	0	0	0
73641	WORD	wordpools/wasnorm_wordpool_576.txt	LTP278	ltpFR2	19	1	SNAKE	1333	n/a	n/a	0	0	0
76170	WORD	wordpools/wasnorm_wordpool_576.txt	LTP278	ltpFR2	19	1	ULCER	1533	n/a	n/a	0	0	0
78800	WORD	wordpools/wasnorm_wordpool_576.txt	LTP278	ltpFR2	19	1	PEPPER	1047	n/a	n/a	0	0	0
81596	WORD	wordpools/wasnorm_wordpool_576.txt	LTP278	ltpFR2	19	1	BARLEY	88	n/a	n/a	0	0	0
84225	WORD	wordpools/wasnorm_wordpool_576.txt	LTP278	ltpFR2	19	1	SALMON	1227	n/a	n/a	0	0	0
86705	WORD	wordpools/wasnorm_wordpool_576.txt	LTP278	ltpFR2	19	1	FUNGUS	614	n/a	n/a	0	0	0
89418	WORD	wordpools/wasnorm_wordpool_576.txt	LTP278	ltpFR2	19	1	PLAZA	1088	n/a	n/a	0	0	0
91898	WORD	wordpools/wasnorm_wordpool_576.txt	LTP278	ltpFR2	19	1	CRAB	397	n/a	n/a	0	0	0
94577	WORD	wordpools/wasnorm_wordpool_576.txt	LTP278	ltpFR2	19	1	COUNTY	389	n/a	n/a	0	0	0
97041	WORD	wordpools/wasnorm_wordpool_576.txt	LTP278	ltpFR2	19	1	PUPIL	1143	n/a	n/a	0	0	0
99837	WORD	wordpools/wasnorm_wordpool_576.txt	LTP278	ltpFR2	19	1	STUDENT	1395	n/a	n/a	0	0	0
102382	WORD	wordpools/wasnorm_wordpool_576.txt	LTP278	ltpFR2	19	1	SHELTER	1282	n/a	n/a	0	0	0
105112	WORD	wordpools/wasnorm_wordpool_576.txt	LTP278	ltpFR2	19	1	SLUG	1329	n/a	n/a	0	0	0
107791	WORD	wordpools/wasnorm_wordpool_576.txt	LTP278	ltpFR2	19	1	DOUGHNUT	490	n/a	n/a	0	0	0
110603	WORD	wordpools/wasnorm_wordpool_576.txt	LTP278	ltpFR2	19	1	MONEY	908	n/a	n/a	0	0	0
113166	WORD	wordpools/wasnorm_wordpool_576.txt	LTP278	ltpFR2	19	1	BUBBLE	183	n/a	n/a	0	0	0
115729	WORD	wordpools/wasnorm_wordpool_576.txt	LTP278	ltpFR2	19	1	SWITCH	1422	n/a	n/a	0	0	0
117344	START	n/a	LTP278	ltpFR2	19	n/a	n/a	n/a	1	n/a	n/a	n/a	n/a
118514	DISTRACTOR	n/a	LTP278	ltpFR2	19	1	n/a	n/a	n/a	n/a	0	0	0
118525	PROB	n/a	LTP278	ltpFR2	19	n/a	n/a	n/a	1	8	1	4	3
120024	PROB	n/a	LTP278	ltpFR2	19	n/a	n/a	n/a	1	15	9	5	1
121604	PROB	n/a	LTP278	ltpFR2	19	n/a	n/a	n/a	1	25	8	8	9
123151	PROB	n/a	LTP278	ltpFR2	19	n/a	n/a	n/a	1	17	1	8	8
127146	PROB	n/a	LTP278	ltpFR2	19	n/a	n/a	n/a	1	20	9	2	9
128826	PROB	n/a	LTP278	ltpFR2	19	n/a	n/a	n/a	1	20	5	6	9
130441	PROB	n/a	LTP278	ltpFR2	19	n/a	n/a	n/a	1	19	4	7	8
132073	PROB	n/a	LTP278	ltpFR2	19	n/a	n/a	n/a	1	13	5	5	3
133386	PROB	n/a	LTP278	ltpFR2	19	n/a	n/a	n/a	1	15	5	3	7
135650	PROB	n/a	LTP278	ltpFR2	19	n/a	n/a	n/a	1	18	7	4	7
137680	PROB	n/a	LTP278	ltpFR2	19	n/a	n/a	n/a	1	13	3	1	9
139278	PROB	n/a	LTP278	ltpFR2	19	n/a	n/a	n/a	1	22	7	8	7
140908	STOP	n/a	LTP278	ltpFR2	19	n/a	n/a	n/a	1	n/a	n/a	n/a	n/a
143473	REC_START	n/a	LTP278	ltpFR2	19	1	n/a	n/a	n/a	n/a	0	0	0
143678	REC_WORD	wordpools/wasnorm_wordpool_576.txt	LTP278	ltpFR2	19	1	DUST	508	n/a	n/a	0	0	0
144370	REC_WORD	wordpools/wasnorm_wordpool_576.txt	LTP278	ltpFR2	19	1	RAZOR	1171	n/a	n/a	0	0	0
145229	REC_WORD	wordpools/wasnorm_wordpool_576.txt	LTP278	ltpFR2	19	1	PUPIL	1143	n/a	n/a	0	0	0
147156	REC_WORD_VV	wordpools/wasnorm_wordpool_576.txt	LTP278	ltpFR2	19	1	<>	-1	n/a	n/a	0	0	0
147945	REC_WORD	wordpools/wasnorm_wordpool_576.txt	LTP278	ltpFR2	19	1	STUDENT	1395	n/a	n/a	0	0	0
158385	REC_WORD	wordpools/wasnorm_wordpool_576.txt	LTP278	ltpFR2	19	1	PIZZA	1079	n/a	n/a	0	0	0
159289	REC_WORD	wordpools/wasnorm_wordpool_576.txt	LTP278	ltpFR2	19	1	MUSHROOM	934	n/a	n/a	0	0	0
233890	DISTRACTOR	n/a	LTP278	ltpFR2	19	2	n/a	n/a	n/a	n/a	0	0	0
233890	START	n/a	LTP278	ltpFR2	19	n/a	n/a	n/a	2	n/a	n/a	n/a	n/a
233923	PROB	n/a	LTP278	ltpFR2	19	n/a	n/a	n/a	2	22	5	8	9
235719	PROB	n/a	LTP278	ltpFR2	19	n/a	n/a	n/a	2	1	9	1	3
237052	PROB	n/a	LTP278	ltpFR2	19	n/a	n/a	n/a	2	15	7	6	2
239364	PROB	n/a	LTP278	ltpFR2	19	n/a	n/a	n/a	2	18	3	9	6
241146	PROB	n/a	LTP278	ltpFR2	19	n/a	n/a	n/a	2	12	2	9	1
242476	PROB	n/a	LTP278	ltpFR2	19	n/a	n/a	n/a	2	11	1	3	7
243791	PROB	n/a	LTP278	ltpFR2	19	n/a	n/a	n/a	2	21	8	7	6
246320	PROB	n/a	LTP278	ltpFR2	19	n/a	n/a	n/a	2	15	9	1	5
247768	PROB	n/a	LTP278	ltpFR2	19	n/a	n/a	n/a	2	21	5	8	8
249216	PROB	n/a	LTP278	ltpFR2	19	n/a	n/a	n/a	2	19	4	9	6
250614	PROB	n/a	LTP278	ltpFR2	19	n/a	n/a	n/a	2	12	3	8	1
251863	PROB	n/a	LTP278	ltpFR2	19	n/a	n/a	n/a	2	15	9	4	1
253193	PROB	n/a	LTP278	ltpFR2	19	n/a	n/a	n/a	2	14	5	4	5
254658	PROB	n/a	LTP278	ltpFR2	19	n/a	n/a	n/a	2	9	7	1	1
257890	STOP	n/a	LTP278	ltpFR2	19	n/a	n/a	n/a	2	n/a	n/a	n/a	n/a
259102	WORD	wordpools/wasnorm_wordpool_576.txt	LTP278	ltpFR2	19	2	TYPIST	1532	n/a	n/a	0	0	0
261614	WORD	wordpools/wasnorm_wordpool_576.txt	LTP278	ltpFR2	19	2	POET	1095	n/a	n/a	0	0	0
264244	WORD	wordpools/wasnorm_wordpool_576.txt	LTP278	ltpFR2	19	2	BOUQUET	157	n/a	n/a	0	0	0
267024	WORD	wordpools/wasnorm_wordpool_576.txt	LTP278	ltpFR2	19	2	WIFE	1609	n/a	n/a	0	0	0
269520	WORD	wordpools/wasnorm_wordpool_576.txt	LTP278	ltpFR2	19	2	GUITAR	670	n/a	n/a	0	0	0
272266	WORD	wordpools/wasnorm_wordpool_576.txt	LTP278	ltpFR2	19	2	CHEMIST	292	n/a	n/a	0	0	0
274963	WORD	wordpools/wasnorm_wordpool_576.txt	LTP278	ltpFR2	19	2	DONKEY	484	n/a	n/a	0	0	0
277674	WORD	wordpools/wasnorm_wordpool_576.txt	LTP278	ltpFR2	19	2	PLIERS	1089	n/a	n/a	0	0	0
280470	WORD	wordpools/wasnorm_wordpool_576.txt	LTP278	ltpFR2	19	2	LAMP	798	n/a	n/a	0	0	0
283183	WORD	wordpools/wasnorm_wordpool_576.txt	LTP278	ltpFR2	19	2	DRIVER	499	n/a	n/a	0	0	0
285679	WORD	wordpools/wasnorm_wordpool_576.txt	LTP278	ltpFR2	19	2	CHIPMUNK	304	n/a	n/a	0	0	0
288442	WORD	wordpools/wasnorm_wordpool_576.txt	LTP278	ltpFR2	19	2	WORLD	1622	n/a	n/a	0	0	0
291039	WORD	wordpools/wasnorm_wordpool_576.txt	LTP278	ltpFR2	19	2	BABY	64	n/a	n/a	0	0	0
293601	WORD	wordpools/wasnorm_wordpool_576.txt	LTP278	ltpFR2	19	2	INFANT	737	n/a	n/a	0	0	0
296247	WORD	wordpools/wasnorm_wordpool_576.txt	LTP278	ltpFR2	19	2	LASER	801	n/a	n/a	0	0	0
298844	WORD	wordpools/wasnorm_wordpool_576.txt	LTP278	ltpFR2	19	2	FRIEND	606	n/a	n/a	0	0	0
301672	WORD	wordpools/wasnorm_wordpool_576.txt	LTP278	ltpFR2	19	2	CASKET	255	n/a	n/a	0	0	0
304120	WORD	wordpools/wasnorm_wordpool_576.txt	LTP278	ltpFR2	19	2	SALT	1229	n/a	n/a	0	0	0
306665	WORD	wordpools/wasnorm_wordpool_576.txt	LTP278	ltpFR2	19	2	GARLIC	624	n/a	n/a	0	0	0
309477	WORD	wordpools/wasnorm_wordpool_576.txt	LTP278	ltpFR2	19	2	STALLION	1369	n/a	n/a	0	0	0
312091	WORD	wordpools/wasnorm_wordpool_576.txt	LTP278	ltpFR2	19	2	NOTEBOOK	959	n/a	n/a	0	0	0
314537	WORD	wordpools/wasnorm_wordpool_576.txt	LTP278	ltpFR2	19	2	BANKER	84	n/a	n/a	0	0	0
317149	WORD	wordpools/wasnorm_wordpool_576.txt	LTP278	ltpFR2	19	2	POCKET	1093	n/a	n/a	0	0	0
319913	WORD	wordpools/wasnorm_wordpool_576.txt	LTP278	ltpFR2	19	2	FOX	598	n/a	n/a	0	0	0
321527	START	n/a	LTP278	ltpFR2	19	n/a	n/a	n/a	3	n/a	n/a	n/a	n/a
322341	DISTRACTOR	n/a	LTP278	ltpFR2	19	2	n/a	n/a	n/a	n/a	0	0	0
322342	PROB	n/a	LTP278	ltpFR2	19	n/a	n/a	n/a	3	25	9	8	8
324489	PROB	n/a	LTP278	ltpFR2	19	n/a	n/a	n/a	3	25	8	9	8
326369	PROB	n/a	LTP278	ltpFR2	19	n/a	n/a	n/a	3	13	4	4	5
328732	PROB	n/a	LTP278	ltpFR2	19	n/a	n/a	n/a	3	18	9	1	8
331695	PROB	n/a	LTP278	ltpFR2	19	n/a	n/a	n/a	3	20	4	8	8
333742	PROB	n/a	LTP278	ltpFR2	19	n/a	n/a	n/a	3	14	8	4	2
335107	PROB	n/a	LTP278	ltpFR2	19	n/a	n/a	n/a	3	16	2	7	7
336488	PROB	n/a	LTP278	ltpFR2	19	n/a	n/a	n/a	3	12	1	6	5
337669	PROB	n/a	LTP278	ltpFR2	19	n/a	n/a	n/a	3	12	2	8	2
338818	PROB	n/a	LTP278	ltpFR2	19	n/a	n/a	n/a	3	9	2	2	5
340133	PROB	n/a	LTP278	ltpFR2	19	n/a	n/a	n/a	3	9	3	3	3
341297	PROB	n/a	LTP278	ltpFR2	19	n/a	n/a	n/a	3	9	5	3	1
342545	PROB	n/a	LTP278	ltpFR2	19	n/a	n/a	n/a	3	11	5	4	2
344455	STOP	n/a	LTP278	ltpFR2	19	n/a	n/a	n/a	3	n/a	n/a	n/a	n/a
347306	REC_START	n/a	LTP278	ltpFR2	19	2	n/a	n/a	n/a	n/a	0	0	0
354987	REC_WORD	wordpools/wasnorm_wordpool_576.txt	LTP278	ltpFR2	19	2	CHIPMUNK	304	n/a	n/a	0	0	0
355907	REC_WORD	wordpools/wasnorm_wordpool_576.txt	LTP278	ltpFR2	19	2	DRIVER	499	n/a	n/a	0	0	0
356684	REC_WORD	wordpools/wasnorm_wordpool_576.txt	LTP278	ltpFR2	19	2	FRIEND	606	n/a	n/a	0	0	0
437973	WORD	wordpools/wasnorm_wordpool_576.txt	LTP278	ltpFR2	19	3	TWEEZERS	1526	n/a	n/a	0	0	0
440452	WORD	wordpools/wasnorm_wordpool_576.txt	LTP278	ltpFR2	19	3	SPACE	1345	n/a	n/a	0	0	0
443247	WORD	wordpools/wasnorm_wordpool_576.txt	LTP278	ltpFR2	19	3	SUNSET	1408	n/a	n/a	0	0	0
445677	WORD	wordpools/wasnorm_wordpool_576.txt	LTP278	ltpFR2	19	3	JURY	766	n/a	n/a	0	0	0
448108	WORD	wordpools/wasnorm_wordpool_576.txt	LTP278	ltpFR2	19	3	STATUE	1374	n/a	n/a	0	0	0
450854	WORD	wordpools/wasnorm_wordpool_576.txt	LTP278	ltpFR2	19	3	ROBOT	1200	n/a	n/a	0	0	0
453349	WORD	wordpools/wasnorm_wordpool_576.txt	LTP278	ltpFR2	19	3	NOVEL	960	n/a	n/a	0	0	0
455829	WORD	wordpools/wasnorm_wordpool_576.txt	LTP278	ltpFR2	19	3	BINDER	127	n/a	n/a	0	0	0
458292	WORD	wordpools/wasnorm_wordpool_576.txt	LTP278	ltpFR2	19	3	LIVER	833	n/a	n/a	0	0	0
460738	WORD	wordpools/wasnorm_wordpool_576.txt	LTP278	ltpFR2	19	3	SNAIL	1332	n/a	n/a	0	0	0
463484	WORD	wordpools/wasnorm_wordpool_576.txt	LTP278	ltpFR2	19	3	WRENCH	1625	n/a	n/a	0	0	0
466081	WORD	wordpools/wasnorm_wordpool_576.txt	LTP278	ltpFR2	19	3	KITCHEN	778	n/a	n/a	0	0	0
468793	WORD	wordpools/wasnorm_wordpool_576.txt	LTP278	ltpFR2	19	3	LUNCH	849	n/a	n/a	0	0	0
471323	WORD	wordpools/wasnorm_wordpool_576.txt	LTP278	ltpFR2	19	3	TRACTOR	1493	n/a	n/a	0	0	0
473853	WORD	wordpools/wasnorm_wordpool_576.txt	LTP278	ltpFR2	19	3	GAVEL	627	n/a	n/a	0	0	0
476299	WORD	wordpools/wasnorm_wordpool_576.txt	LTP278	ltpFR2	19	3	GLOVE	642	n/a	n/a	0	0	0
478778	WORD	wordpools/wasnorm_wordpool_576.txt	LTP278	ltpFR2	19	3	ARM	38	n/a	n/a	0	0	0
481208	WORD	wordpools/wasnorm_wordpool_576.txt	LTP278	ltpFR2	19	3	KIDNEY	776	n/a	n/a	0	0	0
483804	WORD	wordpools/wasnorm_wordpool_576.txt	LTP278	ltpFR2	19	3	FARMER	553	n/a	n/a	0	0	0
486334	WORD	wordpools/wasnorm_wordpool_576.txt	LTP278	ltpFR2	19	3	THREAD	1460	n/a	n/a	0	0	0
488965	WORD	wordpools/wasnorm_wordpool_576.txt	LTP278	ltpFR2	19	3	STONE	1385	n/a	n/a	0	0	0
491643	WORD	wordpools/wasnorm_wordpool_576.txt	LTP278	ltpFR2	19	3	BEAKER	104	n/a	n/a	0	0	0
494339	WORD	wordpools/wasnorm_wordpool_576.txt	LTP278	ltpFR2	19	3	BUTCHER	203	n/a	n/a	0	0	0
497069	WORD	wordpools/wasnorm_wordpool_576.txt	LTP278	ltpFR2	19	3	RECEIPT	1173	n/a	n/a	0	0	0
498683	START	n/a	LTP278	ltpFR2	19	n/a	n/a	n/a	4	n/a	n/a	n/a	n/a
499788	DISTRACTOR	n/a	LTP278	ltpFR2	19	3	n/a	n/a	n/a	n/a	0	0	0
499798	PROB	n/a	LTP278	ltpFR2	19	n/a	n/a	n/a	4	5	1	3	1
501645	PROB	n/a	LTP278	ltpFR2	19	n/a	n/a	n/a	4	10	4	1	5
503193	PROB	n/a	LTP278	ltpFR2	19	n/a	n/a	n/a	4	13	6	4	3
505190	PROB	n/a	LTP278	ltpFR2	19	n/a	n/a	n/a	4	6	3	1	2
506604	PROB	n/a	LTP278	ltpFR2	19	n/a	n/a	n/a	4	9	2	4	3
508968	PROB	n/a	LTP278	ltpFR2	19	n/a	n/a	n/a	4	15	9	5	1
510532	PROB	n/a	LTP278	ltpFR2	19	n/a	n/a	n/a	4	13	2	8	3
512778	PROB	n/a	LTP278	ltpFR2	19	n/a	n/a	n/a	4	12	2	5	5
514144	PROB	n/a	LTP278	ltpFR2	19	n/a	n/a	n/a	4	15	6	3	6
515658	PROB	n/a	LTP278	ltpFR2	19	n/a	n/a	n/a	4	18	9	7	2
519152	PROB	n/a	LTP278	ltpFR2	19	n/a	n/a	n/a	4	12	5	6	1
522683	STOP	n/a	LTP278	ltpFR2	19	n/a	n/a	n/a	4	n/a	n/a	n/a	n/a
524445	REC_START	n/a	LTP278	ltpFR2	19	3	n/a	n/a	n/a	n/a	0	0	0
525489	REC_WORD	wordpools/wasnorm_wordpool_576.txt	LTP278	ltpFR2	19	3	TWEEZERS	1526	n/a	n/a	0	0	0
530144	REC_WORD	wordpools/wasnorm_wordpool_576.txt	LTP278	ltpFR2	19	3	LUNCH	849	n/a	n/a	0	0	0
615112	WORD	wordpools/wasnorm_wordpool_576.txt	LTP278	ltpFR2	19	4	POSSUM	1112	n/a	n/a	0	0	0
617724	WORD	wordpools/wasnorm_wordpool_576.txt	LTP278	ltpFR2	19	4	MUMMY	932	n/a	n/a	0	0	0
620370	WORD	wordpools/wasnorm_wordpool_576.txt	LTP278	ltpFR2	19	4	HARP	689	n/a	n/a	0	0	0
623183	WORD	wordpools/wasnorm_wordpool_576.txt	LTP278	ltpFR2	19	4	LOVER	846	n/a	n/a	0	0	0
625613	WORD	wordpools/wasnorm_wordpool_576.txt	LTP278	ltpFR2	19	4	KNAPSACK	783	n/a	n/a	0	0	0
628292	WORD	wordpools/wasnorm_wordpool_576.txt	LTP278	ltpFR2	19	4	PORTRAIT	1111	n/a	n/a	0	0	0
630922	WORD	wordpools/wasnorm_wordpool_576.txt	LTP278	ltpFR2	19	4	DRAWING	494	n/a	n/a	0	0	0
633634	WORD	wordpools/wasnorm_wordpool_576.txt	LTP278	ltpFR2	19	4	CHEST	295	n/a	n/a	0	0	0
636180	WORD	wordpools/wasnorm_wordpool_576.txt	LTP278	ltpFR2	19	4	DRUG	501	n/a	n/a	0	0	0
638727	WORD	wordpools/wasnorm_wordpool_576.txt	LTP278	ltpFR2	19	4	CYCLONE	431	n/a	n/a	0	0	0
641240	WORD	wordpools/wasnorm_wordpool_576.txt	LTP278	ltpFR2	19	4	DINER	467	n/a	n/a	0	0	0
643753	WORD	wordpools/wasnorm_wordpool_576.txt	LTP278	ltpFR2	19	4	CUPBOARD	425	n/a	n/a	0	0	0
646315	WORD	wordpools/wasnorm_wordpool_576.txt	LTP278	ltpFR2	19	4	COUCH	386	n/a	n/a	0	0	0
648896	WORD	wordpools/wasnorm_wordpool_576.txt	LTP278	ltpFR2	19	4	ROBIN	1199	n/a	n/a	0	0	0
651508	WORD	wordpools/wasnorm_wordpool_576.txt	LTP278	ltpFR2	19	4	ROOSTER	1209	n/a	n/a	0	0	0
653955	WORD	wordpools/wasnorm_wordpool_576.txt	LTP278	ltpFR2	19	4	TRIBE	1505	n/a	n/a	0	0	0
656617	WORD	wordpools/wasnorm_wordpool_576.txt	LTP278	ltpFR2	19	4	CASHEW	253	n/a	n/a	0	0	0
659131	WORD	wordpools/wasnorm_wordpool_576.txt	LTP278	ltpFR2	19	4	TRENCH	1503	n/a	n/a	0	0	0
661759	WORD	wordpools/wasnorm_wordpool_576.txt	LTP278	ltpFR2	19	4	FLIPPER	580	n/a	n/a	0	0	0
664339	WORD	wordpools/wasnorm_wordpool_576.txt	LTP278	ltpFR2	19	4	GRIZZLY	662	n/a	n/a	0	0	0
666903	WORD	wordpools/wasnorm_wordpool_576.txt	LTP278	ltpFR2	19	4	PIMPLE	1071	n/a	n/a	0	0	0
669581	WORD	wordpools/wasnorm_wordpool_576.txt	LTP278	ltpFR2	19	4	DOLPHIN	483	n/a	n/a	0	0	0
672045	WORD	wordpools/wasnorm_wordpool_576.txt	LTP278	ltpFR2	19	4	CREVICE	405	n/a	n/a	0	0	0
674874	WORD	wordpools/wasnorm_wordpool_576.txt	LTP278	ltpFR2	19	4	FLASHLIGHT	575	n/a	n/a	0	0	0
676488	START	n/a	LTP278	ltpFR2	19	n/a	n/a	n/a	5	n/a	n/a	n/a	n/a
677589	DISTRACTOR	n/a	LTP278	ltpFR2	19	4	n/a	n/a	n/a	n/a	0	0	0
677603	PROB	n/a	LTP278	ltpFR2	19	n/a	n/a	n/a	5	8	2	4	2
679800	PROB	n/a	LTP278	ltpFR2	19	n/a	n/a	n/a	5	20	9	6	5
683096	PROB	n/a	LTP278	ltpFR2	19	n/a	n/a	n/a	5	9	1	1	7
684409	PROB	n/a	LTP278	ltpFR2	19	n/a	n/a	n/a	5	5	3	1	1
685574	PROB	n/a	LTP278	ltpFR2	19	n/a	n/a	n/a	5	15	4	2	9
687155	PROB	n/a	LTP278	ltpFR2	19	n/a	n/a	n/a	5	18	9	8	1
688736	PROB	n/a	LTP278	ltpFR2	19	n/a	n/a	n/a	5	13	3	1	9
690218	PROB	n/a	LTP278	ltpFR2	19	n/a	n/a	n/a	5	17	9	1	7
691832	PROB	n/a	LTP278	ltpFR2	19	n/a	n/a	n/a	5	15	5	8	2
693596	PROB	n/a	LTP278	ltpFR2	19	n/a	n/a	n/a	5	14	6	2	6
695210	PROB	n/a	LTP278	ltpFR2	19	n/a	n/a	n/a	5	10	2	1	7
700488	STOP	n/a	LTP278	ltpFR2	19	n/a	n/a	n/a	5	n/a	n/a	n/a	n/a
702417	REC_START	n/a	LTP278	ltpFR2	19	4	n/a	n/a	n/a	n/a	0	0	0
704465	REC_WORD	wordpools/wasnorm_wordpool_576.txt	LTP278	ltpFR2	19	4	LOVER	846	n/a	n/a	0	0	0
708023	REC_WORD	wordpools/wasnorm_wordpool_576.txt	LTP278	ltpFR2	19	4	CATNIP	-1	n/a	n/a	0	0	0
793101	WORD	wordpools/wasnorm_wordpool_576.txt	LTP278	ltpFR2	19	5	POWDER	1117	n/a	n/a	0	0	0
795897	WORD	wordpools/wasnorm_wordpool_576.txt	LTP278	ltpFR2	19	5	SANDWICH	1232	n/a	n/a	0	0	0
798542	WORD	wordpools/wasnorm_wordpool_576.txt	LTP278	ltpFR2	19	5	PARSLEY	1016	n/a	n/a	0	0	0
801139	WORD	wordpools/wasnorm_wordpool_576.txt	LTP278	ltpFR2	19	5	PEDAL	1037	n/a	n/a	0	0	0
803784	WORD	wordpools/wasnorm_wordpool_576.txt	LTP278	ltpFR2	19	5	FLEET	578	n/a	n/a	0	0	0
806380	WORD	wordpools/wasnorm_wordpool_576.txt	LTP278	ltpFR2	19	5	PORK	1108	n/a	n/a	0	0	0
808894	WORD	wordpools/wasnorm_wordpool_576.txt	LTP278	ltpFR2	19	5	SNACK	1331	n/a	n/a	0	0	0
811423	WORD	wordpools/wasnorm_wordpool_576.txt	LTP278	ltpFR2	19	5	RATTLE	1170	n/a	n/a	0	0	0
813870	WORD	wordpools/wasnorm_wordpool_576.txt	LTP278	ltpFR2	19	5	EUROPE	541	n/a	n/a	0	0	0
816582	WORD	wordpools/wasnorm_wordpool_576.txt	LTP278	ltpFR2	19	5	FRANCE	601	n/a	n/a	0	0	0
819294	WORD	wordpools/wasnorm_wordpool_576.txt	LTP278	ltpFR2	19	5	PARENT	1013	n/a	n/a	0	0	0
821791	WORD	wordpools/wasnorm_wordpool_576.txt	LTP278	ltpFR2	19	5	HELMET	702	n/a	n/a	0	0	0
824237	WORD	wordpools/wasnorm_wordpool_576.txt	LTP278	ltpFR2	19	5	MATTRESS	879	n/a	n/a	0	0	0
826833	WORD	wordpools/wasnorm_wordpool_576.txt	LTP278	ltpFR2	19	5	KETCHUP	771	n/a	n/a	0	0	0
829280	WORD	wordpools/wasnorm_wordpool_576.txt	LTP278	ltpFR2	19	5	BIKE	125	n/a	n/a	0	0	0
831993	WORD	wordpools/wasnorm_wordpool_576.txt	LTP278	ltpFR2	19	5	PERFUME	1049	n/a	n/a	0	0	0
834539	WORD	wordpools/wasnorm_wordpool_576.txt	LTP278	ltpFR2	19	5	EMPIRE	530	n/a	n/a	0	0	0
837268	WORD	wordpools/wasnorm_wordpool_576.txt	LTP278	ltpFR2	19	5	POSTAGE	1113	n/a	n/a	0	0	0
839831	WORD	wordpools/wasnorm_wordpool_576.txt	LTP278	ltpFR2	19	5	MESSAGE	888	n/a	n/a	0	0	0
842410	WORD	wordpools/wasnorm_wordpool_576.txt	LTP278	ltpFR2	19	5	SHORTCAKE	1292	n/a	n/a	0	0	0
845141	WORD	wordpools/wasnorm_wordpool_576.txt	LTP278	ltpFR2	19	5	PADDLE	1000	n/a	n/a	0	0	0
847920	WORD	wordpools/wasnorm_wordpool_576.txt	LTP278	ltpFR2	19	5	KLEENEX	782	n/a	n/a	0	0	0
850665	WORD	wordpools/wasnorm_wordpool_576.txt	LTP278	ltpFR2	19	5	DASHBOARD	441	n/a	n/a	0	0	0
853428	WORD	wordpools/wasnorm_wordpool_576.txt	LTP278	ltpFR2	19	5	SUNRISE	1407	n/a	n/a	0	0	0
855043	START	n/a	LTP278	ltpFR2	19	n/a	n/a	n/a	6	n/a	n/a	n/a	n/a
856161	DISTRACTOR	n/a	LTP278	ltpFR2	19	5	n/a	n/a	n/a	n/a	0	0	0
856173	PROB	n/a	LTP278	ltpFR2	19	n/a	n/a	n/a	6	10	6	1	3
858387	PROB	n/a	LTP278	ltpFR2	19	n/a	n/a	n/a	6	16	2	6	8
860534	PROB	n/a	LTP278	ltpFR2	19	n/a	n/a	n/a	6	12	3	2	7
861999	PROB	n/a	LTP278	ltpFR2	19	n/a	n/a	n/a	6	13	7	5	1
863496	PROB	n/a	LTP278	ltpFR2	19	n/a	n/a	n/a	6	12	1	8	3
864895	PROB	n/a	LTP278	ltpFR2	19	n/a	n/a	n/a	6	18	9	4	5
866209	PROB	n/a	LTP278	ltpFR2	19	n/a	n/a	n/a	6	12	6	3	3
867374	PROB	n/a	LTP278	ltpFR2	19	n/a	n/a	n/a	6	9	4	4	1
868622	PROB	n/a	LTP278	ltpFR2	19	n/a	n/a	n/a	6	21	8	6	7
870453	PROB	n/a	LTP278	ltpFR2	19	n/a	n/a	n/a	6	15	3	9	3
872233	PROB	n/a	LTP278	ltpFR2	19	n/a	n/a	n/a	6	11	2	6	3
873648	PROB	n/a	LTP278	ltpFR2	19	n/a	n/a	n/a	6	16	5	3	8
875562	PROB	n/a	LTP278	ltpFR2	19	n/a	n/a	n/a	6	16	7	1	8
877127	PROB	n/a	LTP278	ltpFR2	19	n/a	n/a	n/a	6	15	8	2	5
878988	STOP	n/a	LTP278	ltpFR2	19	n/a	n/a	n/a	6	n/a	n/a	n/a	n/a
880939	REC_START	n/a	LTP278	ltpFR2	19	5	n/a	n/a	n/a	n/a	0	0	0
881491	REC_WORD	wordpools/wasnorm_wordpool_576.txt	LTP278	ltpFR2	19	5	PORK	1108	n/a	n/a	0	0	0
882305	REC_WORD	wordpools/wasnorm_wordpool_576.txt	LTP278	ltpFR2	19	5	POWDER	1117	n/a	n/a	0	0	0
883444	REC_WORD	wordpools/wasnorm_wordpool_576.txt	LTP278	ltpFR2	19	5	PARSLEY	1016	n/a	n/a	0	0	0
884397	REC_WORD	wordpools/wasnorm_wordpool_576.txt	LTP278	ltpFR2	19	5	PEDAL	1037	n/a	n/a	0	0	0
885172	REC_WORD	wordpools/wasnorm_wordpool_576.txt	LTP278	ltpFR2	19	5	FLEET	578	n/a	n/a	0	0	0
888013	REC_WORD	wordpools/wasnorm_wordpool_576.txt	LTP278	ltpFR2	19	5	RATTLE	1170	n/a	n/a	0	0	0
892822	REC_WORD	wordpools/wasnorm_wordpool_576.txt	LTP278	ltpFR2	19	5	DUNGEON	507	n/a	n/a	0	0	0
904691	REC_WORD	wordpools/wasnorm_wordpool_576.txt	LTP278	ltpFR2	19	5	PERFUME	1049	n/a	n/a	0	0	0
905510	REC_WORD	wordpools/wasnorm_wordpool_576.txt	LTP278	ltpFR2	19	5	EMPIRE	530	n/a	n/a	0	0	0
971604	WORD	wordpools/wasnorm_wordpool_576.txt	LTP278	ltpFR2	19	6	POPCORN	1104	n/a	n/a	0	0	0
974233	WORD	wordpools/wasnorm_wordpool_576.txt	LTP278	ltpFR2	19	6	TABLET	1427	n/a	n/a	0	0	0
976930	WORD	wordpools/wasnorm_wordpool_576.txt	LTP278	ltpFR2	19	6	CITRUS	313	n/a	n/a	0	0	0
979658	WORD	wordpools/wasnorm_wordpool_576.txt	LTP278	ltpFR2	19	6	ASIA	46	n/a	n/a	0	0	0
982123	WORD	wordpools/wasnorm_wordpool_576.txt	LTP278	ltpFR2	19	6	COOKBOOK	373	n/a	n/a	0	0	0
984801	WORD	wordpools/wasnorm_wordpool_576.txt	LTP278	ltpFR2	19	6	NAPKIN	937	n/a	n/a	0	0	0
987480	WORD	wordpools/wasnorm_wordpool_576.txt	LTP278	ltpFR2	19	6	TAXI	1438	n/a	n/a	0	0	0
990176	WORD	wordpools/wasnorm_wordpool_576.txt	LTP278	ltpFR2	19	6	SLIME	1327	n/a	n/a	0	0	0
992806	WORD	wordpools/wasnorm_wordpool_576.txt	LTP278	ltpFR2	19	6	RADISH	1158	n/a	n/a	0	0	0
995552	WORD	wordpools/wasnorm_wordpool_576.txt	LTP278	ltpFR2	19	6	PENGUIN	1044	n/a	n/a	0	0	0
998198	WORD	wordpools/wasnorm_wordpool_576.txt	LTP278	ltpFR2	19	6	BROTHER	179	n/a	n/a	0	0	0
1000928	WORD	wordpools/wasnorm_wordpool_576.txt	LTP278	ltpFR2	19	6	HEADBAND	696	n/a	n/a	0	0	0
1003390	WORD	wordpools/wasnorm_wordpool_576.txt	LTP278	ltpFR2	19	6	ICEBERG	731	n/a	n/a	0	0	0
1006203	WORD	wordpools/wasnorm_wordpool_576.txt	LTP278	ltpFR2	19	6	MOTEL	919	n/a	n/a	0	0	0
1008832	WORD	wordpools/wasnorm_wordpool_576.txt	LTP278	ltpFR2	19	6	LODGE	839	n/a	n/a	0	0	0
1011612	WORD	wordpools/wasnorm_wordpool_576.txt	LTP278	ltpFR2	19	6	LONDON	843	n/a	n/a	0	0	0
1014076	WORD	wordpools/wasnorm_wordpool_576.txt	LTP278	ltpFR2	19	6	SKILLET	1317	n/a	n/a	0	0	0
1016571	WORD	wordpools/wasnorm_wordpool_576.txt	LTP278	ltpFR2	19	6	BLACKBOARD	133	n/a	n/a	0	0	0
1019085	WORD	wordpools/wasnorm_wordpool_576.txt	LTP278	ltpFR2	19	6	SWAMP	1416	n/a	n/a	0	0	0
1021564	WORD	wordpools/wasnorm_wordpool_576.txt	LTP278	ltpFR2	19	6	COWBOY	395	n/a	n/a	0	0	0
1024326	WORD	wordpools/wasnorm_wordpool_576.txt	LTP278	ltpFR2	19	6	BADGE	68	n/a	n/a	0	0	0
1026873	WORD	wordpools/wasnorm_wordpool_576.txt	LTP278	ltpFR2	19	6	SUPPER	1411	n/a	n/a	0	0	0
1029602	WORD	wordpools/wasnorm_wordpool_576.txt	LTP278	ltpFR2	19	6	PLASTER	1085	n/a	n/a	0	0	0
1032331	WORD	wordpools/wasnorm_wordpool_576.txt	LTP278	ltpFR2	19	6	YOLK	1633	n/a	n/a	0	0	0
1033947	START	n/a	LTP278	ltpFR2	19	n/a	n/a	n/a	7	n/a	n/a	n/a	n/a
1035063	DISTRACTOR	n/a	LTP278	ltpFR2	19	6	n/a	n/a	n/a	n/a	0	0	0
1035078	PROB	n/a	LTP278	ltpFR2	19	n/a	n/a	n/a	7	25	9	8	8
1057947	STOP	n/a	LTP278	ltpFR2	19	n/a	n/a	n/a	7	n/a	n/a	n/a	n/a
1059875	REC_START	n/a	LTP278	ltpFR2	19	6	n/a	n/a	n/a	n/a	0	0	0
1072757	REC_WORD	wordpools/wasnorm_wordpool_576.txt	LTP278	ltpFR2	19	6	SWEET	-1	n/a	n/a	0	0	0
1112556	REC_WORD	wordpools/wasnorm_wordpool_576.txt	LTP278	ltpFR2	19	6	BADGE	68	n/a	n/a	0	0	0
1150557	WORD	wordpools/wasnorm_wordpool_576.txt	LTP278	ltpFR2	19	7	HIGHWAY	707	n/a	n/a	0	0	0
1153104	WORD	wordpools/wasnorm_wordpool_576.txt	LTP278	ltpFR2	19	7	SWIMMER	1420	n/a	n/a	0	0	0
1155633	WORD	wordpools/wasnorm_wordpool_576.txt	LTP278	ltpFR2	19	7	TEACHER	1440	n/a	n/a	0	0	0
1158097	WORD	wordpools/wasnorm_wordpool_576.txt	LTP278	ltpFR2	19	7	COLLEGE	346	n/a	n/a	0	0	0
1160676	WORD	wordpools/wasnorm_wordpool_576.txt	LTP278	ltpFR2	19	7	PAIL	1002	n/a	n/a	0	0	0
1163388	WORD	wordpools/wasnorm_wordpool_576.txt	LTP278	ltpFR2	19	7	HORNET	718	n/a	n/a	0	0	0
1166135	WORD	wordpools/wasnorm_wordpool_576.txt	LTP278	ltpFR2	19	7	NIGHTGOWN	953	n/a	n/a	0	0	0
1168898	WORD	wordpools/wasnorm_wordpool_576.txt	LTP278	ltpFR2	19	7	OFFICE	972	n/a	n/a	0	0	0
1171560	WORD	wordpools/wasnorm_wordpool_576.txt	LTP278	ltpFR2	19	7	PERCH	1048	n/a	n/a	0	0	0
1174339	WORD	wordpools/wasnorm_wordpool_576.txt	LTP278	ltpFR2	19	7	ELBOW	520	n/a	n/a	0	0	0
1176903	WORD	wordpools/wasnorm_wordpool_576.txt	LTP278	ltpFR2	19	7	SIDEWALK	1303	n/a	n/a	0	0	0
1179548	WORD	wordpools/wasnorm_wordpool_576.txt	LTP278	ltpFR2	19	7	WAITER	1580	n/a	n/a	0	0	0
1182161	WORD	wordpools/wasnorm_wordpool_576.txt	LTP278	ltpFR2	19	7	TURKEY	1520	n/a	n/a	0	0	0
1184974	WORD	wordpools/wasnorm_wordpool_576.txt	LTP278	ltpFR2	19	7	JELLO	754	n/a	n/a	0	0	0
1187503	WORD	wordpools/wasnorm_wordpool_576.txt	LTP278	ltpFR2	19	7	PUDDING	1139	n/a	n/a	0	0	0
1190315	WORD	wordpools/wasnorm_wordpool_576.txt	LTP278	ltpFR2	19	7	CLIMBER	323	n/a	n/a	0	0	0
1193096	WORD	wordpools/wasnorm_wordpool_576.txt	LTP278	ltpFR2	19	7	PRINCE	1124	n/a	n/a	0	0	0
1195824	WORD	wordpools/wasnorm_wordpool_576.txt	LTP278	ltpFR2	19	7	FREEZER	604	n/a	n/a	0	0	0
1198537	WORD	wordpools/wasnorm_wordpool_576.txt	LTP278	ltpFR2	19	7	SOFTBALL	1343	n/a	n/a	0	0	0
1201117	WORD	wordpools/wasnorm_wordpool_576.txt	LTP278	ltpFR2	19	7	QUEEN	1149	n/a	n/a	0	0	0
1203662	WORD	wordpools/wasnorm_wordpool_576.txt	LTP278	ltpFR2	19	7	OYSTER	995	n/a	n/a	0	0	0
1206442	WORD	wordpools/wasnorm_wordpool_576.txt	LTP278	ltpFR2	19	7	PIANO	1057	n/a	n/a	0	0	0
1208989	WORD	wordpools/wasnorm_wordpool_576.txt	LTP278	ltpFR2	19	7	TRANSPLANT	1496	n/a	n/a	0	0	0
1211517	WORD	wordpools/wasnorm_wordpool_576.txt	LTP278	ltpFR2	19	7	RACKET	1155	n/a	n/a	0	0	0
1213133	START	n/a	LTP278	ltpFR2	19	n/a	n/a	n/a	8	n/a	n/a	n/a	n/a
1214056	DISTRACTOR	n/a	LTP278	ltpFR2	19	7	n/a	n/a	n/a	n/a	0	0	0
1214065	PROB	n/a	LTP278	ltpFR2	19	n/a	n/a	n/a	8	1	8	4	3
1218924	PROB	n/a	LTP278	ltpFR2	19	n/a	n/a	n/a	8	15	3	3	9
1220421	PROB	n/a	LTP278	ltpFR2	19	n/a	n/a	n/a	8	17	6	8	3
1222585	PROB	n/a	LTP278	ltpFR2	19	n/a	n/a	n/a	8	9	1	5	3
1224215	PROB	n/a	LTP278	ltpFR2	19	n/a	n/a	n/a	8	9	3	3	3
1225197	PROB	n/a	LTP278	ltpFR2	19	n/a	n/a	n/a	8	11	5	4	2
1227129	PROB	n/a	LTP278	ltpFR2	19	n/a	n/a	n/a	8	1	7	4	2
1229391	PROB	n/a	LTP278	ltpFR2	19	n/a	n/a	n/a	8	12	2	6	4
1231006	PROB	n/a	LTP278	ltpFR2	19	n/a	n/a	n/a	8	23	5	9	9
1233087	PROB	n/a	LTP278	ltpFR2	19	n/a	n/a	n/a	8	21	8	9	4
1235117	PROB	n/a	LTP278	ltpFR2	19	n/a	n/a	n/a	8	7	4	2	1
1236315	STOP	n/a	LTP278	ltpFR2	19	n/a	n/a	n/a	8	n/a	n/a	n/a	n/a
1238979	REC_START	n/a	LTP278	ltpFR2	19	7	n/a	n/a	n/a	n/a	0	0	0
1246140	REC_WORD	wordpools/wasnorm_wordpool_576.txt	LTP278	ltpFR2	19	7	HORNET	718	n/a	n/a	0	0	0
1329677	DISTRACTOR	n/a	LTP278	ltpFR2	19	8	n/a	n/a	n/a	n/a	0	0	0
1329677	START	n/a	LTP278	ltpFR2	19	n/a	n/a	n/a	9	n/a	n/a	n/a	n/a
1329710	PROB	n/a	LTP278	ltpFR2	19	n/a	n/a	n/a	9	12	6	4	2
1331908	PROB	n/a	LTP278	ltpFR2	19	n/a	n/a	n/a	9	13	4	2	7
1334038	PROB	n/a	LTP278	ltpFR2	19	n/a	n/a	n/a	9	19	5	9	5
1335535	PROB	n/a	LTP278	ltpFR2	19	n/a	n/a	n/a	9	17	7	6	4
1337100	PROB	n/a	LTP278	ltpFR2	19	n/a	n/a	n/a	9	12	2	5	5
1338730	PROB	n/a	LTP278	ltpFR2	19	n/a	n/a	n/a	9	8	2	2	4
1339963	PROB	n/a	LTP278	ltpFR2	19	n/a	n/a	n/a	9	11	5	3	3
1341609	PROB	n/a	LTP278	ltpFR2	19	n/a	n/a	n/a	9	11	5	3	3
1342641	PROB	n/a	LTP278	ltpFR2	19	n/a	n/a	n/a	9	11	1	4	6
1343723	PROB	n/a	LTP278	ltpFR2	19	n/a	n/a	n/a	9	17	4	6	7
1345470	PROB	n/a	LTP278	ltpFR2	19	n/a	n/a	n/a	9	16	9	1	6
1348068	PROB	n/a	LTP278	ltpFR2	19	n/a	n/a	n/a	9	17	9	1	7
1349714	PROB	n/a	LTP278	ltpFR2	19	n/a	n/a	n/a	9	10	2	6	2
1351063	PROB	n/a	LTP278	ltpFR2	19	n/a	n/a	n/a	9	13	9	2	2
1352398	STOP	n/a	LTP278	ltpFR2	19	n/a	n/a	n/a	9	n/a	n/a	n/a	n/a
1354773	WORD	wordpools/wasnorm_wordpool_576.txt	LTP278	ltpFR2	19	8	VICTIM	1562	n/a	n/a	0	0	0
1357303	WORD	wordpools/wasnorm_wordpool_576.txt	LTP278	ltpFR2	19	8	BLADE	134	n/a	n/a	0	0	0
1360117	WORD	wordpools/wasnorm_wordpool_576.txt	LTP278	ltpFR2	19	8	THIEF	1456	n/a	n/a	0	0	0
1362695	WORD	wordpools/wasnorm_wordpool_576.txt	LTP278	ltpFR2	19	8	BRACES	164	n/a	n/a	0	0	0
1365208	WORD	wordpools/wasnorm_wordpool_576.txt	LTP278	ltpFR2	19	8	CAPTIVE	240	n/a	n/a	0	0	0
1367888	WORD	wordpools/wasnorm_wordpool_576.txt	LTP278	ltpFR2	19	8	HAMPER	682	n/a	n/a	0	0	0
1370550	WORD	wordpools/wasnorm_wordpool_576.txt	LTP278	ltpFR2	19	8	WRIST	1626	n/a	n/a	0	0	0
1373280	WORD	wordpools/wasnorm_wordpool_576.txt	LTP278	ltpFR2	19	8	FILM	565	n/a	n/a	0	0	0
1375893	WORD	wordpools/wasnorm_wordpool_576.txt	LTP278	ltpFR2	19	8	LADY	794	n/a	n/a	0	0	0
1378655	WORD	wordpools/wasnorm_wordpool_576.txt	LTP278	ltpFR2	19	8	LEADER	807	n/a	n/a	0	0	0
1381201	WORD	wordpools/wasnorm_wordpool_576.txt	LTP278	ltpFR2	19	8	WORKER	1621	n/a	n/a	0	0	0
1383932	WORD	wordpools/wasnorm_wordpool_576.txt	LTP278	ltpFR2	19	8	GLASS	639	n/a	n/a	0	0	0
1386377	WORD	wordpools/wasnorm_wordpool_576.txt	LTP278	ltpFR2	19	8	BANJO	82	n/a	n/a	0	0	0
1389107	WORD	wordpools/wasnorm_wordpool_576.txt	LTP278	ltpFR2	19	8	ACTRESS	6	n/a	n/a	0	0	0
1391702	WORD	wordpools/wasnorm_wordpool_576.txt	LTP278	ltpFR2	19	8	GAZELLE	628	n/a	n/a	0	0	0
1394382	WORD	wordpools/wasnorm_wordpool_576.txt	LTP278	ltpFR2	19	8	SERVER	1272	n/a	n/a	0	0	0
1396996	WORD	wordpools/wasnorm_wordpool_576.txt	LTP278	ltpFR2	19	8	MARKER	870	n/a	n/a	0	0	0
1399757	WORD	wordpools/wasnorm_wordpool_576.txt	LTP278	ltpFR2	19	8	STOMACH	1384	n/a	n/a	0	0	0
1402453	WORD	wordpools/wasnorm_wordpool_576.txt	LTP278	ltpFR2	19	8	BREAST	171	n/a	n/a	0	0	0
1405034	WORD	wordpools/wasnorm_wordpool_576.txt	LTP278	ltpFR2	19	8	DENTIST	447	n/a	n/a	0	0	0
1407846	WORD	wordpools/wasnorm_wordpool_576.txt	LTP278	ltpFR2	19	8	PARROT	1015	n/a	n/a	0	0	0
1410375	WORD	wordpools/wasnorm_wordpool_576.txt	LTP278	ltpFR2	19	8	SEAGULL	1261	n/a	n/a	0	0	0
1412805	WORD	wordpools/wasnorm_wordpool_576.txt	LTP278	ltpFR2	19	8	MACHINE	852	n/a	n/a	0	0	0
1415434	WORD	wordpools/wasnorm_wordpool_576.txt	LTP278	ltpFR2	19	8	WASHER	1592	n/a	n/a	0	0	0
1417050	START	n/a	LTP278	ltpFR2	19	n/a	n/a	n/a	10	n/a	n/a	n/a	n/a
1418246	DISTRACTOR	n/a	LTP278	ltpFR2	19	8	n/a	n/a	n/a	n/a	0	0	0
1418263	PROB	n/a	LTP278	ltpFR2	19	n/a	n/a	n/a	10	18	9	7	2
1421475	PROB	n/a	LTP278	ltpFR2	19	n/a	n/a	n/a	10	12	4	5	3
1422924	PROB	n/a	LTP278	ltpFR2	19	n/a	n/a	n/a	10	17	6	9	2
1425353	PROB	n/a	LTP278	ltpFR2	19	n/a	n/a	n/a	10	17	8	1	8
1426784	PROB	n/a	LTP278	ltpFR2	19	n/a	n/a	n/a	10	25	9	7	9
1428565	PROB	n/a	LTP278	ltpFR2	19	n/a	n/a	n/a	10	14	6	1	7
1430114	PROB	n/a	LTP278	ltpFR2	19	n/a	n/a	n/a	10	19	7	7	5
1432011	PROB	n/a	LTP278	ltpFR2	19	n/a	n/a	n/a	10	9	1	3	5
1433341	PROB	n/a	LTP278	ltpFR2	19	n/a	n/a	n/a	10	10	2	6	2
1434656	PROB	n/a	LTP278	ltpFR2	19	n/a	n/a	n/a	10	11	5	1	5
1435855	PROB	n/a	LTP278	ltpFR2	19	n/a	n/a	n/a	10	14	6	3	5
1437869	PROB	n/a	LTP278	ltpFR2	19	n/a	n/a	n/a	10	23	9	6	8
1440328	STOP	n/a	LTP278	ltpFR2	19	n/a	n/a	n/a	10	n/a	n/a	n/a	n/a
1442945	REC_START	n/a	LTP278	ltpFR2	19	8	n/a	n/a	n/a	n/a	0	0	0
1448162	REC_WORD	wordpools/wasnorm_wordpool_576.txt	LTP278	ltpFR2	19	8	BLADE	134	n/a	n/a	0	0	0
1448606	REC_WORD	wordpools/wasnorm_wordpool_576.txt	LTP278	ltpFR2	19	8	THIEF	1456	n/a	n/a	0	0	0
1450064	REC_WORD	wordpools/wasnorm_wordpool_576.txt	LTP278	ltpFR2	19	8	VICTIM	1562	n/a	n/a	0	0	0
1454875	REC_WORD	wordpools/wasnorm_wordpool_576.txt	LTP278	ltpFR2	19	8	CAR	241	n/a	n/a	0	0	0
1455766	REC_WORD	wordpools/wasnorm_wordpool_576.txt	LTP278	ltpFR2	19	8	STORM	-1	n/a	n/a	0	0	0
1519598	REST_REWET	n/a	LTP278	ltpFR2	19	8	n/a	n/a	n/a	n/a	0	0	0
1795276	DISTRACTOR	n/a	LTP278	ltpFR2	19	9	n/a	n/a	n/a	n/a	0	0	0
1795276	START	n/a	LTP278	ltpFR2	19	n/a	n/a	n/a	11	n/a	n/a	n/a	n/a
1795309	PROB	n/a	LTP278	ltpFR2	19	n/a	n/a	n/a	11	17	1	9	7
1797189	PROB	n/a	LTP278	ltpFR2	19	n/a	n/a	n/a	11	12	6	3	3
1798438	PROB	n/a	LTP278	ltpFR2	19	n/a	n/a	n/a	11	19	8	3	8
1800086	PROB	n/a	LTP278	ltpFR2	19	n/a	n/a	n/a	11	20	9	5	6
1802798	PROB	n/a	LTP278	ltpFR2	19	n/a	n/a	n/a	11	25	7	9	9
1804712	PROB	n/a	LTP278	ltpFR2	19	n/a	n/a	n/a	11	8	4	2	2
1805944	PROB	n/a	LTP278	ltpFR2	19	n/a	n/a	n/a	11	10	1	3	6
1807358	PROB	n/a	LTP278	ltpFR2	19	n/a	n/a	n/a	11	12	5	2	5
1808539	PROB	n/a	LTP278	ltpFR2	19	n/a	n/a	n/a	11	16	9	1	5
1809972	PROB	n/a	LTP278	ltpFR2	19	n/a	n/a	n/a	11	11	1	9	1
1811452	PROB	n/a	LTP278	ltpFR2	19	n/a	n/a	n/a	11	8	5	1	2
1812884	PROB	n/a	LTP278	ltpFR2	19	n/a	n/a	n/a	11	14	4	6	6
1814231	PROB	n/a	LTP278	ltpFR2	19	n/a	n/a	n/a	11	12	9	2	1
1816394	PROB	n/a	LTP278	ltpFR2	19	n/a	n/a	n/a	11	10	2	3	5
1817792	STOP	n/a	LTP278	ltpFR2	19	n/a	n/a	n/a	11	n/a	n/a	n/a	n/a
1820206	WORD	wordpools/wasnorm_wordpool_576.txt	LTP278	ltpFR2	19	9	LETTUCE	814	n/a	n/a	0	0	0
1822869	WORD	wordpools/wasnorm_wordpool_576.txt	LTP278	ltpFR2	19	9	SEAFOOD	1260	n/a	n/a	0	0	0
1825514	WORD	wordpools/wasnorm_wordpool_576.txt	LTP278	ltpFR2	19	9	ATOM	55	n/a	n/a	0	0	0
1828194	WORD	wordpools/wasnorm_wordpool_576.txt	LTP278	ltpFR2	19	9	MISSILE	900	n/a	n/a	0	0	0
1830707	WORD	wordpools/wasnorm_wordpool_576.txt	LTP278	ltpFR2	19	9	TOMBSTONE	1478	n/a	n/a	0	0	0
1833386	WORD	wordpools/wasnorm_wordpool_576.txt	LTP278	ltpFR2	19	9	PLAYGROUND	1087	n/a	n/a	0	0	0
1836050	WORD	wordpools/wasnorm_wordpool_576.txt	LTP278	ltpFR2	19	9	DIME	466	n/a	n/a	0	0	0
1838562	WORD	wordpools/wasnorm_wordpool_576.txt	LTP278	ltpFR2	19	9	MATCH	878	n/a	n/a	0	0	0
1841093	WORD	wordpools/wasnorm_wordpool_576.txt	LTP278	ltpFR2	19	9	PROTON	1132	n/a	n/a	0	0	0
1843555	WORD	wordpools/wasnorm_wordpool_576.txt	LTP278	ltpFR2	19	9	NEUTRON	947	n/a	n/a	0	0	0
1846135	WORD	wordpools/wasnorm_wordpool_576.txt	LTP278	ltpFR2	19	9	BEEF	113	n/a	n/a	0	0	0
1848830	WORD	wordpools/wasnorm_wordpool_576.txt	LTP278	ltpFR2	19	9	PATIENT	1024	n/a	n/a	0	0	0
1851426	WORD	wordpools/wasnorm_wordpool_576.txt	LTP278	ltpFR2	19	9	COCOON	339	n/a	n/a	0	0	0
1854239	WORD	wordpools/wasnorm_wordpool_576.txt	LTP278	ltpFR2	19	9	SURVEY	1414	n/a	n/a	0	0	0
1856719	WORD	wordpools/wasnorm_wordpool_576.txt	LTP278	ltpFR2	19	9	SLOPE	1328	n/a	n/a	0	0	0
1859281	WORD	wordpools/wasnorm_wordpool_576.txt	LTP278	ltpFR2	19	9	CHAPEL	280	n/a	n/a	0	0	0
1862112	WORD	wordpools/wasnorm_wordpool_576.txt	LTP278	ltpFR2	19	9	CLOCK	325	n/a	n/a	0	0	0
1864707	WORD	wordpools/wasnorm_wordpool_576.txt	LTP278	ltpFR2	19	9	GIFT	635	n/a	n/a	0	0	0
1867170	WORD	wordpools/wasnorm_wordpool_576.txt	LTP278	ltpFR2	19	9	BOX	159	n/a	n/a	0	0	0
1869600	WORD	wordpools/wasnorm_wordpool_576.txt	LTP278	ltpFR2	19	9	COUNTRY	388	n/a	n/a	0	0	0
1872030	WORD	wordpools/wasnorm_wordpool_576.txt	LTP278	ltpFR2	19	9	DANCER	437	n/a	n/a	0	0	0
1874592	WORD	wordpools/wasnorm_wordpool_576.txt	LTP278	ltpFR2	19	9	TROUT	1511	n/a	n/a	0	0	0
1877338	WORD	wordpools/wasnorm_wordpool_576.txt	LTP278	ltpFR2	19	9	TRUCK	1512	n/a	n/a	0	0	0
1879985	WORD	wordpools/wasnorm_wordpool_576.txt	LTP278	ltpFR2	19	9	GRILL	661	n/a	n/a	0	0	0
1881599	START	n/a	LTP278	ltpFR2	19	n/a	n/a	n/a	12	n/a	n/a	n/a	n/a
1882631	DISTRACTOR	n/a	LTP278	ltpFR2	19	9	n/a	n/a	n/a	n/a	0	0	0
1882647	PROB	n/a	LTP278	ltpFR2	19	n/a	n/a	n/a	12	17	6	5	6
1884578	PROB	n/a	LTP278	ltpFR2	19	n/a	n/a	n/a	12	14	3	7	4
1887224	PROB	n/a	LTP278	ltpFR2	19	n/a	n/a	n/a	12	18	5	9	4
1889437	PROB	n/a	LTP278	ltpFR2	19	n/a	n/a	n/a	12	16	6	7	3
1890903	PROB	n/a	LTP278	ltpFR2	19	n/a	n/a	n/a	12	16	7	5	4
1892966	PROB	n/a	LTP278	ltpFR2	19	n/a	n/a	n/a	12	7	2	4	1
1894696	PROB	n/a	LTP278	ltpFR2	19	n/a	n/a	n/a	12	25	9	9	7
1896145	PROB	n/a	LTP278	ltpFR2	19	n/a	n/a	n/a	12	12	9	9	4
1898341	PROB	n/a	LTP278	ltpFR2	19	n/a	n/a	n/a	12	16	4	5	7
1900404	PROB	n/a	LTP278	ltpFR2	19	n/a	n/a	n/a	12	11	3	3	5
1901752	PROB	n/a	LTP278	ltpFR2	19	n/a	n/a	n/a	12	14	1	8	5
1905599	STOP	n/a	LTP278	ltpFR2	19	n/a	n/a	n/a	12	n/a	n/a	n/a	n/a
1907444	REC_START	n/a	LTP278	ltpFR2	19	9	n/a	n/a	n/a	n/a	0	0	0
1909956	REC_WORD	wordpools/wasnorm_wordpool_576.txt	LTP278	ltpFR2	19	9	LETTUCE	814	n/a	n/a	0	0	0
1910508	REC_WORD	wordpools/wasnorm_wordpool_576.txt	LTP278	ltpFR2	19	9	SEAFOOD	1260	n/a	n/a	0	0	0
1912820	REC_WORD	wordpools/wasnorm_wordpool_576.txt	LTP278	ltpFR2	19	9	ATOM	55	n/a	n/a	0	0	0
1918984	REC_WORD	wordpools/wasnorm_wordpool_576.txt	LTP278	ltpFR2	19	9	MISSILE	900	n/a	n/a	0	0	0
1998112	WORD	wordpools/wasnorm_wordpool_576.txt	LTP278	ltpFR2	19	10	PECAN	1036	n/a	n/a	0	0	0
2000757	WORD	wordpools/wasnorm_wordpool_576.txt	LTP278	ltpFR2	19	10	APPLE	33	n/a	n/a	0	0	0
2003186	WORD	wordpools/wasnorm_wordpool_576.txt	LTP278	ltpFR2	19	10	VELVET	1555	n/a	n/a	0	0	0
2005900	WORD	wordpools/wasnorm_wordpool_576.txt	LTP278	ltpFR2	19	10	PANTHER	1009	n/a	n/a	0	0	0
2008495	WORD	wordpools/wasnorm_wordpool_576.txt	LTP278	ltpFR2	19	10	FOOTBALL	591	n/a	n/a	0	0	0
2011225	WORD	wordpools/wasnorm_wordpool_576.txt	LTP278	ltpFR2	19	10	TILE	1468	n/a	n/a	0	0	0
2013821	WORD	wordpools/wasnorm_wordpool_576.txt	LTP278	ltpFR2	19	10	GUARD	667	n/a	n/a	0	0	0
2016400	WORD	wordpools/wasnorm_wordpool_576.txt	LTP278	ltpFR2	19	10	GRAPE	654	n/a	n/a	0	0	0
2019163	WORD	wordpools/wasnorm_wordpool_576.txt	LTP278	ltpFR2	19	10	HANDBAG	684	n/a	n/a	0	0	0
2021860	WORD	wordpools/wasnorm_wordpool_576.txt	LTP278	ltpFR2	19	10	PUDDLE	1140	n/a	n/a	0	0	0
2024389	WORD	wordpools/wasnorm_wordpool_576.txt	LTP278	ltpFR2	19	10	ISLAND	745	n/a	n/a	0	0	0
2026886	WORD	wordpools/wasnorm_wordpool_576.txt	LTP278	ltpFR2	19	10	SCARECROW	1245	n/a	n/a	0	0	0
2029448	WORD	wordpools/wasnorm_wordpool_576.txt	LTP278	ltpFR2	19	10	CEILING	265	n/a	n/a	0	0	0
2031928	WORD	wordpools/wasnorm_wordpool_576.txt	LTP278	ltpFR2	19	10	SEAL	1262	n/a	n/a	0	0	0
2034607	WORD	wordpools/wasnorm_wordpool_576.txt	LTP278	ltpFR2	19	10	SPONGE	1355	n/a	n/a	0	0	0
2037286	WORD	wordpools/wasnorm_wordpool_576.txt	LTP278	ltpFR2	19	10	TUNNEL	1519	n/a	n/a	0	0	0
2040067	WORD	wordpools/wasnorm_wordpool_576.txt	LTP278	ltpFR2	19	10	BARREL	91	n/a	n/a	0	0	0
2042579	WORD	wordpools/wasnorm_wordpool_576.txt	LTP278	ltpFR2	19	10	BEAST	108	n/a	n/a	0	0	0
2045043	WORD	wordpools/wasnorm_wordpool_576.txt	LTP278	ltpFR2	19	10	CATCHER	258	n/a	n/a	0	0	0
2047588	WORD	wordpools/wasnorm_wordpool_576.txt	LTP278	ltpFR2	19	10	BUREAU	199	n/a	n/a	0	0	0
2050035	WORD	wordpools/wasnorm_wordpool_576.txt	LTP278	ltpFR2	19	10	WASP	1593	n/a	n/a	0	0	0
2052813	WORD	wordpools/wasnorm_wordpool_576.txt	LTP278	ltpFR2	19	10	HONEY	713	n/a	n/a	0	0	0
2055443	WORD	wordpools/wasnorm_wordpool_576.txt	LTP278	ltpFR2	19	10	SHOULDER	1294	n/a	n/a	0	0	0
2058189	WORD	wordpools/wasnorm_wordpool_576.txt	LTP278	ltpFR2	19	10	COURSE	390	n/a	n/a	0	0	0
2059803	START	n/a	LTP278	ltpFR2	19	n/a	n/a	n/a	13	n/a	n/a	n/a	n/a
2060993	DISTRACTOR	n/a	LTP278	ltpFR2	19	10	n/a	n/a	n/a	n/a	0	0	0
2061002	PROB	n/a	LTP278	ltpFR2	19	n/a	n/a	n/a	13	19	5	9	5
2063431	PROB	n/a	LTP278	ltpFR2	19	n/a	n/a	n/a	13	14	7	2	5
2065362	PROB	n/a	LTP278	ltpFR2	19	n/a	n/a	n/a	13	12	5	4	3
2067625	PROB	n/a	LTP278	ltpFR2	19	n/a	n/a	n/a	13	12	8	2	2
2068907	PROB	n/a	LTP278	ltpFR2	19	n/a	n/a	n/a	13	14	6	1	7
2070787	PROB	n/a	LTP278	ltpFR2	19	n/a	n/a	n/a	13	17	7	1	9
2073666	PROB	n/a	LTP278	ltpFR2	19	n/a	n/a	n/a	13	18	4	6	8
2075314	PROB	n/a	LTP278	ltpFR2	19	n/a	n/a	n/a	13	11	5	4	2
2077444	PROB	n/a	LTP278	ltpFR2	19	n/a	n/a	n/a	13	23	9	9	5
2083803	STOP	n/a	LTP278	ltpFR2	19	n/a	n/a	n/a	13	n/a	n/a	n/a	n/a
2085716	REC_START	n/a	LTP278	ltpFR2	19	10	n/a	n/a	n/a	n/a	0	0	0
2088682	REC_WORD	wordpools/wasnorm_wordpool_576.txt	LTP278	ltpFR2	19	10	APPLE	33	n/a	n/a	0	0	0
2089713	REC_WORD	wordpools/wasnorm_wordpool_576.txt	LTP278	ltpFR2	19	10	PECAN	1036	n/a	n/a	0	0	0
2090605	REC_WORD	wordpools/wasnorm_wordpool_576.txt	LTP278	ltpFR2	19	10	VELVET	1555	n/a	n/a	0	0	0
2091649	REC_WORD	wordpools/wasnorm_wordpool_576.txt	LTP278	ltpFR2	19	10	PANTHER	1009	n/a	n/a	0	0	0
2176415	DISTRACTOR	n/a	LTP278	ltpFR2	19	11	n/a	n/a	n/a	n/a	0	0	0
2176415	START	n/a	LTP278	ltpFR2	19	n/a	n/a	n/a	14	n/a	n/a	n/a	n/a
2176448	PROB	n/a	LTP278	ltpFR2	19	n/a	n/a	n/a	14	18	7	3	8
2178114	PROB	n/a	LTP278	ltpFR2	19	n/a	n/a	n/a	14	17	7	9	1
2179911	PROB	n/a	LTP278	ltpFR2	19	n/a	n/a	n/a	14	13	3	7	3
2182973	PROB	n/a	LTP278	ltpFR2	19	n/a	n/a	n/a	14	11	3	3	5
2184470	PROB	n/a	LTP278	ltpFR2	19	n/a	n/a	n/a	14	15	7	7	1
2185768	PROB	n/a	LTP278	ltpFR2	19	n/a	n/a	n/a	14	10	1	1	8
2186984	PROB	n/a	LTP278	ltpFR2	19	n/a	n/a	n/a	14	17	4	4	9
2188697	PROB	n/a	LTP278	ltpFR2	19	n/a	n/a	n/a	14	19	3	8	8
2190711	PROB	n/a	LTP278	ltpFR2	19	n/a	n/a	n/a	14	16	4	7	5
2194372	PROB	n/a	LTP278	ltpFR2	19	n/a	n/a	n/a	14	15	1	5	9
2196004	PROB	n/a	LTP278	ltpFR2	19	n/a	n/a	n/a	14	10	6	1	3
2197218	PROB	n/a	LTP278	ltpFR2	19	n/a	n/a	n/a	14	16	5	5	6
2198483	PROB	n/a	LTP278	ltpFR2	19	n/a	n/a	n/a	14	16	6	4	6
2199914	STOP	n/a	LTP278	ltpFR2	19	n/a	n/a	n/a	14	n/a	n/a	n/a	n/a
2201262	WORD	wordpools/wasnorm_wordpool_576.txt	LTP278	ltpFR2	19	11	DENIM	446	n/a	n/a	0	0	0
2203741	WORD	wordpools/wasnorm_wordpool_576.txt	LTP278	ltpFR2	19	11	COSTUME	383	n/a	n/a	0	0	0
2206221	WORD	wordpools/wasnorm_wordpool_576.txt	LTP278	ltpFR2	19	11	FIREPLACE	570	n/a	n/a	0	0	0
2208985	WORD	wordpools/wasnorm_wordpool_576.txt	LTP278	ltpFR2	19	11	SUBWAY	1400	n/a	n/a	0	0	0
2211480	WORD	wordpools/wasnorm_wordpool_576.txt	LTP278	ltpFR2	19	11	SUSPECT	1415	n/a	n/a	0	0	0
2214176	WORD	wordpools/wasnorm_wordpool_576.txt	LTP278	ltpFR2	19	11	CLAMP	316	n/a	n/a	0	0	0
2216623	WORD	wordpools/wasnorm_wordpool_576.txt	LTP278	ltpFR2	19	11	MOTOR	922	n/a	n/a	0	0	0
2219152	WORD	wordpools/wasnorm_wordpool_576.txt	LTP278	ltpFR2	19	11	LION	827	n/a	n/a	0	0	0
2221732	WORD	wordpools/wasnorm_wordpool_576.txt	LTP278	ltpFR2	19	11	CROWN	415	n/a	n/a	0	0	0
2224245	WORD	wordpools/wasnorm_wordpool_576.txt	LTP278	ltpFR2	19	11	BUG	187	n/a	n/a	0	0	0
2226875	WORD	wordpools/wasnorm_wordpool_576.txt	LTP278	ltpFR2	19	11	SPIDER	1351	n/a	n/a	0	0	0
2229570	WORD	wordpools/wasnorm_wordpool_576.txt	LTP278	ltpFR2	19	11	ROCKET	1202	n/a	n/a	0	0	0
2232134	WORD	wordpools/wasnorm_wordpool_576.txt	LTP278	ltpFR2	19	11	COMET	353	n/a	n/a	0	0	0
2234696	WORD	wordpools/wasnorm_wordpool_576.txt	LTP278	ltpFR2	19	11	CIGAR	308	n/a	n/a	0	0	0
2237259	WORD	wordpools/wasnorm_wordpool_576.txt	LTP278	ltpFR2	19	11	CHAUFFEUR	283	n/a	n/a	0	0	0
2239755	WORD	wordpools/wasnorm_wordpool_576.txt	LTP278	ltpFR2	19	11	COUSIN	392	n/a	n/a	0	0	0
2242501	WORD	wordpools/wasnorm_wordpool_576.txt	LTP278	ltpFR2	19	11	DRESSER	496	n/a	n/a	0	0	0
2245247	WORD	wordpools/wasnorm_wordpool_576.txt	LTP278	ltpFR2	19	11	MAMMAL	861	n/a	n/a	0	0	0
2247727	WORD	wordpools/wasnorm_wordpool_576.txt	LTP278	ltpFR2	19	11	CAMEL	223	n/a	n/a	0	0	0
2250489	WORD	wordpools/wasnorm_wordpool_576.txt	LTP278	ltpFR2	19	11	WAGON	1578	n/a	n/a	0	0	0
2252920	WORD	wordpools/wasnorm_wordpool_576.txt	LTP278	ltpFR2	19	11	BLOUSE	139	n/a	n/a	0	0	0
2255582	WORD	wordpools/wasnorm_wordpool_576.txt	LTP278	ltpFR2	19	11	ANKLE	24	n/a	n/a	0	0	0
2258211	WORD	wordpools/wasnorm_wordpool_576.txt	LTP278	ltpFR2	19	11	PADDING	999	n/a	n/a	0	0	0
2260674	WORD	wordpools/wasnorm_wordpool_576.txt	LTP278	ltpFR2	19	11	REBEL	1172	n/a	n/a	0	0	0
2262289	START	n/a	LTP278	ltpFR2	19	n/a	n/a	n/a	15	n/a	n/a	n/a	n/a
2263393	DISTRACTOR	n/a	LTP278	ltpFR2	19	11	n/a	n/a	n/a	n/a	0	0	0
2263404	PROB	n/a	LTP278	ltpFR2	19	n/a	n/a	n/a	15	16	9	5	1
2265368	PROB	n/a	LTP278	ltpFR2	19	n/a	n/a	n/a	15	19	6	8	5
2267915	PROB	n/a	LTP278	ltpFR2	19	n/a	n/a	n/a	15	15	3	4	8
2269362	PROB	n/a	LTP278	ltpFR2	19	n/a	n/a	n/a	15	8	5	2	1
2270693	PROB	n/a	LTP278	ltpFR2	19	n/a	n/a	n/a	15	16	8	4	4
2273372	PROB	n/a	LTP278	ltpFR2	19	n/a	n/a	n/a	15	25	8	9	8
2279230	PROB	n/a	LTP278	ltpFR2	19	n/a	n/a	n/a	15	8	4	1	3
2280578	PROB	n/a	LTP278	ltpFR2	19	n/a	n/a	n/a	15	13	9	1	3
2282526	PROB	n/a	LTP278	ltpFR2	19	n/a	n/a	n/a	15	15	4	7	4
2286289	STOP	n/a	LTP278	ltpFR2	19	n/a	n/a	n/a	15	n/a	n/a	n/a	n/a
2288218	REC_START	n/a	LTP278	ltpFR2	19	11	n/a	n/a	n/a	n/a	0	0	0
2294639	REC_WORD	wordpools/wasnorm_wordpool_576.txt	LTP278	ltpFR2	19	11	DENIM	446	n/a	n/a	0	0	0
2295568	REC_WORD	wordpools/wasnorm_wordpool_576.txt	LTP278	ltpFR2	19	11	COSTUME	383	n/a	n/a	0	0	0
2378868	DISTRACTOR	n/a	LTP278	ltpFR2	19	12	n/a	n/a	n/a	n/a	0	0	0
2378868	START	n/a	LTP278	ltpFR2	19	n/a	n/a	n/a	16	n/a	n/a	n/a	n/a
2378902	PROB	n/a	LTP278	ltpFR2	19	n/a	n/a	n/a	16	15	4	6	5
2381230	PROB	n/a	LTP278	ltpFR2	19	n/a	n/a	n/a	16	16	4	5	7
2383327	PROB	n/a	LTP278	ltpFR2	19	n/a	n/a	n/a	16	9	2	2	5
2384492	PROB	n/a	LTP278	ltpFR2	19	n/a	n/a	n/a	16	15	2	9	4
2386439	PROB	n/a	LTP278	ltpFR2	19	n/a	n/a	n/a	16	12	4	4	4
2387521	PROB	n/a	LTP278	ltpFR2	19	n/a	n/a	n/a	16	18	7	9	2
2388970	PROB	n/a	LTP278	ltpFR2	19	n/a	n/a	n/a	16	12	2	3	7
2390234	PROB	n/a	LTP278	ltpFR2	19	n/a	n/a	n/a	16	20	6	6	8
2392298	PROB	n/a	LTP278	ltpFR2	19	n/a	n/a	n/a	16	16	6	8	2
2394411	PROB	n/a	LTP278	ltpFR2	19	n/a	n/a	n/a	16	2	5	9	9
2396575	PROB	n/a	LTP278	ltpFR2	19	n/a	n/a	n/a	16	14	3	6	5
2399770	PROB	n/a	LTP278	ltpFR2	19	n/a	n/a	n/a	16	19	9	3	7
2401525	STOP	n/a	LTP278	ltpFR2	19	n/a	n/a	n/a	16	n/a	n/a	n/a	n/a
2403998	WORD	wordpools/wasnorm_wordpool_576.txt	LTP278	ltpFR2	19	12	CASHIER	254	n/a	n/a	0	0	0
2406543	WORD	wordpools/wasnorm_wordpool_576.txt	LTP278	ltpFR2	19	12	PASTRY	1022	n/a	n/a	0	0	0
2409356	WORD	wordpools/wasnorm_wordpool_576.txt	LTP278	ltpFR2	19	12	PAPER	1011	n/a	n/a	0	0	0
2411903	WORD	wordpools/wasnorm_wordpool_576.txt	LTP278	ltpFR2	19	12	BOYFRIEND	162	n/a	n/a	0	0	0
2414465	WORD	wordpools/wasnorm_wordpool_576.txt	LTP278	ltpFR2	19	12	CELLAR	267	n/a	n/a	0	0	0
2417095	WORD	wordpools/wasnorm_wordpool_576.txt	LTP278	ltpFR2	19	12	CHURCH	307	n/a	n/a	0	0	0
2419807	WORD	wordpools/wasnorm_wordpool_576.txt	LTP278	ltpFR2	19	12	ROBBER	1197	n/a	n/a	0	0	0
2422570	WORD	wordpools/wasnorm_wordpool_576.txt	LTP278	ltpFR2	19	12	BURGLAR	200	n/a	n/a	0	0	0
2425034	WORD	wordpools/wasnorm_wordpool_576.txt	LTP278	ltpFR2	19	12	BATHTUB	100	n/a	n/a	0	0	0
2427729	WORD	wordpools/wasnorm_wordpool_576.txt	LTP278	ltpFR2	19	12	BRIEFCASE	175	n/a	n/a	0	0	0
2430408	WORD	wordpools/wasnorm_wordpool_576.txt	LTP278	ltpFR2	19	12	FLUTE	585	n/a	n/a	0	0	0
2433138	WORD	wordpools/wasnorm_wordpool_576.txt	LTP278	ltpFR2	19	12	VALVE	1546	n/a	n/a	0	0	0
2435934	WORD	wordpools/wasnorm_wordpool_576.txt	LTP278	ltpFR2	19	12	PASSAGE	1019	n/a	n/a	0	0	0
2438546	WORD	wordpools/wasnorm_wordpool_576.txt	LTP278	ltpFR2	19	12	ATLAS	53	n/a	n/a	0	0	0
2441143	WORD	wordpools/wasnorm_wordpool_576.txt	LTP278	ltpFR2	19	12	COFFEE	341	n/a	n/a	0	0	0
2443956	WORD	wordpools/wasnorm_wordpool_576.txt	LTP278	ltpFR2	19	12	UNCLE	1536	n/a	n/a	0	0	0
2446584	WORD	wordpools/wasnorm_wordpool_576.txt	LTP278	ltpFR2	19	12	TUBA	1515	n/a	n/a	0	0	0
2449297	WORD	wordpools/wasnorm_wordpool_576.txt	LTP278	ltpFR2	19	12	PEBBLE	1035	n/a	n/a	0	0	0
2451944	WORD	wordpools/wasnorm_wordpool_576.txt	LTP278	ltpFR2	19	12	SUITCASE	1403	n/a	n/a	0	0	0
2454639	WORD	wordpools/wasnorm_wordpool_576.txt	LTP278	ltpFR2	19	12	MAILBOX	857	n/a	n/a	0	0	0
2457418	WORD	wordpools/wasnorm_wordpool_576.txt	LTP278	ltpFR2	19	12	PACKAGE	997	n/a	n/a	0	0	0
2460231	WORD	wordpools/wasnorm_wordpool_576.txt	LTP278	ltpFR2	19	12	HOUND	724	n/a	n/a	0	0	0
2462711	WORD	wordpools/wasnorm_wordpool_576.txt	LTP278	ltpFR2	19	12	QUARTER	1148	n/a	n/a	0	0	0
2465240	WORD	wordpools/wasnorm_wordpool_576.txt	LTP278	ltpFR2	19	12	IDOL	733	n/a	n/a	0	0	0
2466856	START	n/a	LTP278	ltpFR2	19	n/a	n/a	n/a	17	n/a	n/a	n/a	n/a
2467801	DISTRACTOR	n/a	LTP278	ltpFR2	19	12	n/a	n/a	n/a	n/a	0	0	0
2467803	PROB	n/a	LTP278	ltpFR2	19	n/a	n/a	n/a	17	12	1	5	6
2469551	PROB	n/a	LTP278	ltpFR2	19	n/a	n/a	n/a	17	18	6	5	7
2471348	PROB	n/a	LTP278	ltpFR2	19	n/a	n/a	n/a	17	7	1	1	5
2472579	PROB	n/a	LTP278	ltpFR2	19	n/a	n/a	n/a	17	21	6	8	7
2474527	PROB	n/a	LTP278	ltpFR2	19	n/a	n/a	n/a	17	9	3	4	2
2476607	PROB	n/a	LTP278	ltpFR2	19	n/a	n/a	n/a	17	18	8	6	4
2478188	PROB	n/a	LTP278	ltpFR2	19	n/a	n/a	n/a	17	19	2	8	9
2479870	PROB	n/a	LTP278	ltpFR2	19	n/a	n/a	n/a	17	16	2	9	5
2481950	PROB	n/a	LTP278	ltpFR2	19	n/a	n/a	n/a	17	10	1	4	5
2483746	PROB	n/a	LTP278	ltpFR2	19	n/a	n/a	n/a	17	18	8	1	9
2485294	PROB	n/a	LTP278	ltpFR2	19	n/a	n/a	n/a	17	13	6	3	4
2487891	PROB	n/a	LTP278	ltpFR2	19	n/a	n/a	n/a	17	14	5	6	3
2490807	STOP	n/a	LTP278	ltpFR2	19	n/a	n/a	n/a	17	n/a	n/a	n/a	n/a
2492684	REC_START	n/a	LTP278	ltpFR2	19	12	n/a	n/a	n/a	n/a	0	0	0
2567684	REC_WORD_VV	wordpools/wasnorm_wordpool_576.txt	LTP278	ltpFR2	19	12	<>	-1	n/a	n/a	0	0	0
2583433	WORD	wordpools/wasnorm_wordpool_576.txt	LTP278	ltpFR2	19	13	POISON	1096	n/a	n/a	0	0	0
2586179	WORD	wordpools/wasnorm_wordpool_576.txt	LTP278	ltpFR2	19	13	WARDROBE	1587	n/a	n/a	0	0	0
2588959	WORD	wordpools/wasnorm_wordpool_576.txt	LTP278	ltpFR2	19	13	QUAIL	1147	n/a	n/a	0	0	0
2591738	WORD	wordpools/wasnorm_wordpool_576.txt	LTP278	ltpFR2	19	13	TWIG	1527	n/a	n/a	0	0	0
2594184	WORD	wordpools/wasnorm_wordpool_576.txt	LTP278	ltpFR2	19	13	NECKLACE	940	n/a	n/a	0	0	0
2596614	WORD	wordpools/wasnorm_wordpool_576.txt	LTP278	ltpFR2	19	13	RUST	1219	n/a	n/a	0	0	0
2599227	WORD	wordpools/wasnorm_wordpool_576.txt	LTP278	ltpFR2	19	13	ZIPPER	1636	n/a	n/a	0	0	0
2601840	WORD	wordpools/wasnorm_wordpool_576.txt	LTP278	ltpFR2	19	13	MOP	916	n/a	n/a	0	0	0
2604319	WORD	wordpools/wasnorm_wordpool_576.txt	LTP278	ltpFR2	19	13	GHETTO	633	n/a	n/a	0	0	0
2607049	WORD	wordpools/wasnorm_wordpool_576.txt	LTP278	ltpFR2	19	13	JEANS	752	n/a	n/a	0	0	0
2609511	WORD	wordpools/wasnorm_wordpool_576.txt	LTP278	ltpFR2	19	13	PARTNER	1017	n/a	n/a	0	0	0
2612174	WORD	wordpools/wasnorm_wordpool_576.txt	LTP278	ltpFR2	19	13	TOURIST	1488	n/a	n/a	0	0	0
2614820	WORD	wordpools/wasnorm_wordpool_576.txt	LTP278	ltpFR2	19	13	LIZARD	834	n/a	n/a	0	0	0
2617566	WORD	wordpools/wasnorm_wordpool_576.txt	LTP278	ltpFR2	19	13	MISTER	901	n/a	n/a	0	0	0
2620097	WORD	wordpools/wasnorm_wordpool_576.txt	LTP278	ltpFR2	19	13	NOMAD	955	n/a	n/a	0	0	0
2622675	WORD	wordpools/wasnorm_wordpool_576.txt	LTP278	ltpFR2	19	13	HUSBAND	728	n/a	n/a	0	0	0
2625355	WORD	wordpools/wasnorm_wordpool_576.txt	LTP278	ltpFR2	19	13	GRAVEL	659	n/a	n/a	0	0	0
2627869	WORD	wordpools/wasnorm_wordpool_576.txt	LTP278	ltpFR2	19	13	XEROX	1628	n/a	n/a	0	0	0
2630347	WORD	wordpools/wasnorm_wordpool_576.txt	LTP278	ltpFR2	19	13	DAUGHTER	442	n/a	n/a	0	0	0
2632861	WORD	wordpools/wasnorm_wordpool_576.txt	LTP278	ltpFR2	19	13	GIRL	637	n/a	n/a	0	0	0
2635507	WORD	wordpools/wasnorm_wordpool_576.txt	LTP278	ltpFR2	19	13	FRUIT	610	n/a	n/a	0	0	0
2637971	WORD	wordpools/wasnorm_wordpool_576.txt	LTP278	ltpFR2	19	13	CLOTHES	327	n/a	n/a	0	0	0
2640433	WORD	wordpools/wasnorm_wordpool_576.txt	LTP278	ltpFR2	19	13	OUTFIT	988	n/a	n/a	0	0	0
2643113	WORD	wordpools/wasnorm_wordpool_576.txt	LTP278	ltpFR2	19	13	ZEBRA	1635	n/a	n/a	0	0	0
2644727	START	n/a	LTP278	ltpFR2	19	n/a	n/a	n/a	18	n/a	n/a	n/a	n/a
2645714	DISTRACTOR	n/a	LTP278	ltpFR2	19	13	n/a	n/a	n/a	n/a	0	0	0
2645725	PROB	n/a	LTP278	ltpFR2	19	n/a	n/a	n/a	18	14	8	2	4
2647422	PROB	n/a	LTP278	ltpFR2	19	n/a	n/a	n/a	18	14	7	4	3
2649138	PROB	n/a	LTP278	ltpFR2	19	n/a	n/a	n/a	18	16	1	7	8
2650968	PROB	n/a	LTP278	ltpFR2	19	n/a	n/a	n/a	18	19	4	7	8
2652731	PROB	n/a	LTP278	ltpFR2	19	n/a	n/a	n/a	18	18	1	9	8
2654212	PROB	n/a	LTP278	ltpFR2	19	n/a	n/a	n/a	18	11	6	3	2
2655577	PROB	n/a	LTP278	ltpFR2	19	n/a	n/a	n/a	18	12	3	3	6
2656825	PROB	n/a	LTP278	ltpFR2	19	n/a	n/a	n/a	18	20	7	5	8
2658706	PROB	n/a	LTP278	ltpFR2	19	n/a	n/a	n/a	18	14	4	8	2
2661202	PROB	n/a	LTP278	ltpFR2	19	n/a	n/a	n/a	18	22	8	9	5
2664564	PROB	n/a	LTP278	ltpFR2	19	n/a	n/a	n/a	18	20	7	8	5
2666544	PROB	n/a	LTP278	ltpFR2	19	n/a	n/a	n/a	18	9	4	4	1
2667659	STOP	n/a	LTP278	ltpFR2	19	n/a	n/a	n/a	18	n/a	n/a	n/a	n/a
2670556	REC_START	n/a	LTP278	ltpFR2	19	13	n/a	n/a	n/a	n/a	0	0	0
2671057	REC_WORD	wordpools/wasnorm_wordpool_576.txt	LTP278	ltpFR2	19	13	GIRL	637	n/a	n/a	0	0	0
2671953	REC_WORD	wordpools/wasnorm_wordpool_576.txt	LTP278	ltpFR2	19	13	DAUGHTER	442	n/a	n/a	0	0	0
2672660	REC_WORD	wordpools/wasnorm_wordpool_576.txt	LTP278	ltpFR2	19	13	CLOTHES	327	n/a	n/a	0	0	0
2673475	REC_WORD	wordpools/wasnorm_wordpool_576.txt	LTP278	ltpFR2	19	13	OUTFIT	988	n/a	n/a	0	0	0
2674045	REC_WORD	wordpools/wasnorm_wordpool_576.txt	LTP278	ltpFR2	19	13	ZEBRA	1635	n/a	n/a	0	0	0
2761238	WORD	wordpools/wasnorm_wordpool_576.txt	LTP278	ltpFR2	19	14	TREAT	1501	n/a	n/a	0	0	0
2764002	WORD	wordpools/wasnorm_wordpool_576.txt	LTP278	ltpFR2	19	14	ONION	977	n/a	n/a	0	0	0
2766597	WORD	wordpools/wasnorm_wordpool_576.txt	LTP278	ltpFR2	19	14	HIKER	708	n/a	n/a	0	0	0
2769078	WORD	wordpools/wasnorm_wordpool_576.txt	LTP278	ltpFR2	19	14	LILY	821	n/a	n/a	0	0	0
2771556	WORD	wordpools/wasnorm_wordpool_576.txt	LTP278	ltpFR2	19	14	ORCHID	982	n/a	n/a	0	0	0
2774004	WORD	wordpools/wasnorm_wordpool_576.txt	LTP278	ltpFR2	19	14	SUMMIT	1405	n/a	n/a	0	0	0
2776549	WORD	wordpools/wasnorm_wordpool_576.txt	LTP278	ltpFR2	19	14	STAKE	1368	n/a	n/a	0	0	0
2779328	WORD	wordpools/wasnorm_wordpool_576.txt	LTP278	ltpFR2	19	14	LUMBER	848	n/a	n/a	0	0	0
2782125	WORD	wordpools/wasnorm_wordpool_576.txt	LTP278	ltpFR2	19	14	LADDER	793	n/a	n/a	0	0	0
2784820	WORD	wordpools/wasnorm_wordpool_576.txt	LTP278	ltpFR2	19	14	SLIDE	1326	n/a	n/a	0	0	0
2787433	WORD	wordpools/wasnorm_wordpool_576.txt	LTP278	ltpFR2	19	14	JUDGE	761	n/a	n/a	0	0	0
2790212	WORD	wordpools/wasnorm_wordpool_576.txt	LTP278	ltpFR2	19	14	COOK	372	n/a	n/a	0	0	0
2792642	WORD	wordpools/wasnorm_wordpool_576.txt	LTP278	ltpFR2	19	14	CHILD	299	n/a	n/a	0	0	0
2795106	WORD	wordpools/wasnorm_wordpool_576.txt	LTP278	ltpFR2	19	14	PLATE	1086	n/a	n/a	0	0	0
2797701	WORD	wordpools/wasnorm_wordpool_576.txt	LTP278	ltpFR2	19	14	VIRUS	1572	n/a	n/a	0	0	0
2800231	WORD	wordpools/wasnorm_wordpool_576.txt	LTP278	ltpFR2	19	14	GROUND	666	n/a	n/a	0	0	0
2803045	WORD	wordpools/wasnorm_wordpool_576.txt	LTP278	ltpFR2	19	14	FLAG	573	n/a	n/a	0	0	0
2805640	WORD	wordpools/wasnorm_wordpool_576.txt	LTP278	ltpFR2	19	14	SMOG	1330	n/a	n/a	0	0	0
2808203	WORD	wordpools/wasnorm_wordpool_576.txt	LTP278	ltpFR2	19	14	DIVER	476	n/a	n/a	0	0	0
2810716	WORD	wordpools/wasnorm_wordpool_576.txt	LTP278	ltpFR2	19	14	DAISY	435	n/a	n/a	0	0	0
2813146	WORD	wordpools/wasnorm_wordpool_576.txt	LTP278	ltpFR2	19	14	DUSTPAN	509	n/a	n/a	0	0	0
2815909	WORD	wordpools/wasnorm_wordpool_576.txt	LTP278	ltpFR2	19	14	GARBAGE	622	n/a	n/a	0	0	0
2818637	WORD	wordpools/wasnorm_wordpool_576.txt	LTP278	ltpFR2	19	14	BISON	131	n/a	n/a	0	0	0
2821450	WORD	wordpools/wasnorm_wordpool_576.txt	LTP278	ltpFR2	19	14	GARDEN	623	n/a	n/a	0	0	0
2823065	START	n/a	LTP278	ltpFR2	19	n/a	n/a	n/a	19	n/a	n/a	n/a	n/a
2823876	DISTRACTOR	n/a	LTP278	ltpFR2	19	14	n/a	n/a	n/a	n/a	0	0	0
2823881	PROB	n/a	LTP278	ltpFR2	19	n/a	n/a	n/a	19	14	7	6	1
2827541	PROB	n/a	LTP278	ltpFR2	19	n/a	n/a	n/a	19	15	5	6	4
2829073	PROB	n/a	LTP278	ltpFR2	19	n/a	n/a	n/a	19	9	2	5	2
2830253	PROB	n/a	LTP278	ltpFR2	19	n/a	n/a	n/a	19	16	9	3	4
2834032	PROB	n/a	LTP278	ltpFR2	19	n/a	n/a	n/a	19	13	5	4	4
2836129	PROB	n/a	LTP278	ltpFR2	19	n/a	n/a	n/a	19	7	1	5	1
2837443	PROB	n/a	LTP278	ltpFR2	19	n/a	n/a	n/a	19	13	6	4	3
2839257	PROB	n/a	LTP278	ltpFR2	19	n/a	n/a	n/a	19	15	5	3	7
2841005	PROB	n/a	LTP278	ltpFR2	19	n/a	n/a	n/a	19	12	7	2	3
2842903	PROB	n/a	LTP278	ltpFR2	19	n/a	n/a	n/a	19	13	3	5	5
2844183	PROB	n/a	LTP278	ltpFR2	19	n/a	n/a	n/a	19	11	3	5	3
2845703	STOP	n/a	LTP278	ltpFR2	19	n/a	n/a	n/a	19	n/a	n/a	n/a	n/a
2848978	REC_START	n/a	LTP278	ltpFR2	19	14	n/a	n/a	n/a	n/a	0	0	0
2854676	REC_WORD	wordpools/wasnorm_wordpool_576.txt	LTP278	ltpFR2	19	14	HIKER	708	n/a	n/a	0	0	0
2855719	REC_WORD	wordpools/wasnorm_wordpool_576.txt	LTP278	ltpFR2	19	14	ONION	977	n/a	n/a	0	0	0
2858122	REC_WORD	wordpools/wasnorm_wordpool_576.txt	LTP278	ltpFR2	19	14	TREAT	1501	n/a	n/a	0	0	0
2858653	REC_WORD	wordpools/wasnorm_wordpool_576.txt	LTP278	ltpFR2	19	14	LILY	821	n/a	n/a	0	0	0
2859058	REC_WORD	wordpools/wasnorm_wordpool_576.txt	LTP278	ltpFR2	19	14	ORCHID	982	n/a	n/a	0	0	0
2859470	REC_WORD	wordpools/wasnorm_wordpool_576.txt	LTP278	ltpFR2	19	14	GARDEN	623	n/a	n/a	0	0	0
2859918	REC_WORD	wordpools/wasnorm_wordpool_576.txt	LTP278	ltpFR2	19	14	BISON	131	n/a	n/a	0	0	0
2877918	REC_WORD_VV	wordpools/wasnorm_wordpool_576.txt	LTP278	ltpFR2	19	14	<>	-1	n/a	n/a	0	0	0
2939643	DISTRACTOR	n/a	LTP278	ltpFR2	19	15	n/a	n/a	n/a	n/a	0	0	0
2939643	START	n/a	LTP278	ltpFR2	19	n/a	n/a	n/a	20	n/a	n/a	n/a	n/a
2939676	PROB	n/a	LTP278	ltpFR2	19	n/a	n/a	n/a	20	12	3	2	7
2941157	PROB	n/a	LTP278	ltpFR2	19	n/a	n/a	n/a	20	1	1	8	7
2944436	PROB	n/a	LTP278	ltpFR2	19	n/a	n/a	n/a	20	19	8	5	6
2946599	PROB	n/a	LTP278	ltpFR2	19	n/a	n/a	n/a	20	16	1	9	6
2948230	PROB	n/a	LTP278	ltpFR2	19	n/a	n/a	n/a	20	17	5	6	6
2950145	PROB	n/a	LTP278	ltpFR2	19	n/a	n/a	n/a	20	17	9	7	1
2953906	PROB	n/a	LTP278	ltpFR2	19	n/a	n/a	n/a	20	14	3	5	6
2955769	PROB	n/a	LTP278	ltpFR2	19	n/a	n/a	n/a	20	12	4	1	7
2958000	PROB	n/a	LTP278	ltpFR2	19	n/a	n/a	n/a	20	14	6	6	2
2960362	PROB	n/a	LTP278	ltpFR2	19	n/a	n/a	n/a	20	15	3	3	9
2962530	STOP	n/a	LTP278	ltpFR2	19	n/a	n/a	n/a	20	n/a	n/a	n/a	n/a
2964840	WORD	wordpools/wasnorm_wordpool_576.txt	LTP278	ltpFR2	19	15	EAGLE	512	n/a	n/a	0	0	0
2967452	WORD	wordpools/wasnorm_wordpool_576.txt	LTP278	ltpFR2	19	15	PIGMENT	1066	n/a	n/a	0	0	0
2969999	WORD	wordpools/wasnorm_wordpool_576.txt	LTP278	ltpFR2	19	15	FOREHEAD	592	n/a	n/a	0	0	0
2972811	WORD	wordpools/wasnorm_wordpool_576.txt	LTP278	ltpFR2	19	15	BALLOON	75	n/a	n/a	0	0	0
2975290	WORD	wordpools/wasnorm_wordpool_576.txt	LTP278	ltpFR2	19	15	LUGGAGE	847	n/a	n/a	0	0	0
2977803	WORD	wordpools/wasnorm_wordpool_576.txt	LTP278	ltpFR2	19	15	COBRA	336	n/a	n/a	0	0	0
2980349	WORD	wordpools/wasnorm_wordpool_576.txt	LTP278	ltpFR2	19	15	JUNGLE	764	n/a	n/a	0	0	0
2982897	WORD	wordpools/wasnorm_wordpool_576.txt	LTP278	ltpFR2	19	15	DANDRUFF	439	n/a	n/a	0	0	0
2985708	WORD	wordpools/wasnorm_wordpool_576.txt	LTP278	ltpFR2	19	15	OX	994	n/a	n/a	0	0	0
2988487	WORD	wordpools/wasnorm_wordpool_576.txt	LTP278	ltpFR2	19	15	MILK	895	n/a	n/a	0	0	0
2990952	WORD	wordpools/wasnorm_wordpool_576.txt	LTP278	ltpFR2	19	15	CURTAIN	427	n/a	n/a	0	0	0
2993513	WORD	wordpools/wasnorm_wordpool_576.txt	LTP278	ltpFR2	19	15	BRAKE	166	n/a	n/a	0	0	0
2996144	WORD	wordpools/wasnorm_wordpool_576.txt	LTP278	ltpFR2	19	15	PATROL	1027	n/a	n/a	0	0	0
2998890	WORD	wordpools/wasnorm_wordpool_576.txt	LTP278	ltpFR2	19	15	SISTER	1312	n/a	n/a	0	0	0
3001701	WORD	wordpools/wasnorm_wordpool_576.txt	LTP278	ltpFR2	19	15	BROOK	177	n/a	n/a	0	0	0
3004364	WORD	wordpools/wasnorm_wordpool_576.txt	LTP278	ltpFR2	19	15	CONVICT	371	n/a	n/a	0	0	0
3006911	WORD	wordpools/wasnorm_wordpool_576.txt	LTP278	ltpFR2	19	15	FIDDLE	561	n/a	n/a	0	0	0
3009357	WORD	wordpools/wasnorm_wordpool_576.txt	LTP278	ltpFR2	19	15	OZONE	996	n/a	n/a	0	0	0
3012104	WORD	wordpools/wasnorm_wordpool_576.txt	LTP278	ltpFR2	19	15	DRESS	495	n/a	n/a	0	0	0
3014682	WORD	wordpools/wasnorm_wordpool_576.txt	LTP278	ltpFR2	19	15	FRECKLE	602	n/a	n/a	0	0	0
3017262	WORD	wordpools/wasnorm_wordpool_576.txt	LTP278	ltpFR2	19	15	RECORD	1176	n/a	n/a	0	0	0
3019742	WORD	wordpools/wasnorm_wordpool_576.txt	LTP278	ltpFR2	19	15	CONCERT	360	n/a	n/a	0	0	0
3022438	WORD	wordpools/wasnorm_wordpool_576.txt	LTP278	ltpFR2	19	15	CREATURE	403	n/a	n/a	0	0	0
3025250	WORD	wordpools/wasnorm_wordpool_576.txt	LTP278	ltpFR2	19	15	BANQUET	86	n/a	n/a	0	0	0
3026866	START	n/a	LTP278	ltpFR2	19	n/a	n/a	n/a	21	n/a	n/a	n/a	n/a
3027910	DISTRACTOR	n/a	LTP278	ltpFR2	19	15	n/a	n/a	n/a	n/a	0	0	0
3027914	PROB	n/a	LTP278	ltpFR2	19	n/a	n/a	n/a	21	20	9	8	3
3031458	PROB	n/a	LTP278	ltpFR2	19	n/a	n/a	n/a	21	18	7	5	6
3033821	PROB	n/a	LTP278	ltpFR2	19	n/a	n/a	n/a	21	18	4	7	7
3035385	PROB	n/a	LTP278	ltpFR2	19	n/a	n/a	n/a	21	15	7	1	7
3037050	PROB	n/a	LTP278	ltpFR2	19	n/a	n/a	n/a	21	13	5	2	6
3038714	PROB	n/a	LTP278	ltpFR2	19	n/a	n/a	n/a	21	20	3	8	9
3040861	PROB	n/a	LTP278	ltpFR2	19	n/a	n/a	n/a	21	13	1	5	7
3042325	PROB	n/a	LTP278	ltpFR2	19	n/a	n/a	n/a	21	14	5	2	7
3044372	PROB	n/a	LTP278	ltpFR2	19	n/a	n/a	n/a	21	16	6	9	1
3046969	PROB	n/a	LTP278	ltpFR2	19	n/a	n/a	n/a	21	13	3	7	3
3050866	STOP	n/a	LTP278	ltpFR2	19	n/a	n/a	n/a	21	n/a	n/a	n/a	n/a
3052727	REC_START	n/a	LTP278	ltpFR2	19	15	n/a	n/a	n/a	n/a	0	0	0
3055343	REC_WORD	wordpools/wasnorm_wordpool_576.txt	LTP278	ltpFR2	19	15	GIRL	637	n/a	n/a	0	0	0
3058261	REC_WORD	wordpools/wasnorm_wordpool_576.txt	LTP278	ltpFR2	19	15	RECORD	1176	n/a	n/a	0	0	0
3058847	REC_WORD	wordpools/wasnorm_wordpool_576.txt	LTP278	ltpFR2	19	15	CONCERT	360	n/a	n/a	0	0	0
3143376	DISTRACTOR	n/a	LTP278	ltpFR2	19	16	n/a	n/a	n/a	n/a	0	0	0
3143377	START	n/a	LTP278	ltpFR2	19	n/a	n/a	n/a	22	n/a	n/a	n/a	n/a
3143410	PROB	n/a	LTP278	ltpFR2	19	n/a	n/a	n/a	22	18	8	9	1
3145490	PROB	n/a	LTP278	ltpFR2	19	n/a	n/a	n/a	22	12	1	5	6
3146655	PROB	n/a	LTP278	ltpFR2	19	n/a	n/a	n/a	22	13	8	1	4
3148153	PROB	n/a	LTP278	ltpFR2	19	n/a	n/a	n/a	22	10	1	1	8
3149418	PROB	n/a	LTP278	ltpFR2	19	n/a	n/a	n/a	22	10	8	1	1
3150483	PROB	n/a	LTP278	ltpFR2	19	n/a	n/a	n/a	22	18	6	8	4
3153262	PROB	n/a	LTP278	ltpFR2	19	n/a	n/a	n/a	22	15	7	2	6
3155675	PROB	n/a	LTP278	ltpFR2	19	n/a	n/a	n/a	22	15	4	4	7
3157091	PROB	n/a	LTP278	ltpFR2	19	n/a	n/a	n/a	22	6	4	1	1
3158354	PROB	n/a	LTP278	ltpFR2	19	n/a	n/a	n/a	22	16	7	1	8
3160651	PROB	n/a	LTP278	ltpFR2	19	n/a	n/a	n/a	22	19	6	7	6
3162448	PROB	n/a	LTP278	ltpFR2	19	n/a	n/a	n/a	22	16	2	9	5
3167377	STOP	n/a	LTP278	ltpFR2	19	n/a	n/a	n/a	22	n/a	n/a	n/a	n/a
3168523	WORD	wordpools/wasnorm_wordpool_576.txt	LTP278	ltpFR2	19	16	LIPSTICK	829	n/a	n/a	0	0	0
3171219	WORD	wordpools/wasnorm_wordpool_576.txt	LTP278	ltpFR2	19	16	ICING	732	n/a	n/a	0	0	0
3173849	WORD	wordpools/wasnorm_wordpool_576.txt	LTP278	ltpFR2	19	16	SHOVEL	1295	n/a	n/a	0	0	0
3176594	WORD	wordpools/wasnorm_wordpool_576.txt	LTP278	ltpFR2	19	16	MARSH	874	n/a	n/a	0	0	0
3179157	WORD	wordpools/wasnorm_wordpool_576.txt	LTP278	ltpFR2	19	16	SKIRT	1319	n/a	n/a	0	0	0
3181587	WORD	wordpools/wasnorm_wordpool_576.txt	LTP278	ltpFR2	19	16	PLAID	1080	n/a	n/a	0	0	0
3184300	WORD	wordpools/wasnorm_wordpool_576.txt	LTP278	ltpFR2	19	16	PREACHER	1119	n/a	n/a	0	0	0
3187013	WORD	wordpools/wasnorm_wordpool_576.txt	LTP278	ltpFR2	19	16	COIN	343	n/a	n/a	0	0	0
3189825	WORD	wordpools/wasnorm_wordpool_576.txt	LTP278	ltpFR2	19	16	MUFFIN	929	n/a	n/a	0	0	0
3192371	WORD	wordpools/wasnorm_wordpool_576.txt	LTP278	ltpFR2	19	16	TOASTER	1472	n/a	n/a	0	0	0
3194918	WORD	wordpools/wasnorm_wordpool_576.txt	LTP278	ltpFR2	19	16	BRANCH	168	n/a	n/a	0	0	0
3197347	WORD	wordpools/wasnorm_wordpool_576.txt	LTP278	ltpFR2	19	16	FRIAR	605	n/a	n/a	0	0	0
3200160	WORD	wordpools/wasnorm_wordpool_576.txt	LTP278	ltpFR2	19	16	BUNNY	198	n/a	n/a	0	0	0
3202656	WORD	wordpools/wasnorm_wordpool_576.txt	LTP278	ltpFR2	19	16	SIBLING	1301	n/a	n/a	0	0	0
3205419	WORD	wordpools/wasnorm_wordpool_576.txt	LTP278	ltpFR2	19	16	STOVE	1388	n/a	n/a	0	0	0
3207866	WORD	wordpools/wasnorm_wordpool_576.txt	LTP278	ltpFR2	19	16	PICNIC	1060	n/a	n/a	0	0	0
3210694	WORD	wordpools/wasnorm_wordpool_576.txt	LTP278	ltpFR2	19	16	CABBAGE	210	n/a	n/a	0	0	0
3213240	WORD	wordpools/wasnorm_wordpool_576.txt	LTP278	ltpFR2	19	16	GALLON	618	n/a	n/a	0	0	0
3215770	WORD	wordpools/wasnorm_wordpool_576.txt	LTP278	ltpFR2	19	16	TWISTER	1530	n/a	n/a	0	0	0
3218383	WORD	wordpools/wasnorm_wordpool_576.txt	LTP278	ltpFR2	19	16	CARROT	249	n/a	n/a	0	0	0
3220880	WORD	wordpools/wasnorm_wordpool_576.txt	LTP278	ltpFR2	19	16	EYELASH	546	n/a	n/a	0	0	0
3223442	WORD	wordpools/wasnorm_wordpool_576.txt	LTP278	ltpFR2	19	16	UMPIRE	1535	n/a	n/a	0	0	0
3226171	WORD	wordpools/wasnorm_wordpool_576.txt	LTP278	ltpFR2	19	16	FRAGRANCE	599	n/a	n/a	0	0	0
3228668	WORD	wordpools/wasnorm_wordpool_576.txt	LTP278	ltpFR2	19	16	PRIMATE	1123	n/a	n/a	0	0	0
3230282	START	n/a	LTP278	ltpFR2	19	n/a	n/a	n/a	23	n/a	n/a	n/a	n/a
3231380	DISTRACTOR	n/a	LTP278	ltpFR2	19	16	n/a	n/a	n/a	n/a	0	0	0
3231397	PROB	n/a	LTP278	ltpFR2	19	n/a	n/a	n/a	23	16	7	1	8
3232962	PROB	n/a	LTP278	ltpFR2	19	n/a	n/a	n/a	23	111	1	1	9
3234309	PROB	n/a	LTP278	ltpFR2	19	n/a	n/a	n/a	23	8	2	2	4
3235757	PROB	n/a	LTP278	ltpFR2	19	n/a	n/a	n/a	23	20	9	7	4
3237588	PROB	n/a	LTP278	ltpFR2	19	n/a	n/a	n/a	23	19	4	7	8
3240384	PROB	n/a	LTP278	ltpFR2	19	n/a	n/a	n/a	23	12	6	3	3
3241966	PROB	n/a	LTP278	ltpFR2	19	n/a	n/a	n/a	23	17	8	7	2
3244428	PROB	n/a	LTP278	ltpFR2	19	n/a	n/a	n/a	23	8	2	3	3
3246258	PROB	n/a	LTP278	ltpFR2	19	n/a	n/a	n/a	23	13	7	2	4
3247773	PROB	n/a	LTP278	ltpFR2	19	n/a	n/a	n/a	23	20	9	4	7
3250186	PROB	n/a	LTP278	ltpFR2	19	n/a	n/a	n/a	23	19	6	6	7
3252449	PROB	n/a	LTP278	ltpFR2	19	n/a	n/a	n/a	23	12	4	2	6
3253728	STOP	n/a	LTP278	ltpFR2	19	n/a	n/a	n/a	23	n/a	n/a	n/a	n/a
3256244	REC_START	n/a	LTP278	ltpFR2	19	16	n/a	n/a	n/a	n/a	0	0	0
3259484	REC_WORD	wordpools/wasnorm_wordpool_576.txt	LTP278	ltpFR2	19	16	GALLON	618	n/a	n/a	0	0	0
3287171	REC_WORD	wordpools/wasnorm_wordpool_576.txt	LTP278	ltpFR2	19	16	CRICKET	408	n/a	n/a	0	0	0
3325420	REC_WORD	wordpools/wasnorm_wordpool_576.txt	LTP278	ltpFR2	19	16	SKY	-1	n/a	n/a	0	0	0
3332865	REST_REWET	n/a	LTP278	ltpFR2	19	16	n/a	n/a	n/a	n/a	0	0	0
3641978	WORD	wordpools/wasnorm_wordpool_576.txt	LTP278	ltpFR2	19	17	SWORD	1423	n/a	n/a	0	0	0
3644406	WORD	wordpools/wasnorm_wordpool_576.txt	LTP278	ltpFR2	19	17	SCISSORS	1250	n/a	n/a	0	0	0
3646920	WORD	wordpools/wasnorm_wordpool_576.txt	LTP278	ltpFR2	19	17	CATTLE	261	n/a	n/a	0	0	0
3649416	WORD	wordpools/wasnorm_wordpool_576.txt	LTP278	ltpFR2	19	17	THRONE	1461	n/a	n/a	0	0	0
3651980	WORD	wordpools/wasnorm_wordpool_576.txt	LTP278	ltpFR2	19	17	PALACE	1006	n/a	n/a	0	0	0
3654708	WORD	wordpools/wasnorm_wordpool_576.txt	LTP278	ltpFR2	19	17	GANGSTER	620	n/a	n/a	0	0	0
3657421	WORD	wordpools/wasnorm_wordpool_576.txt	LTP278	ltpFR2	19	17	POLICE	1098	n/a	n/a	0	0	0
3660068	WORD	wordpools/wasnorm_wordpool_576.txt	LTP278	ltpFR2	19	17	KEEPER	769	n/a	n/a	0	0	0
3662613	WORD	wordpools/wasnorm_wordpool_576.txt	LTP278	ltpFR2	19	17	HEART	697	n/a	n/a	0	0	0
3665176	WORD	wordpools/wasnorm_wordpool_576.txt	LTP278	ltpFR2	19	17	PIGEON	1065	n/a	n/a	0	0	0
3667606	WORD	wordpools/wasnorm_wordpool_576.txt	LTP278	ltpFR2	19	17	ROD	1203	n/a	n/a	0	0	0
3670202	WORD	wordpools/wasnorm_wordpool_576.txt	LTP278	ltpFR2	19	17	YARN	1631	n/a	n/a	0	0	0
3672748	WORD	wordpools/wasnorm_wordpool_576.txt	LTP278	ltpFR2	19	17	HATCHET	691	n/a	n/a	0	0	0
3675228	WORD	wordpools/wasnorm_wordpool_576.txt	LTP278	ltpFR2	19	17	IGLOO	734	n/a	n/a	0	0	0
3677975	WORD	wordpools/wasnorm_wordpool_576.txt	LTP278	ltpFR2	19	17	SPOUSE	1358	n/a	n/a	0	0	0
3680770	WORD	wordpools/wasnorm_wordpool_576.txt	LTP278	ltpFR2	19	17	YACHT	1629	n/a	n/a	0	0	0
3683199	WORD	wordpools/wasnorm_wordpool_576.txt	LTP278	ltpFR2	19	17	LAKE	796	n/a	n/a	0	0	0
3685762	WORD	wordpools/wasnorm_wordpool_576.txt	LTP278	ltpFR2	19	17	SPOOL	1356	n/a	n/a	0	0	0
3688259	WORD	wordpools/wasnorm_wordpool_576.txt	LTP278	ltpFR2	19	17	REPORT	1184	n/a	n/a	0	0	0
3690722	WORD	wordpools/wasnorm_wordpool_576.txt	LTP278	ltpFR2	19	17	HAND	683	n/a	n/a	0	0	0
3693284	WORD	wordpools/wasnorm_wordpool_576.txt	LTP278	ltpFR2	19	17	BULLET	194	n/a	n/a	0	0	0
3695965	WORD	wordpools/wasnorm_wordpool_576.txt	LTP278	ltpFR2	19	17	TERMITE	1451	n/a	n/a	0	0	0
3698543	WORD	wordpools/wasnorm_wordpool_576.txt	LTP278	ltpFR2	19	17	DORM	488	n/a	n/a	0	0	0
3701124	WORD	wordpools/wasnorm_wordpool_576.txt	LTP278	ltpFR2	19	17	BRICK	172	n/a	n/a	0	0	0
3702738	START	n/a	LTP278	ltpFR2	19	n/a	n/a	n/a	24	n/a	n/a	n/a	n/a
3703905	DISTRACTOR	n/a	LTP278	ltpFR2	19	17	n/a	n/a	n/a	n/a	0	0	0
3703920	PROB	n/a	LTP278	ltpFR2	19	n/a	n/a	n/a	24	12	8	1	3
3705350	PROB	n/a	LTP278	ltpFR2	19	n/a	n/a	n/a	24	11	1	9	1
3706548	PROB	n/a	LTP278	ltpFR2	19	n/a	n/a	n/a	24	20	9	4	7
3708312	PROB	n/a	LTP278	ltpFR2	19	n/a	n/a	n/a	24	12	7	2	3
3709544	PROB	n/a	LTP278	ltpFR2	19	n/a	n/a	n/a	24	8	4	2	1
3710860	PROB	n/a	LTP278	ltpFR2	19	n/a	n/a	n/a	24	15	4	2	9
3713140	PROB	n/a	LTP278	ltpFR2	19	n/a	n/a	n/a	24	14	4	8	2
3715219	PROB	n/a	LTP278	ltpFR2	19	n/a	n/a	n/a	24	10	3	6	1
3717134	PROB	n/a	LTP278	ltpFR2	19	n/a	n/a	n/a	24	6	3	1	1
3718414	PROB	n/a	LTP278	ltpFR2	19	n/a	n/a	n/a	24	14	2	6	6
3720345	PROB	n/a	LTP278	ltpFR2	19	n/a	n/a	n/a	24	19	2	8	9
3721826	PROB	n/a	LTP278	ltpFR2	19	n/a	n/a	n/a	24	16	9	5	1
3723290	PROB	n/a	LTP278	ltpFR2	19	n/a	n/a	n/a	24	13	7	5	1
3725411	STOP	n/a	LTP278	ltpFR2	19	n/a	n/a	n/a	24	n/a	n/a	n/a	n/a
3728666	REC_START	n/a	LTP278	ltpFR2	19	17	n/a	n/a	n/a	n/a	0	0	0
3729736	REC_WORD	wordpools/wasnorm_wordpool_576.txt	LTP278	ltpFR2	19	17	DORM	488	n/a	n/a	0	0	0
3730372	REC_WORD	wordpools/wasnorm_wordpool_576.txt	LTP278	ltpFR2	19	17	BULLET	194	n/a	n/a	0	0	0
3730940	REC_WORD	wordpools/wasnorm_wordpool_576.txt	LTP278	ltpFR2	19	17	TERMITE	1451	n/a	n/a	0	0	0
3748125	REC_WORD	wordpools/wasnorm_wordpool_576.txt	LTP278	ltpFR2	19	17	PIGEON	1065	n/a	n/a	0	0	0
3750635	REC_WORD	wordpools/wasnorm_wordpool_576.txt	LTP278	ltpFR2	19	17	PALACE	1006	n/a	n/a	0	0	0
3751284	REC_WORD	wordpools/wasnorm_wordpool_576.txt	LTP278	ltpFR2	19	17	COW	393	n/a	n/a	0	0	0
3751797	REC_WORD	wordpools/wasnorm_wordpool_576.txt	LTP278	ltpFR2	19	17	SWORD	1423	n/a	n/a	0	0	0
3753276	REC_WORD	wordpools/wasnorm_wordpool_576.txt	LTP278	ltpFR2	19	17	POLICE	1098	n/a	n/a	0	0	0
3754042	REC_WORD	wordpools/wasnorm_wordpool_576.txt	LTP278	ltpFR2	19	17	KEEPER	769	n/a	n/a	0	0	0
3754854	REC_WORD	wordpools/wasnorm_wordpool_576.txt	LTP278	ltpFR2	19	17	HEART	697	n/a	n/a	0	0	0
3756115	REC_WORD	wordpools/wasnorm_wordpool_576.txt	LTP278	ltpFR2	19	17	BRICK	172	n/a	n/a	0	0	0
3759200	REC_WORD	wordpools/wasnorm_wordpool_576.txt	LTP278	ltpFR2	19	17	SCISSORS	1250	n/a	n/a	0	0	0
3760571	REC_WORD	wordpools/wasnorm_wordpool_576.txt	LTP278	ltpFR2	19	17	THRONE	1461	n/a	n/a	0	0	0
3765198	REC_WORD	wordpools/wasnorm_wordpool_576.txt	LTP278	ltpFR2	19	17	CATTLE	261	n/a	n/a	0	0	0
3819349	DISTRACTOR	n/a	LTP278	ltpFR2	19	18	n/a	n/a	n/a	n/a	0	0	0
3819349	START	n/a	LTP278	ltpFR2	19	n/a	n/a	n/a	25	n/a	n/a	n/a	n/a
3819382	PROB	n/a	LTP278	ltpFR2	19	n/a	n/a	n/a	25	5	2	2	1
3821014	PROB	n/a	LTP278	ltpFR2	19	n/a	n/a	n/a	25	10	5	2	3
3823045	PROB	n/a	LTP278	ltpFR2	19	n/a	n/a	n/a	25	23	8	9	7
3826172	PROB	n/a	LTP278	ltpFR2	19	n/a	n/a	n/a	25	14	9	1	4
3829851	PROB	n/a	LTP278	ltpFR2	19	n/a	n/a	n/a	25	15	2	7	6
3833245	PROB	n/a	LTP278	ltpFR2	19	n/a	n/a	n/a	25	16	8	3	5
3834660	PROB	n/a	LTP278	ltpFR2	19	n/a	n/a	n/a	25	17	2	7	8
3837024	PROB	n/a	LTP278	ltpFR2	19	n/a	n/a	n/a	25	8	4	1	3
3843349	STOP	n/a	LTP278	ltpFR2	19	n/a	n/a	n/a	25	n/a	n/a	n/a	n/a
3844396	WORD	wordpools/wasnorm_wordpool_576.txt	LTP278	ltpFR2	19	18	SCOTCH	1251	n/a	n/a	0	0	0
3846993	WORD	wordpools/wasnorm_wordpool_576.txt	LTP278	ltpFR2	19	18	FLASK	576	n/a	n/a	0	0	0
3849621	WORD	wordpools/wasnorm_wordpool_576.txt	LTP278	ltpFR2	19	18	BODY	145	n/a	n/a	0	0	0
3852251	WORD	wordpools/wasnorm_wordpool_576.txt	LTP278	ltpFR2	19	18	SAUSAGE	1238	n/a	n/a	0	0	0
3854998	WORD	wordpools/wasnorm_wordpool_576.txt	LTP278	ltpFR2	19	18	FIREMAN	569	n/a	n/a	0	0	0
3857610	WORD	wordpools/wasnorm_wordpool_576.txt	LTP278	ltpFR2	19	18	LIGHTNING	820	n/a	n/a	0	0	0
3860172	WORD	wordpools/wasnorm_wordpool_576.txt	LTP278	ltpFR2	19	18	TART	1436	n/a	n/a	0	0	0
3862769	WORD	wordpools/wasnorm_wordpool_576.txt	LTP278	ltpFR2	19	18	CANDY	230	n/a	n/a	0	0	0
3865232	WORD	wordpools/wasnorm_wordpool_576.txt	LTP278	ltpFR2	19	18	EXPERT	543	n/a	n/a	0	0	0
3867811	WORD	wordpools/wasnorm_wordpool_576.txt	LTP278	ltpFR2	19	18	RIVER	1194	n/a	n/a	0	0	0
3870241	WORD	wordpools/wasnorm_wordpool_576.txt	LTP278	ltpFR2	19	18	SODA	1341	n/a	n/a	0	0	0
3872754	WORD	wordpools/wasnorm_wordpool_576.txt	LTP278	ltpFR2	19	18	FINGER	567	n/a	n/a	0	0	0
3875184	WORD	wordpools/wasnorm_wordpool_576.txt	LTP278	ltpFR2	19	18	LEG	809	n/a	n/a	0	0	0
3877897	WORD	wordpools/wasnorm_wordpool_576.txt	LTP278	ltpFR2	19	18	TROMBONE	1508	n/a	n/a	0	0	0
3880526	WORD	wordpools/wasnorm_wordpool_576.txt	LTP278	ltpFR2	19	18	MEAT	883	n/a	n/a	0	0	0
3883106	WORD	wordpools/wasnorm_wordpool_576.txt	LTP278	ltpFR2	19	18	GREASE	660	n/a	n/a	0	0	0
3885785	WORD	wordpools/wasnorm_wordpool_576.txt	LTP278	ltpFR2	19	18	WITNESS	1618	n/a	n/a	0	0	0
3888481	WORD	wordpools/wasnorm_wordpool_576.txt	LTP278	ltpFR2	19	18	CARRIAGE	248	n/a	n/a	0	0	0
3891227	WORD	wordpools/wasnorm_wordpool_576.txt	LTP278	ltpFR2	19	18	TABLE	1426	n/a	n/a	0	0	0
3894040	WORD	wordpools/wasnorm_wordpool_576.txt	LTP278	ltpFR2	19	18	PRINCESS	1125	n/a	n/a	0	0	0
3896536	WORD	wordpools/wasnorm_wordpool_576.txt	LTP278	ltpFR2	19	18	CRUTCH	417	n/a	n/a	0	0	0
3898983	WORD	wordpools/wasnorm_wordpool_576.txt	LTP278	ltpFR2	19	18	WHISTLE	1606	n/a	n/a	0	0	0
3901711	WORD	wordpools/wasnorm_wordpool_576.txt	LTP278	ltpFR2	19	18	BUGGY	188	n/a	n/a	0	0	0
3904391	WORD	wordpools/wasnorm_wordpool_576.txt	LTP278	ltpFR2	19	18	BLOCKADE	137	n/a	n/a	0	0	0
3906006	START	n/a	LTP278	ltpFR2	19	n/a	n/a	n/a	26	n/a	n/a	n/a	n/a
3906977	DISTRACTOR	n/a	LTP278	ltpFR2	19	18	n/a	n/a	n/a	n/a	0	0	0
3906988	PROB	n/a	LTP278	ltpFR2	19	n/a	n/a	n/a	26	13	5	1	7
3908568	PROB	n/a	LTP278	ltpFR2	19	n/a	n/a	n/a	26	16	5	5	6
3909850	PROB	n/a	LTP278	ltpFR2	19	n/a	n/a	n/a	26	16	4	9	3
3911547	PROB	n/a	LTP278	ltpFR2	19	n/a	n/a	n/a	26	1	2	8	3
3913046	PROB	n/a	LTP278	ltpFR2	19	n/a	n/a	n/a	26	11	4	6	1
3914576	PROB	n/a	LTP278	ltpFR2	19	n/a	n/a	n/a	26	6	3	2	1
3916008	PROB	n/a	LTP278	ltpFR2	19	n/a	n/a	n/a	26	19	2	9	8
3918154	PROB	n/a	LTP278	ltpFR2	19	n/a	n/a	n/a	26	18	7	7	4
3919735	PROB	n/a	LTP278	ltpFR2	19	n/a	n/a	n/a	26	19	9	2	8
3921832	PROB	n/a	LTP278	ltpFR2	19	n/a	n/a	n/a	26	12	3	6	3
3923613	PROB	n/a	LTP278	ltpFR2	19	n/a	n/a	n/a	26	16	6	1	9
3929392	STOP	n/a	LTP278	ltpFR2	19	n/a	n/a	n/a	26	n/a	n/a	n/a	n/a
3931952	REC_START	n/a	LTP278	ltpFR2	19	18	n/a	n/a	n/a	n/a	0	0	0
3938620	REC_WORD	wordpools/wasnorm_wordpool_576.txt	LTP278	ltpFR2	19	18	CARRIAGE	248	n/a	n/a	0	0	0
3939775	REC_WORD	wordpools/wasnorm_wordpool_576.txt	LTP278	ltpFR2	19	18	BUGGY	188	n/a	n/a	0	0	0
3940579	REC_WORD	wordpools/wasnorm_wordpool_576.txt	LTP278	ltpFR2	19	18	WHISTLE	1606	n/a	n/a	0	0	0
3941341	REC_WORD	wordpools/wasnorm_wordpool_576.txt	LTP278	ltpFR2	19	18	BLOCKADE	137	n/a	n/a	0	0	0
3962739	REC_WORD	wordpools/wasnorm_wordpool_576.txt	LTP278	ltpFR2	19	18	SCOTCH	1251	n/a	n/a	0	0	0
3963597	REC_WORD	wordpools/wasnorm_wordpool_576.txt	LTP278	ltpFR2	19	18	FLASK	576	n/a	n/a	0	0	0
3964641	REC_WORD	wordpools/wasnorm_wordpool_576.txt	LTP278	ltpFR2	19	18	BODY	145	n/a	n/a	0	0	0
4022667	WORD	wordpools/wasnorm_wordpool_576.txt	LTP278	ltpFR2	19	19	GRAVE	658	n/a	n/a	0	0	0
4025114	WORD	wordpools/wasnorm_wordpool_576.txt	LTP278	ltpFR2	19	19	CORAL	378	n/a	n/a	0	0	0
4027710	WORD	wordpools/wasnorm_wordpool_576.txt	LTP278	ltpFR2	19	19	MASK	876	n/a	n/a	0	0	0
4030472	WORD	wordpools/wasnorm_wordpool_576.txt	LTP278	ltpFR2	19	19	COCKTAIL	338	n/a	n/a	0	0	0
4033152	WORD	wordpools/wasnorm_wordpool_576.txt	LTP278	ltpFR2	19	19	ANTLER	29	n/a	n/a	0	0	0
4035814	WORD	wordpools/wasnorm_wordpool_576.txt	LTP278	ltpFR2	19	19	SHIRT	1287	n/a	n/a	0	0	0
4038560	WORD	wordpools/wasnorm_wordpool_576.txt	LTP278	ltpFR2	19	19	NURSE	963	n/a	n/a	0	0	0
4041190	WORD	wordpools/wasnorm_wordpool_576.txt	LTP278	ltpFR2	19	19	JOURNAL	760	n/a	n/a	0	0	0
4043819	WORD	wordpools/wasnorm_wordpool_576.txt	LTP278	ltpFR2	19	19	STAPLE	1371	n/a	n/a	0	0	0
4046465	WORD	wordpools/wasnorm_wordpool_576.txt	LTP278	ltpFR2	19	19	CANAL	226	n/a	n/a	0	0	0
4049029	WORD	wordpools/wasnorm_wordpool_576.txt	LTP278	ltpFR2	19	19	SCALPEL	1243	n/a	n/a	0	0	0
4051774	WORD	wordpools/wasnorm_wordpool_576.txt	LTP278	ltpFR2	19	19	CRITIC	410	n/a	n/a	0	0	0
4054570	WORD	wordpools/wasnorm_wordpool_576.txt	LTP278	ltpFR2	19	19	GOBLIN	645	n/a	n/a	0	0	0
4057150	WORD	wordpools/wasnorm_wordpool_576.txt	LTP278	ltpFR2	19	19	WIDOW	1608	n/a	n/a	0	0	0
4059696	WORD	wordpools/wasnorm_wordpool_576.txt	LTP278	ltpFR2	19	19	VENUS	1557	n/a	n/a	0	0	0
4062508	WORD	wordpools/wasnorm_wordpool_576.txt	LTP278	ltpFR2	19	19	GLOBE	641	n/a	n/a	0	0	0
4065139	WORD	wordpools/wasnorm_wordpool_576.txt	LTP278	ltpFR2	19	19	VIKING	1565	n/a	n/a	0	0	0
4067918	WORD	wordpools/wasnorm_wordpool_576.txt	LTP278	ltpFR2	19	19	MARKET	871	n/a	n/a	0	0	0
4070646	WORD	wordpools/wasnorm_wordpool_576.txt	LTP278	ltpFR2	19	19	CAFE	216	n/a	n/a	0	0	0
4073209	WORD	wordpools/wasnorm_wordpool_576.txt	LTP278	ltpFR2	19	19	TEMPLE	1448	n/a	n/a	0	0	0
4076023	WORD	wordpools/wasnorm_wordpool_576.txt	LTP278	ltpFR2	19	19	RIFLE	1192	n/a	n/a	0	0	0
4078768	WORD	wordpools/wasnorm_wordpool_576.txt	LTP278	ltpFR2	19	19	SPOON	1357	n/a	n/a	0	0	0
4081331	WORD	wordpools/wasnorm_wordpool_576.txt	LTP278	ltpFR2	19	19	KNIFE	785	n/a	n/a	0	0	0
4083961	WORD	wordpools/wasnorm_wordpool_576.txt	LTP278	ltpFR2	19	19	LAVA	804	n/a	n/a	0	0	0
4085575	START	n/a	LTP278	ltpFR2	19	n/a	n/a	n/a	27	n/a	n/a	n/a	n/a
4086375	DISTRACTOR	n/a	LTP278	ltpFR2	19	19	n/a	n/a	n/a	n/a	0	0	0
4086390	PROB	n/a	LTP278	ltpFR2	19	n/a	n/a	n/a	27	9	1	6	2
4087821	PROB	n/a	LTP278	ltpFR2	19	n/a	n/a	n/a	27	19	3	9	7
4089952	PROB	n/a	LTP278	ltpFR2	19	n/a	n/a	n/a	27	9	2	4	3
4092797	PROB	n/a	LTP278	ltpFR2	19	n/a	n/a	n/a	27	15	5	3	9
4096409	PROB	n/a	LTP278	ltpFR2	19	n/a	n/a	n/a	27	14	1	5	8
4098007	PROB	n/a	LTP278	ltpFR2	19	n/a	n/a	n/a	27	20	7	4	9
4101767	PROB	n/a	LTP278	ltpFR2	19	n/a	n/a	n/a	27	20	6	9	5
4104264	PROB	n/a	LTP278	ltpFR2	19	n/a	n/a	n/a	27	17	6	8	3
4109572	STOP	n/a	LTP278	ltpFR2	19	n/a	n/a	n/a	27	n/a	n/a	n/a	n/a
4111420	REC_START	n/a	LTP278	ltpFR2	19	19	n/a	n/a	n/a	n/a	0	0	0
4112672	REC_WORD	wordpools/wasnorm_wordpool_576.txt	LTP278	ltpFR2	19	19	VENUS	1557	n/a	n/a	0	0	0
4113391	REC_WORD	wordpools/wasnorm_wordpool_576.txt	LTP278	ltpFR2	19	19	KNIFE	785	n/a	n/a	0	0	0
4114053	REC_WORD	wordpools/wasnorm_wordpool_576.txt	LTP278	ltpFR2	19	19	SPOON	1357	n/a	n/a	0	0	0
4116194	REC_WORD	wordpools/wasnorm_wordpool_576.txt	LTP278	ltpFR2	19	19	TEMPLE	1448	n/a	n/a	0	0	0
4116819	REC_WORD	wordpools/wasnorm_wordpool_576.txt	LTP278	ltpFR2	19	19	MARKET	871	n/a	n/a	0	0	0
4202087	DISTRACTOR	n/a	LTP278	ltpFR2	19	20	n/a	n/a	n/a	n/a	0	0	0
4202088	START	n/a	LTP278	ltpFR2	19	n/a	n/a	n/a	28	n/a	n/a	n/a	n/a
4202121	PROB	n/a	LTP278	ltpFR2	19	n/a	n/a	n/a	28	14	2	3	9
4205332	PROB	n/a	LTP278	ltpFR2	19	n/a	n/a	n/a	28	13	2	3	9
4207395	PROB	n/a	LTP278	ltpFR2	19	n/a	n/a	n/a	28	21	8	7	6
4209642	PROB	n/a	LTP278	ltpFR2	19	n/a	n/a	n/a	28	10	7	2	1
4210958	PROB	n/a	LTP278	ltpFR2	19	n/a	n/a	n/a	28	3	6	5	2
4213121	PROB	n/a	LTP278	ltpFR2	19	n/a	n/a	n/a	28	20	6	7	7
4215234	PROB	n/a	LTP278	ltpFR2	19	n/a	n/a	n/a	28	14	4	2	8
4217797	PROB	n/a	LTP278	ltpFR2	19	n/a	n/a	n/a	28	7	3	2	2
4220692	PROB	n/a	LTP278	ltpFR2	19	n/a	n/a	n/a	28	17	7	3	7
4222590	PROB	n/a	LTP278	ltpFR2	19	n/a	n/a	n/a	28	9	1	5	3
4226088	STOP	n/a	LTP278	ltpFR2	19	n/a	n/a	n/a	28	n/a	n/a	n/a	n/a
4226968	WORD	wordpools/wasnorm_wordpool_576.txt	LTP278	ltpFR2	19	20	SPARROW	1347	n/a	n/a	0	0	0
4229396	WORD	wordpools/wasnorm_wordpool_576.txt	LTP278	ltpFR2	19	20	STREAM	1392	n/a	n/a	0	0	0
4231877	WORD	wordpools/wasnorm_wordpool_576.txt	LTP278	ltpFR2	19	20	BUCKET	184	n/a	n/a	0	0	0
4234672	WORD	wordpools/wasnorm_wordpool_576.txt	LTP278	ltpFR2	19	20	COLONEL	348	n/a	n/a	0	0	0
4237301	WORD	wordpools/wasnorm_wordpool_576.txt	LTP278	ltpFR2	19	20	COD	340	n/a	n/a	0	0	0
4239998	WORD	wordpools/wasnorm_wordpool_576.txt	LTP278	ltpFR2	19	20	SCRIBBLE	1256	n/a	n/a	0	0	0
4242610	WORD	wordpools/wasnorm_wordpool_576.txt	LTP278	ltpFR2	19	20	MILDEW	893	n/a	n/a	0	0	0
4245356	WORD	wordpools/wasnorm_wordpool_576.txt	LTP278	ltpFR2	19	20	ORANGE	980	n/a	n/a	0	0	0
4247920	WORD	wordpools/wasnorm_wordpool_576.txt	LTP278	ltpFR2	19	20	HOOD	714	n/a	n/a	0	0	0
4250366	WORD	wordpools/wasnorm_wordpool_576.txt	LTP278	ltpFR2	19	20	DRINK	498	n/a	n/a	0	0	0
4253079	WORD	wordpools/wasnorm_wordpool_576.txt	LTP278	ltpFR2	19	20	DONOR	485	n/a	n/a	0	0	0
4255724	WORD	wordpools/wasnorm_wordpool_576.txt	LTP278	ltpFR2	19	20	LABEL	790	n/a	n/a	0	0	0
4258171	WORD	wordpools/wasnorm_wordpool_576.txt	LTP278	ltpFR2	19	20	PISTON	1076	n/a	n/a	0	0	0
4260617	WORD	wordpools/wasnorm_wordpool_576.txt	LTP278	ltpFR2	19	20	CLOUD	328	n/a	n/a	0	0	0
4263313	WORD	wordpools/wasnorm_wordpool_576.txt	LTP278	ltpFR2	19	20	LAGOON	795	n/a	n/a	0	0	0
4265844	WORD	wordpools/wasnorm_wordpool_576.txt	LTP278	ltpFR2	19	20	CHAMPAGNE	278	n/a	n/a	0	0	0
4268622	WORD	wordpools/wasnorm_wordpool_576.txt	LTP278	ltpFR2	19	20	PISTOL	1075	n/a	n/a	0	0	0
4271168	WORD	wordpools/wasnorm_wordpool_576.txt	LTP278	ltpFR2	19	20	MARS	873	n/a	n/a	0	0	0
4273715	WORD	wordpools/wasnorm_wordpool_576.txt	LTP278	ltpFR2	19	20	PLUTO	1092	n/a	n/a	0	0	0
4276277	WORD	wordpools/wasnorm_wordpool_576.txt	LTP278	ltpFR2	19	20	LOFT	840	n/a	n/a	0	0	0
4278841	WORD	wordpools/wasnorm_wordpool_576.txt	LTP278	ltpFR2	19	20	INMATE	738	n/a	n/a	0	0	0
4281553	WORD	wordpools/wasnorm_wordpool_576.txt	LTP278	ltpFR2	19	20	OUTLAW	989	n/a	n/a	0	0	0
4284134	WORD	wordpools/wasnorm_wordpool_576.txt	LTP278	ltpFR2	19	20	FOOT	590	n/a	n/a	0	0	0
4286729	WORD	wordpools/wasnorm_wordpool_576.txt	LTP278	ltpFR2	19	20	RAFT	1159	n/a	n/a	0	0	0
4288343	START	n/a	LTP278	ltpFR2	19	n/a	n/a	n/a	29	n/a	n/a	n/a	n/a
4289287	DISTRACTOR	n/a	LTP278	ltpFR2	19	20	n/a	n/a	n/a	n/a	0	0	0
4289292	PROB	n/a	LTP278	ltpFR2	19	n/a	n/a	n/a	29	12	8	1	2
4291090	PROB	n/a	LTP278	ltpFR2	19	n/a	n/a	n/a	29	18	7	9	2
4293886	PROB	n/a	LTP278	ltpFR2	19	n/a	n/a	n/a	29	18	6	8	4
4296181	PROB	n/a	LTP278	ltpFR2	19	n/a	n/a	n/a	29	20	9	7	4
4300309	PROB	n/a	LTP278	ltpFR2	19	n/a	n/a	n/a	29	19	3	7	9
4305734	PROB	n/a	LTP278	ltpFR2	19	n/a	n/a	n/a	29	14	8	8	2
4308280	PROB	n/a	LTP278	ltpFR2	19	n/a	n/a	n/a	29	17	7	4	6
4311768	STOP	n/a	LTP278	ltpFR2	19	n/a	n/a	n/a	29	n/a	n/a	n/a	n/a
4314206	REC_START	n/a	LTP278	ltpFR2	19	20	n/a	n/a	n/a	n/a	0	0	0
4389201	REC_WORD_VV	wordpools/wasnorm_wordpool_576.txt	LTP278	ltpFR2	19	20	<>	-1	n/a	n/a	0	0	0
4404839	DISTRACTOR	n/a	LTP278	ltpFR2	19	21	n/a	n/a	n/a	n/a	0	0	0
4404840	START	n/a	LTP278	ltpFR2	19	n/a	n/a	n/a	30	n/a	n/a	n/a	n/a
4404873	PROB	n/a	LTP278	ltpFR2	19	n/a	n/a	n/a	30	15	4	5	6
4406920	PROB	n/a	LTP278	ltpFR2	19	n/a	n/a	n/a	30	18	2	8	8
4408716	PROB	n/a	LTP278	ltpFR2	19	n/a	n/a	n/a	30	15	3	4	9
4410563	PROB	n/a	LTP278	ltpFR2	19	n/a	n/a	n/a	30	15	5	9	1
4412844	PROB	n/a	LTP278	ltpFR2	19	n/a	n/a	n/a	30	9	4	1	4
4415340	PROB	n/a	LTP278	ltpFR2	19	n/a	n/a	n/a	30	16	3	8	5
4417937	PROB	n/a	LTP278	ltpFR2	19	n/a	n/a	n/a	30	12	4	5	3
4419934	PROB	n/a	LTP278	ltpFR2	19	n/a	n/a	n/a	30	14	5	5	4
4421530	PROB	n/a	LTP278	ltpFR2	19	n/a	n/a	n/a	30	10	3	4	3
4423311	PROB	n/a	LTP278	ltpFR2	19	n/a	n/a	n/a	30	12	9	2	1
4428839	STOP	n/a	LTP278	ltpFR2	19	n/a	n/a	n/a	30	n/a	n/a	n/a	n/a
4430036	WORD	wordpools/wasnorm_wordpool_576.txt	LTP278	ltpFR2	19	21	OMELET	976	n/a	n/a	0	0	0
4432598	WORD	wordpools/wasnorm_wordpool_576.txt	LTP278	ltpFR2	19	21	AIRPLANE	12	n/a	n/a	0	0	0
4435327	WORD	wordpools/wasnorm_wordpool_576.txt	LTP278	ltpFR2	19	21	CUSTARD	429	n/a	n/a	0	0	0
4437857	WORD	wordpools/wasnorm_wordpool_576.txt	LTP278	ltpFR2	19	21	HORSE	719	n/a	n/a	0	0	0
4440469	WORD	wordpools/wasnorm_wordpool_576.txt	LTP278	ltpFR2	19	21	SADDLE	1221	n/a	n/a	0	0	0
4443165	WORD	wordpools/wasnorm_wordpool_576.txt	LTP278	ltpFR2	19	21	BACKBONE	66	n/a	n/a	0	0	0
4445695	WORD	wordpools/wasnorm_wordpool_576.txt	LTP278	ltpFR2	19	21	CABIN	211	n/a	n/a	0	0	0
4448258	WORD	wordpools/wasnorm_wordpool_576.txt	LTP278	ltpFR2	19	21	LACE	792	n/a	n/a	0	0	0
4451005	WORD	wordpools/wasnorm_wordpool_576.txt	LTP278	ltpFR2	19	21	COTTAGE	384	n/a	n/a	0	0	0
4453550	WORD	wordpools/wasnorm_wordpool_576.txt	LTP278	ltpFR2	19	21	CRAYON	401	n/a	n/a	0	0	0
4456047	WORD	wordpools/wasnorm_wordpool_576.txt	LTP278	ltpFR2	19	21	FEMALE	559	n/a	n/a	0	0	0
4458759	WORD	wordpools/wasnorm_wordpool_576.txt	LTP278	ltpFR2	19	21	WOMAN	1620	n/a	n/a	0	0	0
4461405	WORD	wordpools/wasnorm_wordpool_576.txt	LTP278	ltpFR2	19	21	BACON	67	n/a	n/a	0	0	0
4464119	WORD	wordpools/wasnorm_wordpool_576.txt	LTP278	ltpFR2	19	21	FRAME	600	n/a	n/a	0	0	0
4466714	WORD	wordpools/wasnorm_wordpool_576.txt	LTP278	ltpFR2	19	21	ACTOR	5	n/a	n/a	0	0	0
4469160	WORD	wordpools/wasnorm_wordpool_576.txt	LTP278	ltpFR2	19	21	JUGGLER	763	n/a	n/a	0	0	0
4471891	WORD	wordpools/wasnorm_wordpool_576.txt	LTP278	ltpFR2	19	21	ARMY	39	n/a	n/a	0	0	0
4474353	WORD	wordpools/wasnorm_wordpool_576.txt	LTP278	ltpFR2	19	21	BLUEPRINT	142	n/a	n/a	0	0	0
4476799	WORD	wordpools/wasnorm_wordpool_576.txt	LTP278	ltpFR2	19	21	SHERIFF	1284	n/a	n/a	0	0	0
4479279	WORD	wordpools/wasnorm_wordpool_576.txt	LTP278	ltpFR2	19	21	STAR	1373	n/a	n/a	0	0	0
4481775	WORD	wordpools/wasnorm_wordpool_576.txt	LTP278	ltpFR2	19	21	FOREST	593	n/a	n/a	0	0	0
4484421	WORD	wordpools/wasnorm_wordpool_576.txt	LTP278	ltpFR2	19	21	BELLY	119	n/a	n/a	0	0	0
4486969	WORD	wordpools/wasnorm_wordpool_576.txt	LTP278	ltpFR2	19	21	HOOK	715	n/a	n/a	0	0	0
4489481	WORD	wordpools/wasnorm_wordpool_576.txt	LTP278	ltpFR2	19	21	WINDOW	1611	n/a	n/a	0	0	0
4491096	START	n/a	LTP278	ltpFR2	19	n/a	n/a	n/a	31	n/a	n/a	n/a	n/a
4492072	DISTRACTOR	n/a	LTP278	ltpFR2	19	21	n/a	n/a	n/a	n/a	0	0	0
4492078	PROB	n/a	LTP278	ltpFR2	19	n/a	n/a	n/a	31	18	7	8	3
4493774	PROB	n/a	LTP278	ltpFR2	19	n/a	n/a	n/a	31	14	6	6	2
4495255	PROB	n/a	LTP278	ltpFR2	19	n/a	n/a	n/a	31	14	3	2	9
4497386	PROB	n/a	LTP278	ltpFR2	19	n/a	n/a	n/a	31	15	8	3	4
4498817	PROB	n/a	LTP278	ltpFR2	19	n/a	n/a	n/a	31	6	1	4	1
4503161	PROB	n/a	LTP278	ltpFR2	19	n/a	n/a	n/a	31	19	4	8	7
4505391	PROB	n/a	LTP278	ltpFR2	19	n/a	n/a	n/a	31	25	8	9	8
4508253	PROB	n/a	LTP278	ltpFR2	19	n/a	n/a	n/a	31	18	7	3	8
4509718	PROB	n/a	LTP278	ltpFR2	19	n/a	n/a	n/a	31	15	3	7	5
4512015	PROB	n/a	LTP278	ltpFR2	19	n/a	n/a	n/a	31	17	8	5	4
4514126	STOP	n/a	LTP278	ltpFR2	19	n/a	n/a	n/a	31	n/a	n/a	n/a	n/a
4517008	REC_START	n/a	LTP278	ltpFR2	19	21	n/a	n/a	n/a	n/a	0	0	0
4517492	REC_WORD	wordpools/wasnorm_wordpool_576.txt	LTP278	ltpFR2	19	21	WOMAN	1620	n/a	n/a	0	0	0
4518296	REC_WORD	wordpools/wasnorm_wordpool_576.txt	LTP278	ltpFR2	19	21	FEMALE	559	n/a	n/a	0	0	0
4519337	REC_WORD	wordpools/wasnorm_wordpool_576.txt	LTP278	ltpFR2	19	21	CRAYON	401	n/a	n/a	0	0	0
4520506	REC_WORD	wordpools/wasnorm_wordpool_576.txt	LTP278	ltpFR2	19	21	BACON	67	n/a	n/a	0	0	0
4521290	REC_WORD	wordpools/wasnorm_wordpool_576.txt	LTP278	ltpFR2	19	21	FRAME	600	n/a	n/a	0	0	0
4607657	DISTRACTOR	n/a	LTP278	ltpFR2	19	22	n/a	n/a	n/a	n/a	0	0	0
4607657	START	n/a	LTP278	ltpFR2	19	n/a	n/a	n/a	32	n/a	n/a	n/a	n/a
4607690	PROB	n/a	LTP278	ltpFR2	19	n/a	n/a	n/a	32	15	9	1	5
4612850	PROB	n/a	LTP278	ltpFR2	19	n/a	n/a	n/a	32	13	2	9	2
4615146	PROB	n/a	LTP278	ltpFR2	19	n/a	n/a	n/a	32	8	4	2	2
4616411	PROB	n/a	LTP278	ltpFR2	19	n/a	n/a	n/a	32	11	2	4	5
4618391	PROB	n/a	LTP278	ltpFR2	19	n/a	n/a	n/a	32	16	8	6	2
4620090	PROB	n/a	LTP278	ltpFR2	19	n/a	n/a	n/a	32	18	8	9	1
4622768	PROB	n/a	LTP278	ltpFR2	19	n/a	n/a	n/a	32	11	3	7	1
4624382	PROB	n/a	LTP278	ltpFR2	19	n/a	n/a	n/a	32	13	1	5	7
4626446	PROB	n/a	LTP278	ltpFR2	19	n/a	n/a	n/a	32	13	5	4	4
4628094	PROB	n/a	LTP278	ltpFR2	19	n/a	n/a	n/a	32	17	8	1	8
4631384	STOP	n/a	LTP278	ltpFR2	19	n/a	n/a	n/a	32	n/a	n/a	n/a	n/a
4632620	WORD	wordpools/wasnorm_wordpool_576.txt	LTP278	ltpFR2	19	22	ITEM	746	n/a	n/a	0	0	0
4635118	WORD	wordpools/wasnorm_wordpool_576.txt	LTP278	ltpFR2	19	22	HUMAN	726	n/a	n/a	0	0	0
4637813	WORD	wordpools/wasnorm_wordpool_576.txt	LTP278	ltpFR2	19	22	LEOPARD	812	n/a	n/a	0	0	0
4640475	WORD	wordpools/wasnorm_wordpool_576.txt	LTP278	ltpFR2	19	22	MUSTARD	935	n/a	n/a	0	0	0
4643139	WORD	wordpools/wasnorm_wordpool_576.txt	LTP278	ltpFR2	19	22	RELISH	1183	n/a	n/a	0	0	0
4645885	WORD	wordpools/wasnorm_wordpool_576.txt	LTP278	ltpFR2	19	22	WAITRESS	1581	n/a	n/a	0	0	0
4648580	WORD	wordpools/wasnorm_wordpool_576.txt	LTP278	ltpFR2	19	22	SALAD	1224	n/a	n/a	0	0	0
4651326	WORD	wordpools/wasnorm_wordpool_576.txt	LTP278	ltpFR2	19	22	VAGRANT	1544	n/a	n/a	0	0	0
4654006	WORD	wordpools/wasnorm_wordpool_576.txt	LTP278	ltpFR2	19	22	CANYON	235	n/a	n/a	0	0	0
4656818	WORD	wordpools/wasnorm_wordpool_576.txt	LTP278	ltpFR2	19	22	SERVANT	1271	n/a	n/a	0	0	0
4659564	WORD	wordpools/wasnorm_wordpool_576.txt	LTP278	ltpFR2	19	22	SILK	1307	n/a	n/a	0	0	0
4662193	WORD	wordpools/wasnorm_wordpool_576.txt	LTP278	ltpFR2	19	22	SCARF	1246	n/a	n/a	0	0	0
4664740	WORD	wordpools/wasnorm_wordpool_576.txt	LTP278	ltpFR2	19	22	GYMNAST	675	n/a	n/a	0	0	0
4667336	WORD	wordpools/wasnorm_wordpool_576.txt	LTP278	ltpFR2	19	22	OUTDOORS	987	n/a	n/a	0	0	0
4669916	WORD	wordpools/wasnorm_wordpool_576.txt	LTP278	ltpFR2	19	22	EGYPT	519	n/a	n/a	0	0	0
4672728	WORD	wordpools/wasnorm_wordpool_576.txt	LTP278	ltpFR2	19	22	MARINE	869	n/a	n/a	0	0	0
4675291	WORD	wordpools/wasnorm_wordpool_576.txt	LTP278	ltpFR2	19	22	BASEMENT	94	n/a	n/a	0	0	0
4677888	WORD	wordpools/wasnorm_wordpool_576.txt	LTP278	ltpFR2	19	22	SHORTS	1293	n/a	n/a	0	0	0
4680500	WORD	wordpools/wasnorm_wordpool_576.txt	LTP278	ltpFR2	19	22	LAPEL	800	n/a	n/a	0	0	0
4683014	WORD	wordpools/wasnorm_wordpool_576.txt	LTP278	ltpFR2	19	22	STICKER	1382	n/a	n/a	0	0	0
4685509	WORD	wordpools/wasnorm_wordpool_576.txt	LTP278	ltpFR2	19	22	PICTURE	1061	n/a	n/a	0	0	0
4688056	WORD	wordpools/wasnorm_wordpool_576.txt	LTP278	ltpFR2	19	22	SPHINX	1349	n/a	n/a	0	0	0
4690735	WORD	wordpools/wasnorm_wordpool_576.txt	LTP278	ltpFR2	19	22	PASTA	1021	n/a	n/a	0	0	0
4693414	WORD	wordpools/wasnorm_wordpool_576.txt	LTP278	ltpFR2	19	22	VALLEY	1545	n/a	n/a	0	0	0
4695030	START	n/a	LTP278	ltpFR2	19	n/a	n/a	n/a	33	n/a	n/a	n/a	n/a
4695886	DISTRACTOR	n/a	LTP278	ltpFR2	19	22	n/a	n/a	n/a	n/a	0	0	0
4695895	PROB	n/a	LTP278	ltpFR2	19	n/a	n/a	n/a	33	17	3	9	5
4697859	PROB	n/a	LTP278	ltpFR2	19	n/a	n/a	n/a	33	1	3	5	4
4701486	PROB	n/a	LTP278	ltpFR2	19	n/a	n/a	n/a	33	19	8	7	4
4703383	PROB	n/a	LTP278	ltpFR2	19	n/a	n/a	n/a	33	24	9	7	8
4707028	PROB	n/a	LTP278	ltpFR2	19	n/a	n/a	n/a	33	15	8	6	1
4710422	PROB	n/a	LTP278	ltpFR2	19	n/a	n/a	n/a	33	16	7	7	2
4711921	PROB	n/a	LTP278	ltpFR2	19	n/a	n/a	n/a	33	16	6	7	3
4713668	PROB	n/a	LTP278	ltpFR2	19	n/a	n/a	n/a	33	20	7	9	4
4715882	PROB	n/a	LTP278	ltpFR2	19	n/a	n/a	n/a	33	12	1	3	8
4719030	STOP	n/a	LTP278	ltpFR2	19	n/a	n/a	n/a	33	n/a	n/a	n/a	n/a
4720808	REC_START	n/a	LTP278	ltpFR2	19	22	n/a	n/a	n/a	n/a	0	0	0
4721502	REC_WORD	wordpools/wasnorm_wordpool_576.txt	LTP278	ltpFR2	19	22	MARINE	869	n/a	n/a	0	0	0
4722199	REC_WORD	wordpools/wasnorm_wordpool_576.txt	LTP278	ltpFR2	19	22	BASEMENT	94	n/a	n/a	0	0	0
4722660	REC_WORD	wordpools/wasnorm_wordpool_576.txt	LTP278	ltpFR2	19	22	SHORTS	1293	n/a	n/a	0	0	0
4723151	REC_WORD	wordpools/wasnorm_wordpool_576.txt	LTP278	ltpFR2	19	22	LAPEL	800	n/a	n/a	0	0	0
4723662	REC_WORD	wordpools/wasnorm_wordpool_576.txt	LTP278	ltpFR2	19	22	STICKER	1382	n/a	n/a	0	0	0
4811491	WORD	wordpools/wasnorm_wordpool_576.txt	LTP278	ltpFR2	19	23	CONTRACT	368	n/a	n/a	0	0	0
4814138	WORD	wordpools/wasnorm_wordpool_576.txt	LTP278	ltpFR2	19	23	JAPAN	749	n/a	n/a	0	0	0
4816917	WORD	wordpools/wasnorm_wordpool_576.txt	LTP278	ltpFR2	19	23	RABBIT	1152	n/a	n/a	0	0	0
4819612	WORD	wordpools/wasnorm_wordpool_576.txt	LTP278	ltpFR2	19	23	TORTOISE	1486	n/a	n/a	0	0	0
4822391	WORD	wordpools/wasnorm_wordpool_576.txt	LTP278	ltpFR2	19	23	SCALLOP	1242	n/a	n/a	0	0	0
4825170	WORD	wordpools/wasnorm_wordpool_576.txt	LTP278	ltpFR2	19	23	FLOWER	584	n/a	n/a	0	0	0
4827617	WORD	wordpools/wasnorm_wordpool_576.txt	LTP278	ltpFR2	19	23	DRAGON	492	n/a	n/a	0	0	0
4830280	WORD	wordpools/wasnorm_wordpool_576.txt	LTP278	ltpFR2	19	23	MARROW	872	n/a	n/a	0	0	0
4832860	WORD	wordpools/wasnorm_wordpool_576.txt	LTP278	ltpFR2	19	23	STAMP	1370	n/a	n/a	0	0	0
4835605	WORD	wordpools/wasnorm_wordpool_576.txt	LTP278	ltpFR2	19	23	MONSTER	912	n/a	n/a	0	0	0
4838086	WORD	wordpools/wasnorm_wordpool_576.txt	LTP278	ltpFR2	19	23	DRILL	497	n/a	n/a	0	0	0
4840748	WORD	wordpools/wasnorm_wordpool_576.txt	LTP278	ltpFR2	19	23	BEAVER	109	n/a	n/a	0	0	0
4843477	WORD	wordpools/wasnorm_wordpool_576.txt	LTP278	ltpFR2	19	23	BOARD	143	n/a	n/a	0	0	0
4846289	WORD	wordpools/wasnorm_wordpool_576.txt	LTP278	ltpFR2	19	23	CRATER	400	n/a	n/a	0	0	0
4848752	WORD	wordpools/wasnorm_wordpool_576.txt	LTP278	ltpFR2	19	23	SHELF	1280	n/a	n/a	0	0	0
4851249	WORD	wordpools/wasnorm_wordpool_576.txt	LTP278	ltpFR2	19	23	AUTHOR	61	n/a	n/a	0	0	0
4853812	WORD	wordpools/wasnorm_wordpool_576.txt	LTP278	ltpFR2	19	23	APRON	35	n/a	n/a	0	0	0
4856524	WORD	wordpools/wasnorm_wordpool_576.txt	LTP278	ltpFR2	19	23	SHARK	1275	n/a	n/a	0	0	0
4859287	WORD	wordpools/wasnorm_wordpool_576.txt	LTP278	ltpFR2	19	23	HEDGE	699	n/a	n/a	0	0	0
4862001	WORD	wordpools/wasnorm_wordpool_576.txt	LTP278	ltpFR2	19	23	BLENDER	136	n/a	n/a	0	0	0
4864429	WORD	wordpools/wasnorm_wordpool_576.txt	LTP278	ltpFR2	19	23	FLESH	579	n/a	n/a	0	0	0
4866893	WORD	wordpools/wasnorm_wordpool_576.txt	LTP278	ltpFR2	19	23	MAILMAN	858	n/a	n/a	0	0	0
4869672	WORD	wordpools/wasnorm_wordpool_576.txt	LTP278	ltpFR2	19	23	HOSTESS	723	n/a	n/a	0	0	0
4872501	WORD	wordpools/wasnorm_wordpool_576.txt	LTP278	ltpFR2	19	23	CLAM	315	n/a	n/a	0	0	0
4874116	START	n/a	LTP278	ltpFR2	19	n/a	n/a	n/a	34	n/a	n/a	n/a	n/a
4875259	DISTRACTOR	n/a	LTP278	ltpFR2	19	23	n/a	n/a	n/a	n/a	0	0	0
4875263	PROB	n/a	LTP278	ltpFR2	19	n/a	n/a	n/a	34	16	8	2	6
4876945	PROB	n/a	LTP278	ltpFR2	19	n/a	n/a	n/a	34	17	8	8	1
4878442	PROB	n/a	LTP278	ltpFR2	19	n/a	n/a	n/a	34	6	2	3	1
4880622	PROB	n/a	LTP278	ltpFR2	19	n/a	n/a	n/a	34	85	3	1	4
4882038	PROB	n/a	LTP278	ltpFR2	19	n/a	n/a	n/a	34	13	3	7	3
4884085	PROB	n/a	LTP278	ltpFR2	19	n/a	n/a	n/a	34	13	8	2	3
4885598	PROB	n/a	LTP278	ltpFR2	19	n/a	n/a	n/a	34	23	9	7	7
4888810	PROB	n/a	LTP278	ltpFR2	19	n/a	n/a	n/a	34	15	1	7	7
4890258	PROB	n/a	LTP278	ltpFR2	19	n/a	n/a	n/a	34	19	7	7	5
4892738	PROB	n/a	LTP278	ltpFR2	19	n/a	n/a	n/a	34	18	7	2	9
4898116	STOP	n/a	LTP278	ltpFR2	19	n/a	n/a	n/a	34	n/a	n/a	n/a	n/a
4899879	REC_START	n/a	LTP278	ltpFR2	19	23	n/a	n/a	n/a	n/a	0	0	0
4908499	REC_WORD	wordpools/wasnorm_wordpool_576.txt	LTP278	ltpFR2	19	23	CONTRACT	368	n/a	n/a	0	0	0
4909304	REC_WORD	wordpools/wasnorm_wordpool_576.txt	LTP278	ltpFR2	19	23	BUNNY	198	n/a	n/a	0	0	0
4909704	REC_WORD	wordpools/wasnorm_wordpool_576.txt	LTP278	ltpFR2	19	23	TORTOISE	1486	n/a	n/a	0	0	0
4910164	REC_WORD	wordpools/wasnorm_wordpool_576.txt	LTP278	ltpFR2	19	23	SCALLOP	1242	n/a	n/a	0	0	0
4910913	REC_WORD	wordpools/wasnorm_wordpool_576.txt	LTP278	ltpFR2	19	23	FLOWER	584	n/a	n/a	0	0	0
4912495	REC_WORD	wordpools/wasnorm_wordpool_576.txt	LTP278	ltpFR2	19	23	MONSTER	912	n/a	n/a	0	0	0
4913265	REC_WORD	wordpools/wasnorm_wordpool_576.txt	LTP278	ltpFR2	19	23	DRILL	497	n/a	n/a	0	0	0
4914674	REC_WORD	wordpools/wasnorm_wordpool_576.txt	LTP278	ltpFR2	19	23	DRAGON	492	n/a	n/a	0	0	0
4915385	REC_WORD	wordpools/wasnorm_wordpool_576.txt	LTP278	ltpFR2	19	23	MARROW	872	n/a	n/a	0	0	0
4919699	REC_WORD	wordpools/wasnorm_wordpool_576.txt	LTP278	ltpFR2	19	23	JAPAN	749	n/a	n/a	0	0	0
4990527	DISTRACTOR	n/a	LTP278	ltpFR2	19	24	n/a	n/a	n/a	n/a	0	0	0
4990528	START	n/a	LTP278	ltpFR2	19	n/a	n/a	n/a	35	n/a	n/a	n/a	n/a
4990561	PROB	n/a	LTP278	ltpFR2	19	n/a	n/a	n/a	35	12	1	3	8
4991910	PROB	n/a	LTP278	ltpFR2	19	n/a	n/a	n/a	35	11	2	2	7
4993091	PROB	n/a	LTP278	ltpFR2	19	n/a	n/a	n/a	35	19	3	8	8
4994988	PROB	n/a	LTP278	ltpFR2	19	n/a	n/a	n/a	35	15	8	3	4
4996552	PROB	n/a	LTP278	ltpFR2	19	n/a	n/a	n/a	35	15	8	6	1
4997767	PROB	n/a	LTP278	ltpFR2	19	n/a	n/a	n/a	35	15	5	9	1
5000180	PROB	n/a	LTP278	ltpFR2	19	n/a	n/a	n/a	35	13	6	4	3
5001811	PROB	n/a	LTP278	ltpFR2	19	n/a	n/a	n/a	35	15	9	1	5
5003325	PROB	n/a	LTP278	ltpFR2	19	n/a	n/a	n/a	35	19	3	7	9
5004841	PROB	n/a	LTP278	ltpFR2	19	n/a	n/a	n/a	35	20	9	8	3
5007469	PROB	n/a	LTP278	ltpFR2	19	n/a	n/a	n/a	35	13	2	5	6
5010565	PROB	n/a	LTP278	ltpFR2	19	n/a	n/a	n/a	35	20	7	9	4
5014527	STOP	n/a	LTP278	ltpFR2	19	n/a	n/a	n/a	35	n/a	n/a	n/a	n/a
5015441	WORD	wordpools/wasnorm_wordpool_576.txt	LTP278	ltpFR2	19	24	SHRUB	1299	n/a	n/a	0	0	0
5018220	WORD	wordpools/wasnorm_wordpool_576.txt	LTP278	ltpFR2	19	24	CROSS	413	n/a	n/a	0	0	0
5020984	WORD	wordpools/wasnorm_wordpool_576.txt	LTP278	ltpFR2	19	24	COMPASS	358	n/a	n/a	0	0	0
5023545	WORD	wordpools/wasnorm_wordpool_576.txt	LTP278	ltpFR2	19	24	PEANUT	1032	n/a	n/a	0	0	0
5025993	WORD	wordpools/wasnorm_wordpool_576.txt	LTP278	ltpFR2	19	24	HERO	706	n/a	n/a	0	0	0
5028472	WORD	wordpools/wasnorm_wordpool_576.txt	LTP278	ltpFR2	19	24	PEACH	1031	n/a	n/a	0	0	0
5030952	WORD	wordpools/wasnorm_wordpool_576.txt	LTP278	ltpFR2	19	24	AIRPORT	13	n/a	n/a	0	0	0
5033714	WORD	wordpools/wasnorm_wordpool_576.txt	LTP278	ltpFR2	19	24	TUTU	1524	n/a	n/a	0	0	0
5036360	WORD	wordpools/wasnorm_wordpool_576.txt	LTP278	ltpFR2	19	24	BRANDY	169	n/a	n/a	0	0	0
5038857	WORD	wordpools/wasnorm_wordpool_576.txt	LTP278	ltpFR2	19	24	HAWK	692	n/a	n/a	0	0	0
5041419	WORD	wordpools/wasnorm_wordpool_576.txt	LTP278	ltpFR2	19	24	CRICKET	408	n/a	n/a	0	0	0
5043950	WORD	wordpools/wasnorm_wordpool_576.txt	LTP278	ltpFR2	19	24	PERMIT	1051	n/a	n/a	0	0	0
5046695	WORD	wordpools/wasnorm_wordpool_576.txt	LTP278	ltpFR2	19	24	PUPPY	1144	n/a	n/a	0	0	0
5049407	WORD	wordpools/wasnorm_wordpool_576.txt	LTP278	ltpFR2	19	24	RUG	1215	n/a	n/a	0	0	0
5051855	WORD	wordpools/wasnorm_wordpool_576.txt	LTP278	ltpFR2	19	24	MAPLE	866	n/a	n/a	0	0	0
5054666	WORD	wordpools/wasnorm_wordpool_576.txt	LTP278	ltpFR2	19	24	BANK	83	n/a	n/a	0	0	0
5057446	WORD	wordpools/wasnorm_wordpool_576.txt	LTP278	ltpFR2	19	24	WHISKERS	1605	n/a	n/a	0	0	0
5059976	WORD	wordpools/wasnorm_wordpool_576.txt	LTP278	ltpFR2	19	24	AWARD	63	n/a	n/a	0	0	0
5062738	WORD	wordpools/wasnorm_wordpool_576.txt	LTP278	ltpFR2	19	24	MEDAL	885	n/a	n/a	0	0	0
5065201	WORD	wordpools/wasnorm_wordpool_576.txt	LTP278	ltpFR2	19	24	TURNIP	1521	n/a	n/a	0	0	0
5067981	WORD	wordpools/wasnorm_wordpool_576.txt	LTP278	ltpFR2	19	24	PILOT	1070	n/a	n/a	0	0	0
5070427	WORD	wordpools/wasnorm_wordpool_576.txt	LTP278	ltpFR2	19	24	SCULPTURE	1258	n/a	n/a	0	0	0
5073124	WORD	wordpools/wasnorm_wordpool_576.txt	LTP278	ltpFR2	19	24	SKETCH	1315	n/a	n/a	0	0	0
5075936	WORD	wordpools/wasnorm_wordpool_576.txt	LTP278	ltpFR2	19	24	CRIB	407	n/a	n/a	0	0	0
5077550	START	n/a	LTP278	ltpFR2	19	n/a	n/a	n/a	36	n/a	n/a	n/a	n/a
5078695	DISTRACTOR	n/a	LTP278	ltpFR2	19	24	n/a	n/a	n/a	n/a	0	0	0
5078698	PROB	n/a	LTP278	ltpFR2	19	n/a	n/a	n/a	36	16	3	6	7
5080429	PROB	n/a	LTP278	ltpFR2	19	n/a	n/a	n/a	36	19	6	9	4
5082592	PROB	n/a	LTP278	ltpFR2	19	n/a	n/a	n/a	36	16	2	9	5
5084273	PROB	n/a	LTP278	ltpFR2	19	n/a	n/a	n/a	36	22	9	6	7
5086486	PROB	n/a	LTP278	ltpFR2	19	n/a	n/a	n/a	36	25	7	8	8
5088384	PROB	n/a	LTP278	ltpFR2	19	n/a	n/a	n/a	36	13	8	2	3
5090181	PROB	n/a	LTP278	ltpFR2	19	n/a	n/a	n/a	36	8	2	3	3
5091863	PROB	n/a	LTP278	ltpFR2	19	n/a	n/a	n/a	36	20	6	8	6
5093692	PROB	n/a	LTP278	ltpFR2	19	n/a	n/a	n/a	36	21	8	6	7
5096989	PROB	n/a	LTP278	ltpFR2	19	n/a	n/a	n/a	36	18	9	5	4
5101362	STOP	n/a	LTP278	ltpFR2	19	n/a	n/a	n/a	36	n/a	n/a	n/a	n/a
5103429	REC_START	n/a	LTP278	ltpFR2	19	24	n/a	n/a	n/a	n/a	0	0	0
5103596	REC_WORD	wordpools/wasnorm_wordpool_576.txt	LTP278	ltpFR2	19	24	SHRUB	1299	n/a	n/a	0	0	0
5104451	REC_WORD	wordpools/wasnorm_wordpool_576.txt	LTP278	ltpFR2	19	24	COMPASS	358	n/a	n/a	0	0	0
5105080	REC_WORD	wordpools/wasnorm_wordpool_576.txt	LTP278	ltpFR2	19	24	CROSS	413	n/a	n/a	0	0	0
5105560	REC_WORD	wordpools/wasnorm_wordpool_576.txt	LTP278	ltpFR2	19	24	HERO	706	n/a	n/a	0	0	0
5106299	REC_WORD	wordpools/wasnorm_wordpool_576.txt	LTP278	ltpFR2	19	24	PEACH	1031	n/a	n/a	0	0	0
5107514	REC_WORD	wordpools/wasnorm_wordpool_576.txt	LTP278	ltpFR2	19	24	PEANUT	1032	n/a	n/a	0	0	0
5109634	REC_WORD	wordpools/wasnorm_wordpool_576.txt	LTP278	ltpFR2	19	24	AIRPORT	13	n/a	n/a	0	0	0
5110225	REC_WORD	wordpools/wasnorm_wordpool_576.txt	LTP278	ltpFR2	19	24	TUTU	1524	n/a	n/a	0	0	0
5110706	REC_WORD	wordpools/wasnorm_wordpool_576.txt	LTP278	ltpFR2	19	24	HAWK	692	n/a	n/a	0	0	0
5182396	SESS_END	n/a	LTP278	ltpFR2	19	24	n/a	n/a	n/a	n/a	0	0	0
