mstime	trial_type	stim_file	subject	experiment	session	trial	task	item_name	item_num	recog_resp	recog_conf	resp	answer	test_x	test_y	test_z	color_r	color_g	color_b	case	font
0	SESS_START	n/a	LTP118	ltpFR	9	n/a	n/a	n/a	n/a	1	2	n/a	n/a	0	0	0	n/a	n/a	n/a	n/a	n/a
66701	START	n/a	LTP118	ltpFR	9	n/a	n/a	n/a	n/a	n/a	n/a	n/a	n/a	n/a	n/a	n/a	n/a	n/a	n/a	n/a	n/a
66726	PROB	n/a	LTP118	ltpFR	9	n/a	n/a	n/a	n/a	n/a	n/a	n/a	19	2	9	6	n/a	n/a	n/a	n/a	n/a
70464	PROB	n/a	LTP118	ltpFR	9	n/a	n/a	n/a	n/a	n/a	n/a	n/a	7	2	1	4	n/a	n/a	n/a	n/a	n/a
74243	PROB	n/a	LTP118	ltpFR	9	n/a	n/a	n/a	n/a	n/a	n/a	n/a	20	9	7	5	n/a	n/a	n/a	n/a	n/a
77448	PROB	n/a	LTP118	ltpFR	9	n/a	n/a	n/a	n/a	n/a	n/a	n/a	17	8	5	4	n/a	n/a	n/a	n/a	n/a
79711	PROB	n/a	LTP118	ltpFR	9	n/a	n/a	n/a	n/a	n/a	n/a	n/a	14	1	5	8	n/a	n/a	n/a	n/a	n/a
81926	PROB	n/a	LTP118	ltpFR	9	n/a	n/a	n/a	n/a	n/a	n/a	n/a	17	8	4	5	n/a	n/a	n/a	n/a	n/a
86701	STOP	n/a	LTP118	ltpFR	9	n/a	n/a	n/a	n/a	n/a	n/a	n/a	n/a	n/a	n/a	n/a	n/a	n/a	n/a	n/a	n/a
113073	WORD	wordpools/wasnorm_wordpool.txt	LTP118	ltpFR	9	1	1	BIRD	129	0	n/a	0	n/a	0	0	0	0.57763671875	0.412841796875	1	upper	amplitud.ttf
117043	WORD	wordpools/wasnorm_wordpool.txt	LTP118	ltpFR	9	1	1	ORGAN	984	n/a	n/a	0	n/a	0	0	0	0.57763671875	0.412841796875	1	upper	amplitud.ttf
121239	WORD	wordpools/wasnorm_wordpool.txt	LTP118	ltpFR	9	1	1	FLANNEL	574	n/a	n/a	0	n/a	0	0	0	0.57763671875	0.412841796875	1	upper	amplitud.ttf
125392	WORD	wordpools/wasnorm_wordpool.txt	LTP118	ltpFR	9	1	1	RAILROAD	1162	n/a	n/a	0	n/a	0	0	0	0.57763671875	0.412841796875	1	upper	amplitud.ttf
129503	WORD	wordpools/wasnorm_wordpool.txt	LTP118	ltpFR	9	1	1	CAMEL	223	n/a	n/a	1	n/a	0	0	0	0.57763671875	0.412841796875	1	upper	amplitud.ttf
133408	WORD	wordpools/wasnorm_wordpool.txt	LTP118	ltpFR	9	1	1	EAGLE	512	n/a	n/a	1	n/a	0	0	0	0.57763671875	0.412841796875	1	upper	amplitud.ttf
137569	WORD	wordpools/wasnorm_wordpool.txt	LTP118	ltpFR	9	1	1	SWAN	1417	n/a	n/a	1	n/a	0	0	0	0.57763671875	0.412841796875	1	upper	amplitud.ttf
141399	WORD	wordpools/wasnorm_wordpool.txt	LTP118	ltpFR	9	1	1	BATTERY	101	n/a	n/a	0	n/a	0	0	0	0.57763671875	0.412841796875	1	upper	amplitud.ttf
145510	WORD	wordpools/wasnorm_wordpool.txt	LTP118	ltpFR	9	1	1	ISLAND	745	n/a	n/a	0	n/a	0	0	0	0.57763671875	0.412841796875	1	upper	amplitud.ttf
149547	WORD	wordpools/wasnorm_wordpool.txt	LTP118	ltpFR	9	1	1	SPAGHETTI	1346	n/a	n/a	0	n/a	0	0	0	0.57763671875	0.412841796875	1	upper	amplitud.ttf
153725	WORD	wordpools/wasnorm_wordpool.txt	LTP118	ltpFR	9	1	1	RICE	1190	n/a	n/a	0	n/a	0	0	0	0.57763671875	0.412841796875	1	upper	amplitud.ttf
157679	WORD	wordpools/wasnorm_wordpool.txt	LTP118	ltpFR	9	1	1	BREAST	171	n/a	n/a	0	n/a	0	0	0	0.57763671875	0.412841796875	1	upper	amplitud.ttf
161549	WORD	wordpools/wasnorm_wordpool.txt	LTP118	ltpFR	9	1	1	FREEWAY	603	n/a	n/a	0	n/a	0	0	0	0.57763671875	0.412841796875	1	upper	amplitud.ttf
165611	WORD	wordpools/wasnorm_wordpool.txt	LTP118	ltpFR	9	1	1	CARDINAL	244	n/a	n/a	0	n/a	0	0	0	0.57763671875	0.412841796875	1	upper	amplitud.ttf
169540	WORD	wordpools/wasnorm_wordpool.txt	LTP118	ltpFR	9	1	1	DAISY	435	n/a	n/a	0	n/a	0	0	0	0.57763671875	0.412841796875	1	upper	amplitud.ttf
173485	WORD	wordpools/wasnorm_wordpool.txt	LTP118	ltpFR	9	1	1	STEM	1376	n/a	n/a	0	n/a	0	0	0	0.57763671875	0.412841796875	1	upper	amplitud.ttf
176490	START	n/a	LTP118	ltpFR	9	n/a	n/a	n/a	n/a	n/a	n/a	n/a	n/a	n/a	n/a	n/a	n/a	n/a	n/a	n/a	n/a
177299	PROB	n/a	LTP118	ltpFR	9	n/a	n/a	n/a	n/a	n/a	n/a	n/a	16	7	2	7	n/a	n/a	n/a	n/a	n/a
179712	PROB	n/a	LTP118	ltpFR	9	n/a	n/a	n/a	n/a	n/a	n/a	n/a	24	9	6	9	n/a	n/a	n/a	n/a	n/a
184489	STOP	n/a	LTP118	ltpFR	9	n/a	n/a	n/a	n/a	n/a	n/a	n/a	n/a	n/a	n/a	n/a	n/a	n/a	n/a	n/a	n/a
186222	REC_START	n/a	LTP118	ltpFR	9	1	n/a	n/a	n/a	n/a	n/a	n/a	n/a	0	0	0	n/a	n/a	n/a	n/a	n/a
187189	REC_WORD	wordpools/wasnorm_wordpool.txt	LTP118	ltpFR	9	1	1	FLANNEL	574	n/a	n/a	0	n/a	0	0	0	n/a	n/a	n/a	n/a	n/a
188806	REC_WORD	wordpools/wasnorm_wordpool.txt	LTP118	ltpFR	9	1	1	CARDINAL	244	n/a	n/a	0	n/a	0	0	0	n/a	n/a	n/a	n/a	n/a
190756	REC_WORD	wordpools/wasnorm_wordpool.txt	LTP118	ltpFR	9	1	1	ORGAN	984	n/a	n/a	0	n/a	0	0	0	n/a	n/a	n/a	n/a	n/a
192363	REC_WORD	wordpools/wasnorm_wordpool.txt	LTP118	ltpFR	9	1	1	FREEWAY	603	n/a	n/a	0	n/a	0	0	0	n/a	n/a	n/a	n/a	n/a
194154	REC_WORD	wordpools/wasnorm_wordpool.txt	LTP118	ltpFR	9	1	1	RAILROAD	1162	n/a	n/a	0	n/a	0	0	0	n/a	n/a	n/a	n/a	n/a
195860	REC_WORD	wordpools/wasnorm_wordpool.txt	LTP118	ltpFR	9	1	1	DAISY	435	n/a	n/a	0	n/a	0	0	0	n/a	n/a	n/a	n/a	n/a
197466	REC_WORD	wordpools/wasnorm_wordpool.txt	LTP118	ltpFR	9	1	1	RICE	1190	n/a	n/a	0	n/a	0	0	0	n/a	n/a	n/a	n/a	n/a
199093	REC_WORD	wordpools/wasnorm_wordpool.txt	LTP118	ltpFR	9	1	1	SPAGHETTI	1346	n/a	n/a	0	n/a	0	0	0	n/a	n/a	n/a	n/a	n/a
204540	REC_WORD	wordpools/wasnorm_wordpool.txt	LTP118	ltpFR	9	1	1	BREAST	171	n/a	n/a	0	n/a	0	0	0	n/a	n/a	n/a	n/a	n/a
209509	REC_WORD	wordpools/wasnorm_wordpool.txt	LTP118	ltpFR	9	1	1	CAMEL	223	n/a	n/a	1	n/a	0	0	0	n/a	n/a	n/a	n/a	n/a
210911	REC_WORD	wordpools/wasnorm_wordpool.txt	LTP118	ltpFR	9	1	1	SWAN	1417	n/a	n/a	1	n/a	0	0	0	n/a	n/a	n/a	n/a	n/a
212587	REC_WORD	wordpools/wasnorm_wordpool.txt	LTP118	ltpFR	9	1	1	CARDINAL	244	n/a	n/a	0	n/a	0	0	0	n/a	n/a	n/a	n/a	n/a
274718	START	n/a	LTP118	ltpFR	9	n/a	n/a	n/a	n/a	n/a	n/a	n/a	n/a	n/a	n/a	n/a	n/a	n/a	n/a	n/a	n/a
276226	PROB	n/a	LTP118	ltpFR	9	n/a	n/a	n/a	n/a	n/a	n/a	n/a	25	8	6	9	n/a	n/a	n/a	n/a	n/a
278697	PROB	n/a	LTP118	ltpFR	9	n/a	n/a	n/a	n/a	n/a	n/a	n/a	11	1	5	5	n/a	n/a	n/a	n/a	n/a
279996	PROB	n/a	LTP118	ltpFR	9	n/a	n/a	n/a	n/a	n/a	n/a	n/a	12	7	4	1	n/a	n/a	n/a	n/a	n/a
281445	STOP	n/a	LTP118	ltpFR	9	n/a	n/a	n/a	n/a	n/a	n/a	n/a	n/a	n/a	n/a	n/a	n/a	n/a	n/a	n/a	n/a
283541	WORD	wordpools/wasnorm_wordpool.txt	LTP118	ltpFR	9	2	1	TUB	1514	n/a	n/a	0	n/a	0	0	0	0.57763671875	0.412841796875	1	upper	amplitud.ttf
286555	START	n/a	LTP118	ltpFR	9	n/a	n/a	n/a	n/a	n/a	n/a	n/a	n/a	n/a	n/a	n/a	n/a	n/a	n/a	n/a	n/a
287545	PROB	n/a	LTP118	ltpFR	9	n/a	n/a	n/a	n/a	n/a	n/a	n/a	21	8	6	7	n/a	n/a	n/a	n/a	n/a
290825	PROB	n/a	LTP118	ltpFR	9	n/a	n/a	n/a	n/a	n/a	n/a	n/a	17	4	7	6	n/a	n/a	n/a	n/a	n/a
294524	STOP	n/a	LTP118	ltpFR	9	n/a	n/a	n/a	n/a	n/a	n/a	n/a	n/a	n/a	n/a	n/a	n/a	n/a	n/a	n/a	n/a
295644	WORD	wordpools/wasnorm_wordpool.txt	LTP118	ltpFR	9	2	1	PEACH	1031	n/a	n/a	1	n/a	0	0	0	0.57763671875	0.412841796875	1	upper	amplitud.ttf
298649	START	n/a	LTP118	ltpFR	9	n/a	n/a	n/a	n/a	n/a	n/a	n/a	n/a	n/a	n/a	n/a	n/a	n/a	n/a	n/a	n/a
299457	PROB	n/a	LTP118	ltpFR	9	n/a	n/a	n/a	n/a	n/a	n/a	n/a	13	6	1	6	n/a	n/a	n/a	n/a	n/a
300688	PROB	n/a	LTP118	ltpFR	9	n/a	n/a	n/a	n/a	n/a	n/a	n/a	14	3	3	8	n/a	n/a	n/a	n/a	n/a
306649	STOP	n/a	LTP118	ltpFR	9	n/a	n/a	n/a	n/a	n/a	n/a	n/a	n/a	n/a	n/a	n/a	n/a	n/a	n/a	n/a	n/a
307488	WORD	wordpools/wasnorm_wordpool.txt	LTP118	ltpFR	9	2	1	BEE	112	n/a	n/a	1	n/a	0	0	0	0.57763671875	0.412841796875	1	upper	amplitud.ttf
310493	START	n/a	LTP118	ltpFR	9	n/a	n/a	n/a	n/a	n/a	n/a	n/a	n/a	n/a	n/a	n/a	n/a	n/a	n/a	n/a	n/a
311492	PROB	n/a	LTP118	ltpFR	9	n/a	n/a	n/a	n/a	n/a	n/a	n/a	16	7	3	6	n/a	n/a	n/a	n/a	n/a
312825	PROB	n/a	LTP118	ltpFR	9	n/a	n/a	n/a	n/a	n/a	n/a	n/a	6	2	2	2	n/a	n/a	n/a	n/a	n/a
314415	PROB	n/a	LTP118	ltpFR	9	n/a	n/a	n/a	n/a	n/a	n/a	n/a	23	2	8	3	n/a	n/a	n/a	n/a	n/a
318493	STOP	n/a	LTP118	ltpFR	9	n/a	n/a	n/a	n/a	n/a	n/a	n/a	n/a	n/a	n/a	n/a	n/a	n/a	n/a	n/a	n/a
319392	WORD	wordpools/wasnorm_wordpool.txt	LTP118	ltpFR	9	2	1	BRIDGE	174	n/a	n/a	0	n/a	0	0	0	0.57763671875	0.412841796875	1	upper	amplitud.ttf
322397	START	n/a	LTP118	ltpFR	9	n/a	n/a	n/a	n/a	n/a	n/a	n/a	n/a	n/a	n/a	n/a	n/a	n/a	n/a	n/a	n/a
323263	PROB	n/a	LTP118	ltpFR	9	n/a	n/a	n/a	n/a	n/a	n/a	n/a	9	1	1	7	n/a	n/a	n/a	n/a	n/a
326900	PROB	n/a	LTP118	ltpFR	9	n/a	n/a	n/a	n/a	n/a	n/a	n/a	18	2	7	9	n/a	n/a	n/a	n/a	n/a
328893	STOP	n/a	LTP118	ltpFR	9	n/a	n/a	n/a	n/a	n/a	n/a	n/a	n/a	n/a	n/a	n/a	n/a	n/a	n/a	n/a	n/a
331328	WORD	wordpools/wasnorm_wordpool.txt	LTP118	ltpFR	9	2	1	LAUNDRY	803	n/a	n/a	0	n/a	0	0	0	0.57763671875	0.412841796875	1	upper	amplitud.ttf
334334	START	n/a	LTP118	ltpFR	9	n/a	n/a	n/a	n/a	n/a	n/a	n/a	n/a	n/a	n/a	n/a	n/a	n/a	n/a	n/a	n/a
335522	PROB	n/a	LTP118	ltpFR	9	n/a	n/a	n/a	n/a	n/a	n/a	n/a	8	4	1	3	n/a	n/a	n/a	n/a	n/a
338054	PROB	n/a	LTP118	ltpFR	9	n/a	n/a	n/a	n/a	n/a	n/a	n/a	20	7	4	9	n/a	n/a	n/a	n/a	n/a
341564	STOP	n/a	LTP118	ltpFR	9	n/a	n/a	n/a	n/a	n/a	n/a	n/a	n/a	n/a	n/a	n/a	n/a	n/a	n/a	n/a	n/a
343298	WORD	wordpools/wasnorm_wordpool.txt	LTP118	ltpFR	9	2	1	CLOSET	326	n/a	n/a	0	n/a	0	0	0	0.57763671875	0.412841796875	1	upper	amplitud.ttf
346303	START	n/a	LTP118	ltpFR	9	n/a	n/a	n/a	n/a	n/a	n/a	n/a	n/a	n/a	n/a	n/a	n/a	n/a	n/a	n/a	n/a
347152	PROB	n/a	LTP118	ltpFR	9	n/a	n/a	n/a	n/a	n/a	n/a	n/a	16	3	7	6	n/a	n/a	n/a	n/a	n/a
348699	PROB	n/a	LTP118	ltpFR	9	n/a	n/a	n/a	n/a	n/a	n/a	n/a	18	8	9	1	n/a	n/a	n/a	n/a	n/a
351139	PROB	n/a	LTP118	ltpFR	9	n/a	n/a	n/a	n/a	n/a	n/a	n/a	18	7	4	7	n/a	n/a	n/a	n/a	n/a
353805	STOP	n/a	LTP118	ltpFR	9	n/a	n/a	n/a	n/a	n/a	n/a	n/a	n/a	n/a	n/a	n/a	n/a	n/a	n/a	n/a	n/a
355459	WORD	wordpools/wasnorm_wordpool.txt	LTP118	ltpFR	9	2	0	DAD	433	n/a	n/a	1	n/a	0	0	0	0.422607421875	0.5869140625	0	lower	zerothre.ttf
358464	START	n/a	LTP118	ltpFR	9	n/a	n/a	n/a	n/a	n/a	n/a	n/a	n/a	n/a	n/a	n/a	n/a	n/a	n/a	n/a	n/a
359520	PROB	n/a	LTP118	ltpFR	9	n/a	n/a	n/a	n/a	n/a	n/a	n/a	11	2	8	1	n/a	n/a	n/a	n/a	n/a
360819	PROB	n/a	LTP118	ltpFR	9	n/a	n/a	n/a	n/a	n/a	n/a	n/a	11	4	3	4	n/a	n/a	n/a	n/a	n/a
366463	STOP	n/a	LTP118	ltpFR	9	n/a	n/a	n/a	n/a	n/a	n/a	n/a	n/a	n/a	n/a	n/a	n/a	n/a	n/a	n/a	n/a
367602	WORD	wordpools/wasnorm_wordpool.txt	LTP118	ltpFR	9	2	0	BRAKE	166	n/a	n/a	0	n/a	0	0	0	0.422607421875	0.5869140625	0	lower	zerothre.ttf
370607	START	n/a	LTP118	ltpFR	9	n/a	n/a	n/a	n/a	n/a	n/a	n/a	n/a	n/a	n/a	n/a	n/a	n/a	n/a	n/a	n/a
371606	PROB	n/a	LTP118	ltpFR	9	n/a	n/a	n/a	n/a	n/a	n/a	n/a	10	4	2	4	n/a	n/a	n/a	n/a	n/a
373321	PROB	n/a	LTP118	ltpFR	9	n/a	n/a	n/a	n/a	n/a	n/a	n/a	20	9	4	7	n/a	n/a	n/a	n/a	n/a
375651	PROB	n/a	LTP118	ltpFR	9	n/a	n/a	n/a	n/a	n/a	n/a	n/a	15	8	4	3	n/a	n/a	n/a	n/a	n/a
377805	STOP	n/a	LTP118	ltpFR	9	n/a	n/a	n/a	n/a	n/a	n/a	n/a	n/a	n/a	n/a	n/a	n/a	n/a	n/a	n/a	n/a
379797	WORD	wordpools/wasnorm_wordpool.txt	LTP118	ltpFR	9	2	0	VEHICLE	1553	n/a	n/a	1	n/a	0	0	0	0.422607421875	0.5869140625	0	lower	zerothre.ttf
382802	START	n/a	LTP118	ltpFR	9	n/a	n/a	n/a	n/a	n/a	n/a	n/a	n/a	n/a	n/a	n/a	n/a	n/a	n/a	n/a	n/a
383826	PROB	n/a	LTP118	ltpFR	9	n/a	n/a	n/a	n/a	n/a	n/a	n/a	15	3	8	4	n/a	n/a	n/a	n/a	n/a
390802	STOP	n/a	LTP118	ltpFR	9	n/a	n/a	n/a	n/a	n/a	n/a	n/a	n/a	n/a	n/a	n/a	n/a	n/a	n/a	n/a	n/a
392008	WORD	wordpools/wasnorm_wordpool.txt	LTP118	ltpFR	9	2	0	MAGAZINE	853	n/a	n/a	0	n/a	0	0	0	0.422607421875	0.5869140625	0	lower	zerothre.ttf
395013	START	n/a	LTP118	ltpFR	9	n/a	n/a	n/a	n/a	n/a	n/a	n/a	n/a	n/a	n/a	n/a	n/a	n/a	n/a	n/a	n/a
395920	PROB	n/a	LTP118	ltpFR	9	n/a	n/a	n/a	n/a	n/a	n/a	n/a	15	3	5	7	n/a	n/a	n/a	n/a	n/a
397868	PROB	n/a	LTP118	ltpFR	9	n/a	n/a	n/a	n/a	n/a	n/a	n/a	16	2	9	5	n/a	n/a	n/a	n/a	n/a
400032	PROB	n/a	LTP118	ltpFR	9	n/a	n/a	n/a	n/a	n/a	n/a	n/a	24	9	6	9	n/a	n/a	n/a	n/a	n/a
401957	STOP	n/a	LTP118	ltpFR	9	n/a	n/a	n/a	n/a	n/a	n/a	n/a	n/a	n/a	n/a	n/a	n/a	n/a	n/a	n/a	n/a
404111	WORD	wordpools/wasnorm_wordpool.txt	LTP118	ltpFR	9	2	0	PARENT	1013	n/a	n/a	1	n/a	0	0	0	0.422607421875	0.5869140625	0	lower	zerothre.ttf
407116	START	n/a	LTP118	ltpFR	9	n/a	n/a	n/a	n/a	n/a	n/a	n/a	n/a	n/a	n/a	n/a	n/a	n/a	n/a	n/a	n/a
408272	PROB	n/a	LTP118	ltpFR	9	n/a	n/a	n/a	n/a	n/a	n/a	n/a	6	1	3	2	n/a	n/a	n/a	n/a	n/a
410403	PROB	n/a	LTP118	ltpFR	9	n/a	n/a	n/a	n/a	n/a	n/a	n/a	7	2	4	3	n/a	n/a	n/a	n/a	n/a
415115	STOP	n/a	LTP118	ltpFR	9	n/a	n/a	n/a	n/a	n/a	n/a	n/a	n/a	n/a	n/a	n/a	n/a	n/a	n/a	n/a	n/a
416188	WORD	wordpools/wasnorm_wordpool.txt	LTP118	ltpFR	9	2	1	PRUNE	1134	n/a	n/a	1	n/a	0	0	0	0.57763671875	0.412841796875	1	upper	amplitud.ttf
419193	START	n/a	LTP118	ltpFR	9	n/a	n/a	n/a	n/a	n/a	n/a	n/a	n/a	n/a	n/a	n/a	n/a	n/a	n/a	n/a	n/a
420134	PROB	n/a	LTP118	ltpFR	9	n/a	n/a	n/a	n/a	n/a	n/a	n/a	11	3	7	1	n/a	n/a	n/a	n/a	n/a
421299	PROB	n/a	LTP118	ltpFR	9	n/a	n/a	n/a	n/a	n/a	n/a	n/a	15	5	2	8	n/a	n/a	n/a	n/a	n/a
423637	PROB	n/a	LTP118	ltpFR	9	n/a	n/a	n/a	n/a	n/a	n/a	n/a	23	7	8	8	n/a	n/a	n/a	n/a	n/a
425885	STOP	n/a	LTP118	ltpFR	9	n/a	n/a	n/a	n/a	n/a	n/a	n/a	n/a	n/a	n/a	n/a	n/a	n/a	n/a	n/a	n/a
428374	WORD	wordpools/wasnorm_wordpool.txt	LTP118	ltpFR	9	2	1	CELERY	266	n/a	n/a	1	n/a	0	0	0	0.57763671875	0.412841796875	1	upper	amplitud.ttf
431379	START	n/a	LTP118	ltpFR	9	n/a	n/a	n/a	n/a	n/a	n/a	n/a	n/a	n/a	n/a	n/a	n/a	n/a	n/a	n/a	n/a
432336	PROB	n/a	LTP118	ltpFR	9	n/a	n/a	n/a	n/a	n/a	n/a	n/a	11	7	1	3	n/a	n/a	n/a	n/a	n/a
433584	PROB	n/a	LTP118	ltpFR	9	n/a	n/a	n/a	n/a	n/a	n/a	n/a	8	1	4	3	n/a	n/a	n/a	n/a	n/a
435416	PROB	n/a	LTP118	ltpFR	9	n/a	n/a	n/a	n/a	n/a	n/a	n/a	12	5	6	1	n/a	n/a	n/a	n/a	n/a
437222	PROB	n/a	LTP118	ltpFR	9	n/a	n/a	n/a	n/a	n/a	n/a	n/a	17	9	2	6	n/a	n/a	n/a	n/a	n/a
439261	STOP	n/a	LTP118	ltpFR	9	n/a	n/a	n/a	n/a	n/a	n/a	n/a	n/a	n/a	n/a	n/a	n/a	n/a	n/a	n/a	n/a
440219	WORD	wordpools/wasnorm_wordpool.txt	LTP118	ltpFR	9	2	0	CRAB	397	n/a	n/a	1	n/a	0	0	0	0.422607421875	0.5869140625	0	lower	zerothre.ttf
443224	START	n/a	LTP118	ltpFR	9	n/a	n/a	n/a	n/a	n/a	n/a	n/a	n/a	n/a	n/a	n/a	n/a	n/a	n/a	n/a	n/a
444414	PROB	n/a	LTP118	ltpFR	9	n/a	n/a	n/a	n/a	n/a	n/a	n/a	17	5	4	8	n/a	n/a	n/a	n/a	n/a
451224	STOP	n/a	LTP118	ltpFR	9	n/a	n/a	n/a	n/a	n/a	n/a	n/a	n/a	n/a	n/a	n/a	n/a	n/a	n/a	n/a	n/a
452271	WORD	wordpools/wasnorm_wordpool.txt	LTP118	ltpFR	9	2	0	GANGSTER	620	n/a	n/a	1	n/a	0	0	0	0.422607421875	0.5869140625	0	lower	zerothre.ttf
455277	START	n/a	LTP118	ltpFR	9	n/a	n/a	n/a	n/a	n/a	n/a	n/a	n/a	n/a	n/a	n/a	n/a	n/a	n/a	n/a	n/a
456458	PROB	n/a	LTP118	ltpFR	9	n/a	n/a	n/a	n/a	n/a	n/a	n/a	13	3	5	4	n/a	n/a	n/a	n/a	n/a
459238	PROB	n/a	LTP118	ltpFR	9	n/a	n/a	n/a	n/a	n/a	n/a	n/a	12	8	1	3	n/a	n/a	n/a	n/a	n/a
462053	STOP	n/a	LTP118	ltpFR	9	n/a	n/a	n/a	n/a	n/a	n/a	n/a	n/a	n/a	n/a	n/a	n/a	n/a	n/a	n/a	n/a
464191	WORD	wordpools/wasnorm_wordpool.txt	LTP118	ltpFR	9	2	0	KIDNEY	776	n/a	n/a	0	n/a	0	0	0	0.422607421875	0.5869140625	0	lower	zerothre.ttf
467196	START	n/a	LTP118	ltpFR	9	n/a	n/a	n/a	n/a	n/a	n/a	n/a	n/a	n/a	n/a	n/a	n/a	n/a	n/a	n/a	n/a
468286	PROB	n/a	LTP118	ltpFR	9	n/a	n/a	n/a	n/a	n/a	n/a	n/a	14	9	3	2	n/a	n/a	n/a	n/a	n/a
470134	PROB	n/a	LTP118	ltpFR	9	n/a	n/a	n/a	n/a	n/a	n/a	n/a	8	2	3	3	n/a	n/a	n/a	n/a	n/a
472513	PROB	n/a	LTP118	ltpFR	9	n/a	n/a	n/a	n/a	n/a	n/a	n/a	19	4	6	9	n/a	n/a	n/a	n/a	n/a
474165	STOP	n/a	LTP118	ltpFR	9	n/a	n/a	n/a	n/a	n/a	n/a	n/a	n/a	n/a	n/a	n/a	n/a	n/a	n/a	n/a	n/a
476943	REC_START	n/a	LTP118	ltpFR	9	2	n/a	n/a	n/a	n/a	n/a	n/a	n/a	0	0	0	n/a	n/a	n/a	n/a	n/a
477816	REC_WORD	wordpools/wasnorm_wordpool.txt	LTP118	ltpFR	9	2	0	GANGSTER	620	n/a	n/a	1	n/a	0	0	0	n/a	n/a	n/a	n/a	n/a
485588	REC_WORD	wordpools/wasnorm_wordpool.txt	LTP118	ltpFR	9	2	1	PEACH	1031	n/a	n/a	1	n/a	0	0	0	n/a	n/a	n/a	n/a	n/a
486588	REC_WORD_VV	wordpools/wasnorm_wordpool.txt	LTP118	ltpFR	9	2	n/a	<>	-1	n/a	n/a	n/a	n/a	0	0	0	n/a	n/a	n/a	n/a	n/a
493490	REC_WORD	wordpools/wasnorm_wordpool.txt	LTP118	ltpFR	9	2	0	MAGAZINE	853	n/a	n/a	0	n/a	0	0	0	n/a	n/a	n/a	n/a	n/a
495999	REC_WORD	wordpools/wasnorm_wordpool.txt	LTP118	ltpFR	9	2	0	KIDNEY	776	n/a	n/a	0	n/a	0	0	0	n/a	n/a	n/a	n/a	n/a
513056	REC_WORD	wordpools/wasnorm_wordpool.txt	LTP118	ltpFR	9	2	1	PRUNE	1134	n/a	n/a	1	n/a	0	0	0	n/a	n/a	n/a	n/a	n/a
625221	START	n/a	LTP118	ltpFR	9	n/a	n/a	n/a	n/a	n/a	n/a	n/a	n/a	n/a	n/a	n/a	n/a	n/a	n/a	n/a	n/a
626726	PROB	n/a	LTP118	ltpFR	9	n/a	n/a	n/a	n/a	n/a	n/a	n/a	15	1	6	8	n/a	n/a	n/a	n/a	n/a
628758	PROB	n/a	LTP118	ltpFR	9	n/a	n/a	n/a	n/a	n/a	n/a	n/a	12	4	5	3	n/a	n/a	n/a	n/a	n/a
630140	PROB	n/a	LTP118	ltpFR	9	n/a	n/a	n/a	n/a	n/a	n/a	n/a	15	2	8	5	n/a	n/a	n/a	n/a	n/a
631789	STOP	n/a	LTP118	ltpFR	9	n/a	n/a	n/a	n/a	n/a	n/a	n/a	n/a	n/a	n/a	n/a	n/a	n/a	n/a	n/a	n/a
634052	WORD	wordpools/wasnorm_wordpool.txt	LTP118	ltpFR	9	3	0	CHIPMUNK	304	n/a	n/a	1	n/a	0	0	0	0.422607421875	0.5869140625	0	lower	zerothre.ttf
637057	START	n/a	LTP118	ltpFR	9	n/a	n/a	n/a	n/a	n/a	n/a	n/a	n/a	n/a	n/a	n/a	n/a	n/a	n/a	n/a	n/a
637998	PROB	n/a	LTP118	ltpFR	9	n/a	n/a	n/a	n/a	n/a	n/a	n/a	11	4	1	6	n/a	n/a	n/a	n/a	n/a
639329	PROB	n/a	LTP118	ltpFR	9	n/a	n/a	n/a	n/a	n/a	n/a	n/a	19	8	5	6	n/a	n/a	n/a	n/a	n/a
641943	PROB	n/a	LTP118	ltpFR	9	n/a	n/a	n/a	n/a	n/a	n/a	n/a	17	7	3	7	n/a	n/a	n/a	n/a	n/a
643901	STOP	n/a	LTP118	ltpFR	9	n/a	n/a	n/a	n/a	n/a	n/a	n/a	n/a	n/a	n/a	n/a	n/a	n/a	n/a	n/a	n/a
645938	WORD	wordpools/wasnorm_wordpool.txt	LTP118	ltpFR	9	3	0	BEEF	113	n/a	n/a	1	n/a	0	0	0	0.422607421875	0.5869140625	0	lower	zerothre.ttf
648944	START	n/a	LTP118	ltpFR	9	n/a	n/a	n/a	n/a	n/a	n/a	n/a	n/a	n/a	n/a	n/a	n/a	n/a	n/a	n/a	n/a
649800	PROB	n/a	LTP118	ltpFR	9	n/a	n/a	n/a	n/a	n/a	n/a	n/a	11	2	3	6	n/a	n/a	n/a	n/a	n/a
652056	PROB	n/a	LTP118	ltpFR	9	n/a	n/a	n/a	n/a	n/a	n/a	n/a	10	3	2	5	n/a	n/a	n/a	n/a	n/a
654387	PROB	n/a	LTP118	ltpFR	9	n/a	n/a	n/a	n/a	n/a	n/a	n/a	18	5	4	8	n/a	n/a	n/a	n/a	n/a
656508	STOP	n/a	LTP118	ltpFR	9	n/a	n/a	n/a	n/a	n/a	n/a	n/a	n/a	n/a	n/a	n/a	n/a	n/a	n/a	n/a	n/a
658074	WORD	wordpools/wasnorm_wordpool.txt	LTP118	ltpFR	9	3	0	OPERATOR	979	n/a	n/a	1	n/a	0	0	0	0.422607421875	0.5869140625	0	lower	zerothre.ttf
661080	START	n/a	LTP118	ltpFR	9	n/a	n/a	n/a	n/a	n/a	n/a	n/a	n/a	n/a	n/a	n/a	n/a	n/a	n/a	n/a	n/a
662186	PROB	n/a	LTP118	ltpFR	9	n/a	n/a	n/a	n/a	n/a	n/a	n/a	19	5	6	8	n/a	n/a	n/a	n/a	n/a
664499	PROB	n/a	LTP118	ltpFR	9	n/a	n/a	n/a	n/a	n/a	n/a	n/a	13	8	1	4	n/a	n/a	n/a	n/a	n/a
666839	PROB	n/a	LTP118	ltpFR	9	n/a	n/a	n/a	n/a	n/a	n/a	n/a	15	8	4	3	n/a	n/a	n/a	n/a	n/a
668732	STOP	n/a	LTP118	ltpFR	9	n/a	n/a	n/a	n/a	n/a	n/a	n/a	n/a	n/a	n/a	n/a	n/a	n/a	n/a	n/a	n/a
670069	WORD	wordpools/wasnorm_wordpool.txt	LTP118	ltpFR	9	3	1	REEF	1177	n/a	n/a	1	n/a	0	0	0	0.57763671875	0.412841796875	1	upper	amplitud.ttf
673074	START	n/a	LTP118	ltpFR	9	n/a	n/a	n/a	n/a	n/a	n/a	n/a	n/a	n/a	n/a	n/a	n/a	n/a	n/a	n/a	n/a
673898	PROB	n/a	LTP118	ltpFR	9	n/a	n/a	n/a	n/a	n/a	n/a	n/a	18	7	9	2	n/a	n/a	n/a	n/a	n/a
676445	PROB	n/a	LTP118	ltpFR	9	n/a	n/a	n/a	n/a	n/a	n/a	n/a	15	2	8	5	n/a	n/a	n/a	n/a	n/a
677785	PROB	n/a	LTP118	ltpFR	9	n/a	n/a	n/a	n/a	n/a	n/a	n/a	20	8	4	8	n/a	n/a	n/a	n/a	n/a
679997	STOP	n/a	LTP118	ltpFR	9	n/a	n/a	n/a	n/a	n/a	n/a	n/a	n/a	n/a	n/a	n/a	n/a	n/a	n/a	n/a	n/a
682046	WORD	wordpools/wasnorm_wordpool.txt	LTP118	ltpFR	9	3	1	DIVER	476	n/a	n/a	1	n/a	0	0	0	0.57763671875	0.412841796875	1	upper	amplitud.ttf
685052	START	n/a	LTP118	ltpFR	9	n/a	n/a	n/a	n/a	n/a	n/a	n/a	n/a	n/a	n/a	n/a	n/a	n/a	n/a	n/a	n/a
686150	PROB	n/a	LTP118	ltpFR	9	n/a	n/a	n/a	n/a	n/a	n/a	n/a	7	3	4	1	n/a	n/a	n/a	n/a	n/a
688356	PROB	n/a	LTP118	ltpFR	9	n/a	n/a	n/a	n/a	n/a	n/a	n/a	11	3	3	5	n/a	n/a	n/a	n/a	n/a
690969	PROB	n/a	LTP118	ltpFR	9	n/a	n/a	n/a	n/a	n/a	n/a	n/a	18	5	4	9	n/a	n/a	n/a	n/a	n/a
692540	STOP	n/a	LTP118	ltpFR	9	n/a	n/a	n/a	n/a	n/a	n/a	n/a	n/a	n/a	n/a	n/a	n/a	n/a	n/a	n/a	n/a
693874	WORD	wordpools/wasnorm_wordpool.txt	LTP118	ltpFR	9	3	1	BUTCHER	203	n/a	n/a	1	n/a	0	0	0	0.57763671875	0.412841796875	1	upper	amplitud.ttf
696880	START	n/a	LTP118	ltpFR	9	n/a	n/a	n/a	n/a	n/a	n/a	n/a	n/a	n/a	n/a	n/a	n/a	n/a	n/a	n/a	n/a
697719	PROB	n/a	LTP118	ltpFR	9	n/a	n/a	n/a	n/a	n/a	n/a	n/a	14	1	9	4	n/a	n/a	n/a	n/a	n/a
699235	PROB	n/a	LTP118	ltpFR	9	n/a	n/a	n/a	n/a	n/a	n/a	n/a	19	7	3	9	n/a	n/a	n/a	n/a	n/a
700991	PROB	n/a	LTP118	ltpFR	9	n/a	n/a	n/a	n/a	n/a	n/a	n/a	21	8	8	5	n/a	n/a	n/a	n/a	n/a
702756	PROB	n/a	LTP118	ltpFR	9	n/a	n/a	n/a	n/a	n/a	n/a	n/a	14	8	2	4	n/a	n/a	n/a	n/a	n/a
704572	STOP	n/a	LTP118	ltpFR	9	n/a	n/a	n/a	n/a	n/a	n/a	n/a	n/a	n/a	n/a	n/a	n/a	n/a	n/a	n/a	n/a
705935	WORD	wordpools/wasnorm_wordpool.txt	LTP118	ltpFR	9	3	0	PARSLEY	1016	n/a	n/a	0	n/a	0	0	0	0.422607421875	0.5869140625	0	lower	zerothre.ttf
708941	START	n/a	LTP118	ltpFR	9	n/a	n/a	n/a	n/a	n/a	n/a	n/a	n/a	n/a	n/a	n/a	n/a	n/a	n/a	n/a	n/a
709756	PROB	n/a	LTP118	ltpFR	9	n/a	n/a	n/a	n/a	n/a	n/a	n/a	17	6	9	2	n/a	n/a	n/a	n/a	n/a
712395	PROB	n/a	LTP118	ltpFR	9	n/a	n/a	n/a	n/a	n/a	n/a	n/a	13	3	2	8	n/a	n/a	n/a	n/a	n/a
714126	PROB	n/a	LTP118	ltpFR	9	n/a	n/a	n/a	n/a	n/a	n/a	n/a	9	1	3	5	n/a	n/a	n/a	n/a	n/a
715917	STOP	n/a	LTP118	ltpFR	9	n/a	n/a	n/a	n/a	n/a	n/a	n/a	n/a	n/a	n/a	n/a	n/a	n/a	n/a	n/a	n/a
717838	WORD	wordpools/wasnorm_wordpool.txt	LTP118	ltpFR	9	3	0	CLOCK	325	n/a	n/a	1	n/a	0	0	0	0.422607421875	0.5869140625	0	lower	zerothre.ttf
720843	START	n/a	LTP118	ltpFR	9	n/a	n/a	n/a	n/a	n/a	n/a	n/a	n/a	n/a	n/a	n/a	n/a	n/a	n/a	n/a	n/a
722042	PROB	n/a	LTP118	ltpFR	9	n/a	n/a	n/a	n/a	n/a	n/a	n/a	10	2	2	6	n/a	n/a	n/a	n/a	n/a
723390	PROB	n/a	LTP118	ltpFR	9	n/a	n/a	n/a	n/a	n/a	n/a	n/a	12	3	6	3	n/a	n/a	n/a	n/a	n/a
725163	PROB	n/a	LTP118	ltpFR	9	n/a	n/a	n/a	n/a	n/a	n/a	n/a	20	9	8	3	n/a	n/a	n/a	n/a	n/a
728061	STOP	n/a	LTP118	ltpFR	9	n/a	n/a	n/a	n/a	n/a	n/a	n/a	n/a	n/a	n/a	n/a	n/a	n/a	n/a	n/a	n/a
729791	WORD	wordpools/wasnorm_wordpool.txt	LTP118	ltpFR	9	3	1	CLERK	321	n/a	n/a	1	n/a	0	0	0	0.57763671875	0.412841796875	1	upper	amplitud.ttf
732796	START	n/a	LTP118	ltpFR	9	n/a	n/a	n/a	n/a	n/a	n/a	n/a	n/a	n/a	n/a	n/a	n/a	n/a	n/a	n/a	n/a
733969	PROB	n/a	LTP118	ltpFR	9	n/a	n/a	n/a	n/a	n/a	n/a	n/a	21	8	5	9	n/a	n/a	n/a	n/a	n/a
737199	PROB	n/a	LTP118	ltpFR	9	n/a	n/a	n/a	n/a	n/a	n/a	n/a	26	7	9	9	n/a	n/a	n/a	n/a	n/a
740500	STOP	n/a	LTP118	ltpFR	9	n/a	n/a	n/a	n/a	n/a	n/a	n/a	n/a	n/a	n/a	n/a	n/a	n/a	n/a	n/a	n/a
741744	WORD	wordpools/wasnorm_wordpool.txt	LTP118	ltpFR	9	3	1	DISHWASHER	475	n/a	n/a	0	n/a	0	0	0	0.57763671875	0.412841796875	1	upper	amplitud.ttf
744749	START	n/a	LTP118	ltpFR	9	n/a	n/a	n/a	n/a	n/a	n/a	n/a	n/a	n/a	n/a	n/a	n/a	n/a	n/a	n/a	n/a
745939	PROB	n/a	LTP118	ltpFR	9	n/a	n/a	n/a	n/a	n/a	n/a	n/a	22	8	7	7	n/a	n/a	n/a	n/a	n/a
748643	PROB	n/a	LTP118	ltpFR	9	n/a	n/a	n/a	n/a	n/a	n/a	n/a	11	3	7	1	n/a	n/a	n/a	n/a	n/a
749809	PROB	n/a	LTP118	ltpFR	9	n/a	n/a	n/a	n/a	n/a	n/a	n/a	14	3	2	9	n/a	n/a	n/a	n/a	n/a
751437	STOP	n/a	LTP118	ltpFR	9	n/a	n/a	n/a	n/a	n/a	n/a	n/a	n/a	n/a	n/a	n/a	n/a	n/a	n/a	n/a	n/a
753637	WORD	wordpools/wasnorm_wordpool.txt	LTP118	ltpFR	9	3	1	SUPERVISOR	1410	n/a	n/a	1	n/a	0	0	0	0.57763671875	0.412841796875	1	upper	amplitud.ttf
756643	START	n/a	LTP118	ltpFR	9	n/a	n/a	n/a	n/a	n/a	n/a	n/a	n/a	n/a	n/a	n/a	n/a	n/a	n/a	n/a	n/a
757549	PROB	n/a	LTP118	ltpFR	9	n/a	n/a	n/a	n/a	n/a	n/a	n/a	12	4	6	2	n/a	n/a	n/a	n/a	n/a
759423	PROB	n/a	LTP118	ltpFR	9	n/a	n/a	n/a	n/a	n/a	n/a	n/a	17	1	7	9	n/a	n/a	n/a	n/a	n/a
761695	PROB	n/a	LTP118	ltpFR	9	n/a	n/a	n/a	n/a	n/a	n/a	n/a	20	2	9	9	n/a	n/a	n/a	n/a	n/a
763365	STOP	n/a	LTP118	ltpFR	9	n/a	n/a	n/a	n/a	n/a	n/a	n/a	n/a	n/a	n/a	n/a	n/a	n/a	n/a	n/a	n/a
765532	WORD	wordpools/wasnorm_wordpool.txt	LTP118	ltpFR	9	3	1	MOAT	903	n/a	n/a	0	n/a	0	0	0	0.57763671875	0.412841796875	1	upper	amplitud.ttf
768537	START	n/a	LTP118	ltpFR	9	n/a	n/a	n/a	n/a	n/a	n/a	n/a	n/a	n/a	n/a	n/a	n/a	n/a	n/a	n/a	n/a
769420	PROB	n/a	LTP118	ltpFR	9	n/a	n/a	n/a	n/a	n/a	n/a	n/a	13	4	3	6	n/a	n/a	n/a	n/a	n/a
771867	PROB	n/a	LTP118	ltpFR	9	n/a	n/a	n/a	n/a	n/a	n/a	n/a	19	9	8	2	n/a	n/a	n/a	n/a	n/a
774248	PROB	n/a	LTP118	ltpFR	9	n/a	n/a	n/a	n/a	n/a	n/a	n/a	23	9	8	5	n/a	n/a	n/a	n/a	n/a
776421	STOP	n/a	LTP118	ltpFR	9	n/a	n/a	n/a	n/a	n/a	n/a	n/a	n/a	n/a	n/a	n/a	n/a	n/a	n/a	n/a	n/a
777626	WORD	wordpools/wasnorm_wordpool.txt	LTP118	ltpFR	9	3	1	THRONE	1461	n/a	n/a	0	n/a	0	0	0	0.57763671875	0.412841796875	1	upper	amplitud.ttf
780631	START	n/a	LTP118	ltpFR	9	n/a	n/a	n/a	n/a	n/a	n/a	n/a	n/a	n/a	n/a	n/a	n/a	n/a	n/a	n/a	n/a
781538	PROB	n/a	LTP118	ltpFR	9	n/a	n/a	n/a	n/a	n/a	n/a	n/a	18	9	7	2	n/a	n/a	n/a	n/a	n/a
784419	PROB	n/a	LTP118	ltpFR	9	n/a	n/a	n/a	n/a	n/a	n/a	n/a	18	2	7	8	n/a	n/a	n/a	n/a	n/a
787781	STOP	n/a	LTP118	ltpFR	9	n/a	n/a	n/a	n/a	n/a	n/a	n/a	n/a	n/a	n/a	n/a	n/a	n/a	n/a	n/a	n/a
789646	WORD	wordpools/wasnorm_wordpool.txt	LTP118	ltpFR	9	3	0	HANGER	687	n/a	n/a	1	n/a	0	0	0	0.422607421875	0.5869140625	0	lower	zerothre.ttf
792651	START	n/a	LTP118	ltpFR	9	n/a	n/a	n/a	n/a	n/a	n/a	n/a	n/a	n/a	n/a	n/a	n/a	n/a	n/a	n/a	n/a
793491	PROB	n/a	LTP118	ltpFR	9	n/a	n/a	n/a	n/a	n/a	n/a	n/a	11	5	4	2	n/a	n/a	n/a	n/a	n/a
795357	PROB	n/a	LTP118	ltpFR	9	n/a	n/a	n/a	n/a	n/a	n/a	n/a	219	7	7	5	n/a	n/a	n/a	n/a	n/a
800651	STOP	n/a	LTP118	ltpFR	9	n/a	n/a	n/a	n/a	n/a	n/a	n/a	n/a	n/a	n/a	n/a	n/a	n/a	n/a	n/a	n/a
801582	WORD	wordpools/wasnorm_wordpool.txt	LTP118	ltpFR	9	3	0	WARDROBE	1587	n/a	n/a	1	n/a	0	0	0	0.422607421875	0.5869140625	0	lower	zerothre.ttf
804587	START	n/a	LTP118	ltpFR	9	n/a	n/a	n/a	n/a	n/a	n/a	n/a	n/a	n/a	n/a	n/a	n/a	n/a	n/a	n/a	n/a
805428	PROB	n/a	LTP118	ltpFR	9	n/a	n/a	n/a	n/a	n/a	n/a	n/a	19	8	6	5	n/a	n/a	n/a	n/a	n/a
807708	PROB	n/a	LTP118	ltpFR	9	n/a	n/a	n/a	n/a	n/a	n/a	n/a	14	5	6	3	n/a	n/a	n/a	n/a	n/a
809424	PROB	n/a	LTP118	ltpFR	9	n/a	n/a	n/a	n/a	n/a	n/a	n/a	21	6	8	7	n/a	n/a	n/a	n/a	n/a
811845	STOP	n/a	LTP118	ltpFR	9	n/a	n/a	n/a	n/a	n/a	n/a	n/a	n/a	n/a	n/a	n/a	n/a	n/a	n/a	n/a	n/a
813559	WORD	wordpools/wasnorm_wordpool.txt	LTP118	ltpFR	9	3	0	SLIME	1327	n/a	n/a	1	n/a	0	0	0	0.422607421875	0.5869140625	0	lower	zerothre.ttf
816564	START	n/a	LTP118	ltpFR	9	n/a	n/a	n/a	n/a	n/a	n/a	n/a	n/a	n/a	n/a	n/a	n/a	n/a	n/a	n/a	n/a
817381	PROB	n/a	LTP118	ltpFR	9	n/a	n/a	n/a	n/a	n/a	n/a	n/a	21	7	8	6	n/a	n/a	n/a	n/a	n/a
819820	PROB	n/a	LTP118	ltpFR	9	n/a	n/a	n/a	n/a	n/a	n/a	n/a	9	5	4	4	n/a	n/a	n/a	n/a	n/a
824564	STOP	n/a	LTP118	ltpFR	9	n/a	n/a	n/a	n/a	n/a	n/a	n/a	n/a	n/a	n/a	n/a	n/a	n/a	n/a	n/a	n/a
826371	REC_START	n/a	LTP118	ltpFR	9	3	n/a	n/a	n/a	n/a	n/a	n/a	n/a	0	0	0	n/a	n/a	n/a	n/a	n/a
827458	REC_WORD	wordpools/wasnorm_wordpool.txt	LTP118	ltpFR	9	3	0	SLIME	1327	n/a	n/a	1	n/a	0	0	0	n/a	n/a	n/a	n/a	n/a
829209	REC_WORD	wordpools/wasnorm_wordpool.txt	LTP118	ltpFR	9	3	0	WARDROBE	1587	n/a	n/a	1	n/a	0	0	0	n/a	n/a	n/a	n/a	n/a
830935	REC_WORD	wordpools/wasnorm_wordpool.txt	LTP118	ltpFR	9	3	0	HANGER	687	n/a	n/a	1	n/a	0	0	0	n/a	n/a	n/a	n/a	n/a
832811	REC_WORD	wordpools/wasnorm_wordpool.txt	LTP118	ltpFR	9	3	0	PARSLEY	1016	n/a	n/a	0	n/a	0	0	0	n/a	n/a	n/a	n/a	n/a
839591	REC_WORD	wordpools/wasnorm_wordpool.txt	LTP118	ltpFR	9	3	1	BUTCHER	203	n/a	n/a	1	n/a	0	0	0	n/a	n/a	n/a	n/a	n/a
841087	REC_WORD	wordpools/wasnorm_wordpool.txt	LTP118	ltpFR	9	3	1	SUPERVISOR	1410	n/a	n/a	1	n/a	0	0	0	n/a	n/a	n/a	n/a	n/a
843657	REC_WORD	wordpools/wasnorm_wordpool.txt	LTP118	ltpFR	9	3	1	CLERK	321	n/a	n/a	1	n/a	0	0	0	n/a	n/a	n/a	n/a	n/a
850691	REC_WORD	wordpools/wasnorm_wordpool.txt	LTP118	ltpFR	9	3	1	DIVER	476	n/a	n/a	1	n/a	0	0	0	n/a	n/a	n/a	n/a	n/a
852960	REC_WORD	wordpools/wasnorm_wordpool.txt	LTP118	ltpFR	9	3	1	REEF	1177	n/a	n/a	1	n/a	0	0	0	n/a	n/a	n/a	n/a	n/a
942927	WORD	wordpools/wasnorm_wordpool.txt	LTP118	ltpFR	9	4	0	CARD	243	n/a	n/a	0	n/a	0	0	0	0.422607421875	0.5869140625	0	lower	zerothre.ttf
946947	WORD	wordpools/wasnorm_wordpool.txt	LTP118	ltpFR	9	4	0	REFEREE	1178	n/a	n/a	1	n/a	0	0	0	0.422607421875	0.5869140625	0	lower	zerothre.ttf
951142	WORD	wordpools/wasnorm_wordpool.txt	LTP118	ltpFR	9	4	0	TUNA	1518	n/a	n/a	1	n/a	0	0	0	0.422607421875	0.5869140625	0	lower	zerothre.ttf
955254	WORD	wordpools/wasnorm_wordpool.txt	LTP118	ltpFR	9	4	0	MAP	865	n/a	n/a	0	n/a	0	0	0	0.422607421875	0.5869140625	0	lower	zerothre.ttf
959200	WORD	wordpools/wasnorm_wordpool.txt	LTP118	ltpFR	9	4	0	SEED	1266	n/a	n/a	0	n/a	0	0	0	0.422607421875	0.5869140625	0	lower	zerothre.ttf
963237	WORD	wordpools/wasnorm_wordpool.txt	LTP118	ltpFR	9	4	0	UTENSIL	1542	n/a	n/a	0	n/a	0	0	0	0.422607421875	0.5869140625	0	lower	zerothre.ttf
967349	WORD	wordpools/wasnorm_wordpool.txt	LTP118	ltpFR	9	4	0	SILVERWARE	1308	n/a	n/a	0	n/a	0	0	0	0.422607421875	0.5869140625	0	lower	zerothre.ttf
971402	WORD	wordpools/wasnorm_wordpool.txt	LTP118	ltpFR	9	4	0	LAWYER	806	n/a	n/a	1	n/a	0	0	0	0.422607421875	0.5869140625	0	lower	zerothre.ttf
975406	WORD	wordpools/wasnorm_wordpool.txt	LTP118	ltpFR	9	4	0	WORLD	1622	n/a	n/a	1	n/a	0	0	0	0.422607421875	0.5869140625	0	lower	zerothre.ttf
979509	WORD	wordpools/wasnorm_wordpool.txt	LTP118	ltpFR	9	4	0	HEDGE	699	n/a	n/a	1	n/a	0	0	0	0.422607421875	0.5869140625	0	lower	zerothre.ttf
983438	WORD	wordpools/wasnorm_wordpool.txt	LTP118	ltpFR	9	4	0	DIAMOND	458	n/a	n/a	0	n/a	0	0	0	0.422607421875	0.5869140625	0	lower	zerothre.ttf
987558	WORD	wordpools/wasnorm_wordpool.txt	LTP118	ltpFR	9	4	0	PORPOISE	1109	n/a	n/a	1	n/a	0	0	0	0.422607421875	0.5869140625	0	lower	zerothre.ttf
991703	WORD	wordpools/wasnorm_wordpool.txt	LTP118	ltpFR	9	4	0	ROD	1203	n/a	n/a	0	n/a	0	0	0	0.422607421875	0.5869140625	0	lower	zerothre.ttf
995882	WORD	wordpools/wasnorm_wordpool.txt	LTP118	ltpFR	9	4	0	WORM	1623	n/a	n/a	0	n/a	0	0	0	0.422607421875	0.5869140625	0	lower	zerothre.ttf
999936	WORD	wordpools/wasnorm_wordpool.txt	LTP118	ltpFR	9	4	0	FRIAR	605	n/a	n/a	1	n/a	0	0	0	0.422607421875	0.5869140625	0	lower	zerothre.ttf
1003998	WORD	wordpools/wasnorm_wordpool.txt	LTP118	ltpFR	9	4	0	PORTRAIT	1111	n/a	n/a	0	n/a	0	0	0	0.422607421875	0.5869140625	0	lower	zerothre.ttf
1009732	REC_START	n/a	LTP118	ltpFR	9	4	n/a	n/a	n/a	n/a	n/a	n/a	n/a	0	0	0	n/a	n/a	n/a	n/a	n/a
1010635	REC_WORD	wordpools/wasnorm_wordpool.txt	LTP118	ltpFR	9	4	0	FRIAR	605	n/a	n/a	1	n/a	0	0	0	n/a	n/a	n/a	n/a	n/a
1012171	REC_WORD	wordpools/wasnorm_wordpool.txt	LTP118	ltpFR	9	4	0	PORTRAIT	1111	n/a	n/a	0	n/a	0	0	0	n/a	n/a	n/a	n/a	n/a
1013633	REC_WORD	wordpools/wasnorm_wordpool.txt	LTP118	ltpFR	9	4	0	PORPOISE	1109	n/a	n/a	1	n/a	0	0	0	n/a	n/a	n/a	n/a	n/a
1018232	REC_WORD	wordpools/wasnorm_wordpool.txt	LTP118	ltpFR	9	4	0	WORM	1623	n/a	n/a	0	n/a	0	0	0	n/a	n/a	n/a	n/a	n/a
1019594	REC_WORD	wordpools/wasnorm_wordpool.txt	LTP118	ltpFR	9	4	0	SEED	1266	n/a	n/a	0	n/a	0	0	0	n/a	n/a	n/a	n/a	n/a
1030190	REC_WORD	wordpools/wasnorm_wordpool.txt	LTP118	ltpFR	9	4	0	MAP	865	n/a	n/a	0	n/a	0	0	0	n/a	n/a	n/a	n/a	n/a
1031572	REC_WORD	wordpools/wasnorm_wordpool.txt	LTP118	ltpFR	9	4	0	REFEREE	1178	n/a	n/a	1	n/a	0	0	0	n/a	n/a	n/a	n/a	n/a
1035294	REC_WORD	wordpools/wasnorm_wordpool.txt	LTP118	ltpFR	9	4	0	LAWYER	806	n/a	n/a	1	n/a	0	0	0	n/a	n/a	n/a	n/a	n/a
1038052	REC_WORD	wordpools/wasnorm_wordpool.txt	LTP118	ltpFR	9	4	0	UTENSIL	1542	n/a	n/a	0	n/a	0	0	0	n/a	n/a	n/a	n/a	n/a
1039619	REC_WORD	wordpools/wasnorm_wordpool.txt	LTP118	ltpFR	9	4	0	SILVERWARE	1308	n/a	n/a	0	n/a	0	0	0	n/a	n/a	n/a	n/a	n/a
1108534	WORD	wordpools/wasnorm_wordpool.txt	LTP118	ltpFR	9	5	0	NECK	939	n/a	n/a	0	n/a	0	0	0	0.422607421875	0.5869140625	0	lower	zerothre.ttf
1112721	WORD	wordpools/wasnorm_wordpool.txt	LTP118	ltpFR	9	5	0	GANG	619	n/a	n/a	1	n/a	0	0	0	0.422607421875	0.5869140625	0	lower	zerothre.ttf
1116858	WORD	wordpools/wasnorm_wordpool.txt	LTP118	ltpFR	9	5	0	MAMMAL	861	n/a	n/a	1	n/a	0	0	0	0.422607421875	0.5869140625	0	lower	zerothre.ttf
1120695	WORD	wordpools/wasnorm_wordpool.txt	LTP118	ltpFR	9	5	1	FOSSIL	596	n/a	n/a	0	n/a	0	0	0	0.57763671875	0.412841796875	1	upper	amplitud.ttf
1124883	WORD	wordpools/wasnorm_wordpool.txt	LTP118	ltpFR	9	5	1	SALIVA	1226	n/a	n/a	0	n/a	0	0	0	0.57763671875	0.412841796875	1	upper	amplitud.ttf
1129036	WORD	wordpools/wasnorm_wordpool.txt	LTP118	ltpFR	9	5	1	PAIL	1002	n/a	n/a	0	n/a	0	0	0	0.57763671875	0.412841796875	1	upper	amplitud.ttf
1133056	WORD	wordpools/wasnorm_wordpool.txt	LTP118	ltpFR	9	5	1	KING	777	n/a	n/a	1	n/a	0	0	0	0.57763671875	0.412841796875	1	upper	amplitud.ttf
1137218	WORD	wordpools/wasnorm_wordpool.txt	LTP118	ltpFR	9	5	0	TROUSERS	1510	n/a	n/a	1	n/a	0	0	0	0.422607421875	0.5869140625	0	lower	zerothre.ttf
1141305	WORD	wordpools/wasnorm_wordpool.txt	LTP118	ltpFR	9	5	0	SLACKS	1323	n/a	n/a	1	n/a	0	0	0	0.422607421875	0.5869140625	0	lower	zerothre.ttf
1145367	WORD	wordpools/wasnorm_wordpool.txt	LTP118	ltpFR	9	5	1	NAPKIN	937	n/a	n/a	2	n/a	0	0	0	0.57763671875	0.412841796875	1	upper	amplitud.ttf
1146216	KEY_MSG	n/a	LTP118	ltpFR	9	5	n/a	n/a	n/a	n/a	n/a	n/a	n/a	0	0	0	n/a	n/a	n/a	n/a	n/a
1149412	WORD	wordpools/wasnorm_wordpool.txt	LTP118	ltpFR	9	5	1	TOMATO	1476	n/a	n/a	1	n/a	0	0	0	0.57763671875	0.412841796875	1	upper	amplitud.ttf
1153391	WORD	wordpools/wasnorm_wordpool.txt	LTP118	ltpFR	9	5	1	BEET	115	n/a	n/a	1	n/a	0	0	0	0.57763671875	0.412841796875	1	upper	amplitud.ttf
1157569	WORD	wordpools/wasnorm_wordpool.txt	LTP118	ltpFR	9	5	1	BUFFALO	186	n/a	n/a	1	n/a	0	0	0	0.57763671875	0.412841796875	1	upper	amplitud.ttf
1161773	WORD	wordpools/wasnorm_wordpool.txt	LTP118	ltpFR	9	5	0	OX	994	n/a	n/a	1	n/a	0	0	0	0.422607421875	0.5869140625	0	lower	zerothre.ttf
1165885	WORD	wordpools/wasnorm_wordpool.txt	LTP118	ltpFR	9	5	0	STABLE	1363	n/a	n/a	1	n/a	0	0	0	0.422607421875	0.5869140625	0	lower	zerothre.ttf
1169955	WORD	wordpools/wasnorm_wordpool.txt	LTP118	ltpFR	9	5	0	SUBMARINE	1398	n/a	n/a	1	n/a	0	0	0	0.422607421875	0.5869140625	0	lower	zerothre.ttf
1172960	START	n/a	LTP118	ltpFR	9	n/a	n/a	n/a	n/a	n/a	n/a	n/a	n/a	n/a	n/a	n/a	n/a	n/a	n/a	n/a	n/a
1174100	PROB	n/a	LTP118	ltpFR	9	n/a	n/a	n/a	n/a	n/a	n/a	n/a	5	4	1	1	n/a	n/a	n/a	n/a	n/a
1176056	PROB	n/a	LTP118	ltpFR	9	n/a	n/a	n/a	n/a	n/a	n/a	n/a	10	3	1	6	n/a	n/a	n/a	n/a	n/a
1178004	PROB	n/a	LTP118	ltpFR	9	n/a	n/a	n/a	n/a	n/a	n/a	n/a	10	3	4	4	n/a	n/a	n/a	n/a	n/a
1180429	STOP	n/a	LTP118	ltpFR	9	n/a	n/a	n/a	n/a	n/a	n/a	n/a	n/a	n/a	n/a	n/a	n/a	n/a	n/a	n/a	n/a
1182857	REC_START	n/a	LTP118	ltpFR	9	5	n/a	n/a	n/a	n/a	n/a	n/a	n/a	0	0	0	n/a	n/a	n/a	n/a	n/a
1187751	REC_WORD	wordpools/wasnorm_wordpool.txt	LTP118	ltpFR	9	5	1	NAPKIN	937	n/a	n/a	2	n/a	0	0	0	n/a	n/a	n/a	n/a	n/a
1189626	REC_WORD	wordpools/wasnorm_wordpool.txt	LTP118	ltpFR	9	5	0	NECK	939	n/a	n/a	0	n/a	0	0	0	n/a	n/a	n/a	n/a	n/a
1191173	REC_WORD	wordpools/wasnorm_wordpool.txt	LTP118	ltpFR	9	5	1	TOMATO	1476	n/a	n/a	1	n/a	0	0	0	n/a	n/a	n/a	n/a	n/a
1192909	REC_WORD	wordpools/wasnorm_wordpool.txt	LTP118	ltpFR	9	5	1	BEET	115	n/a	n/a	1	n/a	0	0	0	n/a	n/a	n/a	n/a	n/a
1195034	REC_WORD	wordpools/wasnorm_wordpool.txt	LTP118	ltpFR	9	5	0	OX	994	n/a	n/a	1	n/a	0	0	0	n/a	n/a	n/a	n/a	n/a
1196615	REC_WORD	wordpools/wasnorm_wordpool.txt	LTP118	ltpFR	9	5	1	BUFFALO	186	n/a	n/a	1	n/a	0	0	0	n/a	n/a	n/a	n/a	n/a
1204747	REC_WORD	wordpools/wasnorm_wordpool.txt	LTP118	ltpFR	9	5	0	TROUSERS	1510	n/a	n/a	1	n/a	0	0	0	n/a	n/a	n/a	n/a	n/a
1275474	START	n/a	LTP118	ltpFR	9	n/a	n/a	n/a	n/a	n/a	n/a	n/a	n/a	n/a	n/a	n/a	n/a	n/a	n/a	n/a	n/a
1276981	PROB	n/a	LTP118	ltpFR	9	n/a	n/a	n/a	n/a	n/a	n/a	n/a	11	3	7	4	n/a	n/a	n/a	n/a	n/a
1278796	PROB	n/a	LTP118	ltpFR	9	n/a	n/a	n/a	n/a	n/a	n/a	n/a	8	1	3	4	n/a	n/a	n/a	n/a	n/a
1280868	PROB	n/a	LTP118	ltpFR	9	n/a	n/a	n/a	n/a	n/a	n/a	n/a	13	8	2	3	n/a	n/a	n/a	n/a	n/a
1282158	PROB	n/a	LTP118	ltpFR	9	n/a	n/a	n/a	n/a	n/a	n/a	n/a	14	5	4	5	n/a	n/a	n/a	n/a	n/a
1283823	PROB	n/a	LTP118	ltpFR	9	n/a	n/a	n/a	n/a	n/a	n/a	n/a	20	2	9	9	n/a	n/a	n/a	n/a	n/a
1285479	PROB	n/a	LTP118	ltpFR	9	n/a	n/a	n/a	n/a	n/a	n/a	n/a	22	9	7	6	n/a	n/a	n/a	n/a	n/a
1288683	PROB	n/a	LTP118	ltpFR	9	n/a	n/a	n/a	n/a	n/a	n/a	n/a	15	3	4	8	n/a	n/a	n/a	n/a	n/a
1290716	STOP	n/a	LTP118	ltpFR	9	n/a	n/a	n/a	n/a	n/a	n/a	n/a	n/a	n/a	n/a	n/a	n/a	n/a	n/a	n/a	n/a
1292380	WORD	wordpools/wasnorm_wordpool.txt	LTP118	ltpFR	9	6	1	OVEN	991	n/a	n/a	0	n/a	0	0	0	0.57763671875	0.412841796875	1	upper	amplitud.ttf
1295385	START	n/a	LTP118	ltpFR	9	n/a	n/a	n/a	n/a	n/a	n/a	n/a	n/a	n/a	n/a	n/a	n/a	n/a	n/a	n/a	n/a
1296557	PROB	n/a	LTP118	ltpFR	9	n/a	n/a	n/a	n/a	n/a	n/a	n/a	19	7	7	5	n/a	n/a	n/a	n/a	n/a
1298323	PROB	n/a	LTP118	ltpFR	9	n/a	n/a	n/a	n/a	n/a	n/a	n/a	23	9	6	8	n/a	n/a	n/a	n/a	n/a
1300711	PROB	n/a	LTP118	ltpFR	9	n/a	n/a	n/a	n/a	n/a	n/a	n/a	13	1	8	4	n/a	n/a	n/a	n/a	n/a
1302993	PROB	n/a	LTP118	ltpFR	9	n/a	n/a	n/a	n/a	n/a	n/a	n/a	13	6	5	2	n/a	n/a	n/a	n/a	n/a
1305440	PROB	n/a	LTP118	ltpFR	9	n/a	n/a	n/a	n/a	n/a	n/a	n/a	6	1	3	2	n/a	n/a	n/a	n/a	n/a
1306905	PROB	n/a	LTP118	ltpFR	9	n/a	n/a	n/a	n/a	n/a	n/a	n/a	20	8	9	3	n/a	n/a	n/a	n/a	n/a
1311385	STOP	n/a	LTP118	ltpFR	9	n/a	n/a	n/a	n/a	n/a	n/a	n/a	n/a	n/a	n/a	n/a	n/a	n/a	n/a	n/a	n/a
1312332	WORD	wordpools/wasnorm_wordpool.txt	LTP118	ltpFR	9	6	1	TOAST	1471	n/a	n/a	0	n/a	0	0	0	0.57763671875	0.412841796875	1	upper	amplitud.ttf
1315337	START	n/a	LTP118	ltpFR	9	n/a	n/a	n/a	n/a	n/a	n/a	n/a	n/a	n/a	n/a	n/a	n/a	n/a	n/a	n/a	n/a
1316302	PROB	n/a	LTP118	ltpFR	9	n/a	n/a	n/a	n/a	n/a	n/a	n/a	11	1	3	7	n/a	n/a	n/a	n/a	n/a
1317533	PROB	n/a	LTP118	ltpFR	9	n/a	n/a	n/a	n/a	n/a	n/a	n/a	20	7	9	4	n/a	n/a	n/a	n/a	n/a
1319790	PROB	n/a	LTP118	ltpFR	9	n/a	n/a	n/a	n/a	n/a	n/a	n/a	14	2	6	9	n/a	n/a	n/a	n/a	n/a
1321821	PROB	n/a	LTP118	ltpFR	9	n/a	n/a	n/a	n/a	n/a	n/a	n/a	16	7	1	8	n/a	n/a	n/a	n/a	n/a
1324060	PROB	n/a	LTP118	ltpFR	9	n/a	n/a	n/a	n/a	n/a	n/a	n/a	10	1	1	8	n/a	n/a	n/a	n/a	n/a
1325250	PROB	n/a	LTP118	ltpFR	9	n/a	n/a	n/a	n/a	n/a	n/a	n/a	16	8	1	7	n/a	n/a	n/a	n/a	n/a
1327223	PROB	n/a	LTP118	ltpFR	9	n/a	n/a	n/a	n/a	n/a	n/a	n/a	14	6	2	6	n/a	n/a	n/a	n/a	n/a
1331337	STOP	n/a	LTP118	ltpFR	9	n/a	n/a	n/a	n/a	n/a	n/a	n/a	n/a	n/a	n/a	n/a	n/a	n/a	n/a	n/a	n/a
1332275	WORD	wordpools/wasnorm_wordpool.txt	LTP118	ltpFR	9	6	1	FISH	571	n/a	n/a	1	n/a	0	0	0	0.57763671875	0.412841796875	1	upper	amplitud.ttf
1335280	START	n/a	LTP118	ltpFR	9	n/a	n/a	n/a	n/a	n/a	n/a	n/a	n/a	n/a	n/a	n/a	n/a	n/a	n/a	n/a	n/a
1336354	PROB	n/a	LTP118	ltpFR	9	n/a	n/a	n/a	n/a	n/a	n/a	n/a	18	8	3	7	n/a	n/a	n/a	n/a	n/a
1338768	PROB	n/a	LTP118	ltpFR	9	n/a	n/a	n/a	n/a	n/a	n/a	n/a	11	1	5	5	n/a	n/a	n/a	n/a	n/a
1339891	PROB	n/a	LTP118	ltpFR	9	n/a	n/a	n/a	n/a	n/a	n/a	n/a	13	3	1	7	n/a	n/a	n/a	n/a	n/a
1341514	PROB	n/a	LTP118	ltpFR	9	n/a	n/a	n/a	n/a	n/a	n/a	n/a	10	7	1	2	n/a	n/a	n/a	n/a	n/a
1345435	PROB	n/a	LTP118	ltpFR	9	n/a	n/a	n/a	n/a	n/a	n/a	n/a	8	2	3	3	n/a	n/a	n/a	n/a	n/a
1346842	PROB	n/a	LTP118	ltpFR	9	n/a	n/a	n/a	n/a	n/a	n/a	n/a	10	1	2	7	n/a	n/a	n/a	n/a	n/a
1348589	PROB	n/a	LTP118	ltpFR	9	n/a	n/a	n/a	n/a	n/a	n/a	n/a	16	9	3	4	n/a	n/a	n/a	n/a	n/a
1350813	STOP	n/a	LTP118	ltpFR	9	n/a	n/a	n/a	n/a	n/a	n/a	n/a	n/a	n/a	n/a	n/a	n/a	n/a	n/a	n/a	n/a
1352385	WORD	wordpools/wasnorm_wordpool.txt	LTP118	ltpFR	9	6	0	FUR	615	n/a	n/a	0	n/a	0	0	0	0.422607421875	0.5869140625	0	lower	zerothre.ttf
1355390	START	n/a	LTP118	ltpFR	9	n/a	n/a	n/a	n/a	n/a	n/a	n/a	n/a	n/a	n/a	n/a	n/a	n/a	n/a	n/a	n/a
1356231	PROB	n/a	LTP118	ltpFR	9	n/a	n/a	n/a	n/a	n/a	n/a	n/a	16	5	8	3	n/a	n/a	n/a	n/a	n/a
1358619	PROB	n/a	LTP118	ltpFR	9	n/a	n/a	n/a	n/a	n/a	n/a	n/a	14	3	6	5	n/a	n/a	n/a	n/a	n/a
1362116	PROB	n/a	LTP118	ltpFR	9	n/a	n/a	n/a	n/a	n/a	n/a	n/a	11	3	4	4	n/a	n/a	n/a	n/a	n/a
1364528	PROB	n/a	LTP118	ltpFR	9	n/a	n/a	n/a	n/a	n/a	n/a	n/a	13	5	1	7	n/a	n/a	n/a	n/a	n/a
1366651	PROB	n/a	LTP118	ltpFR	9	n/a	n/a	n/a	n/a	n/a	n/a	n/a	14	2	2	7	n/a	n/a	n/a	n/a	n/a
1368549	PROB	n/a	LTP118	ltpFR	9	n/a	n/a	n/a	n/a	n/a	n/a	n/a	19	8	8	3	n/a	n/a	n/a	n/a	n/a
1370548	STOP	n/a	LTP118	ltpFR	9	n/a	n/a	n/a	n/a	n/a	n/a	n/a	n/a	n/a	n/a	n/a	n/a	n/a	n/a	n/a	n/a
1372229	WORD	wordpools/wasnorm_wordpool.txt	LTP118	ltpFR	9	6	0	COAT	333	n/a	n/a	1	n/a	0	0	0	0.422607421875	0.5869140625	0	lower	zerothre.ttf
1375234	START	n/a	LTP118	ltpFR	9	n/a	n/a	n/a	n/a	n/a	n/a	n/a	n/a	n/a	n/a	n/a	n/a	n/a	n/a	n/a	n/a
1376341	PROB	n/a	LTP118	ltpFR	9	n/a	n/a	n/a	n/a	n/a	n/a	n/a	16	4	9	3	n/a	n/a	n/a	n/a	n/a
1379519	PROB	n/a	LTP118	ltpFR	9	n/a	n/a	n/a	n/a	n/a	n/a	n/a	14	4	2	8	n/a	n/a	n/a	n/a	n/a
1381934	PROB	n/a	LTP118	ltpFR	9	n/a	n/a	n/a	n/a	n/a	n/a	n/a	15	4	8	3	n/a	n/a	n/a	n/a	n/a
1383731	PROB	n/a	LTP118	ltpFR	9	n/a	n/a	n/a	n/a	n/a	n/a	n/a	22	9	8	5	n/a	n/a	n/a	n/a	n/a
1388743	PROB	n/a	LTP118	ltpFR	9	n/a	n/a	n/a	n/a	n/a	n/a	n/a	15	9	5	1	n/a	n/a	n/a	n/a	n/a
1390732	STOP	n/a	LTP118	ltpFR	9	n/a	n/a	n/a	n/a	n/a	n/a	n/a	n/a	n/a	n/a	n/a	n/a	n/a	n/a	n/a	n/a
1392380	WORD	wordpools/wasnorm_wordpool.txt	LTP118	ltpFR	9	6	0	HELMET	702	n/a	n/a	0	n/a	0	0	0	0.422607421875	0.5869140625	0	lower	zerothre.ttf
1395386	START	n/a	LTP118	ltpFR	9	n/a	n/a	n/a	n/a	n/a	n/a	n/a	n/a	n/a	n/a	n/a	n/a	n/a	n/a	n/a	n/a
1396558	PROB	n/a	LTP118	ltpFR	9	n/a	n/a	n/a	n/a	n/a	n/a	n/a	18	5	6	7	n/a	n/a	n/a	n/a	n/a
1399738	PROB	n/a	LTP118	ltpFR	9	n/a	n/a	n/a	n/a	n/a	n/a	n/a	15	8	2	5	n/a	n/a	n/a	n/a	n/a
1401345	PROB	n/a	LTP118	ltpFR	9	n/a	n/a	n/a	n/a	n/a	n/a	n/a	10	1	6	3	n/a	n/a	n/a	n/a	n/a
1411385	STOP	n/a	LTP118	ltpFR	9	n/a	n/a	n/a	n/a	n/a	n/a	n/a	n/a	n/a	n/a	n/a	n/a	n/a	n/a	n/a	n/a
1412249	WORD	wordpools/wasnorm_wordpool.txt	LTP118	ltpFR	9	6	1	THESAURUS	1454	n/a	n/a	0	n/a	0	0	0	0.57763671875	0.412841796875	1	upper	amplitud.ttf
1415254	START	n/a	LTP118	ltpFR	9	n/a	n/a	n/a	n/a	n/a	n/a	n/a	n/a	n/a	n/a	n/a	n/a	n/a	n/a	n/a	n/a
1416111	PROB	n/a	LTP118	ltpFR	9	n/a	n/a	n/a	n/a	n/a	n/a	n/a	13	9	2	2	n/a	n/a	n/a	n/a	n/a
1418682	PROB	n/a	LTP118	ltpFR	9	n/a	n/a	n/a	n/a	n/a	n/a	n/a	8	3	4	1	n/a	n/a	n/a	n/a	n/a
1422903	PROB	n/a	LTP118	ltpFR	9	n/a	n/a	n/a	n/a	n/a	n/a	n/a	20	6	6	8	n/a	n/a	n/a	n/a	n/a
1425758	PROB	n/a	LTP118	ltpFR	9	n/a	n/a	n/a	n/a	n/a	n/a	n/a	9	1	4	4	n/a	n/a	n/a	n/a	n/a
1431254	STOP	n/a	LTP118	ltpFR	9	n/a	n/a	n/a	n/a	n/a	n/a	n/a	n/a	n/a	n/a	n/a	n/a	n/a	n/a	n/a	n/a
1432259	WORD	wordpools/wasnorm_wordpool.txt	LTP118	ltpFR	9	6	1	VILLAIN	1567	n/a	n/a	1	n/a	0	0	0	0.57763671875	0.412841796875	1	upper	amplitud.ttf
1435264	START	n/a	LTP118	ltpFR	9	n/a	n/a	n/a	n/a	n/a	n/a	n/a	n/a	n/a	n/a	n/a	n/a	n/a	n/a	n/a	n/a
1436113	PROB	n/a	LTP118	ltpFR	9	n/a	n/a	n/a	n/a	n/a	n/a	n/a	20	5	7	8	n/a	n/a	n/a	n/a	n/a
1439276	PROB	n/a	LTP118	ltpFR	9	n/a	n/a	n/a	n/a	n/a	n/a	n/a	12	5	6	1	n/a	n/a	n/a	n/a	n/a
1441349	PROB	n/a	LTP118	ltpFR	9	n/a	n/a	n/a	n/a	n/a	n/a	n/a	12	7	3	2	n/a	n/a	n/a	n/a	n/a
1442721	PROB	n/a	LTP118	ltpFR	9	n/a	n/a	n/a	n/a	n/a	n/a	n/a	15	6	2	7	n/a	n/a	n/a	n/a	n/a
1444702	PROB	n/a	LTP118	ltpFR	9	n/a	n/a	n/a	n/a	n/a	n/a	n/a	14	4	9	1	n/a	n/a	n/a	n/a	n/a
1446301	PROB	n/a	LTP118	ltpFR	9	n/a	n/a	n/a	n/a	n/a	n/a	n/a	17	7	2	8	n/a	n/a	n/a	n/a	n/a
1448932	PROB	n/a	LTP118	ltpFR	9	n/a	n/a	n/a	n/a	n/a	n/a	n/a	17	6	7	4	n/a	n/a	n/a	n/a	n/a
1451085	STOP	n/a	LTP118	ltpFR	9	n/a	n/a	n/a	n/a	n/a	n/a	n/a	n/a	n/a	n/a	n/a	n/a	n/a	n/a	n/a	n/a
1452452	WORD	wordpools/wasnorm_wordpool.txt	LTP118	ltpFR	9	6	0	STADIUM	1364	n/a	n/a	1	n/a	0	0	0	0.422607421875	0.5869140625	0	lower	zerothre.ttf
1455458	START	n/a	LTP118	ltpFR	9	n/a	n/a	n/a	n/a	n/a	n/a	n/a	n/a	n/a	n/a	n/a	n/a	n/a	n/a	n/a	n/a
1456464	PROB	n/a	LTP118	ltpFR	9	n/a	n/a	n/a	n/a	n/a	n/a	n/a	17	5	5	7	n/a	n/a	n/a	n/a	n/a
1457896	PROB	n/a	LTP118	ltpFR	9	n/a	n/a	n/a	n/a	n/a	n/a	n/a	11	2	4	5	n/a	n/a	n/a	n/a	n/a
1460160	PROB	n/a	LTP118	ltpFR	9	n/a	n/a	n/a	n/a	n/a	n/a	n/a	14	8	5	1	n/a	n/a	n/a	n/a	n/a
1461900	PROB	n/a	LTP118	ltpFR	9	n/a	n/a	n/a	n/a	n/a	n/a	n/a	16	3	8	5	n/a	n/a	n/a	n/a	n/a
1464239	PROB	n/a	LTP118	ltpFR	9	n/a	n/a	n/a	n/a	n/a	n/a	n/a	21	6	8	7	n/a	n/a	n/a	n/a	n/a
1466403	PROB	n/a	LTP118	ltpFR	9	n/a	n/a	n/a	n/a	n/a	n/a	n/a	12	3	7	2	n/a	n/a	n/a	n/a	n/a
1467959	PROB	n/a	LTP118	ltpFR	9	n/a	n/a	n/a	n/a	n/a	n/a	n/a	20	5	7	8	n/a	n/a	n/a	n/a	n/a
1470540	STOP	n/a	LTP118	ltpFR	9	n/a	n/a	n/a	n/a	n/a	n/a	n/a	n/a	n/a	n/a	n/a	n/a	n/a	n/a	n/a	n/a
1472313	WORD	wordpools/wasnorm_wordpool.txt	LTP118	ltpFR	9	6	0	DUNE	506	n/a	n/a	1	n/a	0	0	0	0.422607421875	0.5869140625	0	lower	zerothre.ttf
1475318	START	n/a	LTP118	ltpFR	9	n/a	n/a	n/a	n/a	n/a	n/a	n/a	n/a	n/a	n/a	n/a	n/a	n/a	n/a	n/a	n/a
1476242	PROB	n/a	LTP118	ltpFR	9	n/a	n/a	n/a	n/a	n/a	n/a	n/a	14	2	4	8	n/a	n/a	n/a	n/a	n/a
1478588	PROB	n/a	LTP118	ltpFR	9	n/a	n/a	n/a	n/a	n/a	n/a	n/a	16	5	3	8	n/a	n/a	n/a	n/a	n/a
1480928	PROB	n/a	LTP118	ltpFR	9	n/a	n/a	n/a	n/a	n/a	n/a	n/a	11	9	1	1	n/a	n/a	n/a	n/a	n/a
1482093	PROB	n/a	LTP118	ltpFR	9	n/a	n/a	n/a	n/a	n/a	n/a	n/a	14	7	4	3	n/a	n/a	n/a	n/a	n/a
1484539	PROB	n/a	LTP118	ltpFR	9	n/a	n/a	n/a	n/a	n/a	n/a	n/a	19	5	5	9	n/a	n/a	n/a	n/a	n/a
1485897	PROB	n/a	LTP118	ltpFR	9	n/a	n/a	n/a	n/a	n/a	n/a	n/a	5	1	1	3	n/a	n/a	n/a	n/a	n/a
1487229	PROB	n/a	LTP118	ltpFR	9	n/a	n/a	n/a	n/a	n/a	n/a	n/a	9	4	4	1	n/a	n/a	n/a	n/a	n/a
1488744	PROB	n/a	LTP118	ltpFR	9	n/a	n/a	n/a	n/a	n/a	n/a	n/a	14	1	5	8	n/a	n/a	n/a	n/a	n/a
1490797	STOP	n/a	LTP118	ltpFR	9	n/a	n/a	n/a	n/a	n/a	n/a	n/a	n/a	n/a	n/a	n/a	n/a	n/a	n/a	n/a	n/a
1492248	WORD	wordpools/wasnorm_wordpool.txt	LTP118	ltpFR	9	6	0	PRODUCER	1129	n/a	n/a	1	n/a	0	0	0	0.422607421875	0.5869140625	0	lower	zerothre.ttf
1495253	START	n/a	LTP118	ltpFR	9	n/a	n/a	n/a	n/a	n/a	n/a	n/a	n/a	n/a	n/a	n/a	n/a	n/a	n/a	n/a	n/a
1496152	PROB	n/a	LTP118	ltpFR	9	n/a	n/a	n/a	n/a	n/a	n/a	n/a	16	6	7	3	n/a	n/a	n/a	n/a	n/a
1498648	PROB	n/a	LTP118	ltpFR	9	n/a	n/a	n/a	n/a	n/a	n/a	n/a	14	4	1	9	n/a	n/a	n/a	n/a	n/a
1500888	PROB	n/a	LTP118	ltpFR	9	n/a	n/a	n/a	n/a	n/a	n/a	n/a	21	9	7	5	n/a	n/a	n/a	n/a	n/a
1506398	PROB	n/a	LTP118	ltpFR	9	n/a	n/a	n/a	n/a	n/a	n/a	n/a	17	5	9	3	n/a	n/a	n/a	n/a	n/a
1508829	PROB	n/a	LTP118	ltpFR	9	n/a	n/a	n/a	n/a	n/a	n/a	n/a	14	1	5	9	n/a	n/a	n/a	n/a	n/a
1510580	STOP	n/a	LTP118	ltpFR	9	n/a	n/a	n/a	n/a	n/a	n/a	n/a	n/a	n/a	n/a	n/a	n/a	n/a	n/a	n/a	n/a
1512291	WORD	wordpools/wasnorm_wordpool.txt	LTP118	ltpFR	9	6	0	BONE	148	n/a	n/a	0	n/a	0	0	0	0.422607421875	0.5869140625	0	lower	zerothre.ttf
1515297	START	n/a	LTP118	ltpFR	9	n/a	n/a	n/a	n/a	n/a	n/a	n/a	n/a	n/a	n/a	n/a	n/a	n/a	n/a	n/a	n/a
1516337	PROB	n/a	LTP118	ltpFR	9	n/a	n/a	n/a	n/a	n/a	n/a	n/a	16	8	6	2	n/a	n/a	n/a	n/a	n/a
1518900	PROB	n/a	LTP118	ltpFR	9	n/a	n/a	n/a	n/a	n/a	n/a	n/a	14	4	9	1	n/a	n/a	n/a	n/a	n/a
1521456	PROB	n/a	LTP118	ltpFR	9	n/a	n/a	n/a	n/a	n/a	n/a	n/a	13	6	5	2	n/a	n/a	n/a	n/a	n/a
1523895	PROB	n/a	LTP118	ltpFR	9	n/a	n/a	n/a	n/a	n/a	n/a	n/a	18	5	7	6	n/a	n/a	n/a	n/a	n/a
1526308	PROB	n/a	LTP118	ltpFR	9	n/a	n/a	n/a	n/a	n/a	n/a	n/a	10	7	1	2	n/a	n/a	n/a	n/a	n/a
1527898	PROB	n/a	LTP118	ltpFR	9	n/a	n/a	n/a	n/a	n/a	n/a	n/a	13	5	6	2	n/a	n/a	n/a	n/a	n/a
1530053	STOP	n/a	LTP118	ltpFR	9	n/a	n/a	n/a	n/a	n/a	n/a	n/a	n/a	n/a	n/a	n/a	n/a	n/a	n/a	n/a	n/a
1532360	WORD	wordpools/wasnorm_wordpool.txt	LTP118	ltpFR	9	6	0	TRAITOR	1495	n/a	n/a	1	n/a	0	0	0	0.422607421875	0.5869140625	0	lower	zerothre.ttf
1535365	START	n/a	LTP118	ltpFR	9	n/a	n/a	n/a	n/a	n/a	n/a	n/a	n/a	n/a	n/a	n/a	n/a	n/a	n/a	n/a	n/a
1536297	PROB	n/a	LTP118	ltpFR	9	n/a	n/a	n/a	n/a	n/a	n/a	n/a	10	1	1	8	n/a	n/a	n/a	n/a	n/a
1538128	PROB	n/a	LTP118	ltpFR	9	n/a	n/a	n/a	n/a	n/a	n/a	n/a	10	2	5	3	n/a	n/a	n/a	n/a	n/a
1539884	PROB	n/a	LTP118	ltpFR	9	n/a	n/a	n/a	n/a	n/a	n/a	n/a	15	1	9	5	n/a	n/a	n/a	n/a	n/a
1541441	PROB	n/a	LTP118	ltpFR	9	n/a	n/a	n/a	n/a	n/a	n/a	n/a	13	3	3	7	n/a	n/a	n/a	n/a	n/a
1543214	PROB	n/a	LTP118	ltpFR	9	n/a	n/a	n/a	n/a	n/a	n/a	n/a	14	1	9	4	n/a	n/a	n/a	n/a	n/a
1544686	PROB	n/a	LTP118	ltpFR	9	n/a	n/a	n/a	n/a	n/a	n/a	n/a	20	9	4	7	n/a	n/a	n/a	n/a	n/a
1547992	PROB	n/a	LTP118	ltpFR	9	n/a	n/a	n/a	n/a	n/a	n/a	n/a	14	9	2	3	n/a	n/a	n/a	n/a	n/a
1550757	STOP	n/a	LTP118	ltpFR	9	n/a	n/a	n/a	n/a	n/a	n/a	n/a	n/a	n/a	n/a	n/a	n/a	n/a	n/a	n/a	n/a
1552436	WORD	wordpools/wasnorm_wordpool.txt	LTP118	ltpFR	9	6	1	TRIBE	1505	n/a	n/a	0	n/a	0	0	0	0.57763671875	0.412841796875	1	upper	amplitud.ttf
1555442	START	n/a	LTP118	ltpFR	9	n/a	n/a	n/a	n/a	n/a	n/a	n/a	n/a	n/a	n/a	n/a	n/a	n/a	n/a	n/a	n/a
1556440	PROB	n/a	LTP118	ltpFR	9	n/a	n/a	n/a	n/a	n/a	n/a	n/a	19	8	8	3	n/a	n/a	n/a	n/a	n/a
1558728	PROB	n/a	LTP118	ltpFR	9	n/a	n/a	n/a	n/a	n/a	n/a	n/a	14	7	5	2	n/a	n/a	n/a	n/a	n/a
1560918	PROB	n/a	LTP118	ltpFR	9	n/a	n/a	n/a	n/a	n/a	n/a	n/a	9	1	6	2	n/a	n/a	n/a	n/a	n/a
1563714	PROB	n/a	LTP118	ltpFR	9	n/a	n/a	n/a	n/a	n/a	n/a	n/a	10	1	8	1	n/a	n/a	n/a	n/a	n/a
1565072	PROB	n/a	LTP118	ltpFR	9	n/a	n/a	n/a	n/a	n/a	n/a	n/a	10	2	7	1	n/a	n/a	n/a	n/a	n/a
1566304	PROB	n/a	LTP118	ltpFR	9	n/a	n/a	n/a	n/a	n/a	n/a	n/a	12	6	5	1	n/a	n/a	n/a	n/a	n/a
1571442	STOP	n/a	LTP118	ltpFR	9	n/a	n/a	n/a	n/a	n/a	n/a	n/a	n/a	n/a	n/a	n/a	n/a	n/a	n/a	n/a	n/a
1572487	WORD	wordpools/wasnorm_wordpool.txt	LTP118	ltpFR	9	6	1	BAIT	70	n/a	n/a	0	n/a	0	0	0	0.57763671875	0.412841796875	1	upper	amplitud.ttf
1575492	START	n/a	LTP118	ltpFR	9	n/a	n/a	n/a	n/a	n/a	n/a	n/a	n/a	n/a	n/a	n/a	n/a	n/a	n/a	n/a	n/a
1576499	PROB	n/a	LTP118	ltpFR	9	n/a	n/a	n/a	n/a	n/a	n/a	n/a	14	8	4	2	n/a	n/a	n/a	n/a	n/a
1581070	PROB	n/a	LTP118	ltpFR	9	n/a	n/a	n/a	n/a	n/a	n/a	n/a	16	7	2	7	n/a	n/a	n/a	n/a	n/a
1583001	PROB	n/a	LTP118	ltpFR	9	n/a	n/a	n/a	n/a	n/a	n/a	n/a	9	2	5	2	n/a	n/a	n/a	n/a	n/a
1584648	PROB	n/a	LTP118	ltpFR	9	n/a	n/a	n/a	n/a	n/a	n/a	n/a	17	8	3	6	n/a	n/a	n/a	n/a	n/a
1587196	PROB	n/a	LTP118	ltpFR	9	n/a	n/a	n/a	n/a	n/a	n/a	n/a	10	2	1	7	n/a	n/a	n/a	n/a	n/a
1588494	PROB	n/a	LTP118	ltpFR	9	n/a	n/a	n/a	n/a	n/a	n/a	n/a	17	8	8	1	n/a	n/a	n/a	n/a	n/a
1590133	STOP	n/a	LTP118	ltpFR	9	n/a	n/a	n/a	n/a	n/a	n/a	n/a	n/a	n/a	n/a	n/a	n/a	n/a	n/a	n/a	n/a
1592340	WORD	wordpools/wasnorm_wordpool.txt	LTP118	ltpFR	9	6	1	SCARF	1246	n/a	n/a	0	n/a	0	0	0	0.57763671875	0.412841796875	1	upper	amplitud.ttf
1595345	START	n/a	LTP118	ltpFR	9	n/a	n/a	n/a	n/a	n/a	n/a	n/a	n/a	n/a	n/a	n/a	n/a	n/a	n/a	n/a	n/a
1596344	PROB	n/a	LTP118	ltpFR	9	n/a	n/a	n/a	n/a	n/a	n/a	n/a	26	9	8	9	n/a	n/a	n/a	n/a	n/a
1601180	PROB	n/a	LTP118	ltpFR	9	n/a	n/a	n/a	n/a	n/a	n/a	n/a	20	8	8	4	n/a	n/a	n/a	n/a	n/a
1603111	PROB	n/a	LTP118	ltpFR	9	n/a	n/a	n/a	n/a	n/a	n/a	n/a	22	7	9	6	n/a	n/a	n/a	n/a	n/a
1607339	PROB	n/a	LTP118	ltpFR	9	n/a	n/a	n/a	n/a	n/a	n/a	n/a	13	6	1	6	n/a	n/a	n/a	n/a	n/a
1608779	PROB	n/a	LTP118	ltpFR	9	n/a	n/a	n/a	n/a	n/a	n/a	n/a	18	7	4	7	n/a	n/a	n/a	n/a	n/a
1610749	STOP	n/a	LTP118	ltpFR	9	n/a	n/a	n/a	n/a	n/a	n/a	n/a	n/a	n/a	n/a	n/a	n/a	n/a	n/a	n/a	n/a
1613158	REC_START	n/a	LTP118	ltpFR	9	6	n/a	n/a	n/a	n/a	n/a	n/a	n/a	0	0	0	n/a	n/a	n/a	n/a	n/a
1614020	REC_WORD	wordpools/wasnorm_wordpool.txt	LTP118	ltpFR	9	6	1	BAIT	70	n/a	n/a	0	n/a	0	0	0	n/a	n/a	n/a	n/a	n/a
1615408	REC_WORD	wordpools/wasnorm_wordpool.txt	LTP118	ltpFR	9	6	1	SCARF	1246	n/a	n/a	0	n/a	0	0	0	n/a	n/a	n/a	n/a	n/a
1617303	REC_WORD	wordpools/wasnorm_wordpool.txt	LTP118	ltpFR	9	6	0	TRAITOR	1495	n/a	n/a	1	n/a	0	0	0	n/a	n/a	n/a	n/a	n/a
1628787	REC_WORD	wordpools/wasnorm_wordpool.txt	LTP118	ltpFR	9	6	0	STADIUM	1364	n/a	n/a	1	n/a	0	0	0	n/a	n/a	n/a	n/a	n/a
1668726	REC_WORD	wordpools/wasnorm_wordpool.txt	LTP118	ltpFR	9	6	1	FISH	571	n/a	n/a	1	n/a	0	0	0	n/a	n/a	n/a	n/a	n/a
1725684	WORD	wordpools/wasnorm_wordpool.txt	LTP118	ltpFR	9	7	1	CARRIAGE	248	n/a	n/a	0	n/a	0	0	0	0.57763671875	0.412841796875	1	upper	amplitud.ttf
1729572	WORD	wordpools/wasnorm_wordpool.txt	LTP118	ltpFR	9	7	1	HAY	693	n/a	n/a	0	n/a	0	0	0	0.57763671875	0.412841796875	1	upper	amplitud.ttf
1733426	WORD	wordpools/wasnorm_wordpool.txt	LTP118	ltpFR	9	7	1	TAPE	1433	n/a	n/a	0	n/a	0	0	0	0.57763671875	0.412841796875	1	upper	amplitud.ttf
1737471	WORD	wordpools/wasnorm_wordpool.txt	LTP118	ltpFR	9	7	1	CANOE	233	n/a	n/a	0	n/a	0	0	0	0.57763671875	0.412841796875	1	upper	amplitud.ttf
1741342	WORD	wordpools/wasnorm_wordpool.txt	LTP118	ltpFR	9	7	1	POSTAGE	1113	n/a	n/a	0	n/a	0	0	0	0.57763671875	0.412841796875	1	upper	amplitud.ttf
1745520	WORD	wordpools/wasnorm_wordpool.txt	LTP118	ltpFR	9	7	1	SKELETON	1314	n/a	n/a	0	n/a	0	0	0	0.57763671875	0.412841796875	1	upper	amplitud.ttf
1749690	WORD	wordpools/wasnorm_wordpool.txt	LTP118	ltpFR	9	7	1	MASCARA	875	n/a	n/a	0	n/a	0	0	0	0.57763671875	0.412841796875	1	upper	amplitud.ttf
1753878	WORD	wordpools/wasnorm_wordpool.txt	LTP118	ltpFR	9	7	1	LENS	811	n/a	n/a	0	n/a	0	0	0	0.57763671875	0.412841796875	1	upper	amplitud.ttf
1758039	WORD	wordpools/wasnorm_wordpool.txt	LTP118	ltpFR	9	7	1	MAILMAN	858	n/a	n/a	1	n/a	0	0	0	0.57763671875	0.412841796875	1	upper	amplitud.ttf
1761977	WORD	wordpools/wasnorm_wordpool.txt	LTP118	ltpFR	9	7	1	LOUNGE	845	n/a	n/a	0	n/a	0	0	0	0.57763671875	0.412841796875	1	upper	amplitud.ttf
1765980	WORD	wordpools/wasnorm_wordpool.txt	LTP118	ltpFR	9	7	1	BEGGAR	117	n/a	n/a	1	n/a	0	0	0	0.57763671875	0.412841796875	1	upper	amplitud.ttf
1770159	WORD	wordpools/wasnorm_wordpool.txt	LTP118	ltpFR	9	7	1	SCENERY	1247	n/a	n/a	0	n/a	0	0	0	0.57763671875	0.412841796875	1	upper	amplitud.ttf
1774221	WORD	wordpools/wasnorm_wordpool.txt	LTP118	ltpFR	9	7	1	CONDUCTOR	362	n/a	n/a	1	n/a	0	0	0	0.57763671875	0.412841796875	1	upper	amplitud.ttf
1778433	WORD	wordpools/wasnorm_wordpool.txt	LTP118	ltpFR	9	7	1	CEMETERY	269	n/a	n/a	0	n/a	0	0	0	0.57763671875	0.412841796875	1	upper	amplitud.ttf
1782461	WORD	wordpools/wasnorm_wordpool.txt	LTP118	ltpFR	9	7	1	DELINQUENT	445	n/a	n/a	1	n/a	0	0	0	0.57763671875	0.412841796875	1	upper	amplitud.ttf
1786530	WORD	wordpools/wasnorm_wordpool.txt	LTP118	ltpFR	9	7	1	JUVENILE	767	n/a	n/a	1	n/a	0	0	0	0.57763671875	0.412841796875	1	upper	amplitud.ttf
1789535	START	n/a	LTP118	ltpFR	9	n/a	n/a	n/a	n/a	n/a	n/a	n/a	n/a	n/a	n/a	n/a	n/a	n/a	n/a	n/a	n/a
1790609	PROB	n/a	LTP118	ltpFR	9	n/a	n/a	n/a	n/a	n/a	n/a	n/a	25	9	8	6	n/a	n/a	n/a	n/a	n/a
1793773	PROB	n/a	LTP118	ltpFR	9	n/a	n/a	n/a	n/a	n/a	n/a	n/a	15	4	7	4	n/a	n/a	n/a	n/a	n/a
1796477	PROB	n/a	LTP118	ltpFR	9	n/a	n/a	n/a	n/a	n/a	n/a	n/a	11	8	1	2	n/a	n/a	n/a	n/a	n/a
1798076	PROB	n/a	LTP118	ltpFR	9	n/a	n/a	n/a	n/a	n/a	n/a	n/a	23	7	9	7	n/a	n/a	n/a	n/a	n/a
1801306	PROB	n/a	LTP118	ltpFR	9	n/a	n/a	n/a	n/a	n/a	n/a	n/a	20	8	7	5	n/a	n/a	n/a	n/a	n/a
1805535	STOP	n/a	LTP118	ltpFR	9	n/a	n/a	n/a	n/a	n/a	n/a	n/a	n/a	n/a	n/a	n/a	n/a	n/a	n/a	n/a	n/a
1807424	REC_START	n/a	LTP118	ltpFR	9	7	n/a	n/a	n/a	n/a	n/a	n/a	n/a	0	0	0	n/a	n/a	n/a	n/a	n/a
1809050	REC_WORD	wordpools/wasnorm_wordpool.txt	LTP118	ltpFR	9	7	1	BEGGAR	117	n/a	n/a	1	n/a	0	0	0	n/a	n/a	n/a	n/a	n/a
1810292	REC_WORD	wordpools/wasnorm_wordpool.txt	LTP118	ltpFR	9	7	1	MAILMAN	858	n/a	n/a	1	n/a	0	0	0	n/a	n/a	n/a	n/a	n/a
1821083	REC_WORD	wordpools/wasnorm_wordpool.txt	LTP118	ltpFR	9	7	1	HAY	693	n/a	n/a	0	n/a	0	0	0	n/a	n/a	n/a	n/a	n/a
1822934	REC_WORD	wordpools/wasnorm_wordpool.txt	LTP118	ltpFR	9	7	1	SCENERY	1247	n/a	n/a	0	n/a	0	0	0	n/a	n/a	n/a	n/a	n/a
1838423	REC_WORD	wordpools/wasnorm_wordpool.txt	LTP118	ltpFR	9	7	1	CARRIAGE	248	n/a	n/a	0	n/a	0	0	0	n/a	n/a	n/a	n/a	n/a
1916913	WORD	wordpools/wasnorm_wordpool.txt	LTP118	ltpFR	9	8	1	NOVEL	960	n/a	n/a	0	n/a	0	0	0	0.57763671875	0.412841796875	1	upper	amplitud.ttf
1920759	WORD	wordpools/wasnorm_wordpool.txt	LTP118	ltpFR	9	8	1	LIVER	833	n/a	n/a	0	n/a	0	0	0	0.57763671875	0.412841796875	1	upper	amplitud.ttf
1924662	WORD	wordpools/wasnorm_wordpool.txt	LTP118	ltpFR	9	8	1	WINDSHIELD	1612	n/a	n/a	0	n/a	0	0	0	0.57763671875	0.412841796875	1	upper	amplitud.ttf
1928607	WORD	wordpools/wasnorm_wordpool.txt	LTP118	ltpFR	9	8	0	DRIVEWAY	500	n/a	n/a	1	n/a	0	0	0	0.422607421875	0.5869140625	0	lower	zerothre.ttf
1932594	WORD	wordpools/wasnorm_wordpool.txt	LTP118	ltpFR	9	8	0	LIGHTNING	820	n/a	n/a	1	n/a	0	0	0	0.422607421875	0.5869140625	0	lower	zerothre.ttf
1936548	WORD	wordpools/wasnorm_wordpool.txt	LTP118	ltpFR	9	8	1	PARTNER	1017	n/a	n/a	1	n/a	0	0	0	0.57763671875	0.412841796875	1	upper	amplitud.ttf
1940627	WORD	wordpools/wasnorm_wordpool.txt	LTP118	ltpFR	9	8	1	BLUEJAY	141	n/a	n/a	1	n/a	0	0	0	0.57763671875	0.412841796875	1	upper	amplitud.ttf
1944713	WORD	wordpools/wasnorm_wordpool.txt	LTP118	ltpFR	9	8	0	SLEIGH	1325	n/a	n/a	1	n/a	0	0	0	0.422607421875	0.5869140625	0	lower	zerothre.ttf
1948818	WORD	wordpools/wasnorm_wordpool.txt	LTP118	ltpFR	9	8	0	TRUCK	1512	n/a	n/a	1	n/a	0	0	0	0.422607421875	0.5869140625	0	lower	zerothre.ttf
1952737	WORD	wordpools/wasnorm_wordpool.txt	LTP118	ltpFR	9	8	0	TOTE	1487	n/a	n/a	0	n/a	0	0	0	0.422607421875	0.5869140625	0	lower	zerothre.ttf
1956842	WORD	wordpools/wasnorm_wordpool.txt	LTP118	ltpFR	9	8	0	MAPLE	866	n/a	n/a	2	n/a	0	0	0	0.422607421875	0.5869140625	0	lower	zerothre.ttf
1958998	KEY_MSG	n/a	LTP118	ltpFR	9	8	n/a	n/a	n/a	n/a	n/a	n/a	n/a	0	0	0	n/a	n/a	n/a	n/a	n/a
1961404	WORD	wordpools/wasnorm_wordpool.txt	LTP118	ltpFR	9	8	0	SAP	1233	n/a	n/a	0	n/a	0	0	0	0.422607421875	0.5869140625	0	lower	zerothre.ttf
1965556	WORD	wordpools/wasnorm_wordpool.txt	LTP118	ltpFR	9	8	0	TOAD	1470	n/a	n/a	0	n/a	0	0	0	0.422607421875	0.5869140625	0	lower	zerothre.ttf
1969485	WORD	wordpools/wasnorm_wordpool.txt	LTP118	ltpFR	9	8	1	DONOR	485	n/a	n/a	0	n/a	0	0	0	0.57763671875	0.412841796875	1	upper	amplitud.ttf
1973488	WORD	wordpools/wasnorm_wordpool.txt	LTP118	ltpFR	9	8	1	ROBIN	1199	n/a	n/a	1	n/a	0	0	0	0.57763671875	0.412841796875	1	upper	amplitud.ttf
1977617	WORD	wordpools/wasnorm_wordpool.txt	LTP118	ltpFR	9	8	1	EDITORIAL	517	n/a	n/a	0	n/a	0	0	0	0.57763671875	0.412841796875	1	upper	amplitud.ttf
1980622	START	n/a	LTP118	ltpFR	9	n/a	n/a	n/a	n/a	n/a	n/a	n/a	n/a	n/a	n/a	n/a	n/a	n/a	n/a	n/a	n/a
1981821	PROB	n/a	LTP118	ltpFR	9	n/a	n/a	n/a	n/a	n/a	n/a	n/a	23	6	8	9	n/a	n/a	n/a	n/a	n/a
1988622	STOP	n/a	LTP118	ltpFR	9	n/a	n/a	n/a	n/a	n/a	n/a	n/a	n/a	n/a	n/a	n/a	n/a	n/a	n/a	n/a	n/a
1990528	REC_START	n/a	LTP118	ltpFR	9	8	n/a	n/a	n/a	n/a	n/a	n/a	n/a	0	0	0	n/a	n/a	n/a	n/a	n/a
1991511	REC_WORD	wordpools/wasnorm_wordpool.txt	LTP118	ltpFR	9	8	1	DONOR	485	n/a	n/a	0	n/a	0	0	0	n/a	n/a	n/a	n/a	n/a
1992808	REC_WORD	wordpools/wasnorm_wordpool.txt	LTP118	ltpFR	9	8	1	EDITORIAL	517	n/a	n/a	0	n/a	0	0	0	n/a	n/a	n/a	n/a	n/a
1994948	REC_WORD	wordpools/wasnorm_wordpool.txt	LTP118	ltpFR	9	8	1	BLUEJAY	141	n/a	n/a	1	n/a	0	0	0	n/a	n/a	n/a	n/a	n/a
1996489	REC_WORD	wordpools/wasnorm_wordpool.txt	LTP118	ltpFR	9	8	1	ROBIN	1199	n/a	n/a	1	n/a	0	0	0	n/a	n/a	n/a	n/a	n/a
1999961	REC_WORD	wordpools/wasnorm_wordpool.txt	LTP118	ltpFR	9	8	0	MAPLE	866	n/a	n/a	2	n/a	0	0	0	n/a	n/a	n/a	n/a	n/a
2001094	REC_WORD	wordpools/wasnorm_wordpool.txt	LTP118	ltpFR	9	8	0	SAP	1233	n/a	n/a	0	n/a	0	0	0	n/a	n/a	n/a	n/a	n/a
2003299	REC_WORD	wordpools/wasnorm_wordpool.txt	LTP118	ltpFR	9	8	0	LIGHTNING	820	n/a	n/a	1	n/a	0	0	0	n/a	n/a	n/a	n/a	n/a
2041716	REC_WORD	wordpools/wasnorm_wordpool.txt	LTP118	ltpFR	9	8	0	BONE	148	n/a	n/a	0	n/a	0	0	0	n/a	n/a	n/a	n/a	n/a
2044510	REC_WORD	wordpools/wasnorm_wordpool.txt	LTP118	ltpFR	9	8	1	SKELETON	1314	n/a	n/a	0	n/a	0	0	0	n/a	n/a	n/a	n/a	n/a
2097429	START	n/a	LTP118	ltpFR	9	n/a	n/a	n/a	n/a	n/a	n/a	n/a	n/a	n/a	n/a	n/a	n/a	n/a	n/a	n/a	n/a
2098936	PROB	n/a	LTP118	ltpFR	9	n/a	n/a	n/a	n/a	n/a	n/a	n/a	46	1	8	7	n/a	n/a	n/a	n/a	n/a
2101341	PROB	n/a	LTP118	ltpFR	9	n/a	n/a	n/a	n/a	n/a	n/a	n/a	16	7	6	3	n/a	n/a	n/a	n/a	n/a
2104870	PROB	n/a	LTP118	ltpFR	9	n/a	n/a	n/a	n/a	n/a	n/a	n/a	12	6	1	5	n/a	n/a	n/a	n/a	n/a
2106452	PROB	n/a	LTP118	ltpFR	9	n/a	n/a	n/a	n/a	n/a	n/a	n/a	18	9	3	6	n/a	n/a	n/a	n/a	n/a
2108498	PROB	n/a	LTP118	ltpFR	9	n/a	n/a	n/a	n/a	n/a	n/a	n/a	19	8	6	5	n/a	n/a	n/a	n/a	n/a
2113428	STOP	n/a	LTP118	ltpFR	9	n/a	n/a	n/a	n/a	n/a	n/a	n/a	n/a	n/a	n/a	n/a	n/a	n/a	n/a	n/a	n/a
2114376	WORD	wordpools/wasnorm_wordpool.txt	LTP118	ltpFR	9	9	0	SAXOPHONE	1240	n/a	n/a	1	n/a	0	0	0	0.422607421875	0.5869140625	0	lower	zerothre.ttf
2117381	START	n/a	LTP118	ltpFR	9	n/a	n/a	n/a	n/a	n/a	n/a	n/a	n/a	n/a	n/a	n/a	n/a	n/a	n/a	n/a	n/a
2118363	PROB	n/a	LTP118	ltpFR	9	n/a	n/a	n/a	n/a	n/a	n/a	n/a	18	3	8	7	n/a	n/a	n/a	n/a	n/a
2120543	PROB	n/a	LTP118	ltpFR	9	n/a	n/a	n/a	n/a	n/a	n/a	n/a	16	7	1	8	n/a	n/a	n/a	n/a	n/a
2122425	PROB	n/a	LTP118	ltpFR	9	n/a	n/a	n/a	n/a	n/a	n/a	n/a	10	2	5	3	n/a	n/a	n/a	n/a	n/a
2124747	PROB	n/a	LTP118	ltpFR	9	n/a	n/a	n/a	n/a	n/a	n/a	n/a	14	6	7	1	n/a	n/a	n/a	n/a	n/a
2127319	PROB	n/a	LTP118	ltpFR	9	n/a	n/a	n/a	n/a	n/a	n/a	n/a	15	2	4	9	n/a	n/a	n/a	n/a	n/a
2129425	PROB	n/a	LTP118	ltpFR	9	n/a	n/a	n/a	n/a	n/a	n/a	n/a	14	1	9	4	n/a	n/a	n/a	n/a	n/a
2131480	PROB	n/a	LTP118	ltpFR	9	n/a	n/a	n/a	n/a	n/a	n/a	n/a	11	1	4	6	n/a	n/a	n/a	n/a	n/a
2133302	STOP	n/a	LTP118	ltpFR	9	n/a	n/a	n/a	n/a	n/a	n/a	n/a	n/a	n/a	n/a	n/a	n/a	n/a	n/a	n/a	n/a
2134527	WORD	wordpools/wasnorm_wordpool.txt	LTP118	ltpFR	9	9	0	CANDY	230	n/a	n/a	0	n/a	0	0	0	0.422607421875	0.5869140625	0	lower	zerothre.ttf
2137532	START	n/a	LTP118	ltpFR	9	n/a	n/a	n/a	n/a	n/a	n/a	n/a	n/a	n/a	n/a	n/a	n/a	n/a	n/a	n/a	n/a
2138348	PROB	n/a	LTP118	ltpFR	9	n/a	n/a	n/a	n/a	n/a	n/a	n/a	13	6	6	1	n/a	n/a	n/a	n/a	n/a
2139921	PROB	n/a	LTP118	ltpFR	9	n/a	n/a	n/a	n/a	n/a	n/a	n/a	20	9	9	2	n/a	n/a	n/a	n/a	n/a
2142934	PROB	n/a	LTP118	ltpFR	9	n/a	n/a	n/a	n/a	n/a	n/a	n/a	5	1	2	2	n/a	n/a	n/a	n/a	n/a
2144200	PROB	n/a	LTP118	ltpFR	9	n/a	n/a	n/a	n/a	n/a	n/a	n/a	12	5	1	6	n/a	n/a	n/a	n/a	n/a
2146788	PROB	n/a	LTP118	ltpFR	9	n/a	n/a	n/a	n/a	n/a	n/a	n/a	13	2	7	4	n/a	n/a	n/a	n/a	n/a
2149885	PROB	n/a	LTP118	ltpFR	9	n/a	n/a	n/a	n/a	n/a	n/a	n/a	12	2	5	5	n/a	n/a	n/a	n/a	n/a
2151283	PROB	n/a	LTP118	ltpFR	9	n/a	n/a	n/a	n/a	n/a	n/a	n/a	12	6	2	4	n/a	n/a	n/a	n/a	n/a
2152918	STOP	n/a	LTP118	ltpFR	9	n/a	n/a	n/a	n/a	n/a	n/a	n/a	n/a	n/a	n/a	n/a	n/a	n/a	n/a	n/a	n/a
2154454	WORD	wordpools/wasnorm_wordpool.txt	LTP118	ltpFR	9	9	0	CIGARETTE	309	n/a	n/a	0	n/a	0	0	0	0.422607421875	0.5869140625	0	lower	zerothre.ttf
2157460	START	n/a	LTP118	ltpFR	9	n/a	n/a	n/a	n/a	n/a	n/a	n/a	n/a	n/a	n/a	n/a	n/a	n/a	n/a	n/a	n/a
2158325	PROB	n/a	LTP118	ltpFR	9	n/a	n/a	n/a	n/a	n/a	n/a	n/a	14	9	2	3	n/a	n/a	n/a	n/a	n/a
2160704	PROB	n/a	LTP118	ltpFR	9	n/a	n/a	n/a	n/a	n/a	n/a	n/a	22	9	5	8	n/a	n/a	n/a	n/a	n/a
2163952	PROB	n/a	LTP118	ltpFR	9	n/a	n/a	n/a	n/a	n/a	n/a	n/a	12	2	7	3	n/a	n/a	n/a	n/a	n/a
2165991	PROB	n/a	LTP118	ltpFR	9	n/a	n/a	n/a	n/a	n/a	n/a	n/a	15	4	4	7	n/a	n/a	n/a	n/a	n/a
2168313	PROB	n/a	LTP118	ltpFR	9	n/a	n/a	n/a	n/a	n/a	n/a	n/a	10	2	2	6	n/a	n/a	n/a	n/a	n/a
2169753	PROB	n/a	LTP118	ltpFR	9	n/a	n/a	n/a	n/a	n/a	n/a	n/a	7	2	2	3	n/a	n/a	n/a	n/a	n/a
2172118	STOP	n/a	LTP118	ltpFR	9	n/a	n/a	n/a	n/a	n/a	n/a	n/a	n/a	n/a	n/a	n/a	n/a	n/a	n/a	n/a	n/a
2174456	WORD	wordpools/wasnorm_wordpool.txt	LTP118	ltpFR	9	9	0	DIGGER	464	n/a	n/a	n/a	n/a	0	0	0	0.422607421875	0.5869140625	0	lower	zerothre.ttf
2177477	SLOW_MSG	n/a	LTP118	ltpFR	9	9	n/a	n/a	n/a	n/a	n/a	n/a	n/a	0	0	0	n/a	n/a	n/a	n/a	n/a
2178993	START	n/a	LTP118	ltpFR	9	n/a	n/a	n/a	n/a	n/a	n/a	n/a	n/a	n/a	n/a	n/a	n/a	n/a	n/a	n/a	n/a
2179850	PROB	n/a	LTP118	ltpFR	9	n/a	n/a	n/a	n/a	n/a	n/a	n/a	18	9	7	2	n/a	n/a	n/a	n/a	n/a
2183213	PROB	n/a	LTP118	ltpFR	9	n/a	n/a	n/a	n/a	n/a	n/a	n/a	14	6	5	3	n/a	n/a	n/a	n/a	n/a
2186126	PROB	n/a	LTP118	ltpFR	9	n/a	n/a	n/a	n/a	n/a	n/a	n/a	13	4	5	4	n/a	n/a	n/a	n/a	n/a
2190979	PROB	n/a	LTP118	ltpFR	9	n/a	n/a	n/a	n/a	n/a	n/a	n/a	13	3	4	6	n/a	n/a	n/a	n/a	n/a
2192802	PROB	n/a	LTP118	ltpFR	9	n/a	n/a	n/a	n/a	n/a	n/a	n/a	15	5	1	9	n/a	n/a	n/a	n/a	n/a
2194605	STOP	n/a	LTP118	ltpFR	9	n/a	n/a	n/a	n/a	n/a	n/a	n/a	n/a	n/a	n/a	n/a	n/a	n/a	n/a	n/a	n/a
2196006	WORD	wordpools/wasnorm_wordpool.txt	LTP118	ltpFR	9	9	0	PARROT	1015	n/a	n/a	1	n/a	0	0	0	0.422607421875	0.5869140625	0	lower	zerothre.ttf
2199012	START	n/a	LTP118	ltpFR	9	n/a	n/a	n/a	n/a	n/a	n/a	n/a	n/a	n/a	n/a	n/a	n/a	n/a	n/a	n/a	n/a
2200101	PROB	n/a	LTP118	ltpFR	9	n/a	n/a	n/a	n/a	n/a	n/a	n/a	14	6	2	6	n/a	n/a	n/a	n/a	n/a
2201966	PROB	n/a	LTP118	ltpFR	9	n/a	n/a	n/a	n/a	n/a	n/a	n/a	18	2	9	7	n/a	n/a	n/a	n/a	n/a
2204720	PROB	n/a	LTP118	ltpFR	9	n/a	n/a	n/a	n/a	n/a	n/a	n/a	8	3	2	3	n/a	n/a	n/a	n/a	n/a
2206802	PROB	n/a	LTP118	ltpFR	9	n/a	n/a	n/a	n/a	n/a	n/a	n/a	14	6	3	5	n/a	n/a	n/a	n/a	n/a
2208974	PROB	n/a	LTP118	ltpFR	9	n/a	n/a	n/a	n/a	n/a	n/a	n/a	13	1	8	4	n/a	n/a	n/a	n/a	n/a
2211147	PROB	n/a	LTP118	ltpFR	9	n/a	n/a	n/a	n/a	n/a	n/a	n/a	18	4	5	9	n/a	n/a	n/a	n/a	n/a
2215012	STOP	n/a	LTP118	ltpFR	9	n/a	n/a	n/a	n/a	n/a	n/a	n/a	n/a	n/a	n/a	n/a	n/a	n/a	n/a	n/a	n/a
2216116	WORD	wordpools/wasnorm_wordpool.txt	LTP118	ltpFR	9	9	1	ORCHESTRA	981	n/a	n/a	0	n/a	0	0	0	0.57763671875	0.412841796875	1	upper	amplitud.ttf
2219121	START	n/a	LTP118	ltpFR	9	n/a	n/a	n/a	n/a	n/a	n/a	n/a	n/a	n/a	n/a	n/a	n/a	n/a	n/a	n/a	n/a
2220295	PROB	n/a	LTP118	ltpFR	9	n/a	n/a	n/a	n/a	n/a	n/a	n/a	15	6	6	3	n/a	n/a	n/a	n/a	n/a
2223590	PROB	n/a	LTP118	ltpFR	9	n/a	n/a	n/a	n/a	n/a	n/a	n/a	11	9	1	1	n/a	n/a	n/a	n/a	n/a
2224906	PROB	n/a	LTP118	ltpFR	9	n/a	n/a	n/a	n/a	n/a	n/a	n/a	18	8	2	8	n/a	n/a	n/a	n/a	n/a
2227153	PROB	n/a	LTP118	ltpFR	9	n/a	n/a	n/a	n/a	n/a	n/a	n/a	12	5	6	1	n/a	n/a	n/a	n/a	n/a
2228484	PROB	n/a	LTP118	ltpFR	9	n/a	n/a	n/a	n/a	n/a	n/a	n/a	9	7	1	1	n/a	n/a	n/a	n/a	n/a
2230075	PROB	n/a	LTP118	ltpFR	9	n/a	n/a	n/a	n/a	n/a	n/a	n/a	14	7	3	4	n/a	n/a	n/a	n/a	n/a
2231423	PROB	n/a	LTP118	ltpFR	9	n/a	n/a	n/a	n/a	n/a	n/a	n/a	16	7	2	7	n/a	n/a	n/a	n/a	n/a
2233022	PROB	n/a	LTP118	ltpFR	9	n/a	n/a	n/a	n/a	n/a	n/a	n/a	26	9	9	8	n/a	n/a	n/a	n/a	n/a
2234998	STOP	n/a	LTP118	ltpFR	9	n/a	n/a	n/a	n/a	n/a	n/a	n/a	n/a	n/a	n/a	n/a	n/a	n/a	n/a	n/a	n/a
2236234	WORD	wordpools/wasnorm_wordpool.txt	LTP118	ltpFR	9	9	1	COLONEL	348	n/a	n/a	1	n/a	0	0	0	0.57763671875	0.412841796875	1	upper	amplitud.ttf
2239240	START	n/a	LTP118	ltpFR	9	n/a	n/a	n/a	n/a	n/a	n/a	n/a	n/a	n/a	n/a	n/a	n/a	n/a	n/a	n/a	n/a
2240255	PROB	n/a	LTP118	ltpFR	9	n/a	n/a	n/a	n/a	n/a	n/a	n/a	18	6	3	9	n/a	n/a	n/a	n/a	n/a
2241878	PROB	n/a	LTP118	ltpFR	9	n/a	n/a	n/a	n/a	n/a	n/a	n/a	19	4	7	8	n/a	n/a	n/a	n/a	n/a
2244350	PROB	n/a	LTP118	ltpFR	9	n/a	n/a	n/a	n/a	n/a	n/a	n/a	16	7	6	3	n/a	n/a	n/a	n/a	n/a
2246406	PROB	n/a	LTP118	ltpFR	9	n/a	n/a	n/a	n/a	n/a	n/a	n/a	12	1	6	5	n/a	n/a	n/a	n/a	n/a
2247854	PROB	n/a	LTP118	ltpFR	9	n/a	n/a	n/a	n/a	n/a	n/a	n/a	19	5	8	8	n/a	n/a	n/a	n/a	n/a
2252166	PROB	n/a	LTP118	ltpFR	9	n/a	n/a	n/a	n/a	n/a	n/a	n/a	11	5	4	2	n/a	n/a	n/a	n/a	n/a
2253878	STOP	n/a	LTP118	ltpFR	9	n/a	n/a	n/a	n/a	n/a	n/a	n/a	n/a	n/a	n/a	n/a	n/a	n/a	n/a	n/a	n/a
2256394	WORD	wordpools/wasnorm_wordpool.txt	LTP118	ltpFR	9	9	0	LAPEL	800	n/a	n/a	0	n/a	0	0	0	0.422607421875	0.5869140625	0	lower	zerothre.ttf
2259400	START	n/a	LTP118	ltpFR	9	n/a	n/a	n/a	n/a	n/a	n/a	n/a	n/a	n/a	n/a	n/a	n/a	n/a	n/a	n/a	n/a
2260522	PROB	n/a	LTP118	ltpFR	9	n/a	n/a	n/a	n/a	n/a	n/a	n/a	16	9	3	4	n/a	n/a	n/a	n/a	n/a
2262812	PROB	n/a	LTP118	ltpFR	9	n/a	n/a	n/a	n/a	n/a	n/a	n/a	11	2	7	2	n/a	n/a	n/a	n/a	n/a
2266233	PROB	n/a	LTP118	ltpFR	9	n/a	n/a	n/a	n/a	n/a	n/a	n/a	13	4	7	1	n/a	n/a	n/a	n/a	n/a
2268414	PROB	n/a	LTP118	ltpFR	9	n/a	n/a	n/a	n/a	n/a	n/a	n/a	25	7	9	9	n/a	n/a	n/a	n/a	n/a
2270869	PROB	n/a	LTP118	ltpFR	9	n/a	n/a	n/a	n/a	n/a	n/a	n/a	26	9	8	9	n/a	n/a	n/a	n/a	n/a
2274525	STOP	n/a	LTP118	ltpFR	9	n/a	n/a	n/a	n/a	n/a	n/a	n/a	n/a	n/a	n/a	n/a	n/a	n/a	n/a	n/a	n/a
2276213	WORD	wordpools/wasnorm_wordpool.txt	LTP118	ltpFR	9	9	0	ROBE	1198	n/a	n/a	1	n/a	0	0	0	0.422607421875	0.5869140625	0	lower	zerothre.ttf
2279218	START	n/a	LTP118	ltpFR	9	n/a	n/a	n/a	n/a	n/a	n/a	n/a	n/a	n/a	n/a	n/a	n/a	n/a	n/a	n/a	n/a
2280392	PROB	n/a	LTP118	ltpFR	9	n/a	n/a	n/a	n/a	n/a	n/a	n/a	26	8	9	9	n/a	n/a	n/a	n/a	n/a
2283321	PROB	n/a	LTP118	ltpFR	9	n/a	n/a	n/a	n/a	n/a	n/a	n/a	11	3	4	4	n/a	n/a	n/a	n/a	n/a
2285394	PROB	n/a	LTP118	ltpFR	9	n/a	n/a	n/a	n/a	n/a	n/a	n/a	11	1	3	7	n/a	n/a	n/a	n/a	n/a
2286851	PROB	n/a	LTP118	ltpFR	9	n/a	n/a	n/a	n/a	n/a	n/a	n/a	15	9	4	2	n/a	n/a	n/a	n/a	n/a
2289839	PROB	n/a	LTP118	ltpFR	9	n/a	n/a	n/a	n/a	n/a	n/a	n/a	9	4	2	3	n/a	n/a	n/a	n/a	n/a
2291953	PROB	n/a	LTP118	ltpFR	9	n/a	n/a	n/a	n/a	n/a	n/a	n/a	9	1	4	4	n/a	n/a	n/a	n/a	n/a
2293966	STOP	n/a	LTP118	ltpFR	9	n/a	n/a	n/a	n/a	n/a	n/a	n/a	n/a	n/a	n/a	n/a	n/a	n/a	n/a	n/a	n/a
2296398	WORD	wordpools/wasnorm_wordpool.txt	LTP118	ltpFR	9	9	0	OLIVE	975	n/a	n/a	0	n/a	0	0	0	0.422607421875	0.5869140625	0	lower	zerothre.ttf
2299403	START	n/a	LTP118	ltpFR	9	n/a	n/a	n/a	n/a	n/a	n/a	n/a	n/a	n/a	n/a	n/a	n/a	n/a	n/a	n/a	n/a
2300385	PROB	n/a	LTP118	ltpFR	9	n/a	n/a	n/a	n/a	n/a	n/a	n/a	15	3	8	4	n/a	n/a	n/a	n/a	n/a
2303522	PROB	n/a	LTP118	ltpFR	9	n/a	n/a	n/a	n/a	n/a	n/a	n/a	15	4	6	5	n/a	n/a	n/a	n/a	n/a
2306345	PROB	n/a	LTP118	ltpFR	9	n/a	n/a	n/a	n/a	n/a	n/a	n/a	19	7	8	4	n/a	n/a	n/a	n/a	n/a
2309791	PROB	n/a	LTP118	ltpFR	9	n/a	n/a	n/a	n/a	n/a	n/a	n/a	17	5	5	7	n/a	n/a	n/a	n/a	n/a
2311480	PROB	n/a	LTP118	ltpFR	9	n/a	n/a	n/a	n/a	n/a	n/a	n/a	8	3	2	3	n/a	n/a	n/a	n/a	n/a
2315403	STOP	n/a	LTP118	ltpFR	9	n/a	n/a	n/a	n/a	n/a	n/a	n/a	n/a	n/a	n/a	n/a	n/a	n/a	n/a	n/a	n/a
2316258	WORD	wordpools/wasnorm_wordpool.txt	LTP118	ltpFR	9	9	1	JAM	748	n/a	n/a	0	n/a	0	0	0	0.57763671875	0.412841796875	1	upper	amplitud.ttf
2319263	START	n/a	LTP118	ltpFR	9	n/a	n/a	n/a	n/a	n/a	n/a	n/a	n/a	n/a	n/a	n/a	n/a	n/a	n/a	n/a	n/a
2320345	PROB	n/a	LTP118	ltpFR	9	n/a	n/a	n/a	n/a	n/a	n/a	n/a	22	9	8	5	n/a	n/a	n/a	n/a	n/a
2326470	PROB	n/a	LTP118	ltpFR	9	n/a	n/a	n/a	n/a	n/a	n/a	n/a	11	4	2	5	n/a	n/a	n/a	n/a	n/a
2328610	PROB	n/a	LTP118	ltpFR	9	n/a	n/a	n/a	n/a	n/a	n/a	n/a	5	2	2	1	n/a	n/a	n/a	n/a	n/a
2330084	PROB	n/a	LTP118	ltpFR	9	n/a	n/a	n/a	n/a	n/a	n/a	n/a	18	7	8	3	n/a	n/a	n/a	n/a	n/a
2331923	PROB	n/a	LTP118	ltpFR	9	n/a	n/a	n/a	n/a	n/a	n/a	n/a	18	3	7	8	n/a	n/a	n/a	n/a	n/a
2335262	STOP	n/a	LTP118	ltpFR	9	n/a	n/a	n/a	n/a	n/a	n/a	n/a	n/a	n/a	n/a	n/a	n/a	n/a	n/a	n/a	n/a
2336418	WORD	wordpools/wasnorm_wordpool.txt	LTP118	ltpFR	9	9	1	CANE	231	n/a	n/a	0	n/a	0	0	0	0.57763671875	0.412841796875	1	upper	amplitud.ttf
2339424	START	n/a	LTP118	ltpFR	9	n/a	n/a	n/a	n/a	n/a	n/a	n/a	n/a	n/a	n/a	n/a	n/a	n/a	n/a	n/a	n/a
2340380	PROB	n/a	LTP118	ltpFR	9	n/a	n/a	n/a	n/a	n/a	n/a	n/a	18	8	5	5	n/a	n/a	n/a	n/a	n/a
2342095	PROB	n/a	LTP118	ltpFR	9	n/a	n/a	n/a	n/a	n/a	n/a	n/a	21	3	9	9	n/a	n/a	n/a	n/a	n/a
2344442	PROB	n/a	LTP118	ltpFR	9	n/a	n/a	n/a	n/a	n/a	n/a	n/a	19	9	6	4	n/a	n/a	n/a	n/a	n/a
2346057	PROB	n/a	LTP118	ltpFR	9	n/a	n/a	n/a	n/a	n/a	n/a	n/a	20	5	7	8	n/a	n/a	n/a	n/a	n/a
2351775	PROB	n/a	LTP118	ltpFR	9	n/a	n/a	n/a	n/a	n/a	n/a	n/a	12	6	2	4	n/a	n/a	n/a	n/a	n/a
2355423	STOP	n/a	LTP118	ltpFR	9	n/a	n/a	n/a	n/a	n/a	n/a	n/a	n/a	n/a	n/a	n/a	n/a	n/a	n/a	n/a	n/a
2356544	WORD	wordpools/wasnorm_wordpool.txt	LTP118	ltpFR	9	9	1	OWL	992	n/a	n/a	1	n/a	0	0	0	0.57763671875	0.412841796875	1	upper	amplitud.ttf
2359549	START	n/a	LTP118	ltpFR	9	n/a	n/a	n/a	n/a	n/a	n/a	n/a	n/a	n/a	n/a	n/a	n/a	n/a	n/a	n/a	n/a
2360714	PROB	n/a	LTP118	ltpFR	9	n/a	n/a	n/a	n/a	n/a	n/a	n/a	14	5	1	7	n/a	n/a	n/a	n/a	n/a
2362954	PROB	n/a	LTP118	ltpFR	9	n/a	n/a	n/a	n/a	n/a	n/a	n/a	15	8	6	1	n/a	n/a	n/a	n/a	n/a
2366482	PROB	n/a	LTP118	ltpFR	9	n/a	n/a	n/a	n/a	n/a	n/a	n/a	5	1	3	1	n/a	n/a	n/a	n/a	n/a
2367765	PROB	n/a	LTP118	ltpFR	9	n/a	n/a	n/a	n/a	n/a	n/a	n/a	19	7	5	7	n/a	n/a	n/a	n/a	n/a
2370121	PROB	n/a	LTP118	ltpFR	9	n/a	n/a	n/a	n/a	n/a	n/a	n/a	16	7	3	6	n/a	n/a	n/a	n/a	n/a
2371353	PROB	n/a	LTP118	ltpFR	9	n/a	n/a	n/a	n/a	n/a	n/a	n/a	14	7	2	5	n/a	n/a	n/a	n/a	n/a
2375549	STOP	n/a	LTP118	ltpFR	9	n/a	n/a	n/a	n/a	n/a	n/a	n/a	n/a	n/a	n/a	n/a	n/a	n/a	n/a	n/a	n/a
2376438	WORD	wordpools/wasnorm_wordpool.txt	LTP118	ltpFR	9	9	1	TRAY	1498	n/a	n/a	0	n/a	0	0	0	0.57763671875	0.412841796875	1	upper	amplitud.ttf
2379444	START	n/a	LTP118	ltpFR	9	n/a	n/a	n/a	n/a	n/a	n/a	n/a	n/a	n/a	n/a	n/a	n/a	n/a	n/a	n/a	n/a
2380317	PROB	n/a	LTP118	ltpFR	9	n/a	n/a	n/a	n/a	n/a	n/a	n/a	19	3	9	7	n/a	n/a	n/a	n/a	n/a
2383222	PROB	n/a	LTP118	ltpFR	9	n/a	n/a	n/a	n/a	n/a	n/a	n/a	16	4	9	3	n/a	n/a	n/a	n/a	n/a
2386369	PROB	n/a	LTP118	ltpFR	9	n/a	n/a	n/a	n/a	n/a	n/a	n/a	9	2	2	5	n/a	n/a	n/a	n/a	n/a
2387917	PROB	n/a	LTP118	ltpFR	9	n/a	n/a	n/a	n/a	n/a	n/a	n/a	13	7	4	1	n/a	n/a	n/a	n/a	n/a
2390148	PROB	n/a	LTP118	ltpFR	9	n/a	n/a	n/a	n/a	n/a	n/a	n/a	13	4	7	2	n/a	n/a	n/a	n/a	n/a
2395444	STOP	n/a	LTP118	ltpFR	9	n/a	n/a	n/a	n/a	n/a	n/a	n/a	n/a	n/a	n/a	n/a	n/a	n/a	n/a	n/a	n/a
2396581	WORD	wordpools/wasnorm_wordpool.txt	LTP118	ltpFR	9	9	1	PICNIC	1060	n/a	n/a	0	n/a	0	0	0	0.57763671875	0.412841796875	1	upper	amplitud.ttf
2399586	START	n/a	LTP118	ltpFR	9	n/a	n/a	n/a	n/a	n/a	n/a	n/a	n/a	n/a	n/a	n/a	n/a	n/a	n/a	n/a	n/a
2400618	PROB	n/a	LTP118	ltpFR	9	n/a	n/a	n/a	n/a	n/a	n/a	n/a	13	4	6	3	n/a	n/a	n/a	n/a	n/a
2402292	PROB	n/a	LTP118	ltpFR	9	n/a	n/a	n/a	n/a	n/a	n/a	n/a	15	5	8	1	n/a	n/a	n/a	n/a	n/a
2406636	PROB	n/a	LTP118	ltpFR	9	n/a	n/a	n/a	n/a	n/a	n/a	n/a	12	9	2	1	n/a	n/a	n/a	n/a	n/a
2410174	PROB	n/a	LTP118	ltpFR	9	n/a	n/a	n/a	n/a	n/a	n/a	n/a	21	9	6	6	n/a	n/a	n/a	n/a	n/a
2412097	PROB	n/a	LTP118	ltpFR	9	n/a	n/a	n/a	n/a	n/a	n/a	n/a	16	9	6	1	n/a	n/a	n/a	n/a	n/a
2415586	STOP	n/a	LTP118	ltpFR	9	n/a	n/a	n/a	n/a	n/a	n/a	n/a	n/a	n/a	n/a	n/a	n/a	n/a	n/a	n/a	n/a
2416783	WORD	wordpools/wasnorm_wordpool.txt	LTP118	ltpFR	9	9	1	FUNGUS	614	n/a	n/a	1	n/a	0	0	0	0.57763671875	0.412841796875	1	upper	amplitud.ttf
2419788	START	n/a	LTP118	ltpFR	9	n/a	n/a	n/a	n/a	n/a	n/a	n/a	n/a	n/a	n/a	n/a	n/a	n/a	n/a	n/a	n/a
2420970	PROB	n/a	LTP118	ltpFR	9	n/a	n/a	n/a	n/a	n/a	n/a	n/a	15	6	6	3	n/a	n/a	n/a	n/a	n/a
2423817	PROB	n/a	LTP118	ltpFR	9	n/a	n/a	n/a	n/a	n/a	n/a	n/a	12	5	6	1	n/a	n/a	n/a	n/a	n/a
2425448	PROB	n/a	LTP118	ltpFR	9	n/a	n/a	n/a	n/a	n/a	n/a	n/a	17	6	5	6	n/a	n/a	n/a	n/a	n/a
2428836	PROB	n/a	LTP118	ltpFR	9	n/a	n/a	n/a	n/a	n/a	n/a	n/a	15	6	1	8	n/a	n/a	n/a	n/a	n/a
2431482	PROB	n/a	LTP118	ltpFR	9	n/a	n/a	n/a	n/a	n/a	n/a	n/a	19	7	8	4	n/a	n/a	n/a	n/a	n/a
2434221	PROB	n/a	LTP118	ltpFR	9	n/a	n/a	n/a	n/a	n/a	n/a	n/a	11	7	2	2	n/a	n/a	n/a	n/a	n/a
2435733	STOP	n/a	LTP118	ltpFR	9	n/a	n/a	n/a	n/a	n/a	n/a	n/a	n/a	n/a	n/a	n/a	n/a	n/a	n/a	n/a	n/a
2437567	REC_START	n/a	LTP118	ltpFR	9	9	n/a	n/a	n/a	n/a	n/a	n/a	n/a	0	0	0	n/a	n/a	n/a	n/a	n/a
2438844	REC_WORD	wordpools/wasnorm_wordpool.txt	LTP118	ltpFR	9	9	1	FUNGUS	614	n/a	n/a	1	n/a	0	0	0	n/a	n/a	n/a	n/a	n/a
2446521	REC_WORD	wordpools/wasnorm_wordpool.txt	LTP118	ltpFR	9	9	1	TRAY	1498	n/a	n/a	0	n/a	0	0	0	n/a	n/a	n/a	n/a	n/a
2453181	REC_WORD	wordpools/wasnorm_wordpool.txt	LTP118	ltpFR	9	9	1	JAM	748	n/a	n/a	0	n/a	0	0	0	n/a	n/a	n/a	n/a	n/a
2457492	REC_WORD	wordpools/wasnorm_wordpool.txt	LTP118	ltpFR	9	9	1	PICNIC	1060	n/a	n/a	0	n/a	0	0	0	n/a	n/a	n/a	n/a	n/a
2529386	START	n/a	LTP118	ltpFR	9	n/a	n/a	n/a	n/a	n/a	n/a	n/a	n/a	n/a	n/a	n/a	n/a	n/a	n/a	n/a	n/a
2530893	PROB	n/a	LTP118	ltpFR	9	n/a	n/a	n/a	n/a	n/a	n/a	n/a	15	9	4	2	n/a	n/a	n/a	n/a	n/a
2534971	PROB	n/a	LTP118	ltpFR	9	n/a	n/a	n/a	n/a	n/a	n/a	n/a	19	4	6	9	n/a	n/a	n/a	n/a	n/a
2536581	STOP	n/a	LTP118	ltpFR	9	n/a	n/a	n/a	n/a	n/a	n/a	n/a	n/a	n/a	n/a	n/a	n/a	n/a	n/a	n/a	n/a
2538367	WORD	wordpools/wasnorm_wordpool.txt	LTP118	ltpFR	9	10	1	LIST	830	n/a	n/a	0	n/a	0	0	0	0.57763671875	0.412841796875	1	upper	amplitud.ttf
2541372	START	n/a	LTP118	ltpFR	9	n/a	n/a	n/a	n/a	n/a	n/a	n/a	n/a	n/a	n/a	n/a	n/a	n/a	n/a	n/a	n/a
2542511	PROB	n/a	LTP118	ltpFR	9	n/a	n/a	n/a	n/a	n/a	n/a	n/a	15	6	6	3	n/a	n/a	n/a	n/a	n/a
2546150	PROB	n/a	LTP118	ltpFR	9	n/a	n/a	n/a	n/a	n/a	n/a	n/a	15	3	6	6	n/a	n/a	n/a	n/a	n/a
2549372	STOP	n/a	LTP118	ltpFR	9	n/a	n/a	n/a	n/a	n/a	n/a	n/a	n/a	n/a	n/a	n/a	n/a	n/a	n/a	n/a	n/a
2550187	WORD	wordpools/wasnorm_wordpool.txt	LTP118	ltpFR	9	10	1	CHESS	294	n/a	n/a	0	n/a	0	0	0	0.57763671875	0.412841796875	1	upper	amplitud.ttf
2553192	START	n/a	LTP118	ltpFR	9	n/a	n/a	n/a	n/a	n/a	n/a	n/a	n/a	n/a	n/a	n/a	n/a	n/a	n/a	n/a	n/a
2554207	PROB	n/a	LTP118	ltpFR	9	n/a	n/a	n/a	n/a	n/a	n/a	n/a	13	3	1	9	n/a	n/a	n/a	n/a	n/a
2556587	PROB	n/a	LTP118	ltpFR	9	n/a	n/a	n/a	n/a	n/a	n/a	n/a	21	7	7	7	n/a	n/a	n/a	n/a	n/a
2557978	PROB	n/a	LTP118	ltpFR	9	n/a	n/a	n/a	n/a	n/a	n/a	n/a	12	3	4	5	n/a	n/a	n/a	n/a	n/a
2561192	STOP	n/a	LTP118	ltpFR	9	n/a	n/a	n/a	n/a	n/a	n/a	n/a	n/a	n/a	n/a	n/a	n/a	n/a	n/a	n/a	n/a
2562348	WORD	wordpools/wasnorm_wordpool.txt	LTP118	ltpFR	9	10	1	DART	440	n/a	n/a	0	n/a	0	0	0	0.57763671875	0.412841796875	1	upper	amplitud.ttf
2565353	START	n/a	LTP118	ltpFR	9	n/a	n/a	n/a	n/a	n/a	n/a	n/a	n/a	n/a	n/a	n/a	n/a	n/a	n/a	n/a	n/a
2566326	PROB	n/a	LTP118	ltpFR	9	n/a	n/a	n/a	n/a	n/a	n/a	n/a	19	5	9	5	n/a	n/a	n/a	n/a	n/a
2567891	PROB	n/a	LTP118	ltpFR	9	n/a	n/a	n/a	n/a	n/a	n/a	n/a	19	4	9	6	n/a	n/a	n/a	n/a	n/a
2573353	STOP	n/a	LTP118	ltpFR	9	n/a	n/a	n/a	n/a	n/a	n/a	n/a	n/a	n/a	n/a	n/a	n/a	n/a	n/a	n/a	n/a
2574209	WORD	wordpools/wasnorm_wordpool.txt	LTP118	ltpFR	9	10	1	TOILET	1475	n/a	n/a	0	n/a	0	0	0	0.57763671875	0.412841796875	1	upper	amplitud.ttf
2577214	START	n/a	LTP118	ltpFR	9	n/a	n/a	n/a	n/a	n/a	n/a	n/a	n/a	n/a	n/a	n/a	n/a	n/a	n/a	n/a	n/a
2578213	PROB	n/a	LTP118	ltpFR	9	n/a	n/a	n/a	n/a	n/a	n/a	n/a	8	2	1	5	n/a	n/a	n/a	n/a	n/a
2585214	STOP	n/a	LTP118	ltpFR	9	n/a	n/a	n/a	n/a	n/a	n/a	n/a	n/a	n/a	n/a	n/a	n/a	n/a	n/a	n/a	n/a
2586220	WORD	wordpools/wasnorm_wordpool.txt	LTP118	ltpFR	9	10	1	MONKEY	911	n/a	n/a	1	n/a	0	0	0	0.57763671875	0.412841796875	1	upper	amplitud.ttf
2589225	START	n/a	LTP118	ltpFR	9	n/a	n/a	n/a	n/a	n/a	n/a	n/a	n/a	n/a	n/a	n/a	n/a	n/a	n/a	n/a	n/a
2590390	PROB	n/a	LTP118	ltpFR	9	n/a	n/a	n/a	n/a	n/a	n/a	n/a	20	2	9	9	n/a	n/a	n/a	n/a	n/a
2597225	STOP	n/a	LTP118	ltpFR	9	n/a	n/a	n/a	n/a	n/a	n/a	n/a	n/a	n/a	n/a	n/a	n/a	n/a	n/a	n/a	n/a
2598289	WORD	wordpools/wasnorm_wordpool.txt	LTP118	ltpFR	9	10	1	TRACTOR	1493	n/a	n/a	n/a	n/a	0	0	0	0.57763671875	0.412841796875	1	upper	amplitud.ttf
2601311	SLOW_MSG	n/a	LTP118	ltpFR	9	10	n/a	n/a	n/a	n/a	n/a	n/a	n/a	0	0	0	n/a	n/a	n/a	n/a	n/a
2602826	START	n/a	LTP118	ltpFR	9	n/a	n/a	n/a	n/a	n/a	n/a	n/a	n/a	n/a	n/a	n/a	n/a	n/a	n/a	n/a	n/a
2603833	PROB	n/a	LTP118	ltpFR	9	n/a	n/a	n/a	n/a	n/a	n/a	n/a	14	3	6	5	n/a	n/a	n/a	n/a	n/a
2606247	PROB	n/a	LTP118	ltpFR	9	n/a	n/a	n/a	n/a	n/a	n/a	n/a	9	3	3	3	n/a	n/a	n/a	n/a	n/a
2610826	STOP	n/a	LTP118	ltpFR	9	n/a	n/a	n/a	n/a	n/a	n/a	n/a	n/a	n/a	n/a	n/a	n/a	n/a	n/a	n/a	n/a
2611882	WORD	wordpools/wasnorm_wordpool.txt	LTP118	ltpFR	9	10	1	ADULT	8	n/a	n/a	1	n/a	0	0	0	0.57763671875	0.412841796875	1	upper	amplitud.ttf
2614887	START	n/a	LTP118	ltpFR	9	n/a	n/a	n/a	n/a	n/a	n/a	n/a	n/a	n/a	n/a	n/a	n/a	n/a	n/a	n/a	n/a
2616019	PROB	n/a	LTP118	ltpFR	9	n/a	n/a	n/a	n/a	n/a	n/a	n/a	9	1	7	1	n/a	n/a	n/a	n/a	n/a
2617724	PROB	n/a	LTP118	ltpFR	9	n/a	n/a	n/a	n/a	n/a	n/a	n/a	15	9	2	4	n/a	n/a	n/a	n/a	n/a
2619638	PROB	n/a	LTP118	ltpFR	9	n/a	n/a	n/a	n/a	n/a	n/a	n/a	6	1	3	2	n/a	n/a	n/a	n/a	n/a
2621854	STOP	n/a	LTP118	ltpFR	9	n/a	n/a	n/a	n/a	n/a	n/a	n/a	n/a	n/a	n/a	n/a	n/a	n/a	n/a	n/a	n/a
2623959	WORD	wordpools/wasnorm_wordpool.txt	LTP118	ltpFR	9	10	1	BOUQUET	157	n/a	n/a	0	n/a	0	0	0	0.57763671875	0.412841796875	1	upper	amplitud.ttf
2626965	START	n/a	LTP118	ltpFR	9	n/a	n/a	n/a	n/a	n/a	n/a	n/a	n/a	n/a	n/a	n/a	n/a	n/a	n/a	n/a	n/a
2628013	PROB	n/a	LTP118	ltpFR	9	n/a	n/a	n/a	n/a	n/a	n/a	n/a	20	3	8	9	n/a	n/a	n/a	n/a	n/a
2631276	PROB	n/a	LTP118	ltpFR	9	n/a	n/a	n/a	n/a	n/a	n/a	n/a	20	7	9	4	n/a	n/a	n/a	n/a	n/a
2633918	STOP	n/a	LTP118	ltpFR	9	n/a	n/a	n/a	n/a	n/a	n/a	n/a	n/a	n/a	n/a	n/a	n/a	n/a	n/a	n/a	n/a
2636170	WORD	wordpools/wasnorm_wordpool.txt	LTP118	ltpFR	9	10	1	COMPANION	357	n/a	n/a	1	n/a	0	0	0	0.57763671875	0.412841796875	1	upper	amplitud.ttf
2639176	START	n/a	LTP118	ltpFR	9	n/a	n/a	n/a	n/a	n/a	n/a	n/a	n/a	n/a	n/a	n/a	n/a	n/a	n/a	n/a	n/a
2640282	PROB	n/a	LTP118	ltpFR	9	n/a	n/a	n/a	n/a	n/a	n/a	n/a	19	9	9	1	n/a	n/a	n/a	n/a	n/a
2647176	STOP	n/a	LTP118	ltpFR	9	n/a	n/a	n/a	n/a	n/a	n/a	n/a	n/a	n/a	n/a	n/a	n/a	n/a	n/a	n/a	n/a
2648173	WORD	wordpools/wasnorm_wordpool.txt	LTP118	ltpFR	9	10	1	CITIZEN	312	n/a	n/a	0	n/a	0	0	0	0.57763671875	0.412841796875	1	upper	amplitud.ttf
2651178	START	n/a	LTP118	ltpFR	9	n/a	n/a	n/a	n/a	n/a	n/a	n/a	n/a	n/a	n/a	n/a	n/a	n/a	n/a	n/a	n/a
2652077	PROB	n/a	LTP118	ltpFR	9	n/a	n/a	n/a	n/a	n/a	n/a	n/a	16	8	2	6	n/a	n/a	n/a	n/a	n/a
2653767	PROB	n/a	LTP118	ltpFR	9	n/a	n/a	n/a	n/a	n/a	n/a	n/a	15	6	3	6	n/a	n/a	n/a	n/a	n/a
2656047	PROB	n/a	LTP118	ltpFR	9	n/a	n/a	n/a	n/a	n/a	n/a	n/a	23	9	7	7	n/a	n/a	n/a	n/a	n/a
2657990	STOP	n/a	LTP118	ltpFR	9	n/a	n/a	n/a	n/a	n/a	n/a	n/a	n/a	n/a	n/a	n/a	n/a	n/a	n/a	n/a	n/a
2660026	WORD	wordpools/wasnorm_wordpool.txt	LTP118	ltpFR	9	10	1	PERSON	1052	n/a	n/a	1	n/a	0	0	0	0.57763671875	0.412841796875	1	upper	amplitud.ttf
2663031	START	n/a	LTP118	ltpFR	9	n/a	n/a	n/a	n/a	n/a	n/a	n/a	n/a	n/a	n/a	n/a	n/a	n/a	n/a	n/a	n/a
2664096	PROB	n/a	LTP118	ltpFR	9	n/a	n/a	n/a	n/a	n/a	n/a	n/a	10	5	2	3	n/a	n/a	n/a	n/a	n/a
2665761	PROB	n/a	LTP118	ltpFR	9	n/a	n/a	n/a	n/a	n/a	n/a	n/a	14	6	7	1	n/a	n/a	n/a	n/a	n/a
2668150	PROB	n/a	LTP118	ltpFR	9	n/a	n/a	n/a	n/a	n/a	n/a	n/a	15	5	9	1	n/a	n/a	n/a	n/a	n/a
2670725	STOP	n/a	LTP118	ltpFR	9	n/a	n/a	n/a	n/a	n/a	n/a	n/a	n/a	n/a	n/a	n/a	n/a	n/a	n/a	n/a	n/a
2671954	WORD	wordpools/wasnorm_wordpool.txt	LTP118	ltpFR	9	10	1	MULE	931	n/a	n/a	1	n/a	0	0	0	0.57763671875	0.412841796875	1	upper	amplitud.ttf
2674959	START	n/a	LTP118	ltpFR	9	n/a	n/a	n/a	n/a	n/a	n/a	n/a	n/a	n/a	n/a	n/a	n/a	n/a	n/a	n/a	n/a
2676099	PROB	n/a	LTP118	ltpFR	9	n/a	n/a	n/a	n/a	n/a	n/a	n/a	22	8	9	6	n/a	n/a	n/a	n/a	n/a
2682589	STOP	n/a	LTP118	ltpFR	9	n/a	n/a	n/a	n/a	n/a	n/a	n/a	n/a	n/a	n/a	n/a	n/a	n/a	n/a	n/a	n/a
2683998	WORD	wordpools/wasnorm_wordpool.txt	LTP118	ltpFR	9	10	1	VISITOR	1573	n/a	n/a	1	n/a	0	0	0	0.57763671875	0.412841796875	1	upper	amplitud.ttf
2687003	START	n/a	LTP118	ltpFR	9	n/a	n/a	n/a	n/a	n/a	n/a	n/a	n/a	n/a	n/a	n/a	n/a	n/a	n/a	n/a	n/a
2687810	PROB	n/a	LTP118	ltpFR	9	n/a	n/a	n/a	n/a	n/a	n/a	n/a	12	3	4	5	n/a	n/a	n/a	n/a	n/a
2695003	STOP	n/a	LTP118	ltpFR	9	n/a	n/a	n/a	n/a	n/a	n/a	n/a	n/a	n/a	n/a	n/a	n/a	n/a	n/a	n/a	n/a
2695918	WORD	wordpools/wasnorm_wordpool.txt	LTP118	ltpFR	9	10	1	PARTY	1018	n/a	n/a	1	n/a	0	0	0	0.57763671875	0.412841796875	1	upper	amplitud.ttf
2698923	START	n/a	LTP118	ltpFR	9	n/a	n/a	n/a	n/a	n/a	n/a	n/a	n/a	n/a	n/a	n/a	n/a	n/a	n/a	n/a	n/a
2699771	PROB	n/a	LTP118	ltpFR	9	n/a	n/a	n/a	n/a	n/a	n/a	n/a	20	5	6	9	n/a	n/a	n/a	n/a	n/a
2702086	PROB	n/a	LTP118	ltpFR	9	n/a	n/a	n/a	n/a	n/a	n/a	n/a	18	3	7	8	n/a	n/a	n/a	n/a	n/a
2704141	PROB	n/a	LTP118	ltpFR	9	n/a	n/a	n/a	n/a	n/a	n/a	n/a	11	1	8	2	n/a	n/a	n/a	n/a	n/a
2705998	STOP	n/a	LTP118	ltpFR	9	n/a	n/a	n/a	n/a	n/a	n/a	n/a	n/a	n/a	n/a	n/a	n/a	n/a	n/a	n/a	n/a
2708020	WORD	wordpools/wasnorm_wordpool.txt	LTP118	ltpFR	9	10	1	GORILLA	650	n/a	n/a	1	n/a	0	0	0	0.57763671875	0.412841796875	1	upper	amplitud.ttf
2711026	START	n/a	LTP118	ltpFR	9	n/a	n/a	n/a	n/a	n/a	n/a	n/a	n/a	n/a	n/a	n/a	n/a	n/a	n/a	n/a	n/a
2712207	PROB	n/a	LTP118	ltpFR	9	n/a	n/a	n/a	n/a	n/a	n/a	n/a	10	1	7	2	n/a	n/a	n/a	n/a	n/a
2713805	PROB	n/a	LTP118	ltpFR	9	n/a	n/a	n/a	n/a	n/a	n/a	n/a	21	7	5	9	n/a	n/a	n/a	n/a	n/a
2716327	PROB	n/a	LTP118	ltpFR	9	n/a	n/a	n/a	n/a	n/a	n/a	n/a	5	3	1	1	n/a	n/a	n/a	n/a	n/a
2718438	STOP	n/a	LTP118	ltpFR	9	n/a	n/a	n/a	n/a	n/a	n/a	n/a	n/a	n/a	n/a	n/a	n/a	n/a	n/a	n/a	n/a
2720106	WORD	wordpools/wasnorm_wordpool.txt	LTP118	ltpFR	9	10	1	SHOWER	1296	n/a	n/a	1	n/a	0	0	0	0.57763671875	0.412841796875	1	upper	amplitud.ttf
2723111	START	n/a	LTP118	ltpFR	9	n/a	n/a	n/a	n/a	n/a	n/a	n/a	n/a	n/a	n/a	n/a	n/a	n/a	n/a	n/a	n/a
2724235	PROB	n/a	LTP118	ltpFR	9	n/a	n/a	n/a	n/a	n/a	n/a	n/a	14	8	5	1	n/a	n/a	n/a	n/a	n/a
2726141	PROB	n/a	LTP118	ltpFR	9	n/a	n/a	n/a	n/a	n/a	n/a	n/a	11	6	4	1	n/a	n/a	n/a	n/a	n/a
2727472	PROB	n/a	LTP118	ltpFR	9	n/a	n/a	n/a	n/a	n/a	n/a	n/a	19	9	9	1	n/a	n/a	n/a	n/a	n/a
2731111	STOP	n/a	LTP118	ltpFR	9	n/a	n/a	n/a	n/a	n/a	n/a	n/a	n/a	n/a	n/a	n/a	n/a	n/a	n/a	n/a	n/a
2732867	REC_START	n/a	LTP118	ltpFR	9	10	n/a	n/a	n/a	n/a	n/a	n/a	n/a	0	0	0	n/a	n/a	n/a	n/a	n/a
2738753	REC_WORD	wordpools/wasnorm_wordpool.txt	LTP118	ltpFR	9	10	1	GORILLA	650	n/a	n/a	1	n/a	0	0	0	n/a	n/a	n/a	n/a	n/a
2740544	REC_WORD	wordpools/wasnorm_wordpool.txt	LTP118	ltpFR	9	10	1	MONKEY	911	n/a	n/a	1	n/a	0	0	0	n/a	n/a	n/a	n/a	n/a
2746167	REC_WORD	wordpools/wasnorm_wordpool.txt	LTP118	ltpFR	9	10	1	PERSON	1052	n/a	n/a	1	n/a	0	0	0	n/a	n/a	n/a	n/a	n/a
2748396	REC_WORD	wordpools/wasnorm_wordpool.txt	LTP118	ltpFR	9	10	1	ADULT	8	n/a	n/a	1	n/a	0	0	0	n/a	n/a	n/a	n/a	n/a
2776497	REC_WORD	wordpools/wasnorm_wordpool.txt	LTP118	ltpFR	9	10	1	COMPANION	357	n/a	n/a	1	n/a	0	0	0	n/a	n/a	n/a	n/a	n/a
2778338	REC_WORD	wordpools/wasnorm_wordpool.txt	LTP118	ltpFR	9	10	1	PARTNER	1017	n/a	n/a	1	n/a	0	0	0	n/a	n/a	n/a	n/a	n/a
2782908	REC_WORD	wordpools/wasnorm_wordpool.txt	LTP118	ltpFR	9	10	1	PARTY	1018	n/a	n/a	1	n/a	0	0	0	n/a	n/a	n/a	n/a	n/a
2808454	REST_REWET	n/a	LTP118	ltpFR	9	10	n/a	n/a	n/a	n/a	n/a	n/a	n/a	0	0	0	n/a	n/a	n/a	n/a	n/a
3120300	WORD	wordpools/wasnorm_wordpool.txt	LTP118	ltpFR	9	11	0	STAFF	1365	n/a	n/a	1	n/a	0	0	0	0.422607421875	0.5869140625	0	lower	zerothre.ttf
3124121	WORD	wordpools/wasnorm_wordpool.txt	LTP118	ltpFR	9	11	0	SIDEWALK	1303	n/a	n/a	1	n/a	0	0	0	0.422607421875	0.5869140625	0	lower	zerothre.ttf
3128041	WORD	wordpools/wasnorm_wordpool.txt	LTP118	ltpFR	9	11	0	PEARL	1034	n/a	n/a	0	n/a	0	0	0	0.422607421875	0.5869140625	0	lower	zerothre.ttf
3132028	WORD	wordpools/wasnorm_wordpool.txt	LTP118	ltpFR	9	11	0	STICKER	1382	n/a	n/a	0	n/a	0	0	0	0.422607421875	0.5869140625	0	lower	zerothre.ttf
3135857	WORD	wordpools/wasnorm_wordpool.txt	LTP118	ltpFR	9	11	0	DINER	467	n/a	n/a	1	n/a	0	0	0	0.422607421875	0.5869140625	0	lower	zerothre.ttf
3140069	WORD	wordpools/wasnorm_wordpool.txt	LTP118	ltpFR	9	11	0	SIRLOIN	1311	n/a	n/a	0	n/a	0	0	0	0.422607421875	0.5869140625	0	lower	zerothre.ttf
3144264	WORD	wordpools/wasnorm_wordpool.txt	LTP118	ltpFR	9	11	0	CURB	426	n/a	n/a	1	n/a	0	0	0	0.422607421875	0.5869140625	0	lower	zerothre.ttf
3148159	WORD	wordpools/wasnorm_wordpool.txt	LTP118	ltpFR	9	11	0	CONSOLE	364	n/a	n/a	1	n/a	0	0	0	0.422607421875	0.5869140625	0	lower	zerothre.ttf
3151972	WORD	wordpools/wasnorm_wordpool.txt	LTP118	ltpFR	9	11	0	CARAVAN	242	n/a	n/a	1	n/a	0	0	0	0.422607421875	0.5869140625	0	lower	zerothre.ttf
3155959	WORD	wordpools/wasnorm_wordpool.txt	LTP118	ltpFR	9	11	0	MOTOR	922	n/a	n/a	0	n/a	0	0	0	0.422607421875	0.5869140625	0	lower	zerothre.ttf
3159962	WORD	wordpools/wasnorm_wordpool.txt	LTP118	ltpFR	9	11	0	POLYESTER	1100	n/a	n/a	0	n/a	0	0	0	0.422607421875	0.5869140625	0	lower	zerothre.ttf
3163891	WORD	wordpools/wasnorm_wordpool.txt	LTP118	ltpFR	9	11	0	TEACHER	1440	n/a	n/a	1	n/a	0	0	0	0.422607421875	0.5869140625	0	lower	zerothre.ttf
3167912	WORD	wordpools/wasnorm_wordpool.txt	LTP118	ltpFR	9	11	0	SCHOOL	1248	n/a	n/a	1	n/a	0	0	0	0.422607421875	0.5869140625	0	lower	zerothre.ttf
3172057	WORD	wordpools/wasnorm_wordpool.txt	LTP118	ltpFR	9	11	0	COLLEGE	346	n/a	n/a	1	n/a	0	0	0	0.422607421875	0.5869140625	0	lower	zerothre.ttf
3176102	WORD	wordpools/wasnorm_wordpool.txt	LTP118	ltpFR	9	11	0	STRAWBERRY	1391	n/a	n/a	0	n/a	0	0	0	0.422607421875	0.5869140625	0	lower	zerothre.ttf
3180122	WORD	wordpools/wasnorm_wordpool.txt	LTP118	ltpFR	9	11	0	SUITE	1404	n/a	n/a	1	n/a	0	0	0	0.422607421875	0.5869140625	0	lower	zerothre.ttf
3186024	REC_START	n/a	LTP118	ltpFR	9	11	n/a	n/a	n/a	n/a	n/a	n/a	n/a	0	0	0	n/a	n/a	n/a	n/a	n/a
3186812	REC_WORD	wordpools/wasnorm_wordpool.txt	LTP118	ltpFR	9	11	0	SUITE	1404	n/a	n/a	1	n/a	0	0	0	n/a	n/a	n/a	n/a	n/a
3188598	REC_WORD	wordpools/wasnorm_wordpool.txt	LTP118	ltpFR	9	11	0	SIDEWALK	1303	n/a	n/a	1	n/a	0	0	0	n/a	n/a	n/a	n/a	n/a
3190384	REC_WORD	wordpools/wasnorm_wordpool.txt	LTP118	ltpFR	9	11	0	CURB	426	n/a	n/a	1	n/a	0	0	0	n/a	n/a	n/a	n/a	n/a
3192115	REC_WORD	wordpools/wasnorm_wordpool.txt	LTP118	ltpFR	9	11	0	POLYESTER	1100	n/a	n/a	0	n/a	0	0	0	n/a	n/a	n/a	n/a	n/a
3197308	REC_WORD	wordpools/wasnorm_wordpool.txt	LTP118	ltpFR	9	11	0	MOTOR	922	n/a	n/a	0	n/a	0	0	0	n/a	n/a	n/a	n/a	n/a
3206288	REC_WORD	wordpools/wasnorm_wordpool.txt	LTP118	ltpFR	9	11	0	TEACHER	1440	n/a	n/a	1	n/a	0	0	0	n/a	n/a	n/a	n/a	n/a
3348827	WORD	wordpools/wasnorm_wordpool.txt	LTP118	ltpFR	9	12	0	NAIL	936	n/a	n/a	0	n/a	0	0	0	0.422607421875	0.5869140625	0	lower	zerothre.ttf
3352822	WORD	wordpools/wasnorm_wordpool.txt	LTP118	ltpFR	9	12	0	LABYRINTH	791	n/a	n/a	1	n/a	0	0	0	0.422607421875	0.5869140625	0	lower	zerothre.ttf
3356675	WORD	wordpools/wasnorm_wordpool.txt	LTP118	ltpFR	9	12	0	CEILING	265	n/a	n/a	1	n/a	0	0	0	0.422607421875	0.5869140625	0	lower	zerothre.ttf
3360545	WORD	wordpools/wasnorm_wordpool.txt	LTP118	ltpFR	9	12	0	MOP	916	n/a	n/a	0	n/a	0	0	0	0.422607421875	0.5869140625	0	lower	zerothre.ttf
3364425	WORD	wordpools/wasnorm_wordpool.txt	LTP118	ltpFR	9	12	0	KNIGHT	786	n/a	n/a	1	n/a	0	0	0	0.422607421875	0.5869140625	0	lower	zerothre.ttf
3368536	WORD	wordpools/wasnorm_wordpool.txt	LTP118	ltpFR	9	12	0	HOUSE	725	n/a	n/a	1	n/a	0	0	0	0.422607421875	0.5869140625	0	lower	zerothre.ttf
3372714	WORD	wordpools/wasnorm_wordpool.txt	LTP118	ltpFR	9	12	0	BUCKET	184	n/a	n/a	0	n/a	0	0	0	0.422607421875	0.5869140625	0	lower	zerothre.ttf
3376894	WORD	wordpools/wasnorm_wordpool.txt	LTP118	ltpFR	9	12	0	PASSAGE	1019	n/a	n/a	1	n/a	0	0	0	0.422607421875	0.5869140625	0	lower	zerothre.ttf
3380823	WORD	wordpools/wasnorm_wordpool.txt	LTP118	ltpFR	9	12	0	SCOTCH	1251	n/a	n/a	1	n/a	0	0	0	0.422607421875	0.5869140625	0	lower	zerothre.ttf
3384951	WORD	wordpools/wasnorm_wordpool.txt	LTP118	ltpFR	9	12	0	WAVE	1596	n/a	n/a	1	n/a	0	0	0	0.422607421875	0.5869140625	0	lower	zerothre.ttf
3388838	WORD	wordpools/wasnorm_wordpool.txt	LTP118	ltpFR	9	12	0	PROTON	1132	n/a	n/a	0	n/a	0	0	0	0.422607421875	0.5869140625	0	lower	zerothre.ttf
3392733	WORD	wordpools/wasnorm_wordpool.txt	LTP118	ltpFR	9	12	0	ELECTRON	522	n/a	n/a	0	n/a	0	0	0	0.422607421875	0.5869140625	0	lower	zerothre.ttf
3396846	WORD	wordpools/wasnorm_wordpool.txt	LTP118	ltpFR	9	12	0	MANSION	864	n/a	n/a	1	n/a	0	0	0	0.422607421875	0.5869140625	0	lower	zerothre.ttf
3400858	WORD	wordpools/wasnorm_wordpool.txt	LTP118	ltpFR	9	12	0	LOBBY	836	n/a	n/a	1	n/a	0	0	0	0.422607421875	0.5869140625	0	lower	zerothre.ttf
3404887	WORD	wordpools/wasnorm_wordpool.txt	LTP118	ltpFR	9	12	0	SHED	1277	n/a	n/a	1	n/a	0	0	0	0.422607421875	0.5869140625	0	lower	zerothre.ttf
3409048	WORD	wordpools/wasnorm_wordpool.txt	LTP118	ltpFR	9	12	0	SIDING	1304	n/a	n/a	0	n/a	0	0	0	0.422607421875	0.5869140625	0	lower	zerothre.ttf
3412053	START	n/a	LTP118	ltpFR	9	n/a	n/a	n/a	n/a	n/a	n/a	n/a	n/a	n/a	n/a	n/a	n/a	n/a	n/a	n/a	n/a
3412960	PROB	n/a	LTP118	ltpFR	9	n/a	n/a	n/a	n/a	n/a	n/a	n/a	15	9	9	8	n/a	n/a	n/a	n/a	n/a
3416148	PROB	n/a	LTP118	ltpFR	9	n/a	n/a	n/a	n/a	n/a	n/a	n/a	14	6	5	3	n/a	n/a	n/a	n/a	n/a
3418536	PROB	n/a	LTP118	ltpFR	9	n/a	n/a	n/a	n/a	n/a	n/a	n/a	13	3	3	7	n/a	n/a	n/a	n/a	n/a
3420136	PROB	n/a	LTP118	ltpFR	9	n/a	n/a	n/a	n/a	n/a	n/a	n/a	18	2	7	9	n/a	n/a	n/a	n/a	n/a
3422141	PROB	n/a	LTP118	ltpFR	9	n/a	n/a	n/a	n/a	n/a	n/a	n/a	18	7	1	9	n/a	n/a	n/a	n/a	n/a
3428053	STOP	n/a	LTP118	ltpFR	9	n/a	n/a	n/a	n/a	n/a	n/a	n/a	n/a	n/a	n/a	n/a	n/a	n/a	n/a	n/a	n/a
3429808	REC_START	n/a	LTP118	ltpFR	9	12	n/a	n/a	n/a	n/a	n/a	n/a	n/a	0	0	0	n/a	n/a	n/a	n/a	n/a
3430257	REC_WORD	wordpools/wasnorm_wordpool.txt	LTP118	ltpFR	9	12	0	SIDING	1304	n/a	n/a	0	n/a	0	0	0	n/a	n/a	n/a	n/a	n/a
3431564	REC_WORD	wordpools/wasnorm_wordpool.txt	LTP118	ltpFR	9	12	0	MANSION	864	n/a	n/a	1	n/a	0	0	0	n/a	n/a	n/a	n/a	n/a
3432851	REC_WORD	wordpools/wasnorm_wordpool.txt	LTP118	ltpFR	9	12	0	HOUSE	725	n/a	n/a	1	n/a	0	0	0	n/a	n/a	n/a	n/a	n/a
3434138	REC_WORD	wordpools/wasnorm_wordpool.txt	LTP118	ltpFR	9	12	n/a	APARTMENT	30	n/a	n/a	n/a	n/a	0	0	0	n/a	n/a	n/a	n/a	n/a
3435530	REC_WORD	wordpools/wasnorm_wordpool.txt	LTP118	ltpFR	9	12	0	CEILING	265	n/a	n/a	1	n/a	0	0	0	n/a	n/a	n/a	n/a	n/a
3440114	REC_WORD	wordpools/wasnorm_wordpool.txt	LTP118	ltpFR	9	12	0	PROTON	1132	n/a	n/a	0	n/a	0	0	0	n/a	n/a	n/a	n/a	n/a
3441177	REC_WORD	wordpools/wasnorm_wordpool.txt	LTP118	ltpFR	9	12	0	ELECTRON	522	n/a	n/a	0	n/a	0	0	0	n/a	n/a	n/a	n/a	n/a
3557360	REC_START	n/a	LTP118	ltpFR	9	n/a	n/a	n/a	n/a	n/a	n/a	n/a	n/a	0	0	0	n/a	n/a	n/a	n/a	n/a
3557748	FFR_REC_WORD	wordpools/wasnorm_wordpool.txt	LTP118	ltpFR	9	n/a	0	BONE	148	n/a	n/a	0	n/a	0	0	0	n/a	n/a	n/a	n/a	n/a
3559156	FFR_REC_WORD	wordpools/wasnorm_wordpool.txt	LTP118	ltpFR	9	n/a	1	SKELETON	1314	n/a	n/a	0	n/a	0	0	0	n/a	n/a	n/a	n/a	n/a
3560782	FFR_REC_WORD	wordpools/wasnorm_wordpool.txt	LTP118	ltpFR	9	n/a	1	ROBIN	1199	n/a	n/a	1	n/a	0	0	0	n/a	n/a	n/a	n/a	n/a
3562204	FFR_REC_WORD	wordpools/wasnorm_wordpool.txt	LTP118	ltpFR	9	n/a	1	BLUEJAY	141	n/a	n/a	1	n/a	0	0	0	n/a	n/a	n/a	n/a	n/a
3563690	FFR_REC_WORD	wordpools/wasnorm_wordpool.txt	LTP118	ltpFR	9	n/a	1	FISH	571	n/a	n/a	1	n/a	0	0	0	n/a	n/a	n/a	n/a	n/a
3565117	FFR_REC_WORD	wordpools/wasnorm_wordpool.txt	LTP118	ltpFR	9	n/a	n/a	TROUT	1511	n/a	n/a	n/a	n/a	0	0	0	n/a	n/a	n/a	n/a	n/a
3566669	FFR_REC_WORD	wordpools/wasnorm_wordpool.txt	LTP118	ltpFR	9	n/a	1	PICNIC	1060	n/a	n/a	0	n/a	0	0	0	n/a	n/a	n/a	n/a	n/a
3568644	FFR_REC_WORD	wordpools/wasnorm_wordpool.txt	LTP118	ltpFR	9	n/a	0	HOUSE	725	n/a	n/a	1	n/a	0	0	0	n/a	n/a	n/a	n/a	n/a
3569976	FFR_REC_WORD	wordpools/wasnorm_wordpool.txt	LTP118	ltpFR	9	n/a	0	MANSION	864	n/a	n/a	1	n/a	0	0	0	n/a	n/a	n/a	n/a	n/a
3571353	FFR_REC_WORD	wordpools/wasnorm_wordpool.txt	LTP118	ltpFR	9	n/a	0	PROTON	1132	n/a	n/a	0	n/a	0	0	0	n/a	n/a	n/a	n/a	n/a
3572760	FFR_REC_WORD	wordpools/wasnorm_wordpool.txt	LTP118	ltpFR	9	n/a	0	ELECTRON	522	n/a	n/a	0	n/a	0	0	0	n/a	n/a	n/a	n/a	n/a
3576940	FFR_REC_WORD	wordpools/wasnorm_wordpool.txt	LTP118	ltpFR	9	n/a	0	SHED	1277	n/a	n/a	1	n/a	0	0	0	n/a	n/a	n/a	n/a	n/a
3578332	FFR_REC_WORD	wordpools/wasnorm_wordpool.txt	LTP118	ltpFR	9	n/a	0	SIDING	1304	n/a	n/a	0	n/a	0	0	0	n/a	n/a	n/a	n/a	n/a
3579859	FFR_REC_WORD	wordpools/wasnorm_wordpool.txt	LTP118	ltpFR	9	n/a	0	CURB	426	n/a	n/a	1	n/a	0	0	0	n/a	n/a	n/a	n/a	n/a
3581141	FFR_REC_WORD	wordpools/wasnorm_wordpool.txt	LTP118	ltpFR	9	n/a	0	SIDEWALK	1303	n/a	n/a	1	n/a	0	0	0	n/a	n/a	n/a	n/a	n/a
3583441	FFR_REC_WORD	wordpools/wasnorm_wordpool.txt	LTP118	ltpFR	9	n/a	0	TROUSERS	1510	n/a	n/a	1	n/a	0	0	0	n/a	n/a	n/a	n/a	n/a
3587212	FFR_REC_WORD	wordpools/wasnorm_wordpool.txt	LTP118	ltpFR	9	n/a	1	GORILLA	650	n/a	n/a	1	n/a	0	0	0	n/a	n/a	n/a	n/a	n/a
3588464	FFR_REC_WORD	wordpools/wasnorm_wordpool.txt	LTP118	ltpFR	9	n/a	1	MONKEY	911	n/a	n/a	1	n/a	0	0	0	n/a	n/a	n/a	n/a	n/a
3589821	FFR_REC_WORD	wordpools/wasnorm_wordpool.txt	LTP118	ltpFR	9	n/a	1	JAM	748	n/a	n/a	0	n/a	0	0	0	n/a	n/a	n/a	n/a	n/a
3596785	FFR_REC_WORD	wordpools/wasnorm_wordpool.txt	LTP118	ltpFR	9	n/a	1	PICNIC	1060	n/a	n/a	0	n/a	0	0	0	n/a	n/a	n/a	n/a	n/a
3597953	FFR_REC_WORD	wordpools/wasnorm_wordpool.txt	LTP118	ltpFR	9	n/a	0	POLYESTER	1100	n/a	n/a	0	n/a	0	0	0	n/a	n/a	n/a	n/a	n/a
3601574	FFR_REC_WORD	wordpools/wasnorm_wordpool.txt	LTP118	ltpFR	9	n/a	1	LIVER	833	n/a	n/a	0	n/a	0	0	0	n/a	n/a	n/a	n/a	n/a
3602946	FFR_REC_WORD	wordpools/wasnorm_wordpool.txt	LTP118	ltpFR	9	n/a	0	KIDNEY	776	n/a	n/a	0	n/a	0	0	0	n/a	n/a	n/a	n/a	n/a
3605381	FFR_REC_WORD	wordpools/wasnorm_wordpool.txt	LTP118	ltpFR	9	n/a	1	STEM	1376	n/a	n/a	0	n/a	0	0	0	n/a	n/a	n/a	n/a	n/a
3607441	FFR_REC_WORD	wordpools/wasnorm_wordpool.txt	LTP118	ltpFR	9	n/a	0	SEED	1266	n/a	n/a	0	n/a	0	0	0	n/a	n/a	n/a	n/a	n/a
3615558	FFR_REC_WORD	wordpools/wasnorm_wordpool.txt	LTP118	ltpFR	9	n/a	0	PORPOISE	1109	n/a	n/a	1	n/a	0	0	0	n/a	n/a	n/a	n/a	n/a
3620856	FFR_REC_WORD	wordpools/wasnorm_wordpool.txt	LTP118	ltpFR	9	n/a	1	ADULT	8	n/a	n/a	1	n/a	0	0	0	n/a	n/a	n/a	n/a	n/a
3622417	FFR_REC_WORD	wordpools/wasnorm_wordpool.txt	LTP118	ltpFR	9	n/a	1	PERSON	1052	n/a	n/a	1	n/a	0	0	0	n/a	n/a	n/a	n/a	n/a
3625919	FFR_REC_WORD	wordpools/wasnorm_wordpool.txt	LTP118	ltpFR	9	n/a	1	JUVENILE	767	n/a	n/a	1	n/a	0	0	0	n/a	n/a	n/a	n/a	n/a
3626907	FFR_REC_WORD	wordpools/wasnorm_wordpool.txt	LTP118	ltpFR	9	n/a	1	DELINQUENT	445	n/a	n/a	1	n/a	0	0	0	n/a	n/a	n/a	n/a	n/a
3640521	FFR_REC_WORD	wordpools/wasnorm_wordpool.txt	LTP118	ltpFR	9	n/a	1	HAY	693	n/a	n/a	0	n/a	0	0	0	n/a	n/a	n/a	n/a	n/a
3667265	FFR_REC_WORD	wordpools/wasnorm_wordpool.txt	LTP118	ltpFR	9	n/a	0	TEACHER	1440	n/a	n/a	1	n/a	0	0	0	n/a	n/a	n/a	n/a	n/a
3669575	FFR_REC_WORD	wordpools/wasnorm_wordpool.txt	LTP118	ltpFR	9	n/a	0	MOTOR	922	n/a	n/a	0	n/a	0	0	0	n/a	n/a	n/a	n/a	n/a
3782932	FFR_REC_WORD	wordpools/wasnorm_wordpool.txt	LTP118	ltpFR	9	n/a	1	CAMEL	223	n/a	n/a	1	n/a	0	0	0	n/a	n/a	n/a	n/a	n/a
3796875	FFR_REC_WORD	wordpools/wasnorm_wordpool.txt	LTP118	ltpFR	9	n/a	0	CIGARETTE	309	n/a	n/a	0	n/a	0	0	0	n/a	n/a	n/a	n/a	n/a
3804568	FFR_REC_WORD	wordpools/wasnorm_wordpool.txt	LTP118	ltpFR	9	n/a	1	COLONEL	348	n/a	n/a	1	n/a	0	0	0	n/a	n/a	n/a	n/a	n/a
3819768	FFR_REC_WORD	wordpools/wasnorm_wordpool.txt	LTP118	ltpFR	9	n/a	1	BAIT	70	n/a	n/a	0	n/a	0	0	0	n/a	n/a	n/a	n/a	n/a
3880211	REC_START	n/a	LTP118	ltpFR	9	1	n/a	n/a	n/a	n/a	n/a	n/a	n/a	0	0	0	n/a	n/a	n/a	n/a	n/a
3880235	RECOG_TARGET	n/a	LTP118	ltpFR	9	1	1	LIST	830	1	1	0	n/a	0	0	0	n/a	n/a	n/a	n/a	n/a
3881962	RECOG_RESP	n/a	LTP118	ltpFR	9	1	1	LIST	830	1	n/a	0	n/a	0	0	0	n/a	n/a	n/a	n/a	n/a
3883429	RECOG_CONF	n/a	LTP118	ltpFR	9	1	1	LIST	830	n/a	1	0	n/a	0	0	0	n/a	n/a	n/a	n/a	n/a
3884954	RECOG_TARGET	n/a	LTP118	ltpFR	9	1	0	FRIAR	605	1	4	1	n/a	0	0	0	n/a	n/a	n/a	n/a	n/a
3885693	RECOG_RESP	n/a	LTP118	ltpFR	9	1	0	FRIAR	605	1	n/a	1	n/a	0	0	0	n/a	n/a	n/a	n/a	n/a
3886571	RECOG_CONF	n/a	LTP118	ltpFR	9	1	0	FRIAR	605	n/a	4	1	n/a	0	0	0	n/a	n/a	n/a	n/a	n/a
3887951	RECOG_TARGET	n/a	LTP118	ltpFR	9	1	1	PEACH	1031	1	3	1	n/a	0	0	0	n/a	n/a	n/a	n/a	n/a
3888587	RECOG_RESP	n/a	LTP118	ltpFR	9	1	1	PEACH	1031	1	n/a	1	n/a	0	0	0	n/a	n/a	n/a	n/a	n/a
3889345	RECOG_CONF	n/a	LTP118	ltpFR	9	1	1	PEACH	1031	n/a	3	1	n/a	0	0	0	n/a	n/a	n/a	n/a	n/a
3890630	RECOG_LURE	n/a	LTP118	ltpFR	9	1	n/a	FRAGRANCE	599	0	2	n/a	n/a	0	0	0	n/a	n/a	n/a	n/a	n/a
3891251	RECOG_RESP	n/a	LTP118	ltpFR	9	1	n/a	FRAGRANCE	599	0	n/a	n/a	n/a	0	0	0	n/a	n/a	n/a	n/a	n/a
3891999	RECOG_CONF	n/a	LTP118	ltpFR	9	1	n/a	FRAGRANCE	599	n/a	2	n/a	n/a	0	0	0	n/a	n/a	n/a	n/a	n/a
3893303	RECOG_TARGET	n/a	LTP118	ltpFR	9	1	0	ELECTRON	522	1	3	0	n/a	0	0	0	n/a	n/a	n/a	n/a	n/a
3893855	RECOG_RESP	n/a	LTP118	ltpFR	9	1	0	ELECTRON	522	1	n/a	0	n/a	0	0	0	n/a	n/a	n/a	n/a	n/a
3894693	RECOG_CONF	n/a	LTP118	ltpFR	9	1	0	ELECTRON	522	n/a	3	0	n/a	0	0	0	n/a	n/a	n/a	n/a	n/a
3896125	RECOG_LURE	n/a	LTP118	ltpFR	9	1	n/a	BASEMENT	94	0	2	n/a	n/a	0	0	0	n/a	n/a	n/a	n/a	n/a
3896733	RECOG_RESP	n/a	LTP118	ltpFR	9	1	n/a	BASEMENT	94	0	n/a	n/a	n/a	0	0	0	n/a	n/a	n/a	n/a	n/a
3897397	RECOG_CONF	n/a	LTP118	ltpFR	9	1	n/a	BASEMENT	94	n/a	2	n/a	n/a	0	0	0	n/a	n/a	n/a	n/a	n/a
3898780	RECOG_TARGET	n/a	LTP118	ltpFR	9	1	1	VILLAIN	1567	1	4	1	n/a	0	0	0	n/a	n/a	n/a	n/a	n/a
3899322	RECOG_RESP	n/a	LTP118	ltpFR	9	1	1	VILLAIN	1567	1	n/a	1	n/a	0	0	0	n/a	n/a	n/a	n/a	n/a
3899921	RECOG_CONF	n/a	LTP118	ltpFR	9	1	1	VILLAIN	1567	n/a	4	1	n/a	0	0	0	n/a	n/a	n/a	n/a	n/a
3901360	RECOG_TARGET	n/a	LTP118	ltpFR	9	1	1	CARRIAGE	248	1	3	0	n/a	0	0	0	n/a	n/a	n/a	n/a	n/a
3901966	RECOG_RESP	n/a	LTP118	ltpFR	9	1	1	CARRIAGE	248	1	n/a	0	n/a	0	0	0	n/a	n/a	n/a	n/a	n/a
3902615	RECOG_CONF	n/a	LTP118	ltpFR	9	1	1	CARRIAGE	248	n/a	3	0	n/a	0	0	0	n/a	n/a	n/a	n/a	n/a
3904016	RECOG_TARGET	n/a	LTP118	ltpFR	9	1	1	DONOR	485	1	4	0	n/a	0	0	0	n/a	n/a	n/a	n/a	n/a
3904541	RECOG_RESP	n/a	LTP118	ltpFR	9	1	1	DONOR	485	1	n/a	0	n/a	0	0	0	n/a	n/a	n/a	n/a	n/a
3905099	RECOG_CONF	n/a	LTP118	ltpFR	9	1	1	DONOR	485	n/a	4	0	n/a	0	0	0	n/a	n/a	n/a	n/a	n/a
3906553	RECOG_LURE	n/a	LTP118	ltpFR	9	1	n/a	GOAT	644	0	2	n/a	n/a	0	0	0	n/a	n/a	n/a	n/a	n/a
3907150	RECOG_RESP	n/a	LTP118	ltpFR	9	1	n/a	GOAT	644	0	n/a	n/a	n/a	0	0	0	n/a	n/a	n/a	n/a	n/a
3907843	RECOG_CONF	n/a	LTP118	ltpFR	9	1	n/a	GOAT	644	n/a	2	n/a	n/a	0	0	0	n/a	n/a	n/a	n/a	n/a
3909301	RECOG_LURE	n/a	LTP118	ltpFR	9	1	n/a	GOO	648	0	3	n/a	n/a	0	0	0	n/a	n/a	n/a	n/a	n/a
3909888	RECOG_RESP	n/a	LTP118	ltpFR	9	1	n/a	GOO	648	0	n/a	n/a	n/a	0	0	0	n/a	n/a	n/a	n/a	n/a
3910497	RECOG_CONF	n/a	LTP118	ltpFR	9	1	n/a	GOO	648	n/a	3	n/a	n/a	0	0	0	n/a	n/a	n/a	n/a	n/a
3911881	RECOG_TARGET	n/a	LTP118	ltpFR	9	1	0	VEHICLE	1553	1	1	1	n/a	0	0	0	n/a	n/a	n/a	n/a	n/a
3912428	RECOG_RESP	n/a	LTP118	ltpFR	9	1	0	VEHICLE	1553	1	n/a	1	n/a	0	0	0	n/a	n/a	n/a	n/a	n/a
3913301	RECOG_CONF	n/a	LTP118	ltpFR	9	1	0	VEHICLE	1553	n/a	1	1	n/a	0	0	0	n/a	n/a	n/a	n/a	n/a
3914727	RECOG_TARGET	n/a	LTP118	ltpFR	9	1	0	CRAB	397	0	3	1	n/a	0	0	0	n/a	n/a	n/a	n/a	n/a
3915401	RECOG_RESP	n/a	LTP118	ltpFR	9	1	0	CRAB	397	0	n/a	1	n/a	0	0	0	n/a	n/a	n/a	n/a	n/a
3915983	RECOG_CONF	n/a	LTP118	ltpFR	9	1	0	CRAB	397	n/a	3	1	n/a	0	0	0	n/a	n/a	n/a	n/a	n/a
3917383	RECOG_TARGET	n/a	LTP118	ltpFR	9	1	0	ROD	1203	1	4	0	n/a	0	0	0	n/a	n/a	n/a	n/a	n/a
3917965	RECOG_RESP	n/a	LTP118	ltpFR	9	1	0	ROD	1203	1	n/a	0	n/a	0	0	0	n/a	n/a	n/a	n/a	n/a
3918529	RECOG_CONF	n/a	LTP118	ltpFR	9	1	0	ROD	1203	n/a	4	0	n/a	0	0	0	n/a	n/a	n/a	n/a	n/a
3919930	RECOG_TARGET	n/a	LTP118	ltpFR	9	1	0	PORPOISE	1109	1	5	1	n/a	0	0	0	n/a	n/a	n/a	n/a	n/a
3920544	RECOG_RESP	n/a	LTP118	ltpFR	9	1	0	PORPOISE	1109	1	n/a	1	n/a	0	0	0	n/a	n/a	n/a	n/a	n/a
3921093	RECOG_CONF	n/a	LTP118	ltpFR	9	1	0	PORPOISE	1109	n/a	5	1	n/a	0	0	0	n/a	n/a	n/a	n/a	n/a
3922543	RECOG_LURE	n/a	LTP118	ltpFR	9	1	n/a	GUN	673	0	3	n/a	n/a	0	0	0	n/a	n/a	n/a	n/a	n/a
3923148	RECOG_RESP	n/a	LTP118	ltpFR	9	1	n/a	GUN	673	0	n/a	n/a	n/a	0	0	0	n/a	n/a	n/a	n/a	n/a
3923747	RECOG_CONF	n/a	LTP118	ltpFR	9	1	n/a	GUN	673	n/a	3	n/a	n/a	0	0	0	n/a	n/a	n/a	n/a	n/a
3925141	RECOG_LURE	n/a	LTP118	ltpFR	9	1	n/a	FRAME	600	1	2	n/a	n/a	0	0	0	n/a	n/a	n/a	n/a	n/a
3925702	RECOG_RESP	n/a	LTP118	ltpFR	9	1	n/a	FRAME	600	1	n/a	n/a	n/a	0	0	0	n/a	n/a	n/a	n/a	n/a
3926391	RECOG_CONF	n/a	LTP118	ltpFR	9	1	n/a	FRAME	600	n/a	2	n/a	n/a	0	0	0	n/a	n/a	n/a	n/a	n/a
3927796	RECOG_TARGET	n/a	LTP118	ltpFR	9	1	0	CIGARETTE	309	1	3	0	n/a	0	0	0	n/a	n/a	n/a	n/a	n/a
3928401	RECOG_RESP	n/a	LTP118	ltpFR	9	1	0	CIGARETTE	309	1	n/a	0	n/a	0	0	0	n/a	n/a	n/a	n/a	n/a
3929045	RECOG_CONF	n/a	LTP118	ltpFR	9	1	0	CIGARETTE	309	n/a	3	0	n/a	0	0	0	n/a	n/a	n/a	n/a	n/a
3930427	RECOG_TARGET	n/a	LTP118	ltpFR	9	1	0	PASSAGE	1019	1	4	1	n/a	0	0	0	n/a	n/a	n/a	n/a	n/a
3931000	RECOG_RESP	n/a	LTP118	ltpFR	9	1	0	PASSAGE	1019	1	n/a	1	n/a	0	0	0	n/a	n/a	n/a	n/a	n/a
3931549	RECOG_CONF	n/a	LTP118	ltpFR	9	1	0	PASSAGE	1019	n/a	4	1	n/a	0	0	0	n/a	n/a	n/a	n/a	n/a
3933032	RECOG_TARGET	n/a	LTP118	ltpFR	9	1	1	BREAST	171	1	5	0	n/a	0	0	0	n/a	n/a	n/a	n/a	n/a
3933654	RECOG_RESP	n/a	LTP118	ltpFR	9	1	1	BREAST	171	1	n/a	0	n/a	0	0	0	n/a	n/a	n/a	n/a	n/a
3934273	RECOG_CONF	n/a	LTP118	ltpFR	9	1	1	BREAST	171	n/a	5	0	n/a	0	0	0	n/a	n/a	n/a	n/a	n/a
3958746	REC_START	n/a	LTP118	ltpFR	9	2	n/a	n/a	n/a	n/a	n/a	n/a	n/a	0	0	0	n/a	n/a	n/a	n/a	n/a
3958777	RECOG_TARGET	n/a	LTP118	ltpFR	9	2	1	EDITORIAL	517	1	3	0	n/a	0	0	0	n/a	n/a	n/a	n/a	n/a
3959439	RECOG_RESP	n/a	LTP118	ltpFR	9	2	1	EDITORIAL	517	1	n/a	0	n/a	0	0	0	n/a	n/a	n/a	n/a	n/a
3960088	RECOG_CONF	n/a	LTP118	ltpFR	9	2	1	EDITORIAL	517	n/a	3	0	n/a	0	0	0	n/a	n/a	n/a	n/a	n/a
3961382	RECOG_TARGET	n/a	LTP118	ltpFR	9	2	1	SPAGHETTI	1346	1	3	0	n/a	0	0	0	n/a	n/a	n/a	n/a	n/a
3962273	RECOG_RESP_VV	n/a	LTP118	ltpFR	9	2	1	SPAGHETTI	1346	0	n/a	0	n/a	0	0	0	n/a	n/a	n/a	n/a	n/a
3962911	RECOG_RESP	n/a	LTP118	ltpFR	9	2	1	SPAGHETTI	1346	1	n/a	0	n/a	0	0	0	n/a	n/a	n/a	n/a	n/a
3963500	RECOG_CONF	n/a	LTP118	ltpFR	9	2	1	SPAGHETTI	1346	n/a	3	0	n/a	0	0	0	n/a	n/a	n/a	n/a	n/a
3964870	RECOG_TARGET	n/a	LTP118	ltpFR	9	2	1	SCARF	1246	1	4	0	n/a	0	0	0	n/a	n/a	n/a	n/a	n/a
3965396	RECOG_RESP	n/a	LTP118	ltpFR	9	2	1	SCARF	1246	1	n/a	0	n/a	0	0	0	n/a	n/a	n/a	n/a	n/a
3965915	RECOG_CONF	n/a	LTP118	ltpFR	9	2	1	SCARF	1246	n/a	4	0	n/a	0	0	0	n/a	n/a	n/a	n/a	n/a
3967300	RECOG_TARGET	n/a	LTP118	ltpFR	9	2	1	DISHWASHER	475	1	4	0	n/a	0	0	0	n/a	n/a	n/a	n/a	n/a
3967725	RECOG_RESP	n/a	LTP118	ltpFR	9	2	1	DISHWASHER	475	1	n/a	0	n/a	0	0	0	n/a	n/a	n/a	n/a	n/a
3968359	RECOG_CONF	n/a	LTP118	ltpFR	9	2	1	DISHWASHER	475	n/a	4	0	n/a	0	0	0	n/a	n/a	n/a	n/a	n/a
3969663	RECOG_TARGET	n/a	LTP118	ltpFR	9	2	1	CARDINAL	244	1	3	0	n/a	0	0	0	n/a	n/a	n/a	n/a	n/a
3970095	RECOG_RESP	n/a	LTP118	ltpFR	9	2	1	CARDINAL	244	1	n/a	0	n/a	0	0	0	n/a	n/a	n/a	n/a	n/a
3970674	RECOG_CONF	n/a	LTP118	ltpFR	9	2	1	CARDINAL	244	n/a	3	0	n/a	0	0	0	n/a	n/a	n/a	n/a	n/a
3971987	RECOG_TARGET	n/a	LTP118	ltpFR	9	2	0	WORM	1623	1	2	0	n/a	0	0	0	n/a	n/a	n/a	n/a	n/a
