mstime	trial_type	stim_file	subject	experiment	session	trial	item_name	item_num	list	answer	test_x	test_y	test_z
0	SESS_START	n/a	LTP374	ltpFR2	12	n/a	n/a	n/a	n/a	n/a	0	0	0
14763	START	n/a	LTP374	ltpFR2	12	n/a	n/a	n/a	-1	n/a	n/a	n/a	n/a
14793	PROB	n/a	LTP374	ltpFR2	12	n/a	n/a	n/a	-1	9	2	5	2
15726	PROB	n/a	LTP374	ltpFR2	12	n/a	n/a	n/a	-1	11	3	5	3
16909	PROB	n/a	LTP374	ltpFR2	12	n/a	n/a	n/a	-1	14	2	9	3
18242	PROB	n/a	LTP374	ltpFR2	12	n/a	n/a	n/a	-1	15	7	1	7
19208	PROB	n/a	LTP374	ltpFR2	12	n/a	n/a	n/a	-1	14	4	1	9
20091	PROB	n/a	LTP374	ltpFR2	12	n/a	n/a	n/a	-1	16	6	4	6
21240	PROB	n/a	LTP374	ltpFR2	12	n/a	n/a	n/a	-1	7	1	2	4
22123	PROB	n/a	LTP374	ltpFR2	12	n/a	n/a	n/a	-1	19	6	9	4
23123	PROB	n/a	LTP374	ltpFR2	12	n/a	n/a	n/a	-1	10	1	2	7
24005	PROB	n/a	LTP374	ltpFR2	12	n/a	n/a	n/a	-1	19	8	9	1
24922	PROB	n/a	LTP374	ltpFR2	12	n/a	n/a	n/a	-1	20	8	5	7
26231	STOP	n/a	LTP374	ltpFR2	12	n/a	n/a	n/a	-1	n/a	n/a	n/a	n/a
60705	DISTRACTOR	n/a	LTP374	ltpFR2	12	1	n/a	n/a	n/a	n/a	0	0	0
60705	START	n/a	LTP374	ltpFR2	12	n/a	n/a	n/a	1	n/a	n/a	n/a	n/a
60722	PROB	n/a	LTP374	ltpFR2	12	n/a	n/a	n/a	1	9	2	3	4
61437	PROB	n/a	LTP374	ltpFR2	12	n/a	n/a	n/a	1	14	2	6	6
62320	PROB	n/a	LTP374	ltpFR2	12	n/a	n/a	n/a	1	15	1	9	5
63054	PROB	n/a	LTP374	ltpFR2	12	n/a	n/a	n/a	1	1	9	5	4
64887	PROB	n/a	LTP374	ltpFR2	12	n/a	n/a	n/a	1	10	2	4	4
65936	PROB	n/a	LTP374	ltpFR2	12	n/a	n/a	n/a	1	21	4	9	8
67284	PROB	n/a	LTP374	ltpFR2	12	n/a	n/a	n/a	1	1	3	7	3
68018	PROB	n/a	LTP374	ltpFR2	12	n/a	n/a	n/a	1	11	1	8	2
69583	PROB	n/a	LTP374	ltpFR2	12	n/a	n/a	n/a	1	1	6	3	4
70600	PROB	n/a	LTP374	ltpFR2	12	n/a	n/a	n/a	1	9	6	2	1
71333	PROB	n/a	LTP374	ltpFR2	12	n/a	n/a	n/a	1	8	1	6	1
72100	PROB	n/a	LTP374	ltpFR2	12	n/a	n/a	n/a	1	7	2	1	4
72850	PROB	n/a	LTP374	ltpFR2	12	n/a	n/a	n/a	1	16	8	4	4
73849	PROB	n/a	LTP374	ltpFR2	12	n/a	n/a	n/a	1	16	7	4	5
74732	PROB	n/a	LTP374	ltpFR2	12	n/a	n/a	n/a	1	12	8	3	1
75614	PROB	n/a	LTP374	ltpFR2	12	n/a	n/a	n/a	1	15	2	6	6
76864	PROB	n/a	LTP374	ltpFR2	12	n/a	n/a	n/a	1	15	4	8	3
77747	PROB	n/a	LTP374	ltpFR2	12	n/a	n/a	n/a	1	19	8	3	8
78947	PROB	n/a	LTP374	ltpFR2	12	n/a	n/a	n/a	1	8	2	4	2
79695	PROB	n/a	LTP374	ltpFR2	12	n/a	n/a	n/a	1	14	1	8	5
81012	PROB	n/a	LTP374	ltpFR2	12	n/a	n/a	n/a	1	20	7	6	7
84705	STOP	n/a	LTP374	ltpFR2	12	n/a	n/a	n/a	1	n/a	n/a	n/a	n/a
85576	WORD	wordpools/wasnorm_wordpool_576.txt	LTP374	ltpFR2	12	1	YARN	1631	n/a	n/a	0	0	0
88159	WORD	wordpools/wasnorm_wordpool_576.txt	LTP374	ltpFR2	12	1	TWIG	1527	n/a	n/a	0	0	0
90741	WORD	wordpools/wasnorm_wordpool_576.txt	LTP374	ltpFR2	12	1	CASHIER	254	n/a	n/a	0	0	0
93356	WORD	wordpools/wasnorm_wordpool_576.txt	LTP374	ltpFR2	12	1	TYPIST	1532	n/a	n/a	0	0	0
96139	WORD	wordpools/wasnorm_wordpool_576.txt	LTP374	ltpFR2	12	1	STAKE	1368	n/a	n/a	0	0	0
98954	WORD	wordpools/wasnorm_wordpool_576.txt	LTP374	ltpFR2	12	1	CATTLE	261	n/a	n/a	0	0	0
101402	WORD	wordpools/wasnorm_wordpool_576.txt	LTP374	ltpFR2	12	1	FARMER	553	n/a	n/a	0	0	0
104152	WORD	wordpools/wasnorm_wordpool_576.txt	LTP374	ltpFR2	12	1	SIDEWALK	1303	n/a	n/a	0	0	0
106784	WORD	wordpools/wasnorm_wordpool_576.txt	LTP374	ltpFR2	12	1	ROD	1203	n/a	n/a	0	0	0
109249	WORD	wordpools/wasnorm_wordpool_576.txt	LTP374	ltpFR2	12	1	CHURCH	307	n/a	n/a	0	0	0
111748	WORD	wordpools/wasnorm_wordpool_576.txt	LTP374	ltpFR2	12	1	FOREST	593	n/a	n/a	0	0	0
114329	WORD	wordpools/wasnorm_wordpool_576.txt	LTP374	ltpFR2	12	1	INMATE	738	n/a	n/a	0	0	0
116812	WORD	wordpools/wasnorm_wordpool_576.txt	LTP374	ltpFR2	12	1	GUARD	667	n/a	n/a	0	0	0
119544	WORD	wordpools/wasnorm_wordpool_576.txt	LTP374	ltpFR2	12	1	PLATE	1086	n/a	n/a	0	0	0
121993	WORD	wordpools/wasnorm_wordpool_576.txt	LTP374	ltpFR2	12	1	PUPPY	1144	n/a	n/a	0	0	0
124491	WORD	wordpools/wasnorm_wordpool_576.txt	LTP374	ltpFR2	12	1	SALMON	1227	n/a	n/a	0	0	0
127024	WORD	wordpools/wasnorm_wordpool_576.txt	LTP374	ltpFR2	12	1	BADGE	68	n/a	n/a	0	0	0
129723	WORD	wordpools/wasnorm_wordpool_576.txt	LTP374	ltpFR2	12	1	MISSILE	900	n/a	n/a	0	0	0
132205	WORD	wordpools/wasnorm_wordpool_576.txt	LTP374	ltpFR2	12	1	BEEF	113	n/a	n/a	0	0	0
134653	WORD	wordpools/wasnorm_wordpool_576.txt	LTP374	ltpFR2	12	1	BUTCHER	203	n/a	n/a	0	0	0
137086	WORD	wordpools/wasnorm_wordpool_576.txt	LTP374	ltpFR2	12	1	FLASHLIGHT	575	n/a	n/a	0	0	0
139818	WORD	wordpools/wasnorm_wordpool_576.txt	LTP374	ltpFR2	12	1	ICEBERG	731	n/a	n/a	0	0	0
142383	WORD	wordpools/wasnorm_wordpool_576.txt	LTP374	ltpFR2	12	1	BLOCKADE	137	n/a	n/a	0	0	0
144916	WORD	wordpools/wasnorm_wordpool_576.txt	LTP374	ltpFR2	12	1	LEG	809	n/a	n/a	0	0	0
146531	START	n/a	LTP374	ltpFR2	12	n/a	n/a	n/a	2	n/a	n/a	n/a	n/a
147460	DISTRACTOR	n/a	LTP374	ltpFR2	12	1	n/a	n/a	n/a	n/a	0	0	0
147464	PROB	n/a	LTP374	ltpFR2	12	n/a	n/a	n/a	2	18	8	3	7
148547	PROB	n/a	LTP374	ltpFR2	12	n/a	n/a	n/a	2	20	6	8	8
149747	PROB	n/a	LTP374	ltpFR2	12	n/a	n/a	n/a	2	18	3	9	7
150830	PROB	n/a	LTP374	ltpFR2	12	n/a	n/a	n/a	2	16	8	2	6
151695	PROB	n/a	LTP374	ltpFR2	12	n/a	n/a	n/a	2	1	1	9	3
152512	PROB	n/a	LTP374	ltpFR2	12	n/a	n/a	n/a	2	10	1	3	6
153511	PROB	n/a	LTP374	ltpFR2	12	n/a	n/a	n/a	2	15	5	1	7
154494	PROB	n/a	LTP374	ltpFR2	12	n/a	n/a	n/a	2	20	9	7	5
156028	PROB	n/a	LTP374	ltpFR2	12	n/a	n/a	n/a	2	17	6	4	7
156910	PROB	n/a	LTP374	ltpFR2	12	n/a	n/a	n/a	2	16	8	1	7
158193	PROB	n/a	LTP374	ltpFR2	12	n/a	n/a	n/a	2	19	2	9	8
159508	PROB	n/a	LTP374	ltpFR2	12	n/a	n/a	n/a	2	17	4	4	9
160491	PROB	n/a	LTP374	ltpFR2	12	n/a	n/a	n/a	2	6	4	1	1
161274	PROB	n/a	LTP374	ltpFR2	12	n/a	n/a	n/a	2	9	1	4	4
162208	PROB	n/a	LTP374	ltpFR2	12	n/a	n/a	n/a	2	21	9	8	4
163174	PROB	n/a	LTP374	ltpFR2	12	n/a	n/a	n/a	2	16	3	9	4
164057	PROB	n/a	LTP374	ltpFR2	12	n/a	n/a	n/a	2	13	4	4	5
165123	PROB	n/a	LTP374	ltpFR2	12	n/a	n/a	n/a	2	16	5	9	2
166023	PROB	n/a	LTP374	ltpFR2	12	n/a	n/a	n/a	2	15	9	2	4
167338	PROB	n/a	LTP374	ltpFR2	12	n/a	n/a	n/a	2	18	5	3	9
168838	PROB	n/a	LTP374	ltpFR2	12	n/a	n/a	n/a	2	19	5	7	7
169932	STOP	n/a	LTP374	ltpFR2	12	n/a	n/a	n/a	2	n/a	n/a	n/a	n/a
172386	REC_START	n/a	LTP374	ltpFR2	12	1	n/a	n/a	n/a	n/a	0	0	0
174031	REC_WORD	wordpools/wasnorm_wordpool_576.txt	LTP374	ltpFR2	12	1	ICEBERG	731	n/a	n/a	0	0	0
174898	REC_WORD	wordpools/wasnorm_wordpool_576.txt	LTP374	ltpFR2	12	1	ROD	1203	n/a	n/a	0	0	0
175679	REC_WORD	wordpools/wasnorm_wordpool_576.txt	LTP374	ltpFR2	12	1	FOREST	593	n/a	n/a	0	0	0
176809	REC_WORD	wordpools/wasnorm_wordpool_576.txt	LTP374	ltpFR2	12	1	SIDEWALK	1303	n/a	n/a	0	0	0
178408	REC_WORD	wordpools/wasnorm_wordpool_576.txt	LTP374	ltpFR2	12	1	CASHIER	254	n/a	n/a	0	0	0
179751	REC_WORD	wordpools/wasnorm_wordpool_576.txt	LTP374	ltpFR2	12	1	COIN	343	n/a	n/a	0	0	0
182211	REC_WORD	wordpools/wasnorm_wordpool_576.txt	LTP374	ltpFR2	12	1	BUTCHER	203	n/a	n/a	0	0	0
183304	REC_WORD	wordpools/wasnorm_wordpool_576.txt	LTP374	ltpFR2	12	1	BEEF	113	n/a	n/a	0	0	0
184366	REC_WORD	wordpools/wasnorm_wordpool_576.txt	LTP374	ltpFR2	12	1	FARMER	553	n/a	n/a	0	0	0
185794	REC_WORD	wordpools/wasnorm_wordpool_576.txt	LTP374	ltpFR2	12	1	CATTLE	261	n/a	n/a	0	0	0
187654	REC_WORD	wordpools/wasnorm_wordpool_576.txt	LTP374	ltpFR2	12	1	MEAT	883	n/a	n/a	0	0	0
193355	REC_WORD	wordpools/wasnorm_wordpool_576.txt	LTP374	ltpFR2	12	1	YARN	1631	n/a	n/a	0	0	0
262811	DISTRACTOR	n/a	LTP374	ltpFR2	12	2	n/a	n/a	n/a	n/a	0	0	0
262812	START	n/a	LTP374	ltpFR2	12	n/a	n/a	n/a	3	n/a	n/a	n/a	n/a
262828	PROB	n/a	LTP374	ltpFR2	12	n/a	n/a	n/a	3	13	7	3	3
263643	PROB	n/a	LTP374	ltpFR2	12	n/a	n/a	n/a	3	14	5	4	5
264543	PROB	n/a	LTP374	ltpFR2	12	n/a	n/a	n/a	3	17	7	9	1
265509	PROB	n/a	LTP374	ltpFR2	12	n/a	n/a	n/a	3	21	9	9	3
266392	PROB	n/a	LTP374	ltpFR2	12	n/a	n/a	n/a	3	18	4	5	9
267209	PROB	n/a	LTP374	ltpFR2	12	n/a	n/a	n/a	3	14	2	4	8
268176	PROB	n/a	LTP374	ltpFR2	12	n/a	n/a	n/a	3	16	5	7	4
269125	PROB	n/a	LTP374	ltpFR2	12	n/a	n/a	n/a	3	13	2	2	9
270241	PROB	n/a	LTP374	ltpFR2	12	n/a	n/a	n/a	3	16	2	7	4
271108	PROB	n/a	LTP374	ltpFR2	12	n/a	n/a	n/a	3	6	4	1	1
271807	PROB	n/a	LTP374	ltpFR2	12	n/a	n/a	n/a	3	17	5	7	5
273023	PROB	n/a	LTP374	ltpFR2	12	n/a	n/a	n/a	3	17	9	2	6
274223	PROB	n/a	LTP374	ltpFR2	12	n/a	n/a	n/a	3	21	5	7	9
275156	PROB	n/a	LTP374	ltpFR2	12	n/a	n/a	n/a	3	7	4	1	2
275872	PROB	n/a	LTP374	ltpFR2	12	n/a	n/a	n/a	3	16	9	4	5
276855	PROB	n/a	LTP374	ltpFR2	12	n/a	n/a	n/a	3	10	2	3	5
277721	PROB	n/a	LTP374	ltpFR2	12	n/a	n/a	n/a	3	19	6	9	4
278670	PROB	n/a	LTP374	ltpFR2	12	n/a	n/a	n/a	3	15	2	6	7
279569	PROB	n/a	LTP374	ltpFR2	12	n/a	n/a	n/a	3	11	2	3	6
280669	PROB	n/a	LTP374	ltpFR2	12	n/a	n/a	n/a	3	8	1	2	5
281385	PROB	n/a	LTP374	ltpFR2	12	n/a	n/a	n/a	3	9	1	5	3
282719	PROB	n/a	LTP374	ltpFR2	12	n/a	n/a	n/a	3	19	8	8	3
283551	PROB	n/a	LTP374	ltpFR2	12	n/a	n/a	n/a	3	23	8	6	9
285151	PROB	n/a	LTP374	ltpFR2	12	n/a	n/a	n/a	3	15	2	7	6
286032	STOP	n/a	LTP374	ltpFR2	12	n/a	n/a	n/a	3	n/a	n/a	n/a	n/a
287966	WORD	wordpools/wasnorm_wordpool_576.txt	LTP374	ltpFR2	12	2	SHERIFF	1284	n/a	n/a	0	0	0
290464	WORD	wordpools/wasnorm_wordpool_576.txt	LTP374	ltpFR2	12	2	AGENT	10	n/a	n/a	0	0	0
293247	WORD	wordpools/wasnorm_wordpool_576.txt	LTP374	ltpFR2	12	2	STREAM	1392	n/a	n/a	0	0	0
296046	WORD	wordpools/wasnorm_wordpool_576.txt	LTP374	ltpFR2	12	2	GRIZZLY	662	n/a	n/a	0	0	0
298861	WORD	wordpools/wasnorm_wordpool_576.txt	LTP374	ltpFR2	12	2	SHORTS	1293	n/a	n/a	0	0	0
301326	WORD	wordpools/wasnorm_wordpool_576.txt	LTP374	ltpFR2	12	2	CRUTCH	417	n/a	n/a	0	0	0
303976	WORD	wordpools/wasnorm_wordpool_576.txt	LTP374	ltpFR2	12	2	HUMAN	726	n/a	n/a	0	0	0
306507	WORD	wordpools/wasnorm_wordpool_576.txt	LTP374	ltpFR2	12	2	LIZARD	834	n/a	n/a	0	0	0
309190	WORD	wordpools/wasnorm_wordpool_576.txt	LTP374	ltpFR2	12	2	COBRA	336	n/a	n/a	0	0	0
311822	WORD	wordpools/wasnorm_wordpool_576.txt	LTP374	ltpFR2	12	2	COWBOY	395	n/a	n/a	0	0	0
314586	WORD	wordpools/wasnorm_wordpool_576.txt	LTP374	ltpFR2	12	2	PLUTO	1092	n/a	n/a	0	0	0
317086	WORD	wordpools/wasnorm_wordpool_576.txt	LTP374	ltpFR2	12	2	HUSBAND	728	n/a	n/a	0	0	0
319651	WORD	wordpools/wasnorm_wordpool_576.txt	LTP374	ltpFR2	12	2	TUTU	1524	n/a	n/a	0	0	0
322316	WORD	wordpools/wasnorm_wordpool_576.txt	LTP374	ltpFR2	12	2	POCKET	1093	n/a	n/a	0	0	0
325099	WORD	wordpools/wasnorm_wordpool_576.txt	LTP374	ltpFR2	12	2	HAND	683	n/a	n/a	0	0	0
327664	WORD	wordpools/wasnorm_wordpool_576.txt	LTP374	ltpFR2	12	2	PIMPLE	1071	n/a	n/a	0	0	0
330097	WORD	wordpools/wasnorm_wordpool_576.txt	LTP374	ltpFR2	12	2	SPONGE	1355	n/a	n/a	0	0	0
332661	WORD	wordpools/wasnorm_wordpool_576.txt	LTP374	ltpFR2	12	2	TEACHER	1440	n/a	n/a	0	0	0
335343	WORD	wordpools/wasnorm_wordpool_576.txt	LTP374	ltpFR2	12	2	VALLEY	1545	n/a	n/a	0	0	0
338126	WORD	wordpools/wasnorm_wordpool_576.txt	LTP374	ltpFR2	12	2	CREATURE	403	n/a	n/a	0	0	0
340658	WORD	wordpools/wasnorm_wordpool_576.txt	LTP374	ltpFR2	12	2	RACKET	1155	n/a	n/a	0	0	0
343157	WORD	wordpools/wasnorm_wordpool_576.txt	LTP374	ltpFR2	12	2	LEADER	807	n/a	n/a	0	0	0
345773	WORD	wordpools/wasnorm_wordpool_576.txt	LTP374	ltpFR2	12	2	CUPBOARD	425	n/a	n/a	0	0	0
348254	WORD	wordpools/wasnorm_wordpool_576.txt	LTP374	ltpFR2	12	2	WAITER	1580	n/a	n/a	0	0	0
349871	START	n/a	LTP374	ltpFR2	12	n/a	n/a	n/a	4	n/a	n/a	n/a	n/a
350951	DISTRACTOR	n/a	LTP374	ltpFR2	12	2	n/a	n/a	n/a	n/a	0	0	0
350954	PROB	n/a	LTP374	ltpFR2	12	n/a	n/a	n/a	4	18	4	9	5
352170	PROB	n/a	LTP374	ltpFR2	12	n/a	n/a	n/a	4	19	6	9	4
353268	PROB	n/a	LTP374	ltpFR2	12	n/a	n/a	n/a	4	12	1	9	2
354219	PROB	n/a	LTP374	ltpFR2	12	n/a	n/a	n/a	4	16	3	7	6
354952	PROB	n/a	LTP374	ltpFR2	12	n/a	n/a	n/a	4	91	2	5	2
355651	PROB	n/a	LTP374	ltpFR2	12	n/a	n/a	n/a	4	17	5	9	3
356667	PROB	n/a	LTP374	ltpFR2	12	n/a	n/a	n/a	4	14	1	9	4
357483	PROB	n/a	LTP374	ltpFR2	12	n/a	n/a	n/a	4	21	5	9	7
358666	PROB	n/a	LTP374	ltpFR2	12	n/a	n/a	n/a	4	20	8	9	3
360665	PROB	n/a	LTP374	ltpFR2	12	n/a	n/a	n/a	4	18	2	8	8
361598	PROB	n/a	LTP374	ltpFR2	12	n/a	n/a	n/a	4	13	4	5	4
363098	PROB	n/a	LTP374	ltpFR2	12	n/a	n/a	n/a	4	21	9	4	8
364580	PROB	n/a	LTP374	ltpFR2	12	n/a	n/a	n/a	4	18	8	7	3
365947	PROB	n/a	LTP374	ltpFR2	12	n/a	n/a	n/a	4	16	9	2	5
366830	PROB	n/a	LTP374	ltpFR2	12	n/a	n/a	n/a	4	13	2	4	7
367713	PROB	n/a	LTP374	ltpFR2	12	n/a	n/a	n/a	4	13	4	2	7
368796	PROB	n/a	LTP374	ltpFR2	12	n/a	n/a	n/a	4	9	2	6	1
369594	PROB	n/a	LTP374	ltpFR2	12	n/a	n/a	n/a	4	8	1	3	4
370544	PROB	n/a	LTP374	ltpFR2	12	n/a	n/a	n/a	4	16	5	2	9
371560	PROB	n/a	LTP374	ltpFR2	12	n/a	n/a	n/a	4	21	7	6	8
372585	STOP	n/a	LTP374	ltpFR2	12	n/a	n/a	n/a	4	n/a	n/a	n/a	n/a
375776	REC_START	n/a	LTP374	ltpFR2	12	2	n/a	n/a	n/a	n/a	0	0	0
379017	REC_WORD	wordpools/wasnorm_wordpool_576.txt	LTP374	ltpFR2	12	2	RACKET	1155	n/a	n/a	0	0	0
380017	REC_WORD_VV	wordpools/wasnorm_wordpool_576.txt	LTP374	ltpFR2	12	2	<>	-1	n/a	n/a	0	0	0
380794	REC_WORD	wordpools/wasnorm_wordpool_576.txt	LTP374	ltpFR2	12	2	TEACHER	1440	n/a	n/a	0	0	0
381872	REC_WORD	wordpools/wasnorm_wordpool_576.txt	LTP374	ltpFR2	12	2	CUPBOARD	425	n/a	n/a	0	0	0
383484	REC_WORD	wordpools/wasnorm_wordpool_576.txt	LTP374	ltpFR2	12	2	PLUTO	1092	n/a	n/a	0	0	0
384441	REC_WORD	wordpools/wasnorm_wordpool_576.txt	LTP374	ltpFR2	12	2	STUDENT	1395	n/a	n/a	0	0	0
385441	REC_WORD_VV	wordpools/wasnorm_wordpool_576.txt	LTP374	ltpFR2	12	2	<>	-1	n/a	n/a	0	0	0
386213	REC_WORD	wordpools/wasnorm_wordpool_576.txt	LTP374	ltpFR2	12	2	PIMPLE	1071	n/a	n/a	0	0	0
387606	REC_WORD	wordpools/wasnorm_wordpool_576.txt	LTP374	ltpFR2	12	2	TUTU	1524	n/a	n/a	0	0	0
388740	REC_WORD	wordpools/wasnorm_wordpool_576.txt	LTP374	ltpFR2	12	2	POCKET	1093	n/a	n/a	0	0	0
389489	REC_WORD	wordpools/wasnorm_wordpool_576.txt	LTP374	ltpFR2	12	2	SHORTS	1293	n/a	n/a	0	0	0
391282	REC_WORD	wordpools/wasnorm_wordpool_576.txt	LTP374	ltpFR2	12	2	COBRA	336	n/a	n/a	0	0	0
392301	REC_WORD	wordpools/wasnorm_wordpool_576.txt	LTP374	ltpFR2	12	2	AGENT	10	n/a	n/a	0	0	0
392965	REC_WORD	wordpools/wasnorm_wordpool_576.txt	LTP374	ltpFR2	12	2	SHERIFF	1284	n/a	n/a	0	0	0
394345	REC_WORD	wordpools/wasnorm_wordpool_576.txt	LTP374	ltpFR2	12	2	LIZARD	834	n/a	n/a	0	0	0
395096	REC_WORD	wordpools/wasnorm_wordpool_576.txt	LTP374	ltpFR2	12	2	FOREST	593	n/a	n/a	0	0	0
396391	REC_WORD	wordpools/wasnorm_wordpool_576.txt	LTP374	ltpFR2	12	2	GRIZZLY	662	n/a	n/a	0	0	0
396970	REC_WORD	wordpools/wasnorm_wordpool_576.txt	LTP374	ltpFR2	12	2	SHORTS	1293	n/a	n/a	0	0	0
398119	REC_WORD	wordpools/wasnorm_wordpool_576.txt	LTP374	ltpFR2	12	2	POCKET	1093	n/a	n/a	0	0	0
399004	REC_WORD	wordpools/wasnorm_wordpool_576.txt	LTP374	ltpFR2	12	2	CRUTCH	417	n/a	n/a	0	0	0
401249	REC_WORD	wordpools/wasnorm_wordpool_576.txt	LTP374	ltpFR2	12	2	HUMAN	726	n/a	n/a	0	0	0
401930	REC_WORD	wordpools/wasnorm_wordpool_576.txt	LTP374	ltpFR2	12	2	HUSBAND	728	n/a	n/a	0	0	0
466234	WORD	wordpools/wasnorm_wordpool_576.txt	LTP374	ltpFR2	12	3	SODA	1341	n/a	n/a	0	0	0
468665	WORD	wordpools/wasnorm_wordpool_576.txt	LTP374	ltpFR2	12	3	CHAPEL	280	n/a	n/a	0	0	0
471364	WORD	wordpools/wasnorm_wordpool_576.txt	LTP374	ltpFR2	12	3	SERVER	1272	n/a	n/a	0	0	0
474180	WORD	wordpools/wasnorm_wordpool_576.txt	LTP374	ltpFR2	12	3	TURTLE	1522	n/a	n/a	0	0	0
476912	WORD	wordpools/wasnorm_wordpool_576.txt	LTP374	ltpFR2	12	3	RABBIT	1152	n/a	n/a	0	0	0
479543	WORD	wordpools/wasnorm_wordpool_576.txt	LTP374	ltpFR2	12	3	CIGAR	308	n/a	n/a	0	0	0
482292	WORD	wordpools/wasnorm_wordpool_576.txt	LTP374	ltpFR2	12	3	SMOG	1330	n/a	n/a	0	0	0
484725	WORD	wordpools/wasnorm_wordpool_576.txt	LTP374	ltpFR2	12	3	TWISTER	1530	n/a	n/a	0	0	0
487539	WORD	wordpools/wasnorm_wordpool_576.txt	LTP374	ltpFR2	12	3	FIREMAN	569	n/a	n/a	0	0	0
490288	WORD	wordpools/wasnorm_wordpool_576.txt	LTP374	ltpFR2	12	3	IDOL	733	n/a	n/a	0	0	0
492905	WORD	wordpools/wasnorm_wordpool_576.txt	LTP374	ltpFR2	12	3	PERMIT	1051	n/a	n/a	0	0	0
495486	WORD	wordpools/wasnorm_wordpool_576.txt	LTP374	ltpFR2	12	3	LEOPARD	812	n/a	n/a	0	0	0
497986	WORD	wordpools/wasnorm_wordpool_576.txt	LTP374	ltpFR2	12	3	BARLEY	88	n/a	n/a	0	0	0
500600	WORD	wordpools/wasnorm_wordpool_576.txt	LTP374	ltpFR2	12	3	MAPLE	866	n/a	n/a	0	0	0
503299	WORD	wordpools/wasnorm_wordpool_576.txt	LTP374	ltpFR2	12	3	TWEEZERS	1526	n/a	n/a	0	0	0
505965	WORD	wordpools/wasnorm_wordpool_576.txt	LTP374	ltpFR2	12	3	CABIN	211	n/a	n/a	0	0	0
508530	WORD	wordpools/wasnorm_wordpool_576.txt	LTP374	ltpFR2	12	3	ROOSTER	1209	n/a	n/a	0	0	0
511113	WORD	wordpools/wasnorm_wordpool_576.txt	LTP374	ltpFR2	12	3	FLASK	576	n/a	n/a	0	0	0
513644	WORD	wordpools/wasnorm_wordpool_576.txt	LTP374	ltpFR2	12	3	BEAKER	104	n/a	n/a	0	0	0
516111	WORD	wordpools/wasnorm_wordpool_576.txt	LTP374	ltpFR2	12	3	MILDEW	893	n/a	n/a	0	0	0
518926	WORD	wordpools/wasnorm_wordpool_576.txt	LTP374	ltpFR2	12	3	SERVANT	1271	n/a	n/a	0	0	0
521374	WORD	wordpools/wasnorm_wordpool_576.txt	LTP374	ltpFR2	12	3	COURSE	390	n/a	n/a	0	0	0
523857	WORD	wordpools/wasnorm_wordpool_576.txt	LTP374	ltpFR2	12	3	RAFT	1159	n/a	n/a	0	0	0
526605	WORD	wordpools/wasnorm_wordpool_576.txt	LTP374	ltpFR2	12	3	SLIME	1327	n/a	n/a	0	0	0
528222	START	n/a	LTP374	ltpFR2	12	n/a	n/a	n/a	5	n/a	n/a	n/a	n/a
529037	DISTRACTOR	n/a	LTP374	ltpFR2	12	3	n/a	n/a	n/a	n/a	0	0	0
529054	PROB	n/a	LTP374	ltpFR2	12	n/a	n/a	n/a	5	13	5	6	2
529954	PROB	n/a	LTP374	ltpFR2	12	n/a	n/a	n/a	5	16	5	7	4
530920	PROB	n/a	LTP374	ltpFR2	12	n/a	n/a	n/a	5	16	7	7	2
531820	PROB	n/a	LTP374	ltpFR2	12	n/a	n/a	n/a	5	21	7	8	9
532635	PROB	n/a	LTP374	ltpFR2	12	n/a	n/a	n/a	5	13	8	1	4
533802	PROB	n/a	LTP374	ltpFR2	12	n/a	n/a	n/a	5	15	6	7	2
534769	PROB	n/a	LTP374	ltpFR2	12	n/a	n/a	n/a	5	20	8	3	9
536135	PROB	n/a	LTP374	ltpFR2	12	n/a	n/a	n/a	5	18	3	6	8
537001	PROB	n/a	LTP374	ltpFR2	12	n/a	n/a	n/a	5	18	1	8	9
538084	PROB	n/a	LTP374	ltpFR2	12	n/a	n/a	n/a	5	14	4	7	2
539067	PROB	n/a	LTP374	ltpFR2	12	n/a	n/a	n/a	5	13	3	7	3
540083	PROB	n/a	LTP374	ltpFR2	12	n/a	n/a	n/a	5	9	5	1	3
540982	PROB	n/a	LTP374	ltpFR2	12	n/a	n/a	n/a	5	12	5	4	3
542264	PROB	n/a	LTP374	ltpFR2	12	n/a	n/a	n/a	5	7	2	2	3
543048	PROB	n/a	LTP374	ltpFR2	12	n/a	n/a	n/a	5	20	9	4	8
544081	PROB	n/a	LTP374	ltpFR2	12	n/a	n/a	n/a	5	7	4	1	2
544980	PROB	n/a	LTP374	ltpFR2	12	n/a	n/a	n/a	5	16	6	1	9
545913	PROB	n/a	LTP374	ltpFR2	12	n/a	n/a	n/a	5	21	7	6	8
546796	PROB	n/a	LTP374	ltpFR2	12	n/a	n/a	n/a	5	11	1	5	5
547762	PROB	n/a	LTP374	ltpFR2	12	n/a	n/a	n/a	5	1	4	3	6
548845	PROB	n/a	LTP374	ltpFR2	12	n/a	n/a	n/a	5	16	2	6	8
550161	PROB	n/a	LTP374	ltpFR2	12	n/a	n/a	n/a	5	14	2	3	9
550984	STOP	n/a	LTP374	ltpFR2	12	n/a	n/a	n/a	5	n/a	n/a	n/a	n/a
554010	REC_START	n/a	LTP374	ltpFR2	12	3	n/a	n/a	n/a	n/a	0	0	0
558314	REC_WORD	wordpools/wasnorm_wordpool_576.txt	LTP374	ltpFR2	12	3	SERVANT	1271	n/a	n/a	0	0	0
560145	REC_WORD	wordpools/wasnorm_wordpool_576.txt	LTP374	ltpFR2	12	3	RAFT	1159	n/a	n/a	0	0	0
568329	REC_WORD	wordpools/wasnorm_wordpool_576.txt	LTP374	ltpFR2	12	3	LEOPARD	812	n/a	n/a	0	0	0
569592	REC_WORD	wordpools/wasnorm_wordpool_576.txt	LTP374	ltpFR2	12	3	BARLEY	88	n/a	n/a	0	0	0
570800	REC_WORD	wordpools/wasnorm_wordpool_576.txt	LTP374	ltpFR2	12	3	BEAKER	104	n/a	n/a	0	0	0
571387	REC_WORD	wordpools/wasnorm_wordpool_576.txt	LTP374	ltpFR2	12	3	FLASK	576	n/a	n/a	0	0	0
573041	REC_WORD	wordpools/wasnorm_wordpool_576.txt	LTP374	ltpFR2	12	3	SLIME	1327	n/a	n/a	0	0	0
575150	REC_WORD	wordpools/wasnorm_wordpool_576.txt	LTP374	ltpFR2	12	3	FUNGUS	614	n/a	n/a	0	0	0
576689	REC_WORD	wordpools/wasnorm_wordpool_576.txt	LTP374	ltpFR2	12	3	CABIN	211	n/a	n/a	0	0	0
578659	REC_WORD	wordpools/wasnorm_wordpool_576.txt	LTP374	ltpFR2	12	3	ROOSTER	1209	n/a	n/a	0	0	0
644483	WORD	wordpools/wasnorm_wordpool_576.txt	LTP374	ltpFR2	12	4	SALAD	1224	n/a	n/a	0	0	0
647116	WORD	wordpools/wasnorm_wordpool_576.txt	LTP374	ltpFR2	12	4	BUCKET	184	n/a	n/a	0	0	0
649715	WORD	wordpools/wasnorm_wordpool_576.txt	LTP374	ltpFR2	12	4	REPORT	1184	n/a	n/a	0	0	0
652446	WORD	wordpools/wasnorm_wordpool_576.txt	LTP374	ltpFR2	12	4	BRIEFCASE	175	n/a	n/a	0	0	0
655246	WORD	wordpools/wasnorm_wordpool_576.txt	LTP374	ltpFR2	12	4	SWORD	1423	n/a	n/a	0	0	0
657878	WORD	wordpools/wasnorm_wordpool_576.txt	LTP374	ltpFR2	12	4	LETTUCE	814	n/a	n/a	0	0	0
660559	WORD	wordpools/wasnorm_wordpool_576.txt	LTP374	ltpFR2	12	4	DINER	467	n/a	n/a	0	0	0
663325	WORD	wordpools/wasnorm_wordpool_576.txt	LTP374	ltpFR2	12	4	HELMET	702	n/a	n/a	0	0	0
665791	WORD	wordpools/wasnorm_wordpool_576.txt	LTP374	ltpFR2	12	4	FREEZER	604	n/a	n/a	0	0	0
668389	WORD	wordpools/wasnorm_wordpool_576.txt	LTP374	ltpFR2	12	4	POLICE	1098	n/a	n/a	0	0	0
671089	WORD	wordpools/wasnorm_wordpool_576.txt	LTP374	ltpFR2	12	4	GRAVE	658	n/a	n/a	0	0	0
673721	WORD	wordpools/wasnorm_wordpool_576.txt	LTP374	ltpFR2	12	4	DRIVER	499	n/a	n/a	0	0	0
676385	WORD	wordpools/wasnorm_wordpool_576.txt	LTP374	ltpFR2	12	4	HORNET	718	n/a	n/a	0	0	0
678935	WORD	wordpools/wasnorm_wordpool_576.txt	LTP374	ltpFR2	12	4	HONEY	713	n/a	n/a	0	0	0
681616	WORD	wordpools/wasnorm_wordpool_576.txt	LTP374	ltpFR2	12	4	GRILL	661	n/a	n/a	0	0	0
684199	WORD	wordpools/wasnorm_wordpool_576.txt	LTP374	ltpFR2	12	4	PIGEON	1065	n/a	n/a	0	0	0
686831	WORD	wordpools/wasnorm_wordpool_576.txt	LTP374	ltpFR2	12	4	BASEMENT	94	n/a	n/a	0	0	0
689296	WORD	wordpools/wasnorm_wordpool_576.txt	LTP374	ltpFR2	12	4	HOSTESS	723	n/a	n/a	0	0	0
691879	WORD	wordpools/wasnorm_wordpool_576.txt	LTP374	ltpFR2	12	4	OUTLAW	989	n/a	n/a	0	0	0
694560	WORD	wordpools/wasnorm_wordpool_576.txt	LTP374	ltpFR2	12	4	FRIAR	605	n/a	n/a	0	0	0
697243	WORD	wordpools/wasnorm_wordpool_576.txt	LTP374	ltpFR2	12	4	PISTOL	1075	n/a	n/a	0	0	0
699959	WORD	wordpools/wasnorm_wordpool_576.txt	LTP374	ltpFR2	12	4	CABBAGE	210	n/a	n/a	0	0	0
702656	WORD	wordpools/wasnorm_wordpool_576.txt	LTP374	ltpFR2	12	4	COMPASS	358	n/a	n/a	0	0	0
705472	WORD	wordpools/wasnorm_wordpool_576.txt	LTP374	ltpFR2	12	4	ATLAS	53	n/a	n/a	0	0	0
707089	START	n/a	LTP374	ltpFR2	12	n/a	n/a	n/a	6	n/a	n/a	n/a	n/a
708000	DISTRACTOR	n/a	LTP374	ltpFR2	12	4	n/a	n/a	n/a	n/a	0	0	0
708005	PROB	n/a	LTP374	ltpFR2	12	n/a	n/a	n/a	6	15	6	6	3
709021	PROB	n/a	LTP374	ltpFR2	12	n/a	n/a	n/a	6	16	1	9	6
709821	PROB	n/a	LTP374	ltpFR2	12	n/a	n/a	n/a	6	18	1	8	9
710770	PROB	n/a	LTP374	ltpFR2	12	n/a	n/a	n/a	6	7	3	2	2
711569	PROB	n/a	LTP374	ltpFR2	12	n/a	n/a	n/a	6	11	2	3	6
712652	PROB	n/a	LTP374	ltpFR2	12	n/a	n/a	n/a	6	18	6	7	5
714852	PROB	n/a	LTP374	ltpFR2	12	n/a	n/a	n/a	6	15	3	5	7
716201	PROB	n/a	LTP374	ltpFR2	12	n/a	n/a	n/a	6	21	7	7	7
717017	PROB	n/a	LTP374	ltpFR2	12	n/a	n/a	n/a	6	20	5	8	7
718167	PROB	n/a	LTP374	ltpFR2	12	n/a	n/a	n/a	6	13	4	7	3
719265	PROB	n/a	LTP374	ltpFR2	12	n/a	n/a	n/a	6	27	9	9	9
720365	PROB	n/a	LTP374	ltpFR2	12	n/a	n/a	n/a	6	11	1	6	4
721547	PROB	n/a	LTP374	ltpFR2	12	n/a	n/a	n/a	6	2	9	5	6
722530	PROB	n/a	LTP374	ltpFR2	12	n/a	n/a	n/a	6	18	7	5	6
723914	PROB	n/a	LTP374	ltpFR2	12	n/a	n/a	n/a	6	20	7	6	7
724964	PROB	n/a	LTP374	ltpFR2	12	n/a	n/a	n/a	6	13	2	9	2
725980	PROB	n/a	LTP374	ltpFR2	12	n/a	n/a	n/a	6	10	1	5	4
727063	PROB	n/a	LTP374	ltpFR2	12	n/a	n/a	n/a	6	1	6	6	5
728095	PROB	n/a	LTP374	ltpFR2	12	n/a	n/a	n/a	6	17	5	8	4
729444	PROB	n/a	LTP374	ltpFR2	12	n/a	n/a	n/a	6	16	3	7	6
730253	STOP	n/a	LTP374	ltpFR2	12	n/a	n/a	n/a	6	n/a	n/a	n/a	n/a
732911	REC_START	n/a	LTP374	ltpFR2	12	4	n/a	n/a	n/a	n/a	0	0	0
734259	REC_WORD	wordpools/wasnorm_wordpool_576.txt	LTP374	ltpFR2	12	4	CABBAGE	210	n/a	n/a	0	0	0
734932	REC_WORD	wordpools/wasnorm_wordpool_576.txt	LTP374	ltpFR2	12	4	LETTUCE	814	n/a	n/a	0	0	0
735754	REC_WORD	wordpools/wasnorm_wordpool_576.txt	LTP374	ltpFR2	12	4	PIGEON	1065	n/a	n/a	0	0	0
736540	REC_WORD	wordpools/wasnorm_wordpool_576.txt	LTP374	ltpFR2	12	4	GRILL	661	n/a	n/a	0	0	0
737010	REC_WORD	wordpools/wasnorm_wordpool_576.txt	LTP374	ltpFR2	12	4	FRIAR	605	n/a	n/a	0	0	0
737834	REC_WORD	wordpools/wasnorm_wordpool_576.txt	LTP374	ltpFR2	12	4	FREEZER	604	n/a	n/a	0	0	0
738900	REC_WORD	wordpools/wasnorm_wordpool_576.txt	LTP374	ltpFR2	12	4	BASEMENT	94	n/a	n/a	0	0	0
739713	REC_WORD	wordpools/wasnorm_wordpool_576.txt	LTP374	ltpFR2	12	4	POLICE	1098	n/a	n/a	0	0	0
740729	REC_WORD	wordpools/wasnorm_wordpool_576.txt	LTP374	ltpFR2	12	4	GRAVE	658	n/a	n/a	0	0	0
741535	REC_WORD	wordpools/wasnorm_wordpool_576.txt	LTP374	ltpFR2	12	4	HOSTESS	723	n/a	n/a	0	0	0
743483	REC_WORD	wordpools/wasnorm_wordpool_576.txt	LTP374	ltpFR2	12	4	DINER	467	n/a	n/a	0	0	0
744290	REC_WORD	wordpools/wasnorm_wordpool_576.txt	LTP374	ltpFR2	12	4	DRIVER	499	n/a	n/a	0	0	0
746190	REC_WORD	wordpools/wasnorm_wordpool_576.txt	LTP374	ltpFR2	12	4	SUITCASE	1403	n/a	n/a	0	0	0
746982	REC_WORD	wordpools/wasnorm_wordpool_576.txt	LTP374	ltpFR2	12	4	SWORD	1423	n/a	n/a	0	0	0
761449	REC_WORD	wordpools/wasnorm_wordpool_576.txt	LTP374	ltpFR2	12	4	POLICE	1098	n/a	n/a	0	0	0
823350	DISTRACTOR	n/a	LTP374	ltpFR2	12	5	n/a	n/a	n/a	n/a	0	0	0
823351	START	n/a	LTP374	ltpFR2	12	n/a	n/a	n/a	7	n/a	n/a	n/a	n/a
823367	PROB	n/a	LTP374	ltpFR2	12	n/a	n/a	n/a	7	18	7	6	5
824234	PROB	n/a	LTP374	ltpFR2	12	n/a	n/a	n/a	7	21	6	5	8
825383	PROB	n/a	LTP374	ltpFR2	12	n/a	n/a	n/a	7	21	9	6	6
826532	PROB	n/a	LTP374	ltpFR2	12	n/a	n/a	n/a	7	21	7	8	9
827498	PROB	n/a	LTP374	ltpFR2	12	n/a	n/a	n/a	7	19	5	9	5
828431	PROB	n/a	LTP374	ltpFR2	12	n/a	n/a	n/a	7	15	9	4	2
829264	PROB	n/a	LTP374	ltpFR2	12	n/a	n/a	n/a	7	19	9	7	3
830048	PROB	n/a	LTP374	ltpFR2	12	n/a	n/a	n/a	7	12	8	1	3
830964	PROB	n/a	LTP374	ltpFR2	12	n/a	n/a	n/a	7	19	6	6	8
832097	PROB	n/a	LTP374	ltpFR2	12	n/a	n/a	n/a	7	15	8	3	4
833013	PROB	n/a	LTP374	ltpFR2	12	n/a	n/a	n/a	7	11	5	5	1
833846	PROB	n/a	LTP374	ltpFR2	12	n/a	n/a	n/a	7	20	7	9	5
835261	PROB	n/a	LTP374	ltpFR2	12	n/a	n/a	n/a	7	16	9	6	1
836394	PROB	n/a	LTP374	ltpFR2	12	n/a	n/a	n/a	7	18	3	8	7
837327	PROB	n/a	LTP374	ltpFR2	12	n/a	n/a	n/a	7	13	2	5	4
838293	PROB	n/a	LTP374	ltpFR2	12	n/a	n/a	n/a	7	14	7	2	5
839359	PROB	n/a	LTP374	ltpFR2	12	n/a	n/a	n/a	7	17	7	4	6
840210	PROB	n/a	LTP374	ltpFR2	12	n/a	n/a	n/a	7	11	4	1	6
841275	PROB	n/a	LTP374	ltpFR2	12	n/a	n/a	n/a	7	18	4	6	8
842525	PROB	n/a	LTP374	ltpFR2	12	n/a	n/a	n/a	7	11	4	2	5
843458	PROB	n/a	LTP374	ltpFR2	12	n/a	n/a	n/a	7	12	2	1	9
844391	PROB	n/a	LTP374	ltpFR2	12	n/a	n/a	n/a	7	15	5	9	1
845257	PROB	n/a	LTP374	ltpFR2	12	n/a	n/a	n/a	7	21	7	8	6
846353	STOP	n/a	LTP374	ltpFR2	12	n/a	n/a	n/a	7	n/a	n/a	n/a	n/a
848372	WORD	wordpools/wasnorm_wordpool_576.txt	LTP374	ltpFR2	12	5	MUSTARD	935	n/a	n/a	0	0	0
851072	WORD	wordpools/wasnorm_wordpool_576.txt	LTP374	ltpFR2	12	5	PADDLE	1000	n/a	n/a	0	0	0
853770	WORD	wordpools/wasnorm_wordpool_576.txt	LTP374	ltpFR2	12	5	OUTFIT	988	n/a	n/a	0	0	0
856236	WORD	wordpools/wasnorm_wordpool_576.txt	LTP374	ltpFR2	12	5	CLOTHES	327	n/a	n/a	0	0	0
859051	WORD	wordpools/wasnorm_wordpool_576.txt	LTP374	ltpFR2	12	5	SLIDE	1326	n/a	n/a	0	0	0
861583	WORD	wordpools/wasnorm_wordpool_576.txt	LTP374	ltpFR2	12	5	MATCH	878	n/a	n/a	0	0	0
864398	WORD	wordpools/wasnorm_wordpool_576.txt	LTP374	ltpFR2	12	5	DRAWING	494	n/a	n/a	0	0	0
866998	WORD	wordpools/wasnorm_wordpool_576.txt	LTP374	ltpFR2	12	5	COSTUME	383	n/a	n/a	0	0	0
869679	WORD	wordpools/wasnorm_wordpool_576.txt	LTP374	ltpFR2	12	5	WARDROBE	1587	n/a	n/a	0	0	0
872162	WORD	wordpools/wasnorm_wordpool_576.txt	LTP374	ltpFR2	12	5	LODGE	839	n/a	n/a	0	0	0
874711	WORD	wordpools/wasnorm_wordpool_576.txt	LTP374	ltpFR2	12	5	PARTNER	1017	n/a	n/a	0	0	0
877193	WORD	wordpools/wasnorm_wordpool_576.txt	LTP374	ltpFR2	12	5	LASER	801	n/a	n/a	0	0	0
879758	WORD	wordpools/wasnorm_wordpool_576.txt	LTP374	ltpFR2	12	5	GRAPE	654	n/a	n/a	0	0	0
882373	WORD	wordpools/wasnorm_wordpool_576.txt	LTP374	ltpFR2	12	5	MARINE	869	n/a	n/a	0	0	0
885173	WORD	wordpools/wasnorm_wordpool_576.txt	LTP374	ltpFR2	12	5	DIVER	476	n/a	n/a	0	0	0
887788	WORD	wordpools/wasnorm_wordpool_576.txt	LTP374	ltpFR2	12	5	PENGUIN	1044	n/a	n/a	0	0	0
890502	WORD	wordpools/wasnorm_wordpool_576.txt	LTP374	ltpFR2	12	5	STAPLE	1371	n/a	n/a	0	0	0
893202	WORD	wordpools/wasnorm_wordpool_576.txt	LTP374	ltpFR2	12	5	CANYON	235	n/a	n/a	0	0	0
895801	WORD	wordpools/wasnorm_wordpool_576.txt	LTP374	ltpFR2	12	5	DRILL	497	n/a	n/a	0	0	0
898415	WORD	wordpools/wasnorm_wordpool_576.txt	LTP374	ltpFR2	12	5	FOREHEAD	592	n/a	n/a	0	0	0
900932	WORD	wordpools/wasnorm_wordpool_576.txt	LTP374	ltpFR2	12	5	COUSIN	392	n/a	n/a	0	0	0
903696	WORD	wordpools/wasnorm_wordpool_576.txt	LTP374	ltpFR2	12	5	SHOVEL	1295	n/a	n/a	0	0	0
906129	WORD	wordpools/wasnorm_wordpool_576.txt	LTP374	ltpFR2	12	5	DASHBOARD	441	n/a	n/a	0	0	0
908627	WORD	wordpools/wasnorm_wordpool_576.txt	LTP374	ltpFR2	12	5	UNCLE	1536	n/a	n/a	0	0	0
910245	START	n/a	LTP374	ltpFR2	12	n/a	n/a	n/a	8	n/a	n/a	n/a	n/a
911320	DISTRACTOR	n/a	LTP374	ltpFR2	12	5	n/a	n/a	n/a	n/a	0	0	0
911326	PROB	n/a	LTP374	ltpFR2	12	n/a	n/a	n/a	8	16	7	7	4
912210	PROB	n/a	LTP374	ltpFR2	12	n/a	n/a	n/a	8	11	3	1	7
913292	PROB	n/a	LTP374	ltpFR2	12	n/a	n/a	n/a	8	15	4	8	3
914159	PROB	n/a	LTP374	ltpFR2	12	n/a	n/a	n/a	8	17	4	5	8
915125	PROB	n/a	LTP374	ltpFR2	12	n/a	n/a	n/a	8	19	2	8	9
915892	PROB	n/a	LTP374	ltpFR2	12	n/a	n/a	n/a	8	7	1	5	2
916657	PROB	n/a	LTP374	ltpFR2	12	n/a	n/a	n/a	8	26	8	9	9
917874	PROB	n/a	LTP374	ltpFR2	12	n/a	n/a	n/a	8	13	1	4	8
918623	PROB	n/a	LTP374	ltpFR2	12	n/a	n/a	n/a	8	22	8	9	5
919723	PROB	n/a	LTP374	ltpFR2	12	n/a	n/a	n/a	8	15	2	8	5
920455	PROB	n/a	LTP374	ltpFR2	12	n/a	n/a	n/a	8	8	2	2	4
921189	PROB	n/a	LTP374	ltpFR2	12	n/a	n/a	n/a	8	26	9	8	8
922304	PROB	n/a	LTP374	ltpFR2	12	n/a	n/a	n/a	8	19	4	9	6
923304	PROB	n/a	LTP374	ltpFR2	12	n/a	n/a	n/a	8	18	1	9	8
924420	PROB	n/a	LTP374	ltpFR2	12	n/a	n/a	n/a	8	21	6	6	9
925353	PROB	n/a	LTP374	ltpFR2	12	n/a	n/a	n/a	8	20	8	6	6
926853	PROB	n/a	LTP374	ltpFR2	12	n/a	n/a	n/a	8	14	6	2	6
928252	PROB	n/a	LTP374	ltpFR2	12	n/a	n/a	n/a	8	17	4	7	6
929434	PROB	n/a	LTP374	ltpFR2	12	n/a	n/a	n/a	8	18	3	6	9
930301	PROB	n/a	LTP374	ltpFR2	12	n/a	n/a	n/a	8	15	6	3	6
931350	PROB	n/a	LTP374	ltpFR2	12	n/a	n/a	n/a	8	22	7	7	8
932350	PROB	n/a	LTP374	ltpFR2	12	n/a	n/a	n/a	8	8	2	4	2
933060	STOP	n/a	LTP374	ltpFR2	12	n/a	n/a	n/a	8	n/a	n/a	n/a	n/a
936116	REC_START	n/a	LTP374	ltpFR2	12	5	n/a	n/a	n/a	n/a	0	0	0
937483	REC_WORD	wordpools/wasnorm_wordpool_576.txt	LTP374	ltpFR2	12	5	COUSIN	392	n/a	n/a	0	0	0
938108	REC_WORD	wordpools/wasnorm_wordpool_576.txt	LTP374	ltpFR2	12	5	UNCLE	1536	n/a	n/a	0	0	0
938674	REC_WORD	wordpools/wasnorm_wordpool_576.txt	LTP374	ltpFR2	12	5	PARTNER	1017	n/a	n/a	0	0	0
940545	REC_WORD	wordpools/wasnorm_wordpool_576.txt	LTP374	ltpFR2	12	5	MARINE	869	n/a	n/a	0	0	0
941401	REC_WORD	wordpools/wasnorm_wordpool_576.txt	LTP374	ltpFR2	12	5	DIVER	476	n/a	n/a	0	0	0
942201	REC_WORD	wordpools/wasnorm_wordpool_576.txt	LTP374	ltpFR2	12	5	LODGE	839	n/a	n/a	0	0	0
943281	REC_WORD	wordpools/wasnorm_wordpool_576.txt	LTP374	ltpFR2	12	5	GRAPE	654	n/a	n/a	0	0	0
946916	REC_WORD	wordpools/wasnorm_wordpool_576.txt	LTP374	ltpFR2	12	5	SLIDE	1326	n/a	n/a	0	0	0
947778	REC_WORD	wordpools/wasnorm_wordpool_576.txt	LTP374	ltpFR2	12	5	MUSTARD	935	n/a	n/a	0	0	0
951656	REC_WORD	wordpools/wasnorm_wordpool_576.txt	LTP374	ltpFR2	12	5	OUTFIT	988	n/a	n/a	0	0	0
952511	REC_WORD	wordpools/wasnorm_wordpool_576.txt	LTP374	ltpFR2	12	5	WARDROBE	1587	n/a	n/a	0	0	0
954516	REC_WORD	wordpools/wasnorm_wordpool_576.txt	LTP374	ltpFR2	12	5	COSTUME	383	n/a	n/a	0	0	0
955504	REC_WORD	wordpools/wasnorm_wordpool_576.txt	LTP374	ltpFR2	12	5	CLOTHES	327	n/a	n/a	0	0	0
958955	REC_WORD	wordpools/wasnorm_wordpool_576.txt	LTP374	ltpFR2	12	5	DRAWING	494	n/a	n/a	0	0	0
1026573	WORD	wordpools/wasnorm_wordpool_576.txt	LTP374	ltpFR2	12	6	WITNESS	1618	n/a	n/a	0	0	0
1029288	WORD	wordpools/wasnorm_wordpool_576.txt	LTP374	ltpFR2	12	6	PLAID	1080	n/a	n/a	0	0	0
1032071	WORD	wordpools/wasnorm_wordpool_576.txt	LTP374	ltpFR2	12	6	COFFEE	341	n/a	n/a	0	0	0
1034820	WORD	wordpools/wasnorm_wordpool_576.txt	LTP374	ltpFR2	12	6	LAVA	804	n/a	n/a	0	0	0
1037584	WORD	wordpools/wasnorm_wordpool_576.txt	LTP374	ltpFR2	12	6	CRATER	400	n/a	n/a	0	0	0
1040101	WORD	wordpools/wasnorm_wordpool_576.txt	LTP374	ltpFR2	12	6	NECKLACE	940	n/a	n/a	0	0	0
1042615	WORD	wordpools/wasnorm_wordpool_576.txt	LTP374	ltpFR2	12	6	SUBWAY	1400	n/a	n/a	0	0	0
1045065	WORD	wordpools/wasnorm_wordpool_576.txt	LTP374	ltpFR2	12	6	BROTHER	179	n/a	n/a	0	0	0
1047880	WORD	wordpools/wasnorm_wordpool_576.txt	LTP374	ltpFR2	12	6	GARDEN	623	n/a	n/a	0	0	0
1050445	WORD	wordpools/wasnorm_wordpool_576.txt	LTP374	ltpFR2	12	6	FIREPLACE	570	n/a	n/a	0	0	0
1052995	WORD	wordpools/wasnorm_wordpool_576.txt	LTP374	ltpFR2	12	6	LAPEL	800	n/a	n/a	0	0	0
1055526	WORD	wordpools/wasnorm_wordpool_576.txt	LTP374	ltpFR2	12	6	MESSAGE	888	n/a	n/a	0	0	0
1058291	WORD	wordpools/wasnorm_wordpool_576.txt	LTP374	ltpFR2	12	6	BUGGY	188	n/a	n/a	0	0	0
1061058	WORD	wordpools/wasnorm_wordpool_576.txt	LTP374	ltpFR2	12	6	BUNNY	198	n/a	n/a	0	0	0
1063773	WORD	wordpools/wasnorm_wordpool_576.txt	LTP374	ltpFR2	12	6	KNIFE	785	n/a	n/a	0	0	0
1066222	WORD	wordpools/wasnorm_wordpool_576.txt	LTP374	ltpFR2	12	6	JURY	766	n/a	n/a	0	0	0
1068737	WORD	wordpools/wasnorm_wordpool_576.txt	LTP374	ltpFR2	12	6	VIKING	1565	n/a	n/a	0	0	0
1071302	WORD	wordpools/wasnorm_wordpool_576.txt	LTP374	ltpFR2	12	6	THRONE	1461	n/a	n/a	0	0	0
1074118	WORD	wordpools/wasnorm_wordpool_576.txt	LTP374	ltpFR2	12	6	OYSTER	995	n/a	n/a	0	0	0
1076666	WORD	wordpools/wasnorm_wordpool_576.txt	LTP374	ltpFR2	12	6	SCALLOP	1242	n/a	n/a	0	0	0
1079398	WORD	wordpools/wasnorm_wordpool_576.txt	LTP374	ltpFR2	12	6	LAMP	798	n/a	n/a	0	0	0
1082198	WORD	wordpools/wasnorm_wordpool_576.txt	LTP374	ltpFR2	12	6	HERO	706	n/a	n/a	0	0	0
1084880	WORD	wordpools/wasnorm_wordpool_576.txt	LTP374	ltpFR2	12	6	TEMPLE	1448	n/a	n/a	0	0	0
1087511	WORD	wordpools/wasnorm_wordpool_576.txt	LTP374	ltpFR2	12	6	FOX	598	n/a	n/a	0	0	0
1089128	START	n/a	LTP374	ltpFR2	12	n/a	n/a	n/a	9	n/a	n/a	n/a	n/a
1090253	DISTRACTOR	n/a	LTP374	ltpFR2	12	6	n/a	n/a	n/a	n/a	0	0	0
1090260	PROB	n/a	LTP374	ltpFR2	12	n/a	n/a	n/a	9	8	5	1	2
1091044	PROB	n/a	LTP374	ltpFR2	12	n/a	n/a	n/a	9	14	1	6	7
1092160	PROB	n/a	LTP374	ltpFR2	12	n/a	n/a	n/a	9	15	6	3	6
1092993	PROB	n/a	LTP374	ltpFR2	12	n/a	n/a	n/a	9	9	6	1	2
1094209	PROB	n/a	LTP374	ltpFR2	12	n/a	n/a	n/a	9	10	3	2	5
1095042	PROB	n/a	LTP374	ltpFR2	12	n/a	n/a	n/a	9	16	5	1	9
1095875	PROB	n/a	LTP374	ltpFR2	12	n/a	n/a	n/a	9	16	9	2	5
1096758	PROB	n/a	LTP374	ltpFR2	12	n/a	n/a	n/a	9	23	7	9	7
1098107	PROB	n/a	LTP374	ltpFR2	12	n/a	n/a	n/a	9	12	5	6	1
1099157	PROB	n/a	LTP374	ltpFR2	12	n/a	n/a	n/a	9	14	4	5	5
1100106	PROB	n/a	LTP374	ltpFR2	12	n/a	n/a	n/a	9	13	7	1	3
1100822	PROB	n/a	LTP374	ltpFR2	12	n/a	n/a	n/a	9	1	8	3	8
1101822	PROB	n/a	LTP374	ltpFR2	12	n/a	n/a	n/a	9	9	3	1	5
1102705	PROB	n/a	LTP374	ltpFR2	12	n/a	n/a	n/a	9	56	1	4	1
1103921	PROB	n/a	LTP374	ltpFR2	12	n/a	n/a	n/a	9	22	7	8	7
1105004	PROB	n/a	LTP374	ltpFR2	12	n/a	n/a	n/a	9	19	7	9	3
1106037	PROB	n/a	LTP374	ltpFR2	12	n/a	n/a	n/a	9	13	6	1	6
1106903	PROB	n/a	LTP374	ltpFR2	12	n/a	n/a	n/a	9	20	8	3	9
1107903	PROB	n/a	LTP374	ltpFR2	12	n/a	n/a	n/a	9	14	3	7	4
1108752	PROB	n/a	LTP374	ltpFR2	12	n/a	n/a	n/a	9	16	8	1	7
1109718	PROB	n/a	LTP374	ltpFR2	12	n/a	n/a	n/a	9	11	6	4	1
1110517	PROB	n/a	LTP374	ltpFR2	12	n/a	n/a	n/a	9	16	6	9	1
1111500	PROB	n/a	LTP374	ltpFR2	12	n/a	n/a	n/a	9	16	9	6	1
1112186	STOP	n/a	LTP374	ltpFR2	12	n/a	n/a	n/a	9	n/a	n/a	n/a	n/a
1114983	REC_START	n/a	LTP374	ltpFR2	12	6	n/a	n/a	n/a	n/a	0	0	0
1116085	REC_WORD	wordpools/wasnorm_wordpool_576.txt	LTP374	ltpFR2	12	6	VIKING	1565	n/a	n/a	0	0	0
1116879	REC_WORD	wordpools/wasnorm_wordpool_576.txt	LTP374	ltpFR2	12	6	THRONE	1461	n/a	n/a	0	0	0
1118249	REC_WORD	wordpools/wasnorm_wordpool_576.txt	LTP374	ltpFR2	12	6	TEMPLE	1448	n/a	n/a	0	0	0
1122355	REC_WORD	wordpools/wasnorm_wordpool_576.txt	LTP374	ltpFR2	12	6	BUGGY	188	n/a	n/a	0	0	0
1123283	REC_WORD	wordpools/wasnorm_wordpool_576.txt	LTP374	ltpFR2	12	6	BUNNY	198	n/a	n/a	0	0	0
1124392	REC_WORD	wordpools/wasnorm_wordpool_576.txt	LTP374	ltpFR2	12	6	GARDEN	623	n/a	n/a	0	0	0
1125939	REC_WORD	wordpools/wasnorm_wordpool_576.txt	LTP374	ltpFR2	12	6	LAVA	804	n/a	n/a	0	0	0
1127417	REC_WORD	wordpools/wasnorm_wordpool_576.txt	LTP374	ltpFR2	12	6	CRATER	400	n/a	n/a	0	0	0
1129950	REC_WORD	wordpools/wasnorm_wordpool_576.txt	LTP374	ltpFR2	12	6	FIREPLACE	570	n/a	n/a	0	0	0
1130950	REC_WORD_VV	wordpools/wasnorm_wordpool_576.txt	LTP374	ltpFR2	12	6	<>	-1	n/a	n/a	0	0	0
1131449	REC_WORD	wordpools/wasnorm_wordpool_576.txt	LTP374	ltpFR2	12	6	KNIFE	785	n/a	n/a	0	0	0
1132289	REC_WORD	wordpools/wasnorm_wordpool_576.txt	LTP374	ltpFR2	12	6	JURY	766	n/a	n/a	0	0	0
1133359	REC_WORD	wordpools/wasnorm_wordpool_576.txt	LTP374	ltpFR2	12	6	BROTHER	179	n/a	n/a	0	0	0
1134412	REC_WORD	wordpools/wasnorm_wordpool_576.txt	LTP374	ltpFR2	12	6	WITNESS	1618	n/a	n/a	0	0	0
1135265	REC_WORD	wordpools/wasnorm_wordpool_576.txt	LTP374	ltpFR2	12	6	PLAID	1080	n/a	n/a	0	0	0
1136026	REC_WORD	wordpools/wasnorm_wordpool_576.txt	LTP374	ltpFR2	12	6	NECKLACE	940	n/a	n/a	0	0	0
1205423	DISTRACTOR	n/a	LTP374	ltpFR2	12	7	n/a	n/a	n/a	n/a	0	0	0
1205423	START	n/a	LTP374	ltpFR2	12	n/a	n/a	n/a	10	n/a	n/a	n/a	n/a
1205440	PROB	n/a	LTP374	ltpFR2	12	n/a	n/a	n/a	10	18	8	2	8
1206406	PROB	n/a	LTP374	ltpFR2	12	n/a	n/a	n/a	10	19	1	8	8
1207190	PROB	n/a	LTP374	ltpFR2	12	n/a	n/a	n/a	10	14	8	1	5
1208156	PROB	n/a	LTP374	ltpFR2	12	n/a	n/a	n/a	10	13	7	3	2
1209671	PROB	n/a	LTP374	ltpFR2	12	n/a	n/a	n/a	10	19	4	6	9
1210487	PROB	n/a	LTP374	ltpFR2	12	n/a	n/a	n/a	10	6	3	2	1
1211155	PROB	n/a	LTP374	ltpFR2	12	n/a	n/a	n/a	10	11	1	9	1
1211988	PROB	n/a	LTP374	ltpFR2	12	n/a	n/a	n/a	10	19	2	9	8
1213220	PROB	n/a	LTP374	ltpFR2	12	n/a	n/a	n/a	10	10	3	1	6
1214469	PROB	n/a	LTP374	ltpFR2	12	n/a	n/a	n/a	10	14	3	8	3
1215602	PROB	n/a	LTP374	ltpFR2	12	n/a	n/a	n/a	10	17	4	9	4
1216919	PROB	n/a	LTP374	ltpFR2	12	n/a	n/a	n/a	10	20	2	9	9
1217901	PROB	n/a	LTP374	ltpFR2	12	n/a	n/a	n/a	10	1	9	8	1
1218718	PROB	n/a	LTP374	ltpFR2	12	n/a	n/a	n/a	10	21	7	6	8
1220084	PROB	n/a	LTP374	ltpFR2	12	n/a	n/a	n/a	10	25	9	8	8
1221133	PROB	n/a	LTP374	ltpFR2	12	n/a	n/a	n/a	10	11	5	3	3
1222548	PROB	n/a	LTP374	ltpFR2	12	n/a	n/a	n/a	10	13	8	1	4
1223515	PROB	n/a	LTP374	ltpFR2	12	n/a	n/a	n/a	10	14	1	9	4
1224614	PROB	n/a	LTP374	ltpFR2	12	n/a	n/a	n/a	10	7	2	4	1
1225447	PROB	n/a	LTP374	ltpFR2	12	n/a	n/a	n/a	10	12	5	5	2
1226098	PROB	n/a	LTP374	ltpFR2	12	n/a	n/a	n/a	10	16	8	1	6
1227147	PROB	n/a	LTP374	ltpFR2	12	n/a	n/a	n/a	10	17	2	7	8
1228246	STOP	n/a	LTP374	ltpFR2	12	n/a	n/a	n/a	10	n/a	n/a	n/a	n/a
1230495	WORD	wordpools/wasnorm_wordpool_576.txt	LTP374	ltpFR2	12	7	CAFE	216	n/a	n/a	0	0	0
1233111	WORD	wordpools/wasnorm_wordpool_576.txt	LTP374	ltpFR2	12	7	CORAL	378	n/a	n/a	0	0	0
1235642	WORD	wordpools/wasnorm_wordpool_576.txt	LTP374	ltpFR2	12	7	BALLOON	75	n/a	n/a	0	0	0
1238242	WORD	wordpools/wasnorm_wordpool_576.txt	LTP374	ltpFR2	12	7	SCISSORS	1250	n/a	n/a	0	0	0
1240791	WORD	wordpools/wasnorm_wordpool_576.txt	LTP374	ltpFR2	12	7	CRAB	397	n/a	n/a	0	0	0
1243389	WORD	wordpools/wasnorm_wordpool_576.txt	LTP374	ltpFR2	12	7	HEADBAND	696	n/a	n/a	0	0	0
1246105	WORD	wordpools/wasnorm_wordpool_576.txt	LTP374	ltpFR2	12	7	DANDRUFF	439	n/a	n/a	0	0	0
1248704	WORD	wordpools/wasnorm_wordpool_576.txt	LTP374	ltpFR2	12	7	PUDDLE	1140	n/a	n/a	0	0	0
1251318	WORD	wordpools/wasnorm_wordpool_576.txt	LTP374	ltpFR2	12	7	MAILBOX	857	n/a	n/a	0	0	0
1253868	WORD	wordpools/wasnorm_wordpool_576.txt	LTP374	ltpFR2	12	7	PROTON	1132	n/a	n/a	0	0	0
1256483	WORD	wordpools/wasnorm_wordpool_576.txt	LTP374	ltpFR2	12	7	BRAKE	166	n/a	n/a	0	0	0
1259149	WORD	wordpools/wasnorm_wordpool_576.txt	LTP374	ltpFR2	12	7	FOOT	590	n/a	n/a	0	0	0
1261814	WORD	wordpools/wasnorm_wordpool_576.txt	LTP374	ltpFR2	12	7	ELBOW	520	n/a	n/a	0	0	0
1264529	WORD	wordpools/wasnorm_wordpool_576.txt	LTP374	ltpFR2	12	7	POSSUM	1112	n/a	n/a	0	0	0
1267045	WORD	wordpools/wasnorm_wordpool_576.txt	LTP374	ltpFR2	12	7	POISON	1096	n/a	n/a	0	0	0
1269744	WORD	wordpools/wasnorm_wordpool_576.txt	LTP374	ltpFR2	12	7	SNAKE	1333	n/a	n/a	0	0	0
1272392	WORD	wordpools/wasnorm_wordpool_576.txt	LTP374	ltpFR2	12	7	CREVICE	405	n/a	n/a	0	0	0
1274925	WORD	wordpools/wasnorm_wordpool_576.txt	LTP374	ltpFR2	12	7	GLASS	639	n/a	n/a	0	0	0
1277406	WORD	wordpools/wasnorm_wordpool_576.txt	LTP374	ltpFR2	12	7	STICKER	1382	n/a	n/a	0	0	0
1279939	WORD	wordpools/wasnorm_wordpool_576.txt	LTP374	ltpFR2	12	7	SPOOL	1356	n/a	n/a	0	0	0
1282654	WORD	wordpools/wasnorm_wordpool_576.txt	LTP374	ltpFR2	12	7	JUGGLER	763	n/a	n/a	0	0	0
1285204	WORD	wordpools/wasnorm_wordpool_576.txt	LTP374	ltpFR2	12	7	SCRIBBLE	1256	n/a	n/a	0	0	0
1287635	WORD	wordpools/wasnorm_wordpool_576.txt	LTP374	ltpFR2	12	7	FINGER	567	n/a	n/a	0	0	0
1290284	WORD	wordpools/wasnorm_wordpool_576.txt	LTP374	ltpFR2	12	7	BANQUET	86	n/a	n/a	0	0	0
1291901	START	n/a	LTP374	ltpFR2	12	n/a	n/a	n/a	11	n/a	n/a	n/a	n/a
1292891	DISTRACTOR	n/a	LTP374	ltpFR2	12	7	n/a	n/a	n/a	n/a	0	0	0
1292900	PROB	n/a	LTP374	ltpFR2	12	n/a	n/a	n/a	11	13	1	5	7
1294315	PROB	n/a	LTP374	ltpFR2	12	n/a	n/a	n/a	11	14	1	7	6
1295249	PROB	n/a	LTP374	ltpFR2	12	n/a	n/a	n/a	11	13	4	3	6
1296347	PROB	n/a	LTP374	ltpFR2	12	n/a	n/a	n/a	11	19	8	5	6
1297397	PROB	n/a	LTP374	ltpFR2	12	n/a	n/a	n/a	11	16	2	8	6
1298148	PROB	n/a	LTP374	ltpFR2	12	n/a	n/a	n/a	11	13	4	8	1
1299064	PROB	n/a	LTP374	ltpFR2	12	n/a	n/a	n/a	11	11	4	4	3
1300063	PROB	n/a	LTP374	ltpFR2	12	n/a	n/a	n/a	11	17	1	2	4
1301046	PROB	n/a	LTP374	ltpFR2	12	n/a	n/a	n/a	11	7	3	1	3
1301829	PROB	n/a	LTP374	ltpFR2	12	n/a	n/a	n/a	11	9	4	2	3
1302678	PROB	n/a	LTP374	ltpFR2	12	n/a	n/a	n/a	11	8	1	2	5
1303427	PROB	n/a	LTP374	ltpFR2	12	n/a	n/a	n/a	11	8	2	4	2
1304195	PROB	n/a	LTP374	ltpFR2	12	n/a	n/a	n/a	11	8	4	3	1
1304911	PROB	n/a	LTP374	ltpFR2	12	n/a	n/a	n/a	11	21	4	9	8
1306393	PROB	n/a	LTP374	ltpFR2	12	n/a	n/a	n/a	11	16	3	5	8
1307309	PROB	n/a	LTP374	ltpFR2	12	n/a	n/a	n/a	11	10	2	2	6
1308259	PROB	n/a	LTP374	ltpFR2	12	n/a	n/a	n/a	11	17	8	7	2
1309391	PROB	n/a	LTP374	ltpFR2	12	n/a	n/a	n/a	11	18	2	9	7
1310474	PROB	n/a	LTP374	ltpFR2	12	n/a	n/a	n/a	11	10	2	7	1
1311908	PROB	n/a	LTP374	ltpFR2	12	n/a	n/a	n/a	11	24	9	9	6
1313241	PROB	n/a	LTP374	ltpFR2	12	n/a	n/a	n/a	11	16	5	7	4
1314207	PROB	n/a	LTP374	ltpFR2	12	n/a	n/a	n/a	11	6	4	1	1
1314897	STOP	n/a	LTP374	ltpFR2	12	n/a	n/a	n/a	11	n/a	n/a	n/a	n/a
1317822	REC_START	n/a	LTP374	ltpFR2	12	7	n/a	n/a	n/a	n/a	0	0	0
1318233	REC_WORD	wordpools/wasnorm_wordpool_576.txt	LTP374	ltpFR2	12	7	GLASS	639	n/a	n/a	0	0	0
1318784	REC_WORD	wordpools/wasnorm_wordpool_576.txt	LTP374	ltpFR2	12	7	STICKER	1382	n/a	n/a	0	0	0
1319481	REC_WORD	wordpools/wasnorm_wordpool_576.txt	LTP374	ltpFR2	12	7	SPOOL	1356	n/a	n/a	0	0	0
1320513	REC_WORD	wordpools/wasnorm_wordpool_576.txt	LTP374	ltpFR2	12	7	JUGGLER	763	n/a	n/a	0	0	0
1321381	REC_WORD	wordpools/wasnorm_wordpool_576.txt	LTP374	ltpFR2	12	7	FINGER	567	n/a	n/a	0	0	0
1322324	REC_WORD	wordpools/wasnorm_wordpool_576.txt	LTP374	ltpFR2	12	7	BRAKE	166	n/a	n/a	0	0	0
1322955	REC_WORD	wordpools/wasnorm_wordpool_576.txt	LTP374	ltpFR2	12	7	FOOT	590	n/a	n/a	0	0	0
1324043	REC_WORD	wordpools/wasnorm_wordpool_576.txt	LTP374	ltpFR2	12	7	ELBOW	520	n/a	n/a	0	0	0
1326621	REC_WORD	wordpools/wasnorm_wordpool_576.txt	LTP374	ltpFR2	12	7	POSSUM	1112	n/a	n/a	0	0	0
1327562	REC_WORD	wordpools/wasnorm_wordpool_576.txt	LTP374	ltpFR2	12	7	POISON	1096	n/a	n/a	0	0	0
1329328	REC_WORD	wordpools/wasnorm_wordpool_576.txt	LTP374	ltpFR2	12	7	SNAKE	1333	n/a	n/a	0	0	0
1330610	REC_WORD	wordpools/wasnorm_wordpool_576.txt	LTP374	ltpFR2	12	7	PUDDLE	1140	n/a	n/a	0	0	0
1332146	REC_WORD	wordpools/wasnorm_wordpool_576.txt	LTP374	ltpFR2	12	7	PROTON	1132	n/a	n/a	0	0	0
1333092	REC_WORD	wordpools/wasnorm_wordpool_576.txt	LTP374	ltpFR2	12	7	MAILBOX	857	n/a	n/a	0	0	0
1334061	REC_WORD	wordpools/wasnorm_wordpool_576.txt	LTP374	ltpFR2	12	7	BALLOON	75	n/a	n/a	0	0	0
1335104	REC_WORD	wordpools/wasnorm_wordpool_576.txt	LTP374	ltpFR2	12	7	SCISSORS	1250	n/a	n/a	0	0	0
1336691	REC_WORD	wordpools/wasnorm_wordpool_576.txt	LTP374	ltpFR2	12	7	CORAL	378	n/a	n/a	0	0	0
1337804	REC_WORD	wordpools/wasnorm_wordpool_576.txt	LTP374	ltpFR2	12	7	CAFE	216	n/a	n/a	0	0	0
1339056	REC_WORD	wordpools/wasnorm_wordpool_576.txt	LTP374	ltpFR2	12	7	CRAB	397	n/a	n/a	0	0	0
1408312	WORD	wordpools/wasnorm_wordpool_576.txt	LTP374	ltpFR2	12	8	NIGHTGOWN	953	n/a	n/a	0	0	0
1410929	WORD	wordpools/wasnorm_wordpool_576.txt	LTP374	ltpFR2	12	8	BRANCH	168	n/a	n/a	0	0	0
1413610	WORD	wordpools/wasnorm_wordpool_576.txt	LTP374	ltpFR2	12	8	PACKAGE	997	n/a	n/a	0	0	0
1416308	WORD	wordpools/wasnorm_wordpool_576.txt	LTP374	ltpFR2	12	8	CROWN	415	n/a	n/a	0	0	0
1418825	WORD	wordpools/wasnorm_wordpool_576.txt	LTP374	ltpFR2	12	8	QUEEN	1149	n/a	n/a	0	0	0
1421273	WORD	wordpools/wasnorm_wordpool_576.txt	LTP374	ltpFR2	12	8	GAZELLE	628	n/a	n/a	0	0	0
1423723	WORD	wordpools/wasnorm_wordpool_576.txt	LTP374	ltpFR2	12	8	MUFFIN	929	n/a	n/a	0	0	0
1426238	WORD	wordpools/wasnorm_wordpool_576.txt	LTP374	ltpFR2	12	8	SNACK	1331	n/a	n/a	0	0	0
1429004	WORD	wordpools/wasnorm_wordpool_576.txt	LTP374	ltpFR2	12	8	SOFTBALL	1343	n/a	n/a	0	0	0
1431769	WORD	wordpools/wasnorm_wordpool_576.txt	LTP374	ltpFR2	12	8	FOOTBALL	591	n/a	n/a	0	0	0
1434433	WORD	wordpools/wasnorm_wordpool_576.txt	LTP374	ltpFR2	12	8	APRON	35	n/a	n/a	0	0	0
1436933	WORD	wordpools/wasnorm_wordpool_576.txt	LTP374	ltpFR2	12	8	WHISKERS	1605	n/a	n/a	0	0	0
1439364	WORD	wordpools/wasnorm_wordpool_576.txt	LTP374	ltpFR2	12	8	DAISY	435	n/a	n/a	0	0	0
1442131	WORD	wordpools/wasnorm_wordpool_576.txt	LTP374	ltpFR2	12	8	SPIDER	1351	n/a	n/a	0	0	0
1444662	WORD	wordpools/wasnorm_wordpool_576.txt	LTP374	ltpFR2	12	8	SPARROW	1347	n/a	n/a	0	0	0
1447095	WORD	wordpools/wasnorm_wordpool_576.txt	LTP374	ltpFR2	12	8	TART	1436	n/a	n/a	0	0	0
1449844	WORD	wordpools/wasnorm_wordpool_576.txt	LTP374	ltpFR2	12	8	SALT	1229	n/a	n/a	0	0	0
1452508	WORD	wordpools/wasnorm_wordpool_576.txt	LTP374	ltpFR2	12	8	MILK	895	n/a	n/a	0	0	0
1455208	WORD	wordpools/wasnorm_wordpool_576.txt	LTP374	ltpFR2	12	8	COOKBOOK	373	n/a	n/a	0	0	0
1457639	WORD	wordpools/wasnorm_wordpool_576.txt	LTP374	ltpFR2	12	8	BOX	159	n/a	n/a	0	0	0
1460288	WORD	wordpools/wasnorm_wordpool_576.txt	LTP374	ltpFR2	12	8	ICING	732	n/a	n/a	0	0	0
1462838	WORD	wordpools/wasnorm_wordpool_576.txt	LTP374	ltpFR2	12	8	PLAYGROUND	1087	n/a	n/a	0	0	0
1465369	WORD	wordpools/wasnorm_wordpool_576.txt	LTP374	ltpFR2	12	8	LUMBER	848	n/a	n/a	0	0	0
1467802	WORD	wordpools/wasnorm_wordpool_576.txt	LTP374	ltpFR2	12	8	HIKER	708	n/a	n/a	0	0	0
1469417	START	n/a	LTP374	ltpFR2	12	n/a	n/a	n/a	12	n/a	n/a	n/a	n/a
1470572	DISTRACTOR	n/a	LTP374	ltpFR2	12	8	n/a	n/a	n/a	n/a	0	0	0
1470583	PROB	n/a	LTP374	ltpFR2	12	n/a	n/a	n/a	12	10	8	1	1
1472582	PROB	n/a	LTP374	ltpFR2	12	n/a	n/a	n/a	12	17	3	8	6
1474199	PROB	n/a	LTP374	ltpFR2	12	n/a	n/a	n/a	12	16	6	2	8
1475149	PROB	n/a	LTP374	ltpFR2	12	n/a	n/a	n/a	12	21	9	7	8
1476015	PROB	n/a	LTP374	ltpFR2	12	n/a	n/a	n/a	12	14	4	2	8
1477347	PROB	n/a	LTP374	ltpFR2	12	n/a	n/a	n/a	12	12	8	2	1
1478147	PROB	n/a	LTP374	ltpFR2	12	n/a	n/a	n/a	12	18	4	5	9
1478997	PROB	n/a	LTP374	ltpFR2	12	n/a	n/a	n/a	12	17	8	1	8
1479963	PROB	n/a	LTP374	ltpFR2	12	n/a	n/a	n/a	12	11	2	5	4
1481445	PROB	n/a	LTP374	ltpFR2	12	n/a	n/a	n/a	12	14	4	2	8
1482394	PROB	n/a	LTP374	ltpFR2	12	n/a	n/a	n/a	12	15	3	3	9
1483311	PROB	n/a	LTP374	ltpFR2	12	n/a	n/a	n/a	12	23	8	9	6
1484711	PROB	n/a	LTP374	ltpFR2	12	n/a	n/a	n/a	12	24	7	9	8
1485711	PROB	n/a	LTP374	ltpFR2	12	n/a	n/a	n/a	12	7	1	1	5
1486459	PROB	n/a	LTP374	ltpFR2	12	n/a	n/a	n/a	12	16	6	2	8
1487243	PROB	n/a	LTP374	ltpFR2	12	n/a	n/a	n/a	12	12	1	7	4
1488059	PROB	n/a	LTP374	ltpFR2	12	n/a	n/a	n/a	12	15	2	6	5
1489109	PROB	n/a	LTP374	ltpFR2	12	n/a	n/a	n/a	12	24	7	9	8
1490025	PROB	n/a	LTP374	ltpFR2	12	n/a	n/a	n/a	12	17	7	9	1
1491407	PROB	n/a	LTP374	ltpFR2	12	n/a	n/a	n/a	12	14	5	2	7
1492518	STOP	n/a	LTP374	ltpFR2	12	n/a	n/a	n/a	12	n/a	n/a	n/a	n/a
1495322	REC_START	n/a	LTP374	ltpFR2	12	8	n/a	n/a	n/a	n/a	0	0	0
1497803	REC_WORD	wordpools/wasnorm_wordpool_576.txt	LTP374	ltpFR2	12	8	HIKER	708	n/a	n/a	0	0	0
1498958	REC_WORD	wordpools/wasnorm_wordpool_576.txt	LTP374	ltpFR2	12	8	GAZELLE	628	n/a	n/a	0	0	0
1500009	REC_WORD	wordpools/wasnorm_wordpool_576.txt	LTP374	ltpFR2	12	8	WHISKERS	1605	n/a	n/a	0	0	0
1501000	REC_WORD	wordpools/wasnorm_wordpool_576.txt	LTP374	ltpFR2	12	8	BRANCH	168	n/a	n/a	0	0	0
1502135	REC_WORD	wordpools/wasnorm_wordpool_576.txt	LTP374	ltpFR2	12	8	SPIDER	1351	n/a	n/a	0	0	0
1503019	REC_WORD	wordpools/wasnorm_wordpool_576.txt	LTP374	ltpFR2	12	8	SPARROW	1347	n/a	n/a	0	0	0
1504656	REC_WORD	wordpools/wasnorm_wordpool_576.txt	LTP374	ltpFR2	12	8	COOKBOOK	373	n/a	n/a	0	0	0
1507386	REC_WORD	wordpools/wasnorm_wordpool_576.txt	LTP374	ltpFR2	12	8	BRANCH	168	n/a	n/a	0	0	0
1510231	REC_WORD	wordpools/wasnorm_wordpool_576.txt	LTP374	ltpFR2	12	8	SOFTBALL	1343	n/a	n/a	0	0	0
1510890	REC_WORD	wordpools/wasnorm_wordpool_576.txt	LTP374	ltpFR2	12	8	FOOTBALL	591	n/a	n/a	0	0	0
1515152	REC_WORD	wordpools/wasnorm_wordpool_576.txt	LTP374	ltpFR2	12	8	MUFFIN	929	n/a	n/a	0	0	0
1516169	REC_WORD	wordpools/wasnorm_wordpool_576.txt	LTP374	ltpFR2	12	8	ICING	732	n/a	n/a	0	0	0
1520569	REC_WORD	wordpools/wasnorm_wordpool_576.txt	LTP374	ltpFR2	12	8	PACKAGE	997	n/a	n/a	0	0	0
1521690	REC_WORD	wordpools/wasnorm_wordpool_576.txt	LTP374	ltpFR2	12	8	BOX	159	n/a	n/a	0	0	0
1522737	REC_WORD	wordpools/wasnorm_wordpool_576.txt	LTP374	ltpFR2	12	8	NIGHTGOWN	953	n/a	n/a	0	0	0
1523972	REC_WORD	wordpools/wasnorm_wordpool_576.txt	LTP374	ltpFR2	12	8	APRON	35	n/a	n/a	0	0	0
1525301	REC_WORD	wordpools/wasnorm_wordpool_576.txt	LTP374	ltpFR2	12	8	QUEEN	1149	n/a	n/a	0	0	0
1527453	REC_WORD	wordpools/wasnorm_wordpool_576.txt	LTP374	ltpFR2	12	8	CROWN	415	n/a	n/a	0	0	0
1548382	REC_WORD	wordpools/wasnorm_wordpool_576.txt	LTP374	ltpFR2	12	8	TART	1436	n/a	n/a	0	0	0
1551432	REC_WORD	wordpools/wasnorm_wordpool_576.txt	LTP374	ltpFR2	12	8	SALT	1229	n/a	n/a	0	0	0
1571871	REST_REWET	n/a	LTP374	ltpFR2	12	8	n/a	n/a	n/a	n/a	0	0	0
1741958	WORD	wordpools/wasnorm_wordpool_576.txt	LTP374	ltpFR2	12	9	RATTLE	1170	n/a	n/a	0	0	0
1744673	WORD	wordpools/wasnorm_wordpool_576.txt	LTP374	ltpFR2	12	9	PARROT	1015	n/a	n/a	0	0	0
1747272	WORD	wordpools/wasnorm_wordpool_576.txt	LTP374	ltpFR2	12	9	LIGHTNING	820	n/a	n/a	0	0	0
1750071	WORD	wordpools/wasnorm_wordpool_576.txt	LTP374	ltpFR2	12	9	PEPPER	1047	n/a	n/a	0	0	0
1752720	WORD	wordpools/wasnorm_wordpool_576.txt	LTP374	ltpFR2	12	9	LIVER	833	n/a	n/a	0	0	0
1755418	WORD	wordpools/wasnorm_wordpool_576.txt	LTP374	ltpFR2	12	9	SILK	1307	n/a	n/a	0	0	0
1758084	WORD	wordpools/wasnorm_wordpool_576.txt	LTP374	ltpFR2	12	9	POWDER	1117	n/a	n/a	0	0	0
1760682	WORD	wordpools/wasnorm_wordpool_576.txt	LTP374	ltpFR2	12	9	STAR	1373	n/a	n/a	0	0	0
1763314	WORD	wordpools/wasnorm_wordpool_576.txt	LTP374	ltpFR2	12	9	WOMAN	1620	n/a	n/a	0	0	0
1765847	WORD	wordpools/wasnorm_wordpool_576.txt	LTP374	ltpFR2	12	9	OX	994	n/a	n/a	0	0	0
1768645	WORD	wordpools/wasnorm_wordpool_576.txt	LTP374	ltpFR2	12	9	CHAMPAGNE	278	n/a	n/a	0	0	0
1771111	WORD	wordpools/wasnorm_wordpool_576.txt	LTP374	ltpFR2	12	9	BARREL	91	n/a	n/a	0	0	0
1773910	WORD	wordpools/wasnorm_wordpool_576.txt	LTP374	ltpFR2	12	9	TROMBONE	1508	n/a	n/a	0	0	0
1776491	WORD	wordpools/wasnorm_wordpool_576.txt	LTP374	ltpFR2	12	9	TILE	1468	n/a	n/a	0	0	0
1779208	WORD	wordpools/wasnorm_wordpool_576.txt	LTP374	ltpFR2	12	9	SPACE	1345	n/a	n/a	0	0	0
1781906	WORD	wordpools/wasnorm_wordpool_576.txt	LTP374	ltpFR2	12	9	PERCH	1048	n/a	n/a	0	0	0
1784488	WORD	wordpools/wasnorm_wordpool_576.txt	LTP374	ltpFR2	12	9	SNAIL	1332	n/a	n/a	0	0	0
1787121	WORD	wordpools/wasnorm_wordpool_576.txt	LTP374	ltpFR2	12	9	CRICKET	408	n/a	n/a	0	0	0
1789869	WORD	wordpools/wasnorm_wordpool_576.txt	LTP374	ltpFR2	12	9	ARM	38	n/a	n/a	0	0	0
1792667	WORD	wordpools/wasnorm_wordpool_576.txt	LTP374	ltpFR2	12	9	HOOK	715	n/a	n/a	0	0	0
1795217	WORD	wordpools/wasnorm_wordpool_576.txt	LTP374	ltpFR2	12	9	SEAFOOD	1260	n/a	n/a	0	0	0
1797766	WORD	wordpools/wasnorm_wordpool_576.txt	LTP374	ltpFR2	12	9	PORK	1108	n/a	n/a	0	0	0
1800513	WORD	wordpools/wasnorm_wordpool_576.txt	LTP374	ltpFR2	12	9	COMET	353	n/a	n/a	0	0	0
1803080	WORD	wordpools/wasnorm_wordpool_576.txt	LTP374	ltpFR2	12	9	SURVEY	1414	n/a	n/a	0	0	0
1804695	START	n/a	LTP374	ltpFR2	12	n/a	n/a	n/a	13	n/a	n/a	n/a	n/a
1805854	DISTRACTOR	n/a	LTP374	ltpFR2	12	9	n/a	n/a	n/a	n/a	0	0	0
1805862	PROB	n/a	LTP374	ltpFR2	12	n/a	n/a	n/a	13	22	8	6	8
1807061	PROB	n/a	LTP374	ltpFR2	12	n/a	n/a	n/a	13	12	7	1	4
1808128	PROB	n/a	LTP374	ltpFR2	12	n/a	n/a	n/a	13	25	6	9	9
1809293	PROB	n/a	LTP374	ltpFR2	12	n/a	n/a	n/a	13	18	8	6	4
1810177	PROB	n/a	LTP374	ltpFR2	12	n/a	n/a	n/a	13	12	4	7	1
1810910	PROB	n/a	LTP374	ltpFR2	12	n/a	n/a	n/a	13	12	2	2	8
1811642	PROB	n/a	LTP374	ltpFR2	12	n/a	n/a	n/a	13	21	6	6	9
1812558	PROB	n/a	LTP374	ltpFR2	12	n/a	n/a	n/a	13	12	7	5	8
1813892	PROB	n/a	LTP374	ltpFR2	12	n/a	n/a	n/a	13	8	2	5	1
1814808	PROB	n/a	LTP374	ltpFR2	12	n/a	n/a	n/a	13	9	5	1	3
1815640	PROB	n/a	LTP374	ltpFR2	12	n/a	n/a	n/a	13	14	9	3	2
1816539	PROB	n/a	LTP374	ltpFR2	12	n/a	n/a	n/a	13	11	1	2	8
1817940	PROB	n/a	LTP374	ltpFR2	12	n/a	n/a	n/a	13	16	6	5	5
1818773	PROB	n/a	LTP374	ltpFR2	12	n/a	n/a	n/a	13	14	3	9	2
1819822	PROB	n/a	LTP374	ltpFR2	12	n/a	n/a	n/a	13	14	5	5	4
1820554	PROB	n/a	LTP374	ltpFR2	12	n/a	n/a	n/a	13	17	9	2	6
1821554	PROB	n/a	LTP374	ltpFR2	12	n/a	n/a	n/a	13	13	5	2	4
1822520	PROB	n/a	LTP374	ltpFR2	12	n/a	n/a	n/a	13	14	4	4	7
1823320	PROB	n/a	LTP374	ltpFR2	12	n/a	n/a	n/a	13	10	5	2	3
1824569	PROB	n/a	LTP374	ltpFR2	12	n/a	n/a	n/a	13	16	9	6	1
1825635	PROB	n/a	LTP374	ltpFR2	12	n/a	n/a	n/a	13	14	8	2	4
1826985	PROB	n/a	LTP374	ltpFR2	12	n/a	n/a	n/a	13	16	8	5	3
1827801	STOP	n/a	LTP374	ltpFR2	12	n/a	n/a	n/a	13	n/a	n/a	n/a	n/a
1830517	REC_START	n/a	LTP374	ltpFR2	12	9	n/a	n/a	n/a	n/a	0	0	0
1834205	REC_WORD	wordpools/wasnorm_wordpool_576.txt	LTP374	ltpFR2	12	9	TILE	1468	n/a	n/a	0	0	0
1835405	REC_WORD	wordpools/wasnorm_wordpool_576.txt	LTP374	ltpFR2	12	9	PERCH	1048	n/a	n/a	0	0	0
1836481	REC_WORD	wordpools/wasnorm_wordpool_576.txt	LTP374	ltpFR2	12	9	SNAIL	1332	n/a	n/a	0	0	0
1837923	REC_WORD	wordpools/wasnorm_wordpool_576.txt	LTP374	ltpFR2	12	9	CRICKET	408	n/a	n/a	0	0	0
1841336	REC_WORD	wordpools/wasnorm_wordpool_576.txt	LTP374	ltpFR2	12	9	SPACE	1345	n/a	n/a	0	0	0
1842634	REC_WORD	wordpools/wasnorm_wordpool_576.txt	LTP374	ltpFR2	12	9	COMET	353	n/a	n/a	0	0	0
1843636	REC_WORD	wordpools/wasnorm_wordpool_576.txt	LTP374	ltpFR2	12	9	LIGHTNING	820	n/a	n/a	0	0	0
1845504	REC_WORD	wordpools/wasnorm_wordpool_576.txt	LTP374	ltpFR2	12	9	RATTLE	1170	n/a	n/a	0	0	0
1846723	REC_WORD	wordpools/wasnorm_wordpool_576.txt	LTP374	ltpFR2	12	9	PARROT	1015	n/a	n/a	0	0	0
1852172	REC_WORD	wordpools/wasnorm_wordpool_576.txt	LTP374	ltpFR2	12	9	WOMAN	1620	n/a	n/a	0	0	0
1853402	REC_WORD	wordpools/wasnorm_wordpool_576.txt	LTP374	ltpFR2	12	9	OX	994	n/a	n/a	0	0	0
1854340	REC_WORD	wordpools/wasnorm_wordpool_576.txt	LTP374	ltpFR2	12	9	CHAMPAGNE	278	n/a	n/a	0	0	0
1855849	REC_WORD	wordpools/wasnorm_wordpool_576.txt	LTP374	ltpFR2	12	9	BARREL	91	n/a	n/a	0	0	0
1860710	REC_WORD	wordpools/wasnorm_wordpool_576.txt	LTP374	ltpFR2	12	9	ARM	38	n/a	n/a	0	0	0
1877982	REC_WORD	wordpools/wasnorm_wordpool_576.txt	LTP374	ltpFR2	12	9	BEEF	113	n/a	n/a	0	0	0
1883036	REC_WORD	wordpools/wasnorm_wordpool_576.txt	LTP374	ltpFR2	12	9	SEAFOOD	1260	n/a	n/a	0	0	0
1920942	DISTRACTOR	n/a	LTP374	ltpFR2	12	10	n/a	n/a	n/a	n/a	0	0	0
1920942	START	n/a	LTP374	ltpFR2	12	n/a	n/a	n/a	14	n/a	n/a	n/a	n/a
1920959	PROB	n/a	LTP374	ltpFR2	12	n/a	n/a	n/a	14	23	8	7	8
1922091	PROB	n/a	LTP374	ltpFR2	12	n/a	n/a	n/a	14	11	4	5	2
1923141	PROB	n/a	LTP374	ltpFR2	12	n/a	n/a	n/a	14	14	8	3	3
1923907	PROB	n/a	LTP374	ltpFR2	12	n/a	n/a	n/a	14	24	7	9	8
1924840	PROB	n/a	LTP374	ltpFR2	12	n/a	n/a	n/a	14	1	6	2	8
1925873	PROB	n/a	LTP374	ltpFR2	12	n/a	n/a	n/a	14	16	2	5	9
1926822	PROB	n/a	LTP374	ltpFR2	12	n/a	n/a	n/a	14	10	6	3	1
1927588	PROB	n/a	LTP374	ltpFR2	12	n/a	n/a	n/a	14	10	7	1	2
1928905	PROB	n/a	LTP374	ltpFR2	12	n/a	n/a	n/a	14	20	9	8	3
1930287	PROB	n/a	LTP374	ltpFR2	12	n/a	n/a	n/a	14	13	3	7	3
1931054	PROB	n/a	LTP374	ltpFR2	12	n/a	n/a	n/a	14	12	2	3	7
1932003	PROB	n/a	LTP374	ltpFR2	12	n/a	n/a	n/a	14	6	4	1	1
1932685	PROB	n/a	LTP374	ltpFR2	12	n/a	n/a	n/a	14	17	7	2	8
1933803	PROB	n/a	LTP374	ltpFR2	12	n/a	n/a	n/a	14	12	4	3	5
1934835	PROB	n/a	LTP374	ltpFR2	12	n/a	n/a	n/a	14	16	5	5	6
1935601	PROB	n/a	LTP374	ltpFR2	12	n/a	n/a	n/a	14	12	8	2	2
1936301	PROB	n/a	LTP374	ltpFR2	12	n/a	n/a	n/a	14	11	3	5	3
1937400	PROB	n/a	LTP374	ltpFR2	12	n/a	n/a	n/a	14	15	8	5	2
1938549	PROB	n/a	LTP374	ltpFR2	12	n/a	n/a	n/a	14	12	1	5	6
1939282	PROB	n/a	LTP374	ltpFR2	12	n/a	n/a	n/a	14	11	4	5	2
1940315	PROB	n/a	LTP374	ltpFR2	12	n/a	n/a	n/a	14	13	6	4	3
1941083	PROB	n/a	LTP374	ltpFR2	12	n/a	n/a	n/a	14	12	4	5	3
1941882	PROB	n/a	LTP374	ltpFR2	12	n/a	n/a	n/a	14	13	5	4	4
1942748	PROB	n/a	LTP374	ltpFR2	12	n/a	n/a	n/a	14	15	4	6	5
1943476	STOP	n/a	LTP374	ltpFR2	12	n/a	n/a	n/a	14	n/a	n/a	n/a	n/a
1946147	WORD	wordpools/wasnorm_wordpool_576.txt	LTP374	ltpFR2	12	10	QUARTER	1148	n/a	n/a	0	0	0
1948762	WORD	wordpools/wasnorm_wordpool_576.txt	LTP374	ltpFR2	12	10	FUNGUS	614	n/a	n/a	0	0	0
1951493	WORD	wordpools/wasnorm_wordpool_576.txt	LTP374	ltpFR2	12	10	MASK	876	n/a	n/a	0	0	0
1954193	WORD	wordpools/wasnorm_wordpool_576.txt	LTP374	ltpFR2	12	10	TABLET	1427	n/a	n/a	0	0	0
1956992	WORD	wordpools/wasnorm_wordpool_576.txt	LTP374	ltpFR2	12	10	CELLAR	267	n/a	n/a	0	0	0
1959556	WORD	wordpools/wasnorm_wordpool_576.txt	LTP374	ltpFR2	12	10	TOASTER	1472	n/a	n/a	0	0	0
1962173	WORD	wordpools/wasnorm_wordpool_576.txt	LTP374	ltpFR2	12	10	PIZZA	1079	n/a	n/a	0	0	0
1964654	WORD	wordpools/wasnorm_wordpool_576.txt	LTP374	ltpFR2	12	10	COD	340	n/a	n/a	0	0	0
1967171	WORD	wordpools/wasnorm_wordpool_576.txt	LTP374	ltpFR2	12	10	FLIPPER	580	n/a	n/a	0	0	0
1969836	WORD	wordpools/wasnorm_wordpool_576.txt	LTP374	ltpFR2	12	10	VIRUS	1572	n/a	n/a	0	0	0
1972550	WORD	wordpools/wasnorm_wordpool_576.txt	LTP374	ltpFR2	12	10	SUNSET	1408	n/a	n/a	0	0	0
1975316	WORD	wordpools/wasnorm_wordpool_576.txt	LTP374	ltpFR2	12	10	MARSH	874	n/a	n/a	0	0	0
1978099	WORD	wordpools/wasnorm_wordpool_576.txt	LTP374	ltpFR2	12	10	WINDOW	1611	n/a	n/a	0	0	0
1980897	WORD	wordpools/wasnorm_wordpool_576.txt	LTP374	ltpFR2	12	10	FRECKLE	602	n/a	n/a	0	0	0
1983362	WORD	wordpools/wasnorm_wordpool_576.txt	LTP374	ltpFR2	12	10	GAVEL	627	n/a	n/a	0	0	0
1986062	WORD	wordpools/wasnorm_wordpool_576.txt	LTP374	ltpFR2	12	10	GRAVEL	659	n/a	n/a	0	0	0
1988626	WORD	wordpools/wasnorm_wordpool_576.txt	LTP374	ltpFR2	12	10	ONION	977	n/a	n/a	0	0	0
1991059	WORD	wordpools/wasnorm_wordpool_576.txt	LTP374	ltpFR2	12	10	SUNRISE	1407	n/a	n/a	0	0	0
1993641	WORD	wordpools/wasnorm_wordpool_576.txt	LTP374	ltpFR2	12	10	DENIM	446	n/a	n/a	0	0	0
1996190	WORD	wordpools/wasnorm_wordpool_576.txt	LTP374	ltpFR2	12	10	CUSTARD	429	n/a	n/a	0	0	0
1998688	WORD	wordpools/wasnorm_wordpool_576.txt	LTP374	ltpFR2	12	10	SLUG	1329	n/a	n/a	0	0	0
2001121	WORD	wordpools/wasnorm_wordpool_576.txt	LTP374	ltpFR2	12	10	PALACE	1006	n/a	n/a	0	0	0
2003704	WORD	wordpools/wasnorm_wordpool_576.txt	LTP374	ltpFR2	12	10	PEBBLE	1035	n/a	n/a	0	0	0
2006301	WORD	wordpools/wasnorm_wordpool_576.txt	LTP374	ltpFR2	12	10	STONE	1385	n/a	n/a	0	0	0
2007918	START	n/a	LTP374	ltpFR2	12	n/a	n/a	n/a	15	n/a	n/a	n/a	n/a
2008922	DISTRACTOR	n/a	LTP374	ltpFR2	12	10	n/a	n/a	n/a	n/a	0	0	0
2008934	PROB	n/a	LTP374	ltpFR2	12	n/a	n/a	n/a	15	17	9	3	5
2009934	PROB	n/a	LTP374	ltpFR2	12	n/a	n/a	n/a	15	14	4	6	4
2010784	PROB	n/a	LTP374	ltpFR2	12	n/a	n/a	n/a	15	14	1	5	8
2011632	PROB	n/a	LTP374	ltpFR2	12	n/a	n/a	n/a	15	16	4	9	3
2012665	PROB	n/a	LTP374	ltpFR2	12	n/a	n/a	n/a	15	9	5	3	1
2013531	PROB	n/a	LTP374	ltpFR2	12	n/a	n/a	n/a	15	26	9	9	8
2014564	PROB	n/a	LTP374	ltpFR2	12	n/a	n/a	n/a	15	12	6	3	3
2015380	PROB	n/a	LTP374	ltpFR2	12	n/a	n/a	n/a	15	9	3	2	4
2016164	PROB	n/a	LTP374	ltpFR2	12	n/a	n/a	n/a	15	16	7	7	3
2017031	PROB	n/a	LTP374	ltpFR2	12	n/a	n/a	n/a	15	21	2	9	9
2017997	PROB	n/a	LTP374	ltpFR2	12	n/a	n/a	n/a	15	13	4	1	8
2019529	PROB	n/a	LTP374	ltpFR2	12	n/a	n/a	n/a	15	8	1	5	2
2020311	PROB	n/a	LTP374	ltpFR2	12	n/a	n/a	n/a	15	17	3	9	5
2021444	PROB	n/a	LTP374	ltpFR2	12	n/a	n/a	n/a	15	21	9	6	7
2022527	PROB	n/a	LTP374	ltpFR2	12	n/a	n/a	n/a	15	12	5	2	5
2023327	PROB	n/a	LTP374	ltpFR2	12	n/a	n/a	n/a	15	16	3	4	9
2024161	PROB	n/a	LTP374	ltpFR2	12	n/a	n/a	n/a	15	9	1	2	6
2024960	PROB	n/a	LTP374	ltpFR2	12	n/a	n/a	n/a	15	16	4	6	6
2026342	PROB	n/a	LTP374	ltpFR2	12	n/a	n/a	n/a	15	17	4	7	5
2027508	PROB	n/a	LTP374	ltpFR2	12	n/a	n/a	n/a	15	26	6	9	9
2028608	PROB	n/a	LTP374	ltpFR2	12	n/a	n/a	n/a	15	19	6	7	6
2029557	PROB	n/a	LTP374	ltpFR2	12	n/a	n/a	n/a	15	15	3	4	8
2030357	PROB	n/a	LTP374	ltpFR2	12	n/a	n/a	n/a	15	19	7	4	8
2031391	STOP	n/a	LTP374	ltpFR2	12	n/a	n/a	n/a	15	n/a	n/a	n/a	n/a
2033773	REC_START	n/a	LTP374	ltpFR2	12	10	n/a	n/a	n/a	n/a	0	0	0
2034963	REC_WORD	wordpools/wasnorm_wordpool_576.txt	LTP374	ltpFR2	12	10	DENIM	446	n/a	n/a	0	0	0
2035672	REC_WORD	wordpools/wasnorm_wordpool_576.txt	LTP374	ltpFR2	12	10	CUSTARD	429	n/a	n/a	0	0	0
2036254	REC_WORD	wordpools/wasnorm_wordpool_576.txt	LTP374	ltpFR2	12	10	SLUG	1329	n/a	n/a	0	0	0
2037138	REC_WORD	wordpools/wasnorm_wordpool_576.txt	LTP374	ltpFR2	12	10	PALACE	1006	n/a	n/a	0	0	0
2038733	REC_WORD	wordpools/wasnorm_wordpool_576.txt	LTP374	ltpFR2	12	10	PEBBLE	1035	n/a	n/a	0	0	0
2039251	REC_WORD	wordpools/wasnorm_wordpool_576.txt	LTP374	ltpFR2	12	10	STONE	1385	n/a	n/a	0	0	0
2042458	REC_WORD	wordpools/wasnorm_wordpool_576.txt	LTP374	ltpFR2	12	10	CELLAR	267	n/a	n/a	0	0	0
2043667	REC_WORD	wordpools/wasnorm_wordpool_576.txt	LTP374	ltpFR2	12	10	SUNSET	1408	n/a	n/a	0	0	0
2044498	REC_WORD	wordpools/wasnorm_wordpool_576.txt	LTP374	ltpFR2	12	10	SUNRISE	1407	n/a	n/a	0	0	0
2045487	REC_WORD	wordpools/wasnorm_wordpool_576.txt	LTP374	ltpFR2	12	10	WINDOW	1611	n/a	n/a	0	0	0
2047572	REC_WORD	wordpools/wasnorm_wordpool_576.txt	LTP374	ltpFR2	12	10	ONION	977	n/a	n/a	0	0	0
2048294	REC_WORD	wordpools/wasnorm_wordpool_576.txt	LTP374	ltpFR2	12	10	PIZZA	1079	n/a	n/a	0	0	0
2049067	REC_WORD	wordpools/wasnorm_wordpool_576.txt	LTP374	ltpFR2	12	10	TOAST	1471	n/a	n/a	0	0	0
2051750	REC_WORD	wordpools/wasnorm_wordpool_576.txt	LTP374	ltpFR2	12	10	CUSTARD	429	n/a	n/a	0	0	0
2054598	REC_WORD	wordpools/wasnorm_wordpool_576.txt	LTP374	ltpFR2	12	10	TABLET	1427	n/a	n/a	0	0	0
2055407	REC_WORD	wordpools/wasnorm_wordpool_576.txt	LTP374	ltpFR2	12	10	QUARTER	1148	n/a	n/a	0	0	0
2056064	REC_WORD	wordpools/wasnorm_wordpool_576.txt	LTP374	ltpFR2	12	10	MASK	876	n/a	n/a	0	0	0
2124231	WORD	wordpools/wasnorm_wordpool_576.txt	LTP374	ltpFR2	12	11	MACHINE	852	n/a	n/a	0	0	0
2126713	WORD	wordpools/wasnorm_wordpool_576.txt	LTP374	ltpFR2	12	11	SEAL	1262	n/a	n/a	0	0	0
2129212	WORD	wordpools/wasnorm_wordpool_576.txt	LTP374	ltpFR2	12	11	EAGLE	512	n/a	n/a	0	0	0
2131927	WORD	wordpools/wasnorm_wordpool_576.txt	LTP374	ltpFR2	12	11	TOMBSTONE	1478	n/a	n/a	0	0	0
2134542	WORD	wordpools/wasnorm_wordpool_576.txt	LTP374	ltpFR2	12	11	MOTEL	919	n/a	n/a	0	0	0
2137274	WORD	wordpools/wasnorm_wordpool_576.txt	LTP374	ltpFR2	12	11	MUMMY	932	n/a	n/a	0	0	0
2139840	WORD	wordpools/wasnorm_wordpool_576.txt	LTP374	ltpFR2	12	11	SHRUB	1299	n/a	n/a	0	0	0
2142321	WORD	wordpools/wasnorm_wordpool_576.txt	LTP374	ltpFR2	12	11	MAILMAN	858	n/a	n/a	0	0	0
2145121	WORD	wordpools/wasnorm_wordpool_576.txt	LTP374	ltpFR2	12	11	OFFICE	972	n/a	n/a	0	0	0
2147937	WORD	wordpools/wasnorm_wordpool_576.txt	LTP374	ltpFR2	12	11	PASTA	1021	n/a	n/a	0	0	0
2150702	WORD	wordpools/wasnorm_wordpool_576.txt	LTP374	ltpFR2	12	11	CURTAIN	427	n/a	n/a	0	0	0
2153450	WORD	wordpools/wasnorm_wordpool_576.txt	LTP374	ltpFR2	12	11	OMELET	976	n/a	n/a	0	0	0
2156100	WORD	wordpools/wasnorm_wordpool_576.txt	LTP374	ltpFR2	12	11	BLOUSE	139	n/a	n/a	0	0	0
2158597	WORD	wordpools/wasnorm_wordpool_576.txt	LTP374	ltpFR2	12	11	MEDAL	885	n/a	n/a	0	0	0
2161329	WORD	wordpools/wasnorm_wordpool_576.txt	LTP374	ltpFR2	12	11	AWARD	63	n/a	n/a	0	0	0
2163946	WORD	wordpools/wasnorm_wordpool_576.txt	LTP374	ltpFR2	12	11	BINDER	127	n/a	n/a	0	0	0
2166644	WORD	wordpools/wasnorm_wordpool_576.txt	LTP374	ltpFR2	12	11	STAMP	1370	n/a	n/a	0	0	0
2169376	WORD	wordpools/wasnorm_wordpool_576.txt	LTP374	ltpFR2	12	11	PAPER	1011	n/a	n/a	0	0	0
2171809	WORD	wordpools/wasnorm_wordpool_576.txt	LTP374	ltpFR2	12	11	STALLION	1369	n/a	n/a	0	0	0
2174507	WORD	wordpools/wasnorm_wordpool_576.txt	LTP374	ltpFR2	12	11	WAGON	1578	n/a	n/a	0	0	0
2177305	WORD	wordpools/wasnorm_wordpool_576.txt	LTP374	ltpFR2	12	11	PEANUT	1032	n/a	n/a	0	0	0
2179955	WORD	wordpools/wasnorm_wordpool_576.txt	LTP374	ltpFR2	12	11	JELLY	755	n/a	n/a	0	0	0
2182420	WORD	wordpools/wasnorm_wordpool_576.txt	LTP374	ltpFR2	12	11	SKIRT	1319	n/a	n/a	0	0	0
2185153	WORD	wordpools/wasnorm_wordpool_576.txt	LTP374	ltpFR2	12	11	YOLK	1633	n/a	n/a	0	0	0
2186769	START	n/a	LTP374	ltpFR2	12	n/a	n/a	n/a	16	n/a	n/a	n/a	n/a
2187623	DISTRACTOR	n/a	LTP374	ltpFR2	12	11	n/a	n/a	n/a	n/a	0	0	0
2187634	PROB	n/a	LTP374	ltpFR2	12	n/a	n/a	n/a	16	21	6	9	7
2188834	PROB	n/a	LTP374	ltpFR2	12	n/a	n/a	n/a	16	12	6	1	5
2189734	PROB	n/a	LTP374	ltpFR2	12	n/a	n/a	n/a	16	20	9	9	2
2190717	PROB	n/a	LTP374	ltpFR2	12	n/a	n/a	n/a	16	11	1	6	4
2191800	PROB	n/a	LTP374	ltpFR2	12	n/a	n/a	n/a	16	17	3	6	8
2192882	PROB	n/a	LTP374	ltpFR2	12	n/a	n/a	n/a	16	15	6	5	4
2193765	PROB	n/a	LTP374	ltpFR2	12	n/a	n/a	n/a	16	22	7	8	7
2194931	PROB	n/a	LTP374	ltpFR2	12	n/a	n/a	n/a	16	20	4	7	9
2195881	PROB	n/a	LTP374	ltpFR2	12	n/a	n/a	n/a	16	16	3	6	7
2196731	PROB	n/a	LTP374	ltpFR2	12	n/a	n/a	n/a	16	18	6	3	9
2197663	PROB	n/a	LTP374	ltpFR2	12	n/a	n/a	n/a	16	18	4	7	6
2198746	PROB	n/a	LTP374	ltpFR2	12	n/a	n/a	n/a	16	15	9	5	1
2199762	PROB	n/a	LTP374	ltpFR2	12	n/a	n/a	n/a	16	14	6	2	6
2200695	PROB	n/a	LTP374	ltpFR2	12	n/a	n/a	n/a	16	1	8	4	7
2201862	PROB	n/a	LTP374	ltpFR2	12	n/a	n/a	n/a	16	18	8	5	5
2203211	PROB	n/a	LTP374	ltpFR2	12	n/a	n/a	n/a	16	14	3	7	4
2204127	PROB	n/a	LTP374	ltpFR2	12	n/a	n/a	n/a	16	22	8	7	7
2205227	PROB	n/a	LTP374	ltpFR2	12	n/a	n/a	n/a	16	11	6	4	1
2206060	PROB	n/a	LTP374	ltpFR2	12	n/a	n/a	n/a	16	9	7	1	1
2206793	PROB	n/a	LTP374	ltpFR2	12	n/a	n/a	n/a	16	20	5	9	6
2208175	PROB	n/a	LTP374	ltpFR2	12	n/a	n/a	n/a	16	21	3	9	9
2209242	PROB	n/a	LTP374	ltpFR2	12	n/a	n/a	n/a	16	21	9	7	5
2210285	STOP	n/a	LTP374	ltpFR2	12	n/a	n/a	n/a	16	n/a	n/a	n/a	n/a
2212673	REC_START	n/a	LTP374	ltpFR2	12	11	n/a	n/a	n/a	n/a	0	0	0
2214389	REC_WORD	wordpools/wasnorm_wordpool_576.txt	LTP374	ltpFR2	12	11	PASTA	1021	n/a	n/a	0	0	0
2215416	REC_WORD	wordpools/wasnorm_wordpool_576.txt	LTP374	ltpFR2	12	11	OMELET	976	n/a	n/a	0	0	0
2216367	REC_WORD	wordpools/wasnorm_wordpool_576.txt	LTP374	ltpFR2	12	11	PEANUT	1032	n/a	n/a	0	0	0
2217653	REC_WORD	wordpools/wasnorm_wordpool_576.txt	LTP374	ltpFR2	12	11	JELLY	755	n/a	n/a	0	0	0
2218703	REC_WORD	wordpools/wasnorm_wordpool_576.txt	LTP374	ltpFR2	12	11	BINDER	127	n/a	n/a	0	0	0
2219503	REC_WORD	wordpools/wasnorm_wordpool_576.txt	LTP374	ltpFR2	12	11	STAMP	1370	n/a	n/a	0	0	0
2220845	REC_WORD	wordpools/wasnorm_wordpool_576.txt	LTP374	ltpFR2	12	11	PAPER	1011	n/a	n/a	0	0	0
2221812	REC_WORD	wordpools/wasnorm_wordpool_576.txt	LTP374	ltpFR2	12	11	SKIRT	1319	n/a	n/a	0	0	0
2223164	REC_WORD	wordpools/wasnorm_wordpool_576.txt	LTP374	ltpFR2	12	11	BLOUSE	139	n/a	n/a	0	0	0
2224426	REC_WORD	wordpools/wasnorm_wordpool_576.txt	LTP374	ltpFR2	12	11	STALLION	1369	n/a	n/a	0	0	0
2225836	REC_WORD	wordpools/wasnorm_wordpool_576.txt	LTP374	ltpFR2	12	11	WAGON	1578	n/a	n/a	0	0	0
2229219	REC_WORD	wordpools/wasnorm_wordpool_576.txt	LTP374	ltpFR2	12	11	AWARD	63	n/a	n/a	0	0	0
2230605	REC_WORD	wordpools/wasnorm_wordpool_576.txt	LTP374	ltpFR2	12	11	BADGE	68	n/a	n/a	0	0	0
2303165	WORD	wordpools/wasnorm_wordpool_576.txt	LTP374	ltpFR2	12	12	DRAGON	492	n/a	n/a	0	0	0
2305813	WORD	wordpools/wasnorm_wordpool_576.txt	LTP374	ltpFR2	12	12	HOOD	714	n/a	n/a	0	0	0
2308394	WORD	wordpools/wasnorm_wordpool_576.txt	LTP374	ltpFR2	12	12	BELLY	119	n/a	n/a	0	0	0
2310978	WORD	wordpools/wasnorm_wordpool_576.txt	LTP374	ltpFR2	12	12	PUPIL	1143	n/a	n/a	0	0	0
2313743	WORD	wordpools/wasnorm_wordpool_576.txt	LTP374	ltpFR2	12	12	STUDENT	1395	n/a	n/a	0	0	0
2316541	WORD	wordpools/wasnorm_wordpool_576.txt	LTP374	ltpFR2	12	12	NOMAD	955	n/a	n/a	0	0	0
2319124	WORD	wordpools/wasnorm_wordpool_576.txt	LTP374	ltpFR2	12	12	PERFUME	1049	n/a	n/a	0	0	0
2321873	WORD	wordpools/wasnorm_wordpool_576.txt	LTP374	ltpFR2	12	12	PEDAL	1037	n/a	n/a	0	0	0
2324304	WORD	wordpools/wasnorm_wordpool_576.txt	LTP374	ltpFR2	12	12	CONCERT	360	n/a	n/a	0	0	0
2327103	WORD	wordpools/wasnorm_wordpool_576.txt	LTP374	ltpFR2	12	12	UMPIRE	1535	n/a	n/a	0	0	0
2329919	WORD	wordpools/wasnorm_wordpool_576.txt	LTP374	ltpFR2	12	12	BOARD	143	n/a	n/a	0	0	0
2332734	WORD	wordpools/wasnorm_wordpool_576.txt	LTP374	ltpFR2	12	12	CLOCK	325	n/a	n/a	0	0	0
2335216	WORD	wordpools/wasnorm_wordpool_576.txt	LTP374	ltpFR2	12	12	DONKEY	484	n/a	n/a	0	0	0
2337782	WORD	wordpools/wasnorm_wordpool_576.txt	LTP374	ltpFR2	12	12	CAMEL	223	n/a	n/a	0	0	0
2340214	WORD	wordpools/wasnorm_wordpool_576.txt	LTP374	ltpFR2	12	12	CATCHER	258	n/a	n/a	0	0	0
2342880	WORD	wordpools/wasnorm_wordpool_576.txt	LTP374	ltpFR2	12	12	GUITAR	670	n/a	n/a	0	0	0
2345494	WORD	wordpools/wasnorm_wordpool_576.txt	LTP374	ltpFR2	12	12	ANKLE	24	n/a	n/a	0	0	0
2347927	WORD	wordpools/wasnorm_wordpool_576.txt	LTP374	ltpFR2	12	12	TURNIP	1521	n/a	n/a	0	0	0
2350542	WORD	wordpools/wasnorm_wordpool_576.txt	LTP374	ltpFR2	12	12	GREASE	660	n/a	n/a	0	0	0
2352991	WORD	wordpools/wasnorm_wordpool_576.txt	LTP374	ltpFR2	12	12	WRIST	1626	n/a	n/a	0	0	0
2355589	WORD	wordpools/wasnorm_wordpool_576.txt	LTP374	ltpFR2	12	12	RADISH	1158	n/a	n/a	0	0	0
2358271	WORD	wordpools/wasnorm_wordpool_576.txt	LTP374	ltpFR2	12	12	LAGOON	795	n/a	n/a	0	0	0
2360971	WORD	wordpools/wasnorm_wordpool_576.txt	LTP374	ltpFR2	12	12	SWAMP	1416	n/a	n/a	0	0	0
2363669	WORD	wordpools/wasnorm_wordpool_576.txt	LTP374	ltpFR2	12	12	CLAMP	316	n/a	n/a	0	0	0
2365285	START	n/a	LTP374	ltpFR2	12	n/a	n/a	n/a	17	n/a	n/a	n/a	n/a
2366352	DISTRACTOR	n/a	LTP374	ltpFR2	12	12	n/a	n/a	n/a	n/a	0	0	0
2366368	PROB	n/a	LTP374	ltpFR2	12	n/a	n/a	n/a	17	15	1	9	5
2367135	PROB	n/a	LTP374	ltpFR2	12	n/a	n/a	n/a	17	10	6	1	3
2368034	PROB	n/a	LTP374	ltpFR2	12	n/a	n/a	n/a	17	19	5	6	7
2368934	PROB	n/a	LTP374	ltpFR2	12	n/a	n/a	n/a	17	9	5	2	4
2369750	PROB	n/a	LTP374	ltpFR2	12	n/a	n/a	n/a	17	11	1	6	4
2370883	PROB	n/a	LTP374	ltpFR2	12	n/a	n/a	n/a	17	16	7	1	8
2371733	PROB	n/a	LTP374	ltpFR2	12	n/a	n/a	n/a	17	14	1	4	9
2372899	PROB	n/a	LTP374	ltpFR2	12	n/a	n/a	n/a	17	15	9	2	4
2374264	PROB	n/a	LTP374	ltpFR2	12	n/a	n/a	n/a	17	11	3	3	5
2375148	PROB	n/a	LTP374	ltpFR2	12	n/a	n/a	n/a	17	15	6	5	4
2376047	PROB	n/a	LTP374	ltpFR2	12	n/a	n/a	n/a	17	16	2	6	8
2377014	PROB	n/a	LTP374	ltpFR2	12	n/a	n/a	n/a	17	16	1	9	6
2377763	PROB	n/a	LTP374	ltpFR2	12	n/a	n/a	n/a	17	16	8	2	4
2378545	PROB	n/a	LTP374	ltpFR2	12	n/a	n/a	n/a	17	18	2	7	8
2379611	PROB	n/a	LTP374	ltpFR2	12	n/a	n/a	n/a	17	24	8	8	8
2380895	PROB	n/a	LTP374	ltpFR2	12	n/a	n/a	n/a	17	13	2	8	3
2381644	PROB	n/a	LTP374	ltpFR2	12	n/a	n/a	n/a	17	19	5	6	8
2382593	PROB	n/a	LTP374	ltpFR2	12	n/a	n/a	n/a	17	10	4	1	5
2383476	PROB	n/a	LTP374	ltpFR2	12	n/a	n/a	n/a	17	21	6	7	9
2384692	PROB	n/a	LTP374	ltpFR2	12	n/a	n/a	n/a	17	14	7	2	3
2385793	PROB	n/a	LTP374	ltpFR2	12	n/a	n/a	n/a	17	12	4	2	6
2387508	PROB	n/a	LTP374	ltpFR2	12	n/a	n/a	n/a	17	15	2	6	7
2388434	STOP	n/a	LTP374	ltpFR2	12	n/a	n/a	n/a	17	n/a	n/a	n/a	n/a
2391224	REC_START	n/a	LTP374	ltpFR2	12	12	n/a	n/a	n/a	n/a	0	0	0
2392193	REC_WORD	wordpools/wasnorm_wordpool_576.txt	LTP374	ltpFR2	12	12	WRIST	1626	n/a	n/a	0	0	0
2392819	REC_WORD	wordpools/wasnorm_wordpool_576.txt	LTP374	ltpFR2	12	12	RADISH	1158	n/a	n/a	0	0	0
2393340	REC_WORD	wordpools/wasnorm_wordpool_576.txt	LTP374	ltpFR2	12	12	LAGOON	795	n/a	n/a	0	0	0
2394019	REC_WORD	wordpools/wasnorm_wordpool_576.txt	LTP374	ltpFR2	12	12	SWAMP	1416	n/a	n/a	0	0	0
2395209	REC_WORD	wordpools/wasnorm_wordpool_576.txt	LTP374	ltpFR2	12	12	ANKLE	24	n/a	n/a	0	0	0
2396354	REC_WORD	wordpools/wasnorm_wordpool_576.txt	LTP374	ltpFR2	12	12	DRAGON	492	n/a	n/a	0	0	0
2397043	REC_WORD	wordpools/wasnorm_wordpool_576.txt	LTP374	ltpFR2	12	12	HOOD	714	n/a	n/a	0	0	0
2398132	REC_WORD	wordpools/wasnorm_wordpool_576.txt	LTP374	ltpFR2	12	12	BELLY	119	n/a	n/a	0	0	0
2401180	REC_WORD	wordpools/wasnorm_wordpool_576.txt	LTP374	ltpFR2	12	12	CAMEL	223	n/a	n/a	0	0	0
2402055	REC_WORD	wordpools/wasnorm_wordpool_576.txt	LTP374	ltpFR2	12	12	DONKEY	484	n/a	n/a	0	0	0
2402891	REC_WORD	wordpools/wasnorm_wordpool_576.txt	LTP374	ltpFR2	12	12	CONCERT	360	n/a	n/a	0	0	0
2403977	REC_WORD	wordpools/wasnorm_wordpool_576.txt	LTP374	ltpFR2	12	12	UMPIRE	1535	n/a	n/a	0	0	0
2404863	REC_WORD	wordpools/wasnorm_wordpool_576.txt	LTP374	ltpFR2	12	12	CATCHER	258	n/a	n/a	0	0	0
2405670	REC_WORD	wordpools/wasnorm_wordpool_576.txt	LTP374	ltpFR2	12	12	GUITAR	670	n/a	n/a	0	0	0
2407202	REC_WORD	wordpools/wasnorm_wordpool_576.txt	LTP374	ltpFR2	12	12	STUDENT	1395	n/a	n/a	0	0	0
2408108	REC_WORD	wordpools/wasnorm_wordpool_576.txt	LTP374	ltpFR2	12	12	PUPIL	1143	n/a	n/a	0	0	0
2481681	WORD	wordpools/wasnorm_wordpool_576.txt	LTP374	ltpFR2	12	13	JUNGLE	764	n/a	n/a	0	0	0
2484214	WORD	wordpools/wasnorm_wordpool_576.txt	LTP374	ltpFR2	12	13	MISTER	901	n/a	n/a	0	0	0
2486996	WORD	wordpools/wasnorm_wordpool_576.txt	LTP374	ltpFR2	12	13	PRINCE	1124	n/a	n/a	0	0	0
2489677	WORD	wordpools/wasnorm_wordpool_576.txt	LTP374	ltpFR2	12	13	CARRIAGE	248	n/a	n/a	0	0	0
2492459	WORD	wordpools/wasnorm_wordpool_576.txt	LTP374	ltpFR2	12	13	COCOON	339	n/a	n/a	0	0	0
2494926	WORD	wordpools/wasnorm_wordpool_576.txt	LTP374	ltpFR2	12	13	MOP	916	n/a	n/a	0	0	0
2497440	WORD	wordpools/wasnorm_wordpool_576.txt	LTP374	ltpFR2	12	13	SWIMMER	1420	n/a	n/a	0	0	0
2499890	WORD	wordpools/wasnorm_wordpool_576.txt	LTP374	ltpFR2	12	13	GYMNAST	675	n/a	n/a	0	0	0
2502554	WORD	wordpools/wasnorm_wordpool_576.txt	LTP374	ltpFR2	12	13	DENTIST	447	n/a	n/a	0	0	0
2505121	WORD	wordpools/wasnorm_wordpool_576.txt	LTP374	ltpFR2	12	13	FRIEND	606	n/a	n/a	0	0	0
2507720	WORD	wordpools/wasnorm_wordpool_576.txt	LTP374	ltpFR2	12	13	STOMACH	1384	n/a	n/a	0	0	0
2510317	WORD	wordpools/wasnorm_wordpool_576.txt	LTP374	ltpFR2	12	13	SADDLE	1221	n/a	n/a	0	0	0
2512784	WORD	wordpools/wasnorm_wordpool_576.txt	LTP374	ltpFR2	12	13	BANK	83	n/a	n/a	0	0	0
2515348	WORD	wordpools/wasnorm_wordpool_576.txt	LTP374	ltpFR2	12	13	COIN	343	n/a	n/a	0	0	0
2517848	WORD	wordpools/wasnorm_wordpool_576.txt	LTP374	ltpFR2	12	13	TUNNEL	1519	n/a	n/a	0	0	0
2520513	WORD	wordpools/wasnorm_wordpool_576.txt	LTP374	ltpFR2	12	13	HATCHET	691	n/a	n/a	0	0	0
2523013	WORD	wordpools/wasnorm_wordpool_576.txt	LTP374	ltpFR2	12	13	COUNTY	389	n/a	n/a	0	0	0
2525778	WORD	wordpools/wasnorm_wordpool_576.txt	LTP374	ltpFR2	12	13	COUNTRY	388	n/a	n/a	0	0	0
2528476	WORD	wordpools/wasnorm_wordpool_576.txt	LTP374	ltpFR2	12	13	GIFT	635	n/a	n/a	0	0	0
2531192	WORD	wordpools/wasnorm_wordpool_576.txt	LTP374	ltpFR2	12	13	FRAME	600	n/a	n/a	0	0	0
2533924	WORD	wordpools/wasnorm_wordpool_576.txt	LTP374	ltpFR2	12	13	ULCER	1533	n/a	n/a	0	0	0
2536605	WORD	wordpools/wasnorm_wordpool_576.txt	LTP374	ltpFR2	12	13	CONVICT	371	n/a	n/a	0	0	0
2539138	WORD	wordpools/wasnorm_wordpool_576.txt	LTP374	ltpFR2	12	13	CAPTIVE	240	n/a	n/a	0	0	0
2541837	WORD	wordpools/wasnorm_wordpool_576.txt	LTP374	ltpFR2	12	13	SHARK	1275	n/a	n/a	0	0	0
2543452	START	n/a	LTP374	ltpFR2	12	n/a	n/a	n/a	18	n/a	n/a	n/a	n/a
2544649	DISTRACTOR	n/a	LTP374	ltpFR2	12	13	n/a	n/a	n/a	n/a	0	0	0
2544651	PROB	n/a	LTP374	ltpFR2	12	n/a	n/a	n/a	18	16	5	3	8
2545752	PROB	n/a	LTP374	ltpFR2	12	n/a	n/a	n/a	18	8	5	2	1
2546768	PROB	n/a	LTP374	ltpFR2	12	n/a	n/a	n/a	18	17	1	9	7
2547583	PROB	n/a	LTP374	ltpFR2	12	n/a	n/a	n/a	18	10	1	5	4
2549050	PROB	n/a	LTP374	ltpFR2	12	n/a	n/a	n/a	18	25	9	8	8
2550250	PROB	n/a	LTP374	ltpFR2	12	n/a	n/a	n/a	18	18	4	6	8
2551033	PROB	n/a	LTP374	ltpFR2	12	n/a	n/a	n/a	18	8	4	1	3
2551716	PROB	n/a	LTP374	ltpFR2	12	n/a	n/a	n/a	18	20	6	5	9
2552949	PROB	n/a	LTP374	ltpFR2	12	n/a	n/a	n/a	18	9	4	1	4
2553732	PROB	n/a	LTP374	ltpFR2	12	n/a	n/a	n/a	18	8	6	1	1
2554564	PROB	n/a	LTP374	ltpFR2	12	n/a	n/a	n/a	18	12	3	4	5
2555947	PROB	n/a	LTP374	ltpFR2	12	n/a	n/a	n/a	18	20	7	7	6
2557429	PROB	n/a	LTP374	ltpFR2	12	n/a	n/a	n/a	18	20	8	8	4
2558528	PROB	n/a	LTP374	ltpFR2	12	n/a	n/a	n/a	18	9	5	3	1
2559261	PROB	n/a	LTP374	ltpFR2	12	n/a	n/a	n/a	18	17	7	4	6
2560577	PROB	n/a	LTP374	ltpFR2	12	n/a	n/a	n/a	18	17	7	4	1
2561228	PROB	n/a	LTP374	ltpFR2	12	n/a	n/a	n/a	18	20	3	1	6
2562443	PROB	n/a	LTP374	ltpFR2	12	n/a	n/a	n/a	18	10	5	1	4
2563910	PROB	n/a	LTP374	ltpFR2	12	n/a	n/a	n/a	18	15	2	4	9
2564710	PROB	n/a	LTP374	ltpFR2	12	n/a	n/a	n/a	18	21	9	5	7
2565759	PROB	n/a	LTP374	ltpFR2	12	n/a	n/a	n/a	18	11	4	4	3
2566801	STOP	n/a	LTP374	ltpFR2	12	n/a	n/a	n/a	18	n/a	n/a	n/a	n/a
2569308	REC_START	n/a	LTP374	ltpFR2	12	13	n/a	n/a	n/a	n/a	0	0	0
2570777	REC_WORD	wordpools/wasnorm_wordpool_576.txt	LTP374	ltpFR2	12	13	BANK	83	n/a	n/a	0	0	0
2571420	REC_WORD	wordpools/wasnorm_wordpool_576.txt	LTP374	ltpFR2	12	13	COIN	343	n/a	n/a	0	0	0
2572304	REC_WORD	wordpools/wasnorm_wordpool_576.txt	LTP374	ltpFR2	12	13	GIFT	635	n/a	n/a	0	0	0
2575393	REC_WORD	wordpools/wasnorm_wordpool_576.txt	LTP374	ltpFR2	12	13	DENTIST	447	n/a	n/a	0	0	0
2576131	REC_WORD	wordpools/wasnorm_wordpool_576.txt	LTP374	ltpFR2	12	13	GYMNAST	675	n/a	n/a	0	0	0
2577244	REC_WORD	wordpools/wasnorm_wordpool_576.txt	LTP374	ltpFR2	12	13	DANCER	437	n/a	n/a	0	0	0
2577848	REC_WORD	wordpools/wasnorm_wordpool_576.txt	LTP374	ltpFR2	12	13	FRIEND	606	n/a	n/a	0	0	0
2578964	REC_WORD	wordpools/wasnorm_wordpool_576.txt	LTP374	ltpFR2	12	13	MISTER	901	n/a	n/a	0	0	0
2581077	REC_WORD	wordpools/wasnorm_wordpool_576.txt	LTP374	ltpFR2	12	13	PRINCE	1124	n/a	n/a	0	0	0
2582022	REC_WORD	wordpools/wasnorm_wordpool_576.txt	LTP374	ltpFR2	12	13	CARRIAGE	248	n/a	n/a	0	0	0
2583390	REC_WORD	wordpools/wasnorm_wordpool_576.txt	LTP374	ltpFR2	12	13	COUNTY	389	n/a	n/a	0	0	0
2584149	REC_WORD	wordpools/wasnorm_wordpool_576.txt	LTP374	ltpFR2	12	13	COUNTRY	388	n/a	n/a	0	0	0
2585034	REC_WORD	wordpools/wasnorm_wordpool_576.txt	LTP374	ltpFR2	12	13	FOREST	593	n/a	n/a	0	0	0
2603904	REC_WORD	wordpools/wasnorm_wordpool_576.txt	LTP374	ltpFR2	12	13	HATCHET	691	n/a	n/a	0	0	0
2612286	REC_WORD	wordpools/wasnorm_wordpool_576.txt	LTP374	ltpFR2	12	13	FRAME	600	n/a	n/a	0	0	0
2659766	WORD	wordpools/wasnorm_wordpool_576.txt	LTP374	ltpFR2	12	14	WAITRESS	1581	n/a	n/a	0	0	0
2662430	WORD	wordpools/wasnorm_wordpool_576.txt	LTP374	ltpFR2	12	14	AUTHOR	61	n/a	n/a	0	0	0
2665097	WORD	wordpools/wasnorm_wordpool_576.txt	LTP374	ltpFR2	12	14	HEART	697	n/a	n/a	0	0	0
2667544	WORD	wordpools/wasnorm_wordpool_576.txt	LTP374	ltpFR2	12	14	PIANO	1057	n/a	n/a	0	0	0
2670094	WORD	wordpools/wasnorm_wordpool_576.txt	LTP374	ltpFR2	12	14	SUMMIT	1405	n/a	n/a	0	0	0
2672860	WORD	wordpools/wasnorm_wordpool_576.txt	LTP374	ltpFR2	12	14	LABEL	790	n/a	n/a	0	0	0
2675424	WORD	wordpools/wasnorm_wordpool_576.txt	LTP374	ltpFR2	12	14	POET	1095	n/a	n/a	0	0	0
2678141	WORD	wordpools/wasnorm_wordpool_576.txt	LTP374	ltpFR2	12	14	PADDING	999	n/a	n/a	0	0	0
2680605	WORD	wordpools/wasnorm_wordpool_576.txt	LTP374	ltpFR2	12	14	MARROW	872	n/a	n/a	0	0	0
2683371	WORD	wordpools/wasnorm_wordpool_576.txt	LTP374	ltpFR2	12	14	NURSE	963	n/a	n/a	0	0	0
2686053	WORD	wordpools/wasnorm_wordpool_576.txt	LTP374	ltpFR2	12	14	JEANS	752	n/a	n/a	0	0	0
2688651	WORD	wordpools/wasnorm_wordpool_576.txt	LTP374	ltpFR2	12	14	ORCHID	982	n/a	n/a	0	0	0
2691218	WORD	wordpools/wasnorm_wordpool_576.txt	LTP374	ltpFR2	12	14	LILY	821	n/a	n/a	0	0	0
2694017	WORD	wordpools/wasnorm_wordpool_576.txt	LTP374	ltpFR2	12	14	BLADE	134	n/a	n/a	0	0	0
2696481	WORD	wordpools/wasnorm_wordpool_576.txt	LTP374	ltpFR2	12	14	KIDNEY	776	n/a	n/a	0	0	0
2699263	WORD	wordpools/wasnorm_wordpool_576.txt	LTP374	ltpFR2	12	14	NAPKIN	937	n/a	n/a	0	0	0
2702029	WORD	wordpools/wasnorm_wordpool_576.txt	LTP374	ltpFR2	12	14	KLEENEX	782	n/a	n/a	0	0	0
2704828	WORD	wordpools/wasnorm_wordpool_576.txt	LTP374	ltpFR2	12	14	TRANSPLANT	1496	n/a	n/a	0	0	0
2707276	WORD	wordpools/wasnorm_wordpool_576.txt	LTP374	ltpFR2	12	14	SHORTCAKE	1292	n/a	n/a	0	0	0
2709893	WORD	wordpools/wasnorm_wordpool_576.txt	LTP374	ltpFR2	12	14	TAXI	1438	n/a	n/a	0	0	0
2712524	WORD	wordpools/wasnorm_wordpool_576.txt	LTP374	ltpFR2	12	14	APPLE	33	n/a	n/a	0	0	0
2715123	WORD	wordpools/wasnorm_wordpool_576.txt	LTP374	ltpFR2	12	14	BANJO	82	n/a	n/a	0	0	0
2717705	WORD	wordpools/wasnorm_wordpool_576.txt	LTP374	ltpFR2	12	14	BREAST	171	n/a	n/a	0	0	0
2720221	WORD	wordpools/wasnorm_wordpool_576.txt	LTP374	ltpFR2	12	14	PATROL	1027	n/a	n/a	0	0	0
2721837	START	n/a	LTP374	ltpFR2	12	n/a	n/a	n/a	19	n/a	n/a	n/a	n/a
2722995	DISTRACTOR	n/a	LTP374	ltpFR2	12	14	n/a	n/a	n/a	n/a	0	0	0
2723003	PROB	n/a	LTP374	ltpFR2	12	n/a	n/a	n/a	19	21	8	4	9
2724268	PROB	n/a	LTP374	ltpFR2	12	n/a	n/a	n/a	19	18	7	3	8
2725202	PROB	n/a	LTP374	ltpFR2	12	n/a	n/a	n/a	19	13	4	6	3
2726035	PROB	n/a	LTP374	ltpFR2	12	n/a	n/a	n/a	19	14	9	4	1
2727034	PROB	n/a	LTP374	ltpFR2	12	n/a	n/a	n/a	19	23	9	5	9
2728416	PROB	n/a	LTP374	ltpFR2	12	n/a	n/a	n/a	19	16	7	8	1
2729184	PROB	n/a	LTP374	ltpFR2	12	n/a	n/a	n/a	19	12	6	3	3
2730033	PROB	n/a	LTP374	ltpFR2	12	n/a	n/a	n/a	19	15	6	4	5
2730883	PROB	n/a	LTP374	ltpFR2	12	n/a	n/a	n/a	19	11	5	3	3
2731816	PROB	n/a	LTP374	ltpFR2	12	n/a	n/a	n/a	19	12	4	4	3
2732882	PROB	n/a	LTP374	ltpFR2	12	n/a	n/a	n/a	19	19	3	8	8
2734081	PROB	n/a	LTP374	ltpFR2	12	n/a	n/a	n/a	19	16	7	6	3
2736047	PROB	n/a	LTP374	ltpFR2	12	n/a	n/a	n/a	19	18	9	7	2
2737013	PROB	n/a	LTP374	ltpFR2	12	n/a	n/a	n/a	19	26	9	9	8
2737913	PROB	n/a	LTP374	ltpFR2	12	n/a	n/a	n/a	19	13	3	2	8
2738879	PROB	n/a	LTP374	ltpFR2	12	n/a	n/a	n/a	19	23	9	9	8
2740178	PROB	n/a	LTP374	ltpFR2	12	n/a	n/a	n/a	19	19	3	8	8
2741277	PROB	n/a	LTP374	ltpFR2	12	n/a	n/a	n/a	19	13	4	7	2
2742094	PROB	n/a	LTP374	ltpFR2	12	n/a	n/a	n/a	19	8	1	8	9
2742894	PROB	n/a	LTP374	ltpFR2	12	n/a	n/a	n/a	19	25	9	9	7
2743910	PROB	n/a	LTP374	ltpFR2	12	n/a	n/a	n/a	19	16	8	6	2
2745510	STOP	n/a	LTP374	ltpFR2	12	n/a	n/a	n/a	19	n/a	n/a	n/a	n/a
2747760	REC_START	n/a	LTP374	ltpFR2	12	14	n/a	n/a	n/a	n/a	0	0	0
2749409	REC_WORD_VV	wordpools/wasnorm_wordpool_576.txt	LTP374	ltpFR2	12	14	<>	-1	n/a	n/a	0	0	0
2752017	REC_WORD	wordpools/wasnorm_wordpool_576.txt	LTP374	ltpFR2	12	14	SHORTCAKE	1292	n/a	n/a	0	0	0
2753619	REC_WORD	wordpools/wasnorm_wordpool_576.txt	LTP374	ltpFR2	12	14	BANJO	82	n/a	n/a	0	0	0
2754741	REC_WORD	wordpools/wasnorm_wordpool_576.txt	LTP374	ltpFR2	12	14	APPLE	33	n/a	n/a	0	0	0
2757006	REC_WORD	wordpools/wasnorm_wordpool_576.txt	LTP374	ltpFR2	12	14	PIANO	1057	n/a	n/a	0	0	0
2757922	REC_WORD	wordpools/wasnorm_wordpool_576.txt	LTP374	ltpFR2	12	14	PADDING	999	n/a	n/a	0	0	0
2759897	REC_WORD	wordpools/wasnorm_wordpool_576.txt	LTP374	ltpFR2	12	14	ORCHID	982	n/a	n/a	0	0	0
2762945	REC_WORD	wordpools/wasnorm_wordpool_576.txt	LTP374	ltpFR2	12	14	LILY	821	n/a	n/a	0	0	0
2765453	REC_WORD	wordpools/wasnorm_wordpool_576.txt	LTP374	ltpFR2	12	14	SUMMIT	1405	n/a	n/a	0	0	0
2766551	REC_WORD	wordpools/wasnorm_wordpool_576.txt	LTP374	ltpFR2	12	14	WAITRESS	1581	n/a	n/a	0	0	0
2767347	REC_WORD	wordpools/wasnorm_wordpool_576.txt	LTP374	ltpFR2	12	14	NURSE	963	n/a	n/a	0	0	0
2768219	REC_WORD	wordpools/wasnorm_wordpool_576.txt	LTP374	ltpFR2	12	14	BLADE	134	n/a	n/a	0	0	0
2769046	REC_WORD	wordpools/wasnorm_wordpool_576.txt	LTP374	ltpFR2	12	14	TISSUE	-1	n/a	n/a	0	0	0
2769832	REC_WORD	wordpools/wasnorm_wordpool_576.txt	LTP374	ltpFR2	12	14	KLEENEX	782	n/a	n/a	0	0	0
2772049	REC_WORD	wordpools/wasnorm_wordpool_576.txt	LTP374	ltpFR2	12	14	TRANSPLANT	1496	n/a	n/a	0	0	0
2773077	REC_WORD	wordpools/wasnorm_wordpool_576.txt	LTP374	ltpFR2	12	14	KIDNEY	776	n/a	n/a	0	0	0
2773666	REC_WORD	wordpools/wasnorm_wordpool_576.txt	LTP374	ltpFR2	12	14	HEART	697	n/a	n/a	0	0	0
2774547	REC_WORD	wordpools/wasnorm_wordpool_576.txt	LTP374	ltpFR2	12	14	MARROW	872	n/a	n/a	0	0	0
2777076	REC_WORD	wordpools/wasnorm_wordpool_576.txt	LTP374	ltpFR2	12	14	POET	1095	n/a	n/a	0	0	0
2777782	REC_WORD	wordpools/wasnorm_wordpool_576.txt	LTP374	ltpFR2	12	14	AUTHOR	61	n/a	n/a	0	0	0
2789186	REC_WORD	wordpools/wasnorm_wordpool_576.txt	LTP374	ltpFR2	12	14	PADDING	999	n/a	n/a	0	0	0
2789906	REC_WORD	wordpools/wasnorm_wordpool_576.txt	LTP374	ltpFR2	12	14	PIANO	1057	n/a	n/a	0	0	0
2838216	WORD	wordpools/wasnorm_wordpool_576.txt	LTP374	ltpFR2	12	15	GROUND	666	n/a	n/a	0	0	0
2840782	WORD	wordpools/wasnorm_wordpool_576.txt	LTP374	ltpFR2	12	15	SIBLING	1301	n/a	n/a	0	0	0
2843296	WORD	wordpools/wasnorm_wordpool_576.txt	LTP374	ltpFR2	12	15	TABLE	1426	n/a	n/a	0	0	0
2845746	WORD	wordpools/wasnorm_wordpool_576.txt	LTP374	ltpFR2	12	15	COUCH	386	n/a	n/a	0	0	0
2848245	WORD	wordpools/wasnorm_wordpool_576.txt	LTP374	ltpFR2	12	15	PIGMENT	1066	n/a	n/a	0	0	0
2851027	WORD	wordpools/wasnorm_wordpool_576.txt	LTP374	ltpFR2	12	15	DONOR	485	n/a	n/a	0	0	0
2853475	WORD	wordpools/wasnorm_wordpool_576.txt	LTP374	ltpFR2	12	15	CHEMIST	292	n/a	n/a	0	0	0
2856274	WORD	wordpools/wasnorm_wordpool_576.txt	LTP374	ltpFR2	12	15	LADY	794	n/a	n/a	0	0	0
2858957	WORD	wordpools/wasnorm_wordpool_576.txt	LTP374	ltpFR2	12	15	LONDON	843	n/a	n/a	0	0	0
2861521	WORD	wordpools/wasnorm_wordpool_576.txt	LTP374	ltpFR2	12	15	PILOT	1070	n/a	n/a	0	0	0
2864071	WORD	wordpools/wasnorm_wordpool_576.txt	LTP374	ltpFR2	12	15	DRUG	501	n/a	n/a	0	0	0
2866669	WORD	wordpools/wasnorm_wordpool_576.txt	LTP374	ltpFR2	12	15	GLOVE	642	n/a	n/a	0	0	0
2869334	WORD	wordpools/wasnorm_wordpool_576.txt	LTP374	ltpFR2	12	15	GANGSTER	620	n/a	n/a	0	0	0
2871917	WORD	wordpools/wasnorm_wordpool_576.txt	LTP374	ltpFR2	12	15	FLEET	578	n/a	n/a	0	0	0
2874682	WORD	wordpools/wasnorm_wordpool_576.txt	LTP374	ltpFR2	12	15	SWITCH	1422	n/a	n/a	0	0	0
2877215	WORD	wordpools/wasnorm_wordpool_576.txt	LTP374	ltpFR2	12	15	RELISH	1183	n/a	n/a	0	0	0
2879913	WORD	wordpools/wasnorm_wordpool_576.txt	LTP374	ltpFR2	12	15	DRESSER	496	n/a	n/a	0	0	0
2882545	WORD	wordpools/wasnorm_wordpool_576.txt	LTP374	ltpFR2	12	15	EGYPT	519	n/a	n/a	0	0	0
2885128	WORD	wordpools/wasnorm_wordpool_576.txt	LTP374	ltpFR2	12	15	SHELF	1280	n/a	n/a	0	0	0
2887760	WORD	wordpools/wasnorm_wordpool_576.txt	LTP374	ltpFR2	12	15	JOURNAL	760	n/a	n/a	0	0	0
2890408	WORD	wordpools/wasnorm_wordpool_576.txt	LTP374	ltpFR2	12	15	AIRPLANE	12	n/a	n/a	0	0	0
2893024	WORD	wordpools/wasnorm_wordpool_576.txt	LTP374	ltpFR2	12	15	FLESH	579	n/a	n/a	0	0	0
2895522	WORD	wordpools/wasnorm_wordpool_576.txt	LTP374	ltpFR2	12	15	BUREAU	199	n/a	n/a	0	0	0
2898105	WORD	wordpools/wasnorm_wordpool_576.txt	LTP374	ltpFR2	12	15	GHETTO	633	n/a	n/a	0	0	0
2899721	START	n/a	LTP374	ltpFR2	12	n/a	n/a	n/a	20	n/a	n/a	n/a	n/a
2900762	DISTRACTOR	n/a	LTP374	ltpFR2	12	15	n/a	n/a	n/a	n/a	0	0	0
2900770	PROB	n/a	LTP374	ltpFR2	12	n/a	n/a	n/a	20	13	3	8	2
2901619	PROB	n/a	LTP374	ltpFR2	12	n/a	n/a	n/a	20	9	4	4	1
2902335	PROB	n/a	LTP374	ltpFR2	12	n/a	n/a	n/a	20	12	9	1	2
2903119	PROB	n/a	LTP374	ltpFR2	12	n/a	n/a	n/a	20	14	6	1	7
2903936	PROB	n/a	LTP374	ltpFR2	12	n/a	n/a	n/a	20	20	7	7	6
2904902	PROB	n/a	LTP374	ltpFR2	12	n/a	n/a	n/a	20	17	8	5	4
2905785	PROB	n/a	LTP374	ltpFR2	12	n/a	n/a	n/a	20	21	8	3	9
2906901	PROB	n/a	LTP374	ltpFR2	12	n/a	n/a	n/a	20	18	6	9	2
2908150	PROB	n/a	LTP374	ltpFR2	12	n/a	n/a	n/a	20	8	2	1	4
2909083	PROB	n/a	LTP374	ltpFR2	12	n/a	n/a	n/a	20	13	3	7	3
2909900	PROB	n/a	LTP374	ltpFR2	12	n/a	n/a	n/a	20	6	2	1	3
2910682	PROB	n/a	LTP374	ltpFR2	12	n/a	n/a	n/a	20	19	7	9	3
2911865	PROB	n/a	LTP374	ltpFR2	12	n/a	n/a	n/a	20	17	5	9	3
2912848	PROB	n/a	LTP374	ltpFR2	12	n/a	n/a	n/a	20	16	1	7	6
2913764	PROB	n/a	LTP374	ltpFR2	12	n/a	n/a	n/a	20	20	8	7	5
2915014	PROB	n/a	LTP374	ltpFR2	12	n/a	n/a	n/a	20	13	2	9	3
2915847	PROB	n/a	LTP374	ltpFR2	12	n/a	n/a	n/a	20	15	7	7	1
2916813	PROB	n/a	LTP374	ltpFR2	12	n/a	n/a	n/a	20	7	1	2	4
2917628	PROB	n/a	LTP374	ltpFR2	12	n/a	n/a	n/a	20	9	1	1	7
2918411	PROB	n/a	LTP374	ltpFR2	12	n/a	n/a	n/a	20	19	5	7	7
2919278	PROB	n/a	LTP374	ltpFR2	12	n/a	n/a	n/a	20	4	2	1	1
2920012	PROB	n/a	LTP374	ltpFR2	12	n/a	n/a	n/a	20	15	1	6	8
2920811	PROB	n/a	LTP374	ltpFR2	12	n/a	n/a	n/a	20	13	5	6	2
2921977	PROB	n/a	LTP374	ltpFR2	12	n/a	n/a	n/a	20	13	2	5	6
2922845	STOP	n/a	LTP374	ltpFR2	12	n/a	n/a	n/a	20	n/a	n/a	n/a	n/a
2925659	REC_START	n/a	LTP374	ltpFR2	12	15	n/a	n/a	n/a	n/a	0	0	0
2927739	REC_WORD	wordpools/wasnorm_wordpool_576.txt	LTP374	ltpFR2	12	15	GANGSTER	620	n/a	n/a	0	0	0
2931600	REC_WORD	wordpools/wasnorm_wordpool_576.txt	LTP374	ltpFR2	12	15	DRESSER	496	n/a	n/a	0	0	0
2932444	REC_WORD	wordpools/wasnorm_wordpool_576.txt	LTP374	ltpFR2	12	15	SHELF	1280	n/a	n/a	0	0	0
2934563	REC_WORD	wordpools/wasnorm_wordpool_576.txt	LTP374	ltpFR2	12	15	SIBLING	1301	n/a	n/a	0	0	0
2935563	REC_WORD_VV	wordpools/wasnorm_wordpool_576.txt	LTP374	ltpFR2	12	15	<>	-1	n/a	n/a	0	0	0
2939784	REC_WORD	wordpools/wasnorm_wordpool_576.txt	LTP374	ltpFR2	12	15	WOMAN	1620	n/a	n/a	0	0	0
2941017	REC_WORD	wordpools/wasnorm_wordpool_576.txt	LTP374	ltpFR2	12	15	GROUND	666	n/a	n/a	0	0	0
2941861	REC_WORD	wordpools/wasnorm_wordpool_576.txt	LTP374	ltpFR2	12	15	TABLE	1426	n/a	n/a	0	0	0
2942915	REC_WORD	wordpools/wasnorm_wordpool_576.txt	LTP374	ltpFR2	12	15	COUCH	386	n/a	n/a	0	0	0
2943901	REC_WORD	wordpools/wasnorm_wordpool_576.txt	LTP374	ltpFR2	12	15	SWITCH	1422	n/a	n/a	0	0	0
2945436	REC_WORD	wordpools/wasnorm_wordpool_576.txt	LTP374	ltpFR2	12	15	DONOR	485	n/a	n/a	0	0	0
2946732	REC_WORD	wordpools/wasnorm_wordpool_576.txt	LTP374	ltpFR2	12	15	GLOVE	642	n/a	n/a	0	0	0
2950196	REC_WORD	wordpools/wasnorm_wordpool_576.txt	LTP374	ltpFR2	12	15	CHEMIST	292	n/a	n/a	0	0	0
2955357	REC_WORD	wordpools/wasnorm_wordpool_576.txt	LTP374	ltpFR2	12	15	PILOT	1070	n/a	n/a	0	0	0
2955996	REC_WORD	wordpools/wasnorm_wordpool_576.txt	LTP374	ltpFR2	12	15	AIRPLANE	12	n/a	n/a	0	0	0
2957144	REC_WORD	wordpools/wasnorm_wordpool_576.txt	LTP374	ltpFR2	12	15	EGYPT	519	n/a	n/a	0	0	0
2957601	REC_WORD	wordpools/wasnorm_wordpool_576.txt	LTP374	ltpFR2	12	15	LONDON	843	n/a	n/a	0	0	0
2990975	REC_WORD	wordpools/wasnorm_wordpool_576.txt	LTP374	ltpFR2	12	15	JOURNAL	760	n/a	n/a	0	0	0
3016100	DISTRACTOR	n/a	LTP374	ltpFR2	12	16	n/a	n/a	n/a	n/a	0	0	0
3016100	START	n/a	LTP374	ltpFR2	12	n/a	n/a	n/a	21	n/a	n/a	n/a	n/a
3016117	PROB	n/a	LTP374	ltpFR2	12	n/a	n/a	n/a	21	13	3	2	8
3016850	PROB	n/a	LTP374	ltpFR2	12	n/a	n/a	n/a	21	1	1	9	2
3017599	PROB	n/a	LTP374	ltpFR2	12	n/a	n/a	n/a	21	18	8	7	2
3019232	PROB	n/a	LTP374	ltpFR2	12	n/a	n/a	n/a	21	16	8	8	1
3019982	PROB	n/a	LTP374	ltpFR2	12	n/a	n/a	n/a	21	18	8	4	6
3021697	PROB	n/a	LTP374	ltpFR2	12	n/a	n/a	n/a	21	5	3	1	1
3022430	PROB	n/a	LTP374	ltpFR2	12	n/a	n/a	n/a	21	17	8	8	1
3023329	PROB	n/a	LTP374	ltpFR2	12	n/a	n/a	n/a	21	16	6	2	8
3024113	PROB	n/a	LTP374	ltpFR2	12	n/a	n/a	n/a	21	12	6	1	6
3024979	PROB	n/a	LTP374	ltpFR2	12	n/a	n/a	n/a	21	11	2	6	3
3026478	PROB	n/a	LTP374	ltpFR2	12	n/a	n/a	n/a	21	18	3	8	7
3027728	PROB	n/a	LTP374	ltpFR2	12	n/a	n/a	n/a	21	18	8	6	4
3028828	PROB	n/a	LTP374	ltpFR2	12	n/a	n/a	n/a	21	11	6	1	4
3029794	PROB	n/a	LTP374	ltpFR2	12	n/a	n/a	n/a	21	14	9	1	4
3030777	PROB	n/a	LTP374	ltpFR2	12	n/a	n/a	n/a	21	5	2	1	2
3031575	PROB	n/a	LTP374	ltpFR2	12	n/a	n/a	n/a	21	11	3	2	6
3032525	PROB	n/a	LTP374	ltpFR2	12	n/a	n/a	n/a	21	11	1	3	6
3033391	PROB	n/a	LTP374	ltpFR2	12	n/a	n/a	n/a	21	18	8	9	1
3034457	PROB	n/a	LTP374	ltpFR2	12	n/a	n/a	n/a	21	16	8	4	4
3035307	PROB	n/a	LTP374	ltpFR2	12	n/a	n/a	n/a	21	17	2	8	7
3036158	PROB	n/a	LTP374	ltpFR2	12	n/a	n/a	n/a	21	12	3	1	7
3036991	PROB	n/a	LTP374	ltpFR2	12	n/a	n/a	n/a	21	21	6	7	8
3038040	PROB	n/a	LTP374	ltpFR2	12	n/a	n/a	n/a	21	15	2	7	6
3038920	STOP	n/a	LTP374	ltpFR2	12	n/a	n/a	n/a	21	n/a	n/a	n/a	n/a
3040939	WORD	wordpools/wasnorm_wordpool_576.txt	LTP374	ltpFR2	12	16	RIVER	1194	n/a	n/a	0	0	0
3043737	WORD	wordpools/wasnorm_wordpool_576.txt	LTP374	ltpFR2	12	16	GALLON	618	n/a	n/a	0	0	0
3046252	WORD	wordpools/wasnorm_wordpool_576.txt	LTP374	ltpFR2	12	16	SCALPEL	1243	n/a	n/a	0	0	0
3048768	WORD	wordpools/wasnorm_wordpool_576.txt	LTP374	ltpFR2	12	16	SPOON	1357	n/a	n/a	0	0	0
3051333	WORD	wordpools/wasnorm_wordpool_576.txt	LTP374	ltpFR2	12	16	RECORD	1176	n/a	n/a	0	0	0
3053916	WORD	wordpools/wasnorm_wordpool_576.txt	LTP374	ltpFR2	12	16	VICTIM	1562	n/a	n/a	0	0	0
3056364	WORD	wordpools/wasnorm_wordpool_576.txt	LTP374	ltpFR2	12	16	KITCHEN	778	n/a	n/a	0	0	0
3059064	WORD	wordpools/wasnorm_wordpool_576.txt	LTP374	ltpFR2	12	16	HANDBAG	684	n/a	n/a	0	0	0
3061779	WORD	wordpools/wasnorm_wordpool_576.txt	LTP374	ltpFR2	12	16	VENUS	1557	n/a	n/a	0	0	0
3064510	WORD	wordpools/wasnorm_wordpool_576.txt	LTP374	ltpFR2	12	16	COOK	372	n/a	n/a	0	0	0
3067325	WORD	wordpools/wasnorm_wordpool_576.txt	LTP374	ltpFR2	12	16	WIDOW	1608	n/a	n/a	0	0	0
3070125	WORD	wordpools/wasnorm_wordpool_576.txt	LTP374	ltpFR2	12	16	HIGHWAY	707	n/a	n/a	0	0	0
3072741	WORD	wordpools/wasnorm_wordpool_576.txt	LTP374	ltpFR2	12	16	BLENDER	136	n/a	n/a	0	0	0
3075388	WORD	wordpools/wasnorm_wordpool_576.txt	LTP374	ltpFR2	12	16	LION	827	n/a	n/a	0	0	0
3077938	WORD	wordpools/wasnorm_wordpool_576.txt	LTP374	ltpFR2	12	16	BACKBONE	66	n/a	n/a	0	0	0
3080720	WORD	wordpools/wasnorm_wordpool_576.txt	LTP374	ltpFR2	12	16	SKILLET	1317	n/a	n/a	0	0	0
3083351	WORD	wordpools/wasnorm_wordpool_576.txt	LTP374	ltpFR2	12	16	BANKER	84	n/a	n/a	0	0	0
3085885	WORD	wordpools/wasnorm_wordpool_576.txt	LTP374	ltpFR2	12	16	BOYFRIEND	162	n/a	n/a	0	0	0
3088682	WORD	wordpools/wasnorm_wordpool_576.txt	LTP374	ltpFR2	12	16	LOVER	846	n/a	n/a	0	0	0
3091448	WORD	wordpools/wasnorm_wordpool_576.txt	LTP374	ltpFR2	12	16	NOTEBOOK	959	n/a	n/a	0	0	0
3094247	WORD	wordpools/wasnorm_wordpool_576.txt	LTP374	ltpFR2	12	16	SPHINX	1349	n/a	n/a	0	0	0
3096779	WORD	wordpools/wasnorm_wordpool_576.txt	LTP374	ltpFR2	12	16	TUBA	1515	n/a	n/a	0	0	0
3099560	WORD	wordpools/wasnorm_wordpool_576.txt	LTP374	ltpFR2	12	16	STOVE	1388	n/a	n/a	0	0	0
3102244	WORD	wordpools/wasnorm_wordpool_576.txt	LTP374	ltpFR2	12	16	CLAM	315	n/a	n/a	0	0	0
3103860	START	n/a	LTP374	ltpFR2	12	n/a	n/a	n/a	22	n/a	n/a	n/a	n/a
3104763	DISTRACTOR	n/a	LTP374	ltpFR2	12	16	n/a	n/a	n/a	n/a	0	0	0
3104776	PROB	n/a	LTP374	ltpFR2	12	n/a	n/a	n/a	22	23	2	9	2
3105624	PROB	n/a	LTP374	ltpFR2	12	n/a	n/a	n/a	22	2	6	6	4
3106591	PROB	n/a	LTP374	ltpFR2	12	n/a	n/a	n/a	22	28	1	7	9
3107457	PROB	n/a	LTP374	ltpFR2	12	n/a	n/a	n/a	22	24	9	9	6
3109224	PROB	n/a	LTP374	ltpFR2	12	n/a	n/a	n/a	22	16	8	1	7
3110405	PROB	n/a	LTP374	ltpFR2	12	n/a	n/a	n/a	22	7	4	1	2
3111223	PROB	n/a	LTP374	ltpFR2	12	n/a	n/a	n/a	22	14	6	4	4
3112588	PROB	n/a	LTP374	ltpFR2	12	n/a	n/a	n/a	22	17	7	5	5
3113471	PROB	n/a	LTP374	ltpFR2	12	n/a	n/a	n/a	22	18	8	4	6
3114537	PROB	n/a	LTP374	ltpFR2	12	n/a	n/a	n/a	22	5	1	2	2
3115204	PROB	n/a	LTP374	ltpFR2	12	n/a	n/a	n/a	22	21	8	9	5
3116686	PROB	n/a	LTP374	ltpFR2	12	n/a	n/a	n/a	22	18	3	8	7
3118268	PROB	n/a	LTP374	ltpFR2	12	n/a	n/a	n/a	22	13	3	8	2
3119418	PROB	n/a	LTP374	ltpFR2	12	n/a	n/a	n/a	22	18	6	3	9
3120268	PROB	n/a	LTP374	ltpFR2	12	n/a	n/a	n/a	22	8	1	6	1
3121035	PROB	n/a	LTP374	ltpFR2	12	n/a	n/a	n/a	22	12	5	2	5
3121901	PROB	n/a	LTP374	ltpFR2	12	n/a	n/a	n/a	22	11	2	2	7
3122851	PROB	n/a	LTP374	ltpFR2	12	n/a	n/a	n/a	22	8	3	3	2
3123717	PROB	n/a	LTP374	ltpFR2	12	n/a	n/a	n/a	22	13	7	3	3
3124499	PROB	n/a	LTP374	ltpFR2	12	n/a	n/a	n/a	22	1	2	6	4
3125749	PROB	n/a	LTP374	ltpFR2	12	n/a	n/a	n/a	22	16	6	4	6
3127075	STOP	n/a	LTP374	ltpFR2	12	n/a	n/a	n/a	22	n/a	n/a	n/a	n/a
3129697	REC_START	n/a	LTP374	ltpFR2	12	16	n/a	n/a	n/a	n/a	0	0	0
3134736	REC_WORD	wordpools/wasnorm_wordpool_576.txt	LTP374	ltpFR2	12	16	BOYFRIEND	162	n/a	n/a	0	0	0
3135545	REC_WORD	wordpools/wasnorm_wordpool_576.txt	LTP374	ltpFR2	12	16	LOVER	846	n/a	n/a	0	0	0
3136430	REC_WORD	wordpools/wasnorm_wordpool_576.txt	LTP374	ltpFR2	12	16	SPHINX	1349	n/a	n/a	0	0	0
3137967	REC_WORD	wordpools/wasnorm_wordpool_576.txt	LTP374	ltpFR2	12	16	NOTEBOOK	959	n/a	n/a	0	0	0
3145924	REC_WORD	wordpools/wasnorm_wordpool_576.txt	LTP374	ltpFR2	12	16	LION	827	n/a	n/a	0	0	0
3146962	REC_WORD	wordpools/wasnorm_wordpool_576.txt	LTP374	ltpFR2	12	16	BANKER	84	n/a	n/a	0	0	0
3148622	REC_WORD	wordpools/wasnorm_wordpool_576.txt	LTP374	ltpFR2	12	16	RIVER	1194	n/a	n/a	0	0	0
3149399	REC_WORD	wordpools/wasnorm_wordpool_576.txt	LTP374	ltpFR2	12	16	RECORD	1176	n/a	n/a	0	0	0
3150227	REC_WORD	wordpools/wasnorm_wordpool_576.txt	LTP374	ltpFR2	12	16	SPOON	1357	n/a	n/a	0	0	0
3151863	REC_WORD	wordpools/wasnorm_wordpool_576.txt	LTP374	ltpFR2	12	16	GALLON	618	n/a	n/a	0	0	0
3154505	REC_WORD	wordpools/wasnorm_wordpool_576.txt	LTP374	ltpFR2	12	16	WIDOW	1608	n/a	n/a	0	0	0
3155286	REC_WORD	wordpools/wasnorm_wordpool_576.txt	LTP374	ltpFR2	12	16	VICTIM	1562	n/a	n/a	0	0	0
3157194	REC_WORD	wordpools/wasnorm_wordpool_576.txt	LTP374	ltpFR2	12	16	COOK	372	n/a	n/a	0	0	0
3158254	REC_WORD	wordpools/wasnorm_wordpool_576.txt	LTP374	ltpFR2	12	16	KITCHEN	778	n/a	n/a	0	0	0
3160598	REC_WORD	wordpools/wasnorm_wordpool_576.txt	LTP374	ltpFR2	12	16	STOVE	1388	n/a	n/a	0	0	0
3162802	REC_WORD	wordpools/wasnorm_wordpool_576.txt	LTP374	ltpFR2	12	16	SKILLET	1317	n/a	n/a	0	0	0
3163937	REC_WORD	wordpools/wasnorm_wordpool_576.txt	LTP374	ltpFR2	12	16	BLENDER	136	n/a	n/a	0	0	0
3171124	REC_WORD_VV	wordpools/wasnorm_wordpool_576.txt	LTP374	ltpFR2	12	16	<>	-1	n/a	n/a	0	0	0
3206245	REST_REWET	n/a	LTP374	ltpFR2	12	16	n/a	n/a	n/a	n/a	0	0	0
3382279	WORD	wordpools/wasnorm_wordpool_576.txt	LTP374	ltpFR2	12	17	PEACH	1031	n/a	n/a	0	0	0
3384962	WORD	wordpools/wasnorm_wordpool_576.txt	LTP374	ltpFR2	12	17	RECEIPT	1173	n/a	n/a	0	0	0
3387660	WORD	wordpools/wasnorm_wordpool_576.txt	LTP374	ltpFR2	12	17	SUSPECT	1415	n/a	n/a	0	0	0
3390093	WORD	wordpools/wasnorm_wordpool_576.txt	LTP374	ltpFR2	12	17	WHISTLE	1606	n/a	n/a	0	0	0
3392658	WORD	wordpools/wasnorm_wordpool_576.txt	LTP374	ltpFR2	12	17	HAWK	692	n/a	n/a	0	0	0
3395141	WORD	wordpools/wasnorm_wordpool_576.txt	LTP374	ltpFR2	12	17	COCKTAIL	338	n/a	n/a	0	0	0
3397840	WORD	wordpools/wasnorm_wordpool_576.txt	LTP374	ltpFR2	12	17	FRUIT	610	n/a	n/a	0	0	0
3400354	WORD	wordpools/wasnorm_wordpool_576.txt	LTP374	ltpFR2	12	17	CITRUS	313	n/a	n/a	0	0	0
3402904	WORD	wordpools/wasnorm_wordpool_576.txt	LTP374	ltpFR2	12	17	FLOWER	584	n/a	n/a	0	0	0
3405402	WORD	wordpools/wasnorm_wordpool_576.txt	LTP374	ltpFR2	12	17	ROBBER	1197	n/a	n/a	0	0	0
3408185	WORD	wordpools/wasnorm_wordpool_576.txt	LTP374	ltpFR2	12	17	GIRL	637	n/a	n/a	0	0	0
3410649	WORD	wordpools/wasnorm_wordpool_576.txt	LTP374	ltpFR2	12	17	SHOULDER	1294	n/a	n/a	0	0	0
3413199	WORD	wordpools/wasnorm_wordpool_576.txt	LTP374	ltpFR2	12	17	DIME	466	n/a	n/a	0	0	0
3415680	WORD	wordpools/wasnorm_wordpool_576.txt	LTP374	ltpFR2	12	17	CONTRACT	368	n/a	n/a	0	0	0
3418197	WORD	wordpools/wasnorm_wordpool_576.txt	LTP374	ltpFR2	12	17	BIKE	125	n/a	n/a	0	0	0
3420896	WORD	wordpools/wasnorm_wordpool_576.txt	LTP374	ltpFR2	12	17	TROUT	1511	n/a	n/a	0	0	0
3423593	WORD	wordpools/wasnorm_wordpool_576.txt	LTP374	ltpFR2	12	17	MARS	873	n/a	n/a	0	0	0
3426110	WORD	wordpools/wasnorm_wordpool_576.txt	LTP374	ltpFR2	12	17	BACON	67	n/a	n/a	0	0	0
3428809	WORD	wordpools/wasnorm_wordpool_576.txt	LTP374	ltpFR2	12	17	CANAL	226	n/a	n/a	0	0	0
3431573	WORD	wordpools/wasnorm_wordpool_576.txt	LTP374	ltpFR2	12	17	ISLAND	745	n/a	n/a	0	0	0
3434056	WORD	wordpools/wasnorm_wordpool_576.txt	LTP374	ltpFR2	12	17	TRIBE	1505	n/a	n/a	0	0	0
3436838	WORD	wordpools/wasnorm_wordpool_576.txt	LTP374	ltpFR2	12	17	DRESS	495	n/a	n/a	0	0	0
3439569	WORD	wordpools/wasnorm_wordpool_576.txt	LTP374	ltpFR2	12	17	MONEY	908	n/a	n/a	0	0	0
3442186	WORD	wordpools/wasnorm_wordpool_576.txt	LTP374	ltpFR2	12	17	DOLPHIN	483	n/a	n/a	0	0	0
3443802	START	n/a	LTP374	ltpFR2	12	n/a	n/a	n/a	23	n/a	n/a	n/a	n/a
3444789	DISTRACTOR	n/a	LTP374	ltpFR2	12	17	n/a	n/a	n/a	n/a	0	0	0
3444801	PROB	n/a	LTP374	ltpFR2	12	n/a	n/a	n/a	23	17	2	6	9
3445884	PROB	n/a	LTP374	ltpFR2	12	n/a	n/a	n/a	23	7	1	5	1
3446616	PROB	n/a	LTP374	ltpFR2	12	n/a	n/a	n/a	23	18	8	6	4
3447532	PROB	n/a	LTP374	ltpFR2	12	n/a	n/a	n/a	23	19	3	7	9
3448332	PROB	n/a	LTP374	ltpFR2	12	n/a	n/a	n/a	23	20	7	4	9
3449465	PROB	n/a	LTP374	ltpFR2	12	n/a	n/a	n/a	23	18	8	7	2
3450948	PROB	n/a	LTP374	ltpFR2	12	n/a	n/a	n/a	23	13	2	3	8
3451915	PROB	n/a	LTP374	ltpFR2	12	n/a	n/a	n/a	23	16	5	9	2
3453396	PROB	n/a	LTP374	ltpFR2	12	n/a	n/a	n/a	23	15	9	3	3
3454230	PROB	n/a	LTP374	ltpFR2	12	n/a	n/a	n/a	23	16	8	6	2
3455180	PROB	n/a	LTP374	ltpFR2	12	n/a	n/a	n/a	23	10	5	1	4
3456113	PROB	n/a	LTP374	ltpFR2	12	n/a	n/a	n/a	23	12	4	7	1
3456962	PROB	n/a	LTP374	ltpFR2	12	n/a	n/a	n/a	23	13	7	1	5
3458045	PROB	n/a	LTP374	ltpFR2	12	n/a	n/a	n/a	23	12	4	7	1
3458911	PROB	n/a	LTP374	ltpFR2	12	n/a	n/a	n/a	23	17	9	5	4
3459844	PROB	n/a	LTP374	ltpFR2	12	n/a	n/a	n/a	23	17	9	4	4
3460710	PROB	n/a	LTP374	ltpFR2	12	n/a	n/a	n/a	23	11	4	6	1
3461592	PROB	n/a	LTP374	ltpFR2	12	n/a	n/a	n/a	23	14	4	9	1
3462776	PROB	n/a	LTP374	ltpFR2	12	n/a	n/a	n/a	23	21	8	6	9
3464009	PROB	n/a	LTP374	ltpFR2	12	n/a	n/a	n/a	23	9	3	3	3
3464759	PROB	n/a	LTP374	ltpFR2	12	n/a	n/a	n/a	23	9	2	5	1
3465590	PROB	n/a	LTP374	ltpFR2	12	n/a	n/a	n/a	23	16	8	4	4
3466830	STOP	n/a	LTP374	ltpFR2	12	n/a	n/a	n/a	23	n/a	n/a	n/a	n/a
3469574	REC_START	n/a	LTP374	ltpFR2	12	17	n/a	n/a	n/a	n/a	0	0	0
3470681	REC_WORD	wordpools/wasnorm_wordpool_576.txt	LTP374	ltpFR2	12	17	CANAL	226	n/a	n/a	0	0	0
3471506	REC_WORD	wordpools/wasnorm_wordpool_576.txt	LTP374	ltpFR2	12	17	MARS	873	n/a	n/a	0	0	0
3472427	REC_WORD	wordpools/wasnorm_wordpool_576.txt	LTP374	ltpFR2	12	17	ISLAND	745	n/a	n/a	0	0	0
3473164	REC_WORD	wordpools/wasnorm_wordpool_576.txt	LTP374	ltpFR2	12	17	TRIBE	1505	n/a	n/a	0	0	0
3474715	REC_WORD	wordpools/wasnorm_wordpool_576.txt	LTP374	ltpFR2	12	17	DOLPHIN	483	n/a	n/a	0	0	0
3476960	REC_WORD	wordpools/wasnorm_wordpool_576.txt	LTP374	ltpFR2	12	17	MONEY	908	n/a	n/a	0	0	0
3477640	REC_WORD	wordpools/wasnorm_wordpool_576.txt	LTP374	ltpFR2	12	17	RECEIPT	1173	n/a	n/a	0	0	0
3478674	REC_WORD	wordpools/wasnorm_wordpool_576.txt	LTP374	ltpFR2	12	17	DIME	466	n/a	n/a	0	0	0
3483002	REC_WORD	wordpools/wasnorm_wordpool_576.txt	LTP374	ltpFR2	12	17	BACON	67	n/a	n/a	0	0	0
3487588	REC_WORD	wordpools/wasnorm_wordpool_576.txt	LTP374	ltpFR2	12	17	WHISTLE	1606	n/a	n/a	0	0	0
3488616	REC_WORD	wordpools/wasnorm_wordpool_576.txt	LTP374	ltpFR2	12	17	RECEIPT	1173	n/a	n/a	0	0	0
3490531	REC_WORD	wordpools/wasnorm_wordpool_576.txt	LTP374	ltpFR2	12	17	PEACH	1031	n/a	n/a	0	0	0
3491537	REC_WORD	wordpools/wasnorm_wordpool_576.txt	LTP374	ltpFR2	12	17	APPLE	33	n/a	n/a	0	0	0
3492200	REC_WORD	wordpools/wasnorm_wordpool_576.txt	LTP374	ltpFR2	12	17	CITRUS	313	n/a	n/a	0	0	0
3493359	REC_WORD	wordpools/wasnorm_wordpool_576.txt	LTP374	ltpFR2	12	17	COCKTAIL	338	n/a	n/a	0	0	0
3494551	REC_WORD	wordpools/wasnorm_wordpool_576.txt	LTP374	ltpFR2	12	17	GIRL	637	n/a	n/a	0	0	0
