mstime	trial_type	stim_file	subject	experiment	session	trial	item_name	item_num	list	answer	test_x	test_y	test_z
0	SESS_START	n/a	LTP207	ltpFR2	14	n/a	n/a	n/a	n/a	n/a	0	0	0
22922	START	n/a	LTP207	ltpFR2	14	n/a	n/a	n/a	-1	n/a	n/a	n/a	n/a
22975	PROB	n/a	LTP207	ltpFR2	14	n/a	n/a	n/a	-1	20	4	8	8
24644	PROB	n/a	LTP207	ltpFR2	14	n/a	n/a	n/a	-1	13	2	9	2
26049	PROB	n/a	LTP207	ltpFR2	14	n/a	n/a	n/a	-1	10	6	2	2
27309	PROB	n/a	LTP207	ltpFR2	14	n/a	n/a	n/a	-1	22	8	6	8
28932	PROB	n/a	LTP207	ltpFR2	14	n/a	n/a	n/a	-1	14	8	3	3
30421	PROB	n/a	LTP207	ltpFR2	14	n/a	n/a	n/a	-1	18	5	9	4
32004	PROB	n/a	LTP207	ltpFR2	14	n/a	n/a	n/a	-1	18	3	6	9
33282	PROB	n/a	LTP207	ltpFR2	14	n/a	n/a	n/a	-1	19	6	5	8
34659	STOP	n/a	LTP207	ltpFR2	14	n/a	n/a	n/a	-1	n/a	n/a	n/a	n/a
148983	DISTRACTOR	n/a	LTP207	ltpFR2	14	1	n/a	n/a	n/a	n/a	0	0	0
148984	START	n/a	LTP207	ltpFR2	14	n/a	n/a	n/a	1	n/a	n/a	n/a	n/a
149035	PROB	n/a	LTP207	ltpFR2	14	n/a	n/a	n/a	1	20	7	4	9
151037	PROB	n/a	LTP207	ltpFR2	14	n/a	n/a	n/a	1	17	2	8	7
152610	PROB	n/a	LTP207	ltpFR2	14	n/a	n/a	n/a	1	17	5	4	8
153786	PROB	n/a	LTP207	ltpFR2	14	n/a	n/a	n/a	1	15	5	5	5
154706	PROB	n/a	LTP207	ltpFR2	14	n/a	n/a	n/a	1	18	6	4	8
155777	PROB	n/a	LTP207	ltpFR2	14	n/a	n/a	n/a	1	16	6	5	5
157014	PROB	n/a	LTP207	ltpFR2	14	n/a	n/a	n/a	1	13	6	5	2
159407	PROB	n/a	LTP207	ltpFR2	14	n/a	n/a	n/a	1	14	5	8	1
160673	PROB	n/a	LTP207	ltpFR2	14	n/a	n/a	n/a	1	25	9	8	8
162017	PROB	n/a	LTP207	ltpFR2	14	n/a	n/a	n/a	1	15	8	4	3
163183	PROB	n/a	LTP207	ltpFR2	14	n/a	n/a	n/a	1	20	8	3	9
165291	PROB	n/a	LTP207	ltpFR2	14	n/a	n/a	n/a	1	11	3	7	1
166328	PROB	n/a	LTP207	ltpFR2	14	n/a	n/a	n/a	1	16	5	8	3
168336	PROB	n/a	LTP207	ltpFR2	14	n/a	n/a	n/a	1	17	4	7	6
170382	PROB	n/a	LTP207	ltpFR2	14	n/a	n/a	n/a	1	20	9	6	5
171555	STOP	n/a	LTP207	ltpFR2	14	n/a	n/a	n/a	1	n/a	n/a	n/a	n/a
173878	WORD	wordpools/wasnorm_wordpool_576.txt	LTP207	ltpFR2	14	1	CHAMPAGNE	278	n/a	n/a	0	0	0
176617	WORD	wordpools/wasnorm_wordpool_576.txt	LTP207	ltpFR2	14	1	BODY	145	n/a	n/a	0	0	0
179248	WORD	wordpools/wasnorm_wordpool_576.txt	LTP207	ltpFR2	14	1	SWIMMER	1420	n/a	n/a	0	0	0
181724	WORD	wordpools/wasnorm_wordpool_576.txt	LTP207	ltpFR2	14	1	PUDDLE	1140	n/a	n/a	0	0	0
184212	WORD	wordpools/wasnorm_wordpool_576.txt	LTP207	ltpFR2	14	1	PARTNER	1017	n/a	n/a	0	0	0
186993	WORD	wordpools/wasnorm_wordpool_576.txt	LTP207	ltpFR2	14	1	COFFEE	341	n/a	n/a	0	0	0
189465	WORD	wordpools/wasnorm_wordpool_576.txt	LTP207	ltpFR2	14	1	HAMPER	682	n/a	n/a	0	0	0
191908	WORD	wordpools/wasnorm_wordpool_576.txt	LTP207	ltpFR2	14	1	FEMALE	559	n/a	n/a	0	0	0
194690	WORD	wordpools/wasnorm_wordpool_576.txt	LTP207	ltpFR2	14	1	GRAPE	654	n/a	n/a	0	0	0
197501	WORD	wordpools/wasnorm_wordpool_576.txt	LTP207	ltpFR2	14	1	HARP	689	n/a	n/a	0	0	0
200244	WORD	wordpools/wasnorm_wordpool_576.txt	LTP207	ltpFR2	14	1	BUBBLE	183	n/a	n/a	0	0	0
202982	WORD	wordpools/wasnorm_wordpool_576.txt	LTP207	ltpFR2	14	1	GROUND	666	n/a	n/a	0	0	0
205715	WORD	wordpools/wasnorm_wordpool_576.txt	LTP207	ltpFR2	14	1	SCOTCH	1251	n/a	n/a	0	0	0
208224	WORD	wordpools/wasnorm_wordpool_576.txt	LTP207	ltpFR2	14	1	LOFT	840	n/a	n/a	0	0	0
210662	WORD	wordpools/wasnorm_wordpool_576.txt	LTP207	ltpFR2	14	1	MATTRESS	879	n/a	n/a	0	0	0
213243	WORD	wordpools/wasnorm_wordpool_576.txt	LTP207	ltpFR2	14	1	FLASHLIGHT	575	n/a	n/a	0	0	0
215986	WORD	wordpools/wasnorm_wordpool_576.txt	LTP207	ltpFR2	14	1	COCKTAIL	338	n/a	n/a	0	0	0
218463	WORD	wordpools/wasnorm_wordpool_576.txt	LTP207	ltpFR2	14	1	FLASK	576	n/a	n/a	0	0	0
221135	WORD	wordpools/wasnorm_wordpool_576.txt	LTP207	ltpFR2	14	1	SHOULDER	1294	n/a	n/a	0	0	0
223895	WORD	wordpools/wasnorm_wordpool_576.txt	LTP207	ltpFR2	14	1	SCISSORS	1250	n/a	n/a	0	0	0
226694	WORD	wordpools/wasnorm_wordpool_576.txt	LTP207	ltpFR2	14	1	CEILING	265	n/a	n/a	0	0	0
229215	WORD	wordpools/wasnorm_wordpool_576.txt	LTP207	ltpFR2	14	1	HUMAN	726	n/a	n/a	0	0	0
231942	WORD	wordpools/wasnorm_wordpool_576.txt	LTP207	ltpFR2	14	1	BOARD	143	n/a	n/a	0	0	0
234490	WORD	wordpools/wasnorm_wordpool_576.txt	LTP207	ltpFR2	14	1	LUMBER	848	n/a	n/a	0	0	0
236097	START	n/a	LTP207	ltpFR2	14	n/a	n/a	n/a	2	n/a	n/a	n/a	n/a
237271	DISTRACTOR	n/a	LTP207	ltpFR2	14	1	n/a	n/a	n/a	n/a	0	0	0
237284	PROB	n/a	LTP207	ltpFR2	14	n/a	n/a	n/a	2	13	6	1	6
238500	PROB	n/a	LTP207	ltpFR2	14	n/a	n/a	n/a	2	16	7	8	1
239877	PROB	n/a	LTP207	ltpFR2	14	n/a	n/a	n/a	2	18	3	9	6
241249	PROB	n/a	LTP207	ltpFR2	14	n/a	n/a	n/a	2	18	3	9	6
242805	PROB	n/a	LTP207	ltpFR2	14	n/a	n/a	n/a	2	8	3	4	1
244289	PROB	n/a	LTP207	ltpFR2	14	n/a	n/a	n/a	2	18	9	8	1
245599	PROB	n/a	LTP207	ltpFR2	14	n/a	n/a	n/a	2	12	5	5	2
246564	PROB	n/a	LTP207	ltpFR2	14	n/a	n/a	n/a	2	18	3	6	9
248158	PROB	n/a	LTP207	ltpFR2	14	n/a	n/a	n/a	2	26	9	9	8
249726	PROB	n/a	LTP207	ltpFR2	14	n/a	n/a	n/a	2	19	9	1	9
251566	PROB	n/a	LTP207	ltpFR2	14	n/a	n/a	n/a	2	7	5	1	1
252742	PROB	n/a	LTP207	ltpFR2	14	n/a	n/a	n/a	2	18	7	8	3
254164	PROB	n/a	LTP207	ltpFR2	14	n/a	n/a	n/a	2	7	1	1	5
255230	PROB	n/a	LTP207	ltpFR2	14	n/a	n/a	n/a	2	7	1	5	1
256250	PROB	n/a	LTP207	ltpFR2	14	n/a	n/a	n/a	2	15	3	7	5
257326	PROB	n/a	LTP207	ltpFR2	14	n/a	n/a	n/a	2	18	6	9	3
258859	STOP	n/a	LTP207	ltpFR2	14	n/a	n/a	n/a	2	n/a	n/a	n/a	n/a
262040	REC_START	n/a	LTP207	ltpFR2	14	1	n/a	n/a	n/a	n/a	0	0	0
263020	REC_WORD	wordpools/wasnorm_wordpool_576.txt	LTP207	ltpFR2	14	1	CHAMPAGNE	278	n/a	n/a	0	0	0
264020	REC_WORD_VV	wordpools/wasnorm_wordpool_576.txt	LTP207	ltpFR2	14	1	<>	-1	n/a	n/a	0	0	0
265069	REC_WORD	wordpools/wasnorm_wordpool_576.txt	LTP207	ltpFR2	14	1	PUDDLE	1140	n/a	n/a	0	0	0
266473	REC_WORD	wordpools/wasnorm_wordpool_576.txt	LTP207	ltpFR2	14	1	SWIMMER	1420	n/a	n/a	0	0	0
268308	REC_WORD	wordpools/wasnorm_wordpool_576.txt	LTP207	ltpFR2	14	1	BODY	145	n/a	n/a	0	0	0
270223	REC_WORD	wordpools/wasnorm_wordpool_576.txt	LTP207	ltpFR2	14	1	COCKTAIL	338	n/a	n/a	0	0	0
275635	REC_WORD	wordpools/wasnorm_wordpool_576.txt	LTP207	ltpFR2	14	1	LUMBER	848	n/a	n/a	0	0	0
277935	REC_WORD	wordpools/wasnorm_wordpool_576.txt	LTP207	ltpFR2	14	1	SCISSORS	1250	n/a	n/a	0	0	0
279339	REC_WORD	wordpools/wasnorm_wordpool_576.txt	LTP207	ltpFR2	14	1	CEILING	265	n/a	n/a	0	0	0
353199	WORD	wordpools/wasnorm_wordpool_576.txt	LTP207	ltpFR2	14	2	CHIPMUNK	304	n/a	n/a	0	0	0
355959	WORD	wordpools/wasnorm_wordpool_576.txt	LTP207	ltpFR2	14	2	PARENT	1013	n/a	n/a	0	0	0
358435	WORD	wordpools/wasnorm_wordpool_576.txt	LTP207	ltpFR2	14	2	DIVER	476	n/a	n/a	0	0	0
361184	WORD	wordpools/wasnorm_wordpool_576.txt	LTP207	ltpFR2	14	2	APPLE	33	n/a	n/a	0	0	0
363844	WORD	wordpools/wasnorm_wordpool_576.txt	LTP207	ltpFR2	14	2	KIDNEY	776	n/a	n/a	0	0	0
366365	WORD	wordpools/wasnorm_wordpool_576.txt	LTP207	ltpFR2	14	2	DONOR	485	n/a	n/a	0	0	0
368830	WORD	wordpools/wasnorm_wordpool_576.txt	LTP207	ltpFR2	14	2	GIFT	635	n/a	n/a	0	0	0
371573	WORD	wordpools/wasnorm_wordpool_576.txt	LTP207	ltpFR2	14	2	ICING	732	n/a	n/a	0	0	0
374083	WORD	wordpools/wasnorm_wordpool_576.txt	LTP207	ltpFR2	14	2	GLOVE	642	n/a	n/a	0	0	0
376621	WORD	wordpools/wasnorm_wordpool_576.txt	LTP207	ltpFR2	14	2	ROBOT	1200	n/a	n/a	0	0	0
379319	WORD	wordpools/wasnorm_wordpool_576.txt	LTP207	ltpFR2	14	2	MACHINE	852	n/a	n/a	0	0	0
381978	WORD	wordpools/wasnorm_wordpool_576.txt	LTP207	ltpFR2	14	2	BRICK	172	n/a	n/a	0	0	0
384556	WORD	wordpools/wasnorm_wordpool_576.txt	LTP207	ltpFR2	14	2	CHAPEL	280	n/a	n/a	0	0	0
387383	WORD	wordpools/wasnorm_wordpool_576.txt	LTP207	ltpFR2	14	2	ROCKET	1202	n/a	n/a	0	0	0
390008	WORD	wordpools/wasnorm_wordpool_576.txt	LTP207	ltpFR2	14	2	WARDROBE	1587	n/a	n/a	0	0	0
392514	WORD	wordpools/wasnorm_wordpool_576.txt	LTP207	ltpFR2	14	2	APRON	35	n/a	n/a	0	0	0
395079	WORD	wordpools/wasnorm_wordpool_576.txt	LTP207	ltpFR2	14	2	BOX	159	n/a	n/a	0	0	0
397906	WORD	wordpools/wasnorm_wordpool_576.txt	LTP207	ltpFR2	14	2	PARROT	1015	n/a	n/a	0	0	0
400516	WORD	wordpools/wasnorm_wordpool_576.txt	LTP207	ltpFR2	14	2	MARROW	872	n/a	n/a	0	0	0
403025	WORD	wordpools/wasnorm_wordpool_576.txt	LTP207	ltpFR2	14	2	MILDEW	893	n/a	n/a	0	0	0
405485	WORD	wordpools/wasnorm_wordpool_576.txt	LTP207	ltpFR2	14	2	COUNTY	389	n/a	n/a	0	0	0
408161	WORD	wordpools/wasnorm_wordpool_576.txt	LTP207	ltpFR2	14	2	BADGE	68	n/a	n/a	0	0	0
410833	WORD	wordpools/wasnorm_wordpool_576.txt	LTP207	ltpFR2	14	2	UNCLE	1536	n/a	n/a	0	0	0
413548	WORD	wordpools/wasnorm_wordpool_576.txt	LTP207	ltpFR2	14	2	PASTRY	1022	n/a	n/a	0	0	0
415155	START	n/a	LTP207	ltpFR2	14	n/a	n/a	n/a	3	n/a	n/a	n/a	n/a
416078	DISTRACTOR	n/a	LTP207	ltpFR2	14	2	n/a	n/a	n/a	n/a	0	0	0
416091	PROB	n/a	LTP207	ltpFR2	14	n/a	n/a	n/a	3	18	5	4	9
417575	PROB	n/a	LTP207	ltpFR2	14	n/a	n/a	n/a	3	11	4	6	1
418668	PROB	n/a	LTP207	ltpFR2	14	n/a	n/a	n/a	3	14	1	8	5
421004	PROB	n/a	LTP207	ltpFR2	14	n/a	n/a	n/a	3	18	8	4	6
422142	PROB	n/a	LTP207	ltpFR2	14	n/a	n/a	n/a	3	15	1	9	5
423469	PROB	n/a	LTP207	ltpFR2	14	n/a	n/a	n/a	3	11	2	3	6
424886	PROB	n/a	LTP207	ltpFR2	14	n/a	n/a	n/a	3	13	3	8	2
427702	PROB	n/a	LTP207	ltpFR2	14	n/a	n/a	n/a	3	22	8	6	8
429219	PROB	n/a	LTP207	ltpFR2	14	n/a	n/a	n/a	3	13	8	2	3
430541	PROB	n/a	LTP207	ltpFR2	14	n/a	n/a	n/a	3	16	2	6	8
432147	PROB	n/a	LTP207	ltpFR2	14	n/a	n/a	n/a	3	21	8	6	7
433574	PROB	n/a	LTP207	ltpFR2	14	n/a	n/a	n/a	3	18	5	9	4
434845	PROB	n/a	LTP207	ltpFR2	14	n/a	n/a	n/a	3	13	7	3	2
439155	STOP	n/a	LTP207	ltpFR2	14	n/a	n/a	n/a	3	n/a	n/a	n/a	n/a
441031	REC_START	n/a	LTP207	ltpFR2	14	2	n/a	n/a	n/a	n/a	0	0	0
443582	REC_WORD	wordpools/wasnorm_wordpool_576.txt	LTP207	ltpFR2	14	2	CHIPMUNK	304	n/a	n/a	0	0	0
445193	REC_WORD_VV	wordpools/wasnorm_wordpool_576.txt	LTP207	ltpFR2	14	2	<>	-1	n/a	n/a	0	0	0
446446	REC_WORD	wordpools/wasnorm_wordpool_576.txt	LTP207	ltpFR2	14	2	PARENT	1013	n/a	n/a	0	0	0
448214	REC_WORD	wordpools/wasnorm_wordpool_576.txt	LTP207	ltpFR2	14	2	DIVER	476	n/a	n/a	0	0	0
449588	REC_WORD	wordpools/wasnorm_wordpool_576.txt	LTP207	ltpFR2	14	2	APPLE	33	n/a	n/a	0	0	0
452475	REC_WORD	wordpools/wasnorm_wordpool_576.txt	LTP207	ltpFR2	14	2	KIDNEY	776	n/a	n/a	0	0	0
454676	REC_WORD	wordpools/wasnorm_wordpool_576.txt	LTP207	ltpFR2	14	2	DONOR	485	n/a	n/a	0	0	0
456565	REC_WORD	wordpools/wasnorm_wordpool_576.txt	LTP207	ltpFR2	14	2	GIFT	635	n/a	n/a	0	0	0
471952	REC_WORD_VV	wordpools/wasnorm_wordpool_576.txt	LTP207	ltpFR2	14	2	<>	-1	n/a	n/a	0	0	0
487916	REC_WORD	wordpools/wasnorm_wordpool_576.txt	LTP207	ltpFR2	14	2	ROCKET	1202	n/a	n/a	0	0	0
532112	WORD	wordpools/wasnorm_wordpool_576.txt	LTP207	ltpFR2	14	3	ARM	38	n/a	n/a	0	0	0
534671	WORD	wordpools/wasnorm_wordpool_576.txt	LTP207	ltpFR2	14	3	PANTHER	1009	n/a	n/a	0	0	0
537109	WORD	wordpools/wasnorm_wordpool_576.txt	LTP207	ltpFR2	14	3	OUTFIT	988	n/a	n/a	0	0	0
539819	WORD	wordpools/wasnorm_wordpool_576.txt	LTP207	ltpFR2	14	3	BINDER	127	n/a	n/a	0	0	0
542345	WORD	wordpools/wasnorm_wordpool_576.txt	LTP207	ltpFR2	14	3	FLESH	579	n/a	n/a	0	0	0
544893	WORD	wordpools/wasnorm_wordpool_576.txt	LTP207	ltpFR2	14	3	NOVEL	960	n/a	n/a	0	0	0
547336	WORD	wordpools/wasnorm_wordpool_576.txt	LTP207	ltpFR2	14	3	PIGEON	1065	n/a	n/a	0	0	0
549812	WORD	wordpools/wasnorm_wordpool_576.txt	LTP207	ltpFR2	14	3	YOLK	1633	n/a	n/a	0	0	0
552489	WORD	wordpools/wasnorm_wordpool_576.txt	LTP207	ltpFR2	14	3	INMATE	738	n/a	n/a	0	0	0
555165	WORD	wordpools/wasnorm_wordpool_576.txt	LTP207	ltpFR2	14	3	OUTLAW	989	n/a	n/a	0	0	0
557892	WORD	wordpools/wasnorm_wordpool_576.txt	LTP207	ltpFR2	14	3	STOMACH	1384	n/a	n/a	0	0	0
560318	WORD	wordpools/wasnorm_wordpool_576.txt	LTP207	ltpFR2	14	3	ORANGE	980	n/a	n/a	0	0	0
562961	WORD	wordpools/wasnorm_wordpool_576.txt	LTP207	ltpFR2	14	3	OZONE	996	n/a	n/a	0	0	0
565521	WORD	wordpools/wasnorm_wordpool_576.txt	LTP207	ltpFR2	14	3	MARKER	870	n/a	n/a	0	0	0
568265	WORD	wordpools/wasnorm_wordpool_576.txt	LTP207	ltpFR2	14	3	SKIRT	1319	n/a	n/a	0	0	0
570690	WORD	wordpools/wasnorm_wordpool_576.txt	LTP207	ltpFR2	14	3	SKILLET	1317	n/a	n/a	0	0	0
573128	WORD	wordpools/wasnorm_wordpool_576.txt	LTP207	ltpFR2	14	3	PIGMENT	1066	n/a	n/a	0	0	0
575643	WORD	wordpools/wasnorm_wordpool_576.txt	LTP207	ltpFR2	14	3	CABBAGE	210	n/a	n/a	0	0	0
578135	WORD	wordpools/wasnorm_wordpool_576.txt	LTP207	ltpFR2	14	3	RADISH	1158	n/a	n/a	0	0	0
580611	WORD	wordpools/wasnorm_wordpool_576.txt	LTP207	ltpFR2	14	3	ROBBER	1197	n/a	n/a	0	0	0
583372	WORD	wordpools/wasnorm_wordpool_576.txt	LTP207	ltpFR2	14	3	BARREL	91	n/a	n/a	0	0	0
585909	WORD	wordpools/wasnorm_wordpool_576.txt	LTP207	ltpFR2	14	3	BATHTUB	100	n/a	n/a	0	0	0
588625	WORD	wordpools/wasnorm_wordpool_576.txt	LTP207	ltpFR2	14	3	KITCHEN	778	n/a	n/a	0	0	0
591368	WORD	wordpools/wasnorm_wordpool_576.txt	LTP207	ltpFR2	14	3	SPONGE	1355	n/a	n/a	0	0	0
592974	START	n/a	LTP207	ltpFR2	14	n/a	n/a	n/a	4	n/a	n/a	n/a	n/a
593809	DISTRACTOR	n/a	LTP207	ltpFR2	14	3	n/a	n/a	n/a	n/a	0	0	0
593823	PROB	n/a	LTP207	ltpFR2	14	n/a	n/a	n/a	4	12	7	4	1
595266	PROB	n/a	LTP207	ltpFR2	14	n/a	n/a	n/a	4	19	4	8	7
597425	PROB	n/a	LTP207	ltpFR2	14	n/a	n/a	n/a	4	10	1	5	4
600068	PROB	n/a	LTP207	ltpFR2	14	n/a	n/a	n/a	4	7	1	1	5
601222	PROB	n/a	LTP207	ltpFR2	14	n/a	n/a	n/a	4	16	9	6	1
602656	PROB	n/a	LTP207	ltpFR2	14	n/a	n/a	n/a	4	24	7	9	8
604914	PROB	n/a	LTP207	ltpFR2	14	n/a	n/a	n/a	4	14	3	7	4
606219	PROB	n/a	LTP207	ltpFR2	14	n/a	n/a	n/a	4	9	4	3	2
608026	PROB	n/a	LTP207	ltpFR2	14	n/a	n/a	n/a	4	16	5	7	4
610787	PROB	n/a	LTP207	ltpFR2	14	n/a	n/a	n/a	4	15	6	6	3
611990	PROB	n/a	LTP207	ltpFR2	14	n/a	n/a	n/a	4	19	5	7	7
613519	PROB	n/a	LTP207	ltpFR2	14	n/a	n/a	n/a	4	7	2	2	3
615136	PROB	n/a	LTP207	ltpFR2	14	n/a	n/a	n/a	4	16	5	5	6
616211	STOP	n/a	LTP207	ltpFR2	14	n/a	n/a	n/a	4	n/a	n/a	n/a	n/a
618789	REC_START	n/a	LTP207	ltpFR2	14	3	n/a	n/a	n/a	n/a	0	0	0
621904	REC_WORD	wordpools/wasnorm_wordpool_576.txt	LTP207	ltpFR2	14	3	PIGEON	1065	n/a	n/a	0	0	0
623577	REC_WORD	wordpools/wasnorm_wordpool_576.txt	LTP207	ltpFR2	14	3	INMATE	738	n/a	n/a	0	0	0
641610	REC_WORD	wordpools/wasnorm_wordpool_576.txt	LTP207	ltpFR2	14	3	ARM	38	n/a	n/a	0	0	0
643148	REC_WORD	wordpools/wasnorm_wordpool_576.txt	LTP207	ltpFR2	14	3	PANTHER	1009	n/a	n/a	0	0	0
646068	REC_WORD	wordpools/wasnorm_wordpool_576.txt	LTP207	ltpFR2	14	3	NOVEL	960	n/a	n/a	0	0	0
647160	REC_WORD	wordpools/wasnorm_wordpool_576.txt	LTP207	ltpFR2	14	3	FLESH	579	n/a	n/a	0	0	0
648160	REC_WORD_VV	wordpools/wasnorm_wordpool_576.txt	LTP207	ltpFR2	14	3	<>	-1	n/a	n/a	0	0	0
649161	REC_WORD	wordpools/wasnorm_wordpool_576.txt	LTP207	ltpFR2	14	3	OUTFIT	988	n/a	n/a	0	0	0
656456	REC_WORD	wordpools/wasnorm_wordpool_576.txt	LTP207	ltpFR2	14	3	BINDER	127	n/a	n/a	0	0	0
709865	DISTRACTOR	n/a	LTP207	ltpFR2	14	4	n/a	n/a	n/a	n/a	0	0	0
709865	START	n/a	LTP207	ltpFR2	14	n/a	n/a	n/a	5	n/a	n/a	n/a	n/a
709915	PROB	n/a	LTP207	ltpFR2	14	n/a	n/a	n/a	5	17	7	3	7
711466	PROB	n/a	LTP207	ltpFR2	14	n/a	n/a	n/a	5	24	7	9	8
713340	PROB	n/a	LTP207	ltpFR2	14	n/a	n/a	n/a	5	19	6	9	4
715080	PROB	n/a	LTP207	ltpFR2	14	n/a	n/a	n/a	5	23	7	9	7
716624	PROB	n/a	LTP207	ltpFR2	14	n/a	n/a	n/a	5	15	2	8	5
718146	PROB	n/a	LTP207	ltpFR2	14	n/a	n/a	n/a	5	11	1	6	4
719396	PROB	n/a	LTP207	ltpFR2	14	n/a	n/a	n/a	5	8	1	5	2
721107	PROB	n/a	LTP207	ltpFR2	14	n/a	n/a	n/a	5	10	2	6	2
722708	PROB	n/a	LTP207	ltpFR2	14	n/a	n/a	n/a	5	18	8	2	8
724554	PROB	n/a	LTP207	ltpFR2	14	n/a	n/a	n/a	5	13	1	7	5
725887	PROB	n/a	LTP207	ltpFR2	14	n/a	n/a	n/a	5	9	5	1	3
727376	PROB	n/a	LTP207	ltpFR2	14	n/a	n/a	n/a	5	13	2	8	3
728636	PROB	n/a	LTP207	ltpFR2	14	n/a	n/a	n/a	5	13	5	7	1
730259	PROB	n/a	LTP207	ltpFR2	14	n/a	n/a	n/a	5	12	6	3	3
731563	PROB	n/a	LTP207	ltpFR2	14	n/a	n/a	n/a	5	16	9	6	1
732994	STOP	n/a	LTP207	ltpFR2	14	n/a	n/a	n/a	5	n/a	n/a	n/a	n/a
735004	WORD	wordpools/wasnorm_wordpool_576.txt	LTP207	ltpFR2	14	4	CLAMP	316	n/a	n/a	0	0	0
737686	WORD	wordpools/wasnorm_wordpool_576.txt	LTP207	ltpFR2	14	4	COD	340	n/a	n/a	0	0	0
740296	WORD	wordpools/wasnorm_wordpool_576.txt	LTP207	ltpFR2	14	4	SIBLING	1301	n/a	n/a	0	0	0
742756	WORD	wordpools/wasnorm_wordpool_576.txt	LTP207	ltpFR2	14	4	SISTER	1312	n/a	n/a	0	0	0
745232	WORD	wordpools/wasnorm_wordpool_576.txt	LTP207	ltpFR2	14	4	DRINK	498	n/a	n/a	0	0	0
747724	WORD	wordpools/wasnorm_wordpool_576.txt	LTP207	ltpFR2	14	4	QUARTER	1148	n/a	n/a	0	0	0
750150	WORD	wordpools/wasnorm_wordpool_576.txt	LTP207	ltpFR2	14	4	PACKAGE	997	n/a	n/a	0	0	0
752839	WORD	wordpools/wasnorm_wordpool_576.txt	LTP207	ltpFR2	14	4	CLOUD	328	n/a	n/a	0	0	0
755320	WORD	wordpools/wasnorm_wordpool_576.txt	LTP207	ltpFR2	14	4	JUGGLER	763	n/a	n/a	0	0	0
758075	WORD	wordpools/wasnorm_wordpool_576.txt	LTP207	ltpFR2	14	4	COSTUME	383	n/a	n/a	0	0	0
760539	WORD	wordpools/wasnorm_wordpool_576.txt	LTP207	ltpFR2	14	4	SPARROW	1347	n/a	n/a	0	0	0
762965	WORD	wordpools/wasnorm_wordpool_576.txt	LTP207	ltpFR2	14	4	SMOG	1330	n/a	n/a	0	0	0
765709	WORD	wordpools/wasnorm_wordpool_576.txt	LTP207	ltpFR2	14	4	SHERIFF	1284	n/a	n/a	0	0	0
768297	WORD	wordpools/wasnorm_wordpool_576.txt	LTP207	ltpFR2	14	4	SHORTS	1293	n/a	n/a	0	0	0
770744	WORD	wordpools/wasnorm_wordpool_576.txt	LTP207	ltpFR2	14	4	PICTURE	1061	n/a	n/a	0	0	0
773433	WORD	wordpools/wasnorm_wordpool_576.txt	LTP207	ltpFR2	14	4	TOMBSTONE	1478	n/a	n/a	0	0	0
776098	WORD	wordpools/wasnorm_wordpool_576.txt	LTP207	ltpFR2	14	4	POISON	1096	n/a	n/a	0	0	0
778658	WORD	wordpools/wasnorm_wordpool_576.txt	LTP207	ltpFR2	14	4	FOREHEAD	592	n/a	n/a	0	0	0
781162	WORD	wordpools/wasnorm_wordpool_576.txt	LTP207	ltpFR2	14	4	LIGHTNING	820	n/a	n/a	0	0	0
783660	WORD	wordpools/wasnorm_wordpool_576.txt	LTP207	ltpFR2	14	4	HATCHET	691	n/a	n/a	0	0	0
786420	WORD	wordpools/wasnorm_wordpool_576.txt	LTP207	ltpFR2	14	4	EYELASH	546	n/a	n/a	0	0	0
789007	WORD	wordpools/wasnorm_wordpool_576.txt	LTP207	ltpFR2	14	4	PRINCESS	1125	n/a	n/a	0	0	0
791590	WORD	wordpools/wasnorm_wordpool_576.txt	LTP207	ltpFR2	14	4	BRANDY	169	n/a	n/a	0	0	0
794200	WORD	wordpools/wasnorm_wordpool_576.txt	LTP207	ltpFR2	14	4	SCARECROW	1245	n/a	n/a	0	0	0
795818	START	n/a	LTP207	ltpFR2	14	n/a	n/a	n/a	6	n/a	n/a	n/a	n/a
796786	DISTRACTOR	n/a	LTP207	ltpFR2	14	4	n/a	n/a	n/a	n/a	0	0	0
796804	PROB	n/a	LTP207	ltpFR2	14	n/a	n/a	n/a	6	9	1	2	6
798360	PROB	n/a	LTP207	ltpFR2	14	n/a	n/a	n/a	6	16	3	8	5
799749	PROB	n/a	LTP207	ltpFR2	14	n/a	n/a	n/a	6	24	6	9	9
801310	PROB	n/a	LTP207	ltpFR2	14	n/a	n/a	n/a	6	18	7	2	9
802526	PROB	n/a	LTP207	ltpFR2	14	n/a	n/a	n/a	6	7	1	4	2
804115	PROB	n/a	LTP207	ltpFR2	14	n/a	n/a	n/a	6	13	2	4	7
805375	PROB	n/a	LTP207	ltpFR2	14	n/a	n/a	n/a	6	11	2	8	1
806541	PROB	n/a	LTP207	ltpFR2	14	n/a	n/a	n/a	6	23	5	9	9
808197	PROB	n/a	LTP207	ltpFR2	14	n/a	n/a	n/a	6	9	1	1	7
809256	PROB	n/a	LTP207	ltpFR2	14	n/a	n/a	n/a	6	18	2	7	9
810556	PROB	n/a	LTP207	ltpFR2	14	n/a	n/a	n/a	6	14	8	1	5
812028	PROB	n/a	LTP207	ltpFR2	14	n/a	n/a	n/a	6	17	6	5	6
813623	PROB	n/a	LTP207	ltpFR2	14	n/a	n/a	n/a	6	15	9	2	4
815056	PROB	n/a	LTP207	ltpFR2	14	n/a	n/a	n/a	6	12	1	8	3
816194	PROB	n/a	LTP207	ltpFR2	14	n/a	n/a	n/a	6	14	4	7	3
817621	PROB	n/a	LTP207	ltpFR2	14	n/a	n/a	n/a	6	18	9	7	2
818819	STOP	n/a	LTP207	ltpFR2	14	n/a	n/a	n/a	6	n/a	n/a	n/a	n/a
821682	REC_START	n/a	LTP207	ltpFR2	14	4	n/a	n/a	n/a	n/a	0	0	0
825298	REC_WORD	wordpools/wasnorm_wordpool_576.txt	LTP207	ltpFR2	14	4	SHERIFF	1284	n/a	n/a	0	0	0
836231	REC_WORD	wordpools/wasnorm_wordpool_576.txt	LTP207	ltpFR2	14	4	CLAMP	316	n/a	n/a	0	0	0
912780	WORD	wordpools/wasnorm_wordpool_576.txt	LTP207	ltpFR2	14	5	SHIRT	1287	n/a	n/a	0	0	0
915473	WORD	wordpools/wasnorm_wordpool_576.txt	LTP207	ltpFR2	14	5	WOMAN	1620	n/a	n/a	0	0	0
918083	WORD	wordpools/wasnorm_wordpool_576.txt	LTP207	ltpFR2	14	5	TEMPLE	1448	n/a	n/a	0	0	0
920537	WORD	wordpools/wasnorm_wordpool_576.txt	LTP207	ltpFR2	14	5	FIDDLE	561	n/a	n/a	0	0	0
922984	WORD	wordpools/wasnorm_wordpool_576.txt	LTP207	ltpFR2	14	5	PORK	1108	n/a	n/a	0	0	0
925695	WORD	wordpools/wasnorm_wordpool_576.txt	LTP207	ltpFR2	14	5	SADDLE	1221	n/a	n/a	0	0	0
928221	WORD	wordpools/wasnorm_wordpool_576.txt	LTP207	ltpFR2	14	5	STAMP	1370	n/a	n/a	0	0	0
930714	WORD	wordpools/wasnorm_wordpool_576.txt	LTP207	ltpFR2	14	5	LADY	794	n/a	n/a	0	0	0
933508	WORD	wordpools/wasnorm_wordpool_576.txt	LTP207	ltpFR2	14	5	CUSTARD	429	n/a	n/a	0	0	0
936113	WORD	wordpools/wasnorm_wordpool_576.txt	LTP207	ltpFR2	14	5	SKETCH	1315	n/a	n/a	0	0	0
938711	WORD	wordpools/wasnorm_wordpool_576.txt	LTP207	ltpFR2	14	5	SCRIBBLE	1256	n/a	n/a	0	0	0
941237	WORD	wordpools/wasnorm_wordpool_576.txt	LTP207	ltpFR2	14	5	COMPASS	358	n/a	n/a	0	0	0
943996	WORD	wordpools/wasnorm_wordpool_576.txt	LTP207	ltpFR2	14	5	WAITRESS	1581	n/a	n/a	0	0	0
946440	WORD	wordpools/wasnorm_wordpool_576.txt	LTP207	ltpFR2	14	5	GOBLIN	645	n/a	n/a	0	0	0
949200	WORD	wordpools/wasnorm_wordpool_576.txt	LTP207	ltpFR2	14	5	MUMMY	932	n/a	n/a	0	0	0
951655	WORD	wordpools/wasnorm_wordpool_576.txt	LTP207	ltpFR2	14	5	SPHINX	1349	n/a	n/a	0	0	0
954231	WORD	wordpools/wasnorm_wordpool_576.txt	LTP207	ltpFR2	14	5	SPOUSE	1358	n/a	n/a	0	0	0
956958	WORD	wordpools/wasnorm_wordpool_576.txt	LTP207	ltpFR2	14	5	REBEL	1172	n/a	n/a	0	0	0
959518	WORD	wordpools/wasnorm_wordpool_576.txt	LTP207	ltpFR2	14	5	MILK	895	n/a	n/a	0	0	0
962317	WORD	wordpools/wasnorm_wordpool_576.txt	LTP207	ltpFR2	14	5	PASTA	1021	n/a	n/a	0	0	0
964992	WORD	wordpools/wasnorm_wordpool_576.txt	LTP207	ltpFR2	14	5	MESSAGE	888	n/a	n/a	0	0	0
967431	WORD	wordpools/wasnorm_wordpool_576.txt	LTP207	ltpFR2	14	5	SILK	1307	n/a	n/a	0	0	0
970079	WORD	wordpools/wasnorm_wordpool_576.txt	LTP207	ltpFR2	14	5	DRESS	495	n/a	n/a	0	0	0
972767	WORD	wordpools/wasnorm_wordpool_576.txt	LTP207	ltpFR2	14	5	STUDENT	1395	n/a	n/a	0	0	0
974379	START	n/a	LTP207	ltpFR2	14	n/a	n/a	n/a	7	n/a	n/a	n/a	n/a
975260	DISTRACTOR	n/a	LTP207	ltpFR2	14	5	n/a	n/a	n/a	n/a	0	0	0
975277	PROB	n/a	LTP207	ltpFR2	14	n/a	n/a	n/a	7	15	2	5	8
976916	PROB	n/a	LTP207	ltpFR2	14	n/a	n/a	n/a	7	19	9	4	6
978456	PROB	n/a	LTP207	ltpFR2	14	n/a	n/a	n/a	7	17	9	4	4
980468	PROB	n/a	LTP207	ltpFR2	14	n/a	n/a	n/a	7	20	8	6	6
982141	PROB	n/a	LTP207	ltpFR2	14	n/a	n/a	n/a	7	17	8	4	5
983997	PROB	n/a	LTP207	ltpFR2	14	n/a	n/a	n/a	7	10	1	3	6
985186	PROB	n/a	LTP207	ltpFR2	14	n/a	n/a	n/a	7	10	2	7	1
986402	PROB	n/a	LTP207	ltpFR2	14	n/a	n/a	n/a	7	3	1	1	1
987406	PROB	n/a	LTP207	ltpFR2	14	n/a	n/a	n/a	7	14	9	1	4
989067	PROB	n/a	LTP207	ltpFR2	14	n/a	n/a	n/a	7	21	9	6	6
990451	PROB	n/a	LTP207	ltpFR2	14	n/a	n/a	n/a	7	17	3	6	8
992915	PROB	n/a	LTP207	ltpFR2	14	n/a	n/a	n/a	7	18	9	7	2
994203	PROB	n/a	LTP207	ltpFR2	14	n/a	n/a	n/a	7	14	5	7	2
996110	PROB	n/a	LTP207	ltpFR2	14	n/a	n/a	n/a	7	24	9	9	6
997603	STOP	n/a	LTP207	ltpFR2	14	n/a	n/a	n/a	7	n/a	n/a	n/a	n/a
1000306	REC_START	n/a	LTP207	ltpFR2	14	5	n/a	n/a	n/a	n/a	0	0	0
1004285	REC_WORD	wordpools/wasnorm_wordpool_576.txt	LTP207	ltpFR2	14	5	SCRIBBLE	1256	n/a	n/a	0	0	0
1005438	REC_WORD_VV	wordpools/wasnorm_wordpool_576.txt	LTP207	ltpFR2	14	5	<>	-1	n/a	n/a	0	0	0
1009374	REC_WORD	wordpools/wasnorm_wordpool_576.txt	LTP207	ltpFR2	14	5	SKILLET	1317	n/a	n/a	0	0	0
1091420	WORD	wordpools/wasnorm_wordpool_576.txt	LTP207	ltpFR2	14	6	MOTEL	919	n/a	n/a	0	0	0
1093924	WORD	wordpools/wasnorm_wordpool_576.txt	LTP207	ltpFR2	14	6	TRANSPLANT	1496	n/a	n/a	0	0	0
1096589	WORD	wordpools/wasnorm_wordpool_576.txt	LTP207	ltpFR2	14	6	CORAL	378	n/a	n/a	0	0	0
1099065	WORD	wordpools/wasnorm_wordpool_576.txt	LTP207	ltpFR2	14	6	THIEF	1456	n/a	n/a	0	0	0
1101876	WORD	wordpools/wasnorm_wordpool_576.txt	LTP207	ltpFR2	14	6	COCOON	339	n/a	n/a	0	0	0
1104519	WORD	wordpools/wasnorm_wordpool_576.txt	LTP207	ltpFR2	14	6	RECEIPT	1173	n/a	n/a	0	0	0
1107096	WORD	wordpools/wasnorm_wordpool_576.txt	LTP207	ltpFR2	14	6	STONE	1385	n/a	n/a	0	0	0
1109868	WORD	wordpools/wasnorm_wordpool_576.txt	LTP207	ltpFR2	14	6	FOOTBALL	591	n/a	n/a	0	0	0
1112432	WORD	wordpools/wasnorm_wordpool_576.txt	LTP207	ltpFR2	14	6	SOFTBALL	1343	n/a	n/a	0	0	0
1115042	WORD	wordpools/wasnorm_wordpool_576.txt	LTP207	ltpFR2	14	6	COIN	343	n/a	n/a	0	0	0
1117501	WORD	wordpools/wasnorm_wordpool_576.txt	LTP207	ltpFR2	14	6	FOOT	590	n/a	n/a	0	0	0
1120278	WORD	wordpools/wasnorm_wordpool_576.txt	LTP207	ltpFR2	14	6	SWAMP	1416	n/a	n/a	0	0	0
1122733	WORD	wordpools/wasnorm_wordpool_576.txt	LTP207	ltpFR2	14	6	BUG	187	n/a	n/a	0	0	0
1125297	WORD	wordpools/wasnorm_wordpool_576.txt	LTP207	ltpFR2	14	6	SWITCH	1422	n/a	n/a	0	0	0
1128108	WORD	wordpools/wasnorm_wordpool_576.txt	LTP207	ltpFR2	14	6	STAPLE	1371	n/a	n/a	0	0	0
1130684	WORD	wordpools/wasnorm_wordpool_576.txt	LTP207	ltpFR2	14	6	NEUTRON	947	n/a	n/a	0	0	0
1133261	WORD	wordpools/wasnorm_wordpool_576.txt	LTP207	ltpFR2	14	6	BEAKER	104	n/a	n/a	0	0	0
1136071	WORD	wordpools/wasnorm_wordpool_576.txt	LTP207	ltpFR2	14	6	MOTOR	922	n/a	n/a	0	0	0
1138715	WORD	wordpools/wasnorm_wordpool_576.txt	LTP207	ltpFR2	14	6	DUSTPAN	509	n/a	n/a	0	0	0
1141358	WORD	wordpools/wasnorm_wordpool_576.txt	LTP207	ltpFR2	14	6	ACTOR	5	n/a	n/a	0	0	0
1144097	WORD	wordpools/wasnorm_wordpool_576.txt	LTP207	ltpFR2	14	6	BEAST	108	n/a	n/a	0	0	0
1146879	WORD	wordpools/wasnorm_wordpool_576.txt	LTP207	ltpFR2	14	6	BEAVER	109	n/a	n/a	0	0	0
1149505	WORD	wordpools/wasnorm_wordpool_576.txt	LTP207	ltpFR2	14	6	HEART	697	n/a	n/a	0	0	0
1152182	WORD	wordpools/wasnorm_wordpool_576.txt	LTP207	ltpFR2	14	6	VELVET	1555	n/a	n/a	0	0	0
1153788	START	n/a	LTP207	ltpFR2	14	n/a	n/a	n/a	8	n/a	n/a	n/a	n/a
1154942	DISTRACTOR	n/a	LTP207	ltpFR2	14	6	n/a	n/a	n/a	n/a	0	0	0
1154959	PROB	n/a	LTP207	ltpFR2	14	n/a	n/a	n/a	8	22	4	9	9
1156398	PROB	n/a	LTP207	ltpFR2	14	n/a	n/a	n/a	8	20	7	4	9
1157832	PROB	n/a	LTP207	ltpFR2	14	n/a	n/a	n/a	8	18	5	7	6
1160145	PROB	n/a	LTP207	ltpFR2	14	n/a	n/a	n/a	8	14	4	9	1
1161629	PROB	n/a	LTP207	ltpFR2	14	n/a	n/a	n/a	8	19	7	4	8
1163185	PROB	n/a	LTP207	ltpFR2	14	n/a	n/a	n/a	8	18	6	7	5
1165332	PROB	n/a	LTP207	ltpFR2	14	n/a	n/a	n/a	8	15	5	6	4
1167222	PROB	n/a	LTP207	ltpFR2	14	n/a	n/a	n/a	8	14	4	1	9
1168505	PROB	n/a	LTP207	ltpFR2	14	n/a	n/a	n/a	8	21	4	9	8
1170212	PROB	n/a	LTP207	ltpFR2	14	n/a	n/a	n/a	8	16	7	4	5
1172152	PROB	n/a	LTP207	ltpFR2	14	n/a	n/a	n/a	8	18	8	5	5
1173546	PROB	n/a	LTP207	ltpFR2	14	n/a	n/a	n/a	8	19	3	7	9
1174868	PROB	n/a	LTP207	ltpFR2	14	n/a	n/a	n/a	8	20	8	7	5
1176267	STOP	n/a	LTP207	ltpFR2	14	n/a	n/a	n/a	8	n/a	n/a	n/a	n/a
1179564	REC_START	n/a	LTP207	ltpFR2	14	6	n/a	n/a	n/a	n/a	0	0	0
1181200	REC_WORD	wordpools/wasnorm_wordpool_576.txt	LTP207	ltpFR2	14	6	MOTEL	919	n/a	n/a	0	0	0
1182374	REC_WORD_VV	wordpools/wasnorm_wordpool_576.txt	LTP207	ltpFR2	14	6	<>	-1	n/a	n/a	0	0	0
1186977	REC_WORD	wordpools/wasnorm_wordpool_576.txt	LTP207	ltpFR2	14	6	HEART	697	n/a	n/a	0	0	0
1270662	WORD	wordpools/wasnorm_wordpool_576.txt	LTP207	ltpFR2	14	7	SEAGULL	1261	n/a	n/a	0	0	0
1273255	WORD	wordpools/wasnorm_wordpool_576.txt	LTP207	ltpFR2	14	7	INFANT	737	n/a	n/a	0	0	0
1276044	WORD	wordpools/wasnorm_wordpool_576.txt	LTP207	ltpFR2	14	7	TRENCH	1503	n/a	n/a	0	0	0
1278558	WORD	wordpools/wasnorm_wordpool_576.txt	LTP207	ltpFR2	14	7	MISSILE	900	n/a	n/a	0	0	0
1281252	WORD	wordpools/wasnorm_wordpool_576.txt	LTP207	ltpFR2	14	7	BABY	64	n/a	n/a	0	0	0
1283812	WORD	wordpools/wasnorm_wordpool_576.txt	LTP207	ltpFR2	14	7	ROBIN	1199	n/a	n/a	0	0	0
1286371	WORD	wordpools/wasnorm_wordpool_576.txt	LTP207	ltpFR2	14	7	GALLON	618	n/a	n/a	0	0	0
1289048	WORD	wordpools/wasnorm_wordpool_576.txt	LTP207	ltpFR2	14	7	DOUGHNUT	490	n/a	n/a	0	0	0
1291870	WORD	wordpools/wasnorm_wordpool_576.txt	LTP207	ltpFR2	14	7	DONKEY	484	n/a	n/a	0	0	0
1294535	WORD	wordpools/wasnorm_wordpool_576.txt	LTP207	ltpFR2	14	7	CLIMBER	323	n/a	n/a	0	0	0
1297095	WORD	wordpools/wasnorm_wordpool_576.txt	LTP207	ltpFR2	14	7	UMPIRE	1535	n/a	n/a	0	0	0
1299839	WORD	wordpools/wasnorm_wordpool_576.txt	LTP207	ltpFR2	14	7	PLAID	1080	n/a	n/a	0	0	0
1302465	WORD	wordpools/wasnorm_wordpool_576.txt	LTP207	ltpFR2	14	7	TOASTER	1472	n/a	n/a	0	0	0
1305142	WORD	wordpools/wasnorm_wordpool_576.txt	LTP207	ltpFR2	14	7	CLOTHES	327	n/a	n/a	0	0	0
1307763	WORD	wordpools/wasnorm_wordpool_576.txt	LTP207	ltpFR2	14	7	DRAWING	494	n/a	n/a	0	0	0
1310194	WORD	wordpools/wasnorm_wordpool_576.txt	LTP207	ltpFR2	14	7	SCULPTURE	1258	n/a	n/a	0	0	0
1312720	WORD	wordpools/wasnorm_wordpool_576.txt	LTP207	ltpFR2	14	7	LION	827	n/a	n/a	0	0	0
1315163	WORD	wordpools/wasnorm_wordpool_576.txt	LTP207	ltpFR2	14	7	BACKBONE	66	n/a	n/a	0	0	0
1317785	WORD	wordpools/wasnorm_wordpool_576.txt	LTP207	ltpFR2	14	7	GAZELLE	628	n/a	n/a	0	0	0
1320528	WORD	wordpools/wasnorm_wordpool_576.txt	LTP207	ltpFR2	14	7	BUREAU	199	n/a	n/a	0	0	0
1322975	WORD	wordpools/wasnorm_wordpool_576.txt	LTP207	ltpFR2	14	7	CHILD	299	n/a	n/a	0	0	0
1325631	WORD	wordpools/wasnorm_wordpool_576.txt	LTP207	ltpFR2	14	7	JELLO	754	n/a	n/a	0	0	0
1328274	WORD	wordpools/wasnorm_wordpool_576.txt	LTP207	ltpFR2	14	7	TRACTOR	1493	n/a	n/a	0	0	0
1330738	WORD	wordpools/wasnorm_wordpool_576.txt	LTP207	ltpFR2	14	7	VIRUS	1572	n/a	n/a	0	0	0
1332362	START	n/a	LTP207	ltpFR2	14	n/a	n/a	n/a	9	n/a	n/a	n/a	n/a
1333560	DISTRACTOR	n/a	LTP207	ltpFR2	14	7	n/a	n/a	n/a	n/a	0	0	0
1333577	PROB	n/a	LTP207	ltpFR2	14	n/a	n/a	n/a	9	14	4	4	6
1335222	PROB	n/a	LTP207	ltpFR2	14	n/a	n/a	n/a	9	10	6	1	3
1336594	PROB	n/a	LTP207	ltpFR2	14	n/a	n/a	n/a	9	10	4	1	5
1338145	PROB	n/a	LTP207	ltpFR2	14	n/a	n/a	n/a	9	11	4	6	1
1339366	PROB	n/a	LTP207	ltpFR2	14	n/a	n/a	n/a	9	14	1	4	9
1340592	PROB	n/a	LTP207	ltpFR2	14	n/a	n/a	n/a	9	12	3	7	2
1342545	PROB	n/a	LTP207	ltpFR2	14	n/a	n/a	n/a	9	19	1	9	9
1343982	PROB	n/a	LTP207	ltpFR2	14	n/a	n/a	n/a	9	17	7	8	2
1345623	PROB	n/a	LTP207	ltpFR2	14	n/a	n/a	n/a	9	14	5	1	8
1348835	PROB	n/a	LTP207	ltpFR2	14	n/a	n/a	n/a	9	14	1	9	4
1350023	PROB	n/a	LTP207	ltpFR2	14	n/a	n/a	n/a	9	21	5	8	8
1351311	PROB	n/a	LTP207	ltpFR2	14	n/a	n/a	n/a	9	19	9	3	7
1352688	PROB	n/a	LTP207	ltpFR2	14	n/a	n/a	n/a	9	17	3	9	5
1354803	STOP	n/a	LTP207	ltpFR2	14	n/a	n/a	n/a	9	n/a	n/a	n/a	n/a
1358305	REC_START	n/a	LTP207	ltpFR2	14	7	n/a	n/a	n/a	n/a	0	0	0
1360179	REC_WORD	wordpools/wasnorm_wordpool_576.txt	LTP207	ltpFR2	14	7	INFANT	737	n/a	n/a	0	0	0
1361026	REC_WORD	wordpools/wasnorm_wordpool_576.txt	LTP207	ltpFR2	14	7	BABY	64	n/a	n/a	0	0	0
1362096	REC_WORD	wordpools/wasnorm_wordpool_576.txt	LTP207	ltpFR2	14	7	MISSILE	900	n/a	n/a	0	0	0
1449464	WORD	wordpools/wasnorm_wordpool_576.txt	LTP207	ltpFR2	14	8	OUTDOORS	987	n/a	n/a	0	0	0
1452213	WORD	wordpools/wasnorm_wordpool_576.txt	LTP207	ltpFR2	14	8	ITEM	746	n/a	n/a	0	0	0
1454706	WORD	wordpools/wasnorm_wordpool_576.txt	LTP207	ltpFR2	14	8	STAR	1373	n/a	n/a	0	0	0
1457399	WORD	wordpools/wasnorm_wordpool_576.txt	LTP207	ltpFR2	14	8	IDOL	733	n/a	n/a	0	0	0
1459887	WORD	wordpools/wasnorm_wordpool_576.txt	LTP207	ltpFR2	14	8	BISON	131	n/a	n/a	0	0	0
1462630	WORD	wordpools/wasnorm_wordpool_576.txt	LTP207	ltpFR2	14	8	TRIBE	1505	n/a	n/a	0	0	0
1465229	WORD	wordpools/wasnorm_wordpool_576.txt	LTP207	ltpFR2	14	8	DRIVER	499	n/a	n/a	0	0	0
1467905	WORD	wordpools/wasnorm_wordpool_576.txt	LTP207	ltpFR2	14	8	BUNNY	198	n/a	n/a	0	0	0
1470678	WORD	wordpools/wasnorm_wordpool_576.txt	LTP207	ltpFR2	14	8	CATTLE	261	n/a	n/a	0	0	0
1473192	WORD	wordpools/wasnorm_wordpool_576.txt	LTP207	ltpFR2	14	8	FINGER	567	n/a	n/a	0	0	0
1475785	WORD	wordpools/wasnorm_wordpool_576.txt	LTP207	ltpFR2	14	8	FRIEND	606	n/a	n/a	0	0	0
1478579	WORD	wordpools/wasnorm_wordpool_576.txt	LTP207	ltpFR2	14	8	WASP	1593	n/a	n/a	0	0	0
1481134	WORD	wordpools/wasnorm_wordpool_576.txt	LTP207	ltpFR2	14	8	WAGON	1578	n/a	n/a	0	0	0
1483765	WORD	wordpools/wasnorm_wordpool_576.txt	LTP207	ltpFR2	14	8	VIKING	1565	n/a	n/a	0	0	0
1486487	WORD	wordpools/wasnorm_wordpool_576.txt	LTP207	ltpFR2	14	8	NIGHTGOWN	953	n/a	n/a	0	0	0
1488968	WORD	wordpools/wasnorm_wordpool_576.txt	LTP207	ltpFR2	14	8	PLIERS	1089	n/a	n/a	0	0	0
1491757	WORD	wordpools/wasnorm_wordpool_576.txt	LTP207	ltpFR2	14	8	LAMP	798	n/a	n/a	0	0	0
1494405	WORD	wordpools/wasnorm_wordpool_576.txt	LTP207	ltpFR2	14	8	HORSE	719	n/a	n/a	0	0	0
1497199	WORD	wordpools/wasnorm_wordpool_576.txt	LTP207	ltpFR2	14	8	LEG	809	n/a	n/a	0	0	0
1499909	WORD	wordpools/wasnorm_wordpool_576.txt	LTP207	ltpFR2	14	8	LOVER	846	n/a	n/a	0	0	0
1502686	WORD	wordpools/wasnorm_wordpool_576.txt	LTP207	ltpFR2	14	8	SEAFOOD	1260	n/a	n/a	0	0	0
1505258	WORD	wordpools/wasnorm_wordpool_576.txt	LTP207	ltpFR2	14	8	LEOPARD	812	n/a	n/a	0	0	0
1507756	WORD	wordpools/wasnorm_wordpool_576.txt	LTP207	ltpFR2	14	8	BANJO	82	n/a	n/a	0	0	0
1510248	WORD	wordpools/wasnorm_wordpool_576.txt	LTP207	ltpFR2	14	8	GUITAR	670	n/a	n/a	0	0	0
1511855	START	n/a	LTP207	ltpFR2	14	n/a	n/a	n/a	10	n/a	n/a	n/a	n/a
1512699	DISTRACTOR	n/a	LTP207	ltpFR2	14	8	n/a	n/a	n/a	n/a	0	0	0
1512724	PROB	n/a	LTP207	ltpFR2	14	n/a	n/a	n/a	10	15	2	6	7
1516304	PROB	n/a	LTP207	ltpFR2	14	n/a	n/a	n/a	10	11	2	5	4
1517788	PROB	n/a	LTP207	ltpFR2	14	n/a	n/a	n/a	10	10	5	2	3
1521139	PROB	n/a	LTP207	ltpFR2	14	n/a	n/a	n/a	10	16	6	2	8
1522556	PROB	n/a	LTP207	ltpFR2	14	n/a	n/a	n/a	10	14	3	5	6
1524017	PROB	n/a	LTP207	ltpFR2	14	n/a	n/a	n/a	10	17	2	8	7
1525389	PROB	n/a	LTP207	ltpFR2	14	n/a	n/a	n/a	10	10	4	3	3
1526622	PROB	n/a	LTP207	ltpFR2	14	n/a	n/a	n/a	10	15	5	2	8
1527992	PROB	n/a	LTP207	ltpFR2	14	n/a	n/a	n/a	10	15	8	5	2
1529750	PROB	n/a	LTP207	ltpFR2	14	n/a	n/a	n/a	10	15	5	6	4
1531323	PROB	n/a	LTP207	ltpFR2	14	n/a	n/a	n/a	10	18	4	6	8
1532644	PROB	n/a	LTP207	ltpFR2	14	n/a	n/a	n/a	10	20	5	9	6
1534033	PROB	n/a	LTP207	ltpFR2	14	n/a	n/a	n/a	10	15	3	6	6
1535171	STOP	n/a	LTP207	ltpFR2	14	n/a	n/a	n/a	10	n/a	n/a	n/a	n/a
1537636	REC_START	n/a	LTP207	ltpFR2	14	8	n/a	n/a	n/a	n/a	0	0	0
1538950	REC_WORD	wordpools/wasnorm_wordpool_576.txt	LTP207	ltpFR2	14	8	LEOPARD	812	n/a	n/a	0	0	0
1544652	REC_WORD	wordpools/wasnorm_wordpool_576.txt	LTP207	ltpFR2	14	8	NIGHTGOWN	953	n/a	n/a	0	0	0
1546173	REC_WORD	wordpools/wasnorm_wordpool_576.txt	LTP207	ltpFR2	14	8	VIKING	1565	n/a	n/a	0	0	0
1547393	REC_WORD_VV	wordpools/wasnorm_wordpool_576.txt	LTP207	ltpFR2	14	8	<>	-1	n/a	n/a	0	0	0
1548393	REC_WORD_VV	wordpools/wasnorm_wordpool_576.txt	LTP207	ltpFR2	14	8	<>	-1	n/a	n/a	0	0	0
1554683	REC_WORD	wordpools/wasnorm_wordpool_576.txt	LTP207	ltpFR2	14	8	WASP	1593	n/a	n/a	0	0	0
1570942	REC_WORD	wordpools/wasnorm_wordpool_576.txt	LTP207	ltpFR2	14	8	LOVER	846	n/a	n/a	0	0	0
1614491	REST_REWET	n/a	LTP207	ltpFR2	14	8	n/a	n/a	n/a	n/a	0	0	0
2089682	DISTRACTOR	n/a	LTP207	ltpFR2	14	9	n/a	n/a	n/a	n/a	0	0	0
2089682	START	n/a	LTP207	ltpFR2	14	n/a	n/a	n/a	11	n/a	n/a	n/a	n/a
2089732	PROB	n/a	LTP207	ltpFR2	14	n/a	n/a	n/a	11	17	3	7	7
2091166	PROB	n/a	LTP207	ltpFR2	14	n/a	n/a	n/a	11	12	1	7	4
2092376	PROB	n/a	LTP207	ltpFR2	14	n/a	n/a	n/a	11	16	4	8	4
2093776	PROB	n/a	LTP207	ltpFR2	14	n/a	n/a	n/a	11	15	8	6	1
2095332	PROB	n/a	LTP207	ltpFR2	14	n/a	n/a	n/a	11	21	7	6	8
2097194	PROB	n/a	LTP207	ltpFR2	14	n/a	n/a	n/a	11	19	6	6	7
2098560	PROB	n/a	LTP207	ltpFR2	14	n/a	n/a	n/a	11	13	7	4	2
2099865	PROB	n/a	LTP207	ltpFR2	14	n/a	n/a	n/a	11	12	1	3	8
2100953	PROB	n/a	LTP207	ltpFR2	14	n/a	n/a	n/a	11	19	6	7	6
2102592	PROB	n/a	LTP207	ltpFR2	14	n/a	n/a	n/a	11	20	4	7	9
2103886	PROB	n/a	LTP207	ltpFR2	14	n/a	n/a	n/a	11	6	2	1	3
2105023	PROB	n/a	LTP207	ltpFR2	14	n/a	n/a	n/a	11	9	5	1	3
2106462	PROB	n/a	LTP207	ltpFR2	14	n/a	n/a	n/a	11	17	7	2	8
2108197	PROB	n/a	LTP207	ltpFR2	14	n/a	n/a	n/a	11	20	8	3	9
2110962	PROB	n/a	LTP207	ltpFR2	14	n/a	n/a	n/a	11	11	3	4	4
2112251	STOP	n/a	LTP207	ltpFR2	14	n/a	n/a	n/a	11	n/a	n/a	n/a	n/a
2114576	WORD	wordpools/wasnorm_wordpool_576.txt	LTP207	ltpFR2	14	9	RAZOR	1171	n/a	n/a	0	0	0
2117147	WORD	wordpools/wasnorm_wordpool_576.txt	LTP207	ltpFR2	14	9	MUSTARD	935	n/a	n/a	0	0	0
2119857	WORD	wordpools/wasnorm_wordpool_576.txt	LTP207	ltpFR2	14	9	GHETTO	633	n/a	n/a	0	0	0
2122422	WORD	wordpools/wasnorm_wordpool_576.txt	LTP207	ltpFR2	14	9	BELLY	119	n/a	n/a	0	0	0
2125183	WORD	wordpools/wasnorm_wordpool_576.txt	LTP207	ltpFR2	14	9	CRICKET	408	n/a	n/a	0	0	0
2127909	WORD	wordpools/wasnorm_wordpool_576.txt	LTP207	ltpFR2	14	9	KETCHUP	771	n/a	n/a	0	0	0
2130347	WORD	wordpools/wasnorm_wordpool_576.txt	LTP207	ltpFR2	14	9	SALAD	1224	n/a	n/a	0	0	0
2132845	WORD	wordpools/wasnorm_wordpool_576.txt	LTP207	ltpFR2	14	9	LUNCH	849	n/a	n/a	0	0	0
2135466	WORD	wordpools/wasnorm_wordpool_576.txt	LTP207	ltpFR2	14	9	SAUSAGE	1238	n/a	n/a	0	0	0
2138210	WORD	wordpools/wasnorm_wordpool_576.txt	LTP207	ltpFR2	14	9	ICEBERG	731	n/a	n/a	0	0	0
2140686	WORD	wordpools/wasnorm_wordpool_576.txt	LTP207	ltpFR2	14	9	SPIDER	1351	n/a	n/a	0	0	0
2143430	WORD	wordpools/wasnorm_wordpool_576.txt	LTP207	ltpFR2	14	9	TWISTER	1530	n/a	n/a	0	0	0
2146040	WORD	wordpools/wasnorm_wordpool_576.txt	LTP207	ltpFR2	14	9	STALLION	1369	n/a	n/a	0	0	0
2148587	WORD	wordpools/wasnorm_wordpool_576.txt	LTP207	ltpFR2	14	9	CARRIAGE	248	n/a	n/a	0	0	0
2151309	WORD	wordpools/wasnorm_wordpool_576.txt	LTP207	ltpFR2	14	9	EAGLE	512	n/a	n/a	0	0	0
2153802	WORD	wordpools/wasnorm_wordpool_576.txt	LTP207	ltpFR2	14	9	POWDER	1117	n/a	n/a	0	0	0
2156300	WORD	wordpools/wasnorm_wordpool_576.txt	LTP207	ltpFR2	14	9	SCARF	1246	n/a	n/a	0	0	0
2158943	WORD	wordpools/wasnorm_wordpool_576.txt	LTP207	ltpFR2	14	9	WHISTLE	1606	n/a	n/a	0	0	0
2161519	WORD	wordpools/wasnorm_wordpool_576.txt	LTP207	ltpFR2	14	9	BOUQUET	157	n/a	n/a	0	0	0
2164213	WORD	wordpools/wasnorm_wordpool_576.txt	LTP207	ltpFR2	14	9	GRAVE	658	n/a	n/a	0	0	0
2166935	WORD	wordpools/wasnorm_wordpool_576.txt	LTP207	ltpFR2	14	9	LADDER	793	n/a	n/a	0	0	0
2169433	WORD	wordpools/wasnorm_wordpool_576.txt	LTP207	ltpFR2	14	9	LODGE	839	n/a	n/a	0	0	0
2172021	WORD	wordpools/wasnorm_wordpool_576.txt	LTP207	ltpFR2	14	9	HAND	683	n/a	n/a	0	0	0
2174580	WORD	wordpools/wasnorm_wordpool_576.txt	LTP207	ltpFR2	14	9	TURKEY	1520	n/a	n/a	0	0	0
2176192	START	n/a	LTP207	ltpFR2	14	n/a	n/a	n/a	12	n/a	n/a	n/a	n/a
2177357	DISTRACTOR	n/a	LTP207	ltpFR2	14	9	n/a	n/a	n/a	n/a	0	0	0
2177374	PROB	n/a	LTP207	ltpFR2	14	n/a	n/a	n/a	12	17	4	8	5
2179102	PROB	n/a	LTP207	ltpFR2	14	n/a	n/a	n/a	12	12	4	2	6
2181406	PROB	n/a	LTP207	ltpFR2	14	n/a	n/a	n/a	12	18	1	8	9
2182527	PROB	n/a	LTP207	ltpFR2	14	n/a	n/a	n/a	12	14	3	9	2
2184790	PROB	n/a	LTP207	ltpFR2	14	n/a	n/a	n/a	12	11	6	2	3
2186258	PROB	n/a	LTP207	ltpFR2	14	n/a	n/a	n/a	12	12	7	1	4
2187350	PROB	n/a	LTP207	ltpFR2	14	n/a	n/a	n/a	12	18	8	6	4
2188521	PROB	n/a	LTP207	ltpFR2	14	n/a	n/a	n/a	12	16	6	1	9
2189537	PROB	n/a	LTP207	ltpFR2	14	n/a	n/a	n/a	12	15	7	5	3
2191745	PROB	n/a	LTP207	ltpFR2	14	n/a	n/a	n/a	12	16	8	7	1
2193016	PROB	n/a	LTP207	ltpFR2	14	n/a	n/a	n/a	12	21	8	7	6
2195158	PROB	n/a	LTP207	ltpFR2	14	n/a	n/a	n/a	12	21	8	9	4
2197037	PROB	n/a	LTP207	ltpFR2	14	n/a	n/a	n/a	12	19	8	5	6
2198891	STOP	n/a	LTP207	ltpFR2	14	n/a	n/a	n/a	12	n/a	n/a	n/a	n/a
2202073	REC_START	n/a	LTP207	ltpFR2	14	9	n/a	n/a	n/a	n/a	0	0	0
2212103	REC_WORD	wordpools/wasnorm_wordpool_576.txt	LTP207	ltpFR2	14	9	LADDER	793	n/a	n/a	0	0	0
2229042	REC_WORD	wordpools/wasnorm_wordpool_576.txt	LTP207	ltpFR2	14	9	BELLY	119	n/a	n/a	0	0	0
2243081	REC_WORD	wordpools/wasnorm_wordpool_576.txt	LTP207	ltpFR2	14	9	GHETTO	633	n/a	n/a	0	0	0
2245761	REC_WORD	wordpools/wasnorm_wordpool_576.txt	LTP207	ltpFR2	14	9	MUSTARD	935	n/a	n/a	0	0	0
2253099	REC_WORD	wordpools/wasnorm_wordpool_576.txt	LTP207	ltpFR2	14	9	RAZOR	1171	n/a	n/a	0	0	0
2270288	REC_WORD	wordpools/wasnorm_wordpool_576.txt	LTP207	ltpFR2	14	9	TURKEY	1520	n/a	n/a	0	0	0
2349160	DISTRACTOR	n/a	LTP207	ltpFR2	14	10	n/a	n/a	n/a	n/a	0	0	0
2349160	START	n/a	LTP207	ltpFR2	14	n/a	n/a	n/a	13	n/a	n/a	n/a	n/a
2349210	PROB	n/a	LTP207	ltpFR2	14	n/a	n/a	n/a	13	19	3	8	8
2350649	PROB	n/a	LTP207	ltpFR2	14	n/a	n/a	n/a	13	5	3	1	1
2351581	PROB	n/a	LTP207	ltpFR2	14	n/a	n/a	n/a	13	19	5	5	9
2352819	PROB	n/a	LTP207	ltpFR2	14	n/a	n/a	n/a	13	24	7	9	8
2354430	PROB	n/a	LTP207	ltpFR2	14	n/a	n/a	n/a	13	20	8	3	9
2357737	PROB	n/a	LTP207	ltpFR2	14	n/a	n/a	n/a	13	22	5	8	9
2359482	PROB	n/a	LTP207	ltpFR2	14	n/a	n/a	n/a	13	23	7	7	9
2362221	PROB	n/a	LTP207	ltpFR2	14	n/a	n/a	n/a	13	11	5	1	5
2363325	PROB	n/a	LTP207	ltpFR2	14	n/a	n/a	n/a	13	21	4	8	9
2364747	PROB	n/a	LTP207	ltpFR2	14	n/a	n/a	n/a	13	15	4	7	4
2366035	PROB	n/a	LTP207	ltpFR2	14	n/a	n/a	n/a	13	13	9	1	3
2367156	PROB	n/a	LTP207	ltpFR2	14	n/a	n/a	n/a	13	17	5	9	3
2368561	PROB	n/a	LTP207	ltpFR2	14	n/a	n/a	n/a	13	14	6	6	2
2369855	PROB	n/a	LTP207	ltpFR2	14	n/a	n/a	n/a	13	14	4	6	4
2370954	PROB	n/a	LTP207	ltpFR2	14	n/a	n/a	n/a	13	19	4	9	6
2372219	STOP	n/a	LTP207	ltpFR2	14	n/a	n/a	n/a	13	n/a	n/a	n/a	n/a
2374188	WORD	wordpools/wasnorm_wordpool_576.txt	LTP207	ltpFR2	14	10	AIRPORT	13	n/a	n/a	0	0	0
2376864	WORD	wordpools/wasnorm_wordpool_576.txt	LTP207	ltpFR2	14	10	GLOBE	641	n/a	n/a	0	0	0
2379591	WORD	wordpools/wasnorm_wordpool_576.txt	LTP207	ltpFR2	14	10	TUNNEL	1519	n/a	n/a	0	0	0
2382168	WORD	wordpools/wasnorm_wordpool_576.txt	LTP207	ltpFR2	14	10	PALACE	1006	n/a	n/a	0	0	0
2384957	WORD	wordpools/wasnorm_wordpool_576.txt	LTP207	ltpFR2	14	10	HOUND	724	n/a	n/a	0	0	0
2387600	WORD	wordpools/wasnorm_wordpool_576.txt	LTP207	ltpFR2	14	10	PUPPY	1144	n/a	n/a	0	0	0
2390427	WORD	wordpools/wasnorm_wordpool_576.txt	LTP207	ltpFR2	14	10	NOTEBOOK	959	n/a	n/a	0	0	0
2392870	WORD	wordpools/wasnorm_wordpool_576.txt	LTP207	ltpFR2	14	10	SUPPER	1411	n/a	n/a	0	0	0
2395434	WORD	wordpools/wasnorm_wordpool_576.txt	LTP207	ltpFR2	14	10	SUBWAY	1400	n/a	n/a	0	0	0
2398228	WORD	wordpools/wasnorm_wordpool_576.txt	LTP207	ltpFR2	14	10	FRIAR	605	n/a	n/a	0	0	0
2400699	WORD	wordpools/wasnorm_wordpool_576.txt	LTP207	ltpFR2	14	10	GLASS	639	n/a	n/a	0	0	0
2403175	WORD	wordpools/wasnorm_wordpool_576.txt	LTP207	ltpFR2	14	10	PECAN	1036	n/a	n/a	0	0	0
2405824	WORD	wordpools/wasnorm_wordpool_576.txt	LTP207	ltpFR2	14	10	WORKER	1621	n/a	n/a	0	0	0
2408584	WORD	wordpools/wasnorm_wordpool_576.txt	LTP207	ltpFR2	14	10	TYPIST	1532	n/a	n/a	0	0	0
2411239	WORD	wordpools/wasnorm_wordpool_576.txt	LTP207	ltpFR2	14	10	OX	994	n/a	n/a	0	0	0
2413921	WORD	wordpools/wasnorm_wordpool_576.txt	LTP207	ltpFR2	14	10	OINTMENT	974	n/a	n/a	0	0	0
2416726	WORD	wordpools/wasnorm_wordpool_576.txt	LTP207	ltpFR2	14	10	TUTU	1524	n/a	n/a	0	0	0
2419408	WORD	wordpools/wasnorm_wordpool_576.txt	LTP207	ltpFR2	14	10	TILE	1468	n/a	n/a	0	0	0
2422202	WORD	wordpools/wasnorm_wordpool_576.txt	LTP207	ltpFR2	14	10	PERCH	1048	n/a	n/a	0	0	0
2424728	WORD	wordpools/wasnorm_wordpool_576.txt	LTP207	ltpFR2	14	10	OFFICE	972	n/a	n/a	0	0	0
2427422	WORD	wordpools/wasnorm_wordpool_576.txt	LTP207	ltpFR2	14	10	BOYFRIEND	162	n/a	n/a	0	0	0
2429926	WORD	wordpools/wasnorm_wordpool_576.txt	LTP207	ltpFR2	14	10	RELISH	1183	n/a	n/a	0	0	0
2432574	WORD	wordpools/wasnorm_wordpool_576.txt	LTP207	ltpFR2	14	10	VALLEY	1545	n/a	n/a	0	0	0
2435368	WORD	wordpools/wasnorm_wordpool_576.txt	LTP207	ltpFR2	14	10	RUG	1215	n/a	n/a	0	0	0
2436974	START	n/a	LTP207	ltpFR2	14	n/a	n/a	n/a	14	n/a	n/a	n/a	n/a
2438100	DISTRACTOR	n/a	LTP207	ltpFR2	14	10	n/a	n/a	n/a	n/a	0	0	0
2438112	PROB	n/a	LTP207	ltpFR2	14	n/a	n/a	n/a	14	15	8	5	2
2439512	PROB	n/a	LTP207	ltpFR2	14	n/a	n/a	n/a	14	13	3	7	3
2440918	PROB	n/a	LTP207	ltpFR2	14	n/a	n/a	n/a	14	16	6	5	5
2442345	PROB	n/a	LTP207	ltpFR2	14	n/a	n/a	n/a	14	20	8	3	9
2446192	PROB	n/a	LTP207	ltpFR2	14	n/a	n/a	n/a	14	16	2	8	6
2447358	PROB	n/a	LTP207	ltpFR2	14	n/a	n/a	n/a	14	9	1	1	7
2448434	PROB	n/a	LTP207	ltpFR2	14	n/a	n/a	n/a	14	23	9	5	9
2450006	PROB	n/a	LTP207	ltpFR2	14	n/a	n/a	n/a	14	14	5	6	3
2451312	PROB	n/a	LTP207	ltpFR2	14	n/a	n/a	n/a	14	20	4	7	9
2452796	PROB	n/a	LTP207	ltpFR2	14	n/a	n/a	n/a	14	22	7	7	8
2454474	PROB	n/a	LTP207	ltpFR2	14	n/a	n/a	n/a	14	13	5	4	4
2457535	PROB	n/a	LTP207	ltpFR2	14	n/a	n/a	n/a	14	8	1	6	1
2458684	PROB	n/a	LTP207	ltpFR2	14	n/a	n/a	n/a	14	18	5	7	6
2460635	STOP	n/a	LTP207	ltpFR2	14	n/a	n/a	n/a	14	n/a	n/a	n/a	n/a
2462906	REC_START	n/a	LTP207	ltpFR2	14	10	n/a	n/a	n/a	n/a	0	0	0
2480579	REC_WORD	wordpools/wasnorm_wordpool_576.txt	LTP207	ltpFR2	14	10	RELISH	1183	n/a	n/a	0	0	0
2481591	REC_WORD_VV	wordpools/wasnorm_wordpool_576.txt	LTP207	ltpFR2	14	10	<>	-1	n/a	n/a	0	0	0
2553998	DISTRACTOR	n/a	LTP207	ltpFR2	14	11	n/a	n/a	n/a	n/a	0	0	0
2553998	START	n/a	LTP207	ltpFR2	14	n/a	n/a	n/a	15	n/a	n/a	n/a	n/a
2554066	PROB	n/a	LTP207	ltpFR2	14	n/a	n/a	n/a	15	10	5	4	1
2555270	PROB	n/a	LTP207	ltpFR2	14	n/a	n/a	n/a	15	16	2	8	6
2556558	PROB	n/a	LTP207	ltpFR2	14	n/a	n/a	n/a	15	13	2	2	9
2557741	PROB	n/a	LTP207	ltpFR2	14	n/a	n/a	n/a	15	18	4	8	6
2559904	PROB	n/a	LTP207	ltpFR2	14	n/a	n/a	n/a	15	16	7	2	7
2561137	PROB	n/a	LTP207	ltpFR2	14	n/a	n/a	n/a	15	13	3	9	1
2562174	PROB	n/a	LTP207	ltpFR2	14	n/a	n/a	n/a	15	14	4	3	7
2563886	PROB	n/a	LTP207	ltpFR2	14	n/a	n/a	n/a	15	10	2	7	1
2565236	PROB	n/a	LTP207	ltpFR2	14	n/a	n/a	n/a	15	14	3	3	8
2566357	PROB	n/a	LTP207	ltpFR2	14	n/a	n/a	n/a	15	11	1	8	2
2567851	PROB	n/a	LTP207	ltpFR2	14	n/a	n/a	n/a	15	17	1	8	8
2569273	PROB	n/a	LTP207	ltpFR2	14	n/a	n/a	n/a	15	17	1	9	7
2570774	PROB	n/a	LTP207	ltpFR2	14	n/a	n/a	n/a	15	18	7	3	8
2571849	PROB	n/a	LTP207	ltpFR2	14	n/a	n/a	n/a	15	17	7	3	7
2573472	PROB	n/a	LTP207	ltpFR2	14	n/a	n/a	n/a	15	13	4	5	4
2575028	PROB	n/a	LTP207	ltpFR2	14	n/a	n/a	n/a	15	11	1	4	6
2576032	PROB	n/a	LTP207	ltpFR2	14	n/a	n/a	n/a	15	19	9	8	2
2577195	STOP	n/a	LTP207	ltpFR2	14	n/a	n/a	n/a	15	n/a	n/a	n/a	n/a
2579155	WORD	wordpools/wasnorm_wordpool_576.txt	LTP207	ltpFR2	14	11	GRAVEL	659	n/a	n/a	0	0	0
2581815	WORD	wordpools/wasnorm_wordpool_576.txt	LTP207	ltpFR2	14	11	PIANO	1057	n/a	n/a	0	0	0
2584597	WORD	wordpools/wasnorm_wordpool_576.txt	LTP207	ltpFR2	14	11	AIRPLANE	12	n/a	n/a	0	0	0
2587174	WORD	wordpools/wasnorm_wordpool_576.txt	LTP207	ltpFR2	14	11	BRACES	164	n/a	n/a	0	0	0
2589978	WORD	wordpools/wasnorm_wordpool_576.txt	LTP207	ltpFR2	14	11	BEEF	113	n/a	n/a	0	0	0
2592745	WORD	wordpools/wasnorm_wordpool_576.txt	LTP207	ltpFR2	14	11	PUPIL	1143	n/a	n/a	0	0	0
2595204	WORD	wordpools/wasnorm_wordpool_576.txt	LTP207	ltpFR2	14	11	CROWN	415	n/a	n/a	0	0	0
2597826	WORD	wordpools/wasnorm_wordpool_576.txt	LTP207	ltpFR2	14	11	EMPIRE	530	n/a	n/a	0	0	0
2600340	WORD	wordpools/wasnorm_wordpool_576.txt	LTP207	ltpFR2	14	11	TREAT	1501	n/a	n/a	0	0	0
2602833	WORD	wordpools/wasnorm_wordpool_576.txt	LTP207	ltpFR2	14	11	CANDY	230	n/a	n/a	0	0	0
2605342	WORD	wordpools/wasnorm_wordpool_576.txt	LTP207	ltpFR2	14	11	COURSE	390	n/a	n/a	0	0	0
2607863	WORD	wordpools/wasnorm_wordpool_576.txt	LTP207	ltpFR2	14	11	COLLEGE	346	n/a	n/a	0	0	0
2610373	WORD	wordpools/wasnorm_wordpool_576.txt	LTP207	ltpFR2	14	11	ANKLE	24	n/a	n/a	0	0	0
2612832	WORD	wordpools/wasnorm_wordpool_576.txt	LTP207	ltpFR2	14	11	FRAGRANCE	599	n/a	n/a	0	0	0
2615648	WORD	wordpools/wasnorm_wordpool_576.txt	LTP207	ltpFR2	14	11	MARKET	871	n/a	n/a	0	0	0
2618219	WORD	wordpools/wasnorm_wordpool_576.txt	LTP207	ltpFR2	14	11	WRENCH	1625	n/a	n/a	0	0	0
2620951	WORD	wordpools/wasnorm_wordpool_576.txt	LTP207	ltpFR2	14	11	ULCER	1533	n/a	n/a	0	0	0
2623506	WORD	wordpools/wasnorm_wordpool_576.txt	LTP207	ltpFR2	14	11	FLAG	573	n/a	n/a	0	0	0
2626120	WORD	wordpools/wasnorm_wordpool_576.txt	LTP207	ltpFR2	14	11	PIMPLE	1071	n/a	n/a	0	0	0
2628864	WORD	wordpools/wasnorm_wordpool_576.txt	LTP207	ltpFR2	14	11	YARN	1631	n/a	n/a	0	0	0
2631290	WORD	wordpools/wasnorm_wordpool_576.txt	LTP207	ltpFR2	14	11	TWEEZERS	1526	n/a	n/a	0	0	0
2634017	WORD	wordpools/wasnorm_wordpool_576.txt	LTP207	ltpFR2	14	11	GIRL	637	n/a	n/a	0	0	0
2636627	WORD	wordpools/wasnorm_wordpool_576.txt	LTP207	ltpFR2	14	11	PLAZA	1088	n/a	n/a	0	0	0
2639253	WORD	wordpools/wasnorm_wordpool_576.txt	LTP207	ltpFR2	14	11	JEANS	752	n/a	n/a	0	0	0
2640860	START	n/a	LTP207	ltpFR2	14	n/a	n/a	n/a	16	n/a	n/a	n/a	n/a
2642027	DISTRACTOR	n/a	LTP207	ltpFR2	14	11	n/a	n/a	n/a	n/a	0	0	0
2642042	PROB	n/a	LTP207	ltpFR2	14	n/a	n/a	n/a	16	17	2	7	8
2643581	PROB	n/a	LTP207	ltpFR2	14	n/a	n/a	n/a	16	18	9	8	1
2644853	PROB	n/a	LTP207	ltpFR2	14	n/a	n/a	n/a	16	16	6	6	4
2646330	PROB	n/a	LTP207	ltpFR2	14	n/a	n/a	n/a	16	13	5	7	1
2647903	PROB	n/a	LTP207	ltpFR2	14	n/a	n/a	n/a	16	12	2	3	7
2649325	PROB	n/a	LTP207	ltpFR2	14	n/a	n/a	n/a	16	14	5	1	8
2650457	PROB	n/a	LTP207	ltpFR2	14	n/a	n/a	n/a	16	16	6	6	4
2652687	PROB	n/a	LTP207	ltpFR2	14	n/a	n/a	n/a	16	9	2	1	6
2653892	PROB	n/a	LTP207	ltpFR2	14	n/a	n/a	n/a	16	5	1	3	1
2655125	PROB	n/a	LTP207	ltpFR2	14	n/a	n/a	n/a	16	16	3	7	6
2656179	PROB	n/a	LTP207	ltpFR2	14	n/a	n/a	n/a	16	21	6	7	8
2657417	PROB	n/a	LTP207	ltpFR2	14	n/a	n/a	n/a	16	21	9	8	3
2659525	PROB	n/a	LTP207	ltpFR2	14	n/a	n/a	n/a	16	18	3	8	7
2661270	PROB	n/a	LTP207	ltpFR2	14	n/a	n/a	n/a	16	16	6	2	8
2662369	PROB	n/a	LTP207	ltpFR2	14	n/a	n/a	n/a	16	15	5	1	9
2663363	STOP	n/a	LTP207	ltpFR2	14	n/a	n/a	n/a	16	n/a	n/a	n/a	n/a
2666641	REC_START	n/a	LTP207	ltpFR2	14	11	n/a	n/a	n/a	n/a	0	0	0
2667894	REC_WORD	wordpools/wasnorm_wordpool_576.txt	LTP207	ltpFR2	14	11	YARN	1631	n/a	n/a	0	0	0
2668682	REC_WORD_VV	wordpools/wasnorm_wordpool_576.txt	LTP207	ltpFR2	14	11	<>	-1	n/a	n/a	0	0	0
2669104	REC_WORD	wordpools/wasnorm_wordpool_576.txt	LTP207	ltpFR2	14	11	TWEEZERS	1526	n/a	n/a	0	0	0
2670352	REC_WORD	wordpools/wasnorm_wordpool_576.txt	LTP207	ltpFR2	14	11	GIRL	637	n/a	n/a	0	0	0
2671396	REC_WORD	wordpools/wasnorm_wordpool_576.txt	LTP207	ltpFR2	14	11	AIRPLANE	12	n/a	n/a	0	0	0
2672589	REC_WORD	wordpools/wasnorm_wordpool_576.txt	LTP207	ltpFR2	14	11	GRAVEL	659	n/a	n/a	0	0	0
2675062	REC_WORD	wordpools/wasnorm_wordpool_576.txt	LTP207	ltpFR2	14	11	BEEF	113	n/a	n/a	0	0	0
2676132	REC_WORD	wordpools/wasnorm_wordpool_576.txt	LTP207	ltpFR2	14	11	CROWN	415	n/a	n/a	0	0	0
2678639	REC_WORD	wordpools/wasnorm_wordpool_576.txt	LTP207	ltpFR2	14	11	PIANO	1057	n/a	n/a	0	0	0
2679987	REC_WORD	wordpools/wasnorm_wordpool_576.txt	LTP207	ltpFR2	14	11	BRACES	164	n/a	n/a	0	0	0
2688081	REC_WORD	wordpools/wasnorm_wordpool_576.txt	LTP207	ltpFR2	14	11	TREAT	1501	n/a	n/a	0	0	0
2757783	DISTRACTOR	n/a	LTP207	ltpFR2	14	12	n/a	n/a	n/a	n/a	0	0	0
2757784	START	n/a	LTP207	ltpFR2	14	n/a	n/a	n/a	17	n/a	n/a	n/a	n/a
2757834	PROB	n/a	LTP207	ltpFR2	14	n/a	n/a	n/a	17	19	7	6	6
2761180	PROB	n/a	LTP207	ltpFR2	14	n/a	n/a	n/a	17	15	4	5	6
2763271	PROB	n/a	LTP207	ltpFR2	14	n/a	n/a	n/a	17	12	2	8	2
2765479	PROB	n/a	LTP207	ltpFR2	14	n/a	n/a	n/a	17	11	3	4	4
2766979	PROB	n/a	LTP207	ltpFR2	14	n/a	n/a	n/a	17	19	3	8	8
2768586	PROB	n/a	LTP207	ltpFR2	14	n/a	n/a	n/a	17	11	1	4	6
2769590	PROB	n/a	LTP207	ltpFR2	14	n/a	n/a	n/a	17	17	1	7	9
2770950	PROB	n/a	LTP207	ltpFR2	14	n/a	n/a	n/a	17	6	2	1	3
2772288	PROB	n/a	LTP207	ltpFR2	14	n/a	n/a	n/a	17	17	2	8	7
2775378	PROB	n/a	LTP207	ltpFR2	14	n/a	n/a	n/a	17	18	9	3	6
2776800	PROB	n/a	LTP207	ltpFR2	14	n/a	n/a	n/a	17	25	9	8	8
2778328	PROB	n/a	LTP207	ltpFR2	14	n/a	n/a	n/a	17	21	7	9	5
2779928	PROB	n/a	LTP207	ltpFR2	14	n/a	n/a	n/a	17	21	8	6	7
2781267	STOP	n/a	LTP207	ltpFR2	14	n/a	n/a	n/a	17	n/a	n/a	n/a	n/a
2782895	WORD	wordpools/wasnorm_wordpool_576.txt	LTP207	ltpFR2	14	12	PEACH	1031	n/a	n/a	0	0	0
2785387	WORD	wordpools/wasnorm_wordpool_576.txt	LTP207	ltpFR2	14	12	TOURIST	1488	n/a	n/a	0	0	0
2788013	WORD	wordpools/wasnorm_wordpool_576.txt	LTP207	ltpFR2	14	12	DOLPHIN	483	n/a	n/a	0	0	0
2790602	WORD	wordpools/wasnorm_wordpool_576.txt	LTP207	ltpFR2	14	12	SERVANT	1271	n/a	n/a	0	0	0
2793346	WORD	wordpools/wasnorm_wordpool_576.txt	LTP207	ltpFR2	14	12	MEDAL	885	n/a	n/a	0	0	0
2796028	WORD	wordpools/wasnorm_wordpool_576.txt	LTP207	ltpFR2	14	12	CURTAIN	427	n/a	n/a	0	0	0
2798838	WORD	wordpools/wasnorm_wordpool_576.txt	LTP207	ltpFR2	14	12	KLEENEX	782	n/a	n/a	0	0	0
2801515	WORD	wordpools/wasnorm_wordpool_576.txt	LTP207	ltpFR2	14	12	COBRA	336	n/a	n/a	0	0	0
2804192	WORD	wordpools/wasnorm_wordpool_576.txt	LTP207	ltpFR2	14	12	BREAST	171	n/a	n/a	0	0	0
2806684	WORD	wordpools/wasnorm_wordpool_576.txt	LTP207	ltpFR2	14	12	ROOSTER	1209	n/a	n/a	0	0	0
2809428	WORD	wordpools/wasnorm_wordpool_576.txt	LTP207	ltpFR2	14	12	MEAT	883	n/a	n/a	0	0	0
2811882	WORD	wordpools/wasnorm_wordpool_576.txt	LTP207	ltpFR2	14	12	WAITER	1580	n/a	n/a	0	0	0
2814531	WORD	wordpools/wasnorm_wordpool_576.txt	LTP207	ltpFR2	14	12	BURGLAR	200	n/a	n/a	0	0	0
2817040	WORD	wordpools/wasnorm_wordpool_576.txt	LTP207	ltpFR2	14	12	SUSPECT	1415	n/a	n/a	0	0	0
2819533	WORD	wordpools/wasnorm_wordpool_576.txt	LTP207	ltpFR2	14	12	SUITCASE	1403	n/a	n/a	0	0	0
2822109	WORD	wordpools/wasnorm_wordpool_576.txt	LTP207	ltpFR2	14	12	DRESSER	496	n/a	n/a	0	0	0
2824664	WORD	wordpools/wasnorm_wordpool_576.txt	LTP207	ltpFR2	14	12	JURY	766	n/a	n/a	0	0	0
2827195	WORD	wordpools/wasnorm_wordpool_576.txt	LTP207	ltpFR2	14	12	VICTIM	1562	n/a	n/a	0	0	0
2829649	WORD	wordpools/wasnorm_wordpool_576.txt	LTP207	ltpFR2	14	12	PAPER	1011	n/a	n/a	0	0	0
2832298	WORD	wordpools/wasnorm_wordpool_576.txt	LTP207	ltpFR2	14	12	CRATER	400	n/a	n/a	0	0	0
2834941	WORD	wordpools/wasnorm_wordpool_576.txt	LTP207	ltpFR2	14	12	REPORT	1184	n/a	n/a	0	0	0
2837701	WORD	wordpools/wasnorm_wordpool_576.txt	LTP207	ltpFR2	14	12	AWARD	63	n/a	n/a	0	0	0
2840390	WORD	wordpools/wasnorm_wordpool_576.txt	LTP207	ltpFR2	14	12	ISLAND	745	n/a	n/a	0	0	0
2843189	WORD	wordpools/wasnorm_wordpool_576.txt	LTP207	ltpFR2	14	12	CHEMIST	292	n/a	n/a	0	0	0
2844807	START	n/a	LTP207	ltpFR2	14	n/a	n/a	n/a	18	n/a	n/a	n/a	n/a
2845702	DISTRACTOR	n/a	LTP207	ltpFR2	14	12	n/a	n/a	n/a	n/a	0	0	0
2845715	PROB	n/a	LTP207	ltpFR2	14	n/a	n/a	n/a	18	22	5	8	9
2851231	PROB	n/a	LTP207	ltpFR2	14	n/a	n/a	n/a	18	13	9	3	1
2852357	PROB	n/a	LTP207	ltpFR2	14	n/a	n/a	n/a	18	23	9	6	8
2853990	PROB	n/a	LTP207	ltpFR2	14	n/a	n/a	n/a	18	12	3	7	2
2855100	PROB	n/a	LTP207	ltpFR2	14	n/a	n/a	n/a	18	8	2	5	1
2856388	PROB	n/a	LTP207	ltpFR2	14	n/a	n/a	n/a	18	16	7	8	1
2857755	PROB	n/a	LTP207	ltpFR2	14	n/a	n/a	n/a	18	16	3	4	9
2859082	PROB	n/a	LTP207	ltpFR2	14	n/a	n/a	n/a	18	17	6	9	2
2860521	PROB	n/a	LTP207	ltpFR2	14	n/a	n/a	n/a	18	5	2	1	2
2861524	PROB	n/a	LTP207	ltpFR2	14	n/a	n/a	n/a	18	13	7	1	5
2862979	PROB	n/a	LTP207	ltpFR2	14	n/a	n/a	n/a	18	11	8	2	1
2864653	PROB	n/a	LTP207	ltpFR2	14	n/a	n/a	n/a	18	18	5	7	6
2866388	PROB	n/a	LTP207	ltpFR2	14	n/a	n/a	n/a	18	13	5	4	4
2868019	STOP	n/a	LTP207	ltpFR2	14	n/a	n/a	n/a	18	n/a	n/a	n/a	n/a
2870621	REC_START	n/a	LTP207	ltpFR2	14	12	n/a	n/a	n/a	n/a	0	0	0
2875158	REC_WORD	wordpools/wasnorm_wordpool_576.txt	LTP207	ltpFR2	14	12	AWARD	63	n/a	n/a	0	0	0
2876249	REC_WORD	wordpools/wasnorm_wordpool_576.txt	LTP207	ltpFR2	14	12	MEDAL	885	n/a	n/a	0	0	0
2897312	REC_WORD	wordpools/wasnorm_wordpool_576.txt	LTP207	ltpFR2	14	12	ISLAND	745	n/a	n/a	0	0	0
2899283	REC_WORD_VV	wordpools/wasnorm_wordpool_576.txt	LTP207	ltpFR2	14	12	<>	-1	n/a	n/a	0	0	0
3008177	WORD	wordpools/wasnorm_wordpool_576.txt	LTP207	ltpFR2	14	13	FRANCE	601	n/a	n/a	0	0	0
3010670	WORD	wordpools/wasnorm_wordpool_576.txt	LTP207	ltpFR2	14	13	CITRUS	313	n/a	n/a	0	0	0
3013347	WORD	wordpools/wasnorm_wordpool_576.txt	LTP207	ltpFR2	14	13	HEDGE	699	n/a	n/a	0	0	0
3015873	WORD	wordpools/wasnorm_wordpool_576.txt	LTP207	ltpFR2	14	13	PAIL	1002	n/a	n/a	0	0	0
3018549	WORD	wordpools/wasnorm_wordpool_576.txt	LTP207	ltpFR2	14	13	XEROX	1628	n/a	n/a	0	0	0
3021159	WORD	wordpools/wasnorm_wordpool_576.txt	LTP207	ltpFR2	14	13	DAUGHTER	442	n/a	n/a	0	0	0
3023736	WORD	wordpools/wasnorm_wordpool_576.txt	LTP207	ltpFR2	14	13	PUDDING	1139	n/a	n/a	0	0	0
3026496	WORD	wordpools/wasnorm_wordpool_576.txt	LTP207	ltpFR2	14	13	LABEL	790	n/a	n/a	0	0	0
3029201	WORD	wordpools/wasnorm_wordpool_576.txt	LTP207	ltpFR2	14	13	LAGOON	795	n/a	n/a	0	0	0
3031883	WORD	wordpools/wasnorm_wordpool_576.txt	LTP207	ltpFR2	14	13	RAFT	1159	n/a	n/a	0	0	0
3034488	WORD	wordpools/wasnorm_wordpool_576.txt	LTP207	ltpFR2	14	13	SLUG	1329	n/a	n/a	0	0	0
3037165	WORD	wordpools/wasnorm_wordpool_576.txt	LTP207	ltpFR2	14	13	HIGHWAY	707	n/a	n/a	0	0	0
3039629	WORD	wordpools/wasnorm_wordpool_576.txt	LTP207	ltpFR2	14	13	SIDEWALK	1303	n/a	n/a	0	0	0
3042083	WORD	wordpools/wasnorm_wordpool_576.txt	LTP207	ltpFR2	14	13	CREVICE	405	n/a	n/a	0	0	0
3044715	WORD	wordpools/wasnorm_wordpool_576.txt	LTP207	ltpFR2	14	13	GREASE	660	n/a	n/a	0	0	0
3047408	WORD	wordpools/wasnorm_wordpool_576.txt	LTP207	ltpFR2	14	13	ATOM	55	n/a	n/a	0	0	0
3050185	WORD	wordpools/wasnorm_wordpool_576.txt	LTP207	ltpFR2	14	13	PORTRAIT	1111	n/a	n/a	0	0	0
3052896	WORD	wordpools/wasnorm_wordpool_576.txt	LTP207	ltpFR2	14	13	TAXI	1438	n/a	n/a	0	0	0
3055506	WORD	wordpools/wasnorm_wordpool_576.txt	LTP207	ltpFR2	14	13	HOOD	714	n/a	n/a	0	0	0
3058216	WORD	wordpools/wasnorm_wordpool_576.txt	LTP207	ltpFR2	14	13	TART	1436	n/a	n/a	0	0	0
3061009	WORD	wordpools/wasnorm_wordpool_576.txt	LTP207	ltpFR2	14	13	LIVER	833	n/a	n/a	0	0	0
3063486	WORD	wordpools/wasnorm_wordpool_576.txt	LTP207	ltpFR2	14	13	SHRUB	1299	n/a	n/a	0	0	0
3065957	WORD	wordpools/wasnorm_wordpool_576.txt	LTP207	ltpFR2	14	13	RECORD	1176	n/a	n/a	0	0	0
3068505	WORD	wordpools/wasnorm_wordpool_576.txt	LTP207	ltpFR2	14	13	FOREST	593	n/a	n/a	0	0	0
3070123	START	n/a	LTP207	ltpFR2	14	n/a	n/a	n/a	19	n/a	n/a	n/a	n/a
3070942	DISTRACTOR	n/a	LTP207	ltpFR2	14	13	n/a	n/a	n/a	n/a	0	0	0
3070959	PROB	n/a	LTP207	ltpFR2	14	n/a	n/a	n/a	19	13	3	7	3
3072670	PROB	n/a	LTP207	ltpFR2	14	n/a	n/a	n/a	19	7	1	1	5
3073836	PROB	n/a	LTP207	ltpFR2	14	n/a	n/a	n/a	19	13	5	5	3
3075241	PROB	n/a	LTP207	ltpFR2	14	n/a	n/a	n/a	19	16	5	9	2
3076747	PROB	n/a	LTP207	ltpFR2	14	n/a	n/a	n/a	19	13	5	3	5
3079111	PROB	n/a	LTP207	ltpFR2	14	n/a	n/a	n/a	19	11	5	5	1
3080043	PROB	n/a	LTP207	ltpFR2	14	n/a	n/a	n/a	19	22	9	9	4
3081515	PROB	n/a	LTP207	ltpFR2	14	n/a	n/a	n/a	19	18	5	6	7
3083272	PROB	n/a	LTP207	ltpFR2	14	n/a	n/a	n/a	19	15	6	3	6
3084582	PROB	n/a	LTP207	ltpFR2	14	n/a	n/a	n/a	19	15	9	6	1
3085815	PROB	n/a	LTP207	ltpFR2	14	n/a	n/a	n/a	19	12	6	1	5
3088257	PROB	n/a	LTP207	ltpFR2	14	n/a	n/a	n/a	19	15	9	5	1
3089316	PROB	n/a	LTP207	ltpFR2	14	n/a	n/a	n/a	19	19	4	7	8
3090738	PROB	n/a	LTP207	ltpFR2	14	n/a	n/a	n/a	19	15	5	9	1
3091943	PROB	n/a	LTP207	ltpFR2	14	n/a	n/a	n/a	19	13	9	2	2
3092947	STOP	n/a	LTP207	ltpFR2	14	n/a	n/a	n/a	19	n/a	n/a	n/a	n/a
3095937	REC_START	n/a	LTP207	ltpFR2	14	13	n/a	n/a	n/a	n/a	0	0	0
3098875	REC_WORD	wordpools/wasnorm_wordpool_576.txt	LTP207	ltpFR2	14	13	HEDGE	699	n/a	n/a	0	0	0
3099628	REC_WORD	wordpools/wasnorm_wordpool_576.txt	LTP207	ltpFR2	14	13	CITRUS	313	n/a	n/a	0	0	0
3100620	REC_WORD	wordpools/wasnorm_wordpool_576.txt	LTP207	ltpFR2	14	13	FRANCE	601	n/a	n/a	0	0	0
3102629	REC_WORD	wordpools/wasnorm_wordpool_576.txt	LTP207	ltpFR2	14	13	PAIL	1002	n/a	n/a	0	0	0
3107343	REC_WORD	wordpools/wasnorm_wordpool_576.txt	LTP207	ltpFR2	14	13	LAGOON	795	n/a	n/a	0	0	0
3187018	DISTRACTOR	n/a	LTP207	ltpFR2	14	14	n/a	n/a	n/a	n/a	0	0	0
3187018	START	n/a	LTP207	ltpFR2	14	n/a	n/a	n/a	20	n/a	n/a	n/a	n/a
3187080	PROB	n/a	LTP207	ltpFR2	14	n/a	n/a	n/a	20	14	1	4	8
3188925	PROB	n/a	LTP207	ltpFR2	14	n/a	n/a	n/a	20	19	8	3	8
3191429	PROB	n/a	LTP207	ltpFR2	14	n/a	n/a	n/a	20	18	6	5	7
3194625	PROB	n/a	LTP207	ltpFR2	14	n/a	n/a	n/a	20	15	4	8	3
3195968	PROB	n/a	LTP207	ltpFR2	14	n/a	n/a	n/a	20	18	9	4	5
3197357	PROB	n/a	LTP207	ltpFR2	14	n/a	n/a	n/a	20	16	6	9	1
3199682	PROB	n/a	LTP207	ltpFR2	14	n/a	n/a	n/a	20	17	5	3	9
3200949	PROB	n/a	LTP207	ltpFR2	14	n/a	n/a	n/a	20	9	3	3	3
3201985	PROB	n/a	LTP207	ltpFR2	14	n/a	n/a	n/a	20	13	6	6	1
3203078	PROB	n/a	LTP207	ltpFR2	14	n/a	n/a	n/a	20	10	3	1	6
3204367	PROB	n/a	LTP207	ltpFR2	14	n/a	n/a	n/a	20	17	9	7	1
3205666	PROB	n/a	LTP207	ltpFR2	14	n/a	n/a	n/a	20	18	5	9	4
3207004	PROB	n/a	LTP207	ltpFR2	14	n/a	n/a	n/a	20	15	1	8	6
3209063	PROB	n/a	LTP207	ltpFR2	14	n/a	n/a	n/a	20	13	2	9	2
3210259	STOP	n/a	LTP207	ltpFR2	14	n/a	n/a	n/a	20	n/a	n/a	n/a	n/a
3212045	WORD	wordpools/wasnorm_wordpool_576.txt	LTP207	ltpFR2	14	14	PLUTO	1092	n/a	n/a	0	0	0
3214516	WORD	wordpools/wasnorm_wordpool_576.txt	LTP207	ltpFR2	14	14	MARSH	874	n/a	n/a	0	0	0
3217093	WORD	wordpools/wasnorm_wordpool_576.txt	LTP207	ltpFR2	14	14	MAMMAL	861	n/a	n/a	0	0	0
3219691	WORD	wordpools/wasnorm_wordpool_576.txt	LTP207	ltpFR2	14	14	TORTOISE	1486	n/a	n/a	0	0	0
3222229	WORD	wordpools/wasnorm_wordpool_576.txt	LTP207	ltpFR2	14	14	PISTOL	1075	n/a	n/a	0	0	0
3225044	WORD	wordpools/wasnorm_wordpool_576.txt	LTP207	ltpFR2	14	14	BULLET	194	n/a	n/a	0	0	0
3227587	WORD	wordpools/wasnorm_wordpool_576.txt	LTP207	ltpFR2	14	14	MOP	916	n/a	n/a	0	0	0
3230398	WORD	wordpools/wasnorm_wordpool_576.txt	LTP207	ltpFR2	14	14	WIDOW	1608	n/a	n/a	0	0	0
3233153	WORD	wordpools/wasnorm_wordpool_576.txt	LTP207	ltpFR2	14	14	SALT	1229	n/a	n/a	0	0	0
3235584	WORD	wordpools/wasnorm_wordpool_576.txt	LTP207	ltpFR2	14	14	NURSE	963	n/a	n/a	0	0	0
3238211	WORD	wordpools/wasnorm_wordpool_576.txt	LTP207	ltpFR2	14	14	FREEZER	604	n/a	n/a	0	0	0
3240653	WORD	wordpools/wasnorm_wordpool_576.txt	LTP207	ltpFR2	14	14	PILOT	1070	n/a	n/a	0	0	0
3243112	WORD	wordpools/wasnorm_wordpool_576.txt	LTP207	ltpFR2	14	14	TURNIP	1521	n/a	n/a	0	0	0
3245923	WORD	wordpools/wasnorm_wordpool_576.txt	LTP207	ltpFR2	14	14	PEPPER	1047	n/a	n/a	0	0	0
3248533	WORD	wordpools/wasnorm_wordpool_576.txt	LTP207	ltpFR2	14	14	SCALPEL	1243	n/a	n/a	0	0	0
3251305	WORD	wordpools/wasnorm_wordpool_576.txt	LTP207	ltpFR2	14	14	SWORD	1423	n/a	n/a	0	0	0
3253836	WORD	wordpools/wasnorm_wordpool_576.txt	LTP207	ltpFR2	14	14	DRUG	501	n/a	n/a	0	0	0
3256296	WORD	wordpools/wasnorm_wordpool_576.txt	LTP207	ltpFR2	14	14	PRIMATE	1123	n/a	n/a	0	0	0
3258805	WORD	wordpools/wasnorm_wordpool_576.txt	LTP207	ltpFR2	14	14	NAPKIN	937	n/a	n/a	0	0	0
3261398	WORD	wordpools/wasnorm_wordpool_576.txt	LTP207	ltpFR2	14	14	BROOK	177	n/a	n/a	0	0	0
3264225	WORD	wordpools/wasnorm_wordpool_576.txt	LTP207	ltpFR2	14	14	LAVA	804	n/a	n/a	0	0	0
3266713	WORD	wordpools/wasnorm_wordpool_576.txt	LTP207	ltpFR2	14	14	CRUTCH	417	n/a	n/a	0	0	0
3269395	WORD	wordpools/wasnorm_wordpool_576.txt	LTP207	ltpFR2	14	14	PIZZA	1079	n/a	n/a	0	0	0
3272105	WORD	wordpools/wasnorm_wordpool_576.txt	LTP207	ltpFR2	14	14	KNIFE	785	n/a	n/a	0	0	0
3273711	START	n/a	LTP207	ltpFR2	14	n/a	n/a	n/a	21	n/a	n/a	n/a	n/a
3274870	DISTRACTOR	n/a	LTP207	ltpFR2	14	14	n/a	n/a	n/a	n/a	0	0	0
3274882	PROB	n/a	LTP207	ltpFR2	14	n/a	n/a	n/a	21	11	4	1	6
3276299	PROB	n/a	LTP207	ltpFR2	14	n/a	n/a	n/a	21	18	9	2	7
3279009	PROB	n/a	LTP207	ltpFR2	14	n/a	n/a	n/a	21	22	4	9	9
3281206	PROB	n/a	LTP207	ltpFR2	14	n/a	n/a	n/a	21	16	9	2	5
3282489	PROB	n/a	LTP207	ltpFR2	14	n/a	n/a	n/a	21	9	6	2	1
3284981	PROB	n/a	LTP207	ltpFR2	14	n/a	n/a	n/a	21	20	7	9	4
3288043	PROB	n/a	LTP207	ltpFR2	14	n/a	n/a	n/a	21	14	8	5	1
3289549	PROB	n/a	LTP207	ltpFR2	14	n/a	n/a	n/a	21	13	5	6	2
3291490	PROB	n/a	LTP207	ltpFR2	14	n/a	n/a	n/a	21	12	8	2	2
3292599	PROB	n/a	LTP207	ltpFR2	14	n/a	n/a	n/a	21	10	3	4	3
3293937	PROB	n/a	LTP207	ltpFR2	14	n/a	n/a	n/a	21	17	5	3	9
3295359	PROB	n/a	LTP207	ltpFR2	14	n/a	n/a	n/a	21	17	4	7	6
3297035	STOP	n/a	LTP207	ltpFR2	14	n/a	n/a	n/a	21	n/a	n/a	n/a	n/a
3299610	REC_START	n/a	LTP207	ltpFR2	14	14	n/a	n/a	n/a	n/a	0	0	0
3300788	REC_WORD	wordpools/wasnorm_wordpool_576.txt	LTP207	ltpFR2	14	14	PLUTO	1092	n/a	n/a	0	0	0
3301817	REC_WORD_VV	wordpools/wasnorm_wordpool_576.txt	LTP207	ltpFR2	14	14	<>	-1	n/a	n/a	0	0	0
3302148	REC_WORD	wordpools/wasnorm_wordpool_576.txt	LTP207	ltpFR2	14	14	MARSH	874	n/a	n/a	0	0	0
3303403	REC_WORD	wordpools/wasnorm_wordpool_576.txt	LTP207	ltpFR2	14	14	MAMMAL	861	n/a	n/a	0	0	0
3304479	REC_WORD	wordpools/wasnorm_wordpool_576.txt	LTP207	ltpFR2	14	14	TORTOISE	1486	n/a	n/a	0	0	0
3305958	REC_WORD	wordpools/wasnorm_wordpool_576.txt	LTP207	ltpFR2	14	14	PISTOL	1075	n/a	n/a	0	0	0
3307483	REC_WORD	wordpools/wasnorm_wordpool_576.txt	LTP207	ltpFR2	14	14	BULLET	194	n/a	n/a	0	0	0
3309736	REC_WORD	wordpools/wasnorm_wordpool_576.txt	LTP207	ltpFR2	14	14	PILOT	1070	n/a	n/a	0	0	0
3312900	REC_WORD	wordpools/wasnorm_wordpool_576.txt	LTP207	ltpFR2	14	14	WIDOW	1608	n/a	n/a	0	0	0
3314350	REC_WORD	wordpools/wasnorm_wordpool_576.txt	LTP207	ltpFR2	14	14	TURNIP	1521	n/a	n/a	0	0	0
3390719	WORD	wordpools/wasnorm_wordpool_576.txt	LTP207	ltpFR2	14	15	LACE	792	n/a	n/a	0	0	0
3393529	WORD	wordpools/wasnorm_wordpool_576.txt	LTP207	ltpFR2	14	15	DINER	467	n/a	n/a	0	0	0
3396184	WORD	wordpools/wasnorm_wordpool_576.txt	LTP207	ltpFR2	14	15	DRAGON	492	n/a	n/a	0	0	0
3398749	WORD	wordpools/wasnorm_wordpool_576.txt	LTP207	ltpFR2	14	15	DAISY	435	n/a	n/a	0	0	0
3401392	WORD	wordpools/wasnorm_wordpool_576.txt	LTP207	ltpFR2	14	15	ORCHID	982	n/a	n/a	0	0	0
3404036	WORD	wordpools/wasnorm_wordpool_576.txt	LTP207	ltpFR2	14	15	RUST	1219	n/a	n/a	0	0	0
3406791	WORD	wordpools/wasnorm_wordpool_576.txt	LTP207	ltpFR2	14	15	GRILL	661	n/a	n/a	0	0	0
3409255	WORD	wordpools/wasnorm_wordpool_576.txt	LTP207	ltpFR2	14	15	RATTLE	1170	n/a	n/a	0	0	0
3411748	WORD	wordpools/wasnorm_wordpool_576.txt	LTP207	ltpFR2	14	15	RACKET	1155	n/a	n/a	0	0	0
3414207	WORD	wordpools/wasnorm_wordpool_576.txt	LTP207	ltpFR2	14	15	SHELF	1280	n/a	n/a	0	0	0
3416978	WORD	wordpools/wasnorm_wordpool_576.txt	LTP207	ltpFR2	14	15	SALMON	1227	n/a	n/a	0	0	0
3419762	WORD	wordpools/wasnorm_wordpool_576.txt	LTP207	ltpFR2	14	15	CHEST	295	n/a	n/a	0	0	0
3422333	WORD	wordpools/wasnorm_wordpool_576.txt	LTP207	ltpFR2	14	15	PATROL	1027	n/a	n/a	0	0	0
3425065	WORD	wordpools/wasnorm_wordpool_576.txt	LTP207	ltpFR2	14	15	CARROT	249	n/a	n/a	0	0	0
3427625	WORD	wordpools/wasnorm_wordpool_576.txt	LTP207	ltpFR2	14	15	CANYON	235	n/a	n/a	0	0	0
3430318	WORD	wordpools/wasnorm_wordpool_576.txt	LTP207	ltpFR2	14	15	RIFLE	1192	n/a	n/a	0	0	0
3432844	WORD	wordpools/wasnorm_wordpool_576.txt	LTP207	ltpFR2	14	15	GANGSTER	620	n/a	n/a	0	0	0
3435667	WORD	wordpools/wasnorm_wordpool_576.txt	LTP207	ltpFR2	14	15	PRINCE	1124	n/a	n/a	0	0	0
3438410	WORD	wordpools/wasnorm_wordpool_576.txt	LTP207	ltpFR2	14	15	THRONE	1461	n/a	n/a	0	0	0
3441025	WORD	wordpools/wasnorm_wordpool_576.txt	LTP207	ltpFR2	14	15	CROSS	413	n/a	n/a	0	0	0
3443735	WORD	wordpools/wasnorm_wordpool_576.txt	LTP207	ltpFR2	14	15	TABLET	1427	n/a	n/a	0	0	0
3446412	WORD	wordpools/wasnorm_wordpool_576.txt	LTP207	ltpFR2	14	15	JUNGLE	764	n/a	n/a	0	0	0
3449084	WORD	wordpools/wasnorm_wordpool_576.txt	LTP207	ltpFR2	14	15	AUTHOR	61	n/a	n/a	0	0	0
3451548	WORD	wordpools/wasnorm_wordpool_576.txt	LTP207	ltpFR2	14	15	CABIN	211	n/a	n/a	0	0	0
3453154	START	n/a	LTP207	ltpFR2	14	n/a	n/a	n/a	22	n/a	n/a	n/a	n/a
3454301	DISTRACTOR	n/a	LTP207	ltpFR2	14	15	n/a	n/a	n/a	n/a	0	0	0
3454308	PROB	n/a	LTP207	ltpFR2	14	n/a	n/a	n/a	22	20	2	9	9
3456060	PROB	n/a	LTP207	ltpFR2	14	n/a	n/a	n/a	22	19	7	7	5
3457487	PROB	n/a	LTP207	ltpFR2	14	n/a	n/a	n/a	22	11	1	2	8
3458469	PROB	n/a	LTP207	ltpFR2	14	n/a	n/a	n/a	22	16	6	9	1
3460699	PROB	n/a	LTP207	ltpFR2	14	n/a	n/a	n/a	22	9	6	1	2
3461882	PROB	n/a	LTP207	ltpFR2	14	n/a	n/a	n/a	22	19	4	6	9
3463125	PROB	n/a	LTP207	ltpFR2	14	n/a	n/a	n/a	22	10	2	4	4
3464447	PROB	n/a	LTP207	ltpFR2	14	n/a	n/a	n/a	22	12	5	5	2
3465601	PROB	n/a	LTP207	ltpFR2	14	n/a	n/a	n/a	22	15	6	8	1
3467185	PROB	n/a	LTP207	ltpFR2	14	n/a	n/a	n/a	22	18	1	8	9
3469047	PROB	n/a	LTP207	ltpFR2	14	n/a	n/a	n/a	22	9	1	1	7
3470118	PROB	n/a	LTP207	ltpFR2	14	n/a	n/a	n/a	22	15	8	3	4
3471284	PROB	n/a	LTP207	ltpFR2	14	n/a	n/a	n/a	22	6	1	2	3
3472393	PROB	n/a	LTP207	ltpFR2	14	n/a	n/a	n/a	22	13	6	6	1
3473727	PROB	n/a	LTP207	ltpFR2	14	n/a	n/a	n/a	22	14	4	1	9
3477154	STOP	n/a	LTP207	ltpFR2	14	n/a	n/a	n/a	22	n/a	n/a	n/a	n/a
3478964	REC_START	n/a	LTP207	ltpFR2	14	15	n/a	n/a	n/a	n/a	0	0	0
3505095	REC_WORD	wordpools/wasnorm_wordpool_576.txt	LTP207	ltpFR2	14	15	RUST	1219	n/a	n/a	0	0	0
3570107	DISTRACTOR	n/a	LTP207	ltpFR2	14	16	n/a	n/a	n/a	n/a	0	0	0
3570107	START	n/a	LTP207	ltpFR2	14	n/a	n/a	n/a	23	n/a	n/a	n/a	n/a
3570162	PROB	n/a	LTP207	ltpFR2	14	n/a	n/a	n/a	23	20	8	3	9
3571801	PROB	n/a	LTP207	ltpFR2	14	n/a	n/a	n/a	23	15	3	8	4
3573056	PROB	n/a	LTP207	ltpFR2	14	n/a	n/a	n/a	23	7	1	5	1
3574277	PROB	n/a	LTP207	ltpFR2	14	n/a	n/a	n/a	23	19	7	5	7
3575666	PROB	n/a	LTP207	ltpFR2	14	n/a	n/a	n/a	23	21	8	9	4
3577267	PROB	n/a	LTP207	ltpFR2	14	n/a	n/a	n/a	23	4	1	2	1
3578410	PROB	n/a	LTP207	ltpFR2	14	n/a	n/a	n/a	23	11	9	1	1
3579960	PROB	n/a	LTP207	ltpFR2	14	n/a	n/a	n/a	23	12	2	7	3
3581404	PROB	n/a	LTP207	ltpFR2	14	n/a	n/a	n/a	23	12	4	4	4
3582386	PROB	n/a	LTP207	ltpFR2	14	n/a	n/a	n/a	23	18	4	7	7
3583880	PROB	n/a	LTP207	ltpFR2	14	n/a	n/a	n/a	23	14	9	3	2
3584995	PROB	n/a	LTP207	ltpFR2	14	n/a	n/a	n/a	23	12	8	3	1
3586105	PROB	n/a	LTP207	ltpFR2	14	n/a	n/a	n/a	23	10	4	4	2
3587388	PROB	n/a	LTP207	ltpFR2	14	n/a	n/a	n/a	23	17	1	7	9
3588832	PROB	n/a	LTP207	ltpFR2	14	n/a	n/a	n/a	23	16	9	4	3
3590221	PROB	n/a	LTP207	ltpFR2	14	n/a	n/a	n/a	23	12	1	5	6
3591286	PROB	n/a	LTP207	ltpFR2	14	n/a	n/a	n/a	23	14	1	8	5
3592787	STOP	n/a	LTP207	ltpFR2	14	n/a	n/a	n/a	23	n/a	n/a	n/a	n/a
3595034	WORD	wordpools/wasnorm_wordpool_576.txt	LTP207	ltpFR2	14	16	BUGGY	188	n/a	n/a	0	0	0
3597582	WORD	wordpools/wasnorm_wordpool_576.txt	LTP207	ltpFR2	14	16	VALVE	1546	n/a	n/a	0	0	0
3600024	WORD	wordpools/wasnorm_wordpool_576.txt	LTP207	ltpFR2	14	16	HEADBAND	696	n/a	n/a	0	0	0
3602802	WORD	wordpools/wasnorm_wordpool_576.txt	LTP207	ltpFR2	14	16	GRIZZLY	662	n/a	n/a	0	0	0
3605227	WORD	wordpools/wasnorm_wordpool_576.txt	LTP207	ltpFR2	14	16	WIFE	1609	n/a	n/a	0	0	0
3607849	WORD	wordpools/wasnorm_wordpool_576.txt	LTP207	ltpFR2	14	16	BLOCKADE	137	n/a	n/a	0	0	0
3610280	WORD	wordpools/wasnorm_wordpool_576.txt	LTP207	ltpFR2	14	16	OYSTER	995	n/a	n/a	0	0	0
3612739	WORD	wordpools/wasnorm_wordpool_576.txt	LTP207	ltpFR2	14	16	FLUTE	585	n/a	n/a	0	0	0
3615315	WORD	wordpools/wasnorm_wordpool_576.txt	LTP207	ltpFR2	14	16	FARMER	553	n/a	n/a	0	0	0
3617758	WORD	wordpools/wasnorm_wordpool_576.txt	LTP207	ltpFR2	14	16	BANQUET	86	n/a	n/a	0	0	0
3620535	WORD	wordpools/wasnorm_wordpool_576.txt	LTP207	ltpFR2	14	16	ONION	977	n/a	n/a	0	0	0
3623173	WORD	wordpools/wasnorm_wordpool_576.txt	LTP207	ltpFR2	14	16	DUST	508	n/a	n/a	0	0	0
3625649	WORD	wordpools/wasnorm_wordpool_576.txt	LTP207	ltpFR2	14	16	CUPBOARD	425	n/a	n/a	0	0	0
3628331	WORD	wordpools/wasnorm_wordpool_576.txt	LTP207	ltpFR2	14	16	CASHEW	253	n/a	n/a	0	0	0
3631041	WORD	wordpools/wasnorm_wordpool_576.txt	LTP207	ltpFR2	14	16	ZIPPER	1636	n/a	n/a	0	0	0
3633751	WORD	wordpools/wasnorm_wordpool_576.txt	LTP207	ltpFR2	14	16	CLAM	315	n/a	n/a	0	0	0
3636289	WORD	wordpools/wasnorm_wordpool_576.txt	LTP207	ltpFR2	14	16	SHOVEL	1295	n/a	n/a	0	0	0
3638854	WORD	wordpools/wasnorm_wordpool_576.txt	LTP207	ltpFR2	14	16	LAPEL	800	n/a	n/a	0	0	0
3641626	WORD	wordpools/wasnorm_wordpool_576.txt	LTP207	ltpFR2	14	16	DANDRUFF	439	n/a	n/a	0	0	0
3644341	WORD	wordpools/wasnorm_wordpool_576.txt	LTP207	ltpFR2	14	16	OMELET	976	n/a	n/a	0	0	0
3646968	WORD	wordpools/wasnorm_wordpool_576.txt	LTP207	ltpFR2	14	16	COOK	372	n/a	n/a	0	0	0
3649578	WORD	wordpools/wasnorm_wordpool_576.txt	LTP207	ltpFR2	14	16	PICNIC	1060	n/a	n/a	0	0	0
3652087	WORD	wordpools/wasnorm_wordpool_576.txt	LTP207	ltpFR2	14	16	GAVEL	627	n/a	n/a	0	0	0
3654881	WORD	wordpools/wasnorm_wordpool_576.txt	LTP207	ltpFR2	14	16	JUDGE	761	n/a	n/a	0	0	0
3656488	START	n/a	LTP207	ltpFR2	14	n/a	n/a	n/a	24	n/a	n/a	n/a	n/a
3657682	DISTRACTOR	n/a	LTP207	ltpFR2	14	16	n/a	n/a	n/a	n/a	0	0	0
3657692	PROB	n/a	LTP207	ltpFR2	14	n/a	n/a	n/a	24	6	2	1	3
3659276	PROB	n/a	LTP207	ltpFR2	14	n/a	n/a	n/a	24	23	7	8	8
3661473	PROB	n/a	LTP207	ltpFR2	14	n/a	n/a	n/a	24	9	3	3	3
3662577	PROB	n/a	LTP207	ltpFR2	14	n/a	n/a	n/a	24	20	9	8	3
3663915	PROB	n/a	LTP207	ltpFR2	14	n/a	n/a	n/a	24	23	8	6	9
3665282	PROB	n/a	LTP207	ltpFR2	14	n/a	n/a	n/a	24	10	1	3	6
3666793	PROB	n/a	LTP207	ltpFR2	14	n/a	n/a	n/a	24	4	2	1	1
3667974	PROB	n/a	LTP207	ltpFR2	14	n/a	n/a	n/a	24	17	3	6	8
3669598	PROB	n/a	LTP207	ltpFR2	14	n/a	n/a	n/a	24	20	3	9	8
3671924	PROB	n/a	LTP207	ltpFR2	14	n/a	n/a	n/a	24	21	7	8	6
3673234	PROB	n/a	LTP207	ltpFR2	14	n/a	n/a	n/a	24	21	9	6	6
3674416	PROB	n/a	LTP207	ltpFR2	14	n/a	n/a	n/a	24	14	2	3	9
3675676	PROB	n/a	LTP207	ltpFR2	14	n/a	n/a	n/a	24	10	1	4	5
3676876	PROB	n/a	LTP207	ltpFR2	14	n/a	n/a	n/a	24	20	3	8	9
3678970	STOP	n/a	LTP207	ltpFR2	14	n/a	n/a	n/a	24	n/a	n/a	n/a	n/a
3682397	REC_START	n/a	LTP207	ltpFR2	14	16	n/a	n/a	n/a	n/a	0	0	0
3683765	REC_WORD	wordpools/wasnorm_wordpool_576.txt	LTP207	ltpFR2	14	16	GAVEL	627	n/a	n/a	0	0	0
3684540	REC_WORD	wordpools/wasnorm_wordpool_576.txt	LTP207	ltpFR2	14	16	JUDGE	761	n/a	n/a	0	0	0
3685492	REC_WORD	wordpools/wasnorm_wordpool_576.txt	LTP207	ltpFR2	14	16	PICNIC	1060	n/a	n/a	0	0	0
3759203	REST_REWET	n/a	LTP207	ltpFR2	14	16	n/a	n/a	n/a	n/a	0	0	0
4130758	WORD	wordpools/wasnorm_wordpool_576.txt	LTP207	ltpFR2	14	17	SLIDE	1326	n/a	n/a	0	0	0
4133535	WORD	wordpools/wasnorm_wordpool_576.txt	LTP207	ltpFR2	14	17	TERMITE	1451	n/a	n/a	0	0	0
4136162	WORD	wordpools/wasnorm_wordpool_576.txt	LTP207	ltpFR2	14	17	DRILL	497	n/a	n/a	0	0	0
4138889	WORD	wordpools/wasnorm_wordpool_576.txt	LTP207	ltpFR2	14	17	PROTON	1132	n/a	n/a	0	0	0
4141644	WORD	wordpools/wasnorm_wordpool_576.txt	LTP207	ltpFR2	14	17	EXPERT	543	n/a	n/a	0	0	0
4144075	WORD	wordpools/wasnorm_wordpool_576.txt	LTP207	ltpFR2	14	17	COLONEL	348	n/a	n/a	0	0	0
4146802	WORD	wordpools/wasnorm_wordpool_576.txt	LTP207	ltpFR2	14	17	KEEPER	769	n/a	n/a	0	0	0
4149239	WORD	wordpools/wasnorm_wordpool_576.txt	LTP207	ltpFR2	14	17	CAFE	216	n/a	n/a	0	0	0
4151782	WORD	wordpools/wasnorm_wordpool_576.txt	LTP207	ltpFR2	14	17	BIKE	125	n/a	n/a	0	0	0
4154247	WORD	wordpools/wasnorm_wordpool_576.txt	LTP207	ltpFR2	14	17	PERMIT	1051	n/a	n/a	0	0	0
4157006	WORD	wordpools/wasnorm_wordpool_576.txt	LTP207	ltpFR2	14	17	CANAL	226	n/a	n/a	0	0	0
4159633	WORD	wordpools/wasnorm_wordpool_576.txt	LTP207	ltpFR2	14	17	GARDEN	623	n/a	n/a	0	0	0
4162327	WORD	wordpools/wasnorm_wordpool_576.txt	LTP207	ltpFR2	14	17	GARBAGE	622	n/a	n/a	0	0	0
4164786	WORD	wordpools/wasnorm_wordpool_576.txt	LTP207	ltpFR2	14	17	POCKET	1093	n/a	n/a	0	0	0
4167441	WORD	wordpools/wasnorm_wordpool_576.txt	LTP207	ltpFR2	14	17	HANDBAG	684	n/a	n/a	0	0	0
4170202	WORD	wordpools/wasnorm_wordpool_576.txt	LTP207	ltpFR2	14	17	BLENDER	136	n/a	n/a	0	0	0
4172945	WORD	wordpools/wasnorm_wordpool_576.txt	LTP207	ltpFR2	14	17	ATLAS	53	n/a	n/a	0	0	0
4175677	WORD	wordpools/wasnorm_wordpool_576.txt	LTP207	ltpFR2	14	17	WORLD	1622	n/a	n/a	0	0	0
4178170	WORD	wordpools/wasnorm_wordpool_576.txt	LTP207	ltpFR2	14	17	FLOWER	584	n/a	n/a	0	0	0
4180980	WORD	wordpools/wasnorm_wordpool_576.txt	LTP207	ltpFR2	14	17	SANDWICH	1232	n/a	n/a	0	0	0
4183657	WORD	wordpools/wasnorm_wordpool_576.txt	LTP207	ltpFR2	14	17	COUNTRY	388	n/a	n/a	0	0	0
4186128	WORD	wordpools/wasnorm_wordpool_576.txt	LTP207	ltpFR2	14	17	CAMEL	223	n/a	n/a	0	0	0
4188843	WORD	wordpools/wasnorm_wordpool_576.txt	LTP207	ltpFR2	14	17	GUARD	667	n/a	n/a	0	0	0
4191437	WORD	wordpools/wasnorm_wordpool_576.txt	LTP207	ltpFR2	14	17	CRAYON	401	n/a	n/a	0	0	0
4193043	START	n/a	LTP207	ltpFR2	14	n/a	n/a	n/a	25	n/a	n/a	n/a	n/a
4194089	DISTRACTOR	n/a	LTP207	ltpFR2	14	17	n/a	n/a	n/a	n/a	0	0	0
4194097	PROB	n/a	LTP207	ltpFR2	14	n/a	n/a	n/a	25	13	3	8	2
4197777	PROB	n/a	LTP207	ltpFR2	14	n/a	n/a	n/a	25	11	6	2	3
4199228	PROB	n/a	LTP207	ltpFR2	14	n/a	n/a	n/a	25	23	9	8	6
4201274	PROB	n/a	LTP207	ltpFR2	14	n/a	n/a	n/a	25	10	7	1	2
4202763	PROB	n/a	LTP207	ltpFR2	14	n/a	n/a	n/a	25	23	5	9	9
4204268	PROB	n/a	LTP207	ltpFR2	14	n/a	n/a	n/a	25	22	9	4	9
4205719	PROB	n/a	LTP207	ltpFR2	14	n/a	n/a	n/a	25	21	8	5	9
4207358	PROB	n/a	LTP207	ltpFR2	14	n/a	n/a	n/a	25	19	8	9	2
4208852	PROB	n/a	LTP207	ltpFR2	14	n/a	n/a	n/a	25	23	6	9	8
4211859	PROB	n/a	LTP207	ltpFR2	14	n/a	n/a	n/a	25	11	4	5	2
4213230	PROB	n/a	LTP207	ltpFR2	14	n/a	n/a	n/a	25	8	1	2	5
4217043	STOP	n/a	LTP207	ltpFR2	14	n/a	n/a	n/a	25	n/a	n/a	n/a	n/a
4218919	REC_START	n/a	LTP207	ltpFR2	14	17	n/a	n/a	n/a	n/a	0	0	0
4219790	REC_WORD	wordpools/wasnorm_wordpool_576.txt	LTP207	ltpFR2	14	17	CRAYON	401	n/a	n/a	0	0	0
4221477	REC_WORD	wordpools/wasnorm_wordpool_576.txt	LTP207	ltpFR2	14	17	CANYON	235	n/a	n/a	0	0	0
4223841	REC_WORD	wordpools/wasnorm_wordpool_576.txt	LTP207	ltpFR2	14	17	GUARD	667	n/a	n/a	0	0	0
4256294	REC_WORD	wordpools/wasnorm_wordpool_576.txt	LTP207	ltpFR2	14	17	PROTON	1132	n/a	n/a	0	0	0
4257239	REC_WORD	wordpools/wasnorm_wordpool_576.txt	LTP207	ltpFR2	14	17	EXPERT	543	n/a	n/a	0	0	0
4310117	WORD	wordpools/wasnorm_wordpool_576.txt	LTP207	ltpFR2	14	18	QUAIL	1147	n/a	n/a	0	0	0
4312827	WORD	wordpools/wasnorm_wordpool_576.txt	LTP207	ltpFR2	14	18	CRAB	397	n/a	n/a	0	0	0
4315600	WORD	wordpools/wasnorm_wordpool_576.txt	LTP207	ltpFR2	14	18	STOVE	1388	n/a	n/a	0	0	0
4318097	WORD	wordpools/wasnorm_wordpool_576.txt	LTP207	ltpFR2	14	18	HORNET	718	n/a	n/a	0	0	0
4320691	WORD	wordpools/wasnorm_wordpool_576.txt	LTP207	ltpFR2	14	18	HONEY	713	n/a	n/a	0	0	0
4323484	WORD	wordpools/wasnorm_wordpool_576.txt	LTP207	ltpFR2	14	18	SCALLOP	1242	n/a	n/a	0	0	0
4325955	WORD	wordpools/wasnorm_wordpool_576.txt	LTP207	ltpFR2	14	18	DENTIST	447	n/a	n/a	0	0	0
4328532	WORD	wordpools/wasnorm_wordpool_576.txt	LTP207	ltpFR2	14	18	MARINE	869	n/a	n/a	0	0	0
4331230	WORD	wordpools/wasnorm_wordpool_576.txt	LTP207	ltpFR2	14	18	SPOON	1357	n/a	n/a	0	0	0
4333768	WORD	wordpools/wasnorm_wordpool_576.txt	LTP207	ltpFR2	14	18	KNAPSACK	783	n/a	n/a	0	0	0
4336483	WORD	wordpools/wasnorm_wordpool_576.txt	LTP207	ltpFR2	14	18	ARMY	39	n/a	n/a	0	0	0
4338954	WORD	wordpools/wasnorm_wordpool_576.txt	LTP207	ltpFR2	14	18	CONVICT	371	n/a	n/a	0	0	0
4341486	WORD	wordpools/wasnorm_wordpool_576.txt	LTP207	ltpFR2	14	18	SURVEY	1414	n/a	n/a	0	0	0
4343994	WORD	wordpools/wasnorm_wordpool_576.txt	LTP207	ltpFR2	14	18	MUFFIN	929	n/a	n/a	0	0	0
4346806	WORD	wordpools/wasnorm_wordpool_576.txt	LTP207	ltpFR2	14	18	PEANUT	1032	n/a	n/a	0	0	0
4349382	WORD	wordpools/wasnorm_wordpool_576.txt	LTP207	ltpFR2	14	18	FRAME	600	n/a	n/a	0	0	0
4351903	WORD	wordpools/wasnorm_wordpool_576.txt	LTP207	ltpFR2	14	18	LILY	821	n/a	n/a	0	0	0
4354685	WORD	wordpools/wasnorm_wordpool_576.txt	LTP207	ltpFR2	14	18	PEDAL	1037	n/a	n/a	0	0	0
4357195	WORD	wordpools/wasnorm_wordpool_576.txt	LTP207	ltpFR2	14	18	COTTAGE	384	n/a	n/a	0	0	0
4359888	WORD	wordpools/wasnorm_wordpool_576.txt	LTP207	ltpFR2	14	18	HAWK	692	n/a	n/a	0	0	0
4362448	WORD	wordpools/wasnorm_wordpool_576.txt	LTP207	ltpFR2	14	18	FIREPLACE	570	n/a	n/a	0	0	0
4365091	WORD	wordpools/wasnorm_wordpool_576.txt	LTP207	ltpFR2	14	18	HUSBAND	728	n/a	n/a	0	0	0
4367517	WORD	wordpools/wasnorm_wordpool_576.txt	LTP207	ltpFR2	14	18	COWBOY	395	n/a	n/a	0	0	0
4370289	WORD	wordpools/wasnorm_wordpool_576.txt	LTP207	ltpFR2	14	18	WINDOW	1611	n/a	n/a	0	0	0
4371900	START	n/a	LTP207	ltpFR2	14	n/a	n/a	n/a	26	n/a	n/a	n/a	n/a
4373039	DISTRACTOR	n/a	LTP207	ltpFR2	14	18	n/a	n/a	n/a	n/a	0	0	0
4373054	PROB	n/a	LTP207	ltpFR2	14	n/a	n/a	n/a	26	17	6	9	2
4374756	PROB	n/a	LTP207	ltpFR2	14	n/a	n/a	n/a	26	23	8	6	9
4378537	PROB	n/a	LTP207	ltpFR2	14	n/a	n/a	n/a	26	17	8	6	3
4381046	PROB	n/a	LTP207	ltpFR2	14	n/a	n/a	n/a	26	21	8	5	8
4382607	PROB	n/a	LTP207	ltpFR2	14	n/a	n/a	n/a	26	16	5	4	7
4383890	PROB	n/a	LTP207	ltpFR2	14	n/a	n/a	n/a	26	17	8	6	3
4386053	PROB	n/a	LTP207	ltpFR2	14	n/a	n/a	n/a	26	10	7	1	2
4387643	PROB	n/a	LTP207	ltpFR2	14	n/a	n/a	n/a	26	12	3	6	3
4389277	PROB	n/a	LTP207	ltpFR2	14	n/a	n/a	n/a	26	13	6	6	1
4390348	PROB	n/a	LTP207	ltpFR2	14	n/a	n/a	n/a	26	13	9	3	1
4391385	PROB	n/a	LTP207	ltpFR2	14	n/a	n/a	n/a	26	10	3	5	2
4393415	PROB	n/a	LTP207	ltpFR2	14	n/a	n/a	n/a	26	15	6	1	9
4394747	STOP	n/a	LTP207	ltpFR2	14	n/a	n/a	n/a	26	n/a	n/a	n/a	n/a
4397844	REC_START	n/a	LTP207	ltpFR2	14	18	n/a	n/a	n/a	n/a	0	0	0
4398969	REC_WORD	wordpools/wasnorm_wordpool_576.txt	LTP207	ltpFR2	14	18	COWBOY	395	n/a	n/a	0	0	0
4399901	REC_WORD	wordpools/wasnorm_wordpool_576.txt	LTP207	ltpFR2	14	18	SPOON	1357	n/a	n/a	0	0	0
4414115	REC_WORD	wordpools/wasnorm_wordpool_576.txt	LTP207	ltpFR2	14	18	QUAIL	1147	n/a	n/a	0	0	0
4418376	REC_WORD	wordpools/wasnorm_wordpool_576.txt	LTP207	ltpFR2	14	18	STOVE	1388	n/a	n/a	0	0	0
4431488	REC_WORD	wordpools/wasnorm_wordpool_576.txt	LTP207	ltpFR2	14	18	LILY	821	n/a	n/a	0	0	0
4436826	REC_WORD	wordpools/wasnorm_wordpool_576.txt	LTP207	ltpFR2	14	18	DAISY	435	n/a	n/a	0	0	0
4488924	WORD	wordpools/wasnorm_wordpool_576.txt	LTP207	ltpFR2	14	19	BANK	83	n/a	n/a	0	0	0
4491484	WORD	wordpools/wasnorm_wordpool_576.txt	LTP207	ltpFR2	14	19	PLATE	1086	n/a	n/a	0	0	0
4494094	WORD	wordpools/wasnorm_wordpool_576.txt	LTP207	ltpFR2	14	19	POPCORN	1104	n/a	n/a	0	0	0
4496615	WORD	wordpools/wasnorm_wordpool_576.txt	LTP207	ltpFR2	14	19	ZEBRA	1635	n/a	n/a	0	0	0
4499275	WORD	wordpools/wasnorm_wordpool_576.txt	LTP207	ltpFR2	14	19	PERFUME	1049	n/a	n/a	0	0	0
4501873	WORD	wordpools/wasnorm_wordpool_576.txt	LTP207	ltpFR2	14	19	PEBBLE	1035	n/a	n/a	0	0	0
4504612	WORD	wordpools/wasnorm_wordpool_576.txt	LTP207	ltpFR2	14	19	FILM	565	n/a	n/a	0	0	0
4507339	WORD	wordpools/wasnorm_wordpool_576.txt	LTP207	ltpFR2	14	19	FUNGUS	614	n/a	n/a	0	0	0
4509920	WORD	wordpools/wasnorm_wordpool_576.txt	LTP207	ltpFR2	14	19	SHARK	1275	n/a	n/a	0	0	0
4512709	WORD	wordpools/wasnorm_wordpool_576.txt	LTP207	ltpFR2	14	19	MASK	876	n/a	n/a	0	0	0
4515152	WORD	wordpools/wasnorm_wordpool_576.txt	LTP207	ltpFR2	14	19	PARSLEY	1016	n/a	n/a	0	0	0
4517783	WORD	wordpools/wasnorm_wordpool_576.txt	LTP207	ltpFR2	14	19	ROD	1203	n/a	n/a	0	0	0
4520472	WORD	wordpools/wasnorm_wordpool_576.txt	LTP207	ltpFR2	14	19	BALLOON	75	n/a	n/a	0	0	0
4523014	WORD	wordpools/wasnorm_wordpool_576.txt	LTP207	ltpFR2	14	19	SODA	1341	n/a	n/a	0	0	0
4525830	WORD	wordpools/wasnorm_wordpool_576.txt	LTP207	ltpFR2	14	19	HOOK	715	n/a	n/a	0	0	0
4528407	WORD	wordpools/wasnorm_wordpool_576.txt	LTP207	ltpFR2	14	19	TROUT	1511	n/a	n/a	0	0	0
4530844	WORD	wordpools/wasnorm_wordpool_576.txt	LTP207	ltpFR2	14	19	POET	1095	n/a	n/a	0	0	0
4533543	WORD	wordpools/wasnorm_wordpool_576.txt	LTP207	ltpFR2	14	19	CELLAR	267	n/a	n/a	0	0	0
4536069	WORD	wordpools/wasnorm_wordpool_576.txt	LTP207	ltpFR2	14	19	PASSAGE	1019	n/a	n/a	0	0	0
4538707	WORD	wordpools/wasnorm_wordpool_576.txt	LTP207	ltpFR2	14	19	CATCHER	258	n/a	n/a	0	0	0
4541339	WORD	wordpools/wasnorm_wordpool_576.txt	LTP207	ltpFR2	14	19	BACON	67	n/a	n/a	0	0	0
4543798	WORD	wordpools/wasnorm_wordpool_576.txt	LTP207	ltpFR2	14	19	CYCLONE	431	n/a	n/a	0	0	0
4546324	WORD	wordpools/wasnorm_wordpool_576.txt	LTP207	ltpFR2	14	19	MONEY	908	n/a	n/a	0	0	0
4549085	WORD	wordpools/wasnorm_wordpool_576.txt	LTP207	ltpFR2	14	19	GYMNAST	675	n/a	n/a	0	0	0
4550703	START	n/a	LTP207	ltpFR2	14	n/a	n/a	n/a	27	n/a	n/a	n/a	n/a
4551535	DISTRACTOR	n/a	LTP207	ltpFR2	14	19	n/a	n/a	n/a	n/a	0	0	0
4551544	PROB	n/a	LTP207	ltpFR2	14	n/a	n/a	n/a	27	18	4	5	9
4553066	PROB	n/a	LTP207	ltpFR2	14	n/a	n/a	n/a	27	15	1	5	9
4554103	PROB	n/a	LTP207	ltpFR2	14	n/a	n/a	n/a	27	20	2	9	9
4555459	PROB	n/a	LTP207	ltpFR2	14	n/a	n/a	n/a	27	21	9	9	3
4557048	PROB	n/a	LTP207	ltpFR2	14	n/a	n/a	n/a	27	20	9	8	3
4558883	PROB	n/a	LTP207	ltpFR2	14	n/a	n/a	n/a	27	16	2	7	7
4560093	PROB	n/a	LTP207	ltpFR2	14	n/a	n/a	n/a	27	13	3	2	8
4561214	PROB	n/a	LTP207	ltpFR2	14	n/a	n/a	n/a	27	21	7	6	9
4562519	PROB	n/a	LTP207	ltpFR2	14	n/a	n/a	n/a	27	16	8	1	7
4565680	PROB	n/a	LTP207	ltpFR2	14	n/a	n/a	n/a	27	20	4	7	9
4566785	PROB	n/a	LTP207	ltpFR2	14	n/a	n/a	n/a	27	21	4	8	9
4567956	PROB	n/a	LTP207	ltpFR2	14	n/a	n/a	n/a	27	17	9	1	7
4569411	PROB	n/a	LTP207	ltpFR2	14	n/a	n/a	n/a	27	11	3	5	3
4570862	PROB	n/a	LTP207	ltpFR2	14	n/a	n/a	n/a	27	23	7	9	7
4572322	PROB	n/a	LTP207	ltpFR2	14	n/a	n/a	n/a	27	21	9	8	4
4573468	STOP	n/a	LTP207	ltpFR2	14	n/a	n/a	n/a	27	n/a	n/a	n/a	n/a
4576510	REC_START	n/a	LTP207	ltpFR2	14	19	n/a	n/a	n/a	n/a	0	0	0
4577486	REC_WORD	wordpools/wasnorm_wordpool_576.txt	LTP207	ltpFR2	14	19	CYCLONE	431	n/a	n/a	0	0	0
4578899	REC_WORD	wordpools/wasnorm_wordpool_576.txt	LTP207	ltpFR2	14	19	GYMNAST	675	n/a	n/a	0	0	0
4607657	REC_WORD_VV	wordpools/wasnorm_wordpool_576.txt	LTP207	ltpFR2	14	19	<>	-1	n/a	n/a	0	0	0
4667615	DISTRACTOR	n/a	LTP207	ltpFR2	14	20	n/a	n/a	n/a	n/a	0	0	0
4667615	START	n/a	LTP207	ltpFR2	14	n/a	n/a	n/a	28	n/a	n/a	n/a	n/a
4667665	PROB	n/a	LTP207	ltpFR2	14	n/a	n/a	n/a	28	14	2	8	4
4669634	PROB	n/a	LTP207	ltpFR2	14	n/a	n/a	n/a	28	19	4	9	6
4671374	PROB	n/a	LTP207	ltpFR2	14	n/a	n/a	n/a	28	15	1	6	8
4672550	PROB	n/a	LTP207	ltpFR2	14	n/a	n/a	n/a	28	16	6	1	9
4673867	PROB	n/a	LTP207	ltpFR2	14	n/a	n/a	n/a	28	18	1	9	8
4675406	PROB	n/a	LTP207	ltpFR2	14	n/a	n/a	n/a	28	8	1	6	1
4676665	PROB	n/a	LTP207	ltpFR2	14	n/a	n/a	n/a	28	14	2	4	8
4678568	PROB	n/a	LTP207	ltpFR2	14	n/a	n/a	n/a	28	7	1	1	5
4679655	PROB	n/a	LTP207	ltpFR2	14	n/a	n/a	n/a	28	20	8	9	3
4681746	PROB	n/a	LTP207	ltpFR2	14	n/a	n/a	n/a	28	17	6	8	3
4683525	PROB	n/a	LTP207	ltpFR2	14	n/a	n/a	n/a	28	17	7	3	7
4684858	PROB	n/a	LTP207	ltpFR2	14	n/a	n/a	n/a	28	10	3	4	3
4686581	PROB	n/a	LTP207	ltpFR2	14	n/a	n/a	n/a	28	13	4	7	2
4688237	PROB	n/a	LTP207	ltpFR2	14	n/a	n/a	n/a	28	18	7	3	8
4689413	PROB	n/a	LTP207	ltpFR2	14	n/a	n/a	n/a	28	16	3	6	7
4690555	STOP	n/a	LTP207	ltpFR2	14	n/a	n/a	n/a	28	n/a	n/a	n/a	n/a
4692642	WORD	wordpools/wasnorm_wordpool_576.txt	LTP207	ltpFR2	14	20	DENIM	446	n/a	n/a	0	0	0
4695414	WORD	wordpools/wasnorm_wordpool_576.txt	LTP207	ltpFR2	14	20	BANKER	84	n/a	n/a	0	0	0
4698096	WORD	wordpools/wasnorm_wordpool_576.txt	LTP207	ltpFR2	14	20	TROMBONE	1508	n/a	n/a	0	0	0
4700606	WORD	wordpools/wasnorm_wordpool_576.txt	LTP207	ltpFR2	14	20	FIREMAN	569	n/a	n/a	0	0	0
4703048	WORD	wordpools/wasnorm_wordpool_576.txt	LTP207	ltpFR2	14	20	COUSIN	392	n/a	n/a	0	0	0
4705574	WORD	wordpools/wasnorm_wordpool_576.txt	LTP207	ltpFR2	14	20	DIME	466	n/a	n/a	0	0	0
4708067	WORD	wordpools/wasnorm_wordpool_576.txt	LTP207	ltpFR2	14	20	LIPSTICK	829	n/a	n/a	0	0	0
4710660	WORD	wordpools/wasnorm_wordpool_576.txt	LTP207	ltpFR2	14	20	LASER	801	n/a	n/a	0	0	0
4713315	WORD	wordpools/wasnorm_wordpool_576.txt	LTP207	ltpFR2	14	20	BLUEPRINT	142	n/a	n/a	0	0	0
4715813	WORD	wordpools/wasnorm_wordpool_576.txt	LTP207	ltpFR2	14	20	EUROPE	541	n/a	n/a	0	0	0
4718351	WORD	wordpools/wasnorm_wordpool_576.txt	LTP207	ltpFR2	14	20	STICKER	1382	n/a	n/a	0	0	0
4720882	WORD	wordpools/wasnorm_wordpool_576.txt	LTP207	ltpFR2	14	20	POSSUM	1112	n/a	n/a	0	0	0
4723336	WORD	wordpools/wasnorm_wordpool_576.txt	LTP207	ltpFR2	14	20	SEAL	1262	n/a	n/a	0	0	0
4725817	WORD	wordpools/wasnorm_wordpool_576.txt	LTP207	ltpFR2	14	20	VENUS	1557	n/a	n/a	0	0	0
4728594	WORD	wordpools/wasnorm_wordpool_576.txt	LTP207	ltpFR2	14	20	BLOUSE	139	n/a	n/a	0	0	0
4731171	WORD	wordpools/wasnorm_wordpool_576.txt	LTP207	ltpFR2	14	20	DANCER	437	n/a	n/a	0	0	0
4733759	WORD	wordpools/wasnorm_wordpool_576.txt	LTP207	ltpFR2	14	20	CONCERT	360	n/a	n/a	0	0	0
4736491	WORD	wordpools/wasnorm_wordpool_576.txt	LTP207	ltpFR2	14	20	CAPTIVE	240	n/a	n/a	0	0	0
4739046	WORD	wordpools/wasnorm_wordpool_576.txt	LTP207	ltpFR2	14	20	TRUCK	1512	n/a	n/a	0	0	0
4741577	WORD	wordpools/wasnorm_wordpool_576.txt	LTP207	ltpFR2	14	20	DASHBOARD	441	n/a	n/a	0	0	0
4744248	WORD	wordpools/wasnorm_wordpool_576.txt	LTP207	ltpFR2	14	20	PADDLE	1000	n/a	n/a	0	0	0
4746813	WORD	wordpools/wasnorm_wordpool_576.txt	LTP207	ltpFR2	14	20	YACHT	1629	n/a	n/a	0	0	0
4749607	WORD	wordpools/wasnorm_wordpool_576.txt	LTP207	ltpFR2	14	20	STAKE	1368	n/a	n/a	0	0	0
4752379	WORD	wordpools/wasnorm_wordpool_576.txt	LTP207	ltpFR2	14	20	TWIG	1527	n/a	n/a	0	0	0
4753990	START	n/a	LTP207	ltpFR2	14	n/a	n/a	n/a	29	n/a	n/a	n/a	n/a
4755147	DISTRACTOR	n/a	LTP207	ltpFR2	14	20	n/a	n/a	n/a	n/a	0	0	0
4755161	PROB	n/a	LTP207	ltpFR2	14	n/a	n/a	n/a	29	14	9	4	1
4756428	PROB	n/a	LTP207	ltpFR2	14	n/a	n/a	n/a	29	16	3	5	8
4757967	PROB	n/a	LTP207	ltpFR2	14	n/a	n/a	n/a	29	14	5	4	5
4759556	PROB	n/a	LTP207	ltpFR2	14	n/a	n/a	n/a	29	21	5	8	8
4760911	PROB	n/a	LTP207	ltpFR2	14	n/a	n/a	n/a	29	15	4	2	9
4762154	PROB	n/a	LTP207	ltpFR2	14	n/a	n/a	n/a	29	10	5	1	4
4763560	PROB	n/a	LTP207	ltpFR2	14	n/a	n/a	n/a	29	18	9	8	1
4764893	PROB	n/a	LTP207	ltpFR2	14	n/a	n/a	n/a	29	16	6	6	4
4766566	PROB	n/a	LTP207	ltpFR2	14	n/a	n/a	n/a	29	12	3	2	7
4768757	PROB	n/a	LTP207	ltpFR2	14	n/a	n/a	n/a	29	15	7	1	9
4770046	PROB	n/a	LTP207	ltpFR2	14	n/a	n/a	n/a	29	18	2	9	7
4772393	PROB	n/a	LTP207	ltpFR2	14	n/a	n/a	n/a	29	12	4	1	7
4773480	PROB	n/a	LTP207	ltpFR2	14	n/a	n/a	n/a	29	22	8	8	6
4775031	PROB	n/a	LTP207	ltpFR2	14	n/a	n/a	n/a	29	15	9	5	1
4776135	PROB	n/a	LTP207	ltpFR2	14	n/a	n/a	n/a	29	20	7	4	9
4777276	STOP	n/a	LTP207	ltpFR2	14	n/a	n/a	n/a	29	n/a	n/a	n/a	n/a
4779817	REC_START	n/a	LTP207	ltpFR2	14	20	n/a	n/a	n/a	n/a	0	0	0
4785298	REC_WORD	wordpools/wasnorm_wordpool_576.txt	LTP207	ltpFR2	14	20	CONCERT	360	n/a	n/a	0	0	0
4788877	REC_WORD_VV	wordpools/wasnorm_wordpool_576.txt	LTP207	ltpFR2	14	20	<>	-1	n/a	n/a	0	0	0
4789949	REC_WORD	wordpools/wasnorm_wordpool_576.txt	LTP207	ltpFR2	14	20	CAPTIVE	240	n/a	n/a	0	0	0
4796179	REC_WORD	wordpools/wasnorm_wordpool_576.txt	LTP207	ltpFR2	14	20	PUDDING	1139	n/a	n/a	0	0	0
4810129	REC_WORD	wordpools/wasnorm_wordpool_576.txt	LTP207	ltpFR2	14	20	STICKER	1382	n/a	n/a	0	0	0
4827225	REC_WORD	wordpools/wasnorm_wordpool_576.txt	LTP207	ltpFR2	14	20	JET	756	n/a	n/a	0	0	0
4827994	REC_WORD	wordpools/wasnorm_wordpool_576.txt	LTP207	ltpFR2	14	20	SEAL	1262	n/a	n/a	0	0	0
4870914	DISTRACTOR	n/a	LTP207	ltpFR2	14	21	n/a	n/a	n/a	n/a	0	0	0
4870914	START	n/a	LTP207	ltpFR2	14	n/a	n/a	n/a	30	n/a	n/a	n/a	n/a
4870964	PROB	n/a	LTP207	ltpFR2	14	n/a	n/a	n/a	30	8	4	2	2
4873720	PROB	n/a	LTP207	ltpFR2	14	n/a	n/a	n/a	30	10	1	7	2
4874891	PROB	n/a	LTP207	ltpFR2	14	n/a	n/a	n/a	30	7	3	2	2
4876535	PROB	n/a	LTP207	ltpFR2	14	n/a	n/a	n/a	30	11	2	1	8
4877635	PROB	n/a	LTP207	ltpFR2	14	n/a	n/a	n/a	30	11	3	3	5
4878744	PROB	n/a	LTP207	ltpFR2	14	n/a	n/a	n/a	30	11	3	6	2
4880049	PROB	n/a	LTP207	ltpFR2	14	n/a	n/a	n/a	30	19	8	9	2
4882302	PROB	n/a	LTP207	ltpFR2	14	n/a	n/a	n/a	30	8	2	4	2
4884934	PROB	n/a	LTP207	ltpFR2	14	n/a	n/a	n/a	30	14	2	5	7
4886635	PROB	n/a	LTP207	ltpFR2	14	n/a	n/a	n/a	30	11	3	1	7
4887706	PROB	n/a	LTP207	ltpFR2	14	n/a	n/a	n/a	30	15	3	9	3
4888832	PROB	n/a	LTP207	ltpFR2	14	n/a	n/a	n/a	30	9	7	1	1
4889830	PROB	n/a	LTP207	ltpFR2	14	n/a	n/a	n/a	30	12	7	3	2
4891269	PROB	n/a	LTP207	ltpFR2	14	n/a	n/a	n/a	30	13	7	2	4
4893659	STOP	n/a	LTP207	ltpFR2	14	n/a	n/a	n/a	30	n/a	n/a	n/a	n/a
4895775	WORD	wordpools/wasnorm_wordpool_576.txt	LTP207	ltpFR2	14	21	ELBOW	520	n/a	n/a	0	0	0
4898463	WORD	wordpools/wasnorm_wordpool_576.txt	LTP207	ltpFR2	14	21	LIZARD	834	n/a	n/a	0	0	0
4900956	WORD	wordpools/wasnorm_wordpool_576.txt	LTP207	ltpFR2	14	21	BRAKE	166	n/a	n/a	0	0	0
4903638	WORD	wordpools/wasnorm_wordpool_576.txt	LTP207	ltpFR2	14	21	EGYPT	519	n/a	n/a	0	0	0
4906465	WORD	wordpools/wasnorm_wordpool_576.txt	LTP207	ltpFR2	14	21	WHISKERS	1605	n/a	n/a	0	0	0
4909086	WORD	wordpools/wasnorm_wordpool_576.txt	LTP207	ltpFR2	14	21	PISTON	1076	n/a	n/a	0	0	0
4911634	WORD	wordpools/wasnorm_wordpool_576.txt	LTP207	ltpFR2	14	21	STREAM	1392	n/a	n/a	0	0	0
4914227	WORD	wordpools/wasnorm_wordpool_576.txt	LTP207	ltpFR2	14	21	VAGRANT	1544	n/a	n/a	0	0	0
4916720	WORD	wordpools/wasnorm_wordpool_576.txt	LTP207	ltpFR2	14	21	RIVER	1194	n/a	n/a	0	0	0
4919325	WORD	wordpools/wasnorm_wordpool_576.txt	LTP207	ltpFR2	14	21	POSTAGE	1113	n/a	n/a	0	0	0
4922124	WORD	wordpools/wasnorm_wordpool_576.txt	LTP207	ltpFR2	14	21	FRECKLE	602	n/a	n/a	0	0	0
4924745	WORD	wordpools/wasnorm_wordpool_576.txt	LTP207	ltpFR2	14	21	WASHER	1592	n/a	n/a	0	0	0
4927444	WORD	wordpools/wasnorm_wordpool_576.txt	LTP207	ltpFR2	14	21	NOMAD	955	n/a	n/a	0	0	0
4930003	WORD	wordpools/wasnorm_wordpool_576.txt	LTP207	ltpFR2	14	21	PENGUIN	1044	n/a	n/a	0	0	0
4932575	WORD	wordpools/wasnorm_wordpool_576.txt	LTP207	ltpFR2	14	21	BUCKET	184	n/a	n/a	0	0	0
4935123	WORD	wordpools/wasnorm_wordpool_576.txt	LTP207	ltpFR2	14	21	SHELTER	1282	n/a	n/a	0	0	0
4937749	WORD	wordpools/wasnorm_wordpool_576.txt	LTP207	ltpFR2	14	21	DORM	488	n/a	n/a	0	0	0
4940326	WORD	wordpools/wasnorm_wordpool_576.txt	LTP207	ltpFR2	14	21	COUCH	386	n/a	n/a	0	0	0
4942852	WORD	wordpools/wasnorm_wordpool_576.txt	LTP207	ltpFR2	14	21	PATIENT	1024	n/a	n/a	0	0	0
4945591	WORD	wordpools/wasnorm_wordpool_576.txt	LTP207	ltpFR2	14	21	SNACK	1331	n/a	n/a	0	0	0
4948033	WORD	wordpools/wasnorm_wordpool_576.txt	LTP207	ltpFR2	14	21	COOKBOOK	373	n/a	n/a	0	0	0
4950615	WORD	wordpools/wasnorm_wordpool_576.txt	LTP207	ltpFR2	14	21	BROTHER	179	n/a	n/a	0	0	0
4953308	WORD	wordpools/wasnorm_wordpool_576.txt	LTP207	ltpFR2	14	21	MONSTER	912	n/a	n/a	0	0	0
4955918	WORD	wordpools/wasnorm_wordpool_576.txt	LTP207	ltpFR2	14	21	SLIME	1327	n/a	n/a	0	0	0
4957524	START	n/a	LTP207	ltpFR2	14	n/a	n/a	n/a	31	n/a	n/a	n/a	n/a
4958437	DISTRACTOR	n/a	LTP207	ltpFR2	14	21	n/a	n/a	n/a	n/a	0	0	0
4958444	PROB	n/a	LTP207	ltpFR2	14	n/a	n/a	n/a	31	15	5	1	9
4959966	PROB	n/a	LTP207	ltpFR2	14	n/a	n/a	n/a	31	17	6	4	7
4961317	PROB	n/a	LTP207	ltpFR2	14	n/a	n/a	n/a	31	8	1	3	4
4962710	PROB	n/a	LTP207	ltpFR2	14	n/a	n/a	n/a	31	12	4	6	2
4963960	PROB	n/a	LTP207	ltpFR2	14	n/a	n/a	n/a	31	17	7	9	1
4965387	PROB	n/a	LTP207	ltpFR2	14	n/a	n/a	n/a	31	8	1	2	5
4966575	PROB	n/a	LTP207	ltpFR2	14	n/a	n/a	n/a	31	12	3	5	4
4968142	PROB	n/a	LTP207	ltpFR2	14	n/a	n/a	n/a	31	15	4	2	9
4969168	PROB	n/a	LTP207	ltpFR2	14	n/a	n/a	n/a	31	8	1	6	1
4970322	PROB	n/a	LTP207	ltpFR2	14	n/a	n/a	n/a	31	11	2	8	1
4971321	PROB	n/a	LTP207	ltpFR2	14	n/a	n/a	n/a	31	12	6	2	4
4972715	PROB	n/a	LTP207	ltpFR2	14	n/a	n/a	n/a	31	12	3	6	3
4974321	PROB	n/a	LTP207	ltpFR2	14	n/a	n/a	n/a	31	11	1	1	9
4975353	PROB	n/a	LTP207	ltpFR2	14	n/a	n/a	n/a	31	18	6	4	8
4976663	PROB	n/a	LTP207	ltpFR2	14	n/a	n/a	n/a	31	14	4	7	3
4977978	PROB	n/a	LTP207	ltpFR2	14	n/a	n/a	n/a	31	10	3	4	3
4981523	STOP	n/a	LTP207	ltpFR2	14	n/a	n/a	n/a	31	n/a	n/a	n/a	n/a
4983389	REC_START	n/a	LTP207	ltpFR2	14	21	n/a	n/a	n/a	n/a	0	0	0
4984357	REC_WORD	wordpools/wasnorm_wordpool_576.txt	LTP207	ltpFR2	14	21	ELBOW	520	n/a	n/a	0	0	0
4985819	REC_WORD	wordpools/wasnorm_wordpool_576.txt	LTP207	ltpFR2	14	21	LIZARD	834	n/a	n/a	0	0	0
4989204	REC_WORD	wordpools/wasnorm_wordpool_576.txt	LTP207	ltpFR2	14	21	BRAKE	166	n/a	n/a	0	0	0
4990059	REC_WORD	wordpools/wasnorm_wordpool_576.txt	LTP207	ltpFR2	14	21	PISTON	1076	n/a	n/a	0	0	0
4992757	REC_WORD	wordpools/wasnorm_wordpool_576.txt	LTP207	ltpFR2	14	21	STREAM	1392	n/a	n/a	0	0	0
4993712	REC_WORD	wordpools/wasnorm_wordpool_576.txt	LTP207	ltpFR2	14	21	RIVER	1194	n/a	n/a	0	0	0
4994533	REC_WORD	wordpools/wasnorm_wordpool_576.txt	LTP207	ltpFR2	14	21	VAGRANT	1544	n/a	n/a	0	0	0
5021283	REC_WORD	wordpools/wasnorm_wordpool_576.txt	LTP207	ltpFR2	14	21	DORM	488	n/a	n/a	0	0	0
5022126	REC_WORD	wordpools/wasnorm_wordpool_576.txt	LTP207	ltpFR2	14	21	COUCH	386	n/a	n/a	0	0	0
5074481	DISTRACTOR	n/a	LTP207	ltpFR2	14	22	n/a	n/a	n/a	n/a	0	0	0
5074482	START	n/a	LTP207	ltpFR2	14	n/a	n/a	n/a	32	n/a	n/a	n/a	n/a
5074532	PROB	n/a	LTP207	ltpFR2	14	n/a	n/a	n/a	32	18	6	7	5
5077203	PROB	n/a	LTP207	ltpFR2	14	n/a	n/a	n/a	32	21	6	7	8
5079082	PROB	n/a	LTP207	ltpFR2	14	n/a	n/a	n/a	32	22	8	5	9
5081157	PROB	n/a	LTP207	ltpFR2	14	n/a	n/a	n/a	32	14	6	4	6
5082478	PROB	n/a	LTP207	ltpFR2	14	n/a	n/a	n/a	32	17	6	5	6
5086577	PROB	n/a	LTP207	ltpFR2	14	n/a	n/a	n/a	32	23	8	6	9
5088278	PROB	n/a	LTP207	ltpFR2	14	n/a	n/a	n/a	32	11	1	7	3
5089550	PROB	n/a	LTP207	ltpFR2	14	n/a	n/a	n/a	32	20	7	8	5
5091223	PROB	n/a	LTP207	ltpFR2	14	n/a	n/a	n/a	32	11	6	3	2
5093113	PROB	n/a	LTP207	ltpFR2	14	n/a	n/a	n/a	32	17	9	3	5
5094892	PROB	n/a	LTP207	ltpFR2	14	n/a	n/a	n/a	32	21	6	9	6
5096347	PROB	n/a	LTP207	ltpFR2	14	n/a	n/a	n/a	32	19	7	9	3
5097788	STOP	n/a	LTP207	ltpFR2	14	n/a	n/a	n/a	32	n/a	n/a	n/a	n/a
5099576	WORD	wordpools/wasnorm_wordpool_576.txt	LTP207	ltpFR2	14	22	SPACE	1345	n/a	n/a	0	0	0
5102382	WORD	wordpools/wasnorm_wordpool_576.txt	LTP207	ltpFR2	14	22	COMET	353	n/a	n/a	0	0	0
5104913	WORD	wordpools/wasnorm_wordpool_576.txt	LTP207	ltpFR2	14	22	CREATURE	403	n/a	n/a	0	0	0
5107417	WORD	wordpools/wasnorm_wordpool_576.txt	LTP207	ltpFR2	14	22	SHORTCAKE	1292	n/a	n/a	0	0	0
5109860	WORD	wordpools/wasnorm_wordpool_576.txt	LTP207	ltpFR2	14	22	LETTUCE	814	n/a	n/a	0	0	0
5112436	WORD	wordpools/wasnorm_wordpool_576.txt	LTP207	ltpFR2	14	22	GARLIC	624	n/a	n/a	0	0	0
5115113	WORD	wordpools/wasnorm_wordpool_576.txt	LTP207	ltpFR2	14	22	HIKER	708	n/a	n/a	0	0	0
5117544	WORD	wordpools/wasnorm_wordpool_576.txt	LTP207	ltpFR2	14	22	HOSTESS	723	n/a	n/a	0	0	0
5120103	WORD	wordpools/wasnorm_wordpool_576.txt	LTP207	ltpFR2	14	22	MARS	873	n/a	n/a	0	0	0
5122897	WORD	wordpools/wasnorm_wordpool_576.txt	LTP207	ltpFR2	14	22	BUTCHER	203	n/a	n/a	0	0	0
5125658	WORD	wordpools/wasnorm_wordpool_576.txt	LTP207	ltpFR2	14	22	BLADE	134	n/a	n/a	0	0	0
5128134	WORD	wordpools/wasnorm_wordpool_576.txt	LTP207	ltpFR2	14	22	FRUIT	610	n/a	n/a	0	0	0
5130588	WORD	wordpools/wasnorm_wordpool_576.txt	LTP207	ltpFR2	14	22	BARLEY	88	n/a	n/a	0	0	0
5133315	WORD	wordpools/wasnorm_wordpool_576.txt	LTP207	ltpFR2	14	22	ANTLER	29	n/a	n/a	0	0	0
5136030	WORD	wordpools/wasnorm_wordpool_576.txt	LTP207	ltpFR2	14	22	SPOOL	1356	n/a	n/a	0	0	0
5138473	WORD	wordpools/wasnorm_wordpool_576.txt	LTP207	ltpFR2	14	22	BLACKBOARD	133	n/a	n/a	0	0	0
5141032	WORD	wordpools/wasnorm_wordpool_576.txt	LTP207	ltpFR2	14	22	SERVER	1272	n/a	n/a	0	0	0
5143587	WORD	wordpools/wasnorm_wordpool_576.txt	LTP207	ltpFR2	14	22	LONDON	843	n/a	n/a	0	0	0
5146280	WORD	wordpools/wasnorm_wordpool_576.txt	LTP207	ltpFR2	14	22	QUEEN	1149	n/a	n/a	0	0	0
5148840	WORD	wordpools/wasnorm_wordpool_576.txt	LTP207	ltpFR2	14	22	SUMMIT	1405	n/a	n/a	0	0	0
5151505	WORD	wordpools/wasnorm_wordpool_576.txt	LTP207	ltpFR2	14	22	CASHIER	254	n/a	n/a	0	0	0
5154093	WORD	wordpools/wasnorm_wordpool_576.txt	LTP207	ltpFR2	14	22	FOX	598	n/a	n/a	0	0	0
5156574	WORD	wordpools/wasnorm_wordpool_576.txt	LTP207	ltpFR2	14	22	SNAKE	1333	n/a	n/a	0	0	0
5159095	WORD	wordpools/wasnorm_wordpool_576.txt	LTP207	ltpFR2	14	22	TEACHER	1440	n/a	n/a	0	0	0
5160707	START	n/a	LTP207	ltpFR2	14	n/a	n/a	n/a	33	n/a	n/a	n/a	n/a
5161773	DISTRACTOR	n/a	LTP207	ltpFR2	14	22	n/a	n/a	n/a	n/a	0	0	0
5161789	PROB	n/a	LTP207	ltpFR2	14	n/a	n/a	n/a	33	17	8	6	3
5163278	PROB	n/a	LTP207	ltpFR2	14	n/a	n/a	n/a	33	14	5	2	7
5164934	PROB	n/a	LTP207	ltpFR2	14	n/a	n/a	n/a	33	17	2	7	8
5166356	PROB	n/a	LTP207	ltpFR2	14	n/a	n/a	n/a	33	17	1	9	7
5168670	PROB	n/a	LTP207	ltpFR2	14	n/a	n/a	n/a	33	7	3	1	3
5170042	PROB	n/a	LTP207	ltpFR2	14	n/a	n/a	n/a	33	21	8	7	5
5171375	PROB	n/a	LTP207	ltpFR2	14	n/a	n/a	n/a	33	20	7	9	4
5173170	PROB	n/a	LTP207	ltpFR2	14	n/a	n/a	n/a	33	17	7	5	5
5174871	PROB	n/a	LTP207	ltpFR2	14	n/a	n/a	n/a	33	21	8	6	7
5176181	PROB	n/a	LTP207	ltpFR2	14	n/a	n/a	n/a	33	13	3	4	6
5177950	PROB	n/a	LTP207	ltpFR2	14	n/a	n/a	n/a	33	22	9	6	7
5180928	PROB	n/a	LTP207	ltpFR2	14	n/a	n/a	n/a	33	10	2	2	4
5182400	PROB	n/a	LTP207	ltpFR2	14	n/a	n/a	n/a	33	18	1	9	8
5184492	STOP	n/a	LTP207	ltpFR2	14	n/a	n/a	n/a	33	n/a	n/a	n/a	n/a
5186616	REC_START	n/a	LTP207	ltpFR2	14	22	n/a	n/a	n/a	n/a	0	0	0
5188377	REC_WORD	wordpools/wasnorm_wordpool_576.txt	LTP207	ltpFR2	14	22	SPOOL	1356	n/a	n/a	0	0	0
5189285	REC_WORD	wordpools/wasnorm_wordpool_576.txt	LTP207	ltpFR2	14	22	BLACKBOARD	133	n/a	n/a	0	0	0
5190223	REC_WORD	wordpools/wasnorm_wordpool_576.txt	LTP207	ltpFR2	14	22	TEACHER	1440	n/a	n/a	0	0	0
5196257	REC_WORD	wordpools/wasnorm_wordpool_576.txt	LTP207	ltpFR2	14	22	SPACE	1345	n/a	n/a	0	0	0
5197778	REC_WORD	wordpools/wasnorm_wordpool_576.txt	LTP207	ltpFR2	14	22	COMET	353	n/a	n/a	0	0	0
5201358	REC_WORD	wordpools/wasnorm_wordpool_576.txt	LTP207	ltpFR2	14	22	CREATURE	403	n/a	n/a	0	0	0
5204856	REC_WORD	wordpools/wasnorm_wordpool_576.txt	LTP207	ltpFR2	14	22	SHORTCAKE	1292	n/a	n/a	0	0	0
5206288	REC_WORD	wordpools/wasnorm_wordpool_576.txt	LTP207	ltpFR2	14	22	LETTUCE	814	n/a	n/a	0	0	0
5207834	REC_WORD	wordpools/wasnorm_wordpool_576.txt	LTP207	ltpFR2	14	22	SERVER	1272	n/a	n/a	0	0	0
5236866	REC_WORD	wordpools/wasnorm_wordpool_576.txt	LTP207	ltpFR2	14	22	ANTLER	29	n/a	n/a	0	0	0
5239121	REC_WORD	wordpools/wasnorm_wordpool_576.txt	LTP207	ltpFR2	14	22	BARLEY	88	n/a	n/a	0	0	0
5277714	WORD	wordpools/wasnorm_wordpool_576.txt	LTP207	ltpFR2	14	23	FLEET	578	n/a	n/a	0	0	0
5280408	WORD	wordpools/wasnorm_wordpool_576.txt	LTP207	ltpFR2	14	23	CIGAR	308	n/a	n/a	0	0	0
5282850	WORD	wordpools/wasnorm_wordpool_576.txt	LTP207	ltpFR2	14	23	ASIA	46	n/a	n/a	0	0	0
5285594	WORD	wordpools/wasnorm_wordpool_576.txt	LTP207	ltpFR2	14	23	JAPAN	749	n/a	n/a	0	0	0
5288404	WORD	wordpools/wasnorm_wordpool_576.txt	LTP207	ltpFR2	14	23	MATCH	878	n/a	n/a	0	0	0
5290930	WORD	wordpools/wasnorm_wordpool_576.txt	LTP207	ltpFR2	14	23	THREAD	1460	n/a	n/a	0	0	0
5293457	WORD	wordpools/wasnorm_wordpool_576.txt	LTP207	ltpFR2	14	23	RABBIT	1152	n/a	n/a	0	0	0
5296128	WORD	wordpools/wasnorm_wordpool_576.txt	LTP207	ltpFR2	14	23	JELLY	755	n/a	n/a	0	0	0
5298939	WORD	wordpools/wasnorm_wordpool_576.txt	LTP207	ltpFR2	14	23	LUGGAGE	847	n/a	n/a	0	0	0
5301382	WORD	wordpools/wasnorm_wordpool_576.txt	LTP207	ltpFR2	14	23	POLICE	1098	n/a	n/a	0	0	0
5304030	WORD	wordpools/wasnorm_wordpool_576.txt	LTP207	ltpFR2	14	23	HELMET	702	n/a	n/a	0	0	0
5306456	WORD	wordpools/wasnorm_wordpool_576.txt	LTP207	ltpFR2	14	23	CONTRACT	368	n/a	n/a	0	0	0
5308898	WORD	wordpools/wasnorm_wordpool_576.txt	LTP207	ltpFR2	14	23	PADDING	999	n/a	n/a	0	0	0
5311408	WORD	wordpools/wasnorm_wordpool_576.txt	LTP207	ltpFR2	14	23	TABLE	1426	n/a	n/a	0	0	0
5313983	WORD	wordpools/wasnorm_wordpool_576.txt	LTP207	ltpFR2	14	23	CRIB	407	n/a	n/a	0	0	0
5316494	WORD	wordpools/wasnorm_wordpool_576.txt	LTP207	ltpFR2	14	23	SUNSET	1408	n/a	n/a	0	0	0
5319070	WORD	wordpools/wasnorm_wordpool_576.txt	LTP207	ltpFR2	14	23	AGENT	10	n/a	n/a	0	0	0
5321525	WORD	wordpools/wasnorm_wordpool_576.txt	LTP207	ltpFR2	14	23	TURTLE	1522	n/a	n/a	0	0	0
5324352	WORD	wordpools/wasnorm_wordpool_576.txt	LTP207	ltpFR2	14	23	FLIPPER	580	n/a	n/a	0	0	0
5326866	WORD	wordpools/wasnorm_wordpool_576.txt	LTP207	ltpFR2	14	23	STATUE	1374	n/a	n/a	0	0	0
5329655	WORD	wordpools/wasnorm_wordpool_576.txt	LTP207	ltpFR2	14	23	JOURNAL	760	n/a	n/a	0	0	0
5332131	WORD	wordpools/wasnorm_wordpool_576.txt	LTP207	ltpFR2	14	23	SUNRISE	1407	n/a	n/a	0	0	0
5334829	WORD	wordpools/wasnorm_wordpool_576.txt	LTP207	ltpFR2	14	23	NECKLACE	940	n/a	n/a	0	0	0
5337618	WORD	wordpools/wasnorm_wordpool_576.txt	LTP207	ltpFR2	14	23	PLASTER	1085	n/a	n/a	0	0	0
5339229	START	n/a	LTP207	ltpFR2	14	n/a	n/a	n/a	34	n/a	n/a	n/a	n/a
5340332	DISTRACTOR	n/a	LTP207	ltpFR2	14	23	n/a	n/a	n/a	n/a	0	0	0
5340350	PROB	n/a	LTP207	ltpFR2	14	n/a	n/a	n/a	34	15	1	6	8
5342140	PROB	n/a	LTP207	ltpFR2	14	n/a	n/a	n/a	34	14	5	2	7
5344198	PROB	n/a	LTP207	ltpFR2	14	n/a	n/a	n/a	34	8	1	1	6
5345302	PROB	n/a	LTP207	ltpFR2	14	n/a	n/a	n/a	34	15	3	4	8
5346535	PROB	n/a	LTP207	ltpFR2	14	n/a	n/a	n/a	34	10	2	5	3
5348208	PROB	n/a	LTP207	ltpFR2	14	n/a	n/a	n/a	34	22	9	4	7
5349669	PROB	n/a	LTP207	ltpFR2	14	n/a	n/a	n/a	34	11	7	3	1
5351086	PROB	n/a	LTP207	ltpFR2	14	n/a	n/a	n/a	34	16	5	9	2
5353299	PROB	n/a	LTP207	ltpFR2	14	n/a	n/a	n/a	34	14	4	1	9
5355101	PROB	n/a	LTP207	ltpFR2	14	n/a	n/a	n/a	34	17	8	2	7
5356790	PROB	n/a	LTP207	ltpFR2	14	n/a	n/a	n/a	34	14	6	4	4
5358146	PROB	n/a	LTP207	ltpFR2	14	n/a	n/a	n/a	34	21	9	6	6
5359723	PROB	n/a	LTP207	ltpFR2	14	n/a	n/a	n/a	34	10	3	6	1
5361680	PROB	n/a	LTP207	ltpFR2	14	n/a	n/a	n/a	34	18	5	4	9
5363028	STOP	n/a	LTP207	ltpFR2	14	n/a	n/a	n/a	34	n/a	n/a	n/a	n/a
5365173	REC_START	n/a	LTP207	ltpFR2	14	23	n/a	n/a	n/a	n/a	0	0	0
