mstime	trial_type	stim_file	subject	experiment	session	trial	task	item_name	item_num	recog_resp	recog_conf	resp	color_r	color_g	color_b	case	font
0	SESS_START	n/a	LTP229	ltpFR	16	n/a	n/a	n/a	n/a	1	3	n/a	n/a	n/a	n/a	n/a	n/a
82043	WORD	wordpools/wasnorm_wordpool_less_exclusions.txt	LTP229	ltpFR	16	1	0	MOSS	918	1	2	0	0.57763671875	0.412841796875	1	lower	amplitud.ttf
86109	WORD	wordpools/wasnorm_wordpool_less_exclusions.txt	LTP229	ltpFR	16	1	0	TOTE	1487	1	1	1	0.57763671875	0.412841796875	1	lower	amplitud.ttf
90292	WORD	wordpools/wasnorm_wordpool_less_exclusions.txt	LTP229	ltpFR	16	1	1	HOUSE	725	0	n/a	1	0.422607421875	0.5869140625	0	upper	zerothre.ttf
94490	WORD	wordpools/wasnorm_wordpool_less_exclusions.txt	LTP229	ltpFR	16	1	1	ANTENNA	28	n/a	n/a	0	0.422607421875	0.5869140625	0	upper	zerothre.ttf
98706	WORD	wordpools/wasnorm_wordpool_less_exclusions.txt	LTP229	ltpFR	16	1	1	TAPE	1433	n/a	n/a	0	0.422607421875	0.5869140625	0	upper	zerothre.ttf
102868	WORD	wordpools/wasnorm_wordpool_less_exclusions.txt	LTP229	ltpFR	16	1	1	PUBLISHER	1137	n/a	n/a	1	0.422607421875	0.5869140625	0	upper	zerothre.ttf
107037	WORD	wordpools/wasnorm_wordpool_less_exclusions.txt	LTP229	ltpFR	16	1	1	BRICK	172	n/a	n/a	0	0.422607421875	0.5869140625	0	upper	zerothre.ttf
110969	WORD	wordpools/wasnorm_wordpool_less_exclusions.txt	LTP229	ltpFR	16	1	1	VIDEO	1564	n/a	n/a	0	0.422607421875	0.5869140625	0	upper	zerothre.ttf
114796	WORD	wordpools/wasnorm_wordpool_less_exclusions.txt	LTP229	ltpFR	16	1	0	COD	340	n/a	n/a	1	0.57763671875	0.412841796875	1	lower	amplitud.ttf
118999	WORD	wordpools/wasnorm_wordpool_less_exclusions.txt	LTP229	ltpFR	16	1	0	CRAB	397	n/a	n/a	0	0.57763671875	0.412841796875	1	lower	amplitud.ttf
122964	WORD	wordpools/wasnorm_wordpool_less_exclusions.txt	LTP229	ltpFR	16	1	1	ARTIST	43	n/a	n/a	1	0.422607421875	0.5869140625	0	upper	zerothre.ttf
126908	WORD	wordpools/wasnorm_wordpool_less_exclusions.txt	LTP229	ltpFR	16	1	1	EXPLOSION	544	n/a	n/a	0	0.422607421875	0.5869140625	0	upper	zerothre.ttf
130877	WORD	wordpools/wasnorm_wordpool_less_exclusions.txt	LTP229	ltpFR	16	1	0	BOOK	149	n/a	n/a	0	0.57763671875	0.412841796875	1	lower	amplitud.ttf
135009	WORD	wordpools/wasnorm_wordpool_less_exclusions.txt	LTP229	ltpFR	16	1	0	POCKETBOOK	1094	n/a	n/a	0	0.57763671875	0.412841796875	1	lower	amplitud.ttf
139226	WORD	wordpools/wasnorm_wordpool_less_exclusions.txt	LTP229	ltpFR	16	1	0	BEAST	108	n/a	n/a	1	0.57763671875	0.412841796875	1	lower	amplitud.ttf
143174	WORD	wordpools/wasnorm_wordpool_less_exclusions.txt	LTP229	ltpFR	16	1	0	CHIPMUNK	304	n/a	n/a	1	0.57763671875	0.412841796875	1	lower	amplitud.ttf
149046	REC_START	n/a	LTP229	ltpFR	16	1	n/a	n/a	n/a	n/a	n/a	n/a	n/a	n/a	n/a	n/a	n/a
150014	REC_WORD	wordpools/wasnorm_wordpool_less_exclusions.txt	LTP229	ltpFR	16	1	0	BEAST	108	n/a	n/a	1	n/a	n/a	n/a	n/a	n/a
150971	REC_WORD	wordpools/wasnorm_wordpool_less_exclusions.txt	LTP229	ltpFR	16	1	0	CHIPMUNK	304	n/a	n/a	1	n/a	n/a	n/a	n/a	n/a
152737	REC_WORD	wordpools/wasnorm_wordpool_less_exclusions.txt	LTP229	ltpFR	16	1	0	MOSS	918	n/a	n/a	0	n/a	n/a	n/a	n/a	n/a
154159	REC_WORD	wordpools/wasnorm_wordpool_less_exclusions.txt	LTP229	ltpFR	16	1	0	TOTE	1487	n/a	n/a	1	n/a	n/a	n/a	n/a	n/a
155800	REC_WORD	wordpools/wasnorm_wordpool_less_exclusions.txt	LTP229	ltpFR	16	1	0	POCKETBOOK	1094	n/a	n/a	0	n/a	n/a	n/a	n/a	n/a
159744	REC_WORD	wordpools/wasnorm_wordpool_less_exclusions.txt	LTP229	ltpFR	16	1	1	ANTENNA	28	n/a	n/a	0	n/a	n/a	n/a	n/a	n/a
161383	REC_WORD	wordpools/wasnorm_wordpool_less_exclusions.txt	LTP229	ltpFR	16	1	1	HOUSE	725	n/a	n/a	1	n/a	n/a	n/a	n/a	n/a
162710	REC_WORD	wordpools/wasnorm_wordpool_less_exclusions.txt	LTP229	ltpFR	16	1	1	TAPE	1433	n/a	n/a	0	n/a	n/a	n/a	n/a	n/a
164231	REC_WORD	wordpools/wasnorm_wordpool_less_exclusions.txt	LTP229	ltpFR	16	1	1	BRICK	172	n/a	n/a	0	n/a	n/a	n/a	n/a	n/a
166591	REC_WORD	wordpools/wasnorm_wordpool_less_exclusions.txt	LTP229	ltpFR	16	1	1	PUBLISHER	1137	n/a	n/a	1	n/a	n/a	n/a	n/a	n/a
168317	REC_WORD	wordpools/wasnorm_wordpool_less_exclusions.txt	LTP229	ltpFR	16	1	1	ARTIST	43	n/a	n/a	1	n/a	n/a	n/a	n/a	n/a
190512	REC_WORD	wordpools/wasnorm_wordpool_less_exclusions.txt	LTP229	ltpFR	16	1	0	COD	340	n/a	n/a	1	n/a	n/a	n/a	n/a	n/a
191783	REC_WORD	wordpools/wasnorm_wordpool_less_exclusions.txt	LTP229	ltpFR	16	1	0	CRAB	397	n/a	n/a	0	n/a	n/a	n/a	n/a	n/a
199785	REC_WORD	wordpools/wasnorm_wordpool_less_exclusions.txt	LTP229	ltpFR	16	1	0	BOOK	149	n/a	n/a	0	n/a	n/a	n/a	n/a	n/a
219191	REC_WORD	wordpools/wasnorm_wordpool_less_exclusions.txt	LTP229	ltpFR	16	1	1	BRICK	172	n/a	n/a	0	n/a	n/a	n/a	n/a	n/a
259512	WORD	wordpools/wasnorm_wordpool_less_exclusions.txt	LTP229	ltpFR	16	2	1	SHRIMP	1297	n/a	n/a	0	0.422607421875	0.5869140625	0	upper	zerothre.ttf
263360	WORD	wordpools/wasnorm_wordpool_less_exclusions.txt	LTP229	ltpFR	16	2	1	ZOO	1637	n/a	n/a	0	0.422607421875	0.5869140625	0	upper	zerothre.ttf
267509	WORD	wordpools/wasnorm_wordpool_less_exclusions.txt	LTP229	ltpFR	16	2	1	IRON	744	n/a	n/a	0	0.422607421875	0.5869140625	0	upper	zerothre.ttf
271620	WORD	wordpools/wasnorm_wordpool_less_exclusions.txt	LTP229	ltpFR	16	2	0	SPONGE	1355	n/a	n/a	0	0.57763671875	0.412841796875	1	lower	amplitud.ttf
275740	WORD	wordpools/wasnorm_wordpool_less_exclusions.txt	LTP229	ltpFR	16	2	0	SHORE	1291	n/a	n/a	0	0.57763671875	0.412841796875	1	lower	amplitud.ttf
279805	WORD	wordpools/wasnorm_wordpool_less_exclusions.txt	LTP229	ltpFR	16	2	0	ATTORNEY	58	n/a	n/a	1	0.57763671875	0.412841796875	1	lower	amplitud.ttf
283770	WORD	wordpools/wasnorm_wordpool_less_exclusions.txt	LTP229	ltpFR	16	2	0	PARTY	1018	n/a	n/a	1	0.57763671875	0.412841796875	1	lower	amplitud.ttf
287986	WORD	wordpools/wasnorm_wordpool_less_exclusions.txt	LTP229	ltpFR	16	2	1	CLAM	315	n/a	n/a	0	0.422607421875	0.5869140625	0	upper	zerothre.ttf
291817	WORD	wordpools/wasnorm_wordpool_less_exclusions.txt	LTP229	ltpFR	16	2	1	WITNESS	1618	n/a	n/a	1	0.422607421875	0.5869140625	0	upper	zerothre.ttf
295832	WORD	wordpools/wasnorm_wordpool_less_exclusions.txt	LTP229	ltpFR	16	2	1	EWE	542	n/a	n/a	0	0.422607421875	0.5869140625	0	upper	zerothre.ttf
299797	WORD	wordpools/wasnorm_wordpool_less_exclusions.txt	LTP229	ltpFR	16	2	0	DANDELION	438	n/a	n/a	0	0.57763671875	0.412841796875	1	lower	amplitud.ttf
303829	WORD	wordpools/wasnorm_wordpool_less_exclusions.txt	LTP229	ltpFR	16	2	0	GOOSE	649	n/a	n/a	1	0.57763671875	0.412841796875	1	lower	amplitud.ttf
308028	WORD	wordpools/wasnorm_wordpool_less_exclusions.txt	LTP229	ltpFR	16	2	0	BEAN	105	n/a	n/a	0	0.57763671875	0.412841796875	1	lower	amplitud.ttf
312111	WORD	wordpools/wasnorm_wordpool_less_exclusions.txt	LTP229	ltpFR	16	2	0	SANDWICH	1232	n/a	n/a	0	0.57763671875	0.412841796875	1	lower	amplitud.ttf
316122	WORD	wordpools/wasnorm_wordpool_less_exclusions.txt	LTP229	ltpFR	16	2	1	STOVE	1388	n/a	n/a	0	0.422607421875	0.5869140625	0	upper	zerothre.ttf
320191	WORD	wordpools/wasnorm_wordpool_less_exclusions.txt	LTP229	ltpFR	16	2	1	TOASTER	1472	n/a	n/a	0	0.422607421875	0.5869140625	0	upper	zerothre.ttf
326082	REC_START	n/a	LTP229	ltpFR	16	2	n/a	n/a	n/a	n/a	n/a	n/a	n/a	n/a	n/a	n/a	n/a
326545	REC_WORD	wordpools/wasnorm_wordpool_less_exclusions.txt	LTP229	ltpFR	16	2	1	STOVE	1388	n/a	n/a	0	n/a	n/a	n/a	n/a	n/a
327883	REC_WORD	wordpools/wasnorm_wordpool_less_exclusions.txt	LTP229	ltpFR	16	2	1	TOASTER	1472	n/a	n/a	0	n/a	n/a	n/a	n/a	n/a
329823	REC_WORD	wordpools/wasnorm_wordpool_less_exclusions.txt	LTP229	ltpFR	16	2	1	SHRIMP	1297	n/a	n/a	0	n/a	n/a	n/a	n/a	n/a
331604	REC_WORD	wordpools/wasnorm_wordpool_less_exclusions.txt	LTP229	ltpFR	16	2	1	ZOO	1637	n/a	n/a	0	n/a	n/a	n/a	n/a	n/a
338439	REC_WORD	wordpools/wasnorm_wordpool_less_exclusions.txt	LTP229	ltpFR	16	2	1	EWE	542	n/a	n/a	0	n/a	n/a	n/a	n/a	n/a
341013	REC_WORD	wordpools/wasnorm_wordpool_less_exclusions.txt	LTP229	ltpFR	16	2	0	GOOSE	649	n/a	n/a	1	n/a	n/a	n/a	n/a	n/a
343921	REC_WORD	wordpools/wasnorm_wordpool_less_exclusions.txt	LTP229	ltpFR	16	2	0	ATTORNEY	58	n/a	n/a	1	n/a	n/a	n/a	n/a	n/a
345642	REC_WORD	wordpools/wasnorm_wordpool_less_exclusions.txt	LTP229	ltpFR	16	2	1	WITNESS	1618	n/a	n/a	1	n/a	n/a	n/a	n/a	n/a
350831	REC_WORD	wordpools/wasnorm_wordpool_less_exclusions.txt	LTP229	ltpFR	16	2	0	PARTY	1018	n/a	n/a	1	n/a	n/a	n/a	n/a	n/a
352881	REC_WORD	wordpools/wasnorm_wordpool_less_exclusions.txt	LTP229	ltpFR	16	2	0	SHORE	1291	n/a	n/a	0	n/a	n/a	n/a	n/a	n/a
365068	REC_WORD	wordpools/wasnorm_wordpool_less_exclusions.txt	LTP229	ltpFR	16	2	1	STOVE	1388	n/a	n/a	0	n/a	n/a	n/a	n/a	n/a
367358	REC_WORD	wordpools/wasnorm_wordpool_less_exclusions.txt	LTP229	ltpFR	16	2	1	TOASTER	1472	n/a	n/a	0	n/a	n/a	n/a	n/a	n/a
431912	WORD	wordpools/wasnorm_wordpool_less_exclusions.txt	LTP229	ltpFR	16	3	-1	DIARY	460	n/a	n/a	-1	1.0	1.0	1	upper	Verdana.ttf
435793	WORD	wordpools/wasnorm_wordpool_less_exclusions.txt	LTP229	ltpFR	16	3	-1	CLAY	320	n/a	n/a	-1	1.0	1.0	1	upper	Verdana.ttf
439775	WORD	wordpools/wasnorm_wordpool_less_exclusions.txt	LTP229	ltpFR	16	3	-1	STUMP	1396	n/a	n/a	-1	1.0	1.0	1	upper	Verdana.ttf
443656	WORD	wordpools/wasnorm_wordpool_less_exclusions.txt	LTP229	ltpFR	16	3	-1	DIRT	472	n/a	n/a	-1	1.0	1.0	1	upper	Verdana.ttf
447872	WORD	wordpools/wasnorm_wordpool_less_exclusions.txt	LTP229	ltpFR	16	3	-1	SHOVEL	1295	n/a	n/a	-1	1.0	1.0	1	upper	Verdana.ttf
452071	WORD	wordpools/wasnorm_wordpool_less_exclusions.txt	LTP229	ltpFR	16	3	-1	HAIL	676	n/a	n/a	-1	1.0	1.0	1	upper	Verdana.ttf
455969	WORD	wordpools/wasnorm_wordpool_less_exclusions.txt	LTP229	ltpFR	16	3	-1	SPRINKLE	1359	n/a	n/a	-1	1.0	1.0	1	upper	Verdana.ttf
460014	WORD	wordpools/wasnorm_wordpool_less_exclusions.txt	LTP229	ltpFR	16	3	-1	MOUTH	926	n/a	n/a	-1	1.0	1.0	1	upper	Verdana.ttf
463915	WORD	wordpools/wasnorm_wordpool_less_exclusions.txt	LTP229	ltpFR	16	3	-1	WATER	1594	n/a	n/a	-1	1.0	1.0	1	upper	Verdana.ttf
467763	WORD	wordpools/wasnorm_wordpool_less_exclusions.txt	LTP229	ltpFR	16	3	-1	HAND	683	n/a	n/a	-1	1.0	1.0	1	upper	Verdana.ttf
471858	WORD	wordpools/wasnorm_wordpool_less_exclusions.txt	LTP229	ltpFR	16	3	-1	LODGE	839	n/a	n/a	-1	1.0	1.0	1	upper	Verdana.ttf
476079	WORD	wordpools/wasnorm_wordpool_less_exclusions.txt	LTP229	ltpFR	16	3	-1	TIMBER	1469	n/a	n/a	-1	1.0	1.0	1	upper	Verdana.ttf
479959	WORD	wordpools/wasnorm_wordpool_less_exclusions.txt	LTP229	ltpFR	16	3	-1	FINGER	567	n/a	n/a	-1	1.0	1.0	1	upper	Verdana.ttf
483991	WORD	wordpools/wasnorm_wordpool_less_exclusions.txt	LTP229	ltpFR	16	3	-1	TABLET	1427	n/a	n/a	-1	1.0	1.0	1	upper	Verdana.ttf
488069	WORD	wordpools/wasnorm_wordpool_less_exclusions.txt	LTP229	ltpFR	16	3	-1	ALLIGATOR	16	n/a	n/a	-1	1.0	1.0	1	upper	Verdana.ttf
492005	WORD	wordpools/wasnorm_wordpool_less_exclusions.txt	LTP229	ltpFR	16	3	-1	LIBRARY	816	n/a	n/a	-1	1.0	1.0	1	upper	Verdana.ttf
497878	REC_START	n/a	LTP229	ltpFR	16	3	n/a	n/a	n/a	n/a	n/a	n/a	n/a	n/a	n/a	n/a	n/a
498715	REC_WORD	wordpools/wasnorm_wordpool_less_exclusions.txt	LTP229	ltpFR	16	3	-1	LIBRARY	816	n/a	n/a	-1	n/a	n/a	n/a	n/a	n/a
499715	REC_WORD_VV	wordpools/wasnorm_wordpool_less_exclusions.txt	LTP229	ltpFR	16	3	n/a	<>	-1	n/a	n/a	n/a	n/a	n/a	n/a	n/a	n/a
500796	REC_WORD	wordpools/wasnorm_wordpool_less_exclusions.txt	LTP229	ltpFR	16	3	n/a	LOUNGE	845	n/a	n/a	n/a	n/a	n/a	n/a	n/a	n/a
502792	REC_WORD	wordpools/wasnorm_wordpool_less_exclusions.txt	LTP229	ltpFR	16	3	-1	SPRINKLE	1359	n/a	n/a	-1	n/a	n/a	n/a	n/a	n/a
504872	REC_WORD	wordpools/wasnorm_wordpool_less_exclusions.txt	LTP229	ltpFR	16	3	-1	MOUTH	926	n/a	n/a	-1	n/a	n/a	n/a	n/a	n/a
506538	REC_WORD	wordpools/wasnorm_wordpool_less_exclusions.txt	LTP229	ltpFR	16	3	-1	WATER	1594	n/a	n/a	-1	n/a	n/a	n/a	n/a	n/a
508643	REC_WORD	wordpools/wasnorm_wordpool_less_exclusions.txt	LTP229	ltpFR	16	3	-1	HAND	683	n/a	n/a	-1	n/a	n/a	n/a	n/a	n/a
510459	REC_WORD	wordpools/wasnorm_wordpool_less_exclusions.txt	LTP229	ltpFR	16	3	-1	FINGER	567	n/a	n/a	-1	n/a	n/a	n/a	n/a	n/a
513587	REC_WORD	wordpools/wasnorm_wordpool_less_exclusions.txt	LTP229	ltpFR	16	3	-1	HAIL	676	n/a	n/a	-1	n/a	n/a	n/a	n/a	n/a
515433	REC_WORD	wordpools/wasnorm_wordpool_less_exclusions.txt	LTP229	ltpFR	16	3	-1	SHOVEL	1295	n/a	n/a	-1	n/a	n/a	n/a	n/a	n/a
519484	REC_WORD	wordpools/wasnorm_wordpool_less_exclusions.txt	LTP229	ltpFR	16	3	-1	ALLIGATOR	16	n/a	n/a	-1	n/a	n/a	n/a	n/a	n/a
527630	REC_WORD	wordpools/wasnorm_wordpool_less_exclusions.txt	LTP229	ltpFR	16	3	-1	DIARY	460	n/a	n/a	-1	n/a	n/a	n/a	n/a	n/a
529486	REC_WORD	wordpools/wasnorm_wordpool_less_exclusions.txt	LTP229	ltpFR	16	3	-1	CLAY	320	n/a	n/a	-1	n/a	n/a	n/a	n/a	n/a
534410	REC_WORD	wordpools/wasnorm_wordpool_less_exclusions.txt	LTP229	ltpFR	16	3	-1	DIRT	472	n/a	n/a	-1	n/a	n/a	n/a	n/a	n/a
622146	WORD	wordpools/wasnorm_wordpool_less_exclusions.txt	LTP229	ltpFR	16	4	0	MARSH	874	n/a	n/a	1	0.57763671875	0.412841796875	1	lower	amplitud.ttf
626262	WORD	wordpools/wasnorm_wordpool_less_exclusions.txt	LTP229	ltpFR	16	4	0	BROOK	177	n/a	n/a	1	0.57763671875	0.412841796875	1	lower	amplitud.ttf
630477	WORD	wordpools/wasnorm_wordpool_less_exclusions.txt	LTP229	ltpFR	16	4	1	MANSION	864	n/a	n/a	0	0.422607421875	0.5869140625	0	upper	zerothre.ttf
634488	WORD	wordpools/wasnorm_wordpool_less_exclusions.txt	LTP229	ltpFR	16	4	1	ANT	25	n/a	n/a	1	0.422607421875	0.5869140625	0	upper	zerothre.ttf
638490	WORD	wordpools/wasnorm_wordpool_less_exclusions.txt	LTP229	ltpFR	16	4	1	STEM	1376	n/a	n/a	1	0.422607421875	0.5869140625	0	upper	zerothre.ttf
642339	WORD	wordpools/wasnorm_wordpool_less_exclusions.txt	LTP229	ltpFR	16	4	1	BUSH	202	n/a	n/a	0	0.422607421875	0.5869140625	0	upper	zerothre.ttf
646537	WORD	wordpools/wasnorm_wordpool_less_exclusions.txt	LTP229	ltpFR	16	4	0	CATHEDRAL	260	n/a	n/a	1	0.57763671875	0.412841796875	1	lower	amplitud.ttf
650452	WORD	wordpools/wasnorm_wordpool_less_exclusions.txt	LTP229	ltpFR	16	4	0	OUTDOORS	987	n/a	n/a	0	0.57763671875	0.412841796875	1	lower	amplitud.ttf
654484	WORD	wordpools/wasnorm_wordpool_less_exclusions.txt	LTP229	ltpFR	16	4	0	PIGEON	1065	n/a	n/a	1	0.57763671875	0.412841796875	1	lower	amplitud.ttf
658516	WORD	wordpools/wasnorm_wordpool_less_exclusions.txt	LTP229	ltpFR	16	4	1	SEAGULL	1261	n/a	n/a	1	0.422607421875	0.5869140625	0	upper	zerothre.ttf
662447	WORD	wordpools/wasnorm_wordpool_less_exclusions.txt	LTP229	ltpFR	16	4	1	SLOPE	1328	n/a	n/a	0	0.422607421875	0.5869140625	0	upper	zerothre.ttf
666429	WORD	wordpools/wasnorm_wordpool_less_exclusions.txt	LTP229	ltpFR	16	4	1	SENATE	1267	n/a	n/a	0	0.422607421875	0.5869140625	0	upper	zerothre.ttf
670394	WORD	wordpools/wasnorm_wordpool_less_exclusions.txt	LTP229	ltpFR	16	4	1	ALLEY	15	n/a	n/a	1	0.422607421875	0.5869140625	0	upper	zerothre.ttf
674492	WORD	wordpools/wasnorm_wordpool_less_exclusions.txt	LTP229	ltpFR	16	4	0	POPE	1105	n/a	n/a	1	0.57763671875	0.412841796875	1	lower	amplitud.ttf
678541	WORD	wordpools/wasnorm_wordpool_less_exclusions.txt	LTP229	ltpFR	16	4	0	GLACIER	638	n/a	n/a	1	0.57763671875	0.412841796875	1	lower	amplitud.ttf
682653	WORD	wordpools/wasnorm_wordpool_less_exclusions.txt	LTP229	ltpFR	16	4	0	POTATO	1115	n/a	n/a	0	0.57763671875	0.412841796875	1	lower	amplitud.ttf
688343	REC_START	n/a	LTP229	ltpFR	16	4	n/a	n/a	n/a	n/a	n/a	n/a	n/a	n/a	n/a	n/a	n/a
689006	REC_WORD	wordpools/wasnorm_wordpool_less_exclusions.txt	LTP229	ltpFR	16	4	0	POPE	1105	n/a	n/a	1	n/a	n/a	n/a	n/a	n/a
690199	REC_WORD	wordpools/wasnorm_wordpool_less_exclusions.txt	LTP229	ltpFR	16	4	0	GLACIER	638	n/a	n/a	1	n/a	n/a	n/a	n/a	n/a
691550	REC_WORD	wordpools/wasnorm_wordpool_less_exclusions.txt	LTP229	ltpFR	16	4	0	POTATO	1115	n/a	n/a	0	n/a	n/a	n/a	n/a	n/a
693371	REC_WORD	wordpools/wasnorm_wordpool_less_exclusions.txt	LTP229	ltpFR	16	4	0	PIGEON	1065	n/a	n/a	1	n/a	n/a	n/a	n/a	n/a
695142	REC_WORD	wordpools/wasnorm_wordpool_less_exclusions.txt	LTP229	ltpFR	16	4	0	MARSH	874	n/a	n/a	1	n/a	n/a	n/a	n/a	n/a
697083	REC_WORD	wordpools/wasnorm_wordpool_less_exclusions.txt	LTP229	ltpFR	16	4	0	BROOK	177	n/a	n/a	1	n/a	n/a	n/a	n/a	n/a
704077	REC_WORD	wordpools/wasnorm_wordpool_less_exclusions.txt	LTP229	ltpFR	16	4	1	MANSION	864	n/a	n/a	0	n/a	n/a	n/a	n/a	n/a
707000	REC_WORD	wordpools/wasnorm_wordpool_less_exclusions.txt	LTP229	ltpFR	16	4	1	ANT	25	n/a	n/a	1	n/a	n/a	n/a	n/a	n/a
709036	REC_WORD	wordpools/wasnorm_wordpool_less_exclusions.txt	LTP229	ltpFR	16	4	1	BUSH	202	n/a	n/a	0	n/a	n/a	n/a	n/a	n/a
711136	REC_WORD	wordpools/wasnorm_wordpool_less_exclusions.txt	LTP229	ltpFR	16	4	1	STEM	1376	n/a	n/a	1	n/a	n/a	n/a	n/a	n/a
789007	WORD	wordpools/wasnorm_wordpool_less_exclusions.txt	LTP229	ltpFR	16	5	0	MUSEUM	933	n/a	n/a	1	0.57763671875	0.412841796875	1	lower	amplitud.ttf
793006	WORD	wordpools/wasnorm_wordpool_less_exclusions.txt	LTP229	ltpFR	16	5	0	STAIRS	1367	n/a	n/a	1	0.57763671875	0.412841796875	1	lower	amplitud.ttf
797067	WORD	wordpools/wasnorm_wordpool_less_exclusions.txt	LTP229	ltpFR	16	5	0	STEP	1377	n/a	n/a	1	0.57763671875	0.412841796875	1	lower	amplitud.ttf
801121	WORD	wordpools/wasnorm_wordpool_less_exclusions.txt	LTP229	ltpFR	16	5	0	TOY	1492	n/a	n/a	0	0.57763671875	0.412841796875	1	lower	amplitud.ttf
805299	WORD	wordpools/wasnorm_wordpool_less_exclusions.txt	LTP229	ltpFR	16	5	0	VOLLEYBALL	1576	n/a	n/a	1	0.57763671875	0.412841796875	1	lower	amplitud.ttf
809352	WORD	wordpools/wasnorm_wordpool_less_exclusions.txt	LTP229	ltpFR	16	5	0	RAISIN	1163	n/a	n/a	0	0.57763671875	0.412841796875	1	lower	amplitud.ttf
813449	WORD	wordpools/wasnorm_wordpool_less_exclusions.txt	LTP229	ltpFR	16	5	0	ALMOND	18	n/a	n/a	0	0.57763671875	0.412841796875	1	lower	amplitud.ttf
817381	WORD	wordpools/wasnorm_wordpool_less_exclusions.txt	LTP229	ltpFR	16	5	0	FARMER	553	n/a	n/a	1	0.57763671875	0.412841796875	1	lower	amplitud.ttf
821213	WORD	wordpools/wasnorm_wordpool_less_exclusions.txt	LTP229	ltpFR	16	5	0	BLACKBERRY	132	n/a	n/a	0	0.57763671875	0.412841796875	1	lower	amplitud.ttf
825161	WORD	wordpools/wasnorm_wordpool_less_exclusions.txt	LTP229	ltpFR	16	5	0	FROST	609	n/a	n/a	0	0.57763671875	0.412841796875	1	lower	amplitud.ttf
829344	WORD	wordpools/wasnorm_wordpool_less_exclusions.txt	LTP229	ltpFR	16	5	0	PAINT	1003	n/a	n/a	1	0.57763671875	0.412841796875	1	lower	amplitud.ttf
833425	WORD	wordpools/wasnorm_wordpool_less_exclusions.txt	LTP229	ltpFR	16	5	0	FEAST	556	n/a	n/a	1	0.57763671875	0.412841796875	1	lower	amplitud.ttf
837386	WORD	wordpools/wasnorm_wordpool_less_exclusions.txt	LTP229	ltpFR	16	5	0	TWEEZERS	1526	n/a	n/a	1	0.57763671875	0.412841796875	1	lower	amplitud.ttf
841555	WORD	wordpools/wasnorm_wordpool_less_exclusions.txt	LTP229	ltpFR	16	5	0	COMB	351	n/a	n/a	0	0.57763671875	0.412841796875	1	lower	amplitud.ttf
845386	WORD	wordpools/wasnorm_wordpool_less_exclusions.txt	LTP229	ltpFR	16	5	0	SEED	1266	n/a	n/a	0	0.57763671875	0.412841796875	1	lower	amplitud.ttf
849602	WORD	wordpools/wasnorm_wordpool_less_exclusions.txt	LTP229	ltpFR	16	5	0	DRYER	503	n/a	n/a	1	0.57763671875	0.412841796875	1	lower	amplitud.ttf
855326	REC_START	n/a	LTP229	ltpFR	16	5	n/a	n/a	n/a	n/a	n/a	n/a	n/a	n/a	n/a	n/a	n/a
856114	REC_WORD	wordpools/wasnorm_wordpool_less_exclusions.txt	LTP229	ltpFR	16	5	0	TWEEZERS	1526	n/a	n/a	1	n/a	n/a	n/a	n/a	n/a
857461	REC_WORD	wordpools/wasnorm_wordpool_less_exclusions.txt	LTP229	ltpFR	16	5	0	COMB	351	n/a	n/a	0	n/a	n/a	n/a	n/a	n/a
859007	REC_WORD	wordpools/wasnorm_wordpool_less_exclusions.txt	LTP229	ltpFR	16	5	n/a	SEA	1259	n/a	n/a	n/a	n/a	n/a	n/a	n/a	n/a
860300	REC_WORD_VV	wordpools/wasnorm_wordpool_less_exclusions.txt	LTP229	ltpFR	16	5	n/a	<>	-1	n/a	n/a	n/a	n/a	n/a	n/a	n/a	n/a
862305	REC_WORD	wordpools/wasnorm_wordpool_less_exclusions.txt	LTP229	ltpFR	16	5	0	SEED	1266	n/a	n/a	0	n/a	n/a	n/a	n/a	n/a
863916	REC_WORD	wordpools/wasnorm_wordpool_less_exclusions.txt	LTP229	ltpFR	16	5	0	DRYER	503	n/a	n/a	1	n/a	n/a	n/a	n/a	n/a
867638	REC_WORD	wordpools/wasnorm_wordpool_less_exclusions.txt	LTP229	ltpFR	16	5	0	MUSEUM	933	n/a	n/a	1	n/a	n/a	n/a	n/a	n/a
869259	REC_WORD	wordpools/wasnorm_wordpool_less_exclusions.txt	LTP229	ltpFR	16	5	0	STAIRS	1367	n/a	n/a	1	n/a	n/a	n/a	n/a	n/a
871015	REC_WORD	wordpools/wasnorm_wordpool_less_exclusions.txt	LTP229	ltpFR	16	5	0	STEP	1377	n/a	n/a	1	n/a	n/a	n/a	n/a	n/a
874392	REC_WORD	wordpools/wasnorm_wordpool_less_exclusions.txt	LTP229	ltpFR	16	5	0	FARMER	553	n/a	n/a	1	n/a	n/a	n/a	n/a	n/a
876607	REC_WORD	wordpools/wasnorm_wordpool_less_exclusions.txt	LTP229	ltpFR	16	5	0	FROST	609	n/a	n/a	0	n/a	n/a	n/a	n/a	n/a
880284	REC_WORD	wordpools/wasnorm_wordpool_less_exclusions.txt	LTP229	ltpFR	16	5	0	BLACKBERRY	132	n/a	n/a	0	n/a	n/a	n/a	n/a	n/a
882344	REC_WORD	wordpools/wasnorm_wordpool_less_exclusions.txt	LTP229	ltpFR	16	5	0	RAISIN	1163	n/a	n/a	0	n/a	n/a	n/a	n/a	n/a
884564	REC_WORD	wordpools/wasnorm_wordpool_less_exclusions.txt	LTP229	ltpFR	16	5	0	ALMOND	18	n/a	n/a	0	n/a	n/a	n/a	n/a	n/a
888944	REC_WORD	wordpools/wasnorm_wordpool_less_exclusions.txt	LTP229	ltpFR	16	5	0	TOY	1492	n/a	n/a	0	n/a	n/a	n/a	n/a	n/a
891134	REC_WORD	wordpools/wasnorm_wordpool_less_exclusions.txt	LTP229	ltpFR	16	5	0	VOLLEYBALL	1576	n/a	n/a	1	n/a	n/a	n/a	n/a	n/a
977201	WORD	wordpools/wasnorm_wordpool_less_exclusions.txt	LTP229	ltpFR	16	6	1	FOLDER	588	n/a	n/a	0	0.422607421875	0.5869140625	0	upper	zerothre.ttf
981316	WORD	wordpools/wasnorm_wordpool_less_exclusions.txt	LTP229	ltpFR	16	6	1	DONKEY	484	n/a	n/a	1	0.422607421875	0.5869140625	0	upper	zerothre.ttf
985148	WORD	wordpools/wasnorm_wordpool_less_exclusions.txt	LTP229	ltpFR	16	6	1	PLASTER	1085	n/a	n/a	0	0.422607421875	0.5869140625	0	upper	zerothre.ttf
989362	WORD	wordpools/wasnorm_wordpool_less_exclusions.txt	LTP229	ltpFR	16	6	1	NOTE	958	n/a	n/a	0	0.422607421875	0.5869140625	0	upper	zerothre.ttf
993328	WORD	wordpools/wasnorm_wordpool_less_exclusions.txt	LTP229	ltpFR	16	6	1	CANDIDATE	228	n/a	n/a	1	0.422607421875	0.5869140625	0	upper	zerothre.ttf
997176	WORD	wordpools/wasnorm_wordpool_less_exclusions.txt	LTP229	ltpFR	16	6	1	TOWEL	1489	n/a	n/a	0	0.422607421875	0.5869140625	0	upper	zerothre.ttf
1001391	WORD	wordpools/wasnorm_wordpool_less_exclusions.txt	LTP229	ltpFR	16	6	1	WATERFALL	1595	n/a	n/a	0	0.422607421875	0.5869140625	0	upper	zerothre.ttf
1005456	WORD	wordpools/wasnorm_wordpool_less_exclusions.txt	LTP229	ltpFR	16	6	1	PUDDLE	1140	n/a	n/a	1	0.422607421875	0.5869140625	0	upper	zerothre.ttf
1009371	WORD	wordpools/wasnorm_wordpool_less_exclusions.txt	LTP229	ltpFR	16	6	1	PIT	1077	n/a	n/a	0	0.422607421875	0.5869140625	0	upper	zerothre.ttf
1013470	WORD	wordpools/wasnorm_wordpool_less_exclusions.txt	LTP229	ltpFR	16	6	1	PUPPY	1144	n/a	n/a	1	0.422607421875	0.5869140625	0	upper	zerothre.ttf
1017602	WORD	wordpools/wasnorm_wordpool_less_exclusions.txt	LTP229	ltpFR	16	6	1	CHEESE	289	n/a	n/a	0	0.422607421875	0.5869140625	0	upper	zerothre.ttf
1021500	WORD	wordpools/wasnorm_wordpool_less_exclusions.txt	LTP229	ltpFR	16	6	1	GYMNAST	675	n/a	n/a	1	0.422607421875	0.5869140625	0	upper	zerothre.ttf
1025666	WORD	wordpools/wasnorm_wordpool_less_exclusions.txt	LTP229	ltpFR	16	6	1	COACH	331	n/a	n/a	1	0.422607421875	0.5869140625	0	upper	zerothre.ttf
1029781	WORD	wordpools/wasnorm_wordpool_less_exclusions.txt	LTP229	ltpFR	16	6	1	GRATE	657	n/a	n/a	0	0.422607421875	0.5869140625	0	upper	zerothre.ttf
1033646	WORD	wordpools/wasnorm_wordpool_less_exclusions.txt	LTP229	ltpFR	16	6	1	RACKET	1155	n/a	n/a	0	0.422607421875	0.5869140625	0	upper	zerothre.ttf
1037745	WORD	wordpools/wasnorm_wordpool_less_exclusions.txt	LTP229	ltpFR	16	6	1	SOFTBALL	1343	n/a	n/a	0	0.422607421875	0.5869140625	0	upper	zerothre.ttf
1043547	REC_START	n/a	LTP229	ltpFR	16	6	n/a	n/a	n/a	n/a	n/a	n/a	n/a	n/a	n/a	n/a	n/a
1044345	REC_WORD	wordpools/wasnorm_wordpool_less_exclusions.txt	LTP229	ltpFR	16	6	1	FOLDER	588	n/a	n/a	0	n/a	n/a	n/a	n/a	n/a
1045612	REC_WORD	wordpools/wasnorm_wordpool_less_exclusions.txt	LTP229	ltpFR	16	6	1	PLASTER	1085	n/a	n/a	0	n/a	n/a	n/a	n/a	n/a
1047144	REC_WORD	wordpools/wasnorm_wordpool_less_exclusions.txt	LTP229	ltpFR	16	6	1	NOTE	958	n/a	n/a	0	n/a	n/a	n/a	n/a	n/a
1048625	REC_WORD	wordpools/wasnorm_wordpool_less_exclusions.txt	LTP229	ltpFR	16	6	1	TOWEL	1489	n/a	n/a	0	n/a	n/a	n/a	n/a	n/a
1050581	REC_WORD	wordpools/wasnorm_wordpool_less_exclusions.txt	LTP229	ltpFR	16	6	1	GRATE	657	n/a	n/a	0	n/a	n/a	n/a	n/a	n/a
1052791	REC_WORD_VV	wordpools/wasnorm_wordpool_less_exclusions.txt	LTP229	ltpFR	16	6	n/a	<>	-1	n/a	n/a	n/a	n/a	n/a	n/a	n/a	n/a
1053791	REC_WORD_VV	wordpools/wasnorm_wordpool_less_exclusions.txt	LTP229	ltpFR	16	6	n/a	<>	-1	n/a	n/a	n/a	n/a	n/a	n/a	n/a	n/a
1058562	REC_WORD	wordpools/wasnorm_wordpool_less_exclusions.txt	LTP229	ltpFR	16	6	1	SOFTBALL	1343	n/a	n/a	0	n/a	n/a	n/a	n/a	n/a
1063407	REC_WORD	wordpools/wasnorm_wordpool_less_exclusions.txt	LTP229	ltpFR	16	6	1	DONKEY	484	n/a	n/a	1	n/a	n/a	n/a	n/a	n/a
1065018	REC_WORD	wordpools/wasnorm_wordpool_less_exclusions.txt	LTP229	ltpFR	16	6	1	CANDIDATE	228	n/a	n/a	1	n/a	n/a	n/a	n/a	n/a
1066729	REC_WORD	wordpools/wasnorm_wordpool_less_exclusions.txt	LTP229	ltpFR	16	6	1	PUPPY	1144	n/a	n/a	1	n/a	n/a	n/a	n/a	n/a
1068460	REC_WORD	wordpools/wasnorm_wordpool_less_exclusions.txt	LTP229	ltpFR	16	6	1	WATERFALL	1595	n/a	n/a	0	n/a	n/a	n/a	n/a	n/a
1070341	REC_WORD	wordpools/wasnorm_wordpool_less_exclusions.txt	LTP229	ltpFR	16	6	1	COACH	331	n/a	n/a	1	n/a	n/a	n/a	n/a	n/a
1071967	REC_WORD	wordpools/wasnorm_wordpool_less_exclusions.txt	LTP229	ltpFR	16	6	1	GYMNAST	675	n/a	n/a	1	n/a	n/a	n/a	n/a	n/a
1114186	REC_WORD	wordpools/wasnorm_wordpool_less_exclusions.txt	LTP229	ltpFR	16	6	0	COMB	351	n/a	n/a	0	n/a	n/a	n/a	n/a	n/a
1143344	WORD	wordpools/wasnorm_wordpool_less_exclusions.txt	LTP229	ltpFR	16	7	1	VET	1560	n/a	n/a	1	0.422607421875	0.5869140625	0	upper	zerothre.ttf
1147425	WORD	wordpools/wasnorm_wordpool_less_exclusions.txt	LTP229	ltpFR	16	7	1	PEPPER	1047	n/a	n/a	0	0.422607421875	0.5869140625	0	upper	zerothre.ttf
1151390	WORD	wordpools/wasnorm_wordpool_less_exclusions.txt	LTP229	ltpFR	16	7	1	HAMMER	680	n/a	n/a	0	0.422607421875	0.5869140625	0	upper	zerothre.ttf
1155606	WORD	wordpools/wasnorm_wordpool_less_exclusions.txt	LTP229	ltpFR	16	7	1	BOXER	160	n/a	n/a	1	0.422607421875	0.5869140625	0	upper	zerothre.ttf
1159771	WORD	wordpools/wasnorm_wordpool_less_exclusions.txt	LTP229	ltpFR	16	7	1	LINT	826	n/a	n/a	0	0.422607421875	0.5869140625	0	upper	zerothre.ttf
1163970	WORD	wordpools/wasnorm_wordpool_less_exclusions.txt	LTP229	ltpFR	16	7	1	LAUNDRY	803	n/a	n/a	0	0.422607421875	0.5869140625	0	upper	zerothre.ttf
1168120	WORD	wordpools/wasnorm_wordpool_less_exclusions.txt	LTP229	ltpFR	16	7	1	DOUGH	489	n/a	n/a	0	0.422607421875	0.5869140625	0	upper	zerothre.ttf
1172182	WORD	wordpools/wasnorm_wordpool_less_exclusions.txt	LTP229	ltpFR	16	7	1	TAIL	1430	n/a	n/a	0	0.422607421875	0.5869140625	0	upper	zerothre.ttf
1176384	WORD	wordpools/wasnorm_wordpool_less_exclusions.txt	LTP229	ltpFR	16	7	1	BARK	87	n/a	n/a	0	0.422607421875	0.5869140625	0	upper	zerothre.ttf
1180379	WORD	wordpools/wasnorm_wordpool_less_exclusions.txt	LTP229	ltpFR	16	7	1	DUSTPAN	509	n/a	n/a	0	0.422607421875	0.5869140625	0	upper	zerothre.ttf
1184397	WORD	wordpools/wasnorm_wordpool_less_exclusions.txt	LTP229	ltpFR	16	7	1	RECEPTIONIST	1174	n/a	n/a	0	0.422607421875	0.5869140625	0	upper	zerothre.ttf
1188496	WORD	wordpools/wasnorm_wordpool_less_exclusions.txt	LTP229	ltpFR	16	7	1	BARLEY	88	n/a	n/a	0	0.422607421875	0.5869140625	0	upper	zerothre.ttf
1192411	WORD	wordpools/wasnorm_wordpool_less_exclusions.txt	LTP229	ltpFR	16	7	1	DISH	474	n/a	n/a	0	0.422607421875	0.5869140625	0	upper	zerothre.ttf
1196577	WORD	wordpools/wasnorm_wordpool_less_exclusions.txt	LTP229	ltpFR	16	7	1	ASSISTANT	48	n/a	n/a	1	0.422607421875	0.5869140625	0	upper	zerothre.ttf
1200759	WORD	wordpools/wasnorm_wordpool_less_exclusions.txt	LTP229	ltpFR	16	7	1	HAWK	692	n/a	n/a	1	0.422607421875	0.5869140625	0	upper	zerothre.ttf
1204787	WORD	wordpools/wasnorm_wordpool_less_exclusions.txt	LTP229	ltpFR	16	7	1	NEST	945	n/a	n/a	0	0.422607421875	0.5869140625	0	upper	zerothre.ttf
1210761	REC_START	n/a	LTP229	ltpFR	16	7	n/a	n/a	n/a	n/a	n/a	n/a	n/a	n/a	n/a	n/a	n/a
1211399	REC_WORD	wordpools/wasnorm_wordpool_less_exclusions.txt	LTP229	ltpFR	16	7	1	BOXER	160	n/a	n/a	1	n/a	n/a	n/a	n/a	n/a
1213235	REC_WORD	wordpools/wasnorm_wordpool_less_exclusions.txt	LTP229	ltpFR	16	7	1	RECEPTIONIST	1174	n/a	n/a	0	n/a	n/a	n/a	n/a	n/a
1215390	REC_WORD	wordpools/wasnorm_wordpool_less_exclusions.txt	LTP229	ltpFR	16	7	1	ASSISTANT	48	n/a	n/a	1	n/a	n/a	n/a	n/a	n/a
1217825	REC_WORD	wordpools/wasnorm_wordpool_less_exclusions.txt	LTP229	ltpFR	16	7	1	HAWK	692	n/a	n/a	1	n/a	n/a	n/a	n/a	n/a
1220144	REC_WORD	wordpools/wasnorm_wordpool_less_exclusions.txt	LTP229	ltpFR	16	7	1	NEST	945	n/a	n/a	0	n/a	n/a	n/a	n/a	n/a
1224674	REC_WORD	wordpools/wasnorm_wordpool_less_exclusions.txt	LTP229	ltpFR	16	7	1	DUSTPAN	509	n/a	n/a	0	n/a	n/a	n/a	n/a	n/a
1226535	REC_WORD	wordpools/wasnorm_wordpool_less_exclusions.txt	LTP229	ltpFR	16	7	1	LAUNDRY	803	n/a	n/a	0	n/a	n/a	n/a	n/a	n/a
1228775	REC_WORD	wordpools/wasnorm_wordpool_less_exclusions.txt	LTP229	ltpFR	16	7	1	LINT	826	n/a	n/a	0	n/a	n/a	n/a	n/a	n/a
1233239	REC_WORD	wordpools/wasnorm_wordpool_less_exclusions.txt	LTP229	ltpFR	16	7	1	PEPPER	1047	n/a	n/a	0	n/a	n/a	n/a	n/a	n/a
1235095	REC_WORD	wordpools/wasnorm_wordpool_less_exclusions.txt	LTP229	ltpFR	16	7	1	HAMMER	680	n/a	n/a	0	n/a	n/a	n/a	n/a	n/a
1314990	WORD	wordpools/wasnorm_wordpool_less_exclusions.txt	LTP229	ltpFR	16	8	0	DRUM	502	n/a	n/a	0	0.57763671875	0.412841796875	1	lower	amplitud.ttf
1319001	WORD	wordpools/wasnorm_wordpool_less_exclusions.txt	LTP229	ltpFR	16	8	0	BUN	197	n/a	n/a	0	0.57763671875	0.412841796875	1	lower	amplitud.ttf
1323138	WORD	wordpools/wasnorm_wordpool_less_exclusions.txt	LTP229	ltpFR	16	8	0	BUGGY	188	n/a	n/a	1	0.57763671875	0.412841796875	1	lower	amplitud.ttf
1327320	WORD	wordpools/wasnorm_wordpool_less_exclusions.txt	LTP229	ltpFR	16	8	0	FLY	586	n/a	n/a	0	0.57763671875	0.412841796875	1	lower	amplitud.ttf
1331215	WORD	wordpools/wasnorm_wordpool_less_exclusions.txt	LTP229	ltpFR	16	8	1	LOBBY	836	n/a	n/a	1	0.422607421875	0.5869140625	0	upper	zerothre.ttf
1335379	WORD	wordpools/wasnorm_wordpool_less_exclusions.txt	LTP229	ltpFR	16	8	1	PORCUPINE	1107	n/a	n/a	1	0.422607421875	0.5869140625	0	upper	zerothre.ttf
1339465	WORD	wordpools/wasnorm_wordpool_less_exclusions.txt	LTP229	ltpFR	16	8	1	VISITOR	1573	n/a	n/a	0	0.422607421875	0.5869140625	0	upper	zerothre.ttf
1343430	WORD	wordpools/wasnorm_wordpool_less_exclusions.txt	LTP229	ltpFR	16	8	0	CHICK	296	n/a	n/a	1	0.57763671875	0.412841796875	1	lower	amplitud.ttf
1347646	WORD	wordpools/wasnorm_wordpool_less_exclusions.txt	LTP229	ltpFR	16	8	0	SPARROW	1347	n/a	n/a	1	0.57763671875	0.412841796875	1	lower	amplitud.ttf
1351795	WORD	wordpools/wasnorm_wordpool_less_exclusions.txt	LTP229	ltpFR	16	8	0	BISCUIT	130	n/a	n/a	0	0.57763671875	0.412841796875	1	lower	amplitud.ttf
1355944	WORD	wordpools/wasnorm_wordpool_less_exclusions.txt	LTP229	ltpFR	16	8	0	SWIMMER	1420	n/a	n/a	1	0.57763671875	0.412841796875	1	lower	amplitud.ttf
1359842	WORD	wordpools/wasnorm_wordpool_less_exclusions.txt	LTP229	ltpFR	16	8	1	WAVE	1596	n/a	n/a	0	0.422607421875	0.5869140625	0	upper	zerothre.ttf
1364021	WORD	wordpools/wasnorm_wordpool_less_exclusions.txt	LTP229	ltpFR	16	8	1	GREASE	660	n/a	n/a	0	0.422607421875	0.5869140625	0	upper	zerothre.ttf
1367935	WORD	wordpools/wasnorm_wordpool_less_exclusions.txt	LTP229	ltpFR	16	8	1	MINK	897	n/a	n/a	0	0.422607421875	0.5869140625	0	upper	zerothre.ttf
1372051	WORD	wordpools/wasnorm_wordpool_less_exclusions.txt	LTP229	ltpFR	16	8	1	JACKET	747	n/a	n/a	1	0.422607421875	0.5869140625	0	upper	zerothre.ttf
1376154	WORD	wordpools/wasnorm_wordpool_less_exclusions.txt	LTP229	ltpFR	16	8	1	MONKEY	911	n/a	n/a	1	0.422607421875	0.5869140625	0	upper	zerothre.ttf
1382111	REC_START	n/a	LTP229	ltpFR	16	8	n/a	n/a	n/a	n/a	n/a	n/a	n/a	n/a	n/a	n/a	n/a
1383343	REC_WORD	wordpools/wasnorm_wordpool_less_exclusions.txt	LTP229	ltpFR	16	8	1	MONKEY	911	n/a	n/a	1	n/a	n/a	n/a	n/a	n/a
1385004	REC_WORD	wordpools/wasnorm_wordpool_less_exclusions.txt	LTP229	ltpFR	16	8	1	LOBBY	836	n/a	n/a	1	n/a	n/a	n/a	n/a	n/a
1386246	REC_WORD	wordpools/wasnorm_wordpool_less_exclusions.txt	LTP229	ltpFR	16	8	1	VISITOR	1573	n/a	n/a	0	n/a	n/a	n/a	n/a	n/a
1388786	REC_WORD	wordpools/wasnorm_wordpool_less_exclusions.txt	LTP229	ltpFR	16	8	0	SWIMMER	1420	n/a	n/a	1	n/a	n/a	n/a	n/a	n/a
1392642	REC_WORD	wordpools/wasnorm_wordpool_less_exclusions.txt	LTP229	ltpFR	16	8	0	BUN	197	n/a	n/a	0	n/a	n/a	n/a	n/a	n/a
1393869	REC_WORD	wordpools/wasnorm_wordpool_less_exclusions.txt	LTP229	ltpFR	16	8	0	BISCUIT	130	n/a	n/a	0	n/a	n/a	n/a	n/a	n/a
1395525	REC_WORD	wordpools/wasnorm_wordpool_less_exclusions.txt	LTP229	ltpFR	16	8	0	FLY	586	n/a	n/a	0	n/a	n/a	n/a	n/a	n/a
1396986	REC_WORD	wordpools/wasnorm_wordpool_less_exclusions.txt	LTP229	ltpFR	16	8	0	SPARROW	1347	n/a	n/a	1	n/a	n/a	n/a	n/a	n/a
1399397	REC_WORD	wordpools/wasnorm_wordpool_less_exclusions.txt	LTP229	ltpFR	16	8	0	DRUM	502	n/a	n/a	0	n/a	n/a	n/a	n/a	n/a
1451209	REC_WORD	wordpools/wasnorm_wordpool_less_exclusions.txt	LTP229	ltpFR	16	8	1	WAVE	1596	n/a	n/a	0	n/a	n/a	n/a	n/a	n/a
1490016	WORD	wordpools/wasnorm_wordpool_less_exclusions.txt	LTP229	ltpFR	16	9	-1	WALNUT	1584	n/a	n/a	-1	1.0	1.0	1	upper	Verdana.ttf
1493864	WORD	wordpools/wasnorm_wordpool_less_exclusions.txt	LTP229	ltpFR	16	9	-1	WINE	1613	n/a	n/a	-1	1.0	1.0	1	upper	Verdana.ttf
1498013	WORD	wordpools/wasnorm_wordpool_less_exclusions.txt	LTP229	ltpFR	16	9	-1	DINNER	468	n/a	n/a	-1	1.0	1.0	1	upper	Verdana.ttf
1502213	WORD	wordpools/wasnorm_wordpool_less_exclusions.txt	LTP229	ltpFR	16	9	-1	MATTRESS	879	n/a	n/a	-1	1.0	1.0	1	upper	Verdana.ttf
1506245	WORD	wordpools/wasnorm_wordpool_less_exclusions.txt	LTP229	ltpFR	16	9	-1	PRINTER	1126	n/a	n/a	-1	1.0	1.0	1	upper	Verdana.ttf
1510143	WORD	wordpools/wasnorm_wordpool_less_exclusions.txt	LTP229	ltpFR	16	9	-1	VALVE	1546	n/a	n/a	-1	1.0	1.0	1	upper	Verdana.ttf
1514006	WORD	wordpools/wasnorm_wordpool_less_exclusions.txt	LTP229	ltpFR	16	9	-1	CARAVAN	242	n/a	n/a	-1	1.0	1.0	1	upper	Verdana.ttf
1518005	WORD	wordpools/wasnorm_wordpool_less_exclusions.txt	LTP229	ltpFR	16	9	-1	KEYBOARD	774	n/a	n/a	-1	1.0	1.0	1	upper	Verdana.ttf
1522020	WORD	wordpools/wasnorm_wordpool_less_exclusions.txt	LTP229	ltpFR	16	9	-1	ROBIN	1199	n/a	n/a	-1	1.0	1.0	1	upper	Verdana.ttf
1525884	WORD	wordpools/wasnorm_wordpool_less_exclusions.txt	LTP229	ltpFR	16	9	-1	SWATTER	1418	n/a	n/a	-1	1.0	1.0	1	upper	Verdana.ttf
1530101	WORD	wordpools/wasnorm_wordpool_less_exclusions.txt	LTP229	ltpFR	16	9	-1	DOCUMENT	479	n/a	n/a	-1	1.0	1.0	1	upper	Verdana.ttf
1533948	WORD	wordpools/wasnorm_wordpool_less_exclusions.txt	LTP229	ltpFR	16	9	-1	BONE	148	n/a	n/a	-1	1.0	1.0	1	upper	Verdana.ttf
1538098	WORD	wordpools/wasnorm_wordpool_less_exclusions.txt	LTP229	ltpFR	16	9	-1	NIECE	952	n/a	n/a	-1	1.0	1.0	1	upper	Verdana.ttf
1542147	WORD	wordpools/wasnorm_wordpool_less_exclusions.txt	LTP229	ltpFR	16	9	-1	UTENSIL	1542	n/a	n/a	-1	1.0	1.0	1	upper	Verdana.ttf
1546329	WORD	wordpools/wasnorm_wordpool_less_exclusions.txt	LTP229	ltpFR	16	9	-1	TOOL	1480	n/a	n/a	-1	1.0	1.0	1	upper	Verdana.ttf
1550527	WORD	wordpools/wasnorm_wordpool_less_exclusions.txt	LTP229	ltpFR	16	9	-1	JOINT	758	n/a	n/a	-1	1.0	1.0	1	upper	Verdana.ttf
1556301	REC_START	n/a	LTP229	ltpFR	16	9	n/a	n/a	n/a	n/a	n/a	n/a	n/a	n/a	n/a	n/a	n/a
1557204	REC_WORD	wordpools/wasnorm_wordpool_less_exclusions.txt	LTP229	ltpFR	16	9	-1	BONE	148	n/a	n/a	-1	n/a	n/a	n/a	n/a	n/a
1558850	REC_WORD	wordpools/wasnorm_wordpool_less_exclusions.txt	LTP229	ltpFR	16	9	-1	JOINT	758	n/a	n/a	-1	n/a	n/a	n/a	n/a	n/a
1560461	REC_WORD	wordpools/wasnorm_wordpool_less_exclusions.txt	LTP229	ltpFR	16	9	-1	VALVE	1546	n/a	n/a	-1	n/a	n/a	n/a	n/a	n/a
1562083	REC_WORD	wordpools/wasnorm_wordpool_less_exclusions.txt	LTP229	ltpFR	16	9	-1	ROBIN	1199	n/a	n/a	-1	n/a	n/a	n/a	n/a	n/a
1563499	REC_WORD	wordpools/wasnorm_wordpool_less_exclusions.txt	LTP229	ltpFR	16	9	-1	SWATTER	1418	n/a	n/a	-1	n/a	n/a	n/a	n/a	n/a
1565096	REC_WORD	wordpools/wasnorm_wordpool_less_exclusions.txt	LTP229	ltpFR	16	9	-1	CARAVAN	242	n/a	n/a	-1	n/a	n/a	n/a	n/a	n/a
1566552	REC_WORD	wordpools/wasnorm_wordpool_less_exclusions.txt	LTP229	ltpFR	16	9	-1	MATTRESS	879	n/a	n/a	-1	n/a	n/a	n/a	n/a	n/a
1568194	REC_WORD	wordpools/wasnorm_wordpool_less_exclusions.txt	LTP229	ltpFR	16	9	-1	WALNUT	1584	n/a	n/a	-1	n/a	n/a	n/a	n/a	n/a
1569556	REC_WORD	wordpools/wasnorm_wordpool_less_exclusions.txt	LTP229	ltpFR	16	9	-1	WINE	1613	n/a	n/a	-1	n/a	n/a	n/a	n/a	n/a
1571317	REC_WORD	wordpools/wasnorm_wordpool_less_exclusions.txt	LTP229	ltpFR	16	9	-1	DINNER	468	n/a	n/a	-1	n/a	n/a	n/a	n/a	n/a
1573646	REC_WORD	wordpools/wasnorm_wordpool_less_exclusions.txt	LTP229	ltpFR	16	9	-1	PRINTER	1126	n/a	n/a	-1	n/a	n/a	n/a	n/a	n/a
1575033	REC_WORD	wordpools/wasnorm_wordpool_less_exclusions.txt	LTP229	ltpFR	16	9	-1	KEYBOARD	774	n/a	n/a	-1	n/a	n/a	n/a	n/a	n/a
1576979	REC_WORD	wordpools/wasnorm_wordpool_less_exclusions.txt	LTP229	ltpFR	16	9	-1	DOCUMENT	479	n/a	n/a	-1	n/a	n/a	n/a	n/a	n/a
1579089	REC_WORD	wordpools/wasnorm_wordpool_less_exclusions.txt	LTP229	ltpFR	16	9	-1	TOOL	1480	n/a	n/a	-1	n/a	n/a	n/a	n/a	n/a
1583599	REC_WORD	wordpools/wasnorm_wordpool_less_exclusions.txt	LTP229	ltpFR	16	9	-1	ROBIN	1199	n/a	n/a	-1	n/a	n/a	n/a	n/a	n/a
1584711	REC_WORD_VV	wordpools/wasnorm_wordpool_less_exclusions.txt	LTP229	ltpFR	16	9	n/a	<>	-1	n/a	n/a	n/a	n/a	n/a	n/a	n/a	n/a
1610158	REC_WORD	wordpools/wasnorm_wordpool_less_exclusions.txt	LTP229	ltpFR	16	9	-1	MATTRESS	879	n/a	n/a	-1	n/a	n/a	n/a	n/a	n/a
1620789	REC_WORD	wordpools/wasnorm_wordpool_less_exclusions.txt	LTP229	ltpFR	16	9	-1	DOCUMENT	479	n/a	n/a	-1	n/a	n/a	n/a	n/a	n/a
1678694	WORD	wordpools/wasnorm_wordpool_less_exclusions.txt	LTP229	ltpFR	16	10	1	THIGH	1457	n/a	n/a	0	0.422607421875	0.5869140625	0	upper	zerothre.ttf
1682558	WORD	wordpools/wasnorm_wordpool_less_exclusions.txt	LTP229	ltpFR	16	10	1	EMPIRE	530	n/a	n/a	1	0.422607421875	0.5869140625	0	upper	zerothre.ttf
1686519	WORD	wordpools/wasnorm_wordpool_less_exclusions.txt	LTP229	ltpFR	16	10	1	DICE	461	n/a	n/a	0	0.422607421875	0.5869140625	0	upper	zerothre.ttf
1690655	WORD	wordpools/wasnorm_wordpool_less_exclusions.txt	LTP229	ltpFR	16	10	0	PIKE	1067	n/a	n/a	0	0.57763671875	0.412841796875	1	lower	amplitud.ttf
1694587	WORD	wordpools/wasnorm_wordpool_less_exclusions.txt	LTP229	ltpFR	16	10	0	CHEF	290	n/a	n/a	1	0.57763671875	0.412841796875	1	lower	amplitud.ttf
1698481	WORD	wordpools/wasnorm_wordpool_less_exclusions.txt	LTP229	ltpFR	16	10	0	MICROWAVE	892	n/a	n/a	1	0.57763671875	0.412841796875	1	lower	amplitud.ttf
1702463	WORD	wordpools/wasnorm_wordpool_less_exclusions.txt	LTP229	ltpFR	16	10	0	CONTAINER	366	n/a	n/a	1	0.57763671875	0.412841796875	1	lower	amplitud.ttf
1706498	WORD	wordpools/wasnorm_wordpool_less_exclusions.txt	LTP229	ltpFR	16	10	1	PLATE	1086	n/a	n/a	0	0.422607421875	0.5869140625	0	upper	zerothre.ttf
1710380	WORD	wordpools/wasnorm_wordpool_less_exclusions.txt	LTP229	ltpFR	16	10	1	SHACK	1273	n/a	n/a	1	0.422607421875	0.5869140625	0	upper	zerothre.ttf
1714346	WORD	wordpools/wasnorm_wordpool_less_exclusions.txt	LTP229	ltpFR	16	10	1	CONTRACTOR	369	n/a	n/a	1	0.422607421875	0.5869140625	0	upper	zerothre.ttf
1718210	WORD	wordpools/wasnorm_wordpool_less_exclusions.txt	LTP229	ltpFR	16	10	0	CHEERLEADER	288	n/a	n/a	1	0.57763671875	0.412841796875	1	lower	amplitud.ttf
1722292	WORD	wordpools/wasnorm_wordpool_less_exclusions.txt	LTP229	ltpFR	16	10	0	FISH	571	n/a	n/a	1	0.57763671875	0.412841796875	1	lower	amplitud.ttf
1726423	WORD	wordpools/wasnorm_wordpool_less_exclusions.txt	LTP229	ltpFR	16	10	0	WASP	1593	n/a	n/a	0	0.57763671875	0.412841796875	1	lower	amplitud.ttf
1730506	WORD	wordpools/wasnorm_wordpool_less_exclusions.txt	LTP229	ltpFR	16	10	0	APPENDAGE	32	n/a	n/a	0	0.57763671875	0.412841796875	1	lower	amplitud.ttf
1734588	WORD	wordpools/wasnorm_wordpool_less_exclusions.txt	LTP229	ltpFR	16	10	1	MICROSCOPE	891	n/a	n/a	0	0.422607421875	0.5869140625	0	upper	zerothre.ttf
1738720	WORD	wordpools/wasnorm_wordpool_less_exclusions.txt	LTP229	ltpFR	16	10	1	TWIN	1528	n/a	n/a	1	0.422607421875	0.5869140625	0	upper	zerothre.ttf
1744693	REC_START	n/a	LTP229	ltpFR	16	10	n/a	n/a	n/a	n/a	n/a	n/a	n/a	n/a	n/a	n/a	n/a
1745496	REC_WORD	wordpools/wasnorm_wordpool_less_exclusions.txt	LTP229	ltpFR	16	10	1	SHACK	1273	n/a	n/a	1	n/a	n/a	n/a	n/a	n/a
1747287	REC_WORD	wordpools/wasnorm_wordpool_less_exclusions.txt	LTP229	ltpFR	16	10	1	TWIN	1528	n/a	n/a	1	n/a	n/a	n/a	n/a	n/a
1748833	REC_WORD	wordpools/wasnorm_wordpool_less_exclusions.txt	LTP229	ltpFR	16	10	1	MICROSCOPE	891	n/a	n/a	0	n/a	n/a	n/a	n/a	n/a
1754047	REC_WORD	wordpools/wasnorm_wordpool_less_exclusions.txt	LTP229	ltpFR	16	10	0	CHEF	290	n/a	n/a	1	n/a	n/a	n/a	n/a	n/a
1755892	REC_WORD	wordpools/wasnorm_wordpool_less_exclusions.txt	LTP229	ltpFR	16	10	0	MICROWAVE	892	n/a	n/a	1	n/a	n/a	n/a	n/a	n/a
1762253	REC_WORD	wordpools/wasnorm_wordpool_less_exclusions.txt	LTP229	ltpFR	16	10	0	CONTAINER	366	n/a	n/a	1	n/a	n/a	n/a	n/a	n/a
1764138	REC_WORD	wordpools/wasnorm_wordpool_less_exclusions.txt	LTP229	ltpFR	16	10	0	FISH	571	n/a	n/a	1	n/a	n/a	n/a	n/a	n/a
1766109	REC_WORD	wordpools/wasnorm_wordpool_less_exclusions.txt	LTP229	ltpFR	16	10	0	CHEERLEADER	288	n/a	n/a	1	n/a	n/a	n/a	n/a	n/a
1797441	REC_WORD	wordpools/wasnorm_wordpool_less_exclusions.txt	LTP229	ltpFR	16	10	1	EMPIRE	530	n/a	n/a	1	n/a	n/a	n/a	n/a	n/a
1799229	REC_WORD	wordpools/wasnorm_wordpool_less_exclusions.txt	LTP229	ltpFR	16	10	1	DICE	461	n/a	n/a	0	n/a	n/a	n/a	n/a	n/a
1814459	REC_WORD	wordpools/wasnorm_wordpool_less_exclusions.txt	LTP229	ltpFR	16	10	0	APPENDAGE	32	n/a	n/a	0	n/a	n/a	n/a	n/a	n/a
1841858	WORD	wordpools/wasnorm_wordpool_less_exclusions.txt	LTP229	ltpFR	16	11	0	BOULDER	155	n/a	n/a	0	0.57763671875	0.412841796875	1	lower	amplitud.ttf
1845706	WORD	wordpools/wasnorm_wordpool_less_exclusions.txt	LTP229	ltpFR	16	11	0	SOCIETY	1338	n/a	n/a	1	0.57763671875	0.412841796875	1	lower	amplitud.ttf
1849688	WORD	wordpools/wasnorm_wordpool_less_exclusions.txt	LTP229	ltpFR	16	11	0	BRAKE	166	n/a	n/a	1	0.57763671875	0.412841796875	1	lower	amplitud.ttf
1853670	WORD	wordpools/wasnorm_wordpool_less_exclusions.txt	LTP229	ltpFR	16	11	0	CURTAIN	427	n/a	n/a	1	0.57763671875	0.412841796875	1	lower	amplitud.ttf
1857685	WORD	wordpools/wasnorm_wordpool_less_exclusions.txt	LTP229	ltpFR	16	11	0	WOLF	1619	n/a	n/a	1	0.57763671875	0.412841796875	1	lower	amplitud.ttf
1861901	WORD	wordpools/wasnorm_wordpool_less_exclusions.txt	LTP229	ltpFR	16	11	0	LOCK	838	n/a	n/a	1	0.57763671875	0.412841796875	1	lower	amplitud.ttf
1865899	WORD	wordpools/wasnorm_wordpool_less_exclusions.txt	LTP229	ltpFR	16	11	0	WINDOW	1611	n/a	n/a	1	0.57763671875	0.412841796875	1	lower	amplitud.ttf
1869730	WORD	wordpools/wasnorm_wordpool_less_exclusions.txt	LTP229	ltpFR	16	11	0	DUST	508	n/a	n/a	0	0.57763671875	0.412841796875	1	lower	amplitud.ttf
1873896	WORD	wordpools/wasnorm_wordpool_less_exclusions.txt	LTP229	ltpFR	16	11	0	AUDIENCE	59	n/a	n/a	1	0.57763671875	0.412841796875	1	lower	amplitud.ttf
1877827	WORD	wordpools/wasnorm_wordpool_less_exclusions.txt	LTP229	ltpFR	16	11	0	LIME	823	n/a	n/a	0	0.57763671875	0.412841796875	1	lower	amplitud.ttf
1881939	WORD	wordpools/wasnorm_wordpool_less_exclusions.txt	LTP229	ltpFR	16	11	0	TANGERINE	1431	n/a	n/a	0	0.57763671875	0.412841796875	1	lower	amplitud.ttf
1885991	WORD	wordpools/wasnorm_wordpool_less_exclusions.txt	LTP229	ltpFR	16	11	0	CAR	241	n/a	n/a	0	0.57763671875	0.412841796875	1	lower	amplitud.ttf
1889856	WORD	wordpools/wasnorm_wordpool_less_exclusions.txt	LTP229	ltpFR	16	11	0	AUTOMOBILE	62	n/a	n/a	1	0.57763671875	0.412841796875	1	lower	amplitud.ttf
1894038	WORD	wordpools/wasnorm_wordpool_less_exclusions.txt	LTP229	ltpFR	16	11	0	CIGARETTE	309	n/a	n/a	0	0.57763671875	0.412841796875	1	lower	amplitud.ttf
1897966	WORD	wordpools/wasnorm_wordpool_less_exclusions.txt	LTP229	ltpFR	16	11	0	GUARD	667	n/a	n/a	1	0.57763671875	0.412841796875	1	lower	amplitud.ttf
1902120	WORD	wordpools/wasnorm_wordpool_less_exclusions.txt	LTP229	ltpFR	16	11	0	OTTER	986	n/a	n/a	1	0.57763671875	0.412841796875	1	lower	amplitud.ttf
1908075	REC_START	n/a	LTP229	ltpFR	16	11	n/a	n/a	n/a	n/a	n/a	n/a	n/a	n/a	n/a	n/a	n/a
1908843	REC_WORD	wordpools/wasnorm_wordpool_less_exclusions.txt	LTP229	ltpFR	16	11	0	CIGARETTE	309	n/a	n/a	0	n/a	n/a	n/a	n/a	n/a
1910090	REC_WORD	wordpools/wasnorm_wordpool_less_exclusions.txt	LTP229	ltpFR	16	11	0	GUARD	667	n/a	n/a	1	n/a	n/a	n/a	n/a	n/a
1911547	REC_WORD	wordpools/wasnorm_wordpool_less_exclusions.txt	LTP229	ltpFR	16	11	0	OTTER	986	n/a	n/a	1	n/a	n/a	n/a	n/a	n/a
1916211	REC_WORD	wordpools/wasnorm_wordpool_less_exclusions.txt	LTP229	ltpFR	16	11	0	TANGERINE	1431	n/a	n/a	0	n/a	n/a	n/a	n/a	n/a
1918800	REC_WORD	wordpools/wasnorm_wordpool_less_exclusions.txt	LTP229	ltpFR	16	11	0	LIME	823	n/a	n/a	0	n/a	n/a	n/a	n/a	n/a
1921858	REC_WORD	wordpools/wasnorm_wordpool_less_exclusions.txt	LTP229	ltpFR	16	11	0	AUDIENCE	59	n/a	n/a	1	n/a	n/a	n/a	n/a	n/a
1923220	REC_WORD	wordpools/wasnorm_wordpool_less_exclusions.txt	LTP229	ltpFR	16	11	0	CURTAIN	427	n/a	n/a	1	n/a	n/a	n/a	n/a	n/a
1925086	REC_WORD	wordpools/wasnorm_wordpool_less_exclusions.txt	LTP229	ltpFR	16	11	0	WINDOW	1611	n/a	n/a	1	n/a	n/a	n/a	n/a	n/a
1927092	REC_WORD	wordpools/wasnorm_wordpool_less_exclusions.txt	LTP229	ltpFR	16	11	0	DUST	508	n/a	n/a	0	n/a	n/a	n/a	n/a	n/a
1931936	REC_WORD	wordpools/wasnorm_wordpool_less_exclusions.txt	LTP229	ltpFR	16	11	0	WOLF	1619	n/a	n/a	1	n/a	n/a	n/a	n/a	n/a
1951262	REC_WORD	wordpools/wasnorm_wordpool_less_exclusions.txt	LTP229	ltpFR	16	11	0	LOCK	838	n/a	n/a	1	n/a	n/a	n/a	n/a	n/a
2012870	WORD	wordpools/wasnorm_wordpool_less_exclusions.txt	LTP229	ltpFR	16	12	0	WEED	1599	n/a	n/a	1	0.57763671875	0.412841796875	1	lower	amplitud.ttf
2016818	WORD	wordpools/wasnorm_wordpool_less_exclusions.txt	LTP229	ltpFR	16	12	0	SQUIRREL	1362	n/a	n/a	1	0.57763671875	0.412841796875	1	lower	amplitud.ttf
2020883	WORD	wordpools/wasnorm_wordpool_less_exclusions.txt	LTP229	ltpFR	16	12	0	WAITRESS	1581	n/a	n/a	1	0.57763671875	0.412841796875	1	lower	amplitud.ttf
2024932	WORD	wordpools/wasnorm_wordpool_less_exclusions.txt	LTP229	ltpFR	16	12	0	HEATER	698	n/a	n/a	0	0.57763671875	0.412841796875	1	lower	amplitud.ttf
2028876	WORD	wordpools/wasnorm_wordpool_less_exclusions.txt	LTP229	ltpFR	16	12	0	MOWER	928	n/a	n/a	1	0.57763671875	0.412841796875	1	lower	amplitud.ttf
2032795	WORD	wordpools/wasnorm_wordpool_less_exclusions.txt	LTP229	ltpFR	16	12	0	SHELL	1281	n/a	n/a	1	0.57763671875	0.412841796875	1	lower	amplitud.ttf
2036894	WORD	wordpools/wasnorm_wordpool_less_exclusions.txt	LTP229	ltpFR	16	12	0	SLUG	1329	n/a	n/a	0	0.57763671875	0.412841796875	1	lower	amplitud.ttf
2040842	WORD	wordpools/wasnorm_wordpool_less_exclusions.txt	LTP229	ltpFR	16	12	0	TOAST	1471	n/a	n/a	0	0.57763671875	0.412841796875	1	lower	amplitud.ttf
2044723	WORD	wordpools/wasnorm_wordpool_less_exclusions.txt	LTP229	ltpFR	16	12	0	EAGLE	512	n/a	n/a	0	0.57763671875	0.412841796875	1	lower	amplitud.ttf
2048922	WORD	wordpools/wasnorm_wordpool_less_exclusions.txt	LTP229	ltpFR	16	12	0	MONGOOSE	909	n/a	n/a	1	0.57763671875	0.412841796875	1	lower	amplitud.ttf
2052904	WORD	wordpools/wasnorm_wordpool_less_exclusions.txt	LTP229	ltpFR	16	12	0	PICNIC	1060	n/a	n/a	1	0.57763671875	0.412841796875	1	lower	amplitud.ttf
2057104	WORD	wordpools/wasnorm_wordpool_less_exclusions.txt	LTP229	ltpFR	16	12	0	WHALE	1601	n/a	n/a	1	0.57763671875	0.412841796875	1	lower	amplitud.ttf
2061320	WORD	wordpools/wasnorm_wordpool_less_exclusions.txt	LTP229	ltpFR	16	12	0	NET	946	n/a	n/a	0	0.57763671875	0.412841796875	1	lower	amplitud.ttf
2065485	WORD	wordpools/wasnorm_wordpool_less_exclusions.txt	LTP229	ltpFR	16	12	0	SACK	1220	n/a	n/a	0	0.57763671875	0.412841796875	1	lower	amplitud.ttf
2069647	WORD	wordpools/wasnorm_wordpool_less_exclusions.txt	LTP229	ltpFR	16	12	0	LOBSTER	837	n/a	n/a	0	0.57763671875	0.412841796875	1	lower	amplitud.ttf
2073729	WORD	wordpools/wasnorm_wordpool_less_exclusions.txt	LTP229	ltpFR	16	12	0	OCTOPUS	971	n/a	n/a	0	0.57763671875	0.412841796875	1	lower	amplitud.ttf
2079388	REC_START	n/a	LTP229	ltpFR	16	12	n/a	n/a	n/a	n/a	n/a	n/a	n/a	n/a	n/a	n/a	n/a
2080435	REC_WORD	wordpools/wasnorm_wordpool_less_exclusions.txt	LTP229	ltpFR	16	12	0	NET	946	n/a	n/a	0	n/a	n/a	n/a	n/a	n/a
2084601	REC_WORD	wordpools/wasnorm_wordpool_less_exclusions.txt	LTP229	ltpFR	16	12	0	WHALE	1601	n/a	n/a	1	n/a	n/a	n/a	n/a	n/a
2086317	REC_WORD	wordpools/wasnorm_wordpool_less_exclusions.txt	LTP229	ltpFR	16	12	0	MONGOOSE	909	n/a	n/a	1	n/a	n/a	n/a	n/a	n/a
2088367	REC_WORD	wordpools/wasnorm_wordpool_less_exclusions.txt	LTP229	ltpFR	16	12	0	SQUIRREL	1362	n/a	n/a	1	n/a	n/a	n/a	n/a	n/a
2090528	REC_WORD	wordpools/wasnorm_wordpool_less_exclusions.txt	LTP229	ltpFR	16	12	0	OCTOPUS	971	n/a	n/a	0	n/a	n/a	n/a	n/a	n/a
2098409	REC_WORD	wordpools/wasnorm_wordpool_less_exclusions.txt	LTP229	ltpFR	16	12	0	FISH	571	n/a	n/a	1	n/a	n/a	n/a	n/a	n/a
2103877	REC_WORD	wordpools/wasnorm_wordpool_less_exclusions.txt	LTP229	ltpFR	16	12	0	WEED	1599	n/a	n/a	1	n/a	n/a	n/a	n/a	n/a
2107778	REC_WORD	wordpools/wasnorm_wordpool_less_exclusions.txt	LTP229	ltpFR	16	12	0	WAITRESS	1581	n/a	n/a	1	n/a	n/a	n/a	n/a	n/a
2109404	REC_WORD	wordpools/wasnorm_wordpool_less_exclusions.txt	LTP229	ltpFR	16	12	0	HEATER	698	n/a	n/a	0	n/a	n/a	n/a	n/a	n/a
2111529	REC_WORD	wordpools/wasnorm_wordpool_less_exclusions.txt	LTP229	ltpFR	16	12	0	SLUG	1329	n/a	n/a	0	n/a	n/a	n/a	n/a	n/a
2113590	REC_WORD	wordpools/wasnorm_wordpool_less_exclusions.txt	LTP229	ltpFR	16	12	0	SHELL	1281	n/a	n/a	1	n/a	n/a	n/a	n/a	n/a
2122829	REC_WORD	wordpools/wasnorm_wordpool_less_exclusions.txt	LTP229	ltpFR	16	12	0	DANDELION	438	n/a	n/a	0	n/a	n/a	n/a	n/a	n/a
2126146	REC_WORD	wordpools/wasnorm_wordpool_less_exclusions.txt	LTP229	ltpFR	16	12	0	TWEEZERS	1526	n/a	n/a	1	n/a	n/a	n/a	n/a	n/a
2134513	REC_WORD	wordpools/wasnorm_wordpool_less_exclusions.txt	LTP229	ltpFR	16	12	1	ALLEY	15	n/a	n/a	1	n/a	n/a	n/a	n/a	n/a
2155039	REST_REWET	n/a	LTP229	ltpFR	16	12	n/a	n/a	n/a	n/a	n/a	n/a	n/a	n/a	n/a	n/a	n/a
2481820	WORD	wordpools/wasnorm_wordpool_less_exclusions.txt	LTP229	ltpFR	16	13	1	MOP	916	n/a	n/a	0	0.422607421875	0.5869140625	0	upper	zerothre.ttf
2486016	WORD	wordpools/wasnorm_wordpool_less_exclusions.txt	LTP229	ltpFR	16	13	1	OATS	968	n/a	n/a	0	0.422607421875	0.5869140625	0	upper	zerothre.ttf
2489984	WORD	wordpools/wasnorm_wordpool_less_exclusions.txt	LTP229	ltpFR	16	13	1	SCARECROW	1245	n/a	n/a	1	0.422607421875	0.5869140625	0	upper	zerothre.ttf
2493849	WORD	wordpools/wasnorm_wordpool_less_exclusions.txt	LTP229	ltpFR	16	13	1	MARROW	872	n/a	n/a	0	0.422607421875	0.5869140625	0	upper	zerothre.ttf
2498048	WORD	wordpools/wasnorm_wordpool_less_exclusions.txt	LTP229	ltpFR	16	13	1	NECK	939	n/a	n/a	0	0.422607421875	0.5869140625	0	upper	zerothre.ttf
2501980	WORD	wordpools/wasnorm_wordpool_less_exclusions.txt	LTP229	ltpFR	16	13	1	CORAL	378	n/a	n/a	0	0.422607421875	0.5869140625	0	upper	zerothre.ttf
2506143	WORD	wordpools/wasnorm_wordpool_less_exclusions.txt	LTP229	ltpFR	16	13	1	ZEBRA	1635	n/a	n/a	1	0.422607421875	0.5869140625	0	upper	zerothre.ttf
2510091	WORD	wordpools/wasnorm_wordpool_less_exclusions.txt	LTP229	ltpFR	16	13	1	COUNTRY	388	n/a	n/a	1	0.422607421875	0.5869140625	0	upper	zerothre.ttf
2514310	WORD	wordpools/wasnorm_wordpool_less_exclusions.txt	LTP229	ltpFR	16	13	1	AFRICA	9	n/a	n/a	1	0.422607421875	0.5869140625	0	upper	zerothre.ttf
2518259	WORD	wordpools/wasnorm_wordpool_less_exclusions.txt	LTP229	ltpFR	16	13	1	RANCH	1166	n/a	n/a	1	0.422607421875	0.5869140625	0	upper	zerothre.ttf
2522220	WORD	wordpools/wasnorm_wordpool_less_exclusions.txt	LTP229	ltpFR	16	13	1	FLUTE	585	n/a	n/a	1	0.422607421875	0.5869140625	0	upper	zerothre.ttf
2526188	WORD	wordpools/wasnorm_wordpool_less_exclusions.txt	LTP229	ltpFR	16	13	1	SHEET	1279	n/a	n/a	0	0.422607421875	0.5869140625	0	upper	zerothre.ttf
2530354	WORD	wordpools/wasnorm_wordpool_less_exclusions.txt	LTP229	ltpFR	16	13	1	FARM	552	n/a	n/a	0	0.422607421875	0.5869140625	0	upper	zerothre.ttf
2534418	WORD	wordpools/wasnorm_wordpool_less_exclusions.txt	LTP229	ltpFR	16	13	1	COW	393	n/a	n/a	1	0.422607421875	0.5869140625	0	upper	zerothre.ttf
2538517	WORD	wordpools/wasnorm_wordpool_less_exclusions.txt	LTP229	ltpFR	16	13	1	PONY	1102	n/a	n/a	1	0.422607421875	0.5869140625	0	upper	zerothre.ttf
2542583	WORD	wordpools/wasnorm_wordpool_less_exclusions.txt	LTP229	ltpFR	16	13	1	POOL	1103	n/a	n/a	0	0.422607421875	0.5869140625	0	upper	zerothre.ttf
2548435	REC_START	n/a	LTP229	ltpFR	16	13	n/a	n/a	n/a	n/a	n/a	n/a	n/a	n/a	n/a	n/a	n/a
2549258	REC_WORD	wordpools/wasnorm_wordpool_less_exclusions.txt	LTP229	ltpFR	16	13	1	POOL	1103	n/a	n/a	0	n/a	n/a	n/a	n/a	n/a
2550525	REC_WORD	wordpools/wasnorm_wordpool_less_exclusions.txt	LTP229	ltpFR	16	13	1	PONY	1102	n/a	n/a	1	n/a	n/a	n/a	n/a	n/a
2551792	REC_WORD	wordpools/wasnorm_wordpool_less_exclusions.txt	LTP229	ltpFR	16	13	1	COW	393	n/a	n/a	1	n/a	n/a	n/a	n/a	n/a
2553124	REC_WORD	wordpools/wasnorm_wordpool_less_exclusions.txt	LTP229	ltpFR	16	13	1	FARM	552	n/a	n/a	0	n/a	n/a	n/a	n/a	n/a
2555249	REC_WORD	wordpools/wasnorm_wordpool_less_exclusions.txt	LTP229	ltpFR	16	13	1	NECK	939	n/a	n/a	0	n/a	n/a	n/a	n/a	n/a
2556606	REC_WORD	wordpools/wasnorm_wordpool_less_exclusions.txt	LTP229	ltpFR	16	13	1	MARROW	872	n/a	n/a	0	n/a	n/a	n/a	n/a	n/a
2558063	REC_WORD	wordpools/wasnorm_wordpool_less_exclusions.txt	LTP229	ltpFR	16	13	1	ZEBRA	1635	n/a	n/a	1	n/a	n/a	n/a	n/a	n/a
2564299	REC_WORD	wordpools/wasnorm_wordpool_less_exclusions.txt	LTP229	ltpFR	16	13	1	MOP	916	n/a	n/a	0	n/a	n/a	n/a	n/a	n/a
2579294	REC_WORD	wordpools/wasnorm_wordpool_less_exclusions.txt	LTP229	ltpFR	16	13	1	FLUTE	585	n/a	n/a	1	n/a	n/a	n/a	n/a	n/a
2587785	REC_WORD	wordpools/wasnorm_wordpool_less_exclusions.txt	LTP229	ltpFR	16	13	1	COUNTRY	388	n/a	n/a	1	n/a	n/a	n/a	n/a	n/a
2589452	REC_WORD	wordpools/wasnorm_wordpool_less_exclusions.txt	LTP229	ltpFR	16	13	1	AFRICA	9	n/a	n/a	1	n/a	n/a	n/a	n/a	n/a
2633542	WORD	wordpools/wasnorm_wordpool_less_exclusions.txt	LTP229	ltpFR	16	14	-1	BREAST	171	n/a	n/a	-1	1.0	1.0	1	upper	Verdana.ttf
2637453	WORD	wordpools/wasnorm_wordpool_less_exclusions.txt	LTP229	ltpFR	16	14	-1	BUTTON	207	n/a	n/a	-1	1.0	1.0	1	upper	Verdana.ttf
2641455	WORD	wordpools/wasnorm_wordpool_less_exclusions.txt	LTP229	ltpFR	16	14	-1	SIBLING	1301	n/a	n/a	-1	1.0	1.0	1	upper	Verdana.ttf
2645567	WORD	wordpools/wasnorm_wordpool_less_exclusions.txt	LTP229	ltpFR	16	14	-1	KEY	773	n/a	n/a	-1	1.0	1.0	1	upper	Verdana.ttf
2649636	WORD	wordpools/wasnorm_wordpool_less_exclusions.txt	LTP229	ltpFR	16	14	-1	ENGINE	535	n/a	n/a	-1	1.0	1.0	1	upper	Verdana.ttf
2653601	WORD	wordpools/wasnorm_wordpool_less_exclusions.txt	LTP229	ltpFR	16	14	-1	BOYFRIEND	162	n/a	n/a	-1	1.0	1.0	1	upper	Verdana.ttf
2657817	WORD	wordpools/wasnorm_wordpool_less_exclusions.txt	LTP229	ltpFR	16	14	-1	ROOMMATE	1207	n/a	n/a	-1	1.0	1.0	1	upper	Verdana.ttf
2661865	WORD	wordpools/wasnorm_wordpool_less_exclusions.txt	LTP229	ltpFR	16	14	-1	DIVER	476	n/a	n/a	-1	1.0	1.0	1	upper	Verdana.ttf
2665910	WORD	wordpools/wasnorm_wordpool_less_exclusions.txt	LTP229	ltpFR	16	14	-1	BUCKET	184	n/a	n/a	-1	1.0	1.0	1	upper	Verdana.ttf
2670131	WORD	wordpools/wasnorm_wordpool_less_exclusions.txt	LTP229	ltpFR	16	14	-1	FOLLOWER	589	n/a	n/a	-1	1.0	1.0	1	upper	Verdana.ttf
2674092	WORD	wordpools/wasnorm_wordpool_less_exclusions.txt	LTP229	ltpFR	16	14	-1	SLEEVE	1324	n/a	n/a	-1	1.0	1.0	1	upper	Verdana.ttf
2678262	WORD	wordpools/wasnorm_wordpool_less_exclusions.txt	LTP229	ltpFR	16	14	-1	BEEF	113	n/a	n/a	-1	1.0	1.0	1	upper	Verdana.ttf
2682389	WORD	wordpools/wasnorm_wordpool_less_exclusions.txt	LTP229	ltpFR	16	14	-1	RULER	1216	n/a	n/a	-1	1.0	1.0	1	upper	Verdana.ttf
2686609	WORD	wordpools/wasnorm_wordpool_less_exclusions.txt	LTP229	ltpFR	16	14	-1	WASHCLOTH	1591	n/a	n/a	-1	1.0	1.0	1	upper	Verdana.ttf
2690774	WORD	wordpools/wasnorm_wordpool_less_exclusions.txt	LTP229	ltpFR	16	14	-1	SLIDE	1326	n/a	n/a	-1	1.0	1.0	1	upper	Verdana.ttf
2694903	WORD	wordpools/wasnorm_wordpool_less_exclusions.txt	LTP229	ltpFR	16	14	-1	GLUE	643	n/a	n/a	-1	1.0	1.0	1	upper	Verdana.ttf
2700847	REC_START	n/a	LTP229	ltpFR	16	14	n/a	n/a	n/a	n/a	n/a	n/a	n/a	n/a	n/a	n/a	n/a
2701535	REC_WORD	wordpools/wasnorm_wordpool_less_exclusions.txt	LTP229	ltpFR	16	14	-1	GLUE	643	n/a	n/a	-1	n/a	n/a	n/a	n/a	n/a
2703177	REC_WORD	wordpools/wasnorm_wordpool_less_exclusions.txt	LTP229	ltpFR	16	14	-1	WASHCLOTH	1591	n/a	n/a	-1	n/a	n/a	n/a	n/a	n/a
2705242	REC_WORD	wordpools/wasnorm_wordpool_less_exclusions.txt	LTP229	ltpFR	16	14	-1	BOYFRIEND	162	n/a	n/a	-1	n/a	n/a	n/a	n/a	n/a
2706813	REC_WORD	wordpools/wasnorm_wordpool_less_exclusions.txt	LTP229	ltpFR	16	14	-1	ROOMMATE	1207	n/a	n/a	-1	n/a	n/a	n/a	n/a	n/a
2708864	REC_WORD	wordpools/wasnorm_wordpool_less_exclusions.txt	LTP229	ltpFR	16	14	-1	BEEF	113	n/a	n/a	-1	n/a	n/a	n/a	n/a	n/a
2710615	REC_WORD	wordpools/wasnorm_wordpool_less_exclusions.txt	LTP229	ltpFR	16	14	-1	RULER	1216	n/a	n/a	-1	n/a	n/a	n/a	n/a	n/a
2716845	REC_WORD	wordpools/wasnorm_wordpool_less_exclusions.txt	LTP229	ltpFR	16	14	-1	BREAST	171	n/a	n/a	-1	n/a	n/a	n/a	n/a	n/a
2718447	REC_WORD	wordpools/wasnorm_wordpool_less_exclusions.txt	LTP229	ltpFR	16	14	-1	BUTTON	207	n/a	n/a	-1	n/a	n/a	n/a	n/a	n/a
2721615	REC_WORD	wordpools/wasnorm_wordpool_less_exclusions.txt	LTP229	ltpFR	16	14	-1	SIBLING	1301	n/a	n/a	-1	n/a	n/a	n/a	n/a	n/a
2723470	REC_WORD	wordpools/wasnorm_wordpool_less_exclusions.txt	LTP229	ltpFR	16	14	-1	KEY	773	n/a	n/a	-1	n/a	n/a	n/a	n/a	n/a
2730933	REC_WORD	wordpools/wasnorm_wordpool_less_exclusions.txt	LTP229	ltpFR	16	14	-1	ENGINE	535	n/a	n/a	-1	n/a	n/a	n/a	n/a	n/a
2748798	REC_WORD	wordpools/wasnorm_wordpool_less_exclusions.txt	LTP229	ltpFR	16	14	-1	NIECE	952	n/a	n/a	-1	n/a	n/a	n/a	n/a	n/a
2758496	REC_WORD	wordpools/wasnorm_wordpool_less_exclusions.txt	LTP229	ltpFR	16	14	0	AUTOMOBILE	62	n/a	n/a	1	n/a	n/a	n/a	n/a	n/a
2775138	REC_WORD	wordpools/wasnorm_wordpool_less_exclusions.txt	LTP229	ltpFR	16	14	-1	WASHCLOTH	1591	n/a	n/a	-1	n/a	n/a	n/a	n/a	n/a
2794867	WORD	wordpools/wasnorm_wordpool_less_exclusions.txt	LTP229	ltpFR	16	15	-1	CARPENTER	246	n/a	n/a	-1	1.0	1.0	1	upper	Verdana.ttf
2798715	WORD	wordpools/wasnorm_wordpool_less_exclusions.txt	LTP229	ltpFR	16	15	-1	KETTLE	772	n/a	n/a	-1	1.0	1.0	1	upper	Verdana.ttf
2802893	WORD	wordpools/wasnorm_wordpool_less_exclusions.txt	LTP229	ltpFR	16	15	-1	GARAGE	621	n/a	n/a	-1	1.0	1.0	1	upper	Verdana.ttf
2806845	WORD	wordpools/wasnorm_wordpool_less_exclusions.txt	LTP229	ltpFR	16	15	-1	CELLAR	267	n/a	n/a	-1	1.0	1.0	1	upper	Verdana.ttf
2810961	WORD	wordpools/wasnorm_wordpool_less_exclusions.txt	LTP229	ltpFR	16	15	-1	TRENCH	1503	n/a	n/a	-1	1.0	1.0	1	upper	Verdana.ttf
2814892	WORD	wordpools/wasnorm_wordpool_less_exclusions.txt	LTP229	ltpFR	16	15	-1	HAT	690	n/a	n/a	-1	1.0	1.0	1	upper	Verdana.ttf
2818740	WORD	wordpools/wasnorm_wordpool_less_exclusions.txt	LTP229	ltpFR	16	15	-1	SPIT	1354	n/a	n/a	-1	1.0	1.0	1	upper	Verdana.ttf
2822722	WORD	wordpools/wasnorm_wordpool_less_exclusions.txt	LTP229	ltpFR	16	15	-1	THERMOMETER	1453	n/a	n/a	-1	1.0	1.0	1	upper	Verdana.ttf
2826767	WORD	wordpools/wasnorm_wordpool_less_exclusions.txt	LTP229	ltpFR	16	15	-1	COOK	372	n/a	n/a	-1	1.0	1.0	1	upper	Verdana.ttf
2830715	WORD	wordpools/wasnorm_wordpool_less_exclusions.txt	LTP229	ltpFR	16	15	-1	BOARD	143	n/a	n/a	-1	1.0	1.0	1	upper	Verdana.ttf
2834700	WORD	wordpools/wasnorm_wordpool_less_exclusions.txt	LTP229	ltpFR	16	15	-1	LIP	828	n/a	n/a	-1	1.0	1.0	1	upper	Verdana.ttf
2838916	WORD	wordpools/wasnorm_wordpool_less_exclusions.txt	LTP229	ltpFR	16	15	-1	CABIN	211	n/a	n/a	-1	1.0	1.0	1	upper	Verdana.ttf
2843129	WORD	wordpools/wasnorm_wordpool_less_exclusions.txt	LTP229	ltpFR	16	15	-1	HOME	712	n/a	n/a	-1	1.0	1.0	1	upper	Verdana.ttf
2847265	WORD	wordpools/wasnorm_wordpool_less_exclusions.txt	LTP229	ltpFR	16	15	-1	EMPEROR	529	n/a	n/a	-1	1.0	1.0	1	upper	Verdana.ttf
2851226	WORD	wordpools/wasnorm_wordpool_less_exclusions.txt	LTP229	ltpFR	16	15	-1	DAUGHTER	442	n/a	n/a	-1	1.0	1.0	1	upper	Verdana.ttf
2855124	WORD	wordpools/wasnorm_wordpool_less_exclusions.txt	LTP229	ltpFR	16	15	-1	PAVEMENT	1028	n/a	n/a	-1	1.0	1.0	1	upper	Verdana.ttf
2861067	REC_START	n/a	LTP229	ltpFR	16	15	n/a	n/a	n/a	n/a	n/a	n/a	n/a	n/a	n/a	n/a	n/a
2862119	REC_WORD	wordpools/wasnorm_wordpool_less_exclusions.txt	LTP229	ltpFR	16	15	-1	PAVEMENT	1028	n/a	n/a	-1	n/a	n/a	n/a	n/a	n/a
2864040	REC_WORD	wordpools/wasnorm_wordpool_less_exclusions.txt	LTP229	ltpFR	16	15	-1	CARPENTER	246	n/a	n/a	-1	n/a	n/a	n/a	n/a	n/a
2865397	REC_WORD	wordpools/wasnorm_wordpool_less_exclusions.txt	LTP229	ltpFR	16	15	-1	CELLAR	267	n/a	n/a	-1	n/a	n/a	n/a	n/a	n/a
2869727	REC_WORD	wordpools/wasnorm_wordpool_less_exclusions.txt	LTP229	ltpFR	16	15	-1	GARAGE	621	n/a	n/a	-1	n/a	n/a	n/a	n/a	n/a
2871139	REC_WORD	wordpools/wasnorm_wordpool_less_exclusions.txt	LTP229	ltpFR	16	15	-1	TRENCH	1503	n/a	n/a	-1	n/a	n/a	n/a	n/a	n/a
2881909	REC_WORD	wordpools/wasnorm_wordpool_less_exclusions.txt	LTP229	ltpFR	16	15	-1	KETTLE	772	n/a	n/a	-1	n/a	n/a	n/a	n/a	n/a
2883326	REC_WORD	wordpools/wasnorm_wordpool_less_exclusions.txt	LTP229	ltpFR	16	15	-1	COOK	372	n/a	n/a	-1	n/a	n/a	n/a	n/a	n/a
2905157	REC_WORD	wordpools/wasnorm_wordpool_less_exclusions.txt	LTP229	ltpFR	16	15	n/a	CONCRETE	361	n/a	n/a	n/a	n/a	n/a	n/a	n/a	n/a
2955857	WORD	wordpools/wasnorm_wordpool_less_exclusions.txt	LTP229	ltpFR	16	16	1	NOSE	957	n/a	n/a	0	0.422607421875	0.5869140625	0	upper	zerothre.ttf
2959785	WORD	wordpools/wasnorm_wordpool_less_exclusions.txt	LTP229	ltpFR	16	16	1	CHAUFFEUR	283	n/a	n/a	0	0.422607421875	0.5869140625	0	upper	zerothre.ttf
2963937	WORD	wordpools/wasnorm_wordpool_less_exclusions.txt	LTP229	ltpFR	16	16	1	SCRIBBLE	1256	n/a	n/a	0	0.422607421875	0.5869140625	0	upper	zerothre.ttf
2968121	WORD	wordpools/wasnorm_wordpool_less_exclusions.txt	LTP229	ltpFR	16	16	1	RUBY	1214	n/a	n/a	1	0.422607421875	0.5869140625	0	upper	zerothre.ttf
2972166	WORD	wordpools/wasnorm_wordpool_less_exclusions.txt	LTP229	ltpFR	16	16	0	RING	1193	n/a	n/a	0	0.57763671875	0.412841796875	1	lower	amplitud.ttf
2976117	WORD	wordpools/wasnorm_wordpool_less_exclusions.txt	LTP229	ltpFR	16	16	0	CLIFF	322	n/a	n/a	1	0.57763671875	0.412841796875	1	lower	amplitud.ttf
2980333	WORD	wordpools/wasnorm_wordpool_less_exclusions.txt	LTP229	ltpFR	16	16	0	DEER	444	n/a	n/a	0	0.57763671875	0.412841796875	1	lower	amplitud.ttf
2984481	WORD	wordpools/wasnorm_wordpool_less_exclusions.txt	LTP229	ltpFR	16	16	1	KING	777	n/a	n/a	3	0.422607421875	0.5869140625	0	upper	zerothre.ttf
2986020	KEY_MSG	n/a	LTP229	ltpFR	16	16	n/a	n/a	n/a	n/a	n/a	n/a	n/a	n/a	n/a	n/a	n/a
2988359	WORD	wordpools/wasnorm_wordpool_less_exclusions.txt	LTP229	ltpFR	16	16	1	SWAMP	1416	n/a	n/a	0	0.422607421875	0.5869140625	0	upper	zerothre.ttf
2992445	WORD	wordpools/wasnorm_wordpool_less_exclusions.txt	LTP229	ltpFR	16	16	1	ISLAND	745	n/a	n/a	0	0.422607421875	0.5869140625	0	upper	zerothre.ttf
2996426	WORD	wordpools/wasnorm_wordpool_less_exclusions.txt	LTP229	ltpFR	16	16	1	IGLOO	734	n/a	n/a	0	0.422607421875	0.5869140625	0	upper	zerothre.ttf
3000609	WORD	wordpools/wasnorm_wordpool_less_exclusions.txt	LTP229	ltpFR	16	16	0	CUBE	420	n/a	n/a	0	0.57763671875	0.412841796875	1	lower	amplitud.ttf
3004791	WORD	wordpools/wasnorm_wordpool_less_exclusions.txt	LTP229	ltpFR	16	16	0	GOBLIN	645	n/a	n/a	0	0.57763671875	0.412841796875	1	lower	amplitud.ttf
3008656	WORD	wordpools/wasnorm_wordpool_less_exclusions.txt	LTP229	ltpFR	16	16	0	DICTATOR	462	n/a	n/a	1	0.57763671875	0.412841796875	1	lower	amplitud.ttf
3012822	WORD	wordpools/wasnorm_wordpool_less_exclusions.txt	LTP229	ltpFR	16	16	0	THESAURUS	1454	n/a	n/a	0	0.57763671875	0.412841796875	1	lower	amplitud.ttf
3016803	WORD	wordpools/wasnorm_wordpool_less_exclusions.txt	LTP229	ltpFR	16	16	0	DASHBOARD	441	n/a	n/a	0	0.57763671875	0.412841796875	1	lower	amplitud.ttf
3022709	REC_START	n/a	LTP229	ltpFR	16	16	n/a	n/a	n/a	n/a	n/a	n/a	n/a	n/a	n/a	n/a	n/a
3024994	REC_WORD	wordpools/wasnorm_wordpool_less_exclusions.txt	LTP229	ltpFR	16	16	1	CHAUFFEUR	283	n/a	n/a	0	n/a	n/a	n/a	n/a	n/a
3028052	REC_WORD	wordpools/wasnorm_wordpool_less_exclusions.txt	LTP229	ltpFR	16	16	1	RUBY	1214	n/a	n/a	1	n/a	n/a	n/a	n/a	n/a
3029453	REC_WORD	wordpools/wasnorm_wordpool_less_exclusions.txt	LTP229	ltpFR	16	16	0	RING	1193	n/a	n/a	0	n/a	n/a	n/a	n/a	n/a
3030975	REC_WORD	wordpools/wasnorm_wordpool_less_exclusions.txt	LTP229	ltpFR	16	16	1	KING	777	n/a	n/a	3	n/a	n/a	n/a	n/a	n/a
3032611	REC_WORD	wordpools/wasnorm_wordpool_less_exclusions.txt	LTP229	ltpFR	16	16	0	DASHBOARD	441	n/a	n/a	0	n/a	n/a	n/a	n/a	n/a
3046520	REC_WORD	wordpools/wasnorm_wordpool_less_exclusions.txt	LTP229	ltpFR	16	16	1	NOSE	957	n/a	n/a	0	n/a	n/a	n/a	n/a	n/a
3052162	REC_WORD	wordpools/wasnorm_wordpool_less_exclusions.txt	LTP229	ltpFR	16	16	1	NOSE	957	n/a	n/a	0	n/a	n/a	n/a	n/a	n/a
3058991	REC_WORD	wordpools/wasnorm_wordpool_less_exclusions.txt	LTP229	ltpFR	16	16	0	CLIFF	322	n/a	n/a	1	n/a	n/a	n/a	n/a	n/a
3060602	REC_WORD	wordpools/wasnorm_wordpool_less_exclusions.txt	LTP229	ltpFR	16	16	1	SLOPE	1328	n/a	n/a	0	n/a	n/a	n/a	n/a	n/a
3068943	REC_WORD	wordpools/wasnorm_wordpool_less_exclusions.txt	LTP229	ltpFR	16	16	1	IGLOO	734	n/a	n/a	0	n/a	n/a	n/a	n/a	n/a
3070515	REC_WORD	wordpools/wasnorm_wordpool_less_exclusions.txt	LTP229	ltpFR	16	16	1	ISLAND	745	n/a	n/a	0	n/a	n/a	n/a	n/a	n/a
3123389	REC_START	n/a	LTP229	ltpFR	16	1	n/a	n/a	n/a	n/a	n/a	n/a	n/a	n/a	n/a	n/a	n/a
3123438	RECOG_LURE	n/a	LTP229	ltpFR	16	1	n/a	MAILMAN	858	0	5	n/a	n/a	n/a	n/a	n/a	n/a
3124844	RECOG_RESP	n/a	LTP229	ltpFR	16	1	n/a	MAILMAN	858	0	n/a	n/a	n/a	n/a	n/a	n/a	n/a
3126151	RECOG_CONF	n/a	LTP229	ltpFR	16	1	n/a	MAILMAN	858	n/a	5	n/a	n/a	n/a	n/a	n/a	n/a
3128224	RECOG_LURE	n/a	LTP229	ltpFR	16	1	n/a	KIWI	781	0	3	n/a	n/a	n/a	n/a	n/a	n/a
3128921	RECOG_RESP	n/a	LTP229	ltpFR	16	1	n/a	KIWI	781	0	n/a	n/a	n/a	n/a	n/a	n/a	n/a
3129640	RECOG_CONF	n/a	LTP229	ltpFR	16	1	n/a	KIWI	781	n/a	3	n/a	n/a	n/a	n/a	n/a	n/a
3131202	RECOG_TARGET	n/a	LTP229	ltpFR	16	1	-1	DINNER	468	1	4	-1	n/a	n/a	n/a	n/a	n/a
3131860	RECOG_RESP	n/a	LTP229	ltpFR	16	1	-1	DINNER	468	1	n/a	-1	n/a	n/a	n/a	n/a	n/a
3132623	RECOG_CONF	n/a	LTP229	ltpFR	16	1	-1	DINNER	468	n/a	4	-1	n/a	n/a	n/a	n/a	n/a
3134180	RECOG_TARGET	n/a	LTP229	ltpFR	16	1	-1	NIECE	952	1	4	-1	n/a	n/a	n/a	n/a	n/a
3134803	RECOG_RESP	n/a	LTP229	ltpFR	16	1	-1	NIECE	952	1	n/a	-1	n/a	n/a	n/a	n/a	n/a
3135566	RECOG_CONF	n/a	LTP229	ltpFR	16	1	-1	NIECE	952	n/a	4	-1	n/a	n/a	n/a	n/a	n/a
3137040	RECOG_TARGET	n/a	LTP229	ltpFR	16	1	1	NOSE	957	1	3	0	n/a	n/a	n/a	n/a	n/a
3137956	RECOG_RESP	n/a	LTP229	ltpFR	16	1	1	NOSE	957	1	n/a	0	n/a	n/a	n/a	n/a	n/a
3138679	RECOG_CONF	n/a	LTP229	ltpFR	16	1	1	NOSE	957	n/a	3	0	n/a	n/a	n/a	n/a	n/a
3140169	RECOG_TARGET	n/a	LTP229	ltpFR	16	1	1	CHAUFFEUR	283	1	5	0	n/a	n/a	n/a	n/a	n/a
3140874	RECOG_RESP	n/a	LTP229	ltpFR	16	1	1	CHAUFFEUR	283	1	n/a	0	n/a	n/a	n/a	n/a	n/a
3141553	RECOG_CONF	n/a	LTP229	ltpFR	16	1	1	CHAUFFEUR	283	n/a	5	0	n/a	n/a	n/a	n/a	n/a
3143130	RECOG_TARGET	n/a	LTP229	ltpFR	16	1	0	CRAB	397	1	2	0	n/a	n/a	n/a	n/a	n/a
3143897	RECOG_RESP	n/a	LTP229	ltpFR	16	1	0	CRAB	397	1	n/a	0	n/a	n/a	n/a	n/a	n/a
3144555	RECOG_CONF	n/a	LTP229	ltpFR	16	1	0	CRAB	397	n/a	2	0	n/a	n/a	n/a	n/a	n/a
3146023	RECOG_TARGET	n/a	LTP229	ltpFR	16	1	0	TANGERINE	1431	1	3	0	n/a	n/a	n/a	n/a	n/a
3146631	RECOG_RESP	n/a	LTP229	ltpFR	16	1	0	TANGERINE	1431	1	n/a	0	n/a	n/a	n/a	n/a	n/a
3147288	RECOG_CONF	n/a	LTP229	ltpFR	16	1	0	TANGERINE	1431	n/a	3	0	n/a	n/a	n/a	n/a	n/a
3148934	RECOG_TARGET	n/a	LTP229	ltpFR	16	1	0	FROST	609	1	1	0	n/a	n/a	n/a	n/a	n/a
3149679	RECOG_RESP	n/a	LTP229	ltpFR	16	1	0	FROST	609	1	n/a	0	n/a	n/a	n/a	n/a	n/a
3150373	RECOG_CONF	n/a	LTP229	ltpFR	16	1	0	FROST	609	n/a	1	0	n/a	n/a	n/a	n/a	n/a
3151942	RECOG_TARGET	n/a	LTP229	ltpFR	16	1	1	PUPPY	1144	1	4	1	n/a	n/a	n/a	n/a	n/a
3152697	RECOG_RESP	n/a	LTP229	ltpFR	16	1	1	PUPPY	1144	1	n/a	1	n/a	n/a	n/a	n/a	n/a
3153436	RECOG_CONF	n/a	LTP229	ltpFR	16	1	1	PUPPY	1144	n/a	4	1	n/a	n/a	n/a	n/a	n/a
3155024	RECOG_LURE	n/a	LTP229	ltpFR	16	1	n/a	BIKE	125	0	5	n/a	n/a	n/a	n/a	n/a	n/a
3155894	RECOG_RESP	n/a	LTP229	ltpFR	16	1	n/a	BIKE	125	0	n/a	n/a	n/a	n/a	n/a	n/a	n/a
3156518	RECOG_CONF	n/a	LTP229	ltpFR	16	1	n/a	BIKE	125	n/a	5	n/a	n/a	n/a	n/a	n/a	n/a
3158170	RECOG_LURE	n/a	LTP229	ltpFR	16	1	n/a	PECAN	1036	0	3	n/a	n/a	n/a	n/a	n/a	n/a
3159127	RECOG_RESP	n/a	LTP229	ltpFR	16	1	n/a	PECAN	1036	0	n/a	n/a	n/a	n/a	n/a	n/a	n/a
3159791	RECOG_CONF	n/a	LTP229	ltpFR	16	1	n/a	PECAN	1036	n/a	3	n/a	n/a	n/a	n/a	n/a	n/a
3161415	RECOG_TARGET	n/a	LTP229	ltpFR	16	1	0	FLY	586	1	2	0	n/a	n/a	n/a	n/a	n/a
3162616	RECOG_RESP	n/a	LTP229	ltpFR	16	1	0	FLY	586	1	n/a	0	n/a	n/a	n/a	n/a	n/a
3163629	RECOG_CONF	n/a	LTP229	ltpFR	16	1	0	FLY	586	n/a	2	0	n/a	n/a	n/a	n/a	n/a
3165580	RECOG_TARGET	n/a	LTP229	ltpFR	16	1	1	ASSISTANT	48	1	4	1	n/a	n/a	n/a	n/a	n/a
3166316	RECOG_RESP	n/a	LTP229	ltpFR	16	1	1	ASSISTANT	48	1	n/a	1	n/a	n/a	n/a	n/a	n/a
3166935	RECOG_CONF	n/a	LTP229	ltpFR	16	1	1	ASSISTANT	48	n/a	4	1	n/a	n/a	n/a	n/a	n/a
3168542	RECOG_TARGET	n/a	LTP229	ltpFR	16	1	-1	SPIT	1354	1	5	-1	n/a	n/a	n/a	n/a	n/a
3169307	RECOG_RESP	n/a	LTP229	ltpFR	16	1	-1	SPIT	1354	1	n/a	-1	n/a	n/a	n/a	n/a	n/a
3169968	RECOG_CONF	n/a	LTP229	ltpFR	16	1	-1	SPIT	1354	n/a	5	-1	n/a	n/a	n/a	n/a	n/a
3171670	RECOG_TARGET	n/a	LTP229	ltpFR	16	1	0	FEAST	556	1	3	1	n/a	n/a	n/a	n/a	n/a
3172276	RECOG_RESP	n/a	LTP229	ltpFR	16	1	0	FEAST	556	1	n/a	1	n/a	n/a	n/a	n/a	n/a
3172941	RECOG_CONF	n/a	LTP229	ltpFR	16	1	0	FEAST	556	n/a	3	1	n/a	n/a	n/a	n/a	n/a
3174564	RECOG_TARGET	n/a	LTP229	ltpFR	16	1	1	WITNESS	1618	1	2	1	n/a	n/a	n/a	n/a	n/a
3175093	RECOG_RESP	n/a	LTP229	ltpFR	16	1	1	WITNESS	1618	1	n/a	1	n/a	n/a	n/a	n/a	n/a
3175718	RECOG_CONF	n/a	LTP229	ltpFR	16	1	1	WITNESS	1618	n/a	2	1	n/a	n/a	n/a	n/a	n/a
3177322	RECOG_TARGET	n/a	LTP229	ltpFR	16	1	1	THIGH	1457	1	4	0	n/a	n/a	n/a	n/a	n/a
3177930	RECOG_RESP	n/a	LTP229	ltpFR	16	1	1	THIGH	1457	1	n/a	0	n/a	n/a	n/a	n/a	n/a
3178588	RECOG_CONF	n/a	LTP229	ltpFR	16	1	1	THIGH	1457	n/a	4	0	n/a	n/a	n/a	n/a	n/a
3180153	RECOG_TARGET	n/a	LTP229	ltpFR	16	1	1	LOBBY	836	1	5	1	n/a	n/a	n/a	n/a	n/a
3180724	RECOG_RESP	n/a	LTP229	ltpFR	16	1	1	LOBBY	836	1	n/a	1	n/a	n/a	n/a	n/a	n/a
3181382	RECOG_CONF	n/a	LTP229	ltpFR	16	1	1	LOBBY	836	n/a	5	1	n/a	n/a	n/a	n/a	n/a
3183026	RECOG_LURE	n/a	LTP229	ltpFR	16	1	n/a	TECHNICIAN	1443	0	1	n/a	n/a	n/a	n/a	n/a	n/a
3184249	RECOG_RESP	n/a	LTP229	ltpFR	16	1	n/a	TECHNICIAN	1443	0	n/a	n/a	n/a	n/a	n/a	n/a	n/a
3185232	RECOG_CONF	n/a	LTP229	ltpFR	16	1	n/a	TECHNICIAN	1443	n/a	1	n/a	n/a	n/a	n/a	n/a	n/a
3194203	REC_START	n/a	LTP229	ltpFR	16	2	n/a	n/a	n/a	n/a	n/a	n/a	n/a	n/a	n/a	n/a	n/a
3194256	RECOG_TARGET	n/a	LTP229	ltpFR	16	2	-1	CARAVAN	242	1	4	-1	n/a	n/a	n/a	n/a	n/a
3195000	RECOG_RESP	n/a	LTP229	ltpFR	16	2	-1	CARAVAN	242	1	n/a	-1	n/a	n/a	n/a	n/a	n/a
3195655	RECOG_CONF	n/a	LTP229	ltpFR	16	2	-1	CARAVAN	242	n/a	4	-1	n/a	n/a	n/a	n/a	n/a
3197335	RECOG_LURE	n/a	LTP229	ltpFR	16	2	n/a	DOOR	486	0	2	n/a	n/a	n/a	n/a	n/a	n/a
3197976	RECOG_RESP	n/a	LTP229	ltpFR	16	2	n/a	DOOR	486	0	n/a	n/a	n/a	n/a	n/a	n/a	n/a
3198567	RECOG_CONF	n/a	LTP229	ltpFR	16	2	n/a	DOOR	486	n/a	2	n/a	n/a	n/a	n/a	n/a	n/a
3200245	RECOG_TARGET	n/a	LTP229	ltpFR	16	2	0	LOBSTER	837	1	3	0	n/a	n/a	n/a	n/a	n/a
3200872	RECOG_RESP	n/a	LTP229	ltpFR	16	2	0	LOBSTER	837	1	n/a	0	n/a	n/a	n/a	n/a	n/a
3201490	RECOG_CONF	n/a	LTP229	ltpFR	16	2	0	LOBSTER	837	n/a	3	0	n/a	n/a	n/a	n/a	n/a
3203072	RECOG_TARGET	n/a	LTP229	ltpFR	16	2	1	CONTRACTOR	369	1	4	1	n/a	n/a	n/a	n/a	n/a
3204442	RECOG_RESP	n/a	LTP229	ltpFR	16	2	1	CONTRACTOR	369	1	n/a	1	n/a	n/a	n/a	n/a	n/a
3205143	RECOG_CONF	n/a	LTP229	ltpFR	16	2	1	CONTRACTOR	369	n/a	4	1	n/a	n/a	n/a	n/a	n/a
3206836	RECOG_LURE	n/a	LTP229	ltpFR	16	2	n/a	CHAIRPERSON	275	0	2	n/a	n/a	n/a	n/a	n/a	n/a
3207647	RECOG_RESP	n/a	LTP229	ltpFR	16	2	n/a	CHAIRPERSON	275	0	n/a	n/a	n/a	n/a	n/a	n/a	n/a
3208294	RECOG_CONF	n/a	LTP229	ltpFR	16	2	n/a	CHAIRPERSON	275	n/a	2	n/a	n/a	n/a	n/a	n/a	n/a
3209931	RECOG_TARGET	n/a	LTP229	ltpFR	16	2	0	BUN	197	1	1	0	n/a	n/a	n/a	n/a	n/a
3210752	RECOG_RESP	n/a	LTP229	ltpFR	16	2	0	BUN	197	1	n/a	0	n/a	n/a	n/a	n/a	n/a
3211463	RECOG_CONF	n/a	LTP229	ltpFR	16	2	0	BUN	197	n/a	1	0	n/a	n/a	n/a	n/a	n/a
3213111	RECOG_TARGET	n/a	LTP229	ltpFR	16	2	1	HAWK	692	1	3	1	n/a	n/a	n/a	n/a	n/a
3213768	RECOG_RESP	n/a	LTP229	ltpFR	16	2	1	HAWK	692	1	n/a	1	n/a	n/a	n/a	n/a	n/a
3214432	RECOG_CONF	n/a	LTP229	ltpFR	16	2	1	HAWK	692	n/a	3	1	n/a	n/a	n/a	n/a	n/a
3215954	RECOG_TARGET	n/a	LTP229	ltpFR	16	2	0	WINDOW	1611	1	4	1	n/a	n/a	n/a	n/a	n/a
3216821	RECOG_RESP	n/a	LTP229	ltpFR	16	2	0	WINDOW	1611	1	n/a	1	n/a	n/a	n/a	n/a	n/a
3217495	RECOG_CONF	n/a	LTP229	ltpFR	16	2	0	WINDOW	1611	n/a	4	1	n/a	n/a	n/a	n/a	n/a
3219200	RECOG_LURE	n/a	LTP229	ltpFR	16	2	n/a	PARIS	1014	0	5	n/a	n/a	n/a	n/a	n/a	n/a
3219993	RECOG_RESP	n/a	LTP229	ltpFR	16	2	n/a	PARIS	1014	0	n/a	n/a	n/a	n/a	n/a	n/a	n/a
3220718	RECOG_CONF	n/a	LTP229	ltpFR	16	2	n/a	PARIS	1014	n/a	5	n/a	n/a	n/a	n/a	n/a	n/a
3222361	RECOG_TARGET	n/a	LTP229	ltpFR	16	2	-1	ALLIGATOR	16	1	5	-1	n/a	n/a	n/a	n/a	n/a
3223626	RECOG_RESP	n/a	LTP229	ltpFR	16	2	-1	ALLIGATOR	16	1	n/a	-1	n/a	n/a	n/a	n/a	n/a
3224279	RECOG_CONF	n/a	LTP229	ltpFR	16	2	-1	ALLIGATOR	16	n/a	5	-1	n/a	n/a	n/a	n/a	n/a
3225887	RECOG_TARGET	n/a	LTP229	ltpFR	16	2	0	CHEF	290	1	3	1	n/a	n/a	n/a	n/a	n/a
3226742	RECOG_RESP	n/a	LTP229	ltpFR	16	2	0	CHEF	290	1	n/a	1	n/a	n/a	n/a	n/a	n/a
3227231	RECOG_CONF	n/a	LTP229	ltpFR	16	2	0	CHEF	290	n/a	3	1	n/a	n/a	n/a	n/a	n/a
3228836	RECOG_TARGET	n/a	LTP229	ltpFR	16	2	-1	TRENCH	1503	1	4	-1	n/a	n/a	n/a	n/a	n/a
3229489	RECOG_RESP	n/a	LTP229	ltpFR	16	2	-1	TRENCH	1503	1	n/a	-1	n/a	n/a	n/a	n/a	n/a
3230136	RECOG_CONF	n/a	LTP229	ltpFR	16	2	-1	TRENCH	1503	n/a	4	-1	n/a	n/a	n/a	n/a	n/a
3231629	RECOG_TARGET	n/a	LTP229	ltpFR	16	2	1	BOXER	160	1	5	1	n/a	n/a	n/a	n/a	n/a
3232335	RECOG_RESP	n/a	LTP229	ltpFR	16	2	1	BOXER	160	1	n/a	1	n/a	n/a	n/a	n/a	n/a
3232980	RECOG_CONF	n/a	LTP229	ltpFR	16	2	1	BOXER	160	n/a	5	1	n/a	n/a	n/a	n/a	n/a
3234540	RECOG_TARGET	n/a	LTP229	ltpFR	16	2	-1	BREAST	171	1	2	-1	n/a	n/a	n/a	n/a	n/a
3235214	RECOG_RESP	n/a	LTP229	ltpFR	16	2	-1	BREAST	171	1	n/a	-1	n/a	n/a	n/a	n/a	n/a
3235804	RECOG_CONF	n/a	LTP229	ltpFR	16	2	-1	BREAST	171	n/a	2	-1	n/a	n/a	n/a	n/a	n/a
3237285	RECOG_TARGET	n/a	LTP229	ltpFR	16	2	1	COACH	331	1	3	1	n/a	n/a	n/a	n/a	n/a
3237973	RECOG_RESP	n/a	LTP229	ltpFR	16	2	1	COACH	331	1	n/a	1	n/a	n/a	n/a	n/a	n/a
3238524	RECOG_CONF	n/a	LTP229	ltpFR	16	2	1	COACH	331	n/a	3	1	n/a	n/a	n/a	n/a	n/a
3240179	RECOG_LURE	n/a	LTP229	ltpFR	16	2	n/a	OZONE	996	0	5	n/a	n/a	n/a	n/a	n/a	n/a
3241134	RECOG_RESP	n/a	LTP229	ltpFR	16	2	n/a	OZONE	996	0	n/a	n/a	n/a	n/a	n/a	n/a	n/a
3241780	RECOG_CONF	n/a	LTP229	ltpFR	16	2	n/a	OZONE	996	n/a	5	n/a	n/a	n/a	n/a	n/a	n/a
3243324	RECOG_LURE	n/a	LTP229	ltpFR	16	2	n/a	FLASK	576	0	5	n/a	n/a	n/a	n/a	n/a	n/a
3244281	RECOG_RESP	n/a	LTP229	ltpFR	16	2	n/a	FLASK	576	0	n/a	n/a	n/a	n/a	n/a	n/a	n/a
3244892	RECOG_CONF	n/a	LTP229	ltpFR	16	2	n/a	FLASK	576	n/a	5	n/a	n/a	n/a	n/a	n/a	n/a
3246519	RECOG_TARGET	n/a	LTP229	ltpFR	16	2	0	SOCIETY	1338	1	4	1	n/a	n/a	n/a	n/a	n/a
3247437	RECOG_RESP	n/a	LTP229	ltpFR	16	2	0	SOCIETY	1338	1	n/a	1	n/a	n/a	n/a	n/a	n/a
3248155	RECOG_CONF	n/a	LTP229	ltpFR	16	2	0	SOCIETY	1338	n/a	4	1	n/a	n/a	n/a	n/a	n/a
3249815	RECOG_TARGET	n/a	LTP229	ltpFR	16	2	1	CLAM	315	1	2	0	n/a	n/a	n/a	n/a	n/a
3250500	RECOG_RESP	n/a	LTP229	ltpFR	16	2	1	CLAM	315	1	n/a	0	n/a	n/a	n/a	n/a	n/a
3251137	RECOG_CONF	n/a	LTP229	ltpFR	16	2	1	CLAM	315	n/a	2	0	n/a	n/a	n/a	n/a	n/a
3252826	RECOG_TARGET	n/a	LTP229	ltpFR	16	2	-1	TOOL	1480	1	1	-1	n/a	n/a	n/a	n/a	n/a
3253549	RECOG_RESP	n/a	LTP229	ltpFR	16	2	-1	TOOL	1480	1	n/a	-1	n/a	n/a	n/a	n/a	n/a
3254230	RECOG_CONF	n/a	LTP229	ltpFR	16	2	-1	TOOL	1480	n/a	1	-1	n/a	n/a	n/a	n/a	n/a
3262707	REC_START	n/a	LTP229	ltpFR	16	3	n/a	n/a	n/a	n/a	n/a	n/a	n/a	n/a	n/a	n/a	n/a
3262760	RECOG_TARGET	n/a	LTP229	ltpFR	16	3	1	NOTE	958	1	4	0	n/a	n/a	n/a	n/a	n/a
3263439	RECOG_RESP	n/a	LTP229	ltpFR	16	3	1	NOTE	958	1	n/a	0	n/a	n/a	n/a	n/a	n/a
3264041	RECOG_CONF	n/a	LTP229	ltpFR	16	3	1	NOTE	958	n/a	4	0	n/a	n/a	n/a	n/a	n/a
3265604	RECOG_TARGET	n/a	LTP229	ltpFR	16	3	1	GYMNAST	675	1	3	1	n/a	n/a	n/a	n/a	n/a
3266158	RECOG_RESP	n/a	LTP229	ltpFR	16	3	1	GYMNAST	675	1	n/a	1	n/a	n/a	n/a	n/a	n/a
3266832	RECOG_CONF	n/a	LTP229	ltpFR	16	3	1	GYMNAST	675	n/a	3	1	n/a	n/a	n/a	n/a	n/a
3268332	RECOG_TARGET	n/a	LTP229	ltpFR	16	3	1	KING	777	1	4	3	n/a	n/a	n/a	n/a	n/a
3268883	RECOG_RESP	n/a	LTP229	ltpFR	16	3	1	KING	777	1	n/a	3	n/a	n/a	n/a	n/a	n/a
3269586	RECOG_CONF	n/a	LTP229	ltpFR	16	3	1	KING	777	n/a	4	3	n/a	n/a	n/a	n/a	n/a
3271230	RECOG_TARGET	n/a	LTP229	ltpFR	16	3	-1	KEY	773	1	5	-1	n/a	n/a	n/a	n/a	n/a
3271844	RECOG_RESP	n/a	LTP229	ltpFR	16	3	-1	KEY	773	1	n/a	-1	n/a	n/a	n/a	n/a	n/a
3272510	RECOG_CONF	n/a	LTP229	ltpFR	16	3	-1	KEY	773	n/a	5	-1	n/a	n/a	n/a	n/a	n/a
3274325	RECOG_TARGET	n/a	LTP229	ltpFR	16	3	1	EWE	542	1	2	0	n/a	n/a	n/a	n/a	n/a
3274981	RECOG_RESP	n/a	LTP229	ltpFR	16	3	1	EWE	542	1	n/a	0	n/a	n/a	n/a	n/a	n/a
3275594	RECOG_CONF	n/a	LTP229	ltpFR	16	3	1	EWE	542	n/a	2	0	n/a	n/a	n/a	n/a	n/a
3277219	RECOG_TARGET	n/a	LTP229	ltpFR	16	3	0	BEAST	108	1	3	1	n/a	n/a	n/a	n/a	n/a
3278015	RECOG_RESP	n/a	LTP229	ltpFR	16	3	0	BEAST	108	1	n/a	1	n/a	n/a	n/a	n/a	n/a
3283724	RECOG_CONF	n/a	LTP229	ltpFR	16	3	0	BEAST	108	n/a	3	1	n/a	n/a	n/a	n/a	n/a
3285399	RECOG_TARGET	n/a	LTP229	ltpFR	16	3	1	LAUNDRY	803	1	4	0	n/a	n/a	n/a	n/a	n/a
3286054	RECOG_RESP	n/a	LTP229	ltpFR	16	3	1	LAUNDRY	803	1	n/a	0	n/a	n/a	n/a	n/a	n/a
3286901	RECOG_CONF	n/a	LTP229	ltpFR	16	3	1	LAUNDRY	803	n/a	4	0	n/a	n/a	n/a	n/a	n/a
3288561	RECOG_TARGET	n/a	LTP229	ltpFR	16	3	0	DEER	444	1	2	0	n/a	n/a	n/a	n/a	n/a
3289381	RECOG_RESP_VV	n/a	LTP229	ltpFR	16	3	0	DEER	444	0	n/a	0	n/a	n/a	n/a	n/a	n/a
3290008	RECOG_RESP_VV	n/a	LTP229	ltpFR	16	3	0	DEER	444	1	n/a	0	n/a	n/a	n/a	n/a	n/a
3291133	RECOG_RESP	n/a	LTP229	ltpFR	16	3	0	DEER	444	1	n/a	0	n/a	n/a	n/a	n/a	n/a
3292325	RECOG_CONF	n/a	LTP229	ltpFR	16	3	0	DEER	444	n/a	2	0	n/a	n/a	n/a	n/a	n/a
3294061	RECOG_TARGET	n/a	LTP229	ltpFR	16	3	1	POOL	1103	1	3	0	n/a	n/a	n/a	n/a	n/a
3294703	RECOG_RESP	n/a	LTP229	ltpFR	16	3	1	POOL	1103	1	n/a	0	n/a	n/a	n/a	n/a	n/a
3295388	RECOG_CONF	n/a	LTP229	ltpFR	16	3	1	POOL	1103	n/a	3	0	n/a	n/a	n/a	n/a	n/a
3296972	RECOG_TARGET	n/a	LTP229	ltpFR	16	3	1	JACKET	747	1	5	1	n/a	n/a	n/a	n/a	n/a
3297691	RECOG_RESP	n/a	LTP229	ltpFR	16	3	1	JACKET	747	1	n/a	1	n/a	n/a	n/a	n/a	n/a
3298361	RECOG_CONF	n/a	LTP229	ltpFR	16	3	1	JACKET	747	n/a	5	1	n/a	n/a	n/a	n/a	n/a
3299870	RECOG_LURE	n/a	LTP229	ltpFR	16	3	n/a	CREVICE	405	0	4	n/a	n/a	n/a	n/a	n/a	n/a
3300665	RECOG_RESP	n/a	LTP229	ltpFR	16	3	n/a	CREVICE	405	0	n/a	n/a	n/a	n/a	n/a	n/a	n/a
3301290	RECOG_CONF	n/a	LTP229	ltpFR	16	3	n/a	CREVICE	405	n/a	4	n/a	n/a	n/a	n/a	n/a	n/a
3302948	RECOG_LURE	n/a	LTP229	ltpFR	16	3	n/a	PASTRY	1022	0	2	n/a	n/a	n/a	n/a	n/a	n/a
3303792	RECOG_RESP	n/a	LTP229	ltpFR	16	3	n/a	PASTRY	1022	0	n/a	n/a	n/a	n/a	n/a	n/a	n/a
3304507	RECOG_CONF	n/a	LTP229	ltpFR	16	3	n/a	PASTRY	1022	n/a	2	n/a	n/a	n/a	n/a	n/a	n/a
3306241	RECOG_TARGET	n/a	LTP229	ltpFR	16	3	1	ZOO	1637	1	4	0	n/a	n/a	n/a	n/a	n/a
3306851	RECOG_RESP	n/a	LTP229	ltpFR	16	3	1	ZOO	1637	1	n/a	0	n/a	n/a	n/a	n/a	n/a
3307474	RECOG_CONF	n/a	LTP229	ltpFR	16	3	1	ZOO	1637	n/a	4	0	n/a	n/a	n/a	n/a	n/a
3309106	RECOG_LURE	n/a	LTP229	ltpFR	16	3	n/a	GARLIC	624	0	1	n/a	n/a	n/a	n/a	n/a	n/a
3309875	RECOG_RESP	n/a	LTP229	ltpFR	16	3	n/a	GARLIC	624	0	n/a	n/a	n/a	n/a	n/a	n/a	n/a
3310523	RECOG_CONF	n/a	LTP229	ltpFR	16	3	n/a	GARLIC	624	n/a	1	n/a	n/a	n/a	n/a	n/a	n/a
3312134	RECOG_LURE	n/a	LTP229	ltpFR	16	3	n/a	WRIST	1626	0	5	n/a	n/a	n/a	n/a	n/a	n/a
3312899	RECOG_RESP	n/a	LTP229	ltpFR	16	3	n/a	WRIST	1626	0	n/a	n/a	n/a	n/a	n/a	n/a	n/a
3313556	RECOG_CONF	n/a	LTP229	ltpFR	16	3	n/a	WRIST	1626	n/a	5	n/a	n/a	n/a	n/a	n/a	n/a
3315162	RECOG_TARGET	n/a	LTP229	ltpFR	16	3	0	LIME	823	1	3	0	n/a	n/a	n/a	n/a	n/a
3316330	RECOG_RESP	n/a	LTP229	ltpFR	16	3	0	LIME	823	1	n/a	0	n/a	n/a	n/a	n/a	n/a
3317400	RECOG_CONF	n/a	LTP229	ltpFR	16	3	0	LIME	823	n/a	3	0	n/a	n/a	n/a	n/a	n/a
3319307	RECOG_TARGET	n/a	LTP229	ltpFR	16	3	1	GRATE	657	1	2	0	n/a	n/a	n/a	n/a	n/a
3320021	RECOG_RESP	n/a	LTP229	ltpFR	16	3	1	GRATE	657	1	n/a	0	n/a	n/a	n/a	n/a	n/a
3320669	RECOG_CONF	n/a	LTP229	ltpFR	16	3	1	GRATE	657	n/a	2	0	n/a	n/a	n/a	n/a	n/a
3322185	RECOG_LURE	n/a	LTP229	ltpFR	16	3	n/a	ASH	44	0	4	n/a	n/a	n/a	n/a	n/a	n/a
3323389	RECOG_RESP	n/a	LTP229	ltpFR	16	3	n/a	ASH	44	0	n/a	n/a	n/a	n/a	n/a	n/a	n/a
3323926	RECOG_CONF	n/a	LTP229	ltpFR	16	3	n/a	ASH	44	n/a	4	n/a	n/a	n/a	n/a	n/a	n/a
3325533	RECOG_LURE	n/a	LTP229	ltpFR	16	3	n/a	BATHROOM	99	0	5	n/a	n/a	n/a	n/a	n/a	n/a
3326400	RECOG_RESP	n/a	LTP229	ltpFR	16	3	n/a	BATHROOM	99	0	n/a	n/a	n/a	n/a	n/a	n/a	n/a
3327155	RECOG_CONF	n/a	LTP229	ltpFR	16	3	n/a	BATHROOM	99	n/a	5	n/a	n/a	n/a	n/a	n/a	n/a
3328729	RECOG_TARGET	n/a	LTP229	ltpFR	16	3	1	IRON	744	1	4	0	n/a	n/a	n/a	n/a	n/a
3329706	RECOG_RESP	n/a	LTP229	ltpFR	16	3	1	IRON	744	1	n/a	0	n/a	n/a	n/a	n/a	n/a
3330378	RECOG_CONF	n/a	LTP229	ltpFR	16	3	1	IRON	744	n/a	4	0	n/a	n/a	n/a	n/a	n/a
3338031	REC_START	n/a	LTP229	ltpFR	16	4	n/a	n/a	n/a	n/a	n/a	n/a	n/a	n/a	n/a	n/a	n/a
3338082	RECOG_TARGET	n/a	LTP229	ltpFR	16	4	-1	DAUGHTER	442	0	1	-1	n/a	n/a	n/a	n/a	n/a
3338874	RECOG_RESP	n/a	LTP229	ltpFR	16	4	-1	DAUGHTER	442	0	n/a	-1	n/a	n/a	n/a	n/a	n/a
3339460	RECOG_CONF	n/a	LTP229	ltpFR	16	4	-1	DAUGHTER	442	n/a	1	-1	n/a	n/a	n/a	n/a	n/a
3341227	RECOG_TARGET	n/a	LTP229	ltpFR	16	4	0	WHALE	1601	1	3	1	n/a	n/a	n/a	n/a	n/a
3344009	RECOG_RESP	n/a	LTP229	ltpFR	16	4	0	WHALE	1601	1	n/a	1	n/a	n/a	n/a	n/a	n/a
3344820	RECOG_CONF	n/a	LTP229	ltpFR	16	4	0	WHALE	1601	n/a	3	1	n/a	n/a	n/a	n/a	n/a
3346747	RECOG_TARGET	n/a	LTP229	ltpFR	16	4	1	CHEESE	289	1	4	0	n/a	n/a	n/a	n/a	n/a
3347311	RECOG_RESP	n/a	LTP229	ltpFR	16	4	1	CHEESE	289	1	n/a	0	n/a	n/a	n/a	n/a	n/a
3348083	RECOG_CONF	n/a	LTP229	ltpFR	16	4	1	CHEESE	289	n/a	4	0	n/a	n/a	n/a	n/a	n/a
3349674	RECOG_TARGET	n/a	LTP229	ltpFR	16	4	1	STEM	1376	1	5	1	n/a	n/a	n/a	n/a	n/a
3350365	RECOG_RESP	n/a	LTP229	ltpFR	16	4	1	STEM	1376	1	n/a	1	n/a	n/a	n/a	n/a	n/a
3351236	RECOG_CONF	n/a	LTP229	ltpFR	16	4	1	STEM	1376	n/a	5	1	n/a	n/a	n/a	n/a	n/a
3352920	RECOG_TARGET	n/a	LTP229	ltpFR	16	4	0	MUSEUM	933	1	4	1	n/a	n/a	n/a	n/a	n/a
3353580	RECOG_RESP	n/a	LTP229	ltpFR	16	4	0	MUSEUM	933	1	n/a	1	n/a	n/a	n/a	n/a	n/a
3354409	RECOG_CONF	n/a	LTP229	ltpFR	16	4	0	MUSEUM	933	n/a	4	1	n/a	n/a	n/a	n/a	n/a
3356116	RECOG_TARGET	n/a	LTP229	ltpFR	16	4	0	GUARD	667	1	2	1	n/a	n/a	n/a	n/a	n/a
3356715	RECOG_RESP	n/a	LTP229	ltpFR	16	4	0	GUARD	667	1	n/a	1	n/a	n/a	n/a	n/a	n/a
3357449	RECOG_CONF	n/a	LTP229	ltpFR	16	4	0	GUARD	667	n/a	2	1	n/a	n/a	n/a	n/a	n/a
3359228	RECOG_LURE	n/a	LTP229	ltpFR	16	4	n/a	TRAITOR	1495	0	3	n/a	n/a	n/a	n/a	n/a	n/a
3359995	RECOG_RESP	n/a	LTP229	ltpFR	16	4	n/a	TRAITOR	1495	0	n/a	n/a	n/a	n/a	n/a	n/a	n/a
3360784	RECOG_CONF	n/a	LTP229	ltpFR	16	4	n/a	TRAITOR	1495	n/a	3	n/a	n/a	n/a	n/a	n/a	n/a
3362355	RECOG_LURE	n/a	LTP229	ltpFR	16	4	n/a	HURRICANE	727	0	1	n/a	n/a	n/a	n/a	n/a	n/a
3363143	RECOG_RESP	n/a	LTP229	ltpFR	16	4	n/a	HURRICANE	727	0	n/a	n/a	n/a	n/a	n/a	n/a	n/a
3363932	RECOG_CONF	n/a	LTP229	ltpFR	16	4	n/a	HURRICANE	727	n/a	1	n/a	n/a	n/a	n/a	n/a	n/a
3365647	RECOG_LURE	n/a	LTP229	ltpFR	16	4	n/a	BINDER	127	0	1	n/a	n/a	n/a	n/a	n/a	n/a
3366571	RECOG_RESP_VV	n/a	LTP229	ltpFR	16	4	n/a	BINDER	127	1	n/a	n/a	n/a	n/a	n/a	n/a	n/a
3369838	RECOG_RESP	n/a	LTP229	ltpFR	16	4	n/a	BINDER	127	0	n/a	n/a	n/a	n/a	n/a	n/a	n/a
3370626	RECOG_CONF	n/a	LTP229	ltpFR	16	4	n/a	BINDER	127	n/a	1	n/a	n/a	n/a	n/a	n/a	n/a
3372294	RECOG_TARGET	n/a	LTP229	ltpFR	16	4	-1	JOINT	758	1	3	-1	n/a	n/a	n/a	n/a	n/a
3373006	RECOG_RESP	n/a	LTP229	ltpFR	16	4	-1	JOINT	758	1	n/a	-1	n/a	n/a	n/a	n/a	n/a
3373735	RECOG_CONF	n/a	LTP229	ltpFR	16	4	-1	JOINT	758	n/a	3	-1	n/a	n/a	n/a	n/a	n/a
3375155	RECOG_TARGET	n/a	LTP229	ltpFR	16	4	0	CLIFF	322	1	4	1	n/a	n/a	n/a	n/a	n/a
3375702	RECOG_RESP	n/a	LTP229	ltpFR	16	4	0	CLIFF	322	1	n/a	1	n/a	n/a	n/a	n/a	n/a
3376359	RECOG_CONF	n/a	LTP229	ltpFR	16	4	0	CLIFF	322	n/a	4	1	n/a	n/a	n/a	n/a	n/a
3377931	RECOG_TARGET	n/a	LTP229	ltpFR	16	4	0	BRAKE	166	1	5	1	n/a	n/a	n/a	n/a	n/a
3378443	RECOG_RESP	n/a	LTP229	ltpFR	16	4	0	BRAKE	166	1	n/a	1	n/a	n/a	n/a	n/a	n/a
3379132	RECOG_CONF	n/a	LTP229	ltpFR	16	4	0	BRAKE	166	n/a	5	1	n/a	n/a	n/a	n/a	n/a
3380892	RECOG_LURE	n/a	LTP229	ltpFR	16	4	n/a	CAPE	237	0	2	n/a	n/a	n/a	n/a	n/a	n/a
3381607	RECOG_RESP	n/a	LTP229	ltpFR	16	4	n/a	CAPE	237	0	n/a	n/a	n/a	n/a	n/a	n/a	n/a
3382749	RECOG_CONF	n/a	LTP229	ltpFR	16	4	n/a	CAPE	237	n/a	2	n/a	n/a	n/a	n/a	n/a	n/a
3384372	RECOG_TARGET	n/a	LTP229	ltpFR	16	4	0	SACK	1220	1	3	0	n/a	n/a	n/a	n/a	n/a
3386369	RECOG_RESP	n/a	LTP229	ltpFR	16	4	0	SACK	1220	1	n/a	0	n/a	n/a	n/a	n/a	n/a
3387154	RECOG_CONF	n/a	LTP229	ltpFR	16	4	0	SACK	1220	n/a	3	0	n/a	n/a	n/a	n/a	n/a
3388785	RECOG_TARGET	n/a	LTP229	ltpFR	16	4	0	COMB	351	1	4	0	n/a	n/a	n/a	n/a	n/a
3389519	RECOG_RESP	n/a	LTP229	ltpFR	16	4	0	COMB	351	1	n/a	0	n/a	n/a	n/a	n/a	n/a
3390187	RECOG_CONF	n/a	LTP229	ltpFR	16	4	0	COMB	351	n/a	4	0	n/a	n/a	n/a	n/a	n/a
3391850	RECOG_TARGET	n/a	LTP229	ltpFR	16	4	-1	THERMOMETER	1453	1	2	-1	n/a	n/a	n/a	n/a	n/a
3392674	RECOG_RESP	n/a	LTP229	ltpFR	16	4	-1	THERMOMETER	1453	1	n/a	-1	n/a	n/a	n/a	n/a	n/a
3393301	RECOG_CONF	n/a	LTP229	ltpFR	16	4	-1	THERMOMETER	1453	n/a	2	-1	n/a	n/a	n/a	n/a	n/a
3394908	RECOG_TARGET	n/a	LTP229	ltpFR	16	4	0	MONGOOSE	909	1	4	1	n/a	n/a	n/a	n/a	n/a
3395572	RECOG_RESP	n/a	LTP229	ltpFR	16	4	0	MONGOOSE	909	1	n/a	1	n/a	n/a	n/a	n/a	n/a
3396326	RECOG_CONF	n/a	LTP229	ltpFR	16	4	0	MONGOOSE	909	n/a	4	1	n/a	n/a	n/a	n/a	n/a
3397956	RECOG_TARGET	n/a	LTP229	ltpFR	16	4	-1	GLUE	643	1	5	-1	n/a	n/a	n/a	n/a	n/a
3398543	RECOG_RESP	n/a	LTP229	ltpFR	16	4	-1	GLUE	643	1	n/a	-1	n/a	n/a	n/a	n/a	n/a
3399197	RECOG_CONF	n/a	LTP229	ltpFR	16	4	-1	GLUE	643	n/a	5	-1	n/a	n/a	n/a	n/a	n/a
3400850	RECOG_LURE	n/a	LTP229	ltpFR	16	4	n/a	GERM	632	0	1	n/a	n/a	n/a	n/a	n/a	n/a
3401842	RECOG_RESP	n/a	LTP229	ltpFR	16	4	n/a	GERM	632	0	n/a	n/a	n/a	n/a	n/a	n/a	n/a
3402483	RECOG_CONF	n/a	LTP229	ltpFR	16	4	n/a	GERM	632	n/a	1	n/a	n/a	n/a	n/a	n/a	n/a
3404080	RECOG_TARGET	n/a	LTP229	ltpFR	16	4	1	MINK	897	1	3	0	n/a	n/a	n/a	n/a	n/a
3404779	RECOG_RESP	n/a	LTP229	ltpFR	16	4	1	MINK	897	1	n/a	0	n/a	n/a	n/a	n/a	n/a
3405512	RECOG_CONF	n/a	LTP229	ltpFR	16	4	1	MINK	897	n/a	3	0	n/a	n/a	n/a	n/a	n/a
3419959	REC_START	n/a	LTP229	ltpFR	16	5	n/a	n/a	n/a	n/a	n/a	n/a	n/a	n/a	n/a	n/a	n/a
3420006	RECOG_TARGET	n/a	LTP229	ltpFR	16	5	1	SHEET	1279	1	2	0	n/a	n/a	n/a	n/a	n/a
3420951	RECOG_RESP	n/a	LTP229	ltpFR	16	5	1	SHEET	1279	1	n/a	0	n/a	n/a	n/a	n/a	n/a
3421632	RECOG_CONF	n/a	LTP229	ltpFR	16	5	1	SHEET	1279	n/a	2	0	n/a	n/a	n/a	n/a	n/a
3423549	RECOG_TARGET	n/a	LTP229	ltpFR	16	5	1	SHACK	1273	1	3	1	n/a	n/a	n/a	n/a	n/a
3424009	RECOG_RESP	n/a	LTP229	ltpFR	16	5	1	SHACK	1273	1	n/a	1	n/a	n/a	n/a	n/a	n/a
3424673	RECOG_CONF	n/a	LTP229	ltpFR	16	5	1	SHACK	1273	n/a	3	1	n/a	n/a	n/a	n/a	n/a
3426294	RECOG_LURE	n/a	LTP229	ltpFR	16	5	n/a	QUEEN	1149	0	4	n/a	n/a	n/a	n/a	n/a	n/a
3427048	RECOG_RESP	n/a	LTP229	ltpFR	16	5	n/a	QUEEN	1149	0	n/a	n/a	n/a	n/a	n/a	n/a	n/a
3427726	RECOG_CONF	n/a	LTP229	ltpFR	16	5	n/a	QUEEN	1149	n/a	4	n/a	n/a	n/a	n/a	n/a	n/a
3429225	RECOG_LURE	n/a	LTP229	ltpFR	16	5	n/a	LOOP	844	0	5	n/a	n/a	n/a	n/a	n/a	n/a
3429996	RECOG_RESP	n/a	LTP229	ltpFR	16	5	n/a	LOOP	844	0	n/a	n/a	n/a	n/a	n/a	n/a	n/a
3430679	RECOG_CONF	n/a	LTP229	ltpFR	16	5	n/a	LOOP	844	n/a	5	n/a	n/a	n/a	n/a	n/a	n/a
3432119	RECOG_TARGET	n/a	LTP229	ltpFR	16	5	0	DRYER	503	1	1	1	n/a	n/a	n/a	n/a	n/a
3432823	RECOG_RESP	n/a	LTP229	ltpFR	16	5	0	DRYER	503	1	n/a	1	n/a	n/a	n/a	n/a	n/a
3433447	RECOG_CONF	n/a	LTP229	ltpFR	16	5	0	DRYER	503	n/a	1	1	n/a	n/a	n/a	n/a	n/a
3435046	RECOG_TARGET	n/a	LTP229	ltpFR	16	5	-1	WINE	1613	1	3	-1	n/a	n/a	n/a	n/a	n/a
3435781	RECOG_RESP	n/a	LTP229	ltpFR	16	5	-1	WINE	1613	1	n/a	-1	n/a	n/a	n/a	n/a	n/a
3436436	RECOG_CONF	n/a	LTP229	ltpFR	16	5	-1	WINE	1613	n/a	3	-1	n/a	n/a	n/a	n/a	n/a
3437873	RECOG_TARGET	n/a	LTP229	ltpFR	16	5	0	TWEEZERS	1526	1	4	1	n/a	n/a	n/a	n/a	n/a
3438561	RECOG_RESP	n/a	LTP229	ltpFR	16	5	0	TWEEZERS	1526	1	n/a	1	n/a	n/a	n/a	n/a	n/a
3439220	RECOG_CONF	n/a	LTP229	ltpFR	16	5	0	TWEEZERS	1526	n/a	4	1	n/a	n/a	n/a	n/a	n/a
3440851	RECOG_LURE	n/a	LTP229	ltpFR	16	5	n/a	DINOSAUR	469	0	5	n/a	n/a	n/a	n/a	n/a	n/a
3441601	RECOG_RESP	n/a	LTP229	ltpFR	16	5	n/a	DINOSAUR	469	0	n/a	n/a	n/a	n/a	n/a	n/a	n/a
3442202	RECOG_CONF	n/a	LTP229	ltpFR	16	5	n/a	DINOSAUR	469	n/a	5	n/a	n/a	n/a	n/a	n/a	n/a
3443825	RECOG_TARGET	n/a	LTP229	ltpFR	16	5	0	BEAN	105	1	4	0	n/a	n/a	n/a	n/a	n/a
3444423	RECOG_RESP	n/a	LTP229	ltpFR	16	5	0	BEAN	105	1	n/a	0	n/a	n/a	n/a	n/a	n/a
3445303	RECOG_CONF	n/a	LTP229	ltpFR	16	5	0	BEAN	105	n/a	4	0	n/a	n/a	n/a	n/a	n/a
3446907	RECOG_TARGET	n/a	LTP229	ltpFR	16	5	0	WEED	1599	1	2	1	n/a	n/a	n/a	n/a	n/a
3447736	RECOG_RESP	n/a	LTP229	ltpFR	16	5	0	WEED	1599	1	n/a	1	n/a	n/a	n/a	n/a	n/a
3449111	RECOG_CONF	n/a	LTP229	ltpFR	16	5	0	WEED	1599	n/a	2	1	n/a	n/a	n/a	n/a	n/a
3450869	RECOG_TARGET	n/a	LTP229	ltpFR	16	5	0	SPARROW	1347	1	3	1	n/a	n/a	n/a	n/a	n/a
3451752	RECOG_RESP	n/a	LTP229	ltpFR	16	5	0	SPARROW	1347	1	n/a	1	n/a	n/a	n/a	n/a	n/a
3452360	RECOG_CONF	n/a	LTP229	ltpFR	16	5	0	SPARROW	1347	n/a	3	1	n/a	n/a	n/a	n/a	n/a
3453900	RECOG_TARGET	n/a	LTP229	ltpFR	16	5	0	ATTORNEY	58	1	4	1	n/a	n/a	n/a	n/a	n/a
3454480	RECOG_RESP	n/a	LTP229	ltpFR	16	5	0	ATTORNEY	58	1	n/a	1	n/a	n/a	n/a	n/a	n/a
3455094	RECOG_CONF	n/a	LTP229	ltpFR	16	5	0	ATTORNEY	58	n/a	4	1	n/a	n/a	n/a	n/a	n/a
3456574	RECOG_TARGET	n/a	LTP229	ltpFR	16	5	-1	BEEF	113	1	5	-1	n/a	n/a	n/a	n/a	n/a
3457134	RECOG_RESP	n/a	LTP229	ltpFR	16	5	-1	BEEF	113	1	n/a	-1	n/a	n/a	n/a	n/a	n/a
3457738	RECOG_CONF	n/a	LTP229	ltpFR	16	5	-1	BEEF	113	n/a	5	-1	n/a	n/a	n/a	n/a	n/a
3459438	RECOG_TARGET	n/a	LTP229	ltpFR	16	5	0	CUBE	420	1	1	0	n/a	n/a	n/a	n/a	n/a
3460846	RECOG_RESP	n/a	LTP229	ltpFR	16	5	0	CUBE	420	1	n/a	0	n/a	n/a	n/a	n/a	n/a
3461449	RECOG_CONF	n/a	LTP229	ltpFR	16	5	0	CUBE	420	n/a	1	0	n/a	n/a	n/a	n/a	n/a
3463253	RECOG_LURE	n/a	LTP229	ltpFR	16	5	n/a	ESSAY	540	0	4	n/a	n/a	n/a	n/a	n/a	n/a
3464258	RECOG_RESP	n/a	LTP229	ltpFR	16	5	n/a	ESSAY	540	0	n/a	n/a	n/a	n/a	n/a	n/a	n/a
3464932	RECOG_CONF	n/a	LTP229	ltpFR	16	5	n/a	ESSAY	540	n/a	4	n/a	n/a	n/a	n/a	n/a	n/a
3466832	RECOG_LURE	n/a	LTP229	ltpFR	16	5	n/a	PHYSICIAN	1056	0	5	n/a	n/a	n/a	n/a	n/a	n/a
3467735	RECOG_RESP	n/a	LTP229	ltpFR	16	5	n/a	PHYSICIAN	1056	0	n/a	n/a	n/a	n/a	n/a	n/a	n/a
3468404	RECOG_CONF	n/a	LTP229	ltpFR	16	5	n/a	PHYSICIAN	1056	n/a	5	n/a	n/a	n/a	n/a	n/a	n/a
3470011	RECOG_TARGET	n/a	LTP229	ltpFR	16	5	1	ISLAND	745	1	3	0	n/a	n/a	n/a	n/a	n/a
3473411	RECOG_RESP	n/a	LTP229	ltpFR	16	5	1	ISLAND	745	1	n/a	0	n/a	n/a	n/a	n/a	n/a
3474340	RECOG_CONF	n/a	LTP229	ltpFR	16	5	1	ISLAND	745	n/a	3	0	n/a	n/a	n/a	n/a	n/a
3475963	RECOG_LURE	n/a	LTP229	ltpFR	16	5	n/a	RAKE	1164	0	2	n/a	n/a	n/a	n/a	n/a	n/a
3476853	RECOG_RESP	n/a	LTP229	ltpFR	16	5	n/a	RAKE	1164	0	n/a	n/a	n/a	n/a	n/a	n/a	n/a
3477465	RECOG_CONF	n/a	LTP229	ltpFR	16	5	n/a	RAKE	1164	n/a	2	n/a	n/a	n/a	n/a	n/a	n/a
3479130	RECOG_TARGET	n/a	LTP229	ltpFR	16	5	1	TAIL	1430	1	1	0	n/a	n/a	n/a	n/a	n/a
3480647	RECOG_RESP	n/a	LTP229	ltpFR	16	5	1	TAIL	1430	1	n/a	0	n/a	n/a	n/a	n/a	n/a
3481310	RECOG_CONF	n/a	LTP229	ltpFR	16	5	1	TAIL	1430	n/a	1	0	n/a	n/a	n/a	n/a	n/a
3482960	RECOG_TARGET	n/a	LTP229	ltpFR	16	5	-1	CELLAR	267	1	3	-1	n/a	n/a	n/a	n/a	n/a
3483847	RECOG_RESP	n/a	LTP229	ltpFR	16	5	-1	CELLAR	267	1	n/a	-1	n/a	n/a	n/a	n/a	n/a
3484466	RECOG_CONF	n/a	LTP229	ltpFR	16	5	-1	CELLAR	267	n/a	3	-1	n/a	n/a	n/a	n/a	n/a
3496677	REC_START	n/a	LTP229	ltpFR	16	6	n/a	n/a	n/a	n/a	n/a	n/a	n/a	n/a	n/a	n/a	n/a
3496728	RECOG_LURE	n/a	LTP229	ltpFR	16	6	n/a	BASEBALL	93	0	4	n/a	n/a	n/a	n/a	n/a	n/a
3497748	RECOG_RESP	n/a	LTP229	ltpFR	16	6	n/a	BASEBALL	93	0	n/a	n/a	n/a	n/a	n/a	n/a	n/a
3498607	RECOG_CONF	n/a	LTP229	ltpFR	16	6	n/a	BASEBALL	93	n/a	4	n/a	n/a	n/a	n/a	n/a	n/a
3500109	RECOG_TARGET	n/a	LTP229	ltpFR	16	6	-1	SLIDE	1326	1	1	-1	n/a	n/a	n/a	n/a	n/a
3500832	RECOG_RESP	n/a	LTP229	ltpFR	16	6	-1	SLIDE	1326	1	n/a	-1	n/a	n/a	n/a	n/a	n/a
3501412	RECOG_CONF	n/a	LTP229	ltpFR	16	6	-1	SLIDE	1326	n/a	1	-1	n/a	n/a	n/a	n/a	n/a
3503069	RECOG_TARGET	n/a	LTP229	ltpFR	16	6	0	BISCUIT	130	1	3	0	n/a	n/a	n/a	n/a	n/a
3503786	RECOG_RESP	n/a	LTP229	ltpFR	16	6	0	BISCUIT	130	1	n/a	0	n/a	n/a	n/a	n/a	n/a
3504361	RECOG_CONF	n/a	LTP229	ltpFR	16	6	0	BISCUIT	130	n/a	3	0	n/a	n/a	n/a	n/a	n/a
3505963	RECOG_TARGET	n/a	LTP229	ltpFR	16	6	1	COW	393	1	4	1	n/a	n/a	n/a	n/a	n/a
3506623	RECOG_RESP	n/a	LTP229	ltpFR	16	6	1	COW	393	1	n/a	1	n/a	n/a	n/a	n/a	n/a
3511648	RECOG_CONF	n/a	LTP229	ltpFR	16	6	1	COW	393	n/a	4	1	n/a	n/a	n/a	n/a	n/a
3513408	RECOG_TARGET	n/a	LTP229	ltpFR	16	6	1	HOUSE	725	0	1	1	n/a	n/a	n/a	n/a	n/a
3513962	RECOG_RESP_VV	n/a	LTP229	ltpFR	16	6	1	HOUSE	725	1	n/a	1	n/a	n/a	n/a	n/a	n/a
3516186	RECOG_RESP	n/a	LTP229	ltpFR	16	6	1	HOUSE	725	0	n/a	1	n/a	n/a	n/a	n/a	n/a
3518951	RECOG_CONF	n/a	LTP229	ltpFR	16	6	1	HOUSE	725	n/a	1	1	n/a	n/a	n/a	n/a	n/a
3520903	RECOG_TARGET	n/a	LTP229	ltpFR	16	6	1	COUNTRY	388	1	3	1	n/a	n/a	n/a	n/a	n/a
3521830	RECOG_RESP	n/a	LTP229	ltpFR	16	6	1	COUNTRY	388	1	n/a	1	n/a	n/a	n/a	n/a	n/a
3522471	RECOG_CONF	n/a	LTP229	ltpFR	16	6	1	COUNTRY	388	n/a	3	1	n/a	n/a	n/a	n/a	n/a
3524133	RECOG_TARGET	n/a	LTP229	ltpFR	16	6	0	BOULDER	155	1	4	0	n/a	n/a	n/a	n/a	n/a
3524827	RECOG_RESP	n/a	LTP229	ltpFR	16	6	0	BOULDER	155	1	n/a	0	n/a	n/a	n/a	n/a	n/a
3525373	RECOG_CONF	n/a	LTP229	ltpFR	16	6	0	BOULDER	155	n/a	4	0	n/a	n/a	n/a	n/a	n/a
3527094	RECOG_TARGET	n/a	LTP229	ltpFR	16	6	1	PORCUPINE	1107	1	5	1	n/a	n/a	n/a	n/a	n/a
3527626	RECOG_RESP	n/a	LTP229	ltpFR	16	6	1	PORCUPINE	1107	1	n/a	1	n/a	n/a	n/a	n/a	n/a
3528300	RECOG_CONF	n/a	LTP229	ltpFR	16	6	1	PORCUPINE	1107	n/a	5	1	n/a	n/a	n/a	n/a	n/a
3529920	RECOG_TARGET	n/a	LTP229	ltpFR	16	6	1	NEST	945	1	2	0	n/a	n/a	n/a	n/a	n/a
3530678	RECOG_RESP	n/a	LTP229	ltpFR	16	6	1	NEST	945	1	n/a	0	n/a	n/a	n/a	n/a	n/a
3531416	RECOG_CONF	n/a	LTP229	ltpFR	16	6	1	NEST	945	n/a	2	0	n/a	n/a	n/a	n/a	n/a
3533032	RECOG_LURE	n/a	LTP229	ltpFR	16	6	n/a	HERD	705	0	1	n/a	n/a	n/a	n/a	n/a	n/a
3534350	RECOG_RESP	n/a	LTP229	ltpFR	16	6	n/a	HERD	705	0	n/a	n/a	n/a	n/a	n/a	n/a	n/a
3534967	RECOG_CONF	n/a	LTP229	ltpFR	16	6	n/a	HERD	705	n/a	1	n/a	n/a	n/a	n/a	n/a	n/a
3536725	RECOG_LURE	n/a	LTP229	ltpFR	16	6	n/a	CHART	282	0	3	n/a	n/a	n/a	n/a	n/a	n/a
3537601	RECOG_RESP	n/a	LTP229	ltpFR	16	6	n/a	CHART	282	0	n/a	n/a	n/a	n/a	n/a	n/a	n/a
3538301	RECOG_CONF	n/a	LTP229	ltpFR	16	6	n/a	CHART	282	n/a	3	n/a	n/a	n/a	n/a	n/a	n/a
3539858	RECOG_TARGET	n/a	LTP229	ltpFR	16	6	0	BOOK	149	1	4	0	n/a	n/a	n/a	n/a	n/a
3541221	RECOG_RESP	n/a	LTP229	ltpFR	16	6	0	BOOK	149	1	n/a	0	n/a	n/a	n/a	n/a	n/a
3541869	RECOG_CONF	n/a	LTP229	ltpFR	16	6	0	BOOK	149	n/a	4	0	n/a	n/a	n/a	n/a	n/a
3543455	RECOG_TARGET	n/a	LTP229	ltpFR	16	6	-1	GARAGE	621	1	5	-1	n/a	n/a	n/a	n/a	n/a
3544183	RECOG_RESP	n/a	LTP229	ltpFR	16	6	-1	GARAGE	621	1	n/a	-1	n/a	n/a	n/a	n/a	n/a
3545082	RECOG_CONF	n/a	LTP229	ltpFR	16	6	-1	GARAGE	621	n/a	5	-1	n/a	n/a	n/a	n/a	n/a
3546700	RECOG_TARGET	n/a	LTP229	ltpFR	16	6	-1	CLAY	320	1	1	-1	n/a	n/a	n/a	n/a	n/a
3547331	RECOG_RESP	n/a	LTP229	ltpFR	16	6	-1	CLAY	320	1	n/a	-1	n/a	n/a	n/a	n/a	n/a
3548126	RECOG_CONF	n/a	LTP229	ltpFR	16	6	-1	CLAY	320	n/a	1	-1	n/a	n/a	n/a	n/a	n/a
3549645	RECOG_TARGET	n/a	LTP229	ltpFR	16	6	-1	BONE	148	1	3	-1	n/a	n/a	n/a	n/a	n/a
3550325	RECOG_RESP	n/a	LTP229	ltpFR	16	6	-1	BONE	148	1	n/a	-1	n/a	n/a	n/a	n/a	n/a
3551018	RECOG_CONF	n/a	LTP229	ltpFR	16	6	-1	BONE	148	n/a	3	-1	n/a	n/a	n/a	n/a	n/a
3552388	RECOG_TARGET	n/a	LTP229	ltpFR	16	6	1	TOWEL	1489	1	2	0	n/a	n/a	n/a	n/a	n/a
3553133	RECOG_RESP	n/a	LTP229	ltpFR	16	6	1	TOWEL	1489	1	n/a	0	n/a	n/a	n/a	n/a	n/a
3553872	RECOG_CONF	n/a	LTP229	ltpFR	16	6	1	TOWEL	1489	n/a	2	0	n/a	n/a	n/a	n/a	n/a
3555664	RECOG_TARGET	n/a	LTP229	ltpFR	16	6	1	OATS	968	1	4	0	n/a	n/a	n/a	n/a	n/a
3556254	RECOG_RESP	n/a	LTP229	ltpFR	16	6	1	OATS	968	1	n/a	0	n/a	n/a	n/a	n/a	n/a
3556975	RECOG_CONF	n/a	LTP229	ltpFR	16	6	1	OATS	968	n/a	4	0	n/a	n/a	n/a	n/a	n/a
3558695	RECOG_TARGET	n/a	LTP229	ltpFR	16	6	1	BARK	87	1	5	0	n/a	n/a	n/a	n/a	n/a
3559210	RECOG_RESP	n/a	LTP229	ltpFR	16	6	1	BARK	87	1	n/a	0	n/a	n/a	n/a	n/a	n/a
3559878	RECOG_CONF	n/a	LTP229	ltpFR	16	6	1	BARK	87	n/a	5	0	n/a	n/a	n/a	n/a	n/a
3561757	RECOG_TARGET	n/a	LTP229	ltpFR	16	6	-1	EMPEROR	529	0	1	-1	n/a	n/a	n/a	n/a	n/a
3562283	RECOG_RESP_VV	n/a	LTP229	ltpFR	16	6	-1	EMPEROR	529	1	n/a	-1	n/a	n/a	n/a	n/a	n/a
3563593	RECOG_RESP	n/a	LTP229	ltpFR	16	6	-1	EMPEROR	529	0	n/a	-1	n/a	n/a	n/a	n/a	n/a
3564653	RECOG_CONF	n/a	LTP229	ltpFR	16	6	-1	EMPEROR	529	n/a	1	-1	n/a	n/a	n/a	n/a	n/a
3566374	RECOG_TARGET	n/a	LTP229	ltpFR	16	6	0	CHEERLEADER	288	1	3	1	n/a	n/a	n/a	n/a	n/a
3567909	RECOG_RESP	n/a	LTP229	ltpFR	16	6	0	CHEERLEADER	288	1	n/a	1	n/a	n/a	n/a	n/a	n/a
3568456	RECOG_CONF	n/a	LTP229	ltpFR	16	6	0	CHEERLEADER	288	n/a	3	1	n/a	n/a	n/a	n/a	n/a
3575786	REC_START	n/a	LTP229	ltpFR	16	7	n/a	n/a	n/a	n/a	n/a	n/a	n/a	n/a	n/a	n/a	n/a
3575840	RECOG_TARGET	n/a	LTP229	ltpFR	16	7	0	BUGGY	188	1	1	1	n/a	n/a	n/a	n/a	n/a
3576370	RECOG_RESP	n/a	LTP229	ltpFR	16	7	0	BUGGY	188	1	n/a	1	n/a	n/a	n/a	n/a	n/a
3576963	RECOG_CONF	n/a	LTP229	ltpFR	16	7	0	BUGGY	188	n/a	1	1	n/a	n/a	n/a	n/a	n/a
3578553	RECOG_LURE	n/a	LTP229	ltpFR	16	7	n/a	KITTEN	780	0	4	n/a	n/a	n/a	n/a	n/a	n/a
3579332	RECOG_RESP	n/a	LTP229	ltpFR	16	7	n/a	KITTEN	780	0	n/a	n/a	n/a	n/a	n/a	n/a	n/a
3579960	RECOG_CONF	n/a	LTP229	ltpFR	16	7	n/a	KITTEN	780	n/a	4	n/a	n/a	n/a	n/a	n/a	n/a
3581561	RECOG_LURE	n/a	LTP229	ltpFR	16	7	n/a	COUCH	386	0	3	n/a	n/a	n/a	n/a	n/a	n/a
3582740	RECOG_RESP	n/a	LTP229	ltpFR	16	7	n/a	COUCH	386	0	n/a	n/a	n/a	n/a	n/a	n/a	n/a
3583394	RECOG_CONF	n/a	LTP229	ltpFR	16	7	n/a	COUCH	386	n/a	3	n/a	n/a	n/a	n/a	n/a	n/a
3584928	RECOG_TARGET	n/a	LTP229	ltpFR	16	7	1	DICE	461	1	2	0	n/a	n/a	n/a	n/a	n/a
3585616	RECOG_RESP	n/a	LTP229	ltpFR	16	7	1	DICE	461	1	n/a	0	n/a	n/a	n/a	n/a	n/a
3590526	RECOG_CONF	n/a	LTP229	ltpFR	16	7	1	DICE	461	n/a	2	0	n/a	n/a	n/a	n/a	n/a
3592256	RECOG_TARGET	n/a	LTP229	ltpFR	16	7	0	VOLLEYBALL	1576	1	3	1	n/a	n/a	n/a	n/a	n/a
3592974	RECOG_RESP	n/a	LTP229	ltpFR	16	7	0	VOLLEYBALL	1576	1	n/a	1	n/a	n/a	n/a	n/a	n/a
3593610	RECOG_CONF	n/a	LTP229	ltpFR	16	7	0	VOLLEYBALL	1576	n/a	3	1	n/a	n/a	n/a	n/a	n/a
3595318	RECOG_LURE	n/a	LTP229	ltpFR	16	7	n/a	FRANCE	601	0	4	n/a	n/a	n/a	n/a	n/a	n/a
3596136	RECOG_RESP	n/a	LTP229	ltpFR	16	7	n/a	FRANCE	601	0	n/a	n/a	n/a	n/a	n/a	n/a	n/a
3596813	RECOG_CONF	n/a	LTP229	ltpFR	16	7	n/a	FRANCE	601	n/a	4	n/a	n/a	n/a	n/a	n/a	n/a
3598361	RECOG_TARGET	n/a	LTP229	ltpFR	16	7	0	NET	946	1	2	0	n/a	n/a	n/a	n/a	n/a
3598993	RECOG_RESP	n/a	LTP229	ltpFR	16	7	0	NET	946	1	n/a	0	n/a	n/a	n/a	n/a	n/a
3599866	RECOG_CONF	n/a	LTP229	ltpFR	16	7	0	NET	946	n/a	2	0	n/a	n/a	n/a	n/a	n/a
3601570	RECOG_TARGET	n/a	LTP229	ltpFR	16	7	0	RAISIN	1163	1	3	0	n/a	n/a	n/a	n/a	n/a
3602226	RECOG_RESP	n/a	LTP229	ltpFR	16	7	0	RAISIN	1163	1	n/a	0	n/a	n/a	n/a	n/a	n/a
3603442	RECOG_CONF	n/a	LTP229	ltpFR	16	7	0	RAISIN	1163	n/a	3	0	n/a	n/a	n/a	n/a	n/a
3605003	RECOG_TARGET	n/a	LTP229	ltpFR	16	7	-1	BOARD	143	1	4	-1	n/a	n/a	n/a	n/a	n/a
3605750	RECOG_RESP	n/a	LTP229	ltpFR	16	7	-1	BOARD	143	1	n/a	-1	n/a	n/a	n/a	n/a	n/a
3606401	RECOG_CONF	n/a	LTP229	ltpFR	16	7	-1	BOARD	143	n/a	4	-1	n/a	n/a	n/a	n/a	n/a
3607981	RECOG_TARGET	n/a	LTP229	ltpFR	16	7	0	CHIPMUNK	304	1	5	1	n/a	n/a	n/a	n/a	n/a
3609011	RECOG_RESP	n/a	LTP229	ltpFR	16	7	0	CHIPMUNK	304	1	n/a	1	n/a	n/a	n/a	n/a	n/a
3609634	RECOG_CONF	n/a	LTP229	ltpFR	16	7	0	CHIPMUNK	304	n/a	5	1	n/a	n/a	n/a	n/a	n/a
3611261	RECOG_TARGET	n/a	LTP229	ltpFR	16	7	1	SHRIMP	1297	1	4	0	n/a	n/a	n/a	n/a	n/a
3611867	RECOG_RESP	n/a	LTP229	ltpFR	16	7	1	SHRIMP	1297	1	n/a	0	n/a	n/a	n/a	n/a	n/a
3612477	RECOG_CONF	n/a	LTP229	ltpFR	16	7	1	SHRIMP	1297	n/a	4	0	n/a	n/a	n/a	n/a	n/a
3613937	RECOG_LURE	n/a	LTP229	ltpFR	16	7	n/a	CASH	252	1	3	n/a	n/a	n/a	n/a	n/a	n/a
3614988	RECOG_RESP	n/a	LTP229	ltpFR	16	7	n/a	CASH	252	1	n/a	n/a	n/a	n/a	n/a	n/a	n/a
3615610	RECOG_CONF	n/a	LTP229	ltpFR	16	7	n/a	CASH	252	n/a	3	n/a	n/a	n/a	n/a	n/a	n/a
3617396	RECOG_TARGET	n/a	LTP229	ltpFR	16	7	-1	CABIN	211	0	1	-1	n/a	n/a	n/a	n/a	n/a
3618958	RECOG_RESP_VV	n/a	LTP229	ltpFR	16	7	-1	CABIN	211	1	n/a	-1	n/a	n/a	n/a	n/a	n/a
3622124	RECOG_RESP	n/a	LTP229	ltpFR	16	7	-1	CABIN	211	0	n/a	-1	n/a	n/a	n/a	n/a	n/a
3623747	RECOG_CONF	n/a	LTP229	ltpFR	16	7	-1	CABIN	211	n/a	1	-1	n/a	n/a	n/a	n/a	n/a
3625715	RECOG_TARGET	n/a	LTP229	ltpFR	16	7	-1	UTENSIL	1542	1	2	-1	n/a	n/a	n/a	n/a	n/a
3626934	RECOG_RESP	n/a	LTP229	ltpFR	16	7	-1	UTENSIL	1542	1	n/a	-1	n/a	n/a	n/a	n/a	n/a
3627519	RECOG_CONF	n/a	LTP229	ltpFR	16	7	-1	UTENSIL	1542	n/a	2	-1	n/a	n/a	n/a	n/a	n/a
3629061	RECOG_TARGET	n/a	LTP229	ltpFR	16	7	1	CANDIDATE	228	1	2	1	n/a	n/a	n/a	n/a	n/a
3632469	RECOG_RESP	n/a	LTP229	ltpFR	16	7	1	CANDIDATE	228	1	n/a	1	n/a	n/a	n/a	n/a	n/a
3633118	RECOG_CONF	n/a	LTP229	ltpFR	16	7	1	CANDIDATE	228	n/a	2	1	n/a	n/a	n/a	n/a	n/a
3634816	RECOG_TARGET	n/a	LTP229	ltpFR	16	7	1	VISITOR	1573	1	3	0	n/a	n/a	n/a	n/a	n/a
3635330	RECOG_RESP	n/a	LTP229	ltpFR	16	7	1	VISITOR	1573	1	n/a	0	n/a	n/a	n/a	n/a	n/a
3635930	RECOG_CONF	n/a	LTP229	ltpFR	16	7	1	VISITOR	1573	n/a	3	0	n/a	n/a	n/a	n/a	n/a
3637643	RECOG_TARGET	n/a	LTP229	ltpFR	16	7	0	MICROWAVE	892	1	4	1	n/a	n/a	n/a	n/a	n/a
3638262	RECOG_RESP	n/a	LTP229	ltpFR	16	7	0	MICROWAVE	892	1	n/a	1	n/a	n/a	n/a	n/a	n/a
3639077	RECOG_CONF	n/a	LTP229	ltpFR	16	7	0	MICROWAVE	892	n/a	4	1	n/a	n/a	n/a	n/a	n/a
3640888	RECOG_LURE	n/a	LTP229	ltpFR	16	7	n/a	CHEST	295	0	1	n/a	n/a	n/a	n/a	n/a	n/a
3641738	RECOG_RESP	n/a	LTP229	ltpFR	16	7	n/a	CHEST	295	0	n/a	n/a	n/a	n/a	n/a	n/a	n/a
3642354	RECOG_CONF	n/a	LTP229	ltpFR	16	7	n/a	CHEST	295	n/a	1	n/a	n/a	n/a	n/a	n/a	n/a
3644050	RECOG_LURE	n/a	LTP229	ltpFR	16	7	n/a	TAG	1429	0	2	n/a	n/a	n/a	n/a	n/a	n/a
3644697	RECOG_RESP	n/a	LTP229	ltpFR	16	7	n/a	TAG	1429	0	n/a	n/a	n/a	n/a	n/a	n/a	n/a
3645341	RECOG_CONF	n/a	LTP229	ltpFR	16	7	n/a	TAG	1429	n/a	2	n/a	n/a	n/a	n/a	n/a	n/a
