onset	duration	trial_type	sample	stim_file	subject	experiment	session	trial	task	item_name	item_num	recog_resp	recog_conf	resp	answer	test_x	test_y	test_z	color_r	color_g	color_b	case	font
395.078	n/a	SESS_START	197539	n/a	LTP280	ltpFR	10	n/a	n/a	n/a	n/a	0	3	n/a	n/a	0	0	0	n/a	n/a	n/a	n/a	n/a
412.054	n/a	START	206027	n/a	LTP280	ltpFR	10	n/a	n/a	n/a	n/a	n/a	n/a	n/a	n/a	n/a	n/a	n/a	n/a	n/a	n/a	n/a	n/a
412.104	n/a	PROB	206052	n/a	LTP280	ltpFR	10	n/a	n/a	n/a	n/a	n/a	n/a	n/a	15	5	6	4	n/a	n/a	n/a	n/a	n/a
413.728	n/a	PROB	206864	n/a	LTP280	ltpFR	10	n/a	n/a	n/a	n/a	n/a	n/a	n/a	16	9	1	7	n/a	n/a	n/a	n/a	n/a
415.15	n/a	PROB	207575	n/a	LTP280	ltpFR	10	n/a	n/a	n/a	n/a	n/a	n/a	n/a	13	4	4	5	n/a	n/a	n/a	n/a	n/a
416.954	n/a	PROB	208477	n/a	LTP280	ltpFR	10	n/a	n/a	n/a	n/a	n/a	n/a	n/a	9	1	2	6	n/a	n/a	n/a	n/a	n/a
418.262	n/a	PROB	209131	n/a	LTP280	ltpFR	10	n/a	n/a	n/a	n/a	n/a	n/a	n/a	174	8	6	3	n/a	n/a	n/a	n/a	n/a
420.22	n/a	PROB	210110	n/a	LTP280	ltpFR	10	n/a	n/a	n/a	n/a	n/a	n/a	n/a	25	9	6	9	n/a	n/a	n/a	n/a	n/a
422.262	n/a	PROB	211131	n/a	LTP280	ltpFR	10	n/a	n/a	n/a	n/a	n/a	n/a	n/a	17	7	6	4	n/a	n/a	n/a	n/a	n/a
423.934	n/a	PROB	211967	n/a	LTP280	ltpFR	10	n/a	n/a	n/a	n/a	n/a	n/a	n/a	10	1	6	3	n/a	n/a	n/a	n/a	n/a
425.204	n/a	PROB	212602	n/a	LTP280	ltpFR	10	n/a	n/a	n/a	n/a	n/a	n/a	n/a	15	8	1	6	n/a	n/a	n/a	n/a	n/a
426.71	n/a	PROB	213355	n/a	LTP280	ltpFR	10	n/a	n/a	n/a	n/a	n/a	n/a	n/a	19	3	9	7	n/a	n/a	n/a	n/a	n/a
428.55	n/a	PROB	214275	n/a	LTP280	ltpFR	10	n/a	n/a	n/a	n/a	n/a	n/a	n/a	19	3	7	9	n/a	n/a	n/a	n/a	n/a
429.756	n/a	PROB	214878	n/a	LTP280	ltpFR	10	n/a	n/a	n/a	n/a	n/a	n/a	n/a	18	8	9	1	n/a	n/a	n/a	n/a	n/a
431.042	n/a	STOP	215521	n/a	LTP280	ltpFR	10	n/a	n/a	n/a	n/a	n/a	n/a	n/a	n/a	n/a	n/a	n/a	n/a	n/a	n/a	n/a	n/a
448.728	n/a	WORD	224364	wordpools/wasnorm_wordpool_less_exclusions.txt	LTP280	ltpFR	10	1	0	DICTATOR	462	1	n/a	1	n/a	0	0	0	0.57763671875	0.412841796875	1	lower	amplitud.ttf
452.776	n/a	WORD	226388	wordpools/wasnorm_wordpool_less_exclusions.txt	LTP280	ltpFR	10	1	0	PARROT	1015	n/a	n/a	0	n/a	0	0	0	0.57763671875	0.412841796875	1	lower	amplitud.ttf
456.64	n/a	WORD	228320	wordpools/wasnorm_wordpool_less_exclusions.txt	LTP280	ltpFR	10	1	0	FIREPLACE	570	n/a	n/a	1	n/a	0	0	0	0.57763671875	0.412841796875	1	lower	amplitud.ttf
460.624	n/a	WORD	230312	wordpools/wasnorm_wordpool_less_exclusions.txt	LTP280	ltpFR	10	1	0	JACKET	747	n/a	n/a	1	n/a	0	0	0	0.57763671875	0.412841796875	1	lower	amplitud.ttf
464.454	n/a	WORD	232227	wordpools/wasnorm_wordpool_less_exclusions.txt	LTP280	ltpFR	10	1	0	BUTTERFLY	206	n/a	n/a	0	n/a	0	0	0	0.57763671875	0.412841796875	1	lower	amplitud.ttf
468.504	n/a	WORD	234252	wordpools/wasnorm_wordpool_less_exclusions.txt	LTP280	ltpFR	10	1	1	LEADER	807	n/a	n/a	1	n/a	0	0	0	0.422607421875	0.5869140625	0	upper	zerothre.ttf
472.686	n/a	WORD	236343	wordpools/wasnorm_wordpool_less_exclusions.txt	LTP280	ltpFR	10	1	1	QUAIL	1147	n/a	n/a	1	n/a	0	0	0	0.422607421875	0.5869140625	0	upper	zerothre.ttf
476.736	n/a	WORD	238368	wordpools/wasnorm_wordpool_less_exclusions.txt	LTP280	ltpFR	10	1	1	DRINK	498	n/a	n/a	0	n/a	0	0	0	0.422607421875	0.5869140625	0	upper	zerothre.ttf
480.75	n/a	WORD	240375	wordpools/wasnorm_wordpool_less_exclusions.txt	LTP280	ltpFR	10	1	1	HEAD	695	n/a	n/a	1	n/a	0	0	0	0.422607421875	0.5869140625	0	upper	zerothre.ttf
484.666	n/a	WORD	242333	wordpools/wasnorm_wordpool_less_exclusions.txt	LTP280	ltpFR	10	1	1	SQUID	1361	n/a	n/a	1	n/a	0	0	0	0.422607421875	0.5869140625	0	upper	zerothre.ttf
488.748	n/a	WORD	244374	wordpools/wasnorm_wordpool_less_exclusions.txt	LTP280	ltpFR	10	1	1	MERMAID	887	n/a	n/a	1	n/a	0	0	0	0.422607421875	0.5869140625	0	upper	zerothre.ttf
492.596	n/a	WORD	246298	wordpools/wasnorm_wordpool_less_exclusions.txt	LTP280	ltpFR	10	1	0	JUG	762	n/a	n/a	0	n/a	0	0	0	0.57763671875	0.412841796875	1	lower	amplitud.ttf
496.744	n/a	WORD	248372	wordpools/wasnorm_wordpool_less_exclusions.txt	LTP280	ltpFR	10	1	0	SCOTCH	1251	n/a	n/a	0	n/a	0	0	0	0.57763671875	0.412841796875	1	lower	amplitud.ttf
500.944	n/a	WORD	250472	wordpools/wasnorm_wordpool_less_exclusions.txt	LTP280	ltpFR	10	1	0	MONARCH	906	n/a	n/a	1	n/a	0	0	0	0.57763671875	0.412841796875	1	lower	amplitud.ttf
504.826	n/a	WORD	252413	wordpools/wasnorm_wordpool_less_exclusions.txt	LTP280	ltpFR	10	1	1	LACE	792	n/a	n/a	0	n/a	0	0	0	0.422607421875	0.5869140625	0	upper	zerothre.ttf
509.008	n/a	WORD	254504	wordpools/wasnorm_wordpool_less_exclusions.txt	LTP280	ltpFR	10	1	1	ANKLE	24	n/a	n/a	1	n/a	0	0	0	0.422607421875	0.5869140625	0	upper	zerothre.ttf
512.02	n/a	START	256010	n/a	LTP280	ltpFR	10	n/a	n/a	n/a	n/a	n/a	n/a	n/a	n/a	n/a	n/a	n/a	n/a	n/a	n/a	n/a	n/a
512.94	n/a	PROB	256470	n/a	LTP280	ltpFR	10	n/a	n/a	n/a	n/a	n/a	n/a	n/a	15	8	6	1	n/a	n/a	n/a	n/a	n/a
514.664	n/a	PROB	257332	n/a	LTP280	ltpFR	10	n/a	n/a	n/a	n/a	n/a	n/a	n/a	15	3	4	8	n/a	n/a	n/a	n/a	n/a
516.404	n/a	PROB	258202	n/a	LTP280	ltpFR	10	n/a	n/a	n/a	n/a	n/a	n/a	n/a	18	3	9	6	n/a	n/a	n/a	n/a	n/a
517.876	n/a	PROB	258938	n/a	LTP280	ltpFR	10	n/a	n/a	n/a	n/a	n/a	n/a	n/a	12	3	8	1	n/a	n/a	n/a	n/a	n/a
518.966	n/a	STOP	259483	n/a	LTP280	ltpFR	10	n/a	n/a	n/a	n/a	n/a	n/a	n/a	n/a	n/a	n/a	n/a	n/a	n/a	n/a	n/a	n/a
521.976	n/a	REC_START	260988	n/a	LTP280	ltpFR	10	1	n/a	n/a	n/a	n/a	n/a	n/a	n/a	0	0	0	n/a	n/a	n/a	n/a	n/a
522.366	n/a	REC_WORD	261183	wordpools/wasnorm_wordpool_less_exclusions.txt	LTP280	ltpFR	10	1	1	SQUID	1361	n/a	n/a	1	n/a	0	0	0	n/a	n/a	n/a	n/a	n/a
523.144	n/a	REC_WORD	261572	wordpools/wasnorm_wordpool_less_exclusions.txt	LTP280	ltpFR	10	1	0	JACKET	747	n/a	n/a	1	n/a	0	0	0	n/a	n/a	n/a	n/a	n/a
523.712	n/a	REC_WORD	261856	wordpools/wasnorm_wordpool_less_exclusions.txt	LTP280	ltpFR	10	1	1	MERMAID	887	n/a	n/a	1	n/a	0	0	0	n/a	n/a	n/a	n/a	n/a
526.366	n/a	REC_WORD	263183	wordpools/wasnorm_wordpool_less_exclusions.txt	LTP280	ltpFR	10	1	1	HEAD	695	n/a	n/a	1	n/a	0	0	0	n/a	n/a	n/a	n/a	n/a
526.924	n/a	REC_WORD	263462	wordpools/wasnorm_wordpool_less_exclusions.txt	LTP280	ltpFR	10	1	0	FIREPLACE	570	n/a	n/a	1	n/a	0	0	0	n/a	n/a	n/a	n/a	n/a
528.082	n/a	REC_WORD	264041	wordpools/wasnorm_wordpool_less_exclusions.txt	LTP280	ltpFR	10	1	0	MONARCH	906	n/a	n/a	1	n/a	0	0	0	n/a	n/a	n/a	n/a	n/a
530.658	n/a	REC_WORD	265329	wordpools/wasnorm_wordpool_less_exclusions.txt	LTP280	ltpFR	10	1	0	JUG	762	n/a	n/a	0	n/a	0	0	0	n/a	n/a	n/a	n/a	n/a
534.794	n/a	REC_WORD	267397	wordpools/wasnorm_wordpool_less_exclusions.txt	LTP280	ltpFR	10	1	0	DICTATOR	462	n/a	n/a	1	n/a	0	0	0	n/a	n/a	n/a	n/a	n/a
537.728	n/a	REC_WORD	268864	wordpools/wasnorm_wordpool_less_exclusions.txt	LTP280	ltpFR	10	1	1	QUAIL	1147	n/a	n/a	1	n/a	0	0	0	n/a	n/a	n/a	n/a	n/a
538.42	n/a	REC_WORD	269210	wordpools/wasnorm_wordpool_less_exclusions.txt	LTP280	ltpFR	10	1	0	PARROT	1015	n/a	n/a	0	n/a	0	0	0	n/a	n/a	n/a	n/a	n/a
551.578	n/a	REC_WORD	275789	wordpools/wasnorm_wordpool_less_exclusions.txt	LTP280	ltpFR	10	1	1	ANKLE	24	n/a	n/a	1	n/a	0	0	0	n/a	n/a	n/a	n/a	n/a
556.346	n/a	REC_WORD	278173	wordpools/wasnorm_wordpool_less_exclusions.txt	LTP280	ltpFR	10	1	0	SCOTCH	1251	n/a	n/a	0	n/a	0	0	0	n/a	n/a	n/a	n/a	n/a
558.274	n/a	REC_WORD	279137	wordpools/wasnorm_wordpool_less_exclusions.txt	LTP280	ltpFR	10	1	1	DRINK	498	n/a	n/a	0	n/a	0	0	0	n/a	n/a	n/a	n/a	n/a
603.654	n/a	START	301827	n/a	LTP280	ltpFR	10	n/a	n/a	n/a	n/a	n/a	n/a	n/a	n/a	n/a	n/a	n/a	n/a	n/a	n/a	n/a	n/a
605.158	n/a	PROB	302579	n/a	LTP280	ltpFR	10	n/a	n/a	n/a	n/a	n/a	n/a	n/a	20	2	4	6	n/a	n/a	n/a	n/a	n/a
606.748	n/a	PROB	303374	n/a	LTP280	ltpFR	10	n/a	n/a	n/a	n/a	n/a	n/a	n/a	19	8	2	9	n/a	n/a	n/a	n/a	n/a
607.936	n/a	PROB	303968	n/a	LTP280	ltpFR	10	n/a	n/a	n/a	n/a	n/a	n/a	n/a	6	1	3	2	n/a	n/a	n/a	n/a	n/a
609.04	n/a	PROB	304520	n/a	LTP280	ltpFR	10	n/a	n/a	n/a	n/a	n/a	n/a	n/a	17	2	9	6	n/a	n/a	n/a	n/a	n/a
610.516	n/a	STOP	305258	n/a	LTP280	ltpFR	10	n/a	n/a	n/a	n/a	n/a	n/a	n/a	n/a	n/a	n/a	n/a	n/a	n/a	n/a	n/a	n/a
612.488	n/a	WORD	306244	wordpools/wasnorm_wordpool_less_exclusions.txt	LTP280	ltpFR	10	2	0	TOILET	1475	n/a	n/a	1	n/a	0	0	0	0.57763671875	0.412841796875	1	lower	amplitud.ttf
615.5	n/a	START	307750	n/a	LTP280	ltpFR	10	n/a	n/a	n/a	n/a	n/a	n/a	n/a	n/a	n/a	n/a	n/a	n/a	n/a	n/a	n/a	n/a
616.386	n/a	PROB	308193	n/a	LTP280	ltpFR	10	n/a	n/a	n/a	n/a	n/a	n/a	n/a	14	5	5	4	n/a	n/a	n/a	n/a	n/a
617.522	n/a	PROB	308761	n/a	LTP280	ltpFR	10	n/a	n/a	n/a	n/a	n/a	n/a	n/a	16	1	8	7	n/a	n/a	n/a	n/a	n/a
619.046	n/a	PROB	309523	n/a	LTP280	ltpFR	10	n/a	n/a	n/a	n/a	n/a	n/a	n/a	10	3	2	5	n/a	n/a	n/a	n/a	n/a
620.25	n/a	PROB	310125	n/a	LTP280	ltpFR	10	n/a	n/a	n/a	n/a	n/a	n/a	n/a	114	5	5	4	n/a	n/a	n/a	n/a	n/a
621.788	n/a	PROB	310894	n/a	LTP280	ltpFR	10	n/a	n/a	n/a	n/a	n/a	n/a	n/a	5	1	3	1	n/a	n/a	n/a	n/a	n/a
622.62	n/a	STOP	311310	n/a	LTP280	ltpFR	10	n/a	n/a	n/a	n/a	n/a	n/a	n/a	n/a	n/a	n/a	n/a	n/a	n/a	n/a	n/a	n/a
624.35	n/a	WORD	312175	wordpools/wasnorm_wordpool_less_exclusions.txt	LTP280	ltpFR	10	2	0	FUDGE	611	n/a	n/a	0	n/a	0	0	0	0.57763671875	0.412841796875	1	lower	amplitud.ttf
627.362	n/a	START	313681	n/a	LTP280	ltpFR	10	n/a	n/a	n/a	n/a	n/a	n/a	n/a	n/a	n/a	n/a	n/a	n/a	n/a	n/a	n/a	n/a
628.466	n/a	PROB	314233	n/a	LTP280	ltpFR	10	n/a	n/a	n/a	n/a	n/a	n/a	n/a	10	7	1	2	n/a	n/a	n/a	n/a	n/a
629.602	n/a	PROB	314801	n/a	LTP280	ltpFR	10	n/a	n/a	n/a	n/a	n/a	n/a	n/a	14	2	5	7	n/a	n/a	n/a	n/a	n/a
631.392	n/a	PROB	315696	n/a	LTP280	ltpFR	10	n/a	n/a	n/a	n/a	n/a	n/a	n/a	16	6	6	4	n/a	n/a	n/a	n/a	n/a
632.714	n/a	PROB	316357	n/a	LTP280	ltpFR	10	n/a	n/a	n/a	n/a	n/a	n/a	n/a	16	3	8	5	n/a	n/a	n/a	n/a	n/a
634.406	n/a	STOP	317203	n/a	LTP280	ltpFR	10	n/a	n/a	n/a	n/a	n/a	n/a	n/a	n/a	n/a	n/a	n/a	n/a	n/a	n/a	n/a	n/a
636.244	n/a	WORD	318122	wordpools/wasnorm_wordpool_less_exclusions.txt	LTP280	ltpFR	10	2	0	PASTRY	1022	n/a	n/a	0	n/a	0	0	0	0.57763671875	0.412841796875	1	lower	amplitud.ttf
639.258	n/a	START	319629	n/a	LTP280	ltpFR	10	n/a	n/a	n/a	n/a	n/a	n/a	n/a	n/a	n/a	n/a	n/a	n/a	n/a	n/a	n/a	n/a
640.176	n/a	PROB	320088	n/a	LTP280	ltpFR	10	n/a	n/a	n/a	n/a	n/a	n/a	n/a	13	2	8	3	n/a	n/a	n/a	n/a	n/a
641.364	n/a	PROB	320682	n/a	LTP280	ltpFR	10	n/a	n/a	n/a	n/a	n/a	n/a	n/a	17	3	6	8	n/a	n/a	n/a	n/a	n/a
643.054	n/a	PROB	321527	n/a	LTP280	ltpFR	10	n/a	n/a	n/a	n/a	n/a	n/a	n/a	16	8	2	6	n/a	n/a	n/a	n/a	n/a
644.222	n/a	PROB	322111	n/a	LTP280	ltpFR	10	n/a	n/a	n/a	n/a	n/a	n/a	n/a	14	8	4	2	n/a	n/a	n/a	n/a	n/a
645.596	n/a	PROB	322798	n/a	LTP280	ltpFR	10	n/a	n/a	n/a	n/a	n/a	n/a	n/a	14	6	6	2	n/a	n/a	n/a	n/a	n/a
646.646	n/a	STOP	323323	n/a	LTP280	ltpFR	10	n/a	n/a	n/a	n/a	n/a	n/a	n/a	n/a	n/a	n/a	n/a	n/a	n/a	n/a	n/a	n/a
648.376	n/a	WORD	324188	wordpools/wasnorm_wordpool_less_exclusions.txt	LTP280	ltpFR	10	2	0	CUSTARD	429	n/a	n/a	0	n/a	0	0	0	0.57763671875	0.412841796875	1	lower	amplitud.ttf
651.388	n/a	START	325694	n/a	LTP280	ltpFR	10	n/a	n/a	n/a	n/a	n/a	n/a	n/a	n/a	n/a	n/a	n/a	n/a	n/a	n/a	n/a	n/a
652.456	n/a	PROB	326228	n/a	LTP280	ltpFR	10	n/a	n/a	n/a	n/a	n/a	n/a	n/a	18	9	4	5	n/a	n/a	n/a	n/a	n/a
654.264	n/a	PROB	327132	n/a	LTP280	ltpFR	10	n/a	n/a	n/a	n/a	n/a	n/a	n/a	14	6	6	2	n/a	n/a	n/a	n/a	n/a
655.318	n/a	PROB	327659	n/a	LTP280	ltpFR	10	n/a	n/a	n/a	n/a	n/a	n/a	n/a	13	8	4	1	n/a	n/a	n/a	n/a	n/a
656.606	n/a	PROB	328303	n/a	LTP280	ltpFR	10	n/a	n/a	n/a	n/a	n/a	n/a	n/a	11	7	2	2	n/a	n/a	n/a	n/a	n/a
659.388	n/a	STOP	329694	n/a	LTP280	ltpFR	10	n/a	n/a	n/a	n/a	n/a	n/a	n/a	n/a	n/a	n/a	n/a	n/a	n/a	n/a	n/a	n/a
660.554	n/a	WORD	330277	wordpools/wasnorm_wordpool_less_exclusions.txt	LTP280	ltpFR	10	2	0	CROSS	413	n/a	n/a	1	n/a	0	0	0	0.57763671875	0.412841796875	1	lower	amplitud.ttf
663.566	n/a	START	331783	n/a	LTP280	ltpFR	10	n/a	n/a	n/a	n/a	n/a	n/a	n/a	n/a	n/a	n/a	n/a	n/a	n/a	n/a	n/a	n/a
664.586	n/a	PROB	332293	n/a	LTP280	ltpFR	10	n/a	n/a	n/a	n/a	n/a	n/a	n/a	11	2	8	1	n/a	n/a	n/a	n/a	n/a
665.74	n/a	PROB	332870	n/a	LTP280	ltpFR	10	n/a	n/a	n/a	n/a	n/a	n/a	n/a	16	4	5	7	n/a	n/a	n/a	n/a	n/a
667.446	n/a	PROB	333723	n/a	LTP280	ltpFR	10	n/a	n/a	n/a	n/a	n/a	n/a	n/a	16	5	7	4	n/a	n/a	n/a	n/a	n/a
668.702	n/a	PROB	334351	n/a	LTP280	ltpFR	10	n/a	n/a	n/a	n/a	n/a	n/a	n/a	21	9	8	6	n/a	n/a	n/a	n/a	n/a
670.03	n/a	STOP	335015	n/a	LTP280	ltpFR	10	n/a	n/a	n/a	n/a	n/a	n/a	n/a	n/a	n/a	n/a	n/a	n/a	n/a	n/a	n/a	n/a
672.634	n/a	WORD	336317	wordpools/wasnorm_wordpool_less_exclusions.txt	LTP280	ltpFR	10	2	0	TOOTHBRUSH	1482	n/a	n/a	0	n/a	0	0	0	0.57763671875	0.412841796875	1	lower	amplitud.ttf
675.646	n/a	START	337823	n/a	LTP280	ltpFR	10	n/a	n/a	n/a	n/a	n/a	n/a	n/a	n/a	n/a	n/a	n/a	n/a	n/a	n/a	n/a	n/a
676.598	n/a	PROB	338299	n/a	LTP280	ltpFR	10	n/a	n/a	n/a	n/a	n/a	n/a	n/a	13	5	5	3	n/a	n/a	n/a	n/a	n/a
677.72	n/a	PROB	338860	n/a	LTP280	ltpFR	10	n/a	n/a	n/a	n/a	n/a	n/a	n/a	18	7	4	7	n/a	n/a	n/a	n/a	n/a
679.474	n/a	PROB	339737	n/a	LTP280	ltpFR	10	n/a	n/a	n/a	n/a	n/a	n/a	n/a	11	3	6	5	n/a	n/a	n/a	n/a	n/a
681.148	n/a	PROB	340574	n/a	LTP280	ltpFR	10	n/a	n/a	n/a	n/a	n/a	n/a	n/a	13	5	5	3	n/a	n/a	n/a	n/a	n/a
682.246	n/a	STOP	341123	n/a	LTP280	ltpFR	10	n/a	n/a	n/a	n/a	n/a	n/a	n/a	n/a	n/a	n/a	n/a	n/a	n/a	n/a	n/a	n/a
684.53	n/a	WORD	342265	wordpools/wasnorm_wordpool_less_exclusions.txt	LTP280	ltpFR	10	2	0	UMBRELLA	1534	n/a	n/a	1	n/a	0	0	0	0.57763671875	0.412841796875	1	lower	amplitud.ttf
687.542	n/a	START	343771	n/a	LTP280	ltpFR	10	n/a	n/a	n/a	n/a	n/a	n/a	n/a	n/a	n/a	n/a	n/a	n/a	n/a	n/a	n/a	n/a
688.712	n/a	PROB	344356	n/a	LTP280	ltpFR	10	n/a	n/a	n/a	n/a	n/a	n/a	n/a	12	8	3	1	n/a	n/a	n/a	n/a	n/a
689.882	n/a	PROB	344941	n/a	LTP280	ltpFR	10	n/a	n/a	n/a	n/a	n/a	n/a	n/a	13	5	1	7	n/a	n/a	n/a	n/a	n/a
691.088	n/a	PROB	345544	n/a	LTP280	ltpFR	10	n/a	n/a	n/a	n/a	n/a	n/a	n/a	9	3	4	5	n/a	n/a	n/a	n/a	n/a
692.912	n/a	PROB	346456	n/a	LTP280	ltpFR	10	n/a	n/a	n/a	n/a	n/a	n/a	n/a	12	2	4	6	n/a	n/a	n/a	n/a	n/a
694.776	n/a	STOP	347388	n/a	LTP280	ltpFR	10	n/a	n/a	n/a	n/a	n/a	n/a	n/a	n/a	n/a	n/a	n/a	n/a	n/a	n/a	n/a	n/a
696.558	n/a	WORD	348279	wordpools/wasnorm_wordpool_less_exclusions.txt	LTP280	ltpFR	10	2	0	PUDDING	1139	n/a	n/a	0	n/a	0	0	0	0.57763671875	0.412841796875	1	lower	amplitud.ttf
699.57	n/a	START	349785	n/a	LTP280	ltpFR	10	n/a	n/a	n/a	n/a	n/a	n/a	n/a	n/a	n/a	n/a	n/a	n/a	n/a	n/a	n/a	n/a
700.588	n/a	PROB	350294	n/a	LTP280	ltpFR	10	n/a	n/a	n/a	n/a	n/a	n/a	n/a	16	7	7	2	n/a	n/a	n/a	n/a	n/a
702.028	n/a	PROB	351014	n/a	LTP280	ltpFR	10	n/a	n/a	n/a	n/a	n/a	n/a	n/a	15	5	6	4	n/a	n/a	n/a	n/a	n/a
703.25	n/a	PROB	351625	n/a	LTP280	ltpFR	10	n/a	n/a	n/a	n/a	n/a	n/a	n/a	21	8	9	3	n/a	n/a	n/a	n/a	n/a
704.674	n/a	PROB	352337	n/a	LTP280	ltpFR	10	n/a	n/a	n/a	n/a	n/a	n/a	n/a	9	1	7	1	n/a	n/a	n/a	n/a	n/a
705.676	n/a	PROB	352838	n/a	LTP280	ltpFR	10	n/a	n/a	n/a	n/a	n/a	n/a	n/a	25	6	9	9	n/a	n/a	n/a	n/a	n/a
707.232	n/a	STOP	353616	n/a	LTP280	ltpFR	10	n/a	n/a	n/a	n/a	n/a	n/a	n/a	n/a	n/a	n/a	n/a	n/a	n/a	n/a	n/a	n/a
708.604	n/a	WORD	354302	wordpools/wasnorm_wordpool_less_exclusions.txt	LTP280	ltpFR	10	2	0	DRAWING	494	n/a	n/a	0	n/a	0	0	0	0.57763671875	0.412841796875	1	lower	amplitud.ttf
711.616	n/a	START	355808	n/a	LTP280	ltpFR	10	n/a	n/a	n/a	n/a	n/a	n/a	n/a	n/a	n/a	n/a	n/a	n/a	n/a	n/a	n/a	n/a
712.67	n/a	PROB	356335	n/a	LTP280	ltpFR	10	n/a	n/a	n/a	n/a	n/a	n/a	n/a	16	6	9	1	n/a	n/a	n/a	n/a	n/a
714.51	n/a	PROB	357255	n/a	LTP280	ltpFR	10	n/a	n/a	n/a	n/a	n/a	n/a	n/a	21	3	9	8	n/a	n/a	n/a	n/a	n/a
715.982	n/a	PROB	357991	n/a	LTP280	ltpFR	10	n/a	n/a	n/a	n/a	n/a	n/a	n/a	9	2	6	1	n/a	n/a	n/a	n/a	n/a
717.304	n/a	PROB	358652	n/a	LTP280	ltpFR	10	n/a	n/a	n/a	n/a	n/a	n/a	n/a	19	8	7	4	n/a	n/a	n/a	n/a	n/a
718.936	n/a	STOP	359468	n/a	LTP280	ltpFR	10	n/a	n/a	n/a	n/a	n/a	n/a	n/a	n/a	n/a	n/a	n/a	n/a	n/a	n/a	n/a	n/a
720.65	n/a	WORD	360325	wordpools/wasnorm_wordpool_less_exclusions.txt	LTP280	ltpFR	10	2	0	ALBUM	14	n/a	n/a	0	n/a	0	0	0	0.57763671875	0.412841796875	1	lower	amplitud.ttf
723.662	n/a	START	361831	n/a	LTP280	ltpFR	10	n/a	n/a	n/a	n/a	n/a	n/a	n/a	n/a	n/a	n/a	n/a	n/a	n/a	n/a	n/a	n/a
724.816	n/a	PROB	362408	n/a	LTP280	ltpFR	10	n/a	n/a	n/a	n/a	n/a	n/a	n/a	15	7	4	4	n/a	n/a	n/a	n/a	n/a
727.494	n/a	PROB	363747	n/a	LTP280	ltpFR	10	n/a	n/a	n/a	n/a	n/a	n/a	n/a	14	5	2	7	n/a	n/a	n/a	n/a	n/a
731.662	n/a	STOP	365831	n/a	LTP280	ltpFR	10	n/a	n/a	n/a	n/a	n/a	n/a	n/a	n/a	n/a	n/a	n/a	n/a	n/a	n/a	n/a	n/a
732.814	n/a	WORD	366407	wordpools/wasnorm_wordpool_less_exclusions.txt	LTP280	ltpFR	10	2	0	BIRD	129	n/a	n/a	0	n/a	0	0	0	0.57763671875	0.412841796875	1	lower	amplitud.ttf
735.826	n/a	START	367913	n/a	LTP280	ltpFR	10	n/a	n/a	n/a	n/a	n/a	n/a	n/a	n/a	n/a	n/a	n/a	n/a	n/a	n/a	n/a	n/a
737.03	n/a	PROB	368515	n/a	LTP280	ltpFR	10	n/a	n/a	n/a	n/a	n/a	n/a	n/a	8	1	1	6	n/a	n/a	n/a	n/a	n/a
738.25	n/a	PROB	369125	n/a	LTP280	ltpFR	10	n/a	n/a	n/a	n/a	n/a	n/a	n/a	11	1	2	8	n/a	n/a	n/a	n/a	n/a
739.504	n/a	PROB	369752	n/a	LTP280	ltpFR	10	n/a	n/a	n/a	n/a	n/a	n/a	n/a	13	1	9	2	n/a	n/a	n/a	n/a	n/a
741.364	n/a	PROB	370682	n/a	LTP280	ltpFR	10	n/a	n/a	n/a	n/a	n/a	n/a	n/a	14	7	3	4	n/a	n/a	n/a	n/a	n/a
742.826	n/a	STOP	371413	n/a	LTP280	ltpFR	10	n/a	n/a	n/a	n/a	n/a	n/a	n/a	n/a	n/a	n/a	n/a	n/a	n/a	n/a	n/a	n/a
745.044	n/a	WORD	372522	wordpools/wasnorm_wordpool_less_exclusions.txt	LTP280	ltpFR	10	2	0	TOMATO	1476	n/a	n/a	0	n/a	0	0	0	0.57763671875	0.412841796875	1	lower	amplitud.ttf
748.056	n/a	START	374028	n/a	LTP280	ltpFR	10	n/a	n/a	n/a	n/a	n/a	n/a	n/a	n/a	n/a	n/a	n/a	n/a	n/a	n/a	n/a	n/a
748.992	n/a	PROB	374496	n/a	LTP280	ltpFR	10	n/a	n/a	n/a	n/a	n/a	n/a	n/a	17	2	8	7	n/a	n/a	n/a	n/a	n/a
750.614	n/a	PROB	375307	n/a	LTP280	ltpFR	10	n/a	n/a	n/a	n/a	n/a	n/a	n/a	15	6	3	6	n/a	n/a	n/a	n/a	n/a
752.12	n/a	PROB	376060	n/a	LTP280	ltpFR	10	n/a	n/a	n/a	n/a	n/a	n/a	n/a	15	7	2	6	n/a	n/a	n/a	n/a	n/a
754.026	n/a	PROB	377013	n/a	LTP280	ltpFR	10	n/a	n/a	n/a	n/a	n/a	n/a	n/a	13	1	9	2	n/a	n/a	n/a	n/a	n/a
755.316	n/a	STOP	377658	n/a	LTP280	ltpFR	10	n/a	n/a	n/a	n/a	n/a	n/a	n/a	n/a	n/a	n/a	n/a	n/a	n/a	n/a	n/a	n/a
757.072	n/a	WORD	378536	wordpools/wasnorm_wordpool_less_exclusions.txt	LTP280	ltpFR	10	2	0	SWIMMER	1420	n/a	n/a	1	n/a	0	0	0	0.57763671875	0.412841796875	1	lower	amplitud.ttf
760.086	n/a	START	380043	n/a	LTP280	ltpFR	10	n/a	n/a	n/a	n/a	n/a	n/a	n/a	n/a	n/a	n/a	n/a	n/a	n/a	n/a	n/a	n/a
761.206	n/a	PROB	380603	n/a	LTP280	ltpFR	10	n/a	n/a	n/a	n/a	n/a	n/a	n/a	15	5	3	7	n/a	n/a	n/a	n/a	n/a
764.05	n/a	PROB	382025	n/a	LTP280	ltpFR	10	n/a	n/a	n/a	n/a	n/a	n/a	n/a	14	9	4	1	n/a	n/a	n/a	n/a	n/a
765.288	n/a	PROB	382644	n/a	LTP280	ltpFR	10	n/a	n/a	n/a	n/a	n/a	n/a	n/a	15	5	9	1	n/a	n/a	n/a	n/a	n/a
766.516	n/a	STOP	383258	n/a	LTP280	ltpFR	10	n/a	n/a	n/a	n/a	n/a	n/a	n/a	n/a	n/a	n/a	n/a	n/a	n/a	n/a	n/a	n/a
769.102	n/a	WORD	384551	wordpools/wasnorm_wordpool_less_exclusions.txt	LTP280	ltpFR	10	2	0	SURF	1412	n/a	n/a	1	n/a	0	0	0	0.57763671875	0.412841796875	1	lower	amplitud.ttf
772.114	n/a	START	386057	n/a	LTP280	ltpFR	10	n/a	n/a	n/a	n/a	n/a	n/a	n/a	n/a	n/a	n/a	n/a	n/a	n/a	n/a	n/a	n/a
773.302	n/a	PROB	386651	n/a	LTP280	ltpFR	10	n/a	n/a	n/a	n/a	n/a	n/a	n/a	5	2	2	1	n/a	n/a	n/a	n/a	n/a
774.34	n/a	PROB	387170	n/a	LTP280	ltpFR	10	n/a	n/a	n/a	n/a	n/a	n/a	n/a	4	1	2	1	n/a	n/a	n/a	n/a	n/a
775.426	n/a	PROB	387713	n/a	LTP280	ltpFR	10	n/a	n/a	n/a	n/a	n/a	n/a	n/a	20	9	6	5	n/a	n/a	n/a	n/a	n/a
777.048	n/a	PROB	388524	n/a	LTP280	ltpFR	10	n/a	n/a	n/a	n/a	n/a	n/a	n/a	14	7	1	6	n/a	n/a	n/a	n/a	n/a
780.116	n/a	STOP	390058	n/a	LTP280	ltpFR	10	n/a	n/a	n/a	n/a	n/a	n/a	n/a	n/a	n/a	n/a	n/a	n/a	n/a	n/a	n/a	n/a
781.198	n/a	WORD	390599	wordpools/wasnorm_wordpool_less_exclusions.txt	LTP280	ltpFR	10	2	0	ELK	526	n/a	n/a	1	n/a	0	0	0	0.57763671875	0.412841796875	1	lower	amplitud.ttf
784.21	n/a	START	392105	n/a	LTP280	ltpFR	10	n/a	n/a	n/a	n/a	n/a	n/a	n/a	n/a	n/a	n/a	n/a	n/a	n/a	n/a	n/a	n/a
785.366	n/a	PROB	392683	n/a	LTP280	ltpFR	10	n/a	n/a	n/a	n/a	n/a	n/a	n/a	3	1	1	1	n/a	n/a	n/a	n/a	n/a
786.32	n/a	PROB	393160	n/a	LTP280	ltpFR	10	n/a	n/a	n/a	n/a	n/a	n/a	n/a	22	9	5	7	n/a	n/a	n/a	n/a	n/a
788.192	n/a	PROB	394096	n/a	LTP280	ltpFR	10	n/a	n/a	n/a	n/a	n/a	n/a	n/a	6	2	3	1	n/a	n/a	n/a	n/a	n/a
789.246	n/a	PROB	394623	n/a	LTP280	ltpFR	10	n/a	n/a	n/a	n/a	n/a	n/a	n/a	15	5	4	6	n/a	n/a	n/a	n/a	n/a
792.21	n/a	STOP	396105	n/a	LTP280	ltpFR	10	n/a	n/a	n/a	n/a	n/a	n/a	n/a	n/a	n/a	n/a	n/a	n/a	n/a	n/a	n/a	n/a
793.444	n/a	WORD	396722	wordpools/wasnorm_wordpool_less_exclusions.txt	LTP280	ltpFR	10	2	0	TOOTHPASTE	1483	n/a	n/a	1	n/a	0	0	0	0.57763671875	0.412841796875	1	lower	amplitud.ttf
796.456	n/a	START	398228	n/a	LTP280	ltpFR	10	n/a	n/a	n/a	n/a	n/a	n/a	n/a	n/a	n/a	n/a	n/a	n/a	n/a	n/a	n/a	n/a
797.396	n/a	PROB	398698	n/a	LTP280	ltpFR	10	n/a	n/a	n/a	n/a	n/a	n/a	n/a	11	8	1	2	n/a	n/a	n/a	n/a	n/a
798.532	n/a	PROB	399266	n/a	LTP280	ltpFR	10	n/a	n/a	n/a	n/a	n/a	n/a	n/a	10	5	4	1	n/a	n/a	n/a	n/a	n/a
799.82	n/a	PROB	399910	n/a	LTP280	ltpFR	10	n/a	n/a	n/a	n/a	n/a	n/a	n/a	17	2	6	9	n/a	n/a	n/a	n/a	n/a
801.442	n/a	PROB	400721	n/a	LTP280	ltpFR	10	n/a	n/a	n/a	n/a	n/a	n/a	n/a	18	9	8	1	n/a	n/a	n/a	n/a	n/a
802.78	n/a	PROB	401390	n/a	LTP280	ltpFR	10	n/a	n/a	n/a	n/a	n/a	n/a	n/a	16	6	1	9	n/a	n/a	n/a	n/a	n/a
804.126	n/a	STOP	402063	n/a	LTP280	ltpFR	10	n/a	n/a	n/a	n/a	n/a	n/a	n/a	n/a	n/a	n/a	n/a	n/a	n/a	n/a	n/a	n/a
806.28	n/a	REC_START	403140	n/a	LTP280	ltpFR	10	2	n/a	n/a	n/a	n/a	n/a	n/a	n/a	0	0	0	n/a	n/a	n/a	n/a	n/a
806.56	n/a	REC_WORD	403280	wordpools/wasnorm_wordpool_less_exclusions.txt	LTP280	ltpFR	10	2	0	ELK	526	n/a	n/a	1	n/a	0	0	0	n/a	n/a	n/a	n/a	n/a
807.08	n/a	REC_WORD	403540	wordpools/wasnorm_wordpool_less_exclusions.txt	LTP280	ltpFR	10	2	0	TOMATO	1476	n/a	n/a	0	n/a	0	0	0	n/a	n/a	n/a	n/a	n/a
807.87	n/a	REC_WORD	403935	wordpools/wasnorm_wordpool_less_exclusions.txt	LTP280	ltpFR	10	2	0	TOOTHPASTE	1483	n/a	n/a	1	n/a	0	0	0	n/a	n/a	n/a	n/a	n/a
808.72	n/a	REC_WORD	404360	wordpools/wasnorm_wordpool_less_exclusions.txt	LTP280	ltpFR	10	2	0	CROSS	413	n/a	n/a	1	n/a	0	0	0	n/a	n/a	n/a	n/a	n/a
809.962	n/a	REC_WORD	404981	wordpools/wasnorm_wordpool_less_exclusions.txt	LTP280	ltpFR	10	2	0	PUDDING	1139	n/a	n/a	0	n/a	0	0	0	n/a	n/a	n/a	n/a	n/a
810.422	n/a	REC_WORD	405211	wordpools/wasnorm_wordpool_less_exclusions.txt	LTP280	ltpFR	10	2	0	FUDGE	611	n/a	n/a	0	n/a	0	0	0	n/a	n/a	n/a	n/a	n/a
811.228	n/a	REC_WORD	405614	wordpools/wasnorm_wordpool_less_exclusions.txt	LTP280	ltpFR	10	2	0	PASTRY	1022	n/a	n/a	0	n/a	0	0	0	n/a	n/a	n/a	n/a	n/a
832.09	n/a	REC_WORD	416045	wordpools/wasnorm_wordpool_less_exclusions.txt	LTP280	ltpFR	10	2	0	DRAWING	494	n/a	n/a	0	n/a	0	0	0	n/a	n/a	n/a	n/a	n/a
890.9	n/a	WORD	445450	wordpools/wasnorm_wordpool_less_exclusions.txt	LTP280	ltpFR	10	3	1	SANDWICH	1232	n/a	n/a	0	n/a	0	0	0	0.422607421875	0.5869140625	0	upper	zerothre.ttf
894.85	n/a	WORD	447425	wordpools/wasnorm_wordpool_less_exclusions.txt	LTP280	ltpFR	10	3	1	RICE	1190	n/a	n/a	0	n/a	0	0	0	0.422607421875	0.5869140625	0	upper	zerothre.ttf
898.832	n/a	WORD	449416	wordpools/wasnorm_wordpool_less_exclusions.txt	LTP280	ltpFR	10	3	1	TROMBONE	1508	n/a	n/a	1	n/a	0	0	0	0.422607421875	0.5869140625	0	upper	zerothre.ttf
902.88	n/a	WORD	451440	wordpools/wasnorm_wordpool_less_exclusions.txt	LTP280	ltpFR	10	3	1	TRUMPET	1513	n/a	n/a	0	n/a	0	0	0	0.422607421875	0.5869140625	0	upper	zerothre.ttf
906.978	n/a	WORD	453489	wordpools/wasnorm_wordpool_less_exclusions.txt	LTP280	ltpFR	10	3	1	TOASTER	1472	n/a	n/a	0	n/a	0	0	0	0.422607421875	0.5869140625	0	upper	zerothre.ttf
910.862	n/a	WORD	455431	wordpools/wasnorm_wordpool_less_exclusions.txt	LTP280	ltpFR	10	3	1	FLIPPER	580	n/a	n/a	0	n/a	0	0	0	0.422607421875	0.5869140625	0	upper	zerothre.ttf
915.01	n/a	WORD	457505	wordpools/wasnorm_wordpool_less_exclusions.txt	LTP280	ltpFR	10	3	1	PATIO	1025	n/a	n/a	0	n/a	0	0	0	0.422607421875	0.5869140625	0	upper	zerothre.ttf
919.026	n/a	WORD	459513	wordpools/wasnorm_wordpool_less_exclusions.txt	LTP280	ltpFR	10	3	1	MOSS	918	n/a	n/a	1	n/a	0	0	0	0.422607421875	0.5869140625	0	upper	zerothre.ttf
923.158	n/a	WORD	461579	wordpools/wasnorm_wordpool_less_exclusions.txt	LTP280	ltpFR	10	3	1	MICROWAVE	892	n/a	n/a	0	n/a	0	0	0	0.422607421875	0.5869140625	0	upper	zerothre.ttf
927.088	n/a	WORD	463544	wordpools/wasnorm_wordpool_less_exclusions.txt	LTP280	ltpFR	10	3	1	MOWER	928	n/a	n/a	0	n/a	0	0	0	0.422607421875	0.5869140625	0	upper	zerothre.ttf
930.954	n/a	WORD	465477	wordpools/wasnorm_wordpool_less_exclusions.txt	LTP280	ltpFR	10	3	1	TREAT	1501	n/a	n/a	0	n/a	0	0	0	0.422607421875	0.5869140625	0	upper	zerothre.ttf
935.104	n/a	WORD	467552	wordpools/wasnorm_wordpool_less_exclusions.txt	LTP280	ltpFR	10	3	1	MAMMAL	861	n/a	n/a	1	n/a	0	0	0	0.422607421875	0.5869140625	0	upper	zerothre.ttf
939.0	n/a	WORD	469500	wordpools/wasnorm_wordpool_less_exclusions.txt	LTP280	ltpFR	10	3	1	CLAM	315	n/a	n/a	1	n/a	0	0	0	0.422607421875	0.5869140625	0	upper	zerothre.ttf
943.168	n/a	WORD	471584	wordpools/wasnorm_wordpool_less_exclusions.txt	LTP280	ltpFR	10	3	1	GORILLA	650	n/a	n/a	1	n/a	0	0	0	0.422607421875	0.5869140625	0	upper	zerothre.ttf
947.266	n/a	WORD	473633	wordpools/wasnorm_wordpool_less_exclusions.txt	LTP280	ltpFR	10	3	1	GREASE	660	n/a	n/a	0	n/a	0	0	0	0.422607421875	0.5869140625	0	upper	zerothre.ttf
951.198	n/a	WORD	475599	wordpools/wasnorm_wordpool_less_exclusions.txt	LTP280	ltpFR	10	3	1	DIRECTOR	471	n/a	n/a	1	n/a	0	0	0	0.422607421875	0.5869140625	0	upper	zerothre.ttf
957.088	n/a	REC_START	478544	n/a	LTP280	ltpFR	10	3	n/a	n/a	n/a	n/a	n/a	n/a	n/a	0	0	0	n/a	n/a	n/a	n/a	n/a
957.346	n/a	REC_WORD	478673	wordpools/wasnorm_wordpool_less_exclusions.txt	LTP280	ltpFR	10	3	1	DIRECTOR	471	n/a	n/a	1	n/a	0	0	0	n/a	n/a	n/a	n/a	n/a
958.166	n/a	REC_WORD	479083	wordpools/wasnorm_wordpool_less_exclusions.txt	LTP280	ltpFR	10	3	1	MICROWAVE	892	n/a	n/a	0	n/a	0	0	0	n/a	n/a	n/a	n/a	n/a
959.16	n/a	REC_WORD	479580	wordpools/wasnorm_wordpool_less_exclusions.txt	LTP280	ltpFR	10	3	1	MOWER	928	n/a	n/a	0	n/a	0	0	0	n/a	n/a	n/a	n/a	n/a
960.184	n/a	REC_WORD	480092	wordpools/wasnorm_wordpool_less_exclusions.txt	LTP280	ltpFR	10	3	1	TREAT	1501	n/a	n/a	0	n/a	0	0	0	n/a	n/a	n/a	n/a	n/a
960.812	n/a	REC_WORD	480406	wordpools/wasnorm_wordpool_less_exclusions.txt	LTP280	ltpFR	10	3	1	MAMMAL	861	n/a	n/a	1	n/a	0	0	0	n/a	n/a	n/a	n/a	n/a
961.414	n/a	REC_WORD	480707	wordpools/wasnorm_wordpool_less_exclusions.txt	LTP280	ltpFR	10	3	1	GORILLA	650	n/a	n/a	1	n/a	0	0	0	n/a	n/a	n/a	n/a	n/a
962.126	n/a	REC_WORD	481063	wordpools/wasnorm_wordpool_less_exclusions.txt	LTP280	ltpFR	10	3	1	CLAM	315	n/a	n/a	1	n/a	0	0	0	n/a	n/a	n/a	n/a	n/a
963.354	n/a	REC_WORD	481677	wordpools/wasnorm_wordpool_less_exclusions.txt	LTP280	ltpFR	10	3	1	TROMBONE	1508	n/a	n/a	1	n/a	0	0	0	n/a	n/a	n/a	n/a	n/a
964.46	n/a	REC_WORD	482230	wordpools/wasnorm_wordpool_less_exclusions.txt	LTP280	ltpFR	10	3	1	TRUMPET	1513	n/a	n/a	0	n/a	0	0	0	n/a	n/a	n/a	n/a	n/a
967.544	n/a	REC_WORD	483772	wordpools/wasnorm_wordpool_less_exclusions.txt	LTP280	ltpFR	10	3	1	RICE	1190	n/a	n/a	0	n/a	0	0	0	n/a	n/a	n/a	n/a	n/a
968.386	n/a	REC_WORD	484193	wordpools/wasnorm_wordpool_less_exclusions.txt	LTP280	ltpFR	10	3	1	SANDWICH	1232	n/a	n/a	0	n/a	0	0	0	n/a	n/a	n/a	n/a	n/a
971.26	n/a	REC_WORD	485630	wordpools/wasnorm_wordpool_less_exclusions.txt	LTP280	ltpFR	10	3	1	TOASTER	1472	n/a	n/a	0	n/a	0	0	0	n/a	n/a	n/a	n/a	n/a
1043.184	n/a	WORD	521592	wordpools/wasnorm_wordpool_less_exclusions.txt	LTP280	ltpFR	10	4	0	ATHLETE	52	n/a	n/a	1	n/a	0	0	0	0.57763671875	0.412841796875	1	lower	amplitud.ttf
1047.114	n/a	WORD	523557	wordpools/wasnorm_wordpool_less_exclusions.txt	LTP280	ltpFR	10	4	0	SATURN	1236	n/a	n/a	1	n/a	0	0	0	0.57763671875	0.412841796875	1	lower	amplitud.ttf
1051.214	n/a	WORD	525607	wordpools/wasnorm_wordpool_less_exclusions.txt	LTP280	ltpFR	10	4	1	WINDSHIELD	1612	n/a	n/a	0	n/a	0	0	0	0.422607421875	0.5869140625	0	upper	zerothre.ttf
1055.296	n/a	WORD	527648	wordpools/wasnorm_wordpool_less_exclusions.txt	LTP280	ltpFR	10	4	1	CREATURE	403	n/a	n/a	1	n/a	0	0	0	0.422607421875	0.5869140625	0	upper	zerothre.ttf
1059.16	n/a	WORD	529580	wordpools/wasnorm_wordpool_less_exclusions.txt	LTP280	ltpFR	10	4	1	ALLIGATOR	16	n/a	n/a	1	n/a	0	0	0	0.422607421875	0.5869140625	0	upper	zerothre.ttf
1063.16	n/a	WORD	531580	wordpools/wasnorm_wordpool_less_exclusions.txt	LTP280	ltpFR	10	4	1	BANDANNA	80	n/a	n/a	0	n/a	0	0	0	0.422607421875	0.5869140625	0	upper	zerothre.ttf
1067.074	n/a	WORD	533537	wordpools/wasnorm_wordpool_less_exclusions.txt	LTP280	ltpFR	10	4	0	GOO	648	n/a	n/a	0	n/a	0	0	0	0.57763671875	0.412841796875	1	lower	amplitud.ttf
1070.956	n/a	WORD	535478	wordpools/wasnorm_wordpool_less_exclusions.txt	LTP280	ltpFR	10	4	0	PADDLE	1000	n/a	n/a	0	n/a	0	0	0	0.57763671875	0.412841796875	1	lower	amplitud.ttf
1074.97	n/a	WORD	537485	wordpools/wasnorm_wordpool_less_exclusions.txt	LTP280	ltpFR	10	4	0	PELICAN	1039	n/a	n/a	1	n/a	0	0	0	0.57763671875	0.412841796875	1	lower	amplitud.ttf
1079.17	n/a	WORD	539585	wordpools/wasnorm_wordpool_less_exclusions.txt	LTP280	ltpFR	10	4	0	PAINTING	1005	n/a	n/a	1	n/a	0	0	0	0.57763671875	0.412841796875	1	lower	amplitud.ttf
1083.12	n/a	WORD	541560	wordpools/wasnorm_wordpool_less_exclusions.txt	LTP280	ltpFR	10	4	1	BRUSH	182	n/a	n/a	0	n/a	0	0	0	0.422607421875	0.5869140625	0	upper	zerothre.ttf
1086.966	n/a	WORD	543483	wordpools/wasnorm_wordpool_less_exclusions.txt	LTP280	ltpFR	10	4	1	SCARECROW	1245	n/a	n/a	0	n/a	0	0	0	0.422607421875	0.5869140625	0	upper	zerothre.ttf
1090.848	n/a	WORD	545424	wordpools/wasnorm_wordpool_less_exclusions.txt	LTP280	ltpFR	10	4	1	COB	334	n/a	n/a	1	n/a	0	0	0	0.422607421875	0.5869140625	0	upper	zerothre.ttf
1095.048	n/a	WORD	547524	wordpools/wasnorm_wordpool_less_exclusions.txt	LTP280	ltpFR	10	4	1	WART	1590	n/a	n/a	0	n/a	0	0	0	0.422607421875	0.5869140625	0	upper	zerothre.ttf
1098.946	n/a	WORD	549473	wordpools/wasnorm_wordpool_less_exclusions.txt	LTP280	ltpFR	10	4	0	APPLICATION	34	n/a	n/a	0	n/a	0	0	0	0.57763671875	0.412841796875	1	lower	amplitud.ttf
1102.962	n/a	WORD	551481	wordpools/wasnorm_wordpool_less_exclusions.txt	LTP280	ltpFR	10	4	0	PAINTER	1004	n/a	n/a	1	n/a	0	0	0	0.57763671875	0.412841796875	1	lower	amplitud.ttf
1105.974	n/a	START	552987	n/a	LTP280	ltpFR	10	n/a	n/a	n/a	n/a	n/a	n/a	n/a	n/a	n/a	n/a	n/a	n/a	n/a	n/a	n/a	n/a
1107.11	n/a	PROB	553555	n/a	LTP280	ltpFR	10	n/a	n/a	n/a	n/a	n/a	n/a	n/a	13	6	3	4	n/a	n/a	n/a	n/a	n/a
1109.268	n/a	PROB	554634	n/a	LTP280	ltpFR	10	n/a	n/a	n/a	n/a	n/a	n/a	n/a	10	4	4	2	n/a	n/a	n/a	n/a	n/a
1110.474	n/a	PROB	555237	n/a	LTP280	ltpFR	10	n/a	n/a	n/a	n/a	n/a	n/a	n/a	10	3	4	3	n/a	n/a	n/a	n/a	n/a
1112.112	n/a	PROB	556056	n/a	LTP280	ltpFR	10	n/a	n/a	n/a	n/a	n/a	n/a	n/a	17	1	9	9	n/a	n/a	n/a	n/a	n/a
1113.518	n/a	STOP	556759	n/a	LTP280	ltpFR	10	n/a	n/a	n/a	n/a	n/a	n/a	n/a	n/a	n/a	n/a	n/a	n/a	n/a	n/a	n/a	n/a
1115.844	n/a	REC_START	557922	n/a	LTP280	ltpFR	10	4	n/a	n/a	n/a	n/a	n/a	n/a	n/a	0	0	0	n/a	n/a	n/a	n/a	n/a
1116.096	n/a	REC_WORD	558048	wordpools/wasnorm_wordpool_less_exclusions.txt	LTP280	ltpFR	10	4	0	ATHLETE	52	n/a	n/a	1	n/a	0	0	0	n/a	n/a	n/a	n/a	n/a
1116.648	n/a	REC_WORD	558324	wordpools/wasnorm_wordpool_less_exclusions.txt	LTP280	ltpFR	10	4	0	SATURN	1236	n/a	n/a	1	n/a	0	0	0	n/a	n/a	n/a	n/a	n/a
1117.346	n/a	REC_WORD	558673	wordpools/wasnorm_wordpool_less_exclusions.txt	LTP280	ltpFR	10	4	1	WINDSHIELD	1612	n/a	n/a	0	n/a	0	0	0	n/a	n/a	n/a	n/a	n/a
1118.976	n/a	REC_WORD	559488	wordpools/wasnorm_wordpool_less_exclusions.txt	LTP280	ltpFR	10	4	0	GOO	648	n/a	n/a	0	n/a	0	0	0	n/a	n/a	n/a	n/a	n/a
1127.724	n/a	REC_WORD	563862	wordpools/wasnorm_wordpool_less_exclusions.txt	LTP280	ltpFR	10	4	0	PELICAN	1039	n/a	n/a	1	n/a	0	0	0	n/a	n/a	n/a	n/a	n/a
1135.804	n/a	REC_WORD	567902	wordpools/wasnorm_wordpool_less_exclusions.txt	LTP280	ltpFR	10	4	1	SCARECROW	1245	n/a	n/a	0	n/a	0	0	0	n/a	n/a	n/a	n/a	n/a
1137.286	n/a	REC_WORD	568643	wordpools/wasnorm_wordpool_less_exclusions.txt	LTP280	ltpFR	10	4	1	COB	334	n/a	n/a	1	n/a	0	0	0	n/a	n/a	n/a	n/a	n/a
1164.118	n/a	REC_WORD	582059	wordpools/wasnorm_wordpool_less_exclusions.txt	LTP280	ltpFR	10	4	0	PADDLE	1000	n/a	n/a	0	n/a	0	0	0	n/a	n/a	n/a	n/a	n/a
1200.016	n/a	WORD	600008	wordpools/wasnorm_wordpool_less_exclusions.txt	LTP280	ltpFR	10	5	1	HEART	697	n/a	n/a	1	n/a	0	0	0	0.422607421875	0.5869140625	0	upper	zerothre.ttf
1203.88	n/a	WORD	601940	wordpools/wasnorm_wordpool_less_exclusions.txt	LTP280	ltpFR	10	5	1	CASHIER	254	n/a	n/a	1	n/a	0	0	0	0.422607421875	0.5869140625	0	upper	zerothre.ttf
1207.728	n/a	WORD	603864	wordpools/wasnorm_wordpool_less_exclusions.txt	LTP280	ltpFR	10	5	1	BATHTUB	100	n/a	n/a	0	n/a	0	0	0	0.422607421875	0.5869140625	0	upper	zerothre.ttf
1211.912	n/a	WORD	605956	wordpools/wasnorm_wordpool_less_exclusions.txt	LTP280	ltpFR	10	5	1	APPENDAGE	32	n/a	n/a	1	n/a	0	0	0	0.422607421875	0.5869140625	0	upper	zerothre.ttf
1216.128	n/a	WORD	608064	wordpools/wasnorm_wordpool_less_exclusions.txt	LTP280	ltpFR	10	5	1	MOSQUITO	917	n/a	n/a	1	n/a	0	0	0	0.422607421875	0.5869140625	0	upper	zerothre.ttf
1220.142	n/a	WORD	610071	wordpools/wasnorm_wordpool_less_exclusions.txt	LTP280	ltpFR	10	5	1	BUG	187	n/a	n/a	1	n/a	0	0	0	0.422607421875	0.5869140625	0	upper	zerothre.ttf
1224.04	n/a	WORD	612020	wordpools/wasnorm_wordpool_less_exclusions.txt	LTP280	ltpFR	10	5	1	LASER	801	n/a	n/a	0	n/a	0	0	0	0.422607421875	0.5869140625	0	upper	zerothre.ttf
1227.938	n/a	WORD	613969	wordpools/wasnorm_wordpool_less_exclusions.txt	LTP280	ltpFR	10	5	1	BASEBALL	93	n/a	n/a	0	n/a	0	0	0	0.422607421875	0.5869140625	0	upper	zerothre.ttf
1231.888	n/a	WORD	615944	wordpools/wasnorm_wordpool_less_exclusions.txt	LTP280	ltpFR	10	5	1	DICE	461	n/a	n/a	0	n/a	0	0	0	0.422607421875	0.5869140625	0	upper	zerothre.ttf
1235.886	n/a	WORD	617943	wordpools/wasnorm_wordpool_less_exclusions.txt	LTP280	ltpFR	10	5	1	LEG	809	n/a	n/a	1	n/a	0	0	0	0.422607421875	0.5869140625	0	upper	zerothre.ttf
1240.068	n/a	WORD	620034	wordpools/wasnorm_wordpool_less_exclusions.txt	LTP280	ltpFR	10	5	1	PICTURE	1061	n/a	n/a	0	n/a	0	0	0	0.422607421875	0.5869140625	0	upper	zerothre.ttf
1244.252	n/a	WORD	622126	wordpools/wasnorm_wordpool_less_exclusions.txt	LTP280	ltpFR	10	5	1	DRILL	497	n/a	n/a	0	n/a	0	0	0	0.422607421875	0.5869140625	0	upper	zerothre.ttf
1248.334	n/a	WORD	624167	wordpools/wasnorm_wordpool_less_exclusions.txt	LTP280	ltpFR	10	5	1	CAMEL	223	n/a	n/a	1	n/a	0	0	0	0.422607421875	0.5869140625	0	upper	zerothre.ttf
1252.35	n/a	WORD	626175	wordpools/wasnorm_wordpool_less_exclusions.txt	LTP280	ltpFR	10	5	1	EWE	542	n/a	n/a	1	n/a	0	0	0	0.422607421875	0.5869140625	0	upper	zerothre.ttf
1256.316	n/a	WORD	628158	wordpools/wasnorm_wordpool_less_exclusions.txt	LTP280	ltpFR	10	5	1	CREEK	404	n/a	n/a	0	n/a	0	0	0	0.422607421875	0.5869140625	0	upper	zerothre.ttf
1260.348	n/a	WORD	630174	wordpools/wasnorm_wordpool_less_exclusions.txt	LTP280	ltpFR	10	5	1	MANAGER	863	n/a	n/a	1	n/a	0	0	0	0.422607421875	0.5869140625	0	upper	zerothre.ttf
1263.358	n/a	START	631679	n/a	LTP280	ltpFR	10	n/a	n/a	n/a	n/a	n/a	n/a	n/a	n/a	n/a	n/a	n/a	n/a	n/a	n/a	n/a	n/a
1264.396	n/a	PROB	632198	n/a	LTP280	ltpFR	10	n/a	n/a	n/a	n/a	n/a	n/a	n/a	15	6	4	5	n/a	n/a	n/a	n/a	n/a
1265.682	n/a	PROB	632841	n/a	LTP280	ltpFR	10	n/a	n/a	n/a	n/a	n/a	n/a	n/a	16	7	8	1	n/a	n/a	n/a	n/a	n/a
1267.004	n/a	PROB	633502	n/a	LTP280	ltpFR	10	n/a	n/a	n/a	n/a	n/a	n/a	n/a	15	8	1	6	n/a	n/a	n/a	n/a	n/a
1268.192	n/a	PROB	634096	n/a	LTP280	ltpFR	10	n/a	n/a	n/a	n/a	n/a	n/a	n/a	123	2	9	1	n/a	n/a	n/a	n/a	n/a
1269.4	n/a	PROB	634700	n/a	LTP280	ltpFR	10	n/a	n/a	n/a	n/a	n/a	n/a	n/a	15	5	8	2	n/a	n/a	n/a	n/a	n/a
1270.754	n/a	PROB	635377	n/a	LTP280	ltpFR	10	n/a	n/a	n/a	n/a	n/a	n/a	n/a	10	3	2	3	n/a	n/a	n/a	n/a	n/a
1272.024	n/a	PROB	636012	n/a	LTP280	ltpFR	10	n/a	n/a	n/a	n/a	n/a	n/a	n/a	19	8	3	8	n/a	n/a	n/a	n/a	n/a
1274.1	n/a	PROB	637050	n/a	LTP280	ltpFR	10	n/a	n/a	n/a	n/a	n/a	n/a	n/a	15	4	2	7	n/a	n/a	n/a	n/a	n/a
1275.338	n/a	PROB	637669	n/a	LTP280	ltpFR	10	n/a	n/a	n/a	n/a	n/a	n/a	n/a	14	4	4	6	n/a	n/a	n/a	n/a	n/a
1276.944	n/a	PROB	638472	n/a	LTP280	ltpFR	10	n/a	n/a	n/a	n/a	n/a	n/a	n/a	19	9	7	3	n/a	n/a	n/a	n/a	n/a
1278.304	n/a	STOP	639152	n/a	LTP280	ltpFR	10	n/a	n/a	n/a	n/a	n/a	n/a	n/a	n/a	n/a	n/a	n/a	n/a	n/a	n/a	n/a	n/a
1281.226	n/a	REC_START	640613	n/a	LTP280	ltpFR	10	5	n/a	n/a	n/a	n/a	n/a	n/a	n/a	0	0	0	n/a	n/a	n/a	n/a	n/a
1281.446	n/a	REC_WORD	640723	wordpools/wasnorm_wordpool_less_exclusions.txt	LTP280	ltpFR	10	5	1	HEART	697	n/a	n/a	1	n/a	0	0	0	n/a	n/a	n/a	n/a	n/a
1281.858	n/a	REC_WORD	640929	wordpools/wasnorm_wordpool_less_exclusions.txt	LTP280	ltpFR	10	5	1	CASHIER	254	n/a	n/a	1	n/a	0	0	0	n/a	n/a	n/a	n/a	n/a
1282.512	n/a	REC_WORD	641256	wordpools/wasnorm_wordpool_less_exclusions.txt	LTP280	ltpFR	10	5	n/a	BATHROOM	99	n/a	n/a	n/a	n/a	0	0	0	n/a	n/a	n/a	n/a	n/a
1283.068	n/a	REC_WORD	641534	wordpools/wasnorm_wordpool_less_exclusions.txt	LTP280	ltpFR	10	5	1	APPENDAGE	32	n/a	n/a	1	n/a	0	0	0	n/a	n/a	n/a	n/a	n/a
1284.338	n/a	REC_WORD	642169	wordpools/wasnorm_wordpool_less_exclusions.txt	LTP280	ltpFR	10	5	1	BUG	187	n/a	n/a	1	n/a	0	0	0	n/a	n/a	n/a	n/a	n/a
1284.798	n/a	REC_WORD	642399	wordpools/wasnorm_wordpool_less_exclusions.txt	LTP280	ltpFR	10	5	1	MOSQUITO	917	n/a	n/a	1	n/a	0	0	0	n/a	n/a	n/a	n/a	n/a
1285.996	n/a	REC_WORD	642998	wordpools/wasnorm_wordpool_less_exclusions.txt	LTP280	ltpFR	10	5	0	ELK	526	n/a	n/a	1	n/a	0	0	0	n/a	n/a	n/a	n/a	n/a
1287.24	n/a	REC_WORD_VV	643620	wordpools/wasnorm_wordpool_less_exclusions.txt	LTP280	ltpFR	10	5	n/a	<>	-1	n/a	n/a	n/a	n/a	0	0	0	n/a	n/a	n/a	n/a	n/a
1288.224	n/a	REC_WORD	644112	wordpools/wasnorm_wordpool_less_exclusions.txt	LTP280	ltpFR	10	5	1	EWE	542	n/a	n/a	1	n/a	0	0	0	n/a	n/a	n/a	n/a	n/a
1302.042	n/a	REC_WORD	651021	wordpools/wasnorm_wordpool_less_exclusions.txt	LTP280	ltpFR	10	5	1	MANAGER	863	n/a	n/a	1	n/a	0	0	0	n/a	n/a	n/a	n/a	n/a
1306.542	n/a	REC_WORD	653271	wordpools/wasnorm_wordpool_less_exclusions.txt	LTP280	ltpFR	10	5	1	PICTURE	1061	n/a	n/a	0	n/a	0	0	0	n/a	n/a	n/a	n/a	n/a
1360.396	n/a	START	680198	n/a	LTP280	ltpFR	10	n/a	n/a	n/a	n/a	n/a	n/a	n/a	n/a	n/a	n/a	n/a	n/a	n/a	n/a	n/a	n/a
1361.9	n/a	PROB	680950	n/a	LTP280	ltpFR	10	n/a	n/a	n/a	n/a	n/a	n/a	n/a	16	7	5	4	n/a	n/a	n/a	n/a	n/a
1363.91	n/a	PROB	681955	n/a	LTP280	ltpFR	10	n/a	n/a	n/a	n/a	n/a	n/a	n/a	18	4	5	9	n/a	n/a	n/a	n/a	n/a
1365.262	n/a	PROB	682631	n/a	LTP280	ltpFR	10	n/a	n/a	n/a	n/a	n/a	n/a	n/a	2	2	2	9	n/a	n/a	n/a	n/a	n/a
1366.92	n/a	PROB	683460	n/a	LTP280	ltpFR	10	n/a	n/a	n/a	n/a	n/a	n/a	n/a	12	2	6	4	n/a	n/a	n/a	n/a	n/a
1368.51	n/a	PROB	684255	n/a	LTP280	ltpFR	10	n/a	n/a	n/a	n/a	n/a	n/a	n/a	22	7	8	7	n/a	n/a	n/a	n/a	n/a
1370.014	n/a	PROB	685007	n/a	LTP280	ltpFR	10	n/a	n/a	n/a	n/a	n/a	n/a	n/a	18	8	2	8	n/a	n/a	n/a	n/a	n/a
1371.102	n/a	PROB	685551	n/a	LTP280	ltpFR	10	n/a	n/a	n/a	n/a	n/a	n/a	n/a	16	8	3	5	n/a	n/a	n/a	n/a	n/a
1372.44	n/a	PROB	686220	n/a	LTP280	ltpFR	10	n/a	n/a	n/a	n/a	n/a	n/a	n/a	123	2	2	9	n/a	n/a	n/a	n/a	n/a
1374.046	n/a	PROB	687023	n/a	LTP280	ltpFR	10	n/a	n/a	n/a	n/a	n/a	n/a	n/a	19	2	8	9	n/a	n/a	n/a	n/a	n/a
1375.868	n/a	STOP	687934	n/a	LTP280	ltpFR	10	n/a	n/a	n/a	n/a	n/a	n/a	n/a	n/a	n/a	n/a	n/a	n/a	n/a	n/a	n/a	n/a
1377.36	n/a	WORD	688680	wordpools/wasnorm_wordpool_less_exclusions.txt	LTP280	ltpFR	10	6	0	LILY	821	n/a	n/a	0	n/a	0	0	0	0.57763671875	0.412841796875	1	lower	amplitud.ttf
1380.372	n/a	START	690186	n/a	LTP280	ltpFR	10	n/a	n/a	n/a	n/a	n/a	n/a	n/a	n/a	n/a	n/a	n/a	n/a	n/a	n/a	n/a	n/a
1381.51	n/a	PROB	690755	n/a	LTP280	ltpFR	10	n/a	n/a	n/a	n/a	n/a	n/a	n/a	12	2	1	9	n/a	n/a	n/a	n/a	n/a
1382.948	n/a	PROB	691474	n/a	LTP280	ltpFR	10	n/a	n/a	n/a	n/a	n/a	n/a	n/a	17	4	6	7	n/a	n/a	n/a	n/a	n/a
1384.07	n/a	PROB	692035	n/a	LTP280	ltpFR	10	n/a	n/a	n/a	n/a	n/a	n/a	n/a	11	4	3	4	n/a	n/a	n/a	n/a	n/a
1385.81	n/a	PROB	692905	n/a	LTP280	ltpFR	10	n/a	n/a	n/a	n/a	n/a	n/a	n/a	18	5	9	4	n/a	n/a	n/a	n/a	n/a
1387.232	n/a	PROB	693616	n/a	LTP280	ltpFR	10	n/a	n/a	n/a	n/a	n/a	n/a	n/a	9	3	5	1	n/a	n/a	n/a	n/a	n/a
1388.286	n/a	PROB	694143	n/a	LTP280	ltpFR	10	n/a	n/a	n/a	n/a	n/a	n/a	n/a	9	4	2	3	n/a	n/a	n/a	n/a	n/a
1389.79	n/a	PROB	694895	n/a	LTP280	ltpFR	10	n/a	n/a	n/a	n/a	n/a	n/a	n/a	14	4	1	7	n/a	n/a	n/a	n/a	n/a
1391.348	n/a	PROB	695674	n/a	LTP280	ltpFR	10	n/a	n/a	n/a	n/a	n/a	n/a	n/a	17	7	8	2	n/a	n/a	n/a	n/a	n/a
1392.802	n/a	PROB	696401	n/a	LTP280	ltpFR	10	n/a	n/a	n/a	n/a	n/a	n/a	n/a	18	9	8	1	n/a	n/a	n/a	n/a	n/a
1394.158	n/a	PROB	697079	n/a	LTP280	ltpFR	10	n/a	n/a	n/a	n/a	n/a	n/a	n/a	13	1	7	5	n/a	n/a	n/a	n/a	n/a
1395.374	n/a	STOP	697687	n/a	LTP280	ltpFR	10	n/a	n/a	n/a	n/a	n/a	n/a	n/a	n/a	n/a	n/a	n/a	n/a	n/a	n/a	n/a	n/a
1397.454	n/a	WORD	698727	wordpools/wasnorm_wordpool_less_exclusions.txt	LTP280	ltpFR	10	6	0	DAISY	435	n/a	n/a	0	n/a	0	0	0	0.57763671875	0.412841796875	1	lower	amplitud.ttf
1400.466	n/a	START	700233	n/a	LTP280	ltpFR	10	n/a	n/a	n/a	n/a	n/a	n/a	n/a	n/a	n/a	n/a	n/a	n/a	n/a	n/a	n/a	n/a
1401.636	n/a	PROB	700818	n/a	LTP280	ltpFR	10	n/a	n/a	n/a	n/a	n/a	n/a	n/a	14	6	1	7	n/a	n/a	n/a	n/a	n/a
1403.076	n/a	PROB	701538	n/a	LTP280	ltpFR	10	n/a	n/a	n/a	n/a	n/a	n/a	n/a	16	4	5	7	n/a	n/a	n/a	n/a	n/a
1404.264	n/a	PROB	702132	n/a	LTP280	ltpFR	10	n/a	n/a	n/a	n/a	n/a	n/a	n/a	21	8	5	9	n/a	n/a	n/a	n/a	n/a
1405.952	n/a	PROB	702976	n/a	LTP280	ltpFR	10	n/a	n/a	n/a	n/a	n/a	n/a	n/a	12	6	4	2	n/a	n/a	n/a	n/a	n/a
1407.158	n/a	PROB	703579	n/a	LTP280	ltpFR	10	n/a	n/a	n/a	n/a	n/a	n/a	n/a	21	9	3	9	n/a	n/a	n/a	n/a	n/a
1408.714	n/a	PROB	704357	n/a	LTP280	ltpFR	10	n/a	n/a	n/a	n/a	n/a	n/a	n/a	22	5	3	4	n/a	n/a	n/a	n/a	n/a
1410.354	n/a	PROB	705177	n/a	LTP280	ltpFR	10	n/a	n/a	n/a	n/a	n/a	n/a	n/a	18	9	1	8	n/a	n/a	n/a	n/a	n/a
1411.706	n/a	PROB	705853	n/a	LTP280	ltpFR	10	n/a	n/a	n/a	n/a	n/a	n/a	n/a	14	2	8	4	n/a	n/a	n/a	n/a	n/a
1412.812	n/a	PROB	706406	n/a	LTP280	ltpFR	10	n/a	n/a	n/a	n/a	n/a	n/a	n/a	12	5	2	5	n/a	n/a	n/a	n/a	n/a
1414.134	n/a	PROB	707067	n/a	LTP280	ltpFR	10	n/a	n/a	n/a	n/a	n/a	n/a	n/a	3	1	1	1	n/a	n/a	n/a	n/a	n/a
1415.132	n/a	STOP	707566	n/a	LTP280	ltpFR	10	n/a	n/a	n/a	n/a	n/a	n/a	n/a	n/a	n/a	n/a	n/a	n/a	n/a	n/a	n/a	n/a
1417.63	n/a	WORD	708815	wordpools/wasnorm_wordpool_less_exclusions.txt	LTP280	ltpFR	10	6	0	PIGMENT	1066	n/a	n/a	0	n/a	0	0	0	0.57763671875	0.412841796875	1	lower	amplitud.ttf
1420.644	n/a	START	710322	n/a	LTP280	ltpFR	10	n/a	n/a	n/a	n/a	n/a	n/a	n/a	n/a	n/a	n/a	n/a	n/a	n/a	n/a	n/a	n/a
1421.78	n/a	PROB	710890	n/a	LTP280	ltpFR	10	n/a	n/a	n/a	n/a	n/a	n/a	n/a	16	6	6	4	n/a	n/a	n/a	n/a	n/a
1423.27	n/a	PROB	711635	n/a	LTP280	ltpFR	10	n/a	n/a	n/a	n/a	n/a	n/a	n/a	6	3	1	2	n/a	n/a	n/a	n/a	n/a
1424.456	n/a	PROB	712228	n/a	LTP280	ltpFR	10	n/a	n/a	n/a	n/a	n/a	n/a	n/a	2	5	1	6	n/a	n/a	n/a	n/a	n/a
1425.712	n/a	PROB	712856	n/a	LTP280	ltpFR	10	n/a	n/a	n/a	n/a	n/a	n/a	n/a	16	6	6	4	n/a	n/a	n/a	n/a	n/a
1427.2	n/a	PROB	713600	n/a	LTP280	ltpFR	10	n/a	n/a	n/a	n/a	n/a	n/a	n/a	9	2	5	1	n/a	n/a	n/a	n/a	n/a
1428.506	n/a	PROB	714253	n/a	LTP280	ltpFR	10	n/a	n/a	n/a	n/a	n/a	n/a	n/a	22	9	5	7	n/a	n/a	n/a	n/a	n/a
1430.678	n/a	PROB	715339	n/a	LTP280	ltpFR	10	n/a	n/a	n/a	n/a	n/a	n/a	n/a	13	1	4	8	n/a	n/a	n/a	n/a	n/a
1432.1	n/a	PROB	716050	n/a	LTP280	ltpFR	10	n/a	n/a	n/a	n/a	n/a	n/a	n/a	12	4	2	5	n/a	n/a	n/a	n/a	n/a
1434.126	n/a	PROB	717063	n/a	LTP280	ltpFR	10	n/a	n/a	n/a	n/a	n/a	n/a	n/a	20	9	7	4	n/a	n/a	n/a	n/a	n/a
1435.83	n/a	STOP	717915	n/a	LTP280	ltpFR	10	n/a	n/a	n/a	n/a	n/a	n/a	n/a	n/a	n/a	n/a	n/a	n/a	n/a	n/a	n/a	n/a
1437.606	n/a	WORD	718803	wordpools/wasnorm_wordpool_less_exclusions.txt	LTP280	ltpFR	10	6	0	STAMP	1370	n/a	n/a	0	n/a	0	0	0	0.57763671875	0.412841796875	1	lower	amplitud.ttf
1440.62	n/a	START	720310	n/a	LTP280	ltpFR	10	n/a	n/a	n/a	n/a	n/a	n/a	n/a	n/a	n/a	n/a	n/a	n/a	n/a	n/a	n/a	n/a
1441.54	n/a	PROB	720770	n/a	LTP280	ltpFR	10	n/a	n/a	n/a	n/a	n/a	n/a	n/a	12	6	4	2	n/a	n/a	n/a	n/a	n/a
1442.86	n/a	PROB	721430	n/a	LTP280	ltpFR	10	n/a	n/a	n/a	n/a	n/a	n/a	n/a	7	4	1	2	n/a	n/a	n/a	n/a	n/a
1444.232	n/a	PROB	722116	n/a	LTP280	ltpFR	10	n/a	n/a	n/a	n/a	n/a	n/a	n/a	13	2	4	7	n/a	n/a	n/a	n/a	n/a
1445.836	n/a	PROB	722918	n/a	LTP280	ltpFR	10	n/a	n/a	n/a	n/a	n/a	n/a	n/a	11	2	1	8	n/a	n/a	n/a	n/a	n/a
1447.044	n/a	PROB	723522	n/a	LTP280	ltpFR	10	n/a	n/a	n/a	n/a	n/a	n/a	n/a	17	1	8	8	n/a	n/a	n/a	n/a	n/a
1448.348	n/a	PROB	724174	n/a	LTP280	ltpFR	10	n/a	n/a	n/a	n/a	n/a	n/a	n/a	12	8	2	2	n/a	n/a	n/a	n/a	n/a
1449.468	n/a	PROB	724734	n/a	LTP280	ltpFR	10	n/a	n/a	n/a	n/a	n/a	n/a	n/a	14	4	2	8	n/a	n/a	n/a	n/a	n/a
1451.862	n/a	PROB	725931	n/a	LTP280	ltpFR	10	n/a	n/a	n/a	n/a	n/a	n/a	n/a	18	8	9	1	n/a	n/a	n/a	n/a	n/a
1453.082	n/a	PROB	726541	n/a	LTP280	ltpFR	10	n/a	n/a	n/a	n/a	n/a	n/a	n/a	12	2	8	2	n/a	n/a	n/a	n/a	n/a
1454.304	n/a	PROB	727152	n/a	LTP280	ltpFR	10	n/a	n/a	n/a	n/a	n/a	n/a	n/a	21	9	8	3	n/a	n/a	n/a	n/a	n/a
1455.672	n/a	STOP	727836	n/a	LTP280	ltpFR	10	n/a	n/a	n/a	n/a	n/a	n/a	n/a	n/a	n/a	n/a	n/a	n/a	n/a	n/a	n/a	n/a
1457.5	n/a	WORD	728750	wordpools/wasnorm_wordpool_less_exclusions.txt	LTP280	ltpFR	10	6	0	WAREHOUSE	1588	n/a	n/a	1	n/a	0	0	0	0.57763671875	0.412841796875	1	lower	amplitud.ttf
1460.512	n/a	START	730256	n/a	LTP280	ltpFR	10	n/a	n/a	n/a	n/a	n/a	n/a	n/a	n/a	n/a	n/a	n/a	n/a	n/a	n/a	n/a	n/a
1461.416	n/a	PROB	730708	n/a	LTP280	ltpFR	10	n/a	n/a	n/a	n/a	n/a	n/a	n/a	21	6	9	6	n/a	n/a	n/a	n/a	n/a
1463.706	n/a	PROB	731853	n/a	LTP280	ltpFR	10	n/a	n/a	n/a	n/a	n/a	n/a	n/a	10	2	7	1	n/a	n/a	n/a	n/a	n/a
1465.046	n/a	PROB	732523	n/a	LTP280	ltpFR	10	n/a	n/a	n/a	n/a	n/a	n/a	n/a	21	6	8	9	n/a	n/a	n/a	n/a	n/a
1466.886	n/a	PROB	733443	n/a	LTP280	ltpFR	10	n/a	n/a	n/a	n/a	n/a	n/a	n/a	13	4	3	6	n/a	n/a	n/a	n/a	n/a
1469.73	n/a	PROB	734865	n/a	LTP280	ltpFR	10	n/a	n/a	n/a	n/a	n/a	n/a	n/a	14	4	3	7	n/a	n/a	n/a	n/a	n/a
1471.534	n/a	PROB	735767	n/a	LTP280	ltpFR	10	n/a	n/a	n/a	n/a	n/a	n/a	n/a	12	5	2	5	n/a	n/a	n/a	n/a	n/a
1472.792	n/a	PROB	736396	n/a	LTP280	ltpFR	10	n/a	n/a	n/a	n/a	n/a	n/a	n/a	12	2	8	2	n/a	n/a	n/a	n/a	n/a
1473.794	n/a	PROB	736897	n/a	LTP280	ltpFR	10	n/a	n/a	n/a	n/a	n/a	n/a	n/a	17	3	8	6	n/a	n/a	n/a	n/a	n/a
1475.184	n/a	STOP	737592	n/a	LTP280	ltpFR	10	n/a	n/a	n/a	n/a	n/a	n/a	n/a	n/a	n/a	n/a	n/a	n/a	n/a	n/a	n/a	n/a
1477.46	n/a	WORD	738730	wordpools/wasnorm_wordpool_less_exclusions.txt	LTP280	ltpFR	10	6	1	HEDGE	699	n/a	n/a	1	n/a	0	0	0	0.422607421875	0.5869140625	0	upper	zerothre.ttf
1480.472	n/a	START	740236	n/a	LTP280	ltpFR	10	n/a	n/a	n/a	n/a	n/a	n/a	n/a	n/a	n/a	n/a	n/a	n/a	n/a	n/a	n/a	n/a
1481.376	n/a	PROB	740688	n/a	LTP280	ltpFR	10	n/a	n/a	n/a	n/a	n/a	n/a	n/a	2	3	9	1	n/a	n/a	n/a	n/a	n/a
1483.382	n/a	PROB	741691	n/a	LTP280	ltpFR	10	n/a	n/a	n/a	n/a	n/a	n/a	n/a	18	9	3	7	n/a	n/a	n/a	n/a	n/a
1486.006	n/a	PROB	743003	n/a	LTP280	ltpFR	10	n/a	n/a	n/a	n/a	n/a	n/a	n/a	10	4	3	3	n/a	n/a	n/a	n/a	n/a
1487.446	n/a	PROB	743723	n/a	LTP280	ltpFR	10	n/a	n/a	n/a	n/a	n/a	n/a	n/a	21	2	9	9	n/a	n/a	n/a	n/a	n/a
1488.968	n/a	PROB	744484	n/a	LTP280	ltpFR	10	n/a	n/a	n/a	n/a	n/a	n/a	n/a	114	6	5	2	n/a	n/a	n/a	n/a	n/a
1490.508	n/a	PROB	745254	n/a	LTP280	ltpFR	10	n/a	n/a	n/a	n/a	n/a	n/a	n/a	16	3	7	6	n/a	n/a	n/a	n/a	n/a
1491.964	n/a	PROB	745982	n/a	LTP280	ltpFR	10	n/a	n/a	n/a	n/a	n/a	n/a	n/a	15	7	5	3	n/a	n/a	n/a	n/a	n/a
1494.02	n/a	PROB	747010	n/a	LTP280	ltpFR	10	n/a	n/a	n/a	n/a	n/a	n/a	n/a	15	3	7	6	n/a	n/a	n/a	n/a	n/a
1495.882	n/a	STOP	747941	n/a	LTP280	ltpFR	10	n/a	n/a	n/a	n/a	n/a	n/a	n/a	n/a	n/a	n/a	n/a	n/a	n/a	n/a	n/a	n/a
1497.604	n/a	WORD	748802	wordpools/wasnorm_wordpool_less_exclusions.txt	LTP280	ltpFR	10	6	1	MOUSE	925	n/a	n/a	1	n/a	0	0	0	0.422607421875	0.5869140625	0	upper	zerothre.ttf
1500.616	n/a	START	750308	n/a	LTP280	ltpFR	10	n/a	n/a	n/a	n/a	n/a	n/a	n/a	n/a	n/a	n/a	n/a	n/a	n/a	n/a	n/a	n/a
1501.77	n/a	PROB	750885	n/a	LTP280	ltpFR	10	n/a	n/a	n/a	n/a	n/a	n/a	n/a	18	3	9	7	n/a	n/a	n/a	n/a	n/a
1503.14	n/a	PROB	751570	n/a	LTP280	ltpFR	10	n/a	n/a	n/a	n/a	n/a	n/a	n/a	18	6	7	6	n/a	n/a	n/a	n/a	n/a
1504.812	n/a	PROB	752406	n/a	LTP280	ltpFR	10	n/a	n/a	n/a	n/a	n/a	n/a	n/a	13	7	3	3	n/a	n/a	n/a	n/a	n/a
1506.102	n/a	PROB	753051	n/a	LTP280	ltpFR	10	n/a	n/a	n/a	n/a	n/a	n/a	n/a	15	5	9	1	n/a	n/a	n/a	n/a	n/a
1507.392	n/a	PROB	753696	n/a	LTP280	ltpFR	10	n/a	n/a	n/a	n/a	n/a	n/a	n/a	2	2	6	5	n/a	n/a	n/a	n/a	n/a
1509.748	n/a	PROB	754874	n/a	LTP280	ltpFR	10	n/a	n/a	n/a	n/a	n/a	n/a	n/a	15	2	8	5	n/a	n/a	n/a	n/a	n/a
1510.936	n/a	PROB	755468	n/a	LTP280	ltpFR	10	n/a	n/a	n/a	n/a	n/a	n/a	n/a	16	7	5	4	n/a	n/a	n/a	n/a	n/a
1512.676	n/a	PROB	756338	n/a	LTP280	ltpFR	10	n/a	n/a	n/a	n/a	n/a	n/a	n/a	21	9	3	9	n/a	n/a	n/a	n/a	n/a
1515.204	n/a	STOP	757602	n/a	LTP280	ltpFR	10	n/a	n/a	n/a	n/a	n/a	n/a	n/a	n/a	n/a	n/a	n/a	n/a	n/a	n/a	n/a	n/a
1517.778	n/a	WORD	758889	wordpools/wasnorm_wordpool_less_exclusions.txt	LTP280	ltpFR	10	6	1	WATER	1594	n/a	n/a	0	n/a	0	0	0	0.422607421875	0.5869140625	0	upper	zerothre.ttf
1520.792	n/a	START	760396	n/a	LTP280	ltpFR	10	n/a	n/a	n/a	n/a	n/a	n/a	n/a	n/a	n/a	n/a	n/a	n/a	n/a	n/a	n/a	n/a
1521.912	n/a	PROB	760956	n/a	LTP280	ltpFR	10	n/a	n/a	n/a	n/a	n/a	n/a	n/a	19	6	4	9	n/a	n/a	n/a	n/a	n/a
1523.418	n/a	PROB	761709	n/a	LTP280	ltpFR	10	n/a	n/a	n/a	n/a	n/a	n/a	n/a	13	3	9	1	n/a	n/a	n/a	n/a	n/a
1525.006	n/a	PROB	762503	n/a	LTP280	ltpFR	10	n/a	n/a	n/a	n/a	n/a	n/a	n/a	15	4	4	7	n/a	n/a	n/a	n/a	n/a
1527.382	n/a	PROB	763691	n/a	LTP280	ltpFR	10	n/a	n/a	n/a	n/a	n/a	n/a	n/a	11	4	1	6	n/a	n/a	n/a	n/a	n/a
1528.554	n/a	PROB	764277	n/a	LTP280	ltpFR	10	n/a	n/a	n/a	n/a	n/a	n/a	n/a	15	5	2	8	n/a	n/a	n/a	n/a	n/a
1530.06	n/a	PROB	765030	n/a	LTP280	ltpFR	10	n/a	n/a	n/a	n/a	n/a	n/a	n/a	21	7	7	6	n/a	n/a	n/a	n/a	n/a
1531.866	n/a	PROB	765933	n/a	LTP280	ltpFR	10	n/a	n/a	n/a	n/a	n/a	n/a	n/a	13	3	9	1	n/a	n/a	n/a	n/a	n/a
1533.392	n/a	PROB	766696	n/a	LTP280	ltpFR	10	n/a	n/a	n/a	n/a	n/a	n/a	n/a	18	6	5	7	n/a	n/a	n/a	n/a	n/a
1534.71	n/a	PROB	767355	n/a	LTP280	ltpFR	10	n/a	n/a	n/a	n/a	n/a	n/a	n/a	21	2	7	2	n/a	n/a	n/a	n/a	n/a
1536.076	n/a	STOP	768038	n/a	LTP280	ltpFR	10	n/a	n/a	n/a	n/a	n/a	n/a	n/a	n/a	n/a	n/a	n/a	n/a	n/a	n/a	n/a	n/a
1537.622	n/a	WORD	768811	wordpools/wasnorm_wordpool_less_exclusions.txt	LTP280	ltpFR	10	6	1	BRICK	172	n/a	n/a	0	n/a	0	0	0	0.422607421875	0.5869140625	0	upper	zerothre.ttf
1540.634	n/a	START	770317	n/a	LTP280	ltpFR	10	n/a	n/a	n/a	n/a	n/a	n/a	n/a	n/a	n/a	n/a	n/a	n/a	n/a	n/a	n/a	n/a
1541.454	n/a	PROB	770727	n/a	LTP280	ltpFR	10	n/a	n/a	n/a	n/a	n/a	n/a	n/a	13	1	3	9	n/a	n/a	n/a	n/a	n/a
1543.228	n/a	PROB	771614	n/a	LTP280	ltpFR	10	n/a	n/a	n/a	n/a	n/a	n/a	n/a	14	5	8	1	n/a	n/a	n/a	n/a	n/a
1544.532	n/a	PROB	772266	n/a	LTP280	ltpFR	10	n/a	n/a	n/a	n/a	n/a	n/a	n/a	19	3	6	8	n/a	n/a	n/a	n/a	n/a
1547.008	n/a	PROB	773504	n/a	LTP280	ltpFR	10	n/a	n/a	n/a	n/a	n/a	n/a	n/a	11	5	1	5	n/a	n/a	n/a	n/a	n/a
1548.178	n/a	PROB	774089	n/a	LTP280	ltpFR	10	n/a	n/a	n/a	n/a	n/a	n/a	n/a	13	5	4	4	n/a	n/a	n/a	n/a	n/a
1549.736	n/a	PROB	774868	n/a	LTP280	ltpFR	10	n/a	n/a	n/a	n/a	n/a	n/a	n/a	17	1	8	8	n/a	n/a	n/a	n/a	n/a
1550.956	n/a	PROB	775478	n/a	LTP280	ltpFR	10	n/a	n/a	n/a	n/a	n/a	n/a	n/a	16	9	7	1	n/a	n/a	n/a	n/a	n/a
1552.346	n/a	PROB	776173	n/a	LTP280	ltpFR	10	n/a	n/a	n/a	n/a	n/a	n/a	n/a	14	5	1	9	n/a	n/a	n/a	n/a	n/a
1554.12	n/a	PROB	777060	n/a	LTP280	ltpFR	10	n/a	n/a	n/a	n/a	n/a	n/a	n/a	12	3	3	6	n/a	n/a	n/a	n/a	n/a
1555.4	n/a	STOP	777700	n/a	LTP280	ltpFR	10	n/a	n/a	n/a	n/a	n/a	n/a	n/a	n/a	n/a	n/a	n/a	n/a	n/a	n/a	n/a	n/a
1557.766	n/a	WORD	778883	wordpools/wasnorm_wordpool_less_exclusions.txt	LTP280	ltpFR	10	6	1	CHEERLEADER	288	n/a	n/a	1	n/a	0	0	0	0.422607421875	0.5869140625	0	upper	zerothre.ttf
1560.778	n/a	START	780389	n/a	LTP280	ltpFR	10	n/a	n/a	n/a	n/a	n/a	n/a	n/a	n/a	n/a	n/a	n/a	n/a	n/a	n/a	n/a	n/a
1561.748	n/a	PROB	780874	n/a	LTP280	ltpFR	10	n/a	n/a	n/a	n/a	n/a	n/a	n/a	17	7	8	2	n/a	n/a	n/a	n/a	n/a
1563.086	n/a	PROB	781543	n/a	LTP280	ltpFR	10	n/a	n/a	n/a	n/a	n/a	n/a	n/a	9	4	1	4	n/a	n/a	n/a	n/a	n/a
1564.408	n/a	PROB	782204	n/a	LTP280	ltpFR	10	n/a	n/a	n/a	n/a	n/a	n/a	n/a	17	6	9	2	n/a	n/a	n/a	n/a	n/a
1565.812	n/a	PROB	782906	n/a	LTP280	ltpFR	10	n/a	n/a	n/a	n/a	n/a	n/a	n/a	21	9	3	8	n/a	n/a	n/a	n/a	n/a
1567.452	n/a	PROB	783726	n/a	LTP280	ltpFR	10	n/a	n/a	n/a	n/a	n/a	n/a	n/a	13	6	1	6	n/a	n/a	n/a	n/a	n/a
1568.674	n/a	PROB	784337	n/a	LTP280	ltpFR	10	n/a	n/a	n/a	n/a	n/a	n/a	n/a	4	1	1	2	n/a	n/a	n/a	n/a	n/a
1569.678	n/a	PROB	784839	n/a	LTP280	ltpFR	10	n/a	n/a	n/a	n/a	n/a	n/a	n/a	19	8	8	3	n/a	n/a	n/a	n/a	n/a
1571.068	n/a	PROB	785534	n/a	LTP280	ltpFR	10	n/a	n/a	n/a	n/a	n/a	n/a	n/a	8	2	1	5	n/a	n/a	n/a	n/a	n/a
1572.338	n/a	PROB	786169	n/a	LTP280	ltpFR	10	n/a	n/a	n/a	n/a	n/a	n/a	n/a	17	7	3	7	n/a	n/a	n/a	n/a	n/a
1574.16	n/a	PROB	787080	n/a	LTP280	ltpFR	10	n/a	n/a	n/a	n/a	n/a	n/a	n/a	13	3	1	9	n/a	n/a	n/a	n/a	n/a
1575.408	n/a	STOP	787704	n/a	LTP280	ltpFR	10	n/a	n/a	n/a	n/a	n/a	n/a	n/a	n/a	n/a	n/a	n/a	n/a	n/a	n/a	n/a	n/a
1577.976	n/a	WORD	788988	wordpools/wasnorm_wordpool_less_exclusions.txt	LTP280	ltpFR	10	6	0	TEAM	1441	n/a	n/a	1	n/a	0	0	0	0.57763671875	0.412841796875	1	lower	amplitud.ttf
1580.99	n/a	START	790495	n/a	LTP280	ltpFR	10	n/a	n/a	n/a	n/a	n/a	n/a	n/a	n/a	n/a	n/a	n/a	n/a	n/a	n/a	n/a	n/a
1582.008	n/a	PROB	791004	n/a	LTP280	ltpFR	10	n/a	n/a	n/a	n/a	n/a	n/a	n/a	18	7	2	9	n/a	n/a	n/a	n/a	n/a
1583.782	n/a	PROB	791891	n/a	LTP280	ltpFR	10	n/a	n/a	n/a	n/a	n/a	n/a	n/a	14	8	5	7	n/a	n/a	n/a	n/a	n/a
1585.254	n/a	PROB	792627	n/a	LTP280	ltpFR	10	n/a	n/a	n/a	n/a	n/a	n/a	n/a	14	7	6	1	n/a	n/a	n/a	n/a	n/a
1586.51	n/a	PROB	793255	n/a	LTP280	ltpFR	10	n/a	n/a	n/a	n/a	n/a	n/a	n/a	14	5	6	3	n/a	n/a	n/a	n/a	n/a
1587.88	n/a	PROB	793940	n/a	LTP280	ltpFR	10	n/a	n/a	n/a	n/a	n/a	n/a	n/a	11	1	9	1	n/a	n/a	n/a	n/a	n/a
1589.104	n/a	PROB	794552	n/a	LTP280	ltpFR	10	n/a	n/a	n/a	n/a	n/a	n/a	n/a	14	4	6	4	n/a	n/a	n/a	n/a	n/a
1590.342	n/a	PROB	795171	n/a	LTP280	ltpFR	10	n/a	n/a	n/a	n/a	n/a	n/a	n/a	13	3	6	4	n/a	n/a	n/a	n/a	n/a
1592.398	n/a	PROB	796199	n/a	LTP280	ltpFR	10	n/a	n/a	n/a	n/a	n/a	n/a	n/a	21	7	1	2	n/a	n/a	n/a	n/a	n/a
1593.838	n/a	PROB	796919	n/a	LTP280	ltpFR	10	n/a	n/a	n/a	n/a	n/a	n/a	n/a	13	3	5	5	n/a	n/a	n/a	n/a	n/a
1595.092	n/a	PROB	797546	n/a	LTP280	ltpFR	10	n/a	n/a	n/a	n/a	n/a	n/a	n/a	8	2	6	1	n/a	n/a	n/a	n/a	n/a
1596.56	n/a	STOP	798280	n/a	LTP280	ltpFR	10	n/a	n/a	n/a	n/a	n/a	n/a	n/a	n/a	n/a	n/a	n/a	n/a	n/a	n/a	n/a	n/a
1598.188	n/a	WORD	799094	wordpools/wasnorm_wordpool_less_exclusions.txt	LTP280	ltpFR	10	6	0	MAID	856	n/a	n/a	1	n/a	0	0	0	0.57763671875	0.412841796875	1	lower	amplitud.ttf
1601.2	n/a	START	800600	n/a	LTP280	ltpFR	10	n/a	n/a	n/a	n/a	n/a	n/a	n/a	n/a	n/a	n/a	n/a	n/a	n/a	n/a	n/a	n/a
1602.236	n/a	PROB	801118	n/a	LTP280	ltpFR	10	n/a	n/a	n/a	n/a	n/a	n/a	n/a	9	2	3	4	n/a	n/a	n/a	n/a	n/a
1603.608	n/a	PROB	801804	n/a	LTP280	ltpFR	10	n/a	n/a	n/a	n/a	n/a	n/a	n/a	11	1	2	8	n/a	n/a	n/a	n/a	n/a
1604.81	n/a	PROB	802405	n/a	LTP280	ltpFR	10	n/a	n/a	n/a	n/a	n/a	n/a	n/a	20	6	7	7	n/a	n/a	n/a	n/a	n/a
1606.486	n/a	PROB	803243	n/a	LTP280	ltpFR	10	n/a	n/a	n/a	n/a	n/a	n/a	n/a	14	8	3	3	n/a	n/a	n/a	n/a	n/a
1607.926	n/a	PROB	803963	n/a	LTP280	ltpFR	10	n/a	n/a	n/a	n/a	n/a	n/a	n/a	17	1	7	9	n/a	n/a	n/a	n/a	n/a
1609.816	n/a	PROB	804908	n/a	LTP280	ltpFR	10	n/a	n/a	n/a	n/a	n/a	n/a	n/a	20	6	6	8	n/a	n/a	n/a	n/a	n/a
1611.388	n/a	PROB	805694	n/a	LTP280	ltpFR	10	n/a	n/a	n/a	n/a	n/a	n/a	n/a	10	5	1	4	n/a	n/a	n/a	n/a	n/a
1612.642	n/a	PROB	806321	n/a	LTP280	ltpFR	10	n/a	n/a	n/a	n/a	n/a	n/a	n/a	13	1	5	7	n/a	n/a	n/a	n/a	n/a
1613.898	n/a	PROB	806949	n/a	LTP280	ltpFR	10	n/a	n/a	n/a	n/a	n/a	n/a	n/a	15	7	3	5	n/a	n/a	n/a	n/a	n/a
1615.034	n/a	PROB	807517	n/a	LTP280	ltpFR	10	n/a	n/a	n/a	n/a	n/a	n/a	n/a	20	9	4	7	n/a	n/a	n/a	n/a	n/a
1616.6	n/a	STOP	808300	n/a	LTP280	ltpFR	10	n/a	n/a	n/a	n/a	n/a	n/a	n/a	n/a	n/a	n/a	n/a	n/a	n/a	n/a	n/a	n/a
1618.03	n/a	WORD	809015	wordpools/wasnorm_wordpool_less_exclusions.txt	LTP280	ltpFR	10	6	0	BATH	98	n/a	n/a	0	n/a	0	0	0	0.57763671875	0.412841796875	1	lower	amplitud.ttf
1621.042	n/a	START	810521	n/a	LTP280	ltpFR	10	n/a	n/a	n/a	n/a	n/a	n/a	n/a	n/a	n/a	n/a	n/a	n/a	n/a	n/a	n/a	n/a
1622.112	n/a	PROB	811056	n/a	LTP280	ltpFR	10	n/a	n/a	n/a	n/a	n/a	n/a	n/a	9	1	6	2	n/a	n/a	n/a	n/a	n/a
1623.7	n/a	PROB	811850	n/a	LTP280	ltpFR	10	n/a	n/a	n/a	n/a	n/a	n/a	n/a	20	4	2	8	n/a	n/a	n/a	n/a	n/a
1625.474	n/a	PROB	812737	n/a	LTP280	ltpFR	10	n/a	n/a	n/a	n/a	n/a	n/a	n/a	18	6	7	5	n/a	n/a	n/a	n/a	n/a
1627.382	n/a	PROB	813691	n/a	LTP280	ltpFR	10	n/a	n/a	n/a	n/a	n/a	n/a	n/a	16	5	8	4	n/a	n/a	n/a	n/a	n/a
1629.054	n/a	PROB	814527	n/a	LTP280	ltpFR	10	n/a	n/a	n/a	n/a	n/a	n/a	n/a	9	1	5	3	n/a	n/a	n/a	n/a	n/a
1630.226	n/a	PROB	815113	n/a	LTP280	ltpFR	10	n/a	n/a	n/a	n/a	n/a	n/a	n/a	9	2	1	6	n/a	n/a	n/a	n/a	n/a
1631.432	n/a	PROB	815716	n/a	LTP280	ltpFR	10	n/a	n/a	n/a	n/a	n/a	n/a	n/a	15	5	9	1	n/a	n/a	n/a	n/a	n/a
1632.854	n/a	PROB	816427	n/a	LTP280	ltpFR	10	n/a	n/a	n/a	n/a	n/a	n/a	n/a	6	1	2	3	n/a	n/a	n/a	n/a	n/a
1633.858	n/a	PROB	816929	n/a	LTP280	ltpFR	10	n/a	n/a	n/a	n/a	n/a	n/a	n/a	3	1	2	9	n/a	n/a	n/a	n/a	n/a
1635.738	n/a	STOP	817869	n/a	LTP280	ltpFR	10	n/a	n/a	n/a	n/a	n/a	n/a	n/a	n/a	n/a	n/a	n/a	n/a	n/a	n/a	n/a	n/a
1637.872	n/a	WORD	818936	wordpools/wasnorm_wordpool_less_exclusions.txt	LTP280	ltpFR	10	6	1	LAWN	805	n/a	n/a	1	n/a	0	0	0	0.422607421875	0.5869140625	0	upper	zerothre.ttf
1640.884	n/a	START	820442	n/a	LTP280	ltpFR	10	n/a	n/a	n/a	n/a	n/a	n/a	n/a	n/a	n/a	n/a	n/a	n/a	n/a	n/a	n/a	n/a
1641.92	n/a	PROB	820960	n/a	LTP280	ltpFR	10	n/a	n/a	n/a	n/a	n/a	n/a	n/a	13	9	3	1	n/a	n/a	n/a	n/a	n/a
1643.26	n/a	PROB	821630	n/a	LTP280	ltpFR	10	n/a	n/a	n/a	n/a	n/a	n/a	n/a	19	3	8	8	n/a	n/a	n/a	n/a	n/a
1645.804	n/a	PROB	822902	n/a	LTP280	ltpFR	10	n/a	n/a	n/a	n/a	n/a	n/a	n/a	16	8	6	1	n/a	n/a	n/a	n/a	n/a
1647.392	n/a	PROB	823696	n/a	LTP280	ltpFR	10	n/a	n/a	n/a	n/a	n/a	n/a	n/a	13	2	5	6	n/a	n/a	n/a	n/a	n/a
1648.964	n/a	PROB	824482	n/a	LTP280	ltpFR	10	n/a	n/a	n/a	n/a	n/a	n/a	n/a	8	2	2	4	n/a	n/a	n/a	n/a	n/a
1650.422	n/a	PROB	825211	n/a	LTP280	ltpFR	10	n/a	n/a	n/a	n/a	n/a	n/a	n/a	9	1	7	1	n/a	n/a	n/a	n/a	n/a
1651.69	n/a	PROB	825845	n/a	LTP280	ltpFR	10	n/a	n/a	n/a	n/a	n/a	n/a	n/a	17	9	1	7	n/a	n/a	n/a	n/a	n/a
1652.964	n/a	PROB	826482	n/a	LTP280	ltpFR	10	n/a	n/a	n/a	n/a	n/a	n/a	n/a	9	5	1	3	n/a	n/a	n/a	n/a	n/a
1654.116	n/a	PROB	827058	n/a	LTP280	ltpFR	10	n/a	n/a	n/a	n/a	n/a	n/a	n/a	9	6	2	1	n/a	n/a	n/a	n/a	n/a
1655.088	n/a	PROB	827544	n/a	LTP280	ltpFR	10	n/a	n/a	n/a	n/a	n/a	n/a	n/a	12	2	6	4	n/a	n/a	n/a	n/a	n/a
1656.258	n/a	STOP	828129	n/a	LTP280	ltpFR	10	n/a	n/a	n/a	n/a	n/a	n/a	n/a	n/a	n/a	n/a	n/a	n/a	n/a	n/a	n/a	n/a
1657.848	n/a	WORD	828924	wordpools/wasnorm_wordpool_less_exclusions.txt	LTP280	ltpFR	10	6	1	MAPLE	866	n/a	n/a	1	n/a	0	0	0	0.422607421875	0.5869140625	0	upper	zerothre.ttf
1660.86	n/a	START	830430	n/a	LTP280	ltpFR	10	n/a	n/a	n/a	n/a	n/a	n/a	n/a	n/a	n/a	n/a	n/a	n/a	n/a	n/a	n/a	n/a
1661.848	n/a	PROB	830924	n/a	LTP280	ltpFR	10	n/a	n/a	n/a	n/a	n/a	n/a	n/a	9	1	3	5	n/a	n/a	n/a	n/a	n/a
1662.884	n/a	PROB	831442	n/a	LTP280	ltpFR	10	n/a	n/a	n/a	n/a	n/a	n/a	n/a	9	2	4	3	n/a	n/a	n/a	n/a	n/a
1664.274	n/a	PROB	832137	n/a	LTP280	ltpFR	10	n/a	n/a	n/a	n/a	n/a	n/a	n/a	13	7	5	1	n/a	n/a	n/a	n/a	n/a
1665.428	n/a	PROB	832714	n/a	LTP280	ltpFR	10	n/a	n/a	n/a	n/a	n/a	n/a	n/a	21	8	7	6	n/a	n/a	n/a	n/a	n/a
1666.85	n/a	PROB	833425	n/a	LTP280	ltpFR	10	n/a	n/a	n/a	n/a	n/a	n/a	n/a	10	2	2	6	n/a	n/a	n/a	n/a	n/a
1668.07	n/a	PROB	834035	n/a	LTP280	ltpFR	10	n/a	n/a	n/a	n/a	n/a	n/a	n/a	3	8	1	3	n/a	n/a	n/a	n/a	n/a
1669.41	n/a	PROB	834705	n/a	LTP280	ltpFR	10	n/a	n/a	n/a	n/a	n/a	n/a	n/a	18	5	8	5	n/a	n/a	n/a	n/a	n/a
1670.898	n/a	PROB	835449	n/a	LTP280	ltpFR	10	n/a	n/a	n/a	n/a	n/a	n/a	n/a	23	8	7	8	n/a	n/a	n/a	n/a	n/a
1672.738	n/a	PROB	836369	n/a	LTP280	ltpFR	10	n/a	n/a	n/a	n/a	n/a	n/a	n/a	20	6	8	6	n/a	n/a	n/a	n/a	n/a
1674.696	n/a	PROB	837348	n/a	LTP280	ltpFR	10	n/a	n/a	n/a	n/a	n/a	n/a	n/a	22	7	7	8	n/a	n/a	n/a	n/a	n/a
1676.548	n/a	STOP	838274	n/a	LTP280	ltpFR	10	n/a	n/a	n/a	n/a	n/a	n/a	n/a	n/a	n/a	n/a	n/a	n/a	n/a	n/a	n/a	n/a
1677.958	n/a	WORD	838979	wordpools/wasnorm_wordpool_less_exclusions.txt	LTP280	ltpFR	10	6	1	MARINE	869	n/a	n/a	1	n/a	0	0	0	0.422607421875	0.5869140625	0	upper	zerothre.ttf
1680.97	n/a	START	840485	n/a	LTP280	ltpFR	10	n/a	n/a	n/a	n/a	n/a	n/a	n/a	n/a	n/a	n/a	n/a	n/a	n/a	n/a	n/a	n/a
1681.806	n/a	PROB	840903	n/a	LTP280	ltpFR	10	n/a	n/a	n/a	n/a	n/a	n/a	n/a	18	6	6	6	n/a	n/a	n/a	n/a	n/a
1683.432	n/a	PROB	841716	n/a	LTP280	ltpFR	10	n/a	n/a	n/a	n/a	n/a	n/a	n/a	14	6	4	4	n/a	n/a	n/a	n/a	n/a
1684.568	n/a	PROB	842284	n/a	LTP280	ltpFR	10	n/a	n/a	n/a	n/a	n/a	n/a	n/a	15	9	3	3	n/a	n/a	n/a	n/a	n/a
1686.342	n/a	PROB	843171	n/a	LTP280	ltpFR	10	n/a	n/a	n/a	n/a	n/a	n/a	n/a	14	2	3	9	n/a	n/a	n/a	n/a	n/a
1687.594	n/a	PROB	843797	n/a	LTP280	ltpFR	10	n/a	n/a	n/a	n/a	n/a	n/a	n/a	15	6	6	3	n/a	n/a	n/a	n/a	n/a
1689.084	n/a	PROB	844542	n/a	LTP280	ltpFR	10	n/a	n/a	n/a	n/a	n/a	n/a	n/a	6	3	6	3	n/a	n/a	n/a	n/a	n/a
1690.974	n/a	PROB	845487	n/a	LTP280	ltpFR	10	n/a	n/a	n/a	n/a	n/a	n/a	n/a	17	3	7	7	n/a	n/a	n/a	n/a	n/a
1692.512	n/a	PROB	846256	n/a	LTP280	ltpFR	10	n/a	n/a	n/a	n/a	n/a	n/a	n/a	14	5	5	4	n/a	n/a	n/a	n/a	n/a
1693.502	n/a	PROB	846751	n/a	LTP280	ltpFR	10	n/a	n/a	n/a	n/a	n/a	n/a	n/a	13	5	2	6	n/a	n/a	n/a	n/a	n/a
1694.924	n/a	PROB	847462	n/a	LTP280	ltpFR	10	n/a	n/a	n/a	n/a	n/a	n/a	n/a	7	3	3	1	n/a	n/a	n/a	n/a	n/a
1695.812	n/a	STOP	847906	n/a	LTP280	ltpFR	10	n/a	n/a	n/a	n/a	n/a	n/a	n/a	n/a	n/a	n/a	n/a	n/a	n/a	n/a	n/a	n/a
1698.872	n/a	REC_START	849436	n/a	LTP280	ltpFR	10	6	n/a	n/a	n/a	n/a	n/a	n/a	n/a	0	0	0	n/a	n/a	n/a	n/a	n/a
1699.174	n/a	REC_WORD	849587	wordpools/wasnorm_wordpool_less_exclusions.txt	LTP280	ltpFR	10	6	0	LILY	821	n/a	n/a	0	n/a	0	0	0	n/a	n/a	n/a	n/a	n/a
1699.606	n/a	REC_WORD	849803	wordpools/wasnorm_wordpool_less_exclusions.txt	LTP280	ltpFR	10	6	0	DAISY	435	n/a	n/a	0	n/a	0	0	0	n/a	n/a	n/a	n/a	n/a
1700.128	n/a	REC_WORD	850064	wordpools/wasnorm_wordpool_less_exclusions.txt	LTP280	ltpFR	10	6	0	WAREHOUSE	1588	n/a	n/a	1	n/a	0	0	0	n/a	n/a	n/a	n/a	n/a
1700.758	n/a	REC_WORD	850379	wordpools/wasnorm_wordpool_less_exclusions.txt	LTP280	ltpFR	10	6	0	STAMP	1370	n/a	n/a	0	n/a	0	0	0	n/a	n/a	n/a	n/a	n/a
1701.584	n/a	REC_WORD_VV	850792	wordpools/wasnorm_wordpool_less_exclusions.txt	LTP280	ltpFR	10	6	n/a	<>	-1	n/a	n/a	n/a	n/a	0	0	0	n/a	n/a	n/a	n/a	n/a
1702.584	n/a	REC_WORD_VV	851292	wordpools/wasnorm_wordpool_less_exclusions.txt	LTP280	ltpFR	10	6	n/a	<>	-1	n/a	n/a	n/a	n/a	0	0	0	n/a	n/a	n/a	n/a	n/a
1703.46	n/a	REC_WORD	851730	wordpools/wasnorm_wordpool_less_exclusions.txt	LTP280	ltpFR	10	6	0	PIGMENT	1066	n/a	n/a	0	n/a	0	0	0	n/a	n/a	n/a	n/a	n/a
1708.34	n/a	REC_WORD	854170	wordpools/wasnorm_wordpool_less_exclusions.txt	LTP280	ltpFR	10	6	0	MAID	856	n/a	n/a	1	n/a	0	0	0	n/a	n/a	n/a	n/a	n/a
1714.624	n/a	REC_WORD	857312	wordpools/wasnorm_wordpool_less_exclusions.txt	LTP280	ltpFR	10	6	1	HEDGE	699	n/a	n/a	1	n/a	0	0	0	n/a	n/a	n/a	n/a	n/a
1719.536	n/a	REC_WORD	859768	wordpools/wasnorm_wordpool_less_exclusions.txt	LTP280	ltpFR	10	6	0	TEAM	1441	n/a	n/a	1	n/a	0	0	0	n/a	n/a	n/a	n/a	n/a
1720.726	n/a	REC_WORD	860363	wordpools/wasnorm_wordpool_less_exclusions.txt	LTP280	ltpFR	10	6	1	BRICK	172	n/a	n/a	0	n/a	0	0	0	n/a	n/a	n/a	n/a	n/a
1736.164	n/a	REC_WORD	868082	wordpools/wasnorm_wordpool_less_exclusions.txt	LTP280	ltpFR	10	6	1	MARINE	869	n/a	n/a	1	n/a	0	0	0	n/a	n/a	n/a	n/a	n/a
1774.51	n/a	REST_REWET	887255	n/a	LTP280	ltpFR	10	6	n/a	n/a	n/a	n/a	n/a	n/a	n/a	0	0	0	n/a	n/a	n/a	n/a	n/a
2295.102	n/a	START	1147551	n/a	LTP280	ltpFR	10	n/a	n/a	n/a	n/a	n/a	n/a	n/a	n/a	n/a	n/a	n/a	n/a	n/a	n/a	n/a	n/a
2296.606	n/a	PROB	1148303	n/a	LTP280	ltpFR	10	n/a	n/a	n/a	n/a	n/a	n/a	n/a	9	5	1	3	n/a	n/a	n/a	n/a	n/a
2297.962	n/a	PROB	1148981	n/a	LTP280	ltpFR	10	n/a	n/a	n/a	n/a	n/a	n/a	n/a	14	2	8	4	n/a	n/a	n/a	n/a	n/a
2299.1	n/a	PROB	1149550	n/a	LTP280	ltpFR	10	n/a	n/a	n/a	n/a	n/a	n/a	n/a	16	8	1	7	n/a	n/a	n/a	n/a	n/a
2300.268	n/a	PROB	1150134	n/a	LTP280	ltpFR	10	n/a	n/a	n/a	n/a	n/a	n/a	n/a	19	7	8	5	n/a	n/a	n/a	n/a	n/a
2302.516	n/a	STOP	1151258	n/a	LTP280	ltpFR	10	n/a	n/a	n/a	n/a	n/a	n/a	n/a	n/a	n/a	n/a	n/a	n/a	n/a	n/a	n/a	n/a
2304.068	n/a	WORD	1152034	wordpools/wasnorm_wordpool_less_exclusions.txt	LTP280	ltpFR	10	7	1	ALLEY	15	n/a	n/a	0	n/a	0	0	0	0.422607421875	0.5869140625	0	upper	zerothre.ttf
2307.08	n/a	START	1153540	n/a	LTP280	ltpFR	10	n/a	n/a	n/a	n/a	n/a	n/a	n/a	n/a	n/a	n/a	n/a	n/a	n/a	n/a	n/a	n/a
2308.068	n/a	PROB	1154034	n/a	LTP280	ltpFR	10	n/a	n/a	n/a	n/a	n/a	n/a	n/a	11	6	4	1	n/a	n/a	n/a	n/a	n/a
2309.17	n/a	PROB	1154585	n/a	LTP280	ltpFR	10	n/a	n/a	n/a	n/a	n/a	n/a	n/a	19	6	8	5	n/a	n/a	n/a	n/a	n/a
2311.146	n/a	PROB	1155573	n/a	LTP280	ltpFR	10	n/a	n/a	n/a	n/a	n/a	n/a	n/a	23	9	5	7	n/a	n/a	n/a	n/a	n/a
2313.438	n/a	PROB	1156719	n/a	LTP280	ltpFR	10	n/a	n/a	n/a	n/a	n/a	n/a	n/a	12	7	3	2	n/a	n/a	n/a	n/a	n/a
2314.382	n/a	STOP	1157191	n/a	LTP280	ltpFR	10	n/a	n/a	n/a	n/a	n/a	n/a	n/a	n/a	n/a	n/a	n/a	n/a	n/a	n/a	n/a	n/a
2316.298	n/a	WORD	1158149	wordpools/wasnorm_wordpool_less_exclusions.txt	LTP280	ltpFR	10	7	1	PASSAGE	1019	n/a	n/a	0	n/a	0	0	0	0.422607421875	0.5869140625	0	upper	zerothre.ttf
2319.31	n/a	START	1159655	n/a	LTP280	ltpFR	10	n/a	n/a	n/a	n/a	n/a	n/a	n/a	n/a	n/a	n/a	n/a	n/a	n/a	n/a	n/a	n/a
2320.466	n/a	PROB	1160233	n/a	LTP280	ltpFR	10	n/a	n/a	n/a	n/a	n/a	n/a	n/a	7	1	2	4	n/a	n/a	n/a	n/a	n/a
2321.718	n/a	PROB	1160859	n/a	LTP280	ltpFR	10	n/a	n/a	n/a	n/a	n/a	n/a	n/a	17	8	7	2	n/a	n/a	n/a	n/a	n/a
2322.906	n/a	PROB	1161453	n/a	LTP280	ltpFR	10	n/a	n/a	n/a	n/a	n/a	n/a	n/a	14	2	6	4	n/a	n/a	n/a	n/a	n/a
2324.078	n/a	PROB	1162039	n/a	LTP280	ltpFR	10	n/a	n/a	n/a	n/a	n/a	n/a	n/a	16	5	7	1	n/a	n/a	n/a	n/a	n/a
2325.848	n/a	STOP	1162924	n/a	LTP280	ltpFR	10	n/a	n/a	n/a	n/a	n/a	n/a	n/a	n/a	n/a	n/a	n/a	n/a	n/a	n/a	n/a	n/a
2328.16	n/a	WORD	1164080	wordpools/wasnorm_wordpool_less_exclusions.txt	LTP280	ltpFR	10	7	0	NOVEL	960	n/a	n/a	0	n/a	0	0	0	0.57763671875	0.412841796875	1	lower	amplitud.ttf
2331.172	n/a	START	1165586	n/a	LTP280	ltpFR	10	n/a	n/a	n/a	n/a	n/a	n/a	n/a	n/a	n/a	n/a	n/a	n/a	n/a	n/a	n/a	n/a
2331.992	n/a	PROB	1165996	n/a	LTP280	ltpFR	10	n/a	n/a	n/a	n/a	n/a	n/a	n/a	7	3	3	1	n/a	n/a	n/a	n/a	n/a
2333.044	n/a	PROB	1166522	n/a	LTP280	ltpFR	10	n/a	n/a	n/a	n/a	n/a	n/a	n/a	11	5	1	5	n/a	n/a	n/a	n/a	n/a
2334.268	n/a	PROB	1167134	n/a	LTP280	ltpFR	10	n/a	n/a	n/a	n/a	n/a	n/a	n/a	13	4	3	9	n/a	n/a	n/a	n/a	n/a
2335.738	n/a	PROB	1167869	n/a	LTP280	ltpFR	10	n/a	n/a	n/a	n/a	n/a	n/a	n/a	9	1	3	5	n/a	n/a	n/a	n/a	n/a
2336.76	n/a	PROB	1168380	n/a	LTP280	ltpFR	10	n/a	n/a	n/a	n/a	n/a	n/a	n/a	2	9	5	9	n/a	n/a	n/a	n/a	n/a
2339.03	n/a	STOP	1169515	n/a	LTP280	ltpFR	10	n/a	n/a	n/a	n/a	n/a	n/a	n/a	n/a	n/a	n/a	n/a	n/a	n/a	n/a	n/a	n/a
2340.156	n/a	WORD	1170078	wordpools/wasnorm_wordpool_less_exclusions.txt	LTP280	ltpFR	10	7	0	ACORN	3	n/a	n/a	0	n/a	0	0	0	0.57763671875	0.412841796875	1	lower	amplitud.ttf
2343.17	n/a	START	1171585	n/a	LTP280	ltpFR	10	n/a	n/a	n/a	n/a	n/a	n/a	n/a	n/a	n/a	n/a	n/a	n/a	n/a	n/a	n/a	n/a
2344.072	n/a	PROB	1172036	n/a	LTP280	ltpFR	10	n/a	n/a	n/a	n/a	n/a	n/a	n/a	18	8	5	5	n/a	n/a	n/a	n/a	n/a
2345.394	n/a	PROB	1172697	n/a	LTP280	ltpFR	10	n/a	n/a	n/a	n/a	n/a	n/a	n/a	14	2	8	4	n/a	n/a	n/a	n/a	n/a
2346.482	n/a	PROB	1173241	n/a	LTP280	ltpFR	10	n/a	n/a	n/a	n/a	n/a	n/a	n/a	16	9	5	1	n/a	n/a	n/a	n/a	n/a
2347.82	n/a	PROB	1173910	n/a	LTP280	ltpFR	10	n/a	n/a	n/a	n/a	n/a	n/a	n/a	12	1	5	6	n/a	n/a	n/a	n/a	n/a
2349.51	n/a	PROB	1174755	n/a	LTP280	ltpFR	10	n/a	n/a	n/a	n/a	n/a	n/a	n/a	17	8	7	2	n/a	n/a	n/a	n/a	n/a
2350.656	n/a	STOP	1175328	n/a	LTP280	ltpFR	10	n/a	n/a	n/a	n/a	n/a	n/a	n/a	n/a	n/a	n/a	n/a	n/a	n/a	n/a	n/a	n/a
2352.102	n/a	WORD	1176051	wordpools/wasnorm_wordpool_less_exclusions.txt	LTP280	ltpFR	10	7	0	SQUIRREL	1362	n/a	n/a	1	n/a	0	0	0	0.57763671875	0.412841796875	1	lower	amplitud.ttf
2355.114	n/a	START	1177557	n/a	LTP280	ltpFR	10	n/a	n/a	n/a	n/a	n/a	n/a	n/a	n/a	n/a	n/a	n/a	n/a	n/a	n/a	n/a	n/a
2356.268	n/a	PROB	1178134	n/a	LTP280	ltpFR	10	n/a	n/a	n/a	n/a	n/a	n/a	n/a	13	8	4	1	n/a	n/a	n/a	n/a	n/a
2357.406	n/a	PROB	1178703	n/a	LTP280	ltpFR	10	n/a	n/a	n/a	n/a	n/a	n/a	n/a	16	6	7	3	n/a	n/a	n/a	n/a	n/a
2358.976	n/a	PROB	1179488	n/a	LTP280	ltpFR	10	n/a	n/a	n/a	n/a	n/a	n/a	n/a	17	9	2	6	n/a	n/a	n/a	n/a	n/a
2360.518	n/a	PROB	1180259	n/a	LTP280	ltpFR	10	n/a	n/a	n/a	n/a	n/a	n/a	n/a	16	3	7	6	n/a	n/a	n/a	n/a	n/a
2361.624	n/a	STOP	1180812	n/a	LTP280	ltpFR	10	n/a	n/a	n/a	n/a	n/a	n/a	n/a	n/a	n/a	n/a	n/a	n/a	n/a	n/a	n/a	n/a
2364.032	n/a	WORD	1182016	wordpools/wasnorm_wordpool_less_exclusions.txt	LTP280	ltpFR	10	7	0	RING	1193	n/a	n/a	0	n/a	0	0	0	0.57763671875	0.412841796875	1	lower	amplitud.ttf
2367.044	n/a	START	1183522	n/a	LTP280	ltpFR	10	n/a	n/a	n/a	n/a	n/a	n/a	n/a	n/a	n/a	n/a	n/a	n/a	n/a	n/a	n/a	n/a
2367.978	n/a	PROB	1183989	n/a	LTP280	ltpFR	10	n/a	n/a	n/a	n/a	n/a	n/a	n/a	15	5	4	6	n/a	n/a	n/a	n/a	n/a
2369.332	n/a	PROB	1184666	n/a	LTP280	ltpFR	10	n/a	n/a	n/a	n/a	n/a	n/a	n/a	1	8	3	9	n/a	n/a	n/a	n/a	n/a
2371.174	n/a	PROB	1185587	n/a	LTP280	ltpFR	10	n/a	n/a	n/a	n/a	n/a	n/a	n/a	15	5	9	1	n/a	n/a	n/a	n/a	n/a
2372.628	n/a	PROB	1186314	n/a	LTP280	ltpFR	10	n/a	n/a	n/a	n/a	n/a	n/a	n/a	15	4	5	6	n/a	n/a	n/a	n/a	n/a
2373.768	n/a	STOP	1186884	n/a	LTP280	ltpFR	10	n/a	n/a	n/a	n/a	n/a	n/a	n/a	n/a	n/a	n/a	n/a	n/a	n/a	n/a	n/a	n/a
2376.194	n/a	WORD	1188097	wordpools/wasnorm_wordpool_less_exclusions.txt	LTP280	ltpFR	10	7	0	SPATULA	1348	n/a	n/a	0	n/a	0	0	0	0.57763671875	0.412841796875	1	lower	amplitud.ttf
2379.206	n/a	START	1189603	n/a	LTP280	ltpFR	10	n/a	n/a	n/a	n/a	n/a	n/a	n/a	n/a	n/a	n/a	n/a	n/a	n/a	n/a	n/a	n/a
2380.31	n/a	PROB	1190155	n/a	LTP280	ltpFR	10	n/a	n/a	n/a	n/a	n/a	n/a	n/a	10	3	6	1	n/a	n/a	n/a	n/a	n/a
2381.864	n/a	PROB	1190932	n/a	LTP280	ltpFR	10	n/a	n/a	n/a	n/a	n/a	n/a	n/a	14	2	9	3	n/a	n/a	n/a	n/a	n/a
2383.54	n/a	PROB	1191770	n/a	LTP280	ltpFR	10	n/a	n/a	n/a	n/a	n/a	n/a	n/a	21	6	8	7	n/a	n/a	n/a	n/a	n/a
2385.096	n/a	PROB	1192548	n/a	LTP280	ltpFR	10	n/a	n/a	n/a	n/a	n/a	n/a	n/a	1	4	3	5	n/a	n/a	n/a	n/a	n/a
2386.906	n/a	STOP	1193453	n/a	LTP280	ltpFR	10	n/a	n/a	n/a	n/a	n/a	n/a	n/a	n/a	n/a	n/a	n/a	n/a	n/a	n/a	n/a	n/a
2388.188	n/a	WORD	1194094	wordpools/wasnorm_wordpool_less_exclusions.txt	LTP280	ltpFR	10	7	1	APRON	35	n/a	n/a	0	n/a	0	0	0	0.422607421875	0.5869140625	0	upper	zerothre.ttf
2391.202	n/a	START	1195601	n/a	LTP280	ltpFR	10	n/a	n/a	n/a	n/a	n/a	n/a	n/a	n/a	n/a	n/a	n/a	n/a	n/a	n/a	n/a	n/a
2392.022	n/a	PROB	1196011	n/a	LTP280	ltpFR	10	n/a	n/a	n/a	n/a	n/a	n/a	n/a	15	4	2	9	n/a	n/a	n/a	n/a	n/a
2393.794	n/a	PROB	1196897	n/a	LTP280	ltpFR	10	n/a	n/a	n/a	n/a	n/a	n/a	n/a	6	2	2	2	n/a	n/a	n/a	n/a	n/a
2394.966	n/a	PROB	1197483	n/a	LTP280	ltpFR	10	n/a	n/a	n/a	n/a	n/a	n/a	n/a	13	6	6	1	n/a	n/a	n/a	n/a	n/a
2396.254	n/a	PROB	1198127	n/a	LTP280	ltpFR	10	n/a	n/a	n/a	n/a	n/a	n/a	n/a	20	7	1	2	n/a	n/a	n/a	n/a	n/a
2397.73	n/a	STOP	1198865	n/a	LTP280	ltpFR	10	n/a	n/a	n/a	n/a	n/a	n/a	n/a	n/a	n/a	n/a	n/a	n/a	n/a	n/a	n/a	n/a
2400.422	n/a	WORD	1200211	wordpools/wasnorm_wordpool_less_exclusions.txt	LTP280	ltpFR	10	7	1	DAD	433	n/a	n/a	1	n/a	0	0	0	0.422607421875	0.5869140625	0	upper	zerothre.ttf
2403.434	n/a	START	1201717	n/a	LTP280	ltpFR	10	n/a	n/a	n/a	n/a	n/a	n/a	n/a	n/a	n/a	n/a	n/a	n/a	n/a	n/a	n/a	n/a
2404.252	n/a	PROB	1202126	n/a	LTP280	ltpFR	10	n/a	n/a	n/a	n/a	n/a	n/a	n/a	13	6	3	4	n/a	n/a	n/a	n/a	n/a
2406.494	n/a	PROB	1203247	n/a	LTP280	ltpFR	10	n/a	n/a	n/a	n/a	n/a	n/a	n/a	15	4	2	9	n/a	n/a	n/a	n/a	n/a
2408.534	n/a	PROB	1204267	n/a	LTP280	ltpFR	10	n/a	n/a	n/a	n/a	n/a	n/a	n/a	10	4	1	5	n/a	n/a	n/a	n/a	n/a
2409.688	n/a	PROB	1204844	n/a	LTP280	ltpFR	10	n/a	n/a	n/a	n/a	n/a	n/a	n/a	22	8	9	5	n/a	n/a	n/a	n/a	n/a
2411.178	n/a	STOP	1205589	n/a	LTP280	ltpFR	10	n/a	n/a	n/a	n/a	n/a	n/a	n/a	n/a	n/a	n/a	n/a	n/a	n/a	n/a	n/a	n/a
2412.416	n/a	WORD	1206208	wordpools/wasnorm_wordpool_less_exclusions.txt	LTP280	ltpFR	10	7	0	DASHBOARD	441	n/a	n/a	1	n/a	0	0	0	0.57763671875	0.412841796875	1	lower	amplitud.ttf
2415.428	n/a	START	1207714	n/a	LTP280	ltpFR	10	n/a	n/a	n/a	n/a	n/a	n/a	n/a	n/a	n/a	n/a	n/a	n/a	n/a	n/a	n/a	n/a
2416.432	n/a	PROB	1208216	n/a	LTP280	ltpFR	10	n/a	n/a	n/a	n/a	n/a	n/a	n/a	18	8	9	1	n/a	n/a	n/a	n/a	n/a
2417.684	n/a	PROB	1208842	n/a	LTP280	ltpFR	10	n/a	n/a	n/a	n/a	n/a	n/a	n/a	12	3	5	4	n/a	n/a	n/a	n/a	n/a
2420.296	n/a	PROB	1210148	n/a	LTP280	ltpFR	10	n/a	n/a	n/a	n/a	n/a	n/a	n/a	19	6	6	7	n/a	n/a	n/a	n/a	n/a
2421.924	n/a	STOP	1210962	n/a	LTP280	ltpFR	10	n/a	n/a	n/a	n/a	n/a	n/a	n/a	n/a	n/a	n/a	n/a	n/a	n/a	n/a	n/a	n/a
2424.562	n/a	WORD	1212281	wordpools/wasnorm_wordpool_less_exclusions.txt	LTP280	ltpFR	10	7	0	ALMOND	18	n/a	n/a	0	n/a	0	0	0	0.57763671875	0.412841796875	1	lower	amplitud.ttf
2427.574	n/a	START	1213787	n/a	LTP280	ltpFR	10	n/a	n/a	n/a	n/a	n/a	n/a	n/a	n/a	n/a	n/a	n/a	n/a	n/a	n/a	n/a	n/a
2428.56	n/a	PROB	1214280	n/a	LTP280	ltpFR	10	n/a	n/a	n/a	n/a	n/a	n/a	n/a	14	5	1	8	n/a	n/a	n/a	n/a	n/a
2429.932	n/a	PROB	1214966	n/a	LTP280	ltpFR	10	n/a	n/a	n/a	n/a	n/a	n/a	n/a	16	6	9	1	n/a	n/a	n/a	n/a	n/a
2431.656	n/a	PROB	1215828	n/a	LTP280	ltpFR	10	n/a	n/a	n/a	n/a	n/a	n/a	n/a	16	5	7	4	n/a	n/a	n/a	n/a	n/a
2433.564	n/a	PROB	1216782	n/a	LTP280	ltpFR	10	n/a	n/a	n/a	n/a	n/a	n/a	n/a	21	9	9	3	n/a	n/a	n/a	n/a	n/a
2434.876	n/a	STOP	1217438	n/a	LTP280	ltpFR	10	n/a	n/a	n/a	n/a	n/a	n/a	n/a	n/a	n/a	n/a	n/a	n/a	n/a	n/a	n/a	n/a
2436.54	n/a	WORD	1218270	wordpools/wasnorm_wordpool_less_exclusions.txt	LTP280	ltpFR	10	7	0	WAITRESS	1581	n/a	n/a	1	n/a	0	0	0	0.57763671875	0.412841796875	1	lower	amplitud.ttf
2439.554	n/a	START	1219777	n/a	LTP280	ltpFR	10	n/a	n/a	n/a	n/a	n/a	n/a	n/a	n/a	n/a	n/a	n/a	n/a	n/a	n/a	n/a	n/a
2440.59	n/a	PROB	1220295	n/a	LTP280	ltpFR	10	n/a	n/a	n/a	n/a	n/a	n/a	n/a	11	2	6	3	n/a	n/a	n/a	n/a	n/a
2443.1	n/a	PROB	1221550	n/a	LTP280	ltpFR	10	n/a	n/a	n/a	n/a	n/a	n/a	n/a	15	1	6	8	n/a	n/a	n/a	n/a	n/a
2444.354	n/a	PROB	1222177	n/a	LTP280	ltpFR	10	n/a	n/a	n/a	n/a	n/a	n/a	n/a	20	5	7	8	n/a	n/a	n/a	n/a	n/a
2445.76	n/a	PROB	1222880	n/a	LTP280	ltpFR	10	n/a	n/a	n/a	n/a	n/a	n/a	n/a	17	6	9	1	n/a	n/a	n/a	n/a	n/a
2446.998	n/a	STOP	1223499	n/a	LTP280	ltpFR	10	n/a	n/a	n/a	n/a	n/a	n/a	n/a	n/a	n/a	n/a	n/a	n/a	n/a	n/a	n/a	n/a
2448.754	n/a	WORD	1224377	wordpools/wasnorm_wordpool_less_exclusions.txt	LTP280	ltpFR	10	7	1	CAGE	218	n/a	n/a	0	n/a	0	0	0	0.422607421875	0.5869140625	0	upper	zerothre.ttf
2451.766	n/a	START	1225883	n/a	LTP280	ltpFR	10	n/a	n/a	n/a	n/a	n/a	n/a	n/a	n/a	n/a	n/a	n/a	n/a	n/a	n/a	n/a	n/a
2452.854	n/a	PROB	1226427	n/a	LTP280	ltpFR	10	n/a	n/a	n/a	n/a	n/a	n/a	n/a	21	9	5	7	n/a	n/a	n/a	n/a	n/a
2455.012	n/a	PROB	1227506	n/a	LTP280	ltpFR	10	n/a	n/a	n/a	n/a	n/a	n/a	n/a	16	2	8	6	n/a	n/a	n/a	n/a	n/a
2456.216	n/a	PROB	1228108	n/a	LTP280	ltpFR	10	n/a	n/a	n/a	n/a	n/a	n/a	n/a	19	8	8	3	n/a	n/a	n/a	n/a	n/a
2457.638	n/a	PROB	1228819	n/a	LTP280	ltpFR	10	n/a	n/a	n/a	n/a	n/a	n/a	n/a	7	3	1	3	n/a	n/a	n/a	n/a	n/a
2458.686	n/a	STOP	1229343	n/a	LTP280	ltpFR	10	n/a	n/a	n/a	n/a	n/a	n/a	n/a	n/a	n/a	n/a	n/a	n/a	n/a	n/a	n/a	n/a
2460.918	n/a	WORD	1230459	wordpools/wasnorm_wordpool_less_exclusions.txt	LTP280	ltpFR	10	7	1	JOURNAL	760	n/a	n/a	0	n/a	0	0	0	0.422607421875	0.5869140625	0	upper	zerothre.ttf
2463.93	n/a	START	1231965	n/a	LTP280	ltpFR	10	n/a	n/a	n/a	n/a	n/a	n/a	n/a	n/a	n/a	n/a	n/a	n/a	n/a	n/a	n/a	n/a
2465.1	n/a	PROB	1232550	n/a	LTP280	ltpFR	10	n/a	n/a	n/a	n/a	n/a	n/a	n/a	11	1	9	1	n/a	n/a	n/a	n/a	n/a
2466.32	n/a	PROB	1233160	n/a	LTP280	ltpFR	10	n/a	n/a	n/a	n/a	n/a	n/a	n/a	14	8	4	2	n/a	n/a	n/a	n/a	n/a
2467.492	n/a	PROB	1233746	n/a	LTP280	ltpFR	10	n/a	n/a	n/a	n/a	n/a	n/a	n/a	13	6	2	3	n/a	n/a	n/a	n/a	n/a
2468.848	n/a	PROB	1234424	n/a	LTP280	ltpFR	10	n/a	n/a	n/a	n/a	n/a	n/a	n/a	21	4	7	9	n/a	n/a	n/a	n/a	n/a
2471.408	n/a	STOP	1235704	n/a	LTP280	ltpFR	10	n/a	n/a	n/a	n/a	n/a	n/a	n/a	n/a	n/a	n/a	n/a	n/a	n/a	n/a	n/a	n/a
2473.064	n/a	WORD	1236532	wordpools/wasnorm_wordpool_less_exclusions.txt	LTP280	ltpFR	10	7	1	PASSENGER	1020	n/a	n/a	1	n/a	0	0	0	0.422607421875	0.5869140625	0	upper	zerothre.ttf
2476.076	n/a	START	1238038	n/a	LTP280	ltpFR	10	n/a	n/a	n/a	n/a	n/a	n/a	n/a	n/a	n/a	n/a	n/a	n/a	n/a	n/a	n/a	n/a
2477.178	n/a	PROB	1238589	n/a	LTP280	ltpFR	10	n/a	n/a	n/a	n/a	n/a	n/a	n/a	15	4	4	7	n/a	n/a	n/a	n/a	n/a
2479.172	n/a	PROB	1239586	n/a	LTP280	ltpFR	10	n/a	n/a	n/a	n/a	n/a	n/a	n/a	15	9	4	3	n/a	n/a	n/a	n/a	n/a
2480.81	n/a	PROB	1240405	n/a	LTP280	ltpFR	10	n/a	n/a	n/a	n/a	n/a	n/a	n/a	17	8	6	4	n/a	n/a	n/a	n/a	n/a
2482.526	n/a	STOP	1241263	n/a	LTP280	ltpFR	10	n/a	n/a	n/a	n/a	n/a	n/a	n/a	n/a	n/a	n/a	n/a	n/a	n/a	n/a	n/a	n/a
2485.16	n/a	WORD	1242580	wordpools/wasnorm_wordpool_less_exclusions.txt	LTP280	ltpFR	10	7	1	FUGITIVE	612	n/a	n/a	1	n/a	0	0	0	0.422607421875	0.5869140625	0	upper	zerothre.ttf
2488.172	n/a	START	1244086	n/a	LTP280	ltpFR	10	n/a	n/a	n/a	n/a	n/a	n/a	n/a	n/a	n/a	n/a	n/a	n/a	n/a	n/a	n/a	n/a
2488.99	n/a	PROB	1244495	n/a	LTP280	ltpFR	10	n/a	n/a	n/a	n/a	n/a	n/a	n/a	14	4	7	3	n/a	n/a	n/a	n/a	n/a
2490.598	n/a	PROB	1245299	n/a	LTP280	ltpFR	10	n/a	n/a	n/a	n/a	n/a	n/a	n/a	17	9	4	4	n/a	n/a	n/a	n/a	n/a
2492.32	n/a	PROB	1246160	n/a	LTP280	ltpFR	10	n/a	n/a	n/a	n/a	n/a	n/a	n/a	15	8	5	2	n/a	n/a	n/a	n/a	n/a
2493.742	n/a	PROB	1246871	n/a	LTP280	ltpFR	10	n/a	n/a	n/a	n/a	n/a	n/a	n/a	11	3	1	7	n/a	n/a	n/a	n/a	n/a
2495.048	n/a	STOP	1247524	n/a	LTP280	ltpFR	10	n/a	n/a	n/a	n/a	n/a	n/a	n/a	n/a	n/a	n/a	n/a	n/a	n/a	n/a	n/a	n/a
2498.078	n/a	REC_START	1249039	n/a	LTP280	ltpFR	10	7	n/a	n/a	n/a	n/a	n/a	n/a	n/a	0	0	0	n/a	n/a	n/a	n/a	n/a
2498.308	n/a	REC_WORD	1249154	wordpools/wasnorm_wordpool_less_exclusions.txt	LTP280	ltpFR	10	7	1	JOURNAL	760	n/a	n/a	0	n/a	0	0	0	n/a	n/a	n/a	n/a	n/a
2498.926	n/a	REC_WORD	1249463	wordpools/wasnorm_wordpool_less_exclusions.txt	LTP280	ltpFR	10	7	1	CAGE	218	n/a	n/a	0	n/a	0	0	0	n/a	n/a	n/a	n/a	n/a
2499.638	n/a	REC_WORD	1249819	wordpools/wasnorm_wordpool_less_exclusions.txt	LTP280	ltpFR	10	7	1	PASSENGER	1020	n/a	n/a	1	n/a	0	0	0	n/a	n/a	n/a	n/a	n/a
2500.232	n/a	REC_WORD	1250116	wordpools/wasnorm_wordpool_less_exclusions.txt	LTP280	ltpFR	10	7	1	FUGITIVE	612	n/a	n/a	1	n/a	0	0	0	n/a	n/a	n/a	n/a	n/a
2502.034	n/a	REC_WORD	1251017	wordpools/wasnorm_wordpool_less_exclusions.txt	LTP280	ltpFR	10	7	1	ALLEY	15	n/a	n/a	0	n/a	0	0	0	n/a	n/a	n/a	n/a	n/a
2503.67	n/a	REC_WORD	1251835	wordpools/wasnorm_wordpool_less_exclusions.txt	LTP280	ltpFR	10	7	1	PASSAGE	1019	n/a	n/a	0	n/a	0	0	0	n/a	n/a	n/a	n/a	n/a
2504.67	n/a	REC_WORD_VV	1252335	wordpools/wasnorm_wordpool_less_exclusions.txt	LTP280	ltpFR	10	7	n/a	<>	-1	n/a	n/a	n/a	n/a	0	0	0	n/a	n/a	n/a	n/a	n/a
2507.434	n/a	REC_WORD	1253717	wordpools/wasnorm_wordpool_less_exclusions.txt	LTP280	ltpFR	10	7	0	SQUIRREL	1362	n/a	n/a	1	n/a	0	0	0	n/a	n/a	n/a	n/a	n/a
2508.114	n/a	REC_WORD	1254057	wordpools/wasnorm_wordpool_less_exclusions.txt	LTP280	ltpFR	10	7	0	ACORN	3	n/a	n/a	0	n/a	0	0	0	n/a	n/a	n/a	n/a	n/a
2511.576	n/a	REC_WORD	1255788	wordpools/wasnorm_wordpool_less_exclusions.txt	LTP280	ltpFR	10	7	1	APRON	35	n/a	n/a	0	n/a	0	0	0	n/a	n/a	n/a	n/a	n/a
2512.268	n/a	REC_WORD	1256134	wordpools/wasnorm_wordpool_less_exclusions.txt	LTP280	ltpFR	10	7	0	SPATULA	1348	n/a	n/a	0	n/a	0	0	0	n/a	n/a	n/a	n/a	n/a
2518.694	n/a	REC_WORD	1259347	wordpools/wasnorm_wordpool_less_exclusions.txt	LTP280	ltpFR	10	7	0	NOVEL	960	n/a	n/a	0	n/a	0	0	0	n/a	n/a	n/a	n/a	n/a
2582.366	n/a	WORD	1291183	wordpools/wasnorm_wordpool_less_exclusions.txt	LTP280	ltpFR	10	8	1	SWAMP	1416	n/a	n/a	1	n/a	0	0	0	0.422607421875	0.5869140625	0	upper	zerothre.ttf
2586.296	n/a	WORD	1293148	wordpools/wasnorm_wordpool_less_exclusions.txt	LTP280	ltpFR	10	8	1	SPONGE	1355	n/a	n/a	0	n/a	0	0	0	0.422607421875	0.5869140625	0	upper	zerothre.ttf
2590.346	n/a	WORD	1295173	wordpools/wasnorm_wordpool_less_exclusions.txt	LTP280	ltpFR	10	8	1	PIT	1077	n/a	n/a	0	n/a	0	0	0	0.422607421875	0.5869140625	0	upper	zerothre.ttf
2594.496	n/a	WORD	1297248	wordpools/wasnorm_wordpool_less_exclusions.txt	LTP280	ltpFR	10	8	1	LIPSTICK	829	n/a	n/a	0	n/a	0	0	0	0.422607421875	0.5869140625	0	upper	zerothre.ttf
2598.678	n/a	WORD	1299339	wordpools/wasnorm_wordpool_less_exclusions.txt	LTP280	ltpFR	10	8	1	COBBLER	335	n/a	n/a	1	n/a	0	0	0	0.422607421875	0.5869140625	0	upper	zerothre.ttf
2602.526	n/a	WORD	1301263	wordpools/wasnorm_wordpool_less_exclusions.txt	LTP280	ltpFR	10	8	1	MOUTH	926	n/a	n/a	1	n/a	0	0	0	0.422607421875	0.5869140625	0	upper	zerothre.ttf
2606.608	n/a	WORD	1303304	wordpools/wasnorm_wordpool_less_exclusions.txt	LTP280	ltpFR	10	8	1	SAILOR	1223	n/a	n/a	1	n/a	0	0	0	0.422607421875	0.5869140625	0	upper	zerothre.ttf
2610.824	n/a	WORD	1305412	wordpools/wasnorm_wordpool_less_exclusions.txt	LTP280	ltpFR	10	8	1	PEAR	1033	n/a	n/a	1	n/a	0	0	0	0.422607421875	0.5869140625	0	upper	zerothre.ttf
2614.722	n/a	WORD	1307361	wordpools/wasnorm_wordpool_less_exclusions.txt	LTP280	ltpFR	10	8	1	CHICK	296	n/a	n/a	1	n/a	0	0	0	0.422607421875	0.5869140625	0	upper	zerothre.ttf
2618.668	n/a	WORD	1309334	wordpools/wasnorm_wordpool_less_exclusions.txt	LTP280	ltpFR	10	8	1	GOOSE	649	n/a	n/a	1	n/a	0	0	0	0.422607421875	0.5869140625	0	upper	zerothre.ttf
2622.686	n/a	WORD	1311343	wordpools/wasnorm_wordpool_less_exclusions.txt	LTP280	ltpFR	10	8	1	BOUILLON	154	n/a	n/a	0	n/a	0	0	0	0.422607421875	0.5869140625	0	upper	zerothre.ttf
2626.584	n/a	WORD	1313292	wordpools/wasnorm_wordpool_less_exclusions.txt	LTP280	ltpFR	10	8	1	WALLET	1583	n/a	n/a	0	n/a	0	0	0	0.422607421875	0.5869140625	0	upper	zerothre.ttf
2630.734	n/a	WORD	1315367	wordpools/wasnorm_wordpool_less_exclusions.txt	LTP280	ltpFR	10	8	1	TAVERN	1437	n/a	n/a	0	n/a	0	0	0	0.422607421875	0.5869140625	0	upper	zerothre.ttf
2634.9	n/a	WORD	1317450	wordpools/wasnorm_wordpool_less_exclusions.txt	LTP280	ltpFR	10	8	1	CHAMPAGNE	278	n/a	n/a	0	n/a	0	0	0	0.422607421875	0.5869140625	0	upper	zerothre.ttf
2638.83	n/a	WORD	1319415	wordpools/wasnorm_wordpool_less_exclusions.txt	LTP280	ltpFR	10	8	1	FACE	547	n/a	n/a	1	n/a	0	0	0	0.422607421875	0.5869140625	0	upper	zerothre.ttf
2643.014	n/a	WORD	1321507	wordpools/wasnorm_wordpool_less_exclusions.txt	LTP280	ltpFR	10	8	1	POCKET	1093	n/a	n/a	0	n/a	0	0	0	0.422607421875	0.5869140625	0	upper	zerothre.ttf
2646.026	n/a	START	1323013	n/a	LTP280	ltpFR	10	n/a	n/a	n/a	n/a	n/a	n/a	n/a	n/a	n/a	n/a	n/a	n/a	n/a	n/a	n/a	n/a
2647.114	n/a	PROB	1323557	n/a	LTP280	ltpFR	10	n/a	n/a	n/a	n/a	n/a	n/a	n/a	15	5	9	1	n/a	n/a	n/a	n/a	n/a
2648.352	n/a	PROB	1324176	n/a	LTP280	ltpFR	10	n/a	n/a	n/a	n/a	n/a	n/a	n/a	1	4	3	2	n/a	n/a	n/a	n/a	n/a
2649.706	n/a	PROB	1324853	n/a	LTP280	ltpFR	10	n/a	n/a	n/a	n/a	n/a	n/a	n/a	13	8	3	2	n/a	n/a	n/a	n/a	n/a
2651.244	n/a	PROB	1325622	n/a	LTP280	ltpFR	10	n/a	n/a	n/a	n/a	n/a	n/a	n/a	14	5	3	6	n/a	n/a	n/a	n/a	n/a
2652.888	n/a	STOP	1326444	n/a	LTP280	ltpFR	10	n/a	n/a	n/a	n/a	n/a	n/a	n/a	n/a	n/a	n/a	n/a	n/a	n/a	n/a	n/a	n/a
2655.846	n/a	REC_START	1327923	n/a	LTP280	ltpFR	10	8	n/a	n/a	n/a	n/a	n/a	n/a	n/a	0	0	0	n/a	n/a	n/a	n/a	n/a
2656.288	n/a	REC_WORD	1328144	wordpools/wasnorm_wordpool_less_exclusions.txt	LTP280	ltpFR	10	8	1	GOOSE	649	n/a	n/a	1	n/a	0	0	0	n/a	n/a	n/a	n/a	n/a
2656.95	n/a	REC_WORD	1328475	wordpools/wasnorm_wordpool_less_exclusions.txt	LTP280	ltpFR	10	8	1	BOUILLON	154	n/a	n/a	0	n/a	0	0	0	n/a	n/a	n/a	n/a	n/a
2662.928	n/a	REC_WORD	1331464	wordpools/wasnorm_wordpool_less_exclusions.txt	LTP280	ltpFR	10	8	1	LIPSTICK	829	n/a	n/a	0	n/a	0	0	0	n/a	n/a	n/a	n/a	n/a
2665.002	n/a	REC_WORD	1332501	wordpools/wasnorm_wordpool_less_exclusions.txt	LTP280	ltpFR	10	8	1	PIT	1077	n/a	n/a	0	n/a	0	0	0	n/a	n/a	n/a	n/a	n/a
2665.956	n/a	REC_WORD	1332978	wordpools/wasnorm_wordpool_less_exclusions.txt	LTP280	ltpFR	10	8	1	SWAMP	1416	n/a	n/a	1	n/a	0	0	0	n/a	n/a	n/a	n/a	n/a
2666.406	n/a	REC_WORD	1333203	wordpools/wasnorm_wordpool_less_exclusions.txt	LTP280	ltpFR	10	8	1	SPONGE	1355	n/a	n/a	0	n/a	0	0	0	n/a	n/a	n/a	n/a	n/a
2667.24	n/a	REC_WORD	1333620	wordpools/wasnorm_wordpool_less_exclusions.txt	LTP280	ltpFR	10	8	1	SAILOR	1223	n/a	n/a	1	n/a	0	0	0	n/a	n/a	n/a	n/a	n/a
2742.644	n/a	WORD	1371322	wordpools/wasnorm_wordpool_less_exclusions.txt	LTP280	ltpFR	10	9	1	SHELTER	1282	n/a	n/a	0	n/a	0	0	0	0.422607421875	0.5869140625	0	upper	zerothre.ttf
2746.794	n/a	WORD	1373397	wordpools/wasnorm_wordpool_less_exclusions.txt	LTP280	ltpFR	10	9	1	SOCIETY	1338	n/a	n/a	1	n/a	0	0	0	0.422607421875	0.5869140625	0	upper	zerothre.ttf
2750.992	n/a	WORD	1375496	wordpools/wasnorm_wordpool_less_exclusions.txt	LTP280	ltpFR	10	9	1	COP	376	n/a	n/a	1	n/a	0	0	0	0.422607421875	0.5869140625	0	upper	zerothre.ttf
2755.008	n/a	WORD	1377504	wordpools/wasnorm_wordpool_less_exclusions.txt	LTP280	ltpFR	10	9	0	BALCONY	72	n/a	n/a	1	n/a	0	0	0	0.57763671875	0.412841796875	1	lower	amplitud.ttf
2759.124	n/a	WORD	1379562	wordpools/wasnorm_wordpool_less_exclusions.txt	LTP280	ltpFR	10	9	0	HOUND	724	n/a	n/a	1	n/a	0	0	0	0.57763671875	0.412841796875	1	lower	amplitud.ttf
2763.19	n/a	WORD	1381595	wordpools/wasnorm_wordpool_less_exclusions.txt	LTP280	ltpFR	10	9	0	FLEA	577	n/a	n/a	0	n/a	0	0	0	0.57763671875	0.412841796875	1	lower	amplitud.ttf
2767.038	n/a	WORD	1383519	wordpools/wasnorm_wordpool_less_exclusions.txt	LTP280	ltpFR	10	9	0	FINGERNAIL	568	n/a	n/a	0	n/a	0	0	0	0.57763671875	0.412841796875	1	lower	amplitud.ttf
2770.936	n/a	WORD	1385468	wordpools/wasnorm_wordpool_less_exclusions.txt	LTP280	ltpFR	10	9	0	CONTAINER	366	n/a	n/a	0	n/a	0	0	0	0.57763671875	0.412841796875	1	lower	amplitud.ttf
2775.134	n/a	WORD	1387567	wordpools/wasnorm_wordpool_less_exclusions.txt	LTP280	ltpFR	10	9	1	PEOPLE	1046	n/a	n/a	1	n/a	0	0	0	0.422607421875	0.5869140625	0	upper	zerothre.ttf
2779.018	n/a	WORD	1389509	wordpools/wasnorm_wordpool_less_exclusions.txt	LTP280	ltpFR	10	9	1	SALESMAN	1225	n/a	n/a	1	n/a	0	0	0	0.422607421875	0.5869140625	0	upper	zerothre.ttf
2782.848	n/a	WORD	1391424	wordpools/wasnorm_wordpool_less_exclusions.txt	LTP280	ltpFR	10	9	1	MOTOR	922	n/a	n/a	0	n/a	0	0	0	0.422607421875	0.5869140625	0	upper	zerothre.ttf
2786.998	n/a	WORD	1393499	wordpools/wasnorm_wordpool_less_exclusions.txt	LTP280	ltpFR	10	9	1	DISH	474	n/a	n/a	0	n/a	0	0	0	0.422607421875	0.5869140625	0	upper	zerothre.ttf
2790.828	n/a	WORD	1395414	wordpools/wasnorm_wordpool_less_exclusions.txt	LTP280	ltpFR	10	9	1	SKIN	1318	n/a	n/a	1	n/a	0	0	0	0.422607421875	0.5869140625	0	upper	zerothre.ttf
2794.794	n/a	WORD	1397397	wordpools/wasnorm_wordpool_less_exclusions.txt	LTP280	ltpFR	10	9	0	TAG	1429	n/a	n/a	0	n/a	0	0	0	0.57763671875	0.412841796875	1	lower	amplitud.ttf
2798.826	n/a	WORD	1399413	wordpools/wasnorm_wordpool_less_exclusions.txt	LTP280	ltpFR	10	9	0	COMPANION	357	n/a	n/a	1	n/a	0	0	0	0.57763671875	0.412841796875	1	lower	amplitud.ttf
2802.742	n/a	WORD	1401371	wordpools/wasnorm_wordpool_less_exclusions.txt	LTP280	ltpFR	10	9	0	YACHT	1629	n/a	n/a	1	n/a	0	0	0	0.57763671875	0.412841796875	1	lower	amplitud.ttf
2808.498	n/a	REC_START	1404249	n/a	LTP280	ltpFR	10	9	n/a	n/a	n/a	n/a	n/a	n/a	n/a	0	0	0	n/a	n/a	n/a	n/a	n/a
2810.484	n/a	REC_WORD	1405242	wordpools/wasnorm_wordpool_less_exclusions.txt	LTP280	ltpFR	10	9	1	SKIN	1318	n/a	n/a	1	n/a	0	0	0	n/a	n/a	n/a	n/a	n/a
2811.726	n/a	REC_WORD	1405863	wordpools/wasnorm_wordpool_less_exclusions.txt	LTP280	ltpFR	10	9	0	YACHT	1629	n/a	n/a	1	n/a	0	0	0	n/a	n/a	n/a	n/a	n/a
2812.53	n/a	REC_WORD	1406265	wordpools/wasnorm_wordpool_less_exclusions.txt	LTP280	ltpFR	10	9	0	TAG	1429	n/a	n/a	0	n/a	0	0	0	n/a	n/a	n/a	n/a	n/a
2814.184	n/a	REC_WORD	1407092	wordpools/wasnorm_wordpool_less_exclusions.txt	LTP280	ltpFR	10	9	0	HOUND	724	n/a	n/a	1	n/a	0	0	0	n/a	n/a	n/a	n/a	n/a
2814.8	n/a	REC_WORD	1407400	wordpools/wasnorm_wordpool_less_exclusions.txt	LTP280	ltpFR	10	9	0	FLEA	577	n/a	n/a	0	n/a	0	0	0	n/a	n/a	n/a	n/a	n/a
2821.044	n/a	REC_WORD	1410522	wordpools/wasnorm_wordpool_less_exclusions.txt	LTP280	ltpFR	10	9	0	CONTAINER	366	n/a	n/a	0	n/a	0	0	0	n/a	n/a	n/a	n/a	n/a
2825.996	n/a	REC_WORD	1412998	wordpools/wasnorm_wordpool_less_exclusions.txt	LTP280	ltpFR	10	9	1	SHELTER	1282	n/a	n/a	0	n/a	0	0	0	n/a	n/a	n/a	n/a	n/a
2826.508	n/a	REC_WORD	1413254	wordpools/wasnorm_wordpool_less_exclusions.txt	LTP280	ltpFR	10	9	1	SOCIETY	1338	n/a	n/a	1	n/a	0	0	0	n/a	n/a	n/a	n/a	n/a
2832.378	n/a	REC_WORD	1416189	wordpools/wasnorm_wordpool_less_exclusions.txt	LTP280	ltpFR	10	9	1	COP	376	n/a	n/a	1	n/a	0	0	0	n/a	n/a	n/a	n/a	n/a
2832.998	n/a	REC_WORD	1416499	wordpools/wasnorm_wordpool_less_exclusions.txt	LTP280	ltpFR	10	9	0	BALCONY	72	n/a	n/a	1	n/a	0	0	0	n/a	n/a	n/a	n/a	n/a
2839.148	n/a	REC_WORD	1419574	wordpools/wasnorm_wordpool_less_exclusions.txt	LTP280	ltpFR	10	9	1	PEOPLE	1046	n/a	n/a	1	n/a	0	0	0	n/a	n/a	n/a	n/a	n/a
2839.572	n/a	REC_WORD	1419786	wordpools/wasnorm_wordpool_less_exclusions.txt	LTP280	ltpFR	10	9	1	SALESMAN	1225	n/a	n/a	1	n/a	0	0	0	n/a	n/a	n/a	n/a	n/a
2894.676	n/a	WORD	1447338	wordpools/wasnorm_wordpool_less_exclusions.txt	LTP280	ltpFR	10	10	1	PUBLISHER	1137	n/a	n/a	1	n/a	0	0	0	0.422607421875	0.5869140625	0	upper	zerothre.ttf
2898.574	n/a	WORD	1449287	wordpools/wasnorm_wordpool_less_exclusions.txt	LTP280	ltpFR	10	10	1	PORK	1108	n/a	n/a	1	n/a	0	0	0	0.422607421875	0.5869140625	0	upper	zerothre.ttf
2902.606	n/a	WORD	1451303	wordpools/wasnorm_wordpool_less_exclusions.txt	LTP280	ltpFR	10	10	1	BEAVER	109	n/a	n/a	1	n/a	0	0	0	0.422607421875	0.5869140625	0	upper	zerothre.ttf
2906.472	n/a	WORD	1453236	wordpools/wasnorm_wordpool_less_exclusions.txt	LTP280	ltpFR	10	10	1	LAKE	796	n/a	n/a	0	n/a	0	0	0	0.422607421875	0.5869140625	0	upper	zerothre.ttf
2910.302	n/a	WORD	1455151	wordpools/wasnorm_wordpool_less_exclusions.txt	LTP280	ltpFR	10	10	1	NICOTINE	951	n/a	n/a	0	n/a	0	0	0	0.422607421875	0.5869140625	0	upper	zerothre.ttf
2914.134	n/a	WORD	1457067	wordpools/wasnorm_wordpool_less_exclusions.txt	LTP280	ltpFR	10	10	1	VENUS	1557	n/a	n/a	1	n/a	0	0	0	0.422607421875	0.5869140625	0	upper	zerothre.ttf
2918.116	n/a	WORD	1459058	wordpools/wasnorm_wordpool_less_exclusions.txt	LTP280	ltpFR	10	10	0	FENCE	560	n/a	n/a	1	n/a	0	0	0	0.57763671875	0.412841796875	1	lower	amplitud.ttf
2922.08	n/a	WORD	1461040	wordpools/wasnorm_wordpool_less_exclusions.txt	LTP280	ltpFR	10	10	0	DOOR	486	n/a	n/a	1	n/a	0	0	0	0.57763671875	0.412841796875	1	lower	amplitud.ttf
2926.146	n/a	WORD	1463073	wordpools/wasnorm_wordpool_less_exclusions.txt	LTP280	ltpFR	10	10	0	TORTOISE	1486	n/a	n/a	1	n/a	0	0	0	0.57763671875	0.412841796875	1	lower	amplitud.ttf
2930.044	n/a	WORD	1465022	wordpools/wasnorm_wordpool_less_exclusions.txt	LTP280	ltpFR	10	10	0	GOBLIN	645	n/a	n/a	1	n/a	0	0	0	0.57763671875	0.412841796875	1	lower	amplitud.ttf
2933.926	n/a	WORD	1466963	wordpools/wasnorm_wordpool_less_exclusions.txt	LTP280	ltpFR	10	10	1	TULIP	1517	n/a	n/a	0	n/a	0	0	0	0.422607421875	0.5869140625	0	upper	zerothre.ttf
2938.072	n/a	WORD	1469036	wordpools/wasnorm_wordpool_less_exclusions.txt	LTP280	ltpFR	10	10	1	FLOWER	584	n/a	n/a	1	n/a	0	0	0	0.422607421875	0.5869140625	0	upper	zerothre.ttf
2941.94	n/a	WORD	1470970	wordpools/wasnorm_wordpool_less_exclusions.txt	LTP280	ltpFR	10	10	0	PIZZA	1079	n/a	n/a	0	n/a	0	0	0	0.57763671875	0.412841796875	1	lower	amplitud.ttf
2945.772	n/a	WORD	1472886	wordpools/wasnorm_wordpool_less_exclusions.txt	LTP280	ltpFR	10	10	0	PICNIC	1060	n/a	n/a	1	n/a	0	0	0	0.57763671875	0.412841796875	1	lower	amplitud.ttf
2949.652	n/a	WORD	1474826	wordpools/wasnorm_wordpool_less_exclusions.txt	LTP280	ltpFR	10	10	0	PLANET	1082	n/a	n/a	1	n/a	0	0	0	0.57763671875	0.412841796875	1	lower	amplitud.ttf
2953.836	n/a	WORD	1476918	wordpools/wasnorm_wordpool_less_exclusions.txt	LTP280	ltpFR	10	10	0	SEA	1259	n/a	n/a	1	n/a	0	0	0	0.57763671875	0.412841796875	1	lower	amplitud.ttf
2956.846	n/a	START	1478423	n/a	LTP280	ltpFR	10	n/a	n/a	n/a	n/a	n/a	n/a	n/a	n/a	n/a	n/a	n/a	n/a	n/a	n/a	n/a	n/a
2957.764	n/a	PROB	1478882	n/a	LTP280	ltpFR	10	n/a	n/a	n/a	n/a	n/a	n/a	n/a	5	1	1	3	n/a	n/a	n/a	n/a	n/a
2959.038	n/a	PROB	1479519	n/a	LTP280	ltpFR	10	n/a	n/a	n/a	n/a	n/a	n/a	n/a	14	1	6	7	n/a	n/a	n/a	n/a	n/a
2960.342	n/a	PROB	1480171	n/a	LTP280	ltpFR	10	n/a	n/a	n/a	n/a	n/a	n/a	n/a	10	7	1	2	n/a	n/a	n/a	n/a	n/a
2961.596	n/a	PROB	1480798	n/a	LTP280	ltpFR	10	n/a	n/a	n/a	n/a	n/a	n/a	n/a	6	1	4	1	n/a	n/a	n/a	n/a	n/a
2962.768	n/a	PROB	1481384	n/a	LTP280	ltpFR	10	n/a	n/a	n/a	n/a	n/a	n/a	n/a	15	3	7	5	n/a	n/a	n/a	n/a	n/a
2963.954	n/a	PROB	1481977	n/a	LTP280	ltpFR	10	n/a	n/a	n/a	n/a	n/a	n/a	n/a	14	1	8	5	n/a	n/a	n/a	n/a	n/a
2965.262	n/a	PROB	1482631	n/a	LTP280	ltpFR	10	n/a	n/a	n/a	n/a	n/a	n/a	n/a	11	5	5	1	n/a	n/a	n/a	n/a	n/a
2966.25	n/a	PROB	1483125	n/a	LTP280	ltpFR	10	n/a	n/a	n/a	n/a	n/a	n/a	n/a	11	7	3	1	n/a	n/a	n/a	n/a	n/a
2967.436	n/a	PROB	1483718	n/a	LTP280	ltpFR	10	n/a	n/a	n/a	n/a	n/a	n/a	n/a	7	2	4	1	n/a	n/a	n/a	n/a	n/a
2968.574	n/a	PROB	1484287	n/a	LTP280	ltpFR	10	n/a	n/a	n/a	n/a	n/a	n/a	n/a	12	6	1	5	n/a	n/a	n/a	n/a	n/a
2969.644	n/a	PROB	1484822	n/a	LTP280	ltpFR	10	n/a	n/a	n/a	n/a	n/a	n/a	n/a	2	9	8	6	n/a	n/a	n/a	n/a	n/a
2972.634	n/a	STOP	1486317	n/a	LTP280	ltpFR	10	n/a	n/a	n/a	n/a	n/a	n/a	n/a	n/a	n/a	n/a	n/a	n/a	n/a	n/a	n/a	n/a
2974.732	n/a	REC_START	1487366	n/a	LTP280	ltpFR	10	10	n/a	n/a	n/a	n/a	n/a	n/a	n/a	0	0	0	n/a	n/a	n/a	n/a	n/a
2975.032	n/a	REC_WORD	1487516	wordpools/wasnorm_wordpool_less_exclusions.txt	LTP280	ltpFR	10	10	0	DOOR	486	n/a	n/a	1	n/a	0	0	0	n/a	n/a	n/a	n/a	n/a
2975.686	n/a	REC_WORD	1487843	wordpools/wasnorm_wordpool_less_exclusions.txt	LTP280	ltpFR	10	10	0	TORTOISE	1486	n/a	n/a	1	n/a	0	0	0	n/a	n/a	n/a	n/a	n/a
2976.596	n/a	REC_WORD	1488298	wordpools/wasnorm_wordpool_less_exclusions.txt	LTP280	ltpFR	10	10	0	GOBLIN	645	n/a	n/a	1	n/a	0	0	0	n/a	n/a	n/a	n/a	n/a
2978.136	n/a	REC_WORD	1489068	wordpools/wasnorm_wordpool_less_exclusions.txt	LTP280	ltpFR	10	10	1	NICOTINE	951	n/a	n/a	0	n/a	0	0	0	n/a	n/a	n/a	n/a	n/a
2979.616	n/a	REC_WORD	1489808	wordpools/wasnorm_wordpool_less_exclusions.txt	LTP280	ltpFR	10	10	1	TULIP	1517	n/a	n/a	0	n/a	0	0	0	n/a	n/a	n/a	n/a	n/a
2981.83	n/a	REC_WORD	1490915	wordpools/wasnorm_wordpool_less_exclusions.txt	LTP280	ltpFR	10	10	0	SEA	1259	n/a	n/a	1	n/a	0	0	0	n/a	n/a	n/a	n/a	n/a
3075.332	n/a	START	1537666	n/a	LTP280	ltpFR	10	n/a	n/a	n/a	n/a	n/a	n/a	n/a	n/a	n/a	n/a	n/a	n/a	n/a	n/a	n/a	n/a
3076.838	n/a	PROB	1538419	n/a	LTP280	ltpFR	10	n/a	n/a	n/a	n/a	n/a	n/a	n/a	18	9	9	1	n/a	n/a	n/a	n/a	n/a
3078.344	n/a	PROB	1539172	n/a	LTP280	ltpFR	10	n/a	n/a	n/a	n/a	n/a	n/a	n/a	11	3	7	1	n/a	n/a	n/a	n/a	n/a
3079.382	n/a	PROB	1539691	n/a	LTP280	ltpFR	10	n/a	n/a	n/a	n/a	n/a	n/a	n/a	22	5	9	7	n/a	n/a	n/a	n/a	n/a
3080.972	n/a	PROB	1540486	n/a	LTP280	ltpFR	10	n/a	n/a	n/a	n/a	n/a	n/a	n/a	19	1	9	9	n/a	n/a	n/a	n/a	n/a
3082.326	n/a	PROB	1541163	n/a	LTP280	ltpFR	10	n/a	n/a	n/a	n/a	n/a	n/a	n/a	20	2	9	9	n/a	n/a	n/a	n/a	n/a
3084.05	n/a	PROB	1542025	n/a	LTP280	ltpFR	10	n/a	n/a	n/a	n/a	n/a	n/a	n/a	12	1	9	2	n/a	n/a	n/a	n/a	n/a
3085.756	n/a	PROB	1542878	n/a	LTP280	ltpFR	10	n/a	n/a	n/a	n/a	n/a	n/a	n/a	13	1	3	8	n/a	n/a	n/a	n/a	n/a
3087.362	n/a	PROB	1543681	n/a	LTP280	ltpFR	10	n/a	n/a	n/a	n/a	n/a	n/a	n/a	18	8	4	6	n/a	n/a	n/a	n/a	n/a
3088.934	n/a	PROB	1544467	n/a	LTP280	ltpFR	10	n/a	n/a	n/a	n/a	n/a	n/a	n/a	17	5	9	3	n/a	n/a	n/a	n/a	n/a
3090.36	n/a	STOP	1545180	n/a	LTP280	ltpFR	10	n/a	n/a	n/a	n/a	n/a	n/a	n/a	n/a	n/a	n/a	n/a	n/a	n/a	n/a	n/a	n/a
3092.448	n/a	WORD	1546224	wordpools/wasnorm_wordpool_less_exclusions.txt	LTP280	ltpFR	10	11	0	SAPPHIRE	1234	n/a	n/a	0	n/a	0	0	0	0.57763671875	0.412841796875	1	lower	amplitud.ttf
3095.46	n/a	START	1547730	n/a	LTP280	ltpFR	10	n/a	n/a	n/a	n/a	n/a	n/a	n/a	n/a	n/a	n/a	n/a	n/a	n/a	n/a	n/a	n/a
3096.632	n/a	PROB	1548316	n/a	LTP280	ltpFR	10	n/a	n/a	n/a	n/a	n/a	n/a	n/a	18	8	8	2	n/a	n/a	n/a	n/a	n/a
3098.036	n/a	PROB	1549018	n/a	LTP280	ltpFR	10	n/a	n/a	n/a	n/a	n/a	n/a	n/a	13	1	6	6	n/a	n/a	n/a	n/a	n/a
3099.174	n/a	PROB	1549587	n/a	LTP280	ltpFR	10	n/a	n/a	n/a	n/a	n/a	n/a	n/a	17	1	6	9	n/a	n/a	n/a	n/a	n/a
3100.828	n/a	PROB	1550414	n/a	LTP280	ltpFR	10	n/a	n/a	n/a	n/a	n/a	n/a	n/a	17	6	2	9	n/a	n/a	n/a	n/a	n/a
3102.552	n/a	PROB	1551276	n/a	LTP280	ltpFR	10	n/a	n/a	n/a	n/a	n/a	n/a	n/a	17	7	5	5	n/a	n/a	n/a	n/a	n/a
3103.79	n/a	PROB	1551895	n/a	LTP280	ltpFR	10	n/a	n/a	n/a	n/a	n/a	n/a	n/a	17	7	1	9	n/a	n/a	n/a	n/a	n/a
3105.044	n/a	PROB	1552522	n/a	LTP280	ltpFR	10	n/a	n/a	n/a	n/a	n/a	n/a	n/a	14	6	7	1	n/a	n/a	n/a	n/a	n/a
3106.166	n/a	PROB	1553083	n/a	LTP280	ltpFR	10	n/a	n/a	n/a	n/a	n/a	n/a	n/a	14	3	3	8	n/a	n/a	n/a	n/a	n/a
3107.874	n/a	PROB	1553937	n/a	LTP280	ltpFR	10	n/a	n/a	n/a	n/a	n/a	n/a	n/a	12	1	6	5	n/a	n/a	n/a	n/a	n/a
3109.128	n/a	PROB	1554564	n/a	LTP280	ltpFR	10	n/a	n/a	n/a	n/a	n/a	n/a	n/a	17	2	7	8	n/a	n/a	n/a	n/a	n/a
3110.656	n/a	STOP	1555328	n/a	LTP280	ltpFR	10	n/a	n/a	n/a	n/a	n/a	n/a	n/a	n/a	n/a	n/a	n/a	n/a	n/a	n/a	n/a	n/a
3112.476	n/a	WORD	1556238	wordpools/wasnorm_wordpool_less_exclusions.txt	LTP280	ltpFR	10	11	0	REFRIGERATOR	1179	n/a	n/a	1	n/a	0	0	0	0.57763671875	0.412841796875	1	lower	amplitud.ttf
3115.488	n/a	START	1557744	n/a	LTP280	ltpFR	10	n/a	n/a	n/a	n/a	n/a	n/a	n/a	n/a	n/a	n/a	n/a	n/a	n/a	n/a	n/a	n/a
3116.674	n/a	PROB	1558337	n/a	LTP280	ltpFR	10	n/a	n/a	n/a	n/a	n/a	n/a	n/a	15	7	4	4	n/a	n/a	n/a	n/a	n/a
3118.28	n/a	PROB	1559140	n/a	LTP280	ltpFR	10	n/a	n/a	n/a	n/a	n/a	n/a	n/a	12	2	5	5	n/a	n/a	n/a	n/a	n/a
3119.502	n/a	PROB	1559751	n/a	LTP280	ltpFR	10	n/a	n/a	n/a	n/a	n/a	n/a	n/a	11	5	5	6	n/a	n/a	n/a	n/a	n/a
3121.008	n/a	PROB	1560504	n/a	LTP280	ltpFR	10	n/a	n/a	n/a	n/a	n/a	n/a	n/a	6	3	1	2	n/a	n/a	n/a	n/a	n/a
3123.014	n/a	PROB	1561507	n/a	LTP280	ltpFR	10	n/a	n/a	n/a	n/a	n/a	n/a	n/a	20	8	8	4	n/a	n/a	n/a	n/a	n/a
3124.454	n/a	PROB	1562227	n/a	LTP280	ltpFR	10	n/a	n/a	n/a	n/a	n/a	n/a	n/a	15	1	8	6	n/a	n/a	n/a	n/a	n/a
3126.108	n/a	PROB	1563054	n/a	LTP280	ltpFR	10	n/a	n/a	n/a	n/a	n/a	n/a	n/a	21	8	9	4	n/a	n/a	n/a	n/a	n/a
3127.664	n/a	PROB	1563832	n/a	LTP280	ltpFR	10	n/a	n/a	n/a	n/a	n/a	n/a	n/a	10	1	8	1	n/a	n/a	n/a	n/a	n/a
3129.072	n/a	PROB	1564536	n/a	LTP280	ltpFR	10	n/a	n/a	n/a	n/a	n/a	n/a	n/a	18	4	7	7	n/a	n/a	n/a	n/a	n/a
3130.354	n/a	STOP	1565177	n/a	LTP280	ltpFR	10	n/a	n/a	n/a	n/a	n/a	n/a	n/a	n/a	n/a	n/a	n/a	n/a	n/a	n/a	n/a	n/a
3132.668	n/a	WORD	1566334	wordpools/wasnorm_wordpool_less_exclusions.txt	LTP280	ltpFR	10	11	0	BATTERY	101	n/a	n/a	0	n/a	0	0	0	0.57763671875	0.412841796875	1	lower	amplitud.ttf
3135.68	n/a	START	1567840	n/a	LTP280	ltpFR	10	n/a	n/a	n/a	n/a	n/a	n/a	n/a	n/a	n/a	n/a	n/a	n/a	n/a	n/a	n/a	n/a
3136.668	n/a	PROB	1568334	n/a	LTP280	ltpFR	10	n/a	n/a	n/a	n/a	n/a	n/a	n/a	17	8	1	8	n/a	n/a	n/a	n/a	n/a
3137.804	n/a	PROB	1568902	n/a	LTP280	ltpFR	10	n/a	n/a	n/a	n/a	n/a	n/a	n/a	18	6	8	4	n/a	n/a	n/a	n/a	n/a
3139.41	n/a	PROB	1569705	n/a	LTP280	ltpFR	10	n/a	n/a	n/a	n/a	n/a	n/a	n/a	18	9	4	5	n/a	n/a	n/a	n/a	n/a
3141.218	n/a	PROB	1570609	n/a	LTP280	ltpFR	10	n/a	n/a	n/a	n/a	n/a	n/a	n/a	9	3	5	1	n/a	n/a	n/a	n/a	n/a
3142.472	n/a	PROB	1571236	n/a	LTP280	ltpFR	10	n/a	n/a	n/a	n/a	n/a	n/a	n/a	12	6	3	6	n/a	n/a	n/a	n/a	n/a
3144.046	n/a	PROB	1572023	n/a	LTP280	ltpFR	10	n/a	n/a	n/a	n/a	n/a	n/a	n/a	22	6	9	7	n/a	n/a	n/a	n/a	n/a
3146.236	n/a	PROB	1573118	n/a	LTP280	ltpFR	10	n/a	n/a	n/a	n/a	n/a	n/a	n/a	21	4	8	9	n/a	n/a	n/a	n/a	n/a
3148.026	n/a	PROB	1574013	n/a	LTP280	ltpFR	10	n/a	n/a	n/a	n/a	n/a	n/a	n/a	18	9	7	2	n/a	n/a	n/a	n/a	n/a
3149.398	n/a	PROB	1574699	n/a	LTP280	ltpFR	10	n/a	n/a	n/a	n/a	n/a	n/a	n/a	9	2	5	1	n/a	n/a	n/a	n/a	n/a
3150.618	n/a	STOP	1575309	n/a	LTP280	ltpFR	10	n/a	n/a	n/a	n/a	n/a	n/a	n/a	n/a	n/a	n/a	n/a	n/a	n/a	n/a	n/a	n/a
3152.862	n/a	WORD	1576431	wordpools/wasnorm_wordpool_less_exclusions.txt	LTP280	ltpFR	10	11	0	ARM	38	n/a	n/a	1	n/a	0	0	0	0.57763671875	0.412841796875	1	lower	amplitud.ttf
3155.874	n/a	START	1577937	n/a	LTP280	ltpFR	10	n/a	n/a	n/a	n/a	n/a	n/a	n/a	n/a	n/a	n/a	n/a	n/a	n/a	n/a	n/a	n/a
3156.878	n/a	PROB	1578439	n/a	LTP280	ltpFR	10	n/a	n/a	n/a	n/a	n/a	n/a	n/a	11	5	2	4	n/a	n/a	n/a	n/a	n/a
3159.254	n/a	PROB	1579627	n/a	LTP280	ltpFR	10	n/a	n/a	n/a	n/a	n/a	n/a	n/a	13	6	6	1	n/a	n/a	n/a	n/a	n/a
3160.558	n/a	PROB	1580279	n/a	LTP280	ltpFR	10	n/a	n/a	n/a	n/a	n/a	n/a	n/a	12	1	6	5	n/a	n/a	n/a	n/a	n/a
3161.66	n/a	PROB	1580830	n/a	LTP280	ltpFR	10	n/a	n/a	n/a	n/a	n/a	n/a	n/a	14	3	6	5	n/a	n/a	n/a	n/a	n/a
3163.134	n/a	PROB	1581567	n/a	LTP280	ltpFR	10	n/a	n/a	n/a	n/a	n/a	n/a	n/a	15	3	9	2	n/a	n/a	n/a	n/a	n/a
3164.658	n/a	PROB	1582329	n/a	LTP280	ltpFR	10	n/a	n/a	n/a	n/a	n/a	n/a	n/a	11	1	3	7	n/a	n/a	n/a	n/a	n/a
3165.594	n/a	PROB	1582797	n/a	LTP280	ltpFR	10	n/a	n/a	n/a	n/a	n/a	n/a	n/a	19	6	4	9	n/a	n/a	n/a	n/a	n/a
3167.92	n/a	PROB	1583960	n/a	LTP280	ltpFR	10	n/a	n/a	n/a	n/a	n/a	n/a	n/a	11	9	1	1	n/a	n/a	n/a	n/a	n/a
3169.024	n/a	PROB	1584512	n/a	LTP280	ltpFR	10	n/a	n/a	n/a	n/a	n/a	n/a	n/a	18	8	9	1	n/a	n/a	n/a	n/a	n/a
3170.194	n/a	PROB	1585097	n/a	LTP280	ltpFR	10	n/a	n/a	n/a	n/a	n/a	n/a	n/a	21	8	9	7	n/a	n/a	n/a	n/a	n/a
3171.804	n/a	STOP	1585902	n/a	LTP280	ltpFR	10	n/a	n/a	n/a	n/a	n/a	n/a	n/a	n/a	n/a	n/a	n/a	n/a	n/a	n/a	n/a	n/a
3172.754	n/a	WORD	1586377	wordpools/wasnorm_wordpool_less_exclusions.txt	LTP280	ltpFR	10	11	0	ELBOW	520	n/a	n/a	0	n/a	0	0	0	0.57763671875	0.412841796875	1	lower	amplitud.ttf
3175.768	n/a	START	1587884	n/a	LTP280	ltpFR	10	n/a	n/a	n/a	n/a	n/a	n/a	n/a	n/a	n/a	n/a	n/a	n/a	n/a	n/a	n/a	n/a
3176.67	n/a	PROB	1588335	n/a	LTP280	ltpFR	10	n/a	n/a	n/a	n/a	n/a	n/a	n/a	18	7	4	7	n/a	n/a	n/a	n/a	n/a
3178.326	n/a	PROB	1589163	n/a	LTP280	ltpFR	10	n/a	n/a	n/a	n/a	n/a	n/a	n/a	10	1	1	8	n/a	n/a	n/a	n/a	n/a
3179.414	n/a	PROB	1589707	n/a	LTP280	ltpFR	10	n/a	n/a	n/a	n/a	n/a	n/a	n/a	14	4	1	9	n/a	n/a	n/a	n/a	n/a
3180.902	n/a	PROB	1590451	n/a	LTP280	ltpFR	10	n/a	n/a	n/a	n/a	n/a	n/a	n/a	18	8	5	3	n/a	n/a	n/a	n/a	n/a
3182.51	n/a	PROB	1591255	n/a	LTP280	ltpFR	10	n/a	n/a	n/a	n/a	n/a	n/a	n/a	21	9	3	9	n/a	n/a	n/a	n/a	n/a
3184.114	n/a	PROB	1592057	n/a	LTP280	ltpFR	10	n/a	n/a	n/a	n/a	n/a	n/a	n/a	9	3	1	5	n/a	n/a	n/a	n/a	n/a
3185.47	n/a	PROB	1592735	n/a	LTP280	ltpFR	10	n/a	n/a	n/a	n/a	n/a	n/a	n/a	16	4	8	4	n/a	n/a	n/a	n/a	n/a
3186.826	n/a	PROB	1593413	n/a	LTP280	ltpFR	10	n/a	n/a	n/a	n/a	n/a	n/a	n/a	1	9	6	5	n/a	n/a	n/a	n/a	n/a
3188.78	n/a	PROB	1594390	n/a	LTP280	ltpFR	10	n/a	n/a	n/a	n/a	n/a	n/a	n/a	19	9	4	6	n/a	n/a	n/a	n/a	n/a
3190.742	n/a	STOP	1595371	n/a	LTP280	ltpFR	10	n/a	n/a	n/a	n/a	n/a	n/a	n/a	n/a	n/a	n/a	n/a	n/a	n/a	n/a	n/a	n/a
3192.982	n/a	WORD	1596491	wordpools/wasnorm_wordpool_less_exclusions.txt	LTP280	ltpFR	10	11	0	PATRIOT	1026	n/a	n/a	1	n/a	0	0	0	0.57763671875	0.412841796875	1	lower	amplitud.ttf
3195.994	n/a	START	1597997	n/a	LTP280	ltpFR	10	n/a	n/a	n/a	n/a	n/a	n/a	n/a	n/a	n/a	n/a	n/a	n/a	n/a	n/a	n/a	n/a
3197.164	n/a	PROB	1598582	n/a	LTP280	ltpFR	10	n/a	n/a	n/a	n/a	n/a	n/a	n/a	21	7	7	7	n/a	n/a	n/a	n/a	n/a
3198.588	n/a	PROB	1599294	n/a	LTP280	ltpFR	10	n/a	n/a	n/a	n/a	n/a	n/a	n/a	13	5	5	3	n/a	n/a	n/a	n/a	n/a
3199.824	n/a	PROB	1599912	n/a	LTP280	ltpFR	10	n/a	n/a	n/a	n/a	n/a	n/a	n/a	8	1	1	6	n/a	n/a	n/a	n/a	n/a
3200.878	n/a	PROB	1600439	n/a	LTP280	ltpFR	10	n/a	n/a	n/a	n/a	n/a	n/a	n/a	15	3	3	9	n/a	n/a	n/a	n/a	n/a
3203.588	n/a	PROB	1601794	n/a	LTP280	ltpFR	10	n/a	n/a	n/a	n/a	n/a	n/a	n/a	1	9	4	7	n/a	n/a	n/a	n/a	n/a
3205.278	n/a	PROB	1602639	n/a	LTP280	ltpFR	10	n/a	n/a	n/a	n/a	n/a	n/a	n/a	20	7	8	5	n/a	n/a	n/a	n/a	n/a
