onset	duration	trial_type	sample	stim_file	subject	experiment	session	trial	item_name	item_num	list	answer	test_x	test_y	test_z
215.054	n/a	SESS_START	107527	n/a	LTP278	ltpFR2	12	n/a	n/a	n/a	n/a	n/a	0	0	0
227.552	n/a	START	113776	n/a	LTP278	ltpFR2	12	n/a	n/a	n/a	-1	n/a	n/a	n/a	n/a
227.586	n/a	PROB	113793	n/a	LTP278	ltpFR2	12	n/a	n/a	n/a	-1	12	5	5	2
228.784	n/a	PROB	114392	n/a	LTP278	ltpFR2	12	n/a	n/a	n/a	-1	21	9	9	3
230.182	n/a	PROB	115091	n/a	LTP278	ltpFR2	12	n/a	n/a	n/a	-1	2	5	6	9
231.996	n/a	PROB	115998	n/a	LTP278	ltpFR2	12	n/a	n/a	n/a	-1	15	7	6	2
234.026	n/a	PROB	117013	n/a	LTP278	ltpFR2	12	n/a	n/a	n/a	-1	11	9	1	1
235.458	n/a	PROB	117729	n/a	LTP278	ltpFR2	12	n/a	n/a	n/a	-1	12	3	5	4
237.088	n/a	PROB	118544	n/a	LTP278	ltpFR2	12	n/a	n/a	n/a	-1	19	7	4	8
238.786	n/a	STOP	119393	n/a	LTP278	ltpFR2	12	n/a	n/a	n/a	-1	n/a	n/a	n/a	n/a
271.304	n/a	WORD	135652	wordpools/wasnorm_wordpool_576.txt	LTP278	ltpFR2	12	1	COCOON	339	n/a	n/a	0	0	0
274.032	n/a	WORD	137016	wordpools/wasnorm_wordpool_576.txt	LTP278	ltpFR2	12	1	MAMMAL	861	n/a	n/a	0	0	0
276.796	n/a	WORD	138398	wordpools/wasnorm_wordpool_576.txt	LTP278	ltpFR2	12	1	MILK	895	n/a	n/a	0	0	0
279.508	n/a	WORD	139754	wordpools/wasnorm_wordpool_576.txt	LTP278	ltpFR2	12	1	DOLPHIN	483	n/a	n/a	0	0	0
282.054	n/a	WORD	141027	wordpools/wasnorm_wordpool_576.txt	LTP278	ltpFR2	12	1	CRITIC	410	n/a	n/a	0	0	0
284.834	n/a	WORD	142417	wordpools/wasnorm_wordpool_576.txt	LTP278	ltpFR2	12	1	DUSTPAN	509	n/a	n/a	0	0	0
287.396	n/a	WORD	143698	wordpools/wasnorm_wordpool_576.txt	LTP278	ltpFR2	12	1	CONVICT	371	n/a	n/a	0	0	0
289.86	n/a	WORD	144930	wordpools/wasnorm_wordpool_576.txt	LTP278	ltpFR2	12	1	RADISH	1158	n/a	n/a	0	0	0
292.356	n/a	WORD	146178	wordpools/wasnorm_wordpool_576.txt	LTP278	ltpFR2	12	1	WHISKERS	1605	n/a	n/a	0	0	0
294.97	n/a	WORD	147485	wordpools/wasnorm_wordpool_576.txt	LTP278	ltpFR2	12	1	CUSTARD	429	n/a	n/a	0	0	0
297.664	n/a	WORD	148832	wordpools/wasnorm_wordpool_576.txt	LTP278	ltpFR2	12	1	BUTCHER	203	n/a	n/a	0	0	0
300.128	n/a	WORD	150064	wordpools/wasnorm_wordpool_576.txt	LTP278	ltpFR2	12	1	FARMER	553	n/a	n/a	0	0	0
302.674	n/a	WORD	151337	wordpools/wasnorm_wordpool_576.txt	LTP278	ltpFR2	12	1	LACE	792	n/a	n/a	0	0	0
305.22	n/a	WORD	152610	wordpools/wasnorm_wordpool_576.txt	LTP278	ltpFR2	12	1	POET	1095	n/a	n/a	0	0	0
307.75	n/a	WORD	153875	wordpools/wasnorm_wordpool_576.txt	LTP278	ltpFR2	12	1	CANYON	235	n/a	n/a	0	0	0
310.446	n/a	WORD	155223	wordpools/wasnorm_wordpool_576.txt	LTP278	ltpFR2	12	1	SLOPE	1328	n/a	n/a	0	0	0
313.026	n/a	WORD	156513	wordpools/wasnorm_wordpool_576.txt	LTP278	ltpFR2	12	1	PANTHER	1009	n/a	n/a	0	0	0
315.622	n/a	WORD	157811	wordpools/wasnorm_wordpool_576.txt	LTP278	ltpFR2	12	1	BODY	145	n/a	n/a	0	0	0
318.218	n/a	WORD	159109	wordpools/wasnorm_wordpool_576.txt	LTP278	ltpFR2	12	1	ASIA	46	n/a	n/a	0	0	0
320.916	n/a	WORD	160458	wordpools/wasnorm_wordpool_576.txt	LTP278	ltpFR2	12	1	ORANGE	980	n/a	n/a	0	0	0
323.726	n/a	WORD	161863	wordpools/wasnorm_wordpool_576.txt	LTP278	ltpFR2	12	1	WINDOW	1611	n/a	n/a	0	0	0
326.472	n/a	WORD	163236	wordpools/wasnorm_wordpool_576.txt	LTP278	ltpFR2	12	1	GLASS	639	n/a	n/a	0	0	0
329.086	n/a	WORD	164543	wordpools/wasnorm_wordpool_576.txt	LTP278	ltpFR2	12	1	COUNTRY	388	n/a	n/a	0	0	0
331.648	n/a	WORD	165824	wordpools/wasnorm_wordpool_576.txt	LTP278	ltpFR2	12	1	CONCERT	360	n/a	n/a	0	0	0
333.262	n/a	START	166631	n/a	LTP278	ltpFR2	12	n/a	n/a	n/a	1	n/a	n/a	n/a	n/a
334.152	n/a	DISTRACTOR	167076	n/a	LTP278	ltpFR2	12	1	n/a	n/a	n/a	n/a	0	0	0
334.162	n/a	PROB	167081	n/a	LTP278	ltpFR2	12	n/a	n/a	n/a	1	21	9	3	9
337.756	n/a	PROB	168878	n/a	LTP278	ltpFR2	12	n/a	n/a	n/a	1	14	7	2	5
339.62	n/a	PROB	169810	n/a	LTP278	ltpFR2	12	n/a	n/a	n/a	1	12	4	1	7
341.034	n/a	PROB	170517	n/a	LTP278	ltpFR2	12	n/a	n/a	n/a	1	19	7	7	5
342.582	n/a	PROB	171291	n/a	LTP278	ltpFR2	12	n/a	n/a	n/a	1	14	5	4	5
344.996	n/a	PROB	172498	n/a	LTP278	ltpFR2	12	n/a	n/a	n/a	1	16	6	9	1
346.794	n/a	PROB	173397	n/a	LTP278	ltpFR2	12	n/a	n/a	n/a	1	52	7	8	5
349.556	n/a	PROB	174778	n/a	LTP278	ltpFR2	12	n/a	n/a	n/a	1	18	3	9	6
351.82	n/a	PROB	175910	n/a	LTP278	ltpFR2	12	n/a	n/a	n/a	1	15	4	4	7
353.2	n/a	PROB	176600	n/a	LTP278	ltpFR2	12	n/a	n/a	n/a	1	20	7	8	5
354.916	n/a	PROB	177458	n/a	LTP278	ltpFR2	12	n/a	n/a	n/a	1	22	9	4	9
356.33	n/a	STOP	178165	n/a	LTP278	ltpFR2	12	n/a	n/a	n/a	1	n/a	n/a	n/a	n/a
359.076	n/a	REC_START	179538	n/a	LTP278	ltpFR2	12	1	n/a	n/a	n/a	n/a	0	0	0
360.15	n/a	REC_WORD	180075	wordpools/wasnorm_wordpool_576.txt	LTP278	ltpFR2	12	1	DOLPHIN	483	n/a	n/a	0	0	0
360.704	n/a	REC_WORD	180352	wordpools/wasnorm_wordpool_576.txt	LTP278	ltpFR2	12	1	MAMMAL	861	n/a	n/a	0	0	0
361.36	n/a	REC_WORD	180680	wordpools/wasnorm_wordpool_576.txt	LTP278	ltpFR2	12	1	MILK	895	n/a	n/a	0	0	0
361.932	n/a	REC_WORD	180966	wordpools/wasnorm_wordpool_576.txt	LTP278	ltpFR2	12	1	COCOON	339	n/a	n/a	0	0	0
362.784	n/a	REC_WORD_VV	181392	wordpools/wasnorm_wordpool_576.txt	LTP278	ltpFR2	12	1	<>	-1	n/a	n/a	0	0	0
363.256	n/a	REC_WORD	181628	wordpools/wasnorm_wordpool_576.txt	LTP278	ltpFR2	12	1	COUNTRY	388	n/a	n/a	0	0	0
364.722	n/a	REC_WORD	182361	wordpools/wasnorm_wordpool_576.txt	LTP278	ltpFR2	12	1	CONCERT	360	n/a	n/a	0	0	0
365.392	n/a	REC_WORD	182696	wordpools/wasnorm_wordpool_576.txt	LTP278	ltpFR2	12	1	LACE	792	n/a	n/a	0	0	0
372.828	n/a	REC_WORD	186414	wordpools/wasnorm_wordpool_576.txt	LTP278	ltpFR2	12	1	ITEM	746	n/a	n/a	0	0	0
449.724	n/a	WORD	224862	wordpools/wasnorm_wordpool_576.txt	LTP278	ltpFR2	12	2	HAMPER	682	n/a	n/a	0	0	0
452.154	n/a	WORD	226077	wordpools/wasnorm_wordpool_576.txt	LTP278	ltpFR2	12	2	GRIZZLY	662	n/a	n/a	0	0	0
454.934	n/a	WORD	227467	wordpools/wasnorm_wordpool_576.txt	LTP278	ltpFR2	12	2	PACKAGE	997	n/a	n/a	0	0	0
457.596	n/a	WORD	228798	wordpools/wasnorm_wordpool_576.txt	LTP278	ltpFR2	12	2	CASHIER	254	n/a	n/a	0	0	0
460.158	n/a	WORD	230079	wordpools/wasnorm_wordpool_576.txt	LTP278	ltpFR2	12	2	POLICE	1098	n/a	n/a	0	0	0
462.788	n/a	WORD	231394	wordpools/wasnorm_wordpool_576.txt	LTP278	ltpFR2	12	2	PERCH	1048	n/a	n/a	0	0	0
465.518	n/a	WORD	232759	wordpools/wasnorm_wordpool_576.txt	LTP278	ltpFR2	12	2	HAWK	692	n/a	n/a	0	0	0
467.982	n/a	WORD	233991	wordpools/wasnorm_wordpool_576.txt	LTP278	ltpFR2	12	2	BRIEFCASE	175	n/a	n/a	0	0	0
470.76	n/a	WORD	235380	wordpools/wasnorm_wordpool_576.txt	LTP278	ltpFR2	12	2	CHEST	295	n/a	n/a	0	0	0
473.556	n/a	WORD	236778	wordpools/wasnorm_wordpool_576.txt	LTP278	ltpFR2	12	2	FOREHEAD	592	n/a	n/a	0	0	0
476.102	n/a	WORD	238051	wordpools/wasnorm_wordpool_576.txt	LTP278	ltpFR2	12	2	HEDGE	699	n/a	n/a	0	0	0
478.582	n/a	WORD	239291	wordpools/wasnorm_wordpool_576.txt	LTP278	ltpFR2	12	2	CURTAIN	427	n/a	n/a	0	0	0
481.36	n/a	WORD	240680	wordpools/wasnorm_wordpool_576.txt	LTP278	ltpFR2	12	2	ZIPPER	1636	n/a	n/a	0	0	0
483.924	n/a	WORD	241962	wordpools/wasnorm_wordpool_576.txt	LTP278	ltpFR2	12	2	PRIMATE	1123	n/a	n/a	0	0	0
486.552	n/a	WORD	243276	wordpools/wasnorm_wordpool_576.txt	LTP278	ltpFR2	12	2	STREAM	1392	n/a	n/a	0	0	0
489.166	n/a	WORD	244583	wordpools/wasnorm_wordpool_576.txt	LTP278	ltpFR2	12	2	TART	1436	n/a	n/a	0	0	0
491.896	n/a	WORD	245948	wordpools/wasnorm_wordpool_576.txt	LTP278	ltpFR2	12	2	ICING	732	n/a	n/a	0	0	0
494.324	n/a	WORD	247162	wordpools/wasnorm_wordpool_576.txt	LTP278	ltpFR2	12	2	LABEL	790	n/a	n/a	0	0	0
497.138	n/a	WORD	248569	wordpools/wasnorm_wordpool_576.txt	LTP278	ltpFR2	12	2	DORM	488	n/a	n/a	0	0	0
499.65	n/a	WORD	249825	wordpools/wasnorm_wordpool_576.txt	LTP278	ltpFR2	12	2	COWBOY	395	n/a	n/a	0	0	0
502.28	n/a	WORD	251140	wordpools/wasnorm_wordpool_576.txt	LTP278	ltpFR2	12	2	JUGGLER	763	n/a	n/a	0	0	0
504.844	n/a	WORD	252422	wordpools/wasnorm_wordpool_576.txt	LTP278	ltpFR2	12	2	BALLOON	75	n/a	n/a	0	0	0
507.456	n/a	WORD	253728	wordpools/wasnorm_wordpool_576.txt	LTP278	ltpFR2	12	2	HORSE	719	n/a	n/a	0	0	0
510.234	n/a	WORD	255117	wordpools/wasnorm_wordpool_576.txt	LTP278	ltpFR2	12	2	JUNGLE	764	n/a	n/a	0	0	0
511.85	n/a	START	255925	n/a	LTP278	ltpFR2	12	n/a	n/a	n/a	2	n/a	n/a	n/a	n/a
512.842	n/a	DISTRACTOR	256421	n/a	LTP278	ltpFR2	12	2	n/a	n/a	n/a	n/a	0	0	0
512.848	n/a	PROB	256424	n/a	LTP278	ltpFR2	12	n/a	n/a	n/a	2	17	3	5	9
518.754	n/a	PROB	259377	n/a	LTP278	ltpFR2	12	n/a	n/a	n/a	2	18	4	6	8
520.086	n/a	PROB	260043	n/a	LTP278	ltpFR2	12	n/a	n/a	n/a	2	9	1	4	2
522.066	n/a	PROB	261033	n/a	LTP278	ltpFR2	12	n/a	n/a	n/a	2	14	1	6	7
523.664	n/a	PROB	261832	n/a	LTP278	ltpFR2	12	n/a	n/a	n/a	2	12	6	4	2
525.146	n/a	PROB	262573	n/a	LTP278	ltpFR2	12	n/a	n/a	n/a	2	12	4	5	3
527.408	n/a	PROB	263704	n/a	LTP278	ltpFR2	12	n/a	n/a	n/a	2	12	6	3	3
528.69	n/a	PROB	264345	n/a	LTP278	ltpFR2	12	n/a	n/a	n/a	2	18	7	6	5
532.084	n/a	PROB	266042	n/a	LTP278	ltpFR2	12	n/a	n/a	n/a	2	22	7	8	7
535.85	n/a	STOP	267925	n/a	LTP278	ltpFR2	12	n/a	n/a	n/a	2	n/a	n/a	n/a	n/a
537.678	n/a	REC_START	268839	n/a	LTP278	ltpFR2	12	2	n/a	n/a	n/a	n/a	0	0	0
540.338	n/a	REC_WORD_VV	270169	wordpools/wasnorm_wordpool_576.txt	LTP278	ltpFR2	12	2	<>	-1	n/a	n/a	0	0	0
542.898	n/a	REC_WORD	271449	wordpools/wasnorm_wordpool_576.txt	LTP278	ltpFR2	12	2	GRIZZLY	662	n/a	n/a	0	0	0
543.92	n/a	REC_WORD	271960	wordpools/wasnorm_wordpool_576.txt	LTP278	ltpFR2	12	2	POLICE	1098	n/a	n/a	0	0	0
556.46	n/a	REC_WORD	278230	wordpools/wasnorm_wordpool_576.txt	LTP278	ltpFR2	12	2	ZIPPER	1636	n/a	n/a	0	0	0
557.116	n/a	REC_WORD	278558	wordpools/wasnorm_wordpool_576.txt	LTP278	ltpFR2	12	2	CURTAIN	427	n/a	n/a	0	0	0
628.376	n/a	WORD	314188	wordpools/wasnorm_wordpool_576.txt	LTP278	ltpFR2	12	3	DRESS	495	n/a	n/a	0	0	0
630.972	n/a	WORD	315486	wordpools/wasnorm_wordpool_576.txt	LTP278	ltpFR2	12	3	SILK	1307	n/a	n/a	0	0	0
633.634	n/a	WORD	316817	wordpools/wasnorm_wordpool_576.txt	LTP278	ltpFR2	12	3	PREACHER	1119	n/a	n/a	0	0	0
636.13	n/a	WORD	318065	wordpools/wasnorm_wordpool_576.txt	LTP278	ltpFR2	12	3	FLASK	576	n/a	n/a	0	0	0
638.56	n/a	WORD	319280	wordpools/wasnorm_wordpool_576.txt	LTP278	ltpFR2	12	3	SHORTCAKE	1292	n/a	n/a	0	0	0
641.124	n/a	WORD	320562	wordpools/wasnorm_wordpool_576.txt	LTP278	ltpFR2	12	3	APPLE	33	n/a	n/a	0	0	0
643.888	n/a	WORD	321944	wordpools/wasnorm_wordpool_576.txt	LTP278	ltpFR2	12	3	BLACKBOARD	133	n/a	n/a	0	0	0
646.516	n/a	WORD	323258	wordpools/wasnorm_wordpool_576.txt	LTP278	ltpFR2	12	3	DRESSER	496	n/a	n/a	0	0	0
649.228	n/a	WORD	324614	wordpools/wasnorm_wordpool_576.txt	LTP278	ltpFR2	12	3	LIGHTNING	820	n/a	n/a	0	0	0
651.776	n/a	WORD	325888	wordpools/wasnorm_wordpool_576.txt	LTP278	ltpFR2	12	3	CLAMP	316	n/a	n/a	0	0	0
654.504	n/a	WORD	327252	wordpools/wasnorm_wordpool_576.txt	LTP278	ltpFR2	12	3	BRICK	172	n/a	n/a	0	0	0
657.184	n/a	WORD	328592	wordpools/wasnorm_wordpool_576.txt	LTP278	ltpFR2	12	3	PRINCE	1124	n/a	n/a	0	0	0
659.898	n/a	WORD	329949	wordpools/wasnorm_wordpool_576.txt	LTP278	ltpFR2	12	3	DAISY	435	n/a	n/a	0	0	0
662.342	n/a	WORD	331171	wordpools/wasnorm_wordpool_576.txt	LTP278	ltpFR2	12	3	ROD	1203	n/a	n/a	0	0	0
665.106	n/a	WORD	332553	wordpools/wasnorm_wordpool_576.txt	LTP278	ltpFR2	12	3	LAVA	804	n/a	n/a	0	0	0
667.702	n/a	WORD	333851	wordpools/wasnorm_wordpool_576.txt	LTP278	ltpFR2	12	3	PADDING	999	n/a	n/a	0	0	0
670.43	n/a	WORD	335215	wordpools/wasnorm_wordpool_576.txt	LTP278	ltpFR2	12	3	SHARK	1275	n/a	n/a	0	0	0
672.944	n/a	WORD	336472	wordpools/wasnorm_wordpool_576.txt	LTP278	ltpFR2	12	3	KEEPER	769	n/a	n/a	0	0	0
675.49	n/a	WORD	337745	wordpools/wasnorm_wordpool_576.txt	LTP278	ltpFR2	12	3	FOOTBALL	591	n/a	n/a	0	0	0
678.27	n/a	WORD	339135	wordpools/wasnorm_wordpool_576.txt	LTP278	ltpFR2	12	3	SOFTBALL	1343	n/a	n/a	0	0	0
680.916	n/a	WORD	340458	wordpools/wasnorm_wordpool_576.txt	LTP278	ltpFR2	12	3	STONE	1385	n/a	n/a	0	0	0
683.412	n/a	WORD	341706	wordpools/wasnorm_wordpool_576.txt	LTP278	ltpFR2	12	3	PLAID	1080	n/a	n/a	0	0	0
686.09	n/a	WORD	343045	wordpools/wasnorm_wordpool_576.txt	LTP278	ltpFR2	12	3	WASP	1593	n/a	n/a	0	0	0
688.67	n/a	WORD	344335	wordpools/wasnorm_wordpool_576.txt	LTP278	ltpFR2	12	3	SWIMMER	1420	n/a	n/a	0	0	0
690.284	n/a	START	345142	n/a	LTP278	ltpFR2	12	n/a	n/a	n/a	3	n/a	n/a	n/a	n/a
691.254	n/a	DISTRACTOR	345627	n/a	LTP278	ltpFR2	12	3	n/a	n/a	n/a	n/a	0	0	0
691.266	n/a	PROB	345633	n/a	LTP278	ltpFR2	12	n/a	n/a	n/a	3	21	9	5	7
695.344	n/a	PROB	347672	n/a	LTP278	ltpFR2	12	n/a	n/a	n/a	3	15	5	8	2
697.058	n/a	PROB	348529	n/a	LTP278	ltpFR2	12	n/a	n/a	n/a	3	15	3	6	6
699.604	n/a	PROB	349802	n/a	LTP278	ltpFR2	12	n/a	n/a	n/a	3	13	3	1	9
701.168	n/a	PROB	350584	n/a	LTP278	ltpFR2	12	n/a	n/a	n/a	3	17	3	7	7
704.33	n/a	PROB	352165	n/a	LTP278	ltpFR2	12	n/a	n/a	n/a	3	8	1	2	5
706.794	n/a	PROB	353397	n/a	LTP278	ltpFR2	12	n/a	n/a	n/a	3	16	6	9	1
708.358	n/a	PROB	354179	n/a	LTP278	ltpFR2	12	n/a	n/a	n/a	3	20	8	9	3
714.12	n/a	STOP	357060	n/a	LTP278	ltpFR2	12	n/a	n/a	n/a	3	n/a	n/a	n/a	n/a
716.098	n/a	REC_START	358049	n/a	LTP278	ltpFR2	12	3	n/a	n/a	n/a	n/a	0	0	0
716.886	n/a	REC_WORD	358443	wordpools/wasnorm_wordpool_576.txt	LTP278	ltpFR2	12	3	STONE	1385	n/a	n/a	0	0	0
717.994	n/a	REC_WORD	358997	wordpools/wasnorm_wordpool_576.txt	LTP278	ltpFR2	12	3	SOFTBALL	1343	n/a	n/a	0	0	0
719.216	n/a	REC_WORD	359608	wordpools/wasnorm_wordpool_576.txt	LTP278	ltpFR2	12	3	PLAID	1080	n/a	n/a	0	0	0
725.522	n/a	REC_WORD	362761	wordpools/wasnorm_wordpool_576.txt	LTP278	ltpFR2	12	3	SWIMMER	1420	n/a	n/a	0	0	0
806.73	n/a	DISTRACTOR	403365	n/a	LTP278	ltpFR2	12	4	n/a	n/a	n/a	n/a	0	0	0
806.73	n/a	START	403365	n/a	LTP278	ltpFR2	12	n/a	n/a	n/a	4	n/a	n/a	n/a	n/a
806.762	n/a	PROB	403381	n/a	LTP278	ltpFR2	12	n/a	n/a	n/a	4	18	2	7	9
808.294	n/a	PROB	404147	n/a	LTP278	ltpFR2	12	n/a	n/a	n/a	4	11	3	4	4
810.458	n/a	PROB	405229	n/a	LTP278	ltpFR2	12	n/a	n/a	n/a	4	15	8	6	1
812.888	n/a	PROB	406444	n/a	LTP278	ltpFR2	12	n/a	n/a	n/a	4	15	1	5	9
814.284	n/a	PROB	407142	n/a	LTP278	ltpFR2	12	n/a	n/a	n/a	4	10	4	4	2
816.198	n/a	PROB	408099	n/a	LTP278	ltpFR2	12	n/a	n/a	n/a	4	9	3	4	2
818.096	n/a	PROB	409048	n/a	LTP278	ltpFR2	12	n/a	n/a	n/a	4	13	4	1	8
821.292	n/a	PROB	410646	n/a	LTP278	ltpFR2	12	n/a	n/a	n/a	4	8	2	2	4
822.722	n/a	PROB	411361	n/a	LTP278	ltpFR2	12	n/a	n/a	n/a	4	11	6	1	4
824.32	n/a	PROB	412160	n/a	LTP278	ltpFR2	12	n/a	n/a	n/a	4	14	7	6	1
825.768	n/a	PROB	412884	n/a	LTP278	ltpFR2	12	n/a	n/a	n/a	4	16	2	5	9
830.73	n/a	STOP	415365	n/a	LTP278	ltpFR2	12	n/a	n/a	n/a	4	n/a	n/a	n/a	n/a
831.71	n/a	WORD	415855	wordpools/wasnorm_wordpool_576.txt	LTP278	ltpFR2	12	4	COD	340	n/a	n/a	0	0	0
834.388	n/a	WORD	417194	wordpools/wasnorm_wordpool_576.txt	LTP278	ltpFR2	12	4	CYCLONE	431	n/a	n/a	0	0	0
836.92	n/a	WORD	418460	wordpools/wasnorm_wordpool_576.txt	LTP278	ltpFR2	12	4	NURSE	963	n/a	n/a	0	0	0
839.614	n/a	WORD	419807	wordpools/wasnorm_wordpool_576.txt	LTP278	ltpFR2	12	4	GAVEL	627	n/a	n/a	0	0	0
842.078	n/a	WORD	421039	wordpools/wasnorm_wordpool_576.txt	LTP278	ltpFR2	12	4	JUDGE	761	n/a	n/a	0	0	0
844.506	n/a	WORD	422253	wordpools/wasnorm_wordpool_576.txt	LTP278	ltpFR2	12	4	KLEENEX	782	n/a	n/a	0	0	0
847.154	n/a	WORD	423577	wordpools/wasnorm_wordpool_576.txt	LTP278	ltpFR2	12	4	SCALPEL	1243	n/a	n/a	0	0	0
849.75	n/a	WORD	424875	wordpools/wasnorm_wordpool_576.txt	LTP278	ltpFR2	12	4	ROCKET	1202	n/a	n/a	0	0	0
852.346	n/a	WORD	426173	wordpools/wasnorm_wordpool_576.txt	LTP278	ltpFR2	12	4	FIREPLACE	570	n/a	n/a	0	0	0
854.942	n/a	WORD	427471	wordpools/wasnorm_wordpool_576.txt	LTP278	ltpFR2	12	4	NOTEBOOK	959	n/a	n/a	0	0	0
857.688	n/a	WORD	428844	wordpools/wasnorm_wordpool_576.txt	LTP278	ltpFR2	12	4	LAKE	796	n/a	n/a	0	0	0
860.268	n/a	WORD	430134	wordpools/wasnorm_wordpool_576.txt	LTP278	ltpFR2	12	4	RIVER	1194	n/a	n/a	0	0	0
862.848	n/a	WORD	431424	wordpools/wasnorm_wordpool_576.txt	LTP278	ltpFR2	12	4	PERMIT	1051	n/a	n/a	0	0	0
865.41	n/a	WORD	432705	wordpools/wasnorm_wordpool_576.txt	LTP278	ltpFR2	12	4	ELBOW	520	n/a	n/a	0	0	0
868.172	n/a	WORD	434086	wordpools/wasnorm_wordpool_576.txt	LTP278	ltpFR2	12	4	DONOR	485	n/a	n/a	0	0	0
870.918	n/a	WORD	435459	wordpools/wasnorm_wordpool_576.txt	LTP278	ltpFR2	12	4	NEUTRON	947	n/a	n/a	0	0	0
873.514	n/a	WORD	436757	wordpools/wasnorm_wordpool_576.txt	LTP278	ltpFR2	12	4	SPOON	1357	n/a	n/a	0	0	0
875.944	n/a	WORD	437972	wordpools/wasnorm_wordpool_576.txt	LTP278	ltpFR2	12	4	LION	827	n/a	n/a	0	0	0
878.472	n/a	WORD	439236	wordpools/wasnorm_wordpool_576.txt	LTP278	ltpFR2	12	4	BEAST	108	n/a	n/a	0	0	0
881.102	n/a	WORD	440551	wordpools/wasnorm_wordpool_576.txt	LTP278	ltpFR2	12	4	PARSLEY	1016	n/a	n/a	0	0	0
883.9	n/a	WORD	441950	wordpools/wasnorm_wordpool_576.txt	LTP278	ltpFR2	12	4	RUST	1219	n/a	n/a	0	0	0
886.428	n/a	WORD	443214	wordpools/wasnorm_wordpool_576.txt	LTP278	ltpFR2	12	4	ICEBERG	731	n/a	n/a	0	0	0
888.942	n/a	WORD	444471	wordpools/wasnorm_wordpool_576.txt	LTP278	ltpFR2	12	4	THREAD	1460	n/a	n/a	0	0	0
891.436	n/a	WORD	445718	wordpools/wasnorm_wordpool_576.txt	LTP278	ltpFR2	12	4	COBRA	336	n/a	n/a	0	0	0
893.052	n/a	START	446526	n/a	LTP278	ltpFR2	12	n/a	n/a	n/a	5	n/a	n/a	n/a	n/a
894.252	n/a	DISTRACTOR	447126	n/a	LTP278	ltpFR2	12	4	n/a	n/a	n/a	n/a	0	0	0
894.266	n/a	PROB	447133	n/a	LTP278	ltpFR2	12	n/a	n/a	n/a	5	16	5	5	6
901.688	n/a	PROB	450844	n/a	LTP278	ltpFR2	12	n/a	n/a	n/a	5	14	5	2	7
903.502	n/a	PROB	451751	n/a	LTP278	ltpFR2	12	n/a	n/a	n/a	5	14	2	9	3
905.35	n/a	PROB	452675	n/a	LTP278	ltpFR2	12	n/a	n/a	n/a	5	17	6	8	3
907.148	n/a	PROB	453574	n/a	LTP278	ltpFR2	12	n/a	n/a	n/a	5	14	8	5	1
908.744	n/a	PROB	454372	n/a	LTP278	ltpFR2	12	n/a	n/a	n/a	5	15	9	3	4
910.192	n/a	PROB	455096	n/a	LTP278	ltpFR2	12	n/a	n/a	n/a	5	13	5	7	1
911.942	n/a	PROB	455971	n/a	LTP278	ltpFR2	12	n/a	n/a	n/a	5	6	2	3	1
913.222	n/a	PROB	456611	n/a	LTP278	ltpFR2	12	n/a	n/a	n/a	5	14	6	4	6
917.052	n/a	STOP	458526	n/a	LTP278	ltpFR2	12	n/a	n/a	n/a	5	n/a	n/a	n/a	n/a
918.914	n/a	REC_START	459457	n/a	LTP278	ltpFR2	12	4	n/a	n/a	n/a	n/a	0	0	0
920.154	n/a	REC_WORD	460077	wordpools/wasnorm_wordpool_576.txt	LTP278	ltpFR2	12	4	COD	340	n/a	n/a	0	0	0
924.934	n/a	REC_WORD	462467	wordpools/wasnorm_wordpool_576.txt	LTP278	ltpFR2	12	4	NEUTRON	947	n/a	n/a	0	0	0
926.378	n/a	REC_WORD	463189	wordpools/wasnorm_wordpool_576.txt	LTP278	ltpFR2	12	4	LION	827	n/a	n/a	0	0	0
930.738	n/a	REC_WORD	465369	wordpools/wasnorm_wordpool_576.txt	LTP278	ltpFR2	12	4	SCALPEL	1243	n/a	n/a	0	0	0
945.728	n/a	REC_WORD	472864	wordpools/wasnorm_wordpool_576.txt	LTP278	ltpFR2	12	4	TWICE	-1	n/a	n/a	0	0	0
1009.562	n/a	DISTRACTOR	504781	n/a	LTP278	ltpFR2	12	5	n/a	n/a	n/a	n/a	0	0	0
1009.562	n/a	START	504781	n/a	LTP278	ltpFR2	12	n/a	n/a	n/a	6	n/a	n/a	n/a	n/a
1009.596	n/a	PROB	504798	n/a	LTP278	ltpFR2	12	n/a	n/a	n/a	6	13	7	1	5
1011.06	n/a	PROB	505530	n/a	LTP278	ltpFR2	12	n/a	n/a	n/a	6	5	3	1	1
1012.058	n/a	PROB	506029	n/a	LTP278	ltpFR2	12	n/a	n/a	n/a	6	19	5	6	8
1013.64	n/a	PROB	506820	n/a	LTP278	ltpFR2	12	n/a	n/a	n/a	6	17	1	9	7
1015.054	n/a	PROB	507527	n/a	LTP278	ltpFR2	12	n/a	n/a	n/a	6	13	4	1	8
1016.486	n/a	PROB	508243	n/a	LTP278	ltpFR2	12	n/a	n/a	n/a	6	16	4	4	8
1018.116	n/a	PROB	509058	n/a	LTP278	ltpFR2	12	n/a	n/a	n/a	6	10	1	7	2
1019.432	n/a	PROB	509716	n/a	LTP278	ltpFR2	12	n/a	n/a	n/a	6	11	1	5	5
1020.612	n/a	PROB	510306	n/a	LTP278	ltpFR2	12	n/a	n/a	n/a	6	13	4	4	5
1024.54	n/a	PROB	512270	n/a	LTP278	ltpFR2	12	n/a	n/a	n/a	6	11	2	2	7
1025.706	n/a	PROB	512853	n/a	LTP278	ltpFR2	12	n/a	n/a	n/a	6	17	1	7	9
1027.904	n/a	PROB	513952	n/a	LTP278	ltpFR2	12	n/a	n/a	n/a	6	18	8	3	7
1029.434	n/a	PROB	514717	n/a	LTP278	ltpFR2	12	n/a	n/a	n/a	6	17	3	6	8
1033.34	n/a	STOP	516670	n/a	LTP278	ltpFR2	12	n/a	n/a	n/a	6	n/a	n/a	n/a	n/a
1034.608	n/a	WORD	517304	wordpools/wasnorm_wordpool_576.txt	LTP278	ltpFR2	12	5	TUTU	1524	n/a	n/a	0	0	0
1037.188	n/a	WORD	518594	wordpools/wasnorm_wordpool_576.txt	LTP278	ltpFR2	12	5	FRAME	600	n/a	n/a	0	0	0
1039.986	n/a	WORD	519993	wordpools/wasnorm_wordpool_576.txt	LTP278	ltpFR2	12	5	BABY	64	n/a	n/a	0	0	0
1042.514	n/a	WORD	521257	wordpools/wasnorm_wordpool_576.txt	LTP278	ltpFR2	12	5	CHILD	299	n/a	n/a	0	0	0
1045.276	n/a	WORD	522638	wordpools/wasnorm_wordpool_576.txt	LTP278	ltpFR2	12	5	BANQUET	86	n/a	n/a	0	0	0
1047.824	n/a	WORD	523912	wordpools/wasnorm_wordpool_576.txt	LTP278	ltpFR2	12	5	GARDEN	623	n/a	n/a	0	0	0
1050.486	n/a	WORD	525243	wordpools/wasnorm_wordpool_576.txt	LTP278	ltpFR2	12	5	SUNRISE	1407	n/a	n/a	0	0	0
1052.982	n/a	WORD	526491	wordpools/wasnorm_wordpool_576.txt	LTP278	ltpFR2	12	5	BREAST	171	n/a	n/a	0	0	0
1055.712	n/a	WORD	527856	wordpools/wasnorm_wordpool_576.txt	LTP278	ltpFR2	12	5	TWISTER	1530	n/a	n/a	0	0	0
1058.308	n/a	WORD	529154	wordpools/wasnorm_wordpool_576.txt	LTP278	ltpFR2	12	5	SCOTCH	1251	n/a	n/a	0	0	0
1060.838	n/a	WORD	530419	wordpools/wasnorm_wordpool_576.txt	LTP278	ltpFR2	12	5	CHAMPAGNE	278	n/a	n/a	0	0	0
1063.516	n/a	WORD	531758	wordpools/wasnorm_wordpool_576.txt	LTP278	ltpFR2	12	5	WOMAN	1620	n/a	n/a	0	0	0
1066.262	n/a	WORD	533131	wordpools/wasnorm_wordpool_576.txt	LTP278	ltpFR2	12	5	RELISH	1183	n/a	n/a	0	0	0
1068.86	n/a	WORD	534430	wordpools/wasnorm_wordpool_576.txt	LTP278	ltpFR2	12	5	STUDENT	1395	n/a	n/a	0	0	0
1071.604	n/a	WORD	535802	wordpools/wasnorm_wordpool_576.txt	LTP278	ltpFR2	12	5	SUNSET	1408	n/a	n/a	0	0	0
1074.118	n/a	WORD	537059	wordpools/wasnorm_wordpool_576.txt	LTP278	ltpFR2	12	5	CREATURE	403	n/a	n/a	0	0	0
1076.63	n/a	WORD	538315	wordpools/wasnorm_wordpool_576.txt	LTP278	ltpFR2	12	5	CAPTIVE	240	n/a	n/a	0	0	0
1079.326	n/a	WORD	539663	wordpools/wasnorm_wordpool_576.txt	LTP278	ltpFR2	12	5	COLLEGE	346	n/a	n/a	0	0	0
1081.79	n/a	WORD	540895	wordpools/wasnorm_wordpool_576.txt	LTP278	ltpFR2	12	5	OUTFIT	988	n/a	n/a	0	0	0
1084.436	n/a	WORD	542218	wordpools/wasnorm_wordpool_576.txt	LTP278	ltpFR2	12	5	ARMY	39	n/a	n/a	0	0	0
1087.248	n/a	WORD	543624	wordpools/wasnorm_wordpool_576.txt	LTP278	ltpFR2	12	5	SWAMP	1416	n/a	n/a	0	0	0
1090.028	n/a	WORD	545014	wordpools/wasnorm_wordpool_576.txt	LTP278	ltpFR2	12	5	GROUND	666	n/a	n/a	0	0	0
1092.808	n/a	WORD	546404	wordpools/wasnorm_wordpool_576.txt	LTP278	ltpFR2	12	5	SPACE	1345	n/a	n/a	0	0	0
1095.336	n/a	WORD	547668	wordpools/wasnorm_wordpool_576.txt	LTP278	ltpFR2	12	5	MONSTER	912	n/a	n/a	0	0	0
1096.952	n/a	START	548476	n/a	LTP278	ltpFR2	12	n/a	n/a	n/a	7	n/a	n/a	n/a	n/a
1098.006	n/a	DISTRACTOR	549003	n/a	LTP278	ltpFR2	12	5	n/a	n/a	n/a	n/a	0	0	0
1098.016	n/a	PROB	549008	n/a	LTP278	ltpFR2	12	n/a	n/a	n/a	7	10	3	3	4
1102.242	n/a	PROB	551121	n/a	LTP278	ltpFR2	12	n/a	n/a	n/a	7	12	5	1	6
1103.758	n/a	PROB	551879	n/a	LTP278	ltpFR2	12	n/a	n/a	n/a	7	11	1	1	9
1104.956	n/a	PROB	552478	n/a	LTP278	ltpFR2	12	n/a	n/a	n/a	7	11	6	3	2
1106.386	n/a	PROB	553193	n/a	LTP278	ltpFR2	12	n/a	n/a	n/a	7	9	5	2	2
1107.534	n/a	PROB	553767	n/a	LTP278	ltpFR2	12	n/a	n/a	n/a	7	9	4	4	1
1109.132	n/a	PROB	554566	n/a	LTP278	ltpFR2	12	n/a	n/a	n/a	7	18	3	7	8
1110.446	n/a	PROB	555223	n/a	LTP278	ltpFR2	12	n/a	n/a	n/a	7	19	7	6	6
1112.86	n/a	PROB	556430	n/a	LTP278	ltpFR2	12	n/a	n/a	n/a	7	13	1	5	7
1114.408	n/a	PROB	557204	n/a	LTP278	ltpFR2	12	n/a	n/a	n/a	7	9	1	2	6
1117.054	n/a	PROB	558527	n/a	LTP278	ltpFR2	12	n/a	n/a	n/a	7	14	4	8	2
1118.402	n/a	PROB	559201	n/a	LTP278	ltpFR2	12	n/a	n/a	n/a	7	19	2	8	9
1119.814	n/a	STOP	559907	n/a	LTP278	ltpFR2	12	n/a	n/a	n/a	7	n/a	n/a	n/a	n/a
1122.746	n/a	REC_START	561373	n/a	LTP278	ltpFR2	12	5	n/a	n/a	n/a	n/a	0	0	0
1124.73	n/a	REC_WORD	562365	wordpools/wasnorm_wordpool_576.txt	LTP278	ltpFR2	12	5	BABY	64	n/a	n/a	0	0	0
1125.602	n/a	REC_WORD	562801	wordpools/wasnorm_wordpool_576.txt	LTP278	ltpFR2	12	5	CHILD	299	n/a	n/a	0	0	0
1126.31	n/a	REC_WORD	563155	wordpools/wasnorm_wordpool_576.txt	LTP278	ltpFR2	12	5	FRAME	600	n/a	n/a	0	0	0
1127.188	n/a	REC_WORD	563594	wordpools/wasnorm_wordpool_576.txt	LTP278	ltpFR2	12	5	TUTU	1524	n/a	n/a	0	0	0
1127.86	n/a	REC_WORD	563930	wordpools/wasnorm_wordpool_576.txt	LTP278	ltpFR2	12	5	PERFORMANCE	-1	n/a	n/a	0	0	0
1128.832	n/a	REC_WORD	564416	wordpools/wasnorm_wordpool_576.txt	LTP278	ltpFR2	12	5	BANQUET	86	n/a	n/a	0	0	0
1186.788	n/a	REC_WORD	593394	wordpools/wasnorm_wordpool_576.txt	LTP278	ltpFR2	12	5	STEW	1380	n/a	n/a	0	0	0
1213.428	n/a	WORD	606714	wordpools/wasnorm_wordpool_576.txt	LTP278	ltpFR2	12	6	LAPEL	800	n/a	n/a	0	0	0
1216.008	n/a	WORD	608004	wordpools/wasnorm_wordpool_576.txt	LTP278	ltpFR2	12	6	BEAVER	109	n/a	n/a	0	0	0
1218.538	n/a	WORD	609269	wordpools/wasnorm_wordpool_576.txt	LTP278	ltpFR2	12	6	MARROW	872	n/a	n/a	0	0	0
1221.266	n/a	WORD	610633	wordpools/wasnorm_wordpool_576.txt	LTP278	ltpFR2	12	6	LONDON	843	n/a	n/a	0	0	0
1223.848	n/a	WORD	611924	wordpools/wasnorm_wordpool_576.txt	LTP278	ltpFR2	12	6	KETCHUP	771	n/a	n/a	0	0	0
1226.292	n/a	WORD	613146	wordpools/wasnorm_wordpool_576.txt	LTP278	ltpFR2	12	6	CLAM	315	n/a	n/a	0	0	0
1228.738	n/a	WORD	614369	wordpools/wasnorm_wordpool_576.txt	LTP278	ltpFR2	12	6	COUCH	386	n/a	n/a	0	0	0
1231.3	n/a	WORD	615650	wordpools/wasnorm_wordpool_576.txt	LTP278	ltpFR2	12	6	LADDER	793	n/a	n/a	0	0	0
1234.046	n/a	WORD	617023	wordpools/wasnorm_wordpool_576.txt	LTP278	ltpFR2	12	6	FINGER	567	n/a	n/a	0	0	0
1236.828	n/a	WORD	618414	wordpools/wasnorm_wordpool_576.txt	LTP278	ltpFR2	12	6	GLOVE	642	n/a	n/a	0	0	0
1239.606	n/a	WORD	619803	wordpools/wasnorm_wordpool_576.txt	LTP278	ltpFR2	12	6	SADDLE	1221	n/a	n/a	0	0	0
1242.284	n/a	WORD	621142	wordpools/wasnorm_wordpool_576.txt	LTP278	ltpFR2	12	6	BRANDY	169	n/a	n/a	0	0	0
1244.714	n/a	WORD	622357	wordpools/wasnorm_wordpool_576.txt	LTP278	ltpFR2	12	6	GHETTO	633	n/a	n/a	0	0	0
1247.328	n/a	WORD	623664	wordpools/wasnorm_wordpool_576.txt	LTP278	ltpFR2	12	6	TABLET	1427	n/a	n/a	0	0	0
1249.924	n/a	WORD	624962	wordpools/wasnorm_wordpool_576.txt	LTP278	ltpFR2	12	6	COUNTY	389	n/a	n/a	0	0	0
1252.436	n/a	WORD	626218	wordpools/wasnorm_wordpool_576.txt	LTP278	ltpFR2	12	6	ORCHID	982	n/a	n/a	0	0	0
1254.868	n/a	WORD	627434	wordpools/wasnorm_wordpool_576.txt	LTP278	ltpFR2	12	6	DRIVER	499	n/a	n/a	0	0	0
1257.446	n/a	WORD	628723	wordpools/wasnorm_wordpool_576.txt	LTP278	ltpFR2	12	6	DRUG	501	n/a	n/a	0	0	0
1260.058	n/a	WORD	630029	wordpools/wasnorm_wordpool_576.txt	LTP278	ltpFR2	12	6	TRUCK	1512	n/a	n/a	0	0	0
1262.772	n/a	WORD	631386	wordpools/wasnorm_wordpool_576.txt	LTP278	ltpFR2	12	6	BRAKE	166	n/a	n/a	0	0	0
1265.4	n/a	WORD	632700	wordpools/wasnorm_wordpool_576.txt	LTP278	ltpFR2	12	6	PISTON	1076	n/a	n/a	0	0	0
1268.048	n/a	WORD	634024	wordpools/wasnorm_wordpool_576.txt	LTP278	ltpFR2	12	6	WASHER	1592	n/a	n/a	0	0	0
1270.51	n/a	WORD	635255	wordpools/wasnorm_wordpool_576.txt	LTP278	ltpFR2	12	6	DUST	508	n/a	n/a	0	0	0
1273.04	n/a	WORD	636520	wordpools/wasnorm_wordpool_576.txt	LTP278	ltpFR2	12	6	BACKBONE	66	n/a	n/a	0	0	0
1274.654	n/a	START	637327	n/a	LTP278	ltpFR2	12	n/a	n/a	n/a	8	n/a	n/a	n/a	n/a
1275.63	n/a	DISTRACTOR	637815	n/a	LTP278	ltpFR2	12	6	n/a	n/a	n/a	n/a	0	0	0
1275.636	n/a	PROB	637818	n/a	LTP278	ltpFR2	12	n/a	n/a	n/a	8	16	6	7	3
1277.516	n/a	PROB	638758	n/a	LTP278	ltpFR2	12	n/a	n/a	n/a	8	9	1	4	4
1278.682	n/a	PROB	639341	n/a	LTP278	ltpFR2	12	n/a	n/a	n/a	8	18	8	4	6
1280.196	n/a	PROB	640098	n/a	LTP278	ltpFR2	12	n/a	n/a	n/a	8	12	1	3	8
1281.394	n/a	PROB	640697	n/a	LTP278	ltpFR2	12	n/a	n/a	n/a	8	18	5	9	4
1283.424	n/a	PROB	641712	n/a	LTP278	ltpFR2	12	n/a	n/a	n/a	8	15	3	4	8
1284.988	n/a	PROB	642494	n/a	LTP278	ltpFR2	12	n/a	n/a	n/a	8	19	7	8	4
1287.336	n/a	PROB	643668	n/a	LTP278	ltpFR2	12	n/a	n/a	n/a	8	21	9	9	3
1288.834	n/a	PROB	644417	n/a	LTP278	ltpFR2	12	n/a	n/a	n/a	8	17	5	4	8
1291.08	n/a	PROB	645540	n/a	LTP278	ltpFR2	12	n/a	n/a	n/a	8	19	8	6	3
1292.912	n/a	PROB	646456	n/a	LTP278	ltpFR2	12	n/a	n/a	n/a	8	9	5	2	2
1294.374	n/a	PROB	647187	n/a	LTP278	ltpFR2	12	n/a	n/a	n/a	8	22	8	8	6
1298.654	n/a	STOP	649327	n/a	LTP278	ltpFR2	12	n/a	n/a	n/a	8	n/a	n/a	n/a	n/a
1300.6	n/a	REC_START	650300	n/a	LTP278	ltpFR2	12	6	n/a	n/a	n/a	n/a	0	0	0
1302.236	n/a	REC_WORD	651118	wordpools/wasnorm_wordpool_576.txt	LTP278	ltpFR2	12	6	DUST	508	n/a	n/a	0	0	0
1302.94	n/a	REC_WORD	651470	wordpools/wasnorm_wordpool_576.txt	LTP278	ltpFR2	12	6	BACKBONE	66	n/a	n/a	0	0	0
1306.258	n/a	REC_WORD	653129	wordpools/wasnorm_wordpool_576.txt	LTP278	ltpFR2	12	6	COUNTY	389	n/a	n/a	0	0	0
1308.862	n/a	REC_WORD	654431	wordpools/wasnorm_wordpool_576.txt	LTP278	ltpFR2	12	6	ORCHID	982	n/a	n/a	0	0	0
1342.166	n/a	REC_WORD	671083	wordpools/wasnorm_wordpool_576.txt	LTP278	ltpFR2	12	6	LAPEL	800	n/a	n/a	0	0	0
1344.074	n/a	REC_WORD	672037	wordpools/wasnorm_wordpool_576.txt	LTP278	ltpFR2	12	6	BEAVER	109	n/a	n/a	0	0	0
1391.282	n/a	WORD	695641	wordpools/wasnorm_wordpool_576.txt	LTP278	ltpFR2	12	7	MILDEW	893	n/a	n/a	0	0	0
1393.728	n/a	WORD	696864	wordpools/wasnorm_wordpool_576.txt	LTP278	ltpFR2	12	7	CUPBOARD	425	n/a	n/a	0	0	0
1396.158	n/a	WORD	698079	wordpools/wasnorm_wordpool_576.txt	LTP278	ltpFR2	12	7	PASTA	1021	n/a	n/a	0	0	0
1398.954	n/a	WORD	699477	wordpools/wasnorm_wordpool_576.txt	LTP278	ltpFR2	12	7	PUPIL	1143	n/a	n/a	0	0	0
1401.516	n/a	WORD	700758	wordpools/wasnorm_wordpool_576.txt	LTP278	ltpFR2	12	7	COMPASS	358	n/a	n/a	0	0	0
1404.162	n/a	WORD	702081	wordpools/wasnorm_wordpool_576.txt	LTP278	ltpFR2	12	7	ONION	977	n/a	n/a	0	0	0
1406.776	n/a	WORD	703388	wordpools/wasnorm_wordpool_576.txt	LTP278	ltpFR2	12	7	ROBOT	1200	n/a	n/a	0	0	0
1409.472	n/a	WORD	704736	wordpools/wasnorm_wordpool_576.txt	LTP278	ltpFR2	12	7	PUDDLE	1140	n/a	n/a	0	0	0
1412.002	n/a	WORD	706001	wordpools/wasnorm_wordpool_576.txt	LTP278	ltpFR2	12	7	CAFE	216	n/a	n/a	0	0	0
1414.43	n/a	WORD	707215	wordpools/wasnorm_wordpool_576.txt	LTP278	ltpFR2	12	7	WAITRESS	1581	n/a	n/a	0	0	0
1416.878	n/a	WORD	708439	wordpools/wasnorm_wordpool_576.txt	LTP278	ltpFR2	12	7	BARREL	91	n/a	n/a	0	0	0
1419.406	n/a	WORD	709703	wordpools/wasnorm_wordpool_576.txt	LTP278	ltpFR2	12	7	SALT	1229	n/a	n/a	0	0	0
1422.12	n/a	WORD	711060	wordpools/wasnorm_wordpool_576.txt	LTP278	ltpFR2	12	7	LODGE	839	n/a	n/a	0	0	0
1424.6	n/a	WORD	712300	wordpools/wasnorm_wordpool_576.txt	LTP278	ltpFR2	12	7	MOTEL	919	n/a	n/a	0	0	0
1427.212	n/a	WORD	713606	wordpools/wasnorm_wordpool_576.txt	LTP278	ltpFR2	12	7	HEART	697	n/a	n/a	0	0	0
1429.742	n/a	WORD	714871	wordpools/wasnorm_wordpool_576.txt	LTP278	ltpFR2	12	7	EGYPT	519	n/a	n/a	0	0	0
1432.438	n/a	WORD	716219	wordpools/wasnorm_wordpool_576.txt	LTP278	ltpFR2	12	7	MARINE	869	n/a	n/a	0	0	0
1434.902	n/a	WORD	717451	wordpools/wasnorm_wordpool_576.txt	LTP278	ltpFR2	12	7	WITNESS	1618	n/a	n/a	0	0	0
1437.496	n/a	WORD	718748	wordpools/wasnorm_wordpool_576.txt	LTP278	ltpFR2	12	7	GIRL	637	n/a	n/a	0	0	0
1440.292	n/a	WORD	720146	wordpools/wasnorm_wordpool_576.txt	LTP278	ltpFR2	12	7	SUPPER	1411	n/a	n/a	0	0	0
1442.74	n/a	WORD	721370	wordpools/wasnorm_wordpool_576.txt	LTP278	ltpFR2	12	7	TRANSPLANT	1496	n/a	n/a	0	0	0
1445.502	n/a	WORD	722751	wordpools/wasnorm_wordpool_576.txt	LTP278	ltpFR2	12	7	PILOT	1070	n/a	n/a	0	0	0
1447.95	n/a	WORD	723975	wordpools/wasnorm_wordpool_576.txt	LTP278	ltpFR2	12	7	HOOD	714	n/a	n/a	0	0	0
1450.694	n/a	WORD	725347	wordpools/wasnorm_wordpool_576.txt	LTP278	ltpFR2	12	7	BUNNY	198	n/a	n/a	0	0	0
1452.308	n/a	START	726154	n/a	LTP278	ltpFR2	12	n/a	n/a	n/a	9	n/a	n/a	n/a	n/a
1453.15	n/a	DISTRACTOR	726575	n/a	LTP278	ltpFR2	12	7	n/a	n/a	n/a	n/a	0	0	0
1453.158	n/a	PROB	726579	n/a	LTP278	ltpFR2	12	n/a	n/a	n/a	9	13	3	6	4
1455.22	n/a	PROB	727610	n/a	LTP278	ltpFR2	12	n/a	n/a	n/a	9	6	3	2	1
1457.952	n/a	PROB	728976	n/a	LTP278	ltpFR2	12	n/a	n/a	n/a	9	25	8	8	7
1459.598	n/a	PROB	729799	n/a	LTP278	ltpFR2	12	n/a	n/a	n/a	9	13	4	8	1
1461.146	n/a	PROB	730573	n/a	LTP278	ltpFR2	12	n/a	n/a	n/a	9	13	8	2	3
1462.594	n/a	PROB	731297	n/a	LTP278	ltpFR2	12	n/a	n/a	n/a	9	18	8	2	8
1465.338	n/a	PROB	732669	n/a	LTP278	ltpFR2	12	n/a	n/a	n/a	9	10	5	1	4
1470.598	n/a	PROB	735299	n/a	LTP278	ltpFR2	12	n/a	n/a	n/a	9	14	1	9	4
1472.244	n/a	PROB	736122	n/a	LTP278	ltpFR2	12	n/a	n/a	n/a	9	17	9	4	4
1473.726	n/a	PROB	736863	n/a	LTP278	ltpFR2	12	n/a	n/a	n/a	9	18	3	8	7
1475.226	n/a	STOP	737613	n/a	LTP278	ltpFR2	12	n/a	n/a	n/a	9	n/a	n/a	n/a	n/a
1478.086	n/a	REC_START	739043	n/a	LTP278	ltpFR2	12	7	n/a	n/a	n/a	n/a	0	0	0
1479.228	n/a	REC_WORD	739614	wordpools/wasnorm_wordpool_576.txt	LTP278	ltpFR2	12	7	IGLOO	734	n/a	n/a	0	0	0
1480.256	n/a	REC_WORD	740128	wordpools/wasnorm_wordpool_576.txt	LTP278	ltpFR2	12	7	ICEBERG	731	n/a	n/a	0	0	0
1510.862	n/a	REC_WORD	755431	wordpools/wasnorm_wordpool_576.txt	LTP278	ltpFR2	12	7	MILDEW	893	n/a	n/a	0	0	0
1511.92	n/a	REC_WORD	755960	wordpools/wasnorm_wordpool_576.txt	LTP278	ltpFR2	12	7	PUPIL	1143	n/a	n/a	0	0	0
1568.752	n/a	WORD	784376	wordpools/wasnorm_wordpool_576.txt	LTP278	ltpFR2	12	8	FRANCE	601	n/a	n/a	0	0	0
1571.566	n/a	WORD	785783	wordpools/wasnorm_wordpool_576.txt	LTP278	ltpFR2	12	8	POWDER	1117	n/a	n/a	0	0	0
1574.262	n/a	WORD	787131	wordpools/wasnorm_wordpool_576.txt	LTP278	ltpFR2	12	8	BUGGY	188	n/a	n/a	0	0	0
1577.024	n/a	WORD	788512	wordpools/wasnorm_wordpool_576.txt	LTP278	ltpFR2	12	8	POSSUM	1112	n/a	n/a	0	0	0
1579.588	n/a	WORD	789794	wordpools/wasnorm_wordpool_576.txt	LTP278	ltpFR2	12	8	CLOCK	325	n/a	n/a	0	0	0
1582.216	n/a	WORD	791108	wordpools/wasnorm_wordpool_576.txt	LTP278	ltpFR2	12	8	PLAYGROUND	1087	n/a	n/a	0	0	0
1585.028	n/a	WORD	792514	wordpools/wasnorm_wordpool_576.txt	LTP278	ltpFR2	12	8	SPONGE	1355	n/a	n/a	0	0	0
1587.624	n/a	WORD	793812	wordpools/wasnorm_wordpool_576.txt	LTP278	ltpFR2	12	8	STALLION	1369	n/a	n/a	0	0	0
1590.436	n/a	WORD	795218	wordpools/wasnorm_wordpool_576.txt	LTP278	ltpFR2	12	8	NIGHTGOWN	953	n/a	n/a	0	0	0
1593.016	n/a	WORD	796508	wordpools/wasnorm_wordpool_576.txt	LTP278	ltpFR2	12	8	SEAFOOD	1260	n/a	n/a	0	0	0
1595.764	n/a	WORD	797882	wordpools/wasnorm_wordpool_576.txt	LTP278	ltpFR2	12	8	RAFT	1159	n/a	n/a	0	0	0
1598.258	n/a	WORD	799129	wordpools/wasnorm_wordpool_576.txt	LTP278	ltpFR2	12	8	EUROPE	541	n/a	n/a	0	0	0
1600.704	n/a	WORD	800352	wordpools/wasnorm_wordpool_576.txt	LTP278	ltpFR2	12	8	LADY	794	n/a	n/a	0	0	0
1603.252	n/a	WORD	801626	wordpools/wasnorm_wordpool_576.txt	LTP278	ltpFR2	12	8	CRAB	397	n/a	n/a	0	0	0
1605.948	n/a	WORD	802974	wordpools/wasnorm_wordpool_576.txt	LTP278	ltpFR2	12	8	CABIN	211	n/a	n/a	0	0	0
1608.394	n/a	WORD	804197	wordpools/wasnorm_wordpool_576.txt	LTP278	ltpFR2	12	8	SHELTER	1282	n/a	n/a	0	0	0
1611.14	n/a	WORD	805570	wordpools/wasnorm_wordpool_576.txt	LTP278	ltpFR2	12	8	GUARD	667	n/a	n/a	0	0	0
1613.57	n/a	WORD	806785	wordpools/wasnorm_wordpool_576.txt	LTP278	ltpFR2	12	8	FILM	565	n/a	n/a	0	0	0
1616.298	n/a	WORD	808149	wordpools/wasnorm_wordpool_576.txt	LTP278	ltpFR2	12	8	MUSTARD	935	n/a	n/a	0	0	0
1618.78	n/a	WORD	809390	wordpools/wasnorm_wordpool_576.txt	LTP278	ltpFR2	12	8	TEACHER	1440	n/a	n/a	0	0	0
1621.208	n/a	WORD	810604	wordpools/wasnorm_wordpool_576.txt	LTP278	ltpFR2	12	8	LIZARD	834	n/a	n/a	0	0	0
1623.688	n/a	WORD	811844	wordpools/wasnorm_wordpool_576.txt	LTP278	ltpFR2	12	8	POISON	1096	n/a	n/a	0	0	0
1626.334	n/a	WORD	813167	wordpools/wasnorm_wordpool_576.txt	LTP278	ltpFR2	12	8	CASKET	255	n/a	n/a	0	0	0
1628.832	n/a	WORD	814416	wordpools/wasnorm_wordpool_576.txt	LTP278	ltpFR2	12	8	SAUSAGE	1238	n/a	n/a	0	0	0
1630.444	n/a	START	815222	n/a	LTP278	ltpFR2	12	n/a	n/a	n/a	10	n/a	n/a	n/a	n/a
1631.27	n/a	DISTRACTOR	815635	n/a	LTP278	ltpFR2	12	8	n/a	n/a	n/a	n/a	0	0	0
1631.276	n/a	PROB	815638	n/a	LTP278	ltpFR2	12	n/a	n/a	n/a	10	21	9	8	4
1637.734	n/a	PROB	818867	n/a	LTP278	ltpFR2	12	n/a	n/a	n/a	10	16	3	9	4
1639.198	n/a	PROB	819599	n/a	LTP278	ltpFR2	12	n/a	n/a	n/a	10	17	5	4	8
1640.946	n/a	PROB	820473	n/a	LTP278	ltpFR2	12	n/a	n/a	n/a	10	15	3	7	5
1642.96	n/a	PROB	821480	n/a	LTP278	ltpFR2	12	n/a	n/a	n/a	10	19	3	9	7
1644.624	n/a	PROB	822312	n/a	LTP278	ltpFR2	12	n/a	n/a	n/a	10	13	8	3	2
1645.94	n/a	PROB	822970	n/a	LTP278	ltpFR2	12	n/a	n/a	n/a	10	16	3	8	5
1648.534	n/a	PROB	824267	n/a	LTP278	ltpFR2	12	n/a	n/a	n/a	10	19	6	8	5
1650.382	n/a	PROB	825191	n/a	LTP278	ltpFR2	12	n/a	n/a	n/a	10	18	7	4	7
1651.93	n/a	PROB	825965	n/a	LTP278	ltpFR2	12	n/a	n/a	n/a	10	16	5	3	8
1653.654	n/a	STOP	826827	n/a	LTP278	ltpFR2	12	n/a	n/a	n/a	10	n/a	n/a	n/a	n/a
1656.308	n/a	REC_START	828154	n/a	LTP278	ltpFR2	12	8	n/a	n/a	n/a	n/a	0	0	0
1659.836	n/a	REC_WORD	829918	wordpools/wasnorm_wordpool_576.txt	LTP278	ltpFR2	12	8	CRAB	397	n/a	n/a	0	0	0
1730.59	n/a	REC_WORD	865295	wordpools/wasnorm_wordpool_576.txt	LTP278	ltpFR2	12	8	STORAGE	-1	n/a	n/a	0	0	0
1732.91	n/a	REST_REWET	866455	n/a	LTP278	ltpFR2	12	8	n/a	n/a	n/a	n/a	0	0	0
1962.938	n/a	WORD	981469	wordpools/wasnorm_wordpool_576.txt	LTP278	ltpFR2	12	9	FLUTE	585	n/a	n/a	0	0	0
1965.466	n/a	WORD	982733	wordpools/wasnorm_wordpool_576.txt	LTP278	ltpFR2	12	9	SHELF	1280	n/a	n/a	0	0	0
1968.046	n/a	WORD	984023	wordpools/wasnorm_wordpool_576.txt	LTP278	ltpFR2	12	9	TYPIST	1532	n/a	n/a	0	0	0
1970.876	n/a	WORD	985438	wordpools/wasnorm_wordpool_576.txt	LTP278	ltpFR2	12	9	DRILL	497	n/a	n/a	0	0	0
1973.338	n/a	WORD	986669	wordpools/wasnorm_wordpool_576.txt	LTP278	ltpFR2	12	9	DOUGHNUT	490	n/a	n/a	0	0	0
1975.802	n/a	WORD	987901	wordpools/wasnorm_wordpool_576.txt	LTP278	ltpFR2	12	9	BIKE	125	n/a	n/a	0	0	0
1978.246	n/a	WORD	989123	wordpools/wasnorm_wordpool_576.txt	LTP278	ltpFR2	12	9	BINDER	127	n/a	n/a	0	0	0
1980.96	n/a	WORD	990480	wordpools/wasnorm_wordpool_576.txt	LTP278	ltpFR2	12	9	POPCORN	1104	n/a	n/a	0	0	0
1983.706	n/a	WORD	991853	wordpools/wasnorm_wordpool_576.txt	LTP278	ltpFR2	12	9	ACTRESS	6	n/a	n/a	0	0	0
1986.268	n/a	WORD	993134	wordpools/wasnorm_wordpool_576.txt	LTP278	ltpFR2	12	9	FLIPPER	580	n/a	n/a	0	0	0
1989.098	n/a	WORD	994549	wordpools/wasnorm_wordpool_576.txt	LTP278	ltpFR2	12	9	NECKLACE	940	n/a	n/a	0	0	0
1991.594	n/a	WORD	995797	wordpools/wasnorm_wordpool_576.txt	LTP278	ltpFR2	12	9	GARLIC	624	n/a	n/a	0	0	0
1994.024	n/a	WORD	997012	wordpools/wasnorm_wordpool_576.txt	LTP278	ltpFR2	12	9	CHAPEL	280	n/a	n/a	0	0	0
1996.754	n/a	WORD	998377	wordpools/wasnorm_wordpool_576.txt	LTP278	ltpFR2	12	9	FRIAR	605	n/a	n/a	0	0	0
1999.366	n/a	WORD	999683	wordpools/wasnorm_wordpool_576.txt	LTP278	ltpFR2	12	9	BARLEY	88	n/a	n/a	0	0	0
2002.146	n/a	WORD	1001073	wordpools/wasnorm_wordpool_576.txt	LTP278	ltpFR2	12	9	BOX	159	n/a	n/a	0	0	0
2004.942	n/a	WORD	1002471	wordpools/wasnorm_wordpool_576.txt	LTP278	ltpFR2	12	9	SKIRT	1319	n/a	n/a	0	0	0
2007.604	n/a	WORD	1003802	wordpools/wasnorm_wordpool_576.txt	LTP278	ltpFR2	12	9	SUMMIT	1405	n/a	n/a	0	0	0
2010.084	n/a	WORD	1005042	wordpools/wasnorm_wordpool_576.txt	LTP278	ltpFR2	12	9	KITCHEN	778	n/a	n/a	0	0	0
2012.612	n/a	WORD	1006306	wordpools/wasnorm_wordpool_576.txt	LTP278	ltpFR2	12	9	SNAKE	1333	n/a	n/a	0	0	0
2015.26	n/a	WORD	1007630	wordpools/wasnorm_wordpool_576.txt	LTP278	ltpFR2	12	9	SCARF	1246	n/a	n/a	0	0	0
2018.006	n/a	WORD	1009003	wordpools/wasnorm_wordpool_576.txt	LTP278	ltpFR2	12	9	MAILMAN	858	n/a	n/a	0	0	0
2020.434	n/a	WORD	1010217	wordpools/wasnorm_wordpool_576.txt	LTP278	ltpFR2	12	9	FRIEND	606	n/a	n/a	0	0	0
2023.148	n/a	WORD	1011574	wordpools/wasnorm_wordpool_576.txt	LTP278	ltpFR2	12	9	SPIDER	1351	n/a	n/a	0	0	0
2024.764	n/a	START	1012382	n/a	LTP278	ltpFR2	12	n/a	n/a	n/a	11	n/a	n/a	n/a	n/a
2025.946	n/a	DISTRACTOR	1012973	n/a	LTP278	ltpFR2	12	9	n/a	n/a	n/a	n/a	0	0	0
2025.962	n/a	PROB	1012981	n/a	LTP278	ltpFR2	12	n/a	n/a	n/a	11	9	2	3	4
2029.138	n/a	PROB	1014569	n/a	LTP278	ltpFR2	12	n/a	n/a	n/a	11	14	7	3	4
2030.838	n/a	PROB	1015419	n/a	LTP278	ltpFR2	12	n/a	n/a	n/a	11	19	7	7	5
2032.934	n/a	PROB	1016467	n/a	LTP278	ltpFR2	12	n/a	n/a	n/a	11	17	9	3	5
2035.412	n/a	PROB	1017706	n/a	LTP278	ltpFR2	12	n/a	n/a	n/a	11	21	8	4	9
2038.542	n/a	PROB	1019271	n/a	LTP278	ltpFR2	12	n/a	n/a	n/a	11	13	1	9	3
2040.24	n/a	PROB	1020120	n/a	LTP278	ltpFR2	12	n/a	n/a	n/a	11	19	4	3	9
2042.718	n/a	PROB	1021359	n/a	LTP278	ltpFR2	12	n/a	n/a	n/a	11	12	1	9	2
2044.4	n/a	PROB	1022200	n/a	LTP278	ltpFR2	12	n/a	n/a	n/a	11	19	3	9	7
2046.53	n/a	PROB	1023265	n/a	LTP278	ltpFR2	12	n/a	n/a	n/a	11	18	9	1	8
2048.644	n/a	STOP	1024322	n/a	LTP278	ltpFR2	12	n/a	n/a	n/a	11	n/a	n/a	n/a	n/a
2050.592	n/a	REC_START	1025296	n/a	LTP278	ltpFR2	12	9	n/a	n/a	n/a	n/a	0	0	0
2052.578	n/a	REC_WORD	1026289	wordpools/wasnorm_wordpool_576.txt	LTP278	ltpFR2	12	9	BINDER	127	n/a	n/a	0	0	0
2053.424	n/a	REC_WORD	1026712	wordpools/wasnorm_wordpool_576.txt	LTP278	ltpFR2	12	9	BIKE	125	n/a	n/a	0	0	0
2054.148	n/a	REC_WORD	1027074	wordpools/wasnorm_wordpool_576.txt	LTP278	ltpFR2	12	9	GARLIC	624	n/a	n/a	0	0	0
2054.924	n/a	REC_WORD	1027462	wordpools/wasnorm_wordpool_576.txt	LTP278	ltpFR2	12	9	ACTRESS	6	n/a	n/a	0	0	0
2055.558	n/a	REC_WORD	1027779	wordpools/wasnorm_wordpool_576.txt	LTP278	ltpFR2	12	9	FLIPPER	580	n/a	n/a	0	0	0
2056.146	n/a	REC_WORD	1028073	wordpools/wasnorm_wordpool_576.txt	LTP278	ltpFR2	12	9	NECKLACE	940	n/a	n/a	0	0	0
2057.534	n/a	REC_WORD	1028767	wordpools/wasnorm_wordpool_576.txt	LTP278	ltpFR2	12	9	CHAPEL	280	n/a	n/a	0	0	0
2058.08	n/a	REC_WORD	1029040	wordpools/wasnorm_wordpool_576.txt	LTP278	ltpFR2	12	9	FRIAR	605	n/a	n/a	0	0	0
2059.22	n/a	REC_WORD	1029610	wordpools/wasnorm_wordpool_576.txt	LTP278	ltpFR2	12	9	DRILL	497	n/a	n/a	0	0	0
2059.792	n/a	REC_WORD	1029896	wordpools/wasnorm_wordpool_576.txt	LTP278	ltpFR2	12	9	FLUTE	585	n/a	n/a	0	0	0
2060.714	n/a	REC_WORD	1030357	wordpools/wasnorm_wordpool_576.txt	LTP278	ltpFR2	12	9	DOUGHNUT	490	n/a	n/a	0	0	0
2063.196	n/a	REC_WORD	1031598	wordpools/wasnorm_wordpool_576.txt	LTP278	ltpFR2	12	9	MAILBOX	857	n/a	n/a	0	0	0
2072.496	n/a	REC_WORD	1036248	wordpools/wasnorm_wordpool_576.txt	LTP278	ltpFR2	12	9	SKIRT	1319	n/a	n/a	0	0	0
2073.448	n/a	REC_WORD	1036724	wordpools/wasnorm_wordpool_576.txt	LTP278	ltpFR2	12	9	SUMMIT	1405	n/a	n/a	0	0	0
2074.362	n/a	REC_WORD	1037181	wordpools/wasnorm_wordpool_576.txt	LTP278	ltpFR2	12	9	KITCHEN	778	n/a	n/a	0	0	0
2141.306	n/a	WORD	1070653	wordpools/wasnorm_wordpool_576.txt	LTP278	ltpFR2	12	10	BISON	131	n/a	n/a	0	0	0
2143.77	n/a	WORD	1071885	wordpools/wasnorm_wordpool_576.txt	LTP278	ltpFR2	12	10	LUGGAGE	847	n/a	n/a	0	0	0
2146.466	n/a	WORD	1073233	wordpools/wasnorm_wordpool_576.txt	LTP278	ltpFR2	12	10	DIVER	476	n/a	n/a	0	0	0
2149.194	n/a	WORD	1074597	wordpools/wasnorm_wordpool_576.txt	LTP278	ltpFR2	12	10	BROOK	177	n/a	n/a	0	0	0
2151.942	n/a	WORD	1075971	wordpools/wasnorm_wordpool_576.txt	LTP278	ltpFR2	12	10	HIGHWAY	707	n/a	n/a	0	0	0
2154.486	n/a	WORD	1077243	wordpools/wasnorm_wordpool_576.txt	LTP278	ltpFR2	12	10	SCULPTURE	1258	n/a	n/a	0	0	0
2157.0	n/a	WORD	1078500	wordpools/wasnorm_wordpool_576.txt	LTP278	ltpFR2	12	10	XEROX	1628	n/a	n/a	0	0	0
2159.83	n/a	WORD	1079915	wordpools/wasnorm_wordpool_576.txt	LTP278	ltpFR2	12	10	LIVER	833	n/a	n/a	0	0	0
2162.492	n/a	WORD	1081246	wordpools/wasnorm_wordpool_576.txt	LTP278	ltpFR2	12	10	OUTDOORS	987	n/a	n/a	0	0	0
2165.304	n/a	WORD	1082652	wordpools/wasnorm_wordpool_576.txt	LTP278	ltpFR2	12	10	QUARTER	1148	n/a	n/a	0	0	0
2168.116	n/a	WORD	1084058	wordpools/wasnorm_wordpool_576.txt	LTP278	ltpFR2	12	10	LAGOON	795	n/a	n/a	0	0	0
2170.614	n/a	WORD	1085307	wordpools/wasnorm_wordpool_576.txt	LTP278	ltpFR2	12	10	BULLET	194	n/a	n/a	0	0	0
2173.31	n/a	WORD	1086655	wordpools/wasnorm_wordpool_576.txt	LTP278	ltpFR2	12	10	STAPLE	1371	n/a	n/a	0	0	0
2175.988	n/a	WORD	1087994	wordpools/wasnorm_wordpool_576.txt	LTP278	ltpFR2	12	10	ULCER	1533	n/a	n/a	0	0	0
2178.434	n/a	WORD	1089217	wordpools/wasnorm_wordpool_576.txt	LTP278	ltpFR2	12	10	THIEF	1456	n/a	n/a	0	0	0
2180.98	n/a	WORD	1090490	wordpools/wasnorm_wordpool_576.txt	LTP278	ltpFR2	12	10	RACKET	1155	n/a	n/a	0	0	0
2183.444	n/a	WORD	1091722	wordpools/wasnorm_wordpool_576.txt	LTP278	ltpFR2	12	10	SLUG	1329	n/a	n/a	0	0	0
2186.256	n/a	WORD	1093128	wordpools/wasnorm_wordpool_576.txt	LTP278	ltpFR2	12	10	SHERIFF	1284	n/a	n/a	0	0	0
2188.786	n/a	WORD	1094393	wordpools/wasnorm_wordpool_576.txt	LTP278	ltpFR2	12	10	CASHEW	253	n/a	n/a	0	0	0
2191.582	n/a	WORD	1095791	wordpools/wasnorm_wordpool_576.txt	LTP278	ltpFR2	12	10	PLUTO	1092	n/a	n/a	0	0	0
2194.128	n/a	WORD	1097064	wordpools/wasnorm_wordpool_576.txt	LTP278	ltpFR2	12	10	STATUE	1374	n/a	n/a	0	0	0
2196.708	n/a	WORD	1098354	wordpools/wasnorm_wordpool_576.txt	LTP278	ltpFR2	12	10	GOBLIN	645	n/a	n/a	0	0	0
2199.354	n/a	WORD	1099677	wordpools/wasnorm_wordpool_576.txt	LTP278	ltpFR2	12	10	SLIME	1327	n/a	n/a	0	0	0
2201.868	n/a	WORD	1100934	wordpools/wasnorm_wordpool_576.txt	LTP278	ltpFR2	12	10	MARS	873	n/a	n/a	0	0	0
2203.48	n/a	START	1101740	n/a	LTP278	ltpFR2	12	n/a	n/a	n/a	12	n/a	n/a	n/a	n/a
2204.66	n/a	DISTRACTOR	1102330	n/a	LTP278	ltpFR2	12	10	n/a	n/a	n/a	n/a	0	0	0
2204.662	n/a	PROB	1102331	n/a	LTP278	ltpFR2	12	n/a	n/a	n/a	12	20	3	9	8
2209.356	n/a	PROB	1104678	n/a	LTP278	ltpFR2	12	n/a	n/a	n/a	12	9	1	7	1
2210.504	n/a	PROB	1105252	n/a	LTP278	ltpFR2	12	n/a	n/a	n/a	12	14	5	6	3
2214.332	n/a	PROB	1107166	n/a	LTP278	ltpFR2	12	n/a	n/a	n/a	12	8	6	1	1
2215.48	n/a	PROB	1107740	n/a	LTP278	ltpFR2	12	n/a	n/a	n/a	12	8	4	2	2
2217.044	n/a	PROB	1108522	n/a	LTP278	ltpFR2	12	n/a	n/a	n/a	12	9	7	1	1
2218.192	n/a	PROB	1109096	n/a	LTP278	ltpFR2	12	n/a	n/a	n/a	12	13	6	5	2
2221.022	n/a	PROB	1110511	n/a	LTP278	ltpFR2	12	n/a	n/a	n/a	12	7	4	2	1
2223.534	n/a	PROB	1111767	n/a	LTP278	ltpFR2	12	n/a	n/a	n/a	12	12	4	4	6
2225.514	n/a	PROB	1112757	n/a	LTP278	ltpFR2	12	n/a	n/a	n/a	12	17	8	7	2
2227.358	n/a	STOP	1113679	n/a	LTP278	ltpFR2	12	n/a	n/a	n/a	12	n/a	n/a	n/a	n/a
2229.36	n/a	REC_START	1114680	n/a	LTP278	ltpFR2	12	10	n/a	n/a	n/a	n/a	0	0	0
2230.688	n/a	REC_WORD	1115344	wordpools/wasnorm_wordpool_576.txt	LTP278	ltpFR2	12	10	ULCER	1533	n/a	n/a	0	0	0
2231.544	n/a	REC_WORD	1115772	wordpools/wasnorm_wordpool_576.txt	LTP278	ltpFR2	12	10	BISON	131	n/a	n/a	0	0	0
2232.34	n/a	REC_WORD	1116170	wordpools/wasnorm_wordpool_576.txt	LTP278	ltpFR2	12	10	LUGGAGE	847	n/a	n/a	0	0	0
2238.792	n/a	REC_WORD	1119396	wordpools/wasnorm_wordpool_576.txt	LTP278	ltpFR2	12	10	CASHEW	253	n/a	n/a	0	0	0
2243.272	n/a	REC_WORD	1121636	wordpools/wasnorm_wordpool_576.txt	LTP278	ltpFR2	12	10	SHERIFF	1284	n/a	n/a	0	0	0
2293.778	n/a	REC_WORD	1146889	wordpools/wasnorm_wordpool_576.txt	LTP278	ltpFR2	12	10	SLUG	1329	n/a	n/a	0	0	0
2320.042	n/a	DISTRACTOR	1160021	n/a	LTP278	ltpFR2	12	11	n/a	n/a	n/a	n/a	0	0	0
2320.042	n/a	START	1160021	n/a	LTP278	ltpFR2	12	n/a	n/a	n/a	13	n/a	n/a	n/a	n/a
2320.074	n/a	PROB	1160037	n/a	LTP278	ltpFR2	12	n/a	n/a	n/a	13	10	5	2	3
2321.622	n/a	PROB	1160811	n/a	LTP278	ltpFR2	12	n/a	n/a	n/a	13	18	8	2	8
2323.404	n/a	PROB	1161702	n/a	LTP278	ltpFR2	12	n/a	n/a	n/a	13	12	2	8	2
2324.836	n/a	PROB	1162418	n/a	LTP278	ltpFR2	12	n/a	n/a	n/a	13	19	7	6	6
2326.816	n/a	PROB	1163408	n/a	LTP278	ltpFR2	12	n/a	n/a	n/a	13	7	1	4	2
2328.612	n/a	PROB	1164306	n/a	LTP278	ltpFR2	12	n/a	n/a	n/a	13	18	8	4	6
2330.442	n/a	PROB	1165221	n/a	LTP278	ltpFR2	12	n/a	n/a	n/a	13	20	8	5	7
2332.19	n/a	PROB	1166095	n/a	LTP278	ltpFR2	12	n/a	n/a	n/a	13	10	2	4	4
2333.838	n/a	PROB	1166919	n/a	LTP278	ltpFR2	12	n/a	n/a	n/a	13	11	6	4	1
2335.22	n/a	PROB	1167610	n/a	LTP278	ltpFR2	12	n/a	n/a	n/a	13	11	2	8	1
2337.132	n/a	PROB	1168566	n/a	LTP278	ltpFR2	12	n/a	n/a	n/a	13	22	8	9	5
2339.646	n/a	PROB	1169823	n/a	LTP278	ltpFR2	12	n/a	n/a	n/a	13	11	1	7	3
2341.078	n/a	PROB	1170539	n/a	LTP278	ltpFR2	12	n/a	n/a	n/a	13	10	5	4	1
2342.542	n/a	STOP	1171271	n/a	LTP278	ltpFR2	12	n/a	n/a	n/a	13	n/a	n/a	n/a	n/a
2345.27	n/a	WORD	1172635	wordpools/wasnorm_wordpool_576.txt	LTP278	ltpFR2	12	11	CATTLE	261	n/a	n/a	0	0	0
2347.784	n/a	WORD	1173892	wordpools/wasnorm_wordpool_576.txt	LTP278	ltpFR2	12	11	PENGUIN	1044	n/a	n/a	0	0	0
2350.264	n/a	WORD	1175132	wordpools/wasnorm_wordpool_576.txt	LTP278	ltpFR2	12	11	ROBIN	1199	n/a	n/a	0	0	0
2352.928	n/a	WORD	1176464	wordpools/wasnorm_wordpool_576.txt	LTP278	ltpFR2	12	11	DRINK	498	n/a	n/a	0	0	0
2355.64	n/a	WORD	1177820	wordpools/wasnorm_wordpool_576.txt	LTP278	ltpFR2	12	11	BURGLAR	200	n/a	n/a	0	0	0
2358.418	n/a	WORD	1179209	wordpools/wasnorm_wordpool_576.txt	LTP278	ltpFR2	12	11	PLAZA	1088	n/a	n/a	0	0	0
2360.898	n/a	WORD	1180449	wordpools/wasnorm_wordpool_576.txt	LTP278	ltpFR2	12	11	PADDLE	1000	n/a	n/a	0	0	0
2363.394	n/a	WORD	1181697	wordpools/wasnorm_wordpool_576.txt	LTP278	ltpFR2	12	11	PUPPY	1144	n/a	n/a	0	0	0
2366.108	n/a	WORD	1183054	wordpools/wasnorm_wordpool_576.txt	LTP278	ltpFR2	12	11	SUBWAY	1400	n/a	n/a	0	0	0
2368.788	n/a	WORD	1184394	wordpools/wasnorm_wordpool_576.txt	LTP278	ltpFR2	12	11	SANDWICH	1232	n/a	n/a	0	0	0
2371.532	n/a	WORD	1185766	wordpools/wasnorm_wordpool_576.txt	LTP278	ltpFR2	12	11	VELVET	1555	n/a	n/a	0	0	0
2373.964	n/a	WORD	1186982	wordpools/wasnorm_wordpool_576.txt	LTP278	ltpFR2	12	11	QUAIL	1147	n/a	n/a	0	0	0
2376.476	n/a	WORD	1188238	wordpools/wasnorm_wordpool_576.txt	LTP278	ltpFR2	12	11	MUFFIN	929	n/a	n/a	0	0	0
2378.906	n/a	WORD	1189453	wordpools/wasnorm_wordpool_576.txt	LTP278	ltpFR2	12	11	GUITAR	670	n/a	n/a	0	0	0
2381.55	n/a	WORD	1190775	wordpools/wasnorm_wordpool_576.txt	LTP278	ltpFR2	12	11	MATTRESS	879	n/a	n/a	0	0	0
2384.296	n/a	WORD	1192148	wordpools/wasnorm_wordpool_576.txt	LTP278	ltpFR2	12	11	GRILL	661	n/a	n/a	0	0	0
2387.01	n/a	WORD	1193505	wordpools/wasnorm_wordpool_576.txt	LTP278	ltpFR2	12	11	LEOPARD	812	n/a	n/a	0	0	0
2389.79	n/a	WORD	1194895	wordpools/wasnorm_wordpool_576.txt	LTP278	ltpFR2	12	11	VENUS	1557	n/a	n/a	0	0	0
2392.302	n/a	WORD	1196151	wordpools/wasnorm_wordpool_576.txt	LTP278	ltpFR2	12	11	AIRPORT	13	n/a	n/a	0	0	0
2394.882	n/a	WORD	1197441	wordpools/wasnorm_wordpool_576.txt	LTP278	ltpFR2	12	11	MOP	916	n/a	n/a	0	0	0
2397.51	n/a	WORD	1198755	wordpools/wasnorm_wordpool_576.txt	LTP278	ltpFR2	12	11	STAKE	1368	n/a	n/a	0	0	0
2400.058	n/a	WORD	1200029	wordpools/wasnorm_wordpool_576.txt	LTP278	ltpFR2	12	11	LUNCH	849	n/a	n/a	0	0	0
2402.854	n/a	WORD	1201427	wordpools/wasnorm_wordpool_576.txt	LTP278	ltpFR2	12	11	OX	994	n/a	n/a	0	0	0
2405.598	n/a	WORD	1202799	wordpools/wasnorm_wordpool_576.txt	LTP278	ltpFR2	12	11	PICNIC	1060	n/a	n/a	0	0	0
2407.214	n/a	START	1203607	n/a	LTP278	ltpFR2	12	n/a	n/a	n/a	14	n/a	n/a	n/a	n/a
2408.348	n/a	DISTRACTOR	1204174	n/a	LTP278	ltpFR2	12	11	n/a	n/a	n/a	n/a	0	0	0
2408.362	n/a	PROB	1204181	n/a	LTP278	ltpFR2	12	n/a	n/a	n/a	14	22	6	9	7
2413.52	n/a	PROB	1206760	n/a	LTP278	ltpFR2	12	n/a	n/a	n/a	14	10	3	1	6
2414.652	n/a	PROB	1207326	n/a	LTP278	ltpFR2	12	n/a	n/a	n/a	14	12	7	3	2
2415.85	n/a	PROB	1207925	n/a	LTP278	ltpFR2	12	n/a	n/a	n/a	14	12	3	3	6
2416.998	n/a	PROB	1208499	n/a	LTP278	ltpFR2	12	n/a	n/a	n/a	14	9	2	1	6
2418.112	n/a	PROB	1209056	n/a	LTP278	ltpFR2	12	n/a	n/a	n/a	14	20	6	5	9
2419.844	n/a	PROB	1209922	n/a	LTP278	ltpFR2	12	n/a	n/a	n/a	14	18	5	6	7
2421.924	n/a	PROB	1210962	n/a	LTP278	ltpFR2	12	n/a	n/a	n/a	14	19	9	1	9
2423.654	n/a	PROB	1211827	n/a	LTP278	ltpFR2	12	n/a	n/a	n/a	14	1	2	7	5
2426.834	n/a	PROB	1213417	n/a	LTP278	ltpFR2	12	n/a	n/a	n/a	14	14	5	2	7
2431.212	n/a	STOP	1215606	n/a	LTP278	ltpFR2	12	n/a	n/a	n/a	14	n/a	n/a	n/a	n/a
2433.092	n/a	REC_START	1216546	n/a	LTP278	ltpFR2	12	11	n/a	n/a	n/a	n/a	0	0	0
2450.496	n/a	REC_WORD	1225248	wordpools/wasnorm_wordpool_576.txt	LTP278	ltpFR2	12	11	VELVET	1555	n/a	n/a	0	0	0
2523.74	n/a	DISTRACTOR	1261870	n/a	LTP278	ltpFR2	12	12	n/a	n/a	n/a	n/a	0	0	0
2523.742	n/a	START	1261871	n/a	LTP278	ltpFR2	12	n/a	n/a	n/a	15	n/a	n/a	n/a	n/a
2523.776	n/a	PROB	1261888	n/a	LTP278	ltpFR2	12	n/a	n/a	n/a	15	19	5	7	7
2525.506	n/a	PROB	1262753	n/a	LTP278	ltpFR2	12	n/a	n/a	n/a	15	19	8	7	4
2527.752	n/a	PROB	1263876	n/a	LTP278	ltpFR2	12	n/a	n/a	n/a	15	16	4	8	4
2529.25	n/a	PROB	1264625	n/a	LTP278	ltpFR2	12	n/a	n/a	n/a	15	18	7	8	3
2531.696	n/a	PROB	1265848	n/a	LTP278	ltpFR2	12	n/a	n/a	n/a	15	8	1	5	2
2533.11	n/a	PROB	1266555	n/a	LTP278	ltpFR2	12	n/a	n/a	n/a	15	12	6	3	3
2534.424	n/a	PROB	1267212	n/a	LTP278	ltpFR2	12	n/a	n/a	n/a	15	3	1	1	1
2535.49	n/a	PROB	1267745	n/a	LTP278	ltpFR2	12	n/a	n/a	n/a	15	18	5	5	8
2536.922	n/a	PROB	1268461	n/a	LTP278	ltpFR2	12	n/a	n/a	n/a	15	19	7	6	6
2538.752	n/a	PROB	1269376	n/a	LTP278	ltpFR2	12	n/a	n/a	n/a	15	13	4	5	4
2540.448	n/a	PROB	1270224	n/a	LTP278	ltpFR2	12	n/a	n/a	n/a	15	11	7	2	2
2541.746	n/a	PROB	1270873	n/a	LTP278	ltpFR2	12	n/a	n/a	n/a	15	12	8	1	3
2543.144	n/a	PROB	1271572	n/a	LTP278	ltpFR2	12	n/a	n/a	n/a	15	19	2	8	9
2544.492	n/a	PROB	1272246	n/a	LTP278	ltpFR2	12	n/a	n/a	n/a	15	15	9	4	2
2546.794	n/a	STOP	1273397	n/a	LTP278	ltpFR2	12	n/a	n/a	n/a	15	n/a	n/a	n/a	n/a
2548.87	n/a	WORD	1274435	wordpools/wasnorm_wordpool_576.txt	LTP278	ltpFR2	12	12	BLUEPRINT	142	n/a	n/a	0	0	0
2551.682	n/a	WORD	1275841	wordpools/wasnorm_wordpool_576.txt	LTP278	ltpFR2	12	12	SNACK	1331	n/a	n/a	0	0	0
2554.344	n/a	WORD	1277172	wordpools/wasnorm_wordpool_576.txt	LTP278	ltpFR2	12	12	TURTLE	1522	n/a	n/a	0	0	0
2557.124	n/a	WORD	1278562	wordpools/wasnorm_wordpool_576.txt	LTP278	ltpFR2	12	12	WIFE	1609	n/a	n/a	0	0	0
2559.588	n/a	WORD	1279794	wordpools/wasnorm_wordpool_576.txt	LTP278	ltpFR2	12	12	FOX	598	n/a	n/a	0	0	0
2562.2	n/a	WORD	1281100	wordpools/wasnorm_wordpool_576.txt	LTP278	ltpFR2	12	12	CRUTCH	417	n/a	n/a	0	0	0
2564.914	n/a	WORD	1282457	wordpools/wasnorm_wordpool_576.txt	LTP278	ltpFR2	12	12	LOVER	846	n/a	n/a	0	0	0
2567.558	n/a	WORD	1283779	wordpools/wasnorm_wordpool_576.txt	LTP278	ltpFR2	12	12	PARTNER	1017	n/a	n/a	0	0	0
2570.138	n/a	WORD	1285069	wordpools/wasnorm_wordpool_576.txt	LTP278	ltpFR2	12	12	DASHBOARD	441	n/a	n/a	0	0	0
2572.786	n/a	WORD	1286393	wordpools/wasnorm_wordpool_576.txt	LTP278	ltpFR2	12	12	HOUND	724	n/a	n/a	0	0	0
2575.33	n/a	WORD	1287665	wordpools/wasnorm_wordpool_576.txt	LTP278	ltpFR2	12	12	BADGE	68	n/a	n/a	0	0	0
2577.962	n/a	WORD	1288981	wordpools/wasnorm_wordpool_576.txt	LTP278	ltpFR2	12	12	AGENT	10	n/a	n/a	0	0	0
2580.69	n/a	WORD	1290345	wordpools/wasnorm_wordpool_576.txt	LTP278	ltpFR2	12	12	ROBBER	1197	n/a	n/a	0	0	0
2583.302	n/a	WORD	1291651	wordpools/wasnorm_wordpool_576.txt	LTP278	ltpFR2	12	12	WRENCH	1625	n/a	n/a	0	0	0
2586.032	n/a	WORD	1293016	wordpools/wasnorm_wordpool_576.txt	LTP278	ltpFR2	12	12	JAPAN	749	n/a	n/a	0	0	0
2588.662	n/a	WORD	1294331	wordpools/wasnorm_wordpool_576.txt	LTP278	ltpFR2	12	12	TREAT	1501	n/a	n/a	0	0	0
2591.358	n/a	WORD	1295679	wordpools/wasnorm_wordpool_576.txt	LTP278	ltpFR2	12	12	LEG	809	n/a	n/a	0	0	0
2593.804	n/a	WORD	1296902	wordpools/wasnorm_wordpool_576.txt	LTP278	ltpFR2	12	12	ZEBRA	1635	n/a	n/a	0	0	0
2596.334	n/a	WORD	1298167	wordpools/wasnorm_wordpool_576.txt	LTP278	ltpFR2	12	12	COLONEL	348	n/a	n/a	0	0	0
2599.012	n/a	WORD	1299506	wordpools/wasnorm_wordpool_576.txt	LTP278	ltpFR2	12	12	SEAL	1262	n/a	n/a	0	0	0
2601.776	n/a	WORD	1300888	wordpools/wasnorm_wordpool_576.txt	LTP278	ltpFR2	12	12	CAMEL	223	n/a	n/a	0	0	0
2604.238	n/a	WORD	1302119	wordpools/wasnorm_wordpool_576.txt	LTP278	ltpFR2	12	12	PROTON	1132	n/a	n/a	0	0	0
2606.902	n/a	WORD	1303451	wordpools/wasnorm_wordpool_576.txt	LTP278	ltpFR2	12	12	MACHINE	852	n/a	n/a	0	0	0
2609.514	n/a	WORD	1304757	wordpools/wasnorm_wordpool_576.txt	LTP278	ltpFR2	12	12	ITEM	746	n/a	n/a	0	0	0
2611.128	n/a	START	1305564	n/a	LTP278	ltpFR2	12	n/a	n/a	n/a	16	n/a	n/a	n/a	n/a
2612.226	n/a	DISTRACTOR	1306113	n/a	LTP278	ltpFR2	12	12	n/a	n/a	n/a	n/a	0	0	0
2612.244	n/a	PROB	1306122	n/a	LTP278	ltpFR2	12	n/a	n/a	n/a	16	20	5	8	7
2617.252	n/a	PROB	1308626	n/a	LTP278	ltpFR2	12	n/a	n/a	n/a	16	24	9	9	6
2619.116	n/a	PROB	1309558	n/a	LTP278	ltpFR2	12	n/a	n/a	n/a	16	10	5	2	3
2621.064	n/a	PROB	1310532	n/a	LTP278	ltpFR2	12	n/a	n/a	n/a	16	12	2	5	5
2622.146	n/a	PROB	1311073	n/a	LTP278	ltpFR2	12	n/a	n/a	n/a	16	17	2	6	9
2623.828	n/a	PROB	1311914	n/a	LTP278	ltpFR2	12	n/a	n/a	n/a	16	11	5	4	2
2625.408	n/a	PROB	1312704	n/a	LTP278	ltpFR2	12	n/a	n/a	n/a	16	11	5	1	5
2626.456	n/a	PROB	1313228	n/a	LTP278	ltpFR2	12	n/a	n/a	n/a	16	16	6	1	9
2628.302	n/a	PROB	1314151	n/a	LTP278	ltpFR2	12	n/a	n/a	n/a	16	17	1	9	7
2630.1	n/a	PROB	1315050	n/a	LTP278	ltpFR2	12	n/a	n/a	n/a	16	17	5	3	9
2631.548	n/a	PROB	1315774	n/a	LTP278	ltpFR2	12	n/a	n/a	n/a	16	13	5	5	3
2632.798	n/a	PROB	1316399	n/a	LTP278	ltpFR2	12	n/a	n/a	n/a	16	14	2	9	3
2634.492	n/a	STOP	1317246	n/a	LTP278	ltpFR2	12	n/a	n/a	n/a	16	n/a	n/a	n/a	n/a
2636.926	n/a	REC_START	1318463	n/a	LTP278	ltpFR2	12	12	n/a	n/a	n/a	n/a	0	0	0
2637.856	n/a	REC_WORD	1318928	wordpools/wasnorm_wordpool_576.txt	LTP278	ltpFR2	12	12	LOVER	846	n/a	n/a	0	0	0
2638.488	n/a	REC_WORD	1319244	wordpools/wasnorm_wordpool_576.txt	LTP278	ltpFR2	12	12	ZEBRA	1635	n/a	n/a	0	0	0
2639.394	n/a	REC_WORD	1319697	wordpools/wasnorm_wordpool_576.txt	LTP278	ltpFR2	12	12	LEG	809	n/a	n/a	0	0	0
2643.244	n/a	REC_WORD	1321622	wordpools/wasnorm_wordpool_576.txt	LTP278	ltpFR2	12	12	TURTLE	1522	n/a	n/a	0	0	0
2658.83	n/a	REC_WORD	1329415	wordpools/wasnorm_wordpool_576.txt	LTP278	ltpFR2	12	12	GROUND	666	n/a	n/a	0	0	0
2727.622	n/a	DISTRACTOR	1363811	n/a	LTP278	ltpFR2	12	13	n/a	n/a	n/a	n/a	0	0	0
2727.622	n/a	START	1363811	n/a	LTP278	ltpFR2	12	n/a	n/a	n/a	17	n/a	n/a	n/a	n/a
2727.656	n/a	PROB	1363828	n/a	LTP278	ltpFR2	12	n/a	n/a	n/a	17	16	8	1	7
2729.652	n/a	PROB	1364826	n/a	LTP278	ltpFR2	12	n/a	n/a	n/a	17	15	6	3	6
2731.868	n/a	PROB	1365934	n/a	LTP278	ltpFR2	12	n/a	n/a	n/a	17	18	7	9	2
2733.48	n/a	PROB	1366740	n/a	LTP278	ltpFR2	12	n/a	n/a	n/a	17	11	6	4	1
2734.962	n/a	PROB	1367481	n/a	LTP278	ltpFR2	12	n/a	n/a	n/a	17	19	1	9	9
2736.992	n/a	PROB	1368496	n/a	LTP278	ltpFR2	12	n/a	n/a	n/a	17	13	5	6	2
2738.574	n/a	PROB	1369287	n/a	LTP278	ltpFR2	12	n/a	n/a	n/a	17	14	8	5	1
2740.088	n/a	PROB	1370044	n/a	LTP278	ltpFR2	12	n/a	n/a	n/a	17	6	1	4	1
2741.386	n/a	PROB	1370693	n/a	LTP278	ltpFR2	12	n/a	n/a	n/a	17	11	2	5	4
2743.3	n/a	PROB	1371650	n/a	LTP278	ltpFR2	12	n/a	n/a	n/a	17	6	3	2	1
2744.98	n/a	PROB	1372490	n/a	LTP278	ltpFR2	12	n/a	n/a	n/a	17	21	8	9	4
2747.71	n/a	PROB	1373855	n/a	LTP278	ltpFR2	12	n/a	n/a	n/a	17	10	3	1	6
2749.14	n/a	PROB	1374570	n/a	LTP278	ltpFR2	12	n/a	n/a	n/a	17	25	8	8	9
2751.198	n/a	STOP	1375599	n/a	LTP278	ltpFR2	12	n/a	n/a	n/a	17	n/a	n/a	n/a	n/a
2752.57	n/a	WORD	1376285	wordpools/wasnorm_wordpool_576.txt	LTP278	ltpFR2	12	13	REBEL	1172	n/a	n/a	0	0	0
2755.116	n/a	WORD	1377558	wordpools/wasnorm_wordpool_576.txt	LTP278	ltpFR2	12	13	OUTLAW	989	n/a	n/a	0	0	0
2757.862	n/a	WORD	1378931	wordpools/wasnorm_wordpool_576.txt	LTP278	ltpFR2	12	13	TORTOISE	1486	n/a	n/a	0	0	0
2760.54	n/a	WORD	1380270	wordpools/wasnorm_wordpool_576.txt	LTP278	ltpFR2	12	13	SNAIL	1332	n/a	n/a	0	0	0
2763.136	n/a	WORD	1381568	wordpools/wasnorm_wordpool_576.txt	LTP278	ltpFR2	12	13	MONEY	908	n/a	n/a	0	0	0
2765.634	n/a	WORD	1382817	wordpools/wasnorm_wordpool_576.txt	LTP278	ltpFR2	12	13	SISTER	1312	n/a	n/a	0	0	0
2768.196	n/a	WORD	1384098	wordpools/wasnorm_wordpool_576.txt	LTP278	ltpFR2	12	13	TUNNEL	1519	n/a	n/a	0	0	0
2770.992	n/a	WORD	1385496	wordpools/wasnorm_wordpool_576.txt	LTP278	ltpFR2	12	13	BOYFRIEND	162	n/a	n/a	0	0	0
2773.688	n/a	WORD	1386844	wordpools/wasnorm_wordpool_576.txt	LTP278	ltpFR2	12	13	ANTLER	29	n/a	n/a	0	0	0
2776.234	n/a	WORD	1388117	wordpools/wasnorm_wordpool_576.txt	LTP278	ltpFR2	12	13	MEDAL	885	n/a	n/a	0	0	0
2778.714	n/a	WORD	1389357	wordpools/wasnorm_wordpool_576.txt	LTP278	ltpFR2	12	13	VICTIM	1562	n/a	n/a	0	0	0
2781.276	n/a	WORD	1390638	wordpools/wasnorm_wordpool_576.txt	LTP278	ltpFR2	12	13	PEANUT	1032	n/a	n/a	0	0	0
2783.988	n/a	WORD	1391994	wordpools/wasnorm_wordpool_576.txt	LTP278	ltpFR2	12	13	BOUQUET	157	n/a	n/a	0	0	0
2786.634	n/a	WORD	1393317	wordpools/wasnorm_wordpool_576.txt	LTP278	ltpFR2	12	13	CITRUS	313	n/a	n/a	0	0	0
2789.33	n/a	WORD	1394665	wordpools/wasnorm_wordpool_576.txt	LTP278	ltpFR2	12	13	GARBAGE	622	n/a	n/a	0	0	0
2792.01	n/a	WORD	1396005	wordpools/wasnorm_wordpool_576.txt	LTP278	ltpFR2	12	13	KNAPSACK	783	n/a	n/a	0	0	0
2794.808	n/a	WORD	1397404	wordpools/wasnorm_wordpool_576.txt	LTP278	ltpFR2	12	13	EMPIRE	530	n/a	n/a	0	0	0
2797.236	n/a	WORD	1398618	wordpools/wasnorm_wordpool_576.txt	LTP278	ltpFR2	12	13	OFFICE	972	n/a	n/a	0	0	0
2799.834	n/a	WORD	1399917	wordpools/wasnorm_wordpool_576.txt	LTP278	ltpFR2	12	13	JEANS	752	n/a	n/a	0	0	0
2802.628	n/a	WORD	1401314	wordpools/wasnorm_wordpool_576.txt	LTP278	ltpFR2	12	13	CHAUFFEUR	283	n/a	n/a	0	0	0
2805.34	n/a	WORD	1402670	wordpools/wasnorm_wordpool_576.txt	LTP278	ltpFR2	12	13	DONKEY	484	n/a	n/a	0	0	0
2807.804	n/a	WORD	1403902	wordpools/wasnorm_wordpool_576.txt	LTP278	ltpFR2	12	13	INMATE	738	n/a	n/a	0	0	0
2810.516	n/a	WORD	1405258	wordpools/wasnorm_wordpool_576.txt	LTP278	ltpFR2	12	13	SHIRT	1287	n/a	n/a	0	0	0
2813.312	n/a	WORD	1406656	wordpools/wasnorm_wordpool_576.txt	LTP278	ltpFR2	12	13	TAXI	1438	n/a	n/a	0	0	0
2814.928	n/a	START	1407464	n/a	LTP278	ltpFR2	12	n/a	n/a	n/a	18	n/a	n/a	n/a	n/a
2815.866	n/a	DISTRACTOR	1407933	n/a	LTP278	ltpFR2	12	13	n/a	n/a	n/a	n/a	0	0	0
2815.876	n/a	PROB	1407938	n/a	LTP278	ltpFR2	12	n/a	n/a	n/a	18	11	2	3	6
2819.986	n/a	PROB	1409993	n/a	LTP278	ltpFR2	12	n/a	n/a	n/a	18	11	4	3	4
2824.114	n/a	PROB	1412057	n/a	LTP278	ltpFR2	12	n/a	n/a	n/a	18	14	3	2	9
2825.794	n/a	PROB	1412897	n/a	LTP278	ltpFR2	12	n/a	n/a	n/a	18	14	1	5	8
2827.492	n/a	PROB	1413746	n/a	LTP278	ltpFR2	12	n/a	n/a	n/a	18	17	9	6	2
2829.888	n/a	PROB	1414944	n/a	LTP278	ltpFR2	12	n/a	n/a	n/a	18	11	2	5	4
2833.466	n/a	PROB	1416733	n/a	LTP278	ltpFR2	12	n/a	n/a	n/a	18	15	4	7	4
2834.998	n/a	PROB	1417499	n/a	LTP278	ltpFR2	12	n/a	n/a	n/a	18	10	3	5	2
2836.912	n/a	PROB	1418456	n/a	LTP278	ltpFR2	12	n/a	n/a	n/a	18	12	4	7	1
2838.446	n/a	STOP	1419223	n/a	LTP278	ltpFR2	12	n/a	n/a	n/a	18	n/a	n/a	n/a	n/a
2840.706	n/a	REC_START	1420353	n/a	LTP278	ltpFR2	12	13	n/a	n/a	n/a	n/a	0	0	0
2841.196	n/a	REC_WORD	1420598	wordpools/wasnorm_wordpool_576.txt	LTP278	ltpFR2	12	13	OUTLAW	989	n/a	n/a	0	0	0
2842.096	n/a	REC_WORD	1421048	wordpools/wasnorm_wordpool_576.txt	LTP278	ltpFR2	12	13	REBEL	1172	n/a	n/a	0	0	0
2842.91	n/a	REC_WORD	1421455	wordpools/wasnorm_wordpool_576.txt	LTP278	ltpFR2	12	13	CITRUS	313	n/a	n/a	0	0	0
2844.848	n/a	REC_WORD	1422424	wordpools/wasnorm_wordpool_576.txt	LTP278	ltpFR2	12	13	BOUQUET	157	n/a	n/a	0	0	0
2846.346	n/a	REC_WORD	1423173	wordpools/wasnorm_wordpool_576.txt	LTP278	ltpFR2	12	13	PEANUT	1032	n/a	n/a	0	0	0
2847.536	n/a	REC_WORD	1423768	wordpools/wasnorm_wordpool_576.txt	LTP278	ltpFR2	12	13	GARBAGE	622	n/a	n/a	0	0	0
2848.532	n/a	REC_WORD	1424266	wordpools/wasnorm_wordpool_576.txt	LTP278	ltpFR2	12	13	KNAPSACK	783	n/a	n/a	0	0	0
2931.37	n/a	WORD	1465685	wordpools/wasnorm_wordpool_576.txt	LTP278	ltpFR2	12	14	SCARECROW	1245	n/a	n/a	0	0	0
2934.05	n/a	WORD	1467025	wordpools/wasnorm_wordpool_576.txt	LTP278	ltpFR2	12	14	DANDRUFF	439	n/a	n/a	0	0	0
2936.714	n/a	WORD	1468357	wordpools/wasnorm_wordpool_576.txt	LTP278	ltpFR2	12	14	FLAG	573	n/a	n/a	0	0	0
2939.476	n/a	WORD	1469738	wordpools/wasnorm_wordpool_576.txt	LTP278	ltpFR2	12	14	ISLAND	745	n/a	n/a	0	0	0
2941.924	n/a	WORD	1470962	wordpools/wasnorm_wordpool_576.txt	LTP278	ltpFR2	12	14	HAND	683	n/a	n/a	0	0	0
2944.436	n/a	WORD	1472218	wordpools/wasnorm_wordpool_576.txt	LTP278	ltpFR2	12	14	SURVEY	1414	n/a	n/a	0	0	0
2946.966	n/a	WORD	1473483	wordpools/wasnorm_wordpool_576.txt	LTP278	ltpFR2	12	14	WIDOW	1608	n/a	n/a	0	0	0
2949.628	n/a	WORD	1474814	wordpools/wasnorm_wordpool_576.txt	LTP278	ltpFR2	12	14	TOMBSTONE	1478	n/a	n/a	0	0	0
2952.208	n/a	WORD	1476104	wordpools/wasnorm_wordpool_576.txt	LTP278	ltpFR2	12	14	PRINCESS	1125	n/a	n/a	0	0	0
2954.654	n/a	WORD	1477327	wordpools/wasnorm_wordpool_576.txt	LTP278	ltpFR2	12	14	PARENT	1013	n/a	n/a	0	0	0
2957.35	n/a	WORD	1478675	wordpools/wasnorm_wordpool_576.txt	LTP278	ltpFR2	12	14	CLOUD	328	n/a	n/a	0	0	0
2959.83	n/a	WORD	1479915	wordpools/wasnorm_wordpool_576.txt	LTP278	ltpFR2	12	14	NOVEL	960	n/a	n/a	0	0	0
2962.276	n/a	WORD	1481138	wordpools/wasnorm_wordpool_576.txt	LTP278	ltpFR2	12	14	BANKER	84	n/a	n/a	0	0	0
2964.922	n/a	WORD	1482461	wordpools/wasnorm_wordpool_576.txt	LTP278	ltpFR2	12	14	COCKTAIL	338	n/a	n/a	0	0	0
2967.534	n/a	WORD	1483767	wordpools/wasnorm_wordpool_576.txt	LTP278	ltpFR2	12	14	PEPPER	1047	n/a	n/a	0	0	0
2970.298	n/a	WORD	1485149	wordpools/wasnorm_wordpool_576.txt	LTP278	ltpFR2	12	14	BLADE	134	n/a	n/a	0	0	0
2972.994	n/a	WORD	1486497	wordpools/wasnorm_wordpool_576.txt	LTP278	ltpFR2	12	14	PORTRAIT	1111	n/a	n/a	0	0	0
2975.59	n/a	WORD	1487795	wordpools/wasnorm_wordpool_576.txt	LTP278	ltpFR2	12	14	JOURNAL	760	n/a	n/a	0	0	0
2978.318	n/a	WORD	1489159	wordpools/wasnorm_wordpool_576.txt	LTP278	ltpFR2	12	14	GREASE	660	n/a	n/a	0	0	0
2980.8	n/a	WORD	1490400	wordpools/wasnorm_wordpool_576.txt	LTP278	ltpFR2	12	14	BANK	83	n/a	n/a	0	0	0
2983.56	n/a	WORD	1491780	wordpools/wasnorm_wordpool_576.txt	LTP278	ltpFR2	12	14	SKETCH	1315	n/a	n/a	0	0	0
2986.356	n/a	WORD	1493178	wordpools/wasnorm_wordpool_576.txt	LTP278	ltpFR2	12	14	RABBIT	1152	n/a	n/a	0	0	0
2989.07	n/a	WORD	1494535	wordpools/wasnorm_wordpool_576.txt	LTP278	ltpFR2	12	14	CARROT	249	n/a	n/a	0	0	0
2991.784	n/a	WORD	1495892	wordpools/wasnorm_wordpool_576.txt	LTP278	ltpFR2	12	14	PATIENT	1024	n/a	n/a	0	0	0
2993.396	n/a	START	1496698	n/a	LTP278	ltpFR2	12	n/a	n/a	n/a	19	n/a	n/a	n/a	n/a
2994.282	n/a	DISTRACTOR	1497141	n/a	LTP278	ltpFR2	12	14	n/a	n/a	n/a	n/a	0	0	0
2994.296	n/a	PROB	1497148	n/a	LTP278	ltpFR2	12	n/a	n/a	n/a	19	18	1	8	9
2999.638	n/a	PROB	1499819	n/a	LTP278	ltpFR2	12	n/a	n/a	n/a	19	9	4	3	2
3001.852	n/a	PROB	1500926	n/a	LTP278	ltpFR2	12	n/a	n/a	n/a	19	15	8	4	3
3003.398	n/a	PROB	1501699	n/a	LTP278	ltpFR2	12	n/a	n/a	n/a	19	12	8	2	2
3004.73	n/a	PROB	1502365	n/a	LTP278	ltpFR2	12	n/a	n/a	n/a	19	19	8	9	2
3006.71	n/a	PROB	1503355	n/a	LTP278	ltpFR2	12	n/a	n/a	n/a	19	21	8	4	9
3010.238	n/a	PROB	1505119	n/a	LTP278	ltpFR2	12	n/a	n/a	n/a	19	18	4	8	6
3012.368	n/a	PROB	1506184	n/a	LTP278	ltpFR2	12	n/a	n/a	n/a	19	13	9	3	1
3017.396	n/a	STOP	1508698	n/a	LTP278	ltpFR2	12	n/a	n/a	n/a	19	n/a	n/a	n/a	n/a
3019.308	n/a	REC_START	1509654	n/a	LTP278	ltpFR2	12	14	n/a	n/a	n/a	n/a	0	0	0
3091.71	n/a	REC_WORD	1545855	wordpools/wasnorm_wordpool_576.txt	LTP278	ltpFR2	12	14	SCARECROW	1245	n/a	n/a	0	0	0
3092.482	n/a	REC_WORD	1546241	wordpools/wasnorm_wordpool_576.txt	LTP278	ltpFR2	12	14	FLAG	573	n/a	n/a	0	0	0
3093.696	n/a	REC_WORD	1546848	wordpools/wasnorm_wordpool_576.txt	LTP278	ltpFR2	12	14	ISLAND	745	n/a	n/a	0	0	0
3109.99	n/a	DISTRACTOR	1554995	n/a	LTP278	ltpFR2	12	15	n/a	n/a	n/a	n/a	0	0	0
3109.99	n/a	START	1554995	n/a	LTP278	ltpFR2	12	n/a	n/a	n/a	20	n/a	n/a	n/a	n/a
3110.024	n/a	PROB	1555012	n/a	LTP278	ltpFR2	12	n/a	n/a	n/a	20	8	4	1	3
3111.406	n/a	PROB	1555703	n/a	LTP278	ltpFR2	12	n/a	n/a	n/a	20	20	7	9	4
3114.5	n/a	PROB	1557250	n/a	LTP278	ltpFR2	12	n/a	n/a	n/a	20	24	9	6	9
3117.23	n/a	PROB	1558615	n/a	LTP278	ltpFR2	12	n/a	n/a	n/a	20	11	2	7	2
3118.644	n/a	PROB	1559322	n/a	LTP278	ltpFR2	12	n/a	n/a	n/a	20	7	2	3	2
3121.624	n/a	PROB	1560812	n/a	LTP278	ltpFR2	12	n/a	n/a	n/a	20	16	5	7	4
3123.404	n/a	PROB	1561702	n/a	LTP278	ltpFR2	12	n/a	n/a	n/a	20	21	7	9	5
3127.782	n/a	PROB	1563891	n/a	LTP278	ltpFR2	12	n/a	n/a	n/a	20	15	6	6	3
3129.794	n/a	PROB	1564897	n/a	LTP278	ltpFR2	12	n/a	n/a	n/a	20	5	3	1	1
3131.026	n/a	PROB	1565513	n/a	LTP278	ltpFR2	12	n/a	n/a	n/a	20	13	2	7	4
3132.906	n/a	STOP	1566453	n/a	LTP278	ltpFR2	12	n/a	n/a	n/a	20	n/a	n/a	n/a	n/a
3135.22	n/a	WORD	1567610	wordpools/wasnorm_wordpool_576.txt	LTP278	ltpFR2	12	15	BANJO	82	n/a	n/a	0	0	0
3138.032	n/a	WORD	1569016	wordpools/wasnorm_wordpool_576.txt	LTP278	ltpFR2	12	15	VAGRANT	1544	n/a	n/a	0	0	0
3140.712	n/a	WORD	1570356	wordpools/wasnorm_wordpool_576.txt	LTP278	ltpFR2	12	15	HELMET	702	n/a	n/a	0	0	0
3143.14	n/a	WORD	1571570	wordpools/wasnorm_wordpool_576.txt	LTP278	ltpFR2	12	15	OMELET	976	n/a	n/a	0	0	0
3145.57	n/a	WORD	1572785	wordpools/wasnorm_wordpool_576.txt	LTP278	ltpFR2	12	15	FIREMAN	569	n/a	n/a	0	0	0
3148.35	n/a	WORD	1574175	wordpools/wasnorm_wordpool_576.txt	LTP278	ltpFR2	12	15	DRAGON	492	n/a	n/a	0	0	0
3151.112	n/a	WORD	1575556	wordpools/wasnorm_wordpool_576.txt	LTP278	ltpFR2	12	15	HANDBAG	684	n/a	n/a	0	0	0
3153.692	n/a	WORD	1576846	wordpools/wasnorm_wordpool_576.txt	LTP278	ltpFR2	12	15	RECORD	1176	n/a	n/a	0	0	0
3156.454	n/a	WORD	1578227	wordpools/wasnorm_wordpool_576.txt	LTP278	ltpFR2	12	15	DENIM	446	n/a	n/a	0	0	0
3158.952	n/a	WORD	1579476	wordpools/wasnorm_wordpool_576.txt	LTP278	ltpFR2	12	15	BLOUSE	139	n/a	n/a	0	0	0
3161.73	n/a	WORD	1580865	wordpools/wasnorm_wordpool_576.txt	LTP278	ltpFR2	12	15	TEMPLE	1448	n/a	n/a	0	0	0
3164.476	n/a	WORD	1582238	wordpools/wasnorm_wordpool_576.txt	LTP278	ltpFR2	12	15	LEADER	807	n/a	n/a	0	0	0
3167.122	n/a	WORD	1583561	wordpools/wasnorm_wordpool_576.txt	LTP278	ltpFR2	12	15	HOSTESS	723	n/a	n/a	0	0	0
3169.786	n/a	WORD	1584893	wordpools/wasnorm_wordpool_576.txt	LTP278	ltpFR2	12	15	HERO	706	n/a	n/a	0	0	0
3172.532	n/a	WORD	1586266	wordpools/wasnorm_wordpool_576.txt	LTP278	ltpFR2	12	15	WHISTLE	1606	n/a	n/a	0	0	0
3175.21	n/a	WORD	1587605	wordpools/wasnorm_wordpool_576.txt	LTP278	ltpFR2	12	15	CORAL	378	n/a	n/a	0	0	0
3177.824	n/a	WORD	1588912	wordpools/wasnorm_wordpool_576.txt	LTP278	ltpFR2	12	15	WORLD	1622	n/a	n/a	0	0	0
3180.602	n/a	WORD	1590301	wordpools/wasnorm_wordpool_576.txt	LTP278	ltpFR2	12	15	NAPKIN	937	n/a	n/a	0	0	0
3183.066	n/a	WORD	1591533	wordpools/wasnorm_wordpool_576.txt	LTP278	ltpFR2	12	15	RAZOR	1171	n/a	n/a	0	0	0
3185.862	n/a	WORD	1592931	wordpools/wasnorm_wordpool_576.txt	LTP278	ltpFR2	12	15	ATLAS	53	n/a	n/a	0	0	0
3188.524	n/a	WORD	1594262	wordpools/wasnorm_wordpool_576.txt	LTP278	ltpFR2	12	15	GRAVEL	659	n/a	n/a	0	0	0
3191.17	n/a	WORD	1595585	wordpools/wasnorm_wordpool_576.txt	LTP278	ltpFR2	12	15	HATCHET	691	n/a	n/a	0	0	0
3193.684	n/a	WORD	1596842	wordpools/wasnorm_wordpool_576.txt	LTP278	ltpFR2	12	15	MARSH	874	n/a	n/a	0	0	0
3196.212	n/a	WORD	1598106	wordpools/wasnorm_wordpool_576.txt	LTP278	ltpFR2	12	15	WAITER	1580	n/a	n/a	0	0	0
3197.828	n/a	START	1598914	n/a	LTP278	ltpFR2	12	n/a	n/a	n/a	21	n/a	n/a	n/a	n/a
3198.94	n/a	DISTRACTOR	1599470	n/a	LTP278	ltpFR2	12	15	n/a	n/a	n/a	n/a	0	0	0
3198.944	n/a	PROB	1599472	n/a	LTP278	ltpFR2	12	n/a	n/a	n/a	21	13	3	3	7
3202.072	n/a	PROB	1601036	n/a	LTP278	ltpFR2	12	n/a	n/a	n/a	21	18	8	8	2
3203.586	n/a	PROB	1601793	n/a	LTP278	ltpFR2	12	n/a	n/a	n/a	21	12	5	2	5
3204.65	n/a	PROB	1602325	n/a	LTP278	ltpFR2	12	n/a	n/a	n/a	21	16	5	2	9
3206.514	n/a	PROB	1603257	n/a	LTP278	ltpFR2	12	n/a	n/a	n/a	21	16	1	6	9
3208.378	n/a	PROB	1604189	n/a	LTP278	ltpFR2	12	n/a	n/a	n/a	21	9	2	2	5
3209.96	n/a	PROB	1604980	n/a	LTP278	ltpFR2	12	n/a	n/a	n/a	21	7	1	3	3
3211.274	n/a	PROB	1605637	n/a	LTP278	ltpFR2	12	n/a	n/a	n/a	21	18	9	6	3
3213.222	n/a	PROB	1606611	n/a	LTP278	ltpFR2	12	n/a	n/a	n/a	21	9	3	1	5
3216.0	n/a	PROB	1608000	n/a	LTP278	ltpFR2	12	n/a	n/a	n/a	21	21	9	9	3
3217.514	n/a	PROB	1608757	n/a	LTP278	ltpFR2	12	n/a	n/a	n/a	21	8	4	3	1
3219.03	n/a	PROB	1609515	n/a	LTP278	ltpFR2	12	n/a	n/a	n/a	21	16	3	4	9
3220.428	n/a	STOP	1610214	n/a	LTP278	ltpFR2	12	n/a	n/a	n/a	21	n/a	n/a	n/a	n/a
3223.706	n/a	REC_START	1611853	n/a	LTP278	ltpFR2	12	15	n/a	n/a	n/a	n/a	0	0	0
3225.152	n/a	REC_WORD	1612576	wordpools/wasnorm_wordpool_576.txt	LTP278	ltpFR2	12	15	HATCHET	691	n/a	n/a	0	0	0
3229.756	n/a	REC_WORD	1614878	wordpools/wasnorm_wordpool_576.txt	LTP278	ltpFR2	12	15	VAGRANT	1544	n/a	n/a	0	0	0
3232.066	n/a	REC_WORD	1616033	wordpools/wasnorm_wordpool_576.txt	LTP278	ltpFR2	12	15	BANJO	82	n/a	n/a	0	0	0
3238.096	n/a	REC_WORD	1619048	wordpools/wasnorm_wordpool_576.txt	LTP278	ltpFR2	12	15	HELMET	702	n/a	n/a	0	0	0
3239.466	n/a	REC_WORD	1619733	wordpools/wasnorm_wordpool_576.txt	LTP278	ltpFR2	12	15	LEADER	807	n/a	n/a	0	0	0
3240.376	n/a	REC_WORD	1620188	wordpools/wasnorm_wordpool_576.txt	LTP278	ltpFR2	12	15	HOSTESS	723	n/a	n/a	0	0	0
3241.59	n/a	REC_WORD	1620795	wordpools/wasnorm_wordpool_576.txt	LTP278	ltpFR2	12	15	TEMPLE	1448	n/a	n/a	0	0	0
3243.342	n/a	REC_WORD	1621671	wordpools/wasnorm_wordpool_576.txt	LTP278	ltpFR2	12	15	HERO	706	n/a	n/a	0	0	0
3244.102	n/a	REC_WORD	1622051	wordpools/wasnorm_wordpool_576.txt	LTP278	ltpFR2	12	15	FIREMAN	569	n/a	n/a	0	0	0
3244.974	n/a	REC_WORD	1622487	wordpools/wasnorm_wordpool_576.txt	LTP278	ltpFR2	12	15	DENIM	446	n/a	n/a	0	0	0
3245.648	n/a	REC_WORD	1622824	wordpools/wasnorm_wordpool_576.txt	LTP278	ltpFR2	12	15	BLOUSE	139	n/a	n/a	0	0	0
3254.76	n/a	REC_WORD	1627380	wordpools/wasnorm_wordpool_576.txt	LTP278	ltpFR2	12	15	ATLAS	53	n/a	n/a	0	0	0
3314.388	n/a	DISTRACTOR	1657194	n/a	LTP278	ltpFR2	12	16	n/a	n/a	n/a	n/a	0	0	0
3314.388	n/a	START	1657194	n/a	LTP278	ltpFR2	12	n/a	n/a	n/a	22	n/a	n/a	n/a	n/a
3314.422	n/a	PROB	1657211	n/a	LTP278	ltpFR2	12	n/a	n/a	n/a	22	12	8	3	1
3316.12	n/a	PROB	1658060	n/a	LTP278	ltpFR2	12	n/a	n/a	n/a	22	26	9	8	9
3319.898	n/a	PROB	1659949	n/a	LTP278	ltpFR2	12	n/a	n/a	n/a	22	13	6	3	4
3321.562	n/a	PROB	1660781	n/a	LTP278	ltpFR2	12	n/a	n/a	n/a	22	13	4	1	8
3323.208	n/a	PROB	1661604	n/a	LTP278	ltpFR2	12	n/a	n/a	n/a	22	17	9	3	5
3325.672	n/a	PROB	1662836	n/a	LTP278	ltpFR2	12	n/a	n/a	n/a	22	18	3	8	7
3327.92	n/a	PROB	1663960	n/a	LTP278	ltpFR2	12	n/a	n/a	n/a	22	12	1	3	6
3329.316	n/a	PROB	1664658	n/a	LTP278	ltpFR2	12	n/a	n/a	n/a	22	18	6	9	3
3331.88	n/a	PROB	1665940	n/a	LTP278	ltpFR2	12	n/a	n/a	n/a	22	19	9	5	5
3333.078	n/a	PROB	1666539	n/a	LTP278	ltpFR2	12	n/a	n/a	n/a	22	17	3	6	8
3335.94	n/a	PROB	1667970	n/a	LTP278	ltpFR2	12	n/a	n/a	n/a	22	7	3	3	1
3337.334	n/a	STOP	1668667	n/a	LTP278	ltpFR2	12	n/a	n/a	n/a	22	n/a	n/a	n/a	n/a
3339.318	n/a	WORD	1669659	wordpools/wasnorm_wordpool_576.txt	LTP278	ltpFR2	12	16	UMPIRE	1535	n/a	n/a	0	0	0
3342.13	n/a	WORD	1671065	wordpools/wasnorm_wordpool_576.txt	LTP278	ltpFR2	12	16	FREEZER	604	n/a	n/a	0	0	0
3344.678	n/a	WORD	1672339	wordpools/wasnorm_wordpool_576.txt	LTP278	ltpFR2	12	16	BASEMENT	94	n/a	n/a	0	0	0
3347.49	n/a	WORD	1673745	wordpools/wasnorm_wordpool_576.txt	LTP278	ltpFR2	12	16	CLOTHES	327	n/a	n/a	0	0	0
3350.07	n/a	WORD	1675035	wordpools/wasnorm_wordpool_576.txt	LTP278	ltpFR2	12	16	RIFLE	1192	n/a	n/a	0	0	0
3352.632	n/a	WORD	1676316	wordpools/wasnorm_wordpool_576.txt	LTP278	ltpFR2	12	16	TWEEZERS	1526	n/a	n/a	0	0	0
3355.062	n/a	WORD	1677531	wordpools/wasnorm_wordpool_576.txt	LTP278	ltpFR2	12	16	NOMAD	955	n/a	n/a	0	0	0
3357.742	n/a	WORD	1678871	wordpools/wasnorm_wordpool_576.txt	LTP278	ltpFR2	12	16	MISTER	901	n/a	n/a	0	0	0
3360.27	n/a	WORD	1680135	wordpools/wasnorm_wordpool_576.txt	LTP278	ltpFR2	12	16	PIGMENT	1066	n/a	n/a	0	0	0
3363.034	n/a	WORD	1681517	wordpools/wasnorm_wordpool_576.txt	LTP278	ltpFR2	12	16	AUTHOR	61	n/a	n/a	0	0	0
3365.798	n/a	WORD	1682899	wordpools/wasnorm_wordpool_576.txt	LTP278	ltpFR2	12	16	COSTUME	383	n/a	n/a	0	0	0
3368.492	n/a	WORD	1684246	wordpools/wasnorm_wordpool_576.txt	LTP278	ltpFR2	12	16	PEDAL	1037	n/a	n/a	0	0	0
3370.922	n/a	WORD	1685461	wordpools/wasnorm_wordpool_576.txt	LTP278	ltpFR2	12	16	TRACTOR	1493	n/a	n/a	0	0	0
3373.35	n/a	WORD	1686675	wordpools/wasnorm_wordpool_576.txt	LTP278	ltpFR2	12	16	GANGSTER	620	n/a	n/a	0	0	0
3375.848	n/a	WORD	1687924	wordpools/wasnorm_wordpool_576.txt	LTP278	ltpFR2	12	16	VALLEY	1545	n/a	n/a	0	0	0
3378.476	n/a	WORD	1689238	wordpools/wasnorm_wordpool_576.txt	LTP278	ltpFR2	12	16	SPOUSE	1358	n/a	n/a	0	0	0
3381.206	n/a	WORD	1690603	wordpools/wasnorm_wordpool_576.txt	LTP278	ltpFR2	12	16	EXPERT	543	n/a	n/a	0	0	0
3383.77	n/a	WORD	1691885	wordpools/wasnorm_wordpool_576.txt	LTP278	ltpFR2	12	16	BEEF	113	n/a	n/a	0	0	0
3386.314	n/a	WORD	1693157	wordpools/wasnorm_wordpool_576.txt	LTP278	ltpFR2	12	16	MASK	876	n/a	n/a	0	0	0
3388.994	n/a	WORD	1694497	wordpools/wasnorm_wordpool_576.txt	LTP278	ltpFR2	12	16	CATCHER	258	n/a	n/a	0	0	0
3391.608	n/a	WORD	1695804	wordpools/wasnorm_wordpool_576.txt	LTP278	ltpFR2	12	16	COURSE	390	n/a	n/a	0	0	0
3394.304	n/a	WORD	1697152	wordpools/wasnorm_wordpool_576.txt	LTP278	ltpFR2	12	16	SKILLET	1317	n/a	n/a	0	0	0
3396.784	n/a	WORD	1698392	wordpools/wasnorm_wordpool_576.txt	LTP278	ltpFR2	12	16	YOLK	1633	n/a	n/a	0	0	0
3399.446	n/a	WORD	1699723	wordpools/wasnorm_wordpool_576.txt	LTP278	ltpFR2	12	16	SERVER	1272	n/a	n/a	0	0	0
3401.06	n/a	START	1700530	n/a	LTP278	ltpFR2	12	n/a	n/a	n/a	23	n/a	n/a	n/a	n/a
3402.176	n/a	DISTRACTOR	1701088	n/a	LTP278	ltpFR2	12	16	n/a	n/a	n/a	n/a	0	0	0
3402.192	n/a	PROB	1701096	n/a	LTP278	ltpFR2	12	n/a	n/a	n/a	23	22	9	6	7
3408.066	n/a	PROB	1704033	n/a	LTP278	ltpFR2	12	n/a	n/a	n/a	23	9	2	6	1
3409.43	n/a	PROB	1704715	n/a	LTP278	ltpFR2	12	n/a	n/a	n/a	23	21	7	7	7
3410.864	n/a	PROB	1705432	n/a	LTP278	ltpFR2	12	n/a	n/a	n/a	23	6	3	2	1
3412.226	n/a	PROB	1706113	n/a	LTP278	ltpFR2	12	n/a	n/a	n/a	23	19	4	8	7
3414.356	n/a	PROB	1707178	n/a	LTP278	ltpFR2	12	n/a	n/a	n/a	23	15	3	8	4
3415.938	n/a	PROB	1707969	n/a	LTP278	ltpFR2	12	n/a	n/a	n/a	23	11	4	1	6
3417.236	n/a	PROB	1708618	n/a	LTP278	ltpFR2	12	n/a	n/a	n/a	23	21	4	8	9
3421.296	n/a	PROB	1710648	n/a	LTP278	ltpFR2	12	n/a	n/a	n/a	23	16	5	8	3
3422.962	n/a	PROB	1711481	n/a	LTP278	ltpFR2	12	n/a	n/a	n/a	23	16	4	6	3
3424.582	n/a	STOP	1712291	n/a	LTP278	ltpFR2	12	n/a	n/a	n/a	23	n/a	n/a	n/a	n/a
3427.006	n/a	REC_START	1713503	n/a	LTP278	ltpFR2	12	16	n/a	n/a	n/a	n/a	0	0	0
3428.18	n/a	REC_WORD	1714090	wordpools/wasnorm_wordpool_576.txt	LTP278	ltpFR2	12	16	FREEZER	604	n/a	n/a	0	0	0
3429.418	n/a	REC_WORD	1714709	wordpools/wasnorm_wordpool_576.txt	LTP278	ltpFR2	12	16	BASEMENT	94	n/a	n/a	0	0	0
3438.066	n/a	REC_WORD	1719033	wordpools/wasnorm_wordpool_576.txt	LTP278	ltpFR2	12	16	UMPIRE	1535	n/a	n/a	0	0	0
3503.608	n/a	REST_REWET	1751804	n/a	LTP278	ltpFR2	12	16	n/a	n/a	n/a	n/a	0	0	0
3676.254	n/a	WORD	1838127	wordpools/wasnorm_wordpool_576.txt	LTP278	ltpFR2	12	17	RUG	1215	n/a	n/a	0	0	0
3678.768	n/a	WORD	1839384	wordpools/wasnorm_wordpool_576.txt	LTP278	ltpFR2	12	17	IGLOO	734	n/a	n/a	0	0	0
3681.428	n/a	WORD	1840714	wordpools/wasnorm_wordpool_576.txt	LTP278	ltpFR2	12	17	IDOL	733	n/a	n/a	0	0	0
3683.976	n/a	WORD	1841988	wordpools/wasnorm_wordpool_576.txt	LTP278	ltpFR2	12	17	HEADBAND	696	n/a	n/a	0	0	0
3686.472	n/a	WORD	1843236	wordpools/wasnorm_wordpool_576.txt	LTP278	ltpFR2	12	17	KNIFE	785	n/a	n/a	0	0	0
3689.15	n/a	WORD	1844575	wordpools/wasnorm_wordpool_576.txt	LTP278	ltpFR2	12	17	SMOG	1330	n/a	n/a	0	0	0
3691.864	n/a	WORD	1845932	wordpools/wasnorm_wordpool_576.txt	LTP278	ltpFR2	12	17	SIBLING	1301	n/a	n/a	0	0	0
3694.66	n/a	WORD	1847330	wordpools/wasnorm_wordpool_576.txt	LTP278	ltpFR2	12	17	BUBBLE	183	n/a	n/a	0	0	0
3697.19	n/a	WORD	1848595	wordpools/wasnorm_wordpool_576.txt	LTP278	ltpFR2	12	17	FRUIT	610	n/a	n/a	0	0	0
3699.618	n/a	WORD	1849809	wordpools/wasnorm_wordpool_576.txt	LTP278	ltpFR2	12	17	BUREAU	199	n/a	n/a	0	0	0
3702.298	n/a	WORD	1851149	wordpools/wasnorm_wordpool_576.txt	LTP278	ltpFR2	12	17	WORKER	1621	n/a	n/a	0	0	0
3704.746	n/a	WORD	1852373	wordpools/wasnorm_wordpool_576.txt	LTP278	ltpFR2	12	17	CRAYON	401	n/a	n/a	0	0	0
3707.39	n/a	WORD	1853695	wordpools/wasnorm_wordpool_576.txt	LTP278	ltpFR2	12	17	SHRUB	1299	n/a	n/a	0	0	0
3710.02	n/a	WORD	1855010	wordpools/wasnorm_wordpool_576.txt	LTP278	ltpFR2	12	17	MAPLE	866	n/a	n/a	0	0	0
3712.684	n/a	WORD	1856342	wordpools/wasnorm_wordpool_576.txt	LTP278	ltpFR2	12	17	AWARD	63	n/a	n/a	0	0	0
3715.312	n/a	WORD	1857656	wordpools/wasnorm_wordpool_576.txt	LTP278	ltpFR2	12	17	HOOK	715	n/a	n/a	0	0	0
3717.992	n/a	WORD	1858996	wordpools/wasnorm_wordpool_576.txt	LTP278	ltpFR2	12	17	INFANT	737	n/a	n/a	0	0	0
3720.504	n/a	WORD	1860252	wordpools/wasnorm_wordpool_576.txt	LTP278	ltpFR2	12	17	WARDROBE	1587	n/a	n/a	0	0	0
3723.316	n/a	WORD	1861658	wordpools/wasnorm_wordpool_576.txt	LTP278	ltpFR2	12	17	RATTLE	1170	n/a	n/a	0	0	0
3725.864	n/a	WORD	1862932	wordpools/wasnorm_wordpool_576.txt	LTP278	ltpFR2	12	17	SLIDE	1326	n/a	n/a	0	0	0
3728.31	n/a	WORD	1864155	wordpools/wasnorm_wordpool_576.txt	LTP278	ltpFR2	12	17	THRONE	1461	n/a	n/a	0	0	0
3730.756	n/a	WORD	1865378	wordpools/wasnorm_wordpool_576.txt	LTP278	ltpFR2	12	17	QUEEN	1149	n/a	n/a	0	0	0
3733.352	n/a	WORD	1866676	wordpools/wasnorm_wordpool_576.txt	LTP278	ltpFR2	12	17	SERVANT	1271	n/a	n/a	0	0	0
3735.932	n/a	WORD	1867966	wordpools/wasnorm_wordpool_576.txt	LTP278	ltpFR2	12	17	MARKER	870	n/a	n/a	0	0	0
3737.546	n/a	START	1868773	n/a	LTP278	ltpFR2	12	n/a	n/a	n/a	24	n/a	n/a	n/a	n/a
3738.534	n/a	DISTRACTOR	1869267	n/a	LTP278	ltpFR2	12	17	n/a	n/a	n/a	n/a	0	0	0
3738.544	n/a	PROB	1869272	n/a	LTP278	ltpFR2	12	n/a	n/a	n/a	24	19	6	5	8
3741.956	n/a	PROB	1870978	n/a	LTP278	ltpFR2	12	n/a	n/a	n/a	24	18	8	9	1
3743.92	n/a	PROB	1871960	n/a	LTP278	ltpFR2	12	n/a	n/a	n/a	24	15	4	3	8
3745.802	n/a	PROB	1872901	n/a	LTP278	ltpFR2	12	n/a	n/a	n/a	24	15	6	3	6
3747.964	n/a	PROB	1873982	n/a	LTP278	ltpFR2	12	n/a	n/a	n/a	24	10	3	5	2
3750.326	n/a	PROB	1875163	n/a	LTP278	ltpFR2	12	n/a	n/a	n/a	24	14	5	3	6
3755.836	n/a	PROB	1877918	n/a	LTP278	ltpFR2	12	n/a	n/a	n/a	24	14	9	3	2
3757.466	n/a	PROB	1878733	n/a	LTP278	ltpFR2	12	n/a	n/a	n/a	24	11	3	1	7
3758.898	n/a	PROB	1879449	n/a	LTP278	ltpFR2	12	n/a	n/a	n/a	24	19	9	1	9
3760.516	n/a	STOP	1880258	n/a	LTP278	ltpFR2	12	n/a	n/a	n/a	24	n/a	n/a	n/a	n/a
3763.442	n/a	REC_START	1881721	n/a	LTP278	ltpFR2	12	17	n/a	n/a	n/a	n/a	0	0	0
3767.67	n/a	REC_WORD	1883835	wordpools/wasnorm_wordpool_576.txt	LTP278	ltpFR2	12	17	IGLOO	734	n/a	n/a	0	0	0
3768.106	n/a	REC_WORD	1884053	wordpools/wasnorm_wordpool_576.txt	LTP278	ltpFR2	12	17	RUG	1215	n/a	n/a	0	0	0
3770.08	n/a	REC_WORD	1885040	wordpools/wasnorm_wordpool_576.txt	LTP278	ltpFR2	12	17	SMOG	1330	n/a	n/a	0	0	0
3770.93	n/a	REC_WORD	1885465	wordpools/wasnorm_wordpool_576.txt	LTP278	ltpFR2	12	17	HEADBAND	696	n/a	n/a	0	0	0
3771.606	n/a	REC_WORD	1885803	wordpools/wasnorm_wordpool_576.txt	LTP278	ltpFR2	12	17	KNIFE	785	n/a	n/a	0	0	0
3772.168	n/a	REC_WORD	1886084	wordpools/wasnorm_wordpool_576.txt	LTP278	ltpFR2	12	17	SIBLING	1301	n/a	n/a	0	0	0
3773.934	n/a	REC_WORD	1886967	wordpools/wasnorm_wordpool_576.txt	LTP278	ltpFR2	12	17	BUBBLE	183	n/a	n/a	0	0	0
3776.356	n/a	REC_WORD	1888178	wordpools/wasnorm_wordpool_576.txt	LTP278	ltpFR2	12	17	MARKER	870	n/a	n/a	0	0	0
3854.206	n/a	DISTRACTOR	1927103	n/a	LTP278	ltpFR2	12	18	n/a	n/a	n/a	n/a	0	0	0
3854.206	n/a	START	1927103	n/a	LTP278	ltpFR2	12	n/a	n/a	n/a	25	n/a	n/a	n/a	n/a
3854.24	n/a	PROB	1927120	n/a	LTP278	ltpFR2	12	n/a	n/a	n/a	25	8	4	3	1
3856.602	n/a	PROB	1928301	n/a	LTP278	ltpFR2	12	n/a	n/a	n/a	25	19	7	3	9
3859.032	n/a	PROB	1929516	n/a	LTP278	ltpFR2	12	n/a	n/a	n/a	25	11	6	3	2
3861.512	n/a	PROB	1930756	n/a	LTP278	ltpFR2	12	n/a	n/a	n/a	25	10	5	3	2
3863.194	n/a	PROB	1931597	n/a	LTP278	ltpFR2	12	n/a	n/a	n/a	25	8	5	1	2
3865.024	n/a	PROB	1932512	n/a	LTP278	ltpFR2	12	n/a	n/a	n/a	25	11	2	7	2
3866.856	n/a	PROB	1933428	n/a	LTP278	ltpFR2	12	n/a	n/a	n/a	25	21	4	8	9
3869.6	n/a	PROB	1934800	n/a	LTP278	ltpFR2	12	n/a	n/a	n/a	25	20	7	7	6
3872.814	n/a	PROB	1936407	n/a	LTP278	ltpFR2	12	n/a	n/a	n/a	25	14	9	1	4
3874.46	n/a	PROB	1937230	n/a	LTP278	ltpFR2	12	n/a	n/a	n/a	25	21	9	5	7
3878.206	n/a	STOP	1939103	n/a	LTP278	ltpFR2	12	n/a	n/a	n/a	25	n/a	n/a	n/a	n/a
3879.236	n/a	WORD	1939618	wordpools/wasnorm_wordpool_576.txt	LTP278	ltpFR2	12	18	BRACES	164	n/a	n/a	0	0	0
3881.666	n/a	WORD	1940833	wordpools/wasnorm_wordpool_576.txt	LTP278	ltpFR2	12	18	CEILING	265	n/a	n/a	0	0	0
3884.112	n/a	WORD	1942056	wordpools/wasnorm_wordpool_576.txt	LTP278	ltpFR2	12	18	MARKET	871	n/a	n/a	0	0	0
3886.876	n/a	WORD	1943438	wordpools/wasnorm_wordpool_576.txt	LTP278	ltpFR2	12	18	STOMACH	1384	n/a	n/a	0	0	0
3889.504	n/a	WORD	1944752	wordpools/wasnorm_wordpool_576.txt	LTP278	ltpFR2	12	18	REPORT	1184	n/a	n/a	0	0	0
3892.234	n/a	WORD	1946117	wordpools/wasnorm_wordpool_576.txt	LTP278	ltpFR2	12	18	TERMITE	1451	n/a	n/a	0	0	0
3894.864	n/a	WORD	1947432	wordpools/wasnorm_wordpool_576.txt	LTP278	ltpFR2	12	18	SUSPECT	1415	n/a	n/a	0	0	0
3897.392	n/a	WORD	1948696	wordpools/wasnorm_wordpool_576.txt	LTP278	ltpFR2	12	18	MATCH	878	n/a	n/a	0	0	0
3899.89	n/a	WORD	1949945	wordpools/wasnorm_wordpool_576.txt	LTP278	ltpFR2	12	18	COOKBOOK	373	n/a	n/a	0	0	0
3902.486	n/a	WORD	1951243	wordpools/wasnorm_wordpool_576.txt	LTP278	ltpFR2	12	18	TURNIP	1521	n/a	n/a	0	0	0
3905.182	n/a	WORD	1952591	wordpools/wasnorm_wordpool_576.txt	LTP278	ltpFR2	12	18	TOASTER	1472	n/a	n/a	0	0	0
3907.662	n/a	WORD	1953831	wordpools/wasnorm_wordpool_576.txt	LTP278	ltpFR2	12	18	UNCLE	1536	n/a	n/a	0	0	0
3910.208	n/a	WORD	1955104	wordpools/wasnorm_wordpool_576.txt	LTP278	ltpFR2	12	18	COUSIN	392	n/a	n/a	0	0	0
3912.72	n/a	WORD	1956360	wordpools/wasnorm_wordpool_576.txt	LTP278	ltpFR2	12	18	LAMP	798	n/a	n/a	0	0	0
3915.5	n/a	WORD	1957750	wordpools/wasnorm_wordpool_576.txt	LTP278	ltpFR2	12	18	DENTIST	447	n/a	n/a	0	0	0
3918.212	n/a	WORD	1959106	wordpools/wasnorm_wordpool_576.txt	LTP278	ltpFR2	12	18	JURY	766	n/a	n/a	0	0	0
3920.826	n/a	WORD	1960413	wordpools/wasnorm_wordpool_576.txt	LTP278	ltpFR2	12	18	PASTRY	1022	n/a	n/a	0	0	0
3923.538	n/a	WORD	1961769	wordpools/wasnorm_wordpool_576.txt	LTP278	ltpFR2	12	18	ANKLE	24	n/a	n/a	0	0	0
3926.068	n/a	WORD	1963034	wordpools/wasnorm_wordpool_576.txt	LTP278	ltpFR2	12	18	ARM	38	n/a	n/a	0	0	0
3928.748	n/a	WORD	1964374	wordpools/wasnorm_wordpool_576.txt	LTP278	ltpFR2	12	18	STICKER	1382	n/a	n/a	0	0	0
3931.492	n/a	WORD	1965746	wordpools/wasnorm_wordpool_576.txt	LTP278	ltpFR2	12	18	SWORD	1423	n/a	n/a	0	0	0
3934.056	n/a	WORD	1967028	wordpools/wasnorm_wordpool_576.txt	LTP278	ltpFR2	12	18	SPHINX	1349	n/a	n/a	0	0	0
3936.502	n/a	WORD	1968251	wordpools/wasnorm_wordpool_576.txt	LTP278	ltpFR2	12	18	PEACH	1031	n/a	n/a	0	0	0
3939.048	n/a	WORD	1969524	wordpools/wasnorm_wordpool_576.txt	LTP278	ltpFR2	12	18	CROSS	413	n/a	n/a	0	0	0
3940.662	n/a	START	1970331	n/a	LTP278	ltpFR2	12	n/a	n/a	n/a	26	n/a	n/a	n/a	n/a
3941.656	n/a	DISTRACTOR	1970828	n/a	LTP278	ltpFR2	12	18	n/a	n/a	n/a	n/a	0	0	0
3941.66	n/a	PROB	1970830	n/a	LTP278	ltpFR2	12	n/a	n/a	n/a	26	17	6	4	7
3944.108	n/a	PROB	1972054	n/a	LTP278	ltpFR2	12	n/a	n/a	n/a	26	14	3	7	4
3946.404	n/a	PROB	1973202	n/a	LTP278	ltpFR2	12	n/a	n/a	n/a	26	18	5	8	5
3947.718	n/a	PROB	1973859	n/a	LTP278	ltpFR2	12	n/a	n/a	n/a	26	8	1	3	4
3949.034	n/a	PROB	1974517	n/a	LTP278	ltpFR2	12	n/a	n/a	n/a	26	14	2	3	9
3951.646	n/a	PROB	1975823	n/a	LTP278	ltpFR2	12	n/a	n/a	n/a	26	13	2	4	7
3953.194	n/a	PROB	1976597	n/a	LTP278	ltpFR2	12	n/a	n/a	n/a	26	16	6	2	8
3954.508	n/a	PROB	1977254	n/a	LTP278	ltpFR2	12	n/a	n/a	n/a	26	20	8	9	3
3958.702	n/a	PROB	1979351	n/a	LTP278	ltpFR2	12	n/a	n/a	n/a	26	14	6	1	7
3960.1	n/a	PROB	1980050	n/a	LTP278	ltpFR2	12	n/a	n/a	n/a	26	19	7	5	7
3961.948	n/a	PROB	1980974	n/a	LTP278	ltpFR2	12	n/a	n/a	n/a	26	12	5	5	2
3963.27	n/a	STOP	1981635	n/a	LTP278	ltpFR2	12	n/a	n/a	n/a	26	n/a	n/a	n/a	n/a
3966.508	n/a	REC_START	1983254	n/a	LTP278	ltpFR2	12	18	n/a	n/a	n/a	n/a	0	0	0
3971.438	n/a	REC_WORD	1985719	wordpools/wasnorm_wordpool_576.txt	LTP278	ltpFR2	12	18	PEACH	1031	n/a	n/a	0	0	0
3974.248	n/a	REC_WORD	1987124	wordpools/wasnorm_wordpool_576.txt	LTP278	ltpFR2	12	18	TERMITE	1451	n/a	n/a	0	0	0
4057.19	n/a	DISTRACTOR	2028595	n/a	LTP278	ltpFR2	12	19	n/a	n/a	n/a	n/a	0	0	0
4057.19	n/a	START	2028595	n/a	LTP278	ltpFR2	12	n/a	n/a	n/a	27	n/a	n/a	n/a	n/a
4057.224	n/a	PROB	2028612	n/a	LTP278	ltpFR2	12	n/a	n/a	n/a	27	19	9	8	2
4059.004	n/a	PROB	2029502	n/a	LTP278	ltpFR2	12	n/a	n/a	n/a	27	13	2	3	8
4060.386	n/a	PROB	2030193	n/a	LTP278	ltpFR2	12	n/a	n/a	n/a	27	9	1	6	2
4061.716	n/a	PROB	2030858	n/a	LTP278	ltpFR2	12	n/a	n/a	n/a	27	17	9	7	1
4063.648	n/a	PROB	2031824	n/a	LTP278	ltpFR2	12	n/a	n/a	n/a	27	15	7	2	6
4066.726	n/a	PROB	2033363	n/a	LTP278	ltpFR2	12	n/a	n/a	n/a	27	12	5	6	1
4068.058	n/a	PROB	2034029	n/a	LTP278	ltpFR2	12	n/a	n/a	n/a	27	10	2	7	1
4069.172	n/a	PROB	2034586	n/a	LTP278	ltpFR2	12	n/a	n/a	n/a	27	9	1	6	2
4070.338	n/a	PROB	2035169	n/a	LTP278	ltpFR2	12	n/a	n/a	n/a	27	16	1	9	6
4072.7	n/a	PROB	2036350	n/a	LTP278	ltpFR2	12	n/a	n/a	n/a	27	10	3	6	1
4073.916	n/a	PROB	2036958	n/a	LTP278	ltpFR2	12	n/a	n/a	n/a	27	12	1	6	5
4075.18	n/a	PROB	2037590	n/a	LTP278	ltpFR2	12	n/a	n/a	n/a	27	17	9	7	1
4077.144	n/a	PROB	2038572	n/a	LTP278	ltpFR2	12	n/a	n/a	n/a	27	9	2	5	2
4078.492	n/a	PROB	2039246	n/a	LTP278	ltpFR2	12	n/a	n/a	n/a	27	15	1	5	9
4080.776	n/a	STOP	2040388	n/a	LTP278	ltpFR2	12	n/a	n/a	n/a	27	n/a	n/a	n/a	n/a
4082.368	n/a	WORD	2041184	wordpools/wasnorm_wordpool_576.txt	LTP278	ltpFR2	12	19	LIPSTICK	829	n/a	n/a	0	0	0
4084.882	n/a	WORD	2042441	wordpools/wasnorm_wordpool_576.txt	LTP278	ltpFR2	12	19	BLENDER	136	n/a	n/a	0	0	0
4087.362	n/a	WORD	2043681	wordpools/wasnorm_wordpool_576.txt	LTP278	ltpFR2	12	19	PATROL	1027	n/a	n/a	0	0	0
4089.876	n/a	WORD	2044938	wordpools/wasnorm_wordpool_576.txt	LTP278	ltpFR2	12	19	FUNGUS	614	n/a	n/a	0	0	0
4092.67	n/a	WORD	2046335	wordpools/wasnorm_wordpool_576.txt	LTP278	ltpFR2	12	19	PLATE	1086	n/a	n/a	0	0	0
4095.184	n/a	WORD	2047592	wordpools/wasnorm_wordpool_576.txt	LTP278	ltpFR2	12	19	DINER	467	n/a	n/a	0	0	0
4097.78	n/a	WORD	2048890	wordpools/wasnorm_wordpool_576.txt	LTP278	ltpFR2	12	19	MUMMY	932	n/a	n/a	0	0	0
4100.592	n/a	WORD	2050296	wordpools/wasnorm_wordpool_576.txt	LTP278	ltpFR2	12	19	BUG	187	n/a	n/a	0	0	0
4103.088	n/a	WORD	2051544	wordpools/wasnorm_wordpool_576.txt	LTP278	ltpFR2	12	19	JELLY	755	n/a	n/a	0	0	0
4105.602	n/a	WORD	2052801	wordpools/wasnorm_wordpool_576.txt	LTP278	ltpFR2	12	19	TILE	1468	n/a	n/a	0	0	0
4108.23	n/a	WORD	2054115	wordpools/wasnorm_wordpool_576.txt	LTP278	ltpFR2	12	19	GRAPE	654	n/a	n/a	0	0	0
4111.01	n/a	WORD	2055505	wordpools/wasnorm_wordpool_576.txt	LTP278	ltpFR2	12	19	PEBBLE	1035	n/a	n/a	0	0	0
4113.572	n/a	WORD	2056786	wordpools/wasnorm_wordpool_576.txt	LTP278	ltpFR2	12	19	SCISSORS	1250	n/a	n/a	0	0	0
4116.07	n/a	WORD	2058035	wordpools/wasnorm_wordpool_576.txt	LTP278	ltpFR2	12	19	CRICKET	408	n/a	n/a	0	0	0
4118.598	n/a	WORD	2059299	wordpools/wasnorm_wordpool_576.txt	LTP278	ltpFR2	12	19	OYSTER	995	n/a	n/a	0	0	0
4121.046	n/a	WORD	2060523	wordpools/wasnorm_wordpool_576.txt	LTP278	ltpFR2	12	19	OINTMENT	974	n/a	n/a	0	0	0
4123.608	n/a	WORD	2061804	wordpools/wasnorm_wordpool_576.txt	LTP278	ltpFR2	12	19	PERFUME	1049	n/a	n/a	0	0	0
4126.122	n/a	WORD	2063061	wordpools/wasnorm_wordpool_576.txt	LTP278	ltpFR2	12	19	PLIERS	1089	n/a	n/a	0	0	0
4128.6	n/a	WORD	2064300	wordpools/wasnorm_wordpool_576.txt	LTP278	ltpFR2	12	19	POCKET	1093	n/a	n/a	0	0	0
4131.13	n/a	WORD	2065565	wordpools/wasnorm_wordpool_576.txt	LTP278	ltpFR2	12	19	SHORTS	1293	n/a	n/a	0	0	0
4133.744	n/a	WORD	2066872	wordpools/wasnorm_wordpool_576.txt	LTP278	ltpFR2	12	19	LOFT	840	n/a	n/a	0	0	0
4136.406	n/a	WORD	2068203	wordpools/wasnorm_wordpool_576.txt	LTP278	ltpFR2	12	19	GLOBE	641	n/a	n/a	0	0	0
4138.886	n/a	WORD	2069443	wordpools/wasnorm_wordpool_576.txt	LTP278	ltpFR2	12	19	OZONE	996	n/a	n/a	0	0	0
4141.482	n/a	WORD	2070741	wordpools/wasnorm_wordpool_576.txt	LTP278	ltpFR2	12	19	LETTUCE	814	n/a	n/a	0	0	0
4143.096	n/a	START	2071548	n/a	LTP278	ltpFR2	12	n/a	n/a	n/a	28	n/a	n/a	n/a	n/a
4144.24	n/a	DISTRACTOR	2072120	n/a	LTP278	ltpFR2	12	19	n/a	n/a	n/a	n/a	0	0	0
4144.244	n/a	PROB	2072122	n/a	LTP278	ltpFR2	12	n/a	n/a	n/a	28	21	7	7	7
4146.092	n/a	PROB	2073046	n/a	LTP278	ltpFR2	12	n/a	n/a	n/a	28	22	6	9	7
4149.436	n/a	PROB	2074718	n/a	LTP278	ltpFR2	12	n/a	n/a	n/a	28	14	5	8	1
4151.284	n/a	PROB	2075642	n/a	LTP278	ltpFR2	12	n/a	n/a	n/a	28	24	7	9	8
4153.714	n/a	PROB	2076857	n/a	LTP278	ltpFR2	12	n/a	n/a	n/a	28	13	2	3	8
4155.294	n/a	PROB	2077647	n/a	LTP278	ltpFR2	12	n/a	n/a	n/a	28	17	3	9	5
4157.524	n/a	PROB	2078762	n/a	LTP278	ltpFR2	12	n/a	n/a	n/a	28	9	1	6	2
4158.79	n/a	PROB	2079395	n/a	LTP278	ltpFR2	12	n/a	n/a	n/a	28	19	5	7	7
4161.852	n/a	PROB	2080926	n/a	LTP278	ltpFR2	12	n/a	n/a	n/a	28	21	5	7	9
4164.348	n/a	PROB	2082174	n/a	LTP278	ltpFR2	12	n/a	n/a	n/a	28	18	5	8	5
4165.674	n/a	STOP	2082837	n/a	LTP278	ltpFR2	12	n/a	n/a	n/a	28	n/a	n/a	n/a	n/a
4168.91	n/a	REC_START	2084455	n/a	LTP278	ltpFR2	12	19	n/a	n/a	n/a	n/a	0	0	0
4172.9	n/a	REC_WORD	2086450	wordpools/wasnorm_wordpool_576.txt	LTP278	ltpFR2	12	19	LIPSTICK	829	n/a	n/a	0	0	0
4173.59	n/a	REC_WORD	2086795	wordpools/wasnorm_wordpool_576.txt	LTP278	ltpFR2	12	19	BLENDER	136	n/a	n/a	0	0	0
4174.206	n/a	REC_WORD	2087103	wordpools/wasnorm_wordpool_576.txt	LTP278	ltpFR2	12	19	POLICE	1098	n/a	n/a	0	0	0
4175.046	n/a	REC_WORD	2087523	wordpools/wasnorm_wordpool_576.txt	LTP278	ltpFR2	12	19	FUNGUS	614	n/a	n/a	0	0	0
4175.892	n/a	REC_WORD	2087946	wordpools/wasnorm_wordpool_576.txt	LTP278	ltpFR2	12	19	PLATE	1086	n/a	n/a	0	0	0
4176.624	n/a	REC_WORD	2088312	wordpools/wasnorm_wordpool_576.txt	LTP278	ltpFR2	12	19	DINER	467	n/a	n/a	0	0	0
4181.856	n/a	REC_WORD	2090928	wordpools/wasnorm_wordpool_576.txt	LTP278	ltpFR2	12	19	OYSTER	995	n/a	n/a	0	0	0
4182.45	n/a	REC_WORD	2091225	wordpools/wasnorm_wordpool_576.txt	LTP278	ltpFR2	12	19	MUMMY	932	n/a	n/a	0	0	0
4186.08	n/a	REC_WORD	2093040	wordpools/wasnorm_wordpool_576.txt	LTP278	ltpFR2	12	19	CRICKET	408	n/a	n/a	0	0	0
4188.0	n/a	REC_WORD	2094000	wordpools/wasnorm_wordpool_576.txt	LTP278	ltpFR2	12	19	SCISSORS	1250	n/a	n/a	0	0	0
4189.024	n/a	REC_WORD	2094512	wordpools/wasnorm_wordpool_576.txt	LTP278	ltpFR2	12	19	JELLY	755	n/a	n/a	0	0	0
4191.044	n/a	REC_WORD	2095522	wordpools/wasnorm_wordpool_576.txt	LTP278	ltpFR2	12	19	OINTMENT	974	n/a	n/a	0	0	0
4259.59	n/a	WORD	2129795	wordpools/wasnorm_wordpool_576.txt	LTP278	ltpFR2	12	20	STAMP	1370	n/a	n/a	0	0	0
4262.336	n/a	WORD	2131168	wordpools/wasnorm_wordpool_576.txt	LTP278	ltpFR2	12	20	SALAD	1224	n/a	n/a	0	0	0
4265.116	n/a	WORD	2132558	wordpools/wasnorm_wordpool_576.txt	LTP278	ltpFR2	12	20	FEMALE	559	n/a	n/a	0	0	0
4267.93	n/a	WORD	2133965	wordpools/wasnorm_wordpool_576.txt	LTP278	ltpFR2	12	20	SPARROW	1347	n/a	n/a	0	0	0
4270.474	n/a	WORD	2135237	wordpools/wasnorm_wordpool_576.txt	LTP278	ltpFR2	12	20	PECAN	1036	n/a	n/a	0	0	0
4273.088	n/a	WORD	2136544	wordpools/wasnorm_wordpool_576.txt	LTP278	ltpFR2	12	20	CIGAR	308	n/a	n/a	0	0	0
4275.666	n/a	WORD	2137833	wordpools/wasnorm_wordpool_576.txt	LTP278	ltpFR2	12	20	WRIST	1626	n/a	n/a	0	0	0
4278.38	n/a	WORD	2139190	wordpools/wasnorm_wordpool_576.txt	LTP278	ltpFR2	12	20	SHOULDER	1294	n/a	n/a	0	0	0
4280.894	n/a	WORD	2140447	wordpools/wasnorm_wordpool_576.txt	LTP278	ltpFR2	12	20	GRAVE	658	n/a	n/a	0	0	0
4283.422	n/a	WORD	2141711	wordpools/wasnorm_wordpool_576.txt	LTP278	ltpFR2	12	20	PIANO	1057	n/a	n/a	0	0	0
4285.936	n/a	WORD	2142968	wordpools/wasnorm_wordpool_576.txt	LTP278	ltpFR2	12	20	PALACE	1006	n/a	n/a	0	0	0
4288.598	n/a	WORD	2144299	wordpools/wasnorm_wordpool_576.txt	LTP278	ltpFR2	12	20	SIDEWALK	1303	n/a	n/a	0	0	0
4291.294	n/a	WORD	2145647	wordpools/wasnorm_wordpool_576.txt	LTP278	ltpFR2	12	20	FLASHLIGHT	575	n/a	n/a	0	0	0
4293.742	n/a	WORD	2146871	wordpools/wasnorm_wordpool_576.txt	LTP278	ltpFR2	12	20	SCALLOP	1242	n/a	n/a	0	0	0
4296.37	n/a	WORD	2148185	wordpools/wasnorm_wordpool_576.txt	LTP278	ltpFR2	12	20	SALMON	1227	n/a	n/a	0	0	0
4299.032	n/a	WORD	2149516	wordpools/wasnorm_wordpool_576.txt	LTP278	ltpFR2	12	20	PICTURE	1061	n/a	n/a	0	0	0
4301.462	n/a	WORD	2150731	wordpools/wasnorm_wordpool_576.txt	LTP278	ltpFR2	12	20	DAUGHTER	442	n/a	n/a	0	0	0
4304.026	n/a	WORD	2152013	wordpools/wasnorm_wordpool_576.txt	LTP278	ltpFR2	12	20	BROTHER	179	n/a	n/a	0	0	0
4306.456	n/a	WORD	2153228	wordpools/wasnorm_wordpool_576.txt	LTP278	ltpFR2	12	20	FRAGRANCE	599	n/a	n/a	0	0	0
4309.084	n/a	WORD	2154542	wordpools/wasnorm_wordpool_576.txt	LTP278	ltpFR2	12	20	CROWN	415	n/a	n/a	0	0	0
4311.714	n/a	WORD	2155857	wordpools/wasnorm_wordpool_576.txt	LTP278	ltpFR2	12	20	FLESH	579	n/a	n/a	0	0	0
4314.16	n/a	WORD	2157080	wordpools/wasnorm_wordpool_576.txt	LTP278	ltpFR2	12	20	SWITCH	1422	n/a	n/a	0	0	0
4316.808	n/a	WORD	2158404	wordpools/wasnorm_wordpool_576.txt	LTP278	ltpFR2	12	20	VIRUS	1572	n/a	n/a	0	0	0
4319.618	n/a	WORD	2159809	wordpools/wasnorm_wordpool_576.txt	LTP278	ltpFR2	12	20	CREVICE	405	n/a	n/a	0	0	0
4321.232	n/a	START	2160616	n/a	LTP278	ltpFR2	12	n/a	n/a	n/a	29	n/a	n/a	n/a	n/a
4322.278	n/a	DISTRACTOR	2161139	n/a	LTP278	ltpFR2	12	20	n/a	n/a	n/a	n/a	0	0	0
4322.28	n/a	PROB	2161140	n/a	LTP278	ltpFR2	12	n/a	n/a	n/a	29	10	5	2	3
4325.576	n/a	PROB	2162788	n/a	LTP278	ltpFR2	12	n/a	n/a	n/a	29	19	7	8	4
4328.938	n/a	PROB	2164469	n/a	LTP278	ltpFR2	12	n/a	n/a	n/a	29	15	6	8	1
4332.282	n/a	PROB	2166141	n/a	LTP278	ltpFR2	12	n/a	n/a	n/a	29	17	7	5	5
4333.832	n/a	PROB	2166916	n/a	LTP278	ltpFR2	12	n/a	n/a	n/a	29	22	9	4	9
4335.946	n/a	PROB	2167973	n/a	LTP278	ltpFR2	12	n/a	n/a	n/a	29	11	5	4	2
4338.124	n/a	PROB	2169062	n/a	LTP278	ltpFR2	12	n/a	n/a	n/a	29	19	7	5	7
4341.07	n/a	PROB	2170535	n/a	LTP278	ltpFR2	12	n/a	n/a	n/a	29	15	6	5	4
4343.836	n/a	STOP	2171918	n/a	LTP278	ltpFR2	12	n/a	n/a	n/a	29	n/a	n/a	n/a	n/a
4347.178	n/a	REC_START	2173589	n/a	LTP278	ltpFR2	12	20	n/a	n/a	n/a	n/a	0	0	0
4349.488	n/a	REC_WORD	2174744	wordpools/wasnorm_wordpool_576.txt	LTP278	ltpFR2	12	20	SPARROW	1347	n/a	n/a	0	0	0
4350.594	n/a	REC_WORD	2175297	wordpools/wasnorm_wordpool_576.txt	LTP278	ltpFR2	12	20	GRAVE	658	n/a	n/a	0	0	0
4351.424	n/a	REC_WORD	2175712	wordpools/wasnorm_wordpool_576.txt	LTP278	ltpFR2	12	20	CIGAR	308	n/a	n/a	0	0	0
4352.374	n/a	REC_WORD	2176187	wordpools/wasnorm_wordpool_576.txt	LTP278	ltpFR2	12	20	SHOULDER	1294	n/a	n/a	0	0	0
4353.366	n/a	REC_WORD	2176683	wordpools/wasnorm_wordpool_576.txt	LTP278	ltpFR2	12	20	FEMALE	559	n/a	n/a	0	0	0
4354.314	n/a	REC_WORD	2177157	wordpools/wasnorm_wordpool_576.txt	LTP278	ltpFR2	12	20	PECAN	1036	n/a	n/a	0	0	0
4355.086	n/a	REC_WORD	2177543	wordpools/wasnorm_wordpool_576.txt	LTP278	ltpFR2	12	20	SALAD	1224	n/a	n/a	0	0	0
4437.878	n/a	DISTRACTOR	2218939	n/a	LTP278	ltpFR2	12	21	n/a	n/a	n/a	n/a	0	0	0
4437.878	n/a	START	2218939	n/a	LTP278	ltpFR2	12	n/a	n/a	n/a	30	n/a	n/a	n/a	n/a
4437.91	n/a	PROB	2218955	n/a	LTP278	ltpFR2	12	n/a	n/a	n/a	30	21	8	4	9
4439.608	n/a	PROB	2219804	n/a	LTP278	ltpFR2	12	n/a	n/a	n/a	30	4	2	1	1
4440.856	n/a	PROB	2220428	n/a	LTP278	ltpFR2	12	n/a	n/a	n/a	30	16	8	1	7
4442.536	n/a	PROB	2221268	n/a	LTP278	ltpFR2	12	n/a	n/a	n/a	30	10	4	3	3
4444.15	n/a	PROB	2222075	n/a	LTP278	ltpFR2	12	n/a	n/a	n/a	30	22	9	7	6
4446.614	n/a	PROB	2223307	n/a	LTP278	ltpFR2	12	n/a	n/a	n/a	30	13	9	2	2
4448.012	n/a	PROB	2224006	n/a	LTP278	ltpFR2	12	n/a	n/a	n/a	30	18	8	2	8
4450.076	n/a	PROB	2225038	n/a	LTP278	ltpFR2	12	n/a	n/a	n/a	30	21	8	3	9
4453.07	n/a	PROB	2226535	n/a	LTP278	ltpFR2	12	n/a	n/a	n/a	30	18	8	2	8
4455.084	n/a	PROB	2227542	n/a	LTP278	ltpFR2	12	n/a	n/a	n/a	30	16	5	5	6
4456.616	n/a	PROB	2228308	n/a	LTP278	ltpFR2	12	n/a	n/a	n/a	30	11	6	4	1
4458.962	n/a	PROB	2229481	n/a	LTP278	ltpFR2	12	n/a	n/a	n/a	30	17	1	7	9
4461.132	n/a	STOP	2230566	n/a	LTP278	ltpFR2	12	n/a	n/a	n/a	30	n/a	n/a	n/a	n/a
4462.724	n/a	WORD	2231362	wordpools/wasnorm_wordpool_576.txt	LTP278	ltpFR2	12	21	ROOSTER	1209	n/a	n/a	0	0	0
4465.22	n/a	WORD	2232610	wordpools/wasnorm_wordpool_576.txt	LTP278	ltpFR2	12	21	TURKEY	1520	n/a	n/a	0	0	0
4467.866	n/a	WORD	2233933	wordpools/wasnorm_wordpool_576.txt	LTP278	ltpFR2	12	21	MISSILE	900	n/a	n/a	0	0	0
4470.546	n/a	WORD	2235273	wordpools/wasnorm_wordpool_576.txt	LTP278	ltpFR2	12	21	STOVE	1388	n/a	n/a	0	0	0
4473.008	n/a	WORD	2236504	wordpools/wasnorm_wordpool_576.txt	LTP278	ltpFR2	12	21	VALVE	1546	n/a	n/a	0	0	0
4475.654	n/a	WORD	2237827	wordpools/wasnorm_wordpool_576.txt	LTP278	ltpFR2	12	21	CRATER	400	n/a	n/a	0	0	0
4478.416	n/a	WORD	2239208	wordpools/wasnorm_wordpool_576.txt	LTP278	ltpFR2	12	21	TRIBE	1505	n/a	n/a	0	0	0
4481.162	n/a	WORD	2240581	wordpools/wasnorm_wordpool_576.txt	LTP278	ltpFR2	12	21	MAILBOX	857	n/a	n/a	0	0	0
4483.81	n/a	WORD	2241905	wordpools/wasnorm_wordpool_576.txt	LTP278	ltpFR2	12	21	KIDNEY	776	n/a	n/a	0	0	0
4486.488	n/a	WORD	2243244	wordpools/wasnorm_wordpool_576.txt	LTP278	ltpFR2	12	21	TROMBONE	1508	n/a	n/a	0	0	0
4489.018	n/a	WORD	2244509	wordpools/wasnorm_wordpool_576.txt	LTP278	ltpFR2	12	21	CHURCH	307	n/a	n/a	0	0	0
4491.464	n/a	WORD	2245732	wordpools/wasnorm_wordpool_576.txt	LTP278	ltpFR2	12	21	BACON	67	n/a	n/a	0	0	0
4494.128	n/a	WORD	2247064	wordpools/wasnorm_wordpool_576.txt	LTP278	ltpFR2	12	21	PORK	1108	n/a	n/a	0	0	0
4496.59	n/a	WORD	2248295	wordpools/wasnorm_wordpool_576.txt	LTP278	ltpFR2	12	21	WAGON	1578	n/a	n/a	0	0	0
4499.352	n/a	WORD	2249676	wordpools/wasnorm_wordpool_576.txt	LTP278	ltpFR2	12	21	PARROT	1015	n/a	n/a	0	0	0
4501.9	n/a	WORD	2250950	wordpools/wasnorm_wordpool_576.txt	LTP278	ltpFR2	12	21	HUMAN	726	n/a	n/a	0	0	0
4504.446	n/a	WORD	2252223	wordpools/wasnorm_wordpool_576.txt	LTP278	ltpFR2	12	21	FLEET	578	n/a	n/a	0	0	0
4507.192	n/a	WORD	2253596	wordpools/wasnorm_wordpool_576.txt	LTP278	ltpFR2	12	21	RECEIPT	1173	n/a	n/a	0	0	0
4509.756	n/a	WORD	2254878	wordpools/wasnorm_wordpool_576.txt	LTP278	ltpFR2	12	21	COIN	343	n/a	n/a	0	0	0
4512.4	n/a	WORD	2256200	wordpools/wasnorm_wordpool_576.txt	LTP278	ltpFR2	12	21	GALLON	618	n/a	n/a	0	0	0
4515.112	n/a	WORD	2257556	wordpools/wasnorm_wordpool_576.txt	LTP278	ltpFR2	12	21	CELLAR	267	n/a	n/a	0	0	0
4517.91	n/a	WORD	2258955	wordpools/wasnorm_wordpool_576.txt	LTP278	ltpFR2	12	21	FIDDLE	561	n/a	n/a	0	0	0
4520.688	n/a	WORD	2260344	wordpools/wasnorm_wordpool_576.txt	LTP278	ltpFR2	12	21	GAZELLE	628	n/a	n/a	0	0	0
4523.118	n/a	WORD	2261559	wordpools/wasnorm_wordpool_576.txt	LTP278	ltpFR2	12	21	MOTOR	922	n/a	n/a	0	0	0
4524.732	n/a	START	2262366	n/a	LTP278	ltpFR2	12	n/a	n/a	n/a	31	n/a	n/a	n/a	n/a
4525.8	n/a	DISTRACTOR	2262900	n/a	LTP278	ltpFR2	12	21	n/a	n/a	n/a	n/a	0	0	0
4525.814	n/a	PROB	2262907	n/a	LTP278	ltpFR2	12	n/a	n/a	n/a	31	10	2	6	2
4527.428	n/a	PROB	2263714	n/a	LTP278	ltpFR2	12	n/a	n/a	n/a	31	11	5	3	3
4528.844	n/a	PROB	2264422	n/a	LTP278	ltpFR2	12	n/a	n/a	n/a	31	12	5	6	1
4530.09	n/a	PROB	2265045	n/a	LTP278	ltpFR2	12	n/a	n/a	n/a	31	10	7	1	2
4531.472	n/a	PROB	2265736	n/a	LTP278	ltpFR2	12	n/a	n/a	n/a	31	21	8	5	8
4532.922	n/a	PROB	2266461	n/a	LTP278	ltpFR2	12	n/a	n/a	n/a	31	18	6	8	4
4534.434	n/a	PROB	2267217	n/a	LTP278	ltpFR2	12	n/a	n/a	n/a	31	10	3	5	2
4536.514	n/a	PROB	2268257	n/a	LTP278	ltpFR2	12	n/a	n/a	n/a	31	21	5	8	9
4538.978	n/a	PROB	2269489	n/a	LTP278	ltpFR2	12	n/a	n/a	n/a	31	8	5	1	2
4540.76	n/a	PROB	2270380	n/a	LTP278	ltpFR2	12	n/a	n/a	n/a	31	17	8	5	4
4543.354	n/a	PROB	2271677	n/a	LTP278	ltpFR2	12	n/a	n/a	n/a	31	18	9	5	4
4545.484	n/a	PROB	2272742	n/a	LTP278	ltpFR2	12	n/a	n/a	n/a	31	12	4	4	3
4547.824	n/a	STOP	2273912	n/a	LTP278	ltpFR2	12	n/a	n/a	n/a	31	n/a	n/a	n/a	n/a
4550.578	n/a	REC_START	2275289	n/a	LTP278	ltpFR2	12	21	n/a	n/a	n/a	n/a	0	0	0
4556.49	n/a	REC_WORD	2278245	wordpools/wasnorm_wordpool_576.txt	LTP278	ltpFR2	12	21	BACON	67	n/a	n/a	0	0	0
4558.996	n/a	REC_WORD	2279498	wordpools/wasnorm_wordpool_576.txt	LTP278	ltpFR2	12	21	PORK	1108	n/a	n/a	0	0	0
4568.5	n/a	REC_WORD	2284250	wordpools/wasnorm_wordpool_576.txt	LTP278	ltpFR2	12	21	TROMBONE	1508	n/a	n/a	0	0	0
4571.712	n/a	REC_WORD	2285856	wordpools/wasnorm_wordpool_576.txt	LTP278	ltpFR2	12	21	KIDNEY	776	n/a	n/a	0	0	0
4641.244	n/a	DISTRACTOR	2320622	n/a	LTP278	ltpFR2	12	22	n/a	n/a	n/a	n/a	0	0	0
4641.244	n/a	START	2320622	n/a	LTP278	ltpFR2	12	n/a	n/a	n/a	32	n/a	n/a	n/a	n/a
