mstime	trial_type	stim_file	subject	experiment	session	trial	task	item_name	item_num	recog_conf	resp	color_b	color_g	color_r	case	font
0	SESS_START	n/a	LTP066	ltpFR	3	n/a	n/a	n/a	n/a	3	n/a	n/a	n/a	n/a	n/a	n/a
65854	WORD	wordpools/wasnorm_wordpool.txt	LTP066	ltpFR	3	1	1	BINDER	127	n/a	0	1	0.412841796875	0.57763671875	upper	../fonts/amplitud.ttf
69780	WORD	wordpools/wasnorm_wordpool.txt	LTP066	ltpFR	3	1	1	KLEENEX	782	n/a	0	1	0.412841796875	0.57763671875	upper	../fonts/amplitud.ttf
73820	WORD	wordpools/wasnorm_wordpool.txt	LTP066	ltpFR	3	1	1	GERM	632	n/a	0	1	0.412841796875	0.57763671875	upper	../fonts/amplitud.ttf
78003	WORD	wordpools/wasnorm_wordpool.txt	LTP066	ltpFR	3	1	1	TILE	1468	n/a	0	1	0.412841796875	0.57763671875	upper	../fonts/amplitud.ttf
81928	WORD	wordpools/wasnorm_wordpool.txt	LTP066	ltpFR	3	1	1	TOOTH	1481	n/a	0	1	0.412841796875	0.57763671875	upper	../fonts/amplitud.ttf
86003	WORD	wordpools/wasnorm_wordpool.txt	LTP066	ltpFR	3	1	0	CANE	231	n/a	1	0	0.5869140625	0.422607421875	lower	../fonts/zerothre.ttf
89927	WORD	wordpools/wasnorm_wordpool.txt	LTP066	ltpFR	3	1	0	ORCHESTRA	981	n/a	1	0	0.5869140625	0.422607421875	lower	../fonts/zerothre.ttf
93819	WORD	wordpools/wasnorm_wordpool.txt	LTP066	ltpFR	3	1	1	DISC	473	n/a	0	1	0.412841796875	0.57763671875	upper	../fonts/amplitud.ttf
97843	WORD	wordpools/wasnorm_wordpool.txt	LTP066	ltpFR	3	1	1	DENTIST	447	n/a	3	1	0.412841796875	0.57763671875	upper	../fonts/amplitud.ttf
98636	KEY_MSG	n/a	LTP066	ltpFR	3	1	n/a	n/a	n/a	n/a	n/a	n/a	n/a	n/a	n/a	n/a
101868	WORD	wordpools/wasnorm_wordpool.txt	LTP066	ltpFR	3	1	1	ENCYCLOPEDIA	533	n/a	0	1	0.412841796875	0.57763671875	upper	../fonts/amplitud.ttf
105876	WORD	wordpools/wasnorm_wordpool.txt	LTP066	ltpFR	3	1	0	PARSLEY	1016	n/a	1	0	0.5869140625	0.422607421875	lower	../fonts/zerothre.ttf
110026	WORD	wordpools/wasnorm_wordpool.txt	LTP066	ltpFR	3	1	0	PUBLICATION	1136	n/a	1	0	0.5869140625	0.422607421875	lower	../fonts/zerothre.ttf
113867	WORD	wordpools/wasnorm_wordpool.txt	LTP066	ltpFR	3	1	0	PUBLISHER	1137	n/a	1	0	0.5869140625	0.422607421875	lower	../fonts/zerothre.ttf
117850	WORD	wordpools/wasnorm_wordpool.txt	LTP066	ltpFR	3	1	0	INMATE	738	n/a	1	0	0.5869140625	0.422607421875	lower	../fonts/zerothre.ttf
122025	WORD	wordpools/wasnorm_wordpool.txt	LTP066	ltpFR	3	1	0	PRISONER	1128	n/a	1	0	0.5869140625	0.422607421875	lower	../fonts/zerothre.ttf
126100	WORD	wordpools/wasnorm_wordpool.txt	LTP066	ltpFR	3	1	0	LUNCH	849	n/a	1	0	0.5869140625	0.422607421875	lower	../fonts/zerothre.ttf
131817	REC_START	n/a	LTP066	ltpFR	3	1	n/a	n/a	n/a	n/a	n/a	n/a	n/a	n/a	n/a	n/a
133448	REC_WORD	wordpools/wasnorm_wordpool.txt	LTP066	ltpFR	3	1	0	PARSLEY	1016	n/a	1	n/a	n/a	n/a	n/a	n/a
134328	REC_WORD	wordpools/wasnorm_wordpool.txt	LTP066	ltpFR	3	1	1	ENCYCLOPEDIA	533	n/a	0	n/a	n/a	n/a	n/a	n/a
138222	REC_WORD	wordpools/wasnorm_wordpool.txt	LTP066	ltpFR	3	1	0	LUNCH	849	n/a	1	n/a	n/a	n/a	n/a	n/a
140502	REC_WORD	wordpools/wasnorm_wordpool.txt	LTP066	ltpFR	3	1	1	TILE	1468	n/a	0	n/a	n/a	n/a	n/a	n/a
142059	REC_WORD	wordpools/wasnorm_wordpool.txt	LTP066	ltpFR	3	1	1	BINDER	127	n/a	0	n/a	n/a	n/a	n/a	n/a
143046	REC_WORD	wordpools/wasnorm_wordpool.txt	LTP066	ltpFR	3	1	1	GERM	632	n/a	0	n/a	n/a	n/a	n/a	n/a
143700	REC_WORD	wordpools/wasnorm_wordpool.txt	LTP066	ltpFR	3	1	1	KLEENEX	782	n/a	0	n/a	n/a	n/a	n/a	n/a
145551	REC_WORD	wordpools/wasnorm_wordpool.txt	LTP066	ltpFR	3	1	0	INMATE	738	n/a	1	n/a	n/a	n/a	n/a	n/a
146209	REC_WORD	wordpools/wasnorm_wordpool.txt	LTP066	ltpFR	3	1	0	PRISONER	1128	n/a	1	n/a	n/a	n/a	n/a	n/a
147556	REC_WORD	wordpools/wasnorm_wordpool.txt	LTP066	ltpFR	3	1	0	ORCHESTRA	981	n/a	1	n/a	n/a	n/a	n/a	n/a
148673	REC_WORD	wordpools/wasnorm_wordpool.txt	LTP066	ltpFR	3	1	0	CANE	231	n/a	1	n/a	n/a	n/a	n/a	n/a
179972	REC_WORD	wordpools/wasnorm_wordpool.txt	LTP066	ltpFR	3	1	0	PUBLISHER	1137	n/a	1	n/a	n/a	n/a	n/a	n/a
211486	WORD	wordpools/wasnorm_wordpool.txt	LTP066	ltpFR	3	2	0	FATHER	554	n/a	1	0	0.5869140625	0.422607421875	lower	../fonts/zerothre.ttf
215661	WORD	wordpools/wasnorm_wordpool.txt	LTP066	ltpFR	3	2	0	BAIT	70	n/a	1	0	0.5869140625	0.422607421875	lower	../fonts/zerothre.ttf
219511	WORD	wordpools/wasnorm_wordpool.txt	LTP066	ltpFR	3	2	1	PHYSICIAN	1056	n/a	1	1	0.412841796875	0.57763671875	upper	../fonts/amplitud.ttf
223502	WORD	wordpools/wasnorm_wordpool.txt	LTP066	ltpFR	3	2	1	KEEPER	769	n/a	0	1	0.412841796875	0.57763671875	upper	../fonts/amplitud.ttf
227618	WORD	wordpools/wasnorm_wordpool.txt	LTP066	ltpFR	3	2	1	CRYSTAL	418	n/a	0	1	0.412841796875	0.57763671875	upper	../fonts/amplitud.ttf
231568	WORD	wordpools/wasnorm_wordpool.txt	LTP066	ltpFR	3	2	1	PRUNE	1134	n/a	1	1	0.412841796875	0.57763671875	upper	../fonts/amplitud.ttf
235434	WORD	wordpools/wasnorm_wordpool.txt	LTP066	ltpFR	3	2	1	CARROT	249	n/a	1	1	0.412841796875	0.57763671875	upper	../fonts/amplitud.ttf
239242	WORD	wordpools/wasnorm_wordpool.txt	LTP066	ltpFR	3	2	1	CAB	209	n/a	0	1	0.412841796875	0.57763671875	upper	../fonts/amplitud.ttf
243342	WORD	wordpools/wasnorm_wordpool.txt	LTP066	ltpFR	3	2	0	LAGOON	795	n/a	1	0	0.5869140625	0.422607421875	lower	../fonts/zerothre.ttf
247459	WORD	wordpools/wasnorm_wordpool.txt	LTP066	ltpFR	3	2	0	SWAMP	1416	n/a	1	0	0.5869140625	0.422607421875	lower	../fonts/zerothre.ttf
251667	WORD	wordpools/wasnorm_wordpool.txt	LTP066	ltpFR	3	2	1	EMPIRE	530	n/a	0	1	0.412841796875	0.57763671875	upper	../fonts/amplitud.ttf
255500	WORD	wordpools/wasnorm_wordpool.txt	LTP066	ltpFR	3	2	1	BONE	148	n/a	0	1	0.412841796875	0.57763671875	upper	../fonts/amplitud.ttf
259391	WORD	wordpools/wasnorm_wordpool.txt	LTP066	ltpFR	3	2	0	PROFESSIONAL	1130	n/a	1	0	0.5869140625	0.422607421875	lower	../fonts/zerothre.ttf
263399	WORD	wordpools/wasnorm_wordpool.txt	LTP066	ltpFR	3	2	0	FAUCET	555	n/a	1	0	0.5869140625	0.422607421875	lower	../fonts/zerothre.ttf
267565	WORD	wordpools/wasnorm_wordpool.txt	LTP066	ltpFR	3	2	0	SPONGE	1355	n/a	0	0	0.5869140625	0.422607421875	lower	../fonts/zerothre.ttf
271548	WORD	wordpools/wasnorm_wordpool.txt	LTP066	ltpFR	3	2	0	WHEEL	1603	n/a	0	0	0.5869140625	0.422607421875	lower	../fonts/zerothre.ttf
277482	REC_START	n/a	LTP066	ltpFR	3	2	n/a	n/a	n/a	n/a	n/a	n/a	n/a	n/a	n/a	n/a
279363	REC_WORD	wordpools/wasnorm_wordpool.txt	LTP066	ltpFR	3	2	0	WHEEL	1603	n/a	0	n/a	n/a	n/a	n/a	n/a
280794	REC_WORD	wordpools/wasnorm_wordpool.txt	LTP066	ltpFR	3	2	1	PHYSICIAN	1056	n/a	1	n/a	n/a	n/a	n/a	n/a
282550	REC_WORD	wordpools/wasnorm_wordpool.txt	LTP066	ltpFR	3	2	0	SWAMP	1416	n/a	1	n/a	n/a	n/a	n/a	n/a
285464	REC_WORD	wordpools/wasnorm_wordpool.txt	LTP066	ltpFR	3	2	1	CRYSTAL	418	n/a	0	n/a	n/a	n/a	n/a	n/a
288362	REC_WORD	wordpools/wasnorm_wordpool.txt	LTP066	ltpFR	3	2	1	CARROT	249	n/a	1	n/a	n/a	n/a	n/a	n/a
298479	REC_WORD	wordpools/wasnorm_wordpool.txt	LTP066	ltpFR	3	2	1	CAB	209	n/a	0	n/a	n/a	n/a	n/a	n/a
302969	REC_WORD	wordpools/wasnorm_wordpool.txt	LTP066	ltpFR	3	2	1	EMPIRE	530	n/a	0	n/a	n/a	n/a	n/a	n/a
313789	REC_WORD	wordpools/wasnorm_wordpool.txt	LTP066	ltpFR	3	2	1	BONE	148	n/a	0	n/a	n/a	n/a	n/a	n/a
317426	REC_WORD	wordpools/wasnorm_wordpool.txt	LTP066	ltpFR	3	2	1	PRUNE	1134	n/a	1	n/a	n/a	n/a	n/a	n/a
324261	REC_WORD	wordpools/wasnorm_wordpool.txt	LTP066	ltpFR	3	2	0	BAIT	70	n/a	1	n/a	n/a	n/a	n/a	n/a
359008	WORD	wordpools/wasnorm_wordpool.txt	LTP066	ltpFR	3	3	0	RECEIPT	1173	n/a	0	0	0.5869140625	0.422607421875	lower	../fonts/zerothre.ttf
363116	WORD	wordpools/wasnorm_wordpool.txt	LTP066	ltpFR	3	3	0	COUGAR	387	n/a	1	0	0.5869140625	0.422607421875	lower	../fonts/zerothre.ttf
367124	WORD	wordpools/wasnorm_wordpool.txt	LTP066	ltpFR	3	3	0	TEACHER	1440	n/a	1	0	0.5869140625	0.422607421875	lower	../fonts/zerothre.ttf
371275	WORD	wordpools/wasnorm_wordpool.txt	LTP066	ltpFR	3	3	0	FELLOW	558	n/a	1	0	0.5869140625	0.422607421875	lower	../fonts/zerothre.ttf
375324	WORD	wordpools/wasnorm_wordpool.txt	LTP066	ltpFR	3	3	0	PARTNER	1017	n/a	1	0	0.5869140625	0.422607421875	lower	../fonts/zerothre.ttf
379457	WORD	wordpools/wasnorm_wordpool.txt	LTP066	ltpFR	3	3	0	FLORIDA	582	n/a	1	0	0.5869140625	0.422607421875	lower	../fonts/zerothre.ttf
383557	WORD	wordpools/wasnorm_wordpool.txt	LTP066	ltpFR	3	3	1	COMMUNITY	356	n/a	0	1	0.412841796875	0.57763671875	upper	../fonts/amplitud.ttf
387515	WORD	wordpools/wasnorm_wordpool.txt	LTP066	ltpFR	3	3	1	TOAST	1471	n/a	0	1	0.412841796875	0.57763671875	upper	../fonts/amplitud.ttf
391432	WORD	wordpools/wasnorm_wordpool.txt	LTP066	ltpFR	3	3	0	BAKER	71	n/a	1	0	0.5869140625	0.422607421875	lower	../fonts/zerothre.ttf
395390	WORD	wordpools/wasnorm_wordpool.txt	LTP066	ltpFR	3	3	0	DOORBELL	487	n/a	0	0	0.5869140625	0.422607421875	lower	../fonts/zerothre.ttf
399323	WORD	wordpools/wasnorm_wordpool.txt	LTP066	ltpFR	3	3	1	PLIERS	1089	n/a	0	1	0.412841796875	0.57763671875	upper	../fonts/amplitud.ttf
403431	WORD	wordpools/wasnorm_wordpool.txt	LTP066	ltpFR	3	3	1	ABDOMEN	1	n/a	1	1	0.412841796875	0.57763671875	upper	../fonts/amplitud.ttf
407414	WORD	wordpools/wasnorm_wordpool.txt	LTP066	ltpFR	3	3	1	CABBAGE	210	n/a	0	1	0.412841796875	0.57763671875	upper	../fonts/amplitud.ttf
411613	WORD	wordpools/wasnorm_wordpool.txt	LTP066	ltpFR	3	3	1	STORE	1387	n/a	0	1	0.412841796875	0.57763671875	upper	../fonts/amplitud.ttf
415780	WORD	wordpools/wasnorm_wordpool.txt	LTP066	ltpFR	3	3	1	CHIME	300	n/a	0	1	0.412841796875	0.57763671875	upper	../fonts/amplitud.ttf
419671	WORD	wordpools/wasnorm_wordpool.txt	LTP066	ltpFR	3	3	1	POSSUM	1112	n/a	1	1	0.412841796875	0.57763671875	upper	../fonts/amplitud.ttf
425546	REC_START	n/a	LTP066	ltpFR	3	3	n/a	n/a	n/a	n/a	n/a	n/a	n/a	n/a	n/a	n/a
427097	REC_WORD	wordpools/wasnorm_wordpool.txt	LTP066	ltpFR	3	3	1	POSSUM	1112	n/a	1	n/a	n/a	n/a	n/a	n/a
428404	REC_WORD	wordpools/wasnorm_wordpool.txt	LTP066	ltpFR	3	3	1	ABDOMEN	1	n/a	1	n/a	n/a	n/a	n/a	n/a
430050	REC_WORD	wordpools/wasnorm_wordpool.txt	LTP066	ltpFR	3	3	n/a	FLIERS	-1	n/a	n/a	n/a	n/a	n/a	n/a	n/a
431712	REC_WORD	wordpools/wasnorm_wordpool.txt	LTP066	ltpFR	3	3	0	TEACHER	1440	n/a	1	n/a	n/a	n/a	n/a	n/a
433767	REC_WORD	wordpools/wasnorm_wordpool.txt	LTP066	ltpFR	3	3	0	PARTNER	1017	n/a	1	n/a	n/a	n/a	n/a	n/a
435962	REC_WORD	wordpools/wasnorm_wordpool.txt	LTP066	ltpFR	3	3	0	FLORIDA	582	n/a	1	n/a	n/a	n/a	n/a	n/a
438192	REC_WORD	wordpools/wasnorm_wordpool.txt	LTP066	ltpFR	3	3	0	DOORBELL	487	n/a	0	n/a	n/a	n/a	n/a	n/a
465315	REC_WORD	wordpools/wasnorm_wordpool.txt	LTP066	ltpFR	3	3	1	POSSUM	1112	n/a	1	n/a	n/a	n/a	n/a	n/a
475727	REC_WORD	wordpools/wasnorm_wordpool.txt	LTP066	ltpFR	3	3	1	COMMUNITY	356	n/a	0	n/a	n/a	n/a	n/a	n/a
478041	REC_WORD	wordpools/wasnorm_wordpool.txt	LTP066	ltpFR	3	3	0	BAKER	71	n/a	1	n/a	n/a	n/a	n/a	n/a
516297	WORD	wordpools/wasnorm_wordpool.txt	LTP066	ltpFR	3	4	0	VOLUNTEER	1577	n/a	1	0	0.5869140625	0.422607421875	lower	../fonts/zerothre.ttf
520229	WORD	wordpools/wasnorm_wordpool.txt	LTP066	ltpFR	3	4	0	MUSTARD	935	n/a	0	0	0.5869140625	0.422607421875	lower	../fonts/zerothre.ttf
524254	WORD	wordpools/wasnorm_wordpool.txt	LTP066	ltpFR	3	4	1	WHALE	1601	n/a	1	1	0.412841796875	0.57763671875	upper	../fonts/amplitud.ttf
528137	WORD	wordpools/wasnorm_wordpool.txt	LTP066	ltpFR	3	4	1	LOBSTER	837	n/a	1	1	0.412841796875	0.57763671875	upper	../fonts/amplitud.ttf
532288	WORD	wordpools/wasnorm_wordpool.txt	LTP066	ltpFR	3	4	1	SPIDER	1351	n/a	1	1	0.412841796875	0.57763671875	upper	../fonts/amplitud.ttf
536103	WORD	wordpools/wasnorm_wordpool.txt	LTP066	ltpFR	3	4	0	QUILT	1151	n/a	1	0	0.5869140625	0.422607421875	lower	../fonts/zerothre.ttf
540279	WORD	wordpools/wasnorm_wordpool.txt	LTP066	ltpFR	3	4	0	FREEZER	604	n/a	1	0	0.5869140625	0.422607421875	lower	../fonts/zerothre.ttf
544279	WORD	wordpools/wasnorm_wordpool.txt	LTP066	ltpFR	3	4	0	SHEEP	1278	n/a	1	0	0.5869140625	0.422607421875	lower	../fonts/zerothre.ttf
548270	WORD	wordpools/wasnorm_wordpool.txt	LTP066	ltpFR	3	4	0	SOLDIER	1344	n/a	1	0	0.5869140625	0.422607421875	lower	../fonts/zerothre.ttf
552336	WORD	wordpools/wasnorm_wordpool.txt	LTP066	ltpFR	3	4	1	MILITARY	894	n/a	0	1	0.412841796875	0.57763671875	upper	../fonts/amplitud.ttf
556278	WORD	wordpools/wasnorm_wordpool.txt	LTP066	ltpFR	3	4	1	TOOL	1480	n/a	0	1	0.412841796875	0.57763671875	upper	../fonts/amplitud.ttf
560378	WORD	wordpools/wasnorm_wordpool.txt	LTP066	ltpFR	3	4	1	DRILL	497	n/a	0	1	0.412841796875	0.57763671875	upper	../fonts/amplitud.ttf
564536	WORD	wordpools/wasnorm_wordpool.txt	LTP066	ltpFR	3	4	1	GOAT	644	n/a	0	1	0.412841796875	0.57763671875	upper	../fonts/amplitud.ttf
568385	WORD	wordpools/wasnorm_wordpool.txt	LTP066	ltpFR	3	4	1	SWATTER	1418	n/a	0	1	0.412841796875	0.57763671875	upper	../fonts/amplitud.ttf
572277	WORD	wordpools/wasnorm_wordpool.txt	LTP066	ltpFR	3	4	0	SPOON	1357	n/a	0	0	0.5869140625	0.422607421875	lower	../fonts/zerothre.ttf
576142	WORD	wordpools/wasnorm_wordpool.txt	LTP066	ltpFR	3	4	0	STOCKING	1383	n/a	0	0	0.5869140625	0.422607421875	lower	../fonts/zerothre.ttf
581934	REC_START	n/a	LTP066	ltpFR	3	4	n/a	n/a	n/a	n/a	n/a	n/a	n/a	n/a	n/a	n/a
583036	REC_WORD	wordpools/wasnorm_wordpool.txt	LTP066	ltpFR	3	4	0	STOCKING	1383	n/a	0	n/a	n/a	n/a	n/a	n/a
585436	REC_WORD	wordpools/wasnorm_wordpool.txt	LTP066	ltpFR	3	4	1	GOAT	644	n/a	0	n/a	n/a	n/a	n/a	n/a
586623	REC_WORD	wordpools/wasnorm_wordpool.txt	LTP066	ltpFR	3	4	0	SHEEP	1278	n/a	1	n/a	n/a	n/a	n/a	n/a
587800	REC_WORD	wordpools/wasnorm_wordpool.txt	LTP066	ltpFR	3	4	1	WHALE	1601	n/a	1	n/a	n/a	n/a	n/a	n/a
588878	REC_WORD	wordpools/wasnorm_wordpool.txt	LTP066	ltpFR	3	4	1	LOBSTER	837	n/a	1	n/a	n/a	n/a	n/a	n/a
589887	REC_WORD	wordpools/wasnorm_wordpool.txt	LTP066	ltpFR	3	4	1	SPIDER	1351	n/a	1	n/a	n/a	n/a	n/a	n/a
593512	REC_WORD	wordpools/wasnorm_wordpool.txt	LTP066	ltpFR	3	4	0	FREEZER	604	n/a	1	n/a	n/a	n/a	n/a	n/a
594879	REC_WORD	wordpools/wasnorm_wordpool.txt	LTP066	ltpFR	3	4	1	MILITARY	894	n/a	0	n/a	n/a	n/a	n/a	n/a
595992	REC_WORD	wordpools/wasnorm_wordpool.txt	LTP066	ltpFR	3	4	n/a	QUILL	1150	n/a	n/a	n/a	n/a	n/a	n/a	n/a
627191	REC_WORD	wordpools/wasnorm_wordpool.txt	LTP066	ltpFR	3	4	0	MUSTARD	935	n/a	0	n/a	n/a	n/a	n/a	n/a
640062	REC_WORD	wordpools/wasnorm_wordpool.txt	LTP066	ltpFR	3	4	0	SOLDIER	1344	n/a	1	n/a	n/a	n/a	n/a	n/a
645205	REC_WORD	wordpools/wasnorm_wordpool.txt	LTP066	ltpFR	3	4	1	MILITARY	894	n/a	0	n/a	n/a	n/a	n/a	n/a
662044	WORD	wordpools/wasnorm_wordpool.txt	LTP066	ltpFR	3	5	0	MACARONI	851	n/a	0	0	0.5869140625	0.422607421875	lower	../fonts/zerothre.ttf
665936	WORD	wordpools/wasnorm_wordpool.txt	LTP066	ltpFR	3	5	0	BROCCOLI	176	n/a	0	0	0.5869140625	0.422607421875	lower	../fonts/zerothre.ttf
669869	WORD	wordpools/wasnorm_wordpool.txt	LTP066	ltpFR	3	5	0	INFANT	737	n/a	1	0	0.5869140625	0.422607421875	lower	../fonts/zerothre.ttf
673993	WORD	wordpools/wasnorm_wordpool.txt	LTP066	ltpFR	3	5	0	ASTRONAUT	51	n/a	1	0	0.5869140625	0.422607421875	lower	../fonts/zerothre.ttf
677960	WORD	wordpools/wasnorm_wordpool.txt	LTP066	ltpFR	3	5	0	PIT	1077	n/a	1	0	0.5869140625	0.422607421875	lower	../fonts/zerothre.ttf
681859	WORD	wordpools/wasnorm_wordpool.txt	LTP066	ltpFR	3	5	0	ROACH	1195	n/a	0	0	0.5869140625	0.422607421875	lower	../fonts/zerothre.ttf
685959	WORD	wordpools/wasnorm_wordpool.txt	LTP066	ltpFR	3	5	0	PEACH	1031	n/a	0	0	0.5869140625	0.422607421875	lower	../fonts/zerothre.ttf
689876	WORD	wordpools/wasnorm_wordpool.txt	LTP066	ltpFR	3	5	0	TANGERINE	1431	n/a	0	0	0.5869140625	0.422607421875	lower	../fonts/zerothre.ttf
693875	WORD	wordpools/wasnorm_wordpool.txt	LTP066	ltpFR	3	5	0	YACHT	1629	n/a	1	0	0.5869140625	0.422607421875	lower	../fonts/zerothre.ttf
697933	WORD	wordpools/wasnorm_wordpool.txt	LTP066	ltpFR	3	5	0	SPINACH	1352	n/a	0	0	0.5869140625	0.422607421875	lower	../fonts/zerothre.ttf
702100	WORD	wordpools/wasnorm_wordpool.txt	LTP066	ltpFR	3	5	0	WINDSHIELD	1612	n/a	1	0	0.5869140625	0.422607421875	lower	../fonts/zerothre.ttf
706049	WORD	wordpools/wasnorm_wordpool.txt	LTP066	ltpFR	3	5	0	VIKING	1565	n/a	1	0	0.5869140625	0.422607421875	lower	../fonts/zerothre.ttf
710157	WORD	wordpools/wasnorm_wordpool.txt	LTP066	ltpFR	3	5	0	ANTEATER	26	n/a	1	0	0.5869140625	0.422607421875	lower	../fonts/zerothre.ttf
714091	WORD	wordpools/wasnorm_wordpool.txt	LTP066	ltpFR	3	5	0	BOWL	158	n/a	0	0	0.5869140625	0.422607421875	lower	../fonts/zerothre.ttf
718165	WORD	wordpools/wasnorm_wordpool.txt	LTP066	ltpFR	3	5	0	SALESMAN	1225	n/a	1	0	0.5869140625	0.422607421875	lower	../fonts/zerothre.ttf
722299	WORD	wordpools/wasnorm_wordpool.txt	LTP066	ltpFR	3	5	0	TIMBER	1469	n/a	1	0	0.5869140625	0.422607421875	lower	../fonts/zerothre.ttf
728190	REC_START	n/a	LTP066	ltpFR	3	5	n/a	n/a	n/a	n/a	n/a	n/a	n/a	n/a	n/a	n/a
730465	REC_WORD	wordpools/wasnorm_wordpool.txt	LTP066	ltpFR	3	5	0	TIMBER	1469	n/a	1	n/a	n/a	n/a	n/a	n/a
731502	REC_WORD	wordpools/wasnorm_wordpool.txt	LTP066	ltpFR	3	5	0	BOWL	158	n/a	0	n/a	n/a	n/a	n/a	n/a
732230	REC_WORD	wordpools/wasnorm_wordpool.txt	LTP066	ltpFR	3	5	0	SALESMAN	1225	n/a	1	n/a	n/a	n/a	n/a	n/a
734705	REC_WORD	wordpools/wasnorm_wordpool.txt	LTP066	ltpFR	3	5	0	INFANT	737	n/a	1	n/a	n/a	n/a	n/a	n/a
743879	REC_WORD	wordpools/wasnorm_wordpool.txt	LTP066	ltpFR	3	5	0	BROCCOLI	176	n/a	0	n/a	n/a	n/a	n/a	n/a
745012	REC_WORD	wordpools/wasnorm_wordpool.txt	LTP066	ltpFR	3	5	0	MACARONI	851	n/a	0	n/a	n/a	n/a	n/a	n/a
747621	REC_WORD	wordpools/wasnorm_wordpool.txt	LTP066	ltpFR	3	5	0	ASTRONAUT	51	n/a	1	n/a	n/a	n/a	n/a	n/a
748898	REC_WORD	wordpools/wasnorm_wordpool.txt	LTP066	ltpFR	3	5	0	PIT	1077	n/a	1	n/a	n/a	n/a	n/a	n/a
752749	REC_WORD	wordpools/wasnorm_wordpool.txt	LTP066	ltpFR	3	5	0	ROACH	1195	n/a	0	n/a	n/a	n/a	n/a	n/a
754505	REC_WORD	wordpools/wasnorm_wordpool.txt	LTP066	ltpFR	3	5	0	PEACH	1031	n/a	0	n/a	n/a	n/a	n/a	n/a
755358	REC_WORD	wordpools/wasnorm_wordpool.txt	LTP066	ltpFR	3	5	0	TANGERINE	1431	n/a	0	n/a	n/a	n/a	n/a	n/a
761843	REC_WORD	wordpools/wasnorm_wordpool.txt	LTP066	ltpFR	3	5	0	YACHT	1629	n/a	1	n/a	n/a	n/a	n/a	n/a
765265	REC_WORD	wordpools/wasnorm_wordpool.txt	LTP066	ltpFR	3	5	0	WINDSHIELD	1612	n/a	1	n/a	n/a	n/a	n/a	n/a
767890	REC_WORD	wordpools/wasnorm_wordpool.txt	LTP066	ltpFR	3	5	0	ANTEATER	26	n/a	1	n/a	n/a	n/a	n/a	n/a
782671	REC_WORD	wordpools/wasnorm_wordpool.txt	LTP066	ltpFR	3	5	0	VIKING	1565	n/a	1	n/a	n/a	n/a	n/a	n/a
807109	WORD	wordpools/wasnorm_wordpool.txt	LTP066	ltpFR	3	6	-1	COBRA	336	n/a	-1	1	1.0	1.0	upper	../fonts/Verdana.ttf
811133	WORD	wordpools/wasnorm_wordpool.txt	LTP066	ltpFR	3	6	-1	REPTILE	1185	n/a	-1	1	1.0	1.0	upper	../fonts/Verdana.ttf
815292	WORD	wordpools/wasnorm_wordpool.txt	LTP066	ltpFR	3	6	-1	OZONE	996	n/a	-1	1	1.0	1.0	upper	../fonts/Verdana.ttf
819284	WORD	wordpools/wasnorm_wordpool.txt	LTP066	ltpFR	3	6	-1	SLOPE	1328	n/a	-1	1	1.0	1.0	upper	../fonts/Verdana.ttf
823334	WORD	wordpools/wasnorm_wordpool.txt	LTP066	ltpFR	3	6	-1	SHOE	1288	n/a	-1	1	1.0	1.0	upper	../fonts/Verdana.ttf
827166	WORD	wordpools/wasnorm_wordpool.txt	LTP066	ltpFR	3	6	-1	LACE	792	n/a	-1	1	1.0	1.0	upper	../fonts/Verdana.ttf
831215	WORD	wordpools/wasnorm_wordpool.txt	LTP066	ltpFR	3	6	-1	BANDAGE	79	n/a	-1	1	1.0	1.0	upper	../fonts/Verdana.ttf
835207	WORD	wordpools/wasnorm_wordpool.txt	LTP066	ltpFR	3	6	-1	NIGHTGOWN	953	n/a	-1	1	1.0	1.0	upper	../fonts/Verdana.ttf
839206	WORD	wordpools/wasnorm_wordpool.txt	LTP066	ltpFR	3	6	-1	DESIGNER	451	n/a	-1	1	1.0	1.0	upper	../fonts/Verdana.ttf
843198	WORD	wordpools/wasnorm_wordpool.txt	LTP066	ltpFR	3	6	-1	BALCONY	72	n/a	-1	1	1.0	1.0	upper	../fonts/Verdana.ttf
847081	WORD	wordpools/wasnorm_wordpool.txt	LTP066	ltpFR	3	6	-1	ULCER	1533	n/a	-1	1	1.0	1.0	upper	../fonts/Verdana.ttf
851282	WORD	wordpools/wasnorm_wordpool.txt	LTP066	ltpFR	3	6	-1	IGLOO	734	n/a	-1	1	1.0	1.0	upper	../fonts/Verdana.ttf
855114	WORD	wordpools/wasnorm_wordpool.txt	LTP066	ltpFR	3	6	-1	UNDERWEAR	1537	n/a	-1	1	1.0	1.0	upper	../fonts/Verdana.ttf
859088	WORD	wordpools/wasnorm_wordpool.txt	LTP066	ltpFR	3	6	-1	THORN	1459	n/a	-1	1	1.0	1.0	upper	../fonts/Verdana.ttf
863138	WORD	wordpools/wasnorm_wordpool.txt	LTP066	ltpFR	3	6	-1	BLANKET	135	n/a	-1	1	1.0	1.0	upper	../fonts/Verdana.ttf
867280	WORD	wordpools/wasnorm_wordpool.txt	LTP066	ltpFR	3	6	-1	LAMB	797	n/a	-1	1	1.0	1.0	upper	../fonts/Verdana.ttf
873146	REC_START	n/a	LTP066	ltpFR	3	6	n/a	n/a	n/a	n/a	n/a	n/a	n/a	n/a	n/a	n/a
874248	REC_WORD	wordpools/wasnorm_wordpool.txt	LTP066	ltpFR	3	6	-1	UNDERWEAR	1537	n/a	-1	n/a	n/a	n/a	n/a	n/a
876004	REC_WORD	wordpools/wasnorm_wordpool.txt	LTP066	ltpFR	3	6	-1	THORN	1459	n/a	-1	n/a	n/a	n/a	n/a	n/a
876962	REC_WORD	wordpools/wasnorm_wordpool.txt	LTP066	ltpFR	3	6	-1	LAMB	797	n/a	-1	n/a	n/a	n/a	n/a	n/a
878973	REC_WORD	wordpools/wasnorm_wordpool.txt	LTP066	ltpFR	3	6	-1	COBRA	336	n/a	-1	n/a	n/a	n/a	n/a	n/a
880270	REC_WORD	wordpools/wasnorm_wordpool.txt	LTP066	ltpFR	3	6	-1	REPTILE	1185	n/a	-1	n/a	n/a	n/a	n/a	n/a
883697	REC_WORD	wordpools/wasnorm_wordpool.txt	LTP066	ltpFR	3	6	-1	OZONE	996	n/a	-1	n/a	n/a	n/a	n/a	n/a
885433	REC_WORD	wordpools/wasnorm_wordpool.txt	LTP066	ltpFR	3	6	-1	SLOPE	1328	n/a	-1	n/a	n/a	n/a	n/a	n/a
887054	REC_WORD	wordpools/wasnorm_wordpool.txt	LTP066	ltpFR	3	6	n/a	LAYER	-1	n/a	n/a	n/a	n/a	n/a	n/a	n/a
889743	REC_WORD	wordpools/wasnorm_wordpool.txt	LTP066	ltpFR	3	6	-1	SHOE	1288	n/a	-1	n/a	n/a	n/a	n/a	n/a
891125	REC_WORD	wordpools/wasnorm_wordpool.txt	LTP066	ltpFR	3	6	-1	LACE	792	n/a	-1	n/a	n/a	n/a	n/a	n/a
898004	REC_WORD	wordpools/wasnorm_wordpool.txt	LTP066	ltpFR	3	6	-1	DESIGNER	451	n/a	-1	n/a	n/a	n/a	n/a	n/a
899651	REC_WORD	wordpools/wasnorm_wordpool.txt	LTP066	ltpFR	3	6	-1	IGLOO	734	n/a	-1	n/a	n/a	n/a	n/a	n/a
902514	REC_WORD	wordpools/wasnorm_wordpool.txt	LTP066	ltpFR	3	6	-1	ULCER	1533	n/a	-1	n/a	n/a	n/a	n/a	n/a
903871	REC_WORD	wordpools/wasnorm_wordpool.txt	LTP066	ltpFR	3	6	-1	BLANKET	135	n/a	-1	n/a	n/a	n/a	n/a	n/a
905203	REC_WORD	wordpools/wasnorm_wordpool.txt	LTP066	ltpFR	3	6	-1	NIGHTGOWN	953	n/a	-1	n/a	n/a	n/a	n/a	n/a
914996	REC_WORD	wordpools/wasnorm_wordpool.txt	LTP066	ltpFR	3	6	-1	BALCONY	72	n/a	-1	n/a	n/a	n/a	n/a	n/a
920503	REC_WORD	wordpools/wasnorm_wordpool.txt	LTP066	ltpFR	3	6	-1	BANDAGE	79	n/a	-1	n/a	n/a	n/a	n/a	n/a
952182	WORD	wordpools/wasnorm_wordpool.txt	LTP066	ltpFR	3	7	1	GRAVEL	659	n/a	0	1	0.412841796875	0.57763671875	upper	../fonts/amplitud.ttf
956140	WORD	wordpools/wasnorm_wordpool.txt	LTP066	ltpFR	3	7	1	FRIES	607	n/a	0	1	0.412841796875	0.57763671875	upper	../fonts/amplitud.ttf
960189	WORD	wordpools/wasnorm_wordpool.txt	LTP066	ltpFR	3	7	1	CLOWN	330	n/a	1	1	0.412841796875	0.57763671875	upper	../fonts/amplitud.ttf
964139	WORD	wordpools/wasnorm_wordpool.txt	LTP066	ltpFR	3	7	1	SHOVEL	1295	n/a	0	1	0.412841796875	0.57763671875	upper	../fonts/amplitud.ttf
968105	WORD	wordpools/wasnorm_wordpool.txt	LTP066	ltpFR	3	7	1	CELERY	266	n/a	0	1	0.412841796875	0.57763671875	upper	../fonts/amplitud.ttf
971980	WORD	wordpools/wasnorm_wordpool.txt	LTP066	ltpFR	3	7	1	STRANGER	1389	n/a	1	1	0.412841796875	0.57763671875	upper	../fonts/amplitud.ttf
976055	WORD	wordpools/wasnorm_wordpool.txt	LTP066	ltpFR	3	7	1	CHIMNEY	301	n/a	0	1	0.412841796875	0.57763671875	upper	../fonts/amplitud.ttf
980155	WORD	wordpools/wasnorm_wordpool.txt	LTP066	ltpFR	3	7	1	DRAGON	492	n/a	1	1	0.412841796875	0.57763671875	upper	../fonts/amplitud.ttf
983996	WORD	wordpools/wasnorm_wordpool.txt	LTP066	ltpFR	3	7	1	BATTERY	101	n/a	0	1	0.412841796875	0.57763671875	upper	../fonts/amplitud.ttf
987862	WORD	wordpools/wasnorm_wordpool.txt	LTP066	ltpFR	3	7	1	BUS	201	n/a	0	1	0.412841796875	0.57763671875	upper	../fonts/amplitud.ttf
991945	WORD	wordpools/wasnorm_wordpool.txt	LTP066	ltpFR	3	7	1	CAFE	216	n/a	0	1	0.412841796875	0.57763671875	upper	../fonts/amplitud.ttf
996053	WORD	wordpools/wasnorm_wordpool.txt	LTP066	ltpFR	3	7	1	RIB	1188	n/a	0	1	0.412841796875	0.57763671875	upper	../fonts/amplitud.ttf
1000011	WORD	wordpools/wasnorm_wordpool.txt	LTP066	ltpFR	3	7	1	ASSOCIATE	49	n/a	1	1	0.412841796875	0.57763671875	upper	../fonts/amplitud.ttf
1004019	WORD	wordpools/wasnorm_wordpool.txt	LTP066	ltpFR	3	7	1	STAFF	1365	n/a	1	1	0.412841796875	0.57763671875	upper	../fonts/amplitud.ttf
1007953	WORD	wordpools/wasnorm_wordpool.txt	LTP066	ltpFR	3	7	1	WIFE	1609	n/a	1	1	0.412841796875	0.57763671875	upper	../fonts/amplitud.ttf
1012002	WORD	wordpools/wasnorm_wordpool.txt	LTP066	ltpFR	3	7	1	ELM	527	n/a	1	1	0.412841796875	0.57763671875	upper	../fonts/amplitud.ttf
1017819	REC_START	n/a	LTP066	ltpFR	3	7	n/a	n/a	n/a	n/a	n/a	n/a	n/a	n/a	n/a	n/a
1019655	REC_WORD	wordpools/wasnorm_wordpool.txt	LTP066	ltpFR	3	7	1	WIFE	1609	n/a	1	n/a	n/a	n/a	n/a	n/a
1021056	REC_WORD	wordpools/wasnorm_wordpool.txt	LTP066	ltpFR	3	7	1	ELM	527	n/a	1	n/a	n/a	n/a	n/a	n/a
1022169	REC_WORD	wordpools/wasnorm_wordpool.txt	LTP066	ltpFR	3	7	1	ASSOCIATE	49	n/a	1	n/a	n/a	n/a	n/a	n/a
1023246	REC_WORD	wordpools/wasnorm_wordpool.txt	LTP066	ltpFR	3	7	1	STAFF	1365	n/a	1	n/a	n/a	n/a	n/a	n/a
1025037	REC_WORD	wordpools/wasnorm_wordpool.txt	LTP066	ltpFR	3	7	1	RIB	1188	n/a	0	n/a	n/a	n/a	n/a	n/a
1027726	REC_WORD	wordpools/wasnorm_wordpool.txt	LTP066	ltpFR	3	7	1	CAFE	216	n/a	0	n/a	n/a	n/a	n/a	n/a
1028983	REC_WORD	wordpools/wasnorm_wordpool.txt	LTP066	ltpFR	3	7	1	BUS	201	n/a	0	n/a	n/a	n/a	n/a	n/a
1029841	REC_WORD	wordpools/wasnorm_wordpool.txt	LTP066	ltpFR	3	7	1	BATTERY	101	n/a	0	n/a	n/a	n/a	n/a	n/a
1034810	REC_WORD	wordpools/wasnorm_wordpool.txt	LTP066	ltpFR	3	7	1	CLOWN	330	n/a	1	n/a	n/a	n/a	n/a	n/a
1040023	REC_WORD	wordpools/wasnorm_wordpool.txt	LTP066	ltpFR	3	7	1	GRAVEL	659	n/a	0	n/a	n/a	n/a	n/a	n/a
1044338	REC_WORD	wordpools/wasnorm_wordpool.txt	LTP066	ltpFR	3	7	1	FRIES	607	n/a	0	n/a	n/a	n/a	n/a	n/a
1046698	REC_WORD	wordpools/wasnorm_wordpool.txt	LTP066	ltpFR	3	7	1	SHOVEL	1295	n/a	0	n/a	n/a	n/a	n/a	n/a
1049656	REC_WORD	wordpools/wasnorm_wordpool.txt	LTP066	ltpFR	3	7	1	STRANGER	1389	n/a	1	n/a	n/a	n/a	n/a	n/a
1051043	REC_WORD	wordpools/wasnorm_wordpool.txt	LTP066	ltpFR	3	7	1	CELERY	266	n/a	0	n/a	n/a	n/a	n/a	n/a
1054381	REC_WORD	wordpools/wasnorm_wordpool.txt	LTP066	ltpFR	3	7	1	CHIMNEY	301	n/a	0	n/a	n/a	n/a	n/a	n/a
1055932	REC_WORD	wordpools/wasnorm_wordpool.txt	LTP066	ltpFR	3	7	1	DRAGON	492	n/a	1	n/a	n/a	n/a	n/a	n/a
1060981	REC_WORD	wordpools/wasnorm_wordpool.txt	LTP066	ltpFR	3	7	1	BATTERY	101	n/a	0	n/a	n/a	n/a	n/a	n/a
1066194	REC_WORD	wordpools/wasnorm_wordpool.txt	LTP066	ltpFR	3	7	1	BUS	201	n/a	0	n/a	n/a	n/a	n/a	n/a
1099163	WORD	wordpools/wasnorm_wordpool.txt	LTP066	ltpFR	3	8	1	BRANCH	168	n/a	0	1	0.412841796875	0.57763671875	upper	../fonts/amplitud.ttf
1103179	WORD	wordpools/wasnorm_wordpool.txt	LTP066	ltpFR	3	8	1	LEAF	808	n/a	n/a	1	0.412841796875	0.57763671875	upper	../fonts/amplitud.ttf
1106204	SLOW_MSG	n/a	LTP066	ltpFR	3	8	n/a	n/a	n/a	n/a	n/a	n/a	n/a	n/a	n/a	n/a
1108713	WORD	wordpools/wasnorm_wordpool.txt	LTP066	ltpFR	3	8	1	CREW	406	n/a	1	1	0.412841796875	0.57763671875	upper	../fonts/amplitud.ttf
1112629	WORD	wordpools/wasnorm_wordpool.txt	LTP066	ltpFR	3	8	1	NITROGEN	954	n/a	0	1	0.412841796875	0.57763671875	upper	../fonts/amplitud.ttf
1116836	WORD	wordpools/wasnorm_wordpool.txt	LTP066	ltpFR	3	8	1	FLY	586	n/a	1	1	0.412841796875	0.57763671875	upper	../fonts/amplitud.ttf
1120994	WORD	wordpools/wasnorm_wordpool.txt	LTP066	ltpFR	3	8	1	CATERPILLAR	259	n/a	1	1	0.412841796875	0.57763671875	upper	../fonts/amplitud.ttf
1124902	WORD	wordpools/wasnorm_wordpool.txt	LTP066	ltpFR	3	8	1	UNCLE	1536	n/a	1	1	0.412841796875	0.57763671875	upper	../fonts/amplitud.ttf
1128952	WORD	wordpools/wasnorm_wordpool.txt	LTP066	ltpFR	3	8	1	MONSTER	912	n/a	1	1	0.412841796875	0.57763671875	upper	../fonts/amplitud.ttf
1133052	WORD	wordpools/wasnorm_wordpool.txt	LTP066	ltpFR	3	8	1	VESSEL	1558	n/a	0	1	0.412841796875	0.57763671875	upper	../fonts/amplitud.ttf
1136893	WORD	wordpools/wasnorm_wordpool.txt	LTP066	ltpFR	3	8	1	PUMP	1141	n/a	0	1	0.412841796875	0.57763671875	upper	../fonts/amplitud.ttf
1140810	WORD	wordpools/wasnorm_wordpool.txt	LTP066	ltpFR	3	8	1	CRITIC	410	n/a	1	1	0.412841796875	0.57763671875	upper	../fonts/amplitud.ttf
1144968	WORD	wordpools/wasnorm_wordpool.txt	LTP066	ltpFR	3	8	1	BRUISE	180	n/a	0	1	0.412841796875	0.57763671875	upper	../fonts/amplitud.ttf
1149142	WORD	wordpools/wasnorm_wordpool.txt	LTP066	ltpFR	3	8	1	OINTMENT	974	n/a	0	1	0.412841796875	0.57763671875	upper	../fonts/amplitud.ttf
1153301	WORD	wordpools/wasnorm_wordpool.txt	LTP066	ltpFR	3	8	1	SUIT	1402	n/a	0	1	0.412841796875	0.57763671875	upper	../fonts/amplitud.ttf
1157276	WORD	wordpools/wasnorm_wordpool.txt	LTP066	ltpFR	3	8	1	ORGAN	984	n/a	1	1	0.412841796875	0.57763671875	upper	../fonts/amplitud.ttf
1161200	WORD	wordpools/wasnorm_wordpool.txt	LTP066	ltpFR	3	8	1	VAMPIRE	1547	n/a	1	1	0.412841796875	0.57763671875	upper	../fonts/amplitud.ttf
1167200	REC_START	n/a	LTP066	ltpFR	3	8	n/a	n/a	n/a	n/a	n/a	n/a	n/a	n/a	n/a	n/a
1169539	REC_WORD	wordpools/wasnorm_wordpool.txt	LTP066	ltpFR	3	8	1	ORGAN	984	n/a	1	n/a	n/a	n/a	n/a	n/a
1170447	REC_WORD	wordpools/wasnorm_wordpool.txt	LTP066	ltpFR	3	8	1	VAMPIRE	1547	n/a	1	n/a	n/a	n/a	n/a	n/a
1175875	REC_WORD	wordpools/wasnorm_wordpool.txt	LTP066	ltpFR	3	8	1	NITROGEN	954	n/a	0	n/a	n/a	n/a	n/a	n/a
1181422	REC_WORD	wordpools/wasnorm_wordpool.txt	LTP066	ltpFR	3	8	1	BRANCH	168	n/a	0	n/a	n/a	n/a	n/a	n/a
1183627	REC_WORD	wordpools/wasnorm_wordpool.txt	LTP066	ltpFR	3	8	1	LEAF	808	n/a	n/a	n/a	n/a	n/a	n/a	n/a
1189200	REC_WORD	wordpools/wasnorm_wordpool.txt	LTP066	ltpFR	3	8	1	UNCLE	1536	n/a	1	n/a	n/a	n/a	n/a	n/a
1192522	REC_WORD	wordpools/wasnorm_wordpool.txt	LTP066	ltpFR	3	8	1	CATERPILLAR	259	n/a	1	n/a	n/a	n/a	n/a	n/a
1195590	REC_WORD	wordpools/wasnorm_wordpool.txt	LTP066	ltpFR	3	8	1	FLY	586	n/a	1	n/a	n/a	n/a	n/a	n/a
1200758	REC_WORD	wordpools/wasnorm_wordpool.txt	LTP066	ltpFR	3	8	1	MONSTER	912	n/a	1	n/a	n/a	n/a	n/a	n/a
1204330	REC_WORD	wordpools/wasnorm_wordpool.txt	LTP066	ltpFR	3	8	1	VESSEL	1558	n/a	0	n/a	n/a	n/a	n/a	n/a
1205682	REC_WORD	wordpools/wasnorm_wordpool.txt	LTP066	ltpFR	3	8	1	PUMP	1141	n/a	0	n/a	n/a	n/a	n/a	n/a
1208745	REC_WORD	wordpools/wasnorm_wordpool.txt	LTP066	ltpFR	3	8	1	CRITIC	410	n/a	1	n/a	n/a	n/a	n/a	n/a
1212417	REC_WORD	wordpools/wasnorm_wordpool.txt	LTP066	ltpFR	3	8	1	BRUISE	180	n/a	0	n/a	n/a	n/a	n/a	n/a
1214422	REC_WORD	wordpools/wasnorm_wordpool.txt	LTP066	ltpFR	3	8	1	SUIT	1402	n/a	0	n/a	n/a	n/a	n/a	n/a
1218418	REC_WORD	wordpools/wasnorm_wordpool.txt	LTP066	ltpFR	3	8	1	UNCLE	1536	n/a	1	n/a	n/a	n/a	n/a	n/a
1245860	WORD	wordpools/wasnorm_wordpool.txt	LTP066	ltpFR	3	9	0	HONEY	713	n/a	0	0	0.5869140625	0.422607421875	lower	../fonts/zerothre.ttf
1249918	WORD	wordpools/wasnorm_wordpool.txt	LTP066	ltpFR	3	9	0	DUMP	505	n/a	1	0	0.5869140625	0.422607421875	lower	../fonts/zerothre.ttf
1253851	WORD	wordpools/wasnorm_wordpool.txt	LTP066	ltpFR	3	9	0	TOOTHBRUSH	1482	n/a	0	0	0.5869140625	0.422607421875	lower	../fonts/zerothre.ttf
1257859	WORD	wordpools/wasnorm_wordpool.txt	LTP066	ltpFR	3	9	0	FLANNEL	574	n/a	1	0	0.5869140625	0.422607421875	lower	../fonts/zerothre.ttf
1261685	WORD	wordpools/wasnorm_wordpool.txt	LTP066	ltpFR	3	9	0	NOSE	957	n/a	0	0	0.5869140625	0.422607421875	lower	../fonts/zerothre.ttf
1265752	WORD	wordpools/wasnorm_wordpool.txt	LTP066	ltpFR	3	9	0	LIPSTICK	829	n/a	0	0	0.5869140625	0.422607421875	lower	../fonts/zerothre.ttf
1269585	WORD	wordpools/wasnorm_wordpool.txt	LTP066	ltpFR	3	9	0	ANTENNA	28	n/a	1	0	0.5869140625	0.422607421875	lower	../fonts/zerothre.ttf
1273518	WORD	wordpools/wasnorm_wordpool.txt	LTP066	ltpFR	3	9	0	PILLOW	1069	n/a	1	0	0.5869140625	0.422607421875	lower	../fonts/zerothre.ttf
1277467	WORD	wordpools/wasnorm_wordpool.txt	LTP066	ltpFR	3	9	0	DIVER	476	n/a	1	0	0.5869140625	0.422607421875	lower	../fonts/zerothre.ttf
1281384	WORD	wordpools/wasnorm_wordpool.txt	LTP066	ltpFR	3	9	0	DANDELION	438	n/a	0	0	0.5869140625	0.422607421875	lower	../fonts/zerothre.ttf
1285517	WORD	wordpools/wasnorm_wordpool.txt	LTP066	ltpFR	3	9	0	GUM	672	n/a	0	0	0.5869140625	0.422607421875	lower	../fonts/zerothre.ttf
1289583	WORD	wordpools/wasnorm_wordpool.txt	LTP066	ltpFR	3	9	0	TUB	1514	n/a	1	0	0.5869140625	0.422607421875	lower	../fonts/zerothre.ttf
1293441	WORD	wordpools/wasnorm_wordpool.txt	LTP066	ltpFR	3	9	0	CONDUCTOR	362	n/a	1	0	0.5869140625	0.422607421875	lower	../fonts/zerothre.ttf
1297408	WORD	wordpools/wasnorm_wordpool.txt	LTP066	ltpFR	3	9	0	TROMBONE	1508	n/a	1	0	0.5869140625	0.422607421875	lower	../fonts/zerothre.ttf
1301616	WORD	wordpools/wasnorm_wordpool.txt	LTP066	ltpFR	3	9	0	PALACE	1006	n/a	1	0	0.5869140625	0.422607421875	lower	../fonts/zerothre.ttf
1305740	WORD	wordpools/wasnorm_wordpool.txt	LTP066	ltpFR	3	9	0	KING	777	n/a	1	0	0.5869140625	0.422607421875	lower	../fonts/zerothre.ttf
1311407	REC_START	n/a	LTP066	ltpFR	3	9	n/a	n/a	n/a	n/a	n/a	n/a	n/a	n/a	n/a	n/a
1312839	REC_WORD	wordpools/wasnorm_wordpool.txt	LTP066	ltpFR	3	9	0	TROMBONE	1508	n/a	1	n/a	n/a	n/a	n/a	n/a
1316101	REC_WORD	wordpools/wasnorm_wordpool.txt	LTP066	ltpFR	3	9	0	CONDUCTOR	362	n/a	1	n/a	n/a	n/a	n/a	n/a
1318526	REC_WORD	wordpools/wasnorm_wordpool.txt	LTP066	ltpFR	3	9	0	KING	777	n/a	1	n/a	n/a	n/a	n/a	n/a
1325819	REC_WORD	wordpools/wasnorm_wordpool.txt	LTP066	ltpFR	3	9	0	LIPSTICK	829	n/a	0	n/a	n/a	n/a	n/a	n/a
1327036	REC_WORD	wordpools/wasnorm_wordpool.txt	LTP066	ltpFR	3	9	0	ANTENNA	28	n/a	1	n/a	n/a	n/a	n/a	n/a
1329571	REC_WORD	wordpools/wasnorm_wordpool.txt	LTP066	ltpFR	3	9	0	DIVER	476	n/a	1	n/a	n/a	n/a	n/a	n/a
1330468	REC_WORD	wordpools/wasnorm_wordpool.txt	LTP066	ltpFR	3	9	0	PILLOW	1069	n/a	1	n/a	n/a	n/a	n/a	n/a
1336186	REC_WORD	wordpools/wasnorm_wordpool.txt	LTP066	ltpFR	3	9	0	TOOTHBRUSH	1482	n/a	0	n/a	n/a	n/a	n/a	n/a
1338316	REC_WORD	wordpools/wasnorm_wordpool.txt	LTP066	ltpFR	3	9	0	HONEY	713	n/a	0	n/a	n/a	n/a	n/a	n/a
1352992	REC_WORD	wordpools/wasnorm_wordpool.txt	LTP066	ltpFR	3	9	0	TUB	1514	n/a	1	n/a	n/a	n/a	n/a	n/a
1366851	REC_WORD	wordpools/wasnorm_wordpool.txt	LTP066	ltpFR	3	9	0	ANTENNA	28	n/a	1	n/a	n/a	n/a	n/a	n/a
1369814	REC_WORD	wordpools/wasnorm_wordpool.txt	LTP066	ltpFR	3	9	0	LIPSTICK	829	n/a	0	n/a	n/a	n/a	n/a	n/a
1404090	WORD	wordpools/wasnorm_wordpool.txt	LTP066	ltpFR	3	10	-1	CARNIVAL	245	n/a	-1	1	1.0	1.0	upper	../fonts/Verdana.ttf
1407940	WORD	wordpools/wasnorm_wordpool.txt	LTP066	ltpFR	3	10	-1	PARTY	1018	n/a	-1	1	1.0	1.0	upper	../fonts/Verdana.ttf
1411982	WORD	wordpools/wasnorm_wordpool.txt	LTP066	ltpFR	3	10	-1	BULLET	194	n/a	-1	1	1.0	1.0	upper	../fonts/Verdana.ttf
1415881	WORD	wordpools/wasnorm_wordpool.txt	LTP066	ltpFR	3	10	-1	SEAFOOD	1260	n/a	-1	1	1.0	1.0	upper	../fonts/Verdana.ttf
1419956	WORD	wordpools/wasnorm_wordpool.txt	LTP066	ltpFR	3	10	-1	CARDINAL	244	n/a	-1	1	1.0	1.0	upper	../fonts/Verdana.ttf
1423872	WORD	wordpools/wasnorm_wordpool.txt	LTP066	ltpFR	3	10	-1	PENGUIN	1044	n/a	-1	1	1.0	1.0	upper	../fonts/Verdana.ttf
1427797	WORD	wordpools/wasnorm_wordpool.txt	LTP066	ltpFR	3	10	-1	DOLL	481	n/a	-1	1	1.0	1.0	upper	../fonts/Verdana.ttf
1431880	WORD	wordpools/wasnorm_wordpool.txt	LTP066	ltpFR	3	10	-1	ROOF	1205	n/a	-1	1	1.0	1.0	upper	../fonts/Verdana.ttf
1435871	WORD	wordpools/wasnorm_wordpool.txt	LTP066	ltpFR	3	10	-1	MAILMAN	858	n/a	-1	1	1.0	1.0	upper	../fonts/Verdana.ttf
1439996	WORD	wordpools/wasnorm_wordpool.txt	LTP066	ltpFR	3	10	-1	PUPIL	1143	n/a	-1	1	1.0	1.0	upper	../fonts/Verdana.ttf
1443846	WORD	wordpools/wasnorm_wordpool.txt	LTP066	ltpFR	3	10	-1	OCTOPUS	971	n/a	-1	1	1.0	1.0	upper	../fonts/Verdana.ttf
1447672	WORD	wordpools/wasnorm_wordpool.txt	LTP066	ltpFR	3	10	-1	STAMP	1370	n/a	-1	1	1.0	1.0	upper	../fonts/Verdana.ttf
1451713	WORD	wordpools/wasnorm_wordpool.txt	LTP066	ltpFR	3	10	-1	LIST	830	n/a	-1	1	1.0	1.0	upper	../fonts/Verdana.ttf
1455746	WORD	wordpools/wasnorm_wordpool.txt	LTP066	ltpFR	3	10	-1	STAPLER	1372	n/a	-1	1	1.0	1.0	upper	../fonts/Verdana.ttf
1459886	WORD	wordpools/wasnorm_wordpool.txt	LTP066	ltpFR	3	10	-1	TERMINAL	1450	n/a	-1	1	1.0	1.0	upper	../fonts/Verdana.ttf
1463820	WORD	wordpools/wasnorm_wordpool.txt	LTP066	ltpFR	3	10	-1	TOWN	1491	n/a	-1	1	1.0	1.0	upper	../fonts/Verdana.ttf
1469646	REC_START	n/a	LTP066	ltpFR	3	10	n/a	n/a	n/a	n/a	n/a	n/a	n/a	n/a	n/a	n/a
1471936	REC_WORD	wordpools/wasnorm_wordpool.txt	LTP066	ltpFR	3	10	-1	OCTOPUS	971	n/a	-1	n/a	n/a	n/a	n/a	n/a
1473462	REC_WORD	wordpools/wasnorm_wordpool.txt	LTP066	ltpFR	3	10	-1	LIST	830	n/a	-1	n/a	n/a	n/a	n/a	n/a
1474610	REC_WORD	wordpools/wasnorm_wordpool.txt	LTP066	ltpFR	3	10	-1	TERMINAL	1450	n/a	-1	n/a	n/a	n/a	n/a	n/a
1476276	REC_WORD	wordpools/wasnorm_wordpool.txt	LTP066	ltpFR	3	10	-1	TOWN	1491	n/a	-1	n/a	n/a	n/a	n/a	n/a
1479788	REC_WORD	wordpools/wasnorm_wordpool.txt	LTP066	ltpFR	3	10	-1	CARNIVAL	245	n/a	-1	n/a	n/a	n/a	n/a	n/a
1483095	REC_WORD	wordpools/wasnorm_wordpool.txt	LTP066	ltpFR	3	10	-1	PARTY	1018	n/a	-1	n/a	n/a	n/a	n/a	n/a
1484098	REC_WORD	wordpools/wasnorm_wordpool.txt	LTP066	ltpFR	3	10	-1	BULLET	194	n/a	-1	n/a	n/a	n/a	n/a	n/a
1485430	REC_WORD	wordpools/wasnorm_wordpool.txt	LTP066	ltpFR	3	10	-1	CARDINAL	244	n/a	-1	n/a	n/a	n/a	n/a	n/a
1486572	REC_WORD	wordpools/wasnorm_wordpool.txt	LTP066	ltpFR	3	10	-1	PENGUIN	1044	n/a	-1	n/a	n/a	n/a	n/a	n/a
1488408	REC_WORD	wordpools/wasnorm_wordpool.txt	LTP066	ltpFR	3	10	-1	DOLL	481	n/a	-1	n/a	n/a	n/a	n/a	n/a
1492379	REC_WORD	wordpools/wasnorm_wordpool.txt	LTP066	ltpFR	3	10	-1	ROOF	1205	n/a	-1	n/a	n/a	n/a	n/a	n/a
1493906	REC_WORD	wordpools/wasnorm_wordpool.txt	LTP066	ltpFR	3	10	-1	MAILMAN	858	n/a	-1	n/a	n/a	n/a	n/a	n/a
1495198	REC_WORD	wordpools/wasnorm_wordpool.txt	LTP066	ltpFR	3	10	-1	PUPIL	1143	n/a	-1	n/a	n/a	n/a	n/a	n/a
1552013	WORD	wordpools/wasnorm_wordpool.txt	LTP066	ltpFR	3	11	0	NIECE	952	n/a	1	0	0.5869140625	0.422607421875	lower	../fonts/zerothre.ttf
1556196	WORD	wordpools/wasnorm_wordpool.txt	LTP066	ltpFR	3	11	0	MEAL	882	n/a	1	0	0.5869140625	0.422607421875	lower	../fonts/zerothre.ttf
1560046	WORD	wordpools/wasnorm_wordpool.txt	LTP066	ltpFR	3	11	0	MATCH	878	n/a	1	0	0.5869140625	0.422607421875	lower	../fonts/zerothre.ttf
1564096	WORD	wordpools/wasnorm_wordpool.txt	LTP066	ltpFR	3	11	0	NUCLEUS	961	n/a	0	0	0.5869140625	0.422607421875	lower	../fonts/zerothre.ttf
1568212	WORD	wordpools/wasnorm_wordpool.txt	LTP066	ltpFR	3	11	0	RUNNER	1218	n/a	1	0	0.5869140625	0.422607421875	lower	../fonts/zerothre.ttf
1572178	WORD	wordpools/wasnorm_wordpool.txt	LTP066	ltpFR	3	11	0	RING	1193	n/a	0	0	0.5869140625	0.422607421875	lower	../fonts/zerothre.ttf
1576262	WORD	wordpools/wasnorm_wordpool.txt	LTP066	ltpFR	3	11	0	GEM	629	n/a	0	0	0.5869140625	0.422607421875	lower	../fonts/zerothre.ttf
1580312	WORD	wordpools/wasnorm_wordpool.txt	LTP066	ltpFR	3	11	0	STEP	1377	n/a	0	0	0.5869140625	0.422607421875	lower	../fonts/zerothre.ttf
1584136	WORD	wordpools/wasnorm_wordpool.txt	LTP066	ltpFR	3	11	0	POTATO	1115	n/a	0	0	0.5869140625	0.422607421875	lower	../fonts/zerothre.ttf
1588027	WORD	wordpools/wasnorm_wordpool.txt	LTP066	ltpFR	3	11	0	TORCH	1484	n/a	0	0	0.5869140625	0.422607421875	lower	../fonts/zerothre.ttf
1591944	WORD	wordpools/wasnorm_wordpool.txt	LTP066	ltpFR	3	11	0	PRINTER	1126	n/a	1	0	0.5869140625	0.422607421875	lower	../fonts/zerothre.ttf
1595818	WORD	wordpools/wasnorm_wordpool.txt	LTP066	ltpFR	3	11	0	DYNAMITE	511	n/a	1	0	0.5869140625	0.422607421875	lower	../fonts/zerothre.ttf
1599677	WORD	wordpools/wasnorm_wordpool.txt	LTP066	ltpFR	3	11	0	CYLINDER	432	n/a	1	0	0.5869140625	0.422607421875	lower	../fonts/zerothre.ttf
1603818	WORD	wordpools/wasnorm_wordpool.txt	LTP066	ltpFR	3	11	0	OVAL	990	n/a	0	0	0.5869140625	0.422607421875	lower	../fonts/zerothre.ttf
1607793	WORD	wordpools/wasnorm_wordpool.txt	LTP066	ltpFR	3	11	0	SCENERY	1247	n/a	1	0	0.5869140625	0.422607421875	lower	../fonts/zerothre.ttf
1611800	WORD	wordpools/wasnorm_wordpool.txt	LTP066	ltpFR	3	11	0	EUROPE	541	n/a	1	0	0.5869140625	0.422607421875	lower	../fonts/zerothre.ttf
1617452	REC_START	n/a	LTP066	ltpFR	3	11	n/a	n/a	n/a	n/a	n/a	n/a	n/a	n/a	n/a	n/a
1621533	REC_WORD	wordpools/wasnorm_wordpool.txt	LTP066	ltpFR	3	11	0	OVAL	990	n/a	0	n/a	n/a	n/a	n/a	n/a
1622164	REC_WORD	wordpools/wasnorm_wordpool.txt	LTP066	ltpFR	3	11	0	SCENERY	1247	n/a	1	n/a	n/a	n/a	n/a	n/a
1623154	REC_WORD	wordpools/wasnorm_wordpool.txt	LTP066	ltpFR	3	11	0	EUROPE	541	n/a	1	n/a	n/a	n/a	n/a	n/a
1624995	REC_WORD	wordpools/wasnorm_wordpool.txt	LTP066	ltpFR	3	11	0	NIECE	952	n/a	1	n/a	n/a	n/a	n/a	n/a
1626032	REC_WORD	wordpools/wasnorm_wordpool.txt	LTP066	ltpFR	3	11	0	MEAL	882	n/a	1	n/a	n/a	n/a	n/a	n/a
1627743	REC_WORD	wordpools/wasnorm_wordpool.txt	LTP066	ltpFR	3	11	0	NUCLEUS	961	n/a	0	n/a	n/a	n/a	n/a	n/a
1640494	REC_WORD	wordpools/wasnorm_wordpool.txt	LTP066	ltpFR	3	11	0	RING	1193	n/a	0	n/a	n/a	n/a	n/a	n/a
1642171	REC_WORD	wordpools/wasnorm_wordpool.txt	LTP066	ltpFR	3	11	0	MATCH	878	n/a	1	n/a	n/a	n/a	n/a	n/a
1643767	REC_WORD	wordpools/wasnorm_wordpool.txt	LTP066	ltpFR	3	11	0	RUNNER	1218	n/a	1	n/a	n/a	n/a	n/a	n/a
1646611	REC_WORD	wordpools/wasnorm_wordpool.txt	LTP066	ltpFR	3	11	0	DYNAMITE	511	n/a	1	n/a	n/a	n/a	n/a	n/a
1648820	REC_WORD	wordpools/wasnorm_wordpool.txt	LTP066	ltpFR	3	11	0	CYLINDER	432	n/a	1	n/a	n/a	n/a	n/a	n/a
1652552	REC_WORD	wordpools/wasnorm_wordpool.txt	LTP066	ltpFR	3	11	0	PRINTER	1126	n/a	1	n/a	n/a	n/a	n/a	n/a
1655056	REC_WORD	wordpools/wasnorm_wordpool.txt	LTP066	ltpFR	3	11	0	GEM	629	n/a	0	n/a	n/a	n/a	n/a	n/a
1656398	REC_WORD	wordpools/wasnorm_wordpool.txt	LTP066	ltpFR	3	11	0	STEP	1377	n/a	0	n/a	n/a	n/a	n/a	n/a
1658069	REC_WORD	wordpools/wasnorm_wordpool.txt	LTP066	ltpFR	3	11	0	TORCH	1484	n/a	0	n/a	n/a	n/a	n/a	n/a
1661512	REC_WORD	wordpools/wasnorm_wordpool.txt	LTP066	ltpFR	3	11	0	OVAL	990	n/a	0	n/a	n/a	n/a	n/a	n/a
1698445	WORD	wordpools/wasnorm_wordpool.txt	LTP066	ltpFR	3	12	1	COLOGNE	347	n/a	0	1	0.412841796875	0.57763671875	upper	../fonts/amplitud.ttf
1702370	WORD	wordpools/wasnorm_wordpool.txt	LTP066	ltpFR	3	12	1	SKUNK	1321	n/a	1	1	0.412841796875	0.57763671875	upper	../fonts/amplitud.ttf
1706411	WORD	wordpools/wasnorm_wordpool.txt	LTP066	ltpFR	3	12	1	BUREAU	199	n/a	0	1	0.412841796875	0.57763671875	upper	../fonts/amplitud.ttf
1710436	WORD	wordpools/wasnorm_wordpool.txt	LTP066	ltpFR	3	12	1	PANTHER	1009	n/a	1	1	0.412841796875	0.57763671875	upper	../fonts/amplitud.ttf
1714561	WORD	wordpools/wasnorm_wordpool.txt	LTP066	ltpFR	3	12	1	MONGOOSE	909	n/a	1	1	0.412841796875	0.57763671875	upper	../fonts/amplitud.ttf
1718669	WORD	wordpools/wasnorm_wordpool.txt	LTP066	ltpFR	3	12	1	SKI	1316	n/a	0	1	0.412841796875	0.57763671875	upper	../fonts/amplitud.ttf
1722668	WORD	wordpools/wasnorm_wordpool.txt	LTP066	ltpFR	3	12	1	SUBWAY	1400	n/a	0	1	0.412841796875	0.57763671875	upper	../fonts/amplitud.ttf
1726793	WORD	wordpools/wasnorm_wordpool.txt	LTP066	ltpFR	3	12	1	HOOD	714	n/a	0	1	0.412841796875	0.57763671875	upper	../fonts/amplitud.ttf
1730759	WORD	wordpools/wasnorm_wordpool.txt	LTP066	ltpFR	3	12	1	PISTON	1076	n/a	0	1	0.412841796875	0.57763671875	upper	../fonts/amplitud.ttf
1734751	WORD	wordpools/wasnorm_wordpool.txt	LTP066	ltpFR	3	12	1	SEAL	1262	n/a	1	1	0.412841796875	0.57763671875	upper	../fonts/amplitud.ttf
1738567	WORD	wordpools/wasnorm_wordpool.txt	LTP066	ltpFR	3	12	1	UMPIRE	1535	n/a	1	1	0.412841796875	0.57763671875	upper	../fonts/amplitud.ttf
1742500	WORD	wordpools/wasnorm_wordpool.txt	LTP066	ltpFR	3	12	1	UNIFORM	1539	n/a	0	1	0.412841796875	0.57763671875	upper	../fonts/amplitud.ttf
1746567	WORD	wordpools/wasnorm_wordpool.txt	LTP066	ltpFR	3	12	1	WATERFALL	1595	n/a	0	1	0.412841796875	0.57763671875	upper	../fonts/amplitud.ttf
1750691	WORD	wordpools/wasnorm_wordpool.txt	LTP066	ltpFR	3	12	1	DECK	443	n/a	0	1	0.412841796875	0.57763671875	upper	../fonts/amplitud.ttf
1754741	WORD	wordpools/wasnorm_wordpool.txt	LTP066	ltpFR	3	12	1	ATTIC	56	n/a	0	1	0.412841796875	0.57763671875	upper	../fonts/amplitud.ttf
1758699	WORD	wordpools/wasnorm_wordpool.txt	LTP066	ltpFR	3	12	1	PAIL	1002	n/a	0	1	0.412841796875	0.57763671875	upper	../fonts/amplitud.ttf
1764399	REC_START	n/a	LTP066	ltpFR	3	12	n/a	n/a	n/a	n/a	n/a	n/a	n/a	n/a	n/a	n/a
1767248	REC_WORD	wordpools/wasnorm_wordpool.txt	LTP066	ltpFR	3	12	1	WATERFALL	1595	n/a	0	n/a	n/a	n/a	n/a	n/a
1768223	REC_WORD	wordpools/wasnorm_wordpool.txt	LTP066	ltpFR	3	12	1	DECK	443	n/a	0	n/a	n/a	n/a	n/a	n/a
1769088	REC_WORD	wordpools/wasnorm_wordpool.txt	LTP066	ltpFR	3	12	1	ATTIC	56	n/a	0	n/a	n/a	n/a	n/a	n/a
1769971	REC_WORD	wordpools/wasnorm_wordpool.txt	LTP066	ltpFR	3	12	1	PAIL	1002	n/a	0	n/a	n/a	n/a	n/a	n/a
1777284	REC_WORD	wordpools/wasnorm_wordpool.txt	LTP066	ltpFR	3	12	1	PANTHER	1009	n/a	1	n/a	n/a	n/a	n/a	n/a
1778252	REC_WORD	wordpools/wasnorm_wordpool.txt	LTP066	ltpFR	3	12	1	MONGOOSE	909	n/a	1	n/a	n/a	n/a	n/a	n/a
1789082	REC_WORD	wordpools/wasnorm_wordpool.txt	LTP066	ltpFR	3	12	1	SKI	1316	n/a	0	n/a	n/a	n/a	n/a	n/a
1790030	REC_WORD	wordpools/wasnorm_wordpool.txt	LTP066	ltpFR	3	12	1	SUBWAY	1400	n/a	0	n/a	n/a	n/a	n/a	n/a
1791941	REC_WORD	wordpools/wasnorm_wordpool.txt	LTP066	ltpFR	3	12	1	UMPIRE	1535	n/a	1	n/a	n/a	n/a	n/a	n/a
1797294	REC_WORD	wordpools/wasnorm_wordpool.txt	LTP066	ltpFR	3	12	1	SKUNK	1321	n/a	1	n/a	n/a	n/a	n/a	n/a
1798367	REC_WORD	wordpools/wasnorm_wordpool.txt	LTP066	ltpFR	3	12	1	COLOGNE	347	n/a	0	n/a	n/a	n/a	n/a	n/a
1816934	REC_WORD	wordpools/wasnorm_wordpool.txt	LTP066	ltpFR	3	12	1	BUREAU	199	n/a	0	n/a	n/a	n/a	n/a	n/a
2218048	WORD	wordpools/wasnorm_wordpool.txt	LTP066	ltpFR	3	13	1	WALRUS	1585	n/a	1	1	0.412841796875	0.57763671875	upper	../fonts/amplitud.ttf
2222123	WORD	wordpools/wasnorm_wordpool.txt	LTP066	ltpFR	3	13	1	DRESSER	496	n/a	0	1	0.412841796875	0.57763671875	upper	../fonts/amplitud.ttf
2226274	WORD	wordpools/wasnorm_wordpool.txt	LTP066	ltpFR	3	13	1	COUCH	386	n/a	0	1	0.412841796875	0.57763671875	upper	../fonts/amplitud.ttf
2230273	WORD	wordpools/wasnorm_wordpool.txt	LTP066	ltpFR	3	13	1	SCROLL	1257	n/a	0	1	0.412841796875	0.57763671875	upper	../fonts/amplitud.ttf
2234164	WORD	wordpools/wasnorm_wordpool.txt	LTP066	ltpFR	3	13	0	BRUNETTE	181	n/a	1	0	0.5869140625	0.422607421875	lower	../fonts/zerothre.ttf
2238323	WORD	wordpools/wasnorm_wordpool.txt	LTP066	ltpFR	3	13	0	GOLD	647	n/a	1	0	0.5869140625	0.422607421875	lower	../fonts/zerothre.ttf
2242381	WORD	wordpools/wasnorm_wordpool.txt	LTP066	ltpFR	3	13	0	FLESH	579	n/a	1	0	0.5869140625	0.422607421875	lower	../fonts/zerothre.ttf
2246514	WORD	wordpools/wasnorm_wordpool.txt	LTP066	ltpFR	3	13	0	CANOE	233	n/a	1	0	0.5869140625	0.422607421875	lower	../fonts/zerothre.ttf
2250580	WORD	wordpools/wasnorm_wordpool.txt	LTP066	ltpFR	3	13	0	VOLLEYBALL	1576	n/a	1	0	0.5869140625	0.422607421875	lower	../fonts/zerothre.ttf
2254638	WORD	wordpools/wasnorm_wordpool.txt	LTP066	ltpFR	3	13	1	ARENA	37	n/a	0	1	0.412841796875	0.57763671875	upper	../fonts/amplitud.ttf
2258546	WORD	wordpools/wasnorm_wordpool.txt	LTP066	ltpFR	3	13	1	BUNNY	198	n/a	1	1	0.412841796875	0.57763671875	upper	../fonts/amplitud.ttf
2262521	WORD	wordpools/wasnorm_wordpool.txt	LTP066	ltpFR	3	13	1	CARPET	247	n/a	0	1	0.412841796875	0.57763671875	upper	../fonts/amplitud.ttf
2266679	WORD	wordpools/wasnorm_wordpool.txt	LTP066	ltpFR	3	13	1	FLOOR	581	n/a	0	1	0.412841796875	0.57763671875	upper	../fonts/amplitud.ttf
2270537	WORD	wordpools/wasnorm_wordpool.txt	LTP066	ltpFR	3	13	0	SEAGULL	1261	n/a	1	0	0.5869140625	0.422607421875	lower	../fonts/zerothre.ttf
2274420	WORD	wordpools/wasnorm_wordpool.txt	LTP066	ltpFR	3	13	0	HARE	688	n/a	1	0	0.5869140625	0.422607421875	lower	../fonts/zerothre.ttf
2278428	WORD	wordpools/wasnorm_wordpool.txt	LTP066	ltpFR	3	13	0	FARM	552	n/a	1	0	0.5869140625	0.422607421875	lower	../fonts/zerothre.ttf
2284328	REC_START	n/a	LTP066	ltpFR	3	13	n/a	n/a	n/a	n/a	n/a	n/a	n/a	n/a	n/a	n/a
2285216	REC_WORD	wordpools/wasnorm_wordpool.txt	LTP066	ltpFR	3	13	0	SEAGULL	1261	n/a	1	n/a	n/a	n/a	n/a	n/a
2286423	REC_WORD	wordpools/wasnorm_wordpool.txt	LTP066	ltpFR	3	13	0	HARE	688	n/a	1	n/a	n/a	n/a	n/a	n/a
2287246	REC_WORD	wordpools/wasnorm_wordpool.txt	LTP066	ltpFR	3	13	0	FARM	552	n/a	1	n/a	n/a	n/a	n/a	n/a
2290244	REC_WORD	wordpools/wasnorm_wordpool.txt	LTP066	ltpFR	3	13	1	WALRUS	1585	n/a	1	n/a	n/a	n/a	n/a	n/a
2294435	REC_WORD	wordpools/wasnorm_wordpool.txt	LTP066	ltpFR	3	13	1	DRESSER	496	n/a	0	n/a	n/a	n/a	n/a	n/a
2295507	REC_WORD	wordpools/wasnorm_wordpool.txt	LTP066	ltpFR	3	13	1	COUCH	386	n/a	0	n/a	n/a	n/a	n/a	n/a
2299863	REC_WORD	wordpools/wasnorm_wordpool.txt	LTP066	ltpFR	3	13	0	BRUNETTE	181	n/a	1	n/a	n/a	n/a	n/a	n/a
2301943	REC_WORD	wordpools/wasnorm_wordpool.txt	LTP066	ltpFR	3	13	0	CANOE	233	n/a	1	n/a	n/a	n/a	n/a	n/a
2303823	REC_WORD	wordpools/wasnorm_wordpool.txt	LTP066	ltpFR	3	13	0	GOLD	647	n/a	1	n/a	n/a	n/a	n/a	n/a
2313377	REC_WORD	wordpools/wasnorm_wordpool.txt	LTP066	ltpFR	3	13	n/a	[???]	-1	n/a	n/a	n/a	n/a	n/a	n/a	n/a
2362829	WORD	wordpools/wasnorm_wordpool.txt	LTP066	ltpFR	3	14	-1	DOUGH	489	n/a	-1	1	1.0	1.0	upper	../fonts/Verdana.ttf
2366804	WORD	wordpools/wasnorm_wordpool.txt	LTP066	ltpFR	3	14	-1	CENT	270	n/a	-1	1	1.0	1.0	upper	../fonts/Verdana.ttf
2370804	WORD	wordpools/wasnorm_wordpool.txt	LTP066	ltpFR	3	14	-1	AUTOMOBILE	62	n/a	-1	1	1.0	1.0	upper	../fonts/Verdana.ttf
2374820	WORD	wordpools/wasnorm_wordpool.txt	LTP066	ltpFR	3	14	-1	BALLOON	75	n/a	-1	1	1.0	1.0	upper	../fonts/Verdana.ttf
2378737	WORD	wordpools/wasnorm_wordpool.txt	LTP066	ltpFR	3	14	-1	PIG	1064	n/a	-1	1	1.0	1.0	upper	../fonts/Verdana.ttf
2382554	WORD	wordpools/wasnorm_wordpool.txt	LTP066	ltpFR	3	14	-1	TEENAGER	1444	n/a	-1	1	1.0	1.0	upper	../fonts/Verdana.ttf
2386620	WORD	wordpools/wasnorm_wordpool.txt	LTP066	ltpFR	3	14	-1	PORCUPINE	1107	n/a	-1	1	1.0	1.0	upper	../fonts/Verdana.ttf
2390453	WORD	wordpools/wasnorm_wordpool.txt	LTP066	ltpFR	3	14	-1	BEAN	105	n/a	-1	1	1.0	1.0	upper	../fonts/Verdana.ttf
2394553	WORD	wordpools/wasnorm_wordpool.txt	LTP066	ltpFR	3	14	-1	EAR	513	n/a	-1	1	1.0	1.0	upper	../fonts/Verdana.ttf
2398386	WORD	wordpools/wasnorm_wordpool.txt	LTP066	ltpFR	3	14	-1	STREAM	1392	n/a	-1	1	1.0	1.0	upper	../fonts/Verdana.ttf
2402411	WORD	wordpools/wasnorm_wordpool.txt	LTP066	ltpFR	3	14	-1	VEHICLE	1553	n/a	-1	1	1.0	1.0	upper	../fonts/Verdana.ttf
2406427	WORD	wordpools/wasnorm_wordpool.txt	LTP066	ltpFR	3	14	-1	DENIM	446	n/a	-1	1	1.0	1.0	upper	../fonts/Verdana.ttf
2410302	WORD	wordpools/wasnorm_wordpool.txt	LTP066	ltpFR	3	14	-1	BLOUSE	139	n/a	-1	1	1.0	1.0	upper	../fonts/Verdana.ttf
2414201	WORD	wordpools/wasnorm_wordpool.txt	LTP066	ltpFR	3	14	-1	NAVIGATOR	938	n/a	-1	1	1.0	1.0	upper	../fonts/Verdana.ttf
2418125	WORD	wordpools/wasnorm_wordpool.txt	LTP066	ltpFR	3	14	-1	STEWARDESS	1381	n/a	-1	1	1.0	1.0	upper	../fonts/Verdana.ttf
2421992	WORD	wordpools/wasnorm_wordpool.txt	LTP066	ltpFR	3	14	-1	REEF	1177	n/a	-1	1	1.0	1.0	upper	../fonts/Verdana.ttf
2427735	REC_START	n/a	LTP066	ltpFR	3	14	n/a	n/a	n/a	n/a	n/a	n/a	n/a	n/a	n/a	n/a
2429890	REC_WORD	wordpools/wasnorm_wordpool.txt	LTP066	ltpFR	3	14	-1	NAVIGATOR	938	n/a	-1	n/a	n/a	n/a	n/a	n/a
2430864	REC_WORD	wordpools/wasnorm_wordpool.txt	LTP066	ltpFR	3	14	-1	REEF	1177	n/a	-1	n/a	n/a	n/a	n/a	n/a
2435318	REC_WORD	wordpools/wasnorm_wordpool.txt	LTP066	ltpFR	3	14	-1	DOUGH	489	n/a	-1	n/a	n/a	n/a	n/a	n/a
2436734	REC_WORD	wordpools/wasnorm_wordpool.txt	LTP066	ltpFR	3	14	-1	CENT	270	n/a	-1	n/a	n/a	n/a	n/a	n/a
2439089	REC_WORD	wordpools/wasnorm_wordpool.txt	LTP066	ltpFR	3	14	-1	VEHICLE	1553	n/a	-1	n/a	n/a	n/a	n/a	n/a
2443833	REC_WORD	wordpools/wasnorm_wordpool.txt	LTP066	ltpFR	3	14	-1	BALLOON	75	n/a	-1	n/a	n/a	n/a	n/a	n/a
2452858	REC_WORD	wordpools/wasnorm_wordpool.txt	LTP066	ltpFR	3	14	-1	BEAN	105	n/a	-1	n/a	n/a	n/a	n/a	n/a
2457288	REC_WORD	wordpools/wasnorm_wordpool.txt	LTP066	ltpFR	3	14	-1	STREAM	1392	n/a	-1	n/a	n/a	n/a	n/a	n/a
2462800	REC_WORD	wordpools/wasnorm_wordpool.txt	LTP066	ltpFR	3	14	-1	AUTOMOBILE	62	n/a	-1	n/a	n/a	n/a	n/a	n/a
2470238	REC_WORD	wordpools/wasnorm_wordpool.txt	LTP066	ltpFR	3	14	-1	DENIM	446	n/a	-1	n/a	n/a	n/a	n/a	n/a
2507395	WORD	wordpools/wasnorm_wordpool.txt	LTP066	ltpFR	3	15	1	SHRIMP	1297	n/a	1	1	0.412841796875	0.57763671875	upper	../fonts/amplitud.ttf
2511545	WORD	wordpools/wasnorm_wordpool.txt	LTP066	ltpFR	3	15	1	SUPPER	1411	n/a	0	1	0.412841796875	0.57763671875	upper	../fonts/amplitud.ttf
2515511	WORD	wordpools/wasnorm_wordpool.txt	LTP066	ltpFR	3	15	1	CUPBOARD	425	n/a	0	1	0.412841796875	0.57763671875	upper	../fonts/amplitud.ttf
2519661	WORD	wordpools/wasnorm_wordpool.txt	LTP066	ltpFR	3	15	1	FIN	566	n/a	0	1	0.412841796875	0.57763671875	upper	../fonts/amplitud.ttf
2523519	WORD	wordpools/wasnorm_wordpool.txt	LTP066	ltpFR	3	15	0	FISH	571	n/a	1	0	0.5869140625	0.422607421875	lower	../fonts/zerothre.ttf
2527668	WORD	wordpools/wasnorm_wordpool.txt	LTP066	ltpFR	3	15	0	GOVERNOR	651	n/a	1	0	0.5869140625	0.422607421875	lower	../fonts/zerothre.ttf
2531510	WORD	wordpools/wasnorm_wordpool.txt	LTP066	ltpFR	3	15	0	JET	756	n/a	1	0	0.5869140625	0.422607421875	lower	../fonts/zerothre.ttf
2535634	WORD	wordpools/wasnorm_wordpool.txt	LTP066	ltpFR	3	15	0	UNIVERSE	1540	n/a	1	0	0.5869140625	0.422607421875	lower	../fonts/zerothre.ttf
2539825	WORD	wordpools/wasnorm_wordpool.txt	LTP066	ltpFR	3	15	1	SALMON	1227	n/a	1	1	0.412841796875	0.57763671875	upper	../fonts/amplitud.ttf
2543933	WORD	wordpools/wasnorm_wordpool.txt	LTP066	ltpFR	3	15	1	CHAMBER	277	n/a	0	1	0.412841796875	0.57763671875	upper	../fonts/amplitud.ttf
2547966	WORD	wordpools/wasnorm_wordpool.txt	LTP066	ltpFR	3	15	0	CITY	314	n/a	1	0	0.5869140625	0.422607421875	lower	../fonts/zerothre.ttf
2551924	WORD	wordpools/wasnorm_wordpool.txt	LTP066	ltpFR	3	15	0	SURGEON	1413	n/a	1	0	0.5869140625	0.422607421875	lower	../fonts/zerothre.ttf
2555890	WORD	wordpools/wasnorm_wordpool.txt	LTP066	ltpFR	3	15	0	MULE	931	n/a	1	0	0.5869140625	0.422607421875	lower	../fonts/zerothre.ttf
2559724	WORD	wordpools/wasnorm_wordpool.txt	LTP066	ltpFR	3	15	0	CART	250	n/a	1	0	0.5869140625	0.422607421875	lower	../fonts/zerothre.ttf
2563691	WORD	wordpools/wasnorm_wordpool.txt	LTP066	ltpFR	3	15	1	MICROPHONE	890	n/a	0	1	0.412841796875	0.57763671875	upper	../fonts/amplitud.ttf
2567591	WORD	wordpools/wasnorm_wordpool.txt	LTP066	ltpFR	3	15	1	STOOL	1386	n/a	0	1	0.412841796875	0.57763671875	upper	../fonts/amplitud.ttf
2573499	REC_START	n/a	LTP066	ltpFR	3	15	n/a	n/a	n/a	n/a	n/a	n/a	n/a	n/a	n/a	n/a
2581106	REC_WORD	wordpools/wasnorm_wordpool.txt	LTP066	ltpFR	3	15	1	SHRIMP	1297	n/a	1	n/a	n/a	n/a	n/a	n/a
2583172	REC_WORD	wordpools/wasnorm_wordpool.txt	LTP066	ltpFR	3	15	1	SUPPER	1411	n/a	0	n/a	n/a	n/a	n/a	n/a
2585212	REC_WORD	wordpools/wasnorm_wordpool.txt	LTP066	ltpFR	3	15	1	CUPBOARD	425	n/a	0	n/a	n/a	n/a	n/a	n/a
2586504	REC_WORD	wordpools/wasnorm_wordpool.txt	LTP066	ltpFR	3	15	1	FIN	566	n/a	0	n/a	n/a	n/a	n/a	n/a
2598816	REC_WORD	wordpools/wasnorm_wordpool.txt	LTP066	ltpFR	3	15	0	GOVERNOR	651	n/a	1	n/a	n/a	n/a	n/a	n/a
2601804	REC_WORD	wordpools/wasnorm_wordpool.txt	LTP066	ltpFR	3	15	0	JET	756	n/a	1	n/a	n/a	n/a	n/a	n/a
2604818	REC_WORD	wordpools/wasnorm_wordpool.txt	LTP066	ltpFR	3	15	1	CHAMBER	277	n/a	0	n/a	n/a	n/a	n/a	n/a
2606199	REC_WORD	wordpools/wasnorm_wordpool.txt	LTP066	ltpFR	3	15	1	SALMON	1227	n/a	1	n/a	n/a	n/a	n/a	n/a
2614905	REC_WORD	wordpools/wasnorm_wordpool.txt	LTP066	ltpFR	3	15	1	STOOL	1386	n/a	0	n/a	n/a	n/a	n/a	n/a
2653776	WORD	wordpools/wasnorm_wordpool.txt	LTP066	ltpFR	3	16	-1	CANARY	227	n/a	-1	1	1.0	1.0	upper	../fonts/Verdana.ttf
2657908	WORD	wordpools/wasnorm_wordpool.txt	LTP066	ltpFR	3	16	-1	CHEDDAR	286	n/a	-1	1	1.0	1.0	upper	../fonts/Verdana.ttf
2661891	WORD	wordpools/wasnorm_wordpool.txt	LTP066	ltpFR	3	16	-1	SUPERMARKET	1409	n/a	-1	1	1.0	1.0	upper	../fonts/Verdana.ttf
2665891	WORD	wordpools/wasnorm_wordpool.txt	LTP066	ltpFR	3	16	-1	GROCERY	664	n/a	-1	1	1.0	1.0	upper	../fonts/Verdana.ttf
2669733	WORD	wordpools/wasnorm_wordpool.txt	LTP066	ltpFR	3	16	-1	VEGETABLE	1552	n/a	-1	1	1.0	1.0	upper	../fonts/Verdana.ttf
2673865	WORD	wordpools/wasnorm_wordpool.txt	LTP066	ltpFR	3	16	-1	SPARROW	1347	n/a	-1	1	1.0	1.0	upper	../fonts/Verdana.ttf
2677733	WORD	wordpools/wasnorm_wordpool.txt	LTP066	ltpFR	3	16	-1	SWORD	1423	n/a	-1	1	1.0	1.0	upper	../fonts/Verdana.ttf
2681624	WORD	wordpools/wasnorm_wordpool.txt	LTP066	ltpFR	3	16	-1	OLIVE	975	n/a	-1	1	1.0	1.0	upper	../fonts/Verdana.ttf
2685823	WORD	wordpools/wasnorm_wordpool.txt	LTP066	ltpFR	3	16	-1	CHAUFFEUR	283	n/a	-1	1	1.0	1.0	upper	../fonts/Verdana.ttf
2689906	WORD	wordpools/wasnorm_wordpool.txt	LTP066	ltpFR	3	16	-1	UTENSIL	1542	n/a	-1	1	1.0	1.0	upper	../fonts/Verdana.ttf
2694080	WORD	wordpools/wasnorm_wordpool.txt	LTP066	ltpFR	3	16	-1	TOMBSTONE	1478	n/a	-1	1	1.0	1.0	upper	../fonts/Verdana.ttf
2698255	WORD	wordpools/wasnorm_wordpool.txt	LTP066	ltpFR	3	16	-1	RANCH	1166	n/a	-1	1	1.0	1.0	upper	../fonts/Verdana.ttf
2702080	WORD	wordpools/wasnorm_wordpool.txt	LTP066	ltpFR	3	16	-1	WAGON	1578	n/a	-1	1	1.0	1.0	upper	../fonts/Verdana.ttf
2706188	WORD	wordpools/wasnorm_wordpool.txt	LTP066	ltpFR	3	16	-1	EGG	518	n/a	-1	1	1.0	1.0	upper	../fonts/Verdana.ttf
2710313	WORD	wordpools/wasnorm_wordpool.txt	LTP066	ltpFR	3	16	-1	TONGUE	1479	n/a	-1	1	1.0	1.0	upper	../fonts/Verdana.ttf
2714463	WORD	wordpools/wasnorm_wordpool.txt	LTP066	ltpFR	3	16	-1	STADIUM	1364	n/a	-1	1	1.0	1.0	upper	../fonts/Verdana.ttf
2720422	REC_START	n/a	LTP066	ltpFR	3	16	n/a	n/a	n/a	n/a	n/a	n/a	n/a	n/a	n/a	n/a
2721749	REC_WORD	wordpools/wasnorm_wordpool.txt	LTP066	ltpFR	3	16	-1	RANCH	1166	n/a	-1	n/a	n/a	n/a	n/a	n/a
2722806	REC_WORD	wordpools/wasnorm_wordpool.txt	LTP066	ltpFR	3	16	-1	WAGON	1578	n/a	-1	n/a	n/a	n/a	n/a	n/a
2723814	REC_WORD	wordpools/wasnorm_wordpool.txt	LTP066	ltpFR	3	16	-1	EGG	518	n/a	-1	n/a	n/a	n/a	n/a	n/a
2724662	REC_WORD	wordpools/wasnorm_wordpool.txt	LTP066	ltpFR	3	16	-1	TONGUE	1479	n/a	-1	n/a	n/a	n/a	n/a	n/a
2726328	REC_WORD	wordpools/wasnorm_wordpool.txt	LTP066	ltpFR	3	16	-1	CANARY	227	n/a	-1	n/a	n/a	n/a	n/a	n/a
2734385	REC_WORD	wordpools/wasnorm_wordpool.txt	LTP066	ltpFR	3	16	-1	SUPERMARKET	1409	n/a	-1	n/a	n/a	n/a	n/a	n/a
2735458	REC_WORD	wordpools/wasnorm_wordpool.txt	LTP066	ltpFR	3	16	-1	GROCERY	664	n/a	-1	n/a	n/a	n/a	n/a	n/a
2737478	REC_WORD	wordpools/wasnorm_wordpool.txt	LTP066	ltpFR	3	16	-1	CHEDDAR	286	n/a	-1	n/a	n/a	n/a	n/a	n/a
2740326	REC_WORD	wordpools/wasnorm_wordpool.txt	LTP066	ltpFR	3	16	-1	OLIVE	975	n/a	-1	n/a	n/a	n/a	n/a	n/a
2741533	REC_WORD	wordpools/wasnorm_wordpool.txt	LTP066	ltpFR	3	16	-1	SPARROW	1347	n/a	-1	n/a	n/a	n/a	n/a	n/a
2743065	REC_WORD	wordpools/wasnorm_wordpool.txt	LTP066	ltpFR	3	16	-1	SWORD	1423	n/a	-1	n/a	n/a	n/a	n/a	n/a
2754260	REC_WORD	wordpools/wasnorm_wordpool.txt	LTP066	ltpFR	3	16	-1	CHAUFFEUR	283	n/a	-1	n/a	n/a	n/a	n/a	n/a
2807515	REC_START	n/a	LTP066	ltpFR	3	n/a	n/a	n/a	n/a	n/a	n/a	n/a	n/a	n/a	n/a	n/a
2809611	FFR_REC_WORD	wordpools/wasnorm_wordpool.txt	LTP066	ltpFR	3	n/a	-1	CANARY	227	n/a	-1	n/a	n/a	n/a	n/a	n/a
2812561	FFR_REC_WORD	wordpools/wasnorm_wordpool.txt	LTP066	ltpFR	3	n/a	-1	CHAUFFEUR	283	n/a	-1	n/a	n/a	n/a	n/a	n/a
2814591	FFR_REC_WORD	wordpools/wasnorm_wordpool.txt	LTP066	ltpFR	3	n/a	-1	SPARROW	1347	n/a	-1	n/a	n/a	n/a	n/a	n/a
2815566	FFR_REC_WORD	wordpools/wasnorm_wordpool.txt	LTP066	ltpFR	3	n/a	-1	SWORD	1423	n/a	-1	n/a	n/a	n/a	n/a	n/a
2816661	FFR_REC_WORD	wordpools/wasnorm_wordpool.txt	LTP066	ltpFR	3	n/a	-1	OLIVE	975	n/a	-1	n/a	n/a	n/a	n/a	n/a
2818356	FFR_REC_WORD	wordpools/wasnorm_wordpool.txt	LTP066	ltpFR	3	n/a	-1	GROCERY	664	n/a	-1	n/a	n/a	n/a	n/a	n/a
2818952	FFR_REC_WORD	wordpools/wasnorm_wordpool.txt	LTP066	ltpFR	3	n/a	-1	SUPERMARKET	1409	n/a	-1	n/a	n/a	n/a	n/a	n/a
2820513	FFR_REC_WORD	wordpools/wasnorm_wordpool.txt	LTP066	ltpFR	3	n/a	-1	RANCH	1166	n/a	-1	n/a	n/a	n/a	n/a	n/a
2821220	FFR_REC_WORD	wordpools/wasnorm_wordpool.txt	LTP066	ltpFR	3	n/a	-1	STADIUM	1364	n/a	-1	n/a	n/a	n/a	n/a	n/a
2822906	FFR_REC_WORD	wordpools/wasnorm_wordpool.txt	LTP066	ltpFR	3	n/a	0	FARM	552	n/a	1	n/a	n/a	n/a	n/a	n/a
2823724	FFR_REC_WORD	wordpools/wasnorm_wordpool.txt	LTP066	ltpFR	3	n/a	-1	EGG	518	n/a	-1	n/a	n/a	n/a	n/a	n/a
2830933	FFR_REC_WORD	wordpools/wasnorm_wordpool.txt	LTP066	ltpFR	3	n/a	1	VAMPIRE	1547	n/a	1	n/a	n/a	n/a	n/a	n/a
2832093	FFR_REC_WORD	wordpools/wasnorm_wordpool.txt	LTP066	ltpFR	3	n/a	1	MONSTER	912	n/a	1	n/a	n/a	n/a	n/a	n/a
2833963	FFR_REC_WORD	wordpools/wasnorm_wordpool.txt	LTP066	ltpFR	3	n/a	n/a	BLOOD	-1	n/a	n/a	n/a	n/a	n/a	n/a	n/a
2835603	FFR_REC_WORD	wordpools/wasnorm_wordpool.txt	LTP066	ltpFR	3	n/a	1	CRITIC	410	n/a	1	n/a	n/a	n/a	n/a	n/a
2839017	FFR_REC_WORD	wordpools/wasnorm_wordpool.txt	LTP066	ltpFR	3	n/a	1	VESSEL	1558	n/a	0	n/a	n/a	n/a	n/a	n/a
2840032	FFR_REC_WORD	wordpools/wasnorm_wordpool.txt	LTP066	ltpFR	3	n/a	1	PUMP	1141	n/a	0	n/a	n/a	n/a	n/a	n/a
2842631	FFR_REC_WORD	wordpools/wasnorm_wordpool.txt	LTP066	ltpFR	3	n/a	1	CATERPILLAR	259	n/a	1	n/a	n/a	n/a	n/a	n/a
2843436	FFR_REC_WORD	wordpools/wasnorm_wordpool.txt	LTP066	ltpFR	3	n/a	1	FLY	586	n/a	1	n/a	n/a	n/a	n/a	n/a
2845686	FFR_REC_WORD	wordpools/wasnorm_wordpool.txt	LTP066	ltpFR	3	n/a	1	NITROGEN	954	n/a	0	n/a	n/a	n/a	n/a	n/a
2847131	FFR_REC_WORD	wordpools/wasnorm_wordpool.txt	LTP066	ltpFR	3	n/a	0	DIVER	476	n/a	1	n/a	n/a	n/a	n/a	n/a
2850960	FFR_REC_WORD	wordpools/wasnorm_wordpool.txt	LTP066	ltpFR	3	n/a	0	PILLOW	1069	n/a	1	n/a	n/a	n/a	n/a	n/a
2855781	FFR_REC_WORD	wordpools/wasnorm_wordpool.txt	LTP066	ltpFR	3	n/a	1	CUPBOARD	425	n/a	0	n/a	n/a	n/a	n/a	n/a
2856431	FFR_REC_WORD	wordpools/wasnorm_wordpool.txt	LTP066	ltpFR	3	n/a	1	SHRIMP	1297	n/a	1	n/a	n/a	n/a	n/a	n/a
2858002	FFR_REC_WORD	wordpools/wasnorm_wordpool.txt	LTP066	ltpFR	3	n/a	1	SUPPER	1411	n/a	0	n/a	n/a	n/a	n/a	n/a
2860072	FFR_REC_WORD	wordpools/wasnorm_wordpool.txt	LTP066	ltpFR	3	n/a	1	FIN	566	n/a	0	n/a	n/a	n/a	n/a	n/a
2868245	FFR_REC_WORD	wordpools/wasnorm_wordpool.txt	LTP066	ltpFR	3	n/a	1	BUS	201	n/a	0	n/a	n/a	n/a	n/a	n/a
2870901	FFR_REC_WORD	wordpools/wasnorm_wordpool.txt	LTP066	ltpFR	3	n/a	1	CHIMNEY	301	n/a	0	n/a	n/a	n/a	n/a	n/a
2871866	FFR_REC_WORD	wordpools/wasnorm_wordpool.txt	LTP066	ltpFR	3	n/a	1	CLOWN	330	n/a	1	n/a	n/a	n/a	n/a	n/a
2872731	FFR_REC_WORD	wordpools/wasnorm_wordpool.txt	LTP066	ltpFR	3	n/a	1	STRANGER	1389	n/a	1	n/a	n/a	n/a	n/a	n/a
2877370	FFR_REC_WORD	wordpools/wasnorm_wordpool.txt	LTP066	ltpFR	3	n/a	1	CAFE	216	n/a	0	n/a	n/a	n/a	n/a	n/a
2889281	FFR_REC_WORD	wordpools/wasnorm_wordpool.txt	LTP066	ltpFR	3	n/a	n/a	BILL	126	n/a	n/a	n/a	n/a	n/a	n/a	n/a
2893609	FFR_REC_WORD	wordpools/wasnorm_wordpool.txt	LTP066	ltpFR	3	n/a	-1	STREAM	1392	n/a	-1	n/a	n/a	n/a	n/a	n/a
2895390	FFR_REC_WORD	wordpools/wasnorm_wordpool.txt	LTP066	ltpFR	3	n/a	-1	NAVIGATOR	938	n/a	-1	n/a	n/a	n/a	n/a	n/a
2905515	FFR_REC_WORD	wordpools/wasnorm_wordpool.txt	LTP066	ltpFR	3	n/a	-1	DENIM	446	n/a	-1	n/a	n/a	n/a	n/a	n/a
2914917	FFR_REC_WORD	wordpools/wasnorm_wordpool.txt	LTP066	ltpFR	3	n/a	1	CARROT	249	n/a	1	n/a	n/a	n/a	n/a	n/a
2917505	FFR_REC_WORD	wordpools/wasnorm_wordpool.txt	LTP066	ltpFR	3	n/a	1	BRANCH	168	n/a	0	n/a	n/a	n/a	n/a	n/a
2918659	FFR_REC_WORD	wordpools/wasnorm_wordpool.txt	LTP066	ltpFR	3	n/a	1	LEAF	808	n/a	n/a	n/a	n/a	n/a	n/a	n/a
2928810	FFR_REC_WORD	wordpools/wasnorm_wordpool.txt	LTP066	ltpFR	3	n/a	-1	TONGUE	1479	n/a	-1	n/a	n/a	n/a	n/a	n/a
2930876	FFR_REC_WORD	wordpools/wasnorm_wordpool.txt	LTP066	ltpFR	3	n/a	1	ORGAN	984	n/a	1	n/a	n/a	n/a	n/a	n/a
2935176	FFR_REC_WORD	wordpools/wasnorm_wordpool.txt	LTP066	ltpFR	3	n/a	0	FLESH	579	n/a	1	n/a	n/a	n/a	n/a	n/a
2944841	FFR_REC_WORD	wordpools/wasnorm_wordpool.txt	LTP066	ltpFR	3	n/a	1	DRAGON	492	n/a	1	n/a	n/a	n/a	n/a	n/a
2946848	FFR_REC_WORD	wordpools/wasnorm_wordpool.txt	LTP066	ltpFR	3	n/a	1	MONSTER	912	n/a	1	n/a	n/a	n/a	n/a	n/a
2950226	FFR_REC_WORD	wordpools/wasnorm_wordpool.txt	LTP066	ltpFR	3	n/a	0	NUCLEUS	961	n/a	0	n/a	n/a	n/a	n/a	n/a
2951699	FFR_REC_WORD	wordpools/wasnorm_wordpool.txt	LTP066	ltpFR	3	n/a	0	RING	1193	n/a	0	n/a	n/a	n/a	n/a	n/a
2954237	FFR_REC_WORD	wordpools/wasnorm_wordpool.txt	LTP066	ltpFR	3	n/a	n/a	JEM	-1	n/a	n/a	n/a	n/a	n/a	n/a	n/a
2956702	FFR_REC_WORD	wordpools/wasnorm_wordpool.txt	LTP066	ltpFR	3	n/a	0	NIECE	952	n/a	1	n/a	n/a	n/a	n/a	n/a
2957557	FFR_REC_WORD	wordpools/wasnorm_wordpool.txt	LTP066	ltpFR	3	n/a	0	MEAL	882	n/a	1	n/a	n/a	n/a	n/a	n/a
2976003	FFR_REC_WORD	wordpools/wasnorm_wordpool.txt	LTP066	ltpFR	3	n/a	-1	COBRA	336	n/a	-1	n/a	n/a	n/a	n/a	n/a
2980030	FFR_REC_WORD	wordpools/wasnorm_wordpool.txt	LTP066	ltpFR	3	n/a	-1	REPTILE	1185	n/a	-1	n/a	n/a	n/a	n/a	n/a
2981795	FFR_REC_WORD	wordpools/wasnorm_wordpool.txt	LTP066	ltpFR	3	n/a	-1	OZONE	996	n/a	-1	n/a	n/a	n/a	n/a	n/a
2982500	FFR_REC_WORD	wordpools/wasnorm_wordpool.txt	LTP066	ltpFR	3	n/a	-1	SLOPE	1328	n/a	-1	n/a	n/a	n/a	n/a	n/a
2986450	FFR_REC_WORD	wordpools/wasnorm_wordpool.txt	LTP066	ltpFR	3	n/a	-1	SHOE	1288	n/a	-1	n/a	n/a	n/a	n/a	n/a
2987250	FFR_REC_WORD	wordpools/wasnorm_wordpool.txt	LTP066	ltpFR	3	n/a	-1	LACE	792	n/a	-1	n/a	n/a	n/a	n/a	n/a
2987912	FFR_REC_WORD	wordpools/wasnorm_wordpool.txt	LTP066	ltpFR	3	n/a	-1	BANDAGE	79	n/a	-1	n/a	n/a	n/a	n/a	n/a
2988822	FFR_REC_WORD	wordpools/wasnorm_wordpool.txt	LTP066	ltpFR	3	n/a	-1	NIGHTGOWN	953	n/a	-1	n/a	n/a	n/a	n/a	n/a
2991649	FFR_REC_WORD	wordpools/wasnorm_wordpool.txt	LTP066	ltpFR	3	n/a	-1	BLANKET	135	n/a	-1	n/a	n/a	n/a	n/a	n/a
2993064	FFR_REC_WORD	wordpools/wasnorm_wordpool.txt	LTP066	ltpFR	3	n/a	1	DECK	443	n/a	0	n/a	n/a	n/a	n/a	n/a
2994532	FFR_REC_WORD	wordpools/wasnorm_wordpool.txt	LTP066	ltpFR	3	n/a	0	STEP	1377	n/a	0	n/a	n/a	n/a	n/a	n/a
2996237	FFR_REC_WORD	wordpools/wasnorm_wordpool.txt	LTP066	ltpFR	3	n/a	1	WATERFALL	1595	n/a	0	n/a	n/a	n/a	n/a	n/a
2997867	FFR_REC_WORD	wordpools/wasnorm_wordpool.txt	LTP066	ltpFR	3	n/a	1	ATTIC	56	n/a	0	n/a	n/a	n/a	n/a	n/a
3000062	FFR_REC_WORD	wordpools/wasnorm_wordpool.txt	LTP066	ltpFR	3	n/a	1	CHAMBER	277	n/a	0	n/a	n/a	n/a	n/a	n/a
3001767	FFR_REC_WORD	wordpools/wasnorm_wordpool.txt	LTP066	ltpFR	3	n/a	1	SALMON	1227	n/a	1	n/a	n/a	n/a	n/a	n/a
3014149	FFR_REC_WORD	wordpools/wasnorm_wordpool.txt	LTP066	ltpFR	3	n/a	-1	DOUGH	489	n/a	-1	n/a	n/a	n/a	n/a	n/a
3015009	FFR_REC_WORD	wordpools/wasnorm_wordpool.txt	LTP066	ltpFR	3	n/a	n/a	COIN	343	n/a	n/a	n/a	n/a	n/a	n/a	n/a
3022640	FFR_REC_WORD	wordpools/wasnorm_wordpool.txt	LTP066	ltpFR	3	n/a	-1	BALLOON	75	n/a	-1	n/a	n/a	n/a	n/a	n/a
3025207	FFR_REC_WORD	wordpools/wasnorm_wordpool.txt	LTP066	ltpFR	3	n/a	-1	VEHICLE	1553	n/a	-1	n/a	n/a	n/a	n/a	n/a
3025925	FFR_REC_WORD	wordpools/wasnorm_wordpool.txt	LTP066	ltpFR	3	n/a	-1	AUTOMOBILE	62	n/a	-1	n/a	n/a	n/a	n/a	n/a
3037825	FFR_REC_WORD	wordpools/wasnorm_wordpool.txt	LTP066	ltpFR	3	n/a	0	FISH	571	n/a	1	n/a	n/a	n/a	n/a	n/a
3065716	FFR_REC_WORD	wordpools/wasnorm_wordpool.txt	LTP066	ltpFR	3	n/a	1	CABBAGE	210	n/a	0	n/a	n/a	n/a	n/a	n/a
3066533	FFR_REC_WORD	wordpools/wasnorm_wordpool.txt	LTP066	ltpFR	3	n/a	1	CELERY	266	n/a	0	n/a	n/a	n/a	n/a	n/a
3096985	FFR_REC_WORD	wordpools/wasnorm_wordpool.txt	LTP066	ltpFR	3	n/a	1	BUNNY	198	n/a	1	n/a	n/a	n/a	n/a	n/a
3098510	FFR_REC_WORD	wordpools/wasnorm_wordpool.txt	LTP066	ltpFR	3	n/a	0	HARE	688	n/a	1	n/a	n/a	n/a	n/a	n/a
3125259	REC_START	n/a	LTP066	ltpFR	3	1	n/a	n/a	n/a	n/a	n/a	n/a	n/a	n/a	n/a	n/a
3125292	RECOG_TARGET	n/a	LTP066	ltpFR	3	1	0	KING	777	5	1	n/a	n/a	n/a	n/a	n/a
3126820	RECOG_RESP	n/a	LTP066	ltpFR	3	1	0	KING	777	n/a	1	n/a	n/a	n/a	n/a	n/a
3128596	RECOG_CONF	n/a	LTP066	ltpFR	3	1	0	KING	777	5	1	n/a	n/a	n/a	n/a	n/a
3130215	RECOG_LURE	n/a	LTP066	ltpFR	3	1	n/a	SUGAR	1401	4	n/a	n/a	n/a	n/a	n/a	n/a
3131250	RECOG_RESP	n/a	LTP066	ltpFR	3	1	n/a	SUGAR	1401	n/a	n/a	n/a	n/a	n/a	n/a	n/a
3132567	RECOG_CONF	n/a	LTP066	ltpFR	3	1	n/a	SUGAR	1401	4	n/a	n/a	n/a	n/a	n/a	n/a
3134090	RECOG_LURE	n/a	LTP066	ltpFR	3	1	n/a	MESSAGE	888	4	n/a	n/a	n/a	n/a	n/a	n/a
3135022	RECOG_RESP	n/a	LTP066	ltpFR	3	1	n/a	MESSAGE	888	n/a	n/a	n/a	n/a	n/a	n/a	n/a
3135950	RECOG_CONF	n/a	LTP066	ltpFR	3	1	n/a	MESSAGE	888	4	n/a	n/a	n/a	n/a	n/a	n/a
3137633	RECOG_LURE	n/a	LTP066	ltpFR	3	1	n/a	SKILLET	1317	5	n/a	n/a	n/a	n/a	n/a	n/a
3138514	RECOG_RESP	n/a	LTP066	ltpFR	3	1	n/a	SKILLET	1317	n/a	n/a	n/a	n/a	n/a	n/a	n/a
3139422	RECOG_CONF	n/a	LTP066	ltpFR	3	1	n/a	SKILLET	1317	5	n/a	n/a	n/a	n/a	n/a	n/a
3141065	RECOG_LURE	n/a	LTP066	ltpFR	3	1	n/a	TERRITORY	1452	4	n/a	n/a	n/a	n/a	n/a	n/a
3141886	RECOG_RESP	n/a	LTP066	ltpFR	3	1	n/a	TERRITORY	1452	n/a	n/a	n/a	n/a	n/a	n/a	n/a
3143013	RECOG_CONF	n/a	LTP066	ltpFR	3	1	n/a	TERRITORY	1452	4	n/a	n/a	n/a	n/a	n/a	n/a
3144574	RECOG_TARGET	n/a	LTP066	ltpFR	3	1	-1	SEAFOOD	1260	3	-1	n/a	n/a	n/a	n/a	n/a
3145992	RECOG_RESP	n/a	LTP066	ltpFR	3	1	-1	SEAFOOD	1260	n/a	-1	n/a	n/a	n/a	n/a	n/a
3147054	RECOG_CONF	n/a	LTP066	ltpFR	3	1	-1	SEAFOOD	1260	3	-1	n/a	n/a	n/a	n/a	n/a
3148615	RECOG_TARGET	n/a	LTP066	ltpFR	3	1	-1	EAR	513	5	-1	n/a	n/a	n/a	n/a	n/a
3149299	RECOG_RESP	n/a	LTP066	ltpFR	3	1	-1	EAR	513	n/a	-1	n/a	n/a	n/a	n/a	n/a
3150307	RECOG_CONF	n/a	LTP066	ltpFR	3	1	-1	EAR	513	5	-1	n/a	n/a	n/a	n/a	n/a
3151830	RECOG_TARGET	n/a	LTP066	ltpFR	3	1	-1	THORN	1459	5	-1	n/a	n/a	n/a	n/a	n/a
3152472	RECOG_RESP	n/a	LTP066	ltpFR	3	1	-1	THORN	1459	n/a	-1	n/a	n/a	n/a	n/a	n/a
3153550	RECOG_CONF	n/a	LTP066	ltpFR	3	1	-1	THORN	1459	5	-1	n/a	n/a	n/a	n/a	n/a
3155072	RECOG_LURE	n/a	LTP066	ltpFR	3	1	n/a	CLAY	320	5	n/a	n/a	n/a	n/a	n/a	n/a
3155854	RECOG_RESP	n/a	LTP066	ltpFR	3	1	n/a	CLAY	320	n/a	n/a	n/a	n/a	n/a	n/a	n/a
3156822	RECOG_CONF	n/a	LTP066	ltpFR	3	1	n/a	CLAY	320	5	n/a	n/a	n/a	n/a	n/a	n/a
3158238	RECOG_TARGET	n/a	LTP066	ltpFR	3	1	1	BUREAU	199	5	0	n/a	n/a	n/a	n/a	n/a
3158847	RECOG_RESP	n/a	LTP066	ltpFR	3	1	1	BUREAU	199	n/a	0	n/a	n/a	n/a	n/a	n/a
3159875	RECOG_CONF	n/a	LTP066	ltpFR	3	1	1	BUREAU	199	5	0	n/a	n/a	n/a	n/a	n/a
3161397	RECOG_TARGET	n/a	LTP066	ltpFR	3	1	1	SUPPER	1411	5	0	n/a	n/a	n/a	n/a	n/a
3162040	RECOG_RESP	n/a	LTP066	ltpFR	3	1	1	SUPPER	1411	n/a	0	n/a	n/a	n/a	n/a	n/a
3163068	RECOG_CONF	n/a	LTP066	ltpFR	3	1	1	SUPPER	1411	5	0	n/a	n/a	n/a	n/a	n/a
3164547	RECOG_TARGET	n/a	LTP066	ltpFR	3	1	-1	DOUGH	489	5	-1	n/a	n/a	n/a	n/a	n/a
3165083	RECOG_RESP	n/a	LTP066	ltpFR	3	1	-1	DOUGH	489	n/a	-1	n/a	n/a	n/a	n/a	n/a
3166021	RECOG_CONF	n/a	LTP066	ltpFR	3	1	-1	DOUGH	489	5	-1	n/a	n/a	n/a	n/a	n/a
3167672	RECOG_LURE	n/a	LTP066	ltpFR	3	1	n/a	SNAKE	1333	3	n/a	n/a	n/a	n/a	n/a	n/a
3168994	RECOG_RESP	n/a	LTP066	ltpFR	3	1	n/a	SNAKE	1333	n/a	n/a	n/a	n/a	n/a	n/a	n/a
3169992	RECOG_CONF	n/a	LTP066	ltpFR	3	1	n/a	SNAKE	1333	3	n/a	n/a	n/a	n/a	n/a	n/a
3171572	RECOG_LURE	n/a	LTP066	ltpFR	3	1	n/a	KEY	773	5	n/a	n/a	n/a	n/a	n/a	n/a
3172387	RECOG_RESP	n/a	LTP066	ltpFR	3	1	n/a	KEY	773	n/a	n/a	n/a	n/a	n/a	n/a	n/a
3173335	RECOG_CONF	n/a	LTP066	ltpFR	3	1	n/a	KEY	773	5	n/a	n/a	n/a	n/a	n/a	n/a
3174854	RECOG_LURE	n/a	LTP066	ltpFR	3	1	n/a	LETTUCE	814	3	n/a	n/a	n/a	n/a	n/a	n/a
3175649	RECOG_RESP	n/a	LTP066	ltpFR	3	1	n/a	LETTUCE	814	n/a	n/a	n/a	n/a	n/a	n/a	n/a
3176677	RECOG_CONF	n/a	LTP066	ltpFR	3	1	n/a	LETTUCE	814	3	n/a	n/a	n/a	n/a	n/a	n/a
3178271	RECOG_LURE	n/a	LTP066	ltpFR	3	1	n/a	RELISH	1183	5	n/a	n/a	n/a	n/a	n/a	n/a
3179081	RECOG_RESP	n/a	LTP066	ltpFR	3	1	n/a	RELISH	1183	n/a	n/a	n/a	n/a	n/a	n/a	n/a
3179989	RECOG_CONF	n/a	LTP066	ltpFR	3	1	n/a	RELISH	1183	5	n/a	n/a	n/a	n/a	n/a	n/a
3181638	RECOG_LURE	n/a	LTP066	ltpFR	3	1	n/a	MALL	860	4	n/a	n/a	n/a	n/a	n/a	n/a
3183062	RECOG_RESP	n/a	LTP066	ltpFR	3	1	n/a	MALL	860	n/a	n/a	n/a	n/a	n/a	n/a	n/a
3184300	RECOG_CONF	n/a	LTP066	ltpFR	3	1	n/a	MALL	860	4	n/a	n/a	n/a	n/a	n/a	n/a
3185828	RECOG_LURE	n/a	LTP066	ltpFR	3	1	n/a	TAG	1429	5	n/a	n/a	n/a	n/a	n/a	n/a
3186674	RECOG_RESP	n/a	LTP066	ltpFR	3	1	n/a	TAG	1429	n/a	n/a	n/a	n/a	n/a	n/a	n/a
3187602	RECOG_CONF	n/a	LTP066	ltpFR	3	1	n/a	TAG	1429	5	n/a	n/a	n/a	n/a	n/a	n/a
3189161	RECOG_LURE	n/a	LTP066	ltpFR	3	1	n/a	DUST	508	5	n/a	n/a	n/a	n/a	n/a	n/a
3189807	RECOG_RESP	n/a	LTP066	ltpFR	3	1	n/a	DUST	508	n/a	n/a	n/a	n/a	n/a	n/a	n/a
3190775	RECOG_CONF	n/a	LTP066	ltpFR	3	1	n/a	DUST	508	5	n/a	n/a	n/a	n/a	n/a	n/a
3192252	RECOG_LURE	n/a	LTP066	ltpFR	3	1	n/a	PARIS	1014	5	n/a	n/a	n/a	n/a	n/a	n/a
3192880	RECOG_RESP	n/a	LTP066	ltpFR	3	1	n/a	PARIS	1014	n/a	n/a	n/a	n/a	n/a	n/a	n/a
3193938	RECOG_CONF	n/a	LTP066	ltpFR	3	1	n/a	PARIS	1014	5	n/a	n/a	n/a	n/a	n/a	n/a
3198835	REC_START	n/a	LTP066	ltpFR	3	2	n/a	n/a	n/a	n/a	n/a	n/a	n/a	n/a	n/a	n/a
3198869	RECOG_LURE	n/a	LTP066	ltpFR	3	2	n/a	FRAGRANCE	599	5	n/a	n/a	n/a	n/a	n/a	n/a
3199753	RECOG_RESP	n/a	LTP066	ltpFR	3	2	n/a	FRAGRANCE	599	n/a	n/a	n/a	n/a	n/a	n/a	n/a
3200696	RECOG_CONF	n/a	LTP066	ltpFR	3	2	n/a	FRAGRANCE	599	5	n/a	n/a	n/a	n/a	n/a	n/a
3202210	RECOG_LURE	n/a	LTP066	ltpFR	3	2	n/a	TENT	1449	5	n/a	n/a	n/a	n/a	n/a	n/a
3202980	RECOG_RESP	n/a	LTP066	ltpFR	3	2	n/a	TENT	1449	n/a	n/a	n/a	n/a	n/a	n/a	n/a
3203928	RECOG_CONF	n/a	LTP066	ltpFR	3	2	n/a	TENT	1449	5	n/a	n/a	n/a	n/a	n/a	n/a
3205444	RECOG_LURE	n/a	LTP066	ltpFR	3	2	n/a	SWAN	1417	4	n/a	n/a	n/a	n/a	n/a	n/a
3206413	RECOG_RESP	n/a	LTP066	ltpFR	3	2	n/a	SWAN	1417	n/a	n/a	n/a	n/a	n/a	n/a	n/a
3207350	RECOG_CONF	n/a	LTP066	ltpFR	3	2	n/a	SWAN	1417	4	n/a	n/a	n/a	n/a	n/a	n/a
3208835	RECOG_TARGET	n/a	LTP066	ltpFR	3	2	0	TOOTHBRUSH	1482	5	0	n/a	n/a	n/a	n/a	n/a
3209446	RECOG_RESP	n/a	LTP066	ltpFR	3	2	0	TOOTHBRUSH	1482	n/a	0	n/a	n/a	n/a	n/a	n/a
3210404	RECOG_CONF	n/a	LTP066	ltpFR	3	2	0	TOOTHBRUSH	1482	5	0	n/a	n/a	n/a	n/a	n/a
3211909	RECOG_LURE	n/a	LTP066	ltpFR	3	2	n/a	OATMEAL	967	5	n/a	n/a	n/a	n/a	n/a	n/a
3212783	RECOG_RESP	n/a	LTP066	ltpFR	3	2	n/a	OATMEAL	967	n/a	n/a	n/a	n/a	n/a	n/a	n/a
3213736	RECOG_CONF	n/a	LTP066	ltpFR	3	2	n/a	OATMEAL	967	5	n/a	n/a	n/a	n/a	n/a	n/a
3215318	RECOG_TARGET	n/a	LTP066	ltpFR	3	2	-1	TONGUE	1479	5	-1	n/a	n/a	n/a	n/a	n/a
3215901	RECOG_RESP	n/a	LTP066	ltpFR	3	2	-1	TONGUE	1479	n/a	-1	n/a	n/a	n/a	n/a	n/a
3216809	RECOG_CONF	n/a	LTP066	ltpFR	3	2	-1	TONGUE	1479	5	-1	n/a	n/a	n/a	n/a	n/a
3218293	RECOG_TARGET	n/a	LTP066	ltpFR	3	2	1	VAMPIRE	1547	5	1	n/a	n/a	n/a	n/a	n/a
3218954	RECOG_RESP	n/a	LTP066	ltpFR	3	2	1	VAMPIRE	1547	n/a	1	n/a	n/a	n/a	n/a	n/a
3219952	RECOG_CONF	n/a	LTP066	ltpFR	3	2	1	VAMPIRE	1547	5	1	n/a	n/a	n/a	n/a	n/a
3221443	RECOG_LURE	n/a	LTP066	ltpFR	3	2	n/a	BUTCHER	203	4	n/a	n/a	n/a	n/a	n/a	n/a
3222366	RECOG_RESP	n/a	LTP066	ltpFR	3	2	n/a	BUTCHER	203	n/a	n/a	n/a	n/a	n/a	n/a	n/a
3223244	RECOG_CONF	n/a	LTP066	ltpFR	3	2	n/a	BUTCHER	203	4	n/a	n/a	n/a	n/a	n/a	n/a
3224743	RECOG_TARGET	n/a	LTP066	ltpFR	3	2	1	ATTIC	56	5	0	n/a	n/a	n/a	n/a	n/a
3225429	RECOG_RESP	n/a	LTP066	ltpFR	3	2	1	ATTIC	56	n/a	0	n/a	n/a	n/a	n/a	n/a
3226467	RECOG_CONF	n/a	LTP066	ltpFR	3	2	1	ATTIC	56	5	0	n/a	n/a	n/a	n/a	n/a
3227992	RECOG_LURE	n/a	LTP066	ltpFR	3	2	n/a	CURB	426	5	n/a	n/a	n/a	n/a	n/a	n/a
3228742	RECOG_RESP	n/a	LTP066	ltpFR	3	2	n/a	CURB	426	n/a	n/a	n/a	n/a	n/a	n/a	n/a
3229680	RECOG_CONF	n/a	LTP066	ltpFR	3	2	n/a	CURB	426	5	n/a	n/a	n/a	n/a	n/a	n/a
3231208	RECOG_TARGET	n/a	LTP066	ltpFR	3	2	-1	NIGHTGOWN	953	5	-1	n/a	n/a	n/a	n/a	n/a
3231715	RECOG_RESP	n/a	LTP066	ltpFR	3	2	-1	NIGHTGOWN	953	n/a	-1	n/a	n/a	n/a	n/a	n/a
3232713	RECOG_CONF	n/a	LTP066	ltpFR	3	2	-1	NIGHTGOWN	953	5	-1	n/a	n/a	n/a	n/a	n/a
3234058	RECOG_LURE	n/a	LTP066	ltpFR	3	2	n/a	PATRIOT	1026	5	n/a	n/a	n/a	n/a	n/a	n/a
3234688	RECOG_RESP	n/a	LTP066	ltpFR	3	2	n/a	PATRIOT	1026	n/a	n/a	n/a	n/a	n/a	n/a	n/a
3236404	RECOG_CONF	n/a	LTP066	ltpFR	3	2	n/a	PATRIOT	1026	5	n/a	n/a	n/a	n/a	n/a	n/a
3237833	RECOG_TARGET	n/a	LTP066	ltpFR	3	2	0	LUNCH	849	4	1	n/a	n/a	n/a	n/a	n/a
3238550	RECOG_RESP	n/a	LTP066	ltpFR	3	2	0	LUNCH	849	n/a	1	n/a	n/a	n/a	n/a	n/a
3239637	RECOG_CONF	n/a	LTP066	ltpFR	3	2	0	LUNCH	849	4	1	n/a	n/a	n/a	n/a	n/a
3241166	RECOG_LURE	n/a	LTP066	ltpFR	3	2	n/a	SYRUP	1425	5	n/a	n/a	n/a	n/a	n/a	n/a
3241862	RECOG_RESP	n/a	LTP066	ltpFR	3	2	n/a	SYRUP	1425	n/a	n/a	n/a	n/a	n/a	n/a	n/a
3242810	RECOG_CONF	n/a	LTP066	ltpFR	3	2	n/a	SYRUP	1425	5	n/a	n/a	n/a	n/a	n/a	n/a
3244358	RECOG_TARGET	n/a	LTP066	ltpFR	3	2	0	LAGOON	795	5	1	n/a	n/a	n/a	n/a	n/a
3244985	RECOG_RESP	n/a	LTP066	ltpFR	3	2	0	LAGOON	795	n/a	1	n/a	n/a	n/a	n/a	n/a
3245973	RECOG_CONF	n/a	LTP066	ltpFR	3	2	0	LAGOON	795	5	1	n/a	n/a	n/a	n/a	n/a
3247591	RECOG_LURE	n/a	LTP066	ltpFR	3	2	n/a	SIDING	1304	5	n/a	n/a	n/a	n/a	n/a	n/a
3248507	RECOG_RESP	n/a	LTP066	ltpFR	3	2	n/a	SIDING	1304	n/a	n/a	n/a	n/a	n/a	n/a	n/a
3249555	RECOG_CONF	n/a	LTP066	ltpFR	3	2	n/a	SIDING	1304	5	n/a	n/a	n/a	n/a	n/a	n/a
3251057	RECOG_TARGET	n/a	LTP066	ltpFR	3	2	0	LIPSTICK	829	5	0	n/a	n/a	n/a	n/a	n/a
3251690	RECOG_RESP	n/a	LTP066	ltpFR	3	2	0	LIPSTICK	829	n/a	0	n/a	n/a	n/a	n/a	n/a
3252687	RECOG_CONF	n/a	LTP066	ltpFR	3	2	0	LIPSTICK	829	5	0	n/a	n/a	n/a	n/a	n/a
3254115	RECOG_LURE	n/a	LTP066	ltpFR	3	2	n/a	CLERK	321	4	n/a	n/a	n/a	n/a	n/a	n/a
3254643	RECOG_RESP	n/a	LTP066	ltpFR	3	2	n/a	CLERK	321	n/a	n/a	n/a	n/a	n/a	n/a	n/a
3255740	RECOG_CONF	n/a	LTP066	ltpFR	3	2	n/a	CLERK	321	4	n/a	n/a	n/a	n/a	n/a	n/a
3257290	RECOG_TARGET	n/a	LTP066	ltpFR	3	2	1	EMPIRE	530	5	0	n/a	n/a	n/a	n/a	n/a
3257846	RECOG_RESP	n/a	LTP066	ltpFR	3	2	1	EMPIRE	530	n/a	0	n/a	n/a	n/a	n/a	n/a
3259881	RECOG_CONF	n/a	LTP066	ltpFR	3	2	1	EMPIRE	530	5	0	n/a	n/a	n/a	n/a	n/a
3261565	RECOG_LURE	n/a	LTP066	ltpFR	3	2	n/a	JUGGLER	763	5	n/a	n/a	n/a	n/a	n/a	n/a
3262365	RECOG_RESP	n/a	LTP066	ltpFR	3	2	n/a	JUGGLER	763	n/a	n/a	n/a	n/a	n/a	n/a	n/a
3263253	RECOG_CONF	n/a	LTP066	ltpFR	3	2	n/a	JUGGLER	763	5	n/a	n/a	n/a	n/a	n/a	n/a
3267400	REC_START	n/a	LTP066	ltpFR	3	3	n/a	n/a	n/a	n/a	n/a	n/a	n/a	n/a	n/a	n/a
3267431	RECOG_LURE	n/a	LTP066	ltpFR	3	3	n/a	OMELET	976	5	n/a	n/a	n/a	n/a	n/a	n/a
3268233	RECOG_RESP	n/a	LTP066	ltpFR	3	3	n/a	OMELET	976	n/a	n/a	n/a	n/a	n/a	n/a	n/a
3269171	RECOG_CONF	n/a	LTP066	ltpFR	3	3	n/a	OMELET	976	5	n/a	n/a	n/a	n/a	n/a	n/a
3270589	RECOG_LURE	n/a	LTP066	ltpFR	3	3	n/a	SHORE	1291	4	n/a	n/a	n/a	n/a	n/a	n/a
3271655	RECOG_RESP	n/a	LTP066	ltpFR	3	3	n/a	SHORE	1291	n/a	n/a	n/a	n/a	n/a	n/a	n/a
3272643	RECOG_CONF	n/a	LTP066	ltpFR	3	3	n/a	SHORE	1291	4	n/a	n/a	n/a	n/a	n/a	n/a
3274130	RECOG_TARGET	n/a	LTP066	ltpFR	3	3	0	DANDELION	438	5	0	n/a	n/a	n/a	n/a	n/a
3274948	RECOG_RESP	n/a	LTP066	ltpFR	3	3	0	DANDELION	438	n/a	0	n/a	n/a	n/a	n/a	n/a
3275915	RECOG_CONF	n/a	LTP066	ltpFR	3	3	0	DANDELION	438	5	0	n/a	n/a	n/a	n/a	n/a
3277464	RECOG_TARGET	n/a	LTP066	ltpFR	3	3	0	ASTRONAUT	51	5	1	n/a	n/a	n/a	n/a	n/a
3278160	RECOG_RESP	n/a	LTP066	ltpFR	3	3	0	ASTRONAUT	51	n/a	1	n/a	n/a	n/a	n/a	n/a
3279148	RECOG_CONF	n/a	LTP066	ltpFR	3	3	0	ASTRONAUT	51	5	1	n/a	n/a	n/a	n/a	n/a
3280605	RECOG_LURE	n/a	LTP066	ltpFR	3	3	n/a	RELATIVE	1182	4	n/a	n/a	n/a	n/a	n/a	n/a
3281418	RECOG_RESP	n/a	LTP066	ltpFR	3	3	n/a	RELATIVE	1182	n/a	n/a	n/a	n/a	n/a	n/a	n/a
3282351	RECOG_CONF	n/a	LTP066	ltpFR	3	3	n/a	RELATIVE	1182	4	n/a	n/a	n/a	n/a	n/a	n/a
3283829	RECOG_TARGET	n/a	LTP066	ltpFR	3	3	0	MATCH	878	4	1	n/a	n/a	n/a	n/a	n/a
3285404	RECOG_RESP	n/a	LTP066	ltpFR	3	3	0	MATCH	878	n/a	1	n/a	n/a	n/a	n/a	n/a
3286661	RECOG_CONF	n/a	LTP066	ltpFR	3	3	0	MATCH	878	4	1	n/a	n/a	n/a	n/a	n/a
3288137	RECOG_LURE	n/a	LTP066	ltpFR	3	3	n/a	DUNGEON	507	4	n/a	n/a	n/a	n/a	n/a	n/a
3288766	RECOG_RESP	n/a	LTP066	ltpFR	3	3	n/a	DUNGEON	507	n/a	n/a	n/a	n/a	n/a	n/a	n/a
3289704	RECOG_CONF	n/a	LTP066	ltpFR	3	3	n/a	DUNGEON	507	4	n/a	n/a	n/a	n/a	n/a	n/a
3291170	RECOG_LURE	n/a	LTP066	ltpFR	3	3	n/a	SALOON	1228	5	n/a	n/a	n/a	n/a	n/a	n/a
3292009	RECOG_RESP	n/a	LTP066	ltpFR	3	3	n/a	SALOON	1228	n/a	n/a	n/a	n/a	n/a	n/a	n/a
3292877	RECOG_CONF	n/a	LTP066	ltpFR	3	3	n/a	SALOON	1228	5	n/a	n/a	n/a	n/a	n/a	n/a
3294321	RECOG_TARGET	n/a	LTP066	ltpFR	3	3	1	TOOTH	1481	5	0	n/a	n/a	n/a	n/a	n/a
3294912	RECOG_RESP	n/a	LTP066	ltpFR	3	3	1	TOOTH	1481	n/a	0	n/a	n/a	n/a	n/a	n/a
3295930	RECOG_CONF	n/a	LTP066	ltpFR	3	3	1	TOOTH	1481	5	0	n/a	n/a	n/a	n/a	n/a
3297479	RECOG_TARGET	n/a	LTP066	ltpFR	3	3	-1	STREAM	1392	5	-1	n/a	n/a	n/a	n/a	n/a
3298344	RECOG_RESP	n/a	LTP066	ltpFR	3	3	-1	STREAM	1392	n/a	-1	n/a	n/a	n/a	n/a	n/a
3299382	RECOG_CONF	n/a	LTP066	ltpFR	3	3	-1	STREAM	1392	5	-1	n/a	n/a	n/a	n/a	n/a
3300928	RECOG_TARGET	n/a	LTP066	ltpFR	3	3	-1	STEWARDESS	1381	5	-1	n/a	n/a	n/a	n/a	n/a
3301657	RECOG_RESP	n/a	LTP066	ltpFR	3	3	-1	STEWARDESS	1381	n/a	-1	n/a	n/a	n/a	n/a	n/a
3302635	RECOG_CONF	n/a	LTP066	ltpFR	3	3	-1	STEWARDESS	1381	5	-1	n/a	n/a	n/a	n/a	n/a
3304128	RECOG_TARGET	n/a	LTP066	ltpFR	3	3	1	SKI	1316	5	0	n/a	n/a	n/a	n/a	n/a
3304690	RECOG_RESP	n/a	LTP066	ltpFR	3	3	1	SKI	1316	n/a	0	n/a	n/a	n/a	n/a	n/a
3305668	RECOG_CONF	n/a	LTP066	ltpFR	3	3	1	SKI	1316	5	0	n/a	n/a	n/a	n/a	n/a
3307153	RECOG_TARGET	n/a	LTP066	ltpFR	3	3	-1	SUPERMARKET	1409	5	-1	n/a	n/a	n/a	n/a	n/a
3307653	RECOG_RESP	n/a	LTP066	ltpFR	3	3	-1	SUPERMARKET	1409	n/a	-1	n/a	n/a	n/a	n/a	n/a
3308601	RECOG_CONF	n/a	LTP066	ltpFR	3	3	-1	SUPERMARKET	1409	5	-1	n/a	n/a	n/a	n/a	n/a
3310019	RECOG_TARGET	n/a	LTP066	ltpFR	3	3	0	FLANNEL	574	5	1	n/a	n/a	n/a	n/a	n/a
3310657	RECOG_RESP	n/a	LTP066	ltpFR	3	3	0	FLANNEL	574	n/a	1	n/a	n/a	n/a	n/a	n/a
3311674	RECOG_CONF	n/a	LTP066	ltpFR	3	3	0	FLANNEL	574	5	1	n/a	n/a	n/a	n/a	n/a
3313094	RECOG_LURE	n/a	LTP066	ltpFR	3	3	n/a	SERGEANT	1269	4	n/a	n/a	n/a	n/a	n/a	n/a
3313670	RECOG_RESP	n/a	LTP066	ltpFR	3	3	n/a	SERGEANT	1269	n/a	n/a	n/a	n/a	n/a	n/a	n/a
3314767	RECOG_CONF	n/a	LTP066	ltpFR	3	3	n/a	SERGEANT	1269	4	n/a	n/a	n/a	n/a	n/a	n/a
3316210	RECOG_TARGET	n/a	LTP066	ltpFR	3	3	-1	LACE	792	5	-1	n/a	n/a	n/a	n/a	n/a
3316852	RECOG_RESP	n/a	LTP066	ltpFR	3	3	-1	LACE	792	n/a	-1	n/a	n/a	n/a	n/a	n/a
3317810	RECOG_CONF	n/a	LTP066	ltpFR	3	3	-1	LACE	792	5	-1	n/a	n/a	n/a	n/a	n/a
3319328	RECOG_TARGET	n/a	LTP066	ltpFR	3	3	0	FELLOW	558	4	1	n/a	n/a	n/a	n/a	n/a
3320015	RECOG_RESP	n/a	LTP066	ltpFR	3	3	0	FELLOW	558	n/a	1	n/a	n/a	n/a	n/a	n/a
3320923	RECOG_CONF	n/a	LTP066	ltpFR	3	3	0	FELLOW	558	4	1	n/a	n/a	n/a	n/a	n/a
3322444	RECOG_TARGET	n/a	LTP066	ltpFR	3	3	0	FISH	571	5	1	n/a	n/a	n/a	n/a	n/a
3323408	RECOG_RESP	n/a	LTP066	ltpFR	3	3	0	FISH	571	n/a	1	n/a	n/a	n/a	n/a	n/a
3324575	RECOG_CONF	n/a	LTP066	ltpFR	3	3	0	FISH	571	5	1	n/a	n/a	n/a	n/a	n/a
3326159	RECOG_LURE	n/a	LTP066	ltpFR	3	3	n/a	LOUNGE	845	3	n/a	n/a	n/a	n/a	n/a	n/a
3327558	RECOG_RESP	n/a	LTP066	ltpFR	3	3	n/a	LOUNGE	845	n/a	n/a	n/a	n/a	n/a	n/a	n/a
3328546	RECOG_CONF	n/a	LTP066	ltpFR	3	3	n/a	LOUNGE	845	3	n/a	n/a	n/a	n/a	n/a	n/a
3330068	RECOG_LURE	n/a	LTP066	ltpFR	3	3	n/a	MUFFIN	929	3	n/a	n/a	n/a	n/a	n/a	n/a
3330831	RECOG_RESP	n/a	LTP066	ltpFR	3	3	n/a	MUFFIN	929	n/a	n/a	n/a	n/a	n/a	n/a	n/a
3331868	RECOG_CONF	n/a	LTP066	ltpFR	3	3	n/a	MUFFIN	929	3	n/a	n/a	n/a	n/a	n/a	n/a
3336797	REC_START	n/a	LTP066	ltpFR	3	4	n/a	n/a	n/a	n/a	n/a	n/a	n/a	n/a	n/a	n/a
3336834	RECOG_LURE	n/a	LTP066	ltpFR	3	4	n/a	HAMBURGER	679	5	n/a	n/a	n/a	n/a	n/a	n/a
3337520	RECOG_RESP	n/a	LTP066	ltpFR	3	4	n/a	HAMBURGER	679	n/a	n/a	n/a	n/a	n/a	n/a	n/a
3338468	RECOG_CONF	n/a	LTP066	ltpFR	3	4	n/a	HAMBURGER	679	5	n/a	n/a	n/a	n/a	n/a	n/a
3340050	RECOG_LURE	n/a	LTP066	ltpFR	3	4	n/a	SOAP	1337	4	n/a	n/a	n/a	n/a	n/a	n/a
3341212	RECOG_RESP	n/a	LTP066	ltpFR	3	4	n/a	SOAP	1337	n/a	n/a	n/a	n/a	n/a	n/a	n/a
3342449	RECOG_CONF	n/a	LTP066	ltpFR	3	4	n/a	SOAP	1337	4	n/a	n/a	n/a	n/a	n/a	n/a
3343991	RECOG_TARGET	n/a	LTP066	ltpFR	3	4	-1	STAPLER	1372	5	-1	n/a	n/a	n/a	n/a	n/a
3344484	RECOG_RESP	n/a	LTP066	ltpFR	3	4	-1	STAPLER	1372	n/a	-1	n/a	n/a	n/a	n/a	n/a
3345512	RECOG_CONF	n/a	LTP066	ltpFR	3	4	-1	STAPLER	1372	5	-1	n/a	n/a	n/a	n/a	n/a
3346975	RECOG_LURE	n/a	LTP066	ltpFR	3	4	n/a	BADGE	68	4	n/a	n/a	n/a	n/a	n/a	n/a
3348351	RECOG_RESP	n/a	LTP066	ltpFR	3	4	n/a	BADGE	68	n/a	n/a	n/a	n/a	n/a	n/a	n/a
3349553	RECOG_CONF	n/a	LTP066	ltpFR	3	4	n/a	BADGE	68	4	n/a	n/a	n/a	n/a	n/a	n/a
3351116	RECOG_LURE	n/a	LTP066	ltpFR	3	4	n/a	TRIGGER	1507	5	n/a	n/a	n/a	n/a	n/a	n/a
3351858	RECOG_RESP	n/a	LTP066	ltpFR	3	4	n/a	TRIGGER	1507	n/a	n/a	n/a	n/a	n/a	n/a	n/a
3352845	RECOG_CONF	n/a	LTP066	ltpFR	3	4	n/a	TRIGGER	1507	5	n/a	n/a	n/a	n/a	n/a	n/a
3354367	RECOG_LURE	n/a	LTP066	ltpFR	3	4	n/a	GRADUATE	653	5	n/a	n/a	n/a	n/a	n/a	n/a
3355160	RECOG_RESP	n/a	LTP066	ltpFR	3	4	n/a	GRADUATE	653	n/a	n/a	n/a	n/a	n/a	n/a	n/a
3356098	RECOG_CONF	n/a	LTP066	ltpFR	3	4	n/a	GRADUATE	653	5	n/a	n/a	n/a	n/a	n/a	n/a
3357658	RECOG_TARGET	n/a	LTP066	ltpFR	3	4	1	DRILL	497	4	0	n/a	n/a	n/a	n/a	n/a
3358562	RECOG_RESP	n/a	LTP066	ltpFR	3	4	1	DRILL	497	n/a	0	n/a	n/a	n/a	n/a	n/a
3359560	RECOG_CONF	n/a	LTP066	ltpFR	3	4	1	DRILL	497	4	0	n/a	n/a	n/a	n/a	n/a
3361099	RECOG_TARGET	n/a	LTP066	ltpFR	3	4	0	FAUCET	555	5	1	n/a	n/a	n/a	n/a	n/a
3361815	RECOG_RESP	n/a	LTP066	ltpFR	3	4	0	FAUCET	555	n/a	1	n/a	n/a	n/a	n/a	n/a
3362783	RECOG_CONF	n/a	LTP066	ltpFR	3	4	0	FAUCET	555	5	1	n/a	n/a	n/a	n/a	n/a
3364333	RECOG_TARGET	n/a	LTP066	ltpFR	3	4	1	ARENA	37	3	0	n/a	n/a	n/a	n/a	n/a
3365626	RECOG_RESP	n/a	LTP066	ltpFR	3	4	1	ARENA	37	n/a	0	n/a	n/a	n/a	n/a	n/a
3366674	RECOG_CONF	n/a	LTP066	ltpFR	3	4	1	ARENA	37	3	0	n/a	n/a	n/a	n/a	n/a
3368248	RECOG_LURE	n/a	LTP066	ltpFR	3	4	n/a	GANG	619	4	n/a	n/a	n/a	n/a	n/a	n/a
3369168	RECOG_RESP	n/a	LTP066	ltpFR	3	4	n/a	GANG	619	n/a	n/a	n/a	n/a	n/a	n/a	n/a
3370246	RECOG_CONF	n/a	LTP066	ltpFR	3	4	n/a	GANG	619	4	n/a	n/a	n/a	n/a	n/a	n/a
3371881	RECOG_LURE	n/a	LTP066	ltpFR	3	4	n/a	CHICK	296	5	n/a	n/a	n/a	n/a	n/a	n/a
3372580	RECOG_RESP	n/a	LTP066	ltpFR	3	4	n/a	CHICK	296	n/a	n/a	n/a	n/a	n/a	n/a	n/a
3373558	RECOG_CONF	n/a	LTP066	ltpFR	3	4	n/a	CHICK	296	5	n/a	n/a	n/a	n/a	n/a	n/a
3375031	RECOG_TARGET	n/a	LTP066	ltpFR	3	4	-1	GROCERY	664	5	-1	n/a	n/a	n/a	n/a	n/a
3375594	RECOG_RESP	n/a	LTP066	ltpFR	3	4	-1	GROCERY	664	n/a	-1	n/a	n/a	n/a	n/a	n/a
3376532	RECOG_CONF	n/a	LTP066	ltpFR	3	4	-1	GROCERY	664	5	-1	n/a	n/a	n/a	n/a	n/a
3378022	RECOG_TARGET	n/a	LTP066	ltpFR	3	4	1	PRUNE	1134	5	1	n/a	n/a	n/a	n/a	n/a
3378682	RECOG_RESP	n/a	LTP066	ltpFR	3	4	1	PRUNE	1134	n/a	1	n/a	n/a	n/a	n/a	n/a
3379744	RECOG_CONF	n/a	LTP066	ltpFR	3	4	1	PRUNE	1134	5	1	n/a	n/a	n/a	n/a	n/a
3381247	RECOG_LURE	n/a	LTP066	ltpFR	3	4	n/a	GUARD	667	4	n/a	n/a	n/a	n/a	n/a	n/a
3382059	RECOG_RESP	n/a	LTP066	ltpFR	3	4	n/a	GUARD	667	n/a	n/a	n/a	n/a	n/a	n/a	n/a
3383057	RECOG_CONF	n/a	LTP066	ltpFR	3	4	n/a	GUARD	667	4	n/a	n/a	n/a	n/a	n/a	n/a
3384556	RECOG_LURE	n/a	LTP066	ltpFR	3	4	n/a	FREEWAY	603	4	n/a	n/a	n/a	n/a	n/a	n/a
3385292	RECOG_RESP	n/a	LTP066	ltpFR	3	4	n/a	FREEWAY	603	n/a	n/a	n/a	n/a	n/a	n/a	n/a
3386349	RECOG_CONF	n/a	LTP066	ltpFR	3	4	n/a	FREEWAY	603	4	n/a	n/a	n/a	n/a	n/a	n/a
3387947	RECOG_TARGET	n/a	LTP066	ltpFR	3	4	0	FATHER	554	5	1	n/a	n/a	n/a	n/a	n/a
3388544	RECOG_RESP	n/a	LTP066	ltpFR	3	4	0	FATHER	554	n/a	1	n/a	n/a	n/a	n/a	n/a
3389512	RECOG_CONF	n/a	LTP066	ltpFR	3	4	0	FATHER	554	5	1	n/a	n/a	n/a	n/a	n/a
3390988	RECOG_TARGET	n/a	LTP066	ltpFR	3	4	1	TOOL	1480	5	0	n/a	n/a	n/a	n/a	n/a
3391822	RECOG_RESP	n/a	LTP066	ltpFR	3	4	1	TOOL	1480	n/a	0	n/a	n/a	n/a	n/a	n/a
3392805	RECOG_CONF	n/a	LTP066	ltpFR	3	4	1	TOOL	1480	5	0	n/a	n/a	n/a	n/a	n/a
3394163	RECOG_TARGET	n/a	LTP066	ltpFR	3	4	1	HOOD	714	5	0	n/a	n/a	n/a	n/a	n/a
3394830	RECOG_RESP	n/a	LTP066	ltpFR	3	4	1	HOOD	714	n/a	0	n/a	n/a	n/a	n/a	n/a
3395858	RECOG_CONF	n/a	LTP066	ltpFR	3	4	1	HOOD	714	5	0	n/a	n/a	n/a	n/a	n/a
3397614	RECOG_LURE	n/a	LTP066	ltpFR	3	4	n/a	MARKET	871	3	n/a	n/a	n/a	n/a	n/a	n/a
3398252	RECOG_RESP	n/a	LTP066	ltpFR	3	4	n/a	MARKET	871	n/a	n/a	n/a	n/a	n/a	n/a	n/a
3399908	RECOG_CONF	n/a	LTP066	ltpFR	3	4	n/a	MARKET	871	3	n/a	n/a	n/a	n/a	n/a	n/a
3401538	RECOG_TARGET	n/a	LTP066	ltpFR	3	4	-1	BLANKET	135	5	-1	n/a	n/a	n/a	n/a	n/a
3402253	RECOG_RESP	n/a	LTP066	ltpFR	3	4	-1	BLANKET	135	n/a	-1	n/a	n/a	n/a	n/a	n/a
3403341	RECOG_CONF	n/a	LTP066	ltpFR	3	4	-1	BLANKET	135	5	-1	n/a	n/a	n/a	n/a	n/a
3407473	REC_START	n/a	LTP066	ltpFR	3	5	n/a	n/a	n/a	n/a	n/a	n/a	n/a	n/a	n/a	n/a
3407505	RECOG_LURE	n/a	LTP066	ltpFR	3	5	n/a	SPOOL	1356	5	n/a	n/a	n/a	n/a	n/a	n/a
3408261	RECOG_RESP	n/a	LTP066	ltpFR	3	5	n/a	SPOOL	1356	n/a	n/a	n/a	n/a	n/a	n/a	n/a
3409204	RECOG_CONF	n/a	LTP066	ltpFR	3	5	n/a	SPOOL	1356	5	n/a	n/a	n/a	n/a	n/a	n/a
3410663	RECOG_LURE	n/a	LTP066	ltpFR	3	5	n/a	SIBLING	1301	5	n/a	n/a	n/a	n/a	n/a	n/a
3412008	RECOG_RESP	n/a	LTP066	ltpFR	3	5	n/a	SIBLING	1301	n/a	n/a	n/a	n/a	n/a	n/a	n/a
3412995	RECOG_CONF	n/a	LTP066	ltpFR	3	5	n/a	SIBLING	1301	5	n/a	n/a	n/a	n/a	n/a	n/a
3414562	RECOG_TARGET	n/a	LTP066	ltpFR	3	5	0	EUROPE	541	5	1	n/a	n/a	n/a	n/a	n/a
3415250	RECOG_RESP	n/a	LTP066	ltpFR	3	5	0	EUROPE	541	n/a	1	n/a	n/a	n/a	n/a	n/a
3416148	RECOG_CONF	n/a	LTP066	ltpFR	3	5	0	EUROPE	541	5	1	n/a	n/a	n/a	n/a	n/a
3417844	RECOG_TARGET	n/a	LTP066	ltpFR	3	5	-1	TEENAGER	1444	5	-1	n/a	n/a	n/a	n/a	n/a
3418353	RECOG_RESP	n/a	LTP066	ltpFR	3	5	-1	TEENAGER	1444	n/a	-1	n/a	n/a	n/a	n/a	n/a
3419351	RECOG_CONF	n/a	LTP066	ltpFR	3	5	-1	TEENAGER	1444	5	-1	n/a	n/a	n/a	n/a	n/a
3420969	RECOG_LURE	n/a	LTP066	ltpFR	3	5	n/a	HAMMER	680	4	n/a	n/a	n/a	n/a	n/a	n/a
3421686	RECOG_RESP	n/a	LTP066	ltpFR	3	5	n/a	HAMMER	680	n/a	n/a	n/a	n/a	n/a	n/a	n/a
3422623	RECOG_CONF	n/a	LTP066	ltpFR	3	5	n/a	HAMMER	680	4	n/a	n/a	n/a	n/a	n/a	n/a
3424169	RECOG_LURE	n/a	LTP066	ltpFR	3	5	n/a	TWISTER	1530	5	n/a	n/a	n/a	n/a	n/a	n/a
3424958	RECOG_RESP	n/a	LTP066	ltpFR	3	5	n/a	TWISTER	1530	n/a	n/a	n/a	n/a	n/a	n/a	n/a
3425886	RECOG_CONF	n/a	LTP066	ltpFR	3	5	n/a	TWISTER	1530	5	n/a	n/a	n/a	n/a	n/a	n/a
3427378	RECOG_TARGET	n/a	LTP066	ltpFR	3	5	-1	STAMP	1370	4	-1	n/a	n/a	n/a	n/a	n/a
3428181	RECOG_RESP_VV	n/a	LTP066	ltpFR	3	5	-1	STAMP	1370	n/a	-1	n/a	n/a	n/a	n/a	n/a
3429094	RECOG_RESP	n/a	LTP066	ltpFR	3	5	-1	STAMP	1370	n/a	-1	n/a	n/a	n/a	n/a	n/a
3430366	RECOG_CONF	n/a	LTP066	ltpFR	3	5	-1	STAMP	1370	4	-1	n/a	n/a	n/a	n/a	n/a
3431935	RECOG_LURE	n/a	LTP066	ltpFR	3	5	n/a	PRESIDENT	1121	5	n/a	n/a	n/a	n/a	n/a	n/a
3432750	RECOG_RESP	n/a	LTP066	ltpFR	3	5	n/a	PRESIDENT	1121	n/a	n/a	n/a	n/a	n/a	n/a	n/a
3433668	RECOG_CONF	n/a	LTP066	ltpFR	3	5	n/a	PRESIDENT	1121	5	n/a	n/a	n/a	n/a	n/a	n/a
3435193	RECOG_TARGET	n/a	LTP066	ltpFR	3	5	-1	CANARY	227	5	-1	n/a	n/a	n/a	n/a	n/a
3435773	RECOG_RESP	n/a	LTP066	ltpFR	3	5	-1	CANARY	227	n/a	-1	n/a	n/a	n/a	n/a	n/a
3436841	RECOG_CONF	n/a	LTP066	ltpFR	3	5	-1	CANARY	227	5	-1	n/a	n/a	n/a	n/a	n/a
3438394	RECOG_TARGET	n/a	LTP066	ltpFR	3	5	-1	IGLOO	734	5	-1	n/a	n/a	n/a	n/a	n/a
3438976	RECOG_RESP	n/a	LTP066	ltpFR	3	5	-1	IGLOO	734	n/a	-1	n/a	n/a	n/a	n/a	n/a
3440024	RECOG_CONF	n/a	LTP066	ltpFR	3	5	-1	IGLOO	734	5	-1	n/a	n/a	n/a	n/a	n/a
3441527	RECOG_TARGET	n/a	LTP066	ltpFR	3	5	0	INFANT	737	4	1	n/a	n/a	n/a	n/a	n/a
3442179	RECOG_RESP	n/a	LTP066	ltpFR	3	5	0	INFANT	737	n/a	1	n/a	n/a	n/a	n/a	n/a
3443227	RECOG_CONF	n/a	LTP066	ltpFR	3	5	0	INFANT	737	4	1	n/a	n/a	n/a	n/a	n/a
3444702	RECOG_TARGET	n/a	LTP066	ltpFR	3	5	0	TUB	1514	5	1	n/a	n/a	n/a	n/a	n/a
3445302	RECOG_RESP	n/a	LTP066	ltpFR	3	5	0	TUB	1514	n/a	1	n/a	n/a	n/a	n/a	n/a
3446280	RECOG_CONF	n/a	LTP066	ltpFR	3	5	0	TUB	1514	5	1	n/a	n/a	n/a	n/a	n/a
3447826	RECOG_LURE	n/a	LTP066	ltpFR	3	5	n/a	SEASHORE	1263	5	n/a	n/a	n/a	n/a	n/a	n/a
3448744	RECOG_RESP	n/a	LTP066	ltpFR	3	5	n/a	SEASHORE	1263	n/a	n/a	n/a	n/a	n/a	n/a	n/a
3449712	RECOG_CONF	n/a	LTP066	ltpFR	3	5	n/a	SEASHORE	1263	5	n/a	n/a	n/a	n/a	n/a	n/a
3451159	RECOG_TARGET	n/a	LTP066	ltpFR	3	5	0	NUCLEUS	961	5	0	n/a	n/a	n/a	n/a	n/a
3451727	RECOG_RESP	n/a	LTP066	ltpFR	3	5	0	NUCLEUS	961	n/a	0	n/a	n/a	n/a	n/a	n/a
3452715	RECOG_CONF	n/a	LTP066	ltpFR	3	5	0	NUCLEUS	961	5	0	n/a	n/a	n/a	n/a	n/a
3454175	RECOG_LURE	n/a	LTP066	ltpFR	3	5	n/a	BELT	120	5	n/a	n/a	n/a	n/a	n/a	n/a
3454900	RECOG_RESP	n/a	LTP066	ltpFR	3	5	n/a	BELT	120	n/a	n/a	n/a	n/a	n/a	n/a	n/a
3455858	RECOG_CONF	n/a	LTP066	ltpFR	3	5	n/a	BELT	120	5	n/a	n/a	n/a	n/a	n/a	n/a
3457309	RECOG_TARGET	n/a	LTP066	ltpFR	3	5	0	SHEEP	1278	5	1	n/a	n/a	n/a	n/a	n/a
3457873	RECOG_RESP	n/a	LTP066	ltpFR	3	5	0	SHEEP	1278	n/a	1	n/a	n/a	n/a	n/a	n/a
3458861	RECOG_CONF	n/a	LTP066	ltpFR	3	5	0	SHEEP	1278	5	1	n/a	n/a	n/a	n/a	n/a
3460259	RECOG_TARGET	n/a	LTP066	ltpFR	3	5	-1	CARDINAL	244	5	-1	n/a	n/a	n/a	n/a	n/a
3460886	RECOG_RESP	n/a	LTP066	ltpFR	3	5	-1	CARDINAL	244	n/a	-1	n/a	n/a	n/a	n/a	n/a
3461924	RECOG_CONF	n/a	LTP066	ltpFR	3	5	-1	CARDINAL	244	5	-1	n/a	n/a	n/a	n/a	n/a
3463459	RECOG_LURE	n/a	LTP066	ltpFR	3	5	n/a	TOENAIL	1474	5	n/a	n/a	n/a	n/a	n/a	n/a
3464179	RECOG_RESP	n/a	LTP066	ltpFR	3	5	n/a	TOENAIL	1474	n/a	n/a	n/a	n/a	n/a	n/a	n/a
3465137	RECOG_CONF	n/a	LTP066	ltpFR	3	5	n/a	TOENAIL	1474	5	n/a	n/a	n/a	n/a	n/a	n/a
3466609	RECOG_TARGET	n/a	LTP066	ltpFR	3	5	0	QUILT	1151	5	1	n/a	n/a	n/a	n/a	n/a
3467192	RECOG_RESP	n/a	LTP066	ltpFR	3	5	0	QUILT	1151	n/a	1	n/a	n/a	n/a	n/a	n/a
3468180	RECOG_CONF	n/a	LTP066	ltpFR	3	5	0	QUILT	1151	5	1	n/a	n/a	n/a	n/a	n/a
3469650	RECOG_LURE	n/a	LTP066	ltpFR	3	5	n/a	COCOON	339	4	n/a	n/a	n/a	n/a	n/a	n/a
3470505	RECOG_RESP	n/a	LTP066	ltpFR	3	5	n/a	COCOON	339	n/a	n/a	n/a	n/a	n/a	n/a	n/a
3471582	RECOG_CONF	n/a	LTP066	ltpFR	3	5	n/a	COCOON	339	4	n/a	n/a	n/a	n/a	n/a	n/a
3475925	REC_START	n/a	LTP066	ltpFR	3	6	n/a	n/a	n/a	n/a	n/a	n/a	n/a	n/a	n/a	n/a
3475957	RECOG_TARGET	n/a	LTP066	ltpFR	3	6	0	ANTEATER	26	5	1	n/a	n/a	n/a	n/a	n/a
3476538	RECOG_RESP	n/a	LTP066	ltpFR	3	6	0	ANTEATER	26	n/a	1	n/a	n/a	n/a	n/a	n/a
3477476	RECOG_CONF	n/a	LTP066	ltpFR	3	6	0	ANTEATER	26	5	1	n/a	n/a	n/a	n/a	n/a
3478982	RECOG_TARGET	n/a	LTP066	ltpFR	3	6	1	BUS	201	5	0	n/a	n/a	n/a	n/a	n/a
3479502	RECOG_RESP	n/a	LTP066	ltpFR	3	6	1	BUS	201	n/a	0	n/a	n/a	n/a	n/a	n/a
3480430	RECOG_CONF	n/a	LTP066	ltpFR	3	6	1	BUS	201	5	0	n/a	n/a	n/a	n/a	n/a
3481815	RECOG_LURE	n/a	LTP066	ltpFR	3	6	n/a	OAR	966	3	n/a	n/a	n/a	n/a	n/a	n/a
3483223	RECOG_RESP	n/a	LTP066	ltpFR	3	6	n/a	OAR	966	n/a	n/a	n/a	n/a	n/a	n/a	n/a
3484301	RECOG_CONF	n/a	LTP066	ltpFR	3	6	n/a	OAR	966	3	n/a	n/a	n/a	n/a	n/a	n/a
3485757	RECOG_LURE	n/a	LTP066	ltpFR	3	6	n/a	PIZZA	1079	5	n/a	n/a	n/a	n/a	n/a	n/a
3486356	RECOG_RESP	n/a	LTP066	ltpFR	3	6	n/a	PIZZA	1079	n/a	n/a	n/a	n/a	n/a	n/a	n/a
3487334	RECOG_CONF	n/a	LTP066	ltpFR	3	6	n/a	PIZZA	1079	5	n/a	n/a	n/a	n/a	n/a	n/a
3488823	RECOG_TARGET	n/a	LTP066	ltpFR	3	6	0	TEACHER	1440	5	1	n/a	n/a	n/a	n/a	n/a
3489399	RECOG_RESP	n/a	LTP066	ltpFR	3	6	0	TEACHER	1440	n/a	1	n/a	n/a	n/a	n/a	n/a
3490387	RECOG_CONF	n/a	LTP066	ltpFR	3	6	0	TEACHER	1440	5	1	n/a	n/a	n/a	n/a	n/a
3491922	RECOG_TARGET	n/a	LTP066	ltpFR	3	6	0	DUMP	505	4	1	n/a	n/a	n/a	n/a	n/a
3493420	RECOG_RESP	n/a	LTP066	ltpFR	3	6	0	DUMP	505	n/a	1	n/a	n/a	n/a	n/a	n/a
3494378	RECOG_CONF	n/a	LTP066	ltpFR	3	6	0	DUMP	505	4	1	n/a	n/a	n/a	n/a	n/a
3495947	RECOG_TARGET	n/a	LTP066	ltpFR	3	6	-1	OCTOPUS	971	5	-1	n/a	n/a	n/a	n/a	n/a
3496383	RECOG_RESP	n/a	LTP066	ltpFR	3	6	-1	OCTOPUS	971	n/a	-1	n/a	n/a	n/a	n/a	n/a
3497311	RECOG_CONF	n/a	LTP066	ltpFR	3	6	-1	OCTOPUS	971	5	-1	n/a	n/a	n/a	n/a	n/a
3498805	RECOG_TARGET	n/a	LTP066	ltpFR	3	6	-1	LIST	830	5	-1	n/a	n/a	n/a	n/a	n/a
3499726	RECOG_RESP	n/a	LTP066	ltpFR	3	6	-1	LIST	830	n/a	-1	n/a	n/a	n/a	n/a	n/a
3500723	RECOG_CONF	n/a	LTP066	ltpFR	3	6	-1	LIST	830	5	-1	n/a	n/a	n/a	n/a	n/a
3502506	RECOG_LURE	n/a	LTP066	ltpFR	3	6	n/a	ANT	25	4	n/a	n/a	n/a	n/a	n/a	n/a
3503248	RECOG_RESP	n/a	LTP066	ltpFR	3	6	n/a	ANT	25	n/a	n/a	n/a	n/a	n/a	n/a	n/a
3504225	RECOG_CONF	n/a	LTP066	ltpFR	3	6	n/a	ANT	25	4	n/a	n/a	n/a	n/a	n/a	n/a
3505656	RECOG_LURE	n/a	LTP066	ltpFR	3	6	n/a	FORT	595	3	n/a	n/a	n/a	n/a	n/a	n/a
3506550	RECOG_RESP	n/a	LTP066	ltpFR	3	6	n/a	FORT	595	n/a	n/a	n/a	n/a	n/a	n/a	n/a
3507578	RECOG_CONF	n/a	LTP066	ltpFR	3	6	n/a	FORT	595	3	n/a	n/a	n/a	n/a	n/a	n/a
3509213	RECOG_TARGET	n/a	LTP066	ltpFR	3	6	-1	SPARROW	1347	5	-1	n/a	n/a	n/a	n/a	n/a
3509703	RECOG_RESP	n/a	LTP066	ltpFR	3	6	-1	SPARROW	1347	n/a	-1	n/a	n/a	n/a	n/a	n/a
3510671	RECOG_CONF	n/a	LTP066	ltpFR	3	6	-1	SPARROW	1347	5	-1	n/a	n/a	n/a	n/a	n/a
3512213	RECOG_TARGET	n/a	LTP066	ltpFR	3	6	0	DOORBELL	487	5	0	n/a	n/a	n/a	n/a	n/a
3512816	RECOG_RESP	n/a	LTP066	ltpFR	3	6	0	DOORBELL	487	n/a	0	n/a	n/a	n/a	n/a	n/a
3513894	RECOG_CONF	n/a	LTP066	ltpFR	3	6	0	DOORBELL	487	5	0	n/a	n/a	n/a	n/a	n/a
3515355	RECOG_TARGET	n/a	LTP066	ltpFR	3	6	-1	STADIUM	1364	5	-1	n/a	n/a	n/a	n/a	n/a
3515869	RECOG_RESP	n/a	LTP066	ltpFR	3	6	-1	STADIUM	1364	n/a	-1	n/a	n/a	n/a	n/a	n/a
3516927	RECOG_CONF	n/a	LTP066	ltpFR	3	6	-1	STADIUM	1364	5	-1	n/a	n/a	n/a	n/a	n/a
3518488	RECOG_LURE	n/a	LTP066	ltpFR	3	6	n/a	SATURN	1236	4	n/a	n/a	n/a	n/a	n/a	n/a
3519970	RECOG_RESP	n/a	LTP066	ltpFR	3	6	n/a	SATURN	1236	n/a	n/a	n/a	n/a	n/a	n/a	n/a
3521307	RECOG_CONF	n/a	LTP066	ltpFR	3	6	n/a	SATURN	1236	4	n/a	n/a	n/a	n/a	n/a	n/a
3522878	RECOG_TARGET	n/a	LTP066	ltpFR	3	6	0	POTATO	1115	5	0	n/a	n/a	n/a	n/a	n/a
3523312	RECOG_RESP	n/a	LTP066	ltpFR	3	6	0	POTATO	1115	n/a	0	n/a	n/a	n/a	n/a	n/a
3524290	RECOG_CONF	n/a	LTP066	ltpFR	3	6	0	POTATO	1115	5	0	n/a	n/a	n/a	n/a	n/a
3525788	RECOG_LURE	n/a	LTP066	ltpFR	3	6	n/a	IRON	744	4	n/a	n/a	n/a	n/a	n/a	n/a
3526275	RECOG_RESP_VV	n/a	LTP066	ltpFR	3	6	n/a	IRON	744	n/a	n/a	n/a	n/a	n/a	n/a	n/a
3527483	RECOG_RESP	n/a	LTP066	ltpFR	3	6	n/a	IRON	744	n/a	n/a	n/a	n/a	n/a	n/a	n/a
3528700	RECOG_CONF	n/a	LTP066	ltpFR	3	6	n/a	IRON	744	4	n/a	n/a	n/a	n/a	n/a	n/a
3530287	RECOG_TARGET	n/a	LTP066	ltpFR	3	6	0	BAIT	70	5	1	n/a	n/a	n/a	n/a	n/a
3530745	RECOG_RESP	n/a	LTP066	ltpFR	3	6	0	BAIT	70	n/a	1	n/a	n/a	n/a	n/a	n/a
3531733	RECOG_CONF	n/a	LTP066	ltpFR	3	6	0	BAIT	70	5	1	n/a	n/a	n/a	n/a	n/a
3533169	RECOG_TARGET	n/a	LTP066	ltpFR	3	6	0	MUSTARD	935	5	0	n/a	n/a	n/a	n/a	n/a
3533788	RECOG_RESP	n/a	LTP066	ltpFR	3	6	0	MUSTARD	935	n/a	0	n/a	n/a	n/a	n/a	n/a
3534906	RECOG_CONF	n/a	LTP066	ltpFR	3	6	0	MUSTARD	935	5	0	n/a	n/a	n/a	n/a	n/a
3536487	RECOG_TARGET	n/a	LTP066	ltpFR	3	6	0	ANTENNA	28	5	1	n/a	n/a	n/a	n/a	n/a
3537081	RECOG_RESP	n/a	LTP066	ltpFR	3	6	0	ANTENNA	28	n/a	1	n/a	n/a	n/a	n/a	n/a
3538208	RECOG_CONF	n/a	LTP066	ltpFR	3	6	0	ANTENNA	28	5	1	n/a	n/a	n/a	n/a	n/a
3539811	RECOG_TARGET	n/a	LTP066	ltpFR	3	6	1	GRAVEL	659	5	0	n/a	n/a	n/a	n/a	n/a
3540413	RECOG_RESP	n/a	LTP066	ltpFR	3	6	1	GRAVEL	659	n/a	0	n/a	n/a	n/a	n/a	n/a
3541451	RECOG_CONF	n/a	LTP066	ltpFR	3	6	1	GRAVEL	659	5	0	n/a	n/a	n/a	n/a	n/a
3546578	REC_START	n/a	LTP066	ltpFR	3	7	n/a	n/a	n/a	n/a	n/a	n/a	n/a	n/a	n/a	n/a
3546611	RECOG_TARGET	n/a	LTP066	ltpFR	3	7	1	LEAF	808	5	n/a	n/a	n/a	n/a	n/a	n/a
3547117	RECOG_RESP	n/a	LTP066	ltpFR	3	7	1	LEAF	808	n/a	n/a	n/a	n/a	n/a	n/a	n/a
3548179	RECOG_CONF	n/a	LTP066	ltpFR	3	7	1	LEAF	808	5	n/a	n/a	n/a	n/a	n/a	n/a
3549661	RECOG_LURE	n/a	LTP066	ltpFR	3	7	n/a	TYPIST	1532	4	n/a	n/a	n/a	n/a	n/a	n/a
3550180	RECOG_RESP_VV	n/a	LTP066	ltpFR	3	7	n/a	TYPIST	1532	n/a	n/a	n/a	n/a	n/a	n/a	n/a
3551182	RECOG_RESP	n/a	LTP066	ltpFR	3	7	n/a	TYPIST	1532	n/a	n/a	n/a	n/a	n/a	n/a	n/a
3552380	RECOG_CONF	n/a	LTP066	ltpFR	3	7	n/a	TYPIST	1532	4	n/a	n/a	n/a	n/a	n/a	n/a
3553868	RECOG_LURE	n/a	LTP066	ltpFR	3	7	n/a	VILLAIN	1567	4	n/a	n/a	n/a	n/a	n/a	n/a
3554290	RECOG_RESP_VV	n/a	LTP066	ltpFR	3	7	n/a	VILLAIN	1567	n/a	n/a	n/a	n/a	n/a	n/a	n/a
3555313	RECOG_RESP	n/a	LTP066	ltpFR	3	7	n/a	VILLAIN	1567	n/a	n/a	n/a	n/a	n/a	n/a	n/a
3556670	RECOG_CONF	n/a	LTP066	ltpFR	3	7	n/a	VILLAIN	1567	4	n/a	n/a	n/a	n/a	n/a	n/a
3558277	RECOG_TARGET	n/a	LTP066	ltpFR	3	7	1	BRUISE	180	5	0	n/a	n/a	n/a	n/a	n/a
3558795	RECOG_RESP	n/a	LTP066	ltpFR	3	7	1	BRUISE	180	n/a	0	n/a	n/a	n/a	n/a	n/a
3559803	RECOG_CONF	n/a	LTP066	ltpFR	3	7	1	BRUISE	180	5	0	n/a	n/a	n/a	n/a	n/a
3561335	RECOG_LURE	n/a	LTP066	ltpFR	3	7	n/a	BABY	64	4	n/a	n/a	n/a	n/a	n/a	n/a
3562147	RECOG_RESP	n/a	LTP066	ltpFR	3	7	n/a	BABY	64	n/a	n/a	n/a	n/a	n/a	n/a	n/a
3563105	RECOG_CONF	n/a	LTP066	ltpFR	3	7	n/a	BABY	64	4	n/a	n/a	n/a	n/a	n/a	n/a
3564676	RECOG_LURE	n/a	LTP066	ltpFR	3	7	n/a	BASKETBALL	96	3	n/a	n/a	n/a	n/a	n/a	n/a
3565121	RECOG_RESP	n/a	LTP066	ltpFR	3	7	n/a	BASKETBALL	96	n/a	n/a	n/a	n/a	n/a	n/a	n/a
3566318	RECOG_CONF	n/a	LTP066	ltpFR	3	7	n/a	BASKETBALL	96	3	n/a	n/a	n/a	n/a	n/a	n/a
3567975	RECOG_LURE	n/a	LTP066	ltpFR	3	7	n/a	BEDROOM	111	5	n/a	n/a	n/a	n/a	n/a	n/a
3568992	RECOG_RESP	n/a	LTP066	ltpFR	3	7	n/a	BEDROOM	111	n/a	n/a	n/a	n/a	n/a	n/a	n/a
3569900	RECOG_CONF	n/a	LTP066	ltpFR	3	7	n/a	BEDROOM	111	5	n/a	n/a	n/a	n/a	n/a	n/a
3571351	RECOG_TARGET	n/a	LTP066	ltpFR	3	7	1	PUMP	1141	5	0	n/a	n/a	n/a	n/a	n/a
3572035	RECOG_RESP	n/a	LTP066	ltpFR	3	7	1	PUMP	1141	n/a	0	n/a	n/a	n/a	n/a	n/a
3573063	RECOG_CONF	n/a	LTP066	ltpFR	3	7	1	PUMP	1141	5	0	n/a	n/a	n/a	n/a	n/a
3574534	RECOG_TARGET	n/a	LTP066	ltpFR	3	7	-1	AUTOMOBILE	62	5	-1	n/a	n/a	n/a	n/a	n/a
3575043	RECOG_RESP	n/a	LTP066	ltpFR	3	7	-1	AUTOMOBILE	62	n/a	-1	n/a	n/a	n/a	n/a	n/a
3576106	RECOG_CONF	n/a	LTP066	ltpFR	3	7	-1	AUTOMOBILE	62	5	-1	n/a	n/a	n/a	n/a	n/a
3577767	RECOG_LURE	n/a	LTP066	ltpFR	3	7	n/a	BRAIN	165	4	n/a	n/a	n/a	n/a	n/a	n/a
3578540	RECOG_RESP	n/a	LTP066	ltpFR	3	7	n/a	BRAIN	165	n/a	n/a	n/a	n/a	n/a	n/a	n/a
3579508	RECOG_CONF	n/a	LTP066	ltpFR	3	7	n/a	BRAIN	165	4	n/a	n/a	n/a	n/a	n/a	n/a
3580933	RECOG_LURE	n/a	LTP066	ltpFR	3	7	n/a	PUMPKIN	1142	3	n/a	n/a	n/a	n/a	n/a	n/a
3581429	RECOG_RESP_VV	n/a	LTP066	ltpFR	3	7	n/a	PUMPKIN	1142	n/a	n/a	n/a	n/a	n/a	n/a	n/a
3582451	RECOG_RESP	n/a	LTP066	ltpFR	3	7	n/a	PUMPKIN	1142	n/a	n/a	n/a	n/a	n/a	n/a	n/a
3583883	RECOG_CONF	n/a	LTP066	ltpFR	3	7	n/a	PUMPKIN	1142	3	n/a	n/a	n/a	n/a	n/a	n/a
3585625	RECOG_LURE	n/a	LTP066	ltpFR	3	7	n/a	ANTELOPE	27	4	n/a	n/a	n/a	n/a	n/a	n/a
3586138	RECOG_RESP_VV	n/a	LTP066	ltpFR	3	7	n/a	ANTELOPE	27	n/a	n/a	n/a	n/a	n/a	n/a	n/a
3587729	RECOG_RESP	n/a	LTP066	ltpFR	3	7	n/a	ANTELOPE	27	n/a	n/a	n/a	n/a	n/a	n/a	n/a
3589026	RECOG_CONF	n/a	LTP066	ltpFR	3	7	n/a	ANTELOPE	27	4	n/a	n/a	n/a	n/a	n/a	n/a
3590650	RECOG_LURE	n/a	LTP066	ltpFR	3	7	n/a	CRAB	397	4	n/a	n/a	n/a	n/a	n/a	n/a
3591122	RECOG_RESP_VV	n/a	LTP066	ltpFR	3	7	n/a	CRAB	397	n/a	n/a	n/a	n/a	n/a	n/a	n/a
3592209	RECOG_RESP	n/a	LTP066	ltpFR	3	7	n/a	CRAB	397	n/a	n/a	n/a	n/a	n/a	n/a	n/a
3593576	RECOG_CONF	n/a	LTP066	ltpFR	3	7	n/a	CRAB	397	4	n/a	n/a	n/a	n/a	n/a	n/a
3595115	RECOG_LURE	n/a	LTP066	ltpFR	3	7	n/a	TORTOISE	1486	5	n/a	n/a	n/a	n/a	n/a	n/a
3596120	RECOG_RESP	n/a	LTP066	ltpFR	3	7	n/a	TORTOISE	1486	n/a	n/a	n/a	n/a	n/a	n/a	n/a
3597108	RECOG_CONF	n/a	LTP066	ltpFR	3	7	n/a	TORTOISE	1486	5	n/a	n/a	n/a	n/a	n/a	n/a
3598491	RECOG_LURE	n/a	LTP066	ltpFR	3	7	n/a	PIE	1062	5	n/a	n/a	n/a	n/a	n/a	n/a
3599253	RECOG_RESP	n/a	LTP066	ltpFR	3	7	n/a	PIE	1062	n/a	n/a	n/a	n/a	n/a	n/a	n/a
3600231	RECOG_CONF	n/a	LTP066	ltpFR	3	7	n/a	PIE	1062	5	n/a	n/a	n/a	n/a	n/a	n/a
3601774	RECOG_TARGET	n/a	LTP066	ltpFR	3	7	0	WINDSHIELD	1612	5	1	n/a	n/a	n/a	n/a	n/a
3602685	RECOG_RESP	n/a	LTP066	ltpFR	3	7	0	WINDSHIELD	1612	n/a	1	n/a	n/a	n/a	n/a	n/a
3603793	RECOG_CONF	n/a	LTP066	ltpFR	3	7	0	WINDSHIELD	1612	5	1	n/a	n/a	n/a	n/a	n/a
3605282	RECOG_LURE	n/a	LTP066	ltpFR	3	7	n/a	NAPKIN	937	5	n/a	n/a	n/a	n/a	n/a	n/a
3606127	RECOG_RESP	n/a	LTP066	ltpFR	3	7	n/a	NAPKIN	937	n/a	n/a	n/a	n/a	n/a	n/a	n/a
3607075	RECOG_CONF	n/a	LTP066	ltpFR	3	7	n/a	NAPKIN	937	5	n/a	n/a	n/a	n/a	n/a	n/a
3608632	RECOG_TARGET	n/a	LTP066	ltpFR	3	7	0	GOLD	647	5	1	n/a	n/a	n/a	n/a	n/a
3609275	RECOG_RESP	n/a	LTP066	ltpFR	3	7	0	GOLD	647	n/a	1	n/a	n/a	n/a	n/a	n/a
3610348	RECOG_CONF	n/a	LTP066	ltpFR	3	7	0	GOLD	647	5	1	n/a	n/a	n/a	n/a	n/a
