mstime	trial_type	stim_file	subject	experiment	session	trial	item_name	item_num	list	answer	test_x	test_y	test_z
0	SESS_START	n/a	LTP331	ltpFR2	0	n/a	n/a	n/a	n/a	n/a	0	0	0
149103	START	n/a	LTP331	ltpFR2	0	n/a	n/a	n/a	-1	n/a	n/a	n/a	n/a
149134	PROB	n/a	LTP331	ltpFR2	0	n/a	n/a	n/a	-1	10	2	4	4
152182	PROB	n/a	LTP331	ltpFR2	0	n/a	n/a	n/a	-1	20	6	8	6
154831	PROB	n/a	LTP331	ltpFR2	0	n/a	n/a	n/a	-1	19	9	9	1
158679	PROB	n/a	LTP331	ltpFR2	0	n/a	n/a	n/a	-1	14	5	4	5
160574	STOP	n/a	LTP331	ltpFR2	0	n/a	n/a	n/a	-1	n/a	n/a	n/a	n/a
431005	WORD	wordpools/wasnorm_wordpool_576.txt	LTP331	ltpFR2	0	1	VICTIM	1562	n/a	n/a	0	0	0
433705	WORD	wordpools/wasnorm_wordpool_576.txt	LTP331	ltpFR2	0	1	HATCHET	691	n/a	n/a	0	0	0
436504	WORD	wordpools/wasnorm_wordpool_576.txt	LTP331	ltpFR2	0	1	MOTOR	922	n/a	n/a	0	0	0
439102	WORD	wordpools/wasnorm_wordpool_576.txt	LTP331	ltpFR2	0	1	PUDDLE	1140	n/a	n/a	0	0	0
441818	WORD	wordpools/wasnorm_wordpool_576.txt	LTP331	ltpFR2	0	1	SODA	1341	n/a	n/a	0	0	0
444517	WORD	wordpools/wasnorm_wordpool_576.txt	LTP331	ltpFR2	0	1	PICNIC	1060	n/a	n/a	0	0	0
446981	WORD	wordpools/wasnorm_wordpool_576.txt	LTP331	ltpFR2	0	1	JUDGE	761	n/a	n/a	0	0	0
449631	WORD	wordpools/wasnorm_wordpool_576.txt	LTP331	ltpFR2	0	1	GUARD	667	n/a	n/a	0	0	0
452113	WORD	wordpools/wasnorm_wordpool_576.txt	LTP331	ltpFR2	0	1	BOUQUET	157	n/a	n/a	0	0	0
454862	WORD	wordpools/wasnorm_wordpool_576.txt	LTP331	ltpFR2	0	1	FIREPLACE	570	n/a	n/a	0	0	0
457611	WORD	wordpools/wasnorm_wordpool_576.txt	LTP331	ltpFR2	0	1	GALLON	618	n/a	n/a	0	0	0
460043	WORD	wordpools/wasnorm_wordpool_576.txt	LTP331	ltpFR2	0	1	ANKLE	24	n/a	n/a	0	0	0
462608	WORD	wordpools/wasnorm_wordpool_576.txt	LTP331	ltpFR2	0	1	SUBWAY	1400	n/a	n/a	0	0	0
465157	WORD	wordpools/wasnorm_wordpool_576.txt	LTP331	ltpFR2	0	1	PLAID	1080	n/a	n/a	0	0	0
467806	WORD	wordpools/wasnorm_wordpool_576.txt	LTP331	ltpFR2	0	1	LAPEL	800	n/a	n/a	0	0	0
470438	WORD	wordpools/wasnorm_wordpool_576.txt	LTP331	ltpFR2	0	1	HEDGE	699	n/a	n/a	0	0	0
472903	WORD	wordpools/wasnorm_wordpool_576.txt	LTP331	ltpFR2	0	1	CARRIAGE	248	n/a	n/a	0	0	0
475503	WORD	wordpools/wasnorm_wordpool_576.txt	LTP331	ltpFR2	0	1	SURVEY	1414	n/a	n/a	0	0	0
478268	WORD	wordpools/wasnorm_wordpool_576.txt	LTP331	ltpFR2	0	1	ONION	977	n/a	n/a	0	0	0
480949	WORD	wordpools/wasnorm_wordpool_576.txt	LTP331	ltpFR2	0	1	DASHBOARD	441	n/a	n/a	0	0	0
483732	WORD	wordpools/wasnorm_wordpool_576.txt	LTP331	ltpFR2	0	1	POLICE	1098	n/a	n/a	0	0	0
486248	WORD	wordpools/wasnorm_wordpool_576.txt	LTP331	ltpFR2	0	1	POSTAGE	1113	n/a	n/a	0	0	0
488979	WORD	wordpools/wasnorm_wordpool_576.txt	LTP331	ltpFR2	0	1	MUFFIN	929	n/a	n/a	0	0	0
491495	WORD	wordpools/wasnorm_wordpool_576.txt	LTP331	ltpFR2	0	1	TOASTER	1472	n/a	n/a	0	0	0
493111	START	n/a	LTP331	ltpFR2	0	n/a	n/a	n/a	1	n/a	n/a	n/a	n/a
494139	DISTRACTOR	n/a	LTP331	ltpFR2	0	1	n/a	n/a	n/a	n/a	0	0	0
494144	PROB	n/a	LTP331	ltpFR2	0	n/a	n/a	n/a	1	18	5	6	7
497343	PROB	n/a	LTP331	ltpFR2	0	n/a	n/a	n/a	1	7	1	1	5
499358	PROB	n/a	LTP331	ltpFR2	0	n/a	n/a	n/a	1	18	4	6	8
501557	PROB	n/a	LTP331	ltpFR2	0	n/a	n/a	n/a	1	16	2	6	8
504123	PROB	n/a	LTP331	ltpFR2	0	n/a	n/a	n/a	1	18	8	1	9
506255	PROB	n/a	LTP331	ltpFR2	0	n/a	n/a	n/a	1	17	2	9	6
508288	PROB	n/a	LTP331	ltpFR2	0	n/a	n/a	n/a	1	13	2	8	3
510104	PROB	n/a	LTP331	ltpFR2	0	n/a	n/a	n/a	1	11	5	5	1
511520	PROB	n/a	LTP331	ltpFR2	0	n/a	n/a	n/a	1	13	9	1	3
513302	PROB	n/a	LTP331	ltpFR2	0	n/a	n/a	n/a	1	12	2	1	9
515451	PROB	n/a	LTP331	ltpFR2	0	n/a	n/a	n/a	1	11	4	6	1
516904	STOP	n/a	LTP331	ltpFR2	0	n/a	n/a	n/a	1	n/a	n/a	n/a	n/a
518867	REC_START	n/a	LTP331	ltpFR2	0	1	n/a	n/a	n/a	n/a	0	0	0
521177	REC_WORD	wordpools/wasnorm_wordpool_576.txt	LTP331	ltpFR2	0	1	CARRIAGE	248	n/a	n/a	0	0	0
521809	REC_WORD	wordpools/wasnorm_wordpool_576.txt	LTP331	ltpFR2	0	1	ONION	977	n/a	n/a	0	0	0
522241	REC_WORD	wordpools/wasnorm_wordpool_576.txt	LTP331	ltpFR2	0	1	DASHBOARD	441	n/a	n/a	0	0	0
523476	REC_WORD	wordpools/wasnorm_wordpool_576.txt	LTP331	ltpFR2	0	1	POLICE	1098	n/a	n/a	0	0	0
524407	REC_WORD	wordpools/wasnorm_wordpool_576.txt	LTP331	ltpFR2	0	1	POSTAGE	1113	n/a	n/a	0	0	0
525027	REC_WORD	wordpools/wasnorm_wordpool_576.txt	LTP331	ltpFR2	0	1	MUFFIN	929	n/a	n/a	0	0	0
525629	REC_WORD	wordpools/wasnorm_wordpool_576.txt	LTP331	ltpFR2	0	1	TOASTER	1472	n/a	n/a	0	0	0
527585	REC_WORD	wordpools/wasnorm_wordpool_576.txt	LTP331	ltpFR2	0	1	SURVEY	1414	n/a	n/a	0	0	0
528384	REC_WORD	wordpools/wasnorm_wordpool_576.txt	LTP331	ltpFR2	0	1	HEDGE	699	n/a	n/a	0	0	0
530266	REC_WORD	wordpools/wasnorm_wordpool_576.txt	LTP331	ltpFR2	0	1	ANKLE	24	n/a	n/a	0	0	0
530871	REC_WORD	wordpools/wasnorm_wordpool_576.txt	LTP331	ltpFR2	0	1	GALLON	618	n/a	n/a	0	0	0
532131	REC_WORD	wordpools/wasnorm_wordpool_576.txt	LTP331	ltpFR2	0	1	LAPEL	800	n/a	n/a	0	0	0
532913	REC_WORD	wordpools/wasnorm_wordpool_576.txt	LTP331	ltpFR2	0	1	LAPEL	800	n/a	n/a	0	0	0
535287	REC_WORD	wordpools/wasnorm_wordpool_576.txt	LTP331	ltpFR2	0	1	FIREPLACE	570	n/a	n/a	0	0	0
537682	REC_WORD	wordpools/wasnorm_wordpool_576.txt	LTP331	ltpFR2	0	1	SUBWAY	1400	n/a	n/a	0	0	0
538421	REC_WORD	wordpools/wasnorm_wordpool_576.txt	LTP331	ltpFR2	0	1	PLAID	1080	n/a	n/a	0	0	0
543082	REC_WORD	wordpools/wasnorm_wordpool_576.txt	LTP331	ltpFR2	0	1	VICTIM	1562	n/a	n/a	0	0	0
543576	REC_WORD	wordpools/wasnorm_wordpool_576.txt	LTP331	ltpFR2	0	1	HATCHET	691	n/a	n/a	0	0	0
545170	REC_WORD	wordpools/wasnorm_wordpool_576.txt	LTP331	ltpFR2	0	1	MOTOR	922	n/a	n/a	0	0	0
546216	REC_WORD	wordpools/wasnorm_wordpool_576.txt	LTP331	ltpFR2	0	1	PUDDLE	1140	n/a	n/a	0	0	0
546846	REC_WORD	wordpools/wasnorm_wordpool_576.txt	LTP331	ltpFR2	0	1	SODA	1341	n/a	n/a	0	0	0
547508	REC_WORD	wordpools/wasnorm_wordpool_576.txt	LTP331	ltpFR2	0	1	PICNIC	1060	n/a	n/a	0	0	0
549057	REC_WORD	wordpools/wasnorm_wordpool_576.txt	LTP331	ltpFR2	0	1	JUDGE	761	n/a	n/a	0	0	0
550280	REC_WORD	wordpools/wasnorm_wordpool_576.txt	LTP331	ltpFR2	0	1	GUARD	667	n/a	n/a	0	0	0
554256	REC_WORD	wordpools/wasnorm_wordpool_576.txt	LTP331	ltpFR2	0	1	BOUQUET	157	n/a	n/a	0	0	0
584216	REC_WORD	wordpools/wasnorm_wordpool_576.txt	LTP331	ltpFR2	0	1	ONION	977	n/a	n/a	0	0	0
667166	WORD	wordpools/wasnorm_wordpool_576.txt	LTP331	ltpFR2	0	2	DRUG	501	n/a	n/a	0	0	0
669698	WORD	wordpools/wasnorm_wordpool_576.txt	LTP331	ltpFR2	0	2	IDOL	733	n/a	n/a	0	0	0
672413	WORD	wordpools/wasnorm_wordpool_576.txt	LTP331	ltpFR2	0	2	VALLEY	1545	n/a	n/a	0	0	0
675162	WORD	wordpools/wasnorm_wordpool_576.txt	LTP331	ltpFR2	0	2	PLAYGROUND	1087	n/a	n/a	0	0	0
677877	WORD	wordpools/wasnorm_wordpool_576.txt	LTP331	ltpFR2	0	2	POCKET	1093	n/a	n/a	0	0	0
680626	WORD	wordpools/wasnorm_wordpool_576.txt	LTP331	ltpFR2	0	2	PADDING	999	n/a	n/a	0	0	0
683358	WORD	wordpools/wasnorm_wordpool_576.txt	LTP331	ltpFR2	0	2	LIPSTICK	829	n/a	n/a	0	0	0
685956	WORD	wordpools/wasnorm_wordpool_576.txt	LTP331	ltpFR2	0	2	ROD	1203	n/a	n/a	0	0	0
688723	WORD	wordpools/wasnorm_wordpool_576.txt	LTP331	ltpFR2	0	2	MAPLE	866	n/a	n/a	0	0	0
691538	WORD	wordpools/wasnorm_wordpool_576.txt	LTP331	ltpFR2	0	2	SPHINX	1349	n/a	n/a	0	0	0
694370	WORD	wordpools/wasnorm_wordpool_576.txt	LTP331	ltpFR2	0	2	TILE	1468	n/a	n/a	0	0	0
696869	WORD	wordpools/wasnorm_wordpool_576.txt	LTP331	ltpFR2	0	2	PATROL	1027	n/a	n/a	0	0	0
699384	WORD	wordpools/wasnorm_wordpool_576.txt	LTP331	ltpFR2	0	2	OUTLAW	989	n/a	n/a	0	0	0
701949	WORD	wordpools/wasnorm_wordpool_576.txt	LTP331	ltpFR2	0	2	INMATE	738	n/a	n/a	0	0	0
704549	WORD	wordpools/wasnorm_wordpool_576.txt	LTP331	ltpFR2	0	2	COMPASS	358	n/a	n/a	0	0	0
707064	WORD	wordpools/wasnorm_wordpool_576.txt	LTP331	ltpFR2	0	2	HAND	683	n/a	n/a	0	0	0
709746	WORD	wordpools/wasnorm_wordpool_576.txt	LTP331	ltpFR2	0	2	PEBBLE	1035	n/a	n/a	0	0	0
712212	WORD	wordpools/wasnorm_wordpool_576.txt	LTP331	ltpFR2	0	2	NOVEL	960	n/a	n/a	0	0	0
714943	WORD	wordpools/wasnorm_wordpool_576.txt	LTP331	ltpFR2	0	2	AUTHOR	61	n/a	n/a	0	0	0
717493	WORD	wordpools/wasnorm_wordpool_576.txt	LTP331	ltpFR2	0	2	CRATER	400	n/a	n/a	0	0	0
720058	WORD	wordpools/wasnorm_wordpool_576.txt	LTP331	ltpFR2	0	2	SLOPE	1328	n/a	n/a	0	0	0
722624	WORD	wordpools/wasnorm_wordpool_576.txt	LTP331	ltpFR2	0	2	SUSPECT	1415	n/a	n/a	0	0	0
725323	WORD	wordpools/wasnorm_wordpool_576.txt	LTP331	ltpFR2	0	2	PILOT	1070	n/a	n/a	0	0	0
727954	WORD	wordpools/wasnorm_wordpool_576.txt	LTP331	ltpFR2	0	2	JEANS	752	n/a	n/a	0	0	0
729571	START	n/a	LTP331	ltpFR2	0	n/a	n/a	n/a	2	n/a	n/a	n/a	n/a
730651	DISTRACTOR	n/a	LTP331	ltpFR2	0	2	n/a	n/a	n/a	n/a	0	0	0
730654	PROB	n/a	LTP331	ltpFR2	0	n/a	n/a	n/a	2	20	6	7	7
733186	PROB	n/a	LTP331	ltpFR2	0	n/a	n/a	n/a	2	10	2	4	4
735751	PROB	n/a	LTP331	ltpFR2	0	n/a	n/a	n/a	2	9	3	1	5
737667	PROB	n/a	LTP331	ltpFR2	0	n/a	n/a	n/a	2	17	3	5	9
739799	PROB	n/a	LTP331	ltpFR2	0	n/a	n/a	n/a	2	14	1	4	9
741749	PROB	n/a	LTP331	ltpFR2	0	n/a	n/a	n/a	2	21	9	7	5
743897	PROB	n/a	LTP331	ltpFR2	0	n/a	n/a	n/a	2	7	1	1	5
745747	PROB	n/a	LTP331	ltpFR2	0	n/a	n/a	n/a	2	9	4	3	2
747429	PROB	n/a	LTP331	ltpFR2	0	n/a	n/a	n/a	2	24	8	9	7
750611	PROB	n/a	LTP331	ltpFR2	0	n/a	n/a	n/a	2	14	2	7	5
752344	STOP	n/a	LTP331	ltpFR2	0	n/a	n/a	n/a	2	n/a	n/a	n/a	n/a
755493	REC_START	n/a	LTP331	ltpFR2	0	2	n/a	n/a	n/a	n/a	0	0	0
758273	REC_WORD	wordpools/wasnorm_wordpool_576.txt	LTP331	ltpFR2	0	2	DRUG	501	n/a	n/a	0	0	0
758753	REC_WORD	wordpools/wasnorm_wordpool_576.txt	LTP331	ltpFR2	0	2	IDOL	733	n/a	n/a	0	0	0
760770	REC_WORD	wordpools/wasnorm_wordpool_576.txt	LTP331	ltpFR2	0	2	VALLEY	1545	n/a	n/a	0	0	0
761704	REC_WORD	wordpools/wasnorm_wordpool_576.txt	LTP331	ltpFR2	0	2	PLAYGROUND	1087	n/a	n/a	0	0	0
762757	REC_WORD	wordpools/wasnorm_wordpool_576.txt	LTP331	ltpFR2	0	2	TILE	1468	n/a	n/a	0	0	0
766027	REC_WORD	wordpools/wasnorm_wordpool_576.txt	LTP331	ltpFR2	0	2	POCKET	1093	n/a	n/a	0	0	0
766741	REC_WORD	wordpools/wasnorm_wordpool_576.txt	LTP331	ltpFR2	0	2	PADDING	999	n/a	n/a	0	0	0
768367	REC_WORD	wordpools/wasnorm_wordpool_576.txt	LTP331	ltpFR2	0	2	LIPSTICK	829	n/a	n/a	0	0	0
769184	REC_WORD	wordpools/wasnorm_wordpool_576.txt	LTP331	ltpFR2	0	2	ROD	1203	n/a	n/a	0	0	0
769849	REC_WORD	wordpools/wasnorm_wordpool_576.txt	LTP331	ltpFR2	0	2	MAPLE	866	n/a	n/a	0	0	0
770574	REC_WORD	wordpools/wasnorm_wordpool_576.txt	LTP331	ltpFR2	0	2	SPHINX	1349	n/a	n/a	0	0	0
772918	REC_WORD	wordpools/wasnorm_wordpool_576.txt	LTP331	ltpFR2	0	2	OUTLAW	989	n/a	n/a	0	0	0
774201	REC_WORD	wordpools/wasnorm_wordpool_576.txt	LTP331	ltpFR2	0	2	INMATE	738	n/a	n/a	0	0	0
777291	REC_WORD	wordpools/wasnorm_wordpool_576.txt	LTP331	ltpFR2	0	2	SUSPECT	1415	n/a	n/a	0	0	0
779039	REC_WORD	wordpools/wasnorm_wordpool_576.txt	LTP331	ltpFR2	0	2	PATROL	1027	n/a	n/a	0	0	0
781198	REC_WORD	wordpools/wasnorm_wordpool_576.txt	LTP331	ltpFR2	0	2	PEBBLE	1035	n/a	n/a	0	0	0
781625	REC_WORD	wordpools/wasnorm_wordpool_576.txt	LTP331	ltpFR2	0	2	HAND	683	n/a	n/a	0	0	0
782165	REC_WORD	wordpools/wasnorm_wordpool_576.txt	LTP331	ltpFR2	0	2	COMPASS	358	n/a	n/a	0	0	0
784769	REC_WORD	wordpools/wasnorm_wordpool_576.txt	LTP331	ltpFR2	0	2	NOVEL	960	n/a	n/a	0	0	0
785789	REC_WORD	wordpools/wasnorm_wordpool_576.txt	LTP331	ltpFR2	0	2	AUTHOR	61	n/a	n/a	0	0	0
788607	REC_WORD	wordpools/wasnorm_wordpool_576.txt	LTP331	ltpFR2	0	2	PILOT	1070	n/a	n/a	0	0	0
789204	REC_WORD	wordpools/wasnorm_wordpool_576.txt	LTP331	ltpFR2	0	2	CRATER	400	n/a	n/a	0	0	0
789676	REC_WORD	wordpools/wasnorm_wordpool_576.txt	LTP331	ltpFR2	0	2	SLOPE	1328	n/a	n/a	0	0	0
796285	REC_WORD	wordpools/wasnorm_wordpool_576.txt	LTP331	ltpFR2	0	2	JEANS	752	n/a	n/a	0	0	0
845917	DISTRACTOR	n/a	LTP331	ltpFR2	0	3	n/a	n/a	n/a	n/a	0	0	0
845917	START	n/a	LTP331	ltpFR2	0	n/a	n/a	n/a	3	n/a	n/a	n/a	n/a
845934	PROB	n/a	LTP331	ltpFR2	0	n/a	n/a	n/a	3	18	5	9	4
848617	PROB	n/a	LTP331	ltpFR2	0	n/a	n/a	n/a	3	19	9	6	4
850733	PROB	n/a	LTP331	ltpFR2	0	n/a	n/a	n/a	3	22	8	7	7
852598	PROB	n/a	LTP331	ltpFR2	0	n/a	n/a	n/a	3	18	9	5	4
854896	PROB	n/a	LTP331	ltpFR2	0	n/a	n/a	n/a	3	14	9	3	2
856879	PROB	n/a	LTP331	ltpFR2	0	n/a	n/a	n/a	3	18	5	5	8
858812	PROB	n/a	LTP331	ltpFR2	0	n/a	n/a	n/a	3	13	2	4	7
860861	PROB	n/a	LTP331	ltpFR2	0	n/a	n/a	n/a	3	12	1	4	7
862594	PROB	n/a	LTP331	ltpFR2	0	n/a	n/a	n/a	3	17	4	7	6
864892	PROB	n/a	LTP331	ltpFR2	0	n/a	n/a	n/a	3	11	1	7	3
866509	PROB	n/a	LTP331	ltpFR2	0	n/a	n/a	n/a	3	10	8	1	1
867990	PROB	n/a	LTP331	ltpFR2	0	n/a	n/a	n/a	3	10	2	4	4
869532	STOP	n/a	LTP331	ltpFR2	0	n/a	n/a	n/a	3	n/a	n/a	n/a	n/a
870857	WORD	wordpools/wasnorm_wordpool_576.txt	LTP331	ltpFR2	0	3	COUSIN	392	n/a	n/a	0	0	0
873489	WORD	wordpools/wasnorm_wordpool_576.txt	LTP331	ltpFR2	0	3	COIN	343	n/a	n/a	0	0	0
876071	WORD	wordpools/wasnorm_wordpool_576.txt	LTP331	ltpFR2	0	3	FIDDLE	561	n/a	n/a	0	0	0
878570	WORD	wordpools/wasnorm_wordpool_576.txt	LTP331	ltpFR2	0	3	RECEIPT	1173	n/a	n/a	0	0	0
881235	WORD	wordpools/wasnorm_wordpool_576.txt	LTP331	ltpFR2	0	3	SLIME	1327	n/a	n/a	0	0	0
883734	WORD	wordpools/wasnorm_wordpool_576.txt	LTP331	ltpFR2	0	3	BLADE	134	n/a	n/a	0	0	0
886300	WORD	wordpools/wasnorm_wordpool_576.txt	LTP331	ltpFR2	0	3	CASKET	255	n/a	n/a	0	0	0
888849	WORD	wordpools/wasnorm_wordpool_576.txt	LTP331	ltpFR2	0	3	POISON	1096	n/a	n/a	0	0	0
891431	WORD	wordpools/wasnorm_wordpool_576.txt	LTP331	ltpFR2	0	3	PEPPER	1047	n/a	n/a	0	0	0
893863	WORD	wordpools/wasnorm_wordpool_576.txt	LTP331	ltpFR2	0	3	MISSILE	900	n/a	n/a	0	0	0
896612	WORD	wordpools/wasnorm_wordpool_576.txt	LTP331	ltpFR2	0	3	PISTOL	1075	n/a	n/a	0	0	0
899227	WORD	wordpools/wasnorm_wordpool_576.txt	LTP331	ltpFR2	0	3	THREAD	1460	n/a	n/a	0	0	0
901975	WORD	wordpools/wasnorm_wordpool_576.txt	LTP331	ltpFR2	0	3	FUNGUS	614	n/a	n/a	0	0	0
904508	WORD	wordpools/wasnorm_wordpool_576.txt	LTP331	ltpFR2	0	3	GARLIC	624	n/a	n/a	0	0	0
907224	WORD	wordpools/wasnorm_wordpool_576.txt	LTP331	ltpFR2	0	3	JUNGLE	764	n/a	n/a	0	0	0
909806	WORD	wordpools/wasnorm_wordpool_576.txt	LTP331	ltpFR2	0	3	CHAMPAGNE	278	n/a	n/a	0	0	0
912355	WORD	wordpools/wasnorm_wordpool_576.txt	LTP331	ltpFR2	0	3	DAISY	435	n/a	n/a	0	0	0
915087	WORD	wordpools/wasnorm_wordpool_576.txt	LTP331	ltpFR2	0	3	ANTLER	29	n/a	n/a	0	0	0
917852	WORD	wordpools/wasnorm_wordpool_576.txt	LTP331	ltpFR2	0	3	GAZELLE	628	n/a	n/a	0	0	0
920584	WORD	wordpools/wasnorm_wordpool_576.txt	LTP331	ltpFR2	0	3	CHAUFFEUR	283	n/a	n/a	0	0	0
923300	WORD	wordpools/wasnorm_wordpool_576.txt	LTP331	ltpFR2	0	3	DRAGON	492	n/a	n/a	0	0	0
925782	WORD	wordpools/wasnorm_wordpool_576.txt	LTP331	ltpFR2	0	3	ROCKET	1202	n/a	n/a	0	0	0
928564	WORD	wordpools/wasnorm_wordpool_576.txt	LTP331	ltpFR2	0	3	BROTHER	179	n/a	n/a	0	0	0
931379	WORD	wordpools/wasnorm_wordpool_576.txt	LTP331	ltpFR2	0	3	CLOTHES	327	n/a	n/a	0	0	0
932995	START	n/a	LTP331	ltpFR2	0	n/a	n/a	n/a	4	n/a	n/a	n/a	n/a
934151	DISTRACTOR	n/a	LTP331	ltpFR2	0	3	n/a	n/a	n/a	n/a	0	0	0
934161	PROB	n/a	LTP331	ltpFR2	0	n/a	n/a	n/a	4	12	7	2	3
936527	PROB	n/a	LTP331	ltpFR2	0	n/a	n/a	n/a	4	15	7	3	5
938859	PROB	n/a	LTP331	ltpFR2	0	n/a	n/a	n/a	4	9	1	7	1
940891	PROB	n/a	LTP331	ltpFR2	0	n/a	n/a	n/a	4	7	1	4	2
942741	PROB	n/a	LTP331	ltpFR2	0	n/a	n/a	n/a	4	16	5	6	5
944673	PROB	n/a	LTP331	ltpFR2	0	n/a	n/a	n/a	4	18	1	8	9
946539	PROB	n/a	LTP331	ltpFR2	0	n/a	n/a	n/a	4	13	9	2	2
948488	PROB	n/a	LTP331	ltpFR2	0	n/a	n/a	n/a	4	10	1	8	1
950071	PROB	n/a	LTP331	ltpFR2	0	n/a	n/a	n/a	4	12	4	2	6
951703	PROB	n/a	LTP331	ltpFR2	0	n/a	n/a	n/a	4	12	1	2	9
953403	PROB	n/a	LTP331	ltpFR2	0	n/a	n/a	n/a	4	15	3	8	4
956995	STOP	n/a	LTP331	ltpFR2	0	n/a	n/a	n/a	4	n/a	n/a	n/a	n/a
958916	REC_START	n/a	LTP331	ltpFR2	0	3	n/a	n/a	n/a	n/a	0	0	0
961298	REC_WORD	wordpools/wasnorm_wordpool_576.txt	LTP331	ltpFR2	0	3	COUSIN	392	n/a	n/a	0	0	0
961864	REC_WORD	wordpools/wasnorm_wordpool_576.txt	LTP331	ltpFR2	0	3	COIN	343	n/a	n/a	0	0	0
962482	REC_WORD	wordpools/wasnorm_wordpool_576.txt	LTP331	ltpFR2	0	3	RECEIPT	1173	n/a	n/a	0	0	0
963194	REC_WORD	wordpools/wasnorm_wordpool_576.txt	LTP331	ltpFR2	0	3	SLIME	1327	n/a	n/a	0	0	0
965245	REC_WORD	wordpools/wasnorm_wordpool_576.txt	LTP331	ltpFR2	0	3	FIDDLE	561	n/a	n/a	0	0	0
967959	REC_WORD	wordpools/wasnorm_wordpool_576.txt	LTP331	ltpFR2	0	3	BLADE	134	n/a	n/a	0	0	0
970901	REC_WORD	wordpools/wasnorm_wordpool_576.txt	LTP331	ltpFR2	0	3	POISON	1096	n/a	n/a	0	0	0
971740	REC_WORD	wordpools/wasnorm_wordpool_576.txt	LTP331	ltpFR2	0	3	COFFIN	342	n/a	n/a	0	0	0
972467	REC_WORD	wordpools/wasnorm_wordpool_576.txt	LTP331	ltpFR2	0	3	PEPPER	1047	n/a	n/a	0	0	0
973763	REC_WORD	wordpools/wasnorm_wordpool_576.txt	LTP331	ltpFR2	0	3	MISSILE	900	n/a	n/a	0	0	0
975532	REC_WORD	wordpools/wasnorm_wordpool_576.txt	LTP331	ltpFR2	0	3	THREAD	1460	n/a	n/a	0	0	0
977039	REC_WORD	wordpools/wasnorm_wordpool_576.txt	LTP331	ltpFR2	0	3	PISTOL	1075	n/a	n/a	0	0	0
979265	REC_WORD	wordpools/wasnorm_wordpool_576.txt	LTP331	ltpFR2	0	3	FUNGUS	614	n/a	n/a	0	0	0
980033	REC_WORD	wordpools/wasnorm_wordpool_576.txt	LTP331	ltpFR2	0	3	GARLIC	624	n/a	n/a	0	0	0
980569	REC_WORD	wordpools/wasnorm_wordpool_576.txt	LTP331	ltpFR2	0	3	CHAMPAGNE	278	n/a	n/a	0	0	0
982397	REC_WORD	wordpools/wasnorm_wordpool_576.txt	LTP331	ltpFR2	0	3	DAISY	435	n/a	n/a	0	0	0
983080	REC_WORD	wordpools/wasnorm_wordpool_576.txt	LTP331	ltpFR2	0	3	ANTLER	29	n/a	n/a	0	0	0
983711	REC_WORD	wordpools/wasnorm_wordpool_576.txt	LTP331	ltpFR2	0	3	GAZELLE	628	n/a	n/a	0	0	0
987766	REC_WORD	wordpools/wasnorm_wordpool_576.txt	LTP331	ltpFR2	0	3	CHAUFFEUR	283	n/a	n/a	0	0	0
988799	REC_WORD	wordpools/wasnorm_wordpool_576.txt	LTP331	ltpFR2	0	3	DRAGON	492	n/a	n/a	0	0	0
989596	REC_WORD	wordpools/wasnorm_wordpool_576.txt	LTP331	ltpFR2	0	3	ROCKET	1202	n/a	n/a	0	0	0
991028	REC_WORD	wordpools/wasnorm_wordpool_576.txt	LTP331	ltpFR2	0	3	BROTHER	179	n/a	n/a	0	0	0
991804	REC_WORD	wordpools/wasnorm_wordpool_576.txt	LTP331	ltpFR2	0	3	CLOTHES	327	n/a	n/a	0	0	0
1031545	REC_WORD	wordpools/wasnorm_wordpool_576.txt	LTP331	ltpFR2	0	3	JUNGLE	764	n/a	n/a	0	0	0
1049343	DISTRACTOR	n/a	LTP331	ltpFR2	0	4	n/a	n/a	n/a	n/a	0	0	0
1049343	START	n/a	LTP331	ltpFR2	0	n/a	n/a	n/a	5	n/a	n/a	n/a	n/a
1049359	PROB	n/a	LTP331	ltpFR2	0	n/a	n/a	n/a	5	6	3	2	1
1051907	PROB	n/a	LTP331	ltpFR2	0	n/a	n/a	n/a	5	15	4	7	4
1054140	PROB	n/a	LTP331	ltpFR2	0	n/a	n/a	n/a	5	22	9	4	9
1056573	PROB	n/a	LTP331	ltpFR2	0	n/a	n/a	n/a	5	5	2	1	2
1058239	PROB	n/a	LTP331	ltpFR2	0	n/a	n/a	n/a	5	17	4	8	5
1060587	PROB	n/a	LTP331	ltpFR2	0	n/a	n/a	n/a	5	15	3	4	8
1062403	PROB	n/a	LTP331	ltpFR2	0	n/a	n/a	n/a	5	19	8	4	7
1064769	PROB	n/a	LTP331	ltpFR2	0	n/a	n/a	n/a	5	21	7	9	5
1066785	PROB	n/a	LTP331	ltpFR2	0	n/a	n/a	n/a	5	8	1	5	2
1068550	PROB	n/a	LTP331	ltpFR2	0	n/a	n/a	n/a	5	18	7	4	7
1070833	PROB	n/a	LTP331	ltpFR2	0	n/a	n/a	n/a	5	20	8	6	6
1072379	STOP	n/a	LTP331	ltpFR2	0	n/a	n/a	n/a	5	n/a	n/a	n/a	n/a
1074481	WORD	wordpools/wasnorm_wordpool_576.txt	LTP331	ltpFR2	0	4	BUCKET	184	n/a	n/a	0	0	0
1077147	WORD	wordpools/wasnorm_wordpool_576.txt	LTP331	ltpFR2	0	4	CLAM	315	n/a	n/a	0	0	0
1079928	WORD	wordpools/wasnorm_wordpool_576.txt	LTP331	ltpFR2	0	4	HAMPER	682	n/a	n/a	0	0	0
1082544	WORD	wordpools/wasnorm_wordpool_576.txt	LTP331	ltpFR2	0	4	DANDRUFF	439	n/a	n/a	0	0	0
1085326	WORD	wordpools/wasnorm_wordpool_576.txt	LTP331	ltpFR2	0	4	BUREAU	199	n/a	n/a	0	0	0
1087792	WORD	wordpools/wasnorm_wordpool_576.txt	LTP331	ltpFR2	0	4	DRESSER	496	n/a	n/a	0	0	0
1090441	WORD	wordpools/wasnorm_wordpool_576.txt	LTP331	ltpFR2	0	4	BUTCHER	203	n/a	n/a	0	0	0
1092938	WORD	wordpools/wasnorm_wordpool_576.txt	LTP331	ltpFR2	0	4	ROBBER	1197	n/a	n/a	0	0	0
1095388	WORD	wordpools/wasnorm_wordpool_576.txt	LTP331	ltpFR2	0	4	YOLK	1633	n/a	n/a	0	0	0
1098003	WORD	wordpools/wasnorm_wordpool_576.txt	LTP331	ltpFR2	0	4	SLUG	1329	n/a	n/a	0	0	0
1100686	WORD	wordpools/wasnorm_wordpool_576.txt	LTP331	ltpFR2	0	4	CAFE	216	n/a	n/a	0	0	0
1103351	WORD	wordpools/wasnorm_wordpool_576.txt	LTP331	ltpFR2	0	4	LIVER	833	n/a	n/a	0	0	0
1105784	WORD	wordpools/wasnorm_wordpool_576.txt	LTP331	ltpFR2	0	4	PENGUIN	1044	n/a	n/a	0	0	0
1108299	WORD	wordpools/wasnorm_wordpool_576.txt	LTP331	ltpFR2	0	4	BRICK	172	n/a	n/a	0	0	0
1110930	WORD	wordpools/wasnorm_wordpool_576.txt	LTP331	ltpFR2	0	4	WORKER	1621	n/a	n/a	0	0	0
1113547	WORD	wordpools/wasnorm_wordpool_576.txt	LTP331	ltpFR2	0	4	CURTAIN	427	n/a	n/a	0	0	0
1116346	WORD	wordpools/wasnorm_wordpool_576.txt	LTP331	ltpFR2	0	4	TURTLE	1522	n/a	n/a	0	0	0
1118811	WORD	wordpools/wasnorm_wordpool_576.txt	LTP331	ltpFR2	0	4	BIKE	125	n/a	n/a	0	0	0
1121460	WORD	wordpools/wasnorm_wordpool_576.txt	LTP331	ltpFR2	0	4	SNACK	1331	n/a	n/a	0	0	0
1124242	WORD	wordpools/wasnorm_wordpool_576.txt	LTP331	ltpFR2	0	4	SPACE	1345	n/a	n/a	0	0	0
1126890	WORD	wordpools/wasnorm_wordpool_576.txt	LTP331	ltpFR2	0	4	ROOSTER	1209	n/a	n/a	0	0	0
1129440	WORD	wordpools/wasnorm_wordpool_576.txt	LTP331	ltpFR2	0	4	CRITIC	410	n/a	n/a	0	0	0
1132022	WORD	wordpools/wasnorm_wordpool_576.txt	LTP331	ltpFR2	0	4	ACTRESS	6	n/a	n/a	0	0	0
1134704	WORD	wordpools/wasnorm_wordpool_576.txt	LTP331	ltpFR2	0	4	POET	1095	n/a	n/a	0	0	0
1136320	START	n/a	LTP331	ltpFR2	0	n/a	n/a	n/a	6	n/a	n/a	n/a	n/a
1137162	DISTRACTOR	n/a	LTP331	ltpFR2	0	4	n/a	n/a	n/a	n/a	0	0	0
1137169	PROB	n/a	LTP331	ltpFR2	0	n/a	n/a	n/a	6	17	5	8	4
1140000	PROB	n/a	LTP331	ltpFR2	0	n/a	n/a	n/a	6	24	8	7	9
1142384	PROB	n/a	LTP331	ltpFR2	0	n/a	n/a	n/a	6	14	3	4	7
1144599	PROB	n/a	LTP331	ltpFR2	0	n/a	n/a	n/a	6	24	7	9	8
1146815	PROB	n/a	LTP331	ltpFR2	0	n/a	n/a	n/a	6	12	9	1	2
1148264	PROB	n/a	LTP331	ltpFR2	0	n/a	n/a	n/a	6	15	2	7	6
1149929	PROB	n/a	LTP331	ltpFR2	0	n/a	n/a	n/a	6	18	4	8	6
1151563	PROB	n/a	LTP331	ltpFR2	0	n/a	n/a	n/a	6	21	8	6	7
1153379	PROB	n/a	LTP331	ltpFR2	0	n/a	n/a	n/a	6	10	8	1	1
1154778	PROB	n/a	LTP331	ltpFR2	0	n/a	n/a	n/a	6	19	5	6	8
1159141	STOP	n/a	LTP331	ltpFR2	0	n/a	n/a	n/a	6	n/a	n/a	n/a	n/a
1162209	REC_START	n/a	LTP331	ltpFR2	0	4	n/a	n/a	n/a	n/a	0	0	0
1164681	REC_WORD	wordpools/wasnorm_wordpool_576.txt	LTP331	ltpFR2	0	4	BUCKET	184	n/a	n/a	0	0	0
1166988	REC_WORD	wordpools/wasnorm_wordpool_576.txt	LTP331	ltpFR2	0	4	CLAM	315	n/a	n/a	0	0	0
1169259	REC_WORD	wordpools/wasnorm_wordpool_576.txt	LTP331	ltpFR2	0	4	HAMPER	682	n/a	n/a	0	0	0
1169831	REC_WORD	wordpools/wasnorm_wordpool_576.txt	LTP331	ltpFR2	0	4	DANDRUFF	439	n/a	n/a	0	0	0
1171217	REC_WORD	wordpools/wasnorm_wordpool_576.txt	LTP331	ltpFR2	0	4	BUREAU	199	n/a	n/a	0	0	0
1172370	REC_WORD	wordpools/wasnorm_wordpool_576.txt	LTP331	ltpFR2	0	4	DRESSER	496	n/a	n/a	0	0	0
1173922	REC_WORD	wordpools/wasnorm_wordpool_576.txt	LTP331	ltpFR2	0	4	BUTCHER	203	n/a	n/a	0	0	0
1175130	REC_WORD	wordpools/wasnorm_wordpool_576.txt	LTP331	ltpFR2	0	4	ROBBER	1197	n/a	n/a	0	0	0
1176052	REC_WORD	wordpools/wasnorm_wordpool_576.txt	LTP331	ltpFR2	0	4	YOLK	1633	n/a	n/a	0	0	0
1177653	REC_WORD	wordpools/wasnorm_wordpool_576.txt	LTP331	ltpFR2	0	4	SLUG	1329	n/a	n/a	0	0	0
1178435	REC_WORD_VV	wordpools/wasnorm_wordpool_576.txt	LTP331	ltpFR2	0	4	<>	-1	n/a	n/a	0	0	0
1178538	REC_WORD	wordpools/wasnorm_wordpool_576.txt	LTP331	ltpFR2	0	4	SNAIL	1332	n/a	n/a	0	0	0
1182979	REC_WORD	wordpools/wasnorm_wordpool_576.txt	LTP331	ltpFR2	0	4	CAFE	216	n/a	n/a	0	0	0
1183996	REC_WORD	wordpools/wasnorm_wordpool_576.txt	LTP331	ltpFR2	0	4	LIVER	833	n/a	n/a	0	0	0
1184594	REC_WORD	wordpools/wasnorm_wordpool_576.txt	LTP331	ltpFR2	0	4	PENGUIN	1044	n/a	n/a	0	0	0
1185279	REC_WORD	wordpools/wasnorm_wordpool_576.txt	LTP331	ltpFR2	0	4	BRICK	172	n/a	n/a	0	0	0
1185851	REC_WORD	wordpools/wasnorm_wordpool_576.txt	LTP331	ltpFR2	0	4	WORKER	1621	n/a	n/a	0	0	0
1186495	REC_WORD	wordpools/wasnorm_wordpool_576.txt	LTP331	ltpFR2	0	4	TURTLE	1522	n/a	n/a	0	0	0
1187720	REC_WORD	wordpools/wasnorm_wordpool_576.txt	LTP331	ltpFR2	0	4	BIKE	125	n/a	n/a	0	0	0
1189259	REC_WORD	wordpools/wasnorm_wordpool_576.txt	LTP331	ltpFR2	0	4	SNACK	1331	n/a	n/a	0	0	0
1189979	REC_WORD	wordpools/wasnorm_wordpool_576.txt	LTP331	ltpFR2	0	4	SPACE	1345	n/a	n/a	0	0	0
1191642	REC_WORD	wordpools/wasnorm_wordpool_576.txt	LTP331	ltpFR2	0	4	ROOSTER	1209	n/a	n/a	0	0	0
1194545	REC_WORD	wordpools/wasnorm_wordpool_576.txt	LTP331	ltpFR2	0	4	CRITIC	410	n/a	n/a	0	0	0
1195753	REC_WORD	wordpools/wasnorm_wordpool_576.txt	LTP331	ltpFR2	0	4	POET	1095	n/a	n/a	0	0	0
1196790	REC_WORD	wordpools/wasnorm_wordpool_576.txt	LTP331	ltpFR2	0	4	ACTRESS	6	n/a	n/a	0	0	0
1231976	REC_WORD	wordpools/wasnorm_wordpool_576.txt	LTP331	ltpFR2	0	4	CURTAIN	427	n/a	n/a	0	0	0
1252650	DISTRACTOR	n/a	LTP331	ltpFR2	0	5	n/a	n/a	n/a	n/a	0	0	0
1252651	START	n/a	LTP331	ltpFR2	0	n/a	n/a	n/a	7	n/a	n/a	n/a	n/a
1252667	PROB	n/a	LTP331	ltpFR2	0	n/a	n/a	n/a	7	17	8	5	4
1255366	PROB	n/a	LTP331	ltpFR2	0	n/a	n/a	n/a	7	15	6	2	7
1257532	PROB	n/a	LTP331	ltpFR2	0	n/a	n/a	n/a	7	19	4	8	7
1259614	PROB	n/a	LTP331	ltpFR2	0	n/a	n/a	n/a	7	20	5	9	6
1261546	PROB	n/a	LTP331	ltpFR2	0	n/a	n/a	n/a	7	13	3	9	1
1263445	PROB	n/a	LTP331	ltpFR2	0	n/a	n/a	n/a	7	9	3	1	5
1265095	PROB	n/a	LTP331	ltpFR2	0	n/a	n/a	n/a	7	21	9	6	6
1266694	PROB	n/a	LTP331	ltpFR2	0	n/a	n/a	n/a	7	20	8	6	6
1268460	PROB	n/a	LTP331	ltpFR2	0	n/a	n/a	n/a	7	17	9	7	1
1270459	PROB	n/a	LTP331	ltpFR2	0	n/a	n/a	n/a	7	13	3	9	1
1272125	PROB	n/a	LTP331	ltpFR2	0	n/a	n/a	n/a	7	11	1	3	7
1273874	PROB	n/a	LTP331	ltpFR2	0	n/a	n/a	n/a	7	5	3	1	1
1275185	STOP	n/a	LTP331	ltpFR2	0	n/a	n/a	n/a	7	n/a	n/a	n/a	n/a
1277839	WORD	wordpools/wasnorm_wordpool_576.txt	LTP331	ltpFR2	0	5	POSSUM	1112	n/a	n/a	0	0	0
1280321	WORD	wordpools/wasnorm_wordpool_576.txt	LTP331	ltpFR2	0	5	MISTER	901	n/a	n/a	0	0	0
1282969	WORD	wordpools/wasnorm_wordpool_576.txt	LTP331	ltpFR2	0	5	MAMMAL	861	n/a	n/a	0	0	0
1285519	WORD	wordpools/wasnorm_wordpool_576.txt	LTP331	ltpFR2	0	5	PALACE	1006	n/a	n/a	0	0	0
1287950	WORD	wordpools/wasnorm_wordpool_576.txt	LTP331	ltpFR2	0	5	PRINCESS	1125	n/a	n/a	0	0	0
1290700	WORD	wordpools/wasnorm_wordpool_576.txt	LTP331	ltpFR2	0	5	THIEF	1456	n/a	n/a	0	0	0
1293149	WORD	wordpools/wasnorm_wordpool_576.txt	LTP331	ltpFR2	0	5	HANDBAG	684	n/a	n/a	0	0	0
1295963	WORD	wordpools/wasnorm_wordpool_576.txt	LTP331	ltpFR2	0	5	FOREHEAD	592	n/a	n/a	0	0	0
1298646	WORD	wordpools/wasnorm_wordpool_576.txt	LTP331	ltpFR2	0	5	STREAM	1392	n/a	n/a	0	0	0
1301095	WORD	wordpools/wasnorm_wordpool_576.txt	LTP331	ltpFR2	0	5	GARBAGE	622	n/a	n/a	0	0	0
1303744	WORD	wordpools/wasnorm_wordpool_576.txt	LTP331	ltpFR2	0	5	STATUE	1374	n/a	n/a	0	0	0
1306293	WORD	wordpools/wasnorm_wordpool_576.txt	LTP331	ltpFR2	0	5	MARKER	870	n/a	n/a	0	0	0
1308957	WORD	wordpools/wasnorm_wordpool_576.txt	LTP331	ltpFR2	0	5	FOOTBALL	591	n/a	n/a	0	0	0
1311574	WORD	wordpools/wasnorm_wordpool_576.txt	LTP331	ltpFR2	0	5	HEADBAND	696	n/a	n/a	0	0	0
1314272	WORD	wordpools/wasnorm_wordpool_576.txt	LTP331	ltpFR2	0	5	BLOUSE	139	n/a	n/a	0	0	0
1316904	WORD	wordpools/wasnorm_wordpool_576.txt	LTP331	ltpFR2	0	5	MEAT	883	n/a	n/a	0	0	0
1319437	WORD	wordpools/wasnorm_wordpool_576.txt	LTP331	ltpFR2	0	5	BANKER	84	n/a	n/a	0	0	0
1322001	WORD	wordpools/wasnorm_wordpool_576.txt	LTP331	ltpFR2	0	5	CANYON	235	n/a	n/a	0	0	0
1324734	WORD	wordpools/wasnorm_wordpool_576.txt	LTP331	ltpFR2	0	5	CLIMBER	323	n/a	n/a	0	0	0
1327416	WORD	wordpools/wasnorm_wordpool_576.txt	LTP331	ltpFR2	0	5	CRAYON	401	n/a	n/a	0	0	0
1329898	WORD	wordpools/wasnorm_wordpool_576.txt	LTP331	ltpFR2	0	5	JELLO	754	n/a	n/a	0	0	0
1332547	WORD	wordpools/wasnorm_wordpool_576.txt	LTP331	ltpFR2	0	5	TABLE	1426	n/a	n/a	0	0	0
1335363	WORD	wordpools/wasnorm_wordpool_576.txt	LTP331	ltpFR2	0	5	TURKEY	1520	n/a	n/a	0	0	0
1338045	WORD	wordpools/wasnorm_wordpool_576.txt	LTP331	ltpFR2	0	5	SHARK	1275	n/a	n/a	0	0	0
1339661	START	n/a	LTP331	ltpFR2	0	n/a	n/a	n/a	8	n/a	n/a	n/a	n/a
1340754	DISTRACTOR	n/a	LTP331	ltpFR2	0	5	n/a	n/a	n/a	n/a	0	0	0
1340761	PROB	n/a	LTP331	ltpFR2	0	n/a	n/a	n/a	8	22	5	8	9
1343276	PROB	n/a	LTP331	ltpFR2	0	n/a	n/a	n/a	8	14	3	5	6
1345109	PROB	n/a	LTP331	ltpFR2	0	n/a	n/a	n/a	8	10	1	4	5
1346808	PROB	n/a	LTP331	ltpFR2	0	n/a	n/a	n/a	8	12	2	4	6
1348490	PROB	n/a	LTP331	ltpFR2	0	n/a	n/a	n/a	8	13	9	3	1
1350306	PROB	n/a	LTP331	ltpFR2	0	n/a	n/a	n/a	8	17	9	4	4
1352605	PROB	n/a	LTP331	ltpFR2	0	n/a	n/a	n/a	8	14	5	5	4
1354254	PROB	n/a	LTP331	ltpFR2	0	n/a	n/a	n/a	8	14	2	6	6
1355854	PROB	n/a	LTP331	ltpFR2	0	n/a	n/a	n/a	8	19	6	9	4
1358469	PROB	n/a	LTP331	ltpFR2	0	n/a	n/a	n/a	8	24	8	9	7
1362420	STOP	n/a	LTP331	ltpFR2	0	n/a	n/a	n/a	8	n/a	n/a	n/a	n/a
1365566	REC_START	n/a	LTP331	ltpFR2	0	5	n/a	n/a	n/a	n/a	0	0	0
1366756	REC_WORD	wordpools/wasnorm_wordpool_576.txt	LTP331	ltpFR2	0	5	POSSUM	1112	n/a	n/a	0	0	0
1367509	REC_WORD	wordpools/wasnorm_wordpool_576.txt	LTP331	ltpFR2	0	5	MISTER	901	n/a	n/a	0	0	0
1368226	REC_WORD	wordpools/wasnorm_wordpool_576.txt	LTP331	ltpFR2	0	5	MAMMAL	861	n/a	n/a	0	0	0
1369040	REC_WORD	wordpools/wasnorm_wordpool_576.txt	LTP331	ltpFR2	0	5	CASTLE	256	n/a	n/a	0	0	0
1369807	REC_WORD	wordpools/wasnorm_wordpool_576.txt	LTP331	ltpFR2	0	5	PRINCESS	1125	n/a	n/a	0	0	0
1371419	REC_WORD	wordpools/wasnorm_wordpool_576.txt	LTP331	ltpFR2	0	5	THIEF	1456	n/a	n/a	0	0	0
1371975	REC_WORD	wordpools/wasnorm_wordpool_576.txt	LTP331	ltpFR2	0	5	HANDBAG	684	n/a	n/a	0	0	0
1372763	REC_WORD	wordpools/wasnorm_wordpool_576.txt	LTP331	ltpFR2	0	5	FOREHEAD	592	n/a	n/a	0	0	0
1373418	REC_WORD	wordpools/wasnorm_wordpool_576.txt	LTP331	ltpFR2	0	5	STREAM	1392	n/a	n/a	0	0	0
1374196	REC_WORD	wordpools/wasnorm_wordpool_576.txt	LTP331	ltpFR2	0	5	GARBAGE	622	n/a	n/a	0	0	0
1374865	REC_WORD	wordpools/wasnorm_wordpool_576.txt	LTP331	ltpFR2	0	5	STATUE	1374	n/a	n/a	0	0	0
1375515	REC_WORD	wordpools/wasnorm_wordpool_576.txt	LTP331	ltpFR2	0	5	MARKER	870	n/a	n/a	0	0	0
1377770	REC_WORD	wordpools/wasnorm_wordpool_576.txt	LTP331	ltpFR2	0	5	FOOTBALL	591	n/a	n/a	0	0	0
1378776	REC_WORD	wordpools/wasnorm_wordpool_576.txt	LTP331	ltpFR2	0	5	HEADBAND	696	n/a	n/a	0	0	0
1379665	REC_WORD	wordpools/wasnorm_wordpool_576.txt	LTP331	ltpFR2	0	5	BLOUSE	139	n/a	n/a	0	0	0
1380497	REC_WORD	wordpools/wasnorm_wordpool_576.txt	LTP331	ltpFR2	0	5	MEAT	883	n/a	n/a	0	0	0
1381907	REC_WORD	wordpools/wasnorm_wordpool_576.txt	LTP331	ltpFR2	0	5	BANKER	84	n/a	n/a	0	0	0
1382797	REC_WORD	wordpools/wasnorm_wordpool_576.txt	LTP331	ltpFR2	0	5	CANYON	235	n/a	n/a	0	0	0
1383531	REC_WORD	wordpools/wasnorm_wordpool_576.txt	LTP331	ltpFR2	0	5	CLIMBER	323	n/a	n/a	0	0	0
1385948	REC_WORD	wordpools/wasnorm_wordpool_576.txt	LTP331	ltpFR2	0	5	JELLO	754	n/a	n/a	0	0	0
1386742	REC_WORD	wordpools/wasnorm_wordpool_576.txt	LTP331	ltpFR2	0	5	TURKEY	1520	n/a	n/a	0	0	0
1388247	REC_WORD	wordpools/wasnorm_wordpool_576.txt	LTP331	ltpFR2	0	5	TABLE	1426	n/a	n/a	0	0	0
1391136	REC_WORD	wordpools/wasnorm_wordpool_576.txt	LTP331	ltpFR2	0	5	SHARK	1275	n/a	n/a	0	0	0
1455991	DISTRACTOR	n/a	LTP331	ltpFR2	0	6	n/a	n/a	n/a	n/a	0	0	0
1455991	START	n/a	LTP331	ltpFR2	0	n/a	n/a	n/a	9	n/a	n/a	n/a	n/a
1456007	PROB	n/a	LTP331	ltpFR2	0	n/a	n/a	n/a	9	22	7	6	9
1458840	PROB	n/a	LTP331	ltpFR2	0	n/a	n/a	n/a	9	10	1	2	7
1460340	PROB	n/a	LTP331	ltpFR2	0	n/a	n/a	n/a	9	16	1	8	7
1462139	PROB	n/a	LTP331	ltpFR2	0	n/a	n/a	n/a	9	23	7	8	8
1463871	PROB	n/a	LTP331	ltpFR2	0	n/a	n/a	n/a	9	13	3	2	8
1465504	PROB	n/a	LTP331	ltpFR2	0	n/a	n/a	n/a	9	7	4	2	1
1467070	PROB	n/a	LTP331	ltpFR2	0	n/a	n/a	n/a	9	13	5	7	1
1469119	PROB	n/a	LTP331	ltpFR2	0	n/a	n/a	n/a	9	19	4	8	7
1471085	PROB	n/a	LTP331	ltpFR2	0	n/a	n/a	n/a	9	14	3	3	8
1472601	PROB	n/a	LTP331	ltpFR2	0	n/a	n/a	n/a	9	6	1	1	4
1473899	PROB	n/a	LTP331	ltpFR2	0	n/a	n/a	n/a	9	10	6	3	1
1476066	PROB	n/a	LTP331	ltpFR2	0	n/a	n/a	n/a	9	9	2	5	2
1477881	PROB	n/a	LTP331	ltpFR2	0	n/a	n/a	n/a	9	16	7	3	6
1479480	STOP	n/a	LTP331	ltpFR2	0	n/a	n/a	n/a	9	n/a	n/a	n/a	n/a
1480864	WORD	wordpools/wasnorm_wordpool_576.txt	LTP331	ltpFR2	0	6	CATTLE	261	n/a	n/a	0	0	0
1483379	WORD	wordpools/wasnorm_wordpool_576.txt	LTP331	ltpFR2	0	6	SERVER	1272	n/a	n/a	0	0	0
1486161	WORD	wordpools/wasnorm_wordpool_576.txt	LTP331	ltpFR2	0	6	MOP	916	n/a	n/a	0	0	0
1488860	WORD	wordpools/wasnorm_wordpool_576.txt	LTP331	ltpFR2	0	6	MONSTER	912	n/a	n/a	0	0	0
1491459	WORD	wordpools/wasnorm_wordpool_576.txt	LTP331	ltpFR2	0	6	PLAZA	1088	n/a	n/a	0	0	0
1493990	WORD	wordpools/wasnorm_wordpool_576.txt	LTP331	ltpFR2	0	6	LUGGAGE	847	n/a	n/a	0	0	0
1496457	WORD	wordpools/wasnorm_wordpool_576.txt	LTP331	ltpFR2	0	6	SUITCASE	1403	n/a	n/a	0	0	0
1498921	WORD	wordpools/wasnorm_wordpool_576.txt	LTP331	ltpFR2	0	6	GOBLIN	645	n/a	n/a	0	0	0
1501471	WORD	wordpools/wasnorm_wordpool_576.txt	LTP331	ltpFR2	0	6	SUPPER	1411	n/a	n/a	0	0	0
1503902	WORD	wordpools/wasnorm_wordpool_576.txt	LTP331	ltpFR2	0	6	DUSTPAN	509	n/a	n/a	0	0	0
1506569	WORD	wordpools/wasnorm_wordpool_576.txt	LTP331	ltpFR2	0	6	PIMPLE	1071	n/a	n/a	0	0	0
1509401	WORD	wordpools/wasnorm_wordpool_576.txt	LTP331	ltpFR2	0	6	TRANSPLANT	1496	n/a	n/a	0	0	0
1511932	WORD	wordpools/wasnorm_wordpool_576.txt	LTP331	ltpFR2	0	6	FLESH	579	n/a	n/a	0	0	0
1514615	WORD	wordpools/wasnorm_wordpool_576.txt	LTP331	ltpFR2	0	6	TRACTOR	1493	n/a	n/a	0	0	0
1517280	WORD	wordpools/wasnorm_wordpool_576.txt	LTP331	ltpFR2	0	6	TUTU	1524	n/a	n/a	0	0	0
1519746	WORD	wordpools/wasnorm_wordpool_576.txt	LTP331	ltpFR2	0	6	CHILD	299	n/a	n/a	0	0	0
1522545	WORD	wordpools/wasnorm_wordpool_576.txt	LTP331	ltpFR2	0	6	LEADER	807	n/a	n/a	0	0	0
1525327	WORD	wordpools/wasnorm_wordpool_576.txt	LTP331	ltpFR2	0	6	COUNTRY	388	n/a	n/a	0	0	0
1527826	WORD	wordpools/wasnorm_wordpool_576.txt	LTP331	ltpFR2	0	6	WORLD	1622	n/a	n/a	0	0	0
1530441	WORD	wordpools/wasnorm_wordpool_576.txt	LTP331	ltpFR2	0	6	SPARROW	1347	n/a	n/a	0	0	0
1533006	WORD	wordpools/wasnorm_wordpool_576.txt	LTP331	ltpFR2	0	6	EMPIRE	530	n/a	n/a	0	0	0
1535506	WORD	wordpools/wasnorm_wordpool_576.txt	LTP331	ltpFR2	0	6	LAVA	804	n/a	n/a	0	0	0
1538171	WORD	wordpools/wasnorm_wordpool_576.txt	LTP331	ltpFR2	0	6	PARSLEY	1016	n/a	n/a	0	0	0
1540885	WORD	wordpools/wasnorm_wordpool_576.txt	LTP331	ltpFR2	0	6	BUGGY	188	n/a	n/a	0	0	0
1542503	START	n/a	LTP331	ltpFR2	0	n/a	n/a	n/a	10	n/a	n/a	n/a	n/a
1543428	DISTRACTOR	n/a	LTP331	ltpFR2	0	6	n/a	n/a	n/a	n/a	0	0	0
1543435	PROB	n/a	LTP331	ltpFR2	0	n/a	n/a	n/a	10	21	9	6	6
1546584	PROB	n/a	LTP331	ltpFR2	0	n/a	n/a	n/a	10	9	4	4	1
1548100	PROB	n/a	LTP331	ltpFR2	0	n/a	n/a	n/a	10	8	3	3	2
1549666	PROB	n/a	LTP331	ltpFR2	0	n/a	n/a	n/a	10	12	2	5	5
1551132	PROB	n/a	LTP331	ltpFR2	0	n/a	n/a	n/a	10	14	1	4	9
1552814	PROB	n/a	LTP331	ltpFR2	0	n/a	n/a	n/a	10	15	3	6	6
1554497	PROB	n/a	LTP331	ltpFR2	0	n/a	n/a	n/a	10	7	2	2	3
1556030	PROB	n/a	LTP331	ltpFR2	0	n/a	n/a	n/a	10	11	2	6	3
1557894	PROB	n/a	LTP331	ltpFR2	0	n/a	n/a	n/a	10	20	8	7	5
1560228	PROB	n/a	LTP331	ltpFR2	0	n/a	n/a	n/a	10	18	9	6	3
1562660	PROB	n/a	LTP331	ltpFR2	0	n/a	n/a	n/a	10	14	5	8	1
1566503	STOP	n/a	LTP331	ltpFR2	0	n/a	n/a	n/a	10	n/a	n/a	n/a	n/a
1568392	REC_START	n/a	LTP331	ltpFR2	0	6	n/a	n/a	n/a	n/a	0	0	0
1571049	REC_WORD	wordpools/wasnorm_wordpool_576.txt	LTP331	ltpFR2	0	6	CATTLE	261	n/a	n/a	0	0	0
1571770	REC_WORD	wordpools/wasnorm_wordpool_576.txt	LTP331	ltpFR2	0	6	SERVER	1272	n/a	n/a	0	0	0
1573316	REC_WORD	wordpools/wasnorm_wordpool_576.txt	LTP331	ltpFR2	0	6	MOP	916	n/a	n/a	0	0	0
1573891	REC_WORD	wordpools/wasnorm_wordpool_576.txt	LTP331	ltpFR2	0	6	MONSTER	912	n/a	n/a	0	0	0
1577193	REC_WORD	wordpools/wasnorm_wordpool_576.txt	LTP331	ltpFR2	0	6	PLAZA	1088	n/a	n/a	0	0	0
1578586	REC_WORD	wordpools/wasnorm_wordpool_576.txt	LTP331	ltpFR2	0	6	SUITCASE	1403	n/a	n/a	0	0	0
1579302	REC_WORD	wordpools/wasnorm_wordpool_576.txt	LTP331	ltpFR2	0	6	LUGGAGE	847	n/a	n/a	0	0	0
1580524	REC_WORD	wordpools/wasnorm_wordpool_576.txt	LTP331	ltpFR2	0	6	GOBLIN	645	n/a	n/a	0	0	0
1584244	REC_WORD	wordpools/wasnorm_wordpool_576.txt	LTP331	ltpFR2	0	6	DINNER	468	n/a	n/a	0	0	0
1590408	REC_WORD	wordpools/wasnorm_wordpool_576.txt	LTP331	ltpFR2	0	6	DUSTPAN	509	n/a	n/a	0	0	0
1591559	REC_WORD	wordpools/wasnorm_wordpool_576.txt	LTP331	ltpFR2	0	6	PIMPLE	1071	n/a	n/a	0	0	0
1592282	REC_WORD	wordpools/wasnorm_wordpool_576.txt	LTP331	ltpFR2	0	6	TRANSPLANT	1496	n/a	n/a	0	0	0
1595518	REC_WORD	wordpools/wasnorm_wordpool_576.txt	LTP331	ltpFR2	0	6	FLESH	579	n/a	n/a	0	0	0
1596191	REC_WORD	wordpools/wasnorm_wordpool_576.txt	LTP331	ltpFR2	0	6	TRACTOR	1493	n/a	n/a	0	0	0
1598438	REC_WORD	wordpools/wasnorm_wordpool_576.txt	LTP331	ltpFR2	0	6	CHILD	299	n/a	n/a	0	0	0
1599993	REC_WORD	wordpools/wasnorm_wordpool_576.txt	LTP331	ltpFR2	0	6	TUTU	1524	n/a	n/a	0	0	0
1602433	REC_WORD	wordpools/wasnorm_wordpool_576.txt	LTP331	ltpFR2	0	6	LEADER	807	n/a	n/a	0	0	0
1603952	REC_WORD	wordpools/wasnorm_wordpool_576.txt	LTP331	ltpFR2	0	6	COUNTRY	388	n/a	n/a	0	0	0
1604716	REC_WORD	wordpools/wasnorm_wordpool_576.txt	LTP331	ltpFR2	0	6	WORLD	1622	n/a	n/a	0	0	0
1606674	REC_WORD	wordpools/wasnorm_wordpool_576.txt	LTP331	ltpFR2	0	6	EMPIRE	530	n/a	n/a	0	0	0
1608580	REC_WORD	wordpools/wasnorm_wordpool_576.txt	LTP331	ltpFR2	0	6	PARSLEY	1016	n/a	n/a	0	0	0
1609307	REC_WORD	wordpools/wasnorm_wordpool_576.txt	LTP331	ltpFR2	0	6	LAVA	804	n/a	n/a	0	0	0
1658866	WORD	wordpools/wasnorm_wordpool_576.txt	LTP331	ltpFR2	0	7	BRACES	164	n/a	n/a	0	0	0
1661332	WORD	wordpools/wasnorm_wordpool_576.txt	LTP331	ltpFR2	0	7	SHRUB	1299	n/a	n/a	0	0	0
1664147	WORD	wordpools/wasnorm_wordpool_576.txt	LTP331	ltpFR2	0	7	TWIG	1527	n/a	n/a	0	0	0
1666863	WORD	wordpools/wasnorm_wordpool_576.txt	LTP331	ltpFR2	0	7	FREEZER	604	n/a	n/a	0	0	0
1669645	WORD	wordpools/wasnorm_wordpool_576.txt	LTP331	ltpFR2	0	7	HIKER	708	n/a	n/a	0	0	0
1672194	WORD	wordpools/wasnorm_wordpool_576.txt	LTP331	ltpFR2	0	7	MOTEL	919	n/a	n/a	0	0	0
1674941	WORD	wordpools/wasnorm_wordpool_576.txt	LTP331	ltpFR2	0	7	JUGGLER	763	n/a	n/a	0	0	0
1677375	WORD	wordpools/wasnorm_wordpool_576.txt	LTP331	ltpFR2	0	7	ACTOR	5	n/a	n/a	0	0	0
1680140	WORD	wordpools/wasnorm_wordpool_576.txt	LTP331	ltpFR2	0	7	OUTDOORS	987	n/a	n/a	0	0	0
1682822	WORD	wordpools/wasnorm_wordpool_576.txt	LTP331	ltpFR2	0	7	GIRL	637	n/a	n/a	0	0	0
1685304	WORD	wordpools/wasnorm_wordpool_576.txt	LTP331	ltpFR2	0	7	MAILBOX	857	n/a	n/a	0	0	0
1688002	WORD	wordpools/wasnorm_wordpool_576.txt	LTP331	ltpFR2	0	7	MAILMAN	858	n/a	n/a	0	0	0
1690502	WORD	wordpools/wasnorm_wordpool_576.txt	LTP331	ltpFR2	0	7	MATTRESS	879	n/a	n/a	0	0	0
1692967	WORD	wordpools/wasnorm_wordpool_576.txt	LTP331	ltpFR2	0	7	LIZARD	834	n/a	n/a	0	0	0
1695650	WORD	wordpools/wasnorm_wordpool_576.txt	LTP331	ltpFR2	0	7	TUNNEL	1519	n/a	n/a	0	0	0
1698215	WORD	wordpools/wasnorm_wordpool_576.txt	LTP331	ltpFR2	0	7	BOYFRIEND	162	n/a	n/a	0	0	0
1700697	WORD	wordpools/wasnorm_wordpool_576.txt	LTP331	ltpFR2	0	7	TYPIST	1532	n/a	n/a	0	0	0
1703296	WORD	wordpools/wasnorm_wordpool_576.txt	LTP331	ltpFR2	0	7	BUBBLE	183	n/a	n/a	0	0	0
1705977	WORD	wordpools/wasnorm_wordpool_576.txt	LTP331	ltpFR2	0	7	STAMP	1370	n/a	n/a	0	0	0
1708644	WORD	wordpools/wasnorm_wordpool_576.txt	LTP331	ltpFR2	0	7	CREVICE	405	n/a	n/a	0	0	0
1711193	WORD	wordpools/wasnorm_wordpool_576.txt	LTP331	ltpFR2	0	7	TRENCH	1503	n/a	n/a	0	0	0
1713875	WORD	wordpools/wasnorm_wordpool_576.txt	LTP331	ltpFR2	0	7	KLEENEX	782	n/a	n/a	0	0	0
1716440	WORD	wordpools/wasnorm_wordpool_576.txt	LTP331	ltpFR2	0	7	HELMET	702	n/a	n/a	0	0	0
1719156	WORD	wordpools/wasnorm_wordpool_576.txt	LTP331	ltpFR2	0	7	ORANGE	980	n/a	n/a	0	0	0
1720772	START	n/a	LTP331	ltpFR2	0	n/a	n/a	n/a	11	n/a	n/a	n/a	n/a
1721883	DISTRACTOR	n/a	LTP331	ltpFR2	0	7	n/a	n/a	n/a	n/a	0	0	0
1721887	PROB	n/a	LTP331	ltpFR2	0	n/a	n/a	n/a	11	18	6	8	4
1724753	PROB	n/a	LTP331	ltpFR2	0	n/a	n/a	n/a	11	14	4	2	8
1726869	PROB	n/a	LTP331	ltpFR2	0	n/a	n/a	n/a	11	17	9	5	3
1729384	PROB	n/a	LTP331	ltpFR2	0	n/a	n/a	n/a	11	12	2	1	9
1730883	PROB	n/a	LTP331	ltpFR2	0	n/a	n/a	n/a	11	10	7	1	2
1732650	PROB	n/a	LTP331	ltpFR2	0	n/a	n/a	n/a	11	17	7	3	7
1734415	PROB	n/a	LTP331	ltpFR2	0	n/a	n/a	n/a	11	17	1	9	7
1736081	PROB	n/a	LTP331	ltpFR2	0	n/a	n/a	n/a	11	17	3	5	9
1737864	PROB	n/a	LTP331	ltpFR2	0	n/a	n/a	n/a	11	10	5	4	1
1740063	PROB	n/a	LTP331	ltpFR2	0	n/a	n/a	n/a	11	22	7	8	7
1742262	PROB	n/a	LTP331	ltpFR2	0	n/a	n/a	n/a	11	9	7	1	1
1743664	STOP	n/a	LTP331	ltpFR2	0	n/a	n/a	n/a	11	n/a	n/a	n/a	n/a
1746627	REC_START	n/a	LTP331	ltpFR2	0	7	n/a	n/a	n/a	n/a	0	0	0
1749612	REC_WORD	wordpools/wasnorm_wordpool_576.txt	LTP331	ltpFR2	0	7	BRACES	164	n/a	n/a	0	0	0
1750047	REC_WORD	wordpools/wasnorm_wordpool_576.txt	LTP331	ltpFR2	0	7	SHRUB	1299	n/a	n/a	0	0	0
1750583	REC_WORD	wordpools/wasnorm_wordpool_576.txt	LTP331	ltpFR2	0	7	TWIG	1527	n/a	n/a	0	0	0
1751096	REC_WORD	wordpools/wasnorm_wordpool_576.txt	LTP331	ltpFR2	0	7	FREEZER	604	n/a	n/a	0	0	0
1751767	REC_WORD	wordpools/wasnorm_wordpool_576.txt	LTP331	ltpFR2	0	7	HIKER	708	n/a	n/a	0	0	0
1753334	REC_WORD	wordpools/wasnorm_wordpool_576.txt	LTP331	ltpFR2	0	7	JUGGLER	763	n/a	n/a	0	0	0
1753822	REC_WORD	wordpools/wasnorm_wordpool_576.txt	LTP331	ltpFR2	0	7	MOTEL	919	n/a	n/a	0	0	0
1755259	REC_WORD	wordpools/wasnorm_wordpool_576.txt	LTP331	ltpFR2	0	7	ACTOR	5	n/a	n/a	0	0	0
1755817	REC_WORD	wordpools/wasnorm_wordpool_576.txt	LTP331	ltpFR2	0	7	OUTDOORS	987	n/a	n/a	0	0	0
1756670	REC_WORD	wordpools/wasnorm_wordpool_576.txt	LTP331	ltpFR2	0	7	GIRL	637	n/a	n/a	0	0	0
1757080	REC_WORD	wordpools/wasnorm_wordpool_576.txt	LTP331	ltpFR2	0	7	MAILBOX	857	n/a	n/a	0	0	0
1757874	REC_WORD	wordpools/wasnorm_wordpool_576.txt	LTP331	ltpFR2	0	7	MAILMAN	858	n/a	n/a	0	0	0
1760535	REC_WORD	wordpools/wasnorm_wordpool_576.txt	LTP331	ltpFR2	0	7	LIZARD	834	n/a	n/a	0	0	0
1761097	REC_WORD	wordpools/wasnorm_wordpool_576.txt	LTP331	ltpFR2	0	7	MATTRESS	879	n/a	n/a	0	0	0
1762848	REC_WORD	wordpools/wasnorm_wordpool_576.txt	LTP331	ltpFR2	0	7	TUNNEL	1519	n/a	n/a	0	0	0
1764777	REC_WORD	wordpools/wasnorm_wordpool_576.txt	LTP331	ltpFR2	0	7	BOYFRIEND	162	n/a	n/a	0	0	0
1768068	REC_WORD	wordpools/wasnorm_wordpool_576.txt	LTP331	ltpFR2	0	7	TYPIST	1532	n/a	n/a	0	0	0
1769098	REC_WORD	wordpools/wasnorm_wordpool_576.txt	LTP331	ltpFR2	0	7	BUBBLE	183	n/a	n/a	0	0	0
1773565	REC_WORD	wordpools/wasnorm_wordpool_576.txt	LTP331	ltpFR2	0	7	STAMP	1370	n/a	n/a	0	0	0
1775417	REC_WORD	wordpools/wasnorm_wordpool_576.txt	LTP331	ltpFR2	0	7	TRENCH	1503	n/a	n/a	0	0	0
1776918	REC_WORD	wordpools/wasnorm_wordpool_576.txt	LTP331	ltpFR2	0	7	CREVICE	405	n/a	n/a	0	0	0
1778106	REC_WORD	wordpools/wasnorm_wordpool_576.txt	LTP331	ltpFR2	0	7	KLEENEX	782	n/a	n/a	0	0	0
1780567	REC_WORD	wordpools/wasnorm_wordpool_576.txt	LTP331	ltpFR2	0	7	HELMET	702	n/a	n/a	0	0	0
1781189	REC_WORD	wordpools/wasnorm_wordpool_576.txt	LTP331	ltpFR2	0	7	ORANGE	980	n/a	n/a	0	0	0
1837069	DISTRACTOR	n/a	LTP331	ltpFR2	0	8	n/a	n/a	n/a	n/a	0	0	0
1837069	START	n/a	LTP331	ltpFR2	0	n/a	n/a	n/a	12	n/a	n/a	n/a	n/a
1837086	PROB	n/a	LTP331	ltpFR2	0	n/a	n/a	n/a	12	3	1	1	1
1838752	PROB	n/a	LTP331	ltpFR2	0	n/a	n/a	n/a	12	20	8	4	8
1840717	PROB	n/a	LTP331	ltpFR2	0	n/a	n/a	n/a	12	18	8	1	9
1842600	PROB	n/a	LTP331	ltpFR2	0	n/a	n/a	n/a	12	18	8	7	3
1844565	PROB	n/a	LTP331	ltpFR2	0	n/a	n/a	n/a	12	14	9	2	3
1846598	PROB	n/a	LTP331	ltpFR2	0	n/a	n/a	n/a	12	18	1	9	8
1848380	PROB	n/a	LTP331	ltpFR2	0	n/a	n/a	n/a	12	12	5	6	1
1850096	PROB	n/a	LTP331	ltpFR2	0	n/a	n/a	n/a	12	10	1	1	8
1851562	PROB	n/a	LTP331	ltpFR2	0	n/a	n/a	n/a	12	8	2	2	4
1853062	PROB	n/a	LTP331	ltpFR2	0	n/a	n/a	n/a	12	9	2	4	3
1854494	PROB	n/a	LTP331	ltpFR2	0	n/a	n/a	n/a	12	13	2	5	6
1856344	PROB	n/a	LTP331	ltpFR2	0	n/a	n/a	n/a	12	13	4	1	6
1861068	STOP	n/a	LTP331	ltpFR2	0	n/a	n/a	n/a	12	n/a	n/a	n/a	n/a
1862224	WORD	wordpools/wasnorm_wordpool_576.txt	LTP331	ltpFR2	0	8	TRUCK	1512	n/a	n/a	0	0	0
1864905	WORD	wordpools/wasnorm_wordpool_576.txt	LTP331	ltpFR2	0	8	MILDEW	893	n/a	n/a	0	0	0
1867705	WORD	wordpools/wasnorm_wordpool_576.txt	LTP331	ltpFR2	0	8	SHORTS	1293	n/a	n/a	0	0	0
1870221	WORD	wordpools/wasnorm_wordpool_576.txt	LTP331	ltpFR2	0	8	DRESS	495	n/a	n/a	0	0	0
1872786	WORD	wordpools/wasnorm_wordpool_576.txt	LTP331	ltpFR2	0	8	BARLEY	88	n/a	n/a	0	0	0
1875568	WORD	wordpools/wasnorm_wordpool_576.txt	LTP331	ltpFR2	0	8	BANK	83	n/a	n/a	0	0	0
1878250	WORD	wordpools/wasnorm_wordpool_576.txt	LTP331	ltpFR2	0	8	WITNESS	1618	n/a	n/a	0	0	0
1880682	WORD	wordpools/wasnorm_wordpool_576.txt	LTP331	ltpFR2	0	8	LUNCH	849	n/a	n/a	0	0	0
1883465	WORD	wordpools/wasnorm_wordpool_576.txt	LTP331	ltpFR2	0	8	COURSE	390	n/a	n/a	0	0	0
1886063	WORD	wordpools/wasnorm_wordpool_576.txt	LTP331	ltpFR2	0	8	REPORT	1184	n/a	n/a	0	0	0
1888762	WORD	wordpools/wasnorm_wordpool_576.txt	LTP331	ltpFR2	0	8	HORNET	718	n/a	n/a	0	0	0
1891328	WORD	wordpools/wasnorm_wordpool_576.txt	LTP331	ltpFR2	0	8	PREACHER	1119	n/a	n/a	0	0	0
1893827	WORD	wordpools/wasnorm_wordpool_576.txt	LTP331	ltpFR2	0	8	FLIPPER	580	n/a	n/a	0	0	0
1896625	WORD	wordpools/wasnorm_wordpool_576.txt	LTP331	ltpFR2	0	8	BACON	67	n/a	n/a	0	0	0
1899274	WORD	wordpools/wasnorm_wordpool_576.txt	LTP331	ltpFR2	0	8	MARS	873	n/a	n/a	0	0	0
1902073	WORD	wordpools/wasnorm_wordpool_576.txt	LTP331	ltpFR2	0	8	VENUS	1557	n/a	n/a	0	0	0
1904538	WORD	wordpools/wasnorm_wordpool_576.txt	LTP331	ltpFR2	0	8	AWARD	63	n/a	n/a	0	0	0
1907204	WORD	wordpools/wasnorm_wordpool_576.txt	LTP331	ltpFR2	0	8	TORTOISE	1486	n/a	n/a	0	0	0
1909836	WORD	wordpools/wasnorm_wordpool_576.txt	LTP331	ltpFR2	0	8	BABY	64	n/a	n/a	0	0	0
1912351	WORD	wordpools/wasnorm_wordpool_576.txt	LTP331	ltpFR2	0	8	CANDY	230	n/a	n/a	0	0	0
1915017	WORD	wordpools/wasnorm_wordpool_576.txt	LTP331	ltpFR2	0	8	TEACHER	1440	n/a	n/a	0	0	0
1917582	WORD	wordpools/wasnorm_wordpool_576.txt	LTP331	ltpFR2	0	8	GAVEL	627	n/a	n/a	0	0	0
1920331	WORD	wordpools/wasnorm_wordpool_576.txt	LTP331	ltpFR2	0	8	RATTLE	1170	n/a	n/a	0	0	0
1922896	WORD	wordpools/wasnorm_wordpool_576.txt	LTP331	ltpFR2	0	8	SPOON	1357	n/a	n/a	0	0	0
1924513	START	n/a	LTP331	ltpFR2	0	n/a	n/a	n/a	13	n/a	n/a	n/a	n/a
1925482	DISTRACTOR	n/a	LTP331	ltpFR2	0	8	n/a	n/a	n/a	n/a	0	0	0
1925496	PROB	n/a	LTP331	ltpFR2	0	n/a	n/a	n/a	13	21	6	8	7
1929993	PROB	n/a	LTP331	ltpFR2	0	n/a	n/a	n/a	13	14	6	5	3
1931892	PROB	n/a	LTP331	ltpFR2	0	n/a	n/a	n/a	13	18	2	8	8
1934641	PROB	n/a	LTP331	ltpFR2	0	n/a	n/a	n/a	13	8	2	1	5
1936274	PROB	n/a	LTP331	ltpFR2	0	n/a	n/a	n/a	13	17	2	8	7
1939005	PROB	n/a	LTP331	ltpFR2	0	n/a	n/a	n/a	13	15	6	1	8
1940887	PROB	n/a	LTP331	ltpFR2	0	n/a	n/a	n/a	13	13	1	9	3
1942504	PROB	n/a	LTP331	ltpFR2	0	n/a	n/a	n/a	13	18	8	9	1
1944204	PROB	n/a	LTP331	ltpFR2	0	n/a	n/a	n/a	13	18	4	5	9
1946303	PROB	n/a	LTP331	ltpFR2	0	n/a	n/a	n/a	13	14	3	5	6
1947965	STOP	n/a	LTP331	ltpFR2	0	n/a	n/a	n/a	13	n/a	n/a	n/a	n/a
1950401	REC_START	n/a	LTP331	ltpFR2	0	8	n/a	n/a	n/a	n/a	0	0	0
1954378	REC_WORD	wordpools/wasnorm_wordpool_576.txt	LTP331	ltpFR2	0	8	TRUCK	1512	n/a	n/a	0	0	0
1954809	REC_WORD	wordpools/wasnorm_wordpool_576.txt	LTP331	ltpFR2	0	8	MILDEW	893	n/a	n/a	0	0	0
1955349	REC_WORD	wordpools/wasnorm_wordpool_576.txt	LTP331	ltpFR2	0	8	SHORTS	1293	n/a	n/a	0	0	0
1956885	REC_WORD	wordpools/wasnorm_wordpool_576.txt	LTP331	ltpFR2	0	8	BLOUSE	139	n/a	n/a	0	0	0
1959897	REC_WORD	wordpools/wasnorm_wordpool_576.txt	LTP331	ltpFR2	0	8	BARLEY	88	n/a	n/a	0	0	0
1960859	REC_WORD	wordpools/wasnorm_wordpool_576.txt	LTP331	ltpFR2	0	8	BANK	83	n/a	n/a	0	0	0
1961779	REC_WORD	wordpools/wasnorm_wordpool_576.txt	LTP331	ltpFR2	0	8	WITNESS	1618	n/a	n/a	0	0	0
1962644	REC_WORD	wordpools/wasnorm_wordpool_576.txt	LTP331	ltpFR2	0	8	COURSE	390	n/a	n/a	0	0	0
1963339	REC_WORD	wordpools/wasnorm_wordpool_576.txt	LTP331	ltpFR2	0	8	LUNCH	849	n/a	n/a	0	0	0
1964047	REC_WORD	wordpools/wasnorm_wordpool_576.txt	LTP331	ltpFR2	0	8	HORNET	718	n/a	n/a	0	0	0
1965719	REC_WORD	wordpools/wasnorm_wordpool_576.txt	LTP331	ltpFR2	0	8	FLIPPER	580	n/a	n/a	0	0	0
1968659	REC_WORD	wordpools/wasnorm_wordpool_576.txt	LTP331	ltpFR2	0	8	BACON	67	n/a	n/a	0	0	0
1974290	REC_WORD	wordpools/wasnorm_wordpool_576.txt	LTP331	ltpFR2	0	8	MARS	873	n/a	n/a	0	0	0
1975902	REC_WORD	wordpools/wasnorm_wordpool_576.txt	LTP331	ltpFR2	0	8	VENUS	1557	n/a	n/a	0	0	0
1977395	REC_WORD	wordpools/wasnorm_wordpool_576.txt	LTP331	ltpFR2	0	8	AWARD	63	n/a	n/a	0	0	0
1978743	REC_WORD	wordpools/wasnorm_wordpool_576.txt	LTP331	ltpFR2	0	8	BABY	64	n/a	n/a	0	0	0
1980170	REC_WORD	wordpools/wasnorm_wordpool_576.txt	LTP331	ltpFR2	0	8	TORTOISE	1486	n/a	n/a	0	0	0
1988022	REC_WORD	wordpools/wasnorm_wordpool_576.txt	LTP331	ltpFR2	0	8	GAVEL	627	n/a	n/a	0	0	0
1990648	REC_WORD	wordpools/wasnorm_wordpool_576.txt	LTP331	ltpFR2	0	8	TEACHER	1440	n/a	n/a	0	0	0
1993384	REC_WORD	wordpools/wasnorm_wordpool_576.txt	LTP331	ltpFR2	0	8	CANDY	230	n/a	n/a	0	0	0
1993993	REC_WORD	wordpools/wasnorm_wordpool_576.txt	LTP331	ltpFR2	0	8	RATTLE	1170	n/a	n/a	0	0	0
1994458	REC_WORD	wordpools/wasnorm_wordpool_576.txt	LTP331	ltpFR2	0	8	SPOON	1357	n/a	n/a	0	0	0
2026949	REST_REWET	n/a	LTP331	ltpFR2	0	8	n/a	n/a	n/a	n/a	0	0	0
2284816	DISTRACTOR	n/a	LTP331	ltpFR2	0	9	n/a	n/a	n/a	n/a	0	0	0
2284816	START	n/a	LTP331	ltpFR2	0	n/a	n/a	n/a	14	n/a	n/a	n/a	n/a
2284833	PROB	n/a	LTP331	ltpFR2	0	n/a	n/a	n/a	14	11	2	4	5
2287082	PROB	n/a	LTP331	ltpFR2	0	n/a	n/a	n/a	14	15	6	4	5
2289647	PROB	n/a	LTP331	ltpFR2	0	n/a	n/a	n/a	14	16	6	9	1
2291147	PROB	n/a	LTP331	ltpFR2	0	n/a	n/a	n/a	14	20	7	6	7
2292779	PROB	n/a	LTP331	ltpFR2	0	n/a	n/a	n/a	14	20	7	8	5
2294495	PROB	n/a	LTP331	ltpFR2	0	n/a	n/a	n/a	14	15	2	9	4
2296028	PROB	n/a	LTP331	ltpFR2	0	n/a	n/a	n/a	14	20	8	9	3
2297777	PROB	n/a	LTP331	ltpFR2	0	n/a	n/a	n/a	14	19	4	9	6
2300492	PROB	n/a	LTP331	ltpFR2	0	n/a	n/a	n/a	14	10	2	5	3
2302408	PROB	n/a	LTP331	ltpFR2	0	n/a	n/a	n/a	14	17	4	7	6
2304674	PROB	n/a	LTP331	ltpFR2	0	n/a	n/a	n/a	14	13	2	3	8
2306206	PROB	n/a	LTP331	ltpFR2	0	n/a	n/a	n/a	14	17	6	3	8
2308634	STOP	n/a	LTP331	ltpFR2	0	n/a	n/a	n/a	14	n/a	n/a	n/a	n/a
2309887	WORD	wordpools/wasnorm_wordpool_576.txt	LTP331	ltpFR2	0	9	BEEF	113	n/a	n/a	0	0	0
2312620	WORD	wordpools/wasnorm_wordpool_576.txt	LTP331	ltpFR2	0	9	PISTON	1076	n/a	n/a	0	0	0
2315252	WORD	wordpools/wasnorm_wordpool_576.txt	LTP331	ltpFR2	0	9	BULLET	194	n/a	n/a	0	0	0
2317983	WORD	wordpools/wasnorm_wordpool_576.txt	LTP331	ltpFR2	0	9	PLATE	1086	n/a	n/a	0	0	0
2320783	WORD	wordpools/wasnorm_wordpool_576.txt	LTP331	ltpFR2	0	9	COLONEL	348	n/a	n/a	0	0	0
2323215	WORD	wordpools/wasnorm_wordpool_576.txt	LTP331	ltpFR2	0	9	CHEMIST	292	n/a	n/a	0	0	0
2325880	WORD	wordpools/wasnorm_wordpool_576.txt	LTP331	ltpFR2	0	9	RIFLE	1192	n/a	n/a	0	0	0
2328563	WORD	wordpools/wasnorm_wordpool_576.txt	LTP331	ltpFR2	0	9	FLASK	576	n/a	n/a	0	0	0
2331295	WORD	wordpools/wasnorm_wordpool_576.txt	LTP331	ltpFR2	0	9	YARN	1631	n/a	n/a	0	0	0
2333993	WORD	wordpools/wasnorm_wordpool_576.txt	LTP331	ltpFR2	0	9	PACKAGE	997	n/a	n/a	0	0	0
2336426	WORD	wordpools/wasnorm_wordpool_576.txt	LTP331	ltpFR2	0	9	CASHEW	253	n/a	n/a	0	0	0
2338875	WORD	wordpools/wasnorm_wordpool_576.txt	LTP331	ltpFR2	0	9	PEANUT	1032	n/a	n/a	0	0	0
2341624	WORD	wordpools/wasnorm_wordpool_576.txt	LTP331	ltpFR2	0	9	FARMER	553	n/a	n/a	0	0	0
2344106	WORD	wordpools/wasnorm_wordpool_576.txt	LTP331	ltpFR2	0	9	DRINK	498	n/a	n/a	0	0	0
2346738	WORD	wordpools/wasnorm_wordpool_576.txt	LTP331	ltpFR2	0	9	HOSTESS	723	n/a	n/a	0	0	0
2349453	WORD	wordpools/wasnorm_wordpool_576.txt	LTP331	ltpFR2	0	9	DINER	467	n/a	n/a	0	0	0
2352252	WORD	wordpools/wasnorm_wordpool_576.txt	LTP331	ltpFR2	0	9	FOOT	590	n/a	n/a	0	0	0
2354883	WORD	wordpools/wasnorm_wordpool_576.txt	LTP331	ltpFR2	0	9	BRANDY	169	n/a	n/a	0	0	0
2357417	WORD	wordpools/wasnorm_wordpool_576.txt	LTP331	ltpFR2	0	9	CLAMP	316	n/a	n/a	0	0	0
2359849	WORD	wordpools/wasnorm_wordpool_576.txt	LTP331	ltpFR2	0	9	PORK	1108	n/a	n/a	0	0	0
2362597	WORD	wordpools/wasnorm_wordpool_576.txt	LTP331	ltpFR2	0	9	OZONE	996	n/a	n/a	0	0	0
2365296	WORD	wordpools/wasnorm_wordpool_576.txt	LTP331	ltpFR2	0	9	BREAST	171	n/a	n/a	0	0	0
2367729	WORD	wordpools/wasnorm_wordpool_576.txt	LTP331	ltpFR2	0	9	AGENT	10	n/a	n/a	0	0	0
2370327	WORD	wordpools/wasnorm_wordpool_576.txt	LTP331	ltpFR2	0	9	SHERIFF	1284	n/a	n/a	0	0	0
2371942	START	n/a	LTP331	ltpFR2	0	n/a	n/a	n/a	15	n/a	n/a	n/a	n/a
2373142	DISTRACTOR	n/a	LTP331	ltpFR2	0	9	n/a	n/a	n/a	n/a	0	0	0
2373159	PROB	n/a	LTP331	ltpFR2	0	n/a	n/a	n/a	15	17	2	8	7
2376957	PROB	n/a	LTP331	ltpFR2	0	n/a	n/a	n/a	15	21	6	8	7
2378707	PROB	n/a	LTP331	ltpFR2	0	n/a	n/a	n/a	15	14	5	6	3
2380273	PROB	n/a	LTP331	ltpFR2	0	n/a	n/a	n/a	15	7	2	4	1
2381672	PROB	n/a	LTP331	ltpFR2	0	n/a	n/a	n/a	15	14	6	3	5
2383738	PROB	n/a	LTP331	ltpFR2	0	n/a	n/a	n/a	15	14	7	2	5
2385969	PROB	n/a	LTP331	ltpFR2	0	n/a	n/a	n/a	15	17	6	5	6
2388019	PROB	n/a	LTP331	ltpFR2	0	n/a	n/a	n/a	15	19	5	8	6
2390285	PROB	n/a	LTP331	ltpFR2	0	n/a	n/a	n/a	15	22	6	8	8
2391933	PROB	n/a	LTP331	ltpFR2	0	n/a	n/a	n/a	15	23	9	5	9
2393817	PROB	n/a	LTP331	ltpFR2	0	n/a	n/a	n/a	15	13	4	6	3
2395324	STOP	n/a	LTP331	ltpFR2	0	n/a	n/a	n/a	15	n/a	n/a	n/a	n/a
2397849	REC_START	n/a	LTP331	ltpFR2	0	9	n/a	n/a	n/a	n/a	0	0	0
2403947	REC_WORD	wordpools/wasnorm_wordpool_576.txt	LTP331	ltpFR2	0	9	BEEF	113	n/a	n/a	0	0	0
2404364	REC_WORD	wordpools/wasnorm_wordpool_576.txt	LTP331	ltpFR2	0	9	PISTON	1076	n/a	n/a	0	0	0
2406605	REC_WORD	wordpools/wasnorm_wordpool_576.txt	LTP331	ltpFR2	0	9	BULLET	194	n/a	n/a	0	0	0
2407810	REC_WORD	wordpools/wasnorm_wordpool_576.txt	LTP331	ltpFR2	0	9	PLATE	1086	n/a	n/a	0	0	0
2408162	REC_WORD	wordpools/wasnorm_wordpool_576.txt	LTP331	ltpFR2	0	9	COLONEL	348	n/a	n/a	0	0	0
2408619	REC_WORD	wordpools/wasnorm_wordpool_576.txt	LTP331	ltpFR2	0	9	CHEMIST	292	n/a	n/a	0	0	0
2409182	REC_WORD	wordpools/wasnorm_wordpool_576.txt	LTP331	ltpFR2	0	9	RIFLE	1192	n/a	n/a	0	0	0
2411296	REC_WORD	wordpools/wasnorm_wordpool_576.txt	LTP331	ltpFR2	0	9	FLASK	576	n/a	n/a	0	0	0
2412290	REC_WORD	wordpools/wasnorm_wordpool_576.txt	LTP331	ltpFR2	0	9	PACKAGE	997	n/a	n/a	0	0	0
2413281	REC_WORD	wordpools/wasnorm_wordpool_576.txt	LTP331	ltpFR2	0	9	YARN	1631	n/a	n/a	0	0	0
2417639	REC_WORD	wordpools/wasnorm_wordpool_576.txt	LTP331	ltpFR2	0	9	PEANUT	1032	n/a	n/a	0	0	0
2418042	REC_WORD	wordpools/wasnorm_wordpool_576.txt	LTP331	ltpFR2	0	9	CASHEW	253	n/a	n/a	0	0	0
2418493	REC_WORD	wordpools/wasnorm_wordpool_576.txt	LTP331	ltpFR2	0	9	FARMER	553	n/a	n/a	0	0	0
2419089	REC_WORD	wordpools/wasnorm_wordpool_576.txt	LTP331	ltpFR2	0	9	DRINK	498	n/a	n/a	0	0	0
2421143	REC_WORD	wordpools/wasnorm_wordpool_576.txt	LTP331	ltpFR2	0	9	HOSTESS	723	n/a	n/a	0	0	0
2421914	REC_WORD	wordpools/wasnorm_wordpool_576.txt	LTP331	ltpFR2	0	9	DINER	467	n/a	n/a	0	0	0
2422362	REC_WORD	wordpools/wasnorm_wordpool_576.txt	LTP331	ltpFR2	0	9	FOOT	590	n/a	n/a	0	0	0
2422988	REC_WORD	wordpools/wasnorm_wordpool_576.txt	LTP331	ltpFR2	0	9	CLAMP	316	n/a	n/a	0	0	0
2424533	REC_WORD	wordpools/wasnorm_wordpool_576.txt	LTP331	ltpFR2	0	9	BRANDY	169	n/a	n/a	0	0	0
2425183	REC_WORD	wordpools/wasnorm_wordpool_576.txt	LTP331	ltpFR2	0	9	PORK	1108	n/a	n/a	0	0	0
2425936	REC_WORD	wordpools/wasnorm_wordpool_576.txt	LTP331	ltpFR2	0	9	OZONE	996	n/a	n/a	0	0	0
2426825	REC_WORD	wordpools/wasnorm_wordpool_576.txt	LTP331	ltpFR2	0	9	BREAST	171	n/a	n/a	0	0	0
2429179	REC_WORD	wordpools/wasnorm_wordpool_576.txt	LTP331	ltpFR2	0	9	AGENT	10	n/a	n/a	0	0	0
2429748	REC_WORD	wordpools/wasnorm_wordpool_576.txt	LTP331	ltpFR2	0	9	SHERIFF	1284	n/a	n/a	0	0	0
2488274	DISTRACTOR	n/a	LTP331	ltpFR2	0	10	n/a	n/a	n/a	n/a	0	0	0
2488274	START	n/a	LTP331	ltpFR2	0	n/a	n/a	n/a	16	n/a	n/a	n/a	n/a
2488291	PROB	n/a	LTP331	ltpFR2	0	n/a	n/a	n/a	16	18	7	2	9
2490173	PROB	n/a	LTP331	ltpFR2	0	n/a	n/a	n/a	16	9	3	2	4
2492072	PROB	n/a	LTP331	ltpFR2	0	n/a	n/a	n/a	16	15	3	8	4
2493920	PROB	n/a	LTP331	ltpFR2	0	n/a	n/a	n/a	16	18	4	8	6
2495770	PROB	n/a	LTP331	ltpFR2	0	n/a	n/a	n/a	16	17	9	6	2
2497803	PROB	n/a	LTP331	ltpFR2	0	n/a	n/a	n/a	16	11	4	3	4
2499669	PROB	n/a	LTP331	ltpFR2	0	n/a	n/a	n/a	16	14	6	3	5
2501335	PROB	n/a	LTP331	ltpFR2	0	n/a	n/a	n/a	16	12	7	2	3
2503267	PROB	n/a	LTP331	ltpFR2	0	n/a	n/a	n/a	16	18	3	9	6
2505466	PROB	n/a	LTP331	ltpFR2	0	n/a	n/a	n/a	16	19	3	8	8
2507232	PROB	n/a	LTP331	ltpFR2	0	n/a	n/a	n/a	16	13	5	3	5
2508781	PROB	n/a	LTP331	ltpFR2	0	n/a	n/a	n/a	16	12	2	2	8
2512274	STOP	n/a	LTP331	ltpFR2	0	n/a	n/a	n/a	16	n/a	n/a	n/a	n/a
2513429	WORD	wordpools/wasnorm_wordpool_576.txt	LTP331	ltpFR2	0	10	PERFUME	1049	n/a	n/a	0	0	0
2515944	WORD	wordpools/wasnorm_wordpool_576.txt	LTP331	ltpFR2	0	10	KEEPER	769	n/a	n/a	0	0	0
2518693	WORD	wordpools/wasnorm_wordpool_576.txt	LTP331	ltpFR2	0	10	PARTNER	1017	n/a	n/a	0	0	0
2521176	WORD	wordpools/wasnorm_wordpool_576.txt	LTP331	ltpFR2	0	10	FRECKLE	602	n/a	n/a	0	0	0
2523741	WORD	wordpools/wasnorm_wordpool_576.txt	LTP331	ltpFR2	0	10	TRIBE	1505	n/a	n/a	0	0	0
2526357	WORD	wordpools/wasnorm_wordpool_576.txt	LTP331	ltpFR2	0	10	GARDEN	623	n/a	n/a	0	0	0
2529055	WORD	wordpools/wasnorm_wordpool_576.txt	LTP331	ltpFR2	0	10	LASER	801	n/a	n/a	0	0	0
2531588	WORD	wordpools/wasnorm_wordpool_576.txt	LTP331	ltpFR2	0	10	WRIST	1626	n/a	n/a	0	0	0
2534303	WORD	wordpools/wasnorm_wordpool_576.txt	LTP331	ltpFR2	0	10	QUEEN	1149	n/a	n/a	0	0	0
2536901	WORD	wordpools/wasnorm_wordpool_576.txt	LTP331	ltpFR2	0	10	DAUGHTER	442	n/a	n/a	0	0	0
2539417	WORD	wordpools/wasnorm_wordpool_576.txt	LTP331	ltpFR2	0	10	TREAT	1501	n/a	n/a	0	0	0
2541965	WORD	wordpools/wasnorm_wordpool_576.txt	LTP331	ltpFR2	0	10	TART	1436	n/a	n/a	0	0	0
2544532	WORD	wordpools/wasnorm_wordpool_576.txt	LTP331	ltpFR2	0	10	OINTMENT	974	n/a	n/a	0	0	0
2547097	WORD	wordpools/wasnorm_wordpool_576.txt	LTP331	ltpFR2	0	10	LEOPARD	812	n/a	n/a	0	0	0
2549663	WORD	wordpools/wasnorm_wordpool_576.txt	LTP331	ltpFR2	0	10	DONOR	485	n/a	n/a	0	0	0
2552395	WORD	wordpools/wasnorm_wordpool_576.txt	LTP331	ltpFR2	0	10	WASP	1593	n/a	n/a	0	0	0
2555160	WORD	wordpools/wasnorm_wordpool_576.txt	LTP331	ltpFR2	0	10	ZIPPER	1636	n/a	n/a	0	0	0
2557891	WORD	wordpools/wasnorm_wordpool_576.txt	LTP331	ltpFR2	0	10	FRAGRANCE	599	n/a	n/a	0	0	0
2560574	WORD	wordpools/wasnorm_wordpool_576.txt	LTP331	ltpFR2	0	10	DENTIST	447	n/a	n/a	0	0	0
2563207	WORD	wordpools/wasnorm_wordpool_576.txt	LTP331	ltpFR2	0	10	BUG	187	n/a	n/a	0	0	0
2565756	WORD	wordpools/wasnorm_wordpool_576.txt	LTP331	ltpFR2	0	10	STALLION	1369	n/a	n/a	0	0	0
2568521	WORD	wordpools/wasnorm_wordpool_576.txt	LTP331	ltpFR2	0	10	SADDLE	1221	n/a	n/a	0	0	0
2571002	WORD	wordpools/wasnorm_wordpool_576.txt	LTP331	ltpFR2	0	10	EAGLE	512	n/a	n/a	0	0	0
2573785	WORD	wordpools/wasnorm_wordpool_576.txt	LTP331	ltpFR2	0	10	COCOON	339	n/a	n/a	0	0	0
2575401	START	n/a	LTP331	ltpFR2	0	n/a	n/a	n/a	17	n/a	n/a	n/a	n/a
2576433	DISTRACTOR	n/a	LTP331	ltpFR2	0	10	n/a	n/a	n/a	n/a	0	0	0
2576451	PROB	n/a	LTP331	ltpFR2	0	n/a	n/a	n/a	17	12	8	3	1
2578250	PROB	n/a	LTP331	ltpFR2	0	n/a	n/a	n/a	17	19	5	6	8
2580382	PROB	n/a	LTP331	ltpFR2	0	n/a	n/a	n/a	17	17	3	5	9
2582648	PROB	n/a	LTP331	ltpFR2	0	n/a	n/a	n/a	17	17	7	9	1
2584230	PROB	n/a	LTP331	ltpFR2	0	n/a	n/a	n/a	17	24	9	6	9
2586163	PROB	n/a	LTP331	ltpFR2	0	n/a	n/a	n/a	17	16	9	1	6
2589078	PROB	n/a	LTP331	ltpFR2	0	n/a	n/a	n/a	17	4	1	1	2
2590976	PROB	n/a	LTP331	ltpFR2	0	n/a	n/a	n/a	17	16	2	8	5
2592875	PROB	n/a	LTP331	ltpFR2	0	n/a	n/a	n/a	17	6	2	1	3
2594576	PROB	n/a	LTP331	ltpFR2	0	n/a	n/a	n/a	17	8	4	3	1
2597108	PROB	n/a	LTP331	ltpFR2	0	n/a	n/a	n/a	17	13	2	2	9
2598683	STOP	n/a	LTP331	ltpFR2	0	n/a	n/a	n/a	17	n/a	n/a	n/a	n/a
2601223	REC_START	n/a	LTP331	ltpFR2	0	10	n/a	n/a	n/a	n/a	0	0	0
2606229	REC_WORD	wordpools/wasnorm_wordpool_576.txt	LTP331	ltpFR2	0	10	PERFUME	1049	n/a	n/a	0	0	0
2606778	REC_WORD	wordpools/wasnorm_wordpool_576.txt	LTP331	ltpFR2	0	10	PARTNER	1017	n/a	n/a	0	0	0
2607209	REC_WORD	wordpools/wasnorm_wordpool_576.txt	LTP331	ltpFR2	0	10	FRECKLE	602	n/a	n/a	0	0	0
2607981	REC_WORD	wordpools/wasnorm_wordpool_576.txt	LTP331	ltpFR2	0	10	KEEPER	769	n/a	n/a	0	0	0
2610658	REC_WORD	wordpools/wasnorm_wordpool_576.txt	LTP331	ltpFR2	0	10	TRIBE	1505	n/a	n/a	0	0	0
2611125	REC_WORD	wordpools/wasnorm_wordpool_576.txt	LTP331	ltpFR2	0	10	GARDEN	623	n/a	n/a	0	0	0
2611541	REC_WORD	wordpools/wasnorm_wordpool_576.txt	LTP331	ltpFR2	0	10	LASER	801	n/a	n/a	0	0	0
2612081	REC_WORD	wordpools/wasnorm_wordpool_576.txt	LTP331	ltpFR2	0	10	WRIST	1626	n/a	n/a	0	0	0
2612612	REC_WORD	wordpools/wasnorm_wordpool_576.txt	LTP331	ltpFR2	0	10	QUEEN	1149	n/a	n/a	0	0	0
2613498	REC_WORD	wordpools/wasnorm_wordpool_576.txt	LTP331	ltpFR2	0	10	DAUGHTER	442	n/a	n/a	0	0	0
2614620	REC_WORD	wordpools/wasnorm_wordpool_576.txt	LTP331	ltpFR2	0	10	TREAT	1501	n/a	n/a	0	0	0
2615401	REC_WORD	wordpools/wasnorm_wordpool_576.txt	LTP331	ltpFR2	0	10	TART	1436	n/a	n/a	0	0	0
2616832	REC_WORD	wordpools/wasnorm_wordpool_576.txt	LTP331	ltpFR2	0	10	OINTMENT	974	n/a	n/a	0	0	0
2617910	REC_WORD	wordpools/wasnorm_wordpool_576.txt	LTP331	ltpFR2	0	10	LEOPARD	812	n/a	n/a	0	0	0
2619956	REC_WORD	wordpools/wasnorm_wordpool_576.txt	LTP331	ltpFR2	0	10	DONOR	485	n/a	n/a	0	0	0
2622805	REC_WORD	wordpools/wasnorm_wordpool_576.txt	LTP331	ltpFR2	0	10	WASP	1593	n/a	n/a	0	0	0
2631252	REC_WORD	wordpools/wasnorm_wordpool_576.txt	LTP331	ltpFR2	0	10	ZIPPER	1636	n/a	n/a	0	0	0
2631956	REC_WORD	wordpools/wasnorm_wordpool_576.txt	LTP331	ltpFR2	0	10	FRAGRANCE	599	n/a	n/a	0	0	0
2633330	REC_WORD	wordpools/wasnorm_wordpool_576.txt	LTP331	ltpFR2	0	10	DENTIST	447	n/a	n/a	0	0	0
2634158	REC_WORD	wordpools/wasnorm_wordpool_576.txt	LTP331	ltpFR2	0	10	BUG	187	n/a	n/a	0	0	0
2637485	REC_WORD	wordpools/wasnorm_wordpool_576.txt	LTP331	ltpFR2	0	10	STALLION	1369	n/a	n/a	0	0	0
2639007	REC_WORD	wordpools/wasnorm_wordpool_576.txt	LTP331	ltpFR2	0	10	SADDLE	1221	n/a	n/a	0	0	0
2640723	REC_WORD	wordpools/wasnorm_wordpool_576.txt	LTP331	ltpFR2	0	10	EAGLE	512	n/a	n/a	0	0	0
2643231	REC_WORD	wordpools/wasnorm_wordpool_576.txt	LTP331	ltpFR2	0	10	COCOON	339	n/a	n/a	0	0	0
2691648	DISTRACTOR	n/a	LTP331	ltpFR2	0	11	n/a	n/a	n/a	n/a	0	0	0
2691649	START	n/a	LTP331	ltpFR2	0	n/a	n/a	n/a	18	n/a	n/a	n/a	n/a
2691665	PROB	n/a	LTP331	ltpFR2	0	n/a	n/a	n/a	18	13	1	3	9
2693381	PROB	n/a	LTP331	ltpFR2	0	n/a	n/a	n/a	18	16	9	4	3
2695363	PROB	n/a	LTP331	ltpFR2	0	n/a	n/a	n/a	18	19	6	7	6
2697279	PROB	n/a	LTP331	ltpFR2	0	n/a	n/a	n/a	18	10	2	5	3
2699062	PROB	n/a	LTP331	ltpFR2	0	n/a	n/a	n/a	18	18	5	6	7
2700844	PROB	n/a	LTP331	ltpFR2	0	n/a	n/a	n/a	18	11	3	1	7
2702260	PROB	n/a	LTP331	ltpFR2	0	n/a	n/a	n/a	18	15	9	3	3
2703793	PROB	n/a	LTP331	ltpFR2	0	n/a	n/a	n/a	18	6	3	2	1
2705326	PROB	n/a	LTP331	ltpFR2	0	n/a	n/a	n/a	18	12	3	4	5
2706974	PROB	n/a	LTP331	ltpFR2	0	n/a	n/a	n/a	18	19	8	3	8
2708691	PROB	n/a	LTP331	ltpFR2	0	n/a	n/a	n/a	18	13	7	1	5
2710457	PROB	n/a	LTP331	ltpFR2	0	n/a	n/a	n/a	18	12	5	6	1
2712156	PROB	n/a	LTP331	ltpFR2	0	n/a	n/a	n/a	18	14	2	7	5
2713738	PROB	n/a	LTP331	ltpFR2	0	n/a	n/a	n/a	18	14	7	4	3
2715230	STOP	n/a	LTP331	ltpFR2	0	n/a	n/a	n/a	18	n/a	n/a	n/a	n/a
2716587	WORD	wordpools/wasnorm_wordpool_576.txt	LTP331	ltpFR2	0	11	PASSAGE	1019	n/a	n/a	0	0	0
2719086	WORD	wordpools/wasnorm_wordpool_576.txt	LTP331	ltpFR2	0	11	WIDOW	1608	n/a	n/a	0	0	0
2721535	WORD	wordpools/wasnorm_wordpool_576.txt	LTP331	ltpFR2	0	11	MACHINE	852	n/a	n/a	0	0	0
2724267	WORD	wordpools/wasnorm_wordpool_576.txt	LTP331	ltpFR2	0	11	FINGER	567	n/a	n/a	0	0	0
2726932	WORD	wordpools/wasnorm_wordpool_576.txt	LTP331	ltpFR2	0	11	POPCORN	1104	n/a	n/a	0	0	0
2729498	WORD	wordpools/wasnorm_wordpool_576.txt	LTP331	ltpFR2	0	11	QUAIL	1147	n/a	n/a	0	0	0
2732080	WORD	wordpools/wasnorm_wordpool_576.txt	LTP331	ltpFR2	0	11	KNAPSACK	783	n/a	n/a	0	0	0
2734746	WORD	wordpools/wasnorm_wordpool_576.txt	LTP331	ltpFR2	0	11	GYMNAST	675	n/a	n/a	0	0	0
2737344	WORD	wordpools/wasnorm_wordpool_576.txt	LTP331	ltpFR2	0	11	SHELF	1280	n/a	n/a	0	0	0
2740160	WORD	wordpools/wasnorm_wordpool_576.txt	LTP331	ltpFR2	0	11	WHISTLE	1606	n/a	n/a	0	0	0
2742908	WORD	wordpools/wasnorm_wordpool_576.txt	LTP331	ltpFR2	0	11	FRANCE	601	n/a	n/a	0	0	0
2745607	WORD	wordpools/wasnorm_wordpool_576.txt	LTP331	ltpFR2	0	11	JAPAN	749	n/a	n/a	0	0	0
2748389	WORD	wordpools/wasnorm_wordpool_576.txt	LTP331	ltpFR2	0	11	PUPPY	1144	n/a	n/a	0	0	0
2750855	WORD	wordpools/wasnorm_wordpool_576.txt	LTP331	ltpFR2	0	11	CATCHER	258	n/a	n/a	0	0	0
2753620	WORD	wordpools/wasnorm_wordpool_576.txt	LTP331	ltpFR2	0	11	ROBOT	1200	n/a	n/a	0	0	0
2756053	WORD	wordpools/wasnorm_wordpool_576.txt	LTP331	ltpFR2	0	11	SPOUSE	1358	n/a	n/a	0	0	0
2758835	WORD	wordpools/wasnorm_wordpool_576.txt	LTP331	ltpFR2	0	11	THRONE	1461	n/a	n/a	0	0	0
2761550	WORD	wordpools/wasnorm_wordpool_576.txt	LTP331	ltpFR2	0	11	WAITER	1580	n/a	n/a	0	0	0
2763981	WORD	wordpools/wasnorm_wordpool_576.txt	LTP331	ltpFR2	0	11	SWAMP	1416	n/a	n/a	0	0	0
2766498	WORD	wordpools/wasnorm_wordpool_576.txt	LTP331	ltpFR2	0	11	MARSH	874	n/a	n/a	0	0	0
2768946	WORD	wordpools/wasnorm_wordpool_576.txt	LTP331	ltpFR2	0	11	VIRUS	1572	n/a	n/a	0	0	0
2771596	WORD	wordpools/wasnorm_wordpool_576.txt	LTP331	ltpFR2	0	11	PAPER	1011	n/a	n/a	0	0	0
2774411	WORD	wordpools/wasnorm_wordpool_576.txt	LTP331	ltpFR2	0	11	SEAFOOD	1260	n/a	n/a	0	0	0
2777126	WORD	wordpools/wasnorm_wordpool_576.txt	LTP331	ltpFR2	0	11	COOKBOOK	373	n/a	n/a	0	0	0
2778743	START	n/a	LTP331	ltpFR2	0	n/a	n/a	n/a	19	n/a	n/a	n/a	n/a
2779901	DISTRACTOR	n/a	LTP331	ltpFR2	0	11	n/a	n/a	n/a	n/a	0	0	0
2779907	PROB	n/a	LTP331	ltpFR2	0	n/a	n/a	n/a	19	12	8	1	3
2782157	PROB	n/a	LTP331	ltpFR2	0	n/a	n/a	n/a	19	8	2	2	4
2783607	PROB	n/a	LTP331	ltpFR2	0	n/a	n/a	n/a	19	18	9	4	5
2786289	PROB	n/a	LTP331	ltpFR2	0	n/a	n/a	n/a	19	18	6	9	3
2788704	PROB	n/a	LTP331	ltpFR2	0	n/a	n/a	n/a	19	12	3	3	6
2790120	PROB	n/a	LTP331	ltpFR2	0	n/a	n/a	n/a	19	20	6	5	9
2793236	PROB	n/a	LTP331	ltpFR2	0	n/a	n/a	n/a	19	11	2	4	5
2795102	PROB	n/a	LTP331	ltpFR2	0	n/a	n/a	n/a	19	6	1	3	2
2796484	PROB	n/a	LTP331	ltpFR2	0	n/a	n/a	n/a	19	15	7	2	6
2800366	PROB	n/a	LTP331	ltpFR2	0	n/a	n/a	n/a	19	13	5	5	8
2801873	STOP	n/a	LTP331	ltpFR2	0	n/a	n/a	n/a	19	n/a	n/a	n/a	n/a
2804481	REC_START	n/a	LTP331	ltpFR2	0	11	n/a	n/a	n/a	n/a	0	0	0
2804510	REC_WORD	wordpools/wasnorm_wordpool_576.txt	LTP331	ltpFR2	0	11	THRONE	1461	n/a	n/a	0	0	0
2808515	REC_WORD	wordpools/wasnorm_wordpool_576.txt	LTP331	ltpFR2	0	11	PAPER	1011	n/a	n/a	0	0	0
2808907	REC_WORD	wordpools/wasnorm_wordpool_576.txt	LTP331	ltpFR2	0	11	SEAFOOD	1260	n/a	n/a	0	0	0
2809652	REC_WORD	wordpools/wasnorm_wordpool_576.txt	LTP331	ltpFR2	0	11	COOKBOOK	373	n/a	n/a	0	0	0
2813869	REC_WORD	wordpools/wasnorm_wordpool_576.txt	LTP331	ltpFR2	0	11	PASSAGE	1019	n/a	n/a	0	0	0
2814683	REC_WORD	wordpools/wasnorm_wordpool_576.txt	LTP331	ltpFR2	0	11	WIDOW	1608	n/a	n/a	0	0	0
2815224	REC_WORD	wordpools/wasnorm_wordpool_576.txt	LTP331	ltpFR2	0	11	FINGER	567	n/a	n/a	0	0	0
2815870	REC_WORD	wordpools/wasnorm_wordpool_576.txt	LTP331	ltpFR2	0	11	MACHINE	852	n/a	n/a	0	0	0
2816661	REC_WORD	wordpools/wasnorm_wordpool_576.txt	LTP331	ltpFR2	0	11	POPCORN	1104	n/a	n/a	0	0	0
2817393	REC_WORD	wordpools/wasnorm_wordpool_576.txt	LTP331	ltpFR2	0	11	QUAIL	1147	n/a	n/a	0	0	0
2819094	REC_WORD	wordpools/wasnorm_wordpool_576.txt	LTP331	ltpFR2	0	11	GYMNAST	675	n/a	n/a	0	0	0
2820105	REC_WORD	wordpools/wasnorm_wordpool_576.txt	LTP331	ltpFR2	0	11	SHELF	1280	n/a	n/a	0	0	0
2820899	REC_WORD	wordpools/wasnorm_wordpool_576.txt	LTP331	ltpFR2	0	11	WHISTLE	1606	n/a	n/a	0	0	0
2821438	REC_WORD	wordpools/wasnorm_wordpool_576.txt	LTP331	ltpFR2	0	11	FRANCE	601	n/a	n/a	0	0	0
2822194	REC_WORD	wordpools/wasnorm_wordpool_576.txt	LTP331	ltpFR2	0	11	JAPAN	749	n/a	n/a	0	0	0
2822976	REC_WORD	wordpools/wasnorm_wordpool_576.txt	LTP331	ltpFR2	0	11	PUPPY	1144	n/a	n/a	0	0	0
2823534	REC_WORD	wordpools/wasnorm_wordpool_576.txt	LTP331	ltpFR2	0	11	CATCHER	258	n/a	n/a	0	0	0
2824155	REC_WORD	wordpools/wasnorm_wordpool_576.txt	LTP331	ltpFR2	0	11	ROBOT	1200	n/a	n/a	0	0	0
2824787	REC_WORD	wordpools/wasnorm_wordpool_576.txt	LTP331	ltpFR2	0	11	SPOUSE	1358	n/a	n/a	0	0	0
2825753	REC_WORD	wordpools/wasnorm_wordpool_576.txt	LTP331	ltpFR2	0	11	THRONE	1461	n/a	n/a	0	0	0
2827504	REC_WORD	wordpools/wasnorm_wordpool_576.txt	LTP331	ltpFR2	0	11	WAITER	1580	n/a	n/a	0	0	0
2829041	REC_WORD	wordpools/wasnorm_wordpool_576.txt	LTP331	ltpFR2	0	11	SWAMP	1416	n/a	n/a	0	0	0
2829945	REC_WORD	wordpools/wasnorm_wordpool_576.txt	LTP331	ltpFR2	0	11	MARSH	874	n/a	n/a	0	0	0
2832177	REC_WORD	wordpools/wasnorm_wordpool_576.txt	LTP331	ltpFR2	0	11	VIRUS	1572	n/a	n/a	0	0	0
2894939	WORD	wordpools/wasnorm_wordpool_576.txt	LTP331	ltpFR2	0	12	CEILING	265	n/a	n/a	0	0	0
2897422	WORD	wordpools/wasnorm_wordpool_576.txt	LTP331	ltpFR2	0	12	GROUND	666	n/a	n/a	0	0	0
2899986	WORD	wordpools/wasnorm_wordpool_576.txt	LTP331	ltpFR2	0	12	ASIA	46	n/a	n/a	0	0	0
2902619	WORD	wordpools/wasnorm_wordpool_576.txt	LTP331	ltpFR2	0	12	EUROPE	541	n/a	n/a	0	0	0
2905402	WORD	wordpools/wasnorm_wordpool_576.txt	LTP331	ltpFR2	0	12	DUST	508	n/a	n/a	0	0	0
2907933	WORD	wordpools/wasnorm_wordpool_576.txt	LTP331	ltpFR2	0	12	HAWK	692	n/a	n/a	0	0	0
2910466	WORD	wordpools/wasnorm_wordpool_576.txt	LTP331	ltpFR2	0	12	SCARECROW	1245	n/a	n/a	0	0	0
2912964	WORD	wordpools/wasnorm_wordpool_576.txt	LTP331	ltpFR2	0	12	RABBIT	1152	n/a	n/a	0	0	0
2915397	WORD	wordpools/wasnorm_wordpool_576.txt	LTP331	ltpFR2	0	12	CAPTIVE	240	n/a	n/a	0	0	0
2918179	WORD	wordpools/wasnorm_wordpool_576.txt	LTP331	ltpFR2	0	12	FILM	565	n/a	n/a	0	0	0
2920828	WORD	wordpools/wasnorm_wordpool_576.txt	LTP331	ltpFR2	0	12	STOMACH	1384	n/a	n/a	0	0	0
2923527	WORD	wordpools/wasnorm_wordpool_576.txt	LTP331	ltpFR2	0	12	BUNNY	198	n/a	n/a	0	0	0
2925991	WORD	wordpools/wasnorm_wordpool_576.txt	LTP331	ltpFR2	0	12	LACE	792	n/a	n/a	0	0	0
2928691	WORD	wordpools/wasnorm_wordpool_576.txt	LTP331	ltpFR2	0	12	FIREMAN	569	n/a	n/a	0	0	0
2931223	WORD	wordpools/wasnorm_wordpool_576.txt	LTP331	ltpFR2	0	12	RACKET	1155	n/a	n/a	0	0	0
2933954	WORD	wordpools/wasnorm_wordpool_576.txt	LTP331	ltpFR2	0	12	SIBLING	1301	n/a	n/a	0	0	0
2936471	WORD	wordpools/wasnorm_wordpool_576.txt	LTP331	ltpFR2	0	12	SHELTER	1282	n/a	n/a	0	0	0
2938902	WORD	wordpools/wasnorm_wordpool_576.txt	LTP331	ltpFR2	0	12	SANDWICH	1232	n/a	n/a	0	0	0
2941668	WORD	wordpools/wasnorm_wordpool_576.txt	LTP331	ltpFR2	0	12	CROWN	415	n/a	n/a	0	0	0
2944334	WORD	wordpools/wasnorm_wordpool_576.txt	LTP331	ltpFR2	0	12	TWEEZERS	1526	n/a	n/a	0	0	0
2946882	WORD	wordpools/wasnorm_wordpool_576.txt	LTP331	ltpFR2	0	12	CIGAR	308	n/a	n/a	0	0	0
2949681	WORD	wordpools/wasnorm_wordpool_576.txt	LTP331	ltpFR2	0	12	SHOULDER	1294	n/a	n/a	0	0	0
2952464	WORD	wordpools/wasnorm_wordpool_576.txt	LTP331	ltpFR2	0	12	BLUEPRINT	142	n/a	n/a	0	0	0
2954911	WORD	wordpools/wasnorm_wordpool_576.txt	LTP331	ltpFR2	0	12	PARENT	1013	n/a	n/a	0	0	0
2956529	START	n/a	LTP331	ltpFR2	0	n/a	n/a	n/a	20	n/a	n/a	n/a	n/a
2957603	DISTRACTOR	n/a	LTP331	ltpFR2	0	12	n/a	n/a	n/a	n/a	0	0	0
2957628	PROB	n/a	LTP331	ltpFR2	0	n/a	n/a	n/a	20	14	7	3	4
2959577	PROB	n/a	LTP331	ltpFR2	0	n/a	n/a	n/a	20	13	5	1	7
2961126	PROB	n/a	LTP331	ltpFR2	0	n/a	n/a	n/a	20	16	9	5	2
2962875	PROB	n/a	LTP331	ltpFR2	0	n/a	n/a	n/a	20	17	3	5	9
2964725	PROB	n/a	LTP331	ltpFR2	0	n/a	n/a	n/a	20	16	9	3	4
2966324	PROB	n/a	LTP331	ltpFR2	0	n/a	n/a	n/a	20	10	1	7	2
2968005	PROB	n/a	LTP331	ltpFR2	0	n/a	n/a	n/a	20	16	2	5	9
2969589	PROB	n/a	LTP331	ltpFR2	0	n/a	n/a	n/a	20	9	2	4	3
2971039	PROB	n/a	LTP331	ltpFR2	0	n/a	n/a	n/a	20	9	6	1	2
2972970	PROB	n/a	LTP331	ltpFR2	0	n/a	n/a	n/a	20	13	3	1	9
2974620	PROB	n/a	LTP331	ltpFR2	0	n/a	n/a	n/a	20	21	6	6	9
2978052	PROB	n/a	LTP331	ltpFR2	0	n/a	n/a	n/a	20	22	5	9	8
2979942	STOP	n/a	LTP331	ltpFR2	0	n/a	n/a	n/a	20	n/a	n/a	n/a	n/a
2982351	REC_START	n/a	LTP331	ltpFR2	0	12	n/a	n/a	n/a	n/a	0	0	0
2984443	REC_WORD	wordpools/wasnorm_wordpool_576.txt	LTP331	ltpFR2	0	12	CEILING	265	n/a	n/a	0	0	0
2985160	REC_WORD	wordpools/wasnorm_wordpool_576.txt	LTP331	ltpFR2	0	12	GROUND	666	n/a	n/a	0	0	0
2985843	REC_WORD	wordpools/wasnorm_wordpool_576.txt	LTP331	ltpFR2	0	12	EUROPE	541	n/a	n/a	0	0	0
2986456	REC_WORD	wordpools/wasnorm_wordpool_576.txt	LTP331	ltpFR2	0	12	ASIA	46	n/a	n/a	0	0	0
2987062	REC_WORD	wordpools/wasnorm_wordpool_576.txt	LTP331	ltpFR2	0	12	DUST	508	n/a	n/a	0	0	0
2987894	REC_WORD	wordpools/wasnorm_wordpool_576.txt	LTP331	ltpFR2	0	12	HAWK	692	n/a	n/a	0	0	0
2989485	REC_WORD	wordpools/wasnorm_wordpool_576.txt	LTP331	ltpFR2	0	12	SCARECROW	1245	n/a	n/a	0	0	0
2993896	REC_WORD	wordpools/wasnorm_wordpool_576.txt	LTP331	ltpFR2	0	12	BUNNY	198	n/a	n/a	0	0	0
2994525	REC_WORD	wordpools/wasnorm_wordpool_576.txt	LTP331	ltpFR2	0	12	RABBIT	1152	n/a	n/a	0	0	0
2997318	REC_WORD	wordpools/wasnorm_wordpool_576.txt	LTP331	ltpFR2	0	12	PRISONER	1128	n/a	n/a	0	0	0
2998363	REC_WORD	wordpools/wasnorm_wordpool_576.txt	LTP331	ltpFR2	0	12	CAPTIVE	240	n/a	n/a	0	0	0
3000123	REC_WORD	wordpools/wasnorm_wordpool_576.txt	LTP331	ltpFR2	0	12	FILM	565	n/a	n/a	0	0	0
3001012	REC_WORD	wordpools/wasnorm_wordpool_576.txt	LTP331	ltpFR2	0	12	STOMACH	1384	n/a	n/a	0	0	0
3001868	REC_WORD	wordpools/wasnorm_wordpool_576.txt	LTP331	ltpFR2	0	12	LACE	792	n/a	n/a	0	0	0
3002439	REC_WORD	wordpools/wasnorm_wordpool_576.txt	LTP331	ltpFR2	0	12	FIREMAN	569	n/a	n/a	0	0	0
3006248	REC_WORD	wordpools/wasnorm_wordpool_576.txt	LTP331	ltpFR2	0	12	RACKET	1155	n/a	n/a	0	0	0
3006923	REC_WORD	wordpools/wasnorm_wordpool_576.txt	LTP331	ltpFR2	0	12	SIBLING	1301	n/a	n/a	0	0	0
3007722	REC_WORD	wordpools/wasnorm_wordpool_576.txt	LTP331	ltpFR2	0	12	SHELTER	1282	n/a	n/a	0	0	0
3008622	REC_WORD	wordpools/wasnorm_wordpool_576.txt	LTP331	ltpFR2	0	12	SANDWICH	1232	n/a	n/a	0	0	0
3009481	REC_WORD	wordpools/wasnorm_wordpool_576.txt	LTP331	ltpFR2	0	12	CROWN	415	n/a	n/a	0	0	0
3011125	REC_WORD	wordpools/wasnorm_wordpool_576.txt	LTP331	ltpFR2	0	12	TWEEZERS	1526	n/a	n/a	0	0	0
3011797	REC_WORD	wordpools/wasnorm_wordpool_576.txt	LTP331	ltpFR2	0	12	CIGAR	308	n/a	n/a	0	0	0
3016565	REC_WORD	wordpools/wasnorm_wordpool_576.txt	LTP331	ltpFR2	0	12	SHOULDER	1294	n/a	n/a	0	0	0
3017708	REC_WORD	wordpools/wasnorm_wordpool_576.txt	LTP331	ltpFR2	0	12	PARENT	1013	n/a	n/a	0	0	0
3018395	REC_WORD	wordpools/wasnorm_wordpool_576.txt	LTP331	ltpFR2	0	12	BLUEPRINT	142	n/a	n/a	0	0	0
3051766	REC_WORD	wordpools/wasnorm_wordpool_576.txt	LTP331	ltpFR2	0	12	LACE	792	n/a	n/a	0	0	0
3072809	WORD	wordpools/wasnorm_wordpool_576.txt	LTP331	ltpFR2	0	13	MEDAL	885	n/a	n/a	0	0	0
3075591	WORD	wordpools/wasnorm_wordpool_576.txt	LTP331	ltpFR2	0	13	NECKLACE	940	n/a	n/a	0	0	0
3078407	WORD	wordpools/wasnorm_wordpool_576.txt	LTP331	ltpFR2	0	13	SAUSAGE	1238	n/a	n/a	0	0	0
3081039	WORD	wordpools/wasnorm_wordpool_576.txt	LTP331	ltpFR2	0	13	SWORD	1423	n/a	n/a	0	0	0
3083604	WORD	wordpools/wasnorm_wordpool_576.txt	LTP331	ltpFR2	0	13	BINDER	127	n/a	n/a	0	0	0
3086303	WORD	wordpools/wasnorm_wordpool_576.txt	LTP331	ltpFR2	0	13	COBRA	336	n/a	n/a	0	0	0
3089118	WORD	wordpools/wasnorm_wordpool_576.txt	LTP331	ltpFR2	0	13	CITRUS	313	n/a	n/a	0	0	0
3091916	WORD	wordpools/wasnorm_wordpool_576.txt	LTP331	ltpFR2	0	13	PARROT	1015	n/a	n/a	0	0	0
3094549	WORD	wordpools/wasnorm_wordpool_576.txt	LTP331	ltpFR2	0	13	PLASTER	1085	n/a	n/a	0	0	0
3097198	WORD	wordpools/wasnorm_wordpool_576.txt	LTP331	ltpFR2	0	13	SEAGULL	1261	n/a	n/a	0	0	0
3099647	WORD	wordpools/wasnorm_wordpool_576.txt	LTP331	ltpFR2	0	13	MESSAGE	888	n/a	n/a	0	0	0
3102429	WORD	wordpools/wasnorm_wordpool_576.txt	LTP331	ltpFR2	0	13	VIKING	1565	n/a	n/a	0	0	0
3105228	WORD	wordpools/wasnorm_wordpool_576.txt	LTP331	ltpFR2	0	13	ARM	38	n/a	n/a	0	0	0
3107726	WORD	wordpools/wasnorm_wordpool_576.txt	LTP331	ltpFR2	0	13	ICEBERG	731	n/a	n/a	0	0	0
3110309	WORD	wordpools/wasnorm_wordpool_576.txt	LTP331	ltpFR2	0	13	BANQUET	86	n/a	n/a	0	0	0
3112741	WORD	wordpools/wasnorm_wordpool_576.txt	LTP331	ltpFR2	0	13	ARMY	39	n/a	n/a	0	0	0
3115206	WORD	wordpools/wasnorm_wordpool_576.txt	LTP331	ltpFR2	0	13	FLEET	578	n/a	n/a	0	0	0
3117938	WORD	wordpools/wasnorm_wordpool_576.txt	LTP331	ltpFR2	0	13	BURGLAR	200	n/a	n/a	0	0	0
3120671	WORD	wordpools/wasnorm_wordpool_576.txt	LTP331	ltpFR2	0	13	TURNIP	1521	n/a	n/a	0	0	0
3123469	WORD	wordpools/wasnorm_wordpool_576.txt	LTP331	ltpFR2	0	13	OX	994	n/a	n/a	0	0	0
3126000	WORD	wordpools/wasnorm_wordpool_576.txt	LTP331	ltpFR2	0	13	PECAN	1036	n/a	n/a	0	0	0
3128484	WORD	wordpools/wasnorm_wordpool_576.txt	LTP331	ltpFR2	0	13	CUSTARD	429	n/a	n/a	0	0	0
3131149	WORD	wordpools/wasnorm_wordpool_576.txt	LTP331	ltpFR2	0	13	PERCH	1048	n/a	n/a	0	0	0
3133865	WORD	wordpools/wasnorm_wordpool_576.txt	LTP331	ltpFR2	0	13	SCALPEL	1243	n/a	n/a	0	0	0
3135481	START	n/a	LTP331	ltpFR2	0	n/a	n/a	n/a	21	n/a	n/a	n/a	n/a
3136619	DISTRACTOR	n/a	LTP331	ltpFR2	0	13	n/a	n/a	n/a	n/a	0	0	0
3136630	PROB	n/a	LTP331	ltpFR2	0	n/a	n/a	n/a	21	8	3	3	2
3138346	PROB	n/a	LTP331	ltpFR2	0	n/a	n/a	n/a	21	24	9	8	7
3140545	PROB	n/a	LTP331	ltpFR2	0	n/a	n/a	n/a	21	24	7	9	6
3143427	PROB	n/a	LTP331	ltpFR2	0	n/a	n/a	n/a	21	13	1	3	9
3145709	PROB	n/a	LTP331	ltpFR2	0	n/a	n/a	n/a	21	6	3	2	1
3147008	PROB	n/a	LTP331	ltpFR2	0	n/a	n/a	n/a	21	11	2	3	6
3148491	PROB	n/a	LTP331	ltpFR2	0	n/a	n/a	n/a	21	11	1	9	1
3150457	PROB	n/a	LTP331	ltpFR2	0	n/a	n/a	n/a	21	16	4	8	4
3152206	PROB	n/a	LTP331	ltpFR2	0	n/a	n/a	n/a	21	13	8	2	3
3153622	PROB	n/a	LTP331	ltpFR2	0	n/a	n/a	n/a	21	21	5	8	8
3155705	PROB	n/a	LTP331	ltpFR2	0	n/a	n/a	n/a	21	13	9	6	8
3159481	STOP	n/a	LTP331	ltpFR2	0	n/a	n/a	n/a	21	n/a	n/a	n/a	n/a
3161253	REC_START	n/a	LTP331	ltpFR2	0	13	n/a	n/a	n/a	n/a	0	0	0
3167997	REC_WORD	wordpools/wasnorm_wordpool_576.txt	LTP331	ltpFR2	0	13	MEDAL	885	n/a	n/a	0	0	0
3168577	REC_WORD	wordpools/wasnorm_wordpool_576.txt	LTP331	ltpFR2	0	13	NECKLACE	940	n/a	n/a	0	0	0
3169159	REC_WORD	wordpools/wasnorm_wordpool_576.txt	LTP331	ltpFR2	0	13	SAUSAGE	1238	n/a	n/a	0	0	0
3172696	REC_WORD	wordpools/wasnorm_wordpool_576.txt	LTP331	ltpFR2	0	13	SWORDFIGHT	-1	n/a	n/a	0	0	0
3177609	REC_WORD	wordpools/wasnorm_wordpool_576.txt	LTP331	ltpFR2	0	13	SNAKE	1333	n/a	n/a	0	0	0
3178537	REC_WORD	wordpools/wasnorm_wordpool_576.txt	LTP331	ltpFR2	0	13	BINDER	127	n/a	n/a	0	0	0
3180508	REC_WORD	wordpools/wasnorm_wordpool_576.txt	LTP331	ltpFR2	0	13	CITRUS	313	n/a	n/a	0	0	0
3183068	REC_WORD	wordpools/wasnorm_wordpool_576.txt	LTP331	ltpFR2	0	13	PARROT	1015	n/a	n/a	0	0	0
3183692	REC_WORD	wordpools/wasnorm_wordpool_576.txt	LTP331	ltpFR2	0	13	PLASTER	1085	n/a	n/a	0	0	0
3184254	REC_WORD	wordpools/wasnorm_wordpool_576.txt	LTP331	ltpFR2	0	13	SEAGULL	1261	n/a	n/a	0	0	0
3184939	REC_WORD	wordpools/wasnorm_wordpool_576.txt	LTP331	ltpFR2	0	13	MESSAGE	888	n/a	n/a	0	0	0
3186504	REC_WORD	wordpools/wasnorm_wordpool_576.txt	LTP331	ltpFR2	0	13	VIKING	1565	n/a	n/a	0	0	0
3187211	REC_WORD	wordpools/wasnorm_wordpool_576.txt	LTP331	ltpFR2	0	13	ARM	38	n/a	n/a	0	0	0
3187780	REC_WORD	wordpools/wasnorm_wordpool_576.txt	LTP331	ltpFR2	0	13	ICEBERG	731	n/a	n/a	0	0	0
3190363	REC_WORD	wordpools/wasnorm_wordpool_576.txt	LTP331	ltpFR2	0	13	ARMY	39	n/a	n/a	0	0	0
3191103	REC_WORD	wordpools/wasnorm_wordpool_576.txt	LTP331	ltpFR2	0	13	BANQUET	86	n/a	n/a	0	0	0
3194002	REC_WORD	wordpools/wasnorm_wordpool_576.txt	LTP331	ltpFR2	0	13	FLEET	578	n/a	n/a	0	0	0
3195027	REC_WORD	wordpools/wasnorm_wordpool_576.txt	LTP331	ltpFR2	0	13	OX	994	n/a	n/a	0	0	0
3195706	REC_WORD	wordpools/wasnorm_wordpool_576.txt	LTP331	ltpFR2	0	13	SCALPEL	1243	n/a	n/a	0	0	0
3196607	REC_WORD	wordpools/wasnorm_wordpool_576.txt	LTP331	ltpFR2	0	13	PERCH	1048	n/a	n/a	0	0	0
3199642	REC_WORD	wordpools/wasnorm_wordpool_576.txt	LTP331	ltpFR2	0	13	PECAN	1036	n/a	n/a	0	0	0
3200438	REC_WORD	wordpools/wasnorm_wordpool_576.txt	LTP331	ltpFR2	0	13	CUSTARD	429	n/a	n/a	0	0	0
3201275	REC_WORD	wordpools/wasnorm_wordpool_576.txt	LTP331	ltpFR2	0	13	TURNIP	1521	n/a	n/a	0	0	0
3201842	REC_WORD	wordpools/wasnorm_wordpool_576.txt	LTP331	ltpFR2	0	13	THIEF	1456	n/a	n/a	0	0	0
3251711	WORD	wordpools/wasnorm_wordpool_576.txt	LTP331	ltpFR2	0	14	MUSTARD	935	n/a	n/a	0	0	0
3254160	WORD	wordpools/wasnorm_wordpool_576.txt	LTP331	ltpFR2	0	14	RELISH	1183	n/a	n/a	0	0	0
3256626	WORD	wordpools/wasnorm_wordpool_576.txt	LTP331	ltpFR2	0	14	BEAKER	104	n/a	n/a	0	0	0
3259208	WORD	wordpools/wasnorm_wordpool_576.txt	LTP331	ltpFR2	0	14	PICTURE	1061	n/a	n/a	0	0	0
3261840	WORD	wordpools/wasnorm_wordpool_576.txt	LTP331	ltpFR2	0	14	HOOK	715	n/a	n/a	0	0	0
3264505	WORD	wordpools/wasnorm_wordpool_576.txt	LTP331	ltpFR2	0	14	PROTON	1132	n/a	n/a	0	0	0
3267271	WORD	wordpools/wasnorm_wordpool_576.txt	LTP331	ltpFR2	0	14	KIDNEY	776	n/a	n/a	0	0	0
3269720	WORD	wordpools/wasnorm_wordpool_576.txt	LTP331	ltpFR2	0	14	APPLE	33	n/a	n/a	0	0	0
3272385	WORD	wordpools/wasnorm_wordpool_576.txt	LTP331	ltpFR2	0	14	TROUT	1511	n/a	n/a	0	0	0
3274983	WORD	wordpools/wasnorm_wordpool_576.txt	LTP331	ltpFR2	0	14	COD	340	n/a	n/a	0	0	0
3277699	WORD	wordpools/wasnorm_wordpool_576.txt	LTP331	ltpFR2	0	14	SERVANT	1271	n/a	n/a	0	0	0
3280382	WORD	wordpools/wasnorm_wordpool_576.txt	LTP331	ltpFR2	0	14	GHETTO	633	n/a	n/a	0	0	0
3282996	WORD	wordpools/wasnorm_wordpool_576.txt	LTP331	ltpFR2	0	14	CABBAGE	210	n/a	n/a	0	0	0
3285663	WORD	wordpools/wasnorm_wordpool_576.txt	LTP331	ltpFR2	0	14	CONVICT	371	n/a	n/a	0	0	0
3288361	WORD	wordpools/wasnorm_wordpool_576.txt	LTP331	ltpFR2	0	14	SCISSORS	1250	n/a	n/a	0	0	0
3291177	WORD	wordpools/wasnorm_wordpool_576.txt	LTP331	ltpFR2	0	14	RAZOR	1171	n/a	n/a	0	0	0
3293859	WORD	wordpools/wasnorm_wordpool_576.txt	LTP331	ltpFR2	0	14	ELBOW	520	n/a	n/a	0	0	0
3296424	WORD	wordpools/wasnorm_wordpool_576.txt	LTP331	ltpFR2	0	14	SHIRT	1287	n/a	n/a	0	0	0
3299190	WORD	wordpools/wasnorm_wordpool_576.txt	LTP331	ltpFR2	0	14	ICING	732	n/a	n/a	0	0	0
3301937	WORD	wordpools/wasnorm_wordpool_576.txt	LTP331	ltpFR2	0	14	BELLY	119	n/a	n/a	0	0	0
3304487	WORD	wordpools/wasnorm_wordpool_576.txt	LTP331	ltpFR2	0	14	QUARTER	1148	n/a	n/a	0	0	0
3307120	WORD	wordpools/wasnorm_wordpool_576.txt	LTP331	ltpFR2	0	14	HONEY	713	n/a	n/a	0	0	0
3309585	WORD	wordpools/wasnorm_wordpool_576.txt	LTP331	ltpFR2	0	14	STONE	1385	n/a	n/a	0	0	0
3312034	WORD	wordpools/wasnorm_wordpool_576.txt	LTP331	ltpFR2	0	14	CRAB	397	n/a	n/a	0	0	0
3313650	START	n/a	LTP331	ltpFR2	0	n/a	n/a	n/a	22	n/a	n/a	n/a	n/a
3314648	DISTRACTOR	n/a	LTP331	ltpFR2	0	14	n/a	n/a	n/a	n/a	0	0	0
3314666	PROB	n/a	LTP331	ltpFR2	0	n/a	n/a	n/a	22	22	9	4	9
3317032	PROB	n/a	LTP331	ltpFR2	0	n/a	n/a	n/a	22	18	7	4	7
3318847	PROB	n/a	LTP331	ltpFR2	0	n/a	n/a	n/a	22	11	5	2	4
3320430	PROB	n/a	LTP331	ltpFR2	0	n/a	n/a	n/a	22	18	9	2	7
3322446	PROB	n/a	LTP331	ltpFR2	0	n/a	n/a	n/a	22	13	9	1	3
3324877	PROB	n/a	LTP331	ltpFR2	0	n/a	n/a	n/a	22	10	4	2	4
3326494	PROB	n/a	LTP331	ltpFR2	0	n/a	n/a	n/a	22	6	3	1	2
3327860	PROB	n/a	LTP331	ltpFR2	0	n/a	n/a	n/a	22	6	4	1	1
3329076	PROB	n/a	LTP331	ltpFR2	0	n/a	n/a	n/a	22	11	1	6	4
3330941	PROB	n/a	LTP331	ltpFR2	0	n/a	n/a	n/a	22	7	2	3	2
3332575	PROB	n/a	LTP331	ltpFR2	0	n/a	n/a	n/a	22	11	4	1	6
3334157	PROB	n/a	LTP331	ltpFR2	0	n/a	n/a	n/a	22	16	4	9	3
3337650	STOP	n/a	LTP331	ltpFR2	0	n/a	n/a	n/a	22	n/a	n/a	n/a	n/a
3339555	REC_START	n/a	LTP331	ltpFR2	0	14	n/a	n/a	n/a	n/a	0	0	0
3342626	REC_WORD	wordpools/wasnorm_wordpool_576.txt	LTP331	ltpFR2	0	14	MUSTARD	935	n/a	n/a	0	0	0
3343062	REC_WORD	wordpools/wasnorm_wordpool_576.txt	LTP331	ltpFR2	0	14	RELISH	1183	n/a	n/a	0	0	0
3346845	REC_WORD	wordpools/wasnorm_wordpool_576.txt	LTP331	ltpFR2	0	14	PICTURE	1061	n/a	n/a	0	0	0
3347351	REC_WORD	wordpools/wasnorm_wordpool_576.txt	LTP331	ltpFR2	0	14	BEAKER	104	n/a	n/a	0	0	0
3347881	REC_WORD	wordpools/wasnorm_wordpool_576.txt	LTP331	ltpFR2	0	14	HOOK	715	n/a	n/a	0	0	0
3353791	REC_WORD	wordpools/wasnorm_wordpool_576.txt	LTP331	ltpFR2	0	14	KIDNEY	776	n/a	n/a	0	0	0
3354216	REC_WORD	wordpools/wasnorm_wordpool_576.txt	LTP331	ltpFR2	0	14	APPLE	33	n/a	n/a	0	0	0
3355131	REC_WORD	wordpools/wasnorm_wordpool_576.txt	LTP331	ltpFR2	0	14	TROUT	1511	n/a	n/a	0	0	0
3355653	REC_WORD	wordpools/wasnorm_wordpool_576.txt	LTP331	ltpFR2	0	14	COD	340	n/a	n/a	0	0	0
3357097	REC_WORD	wordpools/wasnorm_wordpool_576.txt	LTP331	ltpFR2	0	14	GHETTO	633	n/a	n/a	0	0	0
3358039	REC_WORD	wordpools/wasnorm_wordpool_576.txt	LTP331	ltpFR2	0	14	SERVANT	1271	n/a	n/a	0	0	0
3359570	REC_WORD	wordpools/wasnorm_wordpool_576.txt	LTP331	ltpFR2	0	14	CABBAGE	210	n/a	n/a	0	0	0
3361005	REC_WORD	wordpools/wasnorm_wordpool_576.txt	LTP331	ltpFR2	0	14	CONVICT	371	n/a	n/a	0	0	0
3364088	REC_WORD	wordpools/wasnorm_wordpool_576.txt	LTP331	ltpFR2	0	14	SCISSORS	1250	n/a	n/a	0	0	0
3366285	REC_WORD	wordpools/wasnorm_wordpool_576.txt	LTP331	ltpFR2	0	14	BLADE	134	n/a	n/a	0	0	0
3367763	REC_WORD	wordpools/wasnorm_wordpool_576.txt	LTP331	ltpFR2	0	14	RAZOR	1171	n/a	n/a	0	0	0
3371541	REC_WORD	wordpools/wasnorm_wordpool_576.txt	LTP331	ltpFR2	0	14	ELBOW	520	n/a	n/a	0	0	0
3372021	REC_WORD	wordpools/wasnorm_wordpool_576.txt	LTP331	ltpFR2	0	14	SHIRT	1287	n/a	n/a	0	0	0
3374057	REC_WORD	wordpools/wasnorm_wordpool_576.txt	LTP331	ltpFR2	0	14	ICING	732	n/a	n/a	0	0	0
3374610	REC_WORD	wordpools/wasnorm_wordpool_576.txt	LTP331	ltpFR2	0	14	STOMACH	1384	n/a	n/a	0	0	0
3375649	REC_WORD	wordpools/wasnorm_wordpool_576.txt	LTP331	ltpFR2	0	14	QUARTER	1148	n/a	n/a	0	0	0
3378424	REC_WORD	wordpools/wasnorm_wordpool_576.txt	LTP331	ltpFR2	0	14	HONEY	713	n/a	n/a	0	0	0
3382915	REC_WORD	wordpools/wasnorm_wordpool_576.txt	LTP331	ltpFR2	0	14	STONE	1385	n/a	n/a	0	0	0
3384535	REC_WORD	wordpools/wasnorm_wordpool_576.txt	LTP331	ltpFR2	0	14	BEAR	106	n/a	n/a	0	0	0
3430014	WORD	wordpools/wasnorm_wordpool_576.txt	LTP331	ltpFR2	0	15	MARINE	869	n/a	n/a	0	0	0
3432829	WORD	wordpools/wasnorm_wordpool_576.txt	LTP331	ltpFR2	0	15	TABLET	1427	n/a	n/a	0	0	0
3435311	WORD	wordpools/wasnorm_wordpool_576.txt	LTP331	ltpFR2	0	15	SISTER	1312	n/a	n/a	0	0	0
3438110	WORD	wordpools/wasnorm_wordpool_576.txt	LTP331	ltpFR2	0	15	WAGON	1578	n/a	n/a	0	0	0
3440842	WORD	wordpools/wasnorm_wordpool_576.txt	LTP331	ltpFR2	0	15	CARROT	249	n/a	n/a	0	0	0
3443408	WORD	wordpools/wasnorm_wordpool_576.txt	LTP331	ltpFR2	0	15	BARREL	91	n/a	n/a	0	0	0
3446056	WORD	wordpools/wasnorm_wordpool_576.txt	LTP331	ltpFR2	0	15	DIVER	476	n/a	n/a	0	0	0
3448722	WORD	wordpools/wasnorm_wordpool_576.txt	LTP331	ltpFR2	0	15	TOURIST	1488	n/a	n/a	0	0	0
3451471	WORD	wordpools/wasnorm_wordpool_576.txt	LTP331	ltpFR2	0	15	PRINCE	1124	n/a	n/a	0	0	0
3454219	WORD	wordpools/wasnorm_wordpool_576.txt	LTP331	ltpFR2	0	15	RIVER	1194	n/a	n/a	0	0	0
3457035	WORD	wordpools/wasnorm_wordpool_576.txt	LTP331	ltpFR2	0	15	ORCHID	982	n/a	n/a	0	0	0
3459467	WORD	wordpools/wasnorm_wordpool_576.txt	LTP331	ltpFR2	0	15	LADY	794	n/a	n/a	0	0	0
3462132	WORD	wordpools/wasnorm_wordpool_576.txt	LTP331	ltpFR2	0	15	FRIAR	605	n/a	n/a	0	0	0
3464765	WORD	wordpools/wasnorm_wordpool_576.txt	LTP331	ltpFR2	0	15	JOURNAL	760	n/a	n/a	0	0	0
3467463	WORD	wordpools/wasnorm_wordpool_576.txt	LTP331	ltpFR2	0	15	SCRIBBLE	1256	n/a	n/a	0	0	0
3470229	WORD	wordpools/wasnorm_wordpool_576.txt	LTP331	ltpFR2	0	15	FRIEND	606	n/a	n/a	0	0	0
3472976	WORD	wordpools/wasnorm_wordpool_576.txt	LTP331	ltpFR2	0	15	ATLAS	53	n/a	n/a	0	0	0
3475576	WORD	wordpools/wasnorm_wordpool_576.txt	LTP331	ltpFR2	0	15	GLOBE	641	n/a	n/a	0	0	0
3478025	WORD	wordpools/wasnorm_wordpool_576.txt	LTP331	ltpFR2	0	15	AIRPLANE	12	n/a	n/a	0	0	0
3480807	WORD	wordpools/wasnorm_wordpool_576.txt	LTP331	ltpFR2	0	15	FRUIT	610	n/a	n/a	0	0	0
3483340	WORD	wordpools/wasnorm_wordpool_576.txt	LTP331	ltpFR2	0	15	MARKET	871	n/a	n/a	0	0	0
3485872	WORD	wordpools/wasnorm_wordpool_576.txt	LTP331	ltpFR2	0	15	MUMMY	932	n/a	n/a	0	0	0
3488670	WORD	wordpools/wasnorm_wordpool_576.txt	LTP331	ltpFR2	0	15	HERO	706	n/a	n/a	0	0	0
3491286	WORD	wordpools/wasnorm_wordpool_576.txt	LTP331	ltpFR2	0	15	RUG	1215	n/a	n/a	0	0	0
3492901	START	n/a	LTP331	ltpFR2	0	n/a	n/a	n/a	23	n/a	n/a	n/a	n/a
3493819	DISTRACTOR	n/a	LTP331	ltpFR2	0	15	n/a	n/a	n/a	n/a	0	0	0
3493835	PROB	n/a	LTP331	ltpFR2	0	n/a	n/a	n/a	23	15	2	5	8
3495933	PROB	n/a	LTP331	ltpFR2	0	n/a	n/a	n/a	23	13	3	6	4
3498133	PROB	n/a	LTP331	ltpFR2	0	n/a	n/a	n/a	23	26	9	9	8
3499765	PROB	n/a	LTP331	ltpFR2	0	n/a	n/a	n/a	23	20	7	9	4
3502714	PROB	n/a	LTP331	ltpFR2	0	n/a	n/a	n/a	23	12	2	6	4
3504263	PROB	n/a	LTP331	ltpFR2	0	n/a	n/a	n/a	23	25	8	8	9
3506062	PROB	n/a	LTP331	ltpFR2	0	n/a	n/a	n/a	23	7	2	3	2
3508145	PROB	n/a	LTP331	ltpFR2	0	n/a	n/a	n/a	23	12	4	3	5
3509861	PROB	n/a	LTP331	ltpFR2	0	n/a	n/a	n/a	23	19	7	5	7
3511627	PROB	n/a	LTP331	ltpFR2	0	n/a	n/a	n/a	23	13	4	6	3
3513059	PROB	n/a	LTP331	ltpFR2	0	n/a	n/a	n/a	23	7	4	2	1
3514559	PROB	n/a	LTP331	ltpFR2	0	n/a	n/a	n/a	23	16	6	8	2
3516079	STOP	n/a	LTP331	ltpFR2	0	n/a	n/a	n/a	23	n/a	n/a	n/a	n/a
3518791	REC_START	n/a	LTP331	ltpFR2	0	15	n/a	n/a	n/a	n/a	0	0	0
3520949	REC_WORD	wordpools/wasnorm_wordpool_576.txt	LTP331	ltpFR2	0	15	MARINE	869	n/a	n/a	0	0	0
3522306	REC_WORD_VV	wordpools/wasnorm_wordpool_576.txt	LTP331	ltpFR2	0	15	<>	-1	n/a	n/a	0	0	0
3522764	REC_WORD	wordpools/wasnorm_wordpool_576.txt	LTP331	ltpFR2	0	15	TABLET	1427	n/a	n/a	0	0	0
3523753	REC_WORD	wordpools/wasnorm_wordpool_576.txt	LTP331	ltpFR2	0	15	SISTER	1312	n/a	n/a	0	0	0
3524436	REC_WORD	wordpools/wasnorm_wordpool_576.txt	LTP331	ltpFR2	0	15	WAGON	1578	n/a	n/a	0	0	0
3524991	REC_WORD	wordpools/wasnorm_wordpool_576.txt	LTP331	ltpFR2	0	15	CARROT	249	n/a	n/a	0	0	0
3525558	REC_WORD	wordpools/wasnorm_wordpool_576.txt	LTP331	ltpFR2	0	15	BARREL	91	n/a	n/a	0	0	0
3528523	REC_WORD	wordpools/wasnorm_wordpool_576.txt	LTP331	ltpFR2	0	15	DIVER	476	n/a	n/a	0	0	0
3529043	REC_WORD	wordpools/wasnorm_wordpool_576.txt	LTP331	ltpFR2	0	15	TOURIST	1488	n/a	n/a	0	0	0
3530496	REC_WORD	wordpools/wasnorm_wordpool_576.txt	LTP331	ltpFR2	0	15	PRINCE	1124	n/a	n/a	0	0	0
3531096	REC_WORD	wordpools/wasnorm_wordpool_576.txt	LTP331	ltpFR2	0	15	RIVER	1194	n/a	n/a	0	0	0
3533741	REC_WORD	wordpools/wasnorm_wordpool_576.txt	LTP331	ltpFR2	0	15	ORCHID	982	n/a	n/a	0	0	0
3539177	REC_WORD	wordpools/wasnorm_wordpool_576.txt	LTP331	ltpFR2	0	15	GIRL	637	n/a	n/a	0	0	0
3541615	REC_WORD	wordpools/wasnorm_wordpool_576.txt	LTP331	ltpFR2	0	15	FRIAR	605	n/a	n/a	0	0	0
3547787	REC_WORD	wordpools/wasnorm_wordpool_576.txt	LTP331	ltpFR2	0	15	JOURNAL	760	n/a	n/a	0	0	0
3549737	REC_WORD	wordpools/wasnorm_wordpool_576.txt	LTP331	ltpFR2	0	15	SCRIBBLE	1256	n/a	n/a	0	0	0
3551602	REC_WORD	wordpools/wasnorm_wordpool_576.txt	LTP331	ltpFR2	0	15	FRIEND	606	n/a	n/a	0	0	0
3553964	REC_WORD	wordpools/wasnorm_wordpool_576.txt	LTP331	ltpFR2	0	15	ATLAS	53	n/a	n/a	0	0	0
3554756	REC_WORD	wordpools/wasnorm_wordpool_576.txt	LTP331	ltpFR2	0	15	GLOBE	641	n/a	n/a	0	0	0
3556536	REC_WORD	wordpools/wasnorm_wordpool_576.txt	LTP331	ltpFR2	0	15	AIRPLANE	12	n/a	n/a	0	0	0
3557695	REC_WORD	wordpools/wasnorm_wordpool_576.txt	LTP331	ltpFR2	0	15	FRUIT	610	n/a	n/a	0	0	0
3558448	REC_WORD	wordpools/wasnorm_wordpool_576.txt	LTP331	ltpFR2	0	15	MARKET	871	n/a	n/a	0	0	0
3561890	REC_WORD	wordpools/wasnorm_wordpool_576.txt	LTP331	ltpFR2	0	15	MUMMY	932	n/a	n/a	0	0	0
3563788	REC_WORD	wordpools/wasnorm_wordpool_576.txt	LTP331	ltpFR2	0	15	HERO	706	n/a	n/a	0	0	0
3609249	DISTRACTOR	n/a	LTP331	ltpFR2	0	16	n/a	n/a	n/a	n/a	0	0	0
3609249	START	n/a	LTP331	ltpFR2	0	n/a	n/a	n/a	24	n/a	n/a	n/a	n/a
3609266	PROB	n/a	LTP331	ltpFR2	0	n/a	n/a	n/a	24	16	4	5	7
3611431	PROB	n/a	LTP331	ltpFR2	0	n/a	n/a	n/a	24	9	1	7	1
3612864	PROB	n/a	LTP331	ltpFR2	0	n/a	n/a	n/a	24	18	6	6	6
3614680	PROB	n/a	LTP331	ltpFR2	0	n/a	n/a	n/a	24	20	8	3	9
3616512	PROB	n/a	LTP331	ltpFR2	0	n/a	n/a	n/a	24	9	2	6	1
3617894	PROB	n/a	LTP331	ltpFR2	0	n/a	n/a	n/a	24	14	4	3	7
3620027	PROB	n/a	LTP331	ltpFR2	0	n/a	n/a	n/a	24	12	4	4	4
3621643	PROB	n/a	LTP331	ltpFR2	0	n/a	n/a	n/a	24	11	3	7	1
3623542	PROB	n/a	LTP331	ltpFR2	0	n/a	n/a	n/a	24	5	1	2	2
3625974	PROB	n/a	LTP331	ltpFR2	0	n/a	n/a	n/a	24	12	7	3	2
3627507	PROB	n/a	LTP331	ltpFR2	0	n/a	n/a	n/a	24	17	9	5	3
3629806	PROB	n/a	LTP331	ltpFR2	0	n/a	n/a	n/a	24	16	9	4	3
3633243	STOP	n/a	LTP331	ltpFR2	0	n/a	n/a	n/a	24	n/a	n/a	n/a	n/a
3634254	WORD	wordpools/wasnorm_wordpool_576.txt	LTP331	ltpFR2	0	16	DRILL	497	n/a	n/a	0	0	0
3637002	WORD	wordpools/wasnorm_wordpool_576.txt	LTP331	ltpFR2	0	16	SILK	1307	n/a	n/a	0	0	0
3639585	WORD	wordpools/wasnorm_wordpool_576.txt	LTP331	ltpFR2	0	16	GUITAR	670	n/a	n/a	0	0	0
3642017	WORD	wordpools/wasnorm_wordpool_576.txt	LTP331	ltpFR2	0	16	PLUTO	1092	n/a	n/a	0	0	0
3644500	WORD	wordpools/wasnorm_wordpool_576.txt	LTP331	ltpFR2	0	16	SPONGE	1355	n/a	n/a	0	0	0
3647048	WORD	wordpools/wasnorm_wordpool_576.txt	LTP331	ltpFR2	0	16	ISLAND	745	n/a	n/a	0	0	0
3649814	WORD	wordpools/wasnorm_wordpool_576.txt	LTP331	ltpFR2	0	16	XEROX	1628	n/a	n/a	0	0	0
3652246	WORD	wordpools/wasnorm_wordpool_576.txt	LTP331	ltpFR2	0	16	MONEY	908	n/a	n/a	0	0	0
3654745	WORD	wordpools/wasnorm_wordpool_576.txt	LTP331	ltpFR2	0	16	LADDER	793	n/a	n/a	0	0	0
3657527	WORD	wordpools/wasnorm_wordpool_576.txt	LTP331	ltpFR2	0	16	SUMMIT	1405	n/a	n/a	0	0	0
3660076	WORD	wordpools/wasnorm_wordpool_576.txt	LTP331	ltpFR2	0	16	SCALLOP	1242	n/a	n/a	0	0	0
3662675	WORD	wordpools/wasnorm_wordpool_576.txt	LTP331	ltpFR2	0	16	DOLPHIN	483	n/a	n/a	0	0	0
3665357	WORD	wordpools/wasnorm_wordpool_576.txt	LTP331	ltpFR2	0	16	PLIERS	1089	n/a	n/a	0	0	0
3667872	WORD	wordpools/wasnorm_wordpool_576.txt	LTP331	ltpFR2	0	16	WARDROBE	1587	n/a	n/a	0	0	0
3670688	WORD	wordpools/wasnorm_wordpool_576.txt	LTP331	ltpFR2	0	16	DONKEY	484	n/a	n/a	0	0	0
3673353	WORD	wordpools/wasnorm_wordpool_576.txt	LTP331	ltpFR2	0	16	CANAL	226	n/a	n/a	0	0	0
3675785	WORD	wordpools/wasnorm_wordpool_576.txt	LTP331	ltpFR2	0	16	SOFTBALL	1343	n/a	n/a	0	0	0
3678234	WORD	wordpools/wasnorm_wordpool_576.txt	LTP331	ltpFR2	0	16	GLOVE	642	n/a	n/a	0	0	0
3680899	WORD	wordpools/wasnorm_wordpool_576.txt	LTP331	ltpFR2	0	16	BEAVER	109	n/a	n/a	0	0	0
3683349	WORD	wordpools/wasnorm_wordpool_576.txt	LTP331	ltpFR2	0	16	SHOVEL	1295	n/a	n/a	0	0	0
3686064	WORD	wordpools/wasnorm_wordpool_576.txt	LTP331	ltpFR2	0	16	OYSTER	995	n/a	n/a	0	0	0
3688679	WORD	wordpools/wasnorm_wordpool_576.txt	LTP331	ltpFR2	0	16	NEUTRON	947	n/a	n/a	0	0	0
3691162	WORD	wordpools/wasnorm_wordpool_576.txt	LTP331	ltpFR2	0	16	SUNRISE	1407	n/a	n/a	0	0	0
3693893	WORD	wordpools/wasnorm_wordpool_576.txt	LTP331	ltpFR2	0	16	SUNSET	1408	n/a	n/a	0	0	0
3695510	START	n/a	LTP331	ltpFR2	0	n/a	n/a	n/a	25	n/a	n/a	n/a	n/a
3696626	DISTRACTOR	n/a	LTP331	ltpFR2	0	16	n/a	n/a	n/a	n/a	0	0	0
3696643	PROB	n/a	LTP331	ltpFR2	0	n/a	n/a	n/a	25	12	2	6	4
3698608	PROB	n/a	LTP331	ltpFR2	0	n/a	n/a	n/a	25	98	5	3	1
3700308	PROB	n/a	LTP331	ltpFR2	0	n/a	n/a	n/a	25	12	5	6	1
3702107	PROB	n/a	LTP331	ltpFR2	0	n/a	n/a	n/a	25	18	8	7	3
3704206	PROB	n/a	LTP331	ltpFR2	0	n/a	n/a	n/a	25	9	1	1	7
3705472	PROB	n/a	LTP331	ltpFR2	0	n/a	n/a	n/a	25	13	5	2	6
3707304	PROB	n/a	LTP331	ltpFR2	0	n/a	n/a	n/a	25	13	6	3	4
3709237	PROB	n/a	LTP331	ltpFR2	0	n/a	n/a	n/a	25	9	6	1	2
3711619	PROB	n/a	LTP331	ltpFR2	0	n/a	n/a	n/a	25	18	2	9	7
3713368	PROB	n/a	LTP331	ltpFR2	0	n/a	n/a	n/a	25	19	9	1	9
3715084	PROB	n/a	LTP331	ltpFR2	0	n/a	n/a	n/a	25	10	5	2	3
3716783	PROB	n/a	LTP331	ltpFR2	0	n/a	n/a	n/a	25	10	5	2	3
3718972	STOP	n/a	LTP331	ltpFR2	0	n/a	n/a	n/a	25	n/a	n/a	n/a	n/a
3721282	REC_START	n/a	LTP331	ltpFR2	0	16	n/a	n/a	n/a	n/a	0	0	0
3729976	REC_WORD	wordpools/wasnorm_wordpool_576.txt	LTP331	ltpFR2	0	16	DRILL	497	n/a	n/a	0	0	0
3730353	REC_WORD	wordpools/wasnorm_wordpool_576.txt	LTP331	ltpFR2	0	16	SILK	1307	n/a	n/a	0	0	0
3731063	REC_WORD	wordpools/wasnorm_wordpool_576.txt	LTP331	ltpFR2	0	16	GUITAR	670	n/a	n/a	0	0	0
3732104	REC_WORD	wordpools/wasnorm_wordpool_576.txt	LTP331	ltpFR2	0	16	SPONGE	1355	n/a	n/a	0	0	0
3732924	REC_WORD	wordpools/wasnorm_wordpool_576.txt	LTP331	ltpFR2	0	16	PLUTO	1092	n/a	n/a	0	0	0
3733998	REC_WORD	wordpools/wasnorm_wordpool_576.txt	LTP331	ltpFR2	0	16	ISLAND	745	n/a	n/a	0	0	0
3734487	REC_WORD	wordpools/wasnorm_wordpool_576.txt	LTP331	ltpFR2	0	16	XEROX	1628	n/a	n/a	0	0	0
3736660	REC_WORD	wordpools/wasnorm_wordpool_576.txt	LTP331	ltpFR2	0	16	MONEY	908	n/a	n/a	0	0	0
3737037	REC_WORD	wordpools/wasnorm_wordpool_576.txt	LTP331	ltpFR2	0	16	LADDER	793	n/a	n/a	0	0	0
3737914	REC_WORD	wordpools/wasnorm_wordpool_576.txt	LTP331	ltpFR2	0	16	SUMMIT	1405	n/a	n/a	0	0	0
3739544	REC_WORD	wordpools/wasnorm_wordpool_576.txt	LTP331	ltpFR2	0	16	SCALLOP	1242	n/a	n/a	0	0	0
3741493	REC_WORD	wordpools/wasnorm_wordpool_576.txt	LTP331	ltpFR2	0	16	DOLPHIN	483	n/a	n/a	0	0	0
3742282	REC_WORD	wordpools/wasnorm_wordpool_576.txt	LTP331	ltpFR2	0	16	PLIERS	1089	n/a	n/a	0	0	0
3749895	REC_WORD	wordpools/wasnorm_wordpool_576.txt	LTP331	ltpFR2	0	16	WARDROBE	1587	n/a	n/a	0	0	0
3751428	REC_WORD	wordpools/wasnorm_wordpool_576.txt	LTP331	ltpFR2	0	16	DONKEY	484	n/a	n/a	0	0	0
3754106	REC_WORD	wordpools/wasnorm_wordpool_576.txt	LTP331	ltpFR2	0	16	CANAL	226	n/a	n/a	0	0	0
3757428	REC_WORD	wordpools/wasnorm_wordpool_576.txt	LTP331	ltpFR2	0	16	SOFTBALL	1343	n/a	n/a	0	0	0
3758974	REC_WORD	wordpools/wasnorm_wordpool_576.txt	LTP331	ltpFR2	0	16	GLOVE	642	n/a	n/a	0	0	0
3760702	REC_WORD	wordpools/wasnorm_wordpool_576.txt	LTP331	ltpFR2	0	16	BEAVER	109	n/a	n/a	0	0	0
3762504	REC_WORD	wordpools/wasnorm_wordpool_576.txt	LTP331	ltpFR2	0	16	SHOVEL	1295	n/a	n/a	0	0	0
3763500	REC_WORD	wordpools/wasnorm_wordpool_576.txt	LTP331	ltpFR2	0	16	OYSTER	995	n/a	n/a	0	0	0
3767987	REC_WORD	wordpools/wasnorm_wordpool_576.txt	LTP331	ltpFR2	0	16	SUNRISE	1407	n/a	n/a	0	0	0
3768538	REC_WORD	wordpools/wasnorm_wordpool_576.txt	LTP331	ltpFR2	0	16	SUNSET	1408	n/a	n/a	0	0	0
3769230	REC_WORD	wordpools/wasnorm_wordpool_576.txt	LTP331	ltpFR2	0	16	NEUTRON	947	n/a	n/a	0	0	0
3797830	REST_REWET	n/a	LTP331	ltpFR2	0	16	n/a	n/a	n/a	n/a	0	0	0
4050465	WORD	wordpools/wasnorm_wordpool_576.txt	LTP331	ltpFR2	0	17	PASTA	1021	n/a	n/a	0	0	0
4053180	WORD	wordpools/wasnorm_wordpool_576.txt	LTP331	ltpFR2	0	17	SKILLET	1317	n/a	n/a	0	0	0
4055895	WORD	wordpools/wasnorm_wordpool_576.txt	LTP331	ltpFR2	0	17	COWBOY	395	n/a	n/a	0	0	0
4058594	WORD	wordpools/wasnorm_wordpool_576.txt	LTP331	ltpFR2	0	17	ZEBRA	1635	n/a	n/a	0	0	0
4061160	WORD	wordpools/wasnorm_wordpool_576.txt	LTP331	ltpFR2	0	17	BLENDER	136	n/a	n/a	0	0	0
4063642	WORD	wordpools/wasnorm_wordpool_576.txt	LTP331	ltpFR2	0	17	CRUTCH	417	n/a	n/a	0	0	0
4066291	WORD	wordpools/wasnorm_wordpool_576.txt	LTP331	ltpFR2	0	17	LAGOON	795	n/a	n/a	0	0	0
4068856	WORD	wordpools/wasnorm_wordpool_576.txt	LTP331	ltpFR2	0	17	BEAST	108	n/a	n/a	0	0	0
4071489	WORD	wordpools/wasnorm_wordpool_576.txt	LTP331	ltpFR2	0	17	CASHIER	254	n/a	n/a	0	0	0
4074021	WORD	wordpools/wasnorm_wordpool_576.txt	LTP331	ltpFR2	0	17	OFFICE	972	n/a	n/a	0	0	0
4076586	WORD	wordpools/wasnorm_wordpool_576.txt	LTP331	ltpFR2	0	17	DRIVER	499	n/a	n/a	0	0	0
4079302	WORD	wordpools/wasnorm_wordpool_576.txt	LTP331	ltpFR2	0	17	HOUND	724	n/a	n/a	0	0	0
4081999	WORD	wordpools/wasnorm_wordpool_576.txt	LTP331	ltpFR2	0	17	CHIPMUNK	304	n/a	n/a	0	0	0
4084533	WORD	wordpools/wasnorm_wordpool_576.txt	LTP331	ltpFR2	0	17	SKIRT	1319	n/a	n/a	0	0	0
4087298	WORD	wordpools/wasnorm_wordpool_576.txt	LTP331	ltpFR2	0	17	COOK	372	n/a	n/a	0	0	0
4089864	WORD	wordpools/wasnorm_wordpool_576.txt	LTP331	ltpFR2	0	17	BROOK	177	n/a	n/a	0	0	0
4092296	WORD	wordpools/wasnorm_wordpool_576.txt	LTP331	ltpFR2	0	17	COUNTY	389	n/a	n/a	0	0	0
4095078	WORD	wordpools/wasnorm_wordpool_576.txt	LTP331	ltpFR2	0	17	LEG	809	n/a	n/a	0	0	0
4097577	WORD	wordpools/wasnorm_wordpool_576.txt	LTP331	ltpFR2	0	17	APRON	35	n/a	n/a	0	0	0
4100075	WORD	wordpools/wasnorm_wordpool_576.txt	LTP331	ltpFR2	0	17	STOVE	1388	n/a	n/a	0	0	0
4102824	WORD	wordpools/wasnorm_wordpool_576.txt	LTP331	ltpFR2	0	17	GREASE	660	n/a	n/a	0	0	0
4105273	WORD	wordpools/wasnorm_wordpool_576.txt	LTP331	ltpFR2	0	17	OMELET	976	n/a	n/a	0	0	0
4107822	WORD	wordpools/wasnorm_wordpool_576.txt	LTP331	ltpFR2	0	17	GRAPE	654	n/a	n/a	0	0	0
4110404	WORD	wordpools/wasnorm_wordpool_576.txt	LTP331	ltpFR2	0	17	CAMEL	223	n/a	n/a	0	0	0
4112020	START	n/a	LTP331	ltpFR2	0	n/a	n/a	n/a	26	n/a	n/a	n/a	n/a
4112936	DISTRACTOR	n/a	LTP331	ltpFR2	0	17	n/a	n/a	n/a	n/a	0	0	0
4112952	PROB	n/a	LTP331	ltpFR2	0	n/a	n/a	n/a	26	15	5	5	5
4115053	PROB	n/a	LTP331	ltpFR2	0	n/a	n/a	n/a	26	15	8	4	3
4117434	PROB	n/a	LTP331	ltpFR2	0	n/a	n/a	n/a	26	22	9	4	9
4119033	PROB	n/a	LTP331	ltpFR2	0	n/a	n/a	n/a	26	18	5	6	7
4120799	PROB	n/a	LTP331	ltpFR2	0	n/a	n/a	n/a	26	12	2	9	1
4122515	PROB	n/a	LTP331	ltpFR2	0	n/a	n/a	n/a	26	20	8	3	9
4124831	PROB	n/a	LTP331	ltpFR2	0	n/a	n/a	n/a	26	22	6	8	8
4127196	PROB	n/a	LTP331	ltpFR2	0	n/a	n/a	n/a	26	11	1	9	1
4128895	PROB	n/a	LTP331	ltpFR2	0	n/a	n/a	n/a	26	19	5	7	7
4130712	PROB	n/a	LTP331	ltpFR2	0	n/a	n/a	n/a	26	7	2	1	4
4132427	PROB	n/a	LTP331	ltpFR2	0	n/a	n/a	n/a	26	17	8	1	8
4136020	STOP	n/a	LTP331	ltpFR2	0	n/a	n/a	n/a	26	n/a	n/a	n/a	n/a
4137974	REC_START	n/a	LTP331	ltpFR2	0	17	n/a	n/a	n/a	n/a	0	0	0
4142138	REC_WORD	wordpools/wasnorm_wordpool_576.txt	LTP331	ltpFR2	0	17	PASTA	1021	n/a	n/a	0	0	0
4142670	REC_WORD	wordpools/wasnorm_wordpool_576.txt	LTP331	ltpFR2	0	17	SKILLET	1317	n/a	n/a	0	0	0
4143368	REC_WORD	wordpools/wasnorm_wordpool_576.txt	LTP331	ltpFR2	0	17	COWBOY	395	n/a	n/a	0	0	0
4143938	REC_WORD	wordpools/wasnorm_wordpool_576.txt	LTP331	ltpFR2	0	17	ZEBRA	1635	n/a	n/a	0	0	0
4144517	REC_WORD	wordpools/wasnorm_wordpool_576.txt	LTP331	ltpFR2	0	17	BLENDER	136	n/a	n/a	0	0	0
4150441	REC_WORD	wordpools/wasnorm_wordpool_576.txt	LTP331	ltpFR2	0	17	CRUTCH	417	n/a	n/a	0	0	0
4152467	REC_WORD	wordpools/wasnorm_wordpool_576.txt	LTP331	ltpFR2	0	17	LAGOON	795	n/a	n/a	0	0	0
4153699	REC_WORD	wordpools/wasnorm_wordpool_576.txt	LTP331	ltpFR2	0	17	BROOK	177	n/a	n/a	0	0	0
4155262	REC_WORD	wordpools/wasnorm_wordpool_576.txt	LTP331	ltpFR2	0	17	BEAST	108	n/a	n/a	0	0	0
4160532	REC_WORD	wordpools/wasnorm_wordpool_576.txt	LTP331	ltpFR2	0	17	CASHIER	254	n/a	n/a	0	0	0
4161284	REC_WORD	wordpools/wasnorm_wordpool_576.txt	LTP331	ltpFR2	0	17	OFFICE	972	n/a	n/a	0	0	0
4167056	REC_WORD	wordpools/wasnorm_wordpool_576.txt	LTP331	ltpFR2	0	17	DRIVER	499	n/a	n/a	0	0	0
4168724	REC_WORD	wordpools/wasnorm_wordpool_576.txt	LTP331	ltpFR2	0	17	COOK	372	n/a	n/a	0	0	0
4169296	REC_WORD	wordpools/wasnorm_wordpool_576.txt	LTP331	ltpFR2	0	17	SKIRT	1319	n/a	n/a	0	0	0
4170259	REC_WORD	wordpools/wasnorm_wordpool_576.txt	LTP331	ltpFR2	0	17	CHIPMUNK	304	n/a	n/a	0	0	0
4171007	REC_WORD	wordpools/wasnorm_wordpool_576.txt	LTP331	ltpFR2	0	17	LEG	809	n/a	n/a	0	0	0
4178494	REC_WORD	wordpools/wasnorm_wordpool_576.txt	LTP331	ltpFR2	0	17	STOVE	1388	n/a	n/a	0	0	0
4180684	REC_WORD	wordpools/wasnorm_wordpool_576.txt	LTP331	ltpFR2	0	17	GREASY	-1	n/a	n/a	0	0	0
4185249	REC_WORD	wordpools/wasnorm_wordpool_576.txt	LTP331	ltpFR2	0	17	APRON	35	n/a	n/a	0	0	0
4185863	REC_WORD	wordpools/wasnorm_wordpool_576.txt	LTP331	ltpFR2	0	17	OMELET	976	n/a	n/a	0	0	0
4186517	REC_WORD	wordpools/wasnorm_wordpool_576.txt	LTP331	ltpFR2	0	17	GRAPE	654	n/a	n/a	0	0	0
4228400	DISTRACTOR	n/a	LTP331	ltpFR2	0	18	n/a	n/a	n/a	n/a	0	0	0
4228401	START	n/a	LTP331	ltpFR2	0	n/a	n/a	n/a	27	n/a	n/a	n/a	n/a
4228417	PROB	n/a	LTP331	ltpFR2	0	n/a	n/a	n/a	27	14	1	6	7
4230749	PROB	n/a	LTP331	ltpFR2	0	n/a	n/a	n/a	27	19	6	9	4
4232832	PROB	n/a	LTP331	ltpFR2	0	n/a	n/a	n/a	27	21	7	5	9
4235147	PROB	n/a	LTP331	ltpFR2	0	n/a	n/a	n/a	27	14	1	6	7
4236780	PROB	n/a	LTP331	ltpFR2	0	n/a	n/a	n/a	27	22	8	7	7
4238995	PROB	n/a	LTP331	ltpFR2	0	n/a	n/a	n/a	27	17	8	2	7
