mstime	trial_type	stim_file	subject	experiment	session	trial	task	item_name	item_num	recog_conf	resp	color_b	color_g	color_r	case	font
0	SESS_START	n/a	LTP098	ltpFR	2	n/a	n/a	n/a	n/a	2	n/a	n/a	n/a	n/a	n/a	n/a
103643	WORD	wordpools/wasnorm_wordpool.txt	LTP098	ltpFR	2	1	0	PASSAGE	1019	5	1	0	0.5869140625	0.422607421875	lower	../fonts/amplitud.ttf
107760	WORD	wordpools/wasnorm_wordpool.txt	LTP098	ltpFR	2	1	0	MULE	931	n/a	1	0	0.5869140625	0.422607421875	lower	../fonts/amplitud.ttf
111967	WORD	wordpools/wasnorm_wordpool.txt	LTP098	ltpFR	2	1	0	ZOO	1637	n/a	1	0	0.5869140625	0.422607421875	lower	../fonts/amplitud.ttf
115992	WORD	wordpools/wasnorm_wordpool.txt	LTP098	ltpFR	2	1	1	PIGMENT	1066	n/a	0	1	0.412841796875	0.57763671875	upper	../fonts/zerothre.ttf
120008	WORD	wordpools/wasnorm_wordpool.txt	LTP098	ltpFR	2	1	1	SKIN	1318	n/a	1	1	0.412841796875	0.57763671875	upper	../fonts/zerothre.ttf
124133	WORD	wordpools/wasnorm_wordpool.txt	LTP098	ltpFR	2	1	1	ROD	1203	n/a	0	1	0.412841796875	0.57763671875	upper	../fonts/zerothre.ttf
128008	WORD	wordpools/wasnorm_wordpool.txt	LTP098	ltpFR	2	1	1	NOVEL	960	n/a	0	1	0.412841796875	0.57763671875	upper	../fonts/zerothre.ttf
132007	WORD	wordpools/wasnorm_wordpool.txt	LTP098	ltpFR	2	1	0	BAY	102	n/a	1	0	0.5869140625	0.422607421875	lower	../fonts/amplitud.ttf
136190	WORD	wordpools/wasnorm_wordpool.txt	LTP098	ltpFR	2	1	0	PHYSICIAN	1056	n/a	1	0	0.5869140625	0.422607421875	lower	../fonts/amplitud.ttf
140190	WORD	wordpools/wasnorm_wordpool.txt	LTP098	ltpFR	2	1	0	INMATE	738	n/a	1	0	0.5869140625	0.422607421875	lower	../fonts/amplitud.ttf
144240	WORD	wordpools/wasnorm_wordpool.txt	LTP098	ltpFR	2	1	1	CAPTIVE	240	n/a	1	1	0.412841796875	0.57763671875	upper	../fonts/zerothre.ttf
148114	WORD	wordpools/wasnorm_wordpool.txt	LTP098	ltpFR	2	1	1	VESSEL	1558	n/a	0	1	0.412841796875	0.57763671875	upper	../fonts/zerothre.ttf
152222	WORD	wordpools/wasnorm_wordpool.txt	LTP098	ltpFR	2	1	1	STETHOSCOPE	1379	n/a	0	1	0.412841796875	0.57763671875	upper	../fonts/zerothre.ttf
156122	WORD	wordpools/wasnorm_wordpool.txt	LTP098	ltpFR	2	1	1	NICKEL	950	n/a	0	1	0.412841796875	0.57763671875	upper	../fonts/zerothre.ttf
160188	WORD	wordpools/wasnorm_wordpool.txt	LTP098	ltpFR	2	1	0	CANYON	235	n/a	1	0	0.5869140625	0.422607421875	lower	../fonts/amplitud.ttf
164238	WORD	wordpools/wasnorm_wordpool.txt	LTP098	ltpFR	2	1	0	STAPLER	1372	n/a	0	0	0.5869140625	0.422607421875	lower	../fonts/amplitud.ttf
170072	REC_START	n/a	LTP098	ltpFR	2	1	n/a	n/a	n/a	n/a	n/a	n/a	n/a	n/a	n/a	n/a
170685	REC_WORD	wordpools/wasnorm_wordpool.txt	LTP098	ltpFR	2	1	1	VESSEL	1558	n/a	0	n/a	n/a	n/a	n/a	n/a
171263	REC_WORD	wordpools/wasnorm_wordpool.txt	LTP098	ltpFR	2	1	1	STETHOSCOPE	1379	n/a	0	n/a	n/a	n/a	n/a	n/a
171943	REC_WORD	wordpools/wasnorm_wordpool.txt	LTP098	ltpFR	2	1	n/a	GOAT	644	n/a	n/a	n/a	n/a	n/a	n/a	n/a
172327	REC_WORD	wordpools/wasnorm_wordpool.txt	LTP098	ltpFR	2	1	1	NICKEL	950	n/a	0	n/a	n/a	n/a	n/a	n/a
175170	REC_WORD	wordpools/wasnorm_wordpool.txt	LTP098	ltpFR	2	1	1	ROD	1203	n/a	0	n/a	n/a	n/a	n/a	n/a
180703	REC_WORD	wordpools/wasnorm_wordpool.txt	LTP098	ltpFR	2	1	1	SKIN	1318	n/a	1	n/a	n/a	n/a	n/a	n/a
181451	REC_WORD	wordpools/wasnorm_wordpool.txt	LTP098	ltpFR	2	1	1	PIGMENT	1066	n/a	0	n/a	n/a	n/a	n/a	n/a
185068	REC_WORD	wordpools/wasnorm_wordpool.txt	LTP098	ltpFR	2	1	0	STAPLER	1372	n/a	0	n/a	n/a	n/a	n/a	n/a
189373	REC_WORD	wordpools/wasnorm_wordpool.txt	LTP098	ltpFR	2	1	0	CANYON	235	n/a	1	n/a	n/a	n/a	n/a	n/a
194197	REC_WORD	wordpools/wasnorm_wordpool.txt	LTP098	ltpFR	2	1	0	INMATE	738	n/a	1	n/a	n/a	n/a	n/a	n/a
250965	WORD	wordpools/wasnorm_wordpool.txt	LTP098	ltpFR	2	2	1	INFANT	737	n/a	1	1	0.412841796875	0.57763671875	upper	../fonts/zerothre.ttf
255023	WORD	wordpools/wasnorm_wordpool.txt	LTP098	ltpFR	2	2	1	ASPIRIN	47	n/a	0	1	0.412841796875	0.57763671875	upper	../fonts/zerothre.ttf
259056	WORD	wordpools/wasnorm_wordpool.txt	LTP098	ltpFR	2	2	0	CHAMPION	279	n/a	1	0	0.5869140625	0.422607421875	lower	../fonts/amplitud.ttf
263106	WORD	wordpools/wasnorm_wordpool.txt	LTP098	ltpFR	2	2	0	CAPITAL	238	n/a	1	0	0.5869140625	0.422607421875	lower	../fonts/amplitud.ttf
267272	WORD	wordpools/wasnorm_wordpool.txt	LTP098	ltpFR	2	2	0	CRADLE	399	n/a	1	0	0.5869140625	0.422607421875	lower	../fonts/amplitud.ttf
271347	WORD	wordpools/wasnorm_wordpool.txt	LTP098	ltpFR	2	2	0	UNDERWEAR	1537	n/a	0	0	0.5869140625	0.422607421875	lower	../fonts/amplitud.ttf
275321	WORD	wordpools/wasnorm_wordpool.txt	LTP098	ltpFR	2	2	0	CLOTHES	327	n/a	0	0	0.5869140625	0.422607421875	lower	../fonts/amplitud.ttf
279163	WORD	wordpools/wasnorm_wordpool.txt	LTP098	ltpFR	2	2	0	DETECTIVE	454	n/a	1	0	0.5869140625	0.422607421875	lower	../fonts/amplitud.ttf
283096	WORD	wordpools/wasnorm_wordpool.txt	LTP098	ltpFR	2	2	1	UNIFORM	1539	n/a	0	1	0.412841796875	0.57763671875	upper	../fonts/zerothre.ttf
287254	WORD	wordpools/wasnorm_wordpool.txt	LTP098	ltpFR	2	2	1	SIBLING	1301	n/a	1	1	0.412841796875	0.57763671875	upper	../fonts/zerothre.ttf
291262	WORD	wordpools/wasnorm_wordpool.txt	LTP098	ltpFR	2	2	1	CARRIAGE	248	n/a	0	1	0.412841796875	0.57763671875	upper	../fonts/zerothre.ttf
295137	WORD	wordpools/wasnorm_wordpool.txt	LTP098	ltpFR	2	2	1	WALLET	1583	n/a	0	1	0.412841796875	0.57763671875	upper	../fonts/zerothre.ttf
299128	WORD	wordpools/wasnorm_wordpool.txt	LTP098	ltpFR	2	2	1	FAMILY	550	n/a	1	1	0.412841796875	0.57763671875	upper	../fonts/zerothre.ttf
303286	WORD	wordpools/wasnorm_wordpool.txt	LTP098	ltpFR	2	2	1	TIGER	1467	n/a	1	1	0.412841796875	0.57763671875	upper	../fonts/zerothre.ttf
307111	WORD	wordpools/wasnorm_wordpool.txt	LTP098	ltpFR	2	2	0	LAKE	796	n/a	1	0	0.5869140625	0.422607421875	lower	../fonts/amplitud.ttf
310977	WORD	wordpools/wasnorm_wordpool.txt	LTP098	ltpFR	2	2	0	PIPE	1073	n/a	0	0	0.5869140625	0.422607421875	lower	../fonts/amplitud.ttf
316753	REC_START	n/a	LTP098	ltpFR	2	2	n/a	n/a	n/a	n/a	n/a	n/a	n/a	n/a	n/a	n/a
317686	REC_WORD	wordpools/wasnorm_wordpool.txt	LTP098	ltpFR	2	2	1	WALLET	1583	n/a	0	n/a	n/a	n/a	n/a	n/a
318412	REC_WORD	wordpools/wasnorm_wordpool.txt	LTP098	ltpFR	2	2	1	CARRIAGE	248	n/a	0	n/a	n/a	n/a	n/a	n/a
319197	REC_WORD	wordpools/wasnorm_wordpool.txt	LTP098	ltpFR	2	2	1	INFANT	737	n/a	1	n/a	n/a	n/a	n/a	n/a
340768	REC_WORD	wordpools/wasnorm_wordpool.txt	LTP098	ltpFR	2	2	0	CANYON	235	n/a	1	n/a	n/a	n/a	n/a	n/a
395529	WORD	wordpools/wasnorm_wordpool.txt	LTP098	ltpFR	2	3	0	SUIT	1402	n/a	1	0	0.5869140625	0.422607421875	lower	../fonts/amplitud.ttf
399587	WORD	wordpools/wasnorm_wordpool.txt	LTP098	ltpFR	2	3	0	WHIP	1604	n/a	0	0	0.5869140625	0.422607421875	lower	../fonts/amplitud.ttf
403787	WORD	wordpools/wasnorm_wordpool.txt	LTP098	ltpFR	2	3	0	BLOCKADE	137	n/a	1	0	0.5869140625	0.422607421875	lower	../fonts/amplitud.ttf
407936	WORD	wordpools/wasnorm_wordpool.txt	LTP098	ltpFR	2	3	0	ASTRONAUT	51	n/a	1	0	0.5869140625	0.422607421875	lower	../fonts/amplitud.ttf
411836	WORD	wordpools/wasnorm_wordpool.txt	LTP098	ltpFR	2	3	0	ALMANAC	17	n/a	1	0	0.5869140625	0.422607421875	lower	../fonts/amplitud.ttf
415836	WORD	wordpools/wasnorm_wordpool.txt	LTP098	ltpFR	2	3	0	PAGE	1001	n/a	0	0	0.5869140625	0.422607421875	lower	../fonts/amplitud.ttf
419986	WORD	wordpools/wasnorm_wordpool.txt	LTP098	ltpFR	2	3	0	TERMITE	1451	n/a	0	0	0.5869140625	0.422607421875	lower	../fonts/amplitud.ttf
424160	WORD	wordpools/wasnorm_wordpool.txt	LTP098	ltpFR	2	3	0	VINE	1568	n/a	1	0	0.5869140625	0.422607421875	lower	../fonts/amplitud.ttf
428002	WORD	wordpools/wasnorm_wordpool.txt	LTP098	ltpFR	2	3	0	GROCERY	664	n/a	1	0	0.5869140625	0.422607421875	lower	../fonts/amplitud.ttf
432060	WORD	wordpools/wasnorm_wordpool.txt	LTP098	ltpFR	2	3	0	MONEY	908	n/a	0	0	0.5869140625	0.422607421875	lower	../fonts/amplitud.ttf
436068	WORD	wordpools/wasnorm_wordpool.txt	LTP098	ltpFR	2	3	0	STRING	1394	n/a	0	0	0.5869140625	0.422607421875	lower	../fonts/amplitud.ttf
440184	WORD	wordpools/wasnorm_wordpool.txt	LTP098	ltpFR	2	3	0	STAKE	1368	n/a	0	0	0.5869140625	0.422607421875	lower	../fonts/amplitud.ttf
444009	WORD	wordpools/wasnorm_wordpool.txt	LTP098	ltpFR	2	3	0	RELATIVE	1182	n/a	1	0	0.5869140625	0.422607421875	lower	../fonts/amplitud.ttf
448000	WORD	wordpools/wasnorm_wordpool.txt	LTP098	ltpFR	2	3	0	PAD	998	n/a	0	0	0.5869140625	0.422607421875	lower	../fonts/amplitud.ttf
451875	WORD	wordpools/wasnorm_wordpool.txt	LTP098	ltpFR	2	3	0	SCRIBBLE	1256	n/a	0	0	0.5869140625	0.422607421875	lower	../fonts/amplitud.ttf
455841	WORD	wordpools/wasnorm_wordpool.txt	LTP098	ltpFR	2	3	0	COUSIN	392	n/a	1	0	0.5869140625	0.422607421875	lower	../fonts/amplitud.ttf
461759	REC_START	n/a	LTP098	ltpFR	2	3	n/a	n/a	n/a	n/a	n/a	n/a	n/a	n/a	n/a	n/a
462352	REC_WORD	wordpools/wasnorm_wordpool.txt	LTP098	ltpFR	2	3	0	PAD	998	n/a	0	n/a	n/a	n/a	n/a	n/a
462871	REC_WORD	wordpools/wasnorm_wordpool.txt	LTP098	ltpFR	2	3	0	SCRIBBLE	1256	n/a	0	n/a	n/a	n/a	n/a	n/a
463631	REC_WORD	wordpools/wasnorm_wordpool.txt	LTP098	ltpFR	2	3	0	GROCERY	664	n/a	1	n/a	n/a	n/a	n/a	n/a
464267	REC_WORD	wordpools/wasnorm_wordpool.txt	LTP098	ltpFR	2	3	0	COUSIN	392	n/a	1	n/a	n/a	n/a	n/a	n/a
464923	REC_WORD	wordpools/wasnorm_wordpool.txt	LTP098	ltpFR	2	3	0	RELATIVE	1182	n/a	1	n/a	n/a	n/a	n/a	n/a
466568	REC_WORD	wordpools/wasnorm_wordpool.txt	LTP098	ltpFR	2	3	0	WHIP	1604	n/a	0	n/a	n/a	n/a	n/a	n/a
482776	REC_WORD	wordpools/wasnorm_wordpool.txt	LTP098	ltpFR	2	3	0	MONEY	908	n/a	0	n/a	n/a	n/a	n/a	n/a
484607	REC_WORD	wordpools/wasnorm_wordpool.txt	LTP098	ltpFR	2	3	0	ASTRONAUT	51	n/a	1	n/a	n/a	n/a	n/a	n/a
486976	REC_WORD	wordpools/wasnorm_wordpool.txt	LTP098	ltpFR	2	3	0	TERMITE	1451	n/a	0	n/a	n/a	n/a	n/a	n/a
539927	WORD	wordpools/wasnorm_wordpool.txt	LTP098	ltpFR	2	4	0	FIGHTER	564	n/a	1	0	0.5869140625	0.422607421875	lower	../fonts/amplitud.ttf
543752	WORD	wordpools/wasnorm_wordpool.txt	LTP098	ltpFR	2	4	0	BADGE	68	n/a	0	0	0.5869140625	0.422607421875	lower	../fonts/amplitud.ttf
547609	WORD	wordpools/wasnorm_wordpool.txt	LTP098	ltpFR	2	4	0	SILK	1307	n/a	n/a	0	0.5869140625	0.422607421875	lower	../fonts/amplitud.ttf
550634	SLOW_MSG	n/a	LTP098	ltpFR	2	4	n/a	n/a	n/a	n/a	n/a	n/a	n/a	n/a	n/a	n/a
553159	WORD	wordpools/wasnorm_wordpool.txt	LTP098	ltpFR	2	4	0	DIGGER	464	n/a	1	0	0.5869140625	0.422607421875	lower	../fonts/amplitud.ttf
557200	WORD	wordpools/wasnorm_wordpool.txt	LTP098	ltpFR	2	4	0	JET	756	n/a	1	0	0.5869140625	0.422607421875	lower	../fonts/amplitud.ttf
561292	WORD	wordpools/wasnorm_wordpool.txt	LTP098	ltpFR	2	4	0	STY	1397	n/a	0	0	0.5869140625	0.422607421875	lower	../fonts/amplitud.ttf
565458	WORD	wordpools/wasnorm_wordpool.txt	LTP098	ltpFR	2	4	0	MOUSE	925	n/a	0	0	0.5869140625	0.422607421875	lower	../fonts/amplitud.ttf
569558	WORD	wordpools/wasnorm_wordpool.txt	LTP098	ltpFR	2	4	0	SWAMP	1416	n/a	1	0	0.5869140625	0.422607421875	lower	../fonts/amplitud.ttf
573482	WORD	wordpools/wasnorm_wordpool.txt	LTP098	ltpFR	2	4	0	CREEK	404	n/a	1	0	0.5869140625	0.422607421875	lower	../fonts/amplitud.ttf
577499	WORD	wordpools/wasnorm_wordpool.txt	LTP098	ltpFR	2	4	0	RAKE	1164	n/a	1	0	0.5869140625	0.422607421875	lower	../fonts/amplitud.ttf
581682	WORD	wordpools/wasnorm_wordpool.txt	LTP098	ltpFR	2	4	0	FOREHEAD	592	n/a	0	0	0.5869140625	0.422607421875	lower	../fonts/amplitud.ttf
585840	WORD	wordpools/wasnorm_wordpool.txt	LTP098	ltpFR	2	4	0	DESK	452	n/a	1	0	0.5869140625	0.422607421875	lower	../fonts/amplitud.ttf
589724	WORD	wordpools/wasnorm_wordpool.txt	LTP098	ltpFR	2	4	0	CHAIR	274	n/a	1	0	0.5869140625	0.422607421875	lower	../fonts/amplitud.ttf
593672	WORD	wordpools/wasnorm_wordpool.txt	LTP098	ltpFR	2	4	0	CABINET	212	n/a	1	0	0.5869140625	0.422607421875	lower	../fonts/amplitud.ttf
597522	WORD	wordpools/wasnorm_wordpool.txt	LTP098	ltpFR	2	4	0	PELICAN	1039	n/a	1	0	0.5869140625	0.422607421875	lower	../fonts/amplitud.ttf
601689	WORD	wordpools/wasnorm_wordpool.txt	LTP098	ltpFR	2	4	0	KIWI	781	n/a	0	0	0.5869140625	0.422607421875	lower	../fonts/amplitud.ttf
607789	REC_START	n/a	LTP098	ltpFR	2	4	n/a	n/a	n/a	n/a	n/a	n/a	n/a	n/a	n/a	n/a
608916	REC_WORD	wordpools/wasnorm_wordpool.txt	LTP098	ltpFR	2	4	0	PELICAN	1039	n/a	1	n/a	n/a	n/a	n/a	n/a
609706	REC_WORD	wordpools/wasnorm_wordpool.txt	LTP098	ltpFR	2	4	0	KIWI	781	n/a	0	n/a	n/a	n/a	n/a	n/a
610481	REC_WORD	wordpools/wasnorm_wordpool.txt	LTP098	ltpFR	2	4	0	FOREHEAD	592	n/a	0	n/a	n/a	n/a	n/a	n/a
611785	REC_WORD	wordpools/wasnorm_wordpool.txt	LTP098	ltpFR	2	4	0	MOUSE	925	n/a	0	n/a	n/a	n/a	n/a	n/a
616160	REC_WORD	wordpools/wasnorm_wordpool.txt	LTP098	ltpFR	2	4	0	JET	756	n/a	1	n/a	n/a	n/a	n/a	n/a
680638	REC_WORD	wordpools/wasnorm_wordpool.txt	LTP098	ltpFR	2	4	0	FIGHTER	564	n/a	1	n/a	n/a	n/a	n/a	n/a
687390	WORD	wordpools/wasnorm_wordpool.txt	LTP098	ltpFR	2	5	1	KITTEN	780	n/a	1	1	0.412841796875	0.57763671875	upper	../fonts/zerothre.ttf
691498	WORD	wordpools/wasnorm_wordpool.txt	LTP098	ltpFR	2	5	1	PAWN	1030	n/a	0	1	0.412841796875	0.57763671875	upper	../fonts/zerothre.ttf
695331	WORD	wordpools/wasnorm_wordpool.txt	LTP098	ltpFR	2	5	1	BEAD	103	n/a	0	1	0.412841796875	0.57763671875	upper	../fonts/zerothre.ttf
699489	WORD	wordpools/wasnorm_wordpool.txt	LTP098	ltpFR	2	5	0	LEOPARD	812	n/a	1	0	0.5869140625	0.422607421875	lower	../fonts/amplitud.ttf
703448	WORD	wordpools/wasnorm_wordpool.txt	LTP098	ltpFR	2	5	0	RIB	1188	n/a	0	0	0.5869140625	0.422607421875	lower	../fonts/amplitud.ttf
707314	WORD	wordpools/wasnorm_wordpool.txt	LTP098	ltpFR	2	5	0	SMOG	1330	n/a	1	0	0.5869140625	0.422607421875	lower	../fonts/amplitud.ttf
711139	WORD	wordpools/wasnorm_wordpool.txt	LTP098	ltpFR	2	5	1	CHICK	296	n/a	1	1	0.412841796875	0.57763671875	upper	../fonts/zerothre.ttf
715038	WORD	wordpools/wasnorm_wordpool.txt	LTP098	ltpFR	2	5	1	BIRD	129	n/a	1	1	0.412841796875	0.57763671875	upper	../fonts/zerothre.ttf
719188	WORD	wordpools/wasnorm_wordpool.txt	LTP098	ltpFR	2	5	1	HELICOPTER	701	n/a	0	1	0.412841796875	0.57763671875	upper	../fonts/zerothre.ttf
723121	WORD	wordpools/wasnorm_wordpool.txt	LTP098	ltpFR	2	5	0	PILOT	1070	n/a	1	0	0.5869140625	0.422607421875	lower	../fonts/amplitud.ttf
726954	WORD	wordpools/wasnorm_wordpool.txt	LTP098	ltpFR	2	5	0	KITCHEN	778	n/a	0	0	0.5869140625	0.422607421875	lower	../fonts/amplitud.ttf
730829	WORD	wordpools/wasnorm_wordpool.txt	LTP098	ltpFR	2	5	0	ASH	44	n/a	0	0	0.5869140625	0.422607421875	lower	../fonts/amplitud.ttf
734778	WORD	wordpools/wasnorm_wordpool.txt	LTP098	ltpFR	2	5	0	CAFE	216	n/a	1	0	0.5869140625	0.422607421875	lower	../fonts/amplitud.ttf
738920	WORD	wordpools/wasnorm_wordpool.txt	LTP098	ltpFR	2	5	0	PLUM	1090	n/a	0	0	0.5869140625	0.422607421875	lower	../fonts/amplitud.ttf
743103	WORD	wordpools/wasnorm_wordpool.txt	LTP098	ltpFR	2	5	1	SHORTCAKE	1292	n/a	0	1	0.412841796875	0.57763671875	upper	../fonts/zerothre.ttf
747011	WORD	wordpools/wasnorm_wordpool.txt	LTP098	ltpFR	2	5	1	DOLLAR	482	n/a	0	1	0.412841796875	0.57763671875	upper	../fonts/zerothre.ttf
752844	REC_START	n/a	LTP098	ltpFR	2	5	n/a	n/a	n/a	n/a	n/a	n/a	n/a	n/a	n/a	n/a
753328	REC_WORD	wordpools/wasnorm_wordpool.txt	LTP098	ltpFR	2	5	1	DOLLAR	482	n/a	0	n/a	n/a	n/a	n/a	n/a
753735	REC_WORD	wordpools/wasnorm_wordpool.txt	LTP098	ltpFR	2	5	1	SHORTCAKE	1292	n/a	0	n/a	n/a	n/a	n/a	n/a
754615	REC_WORD	wordpools/wasnorm_wordpool.txt	LTP098	ltpFR	2	5	0	KITCHEN	778	n/a	0	n/a	n/a	n/a	n/a	n/a
755288	REC_WORD	wordpools/wasnorm_wordpool.txt	LTP098	ltpFR	2	5	0	ASH	44	n/a	0	n/a	n/a	n/a	n/a	n/a
759484	REC_WORD	wordpools/wasnorm_wordpool.txt	LTP098	ltpFR	2	5	1	HELICOPTER	701	n/a	0	n/a	n/a	n/a	n/a	n/a
760288	REC_WORD	wordpools/wasnorm_wordpool.txt	LTP098	ltpFR	2	5	0	PILOT	1070	n/a	1	n/a	n/a	n/a	n/a	n/a
761200	REC_WORD	wordpools/wasnorm_wordpool.txt	LTP098	ltpFR	2	5	1	CHICK	296	n/a	1	n/a	n/a	n/a	n/a	n/a
765590	REC_WORD	wordpools/wasnorm_wordpool.txt	LTP098	ltpFR	2	5	1	KITTEN	780	n/a	1	n/a	n/a	n/a	n/a	n/a
766089	REC_WORD	wordpools/wasnorm_wordpool.txt	LTP098	ltpFR	2	5	0	LEOPARD	812	n/a	1	n/a	n/a	n/a	n/a	n/a
769371	REC_WORD	wordpools/wasnorm_wordpool.txt	LTP098	ltpFR	2	5	1	BEAD	103	n/a	0	n/a	n/a	n/a	n/a	n/a
831305	WORD	wordpools/wasnorm_wordpool.txt	LTP098	ltpFR	2	6	0	VET	1560	n/a	1	0	0.5869140625	0.422607421875	lower	../fonts/amplitud.ttf
835479	WORD	wordpools/wasnorm_wordpool.txt	LTP098	ltpFR	2	6	0	ERASER	538	n/a	0	0	0.5869140625	0.422607421875	lower	../fonts/amplitud.ttf
839437	WORD	wordpools/wasnorm_wordpool.txt	LTP098	ltpFR	2	6	0	SNACK	1331	n/a	0	0	0.5869140625	0.422607421875	lower	../fonts/amplitud.ttf
843512	WORD	wordpools/wasnorm_wordpool.txt	LTP098	ltpFR	2	6	0	CRITIC	410	n/a	1	0	0.5869140625	0.422607421875	lower	../fonts/amplitud.ttf
847553	WORD	wordpools/wasnorm_wordpool.txt	LTP098	ltpFR	2	6	1	MAILMAN	858	n/a	1	1	0.412841796875	0.57763671875	upper	../fonts/zerothre.ttf
851536	WORD	wordpools/wasnorm_wordpool.txt	LTP098	ltpFR	2	6	1	ADOLESCENT	7	n/a	1	1	0.412841796875	0.57763671875	upper	../fonts/zerothre.ttf
855603	WORD	wordpools/wasnorm_wordpool.txt	LTP098	ltpFR	2	6	0	GUM	672	n/a	0	0	0.5869140625	0.422607421875	lower	../fonts/amplitud.ttf
859745	WORD	wordpools/wasnorm_wordpool.txt	LTP098	ltpFR	2	6	0	CANDY	230	n/a	0	0	0.5869140625	0.422607421875	lower	../fonts/amplitud.ttf
863677	WORD	wordpools/wasnorm_wordpool.txt	LTP098	ltpFR	2	6	1	REFRIGERATOR	1179	n/a	0	1	0.412841796875	0.57763671875	upper	../fonts/zerothre.ttf
867719	WORD	wordpools/wasnorm_wordpool.txt	LTP098	ltpFR	2	6	1	TICKET	1464	n/a	0	1	0.412841796875	0.57763671875	upper	../fonts/zerothre.ttf
871668	WORD	wordpools/wasnorm_wordpool.txt	LTP098	ltpFR	2	6	1	GOAT	644	n/a	1	1	0.412841796875	0.57763671875	upper	../fonts/zerothre.ttf
875493	WORD	wordpools/wasnorm_wordpool.txt	LTP098	ltpFR	2	6	1	FUNGUS	614	n/a	1	1	0.412841796875	0.57763671875	upper	../fonts/zerothre.ttf
879576	WORD	wordpools/wasnorm_wordpool.txt	LTP098	ltpFR	2	6	1	SHOE	1288	n/a	0	1	0.412841796875	0.57763671875	upper	../fonts/zerothre.ttf
883727	WORD	wordpools/wasnorm_wordpool.txt	LTP098	ltpFR	2	6	1	SAND	1230	n/a	0	1	0.412841796875	0.57763671875	upper	../fonts/zerothre.ttf
887659	WORD	wordpools/wasnorm_wordpool.txt	LTP098	ltpFR	2	6	0	SHORE	1291	n/a	1	0	0.5869140625	0.422607421875	lower	../fonts/amplitud.ttf
891567	WORD	wordpools/wasnorm_wordpool.txt	LTP098	ltpFR	2	6	0	SEA	1259	n/a	1	0	0.5869140625	0.422607421875	lower	../fonts/amplitud.ttf
897317	REC_START	n/a	LTP098	ltpFR	2	6	n/a	n/a	n/a	n/a	n/a	n/a	n/a	n/a	n/a	n/a
897696	REC_WORD	wordpools/wasnorm_wordpool.txt	LTP098	ltpFR	2	6	1	FUNGUS	614	n/a	1	n/a	n/a	n/a	n/a	n/a
898459	REC_WORD	wordpools/wasnorm_wordpool.txt	LTP098	ltpFR	2	6	1	SHOE	1288	n/a	0	n/a	n/a	n/a	n/a	n/a
899188	REC_WORD	wordpools/wasnorm_wordpool.txt	LTP098	ltpFR	2	6	1	SAND	1230	n/a	0	n/a	n/a	n/a	n/a	n/a
899956	REC_WORD	wordpools/wasnorm_wordpool.txt	LTP098	ltpFR	2	6	0	SHORE	1291	n/a	1	n/a	n/a	n/a	n/a	n/a
900709	REC_WORD	wordpools/wasnorm_wordpool.txt	LTP098	ltpFR	2	6	0	SEA	1259	n/a	1	n/a	n/a	n/a	n/a	n/a
902046	REC_WORD	wordpools/wasnorm_wordpool.txt	LTP098	ltpFR	2	6	1	MAILMAN	858	n/a	1	n/a	n/a	n/a	n/a	n/a
902816	REC_WORD	wordpools/wasnorm_wordpool.txt	LTP098	ltpFR	2	6	0	VET	1560	n/a	1	n/a	n/a	n/a	n/a	n/a
918314	REC_WORD	wordpools/wasnorm_wordpool.txt	LTP098	ltpFR	2	6	0	CRITIC	410	n/a	1	n/a	n/a	n/a	n/a	n/a
922784	REC_WORD	wordpools/wasnorm_wordpool.txt	LTP098	ltpFR	2	6	1	REFRIGERATOR	1179	n/a	0	n/a	n/a	n/a	n/a	n/a
979418	WORD	wordpools/wasnorm_wordpool.txt	LTP098	ltpFR	2	7	-1	MACHINE	852	n/a	-1	1	1.0	1.0	upper	../fonts/Verdana.ttf
983326	WORD	wordpools/wasnorm_wordpool.txt	LTP098	ltpFR	2	7	-1	MISTER	901	n/a	-1	1	1.0	1.0	upper	../fonts/Verdana.ttf
987318	WORD	wordpools/wasnorm_wordpool.txt	LTP098	ltpFR	2	7	-1	FLUTE	585	n/a	-1	1	1.0	1.0	upper	../fonts/Verdana.ttf
991143	WORD	wordpools/wasnorm_wordpool.txt	LTP098	ltpFR	2	7	-1	SNAIL	1332	n/a	-1	1	1.0	1.0	upper	../fonts/Verdana.ttf
995342	WORD	wordpools/wasnorm_wordpool.txt	LTP098	ltpFR	2	7	-1	TURTLE	1522	n/a	-1	1	1.0	1.0	upper	../fonts/Verdana.ttf
999375	WORD	wordpools/wasnorm_wordpool.txt	LTP098	ltpFR	2	7	-1	FREEWAY	603	n/a	-1	1	1.0	1.0	upper	../fonts/Verdana.ttf
1003492	WORD	wordpools/wasnorm_wordpool.txt	LTP098	ltpFR	2	7	-1	AMBULANCE	19	n/a	-1	1	1.0	1.0	upper	../fonts/Verdana.ttf
1007566	WORD	wordpools/wasnorm_wordpool.txt	LTP098	ltpFR	2	7	-1	OCEAN	970	n/a	-1	1	1.0	1.0	upper	../fonts/Verdana.ttf
1011649	WORD	wordpools/wasnorm_wordpool.txt	LTP098	ltpFR	2	7	-1	NOMAD	955	n/a	-1	1	1.0	1.0	upper	../fonts/Verdana.ttf
1015733	WORD	wordpools/wasnorm_wordpool.txt	LTP098	ltpFR	2	7	-1	AUDIENCE	59	n/a	-1	1	1.0	1.0	upper	../fonts/Verdana.ttf
1019549	WORD	wordpools/wasnorm_wordpool.txt	LTP098	ltpFR	2	7	-1	ANTELOPE	27	n/a	-1	1	1.0	1.0	upper	../fonts/Verdana.ttf
1023432	WORD	wordpools/wasnorm_wordpool.txt	LTP098	ltpFR	2	7	-1	TRUMPET	1513	n/a	-1	1	1.0	1.0	upper	../fonts/Verdana.ttf
1027456	WORD	wordpools/wasnorm_wordpool.txt	LTP098	ltpFR	2	7	-1	BATH	98	n/a	-1	1	1.0	1.0	upper	../fonts/Verdana.ttf
1031364	WORD	wordpools/wasnorm_wordpool.txt	LTP098	ltpFR	2	7	-1	PERISCOPE	1050	n/a	-1	1	1.0	1.0	upper	../fonts/Verdana.ttf
1035514	WORD	wordpools/wasnorm_wordpool.txt	LTP098	ltpFR	2	7	-1	ASTEROID	50	n/a	-1	1	1.0	1.0	upper	../fonts/Verdana.ttf
1039664	WORD	wordpools/wasnorm_wordpool.txt	LTP098	ltpFR	2	7	-1	NITROGEN	954	n/a	-1	1	1.0	1.0	upper	../fonts/Verdana.ttf
1045723	REC_START	n/a	LTP098	ltpFR	2	7	n/a	n/a	n/a	n/a	n/a	n/a	n/a	n/a	n/a	n/a
1046406	REC_WORD	wordpools/wasnorm_wordpool.txt	LTP098	ltpFR	2	7	-1	PERISCOPE	1050	n/a	-1	n/a	n/a	n/a	n/a	n/a
1047284	REC_WORD	wordpools/wasnorm_wordpool.txt	LTP098	ltpFR	2	7	-1	BATH	98	n/a	-1	n/a	n/a	n/a	n/a	n/a
1048482	REC_WORD	wordpools/wasnorm_wordpool.txt	LTP098	ltpFR	2	7	-1	ASTEROID	50	n/a	-1	n/a	n/a	n/a	n/a	n/a
1049360	REC_WORD	wordpools/wasnorm_wordpool.txt	LTP098	ltpFR	2	7	-1	NITROGEN	954	n/a	-1	n/a	n/a	n/a	n/a	n/a
1050806	REC_WORD	wordpools/wasnorm_wordpool.txt	LTP098	ltpFR	2	7	-1	MACHINE	852	n/a	-1	n/a	n/a	n/a	n/a	n/a
1051964	REC_WORD	wordpools/wasnorm_wordpool.txt	LTP098	ltpFR	2	7	-1	MISTER	901	n/a	-1	n/a	n/a	n/a	n/a	n/a
1053186	REC_WORD	wordpools/wasnorm_wordpool.txt	LTP098	ltpFR	2	7	-1	OCEAN	970	n/a	-1	n/a	n/a	n/a	n/a	n/a
1054069	REC_WORD	wordpools/wasnorm_wordpool.txt	LTP098	ltpFR	2	7	-1	NOMAD	955	n/a	-1	n/a	n/a	n/a	n/a	n/a
1056099	REC_WORD	wordpools/wasnorm_wordpool.txt	LTP098	ltpFR	2	7	-1	AMBULANCE	19	n/a	-1	n/a	n/a	n/a	n/a	n/a
1057017	REC_WORD	wordpools/wasnorm_wordpool.txt	LTP098	ltpFR	2	7	-1	FREEWAY	603	n/a	-1	n/a	n/a	n/a	n/a	n/a
1058589	REC_WORD	wordpools/wasnorm_wordpool.txt	LTP098	ltpFR	2	7	-1	SNAIL	1332	n/a	-1	n/a	n/a	n/a	n/a	n/a
1066062	REC_WORD	wordpools/wasnorm_wordpool.txt	LTP098	ltpFR	2	7	-1	FLUTE	585	n/a	-1	n/a	n/a	n/a	n/a	n/a
1068431	REC_WORD	wordpools/wasnorm_wordpool.txt	LTP098	ltpFR	2	7	-1	TRUMPET	1513	n/a	-1	n/a	n/a	n/a	n/a	n/a
1124358	WORD	wordpools/wasnorm_wordpool.txt	LTP098	ltpFR	2	8	1	VAMPIRE	1547	n/a	1	1	0.412841796875	0.57763671875	upper	../fonts/zerothre.ttf
1128441	WORD	wordpools/wasnorm_wordpool.txt	LTP098	ltpFR	2	8	1	DRILL	497	n/a	0	1	0.412841796875	0.57763671875	upper	../fonts/zerothre.ttf
1132524	WORD	wordpools/wasnorm_wordpool.txt	LTP098	ltpFR	2	8	1	SIREN	1310	n/a	0	1	0.412841796875	0.57763671875	upper	../fonts/zerothre.ttf
1136448	WORD	wordpools/wasnorm_wordpool.txt	LTP098	ltpFR	2	8	1	PATROL	1027	n/a	0	1	0.412841796875	0.57763671875	upper	../fonts/zerothre.ttf
1140565	WORD	wordpools/wasnorm_wordpool.txt	LTP098	ltpFR	2	8	1	SHRIMP	1297	n/a	1	1	0.412841796875	0.57763671875	upper	../fonts/zerothre.ttf
1144715	WORD	wordpools/wasnorm_wordpool.txt	LTP098	ltpFR	2	8	1	AUTHOR	61	n/a	1	1	0.412841796875	0.57763671875	upper	../fonts/zerothre.ttf
1148831	WORD	wordpools/wasnorm_wordpool.txt	LTP098	ltpFR	2	8	1	ACID	2	n/a	0	1	0.412841796875	0.57763671875	upper	../fonts/zerothre.ttf
1152740	WORD	wordpools/wasnorm_wordpool.txt	LTP098	ltpFR	2	8	1	CORN	381	n/a	1	1	0.412841796875	0.57763671875	upper	../fonts/zerothre.ttf
1156947	WORD	wordpools/wasnorm_wordpool.txt	LTP098	ltpFR	2	8	1	CHART	282	n/a	0	1	0.412841796875	0.57763671875	upper	../fonts/zerothre.ttf
1160771	WORD	wordpools/wasnorm_wordpool.txt	LTP098	ltpFR	2	8	1	DINOSAUR	469	n/a	1	1	0.412841796875	0.57763671875	upper	../fonts/zerothre.ttf
1164896	WORD	wordpools/wasnorm_wordpool.txt	LTP098	ltpFR	2	8	1	NET	946	n/a	0	1	0.412841796875	0.57763671875	upper	../fonts/zerothre.ttf
1168954	WORD	wordpools/wasnorm_wordpool.txt	LTP098	ltpFR	2	8	1	NAVIGATOR	938	n/a	1	1	0.412841796875	0.57763671875	upper	../fonts/zerothre.ttf
1173120	WORD	wordpools/wasnorm_wordpool.txt	LTP098	ltpFR	2	8	1	PORT	1110	n/a	0	1	0.412841796875	0.57763671875	upper	../fonts/zerothre.ttf
1177270	WORD	wordpools/wasnorm_wordpool.txt	LTP098	ltpFR	2	8	1	TECHNICIAN	1443	n/a	1	1	0.412841796875	0.57763671875	upper	../fonts/zerothre.ttf
1181328	WORD	wordpools/wasnorm_wordpool.txt	LTP098	ltpFR	2	8	1	MERMAID	887	n/a	1	1	0.412841796875	0.57763671875	upper	../fonts/zerothre.ttf
1185236	WORD	wordpools/wasnorm_wordpool.txt	LTP098	ltpFR	2	8	1	DIARY	460	n/a	0	1	0.412841796875	0.57763671875	upper	../fonts/zerothre.ttf
1191253	REC_START	n/a	LTP098	ltpFR	2	8	n/a	n/a	n/a	n/a	n/a	n/a	n/a	n/a	n/a	n/a
1191672	REC_WORD	wordpools/wasnorm_wordpool.txt	LTP098	ltpFR	2	8	1	SIREN	1310	n/a	0	n/a	n/a	n/a	n/a	n/a
1192335	REC_WORD	wordpools/wasnorm_wordpool.txt	LTP098	ltpFR	2	8	1	PATROL	1027	n/a	0	n/a	n/a	n/a	n/a	n/a
1193066	REC_WORD	wordpools/wasnorm_wordpool.txt	LTP098	ltpFR	2	8	1	SHRIMP	1297	n/a	1	n/a	n/a	n/a	n/a	n/a
1195159	REC_WORD	wordpools/wasnorm_wordpool.txt	LTP098	ltpFR	2	8	1	AUTHOR	61	n/a	1	n/a	n/a	n/a	n/a	n/a
1195792	REC_WORD	wordpools/wasnorm_wordpool.txt	LTP098	ltpFR	2	8	1	CORN	381	n/a	1	n/a	n/a	n/a	n/a	n/a
1196546	REC_WORD	wordpools/wasnorm_wordpool.txt	LTP098	ltpFR	2	8	1	MERMAID	887	n/a	1	n/a	n/a	n/a	n/a	n/a
1197653	REC_WORD	wordpools/wasnorm_wordpool.txt	LTP098	ltpFR	2	8	1	ACID	2	n/a	0	n/a	n/a	n/a	n/a	n/a
1271980	WORD	wordpools/wasnorm_wordpool.txt	LTP098	ltpFR	2	9	0	WOLF	1619	n/a	1	0	0.5869140625	0.422607421875	lower	../fonts/amplitud.ttf
1276138	WORD	wordpools/wasnorm_wordpool.txt	LTP098	ltpFR	2	9	0	GIRAFFE	636	n/a	1	0	0.5869140625	0.422607421875	lower	../fonts/amplitud.ttf
1280104	WORD	wordpools/wasnorm_wordpool.txt	LTP098	ltpFR	2	9	0	PRINCE	1124	n/a	1	0	0.5869140625	0.422607421875	lower	../fonts/amplitud.ttf
1284237	WORD	wordpools/wasnorm_wordpool.txt	LTP098	ltpFR	2	9	0	BELLY	119	n/a	0	0	0.5869140625	0.422607421875	lower	../fonts/amplitud.ttf
1288312	WORD	wordpools/wasnorm_wordpool.txt	LTP098	ltpFR	2	9	1	KEYBOARD	774	n/a	0	1	0.412841796875	0.57763671875	upper	../fonts/zerothre.ttf
1292436	WORD	wordpools/wasnorm_wordpool.txt	LTP098	ltpFR	2	9	1	CELLO	268	n/a	0	1	0.412841796875	0.57763671875	upper	../fonts/zerothre.ttf
1296436	WORD	wordpools/wasnorm_wordpool.txt	LTP098	ltpFR	2	9	1	CASHIER	254	n/a	1	1	0.412841796875	0.57763671875	upper	../fonts/zerothre.ttf
1300386	WORD	wordpools/wasnorm_wordpool.txt	LTP098	ltpFR	2	9	1	CONCERT	360	n/a	0	1	0.412841796875	0.57763671875	upper	../fonts/zerothre.ttf
1304552	WORD	wordpools/wasnorm_wordpool.txt	LTP098	ltpFR	2	9	0	TUBA	1515	n/a	1	0	0.5869140625	0.422607421875	lower	../fonts/amplitud.ttf
1308544	WORD	wordpools/wasnorm_wordpool.txt	LTP098	ltpFR	2	9	0	LIVER	833	n/a	0	0	0.5869140625	0.422607421875	lower	../fonts/amplitud.ttf
1312744	WORD	wordpools/wasnorm_wordpool.txt	LTP098	ltpFR	2	9	0	BUSH	202	n/a	1	0	0.5869140625	0.422607421875	lower	../fonts/amplitud.ttf
1316768	WORD	wordpools/wasnorm_wordpool.txt	LTP098	ltpFR	2	9	0	OMELET	976	n/a	0	0	0.5869140625	0.422607421875	lower	../fonts/amplitud.ttf
1320976	WORD	wordpools/wasnorm_wordpool.txt	LTP098	ltpFR	2	9	1	STEAM	1375	n/a	0	1	0.412841796875	0.57763671875	upper	../fonts/zerothre.ttf
1325159	WORD	wordpools/wasnorm_wordpool.txt	LTP098	ltpFR	2	9	1	MOSS	918	n/a	1	1	0.412841796875	0.57763671875	upper	../fonts/zerothre.ttf
1329175	WORD	wordpools/wasnorm_wordpool.txt	LTP098	ltpFR	2	9	1	SALAD	1224	n/a	0	1	0.412841796875	0.57763671875	upper	../fonts/zerothre.ttf
1333167	WORD	wordpools/wasnorm_wordpool.txt	LTP098	ltpFR	2	9	1	PUMP	1141	n/a	0	1	0.412841796875	0.57763671875	upper	../fonts/zerothre.ttf
1339017	REC_START	n/a	LTP098	ltpFR	2	9	n/a	n/a	n/a	n/a	n/a	n/a	n/a	n/a	n/a	n/a
1339346	REC_WORD	wordpools/wasnorm_wordpool.txt	LTP098	ltpFR	2	9	0	OMELET	976	n/a	0	n/a	n/a	n/a	n/a	n/a
1340069	REC_WORD	wordpools/wasnorm_wordpool.txt	LTP098	ltpFR	2	9	1	STEAM	1375	n/a	0	n/a	n/a	n/a	n/a	n/a
1341337	REC_WORD	wordpools/wasnorm_wordpool.txt	LTP098	ltpFR	2	9	1	PUMP	1141	n/a	0	n/a	n/a	n/a	n/a	n/a
1348440	REC_WORD	wordpools/wasnorm_wordpool.txt	LTP098	ltpFR	2	9	0	TUBA	1515	n/a	1	n/a	n/a	n/a	n/a	n/a
1349099	REC_WORD	wordpools/wasnorm_wordpool.txt	LTP098	ltpFR	2	9	1	CELLO	268	n/a	0	n/a	n/a	n/a	n/a	n/a
1349827	REC_WORD	wordpools/wasnorm_wordpool.txt	LTP098	ltpFR	2	9	1	CONCERT	360	n/a	0	n/a	n/a	n/a	n/a	n/a
1350576	REC_WORD	wordpools/wasnorm_wordpool.txt	LTP098	ltpFR	2	9	1	KEYBOARD	774	n/a	0	n/a	n/a	n/a	n/a	n/a
1359750	REC_WORD	wordpools/wasnorm_wordpool.txt	LTP098	ltpFR	2	9	1	MOSS	918	n/a	1	n/a	n/a	n/a	n/a	n/a
1400642	REC_WORD	wordpools/wasnorm_wordpool.txt	LTP098	ltpFR	2	9	0	BELLY	119	n/a	0	n/a	n/a	n/a	n/a	n/a
1401030	REC_WORD	wordpools/wasnorm_wordpool.txt	LTP098	ltpFR	2	9	0	LIVER	833	n/a	0	n/a	n/a	n/a	n/a	n/a
1417119	WORD	wordpools/wasnorm_wordpool.txt	LTP098	ltpFR	2	10	1	FARMER	553	n/a	1	1	0.412841796875	0.57763671875	upper	../fonts/zerothre.ttf
1421143	WORD	wordpools/wasnorm_wordpool.txt	LTP098	ltpFR	2	10	1	VAGRANT	1544	n/a	1	1	0.412841796875	0.57763671875	upper	../fonts/zerothre.ttf
1425068	WORD	wordpools/wasnorm_wordpool.txt	LTP098	ltpFR	2	10	1	CONSOLE	364	n/a	0	1	0.412841796875	0.57763671875	upper	../fonts/zerothre.ttf
1429135	WORD	wordpools/wasnorm_wordpool.txt	LTP098	ltpFR	2	10	1	WATERFALL	1595	n/a	0	1	0.412841796875	0.57763671875	upper	../fonts/zerothre.ttf
1433101	WORD	wordpools/wasnorm_wordpool.txt	LTP098	ltpFR	2	10	0	POT	1114	n/a	1	0	0.5869140625	0.422607421875	lower	../fonts/amplitud.ttf
1437151	WORD	wordpools/wasnorm_wordpool.txt	LTP098	ltpFR	2	10	0	MICROPHONE	890	n/a	1	0	0.5869140625	0.422607421875	lower	../fonts/amplitud.ttf
1441009	WORD	wordpools/wasnorm_wordpool.txt	LTP098	ltpFR	2	10	1	BRICK	172	n/a	0	1	0.412841796875	0.57763671875	upper	../fonts/zerothre.ttf
1444908	WORD	wordpools/wasnorm_wordpool.txt	LTP098	ltpFR	2	10	1	TAR	1435	n/a	0	1	0.412841796875	0.57763671875	upper	../fonts/zerothre.ttf
1448775	WORD	wordpools/wasnorm_wordpool.txt	LTP098	ltpFR	2	10	1	DIME	466	n/a	0	1	0.412841796875	0.57763671875	upper	../fonts/zerothre.ttf
1452941	WORD	wordpools/wasnorm_wordpool.txt	LTP098	ltpFR	2	10	1	SCARECROW	1245	n/a	0	1	0.412841796875	0.57763671875	upper	../fonts/zerothre.ttf
1457149	WORD	wordpools/wasnorm_wordpool.txt	LTP098	ltpFR	2	10	0	BRACES	164	n/a	0	0	0.5869140625	0.422607421875	lower	../fonts/amplitud.ttf
1461032	WORD	wordpools/wasnorm_wordpool.txt	LTP098	ltpFR	2	10	0	WALRUS	1585	n/a	1	0	0.5869140625	0.422607421875	lower	../fonts/amplitud.ttf
1465099	WORD	wordpools/wasnorm_wordpool.txt	LTP098	ltpFR	2	10	0	WINNER	1615	n/a	1	0	0.5869140625	0.422607421875	lower	../fonts/amplitud.ttf
1469290	WORD	wordpools/wasnorm_wordpool.txt	LTP098	ltpFR	2	10	0	BEGGAR	117	n/a	1	0	0.5869140625	0.422607421875	lower	../fonts/amplitud.ttf
1473473	WORD	wordpools/wasnorm_wordpool.txt	LTP098	ltpFR	2	10	0	LILY	821	n/a	0	0	0.5869140625	0.422607421875	lower	../fonts/amplitud.ttf
1477664	WORD	wordpools/wasnorm_wordpool.txt	LTP098	ltpFR	2	10	0	TULIP	1517	n/a	0	0	0.5869140625	0.422607421875	lower	../fonts/amplitud.ttf
1483398	REC_START	n/a	LTP098	ltpFR	2	10	n/a	n/a	n/a	n/a	n/a	n/a	n/a	n/a	n/a	n/a
1483971	REC_WORD	wordpools/wasnorm_wordpool.txt	LTP098	ltpFR	2	10	0	WINNER	1615	n/a	1	n/a	n/a	n/a	n/a	n/a
1484577	REC_WORD	wordpools/wasnorm_wordpool.txt	LTP098	ltpFR	2	10	1	VAGRANT	1544	n/a	1	n/a	n/a	n/a	n/a	n/a
1485143	REC_WORD	wordpools/wasnorm_wordpool.txt	LTP098	ltpFR	2	10	0	LILY	821	n/a	0	n/a	n/a	n/a	n/a	n/a
1485742	REC_WORD	wordpools/wasnorm_wordpool.txt	LTP098	ltpFR	2	10	0	TULIP	1517	n/a	0	n/a	n/a	n/a	n/a	n/a
1486406	REC_WORD	wordpools/wasnorm_wordpool.txt	LTP098	ltpFR	2	10	0	BEGGAR	117	n/a	1	n/a	n/a	n/a	n/a	n/a
1569316	WORD	wordpools/wasnorm_wordpool.txt	LTP098	ltpFR	2	11	1	GUARD	667	n/a	1	1	0.412841796875	0.57763671875	upper	../fonts/zerothre.ttf
1573257	WORD	wordpools/wasnorm_wordpool.txt	LTP098	ltpFR	2	11	1	CANAL	226	n/a	0	1	0.412841796875	0.57763671875	upper	../fonts/zerothre.ttf
1577215	WORD	wordpools/wasnorm_wordpool.txt	LTP098	ltpFR	2	11	1	MOAT	903	n/a	0	1	0.412841796875	0.57763671875	upper	../fonts/zerothre.ttf
1581331	WORD	wordpools/wasnorm_wordpool.txt	LTP098	ltpFR	2	11	1	PREDATOR	1120	n/a	1	1	0.412841796875	0.57763671875	upper	../fonts/zerothre.ttf
1585423	WORD	wordpools/wasnorm_wordpool.txt	LTP098	ltpFR	2	11	1	COUCH	386	n/a	0	1	0.412841796875	0.57763671875	upper	../fonts/zerothre.ttf
1589589	WORD	wordpools/wasnorm_wordpool.txt	LTP098	ltpFR	2	11	1	FORT	595	n/a	0	1	0.412841796875	0.57763671875	upper	../fonts/zerothre.ttf
1593748	WORD	wordpools/wasnorm_wordpool.txt	LTP098	ltpFR	2	11	1	FLORIDA	582	n/a	0	1	0.412841796875	0.57763671875	upper	../fonts/zerothre.ttf
1597715	WORD	wordpools/wasnorm_wordpool.txt	LTP098	ltpFR	2	11	1	TOAD	1470	n/a	1	1	0.412841796875	0.57763671875	upper	../fonts/zerothre.ttf
1601897	WORD	wordpools/wasnorm_wordpool.txt	LTP098	ltpFR	2	11	1	STOOL	1386	n/a	0	1	0.412841796875	0.57763671875	upper	../fonts/zerothre.ttf
1605905	WORD	wordpools/wasnorm_wordpool.txt	LTP098	ltpFR	2	11	1	JUGGLER	763	n/a	1	1	0.412841796875	0.57763671875	upper	../fonts/zerothre.ttf
1610013	WORD	wordpools/wasnorm_wordpool.txt	LTP098	ltpFR	2	11	1	GIFT	635	n/a	0	1	0.412841796875	0.57763671875	upper	../fonts/zerothre.ttf
1614012	WORD	wordpools/wasnorm_wordpool.txt	LTP098	ltpFR	2	11	1	OATMEAL	967	n/a	0	1	0.412841796875	0.57763671875	upper	../fonts/zerothre.ttf
1617954	WORD	wordpools/wasnorm_wordpool.txt	LTP098	ltpFR	2	11	1	PLATE	1086	n/a	0	1	0.412841796875	0.57763671875	upper	../fonts/zerothre.ttf
1621853	WORD	wordpools/wasnorm_wordpool.txt	LTP098	ltpFR	2	11	1	GOVERNOR	651	n/a	1	1	0.412841796875	0.57763671875	upper	../fonts/zerothre.ttf
1625678	WORD	wordpools/wasnorm_wordpool.txt	LTP098	ltpFR	2	11	1	BUCKET	184	n/a	0	1	0.412841796875	0.57763671875	upper	../fonts/zerothre.ttf
1629819	WORD	wordpools/wasnorm_wordpool.txt	LTP098	ltpFR	2	11	1	CROCODILE	411	n/a	1	1	0.412841796875	0.57763671875	upper	../fonts/zerothre.ttf
1635503	REC_START	n/a	LTP098	ltpFR	2	11	n/a	n/a	n/a	n/a	n/a	n/a	n/a	n/a	n/a	n/a
1635832	REC_WORD	wordpools/wasnorm_wordpool.txt	LTP098	ltpFR	2	11	1	CROCODILE	411	n/a	1	n/a	n/a	n/a	n/a	n/a
1636710	REC_WORD	wordpools/wasnorm_wordpool.txt	LTP098	ltpFR	2	11	1	GOVERNOR	651	n/a	1	n/a	n/a	n/a	n/a	n/a
1637468	REC_WORD	wordpools/wasnorm_wordpool.txt	LTP098	ltpFR	2	11	1	BUCKET	184	n/a	0	n/a	n/a	n/a	n/a	n/a
1638531	REC_WORD	wordpools/wasnorm_wordpool.txt	LTP098	ltpFR	2	11	1	GIFT	635	n/a	0	n/a	n/a	n/a	n/a	n/a
1639319	REC_WORD	wordpools/wasnorm_wordpool.txt	LTP098	ltpFR	2	11	1	JUGGLER	763	n/a	1	n/a	n/a	n/a	n/a	n/a
1640037	REC_WORD	wordpools/wasnorm_wordpool.txt	LTP098	ltpFR	2	11	1	STOOL	1386	n/a	0	n/a	n/a	n/a	n/a	n/a
1642113	REC_WORD	wordpools/wasnorm_wordpool.txt	LTP098	ltpFR	2	11	1	MOAT	903	n/a	0	n/a	n/a	n/a	n/a	n/a
1643375	REC_WORD	wordpools/wasnorm_wordpool.txt	LTP098	ltpFR	2	11	1	FORT	595	n/a	0	n/a	n/a	n/a	n/a	n/a
1644407	REC_WORD	wordpools/wasnorm_wordpool.txt	LTP098	ltpFR	2	11	1	FLORIDA	582	n/a	0	n/a	n/a	n/a	n/a	n/a
1646473	REC_WORD	wordpools/wasnorm_wordpool.txt	LTP098	ltpFR	2	11	1	COUCH	386	n/a	0	n/a	n/a	n/a	n/a	n/a
1650913	REC_WORD	wordpools/wasnorm_wordpool.txt	LTP098	ltpFR	2	11	1	GUARD	667	n/a	1	n/a	n/a	n/a	n/a	n/a
1721904	WORD	wordpools/wasnorm_wordpool.txt	LTP098	ltpFR	2	12	-1	MOOSE	915	n/a	-1	1	1.0	1.0	upper	../fonts/Verdana.ttf
1725921	WORD	wordpools/wasnorm_wordpool.txt	LTP098	ltpFR	2	12	-1	COLUMN	350	n/a	-1	1	1.0	1.0	upper	../fonts/Verdana.ttf
1729828	WORD	wordpools/wasnorm_wordpool.txt	LTP098	ltpFR	2	12	-1	HAM	678	n/a	-1	1	1.0	1.0	upper	../fonts/Verdana.ttf
1733778	WORD	wordpools/wasnorm_wordpool.txt	LTP098	ltpFR	2	12	-1	AUTOMOBILE	62	n/a	-1	1	1.0	1.0	upper	../fonts/Verdana.ttf
1737986	WORD	wordpools/wasnorm_wordpool.txt	LTP098	ltpFR	2	12	-1	RUST	1219	n/a	-1	1	1.0	1.0	upper	../fonts/Verdana.ttf
1741953	WORD	wordpools/wasnorm_wordpool.txt	LTP098	ltpFR	2	12	-1	MINER	896	n/a	-1	1	1.0	1.0	upper	../fonts/Verdana.ttf
1745911	WORD	wordpools/wasnorm_wordpool.txt	LTP098	ltpFR	2	12	-1	MUG	930	n/a	-1	1	1.0	1.0	upper	../fonts/Verdana.ttf
1749777	WORD	wordpools/wasnorm_wordpool.txt	LTP098	ltpFR	2	12	-1	DINER	467	n/a	-1	1	1.0	1.0	upper	../fonts/Verdana.ttf
1753768	WORD	wordpools/wasnorm_wordpool.txt	LTP098	ltpFR	2	12	-1	BULL	193	n/a	-1	1	1.0	1.0	upper	../fonts/Verdana.ttf
1757976	WORD	wordpools/wasnorm_wordpool.txt	LTP098	ltpFR	2	12	-1	PASTRY	1022	n/a	-1	1	1.0	1.0	upper	../fonts/Verdana.ttf
1762034	WORD	wordpools/wasnorm_wordpool.txt	LTP098	ltpFR	2	12	-1	CHOCOLATE	306	n/a	-1	1	1.0	1.0	upper	../fonts/Verdana.ttf
1765984	WORD	wordpools/wasnorm_wordpool.txt	LTP098	ltpFR	2	12	-1	BUFFALO	186	n/a	-1	1	1.0	1.0	upper	../fonts/Verdana.ttf
1769851	WORD	wordpools/wasnorm_wordpool.txt	LTP098	ltpFR	2	12	-1	FOSSIL	596	n/a	-1	1	1.0	1.0	upper	../fonts/Verdana.ttf
1774009	WORD	wordpools/wasnorm_wordpool.txt	LTP098	ltpFR	2	12	-1	SAUCER	1237	n/a	-1	1	1.0	1.0	upper	../fonts/Verdana.ttf
1777825	WORD	wordpools/wasnorm_wordpool.txt	LTP098	ltpFR	2	12	-1	MAILBOX	857	n/a	-1	1	1.0	1.0	upper	../fonts/Verdana.ttf
1781709	WORD	wordpools/wasnorm_wordpool.txt	LTP098	ltpFR	2	12	-1	STAMP	1370	n/a	-1	1	1.0	1.0	upper	../fonts/Verdana.ttf
1787658	REC_START	n/a	LTP098	ltpFR	2	12	n/a	n/a	n/a	n/a	n/a	n/a	n/a	n/a	n/a	n/a
1788241	REC_WORD	wordpools/wasnorm_wordpool.txt	LTP098	ltpFR	2	12	-1	SAUCER	1237	n/a	-1	n/a	n/a	n/a	n/a	n/a
1788948	REC_WORD	wordpools/wasnorm_wordpool.txt	LTP098	ltpFR	2	12	-1	MAILBOX	857	n/a	-1	n/a	n/a	n/a	n/a	n/a
1789658	REC_WORD	wordpools/wasnorm_wordpool.txt	LTP098	ltpFR	2	12	-1	DINER	467	n/a	-1	n/a	n/a	n/a	n/a	n/a
1790117	REC_WORD	wordpools/wasnorm_wordpool.txt	LTP098	ltpFR	2	12	-1	STAMP	1370	n/a	-1	n/a	n/a	n/a	n/a	n/a
1790795	REC_WORD	wordpools/wasnorm_wordpool.txt	LTP098	ltpFR	2	12	-1	FOSSIL	596	n/a	-1	n/a	n/a	n/a	n/a	n/a
1791609	REC_WORD	wordpools/wasnorm_wordpool.txt	LTP098	ltpFR	2	12	-1	COLUMN	350	n/a	-1	n/a	n/a	n/a	n/a	n/a
1799925	REC_WORD	wordpools/wasnorm_wordpool.txt	LTP098	ltpFR	2	12	-1	BULL	193	n/a	-1	n/a	n/a	n/a	n/a	n/a
1800428	REC_WORD	wordpools/wasnorm_wordpool.txt	LTP098	ltpFR	2	12	-1	MOOSE	915	n/a	-1	n/a	n/a	n/a	n/a	n/a
1800953	REC_WORD	wordpools/wasnorm_wordpool.txt	LTP098	ltpFR	2	12	-1	BUFFALO	186	n/a	-1	n/a	n/a	n/a	n/a	n/a
1805427	REC_WORD	wordpools/wasnorm_wordpool.txt	LTP098	ltpFR	2	12	-1	AUTOMOBILE	62	n/a	-1	n/a	n/a	n/a	n/a	n/a
1808446	REC_WORD	wordpools/wasnorm_wordpool.txt	LTP098	ltpFR	2	12	-1	MINER	896	n/a	-1	n/a	n/a	n/a	n/a	n/a
1812501	REC_WORD	wordpools/wasnorm_wordpool.txt	LTP098	ltpFR	2	12	-1	SAUCER	1237	n/a	-1	n/a	n/a	n/a	n/a	n/a
1823940	REC_WORD	wordpools/wasnorm_wordpool.txt	LTP098	ltpFR	2	12	-1	HAM	678	n/a	-1	n/a	n/a	n/a	n/a	n/a
1863269	REST_REWET	n/a	LTP098	ltpFR	2	12	n/a	n/a	n/a	n/a	n/a	n/a	n/a	n/a	n/a	n/a
2671149	WORD	wordpools/wasnorm_wordpool.txt	LTP098	ltpFR	2	13	1	SWIMMER	1420	n/a	1	1	0.412841796875	0.57763671875	upper	../fonts/zerothre.ttf
2674974	WORD	wordpools/wasnorm_wordpool.txt	LTP098	ltpFR	2	13	1	RUNNER	1218	n/a	1	1	0.412841796875	0.57763671875	upper	../fonts/zerothre.ttf
2678890	WORD	wordpools/wasnorm_wordpool.txt	LTP098	ltpFR	2	13	1	PAVEMENT	1028	n/a	0	1	0.412841796875	0.57763671875	upper	../fonts/zerothre.ttf
2682699	WORD	wordpools/wasnorm_wordpool.txt	LTP098	ltpFR	2	13	1	RAFT	1159	n/a	0	1	0.412841796875	0.57763671875	upper	../fonts/zerothre.ttf
2686741	WORD	wordpools/wasnorm_wordpool.txt	LTP098	ltpFR	2	13	1	MARINE	869	n/a	0	1	0.412841796875	0.57763671875	upper	../fonts/zerothre.ttf
2690914	WORD	wordpools/wasnorm_wordpool.txt	LTP098	ltpFR	2	13	1	ALMOND	18	n/a	0	1	0.412841796875	0.57763671875	upper	../fonts/zerothre.ttf
2695047	WORD	wordpools/wasnorm_wordpool.txt	LTP098	ltpFR	2	13	1	RABBIT	1152	n/a	1	1	0.412841796875	0.57763671875	upper	../fonts/zerothre.ttf
2698989	WORD	wordpools/wasnorm_wordpool.txt	LTP098	ltpFR	2	13	1	FATHER	554	n/a	1	1	0.412841796875	0.57763671875	upper	../fonts/zerothre.ttf
2702863	WORD	wordpools/wasnorm_wordpool.txt	LTP098	ltpFR	2	13	1	TELEPHONE	1445	n/a	0	1	0.412841796875	0.57763671875	upper	../fonts/zerothre.ttf
2707038	WORD	wordpools/wasnorm_wordpool.txt	LTP098	ltpFR	2	13	1	TORCH	1484	n/a	0	1	0.412841796875	0.57763671875	upper	../fonts/zerothre.ttf
2711180	WORD	wordpools/wasnorm_wordpool.txt	LTP098	ltpFR	2	13	1	CLIMBER	323	n/a	1	1	0.412841796875	0.57763671875	upper	../fonts/zerothre.ttf
2715046	WORD	wordpools/wasnorm_wordpool.txt	LTP098	ltpFR	2	13	1	POPCORN	1104	n/a	0	1	0.412841796875	0.57763671875	upper	../fonts/zerothre.ttf
2718962	WORD	wordpools/wasnorm_wordpool.txt	LTP098	ltpFR	2	13	1	MESSAGE	888	n/a	0	1	0.412841796875	0.57763671875	upper	../fonts/zerothre.ttf
2723012	WORD	wordpools/wasnorm_wordpool.txt	LTP098	ltpFR	2	13	1	ROACH	1195	n/a	1	1	0.412841796875	0.57763671875	upper	../fonts/zerothre.ttf
2727128	WORD	wordpools/wasnorm_wordpool.txt	LTP098	ltpFR	2	13	1	COCOON	339	n/a	0	1	0.412841796875	0.57763671875	upper	../fonts/zerothre.ttf
2731078	WORD	wordpools/wasnorm_wordpool.txt	LTP098	ltpFR	2	13	1	ANT	25	n/a	1	1	0.412841796875	0.57763671875	upper	../fonts/zerothre.ttf
2737020	REC_START	n/a	LTP098	ltpFR	2	13	n/a	n/a	n/a	n/a	n/a	n/a	n/a	n/a	n/a	n/a
2738402	REC_WORD	wordpools/wasnorm_wordpool.txt	LTP098	ltpFR	2	13	1	MARINE	869	n/a	0	n/a	n/a	n/a	n/a	n/a
2739170	REC_WORD	wordpools/wasnorm_wordpool.txt	LTP098	ltpFR	2	13	1	ALMOND	18	n/a	0	n/a	n/a	n/a	n/a	n/a
2739848	REC_WORD	wordpools/wasnorm_wordpool.txt	LTP098	ltpFR	2	13	1	RAFT	1159	n/a	0	n/a	n/a	n/a	n/a	n/a
2741739	REC_WORD	wordpools/wasnorm_wordpool.txt	LTP098	ltpFR	2	13	1	FATHER	554	n/a	1	n/a	n/a	n/a	n/a	n/a
2743066	REC_WORD	wordpools/wasnorm_wordpool.txt	LTP098	ltpFR	2	13	1	ANT	25	n/a	1	n/a	n/a	n/a	n/a	n/a
2743540	REC_WORD	wordpools/wasnorm_wordpool.txt	LTP098	ltpFR	2	13	1	COCOON	339	n/a	0	n/a	n/a	n/a	n/a	n/a
2744428	REC_WORD	wordpools/wasnorm_wordpool.txt	LTP098	ltpFR	2	13	1	RUNNER	1218	n/a	1	n/a	n/a	n/a	n/a	n/a
2745015	REC_WORD	wordpools/wasnorm_wordpool.txt	LTP098	ltpFR	2	13	1	SWIMMER	1420	n/a	1	n/a	n/a	n/a	n/a	n/a
2745776	REC_WORD	wordpools/wasnorm_wordpool.txt	LTP098	ltpFR	2	13	1	CLIMBER	323	n/a	1	n/a	n/a	n/a	n/a	n/a
2748494	REC_WORD	wordpools/wasnorm_wordpool.txt	LTP098	ltpFR	2	13	1	TORCH	1484	n/a	0	n/a	n/a	n/a	n/a	n/a
2749861	REC_WORD	wordpools/wasnorm_wordpool.txt	LTP098	ltpFR	2	13	1	ROACH	1195	n/a	1	n/a	n/a	n/a	n/a	n/a
2752041	REC_WORD	wordpools/wasnorm_wordpool.txt	LTP098	ltpFR	2	13	1	MESSAGE	888	n/a	0	n/a	n/a	n/a	n/a	n/a
2818996	WORD	wordpools/wasnorm_wordpool.txt	LTP098	ltpFR	2	14	0	PISTON	1076	n/a	1	0	0.5869140625	0.422607421875	lower	../fonts/amplitud.ttf
2822921	WORD	wordpools/wasnorm_wordpool.txt	LTP098	ltpFR	2	14	0	CALF	222	n/a	1	0	0.5869140625	0.422607421875	lower	../fonts/amplitud.ttf
2826829	WORD	wordpools/wasnorm_wordpool.txt	LTP098	ltpFR	2	14	0	DANCER	437	n/a	1	0	0.5869140625	0.422607421875	lower	../fonts/amplitud.ttf
2830929	WORD	wordpools/wasnorm_wordpool.txt	LTP098	ltpFR	2	14	0	SHEARS	1276	n/a	0	0	0.5869140625	0.422607421875	lower	../fonts/amplitud.ttf
2835129	WORD	wordpools/wasnorm_wordpool.txt	LTP098	ltpFR	2	14	0	FAUCET	555	n/a	0	0	0.5869140625	0.422607421875	lower	../fonts/amplitud.ttf
2839253	WORD	wordpools/wasnorm_wordpool.txt	LTP098	ltpFR	2	14	0	FOUNTAIN	597	n/a	1	0	0.5869140625	0.422607421875	lower	../fonts/amplitud.ttf
2843261	WORD	wordpools/wasnorm_wordpool.txt	LTP098	ltpFR	2	14	0	THERMOMETER	1453	n/a	0	0	0.5869140625	0.422607421875	lower	../fonts/amplitud.ttf
2847111	WORD	wordpools/wasnorm_wordpool.txt	LTP098	ltpFR	2	14	0	PROTON	1132	n/a	0	0	0.5869140625	0.422607421875	lower	../fonts/amplitud.ttf
2851302	WORD	wordpools/wasnorm_wordpool.txt	LTP098	ltpFR	2	14	0	MARSH	874	n/a	n/a	0	0.5869140625	0.422607421875	lower	../fonts/amplitud.ttf
2854327	SLOW_MSG	n/a	LTP098	ltpFR	2	14	n/a	n/a	n/a	n/a	n/a	n/a	n/a	n/a	n/a	n/a
2856736	WORD	wordpools/wasnorm_wordpool.txt	LTP098	ltpFR	2	14	0	WATER	1594	n/a	0	0	0.5869140625	0.422607421875	lower	../fonts/amplitud.ttf
2860552	WORD	wordpools/wasnorm_wordpool.txt	LTP098	ltpFR	2	14	0	WALL	1582	n/a	1	0	0.5869140625	0.422607421875	lower	../fonts/amplitud.ttf
2864601	WORD	wordpools/wasnorm_wordpool.txt	LTP098	ltpFR	2	14	0	POTTERY	1116	n/a	0	0	0.5869140625	0.422607421875	lower	../fonts/amplitud.ttf
2868551	WORD	wordpools/wasnorm_wordpool.txt	LTP098	ltpFR	2	14	0	FINGERNAIL	568	n/a	0	0	0.5869140625	0.422607421875	lower	../fonts/amplitud.ttf
2872634	WORD	wordpools/wasnorm_wordpool.txt	LTP098	ltpFR	2	14	0	CELERY	266	n/a	1	0	0.5869140625	0.422607421875	lower	../fonts/amplitud.ttf
2876550	WORD	wordpools/wasnorm_wordpool.txt	LTP098	ltpFR	2	14	0	BUS	201	n/a	1	0	0.5869140625	0.422607421875	lower	../fonts/amplitud.ttf
2880392	WORD	wordpools/wasnorm_wordpool.txt	LTP098	ltpFR	2	14	0	MILK	895	n/a	1	0	0.5869140625	0.422607421875	lower	../fonts/amplitud.ttf
2886117	REC_START	n/a	LTP098	ltpFR	2	14	n/a	n/a	n/a	n/a	n/a	n/a	n/a	n/a	n/a	n/a
2886740	REC_WORD	wordpools/wasnorm_wordpool.txt	LTP098	ltpFR	2	14	0	BUS	201	n/a	1	n/a	n/a	n/a	n/a	n/a
2887335	REC_WORD	wordpools/wasnorm_wordpool.txt	LTP098	ltpFR	2	14	0	MILK	895	n/a	1	n/a	n/a	n/a	n/a	n/a
2887883	REC_WORD	wordpools/wasnorm_wordpool.txt	LTP098	ltpFR	2	14	0	PROTON	1132	n/a	0	n/a	n/a	n/a	n/a	n/a
2888623	REC_WORD	wordpools/wasnorm_wordpool.txt	LTP098	ltpFR	2	14	0	MARSH	874	n/a	n/a	n/a	n/a	n/a	n/a	n/a
2889192	REC_WORD	wordpools/wasnorm_wordpool.txt	LTP098	ltpFR	2	14	0	CELERY	266	n/a	1	n/a	n/a	n/a	n/a	n/a
2892996	REC_WORD	wordpools/wasnorm_wordpool.txt	LTP098	ltpFR	2	14	0	DANCER	437	n/a	1	n/a	n/a	n/a	n/a	n/a
2893567	REC_WORD	wordpools/wasnorm_wordpool.txt	LTP098	ltpFR	2	14	0	SHEARS	1276	n/a	0	n/a	n/a	n/a	n/a	n/a
2903901	REC_WORD	wordpools/wasnorm_wordpool.txt	LTP098	ltpFR	2	14	0	THERMOMETER	1453	n/a	0	n/a	n/a	n/a	n/a	n/a
2907423	REC_WORD	wordpools/wasnorm_wordpool.txt	LTP098	ltpFR	2	14	0	FINGERNAIL	568	n/a	0	n/a	n/a	n/a	n/a	n/a
2964794	WORD	wordpools/wasnorm_wordpool.txt	LTP098	ltpFR	2	15	-1	SHINGLE	1285	n/a	-1	1	1.0	1.0	upper	../fonts/Verdana.ttf
2968768	WORD	wordpools/wasnorm_wordpool.txt	LTP098	ltpFR	2	15	-1	POISON	1096	n/a	-1	1	1.0	1.0	upper	../fonts/Verdana.ttf
2972968	WORD	wordpools/wasnorm_wordpool.txt	LTP098	ltpFR	2	15	-1	HORNET	718	n/a	-1	1	1.0	1.0	upper	../fonts/Verdana.ttf
2977026	WORD	wordpools/wasnorm_wordpool.txt	LTP098	ltpFR	2	15	-1	SOCKET	1340	n/a	-1	1	1.0	1.0	upper	../fonts/Verdana.ttf
2981001	WORD	wordpools/wasnorm_wordpool.txt	LTP098	ltpFR	2	15	-1	LITERATURE	831	n/a	-1	1	1.0	1.0	upper	../fonts/Verdana.ttf
2985117	WORD	wordpools/wasnorm_wordpool.txt	LTP098	ltpFR	2	15	-1	PUBLICATION	1136	n/a	-1	1	1.0	1.0	upper	../fonts/Verdana.ttf
2989334	WORD	wordpools/wasnorm_wordpool.txt	LTP098	ltpFR	2	15	-1	SERGEANT	1269	n/a	-1	1	1.0	1.0	upper	../fonts/Verdana.ttf
2993350	WORD	wordpools/wasnorm_wordpool.txt	LTP098	ltpFR	2	15	-1	CHARCOAL	281	n/a	-1	1	1.0	1.0	upper	../fonts/Verdana.ttf
2997208	WORD	wordpools/wasnorm_wordpool.txt	LTP098	ltpFR	2	15	-1	COOKBOOK	373	n/a	-1	1	1.0	1.0	upper	../fonts/Verdana.ttf
3001366	WORD	wordpools/wasnorm_wordpool.txt	LTP098	ltpFR	2	15	-1	WASP	1593	n/a	-1	1	1.0	1.0	upper	../fonts/Verdana.ttf
3005241	WORD	wordpools/wasnorm_wordpool.txt	LTP098	ltpFR	2	15	-1	FUNERAL	613	n/a	-1	1	1.0	1.0	upper	../fonts/Verdana.ttf
3009340	WORD	wordpools/wasnorm_wordpool.txt	LTP098	ltpFR	2	15	-1	STABLE	1363	n/a	-1	1	1.0	1.0	upper	../fonts/Verdana.ttf
3013198	WORD	wordpools/wasnorm_wordpool.txt	LTP098	ltpFR	2	15	-1	UNICORN	1538	n/a	-1	1	1.0	1.0	upper	../fonts/Verdana.ttf
3017323	WORD	wordpools/wasnorm_wordpool.txt	LTP098	ltpFR	2	15	-1	TENT	1449	n/a	-1	1	1.0	1.0	upper	../fonts/Verdana.ttf
3021306	WORD	wordpools/wasnorm_wordpool.txt	LTP098	ltpFR	2	15	-1	RUBY	1214	n/a	-1	1	1.0	1.0	upper	../fonts/Verdana.ttf
3025231	WORD	wordpools/wasnorm_wordpool.txt	LTP098	ltpFR	2	15	-1	PUB	1135	n/a	-1	1	1.0	1.0	upper	../fonts/Verdana.ttf
3030906	REC_START	n/a	LTP098	ltpFR	2	15	n/a	n/a	n/a	n/a	n/a	n/a	n/a	n/a	n/a	n/a
3031829	REC_WORD	wordpools/wasnorm_wordpool.txt	LTP098	ltpFR	2	15	-1	RUBY	1214	n/a	-1	n/a	n/a	n/a	n/a	n/a
3032566	REC_WORD	wordpools/wasnorm_wordpool.txt	LTP098	ltpFR	2	15	-1	PUB	1135	n/a	-1	n/a	n/a	n/a	n/a	n/a
3033360	REC_WORD	wordpools/wasnorm_wordpool.txt	LTP098	ltpFR	2	15	-1	TENT	1449	n/a	-1	n/a	n/a	n/a	n/a	n/a
3034168	REC_WORD	wordpools/wasnorm_wordpool.txt	LTP098	ltpFR	2	15	-1	HORNET	718	n/a	-1	n/a	n/a	n/a	n/a	n/a
3034762	REC_WORD	wordpools/wasnorm_wordpool.txt	LTP098	ltpFR	2	15	-1	SOCKET	1340	n/a	-1	n/a	n/a	n/a	n/a	n/a
3038010	REC_WORD	wordpools/wasnorm_wordpool.txt	LTP098	ltpFR	2	15	-1	SERGEANT	1269	n/a	-1	n/a	n/a	n/a	n/a	n/a
3041118	REC_WORD	wordpools/wasnorm_wordpool.txt	LTP098	ltpFR	2	15	-1	WASP	1593	n/a	-1	n/a	n/a	n/a	n/a	n/a
3068485	REC_WORD	wordpools/wasnorm_wordpool.txt	LTP098	ltpFR	2	15	-1	LITERATURE	831	n/a	-1	n/a	n/a	n/a	n/a	n/a
3068968	REC_WORD	wordpools/wasnorm_wordpool.txt	LTP098	ltpFR	2	15	-1	PUBLICATION	1136	n/a	-1	n/a	n/a	n/a	n/a	n/a
3077944	REC_WORD	wordpools/wasnorm_wordpool.txt	LTP098	ltpFR	2	15	-1	FUNERAL	613	n/a	-1	n/a	n/a	n/a	n/a	n/a
3112666	WORD	wordpools/wasnorm_wordpool.txt	LTP098	ltpFR	2	16	-1	INVENTOR	743	n/a	-1	1	1.0	1.0	upper	../fonts/Verdana.ttf
3116717	WORD	wordpools/wasnorm_wordpool.txt	LTP098	ltpFR	2	16	-1	PRISON	1127	n/a	-1	1	1.0	1.0	upper	../fonts/Verdana.ttf
3120790	WORD	wordpools/wasnorm_wordpool.txt	LTP098	ltpFR	2	16	-1	TONGUE	1479	n/a	-1	1	1.0	1.0	upper	../fonts/Verdana.ttf
3124758	WORD	wordpools/wasnorm_wordpool.txt	LTP098	ltpFR	2	16	-1	PLAQUE	1084	n/a	-1	1	1.0	1.0	upper	../fonts/Verdana.ttf
3128598	WORD	wordpools/wasnorm_wordpool.txt	LTP098	ltpFR	2	16	-1	NURSE	963	n/a	-1	1	1.0	1.0	upper	../fonts/Verdana.ttf
3132806	WORD	wordpools/wasnorm_wordpool.txt	LTP098	ltpFR	2	16	-1	CELLAR	267	n/a	-1	1	1.0	1.0	upper	../fonts/Verdana.ttf
3136689	WORD	wordpools/wasnorm_wordpool.txt	LTP098	ltpFR	2	16	-1	BASEBALL	93	n/a	-1	1	1.0	1.0	upper	../fonts/Verdana.ttf
3140756	WORD	wordpools/wasnorm_wordpool.txt	LTP098	ltpFR	2	16	-1	TEAM	1441	n/a	-1	1	1.0	1.0	upper	../fonts/Verdana.ttf
3144655	WORD	wordpools/wasnorm_wordpool.txt	LTP098	ltpFR	2	16	-1	DOCTOR	478	n/a	-1	1	1.0	1.0	upper	../fonts/Verdana.ttf
3148813	WORD	wordpools/wasnorm_wordpool.txt	LTP098	ltpFR	2	16	-1	GHETTO	633	n/a	-1	1	1.0	1.0	upper	../fonts/Verdana.ttf
3152706	WORD	wordpools/wasnorm_wordpool.txt	LTP098	ltpFR	2	16	-1	HEADBAND	696	n/a	-1	1	1.0	1.0	upper	../fonts/Verdana.ttf
3156554	WORD	wordpools/wasnorm_wordpool.txt	LTP098	ltpFR	2	16	-1	CRUTCH	417	n/a	-1	1	1.0	1.0	upper	../fonts/Verdana.ttf
3160421	WORD	wordpools/wasnorm_wordpool.txt	LTP098	ltpFR	2	16	-1	BALLERINA	74	n/a	-1	1	1.0	1.0	upper	../fonts/Verdana.ttf
3164512	WORD	wordpools/wasnorm_wordpool.txt	LTP098	ltpFR	2	16	-1	DRYER	503	n/a	-1	1	1.0	1.0	upper	../fonts/Verdana.ttf
3168503	WORD	wordpools/wasnorm_wordpool.txt	LTP098	ltpFR	2	16	-1	CAB	209	n/a	-1	1	1.0	1.0	upper	../fonts/Verdana.ttf
3172636	WORD	wordpools/wasnorm_wordpool.txt	LTP098	ltpFR	2	16	-1	PEDAL	1037	n/a	-1	1	1.0	1.0	upper	../fonts/Verdana.ttf
3178503	REC_START	n/a	LTP098	ltpFR	2	16	n/a	n/a	n/a	n/a	n/a	n/a	n/a	n/a	n/a	n/a
3178691	REC_WORD	wordpools/wasnorm_wordpool.txt	LTP098	ltpFR	2	16	-1	PEDAL	1037	n/a	-1	n/a	n/a	n/a	n/a	n/a
3180294	REC_WORD	wordpools/wasnorm_wordpool.txt	LTP098	ltpFR	2	16	-1	GHETTO	633	n/a	-1	n/a	n/a	n/a	n/a	n/a
3183417	REC_WORD	wordpools/wasnorm_wordpool.txt	LTP098	ltpFR	2	16	-1	NURSE	963	n/a	-1	n/a	n/a	n/a	n/a	n/a
3185093	REC_WORD	wordpools/wasnorm_wordpool.txt	LTP098	ltpFR	2	16	-1	PLAQUE	1084	n/a	-1	n/a	n/a	n/a	n/a	n/a
3187103	REC_WORD	wordpools/wasnorm_wordpool.txt	LTP098	ltpFR	2	16	-1	BASEBALL	93	n/a	-1	n/a	n/a	n/a	n/a	n/a
3187896	REC_WORD	wordpools/wasnorm_wordpool.txt	LTP098	ltpFR	2	16	-1	TEAM	1441	n/a	-1	n/a	n/a	n/a	n/a	n/a
3188745	REC_WORD	wordpools/wasnorm_wordpool.txt	LTP098	ltpFR	2	16	-1	PRISON	1127	n/a	-1	n/a	n/a	n/a	n/a	n/a
3191084	REC_WORD	wordpools/wasnorm_wordpool.txt	LTP098	ltpFR	2	16	-1	TONGUE	1479	n/a	-1	n/a	n/a	n/a	n/a	n/a
3204244	REC_WORD	wordpools/wasnorm_wordpool.txt	LTP098	ltpFR	2	16	-1	GHETTO	633	n/a	-1	n/a	n/a	n/a	n/a	n/a
3204798	REC_WORD	wordpools/wasnorm_wordpool.txt	LTP098	ltpFR	2	16	-1	HEADBAND	696	n/a	-1	n/a	n/a	n/a	n/a	n/a
3283620	REC_START	n/a	LTP098	ltpFR	2	n/a	n/a	n/a	n/a	n/a	n/a	n/a	n/a	n/a	n/a	n/a
3284772	FFR_REC_WORD	wordpools/wasnorm_wordpool.txt	LTP098	ltpFR	2	n/a	-1	PLAQUE	1084	n/a	-1	n/a	n/a	n/a	n/a	n/a
3285565	FFR_REC_WORD	wordpools/wasnorm_wordpool.txt	LTP098	ltpFR	2	n/a	-1	NURSE	963	n/a	-1	n/a	n/a	n/a	n/a	n/a
3286438	FFR_REC_WORD	wordpools/wasnorm_wordpool.txt	LTP098	ltpFR	2	n/a	-1	GHETTO	633	n/a	-1	n/a	n/a	n/a	n/a	n/a
3287267	FFR_REC_WORD	wordpools/wasnorm_wordpool.txt	LTP098	ltpFR	2	n/a	-1	BASEBALL	93	n/a	-1	n/a	n/a	n/a	n/a	n/a
3288164	FFR_REC_WORD	wordpools/wasnorm_wordpool.txt	LTP098	ltpFR	2	n/a	-1	TEAM	1441	n/a	-1	n/a	n/a	n/a	n/a	n/a
3289157	FFR_REC_WORD	wordpools/wasnorm_wordpool.txt	LTP098	ltpFR	2	n/a	-1	DOCTOR	478	n/a	-1	n/a	n/a	n/a	n/a	n/a
3290848	FFR_REC_WORD	wordpools/wasnorm_wordpool.txt	LTP098	ltpFR	2	n/a	-1	MINER	896	n/a	-1	n/a	n/a	n/a	n/a	n/a
3293378	FFR_REC_WORD	wordpools/wasnorm_wordpool.txt	LTP098	ltpFR	2	n/a	-1	PUB	1135	n/a	-1	n/a	n/a	n/a	n/a	n/a
3299239	FFR_REC_WORD	wordpools/wasnorm_wordpool.txt	LTP098	ltpFR	2	n/a	1	RUNNER	1218	n/a	1	n/a	n/a	n/a	n/a	n/a
3300177	FFR_REC_WORD	wordpools/wasnorm_wordpool.txt	LTP098	ltpFR	2	n/a	0	DANCER	437	n/a	1	n/a	n/a	n/a	n/a	n/a
3300836	FFR_REC_WORD	wordpools/wasnorm_wordpool.txt	LTP098	ltpFR	2	n/a	-1	BALLERINA	74	n/a	-1	n/a	n/a	n/a	n/a	n/a
3303071	FFR_REC_WORD	wordpools/wasnorm_wordpool.txt	LTP098	ltpFR	2	n/a	1	SWIMMER	1420	n/a	1	n/a	n/a	n/a	n/a	n/a
3305495	FFR_REC_WORD	wordpools/wasnorm_wordpool.txt	LTP098	ltpFR	2	n/a	1	TORCH	1484	n/a	0	n/a	n/a	n/a	n/a	n/a
3306348	FFR_REC_WORD	wordpools/wasnorm_wordpool.txt	LTP098	ltpFR	2	n/a	1	MESSAGE	888	n/a	0	n/a	n/a	n/a	n/a	n/a
3309187	FFR_REC_WORD	wordpools/wasnorm_wordpool.txt	LTP098	ltpFR	2	n/a	-1	COLUMN	350	n/a	-1	n/a	n/a	n/a	n/a	n/a
3310454	FFR_REC_WORD	wordpools/wasnorm_wordpool.txt	LTP098	ltpFR	2	n/a	-1	DINER	467	n/a	-1	n/a	n/a	n/a	n/a	n/a
3313796	FFR_REC_WORD	wordpools/wasnorm_wordpool.txt	LTP098	ltpFR	2	n/a	-1	SAUCER	1237	n/a	-1	n/a	n/a	n/a	n/a	n/a
3315517	FFR_REC_WORD	wordpools/wasnorm_wordpool.txt	LTP098	ltpFR	2	n/a	-1	AUTOMOBILE	62	n/a	-1	n/a	n/a	n/a	n/a	n/a
3323823	FFR_REC_WORD	wordpools/wasnorm_wordpool.txt	LTP098	ltpFR	2	n/a	-1	WASP	1593	n/a	-1	n/a	n/a	n/a	n/a	n/a
3324432	FFR_REC_WORD	wordpools/wasnorm_wordpool.txt	LTP098	ltpFR	2	n/a	-1	SOCKET	1340	n/a	-1	n/a	n/a	n/a	n/a	n/a
3325440	FFR_REC_WORD	wordpools/wasnorm_wordpool.txt	LTP098	ltpFR	2	n/a	-1	HORNET	718	n/a	-1	n/a	n/a	n/a	n/a	n/a
3326846	FFR_REC_WORD	wordpools/wasnorm_wordpool.txt	LTP098	ltpFR	2	n/a	-1	POISON	1096	n/a	-1	n/a	n/a	n/a	n/a	n/a
3327555	FFR_REC_WORD	wordpools/wasnorm_wordpool.txt	LTP098	ltpFR	2	n/a	-1	PRISON	1127	n/a	-1	n/a	n/a	n/a	n/a	n/a
3335552	FFR_REC_WORD	wordpools/wasnorm_wordpool.txt	LTP098	ltpFR	2	n/a	0	FINGERNAIL	568	n/a	0	n/a	n/a	n/a	n/a	n/a
3337003	FFR_REC_WORD	wordpools/wasnorm_wordpool.txt	LTP098	ltpFR	2	n/a	0	BELLY	119	n/a	0	n/a	n/a	n/a	n/a	n/a
3337684	FFR_REC_WORD	wordpools/wasnorm_wordpool.txt	LTP098	ltpFR	2	n/a	0	LIVER	833	n/a	0	n/a	n/a	n/a	n/a	n/a
3342561	FFR_REC_WORD	wordpools/wasnorm_wordpool.txt	LTP098	ltpFR	2	n/a	0	FOREHEAD	592	n/a	0	n/a	n/a	n/a	n/a	n/a
3354963	FFR_REC_WORD	wordpools/wasnorm_wordpool.txt	LTP098	ltpFR	2	n/a	0	WOLF	1619	n/a	1	n/a	n/a	n/a	n/a	n/a
3357831	FFR_REC_WORD	wordpools/wasnorm_wordpool.txt	LTP098	ltpFR	2	n/a	-1	BULL	193	n/a	-1	n/a	n/a	n/a	n/a	n/a
3358455	FFR_REC_WORD	wordpools/wasnorm_wordpool.txt	LTP098	ltpFR	2	n/a	-1	MOOSE	915	n/a	-1	n/a	n/a	n/a	n/a	n/a
3361044	FFR_REC_WORD	wordpools/wasnorm_wordpool.txt	LTP098	ltpFR	2	n/a	0	CALF	222	n/a	1	n/a	n/a	n/a	n/a	n/a
3364202	FFR_REC_WORD	wordpools/wasnorm_wordpool.txt	LTP098	ltpFR	2	n/a	-1	HAM	678	n/a	-1	n/a	n/a	n/a	n/a	n/a
3372014	FFR_REC_WORD	wordpools/wasnorm_wordpool.txt	LTP098	ltpFR	2	n/a	-1	PEDAL	1037	n/a	-1	n/a	n/a	n/a	n/a	n/a
3396728	FFR_REC_WORD	wordpools/wasnorm_wordpool.txt	LTP098	ltpFR	2	n/a	-1	FUNERAL	613	n/a	-1	n/a	n/a	n/a	n/a	n/a
3402190	FFR_REC_WORD	wordpools/wasnorm_wordpool.txt	LTP098	ltpFR	2	n/a	-1	SERGEANT	1269	n/a	-1	n/a	n/a	n/a	n/a	n/a
3404974	FFR_REC_WORD	wordpools/wasnorm_wordpool.txt	LTP098	ltpFR	2	n/a	1	MAILMAN	858	n/a	1	n/a	n/a	n/a	n/a	n/a
3483735	FFR_REC_WORD	wordpools/wasnorm_wordpool.txt	LTP098	ltpFR	2	n/a	1	MARINE	869	n/a	0	n/a	n/a	n/a	n/a	n/a
3559323	FFR_REC_WORD	wordpools/wasnorm_wordpool.txt	LTP098	ltpFR	2	n/a	-1	OCEAN	970	n/a	-1	n/a	n/a	n/a	n/a	n/a
3559987	FFR_REC_WORD	wordpools/wasnorm_wordpool.txt	LTP098	ltpFR	2	n/a	-1	NOMAD	955	n/a	-1	n/a	n/a	n/a	n/a	n/a
3605563	REC_START	n/a	LTP098	ltpFR	2	1	n/a	n/a	n/a	n/a	n/a	n/a	n/a	n/a	n/a	n/a
3605595	RECOG_TARGET	n/a	LTP098	ltpFR	2	1	1	MERMAID	887	5	1	n/a	n/a	n/a	n/a	n/a
3607099	RECOG_RESP	n/a	LTP098	ltpFR	2	1	1	MERMAID	887	n/a	1	n/a	n/a	n/a	n/a	n/a
3609279	RECOG_CONF	n/a	LTP098	ltpFR	2	1	1	MERMAID	887	5	1	n/a	n/a	n/a	n/a	n/a
3610887	RECOG_TARGET	n/a	LTP098	ltpFR	2	1	1	COUCH	386	5	0	n/a	n/a	n/a	n/a	n/a
3612088	RECOG_RESP	n/a	LTP098	ltpFR	2	1	1	COUCH	386	n/a	0	n/a	n/a	n/a	n/a	n/a
3612891	RECOG_CONF	n/a	LTP098	ltpFR	2	1	1	COUCH	386	5	0	n/a	n/a	n/a	n/a	n/a
3614345	RECOG_TARGET	n/a	LTP098	ltpFR	2	1	1	HELICOPTER	701	1	0	n/a	n/a	n/a	n/a	n/a
3615351	RECOG_RESP	n/a	LTP098	ltpFR	2	1	1	HELICOPTER	701	n/a	0	n/a	n/a	n/a	n/a	n/a
3616064	RECOG_CONF	n/a	LTP098	ltpFR	2	1	1	HELICOPTER	701	1	0	n/a	n/a	n/a	n/a	n/a
3617428	RECOG_LURE	n/a	LTP098	ltpFR	2	1	n/a	XEROX	1628	5	n/a	n/a	n/a	n/a	n/a	n/a
3618638	RECOG_RESP	n/a	LTP098	ltpFR	2	1	n/a	XEROX	1628	n/a	n/a	n/a	n/a	n/a	n/a	n/a
3619337	RECOG_CONF	n/a	LTP098	ltpFR	2	1	n/a	XEROX	1628	5	n/a	n/a	n/a	n/a	n/a	n/a
3620737	RECOG_TARGET	n/a	LTP098	ltpFR	2	1	1	DIME	466	5	0	n/a	n/a	n/a	n/a	n/a
3621551	RECOG_RESP	n/a	LTP098	ltpFR	2	1	1	DIME	466	n/a	0	n/a	n/a	n/a	n/a	n/a
3622250	RECOG_CONF	n/a	LTP098	ltpFR	2	1	1	DIME	466	5	0	n/a	n/a	n/a	n/a	n/a
3623569	RECOG_TARGET	n/a	LTP098	ltpFR	2	1	-1	CHOCOLATE	306	1	-1	n/a	n/a	n/a	n/a	n/a
3624854	RECOG_RESP	n/a	LTP098	ltpFR	2	1	-1	CHOCOLATE	306	n/a	-1	n/a	n/a	n/a	n/a	n/a
3625542	RECOG_CONF	n/a	LTP098	ltpFR	2	1	-1	CHOCOLATE	306	1	-1	n/a	n/a	n/a	n/a	n/a
3626869	RECOG_TARGET	n/a	LTP098	ltpFR	2	1	0	MILK	895	5	1	n/a	n/a	n/a	n/a	n/a
3627872	RECOG_RESP	n/a	LTP098	ltpFR	2	1	0	MILK	895	n/a	1	n/a	n/a	n/a	n/a	n/a
3628585	RECOG_CONF	n/a	LTP098	ltpFR	2	1	0	MILK	895	5	1	n/a	n/a	n/a	n/a	n/a
3629893	RECOG_TARGET	n/a	LTP098	ltpFR	2	1	1	JUGGLER	763	5	1	n/a	n/a	n/a	n/a	n/a
3630930	RECOG_RESP	n/a	LTP098	ltpFR	2	1	1	JUGGLER	763	n/a	1	n/a	n/a	n/a	n/a	n/a
3631579	RECOG_CONF	n/a	LTP098	ltpFR	2	1	1	JUGGLER	763	5	1	n/a	n/a	n/a	n/a	n/a
3633010	RECOG_TARGET	n/a	LTP098	ltpFR	2	1	0	KIWI	781	5	0	n/a	n/a	n/a	n/a	n/a
3633719	RECOG_RESP	n/a	LTP098	ltpFR	2	1	0	KIWI	781	n/a	0	n/a	n/a	n/a	n/a	n/a
3634432	RECOG_CONF	n/a	LTP098	ltpFR	2	1	0	KIWI	781	5	0	n/a	n/a	n/a	n/a	n/a
3635776	RECOG_TARGET	n/a	LTP098	ltpFR	2	1	-1	TONGUE	1479	5	-1	n/a	n/a	n/a	n/a	n/a
3636438	RECOG_RESP	n/a	LTP098	ltpFR	2	1	-1	TONGUE	1479	n/a	-1	n/a	n/a	n/a	n/a	n/a
3637226	RECOG_CONF	n/a	LTP098	ltpFR	2	1	-1	TONGUE	1479	5	-1	n/a	n/a	n/a	n/a	n/a
3638559	RECOG_TARGET	n/a	LTP098	ltpFR	2	1	0	ASH	44	5	0	n/a	n/a	n/a	n/a	n/a
3639376	RECOG_RESP	n/a	LTP098	ltpFR	2	1	0	ASH	44	n/a	0	n/a	n/a	n/a	n/a	n/a
3640010	RECOG_CONF	n/a	LTP098	ltpFR	2	1	0	ASH	44	5	0	n/a	n/a	n/a	n/a	n/a
3641576	RECOG_TARGET	n/a	LTP098	ltpFR	2	1	-1	BALLERINA	74	5	-1	n/a	n/a	n/a	n/a	n/a
3642200	RECOG_RESP	n/a	LTP098	ltpFR	2	1	-1	BALLERINA	74	n/a	-1	n/a	n/a	n/a	n/a	n/a
3642973	RECOG_CONF	n/a	LTP098	ltpFR	2	1	-1	BALLERINA	74	5	-1	n/a	n/a	n/a	n/a	n/a
3644401	RECOG_TARGET	n/a	LTP098	ltpFR	2	1	1	GIFT	635	5	0	n/a	n/a	n/a	n/a	n/a
3645138	RECOG_RESP	n/a	LTP098	ltpFR	2	1	1	GIFT	635	n/a	0	n/a	n/a	n/a	n/a	n/a
3645856	RECOG_CONF	n/a	LTP098	ltpFR	2	1	1	GIFT	635	5	0	n/a	n/a	n/a	n/a	n/a
3647284	RECOG_LURE	n/a	LTP098	ltpFR	2	1	n/a	LOOP	844	1	n/a	n/a	n/a	n/a	n/a	n/a
3648101	RECOG_RESP	n/a	LTP098	ltpFR	2	1	n/a	LOOP	844	n/a	n/a	n/a	n/a	n/a	n/a	n/a
3648919	RECOG_CONF	n/a	LTP098	ltpFR	2	1	n/a	LOOP	844	1	n/a	n/a	n/a	n/a	n/a	n/a
3650292	RECOG_TARGET	n/a	LTP098	ltpFR	2	1	1	DINOSAUR	469	5	1	n/a	n/a	n/a	n/a	n/a
3651099	RECOG_RESP	n/a	LTP098	ltpFR	2	1	1	DINOSAUR	469	n/a	1	n/a	n/a	n/a	n/a	n/a
3651823	RECOG_CONF	n/a	LTP098	ltpFR	2	1	1	DINOSAUR	469	5	1	n/a	n/a	n/a	n/a	n/a
3653225	RECOG_TARGET	n/a	LTP098	ltpFR	2	1	-1	SHINGLE	1285	5	-1	n/a	n/a	n/a	n/a	n/a
3654008	RECOG_RESP	n/a	LTP098	ltpFR	2	1	-1	SHINGLE	1285	n/a	-1	n/a	n/a	n/a	n/a	n/a
3654756	RECOG_CONF	n/a	LTP098	ltpFR	2	1	-1	SHINGLE	1285	5	-1	n/a	n/a	n/a	n/a	n/a
3656117	RECOG_LURE	n/a	LTP098	ltpFR	2	1	n/a	COUNTY	389	1	n/a	n/a	n/a	n/a	n/a	n/a
3657195	RECOG_RESP	n/a	LTP098	ltpFR	2	1	n/a	COUNTY	389	n/a	n/a	n/a	n/a	n/a	n/a	n/a
3657899	RECOG_CONF	n/a	LTP098	ltpFR	2	1	n/a	COUNTY	389	1	n/a	n/a	n/a	n/a	n/a	n/a
3659333	RECOG_TARGET	n/a	LTP098	ltpFR	2	1	0	BRACES	164	5	0	n/a	n/a	n/a	n/a	n/a
3659984	RECOG_RESP_VV	n/a	LTP098	ltpFR	2	1	0	BRACES	164	n/a	0	n/a	n/a	n/a	n/a	n/a
3660683	RECOG_CONF	n/a	LTP098	ltpFR	2	1	0	BRACES	164	5	0	n/a	n/a	n/a	n/a	n/a
3661321	RECOG_RESP	n/a	LTP098	ltpFR	2	1	0	BRACES	164	n/a	0	n/a	n/a	n/a	n/a	n/a
3662033	RECOG_TARGET	n/a	LTP098	ltpFR	2	1	0	PIPE	1073	3	0	n/a	n/a	n/a	n/a	n/a
3663756	RECOG_RESP	n/a	LTP098	ltpFR	2	1	0	PIPE	1073	n/a	0	n/a	n/a	n/a	n/a	n/a
3664763	RECOG_CONF	n/a	LTP098	ltpFR	2	1	0	PIPE	1073	3	0	n/a	n/a	n/a	n/a	n/a
3666116	RECOG_TARGET	n/a	LTP098	ltpFR	2	1	1	VESSEL	1558	1	0	n/a	n/a	n/a	n/a	n/a
3667801	RECOG_RESP	n/a	LTP098	ltpFR	2	1	1	VESSEL	1558	n/a	0	n/a	n/a	n/a	n/a	n/a
3668495	RECOG_CONF	n/a	LTP098	ltpFR	2	1	1	VESSEL	1558	1	0	n/a	n/a	n/a	n/a	n/a
3677830	REC_START	n/a	LTP098	ltpFR	2	2	n/a	n/a	n/a	n/a	n/a	n/a	n/a	n/a	n/a	n/a
3677865	RECOG_TARGET	n/a	LTP098	ltpFR	2	2	-1	HEADBAND	696	5	-1	n/a	n/a	n/a	n/a	n/a
3678823	RECOG_RESP	n/a	LTP098	ltpFR	2	2	-1	HEADBAND	696	n/a	-1	n/a	n/a	n/a	n/a	n/a
3679750	RECOG_CONF	n/a	LTP098	ltpFR	2	2	-1	HEADBAND	696	5	-1	n/a	n/a	n/a	n/a	n/a
3681156	RECOG_TARGET	n/a	LTP098	ltpFR	2	2	0	PASSAGE	1019	1	1	n/a	n/a	n/a	n/a	n/a
3682195	RECOG_RESP	n/a	LTP098	ltpFR	2	2	0	PASSAGE	1019	n/a	1	n/a	n/a	n/a	n/a	n/a
3682843	RECOG_CONF	n/a	LTP098	ltpFR	2	2	0	PASSAGE	1019	1	1	n/a	n/a	n/a	n/a	n/a
3684239	RECOG_TARGET	n/a	LTP098	ltpFR	2	2	0	DIGGER	464	1	1	n/a	n/a	n/a	n/a	n/a
3685018	RECOG_RESP	n/a	LTP098	ltpFR	2	2	0	DIGGER	464	n/a	1	n/a	n/a	n/a	n/a	n/a
3685916	RECOG_CONF	n/a	LTP098	ltpFR	2	2	0	DIGGER	464	1	1	n/a	n/a	n/a	n/a	n/a
3687222	RECOG_TARGET	n/a	LTP098	ltpFR	2	2	-1	CAB	209	1	-1	n/a	n/a	n/a	n/a	n/a
3688111	RECOG_RESP	n/a	LTP098	ltpFR	2	2	-1	CAB	209	n/a	-1	n/a	n/a	n/a	n/a	n/a
3688740	RECOG_CONF	n/a	LTP098	ltpFR	2	2	-1	CAB	209	1	-1	n/a	n/a	n/a	n/a	n/a
3690181	RECOG_TARGET	n/a	LTP098	ltpFR	2	2	1	TECHNICIAN	1443	1	1	n/a	n/a	n/a	n/a	n/a
3691194	RECOG_RESP	n/a	LTP098	ltpFR	2	2	1	TECHNICIAN	1443	n/a	1	n/a	n/a	n/a	n/a	n/a
3691833	RECOG_CONF	n/a	LTP098	ltpFR	2	2	1	TECHNICIAN	1443	1	1	n/a	n/a	n/a	n/a	n/a
3693222	RECOG_TARGET	n/a	LTP098	ltpFR	2	2	-1	PUB	1135	5	-1	n/a	n/a	n/a	n/a	n/a
3694088	RECOG_RESP	n/a	LTP098	ltpFR	2	2	-1	PUB	1135	n/a	-1	n/a	n/a	n/a	n/a	n/a
3694806	RECOG_CONF	n/a	LTP098	ltpFR	2	2	-1	PUB	1135	5	-1	n/a	n/a	n/a	n/a	n/a
3696163	RECOG_TARGET	n/a	LTP098	ltpFR	2	2	1	RABBIT	1152	1	1	n/a	n/a	n/a	n/a	n/a
3697730	RECOG_RESP	n/a	LTP098	ltpFR	2	2	1	RABBIT	1152	n/a	1	n/a	n/a	n/a	n/a	n/a
3698338	RECOG_CONF	n/a	LTP098	ltpFR	2	2	1	RABBIT	1152	1	1	n/a	n/a	n/a	n/a	n/a
3699797	RECOG_LURE	n/a	LTP098	ltpFR	2	2	n/a	EYE	545	4	n/a	n/a	n/a	n/a	n/a	n/a
3700823	RECOG_RESP	n/a	LTP098	ltpFR	2	2	n/a	EYE	545	n/a	n/a	n/a	n/a	n/a	n/a	n/a
3701461	RECOG_CONF	n/a	LTP098	ltpFR	2	2	n/a	EYE	545	4	n/a	n/a	n/a	n/a	n/a	n/a
3702821	RECOG_TARGET	n/a	LTP098	ltpFR	2	2	1	MESSAGE	888	5	0	n/a	n/a	n/a	n/a	n/a
3703760	RECOG_RESP	n/a	LTP098	ltpFR	2	2	1	MESSAGE	888	n/a	0	n/a	n/a	n/a	n/a	n/a
3704494	RECOG_CONF	n/a	LTP098	ltpFR	2	2	1	MESSAGE	888	5	0	n/a	n/a	n/a	n/a	n/a
3705838	RECOG_TARGET	n/a	LTP098	ltpFR	2	2	1	WALLET	1583	5	0	n/a	n/a	n/a	n/a	n/a
3707612	RECOG_RESP	n/a	LTP098	ltpFR	2	2	1	WALLET	1583	n/a	0	n/a	n/a	n/a	n/a	n/a
3708475	RECOG_CONF	n/a	LTP098	ltpFR	2	2	1	WALLET	1583	5	0	n/a	n/a	n/a	n/a	n/a
3709996	RECOG_LURE	n/a	LTP098	ltpFR	2	2	n/a	CROSS	413	1	n/a	n/a	n/a	n/a	n/a	n/a
3711244	RECOG_RESP	n/a	LTP098	ltpFR	2	2	n/a	CROSS	413	n/a	n/a	n/a	n/a	n/a	n/a	n/a
3711957	RECOG_CONF	n/a	LTP098	ltpFR	2	2	n/a	CROSS	413	1	n/a	n/a	n/a	n/a	n/a	n/a
3713220	RECOG_LURE	n/a	LTP098	ltpFR	2	2	n/a	FUR	615	1	n/a	n/a	n/a	n/a	n/a	n/a
3714362	RECOG_RESP	n/a	LTP098	ltpFR	2	2	n/a	FUR	615	n/a	n/a	n/a	n/a	n/a	n/a	n/a
3715010	RECOG_CONF	n/a	LTP098	ltpFR	2	2	n/a	FUR	615	1	n/a	n/a	n/a	n/a	n/a	n/a
3716345	RECOG_TARGET	n/a	LTP098	ltpFR	2	2	0	BADGE	68	5	0	n/a	n/a	n/a	n/a	n/a
3717415	RECOG_RESP	n/a	LTP098	ltpFR	2	2	0	BADGE	68	n/a	0	n/a	n/a	n/a	n/a	n/a
3718243	RECOG_CONF	n/a	LTP098	ltpFR	2	2	0	BADGE	68	5	0	n/a	n/a	n/a	n/a	n/a
3719587	RECOG_TARGET	n/a	LTP098	ltpFR	2	2	0	SILK	1307	5	n/a	n/a	n/a	n/a	n/a	n/a
3720303	RECOG_RESP	n/a	LTP098	ltpFR	2	2	0	SILK	1307	n/a	n/a	n/a	n/a	n/a	n/a	n/a
3720997	RECOG_CONF	n/a	LTP098	ltpFR	2	2	0	SILK	1307	5	n/a	n/a	n/a	n/a	n/a	n/a
3722312	RECOG_TARGET	n/a	LTP098	ltpFR	2	2	1	FUNGUS	614	5	1	n/a	n/a	n/a	n/a	n/a
3723037	RECOG_RESP	n/a	LTP098	ltpFR	2	2	1	FUNGUS	614	n/a	1	n/a	n/a	n/a	n/a	n/a
3723750	RECOG_CONF	n/a	LTP098	ltpFR	2	2	1	FUNGUS	614	5	1	n/a	n/a	n/a	n/a	n/a
3725103	RECOG_TARGET	n/a	LTP098	ltpFR	2	2	0	STRING	1394	1	0	n/a	n/a	n/a	n/a	n/a
3726085	RECOG_RESP	n/a	LTP098	ltpFR	2	2	0	STRING	1394	n/a	0	n/a	n/a	n/a	n/a	n/a
3726784	RECOG_CONF	n/a	LTP098	ltpFR	2	2	0	STRING	1394	1	0	n/a	n/a	n/a	n/a	n/a
3728111	RECOG_LURE	n/a	LTP098	ltpFR	2	2	n/a	PAW	1029	1	n/a	n/a	n/a	n/a	n/a	n/a
3730036	RECOG_RESP	n/a	LTP098	ltpFR	2	2	n/a	PAW	1029	n/a	n/a	n/a	n/a	n/a	n/a	n/a
3730695	RECOG_CONF	n/a	LTP098	ltpFR	2	2	n/a	PAW	1029	1	n/a	n/a	n/a	n/a	n/a	n/a
3732044	RECOG_LURE	n/a	LTP098	ltpFR	2	2	n/a	CONVICT	371	1	n/a	n/a	n/a	n/a	n/a	n/a
3733184	RECOG_RESP	n/a	LTP098	ltpFR	2	2	n/a	CONVICT	371	n/a	n/a	n/a	n/a	n/a	n/a	n/a
3733927	RECOG_CONF	n/a	LTP098	ltpFR	2	2	n/a	CONVICT	371	1	n/a	n/a	n/a	n/a	n/a	n/a
3735277	RECOG_TARGET	n/a	LTP098	ltpFR	2	2	1	SKIN	1318	1	1	n/a	n/a	n/a	n/a	n/a
3735903	RECOG_RESP	n/a	LTP098	ltpFR	2	2	1	SKIN	1318	n/a	1	n/a	n/a	n/a	n/a	n/a
3736541	RECOG_CONF	n/a	LTP098	ltpFR	2	2	1	SKIN	1318	1	1	n/a	n/a	n/a	n/a	n/a
3737910	RECOG_TARGET	n/a	LTP098	ltpFR	2	2	0	PELICAN	1039	4	1	n/a	n/a	n/a	n/a	n/a
3739011	RECOG_RESP	n/a	LTP098	ltpFR	2	2	0	PELICAN	1039	n/a	1	n/a	n/a	n/a	n/a	n/a
3739704	RECOG_CONF	n/a	LTP098	ltpFR	2	2	0	PELICAN	1039	4	1	n/a	n/a	n/a	n/a	n/a
3743720	REC_START	n/a	LTP098	ltpFR	2	3	n/a	n/a	n/a	n/a	n/a	n/a	n/a	n/a	n/a	n/a
3743753	RECOG_TARGET	n/a	LTP098	ltpFR	2	3	1	CLIMBER	323	1	1	n/a	n/a	n/a	n/a	n/a
3744857	RECOG_RESP	n/a	LTP098	ltpFR	2	3	1	CLIMBER	323	n/a	1	n/a	n/a	n/a	n/a	n/a
3745601	RECOG_CONF	n/a	LTP098	ltpFR	2	3	1	CLIMBER	323	1	1	n/a	n/a	n/a	n/a	n/a
3746918	RECOG_LURE	n/a	LTP098	ltpFR	2	3	n/a	LAGOON	795	1	n/a	n/a	n/a	n/a	n/a	n/a
3748833	RECOG_RESP	n/a	LTP098	ltpFR	2	3	n/a	LAGOON	795	n/a	n/a	n/a	n/a	n/a	n/a	n/a
3749542	RECOG_CONF	n/a	LTP098	ltpFR	2	3	n/a	LAGOON	795	1	n/a	n/a	n/a	n/a	n/a	n/a
3751026	RECOG_TARGET	n/a	LTP098	ltpFR	2	3	0	OMELET	976	5	0	n/a	n/a	n/a	n/a	n/a
3751806	RECOG_RESP	n/a	LTP098	ltpFR	2	3	0	OMELET	976	n/a	0	n/a	n/a	n/a	n/a	n/a
3752515	RECOG_CONF	n/a	LTP098	ltpFR	2	3	0	OMELET	976	5	0	n/a	n/a	n/a	n/a	n/a
3753760	RECOG_TARGET	n/a	LTP098	ltpFR	2	3	0	RELATIVE	1182	4	1	n/a	n/a	n/a	n/a	n/a
3754640	RECOG_RESP	n/a	LTP098	ltpFR	2	3	0	RELATIVE	1182	n/a	1	n/a	n/a	n/a	n/a	n/a
3755388	RECOG_CONF	n/a	LTP098	ltpFR	2	3	0	RELATIVE	1182	4	1	n/a	n/a	n/a	n/a	n/a
3756692	RECOG_TARGET	n/a	LTP098	ltpFR	2	3	0	CALF	222	5	1	n/a	n/a	n/a	n/a	n/a
3757429	RECOG_RESP	n/a	LTP098	ltpFR	2	3	0	CALF	222	n/a	1	n/a	n/a	n/a	n/a	n/a
3758122	RECOG_CONF	n/a	LTP098	ltpFR	2	3	0	CALF	222	5	1	n/a	n/a	n/a	n/a	n/a
3759517	RECOG_TARGET	n/a	LTP098	ltpFR	2	3	-1	SERGEANT	1269	5	-1	n/a	n/a	n/a	n/a	n/a
3760192	RECOG_RESP	n/a	LTP098	ltpFR	2	3	-1	SERGEANT	1269	n/a	-1	n/a	n/a	n/a	n/a	n/a
3760906	RECOG_CONF	n/a	LTP098	ltpFR	2	3	-1	SERGEANT	1269	5	-1	n/a	n/a	n/a	n/a	n/a
3762250	RECOG_TARGET	n/a	LTP098	ltpFR	2	3	0	SUIT	1402	1	1	n/a	n/a	n/a	n/a	n/a
3763874	RECOG_RESP	n/a	LTP098	ltpFR	2	3	0	SUIT	1402	n/a	1	n/a	n/a	n/a	n/a	n/a
3764607	RECOG_CONF	n/a	LTP098	ltpFR	2	3	0	SUIT	1402	1	1	n/a	n/a	n/a	n/a	n/a
3766000	RECOG_TARGET	n/a	LTP098	ltpFR	2	3	-1	PERISCOPE	1050	5	-1	n/a	n/a	n/a	n/a	n/a
3766927	RECOG_RESP	n/a	LTP098	ltpFR	2	3	-1	PERISCOPE	1050	n/a	-1	n/a	n/a	n/a	n/a	n/a
3767601	RECOG_CONF	n/a	LTP098	ltpFR	2	3	-1	PERISCOPE	1050	5	-1	n/a	n/a	n/a	n/a	n/a
3768975	RECOG_TARGET	n/a	LTP098	ltpFR	2	3	1	TIGER	1467	1	1	n/a	n/a	n/a	n/a	n/a
3770225	RECOG_RESP	n/a	LTP098	ltpFR	2	3	1	TIGER	1467	n/a	1	n/a	n/a	n/a	n/a	n/a
3770933	RECOG_CONF	n/a	LTP098	ltpFR	2	3	1	TIGER	1467	1	1	n/a	n/a	n/a	n/a	n/a
3772241	RECOG_TARGET	n/a	LTP098	ltpFR	2	3	0	STAPLER	1372	1	0	n/a	n/a	n/a	n/a	n/a
3773313	RECOG_RESP	n/a	LTP098	ltpFR	2	3	0	STAPLER	1372	n/a	0	n/a	n/a	n/a	n/a	n/a
3774006	RECOG_CONF	n/a	LTP098	ltpFR	2	3	0	STAPLER	1372	1	0	n/a	n/a	n/a	n/a	n/a
3775391	RECOG_TARGET	n/a	LTP098	ltpFR	2	3	-1	PLAQUE	1084	5	-1	n/a	n/a	n/a	n/a	n/a
3776086	RECOG_RESP	n/a	LTP098	ltpFR	2	3	-1	PLAQUE	1084	n/a	-1	n/a	n/a	n/a	n/a	n/a
3776760	RECOG_CONF	n/a	LTP098	ltpFR	2	3	-1	PLAQUE	1084	5	-1	n/a	n/a	n/a	n/a	n/a
3778066	RECOG_LURE	n/a	LTP098	ltpFR	2	3	n/a	SOCK	1339	3	n/a	n/a	n/a	n/a	n/a	n/a
3779079	RECOG_RESP	n/a	LTP098	ltpFR	2	3	n/a	SOCK	1339	n/a	n/a	n/a	n/a	n/a	n/a	n/a
3780471	RECOG_CONF	n/a	LTP098	ltpFR	2	3	n/a	SOCK	1339	3	n/a	n/a	n/a	n/a	n/a	n/a
3781882	RECOG_LURE	n/a	LTP098	ltpFR	2	3	n/a	POTATO	1115	1	n/a	n/a	n/a	n/a	n/a	n/a
3783305	RECOG_RESP	n/a	LTP098	ltpFR	2	3	n/a	POTATO	1115	n/a	n/a	n/a	n/a	n/a	n/a	n/a
3784602	RECOG_CONF	n/a	LTP098	ltpFR	2	3	n/a	POTATO	1115	1	n/a	n/a	n/a	n/a	n/a	n/a
3785882	RECOG_TARGET	n/a	LTP098	ltpFR	2	3	1	STETHOSCOPE	1379	1	0	n/a	n/a	n/a	n/a	n/a
3788029	RECOG_RESP	n/a	LTP098	ltpFR	2	3	1	STETHOSCOPE	1379	n/a	0	n/a	n/a	n/a	n/a	n/a
3788792	RECOG_CONF	n/a	LTP098	ltpFR	2	3	1	STETHOSCOPE	1379	1	0	n/a	n/a	n/a	n/a	n/a
3790256	RECOG_TARGET	n/a	LTP098	ltpFR	2	3	-1	AUTOMOBILE	62	5	-1	n/a	n/a	n/a	n/a	n/a
3791077	RECOG_RESP	n/a	LTP098	ltpFR	2	3	-1	AUTOMOBILE	62	n/a	-1	n/a	n/a	n/a	n/a	n/a
3791776	RECOG_CONF	n/a	LTP098	ltpFR	2	3	-1	AUTOMOBILE	62	5	-1	n/a	n/a	n/a	n/a	n/a
3793048	RECOG_TARGET	n/a	LTP098	ltpFR	2	3	1	KITTEN	780	5	1	n/a	n/a	n/a	n/a	n/a
3793856	RECOG_RESP	n/a	LTP098	ltpFR	2	3	1	KITTEN	780	n/a	1	n/a	n/a	n/a	n/a	n/a
3794589	RECOG_CONF	n/a	LTP098	ltpFR	2	3	1	KITTEN	780	5	1	n/a	n/a	n/a	n/a	n/a
3795914	RECOG_LURE	n/a	LTP098	ltpFR	2	3	n/a	DOUGH	489	1	n/a	n/a	n/a	n/a	n/a	n/a
3798156	RECOG_RESP	n/a	LTP098	ltpFR	2	3	n/a	DOUGH	489	n/a	n/a	n/a	n/a	n/a	n/a	n/a
3798850	RECOG_CONF	n/a	LTP098	ltpFR	2	3	n/a	DOUGH	489	1	n/a	n/a	n/a	n/a	n/a	n/a
3800222	RECOG_TARGET	n/a	LTP098	ltpFR	2	3	-1	AMBULANCE	19	3	-1	n/a	n/a	n/a	n/a	n/a
3801349	RECOG_RESP	n/a	LTP098	ltpFR	2	3	-1	AMBULANCE	19	n/a	-1	n/a	n/a	n/a	n/a	n/a
3802501	RECOG_CONF	n/a	LTP098	ltpFR	2	3	-1	AMBULANCE	19	3	-1	n/a	n/a	n/a	n/a	n/a
3803855	RECOG_LURE	n/a	LTP098	ltpFR	2	3	n/a	ANGEL	22	5	n/a	n/a	n/a	n/a	n/a	n/a
3804776	RECOG_RESP	n/a	LTP098	ltpFR	2	3	n/a	ANGEL	22	n/a	n/a	n/a	n/a	n/a	n/a	n/a
3805484	RECOG_CONF	n/a	LTP098	ltpFR	2	3	n/a	ANGEL	22	5	n/a	n/a	n/a	n/a	n/a	n/a
3806813	RECOG_TARGET	n/a	LTP098	ltpFR	2	3	-1	ANTELOPE	27	1	-1	n/a	n/a	n/a	n/a	n/a
3807874	RECOG_RESP	n/a	LTP098	ltpFR	2	3	-1	ANTELOPE	27	n/a	-1	n/a	n/a	n/a	n/a	n/a
3808498	RECOG_CONF	n/a	LTP098	ltpFR	2	3	-1	ANTELOPE	27	1	-1	n/a	n/a	n/a	n/a	n/a
3816654	REC_START	n/a	LTP098	ltpFR	2	4	n/a	n/a	n/a	n/a	n/a	n/a	n/a	n/a	n/a	n/a
3816688	RECOG_LURE	n/a	LTP098	ltpFR	2	4	n/a	HEN	703	3	n/a	n/a	n/a	n/a	n/a	n/a
3817482	RECOG_RESP	n/a	LTP098	ltpFR	2	4	n/a	HEN	703	n/a	n/a	n/a	n/a	n/a	n/a	n/a
3818315	RECOG_CONF	n/a	LTP098	ltpFR	2	4	n/a	HEN	703	3	n/a	n/a	n/a	n/a	n/a	n/a
3819662	RECOG_TARGET	n/a	LTP098	ltpFR	2	4	1	SWIMMER	1420	5	1	n/a	n/a	n/a	n/a	n/a
3820515	RECOG_RESP	n/a	LTP098	ltpFR	2	4	1	SWIMMER	1420	n/a	1	n/a	n/a	n/a	n/a	n/a
3821198	RECOG_CONF	n/a	LTP098	ltpFR	2	4	1	SWIMMER	1420	5	1	n/a	n/a	n/a	n/a	n/a
3822554	RECOG_TARGET	n/a	LTP098	ltpFR	2	4	1	GUARD	667	5	1	n/a	n/a	n/a	n/a	n/a
3823334	RECOG_RESP	n/a	LTP098	ltpFR	2	4	1	GUARD	667	n/a	1	n/a	n/a	n/a	n/a	n/a
3824052	RECOG_CONF	n/a	LTP098	ltpFR	2	4	1	GUARD	667	5	1	n/a	n/a	n/a	n/a	n/a
3825429	RECOG_TARGET	n/a	LTP098	ltpFR	2	4	1	FAMILY	550	1	1	n/a	n/a	n/a	n/a	n/a
3826721	RECOG_RESP	n/a	LTP098	ltpFR	2	4	1	FAMILY	550	n/a	1	n/a	n/a	n/a	n/a	n/a
3827424	RECOG_CONF	n/a	LTP098	ltpFR	2	4	1	FAMILY	550	1	1	n/a	n/a	n/a	n/a	n/a
3828820	RECOG_TARGET	n/a	LTP098	ltpFR	2	4	-1	MUG	930	1	-1	n/a	n/a	n/a	n/a	n/a
3830313	RECOG_RESP	n/a	LTP098	ltpFR	2	4	-1	MUG	930	n/a	-1	n/a	n/a	n/a	n/a	n/a
3830946	RECOG_CONF	n/a	LTP098	ltpFR	2	4	-1	MUG	930	1	-1	n/a	n/a	n/a	n/a	n/a
3832295	RECOG_LURE	n/a	LTP098	ltpFR	2	4	n/a	ENEMY	534	1	n/a	n/a	n/a	n/a	n/a	n/a
3833276	RECOG_RESP	n/a	LTP098	ltpFR	2	4	n/a	ENEMY	534	n/a	n/a	n/a	n/a	n/a	n/a	n/a
3833950	RECOG_CONF	n/a	LTP098	ltpFR	2	4	n/a	ENEMY	534	1	n/a	n/a	n/a	n/a	n/a	n/a
3835336	RECOG_TARGET	n/a	LTP098	ltpFR	2	4	0	MOUSE	925	1	0	n/a	n/a	n/a	n/a	n/a
3836414	RECOG_RESP	n/a	LTP098	ltpFR	2	4	0	MOUSE	925	n/a	0	n/a	n/a	n/a	n/a	n/a
3836983	RECOG_CONF	n/a	LTP098	ltpFR	2	4	0	MOUSE	925	1	0	n/a	n/a	n/a	n/a	n/a
3838436	RECOG_LURE	n/a	LTP098	ltpFR	2	4	n/a	UNIVERSITY	1541	5	n/a	n/a	n/a	n/a	n/a	n/a
3839332	RECOG_RESP	n/a	LTP098	ltpFR	2	4	n/a	UNIVERSITY	1541	n/a	n/a	n/a	n/a	n/a	n/a	n/a
3840016	RECOG_CONF	n/a	LTP098	ltpFR	2	4	n/a	UNIVERSITY	1541	5	n/a	n/a	n/a	n/a	n/a	n/a
3841286	RECOG_TARGET	n/a	LTP098	ltpFR	2	4	0	VINE	1568	3	1	n/a	n/a	n/a	n/a	n/a
3842046	RECOG_RESP	n/a	LTP098	ltpFR	2	4	0	VINE	1568	n/a	1	n/a	n/a	n/a	n/a	n/a
3842680	RECOG_CONF	n/a	LTP098	ltpFR	2	4	0	VINE	1568	3	1	n/a	n/a	n/a	n/a	n/a
3844102	RECOG_TARGET	n/a	LTP098	ltpFR	2	4	0	SCRIBBLE	1256	2	0	n/a	n/a	n/a	n/a	n/a
3845069	RECOG_RESP	n/a	LTP098	ltpFR	2	4	0	SCRIBBLE	1256	n/a	0	n/a	n/a	n/a	n/a	n/a
3845733	RECOG_CONF	n/a	LTP098	ltpFR	2	4	0	SCRIBBLE	1256	2	0	n/a	n/a	n/a	n/a	n/a
3847035	RECOG_TARGET	n/a	LTP098	ltpFR	2	4	1	NOVEL	960	4	0	n/a	n/a	n/a	n/a	n/a
3847798	RECOG_RESP	n/a	LTP098	ltpFR	2	4	1	NOVEL	960	n/a	0	n/a	n/a	n/a	n/a	n/a
3848437	RECOG_CONF	n/a	LTP098	ltpFR	2	4	1	NOVEL	960	4	0	n/a	n/a	n/a	n/a	n/a
3849736	RECOG_TARGET	n/a	LTP098	ltpFR	2	4	1	OATMEAL	967	5	0	n/a	n/a	n/a	n/a	n/a
3850377	RECOG_RESP	n/a	LTP098	ltpFR	2	4	1	OATMEAL	967	n/a	0	n/a	n/a	n/a	n/a	n/a
3851031	RECOG_CONF	n/a	LTP098	ltpFR	2	4	1	OATMEAL	967	5	0	n/a	n/a	n/a	n/a	n/a
3852368	RECOG_TARGET	n/a	LTP098	ltpFR	2	4	1	SALAD	1224	4	0	n/a	n/a	n/a	n/a	n/a
3853749	RECOG_RESP	n/a	LTP098	ltpFR	2	4	1	SALAD	1224	n/a	0	n/a	n/a	n/a	n/a	n/a
3854573	RECOG_CONF	n/a	LTP098	ltpFR	2	4	1	SALAD	1224	4	0	n/a	n/a	n/a	n/a	n/a
3855876	RECOG_TARGET	n/a	LTP098	ltpFR	2	4	0	ERASER	538	5	0	n/a	n/a	n/a	n/a	n/a
3856783	RECOG_RESP	n/a	LTP098	ltpFR	2	4	0	ERASER	538	n/a	0	n/a	n/a	n/a	n/a	n/a
3857725	RECOG_CONF	n/a	LTP098	ltpFR	2	4	0	ERASER	538	5	0	n/a	n/a	n/a	n/a	n/a
3859334	RECOG_TARGET	n/a	LTP098	ltpFR	2	4	-1	CRUTCH	417	5	-1	n/a	n/a	n/a	n/a	n/a
3860240	RECOG_RESP	n/a	LTP098	ltpFR	2	4	-1	CRUTCH	417	n/a	-1	n/a	n/a	n/a	n/a	n/a
3861008	RECOG_CONF	n/a	LTP098	ltpFR	2	4	-1	CRUTCH	417	5	-1	n/a	n/a	n/a	n/a	n/a
3862293	RECOG_TARGET	n/a	LTP098	ltpFR	2	4	0	BAY	102	1	1	n/a	n/a	n/a	n/a	n/a
3863383	RECOG_RESP	n/a	LTP098	ltpFR	2	4	0	BAY	102	n/a	1	n/a	n/a	n/a	n/a	n/a
3864061	RECOG_CONF	n/a	LTP098	ltpFR	2	4	0	BAY	102	1	1	n/a	n/a	n/a	n/a	n/a
3865559	RECOG_TARGET	n/a	LTP098	ltpFR	2	4	1	VAGRANT	1544	5	1	n/a	n/a	n/a	n/a	n/a
3866276	RECOG_RESP	n/a	LTP098	ltpFR	2	4	1	VAGRANT	1544	n/a	1	n/a	n/a	n/a	n/a	n/a
3866915	RECOG_CONF	n/a	LTP098	ltpFR	2	4	1	VAGRANT	1544	5	1	n/a	n/a	n/a	n/a	n/a
3868175	RECOG_TARGET	n/a	LTP098	ltpFR	2	4	-1	FLUTE	585	5	-1	n/a	n/a	n/a	n/a	n/a
3868760	RECOG_RESP	n/a	LTP098	ltpFR	2	4	-1	FLUTE	585	n/a	-1	n/a	n/a	n/a	n/a	n/a
3869449	RECOG_CONF	n/a	LTP098	ltpFR	2	4	-1	FLUTE	585	5	-1	n/a	n/a	n/a	n/a	n/a
3870800	RECOG_LURE	n/a	LTP098	ltpFR	2	4	n/a	PUPPY	1144	1	n/a	n/a	n/a	n/a	n/a	n/a
3872347	RECOG_RESP	n/a	LTP098	ltpFR	2	4	n/a	PUPPY	1144	n/a	n/a	n/a	n/a	n/a	n/a	n/a
3873061	RECOG_CONF	n/a	LTP098	ltpFR	2	4	n/a	PUPPY	1144	1	n/a	n/a	n/a	n/a	n/a	n/a
3874342	RECOG_TARGET	n/a	LTP098	ltpFR	2	4	1	UNIFORM	1539	1	0	n/a	n/a	n/a	n/a	n/a
3876298	RECOG_RESP	n/a	LTP098	ltpFR	2	4	1	UNIFORM	1539	n/a	0	n/a	n/a	n/a	n/a	n/a
3877111	RECOG_CONF	n/a	LTP098	ltpFR	2	4	1	UNIFORM	1539	1	0	n/a	n/a	n/a	n/a	n/a
3886704	REC_START	n/a	LTP098	ltpFR	2	5	n/a	n/a	n/a	n/a	n/a	n/a	n/a	n/a	n/a	n/a
3886742	RECOG_LURE	n/a	LTP098	ltpFR	2	5	n/a	MONUMENT	913	4	n/a	n/a	n/a	n/a	n/a	n/a
3887677	RECOG_RESP	n/a	LTP098	ltpFR	2	5	n/a	MONUMENT	913	n/a	n/a	n/a	n/a	n/a	n/a	n/a
3888345	RECOG_CONF	n/a	LTP098	ltpFR	2	5	n/a	MONUMENT	913	4	n/a	n/a	n/a	n/a	n/a	n/a
3889725	RECOG_TARGET	n/a	LTP098	ltpFR	2	5	0	LEOPARD	812	5	1	n/a	n/a	n/a	n/a	n/a
3890351	RECOG_RESP	n/a	LTP098	ltpFR	2	5	0	LEOPARD	812	n/a	1	n/a	n/a	n/a	n/a	n/a
3891039	RECOG_CONF	n/a	LTP098	ltpFR	2	5	0	LEOPARD	812	5	1	n/a	n/a	n/a	n/a	n/a
3892365	RECOG_LURE	n/a	LTP098	ltpFR	2	5	n/a	BOULEVARD	156	4	n/a	n/a	n/a	n/a	n/a	n/a
3893364	RECOG_RESP	n/a	LTP098	ltpFR	2	5	n/a	BOULEVARD	156	n/a	n/a	n/a	n/a	n/a	n/a	n/a
3894032	RECOG_CONF	n/a	LTP098	ltpFR	2	5	n/a	BOULEVARD	156	4	n/a	n/a	n/a	n/a	n/a	n/a
3895382	RECOG_TARGET	n/a	LTP098	ltpFR	2	5	1	PIGMENT	1066	5	0	n/a	n/a	n/a	n/a	n/a
3896087	RECOG_RESP	n/a	LTP098	ltpFR	2	5	1	PIGMENT	1066	n/a	0	n/a	n/a	n/a	n/a	n/a
3896746	RECOG_CONF	n/a	LTP098	ltpFR	2	5	1	PIGMENT	1066	5	0	n/a	n/a	n/a	n/a	n/a
3898048	RECOG_TARGET	n/a	LTP098	ltpFR	2	5	1	SIREN	1310	5	0	n/a	n/a	n/a	n/a	n/a
3898692	RECOG_RESP	n/a	LTP098	ltpFR	2	5	1	SIREN	1310	n/a	0	n/a	n/a	n/a	n/a	n/a
3899380	RECOG_CONF	n/a	LTP098	ltpFR	2	5	1	SIREN	1310	5	0	n/a	n/a	n/a	n/a	n/a
3900690	RECOG_TARGET	n/a	LTP098	ltpFR	2	5	0	ZOO	1637	1	1	n/a	n/a	n/a	n/a	n/a
3901385	RECOG_RESP	n/a	LTP098	ltpFR	2	5	0	ZOO	1637	n/a	1	n/a	n/a	n/a	n/a	n/a
3902004	RECOG_CONF	n/a	LTP098	ltpFR	2	5	0	ZOO	1637	1	1	n/a	n/a	n/a	n/a	n/a
3903331	RECOG_TARGET	n/a	LTP098	ltpFR	2	5	1	SAND	1230	2	0	n/a	n/a	n/a	n/a	n/a
3903965	RECOG_RESP	n/a	LTP098	ltpFR	2	5	1	SAND	1230	n/a	0	n/a	n/a	n/a	n/a	n/a
3904608	RECOG_CONF	n/a	LTP098	ltpFR	2	5	1	SAND	1230	2	0	n/a	n/a	n/a	n/a	n/a
3905939	RECOG_LURE	n/a	LTP098	ltpFR	2	5	n/a	PIER	1063	1	n/a	n/a	n/a	n/a	n/a	n/a
3907911	RECOG_RESP	n/a	LTP098	ltpFR	2	5	n/a	PIER	1063	n/a	n/a	n/a	n/a	n/a	n/a	n/a
3908529	RECOG_CONF	n/a	LTP098	ltpFR	2	5	n/a	PIER	1063	1	n/a	n/a	n/a	n/a	n/a	n/a
3909847	RECOG_TARGET	n/a	LTP098	ltpFR	2	5	0	TULIP	1517	5	0	n/a	n/a	n/a	n/a	n/a
3910450	RECOG_RESP	n/a	LTP098	ltpFR	2	5	0	TULIP	1517	n/a	0	n/a	n/a	n/a	n/a	n/a
3911053	RECOG_CONF	n/a	LTP098	ltpFR	2	5	0	TULIP	1517	5	0	n/a	n/a	n/a	n/a	n/a
3912397	RECOG_TARGET	n/a	LTP098	ltpFR	2	5	1	ANT	25	5	1	n/a	n/a	n/a	n/a	n/a
3913059	RECOG_RESP	n/a	LTP098	ltpFR	2	5	1	ANT	25	n/a	1	n/a	n/a	n/a	n/a	n/a
3913707	RECOG_CONF	n/a	LTP098	ltpFR	2	5	1	ANT	25	5	1	n/a	n/a	n/a	n/a	n/a
3915130	RECOG_TARGET	n/a	LTP098	ltpFR	2	5	1	TAR	1435	5	0	n/a	n/a	n/a	n/a	n/a
3915863	RECOG_RESP	n/a	LTP098	ltpFR	2	5	1	TAR	1435	n/a	0	n/a	n/a	n/a	n/a	n/a
3916531	RECOG_CONF	n/a	LTP098	ltpFR	2	5	1	TAR	1435	5	0	n/a	n/a	n/a	n/a	n/a
3917872	RECOG_TARGET	n/a	LTP098	ltpFR	2	5	-1	POISON	1096	5	-1	n/a	n/a	n/a	n/a	n/a
3918477	RECOG_RESP	n/a	LTP098	ltpFR	2	5	-1	POISON	1096	n/a	-1	n/a	n/a	n/a	n/a	n/a
3919165	RECOG_CONF	n/a	LTP098	ltpFR	2	5	-1	POISON	1096	5	-1	n/a	n/a	n/a	n/a	n/a
3920588	RECOG_LURE	n/a	LTP098	ltpFR	2	5	n/a	LAUNDRY	803	1	n/a	n/a	n/a	n/a	n/a	n/a
3921799	RECOG_RESP	n/a	LTP098	ltpFR	2	5	n/a	LAUNDRY	803	n/a	n/a	n/a	n/a	n/a	n/a	n/a
3922418	RECOG_CONF	n/a	LTP098	ltpFR	2	5	n/a	LAUNDRY	803	1	n/a	n/a	n/a	n/a	n/a	n/a
3923838	RECOG_TARGET	n/a	LTP098	ltpFR	2	5	-1	TENT	1449	5	-1	n/a	n/a	n/a	n/a	n/a
3925107	RECOG_RESP	n/a	LTP098	ltpFR	2	5	-1	TENT	1449	n/a	-1	n/a	n/a	n/a	n/a	n/a
3925700	RECOG_CONF	n/a	LTP098	ltpFR	2	5	-1	TENT	1449	5	-1	n/a	n/a	n/a	n/a	n/a
3927071	RECOG_LURE	n/a	LTP098	ltpFR	2	5	n/a	COYOTE	396	1	n/a	n/a	n/a	n/a	n/a	n/a
3928469	RECOG_RESP	n/a	LTP098	ltpFR	2	5	n/a	COYOTE	396	n/a	n/a	n/a	n/a	n/a	n/a	n/a
3929122	RECOG_CONF	n/a	LTP098	ltpFR	2	5	n/a	COYOTE	396	1	n/a	n/a	n/a	n/a	n/a	n/a
3930446	RECOG_TARGET	n/a	LTP098	ltpFR	2	5	0	CAPITAL	238	5	1	n/a	n/a	n/a	n/a	n/a
3931567	RECOG_RESP	n/a	LTP098	ltpFR	2	5	0	CAPITAL	238	n/a	1	n/a	n/a	n/a	n/a	n/a
3932225	RECOG_CONF	n/a	LTP098	ltpFR	2	5	0	CAPITAL	238	5	1	n/a	n/a	n/a	n/a	n/a
3933496	RECOG_TARGET	n/a	LTP098	ltpFR	2	5	0	RIB	1188	5	0	n/a	n/a	n/a	n/a	n/a
3934166	RECOG_RESP	n/a	LTP098	ltpFR	2	5	0	RIB	1188	n/a	0	n/a	n/a	n/a	n/a	n/a
3934809	RECOG_CONF	n/a	LTP098	ltpFR	2	5	0	RIB	1188	5	0	n/a	n/a	n/a	n/a	n/a
3936145	RECOG_TARGET	n/a	LTP098	ltpFR	2	5	-1	WASP	1593	5	-1	n/a	n/a	n/a	n/a	n/a
3936785	RECOG_RESP	n/a	LTP098	ltpFR	2	5	-1	WASP	1593	n/a	-1	n/a	n/a	n/a	n/a	n/a
3937434	RECOG_CONF	n/a	LTP098	ltpFR	2	5	-1	WASP	1593	5	-1	n/a	n/a	n/a	n/a	n/a
3938755	RECOG_TARGET	n/a	LTP098	ltpFR	2	5	0	WINNER	1615	5	1	n/a	n/a	n/a	n/a	n/a
3939439	RECOG_RESP	n/a	LTP098	ltpFR	2	5	0	WINNER	1615	n/a	1	n/a	n/a	n/a	n/a	n/a
3940147	RECOG_CONF	n/a	LTP098	ltpFR	2	5	0	WINNER	1615	5	1	n/a	n/a	n/a	n/a	n/a
3941545	RECOG_TARGET	n/a	LTP098	ltpFR	2	5	1	KEYBOARD	774	5	0	n/a	n/a	n/a	n/a	n/a
3942477	RECOG_RESP	n/a	LTP098	ltpFR	2	5	1	KEYBOARD	774	n/a	0	n/a	n/a	n/a	n/a	n/a
3943220	RECOG_CONF	n/a	LTP098	ltpFR	2	5	1	KEYBOARD	774	5	0	n/a	n/a	n/a	n/a	n/a
3947432	REC_START	n/a	LTP098	ltpFR	2	6	n/a	n/a	n/a	n/a	n/a	n/a	n/a	n/a	n/a	n/a
3947469	RECOG_TARGET	n/a	LTP098	ltpFR	2	6	0	WHIP	1604	5	0	n/a	n/a	n/a	n/a	n/a
3948375	RECOG_RESP	n/a	LTP098	ltpFR	2	6	0	WHIP	1604	n/a	0	n/a	n/a	n/a	n/a	n/a
3949043	RECOG_CONF	n/a	LTP098	ltpFR	2	6	0	WHIP	1604	5	0	n/a	n/a	n/a	n/a	n/a
3950311	RECOG_TARGET	n/a	LTP098	ltpFR	2	6	0	BLOCKADE	137	1	1	n/a	n/a	n/a	n/a	n/a
3951368	RECOG_RESP	n/a	LTP098	ltpFR	2	6	0	BLOCKADE	137	n/a	1	n/a	n/a	n/a	n/a	n/a
3952006	RECOG_CONF	n/a	LTP098	ltpFR	2	6	0	BLOCKADE	137	1	1	n/a	n/a	n/a	n/a	n/a
3953352	RECOG_TARGET	n/a	LTP098	ltpFR	2	6	1	PREDATOR	1120	5	1	n/a	n/a	n/a	n/a	n/a
3954351	RECOG_RESP	n/a	LTP098	ltpFR	2	6	1	PREDATOR	1120	n/a	1	n/a	n/a	n/a	n/a	n/a
3954960	RECOG_CONF	n/a	LTP098	ltpFR	2	6	1	PREDATOR	1120	5	1	n/a	n/a	n/a	n/a	n/a
3956227	RECOG_LURE	n/a	LTP098	ltpFR	2	6	n/a	SCOUT	1252	1	n/a	n/a	n/a	n/a	n/a	n/a
3957404	RECOG_RESP	n/a	LTP098	ltpFR	2	6	n/a	SCOUT	1252	n/a	n/a	n/a	n/a	n/a	n/a	n/a
3958043	RECOG_CONF	n/a	LTP098	ltpFR	2	6	n/a	SCOUT	1252	1	n/a	n/a	n/a	n/a	n/a	n/a
3959452	RECOG_TARGET	n/a	LTP098	ltpFR	2	6	1	CASHIER	254	1	1	n/a	n/a	n/a	n/a	n/a
3960397	RECOG_RESP	n/a	LTP098	ltpFR	2	6	1	CASHIER	254	n/a	1	n/a	n/a	n/a	n/a	n/a
3961016	RECOG_CONF	n/a	LTP098	ltpFR	2	6	1	CASHIER	254	1	1	n/a	n/a	n/a	n/a	n/a
3962377	RECOG_LURE	n/a	LTP098	ltpFR	2	6	n/a	SNAKE	1333	1	n/a	n/a	n/a	n/a	n/a	n/a
3963460	RECOG_RESP	n/a	LTP098	ltpFR	2	6	n/a	SNAKE	1333	n/a	n/a	n/a	n/a	n/a	n/a	n/a
3964099	RECOG_CONF	n/a	LTP098	ltpFR	2	6	n/a	SNAKE	1333	1	n/a	n/a	n/a	n/a	n/a	n/a
3965393	RECOG_TARGET	n/a	LTP098	ltpFR	2	6	-1	BUFFALO	186	5	-1	n/a	n/a	n/a	n/a	n/a
3966109	RECOG_RESP	n/a	LTP098	ltpFR	2	6	-1	BUFFALO	186	n/a	-1	n/a	n/a	n/a	n/a	n/a
3966733	RECOG_CONF	n/a	LTP098	ltpFR	2	6	-1	BUFFALO	186	5	-1	n/a	n/a	n/a	n/a	n/a
3968085	RECOG_TARGET	n/a	LTP098	ltpFR	2	6	1	MOSS	918	5	1	n/a	n/a	n/a	n/a	n/a
3968664	RECOG_RESP	n/a	LTP098	ltpFR	2	6	1	MOSS	918	n/a	1	n/a	n/a	n/a	n/a	n/a
3969327	RECOG_CONF	n/a	LTP098	ltpFR	2	6	1	MOSS	918	5	1	n/a	n/a	n/a	n/a	n/a
3970651	RECOG_LURE	n/a	LTP098	ltpFR	2	6	n/a	SCISSORS	1250	1	n/a	n/a	n/a	n/a	n/a	n/a
3971592	RECOG_RESP	n/a	LTP098	ltpFR	2	6	n/a	SCISSORS	1250	n/a	n/a	n/a	n/a	n/a	n/a	n/a
3972300	RECOG_CONF	n/a	LTP098	ltpFR	2	6	n/a	SCISSORS	1250	1	n/a	n/a	n/a	n/a	n/a	n/a
3973643	RECOG_TARGET	n/a	LTP098	ltpFR	2	6	0	BEGGAR	117	3	1	n/a	n/a	n/a	n/a	n/a
3974201	RECOG_RESP	n/a	LTP098	ltpFR	2	6	0	BEGGAR	117	n/a	1	n/a	n/a	n/a	n/a	n/a
3974874	RECOG_CONF	n/a	LTP098	ltpFR	2	6	0	BEGGAR	117	3	1	n/a	n/a	n/a	n/a	n/a
3976226	RECOG_LURE	n/a	LTP098	ltpFR	2	6	n/a	LOCK	838	1	n/a	n/a	n/a	n/a	n/a	n/a
3977833	RECOG_RESP	n/a	LTP098	ltpFR	2	6	n/a	LOCK	838	n/a	n/a	n/a	n/a	n/a	n/a	n/a
3978476	RECOG_CONF	n/a	LTP098	ltpFR	2	6	n/a	LOCK	838	1	n/a	n/a	n/a	n/a	n/a	n/a
3979817	RECOG_TARGET	n/a	LTP098	ltpFR	2	6	-1	DRYER	503	1	-1	n/a	n/a	n/a	n/a	n/a
3980736	RECOG_RESP	n/a	LTP098	ltpFR	2	6	-1	DRYER	503	n/a	-1	n/a	n/a	n/a	n/a	n/a
3981240	RECOG_CONF	n/a	LTP098	ltpFR	2	6	-1	DRYER	503	1	-1	n/a	n/a	n/a	n/a	n/a
3982692	RECOG_TARGET	n/a	LTP098	ltpFR	2	6	0	MONEY	908	1	0	n/a	n/a	n/a	n/a	n/a
3984039	RECOG_RESP	n/a	LTP098	ltpFR	2	6	0	MONEY	908	n/a	0	n/a	n/a	n/a	n/a	n/a
3984832	RECOG_CONF	n/a	LTP098	ltpFR	2	6	0	MONEY	908	1	0	n/a	n/a	n/a	n/a	n/a
3986117	RECOG_LURE	n/a	LTP098	ltpFR	2	6	n/a	SILVERWARE	1308	4	n/a	n/a	n/a	n/a	n/a	n/a
3987007	RECOG_RESP	n/a	LTP098	ltpFR	2	6	n/a	SILVERWARE	1308	n/a	n/a	n/a	n/a	n/a	n/a	n/a
3987645	RECOG_CONF	n/a	LTP098	ltpFR	2	6	n/a	SILVERWARE	1308	4	n/a	n/a	n/a	n/a	n/a	n/a
3989041	RECOG_TARGET	n/a	LTP098	ltpFR	2	6	0	FAUCET	555	5	0	n/a	n/a	n/a	n/a	n/a
3989825	RECOG_RESP	n/a	LTP098	ltpFR	2	6	0	FAUCET	555	n/a	0	n/a	n/a	n/a	n/a	n/a
3990519	RECOG_CONF	n/a	LTP098	ltpFR	2	6	0	FAUCET	555	5	0	n/a	n/a	n/a	n/a	n/a
3991751	RECOG_TARGET	n/a	LTP098	ltpFR	2	6	0	BUS	201	5	1	n/a	n/a	n/a	n/a	n/a
3992435	RECOG_RESP	n/a	LTP098	ltpFR	2	6	0	BUS	201	n/a	1	n/a	n/a	n/a	n/a	n/a
3993033	RECOG_CONF	n/a	LTP098	ltpFR	2	6	0	BUS	201	5	1	n/a	n/a	n/a	n/a	n/a
3994449	RECOG_TARGET	n/a	LTP098	ltpFR	2	6	1	PORT	1110	5	0	n/a	n/a	n/a	n/a	n/a
3995133	RECOG_RESP	n/a	LTP098	ltpFR	2	6	1	PORT	1110	n/a	0	n/a	n/a	n/a	n/a	n/a
3995837	RECOG_CONF	n/a	LTP098	ltpFR	2	6	1	PORT	1110	5	0	n/a	n/a	n/a	n/a	n/a
3997166	RECOG_LURE	n/a	LTP098	ltpFR	2	6	n/a	LOUNGE	845	2	n/a	n/a	n/a	n/a	n/a	n/a
3998685	RECOG_RESP	n/a	LTP098	ltpFR	2	6	n/a	LOUNGE	845	n/a	n/a	n/a	n/a	n/a	n/a	n/a
3999399	RECOG_CONF	n/a	LTP098	ltpFR	2	6	n/a	LOUNGE	845	2	n/a	n/a	n/a	n/a	n/a	n/a
4000733	RECOG_TARGET	n/a	LTP098	ltpFR	2	6	1	MAILMAN	858	5	1	n/a	n/a	n/a	n/a	n/a
4001374	RECOG_RESP	n/a	LTP098	ltpFR	2	6	1	MAILMAN	858	n/a	1	n/a	n/a	n/a	n/a	n/a
4002053	RECOG_CONF	n/a	LTP098	ltpFR	2	6	1	MAILMAN	858	5	1	n/a	n/a	n/a	n/a	n/a
4003324	RECOG_LURE	n/a	LTP098	ltpFR	2	6	n/a	BASKET	95	5	n/a	n/a	n/a	n/a	n/a	n/a
4003973	RECOG_RESP	n/a	LTP098	ltpFR	2	6	n/a	BASKET	95	n/a	n/a	n/a	n/a	n/a	n/a	n/a
4004607	RECOG_CONF	n/a	LTP098	ltpFR	2	6	n/a	BASKET	95	5	n/a	n/a	n/a	n/a	n/a	n/a
4012523	REC_START	n/a	LTP098	ltpFR	2	7	n/a	n/a	n/a	n/a	n/a	n/a	n/a	n/a	n/a	n/a
4012556	RECOG_TARGET	n/a	LTP098	ltpFR	2	7	1	CHICK	296	5	1	n/a	n/a	n/a	n/a	n/a
4013331	RECOG_RESP	n/a	LTP098	ltpFR	2	7	1	CHICK	296	n/a	1	n/a	n/a	n/a	n/a	n/a
4013975	RECOG_CONF	n/a	LTP098	ltpFR	2	7	1	CHICK	296	5	1	n/a	n/a	n/a	n/a	n/a
4015281	RECOG_TARGET	n/a	LTP098	ltpFR	2	7	0	PLUM	1090	2	0	n/a	n/a	n/a	n/a	n/a
4017122	RECOG_RESP	n/a	LTP098	ltpFR	2	7	0	PLUM	1090	n/a	0	n/a	n/a	n/a	n/a	n/a
4017796	RECOG_CONF	n/a	LTP098	ltpFR	2	7	0	PLUM	1090	2	0	n/a	n/a	n/a	n/a	n/a
4019131	RECOG_TARGET	n/a	LTP098	ltpFR	2	7	1	ROD	1203	1	0	n/a	n/a	n/a	n/a	n/a
4020360	RECOG_RESP	n/a	LTP098	ltpFR	2	7	1	ROD	1203	n/a	0	n/a	n/a	n/a	n/a	n/a
4021009	RECOG_CONF	n/a	LTP098	ltpFR	2	7	1	ROD	1203	1	0	n/a	n/a	n/a	n/a	n/a
4022356	RECOG_LURE	n/a	LTP098	ltpFR	2	7	n/a	RIDER	1191	1	n/a	n/a	n/a	n/a	n/a	n/a
4023772	RECOG_RESP	n/a	LTP098	ltpFR	2	7	n/a	RIDER	1191	n/a	n/a	n/a	n/a	n/a	n/a	n/a
4024471	RECOG_CONF	n/a	LTP098	ltpFR	2	7	n/a	RIDER	1191	1	n/a	n/a	n/a	n/a	n/a	n/a
4025814	RECOG_TARGET	n/a	LTP098	ltpFR	2	7	0	LILY	821	5	0	n/a	n/a	n/a	n/a	n/a
4026621	RECOG_RESP	n/a	LTP098	ltpFR	2	7	0	LILY	821	n/a	0	n/a	n/a	n/a	n/a	n/a
4027254	RECOG_CONF	n/a	LTP098	ltpFR	2	7	0	LILY	821	5	0	n/a	n/a	n/a	n/a	n/a
4028588	RECOG_TARGET	n/a	LTP098	ltpFR	2	7	1	TORCH	1484	5	0	n/a	n/a	n/a	n/a	n/a
4029250	RECOG_RESP	n/a	LTP098	ltpFR	2	7	1	TORCH	1484	n/a	0	n/a	n/a	n/a	n/a	n/a
4029908	RECOG_CONF	n/a	LTP098	ltpFR	2	7	1	TORCH	1484	5	0	n/a	n/a	n/a	n/a	n/a
4031213	RECOG_TARGET	n/a	LTP098	ltpFR	2	7	1	RAFT	1159	5	0	n/a	n/a	n/a	n/a	n/a
4032013	RECOG_RESP	n/a	LTP098	ltpFR	2	7	1	RAFT	1159	n/a	0	n/a	n/a	n/a	n/a	n/a
4032742	RECOG_CONF	n/a	LTP098	ltpFR	2	7	1	RAFT	1159	5	0	n/a	n/a	n/a	n/a	n/a
4033988	RECOG_LURE	n/a	LTP098	ltpFR	2	7	n/a	DOCUMENT	479	1	n/a	n/a	n/a	n/a	n/a	n/a
4035131	RECOG_RESP	n/a	LTP098	ltpFR	2	7	n/a	DOCUMENT	479	n/a	n/a	n/a	n/a	n/a	n/a	n/a
4035745	RECOG_CONF	n/a	LTP098	ltpFR	2	7	n/a	DOCUMENT	479	1	n/a	n/a	n/a	n/a	n/a	n/a
4037071	RECOG_LURE	n/a	LTP098	ltpFR	2	7	n/a	MINK	897	1	n/a	n/a	n/a	n/a	n/a	n/a
4037865	RECOG_RESP	n/a	LTP098	ltpFR	2	7	n/a	MINK	897	n/a	n/a	n/a	n/a	n/a	n/a	n/a
4038459	RECOG_CONF	n/a	LTP098	ltpFR	2	7	n/a	MINK	897	1	n/a	n/a	n/a	n/a	n/a	n/a
4039788	RECOG_TARGET	n/a	LTP098	ltpFR	2	7	-1	MINER	896	5	-1	n/a	n/a	n/a	n/a	n/a
4040434	RECOG_RESP	n/a	LTP098	ltpFR	2	7	-1	MINER	896	n/a	-1	n/a	n/a	n/a	n/a	n/a
4041013	RECOG_CONF	n/a	LTP098	ltpFR	2	7	-1	MINER	896	5	-1	n/a	n/a	n/a	n/a	n/a
4042404	RECOG_LURE	n/a	LTP098	ltpFR	2	7	n/a	SKIRT	1319	4	n/a	n/a	n/a	n/a	n/a	n/a
4043208	RECOG_RESP	n/a	LTP098	ltpFR	2	7	n/a	SKIRT	1319	n/a	n/a	n/a	n/a	n/a	n/a	n/a
4043757	RECOG_CONF	n/a	LTP098	ltpFR	2	7	n/a	SKIRT	1319	4	n/a	n/a	n/a	n/a	n/a	n/a
4045095	RECOG_LURE	n/a	LTP098	ltpFR	2	7	n/a	YOUTH	1634	4	n/a	n/a	n/a	n/a	n/a	n/a
4045782	RECOG_RESP	n/a	LTP098	ltpFR	2	7	n/a	YOUTH	1634	n/a	n/a	n/a	n/a	n/a	n/a	n/a
4046461	RECOG_CONF	n/a	LTP098	ltpFR	2	7	n/a	YOUTH	1634	4	n/a	n/a	n/a	n/a	n/a	n/a
4047845	RECOG_TARGET	n/a	LTP098	ltpFR	2	7	-1	PRISON	1127	5	-1	n/a	n/a	n/a	n/a	n/a
4048486	RECOG_RESP	n/a	LTP098	ltpFR	2	7	-1	PRISON	1127	n/a	-1	n/a	n/a	n/a	n/a	n/a
4049095	RECOG_CONF	n/a	LTP098	ltpFR	2	7	-1	PRISON	1127	5	-1	n/a	n/a	n/a	n/a	n/a
4050495	RECOG_LURE	n/a	LTP098	ltpFR	2	7	n/a	FLEA	577	1	n/a	n/a	n/a	n/a	n/a	n/a
4051659	RECOG_RESP	n/a	LTP098	ltpFR	2	7	n/a	FLEA	577	n/a	n/a	n/a	n/a	n/a	n/a	n/a
4052357	RECOG_CONF	n/a	LTP098	ltpFR	2	7	n/a	FLEA	577	1	n/a	n/a	n/a	n/a	n/a	n/a
4053678	RECOG_TARGET	n/a	LTP098	ltpFR	2	7	1	AUTHOR	61	5	1	n/a	n/a	n/a	n/a	n/a
4054413	RECOG_RESP	n/a	LTP098	ltpFR	2	7	1	AUTHOR	61	n/a	1	n/a	n/a	n/a	n/a	n/a
4055121	RECOG_CONF	n/a	LTP098	ltpFR	2	7	1	AUTHOR	61	5	1	n/a	n/a	n/a	n/a	n/a
4056395	RECOG_TARGET	n/a	LTP098	ltpFR	2	7	-1	MOOSE	915	5	-1	n/a	n/a	n/a	n/a	n/a
4057640	RECOG_RESP	n/a	LTP098	ltpFR	2	7	-1	MOOSE	915	n/a	-1	n/a	n/a	n/a	n/a	n/a
4059671	RECOG_CONF	n/a	LTP098	ltpFR	2	7	-1	MOOSE	915	5	-1	n/a	n/a	n/a	n/a	n/a
4061061	RECOG_LURE	n/a	LTP098	ltpFR	2	7	n/a	LINEN	825	1	n/a	n/a	n/a	n/a	n/a	n/a
4062340	RECOG_RESP	n/a	LTP098	ltpFR	2	7	n/a	LINEN	825	n/a	n/a	n/a	n/a	n/a	n/a	n/a
4063213	RECOG_CONF	n/a	LTP098	ltpFR	2	7	n/a	LINEN	825	1	n/a	n/a	n/a	n/a	n/a	n/a
4064619	RECOG_LURE	n/a	LTP098	ltpFR	2	7	n/a	CATTLE	261	1	n/a	n/a	n/a	n/a	n/a	n/a
4065542	RECOG_RESP	n/a	LTP098	ltpFR	2	7	n/a	CATTLE	261	n/a	n/a	n/a	n/a	n/a	n/a	n/a
4066206	RECOG_CONF	n/a	LTP098	ltpFR	2	7	n/a	CATTLE	261	1	n/a	n/a	n/a	n/a	n/a	n/a
4067602	RECOG_TARGET	n/a	LTP098	ltpFR	2	7	1	SHOE	1288	1	0	n/a	n/a	n/a	n/a	n/a
4070252	RECOG_RESP	n/a	LTP098	ltpFR	2	7	1	SHOE	1288	n/a	0	n/a	n/a	n/a	n/a	n/a
4070925	RECOG_CONF	n/a	LTP098	ltpFR	2	7	1	SHOE	1288	1	0	n/a	n/a	n/a	n/a	n/a
4072277	RECOG_LURE	n/a	LTP098	ltpFR	2	7	n/a	TORTOISE	1486	4	n/a	n/a	n/a	n/a	n/a	n/a
4073464	RECOG_RESP	n/a	LTP098	ltpFR	2	7	n/a	TORTOISE	1486	n/a	n/a	n/a	n/a	n/a	n/a	n/a
4074058	RECOG_CONF	n/a	LTP098	ltpFR	2	7	n/a	TORTOISE	1486	4	n/a	n/a	n/a	n/a	n/a	n/a
4078698	REC_START	n/a	LTP098	ltpFR	2	8	n/a	n/a	n/a	n/a	n/a	n/a	n/a	n/a	n/a	n/a
4078736	RECOG_TARGET	n/a	LTP098	ltpFR	2	8	-1	TRUMPET	1513	5	-1	n/a	n/a	n/a	n/a	n/a
4079686	RECOG_RESP	n/a	LTP098	ltpFR	2	8	-1	TRUMPET	1513	n/a	-1	n/a	n/a	n/a	n/a	n/a
4080339	RECOG_CONF	n/a	LTP098	ltpFR	2	8	-1	TRUMPET	1513	5	-1	n/a	n/a	n/a	n/a	n/a
4081618	RECOG_TARGET	n/a	LTP098	ltpFR	2	8	1	PATROL	1027	1	0	n/a	n/a	n/a	n/a	n/a
4083163	RECOG_RESP	n/a	LTP098	ltpFR	2	8	1	PATROL	1027	n/a	0	n/a	n/a	n/a	n/a	n/a
4083781	RECOG_CONF	n/a	LTP098	ltpFR	2	8	1	PATROL	1027	1	0	n/a	n/a	n/a	n/a	n/a
4085151	RECOG_LURE	n/a	LTP098	ltpFR	2	8	n/a	SHIRT	1287	1	n/a	n/a	n/a	n/a	n/a	n/a
4086405	RECOG_RESP	n/a	LTP098	ltpFR	2	8	n/a	SHIRT	1287	n/a	n/a	n/a	n/a	n/a	n/a	n/a
4087084	RECOG_CONF	n/a	LTP098	ltpFR	2	8	n/a	SHIRT	1287	1	n/a	n/a	n/a	n/a	n/a	n/a
4088509	RECOG_LURE	n/a	LTP098	ltpFR	2	8	n/a	LIGHTER	819	3	n/a	n/a	n/a	n/a	n/a	n/a
4090172	RECOG_RESP	n/a	LTP098	ltpFR	2	8	n/a	LIGHTER	819	n/a	n/a	n/a	n/a	n/a	n/a	n/a
4090825	RECOG_CONF	n/a	LTP098	ltpFR	2	8	n/a	LIGHTER	819	3	n/a	n/a	n/a	n/a	n/a	n/a
4092225	RECOG_TARGET	n/a	LTP098	ltpFR	2	8	-1	TURTLE	1522	1	-1	n/a	n/a	n/a	n/a	n/a
4093539	RECOG_RESP	n/a	LTP098	ltpFR	2	8	-1	TURTLE	1522	n/a	-1	n/a	n/a	n/a	n/a	n/a
4094257	RECOG_CONF	n/a	LTP098	ltpFR	2	8	-1	TURTLE	1522	1	-1	n/a	n/a	n/a	n/a	n/a
4095751	RECOG_TARGET	n/a	LTP098	ltpFR	2	8	0	CRADLE	399	2	1	n/a	n/a	n/a	n/a	n/a
4096467	RECOG_RESP	n/a	LTP098	ltpFR	2	8	0	CRADLE	399	n/a	1	n/a	n/a	n/a	n/a	n/a
4097191	RECOG_CONF	n/a	LTP098	ltpFR	2	8	0	CRADLE	399	2	1	n/a	n/a	n/a	n/a	n/a
4098533	RECOG_LURE	n/a	LTP098	ltpFR	2	8	n/a	HUMAN	726	2	n/a	n/a	n/a	n/a	n/a	n/a
4100219	RECOG_RESP	n/a	LTP098	ltpFR	2	8	n/a	HUMAN	726	n/a	n/a	n/a	n/a	n/a	n/a	n/a
4100932	RECOG_CONF	n/a	LTP098	ltpFR	2	8	n/a	HUMAN	726	2	n/a	n/a	n/a	n/a	n/a	n/a
4102224	RECOG_LURE	n/a	LTP098	ltpFR	2	8	n/a	ICE	730	4	n/a	n/a	n/a	n/a	n/a	n/a
4103861	RECOG_RESP	n/a	LTP098	ltpFR	2	8	n/a	ICE	730	n/a	n/a	n/a	n/a	n/a	n/a	n/a
4104803	RECOG_CONF	n/a	LTP098	ltpFR	2	8	n/a	ICE	730	4	n/a	n/a	n/a	n/a	n/a	n/a
4106158	RECOG_TARGET	n/a	LTP098	ltpFR	2	8	0	CHAMPION	279	5	1	n/a	n/a	n/a	n/a	n/a
4106874	RECOG_RESP	n/a	LTP098	ltpFR	2	8	0	CHAMPION	279	n/a	1	n/a	n/a	n/a	n/a	n/a
4107557	RECOG_CONF	n/a	LTP098	ltpFR	2	8	0	CHAMPION	279	5	1	n/a	n/a	n/a	n/a	n/a
4109057	RECOG_TARGET	n/a	LTP098	ltpFR	2	8	1	DRILL	497	5	0	n/a	n/a	n/a	n/a	n/a
4109737	RECOG_RESP	n/a	LTP098	ltpFR	2	8	1	DRILL	497	n/a	0	n/a	n/a	n/a	n/a	n/a
4110481	RECOG_CONF	n/a	LTP098	ltpFR	2	8	1	DRILL	497	5	0	n/a	n/a	n/a	n/a	n/a
4111907	RECOG_TARGET	n/a	LTP098	ltpFR	2	8	-1	BULL	193	5	-1	n/a	n/a	n/a	n/a	n/a
4112576	RECOG_RESP	n/a	LTP098	ltpFR	2	8	-1	BULL	193	n/a	-1	n/a	n/a	n/a	n/a	n/a
4113254	RECOG_CONF	n/a	LTP098	ltpFR	2	8	-1	BULL	193	5	-1	n/a	n/a	n/a	n/a	n/a
4114557	RECOG_TARGET	n/a	LTP098	ltpFR	2	8	-1	NOMAD	955	5	-1	n/a	n/a	n/a	n/a	n/a
4115389	RECOG_RESP	n/a	LTP098	ltpFR	2	8	-1	NOMAD	955	n/a	-1	n/a	n/a	n/a	n/a	n/a
4116148	RECOG_CONF	n/a	LTP098	ltpFR	2	8	-1	NOMAD	955	5	-1	n/a	n/a	n/a	n/a	n/a
4119007	RECOG_TARGET	n/a	LTP098	ltpFR	2	8	1	CROCODILE	411	5	1	n/a	n/a	n/a	n/a	n/a
4119954	RECOG_RESP	n/a	LTP098	ltpFR	2	8	1	CROCODILE	411	n/a	1	n/a	n/a	n/a	n/a	n/a
4120647	RECOG_CONF	n/a	LTP098	ltpFR	2	8	1	CROCODILE	411	5	1	n/a	n/a	n/a	n/a	n/a
4121906	RECOG_TARGET	n/a	LTP098	ltpFR	2	8	0	PRINCE	1124	5	1	n/a	n/a	n/a	n/a	n/a
4122593	RECOG_RESP	n/a	LTP098	ltpFR	2	8	0	PRINCE	1124	n/a	1	n/a	n/a	n/a	n/a	n/a
4123232	RECOG_CONF	n/a	LTP098	ltpFR	2	8	0	PRINCE	1124	5	1	n/a	n/a	n/a	n/a	n/a
4124548	RECOG_LURE	n/a	LTP098	ltpFR	2	8	n/a	DAD	433	4	n/a	n/a	n/a	n/a	n/a	n/a
4125806	RECOG_RESP	n/a	LTP098	ltpFR	2	8	n/a	DAD	433	n/a	n/a	n/a	n/a	n/a	n/a	n/a
4126434	RECOG_CONF	n/a	LTP098	ltpFR	2	8	n/a	DAD	433	4	n/a	n/a	n/a	n/a	n/a	n/a
4127749	RECOG_TARGET	n/a	LTP098	ltpFR	2	8	0	WALRUS	1585	5	1	n/a	n/a	n/a	n/a	n/a
4128460	RECOG_RESP	n/a	LTP098	ltpFR	2	8	0	WALRUS	1585	n/a	1	n/a	n/a	n/a	n/a	n/a
4129078	RECOG_CONF	n/a	LTP098	ltpFR	2	8	0	WALRUS	1585	5	1	n/a	n/a	n/a	n/a	n/a
4130397	RECOG_TARGET	n/a	LTP098	ltpFR	2	8	0	STY	1397	5	0	n/a	n/a	n/a	n/a	n/a
4131059	RECOG_RESP	n/a	LTP098	ltpFR	2	8	0	STY	1397	n/a	0	n/a	n/a	n/a	n/a	n/a
4131942	RECOG_CONF	n/a	LTP098	ltpFR	2	8	0	STY	1397	5	0	n/a	n/a	n/a	n/a	n/a
4133414	RECOG_TARGET	n/a	LTP098	ltpFR	2	8	0	SHEARS	1276	5	0	n/a	n/a	n/a	n/a	n/a
4134187	RECOG_RESP	n/a	LTP098	ltpFR	2	8	0	SHEARS	1276	n/a	0	n/a	n/a	n/a	n/a	n/a
4134835	RECOG_CONF	n/a	LTP098	ltpFR	2	8	0	SHEARS	1276	5	0	n/a	n/a	n/a	n/a	n/a
4136172	RECOG_TARGET	n/a	LTP098	ltpFR	2	8	1	CONCERT	360	5	0	n/a	n/a	n/a	n/a	n/a
4136781	RECOG_RESP	n/a	LTP098	ltpFR	2	8	1	CONCERT	360	n/a	0	n/a	n/a	n/a	n/a	n/a
4137509	RECOG_CONF	n/a	LTP098	ltpFR	2	8	1	CONCERT	360	5	0	n/a	n/a	n/a	n/a	n/a
4138880	RECOG_TARGET	n/a	LTP098	ltpFR	2	8	1	GOAT	644	1	1	n/a	n/a	n/a	n/a	n/a
4140103	RECOG_RESP	n/a	LTP098	ltpFR	2	8	1	GOAT	644	n/a	1	n/a	n/a	n/a	n/a	n/a
4140852	RECOG_CONF	n/a	LTP098	ltpFR	2	8	1	GOAT	644	1	1	n/a	n/a	n/a	n/a	n/a
4174812	REC_START	n/a	LTP098	ltpFR	2	9	n/a	n/a	n/a	n/a	n/a	n/a	n/a	n/a	n/a	n/a
4174844	RECOG_TARGET	n/a	LTP098	ltpFR	2	9	1	ASPIRIN	47	1	0	n/a	n/a	n/a	n/a	n/a
4175810	RECOG_RESP	n/a	LTP098	ltpFR	2	9	1	ASPIRIN	47	n/a	0	n/a	n/a	n/a	n/a	n/a
4176503	RECOG_CONF	n/a	LTP098	ltpFR	2	9	1	ASPIRIN	47	1	0	n/a	n/a	n/a	n/a	n/a
4178002	RECOG_TARGET	n/a	LTP098	ltpFR	2	9	1	DIARY	460	5	0	n/a	n/a	n/a	n/a	n/a
4180070	RECOG_RESP	n/a	LTP098	ltpFR	2	9	1	DIARY	460	n/a	0	n/a	n/a	n/a	n/a	n/a
4181302	RECOG_CONF	n/a	LTP098	ltpFR	2	9	1	DIARY	460	5	0	n/a	n/a	n/a	n/a	n/a
4182635	RECOG_TARGET	n/a	LTP098	ltpFR	2	9	0	FINGERNAIL	568	5	0	n/a	n/a	n/a	n/a	n/a
4183357	RECOG_RESP	n/a	LTP098	ltpFR	2	9	0	FINGERNAIL	568	n/a	0	n/a	n/a	n/a	n/a	n/a
4184006	RECOG_CONF	n/a	LTP098	ltpFR	2	9	0	FINGERNAIL	568	5	0	n/a	n/a	n/a	n/a	n/a
4185318	RECOG_TARGET	n/a	LTP098	ltpFR	2	9	-1	INVENTOR	743	5	-1	n/a	n/a	n/a	n/a	n/a
4185961	RECOG_RESP	n/a	LTP098	ltpFR	2	9	-1	INVENTOR	743	n/a	-1	n/a	n/a	n/a	n/a	n/a
4186560	RECOG_CONF	n/a	LTP098	ltpFR	2	9	-1	INVENTOR	743	5	-1	n/a	n/a	n/a	n/a	n/a
4187876	RECOG_LURE	n/a	LTP098	ltpFR	2	9	n/a	RASH	1167	4	n/a	n/a	n/a	n/a	n/a	n/a
4188630	RECOG_RESP	n/a	LTP098	ltpFR	2	9	n/a	RASH	1167	n/a	n/a	n/a	n/a	n/a	n/a	n/a
4189244	RECOG_CONF	n/a	LTP098	ltpFR	2	9	n/a	RASH	1167	4	n/a	n/a	n/a	n/a	n/a	n/a
4190618	RECOG_TARGET	n/a	LTP098	ltpFR	2	9	0	SHORE	1291	1	1	n/a	n/a	n/a	n/a	n/a
4191374	RECOG_RESP	n/a	LTP098	ltpFR	2	9	0	SHORE	1291	n/a	1	n/a	n/a	n/a	n/a	n/a
4191998	RECOG_CONF	n/a	LTP098	ltpFR	2	9	0	SHORE	1291	1	1	n/a	n/a	n/a	n/a	n/a
4193268	RECOG_TARGET	n/a	LTP098	ltpFR	2	9	-1	FOSSIL	596	5	-1	n/a	n/a	n/a	n/a	n/a
4193918	RECOG_RESP	n/a	LTP098	ltpFR	2	9	-1	FOSSIL	596	n/a	-1	n/a	n/a	n/a	n/a	n/a
4194602	RECOG_CONF	n/a	LTP098	ltpFR	2	9	-1	FOSSIL	596	5	-1	n/a	n/a	n/a	n/a	n/a
4195976	RECOG_LURE	n/a	LTP098	ltpFR	2	9	n/a	BROTHER	179	4	n/a	n/a	n/a	n/a	n/a	n/a
4196777	RECOG_RESP	n/a	LTP098	ltpFR	2	9	n/a	BROTHER	179	n/a	n/a	n/a	n/a	n/a	n/a	n/a
4197435	RECOG_CONF	n/a	LTP098	ltpFR	2	9	n/a	BROTHER	179	4	n/a	n/a	n/a	n/a	n/a	n/a
4198784	RECOG_LURE	n/a	LTP098	ltpFR	2	9	n/a	ORCHESTRA	981	1	n/a	n/a	n/a	n/a	n/a	n/a
4200957	RECOG_RESP	n/a	LTP098	ltpFR	2	9	n/a	ORCHESTRA	981	n/a	n/a	n/a	n/a	n/a	n/a	n/a
4201626	RECOG_CONF	n/a	LTP098	ltpFR	2	9	n/a	ORCHESTRA	981	1	n/a	n/a	n/a	n/a	n/a	n/a
4202984	RECOG_TARGET	n/a	LTP098	ltpFR	2	9	0	POTTERY	1116	1	0	n/a	n/a	n/a	n/a	n/a
4203971	RECOG_RESP	n/a	LTP098	ltpFR	2	9	0	POTTERY	1116	n/a	0	n/a	n/a	n/a	n/a	n/a
4204599	RECOG_CONF	n/a	LTP098	ltpFR	2	9	0	POTTERY	1116	1	0	n/a	n/a	n/a	n/a	n/a
4205950	RECOG_TARGET	n/a	LTP098	ltpFR	2	9	1	PUMP	1141	4	0	n/a	n/a	n/a	n/a	n/a
4206809	RECOG_RESP	n/a	LTP098	ltpFR	2	9	1	PUMP	1141	n/a	0	n/a	n/a	n/a	n/a	n/a
4207433	RECOG_CONF	n/a	LTP098	ltpFR	2	9	1	PUMP	1141	4	0	n/a	n/a	n/a	n/a	n/a
4208718	RECOG_LURE	n/a	LTP098	ltpFR	2	9	n/a	OAR	966	4	n/a	n/a	n/a	n/a	n/a	n/a
4209648	RECOG_RESP	n/a	LTP098	ltpFR	2	9	n/a	OAR	966	n/a	n/a	n/a	n/a	n/a	n/a	n/a
4210236	RECOG_CONF	n/a	LTP098	ltpFR	2	9	n/a	OAR	966	4	n/a	n/a	n/a	n/a	n/a	n/a
4211600	RECOG_TARGET	n/a	LTP098	ltpFR	2	9	1	RUNNER	1218	5	1	n/a	n/a	n/a	n/a	n/a
4212312	RECOG_RESP	n/a	LTP098	ltpFR	2	9	1	RUNNER	1218	n/a	1	n/a	n/a	n/a	n/a	n/a
4212940	RECOG_CONF	n/a	LTP098	ltpFR	2	9	1	RUNNER	1218	5	1	n/a	n/a	n/a	n/a	n/a
4214191	RECOG_TARGET	n/a	LTP098	ltpFR	2	9	1	FARMER	553	1	1	n/a	n/a	n/a	n/a	n/a
4215225	RECOG_RESP	n/a	LTP098	ltpFR	2	9	1	FARMER	553	n/a	1	n/a	n/a	n/a	n/a	n/a
4215903	RECOG_CONF	n/a	LTP098	ltpFR	2	9	1	FARMER	553	1	1	n/a	n/a	n/a	n/a	n/a
4217266	RECOG_LURE	n/a	LTP098	ltpFR	2	9	n/a	HIKER	708	4	n/a	n/a	n/a	n/a	n/a	n/a
4218517	RECOG_RESP	n/a	LTP098	ltpFR	2	9	n/a	HIKER	708	n/a	n/a	n/a	n/a	n/a	n/a	n/a
4219216	RECOG_CONF	n/a	LTP098	ltpFR	2	9	n/a	HIKER	708	4	n/a	n/a	n/a	n/a	n/a	n/a
4220507	RECOG_TARGET	n/a	LTP098	ltpFR	2	9	1	VAMPIRE	1547	5	1	n/a	n/a	n/a	n/a	n/a
4221221	RECOG_RESP	n/a	LTP098	ltpFR	2	9	1	VAMPIRE	1547	n/a	1	n/a	n/a	n/a	n/a	n/a
4221860	RECOG_CONF	n/a	LTP098	ltpFR	2	9	1	VAMPIRE	1547	5	1	n/a	n/a	n/a	n/a	n/a
4223082	RECOG_TARGET	n/a	LTP098	ltpFR	2	9	0	KITCHEN	778	4	0	n/a	n/a	n/a	n/a	n/a
4223756	RECOG_RESP	n/a	LTP098	ltpFR	2	9	0	KITCHEN	778	n/a	0	n/a	n/a	n/a	n/a	n/a
4224514	RECOG_CONF	n/a	LTP098	ltpFR	2	9	0	KITCHEN	778	4	0	n/a	n/a	n/a	n/a	n/a
4225750	RECOG_TARGET	n/a	LTP098	ltpFR	2	9	0	PROTON	1132	5	0	n/a	n/a	n/a	n/a	n/a
4226654	RECOG_RESP	n/a	LTP098	ltpFR	2	9	0	PROTON	1132	n/a	0	n/a	n/a	n/a	n/a	n/a
4227347	RECOG_CONF	n/a	LTP098	ltpFR	2	9	0	PROTON	1132	5	0	n/a	n/a	n/a	n/a	n/a
4228733	RECOG_LURE	n/a	LTP098	ltpFR	2	9	n/a	PUPIL	1143	1	n/a	n/a	n/a	n/a	n/a	n/a
4230046	RECOG_RESP	n/a	LTP098	ltpFR	2	9	n/a	PUPIL	1143	n/a	n/a	n/a	n/a	n/a	n/a	n/a
4230660	RECOG_CONF	n/a	LTP098	ltpFR	2	9	n/a	PUPIL	1143	1	n/a	n/a	n/a	n/a	n/a	n/a
4231940	RECOG_TARGET	n/a	LTP098	ltpFR	2	9	1	REFRIGERATOR	1179	5	0	n/a	n/a	n/a	n/a	n/a
4232745	RECOG_RESP	n/a	LTP098	ltpFR	2	9	1	REFRIGERATOR	1179	n/a	0	n/a	n/a	n/a	n/a	n/a
4233354	RECOG_CONF	n/a	LTP098	ltpFR	2	9	1	REFRIGERATOR	1179	5	0	n/a	n/a	n/a	n/a	n/a
4239695	REC_START	n/a	LTP098	ltpFR	2	10	n/a	n/a	n/a	n/a	n/a	n/a	n/a	n/a	n/a	n/a
4239732	RECOG_LURE	n/a	LTP098	ltpFR	2	10	n/a	ROBIN	1199	1	n/a	n/a	n/a	n/a	n/a	n/a
