onset	duration	trial_type	sample	stim_file	subject	experiment	session	trial	item_name	item_num	list	answer	test_x	test_y	test_z
215.37109375	n/a	SESS_START	441080	n/a	LTP374	ltpFR2	3	n/a	n/a	n/a	n/a	n/a	0	0	0
229.8203125	n/a	START	470672	n/a	LTP374	ltpFR2	3	n/a	n/a	n/a	-1	n/a	n/a	n/a	n/a
229.83447265625	n/a	PROB	470701	n/a	LTP374	ltpFR2	3	n/a	n/a	n/a	-1	16	8	3	5
231.62353515625	n/a	PROB	474365	n/a	LTP374	ltpFR2	3	n/a	n/a	n/a	-1	19	7	3	9
232.810546875	n/a	PROB	476796	n/a	LTP374	ltpFR2	3	n/a	n/a	n/a	-1	13	8	4	1
233.93017578125	n/a	PROB	479089	n/a	LTP374	ltpFR2	3	n/a	n/a	n/a	-1	10	3	5	2
235.10107421875	n/a	PROB	481487	n/a	LTP374	ltpFR2	3	n/a	n/a	n/a	-1	20	4	8	6
236.455078125	n/a	PROB	484260	n/a	LTP374	ltpFR2	3	n/a	n/a	n/a	-1	14	5	4	5
238.17822265625	n/a	PROB	487789	n/a	LTP374	ltpFR2	3	n/a	n/a	n/a	-1	13	1	5	7
239.3642578125	n/a	PROB	490218	n/a	LTP374	ltpFR2	3	n/a	n/a	n/a	-1	12	3	5	4
240.6103515625	n/a	STOP	492770	n/a	LTP374	ltpFR2	3	n/a	n/a	n/a	-1	n/a	n/a	n/a	n/a
271.90234375	n/a	WORD	556856	wordpools/wasnorm_wordpool_576.txt	LTP374	ltpFR2	3	1	PRIMATE	1123	n/a	n/a	0	0	0
274.56103515625	n/a	WORD	562301	wordpools/wasnorm_wordpool_576.txt	LTP374	ltpFR2	3	1	GRILL	661	n/a	n/a	0	0	0
277.27001953125	n/a	WORD	567849	wordpools/wasnorm_wordpool_576.txt	LTP374	ltpFR2	3	1	FLUTE	585	n/a	n/a	0	0	0
280.0791015625	n/a	WORD	573602	wordpools/wasnorm_wordpool_576.txt	LTP374	ltpFR2	3	1	PIZZA	1079	n/a	n/a	0	0	0
282.55322265625	n/a	WORD	578669	wordpools/wasnorm_wordpool_576.txt	LTP374	ltpFR2	3	1	TYPIST	1532	n/a	n/a	0	0	0
285.36181640625	n/a	WORD	584421	wordpools/wasnorm_wordpool_576.txt	LTP374	ltpFR2	3	1	BEEF	113	n/a	n/a	0	0	0
288.03759765625	n/a	WORD	589901	wordpools/wasnorm_wordpool_576.txt	LTP374	ltpFR2	3	1	PORK	1108	n/a	n/a	0	0	0
290.81298828125	n/a	WORD	595585	wordpools/wasnorm_wordpool_576.txt	LTP374	ltpFR2	3	1	CRAB	397	n/a	n/a	0	0	0
293.3046875	n/a	WORD	600688	wordpools/wasnorm_wordpool_576.txt	LTP374	ltpFR2	3	1	SUNSET	1408	n/a	n/a	0	0	0
296.0634765625	n/a	WORD	606338	wordpools/wasnorm_wordpool_576.txt	LTP374	ltpFR2	3	1	BUTCHER	203	n/a	n/a	0	0	0
298.85546875	n/a	WORD	612056	wordpools/wasnorm_wordpool_576.txt	LTP374	ltpFR2	3	1	SUBWAY	1400	n/a	n/a	0	0	0
301.3134765625	n/a	WORD	617090	wordpools/wasnorm_wordpool_576.txt	LTP374	ltpFR2	3	1	HIKER	708	n/a	n/a	0	0	0
303.85546875	n/a	WORD	622296	wordpools/wasnorm_wordpool_576.txt	LTP374	ltpFR2	3	1	FIDDLE	561	n/a	n/a	0	0	0
306.51318359375	n/a	WORD	627739	wordpools/wasnorm_wordpool_576.txt	LTP374	ltpFR2	3	1	TRUCK	1512	n/a	n/a	0	0	0
309.15625	n/a	WORD	633152	wordpools/wasnorm_wordpool_576.txt	LTP374	ltpFR2	3	1	XEROX	1628	n/a	n/a	0	0	0
311.7470703125	n/a	WORD	638458	wordpools/wasnorm_wordpool_576.txt	LTP374	ltpFR2	3	1	OFFICE	972	n/a	n/a	0	0	0
314.3388671875	n/a	WORD	643766	wordpools/wasnorm_wordpool_576.txt	LTP374	ltpFR2	3	1	RABBIT	1152	n/a	n/a	0	0	0
316.81298828125	n/a	WORD	648833	wordpools/wasnorm_wordpool_576.txt	LTP374	ltpFR2	3	1	HUSBAND	728	n/a	n/a	0	0	0
319.23876953125	n/a	WORD	653801	wordpools/wasnorm_wordpool_576.txt	LTP374	ltpFR2	3	1	CREATURE	403	n/a	n/a	0	0	0
321.9296875	n/a	WORD	659312	wordpools/wasnorm_wordpool_576.txt	LTP374	ltpFR2	3	1	GRAVE	658	n/a	n/a	0	0	0
324.37060546875	n/a	WORD	664311	wordpools/wasnorm_wordpool_576.txt	LTP374	ltpFR2	3	1	TOMBSTONE	1478	n/a	n/a	0	0	0
326.9287109375	n/a	WORD	669550	wordpools/wasnorm_wordpool_576.txt	LTP374	ltpFR2	3	1	PAIL	1002	n/a	n/a	0	0	0
329.48779296875	n/a	WORD	674791	wordpools/wasnorm_wordpool_576.txt	LTP374	ltpFR2	3	1	SWAMP	1416	n/a	n/a	0	0	0
332.19677734375	n/a	WORD	680339	wordpools/wasnorm_wordpool_576.txt	LTP374	ltpFR2	3	1	ZEBRA	1635	n/a	n/a	0	0	0
333.8017578125	n/a	START	683626	n/a	LTP374	ltpFR2	3	n/a	n/a	n/a	1	n/a	n/a	n/a	n/a
334.892578125	n/a	DISTRACTOR	685860	n/a	LTP374	ltpFR2	3	1	n/a	n/a	n/a	n/a	0	0	0
334.904296875	n/a	PROB	685884	n/a	LTP374	ltpFR2	3	n/a	n/a	n/a	1	18	7	9	2
336.32568359375	n/a	PROB	688795	n/a	LTP374	ltpFR2	3	n/a	n/a	n/a	1	8	3	3	2
337.16357421875	n/a	PROB	690511	n/a	LTP374	ltpFR2	3	n/a	n/a	n/a	1	19	8	2	9
338.04833984375	n/a	PROB	692323	n/a	LTP374	ltpFR2	3	n/a	n/a	n/a	1	11	1	1	9
339.20263671875	n/a	PROB	694687	n/a	LTP374	ltpFR2	3	n/a	n/a	n/a	1	15	7	2	8
340.42236328125	n/a	PROB	697185	n/a	LTP374	ltpFR2	3	n/a	n/a	n/a	1	16	5	9	2
341.576171875	n/a	PROB	699548	n/a	LTP374	ltpFR2	3	n/a	n/a	n/a	1	19	8	8	3
342.5791015625	n/a	PROB	701602	n/a	LTP374	ltpFR2	3	n/a	n/a	n/a	1	13	5	7	1
343.54931640625	n/a	PROB	703589	n/a	LTP374	ltpFR2	3	n/a	n/a	n/a	1	12	2	2	8
344.55224609375	n/a	PROB	705643	n/a	LTP374	ltpFR2	3	n/a	n/a	n/a	1	17	9	4	4
346.0244140625	n/a	PROB	708658	n/a	LTP374	ltpFR2	3	n/a	n/a	n/a	1	21	7	9	5
347.09423828125	n/a	PROB	710849	n/a	LTP374	ltpFR2	3	n/a	n/a	n/a	1	19	9	6	4
348.21533203125	n/a	PROB	713145	n/a	LTP374	ltpFR2	3	n/a	n/a	n/a	1	14	9	3	2
349.46826171875	n/a	PROB	715711	n/a	LTP374	ltpFR2	3	n/a	n/a	n/a	1	13	2	2	9
350.5048828125	n/a	PROB	717834	n/a	LTP374	ltpFR2	3	n/a	n/a	n/a	1	17	6	9	2
351.541015625	n/a	PROB	719956	n/a	LTP374	ltpFR2	3	n/a	n/a	n/a	1	15	5	2	8
352.56103515625	n/a	PROB	722045	n/a	LTP374	ltpFR2	3	n/a	n/a	n/a	1	13	4	3	6
353.81591796875	n/a	PROB	724615	n/a	LTP374	ltpFR2	3	n/a	n/a	n/a	1	6	2	2	2
354.5849609375	n/a	PROB	726190	n/a	LTP374	ltpFR2	3	n/a	n/a	n/a	1	11	2	5	4
355.671875	n/a	PROB	728416	n/a	LTP374	ltpFR2	3	n/a	n/a	n/a	1	21	4	9	8
356.93896484375	n/a	STOP	731011	n/a	LTP374	ltpFR2	3	n/a	n/a	n/a	1	n/a	n/a	n/a	n/a
359.70166015625	n/a	REC_START	736669	n/a	LTP374	ltpFR2	3	1	n/a	n/a	n/a	n/a	0	0	0
360.53857421875	n/a	REC_WORD	738383	wordpools/wasnorm_wordpool_576.txt	LTP374	ltpFR2	3	1	HUSBAND	728	n/a	n/a	0	0	0
361.90966796875	n/a	REC_WORD	741191	wordpools/wasnorm_wordpool_576.txt	LTP374	ltpFR2	3	1	SWAMP	1416	n/a	n/a	0	0	0
365.0908203125	n/a	REC_WORD	747706	wordpools/wasnorm_wordpool_576.txt	LTP374	ltpFR2	3	1	GRAVE	658	n/a	n/a	0	0	0
366.78564453125	n/a	REC_WORD	751177	wordpools/wasnorm_wordpool_576.txt	LTP374	ltpFR2	3	1	TOMBSTONE	1478	n/a	n/a	0	0	0
368.21337890625	n/a	REC_WORD	754101	wordpools/wasnorm_wordpool_576.txt	LTP374	ltpFR2	3	1	CREATURE	403	n/a	n/a	0	0	0
369.515625	n/a	REC_WORD	756768	wordpools/wasnorm_wordpool_576.txt	LTP374	ltpFR2	3	1	ZEBRA	1635	n/a	n/a	0	0	0
371.25927734375	n/a	REC_WORD	760339	wordpools/wasnorm_wordpool_576.txt	LTP374	ltpFR2	3	1	PRIMATE	1123	n/a	n/a	0	0	0
373.1572265625	n/a	REC_WORD	764226	wordpools/wasnorm_wordpool_576.txt	LTP374	ltpFR2	3	1	GRILL	661	n/a	n/a	0	0	0
374.29248046875	n/a	REC_WORD	766551	wordpools/wasnorm_wordpool_576.txt	LTP374	ltpFR2	3	1	PIZZA	1079	n/a	n/a	0	0	0
375.45849609375	n/a	REC_WORD	768939	wordpools/wasnorm_wordpool_576.txt	LTP374	ltpFR2	3	1	PORK	1108	n/a	n/a	0	0	0
376.76416015625	n/a	REC_WORD	771613	wordpools/wasnorm_wordpool_576.txt	LTP374	ltpFR2	3	1	BEEF	113	n/a	n/a	0	0	0
378.09619140625	n/a	REC_WORD	774341	wordpools/wasnorm_wordpool_576.txt	LTP374	ltpFR2	3	1	CRAB	397	n/a	n/a	0	0	0
381.8681640625	n/a	REC_WORD	782066	wordpools/wasnorm_wordpool_576.txt	LTP374	ltpFR2	3	1	TYPIST	1532	n/a	n/a	0	0	0
387.212890625	n/a	REC_WORD	793012	wordpools/wasnorm_wordpool_576.txt	LTP374	ltpFR2	3	1	SUBWAY	1400	n/a	n/a	0	0	0
389.0048828125	n/a	REC_WORD	796682	wordpools/wasnorm_wordpool_576.txt	LTP374	ltpFR2	3	1	HIKER	708	n/a	n/a	0	0	0
406.09033203125	n/a	REC_WORD	831673	wordpools/wasnorm_wordpool_576.txt	LTP374	ltpFR2	3	1	FIDDLE	561	n/a	n/a	0	0	0
408.5205078125	n/a	REC_WORD	836650	wordpools/wasnorm_wordpool_576.txt	LTP374	ltpFR2	3	1	FLUTE	585	n/a	n/a	0	0	0
414.42333984375	n/a	REC_WORD	848739	wordpools/wasnorm_wordpool_576.txt	LTP374	ltpFR2	3	1	XEROX	1628	n/a	n/a	0	0	0
415.84130859375	n/a	REC_WORD	851643	wordpools/wasnorm_wordpool_576.txt	LTP374	ltpFR2	3	1	OFFICE	972	n/a	n/a	0	0	0
450.14208984375	n/a	DISTRACTOR	921891	n/a	LTP374	ltpFR2	3	2	n/a	n/a	n/a	n/a	0	0	0
450.14208984375	n/a	START	921891	n/a	LTP374	ltpFR2	3	n/a	n/a	n/a	2	n/a	n/a	n/a	n/a
450.1591796875	n/a	PROB	921926	n/a	LTP374	ltpFR2	3	n/a	n/a	n/a	2	8	1	3	4
451.12939453125	n/a	PROB	923913	n/a	LTP374	ltpFR2	3	n/a	n/a	n/a	2	16	2	6	8
452.29833984375	n/a	PROB	926307	n/a	LTP374	ltpFR2	3	n/a	n/a	n/a	2	9	2	2	5
453.10205078125	n/a	PROB	927953	n/a	LTP374	ltpFR2	3	n/a	n/a	n/a	2	12	3	4	5
454.17236328125	n/a	PROB	930145	n/a	LTP374	ltpFR2	3	n/a	n/a	n/a	2	20	9	9	2
455.25830078125	n/a	PROB	932369	n/a	LTP374	ltpFR2	3	n/a	n/a	n/a	2	20	4	7	9
456.294921875	n/a	PROB	934492	n/a	LTP374	ltpFR2	3	n/a	n/a	n/a	2	18	8	8	2
457.46533203125	n/a	PROB	936889	n/a	LTP374	ltpFR2	3	n/a	n/a	n/a	2	9	2	6	1
458.35107421875	n/a	PROB	938703	n/a	LTP374	ltpFR2	3	n/a	n/a	n/a	2	10	2	7	1
459.38818359375	n/a	PROB	940827	n/a	LTP374	ltpFR2	3	n/a	n/a	n/a	2	13	6	3	4
460.44091796875	n/a	PROB	942983	n/a	LTP374	ltpFR2	3	n/a	n/a	n/a	2	224	8	8	8
461.52783203125	n/a	PROB	945209	n/a	LTP374	ltpFR2	3	n/a	n/a	n/a	2	20	8	7	5
463.43408203125	n/a	PROB	949113	n/a	LTP374	ltpFR2	3	n/a	n/a	n/a	2	16	5	8	3
464.4208984375	n/a	PROB	951134	n/a	LTP374	ltpFR2	3	n/a	n/a	n/a	2	7	2	4	1
465.27392578125	n/a	PROB	952881	n/a	LTP374	ltpFR2	3	n/a	n/a	n/a	2	13	2	5	6
466.376953125	n/a	PROB	955140	n/a	LTP374	ltpFR2	3	n/a	n/a	n/a	2	11	1	6	4
467.56396484375	n/a	PROB	957571	n/a	LTP374	ltpFR2	3	n/a	n/a	n/a	2	14	3	8	3
468.751953125	n/a	PROB	960004	n/a	LTP374	ltpFR2	3	n/a	n/a	n/a	2	9	1	6	2
469.7548828125	n/a	PROB	962058	n/a	LTP374	ltpFR2	3	n/a	n/a	n/a	2	12	2	1	9
470.77490234375	n/a	PROB	964147	n/a	LTP374	ltpFR2	3	n/a	n/a	n/a	2	21	5	9	7
471.8447265625	n/a	PROB	966338	n/a	LTP374	ltpFR2	3	n/a	n/a	n/a	2	20	8	7	5
472.85888671875	n/a	STOP	968415	n/a	LTP374	ltpFR2	3	n/a	n/a	n/a	2	n/a	n/a	n/a	n/a
474.9716796875	n/a	WORD	972742	wordpools/wasnorm_wordpool_576.txt	LTP374	ltpFR2	3	2	TWEEZERS	1526	n/a	n/a	0	0	0
477.54638671875	n/a	WORD	978015	wordpools/wasnorm_wordpool_576.txt	LTP374	ltpFR2	3	2	CAFE	216	n/a	n/a	0	0	0
480.2392578125	n/a	WORD	983530	wordpools/wasnorm_wordpool_576.txt	LTP374	ltpFR2	3	2	FRUIT	610	n/a	n/a	0	0	0
482.98046875	n/a	WORD	989144	wordpools/wasnorm_wordpool_576.txt	LTP374	ltpFR2	3	2	SALMON	1227	n/a	n/a	0	0	0
485.4384765625	n/a	WORD	994178	wordpools/wasnorm_wordpool_576.txt	LTP374	ltpFR2	3	2	DINER	467	n/a	n/a	0	0	0
488.21533203125	n/a	WORD	999865	wordpools/wasnorm_wordpool_576.txt	LTP374	ltpFR2	3	2	CORAL	378	n/a	n/a	0	0	0
490.705078125	n/a	WORD	1004964	wordpools/wasnorm_wordpool_576.txt	LTP374	ltpFR2	3	2	APPLE	33	n/a	n/a	0	0	0
493.447265625	n/a	WORD	1010580	wordpools/wasnorm_wordpool_576.txt	LTP374	ltpFR2	3	2	CITRUS	313	n/a	n/a	0	0	0
496.18994140625	n/a	WORD	1016197	wordpools/wasnorm_wordpool_576.txt	LTP374	ltpFR2	3	2	MARS	873	n/a	n/a	0	0	0
498.76513671875	n/a	WORD	1021471	wordpools/wasnorm_wordpool_576.txt	LTP374	ltpFR2	3	2	DUSTPAN	509	n/a	n/a	0	0	0
501.52294921875	n/a	WORD	1027119	wordpools/wasnorm_wordpool_576.txt	LTP374	ltpFR2	3	2	DUST	508	n/a	n/a	0	0	0
504.31591796875	n/a	WORD	1032839	wordpools/wasnorm_wordpool_576.txt	LTP374	ltpFR2	3	2	LEOPARD	812	n/a	n/a	0	0	0
506.95751953125	n/a	WORD	1038249	wordpools/wasnorm_wordpool_576.txt	LTP374	ltpFR2	3	2	LADY	794	n/a	n/a	0	0	0
509.6494140625	n/a	WORD	1043762	wordpools/wasnorm_wordpool_576.txt	LTP374	ltpFR2	3	2	CARRIAGE	248	n/a	n/a	0	0	0
512.1083984375	n/a	WORD	1048798	wordpools/wasnorm_wordpool_576.txt	LTP374	ltpFR2	3	2	MISSILE	900	n/a	n/a	0	0	0
514.79931640625	n/a	WORD	1054309	wordpools/wasnorm_wordpool_576.txt	LTP374	ltpFR2	3	2	LIPSTICK	829	n/a	n/a	0	0	0
517.54150390625	n/a	WORD	1059925	wordpools/wasnorm_wordpool_576.txt	LTP374	ltpFR2	3	2	LILY	821	n/a	n/a	0	0	0
520.25048828125	n/a	WORD	1065473	wordpools/wasnorm_wordpool_576.txt	LTP374	ltpFR2	3	2	THREAD	1460	n/a	n/a	0	0	0
522.70849609375	n/a	WORD	1070507	wordpools/wasnorm_wordpool_576.txt	LTP374	ltpFR2	3	2	PAPER	1011	n/a	n/a	0	0	0
525.283203125	n/a	WORD	1075780	wordpools/wasnorm_wordpool_576.txt	LTP374	ltpFR2	3	2	GIFT	635	n/a	n/a	0	0	0
527.82421875	n/a	WORD	1080984	wordpools/wasnorm_wordpool_576.txt	LTP374	ltpFR2	3	2	SCARECROW	1245	n/a	n/a	0	0	0
530.51611328125	n/a	WORD	1086497	wordpools/wasnorm_wordpool_576.txt	LTP374	ltpFR2	3	2	DANDRUFF	439	n/a	n/a	0	0	0
533.0908203125	n/a	WORD	1091770	wordpools/wasnorm_wordpool_576.txt	LTP374	ltpFR2	3	2	BOX	159	n/a	n/a	0	0	0
535.666015625	n/a	WORD	1097044	wordpools/wasnorm_wordpool_576.txt	LTP374	ltpFR2	3	2	ORANGE	980	n/a	n/a	0	0	0
537.27197265625	n/a	START	1100333	n/a	LTP374	ltpFR2	3	n/a	n/a	n/a	3	n/a	n/a	n/a	n/a
538.3427734375	n/a	DISTRACTOR	1102526	n/a	LTP374	ltpFR2	3	2	n/a	n/a	n/a	n/a	0	0	0
538.35791015625	n/a	PROB	1102557	n/a	LTP374	ltpFR2	3	n/a	n/a	n/a	3	16	6	4	6
539.62890625	n/a	PROB	1105160	n/a	LTP374	ltpFR2	3	n/a	n/a	n/a	3	7	1	2	4
540.39794921875	n/a	PROB	1106735	n/a	LTP374	ltpFR2	3	n/a	n/a	n/a	3	9	4	1	4
541.21875	n/a	PROB	1108416	n/a	LTP374	ltpFR2	3	n/a	n/a	n/a	3	22	5	9	8
542.4375	n/a	PROB	1110912	n/a	LTP374	ltpFR2	3	n/a	n/a	n/a	3	21	9	8	4
543.5078125	n/a	PROB	1113104	n/a	LTP374	ltpFR2	3	n/a	n/a	n/a	3	14	6	6	2
544.71142578125	n/a	PROB	1115569	n/a	LTP374	ltpFR2	3	n/a	n/a	n/a	3	21	9	8	4
545.798828125	n/a	PROB	1117796	n/a	LTP374	ltpFR2	3	n/a	n/a	n/a	3	15	8	1	6
546.91943359375	n/a	PROB	1120091	n/a	LTP374	ltpFR2	3	n/a	n/a	n/a	3	15	1	7	7
547.83837890625	n/a	PROB	1121973	n/a	LTP374	ltpFR2	3	n/a	n/a	n/a	3	18	8	9	1
549.07568359375	n/a	PROB	1124507	n/a	LTP374	ltpFR2	3	n/a	n/a	n/a	3	20	7	4	9
550.41357421875	n/a	PROB	1127247	n/a	LTP374	ltpFR2	3	n/a	n/a	n/a	3	18	9	5	4
551.6005859375	n/a	PROB	1129678	n/a	LTP374	ltpFR2	3	n/a	n/a	n/a	3	13	5	2	6
552.654296875	n/a	PROB	1131836	n/a	LTP374	ltpFR2	3	n/a	n/a	n/a	3	14	5	5	4
553.5732421875	n/a	PROB	1133718	n/a	LTP374	ltpFR2	3	n/a	n/a	n/a	3	11	4	1	6
554.6943359375	n/a	PROB	1136014	n/a	LTP374	ltpFR2	3	n/a	n/a	n/a	3	1	9	3	6
556.09912109375	n/a	PROB	1138891	n/a	LTP374	ltpFR2	3	n/a	n/a	n/a	3	22	6	8	8
557.369140625	n/a	PROB	1141492	n/a	LTP374	ltpFR2	3	n/a	n/a	n/a	3	20	8	4	8
558.67333984375	n/a	PROB	1144163	n/a	LTP374	ltpFR2	3	n/a	n/a	n/a	3	7	1	5	1
559.6103515625	n/a	PROB	1146082	n/a	LTP374	ltpFR2	3	n/a	n/a	n/a	3	15	2	5	8
560.68310546875	n/a	STOP	1148279	n/a	LTP374	ltpFR2	3	n/a	n/a	n/a	3	n/a	n/a	n/a	n/a
563.05517578125	n/a	REC_START	1153137	n/a	LTP374	ltpFR2	3	2	n/a	n/a	n/a	n/a	0	0	0
563.96435546875	n/a	REC_WORD	1154999	wordpools/wasnorm_wordpool_576.txt	LTP374	ltpFR2	3	2	PAPER	1011	n/a	n/a	0	0	0
565.26904296875	n/a	REC_WORD	1157671	wordpools/wasnorm_wordpool_576.txt	LTP374	ltpFR2	3	2	BOX	159	n/a	n/a	0	0	0
566.55322265625	n/a	REC_WORD	1160301	wordpools/wasnorm_wordpool_576.txt	LTP374	ltpFR2	3	2	LADY	794	n/a	n/a	0	0	0
567.67724609375	n/a	REC_WORD	1162603	wordpools/wasnorm_wordpool_576.txt	LTP374	ltpFR2	3	2	LIPSTICK	829	n/a	n/a	0	0	0
569.1171875	n/a	REC_WORD	1165552	wordpools/wasnorm_wordpool_576.txt	LTP374	ltpFR2	3	2	DANDRUFF	439	n/a	n/a	0	0	0
570.7607421875	n/a	REC_WORD	1168918	wordpools/wasnorm_wordpool_576.txt	LTP374	ltpFR2	3	2	TWEEZERS	1526	n/a	n/a	0	0	0
572.376953125	n/a	REC_WORD	1172228	wordpools/wasnorm_wordpool_576.txt	LTP374	ltpFR2	3	2	DUSTPAN	509	n/a	n/a	0	0	0
573.81787109375	n/a	REC_WORD	1175179	wordpools/wasnorm_wordpool_576.txt	LTP374	ltpFR2	3	2	DUST	508	n/a	n/a	0	0	0
575.1845703125	n/a	REC_WORD	1177978	wordpools/wasnorm_wordpool_576.txt	LTP374	ltpFR2	3	2	CAFE	216	n/a	n/a	0	0	0
576.8388671875	n/a	REC_WORD	1181366	wordpools/wasnorm_wordpool_576.txt	LTP374	ltpFR2	3	2	DINER	467	n/a	n/a	0	0	0
578.4365234375	n/a	REC_WORD	1184638	wordpools/wasnorm_wordpool_576.txt	LTP374	ltpFR2	3	2	APPLE	33	n/a	n/a	0	0	0
579.9375	n/a	REC_WORD	1187712	wordpools/wasnorm_wordpool_576.txt	LTP374	ltpFR2	3	2	CORAL	378	n/a	n/a	0	0	0
581.1416015625	n/a	REC_WORD	1190178	wordpools/wasnorm_wordpool_576.txt	LTP374	ltpFR2	3	2	SALMON	1227	n/a	n/a	0	0	0
583.1455078125	n/a	REC_WORD	1194282	wordpools/wasnorm_wordpool_576.txt	LTP374	ltpFR2	3	2	ORANGE	980	n/a	n/a	0	0	0
588.61865234375	n/a	REC_WORD	1205491	wordpools/wasnorm_wordpool_576.txt	LTP374	ltpFR2	3	2	GIFT	635	n/a	n/a	0	0	0
653.51171875	n/a	WORD	1338392	wordpools/wasnorm_wordpool_576.txt	LTP374	ltpFR2	3	3	TEACHER	1440	n/a	n/a	0	0	0
656.2705078125	n/a	WORD	1344042	wordpools/wasnorm_wordpool_576.txt	LTP374	ltpFR2	3	3	STUDENT	1395	n/a	n/a	0	0	0
658.96240234375	n/a	WORD	1349555	wordpools/wasnorm_wordpool_576.txt	LTP374	ltpFR2	3	3	PASTA	1021	n/a	n/a	0	0	0
661.58740234375	n/a	WORD	1354931	wordpools/wasnorm_wordpool_576.txt	LTP374	ltpFR2	3	3	DRESSER	496	n/a	n/a	0	0	0
664.3291015625	n/a	WORD	1360546	wordpools/wasnorm_wordpool_576.txt	LTP374	ltpFR2	3	3	HAWK	692	n/a	n/a	0	0	0
666.787109375	n/a	WORD	1365580	wordpools/wasnorm_wordpool_576.txt	LTP374	ltpFR2	3	3	HEART	697	n/a	n/a	0	0	0
669.26220703125	n/a	WORD	1370649	wordpools/wasnorm_wordpool_576.txt	LTP374	ltpFR2	3	3	COFFEE	341	n/a	n/a	0	0	0
671.80322265625	n/a	WORD	1375853	wordpools/wasnorm_wordpool_576.txt	LTP374	ltpFR2	3	3	PENGUIN	1044	n/a	n/a	0	0	0
674.39501953125	n/a	WORD	1381161	wordpools/wasnorm_wordpool_576.txt	LTP374	ltpFR2	3	3	OZONE	996	n/a	n/a	0	0	0
676.9697265625	n/a	WORD	1386434	wordpools/wasnorm_wordpool_576.txt	LTP374	ltpFR2	3	3	BALLOON	75	n/a	n/a	0	0	0
679.39501953125	n/a	WORD	1391401	wordpools/wasnorm_wordpool_576.txt	LTP374	ltpFR2	3	3	CROWN	415	n/a	n/a	0	0	0
682.20458984375	n/a	WORD	1397155	wordpools/wasnorm_wordpool_576.txt	LTP374	ltpFR2	3	3	ROBIN	1199	n/a	n/a	0	0	0
684.8115234375	n/a	WORD	1402494	wordpools/wasnorm_wordpool_576.txt	LTP374	ltpFR2	3	3	VALVE	1546	n/a	n/a	0	0	0
687.4365234375	n/a	WORD	1407870	wordpools/wasnorm_wordpool_576.txt	LTP374	ltpFR2	3	3	CRUTCH	417	n/a	n/a	0	0	0
690.07861328125	n/a	WORD	1413281	wordpools/wasnorm_wordpool_576.txt	LTP374	ltpFR2	3	3	SHOVEL	1295	n/a	n/a	0	0	0
692.720703125	n/a	WORD	1418692	wordpools/wasnorm_wordpool_576.txt	LTP374	ltpFR2	3	3	MISTER	901	n/a	n/a	0	0	0
695.16259765625	n/a	WORD	1423693	wordpools/wasnorm_wordpool_576.txt	LTP374	ltpFR2	3	3	TUNNEL	1519	n/a	n/a	0	0	0
697.6865234375	n/a	WORD	1428862	wordpools/wasnorm_wordpool_576.txt	LTP374	ltpFR2	3	3	FRIEND	606	n/a	n/a	0	0	0
700.412109375	n/a	WORD	1434444	wordpools/wasnorm_wordpool_576.txt	LTP374	ltpFR2	3	3	SISTER	1312	n/a	n/a	0	0	0
703.22216796875	n/a	WORD	1440199	wordpools/wasnorm_wordpool_576.txt	LTP374	ltpFR2	3	3	KETCHUP	771	n/a	n/a	0	0	0
705.76220703125	n/a	WORD	1445401	wordpools/wasnorm_wordpool_576.txt	LTP374	ltpFR2	3	3	TURNIP	1521	n/a	n/a	0	0	0
708.404296875	n/a	WORD	1450812	wordpools/wasnorm_wordpool_576.txt	LTP374	ltpFR2	3	3	WRIST	1626	n/a	n/a	0	0	0
711.14794921875	n/a	WORD	1456431	wordpools/wasnorm_wordpool_576.txt	LTP374	ltpFR2	3	3	VIRUS	1572	n/a	n/a	0	0	0
713.80517578125	n/a	WORD	1461873	wordpools/wasnorm_wordpool_576.txt	LTP374	ltpFR2	3	3	MARSH	874	n/a	n/a	0	0	0
715.4111328125	n/a	START	1465162	n/a	LTP374	ltpFR2	3	n/a	n/a	n/a	4	n/a	n/a	n/a	n/a
716.4697265625	n/a	DISTRACTOR	1467330	n/a	LTP374	ltpFR2	3	3	n/a	n/a	n/a	n/a	0	0	0
716.48095703125	n/a	PROB	1467353	n/a	LTP374	ltpFR2	3	n/a	n/a	n/a	4	8	2	2	4
717.60107421875	n/a	PROB	1469647	n/a	LTP374	ltpFR2	3	n/a	n/a	n/a	4	12	3	5	4
718.921875	n/a	PROB	1472352	n/a	LTP374	ltpFR2	3	n/a	n/a	n/a	4	20	9	8	3
720.05859375	n/a	PROB	1474680	n/a	LTP374	ltpFR2	3	n/a	n/a	n/a	4	12	2	5	5
720.99462890625	n/a	PROB	1476597	n/a	LTP374	ltpFR2	3	n/a	n/a	n/a	4	25	9	8	8
722.66650390625	n/a	PROB	1480021	n/a	LTP374	ltpFR2	3	n/a	n/a	n/a	4	10	7	1	2
724.388671875	n/a	PROB	1483548	n/a	LTP374	ltpFR2	3	n/a	n/a	n/a	4	13	2	7	4
725.509765625	n/a	PROB	1485844	n/a	LTP374	ltpFR2	3	n/a	n/a	n/a	4	13	7	1	6
726.52978515625	n/a	PROB	1487933	n/a	LTP374	ltpFR2	3	n/a	n/a	n/a	4	15	4	7	4
727.86669921875	n/a	PROB	1490671	n/a	LTP374	ltpFR2	3	n/a	n/a	n/a	4	10	4	4	2
729.3212890625	n/a	PROB	1493650	n/a	LTP374	ltpFR2	3	n/a	n/a	n/a	4	19	6	8	5
730.37548828125	n/a	PROB	1495809	n/a	LTP374	ltpFR2	3	n/a	n/a	n/a	4	11	6	3	2
731.3115234375	n/a	PROB	1497726	n/a	LTP374	ltpFR2	3	n/a	n/a	n/a	4	12	6	3	3
732.16552734375	n/a	PROB	1499475	n/a	LTP374	ltpFR2	3	n/a	n/a	n/a	4	15	3	8	4
733.1513671875	n/a	PROB	1501494	n/a	LTP374	ltpFR2	3	n/a	n/a	n/a	4	10	2	2	6
734.37158203125	n/a	PROB	1503993	n/a	LTP374	ltpFR2	3	n/a	n/a	n/a	4	12	3	7	2
735.240234375	n/a	PROB	1505772	n/a	LTP374	ltpFR2	3	n/a	n/a	n/a	4	11	1	6	4
736.26025390625	n/a	PROB	1507861	n/a	LTP374	ltpFR2	3	n/a	n/a	n/a	4	15	3	3	9
737.13134765625	n/a	PROB	1509645	n/a	LTP374	ltpFR2	3	n/a	n/a	n/a	4	13	6	3	4
738.2294921875	n/a	STOP	1511894	n/a	LTP374	ltpFR2	3	n/a	n/a	n/a	4	n/a	n/a	n/a	n/a
741.26025390625	n/a	REC_START	1518101	n/a	LTP374	ltpFR2	3	3	n/a	n/a	n/a	n/a	0	0	0
742.62890625	n/a	REC_WORD	1520904	wordpools/wasnorm_wordpool_576.txt	LTP374	ltpFR2	3	3	KETCHUP	771	n/a	n/a	0	0	0
743.703125	n/a	REC_WORD	1523104	wordpools/wasnorm_wordpool_576.txt	LTP374	ltpFR2	3	3	TURNIP	1521	n/a	n/a	0	0	0
744.78125	n/a	REC_WORD	1525312	wordpools/wasnorm_wordpool_576.txt	LTP374	ltpFR2	3	3	MARSH	874	n/a	n/a	0	0	0
745.98388671875	n/a	REC_WORD	1527775	wordpools/wasnorm_wordpool_576.txt	LTP374	ltpFR2	3	3	TUNNEL	1519	n/a	n/a	0	0	0
747.05078125	n/a	REC_WORD	1529960	wordpools/wasnorm_wordpool_576.txt	LTP374	ltpFR2	3	3	WRIST	1626	n/a	n/a	0	0	0
748.2490234375	n/a	REC_WORD	1532414	wordpools/wasnorm_wordpool_576.txt	LTP374	ltpFR2	3	3	HEART	697	n/a	n/a	0	0	0
749.5869140625	n/a	REC_WORD	1535154	wordpools/wasnorm_wordpool_576.txt	LTP374	ltpFR2	3	3	VIRUS	1572	n/a	n/a	0	0	0
750.98486328125	n/a	REC_WORD	1538017	wordpools/wasnorm_wordpool_576.txt	LTP374	ltpFR2	3	3	SISTER	1312	n/a	n/a	0	0	0
752.9228515625	n/a	REC_WORD	1541986	wordpools/wasnorm_wordpool_576.txt	LTP374	ltpFR2	3	3	DRESSER	496	n/a	n/a	0	0	0
754.32958984375	n/a	REC_WORD	1544867	wordpools/wasnorm_wordpool_576.txt	LTP374	ltpFR2	3	3	TEACHER	1440	n/a	n/a	0	0	0
755.62060546875	n/a	REC_WORD	1547511	wordpools/wasnorm_wordpool_576.txt	LTP374	ltpFR2	3	3	STUDENT	1395	n/a	n/a	0	0	0
757.57568359375	n/a	REC_WORD	1551515	wordpools/wasnorm_wordpool_576.txt	LTP374	ltpFR2	3	3	MISTER	901	n/a	n/a	0	0	0
758.78466796875	n/a	REC_WORD	1553991	wordpools/wasnorm_wordpool_576.txt	LTP374	ltpFR2	3	3	FRIEND	606	n/a	n/a	0	0	0
765.25830078125	n/a	REC_WORD	1567249	wordpools/wasnorm_wordpool_576.txt	LTP374	ltpFR2	3	3	TURNIP	1521	n/a	n/a	0	0	0
769.4912109375	n/a	REC_WORD	1575918	wordpools/wasnorm_wordpool_576.txt	LTP374	ltpFR2	3	3	CRUTCH	417	n/a	n/a	0	0	0
831.7177734375	n/a	WORD	1703358	wordpools/wasnorm_wordpool_576.txt	LTP374	ltpFR2	3	4	SPARROW	1347	n/a	n/a	0	0	0
834.1923828125	n/a	WORD	1708426	wordpools/wasnorm_wordpool_576.txt	LTP374	ltpFR2	3	4	MESSAGE	888	n/a	n/a	0	0	0
837.00048828125	n/a	WORD	1714177	wordpools/wasnorm_wordpool_576.txt	LTP374	ltpFR2	3	4	PRINCESS	1125	n/a	n/a	0	0	0
839.65966796875	n/a	WORD	1719623	wordpools/wasnorm_wordpool_576.txt	LTP374	ltpFR2	3	4	PALACE	1006	n/a	n/a	0	0	0
842.435546875	n/a	WORD	1725308	wordpools/wasnorm_wordpool_576.txt	LTP374	ltpFR2	3	4	RAZOR	1171	n/a	n/a	0	0	0
845.14404296875	n/a	WORD	1730855	wordpools/wasnorm_wordpool_576.txt	LTP374	ltpFR2	3	4	WORLD	1622	n/a	n/a	0	0	0
847.75244140625	n/a	WORD	1736197	wordpools/wasnorm_wordpool_576.txt	LTP374	ltpFR2	3	4	ATLAS	53	n/a	n/a	0	0	0
850.494140625	n/a	WORD	1741812	wordpools/wasnorm_wordpool_576.txt	LTP374	ltpFR2	3	4	SODA	1341	n/a	n/a	0	0	0
853.01904296875	n/a	WORD	1746983	wordpools/wasnorm_wordpool_576.txt	LTP374	ltpFR2	3	4	FILM	565	n/a	n/a	0	0	0
855.59619140625	n/a	WORD	1752261	wordpools/wasnorm_wordpool_576.txt	LTP374	ltpFR2	3	4	QUARTER	1148	n/a	n/a	0	0	0
858.18701171875	n/a	WORD	1757567	wordpools/wasnorm_wordpool_576.txt	LTP374	ltpFR2	3	4	MATCH	878	n/a	n/a	0	0	0
860.84375	n/a	WORD	1763008	wordpools/wasnorm_wordpool_576.txt	LTP374	ltpFR2	3	4	RUG	1215	n/a	n/a	0	0	0
863.53564453125	n/a	WORD	1768521	wordpools/wasnorm_wordpool_576.txt	LTP374	ltpFR2	3	4	CONCERT	360	n/a	n/a	0	0	0
866.11181640625	n/a	WORD	1773797	wordpools/wasnorm_wordpool_576.txt	LTP374	ltpFR2	3	4	MILDEW	893	n/a	n/a	0	0	0
868.81982421875	n/a	WORD	1779343	wordpools/wasnorm_wordpool_576.txt	LTP374	ltpFR2	3	4	CHILD	299	n/a	n/a	0	0	0
871.427734375	n/a	WORD	1784684	wordpools/wasnorm_wordpool_576.txt	LTP374	ltpFR2	3	4	SNACK	1331	n/a	n/a	0	0	0
873.8525390625	n/a	WORD	1789650	wordpools/wasnorm_wordpool_576.txt	LTP374	ltpFR2	3	4	CABBAGE	210	n/a	n/a	0	0	0
876.310546875	n/a	WORD	1794684	wordpools/wasnorm_wordpool_576.txt	LTP374	ltpFR2	3	4	KITCHEN	778	n/a	n/a	0	0	0
878.818359375	n/a	WORD	1799820	wordpools/wasnorm_wordpool_576.txt	LTP374	ltpFR2	3	4	HUMAN	726	n/a	n/a	0	0	0
881.62744140625	n/a	WORD	1805573	wordpools/wasnorm_wordpool_576.txt	LTP374	ltpFR2	3	4	NECKLACE	940	n/a	n/a	0	0	0
884.4033203125	n/a	WORD	1811258	wordpools/wasnorm_wordpool_576.txt	LTP374	ltpFR2	3	4	ULCER	1533	n/a	n/a	0	0	0
886.876953125	n/a	WORD	1816324	wordpools/wasnorm_wordpool_576.txt	LTP374	ltpFR2	3	4	PLATE	1086	n/a	n/a	0	0	0
889.43603515625	n/a	WORD	1821565	wordpools/wasnorm_wordpool_576.txt	LTP374	ltpFR2	3	4	RECORD	1176	n/a	n/a	0	0	0
892.17919921875	n/a	WORD	1827183	wordpools/wasnorm_wordpool_576.txt	LTP374	ltpFR2	3	4	CEILING	265	n/a	n/a	0	0	0
893.78369140625	n/a	START	1830469	n/a	LTP374	ltpFR2	3	n/a	n/a	n/a	5	n/a	n/a	n/a	n/a
894.76806640625	n/a	DISTRACTOR	1832485	n/a	LTP374	ltpFR2	3	4	n/a	n/a	n/a	n/a	0	0	0
894.77001953125	n/a	PROB	1832489	n/a	LTP374	ltpFR2	3	n/a	n/a	n/a	5	11	2	8	1
895.95703125	n/a	PROB	1834920	n/a	LTP374	ltpFR2	3	n/a	n/a	n/a	5	13	8	1	4
897.2119140625	n/a	PROB	1837490	n/a	LTP374	ltpFR2	3	n/a	n/a	n/a	5	5	1	3	1
898.02978515625	n/a	PROB	1839165	n/a	LTP374	ltpFR2	3	n/a	n/a	n/a	5	14	3	5	6
899.41796875	n/a	PROB	1842008	n/a	LTP374	ltpFR2	3	n/a	n/a	n/a	5	18	6	5	7
900.62158203125	n/a	PROB	1844473	n/a	LTP374	ltpFR2	3	n/a	n/a	n/a	5	13	6	6	1
901.54150390625	n/a	PROB	1846357	n/a	LTP374	ltpFR2	3	n/a	n/a	n/a	5	15	7	1	7
902.4775390625	n/a	PROB	1848274	n/a	LTP374	ltpFR2	3	n/a	n/a	n/a	5	19	6	6	7
904.2333984375	n/a	PROB	1851870	n/a	LTP374	ltpFR2	3	n/a	n/a	n/a	5	20	8	9	3
905.32080078125	n/a	PROB	1854097	n/a	LTP374	ltpFR2	3	n/a	n/a	n/a	5	22	7	6	9
906.70751953125	n/a	PROB	1856937	n/a	LTP374	ltpFR2	3	n/a	n/a	n/a	5	14	4	6	4
907.64453125	n/a	PROB	1858856	n/a	LTP374	ltpFR2	3	n/a	n/a	n/a	5	1	1	8	3
908.74755859375	n/a	PROB	1861115	n/a	LTP374	ltpFR2	3	n/a	n/a	n/a	5	16	8	2	6
909.83447265625	n/a	PROB	1863341	n/a	LTP374	ltpFR2	3	n/a	n/a	n/a	5	20	8	3	9
911.15625	n/a	PROB	1866048	n/a	LTP374	ltpFR2	3	n/a	n/a	n/a	5	13	3	3	7
912.04150390625	n/a	PROB	1867861	n/a	LTP374	ltpFR2	3	n/a	n/a	n/a	5	18	3	7	8
912.96142578125	n/a	PROB	1869745	n/a	LTP374	ltpFR2	3	n/a	n/a	n/a	5	18	5	5	8
913.76416015625	n/a	PROB	1871389	n/a	LTP374	ltpFR2	3	n/a	n/a	n/a	5	17	5	5	7
914.650390625	n/a	PROB	1873204	n/a	LTP374	ltpFR2	3	n/a	n/a	n/a	5	7	5	1	1
915.51953125	n/a	PROB	1874984	n/a	LTP374	ltpFR2	3	n/a	n/a	n/a	5	19	6	9	4
916.55615234375	n/a	STOP	1877107	n/a	LTP374	ltpFR2	3	n/a	n/a	n/a	5	n/a	n/a	n/a	n/a
919.5830078125	n/a	REC_START	1883306	n/a	LTP374	ltpFR2	3	4	n/a	n/a	n/a	n/a	0	0	0
920.81201171875	n/a	REC_WORD	1885823	wordpools/wasnorm_wordpool_576.txt	LTP374	ltpFR2	3	4	ULCER	1533	n/a	n/a	0	0	0
921.947265625	n/a	REC_WORD	1888148	wordpools/wasnorm_wordpool_576.txt	LTP374	ltpFR2	3	4	SPARROW	1347	n/a	n/a	0	0	0
923.51513671875	n/a	REC_WORD	1891359	wordpools/wasnorm_wordpool_576.txt	LTP374	ltpFR2	3	4	CABBAGE	210	n/a	n/a	0	0	0
924.94287109375	n/a	REC_WORD	1894283	wordpools/wasnorm_wordpool_576.txt	LTP374	ltpFR2	3	4	KITCHEN	778	n/a	n/a	0	0	0
926.39892578125	n/a	REC_WORD	1897265	wordpools/wasnorm_wordpool_576.txt	LTP374	ltpFR2	3	4	RECORD	1176	n/a	n/a	0	0	0
927.5478515625	n/a	REC_WORD	1899618	wordpools/wasnorm_wordpool_576.txt	LTP374	ltpFR2	3	4	FILM	565	n/a	n/a	0	0	0
929.0048828125	n/a	REC_WORD	1902602	wordpools/wasnorm_wordpool_576.txt	LTP374	ltpFR2	3	4	CONCERT	360	n/a	n/a	0	0	0
930.27587890625	n/a	REC_WORD	1905205	wordpools/wasnorm_wordpool_576.txt	LTP374	ltpFR2	3	4	PRINCESS	1125	n/a	n/a	0	0	0
931.921875	n/a	REC_WORD	1908576	wordpools/wasnorm_wordpool_576.txt	LTP374	ltpFR2	3	4	CROWN	415	n/a	n/a	0	0	0
948.283203125	n/a	REC_WORD	1942084	wordpools/wasnorm_wordpool_576.txt	LTP374	ltpFR2	3	4	NECKLACE	940	n/a	n/a	0	0	0
1010.0068359375	n/a	DISTRACTOR	2068494	n/a	LTP374	ltpFR2	3	5	n/a	n/a	n/a	n/a	0	0	0
1010.0068359375	n/a	START	2068494	n/a	LTP374	ltpFR2	3	n/a	n/a	n/a	6	n/a	n/a	n/a	n/a
1010.0224609375	n/a	PROB	2068526	n/a	LTP374	ltpFR2	3	n/a	n/a	n/a	6	16	2	8	6
1011.009765625	n/a	PROB	2070548	n/a	LTP374	ltpFR2	3	n/a	n/a	n/a	6	14	7	1	6
1012.49755859375	n/a	PROB	2073595	n/a	LTP374	ltpFR2	3	n/a	n/a	n/a	6	19	7	8	4
1013.484375	n/a	PROB	2075616	n/a	LTP374	ltpFR2	3	n/a	n/a	n/a	6	14	4	3	7
1014.45361328125	n/a	PROB	2077601	n/a	LTP374	ltpFR2	3	n/a	n/a	n/a	6	11	4	3	4
1015.59033203125	n/a	PROB	2079929	n/a	LTP374	ltpFR2	3	n/a	n/a	n/a	6	10	1	2	7
1016.91162109375	n/a	PROB	2082635	n/a	LTP374	ltpFR2	3	n/a	n/a	n/a	6	17	7	4	6
1018.400390625	n/a	PROB	2085684	n/a	LTP374	ltpFR2	3	n/a	n/a	n/a	6	12	8	2	2
1019.30322265625	n/a	PROB	2087533	n/a	LTP374	ltpFR2	3	n/a	n/a	n/a	6	17	9	6	2
1020.38916015625	n/a	PROB	2089757	n/a	LTP374	ltpFR2	3	n/a	n/a	n/a	6	16	9	1	7
1021.54345703125	n/a	PROB	2092121	n/a	LTP374	ltpFR2	3	n/a	n/a	n/a	6	23	7	9	7
1023.1494140625	n/a	PROB	2095410	n/a	LTP374	ltpFR2	3	n/a	n/a	n/a	6	23	8	9	6
1024.21923828125	n/a	PROB	2097601	n/a	LTP374	ltpFR2	3	n/a	n/a	n/a	6	21	7	8	6
1025.35546875	n/a	PROB	2099928	n/a	LTP374	ltpFR2	3	n/a	n/a	n/a	6	2	9	3	8
1026.67626953125	n/a	PROB	2102633	n/a	LTP374	ltpFR2	3	n/a	n/a	n/a	6	15	6	1	8
1027.7802734375	n/a	PROB	2104894	n/a	LTP374	ltpFR2	3	n/a	n/a	n/a	6	21	9	8	4
1029.0341796875	n/a	PROB	2107462	n/a	LTP374	ltpFR2	3	n/a	n/a	n/a	6	15	8	3	4
1029.9873046875	n/a	PROB	2109414	n/a	LTP374	ltpFR2	3	n/a	n/a	n/a	6	18	8	7	3
1031.35791015625	n/a	PROB	2112221	n/a	LTP374	ltpFR2	3	n/a	n/a	n/a	6	9	1	2	6
1032.31103515625	n/a	PROB	2114173	n/a	LTP374	ltpFR2	3	n/a	n/a	n/a	6	17	7	3	7
1033.40478515625	n/a	STOP	2116413	n/a	LTP374	ltpFR2	3	n/a	n/a	n/a	6	n/a	n/a	n/a	n/a
1035.18798828125	n/a	WORD	2120065	wordpools/wasnorm_wordpool_576.txt	LTP374	ltpFR2	3	5	LAKE	796	n/a	n/a	0	0	0
1037.61181640625	n/a	WORD	2125029	wordpools/wasnorm_wordpool_576.txt	LTP374	ltpFR2	3	5	ARM	38	n/a	n/a	0	0	0
1040.220703125	n/a	WORD	2130372	wordpools/wasnorm_wordpool_576.txt	LTP374	ltpFR2	3	5	NURSE	963	n/a	n/a	0	0	0
1042.7119140625	n/a	WORD	2135474	wordpools/wasnorm_wordpool_576.txt	LTP374	ltpFR2	3	5	POET	1095	n/a	n/a	0	0	0
1045.419921875	n/a	WORD	2141020	wordpools/wasnorm_wordpool_576.txt	LTP374	ltpFR2	3	5	MARINE	869	n/a	n/a	0	0	0
1048.0615234375	n/a	WORD	2146430	wordpools/wasnorm_wordpool_576.txt	LTP374	ltpFR2	3	5	COURSE	390	n/a	n/a	0	0	0
1050.70361328125	n/a	WORD	2151841	wordpools/wasnorm_wordpool_576.txt	LTP374	ltpFR2	3	5	JUDGE	761	n/a	n/a	0	0	0
1053.3955078125	n/a	WORD	2157354	wordpools/wasnorm_wordpool_576.txt	LTP374	ltpFR2	3	5	BRIEFCASE	175	n/a	n/a	0	0	0
1055.97021484375	n/a	WORD	2162627	wordpools/wasnorm_wordpool_576.txt	LTP374	ltpFR2	3	5	SCRIBBLE	1256	n/a	n/a	0	0	0
1058.412109375	n/a	WORD	2167628	wordpools/wasnorm_wordpool_576.txt	LTP374	ltpFR2	3	5	WHISTLE	1606	n/a	n/a	0	0	0
1060.953125	n/a	WORD	2172832	wordpools/wasnorm_wordpool_576.txt	LTP374	ltpFR2	3	5	COCOON	339	n/a	n/a	0	0	0
1063.662109375	n/a	WORD	2178380	wordpools/wasnorm_wordpool_576.txt	LTP374	ltpFR2	3	5	SLOPE	1328	n/a	n/a	0	0	0
1066.27001953125	n/a	WORD	2183721	wordpools/wasnorm_wordpool_576.txt	LTP374	ltpFR2	3	5	DOLPHIN	483	n/a	n/a	0	0	0
1068.84521484375	n/a	WORD	2188995	wordpools/wasnorm_wordpool_576.txt	LTP374	ltpFR2	3	5	STOVE	1388	n/a	n/a	0	0	0
1071.287109375	n/a	WORD	2193996	wordpools/wasnorm_wordpool_576.txt	LTP374	ltpFR2	3	5	SKILLET	1317	n/a	n/a	0	0	0
1074.0966796875	n/a	WORD	2199750	wordpools/wasnorm_wordpool_576.txt	LTP374	ltpFR2	3	5	AIRPORT	13	n/a	n/a	0	0	0
1076.75390625	n/a	WORD	2205192	wordpools/wasnorm_wordpool_576.txt	LTP374	ltpFR2	3	5	PILOT	1070	n/a	n/a	0	0	0
1079.2958984375	n/a	WORD	2210398	wordpools/wasnorm_wordpool_576.txt	LTP374	ltpFR2	3	5	OX	994	n/a	n/a	0	0	0
1081.9375	n/a	WORD	2215808	wordpools/wasnorm_wordpool_576.txt	LTP374	ltpFR2	3	5	PATROL	1027	n/a	n/a	0	0	0
1084.7294921875	n/a	WORD	2221526	wordpools/wasnorm_wordpool_576.txt	LTP374	ltpFR2	3	5	PUPIL	1143	n/a	n/a	0	0	0
1087.25439453125	n/a	WORD	2226697	wordpools/wasnorm_wordpool_576.txt	LTP374	ltpFR2	3	5	MASK	876	n/a	n/a	0	0	0
1089.98046875	n/a	WORD	2232280	wordpools/wasnorm_wordpool_576.txt	LTP374	ltpFR2	3	5	YARN	1631	n/a	n/a	0	0	0
1092.7724609375	n/a	WORD	2237998	wordpools/wasnorm_wordpool_576.txt	LTP374	ltpFR2	3	5	DASHBOARD	441	n/a	n/a	0	0	0
1095.23046875	n/a	WORD	2243032	wordpools/wasnorm_wordpool_576.txt	LTP374	ltpFR2	3	5	POPCORN	1104	n/a	n/a	0	0	0
1096.83544921875	n/a	START	2246319	n/a	LTP374	ltpFR2	3	n/a	n/a	n/a	7	n/a	n/a	n/a	n/a
1097.84619140625	n/a	DISTRACTOR	2248389	n/a	LTP374	ltpFR2	3	5	n/a	n/a	n/a	n/a	0	0	0
1097.85498046875	n/a	PROB	2248407	n/a	LTP374	ltpFR2	3	n/a	n/a	n/a	7	16	2	5	9
1099.443359375	n/a	PROB	2251660	n/a	LTP374	ltpFR2	3	n/a	n/a	n/a	7	9	7	1	1
1100.197265625	n/a	PROB	2253204	n/a	LTP374	ltpFR2	3	n/a	n/a	n/a	7	17	7	9	1
1101.2490234375	n/a	PROB	2255358	n/a	LTP374	ltpFR2	3	n/a	n/a	n/a	7	15	5	5	5
1102.10302734375	n/a	PROB	2257107	n/a	LTP374	ltpFR2	3	n/a	n/a	n/a	7	6	1	4	1
1103.0048828125	n/a	PROB	2258954	n/a	LTP374	ltpFR2	3	n/a	n/a	n/a	7	17	9	7	1
1104.0078125	n/a	PROB	2261008	n/a	LTP374	ltpFR2	3	n/a	n/a	n/a	7	14	4	3	7
1104.97802734375	n/a	PROB	2262995	n/a	LTP374	ltpFR2	3	n/a	n/a	n/a	7	16	2	9	5
1106.166015625	n/a	PROB	2265428	n/a	LTP374	ltpFR2	3	n/a	n/a	n/a	7	7	1	3	3
1107.369140625	n/a	PROB	2267892	n/a	LTP374	ltpFR2	3	n/a	n/a	n/a	7	8	3	1	4
1108.18896484375	n/a	PROB	2269571	n/a	LTP374	ltpFR2	3	n/a	n/a	n/a	7	19	5	6	7
1109.22509765625	n/a	PROB	2271693	n/a	LTP374	ltpFR2	3	n/a	n/a	n/a	7	23	5	9	9
1111.0986328125	n/a	PROB	2275530	n/a	LTP374	ltpFR2	3	n/a	n/a	n/a	7	14	2	3	9
1112.11865234375	n/a	PROB	2277619	n/a	LTP374	ltpFR2	3	n/a	n/a	n/a	7	14	1	5	8
1113.27197265625	n/a	PROB	2279981	n/a	LTP374	ltpFR2	3	n/a	n/a	n/a	7	1	3	7	6
1114.125	n/a	PROB	2281728	n/a	LTP374	ltpFR2	3	n/a	n/a	n/a	7	13	3	2	8
1115.44482421875	n/a	PROB	2284431	n/a	LTP374	ltpFR2	3	n/a	n/a	n/a	7	15	4	8	3
1116.81689453125	n/a	PROB	2287241	n/a	LTP374	ltpFR2	3	n/a	n/a	n/a	7	14	4	9	1
1118.00341796875	n/a	PROB	2289671	n/a	LTP374	ltpFR2	3	n/a	n/a	n/a	7	9	4	2	3
1119.0234375	n/a	PROB	2291760	n/a	LTP374	ltpFR2	3	n/a	n/a	n/a	7	13	6	1	6
1119.95654296875	n/a	STOP	2293671	n/a	LTP374	ltpFR2	3	n/a	n/a	n/a	7	n/a	n/a	n/a	n/a
1122.685546875	n/a	REC_START	2299260	n/a	LTP374	ltpFR2	3	5	n/a	n/a	n/a	n/a	0	0	0
1123.50830078125	n/a	REC_WORD	2300945	wordpools/wasnorm_wordpool_576.txt	LTP374	ltpFR2	3	5	SKILLET	1317	n/a	n/a	0	0	0
1124.58740234375	n/a	REC_WORD	2303155	wordpools/wasnorm_wordpool_576.txt	LTP374	ltpFR2	3	5	MASK	876	n/a	n/a	0	0	0
1125.76025390625	n/a	REC_WORD	2305557	wordpools/wasnorm_wordpool_576.txt	LTP374	ltpFR2	3	5	OX	994	n/a	n/a	0	0	0
1126.95361328125	n/a	REC_WORD	2308001	wordpools/wasnorm_wordpool_576.txt	LTP374	ltpFR2	3	5	DASHBOARD	441	n/a	n/a	0	0	0
1128.36328125	n/a	REC_WORD	2310888	wordpools/wasnorm_wordpool_576.txt	LTP374	ltpFR2	3	5	PILOT	1070	n/a	n/a	0	0	0
1131.5361328125	n/a	REC_WORD	2317386	wordpools/wasnorm_wordpool_576.txt	LTP374	ltpFR2	3	5	AIRPORT	13	n/a	n/a	0	0	0
1132.697265625	n/a	REC_WORD	2319764	wordpools/wasnorm_wordpool_576.txt	LTP374	ltpFR2	3	5	JUDGE	761	n/a	n/a	0	0	0
1133.67431640625	n/a	REC_WORD	2321765	wordpools/wasnorm_wordpool_576.txt	LTP374	ltpFR2	3	5	BRIEFCASE	175	n/a	n/a	0	0	0
1134.76123046875	n/a	REC_WORD	2323991	wordpools/wasnorm_wordpool_576.txt	LTP374	ltpFR2	3	5	SCRIBBLE	1256	n/a	n/a	0	0	0
1136.13134765625	n/a	REC_WORD	2326797	wordpools/wasnorm_wordpool_576.txt	LTP374	ltpFR2	3	5	NURSE	963	n/a	n/a	0	0	0
1137.36328125	n/a	REC_WORD	2329320	wordpools/wasnorm_wordpool_576.txt	LTP374	ltpFR2	3	5	ARM	38	n/a	n/a	0	0	0
1138.68115234375	n/a	REC_WORD	2332019	wordpools/wasnorm_wordpool_576.txt	LTP374	ltpFR2	3	5	DOLPHIN	483	n/a	n/a	0	0	0
1139.7900390625	n/a	REC_WORD	2334290	wordpools/wasnorm_wordpool_576.txt	LTP374	ltpFR2	3	5	SLOPE	1328	n/a	n/a	0	0	0
1141.3251953125	n/a	REC_WORD	2337434	wordpools/wasnorm_wordpool_576.txt	LTP374	ltpFR2	3	5	LAKE	796	n/a	n/a	0	0	0
1142.56591796875	n/a	REC_WORD	2339975	wordpools/wasnorm_wordpool_576.txt	LTP374	ltpFR2	3	5	PATROL	1027	n/a	n/a	0	0	0
1143.8408203125	n/a	REC_WORD	2342586	wordpools/wasnorm_wordpool_576.txt	LTP374	ltpFR2	3	5	MARINE	869	n/a	n/a	0	0	0
1145.39404296875	n/a	REC_WORD	2345767	wordpools/wasnorm_wordpool_576.txt	LTP374	ltpFR2	3	5	COURSE	390	n/a	n/a	0	0	0
1150.8369140625	n/a	REC_WORD	2356914	wordpools/wasnorm_wordpool_576.txt	LTP374	ltpFR2	3	5	PILOT	1070	n/a	n/a	0	0	0
1213.14306640625	n/a	WORD	2484517	wordpools/wasnorm_wordpool_576.txt	LTP374	ltpFR2	3	6	GAZELLE	628	n/a	n/a	0	0	0
1215.93505859375	n/a	WORD	2490235	wordpools/wasnorm_wordpool_576.txt	LTP374	ltpFR2	3	6	GARLIC	624	n/a	n/a	0	0	0
1218.52587890625	n/a	WORD	2495541	wordpools/wasnorm_wordpool_576.txt	LTP374	ltpFR2	3	6	DRILL	497	n/a	n/a	0	0	0
1220.9677734375	n/a	WORD	2500542	wordpools/wasnorm_wordpool_576.txt	LTP374	ltpFR2	3	6	SCOTCH	1251	n/a	n/a	0	0	0
1223.5927734375	n/a	WORD	2505918	wordpools/wasnorm_wordpool_576.txt	LTP374	ltpFR2	3	6	CHAMPAGNE	278	n/a	n/a	0	0	0
1226.1015625	n/a	WORD	2511056	wordpools/wasnorm_wordpool_576.txt	LTP374	ltpFR2	3	6	FLOWER	584	n/a	n/a	0	0	0
1228.74267578125	n/a	WORD	2516465	wordpools/wasnorm_wordpool_576.txt	LTP374	ltpFR2	3	6	SHRUB	1299	n/a	n/a	0	0	0
1231.3505859375	n/a	WORD	2521806	wordpools/wasnorm_wordpool_576.txt	LTP374	ltpFR2	3	6	TABLE	1426	n/a	n/a	0	0	0
1234.12744140625	n/a	WORD	2527493	wordpools/wasnorm_wordpool_576.txt	LTP374	ltpFR2	3	6	SPOON	1357	n/a	n/a	0	0	0
1236.55029296875	n/a	WORD	2532455	wordpools/wasnorm_wordpool_576.txt	LTP374	ltpFR2	3	6	SHARK	1275	n/a	n/a	0	0	0
1239.326171875	n/a	WORD	2538140	wordpools/wasnorm_wordpool_576.txt	LTP374	ltpFR2	3	6	SCALPEL	1243	n/a	n/a	0	0	0
1241.88427734375	n/a	WORD	2543379	wordpools/wasnorm_wordpool_576.txt	LTP374	ltpFR2	3	6	SWORD	1423	n/a	n/a	0	0	0
1244.576171875	n/a	WORD	2548892	wordpools/wasnorm_wordpool_576.txt	LTP374	ltpFR2	3	6	SEAL	1262	n/a	n/a	0	0	0
1247.06787109375	n/a	WORD	2553995	wordpools/wasnorm_wordpool_576.txt	LTP374	ltpFR2	3	6	GREASE	660	n/a	n/a	0	0	0
1249.5087890625	n/a	WORD	2558994	wordpools/wasnorm_wordpool_576.txt	LTP374	ltpFR2	3	6	POLICE	1098	n/a	n/a	0	0	0
1252.05078125	n/a	WORD	2564200	wordpools/wasnorm_wordpool_576.txt	LTP374	ltpFR2	3	6	SPHINX	1349	n/a	n/a	0	0	0
1254.72607421875	n/a	WORD	2569679	wordpools/wasnorm_wordpool_576.txt	LTP374	ltpFR2	3	6	YACHT	1629	n/a	n/a	0	0	0
1257.3505859375	n/a	WORD	2575054	wordpools/wasnorm_wordpool_576.txt	LTP374	ltpFR2	3	6	SHERIFF	1284	n/a	n/a	0	0	0
1259.90869140625	n/a	WORD	2580293	wordpools/wasnorm_wordpool_576.txt	LTP374	ltpFR2	3	6	BADGE	68	n/a	n/a	0	0	0
1262.43359375	n/a	WORD	2585464	wordpools/wasnorm_wordpool_576.txt	LTP374	ltpFR2	3	6	NOVEL	960	n/a	n/a	0	0	0
1265.07666015625	n/a	WORD	2590877	wordpools/wasnorm_wordpool_576.txt	LTP374	ltpFR2	3	6	ROBOT	1200	n/a	n/a	0	0	0
1267.83447265625	n/a	WORD	2596525	wordpools/wasnorm_wordpool_576.txt	LTP374	ltpFR2	3	6	TROMBONE	1508	n/a	n/a	0	0	0
1270.45947265625	n/a	WORD	2601901	wordpools/wasnorm_wordpool_576.txt	LTP374	ltpFR2	3	6	SALT	1229	n/a	n/a	0	0	0
1273.15234375	n/a	WORD	2607416	wordpools/wasnorm_wordpool_576.txt	LTP374	ltpFR2	3	6	PARSLEY	1016	n/a	n/a	0	0	0
1274.75732421875	n/a	START	2610703	n/a	LTP374	ltpFR2	3	n/a	n/a	n/a	8	n/a	n/a	n/a	n/a
1275.72216796875	n/a	DISTRACTOR	2612679	n/a	LTP374	ltpFR2	3	6	n/a	n/a	n/a	n/a	0	0	0
1275.72607421875	n/a	PROB	2612687	n/a	LTP374	ltpFR2	3	n/a	n/a	n/a	8	13	3	1	9
1277.09814453125	n/a	PROB	2615497	n/a	LTP374	ltpFR2	3	n/a	n/a	n/a	8	19	7	4	8
1278.21826171875	n/a	PROB	2617791	n/a	LTP374	ltpFR2	3	n/a	n/a	n/a	8	15	7	2	6
1279.80615234375	n/a	PROB	2621043	n/a	LTP374	ltpFR2	3	n/a	n/a	n/a	8	14	1	7	6
1280.89306640625	n/a	PROB	2623269	n/a	LTP374	ltpFR2	3	n/a	n/a	n/a	8	9	1	2	6
1281.76220703125	n/a	PROB	2625049	n/a	LTP374	ltpFR2	3	n/a	n/a	n/a	8	19	9	8	2
1283.01708984375	n/a	PROB	2627619	n/a	LTP374	ltpFR2	3	n/a	n/a	n/a	8	20	4	7	9
1284.087890625	n/a	PROB	2629812	n/a	LTP374	ltpFR2	3	n/a	n/a	n/a	8	14	9	4	1
1285.14111328125	n/a	PROB	2631969	n/a	LTP374	ltpFR2	3	n/a	n/a	n/a	8	15	1	6	8
1286.1611328125	n/a	PROB	2634058	n/a	LTP374	ltpFR2	3	n/a	n/a	n/a	8	14	7	4	3
1287.498046875	n/a	PROB	2636796	n/a	LTP374	ltpFR2	3	n/a	n/a	n/a	8	18	8	3	7
1288.73486328125	n/a	PROB	2639329	n/a	LTP374	ltpFR2	3	n/a	n/a	n/a	8	14	3	5	6
1290.306640625	n/a	PROB	2642548	n/a	LTP374	ltpFR2	3	n/a	n/a	n/a	8	17	9	7	1
1291.27685546875	n/a	PROB	2644535	n/a	LTP374	ltpFR2	3	n/a	n/a	n/a	8	11	6	3	2
1293.20068359375	n/a	PROB	2648475	n/a	LTP374	ltpFR2	3	n/a	n/a	n/a	8	16	2	9	5
1294.26953125	n/a	PROB	2650664	n/a	LTP374	ltpFR2	3	n/a	n/a	n/a	8	27	9	9	9
1295.32275390625	n/a	PROB	2652821	n/a	LTP374	ltpFR2	3	n/a	n/a	n/a	8	14	2	6	6
1296.57666015625	n/a	PROB	2655389	n/a	LTP374	ltpFR2	3	n/a	n/a	n/a	8	11	3	1	7
1297.57373046875	n/a	STOP	2657431	n/a	LTP374	ltpFR2	3	n/a	n/a	n/a	8	n/a	n/a	n/a	n/a
1300.640625	n/a	REC_START	2663712	n/a	LTP374	ltpFR2	3	6	n/a	n/a	n/a	n/a	0	0	0
1301.63671875	n/a	REC_WORD	2665752	wordpools/wasnorm_wordpool_576.txt	LTP374	ltpFR2	3	6	SPHINX	1349	n/a	n/a	0	0	0
1302.91357421875	n/a	REC_WORD	2668367	wordpools/wasnorm_wordpool_576.txt	LTP374	ltpFR2	3	6	SALT	1229	n/a	n/a	0	0	0
1304.28955078125	n/a	REC_WORD	2671185	wordpools/wasnorm_wordpool_576.txt	LTP374	ltpFR2	3	6	GREASE	660	n/a	n/a	0	0	0
1305.62744140625	n/a	REC_WORD	2673925	wordpools/wasnorm_wordpool_576.txt	LTP374	ltpFR2	3	6	TABLE	1426	n/a	n/a	0	0	0
1306.8232421875	n/a	REC_WORD	2676374	wordpools/wasnorm_wordpool_576.txt	LTP374	ltpFR2	3	6	CHAMPAGNE	278	n/a	n/a	0	0	0
1312.287109375	n/a	REC_WORD	2687564	wordpools/wasnorm_wordpool_576.txt	LTP374	ltpFR2	3	6	SHARK	1275	n/a	n/a	0	0	0
1313.90234375	n/a	REC_WORD	2690872	wordpools/wasnorm_wordpool_576.txt	LTP374	ltpFR2	3	6	SEAL	1262	n/a	n/a	0	0	0
1315.09619140625	n/a	REC_WORD	2693317	wordpools/wasnorm_wordpool_576.txt	LTP374	ltpFR2	3	6	GAZELLE	628	n/a	n/a	0	0	0
1316.14892578125	n/a	REC_WORD	2695473	wordpools/wasnorm_wordpool_576.txt	LTP374	ltpFR2	3	6	FLOWER	584	n/a	n/a	0	0	0
1317.21923828125	n/a	REC_WORD	2697665	wordpools/wasnorm_wordpool_576.txt	LTP374	ltpFR2	3	6	SHRUB	1299	n/a	n/a	0	0	0
1318.5908203125	n/a	REC_WORD	2700474	wordpools/wasnorm_wordpool_576.txt	LTP374	ltpFR2	3	6	YACHT	1629	n/a	n/a	0	0	0
1319.90380859375	n/a	REC_WORD	2703163	wordpools/wasnorm_wordpool_576.txt	LTP374	ltpFR2	3	6	POLICE	1098	n/a	n/a	0	0	0
1320.93701171875	n/a	REC_WORD	2705279	wordpools/wasnorm_wordpool_576.txt	LTP374	ltpFR2	3	6	SHERIFF	1284	n/a	n/a	0	0	0
1322.291015625	n/a	REC_WORD	2708052	wordpools/wasnorm_wordpool_576.txt	LTP374	ltpFR2	3	6	BADGE	68	n/a	n/a	0	0	0
1323.5	n/a	REC_WORD	2710528	wordpools/wasnorm_wordpool_576.txt	LTP374	ltpFR2	3	6	SWORD	1423	n/a	n/a	0	0	0
1324.77587890625	n/a	REC_WORD	2713141	wordpools/wasnorm_wordpool_576.txt	LTP374	ltpFR2	3	6	SCALPEL	1243	n/a	n/a	0	0	0
1349.35595703125	n/a	REC_WORD	2763481	wordpools/wasnorm_wordpool_576.txt	LTP374	ltpFR2	3	6	SPHINX	1349	n/a	n/a	0	0	0
1391.0810546875	n/a	WORD	2848934	wordpools/wasnorm_wordpool_576.txt	LTP374	ltpFR2	3	7	TURKEY	1520	n/a	n/a	0	0	0
1393.77197265625	n/a	WORD	2854445	wordpools/wasnorm_wordpool_576.txt	LTP374	ltpFR2	3	7	CANDY	230	n/a	n/a	0	0	0
1396.4638671875	n/a	WORD	2859958	wordpools/wasnorm_wordpool_576.txt	LTP374	ltpFR2	3	7	CLOUD	328	n/a	n/a	0	0	0
1398.97265625	n/a	WORD	2865096	wordpools/wasnorm_wordpool_576.txt	LTP374	ltpFR2	3	7	CHEST	295	n/a	n/a	0	0	0
1401.44677734375	n/a	WORD	2870163	wordpools/wasnorm_wordpool_576.txt	LTP374	ltpFR2	3	7	ROOSTER	1209	n/a	n/a	0	0	0
1403.95458984375	n/a	WORD	2875299	wordpools/wasnorm_wordpool_576.txt	LTP374	ltpFR2	3	7	ACTOR	5	n/a	n/a	0	0	0
1406.4794921875	n/a	WORD	2880470	wordpools/wasnorm_wordpool_576.txt	LTP374	ltpFR2	3	7	BURGLAR	200	n/a	n/a	0	0	0
1409.15673828125	n/a	WORD	2885953	wordpools/wasnorm_wordpool_576.txt	LTP374	ltpFR2	3	7	SUSPECT	1415	n/a	n/a	0	0	0
1411.86328125	n/a	WORD	2891496	wordpools/wasnorm_wordpool_576.txt	LTP374	ltpFR2	3	7	SUPPER	1411	n/a	n/a	0	0	0
1414.28857421875	n/a	WORD	2896463	wordpools/wasnorm_wordpool_576.txt	LTP374	ltpFR2	3	7	CASHIER	254	n/a	n/a	0	0	0
1417.04736328125	n/a	WORD	2902113	wordpools/wasnorm_wordpool_576.txt	LTP374	ltpFR2	3	7	COWBOY	395	n/a	n/a	0	0	0
1419.822265625	n/a	WORD	2907796	wordpools/wasnorm_wordpool_576.txt	LTP374	ltpFR2	3	7	POSSUM	1112	n/a	n/a	0	0	0
1422.34716796875	n/a	WORD	2912967	wordpools/wasnorm_wordpool_576.txt	LTP374	ltpFR2	3	7	ZIPPER	1636	n/a	n/a	0	0	0
1425.05615234375	n/a	WORD	2918515	wordpools/wasnorm_wordpool_576.txt	LTP374	ltpFR2	3	7	DENIM	446	n/a	n/a	0	0	0
1427.4970703125	n/a	WORD	2923514	wordpools/wasnorm_wordpool_576.txt	LTP374	ltpFR2	3	7	JUNGLE	764	n/a	n/a	0	0	0
1430.22314453125	n/a	WORD	2929097	wordpools/wasnorm_wordpool_576.txt	LTP374	ltpFR2	3	7	HARP	689	n/a	n/a	0	0	0
1432.69677734375	n/a	WORD	2934163	wordpools/wasnorm_wordpool_576.txt	LTP374	ltpFR2	3	7	EGYPT	519	n/a	n/a	0	0	0
1435.3896484375	n/a	WORD	2939678	wordpools/wasnorm_wordpool_576.txt	LTP374	ltpFR2	3	7	TART	1436	n/a	n/a	0	0	0
1438.08251953125	n/a	WORD	2945193	wordpools/wasnorm_wordpool_576.txt	LTP374	ltpFR2	3	7	SHELF	1280	n/a	n/a	0	0	0
1440.60546875	n/a	WORD	2950360	wordpools/wasnorm_wordpool_576.txt	LTP374	ltpFR2	3	7	ISLAND	745	n/a	n/a	0	0	0
1443.314453125	n/a	WORD	2955908	wordpools/wasnorm_wordpool_576.txt	LTP374	ltpFR2	3	7	TRENCH	1503	n/a	n/a	0	0	0
1445.939453125	n/a	WORD	2961284	wordpools/wasnorm_wordpool_576.txt	LTP374	ltpFR2	3	7	CUSTARD	429	n/a	n/a	0	0	0
1448.5986328125	n/a	WORD	2966730	wordpools/wasnorm_wordpool_576.txt	LTP374	ltpFR2	3	7	SNAKE	1333	n/a	n/a	0	0	0
1451.14111328125	n/a	WORD	2971937	wordpools/wasnorm_wordpool_576.txt	LTP374	ltpFR2	3	7	NOTEBOOK	959	n/a	n/a	0	0	0
1452.7451171875	n/a	START	2975222	n/a	LTP374	ltpFR2	3	n/a	n/a	n/a	9	n/a	n/a	n/a	n/a
1453.9453125	n/a	DISTRACTOR	2977680	n/a	LTP374	ltpFR2	3	7	n/a	n/a	n/a	n/a	0	0	0
1453.94921875	n/a	PROB	2977688	n/a	LTP374	ltpFR2	3	n/a	n/a	n/a	9	17	3	7	7
1455.27001953125	n/a	PROB	2980393	n/a	LTP374	ltpFR2	3	n/a	n/a	n/a	9	17	5	3	9
1456.8251953125	n/a	PROB	2983578	n/a	LTP374	ltpFR2	3	n/a	n/a	n/a	9	15	5	7	3
1458.21337890625	n/a	PROB	2986421	n/a	LTP374	ltpFR2	3	n/a	n/a	n/a	9	20	8	4	8
1459.76708984375	n/a	PROB	2989603	n/a	LTP374	ltpFR2	3	n/a	n/a	n/a	9	16	8	1	7
1461.5400390625	n/a	PROB	2993234	n/a	LTP374	ltpFR2	3	n/a	n/a	n/a	9	19	8	4	7
1462.4599609375	n/a	PROB	2995118	n/a	LTP374	ltpFR2	3	n/a	n/a	n/a	9	12	4	4	4
1463.42919921875	n/a	PROB	2997103	n/a	LTP374	ltpFR2	3	n/a	n/a	n/a	9	17	4	5	8
1464.533203125	n/a	PROB	2999364	n/a	LTP374	ltpFR2	3	n/a	n/a	n/a	9	12	2	8	2
1465.4189453125	n/a	PROB	3001178	n/a	LTP374	ltpFR2	3	n/a	n/a	n/a	9	18	8	8	2
1466.3388671875	n/a	PROB	3003062	n/a	LTP374	ltpFR2	3	n/a	n/a	n/a	9	8	4	2	2
1467.15869140625	n/a	PROB	3004741	n/a	LTP374	ltpFR2	3	n/a	n/a	n/a	9	10	6	1	3
1468.06103515625	n/a	PROB	3006589	n/a	LTP374	ltpFR2	3	n/a	n/a	n/a	9	19	4	6	9
1468.94677734375	n/a	PROB	3008403	n/a	LTP374	ltpFR2	3	n/a	n/a	n/a	9	20	9	8	3
1469.93359375	n/a	PROB	3010424	n/a	LTP374	ltpFR2	3	n/a	n/a	n/a	9	18	6	5	7
1471.03662109375	n/a	PROB	3012683	n/a	LTP374	ltpFR2	3	n/a	n/a	n/a	9	13	3	4	6
1472.4248046875	n/a	PROB	3015526	n/a	LTP374	ltpFR2	3	n/a	n/a	n/a	9	17	7	2	8
1474.28076171875	n/a	PROB	3019327	n/a	LTP374	ltpFR2	3	n/a	n/a	n/a	9	9	4	1	3
1475.33349609375	n/a	STOP	3021483	n/a	LTP374	ltpFR2	3	n/a	n/a	n/a	9	n/a	n/a	n/a	n/a
1478.6455078125	n/a	REC_START	3028266	n/a	LTP374	ltpFR2	3	7	n/a	n/a	n/a	n/a	0	0	0
1480.29150390625	n/a	REC_WORD	3031637	wordpools/wasnorm_wordpool_576.txt	LTP374	ltpFR2	3	7	ISLAND	745	n/a	n/a	0	0	0
1481.306640625	n/a	REC_WORD	3033716	wordpools/wasnorm_wordpool_576.txt	LTP374	ltpFR2	3	7	SNAKE	1333	n/a	n/a	0	0	0
1482.83642578125	n/a	REC_WORD	3036849	wordpools/wasnorm_wordpool_576.txt	LTP374	ltpFR2	3	7	JUNGLE	764	n/a	n/a	0	0	0
1484.86328125	n/a	REC_WORD	3041000	wordpools/wasnorm_wordpool_576.txt	LTP374	ltpFR2	3	7	TURKEY	1520	n/a	n/a	0	0	0
1485.9072265625	n/a	REC_WORD	3043138	wordpools/wasnorm_wordpool_576.txt	LTP374	ltpFR2	3	7	POSSUM	1112	n/a	n/a	0	0	0
1488.30810546875	n/a	REC_WORD	3048055	wordpools/wasnorm_wordpool_576.txt	LTP374	ltpFR2	3	7	SUPPER	1411	n/a	n/a	0	0	0
1489.80517578125	n/a	REC_WORD	3051121	wordpools/wasnorm_wordpool_576.txt	LTP374	ltpFR2	3	7	CASHIER	254	n/a	n/a	0	0	0
1491.15234375	n/a	REC_WORD	3053880	wordpools/wasnorm_wordpool_576.txt	LTP374	ltpFR2	3	7	SHELF	1280	n/a	n/a	0	0	0
1493.67919921875	n/a	REC_WORD	3059055	wordpools/wasnorm_wordpool_576.txt	LTP374	ltpFR2	3	7	ACTOR	5	n/a	n/a	0	0	0
1505.6669921875	n/a	REC_WORD	3083606	wordpools/wasnorm_wordpool_576.txt	LTP374	ltpFR2	3	7	CHEST	295	n/a	n/a	0	0	0
1506.763671875	n/a	REC_WORD	3085852	wordpools/wasnorm_wordpool_576.txt	LTP374	ltpFR2	3	7	DENIM	446	n/a	n/a	0	0	0
1514.61572265625	n/a	REC_WORD	3101933	wordpools/wasnorm_wordpool_576.txt	LTP374	ltpFR2	3	7	CUSTARD	429	n/a	n/a	0	0	0
1532.73583984375	n/a	REC_WORD	3139043	wordpools/wasnorm_wordpool_576.txt	LTP374	ltpFR2	3	7	NOTEBOOK	959	n/a	n/a	0	0	0
1542.849609375	n/a	REC_WORD	3159756	wordpools/wasnorm_wordpool_576.txt	LTP374	ltpFR2	3	7	CANDY	230	n/a	n/a	0	0	0
1544.8466796875	n/a	REC_WORD	3163846	wordpools/wasnorm_wordpool_576.txt	LTP374	ltpFR2	3	7	CLOUD	328	n/a	n/a	0	0	0
1569.0859375	n/a	WORD	3213488	wordpools/wasnorm_wordpool_576.txt	LTP374	ltpFR2	3	8	BUGGY	188	n/a	n/a	0	0	0
1571.8779296875	n/a	WORD	3219206	wordpools/wasnorm_wordpool_576.txt	LTP374	ltpFR2	3	8	BLOCKADE	137	n/a	n/a	0	0	0
1574.3017578125	n/a	WORD	3224170	wordpools/wasnorm_wordpool_576.txt	LTP374	ltpFR2	3	8	TOURIST	1488	n/a	n/a	0	0	0
1576.97802734375	n/a	WORD	3229651	wordpools/wasnorm_wordpool_576.txt	LTP374	ltpFR2	3	8	SUITCASE	1403	n/a	n/a	0	0	0
1579.552734375	n/a	WORD	3234924	wordpools/wasnorm_wordpool_576.txt	LTP374	ltpFR2	3	8	COMET	353	n/a	n/a	0	0	0
1582.11181640625	n/a	WORD	3240165	wordpools/wasnorm_wordpool_576.txt	LTP374	ltpFR2	3	8	ELBOW	520	n/a	n/a	0	0	0
1584.65185546875	n/a	WORD	3245367	wordpools/wasnorm_wordpool_576.txt	LTP374	ltpFR2	3	8	GARBAGE	622	n/a	n/a	0	0	0
1587.39453125	n/a	WORD	3250984	wordpools/wasnorm_wordpool_576.txt	LTP374	ltpFR2	3	8	PUDDLE	1140	n/a	n/a	0	0	0
1590.12060546875	n/a	WORD	3256567	wordpools/wasnorm_wordpool_576.txt	LTP374	ltpFR2	3	8	BATHTUB	100	n/a	n/a	0	0	0
1592.71142578125	n/a	WORD	3261873	wordpools/wasnorm_wordpool_576.txt	LTP374	ltpFR2	3	8	ITEM	746	n/a	n/a	0	0	0
1595.3193359375	n/a	WORD	3267214	wordpools/wasnorm_wordpool_576.txt	LTP374	ltpFR2	3	8	SADDLE	1221	n/a	n/a	0	0	0
1597.81103515625	n/a	WORD	3272317	wordpools/wasnorm_wordpool_576.txt	LTP374	ltpFR2	3	8	RUST	1219	n/a	n/a	0	0	0
1600.2353515625	n/a	WORD	3277282	wordpools/wasnorm_wordpool_576.txt	LTP374	ltpFR2	3	8	PUDDING	1139	n/a	n/a	0	0	0
1603.0439453125	n/a	WORD	3283034	wordpools/wasnorm_wordpool_576.txt	LTP374	ltpFR2	3	8	CATTLE	261	n/a	n/a	0	0	0
1605.55322265625	n/a	WORD	3288173	wordpools/wasnorm_wordpool_576.txt	LTP374	ltpFR2	3	8	FLASHLIGHT	575	n/a	n/a	0	0	0
1608.14501953125	n/a	WORD	3293481	wordpools/wasnorm_wordpool_576.txt	LTP374	ltpFR2	3	8	LASER	801	n/a	n/a	0	0	0
1610.802734375	n/a	WORD	3298924	wordpools/wasnorm_wordpool_576.txt	LTP374	ltpFR2	3	8	CLAM	315	n/a	n/a	0	0	0
1613.44482421875	n/a	WORD	3304335	wordpools/wasnorm_wordpool_576.txt	LTP374	ltpFR2	3	8	BIKE	125	n/a	n/a	0	0	0
1615.95263671875	n/a	WORD	3309471	wordpools/wasnorm_wordpool_576.txt	LTP374	ltpFR2	3	8	WAGON	1578	n/a	n/a	0	0	0
1618.4775390625	n/a	WORD	3314642	wordpools/wasnorm_wordpool_576.txt	LTP374	ltpFR2	3	8	LABEL	790	n/a	n/a	0	0	0
1621.08642578125	n/a	WORD	3319985	wordpools/wasnorm_wordpool_576.txt	LTP374	ltpFR2	3	8	STAMP	1370	n/a	n/a	0	0	0
1623.87841796875	n/a	WORD	3325703	wordpools/wasnorm_wordpool_576.txt	LTP374	ltpFR2	3	8	CHAPEL	280	n/a	n/a	0	0	0
1626.603515625	n/a	WORD	3331284	wordpools/wasnorm_wordpool_576.txt	LTP374	ltpFR2	3	8	AGENT	10	n/a	n/a	0	0	0
1629.21142578125	n/a	WORD	3336625	wordpools/wasnorm_wordpool_576.txt	LTP374	ltpFR2	3	8	SPACE	1345	n/a	n/a	0	0	0
1630.83447265625	n/a	START	3339949	n/a	LTP374	ltpFR2	3	n/a	n/a	n/a	10	n/a	n/a	n/a	n/a
1631.73046875	n/a	DISTRACTOR	3341784	n/a	LTP374	ltpFR2	3	8	n/a	n/a	n/a	n/a	0	0	0
1631.736328125	n/a	PROB	3341796	n/a	LTP374	ltpFR2	3	n/a	n/a	n/a	10	13	1	5	7
1633.47509765625	n/a	PROB	3345357	n/a	LTP374	ltpFR2	3	n/a	n/a	n/a	10	10	1	6	3
1634.76318359375	n/a	PROB	3347995	n/a	LTP374	ltpFR2	3	n/a	n/a	n/a	10	20	7	9	4
1635.81640625	n/a	PROB	3350152	n/a	LTP374	ltpFR2	3	n/a	n/a	n/a	10	24	8	9	7
1637.18798828125	n/a	PROB	3352961	n/a	LTP374	ltpFR2	3	n/a	n/a	n/a	10	11	2	6	3
1638.27392578125	n/a	PROB	3355185	n/a	LTP374	ltpFR2	3	n/a	n/a	n/a	10	6	4	1	1
1639.01025390625	n/a	PROB	3356693	n/a	LTP374	ltpFR2	3	n/a	n/a	n/a	10	7	3	1	3
1639.99609375	n/a	PROB	3358712	n/a	LTP374	ltpFR2	3	n/a	n/a	n/a	10	12	3	6	3
1641.15087890625	n/a	PROB	3361077	n/a	LTP374	ltpFR2	3	n/a	n/a	n/a	10	17	5	3	9
1642.23681640625	n/a	PROB	3363301	n/a	LTP374	ltpFR2	3	n/a	n/a	n/a	10	19	3	8	8
1643.423828125	n/a	PROB	3365732	n/a	LTP374	ltpFR2	3	n/a	n/a	n/a	10	13	3	5	5
1644.376953125	n/a	PROB	3367684	n/a	LTP374	ltpFR2	3	n/a	n/a	n/a	10	14	8	3	1
1645.36376953125	n/a	PROB	3369705	n/a	LTP374	ltpFR2	3	n/a	n/a	n/a	10	15	8	3	4
1647.001953125	n/a	PROB	3373060	n/a	LTP374	ltpFR2	3	n/a	n/a	n/a	10	13	2	2	9
1647.90478515625	n/a	PROB	3374909	n/a	LTP374	ltpFR2	3	n/a	n/a	n/a	10	13	4	8	1
1648.82470703125	n/a	PROB	3376793	n/a	LTP374	ltpFR2	3	n/a	n/a	n/a	10	13	8	2	3
1650.1298828125	n/a	PROB	3379466	n/a	LTP374	ltpFR2	3	n/a	n/a	n/a	10	13	2	4	7
1651.2158203125	n/a	PROB	3381690	n/a	LTP374	ltpFR2	3	n/a	n/a	n/a	10	15	1	6	8
1652.28564453125	n/a	PROB	3383881	n/a	LTP374	ltpFR2	3	n/a	n/a	n/a	10	9	4	1	4
1653.08984375	n/a	PROB	3385528	n/a	LTP374	ltpFR2	3	n/a	n/a	n/a	10	4	2	1	1
1653.9345703125	n/a	STOP	3387258	n/a	LTP374	ltpFR2	3	n/a	n/a	n/a	10	n/a	n/a	n/a	n/a
1656.7177734375	n/a	REC_START	3392958	n/a	LTP374	ltpFR2	3	8	n/a	n/a	n/a	n/a	0	0	0
1658.08935546875	n/a	REC_WORD	3395767	wordpools/wasnorm_wordpool_576.txt	LTP374	ltpFR2	3	8	BIKE	125	n/a	n/a	0	0	0
1660.0185546875	n/a	REC_WORD	3399718	wordpools/wasnorm_wordpool_576.txt	LTP374	ltpFR2	3	8	BUGGY	188	n/a	n/a	0	0	0
1661.1953125	n/a	REC_WORD	3402128	wordpools/wasnorm_wordpool_576.txt	LTP374	ltpFR2	3	8	BLOCKADE	137	n/a	n/a	0	0	0
1662.63134765625	n/a	REC_WORD	3405069	wordpools/wasnorm_wordpool_576.txt	LTP374	ltpFR2	3	8	AGENT	10	n/a	n/a	0	0	0
1663.83349609375	n/a	REC_WORD	3407531	wordpools/wasnorm_wordpool_576.txt	LTP374	ltpFR2	3	8	TOURIST	1488	n/a	n/a	0	0	0
1665.42919921875	n/a	REC_WORD	3410799	wordpools/wasnorm_wordpool_576.txt	LTP374	ltpFR2	3	8	PUDDLE	1140	n/a	n/a	0	0	0
1666.68017578125	n/a	REC_WORD	3413361	wordpools/wasnorm_wordpool_576.txt	LTP374	ltpFR2	3	8	PUDDING	1139	n/a	n/a	0	0	0
1671.34130859375	n/a	REC_WORD	3422907	wordpools/wasnorm_wordpool_576.txt	LTP374	ltpFR2	3	8	BRIEFCASE	175	n/a	n/a	0	0	0
1672.626953125	n/a	REC_WORD	3425540	wordpools/wasnorm_wordpool_576.txt	LTP374	ltpFR2	3	8	GARBAGE	622	n/a	n/a	0	0	0
1673.7958984375	n/a	REC_WORD	3427934	wordpools/wasnorm_wordpool_576.txt	LTP374	ltpFR2	3	8	ITEM	746	n/a	n/a	0	0	0
1674.6572265625	n/a	REC_WORD	3429698	wordpools/wasnorm_wordpool_576.txt	LTP374	ltpFR2	3	8	STAMP	1370	n/a	n/a	0	0	0
1676.048828125	n/a	REC_WORD	3432548	wordpools/wasnorm_wordpool_576.txt	LTP374	ltpFR2	3	8	LABEL	790	n/a	n/a	0	0	0
1677.15380859375	n/a	REC_WORD	3434811	wordpools/wasnorm_wordpool_576.txt	LTP374	ltpFR2	3	8	SPACE	1345	n/a	n/a	0	0	0
1678.56689453125	n/a	REC_WORD	3437705	wordpools/wasnorm_wordpool_576.txt	LTP374	ltpFR2	3	8	COMET	353	n/a	n/a	0	0	0
1679.5810546875	n/a	REC_WORD	3439782	wordpools/wasnorm_wordpool_576.txt	LTP374	ltpFR2	3	8	FLASHLIGHT	575	n/a	n/a	0	0	0
1681.2099609375	n/a	REC_WORD	3443118	wordpools/wasnorm_wordpool_576.txt	LTP374	ltpFR2	3	8	LASER	801	n/a	n/a	0	0	0
1691.12158203125	n/a	REC_WORD	3463417	wordpools/wasnorm_wordpool_576.txt	LTP374	ltpFR2	3	8	BLOCKADE	137	n/a	n/a	0	0	0
1696.59033203125	n/a	REC_WORD	3474617	wordpools/wasnorm_wordpool_576.txt	LTP374	ltpFR2	3	8	ELBOW	520	n/a	n/a	0	0	0
1720.32177734375	n/a	REC_WORD	3523219	wordpools/wasnorm_wordpool_576.txt	LTP374	ltpFR2	3	8	RUST	1219	n/a	n/a	0	0	0
1733.24560546875	n/a	REST_REWET	3549687	n/a	LTP374	ltpFR2	3	8	n/a	n/a	n/a	n/a	0	0	0
1855.10498046875	n/a	WORD	3799255	wordpools/wasnorm_wordpool_576.txt	LTP374	ltpFR2	3	9	TROUT	1511	n/a	n/a	0	0	0
1857.76318359375	n/a	WORD	3804699	wordpools/wasnorm_wordpool_576.txt	LTP374	ltpFR2	3	9	SWIMMER	1420	n/a	n/a	0	0	0
1860.27099609375	n/a	WORD	3809835	wordpools/wasnorm_wordpool_576.txt	LTP374	ltpFR2	3	9	RELISH	1183	n/a	n/a	0	0	0
1862.9130859375	n/a	WORD	3815246	wordpools/wasnorm_wordpool_576.txt	LTP374	ltpFR2	3	9	FARMER	553	n/a	n/a	0	0	0
1865.6376953125	n/a	WORD	3820826	wordpools/wasnorm_wordpool_576.txt	LTP374	ltpFR2	3	9	SPOOL	1356	n/a	n/a	0	0	0
1868.1806640625	n/a	WORD	3826034	wordpools/wasnorm_wordpool_576.txt	LTP374	ltpFR2	3	9	HORNET	718	n/a	n/a	0	0	0
1870.6875	n/a	WORD	3831168	wordpools/wasnorm_wordpool_576.txt	LTP374	ltpFR2	3	9	COOKBOOK	373	n/a	n/a	0	0	0
1873.21240234375	n/a	WORD	3836339	wordpools/wasnorm_wordpool_576.txt	LTP374	ltpFR2	3	9	JAPAN	749	n/a	n/a	0	0	0
1875.95458984375	n/a	WORD	3841955	wordpools/wasnorm_wordpool_576.txt	LTP374	ltpFR2	3	9	PERFUME	1049	n/a	n/a	0	0	0
1878.4794921875	n/a	WORD	3847126	wordpools/wasnorm_wordpool_576.txt	LTP374	ltpFR2	3	9	ONION	977	n/a	n/a	0	0	0
1881.22119140625	n/a	WORD	3852741	wordpools/wasnorm_wordpool_576.txt	LTP374	ltpFR2	3	9	MOTEL	919	n/a	n/a	0	0	0
1883.93017578125	n/a	WORD	3858289	wordpools/wasnorm_wordpool_576.txt	LTP374	ltpFR2	3	9	ANKLE	24	n/a	n/a	0	0	0
1886.55517578125	n/a	WORD	3863665	wordpools/wasnorm_wordpool_576.txt	LTP374	ltpFR2	3	9	COOK	372	n/a	n/a	0	0	0
1889.34716796875	n/a	WORD	3869383	wordpools/wasnorm_wordpool_576.txt	LTP374	ltpFR2	3	9	CAPTIVE	240	n/a	n/a	0	0	0
1892.14111328125	n/a	WORD	3875105	wordpools/wasnorm_wordpool_576.txt	LTP374	ltpFR2	3	9	SLIME	1327	n/a	n/a	0	0	0
1894.93212890625	n/a	WORD	3880821	wordpools/wasnorm_wordpool_576.txt	LTP374	ltpFR2	3	9	REPORT	1184	n/a	n/a	0	0	0
1897.74072265625	n/a	WORD	3886573	wordpools/wasnorm_wordpool_576.txt	LTP374	ltpFR2	3	9	GROUND	666	n/a	n/a	0	0	0
1900.31591796875	n/a	WORD	3891847	wordpools/wasnorm_wordpool_576.txt	LTP374	ltpFR2	3	9	BEAVER	109	n/a	n/a	0	0	0
1903.0078125	n/a	WORD	3897360	wordpools/wasnorm_wordpool_576.txt	LTP374	ltpFR2	3	9	CHIPMUNK	304	n/a	n/a	0	0	0
1905.6328125	n/a	WORD	3902736	wordpools/wasnorm_wordpool_576.txt	LTP374	ltpFR2	3	9	PLAID	1080	n/a	n/a	0	0	0
1908.15869140625	n/a	WORD	3907909	wordpools/wasnorm_wordpool_576.txt	LTP374	ltpFR2	3	9	HAMPER	682	n/a	n/a	0	0	0
1910.61572265625	n/a	WORD	3912941	wordpools/wasnorm_wordpool_576.txt	LTP374	ltpFR2	3	9	EUROPE	541	n/a	n/a	0	0	0
1913.0576171875	n/a	WORD	3917942	wordpools/wasnorm_wordpool_576.txt	LTP374	ltpFR2	3	9	TRIBE	1505	n/a	n/a	0	0	0
1915.8154296875	n/a	WORD	3923590	wordpools/wasnorm_wordpool_576.txt	LTP374	ltpFR2	3	9	SKIRT	1319	n/a	n/a	0	0	0
1917.42138671875	n/a	START	3926879	n/a	LTP374	ltpFR2	3	n/a	n/a	n/a	11	n/a	n/a	n/a	n/a
1918.607421875	n/a	DISTRACTOR	3929308	n/a	LTP374	ltpFR2	3	9	n/a	n/a	n/a	n/a	0	0	0
1918.6083984375	n/a	PROB	3929310	n/a	LTP374	ltpFR2	3	n/a	n/a	n/a	11	21	5	9	7
1919.99609375	n/a	PROB	3932152	n/a	LTP374	ltpFR2	3	n/a	n/a	n/a	11	8	4	3	1
1920.8154296875	n/a	PROB	3933830	n/a	LTP374	ltpFR2	3	n/a	n/a	n/a	11	12	6	1	5
1921.91796875	n/a	PROB	3936088	n/a	LTP374	ltpFR2	3	n/a	n/a	n/a	11	24	8	9	7
1923.373046875	n/a	PROB	3939068	n/a	LTP374	ltpFR2	3	n/a	n/a	n/a	11	15	2	7	6
1924.72802734375	n/a	PROB	3941843	n/a	LTP374	ltpFR2	3	n/a	n/a	n/a	11	3	1	1	1
1925.546875	n/a	PROB	3943520	n/a	LTP374	ltpFR2	3	n/a	n/a	n/a	11	9	1	7	1
1926.56689453125	n/a	PROB	3945609	n/a	LTP374	ltpFR2	3	n/a	n/a	n/a	11	12	4	5	3
1927.52001953125	n/a	PROB	3947561	n/a	LTP374	ltpFR2	3	n/a	n/a	n/a	11	16	8	5	3
1928.77392578125	n/a	PROB	3950129	n/a	LTP374	ltpFR2	3	n/a	n/a	n/a	11	14	1	8	5
1929.759765625	n/a	PROB	3952148	n/a	LTP374	ltpFR2	3	n/a	n/a	n/a	11	18	2	8	8
1931.0478515625	n/a	PROB	3954786	n/a	LTP374	ltpFR2	3	n/a	n/a	n/a	11	20	9	2	9
1932.2177734375	n/a	PROB	3957182	n/a	LTP374	ltpFR2	3	n/a	n/a	n/a	11	17	9	6	2
1933.2890625	n/a	PROB	3959376	n/a	LTP374	ltpFR2	3	n/a	n/a	n/a	11	12	3	4	5
1934.44189453125	n/a	PROB	3961737	n/a	LTP374	ltpFR2	3	n/a	n/a	n/a	11	13	3	1	9
1935.31201171875	n/a	PROB	3963519	n/a	LTP374	ltpFR2	3	n/a	n/a	n/a	11	7	3	2	2
1936.23095703125	n/a	PROB	3965401	n/a	LTP374	ltpFR2	3	n/a	n/a	n/a	11	10	2	4	4
1937.3017578125	n/a	PROB	3967594	n/a	LTP374	ltpFR2	3	n/a	n/a	n/a	11	8	5	1	2
1938.18896484375	n/a	PROB	3969411	n/a	LTP374	ltpFR2	3	n/a	n/a	n/a	11	17	6	6	5
1939.19189453125	n/a	PROB	3971465	n/a	LTP374	ltpFR2	3	n/a	n/a	n/a	11	22	7	8	7
1940.94384765625	n/a	STOP	3975053	n/a	LTP374	ltpFR2	3	n/a	n/a	n/a	11	n/a	n/a	n/a	n/a
1943.1884765625	n/a	REC_START	3979650	n/a	LTP374	ltpFR2	3	9	n/a	n/a	n/a	n/a	0	0	0
1944.36279296875	n/a	REC_WORD	3982055	wordpools/wasnorm_wordpool_576.txt	LTP374	ltpFR2	3	9	BEAVER	109	n/a	n/a	0	0	0
1945.28662109375	n/a	REC_WORD	3983947	wordpools/wasnorm_wordpool_576.txt	LTP374	ltpFR2	3	9	CHIPMUNK	304	n/a	n/a	0	0	0
1946.62353515625	n/a	REC_WORD	3986685	wordpools/wasnorm_wordpool_576.txt	LTP374	ltpFR2	3	9	SWIMMER	1420	n/a	n/a	0	0	0
1948.2685546875	n/a	REC_WORD	3990054	wordpools/wasnorm_wordpool_576.txt	LTP374	ltpFR2	3	9	EUROPE	541	n/a	n/a	0	0	0
1949.4443359375	n/a	REC_WORD	3992462	wordpools/wasnorm_wordpool_576.txt	LTP374	ltpFR2	3	9	JAPAN	749	n/a	n/a	0	0	0
1951.0341796875	n/a	REC_WORD	3995718	wordpools/wasnorm_wordpool_576.txt	LTP374	ltpFR2	3	9	CAPTIVE	240	n/a	n/a	0	0	0
1952.064453125	n/a	REC_WORD	3997828	wordpools/wasnorm_wordpool_576.txt	LTP374	ltpFR2	3	9	HORNET	718	n/a	n/a	0	0	0
1953.244140625	n/a	REC_WORD	4000244	wordpools/wasnorm_wordpool_576.txt	LTP374	ltpFR2	3	9	ANKLE	24	n/a	n/a	0	0	0
1954.30810546875	n/a	REC_WORD	4002423	wordpools/wasnorm_wordpool_576.txt	LTP374	ltpFR2	3	9	SKIRT	1319	n/a	n/a	0	0	0
1955.7041015625	n/a	REC_WORD	4005282	wordpools/wasnorm_wordpool_576.txt	LTP374	ltpFR2	3	9	COOK	372	n/a	n/a	0	0	0
1956.75732421875	n/a	REC_WORD	4007439	wordpools/wasnorm_wordpool_576.txt	LTP374	ltpFR2	3	9	COOKBOOK	373	n/a	n/a	0	0	0
1958.59521484375	n/a	REC_WORD	4011203	wordpools/wasnorm_wordpool_576.txt	LTP374	ltpFR2	3	9	FARMER	553	n/a	n/a	0	0	0
1967.1767578125	n/a	REC_WORD	4028778	wordpools/wasnorm_wordpool_576.txt	LTP374	ltpFR2	3	9	HAMPER	682	n/a	n/a	0	0	0
1991.25146484375	n/a	REC_WORD	4078083	wordpools/wasnorm_wordpool_576.txt	LTP374	ltpFR2	3	9	GROUND	666	n/a	n/a	0	0	0
1998.85986328125	n/a	REC_WORD	4093665	wordpools/wasnorm_wordpool_576.txt	LTP374	ltpFR2	3	9	RELISH	1183	n/a	n/a	0	0	0
2012.9208984375	n/a	REC_WORD	4122462	wordpools/wasnorm_wordpool_576.txt	LTP374	ltpFR2	3	9	SPROUT	-1	n/a	n/a	0	0	0
2033.626953125	n/a	DISTRACTOR	4164868	n/a	LTP374	ltpFR2	3	10	n/a	n/a	n/a	n/a	0	0	0
2033.6279296875	n/a	START	4164870	n/a	LTP374	ltpFR2	3	n/a	n/a	n/a	12	n/a	n/a	n/a	n/a
2033.64404296875	n/a	PROB	4164903	n/a	LTP374	ltpFR2	3	n/a	n/a	n/a	12	12	1	5	6
2034.5302734375	n/a	PROB	4166718	n/a	LTP374	ltpFR2	3	n/a	n/a	n/a	12	17	4	9	4
2035.701171875	n/a	PROB	4169116	n/a	LTP374	ltpFR2	3	n/a	n/a	n/a	12	9	4	4	1
2036.453125	n/a	PROB	4170656	n/a	LTP374	ltpFR2	3	n/a	n/a	n/a	12	19	7	7	5
2037.38916015625	n/a	PROB	4172573	n/a	LTP374	ltpFR2	3	n/a	n/a	n/a	12	19	9	8	2
2038.626953125	n/a	PROB	4175108	n/a	LTP374	ltpFR2	3	n/a	n/a	n/a	12	18	6	8	4
2039.86376953125	n/a	PROB	4177641	n/a	LTP374	ltpFR2	3	n/a	n/a	n/a	12	17	4	8	5
2041.251953125	n/a	PROB	4180484	n/a	LTP374	ltpFR2	3	n/a	n/a	n/a	12	19	9	3	7
2042.2548828125	n/a	PROB	4182538	n/a	LTP374	ltpFR2	3	n/a	n/a	n/a	12	10	1	4	5
2043.27490234375	n/a	PROB	4184627	n/a	LTP374	ltpFR2	3	n/a	n/a	n/a	12	14	2	5	7
2044.36181640625	n/a	PROB	4186853	n/a	LTP374	ltpFR2	3	n/a	n/a	n/a	12	16	6	7	3
2045.2978515625	n/a	PROB	4188770	n/a	LTP374	ltpFR2	3	n/a	n/a	n/a	12	9	4	6	9
2046.2177734375	n/a	PROB	4190654	n/a	LTP374	ltpFR2	3	n/a	n/a	n/a	12	15	5	2	8
2047.3046875	n/a	PROB	4192880	n/a	LTP374	ltpFR2	3	n/a	n/a	n/a	12	20	9	7	4
2048.341796875	n/a	PROB	4195004	n/a	LTP374	ltpFR2	3	n/a	n/a	n/a	12	11	5	1	5
2049.37744140625	n/a	PROB	4197125	n/a	LTP374	ltpFR2	3	n/a	n/a	n/a	12	12	3	4	5
2050.3974609375	n/a	PROB	4199214	n/a	LTP374	ltpFR2	3	n/a	n/a	n/a	12	20	8	7	5
2051.4345703125	n/a	PROB	4201338	n/a	LTP374	ltpFR2	3	n/a	n/a	n/a	12	15	7	4	4
2052.58837890625	n/a	PROB	4203701	n/a	LTP374	ltpFR2	3	n/a	n/a	n/a	12	16	5	5	6
2053.50732421875	n/a	PROB	4205583	n/a	LTP374	ltpFR2	3	n/a	n/a	n/a	12	12	6	1	5
2054.4443359375	n/a	PROB	4207502	n/a	LTP374	ltpFR2	3	n/a	n/a	n/a	12	12	2	4	6
2055.34765625	n/a	PROB	4209352	n/a	LTP374	ltpFR2	3	n/a	n/a	n/a	12	17	6	6	5
2056.240234375	n/a	STOP	4211180	n/a	LTP374	ltpFR2	3	n/a	n/a	n/a	12	n/a	n/a	n/a	n/a
2058.70849609375	n/a	WORD	4216235	wordpools/wasnorm_wordpool_576.txt	LTP374	ltpFR2	3	10	TILE	1468	n/a	n/a	0	0	0
2061.4501953125	n/a	WORD	4221850	wordpools/wasnorm_wordpool_576.txt	LTP374	ltpFR2	3	10	DRAWING	494	n/a	n/a	0	0	0
2064.05908203125	n/a	WORD	4227193	wordpools/wasnorm_wordpool_576.txt	LTP374	ltpFR2	3	10	SCULPTURE	1258	n/a	n/a	0	0	0
2066.650390625	n/a	WORD	4232500	wordpools/wasnorm_wordpool_576.txt	LTP374	ltpFR2	3	10	LETTUCE	814	n/a	n/a	0	0	0
2069.30908203125	n/a	WORD	4237945	wordpools/wasnorm_wordpool_576.txt	LTP374	ltpFR2	3	10	WAITRESS	1581	n/a	n/a	0	0	0
2071.9169921875	n/a	WORD	4243286	wordpools/wasnorm_wordpool_576.txt	LTP374	ltpFR2	3	10	BRANCH	168	n/a	n/a	0	0	0
2074.55908203125	n/a	WORD	4248697	wordpools/wasnorm_wordpool_576.txt	LTP374	ltpFR2	3	10	TWISTER	1530	n/a	n/a	0	0	0
2077.23388671875	n/a	WORD	4254175	wordpools/wasnorm_wordpool_576.txt	LTP374	ltpFR2	3	10	SWITCH	1422	n/a	n/a	0	0	0
2080.02685546875	n/a	WORD	4259895	wordpools/wasnorm_wordpool_576.txt	LTP374	ltpFR2	3	10	LAMP	798	n/a	n/a	0	0	0
2082.6845703125	n/a	WORD	4265338	wordpools/wasnorm_wordpool_576.txt	LTP374	ltpFR2	3	10	MAILBOX	857	n/a	n/a	0	0	0
2085.32666015625	n/a	WORD	4270749	wordpools/wasnorm_wordpool_576.txt	LTP374	ltpFR2	3	10	DOUGHNUT	490	n/a	n/a	0	0	0
2087.818359375	n/a	WORD	4275852	wordpools/wasnorm_wordpool_576.txt	LTP374	ltpFR2	3	10	CREVICE	405	n/a	n/a	0	0	0
2090.5263671875	n/a	WORD	4281398	wordpools/wasnorm_wordpool_576.txt	LTP374	ltpFR2	3	10	OINTMENT	974	n/a	n/a	0	0	0
2092.95166015625	n/a	WORD	4286365	wordpools/wasnorm_wordpool_576.txt	LTP374	ltpFR2	3	10	PASTRY	1022	n/a	n/a	0	0	0
2095.7265625	n/a	WORD	4292048	wordpools/wasnorm_wordpool_576.txt	LTP374	ltpFR2	3	10	BASEMENT	94	n/a	n/a	0	0	0
2098.4853515625	n/a	WORD	4297698	wordpools/wasnorm_wordpool_576.txt	LTP374	ltpFR2	3	10	MUSTARD	935	n/a	n/a	0	0	0
2101.29541015625	n/a	WORD	4303453	wordpools/wasnorm_wordpool_576.txt	LTP374	ltpFR2	3	10	MONEY	908	n/a	n/a	0	0	0
2103.919921875	n/a	WORD	4308828	wordpools/wasnorm_wordpool_576.txt	LTP374	ltpFR2	3	10	PADDING	999	n/a	n/a	0	0	0
2106.69482421875	n/a	WORD	4314511	wordpools/wasnorm_wordpool_576.txt	LTP374	ltpFR2	3	10	LACE	792	n/a	n/a	0	0	0
2109.1708984375	n/a	WORD	4319582	wordpools/wasnorm_wordpool_576.txt	LTP374	ltpFR2	3	10	FOREST	593	n/a	n/a	0	0	0
2111.7451171875	n/a	WORD	4324854	wordpools/wasnorm_wordpool_576.txt	LTP374	ltpFR2	3	10	DRUG	501	n/a	n/a	0	0	0
2114.5537109375	n/a	WORD	4330606	wordpools/wasnorm_wordpool_576.txt	LTP374	ltpFR2	3	10	PLIERS	1089	n/a	n/a	0	0	0
2117.3466796875	n/a	WORD	4336326	wordpools/wasnorm_wordpool_576.txt	LTP374	ltpFR2	3	10	GLOBE	641	n/a	n/a	0	0	0
2119.9716796875	n/a	WORD	4341702	wordpools/wasnorm_wordpool_576.txt	LTP374	ltpFR2	3	10	CELLAR	267	n/a	n/a	0	0	0
2121.57666015625	n/a	START	4344989	n/a	LTP374	ltpFR2	3	n/a	n/a	n/a	13	n/a	n/a	n/a	n/a
2122.4677734375	n/a	DISTRACTOR	4346814	n/a	LTP374	ltpFR2	3	10	n/a	n/a	n/a	n/a	0	0	0
2122.4794921875	n/a	PROB	4346838	n/a	LTP374	ltpFR2	3	n/a	n/a	n/a	13	11	2	4	5
2123.61669921875	n/a	PROB	4349167	n/a	LTP374	ltpFR2	3	n/a	n/a	n/a	13	10	3	3	4
2124.552734375	n/a	PROB	4351084	n/a	LTP374	ltpFR2	3	n/a	n/a	n/a	13	21	5	9	7
2126.1923828125	n/a	PROB	4354442	n/a	LTP374	ltpFR2	3	n/a	n/a	n/a	13	10	5	3	2
2127.21142578125	n/a	PROB	4356529	n/a	LTP374	ltpFR2	3	n/a	n/a	n/a	13	16	1	9	6
2128.21435546875	n/a	PROB	4358583	n/a	LTP374	ltpFR2	3	n/a	n/a	n/a	13	18	7	3	8
2129.16845703125	n/a	PROB	4360537	n/a	LTP374	ltpFR2	3	n/a	n/a	n/a	13	19	7	7	5
2130.572265625	n/a	PROB	4363412	n/a	LTP374	ltpFR2	3	n/a	n/a	n/a	13	7	3	3	1
2131.39111328125	n/a	PROB	4365089	n/a	LTP374	ltpFR2	3	n/a	n/a	n/a	13	12	2	9	1
2132.39453125	n/a	PROB	4367144	n/a	LTP374	ltpFR2	3	n/a	n/a	n/a	13	15	5	4	6
2133.9833984375	n/a	PROB	4370398	n/a	LTP374	ltpFR2	3	n/a	n/a	n/a	13	13	1	7	5
2135.05419921875	n/a	PROB	4372591	n/a	LTP374	ltpFR2	3	n/a	n/a	n/a	13	15	2	8	5
2135.939453125	n/a	PROB	4374404	n/a	LTP374	ltpFR2	3	n/a	n/a	n/a	13	13	3	1	9
2136.9423828125	n/a	PROB	4376458	n/a	LTP374	ltpFR2	3	n/a	n/a	n/a	13	12	6	1	5
2138.09716796875	n/a	PROB	4378823	n/a	LTP374	ltpFR2	3	n/a	n/a	n/a	13	221	8	8	5
2139.35009765625	n/a	PROB	4381389	n/a	LTP374	ltpFR2	3	n/a	n/a	n/a	13	23	7	9	7
2140.9052734375	n/a	PROB	4384574	n/a	LTP374	ltpFR2	3	n/a	n/a	n/a	13	21	4	8	9
2141.94189453125	n/a	PROB	4386697	n/a	LTP374	ltpFR2	3	n/a	n/a	n/a	13	29	5	7	7
2142.9951171875	n/a	PROB	4388854	n/a	LTP374	ltpFR2	3	n/a	n/a	n/a	13	22	7	8	7
2144.60791015625	n/a	STOP	4392157	n/a	LTP374	ltpFR2	3	n/a	n/a	n/a	13	n/a	n/a	n/a	n/a
2147.3427734375	n/a	REC_START	4397758	n/a	LTP374	ltpFR2	3	10	n/a	n/a	n/a	n/a	0	0	0
2148.376953125	n/a	REC_WORD	4399876	wordpools/wasnorm_wordpool_576.txt	LTP374	ltpFR2	3	10	OINTMENT	974	n/a	n/a	0	0	0
2149.5908203125	n/a	REC_WORD	4402362	wordpools/wasnorm_wordpool_576.txt	LTP374	ltpFR2	3	10	DRUG	501	n/a	n/a	0	0	0
2150.69775390625	n/a	REC_WORD	4404629	wordpools/wasnorm_wordpool_576.txt	LTP374	ltpFR2	3	10	MONEY	908	n/a	n/a	0	0	0
2151.8525390625	n/a	REC_WORD	4406994	wordpools/wasnorm_wordpool_576.txt	LTP374	ltpFR2	3	10	PASTRY	1022	n/a	n/a	0	0	0
2153.4326171875	n/a	REC_WORD	4410230	wordpools/wasnorm_wordpool_576.txt	LTP374	ltpFR2	3	10	DOUGHNUT	490	n/a	n/a	0	0	0
2155.1025390625	n/a	REC_WORD	4413650	wordpools/wasnorm_wordpool_576.txt	LTP374	ltpFR2	3	10	SCULPTURE	1258	n/a	n/a	0	0	0
2157.1015625	n/a	REC_WORD	4417744	wordpools/wasnorm_wordpool_576.txt	LTP374	ltpFR2	3	10	CREVICE	405	n/a	n/a	0	0	0
2159.46044921875	n/a	REC_WORD	4422575	wordpools/wasnorm_wordpool_576.txt	LTP374	ltpFR2	3	10	DRAWING	494	n/a	n/a	0	0	0
2161.03857421875	n/a	REC_WORD	4425807	wordpools/wasnorm_wordpool_576.txt	LTP374	ltpFR2	3	10	TILE	1468	n/a	n/a	0	0	0
2162.388671875	n/a	REC_WORD	4428572	wordpools/wasnorm_wordpool_576.txt	LTP374	ltpFR2	3	10	CELLAR	267	n/a	n/a	0	0	0
2164.16748046875	n/a	REC_WORD	4432215	wordpools/wasnorm_wordpool_576.txt	LTP374	ltpFR2	3	10	BASEMENT	94	n/a	n/a	0	0	0
2166.0244140625	n/a	REC_WORD	4436018	wordpools/wasnorm_wordpool_576.txt	LTP374	ltpFR2	3	10	TWISTER	1530	n/a	n/a	0	0	0
2179.43701171875	n/a	REC_WORD	4463487	wordpools/wasnorm_wordpool_576.txt	LTP374	ltpFR2	3	10	LACE	792	n/a	n/a	0	0	0
2195.3564453125	n/a	REC_WORD	4496090	wordpools/wasnorm_wordpool_576.txt	LTP374	ltpFR2	3	10	LAMP	798	n/a	n/a	0	0	0
2196.91748046875	n/a	REC_WORD	4499287	wordpools/wasnorm_wordpool_576.txt	LTP374	ltpFR2	3	10	SWITCH	1422	n/a	n/a	0	0	0
2237.783203125	n/a	DISTRACTOR	4582980	n/a	LTP374	ltpFR2	3	11	n/a	n/a	n/a	n/a	0	0	0
2237.783203125	n/a	START	4582980	n/a	LTP374	ltpFR2	3	n/a	n/a	n/a	14	n/a	n/a	n/a	n/a
2237.79931640625	n/a	PROB	4583013	n/a	LTP374	ltpFR2	3	n/a	n/a	n/a	14	14	6	6	2
2238.7021484375	n/a	PROB	4584862	n/a	LTP374	ltpFR2	3	n/a	n/a	n/a	14	15	6	7	2
2239.63916015625	n/a	PROB	4586781	n/a	LTP374	ltpFR2	3	n/a	n/a	n/a	14	13	2	6	5
2241.46142578125	n/a	PROB	4590513	n/a	LTP374	ltpFR2	3	n/a	n/a	n/a	14	21	6	6	8
2242.59814453125	n/a	PROB	4592841	n/a	LTP374	ltpFR2	3	n/a	n/a	n/a	14	19	5	7	7
2243.65234375	n/a	PROB	4595000	n/a	LTP374	ltpFR2	3	n/a	n/a	n/a	14	19	6	8	5
2244.68798828125	n/a	PROB	4597121	n/a	LTP374	ltpFR2	3	n/a	n/a	n/a	14	20	7	5	8
2246.31005859375	n/a	PROB	4600443	n/a	LTP374	ltpFR2	3	n/a	n/a	n/a	14	18	7	3	8
2247.34716796875	n/a	PROB	4602567	n/a	LTP374	ltpFR2	3	n/a	n/a	n/a	14	11	8	2	1
2248.21728515625	n/a	PROB	4604349	n/a	LTP374	ltpFR2	3	n/a	n/a	n/a	14	15	6	8	1
2249.10400390625	n/a	PROB	4606165	n/a	LTP374	ltpFR2	3	n/a	n/a	n/a	14	17	7	6	4
2250.22314453125	n/a	PROB	4608457	n/a	LTP374	ltpFR2	3	n/a	n/a	n/a	14	12	2	1	9
2251.2099609375	n/a	PROB	4610478	n/a	LTP374	ltpFR2	3	n/a	n/a	n/a	14	17	5	5	7
2252.09716796875	n/a	PROB	4612295	n/a	LTP374	ltpFR2	3	n/a	n/a	n/a	14	16	8	8	2
2253.10009765625	n/a	PROB	4614349	n/a	LTP374	ltpFR2	3	n/a	n/a	n/a	14	21	5	8	9
2254.68798828125	n/a	PROB	4617601	n/a	LTP374	ltpFR2	3	n/a	n/a	n/a	14	16	8	7	1
2255.673828125	n/a	PROB	4619620	n/a	LTP374	ltpFR2	3	n/a	n/a	n/a	14	13	6	4	3
2256.49267578125	n/a	PROB	4621297	n/a	LTP374	ltpFR2	3	n/a	n/a	n/a	14	11	4	4	3
2258.1328125	n/a	PROB	4624656	n/a	LTP374	ltpFR2	3	n/a	n/a	n/a	14	14	3	6	5
2259.1357421875	n/a	PROB	4626710	n/a	LTP374	ltpFR2	3	n/a	n/a	n/a	14	16	4	8	4
2260.1396484375	n/a	PROB	4628766	n/a	LTP374	ltpFR2	3	n/a	n/a	n/a	14	8	1	2	5
2260.9287109375	n/a	STOP	4630382	n/a	LTP374	ltpFR2	3	n/a	n/a	n/a	14	n/a	n/a	n/a	n/a
2262.91357421875	n/a	WORD	4634447	wordpools/wasnorm_wordpool_576.txt	LTP374	ltpFR2	3	11	COMPASS	358	n/a	n/a	0	0	0
2265.388671875	n/a	WORD	4639516	wordpools/wasnorm_wordpool_576.txt	LTP374	ltpFR2	3	11	CIGAR	308	n/a	n/a	0	0	0
2267.94677734375	n/a	WORD	4644755	wordpools/wasnorm_wordpool_576.txt	LTP374	ltpFR2	3	11	SIBLING	1301	n/a	n/a	0	0	0
2270.37158203125	n/a	WORD	4649721	wordpools/wasnorm_wordpool_576.txt	LTP374	ltpFR2	3	11	BLUEPRINT	142	n/a	n/a	0	0	0
2273.18115234375	n/a	WORD	4655475	wordpools/wasnorm_wordpool_576.txt	LTP374	ltpFR2	3	11	FOREHEAD	592	n/a	n/a	0	0	0
2275.97216796875	n/a	WORD	4661191	wordpools/wasnorm_wordpool_576.txt	LTP374	ltpFR2	3	11	COUNTY	389	n/a	n/a	0	0	0
2278.7314453125	n/a	WORD	4666842	wordpools/wasnorm_wordpool_576.txt	LTP374	ltpFR2	3	11	MATTRESS	879	n/a	n/a	0	0	0
2281.47314453125	n/a	WORD	4672457	wordpools/wasnorm_wordpool_576.txt	LTP374	ltpFR2	3	11	YOLK	1633	n/a	n/a	0	0	0
2284.13330078125	n/a	WORD	4677905	wordpools/wasnorm_wordpool_576.txt	LTP374	ltpFR2	3	11	BREAST	171	n/a	n/a	0	0	0
2286.77392578125	n/a	WORD	4683313	wordpools/wasnorm_wordpool_576.txt	LTP374	ltpFR2	3	11	PIGMENT	1066	n/a	n/a	0	0	0
2289.34912109375	n/a	WORD	4688587	wordpools/wasnorm_wordpool_576.txt	LTP374	ltpFR2	3	11	MARKER	870	n/a	n/a	0	0	0
2292.14208984375	n/a	WORD	4694307	wordpools/wasnorm_wordpool_576.txt	LTP374	ltpFR2	3	11	STICKER	1382	n/a	n/a	0	0	0
2294.73291015625	n/a	WORD	4699613	wordpools/wasnorm_wordpool_576.txt	LTP374	ltpFR2	3	11	VELVET	1555	n/a	n/a	0	0	0
2297.20654296875	n/a	WORD	4704679	wordpools/wasnorm_wordpool_576.txt	LTP374	ltpFR2	3	11	WRENCH	1625	n/a	n/a	0	0	0
2299.798828125	n/a	WORD	4709988	wordpools/wasnorm_wordpool_576.txt	LTP374	ltpFR2	3	11	CURTAIN	427	n/a	n/a	0	0	0
2302.306640625	n/a	WORD	4715124	wordpools/wasnorm_wordpool_576.txt	LTP374	ltpFR2	3	11	PLAYGROUND	1087	n/a	n/a	0	0	0
2304.78173828125	n/a	WORD	4720193	wordpools/wasnorm_wordpool_576.txt	LTP374	ltpFR2	3	11	NIGHTGOWN	953	n/a	n/a	0	0	0
2307.28955078125	n/a	WORD	4725329	wordpools/wasnorm_wordpool_576.txt	LTP374	ltpFR2	3	11	TAXI	1438	n/a	n/a	0	0	0
2309.99853515625	n/a	WORD	4730877	wordpools/wasnorm_wordpool_576.txt	LTP374	ltpFR2	3	11	STONE	1385	n/a	n/a	0	0	0
2312.4892578125	n/a	WORD	4735978	wordpools/wasnorm_wordpool_576.txt	LTP374	ltpFR2	3	11	GHETTO	633	n/a	n/a	0	0	0
2315.26513671875	n/a	WORD	4741663	wordpools/wasnorm_wordpool_576.txt	LTP374	ltpFR2	3	11	SLIDE	1326	n/a	n/a	0	0	0
2317.9912109375	n/a	WORD	4747246	wordpools/wasnorm_wordpool_576.txt	LTP374	ltpFR2	3	11	BELLY	119	n/a	n/a	0	0	0
2320.48193359375	n/a	WORD	4752347	wordpools/wasnorm_wordpool_576.txt	LTP374	ltpFR2	3	11	STOMACH	1384	n/a	n/a	0	0	0
2323.291015625	n/a	WORD	4758100	wordpools/wasnorm_wordpool_576.txt	LTP374	ltpFR2	3	11	WINDOW	1611	n/a	n/a	0	0	0
2324.89599609375	n/a	START	4761387	n/a	LTP374	ltpFR2	3	n/a	n/a	n/a	15	n/a	n/a	n/a	n/a
2325.90087890625	n/a	DISTRACTOR	4763445	n/a	LTP374	ltpFR2	3	11	n/a	n/a	n/a	n/a	0	0	0
2325.916015625	n/a	PROB	4763476	n/a	LTP374	ltpFR2	3	n/a	n/a	n/a	15	14	7	2	5
2327.65478515625	n/a	PROB	4767037	n/a	LTP374	ltpFR2	3	n/a	n/a	n/a	15	8	3	1	5
2328.7919921875	n/a	PROB	4769366	n/a	LTP374	ltpFR2	3	n/a	n/a	n/a	15	13	5	4	4
2329.9287109375	n/a	PROB	4771694	n/a	LTP374	ltpFR2	3	n/a	n/a	n/a	15	15	6	4	5
2330.78173828125	n/a	PROB	4773441	n/a	LTP374	ltpFR2	3	n/a	n/a	n/a	15	16	2	9	5
2331.6845703125	n/a	PROB	4775290	n/a	LTP374	ltpFR2	3	n/a	n/a	n/a	15	11	1	6	4
2332.73779296875	n/a	PROB	4777447	n/a	LTP374	ltpFR2	3	n/a	n/a	n/a	15	15	4	2	9
2333.70751953125	n/a	PROB	4779433	n/a	LTP374	ltpFR2	3	n/a	n/a	n/a	15	12	5	6	1
2334.64453125	n/a	PROB	4781352	n/a	LTP374	ltpFR2	3	n/a	n/a	n/a	15	19	4	7	6
2335.94873046875	n/a	PROB	4784023	n/a	LTP374	ltpFR2	3	n/a	n/a	n/a	15	18	6	5	7
2337.48681640625	n/a	PROB	4787173	n/a	LTP374	ltpFR2	3	n/a	n/a	n/a	15	10	6	3	1
2338.640625	n/a	PROB	4789536	n/a	LTP374	ltpFR2	3	n/a	n/a	n/a	15	16	2	8	6
2339.49365234375	n/a	PROB	4791283	n/a	LTP374	ltpFR2	3	n/a	n/a	n/a	15	13	6	6	1
2340.32958984375	n/a	PROB	4792995	n/a	LTP374	ltpFR2	3	n/a	n/a	n/a	15	19	8	5	6
2341.75048828125	n/a	PROB	4795905	n/a	LTP374	ltpFR2	3	n/a	n/a	n/a	15	15	6	1	8
2342.6533203125	n/a	PROB	4797754	n/a	LTP374	ltpFR2	3	n/a	n/a	n/a	15	8	2	4	1
2343.75634765625	n/a	PROB	4800013	n/a	LTP374	ltpFR2	3	n/a	n/a	n/a	15	14	1	9	4
2345.02734375	n/a	PROB	4802616	n/a	LTP374	ltpFR2	3	n/a	n/a	n/a	15	15	7	3	5
2345.98046875	n/a	PROB	4804568	n/a	LTP374	ltpFR2	3	n/a	n/a	n/a	15	10	2	3	4
2347.2841796875	n/a	PROB	4807238	n/a	LTP374	ltpFR2	3	n/a	n/a	n/a	15	17	7	6	4
2348.67333984375	n/a	STOP	4810083	n/a	LTP374	ltpFR2	3	n/a	n/a	n/a	15	n/a	n/a	n/a	n/a
2350.81298828125	n/a	REC_START	4814465	n/a	LTP374	ltpFR2	3	11	n/a	n/a	n/a	n/a	0	0	0
2351.7421875	n/a	REC_WORD	4816368	wordpools/wasnorm_wordpool_576.txt	LTP374	ltpFR2	3	11	YOLK	1633	n/a	n/a	0	0	0
2353.9443359375	n/a	REC_WORD	4820878	wordpools/wasnorm_wordpool_576.txt	LTP374	ltpFR2	3	11	CURTAIN	427	n/a	n/a	0	0	0
2354.89501953125	n/a	REC_WORD	4822825	wordpools/wasnorm_wordpool_576.txt	LTP374	ltpFR2	3	11	WINDOW	1611	n/a	n/a	0	0	0
2356.029296875	n/a	REC_WORD	4825148	wordpools/wasnorm_wordpool_576.txt	LTP374	ltpFR2	3	11	MATTRESS	879	n/a	n/a	0	0	0
2357.421875	n/a	REC_WORD	4828000	wordpools/wasnorm_wordpool_576.txt	LTP374	ltpFR2	3	11	BELLY	119	n/a	n/a	0	0	0
2358.3359375	n/a	REC_WORD	4829872	wordpools/wasnorm_wordpool_576.txt	LTP374	ltpFR2	3	11	STOMACH	1384	n/a	n/a	0	0	0
2359.9541015625	n/a	REC_WORD	4833186	wordpools/wasnorm_wordpool_576.txt	LTP374	ltpFR2	3	11	PIGMENT	1066	n/a	n/a	0	0	0
2361.10400390625	n/a	REC_WORD	4835541	wordpools/wasnorm_wordpool_576.txt	LTP374	ltpFR2	3	11	MARKER	870	n/a	n/a	0	0	0
2362.81396484375	n/a	REC_WORD	4839043	wordpools/wasnorm_wordpool_576.txt	LTP374	ltpFR2	3	11	FOREHEAD	592	n/a	n/a	0	0	0
2364.23291015625	n/a	REC_WORD	4841949	wordpools/wasnorm_wordpool_576.txt	LTP374	ltpFR2	3	11	CIGAR	308	n/a	n/a	0	0	0
2366.78857421875	n/a	REC_WORD	4847183	wordpools/wasnorm_wordpool_576.txt	LTP374	ltpFR2	3	11	MATTRESS	879	n/a	n/a	0	0	0
2368.77490234375	n/a	REC_WORD	4851251	wordpools/wasnorm_wordpool_576.txt	LTP374	ltpFR2	3	11	SIBLING	1301	n/a	n/a	0	0	0
2371.66748046875	n/a	REC_WORD	4857175	wordpools/wasnorm_wordpool_576.txt	LTP374	ltpFR2	3	11	NIGHTGOWN	953	n/a	n/a	0	0	0
2373.62939453125	n/a	REC_WORD	4861193	wordpools/wasnorm_wordpool_576.txt	LTP374	ltpFR2	3	11	VELVET	1555	n/a	n/a	0	0	0
2388.8193359375	n/a	REC_WORD	4892302	wordpools/wasnorm_wordpool_576.txt	LTP374	ltpFR2	3	11	COMPASS	358	n/a	n/a	0	0	0
2390.52001953125	n/a	REC_WORD	4895785	wordpools/wasnorm_wordpool_576.txt	LTP374	ltpFR2	3	11	BLUEPRINT	142	n/a	n/a	0	0	0
2392.4111328125	n/a	REC_WORD	4899658	wordpools/wasnorm_wordpool_576.txt	LTP374	ltpFR2	3	11	COUNTY	389	n/a	n/a	0	0	0
2395.97607421875	n/a	REC_WORD	4906959	wordpools/wasnorm_wordpool_576.txt	LTP374	ltpFR2	3	11	GHETTO	633	n/a	n/a	0	0	0
2396.89013671875	n/a	REC_WORD	4908831	wordpools/wasnorm_wordpool_576.txt	LTP374	ltpFR2	3	11	PLAYGROUND	1087	n/a	n/a	0	0	0
2407.48681640625	n/a	REC_WORD	4930533	wordpools/wasnorm_wordpool_576.txt	LTP374	ltpFR2	3	11	BREAST	171	n/a	n/a	0	0	0
2441.25390625	n/a	DISTRACTOR	4999688	n/a	LTP374	ltpFR2	3	12	n/a	n/a	n/a	n/a	0	0	0
2441.25390625	n/a	START	4999688	n/a	LTP374	ltpFR2	3	n/a	n/a	n/a	16	n/a	n/a	n/a	n/a
2441.26953125	n/a	PROB	4999720	n/a	LTP374	ltpFR2	3	n/a	n/a	n/a	16	11	4	3	4
2442.5234375	n/a	PROB	5002288	n/a	LTP374	ltpFR2	3	n/a	n/a	n/a	16	13	3	9	1
2444.396484375	n/a	PROB	5006124	n/a	LTP374	ltpFR2	3	n/a	n/a	n/a	16	15	1	6	8
2445.3994140625	n/a	PROB	5008178	n/a	LTP374	ltpFR2	3	n/a	n/a	n/a	16	17	3	5	9
2446.5537109375	n/a	PROB	5010542	n/a	LTP374	ltpFR2	3	n/a	n/a	n/a	16	13	6	5	2
2447.5234375	n/a	PROB	5012528	n/a	LTP374	ltpFR2	3	n/a	n/a	n/a	16	23	7	9	7
2448.92724609375	n/a	PROB	5015403	n/a	LTP374	ltpFR2	3	n/a	n/a	n/a	16	11	1	2	8
2450.1494140625	n/a	PROB	5017906	n/a	LTP374	ltpFR2	3	n/a	n/a	n/a	16	20	6	7	7
2451.53662109375	n/a	PROB	5020747	n/a	LTP374	ltpFR2	3	n/a	n/a	n/a	16	18	5	8	5
2452.65625	n/a	PROB	5023040	n/a	LTP374	ltpFR2	3	n/a	n/a	n/a	16	16	6	7	3
2453.89453125	n/a	PROB	5025576	n/a	LTP374	ltpFR2	3	n/a	n/a	n/a	16	11	1	4	6
2454.88037109375	n/a	PROB	5027595	n/a	LTP374	ltpFR2	3	n/a	n/a	n/a	16	14	7	1	6
2455.96728515625	n/a	PROB	5029821	n/a	LTP374	ltpFR2	3	n/a	n/a	n/a	16	20	9	6	5
2457.05517578125	n/a	PROB	5032049	n/a	LTP374	ltpFR2	3	n/a	n/a	n/a	16	9	1	1	7
2458.375	n/a	PROB	5034752	n/a	LTP374	ltpFR2	3	n/a	n/a	n/a	16	8	2	4	2
2459.26123046875	n/a	PROB	5036567	n/a	LTP374	ltpFR2	3	n/a	n/a	n/a	16	7	1	5	2
2460.31396484375	n/a	PROB	5038723	n/a	LTP374	ltpFR2	3	n/a	n/a	n/a	16	14	6	2	6
2461.568359375	n/a	PROB	5041292	n/a	LTP374	ltpFR2	3	n/a	n/a	n/a	16	17	8	4	3
2462.6552734375	n/a	PROB	5043518	n/a	LTP374	ltpFR2	3	n/a	n/a	n/a	16	17	5	3	9
2464.39306640625	n/a	STOP	5047077	n/a	LTP374	ltpFR2	3	n/a	n/a	n/a	16	n/a	n/a	n/a	n/a
2466.451171875	n/a	WORD	5051292	wordpools/wasnorm_wordpool_576.txt	LTP374	ltpFR2	3	12	FREEZER	604	n/a	n/a	0	0	0
2469.02587890625	n/a	WORD	5056565	wordpools/wasnorm_wordpool_576.txt	LTP374	ltpFR2	3	12	GLOVE	642	n/a	n/a	0	0	0
2471.7177734375	n/a	WORD	5062078	wordpools/wasnorm_wordpool_576.txt	LTP374	ltpFR2	3	12	BEAST	108	n/a	n/a	0	0	0
2474.19287109375	n/a	WORD	5067147	wordpools/wasnorm_wordpool_576.txt	LTP374	ltpFR2	3	12	BOARD	143	n/a	n/a	0	0	0
2476.98486328125	n/a	WORD	5072865	wordpools/wasnorm_wordpool_576.txt	LTP374	ltpFR2	3	12	TABLET	1427	n/a	n/a	0	0	0
2479.62646484375	n/a	WORD	5078275	wordpools/wasnorm_wordpool_576.txt	LTP374	ltpFR2	3	12	TRANSPLANT	1496	n/a	n/a	0	0	0
2482.21875	n/a	WORD	5083584	wordpools/wasnorm_wordpool_576.txt	LTP374	ltpFR2	3	12	LIVER	833	n/a	n/a	0	0	0
2484.7265625	n/a	WORD	5088720	wordpools/wasnorm_wordpool_576.txt	LTP374	ltpFR2	3	12	SHOULDER	1294	n/a	n/a	0	0	0
2487.4013671875	n/a	WORD	5094198	wordpools/wasnorm_wordpool_576.txt	LTP374	ltpFR2	3	12	GYMNAST	675	n/a	n/a	0	0	0
2489.95947265625	n/a	WORD	5099437	wordpools/wasnorm_wordpool_576.txt	LTP374	ltpFR2	3	12	BISON	131	n/a	n/a	0	0	0
2492.5341796875	n/a	WORD	5104710	wordpools/wasnorm_wordpool_576.txt	LTP374	ltpFR2	3	12	SILK	1307	n/a	n/a	0	0	0
2495.34326171875	n/a	WORD	5110463	wordpools/wasnorm_wordpool_576.txt	LTP374	ltpFR2	3	12	LION	827	n/a	n/a	0	0	0
2497.8349609375	n/a	WORD	5115566	wordpools/wasnorm_wordpool_576.txt	LTP374	ltpFR2	3	12	COLONEL	348	n/a	n/a	0	0	0
2500.4599609375	n/a	WORD	5120942	wordpools/wasnorm_wordpool_576.txt	LTP374	ltpFR2	3	12	BOYFRIEND	162	n/a	n/a	0	0	0
2502.951171875	n/a	WORD	5126044	wordpools/wasnorm_wordpool_576.txt	LTP374	ltpFR2	3	12	LOVER	846	n/a	n/a	0	0	0
2505.65966796875	n/a	WORD	5131591	wordpools/wasnorm_wordpool_576.txt	LTP374	ltpFR2	3	12	FOOT	590	n/a	n/a	0	0	0
2508.28466796875	n/a	WORD	5136967	wordpools/wasnorm_wordpool_576.txt	LTP374	ltpFR2	3	12	ANTLER	29	n/a	n/a	0	0	0
2510.8095703125	n/a	WORD	5142138	wordpools/wasnorm_wordpool_576.txt	LTP374	ltpFR2	3	12	FRIAR	605	n/a	n/a	0	0	0
2513.384765625	n/a	WORD	5147412	wordpools/wasnorm_wordpool_576.txt	LTP374	ltpFR2	3	12	PEPPER	1047	n/a	n/a	0	0	0
2516.14453125	n/a	WORD	5153064	wordpools/wasnorm_wordpool_576.txt	LTP374	ltpFR2	3	12	GUARD	667	n/a	n/a	0	0	0
2518.75244140625	n/a	WORD	5158405	wordpools/wasnorm_wordpool_576.txt	LTP374	ltpFR2	3	12	JUGGLER	763	n/a	n/a	0	0	0
2521.37744140625	n/a	WORD	5163781	wordpools/wasnorm_wordpool_576.txt	LTP374	ltpFR2	3	12	KNAPSACK	783	n/a	n/a	0	0	0
2523.88525390625	n/a	WORD	5168917	wordpools/wasnorm_wordpool_576.txt	LTP374	ltpFR2	3	12	WIDOW	1608	n/a	n/a	0	0	0
2526.37646484375	n/a	WORD	5174019	wordpools/wasnorm_wordpool_576.txt	LTP374	ltpFR2	3	12	CARROT	249	n/a	n/a	0	0	0
2527.982421875	n/a	START	5177308	n/a	LTP374	ltpFR2	3	n/a	n/a	n/a	17	n/a	n/a	n/a	n/a
2528.79736328125	n/a	DISTRACTOR	5178977	n/a	LTP374	ltpFR2	3	12	n/a	n/a	n/a	n/a	0	0	0
2528.80126953125	n/a	PROB	5178985	n/a	LTP374	ltpFR2	3	n/a	n/a	n/a	17	19	9	5	5
2530.00537109375	n/a	PROB	5181451	n/a	LTP374	ltpFR2	3	n/a	n/a	n/a	17	13	3	8	2
2531.2919921875	n/a	PROB	5184086	n/a	LTP374	ltpFR2	3	n/a	n/a	n/a	17	16	7	5	4
2532.7802734375	n/a	PROB	5187134	n/a	LTP374	ltpFR2	3	n/a	n/a	n/a	17	18	1	9	8
2533.64990234375	n/a	PROB	5188915	n/a	LTP374	ltpFR2	3	n/a	n/a	n/a	17	10	8	1	1
2534.55322265625	n/a	PROB	5190765	n/a	LTP374	ltpFR2	3	n/a	n/a	n/a	17	16	7	5	4
2535.9072265625	n/a	PROB	5193538	n/a	LTP374	ltpFR2	3	n/a	n/a	n/a	17	5	1	1	3
2536.7431640625	n/a	PROB	5195250	n/a	LTP374	ltpFR2	3	n/a	n/a	n/a	17	9	6	1	2
2537.68017578125	n/a	PROB	5197169	n/a	LTP374	ltpFR2	3	n/a	n/a	n/a	17	12	3	5	4
2538.7998046875	n/a	PROB	5199462	n/a	LTP374	ltpFR2	3	n/a	n/a	n/a	17	17	5	5	7
2539.68603515625	n/a	PROB	5201277	n/a	LTP374	ltpFR2	3	n/a	n/a	n/a	17	9	3	4	2
2541.82568359375	n/a	PROB	5205659	n/a	LTP374	ltpFR2	3	n/a	n/a	n/a	17	14	6	1	7
2543.06494140625	n/a	PROB	5208197	n/a	LTP374	ltpFR2	3	n/a	n/a	n/a	17	21	6	7	8
2544.16796875	n/a	PROB	5210456	n/a	LTP374	ltpFR2	3	n/a	n/a	n/a	17	18	6	7	5
2545.40478515625	n/a	PROB	5212989	n/a	LTP374	ltpFR2	3	n/a	n/a	n/a	17	24	9	8	7
2546.9599609375	n/a	PROB	5216174	n/a	LTP374	ltpFR2	3	n/a	n/a	n/a	17	14	6	7	1
2547.91259765625	n/a	PROB	5218125	n/a	LTP374	ltpFR2	3	n/a	n/a	n/a	17	10	1	6	3
2548.8818359375	n/a	PROB	5220110	n/a	LTP374	ltpFR2	3	n/a	n/a	n/a	17	17	1	8	8
2550.26953125	n/a	PROB	5222952	n/a	LTP374	ltpFR2	3	n/a	n/a	n/a	17	17	5	5	7
2551.08251953125	n/a	STOP	5224617	n/a	LTP374	ltpFR2	3	n/a	n/a	n/a	17	n/a	n/a	n/a	n/a
2553.7314453125	n/a	REC_START	5230042	n/a	LTP374	ltpFR2	3	12	n/a	n/a	n/a	n/a	0	0	0
2554.50732421875	n/a	REC_WORD	5231631	wordpools/wasnorm_wordpool_576.txt	LTP374	ltpFR2	3	12	KNAPSACK	783	n/a	n/a	0	0	0
2555.87744140625	n/a	REC_WORD	5234437	wordpools/wasnorm_wordpool_576.txt	LTP374	ltpFR2	3	12	GUARD	667	n/a	n/a	0	0	0
2556.9775390625	n/a	REC_WORD	5236690	wordpools/wasnorm_wordpool_576.txt	LTP374	ltpFR2	3	12	ANTLER	29	n/a	n/a	0	0	0
2558.109375	n/a	REC_WORD	5239008	wordpools/wasnorm_wordpool_576.txt	LTP374	ltpFR2	3	12	BISON	131	n/a	n/a	0	0	0
2559.33642578125	n/a	REC_WORD	5241521	wordpools/wasnorm_wordpool_576.txt	LTP374	ltpFR2	3	12	BEAST	108	n/a	n/a	0	0	0
2560.4482421875	n/a	REC_WORD	5243798	wordpools/wasnorm_wordpool_576.txt	LTP374	ltpFR2	3	12	FREEZER	604	n/a	n/a	0	0	0
2563.85205078125	n/a	REC_WORD	5250769	wordpools/wasnorm_wordpool_576.txt	LTP374	ltpFR2	3	12	KIDNEY	776	n/a	n/a	0	0	0
2568.43603515625	n/a	REC_WORD	5260157	wordpools/wasnorm_wordpool_576.txt	LTP374	ltpFR2	3	12	TRANSPLANT	1496	n/a	n/a	0	0	0
2570.27490234375	n/a	REC_WORD	5263923	wordpools/wasnorm_wordpool_576.txt	LTP374	ltpFR2	3	12	ARM	38	n/a	n/a	0	0	0
2572.11328125	n/a	REC_WORD	5267688	wordpools/wasnorm_wordpool_576.txt	LTP374	ltpFR2	3	12	GYMNAST	675	n/a	n/a	0	0	0
2574.30078125	n/a	REC_WORD	5272168	wordpools/wasnorm_wordpool_576.txt	LTP374	ltpFR2	3	12	BOYFRIEND	162	n/a	n/a	0	0	0
2575.5361328125	n/a	REC_WORD	5274698	wordpools/wasnorm_wordpool_576.txt	LTP374	ltpFR2	3	12	WIDOW	1608	n/a	n/a	0	0	0
2576.8701171875	n/a	REC_WORD	5277430	wordpools/wasnorm_wordpool_576.txt	LTP374	ltpFR2	3	12	LOVER	846	n/a	n/a	0	0	0
2581.3798828125	n/a	REC_WORD	5286666	wordpools/wasnorm_wordpool_576.txt	LTP374	ltpFR2	3	12	CARROT	249	n/a	n/a	0	0	0
2598.5703125	n/a	REC_WORD	5321872	wordpools/wasnorm_wordpool_576.txt	LTP374	ltpFR2	3	12	JUGGLER	763	n/a	n/a	0	0	0
2609.10302734375	n/a	REC_WORD	5343443	wordpools/wasnorm_wordpool_576.txt	LTP374	ltpFR2	3	12	FRIAR	605	n/a	n/a	0	0	0
2613.4951171875	n/a	REC_WORD	5352438	wordpools/wasnorm_wordpool_576.txt	LTP374	ltpFR2	3	12	GLOVE	642	n/a	n/a	0	0	0
2644.1728515625	n/a	DISTRACTOR	5415266	n/a	LTP374	ltpFR2	3	13	n/a	n/a	n/a	n/a	0	0	0
2644.1728515625	n/a	START	5415266	n/a	LTP374	ltpFR2	3	n/a	n/a	n/a	18	n/a	n/a	n/a	n/a
2644.18798828125	n/a	PROB	5415297	n/a	LTP374	ltpFR2	3	n/a	n/a	n/a	18	9	2	1	6
2644.9912109375	n/a	PROB	5416942	n/a	LTP374	ltpFR2	3	n/a	n/a	n/a	18	13	6	1	6
2645.94384765625	n/a	PROB	5418893	n/a	LTP374	ltpFR2	3	n/a	n/a	n/a	18	16	7	7	2
2646.84716796875	n/a	PROB	5420743	n/a	LTP374	ltpFR2	3	n/a	n/a	n/a	18	24	9	8	7
2648.31787109375	n/a	PROB	5423755	n/a	LTP374	ltpFR2	3	n/a	n/a	n/a	18	9	3	5	1
2649.205078125	n/a	PROB	5425572	n/a	LTP374	ltpFR2	3	n/a	n/a	n/a	18	11	2	2	7
2650.2578125	n/a	PROB	5427728	n/a	LTP374	ltpFR2	3	n/a	n/a	n/a	18	11	1	2	8
2651.36181640625	n/a	PROB	5429989	n/a	LTP374	ltpFR2	3	n/a	n/a	n/a	18	18	6	5	7
2653.15185546875	n/a	PROB	5433655	n/a	LTP374	ltpFR2	3	n/a	n/a	n/a	18	10	6	1	3
2654.220703125	n/a	PROB	5435844	n/a	LTP374	ltpFR2	3	n/a	n/a	n/a	18	19	6	8	5
2655.24072265625	n/a	PROB	5437933	n/a	LTP374	ltpFR2	3	n/a	n/a	n/a	18	16	7	8	1
2656.177734375	n/a	PROB	5439852	n/a	LTP374	ltpFR2	3	n/a	n/a	n/a	18	16	6	1	9
2657.46484375	n/a	PROB	5442488	n/a	LTP374	ltpFR2	3	n/a	n/a	n/a	18	10	3	6	1
2658.36767578125	n/a	PROB	5444337	n/a	LTP374	ltpFR2	3	n/a	n/a	n/a	18	11	5	1	5
2659.95556640625	n/a	PROB	5447589	n/a	LTP374	ltpFR2	3	n/a	n/a	n/a	18	15	4	5	6
2661.20947265625	n/a	PROB	5450157	n/a	LTP374	ltpFR2	3	n/a	n/a	n/a	18	3	5	7	1
2662.13037109375	n/a	PROB	5452043	n/a	LTP374	ltpFR2	3	n/a	n/a	n/a	18	7	1	4	2
2663.232421875	n/a	PROB	5454300	n/a	LTP374	ltpFR2	3	n/a	n/a	n/a	18	8	4	1	2
2664.185546875	n/a	PROB	5456252	n/a	LTP374	ltpFR2	3	n/a	n/a	n/a	18	10	3	5	2
2665.45654296875	n/a	PROB	5458855	n/a	LTP374	ltpFR2	3	n/a	n/a	n/a	18	18	8	5	5
2666.37646484375	n/a	PROB	5460739	n/a	LTP374	ltpFR2	3	n/a	n/a	n/a	18	16	5	5	6
2667.17822265625	n/a	STOP	5462381	n/a	LTP374	ltpFR2	3	n/a	n/a	n/a	18	n/a	n/a	n/a	n/a
2669.21826171875	n/a	WORD	5466559	wordpools/wasnorm_wordpool_576.txt	LTP374	ltpFR2	3	13	CANYON	235	n/a	n/a	0	0	0
2671.76025390625	n/a	WORD	5471765	wordpools/wasnorm_wordpool_576.txt	LTP374	ltpFR2	3	13	DAISY	435	n/a	n/a	0	0	0
2674.38525390625	n/a	WORD	5477141	wordpools/wasnorm_wordpool_576.txt	LTP374	ltpFR2	3	13	BLENDER	136	n/a	n/a	0	0	0
2676.84326171875	n/a	WORD	5482175	wordpools/wasnorm_wordpool_576.txt	LTP374	ltpFR2	3	13	CLOCK	325	n/a	n/a	0	0	0
2679.41796875	n/a	WORD	5487448	wordpools/wasnorm_wordpool_576.txt	LTP374	ltpFR2	3	13	INFANT	737	n/a	n/a	0	0	0
2682.078125	n/a	WORD	5492896	wordpools/wasnorm_wordpool_576.txt	LTP374	ltpFR2	3	13	COUSIN	392	n/a	n/a	0	0	0
2684.60107421875	n/a	WORD	5498063	wordpools/wasnorm_wordpool_576.txt	LTP374	ltpFR2	3	13	SUMMIT	1405	n/a	n/a	0	0	0
2687.27685546875	n/a	WORD	5503543	wordpools/wasnorm_wordpool_576.txt	LTP374	ltpFR2	3	13	BINDER	127	n/a	n/a	0	0	0
2689.8017578125	n/a	WORD	5508714	wordpools/wasnorm_wordpool_576.txt	LTP374	ltpFR2	3	13	LONDON	843	n/a	n/a	0	0	0
2692.560546875	n/a	WORD	5514364	wordpools/wasnorm_wordpool_576.txt	LTP374	ltpFR2	3	13	COUNTRY	388	n/a	n/a	0	0	0
2695.28564453125	n/a	WORD	5519945	wordpools/wasnorm_wordpool_576.txt	LTP374	ltpFR2	3	13	LADDER	793	n/a	n/a	0	0	0
2697.9775390625	n/a	WORD	5525458	wordpools/wasnorm_wordpool_576.txt	LTP374	ltpFR2	3	13	JURY	766	n/a	n/a	0	0	0
2700.50244140625	n/a	WORD	5530629	wordpools/wasnorm_wordpool_576.txt	LTP374	ltpFR2	3	13	CHAUFFEUR	283	n/a	n/a	0	0	0
2703.2275390625	n/a	WORD	5536210	wordpools/wasnorm_wordpool_576.txt	LTP374	ltpFR2	3	13	PARROT	1015	n/a	n/a	0	0	0
2705.88623046875	n/a	WORD	5541655	wordpools/wasnorm_wordpool_576.txt	LTP374	ltpFR2	3	13	CRITIC	410	n/a	n/a	0	0	0
2708.42822265625	n/a	WORD	5546861	wordpools/wasnorm_wordpool_576.txt	LTP374	ltpFR2	3	13	CAMEL	223	n/a	n/a	0	0	0
2711.0712890625	n/a	WORD	5552274	wordpools/wasnorm_wordpool_576.txt	LTP374	ltpFR2	3	13	EAGLE	512	n/a	n/a	0	0	0
2713.494140625	n/a	WORD	5557236	wordpools/wasnorm_wordpool_576.txt	LTP374	ltpFR2	3	13	TREAT	1501	n/a	n/a	0	0	0
2716.1201171875	n/a	WORD	5562614	wordpools/wasnorm_wordpool_576.txt	LTP374	ltpFR2	3	13	SHORTCAKE	1292	n/a	n/a	0	0	0
2718.794921875	n/a	WORD	5568092	wordpools/wasnorm_wordpool_576.txt	LTP374	ltpFR2	3	13	COBRA	336	n/a	n/a	0	0	0
2721.40283203125	n/a	WORD	5573433	wordpools/wasnorm_wordpool_576.txt	LTP374	ltpFR2	3	13	POISON	1096	n/a	n/a	0	0	0
2723.84375	n/a	WORD	5578432	wordpools/wasnorm_wordpool_576.txt	LTP374	ltpFR2	3	13	CRIB	407	n/a	n/a	0	0	0
2726.2685546875	n/a	WORD	5583398	wordpools/wasnorm_wordpool_576.txt	LTP374	ltpFR2	3	13	PARENT	1013	n/a	n/a	0	0	0
2728.69287109375	n/a	WORD	5588363	wordpools/wasnorm_wordpool_576.txt	LTP374	ltpFR2	3	13	BLOUSE	139	n/a	n/a	0	0	0
2730.298828125	n/a	START	5591652	n/a	LTP374	ltpFR2	3	n/a	n/a	n/a	19	n/a	n/a	n/a	n/a
2731.2197265625	n/a	DISTRACTOR	5593538	n/a	LTP374	ltpFR2	3	13	n/a	n/a	n/a	n/a	0	0	0
2731.234375	n/a	PROB	5593568	n/a	LTP374	ltpFR2	3	n/a	n/a	n/a	19	13	5	1	7
2732.83935546875	n/a	PROB	5596855	n/a	LTP374	ltpFR2	3	n/a	n/a	n/a	19	17	7	7	3
2733.82666015625	n/a	PROB	5598877	n/a	LTP374	ltpFR2	3	n/a	n/a	n/a	19	9	3	4	2
2734.8125	n/a	PROB	5600896	n/a	LTP374	ltpFR2	3	n/a	n/a	n/a	19	9	5	3	1
2736.4013671875	n/a	PROB	5604150	n/a	LTP374	ltpFR2	3	n/a	n/a	n/a	19	7	3	2	2
2737.42138671875	n/a	PROB	5606239	n/a	LTP374	ltpFR2	3	n/a	n/a	n/a	19	11	4	3	4
2738.57421875	n/a	PROB	5608600	n/a	LTP374	ltpFR2	3	n/a	n/a	n/a	19	24	9	8	7
2740.08056640625	n/a	PROB	5611685	n/a	LTP374	ltpFR2	3	n/a	n/a	n/a	19	18	4	9	5
2741.25048828125	n/a	PROB	5614081	n/a	LTP374	ltpFR2	3	n/a	n/a	n/a	19	15	6	5	4
2742.955078125	n/a	PROB	5617572	n/a	LTP374	ltpFR2	3	n/a	n/a	n/a	19	17	4	7	6
2744.31005859375	n/a	PROB	5620347	n/a	LTP374	ltpFR2	3	n/a	n/a	n/a	19	15	6	2	7
2745.43017578125	n/a	PROB	5622641	n/a	LTP374	ltpFR2	3	n/a	n/a	n/a	19	18	9	4	5
2746.60009765625	n/a	PROB	5625037	n/a	LTP374	ltpFR2	3	n/a	n/a	n/a	19	17	9	6	2
2747.87109375	n/a	PROB	5627640	n/a	LTP374	ltpFR2	3	n/a	n/a	n/a	19	13	5	6	2
2748.9580078125	n/a	PROB	5629866	n/a	LTP374	ltpFR2	3	n/a	n/a	n/a	19	17	3	6	8
2750.09619140625	n/a	PROB	5632197	n/a	LTP374	ltpFR2	3	n/a	n/a	n/a	19	16	8	6	2
2751.298828125	n/a	PROB	5634660	n/a	LTP374	ltpFR2	3	n/a	n/a	n/a	19	8	5	2	1
2752.15283203125	n/a	PROB	5636409	n/a	LTP374	ltpFR2	3	n/a	n/a	n/a	19	18	9	2	7
2753.2099609375	n/a	STOP	5638574	n/a	LTP374	ltpFR2	3	n/a	n/a	n/a	19	n/a	n/a	n/a	n/a
2756.19873046875	n/a	REC_START	5644695	n/a	LTP374	ltpFR2	3	13	n/a	n/a	n/a	n/a	0	0	0
2756.7978515625	n/a	REC_WORD	5645922	wordpools/wasnorm_wordpool_576.txt	LTP374	ltpFR2	3	13	COBRA	336	n/a	n/a	0	0	0
2757.81689453125	n/a	REC_WORD	5648009	wordpools/wasnorm_wordpool_576.txt	LTP374	ltpFR2	3	13	POISON	1096	n/a	n/a	0	0	0
2758.931640625	n/a	REC_WORD	5650292	wordpools/wasnorm_wordpool_576.txt	LTP374	ltpFR2	3	13	EAGLE	512	n/a	n/a	0	0	0
2759.79296875	n/a	REC_WORD	5652056	wordpools/wasnorm_wordpool_576.txt	LTP374	ltpFR2	3	13	SUMMIT	1405	n/a	n/a	0	0	0
2761.02099609375	n/a	REC_WORD	5654571	wordpools/wasnorm_wordpool_576.txt	LTP374	ltpFR2	3	13	DAISY	435	n/a	n/a	0	0	0
2762.2958984375	n/a	REC_WORD	5657182	wordpools/wasnorm_wordpool_576.txt	LTP374	ltpFR2	3	13	CANYON	235	n/a	n/a	0	0	0
2763.40185546875	n/a	REC_WORD	5659447	wordpools/wasnorm_wordpool_576.txt	LTP374	ltpFR2	3	13	LONDON	843	n/a	n/a	0	0	0
2764.48486328125	n/a	REC_WORD	5661665	wordpools/wasnorm_wordpool_576.txt	LTP374	ltpFR2	3	13	COUNTRY	388	n/a	n/a	0	0	0
2765.48974609375	n/a	REC_WORD	5663723	wordpools/wasnorm_wordpool_576.txt	LTP374	ltpFR2	3	13	CHAUFFEUR	283	n/a	n/a	0	0	0
2768.1396484375	n/a	REC_WORD	5669150	wordpools/wasnorm_wordpool_576.txt	LTP374	ltpFR2	3	13	TREAT	1501	n/a	n/a	0	0	0
2770.6455078125	n/a	REC_WORD	5674282	wordpools/wasnorm_wordpool_576.txt	LTP374	ltpFR2	3	13	COUSIN	392	n/a	n/a	0	0	0
2771.7333984375	n/a	REC_WORD	5676510	wordpools/wasnorm_wordpool_576.txt	LTP374	ltpFR2	3	13	INFANT	737	n/a	n/a	0	0	0
2773.24462890625	n/a	REC_WORD	5679605	wordpools/wasnorm_wordpool_576.txt	LTP374	ltpFR2	3	13	CRIB	407	n/a	n/a	0	0	0
2774.33056640625	n/a	REC_WORD	5681829	wordpools/wasnorm_wordpool_576.txt	LTP374	ltpFR2	3	13	PARENT	1013	n/a	n/a	0	0	0
2783.39404296875	n/a	REC_WORD	5700391	wordpools/wasnorm_wordpool_576.txt	LTP374	ltpFR2	3	13	PARENT	1013	n/a	n/a	0	0	0
2846.6572265625	n/a	DISTRACTOR	5829954	n/a	LTP374	ltpFR2	3	14	n/a	n/a	n/a	n/a	0	0	0
2846.6572265625	n/a	START	5829954	n/a	LTP374	ltpFR2	3	n/a	n/a	n/a	20	n/a	n/a	n/a	n/a
2846.67138671875	n/a	PROB	5829983	n/a	LTP374	ltpFR2	3	n/a	n/a	n/a	20	9	5	3	1
2847.67529296875	n/a	PROB	5832039	n/a	LTP374	ltpFR2	3	n/a	n/a	n/a	20	9	6	1	2
2848.728515625	n/a	PROB	5834196	n/a	LTP374	ltpFR2	3	n/a	n/a	n/a	20	18	8	2	8
2850.13427734375	n/a	PROB	5837075	n/a	LTP374	ltpFR2	3	n/a	n/a	n/a	20	20	6	5	9
2851.18603515625	n/a	PROB	5839229	n/a	LTP374	ltpFR2	3	n/a	n/a	n/a	20	17	6	7	4
2852.2060546875	n/a	PROB	5841318	n/a	LTP374	ltpFR2	3	n/a	n/a	n/a	20	11	2	6	3
2853.34326171875	n/a	PROB	5843647	n/a	LTP374	ltpFR2	3	n/a	n/a	n/a	20	7	3	1	3
2854.24609375	n/a	PROB	5845496	n/a	LTP374	ltpFR2	3	n/a	n/a	n/a	20	19	7	4	8
2855.73388671875	n/a	PROB	5848543	n/a	LTP374	ltpFR2	3	n/a	n/a	n/a	20	22	8	6	8
2856.97216796875	n/a	PROB	5851079	n/a	LTP374	ltpFR2	3	n/a	n/a	n/a	20	14	5	7	2
2858.3759765625	n/a	PROB	5853954	n/a	LTP374	ltpFR2	3	n/a	n/a	n/a	20	9	2	2	5
2859.1630859375	n/a	PROB	5855566	n/a	LTP374	ltpFR2	3	n/a	n/a	n/a	20	18	3	6	9
2860.21484375	n/a	PROB	5857720	n/a	LTP374	ltpFR2	3	n/a	n/a	n/a	20	9	6	1	2
2861.0517578125	n/a	PROB	5859434	n/a	LTP374	ltpFR2	3	n/a	n/a	n/a	20	9	3	3	3
2861.8369140625	n/a	PROB	5861042	n/a	LTP374	ltpFR2	3	n/a	n/a	n/a	20	20	9	9	2
2862.8408203125	n/a	PROB	5863098	n/a	LTP374	ltpFR2	3	n/a	n/a	n/a	20	10	4	1	5
2863.7939453125	n/a	PROB	5865050	n/a	LTP374	ltpFR2	3	n/a	n/a	n/a	20	14	4	1	9
2865.03173828125	n/a	PROB	5867585	n/a	LTP374	ltpFR2	3	n/a	n/a	n/a	20	15	5	6	4
2866.0849609375	n/a	PROB	5869742	n/a	LTP374	ltpFR2	3	n/a	n/a	n/a	20	17	8	1	8
2867.10498046875	n/a	PROB	5871831	n/a	LTP374	ltpFR2	3	n/a	n/a	n/a	20	19	6	8	5
2868.2578125	n/a	PROB	5874192	n/a	LTP374	ltpFR2	3	n/a	n/a	n/a	20	9	3	5	1
2869.11181640625	n/a	PROB	5875941	n/a	LTP374	ltpFR2	3	n/a	n/a	n/a	20	9	6	1	2
2869.8349609375	n/a	STOP	5877422	n/a	LTP374	ltpFR2	3	n/a	n/a	n/a	20	n/a	n/a	n/a	n/a
2871.5185546875	n/a	WORD	5880870	wordpools/wasnorm_wordpool_576.txt	LTP374	ltpFR2	3	14	BUNNY	198	n/a	n/a	0	0	0
2874.060546875	n/a	WORD	5886076	wordpools/wasnorm_wordpool_576.txt	LTP374	ltpFR2	3	14	DRINK	498	n/a	n/a	0	0	0
2876.484375	n/a	WORD	5891040	wordpools/wasnorm_wordpool_576.txt	LTP374	ltpFR2	3	14	STREAM	1392	n/a	n/a	0	0	0
2879.1103515625	n/a	WORD	5896418	wordpools/wasnorm_wordpool_576.txt	LTP374	ltpFR2	3	14	DENTIST	447	n/a	n/a	0	0	0
2881.63427734375	n/a	WORD	5901587	wordpools/wasnorm_wordpool_576.txt	LTP374	ltpFR2	3	14	SIDEWALK	1303	n/a	n/a	0	0	0
2884.1923828125	n/a	WORD	5906826	wordpools/wasnorm_wordpool_576.txt	LTP374	ltpFR2	3	14	HIGHWAY	707	n/a	n/a	0	0	0
2886.7001953125	n/a	WORD	5911962	wordpools/wasnorm_wordpool_576.txt	LTP374	ltpFR2	3	14	SAUSAGE	1238	n/a	n/a	0	0	0
2889.3251953125	n/a	WORD	5917338	wordpools/wasnorm_wordpool_576.txt	LTP374	ltpFR2	3	14	BANQUET	86	n/a	n/a	0	0	0
2892.06787109375	n/a	WORD	5922955	wordpools/wasnorm_wordpool_576.txt	LTP374	ltpFR2	3	14	TERMITE	1451	n/a	n/a	0	0	0
2894.4921875	n/a	WORD	5927920	wordpools/wasnorm_wordpool_576.txt	LTP374	ltpFR2	3	14	MUFFIN	929	n/a	n/a	0	0	0
2897.06787109375	n/a	WORD	5933195	wordpools/wasnorm_wordpool_576.txt	LTP374	ltpFR2	3	14	FINGER	567	n/a	n/a	0	0	0
2899.69189453125	n/a	WORD	5938569	wordpools/wasnorm_wordpool_576.txt	LTP374	ltpFR2	3	14	PATIENT	1024	n/a	n/a	0	0	0
2902.3837890625	n/a	WORD	5944082	wordpools/wasnorm_wordpool_576.txt	LTP374	ltpFR2	3	14	WAITER	1580	n/a	n/a	0	0	0
2905.19287109375	n/a	WORD	5949835	wordpools/wasnorm_wordpool_576.txt	LTP374	ltpFR2	3	14	NOMAD	955	n/a	n/a	0	0	0
2907.75146484375	n/a	WORD	5955075	wordpools/wasnorm_wordpool_576.txt	LTP374	ltpFR2	3	14	LUMBER	848	n/a	n/a	0	0	0
2910.275390625	n/a	WORD	5960244	wordpools/wasnorm_wordpool_576.txt	LTP374	ltpFR2	3	14	PEANUT	1032	n/a	n/a	0	0	0
2912.83447265625	n/a	WORD	5965485	wordpools/wasnorm_wordpool_576.txt	LTP374	ltpFR2	3	14	UMPIRE	1535	n/a	n/a	0	0	0
2915.45947265625	n/a	WORD	5970861	wordpools/wasnorm_wordpool_576.txt	LTP374	ltpFR2	3	14	WHISKERS	1605	n/a	n/a	0	0	0
2918.017578125	n/a	WORD	5976100	wordpools/wasnorm_wordpool_576.txt	LTP374	ltpFR2	3	14	VAGRANT	1544	n/a	n/a	0	0	0
2920.6591796875	n/a	WORD	5981510	wordpools/wasnorm_wordpool_576.txt	LTP374	ltpFR2	3	14	PROTON	1132	n/a	n/a	0	0	0
2923.3681640625	n/a	WORD	5987058	wordpools/wasnorm_wordpool_576.txt	LTP374	ltpFR2	3	14	PECAN	1036	n/a	n/a	0	0	0
2925.8759765625	n/a	WORD	5992194	wordpools/wasnorm_wordpool_576.txt	LTP374	ltpFR2	3	14	BUG	187	n/a	n/a	0	0	0
2928.55126953125	n/a	WORD	5997673	wordpools/wasnorm_wordpool_576.txt	LTP374	ltpFR2	3	14	BOUQUET	157	n/a	n/a	0	0	0
2931.34423828125	n/a	WORD	6003393	wordpools/wasnorm_wordpool_576.txt	LTP374	ltpFR2	3	14	JELLO	754	n/a	n/a	0	0	0
2932.94873046875	n/a	START	6006679	n/a	LTP374	ltpFR2	3	n/a	n/a	n/a	21	n/a	n/a	n/a	n/a
2933.9697265625	n/a	DISTRACTOR	6008770	n/a	LTP374	ltpFR2	3	14	n/a	n/a	n/a	n/a	0	0	0
2933.98583984375	n/a	PROB	6008803	n/a	LTP374	ltpFR2	3	n/a	n/a	n/a	21	16	8	1	7
2935.1728515625	n/a	PROB	6011234	n/a	LTP374	ltpFR2	3	n/a	n/a	n/a	21	12	2	2	8
2936.04296875	n/a	PROB	6013016	n/a	LTP374	ltpFR2	3	n/a	n/a	n/a	21	17	3	5	9
2937.14697265625	n/a	PROB	6015277	n/a	LTP374	ltpFR2	3	n/a	n/a	n/a	21	24	6	9	9
2938.36572265625	n/a	PROB	6017773	n/a	LTP374	ltpFR2	3	n/a	n/a	n/a	21	19	9	7	3
2940.32275390625	n/a	PROB	6021781	n/a	LTP374	ltpFR2	3	n/a	n/a	n/a	21	25	9	8	8
2941.7109375	n/a	PROB	6024624	n/a	LTP374	ltpFR2	3	n/a	n/a	n/a	21	27	9	9	9
2942.6298828125	n/a	PROB	6026506	n/a	LTP374	ltpFR2	3	n/a	n/a	n/a	21	15	4	5	7
2943.8837890625	n/a	PROB	6029074	n/a	LTP374	ltpFR2	3	n/a	n/a	n/a	21	14	4	7	3
