mstime	trial_type	stim_file	subject	experiment	session	trial	item_name	item_num	list	answer	test_x	test_y	test_z
0	SESS_START	n/a	LTP391	ltpFR2	19	n/a	n/a	n/a	n/a	n/a	0	0	0
11069	START	n/a	LTP391	ltpFR2	19	n/a	n/a	n/a	-1	n/a	n/a	n/a	n/a
11100	PROB	n/a	LTP391	ltpFR2	19	n/a	n/a	n/a	-1	17	6	4	7
12867	PROB	n/a	LTP391	ltpFR2	19	n/a	n/a	n/a	-1	22	9	7	5
15450	PROB	n/a	LTP391	ltpFR2	19	n/a	n/a	n/a	-1	21	9	9	3
17317	PROB	n/a	LTP391	ltpFR2	19	n/a	n/a	n/a	-1	20	8	7	5
19200	PROB	n/a	LTP391	ltpFR2	19	n/a	n/a	n/a	-1	26	9	8	9
20767	PROB	n/a	LTP391	ltpFR2	19	n/a	n/a	n/a	-1	15	4	9	2
22020	STOP	n/a	LTP391	ltpFR2	19	n/a	n/a	n/a	-1	n/a	n/a	n/a	n/a
51599	WORD	wordpools/wasnorm_wordpool_576.txt	LTP391	ltpFR2	19	1	ISLAND	745	n/a	n/a	0	0	0
54099	WORD	wordpools/wasnorm_wordpool_576.txt	LTP391	ltpFR2	19	1	COURSE	390	n/a	n/a	0	0	0
56899	WORD	wordpools/wasnorm_wordpool_576.txt	LTP391	ltpFR2	19	1	CANYON	235	n/a	n/a	0	0	0
59449	WORD	wordpools/wasnorm_wordpool_576.txt	LTP391	ltpFR2	19	1	DORM	488	n/a	n/a	0	0	0
62066	WORD	wordpools/wasnorm_wordpool_576.txt	LTP391	ltpFR2	19	1	MATTRESS	879	n/a	n/a	0	0	0
64566	WORD	wordpools/wasnorm_wordpool_576.txt	LTP391	ltpFR2	19	1	HARP	689	n/a	n/a	0	0	0
67366	WORD	wordpools/wasnorm_wordpool_576.txt	LTP391	ltpFR2	19	1	PLASTER	1085	n/a	n/a	0	0	0
70016	WORD	wordpools/wasnorm_wordpool_576.txt	LTP391	ltpFR2	19	1	EUROPE	541	n/a	n/a	0	0	0
72649	WORD	wordpools/wasnorm_wordpool_576.txt	LTP391	ltpFR2	19	1	RIVER	1194	n/a	n/a	0	0	0
75082	WORD	wordpools/wasnorm_wordpool_576.txt	LTP391	ltpFR2	19	1	ICING	732	n/a	n/a	0	0	0
77666	WORD	wordpools/wasnorm_wordpool_576.txt	LTP391	ltpFR2	19	1	PLAID	1080	n/a	n/a	0	0	0
80399	WORD	wordpools/wasnorm_wordpool_576.txt	LTP391	ltpFR2	19	1	EAGLE	512	n/a	n/a	0	0	0
83149	WORD	wordpools/wasnorm_wordpool_576.txt	LTP391	ltpFR2	19	1	MAILMAN	858	n/a	n/a	0	0	0
85582	WORD	wordpools/wasnorm_wordpool_576.txt	LTP391	ltpFR2	19	1	SUITCASE	1403	n/a	n/a	0	0	0
88382	WORD	wordpools/wasnorm_wordpool_576.txt	LTP391	ltpFR2	19	1	FLIPPER	580	n/a	n/a	0	0	0
90832	WORD	wordpools/wasnorm_wordpool_576.txt	LTP391	ltpFR2	19	1	VALVE	1546	n/a	n/a	0	0	0
93349	WORD	wordpools/wasnorm_wordpool_576.txt	LTP391	ltpFR2	19	1	CHAUFFEUR	283	n/a	n/a	0	0	0
95882	WORD	wordpools/wasnorm_wordpool_576.txt	LTP391	ltpFR2	19	1	GIFT	635	n/a	n/a	0	0	0
98332	WORD	wordpools/wasnorm_wordpool_576.txt	LTP391	ltpFR2	19	1	COUNTY	389	n/a	n/a	0	0	0
101065	WORD	wordpools/wasnorm_wordpool_576.txt	LTP391	ltpFR2	19	1	TRANSPLANT	1496	n/a	n/a	0	0	0
103599	WORD	wordpools/wasnorm_wordpool_576.txt	LTP391	ltpFR2	19	1	VIKING	1565	n/a	n/a	0	0	0
106233	WORD	wordpools/wasnorm_wordpool_576.txt	LTP391	ltpFR2	19	1	THRONE	1461	n/a	n/a	0	0	0
108799	WORD	wordpools/wasnorm_wordpool_576.txt	LTP391	ltpFR2	19	1	PIANO	1057	n/a	n/a	0	0	0
111365	WORD	wordpools/wasnorm_wordpool_576.txt	LTP391	ltpFR2	19	1	GAVEL	627	n/a	n/a	0	0	0
112982	START	n/a	LTP391	ltpFR2	19	n/a	n/a	n/a	1	n/a	n/a	n/a	n/a
113821	DISTRACTOR	n/a	LTP391	ltpFR2	19	1	n/a	n/a	n/a	n/a	0	0	0
113832	PROB	n/a	LTP391	ltpFR2	19	n/a	n/a	n/a	1	10	3	3	4
116115	PROB	n/a	LTP391	ltpFR2	19	n/a	n/a	n/a	1	19	9	9	1
117632	PROB	n/a	LTP391	ltpFR2	19	n/a	n/a	n/a	1	19	2	8	9
118782	PROB	n/a	LTP391	ltpFR2	19	n/a	n/a	n/a	1	18	7	5	6
120998	PROB	n/a	LTP391	ltpFR2	19	n/a	n/a	n/a	1	19	3	9	7
122398	PROB	n/a	LTP391	ltpFR2	19	n/a	n/a	n/a	1	5	1	3	1
123398	PROB	n/a	LTP391	ltpFR2	19	n/a	n/a	n/a	1	21	8	4	9
124765	PROB	n/a	LTP391	ltpFR2	19	n/a	n/a	n/a	1	13	4	8	1
125965	PROB	n/a	LTP391	ltpFR2	19	n/a	n/a	n/a	1	16	1	6	8
127198	PROB	n/a	LTP391	ltpFR2	19	n/a	n/a	n/a	1	14	3	4	7
128482	PROB	n/a	LTP391	ltpFR2	19	n/a	n/a	n/a	1	23	8	9	6
130248	PROB	n/a	LTP391	ltpFR2	19	n/a	n/a	n/a	1	23	9	5	9
132115	PROB	n/a	LTP391	ltpFR2	19	n/a	n/a	n/a	1	10	4	2	4
133382	PROB	n/a	LTP391	ltpFR2	19	n/a	n/a	n/a	1	24	8	7	9
134681	PROB	n/a	LTP391	ltpFR2	19	n/a	n/a	n/a	1	12	1	6	5
135647	STOP	n/a	LTP391	ltpFR2	19	n/a	n/a	n/a	1	n/a	n/a	n/a	n/a
138832	REC_START	n/a	LTP391	ltpFR2	19	1	n/a	n/a	n/a	n/a	0	0	0
139139	REC_WORD	wordpools/wasnorm_wordpool_576.txt	LTP391	ltpFR2	19	1	VIKING	1565	n/a	n/a	0	0	0
139613	REC_WORD	wordpools/wasnorm_wordpool_576.txt	LTP391	ltpFR2	19	1	THRONE	1461	n/a	n/a	0	0	0
140214	REC_WORD	wordpools/wasnorm_wordpool_576.txt	LTP391	ltpFR2	19	1	GAVEL	627	n/a	n/a	0	0	0
140686	REC_WORD	wordpools/wasnorm_wordpool_576.txt	LTP391	ltpFR2	19	1	ICING	732	n/a	n/a	0	0	0
141144	REC_WORD	wordpools/wasnorm_wordpool_576.txt	LTP391	ltpFR2	19	1	TRANSPLANT	1496	n/a	n/a	0	0	0
142553	REC_WORD	wordpools/wasnorm_wordpool_576.txt	LTP391	ltpFR2	19	1	ISLAND	745	n/a	n/a	0	0	0
143072	REC_WORD	wordpools/wasnorm_wordpool_576.txt	LTP391	ltpFR2	19	1	COURSE	390	n/a	n/a	0	0	0
143662	REC_WORD	wordpools/wasnorm_wordpool_576.txt	LTP391	ltpFR2	19	1	RIVER	1194	n/a	n/a	0	0	0
144491	REC_WORD	wordpools/wasnorm_wordpool_576.txt	LTP391	ltpFR2	19	1	CANYON	235	n/a	n/a	0	0	0
146356	REC_WORD	wordpools/wasnorm_wordpool_576.txt	LTP391	ltpFR2	19	1	DORM	488	n/a	n/a	0	0	0
146846	REC_WORD	wordpools/wasnorm_wordpool_576.txt	LTP391	ltpFR2	19	1	MATTRESS	879	n/a	n/a	0	0	0
156134	REC_WORD	wordpools/wasnorm_wordpool_576.txt	LTP391	ltpFR2	19	1	RIVER	1194	n/a	n/a	0	0	0
165312	REC_WORD	wordpools/wasnorm_wordpool_576.txt	LTP391	ltpFR2	19	1	EUROPE	541	n/a	n/a	0	0	0
165816	REC_WORD	wordpools/wasnorm_wordpool_576.txt	LTP391	ltpFR2	19	1	COUNTY	389	n/a	n/a	0	0	0
175400	REC_WORD	wordpools/wasnorm_wordpool_576.txt	LTP391	ltpFR2	19	1	DONOR	485	n/a	n/a	0	0	0
187886	REC_WORD	wordpools/wasnorm_wordpool_576.txt	LTP391	ltpFR2	19	1	CHAUFFEUR	283	n/a	n/a	0	0	0
189758	REC_WORD	wordpools/wasnorm_wordpool_576.txt	LTP391	ltpFR2	19	1	VALVE	1546	n/a	n/a	0	0	0
229280	WORD	wordpools/wasnorm_wordpool_576.txt	LTP391	ltpFR2	19	2	BLENDER	136	n/a	n/a	0	0	0
231830	WORD	wordpools/wasnorm_wordpool_576.txt	LTP391	ltpFR2	19	2	JOURNAL	760	n/a	n/a	0	0	0
234330	WORD	wordpools/wasnorm_wordpool_576.txt	LTP391	ltpFR2	19	2	NOVEL	960	n/a	n/a	0	0	0
237047	WORD	wordpools/wasnorm_wordpool_576.txt	LTP391	ltpFR2	19	2	GRAVEL	659	n/a	n/a	0	0	0
239730	WORD	wordpools/wasnorm_wordpool_576.txt	LTP391	ltpFR2	19	2	SHELTER	1282	n/a	n/a	0	0	0
242280	WORD	wordpools/wasnorm_wordpool_576.txt	LTP391	ltpFR2	19	2	GROUND	666	n/a	n/a	0	0	0
244846	WORD	wordpools/wasnorm_wordpool_576.txt	LTP391	ltpFR2	19	2	KIDNEY	776	n/a	n/a	0	0	0
247663	WORD	wordpools/wasnorm_wordpool_576.txt	LTP391	ltpFR2	19	2	REPORT	1184	n/a	n/a	0	0	0
250396	WORD	wordpools/wasnorm_wordpool_576.txt	LTP391	ltpFR2	19	2	MARS	873	n/a	n/a	0	0	0
252880	WORD	wordpools/wasnorm_wordpool_576.txt	LTP391	ltpFR2	19	2	OZONE	996	n/a	n/a	0	0	0
255630	WORD	wordpools/wasnorm_wordpool_576.txt	LTP391	ltpFR2	19	2	HAND	683	n/a	n/a	0	0	0
258230	WORD	wordpools/wasnorm_wordpool_576.txt	LTP391	ltpFR2	19	2	FLUTE	585	n/a	n/a	0	0	0
260763	WORD	wordpools/wasnorm_wordpool_576.txt	LTP391	ltpFR2	19	2	JUGGLER	763	n/a	n/a	0	0	0
263246	WORD	wordpools/wasnorm_wordpool_576.txt	LTP391	ltpFR2	19	2	ONION	977	n/a	n/a	0	0	0
266013	WORD	wordpools/wasnorm_wordpool_576.txt	LTP391	ltpFR2	19	2	ACTRESS	6	n/a	n/a	0	0	0
268579	WORD	wordpools/wasnorm_wordpool_576.txt	LTP391	ltpFR2	19	2	DENIM	446	n/a	n/a	0	0	0
271329	WORD	wordpools/wasnorm_wordpool_576.txt	LTP391	ltpFR2	19	2	SUNSET	1408	n/a	n/a	0	0	0
273912	WORD	wordpools/wasnorm_wordpool_576.txt	LTP391	ltpFR2	19	2	GAZELLE	628	n/a	n/a	0	0	0
276579	WORD	wordpools/wasnorm_wordpool_576.txt	LTP391	ltpFR2	19	2	COTTAGE	384	n/a	n/a	0	0	0
279029	WORD	wordpools/wasnorm_wordpool_576.txt	LTP391	ltpFR2	19	2	PUDDLE	1140	n/a	n/a	0	0	0
281596	WORD	wordpools/wasnorm_wordpool_576.txt	LTP391	ltpFR2	19	2	TILE	1468	n/a	n/a	0	0	0
284179	WORD	wordpools/wasnorm_wordpool_576.txt	LTP391	ltpFR2	19	2	HATCHET	691	n/a	n/a	0	0	0
286946	WORD	wordpools/wasnorm_wordpool_576.txt	LTP391	ltpFR2	19	2	SWORD	1423	n/a	n/a	0	0	0
289496	WORD	wordpools/wasnorm_wordpool_576.txt	LTP391	ltpFR2	19	2	GARBAGE	622	n/a	n/a	0	0	0
291112	START	n/a	LTP391	ltpFR2	19	n/a	n/a	n/a	2	n/a	n/a	n/a	n/a
292122	DISTRACTOR	n/a	LTP391	ltpFR2	19	2	n/a	n/a	n/a	n/a	0	0	0
292129	PROB	n/a	LTP391	ltpFR2	19	n/a	n/a	n/a	2	17	9	3	5
293662	PROB	n/a	LTP391	ltpFR2	19	n/a	n/a	n/a	2	9	1	2	6
294695	PROB	n/a	LTP391	ltpFR2	19	n/a	n/a	n/a	2	14	2	5	7
296012	PROB	n/a	LTP391	ltpFR2	19	n/a	n/a	n/a	2	9	1	3	5
297179	PROB	n/a	LTP391	ltpFR2	19	n/a	n/a	n/a	2	16	5	2	9
298512	PROB	n/a	LTP391	ltpFR2	19	n/a	n/a	n/a	2	20	5	8	7
300012	PROB	n/a	LTP391	ltpFR2	19	n/a	n/a	n/a	2	11	2	8	1
301112	PROB	n/a	LTP391	ltpFR2	19	n/a	n/a	n/a	2	17	5	8	4
302429	PROB	n/a	LTP391	ltpFR2	19	n/a	n/a	n/a	2	25	8	9	8
306245	PROB	n/a	LTP391	ltpFR2	19	n/a	n/a	n/a	2	15	4	5	6
308079	PROB	n/a	LTP391	ltpFR2	19	n/a	n/a	n/a	2	18	5	7	6
310945	PROB	n/a	LTP391	ltpFR2	19	n/a	n/a	n/a	2	16	4	3	9
312345	PROB	n/a	LTP391	ltpFR2	19	n/a	n/a	n/a	2	10	1	4	5
313740	STOP	n/a	LTP391	ltpFR2	19	n/a	n/a	n/a	2	n/a	n/a	n/a	n/a
316929	REC_START	n/a	LTP391	ltpFR2	19	2	n/a	n/a	n/a	n/a	0	0	0
317270	REC_WORD	wordpools/wasnorm_wordpool_576.txt	LTP391	ltpFR2	19	2	COTTAGE	384	n/a	n/a	0	0	0
317754	REC_WORD	wordpools/wasnorm_wordpool_576.txt	LTP391	ltpFR2	19	2	HATCHET	691	n/a	n/a	0	0	0
318211	REC_WORD	wordpools/wasnorm_wordpool_576.txt	LTP391	ltpFR2	19	2	SWORD	1423	n/a	n/a	0	0	0
318700	REC_WORD	wordpools/wasnorm_wordpool_576.txt	LTP391	ltpFR2	19	2	SUNSET	1408	n/a	n/a	0	0	0
319810	REC_WORD	wordpools/wasnorm_wordpool_576.txt	LTP391	ltpFR2	19	2	GARBAGE	622	n/a	n/a	0	0	0
325892	REC_WORD	wordpools/wasnorm_wordpool_576.txt	LTP391	ltpFR2	19	2	GAZELLE	628	n/a	n/a	0	0	0
327339	REC_WORD	wordpools/wasnorm_wordpool_576.txt	LTP391	ltpFR2	19	2	ACTRESS	6	n/a	n/a	0	0	0
327896	REC_WORD	wordpools/wasnorm_wordpool_576.txt	LTP391	ltpFR2	19	2	JUGGLER	763	n/a	n/a	0	0	0
331595	REC_WORD	wordpools/wasnorm_wordpool_576.txt	LTP391	ltpFR2	19	2	HAND	683	n/a	n/a	0	0	0
332138	REC_WORD	wordpools/wasnorm_wordpool_576.txt	LTP391	ltpFR2	19	2	KIDNEY	776	n/a	n/a	0	0	0
334025	REC_WORD	wordpools/wasnorm_wordpool_576.txt	LTP391	ltpFR2	19	2	NOVEL	960	n/a	n/a	0	0	0
335023	REC_WORD	wordpools/wasnorm_wordpool_576.txt	LTP391	ltpFR2	19	2	REPORT	1184	n/a	n/a	0	0	0
336411	REC_WORD	wordpools/wasnorm_wordpool_576.txt	LTP391	ltpFR2	19	2	GRAVEL	659	n/a	n/a	0	0	0
338481	REC_WORD	wordpools/wasnorm_wordpool_576.txt	LTP391	ltpFR2	19	2	GAVEL	627	n/a	n/a	0	0	0
349922	REC_WORD	wordpools/wasnorm_wordpool_576.txt	LTP391	ltpFR2	19	2	BLENDER	136	n/a	n/a	0	0	0
407394	WORD	wordpools/wasnorm_wordpool_576.txt	LTP391	ltpFR2	19	3	BRANCH	168	n/a	n/a	0	0	0
410177	WORD	wordpools/wasnorm_wordpool_576.txt	LTP391	ltpFR2	19	3	APRON	35	n/a	n/a	0	0	0
412827	WORD	wordpools/wasnorm_wordpool_576.txt	LTP391	ltpFR2	19	3	MAPLE	866	n/a	n/a	0	0	0
415410	WORD	wordpools/wasnorm_wordpool_576.txt	LTP391	ltpFR2	19	3	CASKET	255	n/a	n/a	0	0	0
418228	WORD	wordpools/wasnorm_wordpool_576.txt	LTP391	ltpFR2	19	3	POSSUM	1112	n/a	n/a	0	0	0
420810	WORD	wordpools/wasnorm_wordpool_576.txt	LTP391	ltpFR2	19	3	BOYFRIEND	162	n/a	n/a	0	0	0
423510	WORD	wordpools/wasnorm_wordpool_576.txt	LTP391	ltpFR2	19	3	LOVER	846	n/a	n/a	0	0	0
426293	WORD	wordpools/wasnorm_wordpool_576.txt	LTP391	ltpFR2	19	3	WRIST	1626	n/a	n/a	0	0	0
429110	WORD	wordpools/wasnorm_wordpool_576.txt	LTP391	ltpFR2	19	3	BURGLAR	200	n/a	n/a	0	0	0
431543	WORD	wordpools/wasnorm_wordpool_576.txt	LTP391	ltpFR2	19	3	OFFICE	972	n/a	n/a	0	0	0
434293	WORD	wordpools/wasnorm_wordpool_576.txt	LTP391	ltpFR2	19	3	YOLK	1633	n/a	n/a	0	0	0
437010	WORD	wordpools/wasnorm_wordpool_576.txt	LTP391	ltpFR2	19	3	CRITIC	410	n/a	n/a	0	0	0
439476	WORD	wordpools/wasnorm_wordpool_576.txt	LTP391	ltpFR2	19	3	SUNRISE	1407	n/a	n/a	0	0	0
442160	WORD	wordpools/wasnorm_wordpool_576.txt	LTP391	ltpFR2	19	3	INFANT	737	n/a	n/a	0	0	0
444843	WORD	wordpools/wasnorm_wordpool_576.txt	LTP391	ltpFR2	19	3	DUSTPAN	509	n/a	n/a	0	0	0
447443	WORD	wordpools/wasnorm_wordpool_576.txt	LTP391	ltpFR2	19	3	SERVANT	1271	n/a	n/a	0	0	0
450227	WORD	wordpools/wasnorm_wordpool_576.txt	LTP391	ltpFR2	19	3	BLADE	134	n/a	n/a	0	0	0
453026	WORD	wordpools/wasnorm_wordpool_576.txt	LTP391	ltpFR2	19	3	STALLION	1369	n/a	n/a	0	0	0
455560	WORD	wordpools/wasnorm_wordpool_576.txt	LTP391	ltpFR2	19	3	SCULPTURE	1258	n/a	n/a	0	0	0
458093	WORD	wordpools/wasnorm_wordpool_576.txt	LTP391	ltpFR2	19	3	SKETCH	1315	n/a	n/a	0	0	0
460543	WORD	wordpools/wasnorm_wordpool_576.txt	LTP391	ltpFR2	19	3	SPOON	1357	n/a	n/a	0	0	0
463343	WORD	wordpools/wasnorm_wordpool_576.txt	LTP391	ltpFR2	19	3	PROTON	1132	n/a	n/a	0	0	0
465826	WORD	wordpools/wasnorm_wordpool_576.txt	LTP391	ltpFR2	19	3	GLOVE	642	n/a	n/a	0	0	0
468526	WORD	wordpools/wasnorm_wordpool_576.txt	LTP391	ltpFR2	19	3	CLOCK	325	n/a	n/a	0	0	0
470143	START	n/a	LTP391	ltpFR2	19	n/a	n/a	n/a	3	n/a	n/a	n/a	n/a
470993	DISTRACTOR	n/a	LTP391	ltpFR2	19	3	n/a	n/a	n/a	n/a	0	0	0
471009	PROB	n/a	LTP391	ltpFR2	19	n/a	n/a	n/a	3	13	1	5	7
472276	PROB	n/a	LTP391	ltpFR2	19	n/a	n/a	n/a	3	18	6	8	4
474093	PROB	n/a	LTP391	ltpFR2	19	n/a	n/a	n/a	3	21	9	8	4
475459	PROB	n/a	LTP391	ltpFR2	19	n/a	n/a	n/a	3	13	8	1	4
476526	PROB	n/a	LTP391	ltpFR2	19	n/a	n/a	n/a	3	20	8	9	3
478076	PROB	n/a	LTP391	ltpFR2	19	n/a	n/a	n/a	3	19	3	9	7
479210	PROB	n/a	LTP391	ltpFR2	19	n/a	n/a	n/a	3	8	2	5	1
480293	PROB	n/a	LTP391	ltpFR2	19	n/a	n/a	n/a	3	17	6	5	6
481792	PROB	n/a	LTP391	ltpFR2	19	n/a	n/a	n/a	3	17	5	9	3
482926	PROB	n/a	LTP391	ltpFR2	19	n/a	n/a	n/a	3	13	4	6	3
484426	PROB	n/a	LTP391	ltpFR2	19	n/a	n/a	n/a	3	22	8	5	9
486126	PROB	n/a	LTP391	ltpFR2	19	n/a	n/a	n/a	3	13	2	8	3
487576	PROB	n/a	LTP391	ltpFR2	19	n/a	n/a	n/a	3	21	4	9	8
489210	PROB	n/a	LTP391	ltpFR2	19	n/a	n/a	n/a	3	14	6	6	4
490442	PROB	n/a	LTP391	ltpFR2	19	n/a	n/a	n/a	3	20	3	8	9
492259	PROB	n/a	LTP391	ltpFR2	19	n/a	n/a	n/a	3	18	7	5	6
493642	STOP	n/a	LTP391	ltpFR2	19	n/a	n/a	n/a	3	n/a	n/a	n/a	n/a
495909	REC_START	n/a	LTP391	ltpFR2	19	3	n/a	n/a	n/a	n/a	0	0	0
496703	REC_WORD	wordpools/wasnorm_wordpool_576.txt	LTP391	ltpFR2	19	3	CASKET	255	n/a	n/a	0	0	0
497640	REC_WORD	wordpools/wasnorm_wordpool_576.txt	LTP391	ltpFR2	19	3	YOLK	1633	n/a	n/a	0	0	0
498205	REC_WORD	wordpools/wasnorm_wordpool_576.txt	LTP391	ltpFR2	19	3	BOYFRIEND	162	n/a	n/a	0	0	0
498735	REC_WORD	wordpools/wasnorm_wordpool_576.txt	LTP391	ltpFR2	19	3	LOVER	846	n/a	n/a	0	0	0
499753	REC_WORD	wordpools/wasnorm_wordpool_576.txt	LTP391	ltpFR2	19	3	CRITIC	410	n/a	n/a	0	0	0
500301	REC_WORD	wordpools/wasnorm_wordpool_576.txt	LTP391	ltpFR2	19	3	INFANT	737	n/a	n/a	0	0	0
501417	REC_WORD	wordpools/wasnorm_wordpool_576.txt	LTP391	ltpFR2	19	3	BURGLAR	200	n/a	n/a	0	0	0
501896	REC_WORD	wordpools/wasnorm_wordpool_576.txt	LTP391	ltpFR2	19	3	CASKET	255	n/a	n/a	0	0	0
502442	REC_WORD	wordpools/wasnorm_wordpool_576.txt	LTP391	ltpFR2	19	3	OFFICE	972	n/a	n/a	0	0	0
504217	REC_WORD	wordpools/wasnorm_wordpool_576.txt	LTP391	ltpFR2	19	3	SERVANT	1271	n/a	n/a	0	0	0
507974	REC_WORD	wordpools/wasnorm_wordpool_576.txt	LTP391	ltpFR2	19	3	WRIST	1626	n/a	n/a	0	0	0
508502	REC_WORD	wordpools/wasnorm_wordpool_576.txt	LTP391	ltpFR2	19	3	GLOVE	642	n/a	n/a	0	0	0
513425	REC_WORD	wordpools/wasnorm_wordpool_576.txt	LTP391	ltpFR2	19	3	BRANCH	168	n/a	n/a	0	0	0
513870	REC_WORD	wordpools/wasnorm_wordpool_576.txt	LTP391	ltpFR2	19	3	MAPLE	866	n/a	n/a	0	0	0
515489	REC_WORD	wordpools/wasnorm_wordpool_576.txt	LTP391	ltpFR2	19	3	MAPLE	866	n/a	n/a	0	0	0
515868	REC_WORD	wordpools/wasnorm_wordpool_576.txt	LTP391	ltpFR2	19	3	POSSUM	1112	n/a	n/a	0	0	0
528727	REC_WORD	wordpools/wasnorm_wordpool_576.txt	LTP391	ltpFR2	19	3	SUNRISE	1407	n/a	n/a	0	0	0
541269	REC_WORD	wordpools/wasnorm_wordpool_576.txt	LTP391	ltpFR2	19	3	STALLION	1369	n/a	n/a	0	0	0
586374	WORD	wordpools/wasnorm_wordpool_576.txt	LTP391	ltpFR2	19	4	COFFEE	341	n/a	n/a	0	0	0
588924	WORD	wordpools/wasnorm_wordpool_576.txt	LTP391	ltpFR2	19	4	STREAM	1392	n/a	n/a	0	0	0
591424	WORD	wordpools/wasnorm_wordpool_576.txt	LTP391	ltpFR2	19	4	FLASHLIGHT	575	n/a	n/a	0	0	0
593957	WORD	wordpools/wasnorm_wordpool_576.txt	LTP391	ltpFR2	19	4	STICKER	1382	n/a	n/a	0	0	0
596724	WORD	wordpools/wasnorm_wordpool_576.txt	LTP391	ltpFR2	19	4	CRUTCH	417	n/a	n/a	0	0	0
599257	WORD	wordpools/wasnorm_wordpool_576.txt	LTP391	ltpFR2	19	4	DIME	466	n/a	n/a	0	0	0
601807	WORD	wordpools/wasnorm_wordpool_576.txt	LTP391	ltpFR2	19	4	COBRA	336	n/a	n/a	0	0	0
604624	WORD	wordpools/wasnorm_wordpool_576.txt	LTP391	ltpFR2	19	4	LASER	801	n/a	n/a	0	0	0
607157	WORD	wordpools/wasnorm_wordpool_576.txt	LTP391	ltpFR2	19	4	SWITCH	1422	n/a	n/a	0	0	0
609890	WORD	wordpools/wasnorm_wordpool_576.txt	LTP391	ltpFR2	19	4	SEAFOOD	1260	n/a	n/a	0	0	0
612490	WORD	wordpools/wasnorm_wordpool_576.txt	LTP391	ltpFR2	19	4	SCALLOP	1242	n/a	n/a	0	0	0
615190	WORD	wordpools/wasnorm_wordpool_576.txt	LTP391	ltpFR2	19	4	PRINCESS	1125	n/a	n/a	0	0	0
617857	WORD	wordpools/wasnorm_wordpool_576.txt	LTP391	ltpFR2	19	4	SHOULDER	1294	n/a	n/a	0	0	0
620390	WORD	wordpools/wasnorm_wordpool_576.txt	LTP391	ltpFR2	19	4	FARMER	553	n/a	n/a	0	0	0
622974	WORD	wordpools/wasnorm_wordpool_576.txt	LTP391	ltpFR2	19	4	PRINCE	1124	n/a	n/a	0	0	0
625623	WORD	wordpools/wasnorm_wordpool_576.txt	LTP391	ltpFR2	19	4	JAPAN	749	n/a	n/a	0	0	0
628157	WORD	wordpools/wasnorm_wordpool_576.txt	LTP391	ltpFR2	19	4	PLAZA	1088	n/a	n/a	0	0	0
630907	WORD	wordpools/wasnorm_wordpool_576.txt	LTP391	ltpFR2	19	4	PLIERS	1089	n/a	n/a	0	0	0
633507	WORD	wordpools/wasnorm_wordpool_576.txt	LTP391	ltpFR2	19	4	MACHINE	852	n/a	n/a	0	0	0
636224	WORD	wordpools/wasnorm_wordpool_576.txt	LTP391	ltpFR2	19	4	ULCER	1533	n/a	n/a	0	0	0
638790	WORD	wordpools/wasnorm_wordpool_576.txt	LTP391	ltpFR2	19	4	GLASS	639	n/a	n/a	0	0	0
641390	WORD	wordpools/wasnorm_wordpool_576.txt	LTP391	ltpFR2	19	4	PARTNER	1017	n/a	n/a	0	0	0
643940	WORD	wordpools/wasnorm_wordpool_576.txt	LTP391	ltpFR2	19	4	NEUTRON	947	n/a	n/a	0	0	0
646656	WORD	wordpools/wasnorm_wordpool_576.txt	LTP391	ltpFR2	19	4	QUARTER	1148	n/a	n/a	0	0	0
648273	START	n/a	LTP391	ltpFR2	19	n/a	n/a	n/a	4	n/a	n/a	n/a	n/a
649467	DISTRACTOR	n/a	LTP391	ltpFR2	19	4	n/a	n/a	n/a	n/a	0	0	0
649473	PROB	n/a	LTP391	ltpFR2	19	n/a	n/a	n/a	4	9	5	2	2
650756	PROB	n/a	LTP391	ltpFR2	19	n/a	n/a	n/a	4	15	4	2	9
651923	PROB	n/a	LTP391	ltpFR2	19	n/a	n/a	n/a	4	20	3	8	9
653340	PROB	n/a	LTP391	ltpFR2	19	n/a	n/a	n/a	4	11	4	4	3
655224	PROB	n/a	LTP391	ltpFR2	19	n/a	n/a	n/a	4	15	6	3	6
657190	PROB	n/a	LTP391	ltpFR2	19	n/a	n/a	n/a	4	8	1	2	5
658156	PROB	n/a	LTP391	ltpFR2	19	n/a	n/a	n/a	4	12	2	4	6
659290	PROB	n/a	LTP391	ltpFR2	19	n/a	n/a	n/a	4	18	1	8	9
660456	PROB	n/a	LTP391	ltpFR2	19	n/a	n/a	n/a	4	10	1	4	5
661706	PROB	n/a	LTP391	ltpFR2	19	n/a	n/a	n/a	4	15	5	9	1
662923	PROB	n/a	LTP391	ltpFR2	19	n/a	n/a	n/a	4	11	9	1	1
664306	PROB	n/a	LTP391	ltpFR2	19	n/a	n/a	n/a	4	9	4	1	4
666423	PROB	n/a	LTP391	ltpFR2	19	n/a	n/a	n/a	4	16	7	8	1
667656	PROB	n/a	LTP391	ltpFR2	19	n/a	n/a	n/a	4	11	4	2	5
669306	PROB	n/a	LTP391	ltpFR2	19	n/a	n/a	n/a	4	24	9	9	6
670759	STOP	n/a	LTP391	ltpFR2	19	n/a	n/a	n/a	4	n/a	n/a	n/a	n/a
674106	REC_START	n/a	LTP391	ltpFR2	19	4	n/a	n/a	n/a	n/a	0	0	0
675035	REC_WORD	wordpools/wasnorm_wordpool_576.txt	LTP391	ltpFR2	19	4	QUARTER	1148	n/a	n/a	0	0	0
675467	REC_WORD	wordpools/wasnorm_wordpool_576.txt	LTP391	ltpFR2	19	4	SCALLOP	1242	n/a	n/a	0	0	0
676013	REC_WORD	wordpools/wasnorm_wordpool_576.txt	LTP391	ltpFR2	19	4	SEAFOOD	1260	n/a	n/a	0	0	0
677150	REC_WORD	wordpools/wasnorm_wordpool_576.txt	LTP391	ltpFR2	19	4	FARMER	553	n/a	n/a	0	0	0
677707	REC_WORD	wordpools/wasnorm_wordpool_576.txt	LTP391	ltpFR2	19	4	PRINCESS	1125	n/a	n/a	0	0	0
678343	REC_WORD	wordpools/wasnorm_wordpool_576.txt	LTP391	ltpFR2	19	4	PRINCE	1124	n/a	n/a	0	0	0
678866	REC_WORD	wordpools/wasnorm_wordpool_576.txt	LTP391	ltpFR2	19	4	PLAZA	1088	n/a	n/a	0	0	0
679399	REC_WORD	wordpools/wasnorm_wordpool_576.txt	LTP391	ltpFR2	19	4	PLIERS	1089	n/a	n/a	0	0	0
679974	REC_WORD	wordpools/wasnorm_wordpool_576.txt	LTP391	ltpFR2	19	4	MACHINE	852	n/a	n/a	0	0	0
680557	REC_WORD	wordpools/wasnorm_wordpool_576.txt	LTP391	ltpFR2	19	4	GLASS	639	n/a	n/a	0	0	0
685136	REC_WORD	wordpools/wasnorm_wordpool_576.txt	LTP391	ltpFR2	19	4	SHOULDER	1294	n/a	n/a	0	0	0
687273	REC_WORD	wordpools/wasnorm_wordpool_576.txt	LTP391	ltpFR2	19	4	COBRA	336	n/a	n/a	0	0	0
689965	REC_WORD	wordpools/wasnorm_wordpool_576.txt	LTP391	ltpFR2	19	4	COFFEE	341	n/a	n/a	0	0	0
764588	WORD	wordpools/wasnorm_wordpool_576.txt	LTP391	ltpFR2	19	5	GRILL	661	n/a	n/a	0	0	0
767021	WORD	wordpools/wasnorm_wordpool_576.txt	LTP391	ltpFR2	19	5	DAUGHTER	442	n/a	n/a	0	0	0
769454	WORD	wordpools/wasnorm_wordpool_576.txt	LTP391	ltpFR2	19	5	CAFE	216	n/a	n/a	0	0	0
771888	WORD	wordpools/wasnorm_wordpool_576.txt	LTP391	ltpFR2	19	5	BUGGY	188	n/a	n/a	0	0	0
774638	WORD	wordpools/wasnorm_wordpool_576.txt	LTP391	ltpFR2	19	5	OX	994	n/a	n/a	0	0	0
777288	WORD	wordpools/wasnorm_wordpool_576.txt	LTP391	ltpFR2	19	5	PLAYGROUND	1087	n/a	n/a	0	0	0
780054	WORD	wordpools/wasnorm_wordpool_576.txt	LTP391	ltpFR2	19	5	PIZZA	1079	n/a	n/a	0	0	0
782688	WORD	wordpools/wasnorm_wordpool_576.txt	LTP391	ltpFR2	19	5	SLUG	1329	n/a	n/a	0	0	0
785188	WORD	wordpools/wasnorm_wordpool_576.txt	LTP391	ltpFR2	19	5	MARSH	874	n/a	n/a	0	0	0
787721	WORD	wordpools/wasnorm_wordpool_576.txt	LTP391	ltpFR2	19	5	YACHT	1629	n/a	n/a	0	0	0
790321	WORD	wordpools/wasnorm_wordpool_576.txt	LTP391	ltpFR2	19	5	PADDLE	1000	n/a	n/a	0	0	0
792754	WORD	wordpools/wasnorm_wordpool_576.txt	LTP391	ltpFR2	19	5	HIGHWAY	707	n/a	n/a	0	0	0
795571	WORD	wordpools/wasnorm_wordpool_576.txt	LTP391	ltpFR2	19	5	EGYPT	519	n/a	n/a	0	0	0
798222	WORD	wordpools/wasnorm_wordpool_576.txt	LTP391	ltpFR2	19	5	CRICKET	408	n/a	n/a	0	0	0
800721	WORD	wordpools/wasnorm_wordpool_576.txt	LTP391	ltpFR2	19	5	COCOON	339	n/a	n/a	0	0	0
803171	WORD	wordpools/wasnorm_wordpool_576.txt	LTP391	ltpFR2	19	5	SMOG	1330	n/a	n/a	0	0	0
805720	WORD	wordpools/wasnorm_wordpool_576.txt	LTP391	ltpFR2	19	5	CONCERT	360	n/a	n/a	0	0	0
808387	WORD	wordpools/wasnorm_wordpool_576.txt	LTP391	ltpFR2	19	5	MONSTER	912	n/a	n/a	0	0	0
810937	WORD	wordpools/wasnorm_wordpool_576.txt	LTP391	ltpFR2	19	5	TEMPLE	1448	n/a	n/a	0	0	0
813370	WORD	wordpools/wasnorm_wordpool_576.txt	LTP391	ltpFR2	19	5	AUTHOR	61	n/a	n/a	0	0	0
816020	WORD	wordpools/wasnorm_wordpool_576.txt	LTP391	ltpFR2	19	5	SWAMP	1416	n/a	n/a	0	0	0
818604	WORD	wordpools/wasnorm_wordpool_576.txt	LTP391	ltpFR2	19	5	TROUT	1511	n/a	n/a	0	0	0
821154	WORD	wordpools/wasnorm_wordpool_576.txt	LTP391	ltpFR2	19	5	PORK	1108	n/a	n/a	0	0	0
823770	WORD	wordpools/wasnorm_wordpool_576.txt	LTP391	ltpFR2	19	5	BOUQUET	157	n/a	n/a	0	0	0
825387	START	n/a	LTP391	ltpFR2	19	n/a	n/a	n/a	5	n/a	n/a	n/a	n/a
826438	DISTRACTOR	n/a	LTP391	ltpFR2	19	5	n/a	n/a	n/a	n/a	0	0	0
826454	PROB	n/a	LTP391	ltpFR2	19	n/a	n/a	n/a	5	15	8	4	3
828087	PROB	n/a	LTP391	ltpFR2	19	n/a	n/a	n/a	5	20	4	9	7
829620	PROB	n/a	LTP391	ltpFR2	19	n/a	n/a	n/a	5	9	1	6	2
830787	PROB	n/a	LTP391	ltpFR2	19	n/a	n/a	n/a	5	11	4	6	1
831920	PROB	n/a	LTP391	ltpFR2	19	n/a	n/a	n/a	5	13	5	3	5
833287	PROB	n/a	LTP391	ltpFR2	19	n/a	n/a	n/a	5	17	9	6	2
835221	PROB	n/a	LTP391	ltpFR2	19	n/a	n/a	n/a	5	15	7	6	2
836920	PROB	n/a	LTP391	ltpFR2	19	n/a	n/a	n/a	5	12	5	4	3
839170	PROB	n/a	LTP391	ltpFR2	19	n/a	n/a	n/a	5	15	4	8	3
840437	PROB	n/a	LTP391	ltpFR2	19	n/a	n/a	n/a	5	9	6	2	1
841370	PROB	n/a	LTP391	ltpFR2	19	n/a	n/a	n/a	5	16	8	4	4
842803	PROB	n/a	LTP391	ltpFR2	19	n/a	n/a	n/a	5	14	9	2	3
844020	PROB	n/a	LTP391	ltpFR2	19	n/a	n/a	n/a	5	15	7	5	3
845636	PROB	n/a	LTP391	ltpFR2	19	n/a	n/a	n/a	5	7	3	3	1
848052	STOP	n/a	LTP391	ltpFR2	19	n/a	n/a	n/a	5	n/a	n/a	n/a	n/a
851270	REC_START	n/a	LTP391	ltpFR2	19	5	n/a	n/a	n/a	n/a	0	0	0
853781	REC_WORD	wordpools/wasnorm_wordpool_576.txt	LTP391	ltpFR2	19	5	CONCERT	360	n/a	n/a	0	0	0
854380	REC_WORD	wordpools/wasnorm_wordpool_576.txt	LTP391	ltpFR2	19	5	GRILL	661	n/a	n/a	0	0	0
854884	REC_WORD	wordpools/wasnorm_wordpool_576.txt	LTP391	ltpFR2	19	5	DAUGHTER	442	n/a	n/a	0	0	0
857469	REC_WORD	wordpools/wasnorm_wordpool_576.txt	LTP391	ltpFR2	19	5	TEMPLE	1448	n/a	n/a	0	0	0
858029	REC_WORD	wordpools/wasnorm_wordpool_576.txt	LTP391	ltpFR2	19	5	AUTHOR	61	n/a	n/a	0	0	0
858989	REC_WORD	wordpools/wasnorm_wordpool_576.txt	LTP391	ltpFR2	19	5	EGYPT	519	n/a	n/a	0	0	0
859691	REC_WORD	wordpools/wasnorm_wordpool_576.txt	LTP391	ltpFR2	19	5	SMOG	1330	n/a	n/a	0	0	0
864525	REC_WORD	wordpools/wasnorm_wordpool_576.txt	LTP391	ltpFR2	19	5	PLAYGROUND	1087	n/a	n/a	0	0	0
884842	REC_WORD	wordpools/wasnorm_wordpool_576.txt	LTP391	ltpFR2	19	5	MONSTER	912	n/a	n/a	0	0	0
941752	WORD	wordpools/wasnorm_wordpool_576.txt	LTP391	ltpFR2	19	6	CABBAGE	210	n/a	n/a	0	0	0
944568	WORD	wordpools/wasnorm_wordpool_576.txt	LTP391	ltpFR2	19	6	BUG	187	n/a	n/a	0	0	0
947035	WORD	wordpools/wasnorm_wordpool_576.txt	LTP391	ltpFR2	19	6	SPIDER	1351	n/a	n/a	0	0	0
949801	WORD	wordpools/wasnorm_wordpool_576.txt	LTP391	ltpFR2	19	6	SNAIL	1332	n/a	n/a	0	0	0
952418	WORD	wordpools/wasnorm_wordpool_576.txt	LTP391	ltpFR2	19	6	NOTEBOOK	959	n/a	n/a	0	0	0
955201	WORD	wordpools/wasnorm_wordpool_576.txt	LTP391	ltpFR2	19	6	OUTFIT	988	n/a	n/a	0	0	0
957718	WORD	wordpools/wasnorm_wordpool_576.txt	LTP391	ltpFR2	19	6	ATOM	55	n/a	n/a	0	0	0
960335	WORD	wordpools/wasnorm_wordpool_576.txt	LTP391	ltpFR2	19	6	AIRPLANE	12	n/a	n/a	0	0	0
963085	WORD	wordpools/wasnorm_wordpool_576.txt	LTP391	ltpFR2	19	6	TURNIP	1521	n/a	n/a	0	0	0
965785	WORD	wordpools/wasnorm_wordpool_576.txt	LTP391	ltpFR2	19	6	FRUIT	610	n/a	n/a	0	0	0
968368	WORD	wordpools/wasnorm_wordpool_576.txt	LTP391	ltpFR2	19	6	TORTOISE	1486	n/a	n/a	0	0	0
971084	WORD	wordpools/wasnorm_wordpool_576.txt	LTP391	ltpFR2	19	6	KNIFE	785	n/a	n/a	0	0	0
973601	WORD	wordpools/wasnorm_wordpool_576.txt	LTP391	ltpFR2	19	6	NAPKIN	937	n/a	n/a	0	0	0
976184	WORD	wordpools/wasnorm_wordpool_576.txt	LTP391	ltpFR2	19	6	EYELASH	546	n/a	n/a	0	0	0
978651	WORD	wordpools/wasnorm_wordpool_576.txt	LTP391	ltpFR2	19	6	BUBBLE	183	n/a	n/a	0	0	0
981318	WORD	wordpools/wasnorm_wordpool_576.txt	LTP391	ltpFR2	19	6	BATHTUB	100	n/a	n/a	0	0	0
984068	WORD	wordpools/wasnorm_wordpool_576.txt	LTP391	ltpFR2	19	6	RUST	1219	n/a	n/a	0	0	0
986818	WORD	wordpools/wasnorm_wordpool_576.txt	LTP391	ltpFR2	19	6	DANCER	437	n/a	n/a	0	0	0
989251	WORD	wordpools/wasnorm_wordpool_576.txt	LTP391	ltpFR2	19	6	RECORD	1176	n/a	n/a	0	0	0
991817	WORD	wordpools/wasnorm_wordpool_576.txt	LTP391	ltpFR2	19	6	LADDER	793	n/a	n/a	0	0	0
994317	WORD	wordpools/wasnorm_wordpool_576.txt	LTP391	ltpFR2	19	6	GOBLIN	645	n/a	n/a	0	0	0
997067	WORD	wordpools/wasnorm_wordpool_576.txt	LTP391	ltpFR2	19	6	EMPIRE	530	n/a	n/a	0	0	0
999584	WORD	wordpools/wasnorm_wordpool_576.txt	LTP391	ltpFR2	19	6	BACKBONE	66	n/a	n/a	0	0	0
1002167	WORD	wordpools/wasnorm_wordpool_576.txt	LTP391	ltpFR2	19	6	WAGON	1578	n/a	n/a	0	0	0
1003784	START	n/a	LTP391	ltpFR2	19	n/a	n/a	n/a	6	n/a	n/a	n/a	n/a
1004680	DISTRACTOR	n/a	LTP391	ltpFR2	19	6	n/a	n/a	n/a	n/a	0	0	0
1004684	PROB	n/a	LTP391	ltpFR2	19	n/a	n/a	n/a	6	12	7	4	1
1008734	PROB	n/a	LTP391	ltpFR2	19	n/a	n/a	n/a	6	23	6	8	9
1010084	PROB	n/a	LTP391	ltpFR2	19	n/a	n/a	n/a	6	13	4	3	6
1011484	PROB	n/a	LTP391	ltpFR2	19	n/a	n/a	n/a	6	9	3	1	5
1012900	PROB	n/a	LTP391	ltpFR2	19	n/a	n/a	n/a	6	11	4	2	5
1014417	PROB	n/a	LTP391	ltpFR2	19	n/a	n/a	n/a	6	14	3	8	3
1016067	PROB	n/a	LTP391	ltpFR2	19	n/a	n/a	n/a	6	22	9	7	6
1017400	PROB	n/a	LTP391	ltpFR2	19	n/a	n/a	n/a	6	26	9	8	9
1018850	PROB	n/a	LTP391	ltpFR2	19	n/a	n/a	n/a	6	12	2	8	2
1019850	PROB	n/a	LTP391	ltpFR2	19	n/a	n/a	n/a	6	10	2	5	3
1021034	PROB	n/a	LTP391	ltpFR2	19	n/a	n/a	n/a	6	15	6	6	3
1022500	PROB	n/a	LTP391	ltpFR2	19	n/a	n/a	n/a	6	9	6	1	2
1023667	PROB	n/a	LTP391	ltpFR2	19	n/a	n/a	n/a	6	15	8	1	6
1024884	PROB	n/a	LTP391	ltpFR2	19	n/a	n/a	n/a	6	16	2	5	9
1026633	STOP	n/a	LTP391	ltpFR2	19	n/a	n/a	n/a	6	n/a	n/a	n/a	n/a
1029551	REC_START	n/a	LTP391	ltpFR2	19	6	n/a	n/a	n/a	n/a	0	0	0
1029989	REC_WORD	wordpools/wasnorm_wordpool_576.txt	LTP391	ltpFR2	19	6	WAGON	1578	n/a	n/a	0	0	0
1030713	REC_WORD	wordpools/wasnorm_wordpool_576.txt	LTP391	ltpFR2	19	6	BUG	187	n/a	n/a	0	0	0
1031175	REC_WORD	wordpools/wasnorm_wordpool_576.txt	LTP391	ltpFR2	19	6	SPIDER	1351	n/a	n/a	0	0	0
1031761	REC_WORD	wordpools/wasnorm_wordpool_576.txt	LTP391	ltpFR2	19	6	SNAIL	1332	n/a	n/a	0	0	0
1033281	REC_WORD	wordpools/wasnorm_wordpool_576.txt	LTP391	ltpFR2	19	6	TORTOISE	1486	n/a	n/a	0	0	0
1033802	REC_WORD	wordpools/wasnorm_wordpool_576.txt	LTP391	ltpFR2	19	6	KNIFE	785	n/a	n/a	0	0	0
1034282	REC_WORD	wordpools/wasnorm_wordpool_576.txt	LTP391	ltpFR2	19	6	NAPKIN	937	n/a	n/a	0	0	0
1035462	REC_WORD	wordpools/wasnorm_wordpool_576.txt	LTP391	ltpFR2	19	6	CLOTHES	327	n/a	n/a	0	0	0
1038059	REC_WORD	wordpools/wasnorm_wordpool_576.txt	LTP391	ltpFR2	19	6	CABBAGE	210	n/a	n/a	0	0	0
1038631	REC_WORD	wordpools/wasnorm_wordpool_576.txt	LTP391	ltpFR2	19	6	TURNIP	1521	n/a	n/a	0	0	0
1039161	REC_WORD	wordpools/wasnorm_wordpool_576.txt	LTP391	ltpFR2	19	6	FRUIT	610	n/a	n/a	0	0	0
1045395	REC_WORD	wordpools/wasnorm_wordpool_576.txt	LTP391	ltpFR2	19	6	EMPIRE	530	n/a	n/a	0	0	0
1120015	DISTRACTOR	n/a	LTP391	ltpFR2	19	7	n/a	n/a	n/a	n/a	0	0	0
1120016	START	n/a	LTP391	ltpFR2	19	n/a	n/a	n/a	7	n/a	n/a	n/a	n/a
1120032	PROB	n/a	LTP391	ltpFR2	19	n/a	n/a	n/a	7	22	9	9	4
1121515	PROB	n/a	LTP391	ltpFR2	19	n/a	n/a	n/a	7	17	3	8	6
1122915	PROB	n/a	LTP391	ltpFR2	19	n/a	n/a	n/a	7	17	8	6	3
1123915	PROB	n/a	LTP391	ltpFR2	19	n/a	n/a	n/a	7	16	3	8	5
1125282	PROB	n/a	LTP391	ltpFR2	19	n/a	n/a	n/a	7	7	1	3	3
1126432	PROB	n/a	LTP391	ltpFR2	19	n/a	n/a	n/a	7	7	3	1	3
1127432	PROB	n/a	LTP391	ltpFR2	19	n/a	n/a	n/a	7	16	3	8	5
1128565	PROB	n/a	LTP391	ltpFR2	19	n/a	n/a	n/a	7	20	3	8	9
1130515	PROB	n/a	LTP391	ltpFR2	19	n/a	n/a	n/a	7	12	4	6	2
1131498	PROB	n/a	LTP391	ltpFR2	19	n/a	n/a	n/a	7	14	6	6	2
1132899	PROB	n/a	LTP391	ltpFR2	19	n/a	n/a	n/a	7	18	8	1	9
1133999	PROB	n/a	LTP391	ltpFR2	19	n/a	n/a	n/a	7	9	3	3	3
1135548	PROB	n/a	LTP391	ltpFR2	19	n/a	n/a	n/a	7	22	4	9	9
1136765	PROB	n/a	LTP391	ltpFR2	19	n/a	n/a	n/a	7	19	4	6	9
1137948	PROB	n/a	LTP391	ltpFR2	19	n/a	n/a	n/a	7	19	2	8	9
1139615	PROB	n/a	LTP391	ltpFR2	19	n/a	n/a	n/a	7	18	7	7	4
1141432	PROB	n/a	LTP391	ltpFR2	19	n/a	n/a	n/a	7	17	8	3	6
1142693	STOP	n/a	LTP391	ltpFR2	19	n/a	n/a	n/a	7	n/a	n/a	n/a	n/a
1144848	WORD	wordpools/wasnorm_wordpool_576.txt	LTP391	ltpFR2	19	7	MARROW	872	n/a	n/a	0	0	0
1147315	WORD	wordpools/wasnorm_wordpool_576.txt	LTP391	ltpFR2	19	7	RABBIT	1152	n/a	n/a	0	0	0
1149782	WORD	wordpools/wasnorm_wordpool_576.txt	LTP391	ltpFR2	19	7	SUSPECT	1415	n/a	n/a	0	0	0
1152331	WORD	wordpools/wasnorm_wordpool_576.txt	LTP391	ltpFR2	19	7	HUMAN	726	n/a	n/a	0	0	0
1154915	WORD	wordpools/wasnorm_wordpool_576.txt	LTP391	ltpFR2	19	7	FLAG	573	n/a	n/a	0	0	0
1157715	WORD	wordpools/wasnorm_wordpool_576.txt	LTP391	ltpFR2	19	7	FRANCE	601	n/a	n/a	0	0	0
1160531	WORD	wordpools/wasnorm_wordpool_576.txt	LTP391	ltpFR2	19	7	ASIA	46	n/a	n/a	0	0	0
1163281	WORD	wordpools/wasnorm_wordpool_576.txt	LTP391	ltpFR2	19	7	CONVICT	371	n/a	n/a	0	0	0
1166048	WORD	wordpools/wasnorm_wordpool_576.txt	LTP391	ltpFR2	19	7	MILK	895	n/a	n/a	0	0	0
1168781	WORD	wordpools/wasnorm_wordpool_576.txt	LTP391	ltpFR2	19	7	IDOL	733	n/a	n/a	0	0	0
1171232	WORD	wordpools/wasnorm_wordpool_576.txt	LTP391	ltpFR2	19	7	COMET	353	n/a	n/a	0	0	0
1173831	WORD	wordpools/wasnorm_wordpool_576.txt	LTP391	ltpFR2	19	7	COSTUME	383	n/a	n/a	0	0	0
1176498	WORD	wordpools/wasnorm_wordpool_576.txt	LTP391	ltpFR2	19	7	BASEMENT	94	n/a	n/a	0	0	0
1178964	WORD	wordpools/wasnorm_wordpool_576.txt	LTP391	ltpFR2	19	7	BUNNY	198	n/a	n/a	0	0	0
1181481	WORD	wordpools/wasnorm_wordpool_576.txt	LTP391	ltpFR2	19	7	FOREST	593	n/a	n/a	0	0	0
1184131	WORD	wordpools/wasnorm_wordpool_576.txt	LTP391	ltpFR2	19	7	RADISH	1158	n/a	n/a	0	0	0
1186564	WORD	wordpools/wasnorm_wordpool_576.txt	LTP391	ltpFR2	19	7	CARROT	249	n/a	n/a	0	0	0
1189232	WORD	wordpools/wasnorm_wordpool_576.txt	LTP391	ltpFR2	19	7	MILDEW	893	n/a	n/a	0	0	0
1191864	WORD	wordpools/wasnorm_wordpool_576.txt	LTP391	ltpFR2	19	7	SLIME	1327	n/a	n/a	0	0	0
1194314	WORD	wordpools/wasnorm_wordpool_576.txt	LTP391	ltpFR2	19	7	LUMBER	848	n/a	n/a	0	0	0
1196747	WORD	wordpools/wasnorm_wordpool_576.txt	LTP391	ltpFR2	19	7	DONKEY	484	n/a	n/a	0	0	0
1199181	WORD	wordpools/wasnorm_wordpool_576.txt	LTP391	ltpFR2	19	7	XEROX	1628	n/a	n/a	0	0	0
1201647	WORD	wordpools/wasnorm_wordpool_576.txt	LTP391	ltpFR2	19	7	SALAD	1224	n/a	n/a	0	0	0
1204264	WORD	wordpools/wasnorm_wordpool_576.txt	LTP391	ltpFR2	19	7	HAWK	692	n/a	n/a	0	0	0
1205881	START	n/a	LTP391	ltpFR2	19	n/a	n/a	n/a	8	n/a	n/a	n/a	n/a
1206968	DISTRACTOR	n/a	LTP391	ltpFR2	19	7	n/a	n/a	n/a	n/a	0	0	0
1206981	PROB	n/a	LTP391	ltpFR2	19	n/a	n/a	n/a	8	20	9	5	6
1208247	PROB	n/a	LTP391	ltpFR2	19	n/a	n/a	n/a	8	14	8	3	3
1210147	PROB	n/a	LTP391	ltpFR2	19	n/a	n/a	n/a	8	24	8	8	8
1212064	PROB	n/a	LTP391	ltpFR2	19	n/a	n/a	n/a	8	14	6	6	2
1213314	PROB	n/a	LTP391	ltpFR2	19	n/a	n/a	n/a	8	17	9	3	5
1215031	PROB	n/a	LTP391	ltpFR2	19	n/a	n/a	n/a	8	8	4	2	2
1216664	PROB	n/a	LTP391	ltpFR2	19	n/a	n/a	n/a	8	10	1	8	1
1217814	PROB	n/a	LTP391	ltpFR2	19	n/a	n/a	n/a	8	23	9	5	9
1219447	PROB	n/a	LTP391	ltpFR2	19	n/a	n/a	n/a	8	11	4	2	5
1220647	PROB	n/a	LTP391	ltpFR2	19	n/a	n/a	n/a	8	14	9	1	4
1221747	PROB	n/a	LTP391	ltpFR2	19	n/a	n/a	n/a	8	16	9	4	3
1222964	PROB	n/a	LTP391	ltpFR2	19	n/a	n/a	n/a	8	18	8	7	3
1224347	PROB	n/a	LTP391	ltpFR2	19	n/a	n/a	n/a	8	18	7	9	2
1226097	PROB	n/a	LTP391	ltpFR2	19	n/a	n/a	n/a	8	20	9	9	2
1227314	PROB	n/a	LTP391	ltpFR2	19	n/a	n/a	n/a	8	14	8	3	3
1228423	STOP	n/a	LTP391	ltpFR2	19	n/a	n/a	n/a	8	n/a	n/a	n/a	n/a
1231831	REC_START	n/a	LTP391	ltpFR2	19	7	n/a	n/a	n/a	n/a	0	0	0
1232669	REC_WORD	wordpools/wasnorm_wordpool_576.txt	LTP391	ltpFR2	19	7	CONVICT	371	n/a	n/a	0	0	0
1233321	REC_WORD	wordpools/wasnorm_wordpool_576.txt	LTP391	ltpFR2	19	7	COSTUME	383	n/a	n/a	0	0	0
1233939	REC_WORD	wordpools/wasnorm_wordpool_576.txt	LTP391	ltpFR2	19	7	SUSPECT	1415	n/a	n/a	0	0	0
1234598	REC_WORD	wordpools/wasnorm_wordpool_576.txt	LTP391	ltpFR2	19	7	HUMAN	726	n/a	n/a	0	0	0
1236042	REC_WORD	wordpools/wasnorm_wordpool_576.txt	LTP391	ltpFR2	19	7	MILDEW	893	n/a	n/a	0	0	0
1236537	REC_WORD	wordpools/wasnorm_wordpool_576.txt	LTP391	ltpFR2	19	7	MARROW	872	n/a	n/a	0	0	0
1237072	REC_WORD	wordpools/wasnorm_wordpool_576.txt	LTP391	ltpFR2	19	7	BUNNY	198	n/a	n/a	0	0	0
1237458	REC_WORD	wordpools/wasnorm_wordpool_576.txt	LTP391	ltpFR2	19	7	RABBIT	1152	n/a	n/a	0	0	0
1238109	REC_WORD	wordpools/wasnorm_wordpool_576.txt	LTP391	ltpFR2	19	7	RADISH	1158	n/a	n/a	0	0	0
1238665	REC_WORD	wordpools/wasnorm_wordpool_576.txt	LTP391	ltpFR2	19	7	CARROT	249	n/a	n/a	0	0	0
1239059	REC_WORD	wordpools/wasnorm_wordpool_576.txt	LTP391	ltpFR2	19	7	SALAD	1224	n/a	n/a	0	0	0
1239673	REC_WORD	wordpools/wasnorm_wordpool_576.txt	LTP391	ltpFR2	19	7	FOREST	593	n/a	n/a	0	0	0
1240326	REC_WORD	wordpools/wasnorm_wordpool_576.txt	LTP391	ltpFR2	19	7	LUMBER	848	n/a	n/a	0	0	0
1241402	REC_WORD	wordpools/wasnorm_wordpool_576.txt	LTP391	ltpFR2	19	7	SLIME	1327	n/a	n/a	0	0	0
1244734	REC_WORD	wordpools/wasnorm_wordpool_576.txt	LTP391	ltpFR2	19	7	DONKEY	484	n/a	n/a	0	0	0
1251394	REC_WORD	wordpools/wasnorm_wordpool_576.txt	LTP391	ltpFR2	19	7	FLAG	573	n/a	n/a	0	0	0
1251884	REC_WORD	wordpools/wasnorm_wordpool_576.txt	LTP391	ltpFR2	19	7	FRANCE	601	n/a	n/a	0	0	0
1252439	REC_WORD	wordpools/wasnorm_wordpool_576.txt	LTP391	ltpFR2	19	7	ASIA	46	n/a	n/a	0	0	0
1322295	WORD	wordpools/wasnorm_wordpool_576.txt	LTP391	ltpFR2	19	8	LABEL	790	n/a	n/a	0	0	0
1324895	WORD	wordpools/wasnorm_wordpool_576.txt	LTP391	ltpFR2	19	8	BROOK	177	n/a	n/a	0	0	0
1327612	WORD	wordpools/wasnorm_wordpool_576.txt	LTP391	ltpFR2	19	8	FIDDLE	561	n/a	n/a	0	0	0
1330329	WORD	wordpools/wasnorm_wordpool_576.txt	LTP391	ltpFR2	19	8	SCISSORS	1250	n/a	n/a	0	0	0
1332829	WORD	wordpools/wasnorm_wordpool_576.txt	LTP391	ltpFR2	19	8	STAMP	1370	n/a	n/a	0	0	0
1335312	WORD	wordpools/wasnorm_wordpool_576.txt	LTP391	ltpFR2	19	8	SPARROW	1347	n/a	n/a	0	0	0
1338078	WORD	wordpools/wasnorm_wordpool_576.txt	LTP391	ltpFR2	19	8	SCARECROW	1245	n/a	n/a	0	0	0
1340662	WORD	wordpools/wasnorm_wordpool_576.txt	LTP391	ltpFR2	19	8	DUST	508	n/a	n/a	0	0	0
1343145	WORD	wordpools/wasnorm_wordpool_576.txt	LTP391	ltpFR2	19	8	MEAT	883	n/a	n/a	0	0	0
1345578	WORD	wordpools/wasnorm_wordpool_576.txt	LTP391	ltpFR2	19	8	LIZARD	834	n/a	n/a	0	0	0
1348229	WORD	wordpools/wasnorm_wordpool_576.txt	LTP391	ltpFR2	19	8	COOK	372	n/a	n/a	0	0	0
1350812	WORD	wordpools/wasnorm_wordpool_576.txt	LTP391	ltpFR2	19	8	MAILBOX	857	n/a	n/a	0	0	0
1353612	WORD	wordpools/wasnorm_wordpool_576.txt	LTP391	ltpFR2	19	8	VENUS	1557	n/a	n/a	0	0	0
1356161	WORD	wordpools/wasnorm_wordpool_576.txt	LTP391	ltpFR2	19	8	STOVE	1388	n/a	n/a	0	0	0
1358812	WORD	wordpools/wasnorm_wordpool_576.txt	LTP391	ltpFR2	19	8	THIEF	1456	n/a	n/a	0	0	0
1361511	WORD	wordpools/wasnorm_wordpool_576.txt	LTP391	ltpFR2	19	8	ROBBER	1197	n/a	n/a	0	0	0
1364095	WORD	wordpools/wasnorm_wordpool_576.txt	LTP391	ltpFR2	19	8	CUPBOARD	425	n/a	n/a	0	0	0
1366628	WORD	wordpools/wasnorm_wordpool_576.txt	LTP391	ltpFR2	19	8	BEEF	113	n/a	n/a	0	0	0
1369229	WORD	wordpools/wasnorm_wordpool_576.txt	LTP391	ltpFR2	19	8	CATTLE	261	n/a	n/a	0	0	0
1371811	WORD	wordpools/wasnorm_wordpool_576.txt	LTP391	ltpFR2	19	8	SEAL	1262	n/a	n/a	0	0	0
1374411	WORD	wordpools/wasnorm_wordpool_576.txt	LTP391	ltpFR2	19	8	DINER	467	n/a	n/a	0	0	0
1376845	WORD	wordpools/wasnorm_wordpool_576.txt	LTP391	ltpFR2	19	8	FINGER	567	n/a	n/a	0	0	0
1379478	WORD	wordpools/wasnorm_wordpool_576.txt	LTP391	ltpFR2	19	8	TOASTER	1472	n/a	n/a	0	0	0
1382212	WORD	wordpools/wasnorm_wordpool_576.txt	LTP391	ltpFR2	19	8	LIPSTICK	829	n/a	n/a	0	0	0
1383828	START	n/a	LTP391	ltpFR2	19	n/a	n/a	n/a	9	n/a	n/a	n/a	n/a
1384800	DISTRACTOR	n/a	LTP391	ltpFR2	19	8	n/a	n/a	n/a	n/a	0	0	0
1384811	PROB	n/a	LTP391	ltpFR2	19	n/a	n/a	n/a	9	11	2	2	7
1386461	PROB	n/a	LTP391	ltpFR2	19	n/a	n/a	n/a	9	19	8	8	3
1388628	PROB	n/a	LTP391	ltpFR2	19	n/a	n/a	n/a	9	22	8	6	8
1390744	PROB	n/a	LTP391	ltpFR2	19	n/a	n/a	n/a	9	2	9	8	5
1392644	PROB	n/a	LTP391	ltpFR2	19	n/a	n/a	n/a	9	11	5	2	4
1395044	PROB	n/a	LTP391	ltpFR2	19	n/a	n/a	n/a	9	12	1	7	4
1397577	PROB	n/a	LTP391	ltpFR2	19	n/a	n/a	n/a	9	7	2	1	4
1398744	PROB	n/a	LTP391	ltpFR2	19	n/a	n/a	n/a	9	14	6	3	5
1401061	PROB	n/a	LTP391	ltpFR2	19	n/a	n/a	n/a	9	19	9	4	6
1402377	PROB	n/a	LTP391	ltpFR2	19	n/a	n/a	n/a	9	8	2	4	2
1403794	PROB	n/a	LTP391	ltpFR2	19	n/a	n/a	n/a	9	7	2	4	1
1404861	PROB	n/a	LTP391	ltpFR2	19	n/a	n/a	n/a	9	11	5	3	3
1406044	PROB	n/a	LTP391	ltpFR2	19	n/a	n/a	n/a	9	7	4	2	1
1407581	STOP	n/a	LTP391	ltpFR2	19	n/a	n/a	n/a	9	n/a	n/a	n/a	n/a
1409645	REC_START	n/a	LTP391	ltpFR2	19	8	n/a	n/a	n/a	n/a	0	0	0
1411038	REC_WORD	wordpools/wasnorm_wordpool_576.txt	LTP391	ltpFR2	19	8	CATTLE	261	n/a	n/a	0	0	0
1411589	REC_WORD	wordpools/wasnorm_wordpool_576.txt	LTP391	ltpFR2	19	8	BEEF	113	n/a	n/a	0	0	0
1412535	REC_WORD	wordpools/wasnorm_wordpool_576.txt	LTP391	ltpFR2	19	8	SCARECROW	1245	n/a	n/a	0	0	0
1413177	REC_WORD	wordpools/wasnorm_wordpool_576.txt	LTP391	ltpFR2	19	8	SPARROW	1347	n/a	n/a	0	0	0
1418630	REC_WORD	wordpools/wasnorm_wordpool_576.txt	LTP391	ltpFR2	19	8	LABEL	790	n/a	n/a	0	0	0
1419134	REC_WORD	wordpools/wasnorm_wordpool_576.txt	LTP391	ltpFR2	19	8	SEAL	1262	n/a	n/a	0	0	0
1426478	REC_WORD	wordpools/wasnorm_wordpool_576.txt	LTP391	ltpFR2	19	8	DINER	467	n/a	n/a	0	0	0
1427328	REC_WORD	wordpools/wasnorm_wordpool_576.txt	LTP391	ltpFR2	19	8	FINGER	567	n/a	n/a	0	0	0
1431309	REC_WORD	wordpools/wasnorm_wordpool_576.txt	LTP391	ltpFR2	19	8	TOASTER	1472	n/a	n/a	0	0	0
1486193	REST_REWET	n/a	LTP391	ltpFR2	19	8	n/a	n/a	n/a	n/a	0	0	0
1621624	WORD	wordpools/wasnorm_wordpool_576.txt	LTP391	ltpFR2	19	9	BODY	145	n/a	n/a	0	0	0
1624407	WORD	wordpools/wasnorm_wordpool_576.txt	LTP391	ltpFR2	19	9	GALLON	618	n/a	n/a	0	0	0
1627174	WORD	wordpools/wasnorm_wordpool_576.txt	LTP391	ltpFR2	19	9	ROD	1203	n/a	n/a	0	0	0
1629774	WORD	wordpools/wasnorm_wordpool_576.txt	LTP391	ltpFR2	19	9	ARMY	39	n/a	n/a	0	0	0
1632207	WORD	wordpools/wasnorm_wordpool_576.txt	LTP391	ltpFR2	19	9	TART	1436	n/a	n/a	0	0	0
1634824	WORD	wordpools/wasnorm_wordpool_576.txt	LTP391	ltpFR2	19	9	BOARD	143	n/a	n/a	0	0	0
1637507	WORD	wordpools/wasnorm_wordpool_576.txt	LTP391	ltpFR2	19	9	BLACKBOARD	133	n/a	n/a	0	0	0
1640241	WORD	wordpools/wasnorm_wordpool_576.txt	LTP391	ltpFR2	19	9	CROSS	413	n/a	n/a	0	0	0
1643007	WORD	wordpools/wasnorm_wordpool_576.txt	LTP391	ltpFR2	19	9	COLLEGE	346	n/a	n/a	0	0	0
1645723	WORD	wordpools/wasnorm_wordpool_576.txt	LTP391	ltpFR2	19	9	ATLAS	53	n/a	n/a	0	0	0
1648340	WORD	wordpools/wasnorm_wordpool_576.txt	LTP391	ltpFR2	19	9	PARROT	1015	n/a	n/a	0	0	0
1650840	WORD	wordpools/wasnorm_wordpool_576.txt	LTP391	ltpFR2	19	9	TEACHER	1440	n/a	n/a	0	0	0
1653307	WORD	wordpools/wasnorm_wordpool_576.txt	LTP391	ltpFR2	19	9	SURVEY	1414	n/a	n/a	0	0	0
1655757	WORD	wordpools/wasnorm_wordpool_576.txt	LTP391	ltpFR2	19	9	CHEST	295	n/a	n/a	0	0	0
1658340	WORD	wordpools/wasnorm_wordpool_576.txt	LTP391	ltpFR2	19	9	BADGE	68	n/a	n/a	0	0	0
1660973	WORD	wordpools/wasnorm_wordpool_576.txt	LTP391	ltpFR2	19	9	GUARD	667	n/a	n/a	0	0	0
1663656	WORD	wordpools/wasnorm_wordpool_576.txt	LTP391	ltpFR2	19	9	BRACES	164	n/a	n/a	0	0	0
1666473	WORD	wordpools/wasnorm_wordpool_576.txt	LTP391	ltpFR2	19	9	CANDY	230	n/a	n/a	0	0	0
1669306	WORD	wordpools/wasnorm_wordpool_576.txt	LTP391	ltpFR2	19	9	OYSTER	995	n/a	n/a	0	0	0
1671756	WORD	wordpools/wasnorm_wordpool_576.txt	LTP391	ltpFR2	19	9	HONEY	713	n/a	n/a	0	0	0
1674556	WORD	wordpools/wasnorm_wordpool_576.txt	LTP391	ltpFR2	19	9	COMPASS	358	n/a	n/a	0	0	0
1677090	WORD	wordpools/wasnorm_wordpool_576.txt	LTP391	ltpFR2	19	9	SIDEWALK	1303	n/a	n/a	0	0	0
1679556	WORD	wordpools/wasnorm_wordpool_576.txt	LTP391	ltpFR2	19	9	DRUG	501	n/a	n/a	0	0	0
1682306	WORD	wordpools/wasnorm_wordpool_576.txt	LTP391	ltpFR2	19	9	PASSAGE	1019	n/a	n/a	0	0	0
1683923	START	n/a	LTP391	ltpFR2	19	n/a	n/a	n/a	10	n/a	n/a	n/a	n/a
1684988	DISTRACTOR	n/a	LTP391	ltpFR2	19	9	n/a	n/a	n/a	n/a	0	0	0
1707923	STOP	n/a	LTP391	ltpFR2	19	n/a	n/a	n/a	10	n/a	n/a	n/a	n/a
1709707	REC_START	n/a	LTP391	ltpFR2	19	9	n/a	n/a	n/a	n/a	0	0	0
1715300	REC_WORD	wordpools/wasnorm_wordpool_576.txt	LTP391	ltpFR2	19	9	BODY	145	n/a	n/a	0	0	0
1800154	DISTRACTOR	n/a	LTP391	ltpFR2	19	10	n/a	n/a	n/a	n/a	0	0	0
1800154	START	n/a	LTP391	ltpFR2	19	n/a	n/a	n/a	11	n/a	n/a	n/a	n/a
1824154	STOP	n/a	LTP391	ltpFR2	19	n/a	n/a	n/a	11	n/a	n/a	n/a	n/a
1825321	WORD	wordpools/wasnorm_wordpool_576.txt	LTP391	ltpFR2	19	10	MATCH	878	n/a	n/a	0	0	0
1827820	WORD	wordpools/wasnorm_wordpool_576.txt	LTP391	ltpFR2	19	10	PAIL	1002	n/a	n/a	0	0	0
1830404	WORD	wordpools/wasnorm_wordpool_576.txt	LTP391	ltpFR2	19	10	TABLET	1427	n/a	n/a	0	0	0
1832937	WORD	wordpools/wasnorm_wordpool_576.txt	LTP391	ltpFR2	19	10	CHIPMUNK	304	n/a	n/a	0	0	0
1835537	WORD	wordpools/wasnorm_wordpool_576.txt	LTP391	ltpFR2	19	10	STATUE	1374	n/a	n/a	0	0	0
1838187	WORD	wordpools/wasnorm_wordpool_576.txt	LTP391	ltpFR2	19	10	FOREHEAD	592	n/a	n/a	0	0	0
1840620	WORD	wordpools/wasnorm_wordpool_576.txt	LTP391	ltpFR2	19	10	WHISKERS	1605	n/a	n/a	0	0	0
1843370	WORD	wordpools/wasnorm_wordpool_576.txt	LTP391	ltpFR2	19	10	LAMP	798	n/a	n/a	0	0	0
1846154	WORD	wordpools/wasnorm_wordpool_576.txt	LTP391	ltpFR2	19	10	PILOT	1070	n/a	n/a	0	0	0
1848853	WORD	wordpools/wasnorm_wordpool_576.txt	LTP391	ltpFR2	19	10	RACKET	1155	n/a	n/a	0	0	0
1851487	WORD	wordpools/wasnorm_wordpool_576.txt	LTP391	ltpFR2	19	10	CAMEL	223	n/a	n/a	0	0	0
1854270	WORD	wordpools/wasnorm_wordpool_576.txt	LTP391	ltpFR2	19	10	CIGAR	308	n/a	n/a	0	0	0
1856770	WORD	wordpools/wasnorm_wordpool_576.txt	LTP391	ltpFR2	19	10	TYPIST	1532	n/a	n/a	0	0	0
1859587	WORD	wordpools/wasnorm_wordpool_576.txt	LTP391	ltpFR2	19	10	TERMITE	1451	n/a	n/a	0	0	0
1862153	WORD	wordpools/wasnorm_wordpool_576.txt	LTP391	ltpFR2	19	10	FOOTBALL	591	n/a	n/a	0	0	0
1864703	WORD	wordpools/wasnorm_wordpool_576.txt	LTP391	ltpFR2	19	10	MOTOR	922	n/a	n/a	0	0	0
1867270	WORD	wordpools/wasnorm_wordpool_576.txt	LTP391	ltpFR2	19	10	EXPERT	543	n/a	n/a	0	0	0
1870003	WORD	wordpools/wasnorm_wordpool_576.txt	LTP391	ltpFR2	19	10	PALACE	1006	n/a	n/a	0	0	0
1872553	WORD	wordpools/wasnorm_wordpool_576.txt	LTP391	ltpFR2	19	10	PAPER	1011	n/a	n/a	0	0	0
1875320	WORD	wordpools/wasnorm_wordpool_576.txt	LTP391	ltpFR2	19	10	SNAKE	1333	n/a	n/a	0	0	0
1878136	WORD	wordpools/wasnorm_wordpool_576.txt	LTP391	ltpFR2	19	10	SLIDE	1326	n/a	n/a	0	0	0
1880870	WORD	wordpools/wasnorm_wordpool_576.txt	LTP391	ltpFR2	19	10	KETCHUP	771	n/a	n/a	0	0	0
1883536	WORD	wordpools/wasnorm_wordpool_576.txt	LTP391	ltpFR2	19	10	SHORTCAKE	1292	n/a	n/a	0	0	0
1886103	WORD	wordpools/wasnorm_wordpool_576.txt	LTP391	ltpFR2	19	10	BEAST	108	n/a	n/a	0	0	0
1887720	START	n/a	LTP391	ltpFR2	19	n/a	n/a	n/a	12	n/a	n/a	n/a	n/a
1888677	DISTRACTOR	n/a	LTP391	ltpFR2	19	10	n/a	n/a	n/a	n/a	0	0	0
1911720	STOP	n/a	LTP391	ltpFR2	19	n/a	n/a	n/a	12	n/a	n/a	n/a	n/a
1913620	REC_START	n/a	LTP391	ltpFR2	19	10	n/a	n/a	n/a	n/a	0	0	0
1988620	REC_WORD_VV	wordpools/wasnorm_wordpool_576.txt	LTP391	ltpFR2	19	10	<>	-1	n/a	n/a	0	0	0
2004068	DISTRACTOR	n/a	LTP391	ltpFR2	19	11	n/a	n/a	n/a	n/a	0	0	0
2004068	START	n/a	LTP391	ltpFR2	19	n/a	n/a	n/a	13	n/a	n/a	n/a	n/a
2028067	STOP	n/a	LTP391	ltpFR2	19	n/a	n/a	n/a	13	n/a	n/a	n/a	n/a
2028984	WORD	wordpools/wasnorm_wordpool_576.txt	LTP391	ltpFR2	19	11	TOMBSTONE	1478	n/a	n/a	0	0	0
2031451	WORD	wordpools/wasnorm_wordpool_576.txt	LTP391	ltpFR2	19	11	JELLY	755	n/a	n/a	0	0	0
2034100	WORD	wordpools/wasnorm_wordpool_576.txt	LTP391	ltpFR2	19	11	PISTOL	1075	n/a	n/a	0	0	0
2036884	WORD	wordpools/wasnorm_wordpool_576.txt	LTP391	ltpFR2	19	11	FIREMAN	569	n/a	n/a	0	0	0
2039617	WORD	wordpools/wasnorm_wordpool_576.txt	LTP391	ltpFR2	19	11	MUSTARD	935	n/a	n/a	0	0	0
2042350	WORD	wordpools/wasnorm_wordpool_576.txt	LTP391	ltpFR2	19	11	STONE	1385	n/a	n/a	0	0	0
2045167	WORD	wordpools/wasnorm_wordpool_576.txt	LTP391	ltpFR2	19	11	ROCKET	1202	n/a	n/a	0	0	0
2047800	WORD	wordpools/wasnorm_wordpool_576.txt	LTP391	ltpFR2	19	11	BULLET	194	n/a	n/a	0	0	0
2050534	WORD	wordpools/wasnorm_wordpool_576.txt	LTP391	ltpFR2	19	11	LAPEL	800	n/a	n/a	0	0	0
2053234	WORD	wordpools/wasnorm_wordpool_576.txt	LTP391	ltpFR2	19	11	WORLD	1622	n/a	n/a	0	0	0
2055767	WORD	wordpools/wasnorm_wordpool_576.txt	LTP391	ltpFR2	19	11	FLESH	579	n/a	n/a	0	0	0
2058333	WORD	wordpools/wasnorm_wordpool_576.txt	LTP391	ltpFR2	19	11	MEDAL	885	n/a	n/a	0	0	0
2060783	WORD	wordpools/wasnorm_wordpool_576.txt	LTP391	ltpFR2	19	11	INMATE	738	n/a	n/a	0	0	0
2063333	WORD	wordpools/wasnorm_wordpool_576.txt	LTP391	ltpFR2	19	11	MISSILE	900	n/a	n/a	0	0	0
2066000	WORD	wordpools/wasnorm_wordpool_576.txt	LTP391	ltpFR2	19	11	DRAWING	494	n/a	n/a	0	0	0
2068600	WORD	wordpools/wasnorm_wordpool_576.txt	LTP391	ltpFR2	19	11	FRAME	600	n/a	n/a	0	0	0
2071083	WORD	wordpools/wasnorm_wordpool_576.txt	LTP391	ltpFR2	19	11	CRAYON	401	n/a	n/a	0	0	0
2073633	WORD	wordpools/wasnorm_wordpool_576.txt	LTP391	ltpFR2	19	11	SUPPER	1411	n/a	n/a	0	0	0
2076083	WORD	wordpools/wasnorm_wordpool_576.txt	LTP391	ltpFR2	19	11	CLAMP	316	n/a	n/a	0	0	0
2078883	WORD	wordpools/wasnorm_wordpool_576.txt	LTP391	ltpFR2	19	11	BREAST	171	n/a	n/a	0	0	0
2081666	WORD	wordpools/wasnorm_wordpool_576.txt	LTP391	ltpFR2	19	11	ROOSTER	1209	n/a	n/a	0	0	0
2084450	WORD	wordpools/wasnorm_wordpool_576.txt	LTP391	ltpFR2	19	11	WAITER	1580	n/a	n/a	0	0	0
2087033	WORD	wordpools/wasnorm_wordpool_576.txt	LTP391	ltpFR2	19	11	SANDWICH	1232	n/a	n/a	0	0	0
2089683	WORD	wordpools/wasnorm_wordpool_576.txt	LTP391	ltpFR2	19	11	DONOR	485	n/a	n/a	0	0	0
2091300	START	n/a	LTP391	ltpFR2	19	n/a	n/a	n/a	14	n/a	n/a	n/a	n/a
2092382	DISTRACTOR	n/a	LTP391	ltpFR2	19	11	n/a	n/a	n/a	n/a	0	0	0
2115300	STOP	n/a	LTP391	ltpFR2	19	n/a	n/a	n/a	14	n/a	n/a	n/a	n/a
2117150	REC_START	n/a	LTP391	ltpFR2	19	11	n/a	n/a	n/a	n/a	0	0	0
2192150	REC_WORD_VV	wordpools/wasnorm_wordpool_576.txt	LTP391	ltpFR2	19	11	<>	-1	n/a	n/a	0	0	0
2207598	DISTRACTOR	n/a	LTP391	ltpFR2	19	12	n/a	n/a	n/a	n/a	0	0	0
2207598	START	n/a	LTP391	ltpFR2	19	n/a	n/a	n/a	15	n/a	n/a	n/a	n/a
2231597	STOP	n/a	LTP391	ltpFR2	19	n/a	n/a	n/a	15	n/a	n/a	n/a	n/a
2232597	WORD	wordpools/wasnorm_wordpool_576.txt	LTP391	ltpFR2	19	12	ZIPPER	1636	n/a	n/a	0	0	0
2235081	WORD	wordpools/wasnorm_wordpool_576.txt	LTP391	ltpFR2	19	12	CUSTARD	429	n/a	n/a	0	0	0
2237864	WORD	wordpools/wasnorm_wordpool_576.txt	LTP391	ltpFR2	19	12	BUCKET	184	n/a	n/a	0	0	0
2240480	WORD	wordpools/wasnorm_wordpool_576.txt	LTP391	ltpFR2	19	12	VALLEY	1545	n/a	n/a	0	0	0
2242964	WORD	wordpools/wasnorm_wordpool_576.txt	LTP391	ltpFR2	19	12	GRAVE	658	n/a	n/a	0	0	0
2245780	WORD	wordpools/wasnorm_wordpool_576.txt	LTP391	ltpFR2	19	12	BACON	67	n/a	n/a	0	0	0
2248497	WORD	wordpools/wasnorm_wordpool_576.txt	LTP391	ltpFR2	19	12	WAITRESS	1581	n/a	n/a	0	0	0
2250997	WORD	wordpools/wasnorm_wordpool_576.txt	LTP391	ltpFR2	19	12	SERVER	1272	n/a	n/a	0	0	0
2253630	WORD	wordpools/wasnorm_wordpool_576.txt	LTP391	ltpFR2	19	12	CASHIER	254	n/a	n/a	0	0	0
2256364	WORD	wordpools/wasnorm_wordpool_576.txt	LTP391	ltpFR2	19	12	PIMPLE	1071	n/a	n/a	0	0	0
2259013	WORD	wordpools/wasnorm_wordpool_576.txt	LTP391	ltpFR2	19	12	BANJO	82	n/a	n/a	0	0	0
2261480	WORD	wordpools/wasnorm_wordpool_576.txt	LTP391	ltpFR2	19	12	TUTU	1524	n/a	n/a	0	0	0
2263963	WORD	wordpools/wasnorm_wordpool_576.txt	LTP391	ltpFR2	19	12	FLASK	576	n/a	n/a	0	0	0
2266430	WORD	wordpools/wasnorm_wordpool_576.txt	LTP391	ltpFR2	19	12	RATTLE	1170	n/a	n/a	0	0	0
2269113	WORD	wordpools/wasnorm_wordpool_576.txt	LTP391	ltpFR2	19	12	BABY	64	n/a	n/a	0	0	0
2271830	WORD	wordpools/wasnorm_wordpool_576.txt	LTP391	ltpFR2	19	12	PECAN	1036	n/a	n/a	0	0	0
2274297	WORD	wordpools/wasnorm_wordpool_576.txt	LTP391	ltpFR2	19	12	COCKTAIL	338	n/a	n/a	0	0	0
2276830	WORD	wordpools/wasnorm_wordpool_576.txt	LTP391	ltpFR2	19	12	OMELET	976	n/a	n/a	0	0	0
2279546	WORD	wordpools/wasnorm_wordpool_576.txt	LTP391	ltpFR2	19	12	TURKEY	1520	n/a	n/a	0	0	0
2282180	WORD	wordpools/wasnorm_wordpool_576.txt	LTP391	ltpFR2	19	12	COUNTRY	388	n/a	n/a	0	0	0
2284830	WORD	wordpools/wasnorm_wordpool_576.txt	LTP391	ltpFR2	19	12	PENGUIN	1044	n/a	n/a	0	0	0
2287530	WORD	wordpools/wasnorm_wordpool_576.txt	LTP391	ltpFR2	19	12	PEDAL	1037	n/a	n/a	0	0	0
2290030	WORD	wordpools/wasnorm_wordpool_576.txt	LTP391	ltpFR2	19	12	DRINK	498	n/a	n/a	0	0	0
2292613	WORD	wordpools/wasnorm_wordpool_576.txt	LTP391	ltpFR2	19	12	POCKET	1093	n/a	n/a	0	0	0
2294231	START	n/a	LTP391	ltpFR2	19	n/a	n/a	n/a	16	n/a	n/a	n/a	n/a
2295394	DISTRACTOR	n/a	LTP391	ltpFR2	19	12	n/a	n/a	n/a	n/a	0	0	0
2318231	STOP	n/a	LTP391	ltpFR2	19	n/a	n/a	n/a	16	n/a	n/a	n/a	n/a
2320113	REC_START	n/a	LTP391	ltpFR2	19	12	n/a	n/a	n/a	n/a	0	0	0
2395108	REC_WORD_VV	wordpools/wasnorm_wordpool_576.txt	LTP391	ltpFR2	19	12	<>	-1	n/a	n/a	0	0	0
2410561	DISTRACTOR	n/a	LTP391	ltpFR2	19	13	n/a	n/a	n/a	n/a	0	0	0
2410561	START	n/a	LTP391	ltpFR2	19	n/a	n/a	n/a	17	n/a	n/a	n/a	n/a
2434561	STOP	n/a	LTP391	ltpFR2	19	n/a	n/a	n/a	17	n/a	n/a	n/a	n/a
2435427	WORD	wordpools/wasnorm_wordpool_576.txt	LTP391	ltpFR2	19	13	PEANUT	1032	n/a	n/a	0	0	0
2438111	WORD	wordpools/wasnorm_wordpool_576.txt	LTP391	ltpFR2	19	13	DOUGHNUT	490	n/a	n/a	0	0	0
2440761	WORD	wordpools/wasnorm_wordpool_576.txt	LTP391	ltpFR2	19	13	DRESS	495	n/a	n/a	0	0	0
2443244	WORD	wordpools/wasnorm_wordpool_576.txt	LTP391	ltpFR2	19	13	TOURIST	1488	n/a	n/a	0	0	0
2446060	WORD	wordpools/wasnorm_wordpool_576.txt	LTP391	ltpFR2	19	13	COUSIN	392	n/a	n/a	0	0	0
2448594	WORD	wordpools/wasnorm_wordpool_576.txt	LTP391	ltpFR2	19	13	CLAM	315	n/a	n/a	0	0	0
2451377	WORD	wordpools/wasnorm_wordpool_576.txt	LTP391	ltpFR2	19	13	CASHEW	253	n/a	n/a	0	0	0
2453910	WORD	wordpools/wasnorm_wordpool_576.txt	LTP391	ltpFR2	19	13	LAGOON	795	n/a	n/a	0	0	0
2456494	WORD	wordpools/wasnorm_wordpool_576.txt	LTP391	ltpFR2	19	13	CEILING	265	n/a	n/a	0	0	0
2459160	WORD	wordpools/wasnorm_wordpool_576.txt	LTP391	ltpFR2	19	13	MESSAGE	888	n/a	n/a	0	0	0
2461677	WORD	wordpools/wasnorm_wordpool_576.txt	LTP391	ltpFR2	19	13	CONTRACT	368	n/a	n/a	0	0	0
2464211	WORD	wordpools/wasnorm_wordpool_576.txt	LTP391	ltpFR2	19	13	SHELF	1280	n/a	n/a	0	0	0
2466877	WORD	wordpools/wasnorm_wordpool_576.txt	LTP391	ltpFR2	19	13	JURY	766	n/a	n/a	0	0	0
2469593	WORD	wordpools/wasnorm_wordpool_576.txt	LTP391	ltpFR2	19	13	LIGHTNING	820	n/a	n/a	0	0	0
2472143	WORD	wordpools/wasnorm_wordpool_576.txt	LTP391	ltpFR2	19	13	CHAMPAGNE	278	n/a	n/a	0	0	0
2474777	WORD	wordpools/wasnorm_wordpool_576.txt	LTP391	ltpFR2	19	13	LUNCH	849	n/a	n/a	0	0	0
2477310	WORD	wordpools/wasnorm_wordpool_576.txt	LTP391	ltpFR2	19	13	KITCHEN	778	n/a	n/a	0	0	0
2479793	WORD	wordpools/wasnorm_wordpool_576.txt	LTP391	ltpFR2	19	13	TAXI	1438	n/a	n/a	0	0	0
2482510	WORD	wordpools/wasnorm_wordpool_576.txt	LTP391	ltpFR2	19	13	TURTLE	1522	n/a	n/a	0	0	0
2485093	WORD	wordpools/wasnorm_wordpool_576.txt	LTP391	ltpFR2	19	13	BARREL	91	n/a	n/a	0	0	0
2487926	WORD	wordpools/wasnorm_wordpool_576.txt	LTP391	ltpFR2	19	13	CORAL	378	n/a	n/a	0	0	0
2490476	WORD	wordpools/wasnorm_wordpool_576.txt	LTP391	ltpFR2	19	13	PREACHER	1119	n/a	n/a	0	0	0
2492926	WORD	wordpools/wasnorm_wordpool_576.txt	LTP391	ltpFR2	19	13	FRIAR	605	n/a	n/a	0	0	0
2495376	WORD	wordpools/wasnorm_wordpool_576.txt	LTP391	ltpFR2	19	13	SEAGULL	1261	n/a	n/a	0	0	0
2496993	START	n/a	LTP391	ltpFR2	19	n/a	n/a	n/a	18	n/a	n/a	n/a	n/a
2497869	DISTRACTOR	n/a	LTP391	ltpFR2	19	13	n/a	n/a	n/a	n/a	0	0	0
2520993	STOP	n/a	LTP391	ltpFR2	19	n/a	n/a	n/a	18	n/a	n/a	n/a	n/a
2522760	REC_START	n/a	LTP391	ltpFR2	19	13	n/a	n/a	n/a	n/a	0	0	0
2597760	REC_WORD_VV	wordpools/wasnorm_wordpool_576.txt	LTP391	ltpFR2	19	13	<>	-1	n/a	n/a	0	0	0
2613208	DISTRACTOR	n/a	LTP391	ltpFR2	19	14	n/a	n/a	n/a	n/a	0	0	0
2613208	START	n/a	LTP391	ltpFR2	19	n/a	n/a	n/a	19	n/a	n/a	n/a	n/a
2637207	STOP	n/a	LTP391	ltpFR2	19	n/a	n/a	n/a	19	n/a	n/a	n/a	n/a
2638391	WORD	wordpools/wasnorm_wordpool_576.txt	LTP391	ltpFR2	19	14	PATIENT	1024	n/a	n/a	0	0	0
2641091	WORD	wordpools/wasnorm_wordpool_576.txt	LTP391	ltpFR2	19	14	PUPPY	1144	n/a	n/a	0	0	0
2643757	WORD	wordpools/wasnorm_wordpool_576.txt	LTP391	ltpFR2	19	14	FOX	598	n/a	n/a	0	0	0
2646190	WORD	wordpools/wasnorm_wordpool_576.txt	LTP391	ltpFR2	19	14	TUNNEL	1519	n/a	n/a	0	0	0
2648957	WORD	wordpools/wasnorm_wordpool_576.txt	LTP391	ltpFR2	19	14	WIFE	1609	n/a	n/a	0	0	0
2651390	WORD	wordpools/wasnorm_wordpool_576.txt	LTP391	ltpFR2	19	14	HELMET	702	n/a	n/a	0	0	0
2653924	WORD	wordpools/wasnorm_wordpool_576.txt	LTP391	ltpFR2	19	14	CREVICE	405	n/a	n/a	0	0	0
2656407	WORD	wordpools/wasnorm_wordpool_576.txt	LTP391	ltpFR2	19	14	RIFLE	1192	n/a	n/a	0	0	0
2659140	WORD	wordpools/wasnorm_wordpool_576.txt	LTP391	ltpFR2	19	14	TREAT	1501	n/a	n/a	0	0	0
2661790	WORD	wordpools/wasnorm_wordpool_576.txt	LTP391	ltpFR2	19	14	ITEM	746	n/a	n/a	0	0	0
2664407	WORD	wordpools/wasnorm_wordpool_576.txt	LTP391	ltpFR2	19	14	DENTIST	447	n/a	n/a	0	0	0
2667207	WORD	wordpools/wasnorm_wordpool_576.txt	LTP391	ltpFR2	19	14	BIKE	125	n/a	n/a	0	0	0
2669990	WORD	wordpools/wasnorm_wordpool_576.txt	LTP391	ltpFR2	19	14	AGENT	10	n/a	n/a	0	0	0
2672790	WORD	wordpools/wasnorm_wordpool_576.txt	LTP391	ltpFR2	19	14	YARN	1631	n/a	n/a	0	0	0
2675290	WORD	wordpools/wasnorm_wordpool_576.txt	LTP391	ltpFR2	19	14	SKIRT	1319	n/a	n/a	0	0	0
2677973	WORD	wordpools/wasnorm_wordpool_576.txt	LTP391	ltpFR2	19	14	STAPLE	1371	n/a	n/a	0	0	0
2680457	WORD	wordpools/wasnorm_wordpool_576.txt	LTP391	ltpFR2	19	14	DRIVER	499	n/a	n/a	0	0	0
2683241	WORD	wordpools/wasnorm_wordpool_576.txt	LTP391	ltpFR2	19	14	MARKER	870	n/a	n/a	0	0	0
2686007	WORD	wordpools/wasnorm_wordpool_576.txt	LTP391	ltpFR2	19	14	BUTCHER	203	n/a	n/a	0	0	0
2688606	WORD	wordpools/wasnorm_wordpool_576.txt	LTP391	ltpFR2	19	14	PICNIC	1060	n/a	n/a	0	0	0
2691323	WORD	wordpools/wasnorm_wordpool_576.txt	LTP391	ltpFR2	19	14	STAR	1373	n/a	n/a	0	0	0
2693940	WORD	wordpools/wasnorm_wordpool_576.txt	LTP391	ltpFR2	19	14	SADDLE	1221	n/a	n/a	0	0	0
2696373	WORD	wordpools/wasnorm_wordpool_576.txt	LTP391	ltpFR2	19	14	BRANDY	169	n/a	n/a	0	0	0
2699190	WORD	wordpools/wasnorm_wordpool_576.txt	LTP391	ltpFR2	19	14	SCOTCH	1251	n/a	n/a	0	0	0
2700806	START	n/a	LTP391	ltpFR2	19	n/a	n/a	n/a	20	n/a	n/a	n/a	n/a
2701902	DISTRACTOR	n/a	LTP391	ltpFR2	19	14	n/a	n/a	n/a	n/a	0	0	0
2724806	STOP	n/a	LTP391	ltpFR2	19	n/a	n/a	n/a	20	n/a	n/a	n/a	n/a
2726740	REC_START	n/a	LTP391	ltpFR2	19	14	n/a	n/a	n/a	n/a	0	0	0
2801740	REC_WORD_VV	wordpools/wasnorm_wordpool_576.txt	LTP391	ltpFR2	19	14	<>	-1	n/a	n/a	0	0	0
2817188	DISTRACTOR	n/a	LTP391	ltpFR2	19	15	n/a	n/a	n/a	n/a	0	0	0
2817188	START	n/a	LTP391	ltpFR2	19	n/a	n/a	n/a	21	n/a	n/a	n/a	n/a
2841187	STOP	n/a	LTP391	ltpFR2	19	n/a	n/a	n/a	21	n/a	n/a	n/a	n/a
2842371	WORD	wordpools/wasnorm_wordpool_576.txt	LTP391	ltpFR2	19	15	GRIZZLY	662	n/a	n/a	0	0	0
2844987	WORD	wordpools/wasnorm_wordpool_576.txt	LTP391	ltpFR2	19	15	SPOOL	1356	n/a	n/a	0	0	0
2847621	WORD	wordpools/wasnorm_wordpool_576.txt	LTP391	ltpFR2	19	15	PASTRY	1022	n/a	n/a	0	0	0
2850204	WORD	wordpools/wasnorm_wordpool_576.txt	LTP391	ltpFR2	19	15	PLUTO	1092	n/a	n/a	0	0	0
2852687	WORD	wordpools/wasnorm_wordpool_576.txt	LTP391	ltpFR2	19	15	REBEL	1172	n/a	n/a	0	0	0
2855454	WORD	wordpools/wasnorm_wordpool_576.txt	LTP391	ltpFR2	19	15	LAVA	804	n/a	n/a	0	0	0
2858154	WORD	wordpools/wasnorm_wordpool_576.txt	LTP391	ltpFR2	19	15	CRATER	400	n/a	n/a	0	0	0
2860754	WORD	wordpools/wasnorm_wordpool_576.txt	LTP391	ltpFR2	19	15	LONDON	843	n/a	n/a	0	0	0
2863470	WORD	wordpools/wasnorm_wordpool_576.txt	LTP391	ltpFR2	19	15	CLOUD	328	n/a	n/a	0	0	0
2866087	WORD	wordpools/wasnorm_wordpool_576.txt	LTP391	ltpFR2	19	15	RELISH	1183	n/a	n/a	0	0	0
2868720	WORD	wordpools/wasnorm_wordpool_576.txt	LTP391	ltpFR2	19	15	SPHINX	1349	n/a	n/a	0	0	0
2871304	WORD	wordpools/wasnorm_wordpool_576.txt	LTP391	ltpFR2	19	15	MOP	916	n/a	n/a	0	0	0
2874070	WORD	wordpools/wasnorm_wordpool_576.txt	LTP391	ltpFR2	19	15	ROBOT	1200	n/a	n/a	0	0	0
2876703	WORD	wordpools/wasnorm_wordpool_576.txt	LTP391	ltpFR2	19	15	MUMMY	932	n/a	n/a	0	0	0
2879453	WORD	wordpools/wasnorm_wordpool_576.txt	LTP391	ltpFR2	19	15	PIGMENT	1066	n/a	n/a	0	0	0
2882137	WORD	wordpools/wasnorm_wordpool_576.txt	LTP391	ltpFR2	19	15	WIDOW	1608	n/a	n/a	0	0	0
2884820	WORD	wordpools/wasnorm_wordpool_576.txt	LTP391	ltpFR2	19	15	PUDDING	1139	n/a	n/a	0	0	0
2887503	WORD	wordpools/wasnorm_wordpool_576.txt	LTP391	ltpFR2	19	15	SNACK	1331	n/a	n/a	0	0	0
2890238	WORD	wordpools/wasnorm_wordpool_576.txt	LTP391	ltpFR2	19	15	SPONGE	1355	n/a	n/a	0	0	0
2893036	WORD	wordpools/wasnorm_wordpool_576.txt	LTP391	ltpFR2	19	15	BANQUET	86	n/a	n/a	0	0	0
2895636	WORD	wordpools/wasnorm_wordpool_576.txt	LTP391	ltpFR2	19	15	BLUEPRINT	142	n/a	n/a	0	0	0
2898286	WORD	wordpools/wasnorm_wordpool_576.txt	LTP391	ltpFR2	19	15	PEACH	1031	n/a	n/a	0	0	0
2901103	WORD	wordpools/wasnorm_wordpool_576.txt	LTP391	ltpFR2	19	15	CITRUS	313	n/a	n/a	0	0	0
2903670	WORD	wordpools/wasnorm_wordpool_576.txt	LTP391	ltpFR2	19	15	PERMIT	1051	n/a	n/a	0	0	0
2905286	START	n/a	LTP391	ltpFR2	19	n/a	n/a	n/a	22	n/a	n/a	n/a	n/a
2906361	DISTRACTOR	n/a	LTP391	ltpFR2	19	15	n/a	n/a	n/a	n/a	0	0	0
2929286	STOP	n/a	LTP391	ltpFR2	19	n/a	n/a	n/a	22	n/a	n/a	n/a	n/a
2931221	REC_START	n/a	LTP391	ltpFR2	19	15	n/a	n/a	n/a	n/a	0	0	0
3006221	REC_WORD_VV	wordpools/wasnorm_wordpool_576.txt	LTP391	ltpFR2	19	15	<>	-1	n/a	n/a	0	0	0
3021668	DISTRACTOR	n/a	LTP391	ltpFR2	19	16	n/a	n/a	n/a	n/a	0	0	0
3021668	START	n/a	LTP391	ltpFR2	19	n/a	n/a	n/a	23	n/a	n/a	n/a	n/a
3045667	STOP	n/a	LTP391	ltpFR2	19	n/a	n/a	n/a	23	n/a	n/a	n/a	n/a
3046634	WORD	wordpools/wasnorm_wordpool_576.txt	LTP391	ltpFR2	19	16	SHRUB	1299	n/a	n/a	0	0	0
3049384	WORD	wordpools/wasnorm_wordpool_576.txt	LTP391	ltpFR2	19	16	TWIG	1527	n/a	n/a	0	0	0
3051867	WORD	wordpools/wasnorm_wordpool_576.txt	LTP391	ltpFR2	19	16	HAMPER	682	n/a	n/a	0	0	0
3054517	WORD	wordpools/wasnorm_wordpool_576.txt	LTP391	ltpFR2	19	16	BEAVER	109	n/a	n/a	0	0	0
3057201	WORD	wordpools/wasnorm_wordpool_576.txt	LTP391	ltpFR2	19	16	JELLO	754	n/a	n/a	0	0	0
3060017	WORD	wordpools/wasnorm_wordpool_576.txt	LTP391	ltpFR2	19	16	COD	340	n/a	n/a	0	0	0
3062750	WORD	wordpools/wasnorm_wordpool_576.txt	LTP391	ltpFR2	19	16	COOKBOOK	373	n/a	n/a	0	0	0
3065517	WORD	wordpools/wasnorm_wordpool_576.txt	LTP391	ltpFR2	19	16	KEEPER	769	n/a	n/a	0	0	0
3068200	WORD	wordpools/wasnorm_wordpool_576.txt	LTP391	ltpFR2	19	16	POET	1095	n/a	n/a	0	0	0
3070884	WORD	wordpools/wasnorm_wordpool_576.txt	LTP391	ltpFR2	19	16	POWDER	1117	n/a	n/a	0	0	0
3073683	WORD	wordpools/wasnorm_wordpool_576.txt	LTP391	ltpFR2	19	16	CRIB	407	n/a	n/a	0	0	0
3076133	WORD	wordpools/wasnorm_wordpool_576.txt	LTP391	ltpFR2	19	16	LODGE	839	n/a	n/a	0	0	0
3078733	WORD	wordpools/wasnorm_wordpool_576.txt	LTP391	ltpFR2	19	16	FREEZER	604	n/a	n/a	0	0	0
3081450	WORD	wordpools/wasnorm_wordpool_576.txt	LTP391	ltpFR2	19	16	ELBOW	520	n/a	n/a	0	0	0
3084000	WORD	wordpools/wasnorm_wordpool_576.txt	LTP391	ltpFR2	19	16	HORNET	718	n/a	n/a	0	0	0
3086500	WORD	wordpools/wasnorm_wordpool_576.txt	LTP391	ltpFR2	19	16	SCRIBBLE	1256	n/a	n/a	0	0	0
3089267	WORD	wordpools/wasnorm_wordpool_576.txt	LTP391	ltpFR2	19	16	QUEEN	1149	n/a	n/a	0	0	0
3092067	WORD	wordpools/wasnorm_wordpool_576.txt	LTP391	ltpFR2	19	16	ARM	38	n/a	n/a	0	0	0
3094800	WORD	wordpools/wasnorm_wordpool_576.txt	LTP391	ltpFR2	19	16	PORTRAIT	1111	n/a	n/a	0	0	0
3097600	WORD	wordpools/wasnorm_wordpool_576.txt	LTP391	ltpFR2	19	16	GUITAR	670	n/a	n/a	0	0	0
3100116	WORD	wordpools/wasnorm_wordpool_576.txt	LTP391	ltpFR2	19	16	WHISTLE	1606	n/a	n/a	0	0	0
3102616	WORD	wordpools/wasnorm_wordpool_576.txt	LTP391	ltpFR2	19	16	TROMBONE	1508	n/a	n/a	0	0	0
3105217	WORD	wordpools/wasnorm_wordpool_576.txt	LTP391	ltpFR2	19	16	PARSLEY	1016	n/a	n/a	0	0	0
3107950	WORD	wordpools/wasnorm_wordpool_576.txt	LTP391	ltpFR2	19	16	BUREAU	199	n/a	n/a	0	0	0
3109567	START	n/a	LTP391	ltpFR2	19	n/a	n/a	n/a	24	n/a	n/a	n/a	n/a
3110448	DISTRACTOR	n/a	LTP391	ltpFR2	19	16	n/a	n/a	n/a	n/a	0	0	0
3133567	STOP	n/a	LTP391	ltpFR2	19	n/a	n/a	n/a	24	n/a	n/a	n/a	n/a
3135333	REC_START	n/a	LTP391	ltpFR2	19	16	n/a	n/a	n/a	n/a	0	0	0
3209333	REC_WORD_VV	wordpools/wasnorm_wordpool_576.txt	LTP391	ltpFR2	19	16	<>	-1	n/a	n/a	0	0	0
3211881	REST_REWET	n/a	LTP391	ltpFR2	19	16	n/a	n/a	n/a	n/a	0	0	0
3478060	WORD	wordpools/wasnorm_wordpool_576.txt	LTP391	ltpFR2	19	17	CANAL	226	n/a	n/a	0	0	0
3480710	WORD	wordpools/wasnorm_wordpool_576.txt	LTP391	ltpFR2	19	17	STOMACH	1384	n/a	n/a	0	0	0
3483344	WORD	wordpools/wasnorm_wordpool_576.txt	LTP391	ltpFR2	19	17	SAUSAGE	1238	n/a	n/a	0	0	0
3485794	WORD	wordpools/wasnorm_wordpool_576.txt	LTP391	ltpFR2	19	17	WOMAN	1620	n/a	n/a	0	0	0
3488360	WORD	wordpools/wasnorm_wordpool_576.txt	LTP391	ltpFR2	19	17	LAKE	796	n/a	n/a	0	0	0
3490943	WORD	wordpools/wasnorm_wordpool_576.txt	LTP391	ltpFR2	19	17	HOOK	715	n/a	n/a	0	0	0
3493660	WORD	wordpools/wasnorm_wordpool_576.txt	LTP391	ltpFR2	19	17	SALMON	1227	n/a	n/a	0	0	0
3496327	WORD	wordpools/wasnorm_wordpool_576.txt	LTP391	ltpFR2	19	17	HOUND	724	n/a	n/a	0	0	0
3498877	WORD	wordpools/wasnorm_wordpool_576.txt	LTP391	ltpFR2	19	17	GIRL	637	n/a	n/a	0	0	0
3501527	WORD	wordpools/wasnorm_wordpool_576.txt	LTP391	ltpFR2	19	17	MOTEL	919	n/a	n/a	0	0	0
3504027	WORD	wordpools/wasnorm_wordpool_576.txt	LTP391	ltpFR2	19	17	TABLE	1426	n/a	n/a	0	0	0
3506460	WORD	wordpools/wasnorm_wordpool_576.txt	LTP391	ltpFR2	19	17	ZEBRA	1635	n/a	n/a	0	0	0
3509060	WORD	wordpools/wasnorm_wordpool_576.txt	LTP391	ltpFR2	19	17	PEBBLE	1035	n/a	n/a	0	0	0
3511760	WORD	wordpools/wasnorm_wordpool_576.txt	LTP391	ltpFR2	19	17	SILK	1307	n/a	n/a	0	0	0
3514343	WORD	wordpools/wasnorm_wordpool_576.txt	LTP391	ltpFR2	19	17	SCARF	1246	n/a	n/a	0	0	0
3517026	WORD	wordpools/wasnorm_wordpool_576.txt	LTP391	ltpFR2	19	17	LIVER	833	n/a	n/a	0	0	0
3519710	WORD	wordpools/wasnorm_wordpool_576.txt	LTP391	ltpFR2	19	17	BELLY	119	n/a	n/a	0	0	0
3522526	WORD	wordpools/wasnorm_wordpool_576.txt	LTP391	ltpFR2	19	17	CROWN	415	n/a	n/a	0	0	0
3525227	WORD	wordpools/wasnorm_wordpool_576.txt	LTP391	ltpFR2	19	17	PARENT	1013	n/a	n/a	0	0	0
3527660	WORD	wordpools/wasnorm_wordpool_576.txt	LTP391	ltpFR2	19	17	VIRUS	1572	n/a	n/a	0	0	0
3530193	WORD	wordpools/wasnorm_wordpool_576.txt	LTP391	ltpFR2	19	17	ICEBERG	731	n/a	n/a	0	0	0
3532976	WORD	wordpools/wasnorm_wordpool_576.txt	LTP391	ltpFR2	19	17	CATCHER	258	n/a	n/a	0	0	0
3535493	WORD	wordpools/wasnorm_wordpool_576.txt	LTP391	ltpFR2	19	17	LEADER	807	n/a	n/a	0	0	0
3538143	WORD	wordpools/wasnorm_wordpool_576.txt	LTP391	ltpFR2	19	17	BRIEFCASE	175	n/a	n/a	0	0	0
3539760	START	n/a	LTP391	ltpFR2	19	n/a	n/a	n/a	25	n/a	n/a	n/a	n/a
3540786	DISTRACTOR	n/a	LTP391	ltpFR2	19	17	n/a	n/a	n/a	n/a	0	0	0
3540793	PROB	n/a	LTP391	ltpFR2	19	n/a	n/a	n/a	25	12	2	1	9
3542026	PROB	n/a	LTP391	ltpFR2	19	n/a	n/a	n/a	25	16	5	7	4
3546326	PROB	n/a	LTP391	ltpFR2	19	n/a	n/a	n/a	25	14	6	7	1
3547876	PROB	n/a	LTP391	ltpFR2	19	n/a	n/a	n/a	25	14	2	7	5
3550793	PROB	n/a	LTP391	ltpFR2	19	n/a	n/a	n/a	25	17	6	9	2
3552459	PROB	n/a	LTP391	ltpFR2	19	n/a	n/a	n/a	25	9	1	1	7
3553492	PROB	n/a	LTP391	ltpFR2	19	n/a	n/a	n/a	25	15	5	5	5
3554626	PROB	n/a	LTP391	ltpFR2	19	n/a	n/a	n/a	25	10	4	1	5
3555709	PROB	n/a	LTP391	ltpFR2	19	n/a	n/a	n/a	25	18	9	3	6
3556792	PROB	n/a	LTP391	ltpFR2	19	n/a	n/a	n/a	25	9	1	1	7
3557792	PROB	n/a	LTP391	ltpFR2	19	n/a	n/a	n/a	25	21	7	7	7
3559126	PROB	n/a	LTP391	ltpFR2	19	n/a	n/a	n/a	25	17	8	7	2
3560376	PROB	n/a	LTP391	ltpFR2	19	n/a	n/a	n/a	25	12	4	6	2
3561409	PROB	n/a	LTP391	ltpFR2	19	n/a	n/a	n/a	25	20	6	8	6
3562949	STOP	n/a	LTP391	ltpFR2	19	n/a	n/a	n/a	25	n/a	n/a	n/a	n/a
3565659	REC_START	n/a	LTP391	ltpFR2	19	17	n/a	n/a	n/a	n/a	0	0	0
3566210	REC_WORD	wordpools/wasnorm_wordpool_576.txt	LTP391	ltpFR2	19	17	CANAL	226	n/a	n/a	0	0	0
3566720	REC_WORD	wordpools/wasnorm_wordpool_576.txt	LTP391	ltpFR2	19	17	STOMACH	1384	n/a	n/a	0	0	0
3567221	REC_WORD	wordpools/wasnorm_wordpool_576.txt	LTP391	ltpFR2	19	17	SAUSAGE	1238	n/a	n/a	0	0	0
3567880	REC_WORD	wordpools/wasnorm_wordpool_576.txt	LTP391	ltpFR2	19	17	BELLY	119	n/a	n/a	0	0	0
3569392	REC_WORD	wordpools/wasnorm_wordpool_576.txt	LTP391	ltpFR2	19	17	LIVER	833	n/a	n/a	0	0	0
3570002	REC_WORD	wordpools/wasnorm_wordpool_576.txt	LTP391	ltpFR2	19	17	PARENT	1013	n/a	n/a	0	0	0
3570970	REC_WORD	wordpools/wasnorm_wordpool_576.txt	LTP391	ltpFR2	19	17	GIRL	637	n/a	n/a	0	0	0
3571513	REC_WORD	wordpools/wasnorm_wordpool_576.txt	LTP391	ltpFR2	19	17	WOMAN	1620	n/a	n/a	0	0	0
3656107	DISTRACTOR	n/a	LTP391	ltpFR2	19	18	n/a	n/a	n/a	n/a	0	0	0
3656108	START	n/a	LTP391	ltpFR2	19	n/a	n/a	n/a	26	n/a	n/a	n/a	n/a
3656124	PROB	n/a	LTP391	ltpFR2	19	n/a	n/a	n/a	26	24	9	8	7
3658607	PROB	n/a	LTP391	ltpFR2	19	n/a	n/a	n/a	26	12	4	1	7
3659624	PROB	n/a	LTP391	ltpFR2	19	n/a	n/a	n/a	26	22	6	9	8
3660957	PROB	n/a	LTP391	ltpFR2	19	n/a	n/a	n/a	26	14	2	8	4
3664024	PROB	n/a	LTP391	ltpFR2	19	n/a	n/a	n/a	26	10	3	2	5
3665141	PROB	n/a	LTP391	ltpFR2	19	n/a	n/a	n/a	26	15	7	3	5
3666541	PROB	n/a	LTP391	ltpFR2	19	n/a	n/a	n/a	26	15	9	3	3
3667991	PROB	n/a	LTP391	ltpFR2	19	n/a	n/a	n/a	26	16	7	8	1
3669057	PROB	n/a	LTP391	ltpFR2	19	n/a	n/a	n/a	26	19	5	8	6
3672590	PROB	n/a	LTP391	ltpFR2	19	n/a	n/a	n/a	26	17	7	2	8
3674157	PROB	n/a	LTP391	ltpFR2	19	n/a	n/a	n/a	26	11	8	2	1
3675374	PROB	n/a	LTP391	ltpFR2	19	n/a	n/a	n/a	26	16	7	7	2
3677257	PROB	n/a	LTP391	ltpFR2	19	n/a	n/a	n/a	26	7	3	2	2
3678457	PROB	n/a	LTP391	ltpFR2	19	n/a	n/a	n/a	26	13	5	7	1
3680032	STOP	n/a	LTP391	ltpFR2	19	n/a	n/a	n/a	26	n/a	n/a	n/a	n/a
3681124	WORD	wordpools/wasnorm_wordpool_576.txt	LTP391	ltpFR2	19	18	COUCH	386	n/a	n/a	0	0	0
3683840	WORD	wordpools/wasnorm_wordpool_576.txt	LTP391	ltpFR2	19	18	RUG	1215	n/a	n/a	0	0	0
3686557	WORD	wordpools/wasnorm_wordpool_576.txt	LTP391	ltpFR2	19	18	ROBIN	1199	n/a	n/a	0	0	0
3689007	WORD	wordpools/wasnorm_wordpool_576.txt	LTP391	ltpFR2	19	18	TRENCH	1503	n/a	n/a	0	0	0
3691724	WORD	wordpools/wasnorm_wordpool_576.txt	LTP391	ltpFR2	19	18	WASP	1593	n/a	n/a	0	0	0
3694224	WORD	wordpools/wasnorm_wordpool_576.txt	LTP391	ltpFR2	19	18	FUNGUS	614	n/a	n/a	0	0	0
3696790	WORD	wordpools/wasnorm_wordpool_576.txt	LTP391	ltpFR2	19	18	CLIMBER	323	n/a	n/a	0	0	0
3699224	WORD	wordpools/wasnorm_wordpool_576.txt	LTP391	ltpFR2	19	18	SUMMIT	1405	n/a	n/a	0	0	0
3701840	WORD	wordpools/wasnorm_wordpool_576.txt	LTP391	ltpFR2	19	18	VAGRANT	1544	n/a	n/a	0	0	0
3704473	WORD	wordpools/wasnorm_wordpool_576.txt	LTP391	ltpFR2	19	18	OUTLAW	989	n/a	n/a	0	0	0
3707190	WORD	wordpools/wasnorm_wordpool_576.txt	LTP391	ltpFR2	19	18	HERO	706	n/a	n/a	0	0	0
3709873	WORD	wordpools/wasnorm_wordpool_576.txt	LTP391	ltpFR2	19	18	AIRPORT	13	n/a	n/a	0	0	0
3712323	WORD	wordpools/wasnorm_wordpool_576.txt	LTP391	ltpFR2	19	18	SHARK	1275	n/a	n/a	0	0	0
3714940	WORD	wordpools/wasnorm_wordpool_576.txt	LTP391	ltpFR2	19	18	LETTUCE	814	n/a	n/a	0	0	0
3717590	WORD	wordpools/wasnorm_wordpool_576.txt	LTP391	ltpFR2	19	18	ORANGE	980	n/a	n/a	0	0	0
3720290	WORD	wordpools/wasnorm_wordpool_576.txt	LTP391	ltpFR2	19	18	WORKER	1621	n/a	n/a	0	0	0
3723006	WORD	wordpools/wasnorm_wordpool_576.txt	LTP391	ltpFR2	19	18	SCALPEL	1243	n/a	n/a	0	0	0
3725706	WORD	wordpools/wasnorm_wordpool_576.txt	LTP391	ltpFR2	19	18	BRAKE	166	n/a	n/a	0	0	0
3728224	WORD	wordpools/wasnorm_wordpool_576.txt	LTP391	ltpFR2	19	18	OUTDOORS	987	n/a	n/a	0	0	0
3730873	WORD	wordpools/wasnorm_wordpool_576.txt	LTP391	ltpFR2	19	18	NURSE	963	n/a	n/a	0	0	0
3733606	WORD	wordpools/wasnorm_wordpool_576.txt	LTP391	ltpFR2	19	18	CHEMIST	292	n/a	n/a	0	0	0
3736039	WORD	wordpools/wasnorm_wordpool_576.txt	LTP391	ltpFR2	19	18	APPLE	33	n/a	n/a	0	0	0
3738856	WORD	wordpools/wasnorm_wordpool_576.txt	LTP391	ltpFR2	19	18	FRAGRANCE	599	n/a	n/a	0	0	0
3741323	WORD	wordpools/wasnorm_wordpool_576.txt	LTP391	ltpFR2	19	18	PERFUME	1049	n/a	n/a	0	0	0
3742940	START	n/a	LTP391	ltpFR2	19	n/a	n/a	n/a	27	n/a	n/a	n/a	n/a
3744007	DISTRACTOR	n/a	LTP391	ltpFR2	19	18	n/a	n/a	n/a	n/a	0	0	0
3744023	PROB	n/a	LTP391	ltpFR2	19	n/a	n/a	n/a	27	15	1	5	9
3745706	PROB	n/a	LTP391	ltpFR2	19	n/a	n/a	n/a	27	19	4	7	8
3747323	PROB	n/a	LTP391	ltpFR2	19	n/a	n/a	n/a	27	14	3	5	6
3748923	PROB	n/a	LTP391	ltpFR2	19	n/a	n/a	n/a	27	15	2	4	9
3750123	PROB	n/a	LTP391	ltpFR2	19	n/a	n/a	n/a	27	17	2	9	6
3751373	PROB	n/a	LTP391	ltpFR2	19	n/a	n/a	n/a	27	17	6	8	3
3753039	PROB	n/a	LTP391	ltpFR2	19	n/a	n/a	n/a	27	15	9	5	1
3754272	PROB	n/a	LTP391	ltpFR2	19	n/a	n/a	n/a	27	12	1	8	3
3755472	PROB	n/a	LTP391	ltpFR2	19	n/a	n/a	n/a	27	18	9	2	7
3757122	PROB	n/a	LTP391	ltpFR2	19	n/a	n/a	n/a	27	11	6	3	2
3758189	PROB	n/a	LTP391	ltpFR2	19	n/a	n/a	n/a	27	19	5	9	5
3759339	PROB	n/a	LTP391	ltpFR2	19	n/a	n/a	n/a	27	19	8	9	2
3760722	PROB	n/a	LTP391	ltpFR2	19	n/a	n/a	n/a	27	16	9	3	4
3761939	PROB	n/a	LTP391	ltpFR2	19	n/a	n/a	n/a	27	12	2	7	3
3763189	PROB	n/a	LTP391	ltpFR2	19	n/a	n/a	n/a	27	7	2	4	1
3764256	PROB	n/a	LTP391	ltpFR2	19	n/a	n/a	n/a	27	14	2	8	4
3765603	STOP	n/a	LTP391	ltpFR2	19	n/a	n/a	n/a	27	n/a	n/a	n/a	n/a
3768856	REC_START	n/a	LTP391	ltpFR2	19	18	n/a	n/a	n/a	n/a	0	0	0
3769499	REC_WORD	wordpools/wasnorm_wordpool_576.txt	LTP391	ltpFR2	19	18	NURSE	963	n/a	n/a	0	0	0
3773662	REC_WORD	wordpools/wasnorm_wordpool_576.txt	LTP391	ltpFR2	19	18	COUCH	386	n/a	n/a	0	0	0
3774201	REC_WORD	wordpools/wasnorm_wordpool_576.txt	LTP391	ltpFR2	19	18	RUG	1215	n/a	n/a	0	0	0
3774685	REC_WORD	wordpools/wasnorm_wordpool_576.txt	LTP391	ltpFR2	19	18	TRENCH	1503	n/a	n/a	0	0	0
3776424	REC_WORD	wordpools/wasnorm_wordpool_576.txt	LTP391	ltpFR2	19	18	WASP	1593	n/a	n/a	0	0	0
3859321	WORD	wordpools/wasnorm_wordpool_576.txt	LTP391	ltpFR2	19	19	BROTHER	179	n/a	n/a	0	0	0
3862137	WORD	wordpools/wasnorm_wordpool_576.txt	LTP391	ltpFR2	19	19	SIBLING	1301	n/a	n/a	0	0	0
3864954	WORD	wordpools/wasnorm_wordpool_576.txt	LTP391	ltpFR2	19	19	PATROL	1027	n/a	n/a	0	0	0
3867754	WORD	wordpools/wasnorm_wordpool_576.txt	LTP391	ltpFR2	19	19	SUBWAY	1400	n/a	n/a	0	0	0
3870287	WORD	wordpools/wasnorm_wordpool_576.txt	LTP391	ltpFR2	19	19	MAMMAL	861	n/a	n/a	0	0	0
3872971	WORD	wordpools/wasnorm_wordpool_576.txt	LTP391	ltpFR2	19	19	CRAB	397	n/a	n/a	0	0	0
3875471	WORD	wordpools/wasnorm_wordpool_576.txt	LTP391	ltpFR2	19	19	DIVER	476	n/a	n/a	0	0	0
3878020	WORD	wordpools/wasnorm_wordpool_576.txt	LTP391	ltpFR2	19	19	BARLEY	88	n/a	n/a	0	0	0
3880770	WORD	wordpools/wasnorm_wordpool_576.txt	LTP391	ltpFR2	19	19	THREAD	1460	n/a	n/a	0	0	0
3883254	WORD	wordpools/wasnorm_wordpool_576.txt	LTP391	ltpFR2	19	19	TRIBE	1505	n/a	n/a	0	0	0
3885854	WORD	wordpools/wasnorm_wordpool_576.txt	LTP391	ltpFR2	19	19	SPACE	1345	n/a	n/a	0	0	0
3888454	WORD	wordpools/wasnorm_wordpool_576.txt	LTP391	ltpFR2	19	19	BINDER	127	n/a	n/a	0	0	0
3891120	WORD	wordpools/wasnorm_wordpool_576.txt	LTP391	ltpFR2	19	19	FIREPLACE	570	n/a	n/a	0	0	0
3893587	WORD	wordpools/wasnorm_wordpool_576.txt	LTP391	ltpFR2	19	19	HUSBAND	728	n/a	n/a	0	0	0
3896404	WORD	wordpools/wasnorm_wordpool_576.txt	LTP391	ltpFR2	19	19	PLATE	1086	n/a	n/a	0	0	0
3898854	WORD	wordpools/wasnorm_wordpool_576.txt	LTP391	ltpFR2	19	19	CYCLONE	431	n/a	n/a	0	0	0
3901620	WORD	wordpools/wasnorm_wordpool_576.txt	LTP391	ltpFR2	19	19	COWBOY	395	n/a	n/a	0	0	0
3904403	WORD	wordpools/wasnorm_wordpool_576.txt	LTP391	ltpFR2	19	19	SWIMMER	1420	n/a	n/a	0	0	0
3906837	WORD	wordpools/wasnorm_wordpool_576.txt	LTP391	ltpFR2	19	19	GREASE	660	n/a	n/a	0	0	0
3909620	WORD	wordpools/wasnorm_wordpool_576.txt	LTP391	ltpFR2	19	19	DAISY	435	n/a	n/a	0	0	0
3912170	WORD	wordpools/wasnorm_wordpool_576.txt	LTP391	ltpFR2	19	19	ANKLE	24	n/a	n/a	0	0	0
3914687	WORD	wordpools/wasnorm_wordpool_576.txt	LTP391	ltpFR2	19	19	LEG	809	n/a	n/a	0	0	0
3917120	WORD	wordpools/wasnorm_wordpool_576.txt	LTP391	ltpFR2	19	19	SOFTBALL	1343	n/a	n/a	0	0	0
3919653	WORD	wordpools/wasnorm_wordpool_576.txt	LTP391	ltpFR2	19	19	PICTURE	1061	n/a	n/a	0	0	0
3921270	START	n/a	LTP391	ltpFR2	19	n/a	n/a	n/a	28	n/a	n/a	n/a	n/a
3922334	DISTRACTOR	n/a	LTP391	ltpFR2	19	19	n/a	n/a	n/a	n/a	0	0	0
3922336	PROB	n/a	LTP391	ltpFR2	19	n/a	n/a	n/a	28	16	3	6	7
3925353	PROB	n/a	LTP391	ltpFR2	19	n/a	n/a	n/a	28	10	6	2	2
3926536	PROB	n/a	LTP391	ltpFR2	19	n/a	n/a	n/a	28	15	4	9	2
3928570	PROB	n/a	LTP391	ltpFR2	19	n/a	n/a	n/a	28	21	7	6	8
3930486	PROB	n/a	LTP391	ltpFR2	19	n/a	n/a	n/a	28	8	2	1	5
3931520	PROB	n/a	LTP391	ltpFR2	19	n/a	n/a	n/a	28	6	3	1	2
3933036	PROB	n/a	LTP391	ltpFR2	19	n/a	n/a	n/a	28	7	2	2	3
3934320	PROB	n/a	LTP391	ltpFR2	19	n/a	n/a	n/a	28	20	3	8	9
3935670	PROB	n/a	LTP391	ltpFR2	19	n/a	n/a	n/a	28	14	9	2	3
3937253	PROB	n/a	LTP391	ltpFR2	19	n/a	n/a	n/a	28	8	3	3	2
3938520	PROB	n/a	LTP391	ltpFR2	19	n/a	n/a	n/a	28	11	1	8	2
3939669	PROB	n/a	LTP391	ltpFR2	19	n/a	n/a	n/a	28	12	7	4	1
3940736	PROB	n/a	LTP391	ltpFR2	19	n/a	n/a	n/a	28	15	6	4	5
3942303	PROB	n/a	LTP391	ltpFR2	19	n/a	n/a	n/a	28	19	8	2	9
3944072	STOP	n/a	LTP391	ltpFR2	19	n/a	n/a	n/a	28	n/a	n/a	n/a	n/a
3947203	REC_START	n/a	LTP391	ltpFR2	19	19	n/a	n/a	n/a	n/a	0	0	0
3947475	REC_WORD	wordpools/wasnorm_wordpool_576.txt	LTP391	ltpFR2	19	19	LEG	809	n/a	n/a	0	0	0
3947915	REC_WORD	wordpools/wasnorm_wordpool_576.txt	LTP391	ltpFR2	19	19	ANKLE	24	n/a	n/a	0	0	0
3948382	REC_WORD	wordpools/wasnorm_wordpool_576.txt	LTP391	ltpFR2	19	19	BINDER	127	n/a	n/a	0	0	0
3948767	REC_WORD	wordpools/wasnorm_wordpool_576.txt	LTP391	ltpFR2	19	19	SUBWAY	1400	n/a	n/a	0	0	0
3949293	REC_WORD	wordpools/wasnorm_wordpool_576.txt	LTP391	ltpFR2	19	19	CYCLONE	431	n/a	n/a	0	0	0
3952169	REC_WORD	wordpools/wasnorm_wordpool_576.txt	LTP391	ltpFR2	19	19	BROTHER	179	n/a	n/a	0	0	0
3952486	REC_WORD	wordpools/wasnorm_wordpool_576.txt	LTP391	ltpFR2	19	19	SIBLING	1301	n/a	n/a	0	0	0
3953455	REC_WORD	wordpools/wasnorm_wordpool_576.txt	LTP391	ltpFR2	19	19	TRIBE	1505	n/a	n/a	0	0	0
3954957	REC_WORD	wordpools/wasnorm_wordpool_576.txt	LTP391	ltpFR2	19	19	HUSBAND	728	n/a	n/a	0	0	0
3961523	REC_WORD	wordpools/wasnorm_wordpool_576.txt	LTP391	ltpFR2	19	19	THREAD	1460	n/a	n/a	0	0	0
3967945	REC_WORD	wordpools/wasnorm_wordpool_576.txt	LTP391	ltpFR2	19	19	SOFTBALL	1343	n/a	n/a	0	0	0
3969950	REC_WORD	wordpools/wasnorm_wordpool_576.txt	LTP391	ltpFR2	19	19	PICTURE	1061	n/a	n/a	0	0	0
3970464	REC_WORD	wordpools/wasnorm_wordpool_576.txt	LTP391	ltpFR2	19	19	DAISY	435	n/a	n/a	0	0	0
3971526	REC_WORD	wordpools/wasnorm_wordpool_576.txt	LTP391	ltpFR2	19	19	COWBOY	395	n/a	n/a	0	0	0
4037701	WORD	wordpools/wasnorm_wordpool_576.txt	LTP391	ltpFR2	19	20	LEOPARD	812	n/a	n/a	0	0	0
4040334	WORD	wordpools/wasnorm_wordpool_576.txt	LTP391	ltpFR2	19	20	PIGEON	1065	n/a	n/a	0	0	0
4042785	WORD	wordpools/wasnorm_wordpool_576.txt	LTP391	ltpFR2	19	20	TUBA	1515	n/a	n/a	0	0	0
4045235	WORD	wordpools/wasnorm_wordpool_576.txt	LTP391	ltpFR2	19	20	JUDGE	761	n/a	n/a	0	0	0
4047801	WORD	wordpools/wasnorm_wordpool_576.txt	LTP391	ltpFR2	19	20	MASK	876	n/a	n/a	0	0	0
4050334	WORD	wordpools/wasnorm_wordpool_576.txt	LTP391	ltpFR2	19	20	FRECKLE	602	n/a	n/a	0	0	0
4053084	WORD	wordpools/wasnorm_wordpool_576.txt	LTP391	ltpFR2	19	20	LADY	794	n/a	n/a	0	0	0
4055634	WORD	wordpools/wasnorm_wordpool_576.txt	LTP391	ltpFR2	19	20	MISTER	901	n/a	n/a	0	0	0
4058068	WORD	wordpools/wasnorm_wordpool_576.txt	LTP391	ltpFR2	19	20	SALT	1229	n/a	n/a	0	0	0
4060618	WORD	wordpools/wasnorm_wordpool_576.txt	LTP391	ltpFR2	19	20	SPOUSE	1358	n/a	n/a	0	0	0
4063117	WORD	wordpools/wasnorm_wordpool_576.txt	LTP391	ltpFR2	19	20	TRACTOR	1493	n/a	n/a	0	0	0
4065784	WORD	wordpools/wasnorm_wordpool_576.txt	LTP391	ltpFR2	19	20	UMPIRE	1535	n/a	n/a	0	0	0
4068401	WORD	wordpools/wasnorm_wordpool_576.txt	LTP391	ltpFR2	19	20	GARDEN	623	n/a	n/a	0	0	0
4071184	WORD	wordpools/wasnorm_wordpool_576.txt	LTP391	ltpFR2	19	20	SHOVEL	1295	n/a	n/a	0	0	0
4073767	WORD	wordpools/wasnorm_wordpool_576.txt	LTP391	ltpFR2	19	20	QUAIL	1147	n/a	n/a	0	0	0
4076551	WORD	wordpools/wasnorm_wordpool_576.txt	LTP391	ltpFR2	19	20	BLOUSE	139	n/a	n/a	0	0	0
4079067	WORD	wordpools/wasnorm_wordpool_576.txt	LTP391	ltpFR2	19	20	COLONEL	348	n/a	n/a	0	0	0
4081567	WORD	wordpools/wasnorm_wordpool_576.txt	LTP391	ltpFR2	19	20	SHORTS	1293	n/a	n/a	0	0	0
4084267	WORD	wordpools/wasnorm_wordpool_576.txt	LTP391	ltpFR2	19	20	LACE	792	n/a	n/a	0	0	0
4086900	WORD	wordpools/wasnorm_wordpool_576.txt	LTP391	ltpFR2	19	20	JEANS	752	n/a	n/a	0	0	0
4089650	WORD	wordpools/wasnorm_wordpool_576.txt	LTP391	ltpFR2	19	20	POSTAGE	1113	n/a	n/a	0	0	0
4092300	WORD	wordpools/wasnorm_wordpool_576.txt	LTP391	ltpFR2	19	20	SODA	1341	n/a	n/a	0	0	0
4095117	WORD	wordpools/wasnorm_wordpool_576.txt	LTP391	ltpFR2	19	20	PEPPER	1047	n/a	n/a	0	0	0
4097800	WORD	wordpools/wasnorm_wordpool_576.txt	LTP391	ltpFR2	19	20	CREATURE	403	n/a	n/a	0	0	0
4099417	START	n/a	LTP391	ltpFR2	19	n/a	n/a	n/a	29	n/a	n/a	n/a	n/a
4100510	DISTRACTOR	n/a	LTP391	ltpFR2	19	20	n/a	n/a	n/a	n/a	0	0	0
4100517	PROB	n/a	LTP391	ltpFR2	19	n/a	n/a	n/a	29	22	9	6	7
4101917	PROB	n/a	LTP391	ltpFR2	19	n/a	n/a	n/a	29	17	7	7	3
4103917	PROB	n/a	LTP391	ltpFR2	19	n/a	n/a	n/a	29	12	5	2	5
4105383	PROB	n/a	LTP391	ltpFR2	19	n/a	n/a	n/a	29	17	2	9	6
4107117	PROB	n/a	LTP391	ltpFR2	19	n/a	n/a	n/a	29	22	9	7	6
4108917	PROB	n/a	LTP391	ltpFR2	19	n/a	n/a	n/a	29	16	9	4	3
4110383	PROB	n/a	LTP391	ltpFR2	19	n/a	n/a	n/a	29	12	9	1	2
4111433	PROB	n/a	LTP391	ltpFR2	19	n/a	n/a	n/a	29	19	4	7	8
4113234	PROB	n/a	LTP391	ltpFR2	19	n/a	n/a	n/a	29	13	3	1	9
4114550	PROB	n/a	LTP391	ltpFR2	19	n/a	n/a	n/a	29	17	8	3	6
4115767	PROB	n/a	LTP391	ltpFR2	19	n/a	n/a	n/a	29	8	3	3	2
4117950	PROB	n/a	LTP391	ltpFR2	19	n/a	n/a	n/a	29	21	8	5	8
4119617	PROB	n/a	LTP391	ltpFR2	19	n/a	n/a	n/a	29	15	1	6	8
4120800	PROB	n/a	LTP391	ltpFR2	19	n/a	n/a	n/a	29	16	2	7	7
4122365	STOP	n/a	LTP391	ltpFR2	19	n/a	n/a	n/a	29	n/a	n/a	n/a	n/a
4125250	REC_START	n/a	LTP391	ltpFR2	19	20	n/a	n/a	n/a	n/a	0	0	0
4125783	REC_WORD	wordpools/wasnorm_wordpool_576.txt	LTP391	ltpFR2	19	20	QUAIL	1147	n/a	n/a	0	0	0
4126308	REC_WORD	wordpools/wasnorm_wordpool_576.txt	LTP391	ltpFR2	19	20	PIGEON	1065	n/a	n/a	0	0	0
4126818	REC_WORD	wordpools/wasnorm_wordpool_576.txt	LTP391	ltpFR2	19	20	GARDEN	623	n/a	n/a	0	0	0
4127214	REC_WORD	wordpools/wasnorm_wordpool_576.txt	LTP391	ltpFR2	19	20	SHOVEL	1295	n/a	n/a	0	0	0
4128437	REC_WORD	wordpools/wasnorm_wordpool_576.txt	LTP391	ltpFR2	19	20	SHORTS	1293	n/a	n/a	0	0	0
4129467	REC_WORD	wordpools/wasnorm_wordpool_576.txt	LTP391	ltpFR2	19	20	LACE	792	n/a	n/a	0	0	0
4130101	REC_WORD	wordpools/wasnorm_wordpool_576.txt	LTP391	ltpFR2	19	20	BLOUSE	139	n/a	n/a	0	0	0
4131060	REC_WORD	wordpools/wasnorm_wordpool_576.txt	LTP391	ltpFR2	19	20	JEANS	752	n/a	n/a	0	0	0
4132160	REC_WORD	wordpools/wasnorm_wordpool_576.txt	LTP391	ltpFR2	19	20	COLONEL	348	n/a	n/a	0	0	0
4132709	REC_WORD	wordpools/wasnorm_wordpool_576.txt	LTP391	ltpFR2	19	20	JUDGE	761	n/a	n/a	0	0	0
4133138	REC_WORD	wordpools/wasnorm_wordpool_576.txt	LTP391	ltpFR2	19	20	MISTER	901	n/a	n/a	0	0	0
4133829	REC_WORD	wordpools/wasnorm_wordpool_576.txt	LTP391	ltpFR2	19	20	LADY	794	n/a	n/a	0	0	0
4134952	REC_WORD	wordpools/wasnorm_wordpool_576.txt	LTP391	ltpFR2	19	20	MASK	876	n/a	n/a	0	0	0
4135442	REC_WORD	wordpools/wasnorm_wordpool_576.txt	LTP391	ltpFR2	19	20	FRECKLE	602	n/a	n/a	0	0	0
4137212	REC_WORD	wordpools/wasnorm_wordpool_576.txt	LTP391	ltpFR2	19	20	LEOPARD	812	n/a	n/a	0	0	0
4141965	REC_WORD	wordpools/wasnorm_wordpool_576.txt	LTP391	ltpFR2	19	20	SPOUSE	1358	n/a	n/a	0	0	0
4144279	REC_WORD	wordpools/wasnorm_wordpool_576.txt	LTP391	ltpFR2	19	20	TUBA	1515	n/a	n/a	0	0	0
4215698	DISTRACTOR	n/a	LTP391	ltpFR2	19	21	n/a	n/a	n/a	n/a	0	0	0
4215698	START	n/a	LTP391	ltpFR2	19	n/a	n/a	n/a	30	n/a	n/a	n/a	n/a
4215715	PROB	n/a	LTP391	ltpFR2	19	n/a	n/a	n/a	30	14	8	5	1
4217065	PROB	n/a	LTP391	ltpFR2	19	n/a	n/a	n/a	30	15	1	5	9
4218165	PROB	n/a	LTP391	ltpFR2	19	n/a	n/a	n/a	30	12	2	6	4
4219198	PROB	n/a	LTP391	ltpFR2	19	n/a	n/a	n/a	30	14	4	4	6
4220948	PROB	n/a	LTP391	ltpFR2	19	n/a	n/a	n/a	30	12	4	4	4
4222382	PROB	n/a	LTP391	ltpFR2	19	n/a	n/a	n/a	30	17	8	5	4
4223531	PROB	n/a	LTP391	ltpFR2	19	n/a	n/a	n/a	30	15	9	2	5
4224698	PROB	n/a	LTP391	ltpFR2	19	n/a	n/a	n/a	30	18	7	9	2
4226715	PROB	n/a	LTP391	ltpFR2	19	n/a	n/a	n/a	30	6	2	3	1
4227648	PROB	n/a	LTP391	ltpFR2	19	n/a	n/a	n/a	30	10	1	3	6
4228731	PROB	n/a	LTP391	ltpFR2	19	n/a	n/a	n/a	30	13	3	5	5
4229915	PROB	n/a	LTP391	ltpFR2	19	n/a	n/a	n/a	30	17	8	5	4
4231081	PROB	n/a	LTP391	ltpFR2	19	n/a	n/a	n/a	30	9	6	1	2
4232098	PROB	n/a	LTP391	ltpFR2	19	n/a	n/a	n/a	30	19	8	6	5
4233548	PROB	n/a	LTP391	ltpFR2	19	n/a	n/a	n/a	30	19	4	9	6
4234898	PROB	n/a	LTP391	ltpFR2	19	n/a	n/a	n/a	30	13	1	9	3
4236181	PROB	n/a	LTP391	ltpFR2	19	n/a	n/a	n/a	30	9	3	5	1
4237865	PROB	n/a	LTP391	ltpFR2	19	n/a	n/a	n/a	30	13	1	7	5
4239585	STOP	n/a	LTP391	ltpFR2	19	n/a	n/a	n/a	30	n/a	n/a	n/a	n/a
4240548	WORD	wordpools/wasnorm_wordpool_576.txt	LTP391	ltpFR2	19	21	CARRIAGE	248	n/a	n/a	0	0	0
4243098	WORD	wordpools/wasnorm_wordpool_576.txt	LTP391	ltpFR2	19	21	OINTMENT	974	n/a	n/a	0	0	0
4245548	WORD	wordpools/wasnorm_wordpool_576.txt	LTP391	ltpFR2	19	21	NIGHTGOWN	953	n/a	n/a	0	0	0
4248198	WORD	wordpools/wasnorm_wordpool_576.txt	LTP391	ltpFR2	19	21	WARDROBE	1587	n/a	n/a	0	0	0
4250698	WORD	wordpools/wasnorm_wordpool_576.txt	LTP391	ltpFR2	19	21	STUDENT	1395	n/a	n/a	0	0	0
4253248	WORD	wordpools/wasnorm_wordpool_576.txt	LTP391	ltpFR2	19	21	PUPIL	1143	n/a	n/a	0	0	0
4255781	WORD	wordpools/wasnorm_wordpool_576.txt	LTP391	ltpFR2	19	21	HIKER	708	n/a	n/a	0	0	0
4258548	WORD	wordpools/wasnorm_wordpool_576.txt	LTP391	ltpFR2	19	21	LOFT	840	n/a	n/a	0	0	0
4261014	WORD	wordpools/wasnorm_wordpool_576.txt	LTP391	ltpFR2	19	21	UNCLE	1536	n/a	n/a	0	0	0
4263548	WORD	wordpools/wasnorm_wordpool_576.txt	LTP391	ltpFR2	19	21	CHAPEL	280	n/a	n/a	0	0	0
4266314	WORD	wordpools/wasnorm_wordpool_576.txt	LTP391	ltpFR2	19	21	BLOCKADE	137	n/a	n/a	0	0	0
4268864	WORD	wordpools/wasnorm_wordpool_576.txt	LTP391	ltpFR2	19	21	IGLOO	734	n/a	n/a	0	0	0
4271464	WORD	wordpools/wasnorm_wordpool_576.txt	LTP391	ltpFR2	19	21	FOOT	590	n/a	n/a	0	0	0
4274131	WORD	wordpools/wasnorm_wordpool_576.txt	LTP391	ltpFR2	19	21	PADDING	999	n/a	n/a	0	0	0
4276681	WORD	wordpools/wasnorm_wordpool_576.txt	LTP391	ltpFR2	19	21	KLEENEX	782	n/a	n/a	0	0	0
4279497	WORD	wordpools/wasnorm_wordpool_576.txt	LTP391	ltpFR2	19	21	PISTON	1076	n/a	n/a	0	0	0
4281997	WORD	wordpools/wasnorm_wordpool_576.txt	LTP391	ltpFR2	19	21	HOOD	714	n/a	n/a	0	0	0
4284480	WORD	wordpools/wasnorm_wordpool_576.txt	LTP391	ltpFR2	19	21	LILY	821	n/a	n/a	0	0	0
4287114	WORD	wordpools/wasnorm_wordpool_576.txt	LTP391	ltpFR2	19	21	TWISTER	1530	n/a	n/a	0	0	0
4289764	WORD	wordpools/wasnorm_wordpool_576.txt	LTP391	ltpFR2	19	21	JUNGLE	764	n/a	n/a	0	0	0
4292547	WORD	wordpools/wasnorm_wordpool_576.txt	LTP391	ltpFR2	19	21	GRAPE	654	n/a	n/a	0	0	0
4295215	WORD	wordpools/wasnorm_wordpool_576.txt	LTP391	ltpFR2	19	21	SLOPE	1328	n/a	n/a	0	0	0
4297680	WORD	wordpools/wasnorm_wordpool_576.txt	LTP391	ltpFR2	19	21	MARINE	869	n/a	n/a	0	0	0
4300314	WORD	wordpools/wasnorm_wordpool_576.txt	LTP391	ltpFR2	19	21	FEMALE	559	n/a	n/a	0	0	0
4301931	START	n/a	LTP391	ltpFR2	19	n/a	n/a	n/a	31	n/a	n/a	n/a	n/a
4302837	DISTRACTOR	n/a	LTP391	ltpFR2	19	21	n/a	n/a	n/a	n/a	0	0	0
4302847	PROB	n/a	LTP391	ltpFR2	19	n/a	n/a	n/a	31	13	5	6	2
4305830	PROB	n/a	LTP391	ltpFR2	19	n/a	n/a	n/a	31	11	4	1	6
4306830	PROB	n/a	LTP391	ltpFR2	19	n/a	n/a	n/a	31	17	8	8	1
4308113	PROB	n/a	LTP391	ltpFR2	19	n/a	n/a	n/a	31	13	1	8	4
4309347	PROB	n/a	LTP391	ltpFR2	19	n/a	n/a	n/a	31	24	9	9	6
4310663	PROB	n/a	LTP391	ltpFR2	19	n/a	n/a	n/a	31	13	7	3	3
4311880	PROB	n/a	LTP391	ltpFR2	19	n/a	n/a	n/a	31	16	6	2	8
4314513	PROB	n/a	LTP391	ltpFR2	19	n/a	n/a	n/a	31	16	9	4	3
4315930	PROB	n/a	LTP391	ltpFR2	19	n/a	n/a	n/a	31	5	2	2	1
4316930	PROB	n/a	LTP391	ltpFR2	19	n/a	n/a	n/a	31	24	8	9	7
4319297	PROB	n/a	LTP391	ltpFR2	19	n/a	n/a	n/a	31	14	2	5	7
4320563	PROB	n/a	LTP391	ltpFR2	19	n/a	n/a	n/a	31	22	7	9	6
4321830	PROB	n/a	LTP391	ltpFR2	19	n/a	n/a	n/a	31	10	1	7	2
4323163	PROB	n/a	LTP391	ltpFR2	19	n/a	n/a	n/a	31	15	8	2	5
4325299	STOP	n/a	LTP391	ltpFR2	19	n/a	n/a	n/a	31	n/a	n/a	n/a	n/a
4327747	REC_START	n/a	LTP391	ltpFR2	19	21	n/a	n/a	n/a	n/a	0	0	0
4328103	REC_WORD	wordpools/wasnorm_wordpool_576.txt	LTP391	ltpFR2	19	21	MARINE	869	n/a	n/a	0	0	0
4328589	REC_WORD	wordpools/wasnorm_wordpool_576.txt	LTP391	ltpFR2	19	21	FEMALE	559	n/a	n/a	0	0	0
4350664	REC_WORD	wordpools/wasnorm_wordpool_576.txt	LTP391	ltpFR2	19	21	LOFT	840	n/a	n/a	0	0	0
4351234	REC_WORD	wordpools/wasnorm_wordpool_576.txt	LTP391	ltpFR2	19	21	UNCLE	1536	n/a	n/a	0	0	0
4352820	REC_WORD	wordpools/wasnorm_wordpool_576.txt	LTP391	ltpFR2	19	21	CHAPEL	280	n/a	n/a	0	0	0
4353347	REC_WORD	wordpools/wasnorm_wordpool_576.txt	LTP391	ltpFR2	19	21	BLOCKADE	137	n/a	n/a	0	0	0
4354264	REC_WORD	wordpools/wasnorm_wordpool_576.txt	LTP391	ltpFR2	19	21	BLOCKADE	137	n/a	n/a	0	0	0
4355190	REC_WORD	wordpools/wasnorm_wordpool_576.txt	LTP391	ltpFR2	19	21	IGLOO	734	n/a	n/a	0	0	0
4355856	REC_WORD	wordpools/wasnorm_wordpool_576.txt	LTP391	ltpFR2	19	21	STUDENT	1395	n/a	n/a	0	0	0
4356385	REC_WORD	wordpools/wasnorm_wordpool_576.txt	LTP391	ltpFR2	19	21	PUPIL	1143	n/a	n/a	0	0	0
4375689	REC_WORD	wordpools/wasnorm_wordpool_576.txt	LTP391	ltpFR2	19	21	HIKER	708	n/a	n/a	0	0	0
4379713	REC_WORD	wordpools/wasnorm_wordpool_576.txt	LTP391	ltpFR2	19	21	COUSIN	392	n/a	n/a	0	0	0
4418213	WORD	wordpools/wasnorm_wordpool_576.txt	LTP391	ltpFR2	19	22	CABIN	211	n/a	n/a	0	0	0
4420912	WORD	wordpools/wasnorm_wordpool_576.txt	LTP391	ltpFR2	19	22	ACTOR	5	n/a	n/a	0	0	0
4423678	WORD	wordpools/wasnorm_wordpool_576.txt	LTP391	ltpFR2	19	22	SHIRT	1287	n/a	n/a	0	0	0
4426213	WORD	wordpools/wasnorm_wordpool_576.txt	LTP391	ltpFR2	19	22	AWARD	63	n/a	n/a	0	0	0
4428761	WORD	wordpools/wasnorm_wordpool_576.txt	LTP391	ltpFR2	19	22	COIN	343	n/a	n/a	0	0	0
4431545	WORD	wordpools/wasnorm_wordpool_576.txt	LTP391	ltpFR2	19	22	MARKET	871	n/a	n/a	0	0	0
4434295	WORD	wordpools/wasnorm_wordpool_576.txt	LTP391	ltpFR2	19	22	NECKLACE	940	n/a	n/a	0	0	0
4437011	WORD	wordpools/wasnorm_wordpool_576.txt	LTP391	ltpFR2	19	22	PRIMATE	1123	n/a	n/a	0	0	0
4439561	WORD	wordpools/wasnorm_wordpool_576.txt	LTP391	ltpFR2	19	22	MONEY	908	n/a	n/a	0	0	0
4442078	WORD	wordpools/wasnorm_wordpool_576.txt	LTP391	ltpFR2	19	22	DOLPHIN	483	n/a	n/a	0	0	0
4444811	WORD	wordpools/wasnorm_wordpool_576.txt	LTP391	ltpFR2	19	22	STAKE	1368	n/a	n/a	0	0	0
4447295	WORD	wordpools/wasnorm_wordpool_576.txt	LTP391	ltpFR2	19	22	RECEIPT	1173	n/a	n/a	0	0	0
4450061	WORD	wordpools/wasnorm_wordpool_576.txt	LTP391	ltpFR2	19	22	BANKER	84	n/a	n/a	0	0	0
4452744	WORD	wordpools/wasnorm_wordpool_576.txt	LTP391	ltpFR2	19	22	POLICE	1098	n/a	n/a	0	0	0
4455328	WORD	wordpools/wasnorm_wordpool_576.txt	LTP391	ltpFR2	19	22	PASTA	1021	n/a	n/a	0	0	0
4458028	WORD	wordpools/wasnorm_wordpool_576.txt	LTP391	ltpFR2	19	22	DRESSER	496	n/a	n/a	0	0	0
4460494	WORD	wordpools/wasnorm_wordpool_576.txt	LTP391	ltpFR2	19	22	WASHER	1592	n/a	n/a	0	0	0
4463128	WORD	wordpools/wasnorm_wordpool_576.txt	LTP391	ltpFR2	19	22	PERCH	1048	n/a	n/a	0	0	0
4465911	WORD	wordpools/wasnorm_wordpool_576.txt	LTP391	ltpFR2	19	22	HEDGE	699	n/a	n/a	0	0	0
4468711	WORD	wordpools/wasnorm_wordpool_576.txt	LTP391	ltpFR2	19	22	BISON	131	n/a	n/a	0	0	0
4471328	WORD	wordpools/wasnorm_wordpool_576.txt	LTP391	ltpFR2	19	22	HORSE	719	n/a	n/a	0	0	0
4474044	WORD	wordpools/wasnorm_wordpool_576.txt	LTP391	ltpFR2	19	22	VELVET	1555	n/a	n/a	0	0	0
4476811	WORD	wordpools/wasnorm_wordpool_576.txt	LTP391	ltpFR2	19	22	BALLOON	75	n/a	n/a	0	0	0
4479427	WORD	wordpools/wasnorm_wordpool_576.txt	LTP391	ltpFR2	19	22	SHERIFF	1284	n/a	n/a	0	0	0
4481044	START	n/a	LTP391	ltpFR2	19	n/a	n/a	n/a	32	n/a	n/a	n/a	n/a
4481853	DISTRACTOR	n/a	LTP391	ltpFR2	19	22	n/a	n/a	n/a	n/a	0	0	0
4481861	PROB	n/a	LTP391	ltpFR2	19	n/a	n/a	n/a	32	17	3	9	5
4483327	PROB	n/a	LTP391	ltpFR2	19	n/a	n/a	n/a	32	14	9	3	2
4484927	PROB	n/a	LTP391	ltpFR2	19	n/a	n/a	n/a	32	22	9	5	8
4486444	PROB	n/a	LTP391	ltpFR2	19	n/a	n/a	n/a	32	16	6	5	5
4487727	PROB	n/a	LTP391	ltpFR2	19	n/a	n/a	n/a	32	14	4	6	4
4489411	PROB	n/a	LTP391	ltpFR2	19	n/a	n/a	n/a	32	9	3	2	4
4491077	PROB	n/a	LTP391	ltpFR2	19	n/a	n/a	n/a	32	10	2	1	7
4492127	PROB	n/a	LTP391	ltpFR2	19	n/a	n/a	n/a	32	27	9	9	9
4493494	PROB	n/a	LTP391	ltpFR2	19	n/a	n/a	n/a	32	8	4	2	2
4495127	PROB	n/a	LTP391	ltpFR2	19	n/a	n/a	n/a	32	12	7	2	3
4496160	PROB	n/a	LTP391	ltpFR2	19	n/a	n/a	n/a	32	16	6	1	9
4497160	PROB	n/a	LTP391	ltpFR2	19	n/a	n/a	n/a	32	8	1	6	1
4498127	PROB	n/a	LTP391	ltpFR2	19	n/a	n/a	n/a	32	17	5	9	3
4499877	PROB	n/a	LTP391	ltpFR2	19	n/a	n/a	n/a	32	11	3	4	4
4501194	PROB	n/a	LTP391	ltpFR2	19	n/a	n/a	n/a	32	21	7	5	9
4502760	PROB	n/a	LTP391	ltpFR2	19	n/a	n/a	n/a	32	19	4	7	8
4504233	STOP	n/a	LTP391	ltpFR2	19	n/a	n/a	n/a	32	n/a	n/a	n/a	n/a
4506961	REC_START	n/a	LTP391	ltpFR2	19	22	n/a	n/a	n/a	n/a	0	0	0
4507233	REC_WORD	wordpools/wasnorm_wordpool_576.txt	LTP391	ltpFR2	19	22	POLICE	1098	n/a	n/a	0	0	0
4507765	REC_WORD	wordpools/wasnorm_wordpool_576.txt	LTP391	ltpFR2	19	22	SHERIFF	1284	n/a	n/a	0	0	0
4509258	REC_WORD	wordpools/wasnorm_wordpool_576.txt	LTP391	ltpFR2	19	22	ACTOR	5	n/a	n/a	0	0	0
4509688	REC_WORD	wordpools/wasnorm_wordpool_576.txt	LTP391	ltpFR2	19	22	AWARD	63	n/a	n/a	0	0	0
4510257	REC_WORD	wordpools/wasnorm_wordpool_576.txt	LTP391	ltpFR2	19	22	CABIN	211	n/a	n/a	0	0	0
4510749	REC_WORD	wordpools/wasnorm_wordpool_576.txt	LTP391	ltpFR2	19	22	SHIRT	1287	n/a	n/a	0	0	0
4512562	REC_WORD	wordpools/wasnorm_wordpool_576.txt	LTP391	ltpFR2	19	22	NECKLACE	940	n/a	n/a	0	0	0
4513139	REC_WORD	wordpools/wasnorm_wordpool_576.txt	LTP391	ltpFR2	19	22	COIN	343	n/a	n/a	0	0	0
4513621	REC_WORD	wordpools/wasnorm_wordpool_576.txt	LTP391	ltpFR2	19	22	MARKET	871	n/a	n/a	0	0	0
4514126	REC_WORD	wordpools/wasnorm_wordpool_576.txt	LTP391	ltpFR2	19	22	BANKER	84	n/a	n/a	0	0	0
4516960	REC_WORD	wordpools/wasnorm_wordpool_576.txt	LTP391	ltpFR2	19	22	MONEY	908	n/a	n/a	0	0	0
4518646	REC_WORD	wordpools/wasnorm_wordpool_576.txt	LTP391	ltpFR2	19	22	HEDGE	699	n/a	n/a	0	0	0
4519477	REC_WORD	wordpools/wasnorm_wordpool_576.txt	LTP391	ltpFR2	19	22	PERCH	1048	n/a	n/a	0	0	0
4520560	REC_WORD	wordpools/wasnorm_wordpool_576.txt	LTP391	ltpFR2	19	22	PRIMATE	1123	n/a	n/a	0	0	0
4521115	REC_WORD	wordpools/wasnorm_wordpool_576.txt	LTP391	ltpFR2	19	22	DOLPHIN	483	n/a	n/a	0	0	0
4521573	REC_WORD	wordpools/wasnorm_wordpool_576.txt	LTP391	ltpFR2	19	22	HORSE	719	n/a	n/a	0	0	0
4524064	REC_WORD	wordpools/wasnorm_wordpool_576.txt	LTP391	ltpFR2	19	22	BISON	131	n/a	n/a	0	0	0
4533991	REC_WORD	wordpools/wasnorm_wordpool_576.txt	LTP391	ltpFR2	19	22	PLAID	1080	n/a	n/a	0	0	0
4536914	REC_WORD	wordpools/wasnorm_wordpool_576.txt	LTP391	ltpFR2	19	22	VELVET	1555	n/a	n/a	0	0	0
4537615	REC_WORD	wordpools/wasnorm_wordpool_576.txt	LTP391	ltpFR2	19	22	BALLOON	75	n/a	n/a	0	0	0
4597409	DISTRACTOR	n/a	LTP391	ltpFR2	19	23	n/a	n/a	n/a	n/a	0	0	0
4597409	START	n/a	LTP391	ltpFR2	19	n/a	n/a	n/a	33	n/a	n/a	n/a	n/a
4597425	PROB	n/a	LTP391	ltpFR2	19	n/a	n/a	n/a	33	24	9	7	8
4598975	PROB	n/a	LTP391	ltpFR2	19	n/a	n/a	n/a	33	16	7	4	5
4600725	PROB	n/a	LTP391	ltpFR2	19	n/a	n/a	n/a	33	17	7	6	4
4602125	PROB	n/a	LTP391	ltpFR2	19	n/a	n/a	n/a	33	20	9	5	6
4603409	PROB	n/a	LTP391	ltpFR2	19	n/a	n/a	n/a	33	20	7	4	9
4604592	PROB	n/a	LTP391	ltpFR2	19	n/a	n/a	n/a	33	6	3	2	1
4605725	PROB	n/a	LTP391	ltpFR2	19	n/a	n/a	n/a	33	12	8	2	2
4607075	PROB	n/a	LTP391	ltpFR2	19	n/a	n/a	n/a	33	14	7	2	5
4608342	PROB	n/a	LTP391	ltpFR2	19	n/a	n/a	n/a	33	12	5	6	1
4609309	PROB	n/a	LTP391	ltpFR2	19	n/a	n/a	n/a	33	10	3	4	3
4611442	PROB	n/a	LTP391	ltpFR2	19	n/a	n/a	n/a	33	23	9	7	7
4614409	PROB	n/a	LTP391	ltpFR2	19	n/a	n/a	n/a	33	19	4	8	7
4615975	PROB	n/a	LTP391	ltpFR2	19	n/a	n/a	n/a	33	12	3	5	4
4618658	PROB	n/a	LTP391	ltpFR2	19	n/a	n/a	n/a	33	18	1	9	8
4619940	STOP	n/a	LTP391	ltpFR2	19	n/a	n/a	n/a	33	n/a	n/a	n/a	n/a
4622575	WORD	wordpools/wasnorm_wordpool_576.txt	LTP391	ltpFR2	19	23	SISTER	1312	n/a	n/a	0	0	0
4625226	WORD	wordpools/wasnorm_wordpool_576.txt	LTP391	ltpFR2	19	23	FRIEND	606	n/a	n/a	0	0	0
4627942	WORD	wordpools/wasnorm_wordpool_576.txt	LTP391	ltpFR2	19	23	HEART	697	n/a	n/a	0	0	0
4630408	WORD	wordpools/wasnorm_wordpool_576.txt	LTP391	ltpFR2	19	23	FLOWER	584	n/a	n/a	0	0	0
4632875	WORD	wordpools/wasnorm_wordpool_576.txt	LTP391	ltpFR2	19	23	RAZOR	1171	n/a	n/a	0	0	0
4635658	WORD	wordpools/wasnorm_wordpool_576.txt	LTP391	ltpFR2	19	23	LION	827	n/a	n/a	0	0	0
4638125	WORD	wordpools/wasnorm_wordpool_576.txt	LTP391	ltpFR2	19	23	PANTHER	1009	n/a	n/a	0	0	0
4640925	WORD	wordpools/wasnorm_wordpool_576.txt	LTP391	ltpFR2	19	23	HEADBAND	696	n/a	n/a	0	0	0
4643491	WORD	wordpools/wasnorm_wordpool_576.txt	LTP391	ltpFR2	19	23	VICTIM	1562	n/a	n/a	0	0	0
4646275	WORD	wordpools/wasnorm_wordpool_576.txt	LTP391	ltpFR2	19	23	GLOBE	641	n/a	n/a	0	0	0
4648841	WORD	wordpools/wasnorm_wordpool_576.txt	LTP391	ltpFR2	19	23	ORCHID	982	n/a	n/a	0	0	0
4651525	WORD	wordpools/wasnorm_wordpool_576.txt	LTP391	ltpFR2	19	23	KNAPSACK	783	n/a	n/a	0	0	0
4653958	WORD	wordpools/wasnorm_wordpool_576.txt	LTP391	ltpFR2	19	23	RAFT	1159	n/a	n/a	0	0	0
4656624	WORD	wordpools/wasnorm_wordpool_576.txt	LTP391	ltpFR2	19	23	BANK	83	n/a	n/a	0	0	0
4659108	WORD	wordpools/wasnorm_wordpool_576.txt	LTP391	ltpFR2	19	23	HOSTESS	723	n/a	n/a	0	0	0
4661774	WORD	wordpools/wasnorm_wordpool_576.txt	LTP391	ltpFR2	19	23	CHURCH	307	n/a	n/a	0	0	0
4664458	WORD	wordpools/wasnorm_wordpool_576.txt	LTP391	ltpFR2	19	23	FILM	565	n/a	n/a	0	0	0
4666924	WORD	wordpools/wasnorm_wordpool_576.txt	LTP391	ltpFR2	19	23	POPCORN	1104	n/a	n/a	0	0	0
4669358	WORD	wordpools/wasnorm_wordpool_576.txt	LTP391	ltpFR2	19	23	TWEEZERS	1526	n/a	n/a	0	0	0
4672174	WORD	wordpools/wasnorm_wordpool_576.txt	LTP391	ltpFR2	19	23	NOMAD	955	n/a	n/a	0	0	0
4674924	WORD	wordpools/wasnorm_wordpool_576.txt	LTP391	ltpFR2	19	23	HANDBAG	684	n/a	n/a	0	0	0
4677391	WORD	wordpools/wasnorm_wordpool_576.txt	LTP391	ltpFR2	19	23	BEAKER	104	n/a	n/a	0	0	0
4680007	WORD	wordpools/wasnorm_wordpool_576.txt	LTP391	ltpFR2	19	23	WRENCH	1625	n/a	n/a	0	0	0
4682557	WORD	wordpools/wasnorm_wordpool_576.txt	LTP391	ltpFR2	19	23	CURTAIN	427	n/a	n/a	0	0	0
4684174	START	n/a	LTP391	ltpFR2	19	n/a	n/a	n/a	34	n/a	n/a	n/a	n/a
4685063	DISTRACTOR	n/a	LTP391	ltpFR2	19	23	n/a	n/a	n/a	n/a	0	0	0
4685074	PROB	n/a	LTP391	ltpFR2	19	n/a	n/a	n/a	34	13	5	6	2
4687274	PROB	n/a	LTP391	ltpFR2	19	n/a	n/a	n/a	34	5	1	2	2
4688291	PROB	n/a	LTP391	ltpFR2	19	n/a	n/a	n/a	34	18	8	3	7
4689457	PROB	n/a	LTP391	ltpFR2	19	n/a	n/a	n/a	34	10	1	3	6
4691241	PROB	n/a	LTP391	ltpFR2	19	n/a	n/a	n/a	34	25	8	9	8
4693790	PROB	n/a	LTP391	ltpFR2	19	n/a	n/a	n/a	34	19	5	9	5
4694907	PROB	n/a	LTP391	ltpFR2	19	n/a	n/a	n/a	34	14	8	3	3
4695907	PROB	n/a	LTP391	ltpFR2	19	n/a	n/a	n/a	34	21	8	7	6
4697357	PROB	n/a	LTP391	ltpFR2	19	n/a	n/a	n/a	34	17	7	2	8
4698790	PROB	n/a	LTP391	ltpFR2	19	n/a	n/a	n/a	34	23	8	6	9
4700457	PROB	n/a	LTP391	ltpFR2	19	n/a	n/a	n/a	34	20	4	9	7
4701824	PROB	n/a	LTP391	ltpFR2	19	n/a	n/a	n/a	34	16	8	2	6
4703474	PROB	n/a	LTP391	ltpFR2	19	n/a	n/a	n/a	34	19	7	9	3
4704740	PROB	n/a	LTP391	ltpFR2	19	n/a	n/a	n/a	34	17	7	7	3
4706140	PROB	n/a	LTP391	ltpFR2	19	n/a	n/a	n/a	34	12	3	2	7
4707047	STOP	n/a	LTP391	ltpFR2	19	n/a	n/a	n/a	34	n/a	n/a	n/a	n/a
4710058	REC_START	n/a	LTP391	ltpFR2	19	23	n/a	n/a	n/a	n/a	0	0	0
4710898	REC_WORD	wordpools/wasnorm_wordpool_576.txt	LTP391	ltpFR2	19	23	RAZOR	1171	n/a	n/a	0	0	0
4711489	REC_WORD	wordpools/wasnorm_wordpool_576.txt	LTP391	ltpFR2	19	23	CURTAIN	427	n/a	n/a	0	0	0
4711929	REC_WORD	wordpools/wasnorm_wordpool_576.txt	LTP391	ltpFR2	19	23	HEADBAND	696	n/a	n/a	0	0	0
4712495	REC_WORD	wordpools/wasnorm_wordpool_576.txt	LTP391	ltpFR2	19	23	HANDBAG	684	n/a	n/a	0	0	0
4714050	REC_WORD	wordpools/wasnorm_wordpool_576.txt	LTP391	ltpFR2	19	23	SISTER	1312	n/a	n/a	0	0	0
4714541	REC_WORD	wordpools/wasnorm_wordpool_576.txt	LTP391	ltpFR2	19	23	FRIEND	606	n/a	n/a	0	0	0
4714999	REC_WORD	wordpools/wasnorm_wordpool_576.txt	LTP391	ltpFR2	19	23	HEART	697	n/a	n/a	0	0	0
4716052	REC_WORD	wordpools/wasnorm_wordpool_576.txt	LTP391	ltpFR2	19	23	FLOWER	584	n/a	n/a	0	0	0
4716672	REC_WORD	wordpools/wasnorm_wordpool_576.txt	LTP391	ltpFR2	19	23	ORCHID	982	n/a	n/a	0	0	0
4717425	REC_WORD	wordpools/wasnorm_wordpool_576.txt	LTP391	ltpFR2	19	23	LION	827	n/a	n/a	0	0	0
4717953	REC_WORD	wordpools/wasnorm_wordpool_576.txt	LTP391	ltpFR2	19	23	PANTHER	1009	n/a	n/a	0	0	0
4720003	REC_WORD	wordpools/wasnorm_wordpool_576.txt	LTP391	ltpFR2	19	23	WRENCH	1625	n/a	n/a	0	0	0
4721273	REC_WORD	wordpools/wasnorm_wordpool_576.txt	LTP391	ltpFR2	19	23	FILM	565	n/a	n/a	0	0	0
4721814	REC_WORD	wordpools/wasnorm_wordpool_576.txt	LTP391	ltpFR2	19	23	POPCORN	1104	n/a	n/a	0	0	0
4722964	REC_WORD	wordpools/wasnorm_wordpool_576.txt	LTP391	ltpFR2	19	23	VICTIM	1562	n/a	n/a	0	0	0
4736496	REC_WORD	wordpools/wasnorm_wordpool_576.txt	LTP391	ltpFR2	19	23	GLOBE	641	n/a	n/a	0	0	0
4739005	REC_WORD	wordpools/wasnorm_wordpool_576.txt	LTP391	ltpFR2	19	23	WORLD	1622	n/a	n/a	0	0	0
4740648	REC_WORD	wordpools/wasnorm_wordpool_576.txt	LTP391	ltpFR2	19	23	BANK	83	n/a	n/a	0	0	0
4800505	DISTRACTOR	n/a	LTP391	ltpFR2	19	24	n/a	n/a	n/a	n/a	0	0	0
4800506	START	n/a	LTP391	ltpFR2	19	n/a	n/a	n/a	35	n/a	n/a	n/a	n/a
4800522	PROB	n/a	LTP391	ltpFR2	19	n/a	n/a	n/a	35	20	6	8	6
4801989	PROB	n/a	LTP391	ltpFR2	19	n/a	n/a	n/a	35	12	4	6	2
4803156	PROB	n/a	LTP391	ltpFR2	19	n/a	n/a	n/a	35	17	6	3	7
4804539	PROB	n/a	LTP391	ltpFR2	19	n/a	n/a	n/a	35	15	8	4	3
4806755	PROB	n/a	LTP391	ltpFR2	19	n/a	n/a	n/a	35	14	3	4	7
4808122	PROB	n/a	LTP391	ltpFR2	19	n/a	n/a	n/a	35	23	7	8	8
4810805	PROB	n/a	LTP391	ltpFR2	19	n/a	n/a	n/a	35	19	3	8	8
4812355	PROB	n/a	LTP391	ltpFR2	19	n/a	n/a	n/a	35	8	3	2	3
4813522	PROB	n/a	LTP391	ltpFR2	19	n/a	n/a	n/a	35	18	3	6	9
4814672	PROB	n/a	LTP391	ltpFR2	19	n/a	n/a	n/a	35	9	2	4	3
4816439	PROB	n/a	LTP391	ltpFR2	19	n/a	n/a	n/a	35	9	1	7	1
4817522	PROB	n/a	LTP391	ltpFR2	19	n/a	n/a	n/a	35	11	1	7	3
4819272	PROB	n/a	LTP391	ltpFR2	19	n/a	n/a	n/a	35	12	3	5	4
4820522	PROB	n/a	LTP391	ltpFR2	19	n/a	n/a	n/a	35	10	1	7	2
4821672	PROB	n/a	LTP391	ltpFR2	19	n/a	n/a	n/a	35	9	3	5	1
4823378	STOP	n/a	LTP391	ltpFR2	19	n/a	n/a	n/a	35	n/a	n/a	n/a	n/a
4825472	WORD	wordpools/wasnorm_wordpool_576.txt	LTP391	ltpFR2	19	24	SKILLET	1317	n/a	n/a	0	0	0
4828122	WORD	wordpools/wasnorm_wordpool_576.txt	LTP391	ltpFR2	19	24	GYMNAST	675	n/a	n/a	0	0	0
4830888	WORD	wordpools/wasnorm_wordpool_576.txt	LTP391	ltpFR2	19	24	ANTLER	29	n/a	n/a	0	0	0
4833605	WORD	wordpools/wasnorm_wordpool_576.txt	LTP391	ltpFR2	19	24	BRICK	172	n/a	n/a	0	0	0
4836105	WORD	wordpools/wasnorm_wordpool_576.txt	LTP391	ltpFR2	19	24	DANDRUFF	439	n/a	n/a	0	0	0
4838855	WORD	wordpools/wasnorm_wordpool_576.txt	LTP391	ltpFR2	19	24	PACKAGE	997	n/a	n/a	0	0	0
4841588	WORD	wordpools/wasnorm_wordpool_576.txt	LTP391	ltpFR2	19	24	WITNESS	1618	n/a	n/a	0	0	0
4844288	WORD	wordpools/wasnorm_wordpool_576.txt	LTP391	ltpFR2	19	24	CLOTHES	327	n/a	n/a	0	0	0
4846771	WORD	wordpools/wasnorm_wordpool_576.txt	LTP391	ltpFR2	19	24	POISON	1096	n/a	n/a	0	0	0
4849321	WORD	wordpools/wasnorm_wordpool_576.txt	LTP391	ltpFR2	19	24	GANGSTER	620	n/a	n/a	0	0	0
4851938	WORD	wordpools/wasnorm_wordpool_576.txt	LTP391	ltpFR2	19	24	FLEET	578	n/a	n/a	0	0	0
4854421	WORD	wordpools/wasnorm_wordpool_576.txt	LTP391	ltpFR2	19	24	CELLAR	267	n/a	n/a	0	0	0
4857222	WORD	wordpools/wasnorm_wordpool_576.txt	LTP391	ltpFR2	19	24	DASHBOARD	441	n/a	n/a	0	0	0
4859655	WORD	wordpools/wasnorm_wordpool_576.txt	LTP391	ltpFR2	19	24	TRUCK	1512	n/a	n/a	0	0	0
4862239	WORD	wordpools/wasnorm_wordpool_576.txt	LTP391	ltpFR2	19	24	DRILL	497	n/a	n/a	0	0	0
4864854	WORD	wordpools/wasnorm_wordpool_576.txt	LTP391	ltpFR2	19	24	LUGGAGE	847	n/a	n/a	0	0	0
4867388	WORD	wordpools/wasnorm_wordpool_576.txt	LTP391	ltpFR2	19	24	GHETTO	633	n/a	n/a	0	0	0
4870138	WORD	wordpools/wasnorm_wordpool_576.txt	LTP391	ltpFR2	19	24	CHILD	299	n/a	n/a	0	0	0
4872604	WORD	wordpools/wasnorm_wordpool_576.txt	LTP391	ltpFR2	19	24	BOX	159	n/a	n/a	0	0	0
4875321	WORD	wordpools/wasnorm_wordpool_576.txt	LTP391	ltpFR2	19	24	WINDOW	1611	n/a	n/a	0	0	0
4877788	WORD	wordpools/wasnorm_wordpool_576.txt	LTP391	ltpFR2	19	24	DRAGON	492	n/a	n/a	0	0	0
4880438	WORD	wordpools/wasnorm_wordpool_576.txt	LTP391	ltpFR2	19	24	MUFFIN	929	n/a	n/a	0	0	0
4883071	WORD	wordpools/wasnorm_wordpool_576.txt	LTP391	ltpFR2	19	24	GARLIC	624	n/a	n/a	0	0	0
4885687	WORD	wordpools/wasnorm_wordpool_576.txt	LTP391	ltpFR2	19	24	CAPTIVE	240	n/a	n/a	0	0	0
4887304	START	n/a	LTP391	ltpFR2	19	n/a	n/a	n/a	36	n/a	n/a	n/a	n/a
4888285	DISTRACTOR	n/a	LTP391	ltpFR2	19	24	n/a	n/a	n/a	n/a	0	0	0
4888287	PROB	n/a	LTP391	ltpFR2	19	n/a	n/a	n/a	36	19	4	6	9
