onset	duration	trial_type	sample	stim_file	subject	experiment	session	trial	item_name	item_num	list	answer	test_x	test_y	test_z
213.904	n/a	SESS_START	106952	n/a	LTP310	ltpFR2	5	n/a	n/a	n/a	n/a	n/a	0	0	0
229.002	n/a	START	114501	n/a	LTP310	ltpFR2	5	n/a	n/a	n/a	-1	n/a	n/a	n/a	n/a
229.026	n/a	PROB	114513	n/a	LTP310	ltpFR2	5	n/a	n/a	n/a	-1	14	6	1	7
231.05	n/a	PROB	115525	n/a	LTP310	ltpFR2	5	n/a	n/a	n/a	-1	20	6	6	8
232.784	n/a	PROB	116392	n/a	LTP310	ltpFR2	5	n/a	n/a	n/a	-1	19	7	8	4
234.436	n/a	PROB	117218	n/a	LTP310	ltpFR2	5	n/a	n/a	n/a	-1	15	4	3	8
237.004	n/a	PROB	118502	n/a	LTP310	ltpFR2	5	n/a	n/a	n/a	-1	21	8	6	7
239.306	n/a	PROB	119653	n/a	LTP310	ltpFR2	5	n/a	n/a	n/a	-1	16	3	7	6
240.618	n/a	STOP	120309	n/a	LTP310	ltpFR2	5	n/a	n/a	n/a	-1	n/a	n/a	n/a	n/a
267.28	n/a	DISTRACTOR	133640	n/a	LTP310	ltpFR2	5	1	n/a	n/a	n/a	n/a	0	0	0
267.28	n/a	START	133640	n/a	LTP310	ltpFR2	5	n/a	n/a	n/a	1	n/a	n/a	n/a	n/a
267.296	n/a	PROB	133648	n/a	LTP310	ltpFR2	5	n/a	n/a	n/a	1	12	4	7	1
269.494	n/a	PROB	134747	n/a	LTP310	ltpFR2	5	n/a	n/a	n/a	1	18	9	8	1
271.096	n/a	PROB	135548	n/a	LTP310	ltpFR2	5	n/a	n/a	n/a	1	18	8	8	2
272.43	n/a	PROB	136215	n/a	LTP310	ltpFR2	5	n/a	n/a	n/a	1	13	2	6	5
273.814	n/a	PROB	136907	n/a	LTP310	ltpFR2	5	n/a	n/a	n/a	1	10	2	5	3
275.432	n/a	PROB	137716	n/a	LTP310	ltpFR2	5	n/a	n/a	n/a	1	17	7	8	2
276.882	n/a	PROB	138441	n/a	LTP310	ltpFR2	5	n/a	n/a	n/a	1	13	1	6	6
278.536	n/a	PROB	139268	n/a	LTP310	ltpFR2	5	n/a	n/a	n/a	1	17	9	7	1
279.918	n/a	PROB	139959	n/a	LTP310	ltpFR2	5	n/a	n/a	n/a	1	18	5	5	8
283.29	n/a	PROB	141645	n/a	LTP310	ltpFR2	5	n/a	n/a	n/a	1	16	6	4	6
284.69	n/a	PROB	142345	n/a	LTP310	ltpFR2	5	n/a	n/a	n/a	1	17	9	6	2
287.096	n/a	PROB	143548	n/a	LTP310	ltpFR2	5	n/a	n/a	n/a	1	19	1	9	9
288.36	n/a	PROB	144180	n/a	LTP310	ltpFR2	5	n/a	n/a	n/a	1	23	6	8	9
289.89	n/a	STOP	144945	n/a	LTP310	ltpFR2	5	n/a	n/a	n/a	1	n/a	n/a	n/a	n/a
292.282	n/a	WORD	146141	wordpools/wasnorm_wordpool_576.txt	LTP310	ltpFR2	5	1	LOVER	846	n/a	n/a	0	0	0
294.934	n/a	WORD	147467	wordpools/wasnorm_wordpool_576.txt	LTP310	ltpFR2	5	1	LETTUCE	814	n/a	n/a	0	0	0
297.636	n/a	WORD	148818	wordpools/wasnorm_wordpool_576.txt	LTP310	ltpFR2	5	1	RADISH	1158	n/a	n/a	0	0	0
300.272	n/a	WORD	150136	wordpools/wasnorm_wordpool_576.txt	LTP310	ltpFR2	5	1	LILY	821	n/a	n/a	0	0	0
303.056	n/a	WORD	151528	wordpools/wasnorm_wordpool_576.txt	LTP310	ltpFR2	5	1	SPARROW	1347	n/a	n/a	0	0	0
305.808	n/a	WORD	152904	wordpools/wasnorm_wordpool_576.txt	LTP310	ltpFR2	5	1	PARROT	1015	n/a	n/a	0	0	0
308.394	n/a	WORD	154197	wordpools/wasnorm_wordpool_576.txt	LTP310	ltpFR2	5	1	SKIRT	1319	n/a	n/a	0	0	0
310.996	n/a	WORD	155498	wordpools/wasnorm_wordpool_576.txt	LTP310	ltpFR2	5	1	CRAYON	401	n/a	n/a	0	0	0
313.464	n/a	WORD	156732	wordpools/wasnorm_wordpool_576.txt	LTP310	ltpFR2	5	1	YACHT	1629	n/a	n/a	0	0	0
316.184	n/a	WORD	158092	wordpools/wasnorm_wordpool_576.txt	LTP310	ltpFR2	5	1	SALMON	1227	n/a	n/a	0	0	0
319.002	n/a	WORD	159501	wordpools/wasnorm_wordpool_576.txt	LTP310	ltpFR2	5	1	CRAB	397	n/a	n/a	0	0	0
321.688	n/a	WORD	160844	wordpools/wasnorm_wordpool_576.txt	LTP310	ltpFR2	5	1	TART	1436	n/a	n/a	0	0	0
324.44	n/a	WORD	162220	wordpools/wasnorm_wordpool_576.txt	LTP310	ltpFR2	5	1	HIGHWAY	707	n/a	n/a	0	0	0
327.058	n/a	WORD	163529	wordpools/wasnorm_wordpool_576.txt	LTP310	ltpFR2	5	1	PATIENT	1024	n/a	n/a	0	0	0
329.562	n/a	WORD	164781	wordpools/wasnorm_wordpool_576.txt	LTP310	ltpFR2	5	1	PASTRY	1022	n/a	n/a	0	0	0
332.38	n/a	WORD	166190	wordpools/wasnorm_wordpool_576.txt	LTP310	ltpFR2	5	1	CROWN	415	n/a	n/a	0	0	0
334.816	n/a	WORD	167408	wordpools/wasnorm_wordpool_576.txt	LTP310	ltpFR2	5	1	PRINCE	1124	n/a	n/a	0	0	0
337.32	n/a	WORD	168660	wordpools/wasnorm_wordpool_576.txt	LTP310	ltpFR2	5	1	ROCKET	1202	n/a	n/a	0	0	0
339.77	n/a	WORD	169885	wordpools/wasnorm_wordpool_576.txt	LTP310	ltpFR2	5	1	JUDGE	761	n/a	n/a	0	0	0
342.422	n/a	WORD	171211	wordpools/wasnorm_wordpool_576.txt	LTP310	ltpFR2	5	1	CLOUD	328	n/a	n/a	0	0	0
345.092	n/a	WORD	172546	wordpools/wasnorm_wordpool_576.txt	LTP310	ltpFR2	5	1	TURNIP	1521	n/a	n/a	0	0	0
347.692	n/a	WORD	173846	wordpools/wasnorm_wordpool_576.txt	LTP310	ltpFR2	5	1	MARINE	869	n/a	n/a	0	0	0
350.376	n/a	WORD	175188	wordpools/wasnorm_wordpool_576.txt	LTP310	ltpFR2	5	1	SPOOL	1356	n/a	n/a	0	0	0
353.146	n/a	WORD	176573	wordpools/wasnorm_wordpool_576.txt	LTP310	ltpFR2	5	1	BOYFRIEND	162	n/a	n/a	0	0	0
354.764	n/a	START	177382	n/a	LTP310	ltpFR2	5	n/a	n/a	n/a	2	n/a	n/a	n/a	n/a
355.714	n/a	DISTRACTOR	177857	n/a	LTP310	ltpFR2	5	1	n/a	n/a	n/a	n/a	0	0	0
355.73	n/a	PROB	177865	n/a	LTP310	ltpFR2	5	n/a	n/a	n/a	2	12	6	5	1
357.632	n/a	PROB	178816	n/a	LTP310	ltpFR2	5	n/a	n/a	n/a	2	17	2	7	8
359.398	n/a	PROB	179699	n/a	LTP310	ltpFR2	5	n/a	n/a	n/a	2	22	1	2	9
360.968	n/a	PROB	180484	n/a	LTP310	ltpFR2	5	n/a	n/a	n/a	2	12	1	6	5
362.552	n/a	PROB	181276	n/a	LTP310	ltpFR2	5	n/a	n/a	n/a	2	14	4	6	4
364.054	n/a	PROB	182027	n/a	LTP310	ltpFR2	5	n/a	n/a	n/a	2	24	7	8	9
365.588	n/a	PROB	182794	n/a	LTP310	ltpFR2	5	n/a	n/a	n/a	2	9	1	7	1
367.408	n/a	PROB	183704	n/a	LTP310	ltpFR2	5	n/a	n/a	n/a	2	9	2	3	4
369.326	n/a	PROB	184663	n/a	LTP310	ltpFR2	5	n/a	n/a	n/a	2	14	3	6	5
370.976	n/a	PROB	185488	n/a	LTP310	ltpFR2	5	n/a	n/a	n/a	2	16	6	3	7
372.196	n/a	PROB	186098	n/a	LTP310	ltpFR2	5	n/a	n/a	n/a	2	15	3	6	6
373.778	n/a	PROB	186889	n/a	LTP310	ltpFR2	5	n/a	n/a	n/a	2	8	1	5	2
375.062	n/a	PROB	187531	n/a	LTP310	ltpFR2	5	n/a	n/a	n/a	2	20	9	7	4
377.604	n/a	STOP	188802	n/a	LTP310	ltpFR2	5	n/a	n/a	n/a	2	n/a	n/a	n/a	n/a
380.518	n/a	REC_START	190259	n/a	LTP310	ltpFR2	5	1	n/a	n/a	n/a	n/a	0	0	0
382.756	n/a	REC_WORD	191378	wordpools/wasnorm_wordpool_576.txt	LTP310	ltpFR2	5	1	LOVER	846	n/a	n/a	0	0	0
383.396	n/a	REC_WORD	191698	wordpools/wasnorm_wordpool_576.txt	LTP310	ltpFR2	5	1	SKIRT	1319	n/a	n/a	0	0	0
384.396	n/a	REC_WORD_VV	192198	wordpools/wasnorm_wordpool_576.txt	LTP310	ltpFR2	5	1	<>	-1	n/a	n/a	0	0	0
385.448	n/a	REC_WORD	192724	wordpools/wasnorm_wordpool_576.txt	LTP310	ltpFR2	5	1	TURNIP	1521	n/a	n/a	0	0	0
386.334	n/a	REC_WORD	193167	wordpools/wasnorm_wordpool_576.txt	LTP310	ltpFR2	5	1	LETTUCE	814	n/a	n/a	0	0	0
388.19	n/a	REC_WORD	194095	wordpools/wasnorm_wordpool_576.txt	LTP310	ltpFR2	5	1	RADISH	1158	n/a	n/a	0	0	0
391.75	n/a	REC_WORD	195875	wordpools/wasnorm_wordpool_576.txt	LTP310	ltpFR2	5	1	LILY	821	n/a	n/a	0	0	0
393.556	n/a	REC_WORD	196778	wordpools/wasnorm_wordpool_576.txt	LTP310	ltpFR2	5	1	PARROT	1015	n/a	n/a	0	0	0
394.522	n/a	REC_WORD	197261	wordpools/wasnorm_wordpool_576.txt	LTP310	ltpFR2	5	1	SPARROW	1347	n/a	n/a	0	0	0
398.938	n/a	REC_WORD	199469	wordpools/wasnorm_wordpool_576.txt	LTP310	ltpFR2	5	1	YACHT	1629	n/a	n/a	0	0	0
400.5	n/a	REC_WORD	200250	wordpools/wasnorm_wordpool_576.txt	LTP310	ltpFR2	5	1	CRAYON	401	n/a	n/a	0	0	0
403.498	n/a	REC_WORD	201749	wordpools/wasnorm_wordpool_576.txt	LTP310	ltpFR2	5	1	PRINCE	1124	n/a	n/a	0	0	0
404.738	n/a	REC_WORD	202369	wordpools/wasnorm_wordpool_576.txt	LTP310	ltpFR2	5	1	JUDGE	761	n/a	n/a	0	0	0
405.886	n/a	REC_WORD	202943	wordpools/wasnorm_wordpool_576.txt	LTP310	ltpFR2	5	1	CLOUD	328	n/a	n/a	0	0	0
408.06	n/a	REC_WORD	204030	wordpools/wasnorm_wordpool_576.txt	LTP310	ltpFR2	5	1	BOYFRIEND	162	n/a	n/a	0	0	0
411.822	n/a	REC_WORD	205911	wordpools/wasnorm_wordpool_576.txt	LTP310	ltpFR2	5	1	MARINE	869	n/a	n/a	0	0	0
415.642	n/a	REC_WORD	207821	wordpools/wasnorm_wordpool_576.txt	LTP310	ltpFR2	5	1	ROCKET	1202	n/a	n/a	0	0	0
417.49	n/a	REC_WORD	208745	wordpools/wasnorm_wordpool_576.txt	LTP310	ltpFR2	5	1	CROWN	415	n/a	n/a	0	0	0
421.142	n/a	REC_WORD	210571	wordpools/wasnorm_wordpool_576.txt	LTP310	ltpFR2	5	1	CRAB	397	n/a	n/a	0	0	0
422.962	n/a	REC_WORD_VV	211481	wordpools/wasnorm_wordpool_576.txt	LTP310	ltpFR2	5	1	<>	-1	n/a	n/a	0	0	0
423.82	n/a	REC_WORD	211910	wordpools/wasnorm_wordpool_576.txt	LTP310	ltpFR2	5	1	PASTRY	1022	n/a	n/a	0	0	0
425.274	n/a	REC_WORD	212637	wordpools/wasnorm_wordpool_576.txt	LTP310	ltpFR2	5	1	TART	1436	n/a	n/a	0	0	0
470.938	n/a	DISTRACTOR	235469	n/a	LTP310	ltpFR2	5	2	n/a	n/a	n/a	n/a	0	0	0
470.938	n/a	START	235469	n/a	LTP310	ltpFR2	5	n/a	n/a	n/a	3	n/a	n/a	n/a	n/a
470.952	n/a	PROB	235476	n/a	LTP310	ltpFR2	5	n/a	n/a	n/a	3	8	1	2	6
473.322	n/a	PROB	236661	n/a	LTP310	ltpFR2	5	n/a	n/a	n/a	3	24	8	6	5
477.876	n/a	PROB	238938	n/a	LTP310	ltpFR2	5	n/a	n/a	n/a	3	11	7	1	3
479.46	n/a	PROB	239730	n/a	LTP310	ltpFR2	5	n/a	n/a	n/a	3	15	3	5	7
481.08	n/a	PROB	240540	n/a	LTP310	ltpFR2	5	n/a	n/a	n/a	3	11	4	1	6
482.346	n/a	PROB	241173	n/a	LTP310	ltpFR2	5	n/a	n/a	n/a	3	18	8	4	6
483.796	n/a	PROB	241898	n/a	LTP310	ltpFR2	5	n/a	n/a	n/a	3	20	7	5	8
485.316	n/a	PROB	242658	n/a	LTP310	ltpFR2	5	n/a	n/a	n/a	3	12	2	6	4
487.084	n/a	PROB	243542	n/a	LTP310	ltpFR2	5	n/a	n/a	n/a	3	20	3	9	8
488.668	n/a	PROB	244334	n/a	LTP310	ltpFR2	5	n/a	n/a	n/a	3	13	7	4	2
490.902	n/a	PROB	245451	n/a	LTP310	ltpFR2	5	n/a	n/a	n/a	3	12	2	1	9
492.82	n/a	PROB	246410	n/a	LTP310	ltpFR2	5	n/a	n/a	n/a	3	17	2	9	6
494.382	n/a	STOP	247191	n/a	LTP310	ltpFR2	5	n/a	n/a	n/a	3	n/a	n/a	n/a	n/a
496.006	n/a	WORD	248003	wordpools/wasnorm_wordpool_576.txt	LTP310	ltpFR2	5	2	LION	827	n/a	n/a	0	0	0
498.706	n/a	WORD	249353	wordpools/wasnorm_wordpool_576.txt	LTP310	ltpFR2	5	2	CANYON	235	n/a	n/a	0	0	0
501.246	n/a	WORD	250623	wordpools/wasnorm_wordpool_576.txt	LTP310	ltpFR2	5	2	JUGGLER	763	n/a	n/a	0	0	0
503.744	n/a	WORD	251872	wordpools/wasnorm_wordpool_576.txt	LTP310	ltpFR2	5	2	SCULPTURE	1258	n/a	n/a	0	0	0
506.532	n/a	WORD	253266	wordpools/wasnorm_wordpool_576.txt	LTP310	ltpFR2	5	2	LONDON	843	n/a	n/a	0	0	0
509.134	n/a	WORD	254567	wordpools/wasnorm_wordpool_576.txt	LTP310	ltpFR2	5	2	MARKER	870	n/a	n/a	0	0	0
511.7	n/a	WORD	255850	wordpools/wasnorm_wordpool_576.txt	LTP310	ltpFR2	5	2	LAVA	804	n/a	n/a	0	0	0
514.468	n/a	WORD	257234	wordpools/wasnorm_wordpool_576.txt	LTP310	ltpFR2	5	2	SURVEY	1414	n/a	n/a	0	0	0
517.09	n/a	WORD	258545	wordpools/wasnorm_wordpool_576.txt	LTP310	ltpFR2	5	2	CATTLE	261	n/a	n/a	0	0	0
519.774	n/a	WORD	259887	wordpools/wasnorm_wordpool_576.txt	LTP310	ltpFR2	5	2	FOOT	590	n/a	n/a	0	0	0
522.558	n/a	WORD	261279	wordpools/wasnorm_wordpool_576.txt	LTP310	ltpFR2	5	2	ANKLE	24	n/a	n/a	0	0	0
525.062	n/a	WORD	262531	wordpools/wasnorm_wordpool_576.txt	LTP310	ltpFR2	5	2	WHISTLE	1606	n/a	n/a	0	0	0
527.88	n/a	WORD	263940	wordpools/wasnorm_wordpool_576.txt	LTP310	ltpFR2	5	2	PORK	1108	n/a	n/a	0	0	0
530.348	n/a	WORD	265174	wordpools/wasnorm_wordpool_576.txt	LTP310	ltpFR2	5	2	SAUSAGE	1238	n/a	n/a	0	0	0
533.136	n/a	WORD	266568	wordpools/wasnorm_wordpool_576.txt	LTP310	ltpFR2	5	2	RAZOR	1171	n/a	n/a	0	0	0
535.654	n/a	WORD	267827	wordpools/wasnorm_wordpool_576.txt	LTP310	ltpFR2	5	2	SEAL	1262	n/a	n/a	0	0	0
538.44	n/a	WORD	269220	wordpools/wasnorm_wordpool_576.txt	LTP310	ltpFR2	5	2	SWIMMER	1420	n/a	n/a	0	0	0
541.06	n/a	WORD	270530	wordpools/wasnorm_wordpool_576.txt	LTP310	ltpFR2	5	2	FIREMAN	569	n/a	n/a	0	0	0
543.544	n/a	WORD	271772	wordpools/wasnorm_wordpool_576.txt	LTP310	ltpFR2	5	2	KITCHEN	778	n/a	n/a	0	0	0
546.098	n/a	WORD	273049	wordpools/wasnorm_wordpool_576.txt	LTP310	ltpFR2	5	2	ULCER	1533	n/a	n/a	0	0	0
548.666	n/a	WORD	274333	wordpools/wasnorm_wordpool_576.txt	LTP310	ltpFR2	5	2	PIGMENT	1066	n/a	n/a	0	0	0
551.252	n/a	WORD	275626	wordpools/wasnorm_wordpool_576.txt	LTP310	ltpFR2	5	2	WAGON	1578	n/a	n/a	0	0	0
553.768	n/a	WORD	276884	wordpools/wasnorm_wordpool_576.txt	LTP310	ltpFR2	5	2	OYSTER	995	n/a	n/a	0	0	0
556.586	n/a	WORD	278293	wordpools/wasnorm_wordpool_576.txt	LTP310	ltpFR2	5	2	KNIFE	785	n/a	n/a	0	0	0
558.208	n/a	START	279104	n/a	LTP310	ltpFR2	5	n/a	n/a	n/a	4	n/a	n/a	n/a	n/a
559.322	n/a	DISTRACTOR	279661	n/a	LTP310	ltpFR2	5	2	n/a	n/a	n/a	n/a	0	0	0
559.34	n/a	PROB	279670	n/a	LTP310	ltpFR2	5	n/a	n/a	n/a	4	14	2	8	4
561.04	n/a	PROB	280520	n/a	LTP310	ltpFR2	5	n/a	n/a	n/a	4	5	2	1	2
562.508	n/a	PROB	281254	n/a	LTP310	ltpFR2	5	n/a	n/a	n/a	4	14	4	5	5
564.41	n/a	PROB	282205	n/a	LTP310	ltpFR2	5	n/a	n/a	n/a	4	12	6	2	4
565.744	n/a	PROB	282872	n/a	LTP310	ltpFR2	5	n/a	n/a	n/a	4	16	8	3	5
567.662	n/a	PROB	283831	n/a	LTP310	ltpFR2	5	n/a	n/a	n/a	4	11	2	4	5
569.114	n/a	PROB	284557	n/a	LTP310	ltpFR2	5	n/a	n/a	n/a	4	14	1	8	5
570.58	n/a	PROB	285290	n/a	LTP310	ltpFR2	5	n/a	n/a	n/a	4	14	7	5	2
572.666	n/a	PROB	286333	n/a	LTP310	ltpFR2	5	n/a	n/a	n/a	4	10	4	5	1
574.118	n/a	PROB	287059	n/a	LTP310	ltpFR2	5	n/a	n/a	n/a	4	11	4	7	1
576.12	n/a	PROB	288060	n/a	LTP310	ltpFR2	5	n/a	n/a	n/a	4	16	2	6	8
577.57	n/a	PROB	288785	n/a	LTP310	ltpFR2	5	n/a	n/a	n/a	4	18	8	5	5
579.354	n/a	PROB	289677	n/a	LTP310	ltpFR2	5	n/a	n/a	n/a	4	22	5	8	9
581.032	n/a	STOP	290516	n/a	LTP310	ltpFR2	5	n/a	n/a	n/a	4	n/a	n/a	n/a	n/a
584.078	n/a	REC_START	292039	n/a	LTP310	ltpFR2	5	2	n/a	n/a	n/a	n/a	0	0	0
586.03	n/a	REC_WORD	293015	wordpools/wasnorm_wordpool_576.txt	LTP310	ltpFR2	5	2	LION	827	n/a	n/a	0	0	0
587.224	n/a	REC_WORD	293612	wordpools/wasnorm_wordpool_576.txt	LTP310	ltpFR2	5	2	CANYON	235	n/a	n/a	0	0	0
591.094	n/a	REC_WORD	295547	wordpools/wasnorm_wordpool_576.txt	LTP310	ltpFR2	5	2	OYSTER	995	n/a	n/a	0	0	0
592.278	n/a	REC_WORD	296139	wordpools/wasnorm_wordpool_576.txt	LTP310	ltpFR2	5	2	WAGON	1578	n/a	n/a	0	0	0
593.626	n/a	REC_WORD	296813	wordpools/wasnorm_wordpool_576.txt	LTP310	ltpFR2	5	2	KNIFE	785	n/a	n/a	0	0	0
595.23	n/a	REC_WORD	297615	wordpools/wasnorm_wordpool_576.txt	LTP310	ltpFR2	5	2	LAVA	804	n/a	n/a	0	0	0
596.488	n/a	REC_WORD	298244	wordpools/wasnorm_wordpool_576.txt	LTP310	ltpFR2	5	2	SURVEY	1414	n/a	n/a	0	0	0
597.906	n/a	REC_WORD	298953	wordpools/wasnorm_wordpool_576.txt	LTP310	ltpFR2	5	2	CATTLE	261	n/a	n/a	0	0	0
599.594	n/a	REC_WORD	299797	wordpools/wasnorm_wordpool_576.txt	LTP310	ltpFR2	5	2	ANKLE	24	n/a	n/a	0	0	0
600.748	n/a	REC_WORD	300374	wordpools/wasnorm_wordpool_576.txt	LTP310	ltpFR2	5	2	FOOT	590	n/a	n/a	0	0	0
603.878	n/a	REC_WORD	301939	wordpools/wasnorm_wordpool_576.txt	LTP310	ltpFR2	5	2	MARKER	870	n/a	n/a	0	0	0
608.458	n/a	REC_WORD	304229	wordpools/wasnorm_wordpool_576.txt	LTP310	ltpFR2	5	2	ULCER	1533	n/a	n/a	0	0	0
609.836	n/a	REC_WORD	304918	wordpools/wasnorm_wordpool_576.txt	LTP310	ltpFR2	5	2	PIGMENT	1066	n/a	n/a	0	0	0
674.512	n/a	WORD	337256	wordpools/wasnorm_wordpool_576.txt	LTP310	ltpFR2	5	3	NECKLACE	940	n/a	n/a	0	0	0
677.14	n/a	WORD	338570	wordpools/wasnorm_wordpool_576.txt	LTP310	ltpFR2	5	3	MEDAL	885	n/a	n/a	0	0	0
679.658	n/a	WORD	339829	wordpools/wasnorm_wordpool_576.txt	LTP310	ltpFR2	5	3	LABEL	790	n/a	n/a	0	0	0
682.212	n/a	WORD	341106	wordpools/wasnorm_wordpool_576.txt	LTP310	ltpFR2	5	3	FLIPPER	580	n/a	n/a	0	0	0
684.914	n/a	WORD	342457	wordpools/wasnorm_wordpool_576.txt	LTP310	ltpFR2	5	3	CAFE	216	n/a	n/a	0	0	0
687.332	n/a	WORD	343666	wordpools/wasnorm_wordpool_576.txt	LTP310	ltpFR2	5	3	MAILMAN	858	n/a	n/a	0	0	0
690.07	n/a	WORD	345035	wordpools/wasnorm_wordpool_576.txt	LTP310	ltpFR2	5	3	FRECKLE	602	n/a	n/a	0	0	0
692.878	n/a	WORD	346439	wordpools/wasnorm_wordpool_576.txt	LTP310	ltpFR2	5	3	RATTLE	1170	n/a	n/a	0	0	0
695.522	n/a	WORD	347761	wordpools/wasnorm_wordpool_576.txt	LTP310	ltpFR2	5	3	RABBIT	1152	n/a	n/a	0	0	0
698.316	n/a	WORD	349158	wordpools/wasnorm_wordpool_576.txt	LTP310	ltpFR2	5	3	SUMMIT	1405	n/a	n/a	0	0	0
700.976	n/a	WORD	350488	wordpools/wasnorm_wordpool_576.txt	LTP310	ltpFR2	5	3	MOTEL	919	n/a	n/a	0	0	0
703.48	n/a	WORD	351740	wordpools/wasnorm_wordpool_576.txt	LTP310	ltpFR2	5	3	DANDRUFF	439	n/a	n/a	0	0	0
706.004	n/a	WORD	353002	wordpools/wasnorm_wordpool_576.txt	LTP310	ltpFR2	5	3	CRATER	400	n/a	n/a	0	0	0
708.774	n/a	WORD	354387	wordpools/wasnorm_wordpool_576.txt	LTP310	ltpFR2	5	3	QUEEN	1149	n/a	n/a	0	0	0
711.292	n/a	WORD	355646	wordpools/wasnorm_wordpool_576.txt	LTP310	ltpFR2	5	3	CARROT	249	n/a	n/a	0	0	0
714.028	n/a	WORD	357014	wordpools/wasnorm_wordpool_576.txt	LTP310	ltpFR2	5	3	PRIMATE	1123	n/a	n/a	0	0	0
716.674	n/a	WORD	358337	wordpools/wasnorm_wordpool_576.txt	LTP310	ltpFR2	5	3	SANDWICH	1232	n/a	n/a	0	0	0
719.326	n/a	WORD	359663	wordpools/wasnorm_wordpool_576.txt	LTP310	ltpFR2	5	3	KETCHUP	771	n/a	n/a	0	0	0
721.844	n/a	WORD	360922	wordpools/wasnorm_wordpool_576.txt	LTP310	ltpFR2	5	3	REBEL	1172	n/a	n/a	0	0	0
724.548	n/a	WORD	362274	wordpools/wasnorm_wordpool_576.txt	LTP310	ltpFR2	5	3	HEADBAND	696	n/a	n/a	0	0	0
727.316	n/a	WORD	363658	wordpools/wasnorm_wordpool_576.txt	LTP310	ltpFR2	5	3	HOSTESS	723	n/a	n/a	0	0	0
729.756	n/a	WORD	364878	wordpools/wasnorm_wordpool_576.txt	LTP310	ltpFR2	5	3	GLOBE	641	n/a	n/a	0	0	0
732.338	n/a	WORD	366169	wordpools/wasnorm_wordpool_576.txt	LTP310	ltpFR2	5	3	CHEMIST	292	n/a	n/a	0	0	0
735.04	n/a	WORD	367520	wordpools/wasnorm_wordpool_576.txt	LTP310	ltpFR2	5	3	BEAKER	104	n/a	n/a	0	0	0
736.646	n/a	START	368323	n/a	LTP310	ltpFR2	5	n/a	n/a	n/a	5	n/a	n/a	n/a	n/a
737.778	n/a	DISTRACTOR	368889	n/a	LTP310	ltpFR2	5	3	n/a	n/a	n/a	n/a	0	0	0
737.792	n/a	PROB	368896	n/a	LTP310	ltpFR2	5	n/a	n/a	n/a	5	9	3	5	1
739.362	n/a	PROB	369681	n/a	LTP310	ltpFR2	5	n/a	n/a	n/a	5	10	5	1	4
742.178	n/a	PROB	371089	n/a	LTP310	ltpFR2	5	n/a	n/a	n/a	5	11	2	8	1
743.362	n/a	PROB	371681	n/a	LTP310	ltpFR2	5	n/a	n/a	n/a	5	24	9	7	8
745.432	n/a	PROB	372716	n/a	LTP310	ltpFR2	5	n/a	n/a	n/a	5	24	8	6	9
747.284	n/a	PROB	373642	n/a	LTP310	ltpFR2	5	n/a	n/a	n/a	5	13	7	3	3
748.718	n/a	PROB	374359	n/a	LTP310	ltpFR2	5	n/a	n/a	n/a	5	13	8	1	4
750.236	n/a	PROB	375118	n/a	LTP310	ltpFR2	5	n/a	n/a	n/a	5	15	5	3	7
751.722	n/a	PROB	375861	n/a	LTP310	ltpFR2	5	n/a	n/a	n/a	5	13	2	4	7
753.138	n/a	PROB	376569	n/a	LTP310	ltpFR2	5	n/a	n/a	n/a	5	10	2	5	3
754.708	n/a	PROB	377354	n/a	LTP310	ltpFR2	5	n/a	n/a	n/a	5	14	7	4	3
756.44	n/a	PROB	378220	n/a	LTP310	ltpFR2	5	n/a	n/a	n/a	5	12	1	3	8
758.41	n/a	PROB	379205	n/a	LTP310	ltpFR2	5	n/a	n/a	n/a	5	147	3	5	9
760.108	n/a	STOP	380054	n/a	LTP310	ltpFR2	5	n/a	n/a	n/a	5	n/a	n/a	n/a	n/a
762.58	n/a	REC_START	381290	n/a	LTP310	ltpFR2	5	3	n/a	n/a	n/a	n/a	0	0	0
765.244	n/a	REC_WORD	382622	wordpools/wasnorm_wordpool_576.txt	LTP310	ltpFR2	5	3	MAILMAN	858	n/a	n/a	0	0	0
766.18	n/a	REC_WORD	383090	wordpools/wasnorm_wordpool_576.txt	LTP310	ltpFR2	5	3	FRECKLE	602	n/a	n/a	0	0	0
767.824	n/a	REC_WORD	383912	wordpools/wasnorm_wordpool_576.txt	LTP310	ltpFR2	5	3	CAFE	216	n/a	n/a	0	0	0
769.502	n/a	REC_WORD	384751	wordpools/wasnorm_wordpool_576.txt	LTP310	ltpFR2	5	3	NECKLACE	940	n/a	n/a	0	0	0
770.75	n/a	REC_WORD	385375	wordpools/wasnorm_wordpool_576.txt	LTP310	ltpFR2	5	3	MEDAL	885	n/a	n/a	0	0	0
771.81	n/a	REC_WORD	385905	wordpools/wasnorm_wordpool_576.txt	LTP310	ltpFR2	5	3	FLIPPER	580	n/a	n/a	0	0	0
775.576	n/a	REC_WORD	387788	wordpools/wasnorm_wordpool_576.txt	LTP310	ltpFR2	5	3	RATTLE	1170	n/a	n/a	0	0	0
781.728	n/a	REC_WORD	390864	wordpools/wasnorm_wordpool_576.txt	LTP310	ltpFR2	5	3	RABBIT	1152	n/a	n/a	0	0	0
783.34	n/a	REC_WORD	391670	wordpools/wasnorm_wordpool_576.txt	LTP310	ltpFR2	5	3	CARROT	249	n/a	n/a	0	0	0
784.996	n/a	REC_WORD	392498	wordpools/wasnorm_wordpool_576.txt	LTP310	ltpFR2	5	3	SANDWICH	1232	n/a	n/a	0	0	0
785.996	n/a	REC_WORD_VV	392998	wordpools/wasnorm_wordpool_576.txt	LTP310	ltpFR2	5	3	<>	-1	n/a	n/a	0	0	0
786.45	n/a	REC_WORD	393225	wordpools/wasnorm_wordpool_576.txt	LTP310	ltpFR2	5	3	KETCHUP	771	n/a	n/a	0	0	0
789.572	n/a	REC_WORD	394786	wordpools/wasnorm_wordpool_576.txt	LTP310	ltpFR2	5	3	HOSTESS	723	n/a	n/a	0	0	0
790.572	n/a	REC_WORD_VV	395286	wordpools/wasnorm_wordpool_576.txt	LTP310	ltpFR2	5	3	<>	-1	n/a	n/a	0	0	0
790.698	n/a	REC_WORD	395349	wordpools/wasnorm_wordpool_576.txt	LTP310	ltpFR2	5	3	HEADBAND	696	n/a	n/a	0	0	0
792.236	n/a	REC_WORD	396118	wordpools/wasnorm_wordpool_576.txt	LTP310	ltpFR2	5	3	GLOBE	641	n/a	n/a	0	0	0
793.622	n/a	REC_WORD	396811	wordpools/wasnorm_wordpool_576.txt	LTP310	ltpFR2	5	3	CHEMIST	292	n/a	n/a	0	0	0
795.012	n/a	REC_WORD	397506	wordpools/wasnorm_wordpool_576.txt	LTP310	ltpFR2	5	3	BEAKER	104	n/a	n/a	0	0	0
797.288	n/a	REC_WORD	398644	wordpools/wasnorm_wordpool_576.txt	LTP310	ltpFR2	5	3	MOTEL	919	n/a	n/a	0	0	0
799.396	n/a	REC_WORD	399698	wordpools/wasnorm_wordpool_576.txt	LTP310	ltpFR2	5	3	SUMMIT	1405	n/a	n/a	0	0	0
801.408	n/a	REC_WORD	400704	wordpools/wasnorm_wordpool_576.txt	LTP310	ltpFR2	5	3	QUEEN	1149	n/a	n/a	0	0	0
803.09	n/a	REC_WORD	401545	wordpools/wasnorm_wordpool_576.txt	LTP310	ltpFR2	5	3	CRATER	400	n/a	n/a	0	0	0
805.692	n/a	REC_WORD	402846	wordpools/wasnorm_wordpool_576.txt	LTP310	ltpFR2	5	3	REBEL	1172	n/a	n/a	0	0	0
814.72	n/a	REC_WORD	407360	wordpools/wasnorm_wordpool_576.txt	LTP310	ltpFR2	5	3	LABEL	790	n/a	n/a	0	0	0
823.066	n/a	REC_WORD	411533	wordpools/wasnorm_wordpool_576.txt	LTP310	ltpFR2	5	3	MEDAL	885	n/a	n/a	0	0	0
853.018	n/a	WORD	426509	wordpools/wasnorm_wordpool_576.txt	LTP310	ltpFR2	5	4	CABIN	211	n/a	n/a	0	0	0
855.458	n/a	WORD	427729	wordpools/wasnorm_wordpool_576.txt	LTP310	ltpFR2	5	4	THREAD	1460	n/a	n/a	0	0	0
858.006	n/a	WORD	429003	wordpools/wasnorm_wordpool_576.txt	LTP310	ltpFR2	5	4	PASTA	1021	n/a	n/a	0	0	0
860.608	n/a	WORD	430304	wordpools/wasnorm_wordpool_576.txt	LTP310	ltpFR2	5	4	PALACE	1006	n/a	n/a	0	0	0
863.216	n/a	WORD	431608	wordpools/wasnorm_wordpool_576.txt	LTP310	ltpFR2	5	4	CLAM	315	n/a	n/a	0	0	0
865.75	n/a	WORD	432875	wordpools/wasnorm_wordpool_576.txt	LTP310	ltpFR2	5	4	BATHTUB	100	n/a	n/a	0	0	0
868.552	n/a	WORD	434276	wordpools/wasnorm_wordpool_576.txt	LTP310	ltpFR2	5	4	DRINK	498	n/a	n/a	0	0	0
871.156	n/a	WORD	435578	wordpools/wasnorm_wordpool_576.txt	LTP310	ltpFR2	5	4	PECAN	1036	n/a	n/a	0	0	0
873.792	n/a	WORD	436896	wordpools/wasnorm_wordpool_576.txt	LTP310	ltpFR2	5	4	HOUND	724	n/a	n/a	0	0	0
876.278	n/a	WORD	438139	wordpools/wasnorm_wordpool_576.txt	LTP310	ltpFR2	5	4	CATCHER	258	n/a	n/a	0	0	0
878.84	n/a	WORD	439420	wordpools/wasnorm_wordpool_576.txt	LTP310	ltpFR2	5	4	SHORTS	1293	n/a	n/a	0	0	0
881.312	n/a	WORD	440656	wordpools/wasnorm_wordpool_576.txt	LTP310	ltpFR2	5	4	TUTU	1524	n/a	n/a	0	0	0
884.134	n/a	WORD	442067	wordpools/wasnorm_wordpool_576.txt	LTP310	ltpFR2	5	4	PLAZA	1088	n/a	n/a	0	0	0
886.76	n/a	WORD	443380	wordpools/wasnorm_wordpool_576.txt	LTP310	ltpFR2	5	4	MARKET	871	n/a	n/a	0	0	0
889.464	n/a	WORD	444732	wordpools/wasnorm_wordpool_576.txt	LTP310	ltpFR2	5	4	RACKET	1155	n/a	n/a	0	0	0
891.898	n/a	WORD	445949	wordpools/wasnorm_wordpool_576.txt	LTP310	ltpFR2	5	4	BRICK	172	n/a	n/a	0	0	0
894.476	n/a	WORD	447238	wordpools/wasnorm_wordpool_576.txt	LTP310	ltpFR2	5	4	WARDROBE	1587	n/a	n/a	0	0	0
897.07	n/a	WORD	448535	wordpools/wasnorm_wordpool_576.txt	LTP310	ltpFR2	5	4	LAKE	796	n/a	n/a	0	0	0
899.856	n/a	WORD	449928	wordpools/wasnorm_wordpool_576.txt	LTP310	ltpFR2	5	4	PADDING	999	n/a	n/a	0	0	0
902.274	n/a	WORD	451137	wordpools/wasnorm_wordpool_576.txt	LTP310	ltpFR2	5	4	SPOUSE	1358	n/a	n/a	0	0	0
904.692	n/a	WORD	452346	wordpools/wasnorm_wordpool_576.txt	LTP310	ltpFR2	5	4	DANCER	437	n/a	n/a	0	0	0
907.162	n/a	WORD	453581	wordpools/wasnorm_wordpool_576.txt	LTP310	ltpFR2	5	4	ATOM	55	n/a	n/a	0	0	0
909.964	n/a	WORD	454982	wordpools/wasnorm_wordpool_576.txt	LTP310	ltpFR2	5	4	HONEY	713	n/a	n/a	0	0	0
912.49	n/a	WORD	456245	wordpools/wasnorm_wordpool_576.txt	LTP310	ltpFR2	5	4	SOFTBALL	1343	n/a	n/a	0	0	0
914.102	n/a	START	457051	n/a	LTP310	ltpFR2	5	n/a	n/a	n/a	6	n/a	n/a	n/a	n/a
915.148	n/a	DISTRACTOR	457574	n/a	LTP310	ltpFR2	5	4	n/a	n/a	n/a	n/a	0	0	0
915.152	n/a	PROB	457576	n/a	LTP310	ltpFR2	5	n/a	n/a	n/a	6	13	9	2	2
917.002	n/a	PROB	458501	n/a	LTP310	ltpFR2	5	n/a	n/a	n/a	6	9	2	3	4
918.37	n/a	PROB	459185	n/a	LTP310	ltpFR2	5	n/a	n/a	n/a	6	15	3	5	7
919.854	n/a	PROB	459927	n/a	LTP310	ltpFR2	5	n/a	n/a	n/a	6	13	1	3	9
921.156	n/a	PROB	460578	n/a	LTP310	ltpFR2	5	n/a	n/a	n/a	6	9	3	2	3
922.556	n/a	PROB	461278	n/a	LTP310	ltpFR2	5	n/a	n/a	n/a	6	23	7	7	9
924.674	n/a	PROB	462337	n/a	LTP310	ltpFR2	5	n/a	n/a	n/a	6	14	6	5	3
926.158	n/a	PROB	463079	n/a	LTP310	ltpFR2	5	n/a	n/a	n/a	6	21	7	4	9
927.994	n/a	PROB	463997	n/a	LTP310	ltpFR2	5	n/a	n/a	n/a	6	23	9	5	9
930.878	n/a	PROB	465439	n/a	LTP310	ltpFR2	5	n/a	n/a	n/a	6	22	7	8	7
932.63	n/a	PROB	466315	n/a	LTP310	ltpFR2	5	n/a	n/a	n/a	6	20	8	6	6
934.732	n/a	PROB	467366	n/a	LTP310	ltpFR2	5	n/a	n/a	n/a	6	21	7	5	9
938.1	n/a	STOP	469050	n/a	LTP310	ltpFR2	5	n/a	n/a	n/a	6	n/a	n/a	n/a	n/a
940.02	n/a	REC_START	470010	n/a	LTP310	ltpFR2	5	4	n/a	n/a	n/a	n/a	0	0	0
942.502	n/a	REC_WORD	471251	wordpools/wasnorm_wordpool_576.txt	LTP310	ltpFR2	5	4	CABIN	211	n/a	n/a	0	0	0
944.084	n/a	REC_WORD	472042	wordpools/wasnorm_wordpool_576.txt	LTP310	ltpFR2	5	4	PALACE	1006	n/a	n/a	0	0	0
946.408	n/a	REC_WORD	473204	wordpools/wasnorm_wordpool_576.txt	LTP310	ltpFR2	5	4	BATHTUB	100	n/a	n/a	0	0	0
947.88	n/a	REC_WORD	473940	wordpools/wasnorm_wordpool_576.txt	LTP310	ltpFR2	5	4	CLAM	315	n/a	n/a	0	0	0
949.398	n/a	REC_WORD	474699	wordpools/wasnorm_wordpool_576.txt	LTP310	ltpFR2	5	4	HOUND	724	n/a	n/a	0	0	0
951.72	n/a	REC_WORD	475860	wordpools/wasnorm_wordpool_576.txt	LTP310	ltpFR2	5	4	PECAN	1036	n/a	n/a	0	0	0
953.202	n/a	REC_WORD	476601	wordpools/wasnorm_wordpool_576.txt	LTP310	ltpFR2	5	4	CATCHER	258	n/a	n/a	0	0	0
954.558	n/a	REC_WORD	477279	wordpools/wasnorm_wordpool_576.txt	LTP310	ltpFR2	5	4	SHORTS	1293	n/a	n/a	0	0	0
956.2	n/a	REC_WORD	478100	wordpools/wasnorm_wordpool_576.txt	LTP310	ltpFR2	5	4	TUTU	1524	n/a	n/a	0	0	0
958.32	n/a	REC_WORD	479160	wordpools/wasnorm_wordpool_576.txt	LTP310	ltpFR2	5	4	PLAZA	1088	n/a	n/a	0	0	0
960.006	n/a	REC_WORD	480003	wordpools/wasnorm_wordpool_576.txt	LTP310	ltpFR2	5	4	MARKET	871	n/a	n/a	0	0	0
962.03	n/a	REC_WORD	481015	wordpools/wasnorm_wordpool_576.txt	LTP310	ltpFR2	5	4	RACKET	1155	n/a	n/a	0	0	0
964.67	n/a	REC_WORD	482335	wordpools/wasnorm_wordpool_576.txt	LTP310	ltpFR2	5	4	SOFTBALL	1343	n/a	n/a	0	0	0
967.008	n/a	REC_WORD	483504	wordpools/wasnorm_wordpool_576.txt	LTP310	ltpFR2	5	4	LAKE	796	n/a	n/a	0	0	0
969.716	n/a	REC_WORD	484858	wordpools/wasnorm_wordpool_576.txt	LTP310	ltpFR2	5	4	SPOUSE	1358	n/a	n/a	0	0	0
971.26	n/a	REC_WORD	485630	wordpools/wasnorm_wordpool_576.txt	LTP310	ltpFR2	5	4	PADDING	999	n/a	n/a	0	0	0
973.086	n/a	REC_WORD	486543	wordpools/wasnorm_wordpool_576.txt	LTP310	ltpFR2	5	4	DANCER	437	n/a	n/a	0	0	0
974.388	n/a	REC_WORD	487194	wordpools/wasnorm_wordpool_576.txt	LTP310	ltpFR2	5	4	ATOM	55	n/a	n/a	0	0	0
975.668	n/a	REC_WORD	487834	wordpools/wasnorm_wordpool_576.txt	LTP310	ltpFR2	5	4	HONEY	713	n/a	n/a	0	0	0
987.552	n/a	REC_WORD	493776	wordpools/wasnorm_wordpool_576.txt	LTP310	ltpFR2	5	4	THREAD	1460	n/a	n/a	0	0	0
988.982	n/a	REC_WORD	494491	wordpools/wasnorm_wordpool_576.txt	LTP310	ltpFR2	5	4	PASTA	1021	n/a	n/a	0	0	0
1002.008	n/a	REC_WORD	501004	wordpools/wasnorm_wordpool_576.txt	LTP310	ltpFR2	5	4	LAKE	796	n/a	n/a	0	0	0
1030.474	n/a	DISTRACTOR	515237	n/a	LTP310	ltpFR2	5	5	n/a	n/a	n/a	n/a	0	0	0
1030.474	n/a	START	515237	n/a	LTP310	ltpFR2	5	n/a	n/a	n/a	7	n/a	n/a	n/a	n/a
1030.49	n/a	PROB	515245	n/a	LTP310	ltpFR2	5	n/a	n/a	n/a	7	21	8	4	9
1032.674	n/a	PROB	516337	n/a	LTP310	ltpFR2	5	n/a	n/a	n/a	7	14	5	2	7
1034.06	n/a	PROB	517030	n/a	LTP310	ltpFR2	5	n/a	n/a	n/a	7	21	5	7	9
1035.51	n/a	PROB	517755	n/a	LTP310	ltpFR2	5	n/a	n/a	n/a	7	18	9	8	1
1036.862	n/a	PROB	518431	n/a	LTP310	ltpFR2	5	n/a	n/a	n/a	7	18	5	8	5
1038.43	n/a	PROB	519215	n/a	LTP310	ltpFR2	5	n/a	n/a	n/a	7	18	7	6	5
1040.014	n/a	PROB	520007	n/a	LTP310	ltpFR2	5	n/a	n/a	n/a	7	18	9	4	5
1041.782	n/a	PROB	520891	n/a	LTP310	ltpFR2	5	n/a	n/a	n/a	7	10	4	3	3
1043.384	n/a	PROB	521692	n/a	LTP310	ltpFR2	5	n/a	n/a	n/a	7	20	2	4	9
1044.884	n/a	PROB	522442	n/a	LTP310	ltpFR2	5	n/a	n/a	n/a	7	12	2	8	2
1046.168	n/a	PROB	523084	n/a	LTP310	ltpFR2	5	n/a	n/a	n/a	7	27	9	9	9
1048.536	n/a	PROB	524268	n/a	LTP310	ltpFR2	5	n/a	n/a	n/a	7	18	8	7	3
1050.922	n/a	PROB	525461	n/a	LTP310	ltpFR2	5	n/a	n/a	n/a	7	11	4	4	3
1053.008	n/a	STOP	526504	n/a	LTP310	ltpFR2	5	n/a	n/a	n/a	7	n/a	n/a	n/a	n/a
1055.444	n/a	WORD	527722	wordpools/wasnorm_wordpool_576.txt	LTP310	ltpFR2	5	5	STONE	1385	n/a	n/a	0	0	0
1057.928	n/a	WORD	528964	wordpools/wasnorm_wordpool_576.txt	LTP310	ltpFR2	5	5	KNAPSACK	783	n/a	n/a	0	0	0
1060.38	n/a	WORD	530190	wordpools/wasnorm_wordpool_576.txt	LTP310	ltpFR2	5	5	GHETTO	633	n/a	n/a	0	0	0
1063.118	n/a	WORD	531559	wordpools/wasnorm_wordpool_576.txt	LTP310	ltpFR2	5	5	TUBA	1515	n/a	n/a	0	0	0
1065.884	n/a	WORD	532942	wordpools/wasnorm_wordpool_576.txt	LTP310	ltpFR2	5	5	GRAVE	658	n/a	n/a	0	0	0
1068.686	n/a	WORD	534343	wordpools/wasnorm_wordpool_576.txt	LTP310	ltpFR2	5	5	THIEF	1456	n/a	n/a	0	0	0
1071.156	n/a	WORD	535578	wordpools/wasnorm_wordpool_576.txt	LTP310	ltpFR2	5	5	TUNNEL	1519	n/a	n/a	0	0	0
1073.624	n/a	WORD	536812	wordpools/wasnorm_wordpool_576.txt	LTP310	ltpFR2	5	5	EMPIRE	530	n/a	n/a	0	0	0
1076.31	n/a	WORD	538155	wordpools/wasnorm_wordpool_576.txt	LTP310	ltpFR2	5	5	PEBBLE	1035	n/a	n/a	0	0	0
1078.766	n/a	WORD	539383	wordpools/wasnorm_wordpool_576.txt	LTP310	ltpFR2	5	5	UNCLE	1536	n/a	n/a	0	0	0
1081.468	n/a	WORD	540734	wordpools/wasnorm_wordpool_576.txt	LTP310	ltpFR2	5	5	DAISY	435	n/a	n/a	0	0	0
1083.966	n/a	WORD	541983	wordpools/wasnorm_wordpool_576.txt	LTP310	ltpFR2	5	5	SCOTCH	1251	n/a	n/a	0	0	0
1086.668	n/a	WORD	543334	wordpools/wasnorm_wordpool_576.txt	LTP310	ltpFR2	5	5	FLASK	576	n/a	n/a	0	0	0
1089.254	n/a	WORD	544627	wordpools/wasnorm_wordpool_576.txt	LTP310	ltpFR2	5	5	TRENCH	1503	n/a	n/a	0	0	0
1091.922	n/a	WORD	545961	wordpools/wasnorm_wordpool_576.txt	LTP310	ltpFR2	5	5	WIDOW	1608	n/a	n/a	0	0	0
1094.424	n/a	WORD	547212	wordpools/wasnorm_wordpool_576.txt	LTP310	ltpFR2	5	5	JOURNAL	760	n/a	n/a	0	0	0
1096.892	n/a	WORD	548446	wordpools/wasnorm_wordpool_576.txt	LTP310	ltpFR2	5	5	STOVE	1388	n/a	n/a	0	0	0
1099.41	n/a	WORD	549705	wordpools/wasnorm_wordpool_576.txt	LTP310	ltpFR2	5	5	PUPIL	1143	n/a	n/a	0	0	0
1101.98	n/a	WORD	550990	wordpools/wasnorm_wordpool_576.txt	LTP310	ltpFR2	5	5	TEACHER	1440	n/a	n/a	0	0	0
1104.432	n/a	WORD	552216	wordpools/wasnorm_wordpool_576.txt	LTP310	ltpFR2	5	5	POPCORN	1104	n/a	n/a	0	0	0
1107.122	n/a	WORD	553561	wordpools/wasnorm_wordpool_576.txt	LTP310	ltpFR2	5	5	BUNNY	198	n/a	n/a	0	0	0
1109.82	n/a	WORD	554910	wordpools/wasnorm_wordpool_576.txt	LTP310	ltpFR2	5	5	YOLK	1633	n/a	n/a	0	0	0
1112.338	n/a	WORD	556169	wordpools/wasnorm_wordpool_576.txt	LTP310	ltpFR2	5	5	CLAMP	316	n/a	n/a	0	0	0
1115.04	n/a	WORD	557520	wordpools/wasnorm_wordpool_576.txt	LTP310	ltpFR2	5	5	SHIRT	1287	n/a	n/a	0	0	0
1116.648	n/a	START	558324	n/a	LTP310	ltpFR2	5	n/a	n/a	n/a	8	n/a	n/a	n/a	n/a
1117.54	n/a	DISTRACTOR	558770	n/a	LTP310	ltpFR2	5	5	n/a	n/a	n/a	n/a	0	0	0
1117.548	n/a	PROB	558774	n/a	LTP310	ltpFR2	5	n/a	n/a	n/a	8	18	7	8	3
1119.26	n/a	PROB	559630	n/a	LTP310	ltpFR2	5	n/a	n/a	n/a	8	10	7	1	2
1120.944	n/a	PROB	560472	n/a	LTP310	ltpFR2	5	n/a	n/a	n/a	8	12	3	5	4
1122.396	n/a	PROB	561198	n/a	LTP310	ltpFR2	5	n/a	n/a	n/a	8	15	6	2	7
1124.198	n/a	PROB	562099	n/a	LTP310	ltpFR2	5	n/a	n/a	n/a	8	15	6	4	5
1125.414	n/a	PROB	562707	n/a	LTP310	ltpFR2	5	n/a	n/a	n/a	8	14	2	5	7
1126.782	n/a	PROB	563391	n/a	LTP310	ltpFR2	5	n/a	n/a	n/a	8	14	4	7	3
1128.364	n/a	PROB	564182	n/a	LTP310	ltpFR2	5	n/a	n/a	n/a	8	9	4	2	3
1130.134	n/a	PROB	565067	n/a	LTP310	ltpFR2	5	n/a	n/a	n/a	8	11	1	5	5
1131.72	n/a	PROB	565860	n/a	LTP310	ltpFR2	5	n/a	n/a	n/a	8	14	9	2	3
1133.47	n/a	PROB	566735	n/a	LTP310	ltpFR2	5	n/a	n/a	n/a	8	17	7	8	2
1135.488	n/a	PROB	567744	n/a	LTP310	ltpFR2	5	n/a	n/a	n/a	8	6	2	1	3
1137.322	n/a	PROB	568661	n/a	LTP310	ltpFR2	5	n/a	n/a	n/a	8	19	7	5	7
1139.146	n/a	STOP	569573	n/a	LTP310	ltpFR2	5	n/a	n/a	n/a	8	n/a	n/a	n/a	n/a
1142.394	n/a	REC_START	571197	n/a	LTP310	ltpFR2	5	5	n/a	n/a	n/a	n/a	0	0	0
1151.464	n/a	REC_WORD	575732	wordpools/wasnorm_wordpool_576.txt	LTP310	ltpFR2	5	5	GHETTO	633	n/a	n/a	0	0	0
1152.656	n/a	REC_WORD	576328	wordpools/wasnorm_wordpool_576.txt	LTP310	ltpFR2	5	5	KNAPSACK	783	n/a	n/a	0	0	0
1153.904	n/a	REC_WORD	576952	wordpools/wasnorm_wordpool_576.txt	LTP310	ltpFR2	5	5	STONE	1385	n/a	n/a	0	0	0
1155.736	n/a	REC_WORD	577868	wordpools/wasnorm_wordpool_576.txt	LTP310	ltpFR2	5	5	GRAVE	658	n/a	n/a	0	0	0
1156.996	n/a	REC_WORD	578498	wordpools/wasnorm_wordpool_576.txt	LTP310	ltpFR2	5	5	TUBA	1515	n/a	n/a	0	0	0
1158.672	n/a	REC_WORD	579336	wordpools/wasnorm_wordpool_576.txt	LTP310	ltpFR2	5	5	THIEF	1456	n/a	n/a	0	0	0
1160.134	n/a	REC_WORD	580067	wordpools/wasnorm_wordpool_576.txt	LTP310	ltpFR2	5	5	TUNNEL	1519	n/a	n/a	0	0	0
1161.624	n/a	REC_WORD	580812	wordpools/wasnorm_wordpool_576.txt	LTP310	ltpFR2	5	5	PEBBLE	1035	n/a	n/a	0	0	0
1163.198	n/a	REC_WORD	581599	wordpools/wasnorm_wordpool_576.txt	LTP310	ltpFR2	5	5	EMPIRE	530	n/a	n/a	0	0	0
1166.498	n/a	REC_WORD	583249	wordpools/wasnorm_wordpool_576.txt	LTP310	ltpFR2	5	5	UNCLE	1536	n/a	n/a	0	0	0
1167.624	n/a	REC_WORD	583812	wordpools/wasnorm_wordpool_576.txt	LTP310	ltpFR2	5	5	DAISY	435	n/a	n/a	0	0	0
1169.046	n/a	REC_WORD	584523	wordpools/wasnorm_wordpool_576.txt	LTP310	ltpFR2	5	5	TRENCH	1503	n/a	n/a	0	0	0
1171.62	n/a	REC_WORD	585810	wordpools/wasnorm_wordpool_576.txt	LTP310	ltpFR2	5	5	WIDOW	1608	n/a	n/a	0	0	0
1180.008	n/a	REC_WORD	590004	wordpools/wasnorm_wordpool_576.txt	LTP310	ltpFR2	5	5	PUPIL	1143	n/a	n/a	0	0	0
1181.402	n/a	REC_WORD	590701	wordpools/wasnorm_wordpool_576.txt	LTP310	ltpFR2	5	5	TEACHER	1440	n/a	n/a	0	0	0
1184.246	n/a	REC_WORD	592123	wordpools/wasnorm_wordpool_576.txt	LTP310	ltpFR2	5	5	BUNNY	198	n/a	n/a	0	0	0
1185.432	n/a	REC_WORD	592716	wordpools/wasnorm_wordpool_576.txt	LTP310	ltpFR2	5	5	POPCORN	1104	n/a	n/a	0	0	0
1186.826	n/a	REC_WORD	593413	wordpools/wasnorm_wordpool_576.txt	LTP310	ltpFR2	5	5	JOURNAL	760	n/a	n/a	0	0	0
1187.966	n/a	REC_WORD	593983	wordpools/wasnorm_wordpool_576.txt	LTP310	ltpFR2	5	5	SCOTCH	1251	n/a	n/a	0	0	0
1189.408	n/a	REC_WORD	594704	wordpools/wasnorm_wordpool_576.txt	LTP310	ltpFR2	5	5	FLASK	576	n/a	n/a	0	0	0
1191.576	n/a	REC_WORD	595788	wordpools/wasnorm_wordpool_576.txt	LTP310	ltpFR2	5	5	STOVE	1388	n/a	n/a	0	0	0
1194.808	n/a	REC_WORD	597404	wordpools/wasnorm_wordpool_576.txt	LTP310	ltpFR2	5	5	CLAMP	316	n/a	n/a	0	0	0
1200.278	n/a	REC_WORD	600139	wordpools/wasnorm_wordpool_576.txt	LTP310	ltpFR2	5	5	YOLK	1633	n/a	n/a	0	0	0
1232.832	n/a	DISTRACTOR	616416	n/a	LTP310	ltpFR2	5	6	n/a	n/a	n/a	n/a	0	0	0
1232.832	n/a	START	616416	n/a	LTP310	ltpFR2	5	n/a	n/a	n/a	9	n/a	n/a	n/a	n/a
1232.848	n/a	PROB	616424	n/a	LTP310	ltpFR2	5	n/a	n/a	n/a	9	20	8	6	6
1234.962	n/a	PROB	617481	n/a	LTP310	ltpFR2	5	n/a	n/a	n/a	9	17	6	7	4
1236.668	n/a	PROB	618334	n/a	LTP310	ltpFR2	5	n/a	n/a	n/a	9	21	3	8	9
1238.468	n/a	PROB	619234	n/a	LTP310	ltpFR2	5	n/a	n/a	n/a	9	16	7	8	1
1240.636	n/a	PROB	620318	n/a	LTP310	ltpFR2	5	n/a	n/a	n/a	9	20	6	8	6
1242.686	n/a	PROB	621343	n/a	LTP310	ltpFR2	5	n/a	n/a	n/a	9	7	1	5	1
1244.356	n/a	PROB	622178	n/a	LTP310	ltpFR2	5	n/a	n/a	n/a	9	19	9	3	7
1245.906	n/a	PROB	622953	n/a	LTP310	ltpFR2	5	n/a	n/a	n/a	9	18	4	5	9
1247.46	n/a	PROB	623730	n/a	LTP310	ltpFR2	5	n/a	n/a	n/a	9	12	3	4	5
1249.628	n/a	PROB	624814	n/a	LTP310	ltpFR2	5	n/a	n/a	n/a	9	16	5	9	2
1251.794	n/a	PROB	625897	n/a	LTP310	ltpFR2	5	n/a	n/a	n/a	9	17	9	3	5
1253.664	n/a	PROB	626832	n/a	LTP310	ltpFR2	5	n/a	n/a	n/a	9	19	2	8	9
1256.832	n/a	STOP	628416	n/a	LTP310	ltpFR2	5	n/a	n/a	n/a	9	n/a	n/a	n/a	n/a
1257.934	n/a	WORD	628967	wordpools/wasnorm_wordpool_576.txt	LTP310	ltpFR2	5	6	NURSE	963	n/a	n/a	0	0	0
1260.736	n/a	WORD	630368	wordpools/wasnorm_wordpool_576.txt	LTP310	ltpFR2	5	6	GARDEN	623	n/a	n/a	0	0	0
1263.572	n/a	WORD	631786	wordpools/wasnorm_wordpool_576.txt	LTP310	ltpFR2	5	6	SHELF	1280	n/a	n/a	0	0	0
1266.374	n/a	WORD	633187	wordpools/wasnorm_wordpool_576.txt	LTP310	ltpFR2	5	6	LOFT	840	n/a	n/a	0	0	0
1268.96	n/a	WORD	634480	wordpools/wasnorm_wordpool_576.txt	LTP310	ltpFR2	5	6	GLOVE	642	n/a	n/a	0	0	0
1271.512	n/a	WORD	635756	wordpools/wasnorm_wordpool_576.txt	LTP310	ltpFR2	5	6	SISTER	1312	n/a	n/a	0	0	0
1274.298	n/a	WORD	637149	wordpools/wasnorm_wordpool_576.txt	LTP310	ltpFR2	5	6	FRIEND	606	n/a	n/a	0	0	0
1277.118	n/a	WORD	638559	wordpools/wasnorm_wordpool_576.txt	LTP310	ltpFR2	5	6	LIPSTICK	829	n/a	n/a	0	0	0
1279.868	n/a	WORD	639934	wordpools/wasnorm_wordpool_576.txt	LTP310	ltpFR2	5	6	POWDER	1117	n/a	n/a	0	0	0
1282.588	n/a	WORD	641294	wordpools/wasnorm_wordpool_576.txt	LTP310	ltpFR2	5	6	STAR	1373	n/a	n/a	0	0	0
1285.39	n/a	WORD	642695	wordpools/wasnorm_wordpool_576.txt	LTP310	ltpFR2	5	6	CRICKET	408	n/a	n/a	0	0	0
1288.06	n/a	WORD	644030	wordpools/wasnorm_wordpool_576.txt	LTP310	ltpFR2	5	6	GYMNAST	675	n/a	n/a	0	0	0
1290.678	n/a	WORD	645339	wordpools/wasnorm_wordpool_576.txt	LTP310	ltpFR2	5	6	FLOWER	584	n/a	n/a	0	0	0
1293.246	n/a	WORD	646623	wordpools/wasnorm_wordpool_576.txt	LTP310	ltpFR2	5	6	COLONEL	348	n/a	n/a	0	0	0
1295.832	n/a	WORD	647916	wordpools/wasnorm_wordpool_576.txt	LTP310	ltpFR2	5	6	FRANCE	601	n/a	n/a	0	0	0
1298.298	n/a	WORD	649149	wordpools/wasnorm_wordpool_576.txt	LTP310	ltpFR2	5	6	PIANO	1057	n/a	n/a	0	0	0
1300.984	n/a	WORD	650492	wordpools/wasnorm_wordpool_576.txt	LTP310	ltpFR2	5	6	GUITAR	670	n/a	n/a	0	0	0
1303.754	n/a	WORD	651877	wordpools/wasnorm_wordpool_576.txt	LTP310	ltpFR2	5	6	ARMY	39	n/a	n/a	0	0	0
1306.492	n/a	WORD	653246	wordpools/wasnorm_wordpool_576.txt	LTP310	ltpFR2	5	6	AGENT	10	n/a	n/a	0	0	0
1309.21	n/a	WORD	654605	wordpools/wasnorm_wordpool_576.txt	LTP310	ltpFR2	5	6	FIDDLE	561	n/a	n/a	0	0	0
1311.81	n/a	WORD	655905	wordpools/wasnorm_wordpool_576.txt	LTP310	ltpFR2	5	6	WRIST	1626	n/a	n/a	0	0	0
1314.446	n/a	WORD	657223	wordpools/wasnorm_wordpool_576.txt	LTP310	ltpFR2	5	6	ELBOW	520	n/a	n/a	0	0	0
1317.068	n/a	WORD	658534	wordpools/wasnorm_wordpool_576.txt	LTP310	ltpFR2	5	6	DRIVER	499	n/a	n/a	0	0	0
1319.666	n/a	WORD	659833	wordpools/wasnorm_wordpool_576.txt	LTP310	ltpFR2	5	6	TRACTOR	1493	n/a	n/a	0	0	0
1321.272	n/a	START	660636	n/a	LTP310	ltpFR2	5	n/a	n/a	n/a	10	n/a	n/a	n/a	n/a
1322.416	n/a	DISTRACTOR	661208	n/a	LTP310	ltpFR2	5	6	n/a	n/a	n/a	n/a	0	0	0
1322.422	n/a	PROB	661211	n/a	LTP310	ltpFR2	5	n/a	n/a	n/a	10	11	3	6	2
1325.254	n/a	PROB	662627	n/a	LTP310	ltpFR2	5	n/a	n/a	n/a	10	10	1	2	7
1326.704	n/a	PROB	663352	n/a	LTP310	ltpFR2	5	n/a	n/a	n/a	10	19	8	8	3
1328.156	n/a	PROB	664078	n/a	LTP310	ltpFR2	5	n/a	n/a	n/a	10	10	3	1	6
1329.656	n/a	PROB	664828	n/a	LTP310	ltpFR2	5	n/a	n/a	n/a	10	11	2	3	6
1331.608	n/a	PROB	665804	n/a	LTP310	ltpFR2	5	n/a	n/a	n/a	10	15	5	8	2
1333.326	n/a	PROB	666663	n/a	LTP310	ltpFR2	5	n/a	n/a	n/a	10	16	9	1	6
1334.926	n/a	PROB	667463	n/a	LTP310	ltpFR2	5	n/a	n/a	n/a	10	16	1	8	7
1337.13	n/a	PROB	668565	n/a	LTP310	ltpFR2	5	n/a	n/a	n/a	10	8	1	3	4
1339.448	n/a	PROB	669724	n/a	LTP310	ltpFR2	5	n/a	n/a	n/a	10	13	1	7	5
1341.182	n/a	PROB	670591	n/a	LTP310	ltpFR2	5	n/a	n/a	n/a	10	24	8	7	9
1342.966	n/a	PROB	671483	n/a	LTP310	ltpFR2	5	n/a	n/a	n/a	10	17	7	2	8
1344.7	n/a	STOP	672350	n/a	LTP310	ltpFR2	5	n/a	n/a	n/a	10	n/a	n/a	n/a	n/a
1347.088	n/a	REC_START	673544	n/a	LTP310	ltpFR2	5	6	n/a	n/a	n/a	n/a	0	0	0
1350.192	n/a	REC_WORD	675096	wordpools/wasnorm_wordpool_576.txt	LTP310	ltpFR2	5	6	NURSE	963	n/a	n/a	0	0	0
1351.224	n/a	REC_WORD	675612	wordpools/wasnorm_wordpool_576.txt	LTP310	ltpFR2	5	6	GARDEN	623	n/a	n/a	0	0	0
1352.396	n/a	REC_WORD	676198	wordpools/wasnorm_wordpool_576.txt	LTP310	ltpFR2	5	6	LOFT	840	n/a	n/a	0	0	0
1353.408	n/a	REC_WORD	676704	wordpools/wasnorm_wordpool_576.txt	LTP310	ltpFR2	5	6	SHELF	1280	n/a	n/a	0	0	0
1355.56	n/a	REC_WORD	677780	wordpools/wasnorm_wordpool_576.txt	LTP310	ltpFR2	5	6	SISTER	1312	n/a	n/a	0	0	0
1356.808	n/a	REC_WORD	678404	wordpools/wasnorm_wordpool_576.txt	LTP310	ltpFR2	5	6	FRIEND	606	n/a	n/a	0	0	0
1358.124	n/a	REC_WORD	679062	wordpools/wasnorm_wordpool_576.txt	LTP310	ltpFR2	5	6	LIPSTICK	829	n/a	n/a	0	0	0
1359.22	n/a	REC_WORD	679610	wordpools/wasnorm_wordpool_576.txt	LTP310	ltpFR2	5	6	POWDER	1117	n/a	n/a	0	0	0
1360.418	n/a	REC_WORD	680209	wordpools/wasnorm_wordpool_576.txt	LTP310	ltpFR2	5	6	STAR	1373	n/a	n/a	0	0	0
1367.396	n/a	REC_WORD	683698	wordpools/wasnorm_wordpool_576.txt	LTP310	ltpFR2	5	6	COLONEL	348	n/a	n/a	0	0	0
1368.672	n/a	REC_WORD	684336	wordpools/wasnorm_wordpool_576.txt	LTP310	ltpFR2	5	6	FRANCE	601	n/a	n/a	0	0	0
1374.464	n/a	REC_WORD	687232	wordpools/wasnorm_wordpool_576.txt	LTP310	ltpFR2	5	6	GYMNAST	675	n/a	n/a	0	0	0
1384.804	n/a	REC_WORD	692402	wordpools/wasnorm_wordpool_576.txt	LTP310	ltpFR2	5	6	GUITAR	670	n/a	n/a	0	0	0
1386.062	n/a	REC_WORD	693031	wordpools/wasnorm_wordpool_576.txt	LTP310	ltpFR2	5	6	PIANO	1057	n/a	n/a	0	0	0
1391.64	n/a	REC_WORD	695820	wordpools/wasnorm_wordpool_576.txt	LTP310	ltpFR2	5	6	ARMY	39	n/a	n/a	0	0	0
1393.102	n/a	REC_WORD	696551	wordpools/wasnorm_wordpool_576.txt	LTP310	ltpFR2	5	6	AGENT	10	n/a	n/a	0	0	0
1395.608	n/a	REC_WORD	697804	wordpools/wasnorm_wordpool_576.txt	LTP310	ltpFR2	5	6	FIDDLE	561	n/a	n/a	0	0	0
1397.014	n/a	REC_WORD	698507	wordpools/wasnorm_wordpool_576.txt	LTP310	ltpFR2	5	6	WRIST	1626	n/a	n/a	0	0	0
1398.228	n/a	REC_WORD	699114	wordpools/wasnorm_wordpool_576.txt	LTP310	ltpFR2	5	6	ELBOW	520	n/a	n/a	0	0	0
1400.832	n/a	REC_WORD	700416	wordpools/wasnorm_wordpool_576.txt	LTP310	ltpFR2	5	6	TRACTOR	1493	n/a	n/a	0	0	0
1402.512	n/a	REC_WORD	701256	wordpools/wasnorm_wordpool_576.txt	LTP310	ltpFR2	5	6	DRIVER	499	n/a	n/a	0	0	0
1437.504	n/a	DISTRACTOR	718752	n/a	LTP310	ltpFR2	5	7	n/a	n/a	n/a	n/a	0	0	0
1437.504	n/a	START	718752	n/a	LTP310	ltpFR2	5	n/a	n/a	n/a	11	n/a	n/a	n/a	n/a
1437.52	n/a	PROB	718760	n/a	LTP310	ltpFR2	5	n/a	n/a	n/a	11	18	8	9	1
1439.876	n/a	PROB	719938	n/a	LTP310	ltpFR2	5	n/a	n/a	n/a	11	16	6	5	5
1441.544	n/a	PROB	720772	n/a	LTP310	ltpFR2	5	n/a	n/a	n/a	11	20	4	8	8
1442.978	n/a	PROB	721489	n/a	LTP310	ltpFR2	5	n/a	n/a	n/a	11	19	4	9	6
1444.546	n/a	PROB	722273	n/a	LTP310	ltpFR2	5	n/a	n/a	n/a	11	6	2	1	3
1445.976	n/a	PROB	722988	n/a	LTP310	ltpFR2	5	n/a	n/a	n/a	11	18	6	4	8
1447.382	n/a	PROB	723691	n/a	LTP310	ltpFR2	5	n/a	n/a	n/a	11	14	6	2	6
1449.3	n/a	PROB	724650	n/a	LTP310	ltpFR2	5	n/a	n/a	n/a	11	12	3	7	2
1450.686	n/a	PROB	725343	n/a	LTP310	ltpFR2	5	n/a	n/a	n/a	11	20	8	9	3
1452.786	n/a	PROB	726393	n/a	LTP310	ltpFR2	5	n/a	n/a	n/a	11	18	9	5	4
1454.506	n/a	PROB	727253	n/a	LTP310	ltpFR2	5	n/a	n/a	n/a	11	17	8	1	8
1456.374	n/a	PROB	728187	n/a	LTP310	ltpFR2	5	n/a	n/a	n/a	11	17	6	8	3
1458.108	n/a	PROB	729054	n/a	LTP310	ltpFR2	5	n/a	n/a	n/a	11	11	4	4	3
1459.658	n/a	PROB	729829	n/a	LTP310	ltpFR2	5	n/a	n/a	n/a	11	11	5	5	1
1460.918	n/a	STOP	730459	n/a	LTP310	ltpFR2	5	n/a	n/a	n/a	11	n/a	n/a	n/a	n/a
1462.656	n/a	WORD	731328	wordpools/wasnorm_wordpool_576.txt	LTP310	ltpFR2	5	7	HIKER	708	n/a	n/a	0	0	0
1465.176	n/a	WORD	732588	wordpools/wasnorm_wordpool_576.txt	LTP310	ltpFR2	5	7	GRAVEL	659	n/a	n/a	0	0	0
1467.748	n/a	WORD	733874	wordpools/wasnorm_wordpool_576.txt	LTP310	ltpFR2	5	7	MUFFIN	929	n/a	n/a	0	0	0
1470.214	n/a	WORD	735107	wordpools/wasnorm_wordpool_576.txt	LTP310	ltpFR2	5	7	ACTOR	5	n/a	n/a	0	0	0
1472.814	n/a	WORD	736407	wordpools/wasnorm_wordpool_576.txt	LTP310	ltpFR2	5	7	CASKET	255	n/a	n/a	0	0	0
1475.518	n/a	WORD	737759	wordpools/wasnorm_wordpool_576.txt	LTP310	ltpFR2	5	7	MEAT	883	n/a	n/a	0	0	0
1478.27	n/a	WORD	739135	wordpools/wasnorm_wordpool_576.txt	LTP310	ltpFR2	5	7	CREVICE	405	n/a	n/a	0	0	0
1480.99	n/a	WORD	740495	wordpools/wasnorm_wordpool_576.txt	LTP310	ltpFR2	5	7	RAFT	1159	n/a	n/a	0	0	0
1483.558	n/a	WORD	741779	wordpools/wasnorm_wordpool_576.txt	LTP310	ltpFR2	5	7	STALLION	1369	n/a	n/a	0	0	0
1486.344	n/a	WORD	743172	wordpools/wasnorm_wordpool_576.txt	LTP310	ltpFR2	5	7	RELISH	1183	n/a	n/a	0	0	0
1489.13	n/a	WORD	744565	wordpools/wasnorm_wordpool_576.txt	LTP310	ltpFR2	5	7	ITEM	746	n/a	n/a	0	0	0
1491.766	n/a	WORD	745883	wordpools/wasnorm_wordpool_576.txt	LTP310	ltpFR2	5	7	STICKER	1382	n/a	n/a	0	0	0
1494.434	n/a	WORD	747217	wordpools/wasnorm_wordpool_576.txt	LTP310	ltpFR2	5	7	SHOVEL	1295	n/a	n/a	0	0	0
1497.172	n/a	WORD	748586	wordpools/wasnorm_wordpool_576.txt	LTP310	ltpFR2	5	7	DOUGHNUT	490	n/a	n/a	0	0	0
1499.638	n/a	WORD	749819	wordpools/wasnorm_wordpool_576.txt	LTP310	ltpFR2	5	7	TWIG	1527	n/a	n/a	0	0	0
1502.108	n/a	WORD	751054	wordpools/wasnorm_wordpool_576.txt	LTP310	ltpFR2	5	7	JELLO	754	n/a	n/a	0	0	0
1504.876	n/a	WORD	752438	wordpools/wasnorm_wordpool_576.txt	LTP310	ltpFR2	5	7	BANK	83	n/a	n/a	0	0	0
1507.312	n/a	WORD	753656	wordpools/wasnorm_wordpool_576.txt	LTP310	ltpFR2	5	7	AIRPLANE	12	n/a	n/a	0	0	0
1509.814	n/a	WORD	754907	wordpools/wasnorm_wordpool_576.txt	LTP310	ltpFR2	5	7	LIVER	833	n/a	n/a	0	0	0
1512.35	n/a	WORD	756175	wordpools/wasnorm_wordpool_576.txt	LTP310	ltpFR2	5	7	SIBLING	1301	n/a	n/a	0	0	0
1515.018	n/a	WORD	757509	wordpools/wasnorm_wordpool_576.txt	LTP310	ltpFR2	5	7	BROTHER	179	n/a	n/a	0	0	0
1517.654	n/a	WORD	758827	wordpools/wasnorm_wordpool_576.txt	LTP310	ltpFR2	5	7	DENIM	446	n/a	n/a	0	0	0
1520.256	n/a	WORD	760128	wordpools/wasnorm_wordpool_576.txt	LTP310	ltpFR2	5	7	TOASTER	1472	n/a	n/a	0	0	0
1522.774	n/a	WORD	761387	wordpools/wasnorm_wordpool_576.txt	LTP310	ltpFR2	5	7	NOVEL	960	n/a	n/a	0	0	0
1524.392	n/a	START	762196	n/a	LTP310	ltpFR2	5	n/a	n/a	n/a	12	n/a	n/a	n/a	n/a
1525.232	n/a	DISTRACTOR	762616	n/a	LTP310	ltpFR2	5	7	n/a	n/a	n/a	n/a	0	0	0
1525.244	n/a	PROB	762622	n/a	LTP310	ltpFR2	5	n/a	n/a	n/a	12	14	7	6	1
1527.81	n/a	PROB	763905	n/a	LTP310	ltpFR2	5	n/a	n/a	n/a	12	23	7	8	8
1530.08	n/a	PROB	765040	n/a	LTP310	ltpFR2	5	n/a	n/a	n/a	12	9	1	1	7
1531.214	n/a	PROB	765607	n/a	LTP310	ltpFR2	5	n/a	n/a	n/a	12	12	5	2	5
1532.632	n/a	PROB	766316	n/a	LTP310	ltpFR2	5	n/a	n/a	n/a	12	22	7	7	8
1534.366	n/a	PROB	767183	n/a	LTP310	ltpFR2	5	n/a	n/a	n/a	12	14	6	3	5
1536.186	n/a	PROB	768093	n/a	LTP310	ltpFR2	5	n/a	n/a	n/a	12	7	3	2	2
1537.92	n/a	PROB	768960	n/a	LTP310	ltpFR2	5	n/a	n/a	n/a	12	16	9	6	1
1539.454	n/a	PROB	769727	n/a	LTP310	ltpFR2	5	n/a	n/a	n/a	12	16	7	1	8
1540.954	n/a	PROB	770477	n/a	LTP310	ltpFR2	5	n/a	n/a	n/a	12	13	4	7	2
1542.42	n/a	PROB	771210	n/a	LTP310	ltpFR2	5	n/a	n/a	n/a	12	16	8	1	7
1544.09	n/a	PROB	772045	n/a	LTP310	ltpFR2	5	n/a	n/a	n/a	12	17	4	8	5
1546.742	n/a	PROB	773371	n/a	LTP310	ltpFR2	5	n/a	n/a	n/a	12	13	3	6	4
1548.144	n/a	STOP	774072	n/a	LTP310	ltpFR2	5	n/a	n/a	n/a	12	n/a	n/a	n/a	n/a
1550.196	n/a	REC_START	775098	n/a	LTP310	ltpFR2	5	7	n/a	n/a	n/a	n/a	0	0	0
1552.422	n/a	REC_WORD	776211	wordpools/wasnorm_wordpool_576.txt	LTP310	ltpFR2	5	7	HIKER	708	n/a	n/a	0	0	0
1553.658	n/a	REC_WORD	776829	wordpools/wasnorm_wordpool_576.txt	LTP310	ltpFR2	5	7	GRAVEL	659	n/a	n/a	0	0	0
1556.354	n/a	REC_WORD	778177	wordpools/wasnorm_wordpool_576.txt	LTP310	ltpFR2	5	7	MUFFIN	929	n/a	n/a	0	0	0
1557.532	n/a	REC_WORD	778766	wordpools/wasnorm_wordpool_576.txt	LTP310	ltpFR2	5	7	DOUGHNUT	490	n/a	n/a	0	0	0
1560.282	n/a	REC_WORD	780141	wordpools/wasnorm_wordpool_576.txt	LTP310	ltpFR2	5	7	ACTOR	5	n/a	n/a	0	0	0
1561.574	n/a	REC_WORD	780787	wordpools/wasnorm_wordpool_576.txt	LTP310	ltpFR2	5	7	CASKET	255	n/a	n/a	0	0	0
1563.192	n/a	REC_WORD	781596	wordpools/wasnorm_wordpool_576.txt	LTP310	ltpFR2	5	7	MEAT	883	n/a	n/a	0	0	0
1564.38	n/a	REC_WORD	782190	wordpools/wasnorm_wordpool_576.txt	LTP310	ltpFR2	5	7	CREVICE	405	n/a	n/a	0	0	0
1570.042	n/a	REC_WORD	785021	wordpools/wasnorm_wordpool_576.txt	LTP310	ltpFR2	5	7	STICKER	1382	n/a	n/a	0	0	0
1571.92	n/a	REC_WORD	785960	wordpools/wasnorm_wordpool_576.txt	LTP310	ltpFR2	5	7	SHOVEL	1295	n/a	n/a	0	0	0
1577.368	n/a	REC_WORD	788684	wordpools/wasnorm_wordpool_576.txt	LTP310	ltpFR2	5	7	TWIG	1527	n/a	n/a	0	0	0
1581.166	n/a	REC_WORD	790583	wordpools/wasnorm_wordpool_576.txt	LTP310	ltpFR2	5	7	JELLO	754	n/a	n/a	0	0	0
1586.0	n/a	REC_WORD	793000	wordpools/wasnorm_wordpool_576.txt	LTP310	ltpFR2	5	7	BANK	83	n/a	n/a	0	0	0
1599.268	n/a	REC_WORD	799634	wordpools/wasnorm_wordpool_576.txt	LTP310	ltpFR2	5	7	LIVER	833	n/a	n/a	0	0	0
1600.956	n/a	REC_WORD	800478	wordpools/wasnorm_wordpool_576.txt	LTP310	ltpFR2	5	7	BROTHER	179	n/a	n/a	0	0	0
1602.532	n/a	REC_WORD	801266	wordpools/wasnorm_wordpool_576.txt	LTP310	ltpFR2	5	7	SIBLING	1301	n/a	n/a	0	0	0
1604.154	n/a	REC_WORD	802077	wordpools/wasnorm_wordpool_576.txt	LTP310	ltpFR2	5	7	DENIM	446	n/a	n/a	0	0	0
1640.616	n/a	DISTRACTOR	820308	n/a	LTP310	ltpFR2	5	8	n/a	n/a	n/a	n/a	0	0	0
1640.616	n/a	START	820308	n/a	LTP310	ltpFR2	5	n/a	n/a	n/a	13	n/a	n/a	n/a	n/a
1640.634	n/a	PROB	820317	n/a	LTP310	ltpFR2	5	n/a	n/a	n/a	13	19	4	6	9
1642.202	n/a	PROB	821101	n/a	LTP310	ltpFR2	5	n/a	n/a	n/a	13	12	4	3	5
1643.684	n/a	PROB	821842	n/a	LTP310	ltpFR2	5	n/a	n/a	n/a	13	17	7	3	7
1645.102	n/a	PROB	822551	n/a	LTP310	ltpFR2	5	n/a	n/a	n/a	13	17	7	9	1
1646.554	n/a	PROB	823277	n/a	LTP310	ltpFR2	5	n/a	n/a	n/a	13	25	8	9	8
1648.388	n/a	PROB	824194	n/a	LTP310	ltpFR2	5	n/a	n/a	n/a	13	14	5	3	6
1650.174	n/a	PROB	825087	n/a	LTP310	ltpFR2	5	n/a	n/a	n/a	13	15	7	1	7
1651.824	n/a	PROB	825912	n/a	LTP310	ltpFR2	5	n/a	n/a	n/a	13	10	7	2	1
1653.892	n/a	PROB	826946	n/a	LTP310	ltpFR2	5	n/a	n/a	n/a	13	17	6	1	8
1655.678	n/a	PROB	827839	n/a	LTP310	ltpFR2	5	n/a	n/a	n/a	13	16	7	6	3
1657.496	n/a	PROB	828748	n/a	LTP310	ltpFR2	5	n/a	n/a	n/a	13	20	8	6	1
1659.764	n/a	PROB	829882	n/a	LTP310	ltpFR2	5	n/a	n/a	n/a	13	25	7	9	9
1664.616	n/a	STOP	832308	n/a	LTP310	ltpFR2	5	n/a	n/a	n/a	13	n/a	n/a	n/a	n/a
1665.718	n/a	WORD	832859	wordpools/wasnorm_wordpool_576.txt	LTP310	ltpFR2	5	8	TYPIST	1532	n/a	n/a	0	0	0
1668.348	n/a	WORD	834174	wordpools/wasnorm_wordpool_576.txt	LTP310	ltpFR2	5	8	PLIERS	1089	n/a	n/a	0	0	0
1671.0	n/a	WORD	835500	wordpools/wasnorm_wordpool_576.txt	LTP310	ltpFR2	5	8	MATTRESS	879	n/a	n/a	0	0	0
1673.758	n/a	WORD	836879	wordpools/wasnorm_wordpool_576.txt	LTP310	ltpFR2	5	8	CUPBOARD	425	n/a	n/a	0	0	0
1676.196	n/a	WORD	838098	wordpools/wasnorm_wordpool_576.txt	LTP310	ltpFR2	5	8	PERMIT	1051	n/a	n/a	0	0	0
1678.908	n/a	WORD	839454	wordpools/wasnorm_wordpool_576.txt	LTP310	ltpFR2	5	8	SCISSORS	1250	n/a	n/a	0	0	0
1681.626	n/a	WORD	840813	wordpools/wasnorm_wordpool_576.txt	LTP310	ltpFR2	5	8	HATCHET	691	n/a	n/a	0	0	0
1684.05	n/a	WORD	842025	wordpools/wasnorm_wordpool_576.txt	LTP310	ltpFR2	5	8	SPIDER	1351	n/a	n/a	0	0	0
1686.73	n/a	WORD	843365	wordpools/wasnorm_wordpool_576.txt	LTP310	ltpFR2	5	8	TERMITE	1451	n/a	n/a	0	0	0
1689.3	n/a	WORD	844650	wordpools/wasnorm_wordpool_576.txt	LTP310	ltpFR2	5	8	PLATE	1086	n/a	n/a	0	0	0
1691.868	n/a	WORD	845934	wordpools/wasnorm_wordpool_576.txt	LTP310	ltpFR2	5	8	COLLEGE	346	n/a	n/a	0	0	0
1694.554	n/a	WORD	847277	wordpools/wasnorm_wordpool_576.txt	LTP310	ltpFR2	5	8	POET	1095	n/a	n/a	0	0	0
1697.024	n/a	WORD	848512	wordpools/wasnorm_wordpool_576.txt	LTP310	ltpFR2	5	8	ROBIN	1199	n/a	n/a	0	0	0
1699.542	n/a	WORD	849771	wordpools/wasnorm_wordpool_576.txt	LTP310	ltpFR2	5	8	SCARECROW	1245	n/a	n/a	0	0	0
1702.262	n/a	WORD	851131	wordpools/wasnorm_wordpool_576.txt	LTP310	ltpFR2	5	8	RIVER	1194	n/a	n/a	0	0	0
1705.012	n/a	WORD	852506	wordpools/wasnorm_wordpool_576.txt	LTP310	ltpFR2	5	8	PICNIC	1060	n/a	n/a	0	0	0
1707.58	n/a	WORD	853790	wordpools/wasnorm_wordpool_576.txt	LTP310	ltpFR2	5	8	RUST	1219	n/a	n/a	0	0	0
1710.084	n/a	WORD	855042	wordpools/wasnorm_wordpool_576.txt	LTP310	ltpFR2	5	8	COCKTAIL	338	n/a	n/a	0	0	0
1712.836	n/a	WORD	856418	wordpools/wasnorm_wordpool_576.txt	LTP310	ltpFR2	5	8	MISTER	901	n/a	n/a	0	0	0
1715.604	n/a	WORD	857802	wordpools/wasnorm_wordpool_576.txt	LTP310	ltpFR2	5	8	DASHBOARD	441	n/a	n/a	0	0	0
1718.024	n/a	WORD	859012	wordpools/wasnorm_wordpool_576.txt	LTP310	ltpFR2	5	8	BUG	187	n/a	n/a	0	0	0
1720.692	n/a	WORD	860346	wordpools/wasnorm_wordpool_576.txt	LTP310	ltpFR2	5	8	NIGHTGOWN	953	n/a	n/a	0	0	0
1723.412	n/a	WORD	861706	wordpools/wasnorm_wordpool_576.txt	LTP310	ltpFR2	5	8	TOURIST	1488	n/a	n/a	0	0	0
1726.182	n/a	WORD	863091	wordpools/wasnorm_wordpool_576.txt	LTP310	ltpFR2	5	8	WRENCH	1625	n/a	n/a	0	0	0
1727.8	n/a	START	863900	n/a	LTP310	ltpFR2	5	n/a	n/a	n/a	14	n/a	n/a	n/a	n/a
1728.802	n/a	DISTRACTOR	864401	n/a	LTP310	ltpFR2	5	8	n/a	n/a	n/a	n/a	0	0	0
1728.816	n/a	PROB	864408	n/a	LTP310	ltpFR2	5	n/a	n/a	n/a	14	21	9	8	4
1730.852	n/a	PROB	865426	n/a	LTP310	ltpFR2	5	n/a	n/a	n/a	14	6	2	3	1
1732.42	n/a	PROB	866210	n/a	LTP310	ltpFR2	5	n/a	n/a	n/a	14	19	1	1	9
1733.786	n/a	PROB	866893	n/a	LTP310	ltpFR2	5	n/a	n/a	n/a	14	15	4	3	8
1736.676	n/a	PROB	868338	n/a	LTP310	ltpFR2	5	n/a	n/a	n/a	14	10	2	3	5
1738.292	n/a	PROB	869146	n/a	LTP310	ltpFR2	5	n/a	n/a	n/a	14	15	6	6	3
1739.71	n/a	PROB	869855	n/a	LTP310	ltpFR2	5	n/a	n/a	n/a	14	22	9	6	7
1741.678	n/a	PROB	870839	n/a	LTP310	ltpFR2	5	n/a	n/a	n/a	14	14	5	2	7
1743.08	n/a	PROB	871540	n/a	LTP310	ltpFR2	5	n/a	n/a	n/a	14	17	7	7	3
1745.146	n/a	PROB	872573	n/a	LTP310	ltpFR2	5	n/a	n/a	n/a	14	14	6	4	4
1746.516	n/a	PROB	873258	n/a	LTP310	ltpFR2	5	n/a	n/a	n/a	14	13	8	3	2
1748.032	n/a	PROB	874016	n/a	LTP310	ltpFR2	5	n/a	n/a	n/a	14	12	4	4	4
1749.484	n/a	PROB	874742	n/a	LTP310	ltpFR2	5	n/a	n/a	n/a	14	18	9	4	5
1751.14	n/a	STOP	875570	n/a	LTP310	ltpFR2	5	n/a	n/a	n/a	14	n/a	n/a	n/a	n/a
1753.588	n/a	REC_START	876794	n/a	LTP310	ltpFR2	5	8	n/a	n/a	n/a	n/a	0	0	0
1755.388	n/a	REC_WORD	877694	wordpools/wasnorm_wordpool_576.txt	LTP310	ltpFR2	5	8	TYPIST	1532	n/a	n/a	0	0	0
1757.528	n/a	REC_WORD	878764	wordpools/wasnorm_wordpool_576.txt	LTP310	ltpFR2	5	8	PLIERS	1089	n/a	n/a	0	0	0
1758.962	n/a	REC_WORD	879481	wordpools/wasnorm_wordpool_576.txt	LTP310	ltpFR2	5	8	MATTRESS	879	n/a	n/a	0	0	0
1760.248	n/a	REC_WORD	880124	wordpools/wasnorm_wordpool_576.txt	LTP310	ltpFR2	5	8	CUPBOARD	425	n/a	n/a	0	0	0
1762.036	n/a	REC_WORD	881018	wordpools/wasnorm_wordpool_576.txt	LTP310	ltpFR2	5	8	PERMIT	1051	n/a	n/a	0	0	0
1763.8	n/a	REC_WORD	881900	wordpools/wasnorm_wordpool_576.txt	LTP310	ltpFR2	5	8	SCISSORS	1250	n/a	n/a	0	0	0
1765.634	n/a	REC_WORD	882817	wordpools/wasnorm_wordpool_576.txt	LTP310	ltpFR2	5	8	HATCHET	691	n/a	n/a	0	0	0
1769.48	n/a	REC_WORD	884740	wordpools/wasnorm_wordpool_576.txt	LTP310	ltpFR2	5	8	SPIDER	1351	n/a	n/a	0	0	0
1770.48	n/a	REC_WORD_VV	885240	wordpools/wasnorm_wordpool_576.txt	LTP310	ltpFR2	5	8	<>	-1	n/a	n/a	0	0	0
1771.078	n/a	REC_WORD	885539	wordpools/wasnorm_wordpool_576.txt	LTP310	ltpFR2	5	8	TERMITE	1451	n/a	n/a	0	0	0
1772.58	n/a	REC_WORD	886290	wordpools/wasnorm_wordpool_576.txt	LTP310	ltpFR2	5	8	PLATE	1086	n/a	n/a	0	0	0
1775.57	n/a	REC_WORD	887785	wordpools/wasnorm_wordpool_576.txt	LTP310	ltpFR2	5	8	COLLEGE	346	n/a	n/a	0	0	0
1776.606	n/a	REC_WORD	888303	wordpools/wasnorm_wordpool_576.txt	LTP310	ltpFR2	5	8	POET	1095	n/a	n/a	0	0	0
1778.272	n/a	REC_WORD	889136	wordpools/wasnorm_wordpool_576.txt	LTP310	ltpFR2	5	8	DASHBOARD	441	n/a	n/a	0	0	0
1780.182	n/a	REC_WORD	890091	wordpools/wasnorm_wordpool_576.txt	LTP310	ltpFR2	5	8	MISTER	901	n/a	n/a	0	0	0
1782.632	n/a	REC_WORD	891316	wordpools/wasnorm_wordpool_576.txt	LTP310	ltpFR2	5	8	PICNIC	1060	n/a	n/a	0	0	0
1783.828	n/a	REC_WORD	891914	wordpools/wasnorm_wordpool_576.txt	LTP310	ltpFR2	5	8	RUST	1219	n/a	n/a	0	0	0
1789.25	n/a	REC_WORD	894625	wordpools/wasnorm_wordpool_576.txt	LTP310	ltpFR2	5	8	COCKTAIL	338	n/a	n/a	0	0	0
1791.326	n/a	REC_WORD	895663	wordpools/wasnorm_wordpool_576.txt	LTP310	ltpFR2	5	8	DASHBOARD	441	n/a	n/a	0	0	0
1793.11	n/a	REC_WORD	896555	wordpools/wasnorm_wordpool_576.txt	LTP310	ltpFR2	5	8	SCARECROW	1245	n/a	n/a	0	0	0
1794.11	n/a	REC_WORD_VV	897055	wordpools/wasnorm_wordpool_576.txt	LTP310	ltpFR2	5	8	<>	-1	n/a	n/a	0	0	0
1797.984	n/a	REC_WORD	898992	wordpools/wasnorm_wordpool_576.txt	LTP310	ltpFR2	5	8	BUG	187	n/a	n/a	0	0	0
1801.822	n/a	REC_WORD	900911	wordpools/wasnorm_wordpool_576.txt	LTP310	ltpFR2	5	8	NIGHTGOWN	953	n/a	n/a	0	0	0
1805.272	n/a	REC_WORD	902636	wordpools/wasnorm_wordpool_576.txt	LTP310	ltpFR2	5	8	TOURIST	1488	n/a	n/a	0	0	0
1815.322	n/a	REC_WORD	907661	wordpools/wasnorm_wordpool_576.txt	LTP310	ltpFR2	5	8	WRENCH	1625	n/a	n/a	0	0	0
1830.114	n/a	REST_REWET	915057	n/a	LTP310	ltpFR2	5	8	n/a	n/a	n/a	n/a	0	0	0
2186.522	n/a	DISTRACTOR	1093261	n/a	LTP310	ltpFR2	5	9	n/a	n/a	n/a	n/a	0	0	0
2186.522	n/a	START	1093261	n/a	LTP310	ltpFR2	5	n/a	n/a	n/a	15	n/a	n/a	n/a	n/a
2186.538	n/a	PROB	1093269	n/a	LTP310	ltpFR2	5	n/a	n/a	n/a	15	19	7	4	8
2188.356	n/a	PROB	1094178	n/a	LTP310	ltpFR2	5	n/a	n/a	n/a	15	16	5	3	8
2189.856	n/a	PROB	1094928	n/a	LTP310	ltpFR2	5	n/a	n/a	n/a	15	16	9	2	5
2191.458	n/a	PROB	1095729	n/a	LTP310	ltpFR2	5	n/a	n/a	n/a	15	17	7	9	1
2192.876	n/a	PROB	1096438	n/a	LTP310	ltpFR2	5	n/a	n/a	n/a	15	15	6	4	5
2194.18	n/a	PROB	1097090	n/a	LTP310	ltpFR2	5	n/a	n/a	n/a	15	13	5	3	5
2195.478	n/a	PROB	1097739	n/a	LTP310	ltpFR2	5	n/a	n/a	n/a	15	19	4	8	7
2197.628	n/a	PROB	1098814	n/a	LTP310	ltpFR2	5	n/a	n/a	n/a	15	16	5	5	6
2199.032	n/a	PROB	1099516	n/a	LTP310	ltpFR2	5	n/a	n/a	n/a	15	17	5	3	9
2200.668	n/a	PROB	1100334	n/a	LTP310	ltpFR2	5	n/a	n/a	n/a	15	12	7	4	1
2202.684	n/a	PROB	1101342	n/a	LTP310	ltpFR2	5	n/a	n/a	n/a	15	18	3	8	7
2204.352	n/a	PROB	1102176	n/a	LTP310	ltpFR2	5	n/a	n/a	n/a	15	18	9	9	9
2205.736	n/a	PROB	1102868	n/a	LTP310	ltpFR2	5	n/a	n/a	n/a	15	20	4	8	8
2208.108	n/a	PROB	1104054	n/a	LTP310	ltpFR2	5	n/a	n/a	n/a	15	14	7	3	4
2209.3	n/a	STOP	1104650	n/a	LTP310	ltpFR2	5	n/a	n/a	n/a	15	n/a	n/a	n/a	n/a
2211.426	n/a	WORD	1105713	wordpools/wasnorm_wordpool_576.txt	LTP310	ltpFR2	5	9	COOKBOOK	373	n/a	n/a	0	0	0
2214.064	n/a	WORD	1107032	wordpools/wasnorm_wordpool_576.txt	LTP310	ltpFR2	5	9	LUMBER	848	n/a	n/a	0	0	0
2216.496	n/a	WORD	1108248	wordpools/wasnorm_wordpool_576.txt	LTP310	ltpFR2	5	9	DAUGHTER	442	n/a	n/a	0	0	0
2219.0	n/a	WORD	1109500	wordpools/wasnorm_wordpool_576.txt	LTP310	ltpFR2	5	9	INFANT	737	n/a	n/a	0	0	0
2221.618	n/a	WORD	1110809	wordpools/wasnorm_wordpool_576.txt	LTP310	ltpFR2	5	9	PLAYGROUND	1087	n/a	n/a	0	0	0
2224.22	n/a	WORD	1112110	wordpools/wasnorm_wordpool_576.txt	LTP310	ltpFR2	5	9	SNACK	1331	n/a	n/a	0	0	0
2227.04	n/a	WORD	1113520	wordpools/wasnorm_wordpool_576.txt	LTP310	ltpFR2	5	9	SPACE	1345	n/a	n/a	0	0	0
2229.524	n/a	WORD	1114762	wordpools/wasnorm_wordpool_576.txt	LTP310	ltpFR2	5	9	VALVE	1546	n/a	n/a	0	0	0
2232.094	n/a	WORD	1116047	wordpools/wasnorm_wordpool_576.txt	LTP310	ltpFR2	5	9	COOK	372	n/a	n/a	0	0	0
2234.812	n/a	WORD	1117406	wordpools/wasnorm_wordpool_576.txt	LTP310	ltpFR2	5	9	DRUG	501	n/a	n/a	0	0	0
2237.48	n/a	WORD	1118740	wordpools/wasnorm_wordpool_576.txt	LTP310	ltpFR2	5	9	BRANCH	168	n/a	n/a	0	0	0
2240.15	n/a	WORD	1120075	wordpools/wasnorm_wordpool_576.txt	LTP310	ltpFR2	5	9	PAIL	1002	n/a	n/a	0	0	0
2242.702	n/a	WORD	1121351	wordpools/wasnorm_wordpool_576.txt	LTP310	ltpFR2	5	9	SWAMP	1416	n/a	n/a	0	0	0
2245.27	n/a	WORD	1122635	wordpools/wasnorm_wordpool_576.txt	LTP310	ltpFR2	5	9	TREAT	1501	n/a	n/a	0	0	0
2247.79	n/a	WORD	1123895	wordpools/wasnorm_wordpool_576.txt	LTP310	ltpFR2	5	9	GIRL	637	n/a	n/a	0	0	0
2250.508	n/a	WORD	1125254	wordpools/wasnorm_wordpool_576.txt	LTP310	ltpFR2	5	9	DOLPHIN	483	n/a	n/a	0	0	0
2253.212	n/a	WORD	1126606	wordpools/wasnorm_wordpool_576.txt	LTP310	ltpFR2	5	9	STREAM	1392	n/a	n/a	0	0	0
2255.962	n/a	WORD	1127981	wordpools/wasnorm_wordpool_576.txt	LTP310	ltpFR2	5	9	SHOULDER	1294	n/a	n/a	0	0	0
2258.464	n/a	WORD	1129232	wordpools/wasnorm_wordpool_576.txt	LTP310	ltpFR2	5	9	SKETCH	1315	n/a	n/a	0	0	0
2260.982	n/a	WORD	1130491	wordpools/wasnorm_wordpool_576.txt	LTP310	ltpFR2	5	9	EYELASH	546	n/a	n/a	0	0	0
2263.552	n/a	WORD	1131776	wordpools/wasnorm_wordpool_576.txt	LTP310	ltpFR2	5	9	RUG	1215	n/a	n/a	0	0	0
2266.108	n/a	WORD	1133054	wordpools/wasnorm_wordpool_576.txt	LTP310	ltpFR2	5	9	CEILING	265	n/a	n/a	0	0	0
2268.84	n/a	WORD	1134420	wordpools/wasnorm_wordpool_576.txt	LTP310	ltpFR2	5	9	SADDLE	1221	n/a	n/a	0	0	0
2271.342	n/a	WORD	1135671	wordpools/wasnorm_wordpool_576.txt	LTP310	ltpFR2	5	9	BROOK	177	n/a	n/a	0	0	0
2272.96	n/a	START	1136480	n/a	LTP310	ltpFR2	5	n/a	n/a	n/a	16	n/a	n/a	n/a	n/a
2273.988	n/a	DISTRACTOR	1136994	n/a	LTP310	ltpFR2	5	9	n/a	n/a	n/a	n/a	0	0	0
2273.994	n/a	PROB	1136997	n/a	LTP310	ltpFR2	5	n/a	n/a	n/a	16	15	7	1	7
2276.462	n/a	PROB	1138231	n/a	LTP310	ltpFR2	5	n/a	n/a	n/a	16	14	4	4	6
2277.698	n/a	PROB	1138849	n/a	LTP310	ltpFR2	5	n/a	n/a	n/a	16	11	2	1	8
2279.18	n/a	PROB	1139590	n/a	LTP310	ltpFR2	5	n/a	n/a	n/a	16	14	6	6	7
2280.616	n/a	PROB	1140308	n/a	LTP310	ltpFR2	5	n/a	n/a	n/a	16	20	7	4	9
2283.216	n/a	PROB	1141608	n/a	LTP310	ltpFR2	5	n/a	n/a	n/a	16	12	3	4	5
2285.95	n/a	PROB	1142975	n/a	LTP310	ltpFR2	5	n/a	n/a	n/a	16	19	4	6	9
2287.418	n/a	PROB	1143709	n/a	LTP310	ltpFR2	5	n/a	n/a	n/a	16	10	5	2	3
2288.838	n/a	PROB	1144419	n/a	LTP310	ltpFR2	5	n/a	n/a	n/a	16	22	7	6	9
2293.158	n/a	PROB	1146579	n/a	LTP310	ltpFR2	5	n/a	n/a	n/a	16	24	8	6	6
2296.958	n/a	STOP	1148479	n/a	LTP310	ltpFR2	5	n/a	n/a	n/a	16	n/a	n/a	n/a	n/a
2298.846	n/a	REC_START	1149423	n/a	LTP310	ltpFR2	5	9	n/a	n/a	n/a	n/a	0	0	0
2304.992	n/a	REC_WORD	1152496	wordpools/wasnorm_wordpool_576.txt	LTP310	ltpFR2	5	9	DAUGHTER	442	n/a	n/a	0	0	0
2307.582	n/a	REC_WORD	1153791	wordpools/wasnorm_wordpool_576.txt	LTP310	ltpFR2	5	9	INFANT	737	n/a	n/a	0	0	0
2309.574	n/a	REC_WORD	1154787	wordpools/wasnorm_wordpool_576.txt	LTP310	ltpFR2	5	9	PLAYGROUND	1087	n/a	n/a	0	0	0
2310.574	n/a	REC_WORD_VV	1155287	wordpools/wasnorm_wordpool_576.txt	LTP310	ltpFR2	5	9	<>	-1	n/a	n/a	0	0	0
2313.424	n/a	REC_WORD	1156712	wordpools/wasnorm_wordpool_576.txt	LTP310	ltpFR2	5	9	COOKBOOK	373	n/a	n/a	0	0	0
2319.998	n/a	REC_WORD	1159999	wordpools/wasnorm_wordpool_576.txt	LTP310	ltpFR2	5	9	COOK	372	n/a	n/a	0	0	0
2321.972	n/a	REC_WORD	1160986	wordpools/wasnorm_wordpool_576.txt	LTP310	ltpFR2	5	9	PAIL	1002	n/a	n/a	0	0	0
2323.03	n/a	REC_WORD	1161515	wordpools/wasnorm_wordpool_576.txt	LTP310	ltpFR2	5	9	DRUG	501	n/a	n/a	0	0	0
2324.522	n/a	REC_WORD	1162261	wordpools/wasnorm_wordpool_576.txt	LTP310	ltpFR2	5	9	STICK	-1	n/a	n/a	0	0	0
2326.4	n/a	REC_WORD	1163200	wordpools/wasnorm_wordpool_576.txt	LTP310	ltpFR2	5	9	SWAMP	1416	n/a	n/a	0	0	0
2328.59	n/a	REC_WORD	1164295	wordpools/wasnorm_wordpool_576.txt	LTP310	ltpFR2	5	9	GIRL	637	n/a	n/a	0	0	0
2329.998	n/a	REC_WORD	1164999	wordpools/wasnorm_wordpool_576.txt	LTP310	ltpFR2	5	9	DOLPHIN	483	n/a	n/a	0	0	0
2330.998	n/a	REC_WORD_VV	1165499	wordpools/wasnorm_wordpool_576.txt	LTP310	ltpFR2	5	9	<>	-1	n/a	n/a	0	0	0
2331.77	n/a	REC_WORD	1165885	wordpools/wasnorm_wordpool_576.txt	LTP310	ltpFR2	5	9	TREAT	1501	n/a	n/a	0	0	0
2334.456	n/a	REC_WORD	1167228	wordpools/wasnorm_wordpool_576.txt	LTP310	ltpFR2	5	9	SADDLE	1221	n/a	n/a	0	0	0
2335.57	n/a	REC_WORD	1167785	wordpools/wasnorm_wordpool_576.txt	LTP310	ltpFR2	5	9	BROOK	177	n/a	n/a	0	0	0
2336.538	n/a	REC_WORD	1168269	wordpools/wasnorm_wordpool_576.txt	LTP310	ltpFR2	5	9	STREAM	1392	n/a	n/a	0	0	0
2337.538	n/a	REC_WORD_VV	1168769	wordpools/wasnorm_wordpool_576.txt	LTP310	ltpFR2	5	9	<>	-1	n/a	n/a	0	0	0
2343.878	n/a	REC_WORD	1171939	wordpools/wasnorm_wordpool_576.txt	LTP310	ltpFR2	5	9	SKETCH	1315	n/a	n/a	0	0	0
2345.406	n/a	REC_WORD	1172703	wordpools/wasnorm_wordpool_576.txt	LTP310	ltpFR2	5	9	SHOULDER	1294	n/a	n/a	0	0	0
2347.278	n/a	REC_WORD	1173639	wordpools/wasnorm_wordpool_576.txt	LTP310	ltpFR2	5	9	EYELASH	546	n/a	n/a	0	0	0
2348.776	n/a	REC_WORD	1174388	wordpools/wasnorm_wordpool_576.txt	LTP310	ltpFR2	5	9	RUG	1215	n/a	n/a	0	0	0
2350.204	n/a	REC_WORD	1175102	wordpools/wasnorm_wordpool_576.txt	LTP310	ltpFR2	5	9	CEILING	265	n/a	n/a	0	0	0
2359.02	n/a	REC_WORD	1179510	wordpools/wasnorm_wordpool_576.txt	LTP310	ltpFR2	5	9	VALVE	1546	n/a	n/a	0	0	0
2362.502	n/a	REC_WORD	1181251	wordpools/wasnorm_wordpool_576.txt	LTP310	ltpFR2	5	9	SPACE	1345	n/a	n/a	0	0	0
2389.282	n/a	WORD	1194641	wordpools/wasnorm_wordpool_576.txt	LTP310	ltpFR2	5	10	PASSAGE	1019	n/a	n/a	0	0	0
2392.002	n/a	WORD	1196001	wordpools/wasnorm_wordpool_576.txt	LTP310	ltpFR2	5	10	BINDER	127	n/a	n/a	0	0	0
2394.616	n/a	WORD	1197308	wordpools/wasnorm_wordpool_576.txt	LTP310	ltpFR2	5	10	JUNGLE	764	n/a	n/a	0	0	0
2397.04	n/a	WORD	1198520	wordpools/wasnorm_wordpool_576.txt	LTP310	ltpFR2	5	10	BADGE	68	n/a	n/a	0	0	0
2399.47	n/a	WORD	1199735	wordpools/wasnorm_wordpool_576.txt	LTP310	ltpFR2	5	10	PUPPY	1144	n/a	n/a	0	0	0
2402.076	n/a	WORD	1201038	wordpools/wasnorm_wordpool_576.txt	LTP310	ltpFR2	5	10	MUSTARD	935	n/a	n/a	0	0	0
2404.574	n/a	WORD	1202287	wordpools/wasnorm_wordpool_576.txt	LTP310	ltpFR2	5	10	DONOR	485	n/a	n/a	0	0	0
2407.258	n/a	WORD	1203629	wordpools/wasnorm_wordpool_576.txt	LTP310	ltpFR2	5	10	NOMAD	955	n/a	n/a	0	0	0
2409.916	n/a	WORD	1204958	wordpools/wasnorm_wordpool_576.txt	LTP310	ltpFR2	5	10	VICTIM	1562	n/a	n/a	0	0	0
2412.5	n/a	WORD	1206250	wordpools/wasnorm_wordpool_576.txt	LTP310	ltpFR2	5	10	CANAL	226	n/a	n/a	0	0	0
2415.136	n/a	WORD	1207568	wordpools/wasnorm_wordpool_576.txt	LTP310	ltpFR2	5	10	PATROL	1027	n/a	n/a	0	0	0
2417.572	n/a	WORD	1208786	wordpools/wasnorm_wordpool_576.txt	LTP310	ltpFR2	5	10	PILOT	1070	n/a	n/a	0	0	0
2420.154	n/a	WORD	1210077	wordpools/wasnorm_wordpool_576.txt	LTP310	ltpFR2	5	10	LAMP	798	n/a	n/a	0	0	0
2422.588	n/a	WORD	1211294	wordpools/wasnorm_wordpool_576.txt	LTP310	ltpFR2	5	10	SWITCH	1422	n/a	n/a	0	0	0
2425.108	n/a	WORD	1212554	wordpools/wasnorm_wordpool_576.txt	LTP310	ltpFR2	5	10	BEAST	108	n/a	n/a	0	0	0
2427.546	n/a	WORD	1213773	wordpools/wasnorm_wordpool_576.txt	LTP310	ltpFR2	5	10	CORAL	378	n/a	n/a	0	0	0
2430.23	n/a	WORD	1215115	wordpools/wasnorm_wordpool_576.txt	LTP310	ltpFR2	5	10	TURTLE	1522	n/a	n/a	0	0	0
2432.78	n/a	WORD	1216390	wordpools/wasnorm_wordpool_576.txt	LTP310	ltpFR2	5	10	FLESH	579	n/a	n/a	0	0	0
2435.366	n/a	WORD	1217683	wordpools/wasnorm_wordpool_576.txt	LTP310	ltpFR2	5	10	SERVER	1272	n/a	n/a	0	0	0
2438.086	n/a	WORD	1219043	wordpools/wasnorm_wordpool_576.txt	LTP310	ltpFR2	5	10	SALT	1229	n/a	n/a	0	0	0
2440.554	n/a	WORD	1220277	wordpools/wasnorm_wordpool_576.txt	LTP310	ltpFR2	5	10	PEPPER	1047	n/a	n/a	0	0	0
2443.338	n/a	WORD	1221669	wordpools/wasnorm_wordpool_576.txt	LTP310	ltpFR2	5	10	PREACHER	1119	n/a	n/a	0	0	0
2446.06	n/a	WORD	1223030	wordpools/wasnorm_wordpool_576.txt	LTP310	ltpFR2	5	10	HAMPER	682	n/a	n/a	0	0	0
2448.66	n/a	WORD	1224330	wordpools/wasnorm_wordpool_576.txt	LTP310	ltpFR2	5	10	FARMER	553	n/a	n/a	0	0	0
2450.28	n/a	START	1225140	n/a	LTP310	ltpFR2	5	n/a	n/a	n/a	17	n/a	n/a	n/a	n/a
2451.424	n/a	DISTRACTOR	1225712	n/a	LTP310	ltpFR2	5	10	n/a	n/a	n/a	n/a	0	0	0
2451.43	n/a	PROB	1225715	n/a	LTP310	ltpFR2	5	n/a	n/a	n/a	17	20	9	8	3
2454.648	n/a	PROB	1227324	n/a	LTP310	ltpFR2	5	n/a	n/a	n/a	17	15	4	4	7
2457.018	n/a	PROB	1228509	n/a	LTP310	ltpFR2	5	n/a	n/a	n/a	17	18	4	5	9
2458.518	n/a	PROB	1229259	n/a	LTP310	ltpFR2	5	n/a	n/a	n/a	17	15	6	6	3
2461.122	n/a	PROB	1230561	n/a	LTP310	ltpFR2	5	n/a	n/a	n/a	17	16	7	6	3
2462.69	n/a	PROB	1231345	n/a	LTP310	ltpFR2	5	n/a	n/a	n/a	17	12	1	3	8
2465.808	n/a	PROB	1232904	n/a	LTP310	ltpFR2	5	n/a	n/a	n/a	17	10	2	7	1
2467.512	n/a	PROB	1233756	n/a	LTP310	ltpFR2	5	n/a	n/a	n/a	17	18	8	9	1
2468.846	n/a	PROB	1234423	n/a	LTP310	ltpFR2	5	n/a	n/a	n/a	17	13	8	2	3
2470.162	n/a	PROB	1235081	n/a	LTP310	ltpFR2	5	n/a	n/a	n/a	17	13	1	9	3
2471.446	n/a	PROB	1235723	n/a	LTP310	ltpFR2	5	n/a	n/a	n/a	17	11	4	3	4
2473.176	n/a	STOP	1236588	n/a	LTP310	ltpFR2	5	n/a	n/a	n/a	17	n/a	n/a	n/a	n/a
2476.236	n/a	REC_START	1238118	n/a	LTP310	ltpFR2	5	10	n/a	n/a	n/a	n/a	0	0	0
2483.744	n/a	REC_WORD	1241872	wordpools/wasnorm_wordpool_576.txt	LTP310	ltpFR2	5	10	BINDER	127	n/a	n/a	0	0	0
2485.032	n/a	REC_WORD	1242516	wordpools/wasnorm_wordpool_576.txt	LTP310	ltpFR2	5	10	PASSAGE	1019	n/a	n/a	0	0	0
2486.628	n/a	REC_WORD	1243314	wordpools/wasnorm_wordpool_576.txt	LTP310	ltpFR2	5	10	JUNGLE	764	n/a	n/a	0	0	0
2491.67	n/a	REC_WORD	1245835	wordpools/wasnorm_wordpool_576.txt	LTP310	ltpFR2	5	10	VICTIM	1562	n/a	n/a	0	0	0
2493.162	n/a	REC_WORD	1246581	wordpools/wasnorm_wordpool_576.txt	LTP310	ltpFR2	5	10	CANAL	226	n/a	n/a	0	0	0
2498.344	n/a	REC_WORD	1249172	wordpools/wasnorm_wordpool_576.txt	LTP310	ltpFR2	5	10	BADGE	68	n/a	n/a	0	0	0
2499.526	n/a	REC_WORD	1249763	wordpools/wasnorm_wordpool_576.txt	LTP310	ltpFR2	5	10	MUSTARD	935	n/a	n/a	0	0	0
2500.932	n/a	REC_WORD	1250466	wordpools/wasnorm_wordpool_576.txt	LTP310	ltpFR2	5	10	PUPPY	1144	n/a	n/a	0	0	0
2502.444	n/a	REC_WORD	1251222	wordpools/wasnorm_wordpool_576.txt	LTP310	ltpFR2	5	10	DONOR	485	n/a	n/a	0	0	0
2512.806	n/a	REC_WORD	1256403	wordpools/wasnorm_wordpool_576.txt	LTP310	ltpFR2	5	10	NOMAD	955	n/a	n/a	0	0	0
2519.864	n/a	REC_WORD	1259932	wordpools/wasnorm_wordpool_576.txt	LTP310	ltpFR2	5	10	PATROL	1027	n/a	n/a	0	0	0
2521.364	n/a	REC_WORD	1260682	wordpools/wasnorm_wordpool_576.txt	LTP310	ltpFR2	5	10	PILOT	1070	n/a	n/a	0	0	0
2527.382	n/a	REC_WORD	1263691	wordpools/wasnorm_wordpool_576.txt	LTP310	ltpFR2	5	10	SERVER	1272	n/a	n/a	0	0	0
2528.784	n/a	REC_WORD	1264392	wordpools/wasnorm_wordpool_576.txt	LTP310	ltpFR2	5	10	SALT	1229	n/a	n/a	0	0	0
2529.99	n/a	REC_WORD	1264995	wordpools/wasnorm_wordpool_576.txt	LTP310	ltpFR2	5	10	PEPPER	1047	n/a	n/a	0	0	0
2531.23	n/a	REC_WORD	1265615	wordpools/wasnorm_wordpool_576.txt	LTP310	ltpFR2	5	10	HAMPER	682	n/a	n/a	0	0	0
2532.44	n/a	REC_WORD	1266220	wordpools/wasnorm_wordpool_576.txt	LTP310	ltpFR2	5	10	PREACHER	1119	n/a	n/a	0	0	0
2566.67	n/a	WORD	1283335	wordpools/wasnorm_wordpool_576.txt	LTP310	ltpFR2	5	11	KIDNEY	776	n/a	n/a	0	0	0
2569.262	n/a	WORD	1284631	wordpools/wasnorm_wordpool_576.txt	LTP310	ltpFR2	5	11	WHISKERS	1605	n/a	n/a	0	0	0
2571.692	n/a	WORD	1285846	wordpools/wasnorm_wordpool_576.txt	LTP310	ltpFR2	5	11	DENTIST	447	n/a	n/a	0	0	0
2574.244	n/a	WORD	1287122	wordpools/wasnorm_wordpool_576.txt	LTP310	ltpFR2	5	11	BANJO	82	n/a	n/a	0	0	0
2576.986	n/a	WORD	1288493	wordpools/wasnorm_wordpool_576.txt	LTP310	ltpFR2	5	11	FOOTBALL	591	n/a	n/a	0	0	0
2579.564	n/a	WORD	1289782	wordpools/wasnorm_wordpool_576.txt	LTP310	ltpFR2	5	11	CASHEW	253	n/a	n/a	0	0	0
2582.274	n/a	WORD	1291137	wordpools/wasnorm_wordpool_576.txt	LTP310	ltpFR2	5	11	THRONE	1461	n/a	n/a	0	0	0
2585.002	n/a	WORD	1292501	wordpools/wasnorm_wordpool_576.txt	LTP310	ltpFR2	5	11	FOX	598	n/a	n/a	0	0	0
2587.612	n/a	WORD	1293806	wordpools/wasnorm_wordpool_576.txt	LTP310	ltpFR2	5	11	MILDEW	893	n/a	n/a	0	0	0
2590.132	n/a	WORD	1295066	wordpools/wasnorm_wordpool_576.txt	LTP310	ltpFR2	5	11	MONSTER	912	n/a	n/a	0	0	0
2592.692	n/a	WORD	1296346	wordpools/wasnorm_wordpool_576.txt	LTP310	ltpFR2	5	11	ASIA	46	n/a	n/a	0	0	0
2595.186	n/a	WORD	1297593	wordpools/wasnorm_wordpool_576.txt	LTP310	ltpFR2	5	11	PLASTER	1085	n/a	n/a	0	0	0
2597.904	n/a	WORD	1298952	wordpools/wasnorm_wordpool_576.txt	LTP310	ltpFR2	5	11	GIFT	635	n/a	n/a	0	0	0
2600.59	n/a	WORD	1300295	wordpools/wasnorm_wordpool_576.txt	LTP310	ltpFR2	5	11	SCALPEL	1243	n/a	n/a	0	0	0
2603.16	n/a	WORD	1301580	wordpools/wasnorm_wordpool_576.txt	LTP310	ltpFR2	5	11	CIGAR	308	n/a	n/a	0	0	0
2605.878	n/a	WORD	1302939	wordpools/wasnorm_wordpool_576.txt	LTP310	ltpFR2	5	11	FIREPLACE	570	n/a	n/a	0	0	0
2608.52	n/a	WORD	1304260	wordpools/wasnorm_wordpool_576.txt	LTP310	ltpFR2	5	11	DRILL	497	n/a	n/a	0	0	0
2611.24	n/a	WORD	1305620	wordpools/wasnorm_wordpool_576.txt	LTP310	ltpFR2	5	11	BANKER	84	n/a	n/a	0	0	0
2613.908	n/a	WORD	1306954	wordpools/wasnorm_wordpool_576.txt	LTP310	ltpFR2	5	11	BRANDY	169	n/a	n/a	0	0	0
2616.52	n/a	WORD	1308260	wordpools/wasnorm_wordpool_576.txt	LTP310	ltpFR2	5	11	CHAMPAGNE	278	n/a	n/a	0	0	0
2619.214	n/a	WORD	1309607	wordpools/wasnorm_wordpool_576.txt	LTP310	ltpFR2	5	11	STATUE	1374	n/a	n/a	0	0	0
2621.924	n/a	WORD	1310962	wordpools/wasnorm_wordpool_576.txt	LTP310	ltpFR2	5	11	CAMEL	223	n/a	n/a	0	0	0
2624.694	n/a	WORD	1312347	wordpools/wasnorm_wordpool_576.txt	LTP310	ltpFR2	5	11	SHELTER	1282	n/a	n/a	0	0	0
2627.262	n/a	WORD	1313631	wordpools/wasnorm_wordpool_576.txt	LTP310	ltpFR2	5	11	BOX	159	n/a	n/a	0	0	0
2628.87	n/a	START	1314435	n/a	LTP310	ltpFR2	5	n/a	n/a	n/a	18	n/a	n/a	n/a	n/a
2629.74	n/a	DISTRACTOR	1314870	n/a	LTP310	ltpFR2	5	11	n/a	n/a	n/a	n/a	0	0	0
2629.748	n/a	PROB	1314874	n/a	LTP310	ltpFR2	5	n/a	n/a	n/a	18	14	2	3	9
2631.804	n/a	PROB	1315902	n/a	LTP310	ltpFR2	5	n/a	n/a	n/a	18	17	2	8	7
2633.338	n/a	PROB	1316669	n/a	LTP310	ltpFR2	5	n/a	n/a	n/a	18	17	3	9	5
2634.974	n/a	PROB	1317487	n/a	LTP310	ltpFR2	5	n/a	n/a	n/a	18	10	1	6	3
2636.474	n/a	PROB	1318237	n/a	LTP310	ltpFR2	5	n/a	n/a	n/a	18	21	6	7	8
2638.46	n/a	PROB	1319230	n/a	LTP310	ltpFR2	5	n/a	n/a	n/a	18	9	1	6	2
2639.862	n/a	PROB	1319931	n/a	LTP310	ltpFR2	5	n/a	n/a	n/a	18	23	5	9	9
2642.83	n/a	PROB	1321415	n/a	LTP310	ltpFR2	5	n/a	n/a	n/a	18	18	9	6	3
2645.634	n/a	PROB	1322817	n/a	LTP310	ltpFR2	5	n/a	n/a	n/a	18	25	7	9	9
2647.884	n/a	PROB	1323942	n/a	LTP310	ltpFR2	5	n/a	n/a	n/a	18	21	5	9	7
2650.086	n/a	PROB	1325043	n/a	LTP310	ltpFR2	5	n/a	n/a	n/a	18	22	4	9	9
2651.81	n/a	STOP	1325905	n/a	LTP310	ltpFR2	5	n/a	n/a	n/a	18	n/a	n/a	n/a	n/a
2654.674	n/a	REC_START	1327337	n/a	LTP310	ltpFR2	5	11	n/a	n/a	n/a	n/a	0	0	0
2658.992	n/a	REC_WORD	1329496	wordpools/wasnorm_wordpool_576.txt	LTP310	ltpFR2	5	11	KIDNEY	776	n/a	n/a	0	0	0
2660.006	n/a	REC_WORD	1330003	wordpools/wasnorm_wordpool_576.txt	LTP310	ltpFR2	5	11	WHISKERS	1605	n/a	n/a	0	0	0
2661.326	n/a	REC_WORD	1330663	wordpools/wasnorm_wordpool_576.txt	LTP310	ltpFR2	5	11	DENTIST	447	n/a	n/a	0	0	0
2662.94	n/a	REC_WORD	1331470	wordpools/wasnorm_wordpool_576.txt	LTP310	ltpFR2	5	11	BANJO	82	n/a	n/a	0	0	0
2663.848	n/a	REC_WORD	1331924	wordpools/wasnorm_wordpool_576.txt	LTP310	ltpFR2	5	11	FOOTBALL	591	n/a	n/a	0	0	0
2664.848	n/a	REC_WORD_VV	1332424	wordpools/wasnorm_wordpool_576.txt	LTP310	ltpFR2	5	11	<>	-1	n/a	n/a	0	0	0
2665.498	n/a	REC_WORD	1332749	wordpools/wasnorm_wordpool_576.txt	LTP310	ltpFR2	5	11	CASHEW	253	n/a	n/a	0	0	0
2666.498	n/a	REC_WORD_VV	1333249	wordpools/wasnorm_wordpool_576.txt	LTP310	ltpFR2	5	11	<>	-1	n/a	n/a	0	0	0
2669.23	n/a	REC_WORD	1334615	wordpools/wasnorm_wordpool_576.txt	LTP310	ltpFR2	5	11	THRONE	1461	n/a	n/a	0	0	0
2673.368	n/a	REC_WORD	1336684	wordpools/wasnorm_wordpool_576.txt	LTP310	ltpFR2	5	11	FOX	598	n/a	n/a	0	0	0
2674.494	n/a	REC_WORD	1337247	wordpools/wasnorm_wordpool_576.txt	LTP310	ltpFR2	5	11	MILDEW	893	n/a	n/a	0	0	0
2675.73	n/a	REC_WORD	1337865	wordpools/wasnorm_wordpool_576.txt	LTP310	ltpFR2	5	11	MONSTER	912	n/a	n/a	0	0	0
2677.056	n/a	REC_WORD	1338528	wordpools/wasnorm_wordpool_576.txt	LTP310	ltpFR2	5	11	ASIA	46	n/a	n/a	0	0	0
2679.564	n/a	REC_WORD	1339782	wordpools/wasnorm_wordpool_576.txt	LTP310	ltpFR2	5	11	PLASTER	1085	n/a	n/a	0	0	0
2681.04	n/a	REC_WORD	1340520	wordpools/wasnorm_wordpool_576.txt	LTP310	ltpFR2	5	11	GIFT	635	n/a	n/a	0	0	0
2682.33	n/a	REC_WORD	1341165	wordpools/wasnorm_wordpool_576.txt	LTP310	ltpFR2	5	11	SCALPEL	1243	n/a	n/a	0	0	0
2689.406	n/a	REC_WORD	1344703	wordpools/wasnorm_wordpool_576.txt	LTP310	ltpFR2	5	11	DRILL	497	n/a	n/a	0	0	0
2690.566	n/a	REC_WORD	1345283	wordpools/wasnorm_wordpool_576.txt	LTP310	ltpFR2	5	11	BANKER	84	n/a	n/a	0	0	0
2692.344	n/a	REC_WORD	1346172	wordpools/wasnorm_wordpool_576.txt	LTP310	ltpFR2	5	11	BRANDY	169	n/a	n/a	0	0	0
2693.518	n/a	REC_WORD	1346759	wordpools/wasnorm_wordpool_576.txt	LTP310	ltpFR2	5	11	CHAMPAGNE	278	n/a	n/a	0	0	0
2694.518	n/a	REC_WORD_VV	1347259	wordpools/wasnorm_wordpool_576.txt	LTP310	ltpFR2	5	11	<>	-1	n/a	n/a	0	0	0
2745.128	n/a	WORD	1372564	wordpools/wasnorm_wordpool_576.txt	LTP310	ltpFR2	5	12	STUDENT	1395	n/a	n/a	0	0	0
2747.562	n/a	WORD	1373781	wordpools/wasnorm_wordpool_576.txt	LTP310	ltpFR2	5	12	POCKET	1093	n/a	n/a	0	0	0
2750.314	n/a	WORD	1375157	wordpools/wasnorm_wordpool_576.txt	LTP310	ltpFR2	5	12	WAITRESS	1581	n/a	n/a	0	0	0
2752.85	n/a	WORD	1376425	wordpools/wasnorm_wordpool_576.txt	LTP310	ltpFR2	5	12	CAPTIVE	240	n/a	n/a	0	0	0
2755.386	n/a	WORD	1377693	wordpools/wasnorm_wordpool_576.txt	LTP310	ltpFR2	5	12	SLUG	1329	n/a	n/a	0	0	0
2757.924	n/a	WORD	1378962	wordpools/wasnorm_wordpool_576.txt	LTP310	ltpFR2	5	12	TORTOISE	1486	n/a	n/a	0	0	0
2760.724	n/a	WORD	1380362	wordpools/wasnorm_wordpool_576.txt	LTP310	ltpFR2	5	12	SUSPECT	1415	n/a	n/a	0	0	0
2763.228	n/a	WORD	1381614	wordpools/wasnorm_wordpool_576.txt	LTP310	ltpFR2	5	12	PEANUT	1032	n/a	n/a	0	0	0
2765.91	n/a	WORD	1382955	wordpools/wasnorm_wordpool_576.txt	LTP310	ltpFR2	5	12	JURY	766	n/a	n/a	0	0	0
2768.362	n/a	WORD	1384181	wordpools/wasnorm_wordpool_576.txt	LTP310	ltpFR2	5	12	WITNESS	1618	n/a	n/a	0	0	0
2771.098	n/a	WORD	1385549	wordpools/wasnorm_wordpool_576.txt	LTP310	ltpFR2	5	12	FREEZER	604	n/a	n/a	0	0	0
2773.866	n/a	WORD	1386933	wordpools/wasnorm_wordpool_576.txt	LTP310	ltpFR2	5	12	FLUTE	585	n/a	n/a	0	0	0
2776.568	n/a	WORD	1388284	wordpools/wasnorm_wordpool_576.txt	LTP310	ltpFR2	5	12	POLICE	1098	n/a	n/a	0	0	0
2779.154	n/a	WORD	1389577	wordpools/wasnorm_wordpool_576.txt	LTP310	ltpFR2	5	12	BLUEPRINT	142	n/a	n/a	0	0	0
2781.872	n/a	WORD	1390936	wordpools/wasnorm_wordpool_576.txt	LTP310	ltpFR2	5	12	COURSE	390	n/a	n/a	0	0	0
2784.362	n/a	WORD	1392181	wordpools/wasnorm_wordpool_576.txt	LTP310	ltpFR2	5	12	JAPAN	749	n/a	n/a	0	0	0
2787.066	n/a	WORD	1393533	wordpools/wasnorm_wordpool_576.txt	LTP310	ltpFR2	5	12	CHEST	295	n/a	n/a	0	0	0
2789.796	n/a	WORD	1394898	wordpools/wasnorm_wordpool_576.txt	LTP310	ltpFR2	5	12	CHIPMUNK	304	n/a	n/a	0	0	0
2792.48	n/a	WORD	1396240	wordpools/wasnorm_wordpool_576.txt	LTP310	ltpFR2	5	12	BASEMENT	94	n/a	n/a	0	0	0
2795.118	n/a	WORD	1397559	wordpools/wasnorm_wordpool_576.txt	LTP310	ltpFR2	5	12	PARTNER	1017	n/a	n/a	0	0	0
2797.55	n/a	WORD	1398775	wordpools/wasnorm_wordpool_576.txt	LTP310	ltpFR2	5	12	HEART	697	n/a	n/a	0	0	0
2800.37	n/a	WORD	1400185	wordpools/wasnorm_wordpool_576.txt	LTP310	ltpFR2	5	12	KLEENEX	782	n/a	n/a	0	0	0
2802.804	n/a	WORD	1401402	wordpools/wasnorm_wordpool_576.txt	LTP310	ltpFR2	5	12	DRESS	495	n/a	n/a	0	0	0
2805.392	n/a	WORD	1402696	wordpools/wasnorm_wordpool_576.txt	LTP310	ltpFR2	5	12	TRANSPLANT	1496	n/a	n/a	0	0	0
2806.998	n/a	START	1403499	n/a	LTP310	ltpFR2	5	n/a	n/a	n/a	19	n/a	n/a	n/a	n/a
2807.942	n/a	DISTRACTOR	1403971	n/a	LTP310	ltpFR2	5	12	n/a	n/a	n/a	n/a	0	0	0
2807.95	n/a	PROB	1403975	n/a	LTP310	ltpFR2	5	n/a	n/a	n/a	19	17	6	6	5
2809.928	n/a	PROB	1404964	n/a	LTP310	ltpFR2	5	n/a	n/a	n/a	19	14	3	3	8
2812.314	n/a	PROB	1406157	n/a	LTP310	ltpFR2	5	n/a	n/a	n/a	19	20	7	8	5
2815.314	n/a	PROB	1407657	n/a	LTP310	ltpFR2	5	n/a	n/a	n/a	19	17	6	4	7
2816.93	n/a	PROB	1408465	n/a	LTP310	ltpFR2	5	n/a	n/a	n/a	19	11	2	8	1
2818.466	n/a	PROB	1409233	n/a	LTP310	ltpFR2	5	n/a	n/a	n/a	19	24	1	4	9
2820.168	n/a	PROB	1410084	n/a	LTP310	ltpFR2	5	n/a	n/a	n/a	19	11	4	5	2
2823.072	n/a	PROB	1411536	n/a	LTP310	ltpFR2	5	n/a	n/a	n/a	19	8	5	2	1
2824.406	n/a	PROB	1412203	n/a	LTP310	ltpFR2	5	n/a	n/a	n/a	19	17	6	6	5
2826.59	n/a	PROB	1413295	n/a	LTP310	ltpFR2	5	n/a	n/a	n/a	19	14	9	4	1
2828.14	n/a	PROB	1414070	n/a	LTP310	ltpFR2	5	n/a	n/a	n/a	19	6	4	1	1
2829.686	n/a	STOP	1414843	n/a	LTP310	ltpFR2	5	n/a	n/a	n/a	19	n/a	n/a	n/a	n/a
2832.83	n/a	REC_START	1416415	n/a	LTP310	ltpFR2	5	12	n/a	n/a	n/a	n/a	0	0	0
2834.934	n/a	REC_WORD	1417467	wordpools/wasnorm_wordpool_576.txt	LTP310	ltpFR2	5	12	STUDENT	1395	n/a	n/a	0	0	0
2836.224	n/a	REC_WORD	1418112	wordpools/wasnorm_wordpool_576.txt	LTP310	ltpFR2	5	12	POCKET	1093	n/a	n/a	0	0	0
2838.142	n/a	REC_WORD	1419071	wordpools/wasnorm_wordpool_576.txt	LTP310	ltpFR2	5	12	WAITRESS	1581	n/a	n/a	0	0	0
2847.554	n/a	REC_WORD	1423777	wordpools/wasnorm_wordpool_576.txt	LTP310	ltpFR2	5	12	KLEENEX	782	n/a	n/a	0	0	0
2848.856	n/a	REC_WORD	1424428	wordpools/wasnorm_wordpool_576.txt	LTP310	ltpFR2	5	12	DRESS	495	n/a	n/a	0	0	0
2849.912	n/a	REC_WORD	1424956	wordpools/wasnorm_wordpool_576.txt	LTP310	ltpFR2	5	12	TORTOISE	1486	n/a	n/a	0	0	0
2853.278	n/a	REC_WORD	1426639	wordpools/wasnorm_wordpool_576.txt	LTP310	ltpFR2	5	12	PEANUT	1032	n/a	n/a	0	0	0
2855.302	n/a	REC_WORD	1427651	wordpools/wasnorm_wordpool_576.txt	LTP310	ltpFR2	5	12	SUSPECT	1415	n/a	n/a	0	0	0
2857.198	n/a	REC_WORD	1428599	wordpools/wasnorm_wordpool_576.txt	LTP310	ltpFR2	5	12	JURY	766	n/a	n/a	0	0	0
2858.774	n/a	REC_WORD	1429387	wordpools/wasnorm_wordpool_576.txt	LTP310	ltpFR2	5	12	WITNESS	1618	n/a	n/a	0	0	0
2860.204	n/a	REC_WORD	1430102	wordpools/wasnorm_wordpool_576.txt	LTP310	ltpFR2	5	12	BASEMENT	94	n/a	n/a	0	0	0
2870.028	n/a	REC_WORD	1435014	wordpools/wasnorm_wordpool_576.txt	LTP310	ltpFR2	5	12	PARTNER	1017	n/a	n/a	0	0	0
2871.1	n/a	REC_WORD	1435550	wordpools/wasnorm_wordpool_576.txt	LTP310	ltpFR2	5	12	HEART	697	n/a	n/a	0	0	0
2923.296	n/a	WORD	1461648	wordpools/wasnorm_wordpool_576.txt	LTP310	ltpFR2	5	13	FRIAR	605	n/a	n/a	0	0	0
2926.118	n/a	WORD	1463059	wordpools/wasnorm_wordpool_576.txt	LTP310	ltpFR2	5	13	CRIB	407	n/a	n/a	0	0	0
2928.67	n/a	WORD	1464335	wordpools/wasnorm_wordpool_576.txt	LTP310	ltpFR2	5	13	DORM	488	n/a	n/a	0	0	0
2931.172	n/a	WORD	1465586	wordpools/wasnorm_wordpool_576.txt	LTP310	ltpFR2	5	13	GAVEL	627	n/a	n/a	0	0	0
2933.622	n/a	WORD	1466811	wordpools/wasnorm_wordpool_576.txt	LTP310	ltpFR2	5	13	PICTURE	1061	n/a	n/a	0	0	0
2936.092	n/a	WORD	1468046	wordpools/wasnorm_wordpool_576.txt	LTP310	ltpFR2	5	13	GOBLIN	645	n/a	n/a	0	0	0
2938.776	n/a	WORD	1469388	wordpools/wasnorm_wordpool_576.txt	LTP310	ltpFR2	5	13	COWBOY	395	n/a	n/a	0	0	0
2941.312	n/a	WORD	1470656	wordpools/wasnorm_wordpool_576.txt	LTP310	ltpFR2	5	13	EXPERT	543	n/a	n/a	0	0	0
2944.082	n/a	WORD	1472041	wordpools/wasnorm_wordpool_576.txt	LTP310	ltpFR2	5	13	CONCERT	360	n/a	n/a	0	0	0
2946.75	n/a	WORD	1473375	wordpools/wasnorm_wordpool_576.txt	LTP310	ltpFR2	5	13	LUNCH	849	n/a	n/a	0	0	0
2949.204	n/a	WORD	1474602	wordpools/wasnorm_wordpool_576.txt	LTP310	ltpFR2	5	13	SUPPER	1411	n/a	n/a	0	0	0
2951.954	n/a	WORD	1475977	wordpools/wasnorm_wordpool_576.txt	LTP310	ltpFR2	5	13	PARSLEY	1016	n/a	n/a	0	0	0
2954.59	n/a	WORD	1477295	wordpools/wasnorm_wordpool_576.txt	LTP310	ltpFR2	5	13	DRAWING	494	n/a	n/a	0	0	0
2957.292	n/a	WORD	1478646	wordpools/wasnorm_wordpool_576.txt	LTP310	ltpFR2	5	13	QUAIL	1147	n/a	n/a	0	0	0
2959.778	n/a	WORD	1479889	wordpools/wasnorm_wordpool_576.txt	LTP310	ltpFR2	5	13	OUTFIT	988	n/a	n/a	0	0	0
2962.346	n/a	WORD	1481173	wordpools/wasnorm_wordpool_576.txt	LTP310	ltpFR2	5	13	SILK	1307	n/a	n/a	0	0	0
2965.016	n/a	WORD	1482508	wordpools/wasnorm_wordpool_576.txt	LTP310	ltpFR2	5	13	LACE	792	n/a	n/a	0	0	0
2967.45	n/a	WORD	1483725	wordpools/wasnorm_wordpool_576.txt	LTP310	ltpFR2	5	13	SALAD	1224	n/a	n/a	0	0	0
2970.02	n/a	WORD	1485010	wordpools/wasnorm_wordpool_576.txt	LTP310	ltpFR2	5	13	COSTUME	383	n/a	n/a	0	0	0
2972.488	n/a	WORD	1486244	wordpools/wasnorm_wordpool_576.txt	LTP310	ltpFR2	5	13	BALLOON	75	n/a	n/a	0	0	0
2975.142	n/a	WORD	1487571	wordpools/wasnorm_wordpool_576.txt	LTP310	ltpFR2	5	13	PERCH	1048	n/a	n/a	0	0	0
2977.724	n/a	WORD	1488862	wordpools/wasnorm_wordpool_576.txt	LTP310	ltpFR2	5	13	FLAG	573	n/a	n/a	0	0	0
2980.394	n/a	WORD	1490197	wordpools/wasnorm_wordpool_576.txt	LTP310	ltpFR2	5	13	DRAGON	492	n/a	n/a	0	0	0
2982.996	n/a	WORD	1491498	wordpools/wasnorm_wordpool_576.txt	LTP310	ltpFR2	5	13	SWORD	1423	n/a	n/a	0	0	0
2984.614	n/a	START	1492307	n/a	LTP310	ltpFR2	5	n/a	n/a	n/a	20	n/a	n/a	n/a	n/a
2985.464	n/a	DISTRACTOR	1492732	n/a	LTP310	ltpFR2	5	13	n/a	n/a	n/a	n/a	0	0	0
2985.48	n/a	PROB	1492740	n/a	LTP310	ltpFR2	5	n/a	n/a	n/a	20	5	1	3	1
2986.898	n/a	PROB	1493449	n/a	LTP310	ltpFR2	5	n/a	n/a	n/a	20	11	9	1	1
2988.118	n/a	PROB	1494059	n/a	LTP310	ltpFR2	5	n/a	n/a	n/a	20	16	8	4	4
2989.918	n/a	PROB	1494959	n/a	LTP310	ltpFR2	5	n/a	n/a	n/a	20	9	4	3	2
2992.172	n/a	PROB	1496086	n/a	LTP310	ltpFR2	5	n/a	n/a	n/a	20	20	6	6	8
2993.736	n/a	PROB	1496868	n/a	LTP310	ltpFR2	5	n/a	n/a	n/a	20	13	4	4	5
2995.388	n/a	PROB	1497694	n/a	LTP310	ltpFR2	5	n/a	n/a	n/a	20	16	7	1	8
2997.022	n/a	PROB	1498511	n/a	LTP310	ltpFR2	5	n/a	n/a	n/a	20	14	3	8	3
2998.908	n/a	PROB	1499454	n/a	LTP310	ltpFR2	5	n/a	n/a	n/a	20	20	7	7	6
3003.012	n/a	PROB	1501506	n/a	LTP310	ltpFR2	5	n/a	n/a	n/a	20	18	4	6	8
3004.462	n/a	PROB	1502231	n/a	LTP310	ltpFR2	5	n/a	n/a	n/a	20	17	9	3	5
3006.248	n/a	PROB	1503124	n/a	LTP310	ltpFR2	5	n/a	n/a	n/a	20	18	6	3	9
3007.704	n/a	STOP	1503852	n/a	LTP310	ltpFR2	5	n/a	n/a	n/a	20	n/a	n/a	n/a	n/a
3010.534	n/a	REC_START	1505267	n/a	LTP310	ltpFR2	5	13	n/a	n/a	n/a	n/a	0	0	0
3013.01	n/a	REC_WORD	1506505	wordpools/wasnorm_wordpool_576.txt	LTP310	ltpFR2	5	13	FRIAR	605	n/a	n/a	0	0	0
3014.974	n/a	REC_WORD	1507487	wordpools/wasnorm_wordpool_576.txt	LTP310	ltpFR2	5	13	CRIB	407	n/a	n/a	0	0	0
3016.878	n/a	REC_WORD	1508439	wordpools/wasnorm_wordpool_576.txt	LTP310	ltpFR2	5	13	DORM	488	n/a	n/a	0	0	0
3019.198	n/a	REC_WORD	1509599	wordpools/wasnorm_wordpool_576.txt	LTP310	ltpFR2	5	13	PICTURE	1061	n/a	n/a	0	0	0
3024.888	n/a	REC_WORD	1512444	wordpools/wasnorm_wordpool_576.txt	LTP310	ltpFR2	5	13	PARSLEY	1016	n/a	n/a	0	0	0
3027.154	n/a	REC_WORD	1513577	wordpools/wasnorm_wordpool_576.txt	LTP310	ltpFR2	5	13	LUNCH	849	n/a	n/a	0	0	0
3028.392	n/a	REC_WORD	1514196	wordpools/wasnorm_wordpool_576.txt	LTP310	ltpFR2	5	13	SUPPER	1411	n/a	n/a	0	0	0
3030.072	n/a	REC_WORD	1515036	wordpools/wasnorm_wordpool_576.txt	LTP310	ltpFR2	5	13	QUAIL	1147	n/a	n/a	0	0	0
3031.762	n/a	REC_WORD	1515881	wordpools/wasnorm_wordpool_576.txt	LTP310	ltpFR2	5	13	SILK	1307	n/a	n/a	0	0	0
3033.034	n/a	REC_WORD	1516517	wordpools/wasnorm_wordpool_576.txt	LTP310	ltpFR2	5	13	DRAWING	494	n/a	n/a	0	0	0
3034.47	n/a	REC_WORD	1517235	wordpools/wasnorm_wordpool_576.txt	LTP310	ltpFR2	5	13	OUTFIT	988	n/a	n/a	0	0	0
3036.07	n/a	REC_WORD	1518035	wordpools/wasnorm_wordpool_576.txt	LTP310	ltpFR2	5	13	LACE	792	n/a	n/a	0	0	0
3037.538	n/a	REC_WORD	1518769	wordpools/wasnorm_wordpool_576.txt	LTP310	ltpFR2	5	13	COSTUME	383	n/a	n/a	0	0	0
3040.112	n/a	REC_WORD	1520056	wordpools/wasnorm_wordpool_576.txt	LTP310	ltpFR2	5	13	SALAD	1224	n/a	n/a	0	0	0
3043.87	n/a	REC_WORD	1521935	wordpools/wasnorm_wordpool_576.txt	LTP310	ltpFR2	5	13	BALLOON	75	n/a	n/a	0	0	0
3045.594	n/a	REC_WORD	1522797	wordpools/wasnorm_wordpool_576.txt	LTP310	ltpFR2	5	13	PERCH	1048	n/a	n/a	0	0	0
3047.032	n/a	REC_WORD	1523516	wordpools/wasnorm_wordpool_576.txt	LTP310	ltpFR2	5	13	FLAG	573	n/a	n/a	0	0	0
3048.82	n/a	REC_WORD	1524410	wordpools/wasnorm_wordpool_576.txt	LTP310	ltpFR2	5	13	DRAGON	492	n/a	n/a	0	0	0
3050.17	n/a	REC_WORD	1525085	wordpools/wasnorm_wordpool_576.txt	LTP310	ltpFR2	5	13	SWORD	1423	n/a	n/a	0	0	0
3100.954	n/a	DISTRACTOR	1550477	n/a	LTP310	ltpFR2	5	14	n/a	n/a	n/a	n/a	0	0	0
3100.954	n/a	START	1550477	n/a	LTP310	ltpFR2	5	n/a	n/a	n/a	21	n/a	n/a	n/a	n/a
3100.968	n/a	PROB	1550484	n/a	LTP310	ltpFR2	5	n/a	n/a	n/a	21	11	4	1	6
3102.772	n/a	PROB	1551386	n/a	LTP310	ltpFR2	5	n/a	n/a	n/a	21	22	5	8	9
3104.958	n/a	PROB	1552479	n/a	LTP310	ltpFR2	5	n/a	n/a	n/a	21	12	5	5	2
3106.11	n/a	PROB	1553055	n/a	LTP310	ltpFR2	5	n/a	n/a	n/a	21	16	4	6	6
3107.274	n/a	PROB	1553637	n/a	LTP310	ltpFR2	5	n/a	n/a	n/a	21	12	2	9	1
3108.576	n/a	PROB	1554288	n/a	LTP310	ltpFR2	5	n/a	n/a	n/a	21	17	3	9	5
3109.978	n/a	PROB	1554989	n/a	LTP310	ltpFR2	5	n/a	n/a	n/a	21	18	6	8	4
3111.31	n/a	PROB	1555655	n/a	LTP310	ltpFR2	5	n/a	n/a	n/a	21	17	4	7	6
3112.962	n/a	PROB	1556481	n/a	LTP310	ltpFR2	5	n/a	n/a	n/a	21	10	3	1	6
3114.73	n/a	PROB	1557365	n/a	LTP310	ltpFR2	5	n/a	n/a	n/a	21	22	7	7	8
3116.366	n/a	PROB	1558183	n/a	LTP310	ltpFR2	5	n/a	n/a	n/a	21	19	4	8	7
3117.834	n/a	PROB	1558917	n/a	LTP310	ltpFR2	5	n/a	n/a	n/a	21	22	9	9	4
3119.752	n/a	PROB	1559876	n/a	LTP310	ltpFR2	5	n/a	n/a	n/a	21	15	4	5	6
3121.17	n/a	PROB	1560585	n/a	LTP310	ltpFR2	5	n/a	n/a	n/a	21	11	2	4	5
3122.956	n/a	PROB	1561478	n/a	LTP310	ltpFR2	5	n/a	n/a	n/a	21	13	5	7	1
3124.554	n/a	STOP	1562277	n/a	LTP310	ltpFR2	5	n/a	n/a	n/a	21	n/a	n/a	n/a	n/a
3125.808	n/a	WORD	1562904	wordpools/wasnorm_wordpool_576.txt	LTP310	ltpFR2	5	14	SNAKE	1333	n/a	n/a	0	0	0
3128.32	n/a	WORD	1564160	wordpools/wasnorm_wordpool_576.txt	LTP310	ltpFR2	5	14	LASER	801	n/a	n/a	0	0	0
3130.772	n/a	WORD	1565386	wordpools/wasnorm_wordpool_576.txt	LTP310	ltpFR2	5	14	BULLET	194	n/a	n/a	0	0	0
3133.308	n/a	WORD	1566654	wordpools/wasnorm_wordpool_576.txt	LTP310	ltpFR2	5	14	SLIME	1327	n/a	n/a	0	0	0
3135.862	n/a	WORD	1567931	wordpools/wasnorm_wordpool_576.txt	LTP310	ltpFR2	5	14	FUNGUS	614	n/a	n/a	0	0	0
3138.362	n/a	WORD	1569181	wordpools/wasnorm_wordpool_576.txt	LTP310	ltpFR2	5	14	LODGE	839	n/a	n/a	0	0	0
3140.898	n/a	WORD	1570449	wordpools/wasnorm_wordpool_576.txt	LTP310	ltpFR2	5	14	RECEIPT	1173	n/a	n/a	0	0	0
3143.538	n/a	WORD	1571769	wordpools/wasnorm_wordpool_576.txt	LTP310	ltpFR2	5	14	BUCKET	184	n/a	n/a	0	0	0
3146.186	n/a	WORD	1573093	wordpools/wasnorm_wordpool_576.txt	LTP310	ltpFR2	5	14	CROSS	413	n/a	n/a	0	0	0
3148.988	n/a	WORD	1574494	wordpools/wasnorm_wordpool_576.txt	LTP310	ltpFR2	5	14	TAXI	1438	n/a	n/a	0	0	0
3151.574	n/a	WORD	1575787	wordpools/wasnorm_wordpool_576.txt	LTP310	ltpFR2	5	14	CLOTHES	327	n/a	n/a	0	0	0
3154.026	n/a	WORD	1577013	wordpools/wasnorm_wordpool_576.txt	LTP310	ltpFR2	5	14	PORTRAIT	1111	n/a	n/a	0	0	0
3156.762	n/a	WORD	1578381	wordpools/wasnorm_wordpool_576.txt	LTP310	ltpFR2	5	14	TABLE	1426	n/a	n/a	0	0	0
3159.314	n/a	WORD	1579657	wordpools/wasnorm_wordpool_576.txt	LTP310	ltpFR2	5	14	BRACES	164	n/a	n/a	0	0	0
3161.918	n/a	WORD	1580959	wordpools/wasnorm_wordpool_576.txt	LTP310	ltpFR2	5	14	SNAIL	1332	n/a	n/a	0	0	0
3164.734	n/a	WORD	1582367	wordpools/wasnorm_wordpool_576.txt	LTP310	ltpFR2	5	14	TURKEY	1520	n/a	n/a	0	0	0
3167.254	n/a	WORD	1583627	wordpools/wasnorm_wordpool_576.txt	LTP310	ltpFR2	5	14	COFFEE	341	n/a	n/a	0	0	0
3170.074	n/a	WORD	1585037	wordpools/wasnorm_wordpool_576.txt	LTP310	ltpFR2	5	14	PISTOL	1075	n/a	n/a	0	0	0
3172.558	n/a	WORD	1586279	wordpools/wasnorm_wordpool_576.txt	LTP310	ltpFR2	5	14	MAILBOX	857	n/a	n/a	0	0	0
3175.028	n/a	WORD	1587514	wordpools/wasnorm_wordpool_576.txt	LTP310	ltpFR2	5	14	MESSAGE	888	n/a	n/a	0	0	0
3177.664	n/a	WORD	1588832	wordpools/wasnorm_wordpool_576.txt	LTP310	ltpFR2	5	14	STAMP	1370	n/a	n/a	0	0	0
3180.416	n/a	WORD	1590208	wordpools/wasnorm_wordpool_576.txt	LTP310	ltpFR2	5	14	SPONGE	1355	n/a	n/a	0	0	0
3183.07	n/a	WORD	1591535	wordpools/wasnorm_wordpool_576.txt	LTP310	ltpFR2	5	14	DINER	467	n/a	n/a	0	0	0
3185.668	n/a	WORD	1592834	wordpools/wasnorm_wordpool_576.txt	LTP310	ltpFR2	5	14	AWARD	63	n/a	n/a	0	0	0
3187.288	n/a	START	1593644	n/a	LTP310	ltpFR2	5	n/a	n/a	n/a	22	n/a	n/a	n/a	n/a
3188.27	n/a	DISTRACTOR	1594135	n/a	LTP310	ltpFR2	5	14	n/a	n/a	n/a	n/a	0	0	0
3188.288	n/a	PROB	1594144	n/a	LTP310	ltpFR2	5	n/a	n/a	n/a	22	24	8	9	7
3190.89	n/a	PROB	1595445	n/a	LTP310	ltpFR2	5	n/a	n/a	n/a	22	14	8	3	3
3192.642	n/a	PROB	1596321	n/a	LTP310	ltpFR2	5	n/a	n/a	n/a	22	13	4	2	7
3195.928	n/a	PROB	1597964	n/a	LTP310	ltpFR2	5	n/a	n/a	n/a	22	14	3	2	9
3197.696	n/a	PROB	1598848	n/a	LTP310	ltpFR2	5	n/a	n/a	n/a	22	19	7	8	4
3199.482	n/a	PROB	1599741	n/a	LTP310	ltpFR2	5	n/a	n/a	n/a	22	22	5	9	8
3201.882	n/a	PROB	1600941	n/a	LTP310	ltpFR2	5	n/a	n/a	n/a	22	17	8	2	7
3203.234	n/a	PROB	1601617	n/a	LTP310	ltpFR2	5	n/a	n/a	n/a	22	19	6	8	5
3205.484	n/a	PROB	1602742	n/a	LTP310	ltpFR2	5	n/a	n/a	n/a	22	14	1	7	6
3207.252	n/a	PROB	1603626	n/a	LTP310	ltpFR2	5	n/a	n/a	n/a	22	21	5	9	7
3211.288	n/a	STOP	1605644	n/a	LTP310	ltpFR2	5	n/a	n/a	n/a	22	n/a	n/a	n/a	n/a
3213.076	n/a	REC_START	1606538	n/a	LTP310	ltpFR2	5	14	n/a	n/a	n/a	n/a	0	0	0
3219.812	n/a	REC_WORD	1609906	wordpools/wasnorm_wordpool_576.txt	LTP310	ltpFR2	5	14	SNAKE	1333	n/a	n/a	0	0	0
3220.812	n/a	REC_WORD_VV	1610406	wordpools/wasnorm_wordpool_576.txt	LTP310	ltpFR2	5	14	<>	-1	n/a	n/a	0	0	0
3222.086	n/a	REC_WORD	1611043	wordpools/wasnorm_wordpool_576.txt	LTP310	ltpFR2	5	14	SLIME	1327	n/a	n/a	0	0	0
3223.086	n/a	REC_WORD_VV	1611543	wordpools/wasnorm_wordpool_576.txt	LTP310	ltpFR2	5	14	<>	-1	n/a	n/a	0	0	0
3226.07	n/a	REC_WORD_VV	1613035	wordpools/wasnorm_wordpool_576.txt	LTP310	ltpFR2	5	14	<>	-1	n/a	n/a	0	0	0
3226.666	n/a	REC_WORD	1613333	wordpools/wasnorm_wordpool_576.txt	LTP310	ltpFR2	5	14	LASER	801	n/a	n/a	0	0	0
3228.406	n/a	REC_WORD	1614203	wordpools/wasnorm_wordpool_576.txt	LTP310	ltpFR2	5	14	BULLET	194	n/a	n/a	0	0	0
3230.486	n/a	REC_WORD	1615243	wordpools/wasnorm_wordpool_576.txt	LTP310	ltpFR2	5	14	LODGE	839	n/a	n/a	0	0	0
3232.336	n/a	REC_WORD	1616168	wordpools/wasnorm_wordpool_576.txt	LTP310	ltpFR2	5	14	FUNGUS	614	n/a	n/a	0	0	0
3234.888	n/a	REC_WORD	1617444	wordpools/wasnorm_wordpool_576.txt	LTP310	ltpFR2	5	14	BRACES	164	n/a	n/a	0	0	0
3237.18	n/a	REC_WORD	1618590	wordpools/wasnorm_wordpool_576.txt	LTP310	ltpFR2	5	14	RECEIPT	1173	n/a	n/a	0	0	0
3240.4	n/a	REC_WORD	1620200	wordpools/wasnorm_wordpool_576.txt	LTP310	ltpFR2	5	14	PISTOL	1075	n/a	n/a	0	0	0
3242.864	n/a	REC_WORD_VV	1621432	wordpools/wasnorm_wordpool_576.txt	LTP310	ltpFR2	5	14	<>	-1	n/a	n/a	0	0	0
3243.98	n/a	REC_WORD	1621990	wordpools/wasnorm_wordpool_576.txt	LTP310	ltpFR2	5	14	PORTRAIT	1111	n/a	n/a	0	0	0
3244.98	n/a	REC_WORD_VV	1622490	wordpools/wasnorm_wordpool_576.txt	LTP310	ltpFR2	5	14	<>	-1	n/a	n/a	0	0	0
3248.316	n/a	REC_WORD	1624158	wordpools/wasnorm_wordpool_576.txt	LTP310	ltpFR2	5	14	CROSS	413	n/a	n/a	0	0	0
3251.744	n/a	REC_WORD	1625872	wordpools/wasnorm_wordpool_576.txt	LTP310	ltpFR2	5	14	TABLE	1426	n/a	n/a	0	0	0
3253.582	n/a	REC_WORD	1626791	wordpools/wasnorm_wordpool_576.txt	LTP310	ltpFR2	5	14	SNAIL	1332	n/a	n/a	0	0	0
3254.582	n/a	REC_WORD_VV	1627291	wordpools/wasnorm_wordpool_576.txt	LTP310	ltpFR2	5	14	<>	-1	n/a	n/a	0	0	0
3303.512	n/a	WORD	1651756	wordpools/wasnorm_wordpool_576.txt	LTP310	ltpFR2	5	15	SCALLOP	1242	n/a	n/a	0	0	0
3306.23	n/a	WORD	1653115	wordpools/wasnorm_wordpool_576.txt	LTP310	ltpFR2	5	15	MONEY	908	n/a	n/a	0	0	0
3308.682	n/a	WORD	1654341	wordpools/wasnorm_wordpool_576.txt	LTP310	ltpFR2	5	15	CASHIER	254	n/a	n/a	0	0	0
3311.184	n/a	WORD	1655592	wordpools/wasnorm_wordpool_576.txt	LTP310	ltpFR2	5	15	PRINCESS	1125	n/a	n/a	0	0	0
3313.62	n/a	WORD	1656810	wordpools/wasnorm_wordpool_576.txt	LTP310	ltpFR2	5	15	PARENT	1013	n/a	n/a	0	0	0
3316.18	n/a	WORD	1658090	wordpools/wasnorm_wordpool_576.txt	LTP310	ltpFR2	5	15	FEMALE	559	n/a	n/a	0	0	0
3318.632	n/a	WORD	1659316	wordpools/wasnorm_wordpool_576.txt	LTP310	ltpFR2	5	15	FINGER	567	n/a	n/a	0	0	0
3321.318	n/a	WORD	1660659	wordpools/wasnorm_wordpool_576.txt	LTP310	ltpFR2	5	15	DIME	466	n/a	n/a	0	0	0
3323.904	n/a	WORD	1661952	wordpools/wasnorm_wordpool_576.txt	LTP310	ltpFR2	5	15	COD	340	n/a	n/a	0	0	0
3326.614	n/a	WORD	1663307	wordpools/wasnorm_wordpool_576.txt	LTP310	ltpFR2	5	15	SCARF	1246	n/a	n/a	0	0	0
3329.076	n/a	WORD	1664538	wordpools/wasnorm_wordpool_576.txt	LTP310	ltpFR2	5	15	MUMMY	932	n/a	n/a	0	0	0
3331.834	n/a	WORD	1665917	wordpools/wasnorm_wordpool_576.txt	LTP310	ltpFR2	5	15	CANDY	230	n/a	n/a	0	0	0
3334.586	n/a	WORD	1667293	wordpools/wasnorm_wordpool_576.txt	LTP310	ltpFR2	5	15	GARBAGE	622	n/a	n/a	0	0	0
3337.33	n/a	WORD	1668665	wordpools/wasnorm_wordpool_576.txt	LTP310	ltpFR2	5	15	COUCH	386	n/a	n/a	0	0	0
3339.824	n/a	WORD	1669912	wordpools/wasnorm_wordpool_576.txt	LTP310	ltpFR2	5	15	VELVET	1555	n/a	n/a	0	0	0
3342.552	n/a	WORD	1671276	wordpools/wasnorm_wordpool_576.txt	LTP310	ltpFR2	5	15	TILE	1468	n/a	n/a	0	0	0
3345.064	n/a	WORD	1672532	wordpools/wasnorm_wordpool_576.txt	LTP310	ltpFR2	5	15	BUGGY	188	n/a	n/a	0	0	0
3347.562	n/a	WORD	1673781	wordpools/wasnorm_wordpool_576.txt	LTP310	ltpFR2	5	15	FILM	565	n/a	n/a	0	0	0
3350.314	n/a	WORD	1675157	wordpools/wasnorm_wordpool_576.txt	LTP310	ltpFR2	5	15	ACTRESS	6	n/a	n/a	0	0	0
3352.894	n/a	WORD	1676447	wordpools/wasnorm_wordpool_576.txt	LTP310	ltpFR2	5	15	MAPLE	866	n/a	n/a	0	0	0
3355.57	n/a	WORD	1677785	wordpools/wasnorm_wordpool_576.txt	LTP310	ltpFR2	5	15	HAND	683	n/a	n/a	0	0	0
3358.14	n/a	WORD	1679070	wordpools/wasnorm_wordpool_576.txt	LTP310	ltpFR2	5	15	BLOUSE	139	n/a	n/a	0	0	0
3360.774	n/a	WORD	1680387	wordpools/wasnorm_wordpool_576.txt	LTP310	ltpFR2	5	15	AIRPORT	13	n/a	n/a	0	0	0
3363.386	n/a	WORD	1681693	wordpools/wasnorm_wordpool_576.txt	LTP310	ltpFR2	5	15	APRON	35	n/a	n/a	0	0	0
3364.994	n/a	START	1682497	n/a	LTP310	ltpFR2	5	n/a	n/a	n/a	23	n/a	n/a	n/a	n/a
3366.076	n/a	DISTRACTOR	1683038	n/a	LTP310	ltpFR2	5	15	n/a	n/a	n/a	n/a	0	0	0
3366.09	n/a	PROB	1683045	n/a	LTP310	ltpFR2	5	n/a	n/a	n/a	23	27	9	9	9
3367.894	n/a	PROB	1683947	n/a	LTP310	ltpFR2	5	n/a	n/a	n/a	23	13	1	4	8
3369.628	n/a	PROB	1684814	n/a	LTP310	ltpFR2	5	n/a	n/a	n/a	23	12	1	8	3
3372.8	n/a	PROB	1686400	n/a	LTP310	ltpFR2	5	n/a	n/a	n/a	23	23	9	7	7
3375.368	n/a	PROB	1687684	n/a	LTP310	ltpFR2	5	n/a	n/a	n/a	23	13	6	1	6
3377.67	n/a	PROB	1688835	n/a	LTP310	ltpFR2	5	n/a	n/a	n/a	23	16	8	6	2
3378.986	n/a	PROB	1689493	n/a	LTP310	ltpFR2	5	n/a	n/a	n/a	23	14	9	3	2
3381.124	n/a	PROB	1690562	n/a	LTP310	ltpFR2	5	n/a	n/a	n/a	23	16	2	7	7
3383.404	n/a	PROB	1691702	n/a	LTP310	ltpFR2	5	n/a	n/a	n/a	23	16	7	8	1
3385.47	n/a	PROB	1692735	n/a	LTP310	ltpFR2	5	n/a	n/a	n/a	23	16	9	3	4
3387.106	n/a	PROB	1693553	n/a	LTP310	ltpFR2	5	n/a	n/a	n/a	23	6	3	2	1
3388.342	n/a	STOP	1694171	n/a	LTP310	ltpFR2	5	n/a	n/a	n/a	23	n/a	n/a	n/a	n/a
3390.798	n/a	REC_START	1695399	n/a	LTP310	ltpFR2	5	15	n/a	n/a	n/a	n/a	0	0	0
3393.484	n/a	REC_WORD	1696742	wordpools/wasnorm_wordpool_576.txt	LTP310	ltpFR2	5	15	SCALLOP	1242	n/a	n/a	0	0	0
3395.218	n/a	REC_WORD	1697609	wordpools/wasnorm_wordpool_576.txt	LTP310	ltpFR2	5	15	MONEY	908	n/a	n/a	0	0	0
3396.536	n/a	REC_WORD	1698268	wordpools/wasnorm_wordpool_576.txt	LTP310	ltpFR2	5	15	CASHIER	254	n/a	n/a	0	0	0
3398.116	n/a	REC_WORD	1699058	wordpools/wasnorm_wordpool_576.txt	LTP310	ltpFR2	5	15	PRINCESS	1125	n/a	n/a	0	0	0
3399.116	n/a	REC_WORD_VV	1699558	wordpools/wasnorm_wordpool_576.txt	LTP310	ltpFR2	5	15	<>	-1	n/a	n/a	0	0	0
3403.618	n/a	REC_WORD	1701809	wordpools/wasnorm_wordpool_576.txt	LTP310	ltpFR2	5	15	FINGER	567	n/a	n/a	0	0	0
3405.226	n/a	REC_WORD	1702613	wordpools/wasnorm_wordpool_576.txt	LTP310	ltpFR2	5	15	DIME	466	n/a	n/a	0	0	0
3408.774	n/a	REC_WORD	1704387	wordpools/wasnorm_wordpool_576.txt	LTP310	ltpFR2	5	15	COD	340	n/a	n/a	0	0	0
3410.318	n/a	REC_WORD	1705159	wordpools/wasnorm_wordpool_576.txt	LTP310	ltpFR2	5	15	PARENT	1013	n/a	n/a	0	0	0
3481.266	n/a	WORD	1740633	wordpools/wasnorm_wordpool_576.txt	LTP310	ltpFR2	5	16	LIZARD	834	n/a	n/a	0	0	0
3483.986	n/a	WORD	1741993	wordpools/wasnorm_wordpool_576.txt	LTP310	ltpFR2	5	16	OUTDOORS	987	n/a	n/a	0	0	0
3486.588	n/a	WORD	1743294	wordpools/wasnorm_wordpool_576.txt	LTP310	ltpFR2	5	16	HORSE	719	n/a	n/a	0	0	0
3489.324	n/a	WORD	1744662	wordpools/wasnorm_wordpool_576.txt	LTP310	ltpFR2	5	16	TEMPLE	1448	n/a	n/a	0	0	0
3491.944	n/a	WORD	1745972	wordpools/wasnorm_wordpool_576.txt	LTP310	ltpFR2	5	16	CHURCH	307	n/a	n/a	0	0	0
3494.564	n/a	WORD	1747282	wordpools/wasnorm_wordpool_576.txt	LTP310	ltpFR2	5	16	VIRUS	1572	n/a	n/a	0	0	0
3497.048	n/a	WORD	1748524	wordpools/wasnorm_wordpool_576.txt	LTP310	ltpFR2	5	16	GLASS	639	n/a	n/a	0	0	0
3499.732	n/a	WORD	1749866	wordpools/wasnorm_wordpool_576.txt	LTP310	ltpFR2	5	16	SUITCASE	1403	n/a	n/a	0	0	0
3502.45	n/a	WORD	1751225	wordpools/wasnorm_wordpool_576.txt	LTP310	ltpFR2	5	16	LUGGAGE	847	n/a	n/a	0	0	0
3505.204	n/a	WORD	1752602	wordpools/wasnorm_wordpool_576.txt	LTP310	ltpFR2	5	16	POISON	1096	n/a	n/a	0	0	0
3507.726	n/a	WORD	1753863	wordpools/wasnorm_wordpool_576.txt	LTP310	ltpFR2	5	16	FRUIT	610	n/a	n/a	0	0	0
3510.374	n/a	WORD	1755187	wordpools/wasnorm_wordpool_576.txt	LTP310	ltpFR2	5	16	GRAPE	654	n/a	n/a	0	0	0
3512.896	n/a	WORD	1756448	wordpools/wasnorm_wordpool_576.txt	LTP310	ltpFR2	5	16	BACON	67	n/a	n/a	0	0	0
3515.648	n/a	WORD	1757824	wordpools/wasnorm_wordpool_576.txt	LTP310	ltpFR2	5	16	WINDOW	1611	n/a	n/a	0	0	0
3518.08	n/a	WORD	1759040	wordpools/wasnorm_wordpool_576.txt	LTP310	ltpFR2	5	16	GRILL	661	n/a	n/a	0	0	0
3520.598	n/a	WORD	1760299	wordpools/wasnorm_wordpool_576.txt	LTP310	ltpFR2	5	16	HEDGE	699	n/a	n/a	0	0	0
3523.168	n/a	WORD	1761584	wordpools/wasnorm_wordpool_576.txt	LTP310	ltpFR2	5	16	HOOD	714	n/a	n/a	0	0	0
3525.952	n/a	WORD	1762976	wordpools/wasnorm_wordpool_576.txt	LTP310	ltpFR2	5	16	LIGHTNING	820	n/a	n/a	0	0	0
3528.376	n/a	WORD	1764188	wordpools/wasnorm_wordpool_576.txt	LTP310	ltpFR2	5	16	ROD	1203	n/a	n/a	0	0	0
3531.03	n/a	WORD	1765515	wordpools/wasnorm_wordpool_576.txt	LTP310	ltpFR2	5	16	BUREAU	199	n/a	n/a	0	0	0
3533.808	n/a	WORD	1766904	wordpools/wasnorm_wordpool_576.txt	LTP310	ltpFR2	5	16	POSTAGE	1113	n/a	n/a	0	0	0
3536.394	n/a	WORD	1768197	wordpools/wasnorm_wordpool_576.txt	LTP310	ltpFR2	5	16	ROOSTER	1209	n/a	n/a	0	0	0
3539.02	n/a	WORD	1769510	wordpools/wasnorm_wordpool_576.txt	LTP310	ltpFR2	5	16	MARROW	872	n/a	n/a	0	0	0
3541.682	n/a	WORD	1770841	wordpools/wasnorm_wordpool_576.txt	LTP310	ltpFR2	5	16	COBRA	336	n/a	n/a	0	0	0
3543.29	n/a	START	1771645	n/a	LTP310	ltpFR2	5	n/a	n/a	n/a	24	n/a	n/a	n/a	n/a
3544.204	n/a	DISTRACTOR	1772102	n/a	LTP310	ltpFR2	5	16	n/a	n/a	n/a	n/a	0	0	0
3544.208	n/a	PROB	1772104	n/a	LTP310	ltpFR2	5	n/a	n/a	n/a	24	21	7	9	5
3547.252	n/a	PROB	1773626	n/a	LTP310	ltpFR2	5	n/a	n/a	n/a	24	16	3	9	4
3548.718	n/a	PROB	1774359	n/a	LTP310	ltpFR2	5	n/a	n/a	n/a	24	18	3	7	8
3549.97	n/a	PROB	1774985	n/a	LTP310	ltpFR2	5	n/a	n/a	n/a	24	13	8	1	4
3551.488	n/a	PROB	1775744	n/a	LTP310	ltpFR2	5	n/a	n/a	n/a	24	14	2	5	7
3552.788	n/a	PROB	1776394	n/a	LTP310	ltpFR2	5	n/a	n/a	n/a	24	17	5	3	9
3554.238	n/a	PROB	1777119	n/a	LTP310	ltpFR2	5	n/a	n/a	n/a	24	15	8	4	3
3556.192	n/a	PROB	1778096	n/a	LTP310	ltpFR2	5	n/a	n/a	n/a	24	15	6	5	4
3559.11	n/a	PROB	1779555	n/a	LTP310	ltpFR2	5	n/a	n/a	n/a	24	12	3	3	6
3562.08	n/a	PROB	1781040	n/a	LTP310	ltpFR2	5	n/a	n/a	n/a	24	20	8	7	5
3564.248	n/a	PROB	1782124	n/a	LTP310	ltpFR2	5	n/a	n/a	n/a	24	15	8	1	6
3566.21	n/a	STOP	1783105	n/a	LTP310	ltpFR2	5	n/a	n/a	n/a	24	n/a	n/a	n/a	n/a
3569.204	n/a	REC_START	1784602	n/a	LTP310	ltpFR2	5	16	n/a	n/a	n/a	n/a	0	0	0
3571.062	n/a	REC_WORD	1785531	wordpools/wasnorm_wordpool_576.txt	LTP310	ltpFR2	5	16	LIZARD	834	n/a	n/a	0	0	0
3572.53	n/a	REC_WORD	1786265	wordpools/wasnorm_wordpool_576.txt	LTP310	ltpFR2	5	16	OUTDOORS	987	n/a	n/a	0	0	0
3574.04	n/a	REC_WORD	1787020	wordpools/wasnorm_wordpool_576.txt	LTP310	ltpFR2	5	16	HORSE	719	n/a	n/a	0	0	0
3575.624	n/a	REC_WORD	1787812	wordpools/wasnorm_wordpool_576.txt	LTP310	ltpFR2	5	16	TEMPLE	1448	n/a	n/a	0	0	0
3577.146	n/a	REC_WORD	1788573	wordpools/wasnorm_wordpool_576.txt	LTP310	ltpFR2	5	16	CHURCH	307	n/a	n/a	0	0	0
3580.648	n/a	REC_WORD	1790324	wordpools/wasnorm_wordpool_576.txt	LTP310	ltpFR2	5	16	SUITCASE	1403	n/a	n/a	0	0	0
3581.692	n/a	REC_WORD	1790846	wordpools/wasnorm_wordpool_576.txt	LTP310	ltpFR2	5	16	LUGGAGE	847	n/a	n/a	0	0	0
3582.796	n/a	REC_WORD	1791398	wordpools/wasnorm_wordpool_576.txt	LTP310	ltpFR2	5	16	VIRUS	1572	n/a	n/a	0	0	0
3584.056	n/a	REC_WORD	1792028	wordpools/wasnorm_wordpool_576.txt	LTP310	ltpFR2	5	16	GLASS	639	n/a	n/a	0	0	0
3585.454	n/a	REC_WORD	1792727	wordpools/wasnorm_wordpool_576.txt	LTP310	ltpFR2	5	16	POISON	1096	n/a	n/a	0	0	0
3587.732	n/a	REC_WORD	1793866	wordpools/wasnorm_wordpool_576.txt	LTP310	ltpFR2	5	16	FRUIT	610	n/a	n/a	0	0	0
3589.224	n/a	REC_WORD	1794612	wordpools/wasnorm_wordpool_576.txt	LTP310	ltpFR2	5	16	GRAPE	654	n/a	n/a	0	0	0
