onset	duration	trial_type	sample	stim_file	subject	experiment	session	trial	task	item_name	item_num	recog_resp	recog_conf	resp	color_r	color_g	color_b	case	font
251.864	n/a	SESS_START	125932	n/a	LTP185	ltpFR	5	n/a	n/a	n/a	n/a	0	2	n/a	n/a	n/a	n/a	n/a	n/a
316.01	n/a	WORD	158005	wordpools/wasnorm_wordpool_less_exclusions.txt	LTP185	ltpFR	5	1	0	EUROPE	541	0	n/a	1	0.57763671875	0.412841796875	1	upper	amplitud.ttf
319.922	n/a	WORD	159961	wordpools/wasnorm_wordpool_less_exclusions.txt	LTP185	ltpFR	5	1	0	DESK	452	n/a	n/a	1	0.57763671875	0.412841796875	1	upper	amplitud.ttf
324.14	n/a	WORD	162070	wordpools/wasnorm_wordpool_less_exclusions.txt	LTP185	ltpFR	5	1	0	COLT	349	n/a	n/a	1	0.57763671875	0.412841796875	1	upper	amplitud.ttf
328.02	n/a	WORD	164010	wordpools/wasnorm_wordpool_less_exclusions.txt	LTP185	ltpFR	5	1	0	LONDON	843	n/a	n/a	1	0.57763671875	0.412841796875	1	upper	amplitud.ttf
332.07	n/a	WORD	166035	wordpools/wasnorm_wordpool_less_exclusions.txt	LTP185	ltpFR	5	1	1	MOTH	920	n/a	n/a	0	0.422607421875	0.5869140625	0	lower	zerothre.ttf
336.286	n/a	WORD	168143	wordpools/wasnorm_wordpool_less_exclusions.txt	LTP185	ltpFR	5	1	1	CREATURE	403	n/a	n/a	1	0.422607421875	0.5869140625	0	lower	zerothre.ttf
340.452	n/a	WORD	170226	wordpools/wasnorm_wordpool_less_exclusions.txt	LTP185	ltpFR	5	1	1	SCAPEGOAT	1244	n/a	n/a	1	0.422607421875	0.5869140625	0	lower	zerothre.ttf
344.47	n/a	WORD	172235	wordpools/wasnorm_wordpool_less_exclusions.txt	LTP185	ltpFR	5	1	1	BASKET	95	n/a	n/a	0	0.422607421875	0.5869140625	0	lower	zerothre.ttf
348.45	n/a	WORD	174225	wordpools/wasnorm_wordpool_less_exclusions.txt	LTP185	ltpFR	5	1	0	NICOTINE	951	n/a	n/a	0	0.57763671875	0.412841796875	1	upper	amplitud.ttf
352.296	n/a	WORD	176148	wordpools/wasnorm_wordpool_less_exclusions.txt	LTP185	ltpFR	5	1	0	HAT	690	n/a	n/a	1	0.57763671875	0.412841796875	1	upper	amplitud.ttf
356.396	n/a	WORD	178198	wordpools/wasnorm_wordpool_less_exclusions.txt	LTP185	ltpFR	5	1	0	VET	1560	n/a	n/a	1	0.57763671875	0.412841796875	1	upper	amplitud.ttf
360.596	n/a	WORD	180298	wordpools/wasnorm_wordpool_less_exclusions.txt	LTP185	ltpFR	5	1	0	PAW	1029	n/a	n/a	0	0.57763671875	0.412841796875	1	upper	amplitud.ttf
364.494	n/a	WORD	182247	wordpools/wasnorm_wordpool_less_exclusions.txt	LTP185	ltpFR	5	1	1	BRAKE	166	n/a	n/a	0	0.422607421875	0.5869140625	0	lower	zerothre.ttf
368.358	n/a	WORD	184179	wordpools/wasnorm_wordpool_less_exclusions.txt	LTP185	ltpFR	5	1	1	JACKET	747	n/a	n/a	0	0.422607421875	0.5869140625	0	lower	zerothre.ttf
372.474	n/a	WORD	186237	wordpools/wasnorm_wordpool_less_exclusions.txt	LTP185	ltpFR	5	1	1	CARPENTER	246	n/a	n/a	1	0.422607421875	0.5869140625	0	lower	zerothre.ttf
376.506	n/a	WORD	188253	wordpools/wasnorm_wordpool_less_exclusions.txt	LTP185	ltpFR	5	1	1	LOG	841	n/a	n/a	0	0.422607421875	0.5869140625	0	lower	zerothre.ttf
382.262	n/a	REC_START	191131	n/a	LTP185	ltpFR	5	1	n/a	n/a	n/a	n/a	n/a	n/a	n/a	n/a	n/a	n/a	n/a
383.554	n/a	REC_WORD	191777	wordpools/wasnorm_wordpool_less_exclusions.txt	LTP185	ltpFR	5	1	n/a	FOOT	590	n/a	n/a	n/a	n/a	n/a	n/a	n/a	n/a
384.114	n/a	REC_WORD	192057	wordpools/wasnorm_wordpool_less_exclusions.txt	LTP185	ltpFR	5	1	0	PAW	1029	n/a	n/a	0	n/a	n/a	n/a	n/a	n/a
385.574	n/a	REC_WORD	192787	wordpools/wasnorm_wordpool_less_exclusions.txt	LTP185	ltpFR	5	1	1	BRAKE	166	n/a	n/a	0	n/a	n/a	n/a	n/a	n/a
386.134	n/a	REC_WORD	193067	wordpools/wasnorm_wordpool_less_exclusions.txt	LTP185	ltpFR	5	1	1	JACKET	747	n/a	n/a	0	n/a	n/a	n/a	n/a	n/a
386.946	n/a	REC_WORD	193473	wordpools/wasnorm_wordpool_less_exclusions.txt	LTP185	ltpFR	5	1	1	CARPENTER	246	n/a	n/a	1	n/a	n/a	n/a	n/a	n/a
388.238	n/a	REC_WORD	194119	wordpools/wasnorm_wordpool_less_exclusions.txt	LTP185	ltpFR	5	1	1	LOG	841	n/a	n/a	0	n/a	n/a	n/a	n/a	n/a
388.992	n/a	REC_WORD	194496	wordpools/wasnorm_wordpool_less_exclusions.txt	LTP185	ltpFR	5	1	0	NICOTINE	951	n/a	n/a	0	n/a	n/a	n/a	n/a	n/a
389.674	n/a	REC_WORD	194837	wordpools/wasnorm_wordpool_less_exclusions.txt	LTP185	ltpFR	5	1	0	HAT	690	n/a	n/a	1	n/a	n/a	n/a	n/a	n/a
391.272	n/a	REC_WORD	195636	wordpools/wasnorm_wordpool_less_exclusions.txt	LTP185	ltpFR	5	1	0	LONDON	843	n/a	n/a	1	n/a	n/a	n/a	n/a	n/a
391.8	n/a	REC_WORD	195900	wordpools/wasnorm_wordpool_less_exclusions.txt	LTP185	ltpFR	5	1	0	EUROPE	541	n/a	n/a	1	n/a	n/a	n/a	n/a	n/a
392.718	n/a	REC_WORD	196359	wordpools/wasnorm_wordpool_less_exclusions.txt	LTP185	ltpFR	5	1	0	COLT	349	n/a	n/a	1	n/a	n/a	n/a	n/a	n/a
393.472	n/a	REC_WORD	196736	wordpools/wasnorm_wordpool_less_exclusions.txt	LTP185	ltpFR	5	1	0	DESK	452	n/a	n/a	1	n/a	n/a	n/a	n/a	n/a
404.218	n/a	REC_WORD	202109	wordpools/wasnorm_wordpool_less_exclusions.txt	LTP185	ltpFR	5	1	1	MOTH	920	n/a	n/a	0	n/a	n/a	n/a	n/a	n/a
405.496	n/a	REC_WORD	202748	wordpools/wasnorm_wordpool_less_exclusions.txt	LTP185	ltpFR	5	1	1	CREATURE	403	n/a	n/a	1	n/a	n/a	n/a	n/a	n/a
410.404	n/a	REC_WORD	205202	wordpools/wasnorm_wordpool_less_exclusions.txt	LTP185	ltpFR	5	1	1	CARPENTER	246	n/a	n/a	1	n/a	n/a	n/a	n/a	n/a
477.042	n/a	WORD	238521	wordpools/wasnorm_wordpool_less_exclusions.txt	LTP185	ltpFR	5	2	1	BLOCKADE	137	n/a	n/a	0	0.422607421875	0.5869140625	0	lower	zerothre.ttf
481.022	n/a	WORD	240511	wordpools/wasnorm_wordpool_less_exclusions.txt	LTP185	ltpFR	5	2	1	SIGN	1305	n/a	n/a	0	0.422607421875	0.5869140625	0	lower	zerothre.ttf
485.154	n/a	WORD	242577	wordpools/wasnorm_wordpool_less_exclusions.txt	LTP185	ltpFR	5	2	0	BUGLE	189	n/a	n/a	0	0.57763671875	0.412841796875	1	upper	amplitud.ttf
489.354	n/a	WORD	244677	wordpools/wasnorm_wordpool_less_exclusions.txt	LTP185	ltpFR	5	2	0	RABBIT	1152	n/a	n/a	1	0.57763671875	0.412841796875	1	upper	amplitud.ttf
493.218	n/a	WORD	246609	wordpools/wasnorm_wordpool_less_exclusions.txt	LTP185	ltpFR	5	2	0	FIN	566	n/a	n/a	0	0.57763671875	0.412841796875	1	upper	amplitud.ttf
497.318	n/a	WORD	248659	wordpools/wasnorm_wordpool_less_exclusions.txt	LTP185	ltpFR	5	2	1	DIVER	476	n/a	n/a	1	0.422607421875	0.5869140625	0	lower	zerothre.ttf
501.25	n/a	WORD	250625	wordpools/wasnorm_wordpool_less_exclusions.txt	LTP185	ltpFR	5	2	1	GUITAR	670	n/a	n/a	0	0.422607421875	0.5869140625	0	lower	zerothre.ttf
505.366	n/a	WORD	252683	wordpools/wasnorm_wordpool_less_exclusions.txt	LTP185	ltpFR	5	2	1	SALMON	1227	n/a	n/a	1	0.422607421875	0.5869140625	0	lower	zerothre.ttf
509.38	n/a	WORD	254690	wordpools/wasnorm_wordpool_less_exclusions.txt	LTP185	ltpFR	5	2	0	LUNCH	849	n/a	n/a	1	0.57763671875	0.412841796875	1	upper	amplitud.ttf
513.266	n/a	WORD	256633	wordpools/wasnorm_wordpool_less_exclusions.txt	LTP185	ltpFR	5	2	0	SQUIRREL	1362	n/a	n/a	0	0.57763671875	0.412841796875	1	upper	amplitud.ttf
517.412	n/a	WORD	258706	wordpools/wasnorm_wordpool_less_exclusions.txt	LTP185	ltpFR	5	2	0	TOWER	1490	n/a	n/a	1	0.57763671875	0.412841796875	1	upper	amplitud.ttf
521.342	n/a	WORD	260671	wordpools/wasnorm_wordpool_less_exclusions.txt	LTP185	ltpFR	5	2	0	SIBLING	1301	n/a	n/a	1	0.57763671875	0.412841796875	1	upper	amplitud.ttf
525.392	n/a	WORD	262696	wordpools/wasnorm_wordpool_less_exclusions.txt	LTP185	ltpFR	5	2	0	JUG	762	n/a	n/a	0	0.57763671875	0.412841796875	1	upper	amplitud.ttf
529.29	n/a	WORD	264645	wordpools/wasnorm_wordpool_less_exclusions.txt	LTP185	ltpFR	5	2	1	TIDE	1465	n/a	n/a	0	0.422607421875	0.5869140625	0	lower	zerothre.ttf
533.508	n/a	WORD	266754	wordpools/wasnorm_wordpool_less_exclusions.txt	LTP185	ltpFR	5	2	1	DETERGENT	455	n/a	n/a	0	0.422607421875	0.5869140625	0	lower	zerothre.ttf
537.588	n/a	WORD	268794	wordpools/wasnorm_wordpool_less_exclusions.txt	LTP185	ltpFR	5	2	1	SPONGE	1355	n/a	n/a	0	0.422607421875	0.5869140625	0	lower	zerothre.ttf
543.512	n/a	REC_START	271756	n/a	LTP185	ltpFR	5	2	n/a	n/a	n/a	n/a	n/a	n/a	n/a	n/a	n/a	n/a	n/a
545.432	n/a	REC_WORD	272716	wordpools/wasnorm_wordpool_less_exclusions.txt	LTP185	ltpFR	5	2	0	SIBLING	1301	n/a	n/a	1	n/a	n/a	n/a	n/a	n/a
546.33	n/a	REC_WORD	273165	wordpools/wasnorm_wordpool_less_exclusions.txt	LTP185	ltpFR	5	2	0	JUG	762	n/a	n/a	0	n/a	n/a	n/a	n/a	n/a
546.85	n/a	REC_WORD	273425	wordpools/wasnorm_wordpool_less_exclusions.txt	LTP185	ltpFR	5	2	1	SPONGE	1355	n/a	n/a	0	n/a	n/a	n/a	n/a	n/a
547.662	n/a	REC_WORD	273831	wordpools/wasnorm_wordpool_less_exclusions.txt	LTP185	ltpFR	5	2	1	DETERGENT	455	n/a	n/a	0	n/a	n/a	n/a	n/a	n/a
549.26	n/a	REC_WORD	274630	wordpools/wasnorm_wordpool_less_exclusions.txt	LTP185	ltpFR	5	2	1	TIDE	1465	n/a	n/a	0	n/a	n/a	n/a	n/a	n/a
552.558	n/a	REC_WORD	276279	wordpools/wasnorm_wordpool_less_exclusions.txt	LTP185	ltpFR	5	2	0	SQUIRREL	1362	n/a	n/a	0	n/a	n/a	n/a	n/a	n/a
553.25	n/a	REC_WORD	276625	wordpools/wasnorm_wordpool_less_exclusions.txt	LTP185	ltpFR	5	2	0	FIN	566	n/a	n/a	0	n/a	n/a	n/a	n/a	n/a
554.06	n/a	REC_WORD	277030	wordpools/wasnorm_wordpool_less_exclusions.txt	LTP185	ltpFR	5	2	0	RABBIT	1152	n/a	n/a	1	n/a	n/a	n/a	n/a	n/a
554.798	n/a	REC_WORD	277399	wordpools/wasnorm_wordpool_less_exclusions.txt	LTP185	ltpFR	5	2	1	DIVER	476	n/a	n/a	1	n/a	n/a	n/a	n/a	n/a
556.154	n/a	REC_WORD	278077	wordpools/wasnorm_wordpool_less_exclusions.txt	LTP185	ltpFR	5	2	1	GUITAR	670	n/a	n/a	0	n/a	n/a	n/a	n/a	n/a
557.022	n/a	REC_WORD	278511	wordpools/wasnorm_wordpool_less_exclusions.txt	LTP185	ltpFR	5	2	1	SALMON	1227	n/a	n/a	1	n/a	n/a	n/a	n/a	n/a
558.25	n/a	REC_WORD	279125	wordpools/wasnorm_wordpool_less_exclusions.txt	LTP185	ltpFR	5	2	0	LUNCH	849	n/a	n/a	1	n/a	n/a	n/a	n/a	n/a
567.838	n/a	REC_WORD	283919	wordpools/wasnorm_wordpool_less_exclusions.txt	LTP185	ltpFR	5	2	0	BUGLE	189	n/a	n/a	0	n/a	n/a	n/a	n/a	n/a
570.248	n/a	REC_WORD	285124	wordpools/wasnorm_wordpool_less_exclusions.txt	LTP185	ltpFR	5	2	1	BLOCKADE	137	n/a	n/a	0	n/a	n/a	n/a	n/a	n/a
571.306	n/a	REC_WORD	285653	wordpools/wasnorm_wordpool_less_exclusions.txt	LTP185	ltpFR	5	2	1	SIGN	1305	n/a	n/a	0	n/a	n/a	n/a	n/a	n/a
578.918	n/a	REC_WORD	289459	wordpools/wasnorm_wordpool_less_exclusions.txt	LTP185	ltpFR	5	2	0	TOWER	1490	n/a	n/a	1	n/a	n/a	n/a	n/a	n/a
582.306	n/a	REC_WORD	291153	wordpools/wasnorm_wordpool_less_exclusions.txt	LTP185	ltpFR	5	2	0	SIBLING	1301	n/a	n/a	1	n/a	n/a	n/a	n/a	n/a
637.14	n/a	WORD	318570	wordpools/wasnorm_wordpool_less_exclusions.txt	LTP185	ltpFR	5	3	-1	BASSINET	97	n/a	n/a	-1	1.0	1.0	1	upper	Verdana.ttf
641.3	n/a	WORD	320650	wordpools/wasnorm_wordpool_less_exclusions.txt	LTP185	ltpFR	5	3	-1	CAR	241	n/a	n/a	-1	1.0	1.0	1	upper	Verdana.ttf
645.216	n/a	WORD	322608	wordpools/wasnorm_wordpool_less_exclusions.txt	LTP185	ltpFR	5	3	-1	SICKLE	1302	n/a	n/a	-1	1.0	1.0	1	upper	Verdana.ttf
649.382	n/a	WORD	324691	wordpools/wasnorm_wordpool_less_exclusions.txt	LTP185	ltpFR	5	3	-1	FINGERNAIL	568	n/a	n/a	-1	1.0	1.0	1	upper	Verdana.ttf
653.23	n/a	WORD	326615	wordpools/wasnorm_wordpool_less_exclusions.txt	LTP185	ltpFR	5	3	-1	CARRIAGE	248	n/a	n/a	-1	1.0	1.0	1	upper	Verdana.ttf
657.35	n/a	WORD	328675	wordpools/wasnorm_wordpool_less_exclusions.txt	LTP185	ltpFR	5	3	-1	COUGAR	387	n/a	n/a	-1	1.0	1.0	1	upper	Verdana.ttf
661.276	n/a	WORD	330638	wordpools/wasnorm_wordpool_less_exclusions.txt	LTP185	ltpFR	5	3	-1	LION	827	n/a	n/a	-1	1.0	1.0	1	upper	Verdana.ttf
665.226	n/a	WORD	332613	wordpools/wasnorm_wordpool_less_exclusions.txt	LTP185	ltpFR	5	3	-1	POND	1101	n/a	n/a	-1	1.0	1.0	1	upper	Verdana.ttf
669.21	n/a	WORD	334605	wordpools/wasnorm_wordpool_less_exclusions.txt	LTP185	ltpFR	5	3	-1	RAIL	1161	n/a	n/a	-1	1.0	1.0	1	upper	Verdana.ttf
673.408	n/a	WORD	336704	wordpools/wasnorm_wordpool_less_exclusions.txt	LTP185	ltpFR	5	3	-1	TRAIN	1494	n/a	n/a	-1	1.0	1.0	1	upper	Verdana.ttf
677.574	n/a	WORD	338787	wordpools/wasnorm_wordpool_less_exclusions.txt	LTP185	ltpFR	5	3	-1	COTTAGE	384	n/a	n/a	-1	1.0	1.0	1	upper	Verdana.ttf
681.772	n/a	WORD	340886	wordpools/wasnorm_wordpool_less_exclusions.txt	LTP185	ltpFR	5	3	-1	SALOON	1228	n/a	n/a	-1	1.0	1.0	1	upper	Verdana.ttf
685.756	n/a	WORD	342878	wordpools/wasnorm_wordpool_less_exclusions.txt	LTP185	ltpFR	5	3	-1	BLENDER	136	n/a	n/a	-1	1.0	1.0	1	upper	Verdana.ttf
689.604	n/a	WORD	344802	wordpools/wasnorm_wordpool_less_exclusions.txt	LTP185	ltpFR	5	3	-1	SARDINE	1235	n/a	n/a	-1	1.0	1.0	1	upper	Verdana.ttf
693.552	n/a	WORD	346776	wordpools/wasnorm_wordpool_less_exclusions.txt	LTP185	ltpFR	5	3	-1	DRIVER	499	n/a	n/a	-1	1.0	1.0	1	upper	Verdana.ttf
697.566	n/a	WORD	348783	wordpools/wasnorm_wordpool_less_exclusions.txt	LTP185	ltpFR	5	3	-1	MOLECULE	905	n/a	n/a	-1	1.0	1.0	1	upper	Verdana.ttf
703.154	n/a	REC_START	351577	n/a	LTP185	ltpFR	5	3	n/a	n/a	n/a	n/a	n/a	n/a	n/a	n/a	n/a	n/a	n/a
703.988	n/a	REC_WORD	351994	wordpools/wasnorm_wordpool_less_exclusions.txt	LTP185	ltpFR	5	3	-1	DRIVER	499	n/a	n/a	-1	n/a	n/a	n/a	n/a	n/a
704.564	n/a	REC_WORD	352282	wordpools/wasnorm_wordpool_less_exclusions.txt	LTP185	ltpFR	5	3	-1	MOLECULE	905	n/a	n/a	-1	n/a	n/a	n/a	n/a	n/a
705.384	n/a	REC_WORD	352692	wordpools/wasnorm_wordpool_less_exclusions.txt	LTP185	ltpFR	5	3	-1	BLENDER	136	n/a	n/a	-1	n/a	n/a	n/a	n/a	n/a
705.814	n/a	REC_WORD	352907	wordpools/wasnorm_wordpool_less_exclusions.txt	LTP185	ltpFR	5	3	-1	SARDINE	1235	n/a	n/a	-1	n/a	n/a	n/a	n/a	n/a
707.086	n/a	REC_WORD	353543	wordpools/wasnorm_wordpool_less_exclusions.txt	LTP185	ltpFR	5	3	-1	SALOON	1228	n/a	n/a	-1	n/a	n/a	n/a	n/a	n/a
707.844	n/a	REC_WORD	353922	wordpools/wasnorm_wordpool_less_exclusions.txt	LTP185	ltpFR	5	3	-1	COTTAGE	384	n/a	n/a	-1	n/a	n/a	n/a	n/a	n/a
708.498	n/a	REC_WORD	354249	wordpools/wasnorm_wordpool_less_exclusions.txt	LTP185	ltpFR	5	3	-1	RAIL	1161	n/a	n/a	-1	n/a	n/a	n/a	n/a	n/a
709.236	n/a	REC_WORD	354618	wordpools/wasnorm_wordpool_less_exclusions.txt	LTP185	ltpFR	5	3	-1	TRAIN	1494	n/a	n/a	-1	n/a	n/a	n/a	n/a	n/a
709.928	n/a	REC_WORD	354964	wordpools/wasnorm_wordpool_less_exclusions.txt	LTP185	ltpFR	5	3	-1	COUGAR	387	n/a	n/a	-1	n/a	n/a	n/a	n/a	n/a
710.972	n/a	REC_WORD	355486	wordpools/wasnorm_wordpool_less_exclusions.txt	LTP185	ltpFR	5	3	-1	LION	827	n/a	n/a	-1	n/a	n/a	n/a	n/a	n/a
711.77	n/a	REC_WORD	355885	wordpools/wasnorm_wordpool_less_exclusions.txt	LTP185	ltpFR	5	3	-1	POND	1101	n/a	n/a	-1	n/a	n/a	n/a	n/a	n/a
712.912	n/a	REC_WORD	356456	wordpools/wasnorm_wordpool_less_exclusions.txt	LTP185	ltpFR	5	3	-1	FINGERNAIL	568	n/a	n/a	-1	n/a	n/a	n/a	n/a	n/a
713.57	n/a	REC_WORD	356785	wordpools/wasnorm_wordpool_less_exclusions.txt	LTP185	ltpFR	5	3	-1	SICKLE	1302	n/a	n/a	-1	n/a	n/a	n/a	n/a	n/a
714.414	n/a	REC_WORD	357207	wordpools/wasnorm_wordpool_less_exclusions.txt	LTP185	ltpFR	5	3	-1	BASSINET	97	n/a	n/a	-1	n/a	n/a	n/a	n/a	n/a
715.212	n/a	REC_WORD	357606	wordpools/wasnorm_wordpool_less_exclusions.txt	LTP185	ltpFR	5	3	-1	CAR	241	n/a	n/a	-1	n/a	n/a	n/a	n/a	n/a
716.234	n/a	REC_WORD	358117	wordpools/wasnorm_wordpool_less_exclusions.txt	LTP185	ltpFR	5	3	-1	CARRIAGE	248	n/a	n/a	-1	n/a	n/a	n/a	n/a	n/a
718.49	n/a	REC_WORD	359245	wordpools/wasnorm_wordpool_less_exclusions.txt	LTP185	ltpFR	5	3	-1	DRIVER	499	n/a	n/a	-1	n/a	n/a	n/a	n/a	n/a
883.61	n/a	WORD	441805	wordpools/wasnorm_wordpool_less_exclusions.txt	LTP185	ltpFR	5	4	0	DRAGON	492	n/a	n/a	1	0.57763671875	0.412841796875	1	upper	amplitud.ttf
887.526	n/a	WORD	443763	wordpools/wasnorm_wordpool_less_exclusions.txt	LTP185	ltpFR	5	4	0	BUILDING	191	n/a	n/a	1	0.57763671875	0.412841796875	1	upper	amplitud.ttf
891.448	n/a	WORD	445724	wordpools/wasnorm_wordpool_less_exclusions.txt	LTP185	ltpFR	5	4	0	HELICOPTER	701	n/a	n/a	1	0.57763671875	0.412841796875	1	upper	amplitud.ttf
895.424	n/a	WORD	447712	wordpools/wasnorm_wordpool_less_exclusions.txt	LTP185	ltpFR	5	4	0	DEPUTY	450	n/a	n/a	1	0.57763671875	0.412841796875	1	upper	amplitud.ttf
899.37	n/a	WORD	449685	wordpools/wasnorm_wordpool_less_exclusions.txt	LTP185	ltpFR	5	4	1	DRUM	502	n/a	n/a	0	0.422607421875	0.5869140625	0	lower	zerothre.ttf
903.42	n/a	WORD	451710	wordpools/wasnorm_wordpool_less_exclusions.txt	LTP185	ltpFR	5	4	1	MARINE	869	n/a	n/a	1	0.422607421875	0.5869140625	0	lower	zerothre.ttf
907.586	n/a	WORD	453793	wordpools/wasnorm_wordpool_less_exclusions.txt	LTP185	ltpFR	5	4	1	SEAL	1262	n/a	n/a	1	0.422607421875	0.5869140625	0	lower	zerothre.ttf
911.518	n/a	WORD	455759	wordpools/wasnorm_wordpool_less_exclusions.txt	LTP185	ltpFR	5	4	1	TREAD	1499	n/a	n/a	0	0.422607421875	0.5869140625	0	lower	zerothre.ttf
915.566	n/a	WORD	457783	wordpools/wasnorm_wordpool_less_exclusions.txt	LTP185	ltpFR	5	4	0	GLUE	643	n/a	n/a	0	0.57763671875	0.412841796875	1	upper	amplitud.ttf
919.548	n/a	WORD	459774	wordpools/wasnorm_wordpool_less_exclusions.txt	LTP185	ltpFR	5	4	0	HALL	677	n/a	n/a	0	0.57763671875	0.412841796875	1	upper	amplitud.ttf
923.764	n/a	WORD	461882	wordpools/wasnorm_wordpool_less_exclusions.txt	LTP185	ltpFR	5	4	1	ROOM	1206	n/a	n/a	0	0.422607421875	0.5869140625	0	lower	zerothre.ttf
927.98	n/a	WORD	463990	wordpools/wasnorm_wordpool_less_exclusions.txt	LTP185	ltpFR	5	4	1	FLY	586	n/a	n/a	1	0.422607421875	0.5869140625	0	lower	zerothre.ttf
932.078	n/a	WORD	466039	wordpools/wasnorm_wordpool_less_exclusions.txt	LTP185	ltpFR	5	4	1	KNOB	787	n/a	n/a	0	0.422607421875	0.5869140625	0	lower	zerothre.ttf
936.028	n/a	WORD	468014	wordpools/wasnorm_wordpool_less_exclusions.txt	LTP185	ltpFR	5	4	1	VALVE	1546	n/a	n/a	0	0.422607421875	0.5869140625	0	lower	zerothre.ttf
940.214	n/a	WORD	470107	wordpools/wasnorm_wordpool_less_exclusions.txt	LTP185	ltpFR	5	4	0	BLOSSOM	138	n/a	n/a	0	0.57763671875	0.412841796875	1	upper	amplitud.ttf
944.358	n/a	WORD	472179	wordpools/wasnorm_wordpool_less_exclusions.txt	LTP185	ltpFR	5	4	0	FLOWER	584	n/a	n/a	0	0.57763671875	0.412841796875	1	upper	amplitud.ttf
950.132	n/a	REC_START	475066	n/a	LTP185	ltpFR	5	4	n/a	n/a	n/a	n/a	n/a	n/a	n/a	n/a	n/a	n/a	n/a
951.41	n/a	REC_WORD	475705	wordpools/wasnorm_wordpool_less_exclusions.txt	LTP185	ltpFR	5	4	0	BLOSSOM	138	n/a	n/a	0	n/a	n/a	n/a	n/a	n/a
952.556	n/a	REC_WORD	476278	wordpools/wasnorm_wordpool_less_exclusions.txt	LTP185	ltpFR	5	4	0	FLOWER	584	n/a	n/a	0	n/a	n/a	n/a	n/a	n/a
953.266	n/a	REC_WORD	476633	wordpools/wasnorm_wordpool_less_exclusions.txt	LTP185	ltpFR	5	4	1	KNOB	787	n/a	n/a	0	n/a	n/a	n/a	n/a	n/a
954.078	n/a	REC_WORD	477039	wordpools/wasnorm_wordpool_less_exclusions.txt	LTP185	ltpFR	5	4	1	VALVE	1546	n/a	n/a	0	n/a	n/a	n/a	n/a	n/a
955.87	n/a	REC_WORD	477935	wordpools/wasnorm_wordpool_less_exclusions.txt	LTP185	ltpFR	5	4	1	TREAD	1499	n/a	n/a	0	n/a	n/a	n/a	n/a	n/a
956.572	n/a	REC_WORD	478286	wordpools/wasnorm_wordpool_less_exclusions.txt	LTP185	ltpFR	5	4	0	GLUE	643	n/a	n/a	0	n/a	n/a	n/a	n/a	n/a
957.296	n/a	REC_WORD	478648	wordpools/wasnorm_wordpool_less_exclusions.txt	LTP185	ltpFR	5	4	0	HALL	677	n/a	n/a	0	n/a	n/a	n/a	n/a	n/a
958.0	n/a	REC_WORD	479000	wordpools/wasnorm_wordpool_less_exclusions.txt	LTP185	ltpFR	5	4	1	ROOM	1206	n/a	n/a	0	n/a	n/a	n/a	n/a	n/a
959.934	n/a	REC_WORD	479967	wordpools/wasnorm_wordpool_less_exclusions.txt	LTP185	ltpFR	5	4	0	DRAGON	492	n/a	n/a	1	n/a	n/a	n/a	n/a	n/a
961.416	n/a	REC_WORD	480708	wordpools/wasnorm_wordpool_less_exclusions.txt	LTP185	ltpFR	5	4	0	HELICOPTER	701	n/a	n/a	1	n/a	n/a	n/a	n/a	n/a
962.634	n/a	REC_WORD	481317	wordpools/wasnorm_wordpool_less_exclusions.txt	LTP185	ltpFR	5	4	0	BUILDING	191	n/a	n/a	1	n/a	n/a	n/a	n/a	n/a
964.236	n/a	REC_WORD	482118	wordpools/wasnorm_wordpool_less_exclusions.txt	LTP185	ltpFR	5	4	0	DEPUTY	450	n/a	n/a	1	n/a	n/a	n/a	n/a	n/a
969.086	n/a	REC_WORD	484543	wordpools/wasnorm_wordpool_less_exclusions.txt	LTP185	ltpFR	5	4	1	SEAL	1262	n/a	n/a	1	n/a	n/a	n/a	n/a	n/a
969.838	n/a	REC_WORD	484919	wordpools/wasnorm_wordpool_less_exclusions.txt	LTP185	ltpFR	5	4	1	MARINE	869	n/a	n/a	1	n/a	n/a	n/a	n/a	n/a
1057.24	n/a	WORD	528620	wordpools/wasnorm_wordpool_less_exclusions.txt	LTP185	ltpFR	5	5	1	THIMBLE	1458	n/a	n/a	0	0.422607421875	0.5869140625	0	lower	zerothre.ttf
1061.308	n/a	WORD	530654	wordpools/wasnorm_wordpool_less_exclusions.txt	LTP185	ltpFR	5	5	1	ENEMY	534	n/a	n/a	1	0.422607421875	0.5869140625	0	lower	zerothre.ttf
1065.17	n/a	WORD	532585	wordpools/wasnorm_wordpool_less_exclusions.txt	LTP185	ltpFR	5	5	1	ALMOND	18	n/a	n/a	1	0.422607421875	0.5869140625	0	lower	zerothre.ttf
1069.018	n/a	WORD	534509	wordpools/wasnorm_wordpool_less_exclusions.txt	LTP185	ltpFR	5	5	1	QUILT	1151	n/a	n/a	0	0.422607421875	0.5869140625	0	lower	zerothre.ttf
1072.966	n/a	WORD	536483	wordpools/wasnorm_wordpool_less_exclusions.txt	LTP185	ltpFR	5	5	1	CHIEF	298	n/a	n/a	1	0.422607421875	0.5869140625	0	lower	zerothre.ttf
1076.882	n/a	WORD	538441	wordpools/wasnorm_wordpool_less_exclusions.txt	LTP185	ltpFR	5	5	1	CLOSET	326	n/a	n/a	0	0.422607421875	0.5869140625	0	lower	zerothre.ttf
1080.714	n/a	WORD	540357	wordpools/wasnorm_wordpool_less_exclusions.txt	LTP185	ltpFR	5	5	1	RAFT	1159	n/a	n/a	0	0.422607421875	0.5869140625	0	lower	zerothre.ttf
1084.846	n/a	WORD	542423	wordpools/wasnorm_wordpool_less_exclusions.txt	LTP185	ltpFR	5	5	1	SINK	1309	n/a	n/a	0	0.422607421875	0.5869140625	0	lower	zerothre.ttf
1089.046	n/a	WORD	544523	wordpools/wasnorm_wordpool_less_exclusions.txt	LTP185	ltpFR	5	5	1	POOL	1103	n/a	n/a	0	0.422607421875	0.5869140625	0	lower	zerothre.ttf
1092.96	n/a	WORD	546480	wordpools/wasnorm_wordpool_less_exclusions.txt	LTP185	ltpFR	5	5	1	OTTER	986	n/a	n/a	1	0.422607421875	0.5869140625	0	lower	zerothre.ttf
1096.992	n/a	WORD	548496	wordpools/wasnorm_wordpool_less_exclusions.txt	LTP185	ltpFR	5	5	1	WART	1590	n/a	n/a	0	0.422607421875	0.5869140625	0	lower	zerothre.ttf
1101.008	n/a	WORD	550504	wordpools/wasnorm_wordpool_less_exclusions.txt	LTP185	ltpFR	5	5	1	PORT	1110	n/a	n/a	0	0.422607421875	0.5869140625	0	lower	zerothre.ttf
1104.856	n/a	WORD	552428	wordpools/wasnorm_wordpool_less_exclusions.txt	LTP185	ltpFR	5	5	1	KNEE	784	n/a	n/a	0	0.422607421875	0.5869140625	0	lower	zerothre.ttf
1108.988	n/a	WORD	554494	wordpools/wasnorm_wordpool_less_exclusions.txt	LTP185	ltpFR	5	5	1	ARM	38	n/a	n/a	0	0.422607421875	0.5869140625	0	lower	zerothre.ttf
1112.974	n/a	WORD	556487	wordpools/wasnorm_wordpool_less_exclusions.txt	LTP185	ltpFR	5	5	1	BUFFALO	186	n/a	n/a	1	0.422607421875	0.5869140625	0	lower	zerothre.ttf
1117.186	n/a	WORD	558593	wordpools/wasnorm_wordpool_less_exclusions.txt	LTP185	ltpFR	5	5	1	PECAN	1036	n/a	n/a	0	0.422607421875	0.5869140625	0	lower	zerothre.ttf
1122.826	n/a	REC_START	561413	n/a	LTP185	ltpFR	5	5	n/a	n/a	n/a	n/a	n/a	n/a	n/a	n/a	n/a	n/a	n/a
1123.75	n/a	REC_WORD	561875	wordpools/wasnorm_wordpool_less_exclusions.txt	LTP185	ltpFR	5	5	1	KNEE	784	n/a	n/a	0	n/a	n/a	n/a	n/a	n/a
1124.278	n/a	REC_WORD	562139	wordpools/wasnorm_wordpool_less_exclusions.txt	LTP185	ltpFR	5	5	1	ARM	38	n/a	n/a	0	n/a	n/a	n/a	n/a	n/a
1125.376	n/a	REC_WORD	562688	wordpools/wasnorm_wordpool_less_exclusions.txt	LTP185	ltpFR	5	5	1	BUFFALO	186	n/a	n/a	1	n/a	n/a	n/a	n/a	n/a
1125.978	n/a	REC_WORD	562989	wordpools/wasnorm_wordpool_less_exclusions.txt	LTP185	ltpFR	5	5	1	PECAN	1036	n/a	n/a	0	n/a	n/a	n/a	n/a	n/a
1127.5	n/a	REC_WORD	563750	wordpools/wasnorm_wordpool_less_exclusions.txt	LTP185	ltpFR	5	5	1	WART	1590	n/a	n/a	0	n/a	n/a	n/a	n/a	n/a
1128.338	n/a	REC_WORD	564169	wordpools/wasnorm_wordpool_less_exclusions.txt	LTP185	ltpFR	5	5	1	PORT	1110	n/a	n/a	0	n/a	n/a	n/a	n/a	n/a
1130.08	n/a	REC_WORD	565040	wordpools/wasnorm_wordpool_less_exclusions.txt	LTP185	ltpFR	5	5	1	OTTER	986	n/a	n/a	1	n/a	n/a	n/a	n/a	n/a
1130.992	n/a	REC_WORD	565496	wordpools/wasnorm_wordpool_less_exclusions.txt	LTP185	ltpFR	5	5	1	POOL	1103	n/a	n/a	0	n/a	n/a	n/a	n/a	n/a
1131.736	n/a	REC_WORD	565868	wordpools/wasnorm_wordpool_less_exclusions.txt	LTP185	ltpFR	5	5	1	SINK	1309	n/a	n/a	0	n/a	n/a	n/a	n/a	n/a
1132.45	n/a	REC_WORD	566225	wordpools/wasnorm_wordpool_less_exclusions.txt	LTP185	ltpFR	5	5	1	RAFT	1159	n/a	n/a	0	n/a	n/a	n/a	n/a	n/a
1133.292	n/a	REC_WORD	566646	wordpools/wasnorm_wordpool_less_exclusions.txt	LTP185	ltpFR	5	5	1	CLOSET	326	n/a	n/a	0	n/a	n/a	n/a	n/a	n/a
1134.92	n/a	REC_WORD	567460	wordpools/wasnorm_wordpool_less_exclusions.txt	LTP185	ltpFR	5	5	1	QUILT	1151	n/a	n/a	0	n/a	n/a	n/a	n/a	n/a
1135.742	n/a	REC_WORD	567871	wordpools/wasnorm_wordpool_less_exclusions.txt	LTP185	ltpFR	5	5	1	CHIEF	298	n/a	n/a	1	n/a	n/a	n/a	n/a	n/a
1139.056	n/a	REC_WORD	569528	wordpools/wasnorm_wordpool_less_exclusions.txt	LTP185	ltpFR	5	5	1	PECAN	1036	n/a	n/a	0	n/a	n/a	n/a	n/a	n/a
1140.188	n/a	REC_WORD	570094	wordpools/wasnorm_wordpool_less_exclusions.txt	LTP185	ltpFR	5	5	1	ALMOND	18	n/a	n/a	1	n/a	n/a	n/a	n/a	n/a
1141.036	n/a	REC_WORD	570518	wordpools/wasnorm_wordpool_less_exclusions.txt	LTP185	ltpFR	5	5	1	THIMBLE	1458	n/a	n/a	0	n/a	n/a	n/a	n/a	n/a
1142.432	n/a	REC_WORD	571216	wordpools/wasnorm_wordpool_less_exclusions.txt	LTP185	ltpFR	5	5	1	ENEMY	534	n/a	n/a	1	n/a	n/a	n/a	n/a	n/a
1146.888	n/a	REC_WORD	573444	wordpools/wasnorm_wordpool_less_exclusions.txt	LTP185	ltpFR	5	5	1	QUILT	1151	n/a	n/a	0	n/a	n/a	n/a	n/a	n/a
1148.658	n/a	REC_WORD	574329	wordpools/wasnorm_wordpool_less_exclusions.txt	LTP185	ltpFR	5	5	1	BUFFALO	186	n/a	n/a	1	n/a	n/a	n/a	n/a	n/a
1155.388	n/a	REC_WORD	577694	wordpools/wasnorm_wordpool_less_exclusions.txt	LTP185	ltpFR	5	5	1	SINK	1309	n/a	n/a	0	n/a	n/a	n/a	n/a	n/a
1213.806	n/a	WORD	606903	wordpools/wasnorm_wordpool_less_exclusions.txt	LTP185	ltpFR	5	6	-1	PIE	1062	n/a	n/a	-1	1.0	1.0	1	upper	Verdana.ttf
1217.704	n/a	WORD	608852	wordpools/wasnorm_wordpool_less_exclusions.txt	LTP185	ltpFR	5	6	-1	MOAT	903	n/a	n/a	-1	1.0	1.0	1	upper	Verdana.ttf
1221.586	n/a	WORD	610793	wordpools/wasnorm_wordpool_less_exclusions.txt	LTP185	ltpFR	5	6	-1	SNOB	1335	n/a	n/a	-1	1.0	1.0	1	upper	Verdana.ttf
1225.52	n/a	WORD	612760	wordpools/wasnorm_wordpool_less_exclusions.txt	LTP185	ltpFR	5	6	-1	EDITORIAL	517	n/a	n/a	-1	1.0	1.0	1	upper	Verdana.ttf
1229.474	n/a	WORD	614737	wordpools/wasnorm_wordpool_less_exclusions.txt	LTP185	ltpFR	5	6	-1	JOURNAL	760	n/a	n/a	-1	1.0	1.0	1	upper	Verdana.ttf
1233.532	n/a	WORD	616766	wordpools/wasnorm_wordpool_less_exclusions.txt	LTP185	ltpFR	5	6	-1	BOARD	143	n/a	n/a	-1	1.0	1.0	1	upper	Verdana.ttf
1237.548	n/a	WORD	618774	wordpools/wasnorm_wordpool_less_exclusions.txt	LTP185	ltpFR	5	6	-1	BISCUIT	130	n/a	n/a	-1	1.0	1.0	1	upper	Verdana.ttf
1241.646	n/a	WORD	620823	wordpools/wasnorm_wordpool_less_exclusions.txt	LTP185	ltpFR	5	6	-1	PASTRY	1022	n/a	n/a	-1	1.0	1.0	1	upper	Verdana.ttf
1245.744	n/a	WORD	622872	wordpools/wasnorm_wordpool_less_exclusions.txt	LTP185	ltpFR	5	6	-1	HOUND	724	n/a	n/a	-1	1.0	1.0	1	upper	Verdana.ttf
1249.744	n/a	WORD	624872	wordpools/wasnorm_wordpool_less_exclusions.txt	LTP185	ltpFR	5	6	-1	WALRUS	1585	n/a	n/a	-1	1.0	1.0	1	upper	Verdana.ttf
1253.742	n/a	WORD	626871	wordpools/wasnorm_wordpool_less_exclusions.txt	LTP185	ltpFR	5	6	-1	TOASTER	1472	n/a	n/a	-1	1.0	1.0	1	upper	Verdana.ttf
1257.608	n/a	WORD	628804	wordpools/wasnorm_wordpool_less_exclusions.txt	LTP185	ltpFR	5	6	-1	COW	393	n/a	n/a	-1	1.0	1.0	1	upper	Verdana.ttf
1261.756	n/a	WORD	630878	wordpools/wasnorm_wordpool_less_exclusions.txt	LTP185	ltpFR	5	6	-1	WAVE	1596	n/a	n/a	-1	1.0	1.0	1	upper	Verdana.ttf
1265.79	n/a	WORD	632895	wordpools/wasnorm_wordpool_less_exclusions.txt	LTP185	ltpFR	5	6	-1	ANCHOR	21	n/a	n/a	-1	1.0	1.0	1	upper	Verdana.ttf
1269.704	n/a	WORD	634852	wordpools/wasnorm_wordpool_less_exclusions.txt	LTP185	ltpFR	5	6	-1	PIRATE	1074	n/a	n/a	-1	1.0	1.0	1	upper	Verdana.ttf
1273.852	n/a	WORD	636926	wordpools/wasnorm_wordpool_less_exclusions.txt	LTP185	ltpFR	5	6	-1	MERMAID	887	n/a	n/a	-1	1.0	1.0	1	upper	Verdana.ttf
1279.76	n/a	REC_START	639880	n/a	LTP185	ltpFR	5	6	n/a	n/a	n/a	n/a	n/a	n/a	n/a	n/a	n/a	n/a	n/a
1281.166	n/a	REC_WORD	640583	wordpools/wasnorm_wordpool_less_exclusions.txt	LTP185	ltpFR	5	6	-1	WAVE	1596	n/a	n/a	-1	n/a	n/a	n/a	n/a	n/a
1281.724	n/a	REC_WORD	640862	wordpools/wasnorm_wordpool_less_exclusions.txt	LTP185	ltpFR	5	6	-1	ANCHOR	21	n/a	n/a	-1	n/a	n/a	n/a	n/a	n/a
1282.548	n/a	REC_WORD	641274	wordpools/wasnorm_wordpool_less_exclusions.txt	LTP185	ltpFR	5	6	-1	PIRATE	1074	n/a	n/a	-1	n/a	n/a	n/a	n/a	n/a
1283.052	n/a	REC_WORD	641526	wordpools/wasnorm_wordpool_less_exclusions.txt	LTP185	ltpFR	5	6	-1	MERMAID	887	n/a	n/a	-1	n/a	n/a	n/a	n/a	n/a
1284.21	n/a	REC_WORD	642105	wordpools/wasnorm_wordpool_less_exclusions.txt	LTP185	ltpFR	5	6	-1	COW	393	n/a	n/a	-1	n/a	n/a	n/a	n/a	n/a
1286.56	n/a	REC_WORD	643280	wordpools/wasnorm_wordpool_less_exclusions.txt	LTP185	ltpFR	5	6	-1	WALRUS	1585	n/a	n/a	-1	n/a	n/a	n/a	n/a	n/a
1287.916	n/a	REC_WORD	643958	wordpools/wasnorm_wordpool_less_exclusions.txt	LTP185	ltpFR	5	6	-1	HOUND	724	n/a	n/a	-1	n/a	n/a	n/a	n/a	n/a
1288.974	n/a	REC_WORD	644487	wordpools/wasnorm_wordpool_less_exclusions.txt	LTP185	ltpFR	5	6	-1	BOARD	143	n/a	n/a	-1	n/a	n/a	n/a	n/a	n/a
1289.872	n/a	REC_WORD	644936	wordpools/wasnorm_wordpool_less_exclusions.txt	LTP185	ltpFR	5	6	-1	BISCUIT	130	n/a	n/a	-1	n/a	n/a	n/a	n/a	n/a
1290.696	n/a	REC_WORD	645348	wordpools/wasnorm_wordpool_less_exclusions.txt	LTP185	ltpFR	5	6	-1	PASTRY	1022	n/a	n/a	-1	n/a	n/a	n/a	n/a	n/a
1292.796	n/a	REC_WORD	646398	wordpools/wasnorm_wordpool_less_exclusions.txt	LTP185	ltpFR	5	6	-1	TOASTER	1472	n/a	n/a	-1	n/a	n/a	n/a	n/a	n/a
1294.362	n/a	REC_WORD	647181	wordpools/wasnorm_wordpool_less_exclusions.txt	LTP185	ltpFR	5	6	-1	MOAT	903	n/a	n/a	-1	n/a	n/a	n/a	n/a	n/a
1295.0	n/a	REC_WORD	647500	wordpools/wasnorm_wordpool_less_exclusions.txt	LTP185	ltpFR	5	6	-1	PIE	1062	n/a	n/a	-1	n/a	n/a	n/a	n/a	n/a
1295.814	n/a	REC_WORD	647907	wordpools/wasnorm_wordpool_less_exclusions.txt	LTP185	ltpFR	5	6	-1	EDITORIAL	517	n/a	n/a	-1	n/a	n/a	n/a	n/a	n/a
1297.366	n/a	REC_WORD	648683	wordpools/wasnorm_wordpool_less_exclusions.txt	LTP185	ltpFR	5	6	-1	JOURNAL	760	n/a	n/a	-1	n/a	n/a	n/a	n/a	n/a
1303.706	n/a	REC_WORD	651853	wordpools/wasnorm_wordpool_less_exclusions.txt	LTP185	ltpFR	5	6	-1	SNOB	1335	n/a	n/a	-1	n/a	n/a	n/a	n/a	n/a
1315.456	n/a	REC_WORD	657728	wordpools/wasnorm_wordpool_less_exclusions.txt	LTP185	ltpFR	5	6	-1	BISCUIT	130	n/a	n/a	-1	n/a	n/a	n/a	n/a	n/a
1471.524	n/a	WORD	735762	wordpools/wasnorm_wordpool_less_exclusions.txt	LTP185	ltpFR	5	7	0	POCKET	1093	n/a	n/a	0	0.57763671875	0.412841796875	1	upper	amplitud.ttf
1475.658	n/a	WORD	737829	wordpools/wasnorm_wordpool_less_exclusions.txt	LTP185	ltpFR	5	7	0	PUMPKIN	1142	n/a	n/a	1	0.57763671875	0.412841796875	1	upper	amplitud.ttf
1479.656	n/a	WORD	739828	wordpools/wasnorm_wordpool_less_exclusions.txt	LTP185	ltpFR	5	7	0	SAUSAGE	1238	n/a	n/a	0	0.57763671875	0.412841796875	1	upper	amplitud.ttf
1483.854	n/a	WORD	741927	wordpools/wasnorm_wordpool_less_exclusions.txt	LTP185	ltpFR	5	7	0	SEA	1259	n/a	n/a	1	0.57763671875	0.412841796875	1	upper	amplitud.ttf
1487.97	n/a	WORD	743985	wordpools/wasnorm_wordpool_less_exclusions.txt	LTP185	ltpFR	5	7	0	VEST	1559	n/a	n/a	1	0.57763671875	0.412841796875	1	upper	amplitud.ttf
1491.918	n/a	WORD	745959	wordpools/wasnorm_wordpool_less_exclusions.txt	LTP185	ltpFR	5	7	0	BEAN	105	n/a	n/a	0	0.57763671875	0.412841796875	1	upper	amplitud.ttf
1495.866	n/a	WORD	747933	wordpools/wasnorm_wordpool_less_exclusions.txt	LTP185	ltpFR	5	7	0	OCEAN	970	n/a	n/a	1	0.57763671875	0.412841796875	1	upper	amplitud.ttf
1500.05	n/a	WORD	750025	wordpools/wasnorm_wordpool_less_exclusions.txt	LTP185	ltpFR	5	7	0	WOMAN	1620	n/a	n/a	1	0.57763671875	0.412841796875	1	upper	amplitud.ttf
1504.114	n/a	WORD	752057	wordpools/wasnorm_wordpool_less_exclusions.txt	LTP185	ltpFR	5	7	0	PERSON	1052	n/a	n/a	1	0.57763671875	0.412841796875	1	upper	amplitud.ttf
1508.296	n/a	WORD	754148	wordpools/wasnorm_wordpool_less_exclusions.txt	LTP185	ltpFR	5	7	0	BUG	187	n/a	n/a	0	0.57763671875	0.412841796875	1	upper	amplitud.ttf
1512.396	n/a	WORD	756198	wordpools/wasnorm_wordpool_less_exclusions.txt	LTP185	ltpFR	5	7	0	METEOR	889	n/a	n/a	1	0.57763671875	0.412841796875	1	upper	amplitud.ttf
1516.262	n/a	WORD	758131	wordpools/wasnorm_wordpool_less_exclusions.txt	LTP185	ltpFR	5	7	0	VAMPIRE	1547	n/a	n/a	1	0.57763671875	0.412841796875	1	upper	amplitud.ttf
1520.294	n/a	WORD	760147	wordpools/wasnorm_wordpool_less_exclusions.txt	LTP185	ltpFR	5	7	0	DONOR	485	n/a	n/a	1	0.57763671875	0.412841796875	1	upper	amplitud.ttf
1524.392	n/a	WORD	762196	wordpools/wasnorm_wordpool_less_exclusions.txt	LTP185	ltpFR	5	7	0	SPIDER	1351	n/a	n/a	0	0.57763671875	0.412841796875	1	upper	amplitud.ttf
1528.512	n/a	WORD	764256	wordpools/wasnorm_wordpool_less_exclusions.txt	LTP185	ltpFR	5	7	0	SWATTER	1418	n/a	n/a	1	0.57763671875	0.412841796875	1	upper	amplitud.ttf
1532.708	n/a	WORD	766354	wordpools/wasnorm_wordpool_less_exclusions.txt	LTP185	ltpFR	5	7	0	NIGHTGOWN	953	n/a	n/a	1	0.57763671875	0.412841796875	1	upper	amplitud.ttf
1538.448	n/a	REC_START	769224	n/a	LTP185	ltpFR	5	7	n/a	n/a	n/a	n/a	n/a	n/a	n/a	n/a	n/a	n/a	n/a
1540.084	n/a	REC_WORD	770042	wordpools/wasnorm_wordpool_less_exclusions.txt	LTP185	ltpFR	5	7	0	SPIDER	1351	n/a	n/a	0	n/a	n/a	n/a	n/a	n/a
1540.772	n/a	REC_WORD	770386	wordpools/wasnorm_wordpool_less_exclusions.txt	LTP185	ltpFR	5	7	0	SWATTER	1418	n/a	n/a	1	n/a	n/a	n/a	n/a	n/a
1541.466	n/a	REC_WORD	770733	wordpools/wasnorm_wordpool_less_exclusions.txt	LTP185	ltpFR	5	7	0	NIGHTGOWN	953	n/a	n/a	1	n/a	n/a	n/a	n/a	n/a
1542.364	n/a	REC_WORD	771182	wordpools/wasnorm_wordpool_less_exclusions.txt	LTP185	ltpFR	5	7	0	VAMPIRE	1547	n/a	n/a	1	n/a	n/a	n/a	n/a	n/a
1543.082	n/a	REC_WORD	771541	wordpools/wasnorm_wordpool_less_exclusions.txt	LTP185	ltpFR	5	7	0	METEOR	889	n/a	n/a	1	n/a	n/a	n/a	n/a	n/a
1544.2	n/a	REC_WORD	772100	wordpools/wasnorm_wordpool_less_exclusions.txt	LTP185	ltpFR	5	7	0	PERSON	1052	n/a	n/a	1	n/a	n/a	n/a	n/a	n/a
1544.948	n/a	REC_WORD	772474	wordpools/wasnorm_wordpool_less_exclusions.txt	LTP185	ltpFR	5	7	0	WOMAN	1620	n/a	n/a	1	n/a	n/a	n/a	n/a	n/a
1545.746	n/a	REC_WORD	772873	wordpools/wasnorm_wordpool_less_exclusions.txt	LTP185	ltpFR	5	7	0	BUG	187	n/a	n/a	0	n/a	n/a	n/a	n/a	n/a
1546.638	n/a	REC_WORD	773319	wordpools/wasnorm_wordpool_less_exclusions.txt	LTP185	ltpFR	5	7	0	OCEAN	970	n/a	n/a	1	n/a	n/a	n/a	n/a	n/a
1547.264	n/a	REC_WORD	773632	wordpools/wasnorm_wordpool_less_exclusions.txt	LTP185	ltpFR	5	7	0	SEA	1259	n/a	n/a	1	n/a	n/a	n/a	n/a	n/a
1556.218	n/a	REC_WORD	778109	wordpools/wasnorm_wordpool_less_exclusions.txt	LTP185	ltpFR	5	7	0	POCKET	1093	n/a	n/a	0	n/a	n/a	n/a	n/a	n/a
1556.832	n/a	REC_WORD	778416	wordpools/wasnorm_wordpool_less_exclusions.txt	LTP185	ltpFR	5	7	0	VEST	1559	n/a	n/a	1	n/a	n/a	n/a	n/a	n/a
1557.944	n/a	REC_WORD	778972	wordpools/wasnorm_wordpool_less_exclusions.txt	LTP185	ltpFR	5	7	0	BEAN	105	n/a	n/a	0	n/a	n/a	n/a	n/a	n/a
1558.708	n/a	REC_WORD	779354	wordpools/wasnorm_wordpool_less_exclusions.txt	LTP185	ltpFR	5	7	0	SAUSAGE	1238	n/a	n/a	0	n/a	n/a	n/a	n/a	n/a
1560.248	n/a	REC_WORD	780124	wordpools/wasnorm_wordpool_less_exclusions.txt	LTP185	ltpFR	5	7	0	PUMPKIN	1142	n/a	n/a	1	n/a	n/a	n/a	n/a	n/a
1569.054	n/a	REC_WORD	784527	wordpools/wasnorm_wordpool_less_exclusions.txt	LTP185	ltpFR	5	7	0	NIGHTGOWN	953	n/a	n/a	1	n/a	n/a	n/a	n/a	n/a
1643.866	n/a	WORD	821933	wordpools/wasnorm_wordpool_less_exclusions.txt	LTP185	ltpFR	5	8	0	GORILLA	650	n/a	n/a	1	0.57763671875	0.412841796875	1	upper	amplitud.ttf
1648.082	n/a	WORD	824041	wordpools/wasnorm_wordpool_less_exclusions.txt	LTP185	ltpFR	5	8	0	GRAPE	654	n/a	n/a	0	0.57763671875	0.412841796875	1	upper	amplitud.ttf
1652.114	n/a	WORD	826057	wordpools/wasnorm_wordpool_less_exclusions.txt	LTP185	ltpFR	5	8	0	SNORKEL	1336	n/a	n/a	0	0.57763671875	0.412841796875	1	upper	amplitud.ttf
1656.064	n/a	WORD	828032	wordpools/wasnorm_wordpool_less_exclusions.txt	LTP185	ltpFR	5	8	0	DUSTPAN	509	n/a	n/a	1	0.57763671875	0.412841796875	1	upper	amplitud.ttf
1660.094	n/a	WORD	830047	wordpools/wasnorm_wordpool_less_exclusions.txt	LTP185	ltpFR	5	8	0	PRINTER	1126	n/a	n/a	1	0.57763671875	0.412841796875	1	upper	amplitud.ttf
1664.21	n/a	WORD	832105	wordpools/wasnorm_wordpool_less_exclusions.txt	LTP185	ltpFR	5	8	0	PAD	998	n/a	n/a	1	0.57763671875	0.412841796875	1	upper	amplitud.ttf
1668.074	n/a	WORD	834037	wordpools/wasnorm_wordpool_less_exclusions.txt	LTP185	ltpFR	5	8	1	DAD	433	n/a	n/a	1	0.422607421875	0.5869140625	0	lower	zerothre.ttf
1672.208	n/a	WORD	836104	wordpools/wasnorm_wordpool_less_exclusions.txt	LTP185	ltpFR	5	8	1	FATHER	554	n/a	n/a	1	0.422607421875	0.5869140625	0	lower	zerothre.ttf
1676.156	n/a	WORD	838078	wordpools/wasnorm_wordpool_less_exclusions.txt	LTP185	ltpFR	5	8	1	PAN	1008	n/a	n/a	0	0.422607421875	0.5869140625	0	lower	zerothre.ttf
1680.054	n/a	WORD	840027	wordpools/wasnorm_wordpool_less_exclusions.txt	LTP185	ltpFR	5	8	0	SWIMMER	1420	n/a	n/a	1	0.57763671875	0.412841796875	1	upper	amplitud.ttf
1684.24	n/a	WORD	842120	wordpools/wasnorm_wordpool_less_exclusions.txt	LTP185	ltpFR	5	8	0	PUPIL	1143	n/a	n/a	1	0.57763671875	0.412841796875	1	upper	amplitud.ttf
1688.086	n/a	WORD	844043	wordpools/wasnorm_wordpool_less_exclusions.txt	LTP185	ltpFR	5	8	1	CLASS	318	n/a	n/a	0	0.422607421875	0.5869140625	0	lower	zerothre.ttf
1691.95	n/a	WORD	845975	wordpools/wasnorm_wordpool_less_exclusions.txt	LTP185	ltpFR	5	8	1	BERRY	122	n/a	n/a	1	0.422607421875	0.5869140625	0	lower	zerothre.ttf
1696.052	n/a	WORD	848026	wordpools/wasnorm_wordpool_less_exclusions.txt	LTP185	ltpFR	5	8	1	COOKBOOK	373	n/a	n/a	0	0.422607421875	0.5869140625	0	lower	zerothre.ttf
1699.962	n/a	WORD	849981	wordpools/wasnorm_wordpool_less_exclusions.txt	LTP185	ltpFR	5	8	1	CONCRETE	361	n/a	n/a	0	0.422607421875	0.5869140625	0	lower	zerothre.ttf
1703.802	n/a	WORD	851901	wordpools/wasnorm_wordpool_less_exclusions.txt	LTP185	ltpFR	5	8	1	MAILBOX	857	n/a	n/a	0	0.422607421875	0.5869140625	0	lower	zerothre.ttf
1709.484	n/a	REC_START	854742	n/a	LTP185	ltpFR	5	8	n/a	n/a	n/a	n/a	n/a	n/a	n/a	n/a	n/a	n/a	n/a
1710.626	n/a	REC_WORD	855313	wordpools/wasnorm_wordpool_less_exclusions.txt	LTP185	ltpFR	5	8	1	BERRY	122	n/a	n/a	1	n/a	n/a	n/a	n/a	n/a
1711.33	n/a	REC_WORD	855665	wordpools/wasnorm_wordpool_less_exclusions.txt	LTP185	ltpFR	5	8	1	COOKBOOK	373	n/a	n/a	0	n/a	n/a	n/a	n/a	n/a
1712.592	n/a	REC_WORD	856296	wordpools/wasnorm_wordpool_less_exclusions.txt	LTP185	ltpFR	5	8	1	CONCRETE	361	n/a	n/a	0	n/a	n/a	n/a	n/a	n/a
1713.206	n/a	REC_WORD	856603	wordpools/wasnorm_wordpool_less_exclusions.txt	LTP185	ltpFR	5	8	1	MAILBOX	857	n/a	n/a	0	n/a	n/a	n/a	n/a	n/a
1714.168	n/a	REC_WORD	857084	wordpools/wasnorm_wordpool_less_exclusions.txt	LTP185	ltpFR	5	8	1	DAD	433	n/a	n/a	1	n/a	n/a	n/a	n/a	n/a
1714.738	n/a	REC_WORD	857369	wordpools/wasnorm_wordpool_less_exclusions.txt	LTP185	ltpFR	5	8	1	FATHER	554	n/a	n/a	1	n/a	n/a	n/a	n/a	n/a
1719.538	n/a	REC_WORD	859769	wordpools/wasnorm_wordpool_less_exclusions.txt	LTP185	ltpFR	5	8	0	GORILLA	650	n/a	n/a	1	n/a	n/a	n/a	n/a	n/a
1720.426	n/a	REC_WORD	860213	wordpools/wasnorm_wordpool_less_exclusions.txt	LTP185	ltpFR	5	8	0	GRAPE	654	n/a	n/a	0	n/a	n/a	n/a	n/a	n/a
1722.062	n/a	REC_WORD	861031	wordpools/wasnorm_wordpool_less_exclusions.txt	LTP185	ltpFR	5	8	0	SNORKEL	1336	n/a	n/a	0	n/a	n/a	n/a	n/a	n/a
1723.044	n/a	REC_WORD	861522	wordpools/wasnorm_wordpool_less_exclusions.txt	LTP185	ltpFR	5	8	0	DUSTPAN	509	n/a	n/a	1	n/a	n/a	n/a	n/a	n/a
1724.022	n/a	REC_WORD	862011	wordpools/wasnorm_wordpool_less_exclusions.txt	LTP185	ltpFR	5	8	0	PAD	998	n/a	n/a	1	n/a	n/a	n/a	n/a	n/a
1725.11	n/a	REC_WORD	862555	wordpools/wasnorm_wordpool_less_exclusions.txt	LTP185	ltpFR	5	8	0	PRINTER	1126	n/a	n/a	1	n/a	n/a	n/a	n/a	n/a
1729.684	n/a	REC_WORD	864842	wordpools/wasnorm_wordpool_less_exclusions.txt	LTP185	ltpFR	5	8	0	PUPIL	1143	n/a	n/a	1	n/a	n/a	n/a	n/a	n/a
1730.522	n/a	REC_WORD	865261	wordpools/wasnorm_wordpool_less_exclusions.txt	LTP185	ltpFR	5	8	1	CLASS	318	n/a	n/a	0	n/a	n/a	n/a	n/a	n/a
1733.416	n/a	REC_WORD	866708	wordpools/wasnorm_wordpool_less_exclusions.txt	LTP185	ltpFR	5	8	0	SWIMMER	1420	n/a	n/a	1	n/a	n/a	n/a	n/a	n/a
1800.032	n/a	WORD	900016	wordpools/wasnorm_wordpool_less_exclusions.txt	LTP185	ltpFR	5	9	0	VIOLIN	1571	n/a	n/a	1	0.57763671875	0.412841796875	1	upper	amplitud.ttf
1804.044	n/a	WORD	902022	wordpools/wasnorm_wordpool_less_exclusions.txt	LTP185	ltpFR	5	9	0	TUBA	1515	n/a	n/a	1	0.57763671875	0.412841796875	1	upper	amplitud.ttf
1807.942	n/a	WORD	903971	wordpools/wasnorm_wordpool_less_exclusions.txt	LTP185	ltpFR	5	9	0	MITTEN	902	n/a	n/a	0	0.57763671875	0.412841796875	1	upper	amplitud.ttf
1811.824	n/a	WORD	905912	wordpools/wasnorm_wordpool_less_exclusions.txt	LTP185	ltpFR	5	9	0	TOTE	1487	n/a	n/a	1	0.57763671875	0.412841796875	1	upper	amplitud.ttf
1815.974	n/a	WORD	907987	wordpools/wasnorm_wordpool_less_exclusions.txt	LTP185	ltpFR	5	9	0	ASTEROID	50	n/a	n/a	1	0.57763671875	0.412841796875	1	upper	amplitud.ttf
1820.158	n/a	WORD	910079	wordpools/wasnorm_wordpool_less_exclusions.txt	LTP185	ltpFR	5	9	0	ROPE	1211	n/a	n/a	0	0.57763671875	0.412841796875	1	upper	amplitud.ttf
1824.12	n/a	WORD	912060	wordpools/wasnorm_wordpool_less_exclusions.txt	LTP185	ltpFR	5	9	0	BRANCH	168	n/a	n/a	0	0.57763671875	0.412841796875	1	upper	amplitud.ttf
1828.074	n/a	WORD	914037	wordpools/wasnorm_wordpool_less_exclusions.txt	LTP185	ltpFR	5	9	0	EYE	545	n/a	n/a	1	0.57763671875	0.412841796875	1	upper	amplitud.ttf
1832.152	n/a	WORD	916076	wordpools/wasnorm_wordpool_less_exclusions.txt	LTP185	ltpFR	5	9	0	UMPIRE	1535	n/a	n/a	1	0.57763671875	0.412841796875	1	upper	amplitud.ttf
1836.15	n/a	WORD	918075	wordpools/wasnorm_wordpool_less_exclusions.txt	LTP185	ltpFR	5	9	0	CHESS	294	n/a	n/a	0	0.57763671875	0.412841796875	1	upper	amplitud.ttf
1840.116	n/a	WORD	920058	wordpools/wasnorm_wordpool_less_exclusions.txt	LTP185	ltpFR	5	9	0	ASTRONAUT	51	n/a	n/a	1	0.57763671875	0.412841796875	1	upper	amplitud.ttf
1844.298	n/a	WORD	922149	wordpools/wasnorm_wordpool_less_exclusions.txt	LTP185	ltpFR	5	9	0	LENS	811	n/a	n/a	0	0.57763671875	0.412841796875	1	upper	amplitud.ttf
1848.448	n/a	WORD	924224	wordpools/wasnorm_wordpool_less_exclusions.txt	LTP185	ltpFR	5	9	0	TUXEDO	1525	n/a	n/a	1	0.57763671875	0.412841796875	1	upper	amplitud.ttf
1852.33	n/a	WORD	926165	wordpools/wasnorm_wordpool_less_exclusions.txt	LTP185	ltpFR	5	9	0	SPINACH	1352	n/a	n/a	0	0.57763671875	0.412841796875	1	upper	amplitud.ttf
1856.16	n/a	WORD	928080	wordpools/wasnorm_wordpool_less_exclusions.txt	LTP185	ltpFR	5	9	0	POTATO	1115	n/a	n/a	0	0.57763671875	0.412841796875	1	upper	amplitud.ttf
1860.176	n/a	WORD	930088	wordpools/wasnorm_wordpool_less_exclusions.txt	LTP185	ltpFR	5	9	0	TOY	1492	n/a	n/a	0	0.57763671875	0.412841796875	1	upper	amplitud.ttf
1866.148	n/a	REC_START	933074	n/a	LTP185	ltpFR	5	9	n/a	n/a	n/a	n/a	n/a	n/a	n/a	n/a	n/a	n/a	n/a
1867.844	n/a	REC_WORD	933922	wordpools/wasnorm_wordpool_less_exclusions.txt	LTP185	ltpFR	5	9	0	TUXEDO	1525	n/a	n/a	1	n/a	n/a	n/a	n/a	n/a
1868.484	n/a	REC_WORD	934242	wordpools/wasnorm_wordpool_less_exclusions.txt	LTP185	ltpFR	5	9	0	SPINACH	1352	n/a	n/a	0	n/a	n/a	n/a	n/a	n/a
1869.306	n/a	REC_WORD	934653	wordpools/wasnorm_wordpool_less_exclusions.txt	LTP185	ltpFR	5	9	0	POTATO	1115	n/a	n/a	0	n/a	n/a	n/a	n/a	n/a
1870.13	n/a	REC_WORD	935065	wordpools/wasnorm_wordpool_less_exclusions.txt	LTP185	ltpFR	5	9	0	TOY	1492	n/a	n/a	0	n/a	n/a	n/a	n/a	n/a
1871.232	n/a	REC_WORD	935616	wordpools/wasnorm_wordpool_less_exclusions.txt	LTP185	ltpFR	5	9	0	ASTEROID	50	n/a	n/a	1	n/a	n/a	n/a	n/a	n/a
1872.908	n/a	REC_WORD	936454	wordpools/wasnorm_wordpool_less_exclusions.txt	LTP185	ltpFR	5	9	0	ROPE	1211	n/a	n/a	0	n/a	n/a	n/a	n/a	n/a
1873.612	n/a	REC_WORD	936806	wordpools/wasnorm_wordpool_less_exclusions.txt	LTP185	ltpFR	5	9	0	BRANCH	168	n/a	n/a	0	n/a	n/a	n/a	n/a	n/a
1874.42	n/a	REC_WORD	937210	wordpools/wasnorm_wordpool_less_exclusions.txt	LTP185	ltpFR	5	9	0	ASTRONAUT	51	n/a	n/a	1	n/a	n/a	n/a	n/a	n/a
1875.752	n/a	REC_WORD	937876	wordpools/wasnorm_wordpool_less_exclusions.txt	LTP185	ltpFR	5	9	0	LENS	811	n/a	n/a	0	n/a	n/a	n/a	n/a	n/a
1876.726	n/a	REC_WORD	938363	wordpools/wasnorm_wordpool_less_exclusions.txt	LTP185	ltpFR	5	9	n/a	EMPIRE	530	n/a	n/a	n/a	n/a	n/a	n/a	n/a	n/a
1877.504	n/a	REC_WORD	938752	wordpools/wasnorm_wordpool_less_exclusions.txt	LTP185	ltpFR	5	9	0	EYE	545	n/a	n/a	1	n/a	n/a	n/a	n/a	n/a
1878.76	n/a	REC_WORD	939380	wordpools/wasnorm_wordpool_less_exclusions.txt	LTP185	ltpFR	5	9	0	TUXEDO	1525	n/a	n/a	1	n/a	n/a	n/a	n/a	n/a
1917.988	n/a	REC_WORD	958994	wordpools/wasnorm_wordpool_less_exclusions.txt	LTP185	ltpFR	5	9	0	CHESS	294	n/a	n/a	0	n/a	n/a	n/a	n/a	n/a
1988.868	n/a	WORD	994434	wordpools/wasnorm_wordpool_less_exclusions.txt	LTP185	ltpFR	5	10	1	RAM	1165	n/a	n/a	1	0.422607421875	0.5869140625	0	lower	zerothre.ttf
1992.966	n/a	WORD	996483	wordpools/wasnorm_wordpool_less_exclusions.txt	LTP185	ltpFR	5	10	1	GIFT	635	n/a	n/a	0	0.422607421875	0.5869140625	0	lower	zerothre.ttf
1997.17	n/a	WORD	998585	wordpools/wasnorm_wordpool_less_exclusions.txt	LTP185	ltpFR	5	10	1	UNDERWEAR	1537	n/a	n/a	0	0.422607421875	0.5869140625	0	lower	zerothre.ttf
2001.28	n/a	WORD	1000640	wordpools/wasnorm_wordpool_less_exclusions.txt	LTP185	ltpFR	5	10	1	HANGER	687	n/a	n/a	0	0.422607421875	0.5869140625	0	lower	zerothre.ttf
2005.13	n/a	WORD	1002565	wordpools/wasnorm_wordpool_less_exclusions.txt	LTP185	ltpFR	5	10	1	MOB	904	n/a	n/a	1	0.422607421875	0.5869140625	0	lower	zerothre.ttf
2009.062	n/a	WORD	1004531	wordpools/wasnorm_wordpool_less_exclusions.txt	LTP185	ltpFR	5	10	1	DRYER	503	n/a	n/a	0	0.422607421875	0.5869140625	0	lower	zerothre.ttf
2013.06	n/a	WORD	1006530	wordpools/wasnorm_wordpool_less_exclusions.txt	LTP185	ltpFR	5	10	1	SPAGHETTI	1346	n/a	n/a	0	0.422607421875	0.5869140625	0	lower	zerothre.ttf
2016.924	n/a	WORD	1008462	wordpools/wasnorm_wordpool_less_exclusions.txt	LTP185	ltpFR	5	10	1	SHIRT	1287	n/a	n/a	0	0.422607421875	0.5869140625	0	lower	zerothre.ttf
2020.794	n/a	WORD	1010397	wordpools/wasnorm_wordpool_less_exclusions.txt	LTP185	ltpFR	5	10	1	OUTFIT	988	n/a	n/a	0	0.422607421875	0.5869140625	0	lower	zerothre.ttf
2024.874	n/a	WORD	1012437	wordpools/wasnorm_wordpool_less_exclusions.txt	LTP185	ltpFR	5	10	1	PARCEL	1012	n/a	n/a	0	0.422607421875	0.5869140625	0	lower	zerothre.ttf
2028.754	n/a	WORD	1014377	wordpools/wasnorm_wordpool_less_exclusions.txt	LTP185	ltpFR	5	10	1	CHIPMUNK	304	n/a	n/a	1	0.422607421875	0.5869140625	0	lower	zerothre.ttf
2032.668	n/a	WORD	1016334	wordpools/wasnorm_wordpool_less_exclusions.txt	LTP185	ltpFR	5	10	1	RICE	1190	n/a	n/a	0	0.422607421875	0.5869140625	0	lower	zerothre.ttf
2036.784	n/a	WORD	1018392	wordpools/wasnorm_wordpool_less_exclusions.txt	LTP185	ltpFR	5	10	1	PLATE	1086	n/a	n/a	0	0.422607421875	0.5869140625	0	lower	zerothre.ttf
2040.934	n/a	WORD	1020467	wordpools/wasnorm_wordpool_less_exclusions.txt	LTP185	ltpFR	5	10	1	MOOSE	915	n/a	n/a	1	0.422607421875	0.5869140625	0	lower	zerothre.ttf
2044.914	n/a	WORD	1022457	wordpools/wasnorm_wordpool_less_exclusions.txt	LTP185	ltpFR	5	10	1	ALLIGATOR	16	n/a	n/a	1	0.422607421875	0.5869140625	0	lower	zerothre.ttf
2048.78	n/a	WORD	1024390	wordpools/wasnorm_wordpool_less_exclusions.txt	LTP185	ltpFR	5	10	1	VICTOR	1563	n/a	n/a	0	0.422607421875	0.5869140625	0	lower	zerothre.ttf
2054.654	n/a	REC_START	1027327	n/a	LTP185	ltpFR	5	10	n/a	n/a	n/a	n/a	n/a	n/a	n/a	n/a	n/a	n/a	n/a
2056.066	n/a	REC_WORD	1028033	wordpools/wasnorm_wordpool_less_exclusions.txt	LTP185	ltpFR	5	10	1	MOOSE	915	n/a	n/a	1	n/a	n/a	n/a	n/a	n/a
2056.728	n/a	REC_WORD	1028364	wordpools/wasnorm_wordpool_less_exclusions.txt	LTP185	ltpFR	5	10	1	ALLIGATOR	16	n/a	n/a	1	n/a	n/a	n/a	n/a	n/a
2058.14	n/a	REC_WORD	1029070	wordpools/wasnorm_wordpool_less_exclusions.txt	LTP185	ltpFR	5	10	1	VICTOR	1563	n/a	n/a	0	n/a	n/a	n/a	n/a	n/a
2059.214	n/a	REC_WORD	1029607	wordpools/wasnorm_wordpool_less_exclusions.txt	LTP185	ltpFR	5	10	1	RICE	1190	n/a	n/a	0	n/a	n/a	n/a	n/a	n/a
2059.918	n/a	REC_WORD	1029959	wordpools/wasnorm_wordpool_less_exclusions.txt	LTP185	ltpFR	5	10	1	CHIPMUNK	304	n/a	n/a	1	n/a	n/a	n/a	n/a	n/a
2060.56	n/a	REC_WORD	1030280	wordpools/wasnorm_wordpool_less_exclusions.txt	LTP185	ltpFR	5	10	1	PLATE	1086	n/a	n/a	0	n/a	n/a	n/a	n/a	n/a
2061.404	n/a	REC_WORD	1030702	wordpools/wasnorm_wordpool_less_exclusions.txt	LTP185	ltpFR	5	10	1	PARCEL	1012	n/a	n/a	0	n/a	n/a	n/a	n/a	n/a
2062.602	n/a	REC_WORD	1031301	wordpools/wasnorm_wordpool_less_exclusions.txt	LTP185	ltpFR	5	10	1	MOB	904	n/a	n/a	1	n/a	n/a	n/a	n/a	n/a
2063.14	n/a	REC_WORD	1031570	wordpools/wasnorm_wordpool_less_exclusions.txt	LTP185	ltpFR	5	10	1	DRYER	503	n/a	n/a	0	n/a	n/a	n/a	n/a	n/a
2063.708	n/a	REC_WORD	1031854	wordpools/wasnorm_wordpool_less_exclusions.txt	LTP185	ltpFR	5	10	1	SPAGHETTI	1346	n/a	n/a	0	n/a	n/a	n/a	n/a	n/a
2064.442	n/a	REC_WORD	1032221	wordpools/wasnorm_wordpool_less_exclusions.txt	LTP185	ltpFR	5	10	1	SHIRT	1287	n/a	n/a	0	n/a	n/a	n/a	n/a	n/a
2065.186	n/a	REC_WORD	1032593	wordpools/wasnorm_wordpool_less_exclusions.txt	LTP185	ltpFR	5	10	1	OUTFIT	988	n/a	n/a	0	n/a	n/a	n/a	n/a	n/a
2067.564	n/a	REC_WORD	1033782	wordpools/wasnorm_wordpool_less_exclusions.txt	LTP185	ltpFR	5	10	1	RAM	1165	n/a	n/a	1	n/a	n/a	n/a	n/a	n/a
2068.334	n/a	REC_WORD	1034167	wordpools/wasnorm_wordpool_less_exclusions.txt	LTP185	ltpFR	5	10	1	GIFT	635	n/a	n/a	0	n/a	n/a	n/a	n/a	n/a
2069.056	n/a	REC_WORD	1034528	wordpools/wasnorm_wordpool_less_exclusions.txt	LTP185	ltpFR	5	10	1	UNDERWEAR	1537	n/a	n/a	0	n/a	n/a	n/a	n/a	n/a
2069.618	n/a	REC_WORD	1034809	wordpools/wasnorm_wordpool_less_exclusions.txt	LTP185	ltpFR	5	10	1	HANGER	687	n/a	n/a	0	n/a	n/a	n/a	n/a	n/a
2076.38	n/a	REC_WORD	1038190	wordpools/wasnorm_wordpool_less_exclusions.txt	LTP185	ltpFR	5	10	1	MOB	904	n/a	n/a	1	n/a	n/a	n/a	n/a	n/a
2198.754	n/a	WORD	1099377	wordpools/wasnorm_wordpool_less_exclusions.txt	LTP185	ltpFR	5	11	1	PEOPLE	1046	n/a	n/a	1	0.422607421875	0.5869140625	0	lower	zerothre.ttf
2202.902	n/a	WORD	1101451	wordpools/wasnorm_wordpool_less_exclusions.txt	LTP185	ltpFR	5	11	1	BLUEBERRY	140	n/a	n/a	1	0.422607421875	0.5869140625	0	lower	zerothre.ttf
2206.904	n/a	WORD	1103452	wordpools/wasnorm_wordpool_less_exclusions.txt	LTP185	ltpFR	5	11	0	APARTMENT	30	n/a	n/a	1	0.57763671875	0.412841796875	1	upper	amplitud.ttf
2210.752	n/a	WORD	1105376	wordpools/wasnorm_wordpool_less_exclusions.txt	LTP185	ltpFR	5	11	0	ELEVATOR	524	n/a	n/a	1	0.57763671875	0.412841796875	1	upper	amplitud.ttf
2214.682	n/a	WORD	1107341	wordpools/wasnorm_wordpool_less_exclusions.txt	LTP185	ltpFR	5	11	0	GOLD	647	n/a	n/a	0	0.57763671875	0.412841796875	1	upper	amplitud.ttf
2218.512	n/a	WORD	1109256	wordpools/wasnorm_wordpool_less_exclusions.txt	LTP185	ltpFR	5	11	0	CHEF	290	n/a	n/a	1	0.57763671875	0.412841796875	1	upper	amplitud.ttf
2222.728	n/a	WORD	1111364	wordpools/wasnorm_wordpool_less_exclusions.txt	LTP185	ltpFR	5	11	1	CABOOSE	214	n/a	n/a	0	0.422607421875	0.5869140625	0	lower	zerothre.ttf
2226.61	n/a	WORD	1113305	wordpools/wasnorm_wordpool_less_exclusions.txt	LTP185	ltpFR	5	11	1	CARAVAN	242	n/a	n/a	0	0.422607421875	0.5869140625	0	lower	zerothre.ttf
2230.578	n/a	WORD	1115289	wordpools/wasnorm_wordpool_less_exclusions.txt	LTP185	ltpFR	5	11	1	TELEPHONE	1445	n/a	n/a	0	0.422607421875	0.5869140625	0	lower	zerothre.ttf
2234.742	n/a	WORD	1117371	wordpools/wasnorm_wordpool_less_exclusions.txt	LTP185	ltpFR	5	11	1	FISH	571	n/a	n/a	1	0.422607421875	0.5869140625	0	lower	zerothre.ttf
2238.676	n/a	WORD	1119338	wordpools/wasnorm_wordpool_less_exclusions.txt	LTP185	ltpFR	5	11	0	BARRACUDA	90	n/a	n/a	1	0.57763671875	0.412841796875	1	upper	amplitud.ttf
2242.572	n/a	WORD	1121286	wordpools/wasnorm_wordpool_less_exclusions.txt	LTP185	ltpFR	5	11	0	FAMILY	550	n/a	n/a	1	0.57763671875	0.412841796875	1	upper	amplitud.ttf
2246.586	n/a	WORD	1123293	wordpools/wasnorm_wordpool_less_exclusions.txt	LTP185	ltpFR	5	11	0	SKI	1316	n/a	n/a	0	0.57763671875	0.412841796875	1	upper	amplitud.ttf
2250.72	n/a	WORD	1125360	wordpools/wasnorm_wordpool_less_exclusions.txt	LTP185	ltpFR	5	11	0	HIKER	708	n/a	n/a	1	0.57763671875	0.412841796875	1	upper	amplitud.ttf
2254.718	n/a	WORD	1127359	wordpools/wasnorm_wordpool_less_exclusions.txt	LTP185	ltpFR	5	11	1	FEAST	556	n/a	n/a	1	0.422607421875	0.5869140625	0	lower	zerothre.ttf
2258.75	n/a	WORD	1129375	wordpools/wasnorm_wordpool_less_exclusions.txt	LTP185	ltpFR	5	11	1	STRAWBERRY	1391	n/a	n/a	1	0.422607421875	0.5869140625	0	lower	zerothre.ttf
2264.74	n/a	REC_START	1132370	n/a	LTP185	ltpFR	5	11	n/a	n/a	n/a	n/a	n/a	n/a	n/a	n/a	n/a	n/a	n/a
2265.766	n/a	REC_WORD	1132883	wordpools/wasnorm_wordpool_less_exclusions.txt	LTP185	ltpFR	5	11	1	FEAST	556	n/a	n/a	1	n/a	n/a	n/a	n/a	n/a
2266.366	n/a	REC_WORD	1133183	wordpools/wasnorm_wordpool_less_exclusions.txt	LTP185	ltpFR	5	11	1	STRAWBERRY	1391	n/a	n/a	1	n/a	n/a	n/a	n/a	n/a
2267.824	n/a	REC_WORD	1133912	wordpools/wasnorm_wordpool_less_exclusions.txt	LTP185	ltpFR	5	11	0	HIKER	708	n/a	n/a	1	n/a	n/a	n/a	n/a	n/a
2268.516	n/a	REC_WORD	1134258	wordpools/wasnorm_wordpool_less_exclusions.txt	LTP185	ltpFR	5	11	0	SKI	1316	n/a	n/a	0	n/a	n/a	n/a	n/a	n/a
2269.818	n/a	REC_WORD	1134909	wordpools/wasnorm_wordpool_less_exclusions.txt	LTP185	ltpFR	5	11	0	BARRACUDA	90	n/a	n/a	1	n/a	n/a	n/a	n/a	n/a
2270.438	n/a	REC_WORD	1135219	wordpools/wasnorm_wordpool_less_exclusions.txt	LTP185	ltpFR	5	11	1	FISH	571	n/a	n/a	1	n/a	n/a	n/a	n/a	n/a
2271.176	n/a	REC_WORD	1135588	wordpools/wasnorm_wordpool_less_exclusions.txt	LTP185	ltpFR	5	11	1	TELEPHONE	1445	n/a	n/a	0	n/a	n/a	n/a	n/a	n/a
2272.148	n/a	REC_WORD	1136074	wordpools/wasnorm_wordpool_less_exclusions.txt	LTP185	ltpFR	5	11	1	CABOOSE	214	n/a	n/a	0	n/a	n/a	n/a	n/a	n/a
2273.082	n/a	REC_WORD	1136541	wordpools/wasnorm_wordpool_less_exclusions.txt	LTP185	ltpFR	5	11	1	CARAVAN	242	n/a	n/a	0	n/a	n/a	n/a	n/a	n/a
2273.672	n/a	REC_WORD	1136836	wordpools/wasnorm_wordpool_less_exclusions.txt	LTP185	ltpFR	5	11	0	CHEF	290	n/a	n/a	1	n/a	n/a	n/a	n/a	n/a
2276.992	n/a	REC_WORD	1138496	wordpools/wasnorm_wordpool_less_exclusions.txt	LTP185	ltpFR	5	11	1	PEOPLE	1046	n/a	n/a	1	n/a	n/a	n/a	n/a	n/a
2277.596	n/a	REC_WORD	1138798	wordpools/wasnorm_wordpool_less_exclusions.txt	LTP185	ltpFR	5	11	0	GOLD	647	n/a	n/a	0	n/a	n/a	n/a	n/a	n/a
2279.786	n/a	REC_WORD	1139893	wordpools/wasnorm_wordpool_less_exclusions.txt	LTP185	ltpFR	5	11	0	APARTMENT	30	n/a	n/a	1	n/a	n/a	n/a	n/a	n/a
2280.644	n/a	REC_WORD	1140322	wordpools/wasnorm_wordpool_less_exclusions.txt	LTP185	ltpFR	5	11	0	ELEVATOR	524	n/a	n/a	1	n/a	n/a	n/a	n/a	n/a
2282.79	n/a	REC_WORD	1141395	wordpools/wasnorm_wordpool_less_exclusions.txt	LTP185	ltpFR	5	11	1	STRAWBERRY	1391	n/a	n/a	1	n/a	n/a	n/a	n/a	n/a
2283.678	n/a	REC_WORD	1141839	wordpools/wasnorm_wordpool_less_exclusions.txt	LTP185	ltpFR	5	11	1	BLUEBERRY	140	n/a	n/a	1	n/a	n/a	n/a	n/a	n/a
2297.022	n/a	REC_WORD	1148511	wordpools/wasnorm_wordpool_less_exclusions.txt	LTP185	ltpFR	5	11	0	BARRACUDA	90	n/a	n/a	1	n/a	n/a	n/a	n/a	n/a
2391.958	n/a	WORD	1195979	wordpools/wasnorm_wordpool_less_exclusions.txt	LTP185	ltpFR	5	12	1	MAMMAL	861	n/a	n/a	1	0.422607421875	0.5869140625	0	lower	zerothre.ttf
2395.938	n/a	WORD	1197969	wordpools/wasnorm_wordpool_less_exclusions.txt	LTP185	ltpFR	5	12	1	LEOPARD	812	n/a	n/a	1	0.422607421875	0.5869140625	0	lower	zerothre.ttf
2399.924	n/a	WORD	1199962	wordpools/wasnorm_wordpool_less_exclusions.txt	LTP185	ltpFR	5	12	1	SURF	1412	n/a	n/a	0	0.422607421875	0.5869140625	0	lower	zerothre.ttf
2404.054	n/a	WORD	1202027	wordpools/wasnorm_wordpool_less_exclusions.txt	LTP185	ltpFR	5	12	1	CALF	222	n/a	n/a	1	0.422607421875	0.5869140625	0	lower	zerothre.ttf
2407.986	n/a	WORD	1203993	wordpools/wasnorm_wordpool_less_exclusions.txt	LTP185	ltpFR	5	12	1	NEWSPAPER	948	n/a	n/a	0	0.422607421875	0.5869140625	0	lower	zerothre.ttf
2411.818	n/a	WORD	1205909	wordpools/wasnorm_wordpool_less_exclusions.txt	LTP185	ltpFR	5	12	1	CANDIDATE	228	n/a	n/a	1	0.422607421875	0.5869140625	0	lower	zerothre.ttf
2415.85	n/a	WORD	1207925	wordpools/wasnorm_wordpool_less_exclusions.txt	LTP185	ltpFR	5	12	1	VEGETABLE	1552	n/a	n/a	0	0.422607421875	0.5869140625	0	lower	zerothre.ttf
2419.982	n/a	WORD	1209991	wordpools/wasnorm_wordpool_less_exclusions.txt	LTP185	ltpFR	5	12	1	MUSHROOM	934	n/a	n/a	1	0.422607421875	0.5869140625	0	lower	zerothre.ttf
2423.996	n/a	WORD	1211998	wordpools/wasnorm_wordpool_less_exclusions.txt	LTP185	ltpFR	5	12	1	LOAF	835	n/a	n/a	0	0.422607421875	0.5869140625	0	lower	zerothre.ttf
2428.146	n/a	WORD	1214073	wordpools/wasnorm_wordpool_less_exclusions.txt	LTP185	ltpFR	5	12	1	GRASSHOPPER	656	n/a	n/a	1	0.422607421875	0.5869140625	0	lower	zerothre.ttf
2432.212	n/a	WORD	1216106	wordpools/wasnorm_wordpool_less_exclusions.txt	LTP185	ltpFR	5	12	1	SEAGULL	1261	n/a	n/a	1	0.422607421875	0.5869140625	0	lower	zerothre.ttf
2436.176	n/a	WORD	1218088	wordpools/wasnorm_wordpool_less_exclusions.txt	LTP185	ltpFR	5	12	1	ROBIN	1199	n/a	n/a	1	0.422607421875	0.5869140625	0	lower	zerothre.ttf
2440.392	n/a	WORD	1220196	wordpools/wasnorm_wordpool_less_exclusions.txt	LTP185	ltpFR	5	12	1	BEEF	113	n/a	n/a	0	0.422607421875	0.5869140625	0	lower	zerothre.ttf
2444.324	n/a	WORD	1222162	wordpools/wasnorm_wordpool_less_exclusions.txt	LTP185	ltpFR	5	12	1	EDITOR	516	n/a	n/a	1	0.422607421875	0.5869140625	0	lower	zerothre.ttf
2448.156	n/a	WORD	1224078	wordpools/wasnorm_wordpool_less_exclusions.txt	LTP185	ltpFR	5	12	1	CHIP	303	n/a	n/a	0	0.422607421875	0.5869140625	0	lower	zerothre.ttf
2452.12	n/a	WORD	1226060	wordpools/wasnorm_wordpool_less_exclusions.txt	LTP185	ltpFR	5	12	1	BOOTH	151	n/a	n/a	0	0.422607421875	0.5869140625	0	lower	zerothre.ttf
2458.178	n/a	REC_START	1229089	n/a	LTP185	ltpFR	5	12	n/a	n/a	n/a	n/a	n/a	n/a	n/a	n/a	n/a	n/a	n/a
2459.844	n/a	REC_WORD	1229922	wordpools/wasnorm_wordpool_less_exclusions.txt	LTP185	ltpFR	5	12	1	SEAGULL	1261	n/a	n/a	1	n/a	n/a	n/a	n/a	n/a
2460.44	n/a	REC_WORD	1230220	wordpools/wasnorm_wordpool_less_exclusions.txt	LTP185	ltpFR	5	12	1	ROBIN	1199	n/a	n/a	1	n/a	n/a	n/a	n/a	n/a
2461.63	n/a	REC_WORD	1230815	wordpools/wasnorm_wordpool_less_exclusions.txt	LTP185	ltpFR	5	12	1	CHIP	303	n/a	n/a	0	n/a	n/a	n/a	n/a	n/a
2462.154	n/a	REC_WORD	1231077	wordpools/wasnorm_wordpool_less_exclusions.txt	LTP185	ltpFR	5	12	1	BOOTH	151	n/a	n/a	0	n/a	n/a	n/a	n/a	n/a
2462.808	n/a	REC_WORD	1231404	wordpools/wasnorm_wordpool_less_exclusions.txt	LTP185	ltpFR	5	12	1	EDITOR	516	n/a	n/a	1	n/a	n/a	n/a	n/a	n/a
2463.808	n/a	REC_WORD_VV	1231904	wordpools/wasnorm_wordpool_less_exclusions.txt	LTP185	ltpFR	5	12	n/a	<>	-1	n/a	n/a	n/a	n/a	n/a	n/a	n/a	n/a
2466.904	n/a	REC_WORD	1233452	wordpools/wasnorm_wordpool_less_exclusions.txt	LTP185	ltpFR	5	12	1	GRASSHOPPER	656	n/a	n/a	1	n/a	n/a	n/a	n/a	n/a
2469.732	n/a	REC_WORD	1234866	wordpools/wasnorm_wordpool_less_exclusions.txt	LTP185	ltpFR	5	12	1	MAMMAL	861	n/a	n/a	1	n/a	n/a	n/a	n/a	n/a
2470.326	n/a	REC_WORD	1235163	wordpools/wasnorm_wordpool_less_exclusions.txt	LTP185	ltpFR	5	12	1	LEOPARD	812	n/a	n/a	1	n/a	n/a	n/a	n/a	n/a
2471.354	n/a	REC_WORD	1235677	wordpools/wasnorm_wordpool_less_exclusions.txt	LTP185	ltpFR	5	12	1	CALF	222	n/a	n/a	1	n/a	n/a	n/a	n/a	n/a
2473.974	n/a	REC_WORD	1236987	wordpools/wasnorm_wordpool_less_exclusions.txt	LTP185	ltpFR	5	12	1	CANDIDATE	228	n/a	n/a	1	n/a	n/a	n/a	n/a	n/a
2474.902	n/a	REC_WORD	1237451	wordpools/wasnorm_wordpool_less_exclusions.txt	LTP185	ltpFR	5	12	1	NEWSPAPER	948	n/a	n/a	0	n/a	n/a	n/a	n/a	n/a
2476.114	n/a	REC_WORD	1238057	wordpools/wasnorm_wordpool_less_exclusions.txt	LTP185	ltpFR	5	12	1	SURF	1412	n/a	n/a	0	n/a	n/a	n/a	n/a	n/a
2497.196	n/a	REC_WORD	1248598	wordpools/wasnorm_wordpool_less_exclusions.txt	LTP185	ltpFR	5	12	1	VEGETABLE	1552	n/a	n/a	0	n/a	n/a	n/a	n/a	n/a
2498.06	n/a	REC_WORD	1249030	wordpools/wasnorm_wordpool_less_exclusions.txt	LTP185	ltpFR	5	12	1	MUSHROOM	934	n/a	n/a	1	n/a	n/a	n/a	n/a	n/a
2499.032	n/a	REC_WORD	1249516	wordpools/wasnorm_wordpool_less_exclusions.txt	LTP185	ltpFR	5	12	1	LOAF	835	n/a	n/a	0	n/a	n/a	n/a	n/a	n/a
2533.8	n/a	REST_REWET	1266900	n/a	LTP185	ltpFR	5	12	n/a	n/a	n/a	n/a	n/a	n/a	n/a	n/a	n/a	n/a	n/a
2864.764	n/a	WORD	1432382	wordpools/wasnorm_wordpool_less_exclusions.txt	LTP185	ltpFR	5	13	0	SHELF	1280	n/a	n/a	1	0.57763671875	0.412841796875	1	upper	amplitud.ttf
2868.78	n/a	WORD	1434390	wordpools/wasnorm_wordpool_less_exclusions.txt	LTP185	ltpFR	5	13	0	PLUM	1090	n/a	n/a	0	0.57763671875	0.412841796875	1	upper	amplitud.ttf
2872.98	n/a	WORD	1436490	wordpools/wasnorm_wordpool_less_exclusions.txt	LTP185	ltpFR	5	13	0	CUSTARD	429	n/a	n/a	0	0.57763671875	0.412841796875	1	upper	amplitud.ttf
2877.062	n/a	WORD	1438531	wordpools/wasnorm_wordpool_less_exclusions.txt	LTP185	ltpFR	5	13	0	DOUGHNUT	490	n/a	n/a	0	0.57763671875	0.412841796875	1	upper	amplitud.ttf
2881.26	n/a	WORD	1440630	wordpools/wasnorm_wordpool_less_exclusions.txt	LTP185	ltpFR	5	13	0	DIAL	457	n/a	n/a	0	0.57763671875	0.412841796875	1	upper	amplitud.ttf
2885.176	n/a	WORD	1442588	wordpools/wasnorm_wordpool_less_exclusions.txt	LTP185	ltpFR	5	13	0	HOOK	715	n/a	n/a	0	0.57763671875	0.412841796875	1	upper	amplitud.ttf
2889.142	n/a	WORD	1444571	wordpools/wasnorm_wordpool_less_exclusions.txt	LTP185	ltpFR	5	13	0	TORTOISE	1486	n/a	n/a	1	0.57763671875	0.412841796875	1	upper	amplitud.ttf
2892.99	n/a	WORD	1446495	wordpools/wasnorm_wordpool_less_exclusions.txt	LTP185	ltpFR	5	13	0	BATHTUB	100	n/a	n/a	1	0.57763671875	0.412841796875	1	upper	amplitud.ttf
2897.02	n/a	WORD	1448510	wordpools/wasnorm_wordpool_less_exclusions.txt	LTP185	ltpFR	5	13	0	DAM	436	n/a	n/a	1	0.57763671875	0.412841796875	1	upper	amplitud.ttf
2900.852	n/a	WORD	1450426	wordpools/wasnorm_wordpool_less_exclusions.txt	LTP185	ltpFR	5	13	0	DENIM	446	n/a	n/a	0	0.57763671875	0.412841796875	1	upper	amplitud.ttf
2904.718	n/a	WORD	1452359	wordpools/wasnorm_wordpool_less_exclusions.txt	LTP185	ltpFR	5	13	0	PLANT	1083	n/a	n/a	1	0.57763671875	0.412841796875	1	upper	amplitud.ttf
2908.684	n/a	WORD	1454342	wordpools/wasnorm_wordpool_less_exclusions.txt	LTP185	ltpFR	5	13	0	DEPARTMENT	449	n/a	n/a	1	0.57763671875	0.412841796875	1	upper	amplitud.ttf
2912.766	n/a	WORD	1456383	wordpools/wasnorm_wordpool_less_exclusions.txt	LTP185	ltpFR	5	13	0	PLAZA	1088	n/a	n/a	1	0.57763671875	0.412841796875	1	upper	amplitud.ttf
2916.898	n/a	WORD	1458449	wordpools/wasnorm_wordpool_less_exclusions.txt	LTP185	ltpFR	5	13	0	SLUG	1329	n/a	n/a	0	0.57763671875	0.412841796875	1	upper	amplitud.ttf
2920.812	n/a	WORD	1460406	wordpools/wasnorm_wordpool_less_exclusions.txt	LTP185	ltpFR	5	13	0	AUTHOR	61	n/a	n/a	1	0.57763671875	0.412841796875	1	upper	amplitud.ttf
2924.794	n/a	WORD	1462397	wordpools/wasnorm_wordpool_less_exclusions.txt	LTP185	ltpFR	5	13	0	PRAIRIE	1118	n/a	n/a	1	0.57763671875	0.412841796875	1	upper	amplitud.ttf
2930.568	n/a	REC_START	1465284	n/a	LTP185	ltpFR	5	13	n/a	n/a	n/a	n/a	n/a	n/a	n/a	n/a	n/a	n/a	n/a
2931.36	n/a	REC_WORD	1465680	wordpools/wasnorm_wordpool_less_exclusions.txt	LTP185	ltpFR	5	13	0	SLUG	1329	n/a	n/a	0	n/a	n/a	n/a	n/a	n/a
2932.198	n/a	REC_WORD	1466099	wordpools/wasnorm_wordpool_less_exclusions.txt	LTP185	ltpFR	5	13	0	AUTHOR	61	n/a	n/a	1	n/a	n/a	n/a	n/a	n/a
2933.326	n/a	REC_WORD	1466663	wordpools/wasnorm_wordpool_less_exclusions.txt	LTP185	ltpFR	5	13	0	PRAIRIE	1118	n/a	n/a	1	n/a	n/a	n/a	n/a	n/a
2934.572	n/a	REC_WORD	1467286	wordpools/wasnorm_wordpool_less_exclusions.txt	LTP185	ltpFR	5	13	0	DEPARTMENT	449	n/a	n/a	1	n/a	n/a	n/a	n/a	n/a
2936.278	n/a	REC_WORD	1468139	wordpools/wasnorm_wordpool_less_exclusions.txt	LTP185	ltpFR	5	13	0	APARTMENT	30	n/a	n/a	1	n/a	n/a	n/a	n/a	n/a
2937.132	n/a	REC_WORD	1468566	wordpools/wasnorm_wordpool_less_exclusions.txt	LTP185	ltpFR	5	13	0	PLANT	1083	n/a	n/a	1	n/a	n/a	n/a	n/a	n/a
2937.89	n/a	REC_WORD	1468945	wordpools/wasnorm_wordpool_less_exclusions.txt	LTP185	ltpFR	5	13	0	DENIM	446	n/a	n/a	0	n/a	n/a	n/a	n/a	n/a
2938.554	n/a	REC_WORD	1469277	wordpools/wasnorm_wordpool_less_exclusions.txt	LTP185	ltpFR	5	13	0	DAM	436	n/a	n/a	1	n/a	n/a	n/a	n/a	n/a
2940.624	n/a	REC_WORD	1470312	wordpools/wasnorm_wordpool_less_exclusions.txt	LTP185	ltpFR	5	13	0	SHELF	1280	n/a	n/a	1	n/a	n/a	n/a	n/a	n/a
2941.388	n/a	REC_WORD	1470694	wordpools/wasnorm_wordpool_less_exclusions.txt	LTP185	ltpFR	5	13	0	PLUM	1090	n/a	n/a	0	n/a	n/a	n/a	n/a	n/a
2942.032	n/a	REC_WORD	1471016	wordpools/wasnorm_wordpool_less_exclusions.txt	LTP185	ltpFR	5	13	0	CUSTARD	429	n/a	n/a	0	n/a	n/a	n/a	n/a	n/a
2942.66	n/a	REC_WORD	1471330	wordpools/wasnorm_wordpool_less_exclusions.txt	LTP185	ltpFR	5	13	0	DOUGHNUT	490	n/a	n/a	0	n/a	n/a	n/a	n/a	n/a
2943.364	n/a	REC_WORD	1471682	wordpools/wasnorm_wordpool_less_exclusions.txt	LTP185	ltpFR	5	13	0	DIAL	457	n/a	n/a	0	n/a	n/a	n/a	n/a	n/a
2946.182	n/a	REC_WORD	1473091	wordpools/wasnorm_wordpool_less_exclusions.txt	LTP185	ltpFR	5	13	0	TORTOISE	1486	n/a	n/a	1	n/a	n/a	n/a	n/a	n/a
2947.206	n/a	REC_WORD	1473603	wordpools/wasnorm_wordpool_less_exclusions.txt	LTP185	ltpFR	5	13	0	HOOK	715	n/a	n/a	0	n/a	n/a	n/a	n/a	n/a
2948.254	n/a	REC_WORD	1474127	wordpools/wasnorm_wordpool_less_exclusions.txt	LTP185	ltpFR	5	13	0	BATHTUB	100	n/a	n/a	1	n/a	n/a	n/a	n/a	n/a
2949.586	n/a	REC_WORD	1474793	wordpools/wasnorm_wordpool_less_exclusions.txt	LTP185	ltpFR	5	13	0	DAM	436	n/a	n/a	1	n/a	n/a	n/a	n/a	n/a
3042.176	n/a	WORD	1521088	wordpools/wasnorm_wordpool_less_exclusions.txt	LTP185	ltpFR	5	14	-1	OX	994	n/a	n/a	-1	1.0	1.0	1	upper	Verdana.ttf
3046.112	n/a	WORD	1523056	wordpools/wasnorm_wordpool_less_exclusions.txt	LTP185	ltpFR	5	14	-1	BIRD	129	n/a	n/a	-1	1.0	1.0	1	upper	Verdana.ttf
3050.04	n/a	WORD	1525020	wordpools/wasnorm_wordpool_less_exclusions.txt	LTP185	ltpFR	5	14	-1	DOVE	491	n/a	n/a	-1	1.0	1.0	1	upper	Verdana.ttf
3053.976	n/a	WORD	1526988	wordpools/wasnorm_wordpool_less_exclusions.txt	LTP185	ltpFR	5	14	-1	SHRIMP	1297	n/a	n/a	-1	1.0	1.0	1	upper	Verdana.ttf
3058.052	n/a	WORD	1529026	wordpools/wasnorm_wordpool_less_exclusions.txt	LTP185	ltpFR	5	14	-1	OCTOPUS	971	n/a	n/a	-1	1.0	1.0	1	upper	Verdana.ttf
3062.168	n/a	WORD	1531084	wordpools/wasnorm_wordpool_less_exclusions.txt	LTP185	ltpFR	5	14	-1	MICROWAVE	892	n/a	n/a	-1	1.0	1.0	1	upper	Verdana.ttf
3066.218	n/a	WORD	1533109	wordpools/wasnorm_wordpool_less_exclusions.txt	LTP185	ltpFR	5	14	-1	CHURCH	307	n/a	n/a	-1	1.0	1.0	1	upper	Verdana.ttf
3070.15	n/a	WORD	1535075	wordpools/wasnorm_wordpool_less_exclusions.txt	LTP185	ltpFR	5	14	-1	AUTOMOBILE	62	n/a	n/a	-1	1.0	1.0	1	upper	Verdana.ttf
3074.248	n/a	WORD	1537124	wordpools/wasnorm_wordpool_less_exclusions.txt	LTP185	ltpFR	5	14	-1	CHAPEL	280	n/a	n/a	-1	1.0	1.0	1	upper	Verdana.ttf
3078.114	n/a	WORD	1539057	wordpools/wasnorm_wordpool_less_exclusions.txt	LTP185	ltpFR	5	14	-1	KNUCKLE	789	n/a	n/a	-1	1.0	1.0	1	upper	Verdana.ttf
3082.162	n/a	WORD	1541081	wordpools/wasnorm_wordpool_less_exclusions.txt	LTP185	ltpFR	5	14	-1	DOORBELL	487	n/a	n/a	-1	1.0	1.0	1	upper	Verdana.ttf
3086.094	n/a	WORD	1543047	wordpools/wasnorm_wordpool_less_exclusions.txt	LTP185	ltpFR	5	14	-1	CASTLE	256	n/a	n/a	-1	1.0	1.0	1	upper	Verdana.ttf
3090.176	n/a	WORD	1545088	wordpools/wasnorm_wordpool_less_exclusions.txt	LTP185	ltpFR	5	14	-1	RANCH	1166	n/a	n/a	-1	1.0	1.0	1	upper	Verdana.ttf
3094.358	n/a	WORD	1547179	wordpools/wasnorm_wordpool_less_exclusions.txt	LTP185	ltpFR	5	14	-1	BELLY	119	n/a	n/a	-1	1.0	1.0	1	upper	Verdana.ttf
3098.51	n/a	WORD	1549255	wordpools/wasnorm_wordpool_less_exclusions.txt	LTP185	ltpFR	5	14	-1	PALACE	1006	n/a	n/a	-1	1.0	1.0	1	upper	Verdana.ttf
3102.422	n/a	WORD	1551211	wordpools/wasnorm_wordpool_less_exclusions.txt	LTP185	ltpFR	5	14	-1	GALLON	618	n/a	n/a	-1	1.0	1.0	1	upper	Verdana.ttf
3108.196	n/a	REC_START	1554098	n/a	LTP185	ltpFR	5	14	n/a	n/a	n/a	n/a	n/a	n/a	n/a	n/a	n/a	n/a	n/a
3108.934	n/a	REC_WORD	1554467	wordpools/wasnorm_wordpool_less_exclusions.txt	LTP185	ltpFR	5	14	-1	GALLON	618	n/a	n/a	-1	n/a	n/a	n/a	n/a	n/a
3109.646	n/a	REC_WORD	1554823	wordpools/wasnorm_wordpool_less_exclusions.txt	LTP185	ltpFR	5	14	-1	PALACE	1006	n/a	n/a	-1	n/a	n/a	n/a	n/a	n/a
3110.15	n/a	REC_WORD	1555075	wordpools/wasnorm_wordpool_less_exclusions.txt	LTP185	ltpFR	5	14	-1	BELLY	119	n/a	n/a	-1	n/a	n/a	n/a	n/a	n/a
3111.412	n/a	REC_WORD	1555706	wordpools/wasnorm_wordpool_less_exclusions.txt	LTP185	ltpFR	5	14	-1	CASTLE	256	n/a	n/a	-1	n/a	n/a	n/a	n/a	n/a
3112.156	n/a	REC_WORD	1556078	wordpools/wasnorm_wordpool_less_exclusions.txt	LTP185	ltpFR	5	14	-1	DOORBELL	487	n/a	n/a	-1	n/a	n/a	n/a	n/a	n/a
3112.914	n/a	REC_WORD	1556457	wordpools/wasnorm_wordpool_less_exclusions.txt	LTP185	ltpFR	5	14	-1	KNUCKLE	789	n/a	n/a	-1	n/a	n/a	n/a	n/a	n/a
3113.962	n/a	REC_WORD	1556981	wordpools/wasnorm_wordpool_less_exclusions.txt	LTP185	ltpFR	5	14	-1	RANCH	1166	n/a	n/a	-1	n/a	n/a	n/a	n/a	n/a
3116.688	n/a	REC_WORD	1558344	wordpools/wasnorm_wordpool_less_exclusions.txt	LTP185	ltpFR	5	14	-1	AUTOMOBILE	62	n/a	n/a	-1	n/a	n/a	n/a	n/a	n/a
3117.64	n/a	REC_WORD	1558820	wordpools/wasnorm_wordpool_less_exclusions.txt	LTP185	ltpFR	5	14	-1	CHURCH	307	n/a	n/a	-1	n/a	n/a	n/a	n/a	n/a
3118.288	n/a	REC_WORD	1559144	wordpools/wasnorm_wordpool_less_exclusions.txt	LTP185	ltpFR	5	14	-1	CHAPEL	280	n/a	n/a	-1	n/a	n/a	n/a	n/a	n/a
3123.666	n/a	REC_WORD	1561833	wordpools/wasnorm_wordpool_less_exclusions.txt	LTP185	ltpFR	5	14	-1	OCTOPUS	971	n/a	n/a	-1	n/a	n/a	n/a	n/a	n/a
3124.614	n/a	REC_WORD	1562307	wordpools/wasnorm_wordpool_less_exclusions.txt	LTP185	ltpFR	5	14	-1	SHRIMP	1297	n/a	n/a	-1	n/a	n/a	n/a	n/a	n/a
3125.368	n/a	REC_WORD	1562684	wordpools/wasnorm_wordpool_less_exclusions.txt	LTP185	ltpFR	5	14	-1	MICROWAVE	892	n/a	n/a	-1	n/a	n/a	n/a	n/a	n/a
3127.508	n/a	REC_WORD	1563754	wordpools/wasnorm_wordpool_less_exclusions.txt	LTP185	ltpFR	5	14	-1	OX	994	n/a	n/a	-1	n/a	n/a	n/a	n/a	n/a
3128.34	n/a	REC_WORD	1564170	wordpools/wasnorm_wordpool_less_exclusions.txt	LTP185	ltpFR	5	14	-1	BIRD	129	n/a	n/a	-1	n/a	n/a	n/a	n/a	n/a
3129.104	n/a	REC_WORD	1564552	wordpools/wasnorm_wordpool_less_exclusions.txt	LTP185	ltpFR	5	14	-1	DOVE	491	n/a	n/a	-1	n/a	n/a	n/a	n/a	n/a
3210.272	n/a	WORD	1605136	wordpools/wasnorm_wordpool_less_exclusions.txt	LTP185	ltpFR	5	15	-1	KLEENEX	782	n/a	n/a	-1	1.0	1.0	1	upper	Verdana.ttf
3214.234	n/a	WORD	1607117	wordpools/wasnorm_wordpool_less_exclusions.txt	LTP185	ltpFR	5	15	-1	PREACHER	1119	n/a	n/a	-1	1.0	1.0	1	upper	Verdana.ttf
3218.316	n/a	WORD	1609158	wordpools/wasnorm_wordpool_less_exclusions.txt	LTP185	ltpFR	5	15	-1	PITCHFORK	1078	n/a	n/a	-1	1.0	1.0	1	upper	Verdana.ttf
3222.532	n/a	WORD	1611266	wordpools/wasnorm_wordpool_less_exclusions.txt	LTP185	ltpFR	5	15	-1	COUCH	386	n/a	n/a	-1	1.0	1.0	1	upper	Verdana.ttf
3226.43	n/a	WORD	1613215	wordpools/wasnorm_wordpool_less_exclusions.txt	LTP185	ltpFR	5	15	-1	SOFA	1342	n/a	n/a	-1	1.0	1.0	1	upper	Verdana.ttf
3230.362	n/a	WORD	1615181	wordpools/wasnorm_wordpool_less_exclusions.txt	LTP185	ltpFR	5	15	-1	GENERAL	630	n/a	n/a	-1	1.0	1.0	1	upper	Verdana.ttf
3234.294	n/a	WORD	1617147	wordpools/wasnorm_wordpool_less_exclusions.txt	LTP185	ltpFR	5	15	-1	OFFICER	973	n/a	n/a	-1	1.0	1.0	1	upper	Verdana.ttf
3238.224	n/a	WORD	1619112	wordpools/wasnorm_wordpool_less_exclusions.txt	LTP185	ltpFR	5	15	-1	ROBE	1198	n/a	n/a	-1	1.0	1.0	1	upper	Verdana.ttf
3242.09	n/a	WORD	1621045	wordpools/wasnorm_wordpool_less_exclusions.txt	LTP185	ltpFR	5	15	-1	LAPEL	800	n/a	n/a	-1	1.0	1.0	1	upper	Verdana.ttf
3246.172	n/a	WORD	1623086	wordpools/wasnorm_wordpool_less_exclusions.txt	LTP185	ltpFR	5	15	-1	FIELD	562	n/a	n/a	-1	1.0	1.0	1	upper	Verdana.ttf
3250.17	n/a	WORD	1625085	wordpools/wasnorm_wordpool_less_exclusions.txt	LTP185	ltpFR	5	15	-1	GUARD	667	n/a	n/a	-1	1.0	1.0	1	upper	Verdana.ttf
3254.188	n/a	WORD	1627094	wordpools/wasnorm_wordpool_less_exclusions.txt	LTP185	ltpFR	5	15	-1	MONASTERY	907	n/a	n/a	-1	1.0	1.0	1	upper	Verdana.ttf
3258.358	n/a	WORD	1629179	wordpools/wasnorm_wordpool_less_exclusions.txt	LTP185	ltpFR	5	15	-1	SCOUT	1252	n/a	n/a	-1	1.0	1.0	1	upper	Verdana.ttf
3262.45	n/a	WORD	1631225	wordpools/wasnorm_wordpool_less_exclusions.txt	LTP185	ltpFR	5	15	-1	POLICE	1098	n/a	n/a	-1	1.0	1.0	1	upper	Verdana.ttf
3266.434	n/a	WORD	1633217	wordpools/wasnorm_wordpool_less_exclusions.txt	LTP185	ltpFR	5	15	-1	OPERATOR	979	n/a	n/a	-1	1.0	1.0	1	upper	Verdana.ttf
3270.382	n/a	WORD	1635191	wordpools/wasnorm_wordpool_less_exclusions.txt	LTP185	ltpFR	5	15	-1	HEN	703	n/a	n/a	-1	1.0	1.0	1	upper	Verdana.ttf
3276.306	n/a	REC_START	1638153	n/a	LTP185	ltpFR	5	15	n/a	n/a	n/a	n/a	n/a	n/a	n/a	n/a	n/a	n/a	n/a
3276.978	n/a	REC_WORD	1638489	wordpools/wasnorm_wordpool_less_exclusions.txt	LTP185	ltpFR	5	15	-1	OPERATOR	979	n/a	n/a	-1	n/a	n/a	n/a	n/a	n/a
3277.698	n/a	REC_WORD	1638849	wordpools/wasnorm_wordpool_less_exclusions.txt	LTP185	ltpFR	5	15	-1	HEN	703	n/a	n/a	-1	n/a	n/a	n/a	n/a	n/a
3278.7	n/a	REC_WORD	1639350	wordpools/wasnorm_wordpool_less_exclusions.txt	LTP185	ltpFR	5	15	-1	POLICE	1098	n/a	n/a	-1	n/a	n/a	n/a	n/a	n/a
3279.382	n/a	REC_WORD	1639691	wordpools/wasnorm_wordpool_less_exclusions.txt	LTP185	ltpFR	5	15	-1	SCOUT	1252	n/a	n/a	-1	n/a	n/a	n/a	n/a	n/a
3280.47	n/a	REC_WORD	1640235	wordpools/wasnorm_wordpool_less_exclusions.txt	LTP185	ltpFR	5	15	-1	FIELD	562	n/a	n/a	-1	n/a	n/a	n/a	n/a	n/a
3281.09	n/a	REC_WORD	1640545	wordpools/wasnorm_wordpool_less_exclusions.txt	LTP185	ltpFR	5	15	-1	GUARD	667	n/a	n/a	-1	n/a	n/a	n/a	n/a	n/a
3281.658	n/a	REC_WORD	1640829	wordpools/wasnorm_wordpool_less_exclusions.txt	LTP185	ltpFR	5	15	-1	MONASTERY	907	n/a	n/a	-1	n/a	n/a	n/a	n/a	n/a
3283.394	n/a	REC_WORD	1641697	wordpools/wasnorm_wordpool_less_exclusions.txt	LTP185	ltpFR	5	15	-1	OFFICER	973	n/a	n/a	-1	n/a	n/a	n/a	n/a	n/a
3284.102	n/a	REC_WORD	1642051	wordpools/wasnorm_wordpool_less_exclusions.txt	LTP185	ltpFR	5	15	-1	GENERAL	630	n/a	n/a	-1	n/a	n/a	n/a	n/a	n/a
3285.026	n/a	REC_WORD	1642513	wordpools/wasnorm_wordpool_less_exclusions.txt	LTP185	ltpFR	5	15	-1	COUCH	386	n/a	n/a	-1	n/a	n/a	n/a	n/a	n/a
3285.646	n/a	REC_WORD	1642823	wordpools/wasnorm_wordpool_less_exclusions.txt	LTP185	ltpFR	5	15	-1	SOFA	1342	n/a	n/a	-1	n/a	n/a	n/a	n/a	n/a
3287.112	n/a	REC_WORD	1643556	wordpools/wasnorm_wordpool_less_exclusions.txt	LTP185	ltpFR	5	15	-1	ROBE	1198	n/a	n/a	-1	n/a	n/a	n/a	n/a	n/a
3287.86	n/a	REC_WORD	1643930	wordpools/wasnorm_wordpool_less_exclusions.txt	LTP185	ltpFR	5	15	-1	LAPEL	800	n/a	n/a	-1	n/a	n/a	n/a	n/a	n/a
3290.37	n/a	REC_WORD	1645185	wordpools/wasnorm_wordpool_less_exclusions.txt	LTP185	ltpFR	5	15	-1	FIELD	562	n/a	n/a	-1	n/a	n/a	n/a	n/a	n/a
3292.734	n/a	REC_WORD	1646367	wordpools/wasnorm_wordpool_less_exclusions.txt	LTP185	ltpFR	5	15	-1	PREACHER	1119	n/a	n/a	-1	n/a	n/a	n/a	n/a	n/a
3293.438	n/a	REC_WORD	1646719	wordpools/wasnorm_wordpool_less_exclusions.txt	LTP185	ltpFR	5	15	-1	PITCHFORK	1078	n/a	n/a	-1	n/a	n/a	n/a	n/a	n/a
3294.41	n/a	REC_WORD	1647205	wordpools/wasnorm_wordpool_less_exclusions.txt	LTP185	ltpFR	5	15	-1	KLEENEX	782	n/a	n/a	-1	n/a	n/a	n/a	n/a	n/a
3401.818	n/a	WORD	1700909	wordpools/wasnorm_wordpool_less_exclusions.txt	LTP185	ltpFR	5	16	1	HAY	693	n/a	n/a	0	0.422607421875	0.5869140625	0	lower	zerothre.ttf
3405.666	n/a	WORD	1702833	wordpools/wasnorm_wordpool_less_exclusions.txt	LTP185	ltpFR	5	16	1	CELLO	268	n/a	n/a	0	0.422607421875	0.5869140625	0	lower	zerothre.ttf
3409.53	n/a	WORD	1704765	wordpools/wasnorm_wordpool_less_exclusions.txt	LTP185	ltpFR	5	16	0	CLAM	315	n/a	n/a	0	0.57763671875	0.412841796875	1	upper	amplitud.ttf
3413.614	n/a	WORD	1706807	wordpools/wasnorm_wordpool_less_exclusions.txt	LTP185	ltpFR	5	16	0	WHEAT	1602	n/a	n/a	0	0.57763671875	0.412841796875	1	upper	amplitud.ttf
3417.494	n/a	WORD	1708747	wordpools/wasnorm_wordpool_less_exclusions.txt	LTP185	ltpFR	5	16	1	WHEEL	1603	n/a	n/a	0	0.422607421875	0.5869140625	0	lower	zerothre.ttf
3421.426	n/a	WORD	1710713	wordpools/wasnorm_wordpool_less_exclusions.txt	LTP185	ltpFR	5	16	1	SHELL	1281	n/a	n/a	0	0.422607421875	0.5869140625	0	lower	zerothre.ttf
3425.374	n/a	WORD	1712687	wordpools/wasnorm_wordpool_less_exclusions.txt	LTP185	ltpFR	5	16	1	FARMER	553	n/a	n/a	1	0.422607421875	0.5869140625	0	lower	zerothre.ttf
3429.354	n/a	WORD	1714677	wordpools/wasnorm_wordpool_less_exclusions.txt	LTP185	ltpFR	5	16	1	PLAYGROUND	1087	n/a	n/a	0	0.422607421875	0.5869140625	0	lower	zerothre.ttf
3433.504	n/a	WORD	1716752	wordpools/wasnorm_wordpool_less_exclusions.txt	LTP185	ltpFR	5	16	1	CLOVE	329	n/a	n/a	1	0.422607421875	0.5869140625	0	lower	zerothre.ttf
3437.638	n/a	WORD	1718819	wordpools/wasnorm_wordpool_less_exclusions.txt	LTP185	ltpFR	5	16	1	CASHIER	254	n/a	n/a	1	0.422607421875	0.5869140625	0	lower	zerothre.ttf
3441.62	n/a	WORD	1720810	wordpools/wasnorm_wordpool_less_exclusions.txt	LTP185	ltpFR	5	16	0	REGISTER	1180	n/a	n/a	1	0.57763671875	0.412841796875	1	upper	amplitud.ttf
3445.5	n/a	WORD	1722750	wordpools/wasnorm_wordpool_less_exclusions.txt	LTP185	ltpFR	5	16	0	LIMOUSINE	824	n/a	n/a	1	0.57763671875	0.412841796875	1	upper	amplitud.ttf
3449.348	n/a	WORD	1724674	wordpools/wasnorm_wordpool_less_exclusions.txt	LTP185	ltpFR	5	16	0	TRACTOR	1493	n/a	n/a	1	0.57763671875	0.412841796875	1	upper	amplitud.ttf
3453.23	n/a	WORD	1726615	wordpools/wasnorm_wordpool_less_exclusions.txt	LTP185	ltpFR	5	16	0	EMPEROR	529	n/a	n/a	1	0.57763671875	0.412841796875	1	upper	amplitud.ttf
3457.062	n/a	WORD	1728531	wordpools/wasnorm_wordpool_less_exclusions.txt	LTP185	ltpFR	5	16	0	CROWN	415	n/a	n/a	1	0.57763671875	0.412841796875	1	upper	amplitud.ttf
3461.176	n/a	WORD	1730588	wordpools/wasnorm_wordpool_less_exclusions.txt	LTP185	ltpFR	5	16	0	HERD	705	n/a	n/a	1	0.57763671875	0.412841796875	1	upper	amplitud.ttf
3467.168	n/a	REC_START	1733584	n/a	LTP185	ltpFR	5	16	n/a	n/a	n/a	n/a	n/a	n/a	n/a	n/a	n/a	n/a	n/a
3467.836	n/a	REC_WORD	1733918	wordpools/wasnorm_wordpool_less_exclusions.txt	LTP185	ltpFR	5	16	0	EMPEROR	529	n/a	n/a	1	n/a	n/a	n/a	n/a	n/a
3468.524	n/a	REC_WORD	1734262	wordpools/wasnorm_wordpool_less_exclusions.txt	LTP185	ltpFR	5	16	0	CROWN	415	n/a	n/a	1	n/a	n/a	n/a	n/a	n/a
3469.666	n/a	REC_WORD	1734833	wordpools/wasnorm_wordpool_less_exclusions.txt	LTP185	ltpFR	5	16	0	TRACTOR	1493	n/a	n/a	1	n/a	n/a	n/a	n/a	n/a
3470.256	n/a	REC_WORD	1735128	wordpools/wasnorm_wordpool_less_exclusions.txt	LTP185	ltpFR	5	16	0	LIMOUSINE	824	n/a	n/a	1	n/a	n/a	n/a	n/a	n/a
3470.944	n/a	REC_WORD	1735472	wordpools/wasnorm_wordpool_less_exclusions.txt	LTP185	ltpFR	5	16	1	CASHIER	254	n/a	n/a	1	n/a	n/a	n/a	n/a	n/a
3471.638	n/a	REC_WORD	1735819	wordpools/wasnorm_wordpool_less_exclusions.txt	LTP185	ltpFR	5	16	0	REGISTER	1180	n/a	n/a	1	n/a	n/a	n/a	n/a	n/a
3472.436	n/a	REC_WORD	1736218	wordpools/wasnorm_wordpool_less_exclusions.txt	LTP185	ltpFR	5	16	1	PLAYGROUND	1087	n/a	n/a	0	n/a	n/a	n/a	n/a	n/a
3473.264	n/a	REC_WORD	1736632	wordpools/wasnorm_wordpool_less_exclusions.txt	LTP185	ltpFR	5	16	1	CLOVE	329	n/a	n/a	1	n/a	n/a	n/a	n/a	n/a
3474.632	n/a	REC_WORD	1737316	wordpools/wasnorm_wordpool_less_exclusions.txt	LTP185	ltpFR	5	16	0	WHEAT	1602	n/a	n/a	0	n/a	n/a	n/a	n/a	n/a
3475.264	n/a	REC_WORD	1737632	wordpools/wasnorm_wordpool_less_exclusions.txt	LTP185	ltpFR	5	16	1	HAY	693	n/a	n/a	0	n/a	n/a	n/a	n/a	n/a
3476.832	n/a	REC_WORD	1738416	wordpools/wasnorm_wordpool_less_exclusions.txt	LTP185	ltpFR	5	16	1	FARMER	553	n/a	n/a	1	n/a	n/a	n/a	n/a	n/a
3478.278	n/a	REC_WORD	1739139	wordpools/wasnorm_wordpool_less_exclusions.txt	LTP185	ltpFR	5	16	1	WHEEL	1603	n/a	n/a	0	n/a	n/a	n/a	n/a	n/a
3479.116	n/a	REC_WORD	1739558	wordpools/wasnorm_wordpool_less_exclusions.txt	LTP185	ltpFR	5	16	0	CLAM	315	n/a	n/a	0	n/a	n/a	n/a	n/a	n/a
3480.104	n/a	REC_WORD	1740052	wordpools/wasnorm_wordpool_less_exclusions.txt	LTP185	ltpFR	5	16	1	SHELL	1281	n/a	n/a	0	n/a	n/a	n/a	n/a	n/a
3482.1	n/a	REC_WORD	1741050	wordpools/wasnorm_wordpool_less_exclusions.txt	LTP185	ltpFR	5	16	1	CELLO	268	n/a	n/a	0	n/a	n/a	n/a	n/a	n/a
3496.358	n/a	REC_WORD	1748179	wordpools/wasnorm_wordpool_less_exclusions.txt	LTP185	ltpFR	5	16	0	HERD	705	n/a	n/a	1	n/a	n/a	n/a	n/a	n/a
3596.462	n/a	REC_START	1798231	n/a	LTP185	ltpFR	5	1	n/a	n/a	n/a	n/a	n/a	n/a	n/a	n/a	n/a	n/a	n/a
3596.51	n/a	RECOG_TARGET	1798255	n/a	LTP185	ltpFR	5	1	0	CHESS	294	1	5	0	n/a	n/a	n/a	n/a	n/a
3597.932	n/a	RECOG_RESP	1798966	n/a	LTP185	ltpFR	5	1	0	CHESS	294	1	n/a	0	n/a	n/a	n/a	n/a	n/a
3599.054	n/a	RECOG_CONF	1799527	n/a	LTP185	ltpFR	5	1	0	CHESS	294	n/a	5	0	n/a	n/a	n/a	n/a	n/a
3600.98	n/a	RECOG_LURE	1800490	n/a	LTP185	ltpFR	5	1	n/a	SHEET	1279	0	4	n/a	n/a	n/a	n/a	n/a	n/a
3601.584	n/a	RECOG_RESP	1800792	n/a	LTP185	ltpFR	5	1	n/a	SHEET	1279	0	n/a	n/a	n/a	n/a	n/a	n/a	n/a
3602.316	n/a	RECOG_CONF	1801158	n/a	LTP185	ltpFR	5	1	n/a	SHEET	1279	n/a	4	n/a	n/a	n/a	n/a	n/a	n/a
3604.072	n/a	RECOG_TARGET	1802036	n/a	LTP185	ltpFR	5	1	-1	BASSINET	97	1	5	-1	n/a	n/a	n/a	n/a	n/a
3604.746	n/a	RECOG_RESP	1802373	n/a	LTP185	ltpFR	5	1	-1	BASSINET	97	1	n/a	-1	n/a	n/a	n/a	n/a	n/a
3605.484	n/a	RECOG_CONF	1802742	n/a	LTP185	ltpFR	5	1	-1	BASSINET	97	n/a	5	-1	n/a	n/a	n/a	n/a	n/a
3607.268	n/a	RECOG_TARGET	1803634	n/a	LTP185	ltpFR	5	1	1	DRYER	503	1	4	0	n/a	n/a	n/a	n/a	n/a
3607.872	n/a	RECOG_RESP	1803936	n/a	LTP185	ltpFR	5	1	1	DRYER	503	1	n/a	0	n/a	n/a	n/a	n/a	n/a
3608.7	n/a	RECOG_CONF	1804350	n/a	LTP185	ltpFR	5	1	1	DRYER	503	n/a	4	0	n/a	n/a	n/a	n/a	n/a
3610.314	n/a	RECOG_TARGET	1805157	n/a	LTP185	ltpFR	5	1	0	FIN	566	1	5	0	n/a	n/a	n/a	n/a	n/a
3610.914	n/a	RECOG_RESP	1805457	n/a	LTP185	ltpFR	5	1	0	FIN	566	1	n/a	0	n/a	n/a	n/a	n/a	n/a
3611.624	n/a	RECOG_CONF	1805812	n/a	LTP185	ltpFR	5	1	0	FIN	566	n/a	5	0	n/a	n/a	n/a	n/a	n/a
3613.426	n/a	RECOG_LURE	1806713	n/a	LTP185	ltpFR	5	1	n/a	BUTTER	205	0	4	n/a	n/a	n/a	n/a	n/a	n/a
3614.048	n/a	RECOG_RESP	1807024	n/a	LTP185	ltpFR	5	1	n/a	BUTTER	205	0	n/a	n/a	n/a	n/a	n/a	n/a	n/a
3614.716	n/a	RECOG_CONF	1807358	n/a	LTP185	ltpFR	5	1	n/a	BUTTER	205	n/a	4	n/a	n/a	n/a	n/a	n/a	n/a
3616.436	n/a	RECOG_LURE	1808218	n/a	LTP185	ltpFR	5	1	n/a	CELERY	266	0	3	n/a	n/a	n/a	n/a	n/a	n/a
3617.312	n/a	RECOG_RESP	1808656	n/a	LTP185	ltpFR	5	1	n/a	CELERY	266	0	n/a	n/a	n/a	n/a	n/a	n/a	n/a
3618.122	n/a	RECOG_CONF	1809061	n/a	LTP185	ltpFR	5	1	n/a	CELERY	266	n/a	3	n/a	n/a	n/a	n/a	n/a	n/a
3619.8	n/a	RECOG_LURE	1809900	n/a	LTP185	ltpFR	5	1	n/a	POWDER	1117	0	4	n/a	n/a	n/a	n/a	n/a	n/a
3621.366	n/a	RECOG_RESP	1810683	n/a	LTP185	ltpFR	5	1	n/a	POWDER	1117	0	n/a	n/a	n/a	n/a	n/a	n/a	n/a
3622.182	n/a	RECOG_CONF	1811091	n/a	LTP185	ltpFR	5	1	n/a	POWDER	1117	n/a	4	n/a	n/a	n/a	n/a	n/a	n/a
3623.966	n/a	RECOG_LURE	1811983	n/a	LTP185	ltpFR	5	1	n/a	PIT	1077	0	2	n/a	n/a	n/a	n/a	n/a	n/a
3625.35	n/a	RECOG_RESP	1812675	n/a	LTP185	ltpFR	5	1	n/a	PIT	1077	0	n/a	n/a	n/a	n/a	n/a	n/a	n/a
3626.63	n/a	RECOG_CONF	1813315	n/a	LTP185	ltpFR	5	1	n/a	PIT	1077	n/a	2	n/a	n/a	n/a	n/a	n/a	n/a
3628.45	n/a	RECOG_TARGET	1814225	n/a	LTP185	ltpFR	5	1	-1	SCOUT	1252	1	5	-1	n/a	n/a	n/a	n/a	n/a
3629.11	n/a	RECOG_RESP	1814555	n/a	LTP185	ltpFR	5	1	-1	SCOUT	1252	1	n/a	-1	n/a	n/a	n/a	n/a	n/a
3629.972	n/a	RECOG_CONF	1814986	n/a	LTP185	ltpFR	5	1	-1	SCOUT	1252	n/a	5	-1	n/a	n/a	n/a	n/a	n/a
3631.746	n/a	RECOG_TARGET	1815873	n/a	LTP185	ltpFR	5	1	0	OCEAN	970	1	5	1	n/a	n/a	n/a	n/a	n/a
3632.222	n/a	RECOG_RESP	1816111	n/a	LTP185	ltpFR	5	1	0	OCEAN	970	1	n/a	1	n/a	n/a	n/a	n/a	n/a
3632.938	n/a	RECOG_CONF	1816469	n/a	LTP185	ltpFR	5	1	0	OCEAN	970	n/a	5	1	n/a	n/a	n/a	n/a	n/a
3634.808	n/a	RECOG_LURE	1817404	n/a	LTP185	ltpFR	5	1	n/a	LAKE	796	0	5	n/a	n/a	n/a	n/a	n/a	n/a
3635.558	n/a	RECOG_RESP	1817779	n/a	LTP185	ltpFR	5	1	n/a	LAKE	796	0	n/a	n/a	n/a	n/a	n/a	n/a	n/a
3636.272	n/a	RECOG_CONF	1818136	n/a	LTP185	ltpFR	5	1	n/a	LAKE	796	n/a	5	n/a	n/a	n/a	n/a	n/a	n/a
3638.152	n/a	RECOG_TARGET	1819076	n/a	LTP185	ltpFR	5	1	0	LENS	811	1	5	0	n/a	n/a	n/a	n/a	n/a
3639.006	n/a	RECOG_RESP	1819503	n/a	LTP185	ltpFR	5	1	0	LENS	811	1	n/a	0	n/a	n/a	n/a	n/a	n/a
3639.9	n/a	RECOG_CONF	1819950	n/a	LTP185	ltpFR	5	1	0	LENS	811	n/a	5	0	n/a	n/a	n/a	n/a	n/a
3641.566	n/a	RECOG_TARGET	1820783	n/a	LTP185	ltpFR	5	1	0	BLOSSOM	138	1	5	0	n/a	n/a	n/a	n/a	n/a
3642.182	n/a	RECOG_RESP	1821091	n/a	LTP185	ltpFR	5	1	0	BLOSSOM	138	1	n/a	0	n/a	n/a	n/a	n/a	n/a
3642.9	n/a	RECOG_CONF	1821450	n/a	LTP185	ltpFR	5	1	0	BLOSSOM	138	n/a	5	0	n/a	n/a	n/a	n/a	n/a
3644.662	n/a	RECOG_TARGET	1822331	n/a	LTP185	ltpFR	5	1	0	VAMPIRE	1547	1	5	1	n/a	n/a	n/a	n/a	n/a
3645.258	n/a	RECOG_RESP	1822629	n/a	LTP185	ltpFR	5	1	0	VAMPIRE	1547	1	n/a	1	n/a	n/a	n/a	n/a	n/a
3646.102	n/a	RECOG_CONF	1823051	n/a	LTP185	ltpFR	5	1	0	VAMPIRE	1547	n/a	5	1	n/a	n/a	n/a	n/a	n/a
3647.76	n/a	RECOG_LURE	1823880	n/a	LTP185	ltpFR	5	1	n/a	PAWN	1030	0	3	n/a	n/a	n/a	n/a	n/a	n/a
3649.174	n/a	RECOG_RESP	1824587	n/a	LTP185	ltpFR	5	1	n/a	PAWN	1030	0	n/a	n/a	n/a	n/a	n/a	n/a	n/a
3650.018	n/a	RECOG_CONF	1825009	n/a	LTP185	ltpFR	5	1	n/a	PAWN	1030	n/a	3	n/a	n/a	n/a	n/a	n/a	n/a
3651.622	n/a	RECOG_LURE	1825811	n/a	LTP185	ltpFR	5	1	n/a	RUNNER	1218	1	4	n/a	n/a	n/a	n/a	n/a	n/a
3652.458	n/a	RECOG_RESP	1826229	n/a	LTP185	ltpFR	5	1	n/a	RUNNER	1218	1	n/a	n/a	n/a	n/a	n/a	n/a	n/a
3654.238	n/a	RECOG_CONF	1827119	n/a	LTP185	ltpFR	5	1	n/a	RUNNER	1218	n/a	4	n/a	n/a	n/a	n/a	n/a	n/a
3656.004	n/a	RECOG_TARGET	1828002	n/a	LTP185	ltpFR	5	1	1	MUSHROOM	934	1	5	1	n/a	n/a	n/a	n/a	n/a
3656.664	n/a	RECOG_RESP	1828332	n/a	LTP185	ltpFR	5	1	1	MUSHROOM	934	1	n/a	1	n/a	n/a	n/a	n/a	n/a
3657.41	n/a	RECOG_CONF	1828705	n/a	LTP185	ltpFR	5	1	1	MUSHROOM	934	n/a	5	1	n/a	n/a	n/a	n/a	n/a
3659.15	n/a	RECOG_TARGET	1829575	n/a	LTP185	ltpFR	5	1	1	BUFFALO	186	1	5	1	n/a	n/a	n/a	n/a	n/a
3659.756	n/a	RECOG_RESP	1829878	n/a	LTP185	ltpFR	5	1	1	BUFFALO	186	1	n/a	1	n/a	n/a	n/a	n/a	n/a
3660.554	n/a	RECOG_CONF	1830277	n/a	LTP185	ltpFR	5	1	1	BUFFALO	186	n/a	5	1	n/a	n/a	n/a	n/a	n/a
3662.262	n/a	RECOG_TARGET	1831131	n/a	LTP185	ltpFR	5	1	0	PLAZA	1088	1	4	1	n/a	n/a	n/a	n/a	n/a
3662.956	n/a	RECOG_RESP	1831478	n/a	LTP185	ltpFR	5	1	0	PLAZA	1088	1	n/a	1	n/a	n/a	n/a	n/a	n/a
3663.808	n/a	RECOG_CONF	1831904	n/a	LTP185	ltpFR	5	1	0	PLAZA	1088	n/a	4	1	n/a	n/a	n/a	n/a	n/a
3667.962	n/a	REC_START	1833981	n/a	LTP185	ltpFR	5	2	n/a	n/a	n/a	n/a	n/a	n/a	n/a	n/a	n/a	n/a	n/a
3668.002	n/a	RECOG_TARGET	1834001	n/a	LTP185	ltpFR	5	2	-1	GUARD	667	1	5	-1	n/a	n/a	n/a	n/a	n/a
3668.696	n/a	RECOG_RESP	1834348	n/a	LTP185	ltpFR	5	2	-1	GUARD	667	1	n/a	-1	n/a	n/a	n/a	n/a	n/a
3669.358	n/a	RECOG_CONF	1834679	n/a	LTP185	ltpFR	5	2	-1	GUARD	667	n/a	5	-1	n/a	n/a	n/a	n/a	n/a
3671.216	n/a	RECOG_LURE	1835608	n/a	LTP185	ltpFR	5	2	n/a	SHOELACE	1289	0	5	n/a	n/a	n/a	n/a	n/a	n/a
3671.924	n/a	RECOG_RESP	1835962	n/a	LTP185	ltpFR	5	2	n/a	SHOELACE	1289	0	n/a	n/a	n/a	n/a	n/a	n/a	n/a
3672.686	n/a	RECOG_CONF	1836343	n/a	LTP185	ltpFR	5	2	n/a	SHOELACE	1289	n/a	5	n/a	n/a	n/a	n/a	n/a	n/a
3674.462	n/a	RECOG_TARGET	1837231	n/a	LTP185	ltpFR	5	2	-1	WALRUS	1585	1	5	-1	n/a	n/a	n/a	n/a	n/a
3675.222	n/a	RECOG_RESP	1837611	n/a	LTP185	ltpFR	5	2	-1	WALRUS	1585	1	n/a	-1	n/a	n/a	n/a	n/a	n/a
3676.038	n/a	RECOG_CONF	1838019	n/a	LTP185	ltpFR	5	2	-1	WALRUS	1585	n/a	5	-1	n/a	n/a	n/a	n/a	n/a
3677.956	n/a	RECOG_TARGET	1838978	n/a	LTP185	ltpFR	5	2	0	TOY	1492	1	5	0	n/a	n/a	n/a	n/a	n/a
3678.552	n/a	RECOG_RESP	1839276	n/a	LTP185	ltpFR	5	2	0	TOY	1492	1	n/a	0	n/a	n/a	n/a	n/a	n/a
3679.342	n/a	RECOG_CONF	1839671	n/a	LTP185	ltpFR	5	2	0	TOY	1492	n/a	5	0	n/a	n/a	n/a	n/a	n/a
3681.188	n/a	RECOG_TARGET	1840594	n/a	LTP185	ltpFR	5	2	0	SEA	1259	1	5	1	n/a	n/a	n/a	n/a	n/a
3681.686	n/a	RECOG_RESP	1840843	n/a	LTP185	ltpFR	5	2	0	SEA	1259	1	n/a	1	n/a	n/a	n/a	n/a	n/a
3682.358	n/a	RECOG_CONF	1841179	n/a	LTP185	ltpFR	5	2	0	SEA	1259	n/a	5	1	n/a	n/a	n/a	n/a	n/a
3684.028	n/a	RECOG_TARGET	1842014	n/a	LTP185	ltpFR	5	2	0	LUNCH	849	1	5	1	n/a	n/a	n/a	n/a	n/a
3684.524	n/a	RECOG_RESP	1842262	n/a	LTP185	ltpFR	5	2	0	LUNCH	849	1	n/a	1	n/a	n/a	n/a	n/a	n/a
3685.21	n/a	RECOG_CONF	1842605	n/a	LTP185	ltpFR	5	2	0	LUNCH	849	n/a	5	1	n/a	n/a	n/a	n/a	n/a
3686.806	n/a	RECOG_LURE	1843403	n/a	LTP185	ltpFR	5	2	n/a	BRUSH	182	0	3	n/a	n/a	n/a	n/a	n/a	n/a
3687.45	n/a	RECOG_RESP	1843725	n/a	LTP185	ltpFR	5	2	n/a	BRUSH	182	0	n/a	n/a	n/a	n/a	n/a	n/a	n/a
3688.098	n/a	RECOG_CONF	1844049	n/a	LTP185	ltpFR	5	2	n/a	BRUSH	182	n/a	3	n/a	n/a	n/a	n/a	n/a	n/a
3689.752	n/a	RECOG_TARGET	1844876	n/a	LTP185	ltpFR	5	2	0	VIOLIN	1571	1	4	1	n/a	n/a	n/a	n/a	n/a
3690.246	n/a	RECOG_RESP	1845123	n/a	LTP185	ltpFR	5	2	0	VIOLIN	1571	1	n/a	1	n/a	n/a	n/a	n/a	n/a
3690.894	n/a	RECOG_CONF	1845447	n/a	LTP185	ltpFR	5	2	0	VIOLIN	1571	n/a	4	1	n/a	n/a	n/a	n/a	n/a
3692.596	n/a	RECOG_TARGET	1846298	n/a	LTP185	ltpFR	5	2	0	HERD	705	1	5	1	n/a	n/a	n/a	n/a	n/a
3693.27	n/a	RECOG_RESP	1846635	n/a	LTP185	ltpFR	5	2	0	HERD	705	1	n/a	1	n/a	n/a	n/a	n/a	n/a
3694.04	n/a	RECOG_CONF	1847020	n/a	LTP185	ltpFR	5	2	0	HERD	705	n/a	5	1	n/a	n/a	n/a	n/a	n/a
3695.706	n/a	RECOG_LURE	1847853	n/a	LTP185	ltpFR	5	2	n/a	CAP	236	1	4	n/a	n/a	n/a	n/a	n/a	n/a
3696.304	n/a	RECOG_RESP	1848152	n/a	LTP185	ltpFR	5	2	n/a	CAP	236	1	n/a	n/a	n/a	n/a	n/a	n/a	n/a
3696.972	n/a	RECOG_CONF	1848486	n/a	LTP185	ltpFR	5	2	n/a	CAP	236	n/a	4	n/a	n/a	n/a	n/a	n/a	n/a
3698.718	n/a	RECOG_TARGET	1849359	n/a	LTP185	ltpFR	5	2	1	MARINE	869	1	5	1	n/a	n/a	n/a	n/a	n/a
3699.294	n/a	RECOG_RESP	1849647	n/a	LTP185	ltpFR	5	2	1	MARINE	869	1	n/a	1	n/a	n/a	n/a	n/a	n/a
3699.946	n/a	RECOG_CONF	1849973	n/a	LTP185	ltpFR	5	2	1	MARINE	869	n/a	5	1	n/a	n/a	n/a	n/a	n/a
3701.632	n/a	RECOG_TARGET	1850816	n/a	LTP185	ltpFR	5	2	0	RABBIT	1152	1	5	1	n/a	n/a	n/a	n/a	n/a
3702.184	n/a	RECOG_RESP	1851092	n/a	LTP185	ltpFR	5	2	0	RABBIT	1152	1	n/a	1	n/a	n/a	n/a	n/a	n/a
3702.81	n/a	RECOG_CONF	1851405	n/a	LTP185	ltpFR	5	2	0	RABBIT	1152	n/a	5	1	n/a	n/a	n/a	n/a	n/a
3704.39	n/a	RECOG_TARGET	1852195	n/a	LTP185	ltpFR	5	2	-1	WAVE	1596	1	5	-1	n/a	n/a	n/a	n/a	n/a
3704.922	n/a	RECOG_RESP	1852461	n/a	LTP185	ltpFR	5	2	-1	WAVE	1596	1	n/a	-1	n/a	n/a	n/a	n/a	n/a
3705.528	n/a	RECOG_CONF	1852764	n/a	LTP185	ltpFR	5	2	-1	WAVE	1596	n/a	5	-1	n/a	n/a	n/a	n/a	n/a
3707.284	n/a	RECOG_LURE	1853642	n/a	LTP185	ltpFR	5	2	n/a	THESAURUS	1454	0	5	n/a	n/a	n/a	n/a	n/a	n/a
3707.992	n/a	RECOG_RESP	1853996	n/a	LTP185	ltpFR	5	2	n/a	THESAURUS	1454	0	n/a	n/a	n/a	n/a	n/a	n/a	n/a
3708.716	n/a	RECOG_CONF	1854358	n/a	LTP185	ltpFR	5	2	n/a	THESAURUS	1454	n/a	5	n/a	n/a	n/a	n/a	n/a	n/a
3710.496	n/a	RECOG_TARGET	1855248	n/a	LTP185	ltpFR	5	2	1	MOB	904	1	5	1	n/a	n/a	n/a	n/a	n/a
3711.162	n/a	RECOG_RESP	1855581	n/a	LTP185	ltpFR	5	2	1	MOB	904	1	n/a	1	n/a	n/a	n/a	n/a	n/a
3711.772	n/a	RECOG_CONF	1855886	n/a	LTP185	ltpFR	5	2	1	MOB	904	n/a	5	1	n/a	n/a	n/a	n/a	n/a
3713.658	n/a	RECOG_LURE	1856829	n/a	LTP185	ltpFR	5	2	n/a	FIST	572	0	3	n/a	n/a	n/a	n/a	n/a	n/a
3714.368	n/a	RECOG_RESP	1857184	n/a	LTP185	ltpFR	5	2	n/a	FIST	572	0	n/a	n/a	n/a	n/a	n/a	n/a	n/a
3715.034	n/a	RECOG_CONF	1857517	n/a	LTP185	ltpFR	5	2	n/a	FIST	572	n/a	3	n/a	n/a	n/a	n/a	n/a	n/a
3716.888	n/a	RECOG_TARGET	1858444	n/a	LTP185	ltpFR	5	2	1	CREATURE	403	1	5	1	n/a	n/a	n/a	n/a	n/a
3717.508	n/a	RECOG_RESP	1858754	n/a	LTP185	ltpFR	5	2	1	CREATURE	403	1	n/a	1	n/a	n/a	n/a	n/a	n/a
3718.198	n/a	RECOG_CONF	1859099	n/a	LTP185	ltpFR	5	2	1	CREATURE	403	n/a	5	1	n/a	n/a	n/a	n/a	n/a
3719.95	n/a	RECOG_TARGET	1859975	n/a	LTP185	ltpFR	5	2	1	TIDE	1465	0	2	0	n/a	n/a	n/a	n/a	n/a
3721.1	n/a	RECOG_RESP	1860550	n/a	LTP185	ltpFR	5	2	1	TIDE	1465	0	n/a	0	n/a	n/a	n/a	n/a	n/a
3721.782	n/a	RECOG_CONF	1860891	n/a	LTP185	ltpFR	5	2	1	TIDE	1465	n/a	2	0	n/a	n/a	n/a	n/a	n/a
3723.348	n/a	RECOG_TARGET	1861674	n/a	LTP185	ltpFR	5	2	1	VICTOR	1563	1	5	0	n/a	n/a	n/a	n/a	n/a
3724.096	n/a	RECOG_RESP	1862048	n/a	LTP185	ltpFR	5	2	1	VICTOR	1563	1	n/a	0	n/a	n/a	n/a	n/a	n/a
3724.738	n/a	RECOG_CONF	1862369	n/a	LTP185	ltpFR	5	2	1	VICTOR	1563	n/a	5	0	n/a	n/a	n/a	n/a	n/a
3726.426	n/a	RECOG_TARGET	1863213	n/a	LTP185	ltpFR	5	2	0	DUSTPAN	509	1	5	1	n/a	n/a	n/a	n/a	n/a
3727.114	n/a	RECOG_RESP	1863557	n/a	LTP185	ltpFR	5	2	0	DUSTPAN	509	1	n/a	1	n/a	n/a	n/a	n/a	n/a
3727.696	n/a	RECOG_CONF	1863848	n/a	LTP185	ltpFR	5	2	0	DUSTPAN	509	n/a	5	1	n/a	n/a	n/a	n/a	n/a
3731.266	n/a	REC_START	1865633	n/a	LTP185	ltpFR	5	3	n/a	n/a	n/a	n/a	n/a	n/a	n/a	n/a	n/a	n/a	n/a
3731.312	n/a	RECOG_TARGET	1865656	n/a	LTP185	ltpFR	5	3	1	MAMMAL	861	1	5	1	n/a	n/a	n/a	n/a	n/a
3731.878	n/a	RECOG_RESP	1865939	n/a	LTP185	ltpFR	5	3	1	MAMMAL	861	1	n/a	1	n/a	n/a	n/a	n/a	n/a
3732.51	n/a	RECOG_CONF	1866255	n/a	LTP185	ltpFR	5	3	1	MAMMAL	861	n/a	5	1	n/a	n/a	n/a	n/a	n/a
3734.404	n/a	RECOG_TARGET	1867202	n/a	LTP185	ltpFR	5	3	-1	GALLON	618	1	5	-1	n/a	n/a	n/a	n/a	n/a
3734.996	n/a	RECOG_RESP	1867498	n/a	LTP185	ltpFR	5	3	-1	GALLON	618	1	n/a	-1	n/a	n/a	n/a	n/a	n/a
3735.662	n/a	RECOG_CONF	1867831	n/a	LTP185	ltpFR	5	3	-1	GALLON	618	n/a	5	-1	n/a	n/a	n/a	n/a	n/a
3737.432	n/a	RECOG_LURE	1868716	n/a	LTP185	ltpFR	5	3	n/a	MECHANIC	884	0	3	n/a	n/a	n/a	n/a	n/a	n/a
3738.398	n/a	RECOG_RESP	1869199	n/a	LTP185	ltpFR	5	3	n/a	MECHANIC	884	0	n/a	n/a	n/a	n/a	n/a	n/a	n/a
3739.134	n/a	RECOG_CONF	1869567	n/a	LTP185	ltpFR	5	3	n/a	MECHANIC	884	n/a	3	n/a	n/a	n/a	n/a	n/a	n/a
3740.73	n/a	RECOG_LURE	1870365	n/a	LTP185	ltpFR	5	3	n/a	CRAB	397	0	4	n/a	n/a	n/a	n/a	n/a	n/a
3741.43	n/a	RECOG_RESP	1870715	n/a	LTP185	ltpFR	5	3	n/a	CRAB	397	0	n/a	n/a	n/a	n/a	n/a	n/a	n/a
3742.172	n/a	RECOG_RESP_VV	1871086	n/a	LTP185	ltpFR	5	3	n/a	CRAB	397	n/a	2	n/a	n/a	n/a	n/a	n/a	n/a
3743.21	n/a	RECOG_CONF	1871605	n/a	LTP185	ltpFR	5	3	n/a	CRAB	397	n/a	4	n/a	n/a	n/a	n/a	n/a	n/a
3744.994	n/a	RECOG_TARGET	1872497	n/a	LTP185	ltpFR	5	3	1	DETERGENT	455	1	5	0	n/a	n/a	n/a	n/a	n/a
3745.918	n/a	RECOG_RESP	1872959	n/a	LTP185	ltpFR	5	3	1	DETERGENT	455	1	n/a	0	n/a	n/a	n/a	n/a	n/a
3746.578	n/a	RECOG_CONF	1873289	n/a	LTP185	ltpFR	5	3	1	DETERGENT	455	n/a	5	0	n/a	n/a	n/a	n/a	n/a
3748.374	n/a	RECOG_LURE	1874187	n/a	LTP185	ltpFR	5	3	n/a	TOOTH	1481	0	4	n/a	n/a	n/a	n/a	n/a	n/a
3749.286	n/a	RECOG_RESP	1874643	n/a	LTP185	ltpFR	5	3	n/a	TOOTH	1481	0	n/a	n/a	n/a	n/a	n/a	n/a	n/a
3749.918	n/a	RECOG_CONF	1874959	n/a	LTP185	ltpFR	5	3	n/a	TOOTH	1481	n/a	4	n/a	n/a	n/a	n/a	n/a	n/a
3751.706	n/a	RECOG_LURE	1875853	n/a	LTP185	ltpFR	5	3	n/a	DIPLOMA	470	0	5	n/a	n/a	n/a	n/a	n/a	n/a
3752.418	n/a	RECOG_RESP	1876209	n/a	LTP185	ltpFR	5	3	n/a	DIPLOMA	470	0	n/a	n/a	n/a	n/a	n/a	n/a	n/a
3753.132	n/a	RECOG_CONF	1876566	n/a	LTP185	ltpFR	5	3	n/a	DIPLOMA	470	n/a	5	n/a	n/a	n/a	n/a	n/a	n/a
3754.648	n/a	RECOG_TARGET	1877324	n/a	LTP185	ltpFR	5	3	0	METEOR	889	1	4	1	n/a	n/a	n/a	n/a	n/a
3755.292	n/a	RECOG_RESP	1877646	n/a	LTP185	ltpFR	5	3	0	METEOR	889	1	n/a	1	n/a	n/a	n/a	n/a	n/a
3756.02	n/a	RECOG_CONF	1878010	n/a	LTP185	ltpFR	5	3	0	METEOR	889	n/a	4	1	n/a	n/a	n/a	n/a	n/a
3757.744	n/a	RECOG_LURE	1878872	n/a	LTP185	ltpFR	5	3	n/a	LIGHTNING	820	0	4	n/a	n/a	n/a	n/a	n/a	n/a
3758.924	n/a	RECOG_RESP	1879462	n/a	LTP185	ltpFR	5	3	n/a	LIGHTNING	820	0	n/a	n/a	n/a	n/a	n/a	n/a	n/a
3759.88	n/a	RECOG_RESP_VV	1879940	n/a	LTP185	ltpFR	5	3	n/a	LIGHTNING	820	n/a	2	n/a	n/a	n/a	n/a	n/a	n/a
3760.72	n/a	RECOG_CONF	1880360	n/a	LTP185	ltpFR	5	3	n/a	LIGHTNING	820	n/a	4	n/a	n/a	n/a	n/a	n/a	n/a
3762.528	n/a	RECOG_LURE	1881264	n/a	LTP185	ltpFR	5	3	n/a	SCISSORS	1250	0	3	n/a	n/a	n/a	n/a	n/a	n/a
3763.4	n/a	RECOG_RESP	1881700	n/a	LTP185	ltpFR	5	3	n/a	SCISSORS	1250	0	n/a	n/a	n/a	n/a	n/a	n/a	n/a
3764.132	n/a	RECOG_CONF	1882066	n/a	LTP185	ltpFR	5	3	n/a	SCISSORS	1250	n/a	3	n/a	n/a	n/a	n/a	n/a	n/a
3765.758	n/a	RECOG_LURE	1882879	n/a	LTP185	ltpFR	5	3	n/a	BABY	64	0	4	n/a	n/a	n/a	n/a	n/a	n/a
3766.708	n/a	RECOG_RESP	1883354	n/a	LTP185	ltpFR	5	3	n/a	BABY	64	0	n/a	n/a	n/a	n/a	n/a	n/a	n/a
3767.49	n/a	RECOG_CONF	1883745	n/a	LTP185	ltpFR	5	3	n/a	BABY	64	n/a	4	n/a	n/a	n/a	n/a	n/a	n/a
3769.02	n/a	RECOG_TARGET	1884510	n/a	LTP185	ltpFR	5	3	-1	POND	1101	1	5	-1	n/a	n/a	n/a	n/a	n/a
3769.848	n/a	RECOG_RESP	1884924	n/a	LTP185	ltpFR	5	3	-1	POND	1101	1	n/a	-1	n/a	n/a	n/a	n/a	n/a
3770.538	n/a	RECOG_CONF	1885269	n/a	LTP185	ltpFR	5	3	-1	POND	1101	n/a	5	-1	n/a	n/a	n/a	n/a	n/a
3772.332	n/a	RECOG_LURE	1886166	n/a	LTP185	ltpFR	5	3	n/a	ELK	526	0	5	n/a	n/a	n/a	n/a	n/a	n/a
3773.01	n/a	RECOG_RESP	1886505	n/a	LTP185	ltpFR	5	3	n/a	ELK	526	0	n/a	n/a	n/a	n/a	n/a	n/a	n/a
3773.746	n/a	RECOG_CONF	1886873	n/a	LTP185	ltpFR	5	3	n/a	ELK	526	n/a	5	n/a	n/a	n/a	n/a	n/a	n/a
3775.462	n/a	RECOG_TARGET	1887731	n/a	LTP185	ltpFR	5	3	1	BASKET	95	1	4	0	n/a	n/a	n/a	n/a	n/a
3776.504	n/a	RECOG_RESP	1888252	n/a	LTP185	ltpFR	5	3	1	BASKET	95	1	n/a	0	n/a	n/a	n/a	n/a	n/a
3777.188	n/a	RECOG_CONF	1888594	n/a	LTP185	ltpFR	5	3	1	BASKET	95	n/a	4	0	n/a	n/a	n/a	n/a	n/a
3778.96	n/a	RECOG_LURE	1889480	n/a	LTP185	ltpFR	5	3	n/a	STOVE	1388	0	4	n/a	n/a	n/a	n/a	n/a	n/a
3779.688	n/a	RECOG_RESP	1889844	n/a	LTP185	ltpFR	5	3	n/a	STOVE	1388	0	n/a	n/a	n/a	n/a	n/a	n/a	n/a
3780.354	n/a	RECOG_CONF	1890177	n/a	LTP185	ltpFR	5	3	n/a	STOVE	1388	n/a	4	n/a	n/a	n/a	n/a	n/a	n/a
3782.17	n/a	RECOG_LURE	1891085	n/a	LTP185	ltpFR	5	3	n/a	SKELETON	1314	0	5	n/a	n/a	n/a	n/a	n/a	n/a
3783.668	n/a	RECOG_RESP	1891834	n/a	LTP185	ltpFR	5	3	n/a	SKELETON	1314	0	n/a	n/a	n/a	n/a	n/a	n/a	n/a
3784.456	n/a	RECOG_CONF	1892228	n/a	LTP185	ltpFR	5	3	n/a	SKELETON	1314	n/a	5	n/a	n/a	n/a	n/a	n/a	n/a
3786.374	n/a	RECOG_LURE	1893187	n/a	LTP185	ltpFR	5	3	n/a	YOKE	1632	0	5	n/a	n/a	n/a	n/a	n/a	n/a
3787.26	n/a	RECOG_RESP	1893630	n/a	LTP185	ltpFR	5	3	n/a	YOKE	1632	0	n/a	n/a	n/a	n/a	n/a	n/a	n/a
3788.044	n/a	RECOG_CONF	1894022	n/a	LTP185	ltpFR	5	3	n/a	YOKE	1632	n/a	5	n/a	n/a	n/a	n/a	n/a	n/a
3789.682	n/a	RECOG_TARGET	1894841	n/a	LTP185	ltpFR	5	3	0	SPIDER	1351	1	5	0	n/a	n/a	n/a	n/a	n/a
3790.394	n/a	RECOG_RESP	1895197	n/a	LTP185	ltpFR	5	3	0	SPIDER	1351	1	n/a	0	n/a	n/a	n/a	n/a	n/a
3791.078	n/a	RECOG_CONF	1895539	n/a	LTP185	ltpFR	5	3	0	SPIDER	1351	n/a	5	0	n/a	n/a	n/a	n/a	n/a
3792.868	n/a	RECOG_TARGET	1896434	n/a	LTP185	ltpFR	5	3	0	GOLD	647	1	5	0	n/a	n/a	n/a	n/a	n/a
3793.39	n/a	RECOG_RESP	1896695	n/a	LTP185	ltpFR	5	3	0	GOLD	647	1	n/a	0	n/a	n/a	n/a	n/a	n/a
3794.004	n/a	RECOG_CONF	1897002	n/a	LTP185	ltpFR	5	3	0	GOLD	647	n/a	5	0	n/a	n/a	n/a	n/a	n/a
3795.806	n/a	RECOG_LURE	1897903	n/a	LTP185	ltpFR	5	3	n/a	LIST	830	0	4	n/a	n/a	n/a	n/a	n/a	n/a
3796.516	n/a	RECOG_RESP	1898258	n/a	LTP185	ltpFR	5	3	n/a	LIST	830	0	n/a	n/a	n/a	n/a	n/a	n/a	n/a
3797.152	n/a	RECOG_CONF	1898576	n/a	LTP185	ltpFR	5	3	n/a	LIST	830	n/a	4	n/a	n/a	n/a	n/a	n/a	n/a
3800.852	n/a	REC_START	1900426	n/a	LTP185	ltpFR	5	4	n/a	n/a	n/a	n/a	n/a	n/a	n/a	n/a	n/a	n/a	n/a
3800.91	n/a	RECOG_LURE	1900455	n/a	LTP185	ltpFR	5	4	n/a	TYPEWRITER	1531	0	5	n/a	n/a	n/a	n/a	n/a	n/a
3801.646	n/a	RECOG_RESP	1900823	n/a	LTP185	ltpFR	5	4	n/a	TYPEWRITER	1531	0	n/a	n/a	n/a	n/a	n/a	n/a	n/a
3802.416	n/a	RECOG_CONF	1901208	n/a	LTP185	ltpFR	5	4	n/a	TYPEWRITER	1531	n/a	5	n/a	n/a	n/a	n/a	n/a	n/a
3804.472	n/a	RECOG_LURE	1902236	n/a	LTP185	ltpFR	5	4	n/a	SMOG	1330	0	5	n/a	n/a	n/a	n/a	n/a	n/a
3805.124	n/a	RECOG_RESP	1902562	n/a	LTP185	ltpFR	5	4	n/a	SMOG	1330	0	n/a	n/a	n/a	n/a	n/a	n/a	n/a
3805.856	n/a	RECOG_CONF	1902928	n/a	LTP185	ltpFR	5	4	n/a	SMOG	1330	n/a	5	n/a	n/a	n/a	n/a	n/a	n/a
3807.484	n/a	RECOG_TARGET	1903742	n/a	LTP185	ltpFR	5	4	-1	FINGERNAIL	568	1	5	-1	n/a	n/a	n/a	n/a	n/a
3808.184	n/a	RECOG_RESP	1904092	n/a	LTP185	ltpFR	5	4	-1	FINGERNAIL	568	1	n/a	-1	n/a	n/a	n/a	n/a	n/a
3808.856	n/a	RECOG_CONF	1904428	n/a	LTP185	ltpFR	5	4	-1	FINGERNAIL	568	n/a	5	-1	n/a	n/a	n/a	n/a	n/a
3810.714	n/a	RECOG_TARGET	1905357	n/a	LTP185	ltpFR	5	4	0	CLAM	315	1	5	0	n/a	n/a	n/a	n/a	n/a
3811.31	n/a	RECOG_RESP	1905655	n/a	LTP185	ltpFR	5	4	0	CLAM	315	1	n/a	0	n/a	n/a	n/a	n/a	n/a
3812.062	n/a	RECOG_CONF	1906031	n/a	LTP185	ltpFR	5	4	0	CLAM	315	n/a	5	0	n/a	n/a	n/a	n/a	n/a
3813.76	n/a	RECOG_TARGET	1906880	n/a	LTP185	ltpFR	5	4	1	GRASSHOPPER	656	1	5	1	n/a	n/a	n/a	n/a	n/a
3814.354	n/a	RECOG_RESP	1907177	n/a	LTP185	ltpFR	5	4	1	GRASSHOPPER	656	1	n/a	1	n/a	n/a	n/a	n/a	n/a
3815.136	n/a	RECOG_CONF	1907568	n/a	LTP185	ltpFR	5	4	1	GRASSHOPPER	656	n/a	5	1	n/a	n/a	n/a	n/a	n/a
3816.754	n/a	RECOG_TARGET	1908377	n/a	LTP185	ltpFR	5	4	1	PORT	1110	1	5	0	n/a	n/a	n/a	n/a	n/a
3817.37	n/a	RECOG_RESP	1908685	n/a	LTP185	ltpFR	5	4	1	PORT	1110	1	n/a	0	n/a	n/a	n/a	n/a	n/a
3818.016	n/a	RECOG_CONF	1909008	n/a	LTP185	ltpFR	5	4	1	PORT	1110	n/a	5	0	n/a	n/a	n/a	n/a	n/a
3819.748	n/a	RECOG_LURE	1909874	n/a	LTP185	ltpFR	5	4	n/a	PIG	1064	0	5	n/a	n/a	n/a	n/a	n/a	n/a
3820.384	n/a	RECOG_RESP	1910192	n/a	LTP185	ltpFR	5	4	n/a	PIG	1064	0	n/a	n/a	n/a	n/a	n/a	n/a	n/a
3820.974	n/a	RECOG_CONF	1910487	n/a	LTP185	ltpFR	5	4	n/a	PIG	1064	n/a	5	n/a	n/a	n/a	n/a	n/a	n/a
3822.692	n/a	RECOG_LURE	1911346	n/a	LTP185	ltpFR	5	4	n/a	OINTMENT	974	0	5	n/a	n/a	n/a	n/a	n/a	n/a
3823.506	n/a	RECOG_RESP	1911753	n/a	LTP185	ltpFR	5	4	n/a	OINTMENT	974	0	n/a	n/a	n/a	n/a	n/a	n/a	n/a
3824.162	n/a	RECOG_CONF	1912081	n/a	LTP185	ltpFR	5	4	n/a	OINTMENT	974	n/a	5	n/a	n/a	n/a	n/a	n/a	n/a
3825.938	n/a	RECOG_LURE	1912969	n/a	LTP185	ltpFR	5	4	n/a	EGG	518	0	5	n/a	n/a	n/a	n/a	n/a	n/a
3826.764	n/a	RECOG_RESP	1913382	n/a	LTP185	ltpFR	5	4	n/a	EGG	518	0	n/a	n/a	n/a	n/a	n/a	n/a	n/a
3827.366	n/a	RECOG_CONF	1913683	n/a	LTP185	ltpFR	5	4	n/a	EGG	518	n/a	5	n/a	n/a	n/a	n/a	n/a	n/a
3829.132	n/a	RECOG_TARGET	1914566	n/a	LTP185	ltpFR	5	4	0	SPINACH	1352	1	4	0	n/a	n/a	n/a	n/a	n/a
3829.706	n/a	RECOG_RESP_VV	1914853	n/a	LTP185	ltpFR	5	4	0	SPINACH	1352	0	n/a	0	n/a	n/a	n/a	n/a	n/a
3830.438	n/a	RECOG_RESP	1915219	n/a	LTP185	ltpFR	5	4	0	SPINACH	1352	1	n/a	0	n/a	n/a	n/a	n/a	n/a
3831.368	n/a	RECOG_CONF	1915684	n/a	LTP185	ltpFR	5	4	0	SPINACH	1352	n/a	4	0	n/a	n/a	n/a	n/a	n/a
3833.232	n/a	RECOG_LURE	1916616	n/a	LTP185	ltpFR	5	4	n/a	JOINT	758	0	4	n/a	n/a	n/a	n/a	n/a	n/a
3833.93	n/a	RECOG_RESP	1916965	n/a	LTP185	ltpFR	5	4	n/a	JOINT	758	0	n/a	n/a	n/a	n/a	n/a	n/a	n/a
3834.534	n/a	RECOG_CONF	1917267	n/a	LTP185	ltpFR	5	4	n/a	JOINT	758	n/a	4	n/a	n/a	n/a	n/a	n/a	n/a
3836.194	n/a	RECOG_TARGET	1918097	n/a	LTP185	ltpFR	5	4	-1	OFFICER	973	1	4	-1	n/a	n/a	n/a	n/a	n/a
3836.862	n/a	RECOG_RESP	1918431	n/a	LTP185	ltpFR	5	4	-1	OFFICER	973	1	n/a	-1	n/a	n/a	n/a	n/a	n/a
3837.636	n/a	RECOG_CONF	1918818	n/a	LTP185	ltpFR	5	4	-1	OFFICER	973	n/a	4	-1	n/a	n/a	n/a	n/a	n/a
3839.422	n/a	RECOG_LURE	1919711	n/a	LTP185	ltpFR	5	4	n/a	GHOST	634	0	5	n/a	n/a	n/a	n/a	n/a	n/a
3840.04	n/a	RECOG_RESP	1920020	n/a	LTP185	ltpFR	5	4	n/a	GHOST	634	0	n/a	n/a	n/a	n/a	n/a	n/a	n/a
3840.674	n/a	RECOG_CONF	1920337	n/a	LTP185	ltpFR	5	4	n/a	GHOST	634	n/a	5	n/a	n/a	n/a	n/a	n/a	n/a
3842.518	n/a	RECOG_TARGET	1921259	n/a	LTP185	ltpFR	5	4	1	CANDIDATE	228	1	5	1	n/a	n/a	n/a	n/a	n/a
3843.226	n/a	RECOG_RESP	1921613	n/a	LTP185	ltpFR	5	4	1	CANDIDATE	228	1	n/a	1	n/a	n/a	n/a	n/a	n/a
3843.91	n/a	RECOG_CONF	1921955	n/a	LTP185	ltpFR	5	4	1	CANDIDATE	228	n/a	5	1	n/a	n/a	n/a	n/a	n/a
3845.68	n/a	RECOG_LURE	1922840	n/a	LTP185	ltpFR	5	4	n/a	TORNADO	1485	0	4	n/a	n/a	n/a	n/a	n/a	n/a
3846.382	n/a	RECOG_RESP	1923191	n/a	LTP185	ltpFR	5	4	n/a	TORNADO	1485	0	n/a	n/a	n/a	n/a	n/a	n/a	n/a
3847.594	n/a	RECOG_CONF	1923797	n/a	LTP185	ltpFR	5	4	n/a	TORNADO	1485	n/a	4	n/a	n/a	n/a	n/a	n/a	n/a
