mstime	trial_type	stim_file	subject	experiment	session	trial	item_name	item_num	list	answer	test_x	test_y	test_z
0	SESS_START	n/a	LTP393	ltpFR2	11	n/a	n/a	n/a	n/a	n/a	0	0	0
15218	START	n/a	LTP393	ltpFR2	11	n/a	n/a	n/a	-1	n/a	n/a	n/a	n/a
15249	PROB	n/a	LTP393	ltpFR2	11	n/a	n/a	n/a	-1	14	9	3	2
19482	PROB	n/a	LTP393	ltpFR2	11	n/a	n/a	n/a	-1	18	9	1	8
20866	PROB	n/a	LTP393	ltpFR2	11	n/a	n/a	n/a	-1	16	3	6	7
23082	PROB	n/a	LTP393	ltpFR2	11	n/a	n/a	n/a	-1	20	9	4	7
25232	PROB	n/a	LTP393	ltpFR2	11	n/a	n/a	n/a	-1	12	7	2	3
26769	STOP	n/a	LTP393	ltpFR2	11	n/a	n/a	n/a	-1	n/a	n/a	n/a	n/a
57732	WORD	wordpools/wasnorm_wordpool_576.txt	LTP393	ltpFR2	11	1	SUNRISE	1407	n/a	n/a	0	0	0
60164	WORD	wordpools/wasnorm_wordpool_576.txt	LTP393	ltpFR2	11	1	GIRL	637	n/a	n/a	0	0	0
62649	WORD	wordpools/wasnorm_wordpool_576.txt	LTP393	ltpFR2	11	1	CLOUD	328	n/a	n/a	0	0	0
65231	WORD	wordpools/wasnorm_wordpool_576.txt	LTP393	ltpFR2	11	1	PARTNER	1017	n/a	n/a	0	0	0
67882	WORD	wordpools/wasnorm_wordpool_576.txt	LTP393	ltpFR2	11	1	BOYFRIEND	162	n/a	n/a	0	0	0
70448	WORD	wordpools/wasnorm_wordpool_576.txt	LTP393	ltpFR2	11	1	PIGMENT	1066	n/a	n/a	0	0	0
72999	WORD	wordpools/wasnorm_wordpool_576.txt	LTP393	ltpFR2	11	1	CHURCH	307	n/a	n/a	0	0	0
75649	WORD	wordpools/wasnorm_wordpool_576.txt	LTP393	ltpFR2	11	1	ROOSTER	1209	n/a	n/a	0	0	0
78181	WORD	wordpools/wasnorm_wordpool_576.txt	LTP393	ltpFR2	11	1	TROUT	1511	n/a	n/a	0	0	0
80932	WORD	wordpools/wasnorm_wordpool_576.txt	LTP393	ltpFR2	11	1	ISLAND	745	n/a	n/a	0	0	0
83748	WORD	wordpools/wasnorm_wordpool_576.txt	LTP393	ltpFR2	11	1	SANDWICH	1232	n/a	n/a	0	0	0
86447	WORD	wordpools/wasnorm_wordpool_576.txt	LTP393	ltpFR2	11	1	COD	340	n/a	n/a	0	0	0
89197	WORD	wordpools/wasnorm_wordpool_576.txt	LTP393	ltpFR2	11	1	CONTRACT	368	n/a	n/a	0	0	0
91915	WORD	wordpools/wasnorm_wordpool_576.txt	LTP393	ltpFR2	11	1	GRAVE	658	n/a	n/a	0	0	0
94464	WORD	wordpools/wasnorm_wordpool_576.txt	LTP393	ltpFR2	11	1	SPHINX	1349	n/a	n/a	0	0	0
97080	WORD	wordpools/wasnorm_wordpool_576.txt	LTP393	ltpFR2	11	1	TUBA	1515	n/a	n/a	0	0	0
99498	WORD	wordpools/wasnorm_wordpool_576.txt	LTP393	ltpFR2	11	1	LEG	809	n/a	n/a	0	0	0
102247	WORD	wordpools/wasnorm_wordpool_576.txt	LTP393	ltpFR2	11	1	BLADE	134	n/a	n/a	0	0	0
104981	WORD	wordpools/wasnorm_wordpool_576.txt	LTP393	ltpFR2	11	1	TURKEY	1520	n/a	n/a	0	0	0
107698	WORD	wordpools/wasnorm_wordpool_576.txt	LTP393	ltpFR2	11	1	OMELET	976	n/a	n/a	0	0	0
110414	WORD	wordpools/wasnorm_wordpool_576.txt	LTP393	ltpFR2	11	1	HIGHWAY	707	n/a	n/a	0	0	0
113214	WORD	wordpools/wasnorm_wordpool_576.txt	LTP393	ltpFR2	11	1	LODGE	839	n/a	n/a	0	0	0
115915	WORD	wordpools/wasnorm_wordpool_576.txt	LTP393	ltpFR2	11	1	MOTEL	919	n/a	n/a	0	0	0
118397	WORD	wordpools/wasnorm_wordpool_576.txt	LTP393	ltpFR2	11	1	BASEMENT	94	n/a	n/a	0	0	0
120015	START	n/a	LTP393	ltpFR2	11	n/a	n/a	n/a	1	n/a	n/a	n/a	n/a
121065	DISTRACTOR	n/a	LTP393	ltpFR2	11	1	n/a	n/a	n/a	n/a	0	0	0
121080	PROB	n/a	LTP393	ltpFR2	11	n/a	n/a	n/a	1	19	8	4	7
123964	PROB	n/a	LTP393	ltpFR2	11	n/a	n/a	n/a	1	12	6	4	2
125764	PROB	n/a	LTP393	ltpFR2	11	n/a	n/a	n/a	1	22	5	9	8
127964	PROB	n/a	LTP393	ltpFR2	11	n/a	n/a	n/a	1	13	5	4	4
129764	PROB	n/a	LTP393	ltpFR2	11	n/a	n/a	n/a	1	18	8	9	1
131313	PROB	n/a	LTP393	ltpFR2	11	n/a	n/a	n/a	1	14	2	9	3
133463	PROB	n/a	LTP393	ltpFR2	11	n/a	n/a	n/a	1	15	4	9	2
135113	PROB	n/a	LTP393	ltpFR2	11	n/a	n/a	n/a	1	7	3	1	3
136581	PROB	n/a	LTP393	ltpFR2	11	n/a	n/a	n/a	1	16	4	3	9
138798	PROB	n/a	LTP393	ltpFR2	11	n/a	n/a	n/a	1	20	4	8	8
140647	PROB	n/a	LTP393	ltpFR2	11	n/a	n/a	n/a	1	12	5	5	2
144015	STOP	n/a	LTP393	ltpFR2	11	n/a	n/a	n/a	1	n/a	n/a	n/a	n/a
145765	REC_START	n/a	LTP393	ltpFR2	11	1	n/a	n/a	n/a	n/a	0	0	0
151267	REC_WORD	wordpools/wasnorm_wordpool_576.txt	LTP393	ltpFR2	11	1	ROOSTER	1209	n/a	n/a	0	0	0
153169	REC_WORD	wordpools/wasnorm_wordpool_576.txt	LTP393	ltpFR2	11	1	TROUT	1511	n/a	n/a	0	0	0
154747	REC_WORD	wordpools/wasnorm_wordpool_576.txt	LTP393	ltpFR2	11	1	COD	340	n/a	n/a	0	0	0
156459	REC_WORD	wordpools/wasnorm_wordpool_576.txt	LTP393	ltpFR2	11	1	TURKEY	1520	n/a	n/a	0	0	0
158091	REC_WORD	wordpools/wasnorm_wordpool_576.txt	LTP393	ltpFR2	11	1	SPHINX	1349	n/a	n/a	0	0	0
159952	REC_WORD	wordpools/wasnorm_wordpool_576.txt	LTP393	ltpFR2	11	1	CHURCH	307	n/a	n/a	0	0	0
161498	REC_WORD	wordpools/wasnorm_wordpool_576.txt	LTP393	ltpFR2	11	1	PARTNER	1017	n/a	n/a	0	0	0
162989	REC_WORD	wordpools/wasnorm_wordpool_576.txt	LTP393	ltpFR2	11	1	GIRL	637	n/a	n/a	0	0	0
164471	REC_WORD	wordpools/wasnorm_wordpool_576.txt	LTP393	ltpFR2	11	1	BOYFRIEND	162	n/a	n/a	0	0	0
167009	REC_WORD	wordpools/wasnorm_wordpool_576.txt	LTP393	ltpFR2	11	1	HIGHWAY	707	n/a	n/a	0	0	0
168673	REC_WORD	wordpools/wasnorm_wordpool_576.txt	LTP393	ltpFR2	11	1	ISLAND	745	n/a	n/a	0	0	0
173669	REC_WORD	wordpools/wasnorm_wordpool_576.txt	LTP393	ltpFR2	11	1	COD	340	n/a	n/a	0	0	0
191579	REC_WORD	wordpools/wasnorm_wordpool_576.txt	LTP393	ltpFR2	11	1	OMELET	976	n/a	n/a	0	0	0
236228	WORD	wordpools/wasnorm_wordpool_576.txt	LTP393	ltpFR2	11	2	KETCHUP	771	n/a	n/a	0	0	0
238879	WORD	wordpools/wasnorm_wordpool_576.txt	LTP393	ltpFR2	11	2	KNAPSACK	783	n/a	n/a	0	0	0
241328	WORD	wordpools/wasnorm_wordpool_576.txt	LTP393	ltpFR2	11	2	CHIPMUNK	304	n/a	n/a	0	0	0
243912	WORD	wordpools/wasnorm_wordpool_576.txt	LTP393	ltpFR2	11	2	FOX	598	n/a	n/a	0	0	0
246395	WORD	wordpools/wasnorm_wordpool_576.txt	LTP393	ltpFR2	11	2	OX	994	n/a	n/a	0	0	0
248846	WORD	wordpools/wasnorm_wordpool_576.txt	LTP393	ltpFR2	11	2	MATTRESS	879	n/a	n/a	0	0	0
251345	WORD	wordpools/wasnorm_wordpool_576.txt	LTP393	ltpFR2	11	2	ARMY	39	n/a	n/a	0	0	0
254161	WORD	wordpools/wasnorm_wordpool_576.txt	LTP393	ltpFR2	11	2	PLAYGROUND	1087	n/a	n/a	0	0	0
256912	WORD	wordpools/wasnorm_wordpool_576.txt	LTP393	ltpFR2	11	2	MILK	895	n/a	n/a	0	0	0
259445	WORD	wordpools/wasnorm_wordpool_576.txt	LTP393	ltpFR2	11	2	DOUGHNUT	490	n/a	n/a	0	0	0
262078	WORD	wordpools/wasnorm_wordpool_576.txt	LTP393	ltpFR2	11	2	LIVER	833	n/a	n/a	0	0	0
264579	WORD	wordpools/wasnorm_wordpool_576.txt	LTP393	ltpFR2	11	2	SHORTS	1293	n/a	n/a	0	0	0
267111	WORD	wordpools/wasnorm_wordpool_576.txt	LTP393	ltpFR2	11	2	CHAPEL	280	n/a	n/a	0	0	0
269679	WORD	wordpools/wasnorm_wordpool_576.txt	LTP393	ltpFR2	11	2	CROSS	413	n/a	n/a	0	0	0
272144	WORD	wordpools/wasnorm_wordpool_576.txt	LTP393	ltpFR2	11	2	SUMMIT	1405	n/a	n/a	0	0	0
274895	WORD	wordpools/wasnorm_wordpool_576.txt	LTP393	ltpFR2	11	2	CREATURE	403	n/a	n/a	0	0	0
277328	WORD	wordpools/wasnorm_wordpool_576.txt	LTP393	ltpFR2	11	2	RABBIT	1152	n/a	n/a	0	0	0
279945	WORD	wordpools/wasnorm_wordpool_576.txt	LTP393	ltpFR2	11	2	TURTLE	1522	n/a	n/a	0	0	0
282595	WORD	wordpools/wasnorm_wordpool_576.txt	LTP393	ltpFR2	11	2	CORAL	378	n/a	n/a	0	0	0
285361	WORD	wordpools/wasnorm_wordpool_576.txt	LTP393	ltpFR2	11	2	AIRPLANE	12	n/a	n/a	0	0	0
288111	WORD	wordpools/wasnorm_wordpool_576.txt	LTP393	ltpFR2	11	2	WOMAN	1620	n/a	n/a	0	0	0
290778	WORD	wordpools/wasnorm_wordpool_576.txt	LTP393	ltpFR2	11	2	HEDGE	699	n/a	n/a	0	0	0
293261	WORD	wordpools/wasnorm_wordpool_576.txt	LTP393	ltpFR2	11	2	SHIRT	1287	n/a	n/a	0	0	0
295712	WORD	wordpools/wasnorm_wordpool_576.txt	LTP393	ltpFR2	11	2	TREAT	1501	n/a	n/a	0	0	0
297328	START	n/a	LTP393	ltpFR2	11	n/a	n/a	n/a	2	n/a	n/a	n/a	n/a
298522	DISTRACTOR	n/a	LTP393	ltpFR2	11	2	n/a	n/a	n/a	n/a	0	0	0
298528	PROB	n/a	LTP393	ltpFR2	11	n/a	n/a	n/a	2	9	2	6	1
300411	PROB	n/a	LTP393	ltpFR2	11	n/a	n/a	n/a	2	15	5	9	1
301811	PROB	n/a	LTP393	ltpFR2	11	n/a	n/a	n/a	2	18	7	6	5
303512	PROB	n/a	LTP393	ltpFR2	11	n/a	n/a	n/a	2	16	1	9	6
305194	PROB	n/a	LTP393	ltpFR2	11	n/a	n/a	n/a	2	7	2	3	2
306795	PROB	n/a	LTP393	ltpFR2	11	n/a	n/a	n/a	2	19	5	5	9
308294	PROB	n/a	LTP393	ltpFR2	11	n/a	n/a	n/a	2	9	4	1	4
309761	PROB	n/a	LTP393	ltpFR2	11	n/a	n/a	n/a	2	4	1	2	1
310995	PROB	n/a	LTP393	ltpFR2	11	n/a	n/a	n/a	2	6	2	3	1
312444	PROB	n/a	LTP393	ltpFR2	11	n/a	n/a	n/a	2	9	7	1	1
313995	PROB	n/a	LTP393	ltpFR2	11	n/a	n/a	n/a	2	23	7	9	7
316360	PROB	n/a	LTP393	ltpFR2	11	n/a	n/a	n/a	2	17	3	8	6
318561	PROB	n/a	LTP393	ltpFR2	11	n/a	n/a	n/a	2	26	9	8	9
320778	STOP	n/a	LTP393	ltpFR2	11	n/a	n/a	n/a	2	n/a	n/a	n/a	n/a
323177	REC_START	n/a	LTP393	ltpFR2	11	2	n/a	n/a	n/a	n/a	0	0	0
324709	REC_WORD	wordpools/wasnorm_wordpool_576.txt	LTP393	ltpFR2	11	2	RABBIT	1152	n/a	n/a	0	0	0
326338	REC_WORD	wordpools/wasnorm_wordpool_576.txt	LTP393	ltpFR2	11	2	TURTLE	1522	n/a	n/a	0	0	0
330216	REC_WORD	wordpools/wasnorm_wordpool_576.txt	LTP393	ltpFR2	11	2	KNAPSACK	783	n/a	n/a	0	0	0
331690	REC_WORD	wordpools/wasnorm_wordpool_576.txt	LTP393	ltpFR2	11	2	KETCHUP	771	n/a	n/a	0	0	0
333360	REC_WORD	wordpools/wasnorm_wordpool_576.txt	LTP393	ltpFR2	11	2	CHIPMUNK	304	n/a	n/a	0	0	0
335359	REC_WORD	wordpools/wasnorm_wordpool_576.txt	LTP393	ltpFR2	11	2	OX	994	n/a	n/a	0	0	0
336903	REC_WORD	wordpools/wasnorm_wordpool_576.txt	LTP393	ltpFR2	11	2	FOX	598	n/a	n/a	0	0	0
339530	REC_WORD	wordpools/wasnorm_wordpool_576.txt	LTP393	ltpFR2	11	2	ARMY	39	n/a	n/a	0	0	0
341019	REC_WORD	wordpools/wasnorm_wordpool_576.txt	LTP393	ltpFR2	11	2	TREAT	1501	n/a	n/a	0	0	0
343732	REC_WORD	wordpools/wasnorm_wordpool_576.txt	LTP393	ltpFR2	11	2	AIRPLANE	12	n/a	n/a	0	0	0
349816	REC_WORD	wordpools/wasnorm_wordpool_576.txt	LTP393	ltpFR2	11	2	DOUGHNUT	490	n/a	n/a	0	0	0
350787	REC_WORD	wordpools/wasnorm_wordpool_576.txt	LTP393	ltpFR2	11	2	LIVER	833	n/a	n/a	0	0	0
352219	REC_WORD	wordpools/wasnorm_wordpool_576.txt	LTP393	ltpFR2	11	2	MILK	895	n/a	n/a	0	0	0
413610	DISTRACTOR	n/a	LTP393	ltpFR2	11	3	n/a	n/a	n/a	n/a	0	0	0
413610	START	n/a	LTP393	ltpFR2	11	n/a	n/a	n/a	3	n/a	n/a	n/a	n/a
413626	PROB	n/a	LTP393	ltpFR2	11	n/a	n/a	n/a	3	18	5	7	6
416342	PROB	n/a	LTP393	ltpFR2	11	n/a	n/a	n/a	3	16	6	8	2
417560	PROB	n/a	LTP393	ltpFR2	11	n/a	n/a	n/a	3	22	6	9	7
419275	PROB	n/a	LTP393	ltpFR2	11	n/a	n/a	n/a	3	11	4	5	2
420560	PROB	n/a	LTP393	ltpFR2	11	n/a	n/a	n/a	3	19	7	6	6
422409	PROB	n/a	LTP393	ltpFR2	11	n/a	n/a	n/a	3	18	9	1	8
423709	PROB	n/a	LTP393	ltpFR2	11	n/a	n/a	n/a	3	16	8	5	3
426058	PROB	n/a	LTP393	ltpFR2	11	n/a	n/a	n/a	3	15	7	3	5
427475	PROB	n/a	LTP393	ltpFR2	11	n/a	n/a	n/a	3	11	6	3	2
428926	PROB	n/a	LTP393	ltpFR2	11	n/a	n/a	n/a	3	19	5	6	8
430676	PROB	n/a	LTP393	ltpFR2	11	n/a	n/a	n/a	3	23	8	7	8
432526	PROB	n/a	LTP393	ltpFR2	11	n/a	n/a	n/a	3	16	2	9	5
434075	PROB	n/a	LTP393	ltpFR2	11	n/a	n/a	n/a	3	12	9	2	1
435442	PROB	n/a	LTP393	ltpFR2	11	n/a	n/a	n/a	3	19	9	8	2
437518	STOP	n/a	LTP393	ltpFR2	11	n/a	n/a	n/a	3	n/a	n/a	n/a	n/a
438759	WORD	wordpools/wasnorm_wordpool_576.txt	LTP393	ltpFR2	11	3	PEBBLE	1035	n/a	n/a	0	0	0
441208	WORD	wordpools/wasnorm_wordpool_576.txt	LTP393	ltpFR2	11	3	SEAL	1262	n/a	n/a	0	0	0
443926	WORD	wordpools/wasnorm_wordpool_576.txt	LTP393	ltpFR2	11	3	BISON	131	n/a	n/a	0	0	0
446526	WORD	wordpools/wasnorm_wordpool_576.txt	LTP393	ltpFR2	11	3	BUGGY	188	n/a	n/a	0	0	0
448992	WORD	wordpools/wasnorm_wordpool_576.txt	LTP393	ltpFR2	11	3	PLAZA	1088	n/a	n/a	0	0	0
451542	WORD	wordpools/wasnorm_wordpool_576.txt	LTP393	ltpFR2	11	3	FOOTBALL	591	n/a	n/a	0	0	0
454325	WORD	wordpools/wasnorm_wordpool_576.txt	LTP393	ltpFR2	11	3	JELLO	754	n/a	n/a	0	0	0
457125	WORD	wordpools/wasnorm_wordpool_576.txt	LTP393	ltpFR2	11	3	SNACK	1331	n/a	n/a	0	0	0
459592	WORD	wordpools/wasnorm_wordpool_576.txt	LTP393	ltpFR2	11	3	LIGHTNING	820	n/a	n/a	0	0	0
462324	WORD	wordpools/wasnorm_wordpool_576.txt	LTP393	ltpFR2	11	3	FARMER	553	n/a	n/a	0	0	0
464792	WORD	wordpools/wasnorm_wordpool_576.txt	LTP393	ltpFR2	11	3	TWISTER	1530	n/a	n/a	0	0	0
467441	WORD	wordpools/wasnorm_wordpool_576.txt	LTP393	ltpFR2	11	3	CYCLONE	431	n/a	n/a	0	0	0
470141	WORD	wordpools/wasnorm_wordpool_576.txt	LTP393	ltpFR2	11	3	SPIDER	1351	n/a	n/a	0	0	0
472775	WORD	wordpools/wasnorm_wordpool_576.txt	LTP393	ltpFR2	11	3	CANYON	235	n/a	n/a	0	0	0
475224	WORD	wordpools/wasnorm_wordpool_576.txt	LTP393	ltpFR2	11	3	THREAD	1460	n/a	n/a	0	0	0
477892	WORD	wordpools/wasnorm_wordpool_576.txt	LTP393	ltpFR2	11	3	SHRUB	1299	n/a	n/a	0	0	0
480675	WORD	wordpools/wasnorm_wordpool_576.txt	LTP393	ltpFR2	11	3	CRICKET	408	n/a	n/a	0	0	0
483358	WORD	wordpools/wasnorm_wordpool_576.txt	LTP393	ltpFR2	11	3	GLASS	639	n/a	n/a	0	0	0
486041	WORD	wordpools/wasnorm_wordpool_576.txt	LTP393	ltpFR2	11	3	OFFICE	972	n/a	n/a	0	0	0
488808	WORD	wordpools/wasnorm_wordpool_576.txt	LTP393	ltpFR2	11	3	COIN	343	n/a	n/a	0	0	0
491441	WORD	wordpools/wasnorm_wordpool_576.txt	LTP393	ltpFR2	11	3	TUNNEL	1519	n/a	n/a	0	0	0
494241	WORD	wordpools/wasnorm_wordpool_576.txt	LTP393	ltpFR2	11	3	MARINE	869	n/a	n/a	0	0	0
496725	WORD	wordpools/wasnorm_wordpool_576.txt	LTP393	ltpFR2	11	3	SNAIL	1332	n/a	n/a	0	0	0
499274	WORD	wordpools/wasnorm_wordpool_576.txt	LTP393	ltpFR2	11	3	CATTLE	261	n/a	n/a	0	0	0
500892	START	n/a	LTP393	ltpFR2	11	n/a	n/a	n/a	4	n/a	n/a	n/a	n/a
501968	DISTRACTOR	n/a	LTP393	ltpFR2	11	3	n/a	n/a	n/a	n/a	0	0	0
501975	PROB	n/a	LTP393	ltpFR2	11	n/a	n/a	n/a	4	17	7	2	8
504224	PROB	n/a	LTP393	ltpFR2	11	n/a	n/a	n/a	4	12	1	5	6
505808	PROB	n/a	LTP393	ltpFR2	11	n/a	n/a	n/a	4	9	1	7	1
507274	PROB	n/a	LTP393	ltpFR2	11	n/a	n/a	n/a	4	12	1	9	2
508658	PROB	n/a	LTP393	ltpFR2	11	n/a	n/a	n/a	4	13	2	4	7
510625	PROB	n/a	LTP393	ltpFR2	11	n/a	n/a	n/a	4	19	1	9	9
514741	PROB	n/a	LTP393	ltpFR2	11	n/a	n/a	n/a	4	14	5	1	8
516457	PROB	n/a	LTP393	ltpFR2	11	n/a	n/a	n/a	4	16	1	9	6
517775	PROB	n/a	LTP393	ltpFR2	11	n/a	n/a	n/a	4	14	7	2	5
519925	PROB	n/a	LTP393	ltpFR2	11	n/a	n/a	n/a	4	19	7	5	7
521958	PROB	n/a	LTP393	ltpFR2	11	n/a	n/a	n/a	4	19	9	1	9
523423	STOP	n/a	LTP393	ltpFR2	11	n/a	n/a	n/a	4	n/a	n/a	n/a	n/a
526692	REC_START	n/a	LTP393	ltpFR2	11	3	n/a	n/a	n/a	n/a	0	0	0
527886	REC_WORD	wordpools/wasnorm_wordpool_576.txt	LTP393	ltpFR2	11	3	BISON	131	n/a	n/a	0	0	0
529542	REC_WORD	wordpools/wasnorm_wordpool_576.txt	LTP393	ltpFR2	11	3	PEBBLE	1035	n/a	n/a	0	0	0
541874	REC_WORD	wordpools/wasnorm_wordpool_576.txt	LTP393	ltpFR2	11	3	JELLO	754	n/a	n/a	0	0	0
552364	REC_WORD	wordpools/wasnorm_wordpool_576.txt	LTP393	ltpFR2	11	3	TRUCK	1512	n/a	n/a	0	0	0
557707	REC_WORD	wordpools/wasnorm_wordpool_576.txt	LTP393	ltpFR2	11	3	SNACK	1331	n/a	n/a	0	0	0
617139	WORD	wordpools/wasnorm_wordpool_576.txt	LTP393	ltpFR2	11	4	UMPIRE	1535	n/a	n/a	0	0	0
619723	WORD	wordpools/wasnorm_wordpool_576.txt	LTP393	ltpFR2	11	4	BEEF	113	n/a	n/a	0	0	0
622289	WORD	wordpools/wasnorm_wordpool_576.txt	LTP393	ltpFR2	11	4	PERMIT	1051	n/a	n/a	0	0	0
624840	WORD	wordpools/wasnorm_wordpool_576.txt	LTP393	ltpFR2	11	4	TABLE	1426	n/a	n/a	0	0	0
627589	WORD	wordpools/wasnorm_wordpool_576.txt	LTP393	ltpFR2	11	4	LIZARD	834	n/a	n/a	0	0	0
630338	WORD	wordpools/wasnorm_wordpool_576.txt	LTP393	ltpFR2	11	4	RATTLE	1170	n/a	n/a	0	0	0
632839	WORD	wordpools/wasnorm_wordpool_576.txt	LTP393	ltpFR2	11	4	FRAME	600	n/a	n/a	0	0	0
635488	WORD	wordpools/wasnorm_wordpool_576.txt	LTP393	ltpFR2	11	4	STAMP	1370	n/a	n/a	0	0	0
637939	WORD	wordpools/wasnorm_wordpool_576.txt	LTP393	ltpFR2	11	4	PADDING	999	n/a	n/a	0	0	0
640606	WORD	wordpools/wasnorm_wordpool_576.txt	LTP393	ltpFR2	11	4	EUROPE	541	n/a	n/a	0	0	0
643422	WORD	wordpools/wasnorm_wordpool_576.txt	LTP393	ltpFR2	11	4	RECORD	1176	n/a	n/a	0	0	0
646238	WORD	wordpools/wasnorm_wordpool_576.txt	LTP393	ltpFR2	11	4	COLLEGE	346	n/a	n/a	0	0	0
648739	WORD	wordpools/wasnorm_wordpool_576.txt	LTP393	ltpFR2	11	4	CRAB	397	n/a	n/a	0	0	0
651421	WORD	wordpools/wasnorm_wordpool_576.txt	LTP393	ltpFR2	11	4	CRAYON	401	n/a	n/a	0	0	0
654155	WORD	wordpools/wasnorm_wordpool_576.txt	LTP393	ltpFR2	11	4	SLIME	1327	n/a	n/a	0	0	0
656706	WORD	wordpools/wasnorm_wordpool_576.txt	LTP393	ltpFR2	11	4	RADISH	1158	n/a	n/a	0	0	0
659488	WORD	wordpools/wasnorm_wordpool_576.txt	LTP393	ltpFR2	11	4	REPORT	1184	n/a	n/a	0	0	0
661922	WORD	wordpools/wasnorm_wordpool_576.txt	LTP393	ltpFR2	11	4	MESSAGE	888	n/a	n/a	0	0	0
664371	WORD	wordpools/wasnorm_wordpool_576.txt	LTP393	ltpFR2	11	4	REBEL	1172	n/a	n/a	0	0	0
666906	WORD	wordpools/wasnorm_wordpool_576.txt	LTP393	ltpFR2	11	4	UNCLE	1536	n/a	n/a	0	0	0
669572	WORD	wordpools/wasnorm_wordpool_576.txt	LTP393	ltpFR2	11	4	AGENT	10	n/a	n/a	0	0	0
672138	WORD	wordpools/wasnorm_wordpool_576.txt	LTP393	ltpFR2	11	4	TROMBONE	1508	n/a	n/a	0	0	0
674639	WORD	wordpools/wasnorm_wordpool_576.txt	LTP393	ltpFR2	11	4	ASIA	46	n/a	n/a	0	0	0
677288	WORD	wordpools/wasnorm_wordpool_576.txt	LTP393	ltpFR2	11	4	NURSE	963	n/a	n/a	0	0	0
678906	START	n/a	LTP393	ltpFR2	11	n/a	n/a	n/a	5	n/a	n/a	n/a	n/a
679765	DISTRACTOR	n/a	LTP393	ltpFR2	11	4	n/a	n/a	n/a	n/a	0	0	0
679772	PROB	n/a	LTP393	ltpFR2	11	n/a	n/a	n/a	5	19	9	9	1
681972	PROB	n/a	LTP393	ltpFR2	11	n/a	n/a	n/a	5	17	6	6	5
683972	PROB	n/a	LTP393	ltpFR2	11	n/a	n/a	n/a	5	13	1	4	8
685705	PROB	n/a	LTP393	ltpFR2	11	n/a	n/a	n/a	5	9	1	6	2
687271	PROB	n/a	LTP393	ltpFR2	11	n/a	n/a	n/a	5	5	1	1	3
688622	PROB	n/a	LTP393	ltpFR2	11	n/a	n/a	n/a	5	13	4	5	4
692022	PROB	n/a	LTP393	ltpFR2	11	n/a	n/a	n/a	5	16	3	9	4
697171	PROB	n/a	LTP393	ltpFR2	11	n/a	n/a	n/a	5	19	8	6	5
699087	PROB	n/a	LTP393	ltpFR2	11	n/a	n/a	n/a	5	13	4	5	4
700855	PROB	n/a	LTP393	ltpFR2	11	n/a	n/a	n/a	5	15	3	6	6
702678	STOP	n/a	LTP393	ltpFR2	11	n/a	n/a	n/a	5	n/a	n/a	n/a	n/a
704689	REC_START	n/a	LTP393	ltpFR2	11	4	n/a	n/a	n/a	n/a	0	0	0
705573	REC_WORD	wordpools/wasnorm_wordpool_576.txt	LTP393	ltpFR2	11	4	REBEL	1172	n/a	n/a	0	0	0
708347	REC_WORD	wordpools/wasnorm_wordpool_576.txt	LTP393	ltpFR2	11	4	REPORT	1184	n/a	n/a	0	0	0
712563	REC_WORD	wordpools/wasnorm_wordpool_576.txt	LTP393	ltpFR2	11	4	UMPIRE	1535	n/a	n/a	0	0	0
714401	REC_WORD	wordpools/wasnorm_wordpool_576.txt	LTP393	ltpFR2	11	4	BEEF	113	n/a	n/a	0	0	0
716093	REC_WORD	wordpools/wasnorm_wordpool_576.txt	LTP393	ltpFR2	11	4	LIZARD	834	n/a	n/a	0	0	0
717900	REC_WORD	wordpools/wasnorm_wordpool_576.txt	LTP393	ltpFR2	11	4	RATTLE	1170	n/a	n/a	0	0	0
795136	DISTRACTOR	n/a	LTP393	ltpFR2	11	5	n/a	n/a	n/a	n/a	0	0	0
795136	START	n/a	LTP393	ltpFR2	11	n/a	n/a	n/a	6	n/a	n/a	n/a	n/a
795152	PROB	n/a	LTP393	ltpFR2	11	n/a	n/a	n/a	6	1	8	4	4
797469	PROB	n/a	LTP393	ltpFR2	11	n/a	n/a	n/a	6	21	8	8	5
800302	PROB	n/a	LTP393	ltpFR2	11	n/a	n/a	n/a	6	11	5	3	3
802152	PROB	n/a	LTP393	ltpFR2	11	n/a	n/a	n/a	6	13	5	4	4
804920	PROB	n/a	LTP393	ltpFR2	11	n/a	n/a	n/a	6	16	7	4	5
806770	PROB	n/a	LTP393	ltpFR2	11	n/a	n/a	n/a	6	13	9	1	3
808402	PROB	n/a	LTP393	ltpFR2	11	n/a	n/a	n/a	6	15	5	6	4
810352	PROB	n/a	LTP393	ltpFR2	11	n/a	n/a	n/a	6	13	4	4	5
812186	PROB	n/a	LTP393	ltpFR2	11	n/a	n/a	n/a	6	15	5	1	9
813419	PROB	n/a	LTP393	ltpFR2	11	n/a	n/a	n/a	6	13	9	2	2
815503	PROB	n/a	LTP393	ltpFR2	11	n/a	n/a	n/a	6	14	5	6	3
817570	PROB	n/a	LTP393	ltpFR2	11	n/a	n/a	n/a	6	11	6	3	2
819080	STOP	n/a	LTP393	ltpFR2	11	n/a	n/a	n/a	6	n/a	n/a	n/a	n/a
820252	WORD	wordpools/wasnorm_wordpool_576.txt	LTP393	ltpFR2	11	5	PATROL	1027	n/a	n/a	0	0	0
822903	WORD	wordpools/wasnorm_wordpool_576.txt	LTP393	ltpFR2	11	5	CONCERT	360	n/a	n/a	0	0	0
825553	WORD	wordpools/wasnorm_wordpool_576.txt	LTP393	ltpFR2	11	5	JAPAN	749	n/a	n/a	0	0	0
828285	WORD	wordpools/wasnorm_wordpool_576.txt	LTP393	ltpFR2	11	5	RUG	1215	n/a	n/a	0	0	0
830953	WORD	wordpools/wasnorm_wordpool_576.txt	LTP393	ltpFR2	11	5	THRONE	1461	n/a	n/a	0	0	0
833603	WORD	wordpools/wasnorm_wordpool_576.txt	LTP393	ltpFR2	11	5	PALACE	1006	n/a	n/a	0	0	0
836035	WORD	wordpools/wasnorm_wordpool_576.txt	LTP393	ltpFR2	11	5	LABEL	790	n/a	n/a	0	0	0
838753	WORD	wordpools/wasnorm_wordpool_576.txt	LTP393	ltpFR2	11	5	PARSLEY	1016	n/a	n/a	0	0	0
841553	WORD	wordpools/wasnorm_wordpool_576.txt	LTP393	ltpFR2	11	5	SCULPTURE	1258	n/a	n/a	0	0	0
844068	WORD	wordpools/wasnorm_wordpool_576.txt	LTP393	ltpFR2	11	5	YOLK	1633	n/a	n/a	0	0	0
846636	WORD	wordpools/wasnorm_wordpool_576.txt	LTP393	ltpFR2	11	5	MUSTARD	935	n/a	n/a	0	0	0
849185	WORD	wordpools/wasnorm_wordpool_576.txt	LTP393	ltpFR2	11	5	ROBBER	1197	n/a	n/a	0	0	0
851886	WORD	wordpools/wasnorm_wordpool_576.txt	LTP393	ltpFR2	11	5	SKILLET	1317	n/a	n/a	0	0	0
854702	WORD	wordpools/wasnorm_wordpool_576.txt	LTP393	ltpFR2	11	5	PORK	1108	n/a	n/a	0	0	0
857502	WORD	wordpools/wasnorm_wordpool_576.txt	LTP393	ltpFR2	11	5	BUNNY	198	n/a	n/a	0	0	0
860151	WORD	wordpools/wasnorm_wordpool_576.txt	LTP393	ltpFR2	11	5	MEAT	883	n/a	n/a	0	0	0
862569	WORD	wordpools/wasnorm_wordpool_576.txt	LTP393	ltpFR2	11	5	QUARTER	1148	n/a	n/a	0	0	0
865351	WORD	wordpools/wasnorm_wordpool_576.txt	LTP393	ltpFR2	11	5	GARLIC	624	n/a	n/a	0	0	0
868051	WORD	wordpools/wasnorm_wordpool_576.txt	LTP393	ltpFR2	11	5	PIZZA	1079	n/a	n/a	0	0	0
870786	WORD	wordpools/wasnorm_wordpool_576.txt	LTP393	ltpFR2	11	5	EXPERT	543	n/a	n/a	0	0	0
873351	WORD	wordpools/wasnorm_wordpool_576.txt	LTP393	ltpFR2	11	5	TEACHER	1440	n/a	n/a	0	0	0
876135	WORD	wordpools/wasnorm_wordpool_576.txt	LTP393	ltpFR2	11	5	SCRIBBLE	1256	n/a	n/a	0	0	0
878752	WORD	wordpools/wasnorm_wordpool_576.txt	LTP393	ltpFR2	11	5	BUREAU	199	n/a	n/a	0	0	0
881434	WORD	wordpools/wasnorm_wordpool_576.txt	LTP393	ltpFR2	11	5	WARDROBE	1587	n/a	n/a	0	0	0
883051	START	n/a	LTP393	ltpFR2	11	n/a	n/a	n/a	7	n/a	n/a	n/a	n/a
884229	DISTRACTOR	n/a	LTP393	ltpFR2	11	5	n/a	n/a	n/a	n/a	0	0	0
884234	PROB	n/a	LTP393	ltpFR2	11	n/a	n/a	n/a	7	10	1	4	5
886502	PROB	n/a	LTP393	ltpFR2	11	n/a	n/a	n/a	7	18	9	6	3
889769	PROB	n/a	LTP393	ltpFR2	11	n/a	n/a	n/a	7	20	8	9	3
892785	PROB	n/a	LTP393	ltpFR2	11	n/a	n/a	n/a	7	23	9	7	7
895184	PROB	n/a	LTP393	ltpFR2	11	n/a	n/a	n/a	7	17	3	9	5
897117	PROB	n/a	LTP393	ltpFR2	11	n/a	n/a	n/a	7	16	6	1	9
898552	PROB	n/a	LTP393	ltpFR2	11	n/a	n/a	n/a	7	17	2	6	9
900434	PROB	n/a	LTP393	ltpFR2	11	n/a	n/a	n/a	7	10	2	5	3
902618	PROB	n/a	LTP393	ltpFR2	11	n/a	n/a	n/a	7	7	1	3	3
904151	PROB	n/a	LTP393	ltpFR2	11	n/a	n/a	n/a	7	15	8	3	2
905796	STOP	n/a	LTP393	ltpFR2	11	n/a	n/a	n/a	7	n/a	n/a	n/a	n/a
908869	REC_START	n/a	LTP393	ltpFR2	11	5	n/a	n/a	n/a	n/a	0	0	0
909544	REC_WORD	wordpools/wasnorm_wordpool_576.txt	LTP393	ltpFR2	11	5	GARLIC	624	n/a	n/a	0	0	0
910616	REC_WORD	wordpools/wasnorm_wordpool_576.txt	LTP393	ltpFR2	11	5	QUARTER	1148	n/a	n/a	0	0	0
912003	REC_WORD	wordpools/wasnorm_wordpool_576.txt	LTP393	ltpFR2	11	5	PIZZA	1079	n/a	n/a	0	0	0
915302	REC_WORD	wordpools/wasnorm_wordpool_576.txt	LTP393	ltpFR2	11	5	EXPERT	543	n/a	n/a	0	0	0
916801	REC_WORD	wordpools/wasnorm_wordpool_576.txt	LTP393	ltpFR2	11	5	TEACHER	1440	n/a	n/a	0	0	0
918468	REC_WORD	wordpools/wasnorm_wordpool_576.txt	LTP393	ltpFR2	11	5	SCRIBBLE	1256	n/a	n/a	0	0	0
920212	REC_WORD	wordpools/wasnorm_wordpool_576.txt	LTP393	ltpFR2	11	5	WARDROBE	1587	n/a	n/a	0	0	0
921757	REC_WORD	wordpools/wasnorm_wordpool_576.txt	LTP393	ltpFR2	11	5	BUREAU	199	n/a	n/a	0	0	0
999316	DISTRACTOR	n/a	LTP393	ltpFR2	11	6	n/a	n/a	n/a	n/a	0	0	0
999316	START	n/a	LTP393	ltpFR2	11	n/a	n/a	n/a	8	n/a	n/a	n/a	n/a
999332	PROB	n/a	LTP393	ltpFR2	11	n/a	n/a	n/a	8	7	2	1	4
1001316	PROB	n/a	LTP393	ltpFR2	11	n/a	n/a	n/a	8	14	1	6	7
1002967	PROB	n/a	LTP393	ltpFR2	11	n/a	n/a	n/a	8	15	7	4	5
1005717	PROB	n/a	LTP393	ltpFR2	11	n/a	n/a	n/a	8	12	2	1	9
1008332	PROB	n/a	LTP393	ltpFR2	11	n/a	n/a	n/a	8	8	6	1	1
1009700	PROB	n/a	LTP393	ltpFR2	11	n/a	n/a	n/a	8	10	3	1	6
1011249	PROB	n/a	LTP393	ltpFR2	11	n/a	n/a	n/a	8	26	9	9	8
1013216	PROB	n/a	LTP393	ltpFR2	11	n/a	n/a	n/a	8	13	9	1	3
1015182	PROB	n/a	LTP393	ltpFR2	11	n/a	n/a	n/a	8	15	9	2	3
1017332	PROB	n/a	LTP393	ltpFR2	11	n/a	n/a	n/a	8	10	2	5	3
1019282	PROB	n/a	LTP393	ltpFR2	11	n/a	n/a	n/a	8	1	4	4	7
1020817	PROB	n/a	LTP393	ltpFR2	11	n/a	n/a	n/a	8	12	4	1	7
1023262	STOP	n/a	LTP393	ltpFR2	11	n/a	n/a	n/a	8	n/a	n/a	n/a	n/a
1024415	WORD	wordpools/wasnorm_wordpool_576.txt	LTP393	ltpFR2	11	6	BOX	159	n/a	n/a	0	0	0
1027115	WORD	wordpools/wasnorm_wordpool_576.txt	LTP393	ltpFR2	11	6	LILY	821	n/a	n/a	0	0	0
1029783	WORD	wordpools/wasnorm_wordpool_576.txt	LTP393	ltpFR2	11	6	KEEPER	769	n/a	n/a	0	0	0
1032500	WORD	wordpools/wasnorm_wordpool_576.txt	LTP393	ltpFR2	11	6	BLOCKADE	137	n/a	n/a	0	0	0
1035299	WORD	wordpools/wasnorm_wordpool_576.txt	LTP393	ltpFR2	11	6	ORCHID	982	n/a	n/a	0	0	0
1038132	WORD	wordpools/wasnorm_wordpool_576.txt	LTP393	ltpFR2	11	6	BANKER	84	n/a	n/a	0	0	0
1040700	WORD	wordpools/wasnorm_wordpool_576.txt	LTP393	ltpFR2	11	6	BANK	83	n/a	n/a	0	0	0
1043315	WORD	wordpools/wasnorm_wordpool_576.txt	LTP393	ltpFR2	11	6	DAUGHTER	442	n/a	n/a	0	0	0
1046082	WORD	wordpools/wasnorm_wordpool_576.txt	LTP393	ltpFR2	11	6	TERMITE	1451	n/a	n/a	0	0	0
1048749	WORD	wordpools/wasnorm_wordpool_576.txt	LTP393	ltpFR2	11	6	FLOWER	584	n/a	n/a	0	0	0
1051382	WORD	wordpools/wasnorm_wordpool_576.txt	LTP393	ltpFR2	11	6	POCKET	1093	n/a	n/a	0	0	0
1054082	WORD	wordpools/wasnorm_wordpool_576.txt	LTP393	ltpFR2	11	6	SMOG	1330	n/a	n/a	0	0	0
1056766	WORD	wordpools/wasnorm_wordpool_576.txt	LTP393	ltpFR2	11	6	NOMAD	955	n/a	n/a	0	0	0
1059481	WORD	wordpools/wasnorm_wordpool_576.txt	LTP393	ltpFR2	11	6	TRIBE	1505	n/a	n/a	0	0	0
1061999	WORD	wordpools/wasnorm_wordpool_576.txt	LTP393	ltpFR2	11	6	FLUTE	585	n/a	n/a	0	0	0
1064582	WORD	wordpools/wasnorm_wordpool_576.txt	LTP393	ltpFR2	11	6	WHISTLE	1606	n/a	n/a	0	0	0
1067381	WORD	wordpools/wasnorm_wordpool_576.txt	LTP393	ltpFR2	11	6	KLEENEX	782	n/a	n/a	0	0	0
1069816	WORD	wordpools/wasnorm_wordpool_576.txt	LTP393	ltpFR2	11	6	DRAGON	492	n/a	n/a	0	0	0
1072632	WORD	wordpools/wasnorm_wordpool_576.txt	LTP393	ltpFR2	11	6	SCISSORS	1250	n/a	n/a	0	0	0
1075281	WORD	wordpools/wasnorm_wordpool_576.txt	LTP393	ltpFR2	11	6	CANAL	226	n/a	n/a	0	0	0
1077816	WORD	wordpools/wasnorm_wordpool_576.txt	LTP393	ltpFR2	11	6	SHOULDER	1294	n/a	n/a	0	0	0
1080365	WORD	wordpools/wasnorm_wordpool_576.txt	LTP393	ltpFR2	11	6	WAITRESS	1581	n/a	n/a	0	0	0
1083015	WORD	wordpools/wasnorm_wordpool_576.txt	LTP393	ltpFR2	11	6	MAILMAN	858	n/a	n/a	0	0	0
1085782	WORD	wordpools/wasnorm_wordpool_576.txt	LTP393	ltpFR2	11	6	WINDOW	1611	n/a	n/a	0	0	0
1087398	START	n/a	LTP393	ltpFR2	11	n/a	n/a	n/a	9	n/a	n/a	n/a	n/a
1088393	DISTRACTOR	n/a	LTP393	ltpFR2	11	6	n/a	n/a	n/a	n/a	0	0	0
1088398	PROB	n/a	LTP393	ltpFR2	11	n/a	n/a	n/a	9	20	4	9	7
1091281	PROB	n/a	LTP393	ltpFR2	11	n/a	n/a	n/a	9	19	7	9	3
1092832	PROB	n/a	LTP393	ltpFR2	11	n/a	n/a	n/a	9	15	7	6	2
1095048	PROB	n/a	LTP393	ltpFR2	11	n/a	n/a	n/a	9	18	4	9	5
1097749	PROB	n/a	LTP393	ltpFR2	11	n/a	n/a	n/a	9	14	9	4	1
1099782	PROB	n/a	LTP393	ltpFR2	11	n/a	n/a	n/a	9	17	6	6	5
1103181	PROB	n/a	LTP393	ltpFR2	11	n/a	n/a	n/a	9	16	2	8	6
1104648	PROB	n/a	LTP393	ltpFR2	11	n/a	n/a	n/a	9	16	6	9	1
1106331	PROB	n/a	LTP393	ltpFR2	11	n/a	n/a	n/a	9	26	9	8	8
1110730	STOP	n/a	LTP393	ltpFR2	11	n/a	n/a	n/a	9	n/a	n/a	n/a	n/a
1113281	REC_START	n/a	LTP393	ltpFR2	11	6	n/a	n/a	n/a	n/a	0	0	0
1114438	REC_WORD	wordpools/wasnorm_wordpool_576.txt	LTP393	ltpFR2	11	6	BOX	159	n/a	n/a	0	0	0
1115690	REC_WORD	wordpools/wasnorm_wordpool_576.txt	LTP393	ltpFR2	11	6	LILY	821	n/a	n/a	0	0	0
1117329	REC_WORD	wordpools/wasnorm_wordpool_576.txt	LTP393	ltpFR2	11	6	FLOWER	584	n/a	n/a	0	0	0
1121273	REC_WORD	wordpools/wasnorm_wordpool_576.txt	LTP393	ltpFR2	11	6	NOMAD	955	n/a	n/a	0	0	0
1123748	REC_WORD	wordpools/wasnorm_wordpool_576.txt	LTP393	ltpFR2	11	6	TRIBE	1505	n/a	n/a	0	0	0
1125536	REC_WORD	wordpools/wasnorm_wordpool_576.txt	LTP393	ltpFR2	11	6	WHISTLE	1606	n/a	n/a	0	0	0
1127131	REC_WORD	wordpools/wasnorm_wordpool_576.txt	LTP393	ltpFR2	11	6	FLUTE	585	n/a	n/a	0	0	0
1203714	DISTRACTOR	n/a	LTP393	ltpFR2	11	7	n/a	n/a	n/a	n/a	0	0	0
1203714	START	n/a	LTP393	ltpFR2	11	n/a	n/a	n/a	10	n/a	n/a	n/a	n/a
1203730	PROB	n/a	LTP393	ltpFR2	11	n/a	n/a	n/a	10	23	8	7	8
1205863	PROB	n/a	LTP393	ltpFR2	11	n/a	n/a	n/a	10	11	6	2	3
1208647	PROB	n/a	LTP393	ltpFR2	11	n/a	n/a	n/a	10	17	8	8	1
1210446	PROB	n/a	LTP393	ltpFR2	11	n/a	n/a	n/a	10	23	9	6	8
1212663	PROB	n/a	LTP393	ltpFR2	11	n/a	n/a	n/a	10	2	9	8	5
1215379	PROB	n/a	LTP393	ltpFR2	11	n/a	n/a	n/a	10	12	3	5	4
1217112	PROB	n/a	LTP393	ltpFR2	11	n/a	n/a	n/a	10	20	8	3	9
1219029	PROB	n/a	LTP393	ltpFR2	11	n/a	n/a	n/a	10	17	3	8	6
1221079	PROB	n/a	LTP393	ltpFR2	11	n/a	n/a	n/a	10	21	8	7	6
1222897	PROB	n/a	LTP393	ltpFR2	11	n/a	n/a	n/a	10	18	7	4	7
1225112	PROB	n/a	LTP393	ltpFR2	11	n/a	n/a	n/a	10	9	1	1	7
1226372	STOP	n/a	LTP393	ltpFR2	11	n/a	n/a	n/a	10	n/a	n/a	n/a	n/a
1228563	WORD	wordpools/wasnorm_wordpool_576.txt	LTP393	ltpFR2	11	7	OUTDOORS	987	n/a	n/a	0	0	0
1231329	WORD	wordpools/wasnorm_wordpool_576.txt	LTP393	ltpFR2	11	7	SLUG	1329	n/a	n/a	0	0	0
1234112	WORD	wordpools/wasnorm_wordpool_576.txt	LTP393	ltpFR2	11	7	SURVEY	1414	n/a	n/a	0	0	0
1236730	WORD	wordpools/wasnorm_wordpool_576.txt	LTP393	ltpFR2	11	7	SHELTER	1282	n/a	n/a	0	0	0
1239295	WORD	wordpools/wasnorm_wordpool_576.txt	LTP393	ltpFR2	11	7	TORTOISE	1486	n/a	n/a	0	0	0
1242029	WORD	wordpools/wasnorm_wordpool_576.txt	LTP393	ltpFR2	11	7	HOOK	715	n/a	n/a	0	0	0
1244579	WORD	wordpools/wasnorm_wordpool_576.txt	LTP393	ltpFR2	11	7	PILOT	1070	n/a	n/a	0	0	0
1247395	WORD	wordpools/wasnorm_wordpool_576.txt	LTP393	ltpFR2	11	7	SIBLING	1301	n/a	n/a	0	0	0
1249929	WORD	wordpools/wasnorm_wordpool_576.txt	LTP393	ltpFR2	11	7	BROTHER	179	n/a	n/a	0	0	0
1252646	WORD	wordpools/wasnorm_wordpool_576.txt	LTP393	ltpFR2	11	7	MONEY	908	n/a	n/a	0	0	0
1255428	WORD	wordpools/wasnorm_wordpool_576.txt	LTP393	ltpFR2	11	7	BRACES	164	n/a	n/a	0	0	0
1258013	WORD	wordpools/wasnorm_wordpool_576.txt	LTP393	ltpFR2	11	7	BLUEPRINT	142	n/a	n/a	0	0	0
1260461	WORD	wordpools/wasnorm_wordpool_576.txt	LTP393	ltpFR2	11	7	BRICK	172	n/a	n/a	0	0	0
1262896	WORD	wordpools/wasnorm_wordpool_576.txt	LTP393	ltpFR2	11	7	CUSTARD	429	n/a	n/a	0	0	0
1265629	WORD	wordpools/wasnorm_wordpool_576.txt	LTP393	ltpFR2	11	7	CABBAGE	210	n/a	n/a	0	0	0
1268278	WORD	wordpools/wasnorm_wordpool_576.txt	LTP393	ltpFR2	11	7	AIRPORT	13	n/a	n/a	0	0	0
1270796	WORD	wordpools/wasnorm_wordpool_576.txt	LTP393	ltpFR2	11	7	ULCER	1533	n/a	n/a	0	0	0
1273295	WORD	wordpools/wasnorm_wordpool_576.txt	LTP393	ltpFR2	11	7	CIGAR	308	n/a	n/a	0	0	0
1275962	WORD	wordpools/wasnorm_wordpool_576.txt	LTP393	ltpFR2	11	7	FRAGRANCE	599	n/a	n/a	0	0	0
1278546	WORD	wordpools/wasnorm_wordpool_576.txt	LTP393	ltpFR2	11	7	SISTER	1312	n/a	n/a	0	0	0
1281311	WORD	wordpools/wasnorm_wordpool_576.txt	LTP393	ltpFR2	11	7	LETTUCE	814	n/a	n/a	0	0	0
1284012	WORD	wordpools/wasnorm_wordpool_576.txt	LTP393	ltpFR2	11	7	ATOM	55	n/a	n/a	0	0	0
1286612	WORD	wordpools/wasnorm_wordpool_576.txt	LTP393	ltpFR2	11	7	LIPSTICK	829	n/a	n/a	0	0	0
1289244	WORD	wordpools/wasnorm_wordpool_576.txt	LTP393	ltpFR2	11	7	COSTUME	383	n/a	n/a	0	0	0
1290846	START	n/a	LTP393	ltpFR2	11	n/a	n/a	n/a	11	n/a	n/a	n/a	n/a
1291912	DISTRACTOR	n/a	LTP393	ltpFR2	11	7	n/a	n/a	n/a	n/a	0	0	0
1291929	PROB	n/a	LTP393	ltpFR2	11	n/a	n/a	n/a	11	11	2	5	4
1294044	PROB	n/a	LTP393	ltpFR2	11	n/a	n/a	n/a	11	22	7	8	7
1295662	PROB	n/a	LTP393	ltpFR2	11	n/a	n/a	n/a	11	12	5	2	5
1297144	PROB	n/a	LTP393	ltpFR2	11	n/a	n/a	n/a	11	8	1	1	6
1298378	PROB	n/a	LTP393	ltpFR2	11	n/a	n/a	n/a	11	20	6	9	5
1300945	PROB	n/a	LTP393	ltpFR2	11	n/a	n/a	n/a	11	18	9	2	6
1303978	PROB	n/a	LTP393	ltpFR2	11	n/a	n/a	n/a	11	18	6	4	8
1305512	PROB	n/a	LTP393	ltpFR2	11	n/a	n/a	n/a	11	14	7	4	3
1307812	PROB	n/a	LTP393	ltpFR2	11	n/a	n/a	n/a	11	14	8	2	4
1309745	PROB	n/a	LTP393	ltpFR2	11	n/a	n/a	n/a	11	15	8	5	2
1311277	PROB	n/a	LTP393	ltpFR2	11	n/a	n/a	n/a	11	8	6	1	1
1314846	STOP	n/a	LTP393	ltpFR2	11	n/a	n/a	n/a	11	n/a	n/a	n/a	n/a
1316612	REC_START	n/a	LTP393	ltpFR2	11	7	n/a	n/a	n/a	n/a	0	0	0
1318541	REC_WORD	wordpools/wasnorm_wordpool_576.txt	LTP393	ltpFR2	11	7	FRAGRANCE	599	n/a	n/a	0	0	0
1320021	REC_WORD	wordpools/wasnorm_wordpool_576.txt	LTP393	ltpFR2	11	7	AIRPORT	13	n/a	n/a	0	0	0
1323286	REC_WORD	wordpools/wasnorm_wordpool_576.txt	LTP393	ltpFR2	11	7	LETTUCE	814	n/a	n/a	0	0	0
1325249	REC_WORD	wordpools/wasnorm_wordpool_576.txt	LTP393	ltpFR2	11	7	CUSTARD	429	n/a	n/a	0	0	0
1407059	DISTRACTOR	n/a	LTP393	ltpFR2	11	8	n/a	n/a	n/a	n/a	0	0	0
1407059	START	n/a	LTP393	ltpFR2	11	n/a	n/a	n/a	12	n/a	n/a	n/a	n/a
1407076	PROB	n/a	LTP393	ltpFR2	11	n/a	n/a	n/a	12	5	2	1	2
1408943	PROB	n/a	LTP393	ltpFR2	11	n/a	n/a	n/a	12	10	4	1	5
1410510	PROB	n/a	LTP393	ltpFR2	11	n/a	n/a	n/a	12	8	3	2	3
1412960	PROB	n/a	LTP393	ltpFR2	11	n/a	n/a	n/a	12	16	6	5	5
1414560	PROB	n/a	LTP393	ltpFR2	11	n/a	n/a	n/a	12	12	3	2	7
1416426	PROB	n/a	LTP393	ltpFR2	11	n/a	n/a	n/a	12	18	9	7	2
1418810	PROB	n/a	LTP393	ltpFR2	11	n/a	n/a	n/a	12	18	1	9	8
1420242	PROB	n/a	LTP393	ltpFR2	11	n/a	n/a	n/a	12	11	6	4	1
1422109	PROB	n/a	LTP393	ltpFR2	11	n/a	n/a	n/a	12	12	2	2	8
1424176	PROB	n/a	LTP393	ltpFR2	11	n/a	n/a	n/a	12	13	9	1	3
1426226	PROB	n/a	LTP393	ltpFR2	11	n/a	n/a	n/a	12	16	3	4	9
1429555	STOP	n/a	LTP393	ltpFR2	11	n/a	n/a	n/a	12	n/a	n/a	n/a	n/a
1432142	WORD	wordpools/wasnorm_wordpool_576.txt	LTP393	ltpFR2	11	8	POWDER	1117	n/a	n/a	0	0	0
1434810	WORD	wordpools/wasnorm_wordpool_576.txt	LTP393	ltpFR2	11	8	KIDNEY	776	n/a	n/a	0	0	0
1437610	WORD	wordpools/wasnorm_wordpool_576.txt	LTP393	ltpFR2	11	8	HEART	697	n/a	n/a	0	0	0
1440309	WORD	wordpools/wasnorm_wordpool_576.txt	LTP393	ltpFR2	11	8	MASK	876	n/a	n/a	0	0	0
1443010	WORD	wordpools/wasnorm_wordpool_576.txt	LTP393	ltpFR2	11	8	PEDAL	1037	n/a	n/a	0	0	0
1445492	WORD	wordpools/wasnorm_wordpool_576.txt	LTP393	ltpFR2	11	8	GRIZZLY	662	n/a	n/a	0	0	0
1448325	WORD	wordpools/wasnorm_wordpool_576.txt	LTP393	ltpFR2	11	8	PUDDLE	1140	n/a	n/a	0	0	0
1450826	WORD	wordpools/wasnorm_wordpool_576.txt	LTP393	ltpFR2	11	8	PERCH	1048	n/a	n/a	0	0	0
1453593	WORD	wordpools/wasnorm_wordpool_576.txt	LTP393	ltpFR2	11	8	PEPPER	1047	n/a	n/a	0	0	0
1456308	WORD	wordpools/wasnorm_wordpool_576.txt	LTP393	ltpFR2	11	8	HOOD	714	n/a	n/a	0	0	0
1458909	WORD	wordpools/wasnorm_wordpool_576.txt	LTP393	ltpFR2	11	8	LONDON	843	n/a	n/a	0	0	0
1461676	WORD	wordpools/wasnorm_wordpool_576.txt	LTP393	ltpFR2	11	8	SWAMP	1416	n/a	n/a	0	0	0
1464308	WORD	wordpools/wasnorm_wordpool_576.txt	LTP393	ltpFR2	11	8	LAKE	796	n/a	n/a	0	0	0
1467009	WORD	wordpools/wasnorm_wordpool_576.txt	LTP393	ltpFR2	11	8	ACTRESS	6	n/a	n/a	0	0	0
1469559	WORD	wordpools/wasnorm_wordpool_576.txt	LTP393	ltpFR2	11	8	ACTOR	5	n/a	n/a	0	0	0
1472358	WORD	wordpools/wasnorm_wordpool_576.txt	LTP393	ltpFR2	11	8	CLAM	315	n/a	n/a	0	0	0
1474842	WORD	wordpools/wasnorm_wordpool_576.txt	LTP393	ltpFR2	11	8	PRIMATE	1123	n/a	n/a	0	0	0
1477408	WORD	wordpools/wasnorm_wordpool_576.txt	LTP393	ltpFR2	11	8	HUSBAND	728	n/a	n/a	0	0	0
1479942	WORD	wordpools/wasnorm_wordpool_576.txt	LTP393	ltpFR2	11	8	WIFE	1609	n/a	n/a	0	0	0
1482609	WORD	wordpools/wasnorm_wordpool_576.txt	LTP393	ltpFR2	11	8	GUITAR	670	n/a	n/a	0	0	0
1485125	WORD	wordpools/wasnorm_wordpool_576.txt	LTP393	ltpFR2	11	8	FRANCE	601	n/a	n/a	0	0	0
1487692	WORD	wordpools/wasnorm_wordpool_576.txt	LTP393	ltpFR2	11	8	HAND	683	n/a	n/a	0	0	0
1490124	WORD	wordpools/wasnorm_wordpool_576.txt	LTP393	ltpFR2	11	8	TRENCH	1503	n/a	n/a	0	0	0
1492692	WORD	wordpools/wasnorm_wordpool_576.txt	LTP393	ltpFR2	11	8	SALT	1229	n/a	n/a	0	0	0
1494308	START	n/a	LTP393	ltpFR2	11	n/a	n/a	n/a	13	n/a	n/a	n/a	n/a
1495246	DISTRACTOR	n/a	LTP393	ltpFR2	11	8	n/a	n/a	n/a	n/a	0	0	0
1495258	PROB	n/a	LTP393	ltpFR2	11	n/a	n/a	n/a	13	11	8	2	1
1497542	PROB	n/a	LTP393	ltpFR2	11	n/a	n/a	n/a	13	7	1	5	1
1498992	PROB	n/a	LTP393	ltpFR2	11	n/a	n/a	n/a	13	17	7	3	7
1500458	PROB	n/a	LTP393	ltpFR2	11	n/a	n/a	n/a	13	21	9	8	4
1502542	PROB	n/a	LTP393	ltpFR2	11	n/a	n/a	n/a	13	11	2	5	4
1504441	PROB	n/a	LTP393	ltpFR2	11	n/a	n/a	n/a	13	9	3	2	4
1506357	PROB	n/a	LTP393	ltpFR2	11	n/a	n/a	n/a	13	6	2	2	2
1507909	PROB	n/a	LTP393	ltpFR2	11	n/a	n/a	n/a	13	20	6	7	7
1509842	PROB	n/a	LTP393	ltpFR2	11	n/a	n/a	n/a	13	16	8	1	7
1511992	PROB	n/a	LTP393	ltpFR2	11	n/a	n/a	n/a	13	22	5	8	9
1515542	PROB	n/a	LTP393	ltpFR2	11	n/a	n/a	n/a	13	10	1	3	6
1516902	STOP	n/a	LTP393	ltpFR2	11	n/a	n/a	n/a	13	n/a	n/a	n/a	n/a
1520124	REC_START	n/a	LTP393	ltpFR2	11	8	n/a	n/a	n/a	n/a	0	0	0
1521607	REC_WORD	wordpools/wasnorm_wordpool_576.txt	LTP393	ltpFR2	11	8	ACTOR	5	n/a	n/a	0	0	0
1522807	REC_WORD	wordpools/wasnorm_wordpool_576.txt	LTP393	ltpFR2	11	8	ACTRESS	6	n/a	n/a	0	0	0
1527326	REC_WORD	wordpools/wasnorm_wordpool_576.txt	LTP393	ltpFR2	11	8	SALT	1229	n/a	n/a	0	0	0
1596674	REST_REWET	n/a	LTP393	ltpFR2	11	8	n/a	n/a	n/a	n/a	0	0	0
1764103	WORD	wordpools/wasnorm_wordpool_576.txt	LTP393	ltpFR2	11	9	SNAKE	1333	n/a	n/a	0	0	0
1766571	WORD	wordpools/wasnorm_wordpool_576.txt	LTP393	ltpFR2	11	9	COBRA	336	n/a	n/a	0	0	0
1769237	WORD	wordpools/wasnorm_wordpool_576.txt	LTP393	ltpFR2	11	9	PLIERS	1089	n/a	n/a	0	0	0
1771838	WORD	wordpools/wasnorm_wordpool_576.txt	LTP393	ltpFR2	11	9	SCARF	1246	n/a	n/a	0	0	0
1774403	WORD	wordpools/wasnorm_wordpool_576.txt	LTP393	ltpFR2	11	9	ZEBRA	1635	n/a	n/a	0	0	0
1777004	WORD	wordpools/wasnorm_wordpool_576.txt	LTP393	ltpFR2	11	9	WASHER	1592	n/a	n/a	0	0	0
1779504	WORD	wordpools/wasnorm_wordpool_576.txt	LTP393	ltpFR2	11	9	PIGEON	1065	n/a	n/a	0	0	0
1782136	WORD	wordpools/wasnorm_wordpool_576.txt	LTP393	ltpFR2	11	9	SALAD	1224	n/a	n/a	0	0	0
1784621	WORD	wordpools/wasnorm_wordpool_576.txt	LTP393	ltpFR2	11	9	HELMET	702	n/a	n/a	0	0	0
1787220	WORD	wordpools/wasnorm_wordpool_576.txt	LTP393	ltpFR2	11	9	ROD	1203	n/a	n/a	0	0	0
1789671	WORD	wordpools/wasnorm_wordpool_576.txt	LTP393	ltpFR2	11	9	WAGON	1578	n/a	n/a	0	0	0
1792120	WORD	wordpools/wasnorm_wordpool_576.txt	LTP393	ltpFR2	11	9	ROCKET	1202	n/a	n/a	0	0	0
1794671	WORD	wordpools/wasnorm_wordpool_576.txt	LTP393	ltpFR2	11	9	QUAIL	1147	n/a	n/a	0	0	0
1797336	WORD	wordpools/wasnorm_wordpool_576.txt	LTP393	ltpFR2	11	9	CLOCK	325	n/a	n/a	0	0	0
1799987	WORD	wordpools/wasnorm_wordpool_576.txt	LTP393	ltpFR2	11	9	SUPPER	1411	n/a	n/a	0	0	0
1802537	WORD	wordpools/wasnorm_wordpool_576.txt	LTP393	ltpFR2	11	9	PATIENT	1024	n/a	n/a	0	0	0
1805303	WORD	wordpools/wasnorm_wordpool_576.txt	LTP393	ltpFR2	11	9	SCALPEL	1243	n/a	n/a	0	0	0
1807804	WORD	wordpools/wasnorm_wordpool_576.txt	LTP393	ltpFR2	11	9	DRILL	497	n/a	n/a	0	0	0
1810236	WORD	wordpools/wasnorm_wordpool_576.txt	LTP393	ltpFR2	11	9	JURY	766	n/a	n/a	0	0	0
1812804	WORD	wordpools/wasnorm_wordpool_576.txt	LTP393	ltpFR2	11	9	MISSILE	900	n/a	n/a	0	0	0
1815504	WORD	wordpools/wasnorm_wordpool_576.txt	LTP393	ltpFR2	11	9	BEAKER	104	n/a	n/a	0	0	0
1818186	WORD	wordpools/wasnorm_wordpool_576.txt	LTP393	ltpFR2	11	9	PLASTER	1085	n/a	n/a	0	0	0
1820670	WORD	wordpools/wasnorm_wordpool_576.txt	LTP393	ltpFR2	11	9	BRAKE	166	n/a	n/a	0	0	0
1823486	WORD	wordpools/wasnorm_wordpool_576.txt	LTP393	ltpFR2	11	9	SWORD	1423	n/a	n/a	0	0	0
1825103	START	n/a	LTP393	ltpFR2	11	n/a	n/a	n/a	14	n/a	n/a	n/a	n/a
1826122	DISTRACTOR	n/a	LTP393	ltpFR2	11	9	n/a	n/a	n/a	n/a	0	0	0
1826136	PROB	n/a	LTP393	ltpFR2	11	n/a	n/a	n/a	14	12	5	2	5
1828402	PROB	n/a	LTP393	ltpFR2	11	n/a	n/a	n/a	14	21	6	6	9
1832620	PROB	n/a	LTP393	ltpFR2	11	n/a	n/a	n/a	14	17	9	4	4
1835469	PROB	n/a	LTP393	ltpFR2	11	n/a	n/a	n/a	14	1	1	9	2
1836687	PROB	n/a	LTP393	ltpFR2	11	n/a	n/a	n/a	14	15	5	2	8
1838753	PROB	n/a	LTP393	ltpFR2	11	n/a	n/a	n/a	14	8	4	2	2
1841052	PROB	n/a	LTP393	ltpFR2	11	n/a	n/a	n/a	14	22	8	8	6
1843903	PROB	n/a	LTP393	ltpFR2	11	n/a	n/a	n/a	14	13	2	8	3
1845670	PROB	n/a	LTP393	ltpFR2	11	n/a	n/a	n/a	14	18	6	9	3
1847808	STOP	n/a	LTP393	ltpFR2	11	n/a	n/a	n/a	14	n/a	n/a	n/a	n/a
1850970	REC_START	n/a	LTP393	ltpFR2	11	9	n/a	n/a	n/a	n/a	0	0	0
1852992	REC_WORD	wordpools/wasnorm_wordpool_576.txt	LTP393	ltpFR2	11	9	SNAKE	1333	n/a	n/a	0	0	0
1854888	REC_WORD	wordpools/wasnorm_wordpool_576.txt	LTP393	ltpFR2	11	9	COBRA	336	n/a	n/a	0	0	0
1856612	REC_WORD	wordpools/wasnorm_wordpool_576.txt	LTP393	ltpFR2	11	9	PLIERS	1089	n/a	n/a	0	0	0
1858274	REC_WORD	wordpools/wasnorm_wordpool_576.txt	LTP393	ltpFR2	11	9	SCARF	1246	n/a	n/a	0	0	0
1861356	REC_WORD	wordpools/wasnorm_wordpool_576.txt	LTP393	ltpFR2	11	9	BEAKER	104	n/a	n/a	0	0	0
1863522	REC_WORD	wordpools/wasnorm_wordpool_576.txt	LTP393	ltpFR2	11	9	DRAGON	492	n/a	n/a	0	0	0
1865872	REC_WORD	wordpools/wasnorm_wordpool_576.txt	LTP393	ltpFR2	11	9	ZEBRA	1635	n/a	n/a	0	0	0
1868092	REC_WORD	wordpools/wasnorm_wordpool_576.txt	LTP393	ltpFR2	11	9	PIGEON	1065	n/a	n/a	0	0	0
1941434	WORD	wordpools/wasnorm_wordpool_576.txt	LTP393	ltpFR2	11	10	ROBOT	1200	n/a	n/a	0	0	0
1943868	WORD	wordpools/wasnorm_wordpool_576.txt	LTP393	ltpFR2	11	10	COCKTAIL	338	n/a	n/a	0	0	0
1946668	WORD	wordpools/wasnorm_wordpool_576.txt	LTP393	ltpFR2	11	10	CAFE	216	n/a	n/a	0	0	0
1949367	WORD	wordpools/wasnorm_wordpool_576.txt	LTP393	ltpFR2	11	10	FLASHLIGHT	575	n/a	n/a	0	0	0
1951868	WORD	wordpools/wasnorm_wordpool_576.txt	LTP393	ltpFR2	11	10	STICKER	1382	n/a	n/a	0	0	0
1954551	WORD	wordpools/wasnorm_wordpool_576.txt	LTP393	ltpFR2	11	10	BINDER	127	n/a	n/a	0	0	0
1957350	WORD	wordpools/wasnorm_wordpool_576.txt	LTP393	ltpFR2	11	10	GARBAGE	622	n/a	n/a	0	0	0
1959818	WORD	wordpools/wasnorm_wordpool_576.txt	LTP393	ltpFR2	11	10	FLAG	573	n/a	n/a	0	0	0
1962534	WORD	wordpools/wasnorm_wordpool_576.txt	LTP393	ltpFR2	11	10	SKIRT	1319	n/a	n/a	0	0	0
1965083	WORD	wordpools/wasnorm_wordpool_576.txt	LTP393	ltpFR2	11	10	BLOUSE	139	n/a	n/a	0	0	0
1967534	WORD	wordpools/wasnorm_wordpool_576.txt	LTP393	ltpFR2	11	10	CATCHER	258	n/a	n/a	0	0	0
1969968	WORD	wordpools/wasnorm_wordpool_576.txt	LTP393	ltpFR2	11	10	ONION	977	n/a	n/a	0	0	0
1972518	WORD	wordpools/wasnorm_wordpool_576.txt	LTP393	ltpFR2	11	10	MAPLE	866	n/a	n/a	0	0	0
1975018	WORD	wordpools/wasnorm_wordpool_576.txt	LTP393	ltpFR2	11	10	THIEF	1456	n/a	n/a	0	0	0
1977567	WORD	wordpools/wasnorm_wordpool_576.txt	LTP393	ltpFR2	11	10	LASER	801	n/a	n/a	0	0	0
1980018	WORD	wordpools/wasnorm_wordpool_576.txt	LTP393	ltpFR2	11	10	SPOUSE	1358	n/a	n/a	0	0	0
1982551	WORD	wordpools/wasnorm_wordpool_576.txt	LTP393	ltpFR2	11	10	MAILBOX	857	n/a	n/a	0	0	0
1985001	WORD	wordpools/wasnorm_wordpool_576.txt	LTP393	ltpFR2	11	10	DUST	508	n/a	n/a	0	0	0
1987701	WORD	wordpools/wasnorm_wordpool_576.txt	LTP393	ltpFR2	11	10	GRAVEL	659	n/a	n/a	0	0	0
1990216	WORD	wordpools/wasnorm_wordpool_576.txt	LTP393	ltpFR2	11	10	SUSPECT	1415	n/a	n/a	0	0	0
1993001	WORD	wordpools/wasnorm_wordpool_576.txt	LTP393	ltpFR2	11	10	TOASTER	1472	n/a	n/a	0	0	0
1995517	WORD	wordpools/wasnorm_wordpool_576.txt	LTP393	ltpFR2	11	10	FLEET	578	n/a	n/a	0	0	0
1998183	WORD	wordpools/wasnorm_wordpool_576.txt	LTP393	ltpFR2	11	10	BROOK	177	n/a	n/a	0	0	0
2000617	WORD	wordpools/wasnorm_wordpool_576.txt	LTP393	ltpFR2	11	10	TYPIST	1532	n/a	n/a	0	0	0
2002233	START	n/a	LTP393	ltpFR2	11	n/a	n/a	n/a	15	n/a	n/a	n/a	n/a
2003252	DISTRACTOR	n/a	LTP393	ltpFR2	11	10	n/a	n/a	n/a	n/a	0	0	0
2003266	PROB	n/a	LTP393	ltpFR2	11	n/a	n/a	n/a	15	16	4	7	5
2006099	PROB	n/a	LTP393	ltpFR2	11	n/a	n/a	n/a	15	10	1	2	7
2007584	PROB	n/a	LTP393	ltpFR2	11	n/a	n/a	n/a	15	6	1	4	1
2008967	PROB	n/a	LTP393	ltpFR2	11	n/a	n/a	n/a	15	20	9	9	2
2012199	PROB	n/a	LTP393	ltpFR2	11	n/a	n/a	n/a	15	11	7	1	3
2013534	PROB	n/a	LTP393	ltpFR2	11	n/a	n/a	n/a	15	12	4	7	1
2015617	PROB	n/a	LTP393	ltpFR2	11	n/a	n/a	n/a	15	16	6	6	4
2017049	PROB	n/a	LTP393	ltpFR2	11	n/a	n/a	n/a	15	18	9	8	1
2019099	PROB	n/a	LTP393	ltpFR2	11	n/a	n/a	n/a	15	18	9	5	4
2020733	PROB	n/a	LTP393	ltpFR2	11	n/a	n/a	n/a	15	10	5	2	3
2022366	PROB	n/a	LTP393	ltpFR2	11	n/a	n/a	n/a	15	16	4	7	5
2024116	PROB	n/a	LTP393	ltpFR2	11	n/a	n/a	n/a	15	18	7	4	7
2025610	STOP	n/a	LTP393	ltpFR2	11	n/a	n/a	n/a	15	n/a	n/a	n/a	n/a
2028133	REC_START	n/a	LTP393	ltpFR2	11	10	n/a	n/a	n/a	n/a	0	0	0
2029124	REC_WORD	wordpools/wasnorm_wordpool_576.txt	LTP393	ltpFR2	11	10	TRUCK	1512	n/a	n/a	0	0	0
2029889	REC_WORD	wordpools/wasnorm_wordpool_576.txt	LTP393	ltpFR2	11	10	FLEET	578	n/a	n/a	0	0	0
2118582	WORD	wordpools/wasnorm_wordpool_576.txt	LTP393	ltpFR2	11	11	PERFUME	1049	n/a	n/a	0	0	0
2121015	WORD	wordpools/wasnorm_wordpool_576.txt	LTP393	ltpFR2	11	11	SOFTBALL	1343	n/a	n/a	0	0	0
2123615	WORD	wordpools/wasnorm_wordpool_576.txt	LTP393	ltpFR2	11	11	SWITCH	1422	n/a	n/a	0	0	0
2126281	WORD	wordpools/wasnorm_wordpool_576.txt	LTP393	ltpFR2	11	11	SPARROW	1347	n/a	n/a	0	0	0
2129097	WORD	wordpools/wasnorm_wordpool_576.txt	LTP393	ltpFR2	11	11	BARLEY	88	n/a	n/a	0	0	0
2131898	WORD	wordpools/wasnorm_wordpool_576.txt	LTP393	ltpFR2	11	11	MUFFIN	929	n/a	n/a	0	0	0
2134431	WORD	wordpools/wasnorm_wordpool_576.txt	LTP393	ltpFR2	11	11	BELLY	119	n/a	n/a	0	0	0
2137114	WORD	wordpools/wasnorm_wordpool_576.txt	LTP393	ltpFR2	11	11	INFANT	737	n/a	n/a	0	0	0
2139548	WORD	wordpools/wasnorm_wordpool_576.txt	LTP393	ltpFR2	11	11	CRIB	407	n/a	n/a	0	0	0
2142147	WORD	wordpools/wasnorm_wordpool_576.txt	LTP393	ltpFR2	11	11	HAMPER	682	n/a	n/a	0	0	0
2144731	WORD	wordpools/wasnorm_wordpool_576.txt	LTP393	ltpFR2	11	11	SHOVEL	1295	n/a	n/a	0	0	0
2147414	WORD	wordpools/wasnorm_wordpool_576.txt	LTP393	ltpFR2	11	11	FIREMAN	569	n/a	n/a	0	0	0
2150214	WORD	wordpools/wasnorm_wordpool_576.txt	LTP393	ltpFR2	11	11	SEAFOOD	1260	n/a	n/a	0	0	0
2152965	WORD	wordpools/wasnorm_wordpool_576.txt	LTP393	ltpFR2	11	11	BOUQUET	157	n/a	n/a	0	0	0
2155648	WORD	wordpools/wasnorm_wordpool_576.txt	LTP393	ltpFR2	11	11	STOMACH	1384	n/a	n/a	0	0	0
2158247	WORD	wordpools/wasnorm_wordpool_576.txt	LTP393	ltpFR2	11	11	SPOON	1357	n/a	n/a	0	0	0
2160998	WORD	wordpools/wasnorm_wordpool_576.txt	LTP393	ltpFR2	11	11	BABY	64	n/a	n/a	0	0	0
2163581	WORD	wordpools/wasnorm_wordpool_576.txt	LTP393	ltpFR2	11	11	FOREST	593	n/a	n/a	0	0	0
2166014	WORD	wordpools/wasnorm_wordpool_576.txt	LTP393	ltpFR2	11	11	ICING	732	n/a	n/a	0	0	0
2168731	WORD	wordpools/wasnorm_wordpool_576.txt	LTP393	ltpFR2	11	11	WRENCH	1625	n/a	n/a	0	0	0
2171263	WORD	wordpools/wasnorm_wordpool_576.txt	LTP393	ltpFR2	11	11	HORSE	719	n/a	n/a	0	0	0
2173831	WORD	wordpools/wasnorm_wordpool_576.txt	LTP393	ltpFR2	11	11	COWBOY	395	n/a	n/a	0	0	0
2176463	WORD	wordpools/wasnorm_wordpool_576.txt	LTP393	ltpFR2	11	11	COUSIN	392	n/a	n/a	0	0	0
2178914	WORD	wordpools/wasnorm_wordpool_576.txt	LTP393	ltpFR2	11	11	HATCHET	691	n/a	n/a	0	0	0
2180531	START	n/a	LTP393	ltpFR2	11	n/a	n/a	n/a	16	n/a	n/a	n/a	n/a
2181416	DISTRACTOR	n/a	LTP393	ltpFR2	11	11	n/a	n/a	n/a	n/a	0	0	0
2181430	PROB	n/a	LTP393	ltpFR2	11	n/a	n/a	n/a	16	11	4	4	3
2185514	PROB	n/a	LTP393	ltpFR2	11	n/a	n/a	n/a	16	21	7	8	6
2187280	PROB	n/a	LTP393	ltpFR2	11	n/a	n/a	n/a	16	16	7	8	1
2189480	PROB	n/a	LTP393	ltpFR2	11	n/a	n/a	n/a	16	10	4	1	5
2191046	PROB	n/a	LTP393	ltpFR2	11	n/a	n/a	n/a	16	14	9	4	1
2193196	PROB	n/a	LTP393	ltpFR2	11	n/a	n/a	n/a	16	10	7	1	2
2195230	PROB	n/a	LTP393	ltpFR2	11	n/a	n/a	n/a	16	19	9	9	1
2196731	PROB	n/a	LTP393	ltpFR2	11	n/a	n/a	n/a	16	19	8	6	5
2198897	PROB	n/a	LTP393	ltpFR2	11	n/a	n/a	n/a	16	16	6	4	6
2204530	STOP	n/a	LTP393	ltpFR2	11	n/a	n/a	n/a	16	n/a	n/a	n/a	n/a
2206297	REC_START	n/a	LTP393	ltpFR2	11	11	n/a	n/a	n/a	n/a	0	0	0
2206905	REC_WORD	wordpools/wasnorm_wordpool_576.txt	LTP393	ltpFR2	11	11	HORSE	719	n/a	n/a	0	0	0
2208174	REC_WORD	wordpools/wasnorm_wordpool_576.txt	LTP393	ltpFR2	11	11	COWBOY	395	n/a	n/a	0	0	0
2209522	REC_WORD	wordpools/wasnorm_wordpool_576.txt	LTP393	ltpFR2	11	11	COUSIN	392	n/a	n/a	0	0	0
2210769	REC_WORD	wordpools/wasnorm_wordpool_576.txt	LTP393	ltpFR2	11	11	HATCHET	691	n/a	n/a	0	0	0
2296729	WORD	wordpools/wasnorm_wordpool_576.txt	LTP393	ltpFR2	11	12	HOSTESS	723	n/a	n/a	0	0	0
2299345	WORD	wordpools/wasnorm_wordpool_576.txt	LTP393	ltpFR2	11	12	ICEBERG	731	n/a	n/a	0	0	0
2301896	WORD	wordpools/wasnorm_wordpool_576.txt	LTP393	ltpFR2	11	12	PORTRAIT	1111	n/a	n/a	0	0	0
2304478	WORD	wordpools/wasnorm_wordpool_576.txt	LTP393	ltpFR2	11	12	DANDRUFF	439	n/a	n/a	0	0	0
2307078	WORD	wordpools/wasnorm_wordpool_576.txt	LTP393	ltpFR2	11	12	CARROT	249	n/a	n/a	0	0	0
2309645	WORD	wordpools/wasnorm_wordpool_576.txt	LTP393	ltpFR2	11	12	FRECKLE	602	n/a	n/a	0	0	0
2312111	WORD	wordpools/wasnorm_wordpool_576.txt	LTP393	ltpFR2	11	12	NAPKIN	937	n/a	n/a	0	0	0
2314645	WORD	wordpools/wasnorm_wordpool_576.txt	LTP393	ltpFR2	11	12	SKETCH	1315	n/a	n/a	0	0	0
2317311	WORD	wordpools/wasnorm_wordpool_576.txt	LTP393	ltpFR2	11	12	PRINCESS	1125	n/a	n/a	0	0	0
2319829	WORD	wordpools/wasnorm_wordpool_576.txt	LTP393	ltpFR2	11	12	KNIFE	785	n/a	n/a	0	0	0
2322428	WORD	wordpools/wasnorm_wordpool_576.txt	LTP393	ltpFR2	11	12	COLONEL	348	n/a	n/a	0	0	0
2324945	WORD	wordpools/wasnorm_wordpool_576.txt	LTP393	ltpFR2	11	12	LAPEL	800	n/a	n/a	0	0	0
2327612	WORD	wordpools/wasnorm_wordpool_576.txt	LTP393	ltpFR2	11	12	FINGER	567	n/a	n/a	0	0	0
2330211	WORD	wordpools/wasnorm_wordpool_576.txt	LTP393	ltpFR2	11	12	POLICE	1098	n/a	n/a	0	0	0
2332712	WORD	wordpools/wasnorm_wordpool_576.txt	LTP393	ltpFR2	11	12	OUTLAW	989	n/a	n/a	0	0	0
2335161	WORD	wordpools/wasnorm_wordpool_576.txt	LTP393	ltpFR2	11	12	MUMMY	932	n/a	n/a	0	0	0
2337928	WORD	wordpools/wasnorm_wordpool_576.txt	LTP393	ltpFR2	11	12	TEMPLE	1448	n/a	n/a	0	0	0
2340745	WORD	wordpools/wasnorm_wordpool_576.txt	LTP393	ltpFR2	11	12	COOK	372	n/a	n/a	0	0	0
2343444	WORD	wordpools/wasnorm_wordpool_576.txt	LTP393	ltpFR2	11	12	VIKING	1565	n/a	n/a	0	0	0
2346077	WORD	wordpools/wasnorm_wordpool_576.txt	LTP393	ltpFR2	11	12	PADDLE	1000	n/a	n/a	0	0	0
2348812	WORD	wordpools/wasnorm_wordpool_576.txt	LTP393	ltpFR2	11	12	SERVER	1272	n/a	n/a	0	0	0
2351277	WORD	wordpools/wasnorm_wordpool_576.txt	LTP393	ltpFR2	11	12	DANCER	437	n/a	n/a	0	0	0
2353845	WORD	wordpools/wasnorm_wordpool_576.txt	LTP393	ltpFR2	11	12	PREACHER	1119	n/a	n/a	0	0	0
2356511	WORD	wordpools/wasnorm_wordpool_576.txt	LTP393	ltpFR2	11	12	TAXI	1438	n/a	n/a	0	0	0
2358128	START	n/a	LTP393	ltpFR2	11	n/a	n/a	n/a	17	n/a	n/a	n/a	n/a
2358963	DISTRACTOR	n/a	LTP393	ltpFR2	11	12	n/a	n/a	n/a	n/a	0	0	0
2358978	PROB	n/a	LTP393	ltpFR2	11	n/a	n/a	n/a	17	18	5	8	5
2361711	PROB	n/a	LTP393	ltpFR2	11	n/a	n/a	n/a	17	8	4	2	2
2363945	PROB	n/a	LTP393	ltpFR2	11	n/a	n/a	n/a	17	16	7	5	4
2367127	PROB	n/a	LTP393	ltpFR2	11	n/a	n/a	n/a	17	12	3	1	8
2368711	PROB	n/a	LTP393	ltpFR2	11	n/a	n/a	n/a	17	12	1	8	3
2370094	PROB	n/a	LTP393	ltpFR2	11	n/a	n/a	n/a	17	10	4	1	5
2372127	PROB	n/a	LTP393	ltpFR2	11	n/a	n/a	n/a	17	19	8	6	5
2373761	PROB	n/a	LTP393	ltpFR2	11	n/a	n/a	n/a	17	12	3	3	6
2375477	PROB	n/a	LTP393	ltpFR2	11	n/a	n/a	n/a	17	12	6	5	1
2377077	PROB	n/a	LTP393	ltpFR2	11	n/a	n/a	n/a	17	19	3	7	9
2378427	PROB	n/a	LTP393	ltpFR2	11	n/a	n/a	n/a	17	15	1	9	5
2382127	STOP	n/a	LTP393	ltpFR2	11	n/a	n/a	n/a	17	n/a	n/a	n/a	n/a
2384060	REC_START	n/a	LTP393	ltpFR2	11	12	n/a	n/a	n/a	n/a	0	0	0
2384546	REC_WORD	wordpools/wasnorm_wordpool_576.txt	LTP393	ltpFR2	11	12	VIKING	1565	n/a	n/a	0	0	0
2385862	REC_WORD	wordpools/wasnorm_wordpool_576.txt	LTP393	ltpFR2	11	12	TURTLE	1522	n/a	n/a	0	0	0
2387131	REC_WORD	wordpools/wasnorm_wordpool_576.txt	LTP393	ltpFR2	11	12	PASSENGER	1020	n/a	n/a	0	0	0
2390828	REC_WORD	wordpools/wasnorm_wordpool_576.txt	LTP393	ltpFR2	11	12	ICEBERG	731	n/a	n/a	0	0	0
2392396	REC_WORD	wordpools/wasnorm_wordpool_576.txt	LTP393	ltpFR2	11	12	MASTER	-1	n/a	n/a	0	0	0
2407508	REC_WORD	wordpools/wasnorm_wordpool_576.txt	LTP393	ltpFR2	11	12	HOSTESS	723	n/a	n/a	0	0	0
2474509	DISTRACTOR	n/a	LTP393	ltpFR2	11	13	n/a	n/a	n/a	n/a	0	0	0
2474510	START	n/a	LTP393	ltpFR2	11	n/a	n/a	n/a	18	n/a	n/a	n/a	n/a
2474526	PROB	n/a	LTP393	ltpFR2	11	n/a	n/a	n/a	18	13	4	7	2
2477475	PROB	n/a	LTP393	ltpFR2	11	n/a	n/a	n/a	18	25	8	8	9
2480425	PROB	n/a	LTP393	ltpFR2	11	n/a	n/a	n/a	18	9	2	5	2
2482275	PROB	n/a	LTP393	ltpFR2	11	n/a	n/a	n/a	18	8	2	5	1
2483643	PROB	n/a	LTP393	ltpFR2	11	n/a	n/a	n/a	18	5	2	2	1
2485042	PROB	n/a	LTP393	ltpFR2	11	n/a	n/a	n/a	18	9	2	1	6
2486693	PROB	n/a	LTP393	ltpFR2	11	n/a	n/a	n/a	18	13	5	2	6
2496291	PROB	n/a	LTP393	ltpFR2	11	n/a	n/a	n/a	18	11	1	7	3
2498011	STOP	n/a	LTP393	ltpFR2	11	n/a	n/a	n/a	18	n/a	n/a	n/a	n/a
2499391	WORD	wordpools/wasnorm_wordpool_576.txt	LTP393	ltpFR2	11	13	GIFT	635	n/a	n/a	0	0	0
2502175	WORD	wordpools/wasnorm_wordpool_576.txt	LTP393	ltpFR2	11	13	COMET	353	n/a	n/a	0	0	0
2504776	WORD	wordpools/wasnorm_wordpool_576.txt	LTP393	ltpFR2	11	13	FOOT	590	n/a	n/a	0	0	0
2507375	WORD	wordpools/wasnorm_wordpool_576.txt	LTP393	ltpFR2	11	13	LACE	792	n/a	n/a	0	0	0
2509892	WORD	wordpools/wasnorm_wordpool_576.txt	LTP393	ltpFR2	11	13	BEAST	108	n/a	n/a	0	0	0
2512474	WORD	wordpools/wasnorm_wordpool_576.txt	LTP393	ltpFR2	11	13	YARN	1631	n/a	n/a	0	0	0
2514925	WORD	wordpools/wasnorm_wordpool_576.txt	LTP393	ltpFR2	11	13	RAFT	1159	n/a	n/a	0	0	0
2517625	WORD	wordpools/wasnorm_wordpool_576.txt	LTP393	ltpFR2	11	13	LOFT	840	n/a	n/a	0	0	0
2520324	WORD	wordpools/wasnorm_wordpool_576.txt	LTP393	ltpFR2	11	13	NIGHTGOWN	953	n/a	n/a	0	0	0
2523009	WORD	wordpools/wasnorm_wordpool_576.txt	LTP393	ltpFR2	11	13	STALLION	1369	n/a	n/a	0	0	0
2525692	WORD	wordpools/wasnorm_wordpool_576.txt	LTP393	ltpFR2	11	13	COUNTY	389	n/a	n/a	0	0	0
2528158	WORD	wordpools/wasnorm_wordpool_576.txt	LTP393	ltpFR2	11	13	COUCH	386	n/a	n/a	0	0	0
2530659	WORD	wordpools/wasnorm_wordpool_576.txt	LTP393	ltpFR2	11	13	LAVA	804	n/a	n/a	0	0	0
2533207	WORD	wordpools/wasnorm_wordpool_576.txt	LTP393	ltpFR2	11	13	CRATER	400	n/a	n/a	0	0	0
2535992	WORD	wordpools/wasnorm_wordpool_576.txt	LTP393	ltpFR2	11	13	DASHBOARD	441	n/a	n/a	0	0	0
2538808	WORD	wordpools/wasnorm_wordpool_576.txt	LTP393	ltpFR2	11	13	DONKEY	484	n/a	n/a	0	0	0
2541274	WORD	wordpools/wasnorm_wordpool_576.txt	LTP393	ltpFR2	11	13	SCALLOP	1242	n/a	n/a	0	0	0
2544057	WORD	wordpools/wasnorm_wordpool_576.txt	LTP393	ltpFR2	11	13	SUBWAY	1400	n/a	n/a	0	0	0
2546858	WORD	wordpools/wasnorm_wordpool_576.txt	LTP393	ltpFR2	11	13	FREEZER	604	n/a	n/a	0	0	0
2549391	WORD	wordpools/wasnorm_wordpool_576.txt	LTP393	ltpFR2	11	13	WRIST	1626	n/a	n/a	0	0	0
2551858	WORD	wordpools/wasnorm_wordpool_576.txt	LTP393	ltpFR2	11	13	PARENT	1013	n/a	n/a	0	0	0
2554307	WORD	wordpools/wasnorm_wordpool_576.txt	LTP393	ltpFR2	11	13	YACHT	1629	n/a	n/a	0	0	0
2557090	WORD	wordpools/wasnorm_wordpool_576.txt	LTP393	ltpFR2	11	13	IDOL	733	n/a	n/a	0	0	0
2559841	WORD	wordpools/wasnorm_wordpool_576.txt	LTP393	ltpFR2	11	13	COMPASS	358	n/a	n/a	0	0	0
2561457	START	n/a	LTP393	ltpFR2	11	n/a	n/a	n/a	19	n/a	n/a	n/a	n/a
2562583	DISTRACTOR	n/a	LTP393	ltpFR2	11	13	n/a	n/a	n/a	n/a	0	0	0
2562591	PROB	n/a	LTP393	ltpFR2	11	n/a	n/a	n/a	19	14	5	7	2
2565808	PROB	n/a	LTP393	ltpFR2	11	n/a	n/a	n/a	19	24	7	9	8
2572808	PROB	n/a	LTP393	ltpFR2	11	n/a	n/a	n/a	19	10	7	2	1
2574340	PROB	n/a	LTP393	ltpFR2	11	n/a	n/a	n/a	19	22	5	9	8
2576524	PROB	n/a	LTP393	ltpFR2	11	n/a	n/a	n/a	19	18	8	8	2
2578340	PROB	n/a	LTP393	ltpFR2	11	n/a	n/a	n/a	19	13	4	2	7
2581941	PROB	n/a	LTP393	ltpFR2	11	n/a	n/a	n/a	19	13	5	5	3
2585457	STOP	n/a	LTP393	ltpFR2	11	n/a	n/a	n/a	19	n/a	n/a	n/a	n/a
2587407	REC_START	n/a	LTP393	ltpFR2	11	13	n/a	n/a	n/a	n/a	0	0	0
2588368	REC_WORD	wordpools/wasnorm_wordpool_576.txt	LTP393	ltpFR2	11	13	IDOL	733	n/a	n/a	0	0	0
2590292	REC_WORD	wordpools/wasnorm_wordpool_576.txt	LTP393	ltpFR2	11	13	COMPASS	358	n/a	n/a	0	0	0
2592062	REC_WORD	wordpools/wasnorm_wordpool_576.txt	LTP393	ltpFR2	11	13	YACHT	1629	n/a	n/a	0	0	0
2677873	WORD	wordpools/wasnorm_wordpool_576.txt	LTP393	ltpFR2	11	14	LION	827	n/a	n/a	0	0	0
2680573	WORD	wordpools/wasnorm_wordpool_576.txt	LTP393	ltpFR2	11	14	BADGE	68	n/a	n/a	0	0	0
2683072	WORD	wordpools/wasnorm_wordpool_576.txt	LTP393	ltpFR2	11	14	RIVER	1194	n/a	n/a	0	0	0
2685689	WORD	wordpools/wasnorm_wordpool_576.txt	LTP393	ltpFR2	11	14	COUNTRY	388	n/a	n/a	0	0	0
2688372	WORD	wordpools/wasnorm_wordpool_576.txt	LTP393	ltpFR2	11	14	PICNIC	1060	n/a	n/a	0	0	0
2691055	WORD	wordpools/wasnorm_wordpool_576.txt	LTP393	ltpFR2	11	14	LOVER	846	n/a	n/a	0	0	0
2693523	WORD	wordpools/wasnorm_wordpool_576.txt	LTP393	ltpFR2	11	14	GALLON	618	n/a	n/a	0	0	0
2696122	WORD	wordpools/wasnorm_wordpool_576.txt	LTP393	ltpFR2	11	14	HIKER	708	n/a	n/a	0	0	0
2698622	WORD	wordpools/wasnorm_wordpool_576.txt	LTP393	ltpFR2	11	14	VALLEY	1545	n/a	n/a	0	0	0
2701255	WORD	wordpools/wasnorm_wordpool_576.txt	LTP393	ltpFR2	11	14	NOTEBOOK	959	n/a	n/a	0	0	0
2704022	WORD	wordpools/wasnorm_wordpool_576.txt	LTP393	ltpFR2	11	14	WIDOW	1608	n/a	n/a	0	0	0
2706556	WORD	wordpools/wasnorm_wordpool_576.txt	LTP393	ltpFR2	11	14	MISTER	901	n/a	n/a	0	0	0
2709038	WORD	wordpools/wasnorm_wordpool_576.txt	LTP393	ltpFR2	11	14	LUNCH	849	n/a	n/a	0	0	0
2711839	WORD	wordpools/wasnorm_wordpool_576.txt	LTP393	ltpFR2	11	14	GHETTO	633	n/a	n/a	0	0	0
2714589	WORD	wordpools/wasnorm_wordpool_576.txt	LTP393	ltpFR2	11	14	SAUSAGE	1238	n/a	n/a	0	0	0
2717338	WORD	wordpools/wasnorm_wordpool_576.txt	LTP393	ltpFR2	11	14	DIVER	476	n/a	n/a	0	0	0
2720104	WORD	wordpools/wasnorm_wordpool_576.txt	LTP393	ltpFR2	11	14	SWIMMER	1420	n/a	n/a	0	0	0
2722622	WORD	wordpools/wasnorm_wordpool_576.txt	LTP393	ltpFR2	11	14	MARSH	874	n/a	n/a	0	0	0
2725271	WORD	wordpools/wasnorm_wordpool_576.txt	LTP393	ltpFR2	11	14	BANQUET	86	n/a	n/a	0	0	0
2728104	WORD	wordpools/wasnorm_wordpool_576.txt	LTP393	ltpFR2	11	14	RAZOR	1171	n/a	n/a	0	0	0
2730655	WORD	wordpools/wasnorm_wordpool_576.txt	LTP393	ltpFR2	11	14	SEAGULL	1261	n/a	n/a	0	0	0
2733387	WORD	wordpools/wasnorm_wordpool_576.txt	LTP393	ltpFR2	11	14	BUTCHER	203	n/a	n/a	0	0	0
2735988	WORD	wordpools/wasnorm_wordpool_576.txt	LTP393	ltpFR2	11	14	CAMEL	223	n/a	n/a	0	0	0
2738437	WORD	wordpools/wasnorm_wordpool_576.txt	LTP393	ltpFR2	11	14	SLIDE	1326	n/a	n/a	0	0	0
2740054	START	n/a	LTP393	ltpFR2	11	n/a	n/a	n/a	20	n/a	n/a	n/a	n/a
2740996	DISTRACTOR	n/a	LTP393	ltpFR2	11	14	n/a	n/a	n/a	n/a	0	0	0
2741005	PROB	n/a	LTP393	ltpFR2	11	n/a	n/a	n/a	20	19	2	8	9
2750221	PROB	n/a	LTP393	ltpFR2	11	n/a	n/a	n/a	20	15	5	8	2
2752071	PROB	n/a	LTP393	ltpFR2	11	n/a	n/a	n/a	20	23	7	7	9
2755521	PROB	n/a	LTP393	ltpFR2	11	n/a	n/a	n/a	20	19	6	7	6
2757420	PROB	n/a	LTP393	ltpFR2	11	n/a	n/a	n/a	20	15	2	7	6
2759104	PROB	n/a	LTP393	ltpFR2	11	n/a	n/a	n/a	20	21	7	8	6
2764042	STOP	n/a	LTP393	ltpFR2	11	n/a	n/a	n/a	20	n/a	n/a	n/a	n/a
2765872	REC_START	n/a	LTP393	ltpFR2	11	14	n/a	n/a	n/a	n/a	0	0	0
2768385	REC_WORD	wordpools/wasnorm_wordpool_576.txt	LTP393	ltpFR2	11	14	LION	827	n/a	n/a	0	0	0
2769735	REC_WORD	wordpools/wasnorm_wordpool_576.txt	LTP393	ltpFR2	11	14	BADGE	68	n/a	n/a	0	0	0
2771112	REC_WORD	wordpools/wasnorm_wordpool_576.txt	LTP393	ltpFR2	11	14	CAMEL	223	n/a	n/a	0	0	0
2772653	REC_WORD	wordpools/wasnorm_wordpool_576.txt	LTP393	ltpFR2	11	14	BUTCHER	203	n/a	n/a	0	0	0
2773832	REC_WORD	wordpools/wasnorm_wordpool_576.txt	LTP393	ltpFR2	11	14	SWIMMER	1420	n/a	n/a	0	0	0
2775401	REC_WORD	wordpools/wasnorm_wordpool_576.txt	LTP393	ltpFR2	11	14	HIKER	708	n/a	n/a	0	0	0
2777000	REC_WORD	wordpools/wasnorm_wordpool_576.txt	LTP393	ltpFR2	11	14	VALLEY	1545	n/a	n/a	0	0	0
2778554	REC_WORD	wordpools/wasnorm_wordpool_576.txt	LTP393	ltpFR2	11	14	RIVER	1194	n/a	n/a	0	0	0
2780206	REC_WORD	wordpools/wasnorm_wordpool_576.txt	LTP393	ltpFR2	11	14	NOTEBOOK	959	n/a	n/a	0	0	0
2856335	WORD	wordpools/wasnorm_wordpool_576.txt	LTP393	ltpFR2	11	15	GOBLIN	645	n/a	n/a	0	0	0
2859102	WORD	wordpools/wasnorm_wordpool_576.txt	LTP393	ltpFR2	11	15	GUARD	667	n/a	n/a	0	0	0
2861770	WORD	wordpools/wasnorm_wordpool_576.txt	LTP393	ltpFR2	11	15	TRANSPLANT	1496	n/a	n/a	0	0	0
2864452	WORD	wordpools/wasnorm_wordpool_576.txt	LTP393	ltpFR2	11	15	CRUTCH	417	n/a	n/a	0	0	0
2867085	WORD	wordpools/wasnorm_wordpool_576.txt	LTP393	ltpFR2	11	15	STREAM	1392	n/a	n/a	0	0	0
2869753	WORD	wordpools/wasnorm_wordpool_576.txt	LTP393	ltpFR2	11	15	TRUCK	1512	n/a	n/a	0	0	0
2872185	WORD	wordpools/wasnorm_wordpool_576.txt	LTP393	ltpFR2	11	15	QUEEN	1149	n/a	n/a	0	0	0
2874720	WORD	wordpools/wasnorm_wordpool_576.txt	LTP393	ltpFR2	11	15	POET	1095	n/a	n/a	0	0	0
2877385	WORD	wordpools/wasnorm_wordpool_576.txt	LTP393	ltpFR2	11	15	JOURNAL	760	n/a	n/a	0	0	0
2880085	WORD	wordpools/wasnorm_wordpool_576.txt	LTP393	ltpFR2	11	15	BEAVER	109	n/a	n/a	0	0	0
2882586	WORD	wordpools/wasnorm_wordpool_576.txt	LTP393	ltpFR2	11	15	ELBOW	520	n/a	n/a	0	0	0
2885402	WORD	wordpools/wasnorm_wordpool_576.txt	LTP393	ltpFR2	11	15	CASHIER	254	n/a	n/a	0	0	0
2887969	WORD	wordpools/wasnorm_wordpool_576.txt	LTP393	ltpFR2	11	15	CLIMBER	323	n/a	n/a	0	0	0
2890402	WORD	wordpools/wasnorm_wordpool_576.txt	LTP393	ltpFR2	11	15	CHEST	295	n/a	n/a	0	0	0
2893168	WORD	wordpools/wasnorm_wordpool_576.txt	LTP393	ltpFR2	11	15	COFFEE	341	n/a	n/a	0	0	0
2895736	WORD	wordpools/wasnorm_wordpool_576.txt	LTP393	ltpFR2	11	15	HONEY	713	n/a	n/a	0	0	0
2898352	WORD	wordpools/wasnorm_wordpool_576.txt	LTP393	ltpFR2	11	15	HORNET	718	n/a	n/a	0	0	0
2900886	WORD	wordpools/wasnorm_wordpool_576.txt	LTP393	ltpFR2	11	15	GRILL	661	n/a	n/a	0	0	0
2903435	WORD	wordpools/wasnorm_wordpool_576.txt	LTP393	ltpFR2	11	15	LADDER	793	n/a	n/a	0	0	0
2905886	WORD	wordpools/wasnorm_wordpool_576.txt	LTP393	ltpFR2	11	15	CROWN	415	n/a	n/a	0	0	0
2908652	WORD	wordpools/wasnorm_wordpool_576.txt	LTP393	ltpFR2	11	15	RELISH	1183	n/a	n/a	0	0	0
2911285	WORD	wordpools/wasnorm_wordpool_576.txt	LTP393	ltpFR2	11	15	DINER	467	n/a	n/a	0	0	0
2914068	WORD	wordpools/wasnorm_wordpool_576.txt	LTP393	ltpFR2	11	15	ZIPPER	1636	n/a	n/a	0	0	0
2916885	WORD	wordpools/wasnorm_wordpool_576.txt	LTP393	ltpFR2	11	15	BUCKET	184	n/a	n/a	0	0	0
2918502	START	n/a	LTP393	ltpFR2	11	n/a	n/a	n/a	21	n/a	n/a	n/a	n/a
2919437	DISTRACTOR	n/a	LTP393	ltpFR2	11	15	n/a	n/a	n/a	n/a	0	0	0
2919451	PROB	n/a	LTP393	ltpFR2	11	n/a	n/a	n/a	21	25	8	8	9
2921852	PROB	n/a	LTP393	ltpFR2	11	n/a	n/a	n/a	21	21	5	8	8
2926735	PROB	n/a	LTP393	ltpFR2	11	n/a	n/a	n/a	21	14	2	4	8
2928535	PROB	n/a	LTP393	ltpFR2	11	n/a	n/a	n/a	21	10	7	2	1
2930084	PROB	n/a	LTP393	ltpFR2	11	n/a	n/a	n/a	21	17	5	9	3
2933284	PROB	n/a	LTP393	ltpFR2	11	n/a	n/a	n/a	21	14	4	6	4
2934802	PROB	n/a	LTP393	ltpFR2	11	n/a	n/a	n/a	21	19	6	9	4
2942502	STOP	n/a	LTP393	ltpFR2	11	n/a	n/a	n/a	21	n/a	n/a	n/a	n/a
2944418	REC_START	n/a	LTP393	ltpFR2	11	15	n/a	n/a	n/a	n/a	0	0	0
2945138	REC_WORD	wordpools/wasnorm_wordpool_576.txt	LTP393	ltpFR2	11	15	HONEY	713	n/a	n/a	0	0	0
2946445	REC_WORD	wordpools/wasnorm_wordpool_576.txt	LTP393	ltpFR2	11	15	HORNET	718	n/a	n/a	0	0	0
2964138	REC_WORD	wordpools/wasnorm_wordpool_576.txt	LTP393	ltpFR2	11	15	LODGE	839	n/a	n/a	0	0	0
3034884	DISTRACTOR	n/a	LTP393	ltpFR2	11	16	n/a	n/a	n/a	n/a	0	0	0
3034884	START	n/a	LTP393	ltpFR2	11	n/a	n/a	n/a	22	n/a	n/a	n/a	n/a
3034900	PROB	n/a	LTP393	ltpFR2	11	n/a	n/a	n/a	22	12	1	7	4
3036967	PROB	n/a	LTP393	ltpFR2	11	n/a	n/a	n/a	22	25	9	7	9
3039232	PROB	n/a	LTP393	ltpFR2	11	n/a	n/a	n/a	22	19	1	9	9
3040667	PROB	n/a	LTP393	ltpFR2	11	n/a	n/a	n/a	22	10	4	4	2
3042667	PROB	n/a	LTP393	ltpFR2	11	n/a	n/a	n/a	22	16	3	8	5
3044667	PROB	n/a	LTP393	ltpFR2	11	n/a	n/a	n/a	22	12	3	1	8
3046449	PROB	n/a	LTP393	ltpFR2	11	n/a	n/a	n/a	22	16	5	6	5
3048199	PROB	n/a	LTP393	ltpFR2	11	n/a	n/a	n/a	22	20	4	7	9
3050282	PROB	n/a	LTP393	ltpFR2	11	n/a	n/a	n/a	22	15	7	1	7
3051482	PROB	n/a	LTP393	ltpFR2	11	n/a	n/a	n/a	22	12	4	7	1
3053316	PROB	n/a	LTP393	ltpFR2	11	n/a	n/a	n/a	22	21	7	6	8
3058884	STOP	n/a	LTP393	ltpFR2	11	n/a	n/a	n/a	22	n/a	n/a	n/a	n/a
3059833	WORD	wordpools/wasnorm_wordpool_576.txt	LTP393	ltpFR2	11	16	PEACH	1031	n/a	n/a	0	0	0
3062382	WORD	wordpools/wasnorm_wordpool_576.txt	LTP393	ltpFR2	11	16	SCARECROW	1245	n/a	n/a	0	0	0
3064883	WORD	wordpools/wasnorm_wordpool_576.txt	LTP393	ltpFR2	11	16	COCOON	339	n/a	n/a	0	0	0
3067566	WORD	wordpools/wasnorm_wordpool_576.txt	LTP393	ltpFR2	11	16	CHILD	299	n/a	n/a	0	0	0
3070332	WORD	wordpools/wasnorm_wordpool_576.txt	LTP393	ltpFR2	11	16	GAVEL	627	n/a	n/a	0	0	0
3072783	WORD	wordpools/wasnorm_wordpool_576.txt	LTP393	ltpFR2	11	16	BREAST	171	n/a	n/a	0	0	0
3075282	WORD	wordpools/wasnorm_wordpool_576.txt	LTP393	ltpFR2	11	16	ANTLER	29	n/a	n/a	0	0	0
3077716	WORD	wordpools/wasnorm_wordpool_576.txt	LTP393	ltpFR2	11	16	FRUIT	610	n/a	n/a	0	0	0
3080199	WORD	wordpools/wasnorm_wordpool_576.txt	LTP393	ltpFR2	11	16	POSTAGE	1113	n/a	n/a	0	0	0
3082833	WORD	wordpools/wasnorm_wordpool_576.txt	LTP393	ltpFR2	11	16	POPCORN	1104	n/a	n/a	0	0	0
3085599	WORD	wordpools/wasnorm_wordpool_576.txt	LTP393	ltpFR2	11	16	PIMPLE	1071	n/a	n/a	0	0	0
3088348	WORD	wordpools/wasnorm_wordpool_576.txt	LTP393	ltpFR2	11	16	PASTA	1021	n/a	n/a	0	0	0
3090799	WORD	wordpools/wasnorm_wordpool_576.txt	LTP393	ltpFR2	11	16	LEADER	807	n/a	n/a	0	0	0
3093332	WORD	wordpools/wasnorm_wordpool_576.txt	LTP393	ltpFR2	11	16	CRITIC	410	n/a	n/a	0	0	0
3095883	WORD	wordpools/wasnorm_wordpool_576.txt	LTP393	ltpFR2	11	16	FILM	565	n/a	n/a	0	0	0
3098482	WORD	wordpools/wasnorm_wordpool_576.txt	LTP393	ltpFR2	11	16	TOURIST	1488	n/a	n/a	0	0	0
3101232	WORD	wordpools/wasnorm_wordpool_576.txt	LTP393	ltpFR2	11	16	TWIG	1527	n/a	n/a	0	0	0
3103816	WORD	wordpools/wasnorm_wordpool_576.txt	LTP393	ltpFR2	11	16	LUMBER	848	n/a	n/a	0	0	0
3106532	WORD	wordpools/wasnorm_wordpool_576.txt	LTP393	ltpFR2	11	16	CAPTIVE	240	n/a	n/a	0	0	0
3109331	WORD	wordpools/wasnorm_wordpool_576.txt	LTP393	ltpFR2	11	16	GRAPE	654	n/a	n/a	0	0	0
3111932	WORD	wordpools/wasnorm_wordpool_576.txt	LTP393	ltpFR2	11	16	JUNGLE	764	n/a	n/a	0	0	0
3114599	WORD	wordpools/wasnorm_wordpool_576.txt	LTP393	ltpFR2	11	16	HERO	706	n/a	n/a	0	0	0
3117265	WORD	wordpools/wasnorm_wordpool_576.txt	LTP393	ltpFR2	11	16	FOREHEAD	592	n/a	n/a	0	0	0
3119882	WORD	wordpools/wasnorm_wordpool_576.txt	LTP393	ltpFR2	11	16	MACHINE	852	n/a	n/a	0	0	0
3121499	START	n/a	LTP393	ltpFR2	11	n/a	n/a	n/a	23	n/a	n/a	n/a	n/a
3122532	DISTRACTOR	n/a	LTP393	ltpFR2	11	16	n/a	n/a	n/a	n/a	0	0	0
3122549	PROB	n/a	LTP393	ltpFR2	11	n/a	n/a	n/a	23	3	1	1	1
3124398	PROB	n/a	LTP393	ltpFR2	11	n/a	n/a	n/a	23	17	6	3	8
3126965	PROB	n/a	LTP393	ltpFR2	11	n/a	n/a	n/a	23	1	7	1	7
3128348	PROB	n/a	LTP393	ltpFR2	11	n/a	n/a	n/a	23	19	7	9	3
3132782	PROB	n/a	LTP393	ltpFR2	11	n/a	n/a	n/a	23	6	4	1	2
3134314	PROB	n/a	LTP393	ltpFR2	11	n/a	n/a	n/a	23	26	9	9	8
3138364	PROB	n/a	LTP393	ltpFR2	11	n/a	n/a	n/a	23	20	9	2	9
3140015	PROB	n/a	LTP393	ltpFR2	11	n/a	n/a	n/a	23	9	4	1	4
3141665	PROB	n/a	LTP393	ltpFR2	11	n/a	n/a	n/a	23	11	4	1	7
3144245	STOP	n/a	LTP393	ltpFR2	11	n/a	n/a	n/a	23	n/a	n/a	n/a	n/a
3147398	REC_START	n/a	LTP393	ltpFR2	11	16	n/a	n/a	n/a	n/a	0	0	0
3148027	REC_WORD	wordpools/wasnorm_wordpool_576.txt	LTP393	ltpFR2	11	16	MACHINE	852	n/a	n/a	0	0	0
3149667	REC_WORD	wordpools/wasnorm_wordpool_576.txt	LTP393	ltpFR2	11	16	FOREHEAD	592	n/a	n/a	0	0	0
3223930	REST_REWET	n/a	LTP393	ltpFR2	11	16	n/a	n/a	n/a	n/a	0	0	0
3696222	WORD	wordpools/wasnorm_wordpool_576.txt	LTP393	ltpFR2	11	17	PEANUT	1032	n/a	n/a	0	0	0
3698739	WORD	wordpools/wasnorm_wordpool_576.txt	LTP393	ltpFR2	11	17	RACKET	1155	n/a	n/a	0	0	0
3701238	WORD	wordpools/wasnorm_wordpool_576.txt	LTP393	ltpFR2	11	17	FRIAR	605	n/a	n/a	0	0	0
3703656	WORD	wordpools/wasnorm_wordpool_576.txt	LTP393	ltpFR2	11	17	CURTAIN	427	n/a	n/a	0	0	0
3706122	WORD	wordpools/wasnorm_wordpool_576.txt	LTP393	ltpFR2	11	17	OYSTER	995	n/a	n/a	0	0	0
3708706	WORD	wordpools/wasnorm_wordpool_576.txt	LTP393	ltpFR2	11	17	DONOR	485	n/a	n/a	0	0	0
3711438	WORD	wordpools/wasnorm_wordpool_576.txt	LTP393	ltpFR2	11	17	AUTHOR	61	n/a	n/a	0	0	0
3714088	WORD	wordpools/wasnorm_wordpool_576.txt	LTP393	ltpFR2	11	17	HANDBAG	684	n/a	n/a	0	0	0
3716606	WORD	wordpools/wasnorm_wordpool_576.txt	LTP393	ltpFR2	11	17	DOLPHIN	483	n/a	n/a	0	0	0
3719205	WORD	wordpools/wasnorm_wordpool_576.txt	LTP393	ltpFR2	11	17	CASHEW	253	n/a	n/a	0	0	0
3721639	WORD	wordpools/wasnorm_wordpool_576.txt	LTP393	ltpFR2	11	17	BATHTUB	100	n/a	n/a	0	0	0
3724238	WORD	wordpools/wasnorm_wordpool_576.txt	LTP393	ltpFR2	11	17	SPONGE	1355	n/a	n/a	0	0	0
3726739	WORD	wordpools/wasnorm_wordpool_576.txt	LTP393	ltpFR2	11	17	HEADBAND	696	n/a	n/a	0	0	0
3729305	WORD	wordpools/wasnorm_wordpool_576.txt	LTP393	ltpFR2	11	17	BIKE	125	n/a	n/a	0	0	0
3731839	WORD	wordpools/wasnorm_wordpool_576.txt	LTP393	ltpFR2	11	17	DRESS	495	n/a	n/a	0	0	0
3734589	WORD	wordpools/wasnorm_wordpool_576.txt	LTP393	ltpFR2	11	17	FIREPLACE	570	n/a	n/a	0	0	0
3737138	WORD	wordpools/wasnorm_wordpool_576.txt	LTP393	ltpFR2	11	17	BRANDY	169	n/a	n/a	0	0	0
3739655	WORD	wordpools/wasnorm_wordpool_576.txt	LTP393	ltpFR2	11	17	CHEMIST	292	n/a	n/a	0	0	0
3742354	WORD	wordpools/wasnorm_wordpool_576.txt	LTP393	ltpFR2	11	17	SLOPE	1328	n/a	n/a	0	0	0
3745154	WORD	wordpools/wasnorm_wordpool_576.txt	LTP393	ltpFR2	11	17	SODA	1341	n/a	n/a	0	0	0
3747672	WORD	wordpools/wasnorm_wordpool_576.txt	LTP393	ltpFR2	11	17	DENIM	446	n/a	n/a	0	0	0
3750304	WORD	wordpools/wasnorm_wordpool_576.txt	LTP393	ltpFR2	11	17	PLAID	1080	n/a	n/a	0	0	0
3752855	WORD	wordpools/wasnorm_wordpool_576.txt	LTP393	ltpFR2	11	17	CLOTHES	327	n/a	n/a	0	0	0
3755454	WORD	wordpools/wasnorm_wordpool_576.txt	LTP393	ltpFR2	11	17	TART	1436	n/a	n/a	0	0	0
3757071	START	n/a	LTP393	ltpFR2	11	n/a	n/a	n/a	24	n/a	n/a	n/a	n/a
3758111	DISTRACTOR	n/a	LTP393	ltpFR2	11	17	n/a	n/a	n/a	n/a	0	0	0
3758121	PROB	n/a	LTP393	ltpFR2	11	n/a	n/a	n/a	24	16	7	8	1
3761287	PROB	n/a	LTP393	ltpFR2	11	n/a	n/a	n/a	24	16	6	6	4
3762938	PROB	n/a	LTP393	ltpFR2	11	n/a	n/a	n/a	24	8	2	4	2
3764555	PROB	n/a	LTP393	ltpFR2	11	n/a	n/a	n/a	24	12	7	1	4
3768638	PROB	n/a	LTP393	ltpFR2	11	n/a	n/a	n/a	24	19	8	5	6
3770955	PROB	n/a	LTP393	ltpFR2	11	n/a	n/a	n/a	24	19	8	4	7
3773137	PROB	n/a	LTP393	ltpFR2	11	n/a	n/a	n/a	24	16	2	9	5
3774855	PROB	n/a	LTP393	ltpFR2	11	n/a	n/a	n/a	24	19	2	9	8
3781071	STOP	n/a	LTP393	ltpFR2	11	n/a	n/a	n/a	24	n/a	n/a	n/a	n/a
3782922	REC_START	n/a	LTP393	ltpFR2	11	17	n/a	n/a	n/a	n/a	0	0	0
3783889	REC_WORD	wordpools/wasnorm_wordpool_576.txt	LTP393	ltpFR2	11	17	FRIAR	605	n/a	n/a	0	0	0
3792402	REC_WORD	wordpools/wasnorm_wordpool_576.txt	LTP393	ltpFR2	11	17	OYSTER	995	n/a	n/a	0	0	0
3795354	REC_WORD	wordpools/wasnorm_wordpool_576.txt	LTP393	ltpFR2	11	17	CLAM	315	n/a	n/a	0	0	0
3873369	WORD	wordpools/wasnorm_wordpool_576.txt	LTP393	ltpFR2	11	18	MATCH	878	n/a	n/a	0	0	0
3876003	WORD	wordpools/wasnorm_wordpool_576.txt	LTP393	ltpFR2	11	18	MARKET	871	n/a	n/a	0	0	0
3878820	WORD	wordpools/wasnorm_wordpool_576.txt	LTP393	ltpFR2	11	18	BARREL	91	n/a	n/a	0	0	0
3881620	WORD	wordpools/wasnorm_wordpool_576.txt	LTP393	ltpFR2	11	18	GLOBE	641	n/a	n/a	0	0	0
3884069	WORD	wordpools/wasnorm_wordpool_576.txt	LTP393	ltpFR2	11	18	MAMMAL	861	n/a	n/a	0	0	0
3886536	WORD	wordpools/wasnorm_wordpool_576.txt	LTP393	ltpFR2	11	18	BOARD	143	n/a	n/a	0	0	0
3889185	WORD	wordpools/wasnorm_wordpool_576.txt	LTP393	ltpFR2	11	18	BLACKBOARD	133	n/a	n/a	0	0	0
3891870	WORD	wordpools/wasnorm_wordpool_576.txt	LTP393	ltpFR2	11	18	LUGGAGE	847	n/a	n/a	0	0	0
3894402	WORD	wordpools/wasnorm_wordpool_576.txt	LTP393	ltpFR2	11	18	BRIEFCASE	175	n/a	n/a	0	0	0
3897102	WORD	wordpools/wasnorm_wordpool_576.txt	LTP393	ltpFR2	11	18	POISON	1096	n/a	n/a	0	0	0
3899603	WORD	wordpools/wasnorm_wordpool_576.txt	LTP393	ltpFR2	11	18	SUNSET	1408	n/a	n/a	0	0	0
3902152	WORD	wordpools/wasnorm_wordpool_576.txt	LTP393	ltpFR2	11	18	DENTIST	447	n/a	n/a	0	0	0
3904953	WORD	wordpools/wasnorm_wordpool_576.txt	LTP393	ltpFR2	11	18	SHARK	1275	n/a	n/a	0	0	0
3907402	WORD	wordpools/wasnorm_wordpool_576.txt	LTP393	ltpFR2	11	18	DRUG	501	n/a	n/a	0	0	0
3910102	WORD	wordpools/wasnorm_wordpool_576.txt	LTP393	ltpFR2	11	18	CASKET	255	n/a	n/a	0	0	0
3912586	WORD	wordpools/wasnorm_wordpool_576.txt	LTP393	ltpFR2	11	18	TILE	1468	n/a	n/a	0	0	0
3915268	WORD	wordpools/wasnorm_wordpool_576.txt	LTP393	ltpFR2	11	18	MARKER	870	n/a	n/a	0	0	0
3917719	WORD	wordpools/wasnorm_wordpool_576.txt	LTP393	ltpFR2	11	18	ITEM	746	n/a	n/a	0	0	0
3920168	WORD	wordpools/wasnorm_wordpool_576.txt	LTP393	ltpFR2	11	18	CEILING	265	n/a	n/a	0	0	0
3922752	WORD	wordpools/wasnorm_wordpool_576.txt	LTP393	ltpFR2	11	18	SALMON	1227	n/a	n/a	0	0	0
3925385	WORD	wordpools/wasnorm_wordpool_576.txt	LTP393	ltpFR2	11	18	NEUTRON	947	n/a	n/a	0	0	0
3928085	WORD	wordpools/wasnorm_wordpool_576.txt	LTP393	ltpFR2	11	18	STUDENT	1395	n/a	n/a	0	0	0
3930652	WORD	wordpools/wasnorm_wordpool_576.txt	LTP393	ltpFR2	11	18	EMPIRE	530	n/a	n/a	0	0	0
3933085	WORD	wordpools/wasnorm_wordpool_576.txt	LTP393	ltpFR2	11	18	DRINK	498	n/a	n/a	0	0	0
3934702	START	n/a	LTP393	ltpFR2	11	n/a	n/a	n/a	25	n/a	n/a	n/a	n/a
3935889	DISTRACTOR	n/a	LTP393	ltpFR2	11	18	n/a	n/a	n/a	n/a	0	0	0
3935902	PROB	n/a	LTP393	ltpFR2	11	n/a	n/a	n/a	25	19	9	6	4
3943184	PROB	n/a	LTP393	ltpFR2	11	n/a	n/a	n/a	25	16	8	7	1
3944802	PROB	n/a	LTP393	ltpFR2	11	n/a	n/a	n/a	25	25	7	9	9
3947585	PROB	n/a	LTP393	ltpFR2	11	n/a	n/a	n/a	25	21	4	9	8
3950635	PROB	n/a	LTP393	ltpFR2	11	n/a	n/a	n/a	25	19	7	4	8
3952552	PROB	n/a	LTP393	ltpFR2	11	n/a	n/a	n/a	25	20	8	9	3
3954935	PROB	n/a	LTP393	ltpFR2	11	n/a	n/a	n/a	25	8	4	3	1
3958702	STOP	n/a	LTP393	ltpFR2	11	n/a	n/a	n/a	25	n/a	n/a	n/a	n/a
3960502	REC_START	n/a	LTP393	ltpFR2	11	18	n/a	n/a	n/a	n/a	0	0	0
3961518	REC_WORD	wordpools/wasnorm_wordpool_576.txt	LTP393	ltpFR2	11	18	MATCH	878	n/a	n/a	0	0	0
3963526	REC_WORD	wordpools/wasnorm_wordpool_576.txt	LTP393	ltpFR2	11	18	MARKET	871	n/a	n/a	0	0	0
3965815	REC_WORD	wordpools/wasnorm_wordpool_576.txt	LTP393	ltpFR2	11	18	MAMMAL	861	n/a	n/a	0	0	0
3971229	REC_WORD	wordpools/wasnorm_wordpool_576.txt	LTP393	ltpFR2	11	18	BOARD	143	n/a	n/a	0	0	0
3972960	REC_WORD	wordpools/wasnorm_wordpool_576.txt	LTP393	ltpFR2	11	18	BLACKBOARD	133	n/a	n/a	0	0	0
3975576	REC_WORD	wordpools/wasnorm_wordpool_576.txt	LTP393	ltpFR2	11	18	SALMON	1227	n/a	n/a	0	0	0
3978197	REC_WORD	wordpools/wasnorm_wordpool_576.txt	LTP393	ltpFR2	11	18	EMPIRE	530	n/a	n/a	0	0	0
4050950	DISTRACTOR	n/a	LTP393	ltpFR2	11	19	n/a	n/a	n/a	n/a	0	0	0
4050950	START	n/a	LTP393	ltpFR2	11	n/a	n/a	n/a	26	n/a	n/a	n/a	n/a
4074950	STOP	n/a	LTP393	ltpFR2	11	n/a	n/a	n/a	26	n/a	n/a	n/a	n/a
4076149	WORD	wordpools/wasnorm_wordpool_576.txt	LTP393	ltpFR2	11	19	PAIL	1002	n/a	n/a	0	0	0
4078933	WORD	wordpools/wasnorm_wordpool_576.txt	LTP393	ltpFR2	11	19	BURGLAR	200	n/a	n/a	0	0	0
4081566	WORD	wordpools/wasnorm_wordpool_576.txt	LTP393	ltpFR2	11	19	LADY	794	n/a	n/a	0	0	0
4084332	WORD	wordpools/wasnorm_wordpool_576.txt	LTP393	ltpFR2	11	19	VALVE	1546	n/a	n/a	0	0	0
4086950	WORD	wordpools/wasnorm_wordpool_576.txt	LTP393	ltpFR2	11	19	DRESSER	496	n/a	n/a	0	0	0
4089766	WORD	wordpools/wasnorm_wordpool_576.txt	LTP393	ltpFR2	11	19	PLUTO	1092	n/a	n/a	0	0	0
4092533	WORD	wordpools/wasnorm_wordpool_576.txt	LTP393	ltpFR2	11	19	SPACE	1345	n/a	n/a	0	0	0
4095132	WORD	wordpools/wasnorm_wordpool_576.txt	LTP393	ltpFR2	11	19	PUPIL	1143	n/a	n/a	0	0	0
4097833	WORD	wordpools/wasnorm_wordpool_576.txt	LTP393	ltpFR2	11	19	PUDDING	1139	n/a	n/a	0	0	0
4100482	WORD	wordpools/wasnorm_wordpool_576.txt	LTP393	ltpFR2	11	19	SADDLE	1221	n/a	n/a	0	0	0
4102983	WORD	wordpools/wasnorm_wordpool_576.txt	LTP393	ltpFR2	11	19	BACON	67	n/a	n/a	0	0	0
4105766	WORD	wordpools/wasnorm_wordpool_576.txt	LTP393	ltpFR2	11	19	RECEIPT	1173	n/a	n/a	0	0	0
4108282	WORD	wordpools/wasnorm_wordpool_576.txt	LTP393	ltpFR2	11	19	SHELF	1280	n/a	n/a	0	0	0
4110866	WORD	wordpools/wasnorm_wordpool_576.txt	LTP393	ltpFR2	11	19	NOVEL	960	n/a	n/a	0	0	0
4113348	WORD	wordpools/wasnorm_wordpool_576.txt	LTP393	ltpFR2	11	19	VICTIM	1562	n/a	n/a	0	0	0
4116081	WORD	wordpools/wasnorm_wordpool_576.txt	LTP393	ltpFR2	11	19	FRIEND	606	n/a	n/a	0	0	0
4118516	WORD	wordpools/wasnorm_wordpool_576.txt	LTP393	ltpFR2	11	19	VELVET	1555	n/a	n/a	0	0	0
4121048	WORD	wordpools/wasnorm_wordpool_576.txt	LTP393	ltpFR2	11	19	BULLET	194	n/a	n/a	0	0	0
4123532	WORD	wordpools/wasnorm_wordpool_576.txt	LTP393	ltpFR2	11	19	STAPLE	1371	n/a	n/a	0	0	0
4126315	WORD	wordpools/wasnorm_wordpool_576.txt	LTP393	ltpFR2	11	19	PACKAGE	997	n/a	n/a	0	0	0
4129081	WORD	wordpools/wasnorm_wordpool_576.txt	LTP393	ltpFR2	11	19	DIME	466	n/a	n/a	0	0	0
4131532	WORD	wordpools/wasnorm_wordpool_576.txt	LTP393	ltpFR2	11	19	FLESH	579	n/a	n/a	0	0	0
4134165	WORD	wordpools/wasnorm_wordpool_576.txt	LTP393	ltpFR2	11	19	IGLOO	734	n/a	n/a	0	0	0
4136916	WORD	wordpools/wasnorm_wordpool_576.txt	LTP393	ltpFR2	11	19	GAZELLE	628	n/a	n/a	0	0	0
4138532	START	n/a	LTP393	ltpFR2	11	n/a	n/a	n/a	27	n/a	n/a	n/a	n/a
4139454	DISTRACTOR	n/a	LTP393	ltpFR2	11	19	n/a	n/a	n/a	n/a	0	0	0
4139464	PROB	n/a	LTP393	ltpFR2	11	n/a	n/a	n/a	27	19	8	3	8
4158632	PROB	n/a	LTP393	ltpFR2	11	n/a	n/a	n/a	27	20	8	6	6
4162532	STOP	n/a	LTP393	ltpFR2	11	n/a	n/a	n/a	27	n/a	n/a	n/a	n/a
4164364	REC_START	n/a	LTP393	ltpFR2	11	19	n/a	n/a	n/a	n/a	0	0	0
4165318	REC_WORD	wordpools/wasnorm_wordpool_576.txt	LTP393	ltpFR2	11	19	IGLOO	734	n/a	n/a	0	0	0
4170730	REC_WORD	wordpools/wasnorm_wordpool_576.txt	LTP393	ltpFR2	11	19	BURGLAR	200	n/a	n/a	0	0	0
4193808	REC_WORD	wordpools/wasnorm_wordpool_576.txt	LTP393	ltpFR2	11	19	VAT	-1	n/a	n/a	0	0	0
4204139	REC_WORD	wordpools/wasnorm_wordpool_576.txt	LTP393	ltpFR2	11	19	PLUTO	1092	n/a	n/a	0	0	0
4205858	REC_WORD	wordpools/wasnorm_wordpool_576.txt	LTP393	ltpFR2	11	19	PUPIL	1143	n/a	n/a	0	0	0
4207881	REC_WORD	wordpools/wasnorm_wordpool_576.txt	LTP393	ltpFR2	11	19	SPACE	1345	n/a	n/a	0	0	0
4254814	DISTRACTOR	n/a	LTP393	ltpFR2	11	20	n/a	n/a	n/a	n/a	0	0	0
4254814	START	n/a	LTP393	ltpFR2	11	n/a	n/a	n/a	28	n/a	n/a	n/a	n/a
4254830	PROB	n/a	LTP393	ltpFR2	11	n/a	n/a	n/a	28	15	2	6	7
4257630	PROB	n/a	LTP393	ltpFR2	11	n/a	n/a	n/a	28	15	9	4	2
4259479	PROB	n/a	LTP393	ltpFR2	11	n/a	n/a	n/a	28	9	6	2	1
4261246	PROB	n/a	LTP393	ltpFR2	11	n/a	n/a	n/a	28	16	2	8	6
4262597	PROB	n/a	LTP393	ltpFR2	11	n/a	n/a	n/a	28	7	3	2	2
4264279	PROB	n/a	LTP393	ltpFR2	11	n/a	n/a	n/a	28	19	3	7	9
4266296	PROB	n/a	LTP393	ltpFR2	11	n/a	n/a	n/a	28	11	2	2	7
4269079	PROB	n/a	LTP393	ltpFR2	11	n/a	n/a	n/a	28	18	7	7	4
4270813	PROB	n/a	LTP393	ltpFR2	11	n/a	n/a	n/a	28	12	4	5	3
4274513	PROB	n/a	LTP393	ltpFR2	11	n/a	n/a	n/a	28	12	4	6	2
4276162	PROB	n/a	LTP393	ltpFR2	11	n/a	n/a	n/a	28	15	8	1	6
4277728	STOP	n/a	LTP393	ltpFR2	11	n/a	n/a	n/a	28	n/a	n/a	n/a	n/a
4279980	WORD	wordpools/wasnorm_wordpool_576.txt	LTP393	ltpFR2	11	20	PARROT	1015	n/a	n/a	0	0	0
4282680	WORD	wordpools/wasnorm_wordpool_576.txt	LTP393	ltpFR2	11	20	SERVANT	1271	n/a	n/a	0	0	0
4285145	WORD	wordpools/wasnorm_wordpool_576.txt	LTP393	ltpFR2	11	20	JEANS	752	n/a	n/a	0	0	0
4287613	WORD	wordpools/wasnorm_wordpool_576.txt	LTP393	ltpFR2	11	20	COOKBOOK	373	n/a	n/a	0	0	0
4290329	WORD	wordpools/wasnorm_wordpool_576.txt	LTP393	ltpFR2	11	20	PLATE	1086	n/a	n/a	0	0	0
4292980	WORD	wordpools/wasnorm_wordpool_576.txt	LTP393	ltpFR2	11	20	PANTHER	1009	n/a	n/a	0	0	0
4295663	WORD	wordpools/wasnorm_wordpool_576.txt	LTP393	ltpFR2	11	20	BALLOON	75	n/a	n/a	0	0	0
4298329	WORD	wordpools/wasnorm_wordpool_576.txt	LTP393	ltpFR2	11	20	OZONE	996	n/a	n/a	0	0	0
4300796	WORD	wordpools/wasnorm_wordpool_576.txt	LTP393	ltpFR2	11	20	CONVICT	371	n/a	n/a	0	0	0
4303412	WORD	wordpools/wasnorm_wordpool_576.txt	LTP393	ltpFR2	11	20	LAMP	798	n/a	n/a	0	0	0
4305929	WORD	wordpools/wasnorm_wordpool_576.txt	LTP393	ltpFR2	11	20	TOMBSTONE	1478	n/a	n/a	0	0	0
4308646	WORD	wordpools/wasnorm_wordpool_576.txt	LTP393	ltpFR2	11	20	CITRUS	313	n/a	n/a	0	0	0
4311162	WORD	wordpools/wasnorm_wordpool_576.txt	LTP393	ltpFR2	11	20	CELLAR	267	n/a	n/a	0	0	0
4313713	WORD	wordpools/wasnorm_wordpool_576.txt	LTP393	ltpFR2	11	20	GLOVE	642	n/a	n/a	0	0	0
4316445	WORD	wordpools/wasnorm_wordpool_576.txt	LTP393	ltpFR2	11	20	PISTON	1076	n/a	n/a	0	0	0
4318879	WORD	wordpools/wasnorm_wordpool_576.txt	LTP393	ltpFR2	11	20	APRON	35	n/a	n/a	0	0	0
4321428	WORD	wordpools/wasnorm_wordpool_576.txt	LTP393	ltpFR2	11	20	SILK	1307	n/a	n/a	0	0	0
4324029	WORD	wordpools/wasnorm_wordpool_576.txt	LTP393	ltpFR2	11	20	PUPPY	1144	n/a	n/a	0	0	0
4326679	WORD	wordpools/wasnorm_wordpool_576.txt	LTP393	ltpFR2	11	20	ROBIN	1199	n/a	n/a	0	0	0
4329361	WORD	wordpools/wasnorm_wordpool_576.txt	LTP393	ltpFR2	11	20	WAITER	1580	n/a	n/a	0	0	0
4331779	WORD	wordpools/wasnorm_wordpool_576.txt	LTP393	ltpFR2	11	20	EAGLE	512	n/a	n/a	0	0	0
4334345	WORD	wordpools/wasnorm_wordpool_576.txt	LTP393	ltpFR2	11	20	COURSE	390	n/a	n/a	0	0	0
4336896	WORD	wordpools/wasnorm_wordpool_576.txt	LTP393	ltpFR2	11	20	SIDEWALK	1303	n/a	n/a	0	0	0
4339345	WORD	wordpools/wasnorm_wordpool_576.txt	LTP393	ltpFR2	11	20	SHERIFF	1284	n/a	n/a	0	0	0
4340962	START	n/a	LTP393	ltpFR2	11	n/a	n/a	n/a	29	n/a	n/a	n/a	n/a
4341796	DISTRACTOR	n/a	LTP393	ltpFR2	11	20	n/a	n/a	n/a	n/a	0	0	0
4341812	PROB	n/a	LTP393	ltpFR2	11	n/a	n/a	n/a	29	18	8	1	9
4344444	PROB	n/a	LTP393	ltpFR2	11	n/a	n/a	n/a	29	18	1	9	8
4345695	PROB	n/a	LTP393	ltpFR2	11	n/a	n/a	n/a	29	10	3	6	1
4347178	PROB	n/a	LTP393	ltpFR2	11	n/a	n/a	n/a	29	11	2	8	1
4348745	PROB	n/a	LTP393	ltpFR2	11	n/a	n/a	n/a	29	22	9	6	7
4351211	PROB	n/a	LTP393	ltpFR2	11	n/a	n/a	n/a	29	13	7	1	5
4353278	PROB	n/a	LTP393	ltpFR2	11	n/a	n/a	n/a	29	20	7	4	9
4355545	PROB	n/a	LTP393	ltpFR2	11	n/a	n/a	n/a	29	23	8	9	6
4357529	PROB	n/a	LTP393	ltpFR2	11	n/a	n/a	n/a	29	10	4	3	3
4359629	PROB	n/a	LTP393	ltpFR2	11	n/a	n/a	n/a	29	17	5	8	4
4362962	PROB	n/a	LTP393	ltpFR2	11	n/a	n/a	n/a	29	6	4	1	1
4364177	STOP	n/a	LTP393	ltpFR2	11	n/a	n/a	n/a	29	n/a	n/a	n/a	n/a
4366729	REC_START	n/a	LTP393	ltpFR2	11	20	n/a	n/a	n/a	n/a	0	0	0
4369197	REC_WORD	wordpools/wasnorm_wordpool_576.txt	LTP393	ltpFR2	11	20	SHERIFF	1284	n/a	n/a	0	0	0
4380891	REC_WORD	wordpools/wasnorm_wordpool_576.txt	LTP393	ltpFR2	11	20	SIDEWALK	1303	n/a	n/a	0	0	0
4391287	REC_WORD	wordpools/wasnorm_wordpool_576.txt	LTP393	ltpFR2	11	20	BALLOON	75	n/a	n/a	0	0	0
4408086	REC_WORD	wordpools/wasnorm_wordpool_576.txt	LTP393	ltpFR2	11	20	EAGLE	512	n/a	n/a	0	0	0
4412206	REC_WORD	wordpools/wasnorm_wordpool_576.txt	LTP393	ltpFR2	11	20	SILK	1307	n/a	n/a	0	0	0
4417116	REC_WORD	wordpools/wasnorm_wordpool_576.txt	LTP393	ltpFR2	11	20	WRENCH	1625	n/a	n/a	0	0	0
4420489	REC_WORD	wordpools/wasnorm_wordpool_576.txt	LTP393	ltpFR2	11	20	APRON	35	n/a	n/a	0	0	0
4457176	WORD	wordpools/wasnorm_wordpool_576.txt	LTP393	ltpFR2	11	21	PICTURE	1061	n/a	n/a	0	0	0
4459694	WORD	wordpools/wasnorm_wordpool_576.txt	LTP393	ltpFR2	11	21	STATUE	1374	n/a	n/a	0	0	0
4462443	WORD	wordpools/wasnorm_wordpool_576.txt	LTP393	ltpFR2	11	21	MOP	916	n/a	n/a	0	0	0
4464927	WORD	wordpools/wasnorm_wordpool_576.txt	LTP393	ltpFR2	11	21	GROUND	666	n/a	n/a	0	0	0
4467392	WORD	wordpools/wasnorm_wordpool_576.txt	LTP393	ltpFR2	11	21	GYMNAST	675	n/a	n/a	0	0	0
4470092	WORD	wordpools/wasnorm_wordpool_576.txt	LTP393	ltpFR2	11	21	JUGGLER	763	n/a	n/a	0	0	0
4472610	WORD	wordpools/wasnorm_wordpool_576.txt	LTP393	ltpFR2	11	21	GANGSTER	620	n/a	n/a	0	0	0
4475409	WORD	wordpools/wasnorm_wordpool_576.txt	LTP393	ltpFR2	11	21	BLENDER	136	n/a	n/a	0	0	0
4477977	WORD	wordpools/wasnorm_wordpool_576.txt	LTP393	ltpFR2	11	21	MARS	873	n/a	n/a	0	0	0
4480627	WORD	wordpools/wasnorm_wordpool_576.txt	LTP393	ltpFR2	11	21	MILDEW	893	n/a	n/a	0	0	0
4483342	WORD	wordpools/wasnorm_wordpool_576.txt	LTP393	ltpFR2	11	21	PISTOL	1075	n/a	n/a	0	0	0
4485776	WORD	wordpools/wasnorm_wordpool_576.txt	LTP393	ltpFR2	11	21	JELLY	755	n/a	n/a	0	0	0
4488225	WORD	wordpools/wasnorm_wordpool_576.txt	LTP393	ltpFR2	11	21	WHISKERS	1605	n/a	n/a	0	0	0
4490660	WORD	wordpools/wasnorm_wordpool_576.txt	LTP393	ltpFR2	11	21	HOUND	724	n/a	n/a	0	0	0
4493275	WORD	wordpools/wasnorm_wordpool_576.txt	LTP393	ltpFR2	11	21	PENGUIN	1044	n/a	n/a	0	0	0
4495743	WORD	wordpools/wasnorm_wordpool_576.txt	LTP393	ltpFR2	11	21	AWARD	63	n/a	n/a	0	0	0
4498192	WORD	wordpools/wasnorm_wordpool_576.txt	LTP393	ltpFR2	11	21	STONE	1385	n/a	n/a	0	0	0
4500843	WORD	wordpools/wasnorm_wordpool_576.txt	LTP393	ltpFR2	11	21	WORLD	1622	n/a	n/a	0	0	0
4503643	WORD	wordpools/wasnorm_wordpool_576.txt	LTP393	ltpFR2	11	21	DRAWING	494	n/a	n/a	0	0	0
4506208	WORD	wordpools/wasnorm_wordpool_576.txt	LTP393	ltpFR2	11	21	KITCHEN	778	n/a	n/a	0	0	0
4508909	WORD	wordpools/wasnorm_wordpool_576.txt	LTP393	ltpFR2	11	21	CUPBOARD	425	n/a	n/a	0	0	0
4511358	WORD	wordpools/wasnorm_wordpool_576.txt	LTP393	ltpFR2	11	21	HARP	689	n/a	n/a	0	0	0
4514075	WORD	wordpools/wasnorm_wordpool_576.txt	LTP393	ltpFR2	11	21	RIFLE	1192	n/a	n/a	0	0	0
4516693	WORD	wordpools/wasnorm_wordpool_576.txt	LTP393	ltpFR2	11	21	EYELASH	546	n/a	n/a	0	0	0
4518308	START	n/a	LTP393	ltpFR2	11	n/a	n/a	n/a	30	n/a	n/a	n/a	n/a
4519211	DISTRACTOR	n/a	LTP393	ltpFR2	11	21	n/a	n/a	n/a	n/a	0	0	0
4519225	PROB	n/a	LTP393	ltpFR2	11	n/a	n/a	n/a	30	20	4	9	7
4523108	PROB	n/a	LTP393	ltpFR2	11	n/a	n/a	n/a	30	20	8	6	6
4525009	PROB	n/a	LTP393	ltpFR2	11	n/a	n/a	n/a	30	10	2	7	1
4527391	PROB	n/a	LTP393	ltpFR2	11	n/a	n/a	n/a	30	22	8	5	9
4529676	PROB	n/a	LTP393	ltpFR2	11	n/a	n/a	n/a	30	9	2	3	4
4531976	PROB	n/a	LTP393	ltpFR2	11	n/a	n/a	n/a	30	22	6	9	7
4534976	PROB	n/a	LTP393	ltpFR2	11	n/a	n/a	n/a	30	20	6	6	8
4536692	PROB	n/a	LTP393	ltpFR2	11	n/a	n/a	n/a	30	15	4	9	2
4538776	PROB	n/a	LTP393	ltpFR2	11	n/a	n/a	n/a	30	13	1	5	7
4541999	STOP	n/a	LTP393	ltpFR2	11	n/a	n/a	n/a	30	n/a	n/a	n/a	n/a
4544242	REC_START	n/a	LTP393	ltpFR2	11	21	n/a	n/a	n/a	n/a	0	0	0
4545120	REC_WORD_VV	wordpools/wasnorm_wordpool_576.txt	LTP393	ltpFR2	11	21	<>	-1	n/a	n/a	0	0	0
4634657	DISTRACTOR	n/a	LTP393	ltpFR2	11	22	n/a	n/a	n/a	n/a	0	0	0
4634657	START	n/a	LTP393	ltpFR2	11	n/a	n/a	n/a	31	n/a	n/a	n/a	n/a
4634674	PROB	n/a	LTP393	ltpFR2	11	n/a	n/a	n/a	31	10	1	7	2
4636924	PROB	n/a	LTP393	ltpFR2	11	n/a	n/a	n/a	31	15	7	2	6
4639073	PROB	n/a	LTP393	ltpFR2	11	n/a	n/a	n/a	31	2	7	6	8
4641056	PROB	n/a	LTP393	ltpFR2	11	n/a	n/a	n/a	31	18	3	6	9
4643073	PROB	n/a	LTP393	ltpFR2	11	n/a	n/a	n/a	31	6	2	2	2
4644239	PROB	n/a	LTP393	ltpFR2	11	n/a	n/a	n/a	31	9	1	6	2
4646206	PROB	n/a	LTP393	ltpFR2	11	n/a	n/a	n/a	31	6	1	3	2
4650073	PROB	n/a	LTP393	ltpFR2	11	n/a	n/a	n/a	31	15	3	5	7
4651840	PROB	n/a	LTP393	ltpFR2	11	n/a	n/a	n/a	31	10	1	8	1
4653389	PROB	n/a	LTP393	ltpFR2	11	n/a	n/a	n/a	31	15	7	2	6
4655406	PROB	n/a	LTP393	ltpFR2	11	n/a	n/a	n/a	31	18	4	6	8
4656874	PROB	n/a	LTP393	ltpFR2	11	n/a	n/a	n/a	31	15	4	6	5
4658547	STOP	n/a	LTP393	ltpFR2	11	n/a	n/a	n/a	31	n/a	n/a	n/a	n/a
4659874	WORD	wordpools/wasnorm_wordpool_576.txt	LTP393	ltpFR2	11	22	PIANO	1057	n/a	n/a	0	0	0
4662373	WORD	wordpools/wasnorm_wordpool_576.txt	LTP393	ltpFR2	11	22	DRIVER	499	n/a	n/a	0	0	0
4665072	WORD	wordpools/wasnorm_wordpool_576.txt	LTP393	ltpFR2	11	22	MOTOR	922	n/a	n/a	0	0	0
4667707	WORD	wordpools/wasnorm_wordpool_576.txt	LTP393	ltpFR2	11	22	FLIPPER	580	n/a	n/a	0	0	0
4670156	WORD	wordpools/wasnorm_wordpool_576.txt	LTP393	ltpFR2	11	22	VIRUS	1572	n/a	n/a	0	0	0
4672890	WORD	wordpools/wasnorm_wordpool_576.txt	LTP393	ltpFR2	11	22	WITNESS	1618	n/a	n/a	0	0	0
4675557	WORD	wordpools/wasnorm_wordpool_576.txt	LTP393	ltpFR2	11	22	TUTU	1524	n/a	n/a	0	0	0
4678072	WORD	wordpools/wasnorm_wordpool_576.txt	LTP393	ltpFR2	11	22	OINTMENT	974	n/a	n/a	0	0	0
4680757	WORD	wordpools/wasnorm_wordpool_576.txt	LTP393	ltpFR2	11	22	STAKE	1368	n/a	n/a	0	0	0
4683439	WORD	wordpools/wasnorm_wordpool_576.txt	LTP393	ltpFR2	11	22	DORM	488	n/a	n/a	0	0	0
4686122	WORD	wordpools/wasnorm_wordpool_576.txt	LTP393	ltpFR2	11	22	JUDGE	761	n/a	n/a	0	0	0
4688690	WORD	wordpools/wasnorm_wordpool_576.txt	LTP393	ltpFR2	11	22	MONSTER	912	n/a	n/a	0	0	0
4691389	WORD	wordpools/wasnorm_wordpool_576.txt	LTP393	ltpFR2	11	22	BUBBLE	183	n/a	n/a	0	0	0
4694205	WORD	wordpools/wasnorm_wordpool_576.txt	LTP393	ltpFR2	11	22	XEROX	1628	n/a	n/a	0	0	0
4696973	WORD	wordpools/wasnorm_wordpool_576.txt	LTP393	ltpFR2	11	22	SUITCASE	1403	n/a	n/a	0	0	0
4699573	WORD	wordpools/wasnorm_wordpool_576.txt	LTP393	ltpFR2	11	22	OUTFIT	988	n/a	n/a	0	0	0
4702039	WORD	wordpools/wasnorm_wordpool_576.txt	LTP393	ltpFR2	11	22	ARM	38	n/a	n/a	0	0	0
4704789	WORD	wordpools/wasnorm_wordpool_576.txt	LTP393	ltpFR2	11	22	ANKLE	24	n/a	n/a	0	0	0
4707338	WORD	wordpools/wasnorm_wordpool_576.txt	LTP393	ltpFR2	11	22	PAPER	1011	n/a	n/a	0	0	0
4709906	WORD	wordpools/wasnorm_wordpool_576.txt	LTP393	ltpFR2	11	22	EGYPT	519	n/a	n/a	0	0	0
4712589	WORD	wordpools/wasnorm_wordpool_576.txt	LTP393	ltpFR2	11	22	WORKER	1621	n/a	n/a	0	0	0
4715055	WORD	wordpools/wasnorm_wordpool_576.txt	LTP393	ltpFR2	11	22	FEMALE	559	n/a	n/a	0	0	0
4717673	WORD	wordpools/wasnorm_wordpool_576.txt	LTP393	ltpFR2	11	22	FUNGUS	614	n/a	n/a	0	0	0
4720172	WORD	wordpools/wasnorm_wordpool_576.txt	LTP393	ltpFR2	11	22	CABIN	211	n/a	n/a	0	0	0
4721790	START	n/a	LTP393	ltpFR2	11	n/a	n/a	n/a	32	n/a	n/a	n/a	n/a
4722837	DISTRACTOR	n/a	LTP393	ltpFR2	11	22	n/a	n/a	n/a	n/a	0	0	0
4722839	PROB	n/a	LTP393	ltpFR2	11	n/a	n/a	n/a	32	20	9	5	6
4725672	PROB	n/a	LTP393	ltpFR2	11	n/a	n/a	n/a	32	15	8	5	2
4728288	PROB	n/a	LTP393	ltpFR2	11	n/a	n/a	n/a	32	23	9	6	8
4730939	PROB	n/a	LTP393	ltpFR2	11	n/a	n/a	n/a	32	29	4	8	7
4733121	PROB	n/a	LTP393	ltpFR2	11	n/a	n/a	n/a	32	14	5	1	8
4735138	PROB	n/a	LTP393	ltpFR2	11	n/a	n/a	n/a	32	25	9	8	8
4737038	PROB	n/a	LTP393	ltpFR2	11	n/a	n/a	n/a	32	21	8	4	9
4739589	PROB	n/a	LTP393	ltpFR2	11	n/a	n/a	n/a	32	22	7	9	6
4741956	PROB	n/a	LTP393	ltpFR2	11	n/a	n/a	n/a	32	17	7	7	3
4743972	PROB	n/a	LTP393	ltpFR2	11	n/a	n/a	n/a	32	15	2	6	6
4745637	STOP	n/a	LTP393	ltpFR2	11	n/a	n/a	n/a	32	n/a	n/a	n/a	n/a
4747673	REC_START	n/a	LTP393	ltpFR2	11	22	n/a	n/a	n/a	n/a	0	0	0
4749054	REC_WORD	wordpools/wasnorm_wordpool_576.txt	LTP393	ltpFR2	11	22	XEROX	1628	n/a	n/a	0	0	0
4750385	REC_WORD	wordpools/wasnorm_wordpool_576.txt	LTP393	ltpFR2	11	22	MOTOR	922	n/a	n/a	0	0	0
4752494	REC_WORD	wordpools/wasnorm_wordpool_576.txt	LTP393	ltpFR2	11	22	DRIVER	499	n/a	n/a	0	0	0
4755120	REC_WORD	wordpools/wasnorm_wordpool_576.txt	LTP393	ltpFR2	11	22	PIANO	1057	n/a	n/a	0	0	0
4767776	REC_WORD	wordpools/wasnorm_wordpool_576.txt	LTP393	ltpFR2	11	22	XEROX	1628	n/a	n/a	0	0	0
4838120	DISTRACTOR	n/a	LTP393	ltpFR2	11	23	n/a	n/a	n/a	n/a	0	0	0
4838120	START	n/a	LTP393	ltpFR2	11	n/a	n/a	n/a	33	n/a	n/a	n/a	n/a
4838136	PROB	n/a	LTP393	ltpFR2	11	n/a	n/a	n/a	33	13	6	6	1
4840403	PROB	n/a	LTP393	ltpFR2	11	n/a	n/a	n/a	33	12	2	3	7
4841871	PROB	n/a	LTP393	ltpFR2	11	n/a	n/a	n/a	33	16	6	3	7
4844053	PROB	n/a	LTP393	ltpFR2	11	n/a	n/a	n/a	33	12	6	1	5
4845937	PROB	n/a	LTP393	ltpFR2	11	n/a	n/a	n/a	33	8	5	1	2
4847604	PROB	n/a	LTP393	ltpFR2	11	n/a	n/a	n/a	33	16	4	8	4
4849470	PROB	n/a	LTP393	ltpFR2	11	n/a	n/a	n/a	33	12	5	4	3
4851870	PROB	n/a	LTP393	ltpFR2	11	n/a	n/a	n/a	33	19	8	3	8
4853920	PROB	n/a	LTP393	ltpFR2	11	n/a	n/a	n/a	33	11	3	5	3
4855787	PROB	n/a	LTP393	ltpFR2	11	n/a	n/a	n/a	33	17	5	5	7
4858136	PROB	n/a	LTP393	ltpFR2	11	n/a	n/a	n/a	33	15	4	8	3
4862120	STOP	n/a	LTP393	ltpFR2	11	n/a	n/a	n/a	33	n/a	n/a	n/a	n/a
4862970	WORD	wordpools/wasnorm_wordpool_576.txt	LTP393	ltpFR2	11	23	RUST	1219	n/a	n/a	0	0	0
4865537	WORD	wordpools/wasnorm_wordpool_576.txt	LTP393	ltpFR2	11	23	VAGRANT	1544	n/a	n/a	0	0	0
4868119	WORD	wordpools/wasnorm_wordpool_576.txt	LTP393	ltpFR2	11	23	APPLE	33	n/a	n/a	0	0	0
4870554	WORD	wordpools/wasnorm_wordpool_576.txt	LTP393	ltpFR2	11	23	LAGOON	795	n/a	n/a	0	0	0
4873369	WORD	wordpools/wasnorm_wordpool_576.txt	LTP393	ltpFR2	11	23	BUG	187	n/a	n/a	0	0	0
4876052	WORD	wordpools/wasnorm_wordpool_576.txt	LTP393	ltpFR2	11	23	WASP	1593	n/a	n/a	0	0	0
4878553	WORD	wordpools/wasnorm_wordpool_576.txt	LTP393	ltpFR2	11	23	PASTRY	1022	n/a	n/a	0	0	0
4881236	WORD	wordpools/wasnorm_wordpool_576.txt	LTP393	ltpFR2	11	23	SHORTCAKE	1292	n/a	n/a	0	0	0
4883837	WORD	wordpools/wasnorm_wordpool_576.txt	LTP393	ltpFR2	11	23	ORANGE	980	n/a	n/a	0	0	0
4886286	WORD	wordpools/wasnorm_wordpool_576.txt	LTP393	ltpFR2	11	23	PECAN	1036	n/a	n/a	0	0	0
4888753	WORD	wordpools/wasnorm_wordpool_576.txt	LTP393	ltpFR2	11	23	CHAUFFEUR	283	n/a	n/a	0	0	0
4891402	WORD	wordpools/wasnorm_wordpool_576.txt	LTP393	ltpFR2	11	23	MEDAL	885	n/a	n/a	0	0	0
4893903	WORD	wordpools/wasnorm_wordpool_576.txt	LTP393	ltpFR2	11	23	NECKLACE	940	n/a	n/a	0	0	0
4896536	WORD	wordpools/wasnorm_wordpool_576.txt	LTP393	ltpFR2	11	23	CANDY	230	n/a	n/a	0	0	0
4899252	WORD	wordpools/wasnorm_wordpool_576.txt	LTP393	ltpFR2	11	23	ATLAS	53	n/a	n/a	0	0	0
4901936	WORD	wordpools/wasnorm_wordpool_576.txt	LTP393	ltpFR2	11	23	COTTAGE	384	n/a	n/a	0	0	0
4904503	WORD	wordpools/wasnorm_wordpool_576.txt	LTP393	ltpFR2	11	23	PASSAGE	1019	n/a	n/a	0	0	0
4907202	WORD	wordpools/wasnorm_wordpool_576.txt	LTP393	ltpFR2	11	23	SCOTCH	1251	n/a	n/a	0	0	0
4909786	WORD	wordpools/wasnorm_wordpool_576.txt	LTP393	ltpFR2	11	23	TABLET	1427	n/a	n/a	0	0	0
4912536	WORD	wordpools/wasnorm_wordpool_576.txt	LTP393	ltpFR2	11	23	HUMAN	726	n/a	n/a	0	0	0
4915252	WORD	wordpools/wasnorm_wordpool_576.txt	LTP393	ltpFR2	11	23	BODY	145	n/a	n/a	0	0	0
4917703	WORD	wordpools/wasnorm_wordpool_576.txt	LTP393	ltpFR2	11	23	PRINCE	1124	n/a	n/a	0	0	0
4920335	WORD	wordpools/wasnorm_wordpool_576.txt	LTP393	ltpFR2	11	23	BANJO	82	n/a	n/a	0	0	0
4923019	WORD	wordpools/wasnorm_wordpool_576.txt	LTP393	ltpFR2	11	23	FIDDLE	561	n/a	n/a	0	0	0
4924636	START	n/a	LTP393	ltpFR2	11	n/a	n/a	n/a	34	n/a	n/a	n/a	n/a
4925807	DISTRACTOR	n/a	LTP393	ltpFR2	11	23	n/a	n/a	n/a	n/a	0	0	0
4925819	PROB	n/a	LTP393	ltpFR2	11	n/a	n/a	n/a	34	19	7	4	8
4929452	PROB	n/a	LTP393	ltpFR2	11	n/a	n/a	n/a	34	15	6	1	8
4933052	PROB	n/a	LTP393	ltpFR2	11	n/a	n/a	n/a	34	21	7	8	6
4934802	PROB	n/a	LTP393	ltpFR2	11	n/a	n/a	n/a	34	22	6	7	9
4940019	PROB	n/a	LTP393	ltpFR2	11	n/a	n/a	n/a	34	17	8	5	4
4942536	PROB	n/a	LTP393	ltpFR2	11	n/a	n/a	n/a	34	13	4	6	3
4944401	PROB	n/a	LTP393	ltpFR2	11	n/a	n/a	n/a	34	17	3	8	6
4948636	STOP	n/a	LTP393	ltpFR2	11	n/a	n/a	n/a	34	n/a	n/a	n/a	n/a
4950519	REC_START	n/a	LTP393	ltpFR2	11	23	n/a	n/a	n/a	n/a	0	0	0
4951111	REC_WORD	wordpools/wasnorm_wordpool_576.txt	LTP393	ltpFR2	11	23	FIDDLE	561	n/a	n/a	0	0	0
4958625	REC_WORD	wordpools/wasnorm_wordpool_576.txt	LTP393	ltpFR2	11	23	RUST	1219	n/a	n/a	0	0	0
4960681	REC_WORD	wordpools/wasnorm_wordpool_576.txt	LTP393	ltpFR2	11	23	LAGOON	795	n/a	n/a	0	0	0
5040967	DISTRACTOR	n/a	LTP393	ltpFR2	11	24	n/a	n/a	n/a	n/a	0	0	0
5040968	START	n/a	LTP393	ltpFR2	11	n/a	n/a	n/a	35	n/a	n/a	n/a	n/a
5040984	PROB	n/a	LTP393	ltpFR2	11	n/a	n/a	n/a	35	19	9	2	8
5044200	PROB	n/a	LTP393	ltpFR2	11	n/a	n/a	n/a	35	23	9	7	7
5046333	PROB	n/a	LTP393	ltpFR2	11	n/a	n/a	n/a	35	14	2	9	3
5048233	PROB	n/a	LTP393	ltpFR2	11	n/a	n/a	n/a	35	14	8	5	1
5049967	PROB	n/a	LTP393	ltpFR2	11	n/a	n/a	n/a	35	10	3	5	2
5053133	PROB	n/a	LTP393	ltpFR2	11	n/a	n/a	n/a	35	10	1	1	8
5054433	PROB	n/a	LTP393	ltpFR2	11	n/a	n/a	n/a	35	12	1	9	2
5055900	PROB	n/a	LTP393	ltpFR2	11	n/a	n/a	n/a	35	18	4	6	8
5057350	PROB	n/a	LTP393	ltpFR2	11	n/a	n/a	n/a	35	14	2	9	3
5058817	PROB	n/a	LTP393	ltpFR2	11	n/a	n/a	n/a	35	19	4	9	6
5061483	PROB	n/a	LTP393	ltpFR2	11	n/a	n/a	n/a	35	19	7	4	8
5063527	STOP	n/a	LTP393	ltpFR2	11	n/a	n/a	n/a	35	n/a	n/a	n/a	n/a
5066133	WORD	wordpools/wasnorm_wordpool_576.txt	LTP393	ltpFR2	11	24	PROTON	1132	n/a	n/a	0	0	0
5068917	WORD	wordpools/wasnorm_wordpool_576.txt	LTP393	ltpFR2	11	24	SPOOL	1356	n/a	n/a	0	0	0
5071617	WORD	wordpools/wasnorm_wordpool_576.txt	LTP393	ltpFR2	11	24	BACKBONE	66	n/a	n/a	0	0	0
5074232	WORD	wordpools/wasnorm_wordpool_576.txt	LTP393	ltpFR2	11	24	MARROW	872	n/a	n/a	0	0	0
5076717	WORD	wordpools/wasnorm_wordpool_576.txt	LTP393	ltpFR2	11	24	TURNIP	1521	n/a	n/a	0	0	0
5079216	WORD	wordpools/wasnorm_wordpool_576.txt	LTP393	ltpFR2	11	24	DAISY	435	n/a	n/a	0	0	0
5081833	WORD	wordpools/wasnorm_wordpool_576.txt	LTP393	ltpFR2	11	24	INMATE	738	n/a	n/a	0	0	0
5084366	WORD	wordpools/wasnorm_wordpool_576.txt	LTP393	ltpFR2	11	24	CHAMPAGNE	278	n/a	n/a	0	0	0
5086867	WORD	wordpools/wasnorm_wordpool_576.txt	LTP393	ltpFR2	11	24	TRACTOR	1493	n/a	n/a	0	0	0
5089449	WORD	wordpools/wasnorm_wordpool_576.txt	LTP393	ltpFR2	11	24	TWEEZERS	1526	n/a	n/a	0	0	0
5092199	WORD	wordpools/wasnorm_wordpool_576.txt	LTP393	ltpFR2	11	24	STOVE	1388	n/a	n/a	0	0	0
5094683	WORD	wordpools/wasnorm_wordpool_576.txt	LTP393	ltpFR2	11	24	DUSTPAN	509	n/a	n/a	0	0	0
5097482	WORD	wordpools/wasnorm_wordpool_576.txt	LTP393	ltpFR2	11	24	HAWK	692	n/a	n/a	0	0	0
5100149	WORD	wordpools/wasnorm_wordpool_576.txt	LTP393	ltpFR2	11	24	CARRIAGE	248	n/a	n/a	0	0	0
5102666	WORD	wordpools/wasnorm_wordpool_576.txt	LTP393	ltpFR2	11	24	FLASK	576	n/a	n/a	0	0	0
5105332	WORD	wordpools/wasnorm_wordpool_576.txt	LTP393	ltpFR2	11	24	POSSUM	1112	n/a	n/a	0	0	0
5107750	WORD	wordpools/wasnorm_wordpool_576.txt	LTP393	ltpFR2	11	24	GARDEN	623	n/a	n/a	0	0	0
5110199	WORD	wordpools/wasnorm_wordpool_576.txt	LTP393	ltpFR2	11	24	GREASE	660	n/a	n/a	0	0	0
5112683	WORD	wordpools/wasnorm_wordpool_576.txt	LTP393	ltpFR2	11	24	CLAMP	316	n/a	n/a	0	0	0
5115315	WORD	wordpools/wasnorm_wordpool_576.txt	LTP393	ltpFR2	11	24	LEOPARD	812	n/a	n/a	0	0	0
5117949	WORD	wordpools/wasnorm_wordpool_576.txt	LTP393	ltpFR2	11	24	CREVICE	405	n/a	n/a	0	0	0
5120749	WORD	wordpools/wasnorm_wordpool_576.txt	LTP393	ltpFR2	11	24	BRANCH	168	n/a	n/a	0	0	0
5123315	WORD	wordpools/wasnorm_wordpool_576.txt	LTP393	ltpFR2	11	24	VENUS	1557	n/a	n/a	0	0	0
5126082	WORD	wordpools/wasnorm_wordpool_576.txt	LTP393	ltpFR2	11	24	STAR	1373	n/a	n/a	0	0	0
5127699	START	n/a	LTP393	ltpFR2	11	n/a	n/a	n/a	36	n/a	n/a	n/a	n/a
5128694	DISTRACTOR	n/a	LTP393	ltpFR2	11	24	n/a	n/a	n/a	n/a	0	0	0
5128699	PROB	n/a	LTP393	ltpFR2	11	n/a	n/a	n/a	36	12	1	3	8
5130799	PROB	n/a	LTP393	ltpFR2	11	n/a	n/a	n/a	36	25	8	9	8
5132849	PROB	n/a	LTP393	ltpFR2	11	n/a	n/a	n/a	36	14	7	2	5
5134766	PROB	n/a	LTP393	ltpFR2	11	n/a	n/a	n/a	36	13	4	8	1
5136516	PROB	n/a	LTP393	ltpFR2	11	n/a	n/a	n/a	36	18	8	1	9
5137966	PROB	n/a	LTP393	ltpFR2	11	n/a	n/a	n/a	36	12	5	6	1
5140481	PROB	n/a	LTP393	ltpFR2	11	n/a	n/a	n/a	36	20	7	9	4
5143949	PROB	n/a	LTP393	ltpFR2	11	n/a	n/a	n/a	36	18	6	3	9
5146982	PROB	n/a	LTP393	ltpFR2	11	n/a	n/a	n/a	36	19	2	8	9
5151699	STOP	n/a	LTP393	ltpFR2	11	n/a	n/a	n/a	36	n/a	n/a	n/a	n/a
5153465	REC_START	n/a	LTP393	ltpFR2	11	24	n/a	n/a	n/a	n/a	0	0	0
5154250	REC_WORD	wordpools/wasnorm_wordpool_576.txt	LTP393	ltpFR2	11	24	SPOOL	1356	n/a	n/a	0	0	0
5156125	REC_WORD	wordpools/wasnorm_wordpool_576.txt	LTP393	ltpFR2	11	24	VENUS	1557	n/a	n/a	0	0	0
5157113	REC_WORD	wordpools/wasnorm_wordpool_576.txt	LTP393	ltpFR2	11	24	STAR	1373	n/a	n/a	0	0	0
5158637	REC_WORD	wordpools/wasnorm_wordpool_576.txt	LTP393	ltpFR2	11	24	CLAMP	316	n/a	n/a	0	0	0
5159978	REC_WORD	wordpools/wasnorm_wordpool_576.txt	LTP393	ltpFR2	11	24	GREASE	660	n/a	n/a	0	0	0
5164066	REC_WORD	wordpools/wasnorm_wordpool_576.txt	LTP393	ltpFR2	11	24	POSSUM	1112	n/a	n/a	0	0	0
5165277	REC_WORD	wordpools/wasnorm_wordpool_576.txt	LTP393	ltpFR2	11	24	HAWK	692	n/a	n/a	0	0	0
5166789	REC_WORD	wordpools/wasnorm_wordpool_576.txt	LTP393	ltpFR2	11	24	LEOPARD	812	n/a	n/a	0	0	0
5168661	REC_WORD	wordpools/wasnorm_wordpool_576.txt	LTP393	ltpFR2	11	24	BRANCH	168	n/a	n/a	0	0	0
5184048	REC_WORD	wordpools/wasnorm_wordpool_576.txt	LTP393	ltpFR2	11	24	PROTON	1132	n/a	n/a	0	0	0
5192422	REC_WORD	wordpools/wasnorm_wordpool_576.txt	LTP393	ltpFR2	11	24	SPOOL	1356	n/a	n/a	0	0	0
5234214	SESS_END	n/a	LTP393	ltpFR2	11	24	n/a	n/a	n/a	n/a	0	0	0
