onset	duration	trial_type	sample	stim_file	subject	experiment	session	trial	item_name	item_num	list	answer	test_x	test_y	test_z
226.93798828125	n/a	SESS_START	464769	n/a	LTP389	ltpFR2	12	n/a	n/a	n/a	n/a	n/a	0	0	0
240.390625	n/a	START	492320	n/a	LTP389	ltpFR2	12	n/a	n/a	n/a	-1	n/a	n/a	n/a	n/a
240.40478515625	n/a	PROB	492349	n/a	LTP389	ltpFR2	12	n/a	n/a	n/a	-1	11	5	4	2
241.98779296875	n/a	PROB	495591	n/a	LTP389	ltpFR2	12	n/a	n/a	n/a	-1	10	7	1	2
243.40478515625	n/a	PROB	498493	n/a	LTP389	ltpFR2	12	n/a	n/a	n/a	-1	8	3	3	2
244.6533203125	n/a	PROB	501050	n/a	LTP389	ltpFR2	12	n/a	n/a	n/a	-1	13	1	3	9
246.6533203125	n/a	PROB	505146	n/a	LTP389	ltpFR2	12	n/a	n/a	n/a	-1	13	2	9	2
248.22021484375	n/a	PROB	508355	n/a	LTP389	ltpFR2	12	n/a	n/a	n/a	-1	14	7	6	1
249.6865234375	n/a	PROB	511358	n/a	LTP389	ltpFR2	12	n/a	n/a	n/a	-1	10	3	4	3
251.29638671875	n/a	STOP	514655	n/a	LTP389	ltpFR2	12	n/a	n/a	n/a	-1	n/a	n/a	n/a	n/a
282.33544921875	n/a	WORD	578223	wordpools/wasnorm_wordpool_576.txt	LTP389	ltpFR2	12	1	PIZZA	1079	n/a	n/a	0	0	0
284.90234375	n/a	WORD	583480	wordpools/wasnorm_wordpool_576.txt	LTP389	ltpFR2	12	1	CHEMIST	292	n/a	n/a	0	0	0
287.51806640625	n/a	WORD	588837	wordpools/wasnorm_wordpool_576.txt	LTP389	ltpFR2	12	1	BRANDY	169	n/a	n/a	0	0	0
290.15234375	n/a	WORD	594232	wordpools/wasnorm_wordpool_576.txt	LTP389	ltpFR2	12	1	RAZOR	1171	n/a	n/a	0	0	0
292.85205078125	n/a	WORD	599761	wordpools/wasnorm_wordpool_576.txt	LTP389	ltpFR2	12	1	KNIFE	785	n/a	n/a	0	0	0
295.3349609375	n/a	WORD	604846	wordpools/wasnorm_wordpool_576.txt	LTP389	ltpFR2	12	1	MARS	873	n/a	n/a	0	0	0
298.001953125	n/a	WORD	610308	wordpools/wasnorm_wordpool_576.txt	LTP389	ltpFR2	12	1	JURY	766	n/a	n/a	0	0	0
300.68359375	n/a	WORD	615800	wordpools/wasnorm_wordpool_576.txt	LTP389	ltpFR2	12	1	VICTIM	1562	n/a	n/a	0	0	0
303.1845703125	n/a	WORD	620922	wordpools/wasnorm_wordpool_576.txt	LTP389	ltpFR2	12	1	CHAUFFEUR	283	n/a	n/a	0	0	0
306.00146484375	n/a	WORD	626691	wordpools/wasnorm_wordpool_576.txt	LTP389	ltpFR2	12	1	YOLK	1633	n/a	n/a	0	0	0
308.4677734375	n/a	WORD	631742	wordpools/wasnorm_wordpool_576.txt	LTP389	ltpFR2	12	1	CASKET	255	n/a	n/a	0	0	0
311.21728515625	n/a	WORD	637373	wordpools/wasnorm_wordpool_576.txt	LTP389	ltpFR2	12	1	BANQUET	86	n/a	n/a	0	0	0
313.6494140625	n/a	WORD	642354	wordpools/wasnorm_wordpool_576.txt	LTP389	ltpFR2	12	1	PROTON	1132	n/a	n/a	0	0	0
316.234375	n/a	WORD	647648	wordpools/wasnorm_wordpool_576.txt	LTP389	ltpFR2	12	1	CABBAGE	210	n/a	n/a	0	0	0
318.984375	n/a	WORD	653280	wordpools/wasnorm_wordpool_576.txt	LTP389	ltpFR2	12	1	PEPPER	1047	n/a	n/a	0	0	0
321.54931640625	n/a	WORD	658533	wordpools/wasnorm_wordpool_576.txt	LTP389	ltpFR2	12	1	HOOK	715	n/a	n/a	0	0	0
324.1669921875	n/a	WORD	663894	wordpools/wasnorm_wordpool_576.txt	LTP389	ltpFR2	12	1	CHEST	295	n/a	n/a	0	0	0
326.9169921875	n/a	WORD	669526	wordpools/wasnorm_wordpool_576.txt	LTP389	ltpFR2	12	1	AIRPORT	13	n/a	n/a	0	0	0
329.61572265625	n/a	WORD	675053	wordpools/wasnorm_wordpool_576.txt	LTP389	ltpFR2	12	1	TURKEY	1520	n/a	n/a	0	0	0
332.14990234375	n/a	WORD	680243	wordpools/wasnorm_wordpool_576.txt	LTP389	ltpFR2	12	1	PADDING	999	n/a	n/a	0	0	0
334.61572265625	n/a	WORD	685293	wordpools/wasnorm_wordpool_576.txt	LTP389	ltpFR2	12	1	LOFT	840	n/a	n/a	0	0	0
337.41650390625	n/a	WORD	691029	wordpools/wasnorm_wordpool_576.txt	LTP389	ltpFR2	12	1	FARMER	553	n/a	n/a	0	0	0
340.03271484375	n/a	WORD	696387	wordpools/wasnorm_wordpool_576.txt	LTP389	ltpFR2	12	1	BUREAU	199	n/a	n/a	0	0	0
342.81640625	n/a	WORD	702088	wordpools/wasnorm_wordpool_576.txt	LTP389	ltpFR2	12	1	DRINK	498	n/a	n/a	0	0	0
344.43359375	n/a	START	705400	n/a	LTP389	ltpFR2	12	n/a	n/a	n/a	1	n/a	n/a	n/a	n/a
345.4296875	n/a	DISTRACTOR	707440	n/a	LTP389	ltpFR2	12	1	n/a	n/a	n/a	n/a	0	0	0
345.4326171875	n/a	PROB	707446	n/a	LTP389	ltpFR2	12	n/a	n/a	n/a	1	15	6	6	3
347.1162109375	n/a	PROB	710894	n/a	LTP389	ltpFR2	12	n/a	n/a	n/a	1	15	8	5	2
348.94921875	n/a	PROB	714648	n/a	LTP389	ltpFR2	12	n/a	n/a	n/a	1	10	4	1	5
350.76611328125	n/a	PROB	718369	n/a	LTP389	ltpFR2	12	n/a	n/a	n/a	1	13	2	8	3
352.06640625	n/a	PROB	721032	n/a	LTP389	ltpFR2	12	n/a	n/a	n/a	1	15	5	9	1
353.34912109375	n/a	PROB	723659	n/a	LTP389	ltpFR2	12	n/a	n/a	n/a	1	13	4	8	1
355.0654296875	n/a	PROB	727174	n/a	LTP389	ltpFR2	12	n/a	n/a	n/a	1	11	2	2	7
356.916015625	n/a	PROB	730964	n/a	LTP389	ltpFR2	12	n/a	n/a	n/a	1	21	5	8	8
359.365234375	n/a	PROB	735980	n/a	LTP389	ltpFR2	12	n/a	n/a	n/a	1	18	8	3	7
361.09912109375	n/a	PROB	739531	n/a	LTP389	ltpFR2	12	n/a	n/a	n/a	1	11	6	1	4
362.73095703125	n/a	PROB	742873	n/a	LTP389	ltpFR2	12	n/a	n/a	n/a	1	13	3	2	8
364.21484375	n/a	PROB	745912	n/a	LTP389	ltpFR2	12	n/a	n/a	n/a	1	14	7	2	5
368.431640625	n/a	STOP	754548	n/a	LTP389	ltpFR2	12	n/a	n/a	n/a	1	n/a	n/a	n/a	n/a
370.33154296875	n/a	REC_START	758439	n/a	LTP389	ltpFR2	12	1	n/a	n/a	n/a	n/a	0	0	0
372.19384765625	n/a	REC_WORD	762253	wordpools/wasnorm_wordpool_576.txt	LTP389	ltpFR2	12	1	PIZZA	1079	n/a	n/a	0	0	0
373.1044921875	n/a	REC_WORD	764118	wordpools/wasnorm_wordpool_576.txt	LTP389	ltpFR2	12	1	MARS	873	n/a	n/a	0	0	0
373.94384765625	n/a	REC_WORD	765837	wordpools/wasnorm_wordpool_576.txt	LTP389	ltpFR2	12	1	CHEMIST	292	n/a	n/a	0	0	0
374.95166015625	n/a	REC_WORD	767901	wordpools/wasnorm_wordpool_576.txt	LTP389	ltpFR2	12	1	CHAUFFEUR	283	n/a	n/a	0	0	0
376.1005859375	n/a	REC_WORD	770254	wordpools/wasnorm_wordpool_576.txt	LTP389	ltpFR2	12	1	COFFIN	342	n/a	n/a	0	0	0
377.66845703125	n/a	REC_WORD	773465	wordpools/wasnorm_wordpool_576.txt	LTP389	ltpFR2	12	1	TURKEY	1520	n/a	n/a	0	0	0
378.4404296875	n/a	REC_WORD	775046	wordpools/wasnorm_wordpool_576.txt	LTP389	ltpFR2	12	1	CABBAGE	210	n/a	n/a	0	0	0
379.400390625	n/a	REC_WORD	777012	wordpools/wasnorm_wordpool_576.txt	LTP389	ltpFR2	12	1	PEPPER	1047	n/a	n/a	0	0	0
381.54638671875	n/a	REC_WORD	781407	wordpools/wasnorm_wordpool_576.txt	LTP389	ltpFR2	12	1	KNIFE	785	n/a	n/a	0	0	0
382.4052734375	n/a	REC_WORD	783166	wordpools/wasnorm_wordpool_576.txt	LTP389	ltpFR2	12	1	RAZOR	1171	n/a	n/a	0	0	0
383.33642578125	n/a	REC_WORD	785073	wordpools/wasnorm_wordpool_576.txt	LTP389	ltpFR2	12	1	VICTIM	1562	n/a	n/a	0	0	0
386.96240234375	n/a	REC_WORD	792499	wordpools/wasnorm_wordpool_576.txt	LTP389	ltpFR2	12	1	LOFT	840	n/a	n/a	0	0	0
387.80224609375	n/a	REC_WORD	794219	wordpools/wasnorm_wordpool_576.txt	LTP389	ltpFR2	12	1	FARMER	553	n/a	n/a	0	0	0
390.84228515625	n/a	REC_WORD	800445	wordpools/wasnorm_wordpool_576.txt	LTP389	ltpFR2	12	1	PROTON	1132	n/a	n/a	0	0	0
408.9267578125	n/a	REC_WORD	837482	wordpools/wasnorm_wordpool_576.txt	LTP389	ltpFR2	12	1	COFFIN	342	n/a	n/a	0	0	0
410.50634765625	n/a	REC_WORD	840717	wordpools/wasnorm_wordpool_576.txt	LTP389	ltpFR2	12	1	BUREAU	199	n/a	n/a	0	0	0
426.56396484375	n/a	REC_WORD	873603	wordpools/wasnorm_wordpool_576.txt	LTP389	ltpFR2	12	1	AIRPORT	13	n/a	n/a	0	0	0
460.759765625	n/a	DISTRACTOR	943636	n/a	LTP389	ltpFR2	12	2	n/a	n/a	n/a	n/a	0	0	0
460.759765625	n/a	START	943636	n/a	LTP389	ltpFR2	12	n/a	n/a	n/a	2	n/a	n/a	n/a	n/a
460.77685546875	n/a	PROB	943671	n/a	LTP389	ltpFR2	12	n/a	n/a	n/a	2	18	9	3	6
463.2109375	n/a	PROB	948656	n/a	LTP389	ltpFR2	12	n/a	n/a	n/a	2	12	4	4	4
464.41064453125	n/a	PROB	951113	n/a	LTP389	ltpFR2	12	n/a	n/a	n/a	2	18	5	9	4
467.2109375	n/a	PROB	956848	n/a	LTP389	ltpFR2	12	n/a	n/a	n/a	2	9	1	4	4
468.65966796875	n/a	PROB	959815	n/a	LTP389	ltpFR2	12	n/a	n/a	n/a	2	20	7	9	4
471.07666015625	n/a	PROB	964765	n/a	LTP389	ltpFR2	12	n/a	n/a	n/a	2	15	7	6	2
474.34375	n/a	PROB	971456	n/a	LTP389	ltpFR2	12	n/a	n/a	n/a	2	18	7	7	4
476.009765625	n/a	PROB	974868	n/a	LTP389	ltpFR2	12	n/a	n/a	n/a	2	10	2	1	7
477.7255859375	n/a	PROB	978382	n/a	LTP389	ltpFR2	12	n/a	n/a	n/a	2	15	4	3	8
479.15966796875	n/a	PROB	981319	n/a	LTP389	ltpFR2	12	n/a	n/a	n/a	2	16	6	8	2
480.70849609375	n/a	PROB	984491	n/a	LTP389	ltpFR2	12	n/a	n/a	n/a	2	14	2	3	9
482.326171875	n/a	PROB	987804	n/a	LTP389	ltpFR2	12	n/a	n/a	n/a	2	11	7	2	2
484.240234375	n/a	STOP	991724	n/a	LTP389	ltpFR2	12	n/a	n/a	n/a	2	n/a	n/a	n/a	n/a
485.80908203125	n/a	WORD	994937	wordpools/wasnorm_wordpool_576.txt	LTP389	ltpFR2	12	2	MESSAGE	888	n/a	n/a	0	0	0
488.625	n/a	WORD	1000704	wordpools/wasnorm_wordpool_576.txt	LTP389	ltpFR2	12	2	POSTAGE	1113	n/a	n/a	0	0	0
491.2431640625	n/a	WORD	1006066	wordpools/wasnorm_wordpool_576.txt	LTP389	ltpFR2	12	2	ORCHID	982	n/a	n/a	0	0	0
493.841796875	n/a	WORD	1011388	wordpools/wasnorm_wordpool_576.txt	LTP389	ltpFR2	12	2	TUNNEL	1519	n/a	n/a	0	0	0
496.458984375	n/a	WORD	1016748	wordpools/wasnorm_wordpool_576.txt	LTP389	ltpFR2	12	2	BROTHER	179	n/a	n/a	0	0	0
499.2587890625	n/a	WORD	1022482	wordpools/wasnorm_wordpool_576.txt	LTP389	ltpFR2	12	2	KIDNEY	776	n/a	n/a	0	0	0
502.02587890625	n/a	WORD	1028149	wordpools/wasnorm_wordpool_576.txt	LTP389	ltpFR2	12	2	CAPTIVE	240	n/a	n/a	0	0	0
504.82568359375	n/a	WORD	1033883	wordpools/wasnorm_wordpool_576.txt	LTP389	ltpFR2	12	2	FRUIT	610	n/a	n/a	0	0	0
507.32568359375	n/a	WORD	1039003	wordpools/wasnorm_wordpool_576.txt	LTP389	ltpFR2	12	2	SCARECROW	1245	n/a	n/a	0	0	0
510.04150390625	n/a	WORD	1044565	wordpools/wasnorm_wordpool_576.txt	LTP389	ltpFR2	12	2	UNCLE	1536	n/a	n/a	0	0	0
512.640625	n/a	WORD	1049888	wordpools/wasnorm_wordpool_576.txt	LTP389	ltpFR2	12	2	OUTLAW	989	n/a	n/a	0	0	0
515.0751953125	n/a	WORD	1054874	wordpools/wasnorm_wordpool_576.txt	LTP389	ltpFR2	12	2	REBEL	1172	n/a	n/a	0	0	0
517.82421875	n/a	WORD	1060504	wordpools/wasnorm_wordpool_576.txt	LTP389	ltpFR2	12	2	SNAKE	1333	n/a	n/a	0	0	0
520.64013671875	n/a	WORD	1066271	wordpools/wasnorm_wordpool_576.txt	LTP389	ltpFR2	12	2	LONDON	843	n/a	n/a	0	0	0
523.158203125	n/a	WORD	1071428	wordpools/wasnorm_wordpool_576.txt	LTP389	ltpFR2	12	2	SODA	1341	n/a	n/a	0	0	0
525.70703125	n/a	WORD	1076648	wordpools/wasnorm_wordpool_576.txt	LTP389	ltpFR2	12	2	STOVE	1388	n/a	n/a	0	0	0
528.15771484375	n/a	WORD	1081667	wordpools/wasnorm_wordpool_576.txt	LTP389	ltpFR2	12	2	KITCHEN	778	n/a	n/a	0	0	0
530.6728515625	n/a	WORD	1086818	wordpools/wasnorm_wordpool_576.txt	LTP389	ltpFR2	12	2	PEBBLE	1035	n/a	n/a	0	0	0
533.27392578125	n/a	WORD	1092145	wordpools/wasnorm_wordpool_576.txt	LTP389	ltpFR2	12	2	JELLO	754	n/a	n/a	0	0	0
535.85693359375	n/a	WORD	1097435	wordpools/wasnorm_wordpool_576.txt	LTP389	ltpFR2	12	2	SPACE	1345	n/a	n/a	0	0	0
538.423828125	n/a	WORD	1102692	wordpools/wasnorm_wordpool_576.txt	LTP389	ltpFR2	12	2	IDOL	733	n/a	n/a	0	0	0
540.92333984375	n/a	WORD	1107811	wordpools/wasnorm_wordpool_576.txt	LTP389	ltpFR2	12	2	HEART	697	n/a	n/a	0	0	0
543.62255859375	n/a	WORD	1113339	wordpools/wasnorm_wordpool_576.txt	LTP389	ltpFR2	12	2	INMATE	738	n/a	n/a	0	0	0
546.056640625	n/a	WORD	1118324	wordpools/wasnorm_wordpool_576.txt	LTP389	ltpFR2	12	2	OZONE	996	n/a	n/a	0	0	0
547.67236328125	n/a	START	1121633	n/a	LTP389	ltpFR2	12	n/a	n/a	n/a	3	n/a	n/a	n/a	n/a
548.79736328125	n/a	DISTRACTOR	1123937	n/a	LTP389	ltpFR2	12	2	n/a	n/a	n/a	n/a	0	0	0
548.80615234375	n/a	PROB	1123955	n/a	LTP389	ltpFR2	12	n/a	n/a	n/a	3	11	1	4	6
550.63916015625	n/a	PROB	1127709	n/a	LTP389	ltpFR2	12	n/a	n/a	n/a	3	22	9	9	5
553.4892578125	n/a	PROB	1133546	n/a	LTP389	ltpFR2	12	n/a	n/a	n/a	3	18	1	9	8
555.2392578125	n/a	PROB	1137130	n/a	LTP389	ltpFR2	12	n/a	n/a	n/a	3	11	6	2	3
556.73828125	n/a	PROB	1140200	n/a	LTP389	ltpFR2	12	n/a	n/a	n/a	3	17	4	8	5
558.9228515625	n/a	PROB	1144674	n/a	LTP389	ltpFR2	12	n/a	n/a	n/a	3	12	7	3	2
560.18896484375	n/a	PROB	1147267	n/a	LTP389	ltpFR2	12	n/a	n/a	n/a	3	16	3	4	9
561.65478515625	n/a	PROB	1150269	n/a	LTP389	ltpFR2	12	n/a	n/a	n/a	3	16	5	7	4
563.8388671875	n/a	PROB	1154742	n/a	LTP389	ltpFR2	12	n/a	n/a	n/a	3	11	6	3	2
565.3388671875	n/a	PROB	1157814	n/a	LTP389	ltpFR2	12	n/a	n/a	n/a	3	19	2	9	8
566.82275390625	n/a	PROB	1160853	n/a	LTP389	ltpFR2	12	n/a	n/a	n/a	3	25	8	8	7
569.95556640625	n/a	PROB	1167269	n/a	LTP389	ltpFR2	12	n/a	n/a	n/a	3	8	6	1	1
570.9677734375	n/a	STOP	1169342	n/a	LTP389	ltpFR2	12	n/a	n/a	n/a	3	n/a	n/a	n/a	n/a
573.50537109375	n/a	REC_START	1174539	n/a	LTP389	ltpFR2	12	2	n/a	n/a	n/a	n/a	0	0	0
575.60546875	n/a	REC_WORD	1178840	wordpools/wasnorm_wordpool_576.txt	LTP389	ltpFR2	12	2	MESSAGE	888	n/a	n/a	0	0	0
576.681640625	n/a	REC_WORD_VV	1181044	wordpools/wasnorm_wordpool_576.txt	LTP389	ltpFR2	12	2	<>	-1	n/a	n/a	0	0	0
577.83154296875	n/a	REC_WORD	1183399	wordpools/wasnorm_wordpool_576.txt	LTP389	ltpFR2	12	2	POSTAGE	1113	n/a	n/a	0	0	0
579.37744140625	n/a	REC_WORD	1186565	wordpools/wasnorm_wordpool_576.txt	LTP389	ltpFR2	12	2	UNCLE	1536	n/a	n/a	0	0	0
580.14453125	n/a	REC_WORD	1188136	wordpools/wasnorm_wordpool_576.txt	LTP389	ltpFR2	12	2	BROTHER	179	n/a	n/a	0	0	0
581.88818359375	n/a	REC_WORD	1191707	wordpools/wasnorm_wordpool_576.txt	LTP389	ltpFR2	12	2	PEBBLE	1035	n/a	n/a	0	0	0
582.63818359375	n/a	REC_WORD	1193243	wordpools/wasnorm_wordpool_576.txt	LTP389	ltpFR2	12	2	STOVE	1388	n/a	n/a	0	0	0
585.68505859375	n/a	REC_WORD	1199483	wordpools/wasnorm_wordpool_576.txt	LTP389	ltpFR2	12	2	TUNNEL	1519	n/a	n/a	0	0	0
586.869140625	n/a	REC_WORD	1201908	wordpools/wasnorm_wordpool_576.txt	LTP389	ltpFR2	12	2	LONDON	843	n/a	n/a	0	0	0
594.3291015625	n/a	REC_WORD	1217186	wordpools/wasnorm_wordpool_576.txt	LTP389	ltpFR2	12	2	INMATE	738	n/a	n/a	0	0	0
595.796875	n/a	REC_WORD	1220192	wordpools/wasnorm_wordpool_576.txt	LTP389	ltpFR2	12	2	CONVICT	371	n/a	n/a	0	0	0
596.78369140625	n/a	REC_WORD	1222213	wordpools/wasnorm_wordpool_576.txt	LTP389	ltpFR2	12	2	VICTIM	1562	n/a	n/a	0	0	0
603.3125	n/a	REC_WORD	1235584	wordpools/wasnorm_wordpool_576.txt	LTP389	ltpFR2	12	2	SNAKE	1333	n/a	n/a	0	0	0
663.93505859375	n/a	DISTRACTOR	1359739	n/a	LTP389	ltpFR2	12	3	n/a	n/a	n/a	n/a	0	0	0
663.93505859375	n/a	START	1359739	n/a	LTP389	ltpFR2	12	n/a	n/a	n/a	4	n/a	n/a	n/a	n/a
663.95068359375	n/a	PROB	1359771	n/a	LTP389	ltpFR2	12	n/a	n/a	n/a	4	19	7	7	5
665.95068359375	n/a	PROB	1363867	n/a	LTP389	ltpFR2	12	n/a	n/a	n/a	4	7	1	1	5
667.134765625	n/a	PROB	1366292	n/a	LTP389	ltpFR2	12	n/a	n/a	n/a	4	18	3	6	9
668.767578125	n/a	PROB	1369636	n/a	LTP389	ltpFR2	12	n/a	n/a	n/a	4	8	4	2	2
670.4833984375	n/a	PROB	1373150	n/a	LTP389	ltpFR2	12	n/a	n/a	n/a	4	8	1	2	5
672.68359375	n/a	PROB	1377656	n/a	LTP389	ltpFR2	12	n/a	n/a	n/a	4	19	5	9	5
674.53369140625	n/a	PROB	1381445	n/a	LTP389	ltpFR2	12	n/a	n/a	n/a	4	22	9	7	6
678.0673828125	n/a	PROB	1388682	n/a	LTP389	ltpFR2	12	n/a	n/a	n/a	4	13	5	5	3
679.30029296875	n/a	PROB	1391207	n/a	LTP389	ltpFR2	12	n/a	n/a	n/a	4	11	2	7	2
680.54931640625	n/a	PROB	1393765	n/a	LTP389	ltpFR2	12	n/a	n/a	n/a	4	15	3	5	7
681.9833984375	n/a	PROB	1396702	n/a	LTP389	ltpFR2	12	n/a	n/a	n/a	4	10	5	4	1
683.2001953125	n/a	PROB	1399194	n/a	LTP389	ltpFR2	12	n/a	n/a	n/a	4	10	7	2	1
684.4501953125	n/a	PROB	1401754	n/a	LTP389	ltpFR2	12	n/a	n/a	n/a	4	18	4	9	5
686.1669921875	n/a	PROB	1405270	n/a	LTP389	ltpFR2	12	n/a	n/a	n/a	4	11	4	2	5
687.76025390625	n/a	STOP	1408533	n/a	LTP389	ltpFR2	12	n/a	n/a	n/a	4	n/a	n/a	n/a	n/a
688.88330078125	n/a	WORD	1410833	wordpools/wasnorm_wordpool_576.txt	LTP389	ltpFR2	12	3	SMOG	1330	n/a	n/a	0	0	0
691.6162109375	n/a	WORD	1416430	wordpools/wasnorm_wordpool_576.txt	LTP389	ltpFR2	12	3	CANYON	235	n/a	n/a	0	0	0
694.25	n/a	WORD	1421824	wordpools/wasnorm_wordpool_576.txt	LTP389	ltpFR2	12	3	TART	1436	n/a	n/a	0	0	0
696.7490234375	n/a	WORD	1426942	wordpools/wasnorm_wordpool_576.txt	LTP389	ltpFR2	12	3	SOFTBALL	1343	n/a	n/a	0	0	0
699.56494140625	n/a	WORD	1432709	wordpools/wasnorm_wordpool_576.txt	LTP389	ltpFR2	12	3	MOTEL	919	n/a	n/a	0	0	0
702.19970703125	n/a	WORD	1438105	wordpools/wasnorm_wordpool_576.txt	LTP389	ltpFR2	12	3	DORM	488	n/a	n/a	0	0	0
704.83251953125	n/a	WORD	1443497	wordpools/wasnorm_wordpool_576.txt	LTP389	ltpFR2	12	3	WHISTLE	1606	n/a	n/a	0	0	0
707.265625	n/a	WORD	1448480	wordpools/wasnorm_wordpool_576.txt	LTP389	ltpFR2	12	3	PATIENT	1024	n/a	n/a	0	0	0
709.74853515625	n/a	WORD	1453565	wordpools/wasnorm_wordpool_576.txt	LTP389	ltpFR2	12	3	LASER	801	n/a	n/a	0	0	0
712.46533203125	n/a	WORD	1459129	wordpools/wasnorm_wordpool_576.txt	LTP389	ltpFR2	12	3	EAGLE	512	n/a	n/a	0	0	0
715.26513671875	n/a	WORD	1464863	wordpools/wasnorm_wordpool_576.txt	LTP389	ltpFR2	12	3	AIRPLANE	12	n/a	n/a	0	0	0
717.93212890625	n/a	WORD	1470325	wordpools/wasnorm_wordpool_576.txt	LTP389	ltpFR2	12	3	SUPPER	1411	n/a	n/a	0	0	0
720.53125	n/a	WORD	1475648	wordpools/wasnorm_wordpool_576.txt	LTP389	ltpFR2	12	3	LUNCH	849	n/a	n/a	0	0	0
723.23193359375	n/a	WORD	1481179	wordpools/wasnorm_wordpool_576.txt	LTP389	ltpFR2	12	3	SUBWAY	1400	n/a	n/a	0	0	0
725.78173828125	n/a	WORD	1486401	wordpools/wasnorm_wordpool_576.txt	LTP389	ltpFR2	12	3	TREAT	1501	n/a	n/a	0	0	0
728.431640625	n/a	WORD	1491828	wordpools/wasnorm_wordpool_576.txt	LTP389	ltpFR2	12	3	SPOOL	1356	n/a	n/a	0	0	0
731.181640625	n/a	WORD	1497460	wordpools/wasnorm_wordpool_576.txt	LTP389	ltpFR2	12	3	BANKER	84	n/a	n/a	0	0	0
733.66357421875	n/a	WORD	1502543	wordpools/wasnorm_wordpool_576.txt	LTP389	ltpFR2	12	3	MARROW	872	n/a	n/a	0	0	0
736.130859375	n/a	WORD	1507596	wordpools/wasnorm_wordpool_576.txt	LTP389	ltpFR2	12	3	PEDAL	1037	n/a	n/a	0	0	0
738.7646484375	n/a	WORD	1512990	wordpools/wasnorm_wordpool_576.txt	LTP389	ltpFR2	12	3	GARLIC	624	n/a	n/a	0	0	0
741.33056640625	n/a	WORD	1518245	wordpools/wasnorm_wordpool_576.txt	LTP389	ltpFR2	12	3	STAKE	1368	n/a	n/a	0	0	0
743.88037109375	n/a	WORD	1523467	wordpools/wasnorm_wordpool_576.txt	LTP389	ltpFR2	12	3	HIKER	708	n/a	n/a	0	0	0
746.646484375	n/a	WORD	1529132	wordpools/wasnorm_wordpool_576.txt	LTP389	ltpFR2	12	3	HELMET	702	n/a	n/a	0	0	0
749.1142578125	n/a	WORD	1534186	wordpools/wasnorm_wordpool_576.txt	LTP389	ltpFR2	12	3	PLASTER	1085	n/a	n/a	0	0	0
750.72998046875	n/a	START	1537495	n/a	LTP389	ltpFR2	12	n/a	n/a	n/a	5	n/a	n/a	n/a	n/a
751.72509765625	n/a	DISTRACTOR	1539533	n/a	LTP389	ltpFR2	12	3	n/a	n/a	n/a	n/a	0	0	0
751.72900390625	n/a	PROB	1539541	n/a	LTP389	ltpFR2	12	n/a	n/a	n/a	5	15	3	9	3
753.51318359375	n/a	PROB	1543195	n/a	LTP389	ltpFR2	12	n/a	n/a	n/a	5	13	1	4	8
754.89697265625	n/a	PROB	1546029	n/a	LTP389	ltpFR2	12	n/a	n/a	n/a	5	12	1	6	5
756.1142578125	n/a	PROB	1548522	n/a	LTP389	ltpFR2	12	n/a	n/a	n/a	5	18	7	8	3
757.796875	n/a	PROB	1551968	n/a	LTP389	ltpFR2	12	n/a	n/a	n/a	5	14	8	4	2
759.5458984375	n/a	PROB	1555550	n/a	LTP389	ltpFR2	12	n/a	n/a	n/a	5	14	4	5	5
760.77978515625	n/a	PROB	1558077	n/a	LTP389	ltpFR2	12	n/a	n/a	n/a	5	8	3	4	1
762.31298828125	n/a	PROB	1561217	n/a	LTP389	ltpFR2	12	n/a	n/a	n/a	5	17	7	6	4
763.8466796875	n/a	PROB	1564358	n/a	LTP389	ltpFR2	12	n/a	n/a	n/a	5	16	9	5	2
765.462890625	n/a	PROB	1567668	n/a	LTP389	ltpFR2	12	n/a	n/a	n/a	5	15	3	5	7
766.99658203125	n/a	PROB	1570809	n/a	LTP389	ltpFR2	12	n/a	n/a	n/a	5	22	5	9	8
769.4296875	n/a	PROB	1575792	n/a	LTP389	ltpFR2	12	n/a	n/a	n/a	5	21	9	8	6
774.7294921875	n/a	STOP	1586646	n/a	LTP389	ltpFR2	12	n/a	n/a	n/a	5	n/a	n/a	n/a	n/a
776.54541015625	n/a	REC_START	1590365	n/a	LTP389	ltpFR2	12	3	n/a	n/a	n/a	n/a	0	0	0
777.2783203125	n/a	REC_WORD	1591866	wordpools/wasnorm_wordpool_576.txt	LTP389	ltpFR2	12	3	SMOG	1330	n/a	n/a	0	0	0
778.2333984375	n/a	REC_WORD	1593822	wordpools/wasnorm_wordpool_576.txt	LTP389	ltpFR2	12	3	CANYON	235	n/a	n/a	0	0	0
779.0302734375	n/a	REC_WORD	1595454	wordpools/wasnorm_wordpool_576.txt	LTP389	ltpFR2	12	3	HIKER	708	n/a	n/a	0	0	0
780.1943359375	n/a	REC_WORD	1597838	wordpools/wasnorm_wordpool_576.txt	LTP389	ltpFR2	12	3	MOTEL	919	n/a	n/a	0	0	0
781.25537109375	n/a	REC_WORD	1600011	wordpools/wasnorm_wordpool_576.txt	LTP389	ltpFR2	12	3	DOG	480	n/a	n/a	0	0	0
781.97021484375	n/a	REC_WORD	1601475	wordpools/wasnorm_wordpool_576.txt	LTP389	ltpFR2	12	3	TART	1436	n/a	n/a	0	0	0
782.7431640625	n/a	REC_WORD	1603058	wordpools/wasnorm_wordpool_576.txt	LTP389	ltpFR2	12	3	SUPPER	1411	n/a	n/a	0	0	0
783.6181640625	n/a	REC_WORD	1604850	wordpools/wasnorm_wordpool_576.txt	LTP389	ltpFR2	12	3	SUBWAY	1400	n/a	n/a	0	0	0
785.28125	n/a	REC_WORD	1608256	wordpools/wasnorm_wordpool_576.txt	LTP389	ltpFR2	12	3	STAKE	1368	n/a	n/a	0	0	0
786.404296875	n/a	REC_WORD	1610556	wordpools/wasnorm_wordpool_576.txt	LTP389	ltpFR2	12	3	GARLIC	624	n/a	n/a	0	0	0
787.85693359375	n/a	REC_WORD	1613531	wordpools/wasnorm_wordpool_576.txt	LTP389	ltpFR2	12	3	HEART	697	n/a	n/a	0	0	0
789.47412109375	n/a	REC_WORD	1616843	wordpools/wasnorm_wordpool_576.txt	LTP389	ltpFR2	12	3	HELMET	702	n/a	n/a	0	0	0
790.4541015625	n/a	REC_WORD	1618850	wordpools/wasnorm_wordpool_576.txt	LTP389	ltpFR2	12	3	PLASTER	1085	n/a	n/a	0	0	0
799.2109375	n/a	REC_WORD	1636784	wordpools/wasnorm_wordpool_576.txt	LTP389	ltpFR2	12	3	TART	1436	n/a	n/a	0	0	0
802.53662109375	n/a	REC_WORD	1643595	wordpools/wasnorm_wordpool_576.txt	LTP389	ltpFR2	12	3	MARROW	872	n/a	n/a	0	0	0
809.6455078125	n/a	REC_WORD	1658154	wordpools/wasnorm_wordpool_576.txt	LTP389	ltpFR2	12	3	SPOOL	1356	n/a	n/a	0	0	0
818.16015625	n/a	REC_WORD	1675592	wordpools/wasnorm_wordpool_576.txt	LTP389	ltpFR2	12	3	EAGLE	512	n/a	n/a	0	0	0
867.02490234375	n/a	WORD	1775667	wordpools/wasnorm_wordpool_576.txt	LTP389	ltpFR2	12	4	VELVET	1555	n/a	n/a	0	0	0
869.79150390625	n/a	WORD	1781333	wordpools/wasnorm_wordpool_576.txt	LTP389	ltpFR2	12	4	BEAST	108	n/a	n/a	0	0	0
872.3583984375	n/a	WORD	1786590	wordpools/wasnorm_wordpool_576.txt	LTP389	ltpFR2	12	4	CHAPEL	280	n/a	n/a	0	0	0
875.04150390625	n/a	WORD	1792085	wordpools/wasnorm_wordpool_576.txt	LTP389	ltpFR2	12	4	SNACK	1331	n/a	n/a	0	0	0
877.70654296875	n/a	WORD	1797543	wordpools/wasnorm_wordpool_576.txt	LTP389	ltpFR2	12	4	COURSE	390	n/a	n/a	0	0	0
880.20751953125	n/a	WORD	1802665	wordpools/wasnorm_wordpool_576.txt	LTP389	ltpFR2	12	4	CAFE	216	n/a	n/a	0	0	0
883.00732421875	n/a	WORD	1808399	wordpools/wasnorm_wordpool_576.txt	LTP389	ltpFR2	12	4	WAITRESS	1581	n/a	n/a	0	0	0
885.59033203125	n/a	WORD	1813689	wordpools/wasnorm_wordpool_576.txt	LTP389	ltpFR2	12	4	FOX	598	n/a	n/a	0	0	0
888.2412109375	n/a	WORD	1819118	wordpools/wasnorm_wordpool_576.txt	LTP389	ltpFR2	12	4	SHERIFF	1284	n/a	n/a	0	0	0
890.923828125	n/a	WORD	1824612	wordpools/wasnorm_wordpool_576.txt	LTP389	ltpFR2	12	4	CUSTARD	429	n/a	n/a	0	0	0
893.48974609375	n/a	WORD	1829867	wordpools/wasnorm_wordpool_576.txt	LTP389	ltpFR2	12	4	ITEM	746	n/a	n/a	0	0	0
896.0068359375	n/a	WORD	1835022	wordpools/wasnorm_wordpool_576.txt	LTP389	ltpFR2	12	4	COBRA	336	n/a	n/a	0	0	0
898.45654296875	n/a	WORD	1840039	wordpools/wasnorm_wordpool_576.txt	LTP389	ltpFR2	12	4	COLLEGE	346	n/a	n/a	0	0	0
901.23974609375	n/a	WORD	1845739	wordpools/wasnorm_wordpool_576.txt	LTP389	ltpFR2	12	4	COUCH	386	n/a	n/a	0	0	0
904.0234375	n/a	WORD	1851440	wordpools/wasnorm_wordpool_576.txt	LTP389	ltpFR2	12	4	MEDAL	885	n/a	n/a	0	0	0
906.6552734375	n/a	WORD	1856830	wordpools/wasnorm_wordpool_576.txt	LTP389	ltpFR2	12	4	NEUTRON	947	n/a	n/a	0	0	0
909.28955078125	n/a	WORD	1862225	wordpools/wasnorm_wordpool_576.txt	LTP389	ltpFR2	12	4	BASEMENT	94	n/a	n/a	0	0	0
912.0234375	n/a	WORD	1867824	wordpools/wasnorm_wordpool_576.txt	LTP389	ltpFR2	12	4	DANCER	437	n/a	n/a	0	0	0
914.67236328125	n/a	WORD	1873249	wordpools/wasnorm_wordpool_576.txt	LTP389	ltpFR2	12	4	SLUG	1329	n/a	n/a	0	0	0
917.17333984375	n/a	WORD	1878371	wordpools/wasnorm_wordpool_576.txt	LTP389	ltpFR2	12	4	SPIDER	1351	n/a	n/a	0	0	0
919.77294921875	n/a	WORD	1883695	wordpools/wasnorm_wordpool_576.txt	LTP389	ltpFR2	12	4	HONEY	713	n/a	n/a	0	0	0
922.27197265625	n/a	WORD	1888813	wordpools/wasnorm_wordpool_576.txt	LTP389	ltpFR2	12	4	CREATURE	403	n/a	n/a	0	0	0
924.90576171875	n/a	WORD	1894207	wordpools/wasnorm_wordpool_576.txt	LTP389	ltpFR2	12	4	WITNESS	1618	n/a	n/a	0	0	0
927.4560546875	n/a	WORD	1899430	wordpools/wasnorm_wordpool_576.txt	LTP389	ltpFR2	12	4	JUDGE	761	n/a	n/a	0	0	0
929.07177734375	n/a	START	1902739	n/a	LTP389	ltpFR2	12	n/a	n/a	n/a	6	n/a	n/a	n/a	n/a
930.03271484375	n/a	DISTRACTOR	1904707	n/a	LTP389	ltpFR2	12	4	n/a	n/a	n/a	n/a	0	0	0
930.03857421875	n/a	PROB	1904719	n/a	LTP389	ltpFR2	12	n/a	n/a	n/a	6	12	4	6	2
931.48779296875	n/a	PROB	1907687	n/a	LTP389	ltpFR2	12	n/a	n/a	n/a	6	12	8	1	3
932.90576171875	n/a	PROB	1910591	n/a	LTP389	ltpFR2	12	n/a	n/a	n/a	6	17	7	1	9
934.421875	n/a	PROB	1913696	n/a	LTP389	ltpFR2	12	n/a	n/a	n/a	6	3	1	1	1
935.5546875	n/a	PROB	1916016	n/a	LTP389	ltpFR2	12	n/a	n/a	n/a	6	6	2	2	2
936.65380859375	n/a	PROB	1918267	n/a	LTP389	ltpFR2	12	n/a	n/a	n/a	6	11	8	2	1
938.62060546875	n/a	PROB	1922295	n/a	LTP389	ltpFR2	12	n/a	n/a	n/a	6	12	4	5	3
940.00439453125	n/a	PROB	1925129	n/a	LTP389	ltpFR2	12	n/a	n/a	n/a	6	15	4	9	2
944.537109375	n/a	PROB	1934412	n/a	LTP389	ltpFR2	12	n/a	n/a	n/a	6	15	6	2	7
945.98828125	n/a	PROB	1937384	n/a	LTP389	ltpFR2	12	n/a	n/a	n/a	6	18	3	8	7
947.537109375	n/a	PROB	1940556	n/a	LTP389	ltpFR2	12	n/a	n/a	n/a	6	17	7	6	4
949.17138671875	n/a	PROB	1943903	n/a	LTP389	ltpFR2	12	n/a	n/a	n/a	6	10	6	2	2
953.0712890625	n/a	STOP	1951890	n/a	LTP389	ltpFR2	12	n/a	n/a	n/a	6	n/a	n/a	n/a	n/a
955.02099609375	n/a	REC_START	1955883	n/a	LTP389	ltpFR2	12	4	n/a	n/a	n/a	n/a	0	0	0
956.69775390625	n/a	REC_WORD	1959317	wordpools/wasnorm_wordpool_576.txt	LTP389	ltpFR2	12	4	VELVET	1555	n/a	n/a	0	0	0
958.02099609375	n/a	REC_WORD	1962027	wordpools/wasnorm_wordpool_576.txt	LTP389	ltpFR2	12	4	BEAST	108	n/a	n/a	0	0	0
958.7939453125	n/a	REC_WORD	1963610	wordpools/wasnorm_wordpool_576.txt	LTP389	ltpFR2	12	4	CREATURE	403	n/a	n/a	0	0	0
959.68505859375	n/a	REC_WORD	1965435	wordpools/wasnorm_wordpool_576.txt	LTP389	ltpFR2	12	4	CHAPEL	280	n/a	n/a	0	0	0
960.5048828125	n/a	REC_WORD	1967114	wordpools/wasnorm_wordpool_576.txt	LTP389	ltpFR2	12	4	COUCH	386	n/a	n/a	0	0	0
961.34375	n/a	REC_WORD	1968832	wordpools/wasnorm_wordpool_576.txt	LTP389	ltpFR2	12	4	BASEMENT	94	n/a	n/a	0	0	0
963.98291015625	n/a	REC_WORD	1974237	wordpools/wasnorm_wordpool_576.txt	LTP389	ltpFR2	12	4	SLUG	1329	n/a	n/a	0	0	0
966.52587890625	n/a	REC_WORD	1979445	wordpools/wasnorm_wordpool_576.txt	LTP389	ltpFR2	12	4	SNACK	1331	n/a	n/a	0	0	0
967.5498046875	n/a	REC_WORD	1981542	wordpools/wasnorm_wordpool_576.txt	LTP389	ltpFR2	12	4	CAFE	216	n/a	n/a	0	0	0
968.56982421875	n/a	REC_WORD	1983631	wordpools/wasnorm_wordpool_576.txt	LTP389	ltpFR2	12	4	WAITRESS	1581	n/a	n/a	0	0	0
970.11279296875	n/a	REC_WORD	1986791	wordpools/wasnorm_wordpool_576.txt	LTP389	ltpFR2	12	4	HONEY	713	n/a	n/a	0	0	0
972.50048828125	n/a	REC_WORD	1991681	wordpools/wasnorm_wordpool_576.txt	LTP389	ltpFR2	12	4	COURSE	390	n/a	n/a	0	0	0
975.7314453125	n/a	REC_WORD	1998298	wordpools/wasnorm_wordpool_576.txt	LTP389	ltpFR2	12	4	COLLEGE	346	n/a	n/a	0	0	0
995.65283203125	n/a	REC_WORD	2039097	wordpools/wasnorm_wordpool_576.txt	LTP389	ltpFR2	12	4	JUDGE	761	n/a	n/a	0	0	0
1002.62451171875	n/a	REC_WORD	2053375	wordpools/wasnorm_wordpool_576.txt	LTP389	ltpFR2	12	4	LUNCH	849	n/a	n/a	0	0	0
1045.482421875	n/a	WORD	2141148	wordpools/wasnorm_wordpool_576.txt	LTP389	ltpFR2	12	5	MONSTER	912	n/a	n/a	0	0	0
1047.916015625	n/a	WORD	2146132	wordpools/wasnorm_wordpool_576.txt	LTP389	ltpFR2	12	5	CATCHER	258	n/a	n/a	0	0	0
1050.51513671875	n/a	WORD	2151455	wordpools/wasnorm_wordpool_576.txt	LTP389	ltpFR2	12	5	BOX	159	n/a	n/a	0	0	0
1052.9501953125	n/a	WORD	2156442	wordpools/wasnorm_wordpool_576.txt	LTP389	ltpFR2	12	5	AUTHOR	61	n/a	n/a	0	0	0
1055.76611328125	n/a	WORD	2162209	wordpools/wasnorm_wordpool_576.txt	LTP389	ltpFR2	12	5	JAPAN	749	n/a	n/a	0	0	0
1058.26611328125	n/a	WORD	2167329	wordpools/wasnorm_wordpool_576.txt	LTP389	ltpFR2	12	5	GHETTO	633	n/a	n/a	0	0	0
1060.73193359375	n/a	WORD	2172379	wordpools/wasnorm_wordpool_576.txt	LTP389	ltpFR2	12	5	BARREL	91	n/a	n/a	0	0	0
1063.23291015625	n/a	WORD	2177501	wordpools/wasnorm_wordpool_576.txt	LTP389	ltpFR2	12	5	BUCKET	184	n/a	n/a	0	0	0
1065.99853515625	n/a	WORD	2183165	wordpools/wasnorm_wordpool_576.txt	LTP389	ltpFR2	12	5	GANGSTER	620	n/a	n/a	0	0	0
1068.6474609375	n/a	WORD	2188590	wordpools/wasnorm_wordpool_576.txt	LTP389	ltpFR2	12	5	MAILMAN	858	n/a	n/a	0	0	0
1071.24853515625	n/a	WORD	2193917	wordpools/wasnorm_wordpool_576.txt	LTP389	ltpFR2	12	5	POET	1095	n/a	n/a	0	0	0
1073.9482421875	n/a	WORD	2199446	wordpools/wasnorm_wordpool_576.txt	LTP389	ltpFR2	12	5	LIVER	833	n/a	n/a	0	0	0
1076.74853515625	n/a	WORD	2205181	wordpools/wasnorm_wordpool_576.txt	LTP389	ltpFR2	12	5	ASIA	46	n/a	n/a	0	0	0
1079.43115234375	n/a	WORD	2210675	wordpools/wasnorm_wordpool_576.txt	LTP389	ltpFR2	12	5	PATROL	1027	n/a	n/a	0	0	0
1082.1982421875	n/a	WORD	2216342	wordpools/wasnorm_wordpool_576.txt	LTP389	ltpFR2	12	5	FEMALE	559	n/a	n/a	0	0	0
1085.01513671875	n/a	WORD	2222111	wordpools/wasnorm_wordpool_576.txt	LTP389	ltpFR2	12	5	LOVER	846	n/a	n/a	0	0	0
1087.51416015625	n/a	WORD	2227229	wordpools/wasnorm_wordpool_576.txt	LTP389	ltpFR2	12	5	BACKBONE	66	n/a	n/a	0	0	0
1089.998046875	n/a	WORD	2232316	wordpools/wasnorm_wordpool_576.txt	LTP389	ltpFR2	12	5	PANTHER	1009	n/a	n/a	0	0	0
1092.47998046875	n/a	WORD	2237399	wordpools/wasnorm_wordpool_576.txt	LTP389	ltpFR2	12	5	LAMP	798	n/a	n/a	0	0	0
1095.03076171875	n/a	WORD	2242623	wordpools/wasnorm_wordpool_576.txt	LTP389	ltpFR2	12	5	JOURNAL	760	n/a	n/a	0	0	0
1097.69677734375	n/a	WORD	2248083	wordpools/wasnorm_wordpool_576.txt	LTP389	ltpFR2	12	5	BINDER	127	n/a	n/a	0	0	0
1100.2138671875	n/a	WORD	2253238	wordpools/wasnorm_wordpool_576.txt	LTP389	ltpFR2	12	5	GIRL	637	n/a	n/a	0	0	0
1103.03076171875	n/a	WORD	2259007	wordpools/wasnorm_wordpool_576.txt	LTP389	ltpFR2	12	5	CABIN	211	n/a	n/a	0	0	0
1105.83056640625	n/a	WORD	2264741	wordpools/wasnorm_wordpool_576.txt	LTP389	ltpFR2	12	5	BALLOON	75	n/a	n/a	0	0	0
1107.447265625	n/a	START	2268052	n/a	LTP389	ltpFR2	12	n/a	n/a	n/a	7	n/a	n/a	n/a	n/a
1108.4921875	n/a	DISTRACTOR	2270192	n/a	LTP389	ltpFR2	12	5	n/a	n/a	n/a	n/a	0	0	0
1108.49658203125	n/a	PROB	2270201	n/a	LTP389	ltpFR2	12	n/a	n/a	n/a	7	26	8	9	9
1111.98046875	n/a	PROB	2277336	n/a	LTP389	ltpFR2	12	n/a	n/a	n/a	7	19	2	8	9
1113.830078125	n/a	PROB	2281124	n/a	LTP389	ltpFR2	12	n/a	n/a	n/a	7	15	5	8	2
1115.447265625	n/a	PROB	2284436	n/a	LTP389	ltpFR2	12	n/a	n/a	n/a	7	17	7	8	2
1117.47900390625	n/a	PROB	2288597	n/a	LTP389	ltpFR2	12	n/a	n/a	n/a	7	14	5	6	3
1118.962890625	n/a	PROB	2291636	n/a	LTP389	ltpFR2	12	n/a	n/a	n/a	7	17	5	5	7
1120.1630859375	n/a	PROB	2294094	n/a	LTP389	ltpFR2	12	n/a	n/a	n/a	7	18	3	9	6
1122.845703125	n/a	PROB	2299588	n/a	LTP389	ltpFR2	12	n/a	n/a	n/a	7	19	2	8	9
1124.51171875	n/a	PROB	2303000	n/a	LTP389	ltpFR2	12	n/a	n/a	n/a	7	9	5	2	2
1125.962890625	n/a	PROB	2305972	n/a	LTP389	ltpFR2	12	n/a	n/a	n/a	7	22	9	9	4
1127.51171875	n/a	PROB	2309144	n/a	LTP389	ltpFR2	12	n/a	n/a	n/a	7	13	6	2	5
1128.9296875	n/a	PROB	2312048	n/a	LTP389	ltpFR2	12	n/a	n/a	n/a	7	20	9	2	9
1130.638671875	n/a	STOP	2315548	n/a	LTP389	ltpFR2	12	n/a	n/a	n/a	7	n/a	n/a	n/a	n/a
1133.37939453125	n/a	REC_START	2321161	n/a	LTP389	ltpFR2	12	5	n/a	n/a	n/a	n/a	0	0	0
1136.92138671875	n/a	REC_WORD	2328415	wordpools/wasnorm_wordpool_576.txt	LTP389	ltpFR2	12	5	ASIA	46	n/a	n/a	0	0	0
1137.76171875	n/a	REC_WORD	2330136	wordpools/wasnorm_wordpool_576.txt	LTP389	ltpFR2	12	5	CATCHER	258	n/a	n/a	0	0	0
1139.6923828125	n/a	REC_WORD	2334090	wordpools/wasnorm_wordpool_576.txt	LTP389	ltpFR2	12	5	MONSTER	912	n/a	n/a	0	0	0
1140.7373046875	n/a	REC_WORD	2336230	wordpools/wasnorm_wordpool_576.txt	LTP389	ltpFR2	12	5	BOX	159	n/a	n/a	0	0	0
1141.5751953125	n/a	REC_WORD	2337946	wordpools/wasnorm_wordpool_576.txt	LTP389	ltpFR2	12	5	JAPAN	749	n/a	n/a	0	0	0
1142.568359375	n/a	REC_WORD	2339980	wordpools/wasnorm_wordpool_576.txt	LTP389	ltpFR2	12	5	BUCKET	184	n/a	n/a	0	0	0
1143.84912109375	n/a	REC_WORD	2342603	wordpools/wasnorm_wordpool_576.txt	LTP389	ltpFR2	12	5	BARREL	91	n/a	n/a	0	0	0
1144.87109375	n/a	REC_WORD	2344696	wordpools/wasnorm_wordpool_576.txt	LTP389	ltpFR2	12	5	PANTHER	1009	n/a	n/a	0	0	0
1145.9091796875	n/a	REC_WORD	2346822	wordpools/wasnorm_wordpool_576.txt	LTP389	ltpFR2	12	5	LAMP	798	n/a	n/a	0	0	0
1146.71240234375	n/a	REC_WORD	2348467	wordpools/wasnorm_wordpool_576.txt	LTP389	ltpFR2	12	5	BALLOON	75	n/a	n/a	0	0	0
1147.88037109375	n/a	REC_WORD	2350859	wordpools/wasnorm_wordpool_576.txt	LTP389	ltpFR2	12	5	CABIN	211	n/a	n/a	0	0	0
1149.033203125	n/a	REC_WORD	2353220	wordpools/wasnorm_wordpool_576.txt	LTP389	ltpFR2	12	5	AUTHOR	61	n/a	n/a	0	0	0
1149.9609375	n/a	REC_WORD	2355120	wordpools/wasnorm_wordpool_576.txt	LTP389	ltpFR2	12	5	POET	1095	n/a	n/a	0	0	0
1152.240234375	n/a	REC_WORD	2359788	wordpools/wasnorm_wordpool_576.txt	LTP389	ltpFR2	12	5	FEMALE	559	n/a	n/a	0	0	0
1153.376953125	n/a	REC_WORD	2362116	wordpools/wasnorm_wordpool_576.txt	LTP389	ltpFR2	12	5	LOVER	846	n/a	n/a	0	0	0
1154.35791015625	n/a	REC_WORD	2364125	wordpools/wasnorm_wordpool_576.txt	LTP389	ltpFR2	12	5	LADY	794	n/a	n/a	0	0	0
1168.99267578125	n/a	REC_WORD	2394097	wordpools/wasnorm_wordpool_576.txt	LTP389	ltpFR2	12	5	ASIA	46	n/a	n/a	0	0	0
1223.82470703125	n/a	DISTRACTOR	2506393	n/a	LTP389	ltpFR2	12	6	n/a	n/a	n/a	n/a	0	0	0
1223.82470703125	n/a	START	2506393	n/a	LTP389	ltpFR2	12	n/a	n/a	n/a	8	n/a	n/a	n/a	n/a
1223.841796875	n/a	PROB	2506428	n/a	LTP389	ltpFR2	12	n/a	n/a	n/a	8	20	9	9	2
1225.2080078125	n/a	PROB	2509226	n/a	LTP389	ltpFR2	12	n/a	n/a	n/a	8	13	1	4	8
1226.556640625	n/a	PROB	2511988	n/a	LTP389	ltpFR2	12	n/a	n/a	n/a	8	19	8	6	5
1229.62353515625	n/a	PROB	2518269	n/a	LTP389	ltpFR2	12	n/a	n/a	n/a	8	18	7	9	2
1231.40771484375	n/a	PROB	2521923	n/a	LTP389	ltpFR2	12	n/a	n/a	n/a	8	13	8	1	4
1232.90771484375	n/a	PROB	2524995	n/a	LTP389	ltpFR2	12	n/a	n/a	n/a	8	16	1	9	6
1234.091796875	n/a	PROB	2527420	n/a	LTP389	ltpFR2	12	n/a	n/a	n/a	8	6	2	2	2
1235.12451171875	n/a	PROB	2529535	n/a	LTP389	ltpFR2	12	n/a	n/a	n/a	8	23	9	9	5
1236.49072265625	n/a	PROB	2532333	n/a	LTP389	ltpFR2	12	n/a	n/a	n/a	8	18	5	5	8
1237.7744140625	n/a	PROB	2534962	n/a	LTP389	ltpFR2	12	n/a	n/a	n/a	8	26	9	9	8
1239.94140625	n/a	PROB	2539400	n/a	LTP389	ltpFR2	12	n/a	n/a	n/a	8	25	8	7	8
1242.47314453125	n/a	PROB	2544585	n/a	LTP389	ltpFR2	12	n/a	n/a	n/a	8	11	4	2	5
1243.9072265625	n/a	PROB	2547522	n/a	LTP389	ltpFR2	12	n/a	n/a	n/a	8	13	7	3	3
1245.58935546875	n/a	PROB	2550967	n/a	LTP389	ltpFR2	12	n/a	n/a	n/a	8	15	5	2	8
1246.96728515625	n/a	STOP	2553789	n/a	LTP389	ltpFR2	12	n/a	n/a	n/a	8	n/a	n/a	n/a	n/a
1249.00732421875	n/a	WORD	2557967	wordpools/wasnorm_wordpool_576.txt	LTP389	ltpFR2	12	6	BOYFRIEND	162	n/a	n/a	0	0	0
1251.623046875	n/a	WORD	2563324	wordpools/wasnorm_wordpool_576.txt	LTP389	ltpFR2	12	6	FOOT	590	n/a	n/a	0	0	0
1254.173828125	n/a	WORD	2568548	wordpools/wasnorm_wordpool_576.txt	LTP389	ltpFR2	12	6	ANKLE	24	n/a	n/a	0	0	0
1256.60595703125	n/a	WORD	2573529	wordpools/wasnorm_wordpool_576.txt	LTP389	ltpFR2	12	6	MASK	876	n/a	n/a	0	0	0
1259.373046875	n/a	WORD	2579196	wordpools/wasnorm_wordpool_576.txt	LTP389	ltpFR2	12	6	ULCER	1533	n/a	n/a	0	0	0
1261.83984375	n/a	WORD	2584248	wordpools/wasnorm_wordpool_576.txt	LTP389	ltpFR2	12	6	SHIRT	1287	n/a	n/a	0	0	0
1264.638671875	n/a	WORD	2589980	wordpools/wasnorm_wordpool_576.txt	LTP389	ltpFR2	12	6	TRENCH	1503	n/a	n/a	0	0	0
1267.32275390625	n/a	WORD	2595477	wordpools/wasnorm_wordpool_576.txt	LTP389	ltpFR2	12	6	MACHINE	852	n/a	n/a	0	0	0
1269.90625	n/a	WORD	2600768	wordpools/wasnorm_wordpool_576.txt	LTP389	ltpFR2	12	6	POSSUM	1112	n/a	n/a	0	0	0
1272.6552734375	n/a	WORD	2606398	wordpools/wasnorm_wordpool_576.txt	LTP389	ltpFR2	12	6	PIMPLE	1071	n/a	n/a	0	0	0
1275.08935546875	n/a	WORD	2611383	wordpools/wasnorm_wordpool_576.txt	LTP389	ltpFR2	12	6	BLACKBOARD	133	n/a	n/a	0	0	0
1277.62109375	n/a	WORD	2616568	wordpools/wasnorm_wordpool_576.txt	LTP389	ltpFR2	12	6	GRAVE	658	n/a	n/a	0	0	0
1280.2890625	n/a	WORD	2622032	wordpools/wasnorm_wordpool_576.txt	LTP389	ltpFR2	12	6	ONION	977	n/a	n/a	0	0	0
1282.822265625	n/a	WORD	2627220	wordpools/wasnorm_wordpool_576.txt	LTP389	ltpFR2	12	6	DRIVER	499	n/a	n/a	0	0	0
1285.48779296875	n/a	WORD	2632679	wordpools/wasnorm_wordpool_576.txt	LTP389	ltpFR2	12	6	BABY	64	n/a	n/a	0	0	0
1288.18896484375	n/a	WORD	2638211	wordpools/wasnorm_wordpool_576.txt	LTP389	ltpFR2	12	6	CHILD	299	n/a	n/a	0	0	0
1290.955078125	n/a	WORD	2643876	wordpools/wasnorm_wordpool_576.txt	LTP389	ltpFR2	12	6	ANTLER	29	n/a	n/a	0	0	0
1293.60400390625	n/a	WORD	2649301	wordpools/wasnorm_wordpool_576.txt	LTP389	ltpFR2	12	6	JELLY	755	n/a	n/a	0	0	0
1296.12158203125	n/a	WORD	2654457	wordpools/wasnorm_wordpool_576.txt	LTP389	ltpFR2	12	6	PISTOL	1075	n/a	n/a	0	0	0
1298.5537109375	n/a	WORD	2659438	wordpools/wasnorm_wordpool_576.txt	LTP389	ltpFR2	12	6	VAGRANT	1544	n/a	n/a	0	0	0
1301.28759765625	n/a	WORD	2665037	wordpools/wasnorm_wordpool_576.txt	LTP389	ltpFR2	12	6	MATCH	878	n/a	n/a	0	0	0
1304.0712890625	n/a	WORD	2670738	wordpools/wasnorm_wordpool_576.txt	LTP389	ltpFR2	12	6	MILDEW	893	n/a	n/a	0	0	0
1306.75439453125	n/a	WORD	2676233	wordpools/wasnorm_wordpool_576.txt	LTP389	ltpFR2	12	6	CHIPMUNK	304	n/a	n/a	0	0	0
1309.5703125	n/a	WORD	2682000	wordpools/wasnorm_wordpool_576.txt	LTP389	ltpFR2	12	6	POISON	1096	n/a	n/a	0	0	0
1311.1884765625	n/a	START	2685314	n/a	LTP389	ltpFR2	12	n/a	n/a	n/a	9	n/a	n/a	n/a	n/a
1312.26611328125	n/a	DISTRACTOR	2687521	n/a	LTP389	ltpFR2	12	6	n/a	n/a	n/a	n/a	0	0	0
1312.27099609375	n/a	PROB	2687531	n/a	LTP389	ltpFR2	12	n/a	n/a	n/a	9	9	1	2	6
1314.486328125	n/a	PROB	2692068	n/a	LTP389	ltpFR2	12	n/a	n/a	n/a	9	15	4	5	6
1316.1708984375	n/a	PROB	2695518	n/a	LTP389	ltpFR2	12	n/a	n/a	n/a	9	10	1	6	3
1318.32080078125	n/a	PROB	2699921	n/a	LTP389	ltpFR2	12	n/a	n/a	n/a	9	19	5	9	5
1319.65283203125	n/a	PROB	2702649	n/a	LTP389	ltpFR2	12	n/a	n/a	n/a	9	17	4	8	5
1322.1708984375	n/a	PROB	2707806	n/a	LTP389	ltpFR2	12	n/a	n/a	n/a	9	25	9	8	8
1325.25390625	n/a	PROB	2714120	n/a	LTP389	ltpFR2	12	n/a	n/a	n/a	9	24	7	8	9
1327.70263671875	n/a	PROB	2719135	n/a	LTP389	ltpFR2	12	n/a	n/a	n/a	9	13	3	3	7
1329.00390625	n/a	PROB	2721800	n/a	LTP389	ltpFR2	12	n/a	n/a	n/a	9	6	1	2	3
1330.3037109375	n/a	PROB	2724462	n/a	LTP389	ltpFR2	12	n/a	n/a	n/a	9	9	4	2	3
1331.9365234375	n/a	PROB	2727806	n/a	LTP389	ltpFR2	12	n/a	n/a	n/a	9	14	2	6	6
1333.33642578125	n/a	PROB	2730673	n/a	LTP389	ltpFR2	12	n/a	n/a	n/a	9	12	6	5	1
1335.0634765625	n/a	STOP	2734210	n/a	LTP389	ltpFR2	12	n/a	n/a	n/a	9	n/a	n/a	n/a	n/a
1337.12060546875	n/a	REC_START	2738423	n/a	LTP389	ltpFR2	12	6	n/a	n/a	n/a	n/a	0	0	0
1339.55029296875	n/a	REC_WORD	2743399	wordpools/wasnorm_wordpool_576.txt	LTP389	ltpFR2	12	6	BOYFRIEND	162	n/a	n/a	0	0	0
1340.42724609375	n/a	REC_WORD	2745195	wordpools/wasnorm_wordpool_576.txt	LTP389	ltpFR2	12	6	FOOT	590	n/a	n/a	0	0	0
1341.43310546875	n/a	REC_WORD_VV	2747255	wordpools/wasnorm_wordpool_576.txt	LTP389	ltpFR2	12	6	<>	-1	n/a	n/a	0	0	0
1342.33251953125	n/a	REC_WORD	2749097	wordpools/wasnorm_wordpool_576.txt	LTP389	ltpFR2	12	6	ANKLE	24	n/a	n/a	0	0	0
1343.4140625	n/a	REC_WORD	2751312	wordpools/wasnorm_wordpool_576.txt	LTP389	ltpFR2	12	6	MASK	876	n/a	n/a	0	0	0
1345.234375	n/a	REC_WORD	2755040	wordpools/wasnorm_wordpool_576.txt	LTP389	ltpFR2	12	6	BABY	64	n/a	n/a	0	0	0
1345.93408203125	n/a	REC_WORD	2756473	wordpools/wasnorm_wordpool_576.txt	LTP389	ltpFR2	12	6	CHILD	299	n/a	n/a	0	0	0
1346.84521484375	n/a	REC_WORD	2758339	wordpools/wasnorm_wordpool_576.txt	LTP389	ltpFR2	12	6	DRIVER	499	n/a	n/a	0	0	0
1350.0810546875	n/a	REC_WORD	2764966	wordpools/wasnorm_wordpool_576.txt	LTP389	ltpFR2	12	6	MACHINE	852	n/a	n/a	0	0	0
1351.77001953125	n/a	REC_WORD	2768425	wordpools/wasnorm_wordpool_576.txt	LTP389	ltpFR2	12	6	PISTOL	1075	n/a	n/a	0	0	0
1358.05859375	n/a	REC_WORD	2781304	wordpools/wasnorm_wordpool_576.txt	LTP389	ltpFR2	12	6	PIMPLE	1071	n/a	n/a	0	0	0
1364.49658203125	n/a	REC_WORD	2794489	wordpools/wasnorm_wordpool_576.txt	LTP389	ltpFR2	12	6	GRAVE	658	n/a	n/a	0	0	0
1369.99462890625	n/a	REC_WORD	2805749	wordpools/wasnorm_wordpool_576.txt	LTP389	ltpFR2	12	6	POSSUM	1112	n/a	n/a	0	0	0
1427.58056640625	n/a	WORD	2923685	wordpools/wasnorm_wordpool_576.txt	LTP389	ltpFR2	12	7	DRESS	495	n/a	n/a	0	0	0
1430.24853515625	n/a	WORD	2929149	wordpools/wasnorm_wordpool_576.txt	LTP389	ltpFR2	12	7	STAR	1373	n/a	n/a	0	0	0
1432.91552734375	n/a	WORD	2934611	wordpools/wasnorm_wordpool_576.txt	LTP389	ltpFR2	12	7	ROD	1203	n/a	n/a	0	0	0
1435.59765625	n/a	WORD	2940104	wordpools/wasnorm_wordpool_576.txt	LTP389	ltpFR2	12	7	EGYPT	519	n/a	n/a	0	0	0
1438.1982421875	n/a	WORD	2945430	wordpools/wasnorm_wordpool_576.txt	LTP389	ltpFR2	12	7	SPHINX	1349	n/a	n/a	0	0	0
1441.01416015625	n/a	WORD	2951197	wordpools/wasnorm_wordpool_576.txt	LTP389	ltpFR2	12	7	CARRIAGE	248	n/a	n/a	0	0	0
1443.748046875	n/a	WORD	2956796	wordpools/wasnorm_wordpool_576.txt	LTP389	ltpFR2	12	7	CRUTCH	417	n/a	n/a	0	0	0
1446.3310546875	n/a	WORD	2962086	wordpools/wasnorm_wordpool_576.txt	LTP389	ltpFR2	12	7	PADDLE	1000	n/a	n/a	0	0	0
1449.0810546875	n/a	WORD	2967718	wordpools/wasnorm_wordpool_576.txt	LTP389	ltpFR2	12	7	ROCKET	1202	n/a	n/a	0	0	0
1451.61279296875	n/a	WORD	2972903	wordpools/wasnorm_wordpool_576.txt	LTP389	ltpFR2	12	7	LEG	809	n/a	n/a	0	0	0
1454.19775390625	n/a	WORD	2978197	wordpools/wasnorm_wordpool_576.txt	LTP389	ltpFR2	12	7	CLIMBER	323	n/a	n/a	0	0	0
1456.9140625	n/a	WORD	2983760	wordpools/wasnorm_wordpool_576.txt	LTP389	ltpFR2	12	7	FRIAR	605	n/a	n/a	0	0	0
1459.44677734375	n/a	WORD	2988947	wordpools/wasnorm_wordpool_576.txt	LTP389	ltpFR2	12	7	TEMPLE	1448	n/a	n/a	0	0	0
1461.94677734375	n/a	WORD	2994067	wordpools/wasnorm_wordpool_576.txt	LTP389	ltpFR2	12	7	CATTLE	261	n/a	n/a	0	0	0
1464.763671875	n/a	WORD	2999836	wordpools/wasnorm_wordpool_576.txt	LTP389	ltpFR2	12	7	FLUTE	585	n/a	n/a	0	0	0
1467.38037109375	n/a	WORD	3005195	wordpools/wasnorm_wordpool_576.txt	LTP389	ltpFR2	12	7	RATTLE	1170	n/a	n/a	0	0	0
1470.1962890625	n/a	WORD	3010962	wordpools/wasnorm_wordpool_576.txt	LTP389	ltpFR2	12	7	CRAYON	401	n/a	n/a	0	0	0
1472.88037109375	n/a	WORD	3016459	wordpools/wasnorm_wordpool_576.txt	LTP389	ltpFR2	12	7	FREEZER	604	n/a	n/a	0	0	0
1475.51220703125	n/a	WORD	3021849	wordpools/wasnorm_wordpool_576.txt	LTP389	ltpFR2	12	7	QUARTER	1148	n/a	n/a	0	0	0
1478.1630859375	n/a	WORD	3027278	wordpools/wasnorm_wordpool_576.txt	LTP389	ltpFR2	12	7	MAPLE	866	n/a	n/a	0	0	0
1480.81298828125	n/a	WORD	3032705	wordpools/wasnorm_wordpool_576.txt	LTP389	ltpFR2	12	7	POWDER	1117	n/a	n/a	0	0	0
1483.52880859375	n/a	WORD	3038267	wordpools/wasnorm_wordpool_576.txt	LTP389	ltpFR2	12	7	PICTURE	1061	n/a	n/a	0	0	0
1486.212890625	n/a	WORD	3043764	wordpools/wasnorm_wordpool_576.txt	LTP389	ltpFR2	12	7	DENIM	446	n/a	n/a	0	0	0
1489.0126953125	n/a	WORD	3049498	wordpools/wasnorm_wordpool_576.txt	LTP389	ltpFR2	12	7	CURTAIN	427	n/a	n/a	0	0	0
1490.62890625	n/a	START	3052808	n/a	LTP389	ltpFR2	12	n/a	n/a	n/a	10	n/a	n/a	n/a	n/a
1491.60498046875	n/a	DISTRACTOR	3054807	n/a	LTP389	ltpFR2	12	7	n/a	n/a	n/a	n/a	0	0	0
1491.61181640625	n/a	PROB	3054821	n/a	LTP389	ltpFR2	12	n/a	n/a	n/a	10	12	2	9	1
1493.0458984375	n/a	PROB	3057758	n/a	LTP389	ltpFR2	12	n/a	n/a	n/a	10	19	5	9	5
1494.44482421875	n/a	PROB	3060623	n/a	LTP389	ltpFR2	12	n/a	n/a	n/a	10	20	9	7	4
1497.095703125	n/a	PROB	3066052	n/a	LTP389	ltpFR2	12	n/a	n/a	n/a	10	19	4	9	6
1498.978515625	n/a	PROB	3069908	n/a	LTP389	ltpFR2	12	n/a	n/a	n/a	10	7	2	3	2
1500.7626953125	n/a	PROB	3073562	n/a	LTP389	ltpFR2	12	n/a	n/a	n/a	10	5	1	3	1
1501.87841796875	n/a	PROB	3075847	n/a	LTP389	ltpFR2	12	n/a	n/a	n/a	10	22	9	5	8
1504.84521484375	n/a	PROB	3081923	n/a	LTP389	ltpFR2	12	n/a	n/a	n/a	10	20	9	4	7
1507.26123046875	n/a	PROB	3086871	n/a	LTP389	ltpFR2	12	n/a	n/a	n/a	10	16	8	7	1
1508.72705078125	n/a	PROB	3089873	n/a	LTP389	ltpFR2	12	n/a	n/a	n/a	10	15	5	3	7
1510.31103515625	n/a	PROB	3093117	n/a	LTP389	ltpFR2	12	n/a	n/a	n/a	10	22	5	9	8
1512.52734375	n/a	PROB	3097656	n/a	LTP389	ltpFR2	12	n/a	n/a	n/a	10	18	5	4	9
1513.96728515625	n/a	STOP	3100605	n/a	LTP389	ltpFR2	12	n/a	n/a	n/a	10	n/a	n/a	n/a	n/a
1516.51123046875	n/a	REC_START	3105815	n/a	LTP389	ltpFR2	12	7	n/a	n/a	n/a	n/a	0	0	0
1517.77685546875	n/a	REC_WORD	3108407	wordpools/wasnorm_wordpool_576.txt	LTP389	ltpFR2	12	7	DRESS	495	n/a	n/a	0	0	0
1520.56005859375	n/a	REC_WORD	3114107	wordpools/wasnorm_wordpool_576.txt	LTP389	ltpFR2	12	7	LEG	809	n/a	n/a	0	0	0
1521.5498046875	n/a	REC_WORD	3116134	wordpools/wasnorm_wordpool_576.txt	LTP389	ltpFR2	12	7	CRUTCH	417	n/a	n/a	0	0	0
1523.02197265625	n/a	REC_WORD	3119149	wordpools/wasnorm_wordpool_576.txt	LTP389	ltpFR2	12	7	DENIM	446	n/a	n/a	0	0	0
1523.85791015625	n/a	REC_WORD	3120861	wordpools/wasnorm_wordpool_576.txt	LTP389	ltpFR2	12	7	CURTAIN	427	n/a	n/a	0	0	0
1527.73876953125	n/a	REC_WORD	3128809	wordpools/wasnorm_wordpool_576.txt	LTP389	ltpFR2	12	7	PICTURE	1061	n/a	n/a	0	0	0
1530.31640625	n/a	REC_WORD	3134088	wordpools/wasnorm_wordpool_576.txt	LTP389	ltpFR2	12	7	ROD	1203	n/a	n/a	0	0	0
1531.34375	n/a	REC_WORD	3136192	wordpools/wasnorm_wordpool_576.txt	LTP389	ltpFR2	12	7	STAR	1373	n/a	n/a	0	0	0
1549.828125	n/a	REC_WORD	3174048	wordpools/wasnorm_wordpool_576.txt	LTP389	ltpFR2	12	7	SPHINX	1349	n/a	n/a	0	0	0
1551.19287109375	n/a	REC_WORD	3176843	wordpools/wasnorm_wordpool_576.txt	LTP389	ltpFR2	12	7	EGYPT	519	n/a	n/a	0	0	0
1578.38330078125	n/a	REC_WORD	3232529	wordpools/wasnorm_wordpool_576.txt	LTP389	ltpFR2	12	7	MAPLE	866	n/a	n/a	0	0	0
1606.9404296875	n/a	DISTRACTOR	3291014	n/a	LTP389	ltpFR2	12	8	n/a	n/a	n/a	n/a	0	0	0
1606.9404296875	n/a	START	3291014	n/a	LTP389	ltpFR2	12	n/a	n/a	n/a	11	n/a	n/a	n/a	n/a
1606.95751953125	n/a	PROB	3291049	n/a	LTP389	ltpFR2	12	n/a	n/a	n/a	11	16	7	5	4
1608.7734375	n/a	PROB	3294768	n/a	LTP389	ltpFR2	12	n/a	n/a	n/a	11	20	9	2	9
1610.39013671875	n/a	PROB	3298079	n/a	LTP389	ltpFR2	12	n/a	n/a	n/a	11	15	1	5	9
1612.20703125	n/a	PROB	3301800	n/a	LTP389	ltpFR2	12	n/a	n/a	n/a	11	17	6	9	2
1614.55615234375	n/a	PROB	3306611	n/a	LTP389	ltpFR2	12	n/a	n/a	n/a	11	9	1	2	6
1615.95703125	n/a	PROB	3309480	n/a	LTP389	ltpFR2	12	n/a	n/a	n/a	11	17	1	8	8
1617.32275390625	n/a	PROB	3312277	n/a	LTP389	ltpFR2	12	n/a	n/a	n/a	11	17	7	4	6
1619.0068359375	n/a	PROB	3315726	n/a	LTP389	ltpFR2	12	n/a	n/a	n/a	11	18	1	8	9
1620.60595703125	n/a	PROB	3319001	n/a	LTP389	ltpFR2	12	n/a	n/a	n/a	11	16	8	4	4
1621.95703125	n/a	PROB	3321768	n/a	LTP389	ltpFR2	12	n/a	n/a	n/a	11	16	8	6	2
1623.53857421875	n/a	PROB	3325007	n/a	LTP389	ltpFR2	12	n/a	n/a	n/a	11	10	2	1	7
1626.3056640625	n/a	PROB	3330674	n/a	LTP389	ltpFR2	12	n/a	n/a	n/a	11	12	4	5	3
1627.6044921875	n/a	PROB	3333334	n/a	LTP389	ltpFR2	12	n/a	n/a	n/a	11	18	4	6	8
1630.939453125	n/a	STOP	3340164	n/a	LTP389	ltpFR2	12	n/a	n/a	n/a	11	n/a	n/a	n/a	n/a
1631.85546875	n/a	WORD	3342040	wordpools/wasnorm_wordpool_576.txt	LTP389	ltpFR2	12	8	FRAME	600	n/a	n/a	0	0	0
1634.521484375	n/a	WORD	3347500	wordpools/wasnorm_wordpool_576.txt	LTP389	ltpFR2	12	8	PLATE	1086	n/a	n/a	0	0	0
1636.939453125	n/a	WORD	3352452	wordpools/wasnorm_wordpool_576.txt	LTP389	ltpFR2	12	8	SANDWICH	1232	n/a	n/a	0	0	0
1639.47119140625	n/a	WORD	3357637	wordpools/wasnorm_wordpool_576.txt	LTP389	ltpFR2	12	8	PALACE	1006	n/a	n/a	0	0	0
1641.92236328125	n/a	WORD	3362657	wordpools/wasnorm_wordpool_576.txt	LTP389	ltpFR2	12	8	AGENT	10	n/a	n/a	0	0	0
1644.5712890625	n/a	WORD	3368082	wordpools/wasnorm_wordpool_576.txt	LTP389	ltpFR2	12	8	PEANUT	1032	n/a	n/a	0	0	0
1647.0390625	n/a	WORD	3373136	wordpools/wasnorm_wordpool_576.txt	LTP389	ltpFR2	12	8	STAMP	1370	n/a	n/a	0	0	0
1649.77197265625	n/a	WORD	3378733	wordpools/wasnorm_wordpool_576.txt	LTP389	ltpFR2	12	8	PUPIL	1143	n/a	n/a	0	0	0
1652.35498046875	n/a	WORD	3384023	wordpools/wasnorm_wordpool_576.txt	LTP389	ltpFR2	12	8	DONOR	485	n/a	n/a	0	0	0
1654.7880859375	n/a	WORD	3389006	wordpools/wasnorm_wordpool_576.txt	LTP389	ltpFR2	12	8	FRANCE	601	n/a	n/a	0	0	0
1657.52099609375	n/a	WORD	3394603	wordpools/wasnorm_wordpool_576.txt	LTP389	ltpFR2	12	8	COSTUME	383	n/a	n/a	0	0	0
1660.23779296875	n/a	WORD	3400167	wordpools/wasnorm_wordpool_576.txt	LTP389	ltpFR2	12	8	RELISH	1183	n/a	n/a	0	0	0
1662.82177734375	n/a	WORD	3405459	wordpools/wasnorm_wordpool_576.txt	LTP389	ltpFR2	12	8	COIN	343	n/a	n/a	0	0	0
1665.42138671875	n/a	WORD	3410783	wordpools/wasnorm_wordpool_576.txt	LTP389	ltpFR2	12	8	ZEBRA	1635	n/a	n/a	0	0	0
1667.8544921875	n/a	WORD	3415766	wordpools/wasnorm_wordpool_576.txt	LTP389	ltpFR2	12	8	SCULPTURE	1258	n/a	n/a	0	0	0
1670.55322265625	n/a	WORD	3421293	wordpools/wasnorm_wordpool_576.txt	LTP389	ltpFR2	12	8	DRAWING	494	n/a	n/a	0	0	0
1673.3544921875	n/a	WORD	3427030	wordpools/wasnorm_wordpool_576.txt	LTP389	ltpFR2	12	8	XEROX	1628	n/a	n/a	0	0	0
1675.83740234375	n/a	WORD	3432115	wordpools/wasnorm_wordpool_576.txt	LTP389	ltpFR2	12	8	POLICE	1098	n/a	n/a	0	0	0
1678.419921875	n/a	WORD	3437404	wordpools/wasnorm_wordpool_576.txt	LTP389	ltpFR2	12	8	CONVICT	371	n/a	n/a	0	0	0
1681.10400390625	n/a	WORD	3442901	wordpools/wasnorm_wordpool_576.txt	LTP389	ltpFR2	12	8	TRANSPLANT	1496	n/a	n/a	0	0	0
1683.56884765625	n/a	WORD	3447949	wordpools/wasnorm_wordpool_576.txt	LTP389	ltpFR2	12	8	PRINCE	1124	n/a	n/a	0	0	0
1686.169921875	n/a	WORD	3453276	wordpools/wasnorm_wordpool_576.txt	LTP389	ltpFR2	12	8	LILY	821	n/a	n/a	0	0	0
1688.8369140625	n/a	WORD	3458738	wordpools/wasnorm_wordpool_576.txt	LTP389	ltpFR2	12	8	COUNTY	389	n/a	n/a	0	0	0
1691.61865234375	n/a	WORD	3464435	wordpools/wasnorm_wordpool_576.txt	LTP389	ltpFR2	12	8	POPCORN	1104	n/a	n/a	0	0	0
1693.2197265625	n/a	START	3467714	n/a	LTP389	ltpFR2	12	n/a	n/a	n/a	12	n/a	n/a	n/a	n/a
1694.263671875	n/a	DISTRACTOR	3469852	n/a	LTP389	ltpFR2	12	8	n/a	n/a	n/a	n/a	0	0	0
1694.26953125	n/a	PROB	3469864	n/a	LTP389	ltpFR2	12	n/a	n/a	n/a	12	10	2	7	1
1696.20263671875	n/a	PROB	3473823	n/a	LTP389	ltpFR2	12	n/a	n/a	n/a	12	17	7	9	1
1697.75244140625	n/a	PROB	3476997	n/a	LTP389	ltpFR2	12	n/a	n/a	n/a	12	14	5	3	6
1700.86962890625	n/a	PROB	3483381	n/a	LTP389	ltpFR2	12	n/a	n/a	n/a	12	18	7	8	3
1702.55126953125	n/a	PROB	3486825	n/a	LTP389	ltpFR2	12	n/a	n/a	n/a	12	17	8	3	6
1704.33642578125	n/a	PROB	3490481	n/a	LTP389	ltpFR2	12	n/a	n/a	n/a	12	19	7	8	4
1706.41943359375	n/a	PROB	3494747	n/a	LTP389	ltpFR2	12	n/a	n/a	n/a	12	12	9	1	2
1707.986328125	n/a	PROB	3497956	n/a	LTP389	ltpFR2	12	n/a	n/a	n/a	12	19	3	8	8
1709.90234375	n/a	PROB	3501880	n/a	LTP389	ltpFR2	12	n/a	n/a	n/a	12	13	7	1	5
1711.5009765625	n/a	PROB	3505154	n/a	LTP389	ltpFR2	12	n/a	n/a	n/a	12	18	4	6	8
1712.701171875	n/a	PROB	3507612	n/a	LTP389	ltpFR2	12	n/a	n/a	n/a	12	14	1	4	9
1715.10205078125	n/a	PROB	3512529	n/a	LTP389	ltpFR2	12	n/a	n/a	n/a	12	18	7	4	7
1716.56591796875	n/a	STOP	3515527	n/a	LTP389	ltpFR2	12	n/a	n/a	n/a	12	n/a	n/a	n/a	n/a
1719.0859375	n/a	REC_START	3520688	n/a	LTP389	ltpFR2	12	8	n/a	n/a	n/a	n/a	0	0	0
1724.87158203125	n/a	REC_WORD	3532537	wordpools/wasnorm_wordpool_576.txt	LTP389	ltpFR2	12	8	FRAME	600	n/a	n/a	0	0	0
1725.74462890625	n/a	REC_WORD	3534325	wordpools/wasnorm_wordpool_576.txt	LTP389	ltpFR2	12	8	PLATE	1086	n/a	n/a	0	0	0
1726.2724609375	n/a	REC_WORD	3535406	wordpools/wasnorm_wordpool_576.txt	LTP389	ltpFR2	12	8	SANDWICH	1232	n/a	n/a	0	0	0
1727.33740234375	n/a	REC_WORD	3537587	wordpools/wasnorm_wordpool_576.txt	LTP389	ltpFR2	12	8	RELISH	1183	n/a	n/a	0	0	0
1728.07373046875	n/a	REC_WORD	3539095	wordpools/wasnorm_wordpool_576.txt	LTP389	ltpFR2	12	8	PEANUT	1032	n/a	n/a	0	0	0
1728.93359375	n/a	REC_WORD	3540856	wordpools/wasnorm_wordpool_576.txt	LTP389	ltpFR2	12	8	PALACE	1006	n/a	n/a	0	0	0
1729.8125	n/a	REC_WORD	3542656	wordpools/wasnorm_wordpool_576.txt	LTP389	ltpFR2	12	8	PRINCE	1124	n/a	n/a	0	0	0
1731.08544921875	n/a	REC_WORD	3545263	wordpools/wasnorm_wordpool_576.txt	LTP389	ltpFR2	12	8	AGENT	10	n/a	n/a	0	0	0
1733.025390625	n/a	REC_WORD	3549236	wordpools/wasnorm_wordpool_576.txt	LTP389	ltpFR2	12	8	COIN	343	n/a	n/a	0	0	0
1739.59912109375	n/a	REC_WORD	3562699	wordpools/wasnorm_wordpool_576.txt	LTP389	ltpFR2	12	8	COUNTY	389	n/a	n/a	0	0	0
1758.53271484375	n/a	REC_WORD	3601475	wordpools/wasnorm_wordpool_576.txt	LTP389	ltpFR2	12	8	POLICE	1098	n/a	n/a	0	0	0
1765.1103515625	n/a	REC_WORD	3614946	wordpools/wasnorm_wordpool_576.txt	LTP389	ltpFR2	12	8	SUSPECT	1415	n/a	n/a	0	0	0
1795.63037109375	n/a	REST_REWET	3677451	n/a	LTP389	ltpFR2	12	8	n/a	n/a	n/a	n/a	0	0	0
1942.55712890625	n/a	WORD	3978357	wordpools/wasnorm_wordpool_576.txt	LTP389	ltpFR2	12	9	FOOTBALL	591	n/a	n/a	0	0	0
1945.2080078125	n/a	WORD	3983786	wordpools/wasnorm_wordpool_576.txt	LTP389	ltpFR2	12	9	PAIL	1002	n/a	n/a	0	0	0
1947.875	n/a	WORD	3989248	wordpools/wasnorm_wordpool_576.txt	LTP389	ltpFR2	12	9	BRACES	164	n/a	n/a	0	0	0
1950.43994140625	n/a	WORD	3994501	wordpools/wasnorm_wordpool_576.txt	LTP389	ltpFR2	12	9	RECEIPT	1173	n/a	n/a	0	0	0
1953.0078125	n/a	WORD	3999760	wordpools/wasnorm_wordpool_576.txt	LTP389	ltpFR2	12	9	CRICKET	408	n/a	n/a	0	0	0
1955.48974609375	n/a	WORD	4004843	wordpools/wasnorm_wordpool_576.txt	LTP389	ltpFR2	12	9	UMPIRE	1535	n/a	n/a	0	0	0
1958.12353515625	n/a	WORD	4010237	wordpools/wasnorm_wordpool_576.txt	LTP389	ltpFR2	12	9	PERMIT	1051	n/a	n/a	0	0	0
1960.90771484375	n/a	WORD	4015939	wordpools/wasnorm_wordpool_576.txt	LTP389	ltpFR2	12	9	HARP	689	n/a	n/a	0	0	0
1963.357421875	n/a	WORD	4020956	wordpools/wasnorm_wordpool_576.txt	LTP389	ltpFR2	12	9	BOUQUET	157	n/a	n/a	0	0	0
1966.0732421875	n/a	WORD	4026518	wordpools/wasnorm_wordpool_576.txt	LTP389	ltpFR2	12	9	LADY	794	n/a	n/a	0	0	0
1968.50634765625	n/a	WORD	4031501	wordpools/wasnorm_wordpool_576.txt	LTP389	ltpFR2	12	9	WOMAN	1620	n/a	n/a	0	0	0
1970.95703125	n/a	WORD	4036520	wordpools/wasnorm_wordpool_576.txt	LTP389	ltpFR2	12	9	MAMMAL	861	n/a	n/a	0	0	0
1973.52197265625	n/a	WORD	4041773	wordpools/wasnorm_wordpool_576.txt	LTP389	ltpFR2	12	9	OFFICE	972	n/a	n/a	0	0	0
1976.14013671875	n/a	WORD	4047135	wordpools/wasnorm_wordpool_576.txt	LTP389	ltpFR2	12	9	WORKER	1621	n/a	n/a	0	0	0
1978.671875	n/a	WORD	4052320	wordpools/wasnorm_wordpool_576.txt	LTP389	ltpFR2	12	9	ICEBERG	731	n/a	n/a	0	0	0
1981.10595703125	n/a	WORD	4057305	wordpools/wasnorm_wordpool_576.txt	LTP389	ltpFR2	12	9	STICKER	1382	n/a	n/a	0	0	0
1983.85595703125	n/a	WORD	4062937	wordpools/wasnorm_wordpool_576.txt	LTP389	ltpFR2	12	9	SWIMMER	1420	n/a	n/a	0	0	0
1986.4228515625	n/a	WORD	4068194	wordpools/wasnorm_wordpool_576.txt	LTP389	ltpFR2	12	9	BIKE	125	n/a	n/a	0	0	0
1989.12255859375	n/a	WORD	4073723	wordpools/wasnorm_wordpool_576.txt	LTP389	ltpFR2	12	9	ATOM	55	n/a	n/a	0	0	0
1991.7724609375	n/a	WORD	4079150	wordpools/wasnorm_wordpool_576.txt	LTP389	ltpFR2	12	9	IGLOO	734	n/a	n/a	0	0	0
1994.33837890625	n/a	WORD	4084405	wordpools/wasnorm_wordpool_576.txt	LTP389	ltpFR2	12	9	DRILL	497	n/a	n/a	0	0	0
1997.138671875	n/a	WORD	4090140	wordpools/wasnorm_wordpool_576.txt	LTP389	ltpFR2	12	9	LUMBER	848	n/a	n/a	0	0	0
1999.87255859375	n/a	WORD	4095739	wordpools/wasnorm_wordpool_576.txt	LTP389	ltpFR2	12	9	PUDDING	1139	n/a	n/a	0	0	0
2002.6875	n/a	WORD	4101504	wordpools/wasnorm_wordpool_576.txt	LTP389	ltpFR2	12	9	TURTLE	1522	n/a	n/a	0	0	0
2004.2880859375	n/a	START	4104782	n/a	LTP389	ltpFR2	12	n/a	n/a	n/a	13	n/a	n/a	n/a	n/a
2005.46728515625	n/a	DISTRACTOR	4107197	n/a	LTP389	ltpFR2	12	9	n/a	n/a	n/a	n/a	0	0	0
2005.47119140625	n/a	PROB	4107205	n/a	LTP389	ltpFR2	12	n/a	n/a	n/a	13	23	9	8	6
2008.4873046875	n/a	PROB	4113382	n/a	LTP389	ltpFR2	12	n/a	n/a	n/a	13	17	6	6	5
2010.6708984375	n/a	PROB	4117854	n/a	LTP389	ltpFR2	12	n/a	n/a	n/a	13	18	9	1	8
2011.921875	n/a	PROB	4120416	n/a	LTP389	ltpFR2	12	n/a	n/a	n/a	13	14	1	4	9
2013.9208984375	n/a	PROB	4124510	n/a	LTP389	ltpFR2	12	n/a	n/a	n/a	13	14	1	6	7
2015.56982421875	n/a	PROB	4127887	n/a	LTP389	ltpFR2	12	n/a	n/a	n/a	13	16	6	8	2
2017.12109375	n/a	PROB	4131064	n/a	LTP389	ltpFR2	12	n/a	n/a	n/a	13	10	5	3	2
2018.60400390625	n/a	PROB	4134101	n/a	LTP389	ltpFR2	12	n/a	n/a	n/a	13	17	8	8	1
2019.93798828125	n/a	PROB	4136833	n/a	LTP389	ltpFR2	12	n/a	n/a	n/a	13	16	9	6	1
2021.669921875	n/a	PROB	4140380	n/a	LTP389	ltpFR2	12	n/a	n/a	n/a	13	25	8	9	8
2023.65380859375	n/a	PROB	4144443	n/a	LTP389	ltpFR2	12	n/a	n/a	n/a	13	18	8	5	5
2024.90478515625	n/a	PROB	4147005	n/a	LTP389	ltpFR2	12	n/a	n/a	n/a	13	18	2	7	9
2026.2705078125	n/a	PROB	4149802	n/a	LTP389	ltpFR2	12	n/a	n/a	n/a	13	17	9	1	7
2027.78271484375	n/a	STOP	4152899	n/a	LTP389	ltpFR2	12	n/a	n/a	n/a	13	n/a	n/a	n/a	n/a
2030.1875	n/a	REC_START	4157824	n/a	LTP389	ltpFR2	12	9	n/a	n/a	n/a	n/a	0	0	0
2031.38037109375	n/a	REC_WORD	4160267	wordpools/wasnorm_wordpool_576.txt	LTP389	ltpFR2	12	9	FOOTBALL	591	n/a	n/a	0	0	0
2032.29150390625	n/a	REC_WORD	4162133	wordpools/wasnorm_wordpool_576.txt	LTP389	ltpFR2	12	9	CRICKET	408	n/a	n/a	0	0	0
2033.03759765625	n/a	REC_WORD	4163661	wordpools/wasnorm_wordpool_576.txt	LTP389	ltpFR2	12	9	UMPIRE	1535	n/a	n/a	0	0	0
2034.13427734375	n/a	REC_WORD	4165907	wordpools/wasnorm_wordpool_576.txt	LTP389	ltpFR2	12	9	PAIL	1002	n/a	n/a	0	0	0
2034.84228515625	n/a	REC_WORD	4167357	wordpools/wasnorm_wordpool_576.txt	LTP389	ltpFR2	12	9	BRACES	164	n/a	n/a	0	0	0
2035.8701171875	n/a	REC_WORD	4169462	wordpools/wasnorm_wordpool_576.txt	LTP389	ltpFR2	12	9	PERMIT	1051	n/a	n/a	0	0	0
2036.7353515625	n/a	REC_WORD	4171234	wordpools/wasnorm_wordpool_576.txt	LTP389	ltpFR2	12	9	RECEIPT	1173	n/a	n/a	0	0	0
2037.8154296875	n/a	REC_WORD	4173446	wordpools/wasnorm_wordpool_576.txt	LTP389	ltpFR2	12	9	ITEM	746	n/a	n/a	0	0	0
2044.39404296875	n/a	REC_WORD	4186919	wordpools/wasnorm_wordpool_576.txt	LTP389	ltpFR2	12	9	FEMALE	559	n/a	n/a	0	0	0
2045.65380859375	n/a	REC_WORD	4189499	wordpools/wasnorm_wordpool_576.txt	LTP389	ltpFR2	12	9	WOMAN	1620	n/a	n/a	0	0	0
2046.9619140625	n/a	REC_WORD	4192178	wordpools/wasnorm_wordpool_576.txt	LTP389	ltpFR2	12	9	OFFICE	972	n/a	n/a	0	0	0
2047.81396484375	n/a	REC_WORD	4193923	wordpools/wasnorm_wordpool_576.txt	LTP389	ltpFR2	12	9	WORKER	1621	n/a	n/a	0	0	0
2053.65087890625	n/a	REC_WORD	4205877	wordpools/wasnorm_wordpool_576.txt	LTP389	ltpFR2	12	9	TURTLE	1522	n/a	n/a	0	0	0
2054.45458984375	n/a	REC_WORD	4207523	wordpools/wasnorm_wordpool_576.txt	LTP389	ltpFR2	12	9	PUDDING	1139	n/a	n/a	0	0	0
2097.189453125	n/a	REC_WORD	4295044	wordpools/wasnorm_wordpool_576.txt	LTP389	ltpFR2	12	9	UMPIRE	1535	n/a	n/a	0	0	0
2120.6318359375	n/a	DISTRACTOR	4343054	n/a	LTP389	ltpFR2	12	10	n/a	n/a	n/a	n/a	0	0	0
2120.6328125	n/a	START	4343056	n/a	LTP389	ltpFR2	12	n/a	n/a	n/a	14	n/a	n/a	n/a	n/a
2120.64892578125	n/a	PROB	4343089	n/a	LTP389	ltpFR2	12	n/a	n/a	n/a	14	12	9	2	1
2122.5986328125	n/a	PROB	4347082	n/a	LTP389	ltpFR2	12	n/a	n/a	n/a	14	15	1	7	7
2123.78271484375	n/a	PROB	4349507	n/a	LTP389	ltpFR2	12	n/a	n/a	n/a	14	14	5	4	5
2125.53173828125	n/a	PROB	4353089	n/a	LTP389	ltpFR2	12	n/a	n/a	n/a	14	17	4	5	8
2127.08251953125	n/a	PROB	4356265	n/a	LTP389	ltpFR2	12	n/a	n/a	n/a	14	14	6	4	4
2128.88232421875	n/a	PROB	4359951	n/a	LTP389	ltpFR2	12	n/a	n/a	n/a	14	25	8	6	9
2132.33251953125	n/a	PROB	4367017	n/a	LTP389	ltpFR2	12	n/a	n/a	n/a	14	8	4	3	1
2133.79931640625	n/a	PROB	4370021	n/a	LTP389	ltpFR2	12	n/a	n/a	n/a	14	17	5	6	6
2135.33251953125	n/a	PROB	4373161	n/a	LTP389	ltpFR2	12	n/a	n/a	n/a	14	14	1	9	4
2136.46435546875	n/a	PROB	4375479	n/a	LTP389	ltpFR2	12	n/a	n/a	n/a	14	10	3	3	4
2137.916015625	n/a	PROB	4378452	n/a	LTP389	ltpFR2	12	n/a	n/a	n/a	14	25	9	9	7
2140.38232421875	n/a	PROB	4383503	n/a	LTP389	ltpFR2	12	n/a	n/a	n/a	14	8	1	5	2
2141.96533203125	n/a	PROB	4386745	n/a	LTP389	ltpFR2	12	n/a	n/a	n/a	14	20	5	6	9
2143.5419921875	n/a	STOP	4389974	n/a	LTP389	ltpFR2	12	n/a	n/a	n/a	14	n/a	n/a	n/a	n/a
2145.84912109375	n/a	WORD	4394699	wordpools/wasnorm_wordpool_576.txt	LTP389	ltpFR2	12	10	BANJO	82	n/a	n/a	0	0	0
2148.53076171875	n/a	WORD	4400191	wordpools/wasnorm_wordpool_576.txt	LTP389	ltpFR2	12	10	RECORD	1176	n/a	n/a	0	0	0
2151.11474609375	n/a	WORD	4405483	wordpools/wasnorm_wordpool_576.txt	LTP389	ltpFR2	12	10	SUSPECT	1415	n/a	n/a	0	0	0
2153.630859375	n/a	WORD	4410636	wordpools/wasnorm_wordpool_576.txt	LTP389	ltpFR2	12	10	BRICK	172	n/a	n/a	0	0	0
2156.3984375	n/a	WORD	4416304	wordpools/wasnorm_wordpool_576.txt	LTP389	ltpFR2	12	10	FOREHEAD	592	n/a	n/a	0	0	0
2158.99755859375	n/a	WORD	4421627	wordpools/wasnorm_wordpool_576.txt	LTP389	ltpFR2	12	10	BREAST	171	n/a	n/a	0	0	0
2161.7314453125	n/a	WORD	4427226	wordpools/wasnorm_wordpool_576.txt	LTP389	ltpFR2	12	10	SWORD	1423	n/a	n/a	0	0	0
2164.38134765625	n/a	WORD	4432653	wordpools/wasnorm_wordpool_576.txt	LTP389	ltpFR2	12	10	NECKLACE	940	n/a	n/a	0	0	0
2167.09716796875	n/a	WORD	4438215	wordpools/wasnorm_wordpool_576.txt	LTP389	ltpFR2	12	10	SHOULDER	1294	n/a	n/a	0	0	0
2169.61328125	n/a	WORD	4443368	wordpools/wasnorm_wordpool_576.txt	LTP389	ltpFR2	12	10	BLOCKADE	137	n/a	n/a	0	0	0
2172.29736328125	n/a	WORD	4448865	wordpools/wasnorm_wordpool_576.txt	LTP389	ltpFR2	12	10	SUITCASE	1403	n/a	n/a	0	0	0
2174.830078125	n/a	WORD	4454052	wordpools/wasnorm_wordpool_576.txt	LTP389	ltpFR2	12	10	FIDDLE	561	n/a	n/a	0	0	0
2177.34716796875	n/a	WORD	4459207	wordpools/wasnorm_wordpool_576.txt	LTP389	ltpFR2	12	10	TILE	1468	n/a	n/a	0	0	0
2180.02978515625	n/a	WORD	4464701	wordpools/wasnorm_wordpool_576.txt	LTP389	ltpFR2	12	10	RACKET	1155	n/a	n/a	0	0	0
2182.61279296875	n/a	WORD	4469991	wordpools/wasnorm_wordpool_576.txt	LTP389	ltpFR2	12	10	DOUGHNUT	490	n/a	n/a	0	0	0
2185.1796875	n/a	WORD	4475248	wordpools/wasnorm_wordpool_576.txt	LTP389	ltpFR2	12	10	ROBBER	1197	n/a	n/a	0	0	0
2187.61279296875	n/a	WORD	4480231	wordpools/wasnorm_wordpool_576.txt	LTP389	ltpFR2	12	10	SNAIL	1332	n/a	n/a	0	0	0
2190.046875	n/a	WORD	4485216	wordpools/wasnorm_wordpool_576.txt	LTP389	ltpFR2	12	10	ELBOW	520	n/a	n/a	0	0	0
2192.79638671875	n/a	WORD	4490847	wordpools/wasnorm_wordpool_576.txt	LTP389	ltpFR2	12	10	SHORTCAKE	1292	n/a	n/a	0	0	0
2195.263671875	n/a	WORD	4495900	wordpools/wasnorm_wordpool_576.txt	LTP389	ltpFR2	12	10	RADISH	1158	n/a	n/a	0	0	0
2197.96240234375	n/a	WORD	4501427	wordpools/wasnorm_wordpool_576.txt	LTP389	ltpFR2	12	10	SALAD	1224	n/a	n/a	0	0	0
2200.76220703125	n/a	WORD	4507161	wordpools/wasnorm_wordpool_576.txt	LTP389	ltpFR2	12	10	APPLE	33	n/a	n/a	0	0	0
2203.54541015625	n/a	WORD	4512861	wordpools/wasnorm_wordpool_576.txt	LTP389	ltpFR2	12	10	GLOVE	642	n/a	n/a	0	0	0
2206.22900390625	n/a	WORD	4518357	wordpools/wasnorm_wordpool_576.txt	LTP389	ltpFR2	12	10	FLASK	576	n/a	n/a	0	0	0
2207.84619140625	n/a	START	4521669	n/a	LTP389	ltpFR2	12	n/a	n/a	n/a	15	n/a	n/a	n/a	n/a
2208.9111328125	n/a	DISTRACTOR	4523850	n/a	LTP389	ltpFR2	12	10	n/a	n/a	n/a	n/a	0	0	0
2208.92919921875	n/a	PROB	4523887	n/a	LTP389	ltpFR2	12	n/a	n/a	n/a	15	20	8	8	4
2210.578125	n/a	PROB	4527264	n/a	LTP389	ltpFR2	12	n/a	n/a	n/a	15	8	1	3	4
2211.87890625	n/a	PROB	4529928	n/a	LTP389	ltpFR2	12	n/a	n/a	n/a	15	14	7	2	4
2213.69482421875	n/a	PROB	4533647	n/a	LTP389	ltpFR2	12	n/a	n/a	n/a	15	10	7	2	1
2215.47802734375	n/a	PROB	4537299	n/a	LTP389	ltpFR2	12	n/a	n/a	n/a	15	11	1	8	2
2217.0947265625	n/a	PROB	4540610	n/a	LTP389	ltpFR2	12	n/a	n/a	n/a	15	8	4	2	2
2218.36181640625	n/a	PROB	4543205	n/a	LTP389	ltpFR2	12	n/a	n/a	n/a	15	13	6	1	6
2219.5439453125	n/a	PROB	4545626	n/a	LTP389	ltpFR2	12	n/a	n/a	n/a	15	25	7	9	9
2221.62744140625	n/a	PROB	4549893	n/a	LTP389	ltpFR2	12	n/a	n/a	n/a	15	25	9	9	7
2223.29443359375	n/a	PROB	4553307	n/a	LTP389	ltpFR2	12	n/a	n/a	n/a	15	23	5	9	9
2225.12841796875	n/a	PROB	4557063	n/a	LTP389	ltpFR2	12	n/a	n/a	n/a	15	10	4	2	4
2226.5107421875	n/a	PROB	4559894	n/a	LTP389	ltpFR2	12	n/a	n/a	n/a	15	19	3	7	9
2227.7783203125	n/a	PROB	4562490	n/a	LTP389	ltpFR2	12	n/a	n/a	n/a	15	20	9	9	2
2229.0615234375	n/a	PROB	4565118	n/a	LTP389	ltpFR2	12	n/a	n/a	n/a	15	9	2	4	3
2230.42138671875	n/a	STOP	4567903	n/a	LTP389	ltpFR2	12	n/a	n/a	n/a	15	n/a	n/a	n/a	n/a
2233.62744140625	n/a	REC_START	4574469	n/a	LTP389	ltpFR2	12	10	n/a	n/a	n/a	n/a	0	0	0
2234.92236328125	n/a	REC_WORD	4577121	wordpools/wasnorm_wordpool_576.txt	LTP389	ltpFR2	12	10	BANJO	82	n/a	n/a	0	0	0
2236.05712890625	n/a	REC_WORD_VV	4579445	wordpools/wasnorm_wordpool_576.txt	LTP389	ltpFR2	12	10	<>	-1	n/a	n/a	0	0	0
2237.7412109375	n/a	REC_WORD	4582894	wordpools/wasnorm_wordpool_576.txt	LTP389	ltpFR2	12	10	FIDDLE	561	n/a	n/a	0	0	0
2238.861328125	n/a	REC_WORD_VV	4585188	wordpools/wasnorm_wordpool_576.txt	LTP389	ltpFR2	12	10	<>	-1	n/a	n/a	0	0	0
2240.69921875	n/a	REC_WORD	4588952	wordpools/wasnorm_wordpool_576.txt	LTP389	ltpFR2	12	10	RECORD	1176	n/a	n/a	0	0	0
2245.17919921875	n/a	REC_WORD	4598127	wordpools/wasnorm_wordpool_576.txt	LTP389	ltpFR2	12	10	BRICK	172	n/a	n/a	0	0	0
2246.0830078125	n/a	REC_WORD	4599978	wordpools/wasnorm_wordpool_576.txt	LTP389	ltpFR2	12	10	FOREHEAD	592	n/a	n/a	0	0	0
2246.9609375	n/a	REC_WORD	4601776	wordpools/wasnorm_wordpool_576.txt	LTP389	ltpFR2	12	10	SHOULDER	1294	n/a	n/a	0	0	0
2248.03173828125	n/a	REC_WORD	4603969	wordpools/wasnorm_wordpool_576.txt	LTP389	ltpFR2	12	10	BREAST	171	n/a	n/a	0	0	0
2248.841796875	n/a	REC_WORD	4605628	wordpools/wasnorm_wordpool_576.txt	LTP389	ltpFR2	12	10	ELBOW	520	n/a	n/a	0	0	0
2251.173828125	n/a	REC_WORD	4610404	wordpools/wasnorm_wordpool_576.txt	LTP389	ltpFR2	12	10	RACKET	1155	n/a	n/a	0	0	0
2254.10986328125	n/a	REC_WORD	4616417	wordpools/wasnorm_wordpool_576.txt	LTP389	ltpFR2	12	10	DOUGHNUT	490	n/a	n/a	0	0	0
2260.609375	n/a	REC_WORD	4629728	wordpools/wasnorm_wordpool_576.txt	LTP389	ltpFR2	12	10	SLUG	1329	n/a	n/a	0	0	0
2262.2333984375	n/a	REC_WORD_VV	4633054	wordpools/wasnorm_wordpool_576.txt	LTP389	ltpFR2	12	10	<>	-1	n/a	n/a	0	0	0
2265.30517578125	n/a	REC_WORD	4639345	wordpools/wasnorm_wordpool_576.txt	LTP389	ltpFR2	12	10	SHORTCAKE	1292	n/a	n/a	0	0	0
2267.84228515625	n/a	REC_WORD	4644541	wordpools/wasnorm_wordpool_576.txt	LTP389	ltpFR2	12	10	NECKLACE	940	n/a	n/a	0	0	0
2271.4833984375	n/a	REC_WORD	4651998	wordpools/wasnorm_wordpool_576.txt	LTP389	ltpFR2	12	10	BURGLAR	200	n/a	n/a	0	0	0
2281.73095703125	n/a	REC_WORD	4672985	wordpools/wasnorm_wordpool_576.txt	LTP389	ltpFR2	12	10	SWORD	1423	n/a	n/a	0	0	0
2297.4775390625	n/a	REC_WORD	4705234	wordpools/wasnorm_wordpool_576.txt	LTP389	ltpFR2	12	10	RADISH	1158	n/a	n/a	0	0	0
2299.47509765625	n/a	REC_WORD	4709325	wordpools/wasnorm_wordpool_576.txt	LTP389	ltpFR2	12	10	SALAD	1224	n/a	n/a	0	0	0
2324.056640625	n/a	DISTRACTOR	4759668	n/a	LTP389	ltpFR2	12	11	n/a	n/a	n/a	n/a	0	0	0
2324.0576171875	n/a	START	4759670	n/a	LTP389	ltpFR2	12	n/a	n/a	n/a	16	n/a	n/a	n/a	n/a
2324.07373046875	n/a	PROB	4759703	n/a	LTP389	ltpFR2	12	n/a	n/a	n/a	16	16	7	2	7
2325.6396484375	n/a	PROB	4762910	n/a	LTP389	ltpFR2	12	n/a	n/a	n/a	16	10	5	2	3
2327.6552734375	n/a	PROB	4767038	n/a	LTP389	ltpFR2	12	n/a	n/a	n/a	16	13	6	5	2
2329.50537109375	n/a	PROB	4770827	n/a	LTP389	ltpFR2	12	n/a	n/a	n/a	16	13	3	6	4
2330.89013671875	n/a	PROB	4773663	n/a	LTP389	ltpFR2	12	n/a	n/a	n/a	16	20	4	9	7
2332.9404296875	n/a	PROB	4777862	n/a	LTP389	ltpFR2	12	n/a	n/a	n/a	16	16	6	7	3
2334.9404296875	n/a	PROB	4781958	n/a	LTP389	ltpFR2	12	n/a	n/a	n/a	16	12	3	8	1
2336.55517578125	n/a	PROB	4785265	n/a	LTP389	ltpFR2	12	n/a	n/a	n/a	16	13	2	3	8
2337.873046875	n/a	PROB	4787964	n/a	LTP389	ltpFR2	12	n/a	n/a	n/a	16	14	5	8	1
2339.30615234375	n/a	PROB	4790899	n/a	LTP389	ltpFR2	12	n/a	n/a	n/a	16	18	9	8	1
2341.255859375	n/a	PROB	4794892	n/a	LTP389	ltpFR2	12	n/a	n/a	n/a	16	20	2	9	9
2342.7890625	n/a	PROB	4798032	n/a	LTP389	ltpFR2	12	n/a	n/a	n/a	16	16	5	3	8
2344.22314453125	n/a	PROB	4800969	n/a	LTP389	ltpFR2	12	n/a	n/a	n/a	16	16	3	8	5
2345.873046875	n/a	PROB	4804348	n/a	LTP389	ltpFR2	12	n/a	n/a	n/a	16	16	3	5	8
2347.22265625	n/a	STOP	4807112	n/a	LTP389	ltpFR2	12	n/a	n/a	n/a	16	n/a	n/a	n/a	n/a
2349.07275390625	n/a	WORD	4810901	wordpools/wasnorm_wordpool_576.txt	LTP389	ltpFR2	12	11	NOMAD	955	n/a	n/a	0	0	0
2351.68798828125	n/a	WORD	4816257	wordpools/wasnorm_wordpool_576.txt	LTP389	ltpFR2	12	11	PLAID	1080	n/a	n/a	0	0	0
2354.1884765625	n/a	WORD	4821378	wordpools/wasnorm_wordpool_576.txt	LTP389	ltpFR2	12	11	GYMNAST	675	n/a	n/a	0	0	0
2356.83837890625	n/a	WORD	4826805	wordpools/wasnorm_wordpool_576.txt	LTP389	ltpFR2	12	11	JUGGLER	763	n/a	n/a	0	0	0
2359.388671875	n/a	WORD	4832028	wordpools/wasnorm_wordpool_576.txt	LTP389	ltpFR2	12	11	SCARF	1246	n/a	n/a	0	0	0
2362.021484375	n/a	WORD	4837420	wordpools/wasnorm_wordpool_576.txt	LTP389	ltpFR2	12	11	RUST	1219	n/a	n/a	0	0	0
2364.6201171875	n/a	WORD	4842742	wordpools/wasnorm_wordpool_576.txt	LTP389	ltpFR2	12	11	INFANT	737	n/a	n/a	0	0	0
2367.205078125	n/a	WORD	4848036	wordpools/wasnorm_wordpool_576.txt	LTP389	ltpFR2	12	11	TRIBE	1505	n/a	n/a	0	0	0
2369.955078125	n/a	WORD	4853668	wordpools/wasnorm_wordpool_576.txt	LTP389	ltpFR2	12	11	FRIEND	606	n/a	n/a	0	0	0
2372.63720703125	n/a	WORD	4859161	wordpools/wasnorm_wordpool_576.txt	LTP389	ltpFR2	12	11	LAPEL	800	n/a	n/a	0	0	0
2375.15380859375	n/a	WORD	4864315	wordpools/wasnorm_wordpool_576.txt	LTP389	ltpFR2	12	11	LIZARD	834	n/a	n/a	0	0	0
2377.80517578125	n/a	WORD	4869745	wordpools/wasnorm_wordpool_576.txt	LTP389	ltpFR2	12	11	LADDER	793	n/a	n/a	0	0	0
2380.337890625	n/a	WORD	4874932	wordpools/wasnorm_wordpool_576.txt	LTP389	ltpFR2	12	11	HAWK	692	n/a	n/a	0	0	0
2383.12060546875	n/a	WORD	4880631	wordpools/wasnorm_wordpool_576.txt	LTP389	ltpFR2	12	11	COCKTAIL	338	n/a	n/a	0	0	0
2385.56982421875	n/a	WORD	4885647	wordpools/wasnorm_wordpool_576.txt	LTP389	ltpFR2	12	11	SURVEY	1414	n/a	n/a	0	0	0
2388.37060546875	n/a	WORD	4891383	wordpools/wasnorm_wordpool_576.txt	LTP389	ltpFR2	12	11	LIPSTICK	829	n/a	n/a	0	0	0
2391.0205078125	n/a	WORD	4896810	wordpools/wasnorm_wordpool_576.txt	LTP389	ltpFR2	12	11	PASTA	1021	n/a	n/a	0	0	0
2393.70361328125	n/a	WORD	4902305	wordpools/wasnorm_wordpool_576.txt	LTP389	ltpFR2	12	11	CHAMPAGNE	278	n/a	n/a	0	0	0
2396.4365234375	n/a	WORD	4907902	wordpools/wasnorm_wordpool_576.txt	LTP389	ltpFR2	12	11	CONTRACT	368	n/a	n/a	0	0	0
2398.97021484375	n/a	WORD	4913091	wordpools/wasnorm_wordpool_576.txt	LTP389	ltpFR2	12	11	ARMY	39	n/a	n/a	0	0	0
2401.55224609375	n/a	WORD	4918379	wordpools/wasnorm_wordpool_576.txt	LTP389	ltpFR2	12	11	BELLY	119	n/a	n/a	0	0	0
2404.18603515625	n/a	WORD	4923773	wordpools/wasnorm_wordpool_576.txt	LTP389	ltpFR2	12	11	BODY	145	n/a	n/a	0	0	0
2406.72021484375	n/a	WORD	4928963	wordpools/wasnorm_wordpool_576.txt	LTP389	ltpFR2	12	11	MARKET	871	n/a	n/a	0	0	0
2409.501953125	n/a	WORD	4934660	wordpools/wasnorm_wordpool_576.txt	LTP389	ltpFR2	12	11	SCALLOP	1242	n/a	n/a	0	0	0
2411.1201171875	n/a	START	4937974	n/a	LTP389	ltpFR2	12	n/a	n/a	n/a	17	n/a	n/a	n/a	n/a
2412.10888671875	n/a	DISTRACTOR	4939999	n/a	LTP389	ltpFR2	12	11	n/a	n/a	n/a	n/a	0	0	0
2412.1201171875	n/a	PROB	4940022	n/a	LTP389	ltpFR2	12	n/a	n/a	n/a	17	16	1	7	8
2413.81982421875	n/a	PROB	4943503	n/a	LTP389	ltpFR2	12	n/a	n/a	n/a	17	8	2	5	1
2415.634765625	n/a	PROB	4947220	n/a	LTP389	ltpFR2	12	n/a	n/a	n/a	17	17	7	6	4
2417.48486328125	n/a	PROB	4951009	n/a	LTP389	ltpFR2	12	n/a	n/a	n/a	17	19	8	4	7
2419.76953125	n/a	PROB	4955688	n/a	LTP389	ltpFR2	12	n/a	n/a	n/a	17	16	5	2	9
2422.3525390625	n/a	PROB	4960978	n/a	LTP389	ltpFR2	12	n/a	n/a	n/a	17	7	2	2	3
2424.11865234375	n/a	PROB	4964595	n/a	LTP389	ltpFR2	12	n/a	n/a	n/a	17	8	1	2	5
2425.58447265625	n/a	PROB	4967597	n/a	LTP389	ltpFR2	12	n/a	n/a	n/a	17	18	8	5	5
2426.8525390625	n/a	PROB	4970194	n/a	LTP389	ltpFR2	12	n/a	n/a	n/a	17	18	8	3	7
2428.4345703125	n/a	PROB	4973434	n/a	LTP389	ltpFR2	12	n/a	n/a	n/a	17	12	2	6	4
2430.1025390625	n/a	PROB	4976850	n/a	LTP389	ltpFR2	12	n/a	n/a	n/a	17	20	9	2	9
2431.71826171875	n/a	PROB	4980159	n/a	LTP389	ltpFR2	12	n/a	n/a	n/a	17	11	3	4	4
2433.318359375	n/a	PROB	4983436	n/a	LTP389	ltpFR2	12	n/a	n/a	n/a	17	17	7	4	6
2434.88623046875	n/a	STOP	4986647	n/a	LTP389	ltpFR2	12	n/a	n/a	n/a	17	n/a	n/a	n/a	n/a
2436.96923828125	n/a	REC_START	4990913	n/a	LTP389	ltpFR2	12	11	n/a	n/a	n/a	n/a	0	0	0
2437.626953125	n/a	REC_WORD	4992260	wordpools/wasnorm_wordpool_576.txt	LTP389	ltpFR2	12	11	NOMAD	955	n/a	n/a	0	0	0
2440.0419921875	n/a	REC_WORD	4997206	wordpools/wasnorm_wordpool_576.txt	LTP389	ltpFR2	12	11	RUST	1219	n/a	n/a	0	0	0
2440.9150390625	n/a	REC_WORD	4998994	wordpools/wasnorm_wordpool_576.txt	LTP389	ltpFR2	12	11	PLAID	1080	n/a	n/a	0	0	0
2445.7900390625	n/a	REC_WORD	5008978	wordpools/wasnorm_wordpool_576.txt	LTP389	ltpFR2	12	11	SCARF	1246	n/a	n/a	0	0	0
2447.47705078125	n/a	REC_WORD	5012433	wordpools/wasnorm_wordpool_576.txt	LTP389	ltpFR2	12	11	JUGGLER	763	n/a	n/a	0	0	0
2448.29296875	n/a	REC_WORD	5014104	wordpools/wasnorm_wordpool_576.txt	LTP389	ltpFR2	12	11	GYMNAST	675	n/a	n/a	0	0	0
2449.23193359375	n/a	REC_WORD	5016027	wordpools/wasnorm_wordpool_576.txt	LTP389	ltpFR2	12	11	LADDER	793	n/a	n/a	0	0	0
2450.02685546875	n/a	REC_WORD	5017655	wordpools/wasnorm_wordpool_576.txt	LTP389	ltpFR2	12	11	LIPSTICK	829	n/a	n/a	0	0	0
2450.9345703125	n/a	REC_WORD	5019514	wordpools/wasnorm_wordpool_576.txt	LTP389	ltpFR2	12	11	PASTA	1021	n/a	n/a	0	0	0
2453.02685546875	n/a	REC_WORD	5023799	wordpools/wasnorm_wordpool_576.txt	LTP389	ltpFR2	12	11	ARMY	39	n/a	n/a	0	0	0
2453.94970703125	n/a	REC_WORD	5025689	wordpools/wasnorm_wordpool_576.txt	LTP389	ltpFR2	12	11	CONTRACT	368	n/a	n/a	0	0	0
2455.8603515625	n/a	REC_WORD	5029602	wordpools/wasnorm_wordpool_576.txt	LTP389	ltpFR2	12	11	LIZARD	834	n/a	n/a	0	0	0
2456.71240234375	n/a	REC_WORD	5031347	wordpools/wasnorm_wordpool_576.txt	LTP389	ltpFR2	12	11	HAWK	692	n/a	n/a	0	0	0
2460.6904296875	n/a	REC_WORD	5039494	wordpools/wasnorm_wordpool_576.txt	LTP389	ltpFR2	12	11	TRIBE	1505	n/a	n/a	0	0	0
2462.158203125	n/a	REC_WORD	5042500	wordpools/wasnorm_wordpool_576.txt	LTP389	ltpFR2	12	11	INFANT	737	n/a	n/a	0	0	0
2487.759765625	n/a	REC_WORD	5094932	wordpools/wasnorm_wordpool_576.txt	LTP389	ltpFR2	12	11	FRIEND	606	n/a	n/a	0	0	0
2495.560546875	n/a	REC_WORD	5110908	wordpools/wasnorm_wordpool_576.txt	LTP389	ltpFR2	12	11	LAPEL	800	n/a	n/a	0	0	0
2527.41357421875	n/a	DISTRACTOR	5176143	n/a	LTP389	ltpFR2	12	12	n/a	n/a	n/a	n/a	0	0	0
2527.41357421875	n/a	START	5176143	n/a	LTP389	ltpFR2	12	n/a	n/a	n/a	18	n/a	n/a	n/a	n/a
2527.42919921875	n/a	PROB	5176175	n/a	LTP389	ltpFR2	12	n/a	n/a	n/a	18	13	4	5	4
2529.66357421875	n/a	PROB	5180751	n/a	LTP389	ltpFR2	12	n/a	n/a	n/a	18	17	5	4	8
2531.080078125	n/a	PROB	5183652	n/a	LTP389	ltpFR2	12	n/a	n/a	n/a	18	18	8	6	4
2532.5634765625	n/a	PROB	5186690	n/a	LTP389	ltpFR2	12	n/a	n/a	n/a	18	12	7	1	4
2534.62939453125	n/a	PROB	5190921	n/a	LTP389	ltpFR2	12	n/a	n/a	n/a	18	20	6	9	5
2536.64599609375	n/a	PROB	5195051	n/a	LTP389	ltpFR2	12	n/a	n/a	n/a	18	10	7	1	2
2538.6630859375	n/a	PROB	5199182	n/a	LTP389	ltpFR2	12	n/a	n/a	n/a	18	16	7	8	1
2540.330078125	n/a	PROB	5202596	n/a	LTP389	ltpFR2	12	n/a	n/a	n/a	18	13	3	3	7
2541.830078125	n/a	PROB	5205668	n/a	LTP389	ltpFR2	12	n/a	n/a	n/a	18	10	1	3	6
2543.81396484375	n/a	PROB	5209731	n/a	LTP389	ltpFR2	12	n/a	n/a	n/a	18	21	9	8	6
2546.7470703125	n/a	PROB	5215738	n/a	LTP389	ltpFR2	12	n/a	n/a	n/a	18	13	3	9	1
2548.0966796875	n/a	PROB	5218502	n/a	LTP389	ltpFR2	12	n/a	n/a	n/a	18	13	1	4	7
2549.89453125	n/a	STOP	5222184	n/a	LTP389	ltpFR2	12	n/a	n/a	n/a	18	n/a	n/a	n/a	n/a
2552.49560546875	n/a	WORD	5227511	wordpools/wasnorm_wordpool_576.txt	LTP389	ltpFR2	12	12	SUMMIT	1405	n/a	n/a	0	0	0
2554.9794921875	n/a	WORD	5232598	wordpools/wasnorm_wordpool_576.txt	LTP389	ltpFR2	12	12	PARROT	1015	n/a	n/a	0	0	0
2557.478515625	n/a	WORD	5237716	wordpools/wasnorm_wordpool_576.txt	LTP389	ltpFR2	12	12	BANK	83	n/a	n/a	0	0	0
2559.99658203125	n/a	WORD	5242873	wordpools/wasnorm_wordpool_576.txt	LTP389	ltpFR2	12	12	STOMACH	1384	n/a	n/a	0	0	0
2562.46142578125	n/a	WORD	5247921	wordpools/wasnorm_wordpool_576.txt	LTP389	ltpFR2	12	12	MUMMY	932	n/a	n/a	0	0	0
2564.9794921875	n/a	WORD	5253078	wordpools/wasnorm_wordpool_576.txt	LTP389	ltpFR2	12	12	PARENT	1013	n/a	n/a	0	0	0
2567.54443359375	n/a	WORD	5258331	wordpools/wasnorm_wordpool_576.txt	LTP389	ltpFR2	12	12	TABLE	1426	n/a	n/a	0	0	0
2570.1123046875	n/a	WORD	5263590	wordpools/wasnorm_wordpool_576.txt	LTP389	ltpFR2	12	12	NURSE	963	n/a	n/a	0	0	0
2572.56103515625	n/a	WORD	5268605	wordpools/wasnorm_wordpool_576.txt	LTP389	ltpFR2	12	12	THREAD	1460	n/a	n/a	0	0	0
2575.06201171875	n/a	WORD	5273727	wordpools/wasnorm_wordpool_576.txt	LTP389	ltpFR2	12	12	TEACHER	1440	n/a	n/a	0	0	0
2577.59375	n/a	WORD	5278912	wordpools/wasnorm_wordpool_576.txt	LTP389	ltpFR2	12	12	EXPERT	543	n/a	n/a	0	0	0
2580.37890625	n/a	WORD	5284616	wordpools/wasnorm_wordpool_576.txt	LTP389	ltpFR2	12	12	ROBOT	1200	n/a	n/a	0	0	0
2583.1279296875	n/a	WORD	5290246	wordpools/wasnorm_wordpool_576.txt	LTP389	ltpFR2	12	12	CROWN	415	n/a	n/a	0	0	0
2585.61083984375	n/a	WORD	5295331	wordpools/wasnorm_wordpool_576.txt	LTP389	ltpFR2	12	12	PERCH	1048	n/a	n/a	0	0	0
2588.0947265625	n/a	WORD	5300418	wordpools/wasnorm_wordpool_576.txt	LTP389	ltpFR2	12	12	SLOPE	1328	n/a	n/a	0	0	0
2590.59375	n/a	WORD	5305536	wordpools/wasnorm_wordpool_576.txt	LTP389	ltpFR2	12	12	CEILING	265	n/a	n/a	0	0	0
2593.01123046875	n/a	WORD	5310487	wordpools/wasnorm_wordpool_576.txt	LTP389	ltpFR2	12	12	GROUND	666	n/a	n/a	0	0	0
2595.59326171875	n/a	WORD	5315775	wordpools/wasnorm_wordpool_576.txt	LTP389	ltpFR2	12	12	QUAIL	1147	n/a	n/a	0	0	0
2598.244140625	n/a	WORD	5321204	wordpools/wasnorm_wordpool_576.txt	LTP389	ltpFR2	12	12	SLIME	1327	n/a	n/a	0	0	0
2600.81103515625	n/a	WORD	5326461	wordpools/wasnorm_wordpool_576.txt	LTP389	ltpFR2	12	12	FUNGUS	614	n/a	n/a	0	0	0
2603.376953125	n/a	WORD	5331716	wordpools/wasnorm_wordpool_576.txt	LTP389	ltpFR2	12	12	ICING	732	n/a	n/a	0	0	0
2605.994140625	n/a	WORD	5337076	wordpools/wasnorm_wordpool_576.txt	LTP389	ltpFR2	12	12	OINTMENT	974	n/a	n/a	0	0	0
2608.5927734375	n/a	WORD	5342398	wordpools/wasnorm_wordpool_576.txt	LTP389	ltpFR2	12	12	CRIB	407	n/a	n/a	0	0	0
2611.10986328125	n/a	WORD	5347553	wordpools/wasnorm_wordpool_576.txt	LTP389	ltpFR2	12	12	DRUG	501	n/a	n/a	0	0	0
2612.72705078125	n/a	START	5350865	n/a	LTP389	ltpFR2	12	n/a	n/a	n/a	19	n/a	n/a	n/a	n/a
2613.638671875	n/a	DISTRACTOR	5352732	n/a	LTP389	ltpFR2	12	12	n/a	n/a	n/a	n/a	0	0	0
2613.642578125	n/a	PROB	5352740	n/a	LTP389	ltpFR2	12	n/a	n/a	n/a	19	7	3	3	1
2615.32666015625	n/a	PROB	5356189	n/a	LTP389	ltpFR2	12	n/a	n/a	n/a	19	10	3	6	1
2616.95947265625	n/a	PROB	5359533	n/a	LTP389	ltpFR2	12	n/a	n/a	n/a	19	18	8	5	5
2618.19384765625	n/a	PROB	5362061	n/a	LTP389	ltpFR2	12	n/a	n/a	n/a	19	11	5	2	4
2619.74267578125	n/a	PROB	5365233	n/a	LTP389	ltpFR2	12	n/a	n/a	n/a	19	17	5	3	9
2621.2265625	n/a	PROB	5368272	n/a	LTP389	ltpFR2	12	n/a	n/a	n/a	19	14	1	5	8
2622.642578125	n/a	PROB	5371172	n/a	LTP389	ltpFR2	12	n/a	n/a	n/a	19	15	1	7	7
2623.92626953125	n/a	PROB	5373801	n/a	LTP389	ltpFR2	12	n/a	n/a	n/a	19	20	6	8	6
2626.87646484375	n/a	PROB	5379843	n/a	LTP389	ltpFR2	12	n/a	n/a	n/a	19	11	9	1	1
2628.12646484375	n/a	PROB	5382403	n/a	LTP389	ltpFR2	12	n/a	n/a	n/a	19	11	3	7	1
2629.25927734375	n/a	PROB	5384723	n/a	LTP389	ltpFR2	12	n/a	n/a	n/a	19	16	7	2	7
2630.84228515625	n/a	PROB	5387965	n/a	LTP389	ltpFR2	12	n/a	n/a	n/a	19	19	5	7	7
2632.4091796875	n/a	PROB	5391174	n/a	LTP389	ltpFR2	12	n/a	n/a	n/a	19	15	5	6	4
2633.7421875	n/a	PROB	5393904	n/a	LTP389	ltpFR2	12	n/a	n/a	n/a	19	11	3	4	4
2635.14208984375	n/a	PROB	5396771	n/a	LTP389	ltpFR2	12	n/a	n/a	n/a	19	13	4	8	1
2636.67724609375	n/a	STOP	5399915	n/a	LTP389	ltpFR2	12	n/a	n/a	n/a	19	n/a	n/a	n/a	n/a
2638.658203125	n/a	REC_START	5403972	n/a	LTP389	ltpFR2	12	12	n/a	n/a	n/a	n/a	0	0	0
2640.076171875	n/a	REC_WORD	5406876	wordpools/wasnorm_wordpool_576.txt	LTP389	ltpFR2	12	12	SUMMIT	1405	n/a	n/a	0	0	0
2641.009765625	n/a	REC_WORD	5408788	wordpools/wasnorm_wordpool_576.txt	LTP389	ltpFR2	12	12	CEILING	265	n/a	n/a	0	0	0
2641.9599609375	n/a	REC_WORD	5410734	wordpools/wasnorm_wordpool_576.txt	LTP389	ltpFR2	12	12	CROWN	415	n/a	n/a	0	0	0
2642.78369140625	n/a	REC_WORD	5412421	wordpools/wasnorm_wordpool_576.txt	LTP389	ltpFR2	12	12	PARROT	1015	n/a	n/a	0	0	0
2643.68603515625	n/a	REC_WORD	5414269	wordpools/wasnorm_wordpool_576.txt	LTP389	ltpFR2	12	12	BANK	83	n/a	n/a	0	0	0
2644.388671875	n/a	REC_WORD	5415708	wordpools/wasnorm_wordpool_576.txt	LTP389	ltpFR2	12	12	CROWN	415	n/a	n/a	0	0	0
2645.337890625	n/a	REC_WORD	5417652	wordpools/wasnorm_wordpool_576.txt	LTP389	ltpFR2	12	12	PERCH	1048	n/a	n/a	0	0	0
2647.48095703125	n/a	REC_WORD	5422041	wordpools/wasnorm_wordpool_576.txt	LTP389	ltpFR2	12	12	SLIME	1327	n/a	n/a	0	0	0
2650.27685546875	n/a	REC_WORD	5427767	wordpools/wasnorm_wordpool_576.txt	LTP389	ltpFR2	12	12	OINTMENT	974	n/a	n/a	0	0	0
2651.90283203125	n/a	REC_WORD	5431097	wordpools/wasnorm_wordpool_576.txt	LTP389	ltpFR2	12	12	SLOPE	1328	n/a	n/a	0	0	0
2662.662109375	n/a	REC_WORD	5453132	wordpools/wasnorm_wordpool_576.txt	LTP389	ltpFR2	12	12	TEACHER	1440	n/a	n/a	0	0	0
2663.943359375	n/a	REC_WORD	5455756	wordpools/wasnorm_wordpool_576.txt	LTP389	ltpFR2	12	12	ROBOT	1200	n/a	n/a	0	0	0
2664.955078125	n/a	REC_WORD	5457828	wordpools/wasnorm_wordpool_576.txt	LTP389	ltpFR2	12	12	EXPERT	543	n/a	n/a	0	0	0
2695.984375	n/a	REC_WORD	5521376	wordpools/wasnorm_wordpool_576.txt	LTP389	ltpFR2	12	12	DRUG	501	n/a	n/a	0	0	0
2701.8720703125	n/a	REC_WORD	5533434	wordpools/wasnorm_wordpool_576.txt	LTP389	ltpFR2	12	12	FUNGUS	614	n/a	n/a	0	0	0
2729.12109375	n/a	WORD	5589240	wordpools/wasnorm_wordpool_576.txt	LTP389	ltpFR2	12	13	PERFUME	1049	n/a	n/a	0	0	0
2731.7880859375	n/a	WORD	5594702	wordpools/wasnorm_wordpool_576.txt	LTP389	ltpFR2	12	13	HEADBAND	696	n/a	n/a	0	0	0
2734.52001953125	n/a	WORD	5600297	wordpools/wasnorm_wordpool_576.txt	LTP389	ltpFR2	12	13	DANDRUFF	439	n/a	n/a	0	0	0
2736.98828125	n/a	WORD	5605352	wordpools/wasnorm_wordpool_576.txt	LTP389	ltpFR2	12	13	FINGER	567	n/a	n/a	0	0	0
2739.52001953125	n/a	WORD	5610537	wordpools/wasnorm_wordpool_576.txt	LTP389	ltpFR2	12	13	HAND	683	n/a	n/a	0	0	0
2742.2880859375	n/a	WORD	5616206	wordpools/wasnorm_wordpool_576.txt	LTP389	ltpFR2	12	13	DRESSER	496	n/a	n/a	0	0	0
2745.07080078125	n/a	WORD	5621905	wordpools/wasnorm_wordpool_576.txt	LTP389	ltpFR2	12	13	SHELF	1280	n/a	n/a	0	0	0
2747.669921875	n/a	WORD	5627228	wordpools/wasnorm_wordpool_576.txt	LTP389	ltpFR2	12	13	LODGE	839	n/a	n/a	0	0	0
2750.20361328125	n/a	WORD	5632417	wordpools/wasnorm_wordpool_576.txt	LTP389	ltpFR2	12	13	GLASS	639	n/a	n/a	0	0	0
2752.87060546875	n/a	WORD	5637879	wordpools/wasnorm_wordpool_576.txt	LTP389	ltpFR2	12	13	SHRUB	1299	n/a	n/a	0	0	0
2755.435546875	n/a	WORD	5643132	wordpools/wasnorm_wordpool_576.txt	LTP389	ltpFR2	12	13	SKETCH	1315	n/a	n/a	0	0	0
2758.12060546875	n/a	WORD	5648631	wordpools/wasnorm_wordpool_576.txt	LTP389	ltpFR2	12	13	TWISTER	1530	n/a	n/a	0	0	0
2760.9033203125	n/a	WORD	5654330	wordpools/wasnorm_wordpool_576.txt	LTP389	ltpFR2	12	13	SUNRISE	1407	n/a	n/a	0	0	0
2763.4853515625	n/a	WORD	5659618	wordpools/wasnorm_wordpool_576.txt	LTP389	ltpFR2	12	13	WINDOW	1611	n/a	n/a	0	0	0
2766.203125	n/a	WORD	5665184	wordpools/wasnorm_wordpool_576.txt	LTP389	ltpFR2	12	13	BATHTUB	100	n/a	n/a	0	0	0
2768.88623046875	n/a	WORD	5670679	wordpools/wasnorm_wordpool_576.txt	LTP389	ltpFR2	12	13	DOLPHIN	483	n/a	n/a	0	0	0
2771.55224609375	n/a	WORD	5676139	wordpools/wasnorm_wordpool_576.txt	LTP389	ltpFR2	12	13	FRAGRANCE	599	n/a	n/a	0	0	0
2774.1689453125	n/a	WORD	5681498	wordpools/wasnorm_wordpool_576.txt	LTP389	ltpFR2	12	13	JEANS	752	n/a	n/a	0	0	0
2776.96875	n/a	WORD	5687232	wordpools/wasnorm_wordpool_576.txt	LTP389	ltpFR2	12	13	SHORTS	1293	n/a	n/a	0	0	0
2779.73583984375	n/a	WORD	5692899	wordpools/wasnorm_wordpool_576.txt	LTP389	ltpFR2	12	13	GAVEL	627	n/a	n/a	0	0	0
2782.28564453125	n/a	WORD	5698121	wordpools/wasnorm_wordpool_576.txt	LTP389	ltpFR2	12	13	SLIDE	1326	n/a	n/a	0	0	0
2785.00244140625	n/a	WORD	5703685	wordpools/wasnorm_wordpool_576.txt	LTP389	ltpFR2	12	13	BLENDER	136	n/a	n/a	0	0	0
2787.634765625	n/a	WORD	5709076	wordpools/wasnorm_wordpool_576.txt	LTP389	ltpFR2	12	13	OMELET	976	n/a	n/a	0	0	0
2790.2353515625	n/a	WORD	5714402	wordpools/wasnorm_wordpool_576.txt	LTP389	ltpFR2	12	13	MARSH	874	n/a	n/a	0	0	0
2791.8525390625	n/a	START	5717714	n/a	LTP389	ltpFR2	12	n/a	n/a	n/a	20	n/a	n/a	n/a	n/a
2792.865234375	n/a	DISTRACTOR	5719788	n/a	LTP389	ltpFR2	12	13	n/a	n/a	n/a	n/a	0	0	0
2792.8681640625	n/a	PROB	5719794	n/a	LTP389	ltpFR2	12	n/a	n/a	n/a	20	13	7	2	3
2795.068359375	n/a	PROB	5724300	n/a	LTP389	ltpFR2	12	n/a	n/a	n/a	20	20	9	9	2
2796.4501953125	n/a	PROB	5727130	n/a	LTP389	ltpFR2	12	n/a	n/a	n/a	20	19	7	6	6
2799.068359375	n/a	PROB	5732492	n/a	LTP389	ltpFR2	12	n/a	n/a	n/a	20	4	2	1	1
2800.13525390625	n/a	PROB	5734677	n/a	LTP389	ltpFR2	12	n/a	n/a	n/a	20	12	4	5	3
2801.63427734375	n/a	PROB	5737747	n/a	LTP389	ltpFR2	12	n/a	n/a	n/a	20	14	2	5	7
2802.96826171875	n/a	PROB	5740479	n/a	LTP389	ltpFR2	12	n/a	n/a	n/a	20	14	4	7	3
2804.48291015625	n/a	PROB	5743581	n/a	LTP389	ltpFR2	12	n/a	n/a	n/a	20	19	8	6	5
2806.43310546875	n/a	PROB	5747575	n/a	LTP389	ltpFR2	12	n/a	n/a	n/a	20	21	9	3	9
2808.05078125	n/a	PROB	5750888	n/a	LTP389	ltpFR2	12	n/a	n/a	n/a	20	13	1	8	4
2809.30078125	n/a	PROB	5753448	n/a	LTP389	ltpFR2	12	n/a	n/a	n/a	20	14	4	6	4
2811.1337890625	n/a	PROB	5757202	n/a	LTP389	ltpFR2	12	n/a	n/a	n/a	20	10	1	8	1
2812.3837890625	n/a	PROB	5759762	n/a	LTP389	ltpFR2	12	n/a	n/a	n/a	20	21	7	9	5
2814.7666015625	n/a	STOP	5764642	n/a	LTP389	ltpFR2	12	n/a	n/a	n/a	20	n/a	n/a	n/a	n/a
2817.6494140625	n/a	REC_START	5770546	n/a	LTP389	ltpFR2	12	13	n/a	n/a	n/a	n/a	0	0	0
2818.46337890625	n/a	REC_WORD	5772213	wordpools/wasnorm_wordpool_576.txt	LTP389	ltpFR2	12	13	PERFUME	1049	n/a	n/a	0	0	0
2820.806640625	n/a	REC_WORD	5777012	wordpools/wasnorm_wordpool_576.txt	LTP389	ltpFR2	12	13	FRAGRANCE	599	n/a	n/a	0	0	0
2821.92529296875	n/a	REC_WORD	5779303	wordpools/wasnorm_wordpool_576.txt	LTP389	ltpFR2	12	13	HEADBAND	696	n/a	n/a	0	0	0
2822.99560546875	n/a	REC_WORD	5781495	wordpools/wasnorm_wordpool_576.txt	LTP389	ltpFR2	12	13	DANDRUFF	439	n/a	n/a	0	0	0
2826.83740234375	n/a	REC_WORD	5789363	wordpools/wasnorm_wordpool_576.txt	LTP389	ltpFR2	12	13	FINGER	567	n/a	n/a	0	0	0
2827.7841796875	n/a	REC_WORD	5791302	wordpools/wasnorm_wordpool_576.txt	LTP389	ltpFR2	12	13	HAND	683	n/a	n/a	0	0	0
2828.84130859375	n/a	REC_WORD	5793467	wordpools/wasnorm_wordpool_576.txt	LTP389	ltpFR2	12	13	DRESSER	496	n/a	n/a	0	0	0
2829.96240234375	n/a	REC_WORD	5795763	wordpools/wasnorm_wordpool_576.txt	LTP389	ltpFR2	12	13	GLASS	639	n/a	n/a	0	0	0
2834.46728515625	n/a	REC_WORD	5804989	wordpools/wasnorm_wordpool_576.txt	LTP389	ltpFR2	12	13	SHRUB	1299	n/a	n/a	0	0	0
2835.5322265625	n/a	REC_WORD	5807170	wordpools/wasnorm_wordpool_576.txt	LTP389	ltpFR2	12	13	SKETCH	1315	n/a	n/a	0	0	0
2840.30615234375	n/a	REC_WORD	5816947	wordpools/wasnorm_wordpool_576.txt	LTP389	ltpFR2	12	13	PANTS	1010	n/a	n/a	0	0	0
2841.02490234375	n/a	REC_WORD	5818419	wordpools/wasnorm_wordpool_576.txt	LTP389	ltpFR2	12	13	SHORTS	1293	n/a	n/a	0	0	0
2842.2587890625	n/a	REC_WORD	5820946	wordpools/wasnorm_wordpool_576.txt	LTP389	ltpFR2	12	13	BATHTUB	100	n/a	n/a	0	0	0
2843.58984375	n/a	REC_WORD	5823672	wordpools/wasnorm_wordpool_576.txt	LTP389	ltpFR2	12	13	GAVEL	627	n/a	n/a	0	0	0
2844.4326171875	n/a	REC_WORD	5825398	wordpools/wasnorm_wordpool_576.txt	LTP389	ltpFR2	12	13	WINDOW	1611	n/a	n/a	0	0	0
2845.8427734375	n/a	REC_WORD	5828286	wordpools/wasnorm_wordpool_576.txt	LTP389	ltpFR2	12	13	OMELET	976	n/a	n/a	0	0	0
2851.12060546875	n/a	REC_WORD	5839095	wordpools/wasnorm_wordpool_576.txt	LTP389	ltpFR2	12	13	MARSH	874	n/a	n/a	0	0	0
2859.1044921875	n/a	REC_WORD	5855446	wordpools/wasnorm_wordpool_576.txt	LTP389	ltpFR2	12	13	GAVEL	627	n/a	n/a	0	0	0
2908.080078125	n/a	WORD	5955748	wordpools/wasnorm_wordpool_576.txt	LTP389	ltpFR2	12	14	SERVANT	1271	n/a	n/a	0	0	0
2910.72998046875	n/a	WORD	5961175	wordpools/wasnorm_wordpool_576.txt	LTP389	ltpFR2	12	14	COOK	372	n/a	n/a	0	0	0
2913.478515625	n/a	WORD	5966804	wordpools/wasnorm_wordpool_576.txt	LTP389	ltpFR2	12	14	CELLAR	267	n/a	n/a	0	0	0
2916.0126953125	n/a	WORD	5971994	wordpools/wasnorm_wordpool_576.txt	LTP389	ltpFR2	12	14	SHELTER	1282	n/a	n/a	0	0	0
2918.74560546875	n/a	WORD	5977591	wordpools/wasnorm_wordpool_576.txt	LTP389	ltpFR2	12	14	DIME	466	n/a	n/a	0	0	0
2921.345703125	n/a	WORD	5982916	wordpools/wasnorm_wordpool_576.txt	LTP389	ltpFR2	12	14	PICNIC	1060	n/a	n/a	0	0	0
2923.9794921875	n/a	WORD	5988310	wordpools/wasnorm_wordpool_576.txt	LTP389	ltpFR2	12	14	OUTFIT	988	n/a	n/a	0	0	0
2926.4111328125	n/a	WORD	5993290	wordpools/wasnorm_wordpool_576.txt	LTP389	ltpFR2	12	14	LION	827	n/a	n/a	0	0	0
2929.1123046875	n/a	WORD	5998822	wordpools/wasnorm_wordpool_576.txt	LTP389	ltpFR2	12	14	SILK	1307	n/a	n/a	0	0	0
2931.59423828125	n/a	WORD	6003905	wordpools/wasnorm_wordpool_576.txt	LTP389	ltpFR2	12	14	WAITER	1580	n/a	n/a	0	0	0
2934.06201171875	n/a	WORD	6008959	wordpools/wasnorm_wordpool_576.txt	LTP389	ltpFR2	12	14	HOSTESS	723	n/a	n/a	0	0	0
2936.828125	n/a	WORD	6014624	wordpools/wasnorm_wordpool_576.txt	LTP389	ltpFR2	12	14	BEAVER	109	n/a	n/a	0	0	0
2939.494140625	n/a	WORD	6020084	wordpools/wasnorm_wordpool_576.txt	LTP389	ltpFR2	12	14	COTTAGE	384	n/a	n/a	0	0	0
2942.2119140625	n/a	WORD	6025650	wordpools/wasnorm_wordpool_576.txt	LTP389	ltpFR2	12	14	SERVER	1272	n/a	n/a	0	0	0
2944.8447265625	n/a	WORD	6031042	wordpools/wasnorm_wordpool_576.txt	LTP389	ltpFR2	12	14	CLAMP	316	n/a	n/a	0	0	0
2947.57666015625	n/a	WORD	6036637	wordpools/wasnorm_wordpool_576.txt	LTP389	ltpFR2	12	14	SHOVEL	1295	n/a	n/a	0	0	0
2949.99462890625	n/a	WORD	6041589	wordpools/wasnorm_wordpool_576.txt	LTP389	ltpFR2	12	14	TRACTOR	1493	n/a	n/a	0	0	0
2952.810546875	n/a	WORD	6047356	wordpools/wasnorm_wordpool_576.txt	LTP389	ltpFR2	12	14	LEOPARD	812	n/a	n/a	0	0	0
2955.34423828125	n/a	WORD	6052545	wordpools/wasnorm_wordpool_576.txt	LTP389	ltpFR2	12	14	DASHBOARD	441	n/a	n/a	0	0	0
2958.1103515625	n/a	WORD	6058210	wordpools/wasnorm_wordpool_576.txt	LTP389	ltpFR2	12	14	BUGGY	188	n/a	n/a	0	0	0
2960.8271484375	n/a	WORD	6063774	wordpools/wasnorm_wordpool_576.txt	LTP389	ltpFR2	12	14	SISTER	1312	n/a	n/a	0	0	0
2963.62646484375	n/a	WORD	6069507	wordpools/wasnorm_wordpool_576.txt	LTP389	ltpFR2	12	14	SEAFOOD	1260	n/a	n/a	0	0	0
2966.06005859375	n/a	WORD	6074491	wordpools/wasnorm_wordpool_576.txt	LTP389	ltpFR2	12	14	OX	994	n/a	n/a	0	0	0
2968.8271484375	n/a	WORD	6080158	wordpools/wasnorm_wordpool_576.txt	LTP389	ltpFR2	12	14	HAMPER	682	n/a	n/a	0	0	0
2970.44287109375	n/a	START	6083467	n/a	LTP389	ltpFR2	12	n/a	n/a	n/a	21	n/a	n/a	n/a	n/a
2971.60400390625	n/a	DISTRACTOR	6085845	n/a	LTP389	ltpFR2	12	14	n/a	n/a	n/a	n/a	0	0	0
2971.60888671875	n/a	PROB	6085855	n/a	LTP389	ltpFR2	12	n/a	n/a	n/a	21	19	8	5	7
2973.8271484375	n/a	PROB	6090398	n/a	LTP389	ltpFR2	12	n/a	n/a	n/a	21	14	8	1	5
2975.19287109375	n/a	PROB	6093195	n/a	LTP389	ltpFR2	12	n/a	n/a	n/a	21	15	9	4	2
2976.77685546875	n/a	PROB	6096439	n/a	LTP389	ltpFR2	12	n/a	n/a	n/a	21	18	5	5	8
2977.90966796875	n/a	PROB	6098759	n/a	LTP389	ltpFR2	12	n/a	n/a	n/a	21	13	1	9	3
2979.07666015625	n/a	PROB	6101149	n/a	LTP389	ltpFR2	12	n/a	n/a	n/a	21	19	9	7	3
2980.57568359375	n/a	PROB	6104219	n/a	LTP389	ltpFR2	12	n/a	n/a	n/a	21	14	4	1	9
2982.3427734375	n/a	PROB	6107838	n/a	LTP389	ltpFR2	12	n/a	n/a	n/a	21	22	7	8	7
2985.92578125	n/a	PROB	6115176	n/a	LTP389	ltpFR2	12	n/a	n/a	n/a	21	18	8	5	5
2987.142578125	n/a	PROB	6117668	n/a	LTP389	ltpFR2	12	n/a	n/a	n/a	21	18	5	5	8
2988.6416015625	n/a	PROB	6120738	n/a	LTP389	ltpFR2	12	n/a	n/a	n/a	21	10	3	2	5
2990.6083984375	n/a	PROB	6124766	n/a	LTP389	ltpFR2	12	n/a	n/a	n/a	21	11	3	5	3
2991.9921875	n/a	PROB	6127600	n/a	LTP389	ltpFR2	12	n/a	n/a	n/a	21	25	9	7	9
2993.95849609375	n/a	STOP	6131627	n/a	LTP389	ltpFR2	12	n/a	n/a	n/a	21	n/a	n/a	n/a	n/a
2996.2763671875	n/a	REC_START	6136374	n/a	LTP389	ltpFR2	12	14	n/a	n/a	n/a	n/a	0	0	0
2997.4404296875	n/a	REC_WORD	6138758	wordpools/wasnorm_wordpool_576.txt	LTP389	ltpFR2	12	14	SERVANT	1271	n/a	n/a	0	0	0
2998.2412109375	n/a	REC_WORD	6140398	wordpools/wasnorm_wordpool_576.txt	LTP389	ltpFR2	12	14	SERVER	1272	n/a	n/a	0	0	0
2999.3701171875	n/a	REC_WORD	6142710	wordpools/wasnorm_wordpool_576.txt	LTP389	ltpFR2	12	14	HOSTESS	723	n/a	n/a	0	0	0
3000.64013671875	n/a	REC_WORD	6145311	wordpools/wasnorm_wordpool_576.txt	LTP389	ltpFR2	12	14	WAITER	1580	n/a	n/a	0	0	0
3003.92578125	n/a	REC_WORD	6152040	wordpools/wasnorm_wordpool_576.txt	LTP389	ltpFR2	12	14	DIME	466	n/a	n/a	0	0	0
3004.8857421875	n/a	REC_WORD	6154006	wordpools/wasnorm_wordpool_576.txt	LTP389	ltpFR2	12	14	OX	994	n/a	n/a	0	0	0
3006.0	n/a	REC_WORD	6156288	wordpools/wasnorm_wordpool_576.txt	LTP389	ltpFR2	12	14	PICNIC	1060	n/a	n/a	0	0	0
3007.56689453125	n/a	REC_WORD	6159497	wordpools/wasnorm_wordpool_576.txt	LTP389	ltpFR2	12	14	COOK	372	n/a	n/a	0	0	0
3008.52099609375	n/a	REC_WORD	6161451	wordpools/wasnorm_wordpool_576.txt	LTP389	ltpFR2	12	14	CELLAR	267	n/a	n/a	0	0	0
3010.3740234375	n/a	REC_WORD	6165246	wordpools/wasnorm_wordpool_576.txt	LTP389	ltpFR2	12	14	SHELTER	1282	n/a	n/a	0	0	0
3013.07177734375	n/a	REC_WORD	6170771	wordpools/wasnorm_wordpool_576.txt	LTP389	ltpFR2	12	14	LION	827	n/a	n/a	0	0	0
3018.0244140625	n/a	REC_WORD	6180914	wordpools/wasnorm_wordpool_576.txt	LTP389	ltpFR2	12	14	CABIN	211	n/a	n/a	0	0	0
3025.060546875	n/a	REC_WORD	6195324	wordpools/wasnorm_wordpool_576.txt	LTP389	ltpFR2	12	14	SILK	1307	n/a	n/a	0	0	0
3033.2099609375	n/a	REC_WORD	6212014	wordpools/wasnorm_wordpool_576.txt	LTP389	ltpFR2	12	14	CLAMP	316	n/a	n/a	0	0	0
3034.43994140625	n/a	REC_WORD	6214533	wordpools/wasnorm_wordpool_576.txt	LTP389	ltpFR2	12	14	BEAVER	109	n/a	n/a	0	0	0
3056.9931640625	n/a	REC_WORD	6260722	wordpools/wasnorm_wordpool_576.txt	LTP389	ltpFR2	12	14	SEAFOOD	1260	n/a	n/a	0	0	0
3086.7216796875	n/a	WORD	6321606	wordpools/wasnorm_wordpool_576.txt	LTP389	ltpFR2	12	15	CLOTHES	327	n/a	n/a	0	0	0
3089.486328125	n/a	WORD	6327268	wordpools/wasnorm_wordpool_576.txt	LTP389	ltpFR2	12	15	BROOK	177	n/a	n/a	0	0	0
3092.287109375	n/a	WORD	6333004	wordpools/wasnorm_wordpool_576.txt	LTP389	ltpFR2	12	15	SKILLET	1317	n/a	n/a	0	0	0
3095.0712890625	n/a	WORD	6338706	wordpools/wasnorm_wordpool_576.txt	LTP389	ltpFR2	12	15	RABBIT	1152	n/a	n/a	0	0	0
3097.52001953125	n/a	WORD	6343721	wordpools/wasnorm_wordpool_576.txt	LTP389	ltpFR2	12	15	STAPLE	1371	n/a	n/a	0	0	0
3100.12109375	n/a	WORD	6349048	wordpools/wasnorm_wordpool_576.txt	LTP389	ltpFR2	12	15	BUG	187	n/a	n/a	0	0	0
3102.68701171875	n/a	WORD	6354303	wordpools/wasnorm_wordpool_576.txt	LTP389	ltpFR2	12	15	CLOUD	328	n/a	n/a	0	0	0
3105.43603515625	n/a	WORD	6359933	wordpools/wasnorm_wordpool_576.txt	LTP389	ltpFR2	12	15	ISLAND	745	n/a	n/a	0	0	0
3107.85400390625	n/a	WORD	6364885	wordpools/wasnorm_wordpool_576.txt	LTP389	ltpFR2	12	15	STREAM	1392	n/a	n/a	0	0	0
3110.28662109375	n/a	WORD	6369867	wordpools/wasnorm_wordpool_576.txt	LTP389	ltpFR2	12	15	SEAL	1262	n/a	n/a	0	0	0
3112.73681640625	n/a	WORD	6374885	wordpools/wasnorm_wordpool_576.txt	LTP389	ltpFR2	12	15	MOTOR	922	n/a	n/a	0	0	0
3115.1865234375	n/a	WORD	6379902	wordpools/wasnorm_wordpool_576.txt	LTP389	ltpFR2	12	15	LIGHTNING	820	n/a	n/a	0	0	0
3117.7197265625	n/a	WORD	6385090	wordpools/wasnorm_wordpool_576.txt	LTP389	ltpFR2	12	15	WRIST	1626	n/a	n/a	0	0	0
3120.45263671875	n/a	WORD	6390687	wordpools/wasnorm_wordpool_576.txt	LTP389	ltpFR2	12	15	SWAMP	1416	n/a	n/a	0	0	0
3123.11962890625	n/a	WORD	6396149	wordpools/wasnorm_wordpool_576.txt	LTP389	ltpFR2	12	15	HIGHWAY	707	n/a	n/a	0	0	0
3125.7861328125	n/a	WORD	6401610	wordpools/wasnorm_wordpool_576.txt	LTP389	ltpFR2	12	15	OYSTER	995	n/a	n/a	0	0	0
3128.21923828125	n/a	WORD	6406593	wordpools/wasnorm_wordpool_576.txt	LTP389	ltpFR2	12	15	PISTON	1076	n/a	n/a	0	0	0
3130.7529296875	n/a	WORD	6411782	wordpools/wasnorm_wordpool_576.txt	LTP389	ltpFR2	12	15	STALLION	1369	n/a	n/a	0	0	0
3133.30224609375	n/a	WORD	6417003	wordpools/wasnorm_wordpool_576.txt	LTP389	ltpFR2	12	15	WAGON	1578	n/a	n/a	0	0	0
3135.8359375	n/a	WORD	6422192	wordpools/wasnorm_wordpool_576.txt	LTP389	ltpFR2	12	15	WASP	1593	n/a	n/a	0	0	0
3138.55078125	n/a	WORD	6427752	wordpools/wasnorm_wordpool_576.txt	LTP389	ltpFR2	12	15	MARKER	870	n/a	n/a	0	0	0
3141.0859375	n/a	WORD	6432944	wordpools/wasnorm_wordpool_576.txt	LTP389	ltpFR2	12	15	HUSBAND	728	n/a	n/a	0	0	0
3143.78564453125	n/a	WORD	6438473	wordpools/wasnorm_wordpool_576.txt	LTP389	ltpFR2	12	15	SPOUSE	1358	n/a	n/a	0	0	0
3146.23583984375	n/a	WORD	6443491	wordpools/wasnorm_wordpool_576.txt	LTP389	ltpFR2	12	15	HORNET	718	n/a	n/a	0	0	0
3147.8515625	n/a	START	6446800	n/a	LTP389	ltpFR2	12	n/a	n/a	n/a	22	n/a	n/a	n/a	n/a
3148.8076171875	n/a	DISTRACTOR	6448758	n/a	LTP389	ltpFR2	12	15	n/a	n/a	n/a	n/a	0	0	0
3148.81884765625	n/a	PROB	6448781	n/a	LTP389	ltpFR2	12	n/a	n/a	n/a	22	11	1	3	7
3150.7685546875	n/a	PROB	6452774	n/a	LTP389	ltpFR2	12	n/a	n/a	n/a	22	14	8	4	2
3152.61767578125	n/a	PROB	6456561	n/a	LTP389	ltpFR2	12	n/a	n/a	n/a	22	15	4	8	3
3154.91845703125	n/a	PROB	6461273	n/a	LTP389	ltpFR2	12	n/a	n/a	n/a	22	12	5	4	3
3156.1513671875	n/a	PROB	6463798	n/a	LTP389	ltpFR2	12	n/a	n/a	n/a	22	16	8	2	6
3157.318359375	n/a	PROB	6466188	n/a	LTP389	ltpFR2	12	n/a	n/a	n/a	22	20	8	3	9
3158.984375	n/a	PROB	6469600	n/a	LTP389	ltpFR2	12	n/a	n/a	n/a	22	13	3	6	4
3160.38427734375	n/a	PROB	6472467	n/a	LTP389	ltpFR2	12	n/a	n/a	n/a	22	11	1	4	6
3161.533203125	n/a	PROB	6474820	n/a	LTP389	ltpFR2	12	n/a	n/a	n/a	22	4	1	2	1
3162.63330078125	n/a	PROB	6477073	n/a	LTP389	ltpFR2	12	n/a	n/a	n/a	22	18	2	7	9
3163.91796875	n/a	PROB	6479704	n/a	LTP389	ltpFR2	12	n/a	n/a	n/a	22	13	5	3	5
3165.1181640625	n/a	PROB	6482162	n/a	LTP389	ltpFR2	12	n/a	n/a	n/a	22	8	3	4	1
3166.43310546875	n/a	PROB	6484855	n/a	LTP389	ltpFR2	12	n/a	n/a	n/a	22	8	2	2	4
3167.5830078125	n/a	PROB	6487210	n/a	LTP389	ltpFR2	12	n/a	n/a	n/a	22	10	6	3	1
3169.10107421875	n/a	PROB	6490319	n/a	LTP389	ltpFR2	12	n/a	n/a	n/a	22	16	3	8	5
3171.40478515625	n/a	STOP	6495037	n/a	LTP389	ltpFR2	12	n/a	n/a	n/a	22	n/a	n/a	n/a	n/a
3173.68505859375	n/a	REC_START	6499707	n/a	LTP389	ltpFR2	12	15	n/a	n/a	n/a	n/a	0	0	0
3175.1337890625	n/a	REC_WORD	6502674	wordpools/wasnorm_wordpool_576.txt	LTP389	ltpFR2	12	15	BROOK	177	n/a	n/a	0	0	0
3175.86962890625	n/a	REC_WORD	6504181	wordpools/wasnorm_wordpool_576.txt	LTP389	ltpFR2	12	15	SKILLET	1317	n/a	n/a	0	0	0
3177.02880859375	n/a	REC_WORD	6506555	wordpools/wasnorm_wordpool_576.txt	LTP389	ltpFR2	12	15	CLOTHES	327	n/a	n/a	0	0	0
3183.37255859375	n/a	REC_WORD	6519547	wordpools/wasnorm_wordpool_576.txt	LTP389	ltpFR2	12	15	BUNNY	198	n/a	n/a	0	0	0
3184.33935546875	n/a	REC_WORD	6521527	wordpools/wasnorm_wordpool_576.txt	LTP389	ltpFR2	12	15	CLOUD	328	n/a	n/a	0	0	0
3187.40869140625	n/a	REC_WORD	6527813	wordpools/wasnorm_wordpool_576.txt	LTP389	ltpFR2	12	15	BUG	187	n/a	n/a	0	0	0
3192.29248046875	n/a	REC_WORD	6537815	wordpools/wasnorm_wordpool_576.txt	LTP389	ltpFR2	12	15	STAPLE	1371	n/a	n/a	0	0	0
3195.083984375	n/a	REC_WORD	6543532	wordpools/wasnorm_wordpool_576.txt	LTP389	ltpFR2	12	15	WAGON	1578	n/a	n/a	0	0	0
3195.9111328125	n/a	REC_WORD	6545226	wordpools/wasnorm_wordpool_576.txt	LTP389	ltpFR2	12	15	HIGHWAY	707	n/a	n/a	0	0	0
3196.8701171875	n/a	REC_WORD	6547190	wordpools/wasnorm_wordpool_576.txt	LTP389	ltpFR2	12	15	SPOUSE	1358	n/a	n/a	0	0	0
3197.8662109375	n/a	REC_WORD	6549230	wordpools/wasnorm_wordpool_576.txt	LTP389	ltpFR2	12	15	HUSBAND	728	n/a	n/a	0	0	0
3199.47021484375	n/a	REC_WORD	6552515	wordpools/wasnorm_wordpool_576.txt	LTP389	ltpFR2	12	15	WASP	1593	n/a	n/a	0	0	0
3205.119140625	n/a	REC_WORD	6564084	wordpools/wasnorm_wordpool_576.txt	LTP389	ltpFR2	12	15	HORNET	718	n/a	n/a	0	0	0
3215.40380859375	n/a	REC_WORD	6585147	wordpools/wasnorm_wordpool_576.txt	LTP389	ltpFR2	12	15	SWAMP	1416	n/a	n/a	0	0	0
3264.14599609375	n/a	WORD	6684971	wordpools/wasnorm_wordpool_576.txt	LTP389	ltpFR2	12	16	TRUCK	1512	n/a	n/a	0	0	0
3266.68017578125	n/a	WORD	6690161	wordpools/wasnorm_wordpool_576.txt	LTP389	ltpFR2	12	16	CANAL	226	n/a	n/a	0	0	0
3269.27978515625	n/a	WORD	6695485	wordpools/wasnorm_wordpool_576.txt	LTP389	ltpFR2	12	16	COUNTRY	388	n/a	n/a	0	0	0
3271.845703125	n/a	WORD	6700740	wordpools/wasnorm_wordpool_576.txt	LTP389	ltpFR2	12	16	BOARD	143	n/a	n/a	0	0	0
3274.31298828125	n/a	WORD	6705793	wordpools/wasnorm_wordpool_576.txt	LTP389	ltpFR2	12	16	AWARD	63	n/a	n/a	0	0	0
3276.9287109375	n/a	WORD	6711150	wordpools/wasnorm_wordpool_576.txt	LTP389	ltpFR2	12	16	VALVE	1546	n/a	n/a	0	0	0
3279.37890625	n/a	WORD	6716168	wordpools/wasnorm_wordpool_576.txt	LTP389	ltpFR2	12	16	PASTRY	1022	n/a	n/a	0	0	0
3281.94580078125	n/a	WORD	6721425	wordpools/wasnorm_wordpool_576.txt	LTP389	ltpFR2	12	16	DENTIST	447	n/a	n/a	0	0	0
3284.4775390625	n/a	WORD	6726610	wordpools/wasnorm_wordpool_576.txt	LTP389	ltpFR2	12	16	PEACH	1031	n/a	n/a	0	0	0
3286.99560546875	n/a	WORD	6731767	wordpools/wasnorm_wordpool_576.txt	LTP389	ltpFR2	12	16	KEEPER	769	n/a	n/a	0	0	0
3289.728515625	n/a	WORD	6737364	wordpools/wasnorm_wordpool_576.txt	LTP389	ltpFR2	12	16	ATLAS	53	n/a	n/a	0	0	0
3292.228515625	n/a	WORD	6742484	wordpools/wasnorm_wordpool_576.txt	LTP389	ltpFR2	12	16	PIGEON	1065	n/a	n/a	0	0	0
3294.71240234375	n/a	WORD	6747571	wordpools/wasnorm_wordpool_576.txt	LTP389	ltpFR2	12	16	ROOSTER	1209	n/a	n/a	0	0	0
3297.294921875	n/a	WORD	6752860	wordpools/wasnorm_wordpool_576.txt	LTP389	ltpFR2	12	16	GARDEN	623	n/a	n/a	0	0	0
3299.97802734375	n/a	WORD	6758355	wordpools/wasnorm_wordpool_576.txt	LTP389	ltpFR2	12	16	DAISY	435	n/a	n/a	0	0	0
3302.44384765625	n/a	WORD	6763405	wordpools/wasnorm_wordpool_576.txt	LTP389	ltpFR2	12	16	KETCHUP	771	n/a	n/a	0	0	0
3305.044921875	n/a	WORD	6768732	wordpools/wasnorm_wordpool_576.txt	LTP389	ltpFR2	12	16	EUROPE	541	n/a	n/a	0	0	0
3307.5439453125	n/a	WORD	6773850	wordpools/wasnorm_wordpool_576.txt	LTP389	ltpFR2	12	16	LACE	792	n/a	n/a	0	0	0
3310.177734375	n/a	WORD	6779244	wordpools/wasnorm_wordpool_576.txt	LTP389	ltpFR2	12	16	LETTUCE	814	n/a	n/a	0	0	0
3312.810546875	n/a	WORD	6784636	wordpools/wasnorm_wordpool_576.txt	LTP389	ltpFR2	12	16	FLESH	579	n/a	n/a	0	0	0
3315.54248046875	n/a	WORD	6790231	wordpools/wasnorm_wordpool_576.txt	LTP389	ltpFR2	12	16	PAPER	1011	n/a	n/a	0	0	0
3317.96044921875	n/a	WORD	6795183	wordpools/wasnorm_wordpool_576.txt	LTP389	ltpFR2	12	16	SCRIBBLE	1256	n/a	n/a	0	0	0
3320.57666015625	n/a	WORD	6800541	wordpools/wasnorm_wordpool_576.txt	LTP389	ltpFR2	12	16	WIDOW	1608	n/a	n/a	0	0	0
3323.16015625	n/a	WORD	6805832	wordpools/wasnorm_wordpool_576.txt	LTP389	ltpFR2	12	16	FLOWER	584	n/a	n/a	0	0	0
3324.77734375	n/a	START	6809144	n/a	LTP389	ltpFR2	12	n/a	n/a	n/a	23	n/a	n/a	n/a	n/a
3325.92529296875	n/a	DISTRACTOR	6811495	n/a	LTP389	ltpFR2	12	16	n/a	n/a	n/a	n/a	0	0	0
3325.943359375	n/a	PROB	6811532	n/a	LTP389	ltpFR2	12	n/a	n/a	n/a	23	16	5	4	7
3327.9931640625	n/a	PROB	6815730	n/a	LTP389	ltpFR2	12	n/a	n/a	n/a	23	21	4	9	8
3330.91015625	n/a	PROB	6821704	n/a	LTP389	ltpFR2	12	n/a	n/a	n/a	23	18	3	9	6
