mstime	trial_type	stim_file	subject	experiment	session	trial	item_name	item_num	list	answer	test_x	test_y	test_z
0	SESS_START	n/a	LTP236	ltpFR2	11	n/a	n/a	n/a	n/a	n/a	0	0	0
13214	START	n/a	LTP236	ltpFR2	11	n/a	n/a	n/a	-1	n/a	n/a	n/a	n/a
13245	PROB	n/a	LTP236	ltpFR2	11	n/a	n/a	n/a	-1	21	4	8	9
14846	PROB	n/a	LTP236	ltpFR2	11	n/a	n/a	n/a	-1	22	8	6	8
15913	PROB	n/a	LTP236	ltpFR2	11	n/a	n/a	n/a	-1	11	3	4	4
17416	PROB	n/a	LTP236	ltpFR2	11	n/a	n/a	n/a	-1	16	4	8	4
18417	PROB	n/a	LTP236	ltpFR2	11	n/a	n/a	n/a	-1	24	8	8	8
19434	PROB	n/a	LTP236	ltpFR2	11	n/a	n/a	n/a	-1	17	2	7	8
20718	PROB	n/a	LTP236	ltpFR2	11	n/a	n/a	n/a	-1	13	7	2	4
21718	PROB	n/a	LTP236	ltpFR2	11	n/a	n/a	n/a	-1	16	8	2	6
22669	PROB	n/a	LTP236	ltpFR2	11	n/a	n/a	n/a	-1	11	7	2	2
23670	PROB	n/a	LTP236	ltpFR2	11	n/a	n/a	n/a	-1	14	1	6	7
24620	STOP	n/a	LTP236	ltpFR2	11	n/a	n/a	n/a	-1	n/a	n/a	n/a	n/a
54581	DISTRACTOR	n/a	LTP236	ltpFR2	11	1	n/a	n/a	n/a	n/a	0	0	0
54582	START	n/a	LTP236	ltpFR2	11	n/a	n/a	n/a	1	n/a	n/a	n/a	n/a
54598	PROB	n/a	LTP236	ltpFR2	11	n/a	n/a	n/a	1	15	8	6	1
56048	PROB	n/a	LTP236	ltpFR2	11	n/a	n/a	n/a	1	10	4	2	4
57167	PROB	n/a	LTP236	ltpFR2	11	n/a	n/a	n/a	1	4	1	2	1
58101	PROB	n/a	LTP236	ltpFR2	11	n/a	n/a	n/a	1	6	2	2	2
58901	PROB	n/a	LTP236	ltpFR2	11	n/a	n/a	n/a	1	21	8	5	8
60018	PROB	n/a	LTP236	ltpFR2	11	n/a	n/a	n/a	1	9	3	3	3
60919	PROB	n/a	LTP236	ltpFR2	11	n/a	n/a	n/a	1	8	4	2	2
62704	PROB	n/a	LTP236	ltpFR2	11	n/a	n/a	n/a	1	18	5	9	4
63838	PROB	n/a	LTP236	ltpFR2	11	n/a	n/a	n/a	1	15	5	3	7
64923	PROB	n/a	LTP236	ltpFR2	11	n/a	n/a	n/a	1	10	7	1	2
66475	PROB	n/a	LTP236	ltpFR2	11	n/a	n/a	n/a	1	14	4	8	2
67459	PROB	n/a	LTP236	ltpFR2	11	n/a	n/a	n/a	1	15	2	7	6
68427	PROB	n/a	LTP236	ltpFR2	11	n/a	n/a	n/a	1	14	5	1	8
69411	PROB	n/a	LTP236	ltpFR2	11	n/a	n/a	n/a	1	15	5	5	5
70295	PROB	n/a	LTP236	ltpFR2	11	n/a	n/a	n/a	1	13	2	7	4
71263	PROB	n/a	LTP236	ltpFR2	11	n/a	n/a	n/a	1	13	8	3	2
72213	PROB	n/a	LTP236	ltpFR2	11	n/a	n/a	n/a	1	12	5	3	4
73214	PROB	n/a	LTP236	ltpFR2	11	n/a	n/a	n/a	1	14	4	6	4
74115	PROB	n/a	LTP236	ltpFR2	11	n/a	n/a	n/a	1	15	8	6	1
75048	PROB	n/a	LTP236	ltpFR2	11	n/a	n/a	n/a	1	19	8	8	3
76467	PROB	n/a	LTP236	ltpFR2	11	n/a	n/a	n/a	1	20	6	8	6
77870	STOP	n/a	LTP236	ltpFR2	11	n/a	n/a	n/a	1	n/a	n/a	n/a	n/a
79719	WORD	wordpools/wasnorm_wordpool_576.txt	LTP236	ltpFR2	11	1	ACTOR	5	n/a	n/a	0	0	0
82372	WORD	wordpools/wasnorm_wordpool_576.txt	LTP236	ltpFR2	11	1	STUDENT	1395	n/a	n/a	0	0	0
85158	WORD	wordpools/wasnorm_wordpool_576.txt	LTP236	ltpFR2	11	1	PEACH	1031	n/a	n/a	0	0	0
87976	WORD	wordpools/wasnorm_wordpool_576.txt	LTP236	ltpFR2	11	1	PALACE	1006	n/a	n/a	0	0	0
90529	WORD	wordpools/wasnorm_wordpool_576.txt	LTP236	ltpFR2	11	1	LONDON	843	n/a	n/a	0	0	0
92981	WORD	wordpools/wasnorm_wordpool_576.txt	LTP236	ltpFR2	11	1	PASSAGE	1019	n/a	n/a	0	0	0
95550	WORD	wordpools/wasnorm_wordpool_576.txt	LTP236	ltpFR2	11	1	MILK	895	n/a	n/a	0	0	0
98203	WORD	wordpools/wasnorm_wordpool_576.txt	LTP236	ltpFR2	11	1	WITNESS	1618	n/a	n/a	0	0	0
100654	WORD	wordpools/wasnorm_wordpool_576.txt	LTP236	ltpFR2	11	1	ACTRESS	6	n/a	n/a	0	0	0
103391	WORD	wordpools/wasnorm_wordpool_576.txt	LTP236	ltpFR2	11	1	CONVICT	371	n/a	n/a	0	0	0
105875	WORD	wordpools/wasnorm_wordpool_576.txt	LTP236	ltpFR2	11	1	SUSPECT	1415	n/a	n/a	0	0	0
108428	WORD	wordpools/wasnorm_wordpool_576.txt	LTP236	ltpFR2	11	1	POCKET	1093	n/a	n/a	0	0	0
110879	WORD	wordpools/wasnorm_wordpool_576.txt	LTP236	ltpFR2	11	1	FOX	598	n/a	n/a	0	0	0
113399	WORD	wordpools/wasnorm_wordpool_576.txt	LTP236	ltpFR2	11	1	PUPPY	1144	n/a	n/a	0	0	0
115850	WORD	wordpools/wasnorm_wordpool_576.txt	LTP236	ltpFR2	11	1	CREATURE	403	n/a	n/a	0	0	0
118470	WORD	wordpools/wasnorm_wordpool_576.txt	LTP236	ltpFR2	11	1	TWEEZERS	1526	n/a	n/a	0	0	0
121290	WORD	wordpools/wasnorm_wordpool_576.txt	LTP236	ltpFR2	11	1	DORM	488	n/a	n/a	0	0	0
123724	WORD	wordpools/wasnorm_wordpool_576.txt	LTP236	ltpFR2	11	1	COURSE	390	n/a	n/a	0	0	0
126527	WORD	wordpools/wasnorm_wordpool_576.txt	LTP236	ltpFR2	11	1	SLIDE	1326	n/a	n/a	0	0	0
129213	WORD	wordpools/wasnorm_wordpool_576.txt	LTP236	ltpFR2	11	1	CAMEL	223	n/a	n/a	0	0	0
132015	WORD	wordpools/wasnorm_wordpool_576.txt	LTP236	ltpFR2	11	1	CATCHER	258	n/a	n/a	0	0	0
134601	WORD	wordpools/wasnorm_wordpool_576.txt	LTP236	ltpFR2	11	1	WRIST	1626	n/a	n/a	0	0	0
137337	WORD	wordpools/wasnorm_wordpool_576.txt	LTP236	ltpFR2	11	1	HOSTESS	723	n/a	n/a	0	0	0
140072	WORD	wordpools/wasnorm_wordpool_576.txt	LTP236	ltpFR2	11	1	DENIM	446	n/a	n/a	0	0	0
141690	START	n/a	LTP236	ltpFR2	11	n/a	n/a	n/a	2	n/a	n/a	n/a	n/a
142773	DISTRACTOR	n/a	LTP236	ltpFR2	11	1	n/a	n/a	n/a	n/a	0	0	0
142791	PROB	n/a	LTP236	ltpFR2	11	n/a	n/a	n/a	2	10	1	2	7
144343	PROB	n/a	LTP236	ltpFR2	11	n/a	n/a	n/a	2	7	2	1	4
145693	PROB	n/a	LTP236	ltpFR2	11	n/a	n/a	n/a	2	21	8	4	9
147579	PROB	n/a	LTP236	ltpFR2	11	n/a	n/a	n/a	2	10	2	2	6
148629	PROB	n/a	LTP236	ltpFR2	11	n/a	n/a	n/a	2	10	2	3	5
149813	PROB	n/a	LTP236	ltpFR2	11	n/a	n/a	n/a	2	9	1	3	5
150798	PROB	n/a	LTP236	ltpFR2	11	n/a	n/a	n/a	2	14	8	1	5
153151	PROB	n/a	LTP236	ltpFR2	11	n/a	n/a	n/a	2	14	8	1	5
154535	PROB	n/a	LTP236	ltpFR2	11	n/a	n/a	n/a	2	17	4	8	5
155802	PROB	n/a	LTP236	ltpFR2	11	n/a	n/a	n/a	2	14	2	4	8
158122	PROB	n/a	LTP236	ltpFR2	11	n/a	n/a	n/a	2	15	6	6	3
159072	PROB	n/a	LTP236	ltpFR2	11	n/a	n/a	n/a	2	17	3	7	7
160173	PROB	n/a	LTP236	ltpFR2	11	n/a	n/a	n/a	2	20	8	6	6
161991	PROB	n/a	LTP236	ltpFR2	11	n/a	n/a	n/a	2	20	4	9	7
163159	PROB	n/a	LTP236	ltpFR2	11	n/a	n/a	n/a	2	13	3	4	6
164346	STOP	n/a	LTP236	ltpFR2	11	n/a	n/a	n/a	2	n/a	n/a	n/a	n/a
167580	REC_START	n/a	LTP236	ltpFR2	11	1	n/a	n/a	n/a	n/a	0	0	0
168091	REC_WORD	wordpools/wasnorm_wordpool_576.txt	LTP236	ltpFR2	11	1	HOSTESS	723	n/a	n/a	0	0	0
168948	REC_WORD	wordpools/wasnorm_wordpool_576.txt	LTP236	ltpFR2	11	1	DENIM	446	n/a	n/a	0	0	0
169600	REC_WORD	wordpools/wasnorm_wordpool_576.txt	LTP236	ltpFR2	11	1	WRIST	1626	n/a	n/a	0	0	0
170894	REC_WORD	wordpools/wasnorm_wordpool_576.txt	LTP236	ltpFR2	11	1	CONVICT	371	n/a	n/a	0	0	0
171807	REC_WORD	wordpools/wasnorm_wordpool_576.txt	LTP236	ltpFR2	11	1	CATCHER	258	n/a	n/a	0	0	0
172432	REC_WORD	wordpools/wasnorm_wordpool_576.txt	LTP236	ltpFR2	11	1	SUSPECT	1415	n/a	n/a	0	0	0
173384	REC_WORD	wordpools/wasnorm_wordpool_576.txt	LTP236	ltpFR2	11	1	POCKET	1093	n/a	n/a	0	0	0
173970	REC_WORD	wordpools/wasnorm_wordpool_576.txt	LTP236	ltpFR2	11	1	TWEEZERS	1526	n/a	n/a	0	0	0
176619	REC_WORD	wordpools/wasnorm_wordpool_576.txt	LTP236	ltpFR2	11	1	MILK	895	n/a	n/a	0	0	0
177335	REC_WORD	wordpools/wasnorm_wordpool_576.txt	LTP236	ltpFR2	11	1	PEACH	1031	n/a	n/a	0	0	0
180092	REC_WORD	wordpools/wasnorm_wordpool_576.txt	LTP236	ltpFR2	11	1	FOX	598	n/a	n/a	0	0	0
181084	REC_WORD	wordpools/wasnorm_wordpool_576.txt	LTP236	ltpFR2	11	1	CAMEL	223	n/a	n/a	0	0	0
181902	REC_WORD	wordpools/wasnorm_wordpool_576.txt	LTP236	ltpFR2	11	1	PUPPY	1144	n/a	n/a	0	0	0
183483	REC_WORD	wordpools/wasnorm_wordpool_576.txt	LTP236	ltpFR2	11	1	LONDON	843	n/a	n/a	0	0	0
184261	REC_WORD	wordpools/wasnorm_wordpool_576.txt	LTP236	ltpFR2	11	1	PALACE	1006	n/a	n/a	0	0	0
186980	REC_WORD	wordpools/wasnorm_wordpool_576.txt	LTP236	ltpFR2	11	1	STUDENT	1395	n/a	n/a	0	0	0
188311	REC_WORD	wordpools/wasnorm_wordpool_576.txt	LTP236	ltpFR2	11	1	COURSE	390	n/a	n/a	0	0	0
190284	REC_WORD	wordpools/wasnorm_wordpool_576.txt	LTP236	ltpFR2	11	1	ACTOR	5	n/a	n/a	0	0	0
191138	REC_WORD	wordpools/wasnorm_wordpool_576.txt	LTP236	ltpFR2	11	1	ACTRESS	6	n/a	n/a	0	0	0
258192	WORD	wordpools/wasnorm_wordpool_576.txt	LTP236	ltpFR2	11	2	COMET	353	n/a	n/a	0	0	0
260860	WORD	wordpools/wasnorm_wordpool_576.txt	LTP236	ltpFR2	11	2	PANTHER	1009	n/a	n/a	0	0	0
263646	WORD	wordpools/wasnorm_wordpool_576.txt	LTP236	ltpFR2	11	2	MARKER	870	n/a	n/a	0	0	0
266266	WORD	wordpools/wasnorm_wordpool_576.txt	LTP236	ltpFR2	11	2	KETCHUP	771	n/a	n/a	0	0	0
268967	WORD	wordpools/wasnorm_wordpool_576.txt	LTP236	ltpFR2	11	2	STAR	1373	n/a	n/a	0	0	0
271753	WORD	wordpools/wasnorm_wordpool_576.txt	LTP236	ltpFR2	11	2	FUNGUS	614	n/a	n/a	0	0	0
274189	WORD	wordpools/wasnorm_wordpool_576.txt	LTP236	ltpFR2	11	2	RECORD	1176	n/a	n/a	0	0	0
276791	WORD	wordpools/wasnorm_wordpool_576.txt	LTP236	ltpFR2	11	2	KITCHEN	778	n/a	n/a	0	0	0
279626	WORD	wordpools/wasnorm_wordpool_576.txt	LTP236	ltpFR2	11	2	JUGGLER	763	n/a	n/a	0	0	0
282313	WORD	wordpools/wasnorm_wordpool_576.txt	LTP236	ltpFR2	11	2	SALMON	1227	n/a	n/a	0	0	0
284898	WORD	wordpools/wasnorm_wordpool_576.txt	LTP236	ltpFR2	11	2	LUMBER	848	n/a	n/a	0	0	0
287351	WORD	wordpools/wasnorm_wordpool_576.txt	LTP236	ltpFR2	11	2	STAKE	1368	n/a	n/a	0	0	0
290052	WORD	wordpools/wasnorm_wordpool_576.txt	LTP236	ltpFR2	11	2	MAMMAL	861	n/a	n/a	0	0	0
292871	WORD	wordpools/wasnorm_wordpool_576.txt	LTP236	ltpFR2	11	2	ZEBRA	1635	n/a	n/a	0	0	0
295591	WORD	wordpools/wasnorm_wordpool_576.txt	LTP236	ltpFR2	11	2	HOUND	724	n/a	n/a	0	0	0
298410	WORD	wordpools/wasnorm_wordpool_576.txt	LTP236	ltpFR2	11	2	WRENCH	1625	n/a	n/a	0	0	0
301029	WORD	wordpools/wasnorm_wordpool_576.txt	LTP236	ltpFR2	11	2	PLIERS	1089	n/a	n/a	0	0	0
303532	WORD	wordpools/wasnorm_wordpool_576.txt	LTP236	ltpFR2	11	2	LADDER	793	n/a	n/a	0	0	0
306066	WORD	wordpools/wasnorm_wordpool_576.txt	LTP236	ltpFR2	11	2	GRILL	661	n/a	n/a	0	0	0
308553	WORD	wordpools/wasnorm_wordpool_576.txt	LTP236	ltpFR2	11	2	CUPBOARD	425	n/a	n/a	0	0	0
311338	WORD	wordpools/wasnorm_wordpool_576.txt	LTP236	ltpFR2	11	2	PERMIT	1051	n/a	n/a	0	0	0
314040	WORD	wordpools/wasnorm_wordpool_576.txt	LTP236	ltpFR2	11	2	CONTRACT	368	n/a	n/a	0	0	0
316792	WORD	wordpools/wasnorm_wordpool_576.txt	LTP236	ltpFR2	11	2	SILK	1307	n/a	n/a	0	0	0
319345	WORD	wordpools/wasnorm_wordpool_576.txt	LTP236	ltpFR2	11	2	ROBOT	1200	n/a	n/a	0	0	0
320963	START	n/a	LTP236	ltpFR2	11	n/a	n/a	n/a	3	n/a	n/a	n/a	n/a
321976	DISTRACTOR	n/a	LTP236	ltpFR2	11	2	n/a	n/a	n/a	n/a	0	0	0
321997	PROB	n/a	LTP236	ltpFR2	11	n/a	n/a	n/a	3	13	2	7	4
324283	PROB	n/a	LTP236	ltpFR2	11	n/a	n/a	n/a	3	14	4	5	8
325633	PROB	n/a	LTP236	ltpFR2	11	n/a	n/a	n/a	3	22	5	8	9
327086	PROB	n/a	LTP236	ltpFR2	11	n/a	n/a	n/a	3	18	8	8	2
328136	PROB	n/a	LTP236	ltpFR2	11	n/a	n/a	n/a	3	13	5	1	6
329354	PROB	n/a	LTP236	ltpFR2	11	n/a	n/a	n/a	3	12	4	6	2
330338	PROB	n/a	LTP236	ltpFR2	11	n/a	n/a	n/a	3	22	6	8	7
331573	PROB	n/a	LTP236	ltpFR2	11	n/a	n/a	n/a	3	15	5	5	5
332423	PROB	n/a	LTP236	ltpFR2	11	n/a	n/a	n/a	3	18	5	9	4
333458	PROB	n/a	LTP236	ltpFR2	11	n/a	n/a	n/a	3	19	4	9	6
335959	PROB	n/a	LTP236	ltpFR2	11	n/a	n/a	n/a	3	21	6	8	7
339163	PROB	n/a	LTP236	ltpFR2	11	n/a	n/a	n/a	3	17	2	9	6
340247	PROB	n/a	LTP236	ltpFR2	11	n/a	n/a	n/a	3	19	2	8	9
341198	PROB	n/a	LTP236	ltpFR2	11	n/a	n/a	n/a	3	22	6	7	9
342249	PROB	n/a	LTP236	ltpFR2	11	n/a	n/a	n/a	3	13	1	7	5
344962	STOP	n/a	LTP236	ltpFR2	11	n/a	n/a	n/a	3	n/a	n/a	n/a	n/a
346869	REC_START	n/a	LTP236	ltpFR2	11	2	n/a	n/a	n/a	n/a	0	0	0
347399	REC_WORD	wordpools/wasnorm_wordpool_576.txt	LTP236	ltpFR2	11	2	SILK	1307	n/a	n/a	0	0	0
348198	REC_WORD	wordpools/wasnorm_wordpool_576.txt	LTP236	ltpFR2	11	2	ROBOT	1200	n/a	n/a	0	0	0
349117	REC_WORD	wordpools/wasnorm_wordpool_576.txt	LTP236	ltpFR2	11	2	PLIERS	1089	n/a	n/a	0	0	0
349972	REC_WORD	wordpools/wasnorm_wordpool_576.txt	LTP236	ltpFR2	11	2	WRENCH	1625	n/a	n/a	0	0	0
350669	REC_WORD	wordpools/wasnorm_wordpool_576.txt	LTP236	ltpFR2	11	2	MARKER	870	n/a	n/a	0	0	0
351434	REC_WORD	wordpools/wasnorm_wordpool_576.txt	LTP236	ltpFR2	11	2	PERMIT	1051	n/a	n/a	0	0	0
352156	REC_WORD	wordpools/wasnorm_wordpool_576.txt	LTP236	ltpFR2	11	2	CONTRACT	368	n/a	n/a	0	0	0
353156	REC_WORD_VV	wordpools/wasnorm_wordpool_576.txt	LTP236	ltpFR2	11	2	<>	-1	n/a	n/a	0	0	0
354263	REC_WORD	wordpools/wasnorm_wordpool_576.txt	LTP236	ltpFR2	11	2	LADDER	793	n/a	n/a	0	0	0
356087	REC_WORD_VV	wordpools/wasnorm_wordpool_576.txt	LTP236	ltpFR2	11	2	<>	-1	n/a	n/a	0	0	0
356775	REC_WORD	wordpools/wasnorm_wordpool_576.txt	LTP236	ltpFR2	11	2	MAMMAL	861	n/a	n/a	0	0	0
361510	REC_WORD	wordpools/wasnorm_wordpool_576.txt	LTP236	ltpFR2	11	2	HOUND	724	n/a	n/a	0	0	0
363717	REC_WORD	wordpools/wasnorm_wordpool_576.txt	LTP236	ltpFR2	11	2	PANTHER	1009	n/a	n/a	0	0	0
370620	REC_WORD_VV	wordpools/wasnorm_wordpool_576.txt	LTP236	ltpFR2	11	2	<>	-1	n/a	n/a	0	0	0
371620	REC_WORD_VV	wordpools/wasnorm_wordpool_576.txt	LTP236	ltpFR2	11	2	<>	-1	n/a	n/a	0	0	0
381132	REC_WORD	wordpools/wasnorm_wordpool_576.txt	LTP236	ltpFR2	11	2	STAR	1373	n/a	n/a	0	0	0
382089	REC_WORD	wordpools/wasnorm_wordpool_576.txt	LTP236	ltpFR2	11	2	COMET	353	n/a	n/a	0	0	0
406075	REC_WORD	wordpools/wasnorm_wordpool_576.txt	LTP236	ltpFR2	11	2	KITCHEN	778	n/a	n/a	0	0	0
407893	REC_WORD	wordpools/wasnorm_wordpool_576.txt	LTP236	ltpFR2	11	2	CUPBOARD	425	n/a	n/a	0	0	0
408843	REC_WORD	wordpools/wasnorm_wordpool_576.txt	LTP236	ltpFR2	11	2	FUNGUS	614	n/a	n/a	0	0	0
411121	REC_WORD	wordpools/wasnorm_wordpool_576.txt	LTP236	ltpFR2	11	2	SALMON	1227	n/a	n/a	0	0	0
411787	REC_WORD	wordpools/wasnorm_wordpool_576.txt	LTP236	ltpFR2	11	2	GRILL	661	n/a	n/a	0	0	0
414074	REC_WORD	wordpools/wasnorm_wordpool_576.txt	LTP236	ltpFR2	11	2	KETCHUP	771	n/a	n/a	0	0	0
437498	DISTRACTOR	n/a	LTP236	ltpFR2	11	3	n/a	n/a	n/a	n/a	0	0	0
437498	START	n/a	LTP236	ltpFR2	11	n/a	n/a	n/a	4	n/a	n/a	n/a	n/a
437532	PROB	n/a	LTP236	ltpFR2	11	n/a	n/a	n/a	4	19	9	7	3
439283	PROB	n/a	LTP236	ltpFR2	11	n/a	n/a	n/a	4	17	3	5	9
440351	PROB	n/a	LTP236	ltpFR2	11	n/a	n/a	n/a	4	15	7	3	5
441252	PROB	n/a	LTP236	ltpFR2	11	n/a	n/a	n/a	4	8	4	3	1
442152	PROB	n/a	LTP236	ltpFR2	11	n/a	n/a	n/a	4	24	7	8	9
443370	PROB	n/a	LTP236	ltpFR2	11	n/a	n/a	n/a	4	12	1	2	9
444321	PROB	n/a	LTP236	ltpFR2	11	n/a	n/a	n/a	4	24	7	9	8
445472	PROB	n/a	LTP236	ltpFR2	11	n/a	n/a	n/a	4	22	9	4	9
446639	PROB	n/a	LTP236	ltpFR2	11	n/a	n/a	n/a	4	17	5	5	7
447640	PROB	n/a	LTP236	ltpFR2	11	n/a	n/a	n/a	4	14	1	4	9
449425	PROB	n/a	LTP236	ltpFR2	11	n/a	n/a	n/a	4	17	8	4	5
451059	PROB	n/a	LTP236	ltpFR2	11	n/a	n/a	n/a	4	17	2	7	8
452161	PROB	n/a	LTP236	ltpFR2	11	n/a	n/a	n/a	4	18	9	7	2
453195	PROB	n/a	LTP236	ltpFR2	11	n/a	n/a	n/a	4	21	5	9	7
455497	PROB	n/a	LTP236	ltpFR2	11	n/a	n/a	n/a	4	16	6	3	7
456515	PROB	n/a	LTP236	ltpFR2	11	n/a	n/a	n/a	4	17	6	5	6
457782	PROB	n/a	LTP236	ltpFR2	11	n/a	n/a	n/a	4	15	9	1	5
458682	PROB	n/a	LTP236	ltpFR2	11	n/a	n/a	n/a	4	17	2	9	6
459767	PROB	n/a	LTP236	ltpFR2	11	n/a	n/a	n/a	4	14	1	8	5
460653	STOP	n/a	LTP236	ltpFR2	11	n/a	n/a	n/a	4	n/a	n/a	n/a	n/a
462453	WORD	wordpools/wasnorm_wordpool_576.txt	LTP236	ltpFR2	11	3	NECKLACE	940	n/a	n/a	0	0	0
465038	WORD	wordpools/wasnorm_wordpool_576.txt	LTP236	ltpFR2	11	3	CLAMP	316	n/a	n/a	0	0	0
467740	WORD	wordpools/wasnorm_wordpool_576.txt	LTP236	ltpFR2	11	3	VALVE	1546	n/a	n/a	0	0	0
470427	WORD	wordpools/wasnorm_wordpool_576.txt	LTP236	ltpFR2	11	3	CHURCH	307	n/a	n/a	0	0	0
473213	WORD	wordpools/wasnorm_wordpool_576.txt	LTP236	ltpFR2	11	3	PREACHER	1119	n/a	n/a	0	0	0
475964	WORD	wordpools/wasnorm_wordpool_576.txt	LTP236	ltpFR2	11	3	CHAPEL	280	n/a	n/a	0	0	0
478750	WORD	wordpools/wasnorm_wordpool_576.txt	LTP236	ltpFR2	11	3	DASHBOARD	441	n/a	n/a	0	0	0
481286	WORD	wordpools/wasnorm_wordpool_576.txt	LTP236	ltpFR2	11	3	POET	1095	n/a	n/a	0	0	0
483854	WORD	wordpools/wasnorm_wordpool_576.txt	LTP236	ltpFR2	11	3	UNCLE	1536	n/a	n/a	0	0	0
486491	WORD	wordpools/wasnorm_wordpool_576.txt	LTP236	ltpFR2	11	3	DRESS	495	n/a	n/a	0	0	0
489143	WORD	wordpools/wasnorm_wordpool_576.txt	LTP236	ltpFR2	11	3	OUTFIT	988	n/a	n/a	0	0	0
491878	WORD	wordpools/wasnorm_wordpool_576.txt	LTP236	ltpFR2	11	3	SAUSAGE	1238	n/a	n/a	0	0	0
494398	WORD	wordpools/wasnorm_wordpool_576.txt	LTP236	ltpFR2	11	3	SKILLET	1317	n/a	n/a	0	0	0
496999	WORD	wordpools/wasnorm_wordpool_576.txt	LTP236	ltpFR2	11	3	LEG	809	n/a	n/a	0	0	0
499536	WORD	wordpools/wasnorm_wordpool_576.txt	LTP236	ltpFR2	11	3	PROTON	1132	n/a	n/a	0	0	0
502037	WORD	wordpools/wasnorm_wordpool_576.txt	LTP236	ltpFR2	11	3	AIRPORT	13	n/a	n/a	0	0	0
504523	WORD	wordpools/wasnorm_wordpool_576.txt	LTP236	ltpFR2	11	3	PIZZA	1079	n/a	n/a	0	0	0
507292	WORD	wordpools/wasnorm_wordpool_576.txt	LTP236	ltpFR2	11	3	MONSTER	912	n/a	n/a	0	0	0
510112	WORD	wordpools/wasnorm_wordpool_576.txt	LTP236	ltpFR2	11	3	DANDRUFF	439	n/a	n/a	0	0	0
512663	WORD	wordpools/wasnorm_wordpool_576.txt	LTP236	ltpFR2	11	3	SPOUSE	1358	n/a	n/a	0	0	0
515433	WORD	wordpools/wasnorm_wordpool_576.txt	LTP236	ltpFR2	11	3	WINDOW	1611	n/a	n/a	0	0	0
517967	WORD	wordpools/wasnorm_wordpool_576.txt	LTP236	ltpFR2	11	3	TOMBSTONE	1478	n/a	n/a	0	0	0
520653	WORD	wordpools/wasnorm_wordpool_576.txt	LTP236	ltpFR2	11	3	BANK	83	n/a	n/a	0	0	0
523456	WORD	wordpools/wasnorm_wordpool_576.txt	LTP236	ltpFR2	11	3	DRIVER	499	n/a	n/a	0	0	0
525074	START	n/a	LTP236	ltpFR2	11	n/a	n/a	n/a	5	n/a	n/a	n/a	n/a
526098	DISTRACTOR	n/a	LTP236	ltpFR2	11	3	n/a	n/a	n/a	n/a	0	0	0
526109	PROB	n/a	LTP236	ltpFR2	11	n/a	n/a	n/a	5	15	5	2	8
528110	PROB	n/a	LTP236	ltpFR2	11	n/a	n/a	n/a	5	16	8	2	6
529128	PROB	n/a	LTP236	ltpFR2	11	n/a	n/a	n/a	5	16	2	9	5
530479	PROB	n/a	LTP236	ltpFR2	11	n/a	n/a	n/a	5	21	7	6	8
531663	PROB	n/a	LTP236	ltpFR2	11	n/a	n/a	n/a	5	23	9	8	6
533815	PROB	n/a	LTP236	ltpFR2	11	n/a	n/a	n/a	5	5	2	1	2
534782	PROB	n/a	LTP236	ltpFR2	11	n/a	n/a	n/a	5	7	3	2	2
536066	PROB	n/a	LTP236	ltpFR2	11	n/a	n/a	n/a	5	11	2	2	7
537185	PROB	n/a	LTP236	ltpFR2	11	n/a	n/a	n/a	5	20	9	4	7
539987	PROB	n/a	LTP236	ltpFR2	11	n/a	n/a	n/a	5	20	4	9	7
541038	PROB	n/a	LTP236	ltpFR2	11	n/a	n/a	n/a	5	17	7	2	8
542290	PROB	n/a	LTP236	ltpFR2	11	n/a	n/a	n/a	5	8	1	1	6
543207	PROB	n/a	LTP236	ltpFR2	11	n/a	n/a	n/a	5	20	9	9	2
544308	PROB	n/a	LTP236	ltpFR2	11	n/a	n/a	n/a	5	19	6	7	6
545409	PROB	n/a	LTP236	ltpFR2	11	n/a	n/a	n/a	5	20	9	5	6
546560	PROB	n/a	LTP236	ltpFR2	11	n/a	n/a	n/a	5	24	8	7	9
547577	STOP	n/a	LTP236	ltpFR2	11	n/a	n/a	n/a	5	n/a	n/a	n/a	n/a
550947	REC_START	n/a	LTP236	ltpFR2	11	3	n/a	n/a	n/a	n/a	0	0	0
551992	REC_WORD	wordpools/wasnorm_wordpool_576.txt	LTP236	ltpFR2	11	3	BANK	83	n/a	n/a	0	0	0
552669	REC_WORD	wordpools/wasnorm_wordpool_576.txt	LTP236	ltpFR2	11	3	TOMBSTONE	1478	n/a	n/a	0	0	0
553756	REC_WORD	wordpools/wasnorm_wordpool_576.txt	LTP236	ltpFR2	11	3	DRIVER	499	n/a	n/a	0	0	0
554702	REC_WORD	wordpools/wasnorm_wordpool_576.txt	LTP236	ltpFR2	11	3	AIRPORT	13	n/a	n/a	0	0	0
555732	REC_WORD	wordpools/wasnorm_wordpool_576.txt	LTP236	ltpFR2	11	3	WINDOW	1611	n/a	n/a	0	0	0
559499	REC_WORD	wordpools/wasnorm_wordpool_576.txt	LTP236	ltpFR2	11	3	OUTFIT	988	n/a	n/a	0	0	0
563495	REC_WORD	wordpools/wasnorm_wordpool_576.txt	LTP236	ltpFR2	11	3	DRESS	495	n/a	n/a	0	0	0
565559	REC_WORD	wordpools/wasnorm_wordpool_576.txt	LTP236	ltpFR2	11	3	PIZZA	1079	n/a	n/a	0	0	0
566186	REC_WORD	wordpools/wasnorm_wordpool_576.txt	LTP236	ltpFR2	11	3	SAUSAGE	1238	n/a	n/a	0	0	0
566901	REC_WORD	wordpools/wasnorm_wordpool_576.txt	LTP236	ltpFR2	11	3	SKILLET	1317	n/a	n/a	0	0	0
567737	REC_WORD	wordpools/wasnorm_wordpool_576.txt	LTP236	ltpFR2	11	3	FRIAR	605	n/a	n/a	0	0	0
568928	REC_WORD	wordpools/wasnorm_wordpool_576.txt	LTP236	ltpFR2	11	3	PREACHER	1119	n/a	n/a	0	0	0
569952	REC_WORD	wordpools/wasnorm_wordpool_576.txt	LTP236	ltpFR2	11	3	CHURCH	307	n/a	n/a	0	0	0
571580	REC_WORD	wordpools/wasnorm_wordpool_576.txt	LTP236	ltpFR2	11	3	SPOUSE	1358	n/a	n/a	0	0	0
572582	REC_WORD	wordpools/wasnorm_wordpool_576.txt	LTP236	ltpFR2	11	3	UNCLE	1536	n/a	n/a	0	0	0
576301	REC_WORD	wordpools/wasnorm_wordpool_576.txt	LTP236	ltpFR2	11	3	PROTON	1132	n/a	n/a	0	0	0
578456	REC_WORD	wordpools/wasnorm_wordpool_576.txt	LTP236	ltpFR2	11	3	DANDRUFF	439	n/a	n/a	0	0	0
579422	REC_WORD	wordpools/wasnorm_wordpool_576.txt	LTP236	ltpFR2	11	3	LEG	809	n/a	n/a	0	0	0
583582	REC_WORD	wordpools/wasnorm_wordpool_576.txt	LTP236	ltpFR2	11	3	DASHBOARD	441	n/a	n/a	0	0	0
589026	REC_WORD	wordpools/wasnorm_wordpool_576.txt	LTP236	ltpFR2	11	3	CLAMP	316	n/a	n/a	0	0	0
589909	REC_WORD	wordpools/wasnorm_wordpool_576.txt	LTP236	ltpFR2	11	3	NECKLACE	940	n/a	n/a	0	0	0
641593	WORD	wordpools/wasnorm_wordpool_576.txt	LTP236	ltpFR2	11	4	SUMMIT	1405	n/a	n/a	0	0	0
644195	WORD	wordpools/wasnorm_wordpool_576.txt	LTP236	ltpFR2	11	4	BANQUET	86	n/a	n/a	0	0	0
646680	WORD	wordpools/wasnorm_wordpool_576.txt	LTP236	ltpFR2	11	4	ARMY	39	n/a	n/a	0	0	0
649483	WORD	wordpools/wasnorm_wordpool_576.txt	LTP236	ltpFR2	11	4	BEAKER	104	n/a	n/a	0	0	0
651951	WORD	wordpools/wasnorm_wordpool_576.txt	LTP236	ltpFR2	11	4	EYELASH	546	n/a	n/a	0	0	0
654753	WORD	wordpools/wasnorm_wordpool_576.txt	LTP236	ltpFR2	11	4	THREAD	1460	n/a	n/a	0	0	0
657490	WORD	wordpools/wasnorm_wordpool_576.txt	LTP236	ltpFR2	11	4	ATLAS	53	n/a	n/a	0	0	0
660259	WORD	wordpools/wasnorm_wordpool_576.txt	LTP236	ltpFR2	11	4	VALLEY	1545	n/a	n/a	0	0	0
663095	WORD	wordpools/wasnorm_wordpool_576.txt	LTP236	ltpFR2	11	4	TOURIST	1488	n/a	n/a	0	0	0
665913	WORD	wordpools/wasnorm_wordpool_576.txt	LTP236	ltpFR2	11	4	LUGGAGE	847	n/a	n/a	0	0	0
668533	WORD	wordpools/wasnorm_wordpool_576.txt	LTP236	ltpFR2	11	4	COOKBOOK	373	n/a	n/a	0	0	0
670967	WORD	wordpools/wasnorm_wordpool_576.txt	LTP236	ltpFR2	11	4	SHELTER	1282	n/a	n/a	0	0	0
673636	WORD	wordpools/wasnorm_wordpool_576.txt	LTP236	ltpFR2	11	4	ARM	38	n/a	n/a	0	0	0
676256	WORD	wordpools/wasnorm_wordpool_576.txt	LTP236	ltpFR2	11	4	CUSTARD	429	n/a	n/a	0	0	0
678707	WORD	wordpools/wasnorm_wordpool_576.txt	LTP236	ltpFR2	11	4	PUDDING	1139	n/a	n/a	0	0	0
681377	WORD	wordpools/wasnorm_wordpool_576.txt	LTP236	ltpFR2	11	4	BASEMENT	94	n/a	n/a	0	0	0
684197	WORD	wordpools/wasnorm_wordpool_576.txt	LTP236	ltpFR2	11	4	FINGER	567	n/a	n/a	0	0	0
687015	WORD	wordpools/wasnorm_wordpool_576.txt	LTP236	ltpFR2	11	4	TORTOISE	1486	n/a	n/a	0	0	0
689667	WORD	wordpools/wasnorm_wordpool_576.txt	LTP236	ltpFR2	11	4	BUTCHER	203	n/a	n/a	0	0	0
692487	WORD	wordpools/wasnorm_wordpool_576.txt	LTP236	ltpFR2	11	4	SCALPEL	1243	n/a	n/a	0	0	0
695123	WORD	wordpools/wasnorm_wordpool_576.txt	LTP236	ltpFR2	11	4	GAVEL	627	n/a	n/a	0	0	0
697824	WORD	wordpools/wasnorm_wordpool_576.txt	LTP236	ltpFR2	11	4	JUDGE	761	n/a	n/a	0	0	0
700544	WORD	wordpools/wasnorm_wordpool_576.txt	LTP236	ltpFR2	11	4	DONKEY	484	n/a	n/a	0	0	0
703313	WORD	wordpools/wasnorm_wordpool_576.txt	LTP236	ltpFR2	11	4	AIRPLANE	12	n/a	n/a	0	0	0
704930	START	n/a	LTP236	ltpFR2	11	n/a	n/a	n/a	6	n/a	n/a	n/a	n/a
705950	DISTRACTOR	n/a	LTP236	ltpFR2	11	4	n/a	n/a	n/a	n/a	0	0	0
705981	PROB	n/a	LTP236	ltpFR2	11	n/a	n/a	n/a	6	12	4	5	3
709318	PROB	n/a	LTP236	ltpFR2	11	n/a	n/a	n/a	6	13	9	2	2
710603	PROB	n/a	LTP236	ltpFR2	11	n/a	n/a	n/a	6	14	8	6	2
711686	PROB	n/a	LTP236	ltpFR2	11	n/a	n/a	n/a	6	13	7	1	5
713071	PROB	n/a	LTP236	ltpFR2	11	n/a	n/a	n/a	6	11	2	5	4
714356	PROB	n/a	LTP236	ltpFR2	11	n/a	n/a	n/a	6	17	7	3	7
715357	PROB	n/a	LTP236	ltpFR2	11	n/a	n/a	n/a	6	10	1	3	6
716425	PROB	n/a	LTP236	ltpFR2	11	n/a	n/a	n/a	6	8	1	3	4
717708	PROB	n/a	LTP236	ltpFR2	11	n/a	n/a	n/a	6	11	1	1	9
718560	PROB	n/a	LTP236	ltpFR2	11	n/a	n/a	n/a	6	13	6	1	6
721162	PROB	n/a	LTP236	ltpFR2	11	n/a	n/a	n/a	6	24	6	8	8
723046	PROB	n/a	LTP236	ltpFR2	11	n/a	n/a	n/a	6	18	4	8	6
724298	PROB	n/a	LTP236	ltpFR2	11	n/a	n/a	n/a	6	15	8	2	5
725316	PROB	n/a	LTP236	ltpFR2	11	n/a	n/a	n/a	6	23	7	9	7
726450	PROB	n/a	LTP236	ltpFR2	11	n/a	n/a	n/a	6	19	8	9	2
727663	STOP	n/a	LTP236	ltpFR2	11	n/a	n/a	n/a	6	n/a	n/a	n/a	n/a
730836	REC_START	n/a	LTP236	ltpFR2	11	4	n/a	n/a	n/a	n/a	0	0	0
731345	REC_WORD	wordpools/wasnorm_wordpool_576.txt	LTP236	ltpFR2	11	4	JUDGE	761	n/a	n/a	0	0	0
732040	REC_WORD	wordpools/wasnorm_wordpool_576.txt	LTP236	ltpFR2	11	4	DONKEY	484	n/a	n/a	0	0	0
732657	REC_WORD	wordpools/wasnorm_wordpool_576.txt	LTP236	ltpFR2	11	4	AIRPLANE	12	n/a	n/a	0	0	0
733314	REC_WORD	wordpools/wasnorm_wordpool_576.txt	LTP236	ltpFR2	11	4	TOURIST	1488	n/a	n/a	0	0	0
734026	REC_WORD	wordpools/wasnorm_wordpool_576.txt	LTP236	ltpFR2	11	4	BUTCHER	203	n/a	n/a	0	0	0
734616	REC_WORD	wordpools/wasnorm_wordpool_576.txt	LTP236	ltpFR2	11	4	COOKBOOK	373	n/a	n/a	0	0	0
735363	REC_WORD	wordpools/wasnorm_wordpool_576.txt	LTP236	ltpFR2	11	4	CUSTARD	429	n/a	n/a	0	0	0
736019	REC_WORD	wordpools/wasnorm_wordpool_576.txt	LTP236	ltpFR2	11	4	PUDDING	1139	n/a	n/a	0	0	0
737281	REC_WORD	wordpools/wasnorm_wordpool_576.txt	LTP236	ltpFR2	11	4	BASEMENT	94	n/a	n/a	0	0	0
737985	REC_WORD	wordpools/wasnorm_wordpool_576.txt	LTP236	ltpFR2	11	4	SUMMIT	1405	n/a	n/a	0	0	0
738603	REC_WORD	wordpools/wasnorm_wordpool_576.txt	LTP236	ltpFR2	11	4	VALLEY	1545	n/a	n/a	0	0	0
739976	REC_WORD	wordpools/wasnorm_wordpool_576.txt	LTP236	ltpFR2	11	4	LUGGAGE	847	n/a	n/a	0	0	0
743850	REC_WORD	wordpools/wasnorm_wordpool_576.txt	LTP236	ltpFR2	11	4	EYELASH	546	n/a	n/a	0	0	0
769787	REC_WORD	wordpools/wasnorm_wordpool_576.txt	LTP236	ltpFR2	11	4	TORTOISE	1486	n/a	n/a	0	0	0
781766	REC_WORD	wordpools/wasnorm_wordpool_576.txt	LTP236	ltpFR2	11	4	SHELTER	1282	n/a	n/a	0	0	0
787651	REC_WORD	wordpools/wasnorm_wordpool_576.txt	LTP236	ltpFR2	11	4	SCALPEL	1243	n/a	n/a	0	0	0
790948	REC_WORD	wordpools/wasnorm_wordpool_576.txt	LTP236	ltpFR2	11	4	ARM	38	n/a	n/a	0	0	0
821283	DISTRACTOR	n/a	LTP236	ltpFR2	11	5	n/a	n/a	n/a	n/a	0	0	0
821283	START	n/a	LTP236	ltpFR2	11	n/a	n/a	n/a	7	n/a	n/a	n/a	n/a
821299	PROB	n/a	LTP236	ltpFR2	11	n/a	n/a	n/a	7	14	4	8	3
823168	PROB	n/a	LTP236	ltpFR2	11	n/a	n/a	n/a	7	9	6	2	1
824252	PROB	n/a	LTP236	ltpFR2	11	n/a	n/a	n/a	7	12	5	5	2
825068	PROB	n/a	LTP236	ltpFR2	11	n/a	n/a	n/a	7	8	3	2	2
826287	PROB	n/a	LTP236	ltpFR2	11	n/a	n/a	n/a	7	4	1	1	2
827455	PROB	n/a	LTP236	ltpFR2	11	n/a	n/a	n/a	7	14	3	2	9
828755	PROB	n/a	LTP236	ltpFR2	11	n/a	n/a	n/a	7	14	2	3	9
829806	PROB	n/a	LTP236	ltpFR2	11	n/a	n/a	n/a	7	10	3	6	1
830823	PROB	n/a	LTP236	ltpFR2	11	n/a	n/a	n/a	7	19	7	6	6
831924	PROB	n/a	LTP236	ltpFR2	11	n/a	n/a	n/a	7	14	6	1	7
832925	PROB	n/a	LTP236	ltpFR2	11	n/a	n/a	n/a	7	11	4	1	6
833876	PROB	n/a	LTP236	ltpFR2	11	n/a	n/a	n/a	7	12	1	4	8
836596	PROB	n/a	LTP236	ltpFR2	11	n/a	n/a	n/a	7	9	3	4	2
838630	PROB	n/a	LTP236	ltpFR2	11	n/a	n/a	n/a	7	15	1	6	8
840632	PROB	n/a	LTP236	ltpFR2	11	n/a	n/a	n/a	7	18	9	4	5
841649	PROB	n/a	LTP236	ltpFR2	11	n/a	n/a	n/a	7	14	9	4	1
842800	PROB	n/a	LTP236	ltpFR2	11	n/a	n/a	n/a	7	10	1	5	4
843788	STOP	n/a	LTP236	ltpFR2	11	n/a	n/a	n/a	7	n/a	n/a	n/a	n/a
846371	WORD	wordpools/wasnorm_wordpool_576.txt	LTP236	ltpFR2	11	5	MUMMY	932	n/a	n/a	0	0	0
848922	WORD	wordpools/wasnorm_wordpool_576.txt	LTP236	ltpFR2	11	5	MATTRESS	879	n/a	n/a	0	0	0
851492	WORD	wordpools/wasnorm_wordpool_576.txt	LTP236	ltpFR2	11	5	LOFT	840	n/a	n/a	0	0	0
854278	WORD	wordpools/wasnorm_wordpool_576.txt	LTP236	ltpFR2	11	5	BREAST	171	n/a	n/a	0	0	0
857013	WORD	wordpools/wasnorm_wordpool_576.txt	LTP236	ltpFR2	11	5	PORK	1108	n/a	n/a	0	0	0
859832	WORD	wordpools/wasnorm_wordpool_576.txt	LTP236	ltpFR2	11	5	CRATER	400	n/a	n/a	0	0	0
862468	WORD	wordpools/wasnorm_wordpool_576.txt	LTP236	ltpFR2	11	5	CITRUS	313	n/a	n/a	0	0	0
865254	WORD	wordpools/wasnorm_wordpool_576.txt	LTP236	ltpFR2	11	5	SHORTCAKE	1292	n/a	n/a	0	0	0
867839	WORD	wordpools/wasnorm_wordpool_576.txt	LTP236	ltpFR2	11	5	HONEY	713	n/a	n/a	0	0	0
870409	WORD	wordpools/wasnorm_wordpool_576.txt	LTP236	ltpFR2	11	5	DRILL	497	n/a	n/a	0	0	0
873094	WORD	wordpools/wasnorm_wordpool_576.txt	LTP236	ltpFR2	11	5	PIMPLE	1071	n/a	n/a	0	0	0
875762	WORD	wordpools/wasnorm_wordpool_576.txt	LTP236	ltpFR2	11	5	LAPEL	800	n/a	n/a	0	0	0
878282	WORD	wordpools/wasnorm_wordpool_576.txt	LTP236	ltpFR2	11	5	GLOBE	641	n/a	n/a	0	0	0
881085	WORD	wordpools/wasnorm_wordpool_576.txt	LTP236	ltpFR2	11	5	PISTON	1076	n/a	n/a	0	0	0
883886	WORD	wordpools/wasnorm_wordpool_576.txt	LTP236	ltpFR2	11	5	CLOUD	328	n/a	n/a	0	0	0
886622	WORD	wordpools/wasnorm_wordpool_576.txt	LTP236	ltpFR2	11	5	PIANO	1057	n/a	n/a	0	0	0
889392	WORD	wordpools/wasnorm_wordpool_576.txt	LTP236	ltpFR2	11	5	WORLD	1622	n/a	n/a	0	0	0
891960	WORD	wordpools/wasnorm_wordpool_576.txt	LTP236	ltpFR2	11	5	GUITAR	670	n/a	n/a	0	0	0
894580	WORD	wordpools/wasnorm_wordpool_576.txt	LTP236	ltpFR2	11	5	GRAVE	658	n/a	n/a	0	0	0
897299	WORD	wordpools/wasnorm_wordpool_576.txt	LTP236	ltpFR2	11	5	SNACK	1331	n/a	n/a	0	0	0
900050	WORD	wordpools/wasnorm_wordpool_576.txt	LTP236	ltpFR2	11	5	BLADE	134	n/a	n/a	0	0	0
902736	WORD	wordpools/wasnorm_wordpool_576.txt	LTP236	ltpFR2	11	5	PLATE	1086	n/a	n/a	0	0	0
905339	WORD	wordpools/wasnorm_wordpool_576.txt	LTP236	ltpFR2	11	5	BEAVER	109	n/a	n/a	0	0	0
907874	WORD	wordpools/wasnorm_wordpool_576.txt	LTP236	ltpFR2	11	5	MATCH	878	n/a	n/a	0	0	0
909493	START	n/a	LTP236	ltpFR2	11	n/a	n/a	n/a	8	n/a	n/a	n/a	n/a
910333	DISTRACTOR	n/a	LTP236	ltpFR2	11	5	n/a	n/a	n/a	n/a	0	0	0
910360	PROB	n/a	LTP236	ltpFR2	11	n/a	n/a	n/a	8	18	4	5	9
912512	PROB	n/a	LTP236	ltpFR2	11	n/a	n/a	n/a	8	13	9	3	1
913796	PROB	n/a	LTP236	ltpFR2	11	n/a	n/a	n/a	8	10	6	2	2
915098	PROB	n/a	LTP236	ltpFR2	11	n/a	n/a	n/a	8	12	8	2	2
916064	PROB	n/a	LTP236	ltpFR2	11	n/a	n/a	n/a	8	19	3	8	8
917149	PROB	n/a	LTP236	ltpFR2	11	n/a	n/a	n/a	8	15	9	1	5
918049	PROB	n/a	LTP236	ltpFR2	11	n/a	n/a	n/a	8	9	3	3	3
918883	PROB	n/a	LTP236	ltpFR2	11	n/a	n/a	n/a	8	10	1	8	1
919817	PROB	n/a	LTP236	ltpFR2	11	n/a	n/a	n/a	8	16	5	6	5
921403	PROB	n/a	LTP236	ltpFR2	11	n/a	n/a	n/a	8	16	2	7	7
922870	PROB	n/a	LTP236	ltpFR2	11	n/a	n/a	n/a	8	21	6	9	6
923971	PROB	n/a	LTP236	ltpFR2	11	n/a	n/a	n/a	8	19	8	9	2
925140	PROB	n/a	LTP236	ltpFR2	11	n/a	n/a	n/a	8	23	8	7	8
926224	PROB	n/a	LTP236	ltpFR2	11	n/a	n/a	n/a	8	12	3	6	3
927225	PROB	n/a	LTP236	ltpFR2	11	n/a	n/a	n/a	8	16	4	8	4
928226	PROB	n/a	LTP236	ltpFR2	11	n/a	n/a	n/a	8	16	6	9	1
929410	PROB	n/a	LTP236	ltpFR2	11	n/a	n/a	n/a	8	16	1	9	6
930444	PROB	n/a	LTP236	ltpFR2	11	n/a	n/a	n/a	8	24	9	9	6
931628	PROB	n/a	LTP236	ltpFR2	11	n/a	n/a	n/a	8	20	8	5	7
933288	STOP	n/a	LTP236	ltpFR2	11	n/a	n/a	n/a	8	n/a	n/a	n/a	n/a
935466	REC_START	n/a	LTP236	ltpFR2	11	5	n/a	n/a	n/a	n/a	0	0	0
936339	REC_WORD	wordpools/wasnorm_wordpool_576.txt	LTP236	ltpFR2	11	5	BEAVER	109	n/a	n/a	0	0	0
937042	REC_WORD	wordpools/wasnorm_wordpool_576.txt	LTP236	ltpFR2	11	5	MATCH	878	n/a	n/a	0	0	0
937914	REC_WORD	wordpools/wasnorm_wordpool_576.txt	LTP236	ltpFR2	11	5	BLADE	134	n/a	n/a	0	0	0
938838	REC_WORD	wordpools/wasnorm_wordpool_576.txt	LTP236	ltpFR2	11	5	PISTON	1076	n/a	n/a	0	0	0
940237	REC_WORD	wordpools/wasnorm_wordpool_576.txt	LTP236	ltpFR2	11	5	CITRUS	313	n/a	n/a	0	0	0
942384	REC_WORD	wordpools/wasnorm_wordpool_576.txt	LTP236	ltpFR2	11	5	SHORTCAKE	1292	n/a	n/a	0	0	0
943384	REC_WORD_VV	wordpools/wasnorm_wordpool_576.txt	LTP236	ltpFR2	11	5	<>	-1	n/a	n/a	0	0	0
944157	REC_WORD	wordpools/wasnorm_wordpool_576.txt	LTP236	ltpFR2	11	5	HONEY	713	n/a	n/a	0	0	0
945447	REC_WORD	wordpools/wasnorm_wordpool_576.txt	LTP236	ltpFR2	11	5	PORK	1108	n/a	n/a	0	0	0
950197	REC_WORD	wordpools/wasnorm_wordpool_576.txt	LTP236	ltpFR2	11	5	MATTRESS	879	n/a	n/a	0	0	0
955181	REC_WORD	wordpools/wasnorm_wordpool_576.txt	LTP236	ltpFR2	11	5	LAPEL	800	n/a	n/a	0	0	0
960123	REC_WORD	wordpools/wasnorm_wordpool_576.txt	LTP236	ltpFR2	11	5	LOFT	840	n/a	n/a	0	0	0
961833	REC_WORD	wordpools/wasnorm_wordpool_576.txt	LTP236	ltpFR2	11	5	MUMMY	932	n/a	n/a	0	0	0
962728	REC_WORD	wordpools/wasnorm_wordpool_576.txt	LTP236	ltpFR2	11	5	BREAST	171	n/a	n/a	0	0	0
965667	REC_WORD	wordpools/wasnorm_wordpool_576.txt	LTP236	ltpFR2	11	5	PISTON	1076	n/a	n/a	0	0	0
969227	REC_WORD	wordpools/wasnorm_wordpool_576.txt	LTP236	ltpFR2	11	5	WORLD	1622	n/a	n/a	0	0	0
970226	REC_WORD	wordpools/wasnorm_wordpool_576.txt	LTP236	ltpFR2	11	5	GLOBE	641	n/a	n/a	0	0	0
1025927	DISTRACTOR	n/a	LTP236	ltpFR2	11	6	n/a	n/a	n/a	n/a	0	0	0
1025927	START	n/a	LTP236	ltpFR2	11	n/a	n/a	n/a	9	n/a	n/a	n/a	n/a
1025943	PROB	n/a	LTP236	ltpFR2	11	n/a	n/a	n/a	9	12	2	1	9
1027762	PROB	n/a	LTP236	ltpFR2	11	n/a	n/a	n/a	9	15	1	6	8
1030281	PROB	n/a	LTP236	ltpFR2	11	n/a	n/a	n/a	9	24	8	8	8
1031349	PROB	n/a	LTP236	ltpFR2	11	n/a	n/a	n/a	9	13	6	6	1
1032600	PROB	n/a	LTP236	ltpFR2	11	n/a	n/a	n/a	9	17	6	5	6
1033700	PROB	n/a	LTP236	ltpFR2	11	n/a	n/a	n/a	9	19	8	6	5
1034767	PROB	n/a	LTP236	ltpFR2	11	n/a	n/a	n/a	9	17	3	8	6
1035818	PROB	n/a	LTP236	ltpFR2	11	n/a	n/a	n/a	9	9	3	4	2
1038222	PROB	n/a	LTP236	ltpFR2	11	n/a	n/a	n/a	9	13	4	1	8
1039323	PROB	n/a	LTP236	ltpFR2	11	n/a	n/a	n/a	9	11	8	1	2
1040839	PROB	n/a	LTP236	ltpFR2	11	n/a	n/a	n/a	9	10	4	2	4
1041874	PROB	n/a	LTP236	ltpFR2	11	n/a	n/a	n/a	9	13	9	2	2
1043443	PROB	n/a	LTP236	ltpFR2	11	n/a	n/a	n/a	9	3	1	1	1
1044294	PROB	n/a	LTP236	ltpFR2	11	n/a	n/a	n/a	9	13	2	2	9
1045311	PROB	n/a	LTP236	ltpFR2	11	n/a	n/a	n/a	9	13	3	9	1
1046245	PROB	n/a	LTP236	ltpFR2	11	n/a	n/a	n/a	9	18	8	1	9
1047296	PROB	n/a	LTP236	ltpFR2	11	n/a	n/a	n/a	9	15	9	2	4
1048828	STOP	n/a	LTP236	ltpFR2	11	n/a	n/a	n/a	9	n/a	n/a	n/a	n/a
1051065	WORD	wordpools/wasnorm_wordpool_576.txt	LTP236	ltpFR2	11	6	TUNNEL	1519	n/a	n/a	0	0	0
1053767	WORD	wordpools/wasnorm_wordpool_576.txt	LTP236	ltpFR2	11	6	CANYON	235	n/a	n/a	0	0	0
1056321	WORD	wordpools/wasnorm_wordpool_576.txt	LTP236	ltpFR2	11	6	CARROT	249	n/a	n/a	0	0	0
1059090	WORD	wordpools/wasnorm_wordpool_576.txt	LTP236	ltpFR2	11	6	HAWK	692	n/a	n/a	0	0	0
1061624	WORD	wordpools/wasnorm_wordpool_576.txt	LTP236	ltpFR2	11	6	BRANCH	168	n/a	n/a	0	0	0
1064144	WORD	wordpools/wasnorm_wordpool_576.txt	LTP236	ltpFR2	11	6	BIKE	125	n/a	n/a	0	0	0
1066596	WORD	wordpools/wasnorm_wordpool_576.txt	LTP236	ltpFR2	11	6	HELMET	702	n/a	n/a	0	0	0
1069048	WORD	wordpools/wasnorm_wordpool_576.txt	LTP236	ltpFR2	11	6	SOFTBALL	1343	n/a	n/a	0	0	0
1071733	WORD	wordpools/wasnorm_wordpool_576.txt	LTP236	ltpFR2	11	6	BANJO	82	n/a	n/a	0	0	0
1074403	WORD	wordpools/wasnorm_wordpool_576.txt	LTP236	ltpFR2	11	6	KNIFE	785	n/a	n/a	0	0	0
1077038	WORD	wordpools/wasnorm_wordpool_576.txt	LTP236	ltpFR2	11	6	RUST	1219	n/a	n/a	0	0	0
1079690	WORD	wordpools/wasnorm_wordpool_576.txt	LTP236	ltpFR2	11	6	GARDEN	623	n/a	n/a	0	0	0
1082293	WORD	wordpools/wasnorm_wordpool_576.txt	LTP236	ltpFR2	11	6	SERVANT	1271	n/a	n/a	0	0	0
1084728	WORD	wordpools/wasnorm_wordpool_576.txt	LTP236	ltpFR2	11	6	VIRUS	1572	n/a	n/a	0	0	0
1087548	WORD	wordpools/wasnorm_wordpool_576.txt	LTP236	ltpFR2	11	6	POSTAGE	1113	n/a	n/a	0	0	0
1090200	WORD	wordpools/wasnorm_wordpool_576.txt	LTP236	ltpFR2	11	6	MOP	916	n/a	n/a	0	0	0
1092751	WORD	wordpools/wasnorm_wordpool_576.txt	LTP236	ltpFR2	11	6	HEADBAND	696	n/a	n/a	0	0	0
1095204	WORD	wordpools/wasnorm_wordpool_576.txt	LTP236	ltpFR2	11	6	BRAKE	166	n/a	n/a	0	0	0
1097756	WORD	wordpools/wasnorm_wordpool_576.txt	LTP236	ltpFR2	11	6	TRUCK	1512	n/a	n/a	0	0	0
1100342	WORD	wordpools/wasnorm_wordpool_576.txt	LTP236	ltpFR2	11	6	BOUQUET	157	n/a	n/a	0	0	0
1103145	WORD	wordpools/wasnorm_wordpool_576.txt	LTP236	ltpFR2	11	6	CHEST	295	n/a	n/a	0	0	0
1105696	WORD	wordpools/wasnorm_wordpool_576.txt	LTP236	ltpFR2	11	6	FIDDLE	561	n/a	n/a	0	0	0
1108232	WORD	wordpools/wasnorm_wordpool_576.txt	LTP236	ltpFR2	11	6	ORCHID	982	n/a	n/a	0	0	0
1111001	WORD	wordpools/wasnorm_wordpool_576.txt	LTP236	ltpFR2	11	6	WAITRESS	1581	n/a	n/a	0	0	0
1112619	START	n/a	LTP236	ltpFR2	11	n/a	n/a	n/a	10	n/a	n/a	n/a	n/a
1113712	DISTRACTOR	n/a	LTP236	ltpFR2	11	6	n/a	n/a	n/a	n/a	0	0	0
1113736	PROB	n/a	LTP236	ltpFR2	11	n/a	n/a	n/a	10	16	7	3	6
1115855	PROB	n/a	LTP236	ltpFR2	11	n/a	n/a	n/a	10	13	5	2	6
1116922	PROB	n/a	LTP236	ltpFR2	11	n/a	n/a	n/a	10	15	1	7	7
1118057	PROB	n/a	LTP236	ltpFR2	11	n/a	n/a	n/a	10	9	1	5	3
1119109	PROB	n/a	LTP236	ltpFR2	11	n/a	n/a	n/a	10	18	6	8	4
1120126	PROB	n/a	LTP236	ltpFR2	11	n/a	n/a	n/a	10	17	6	8	3
1121561	PROB	n/a	LTP236	ltpFR2	11	n/a	n/a	n/a	10	16	7	3	6
1122528	PROB	n/a	LTP236	ltpFR2	11	n/a	n/a	n/a	10	16	9	1	6
1123396	PROB	n/a	LTP236	ltpFR2	11	n/a	n/a	n/a	10	13	3	7	3
1124280	PROB	n/a	LTP236	ltpFR2	11	n/a	n/a	n/a	10	20	6	7	7
1125980	PROB	n/a	LTP236	ltpFR2	11	n/a	n/a	n/a	10	14	2	8	4
1126998	PROB	n/a	LTP236	ltpFR2	11	n/a	n/a	n/a	10	20	8	5	7
1129601	PROB	n/a	LTP236	ltpFR2	11	n/a	n/a	n/a	10	18	5	8	5
1130885	PROB	n/a	LTP236	ltpFR2	11	n/a	n/a	n/a	10	12	7	3	2
1131819	PROB	n/a	LTP236	ltpFR2	11	n/a	n/a	n/a	10	19	4	9	6
1132820	PROB	n/a	LTP236	ltpFR2	11	n/a	n/a	n/a	10	20	4	7	9
1134021	PROB	n/a	LTP236	ltpFR2	11	n/a	n/a	n/a	10	9	3	1	5
1134921	PROB	n/a	LTP236	ltpFR2	11	n/a	n/a	n/a	10	12	6	2	4
1135759	STOP	n/a	LTP236	ltpFR2	11	n/a	n/a	n/a	10	n/a	n/a	n/a	n/a
1138393	REC_START	n/a	LTP236	ltpFR2	11	6	n/a	n/a	n/a	n/a	0	0	0
1138904	REC_WORD	wordpools/wasnorm_wordpool_576.txt	LTP236	ltpFR2	11	6	ORCHID	982	n/a	n/a	0	0	0
1139578	REC_WORD	wordpools/wasnorm_wordpool_576.txt	LTP236	ltpFR2	11	6	WAITRESS	1581	n/a	n/a	0	0	0
1140424	REC_WORD	wordpools/wasnorm_wordpool_576.txt	LTP236	ltpFR2	11	6	GARDEN	623	n/a	n/a	0	0	0
1141138	REC_WORD	wordpools/wasnorm_wordpool_576.txt	LTP236	ltpFR2	11	6	BANJO	82	n/a	n/a	0	0	0
1141755	REC_WORD	wordpools/wasnorm_wordpool_576.txt	LTP236	ltpFR2	11	6	FIDDLE	561	n/a	n/a	0	0	0
1143193	REC_WORD	wordpools/wasnorm_wordpool_576.txt	LTP236	ltpFR2	11	6	TUNNEL	1519	n/a	n/a	0	0	0
1145607	REC_WORD	wordpools/wasnorm_wordpool_576.txt	LTP236	ltpFR2	11	6	CANYON	235	n/a	n/a	0	0	0
1146379	REC_WORD	wordpools/wasnorm_wordpool_576.txt	LTP236	ltpFR2	11	6	TRUCK	1512	n/a	n/a	0	0	0
1147270	REC_WORD	wordpools/wasnorm_wordpool_576.txt	LTP236	ltpFR2	11	6	BRAKE	166	n/a	n/a	0	0	0
1148065	REC_WORD	wordpools/wasnorm_wordpool_576.txt	LTP236	ltpFR2	11	6	BIKE	125	n/a	n/a	0	0	0
1148669	REC_WORD	wordpools/wasnorm_wordpool_576.txt	LTP236	ltpFR2	11	6	HELMET	702	n/a	n/a	0	0	0
1150362	REC_WORD	wordpools/wasnorm_wordpool_576.txt	LTP236	ltpFR2	11	6	HAWK	692	n/a	n/a	0	0	0
1152385	REC_WORD	wordpools/wasnorm_wordpool_576.txt	LTP236	ltpFR2	11	6	SERVANT	1271	n/a	n/a	0	0	0
1153259	REC_WORD	wordpools/wasnorm_wordpool_576.txt	LTP236	ltpFR2	11	6	HEADBAND	696	n/a	n/a	0	0	0
1154187	REC_WORD	wordpools/wasnorm_wordpool_576.txt	LTP236	ltpFR2	11	6	POSTAGE	1113	n/a	n/a	0	0	0
1155177	REC_WORD	wordpools/wasnorm_wordpool_576.txt	LTP236	ltpFR2	11	6	MOP	916	n/a	n/a	0	0	0
1155929	REC_WORD	wordpools/wasnorm_wordpool_576.txt	LTP236	ltpFR2	11	6	VIRUS	1572	n/a	n/a	0	0	0
1169139	REC_WORD	wordpools/wasnorm_wordpool_576.txt	LTP236	ltpFR2	11	6	KNIFE	785	n/a	n/a	0	0	0
1170029	REC_WORD	wordpools/wasnorm_wordpool_576.txt	LTP236	ltpFR2	11	6	RUST	1219	n/a	n/a	0	0	0
1170738	REC_WORD	wordpools/wasnorm_wordpool_576.txt	LTP236	ltpFR2	11	6	SOFTBALL	1343	n/a	n/a	0	0	0
1228953	WORD	wordpools/wasnorm_wordpool_576.txt	LTP236	ltpFR2	11	7	SCRIBBLE	1256	n/a	n/a	0	0	0
1231440	WORD	wordpools/wasnorm_wordpool_576.txt	LTP236	ltpFR2	11	7	HEDGE	699	n/a	n/a	0	0	0
1234092	WORD	wordpools/wasnorm_wordpool_576.txt	LTP236	ltpFR2	11	7	SNAKE	1333	n/a	n/a	0	0	0
1236528	WORD	wordpools/wasnorm_wordpool_576.txt	LTP236	ltpFR2	11	7	LIZARD	834	n/a	n/a	0	0	0
1239263	WORD	wordpools/wasnorm_wordpool_576.txt	LTP236	ltpFR2	11	7	OYSTER	995	n/a	n/a	0	0	0
1241865	WORD	wordpools/wasnorm_wordpool_576.txt	LTP236	ltpFR2	11	7	AGENT	10	n/a	n/a	0	0	0
1244518	WORD	wordpools/wasnorm_wordpool_576.txt	LTP236	ltpFR2	11	7	BACON	67	n/a	n/a	0	0	0
1247052	WORD	wordpools/wasnorm_wordpool_576.txt	LTP236	ltpFR2	11	7	BLACKBOARD	133	n/a	n/a	0	0	0
1249688	WORD	wordpools/wasnorm_wordpool_576.txt	LTP236	ltpFR2	11	7	SCULPTURE	1258	n/a	n/a	0	0	0
1252508	WORD	wordpools/wasnorm_wordpool_576.txt	LTP236	ltpFR2	11	7	POLICE	1098	n/a	n/a	0	0	0
1255227	WORD	wordpools/wasnorm_wordpool_576.txt	LTP236	ltpFR2	11	7	IDOL	733	n/a	n/a	0	0	0
1257778	WORD	wordpools/wasnorm_wordpool_576.txt	LTP236	ltpFR2	11	7	SKIRT	1319	n/a	n/a	0	0	0
1260448	WORD	wordpools/wasnorm_wordpool_576.txt	LTP236	ltpFR2	11	7	WASHER	1592	n/a	n/a	0	0	0
1263234	WORD	wordpools/wasnorm_wordpool_576.txt	LTP236	ltpFR2	11	7	EXPERT	543	n/a	n/a	0	0	0
1265769	WORD	wordpools/wasnorm_wordpool_576.txt	LTP236	ltpFR2	11	7	QUARTER	1148	n/a	n/a	0	0	0
1268339	WORD	wordpools/wasnorm_wordpool_576.txt	LTP236	ltpFR2	11	7	FOREST	593	n/a	n/a	0	0	0
1270873	WORD	wordpools/wasnorm_wordpool_576.txt	LTP236	ltpFR2	11	7	PATIENT	1024	n/a	n/a	0	0	0
1273543	WORD	wordpools/wasnorm_wordpool_576.txt	LTP236	ltpFR2	11	7	SEAFOOD	1260	n/a	n/a	0	0	0
1276011	WORD	wordpools/wasnorm_wordpool_576.txt	LTP236	ltpFR2	11	7	MACHINE	852	n/a	n/a	0	0	0
1278680	WORD	wordpools/wasnorm_wordpool_576.txt	LTP236	ltpFR2	11	7	PARTNER	1017	n/a	n/a	0	0	0
1281117	WORD	wordpools/wasnorm_wordpool_576.txt	LTP236	ltpFR2	11	7	BOYFRIEND	162	n/a	n/a	0	0	0
1283668	WORD	wordpools/wasnorm_wordpool_576.txt	LTP236	ltpFR2	11	7	LAKE	796	n/a	n/a	0	0	0
1286371	WORD	wordpools/wasnorm_wordpool_576.txt	LTP236	ltpFR2	11	7	BLENDER	136	n/a	n/a	0	0	0
1288906	WORD	wordpools/wasnorm_wordpool_576.txt	LTP236	ltpFR2	11	7	PICNIC	1060	n/a	n/a	0	0	0
1290525	START	n/a	LTP236	ltpFR2	11	n/a	n/a	n/a	11	n/a	n/a	n/a	n/a
1291718	DISTRACTOR	n/a	LTP236	ltpFR2	11	7	n/a	n/a	n/a	n/a	0	0	0
1291725	PROB	n/a	LTP236	ltpFR2	11	n/a	n/a	n/a	11	11	1	3	7
1293577	PROB	n/a	LTP236	ltpFR2	11	n/a	n/a	n/a	11	13	3	3	7
1295044	PROB	n/a	LTP236	ltpFR2	11	n/a	n/a	n/a	11	12	3	7	2
1296080	PROB	n/a	LTP236	ltpFR2	11	n/a	n/a	n/a	11	21	9	3	9
1297963	PROB	n/a	LTP236	ltpFR2	11	n/a	n/a	n/a	11	20	5	7	8
1299549	PROB	n/a	LTP236	ltpFR2	11	n/a	n/a	n/a	11	7	2	4	1
1300699	PROB	n/a	LTP236	ltpFR2	11	n/a	n/a	n/a	11	12	1	4	7
1301917	PROB	n/a	LTP236	ltpFR2	11	n/a	n/a	n/a	11	19	9	2	8
1303386	PROB	n/a	LTP236	ltpFR2	11	n/a	n/a	n/a	11	20	6	9	5
1306838	PROB	n/a	LTP236	ltpFR2	11	n/a	n/a	n/a	11	18	7	8	3
1308706	PROB	n/a	LTP236	ltpFR2	11	n/a	n/a	n/a	11	24	8	9	7
1310875	PROB	n/a	LTP236	ltpFR2	11	n/a	n/a	n/a	11	17	9	7	1
1312943	PROB	n/a	LTP236	ltpFR2	11	n/a	n/a	n/a	11	16	7	1	8
1314447	STOP	n/a	LTP236	ltpFR2	11	n/a	n/a	n/a	11	n/a	n/a	n/a	n/a
1316414	REC_START	n/a	LTP236	ltpFR2	11	7	n/a	n/a	n/a	n/a	0	0	0
1317966	REC_WORD	wordpools/wasnorm_wordpool_576.txt	LTP236	ltpFR2	11	7	BACON	67	n/a	n/a	0	0	0
1318646	REC_WORD	wordpools/wasnorm_wordpool_576.txt	LTP236	ltpFR2	11	7	BLENDER	136	n/a	n/a	0	0	0
1319343	REC_WORD	wordpools/wasnorm_wordpool_576.txt	LTP236	ltpFR2	11	7	WASHER	1592	n/a	n/a	0	0	0
1319939	REC_WORD	wordpools/wasnorm_wordpool_576.txt	LTP236	ltpFR2	11	7	MACHINE	852	n/a	n/a	0	0	0
1320705	REC_WORD	wordpools/wasnorm_wordpool_576.txt	LTP236	ltpFR2	11	7	QUARTER	1148	n/a	n/a	0	0	0
1321700	REC_WORD	wordpools/wasnorm_wordpool_576.txt	LTP236	ltpFR2	11	7	PARTNER	1017	n/a	n/a	0	0	0
1322305	REC_WORD	wordpools/wasnorm_wordpool_576.txt	LTP236	ltpFR2	11	7	BOYFRIEND	162	n/a	n/a	0	0	0
1322954	REC_WORD	wordpools/wasnorm_wordpool_576.txt	LTP236	ltpFR2	11	7	LAKE	796	n/a	n/a	0	0	0
1323446	REC_WORD	wordpools/wasnorm_wordpool_576.txt	LTP236	ltpFR2	11	7	FOREST	593	n/a	n/a	0	0	0
1327075	REC_WORD	wordpools/wasnorm_wordpool_576.txt	LTP236	ltpFR2	11	7	POLICE	1098	n/a	n/a	0	0	0
1328781	REC_WORD	wordpools/wasnorm_wordpool_576.txt	LTP236	ltpFR2	11	7	EXPERT	543	n/a	n/a	0	0	0
1329609	REC_WORD	wordpools/wasnorm_wordpool_576.txt	LTP236	ltpFR2	11	7	AGENT	10	n/a	n/a	0	0	0
1346699	REC_WORD	wordpools/wasnorm_wordpool_576.txt	LTP236	ltpFR2	11	7	PICNIC	1060	n/a	n/a	0	0	0
1359450	REC_WORD	wordpools/wasnorm_wordpool_576.txt	LTP236	ltpFR2	11	7	SEAFOOD	1260	n/a	n/a	0	0	0
1360713	REC_WORD	wordpools/wasnorm_wordpool_576.txt	LTP236	ltpFR2	11	7	OYSTER	995	n/a	n/a	0	0	0
1372393	REC_WORD	wordpools/wasnorm_wordpool_576.txt	LTP236	ltpFR2	11	7	IDOL	733	n/a	n/a	0	0	0
1372924	REC_WORD	wordpools/wasnorm_wordpool_576.txt	LTP236	ltpFR2	11	7	SKIRT	1319	n/a	n/a	0	0	0
1373606	REC_WORD	wordpools/wasnorm_wordpool_576.txt	LTP236	ltpFR2	11	7	SCULPTURE	1258	n/a	n/a	0	0	0
1407042	DISTRACTOR	n/a	LTP236	ltpFR2	11	8	n/a	n/a	n/a	n/a	0	0	0
1407042	START	n/a	LTP236	ltpFR2	11	n/a	n/a	n/a	12	n/a	n/a	n/a	n/a
1407076	PROB	n/a	LTP236	ltpFR2	11	n/a	n/a	n/a	12	22	9	7	6
1408960	PROB	n/a	LTP236	ltpFR2	11	n/a	n/a	n/a	12	10	2	7	1
1409978	PROB	n/a	LTP236	ltpFR2	11	n/a	n/a	n/a	12	20	8	4	8
1411062	PROB	n/a	LTP236	ltpFR2	11	n/a	n/a	n/a	12	13	4	1	8
1412331	PROB	n/a	LTP236	ltpFR2	11	n/a	n/a	n/a	12	13	4	7	2
1413332	PROB	n/a	LTP236	ltpFR2	11	n/a	n/a	n/a	12	13	2	9	2
1415183	PROB	n/a	LTP236	ltpFR2	11	n/a	n/a	n/a	12	15	1	6	8
1416134	PROB	n/a	LTP236	ltpFR2	11	n/a	n/a	n/a	12	14	1	6	7
1417768	PROB	n/a	LTP236	ltpFR2	11	n/a	n/a	n/a	12	14	3	3	8
1419187	PROB	n/a	LTP236	ltpFR2	11	n/a	n/a	n/a	12	20	4	8	8
1420754	PROB	n/a	LTP236	ltpFR2	11	n/a	n/a	n/a	12	17	3	7	7
1421788	PROB	n/a	LTP236	ltpFR2	11	n/a	n/a	n/a	12	20	8	4	8
1422856	PROB	n/a	LTP236	ltpFR2	11	n/a	n/a	n/a	12	21	6	6	9
1425442	PROB	n/a	LTP236	ltpFR2	11	n/a	n/a	n/a	12	10	7	1	2
1426593	PROB	n/a	LTP236	ltpFR2	11	n/a	n/a	n/a	12	17	5	3	9
1427710	PROB	n/a	LTP236	ltpFR2	11	n/a	n/a	n/a	12	15	2	9	4
1429279	PROB	n/a	LTP236	ltpFR2	11	n/a	n/a	n/a	12	21	4	9	8
1430532	STOP	n/a	LTP236	ltpFR2	11	n/a	n/a	n/a	12	n/a	n/a	n/a	n/a
1432281	WORD	wordpools/wasnorm_wordpool_576.txt	LTP236	ltpFR2	11	8	LILY	821	n/a	n/a	0	0	0
1434983	WORD	wordpools/wasnorm_wordpool_576.txt	LTP236	ltpFR2	11	8	SADDLE	1221	n/a	n/a	0	0	0
1437819	WORD	wordpools/wasnorm_wordpool_576.txt	LTP236	ltpFR2	11	8	COFFEE	341	n/a	n/a	0	0	0
1440305	WORD	wordpools/wasnorm_wordpool_576.txt	LTP236	ltpFR2	11	8	PEANUT	1032	n/a	n/a	0	0	0
1443124	WORD	wordpools/wasnorm_wordpool_576.txt	LTP236	ltpFR2	11	8	HAMPER	682	n/a	n/a	0	0	0
1445942	WORD	wordpools/wasnorm_wordpool_576.txt	LTP236	ltpFR2	11	8	LUNCH	849	n/a	n/a	0	0	0
1448479	WORD	wordpools/wasnorm_wordpool_576.txt	LTP236	ltpFR2	11	8	CAFE	216	n/a	n/a	0	0	0
1450997	WORD	wordpools/wasnorm_wordpool_576.txt	LTP236	ltpFR2	11	8	OINTMENT	974	n/a	n/a	0	0	0
1453749	WORD	wordpools/wasnorm_wordpool_576.txt	LTP236	ltpFR2	11	8	LAMP	798	n/a	n/a	0	0	0
1456369	WORD	wordpools/wasnorm_wordpool_576.txt	LTP236	ltpFR2	11	8	MESSAGE	888	n/a	n/a	0	0	0
1458954	WORD	wordpools/wasnorm_wordpool_576.txt	LTP236	ltpFR2	11	8	BINDER	127	n/a	n/a	0	0	0
1461507	WORD	wordpools/wasnorm_wordpool_576.txt	LTP236	ltpFR2	11	8	COD	340	n/a	n/a	0	0	0
1463975	WORD	wordpools/wasnorm_wordpool_576.txt	LTP236	ltpFR2	11	8	TROUT	1511	n/a	n/a	0	0	0
1466478	WORD	wordpools/wasnorm_wordpool_576.txt	LTP236	ltpFR2	11	8	DOLPHIN	483	n/a	n/a	0	0	0
1469097	WORD	wordpools/wasnorm_wordpool_576.txt	LTP236	ltpFR2	11	8	TOASTER	1472	n/a	n/a	0	0	0
1471566	WORD	wordpools/wasnorm_wordpool_576.txt	LTP236	ltpFR2	11	8	COSTUME	383	n/a	n/a	0	0	0
1474235	WORD	wordpools/wasnorm_wordpool_576.txt	LTP236	ltpFR2	11	8	STREAM	1392	n/a	n/a	0	0	0
1476869	WORD	wordpools/wasnorm_wordpool_576.txt	LTP236	ltpFR2	11	8	FLESH	579	n/a	n/a	0	0	0
1479556	WORD	wordpools/wasnorm_wordpool_576.txt	LTP236	ltpFR2	11	8	COUSIN	392	n/a	n/a	0	0	0
1482342	WORD	wordpools/wasnorm_wordpool_576.txt	LTP236	ltpFR2	11	8	GRIZZLY	662	n/a	n/a	0	0	0
1484960	WORD	wordpools/wasnorm_wordpool_576.txt	LTP236	ltpFR2	11	8	PEDAL	1037	n/a	n/a	0	0	0
1487645	WORD	wordpools/wasnorm_wordpool_576.txt	LTP236	ltpFR2	11	8	MUFFIN	929	n/a	n/a	0	0	0
1490115	WORD	wordpools/wasnorm_wordpool_576.txt	LTP236	ltpFR2	11	8	POISON	1096	n/a	n/a	0	0	0
1492750	WORD	wordpools/wasnorm_wordpool_576.txt	LTP236	ltpFR2	11	8	MARKET	871	n/a	n/a	0	0	0
1494369	START	n/a	LTP236	ltpFR2	11	n/a	n/a	n/a	13	n/a	n/a	n/a	n/a
1495289	DISTRACTOR	n/a	LTP236	ltpFR2	11	8	n/a	n/a	n/a	n/a	0	0	0
1495303	PROB	n/a	LTP236	ltpFR2	11	n/a	n/a	n/a	13	4	2	1	1
1496787	PROB	n/a	LTP236	ltpFR2	11	n/a	n/a	n/a	13	10	1	4	5
1497821	PROB	n/a	LTP236	ltpFR2	11	n/a	n/a	n/a	13	13	2	7	3
1499140	PROB	n/a	LTP236	ltpFR2	11	n/a	n/a	n/a	13	10	3	1	6
1501392	PROB	n/a	LTP236	ltpFR2	11	n/a	n/a	n/a	13	12	1	8	3
1502642	PROB	n/a	LTP236	ltpFR2	11	n/a	n/a	n/a	13	10	2	4	4
1504228	PROB	n/a	LTP236	ltpFR2	11	n/a	n/a	n/a	13	18	8	2	8
1505145	PROB	n/a	LTP236	ltpFR2	11	n/a	n/a	n/a	13	13	9	3	1
1506246	PROB	n/a	LTP236	ltpFR2	11	n/a	n/a	n/a	13	20	8	8	4
1507380	PROB	n/a	LTP236	ltpFR2	11	n/a	n/a	n/a	13	11	1	7	3
1508630	PROB	n/a	LTP236	ltpFR2	11	n/a	n/a	n/a	13	6	2	3	1
1509566	PROB	n/a	LTP236	ltpFR2	11	n/a	n/a	n/a	13	14	4	6	4
1510450	PROB	n/a	LTP236	ltpFR2	11	n/a	n/a	n/a	13	10	4	3	3
1511716	PROB	n/a	LTP236	ltpFR2	11	n/a	n/a	n/a	13	20	5	8	7
1512851	PROB	n/a	LTP236	ltpFR2	11	n/a	n/a	n/a	13	22	8	9	5
1514286	PROB	n/a	LTP236	ltpFR2	11	n/a	n/a	n/a	13	19	4	9	6
1515337	PROB	n/a	LTP236	ltpFR2	11	n/a	n/a	n/a	13	14	4	4	6
1516288	PROB	n/a	LTP236	ltpFR2	11	n/a	n/a	n/a	13	23	9	7	7
1517399	STOP	n/a	LTP236	ltpFR2	11	n/a	n/a	n/a	13	n/a	n/a	n/a	n/a
1520275	REC_START	n/a	LTP236	ltpFR2	11	8	n/a	n/a	n/a	n/a	0	0	0
1520751	REC_WORD	wordpools/wasnorm_wordpool_576.txt	LTP236	ltpFR2	11	8	MUFFIN	929	n/a	n/a	0	0	0
1521583	REC_WORD	wordpools/wasnorm_wordpool_576.txt	LTP236	ltpFR2	11	8	POISON	1096	n/a	n/a	0	0	0
1522234	REC_WORD	wordpools/wasnorm_wordpool_576.txt	LTP236	ltpFR2	11	8	MARKET	871	n/a	n/a	0	0	0
1523125	REC_WORD	wordpools/wasnorm_wordpool_576.txt	LTP236	ltpFR2	11	8	PEDAL	1037	n/a	n/a	0	0	0
1524098	REC_WORD	wordpools/wasnorm_wordpool_576.txt	LTP236	ltpFR2	11	8	LILY	821	n/a	n/a	0	0	0
1525017	REC_WORD	wordpools/wasnorm_wordpool_576.txt	LTP236	ltpFR2	11	8	OINTMENT	974	n/a	n/a	0	0	0
1526536	REC_WORD	wordpools/wasnorm_wordpool_576.txt	LTP236	ltpFR2	11	8	SHARK	1275	n/a	n/a	0	0	0
1528023	REC_WORD	wordpools/wasnorm_wordpool_576.txt	LTP236	ltpFR2	11	8	FLESH	579	n/a	n/a	0	0	0
1529275	REC_WORD	wordpools/wasnorm_wordpool_576.txt	LTP236	ltpFR2	11	8	COUSIN	392	n/a	n/a	0	0	0
1530243	REC_WORD	wordpools/wasnorm_wordpool_576.txt	LTP236	ltpFR2	11	8	GRIZZLY	662	n/a	n/a	0	0	0
1531345	REC_WORD	wordpools/wasnorm_wordpool_576.txt	LTP236	ltpFR2	11	8	LAMP	798	n/a	n/a	0	0	0
1532514	REC_WORD	wordpools/wasnorm_wordpool_576.txt	LTP236	ltpFR2	11	8	MESSAGE	888	n/a	n/a	0	0	0
1533527	REC_WORD	wordpools/wasnorm_wordpool_576.txt	LTP236	ltpFR2	11	8	BINDER	127	n/a	n/a	0	0	0
1536308	REC_WORD	wordpools/wasnorm_wordpool_576.txt	LTP236	ltpFR2	11	8	CAFE	216	n/a	n/a	0	0	0
1538859	REC_WORD	wordpools/wasnorm_wordpool_576.txt	LTP236	ltpFR2	11	8	COD	340	n/a	n/a	0	0	0
1539685	REC_WORD	wordpools/wasnorm_wordpool_576.txt	LTP236	ltpFR2	11	8	TROUT	1511	n/a	n/a	0	0	0
1541573	REC_WORD	wordpools/wasnorm_wordpool_576.txt	LTP236	ltpFR2	11	8	DOLPHIN	483	n/a	n/a	0	0	0
1550055	REC_WORD	wordpools/wasnorm_wordpool_576.txt	LTP236	ltpFR2	11	8	COFFEE	341	n/a	n/a	0	0	0
1550943	REC_WORD	wordpools/wasnorm_wordpool_576.txt	LTP236	ltpFR2	11	8	PEANUT	1032	n/a	n/a	0	0	0
1576913	REC_WORD	wordpools/wasnorm_wordpool_576.txt	LTP236	ltpFR2	11	8	LUNCH	849	n/a	n/a	0	0	0
1596824	REST_REWET	n/a	LTP236	ltpFR2	11	8	n/a	n/a	n/a	n/a	0	0	0
1836649	WORD	wordpools/wasnorm_wordpool_576.txt	LTP236	ltpFR2	11	9	PLAYGROUND	1087	n/a	n/a	0	0	0
1839253	WORD	wordpools/wasnorm_wordpool_576.txt	LTP236	ltpFR2	11	9	NOVEL	960	n/a	n/a	0	0	0
1842004	WORD	wordpools/wasnorm_wordpool_576.txt	LTP236	ltpFR2	11	9	SHELF	1280	n/a	n/a	0	0	0
1844690	WORD	wordpools/wasnorm_wordpool_576.txt	LTP236	ltpFR2	11	9	BACKBONE	66	n/a	n/a	0	0	0
1847160	WORD	wordpools/wasnorm_wordpool_576.txt	LTP236	ltpFR2	11	9	JOURNAL	760	n/a	n/a	0	0	0
1849611	WORD	wordpools/wasnorm_wordpool_576.txt	LTP236	ltpFR2	11	9	JELLY	755	n/a	n/a	0	0	0
1852181	WORD	wordpools/wasnorm_wordpool_576.txt	LTP236	ltpFR2	11	9	SCALLOP	1242	n/a	n/a	0	0	0
1854648	WORD	wordpools/wasnorm_wordpool_576.txt	LTP236	ltpFR2	11	9	COCKTAIL	338	n/a	n/a	0	0	0
1857202	WORD	wordpools/wasnorm_wordpool_576.txt	LTP236	ltpFR2	11	9	TEACHER	1440	n/a	n/a	0	0	0
1859870	WORD	wordpools/wasnorm_wordpool_576.txt	LTP236	ltpFR2	11	9	MAILBOX	857	n/a	n/a	0	0	0
1862323	WORD	wordpools/wasnorm_wordpool_576.txt	LTP236	ltpFR2	11	9	SPIDER	1351	n/a	n/a	0	0	0
1865109	WORD	wordpools/wasnorm_wordpool_576.txt	LTP236	ltpFR2	11	9	COCOON	339	n/a	n/a	0	0	0
1867776	WORD	wordpools/wasnorm_wordpool_576.txt	LTP236	ltpFR2	11	9	POSSUM	1112	n/a	n/a	0	0	0
1870263	WORD	wordpools/wasnorm_wordpool_576.txt	LTP236	ltpFR2	11	9	VELVET	1555	n/a	n/a	0	0	0
1873099	WORD	wordpools/wasnorm_wordpool_576.txt	LTP236	ltpFR2	11	9	CRAB	397	n/a	n/a	0	0	0
1875750	WORD	wordpools/wasnorm_wordpool_576.txt	LTP236	ltpFR2	11	9	KNAPSACK	783	n/a	n/a	0	0	0
1878570	WORD	wordpools/wasnorm_wordpool_576.txt	LTP236	ltpFR2	11	9	NOTEBOOK	959	n/a	n/a	0	0	0
1881323	WORD	wordpools/wasnorm_wordpool_576.txt	LTP236	ltpFR2	11	9	HATCHET	691	n/a	n/a	0	0	0
1883890	WORD	wordpools/wasnorm_wordpool_576.txt	LTP236	ltpFR2	11	9	SURVEY	1414	n/a	n/a	0	0	0
1886610	WORD	wordpools/wasnorm_wordpool_576.txt	LTP236	ltpFR2	11	9	CASKET	255	n/a	n/a	0	0	0
1889179	WORD	wordpools/wasnorm_wordpool_576.txt	LTP236	ltpFR2	11	9	ASIA	46	n/a	n/a	0	0	0
1891747	WORD	wordpools/wasnorm_wordpool_576.txt	LTP236	ltpFR2	11	9	JUNGLE	764	n/a	n/a	0	0	0
1894251	WORD	wordpools/wasnorm_wordpool_576.txt	LTP236	ltpFR2	11	9	PORTRAIT	1111	n/a	n/a	0	0	0
1896752	WORD	wordpools/wasnorm_wordpool_576.txt	LTP236	ltpFR2	11	9	HERO	706	n/a	n/a	0	0	0
1898371	START	n/a	LTP236	ltpFR2	11	n/a	n/a	n/a	14	n/a	n/a	n/a	n/a
1899465	DISTRACTOR	n/a	LTP236	ltpFR2	11	9	n/a	n/a	n/a	n/a	0	0	0
1899488	PROB	n/a	LTP236	ltpFR2	11	n/a	n/a	n/a	14	13	3	9	1
1901055	PROB	n/a	LTP236	ltpFR2	11	n/a	n/a	n/a	14	6	2	2	2
1901873	PROB	n/a	LTP236	ltpFR2	11	n/a	n/a	n/a	14	14	2	8	3
1902840	PROB	n/a	LTP236	ltpFR2	11	n/a	n/a	n/a	14	17	6	8	3
1903958	PROB	n/a	LTP236	ltpFR2	11	n/a	n/a	n/a	14	11	5	5	1
1904775	PROB	n/a	LTP236	ltpFR2	11	n/a	n/a	n/a	14	11	3	6	2
1906794	PROB	n/a	LTP236	ltpFR2	11	n/a	n/a	n/a	14	8	1	1	6
1907711	PROB	n/a	LTP236	ltpFR2	11	n/a	n/a	n/a	14	10	6	1	3
1908779	PROB	n/a	LTP236	ltpFR2	11	n/a	n/a	n/a	14	15	5	6	4
1909847	PROB	n/a	LTP236	ltpFR2	11	n/a	n/a	n/a	14	10	3	4	3
1910831	PROB	n/a	LTP236	ltpFR2	11	n/a	n/a	n/a	14	19	8	2	9
1911781	PROB	n/a	LTP236	ltpFR2	11	n/a	n/a	n/a	14	21	6	6	9
1913883	PROB	n/a	LTP236	ltpFR2	11	n/a	n/a	n/a	14	11	7	3	1
1914767	PROB	n/a	LTP236	ltpFR2	11	n/a	n/a	n/a	14	11	3	1	7
1915702	PROB	n/a	LTP236	ltpFR2	11	n/a	n/a	n/a	14	14	4	6	4
1916636	PROB	n/a	LTP236	ltpFR2	11	n/a	n/a	n/a	14	22	8	8	6
1920022	PROB	n/a	LTP236	ltpFR2	11	n/a	n/a	n/a	14	17	6	6	5
1921303	STOP	n/a	LTP236	ltpFR2	11	n/a	n/a	n/a	14	n/a	n/a	n/a	n/a
1924160	REC_START	n/a	LTP236	ltpFR2	11	9	n/a	n/a	n/a	n/a	0	0	0
1924632	REC_WORD	wordpools/wasnorm_wordpool_576.txt	LTP236	ltpFR2	11	9	PORTRAIT	1111	n/a	n/a	0	0	0
1925381	REC_WORD	wordpools/wasnorm_wordpool_576.txt	LTP236	ltpFR2	11	9	HERO	706	n/a	n/a	0	0	0
1926187	REC_WORD	wordpools/wasnorm_wordpool_576.txt	LTP236	ltpFR2	11	9	ASIA	46	n/a	n/a	0	0	0
1927675	REC_WORD	wordpools/wasnorm_wordpool_576.txt	LTP236	ltpFR2	11	9	JUNGLE	764	n/a	n/a	0	0	0
1929402	REC_WORD	wordpools/wasnorm_wordpool_576.txt	LTP236	ltpFR2	11	9	CASKET	255	n/a	n/a	0	0	0
1930477	REC_WORD	wordpools/wasnorm_wordpool_576.txt	LTP236	ltpFR2	11	9	SURVEY	1414	n/a	n/a	0	0	0
1933316	REC_WORD	wordpools/wasnorm_wordpool_576.txt	LTP236	ltpFR2	11	9	PLAYGROUND	1087	n/a	n/a	0	0	0
1934639	REC_WORD	wordpools/wasnorm_wordpool_576.txt	LTP236	ltpFR2	11	9	TEACHER	1440	n/a	n/a	0	0	0
1935539	REC_WORD	wordpools/wasnorm_wordpool_576.txt	LTP236	ltpFR2	11	9	MAILBOX	857	n/a	n/a	0	0	0
1937738	REC_WORD	wordpools/wasnorm_wordpool_576.txt	LTP236	ltpFR2	11	9	COCOON	339	n/a	n/a	0	0	0
1939173	REC_WORD	wordpools/wasnorm_wordpool_576.txt	LTP236	ltpFR2	11	9	SPIDER	1351	n/a	n/a	0	0	0
1940260	REC_WORD	wordpools/wasnorm_wordpool_576.txt	LTP236	ltpFR2	11	9	POSSUM	1112	n/a	n/a	0	0	0
1942439	REC_WORD	wordpools/wasnorm_wordpool_576.txt	LTP236	ltpFR2	11	9	NOVEL	960	n/a	n/a	0	0	0
1943222	REC_WORD	wordpools/wasnorm_wordpool_576.txt	LTP236	ltpFR2	11	9	SHELF	1280	n/a	n/a	0	0	0
1944233	REC_WORD	wordpools/wasnorm_wordpool_576.txt	LTP236	ltpFR2	11	9	JOURNAL	760	n/a	n/a	0	0	0
1945731	REC_WORD	wordpools/wasnorm_wordpool_576.txt	LTP236	ltpFR2	11	9	KNAPSACK	783	n/a	n/a	0	0	0
1953780	REC_WORD	wordpools/wasnorm_wordpool_576.txt	LTP236	ltpFR2	11	9	NOTEBOOK	959	n/a	n/a	0	0	0
1960946	REC_WORD	wordpools/wasnorm_wordpool_576.txt	LTP236	ltpFR2	11	9	VELVET	1555	n/a	n/a	0	0	0
1989064	REC_WORD	wordpools/wasnorm_wordpool_576.txt	LTP236	ltpFR2	11	9	CRAB	397	n/a	n/a	0	0	0
1989688	REC_WORD	wordpools/wasnorm_wordpool_576.txt	LTP236	ltpFR2	11	9	SCALLOP	1242	n/a	n/a	0	0	0
1991443	REC_WORD	wordpools/wasnorm_wordpool_576.txt	LTP236	ltpFR2	11	9	JELLY	755	n/a	n/a	0	0	0
1992101	REC_WORD	wordpools/wasnorm_wordpool_576.txt	LTP236	ltpFR2	11	9	COCKTAIL	338	n/a	n/a	0	0	0
2014621	DISTRACTOR	n/a	LTP236	ltpFR2	11	10	n/a	n/a	n/a	n/a	0	0	0
2014621	START	n/a	LTP236	ltpFR2	11	n/a	n/a	n/a	15	n/a	n/a	n/a	n/a
2014638	PROB	n/a	LTP236	ltpFR2	11	n/a	n/a	n/a	15	20	7	6	7
2016806	PROB	n/a	LTP236	ltpFR2	11	n/a	n/a	n/a	15	17	1	8	8
2018242	PROB	n/a	LTP236	ltpFR2	11	n/a	n/a	n/a	15	12	5	1	6
2019460	PROB	n/a	LTP236	ltpFR2	11	n/a	n/a	n/a	15	10	1	7	2
2020710	PROB	n/a	LTP236	ltpFR2	11	n/a	n/a	n/a	15	14	2	5	7
2021811	PROB	n/a	LTP236	ltpFR2	11	n/a	n/a	n/a	15	22	7	8	7
2022962	PROB	n/a	LTP236	ltpFR2	11	n/a	n/a	n/a	15	14	3	8	3
2023879	PROB	n/a	LTP236	ltpFR2	11	n/a	n/a	n/a	15	16	7	6	3
2024830	PROB	n/a	LTP236	ltpFR2	11	n/a	n/a	n/a	15	18	9	4	5
2026532	PROB	n/a	LTP236	ltpFR2	11	n/a	n/a	n/a	15	23	9	8	6
2028733	PROB	n/a	LTP236	ltpFR2	11	n/a	n/a	n/a	15	15	6	6	3
2029651	PROB	n/a	LTP236	ltpFR2	11	n/a	n/a	n/a	15	13	4	7	2
2030569	PROB	n/a	LTP236	ltpFR2	11	n/a	n/a	n/a	15	14	8	1	5
2031520	PROB	n/a	LTP236	ltpFR2	11	n/a	n/a	n/a	15	23	7	7	9
2033838	PROB	n/a	LTP236	ltpFR2	11	n/a	n/a	n/a	15	18	3	7	8
2034805	PROB	n/a	LTP236	ltpFR2	11	n/a	n/a	n/a	15	15	8	1	6
2036124	PROB	n/a	LTP236	ltpFR2	11	n/a	n/a	n/a	15	12	4	5	3
2037100	STOP	n/a	LTP236	ltpFR2	11	n/a	n/a	n/a	15	n/a	n/a	n/a	n/a
2039693	WORD	wordpools/wasnorm_wordpool_576.txt	LTP236	ltpFR2	11	10	WARDROBE	1587	n/a	n/a	0	0	0
2042146	WORD	wordpools/wasnorm_wordpool_576.txt	LTP236	ltpFR2	11	10	RAZOR	1171	n/a	n/a	0	0	0
2044681	WORD	wordpools/wasnorm_wordpool_576.txt	LTP236	ltpFR2	11	10	CONCERT	360	n/a	n/a	0	0	0
2047167	WORD	wordpools/wasnorm_wordpool_576.txt	LTP236	ltpFR2	11	10	QUEEN	1149	n/a	n/a	0	0	0
2049785	WORD	wordpools/wasnorm_wordpool_576.txt	LTP236	ltpFR2	11	10	CLOTHES	327	n/a	n/a	0	0	0
2052238	WORD	wordpools/wasnorm_wordpool_576.txt	LTP236	ltpFR2	11	10	BEAST	108	n/a	n/a	0	0	0
2054856	WORD	wordpools/wasnorm_wordpool_576.txt	LTP236	ltpFR2	11	10	BRIEFCASE	175	n/a	n/a	0	0	0
2057675	WORD	wordpools/wasnorm_wordpool_576.txt	LTP236	ltpFR2	11	10	WHISKERS	1605	n/a	n/a	0	0	0
2060362	WORD	wordpools/wasnorm_wordpool_576.txt	LTP236	ltpFR2	11	10	ONION	977	n/a	n/a	0	0	0
2063181	WORD	wordpools/wasnorm_wordpool_576.txt	LTP236	ltpFR2	11	10	CRUTCH	417	n/a	n/a	0	0	0
2065916	WORD	wordpools/wasnorm_wordpool_576.txt	LTP236	ltpFR2	11	10	COBRA	336	n/a	n/a	0	0	0
2068718	WORD	wordpools/wasnorm_wordpool_576.txt	LTP236	ltpFR2	11	10	INMATE	738	n/a	n/a	0	0	0
2071155	WORD	wordpools/wasnorm_wordpool_576.txt	LTP236	ltpFR2	11	10	CAPTIVE	240	n/a	n/a	0	0	0
2073789	WORD	wordpools/wasnorm_wordpool_576.txt	LTP236	ltpFR2	11	10	TROMBONE	1508	n/a	n/a	0	0	0
2076543	WORD	wordpools/wasnorm_wordpool_576.txt	LTP236	ltpFR2	11	10	WHISTLE	1606	n/a	n/a	0	0	0
2079195	WORD	wordpools/wasnorm_wordpool_576.txt	LTP236	ltpFR2	11	10	LIVER	833	n/a	n/a	0	0	0
2081796	WORD	wordpools/wasnorm_wordpool_576.txt	LTP236	ltpFR2	11	10	PRINCESS	1125	n/a	n/a	0	0	0
2084316	WORD	wordpools/wasnorm_wordpool_576.txt	LTP236	ltpFR2	11	10	RACKET	1155	n/a	n/a	0	0	0
2086951	WORD	wordpools/wasnorm_wordpool_576.txt	LTP236	ltpFR2	11	10	APPLE	33	n/a	n/a	0	0	0
2089387	WORD	wordpools/wasnorm_wordpool_576.txt	LTP236	ltpFR2	11	10	LODGE	839	n/a	n/a	0	0	0
2092190	WORD	wordpools/wasnorm_wordpool_576.txt	LTP236	ltpFR2	11	10	CABIN	211	n/a	n/a	0	0	0
2094858	WORD	wordpools/wasnorm_wordpool_576.txt	LTP236	ltpFR2	11	10	STOVE	1388	n/a	n/a	0	0	0
2097594	WORD	wordpools/wasnorm_wordpool_576.txt	LTP236	ltpFR2	11	10	HIKER	708	n/a	n/a	0	0	0
2100380	WORD	wordpools/wasnorm_wordpool_576.txt	LTP236	ltpFR2	11	10	FLEET	578	n/a	n/a	0	0	0
2101997	START	n/a	LTP236	ltpFR2	11	n/a	n/a	n/a	16	n/a	n/a	n/a	n/a
2102926	DISTRACTOR	n/a	LTP236	ltpFR2	11	10	n/a	n/a	n/a	n/a	0	0	0
2102948	PROB	n/a	LTP236	ltpFR2	11	n/a	n/a	n/a	16	7	3	1	3
2104649	PROB	n/a	LTP236	ltpFR2	11	n/a	n/a	n/a	16	16	8	1	7
2107386	PROB	n/a	LTP236	ltpFR2	11	n/a	n/a	n/a	16	8	3	4	1
2108387	PROB	n/a	LTP236	ltpFR2	11	n/a	n/a	n/a	16	5	2	1	2
2109521	PROB	n/a	LTP236	ltpFR2	11	n/a	n/a	n/a	16	22	7	4	9
2111005	PROB	n/a	LTP236	ltpFR2	11	n/a	n/a	n/a	16	18	8	6	4
2112390	PROB	n/a	LTP236	ltpFR2	11	n/a	n/a	n/a	16	8	4	1	3
2113624	PROB	n/a	LTP236	ltpFR2	11	n/a	n/a	n/a	16	15	2	5	8
2114692	PROB	n/a	LTP236	ltpFR2	11	n/a	n/a	n/a	16	17	8	8	1
2115693	PROB	n/a	LTP236	ltpFR2	11	n/a	n/a	n/a	16	21	7	6	8
2116777	PROB	n/a	LTP236	ltpFR2	11	n/a	n/a	n/a	16	25	8	8	9
2118229	PROB	n/a	LTP236	ltpFR2	11	n/a	n/a	n/a	16	22	6	8	8
2120714	PROB	n/a	LTP236	ltpFR2	11	n/a	n/a	n/a	16	14	2	9	3
2122166	PROB	n/a	LTP236	ltpFR2	11	n/a	n/a	n/a	16	15	4	8	3
2123500	PROB	n/a	LTP236	ltpFR2	11	n/a	n/a	n/a	16	11	1	3	7
2125997	STOP	n/a	LTP236	ltpFR2	11	n/a	n/a	n/a	16	n/a	n/a	n/a	n/a
2127937	REC_START	n/a	LTP236	ltpFR2	11	10	n/a	n/a	n/a	n/a	0	0	0
2128898	REC_WORD	wordpools/wasnorm_wordpool_576.txt	LTP236	ltpFR2	11	10	APPLE	33	n/a	n/a	0	0	0
2129445	REC_WORD	wordpools/wasnorm_wordpool_576.txt	LTP236	ltpFR2	11	10	STOVE	1388	n/a	n/a	0	0	0
2130104	REC_WORD	wordpools/wasnorm_wordpool_576.txt	LTP236	ltpFR2	11	10	HIKER	708	n/a	n/a	0	0	0
2131104	REC_WORD_VV	wordpools/wasnorm_wordpool_576.txt	LTP236	ltpFR2	11	10	<>	-1	n/a	n/a	0	0	0
2133008	REC_WORD	wordpools/wasnorm_wordpool_576.txt	LTP236	ltpFR2	11	10	PRINCESS	1125	n/a	n/a	0	0	0
2133869	REC_WORD	wordpools/wasnorm_wordpool_576.txt	LTP236	ltpFR2	11	10	QUEEN	1149	n/a	n/a	0	0	0
2134678	REC_WORD	wordpools/wasnorm_wordpool_576.txt	LTP236	ltpFR2	11	10	CROWN	415	n/a	n/a	0	0	0
2136195	REC_WORD	wordpools/wasnorm_wordpool_576.txt	LTP236	ltpFR2	11	10	CAPTIVE	240	n/a	n/a	0	0	0
2137145	REC_WORD	wordpools/wasnorm_wordpool_576.txt	LTP236	ltpFR2	11	10	INMATE	738	n/a	n/a	0	0	0
2137907	REC_WORD	wordpools/wasnorm_wordpool_576.txt	LTP236	ltpFR2	11	10	TROMBONE	1508	n/a	n/a	0	0	0
2147568	REC_WORD	wordpools/wasnorm_wordpool_576.txt	LTP236	ltpFR2	11	10	WHISKERS	1605	n/a	n/a	0	0	0
2148897	REC_WORD	wordpools/wasnorm_wordpool_576.txt	LTP236	ltpFR2	11	10	WHISTLE	1606	n/a	n/a	0	0	0
2151809	REC_WORD	wordpools/wasnorm_wordpool_576.txt	LTP236	ltpFR2	11	10	CABIN	211	n/a	n/a	0	0	0
2152745	REC_WORD	wordpools/wasnorm_wordpool_576.txt	LTP236	ltpFR2	11	10	LODGE	839	n/a	n/a	0	0	0
2218383	DISTRACTOR	n/a	LTP236	ltpFR2	11	11	n/a	n/a	n/a	n/a	0	0	0
2218383	START	n/a	LTP236	ltpFR2	11	n/a	n/a	n/a	17	n/a	n/a	n/a	n/a
2218400	PROB	n/a	LTP236	ltpFR2	11	n/a	n/a	n/a	17	15	3	7	5
2220251	PROB	n/a	LTP236	ltpFR2	11	n/a	n/a	n/a	17	20	5	8	7
2221852	PROB	n/a	LTP236	ltpFR2	11	n/a	n/a	n/a	17	21	3	9	9
2223437	PROB	n/a	LTP236	ltpFR2	11	n/a	n/a	n/a	17	23	8	6	9
2224621	PROB	n/a	LTP236	ltpFR2	11	n/a	n/a	n/a	17	21	6	7	8
2226290	PROB	n/a	LTP236	ltpFR2	11	n/a	n/a	n/a	17	9	1	6	2
2227441	PROB	n/a	LTP236	ltpFR2	11	n/a	n/a	n/a	17	16	6	9	1
2228458	PROB	n/a	LTP236	ltpFR2	11	n/a	n/a	n/a	17	19	6	4	9
2229409	PROB	n/a	LTP236	ltpFR2	11	n/a	n/a	n/a	17	17	6	7	4
2230544	PROB	n/a	LTP236	ltpFR2	11	n/a	n/a	n/a	17	9	4	2	3
2231461	PROB	n/a	LTP236	ltpFR2	11	n/a	n/a	n/a	17	17	9	5	3
2232445	PROB	n/a	LTP236	ltpFR2	11	n/a	n/a	n/a	17	16	8	4	4
2233596	PROB	n/a	LTP236	ltpFR2	11	n/a	n/a	n/a	17	14	1	6	7
2234547	PROB	n/a	LTP236	ltpFR2	11	n/a	n/a	n/a	17	18	6	7	5
2235897	PROB	n/a	LTP236	ltpFR2	11	n/a	n/a	n/a	17	14	5	6	3
2237082	PROB	n/a	LTP236	ltpFR2	11	n/a	n/a	n/a	17	14	7	1	6
2238032	PROB	n/a	LTP236	ltpFR2	11	n/a	n/a	n/a	17	13	3	3	7
2239151	PROB	n/a	LTP236	ltpFR2	11	n/a	n/a	n/a	17	8	5	1	2
2240252	PROB	n/a	LTP236	ltpFR2	11	n/a	n/a	n/a	17	12	4	2	6
2241284	STOP	n/a	LTP236	ltpFR2	11	n/a	n/a	n/a	17	n/a	n/a	n/a	n/a
2243438	WORD	wordpools/wasnorm_wordpool_576.txt	LTP236	ltpFR2	11	11	GRAPE	654	n/a	n/a	0	0	0
2246039	WORD	wordpools/wasnorm_wordpool_576.txt	LTP236	ltpFR2	11	11	SIBLING	1301	n/a	n/a	0	0	0
2248625	WORD	wordpools/wasnorm_wordpool_576.txt	LTP236	ltpFR2	11	11	UMPIRE	1535	n/a	n/a	0	0	0
2251211	WORD	wordpools/wasnorm_wordpool_576.txt	LTP236	ltpFR2	11	11	FOOTBALL	591	n/a	n/a	0	0	0
2253963	WORD	wordpools/wasnorm_wordpool_576.txt	LTP236	ltpFR2	11	11	FLOWER	584	n/a	n/a	0	0	0
2256782	WORD	wordpools/wasnorm_wordpool_576.txt	LTP236	ltpFR2	11	11	SISTER	1312	n/a	n/a	0	0	0
2259285	WORD	wordpools/wasnorm_wordpool_576.txt	LTP236	ltpFR2	11	11	TURTLE	1522	n/a	n/a	0	0	0
2261720	WORD	wordpools/wasnorm_wordpool_576.txt	LTP236	ltpFR2	11	11	TART	1436	n/a	n/a	0	0	0
2264306	WORD	wordpools/wasnorm_wordpool_576.txt	LTP236	ltpFR2	11	11	DRUG	501	n/a	n/a	0	0	0
2266757	WORD	wordpools/wasnorm_wordpool_576.txt	LTP236	ltpFR2	11	11	STONE	1385	n/a	n/a	0	0	0
2269194	WORD	wordpools/wasnorm_wordpool_576.txt	LTP236	ltpFR2	11	11	SHARK	1275	n/a	n/a	0	0	0
2271795	WORD	wordpools/wasnorm_wordpool_576.txt	LTP236	ltpFR2	11	11	OFFICE	972	n/a	n/a	0	0	0
2274532	WORD	wordpools/wasnorm_wordpool_576.txt	LTP236	ltpFR2	11	11	BROTHER	179	n/a	n/a	0	0	0
2277066	WORD	wordpools/wasnorm_wordpool_576.txt	LTP236	ltpFR2	11	11	BATHTUB	100	n/a	n/a	0	0	0
2279635	WORD	wordpools/wasnorm_wordpool_576.txt	LTP236	ltpFR2	11	11	SUNRISE	1407	n/a	n/a	0	0	0
2282289	WORD	wordpools/wasnorm_wordpool_576.txt	LTP236	ltpFR2	11	11	ORANGE	980	n/a	n/a	0	0	0
2284906	WORD	wordpools/wasnorm_wordpool_576.txt	LTP236	ltpFR2	11	11	CHAMPAGNE	278	n/a	n/a	0	0	0
2287526	WORD	wordpools/wasnorm_wordpool_576.txt	LTP236	ltpFR2	11	11	DRINK	498	n/a	n/a	0	0	0
2289978	WORD	wordpools/wasnorm_wordpool_576.txt	LTP236	ltpFR2	11	11	HOOK	715	n/a	n/a	0	0	0
2292581	WORD	wordpools/wasnorm_wordpool_576.txt	LTP236	ltpFR2	11	11	FLAG	573	n/a	n/a	0	0	0
2295100	WORD	wordpools/wasnorm_wordpool_576.txt	LTP236	ltpFR2	11	11	BUG	187	n/a	n/a	0	0	0
2297818	WORD	wordpools/wasnorm_wordpool_576.txt	LTP236	ltpFR2	11	11	DIVER	476	n/a	n/a	0	0	0
2300388	WORD	wordpools/wasnorm_wordpool_576.txt	LTP236	ltpFR2	11	11	KIDNEY	776	n/a	n/a	0	0	0
2303157	WORD	wordpools/wasnorm_wordpool_576.txt	LTP236	ltpFR2	11	11	CLAM	315	n/a	n/a	0	0	0
2304774	START	n/a	LTP236	ltpFR2	11	n/a	n/a	n/a	18	n/a	n/a	n/a	n/a
2305669	DISTRACTOR	n/a	LTP236	ltpFR2	11	11	n/a	n/a	n/a	n/a	0	0	0
2305691	PROB	n/a	LTP236	ltpFR2	11	n/a	n/a	n/a	18	15	7	7	1
2307410	PROB	n/a	LTP236	ltpFR2	11	n/a	n/a	n/a	18	21	9	9	3
2308545	PROB	n/a	LTP236	ltpFR2	11	n/a	n/a	n/a	18	20	9	3	8
2310296	PROB	n/a	LTP236	ltpFR2	11	n/a	n/a	n/a	18	16	9	4	3
2311264	PROB	n/a	LTP236	ltpFR2	11	n/a	n/a	n/a	18	14	5	1	8
2312165	PROB	n/a	LTP236	ltpFR2	11	n/a	n/a	n/a	18	20	8	7	5
2314183	PROB	n/a	LTP236	ltpFR2	11	n/a	n/a	n/a	18	21	8	9	4
2315650	PROB	n/a	LTP236	ltpFR2	11	n/a	n/a	n/a	18	10	3	6	1
2316568	PROB	n/a	LTP236	ltpFR2	11	n/a	n/a	n/a	18	12	8	1	3
2317919	PROB	n/a	LTP236	ltpFR2	11	n/a	n/a	n/a	18	10	6	3	1
2318869	PROB	n/a	LTP236	ltpFR2	11	n/a	n/a	n/a	18	7	1	2	4
2319870	PROB	n/a	LTP236	ltpFR2	11	n/a	n/a	n/a	18	23	7	7	9
2321055	PROB	n/a	LTP236	ltpFR2	11	n/a	n/a	n/a	18	11	6	3	2
2322290	PROB	n/a	LTP236	ltpFR2	11	n/a	n/a	n/a	18	12	8	1	3
2324492	PROB	n/a	LTP236	ltpFR2	11	n/a	n/a	n/a	18	10	8	1	1
2325809	PROB	n/a	LTP236	ltpFR2	11	n/a	n/a	n/a	18	17	3	8	6
2326876	PROB	n/a	LTP236	ltpFR2	11	n/a	n/a	n/a	18	17	7	6	4
2327958	STOP	n/a	LTP236	ltpFR2	11	n/a	n/a	n/a	18	n/a	n/a	n/a	n/a
2330680	REC_START	n/a	LTP236	ltpFR2	11	11	n/a	n/a	n/a	n/a	0	0	0
2331182	REC_WORD	wordpools/wasnorm_wordpool_576.txt	LTP236	ltpFR2	11	11	ORGAN	984	n/a	n/a	0	0	0
2331933	REC_WORD	wordpools/wasnorm_wordpool_576.txt	LTP236	ltpFR2	11	11	CLAM	315	n/a	n/a	0	0	0
2332705	REC_WORD	wordpools/wasnorm_wordpool_576.txt	LTP236	ltpFR2	11	11	KIDNEY	776	n/a	n/a	0	0	0
2333607	REC_WORD	wordpools/wasnorm_wordpool_576.txt	LTP236	ltpFR2	11	11	CHAMPAGNE	278	n/a	n/a	0	0	0
2334884	REC_WORD	wordpools/wasnorm_wordpool_576.txt	LTP236	ltpFR2	11	11	DRINK	498	n/a	n/a	0	0	0
2336429	REC_WORD	wordpools/wasnorm_wordpool_576.txt	LTP236	ltpFR2	11	11	TART	1436	n/a	n/a	0	0	0
2337582	REC_WORD	wordpools/wasnorm_wordpool_576.txt	LTP236	ltpFR2	11	11	ORANGE	980	n/a	n/a	0	0	0
2338745	REC_WORD	wordpools/wasnorm_wordpool_576.txt	LTP236	ltpFR2	11	11	GRAPE	654	n/a	n/a	0	0	0
2339536	REC_WORD	wordpools/wasnorm_wordpool_576.txt	LTP236	ltpFR2	11	11	SIBLING	1301	n/a	n/a	0	0	0
2340412	REC_WORD	wordpools/wasnorm_wordpool_576.txt	LTP236	ltpFR2	11	11	SISTER	1312	n/a	n/a	0	0	0
2341417	REC_WORD	wordpools/wasnorm_wordpool_576.txt	LTP236	ltpFR2	11	11	BROTHER	179	n/a	n/a	0	0	0
2342250	REC_WORD	wordpools/wasnorm_wordpool_576.txt	LTP236	ltpFR2	11	11	UMPIRE	1535	n/a	n/a	0	0	0
2343019	REC_WORD	wordpools/wasnorm_wordpool_576.txt	LTP236	ltpFR2	11	11	FOOTBALL	591	n/a	n/a	0	0	0
2344254	REC_WORD	wordpools/wasnorm_wordpool_576.txt	LTP236	ltpFR2	11	11	HOOK	715	n/a	n/a	0	0	0
2345232	REC_WORD	wordpools/wasnorm_wordpool_576.txt	LTP236	ltpFR2	11	11	FLAG	573	n/a	n/a	0	0	0
2421310	DISTRACTOR	n/a	LTP236	ltpFR2	11	12	n/a	n/a	n/a	n/a	0	0	0
2421310	START	n/a	LTP236	ltpFR2	11	n/a	n/a	n/a	19	n/a	n/a	n/a	n/a
2421343	PROB	n/a	LTP236	ltpFR2	11	n/a	n/a	n/a	19	24	8	7	9
2423495	PROB	n/a	LTP236	ltpFR2	11	n/a	n/a	n/a	19	24	9	7	8
2424745	PROB	n/a	LTP236	ltpFR2	11	n/a	n/a	n/a	19	19	8	3	8
2425813	PROB	n/a	LTP236	ltpFR2	11	n/a	n/a	n/a	19	9	7	1	1
2426630	PROB	n/a	LTP236	ltpFR2	11	n/a	n/a	n/a	19	13	4	2	7
2427681	PROB	n/a	LTP236	ltpFR2	11	n/a	n/a	n/a	19	15	3	8	4
2428682	PROB	n/a	LTP236	ltpFR2	11	n/a	n/a	n/a	19	20	7	7	6
2430117	PROB	n/a	LTP236	ltpFR2	11	n/a	n/a	n/a	19	17	8	3	6
2431152	PROB	n/a	LTP236	ltpFR2	11	n/a	n/a	n/a	19	13	9	2	2
2432253	PROB	n/a	LTP236	ltpFR2	11	n/a	n/a	n/a	19	21	6	6	9
2434804	PROB	n/a	LTP236	ltpFR2	11	n/a	n/a	n/a	19	15	4	5	6
2435821	PROB	n/a	LTP236	ltpFR2	11	n/a	n/a	n/a	19	8	3	2	3
2436789	PROB	n/a	LTP236	ltpFR2	11	n/a	n/a	n/a	19	12	3	3	9
2437840	PROB	n/a	LTP236	ltpFR2	11	n/a	n/a	n/a	19	9	4	1	4
2438874	PROB	n/a	LTP236	ltpFR2	11	n/a	n/a	n/a	19	11	1	9	1
2439825	PROB	n/a	LTP236	ltpFR2	11	n/a	n/a	n/a	19	12	3	3	6
2441144	PROB	n/a	LTP236	ltpFR2	11	n/a	n/a	n/a	19	21	9	9	3
2442228	PROB	n/a	LTP236	ltpFR2	11	n/a	n/a	n/a	19	21	6	8	7
2443312	PROB	n/a	LTP236	ltpFR2	11	n/a	n/a	n/a	19	13	2	2	9
2444236	STOP	n/a	LTP236	ltpFR2	11	n/a	n/a	n/a	19	n/a	n/a	n/a	n/a
2446215	WORD	wordpools/wasnorm_wordpool_576.txt	LTP236	ltpFR2	11	12	GROUND	666	n/a	n/a	0	0	0
2448749	WORD	wordpools/wasnorm_wordpool_576.txt	LTP236	ltpFR2	11	12	THRONE	1461	n/a	n/a	0	0	0
2451352	WORD	wordpools/wasnorm_wordpool_576.txt	LTP236	ltpFR2	11	12	BISON	131	n/a	n/a	0	0	0
2453820	WORD	wordpools/wasnorm_wordpool_576.txt	LTP236	ltpFR2	11	12	LIPSTICK	829	n/a	n/a	0	0	0
2456440	WORD	wordpools/wasnorm_wordpool_576.txt	LTP236	ltpFR2	11	12	HORSE	719	n/a	n/a	0	0	0
2459209	WORD	wordpools/wasnorm_wordpool_576.txt	LTP236	ltpFR2	11	12	BUBBLE	183	n/a	n/a	0	0	0
2461977	WORD	wordpools/wasnorm_wordpool_576.txt	LTP236	ltpFR2	11	12	DENTIST	447	n/a	n/a	0	0	0
2464431	WORD	wordpools/wasnorm_wordpool_576.txt	LTP236	ltpFR2	11	12	PIGMENT	1066	n/a	n/a	0	0	0
2466982	WORD	wordpools/wasnorm_wordpool_576.txt	LTP236	ltpFR2	11	12	WASP	1593	n/a	n/a	0	0	0
2469452	WORD	wordpools/wasnorm_wordpool_576.txt	LTP236	ltpFR2	11	12	QUAIL	1147	n/a	n/a	0	0	0
2472036	WORD	wordpools/wasnorm_wordpool_576.txt	LTP236	ltpFR2	11	12	LACE	792	n/a	n/a	0	0	0
2474622	WORD	wordpools/wasnorm_wordpool_576.txt	LTP236	ltpFR2	11	12	CHIPMUNK	304	n/a	n/a	0	0	0
2477125	WORD	wordpools/wasnorm_wordpool_576.txt	LTP236	ltpFR2	11	12	FLUTE	585	n/a	n/a	0	0	0
2479709	WORD	wordpools/wasnorm_wordpool_576.txt	LTP236	ltpFR2	11	12	CROSS	413	n/a	n/a	0	0	0
2482163	WORD	wordpools/wasnorm_wordpool_576.txt	LTP236	ltpFR2	11	12	GOBLIN	645	n/a	n/a	0	0	0
2484630	WORD	wordpools/wasnorm_wordpool_576.txt	LTP236	ltpFR2	11	12	OX	994	n/a	n/a	0	0	0
2487084	WORD	wordpools/wasnorm_wordpool_576.txt	LTP236	ltpFR2	11	12	EUROPE	541	n/a	n/a	0	0	0
2489635	WORD	wordpools/wasnorm_wordpool_576.txt	LTP236	ltpFR2	11	12	JAPAN	749	n/a	n/a	0	0	0
2492188	WORD	wordpools/wasnorm_wordpool_576.txt	LTP236	ltpFR2	11	12	BURGLAR	200	n/a	n/a	0	0	0
2494906	WORD	wordpools/wasnorm_wordpool_576.txt	LTP236	ltpFR2	11	12	OUTLAW	989	n/a	n/a	0	0	0
2497725	WORD	wordpools/wasnorm_wordpool_576.txt	LTP236	ltpFR2	11	12	STICKER	1382	n/a	n/a	0	0	0
2500178	WORD	wordpools/wasnorm_wordpool_576.txt	LTP236	ltpFR2	11	12	STALLION	1369	n/a	n/a	0	0	0
2502830	WORD	wordpools/wasnorm_wordpool_576.txt	LTP236	ltpFR2	11	12	PADDLE	1000	n/a	n/a	0	0	0
2505449	WORD	wordpools/wasnorm_wordpool_576.txt	LTP236	ltpFR2	11	12	SWIMMER	1420	n/a	n/a	0	0	0
2507067	START	n/a	LTP236	ltpFR2	11	n/a	n/a	n/a	20	n/a	n/a	n/a	n/a
2508109	DISTRACTOR	n/a	LTP236	ltpFR2	11	12	n/a	n/a	n/a	n/a	0	0	0
2508119	PROB	n/a	LTP236	ltpFR2	11	n/a	n/a	n/a	20	18	5	6	7
2510036	PROB	n/a	LTP236	ltpFR2	11	n/a	n/a	n/a	20	15	5	9	1
2512272	PROB	n/a	LTP236	ltpFR2	11	n/a	n/a	n/a	20	14	5	8	1
2514241	PROB	n/a	LTP236	ltpFR2	11	n/a	n/a	n/a	20	19	4	6	9
2516192	PROB	n/a	LTP236	ltpFR2	11	n/a	n/a	n/a	20	26	8	9	9
2518760	PROB	n/a	LTP236	ltpFR2	11	n/a	n/a	n/a	20	11	3	3	5
2519728	PROB	n/a	LTP236	ltpFR2	11	n/a	n/a	n/a	20	12	1	7	4
2521012	PROB	n/a	LTP236	ltpFR2	11	n/a	n/a	n/a	20	11	8	1	2
2522298	PROB	n/a	LTP236	ltpFR2	11	n/a	n/a	n/a	20	13	1	4	8
2523198	PROB	n/a	LTP236	ltpFR2	11	n/a	n/a	n/a	20	15	4	4	7
2524233	PROB	n/a	LTP236	ltpFR2	11	n/a	n/a	n/a	20	23	8	9	6
2525733	PROB	n/a	LTP236	ltpFR2	11	n/a	n/a	n/a	20	20	7	6	7
2527469	PROB	n/a	LTP236	ltpFR2	11	n/a	n/a	n/a	20	16	8	3	5
2528836	PROB	n/a	LTP236	ltpFR2	11	n/a	n/a	n/a	20	13	7	1	5
2530295	STOP	n/a	LTP236	ltpFR2	11	n/a	n/a	n/a	20	n/a	n/a	n/a	n/a
2532973	REC_START	n/a	LTP236	ltpFR2	11	12	n/a	n/a	n/a	n/a	0	0	0
2533773	REC_WORD	wordpools/wasnorm_wordpool_576.txt	LTP236	ltpFR2	11	12	PADDLE	1000	n/a	n/a	0	0	0
2534383	REC_WORD	wordpools/wasnorm_wordpool_576.txt	LTP236	ltpFR2	11	12	SWIMMER	1420	n/a	n/a	0	0	0
2535401	REC_WORD	wordpools/wasnorm_wordpool_576.txt	LTP236	ltpFR2	11	12	BURGLAR	200	n/a	n/a	0	0	0
2536198	REC_WORD	wordpools/wasnorm_wordpool_576.txt	LTP236	ltpFR2	11	12	OX	994	n/a	n/a	0	0	0
2536914	REC_WORD	wordpools/wasnorm_wordpool_576.txt	LTP236	ltpFR2	11	12	BISON	131	n/a	n/a	0	0	0
2537546	REC_WORD	wordpools/wasnorm_wordpool_576.txt	LTP236	ltpFR2	11	12	STALLION	1369	n/a	n/a	0	0	0
2538503	REC_WORD	wordpools/wasnorm_wordpool_576.txt	LTP236	ltpFR2	11	12	QUAIL	1147	n/a	n/a	0	0	0
2539242	REC_WORD	wordpools/wasnorm_wordpool_576.txt	LTP236	ltpFR2	11	12	CHIPMUNK	304	n/a	n/a	0	0	0
2540078	REC_WORD	wordpools/wasnorm_wordpool_576.txt	LTP236	ltpFR2	11	12	CROSS	413	n/a	n/a	0	0	0
2541404	REC_WORD	wordpools/wasnorm_wordpool_576.txt	LTP236	ltpFR2	11	12	LACE	792	n/a	n/a	0	0	0
2542078	REC_WORD	wordpools/wasnorm_wordpool_576.txt	LTP236	ltpFR2	11	12	EUROPE	541	n/a	n/a	0	0	0
2542716	REC_WORD	wordpools/wasnorm_wordpool_576.txt	LTP236	ltpFR2	11	12	JAPAN	749	n/a	n/a	0	0	0
2543721	REC_WORD	wordpools/wasnorm_wordpool_576.txt	LTP236	ltpFR2	11	12	DENTIST	447	n/a	n/a	0	0	0
2546928	REC_WORD	wordpools/wasnorm_wordpool_576.txt	LTP236	ltpFR2	11	12	BUBBLE	183	n/a	n/a	0	0	0
2548726	REC_WORD	wordpools/wasnorm_wordpool_576.txt	LTP236	ltpFR2	11	12	LIPSTICK	829	n/a	n/a	0	0	0
2552960	REC_WORD	wordpools/wasnorm_wordpool_576.txt	LTP236	ltpFR2	11	12	STICKER	1382	n/a	n/a	0	0	0
2597250	REC_WORD	wordpools/wasnorm_wordpool_576.txt	LTP236	ltpFR2	11	12	GROUND	666	n/a	n/a	0	0	0
2601613	REC_WORD	wordpools/wasnorm_wordpool_576.txt	LTP236	ltpFR2	11	12	PADDLE	1000	n/a	n/a	0	0	0
2623618	WORD	wordpools/wasnorm_wordpool_576.txt	LTP236	ltpFR2	11	13	ITEM	746	n/a	n/a	0	0	0
2626121	WORD	wordpools/wasnorm_wordpool_576.txt	LTP236	ltpFR2	11	13	CEILING	265	n/a	n/a	0	0	0
2628956	WORD	wordpools/wasnorm_wordpool_576.txt	LTP236	ltpFR2	11	13	LEADER	807	n/a	n/a	0	0	0
2631509	WORD	wordpools/wasnorm_wordpool_576.txt	LTP236	ltpFR2	11	13	PLAZA	1088	n/a	n/a	0	0	0
2634178	WORD	wordpools/wasnorm_wordpool_576.txt	LTP236	ltpFR2	11	13	BOARD	143	n/a	n/a	0	0	0
2636963	WORD	wordpools/wasnorm_wordpool_576.txt	LTP236	ltpFR2	11	13	PAIL	1002	n/a	n/a	0	0	0
2639416	WORD	wordpools/wasnorm_wordpool_576.txt	LTP236	ltpFR2	11	13	MARINE	869	n/a	n/a	0	0	0
2642235	WORD	wordpools/wasnorm_wordpool_576.txt	LTP236	ltpFR2	11	13	HUMAN	726	n/a	n/a	0	0	0
2644903	WORD	wordpools/wasnorm_wordpool_576.txt	LTP236	ltpFR2	11	13	SCARECROW	1245	n/a	n/a	0	0	0
2647656	WORD	wordpools/wasnorm_wordpool_576.txt	LTP236	ltpFR2	11	13	PIGEON	1065	n/a	n/a	0	0	0
2650159	WORD	wordpools/wasnorm_wordpool_576.txt	LTP236	ltpFR2	11	13	COUNTRY	388	n/a	n/a	0	0	0
2652877	WORD	wordpools/wasnorm_wordpool_576.txt	LTP236	ltpFR2	11	13	LEOPARD	812	n/a	n/a	0	0	0
2655646	WORD	wordpools/wasnorm_wordpool_576.txt	LTP236	ltpFR2	11	13	TERMITE	1451	n/a	n/a	0	0	0
2658183	WORD	wordpools/wasnorm_wordpool_576.txt	LTP236	ltpFR2	11	13	COUNTY	389	n/a	n/a	0	0	0
2660934	WORD	wordpools/wasnorm_wordpool_576.txt	LTP236	ltpFR2	11	13	SERVER	1272	n/a	n/a	0	0	0
2663404	WORD	wordpools/wasnorm_wordpool_576.txt	LTP236	ltpFR2	11	13	SHORTS	1293	n/a	n/a	0	0	0
2666022	WORD	wordpools/wasnorm_wordpool_576.txt	LTP236	ltpFR2	11	13	SWAMP	1416	n/a	n/a	0	0	0
2668657	WORD	wordpools/wasnorm_wordpool_576.txt	LTP236	ltpFR2	11	13	MARSH	874	n/a	n/a	0	0	0
2671428	WORD	wordpools/wasnorm_wordpool_576.txt	LTP236	ltpFR2	11	13	ANKLE	24	n/a	n/a	0	0	0
2674029	WORD	wordpools/wasnorm_wordpool_576.txt	LTP236	ltpFR2	11	13	HAND	683	n/a	n/a	0	0	0
2676681	WORD	wordpools/wasnorm_wordpool_576.txt	LTP236	ltpFR2	11	13	DONOR	485	n/a	n/a	0	0	0
2679184	WORD	wordpools/wasnorm_wordpool_576.txt	LTP236	ltpFR2	11	13	MAPLE	866	n/a	n/a	0	0	0
2681735	WORD	wordpools/wasnorm_wordpool_576.txt	LTP236	ltpFR2	11	13	BRICK	172	n/a	n/a	0	0	0
2684355	WORD	wordpools/wasnorm_wordpool_576.txt	LTP236	ltpFR2	11	13	LION	827	n/a	n/a	0	0	0
2685973	START	n/a	LTP236	ltpFR2	11	n/a	n/a	n/a	21	n/a	n/a	n/a	n/a
2687001	DISTRACTOR	n/a	LTP236	ltpFR2	11	13	n/a	n/a	n/a	n/a	0	0	0
2687007	PROB	n/a	LTP236	ltpFR2	11	n/a	n/a	n/a	21	18	5	4	9
2689360	PROB	n/a	LTP236	ltpFR2	11	n/a	n/a	n/a	21	27	9	9	9
2691245	PROB	n/a	LTP236	ltpFR2	11	n/a	n/a	n/a	21	9	7	1	1
2692095	PROB	n/a	LTP236	ltpFR2	11	n/a	n/a	n/a	21	17	1	8	8
2693463	PROB	n/a	LTP236	ltpFR2	11	n/a	n/a	n/a	21	10	8	1	1
2694397	PROB	n/a	LTP236	ltpFR2	11	n/a	n/a	n/a	21	14	6	6	2
2695465	PROB	n/a	LTP236	ltpFR2	11	n/a	n/a	n/a	21	16	7	6	3
2696516	PROB	n/a	LTP236	ltpFR2	11	n/a	n/a	n/a	21	17	6	4	7
2697550	PROB	n/a	LTP236	ltpFR2	11	n/a	n/a	n/a	21	15	9	5	1
2698568	PROB	n/a	LTP236	ltpFR2	11	n/a	n/a	n/a	21	21	8	6	7
2699685	PROB	n/a	LTP236	ltpFR2	11	n/a	n/a	n/a	21	18	6	7	5
2700719	PROB	n/a	LTP236	ltpFR2	11	n/a	n/a	n/a	21	19	6	9	4
2702354	PROB	n/a	LTP236	ltpFR2	11	n/a	n/a	n/a	21	15	7	2	6
2703821	PROB	n/a	LTP236	ltpFR2	11	n/a	n/a	n/a	21	19	8	2	9
2704839	PROB	n/a	LTP236	ltpFR2	11	n/a	n/a	n/a	21	23	9	7	7
2706774	PROB	n/a	LTP236	ltpFR2	11	n/a	n/a	n/a	21	24	8	9	7
2708629	STOP	n/a	LTP236	ltpFR2	11	n/a	n/a	n/a	21	n/a	n/a	n/a	n/a
2711862	REC_START	n/a	LTP236	ltpFR2	11	13	n/a	n/a	n/a	n/a	0	0	0
2712851	REC_WORD	wordpools/wasnorm_wordpool_576.txt	LTP236	ltpFR2	11	13	LION	827	n/a	n/a	0	0	0
2713823	REC_WORD	wordpools/wasnorm_wordpool_576.txt	LTP236	ltpFR2	11	13	LEOPARD	812	n/a	n/a	0	0	0
2715177	REC_WORD	wordpools/wasnorm_wordpool_576.txt	LTP236	ltpFR2	11	13	SCARECROW	1245	n/a	n/a	0	0	0
2716899	REC_WORD	wordpools/wasnorm_wordpool_576.txt	LTP236	ltpFR2	11	13	DONOR	485	n/a	n/a	0	0	0
2718168	REC_WORD	wordpools/wasnorm_wordpool_576.txt	LTP236	ltpFR2	11	13	SWAMP	1416	n/a	n/a	0	0	0
2719314	REC_WORD	wordpools/wasnorm_wordpool_576.txt	LTP236	ltpFR2	11	13	MARSH	874	n/a	n/a	0	0	0
2720273	REC_WORD	wordpools/wasnorm_wordpool_576.txt	LTP236	ltpFR2	11	13	COUNTY	389	n/a	n/a	0	0	0
2721172	REC_WORD	wordpools/wasnorm_wordpool_576.txt	LTP236	ltpFR2	11	13	COUNTRY	388	n/a	n/a	0	0	0
2722987	REC_WORD	wordpools/wasnorm_wordpool_576.txt	LTP236	ltpFR2	11	13	HUMAN	726	n/a	n/a	0	0	0
2724095	REC_WORD	wordpools/wasnorm_wordpool_576.txt	LTP236	ltpFR2	11	13	MARINE	869	n/a	n/a	0	0	0
2725289	REC_WORD	wordpools/wasnorm_wordpool_576.txt	LTP236	ltpFR2	11	13	LEADER	807	n/a	n/a	0	0	0
2726196	REC_WORD	wordpools/wasnorm_wordpool_576.txt	LTP236	ltpFR2	11	13	BOARD	143	n/a	n/a	0	0	0
2727451	REC_WORD	wordpools/wasnorm_wordpool_576.txt	LTP236	ltpFR2	11	13	BRICK	172	n/a	n/a	0	0	0
2728518	REC_WORD	wordpools/wasnorm_wordpool_576.txt	LTP236	ltpFR2	11	13	CEILING	265	n/a	n/a	0	0	0
2731180	REC_WORD	wordpools/wasnorm_wordpool_576.txt	LTP236	ltpFR2	11	13	ITEM	746	n/a	n/a	0	0	0
2733706	REC_WORD	wordpools/wasnorm_wordpool_576.txt	LTP236	ltpFR2	11	13	BUCKET	184	n/a	n/a	0	0	0
2739146	REC_WORD	wordpools/wasnorm_wordpool_576.txt	LTP236	ltpFR2	11	13	PLAZA	1088	n/a	n/a	0	0	0
2764015	REC_WORD	wordpools/wasnorm_wordpool_576.txt	LTP236	ltpFR2	11	13	ANKLE	24	n/a	n/a	0	0	0
2764851	REC_WORD	wordpools/wasnorm_wordpool_576.txt	LTP236	ltpFR2	11	13	HAND	683	n/a	n/a	0	0	0
2802508	WORD	wordpools/wasnorm_wordpool_576.txt	LTP236	ltpFR2	11	14	BADGE	68	n/a	n/a	0	0	0
2805261	WORD	wordpools/wasnorm_wordpool_576.txt	LTP236	ltpFR2	11	14	SIDEWALK	1303	n/a	n/a	0	0	0
2808062	WORD	wordpools/wasnorm_wordpool_576.txt	LTP236	ltpFR2	11	14	TRIBE	1505	n/a	n/a	0	0	0
2810898	WORD	wordpools/wasnorm_wordpool_576.txt	LTP236	ltpFR2	11	14	OZONE	996	n/a	n/a	0	0	0
2813485	WORD	wordpools/wasnorm_wordpool_576.txt	LTP236	ltpFR2	11	14	POPCORN	1104	n/a	n/a	0	0	0
2816204	WORD	wordpools/wasnorm_wordpool_576.txt	LTP236	ltpFR2	11	14	FILM	565	n/a	n/a	0	0	0
2818988	WORD	wordpools/wasnorm_wordpool_576.txt	LTP236	ltpFR2	11	14	MAILMAN	858	n/a	n/a	0	0	0
2821691	WORD	wordpools/wasnorm_wordpool_576.txt	LTP236	ltpFR2	11	14	PERCH	1048	n/a	n/a	0	0	0
2824427	WORD	wordpools/wasnorm_wordpool_576.txt	LTP236	ltpFR2	11	14	BUGGY	188	n/a	n/a	0	0	0
2827196	WORD	wordpools/wasnorm_wordpool_576.txt	LTP236	ltpFR2	11	14	TAXI	1438	n/a	n/a	0	0	0
2829814	WORD	wordpools/wasnorm_wordpool_576.txt	LTP236	ltpFR2	11	14	PERFUME	1049	n/a	n/a	0	0	0
2832384	WORD	wordpools/wasnorm_wordpool_576.txt	LTP236	ltpFR2	11	14	NAPKIN	937	n/a	n/a	0	0	0
2834952	WORD	wordpools/wasnorm_wordpool_576.txt	LTP236	ltpFR2	11	14	TRENCH	1503	n/a	n/a	0	0	0
2837589	WORD	wordpools/wasnorm_wordpool_576.txt	LTP236	ltpFR2	11	14	SMOG	1330	n/a	n/a	0	0	0
2840325	WORD	wordpools/wasnorm_wordpool_576.txt	LTP236	ltpFR2	11	14	SPOOL	1356	n/a	n/a	0	0	0
2842843	WORD	wordpools/wasnorm_wordpool_576.txt	LTP236	ltpFR2	11	14	FRAGRANCE	599	n/a	n/a	0	0	0
2845512	WORD	wordpools/wasnorm_wordpool_576.txt	LTP236	ltpFR2	11	14	STATUE	1374	n/a	n/a	0	0	0
2848132	WORD	wordpools/wasnorm_wordpool_576.txt	LTP236	ltpFR2	11	14	GALLON	618	n/a	n/a	0	0	0
2850883	WORD	wordpools/wasnorm_wordpool_576.txt	LTP236	ltpFR2	11	14	GREASE	660	n/a	n/a	0	0	0
2853469	WORD	wordpools/wasnorm_wordpool_576.txt	LTP236	ltpFR2	11	14	SUNSET	1408	n/a	n/a	0	0	0
2856122	WORD	wordpools/wasnorm_wordpool_576.txt	LTP236	ltpFR2	11	14	GLOVE	642	n/a	n/a	0	0	0
2858557	WORD	wordpools/wasnorm_wordpool_576.txt	LTP236	ltpFR2	11	14	GRAVEL	659	n/a	n/a	0	0	0
2861210	WORD	wordpools/wasnorm_wordpool_576.txt	LTP236	ltpFR2	11	14	DRAWING	494	n/a	n/a	0	0	0
2863827	WORD	wordpools/wasnorm_wordpool_576.txt	LTP236	ltpFR2	11	14	CRAYON	401	n/a	n/a	0	0	0
2865447	START	n/a	LTP236	ltpFR2	11	n/a	n/a	n/a	22	n/a	n/a	n/a	n/a
2866574	DISTRACTOR	n/a	LTP236	ltpFR2	11	14	n/a	n/a	n/a	n/a	0	0	0
2866597	PROB	n/a	LTP236	ltpFR2	11	n/a	n/a	n/a	22	10	2	1	7
2868416	PROB	n/a	LTP236	ltpFR2	11	n/a	n/a	n/a	22	15	4	3	8
2871034	PROB	n/a	LTP236	ltpFR2	11	n/a	n/a	n/a	22	11	6	1	4
2872519	PROB	n/a	LTP236	ltpFR2	11	n/a	n/a	n/a	22	13	8	4	1
2874288	PROB	n/a	LTP236	ltpFR2	11	n/a	n/a	n/a	22	16	5	6	5
2875372	PROB	n/a	LTP236	ltpFR2	11	n/a	n/a	n/a	22	9	2	3	2
2876490	PROB	n/a	LTP236	ltpFR2	11	n/a	n/a	n/a	22	18	9	1	8
2878308	PROB	n/a	LTP236	ltpFR2	11	n/a	n/a	n/a	22	12	5	3	4
2880476	PROB	n/a	LTP236	ltpFR2	11	n/a	n/a	n/a	22	16	2	5	9
2881577	PROB	n/a	LTP236	ltpFR2	11	n/a	n/a	n/a	22	14	2	7	5
2883362	PROB	n/a	LTP236	ltpFR2	11	n/a	n/a	n/a	22	9	3	1	5
2884679	PROB	n/a	LTP236	ltpFR2	11	n/a	n/a	n/a	22	14	9	2	3
2885713	PROB	n/a	LTP236	ltpFR2	11	n/a	n/a	n/a	22	21	8	8	5
2886931	PROB	n/a	LTP236	ltpFR2	11	n/a	n/a	n/a	22	6	1	4	1
2888118	STOP	n/a	LTP236	ltpFR2	11	n/a	n/a	n/a	22	n/a	n/a	n/a	n/a
2891420	REC_START	n/a	LTP236	ltpFR2	11	14	n/a	n/a	n/a	n/a	0	0	0
2892315	REC_WORD	wordpools/wasnorm_wordpool_576.txt	LTP236	ltpFR2	11	14	DRAWING	494	n/a	n/a	0	0	0
2892885	REC_WORD	wordpools/wasnorm_wordpool_576.txt	LTP236	ltpFR2	11	14	SUNSET	1408	n/a	n/a	0	0	0
2893818	REC_WORD	wordpools/wasnorm_wordpool_576.txt	LTP236	ltpFR2	11	14	CRAYON	401	n/a	n/a	0	0	0
2894758	REC_WORD	wordpools/wasnorm_wordpool_576.txt	LTP236	ltpFR2	11	14	GLOVE	642	n/a	n/a	0	0	0
2896257	REC_WORD	wordpools/wasnorm_wordpool_576.txt	LTP236	ltpFR2	11	14	SIDEWALK	1303	n/a	n/a	0	0	0
2897646	REC_WORD	wordpools/wasnorm_wordpool_576.txt	LTP236	ltpFR2	11	14	SMOG	1330	n/a	n/a	0	0	0
2898549	REC_WORD	wordpools/wasnorm_wordpool_576.txt	LTP236	ltpFR2	11	14	OZONE	996	n/a	n/a	0	0	0
2899281	REC_WORD	wordpools/wasnorm_wordpool_576.txt	LTP236	ltpFR2	11	14	TRIBE	1505	n/a	n/a	0	0	0
2916193	REC_WORD	wordpools/wasnorm_wordpool_576.txt	LTP236	ltpFR2	11	14	MAILMAN	858	n/a	n/a	0	0	0
2919677	REC_WORD	wordpools/wasnorm_wordpool_576.txt	LTP236	ltpFR2	11	14	BUGGY	188	n/a	n/a	0	0	0
2920296	REC_WORD	wordpools/wasnorm_wordpool_576.txt	LTP236	ltpFR2	11	14	TAXI	1438	n/a	n/a	0	0	0
2981880	WORD	wordpools/wasnorm_wordpool_576.txt	LTP236	ltpFR2	11	15	PICTURE	1061	n/a	n/a	0	0	0
2984716	WORD	wordpools/wasnorm_wordpool_576.txt	LTP236	ltpFR2	11	15	LETTUCE	814	n/a	n/a	0	0	0
2987336	WORD	wordpools/wasnorm_wordpool_576.txt	LTP236	ltpFR2	11	15	COWBOY	395	n/a	n/a	0	0	0
2989787	WORD	wordpools/wasnorm_wordpool_576.txt	LTP236	ltpFR2	11	15	MARS	873	n/a	n/a	0	0	0
2992424	WORD	wordpools/wasnorm_wordpool_576.txt	LTP236	ltpFR2	11	15	HANDBAG	684	n/a	n/a	0	0	0
2995042	WORD	wordpools/wasnorm_wordpool_576.txt	LTP236	ltpFR2	11	15	FRANCE	601	n/a	n/a	0	0	0
2997727	WORD	wordpools/wasnorm_wordpool_576.txt	LTP236	ltpFR2	11	15	PISTOL	1075	n/a	n/a	0	0	0
3000264	WORD	wordpools/wasnorm_wordpool_576.txt	LTP236	ltpFR2	11	15	GARBAGE	622	n/a	n/a	0	0	0
3002749	WORD	wordpools/wasnorm_wordpool_576.txt	LTP236	ltpFR2	11	15	TYPIST	1532	n/a	n/a	0	0	0
3005402	WORD	wordpools/wasnorm_wordpool_576.txt	LTP236	ltpFR2	11	15	RELISH	1183	n/a	n/a	0	0	0
3008221	WORD	wordpools/wasnorm_wordpool_576.txt	LTP236	ltpFR2	11	15	BODY	145	n/a	n/a	0	0	0
3011039	WORD	wordpools/wasnorm_wordpool_576.txt	LTP236	ltpFR2	11	15	BEEF	113	n/a	n/a	0	0	0
3013526	WORD	wordpools/wasnorm_wordpool_576.txt	LTP236	ltpFR2	11	15	MEAT	883	n/a	n/a	0	0	0
3016078	WORD	wordpools/wasnorm_wordpool_576.txt	LTP236	ltpFR2	11	15	CELLAR	267	n/a	n/a	0	0	0
3018530	WORD	wordpools/wasnorm_wordpool_576.txt	LTP236	ltpFR2	11	15	PLUTO	1092	n/a	n/a	0	0	0
3021048	WORD	wordpools/wasnorm_wordpool_576.txt	LTP236	ltpFR2	11	15	BUCKET	184	n/a	n/a	0	0	0
3023717	WORD	wordpools/wasnorm_wordpool_576.txt	LTP236	ltpFR2	11	15	STAPLE	1371	n/a	n/a	0	0	0
3026337	WORD	wordpools/wasnorm_wordpool_576.txt	LTP236	ltpFR2	11	15	VENUS	1557	n/a	n/a	0	0	0
3028871	WORD	wordpools/wasnorm_wordpool_576.txt	LTP236	ltpFR2	11	15	SPACE	1345	n/a	n/a	0	0	0
3031408	WORD	wordpools/wasnorm_wordpool_576.txt	LTP236	ltpFR2	11	15	CLOCK	325	n/a	n/a	0	0	0
3033892	WORD	wordpools/wasnorm_wordpool_576.txt	LTP236	ltpFR2	11	15	MARROW	872	n/a	n/a	0	0	0
3036445	WORD	wordpools/wasnorm_wordpool_576.txt	LTP236	ltpFR2	11	15	SUBWAY	1400	n/a	n/a	0	0	0
3039231	WORD	wordpools/wasnorm_wordpool_576.txt	LTP236	ltpFR2	11	15	SANDWICH	1232	n/a	n/a	0	0	0
3041749	WORD	wordpools/wasnorm_wordpool_576.txt	LTP236	ltpFR2	11	15	BARLEY	88	n/a	n/a	0	0	0
3043368	START	n/a	LTP236	ltpFR2	11	n/a	n/a	n/a	23	n/a	n/a	n/a	n/a
3044279	DISTRACTOR	n/a	LTP236	ltpFR2	11	15	n/a	n/a	n/a	n/a	0	0	0
3044302	PROB	n/a	LTP236	ltpFR2	11	n/a	n/a	n/a	23	15	6	8	1
3048473	PROB	n/a	LTP236	ltpFR2	11	n/a	n/a	n/a	23	17	1	7	9
3050241	PROB	n/a	LTP236	ltpFR2	11	n/a	n/a	n/a	23	23	6	9	8
3052842	PROB	n/a	LTP236	ltpFR2	11	n/a	n/a	n/a	23	15	6	7	2
3054660	PROB	n/a	LTP236	ltpFR2	11	n/a	n/a	n/a	23	17	3	5	9
3055778	PROB	n/a	LTP236	ltpFR2	11	n/a	n/a	n/a	23	25	9	8	8
3058314	PROB	n/a	LTP236	ltpFR2	11	n/a	n/a	n/a	23	5	1	2	2
3059265	PROB	n/a	LTP236	ltpFR2	11	n/a	n/a	n/a	23	21	9	9	3
3060832	PROB	n/a	LTP236	ltpFR2	11	n/a	n/a	n/a	23	15	1	6	8
3062168	PROB	n/a	LTP236	ltpFR2	11	n/a	n/a	n/a	23	15	4	9	2
3063185	PROB	n/a	LTP236	ltpFR2	11	n/a	n/a	n/a	23	19	8	4	7
3067367	STOP	n/a	LTP236	ltpFR2	11	n/a	n/a	n/a	23	n/a	n/a	n/a	n/a
3069275	REC_START	n/a	LTP236	ltpFR2	11	15	n/a	n/a	n/a	n/a	0	0	0
3070127	REC_WORD	wordpools/wasnorm_wordpool_576.txt	LTP236	ltpFR2	11	15	SUBWAY	1400	n/a	n/a	0	0	0
3070830	REC_WORD	wordpools/wasnorm_wordpool_576.txt	LTP236	ltpFR2	11	15	SANDWICH	1232	n/a	n/a	0	0	0
3071714	REC_WORD	wordpools/wasnorm_wordpool_576.txt	LTP236	ltpFR2	11	15	MARROW	872	n/a	n/a	0	0	0
3072471	REC_WORD	wordpools/wasnorm_wordpool_576.txt	LTP236	ltpFR2	11	15	BODY	145	n/a	n/a	0	0	0
3075217	REC_WORD	wordpools/wasnorm_wordpool_576.txt	LTP236	ltpFR2	11	15	VENUS	1557	n/a	n/a	0	0	0
3076217	REC_WORD_VV	wordpools/wasnorm_wordpool_576.txt	LTP236	ltpFR2	11	15	<>	-1	n/a	n/a	0	0	0
3077125	REC_WORD	wordpools/wasnorm_wordpool_576.txt	LTP236	ltpFR2	11	15	MARS	873	n/a	n/a	0	0	0
3079618	REC_WORD	wordpools/wasnorm_wordpool_576.txt	LTP236	ltpFR2	11	15	SPACE	1345	n/a	n/a	0	0	0
3080618	REC_WORD_VV	wordpools/wasnorm_wordpool_576.txt	LTP236	ltpFR2	11	15	<>	-1	n/a	n/a	0	0	0
3082054	REC_WORD	wordpools/wasnorm_wordpool_576.txt	LTP236	ltpFR2	11	15	PLUTO	1092	n/a	n/a	0	0	0
3083011	REC_WORD	wordpools/wasnorm_wordpool_576.txt	LTP236	ltpFR2	11	15	FRANCE	601	n/a	n/a	0	0	0
3084098	REC_WORD	wordpools/wasnorm_wordpool_576.txt	LTP236	ltpFR2	11	15	GARBAGE	622	n/a	n/a	0	0	0
3085337	REC_WORD	wordpools/wasnorm_wordpool_576.txt	LTP236	ltpFR2	11	15	BUCKET	184	n/a	n/a	0	0	0
3085949	REC_WORD	wordpools/wasnorm_wordpool_576.txt	LTP236	ltpFR2	11	15	STAPLE	1371	n/a	n/a	0	0	0
3099132	REC_WORD	wordpools/wasnorm_wordpool_576.txt	LTP236	ltpFR2	11	15	COWBOY	395	n/a	n/a	0	0	0
3102830	REC_WORD	wordpools/wasnorm_wordpool_576.txt	LTP236	ltpFR2	11	15	BEEF	113	n/a	n/a	0	0	0
3103742	REC_WORD	wordpools/wasnorm_wordpool_576.txt	LTP236	ltpFR2	11	15	MEAT	883	n/a	n/a	0	0	0
3105573	REC_WORD	wordpools/wasnorm_wordpool_576.txt	LTP236	ltpFR2	11	15	CABBAGE	210	n/a	n/a	0	0	0
3106649	REC_WORD	wordpools/wasnorm_wordpool_576.txt	LTP236	ltpFR2	11	15	RELISH	1183	n/a	n/a	0	0	0
3107499	REC_WORD	wordpools/wasnorm_wordpool_576.txt	LTP236	ltpFR2	11	15	CELLAR	267	n/a	n/a	0	0	0
3123230	REC_WORD	wordpools/wasnorm_wordpool_576.txt	LTP236	ltpFR2	11	15	PICTURE	1061	n/a	n/a	0	0	0
3135703	REC_WORD	wordpools/wasnorm_wordpool_576.txt	LTP236	ltpFR2	11	15	TYPIST	1532	n/a	n/a	0	0	0
3159802	WORD	wordpools/wasnorm_wordpool_576.txt	LTP236	ltpFR2	11	16	GIRL	637	n/a	n/a	0	0	0
3162222	WORD	wordpools/wasnorm_wordpool_576.txt	LTP236	ltpFR2	11	16	BUNNY	198	n/a	n/a	0	0	0
3164956	WORD	wordpools/wasnorm_wordpool_576.txt	LTP236	ltpFR2	11	16	HEART	697	n/a	n/a	0	0	0
3167376	WORD	wordpools/wasnorm_wordpool_576.txt	LTP236	ltpFR2	11	16	TRANSPLANT	1496	n/a	n/a	0	0	0
3170095	WORD	wordpools/wasnorm_wordpool_576.txt	LTP236	ltpFR2	11	16	POWDER	1117	n/a	n/a	0	0	0
3172797	WORD	wordpools/wasnorm_wordpool_576.txt	LTP236	ltpFR2	11	16	GUARD	667	n/a	n/a	0	0	0
3175366	WORD	wordpools/wasnorm_wordpool_576.txt	LTP236	ltpFR2	11	16	SEAL	1262	n/a	n/a	0	0	0
3178034	WORD	wordpools/wasnorm_wordpool_576.txt	LTP236	ltpFR2	11	16	LABEL	790	n/a	n/a	0	0	0
3180703	WORD	wordpools/wasnorm_wordpool_576.txt	LTP236	ltpFR2	11	16	MILDEW	893	n/a	n/a	0	0	0
3183190	WORD	wordpools/wasnorm_wordpool_576.txt	LTP236	ltpFR2	11	16	TABLET	1427	n/a	n/a	0	0	0
3185708	WORD	wordpools/wasnorm_wordpool_576.txt	LTP236	ltpFR2	11	16	TEMPLE	1448	n/a	n/a	0	0	0
3188494	WORD	wordpools/wasnorm_wordpool_576.txt	LTP236	ltpFR2	11	16	SHOVEL	1295	n/a	n/a	0	0	0
3191130	WORD	wordpools/wasnorm_wordpool_576.txt	LTP236	ltpFR2	11	16	NEUTRON	947	n/a	n/a	0	0	0
3193665	WORD	wordpools/wasnorm_wordpool_576.txt	LTP236	ltpFR2	11	16	FLIPPER	580	n/a	n/a	0	0	0
3196134	WORD	wordpools/wasnorm_wordpool_576.txt	LTP236	ltpFR2	11	16	SCOTCH	1251	n/a	n/a	0	0	0
3198686	WORD	wordpools/wasnorm_wordpool_576.txt	LTP236	ltpFR2	11	16	SLUG	1329	n/a	n/a	0	0	0
3201422	WORD	wordpools/wasnorm_wordpool_576.txt	LTP236	ltpFR2	11	16	SHIRT	1287	n/a	n/a	0	0	0
3203890	WORD	wordpools/wasnorm_wordpool_576.txt	LTP236	ltpFR2	11	16	ATOM	55	n/a	n/a	0	0	0
3206726	WORD	wordpools/wasnorm_wordpool_576.txt	LTP236	ltpFR2	11	16	GAZELLE	628	n/a	n/a	0	0	0
3209396	WORD	wordpools/wasnorm_wordpool_576.txt	LTP236	ltpFR2	11	16	TUBA	1515	n/a	n/a	0	0	0
3212064	WORD	wordpools/wasnorm_wordpool_576.txt	LTP236	ltpFR2	11	16	RADISH	1158	n/a	n/a	0	0	0
3214683	WORD	wordpools/wasnorm_wordpool_576.txt	LTP236	ltpFR2	11	16	CHILD	299	n/a	n/a	0	0	0
3217436	WORD	wordpools/wasnorm_wordpool_576.txt	LTP236	ltpFR2	11	16	INFANT	737	n/a	n/a	0	0	0
3220004	WORD	wordpools/wasnorm_wordpool_576.txt	LTP236	ltpFR2	11	16	RABBIT	1152	n/a	n/a	0	0	0
3221623	START	n/a	LTP236	ltpFR2	11	n/a	n/a	n/a	24	n/a	n/a	n/a	n/a
3222623	DISTRACTOR	n/a	LTP236	ltpFR2	11	16	n/a	n/a	n/a	n/a	0	0	0
3222640	PROB	n/a	LTP236	ltpFR2	11	n/a	n/a	n/a	24	18	9	3	6
3226627	PROB	n/a	LTP236	ltpFR2	11	n/a	n/a	n/a	24	10	1	7	2
3227694	PROB	n/a	LTP236	ltpFR2	11	n/a	n/a	n/a	24	12	4	5	3
3228745	PROB	n/a	LTP236	ltpFR2	11	n/a	n/a	n/a	24	11	4	3	4
3230398	PROB	n/a	LTP236	ltpFR2	11	n/a	n/a	n/a	24	13	4	6	3
3232500	PROB	n/a	LTP236	ltpFR2	11	n/a	n/a	n/a	24	15	3	5	7
3234033	PROB	n/a	LTP236	ltpFR2	11	n/a	n/a	n/a	24	21	6	8	7
3237104	PROB	n/a	LTP236	ltpFR2	11	n/a	n/a	n/a	24	24	7	8	9
3238355	PROB	n/a	LTP236	ltpFR2	11	n/a	n/a	n/a	24	23	6	9	8
3241174	PROB	n/a	LTP236	ltpFR2	11	n/a	n/a	n/a	24	13	3	2	8
3243342	PROB	n/a	LTP236	ltpFR2	11	n/a	n/a	n/a	24	18	7	9	2
3244915	STOP	n/a	LTP236	ltpFR2	11	n/a	n/a	n/a	24	n/a	n/a	n/a	n/a
3247413	REC_START	n/a	LTP236	ltpFR2	11	16	n/a	n/a	n/a	n/a	0	0	0
3248107	REC_WORD	wordpools/wasnorm_wordpool_576.txt	LTP236	ltpFR2	11	16	RABBIT	1152	n/a	n/a	0	0	0
3248884	REC_WORD	wordpools/wasnorm_wordpool_576.txt	LTP236	ltpFR2	11	16	RADISH	1158	n/a	n/a	0	0	0
3249691	REC_WORD	wordpools/wasnorm_wordpool_576.txt	LTP236	ltpFR2	11	16	BUNNY	198	n/a	n/a	0	0	0
3250244	REC_WORD	wordpools/wasnorm_wordpool_576.txt	LTP236	ltpFR2	11	16	CHILD	299	n/a	n/a	0	0	0
3251023	REC_WORD	wordpools/wasnorm_wordpool_576.txt	LTP236	ltpFR2	11	16	INFANT	737	n/a	n/a	0	0	0
3251685	REC_WORD	wordpools/wasnorm_wordpool_576.txt	LTP236	ltpFR2	11	16	SHIRT	1287	n/a	n/a	0	0	0
3254217	REC_WORD	wordpools/wasnorm_wordpool_576.txt	LTP236	ltpFR2	11	16	GUARD	667	n/a	n/a	0	0	0
3255184	REC_WORD	wordpools/wasnorm_wordpool_576.txt	LTP236	ltpFR2	11	16	LABEL	790	n/a	n/a	0	0	0
3259277	REC_WORD	wordpools/wasnorm_wordpool_576.txt	LTP236	ltpFR2	11	16	NEUTRON	947	n/a	n/a	0	0	0
3261171	REC_WORD	wordpools/wasnorm_wordpool_576.txt	LTP236	ltpFR2	11	16	ATOM	55	n/a	n/a	0	0	0
3266294	REC_WORD	wordpools/wasnorm_wordpool_576.txt	LTP236	ltpFR2	11	16	GAZELLE	628	n/a	n/a	0	0	0
3267127	REC_WORD	wordpools/wasnorm_wordpool_576.txt	LTP236	ltpFR2	11	16	SLUG	1329	n/a	n/a	0	0	0
3275758	REC_WORD	wordpools/wasnorm_wordpool_576.txt	LTP236	ltpFR2	11	16	GIRL	637	n/a	n/a	0	0	0
3281967	REC_WORD	wordpools/wasnorm_wordpool_576.txt	LTP236	ltpFR2	11	16	HEART	697	n/a	n/a	0	0	0
3282853	REC_WORD	wordpools/wasnorm_wordpool_576.txt	LTP236	ltpFR2	11	16	TRANSPLANT	1496	n/a	n/a	0	0	0
3323962	REST_REWET	n/a	LTP236	ltpFR2	11	16	n/a	n/a	n/a	n/a	0	0	0
3611712	DISTRACTOR	n/a	LTP236	ltpFR2	11	17	n/a	n/a	n/a	n/a	0	0	0
3611712	START	n/a	LTP236	ltpFR2	11	n/a	n/a	n/a	25	n/a	n/a	n/a	n/a
3611746	PROB	n/a	LTP236	ltpFR2	11	n/a	n/a	n/a	25	10	2	7	1
3613548	PROB	n/a	LTP236	ltpFR2	11	n/a	n/a	n/a	25	17	6	7	4
3614831	PROB	n/a	LTP236	ltpFR2	11	n/a	n/a	n/a	25	14	4	7	3
3617000	PROB	n/a	LTP236	ltpFR2	11	n/a	n/a	n/a	25	25	8	8	9
3619336	PROB	n/a	LTP236	ltpFR2	11	n/a	n/a	n/a	25	17	6	9	2
3621088	PROB	n/a	LTP236	ltpFR2	11	n/a	n/a	n/a	25	15	3	6	6
3622855	PROB	n/a	LTP236	ltpFR2	11	n/a	n/a	n/a	25	16	6	7	3
3624341	PROB	n/a	LTP236	ltpFR2	11	n/a	n/a	n/a	25	17	9	5	3
3625508	PROB	n/a	LTP236	ltpFR2	11	n/a	n/a	n/a	25	19	7	9	3
3626642	PROB	n/a	LTP236	ltpFR2	11	n/a	n/a	n/a	25	10	6	3	1
3627659	PROB	n/a	LTP236	ltpFR2	11	n/a	n/a	n/a	25	12	7	2	3
3629661	PROB	n/a	LTP236	ltpFR2	11	n/a	n/a	n/a	25	11	3	1	7
3630679	PROB	n/a	LTP236	ltpFR2	11	n/a	n/a	n/a	25	9	2	6	1
3635712	STOP	n/a	LTP236	ltpFR2	11	n/a	n/a	n/a	25	n/a	n/a	n/a	n/a
3636901	WORD	wordpools/wasnorm_wordpool_576.txt	LTP236	ltpFR2	11	17	VAGRANT	1544	n/a	n/a	0	0	0
3639604	WORD	wordpools/wasnorm_wordpool_576.txt	LTP236	ltpFR2	11	17	CORAL	378	n/a	n/a	0	0	0
3642123	WORD	wordpools/wasnorm_wordpool_576.txt	LTP236	ltpFR2	11	17	SPOON	1357	n/a	n/a	0	0	0
3644724	WORD	wordpools/wasnorm_wordpool_576.txt	LTP236	ltpFR2	11	17	APRON	35	n/a	n/a	0	0	0
3647327	WORD	wordpools/wasnorm_wordpool_576.txt	LTP236	ltpFR2	11	17	VIKING	1565	n/a	n/a	0	0	0
3649762	WORD	wordpools/wasnorm_wordpool_576.txt	LTP236	ltpFR2	11	17	DRAGON	492	n/a	n/a	0	0	0
3652215	WORD	wordpools/wasnorm_wordpool_576.txt	LTP236	ltpFR2	11	17	SHOULDER	1294	n/a	n/a	0	0	0
3654950	WORD	wordpools/wasnorm_wordpool_576.txt	LTP236	ltpFR2	11	17	NOMAD	955	n/a	n/a	0	0	0
3657652	WORD	wordpools/wasnorm_wordpool_576.txt	LTP236	ltpFR2	11	17	WIFE	1609	n/a	n/a	0	0	0
3660305	WORD	wordpools/wasnorm_wordpool_576.txt	LTP236	ltpFR2	11	17	WOMAN	1620	n/a	n/a	0	0	0
3662773	WORD	wordpools/wasnorm_wordpool_576.txt	LTP236	ltpFR2	11	17	SALAD	1224	n/a	n/a	0	0	0
3665410	WORD	wordpools/wasnorm_wordpool_576.txt	LTP236	ltpFR2	11	17	MEDAL	885	n/a	n/a	0	0	0
3668095	WORD	wordpools/wasnorm_wordpool_576.txt	LTP236	ltpFR2	11	17	ELBOW	520	n/a	n/a	0	0	0
3670847	WORD	wordpools/wasnorm_wordpool_576.txt	LTP236	ltpFR2	11	17	SPARROW	1347	n/a	n/a	0	0	0
3673400	WORD	wordpools/wasnorm_wordpool_576.txt	LTP236	ltpFR2	11	17	NURSE	963	n/a	n/a	0	0	0
3675901	WORD	wordpools/wasnorm_wordpool_576.txt	LTP236	ltpFR2	11	17	PARSLEY	1016	n/a	n/a	0	0	0
3678704	WORD	wordpools/wasnorm_wordpool_576.txt	LTP236	ltpFR2	11	17	SHERIFF	1284	n/a	n/a	0	0	0
3681507	WORD	wordpools/wasnorm_wordpool_576.txt	LTP236	ltpFR2	11	17	PATROL	1027	n/a	n/a	0	0	0
3684210	WORD	wordpools/wasnorm_wordpool_576.txt	LTP236	ltpFR2	11	17	CHEMIST	292	n/a	n/a	0	0	0
3687028	WORD	wordpools/wasnorm_wordpool_576.txt	LTP236	ltpFR2	11	17	FLASK	576	n/a	n/a	0	0	0
3689598	WORD	wordpools/wasnorm_wordpool_576.txt	LTP236	ltpFR2	11	17	COLLEGE	346	n/a	n/a	0	0	0
3692065	WORD	wordpools/wasnorm_wordpool_576.txt	LTP236	ltpFR2	11	17	PILOT	1070	n/a	n/a	0	0	0
3694618	WORD	wordpools/wasnorm_wordpool_576.txt	LTP236	ltpFR2	11	17	FIREMAN	569	n/a	n/a	0	0	0
3697070	WORD	wordpools/wasnorm_wordpool_576.txt	LTP236	ltpFR2	11	17	PUPIL	1143	n/a	n/a	0	0	0
3698688	START	n/a	LTP236	ltpFR2	11	n/a	n/a	n/a	26	n/a	n/a	n/a	n/a
3699616	DISTRACTOR	n/a	LTP236	ltpFR2	11	17	n/a	n/a	n/a	n/a	0	0	0
3699622	PROB	n/a	LTP236	ltpFR2	11	n/a	n/a	n/a	26	15	3	3	9
3701807	PROB	n/a	LTP236	ltpFR2	11	n/a	n/a	n/a	26	20	6	5	9
3703393	PROB	n/a	LTP236	ltpFR2	11	n/a	n/a	n/a	26	16	8	5	3
3704960	PROB	n/a	LTP236	ltpFR2	11	n/a	n/a	n/a	26	21	4	9	8
3707130	PROB	n/a	LTP236	ltpFR2	11	n/a	n/a	n/a	26	10	5	1	4
3708347	PROB	n/a	LTP236	ltpFR2	11	n/a	n/a	n/a	26	13	7	1	5
3709931	PROB	n/a	LTP236	ltpFR2	11	n/a	n/a	n/a	26	11	4	2	5
3710965	PROB	n/a	LTP236	ltpFR2	11	n/a	n/a	n/a	26	14	3	7	4
3711866	PROB	n/a	LTP236	ltpFR2	11	n/a	n/a	n/a	26	19	2	8	9
3712817	PROB	n/a	LTP236	ltpFR2	11	n/a	n/a	n/a	26	12	3	3	6
3713868	PROB	n/a	LTP236	ltpFR2	11	n/a	n/a	n/a	26	16	2	5	9
3714869	PROB	n/a	LTP236	ltpFR2	11	n/a	n/a	n/a	26	19	2	9	8
3716221	PROB	n/a	LTP236	ltpFR2	11	n/a	n/a	n/a	26	9	5	3	1
3717138	PROB	n/a	LTP236	ltpFR2	11	n/a	n/a	n/a	26	15	6	3	6
3718922	PROB	n/a	LTP236	ltpFR2	11	n/a	n/a	n/a	26	18	7	9	2
3720006	PROB	n/a	LTP236	ltpFR2	11	n/a	n/a	n/a	26	21	9	4	8
3721074	PROB	n/a	LTP236	ltpFR2	11	n/a	n/a	n/a	26	12	8	2	2
3722262	STOP	n/a	LTP236	ltpFR2	11	n/a	n/a	n/a	26	n/a	n/a	n/a	n/a
3724462	REC_START	n/a	LTP236	ltpFR2	11	17	n/a	n/a	n/a	n/a	0	0	0
3725124	REC_WORD	wordpools/wasnorm_wordpool_576.txt	LTP236	ltpFR2	11	17	PUPIL	1143	n/a	n/a	0	0	0
3725908	REC_WORD	wordpools/wasnorm_wordpool_576.txt	LTP236	ltpFR2	11	17	COLLEGE	346	n/a	n/a	0	0	0
3726740	REC_WORD	wordpools/wasnorm_wordpool_576.txt	LTP236	ltpFR2	11	17	SHERIFF	1284	n/a	n/a	0	0	0
3727635	REC_WORD	wordpools/wasnorm_wordpool_576.txt	LTP236	ltpFR2	11	17	FIREMAN	569	n/a	n/a	0	0	0
3728540	REC_WORD	wordpools/wasnorm_wordpool_576.txt	LTP236	ltpFR2	11	17	PATROL	1027	n/a	n/a	0	0	0
3739401	REC_WORD	wordpools/wasnorm_wordpool_576.txt	LTP236	ltpFR2	11	17	VAGRANT	1544	n/a	n/a	0	0	0
3740401	REC_WORD_VV	wordpools/wasnorm_wordpool_576.txt	LTP236	ltpFR2	11	17	<>	-1	n/a	n/a	0	0	0
3742975	REC_WORD	wordpools/wasnorm_wordpool_576.txt	LTP236	ltpFR2	11	17	PARSLEY	1016	n/a	n/a	0	0	0
3743631	REC_WORD	wordpools/wasnorm_wordpool_576.txt	LTP236	ltpFR2	11	17	SPOON	1357	n/a	n/a	0	0	0
3744797	REC_WORD	wordpools/wasnorm_wordpool_576.txt	LTP236	ltpFR2	11	17	APRON	35	n/a	n/a	0	0	0
3747135	REC_WORD	wordpools/wasnorm_wordpool_576.txt	LTP236	ltpFR2	11	17	WOMAN	1620	n/a	n/a	0	0	0
3750911	REC_WORD	wordpools/wasnorm_wordpool_576.txt	LTP236	ltpFR2	11	17	WIFE	1609	n/a	n/a	0	0	0
3751949	REC_WORD	wordpools/wasnorm_wordpool_576.txt	LTP236	ltpFR2	11	17	NURSE	963	n/a	n/a	0	0	0
3764258	REC_WORD	wordpools/wasnorm_wordpool_576.txt	LTP236	ltpFR2	11	17	CHEMIST	292	n/a	n/a	0	0	0
3765071	REC_WORD	wordpools/wasnorm_wordpool_576.txt	LTP236	ltpFR2	11	17	FLASK	576	n/a	n/a	0	0	0
3815090	DISTRACTOR	n/a	LTP236	ltpFR2	11	18	n/a	n/a	n/a	n/a	0	0	0
3815090	START	n/a	LTP236	ltpFR2	11	n/a	n/a	n/a	27	n/a	n/a	n/a	n/a
3815124	PROB	n/a	LTP236	ltpFR2	11	n/a	n/a	n/a	27	13	5	2	6
3816974	PROB	n/a	LTP236	ltpFR2	11	n/a	n/a	n/a	27	11	2	3	6
3817908	PROB	n/a	LTP236	ltpFR2	11	n/a	n/a	n/a	27	16	8	2	6
3818776	PROB	n/a	LTP236	ltpFR2	11	n/a	n/a	n/a	27	10	4	2	4
3821061	PROB	n/a	LTP236	ltpFR2	11	n/a	n/a	n/a	27	14	7	5	2
3822029	PROB	n/a	LTP236	ltpFR2	11	n/a	n/a	n/a	27	14	8	6	2
3822963	PROB	n/a	LTP236	ltpFR2	11	n/a	n/a	n/a	27	6	1	1	4
3823797	PROB	n/a	LTP236	ltpFR2	11	n/a	n/a	n/a	27	21	9	8	4
3824981	PROB	n/a	LTP236	ltpFR2	11	n/a	n/a	n/a	27	18	2	7	9
3827151	PROB	n/a	LTP236	ltpFR2	11	n/a	n/a	n/a	27	10	4	3	3
3828885	PROB	n/a	LTP236	ltpFR2	11	n/a	n/a	n/a	27	15	6	8	1
3829735	PROB	n/a	LTP236	ltpFR2	11	n/a	n/a	n/a	27	15	7	4	4
3831654	PROB	n/a	LTP236	ltpFR2	11	n/a	n/a	n/a	27	15	8	4	3
3832871	PROB	n/a	LTP236	ltpFR2	11	n/a	n/a	n/a	27	11	7	2	2
3833822	PROB	n/a	LTP236	ltpFR2	11	n/a	n/a	n/a	27	12	1	5	6
3834773	PROB	n/a	LTP236	ltpFR2	11	n/a	n/a	n/a	27	16	2	7	7
3836075	PROB	n/a	LTP236	ltpFR2	11	n/a	n/a	n/a	27	10	6	2	2
3837160	PROB	n/a	LTP236	ltpFR2	11	n/a	n/a	n/a	27	12	3	2	7
3838034	STOP	n/a	LTP236	ltpFR2	11	n/a	n/a	n/a	27	n/a	n/a	n/a	n/a
3840195	WORD	wordpools/wasnorm_wordpool_576.txt	LTP236	ltpFR2	11	18	SUPPER	1411	n/a	n/a	0	0	0
3843013	WORD	wordpools/wasnorm_wordpool_576.txt	LTP236	ltpFR2	11	18	SHRUB	1299	n/a	n/a	0	0	0
3845783	WORD	wordpools/wasnorm_wordpool_576.txt	LTP236	ltpFR2	11	18	TWIG	1527	n/a	n/a	0	0	0
3848536	WORD	wordpools/wasnorm_wordpool_576.txt	LTP236	ltpFR2	11	18	CANAL	226	n/a	n/a	0	0	0
3851355	WORD	wordpools/wasnorm_wordpool_576.txt	LTP236	ltpFR2	11	18	YARN	1631	n/a	n/a	0	0	0
