onset	duration	trial_type	sample	stim_file	subject	experiment	session	trial	item_name	item_num	list	answer	test_x	test_y	test_z
234.07373046875	n/a	SESS_START	479383	n/a	LTP376	ltpFR2	19	n/a	n/a	n/a	n/a	n/a	0	0	0
250.3203125	n/a	START	512656	n/a	LTP376	ltpFR2	19	n/a	n/a	n/a	-1	n/a	n/a	n/a	n/a
250.3505859375	n/a	PROB	512718	n/a	LTP376	ltpFR2	19	n/a	n/a	n/a	-1	14	6	4	4
252.24951171875	n/a	PROB	516607	n/a	LTP376	ltpFR2	19	n/a	n/a	n/a	-1	10	5	4	1
254.064453125	n/a	PROB	520324	n/a	LTP376	ltpFR2	19	n/a	n/a	n/a	-1	11	7	3	1
255.3984375	n/a	PROB	523056	n/a	LTP376	ltpFR2	19	n/a	n/a	n/a	-1	12	8	3	1
257.21435546875	n/a	PROB	526775	n/a	LTP376	ltpFR2	19	n/a	n/a	n/a	-1	15	2	9	4
262.31884765625	n/a	STOP	537229	n/a	LTP376	ltpFR2	19	n/a	n/a	n/a	-1	n/a	n/a	n/a	n/a
307.15673828125	n/a	WORD	629057	wordpools/wasnorm_wordpool_576.txt	LTP376	ltpFR2	19	1	KLEENEX	782	n/a	n/a	0	0	0
309.92041015625	n/a	WORD	634717	wordpools/wasnorm_wordpool_576.txt	LTP376	ltpFR2	19	1	COD	340	n/a	n/a	0	0	0
312.45361328125	n/a	WORD	639905	wordpools/wasnorm_wordpool_576.txt	LTP376	ltpFR2	19	1	SPIDER	1351	n/a	n/a	0	0	0
314.935546875	n/a	WORD	644988	wordpools/wasnorm_wordpool_576.txt	LTP376	ltpFR2	19	1	COUNTY	389	n/a	n/a	0	0	0
317.6181640625	n/a	WORD	650482	wordpools/wasnorm_wordpool_576.txt	LTP376	ltpFR2	19	1	HAND	683	n/a	n/a	0	0	0
320.3662109375	n/a	WORD	656110	wordpools/wasnorm_wordpool_576.txt	LTP376	ltpFR2	19	1	FLIPPER	580	n/a	n/a	0	0	0
322.79833984375	n/a	WORD	661091	wordpools/wasnorm_wordpool_576.txt	LTP376	ltpFR2	19	1	MUFFIN	929	n/a	n/a	0	0	0
325.5810546875	n/a	WORD	666790	wordpools/wasnorm_wordpool_576.txt	LTP376	ltpFR2	19	1	TOASTER	1472	n/a	n/a	0	0	0
328.3291015625	n/a	WORD	672418	wordpools/wasnorm_wordpool_576.txt	LTP376	ltpFR2	19	1	SUNRISE	1407	n/a	n/a	0	0	0
330.9609375	n/a	WORD	677808	wordpools/wasnorm_wordpool_576.txt	LTP376	ltpFR2	19	1	PUPPY	1144	n/a	n/a	0	0	0
333.56103515625	n/a	WORD	683133	wordpools/wasnorm_wordpool_576.txt	LTP376	ltpFR2	19	1	BADGE	68	n/a	n/a	0	0	0
336.27587890625	n/a	WORD	688693	wordpools/wasnorm_wordpool_576.txt	LTP376	ltpFR2	19	1	BELLY	119	n/a	n/a	0	0	0
338.939453125	n/a	WORD	694148	wordpools/wasnorm_wordpool_576.txt	LTP376	ltpFR2	19	1	ULCER	1533	n/a	n/a	0	0	0
341.57373046875	n/a	WORD	699543	wordpools/wasnorm_wordpool_576.txt	LTP376	ltpFR2	19	1	COLONEL	348	n/a	n/a	0	0	0
344.3056640625	n/a	WORD	705138	wordpools/wasnorm_wordpool_576.txt	LTP376	ltpFR2	19	1	PERFUME	1049	n/a	n/a	0	0	0
346.80322265625	n/a	WORD	710253	wordpools/wasnorm_wordpool_576.txt	LTP376	ltpFR2	19	1	FINGER	567	n/a	n/a	0	0	0
349.25244140625	n/a	WORD	715269	wordpools/wasnorm_wordpool_576.txt	LTP376	ltpFR2	19	1	SCISSORS	1250	n/a	n/a	0	0	0
351.9169921875	n/a	WORD	720726	wordpools/wasnorm_wordpool_576.txt	LTP376	ltpFR2	19	1	SNAIL	1332	n/a	n/a	0	0	0
354.63232421875	n/a	WORD	726287	wordpools/wasnorm_wordpool_576.txt	LTP376	ltpFR2	19	1	CLAM	315	n/a	n/a	0	0	0
357.23193359375	n/a	WORD	731611	wordpools/wasnorm_wordpool_576.txt	LTP376	ltpFR2	19	1	FLOWER	584	n/a	n/a	0	0	0
360.0458984375	n/a	WORD	737374	wordpools/wasnorm_wordpool_576.txt	LTP376	ltpFR2	19	1	IGLOO	734	n/a	n/a	0	0	0
362.8291015625	n/a	WORD	743074	wordpools/wasnorm_wordpool_576.txt	LTP376	ltpFR2	19	1	SLUG	1329	n/a	n/a	0	0	0
365.39501953125	n/a	WORD	748329	wordpools/wasnorm_wordpool_576.txt	LTP376	ltpFR2	19	1	TREAT	1501	n/a	n/a	0	0	0
367.9599609375	n/a	WORD	753582	wordpools/wasnorm_wordpool_576.txt	LTP376	ltpFR2	19	1	AWARD	63	n/a	n/a	0	0	0
369.57666015625	n/a	START	756893	n/a	LTP376	ltpFR2	19	n/a	n/a	n/a	1	n/a	n/a	n/a	n/a
370.44970703125	n/a	DISTRACTOR	758681	n/a	LTP376	ltpFR2	19	1	n/a	n/a	n/a	n/a	0	0	0
370.45849609375	n/a	PROB	758699	n/a	LTP376	ltpFR2	19	n/a	n/a	n/a	1	12	4	3	5
373.92333984375	n/a	PROB	765795	n/a	LTP376	ltpFR2	19	n/a	n/a	n/a	1	15	8	6	1
375.9384765625	n/a	PROB	769922	n/a	LTP376	ltpFR2	19	n/a	n/a	n/a	1	19	9	7	3
377.45556640625	n/a	PROB	773029	n/a	LTP376	ltpFR2	19	n/a	n/a	n/a	1	10	7	2	1
379.03759765625	n/a	PROB	776269	n/a	LTP376	ltpFR2	19	n/a	n/a	n/a	1	3	1	1	1
380.17138671875	n/a	PROB	778591	n/a	LTP376	ltpFR2	19	n/a	n/a	n/a	1	13	3	9	1
381.5703125	n/a	PROB	781456	n/a	LTP376	ltpFR2	19	n/a	n/a	n/a	1	17	2	8	7
383.236328125	n/a	PROB	784868	n/a	LTP376	ltpFR2	19	n/a	n/a	n/a	1	20	8	5	7
386.98291015625	n/a	PROB	792541	n/a	LTP376	ltpFR2	19	n/a	n/a	n/a	1	19	7	3	9
388.93212890625	n/a	PROB	796533	n/a	LTP376	ltpFR2	19	n/a	n/a	n/a	1	17	8	1	8
391.3662109375	n/a	PROB	801518	n/a	LTP376	ltpFR2	19	n/a	n/a	n/a	1	10	1	6	3
393.296875	n/a	STOP	805472	n/a	LTP376	ltpFR2	19	n/a	n/a	n/a	1	n/a	n/a	n/a	n/a
395.380859375	n/a	REC_START	809740	n/a	LTP376	ltpFR2	19	1	n/a	n/a	n/a	n/a	0	0	0
398.75	n/a	REC_WORD	816640	wordpools/wasnorm_wordpool_576.txt	LTP376	ltpFR2	19	1	SEAL	1262	n/a	n/a	0	0	0
400.26171875	n/a	REC_WORD	819736	wordpools/wasnorm_wordpool_576.txt	LTP376	ltpFR2	19	1	IGLOO	734	n/a	n/a	0	0	0
401.9365234375	n/a	REC_WORD	823166	wordpools/wasnorm_wordpool_576.txt	LTP376	ltpFR2	19	1	PUPPY	1144	n/a	n/a	0	0	0
404.08740234375	n/a	REC_WORD	827571	wordpools/wasnorm_wordpool_576.txt	LTP376	ltpFR2	19	1	SNAIL	1332	n/a	n/a	0	0	0
406.13232421875	n/a	REC_WORD	831759	wordpools/wasnorm_wordpool_576.txt	LTP376	ltpFR2	19	1	SLUG	1329	n/a	n/a	0	0	0
407.07373046875	n/a	REC_WORD	833687	wordpools/wasnorm_wordpool_576.txt	LTP376	ltpFR2	19	1	CLAM	315	n/a	n/a	0	0	0
409.1513671875	n/a	REC_WORD	837942	wordpools/wasnorm_wordpool_576.txt	LTP376	ltpFR2	19	1	FLIPPER	580	n/a	n/a	0	0	0
411.8662109375	n/a	REC_WORD	843502	wordpools/wasnorm_wordpool_576.txt	LTP376	ltpFR2	19	1	HAND	683	n/a	n/a	0	0	0
418.2822265625	n/a	REC_WORD	856642	wordpools/wasnorm_wordpool_576.txt	LTP376	ltpFR2	19	1	MUFFIN	929	n/a	n/a	0	0	0
485.8359375	n/a	WORD	994992	wordpools/wasnorm_wordpool_576.txt	LTP376	ltpFR2	19	2	HONEY	713	n/a	n/a	0	0	0
488.369140625	n/a	WORD	1000180	wordpools/wasnorm_wordpool_576.txt	LTP376	ltpFR2	19	2	LADDER	793	n/a	n/a	0	0	0
491.0498046875	n/a	WORD	1005670	wordpools/wasnorm_wordpool_576.txt	LTP376	ltpFR2	19	2	SIBLING	1301	n/a	n/a	0	0	0
493.6318359375	n/a	WORD	1010958	wordpools/wasnorm_wordpool_576.txt	LTP376	ltpFR2	19	2	SANDWICH	1232	n/a	n/a	0	0	0
496.23193359375	n/a	WORD	1016283	wordpools/wasnorm_wordpool_576.txt	LTP376	ltpFR2	19	2	PICNIC	1060	n/a	n/a	0	0	0
498.69580078125	n/a	WORD	1021329	wordpools/wasnorm_wordpool_576.txt	LTP376	ltpFR2	19	2	BOARD	143	n/a	n/a	0	0	0
501.5126953125	n/a	WORD	1027098	wordpools/wasnorm_wordpool_576.txt	LTP376	ltpFR2	19	2	WASP	1593	n/a	n/a	0	0	0
504.1103515625	n/a	WORD	1032418	wordpools/wasnorm_wordpool_576.txt	LTP376	ltpFR2	19	2	CORAL	378	n/a	n/a	0	0	0
506.84228515625	n/a	WORD	1038013	wordpools/wasnorm_wordpool_576.txt	LTP376	ltpFR2	19	2	HUMAN	726	n/a	n/a	0	0	0
509.6572265625	n/a	WORD	1043778	wordpools/wasnorm_wordpool_576.txt	LTP376	ltpFR2	19	2	YOLK	1633	n/a	n/a	0	0	0
512.42431640625	n/a	WORD	1049445	wordpools/wasnorm_wordpool_576.txt	LTP376	ltpFR2	19	2	ROOSTER	1209	n/a	n/a	0	0	0
514.9052734375	n/a	WORD	1054526	wordpools/wasnorm_wordpool_576.txt	LTP376	ltpFR2	19	2	CONTRACT	368	n/a	n/a	0	0	0
517.37109375	n/a	WORD	1059576	wordpools/wasnorm_wordpool_576.txt	LTP376	ltpFR2	19	2	TURKEY	1520	n/a	n/a	0	0	0
520.0859375	n/a	WORD	1065136	wordpools/wasnorm_wordpool_576.txt	LTP376	ltpFR2	19	2	WAITRESS	1581	n/a	n/a	0	0	0
522.5517578125	n/a	WORD	1070186	wordpools/wasnorm_wordpool_576.txt	LTP376	ltpFR2	19	2	HOUND	724	n/a	n/a	0	0	0
525.31787109375	n/a	WORD	1075851	wordpools/wasnorm_wordpool_576.txt	LTP376	ltpFR2	19	2	GRILL	661	n/a	n/a	0	0	0
527.86572265625	n/a	WORD	1081069	wordpools/wasnorm_wordpool_576.txt	LTP376	ltpFR2	19	2	GARBAGE	622	n/a	n/a	0	0	0
530.431640625	n/a	WORD	1086324	wordpools/wasnorm_wordpool_576.txt	LTP376	ltpFR2	19	2	KNAPSACK	783	n/a	n/a	0	0	0
533.0126953125	n/a	WORD	1091610	wordpools/wasnorm_wordpool_576.txt	LTP376	ltpFR2	19	2	RABBIT	1152	n/a	n/a	0	0	0
535.8115234375	n/a	WORD	1097342	wordpools/wasnorm_wordpool_576.txt	LTP376	ltpFR2	19	2	BUNNY	198	n/a	n/a	0	0	0
538.361328125	n/a	WORD	1102564	wordpools/wasnorm_wordpool_576.txt	LTP376	ltpFR2	19	2	LAGOON	795	n/a	n/a	0	0	0
540.9091796875	n/a	WORD	1107782	wordpools/wasnorm_wordpool_576.txt	LTP376	ltpFR2	19	2	WORLD	1622	n/a	n/a	0	0	0
543.6083984375	n/a	WORD	1113310	wordpools/wasnorm_wordpool_576.txt	LTP376	ltpFR2	19	2	BARREL	91	n/a	n/a	0	0	0
546.19140625	n/a	WORD	1118600	wordpools/wasnorm_wordpool_576.txt	LTP376	ltpFR2	19	2	PEBBLE	1035	n/a	n/a	0	0	0
547.80615234375	n/a	START	1121907	n/a	LTP376	ltpFR2	19	n/a	n/a	n/a	2	n/a	n/a	n/a	n/a
548.92919921875	n/a	DISTRACTOR	1124207	n/a	LTP376	ltpFR2	19	2	n/a	n/a	n/a	n/a	0	0	0
548.93798828125	n/a	PROB	1124225	n/a	LTP376	ltpFR2	19	n/a	n/a	n/a	2	23	6	7	8
565.33154296875	n/a	PROB	1157799	n/a	LTP376	ltpFR2	19	n/a	n/a	n/a	2	14	7	4	3
567.94580078125	n/a	PROB	1163153	n/a	LTP376	ltpFR2	19	n/a	n/a	n/a	2	15	4	2	9
570.46435546875	n/a	STOP	1168311	n/a	LTP376	ltpFR2	19	n/a	n/a	n/a	2	n/a	n/a	n/a	n/a
573.5615234375	n/a	REC_START	1174654	n/a	LTP376	ltpFR2	19	2	n/a	n/a	n/a	n/a	0	0	0
577.400390625	n/a	REC_WORD	1182516	wordpools/wasnorm_wordpool_576.txt	LTP376	ltpFR2	19	2	SANDWICH	1232	n/a	n/a	0	0	0
578.619140625	n/a	REC_WORD	1185012	wordpools/wasnorm_wordpool_576.txt	LTP376	ltpFR2	19	2	TURKEY	1520	n/a	n/a	0	0	0
580.13916015625	n/a	REC_WORD	1188125	wordpools/wasnorm_wordpool_576.txt	LTP376	ltpFR2	19	2	SIBLING	1301	n/a	n/a	0	0	0
581.6279296875	n/a	REC_WORD	1191174	wordpools/wasnorm_wordpool_576.txt	LTP376	ltpFR2	19	2	PICNIC	1060	n/a	n/a	0	0	0
583.34814453125	n/a	REC_WORD	1194697	wordpools/wasnorm_wordpool_576.txt	LTP376	ltpFR2	19	2	HONEY	713	n/a	n/a	0	0	0
585.27197265625	n/a	REC_WORD	1198637	wordpools/wasnorm_wordpool_576.txt	LTP376	ltpFR2	19	2	WASP	1593	n/a	n/a	0	0	0
587.85693359375	n/a	REC_WORD	1203931	wordpools/wasnorm_wordpool_576.txt	LTP376	ltpFR2	19	2	WAITRESS	1581	n/a	n/a	0	0	0
592.11767578125	n/a	REC_WORD	1212657	wordpools/wasnorm_wordpool_576.txt	LTP376	ltpFR2	19	2	BUNNY	198	n/a	n/a	0	0	0
594.46875	n/a	REC_WORD	1217472	wordpools/wasnorm_wordpool_576.txt	LTP376	ltpFR2	19	2	RABBIT	1152	n/a	n/a	0	0	0
663.99951171875	n/a	DISTRACTOR	1359871	n/a	LTP376	ltpFR2	19	3	n/a	n/a	n/a	n/a	0	0	0
663.99951171875	n/a	START	1359871	n/a	LTP376	ltpFR2	19	n/a	n/a	n/a	3	n/a	n/a	n/a	n/a
664.0166015625	n/a	PROB	1359906	n/a	LTP376	ltpFR2	19	n/a	n/a	n/a	3	13	1	5	7
669.646484375	n/a	PROB	1371436	n/a	LTP376	ltpFR2	19	n/a	n/a	n/a	3	15	3	8	4
673.49658203125	n/a	PROB	1379321	n/a	LTP376	ltpFR2	19	n/a	n/a	n/a	3	12	2	5	5
674.84423828125	n/a	PROB	1382081	n/a	LTP376	ltpFR2	19	n/a	n/a	n/a	3	5	1	2	2
676.4443359375	n/a	PROB	1385358	n/a	LTP376	ltpFR2	19	n/a	n/a	n/a	3	16	6	5	5
677.9091796875	n/a	PROB	1388358	n/a	LTP376	ltpFR2	19	n/a	n/a	n/a	3	16	6	7	3
679.75830078125	n/a	PROB	1392145	n/a	LTP376	ltpFR2	19	n/a	n/a	n/a	3	14	8	2	4
683.2578125	n/a	PROB	1399312	n/a	LTP376	ltpFR2	19	n/a	n/a	n/a	3	17	2	8	7
685.2568359375	n/a	PROB	1403406	n/a	LTP376	ltpFR2	19	n/a	n/a	n/a	3	13	2	9	2
687.43310546875	n/a	STOP	1407863	n/a	LTP376	ltpFR2	19	n/a	n/a	n/a	3	n/a	n/a	n/a	n/a
689.07080078125	n/a	WORD	1411217	wordpools/wasnorm_wordpool_576.txt	LTP376	ltpFR2	19	3	VAGRANT	1544	n/a	n/a	0	0	0
691.50390625	n/a	WORD	1416200	wordpools/wasnorm_wordpool_576.txt	LTP376	ltpFR2	19	3	STOMACH	1384	n/a	n/a	0	0	0
694.31982421875	n/a	WORD	1421967	wordpools/wasnorm_wordpool_576.txt	LTP376	ltpFR2	19	3	FOX	598	n/a	n/a	0	0	0
697.00048828125	n/a	WORD	1427457	wordpools/wasnorm_wordpool_576.txt	LTP376	ltpFR2	19	3	JURY	766	n/a	n/a	0	0	0
699.71533203125	n/a	WORD	1433017	wordpools/wasnorm_wordpool_576.txt	LTP376	ltpFR2	19	3	NIGHTGOWN	953	n/a	n/a	0	0	0
702.2822265625	n/a	WORD	1438274	wordpools/wasnorm_wordpool_576.txt	LTP376	ltpFR2	19	3	SILK	1307	n/a	n/a	0	0	0
705.07958984375	n/a	WORD	1444003	wordpools/wasnorm_wordpool_576.txt	LTP376	ltpFR2	19	3	BEAST	108	n/a	n/a	0	0	0
707.861328125	n/a	WORD	1449700	wordpools/wasnorm_wordpool_576.txt	LTP376	ltpFR2	19	3	EYELASH	546	n/a	n/a	0	0	0
710.31103515625	n/a	WORD	1454717	wordpools/wasnorm_wordpool_576.txt	LTP376	ltpFR2	19	3	MEAT	883	n/a	n/a	0	0	0
712.958984375	n/a	WORD	1460140	wordpools/wasnorm_wordpool_576.txt	LTP376	ltpFR2	19	3	LIVER	833	n/a	n/a	0	0	0
715.625	n/a	WORD	1465600	wordpools/wasnorm_wordpool_576.txt	LTP376	ltpFR2	19	3	COBRA	336	n/a	n/a	0	0	0
718.291015625	n/a	WORD	1471060	wordpools/wasnorm_wordpool_576.txt	LTP376	ltpFR2	19	3	CLIMBER	323	n/a	n/a	0	0	0
720.90478515625	n/a	WORD	1476413	wordpools/wasnorm_wordpool_576.txt	LTP376	ltpFR2	19	3	LACE	792	n/a	n/a	0	0	0
723.60498046875	n/a	WORD	1481943	wordpools/wasnorm_wordpool_576.txt	LTP376	ltpFR2	19	3	LION	827	n/a	n/a	0	0	0
726.25390625	n/a	WORD	1487368	wordpools/wasnorm_wordpool_576.txt	LTP376	ltpFR2	19	3	MARKET	871	n/a	n/a	0	0	0
728.90185546875	n/a	WORD	1492791	wordpools/wasnorm_wordpool_576.txt	LTP376	ltpFR2	19	3	LADY	794	n/a	n/a	0	0	0
731.61669921875	n/a	WORD	1498351	wordpools/wasnorm_wordpool_576.txt	LTP376	ltpFR2	19	3	POSTAGE	1113	n/a	n/a	0	0	0
734.43359375	n/a	WORD	1504120	wordpools/wasnorm_wordpool_576.txt	LTP376	ltpFR2	19	3	MARSH	874	n/a	n/a	0	0	0
737.1484375	n/a	WORD	1509680	wordpools/wasnorm_wordpool_576.txt	LTP376	ltpFR2	19	3	LIPSTICK	829	n/a	n/a	0	0	0
739.646484375	n/a	WORD	1514796	wordpools/wasnorm_wordpool_576.txt	LTP376	ltpFR2	19	3	CANAL	226	n/a	n/a	0	0	0
742.1123046875	n/a	WORD	1519846	wordpools/wasnorm_wordpool_576.txt	LTP376	ltpFR2	19	3	LAKE	796	n/a	n/a	0	0	0
744.578125	n/a	WORD	1524896	wordpools/wasnorm_wordpool_576.txt	LTP376	ltpFR2	19	3	GHETTO	633	n/a	n/a	0	0	0
747.26025390625	n/a	WORD	1530389	wordpools/wasnorm_wordpool_576.txt	LTP376	ltpFR2	19	3	LABEL	790	n/a	n/a	0	0	0
750.0078125	n/a	WORD	1536016	wordpools/wasnorm_wordpool_576.txt	LTP376	ltpFR2	19	3	PLAZA	1088	n/a	n/a	0	0	0
751.6240234375	n/a	START	1539326	n/a	LTP376	ltpFR2	19	n/a	n/a	n/a	4	n/a	n/a	n/a	n/a
752.634765625	n/a	DISTRACTOR	1541396	n/a	LTP376	ltpFR2	19	3	n/a	n/a	n/a	n/a	0	0	0
752.64013671875	n/a	PROB	1541407	n/a	LTP376	ltpFR2	19	n/a	n/a	n/a	4	23	5	9	9
755.373046875	n/a	PROB	1547004	n/a	LTP376	ltpFR2	19	n/a	n/a	n/a	4	14	5	7	2
757.65478515625	n/a	PROB	1551677	n/a	LTP376	ltpFR2	19	n/a	n/a	n/a	4	14	3	5	6
761.685546875	n/a	PROB	1559932	n/a	LTP376	ltpFR2	19	n/a	n/a	n/a	4	14	8	5	1
764.0517578125	n/a	PROB	1564778	n/a	LTP376	ltpFR2	19	n/a	n/a	n/a	4	23	8	9	6
768.99853515625	n/a	PROB	1574909	n/a	LTP376	ltpFR2	19	n/a	n/a	n/a	4	15	4	5	6
775.623046875	n/a	STOP	1588476	n/a	LTP376	ltpFR2	19	n/a	n/a	n/a	4	n/a	n/a	n/a	n/a
777.49609375	n/a	REC_START	1592312	n/a	LTP376	ltpFR2	19	3	n/a	n/a	n/a	n/a	0	0	0
781.97705078125	n/a	REC_WORD	1601489	wordpools/wasnorm_wordpool_576.txt	LTP376	ltpFR2	19	3	JURY	766	n/a	n/a	0	0	0
783.14892578125	n/a	REC_WORD	1603889	wordpools/wasnorm_wordpool_576.txt	LTP376	ltpFR2	19	3	VAGRANT	1544	n/a	n/a	0	0	0
784.87890625	n/a	REC_WORD	1607432	wordpools/wasnorm_wordpool_576.txt	LTP376	ltpFR2	19	3	WOMAN	1620	n/a	n/a	0	0	0
795.37646484375	n/a	REC_WORD	1628931	wordpools/wasnorm_wordpool_576.txt	LTP376	ltpFR2	19	3	CLIMBER	323	n/a	n/a	0	0	0
799.04541015625	n/a	REC_WORD	1636445	wordpools/wasnorm_wordpool_576.txt	LTP376	ltpFR2	19	3	LIVER	833	n/a	n/a	0	0	0
799.70654296875	n/a	REC_WORD	1637799	wordpools/wasnorm_wordpool_576.txt	LTP376	ltpFR2	19	3	STOMACH	1384	n/a	n/a	0	0	0
821.099609375	n/a	REC_WORD	1681612	wordpools/wasnorm_wordpool_576.txt	LTP376	ltpFR2	19	3	LION	827	n/a	n/a	0	0	0
822.10498046875	n/a	REC_WORD	1683671	wordpools/wasnorm_wordpool_576.txt	LTP376	ltpFR2	19	3	COBRA	336	n/a	n/a	0	0	0
867.951171875	n/a	WORD	1777564	wordpools/wasnorm_wordpool_576.txt	LTP376	ltpFR2	19	4	CRICKET	408	n/a	n/a	0	0	0
870.46728515625	n/a	WORD	1782717	wordpools/wasnorm_wordpool_576.txt	LTP376	ltpFR2	19	4	STUDENT	1395	n/a	n/a	0	0	0
873.01513671875	n/a	WORD	1787935	wordpools/wasnorm_wordpool_576.txt	LTP376	ltpFR2	19	4	SLIDE	1326	n/a	n/a	0	0	0
875.46533203125	n/a	WORD	1792953	wordpools/wasnorm_wordpool_576.txt	LTP376	ltpFR2	19	4	CAPTIVE	240	n/a	n/a	0	0	0
878.11328125	n/a	WORD	1798376	wordpools/wasnorm_wordpool_576.txt	LTP376	ltpFR2	19	4	OUTLAW	989	n/a	n/a	0	0	0
880.9111328125	n/a	WORD	1804106	wordpools/wasnorm_wordpool_576.txt	LTP376	ltpFR2	19	4	TART	1436	n/a	n/a	0	0	0
883.65966796875	n/a	WORD	1809735	wordpools/wasnorm_wordpool_576.txt	LTP376	ltpFR2	19	4	BOUQUET	157	n/a	n/a	0	0	0
886.35986328125	n/a	WORD	1815265	wordpools/wasnorm_wordpool_576.txt	LTP376	ltpFR2	19	4	GLASS	639	n/a	n/a	0	0	0
888.87353515625	n/a	WORD	1820413	wordpools/wasnorm_wordpool_576.txt	LTP376	ltpFR2	19	4	TERMITE	1451	n/a	n/a	0	0	0
891.45751953125	n/a	WORD	1825705	wordpools/wasnorm_wordpool_576.txt	LTP376	ltpFR2	19	4	TRENCH	1503	n/a	n/a	0	0	0
893.98876953125	n/a	WORD	1830889	wordpools/wasnorm_wordpool_576.txt	LTP376	ltpFR2	19	4	PORK	1108	n/a	n/a	0	0	0
896.75341796875	n/a	WORD	1836551	wordpools/wasnorm_wordpool_576.txt	LTP376	ltpFR2	19	4	PUPIL	1143	n/a	n/a	0	0	0
899.50341796875	n/a	WORD	1842183	wordpools/wasnorm_wordpool_576.txt	LTP376	ltpFR2	19	4	GUITAR	670	n/a	n/a	0	0	0
902.10107421875	n/a	WORD	1847503	wordpools/wasnorm_wordpool_576.txt	LTP376	ltpFR2	19	4	AUTHOR	61	n/a	n/a	0	0	0
904.76611328125	n/a	WORD	1852961	wordpools/wasnorm_wordpool_576.txt	LTP376	ltpFR2	19	4	NEUTRON	947	n/a	n/a	0	0	0
907.34912109375	n/a	WORD	1858251	wordpools/wasnorm_wordpool_576.txt	LTP376	ltpFR2	19	4	ATOM	55	n/a	n/a	0	0	0
909.8642578125	n/a	WORD	1863402	wordpools/wasnorm_wordpool_576.txt	LTP376	ltpFR2	19	4	GRAVEL	659	n/a	n/a	0	0	0
912.59716796875	n/a	WORD	1868999	wordpools/wasnorm_wordpool_576.txt	LTP376	ltpFR2	19	4	SALMON	1227	n/a	n/a	0	0	0
915.3291015625	n/a	WORD	1874594	wordpools/wasnorm_wordpool_576.txt	LTP376	ltpFR2	19	4	PASSAGE	1019	n/a	n/a	0	0	0
918.10986328125	n/a	WORD	1880289	wordpools/wasnorm_wordpool_576.txt	LTP376	ltpFR2	19	4	KNIFE	785	n/a	n/a	0	0	0
920.8916015625	n/a	WORD	1885986	wordpools/wasnorm_wordpool_576.txt	LTP376	ltpFR2	19	4	BEEF	113	n/a	n/a	0	0	0
923.4248046875	n/a	WORD	1891174	wordpools/wasnorm_wordpool_576.txt	LTP376	ltpFR2	19	4	BUCKET	184	n/a	n/a	0	0	0
925.8564453125	n/a	WORD	1896154	wordpools/wasnorm_wordpool_576.txt	LTP376	ltpFR2	19	4	CAMEL	223	n/a	n/a	0	0	0
928.67138671875	n/a	WORD	1901919	wordpools/wasnorm_wordpool_576.txt	LTP376	ltpFR2	19	4	PARROT	1015	n/a	n/a	0	0	0
930.28857421875	n/a	START	1905231	n/a	LTP376	ltpFR2	19	n/a	n/a	n/a	5	n/a	n/a	n/a	n/a
931.28759765625	n/a	DISTRACTOR	1907277	n/a	LTP376	ltpFR2	19	4	n/a	n/a	n/a	n/a	0	0	0
931.30419921875	n/a	PROB	1907311	n/a	LTP376	ltpFR2	19	n/a	n/a	n/a	5	15	8	2	5
933.2705078125	n/a	PROB	1911338	n/a	LTP376	ltpFR2	19	n/a	n/a	n/a	5	14	8	5	1
934.88525390625	n/a	PROB	1914645	n/a	LTP376	ltpFR2	19	n/a	n/a	n/a	5	17	6	3	8
937.4013671875	n/a	PROB	1919798	n/a	LTP376	ltpFR2	19	n/a	n/a	n/a	5	16	7	2	7
941.06494140625	n/a	PROB	1927301	n/a	LTP376	ltpFR2	19	n/a	n/a	n/a	5	18	6	4	8
942.84814453125	n/a	PROB	1930953	n/a	LTP376	ltpFR2	19	n/a	n/a	n/a	5	20	7	4	9
946.77978515625	n/a	PROB	1939005	n/a	LTP376	ltpFR2	19	n/a	n/a	n/a	5	14	7	6	1
949.1787109375	n/a	PROB	1943918	n/a	LTP376	ltpFR2	19	n/a	n/a	n/a	5	17	7	9	1
954.28759765625	n/a	STOP	1954381	n/a	LTP376	ltpFR2	19	n/a	n/a	n/a	5	n/a	n/a	n/a	n/a
956.1767578125	n/a	REC_START	1958250	n/a	LTP376	ltpFR2	19	4	n/a	n/a	n/a	n/a	0	0	0
957.6318359375	n/a	REC_WORD	1961230	wordpools/wasnorm_wordpool_576.txt	LTP376	ltpFR2	19	4	CAMEL	223	n/a	n/a	0	0	0
958.359375	n/a	REC_WORD	1962720	wordpools/wasnorm_wordpool_576.txt	LTP376	ltpFR2	19	4	PARROT	1015	n/a	n/a	0	0	0
960.21337890625	n/a	REC_WORD	1966517	wordpools/wasnorm_wordpool_576.txt	LTP376	ltpFR2	19	4	OUTLAW	989	n/a	n/a	0	0	0
961.96630859375	n/a	REC_WORD	1970107	wordpools/wasnorm_wordpool_576.txt	LTP376	ltpFR2	19	4	STUDENT	1395	n/a	n/a	0	0	0
981.11865234375	n/a	REC_WORD	2009331	wordpools/wasnorm_wordpool_576.txt	LTP376	ltpFR2	19	4	AUTHOR	61	n/a	n/a	0	0	0
1046.630859375	n/a	WORD	2143500	wordpools/wasnorm_wordpool_576.txt	LTP376	ltpFR2	19	5	COUNTRY	388	n/a	n/a	0	0	0
1049.39794921875	n/a	WORD	2149167	wordpools/wasnorm_wordpool_576.txt	LTP376	ltpFR2	19	5	TROUT	1511	n/a	n/a	0	0	0
1051.91162109375	n/a	WORD	2154315	wordpools/wasnorm_wordpool_576.txt	LTP376	ltpFR2	19	5	DRIVER	499	n/a	n/a	0	0	0
1054.54443359375	n/a	WORD	2159707	wordpools/wasnorm_wordpool_576.txt	LTP376	ltpFR2	19	5	CREVICE	405	n/a	n/a	0	0	0
1057.04248046875	n/a	WORD	2164823	wordpools/wasnorm_wordpool_576.txt	LTP376	ltpFR2	19	5	PATIENT	1024	n/a	n/a	0	0	0
1059.82421875	n/a	WORD	2170520	wordpools/wasnorm_wordpool_576.txt	LTP376	ltpFR2	19	5	YARN	1631	n/a	n/a	0	0	0
1062.29150390625	n/a	WORD	2175573	wordpools/wasnorm_wordpool_576.txt	LTP376	ltpFR2	19	5	BLACKBOARD	133	n/a	n/a	0	0	0
1064.88916015625	n/a	WORD	2180893	wordpools/wasnorm_wordpool_576.txt	LTP376	ltpFR2	19	5	PENGUIN	1044	n/a	n/a	0	0	0
1067.33837890625	n/a	WORD	2185909	wordpools/wasnorm_wordpool_576.txt	LTP376	ltpFR2	19	5	HAWK	692	n/a	n/a	0	0	0
1070.05322265625	n/a	WORD	2191469	wordpools/wasnorm_wordpool_576.txt	LTP376	ltpFR2	19	5	CONCERT	360	n/a	n/a	0	0	0
1072.68505859375	n/a	WORD	2196859	wordpools/wasnorm_wordpool_576.txt	LTP376	ltpFR2	19	5	STONE	1385	n/a	n/a	0	0	0
1075.35205078125	n/a	WORD	2202321	wordpools/wasnorm_wordpool_576.txt	LTP376	ltpFR2	19	5	COLLEGE	346	n/a	n/a	0	0	0
1078.0830078125	n/a	WORD	2207914	wordpools/wasnorm_wordpool_576.txt	LTP376	ltpFR2	19	5	COCOON	339	n/a	n/a	0	0	0
1080.71484375	n/a	WORD	2213304	wordpools/wasnorm_wordpool_576.txt	LTP376	ltpFR2	19	5	BANJO	82	n/a	n/a	0	0	0
1083.48095703125	n/a	WORD	2218969	wordpools/wasnorm_wordpool_576.txt	LTP376	ltpFR2	19	5	ELBOW	520	n/a	n/a	0	0	0
1086.19677734375	n/a	WORD	2224531	wordpools/wasnorm_wordpool_576.txt	LTP376	ltpFR2	19	5	SCALLOP	1242	n/a	n/a	0	0	0
1088.677734375	n/a	WORD	2229612	wordpools/wasnorm_wordpool_576.txt	LTP376	ltpFR2	19	5	OUTDOORS	987	n/a	n/a	0	0	0
1091.443359375	n/a	WORD	2235276	wordpools/wasnorm_wordpool_576.txt	LTP376	ltpFR2	19	5	NURSE	963	n/a	n/a	0	0	0
1093.94140625	n/a	WORD	2240392	wordpools/wasnorm_wordpool_576.txt	LTP376	ltpFR2	19	5	LEADER	807	n/a	n/a	0	0	0
1096.5244140625	n/a	WORD	2245682	wordpools/wasnorm_wordpool_576.txt	LTP376	ltpFR2	19	5	PATROL	1027	n/a	n/a	0	0	0
1099.0390625	n/a	WORD	2250832	wordpools/wasnorm_wordpool_576.txt	LTP376	ltpFR2	19	5	SLOPE	1328	n/a	n/a	0	0	0
1101.52197265625	n/a	WORD	2255917	wordpools/wasnorm_wordpool_576.txt	LTP376	ltpFR2	19	5	DRAGON	492	n/a	n/a	0	0	0
1104.0869140625	n/a	WORD	2261170	wordpools/wasnorm_wordpool_576.txt	LTP376	ltpFR2	19	5	DRILL	497	n/a	n/a	0	0	0
1106.90185546875	n/a	WORD	2266935	wordpools/wasnorm_wordpool_576.txt	LTP376	ltpFR2	19	5	MARS	873	n/a	n/a	0	0	0
1108.51904296875	n/a	START	2270247	n/a	LTP376	ltpFR2	19	n/a	n/a	n/a	6	n/a	n/a	n/a	n/a
1109.3359375	n/a	DISTRACTOR	2271920	n/a	LTP376	ltpFR2	19	5	n/a	n/a	n/a	n/a	0	0	0
1109.35205078125	n/a	PROB	2271953	n/a	LTP376	ltpFR2	19	n/a	n/a	n/a	6	19	8	6	5
1112.64892578125	n/a	PROB	2278705	n/a	LTP376	ltpFR2	19	n/a	n/a	n/a	6	13	2	8	3
1114.14990234375	n/a	PROB	2281779	n/a	LTP376	ltpFR2	19	n/a	n/a	n/a	6	23	5	8	9
1117.181640625	n/a	PROB	2287988	n/a	LTP376	ltpFR2	19	n/a	n/a	n/a	6	14	7	3	4
1119.595703125	n/a	PROB	2292932	n/a	LTP376	ltpFR2	19	n/a	n/a	n/a	6	17	6	3	8
1122.54541015625	n/a	PROB	2298973	n/a	LTP376	ltpFR2	19	n/a	n/a	n/a	6	13	1	3	9
1123.79345703125	n/a	PROB	2301529	n/a	LTP376	ltpFR2	19	n/a	n/a	n/a	6	15	3	4	8
1126.908203125	n/a	PROB	2307908	n/a	LTP376	ltpFR2	19	n/a	n/a	n/a	6	26	8	9	9
1132.51806640625	n/a	STOP	2319397	n/a	LTP376	ltpFR2	19	n/a	n/a	n/a	6	n/a	n/a	n/a	n/a
1134.27392578125	n/a	REC_START	2322993	n/a	LTP376	ltpFR2	19	5	n/a	n/a	n/a	n/a	0	0	0
1138.23095703125	n/a	REC_WORD	2331097	wordpools/wasnorm_wordpool_576.txt	LTP376	ltpFR2	19	5	PENGUIN	1044	n/a	n/a	0	0	0
1139.041015625	n/a	REC_WORD	2332756	wordpools/wasnorm_wordpool_576.txt	LTP376	ltpFR2	19	5	HAWK	692	n/a	n/a	0	0	0
1142.5859375	n/a	REC_WORD	2340016	wordpools/wasnorm_wordpool_576.txt	LTP376	ltpFR2	19	5	COLLEGE	346	n/a	n/a	0	0	0
1144.01708984375	n/a	REC_WORD	2342947	wordpools/wasnorm_wordpool_576.txt	LTP376	ltpFR2	19	5	DRIVER	499	n/a	n/a	0	0	0
1146.07470703125	n/a	REC_WORD	2347161	wordpools/wasnorm_wordpool_576.txt	LTP376	ltpFR2	19	5	OUTDOORS	987	n/a	n/a	0	0	0
1147.07470703125	n/a	REC_WORD_VV	2349209	wordpools/wasnorm_wordpool_576.txt	LTP376	ltpFR2	19	5	<>	-1	n/a	n/a	0	0	0
1224.71142578125	n/a	DISTRACTOR	2508209	n/a	LTP376	ltpFR2	19	6	n/a	n/a	n/a	n/a	0	0	0
1224.71142578125	n/a	START	2508209	n/a	LTP376	ltpFR2	19	n/a	n/a	n/a	7	n/a	n/a	n/a	n/a
1224.728515625	n/a	PROB	2508244	n/a	LTP376	ltpFR2	19	n/a	n/a	n/a	7	18	2	8	8
1226.67724609375	n/a	PROB	2512235	n/a	LTP376	ltpFR2	19	n/a	n/a	n/a	7	14	4	3	7
1227.97607421875	n/a	PROB	2514895	n/a	LTP376	ltpFR2	19	n/a	n/a	n/a	7	19	3	9	7
1229.958984375	n/a	PROB	2518956	n/a	LTP376	ltpFR2	19	n/a	n/a	n/a	7	14	7	5	2
1231.7080078125	n/a	PROB	2522538	n/a	LTP376	ltpFR2	19	n/a	n/a	n/a	7	6	1	1	4
1232.9580078125	n/a	PROB	2525098	n/a	LTP376	ltpFR2	19	n/a	n/a	n/a	7	14	6	4	4
1234.52392578125	n/a	PROB	2528305	n/a	LTP376	ltpFR2	19	n/a	n/a	n/a	7	20	7	8	5
1236.93896484375	n/a	PROB	2533251	n/a	LTP376	ltpFR2	19	n/a	n/a	n/a	7	15	5	4	6
1238.4228515625	n/a	PROB	2536290	n/a	LTP376	ltpFR2	19	n/a	n/a	n/a	7	15	2	5	9
1241.1201171875	n/a	PROB	2541814	n/a	LTP376	ltpFR2	19	n/a	n/a	n/a	7	10	1	1	8
1242.53662109375	n/a	PROB	2544715	n/a	LTP376	ltpFR2	19	n/a	n/a	n/a	7	16	5	6	5
1245.95166015625	n/a	PROB	2551709	n/a	LTP376	ltpFR2	19	n/a	n/a	n/a	7	15	8	6	1
1247.79150390625	n/a	STOP	2555477	n/a	LTP376	ltpFR2	19	n/a	n/a	n/a	7	n/a	n/a	n/a	n/a
1249.5673828125	n/a	WORD	2559114	wordpools/wasnorm_wordpool_576.txt	LTP376	ltpFR2	19	6	GYMNAST	675	n/a	n/a	0	0	0
1252.265625	n/a	WORD	2564640	wordpools/wasnorm_wordpool_576.txt	LTP376	ltpFR2	19	6	THIEF	1456	n/a	n/a	0	0	0
1254.99658203125	n/a	WORD	2570233	wordpools/wasnorm_wordpool_576.txt	LTP376	ltpFR2	19	6	COFFEE	341	n/a	n/a	0	0	0
1257.6455078125	n/a	WORD	2575658	wordpools/wasnorm_wordpool_576.txt	LTP376	ltpFR2	19	6	TWIG	1527	n/a	n/a	0	0	0
1260.26220703125	n/a	WORD	2581017	wordpools/wasnorm_wordpool_576.txt	LTP376	ltpFR2	19	6	MATCH	878	n/a	n/a	0	0	0
1262.826171875	n/a	WORD	2586268	wordpools/wasnorm_wordpool_576.txt	LTP376	ltpFR2	19	6	WRIST	1626	n/a	n/a	0	0	0
1265.50927734375	n/a	WORD	2591763	wordpools/wasnorm_wordpool_576.txt	LTP376	ltpFR2	19	6	WOMAN	1620	n/a	n/a	0	0	0
1268.22509765625	n/a	WORD	2597325	wordpools/wasnorm_wordpool_576.txt	LTP376	ltpFR2	19	6	TORTOISE	1486	n/a	n/a	0	0	0
1270.9560546875	n/a	WORD	2602918	wordpools/wasnorm_wordpool_576.txt	LTP376	ltpFR2	19	6	TEMPLE	1448	n/a	n/a	0	0	0
1273.68798828125	n/a	WORD	2608513	wordpools/wasnorm_wordpool_576.txt	LTP376	ltpFR2	19	6	CHURCH	307	n/a	n/a	0	0	0
1276.37060546875	n/a	WORD	2614007	wordpools/wasnorm_wordpool_576.txt	LTP376	ltpFR2	19	6	BUGGY	188	n/a	n/a	0	0	0
1279.03564453125	n/a	WORD	2619465	wordpools/wasnorm_wordpool_576.txt	LTP376	ltpFR2	19	6	MARROW	872	n/a	n/a	0	0	0
1281.650390625	n/a	WORD	2624820	wordpools/wasnorm_wordpool_576.txt	LTP376	ltpFR2	19	6	SADDLE	1221	n/a	n/a	0	0	0
1284.36669921875	n/a	WORD	2630383	wordpools/wasnorm_wordpool_576.txt	LTP376	ltpFR2	19	6	DONKEY	484	n/a	n/a	0	0	0
1286.8642578125	n/a	WORD	2635498	wordpools/wasnorm_wordpool_576.txt	LTP376	ltpFR2	19	6	NOVEL	960	n/a	n/a	0	0	0
1289.59619140625	n/a	WORD	2641093	wordpools/wasnorm_wordpool_576.txt	LTP376	ltpFR2	19	6	BODY	145	n/a	n/a	0	0	0
1292.0625	n/a	WORD	2646144	wordpools/wasnorm_wordpool_576.txt	LTP376	ltpFR2	19	6	BUBBLE	183	n/a	n/a	0	0	0
1294.6943359375	n/a	WORD	2651534	wordpools/wasnorm_wordpool_576.txt	LTP376	ltpFR2	19	6	JUGGLER	763	n/a	n/a	0	0	0
1297.42724609375	n/a	WORD	2657131	wordpools/wasnorm_wordpool_576.txt	LTP376	ltpFR2	19	6	ICING	732	n/a	n/a	0	0	0
1300.05810546875	n/a	WORD	2662519	wordpools/wasnorm_wordpool_576.txt	LTP376	ltpFR2	19	6	CUSTARD	429	n/a	n/a	0	0	0
1302.6572265625	n/a	WORD	2667842	wordpools/wasnorm_wordpool_576.txt	LTP376	ltpFR2	19	6	BUTCHER	203	n/a	n/a	0	0	0
1305.1240234375	n/a	WORD	2672894	wordpools/wasnorm_wordpool_576.txt	LTP376	ltpFR2	19	6	BROOK	177	n/a	n/a	0	0	0
1307.6220703125	n/a	WORD	2678010	wordpools/wasnorm_wordpool_576.txt	LTP376	ltpFR2	19	6	PAIL	1002	n/a	n/a	0	0	0
1310.35498046875	n/a	WORD	2683607	wordpools/wasnorm_wordpool_576.txt	LTP376	ltpFR2	19	6	GLOVE	642	n/a	n/a	0	0	0
1311.9697265625	n/a	START	2686914	n/a	LTP376	ltpFR2	19	n/a	n/a	n/a	8	n/a	n/a	n/a	n/a
1313.06787109375	n/a	DISTRACTOR	2689163	n/a	LTP376	ltpFR2	19	6	n/a	n/a	n/a	n/a	0	0	0
1313.08544921875	n/a	PROB	2689199	n/a	LTP376	ltpFR2	19	n/a	n/a	n/a	8	15	3	7	5
1315.33544921875	n/a	PROB	2693807	n/a	LTP376	ltpFR2	19	n/a	n/a	n/a	8	14	3	9	2
1318.8994140625	n/a	PROB	2701106	n/a	LTP376	ltpFR2	19	n/a	n/a	n/a	8	14	3	8	3
1321.88134765625	n/a	PROB	2707213	n/a	LTP376	ltpFR2	19	n/a	n/a	n/a	8	12	3	2	7
1323.314453125	n/a	PROB	2710148	n/a	LTP376	ltpFR2	19	n/a	n/a	n/a	8	14	6	3	5
1326.43017578125	n/a	PROB	2716529	n/a	LTP376	ltpFR2	19	n/a	n/a	n/a	8	10	4	4	2
1328.0283203125	n/a	PROB	2719802	n/a	LTP376	ltpFR2	19	n/a	n/a	n/a	8	18	5	4	7
1331.7431640625	n/a	PROB	2727410	n/a	LTP376	ltpFR2	19	n/a	n/a	n/a	8	17	5	6	6
1335.96875	n/a	STOP	2736064	n/a	LTP376	ltpFR2	19	n/a	n/a	n/a	8	n/a	n/a	n/a	n/a
1337.85693359375	n/a	REC_START	2739931	n/a	LTP376	ltpFR2	19	6	n/a	n/a	n/a	n/a	0	0	0
1340.6787109375	n/a	REC_WORD	2745710	wordpools/wasnorm_wordpool_576.txt	LTP376	ltpFR2	19	6	GYMNAST	675	n/a	n/a	0	0	0
1341.91162109375	n/a	REC_WORD	2748235	wordpools/wasnorm_wordpool_576.txt	LTP376	ltpFR2	19	6	WOMAN	1620	n/a	n/a	0	0	0
1343.37158203125	n/a	REC_WORD	2751225	wordpools/wasnorm_wordpool_576.txt	LTP376	ltpFR2	19	6	THIEF	1456	n/a	n/a	0	0	0
1344.49853515625	n/a	REC_WORD	2753533	wordpools/wasnorm_wordpool_576.txt	LTP376	ltpFR2	19	6	JUGGLER	763	n/a	n/a	0	0	0
1346.5595703125	n/a	REC_WORD	2757754	wordpools/wasnorm_wordpool_576.txt	LTP376	ltpFR2	19	6	BUTCHER	203	n/a	n/a	0	0	0
1348.07958984375	n/a	REC_WORD	2760867	wordpools/wasnorm_wordpool_576.txt	LTP376	ltpFR2	19	6	GLOVE	642	n/a	n/a	0	0	0
1349.8974609375	n/a	REC_WORD	2764590	wordpools/wasnorm_wordpool_576.txt	LTP376	ltpFR2	19	6	TEMPLE	1448	n/a	n/a	0	0	0
1351.04833984375	n/a	REC_WORD	2766947	wordpools/wasnorm_wordpool_576.txt	LTP376	ltpFR2	19	6	CHURCH	307	n/a	n/a	0	0	0
1373.61572265625	n/a	REC_WORD	2813165	wordpools/wasnorm_wordpool_576.txt	LTP376	ltpFR2	19	6	COFFEE	341	n/a	n/a	0	0	0
1428.29736328125	n/a	DISTRACTOR	2925153	n/a	LTP376	ltpFR2	19	7	n/a	n/a	n/a	n/a	0	0	0
1428.29736328125	n/a	START	2925153	n/a	LTP376	ltpFR2	19	n/a	n/a	n/a	9	n/a	n/a	n/a	n/a
1428.31396484375	n/a	PROB	2925187	n/a	LTP376	ltpFR2	19	n/a	n/a	n/a	9	9	3	2	4
1432.22900390625	n/a	PROB	2933205	n/a	LTP376	ltpFR2	19	n/a	n/a	n/a	9	15	1	9	5
1433.89404296875	n/a	PROB	2936615	n/a	LTP376	ltpFR2	19	n/a	n/a	n/a	9	18	5	8	5
1435.82568359375	n/a	PROB	2940571	n/a	LTP376	ltpFR2	19	n/a	n/a	n/a	9	11	2	6	3
1437.82470703125	n/a	PROB	2944665	n/a	LTP376	ltpFR2	19	n/a	n/a	n/a	9	11	3	6	2
1440.37451171875	n/a	PROB	2949887	n/a	LTP376	ltpFR2	19	n/a	n/a	n/a	9	12	2	5	5
1441.6396484375	n/a	PROB	2952478	n/a	LTP376	ltpFR2	19	n/a	n/a	n/a	9	14	4	5	5
1443.37353515625	n/a	PROB	2956029	n/a	LTP376	ltpFR2	19	n/a	n/a	n/a	9	16	8	4	4
1445.57275390625	n/a	PROB	2960533	n/a	LTP376	ltpFR2	19	n/a	n/a	n/a	9	18	6	8	4
1448.61962890625	n/a	PROB	2966773	n/a	LTP376	ltpFR2	19	n/a	n/a	n/a	9	17	8	7	2
1450.685546875	n/a	PROB	2971004	n/a	LTP376	ltpFR2	19	n/a	n/a	n/a	9	6	2	2	2
1451.75146484375	n/a	STOP	2973187	n/a	LTP376	ltpFR2	19	n/a	n/a	n/a	9	n/a	n/a	n/a	n/a
1453.435546875	n/a	WORD	2976636	wordpools/wasnorm_wordpool_576.txt	LTP376	ltpFR2	19	7	CHIPMUNK	304	n/a	n/a	0	0	0
1456.25048828125	n/a	WORD	2982401	wordpools/wasnorm_wordpool_576.txt	LTP376	ltpFR2	19	7	PISTON	1076	n/a	n/a	0	0	0
1458.71533203125	n/a	WORD	2987449	wordpools/wasnorm_wordpool_576.txt	LTP376	ltpFR2	19	7	BULLET	194	n/a	n/a	0	0	0
1461.46533203125	n/a	WORD	2993081	wordpools/wasnorm_wordpool_576.txt	LTP376	ltpFR2	19	7	CRITIC	410	n/a	n/a	0	0	0
1464.26318359375	n/a	WORD	2998811	wordpools/wasnorm_wordpool_576.txt	LTP376	ltpFR2	19	7	COSTUME	383	n/a	n/a	0	0	0
1467.0439453125	n/a	WORD	3004506	wordpools/wasnorm_wordpool_576.txt	LTP376	ltpFR2	19	7	SNACK	1331	n/a	n/a	0	0	0
1469.65966796875	n/a	WORD	3009863	wordpools/wasnorm_wordpool_576.txt	LTP376	ltpFR2	19	7	POSSUM	1112	n/a	n/a	0	0	0
1472.29296875	n/a	WORD	3015256	wordpools/wasnorm_wordpool_576.txt	LTP376	ltpFR2	19	7	NOMAD	955	n/a	n/a	0	0	0
1475.07373046875	n/a	WORD	3020951	wordpools/wasnorm_wordpool_576.txt	LTP376	ltpFR2	19	7	ROBBER	1197	n/a	n/a	0	0	0
1477.8056640625	n/a	WORD	3026546	wordpools/wasnorm_wordpool_576.txt	LTP376	ltpFR2	19	7	BURGLAR	200	n/a	n/a	0	0	0
1480.28857421875	n/a	WORD	3031631	wordpools/wasnorm_wordpool_576.txt	LTP376	ltpFR2	19	7	TAXI	1438	n/a	n/a	0	0	0
1482.78662109375	n/a	WORD	3036747	wordpools/wasnorm_wordpool_576.txt	LTP376	ltpFR2	19	7	MOTEL	919	n/a	n/a	0	0	0
1485.453125	n/a	WORD	3042208	wordpools/wasnorm_wordpool_576.txt	LTP376	ltpFR2	19	7	BREAST	171	n/a	n/a	0	0	0
1488.0673828125	n/a	WORD	3047562	wordpools/wasnorm_wordpool_576.txt	LTP376	ltpFR2	19	7	PASTRY	1022	n/a	n/a	0	0	0
1490.583984375	n/a	WORD	3052716	wordpools/wasnorm_wordpool_576.txt	LTP376	ltpFR2	19	7	SURVEY	1414	n/a	n/a	0	0	0
1493.14892578125	n/a	WORD	3057969	wordpools/wasnorm_wordpool_576.txt	LTP376	ltpFR2	19	7	ISLAND	745	n/a	n/a	0	0	0
1495.64697265625	n/a	WORD	3063085	wordpools/wasnorm_wordpool_576.txt	LTP376	ltpFR2	19	7	FLASHLIGHT	575	n/a	n/a	0	0	0
1498.3798828125	n/a	WORD	3068682	wordpools/wasnorm_wordpool_576.txt	LTP376	ltpFR2	19	7	LASER	801	n/a	n/a	0	0	0
1500.86083984375	n/a	WORD	3073763	wordpools/wasnorm_wordpool_576.txt	LTP376	ltpFR2	19	7	RECEIPT	1173	n/a	n/a	0	0	0
1503.642578125	n/a	WORD	3079460	wordpools/wasnorm_wordpool_576.txt	LTP376	ltpFR2	19	7	XEROX	1628	n/a	n/a	0	0	0
1506.24267578125	n/a	WORD	3084785	wordpools/wasnorm_wordpool_576.txt	LTP376	ltpFR2	19	7	CANYON	235	n/a	n/a	0	0	0
1508.70751953125	n/a	WORD	3089833	wordpools/wasnorm_wordpool_576.txt	LTP376	ltpFR2	19	7	REPORT	1184	n/a	n/a	0	0	0
1511.40771484375	n/a	WORD	3095363	wordpools/wasnorm_wordpool_576.txt	LTP376	ltpFR2	19	7	OX	994	n/a	n/a	0	0	0
1514.1396484375	n/a	WORD	3100958	wordpools/wasnorm_wordpool_576.txt	LTP376	ltpFR2	19	7	BEAVER	109	n/a	n/a	0	0	0
1515.75439453125	n/a	START	3104265	n/a	LTP376	ltpFR2	19	n/a	n/a	n/a	10	n/a	n/a	n/a	n/a
1516.7255859375	n/a	DISTRACTOR	3106254	n/a	LTP376	ltpFR2	19	7	n/a	n/a	n/a	n/a	0	0	0
1516.736328125	n/a	PROB	3106276	n/a	LTP376	ltpFR2	19	n/a	n/a	n/a	10	11	1	8	2
1520.08544921875	n/a	PROB	3113135	n/a	LTP376	ltpFR2	19	n/a	n/a	n/a	10	12	5	3	4
1522.10107421875	n/a	PROB	3117263	n/a	LTP376	ltpFR2	19	n/a	n/a	n/a	10	14	8	5	1
1524.18408203125	n/a	PROB	3121529	n/a	LTP376	ltpFR2	19	n/a	n/a	n/a	10	13	4	7	2
1526.43310546875	n/a	PROB	3126135	n/a	LTP376	ltpFR2	19	n/a	n/a	n/a	10	21	5	8	8
1530.36474609375	n/a	PROB	3134187	n/a	LTP376	ltpFR2	19	n/a	n/a	n/a	10	13	3	6	4
1531.9130859375	n/a	PROB	3137358	n/a	LTP376	ltpFR2	19	n/a	n/a	n/a	10	15	5	6	4
1533.4970703125	n/a	PROB	3140602	n/a	LTP376	ltpFR2	19	n/a	n/a	n/a	10	9	4	4	1
1534.794921875	n/a	PROB	3143260	n/a	LTP376	ltpFR2	19	n/a	n/a	n/a	10	13	8	1	4
1536.32861328125	n/a	PROB	3146401	n/a	LTP376	ltpFR2	19	n/a	n/a	n/a	10	18	9	3	6
1539.18359375	n/a	STOP	3152248	n/a	LTP376	ltpFR2	19	n/a	n/a	n/a	10	n/a	n/a	n/a	n/a
1541.69140625	n/a	REC_START	3157384	n/a	LTP376	ltpFR2	19	7	n/a	n/a	n/a	n/a	0	0	0
1542.78466796875	n/a	REC_WORD	3159623	wordpools/wasnorm_wordpool_576.txt	LTP376	ltpFR2	19	7	ROBBER	1197	n/a	n/a	0	0	0
1544.21240234375	n/a	REC_WORD	3162547	wordpools/wasnorm_wordpool_576.txt	LTP376	ltpFR2	19	7	BURGLAR	200	n/a	n/a	0	0	0
1547.83837890625	n/a	REC_WORD	3169973	wordpools/wasnorm_wordpool_576.txt	LTP376	ltpFR2	19	7	NOMAD	955	n/a	n/a	0	0	0
1551.8955078125	n/a	REC_WORD	3178282	wordpools/wasnorm_wordpool_576.txt	LTP376	ltpFR2	19	7	COSTUME	383	n/a	n/a	0	0	0
1560.48095703125	n/a	REC_WORD	3195865	wordpools/wasnorm_wordpool_576.txt	LTP376	ltpFR2	19	7	CHIPMUNK	304	n/a	n/a	0	0	0
1562.05908203125	n/a	REC_WORD	3199097	wordpools/wasnorm_wordpool_576.txt	LTP376	ltpFR2	19	7	POSSUM	1112	n/a	n/a	0	0	0
1632.14892578125	n/a	WORD	3342641	wordpools/wasnorm_wordpool_576.txt	LTP376	ltpFR2	19	8	MONSTER	912	n/a	n/a	0	0	0
1634.77978515625	n/a	WORD	3348029	wordpools/wasnorm_wordpool_576.txt	LTP376	ltpFR2	19	8	RECORD	1176	n/a	n/a	0	0	0
1637.396484375	n/a	WORD	3353388	wordpools/wasnorm_wordpool_576.txt	LTP376	ltpFR2	19	8	CHEST	295	n/a	n/a	0	0	0
1639.927734375	n/a	WORD	3358572	wordpools/wasnorm_wordpool_576.txt	LTP376	ltpFR2	19	8	STICKER	1382	n/a	n/a	0	0	0
1642.6923828125	n/a	WORD	3364234	wordpools/wasnorm_wordpool_576.txt	LTP376	ltpFR2	19	8	AGENT	10	n/a	n/a	0	0	0
1645.3583984375	n/a	WORD	3369694	wordpools/wasnorm_wordpool_576.txt	LTP376	ltpFR2	19	8	PIGEON	1065	n/a	n/a	0	0	0
1647.95654296875	n/a	WORD	3375015	wordpools/wasnorm_wordpool_576.txt	LTP376	ltpFR2	19	8	MEDAL	885	n/a	n/a	0	0	0
1650.39013671875	n/a	WORD	3379999	wordpools/wasnorm_wordpool_576.txt	LTP376	ltpFR2	19	8	TRUCK	1512	n/a	n/a	0	0	0
1653.0712890625	n/a	WORD	3385490	wordpools/wasnorm_wordpool_576.txt	LTP376	ltpFR2	19	8	SUSPECT	1415	n/a	n/a	0	0	0
1655.85302734375	n/a	WORD	3391187	wordpools/wasnorm_wordpool_576.txt	LTP376	ltpFR2	19	8	VICTIM	1562	n/a	n/a	0	0	0
1658.5361328125	n/a	WORD	3396682	wordpools/wasnorm_wordpool_576.txt	LTP376	ltpFR2	19	8	PRINCESS	1125	n/a	n/a	0	0	0
1661.2177734375	n/a	WORD	3402174	wordpools/wasnorm_wordpool_576.txt	LTP376	ltpFR2	19	8	PACKAGE	997	n/a	n/a	0	0	0
1663.86572265625	n/a	WORD	3407597	wordpools/wasnorm_wordpool_576.txt	LTP376	ltpFR2	19	8	LUNCH	849	n/a	n/a	0	0	0
1666.53173828125	n/a	WORD	3413057	wordpools/wasnorm_wordpool_576.txt	LTP376	ltpFR2	19	8	THRONE	1461	n/a	n/a	0	0	0
1669.013671875	n/a	WORD	3418140	wordpools/wasnorm_wordpool_576.txt	LTP376	ltpFR2	19	8	MONEY	908	n/a	n/a	0	0	0
1671.52978515625	n/a	WORD	3423293	wordpools/wasnorm_wordpool_576.txt	LTP376	ltpFR2	19	8	UNCLE	1536	n/a	n/a	0	0	0
1674.07763671875	n/a	WORD	3428511	wordpools/wasnorm_wordpool_576.txt	LTP376	ltpFR2	19	8	SALAD	1224	n/a	n/a	0	0	0
1676.859375	n/a	WORD	3434208	wordpools/wasnorm_wordpool_576.txt	LTP376	ltpFR2	19	8	HARP	689	n/a	n/a	0	0	0
1679.34228515625	n/a	WORD	3439293	wordpools/wasnorm_wordpool_576.txt	LTP376	ltpFR2	19	8	PALACE	1006	n/a	n/a	0	0	0
1682.158203125	n/a	WORD	3445060	wordpools/wasnorm_wordpool_576.txt	LTP376	ltpFR2	19	8	FRIAR	605	n/a	n/a	0	0	0
1684.67236328125	n/a	WORD	3450209	wordpools/wasnorm_wordpool_576.txt	LTP376	ltpFR2	19	8	BABY	64	n/a	n/a	0	0	0
1687.10400390625	n/a	WORD	3455189	wordpools/wasnorm_wordpool_576.txt	LTP376	ltpFR2	19	8	TRIBE	1505	n/a	n/a	0	0	0
1689.8701171875	n/a	WORD	3460854	wordpools/wasnorm_wordpool_576.txt	LTP376	ltpFR2	19	8	DAISY	435	n/a	n/a	0	0	0
1692.5029296875	n/a	WORD	3466246	wordpools/wasnorm_wordpool_576.txt	LTP376	ltpFR2	19	8	LILY	821	n/a	n/a	0	0	0
1694.119140625	n/a	START	3469556	n/a	LTP376	ltpFR2	19	n/a	n/a	n/a	11	n/a	n/a	n/a	n/a
1695.12109375	n/a	DISTRACTOR	3471608	n/a	LTP376	ltpFR2	19	8	n/a	n/a	n/a	n/a	0	0	0
1695.134765625	n/a	PROB	3471636	n/a	LTP376	ltpFR2	19	n/a	n/a	n/a	11	8	2	3	3
1697.0498046875	n/a	PROB	3475558	n/a	LTP376	ltpFR2	19	n/a	n/a	n/a	11	23	7	8	8
1705.19677734375	n/a	PROB	3492243	n/a	LTP376	ltpFR2	19	n/a	n/a	n/a	11	17	9	5	3
1707.6943359375	n/a	PROB	3497358	n/a	LTP376	ltpFR2	19	n/a	n/a	n/a	11	15	9	3	2
1709.3115234375	n/a	PROB	3500670	n/a	LTP376	ltpFR2	19	n/a	n/a	n/a	11	14	4	7	3
1711.775390625	n/a	PROB	3505716	n/a	LTP376	ltpFR2	19	n/a	n/a	n/a	11	13	8	2	3
1718.1181640625	n/a	STOP	3518706	n/a	LTP376	ltpFR2	19	n/a	n/a	n/a	11	n/a	n/a	n/a	n/a
1719.92236328125	n/a	REC_START	3522401	n/a	LTP376	ltpFR2	19	8	n/a	n/a	n/a	n/a	0	0	0
1726.43994140625	n/a	REC_WORD	3535749	wordpools/wasnorm_wordpool_576.txt	LTP376	ltpFR2	19	8	AGENT	10	n/a	n/a	0	0	0
1728.14013671875	n/a	REC_WORD	3539231	wordpools/wasnorm_wordpool_576.txt	LTP376	ltpFR2	19	8	SUSPECT	1415	n/a	n/a	0	0	0
1729.1396484375	n/a	REC_WORD_VV	3541278	wordpools/wasnorm_wordpool_576.txt	LTP376	ltpFR2	19	8	<>	-1	n/a	n/a	0	0	0
1731.1826171875	n/a	REC_WORD	3545462	wordpools/wasnorm_wordpool_576.txt	LTP376	ltpFR2	19	8	VICTIM	1562	n/a	n/a	0	0	0
1733.45361328125	n/a	REC_WORD	3550113	wordpools/wasnorm_wordpool_576.txt	LTP376	ltpFR2	19	8	PRINCESS	1125	n/a	n/a	0	0	0
1735.95751953125	n/a	REC_WORD	3555241	wordpools/wasnorm_wordpool_576.txt	LTP376	ltpFR2	19	8	PALACE	1006	n/a	n/a	0	0	0
1738.20654296875	n/a	REC_WORD	3559847	wordpools/wasnorm_wordpool_576.txt	LTP376	ltpFR2	19	8	UNCLE	1536	n/a	n/a	0	0	0
1740.57861328125	n/a	REC_WORD	3564705	wordpools/wasnorm_wordpool_576.txt	LTP376	ltpFR2	19	8	MONEY	908	n/a	n/a	0	0	0
1743.072265625	n/a	REC_WORD	3569812	wordpools/wasnorm_wordpool_576.txt	LTP376	ltpFR2	19	8	THRONE	1461	n/a	n/a	0	0	0
1770.0146484375	n/a	REC_WORD	3624990	wordpools/wasnorm_wordpool_576.txt	LTP376	ltpFR2	19	8	PALACE	1006	n/a	n/a	0	0	0
1796.45263671875	n/a	REST_REWET	3679135	n/a	LTP376	ltpFR2	19	8	n/a	n/a	n/a	n/a	0	0	0
2000.4033203125	n/a	DISTRACTOR	4096826	n/a	LTP376	ltpFR2	19	9	n/a	n/a	n/a	n/a	0	0	0
2000.4033203125	n/a	START	4096826	n/a	LTP376	ltpFR2	19	n/a	n/a	n/a	12	n/a	n/a	n/a	n/a
2000.42041015625	n/a	PROB	4096861	n/a	LTP376	ltpFR2	19	n/a	n/a	n/a	12	16	6	7	3
2002.236328125	n/a	PROB	4100580	n/a	LTP376	ltpFR2	19	n/a	n/a	n/a	12	21	4	8	9
2010.38232421875	n/a	PROB	4117263	n/a	LTP376	ltpFR2	19	n/a	n/a	n/a	12	10	1	4	5
2012.48095703125	n/a	PROB	4121561	n/a	LTP376	ltpFR2	19	n/a	n/a	n/a	12	19	2	9	8
2017.01123046875	n/a	PROB	4130839	n/a	LTP376	ltpFR2	19	n/a	n/a	n/a	12	18	7	7	4
2019.2607421875	n/a	PROB	4135446	n/a	LTP376	ltpFR2	19	n/a	n/a	n/a	12	12	7	1	4
2021.57568359375	n/a	PROB	4140187	n/a	LTP376	ltpFR2	19	n/a	n/a	n/a	12	11	4	5	3
2023.90283203125	n/a	STOP	4144953	n/a	LTP376	ltpFR2	19	n/a	n/a	n/a	12	n/a	n/a	n/a	n/a
2025.49169921875	n/a	WORD	4148207	wordpools/wasnorm_wordpool_576.txt	LTP376	ltpFR2	19	9	MISSILE	900	n/a	n/a	0	0	0
2028.1904296875	n/a	WORD	4153734	wordpools/wasnorm_wordpool_576.txt	LTP376	ltpFR2	19	9	SERVER	1272	n/a	n/a	0	0	0
2030.92138671875	n/a	WORD	4159327	wordpools/wasnorm_wordpool_576.txt	LTP376	ltpFR2	19	9	OZONE	996	n/a	n/a	0	0	0
2033.58642578125	n/a	WORD	4164785	wordpools/wasnorm_wordpool_576.txt	LTP376	ltpFR2	19	9	BALLOON	75	n/a	n/a	0	0	0
2036.236328125	n/a	WORD	4170212	wordpools/wasnorm_wordpool_576.txt	LTP376	ltpFR2	19	9	KEEPER	769	n/a	n/a	0	0	0
2038.88427734375	n/a	WORD	4175635	wordpools/wasnorm_wordpool_576.txt	LTP376	ltpFR2	19	9	GARDEN	623	n/a	n/a	0	0	0
2041.50048828125	n/a	WORD	4180993	wordpools/wasnorm_wordpool_576.txt	LTP376	ltpFR2	19	9	GRAPE	654	n/a	n/a	0	0	0
2043.998046875	n/a	WORD	4186108	wordpools/wasnorm_wordpool_576.txt	LTP376	ltpFR2	19	9	BATHTUB	100	n/a	n/a	0	0	0
2046.7802734375	n/a	WORD	4191806	wordpools/wasnorm_wordpool_576.txt	LTP376	ltpFR2	19	9	WITNESS	1618	n/a	n/a	0	0	0
2049.4140625	n/a	WORD	4197200	wordpools/wasnorm_wordpool_576.txt	LTP376	ltpFR2	19	9	JUDGE	761	n/a	n/a	0	0	0
2051.927734375	n/a	WORD	4202348	wordpools/wasnorm_wordpool_576.txt	LTP376	ltpFR2	19	9	RATTLE	1170	n/a	n/a	0	0	0
2054.3779296875	n/a	WORD	4207366	wordpools/wasnorm_wordpool_576.txt	LTP376	ltpFR2	19	9	CHILD	299	n/a	n/a	0	0	0
2057.0087890625	n/a	WORD	4212754	wordpools/wasnorm_wordpool_576.txt	LTP376	ltpFR2	19	9	SUNSET	1408	n/a	n/a	0	0	0
2059.60791015625	n/a	WORD	4218077	wordpools/wasnorm_wordpool_576.txt	LTP376	ltpFR2	19	9	FLAG	573	n/a	n/a	0	0	0
2062.423828125	n/a	WORD	4223844	wordpools/wasnorm_wordpool_576.txt	LTP376	ltpFR2	19	9	DOUGHNUT	490	n/a	n/a	0	0	0
2065.189453125	n/a	WORD	4229508	wordpools/wasnorm_wordpool_576.txt	LTP376	ltpFR2	19	9	HORSE	719	n/a	n/a	0	0	0
2067.736328125	n/a	WORD	4234724	wordpools/wasnorm_wordpool_576.txt	LTP376	ltpFR2	19	9	WORKER	1621	n/a	n/a	0	0	0
2070.55322265625	n/a	WORD	4240493	wordpools/wasnorm_wordpool_576.txt	LTP376	ltpFR2	19	9	LODGE	839	n/a	n/a	0	0	0
2072.984375	n/a	WORD	4245472	wordpools/wasnorm_wordpool_576.txt	LTP376	ltpFR2	19	9	DORM	488	n/a	n/a	0	0	0
2075.60009765625	n/a	WORD	4250829	wordpools/wasnorm_wordpool_576.txt	LTP376	ltpFR2	19	9	ORCHID	982	n/a	n/a	0	0	0
2078.416015625	n/a	WORD	4256596	wordpools/wasnorm_wordpool_576.txt	LTP376	ltpFR2	19	9	REBEL	1172	n/a	n/a	0	0	0
2080.89697265625	n/a	WORD	4261677	wordpools/wasnorm_wordpool_576.txt	LTP376	ltpFR2	19	9	TUTU	1524	n/a	n/a	0	0	0
2083.330078125	n/a	WORD	4266660	wordpools/wasnorm_wordpool_576.txt	LTP376	ltpFR2	19	9	TWEEZERS	1526	n/a	n/a	0	0	0
2085.8779296875	n/a	WORD	4271878	wordpools/wasnorm_wordpool_576.txt	LTP376	ltpFR2	19	9	COWBOY	395	n/a	n/a	0	0	0
2087.49462890625	n/a	START	4275189	n/a	LTP376	ltpFR2	19	n/a	n/a	n/a	13	n/a	n/a	n/a	n/a
2088.56884765625	n/a	DISTRACTOR	4277389	n/a	LTP376	ltpFR2	19	9	n/a	n/a	n/a	n/a	0	0	0
2088.57666015625	n/a	PROB	4277405	n/a	LTP376	ltpFR2	19	n/a	n/a	n/a	13	13	7	2	4
2091.509765625	n/a	PROB	4283412	n/a	LTP376	ltpFR2	19	n/a	n/a	n/a	13	14	2	9	4
2096.62255859375	n/a	PROB	4293883	n/a	LTP376	ltpFR2	19	n/a	n/a	n/a	13	15	4	6	5
2100.5224609375	n/a	PROB	4301870	n/a	LTP376	ltpFR2	19	n/a	n/a	n/a	13	19	9	8	2
2102.03759765625	n/a	PROB	4304973	n/a	LTP376	ltpFR2	19	n/a	n/a	n/a	13	15	3	7	5
2103.7861328125	n/a	PROB	4308554	n/a	LTP376	ltpFR2	19	n/a	n/a	n/a	13	8	5	2	1
2106.68408203125	n/a	PROB	4314489	n/a	LTP376	ltpFR2	19	n/a	n/a	n/a	13	23	9	7	7
2108.75	n/a	PROB	4318720	n/a	LTP376	ltpFR2	19	n/a	n/a	n/a	13	9	1	6	2
2110.96630859375	n/a	STOP	4323259	n/a	LTP376	ltpFR2	19	n/a	n/a	n/a	13	n/a	n/a	n/a	n/a
2113.26611328125	n/a	REC_START	4327969	n/a	LTP376	ltpFR2	19	9	n/a	n/a	n/a	n/a	0	0	0
2114.54296875	n/a	REC_WORD	4330584	wordpools/wasnorm_wordpool_576.txt	LTP376	ltpFR2	19	9	JUDGE	761	n/a	n/a	0	0	0
2115.44287109375	n/a	REC_WORD	4332427	wordpools/wasnorm_wordpool_576.txt	LTP376	ltpFR2	19	9	WORKER	1621	n/a	n/a	0	0	0
2116.93505859375	n/a	REC_WORD	4335483	wordpools/wasnorm_wordpool_576.txt	LTP376	ltpFR2	19	9	WITNESS	1618	n/a	n/a	0	0	0
2118.14501953125	n/a	REC_WORD	4337961	wordpools/wasnorm_wordpool_576.txt	LTP376	ltpFR2	19	9	REBEL	1172	n/a	n/a	0	0	0
2119.92578125	n/a	REC_WORD	4341608	wordpools/wasnorm_wordpool_576.txt	LTP376	ltpFR2	19	9	CHILD	299	n/a	n/a	0	0	0
2121.68701171875	n/a	REC_WORD	4345215	wordpools/wasnorm_wordpool_576.txt	LTP376	ltpFR2	19	9	COWBOY	395	n/a	n/a	0	0	0
2124.57568359375	n/a	REC_WORD	4351131	wordpools/wasnorm_wordpool_576.txt	LTP376	ltpFR2	19	9	GARDEN	623	n/a	n/a	0	0	0
2126.77880859375	n/a	REC_WORD	4355643	wordpools/wasnorm_wordpool_576.txt	LTP376	ltpFR2	19	9	GRAPE	654	n/a	n/a	0	0	0
2128.9345703125	n/a	REC_WORD	4360058	wordpools/wasnorm_wordpool_576.txt	LTP376	ltpFR2	19	9	MISSILE	900	n/a	n/a	0	0	0
2130.20361328125	n/a	REC_WORD	4362657	wordpools/wasnorm_wordpool_576.txt	LTP376	ltpFR2	19	9	OZONE	996	n/a	n/a	0	0	0
2131.58935546875	n/a	REC_WORD	4365495	wordpools/wasnorm_wordpool_576.txt	LTP376	ltpFR2	19	9	BALLOON	75	n/a	n/a	0	0	0
2203.6875	n/a	DISTRACTOR	4513152	n/a	LTP376	ltpFR2	19	10	n/a	n/a	n/a	n/a	0	0	0
2203.6884765625	n/a	START	4513154	n/a	LTP376	ltpFR2	19	n/a	n/a	n/a	14	n/a	n/a	n/a	n/a
2203.7041015625	n/a	PROB	4513186	n/a	LTP376	ltpFR2	19	n/a	n/a	n/a	14	21	8	7	8
2209.7509765625	n/a	PROB	4525570	n/a	LTP376	ltpFR2	19	n/a	n/a	n/a	14	13	3	6	4
2211.6669921875	n/a	PROB	4529494	n/a	LTP376	ltpFR2	19	n/a	n/a	n/a	14	11	6	2	3
2213.9658203125	n/a	PROB	4534202	n/a	LTP376	ltpFR2	19	n/a	n/a	n/a	14	10	6	1	3
2215.98193359375	n/a	PROB	4538331	n/a	LTP376	ltpFR2	19	n/a	n/a	n/a	14	17	8	6	3
2218.6806640625	n/a	PROB	4543858	n/a	LTP376	ltpFR2	19	n/a	n/a	n/a	14	7	1	3	3
2220.14794921875	n/a	PROB	4546863	n/a	LTP376	ltpFR2	19	n/a	n/a	n/a	14	225	8	7	6
2224.3955078125	n/a	PROB	4555562	n/a	LTP376	ltpFR2	19	n/a	n/a	n/a	14	15	7	1	6
2227.45556640625	n/a	STOP	4561829	n/a	LTP376	ltpFR2	19	n/a	n/a	n/a	14	n/a	n/a	n/a	n/a
2228.70849609375	n/a	WORD	4564395	wordpools/wasnorm_wordpool_576.txt	LTP376	ltpFR2	19	10	PISTOL	1075	n/a	n/a	0	0	0
2231.45849609375	n/a	WORD	4570027	wordpools/wasnorm_wordpool_576.txt	LTP376	ltpFR2	19	10	LOVER	846	n/a	n/a	0	0	0
2234.1904296875	n/a	WORD	4575622	wordpools/wasnorm_wordpool_576.txt	LTP376	ltpFR2	19	10	CRAB	397	n/a	n/a	0	0	0
2236.87109375	n/a	WORD	4581112	wordpools/wasnorm_wordpool_576.txt	LTP376	ltpFR2	19	10	PLAID	1080	n/a	n/a	0	0	0
2239.50537109375	n/a	WORD	4586507	wordpools/wasnorm_wordpool_576.txt	LTP376	ltpFR2	19	10	FRECKLE	602	n/a	n/a	0	0	0
2242.1533203125	n/a	WORD	4591930	wordpools/wasnorm_wordpool_576.txt	LTP376	ltpFR2	19	10	QUARTER	1148	n/a	n/a	0	0	0
2244.76806640625	n/a	WORD	4597285	wordpools/wasnorm_wordpool_576.txt	LTP376	ltpFR2	19	10	CATTLE	261	n/a	n/a	0	0	0
2247.40087890625	n/a	WORD	4602677	wordpools/wasnorm_wordpool_576.txt	LTP376	ltpFR2	19	10	FLUTE	585	n/a	n/a	0	0	0
2249.8486328125	n/a	WORD	4607690	wordpools/wasnorm_wordpool_576.txt	LTP376	ltpFR2	19	10	DRUG	501	n/a	n/a	0	0	0
2252.48193359375	n/a	WORD	4613083	wordpools/wasnorm_wordpool_576.txt	LTP376	ltpFR2	19	10	WASHER	1592	n/a	n/a	0	0	0
2254.99658203125	n/a	WORD	4618233	wordpools/wasnorm_wordpool_576.txt	LTP376	ltpFR2	19	10	JUNGLE	764	n/a	n/a	0	0	0
2257.79443359375	n/a	WORD	4623963	wordpools/wasnorm_wordpool_576.txt	LTP376	ltpFR2	19	10	PRIMATE	1123	n/a	n/a	0	0	0
2260.560546875	n/a	WORD	4629628	wordpools/wasnorm_wordpool_576.txt	LTP376	ltpFR2	19	10	SEAFOOD	1260	n/a	n/a	0	0	0
2263.1435546875	n/a	WORD	4634918	wordpools/wasnorm_wordpool_576.txt	LTP376	ltpFR2	19	10	CLOUD	328	n/a	n/a	0	0	0
2265.80712890625	n/a	WORD	4640373	wordpools/wasnorm_wordpool_576.txt	LTP376	ltpFR2	19	10	PLIERS	1089	n/a	n/a	0	0	0
2268.357421875	n/a	WORD	4645596	wordpools/wasnorm_wordpool_576.txt	LTP376	ltpFR2	19	10	HATCHET	691	n/a	n/a	0	0	0
2270.955078125	n/a	WORD	4650916	wordpools/wasnorm_wordpool_576.txt	LTP376	ltpFR2	19	10	PLUTO	1092	n/a	n/a	0	0	0
2273.7373046875	n/a	WORD	4656614	wordpools/wasnorm_wordpool_576.txt	LTP376	ltpFR2	19	10	COMET	353	n/a	n/a	0	0	0
2276.5029296875	n/a	WORD	4662278	wordpools/wasnorm_wordpool_576.txt	LTP376	ltpFR2	19	10	NOTEBOOK	959	n/a	n/a	0	0	0
2279.03515625	n/a	WORD	4667464	wordpools/wasnorm_wordpool_576.txt	LTP376	ltpFR2	19	10	ORANGE	980	n/a	n/a	0	0	0
2281.73291015625	n/a	WORD	4672989	wordpools/wasnorm_wordpool_576.txt	LTP376	ltpFR2	19	10	SKIRT	1319	n/a	n/a	0	0	0
2284.5498046875	n/a	WORD	4678758	wordpools/wasnorm_wordpool_576.txt	LTP376	ltpFR2	19	10	HEADBAND	696	n/a	n/a	0	0	0
2287.08056640625	n/a	WORD	4683941	wordpools/wasnorm_wordpool_576.txt	LTP376	ltpFR2	19	10	EXPERT	543	n/a	n/a	0	0	0
2289.595703125	n/a	WORD	4689092	wordpools/wasnorm_wordpool_576.txt	LTP376	ltpFR2	19	10	PIMPLE	1071	n/a	n/a	0	0	0
2291.21337890625	n/a	START	4692405	n/a	LTP376	ltpFR2	19	n/a	n/a	n/a	15	n/a	n/a	n/a	n/a
2292.1953125	n/a	DISTRACTOR	4694416	n/a	LTP376	ltpFR2	19	10	n/a	n/a	n/a	n/a	0	0	0
2292.21240234375	n/a	PROB	4694451	n/a	LTP376	ltpFR2	19	n/a	n/a	n/a	15	15	7	1	7
2295.111328125	n/a	PROB	4700388	n/a	LTP376	ltpFR2	19	n/a	n/a	n/a	15	19	3	8	8
2297.8583984375	n/a	PROB	4706014	n/a	LTP376	ltpFR2	19	n/a	n/a	n/a	15	17	7	1	8
2300.09130859375	n/a	PROB	4710587	n/a	LTP376	ltpFR2	19	n/a	n/a	n/a	15	14	8	1	5
2302.97314453125	n/a	PROB	4716489	n/a	LTP376	ltpFR2	19	n/a	n/a	n/a	15	5	2	1	2
2304.55615234375	n/a	PROB	4719731	n/a	LTP376	ltpFR2	19	n/a	n/a	n/a	15	17	6	9	2
2307.10498046875	n/a	PROB	4724951	n/a	LTP376	ltpFR2	19	n/a	n/a	n/a	15	19	7	4	8
2310.43701171875	n/a	PROB	4731775	n/a	LTP376	ltpFR2	19	n/a	n/a	n/a	15	16	2	6	8
2315.212890625	n/a	STOP	4741556	n/a	LTP376	ltpFR2	19	n/a	n/a	n/a	15	n/a	n/a	n/a	n/a
2317.0498046875	n/a	REC_START	4745318	n/a	LTP376	ltpFR2	19	10	n/a	n/a	n/a	n/a	0	0	0
2318.78857421875	n/a	REC_WORD	4748879	wordpools/wasnorm_wordpool_576.txt	LTP376	ltpFR2	19	10	DRUG	501	n/a	n/a	0	0	0
2319.9248046875	n/a	REC_WORD	4751206	wordpools/wasnorm_wordpool_576.txt	LTP376	ltpFR2	19	10	LOVER	846	n/a	n/a	0	0	0
2321.12060546875	n/a	REC_WORD	4753655	wordpools/wasnorm_wordpool_576.txt	LTP376	ltpFR2	19	10	PISTOL	1075	n/a	n/a	0	0	0
2322.82177734375	n/a	REC_WORD	4757139	wordpools/wasnorm_wordpool_576.txt	LTP376	ltpFR2	19	10	HATCHET	691	n/a	n/a	0	0	0
2324.5703125	n/a	REC_WORD	4760720	wordpools/wasnorm_wordpool_576.txt	LTP376	ltpFR2	19	10	SEAFOOD	1260	n/a	n/a	0	0	0
2326.04052734375	n/a	REC_WORD	4763731	wordpools/wasnorm_wordpool_576.txt	LTP376	ltpFR2	19	10	CRAB	397	n/a	n/a	0	0	0
2329.8642578125	n/a	REC_WORD	4771562	wordpools/wasnorm_wordpool_576.txt	LTP376	ltpFR2	19	10	PRIMATE	1123	n/a	n/a	0	0	0
2339.30419921875	n/a	REC_WORD	4790895	wordpools/wasnorm_wordpool_576.txt	LTP376	ltpFR2	19	10	PLAID	1080	n/a	n/a	0	0	0
2384.86962890625	n/a	REC_WORD	4884213	wordpools/wasnorm_wordpool_576.txt	LTP376	ltpFR2	19	10	NOTEBOOK	959	n/a	n/a	0	0	0
2407.490234375	n/a	DISTRACTOR	4930540	n/a	LTP376	ltpFR2	19	11	n/a	n/a	n/a	n/a	0	0	0
2407.490234375	n/a	START	4930540	n/a	LTP376	ltpFR2	19	n/a	n/a	n/a	16	n/a	n/a	n/a	n/a
2407.5068359375	n/a	PROB	4930574	n/a	LTP376	ltpFR2	19	n/a	n/a	n/a	16	24	9	6	9
2411.90380859375	n/a	PROB	4939579	n/a	LTP376	ltpFR2	19	n/a	n/a	n/a	16	21	6	7	8
2419.33447265625	n/a	PROB	4954797	n/a	LTP376	ltpFR2	19	n/a	n/a	n/a	16	19	6	4	9
2422.3994140625	n/a	PROB	4961074	n/a	LTP376	ltpFR2	19	n/a	n/a	n/a	16	14	4	1	9
2423.564453125	n/a	PROB	4963460	n/a	LTP376	ltpFR2	19	n/a	n/a	n/a	16	17	9	7	1
2425.38134765625	n/a	PROB	4967181	n/a	LTP376	ltpFR2	19	n/a	n/a	n/a	16	19	3	8	8
2427.29736328125	n/a	PROB	4971105	n/a	LTP376	ltpFR2	19	n/a	n/a	n/a	16	12	6	4	2
2431.4892578125	n/a	STOP	4979690	n/a	LTP376	ltpFR2	19	n/a	n/a	n/a	16	n/a	n/a	n/a	n/a
2432.42822265625	n/a	WORD	4981613	wordpools/wasnorm_wordpool_576.txt	LTP376	ltpFR2	19	11	SKETCH	1315	n/a	n/a	0	0	0
2434.97607421875	n/a	WORD	4986831	wordpools/wasnorm_wordpool_576.txt	LTP376	ltpFR2	19	11	MAPLE	866	n/a	n/a	0	0	0
2437.55810546875	n/a	WORD	4992119	wordpools/wasnorm_wordpool_576.txt	LTP376	ltpFR2	19	11	DASHBOARD	441	n/a	n/a	0	0	0
2440.19091796875	n/a	WORD	4997511	wordpools/wasnorm_wordpool_576.txt	LTP376	ltpFR2	19	11	CARROT	249	n/a	n/a	0	0	0
2442.8046875	n/a	WORD	5002864	wordpools/wasnorm_wordpool_576.txt	LTP376	ltpFR2	19	11	HEDGE	699	n/a	n/a	0	0	0
2445.35498046875	n/a	WORD	5008087	wordpools/wasnorm_wordpool_576.txt	LTP376	ltpFR2	19	11	WINDOW	1611	n/a	n/a	0	0	0
2447.98583984375	n/a	WORD	5013475	wordpools/wasnorm_wordpool_576.txt	LTP376	ltpFR2	19	11	CELLAR	267	n/a	n/a	0	0	0
2450.73486328125	n/a	WORD	5019105	wordpools/wasnorm_wordpool_576.txt	LTP376	ltpFR2	19	11	CRIB	407	n/a	n/a	0	0	0
2453.3017578125	n/a	WORD	5024362	wordpools/wasnorm_wordpool_576.txt	LTP376	ltpFR2	19	11	BUG	187	n/a	n/a	0	0	0
2455.91552734375	n/a	WORD	5029715	wordpools/wasnorm_wordpool_576.txt	LTP376	ltpFR2	19	11	PICTURE	1061	n/a	n/a	0	0	0
2458.515625	n/a	WORD	5035040	wordpools/wasnorm_wordpool_576.txt	LTP376	ltpFR2	19	11	PEANUT	1032	n/a	n/a	0	0	0
2460.9462890625	n/a	WORD	5040018	wordpools/wasnorm_wordpool_576.txt	LTP376	ltpFR2	19	11	PECAN	1036	n/a	n/a	0	0	0
2463.529296875	n/a	WORD	5045308	wordpools/wasnorm_wordpool_576.txt	LTP376	ltpFR2	19	11	BRAKE	166	n/a	n/a	0	0	0
2465.9599609375	n/a	WORD	5050286	wordpools/wasnorm_wordpool_576.txt	LTP376	ltpFR2	19	11	SAUSAGE	1238	n/a	n/a	0	0	0
2468.52734375	n/a	WORD	5055544	wordpools/wasnorm_wordpool_576.txt	LTP376	ltpFR2	19	11	MILDEW	893	n/a	n/a	0	0	0
2470.9580078125	n/a	WORD	5060522	wordpools/wasnorm_wordpool_576.txt	LTP376	ltpFR2	19	11	KETCHUP	771	n/a	n/a	0	0	0
2473.72412109375	n/a	WORD	5066187	wordpools/wasnorm_wordpool_576.txt	LTP376	ltpFR2	19	11	QUAIL	1147	n/a	n/a	0	0	0
2476.2568359375	n/a	WORD	5071374	wordpools/wasnorm_wordpool_576.txt	LTP376	ltpFR2	19	11	CASHEW	253	n/a	n/a	0	0	0
2478.70458984375	n/a	WORD	5076387	wordpools/wasnorm_wordpool_576.txt	LTP376	ltpFR2	19	11	MILK	895	n/a	n/a	0	0	0
2481.1875	n/a	WORD	5081472	wordpools/wasnorm_wordpool_576.txt	LTP376	ltpFR2	19	11	GARLIC	624	n/a	n/a	0	0	0
2483.8857421875	n/a	WORD	5086998	wordpools/wasnorm_wordpool_576.txt	LTP376	ltpFR2	19	11	BOX	159	n/a	n/a	0	0	0
2486.6005859375	n/a	WORD	5092558	wordpools/wasnorm_wordpool_576.txt	LTP376	ltpFR2	19	11	GIFT	635	n/a	n/a	0	0	0
2489.3505859375	n/a	WORD	5098190	wordpools/wasnorm_wordpool_576.txt	LTP376	ltpFR2	19	11	SWAMP	1416	n/a	n/a	0	0	0
2491.931640625	n/a	WORD	5103476	wordpools/wasnorm_wordpool_576.txt	LTP376	ltpFR2	19	11	WIFE	1609	n/a	n/a	0	0	0
2493.54833984375	n/a	START	5106787	n/a	LTP376	ltpFR2	19	n/a	n/a	n/a	17	n/a	n/a	n/a	n/a
2494.50244140625	n/a	DISTRACTOR	5108741	n/a	LTP376	ltpFR2	19	11	n/a	n/a	n/a	n/a	0	0	0
2494.51416015625	n/a	PROB	5108765	n/a	LTP376	ltpFR2	19	n/a	n/a	n/a	17	19	5	7	7
2496.76220703125	n/a	PROB	5113369	n/a	LTP376	ltpFR2	19	n/a	n/a	n/a	17	12	7	1	4
2498.578125	n/a	PROB	5117088	n/a	LTP376	ltpFR2	19	n/a	n/a	n/a	17	9	1	3	5
2501.59326171875	n/a	PROB	5123263	n/a	LTP376	ltpFR2	19	n/a	n/a	n/a	17	10	1	3	6
2504.97509765625	n/a	PROB	5130189	n/a	LTP376	ltpFR2	19	n/a	n/a	n/a	17	7	3	1	3
2508.35791015625	n/a	PROB	5137117	n/a	LTP376	ltpFR2	19	n/a	n/a	n/a	17	9	1	2	6
2510.1240234375	n/a	PROB	5140734	n/a	LTP376	ltpFR2	19	n/a	n/a	n/a	17	23	5	9	7
2517.54345703125	n/a	STOP	5155929	n/a	LTP376	ltpFR2	19	n/a	n/a	n/a	17	n/a	n/a	n/a	n/a
2519.41943359375	n/a	REC_START	5159771	n/a	LTP376	ltpFR2	19	11	n/a	n/a	n/a	n/a	0	0	0
2520.279296875	n/a	REC_WORD	5161532	wordpools/wasnorm_wordpool_576.txt	LTP376	ltpFR2	19	11	CASHEW	253	n/a	n/a	0	0	0
2521.43359375	n/a	REC_WORD	5163896	wordpools/wasnorm_wordpool_576.txt	LTP376	ltpFR2	19	11	MAPLE	866	n/a	n/a	0	0	0
2522.59130859375	n/a	REC_WORD	5166267	wordpools/wasnorm_wordpool_576.txt	LTP376	ltpFR2	19	11	MILK	895	n/a	n/a	0	0	0
2526.7724609375	n/a	REC_WORD	5174830	wordpools/wasnorm_wordpool_576.txt	LTP376	ltpFR2	19	11	QUAIL	1147	n/a	n/a	0	0	0
2530.14404296875	n/a	REC_WORD	5181735	wordpools/wasnorm_wordpool_576.txt	LTP376	ltpFR2	19	11	GARLIC	624	n/a	n/a	0	0	0
2531.30322265625	n/a	REC_WORD	5184109	wordpools/wasnorm_wordpool_576.txt	LTP376	ltpFR2	19	11	KETCHUP	771	n/a	n/a	0	0	0
2534.794921875	n/a	REC_WORD	5191260	wordpools/wasnorm_wordpool_576.txt	LTP376	ltpFR2	19	11	WIFE	1609	n/a	n/a	0	0	0
2609.85791015625	n/a	DISTRACTOR	5344989	n/a	LTP376	ltpFR2	19	12	n/a	n/a	n/a	n/a	0	0	0
2609.85791015625	n/a	START	5344989	n/a	LTP376	ltpFR2	19	n/a	n/a	n/a	18	n/a	n/a	n/a	n/a
2609.875	n/a	PROB	5345024	n/a	LTP376	ltpFR2	19	n/a	n/a	n/a	18	16	1	8	7
2614.189453125	n/a	PROB	5353860	n/a	LTP376	ltpFR2	19	n/a	n/a	n/a	18	21	5	7	9
2621.935546875	n/a	PROB	5369724	n/a	LTP376	ltpFR2	19	n/a	n/a	n/a	18	18	3	9	6
2624.7001953125	n/a	PROB	5375386	n/a	LTP376	ltpFR2	19	n/a	n/a	n/a	18	13	5	3	4
2628.2333984375	n/a	PROB	5382622	n/a	LTP376	ltpFR2	19	n/a	n/a	n/a	18	18	8	8	2
2630.71435546875	n/a	PROB	5387703	n/a	LTP376	ltpFR2	19	n/a	n/a	n/a	18	9	5	1	3
2632.69384765625	n/a	STOP	5391757	n/a	LTP376	ltpFR2	19	n/a	n/a	n/a	18	n/a	n/a	n/a	n/a
2634.87890625	n/a	WORD	5396232	wordpools/wasnorm_wordpool_576.txt	LTP376	ltpFR2	19	12	RIFLE	1192	n/a	n/a	0	0	0
2637.4619140625	n/a	WORD	5401522	wordpools/wasnorm_wordpool_576.txt	LTP376	ltpFR2	19	12	STAPLE	1371	n/a	n/a	0	0	0
2640.27783203125	n/a	WORD	5407289	wordpools/wasnorm_wordpool_576.txt	LTP376	ltpFR2	19	12	SCALPEL	1243	n/a	n/a	0	0	0
2642.85888671875	n/a	WORD	5412575	wordpools/wasnorm_wordpool_576.txt	LTP376	ltpFR2	19	12	NECKLACE	940	n/a	n/a	0	0	0
2645.54150390625	n/a	WORD	5418069	wordpools/wasnorm_wordpool_576.txt	LTP376	ltpFR2	19	12	COUCH	386	n/a	n/a	0	0	0
2648.1064453125	n/a	WORD	5423322	wordpools/wasnorm_wordpool_576.txt	LTP376	ltpFR2	19	12	LAVA	804	n/a	n/a	0	0	0
2650.67138671875	n/a	WORD	5428575	wordpools/wasnorm_wordpool_576.txt	LTP376	ltpFR2	19	12	STALLION	1369	n/a	n/a	0	0	0
2653.3212890625	n/a	WORD	5434002	wordpools/wasnorm_wordpool_576.txt	LTP376	ltpFR2	19	12	TYPIST	1532	n/a	n/a	0	0	0
2655.83544921875	n/a	WORD	5439151	wordpools/wasnorm_wordpool_576.txt	LTP376	ltpFR2	19	12	RIVER	1194	n/a	n/a	0	0	0
2658.55126953125	n/a	WORD	5444713	wordpools/wasnorm_wordpool_576.txt	LTP376	ltpFR2	19	12	SHIRT	1287	n/a	n/a	0	0	0
2661.35009765625	n/a	WORD	5450445	wordpools/wasnorm_wordpool_576.txt	LTP376	ltpFR2	19	12	JEANS	752	n/a	n/a	0	0	0
2664.04833984375	n/a	WORD	5455971	wordpools/wasnorm_wordpool_576.txt	LTP376	ltpFR2	19	12	DOLPHIN	483	n/a	n/a	0	0	0
2666.64697265625	n/a	WORD	5461293	wordpools/wasnorm_wordpool_576.txt	LTP376	ltpFR2	19	12	MAMMAL	861	n/a	n/a	0	0	0
2669.44677734375	n/a	WORD	5467027	wordpools/wasnorm_wordpool_576.txt	LTP376	ltpFR2	19	12	ZEBRA	1635	n/a	n/a	0	0	0
2671.927734375	n/a	WORD	5472108	wordpools/wasnorm_wordpool_576.txt	LTP376	ltpFR2	19	12	POET	1095	n/a	n/a	0	0	0
2674.642578125	n/a	WORD	5477668	wordpools/wasnorm_wordpool_576.txt	LTP376	ltpFR2	19	12	GRAVE	658	n/a	n/a	0	0	0
2677.29248046875	n/a	WORD	5483095	wordpools/wasnorm_wordpool_576.txt	LTP376	ltpFR2	19	12	JAPAN	749	n/a	n/a	0	0	0
2680.056640625	n/a	WORD	5488756	wordpools/wasnorm_wordpool_576.txt	LTP376	ltpFR2	19	12	HAMPER	682	n/a	n/a	0	0	0
2682.70556640625	n/a	WORD	5494181	wordpools/wasnorm_wordpool_576.txt	LTP376	ltpFR2	19	12	LETTUCE	814	n/a	n/a	0	0	0
2685.25537109375	n/a	WORD	5499403	wordpools/wasnorm_wordpool_576.txt	LTP376	ltpFR2	19	12	GAZELLE	628	n/a	n/a	0	0	0
2687.8203125	n/a	WORD	5504656	wordpools/wasnorm_wordpool_576.txt	LTP376	ltpFR2	19	12	OYSTER	995	n/a	n/a	0	0	0
2690.25341796875	n/a	WORD	5509639	wordpools/wasnorm_wordpool_576.txt	LTP376	ltpFR2	19	12	MUMMY	932	n/a	n/a	0	0	0
2692.80126953125	n/a	WORD	5514857	wordpools/wasnorm_wordpool_576.txt	LTP376	ltpFR2	19	12	RAZOR	1171	n/a	n/a	0	0	0
2695.5341796875	n/a	WORD	5520454	wordpools/wasnorm_wordpool_576.txt	LTP376	ltpFR2	19	12	ANTLER	29	n/a	n/a	0	0	0
2697.14990234375	n/a	START	5523763	n/a	LTP376	ltpFR2	19	n/a	n/a	n/a	19	n/a	n/a	n/a	n/a
2698.2412109375	n/a	DISTRACTOR	5525998	n/a	LTP376	ltpFR2	19	12	n/a	n/a	n/a	n/a	0	0	0
2698.2490234375	n/a	PROB	5526014	n/a	LTP376	ltpFR2	19	n/a	n/a	n/a	19	15	4	7	4
2703.86279296875	n/a	PROB	5537511	n/a	LTP376	ltpFR2	19	n/a	n/a	n/a	19	20	6	5	9
2706.22900390625	n/a	PROB	5542357	n/a	LTP376	ltpFR2	19	n/a	n/a	n/a	19	18	4	6	8
2708.1279296875	n/a	PROB	5546246	n/a	LTP376	ltpFR2	19	n/a	n/a	n/a	19	6	3	2	1
2710.2607421875	n/a	PROB	5550614	n/a	LTP376	ltpFR2	19	n/a	n/a	n/a	19	17	4	9	4
2712.62451171875	n/a	PROB	5555455	n/a	LTP376	ltpFR2	19	n/a	n/a	n/a	19	16	1	9	6
2713.974609375	n/a	PROB	5558220	n/a	LTP376	ltpFR2	19	n/a	n/a	n/a	19	14	6	2	6
2721.1494140625	n/a	STOP	5572914	n/a	LTP376	ltpFR2	19	n/a	n/a	n/a	19	n/a	n/a	n/a	n/a
2722.97119140625	n/a	REC_START	5576645	n/a	LTP376	ltpFR2	19	12	n/a	n/a	n/a	n/a	0	0	0
2724.43017578125	n/a	REC_WORD	5579633	wordpools/wasnorm_wordpool_576.txt	LTP376	ltpFR2	19	12	DOLPHIN	483	n/a	n/a	0	0	0
2725.205078125	n/a	REC_WORD	5581220	wordpools/wasnorm_wordpool_576.txt	LTP376	ltpFR2	19	12	MAMMAL	861	n/a	n/a	0	0	0
2726.21533203125	n/a	REC_WORD	5583289	wordpools/wasnorm_wordpool_576.txt	LTP376	ltpFR2	19	12	ZEBRA	1635	n/a	n/a	0	0	0
2727.96826171875	n/a	REC_WORD	5586879	wordpools/wasnorm_wordpool_576.txt	LTP376	ltpFR2	19	12	GAZELLE	628	n/a	n/a	0	0	0
2729.916015625	n/a	REC_WORD	5590868	wordpools/wasnorm_wordpool_576.txt	LTP376	ltpFR2	19	12	ANTLER	29	n/a	n/a	0	0	0
2733.0458984375	n/a	REC_WORD	5597278	wordpools/wasnorm_wordpool_576.txt	LTP376	ltpFR2	19	12	TYPIST	1532	n/a	n/a	0	0	0
2734.083984375	n/a	REC_WORD	5599404	wordpools/wasnorm_wordpool_576.txt	LTP376	ltpFR2	19	12	POET	1095	n/a	n/a	0	0	0
2740.16552734375	n/a	REC_WORD	5611859	wordpools/wasnorm_wordpool_576.txt	LTP376	ltpFR2	19	12	STAPLE	1371	n/a	n/a	0	0	0
2742.95068359375	n/a	REC_WORD	5617563	wordpools/wasnorm_wordpool_576.txt	LTP376	ltpFR2	19	12	SCALPEL	1243	n/a	n/a	0	0	0
2746.28662109375	n/a	REC_WORD	5624395	wordpools/wasnorm_wordpool_576.txt	LTP376	ltpFR2	19	12	RIFLE	1192	n/a	n/a	0	0	0
2773.70263671875	n/a	REC_WORD_VV	5680543	wordpools/wasnorm_wordpool_576.txt	LTP376	ltpFR2	19	12	<>	-1	n/a	n/a	0	0	0
2774.70263671875	n/a	REC_WORD_VV	5682591	wordpools/wasnorm_wordpool_576.txt	LTP376	ltpFR2	19	12	<>	-1	n/a	n/a	0	0	0
2826.5859375	n/a	WORD	5788848	wordpools/wasnorm_wordpool_576.txt	LTP376	ltpFR2	19	13	SPOUSE	1358	n/a	n/a	0	0	0
2829.2529296875	n/a	WORD	5794310	wordpools/wasnorm_wordpool_576.txt	LTP376	ltpFR2	19	13	LIGHTNING	820	n/a	n/a	0	0	0
2831.8671875	n/a	WORD	5799664	wordpools/wasnorm_wordpool_576.txt	LTP376	ltpFR2	19	13	DRAWING	494	n/a	n/a	0	0	0
2834.5	n/a	WORD	5805056	wordpools/wasnorm_wordpool_576.txt	LTP376	ltpFR2	19	13	SCULPTURE	1258	n/a	n/a	0	0	0
2837.19873046875	n/a	WORD	5810583	wordpools/wasnorm_wordpool_576.txt	LTP376	ltpFR2	19	13	CANDY	230	n/a	n/a	0	0	0
2839.66357421875	n/a	WORD	5815631	wordpools/wasnorm_wordpool_576.txt	LTP376	ltpFR2	19	13	BIKE	125	n/a	n/a	0	0	0
2842.44677734375	n/a	WORD	5821331	wordpools/wasnorm_wordpool_576.txt	LTP376	ltpFR2	19	13	EAGLE	512	n/a	n/a	0	0	0
2845.111328125	n/a	WORD	5826788	wordpools/wasnorm_wordpool_576.txt	LTP376	ltpFR2	19	13	PANTHER	1009	n/a	n/a	0	0	0
2847.75927734375	n/a	WORD	5832211	wordpools/wasnorm_wordpool_576.txt	LTP376	ltpFR2	19	13	MOTOR	922	n/a	n/a	0	0	0
2850.37548828125	n/a	WORD	5837569	wordpools/wasnorm_wordpool_576.txt	LTP376	ltpFR2	19	13	PUDDLE	1140	n/a	n/a	0	0	0
2853.04052734375	n/a	WORD	5843027	wordpools/wasnorm_wordpool_576.txt	LTP376	ltpFR2	19	13	WHISKERS	1605	n/a	n/a	0	0	0
2855.8720703125	n/a	WORD	5848826	wordpools/wasnorm_wordpool_576.txt	LTP376	ltpFR2	19	13	PARENT	1013	n/a	n/a	0	0	0
2858.55419921875	n/a	WORD	5854319	wordpools/wasnorm_wordpool_576.txt	LTP376	ltpFR2	19	13	SUPPER	1411	n/a	n/a	0	0	0
2861.18701171875	n/a	WORD	5859711	wordpools/wasnorm_wordpool_576.txt	LTP376	ltpFR2	19	13	WRENCH	1625	n/a	n/a	0	0	0
2863.7177734375	n/a	WORD	5864894	wordpools/wasnorm_wordpool_576.txt	LTP376	ltpFR2	19	13	CROWN	415	n/a	n/a	0	0	0
2866.41796875	n/a	WORD	5870424	wordpools/wasnorm_wordpool_576.txt	LTP376	ltpFR2	19	13	SKILLET	1317	n/a	n/a	0	0	0
2868.9990234375	n/a	WORD	5875710	wordpools/wasnorm_wordpool_576.txt	LTP376	ltpFR2	19	13	BLUEPRINT	142	n/a	n/a	0	0	0
2871.66455078125	n/a	WORD	5881169	wordpools/wasnorm_wordpool_576.txt	LTP376	ltpFR2	19	13	HERO	706	n/a	n/a	0	0	0
2874.21484375	n/a	WORD	5886392	wordpools/wasnorm_wordpool_576.txt	LTP376	ltpFR2	19	13	PEDAL	1037	n/a	n/a	0	0	0
2876.8115234375	n/a	WORD	5891710	wordpools/wasnorm_wordpool_576.txt	LTP376	ltpFR2	19	13	PEPPER	1047	n/a	n/a	0	0	0
2879.560546875	n/a	WORD	5897340	wordpools/wasnorm_wordpool_576.txt	LTP376	ltpFR2	19	13	BARLEY	88	n/a	n/a	0	0	0
2882.1103515625	n/a	WORD	5902562	wordpools/wasnorm_wordpool_576.txt	LTP376	ltpFR2	19	13	CRATER	400	n/a	n/a	0	0	0
2884.92431640625	n/a	WORD	5908325	wordpools/wasnorm_wordpool_576.txt	LTP376	ltpFR2	19	13	EMPIRE	530	n/a	n/a	0	0	0
2887.67333984375	n/a	WORD	5913955	wordpools/wasnorm_wordpool_576.txt	LTP376	ltpFR2	19	13	ASIA	46	n/a	n/a	0	0	0
2889.2900390625	n/a	START	5917266	n/a	LTP376	ltpFR2	19	n/a	n/a	n/a	20	n/a	n/a	n/a	n/a
2890.1513671875	n/a	DISTRACTOR	5919030	n/a	LTP376	ltpFR2	19	13	n/a	n/a	n/a	n/a	0	0	0
2890.15625	n/a	PROB	5919040	n/a	LTP376	ltpFR2	19	n/a	n/a	n/a	20	21	7	9	5
2896.287109375	n/a	PROB	5931596	n/a	LTP376	ltpFR2	19	n/a	n/a	n/a	20	7	1	3	3
2897.78515625	n/a	PROB	5934664	n/a	LTP376	ltpFR2	19	n/a	n/a	n/a	20	18	6	4	8
2900.01708984375	n/a	PROB	5939235	n/a	LTP376	ltpFR2	19	n/a	n/a	n/a	20	5	1	2	2
2901.5498046875	n/a	PROB	5942374	n/a	LTP376	ltpFR2	19	n/a	n/a	n/a	20	15	2	7	6
2903.23388671875	n/a	PROB	5945823	n/a	LTP376	ltpFR2	19	n/a	n/a	n/a	20	16	7	2	9
2905.19873046875	n/a	PROB	5949847	n/a	LTP376	ltpFR2	19	n/a	n/a	n/a	20	12	2	6	4
2906.7978515625	n/a	PROB	5953122	n/a	LTP376	ltpFR2	19	n/a	n/a	n/a	20	21	5	9	7
2910.91259765625	n/a	PROB	5961549	n/a	LTP376	ltpFR2	19	n/a	n/a	n/a	20	14	4	4	6
2913.021484375	n/a	STOP	5965868	n/a	LTP376	ltpFR2	19	n/a	n/a	n/a	20	n/a	n/a	n/a	n/a
2915.21142578125	n/a	REC_START	5970353	n/a	LTP376	ltpFR2	19	13	n/a	n/a	n/a	n/a	0	0	0
2916.09228515625	n/a	REC_WORD	5972157	wordpools/wasnorm_wordpool_576.txt	LTP376	ltpFR2	19	13	SPOUSE	1358	n/a	n/a	0	0	0
2917.2373046875	n/a	REC_WORD	5974502	wordpools/wasnorm_wordpool_576.txt	LTP376	ltpFR2	19	13	DRAWING	494	n/a	n/a	0	0	0
2919.2890625	n/a	REC_WORD	5978704	wordpools/wasnorm_wordpool_576.txt	LTP376	ltpFR2	19	13	SCULPTURE	1258	n/a	n/a	0	0	0
2922.21826171875	n/a	REC_WORD	5984703	wordpools/wasnorm_wordpool_576.txt	LTP376	ltpFR2	19	13	EMPIRE	530	n/a	n/a	0	0	0
2923.45703125	n/a	REC_WORD	5987240	wordpools/wasnorm_wordpool_576.txt	LTP376	ltpFR2	19	13	ASIA	46	n/a	n/a	0	0	0
2929.7197265625	n/a	REC_WORD	6000066	wordpools/wasnorm_wordpool_576.txt	LTP376	ltpFR2	19	13	PUDDLE	1140	n/a	n/a	0	0	0
3034.40380859375	n/a	WORD	6214459	wordpools/wasnorm_wordpool_576.txt	LTP376	ltpFR2	19	14	BLENDER	136	n/a	n/a	0	0	0
3036.884765625	n/a	WORD	6219540	wordpools/wasnorm_wordpool_576.txt	LTP376	ltpFR2	19	14	JOURNAL	760	n/a	n/a	0	0	0
3039.66650390625	n/a	WORD	6225237	wordpools/wasnorm_wordpool_576.txt	LTP376	ltpFR2	19	14	FLEET	578	n/a	n/a	0	0	0
3042.13232421875	n/a	WORD	6230287	wordpools/wasnorm_wordpool_576.txt	LTP376	ltpFR2	19	14	KIDNEY	776	n/a	n/a	0	0	0
3044.83056640625	n/a	WORD	6235813	wordpools/wasnorm_wordpool_576.txt	LTP376	ltpFR2	19	14	LOFT	840	n/a	n/a	0	0	0
3047.62939453125	n/a	WORD	6241545	wordpools/wasnorm_wordpool_576.txt	LTP376	ltpFR2	19	14	GUARD	667	n/a	n/a	0	0	0
3050.279296875	n/a	WORD	6246972	wordpools/wasnorm_wordpool_576.txt	LTP376	ltpFR2	19	14	DONOR	485	n/a	n/a	0	0	0
3052.81005859375	n/a	WORD	6252155	wordpools/wasnorm_wordpool_576.txt	LTP376	ltpFR2	19	14	SISTER	1312	n/a	n/a	0	0	0
3055.26025390625	n/a	WORD	6257173	wordpools/wasnorm_wordpool_576.txt	LTP376	ltpFR2	19	14	FRAGRANCE	599	n/a	n/a	0	0	0
3057.72412109375	n/a	WORD	6262219	wordpools/wasnorm_wordpool_576.txt	LTP376	ltpFR2	19	14	DUSTPAN	509	n/a	n/a	0	0	0
3060.19091796875	n/a	WORD	6267271	wordpools/wasnorm_wordpool_576.txt	LTP376	ltpFR2	19	14	TABLE	1426	n/a	n/a	0	0	0
3062.921875	n/a	WORD	6272864	wordpools/wasnorm_wordpool_576.txt	LTP376	ltpFR2	19	14	ROBOT	1200	n/a	n/a	0	0	0
3065.5048828125	n/a	WORD	6278154	wordpools/wasnorm_wordpool_576.txt	LTP376	ltpFR2	19	14	WIDOW	1608	n/a	n/a	0	0	0
3068.15380859375	n/a	WORD	6283579	wordpools/wasnorm_wordpool_576.txt	LTP376	ltpFR2	19	14	CASKET	255	n/a	n/a	0	0	0
3070.634765625	n/a	WORD	6288660	wordpools/wasnorm_wordpool_576.txt	LTP376	ltpFR2	19	14	THREAD	1460	n/a	n/a	0	0	0
3073.267578125	n/a	WORD	6294052	wordpools/wasnorm_wordpool_576.txt	LTP376	ltpFR2	19	14	RAFT	1159	n/a	n/a	0	0	0
3075.83251953125	n/a	WORD	6299305	wordpools/wasnorm_wordpool_576.txt	LTP376	ltpFR2	19	14	CASHIER	254	n/a	n/a	0	0	0
3078.41552734375	n/a	WORD	6304595	wordpools/wasnorm_wordpool_576.txt	LTP376	ltpFR2	19	14	TRANSPLANT	1496	n/a	n/a	0	0	0
3080.92919921875	n/a	WORD	6309743	wordpools/wasnorm_wordpool_576.txt	LTP376	ltpFR2	19	14	HEART	697	n/a	n/a	0	0	0
3083.56201171875	n/a	WORD	6315135	wordpools/wasnorm_wordpool_576.txt	LTP376	ltpFR2	19	14	TRACTOR	1493	n/a	n/a	0	0	0
3086.361328125	n/a	WORD	6320868	wordpools/wasnorm_wordpool_576.txt	LTP376	ltpFR2	19	14	ONION	977	n/a	n/a	0	0	0
3089.02587890625	n/a	WORD	6326325	wordpools/wasnorm_wordpool_576.txt	LTP376	ltpFR2	19	14	CLOCK	325	n/a	n/a	0	0	0
3091.55810546875	n/a	WORD	6331511	wordpools/wasnorm_wordpool_576.txt	LTP376	ltpFR2	19	14	PLAYGROUND	1087	n/a	n/a	0	0	0
3094.0068359375	n/a	WORD	6336526	wordpools/wasnorm_wordpool_576.txt	LTP376	ltpFR2	19	14	YACHT	1629	n/a	n/a	0	0	0
3095.623046875	n/a	START	6339836	n/a	LTP376	ltpFR2	19	n/a	n/a	n/a	21	n/a	n/a	n/a	n/a
3096.48974609375	n/a	DISTRACTOR	6341611	n/a	LTP376	ltpFR2	19	14	n/a	n/a	n/a	n/a	0	0	0
3096.5068359375	n/a	PROB	6341646	n/a	LTP376	ltpFR2	19	n/a	n/a	n/a	21	6	2	2	2
3098.138671875	n/a	PROB	6344988	n/a	LTP376	ltpFR2	19	n/a	n/a	n/a	21	15	3	6	6
3099.90380859375	n/a	PROB	6348603	n/a	LTP376	ltpFR2	19	n/a	n/a	n/a	21	18	7	3	8
3101.4375	n/a	PROB	6351744	n/a	LTP376	ltpFR2	19	n/a	n/a	n/a	21	18	8	4	6
3103.16943359375	n/a	PROB	6355291	n/a	LTP376	ltpFR2	19	n/a	n/a	n/a	21	19	7	9	3
3107.91650390625	n/a	PROB	6365013	n/a	LTP376	ltpFR2	19	n/a	n/a	n/a	21	5	2	2	1
3108.99951171875	n/a	PROB	6367231	n/a	LTP376	ltpFR2	19	n/a	n/a	n/a	21	7	3	1	3
3110.59814453125	n/a	PROB	6370505	n/a	LTP376	ltpFR2	19	n/a	n/a	n/a	21	20	8	5	7
3113.09814453125	n/a	PROB	6375625	n/a	LTP376	ltpFR2	19	n/a	n/a	n/a	21	17	7	4	6
3114.8134765625	n/a	PROB	6379138	n/a	LTP376	ltpFR2	19	n/a	n/a	n/a	21	23	7	9	7
3119.40625	n/a	STOP	6388544	n/a	LTP376	ltpFR2	19	n/a	n/a	n/a	21	n/a	n/a	n/a	n/a
3121.56005859375	n/a	REC_START	6392955	n/a	LTP376	ltpFR2	19	14	n/a	n/a	n/a	n/a	0	0	0
3122.7138671875	n/a	REC_WORD	6395318	wordpools/wasnorm_wordpool_576.txt	LTP376	ltpFR2	19	14	YACHT	1629	n/a	n/a	0	0	0
3123.83203125	n/a	REC_WORD	6397608	wordpools/wasnorm_wordpool_576.txt	LTP376	ltpFR2	19	14	PLAYGROUND	1087	n/a	n/a	0	0	0
3126.623046875	n/a	REC_WORD	6403324	wordpools/wasnorm_wordpool_576.txt	LTP376	ltpFR2	19	14	KIDNEY	776	n/a	n/a	0	0	0
3128.11669921875	n/a	REC_WORD	6406383	wordpools/wasnorm_wordpool_576.txt	LTP376	ltpFR2	19	14	DONOR	485	n/a	n/a	0	0	0
3129.86474609375	n/a	REC_WORD	6409963	wordpools/wasnorm_wordpool_576.txt	LTP376	ltpFR2	19	14	TRANSPLANT	1496	n/a	n/a	0	0	0
3132.06787109375	n/a	REC_WORD	6414475	wordpools/wasnorm_wordpool_576.txt	LTP376	ltpFR2	19	14	SISTER	1312	n/a	n/a	0	0	0
3133.603515625	n/a	REC_WORD	6417620	wordpools/wasnorm_wordpool_576.txt	LTP376	ltpFR2	19	14	WIDOW	1608	n/a	n/a	0	0	0
3136.01171875	n/a	REC_WORD	6422552	wordpools/wasnorm_wordpool_576.txt	LTP376	ltpFR2	19	14	FRAGRANCE	599	n/a	n/a	0	0	0
3211.9990234375	n/a	DISTRACTOR	6578174	n/a	LTP376	ltpFR2	19	15	n/a	n/a	n/a	n/a	0	0	0
3212.00048828125	n/a	START	6578177	n/a	LTP376	ltpFR2	19	n/a	n/a	n/a	22	n/a	n/a	n/a	n/a
3212.01611328125	n/a	PROB	6578209	n/a	LTP376	ltpFR2	19	n/a	n/a	n/a	22	13	8	3	2
3214.0830078125	n/a	PROB	6582442	n/a	LTP376	ltpFR2	19	n/a	n/a	n/a	22	17	6	4	7
3216.6640625	n/a	PROB	6587728	n/a	LTP376	ltpFR2	19	n/a	n/a	n/a	22	8	4	1	3
3218.7802734375	n/a	PROB	6592062	n/a	LTP376	ltpFR2	19	n/a	n/a	n/a	22	13	5	4	4
3221.37890625	n/a	PROB	6597384	n/a	LTP376	ltpFR2	19	n/a	n/a	n/a	22	14	1	8	5
3223.3779296875	n/a	PROB	6601478	n/a	LTP376	ltpFR2	19	n/a	n/a	n/a	22	25	9	8	8
3227.65869140625	n/a	PROB	6610245	n/a	LTP376	ltpFR2	19	n/a	n/a	n/a	22	12	2	6	4
3229.35888671875	n/a	PROB	6613727	n/a	LTP376	ltpFR2	19	n/a	n/a	n/a	22	17	6	5	6
3235.59765625	n/a	STOP	6626504	n/a	LTP376	ltpFR2	19	n/a	n/a	n/a	22	n/a	n/a	n/a	n/a
3237.1552734375	n/a	WORD	6629694	wordpools/wasnorm_wordpool_576.txt	LTP376	ltpFR2	19	15	EUROPE	541	n/a	n/a	0	0	0
3239.91943359375	n/a	WORD	6635355	wordpools/wasnorm_wordpool_576.txt	LTP376	ltpFR2	19	15	TABLET	1427	n/a	n/a	0	0	0
3242.51953125	n/a	WORD	6640680	wordpools/wasnorm_wordpool_576.txt	LTP376	ltpFR2	19	15	HIKER	708	n/a	n/a	0	0	0
3245.33447265625	n/a	WORD	6646445	wordpools/wasnorm_wordpool_576.txt	LTP376	ltpFR2	19	15	VENUS	1557	n/a	n/a	0	0	0
3248.13330078125	n/a	WORD	6652177	wordpools/wasnorm_wordpool_576.txt	LTP376	ltpFR2	19	15	VELVET	1555	n/a	n/a	0	0	0
3250.64794921875	n/a	WORD	6657327	wordpools/wasnorm_wordpool_576.txt	LTP376	ltpFR2	19	15	FOOTBALL	591	n/a	n/a	0	0	0
3253.19677734375	n/a	WORD	6662547	wordpools/wasnorm_wordpool_576.txt	LTP376	ltpFR2	19	15	CATCHER	258	n/a	n/a	0	0	0
3255.97802734375	n/a	WORD	6668243	wordpools/wasnorm_wordpool_576.txt	LTP376	ltpFR2	19	15	ANKLE	24	n/a	n/a	0	0	0
3258.759765625	n/a	WORD	6673940	wordpools/wasnorm_wordpool_576.txt	LTP376	ltpFR2	19	15	SHARK	1275	n/a	n/a	0	0	0
3261.2939453125	n/a	WORD	6679130	wordpools/wasnorm_wordpool_576.txt	LTP376	ltpFR2	19	15	MARINE	869	n/a	n/a	0	0	0
3263.90771484375	n/a	WORD	6684483	wordpools/wasnorm_wordpool_576.txt	LTP376	ltpFR2	19	15	STAKE	1368	n/a	n/a	0	0	0
3266.40771484375	n/a	WORD	6689603	wordpools/wasnorm_wordpool_576.txt	LTP376	ltpFR2	19	15	UMPIRE	1535	n/a	n/a	0	0	0
3268.888671875	n/a	WORD	6694684	wordpools/wasnorm_wordpool_576.txt	LTP376	ltpFR2	19	15	BRANCH	168	n/a	n/a	0	0	0
3271.62060546875	n/a	WORD	6700279	wordpools/wasnorm_wordpool_576.txt	LTP376	ltpFR2	19	15	LEG	809	n/a	n/a	0	0	0
3274.4033203125	n/a	WORD	6705978	wordpools/wasnorm_wordpool_576.txt	LTP376	ltpFR2	19	15	DRESSER	496	n/a	n/a	0	0	0
3277.01806640625	n/a	WORD	6711333	wordpools/wasnorm_wordpool_576.txt	LTP376	ltpFR2	19	15	WARDROBE	1587	n/a	n/a	0	0	0
3279.783203125	n/a	WORD	6716996	wordpools/wasnorm_wordpool_576.txt	LTP376	ltpFR2	19	15	HUSBAND	728	n/a	n/a	0	0	0
3282.416015625	n/a	WORD	6722388	wordpools/wasnorm_wordpool_576.txt	LTP376	ltpFR2	19	15	NAPKIN	937	n/a	n/a	0	0	0
3285.14892578125	n/a	WORD	6727985	wordpools/wasnorm_wordpool_576.txt	LTP376	ltpFR2	19	15	PRINCE	1124	n/a	n/a	0	0	0
3287.595703125	n/a	WORD	6732996	wordpools/wasnorm_wordpool_576.txt	LTP376	ltpFR2	19	15	FRANCE	601	n/a	n/a	0	0	0
3290.32861328125	n/a	WORD	6738593	wordpools/wasnorm_wordpool_576.txt	LTP376	ltpFR2	19	15	GALLON	618	n/a	n/a	0	0	0
3293.02685546875	n/a	WORD	6744119	wordpools/wasnorm_wordpool_576.txt	LTP376	ltpFR2	19	15	SOFTBALL	1343	n/a	n/a	0	0	0
3295.62548828125	n/a	WORD	6749441	wordpools/wasnorm_wordpool_576.txt	LTP376	ltpFR2	19	15	STAR	1373	n/a	n/a	0	0	0
3298.3427734375	n/a	WORD	6755006	wordpools/wasnorm_wordpool_576.txt	LTP376	ltpFR2	19	15	MAILMAN	858	n/a	n/a	0	0	0
3299.95751953125	n/a	START	6758313	n/a	LTP376	ltpFR2	19	n/a	n/a	n/a	23	n/a	n/a	n/a	n/a
3301.07470703125	n/a	DISTRACTOR	6760601	n/a	LTP376	ltpFR2	19	15	n/a	n/a	n/a	n/a	0	0	0
3301.09033203125	n/a	PROB	6760633	n/a	LTP376	ltpFR2	19	n/a	n/a	n/a	23	11	4	2	5
3305.072265625	n/a	PROB	6768788	n/a	LTP376	ltpFR2	19	n/a	n/a	n/a	23	15	4	3	8
3308.80224609375	n/a	PROB	6776427	n/a	LTP376	ltpFR2	19	n/a	n/a	n/a	23	17	6	9	2
3310.9853515625	n/a	PROB	6780898	n/a	LTP376	ltpFR2	19	n/a	n/a	n/a	23	16	8	2	6
3312.9169921875	n/a	PROB	6784854	n/a	LTP376	ltpFR2	19	n/a	n/a	n/a	23	17	5	9	3
3315.98291015625	n/a	PROB	6791133	n/a	LTP376	ltpFR2	19	n/a	n/a	n/a	23	6	1	1	4
3317.25	n/a	PROB	6793728	n/a	LTP376	ltpFR2	19	n/a	n/a	n/a	23	17	8	4	5
3319.298828125	n/a	PROB	6797924	n/a	LTP376	ltpFR2	19	n/a	n/a	n/a	23	17	7	1	9
3321.046875	n/a	PROB	6801504	n/a	LTP376	ltpFR2	19	n/a	n/a	n/a	23	19	9	1	9
3322.70166015625	n/a	STOP	6804893	n/a	LTP376	ltpFR2	19	n/a	n/a	n/a	23	n/a	n/a	n/a	n/a
3325.7119140625	n/a	REC_START	6811058	n/a	LTP376	ltpFR2	19	15	n/a	n/a	n/a	n/a	0	0	0
3327.060546875	n/a	REC_WORD	6813820	wordpools/wasnorm_wordpool_576.txt	LTP376	ltpFR2	19	15	FOOTBALL	591	n/a	n/a	0	0	0
3328.03662109375	n/a	REC_WORD	6815819	wordpools/wasnorm_wordpool_576.txt	LTP376	ltpFR2	19	15	CATCHER	258	n/a	n/a	0	0	0
3332.65234375	n/a	REC_WORD	6825272	wordpools/wasnorm_wordpool_576.txt	LTP376	ltpFR2	19	15	UMPIRE	1535	n/a	n/a	0	0	0
3334.404296875	n/a	REC_WORD	6828860	wordpools/wasnorm_wordpool_576.txt	LTP376	ltpFR2	19	15	SOFTBALL	1343	n/a	n/a	0	0	0
3336.2666015625	n/a	REC_WORD	6832674	wordpools/wasnorm_wordpool_576.txt	LTP376	ltpFR2	19	15	ANKLE	24	n/a	n/a	0	0	0
3338.271484375	n/a	REC_WORD	6836780	wordpools/wasnorm_wordpool_576.txt	LTP376	ltpFR2	19	15	LEG	809	n/a	n/a	0	0	0
3339.8681640625	n/a	REC_WORD	6840050	wordpools/wasnorm_wordpool_576.txt	LTP376	ltpFR2	19	15	HUSBAND	728	n/a	n/a	0	0	0
3341.43115234375	n/a	REC_WORD	6843251	wordpools/wasnorm_wordpool_576.txt	LTP376	ltpFR2	19	15	PRINCE	1124	n/a	n/a	0	0	0
3342.77734375	n/a	REC_WORD	6846008	wordpools/wasnorm_wordpool_576.txt	LTP376	ltpFR2	19	15	MAILMAN	858	n/a	n/a	0	0	0
3344.51806640625	n/a	REC_WORD	6849573	wordpools/wasnorm_wordpool_576.txt	LTP376	ltpFR2	19	15	DRESSER	496	n/a	n/a	0	0	0
3346.11328125	n/a	REC_WORD	6852840	wordpools/wasnorm_wordpool_576.txt	LTP376	ltpFR2	19	15	WARDROBE	1587	n/a	n/a	0	0	0
3348.95703125	n/a	REC_WORD_VV	6858664	wordpools/wasnorm_wordpool_576.txt	LTP376	ltpFR2	19	15	<>	-1	n/a	n/a	0	0	0
3416.15185546875	n/a	WORD	6996279	wordpools/wasnorm_wordpool_576.txt	LTP376	ltpFR2	19	16	BACKBONE	66	n/a	n/a	0	0	0
3418.666015625	n/a	WORD	7001428	wordpools/wasnorm_wordpool_576.txt	LTP376	ltpFR2	19	16	FARMER	553	n/a	n/a	0	0	0
3421.48291015625	n/a	WORD	7007197	wordpools/wasnorm_wordpool_576.txt	LTP376	ltpFR2	19	16	DENIM	446	n/a	n/a	0	0	0
3423.99658203125	n/a	WORD	7012345	wordpools/wasnorm_wordpool_576.txt	LTP376	ltpFR2	19	16	HOOK	715	n/a	n/a	0	0	0
3426.5625	n/a	WORD	7017600	wordpools/wasnorm_wordpool_576.txt	LTP376	ltpFR2	19	16	FLASK	576	n/a	n/a	0	0	0
3429.0625	n/a	WORD	7022720	wordpools/wasnorm_wordpool_576.txt	LTP376	ltpFR2	19	16	LUGGAGE	847	n/a	n/a	0	0	0
3431.5595703125	n/a	WORD	7027834	wordpools/wasnorm_wordpool_576.txt	LTP376	ltpFR2	19	16	TOURIST	1488	n/a	n/a	0	0	0
3434.32666015625	n/a	WORD	7033501	wordpools/wasnorm_wordpool_576.txt	LTP376	ltpFR2	19	16	APRON	35	n/a	n/a	0	0	0
3436.87451171875	n/a	WORD	7038719	wordpools/wasnorm_wordpool_576.txt	LTP376	ltpFR2	19	16	KITCHEN	778	n/a	n/a	0	0	0
3439.39013671875	n/a	WORD	7043871	wordpools/wasnorm_wordpool_576.txt	LTP376	ltpFR2	19	16	PILOT	1070	n/a	n/a	0	0	0
3441.8212890625	n/a	WORD	7048850	wordpools/wasnorm_wordpool_576.txt	LTP376	ltpFR2	19	16	SHORTS	1293	n/a	n/a	0	0	0
3444.55419921875	n/a	WORD	7054447	wordpools/wasnorm_wordpool_576.txt	LTP376	ltpFR2	19	16	BUREAU	199	n/a	n/a	0	0	0
3447.23681640625	n/a	WORD	7059941	wordpools/wasnorm_wordpool_576.txt	LTP376	ltpFR2	19	16	BRANDY	169	n/a	n/a	0	0	0
3449.73486328125	n/a	WORD	7065057	wordpools/wasnorm_wordpool_576.txt	LTP376	ltpFR2	19	16	SODA	1341	n/a	n/a	0	0	0
3452.40087890625	n/a	WORD	7070517	wordpools/wasnorm_wordpool_576.txt	LTP376	ltpFR2	19	16	OUTFIT	988	n/a	n/a	0	0	0
3455.2158203125	n/a	WORD	7076282	wordpools/wasnorm_wordpool_576.txt	LTP376	ltpFR2	19	16	PLASTER	1085	n/a	n/a	0	0	0
3457.78076171875	n/a	WORD	7081535	wordpools/wasnorm_wordpool_576.txt	LTP376	ltpFR2	19	16	BRACES	164	n/a	n/a	0	0	0
3460.23046875	n/a	WORD	7086552	wordpools/wasnorm_wordpool_576.txt	LTP376	ltpFR2	19	16	QUEEN	1149	n/a	n/a	0	0	0
3462.728515625	n/a	WORD	7091668	wordpools/wasnorm_wordpool_576.txt	LTP376	ltpFR2	19	16	FOOT	590	n/a	n/a	0	0	0
3465.41162109375	n/a	WORD	7097163	wordpools/wasnorm_wordpool_576.txt	LTP376	ltpFR2	19	16	AIRPLANE	12	n/a	n/a	0	0	0
3467.9423828125	n/a	WORD	7102346	wordpools/wasnorm_wordpool_576.txt	LTP376	ltpFR2	19	16	TEACHER	1440	n/a	n/a	0	0	0
3470.39208984375	n/a	WORD	7107363	wordpools/wasnorm_wordpool_576.txt	LTP376	ltpFR2	19	16	LEOPARD	812	n/a	n/a	0	0	0
3473.1572265625	n/a	WORD	7113026	wordpools/wasnorm_wordpool_576.txt	LTP376	ltpFR2	19	16	PROTON	1132	n/a	n/a	0	0	0
3475.83837890625	n/a	WORD	7118517	wordpools/wasnorm_wordpool_576.txt	LTP376	ltpFR2	19	16	TURTLE	1522	n/a	n/a	0	0	0
3477.455078125	n/a	START	7121828	n/a	LTP376	ltpFR2	19	n/a	n/a	n/a	24	n/a	n/a	n/a	n/a
3478.3291015625	n/a	DISTRACTOR	7123618	n/a	LTP376	ltpFR2	19	16	n/a	n/a	n/a	n/a	0	0	0
3478.337890625	n/a	PROB	7123636	n/a	LTP376	ltpFR2	19	n/a	n/a	n/a	24	17	6	6	5
3480.48681640625	n/a	PROB	7128037	n/a	LTP376	ltpFR2	19	n/a	n/a	n/a	24	11	4	5	2
3483.73486328125	n/a	PROB	7134689	n/a	LTP376	ltpFR2	19	n/a	n/a	n/a	24	11	5	1	5
3485.55078125	n/a	PROB	7138408	n/a	LTP376	ltpFR2	19	n/a	n/a	n/a	24	6	3	1	2
3488.216796875	n/a	PROB	7143868	n/a	LTP376	ltpFR2	19	n/a	n/a	n/a	24	13	7	2	4
3490.16552734375	n/a	PROB	7147859	n/a	LTP376	ltpFR2	19	n/a	n/a	n/a	24	15	5	6	4
3492.96337890625	n/a	PROB	7153589	n/a	LTP376	ltpFR2	19	n/a	n/a	n/a	24	19	6	6	7
3495.978515625	n/a	PROB	7159764	n/a	LTP376	ltpFR2	19	n/a	n/a	n/a	24	9	2	4	3
3501.45458984375	n/a	STOP	7170979	n/a	LTP376	ltpFR2	19	n/a	n/a	n/a	24	n/a	n/a	n/a	n/a
3503.39306640625	n/a	REC_START	7174949	n/a	LTP376	ltpFR2	19	16	n/a	n/a	n/a	n/a	0	0	0
3505.779296875	n/a	REC_WORD	7179836	wordpools/wasnorm_wordpool_576.txt	LTP376	ltpFR2	19	16	LUGGAGE	847	n/a	n/a	0	0	0
3506.64599609375	n/a	REC_WORD	7181611	wordpools/wasnorm_wordpool_576.txt	LTP376	ltpFR2	19	16	PILOT	1070	n/a	n/a	0	0	0
3511.1611328125	n/a	REC_WORD	7190858	wordpools/wasnorm_wordpool_576.txt	LTP376	ltpFR2	19	16	AIRPLANE	12	n/a	n/a	0	0	0
3512.708984375	n/a	REC_WORD	7194028	wordpools/wasnorm_wordpool_576.txt	LTP376	ltpFR2	19	16	TOURIST	1488	n/a	n/a	0	0	0
3514.56591796875	n/a	REC_WORD	7197831	wordpools/wasnorm_wordpool_576.txt	LTP376	ltpFR2	19	16	SHORTS	1293	n/a	n/a	0	0	0
3516.72802734375	n/a	REC_WORD	7202259	wordpools/wasnorm_wordpool_576.txt	LTP376	ltpFR2	19	16	WARDROBE	1587	n/a	n/a	0	0	0
3519.48779296875	n/a	REC_WORD	7207911	wordpools/wasnorm_wordpool_576.txt	LTP376	ltpFR2	19	16	QUEEN	1149	n/a	n/a	0	0	0
3520.43359375	n/a	REC_WORD	7209848	wordpools/wasnorm_wordpool_576.txt	LTP376	ltpFR2	19	16	TEACHER	1440	n/a	n/a	0	0	0
3579.9208984375	n/a	REST_REWET	7331678	n/a	LTP376	ltpFR2	19	16	n/a	n/a	n/a	n/a	0	0	0
3701.09716796875	n/a	WORD	7579847	wordpools/wasnorm_wordpool_576.txt	LTP376	ltpFR2	19	17	DIME	466	n/a	n/a	0	0	0
3703.828125	n/a	WORD	7585440	wordpools/wasnorm_wordpool_576.txt	LTP376	ltpFR2	19	17	ROD	1203	n/a	n/a	0	0	0
3706.36083984375	n/a	WORD	7590627	wordpools/wasnorm_wordpool_576.txt	LTP376	ltpFR2	19	17	ROCKET	1202	n/a	n/a	0	0	0
3709.0927734375	n/a	WORD	7596222	wordpools/wasnorm_wordpool_576.txt	LTP376	ltpFR2	19	17	PADDLE	1000	n/a	n/a	0	0	0
3711.541015625	n/a	WORD	7601236	wordpools/wasnorm_wordpool_576.txt	LTP376	ltpFR2	19	17	PORTRAIT	1111	n/a	n/a	0	0	0
3714.07373046875	n/a	WORD	7606423	wordpools/wasnorm_wordpool_576.txt	LTP376	ltpFR2	19	17	MUSTARD	935	n/a	n/a	0	0	0
3716.638671875	n/a	WORD	7611676	wordpools/wasnorm_wordpool_576.txt	LTP376	ltpFR2	19	17	PADDING	999	n/a	n/a	0	0	0
3719.0888671875	n/a	WORD	7616694	wordpools/wasnorm_wordpool_576.txt	LTP376	ltpFR2	19	17	TROMBONE	1508	n/a	n/a	0	0	0
3721.70263671875	n/a	WORD	7622047	wordpools/wasnorm_wordpool_576.txt	LTP376	ltpFR2	19	17	SNAKE	1333	n/a	n/a	0	0	0
3724.25244140625	n/a	WORD	7627269	wordpools/wasnorm_wordpool_576.txt	LTP376	ltpFR2	19	17	POISON	1096	n/a	n/a	0	0	0
3726.8173828125	n/a	WORD	7632522	wordpools/wasnorm_wordpool_576.txt	LTP376	ltpFR2	19	17	CAFE	216	n/a	n/a	0	0	0
3729.46630859375	n/a	WORD	7637947	wordpools/wasnorm_wordpool_576.txt	LTP376	ltpFR2	19	17	PARTNER	1017	n/a	n/a	0	0	0
3732.04833984375	n/a	WORD	7643235	wordpools/wasnorm_wordpool_576.txt	LTP376	ltpFR2	19	17	POLICE	1098	n/a	n/a	0	0	0
3734.86328125	n/a	WORD	7649000	wordpools/wasnorm_wordpool_576.txt	LTP376	ltpFR2	19	17	STAMP	1370	n/a	n/a	0	0	0
3737.3291015625	n/a	WORD	7654050	wordpools/wasnorm_wordpool_576.txt	LTP376	ltpFR2	19	17	TWISTER	1530	n/a	n/a	0	0	0
3739.9609375	n/a	WORD	7659440	wordpools/wasnorm_wordpool_576.txt	LTP376	ltpFR2	19	17	CUPBOARD	425	n/a	n/a	0	0	0
3742.5927734375	n/a	WORD	7664830	wordpools/wasnorm_wordpool_576.txt	LTP376	ltpFR2	19	17	FRIEND	606	n/a	n/a	0	0	0
3745.14306640625	n/a	WORD	7670053	wordpools/wasnorm_wordpool_576.txt	LTP376	ltpFR2	19	17	SERVANT	1271	n/a	n/a	0	0	0
3747.57373046875	n/a	WORD	7675031	wordpools/wasnorm_wordpool_576.txt	LTP376	ltpFR2	19	17	WAITER	1580	n/a	n/a	0	0	0
3750.005859375	n/a	WORD	7680012	wordpools/wasnorm_wordpool_576.txt	LTP376	ltpFR2	19	17	BOYFRIEND	162	n/a	n/a	0	0	0
3752.83740234375	n/a	WORD	7685811	wordpools/wasnorm_wordpool_576.txt	LTP376	ltpFR2	19	17	AIRPORT	13	n/a	n/a	0	0	0
3755.3046875	n/a	WORD	7690864	wordpools/wasnorm_wordpool_576.txt	LTP376	ltpFR2	19	17	WHISTLE	1606	n/a	n/a	0	0	0
3757.83544921875	n/a	WORD	7696047	wordpools/wasnorm_wordpool_576.txt	LTP376	ltpFR2	19	17	LIZARD	834	n/a	n/a	0	0	0
3760.30126953125	n/a	WORD	7701097	wordpools/wasnorm_wordpool_576.txt	LTP376	ltpFR2	19	17	FIREPLACE	570	n/a	n/a	0	0	0
3761.91748046875	n/a	START	7704407	n/a	LTP376	ltpFR2	19	n/a	n/a	n/a	25	n/a	n/a	n/a	n/a
3762.953125	n/a	DISTRACTOR	7706528	n/a	LTP376	ltpFR2	19	17	n/a	n/a	n/a	n/a	0	0	0
3762.96630859375	n/a	PROB	7706555	n/a	LTP376	ltpFR2	19	n/a	n/a	n/a	25	17	7	5	5
3765.09912109375	n/a	PROB	7710923	n/a	LTP376	ltpFR2	19	n/a	n/a	n/a	25	14	2	6	6
3766.89697265625	n/a	PROB	7714605	n/a	LTP376	ltpFR2	19	n/a	n/a	n/a	25	14	8	5	1
3770.31298828125	n/a	PROB	7721601	n/a	LTP376	ltpFR2	19	n/a	n/a	n/a	25	7	1	3	3
3771.76220703125	n/a	PROB	7724569	n/a	LTP376	ltpFR2	19	n/a	n/a	n/a	25	8	3	3	2
3774.1279296875	n/a	PROB	7729414	n/a	LTP376	ltpFR2	19	n/a	n/a	n/a	25	7	1	4	2
3777.22705078125	n/a	PROB	7735761	n/a	LTP376	ltpFR2	19	n/a	n/a	n/a	25	17	8	8	1
3779.10888671875	n/a	PROB	7739615	n/a	LTP376	ltpFR2	19	n/a	n/a	n/a	25	15	4	7	4
3782.44091796875	n/a	PROB	7746439	n/a	LTP376	ltpFR2	19	n/a	n/a	n/a	25	13	3	6	4
3783.97265625	n/a	PROB	7749576	n/a	LTP376	ltpFR2	19	n/a	n/a	n/a	25	16	6	5	5
3785.4775390625	n/a	STOP	7752658	n/a	LTP376	ltpFR2	19	n/a	n/a	n/a	25	n/a	n/a	n/a	n/a
3787.75439453125	n/a	REC_START	7757321	n/a	LTP376	ltpFR2	19	17	n/a	n/a	n/a	n/a	0	0	0
3789.54150390625	n/a	REC_WORD	7760981	wordpools/wasnorm_wordpool_576.txt	LTP376	ltpFR2	19	17	BOYFRIEND	162	n/a	n/a	0	0	0
3791.95849609375	n/a	REC_WORD	7765931	wordpools/wasnorm_wordpool_576.txt	LTP376	ltpFR2	19	17	FRIEND	606	n/a	n/a	0	0	0
3793.25048828125	n/a	REC_WORD	7768577	wordpools/wasnorm_wordpool_576.txt	LTP376	ltpFR2	19	17	PARTNER	1017	n/a	n/a	0	0	0
3794.67626953125	n/a	REC_WORD	7771497	wordpools/wasnorm_wordpool_576.txt	LTP376	ltpFR2	19	17	POLICE	1098	n/a	n/a	0	0	0
3796.78515625	n/a	REC_WORD	7775816	wordpools/wasnorm_wordpool_576.txt	LTP376	ltpFR2	19	17	WAITER	1580	n/a	n/a	0	0	0
3798.06103515625	n/a	REC_WORD	7778429	wordpools/wasnorm_wordpool_576.txt	LTP376	ltpFR2	19	17	SERVANT	1271	n/a	n/a	0	0	0
3802.42724609375	n/a	REC_WORD	7787371	wordpools/wasnorm_wordpool_576.txt	LTP376	ltpFR2	19	17	SNAKE	1333	n/a	n/a	0	0	0
3803.44091796875	n/a	REC_WORD	7789447	wordpools/wasnorm_wordpool_576.txt	LTP376	ltpFR2	19	17	POISON	1096	n/a	n/a	0	0	0
3805.65380859375	n/a	REC_WORD	7793979	wordpools/wasnorm_wordpool_576.txt	LTP376	ltpFR2	19	17	LIZARD	834	n/a	n/a	0	0	0
3878.177734375	n/a	DISTRACTOR	7942508	n/a	LTP376	ltpFR2	19	18	n/a	n/a	n/a	n/a	0	0	0
3878.177734375	n/a	START	7942508	n/a	LTP376	ltpFR2	19	n/a	n/a	n/a	26	n/a	n/a	n/a	n/a
3878.19482421875	n/a	PROB	7942543	n/a	LTP376	ltpFR2	19	n/a	n/a	n/a	26	19	3	9	7
3880.74267578125	n/a	PROB	7947761	n/a	LTP376	ltpFR2	19	n/a	n/a	n/a	26	19	3	8	8
3882.95751953125	n/a	PROB	7952297	n/a	LTP376	ltpFR2	19	n/a	n/a	n/a	26	13	1	4	8
3885.45751953125	n/a	PROB	7957417	n/a	LTP376	ltpFR2	19	n/a	n/a	n/a	26	17	1	8	8
3887.50634765625	n/a	PROB	7961613	n/a	LTP376	ltpFR2	19	n/a	n/a	n/a	26	10	2	3	5
3889.9384765625	n/a	PROB	7966594	n/a	LTP376	ltpFR2	19	n/a	n/a	n/a	26	14	4	6	4
3891.67041015625	n/a	PROB	7970141	n/a	LTP376	ltpFR2	19	n/a	n/a	n/a	26	18	8	7	3
3893.1201171875	n/a	PROB	7973110	n/a	LTP376	ltpFR2	19	n/a	n/a	n/a	26	11	6	4	1
3894.65234375	n/a	PROB	7976248	n/a	LTP376	ltpFR2	19	n/a	n/a	n/a	26	17	8	2	7
3898.13525390625	n/a	PROB	7983381	n/a	LTP376	ltpFR2	19	n/a	n/a	n/a	26	17	1	8	8
3899.75	n/a	PROB	7986688	n/a	LTP376	ltpFR2	19	n/a	n/a	n/a	26	17	9	2	6
3901.9248046875	n/a	STOP	7991142	n/a	LTP376	ltpFR2	19	n/a	n/a	n/a	26	n/a	n/a	n/a	n/a
3903.19921875	n/a	WORD	7993752	wordpools/wasnorm_wordpool_576.txt	LTP376	ltpFR2	19	18	MARKER	870	n/a	n/a	0	0	0
3905.81396484375	n/a	WORD	7999107	wordpools/wasnorm_wordpool_576.txt	LTP376	ltpFR2	19	18	PIGMENT	1066	n/a	n/a	0	0	0
3908.52880859375	n/a	WORD	8004667	wordpools/wasnorm_wordpool_576.txt	LTP376	ltpFR2	19	18	BACON	67	n/a	n/a	0	0	0
3911.07861328125	n/a	WORD	8009889	wordpools/wasnorm_wordpool_576.txt	LTP376	ltpFR2	19	18	COTTAGE	384	n/a	n/a	0	0	0
3913.5927734375	n/a	WORD	8015038	wordpools/wasnorm_wordpool_576.txt	LTP376	ltpFR2	19	18	OFFICE	972	n/a	n/a	0	0	0
3916.07666015625	n/a	WORD	8020125	wordpools/wasnorm_wordpool_576.txt	LTP376	ltpFR2	19	18	LAMP	798	n/a	n/a	0	0	0
3918.50830078125	n/a	WORD	8025105	wordpools/wasnorm_wordpool_576.txt	LTP376	ltpFR2	19	18	CABBAGE	210	n/a	n/a	0	0	0
3921.107421875	n/a	WORD	8030428	wordpools/wasnorm_wordpool_576.txt	LTP376	ltpFR2	19	18	MACHINE	852	n/a	n/a	0	0	0
3923.58837890625	n/a	WORD	8035509	wordpools/wasnorm_wordpool_576.txt	LTP376	ltpFR2	19	18	CABIN	211	n/a	n/a	0	0	0
3926.25439453125	n/a	WORD	8040969	wordpools/wasnorm_wordpool_576.txt	LTP376	ltpFR2	19	18	PASTA	1021	n/a	n/a	0	0	0
3928.75244140625	n/a	WORD	8046085	wordpools/wasnorm_wordpool_576.txt	LTP376	ltpFR2	19	18	PERMIT	1051	n/a	n/a	0	0	0
3931.4853515625	n/a	WORD	8051682	wordpools/wasnorm_wordpool_576.txt	LTP376	ltpFR2	19	18	SCRIBBLE	1256	n/a	n/a	0	0	0
3934.16796875	n/a	WORD	8057176	wordpools/wasnorm_wordpool_576.txt	LTP376	ltpFR2	19	18	CLAMP	316	n/a	n/a	0	0	0
3936.89892578125	n/a	WORD	8062769	wordpools/wasnorm_wordpool_576.txt	LTP376	ltpFR2	19	18	PUDDING	1139	n/a	n/a	0	0	0
3939.36474609375	n/a	WORD	8067819	wordpools/wasnorm_wordpool_576.txt	LTP376	ltpFR2	19	18	JELLO	754	n/a	n/a	0	0	0
3942.130859375	n/a	WORD	8073484	wordpools/wasnorm_wordpool_576.txt	LTP376	ltpFR2	19	18	CEILING	265	n/a	n/a	0	0	0
3944.66162109375	n/a	WORD	8078667	wordpools/wasnorm_wordpool_576.txt	LTP376	ltpFR2	19	18	FIDDLE	561	n/a	n/a	0	0	0
3947.16162109375	n/a	WORD	8083787	wordpools/wasnorm_wordpool_576.txt	LTP376	ltpFR2	19	18	OMELET	976	n/a	n/a	0	0	0
3949.892578125	n/a	WORD	8089380	wordpools/wasnorm_wordpool_576.txt	LTP376	ltpFR2	19	18	SHOULDER	1294	n/a	n/a	0	0	0
3952.34228515625	n/a	WORD	8094397	wordpools/wasnorm_wordpool_576.txt	LTP376	ltpFR2	19	18	BLOUSE	139	n/a	n/a	0	0	0
3955.03955078125	n/a	WORD	8099921	wordpools/wasnorm_wordpool_576.txt	LTP376	ltpFR2	19	18	CURTAIN	427	n/a	n/a	0	0	0
3957.67236328125	n/a	WORD	8105313	wordpools/wasnorm_wordpool_576.txt	LTP376	ltpFR2	19	18	DAUGHTER	442	n/a	n/a	0	0	0
3960.48828125	n/a	WORD	8111080	wordpools/wasnorm_wordpool_576.txt	LTP376	ltpFR2	19	18	ARM	38	n/a	n/a	0	0	0
3963.287109375	n/a	WORD	8116812	wordpools/wasnorm_wordpool_576.txt	LTP376	ltpFR2	19	18	CARRIAGE	248	n/a	n/a	0	0	0
3964.90185546875	n/a	START	8120119	n/a	LTP376	ltpFR2	19	n/a	n/a	n/a	27	n/a	n/a	n/a	n/a
3965.72802734375	n/a	DISTRACTOR	8121811	n/a	LTP376	ltpFR2	19	18	n/a	n/a	n/a	n/a	0	0	0
3965.73486328125	n/a	PROB	8121825	n/a	LTP376	ltpFR2	19	n/a	n/a	n/a	27	16	1	6	9
3967.5009765625	n/a	PROB	8125442	n/a	LTP376	ltpFR2	19	n/a	n/a	n/a	27	11	9	6	6
3969.9990234375	n/a	PROB	8130558	n/a	LTP376	ltpFR2	19	n/a	n/a	n/a	27	14	2	9	3
3973.2490234375	n/a	PROB	8137214	n/a	LTP376	ltpFR2	19	n/a	n/a	n/a	27	8	2	1	5
3975.61279296875	n/a	PROB	8142055	n/a	LTP376	ltpFR2	19	n/a	n/a	n/a	27	14	5	8	1
3977.3798828125	n/a	PROB	8145674	n/a	LTP376	ltpFR2	19	n/a	n/a	n/a	27	12	2	4	6
3980.74365234375	n/a	PROB	8152563	n/a	LTP376	ltpFR2	19	n/a	n/a	n/a	27	13	2	4	7
3983.2275390625	n/a	PROB	8157650	n/a	LTP376	ltpFR2	19	n/a	n/a	n/a	27	19	7	7	5
3986.6416015625	n/a	PROB	8164642	n/a	LTP376	ltpFR2	19	n/a	n/a	n/a	27	14	4	8	2
3987.95654296875	n/a	STOP	8167335	n/a	LTP376	ltpFR2	19	n/a	n/a	n/a	27	n/a	n/a	n/a	n/a
3990.75634765625	n/a	REC_START	8173069	n/a	LTP376	ltpFR2	19	18	n/a	n/a	n/a	n/a	0	0	0
3991.3232421875	n/a	REC_WORD	8174230	wordpools/wasnorm_wordpool_576.txt	LTP376	ltpFR2	19	18	CURTAIN	427	n/a	n/a	0	0	0
3992.4931640625	n/a	REC_WORD	8176626	wordpools/wasnorm_wordpool_576.txt	LTP376	ltpFR2	19	18	CEILING	265	n/a	n/a	0	0	0
3993.537109375	n/a	REC_WORD	8178764	wordpools/wasnorm_wordpool_576.txt	LTP376	ltpFR2	19	18	DAUGHTER	442	n/a	n/a	0	0	0
3994.92333984375	n/a	REC_WORD	8181603	wordpools/wasnorm_wordpool_576.txt	LTP376	ltpFR2	19	18	ARM	38	n/a	n/a	0	0	0
3998.05029296875	n/a	REC_WORD	8188007	wordpools/wasnorm_wordpool_576.txt	LTP376	ltpFR2	19	18	CABBAGE	210	n/a	n/a	0	0	0
3999.9599609375	n/a	REC_WORD	8191918	wordpools/wasnorm_wordpool_576.txt	LTP376	ltpFR2	19	18	PASTA	1021	n/a	n/a	0	0	0
4001.47998046875	n/a	REC_WORD	8195031	wordpools/wasnorm_wordpool_576.txt	LTP376	ltpFR2	19	18	OMELET	976	n/a	n/a	0	0	0
4003.27587890625	n/a	REC_WORD	8198709	wordpools/wasnorm_wordpool_576.txt	LTP376	ltpFR2	19	18	JELLO	754	n/a	n/a	0	0	0
4004.6328125	n/a	REC_WORD	8201488	wordpools/wasnorm_wordpool_576.txt	LTP376	ltpFR2	19	18	PUDDING	1139	n/a	n/a	0	0	0
4081.1796875	n/a	DISTRACTOR	8358256	n/a	LTP376	ltpFR2	19	19	n/a	n/a	n/a	n/a	0	0	0
4081.1796875	n/a	START	8358256	n/a	LTP376	ltpFR2	19	n/a	n/a	n/a	28	n/a	n/a	n/a	n/a
4081.1962890625	n/a	PROB	8358290	n/a	LTP376	ltpFR2	19	n/a	n/a	n/a	28	14	4	7	3
4082.77734375	n/a	PROB	8361528	n/a	LTP376	ltpFR2	19	n/a	n/a	n/a	28	16	8	4	4
4084.66064453125	n/a	PROB	8365385	n/a	LTP376	ltpFR2	19	n/a	n/a	n/a	28	11	2	6	3
4086.609375	n/a	PROB	8369376	n/a	LTP376	ltpFR2	19	n/a	n/a	n/a	28	9	1	6	2
4088.525390625	n/a	PROB	8373300	n/a	LTP376	ltpFR2	19	n/a	n/a	n/a	28	17	6	7	4
4091.25830078125	n/a	PROB	8378897	n/a	LTP376	ltpFR2	19	n/a	n/a	n/a	28	13	3	3	7
4092.9560546875	n/a	PROB	8382374	n/a	LTP376	ltpFR2	19	n/a	n/a	n/a	28	22	8	8	6
4094.85498046875	n/a	PROB	8386263	n/a	LTP376	ltpFR2	19	n/a	n/a	n/a	28	8	1	3	4
4096.7880859375	n/a	PROB	8390222	n/a	LTP376	ltpFR2	19	n/a	n/a	n/a	28	16	1	9	6
4098.12109375	n/a	PROB	8392952	n/a	LTP376	ltpFR2	19	n/a	n/a	n/a	28	13	3	5	5
4099.552734375	n/a	PROB	8395884	n/a	LTP376	ltpFR2	19	n/a	n/a	n/a	28	17	8	8	1
4101.56884765625	n/a	PROB	8400013	n/a	LTP376	ltpFR2	19	n/a	n/a	n/a	28	15	2	5	6
4104.548828125	n/a	STOP	8406116	n/a	LTP376	ltpFR2	19	n/a	n/a	n/a	28	n/a	n/a	n/a	n/a
4106.20068359375	n/a	WORD	8409499	wordpools/wasnorm_wordpool_576.txt	LTP376	ltpFR2	19	19	SALT	1229	n/a	n/a	0	0	0
4108.765625	n/a	WORD	8414752	wordpools/wasnorm_wordpool_576.txt	LTP376	ltpFR2	19	19	DANCER	437	n/a	n/a	0	0	0
4111.3984375	n/a	WORD	8420144	wordpools/wasnorm_wordpool_576.txt	LTP376	ltpFR2	19	19	MISTER	901	n/a	n/a	0	0	0
4114.11328125	n/a	WORD	8425704	wordpools/wasnorm_wordpool_576.txt	LTP376	ltpFR2	19	19	DUST	508	n/a	n/a	0	0	0
4116.6943359375	n/a	WORD	8430990	wordpools/wasnorm_wordpool_576.txt	LTP376	ltpFR2	19	19	ROBIN	1199	n/a	n/a	0	0	0
4119.4111328125	n/a	WORD	8436554	wordpools/wasnorm_wordpool_576.txt	LTP376	ltpFR2	19	19	PERCH	1048	n/a	n/a	0	0	0
4122.193359375	n/a	WORD	8442252	wordpools/wasnorm_wordpool_576.txt	LTP376	ltpFR2	19	19	ICEBERG	731	n/a	n/a	0	0	0
4124.8740234375	n/a	WORD	8447742	wordpools/wasnorm_wordpool_576.txt	LTP376	ltpFR2	19	19	SLIME	1327	n/a	n/a	0	0	0
4127.65625	n/a	WORD	8453440	wordpools/wasnorm_wordpool_576.txt	LTP376	ltpFR2	19	19	CHAUFFEUR	283	n/a	n/a	0	0	0
4130.38916015625	n/a	WORD	8459037	wordpools/wasnorm_wordpool_576.txt	LTP376	ltpFR2	19	19	CONVICT	371	n/a	n/a	0	0	0
4133.02001953125	n/a	WORD	8464425	wordpools/wasnorm_wordpool_576.txt	LTP376	ltpFR2	19	19	SCARF	1246	n/a	n/a	0	0	0
4135.45263671875	n/a	WORD	8469407	wordpools/wasnorm_wordpool_576.txt	LTP376	ltpFR2	19	19	LAPEL	800	n/a	n/a	0	0	0
4138.15185546875	n/a	WORD	8474935	wordpools/wasnorm_wordpool_576.txt	LTP376	ltpFR2	19	19	HOOD	714	n/a	n/a	0	0	0
4140.91650390625	n/a	WORD	8480597	wordpools/wasnorm_wordpool_576.txt	LTP376	ltpFR2	19	19	CRAYON	401	n/a	n/a	0	0	0
4143.71435546875	n/a	WORD	8486327	wordpools/wasnorm_wordpool_576.txt	LTP376	ltpFR2	19	19	FLESH	579	n/a	n/a	0	0	0
4146.4814453125	n/a	WORD	8491994	wordpools/wasnorm_wordpool_576.txt	LTP376	ltpFR2	19	19	GREASE	660	n/a	n/a	0	0	0
4149.04638671875	n/a	WORD	8497247	wordpools/wasnorm_wordpool_576.txt	LTP376	ltpFR2	19	19	TILE	1468	n/a	n/a	0	0	0
4151.54443359375	n/a	WORD	8502363	wordpools/wasnorm_wordpool_576.txt	LTP376	ltpFR2	19	19	DIVER	476	n/a	n/a	0	0	0
4153.9931640625	n/a	WORD	8507378	wordpools/wasnorm_wordpool_576.txt	LTP376	ltpFR2	19	19	SWORD	1423	n/a	n/a	0	0	0
4156.80908203125	n/a	WORD	8513145	wordpools/wasnorm_wordpool_576.txt	LTP376	ltpFR2	19	19	WAGON	1578	n/a	n/a	0	0	0
4159.55712890625	n/a	WORD	8518773	wordpools/wasnorm_wordpool_576.txt	LTP376	ltpFR2	19	19	HELMET	702	n/a	n/a	0	0	0
4162.14013671875	n/a	WORD	8524063	wordpools/wasnorm_wordpool_576.txt	LTP376	ltpFR2	19	19	RUST	1219	n/a	n/a	0	0	0
4164.68798828125	n/a	WORD	8529281	wordpools/wasnorm_wordpool_576.txt	LTP376	ltpFR2	19	19	BLADE	134	n/a	n/a	0	0	0
4167.40478515625	n/a	WORD	8534845	wordpools/wasnorm_wordpool_576.txt	LTP376	ltpFR2	19	19	TUBA	1515	n/a	n/a	0	0	0
4169.02001953125	n/a	START	8538153	n/a	LTP376	ltpFR2	19	n/a	n/a	n/a	29	n/a	n/a	n/a	n/a
4169.8505859375	n/a	DISTRACTOR	8539854	n/a	LTP376	ltpFR2	19	19	n/a	n/a	n/a	n/a	0	0	0
4169.85302734375	n/a	PROB	8539859	n/a	LTP376	ltpFR2	19	n/a	n/a	n/a	29	17	9	6	2
4172.91748046875	n/a	PROB	8546135	n/a	LTP376	ltpFR2	19	n/a	n/a	n/a	29	17	8	1	8
4174.4677734375	n/a	PROB	8549310	n/a	LTP376	ltpFR2	19	n/a	n/a	n/a	29	12	7	2	3
4175.78271484375	n/a	PROB	8552003	n/a	LTP376	ltpFR2	19	n/a	n/a	n/a	29	14	2	5	7
4179.1826171875	n/a	PROB	8558966	n/a	LTP376	ltpFR2	19	n/a	n/a	n/a	29	17	3	7	7
4180.91357421875	n/a	PROB	8562511	n/a	LTP376	ltpFR2	19	n/a	n/a	n/a	29	17	8	1	8
4182.7294921875	n/a	PROB	8566230	n/a	LTP376	ltpFR2	19	n/a	n/a	n/a	29	17	4	4	9
4185.46240234375	n/a	PROB	8571827	n/a	LTP376	ltpFR2	19	n/a	n/a	n/a	29	19	5	7	4
4193.01904296875	n/a	STOP	8587303	n/a	LTP376	ltpFR2	19	n/a	n/a	n/a	29	n/a	n/a	n/a	n/a
4194.875	n/a	REC_START	8591104	n/a	LTP376	ltpFR2	19	19	n/a	n/a	n/a	n/a	0	0	0
4196.76318359375	n/a	REC_WORD	8594971	wordpools/wasnorm_wordpool_576.txt	LTP376	ltpFR2	19	19	DANCER	437	n/a	n/a	0	0	0
4198.65478515625	n/a	REC_WORD	8598845	wordpools/wasnorm_wordpool_576.txt	LTP376	ltpFR2	19	19	CONVICT	371	n/a	n/a	0	0	0
4199.93798828125	n/a	REC_WORD	8601473	wordpools/wasnorm_wordpool_576.txt	LTP376	ltpFR2	19	19	SALT	1229	n/a	n/a	0	0	0
4201.52099609375	n/a	REC_WORD	8604715	wordpools/wasnorm_wordpool_576.txt	LTP376	ltpFR2	19	19	RUST	1219	n/a	n/a	0	0	0
4202.94775390625	n/a	REC_WORD	8607637	wordpools/wasnorm_wordpool_576.txt	LTP376	ltpFR2	19	19	DIVER	476	n/a	n/a	0	0	0
4204.41259765625	n/a	REC_WORD	8610637	wordpools/wasnorm_wordpool_576.txt	LTP376	ltpFR2	19	19	HELMET	702	n/a	n/a	0	0	0
4214.04638671875	n/a	REC_WORD_VV	8630367	wordpools/wasnorm_wordpool_576.txt	LTP376	ltpFR2	19	19	<>	-1	n/a	n/a	0	0	0
4285.314453125	n/a	WORD	8776324	wordpools/wasnorm_wordpool_576.txt	LTP376	ltpFR2	19	20	FRUIT	610	n/a	n/a	0	0	0
4287.828125	n/a	WORD	8781472	wordpools/wasnorm_wordpool_576.txt	LTP376	ltpFR2	19	20	CYCLONE	431	n/a	n/a	0	0	0
4290.56005859375	n/a	WORD	8787067	wordpools/wasnorm_wordpool_576.txt	LTP376	ltpFR2	19	20	FEMALE	559	n/a	n/a	0	0	0
4293.0087890625	n/a	WORD	8792082	wordpools/wasnorm_wordpool_576.txt	LTP376	ltpFR2	19	20	DRINK	498	n/a	n/a	0	0	0
4295.52490234375	n/a	WORD	8797235	wordpools/wasnorm_wordpool_576.txt	LTP376	ltpFR2	19	20	COCKTAIL	338	n/a	n/a	0	0	0
4298.2080078125	n/a	WORD	8802730	wordpools/wasnorm_wordpool_576.txt	LTP376	ltpFR2	19	20	BANK	83	n/a	n/a	0	0	0
4300.90576171875	n/a	WORD	8808255	wordpools/wasnorm_wordpool_576.txt	LTP376	ltpFR2	19	20	FRAME	600	n/a	n/a	0	0	0
4303.48876953125	n/a	WORD	8813545	wordpools/wasnorm_wordpool_576.txt	LTP376	ltpFR2	19	20	FILM	565	n/a	n/a	0	0	0
4305.9365234375	n/a	WORD	8818558	wordpools/wasnorm_wordpool_576.txt	LTP376	ltpFR2	19	20	POPCORN	1104	n/a	n/a	0	0	0
4308.40234375	n/a	WORD	8823608	wordpools/wasnorm_wordpool_576.txt	LTP376	ltpFR2	19	20	GANGSTER	620	n/a	n/a	0	0	0
4310.88427734375	n/a	WORD	8828691	wordpools/wasnorm_wordpool_576.txt	LTP376	ltpFR2	19	20	SUITCASE	1403	n/a	n/a	0	0	0
