mstime	trial_type	stim_file	subject	experiment	session	trial	item_name	item_num	list	answer	test_x	test_y	test_z
0	SESS_START	n/a	LTP251	ltpFR2	3	n/a	n/a	n/a	n/a	n/a	0	0	0
18043	START	n/a	LTP251	ltpFR2	3	n/a	n/a	n/a	-1	n/a	n/a	n/a	n/a
18058	PROB	n/a	LTP251	ltpFR2	3	n/a	n/a	n/a	-1	21	9	9	3
20679	PROB	n/a	LTP251	ltpFR2	3	n/a	n/a	n/a	-1	19	5	7	7
22613	PROB	n/a	LTP251	ltpFR2	3	n/a	n/a	n/a	-1	19	8	8	3
24398	PROB	n/a	LTP251	ltpFR2	3	n/a	n/a	n/a	-1	21	5	7	9
26064	PROB	n/a	LTP251	ltpFR2	3	n/a	n/a	n/a	-1	18	4	7	7
27721	PROB	n/a	LTP251	ltpFR2	3	n/a	n/a	n/a	-1	15	8	5	2
29152	STOP	n/a	LTP251	ltpFR2	3	n/a	n/a	n/a	-1	n/a	n/a	n/a	n/a
66851	DISTRACTOR	n/a	LTP251	ltpFR2	3	1	n/a	n/a	n/a	n/a	0	0	0
66851	START	n/a	LTP251	ltpFR2	3	n/a	n/a	n/a	1	n/a	n/a	n/a	n/a
66884	PROB	n/a	LTP251	ltpFR2	3	n/a	n/a	n/a	1	20	8	5	7
70000	PROB	n/a	LTP251	ltpFR2	3	n/a	n/a	n/a	1	21	4	8	9
74158	PROB	n/a	LTP251	ltpFR2	3	n/a	n/a	n/a	1	18	6	6	6
75376	PROB	n/a	LTP251	ltpFR2	3	n/a	n/a	n/a	1	20	7	8	7
77027	PROB	n/a	LTP251	ltpFR2	3	n/a	n/a	n/a	1	15	6	3	6
79029	PROB	n/a	LTP251	ltpFR2	3	n/a	n/a	n/a	1	9	1	4	4
80791	PROB	n/a	LTP251	ltpFR2	3	n/a	n/a	n/a	1	19	1	9	9
82809	PROB	n/a	LTP251	ltpFR2	3	n/a	n/a	n/a	1	12	8	2	2
84212	PROB	n/a	LTP251	ltpFR2	3	n/a	n/a	n/a	1	14	4	8	2
86568	PROB	n/a	LTP251	ltpFR2	3	n/a	n/a	n/a	1	17	5	7	5
88204	PROB	n/a	LTP251	ltpFR2	3	n/a	n/a	n/a	1	18	5	5	8
89458	STOP	n/a	LTP251	ltpFR2	3	n/a	n/a	n/a	1	n/a	n/a	n/a	n/a
91722	WORD	wordpools/wasnorm_wordpool_576.txt	LTP251	ltpFR2	3	1	MEDAL	885	n/a	n/a	0	0	0
94174	WORD	wordpools/wasnorm_wordpool_576.txt	LTP251	ltpFR2	3	1	CABIN	211	n/a	n/a	0	0	0
96794	WORD	wordpools/wasnorm_wordpool_576.txt	LTP251	ltpFR2	3	1	STOMACH	1384	n/a	n/a	0	0	0
99612	WORD	wordpools/wasnorm_wordpool_576.txt	LTP251	ltpFR2	3	1	BELLY	119	n/a	n/a	0	0	0
102314	WORD	wordpools/wasnorm_wordpool_576.txt	LTP251	ltpFR2	3	1	DOLPHIN	483	n/a	n/a	0	0	0
105083	WORD	wordpools/wasnorm_wordpool_576.txt	LTP251	ltpFR2	3	1	BURGLAR	200	n/a	n/a	0	0	0
107751	WORD	wordpools/wasnorm_wordpool_576.txt	LTP251	ltpFR2	3	1	SWORD	1423	n/a	n/a	0	0	0
110355	WORD	wordpools/wasnorm_wordpool_576.txt	LTP251	ltpFR2	3	1	ONION	977	n/a	n/a	0	0	0
112788	WORD	wordpools/wasnorm_wordpool_576.txt	LTP251	ltpFR2	3	1	NOMAD	955	n/a	n/a	0	0	0
115392	WORD	wordpools/wasnorm_wordpool_576.txt	LTP251	ltpFR2	3	1	PLAZA	1088	n/a	n/a	0	0	0
117876	WORD	wordpools/wasnorm_wordpool_576.txt	LTP251	ltpFR2	3	1	MATCH	878	n/a	n/a	0	0	0
120613	WORD	wordpools/wasnorm_wordpool_576.txt	LTP251	ltpFR2	3	1	COCKTAIL	338	n/a	n/a	0	0	0
123181	WORD	wordpools/wasnorm_wordpool_576.txt	LTP251	ltpFR2	3	1	ORCHID	982	n/a	n/a	0	0	0
125883	WORD	wordpools/wasnorm_wordpool_576.txt	LTP251	ltpFR2	3	1	DRESSER	496	n/a	n/a	0	0	0
128486	WORD	wordpools/wasnorm_wordpool_576.txt	LTP251	ltpFR2	3	1	HOOD	714	n/a	n/a	0	0	0
131292	WORD	wordpools/wasnorm_wordpool_576.txt	LTP251	ltpFR2	3	1	RAZOR	1171	n/a	n/a	0	0	0
133724	WORD	wordpools/wasnorm_wordpool_576.txt	LTP251	ltpFR2	3	1	BUBBLE	183	n/a	n/a	0	0	0
136542	WORD	wordpools/wasnorm_wordpool_576.txt	LTP251	ltpFR2	3	1	MAMMAL	861	n/a	n/a	0	0	0
139099	WORD	wordpools/wasnorm_wordpool_576.txt	LTP251	ltpFR2	3	1	AIRPORT	13	n/a	n/a	0	0	0
141696	WORD	wordpools/wasnorm_wordpool_576.txt	LTP251	ltpFR2	3	1	ROCKET	1202	n/a	n/a	0	0	0
144499	WORD	wordpools/wasnorm_wordpool_576.txt	LTP251	ltpFR2	3	1	NOVEL	960	n/a	n/a	0	0	0
147289	WORD	wordpools/wasnorm_wordpool_576.txt	LTP251	ltpFR2	3	1	GALLON	618	n/a	n/a	0	0	0
150036	WORD	wordpools/wasnorm_wordpool_576.txt	LTP251	ltpFR2	3	1	CEILING	265	n/a	n/a	0	0	0
152705	WORD	wordpools/wasnorm_wordpool_576.txt	LTP251	ltpFR2	3	1	PLASTER	1085	n/a	n/a	0	0	0
154324	START	n/a	LTP251	ltpFR2	3	n/a	n/a	n/a	2	n/a	n/a	n/a	n/a
155156	DISTRACTOR	n/a	LTP251	ltpFR2	3	1	n/a	n/a	n/a	n/a	0	0	0
155173	PROB	n/a	LTP251	ltpFR2	3	n/a	n/a	n/a	2	12	7	1	4
157398	PROB	n/a	LTP251	ltpFR2	3	n/a	n/a	n/a	2	12	4	4	6
159394	PROB	n/a	LTP251	ltpFR2	3	n/a	n/a	n/a	2	14	4	7	3
160749	PROB	n/a	LTP251	ltpFR2	3	n/a	n/a	n/a	2	16	2	5	9
162418	PROB	n/a	LTP251	ltpFR2	3	n/a	n/a	n/a	2	9	4	3	2
164143	PROB	n/a	LTP251	ltpFR2	3	n/a	n/a	n/a	2	21	5	9	7
166005	PROB	n/a	LTP251	ltpFR2	3	n/a	n/a	n/a	2	19	4	7	8
168295	PROB	n/a	LTP251	ltpFR2	3	n/a	n/a	n/a	2	14	4	2	8
169940	PROB	n/a	LTP251	ltpFR2	3	n/a	n/a	n/a	2	16	9	2	5
171935	PROB	n/a	LTP251	ltpFR2	3	n/a	n/a	n/a	2	25	9	9	7
178324	STOP	n/a	LTP251	ltpFR2	3	n/a	n/a	n/a	2	n/a	n/a	n/a	n/a
180214	REC_START	n/a	LTP251	ltpFR2	3	1	n/a	n/a	n/a	n/a	0	0	0
182887	REC_WORD	wordpools/wasnorm_wordpool_576.txt	LTP251	ltpFR2	3	1	MEDAL	885	n/a	n/a	0	0	0
184174	REC_WORD	wordpools/wasnorm_wordpool_576.txt	LTP251	ltpFR2	3	1	CABIN	211	n/a	n/a	0	0	0
185644	REC_WORD	wordpools/wasnorm_wordpool_576.txt	LTP251	ltpFR2	3	1	STOMACH	1384	n/a	n/a	0	0	0
187036	REC_WORD	wordpools/wasnorm_wordpool_576.txt	LTP251	ltpFR2	3	1	BELLY	119	n/a	n/a	0	0	0
189173	REC_WORD	wordpools/wasnorm_wordpool_576.txt	LTP251	ltpFR2	3	1	DOLPHIN	483	n/a	n/a	0	0	0
190566	REC_WORD	wordpools/wasnorm_wordpool_576.txt	LTP251	ltpFR2	3	1	BURGLAR	200	n/a	n/a	0	0	0
192124	REC_WORD	wordpools/wasnorm_wordpool_576.txt	LTP251	ltpFR2	3	1	ROCKET	1202	n/a	n/a	0	0	0
198581	REC_WORD	wordpools/wasnorm_wordpool_576.txt	LTP251	ltpFR2	3	1	ONION	977	n/a	n/a	0	0	0
200056	REC_WORD	wordpools/wasnorm_wordpool_576.txt	LTP251	ltpFR2	3	1	PLAZA	1088	n/a	n/a	0	0	0
202079	REC_WORD	wordpools/wasnorm_wordpool_576.txt	LTP251	ltpFR2	3	1	HOOD	714	n/a	n/a	0	0	0
205539	REC_WORD	wordpools/wasnorm_wordpool_576.txt	LTP251	ltpFR2	3	1	DOLPHIN	483	n/a	n/a	0	0	0
206605	REC_WORD	wordpools/wasnorm_wordpool_576.txt	LTP251	ltpFR2	3	1	MAMMAL	861	n/a	n/a	0	0	0
210000	REC_WORD	wordpools/wasnorm_wordpool_576.txt	LTP251	ltpFR2	3	1	DRESSER	496	n/a	n/a	0	0	0
211922	REC_WORD	wordpools/wasnorm_wordpool_576.txt	LTP251	ltpFR2	3	1	BUBBLE	183	n/a	n/a	0	0	0
212808	REC_WORD	wordpools/wasnorm_wordpool_576.txt	LTP251	ltpFR2	3	1	CEILING	265	n/a	n/a	0	0	0
214564	REC_WORD	wordpools/wasnorm_wordpool_576.txt	LTP251	ltpFR2	3	1	PLASTER	1085	n/a	n/a	0	0	0
219256	REC_WORD	wordpools/wasnorm_wordpool_576.txt	LTP251	ltpFR2	3	1	AIRPORT	13	n/a	n/a	0	0	0
222771	REC_WORD	wordpools/wasnorm_wordpool_576.txt	LTP251	ltpFR2	3	1	COCKTAIL	338	n/a	n/a	0	0	0
228742	REC_WORD	wordpools/wasnorm_wordpool_576.txt	LTP251	ltpFR2	3	1	RAZOR	1171	n/a	n/a	0	0	0
251663	REC_WORD	wordpools/wasnorm_wordpool_576.txt	LTP251	ltpFR2	3	1	ORCHID	982	n/a	n/a	0	0	0
270680	DISTRACTOR	n/a	LTP251	ltpFR2	3	2	n/a	n/a	n/a	n/a	0	0	0
270681	START	n/a	LTP251	ltpFR2	3	n/a	n/a	n/a	3	n/a	n/a	n/a	n/a
270699	PROB	n/a	LTP251	ltpFR2	3	n/a	n/a	n/a	3	12	3	2	7
272718	PROB	n/a	LTP251	ltpFR2	3	n/a	n/a	n/a	3	14	4	4	6
274436	PROB	n/a	LTP251	ltpFR2	3	n/a	n/a	n/a	3	15	2	4	9
275949	PROB	n/a	LTP251	ltpFR2	3	n/a	n/a	n/a	3	10	1	1	8
278453	PROB	n/a	LTP251	ltpFR2	3	n/a	n/a	n/a	3	21	9	7	5
281639	PROB	n/a	LTP251	ltpFR2	3	n/a	n/a	n/a	3	10	5	1	4
283210	PROB	n/a	LTP251	ltpFR2	3	n/a	n/a	n/a	3	21	9	3	9
284958	PROB	n/a	LTP251	ltpFR2	3	n/a	n/a	n/a	3	12	1	7	4
287727	PROB	n/a	LTP251	ltpFR2	3	n/a	n/a	n/a	3	19	9	5	5
289365	PROB	n/a	LTP251	ltpFR2	3	n/a	n/a	n/a	3	13	2	7	4
294681	STOP	n/a	LTP251	ltpFR2	3	n/a	n/a	n/a	3	n/a	n/a	n/a	n/a
295885	WORD	wordpools/wasnorm_wordpool_576.txt	LTP251	ltpFR2	3	2	DRINK	498	n/a	n/a	0	0	0
298604	WORD	wordpools/wasnorm_wordpool_576.txt	LTP251	ltpFR2	3	2	CYCLONE	431	n/a	n/a	0	0	0
301140	WORD	wordpools/wasnorm_wordpool_576.txt	LTP251	ltpFR2	3	2	BREAST	171	n/a	n/a	0	0	0
303609	WORD	wordpools/wasnorm_wordpool_576.txt	LTP251	ltpFR2	3	2	MARROW	872	n/a	n/a	0	0	0
306160	WORD	wordpools/wasnorm_wordpool_576.txt	LTP251	ltpFR2	3	2	PALACE	1006	n/a	n/a	0	0	0
308679	WORD	wordpools/wasnorm_wordpool_576.txt	LTP251	ltpFR2	3	2	APPLE	33	n/a	n/a	0	0	0
311198	WORD	wordpools/wasnorm_wordpool_576.txt	LTP251	ltpFR2	3	2	REPORT	1184	n/a	n/a	0	0	0
313667	WORD	wordpools/wasnorm_wordpool_576.txt	LTP251	ltpFR2	3	2	NOTEBOOK	959	n/a	n/a	0	0	0
316469	WORD	wordpools/wasnorm_wordpool_576.txt	LTP251	ltpFR2	3	2	RIVER	1194	n/a	n/a	0	0	0
318955	WORD	wordpools/wasnorm_wordpool_576.txt	LTP251	ltpFR2	3	2	SLUG	1329	n/a	n/a	0	0	0
321739	WORD	wordpools/wasnorm_wordpool_576.txt	LTP251	ltpFR2	3	2	FLASHLIGHT	575	n/a	n/a	0	0	0
324443	WORD	wordpools/wasnorm_wordpool_576.txt	LTP251	ltpFR2	3	2	ELBOW	520	n/a	n/a	0	0	0
327095	WORD	wordpools/wasnorm_wordpool_576.txt	LTP251	ltpFR2	3	2	RIFLE	1192	n/a	n/a	0	0	0
329563	WORD	wordpools/wasnorm_wordpool_576.txt	LTP251	ltpFR2	3	2	STAPLE	1371	n/a	n/a	0	0	0
332232	WORD	wordpools/wasnorm_wordpool_576.txt	LTP251	ltpFR2	3	2	JOURNAL	760	n/a	n/a	0	0	0
334817	WORD	wordpools/wasnorm_wordpool_576.txt	LTP251	ltpFR2	3	2	SNAIL	1332	n/a	n/a	0	0	0
337320	WORD	wordpools/wasnorm_wordpool_576.txt	LTP251	ltpFR2	3	2	DUST	508	n/a	n/a	0	0	0
339939	WORD	wordpools/wasnorm_wordpool_576.txt	LTP251	ltpFR2	3	2	REBEL	1172	n/a	n/a	0	0	0
342724	WORD	wordpools/wasnorm_wordpool_576.txt	LTP251	ltpFR2	3	2	GIRL	637	n/a	n/a	0	0	0
345543	WORD	wordpools/wasnorm_wordpool_576.txt	LTP251	ltpFR2	3	2	GRAPE	654	n/a	n/a	0	0	0
348246	WORD	wordpools/wasnorm_wordpool_576.txt	LTP251	ltpFR2	3	2	MARSH	874	n/a	n/a	0	0	0
350697	WORD	wordpools/wasnorm_wordpool_576.txt	LTP251	ltpFR2	3	2	MAILBOX	857	n/a	n/a	0	0	0
353366	WORD	wordpools/wasnorm_wordpool_576.txt	LTP251	ltpFR2	3	2	COTTAGE	384	n/a	n/a	0	0	0
356071	WORD	wordpools/wasnorm_wordpool_576.txt	LTP251	ltpFR2	3	2	FRIAR	605	n/a	n/a	0	0	0
357687	START	n/a	LTP251	ltpFR2	3	n/a	n/a	n/a	4	n/a	n/a	n/a	n/a
358739	DISTRACTOR	n/a	LTP251	ltpFR2	3	2	n/a	n/a	n/a	n/a	0	0	0
358753	PROB	n/a	LTP251	ltpFR2	3	n/a	n/a	n/a	4	16	8	7	1
360550	PROB	n/a	LTP251	ltpFR2	3	n/a	n/a	n/a	4	8	1	5	2
362535	PROB	n/a	LTP251	ltpFR2	3	n/a	n/a	n/a	4	7	3	1	3
364436	PROB	n/a	LTP251	ltpFR2	3	n/a	n/a	n/a	4	18	5	5	8
365754	PROB	n/a	LTP251	ltpFR2	3	n/a	n/a	n/a	4	13	7	2	4
367689	PROB	n/a	LTP251	ltpFR2	3	n/a	n/a	n/a	4	13	4	6	3
368855	PROB	n/a	LTP251	ltpFR2	3	n/a	n/a	n/a	4	17	8	8	1
370773	PROB	n/a	LTP251	ltpFR2	3	n/a	n/a	n/a	4	20	7	9	3
372993	PROB	n/a	LTP251	ltpFR2	3	n/a	n/a	n/a	4	20	5	8	7
376929	PROB	n/a	LTP251	ltpFR2	3	n/a	n/a	n/a	4	7	2	2	3
378751	PROB	n/a	LTP251	ltpFR2	3	n/a	n/a	n/a	4	20	7	9	4
381181	STOP	n/a	LTP251	ltpFR2	3	n/a	n/a	n/a	4	n/a	n/a	n/a	n/a
383602	REC_START	n/a	LTP251	ltpFR2	3	2	n/a	n/a	n/a	n/a	0	0	0
385474	REC_WORD	wordpools/wasnorm_wordpool_576.txt	LTP251	ltpFR2	3	2	DRINK	498	n/a	n/a	0	0	0
386793	REC_WORD	wordpools/wasnorm_wordpool_576.txt	LTP251	ltpFR2	3	2	CYCLONE	431	n/a	n/a	0	0	0
390155	REC_WORD	wordpools/wasnorm_wordpool_576.txt	LTP251	ltpFR2	3	2	COTTAGE	384	n/a	n/a	0	0	0
391587	REC_WORD	wordpools/wasnorm_wordpool_576.txt	LTP251	ltpFR2	3	2	FRIAR	605	n/a	n/a	0	0	0
393837	REC_WORD	wordpools/wasnorm_wordpool_576.txt	LTP251	ltpFR2	3	2	REPORT	1184	n/a	n/a	0	0	0
395313	REC_WORD	wordpools/wasnorm_wordpool_576.txt	LTP251	ltpFR2	3	2	JOURNAL	760	n/a	n/a	0	0	0
397202	REC_WORD	wordpools/wasnorm_wordpool_576.txt	LTP251	ltpFR2	3	2	NOTEBOOK	959	n/a	n/a	0	0	0
398452	REC_WORD	wordpools/wasnorm_wordpool_576.txt	LTP251	ltpFR2	3	2	STAPLE	1371	n/a	n/a	0	0	0
400233	REC_WORD	wordpools/wasnorm_wordpool_576.txt	LTP251	ltpFR2	3	2	GIRL	637	n/a	n/a	0	0	0
402096	REC_WORD	wordpools/wasnorm_wordpool_576.txt	LTP251	ltpFR2	3	2	GRAPE	654	n/a	n/a	0	0	0
403405	REC_WORD	wordpools/wasnorm_wordpool_576.txt	LTP251	ltpFR2	3	2	APPLE	33	n/a	n/a	0	0	0
406241	REC_WORD	wordpools/wasnorm_wordpool_576.txt	LTP251	ltpFR2	3	2	BREAST	171	n/a	n/a	0	0	0
408490	REC_WORD	wordpools/wasnorm_wordpool_576.txt	LTP251	ltpFR2	3	2	ANKLE	24	n/a	n/a	0	0	0
410337	REC_WORD	wordpools/wasnorm_wordpool_576.txt	LTP251	ltpFR2	3	2	ELBOW	520	n/a	n/a	0	0	0
411981	REC_WORD	wordpools/wasnorm_wordpool_576.txt	LTP251	ltpFR2	3	2	MARROW	872	n/a	n/a	0	0	0
414307	REC_WORD	wordpools/wasnorm_wordpool_576.txt	LTP251	ltpFR2	3	2	SNAIL	1332	n/a	n/a	0	0	0
416106	REC_WORD	wordpools/wasnorm_wordpool_576.txt	LTP251	ltpFR2	3	2	SLUG	1329	n/a	n/a	0	0	0
418836	REC_WORD	wordpools/wasnorm_wordpool_576.txt	LTP251	ltpFR2	3	2	MARSH	874	n/a	n/a	0	0	0
420479	REC_WORD	wordpools/wasnorm_wordpool_576.txt	LTP251	ltpFR2	3	2	RIVER	1194	n/a	n/a	0	0	0
422621	REC_WORD	wordpools/wasnorm_wordpool_576.txt	LTP251	ltpFR2	3	2	DUST	508	n/a	n/a	0	0	0
424591	REC_WORD	wordpools/wasnorm_wordpool_576.txt	LTP251	ltpFR2	3	2	FLASHLIGHT	575	n/a	n/a	0	0	0
442258	REC_WORD	wordpools/wasnorm_wordpool_576.txt	LTP251	ltpFR2	3	2	MAILBOX	857	n/a	n/a	0	0	0
474073	DISTRACTOR	n/a	LTP251	ltpFR2	3	3	n/a	n/a	n/a	n/a	0	0	0
474074	START	n/a	LTP251	ltpFR2	3	n/a	n/a	n/a	5	n/a	n/a	n/a	n/a
474095	PROB	n/a	LTP251	ltpFR2	3	n/a	n/a	n/a	5	12	5	4	3
478166	PROB	n/a	LTP251	ltpFR2	3	n/a	n/a	n/a	5	7	1	2	4
479982	PROB	n/a	LTP251	ltpFR2	3	n/a	n/a	n/a	5	12	2	9	1
481846	PROB	n/a	LTP251	ltpFR2	3	n/a	n/a	n/a	5	22	9	9	4
486400	PROB	n/a	LTP251	ltpFR2	3	n/a	n/a	n/a	5	11	3	5	3
488574	PROB	n/a	LTP251	ltpFR2	3	n/a	n/a	n/a	5	20	9	6	5
490420	PROB	n/a	LTP251	ltpFR2	3	n/a	n/a	n/a	5	15	4	6	5
492656	PROB	n/a	LTP251	ltpFR2	3	n/a	n/a	n/a	5	21	4	9	8
495108	PROB	n/a	LTP251	ltpFR2	3	n/a	n/a	n/a	5	7	3	1	3
496562	STOP	n/a	LTP251	ltpFR2	3	n/a	n/a	n/a	5	n/a	n/a	n/a	n/a
499283	WORD	wordpools/wasnorm_wordpool_576.txt	LTP251	ltpFR2	3	3	RECORD	1176	n/a	n/a	0	0	0
502098	WORD	wordpools/wasnorm_wordpool_576.txt	LTP251	ltpFR2	3	3	MONSTER	912	n/a	n/a	0	0	0
504650	WORD	wordpools/wasnorm_wordpool_576.txt	LTP251	ltpFR2	3	3	PILOT	1070	n/a	n/a	0	0	0
507219	WORD	wordpools/wasnorm_wordpool_576.txt	LTP251	ltpFR2	3	3	SIBLING	1301	n/a	n/a	0	0	0
509971	WORD	wordpools/wasnorm_wordpool_576.txt	LTP251	ltpFR2	3	3	HELMET	702	n/a	n/a	0	0	0
512609	WORD	wordpools/wasnorm_wordpool_576.txt	LTP251	ltpFR2	3	3	FRANCE	601	n/a	n/a	0	0	0
515209	WORD	wordpools/wasnorm_wordpool_576.txt	LTP251	ltpFR2	3	3	SKETCH	1315	n/a	n/a	0	0	0
517797	WORD	wordpools/wasnorm_wordpool_576.txt	LTP251	ltpFR2	3	3	CHURCH	307	n/a	n/a	0	0	0
520582	WORD	wordpools/wasnorm_wordpool_576.txt	LTP251	ltpFR2	3	3	NEUTRON	947	n/a	n/a	0	0	0
523382	WORD	wordpools/wasnorm_wordpool_576.txt	LTP251	ltpFR2	3	3	GRILL	661	n/a	n/a	0	0	0
525952	WORD	wordpools/wasnorm_wordpool_576.txt	LTP251	ltpFR2	3	3	COCOON	339	n/a	n/a	0	0	0
528471	WORD	wordpools/wasnorm_wordpool_576.txt	LTP251	ltpFR2	3	3	POPCORN	1104	n/a	n/a	0	0	0
531257	WORD	wordpools/wasnorm_wordpool_576.txt	LTP251	ltpFR2	3	3	FRUIT	610	n/a	n/a	0	0	0
533694	WORD	wordpools/wasnorm_wordpool_576.txt	LTP251	ltpFR2	3	3	OX	994	n/a	n/a	0	0	0
536430	WORD	wordpools/wasnorm_wordpool_576.txt	LTP251	ltpFR2	3	3	DRAWING	494	n/a	n/a	0	0	0
539096	WORD	wordpools/wasnorm_wordpool_576.txt	LTP251	ltpFR2	3	3	JUNGLE	764	n/a	n/a	0	0	0
541599	WORD	wordpools/wasnorm_wordpool_576.txt	LTP251	ltpFR2	3	3	PRIMATE	1123	n/a	n/a	0	0	0
544267	WORD	wordpools/wasnorm_wordpool_576.txt	LTP251	ltpFR2	3	3	TYPIST	1532	n/a	n/a	0	0	0
546819	WORD	wordpools/wasnorm_wordpool_576.txt	LTP251	ltpFR2	3	3	GOBLIN	645	n/a	n/a	0	0	0
549339	WORD	wordpools/wasnorm_wordpool_576.txt	LTP251	ltpFR2	3	3	MASK	876	n/a	n/a	0	0	0
552025	WORD	wordpools/wasnorm_wordpool_576.txt	LTP251	ltpFR2	3	3	SHRUB	1299	n/a	n/a	0	0	0
554693	WORD	wordpools/wasnorm_wordpool_576.txt	LTP251	ltpFR2	3	3	HUMAN	726	n/a	n/a	0	0	0
557163	WORD	wordpools/wasnorm_wordpool_576.txt	LTP251	ltpFR2	3	3	DINER	467	n/a	n/a	0	0	0
559864	WORD	wordpools/wasnorm_wordpool_576.txt	LTP251	ltpFR2	3	3	DAISY	435	n/a	n/a	0	0	0
561484	START	n/a	LTP251	ltpFR2	3	n/a	n/a	n/a	6	n/a	n/a	n/a	n/a
562650	DISTRACTOR	n/a	LTP251	ltpFR2	3	3	n/a	n/a	n/a	n/a	0	0	0
562667	PROB	n/a	LTP251	ltpFR2	3	n/a	n/a	n/a	6	16	6	9	1
564547	PROB	n/a	LTP251	ltpFR2	3	n/a	n/a	n/a	6	12	3	5	4
567215	PROB	n/a	LTP251	ltpFR2	3	n/a	n/a	n/a	6	11	3	7	1
568799	PROB	n/a	LTP251	ltpFR2	3	n/a	n/a	n/a	6	17	6	9	2
571490	PROB	n/a	LTP251	ltpFR2	3	n/a	n/a	n/a	6	23	8	9	6
576322	PROB	n/a	LTP251	ltpFR2	3	n/a	n/a	n/a	6	11	4	3	4
578047	PROB	n/a	LTP251	ltpFR2	3	n/a	n/a	n/a	6	11	6	3	2
579559	PROB	n/a	LTP251	ltpFR2	3	n/a	n/a	n/a	6	13	5	5	3
581193	PROB	n/a	LTP251	ltpFR2	3	n/a	n/a	n/a	6	7	2	1	4
585484	STOP	n/a	LTP251	ltpFR2	3	n/a	n/a	n/a	6	n/a	n/a	n/a	n/a
587251	REC_START	n/a	LTP251	ltpFR2	3	3	n/a	n/a	n/a	n/a	0	0	0
590176	REC_WORD	wordpools/wasnorm_wordpool_576.txt	LTP251	ltpFR2	3	3	RECORD	1176	n/a	n/a	0	0	0
591663	REC_WORD	wordpools/wasnorm_wordpool_576.txt	LTP251	ltpFR2	3	3	SIBLING	1301	n/a	n/a	0	0	0
593268	REC_WORD	wordpools/wasnorm_wordpool_576.txt	LTP251	ltpFR2	3	3	FRANCE	601	n/a	n/a	0	0	0
596422	REC_WORD	wordpools/wasnorm_wordpool_576.txt	LTP251	ltpFR2	3	3	NEUTRON	947	n/a	n/a	0	0	0
600149	REC_WORD	wordpools/wasnorm_wordpool_576.txt	LTP251	ltpFR2	3	3	PILOT	1070	n/a	n/a	0	0	0
602801	REC_WORD	wordpools/wasnorm_wordpool_576.txt	LTP251	ltpFR2	3	3	DAISY	435	n/a	n/a	0	0	0
604592	REC_WORD	wordpools/wasnorm_wordpool_576.txt	LTP251	ltpFR2	3	3	OX	994	n/a	n/a	0	0	0
605994	REC_WORD	wordpools/wasnorm_wordpool_576.txt	LTP251	ltpFR2	3	3	SHRUB	1299	n/a	n/a	0	0	0
607686	REC_WORD	wordpools/wasnorm_wordpool_576.txt	LTP251	ltpFR2	3	3	DINER	467	n/a	n/a	0	0	0
617264	REC_WORD	wordpools/wasnorm_wordpool_576.txt	LTP251	ltpFR2	3	3	POPCORN	1104	n/a	n/a	0	0	0
618779	REC_WORD	wordpools/wasnorm_wordpool_576.txt	LTP251	ltpFR2	3	3	CANDY	230	n/a	n/a	0	0	0
623920	REC_WORD	wordpools/wasnorm_wordpool_576.txt	LTP251	ltpFR2	3	3	COCOON	339	n/a	n/a	0	0	0
626005	REC_WORD	wordpools/wasnorm_wordpool_576.txt	LTP251	ltpFR2	3	3	DRAWING	494	n/a	n/a	0	0	0
627783	REC_WORD	wordpools/wasnorm_wordpool_576.txt	LTP251	ltpFR2	3	3	SKETCH	1315	n/a	n/a	0	0	0
652624	REC_WORD	wordpools/wasnorm_wordpool_576.txt	LTP251	ltpFR2	3	3	CHAPEL	280	n/a	n/a	0	0	0
677718	DISTRACTOR	n/a	LTP251	ltpFR2	3	4	n/a	n/a	n/a	n/a	0	0	0
677718	START	n/a	LTP251	ltpFR2	3	n/a	n/a	n/a	7	n/a	n/a	n/a	n/a
677742	PROB	n/a	LTP251	ltpFR2	3	n/a	n/a	n/a	7	20	8	7	5
680406	PROB	n/a	LTP251	ltpFR2	3	n/a	n/a	n/a	7	6	1	2	3
682907	PROB	n/a	LTP251	ltpFR2	3	n/a	n/a	n/a	7	17	3	8	6
685660	PROB	n/a	LTP251	ltpFR2	3	n/a	n/a	n/a	7	17	4	8	5
688093	PROB	n/a	LTP251	ltpFR2	3	n/a	n/a	n/a	7	20	9	4	7
689611	PROB	n/a	LTP251	ltpFR2	3	n/a	n/a	n/a	7	9	3	1	5
690919	PROB	n/a	LTP251	ltpFR2	3	n/a	n/a	n/a	7	17	6	3	8
692670	PROB	n/a	LTP251	ltpFR2	3	n/a	n/a	n/a	7	12	4	5	3
694293	PROB	n/a	LTP251	ltpFR2	3	n/a	n/a	n/a	7	17	2	9	6
696691	PROB	n/a	LTP251	ltpFR2	3	n/a	n/a	n/a	7	13	4	8	1
698580	PROB	n/a	LTP251	ltpFR2	3	n/a	n/a	n/a	7	18	3	6	9
701718	STOP	n/a	LTP251	ltpFR2	3	n/a	n/a	n/a	7	n/a	n/a	n/a	n/a
702755	WORD	wordpools/wasnorm_wordpool_576.txt	LTP251	ltpFR2	3	4	MISTER	901	n/a	n/a	0	0	0
705525	WORD	wordpools/wasnorm_wordpool_576.txt	LTP251	ltpFR2	3	4	POCKET	1093	n/a	n/a	0	0	0
708199	WORD	wordpools/wasnorm_wordpool_576.txt	LTP251	ltpFR2	3	4	SHELF	1280	n/a	n/a	0	0	0
711013	WORD	wordpools/wasnorm_wordpool_576.txt	LTP251	ltpFR2	3	4	BACON	67	n/a	n/a	0	0	0
713549	WORD	wordpools/wasnorm_wordpool_576.txt	LTP251	ltpFR2	3	4	TRENCH	1503	n/a	n/a	0	0	0
716267	WORD	wordpools/wasnorm_wordpool_576.txt	LTP251	ltpFR2	3	4	LILY	821	n/a	n/a	0	0	0
718869	WORD	wordpools/wasnorm_wordpool_576.txt	LTP251	ltpFR2	3	4	ROOSTER	1209	n/a	n/a	0	0	0
721327	WORD	wordpools/wasnorm_wordpool_576.txt	LTP251	ltpFR2	3	4	PIGMENT	1066	n/a	n/a	0	0	0
724024	WORD	wordpools/wasnorm_wordpool_576.txt	LTP251	ltpFR2	3	4	TAXI	1438	n/a	n/a	0	0	0
726476	WORD	wordpools/wasnorm_wordpool_576.txt	LTP251	ltpFR2	3	4	DASHBOARD	441	n/a	n/a	0	0	0
728979	WORD	wordpools/wasnorm_wordpool_576.txt	LTP251	ltpFR2	3	4	MUMMY	932	n/a	n/a	0	0	0
731747	WORD	wordpools/wasnorm_wordpool_576.txt	LTP251	ltpFR2	3	4	CORAL	378	n/a	n/a	0	0	0
734484	WORD	wordpools/wasnorm_wordpool_576.txt	LTP251	ltpFR2	3	4	SWIMMER	1420	n/a	n/a	0	0	0
737072	WORD	wordpools/wasnorm_wordpool_576.txt	LTP251	ltpFR2	3	4	DRAGON	492	n/a	n/a	0	0	0
739689	WORD	wordpools/wasnorm_wordpool_576.txt	LTP251	ltpFR2	3	4	SUSPECT	1415	n/a	n/a	0	0	0
742206	WORD	wordpools/wasnorm_wordpool_576.txt	LTP251	ltpFR2	3	4	HORNET	718	n/a	n/a	0	0	0
744976	WORD	wordpools/wasnorm_wordpool_576.txt	LTP251	ltpFR2	3	4	PORK	1108	n/a	n/a	0	0	0
747761	WORD	wordpools/wasnorm_wordpool_576.txt	LTP251	ltpFR2	3	4	SPHINX	1349	n/a	n/a	0	0	0
750334	WORD	wordpools/wasnorm_wordpool_576.txt	LTP251	ltpFR2	3	4	COWBOY	395	n/a	n/a	0	0	0
752985	WORD	wordpools/wasnorm_wordpool_576.txt	LTP251	ltpFR2	3	4	BRANCH	168	n/a	n/a	0	0	0
755419	WORD	wordpools/wasnorm_wordpool_576.txt	LTP251	ltpFR2	3	4	SISTER	1312	n/a	n/a	0	0	0
758154	WORD	wordpools/wasnorm_wordpool_576.txt	LTP251	ltpFR2	3	4	PEANUT	1032	n/a	n/a	0	0	0
760842	WORD	wordpools/wasnorm_wordpool_576.txt	LTP251	ltpFR2	3	4	DENIM	446	n/a	n/a	0	0	0
763308	WORD	wordpools/wasnorm_wordpool_576.txt	LTP251	ltpFR2	3	4	KEEPER	769	n/a	n/a	0	0	0
764926	START	n/a	LTP251	ltpFR2	3	n/a	n/a	n/a	8	n/a	n/a	n/a	n/a
766013	DISTRACTOR	n/a	LTP251	ltpFR2	3	4	n/a	n/a	n/a	n/a	0	0	0
766028	PROB	n/a	LTP251	ltpFR2	3	n/a	n/a	n/a	8	17	3	9	5
768912	PROB	n/a	LTP251	ltpFR2	3	n/a	n/a	n/a	8	14	8	1	5
772016	PROB	n/a	LTP251	ltpFR2	3	n/a	n/a	n/a	8	20	7	8	4
775636	PROB	n/a	LTP251	ltpFR2	3	n/a	n/a	n/a	8	13	4	1	8
777388	PROB	n/a	LTP251	ltpFR2	3	n/a	n/a	n/a	8	16	4	8	4
779389	PROB	n/a	LTP251	ltpFR2	3	n/a	n/a	n/a	8	14	5	4	5
784193	PROB	n/a	LTP251	ltpFR2	3	n/a	n/a	n/a	8	10	6	3	1
785723	PROB	n/a	LTP251	ltpFR2	3	n/a	n/a	n/a	8	13	8	3	2
788245	STOP	n/a	LTP251	ltpFR2	3	n/a	n/a	n/a	8	n/a	n/a	n/a	n/a
790699	REC_START	n/a	LTP251	ltpFR2	3	4	n/a	n/a	n/a	n/a	0	0	0
792695	REC_WORD	wordpools/wasnorm_wordpool_576.txt	LTP251	ltpFR2	3	4	MISTER	901	n/a	n/a	0	0	0
794173	REC_WORD	wordpools/wasnorm_wordpool_576.txt	LTP251	ltpFR2	3	4	POCKET	1093	n/a	n/a	0	0	0
795510	REC_WORD	wordpools/wasnorm_wordpool_576.txt	LTP251	ltpFR2	3	4	SHELF	1280	n/a	n/a	0	0	0
797757	REC_WORD	wordpools/wasnorm_wordpool_576.txt	LTP251	ltpFR2	3	4	BACON	67	n/a	n/a	0	0	0
799317	REC_WORD	wordpools/wasnorm_wordpool_576.txt	LTP251	ltpFR2	3	4	PORK	1108	n/a	n/a	0	0	0
800804	REC_WORD	wordpools/wasnorm_wordpool_576.txt	LTP251	ltpFR2	3	4	TAXI	1438	n/a	n/a	0	0	0
802572	REC_WORD	wordpools/wasnorm_wordpool_576.txt	LTP251	ltpFR2	3	4	WINDSHIELD	1612	n/a	n/a	0	0	0
807080	REC_WORD	wordpools/wasnorm_wordpool_576.txt	LTP251	ltpFR2	3	4	REPORT	1184	n/a	n/a	0	0	0
811066	REC_WORD	wordpools/wasnorm_wordpool_576.txt	LTP251	ltpFR2	3	4	HORNET	718	n/a	n/a	0	0	0
814888	REC_WORD	wordpools/wasnorm_wordpool_576.txt	LTP251	ltpFR2	3	4	MURDER	-1	n/a	n/a	0	0	0
823555	REC_WORD	wordpools/wasnorm_wordpool_576.txt	LTP251	ltpFR2	3	4	SWIMMER	1420	n/a	n/a	0	0	0
827604	REC_WORD	wordpools/wasnorm_wordpool_576.txt	LTP251	ltpFR2	3	4	DRAGON	492	n/a	n/a	0	0	0
881189	DISTRACTOR	n/a	LTP251	ltpFR2	3	5	n/a	n/a	n/a	n/a	0	0	0
881190	START	n/a	LTP251	ltpFR2	3	n/a	n/a	n/a	9	n/a	n/a	n/a	n/a
881211	PROB	n/a	LTP251	ltpFR2	3	n/a	n/a	n/a	9	16	2	5	9
884263	PROB	n/a	LTP251	ltpFR2	3	n/a	n/a	n/a	9	14	3	9	2
885937	PROB	n/a	LTP251	ltpFR2	3	n/a	n/a	n/a	9	21	6	8	7
888446	PROB	n/a	LTP251	ltpFR2	3	n/a	n/a	n/a	9	20	7	8	5
890547	PROB	n/a	LTP251	ltpFR2	3	n/a	n/a	n/a	9	19	9	6	4
892481	PROB	n/a	LTP251	ltpFR2	3	n/a	n/a	n/a	9	16	7	3	6
894084	PROB	n/a	LTP251	ltpFR2	3	n/a	n/a	n/a	9	17	7	3	7
895784	PROB	n/a	LTP251	ltpFR2	3	n/a	n/a	n/a	9	21	9	8	5
905190	STOP	n/a	LTP251	ltpFR2	3	n/a	n/a	n/a	9	n/a	n/a	n/a	n/a
906032	WORD	wordpools/wasnorm_wordpool_576.txt	LTP251	ltpFR2	3	5	WARDROBE	1587	n/a	n/a	0	0	0
908695	WORD	wordpools/wasnorm_wordpool_576.txt	LTP251	ltpFR2	3	5	TUBA	1515	n/a	n/a	0	0	0
911179	WORD	wordpools/wasnorm_wordpool_576.txt	LTP251	ltpFR2	3	5	GUITAR	670	n/a	n/a	0	0	0
913723	WORD	wordpools/wasnorm_wordpool_576.txt	LTP251	ltpFR2	3	5	WAITRESS	1581	n/a	n/a	0	0	0
916343	WORD	wordpools/wasnorm_wordpool_576.txt	LTP251	ltpFR2	3	5	KIDNEY	776	n/a	n/a	0	0	0
919102	WORD	wordpools/wasnorm_wordpool_576.txt	LTP251	ltpFR2	3	5	PRINCE	1124	n/a	n/a	0	0	0
921596	WORD	wordpools/wasnorm_wordpool_576.txt	LTP251	ltpFR2	3	5	GHETTO	633	n/a	n/a	0	0	0
924140	WORD	wordpools/wasnorm_wordpool_576.txt	LTP251	ltpFR2	3	5	PASSAGE	1019	n/a	n/a	0	0	0
926924	WORD	wordpools/wasnorm_wordpool_576.txt	LTP251	ltpFR2	3	5	HORSE	719	n/a	n/a	0	0	0
929553	WORD	wordpools/wasnorm_wordpool_576.txt	LTP251	ltpFR2	3	5	CRATER	400	n/a	n/a	0	0	0
932030	WORD	wordpools/wasnorm_wordpool_576.txt	LTP251	ltpFR2	3	5	BALLOON	75	n/a	n/a	0	0	0
934507	WORD	wordpools/wasnorm_wordpool_576.txt	LTP251	ltpFR2	3	5	DONOR	485	n/a	n/a	0	0	0
936993	WORD	wordpools/wasnorm_wordpool_576.txt	LTP251	ltpFR2	3	5	LIVER	833	n/a	n/a	0	0	0
939579	WORD	wordpools/wasnorm_wordpool_576.txt	LTP251	ltpFR2	3	5	NAPKIN	937	n/a	n/a	0	0	0
942305	WORD	wordpools/wasnorm_wordpool_576.txt	LTP251	ltpFR2	3	5	WITNESS	1618	n/a	n/a	0	0	0
945051	WORD	wordpools/wasnorm_wordpool_576.txt	LTP251	ltpFR2	3	5	OZONE	996	n/a	n/a	0	0	0
947576	WORD	wordpools/wasnorm_wordpool_576.txt	LTP251	ltpFR2	3	5	LABEL	790	n/a	n/a	0	0	0
950372	WORD	wordpools/wasnorm_wordpool_576.txt	LTP251	ltpFR2	3	5	SPARROW	1347	n/a	n/a	0	0	0
952823	WORD	wordpools/wasnorm_wordpool_576.txt	LTP251	ltpFR2	3	5	COMPASS	358	n/a	n/a	0	0	0
955526	WORD	wordpools/wasnorm_wordpool_576.txt	LTP251	ltpFR2	3	5	KNAPSACK	783	n/a	n/a	0	0	0
958112	WORD	wordpools/wasnorm_wordpool_576.txt	LTP251	ltpFR2	3	5	GAVEL	627	n/a	n/a	0	0	0
960732	WORD	wordpools/wasnorm_wordpool_576.txt	LTP251	ltpFR2	3	5	DANDRUFF	439	n/a	n/a	0	0	0
963182	WORD	wordpools/wasnorm_wordpool_576.txt	LTP251	ltpFR2	3	5	SCARF	1246	n/a	n/a	0	0	0
965707	WORD	wordpools/wasnorm_wordpool_576.txt	LTP251	ltpFR2	3	5	THRONE	1461	n/a	n/a	0	0	0
967321	START	n/a	LTP251	ltpFR2	3	n/a	n/a	n/a	10	n/a	n/a	n/a	n/a
968441	DISTRACTOR	n/a	LTP251	ltpFR2	3	5	n/a	n/a	n/a	n/a	0	0	0
968454	PROB	n/a	LTP251	ltpFR2	3	n/a	n/a	n/a	10	18	3	6	9
971556	PROB	n/a	LTP251	ltpFR2	3	n/a	n/a	n/a	10	9	2	5	2
974076	PROB	n/a	LTP251	ltpFR2	3	n/a	n/a	n/a	10	6	3	1	2
975859	PROB	n/a	LTP251	ltpFR2	3	n/a	n/a	n/a	10	20	3	9	8
978129	PROB	n/a	LTP251	ltpFR2	3	n/a	n/a	n/a	10	21	8	8	5
980263	PROB	n/a	LTP251	ltpFR2	3	n/a	n/a	n/a	10	15	7	4	4
982449	PROB	n/a	LTP251	ltpFR2	3	n/a	n/a	n/a	10	13	9	2	2
984200	PROB	n/a	LTP251	ltpFR2	3	n/a	n/a	n/a	10	14	3	5	6
986185	PROB	n/a	LTP251	ltpFR2	3	n/a	n/a	n/a	10	25	7	9	9
990533	STOP	n/a	LTP251	ltpFR2	3	n/a	n/a	n/a	10	n/a	n/a	n/a	n/a
993145	REC_START	n/a	LTP251	ltpFR2	3	5	n/a	n/a	n/a	n/a	0	0	0
997399	REC_WORD	wordpools/wasnorm_wordpool_576.txt	LTP251	ltpFR2	3	5	KIDNEY	776	n/a	n/a	0	0	0
998706	REC_WORD	wordpools/wasnorm_wordpool_576.txt	LTP251	ltpFR2	3	5	LIVER	833	n/a	n/a	0	0	0
1000292	REC_WORD	wordpools/wasnorm_wordpool_576.txt	LTP251	ltpFR2	3	5	DONOR	485	n/a	n/a	0	0	0
1001708	REC_WORD	wordpools/wasnorm_wordpool_576.txt	LTP251	ltpFR2	3	5	WITNESS	1618	n/a	n/a	0	0	0
1003989	REC_WORD	wordpools/wasnorm_wordpool_576.txt	LTP251	ltpFR2	3	5	NAPKIN	937	n/a	n/a	0	0	0
1005701	REC_WORD	wordpools/wasnorm_wordpool_576.txt	LTP251	ltpFR2	3	5	WAITRESS	1581	n/a	n/a	0	0	0
1007685	REC_WORD	wordpools/wasnorm_wordpool_576.txt	LTP251	ltpFR2	3	5	CRATER	400	n/a	n/a	0	0	0
1009167	REC_WORD	wordpools/wasnorm_wordpool_576.txt	LTP251	ltpFR2	3	5	SPARROW	1347	n/a	n/a	0	0	0
1011101	REC_WORD	wordpools/wasnorm_wordpool_576.txt	LTP251	ltpFR2	3	5	OZONE	996	n/a	n/a	0	0	0
1013255	REC_WORD	wordpools/wasnorm_wordpool_576.txt	LTP251	ltpFR2	3	5	GAVEL	627	n/a	n/a	0	0	0
1015792	REC_WORD	wordpools/wasnorm_wordpool_576.txt	LTP251	ltpFR2	3	5	KNAPSACK	783	n/a	n/a	0	0	0
1019406	REC_WORD	wordpools/wasnorm_wordpool_576.txt	LTP251	ltpFR2	3	5	SCARF	1246	n/a	n/a	0	0	0
1021370	REC_WORD	wordpools/wasnorm_wordpool_576.txt	LTP251	ltpFR2	3	5	DANDRUFF	439	n/a	n/a	0	0	0
1029047	REC_WORD	wordpools/wasnorm_wordpool_576.txt	LTP251	ltpFR2	3	5	LABEL	790	n/a	n/a	0	0	0
1083618	DISTRACTOR	n/a	LTP251	ltpFR2	3	6	n/a	n/a	n/a	n/a	0	0	0
1083618	START	n/a	LTP251	ltpFR2	3	n/a	n/a	n/a	11	n/a	n/a	n/a	n/a
1083637	PROB	n/a	LTP251	ltpFR2	3	n/a	n/a	n/a	11	12	1	4	7
1087418	PROB	n/a	LTP251	ltpFR2	3	n/a	n/a	n/a	11	13	6	3	4
1090783	PROB	n/a	LTP251	ltpFR2	3	n/a	n/a	n/a	11	16	2	9	5
1093170	PROB	n/a	LTP251	ltpFR2	3	n/a	n/a	n/a	11	10	5	1	4
1094676	PROB	n/a	LTP251	ltpFR2	3	n/a	n/a	n/a	11	15	2	8	5
1095921	PROB	n/a	LTP251	ltpFR2	3	n/a	n/a	n/a	11	17	5	9	3
1098508	PROB	n/a	LTP251	ltpFR2	3	n/a	n/a	n/a	11	16	6	7	3
1101653	PROB	n/a	LTP251	ltpFR2	3	n/a	n/a	n/a	11	16	1	7	8
1103066	PROB	n/a	LTP251	ltpFR2	3	n/a	n/a	n/a	11	8	2	4	2
1104534	PROB	n/a	LTP251	ltpFR2	3	n/a	n/a	n/a	11	18	6	9	3
1106570	STOP	n/a	LTP251	ltpFR2	3	n/a	n/a	n/a	11	n/a	n/a	n/a	n/a
1108621	WORD	wordpools/wasnorm_wordpool_576.txt	LTP251	ltpFR2	3	6	PAPER	1011	n/a	n/a	0	0	0
1111273	WORD	wordpools/wasnorm_wordpool_576.txt	LTP251	ltpFR2	3	6	DENTIST	447	n/a	n/a	0	0	0
1114064	WORD	wordpools/wasnorm_wordpool_576.txt	LTP251	ltpFR2	3	6	FLESH	579	n/a	n/a	0	0	0
1116744	WORD	wordpools/wasnorm_wordpool_576.txt	LTP251	ltpFR2	3	6	FOREHEAD	592	n/a	n/a	0	0	0
1119214	WORD	wordpools/wasnorm_wordpool_576.txt	LTP251	ltpFR2	3	6	HATCHET	691	n/a	n/a	0	0	0
1121999	WORD	wordpools/wasnorm_wordpool_576.txt	LTP251	ltpFR2	3	6	KNIFE	785	n/a	n/a	0	0	0
1124651	WORD	wordpools/wasnorm_wordpool_576.txt	LTP251	ltpFR2	3	6	CREATURE	403	n/a	n/a	0	0	0
1127170	WORD	wordpools/wasnorm_wordpool_576.txt	LTP251	ltpFR2	3	6	RUG	1215	n/a	n/a	0	0	0
1129677	WORD	wordpools/wasnorm_wordpool_576.txt	LTP251	ltpFR2	3	6	BACKBONE	66	n/a	n/a	0	0	0
1132123	WORD	wordpools/wasnorm_wordpool_576.txt	LTP251	ltpFR2	3	6	FOX	598	n/a	n/a	0	0	0
1134758	WORD	wordpools/wasnorm_wordpool_576.txt	LTP251	ltpFR2	3	6	MARS	873	n/a	n/a	0	0	0
1137484	WORD	wordpools/wasnorm_wordpool_576.txt	LTP251	ltpFR2	3	6	TILE	1468	n/a	n/a	0	0	0
1140297	WORD	wordpools/wasnorm_wordpool_576.txt	LTP251	ltpFR2	3	6	UNCLE	1536	n/a	n/a	0	0	0
1143089	WORD	wordpools/wasnorm_wordpool_576.txt	LTP251	ltpFR2	3	6	CLOCK	325	n/a	n/a	0	0	0
1145618	WORD	wordpools/wasnorm_wordpool_576.txt	LTP251	ltpFR2	3	6	FILM	565	n/a	n/a	0	0	0
1148353	WORD	wordpools/wasnorm_wordpool_576.txt	LTP251	ltpFR2	3	6	MESSAGE	888	n/a	n/a	0	0	0
1150966	WORD	wordpools/wasnorm_wordpool_576.txt	LTP251	ltpFR2	3	6	BEAKER	104	n/a	n/a	0	0	0
1153641	WORD	wordpools/wasnorm_wordpool_576.txt	LTP251	ltpFR2	3	6	DRILL	497	n/a	n/a	0	0	0
1156276	WORD	wordpools/wasnorm_wordpool_576.txt	LTP251	ltpFR2	3	6	KLEENEX	782	n/a	n/a	0	0	0
1158811	WORD	wordpools/wasnorm_wordpool_576.txt	LTP251	ltpFR2	3	6	PORTRAIT	1111	n/a	n/a	0	0	0
1161463	WORD	wordpools/wasnorm_wordpool_576.txt	LTP251	ltpFR2	3	6	CROWN	415	n/a	n/a	0	0	0
1164248	WORD	wordpools/wasnorm_wordpool_576.txt	LTP251	ltpFR2	3	6	CATTLE	261	n/a	n/a	0	0	0
1166826	WORD	wordpools/wasnorm_wordpool_576.txt	LTP251	ltpFR2	3	6	CROSS	413	n/a	n/a	0	0	0
1169320	WORD	wordpools/wasnorm_wordpool_576.txt	LTP251	ltpFR2	3	6	CHAPEL	280	n/a	n/a	0	0	0
1170930	START	n/a	LTP251	ltpFR2	3	n/a	n/a	n/a	12	n/a	n/a	n/a	n/a
1171998	DISTRACTOR	n/a	LTP251	ltpFR2	3	6	n/a	n/a	n/a	n/a	0	0	0
1172014	PROB	n/a	LTP251	ltpFR2	3	n/a	n/a	n/a	12	13	4	2	7
1174794	PROB	n/a	LTP251	ltpFR2	3	n/a	n/a	n/a	12	13	2	8	3
1176014	PROB	n/a	LTP251	ltpFR2	3	n/a	n/a	n/a	12	13	5	6	2
1178473	PROB	n/a	LTP251	ltpFR2	3	n/a	n/a	n/a	12	16	4	4	8
1180412	PROB	n/a	LTP251	ltpFR2	3	n/a	n/a	n/a	12	14	2	6	6
1185459	PROB	n/a	LTP251	ltpFR2	3	n/a	n/a	n/a	12	13	5	5	3
1187111	PROB	n/a	LTP251	ltpFR2	3	n/a	n/a	n/a	12	16	4	3	9
1188746	PROB	n/a	LTP251	ltpFR2	3	n/a	n/a	n/a	12	16	2	7	7
1191564	PROB	n/a	LTP251	ltpFR2	3	n/a	n/a	n/a	12	9	4	1	4
1193533	STOP	n/a	LTP251	ltpFR2	3	n/a	n/a	n/a	12	n/a	n/a	n/a	n/a
1196791	REC_START	n/a	LTP251	ltpFR2	3	6	n/a	n/a	n/a	n/a	0	0	0
1199020	REC_WORD	wordpools/wasnorm_wordpool_576.txt	LTP251	ltpFR2	3	6	PAPER	1011	n/a	n/a	0	0	0
1200397	REC_WORD	wordpools/wasnorm_wordpool_576.txt	LTP251	ltpFR2	3	6	DENTIST	447	n/a	n/a	0	0	0
1204082	REC_WORD	wordpools/wasnorm_wordpool_576.txt	LTP251	ltpFR2	3	6	FOREHEAD	592	n/a	n/a	0	0	0
1206863	REC_WORD	wordpools/wasnorm_wordpool_576.txt	LTP251	ltpFR2	3	6	BACKBONE	66	n/a	n/a	0	0	0
1208986	REC_WORD	wordpools/wasnorm_wordpool_576.txt	LTP251	ltpFR2	3	6	FLESH	579	n/a	n/a	0	0	0
1211100	REC_WORD	wordpools/wasnorm_wordpool_576.txt	LTP251	ltpFR2	3	6	HATCHET	691	n/a	n/a	0	0	0
1212982	REC_WORD	wordpools/wasnorm_wordpool_576.txt	LTP251	ltpFR2	3	6	KNIFE	785	n/a	n/a	0	0	0
1214856	REC_WORD	wordpools/wasnorm_wordpool_576.txt	LTP251	ltpFR2	3	6	GEL	-1	n/a	n/a	0	0	0
1217045	REC_WORD	wordpools/wasnorm_wordpool_576.txt	LTP251	ltpFR2	3	6	CROSS	413	n/a	n/a	0	0	0
1219263	REC_WORD	wordpools/wasnorm_wordpool_576.txt	LTP251	ltpFR2	3	6	CHAPEL	280	n/a	n/a	0	0	0
1222223	REC_WORD	wordpools/wasnorm_wordpool_576.txt	LTP251	ltpFR2	3	6	MESSAGE	888	n/a	n/a	0	0	0
1224637	REC_WORD	wordpools/wasnorm_wordpool_576.txt	LTP251	ltpFR2	3	6	BEAKER	104	n/a	n/a	0	0	0
1226574	REC_WORD	wordpools/wasnorm_wordpool_576.txt	LTP251	ltpFR2	3	6	RUG	1215	n/a	n/a	0	0	0
1228502	REC_WORD	wordpools/wasnorm_wordpool_576.txt	LTP251	ltpFR2	3	6	TILE	1468	n/a	n/a	0	0	0
1231711	REC_WORD	wordpools/wasnorm_wordpool_576.txt	LTP251	ltpFR2	3	6	TISSUE	-1	n/a	n/a	0	0	0
1233862	REC_WORD	wordpools/wasnorm_wordpool_576.txt	LTP251	ltpFR2	3	6	KLEENEX	782	n/a	n/a	0	0	0
1238491	REC_WORD	wordpools/wasnorm_wordpool_576.txt	LTP251	ltpFR2	3	6	FOX	598	n/a	n/a	0	0	0
1240395	REC_WORD	wordpools/wasnorm_wordpool_576.txt	LTP251	ltpFR2	3	6	CATTLE	261	n/a	n/a	0	0	0
1242332	REC_WORD	wordpools/wasnorm_wordpool_576.txt	LTP251	ltpFR2	3	6	MARS	873	n/a	n/a	0	0	0
1245024	REC_WORD	wordpools/wasnorm_wordpool_576.txt	LTP251	ltpFR2	3	6	PORTRAIT	1111	n/a	n/a	0	0	0
1247926	REC_WORD	wordpools/wasnorm_wordpool_576.txt	LTP251	ltpFR2	3	6	FRAME	600	n/a	n/a	0	0	0
1250676	REC_WORD	wordpools/wasnorm_wordpool_576.txt	LTP251	ltpFR2	3	6	UNCLE	1536	n/a	n/a	0	0	0
1253138	REC_WORD	wordpools/wasnorm_wordpool_576.txt	LTP251	ltpFR2	3	6	CLOCK	325	n/a	n/a	0	0	0
1287292	WORD	wordpools/wasnorm_wordpool_576.txt	LTP251	ltpFR2	3	7	MAPLE	866	n/a	n/a	0	0	0
1289733	WORD	wordpools/wasnorm_wordpool_576.txt	LTP251	ltpFR2	3	7	CANYON	235	n/a	n/a	0	0	0
1292418	WORD	wordpools/wasnorm_wordpool_576.txt	LTP251	ltpFR2	3	7	FOOTBALL	591	n/a	n/a	0	0	0
1295221	WORD	wordpools/wasnorm_wordpool_576.txt	LTP251	ltpFR2	3	7	GYMNAST	675	n/a	n/a	0	0	0
1297706	WORD	wordpools/wasnorm_wordpool_576.txt	LTP251	ltpFR2	3	7	PLUTO	1092	n/a	n/a	0	0	0
1300508	WORD	wordpools/wasnorm_wordpool_576.txt	LTP251	ltpFR2	3	7	COFFEE	341	n/a	n/a	0	0	0
1303111	WORD	wordpools/wasnorm_wordpool_576.txt	LTP251	ltpFR2	3	7	WIDOW	1608	n/a	n/a	0	0	0
1305679	WORD	wordpools/wasnorm_wordpool_576.txt	LTP251	ltpFR2	3	7	SPACE	1345	n/a	n/a	0	0	0
1308350	WORD	wordpools/wasnorm_wordpool_576.txt	LTP251	ltpFR2	3	7	BLOCKADE	137	n/a	n/a	0	0	0
1311150	WORD	wordpools/wasnorm_wordpool_576.txt	LTP251	ltpFR2	3	7	MATTRESS	879	n/a	n/a	0	0	0
1313769	WORD	wordpools/wasnorm_wordpool_576.txt	LTP251	ltpFR2	3	7	SKIRT	1319	n/a	n/a	0	0	0
1316355	WORD	wordpools/wasnorm_wordpool_576.txt	LTP251	ltpFR2	3	7	GARLIC	624	n/a	n/a	0	0	0
1318890	WORD	wordpools/wasnorm_wordpool_576.txt	LTP251	ltpFR2	3	7	LAGOON	795	n/a	n/a	0	0	0
1321559	WORD	wordpools/wasnorm_wordpool_576.txt	LTP251	ltpFR2	3	7	BUREAU	199	n/a	n/a	0	0	0
1324328	WORD	wordpools/wasnorm_wordpool_576.txt	LTP251	ltpFR2	3	7	CABBAGE	210	n/a	n/a	0	0	0
1326979	WORD	wordpools/wasnorm_wordpool_576.txt	LTP251	ltpFR2	3	7	HARP	689	n/a	n/a	0	0	0
1329648	WORD	wordpools/wasnorm_wordpool_576.txt	LTP251	ltpFR2	3	7	RAFT	1159	n/a	n/a	0	0	0
1332484	WORD	wordpools/wasnorm_wordpool_576.txt	LTP251	ltpFR2	3	7	SPONGE	1355	n/a	n/a	0	0	0
1335140	WORD	wordpools/wasnorm_wordpool_576.txt	LTP251	ltpFR2	3	7	DAUGHTER	442	n/a	n/a	0	0	0
1337941	WORD	wordpools/wasnorm_wordpool_576.txt	LTP251	ltpFR2	3	7	MUFFIN	929	n/a	n/a	0	0	0
1340645	WORD	wordpools/wasnorm_wordpool_576.txt	LTP251	ltpFR2	3	7	BRAKE	166	n/a	n/a	0	0	0
1343309	WORD	wordpools/wasnorm_wordpool_576.txt	LTP251	ltpFR2	3	7	VIKING	1565	n/a	n/a	0	0	0
1345995	WORD	wordpools/wasnorm_wordpool_576.txt	LTP251	ltpFR2	3	7	PADDLE	1000	n/a	n/a	0	0	0
1348580	WORD	wordpools/wasnorm_wordpool_576.txt	LTP251	ltpFR2	3	7	COMET	353	n/a	n/a	0	0	0
1350199	START	n/a	LTP251	ltpFR2	3	n/a	n/a	n/a	13	n/a	n/a	n/a	n/a
1351066	DISTRACTOR	n/a	LTP251	ltpFR2	3	7	n/a	n/a	n/a	n/a	0	0	0
1351082	PROB	n/a	LTP251	ltpFR2	3	n/a	n/a	n/a	13	9	3	1	5
1353271	PROB	n/a	LTP251	ltpFR2	3	n/a	n/a	n/a	13	14	2	8	4
1355302	PROB	n/a	LTP251	ltpFR2	3	n/a	n/a	n/a	13	15	5	1	9
1357158	PROB	n/a	LTP251	ltpFR2	3	n/a	n/a	n/a	13	11	1	8	2
1361185	PROB	n/a	LTP251	ltpFR2	3	n/a	n/a	n/a	13	11	3	3	5
1363420	PROB	n/a	LTP251	ltpFR2	3	n/a	n/a	n/a	13	10	1	8	1
1364915	PROB	n/a	LTP251	ltpFR2	3	n/a	n/a	n/a	13	20	8	7	5
1368263	PROB	n/a	LTP251	ltpFR2	3	n/a	n/a	n/a	13	13	5	5	3
1369397	PROB	n/a	LTP251	ltpFR2	3	n/a	n/a	n/a	13	18	9	2	7
1372105	PROB	n/a	LTP251	ltpFR2	3	n/a	n/a	n/a	13	13	1	9	3
1373612	STOP	n/a	LTP251	ltpFR2	3	n/a	n/a	n/a	13	n/a	n/a	n/a	n/a
1376013	REC_START	n/a	LTP251	ltpFR2	3	7	n/a	n/a	n/a	n/a	0	0	0
1378082	REC_WORD	wordpools/wasnorm_wordpool_576.txt	LTP251	ltpFR2	3	7	MAPLE	866	n/a	n/a	0	0	0
1379574	REC_WORD	wordpools/wasnorm_wordpool_576.txt	LTP251	ltpFR2	3	7	CANYON	235	n/a	n/a	0	0	0
1381056	REC_WORD	wordpools/wasnorm_wordpool_576.txt	LTP251	ltpFR2	3	7	BLOCKADE	137	n/a	n/a	0	0	0
1382827	REC_WORD	wordpools/wasnorm_wordpool_576.txt	LTP251	ltpFR2	3	7	CABBAGE	210	n/a	n/a	0	0	0
1384532	REC_WORD	wordpools/wasnorm_wordpool_576.txt	LTP251	ltpFR2	3	7	WIDOW	1608	n/a	n/a	0	0	0
1386303	REC_WORD	wordpools/wasnorm_wordpool_576.txt	LTP251	ltpFR2	3	7	DAUGHTER	442	n/a	n/a	0	0	0
1387901	REC_WORD	wordpools/wasnorm_wordpool_576.txt	LTP251	ltpFR2	3	7	BRAKE	166	n/a	n/a	0	0	0
1389582	REC_WORD	wordpools/wasnorm_wordpool_576.txt	LTP251	ltpFR2	3	7	COMET	353	n/a	n/a	0	0	0
1391244	REC_WORD	wordpools/wasnorm_wordpool_576.txt	LTP251	ltpFR2	3	7	FOOTBALL	591	n/a	n/a	0	0	0
1392800	REC_WORD	wordpools/wasnorm_wordpool_576.txt	LTP251	ltpFR2	3	7	GYMNAST	675	n/a	n/a	0	0	0
1394498	REC_WORD	wordpools/wasnorm_wordpool_576.txt	LTP251	ltpFR2	3	7	RAFT	1159	n/a	n/a	0	0	0
1396026	REC_WORD	wordpools/wasnorm_wordpool_576.txt	LTP251	ltpFR2	3	7	PADDLE	1000	n/a	n/a	0	0	0
1397907	REC_WORD	wordpools/wasnorm_wordpool_576.txt	LTP251	ltpFR2	3	7	VIKING	1565	n/a	n/a	0	0	0
1466524	WORD	wordpools/wasnorm_wordpool_576.txt	LTP251	ltpFR2	3	8	BRIEFCASE	175	n/a	n/a	0	0	0
1469123	WORD	wordpools/wasnorm_wordpool_576.txt	LTP251	ltpFR2	3	8	PARENT	1013	n/a	n/a	0	0	0
1471663	WORD	wordpools/wasnorm_wordpool_576.txt	LTP251	ltpFR2	3	8	SNACK	1331	n/a	n/a	0	0	0
1474345	WORD	wordpools/wasnorm_wordpool_576.txt	LTP251	ltpFR2	3	8	BEEF	113	n/a	n/a	0	0	0
1476879	WORD	wordpools/wasnorm_wordpool_576.txt	LTP251	ltpFR2	3	8	MILK	895	n/a	n/a	0	0	0
1479332	WORD	wordpools/wasnorm_wordpool_576.txt	LTP251	ltpFR2	3	8	PIGEON	1065	n/a	n/a	0	0	0
1482018	WORD	wordpools/wasnorm_wordpool_576.txt	LTP251	ltpFR2	3	8	CHILD	299	n/a	n/a	0	0	0
1484486	WORD	wordpools/wasnorm_wordpool_576.txt	LTP251	ltpFR2	3	8	CLOTHES	327	n/a	n/a	0	0	0
1487205	WORD	wordpools/wasnorm_wordpool_576.txt	LTP251	ltpFR2	3	8	GARBAGE	622	n/a	n/a	0	0	0
1489840	WORD	wordpools/wasnorm_wordpool_576.txt	LTP251	ltpFR2	3	8	RUST	1219	n/a	n/a	0	0	0
1492312	WORD	wordpools/wasnorm_wordpool_576.txt	LTP251	ltpFR2	3	8	VALVE	1546	n/a	n/a	0	0	0
1494778	WORD	wordpools/wasnorm_wordpool_576.txt	LTP251	ltpFR2	3	8	CAMEL	223	n/a	n/a	0	0	0
1497331	WORD	wordpools/wasnorm_wordpool_576.txt	LTP251	ltpFR2	3	8	YOLK	1633	n/a	n/a	0	0	0
1499984	WORD	wordpools/wasnorm_wordpool_576.txt	LTP251	ltpFR2	3	8	BADGE	68	n/a	n/a	0	0	0
1502636	WORD	wordpools/wasnorm_wordpool_576.txt	LTP251	ltpFR2	3	8	LOFT	840	n/a	n/a	0	0	0
1505421	WORD	wordpools/wasnorm_wordpool_576.txt	LTP251	ltpFR2	3	8	GANGSTER	620	n/a	n/a	0	0	0
1508058	WORD	wordpools/wasnorm_wordpool_576.txt	LTP251	ltpFR2	3	8	ICING	732	n/a	n/a	0	0	0
1510758	WORD	wordpools/wasnorm_wordpool_576.txt	LTP251	ltpFR2	3	8	POSSUM	1112	n/a	n/a	0	0	0
1513395	WORD	wordpools/wasnorm_wordpool_576.txt	LTP251	ltpFR2	3	8	INFANT	737	n/a	n/a	0	0	0
1516030	WORD	wordpools/wasnorm_wordpool_576.txt	LTP251	ltpFR2	3	8	FRAGRANCE	599	n/a	n/a	0	0	0
1518516	WORD	wordpools/wasnorm_wordpool_576.txt	LTP251	ltpFR2	3	8	PERFUME	1049	n/a	n/a	0	0	0
1521235	WORD	wordpools/wasnorm_wordpool_576.txt	LTP251	ltpFR2	3	8	HAWK	692	n/a	n/a	0	0	0
1523837	WORD	wordpools/wasnorm_wordpool_576.txt	LTP251	ltpFR2	3	8	THIEF	1456	n/a	n/a	0	0	0
1526656	WORD	wordpools/wasnorm_wordpool_576.txt	LTP251	ltpFR2	3	8	FLOWER	584	n/a	n/a	0	0	0
1528275	START	n/a	LTP251	ltpFR2	3	n/a	n/a	n/a	14	n/a	n/a	n/a	n/a
1529375	DISTRACTOR	n/a	LTP251	ltpFR2	3	8	n/a	n/a	n/a	n/a	0	0	0
1529392	PROB	n/a	LTP251	ltpFR2	3	n/a	n/a	n/a	14	16	4	4	8
1531721	PROB	n/a	LTP251	ltpFR2	3	n/a	n/a	n/a	14	22	8	6	8
1534546	PROB	n/a	LTP251	ltpFR2	3	n/a	n/a	n/a	14	9	2	4	3
1537642	PROB	n/a	LTP251	ltpFR2	3	n/a	n/a	n/a	14	21	5	9	7
1539278	PROB	n/a	LTP251	ltpFR2	3	n/a	n/a	n/a	14	18	7	4	7
1541946	PROB	n/a	LTP251	ltpFR2	3	n/a	n/a	n/a	14	18	9	7	2
1544887	PROB	n/a	LTP251	ltpFR2	3	n/a	n/a	n/a	14	6	4	1	1
1546707	PROB	n/a	LTP251	ltpFR2	3	n/a	n/a	n/a	14	10	5	3	2
1548851	PROB	n/a	LTP251	ltpFR2	3	n/a	n/a	n/a	14	21	9	5	7
1551914	STOP	n/a	LTP251	ltpFR2	3	n/a	n/a	n/a	14	n/a	n/a	n/a	n/a
1554156	REC_START	n/a	LTP251	ltpFR2	3	8	n/a	n/a	n/a	n/a	0	0	0
1556872	REC_WORD	wordpools/wasnorm_wordpool_576.txt	LTP251	ltpFR2	3	8	BRIEFCASE	175	n/a	n/a	0	0	0
1558347	REC_WORD	wordpools/wasnorm_wordpool_576.txt	LTP251	ltpFR2	3	8	PARENT	1013	n/a	n/a	0	0	0
1559569	REC_WORD	wordpools/wasnorm_wordpool_576.txt	LTP251	ltpFR2	3	8	CHILD	299	n/a	n/a	0	0	0
1561059	REC_WORD	wordpools/wasnorm_wordpool_576.txt	LTP251	ltpFR2	3	8	INFANT	737	n/a	n/a	0	0	0
1562755	REC_WORD	wordpools/wasnorm_wordpool_576.txt	LTP251	ltpFR2	3	8	CLOTHES	327	n/a	n/a	0	0	0
1564196	REC_WORD	wordpools/wasnorm_wordpool_576.txt	LTP251	ltpFR2	3	8	FRAGRANCE	599	n/a	n/a	0	0	0
1565794	REC_WORD	wordpools/wasnorm_wordpool_576.txt	LTP251	ltpFR2	3	8	PERFUME	1049	n/a	n/a	0	0	0
1568408	REC_WORD	wordpools/wasnorm_wordpool_576.txt	LTP251	ltpFR2	3	8	MILK	895	n/a	n/a	0	0	0
1569699	REC_WORD	wordpools/wasnorm_wordpool_576.txt	LTP251	ltpFR2	3	8	BEEF	113	n/a	n/a	0	0	0
1571627	REC_WORD	wordpools/wasnorm_wordpool_576.txt	LTP251	ltpFR2	3	8	ICING	732	n/a	n/a	0	0	0
1573537	REC_WORD	wordpools/wasnorm_wordpool_576.txt	LTP251	ltpFR2	3	8	VALVE	1546	n/a	n/a	0	0	0
1575079	REC_WORD	wordpools/wasnorm_wordpool_576.txt	LTP251	ltpFR2	3	8	RUST	1219	n/a	n/a	0	0	0
1576722	REC_WORD	wordpools/wasnorm_wordpool_576.txt	LTP251	ltpFR2	3	8	GARBAGE	622	n/a	n/a	0	0	0
1578987	REC_WORD	wordpools/wasnorm_wordpool_576.txt	LTP251	ltpFR2	3	8	CAMEL	223	n/a	n/a	0	0	0
1580845	REC_WORD	wordpools/wasnorm_wordpool_576.txt	LTP251	ltpFR2	3	8	FLOWER	584	n/a	n/a	0	0	0
1586444	REC_WORD	wordpools/wasnorm_wordpool_576.txt	LTP251	ltpFR2	3	8	POSSUM	1112	n/a	n/a	0	0	0
1589444	REC_WORD	wordpools/wasnorm_wordpool_576.txt	LTP251	ltpFR2	3	8	PIGEON	1065	n/a	n/a	0	0	0
1600021	REC_WORD	wordpools/wasnorm_wordpool_576.txt	LTP251	ltpFR2	3	8	GANGSTER	620	n/a	n/a	0	0	0
1630689	REST_REWET	n/a	LTP251	ltpFR2	3	8	n/a	n/a	n/a	n/a	0	0	0
1850617	DISTRACTOR	n/a	LTP251	ltpFR2	3	9	n/a	n/a	n/a	n/a	0	0	0
1850617	START	n/a	LTP251	ltpFR2	3	n/a	n/a	n/a	15	n/a	n/a	n/a	n/a
1850638	PROB	n/a	LTP251	ltpFR2	3	n/a	n/a	n/a	15	12	5	6	1
1852040	PROB	n/a	LTP251	ltpFR2	3	n/a	n/a	n/a	15	20	6	6	8
1853534	PROB	n/a	LTP251	ltpFR2	3	n/a	n/a	n/a	15	12	4	6	2
1854714	PROB	n/a	LTP251	ltpFR2	3	n/a	n/a	n/a	15	19	6	7	6
1856510	PROB	n/a	LTP251	ltpFR2	3	n/a	n/a	n/a	15	13	3	4	6
1857843	PROB	n/a	LTP251	ltpFR2	3	n/a	n/a	n/a	15	16	8	4	4
1859580	PROB	n/a	LTP251	ltpFR2	3	n/a	n/a	n/a	15	21	7	7	4
1860997	PROB	n/a	LTP251	ltpFR2	3	n/a	n/a	n/a	15	20	9	8	3
1864167	PROB	n/a	LTP251	ltpFR2	3	n/a	n/a	n/a	15	10	4	4	3
1865730	PROB	n/a	LTP251	ltpFR2	3	n/a	n/a	n/a	15	22	8	6	8
1869204	PROB	n/a	LTP251	ltpFR2	3	n/a	n/a	n/a	15	21	6	7	8
1872594	PROB	n/a	LTP251	ltpFR2	3	n/a	n/a	n/a	15	16	5	5	5
1873758	STOP	n/a	LTP251	ltpFR2	3	n/a	n/a	n/a	15	n/a	n/a	n/a	n/a
1875477	WORD	wordpools/wasnorm_wordpool_576.txt	LTP251	ltpFR2	3	9	GUARD	667	n/a	n/a	0	0	0
1878121	WORD	wordpools/wasnorm_wordpool_576.txt	LTP251	ltpFR2	3	9	NIGHTGOWN	953	n/a	n/a	0	0	0
1880847	WORD	wordpools/wasnorm_wordpool_576.txt	LTP251	ltpFR2	3	9	SUNRISE	1407	n/a	n/a	0	0	0
1883308	WORD	wordpools/wasnorm_wordpool_576.txt	LTP251	ltpFR2	3	9	PUDDLE	1140	n/a	n/a	0	0	0
1886011	WORD	wordpools/wasnorm_wordpool_576.txt	LTP251	ltpFR2	3	9	PACKAGE	997	n/a	n/a	0	0	0
1888530	WORD	wordpools/wasnorm_wordpool_576.txt	LTP251	ltpFR2	3	9	SUBWAY	1400	n/a	n/a	0	0	0
1891082	WORD	wordpools/wasnorm_wordpool_576.txt	LTP251	ltpFR2	3	9	TUNNEL	1519	n/a	n/a	0	0	0
1893509	WORD	wordpools/wasnorm_wordpool_576.txt	LTP251	ltpFR2	3	9	TUTU	1524	n/a	n/a	0	0	0
1896036	WORD	wordpools/wasnorm_wordpool_576.txt	LTP251	ltpFR2	3	9	BUGGY	188	n/a	n/a	0	0	0
1898580	WORD	wordpools/wasnorm_wordpool_576.txt	LTP251	ltpFR2	3	9	HEDGE	699	n/a	n/a	0	0	0
1901266	WORD	wordpools/wasnorm_wordpool_576.txt	LTP251	ltpFR2	3	9	POISON	1096	n/a	n/a	0	0	0
1903735	WORD	wordpools/wasnorm_wordpool_576.txt	LTP251	ltpFR2	3	9	WIFE	1609	n/a	n/a	0	0	0
1906454	WORD	wordpools/wasnorm_wordpool_576.txt	LTP251	ltpFR2	3	9	BLOUSE	139	n/a	n/a	0	0	0
1909240	WORD	wordpools/wasnorm_wordpool_576.txt	LTP251	ltpFR2	3	9	BANK	83	n/a	n/a	0	0	0
1911708	WORD	wordpools/wasnorm_wordpool_576.txt	LTP251	ltpFR2	3	9	OFFICE	972	n/a	n/a	0	0	0
1914310	WORD	wordpools/wasnorm_wordpool_576.txt	LTP251	ltpFR2	3	9	MACHINE	852	n/a	n/a	0	0	0
1916969	WORD	wordpools/wasnorm_wordpool_576.txt	LTP251	ltpFR2	3	9	CURTAIN	427	n/a	n/a	0	0	0
1919549	WORD	wordpools/wasnorm_wordpool_576.txt	LTP251	ltpFR2	3	9	SHERIFF	1284	n/a	n/a	0	0	0
1922168	WORD	wordpools/wasnorm_wordpool_576.txt	LTP251	ltpFR2	3	9	SUNSET	1408	n/a	n/a	0	0	0
1924919	WORD	wordpools/wasnorm_wordpool_576.txt	LTP251	ltpFR2	3	9	FEMALE	559	n/a	n/a	0	0	0
1927377	WORD	wordpools/wasnorm_wordpool_576.txt	LTP251	ltpFR2	3	9	SHELTER	1282	n/a	n/a	0	0	0
1930058	WORD	wordpools/wasnorm_wordpool_576.txt	LTP251	ltpFR2	3	9	SPOUSE	1358	n/a	n/a	0	0	0
1932660	WORD	wordpools/wasnorm_wordpool_576.txt	LTP251	ltpFR2	3	9	HUSBAND	728	n/a	n/a	0	0	0
1935212	WORD	wordpools/wasnorm_wordpool_576.txt	LTP251	ltpFR2	3	9	LIZARD	834	n/a	n/a	0	0	0
1936831	START	n/a	LTP251	ltpFR2	3	n/a	n/a	n/a	16	n/a	n/a	n/a	n/a
1937929	DISTRACTOR	n/a	LTP251	ltpFR2	3	9	n/a	n/a	n/a	n/a	0	0	0
1937947	PROB	n/a	LTP251	ltpFR2	3	n/a	n/a	n/a	16	15	1	5	9
1939965	PROB	n/a	LTP251	ltpFR2	3	n/a	n/a	n/a	16	9	6	2	1
1942502	PROB	n/a	LTP251	ltpFR2	3	n/a	n/a	n/a	16	10	5	1	4
1944753	PROB	n/a	LTP251	ltpFR2	3	n/a	n/a	n/a	16	11	2	8	1
1947239	PROB	n/a	LTP251	ltpFR2	3	n/a	n/a	n/a	16	20	9	2	9
1950009	PROB	n/a	LTP251	ltpFR2	3	n/a	n/a	n/a	16	24	8	6	8
1952809	PROB	n/a	LTP251	ltpFR2	3	n/a	n/a	n/a	16	11	4	4	3
1960831	STOP	n/a	LTP251	ltpFR2	3	n/a	n/a	n/a	16	n/a	n/a	n/a	n/a
1962639	REC_START	n/a	LTP251	ltpFR2	3	9	n/a	n/a	n/a	n/a	0	0	0
1969378	REC_WORD	wordpools/wasnorm_wordpool_576.txt	LTP251	ltpFR2	3	9	NIGHTGOWN	953	n/a	n/a	0	0	0
1975104	REC_WORD	wordpools/wasnorm_wordpool_576.txt	LTP251	ltpFR2	3	9	BLOUSE	139	n/a	n/a	0	0	0
1978369	REC_WORD	wordpools/wasnorm_wordpool_576.txt	LTP251	ltpFR2	3	9	WIFE	1609	n/a	n/a	0	0	0
1979591	REC_WORD	wordpools/wasnorm_wordpool_576.txt	LTP251	ltpFR2	3	9	SPOUSE	1358	n/a	n/a	0	0	0
1981206	REC_WORD	wordpools/wasnorm_wordpool_576.txt	LTP251	ltpFR2	3	9	FEMALE	559	n/a	n/a	0	0	0
1982959	REC_WORD	wordpools/wasnorm_wordpool_576.txt	LTP251	ltpFR2	3	9	HUSBAND	728	n/a	n/a	0	0	0
1984988	REC_WORD	wordpools/wasnorm_wordpool_576.txt	LTP251	ltpFR2	3	9	GUARD	667	n/a	n/a	0	0	0
1987756	REC_WORD	wordpools/wasnorm_wordpool_576.txt	LTP251	ltpFR2	3	9	OFFICE	972	n/a	n/a	0	0	0
1988966	REC_WORD	wordpools/wasnorm_wordpool_576.txt	LTP251	ltpFR2	3	9	BANK	83	n/a	n/a	0	0	0
1990062	REC_WORD	wordpools/wasnorm_wordpool_576.txt	LTP251	ltpFR2	3	9	HEDGE	699	n/a	n/a	0	0	0
1991787	REC_WORD	wordpools/wasnorm_wordpool_576.txt	LTP251	ltpFR2	3	9	TUNNEL	1519	n/a	n/a	0	0	0
1992900	REC_WORD	wordpools/wasnorm_wordpool_576.txt	LTP251	ltpFR2	3	9	SUBWAY	1400	n/a	n/a	0	0	0
1994636	REC_WORD	wordpools/wasnorm_wordpool_576.txt	LTP251	ltpFR2	3	9	SUNRISE	1407	n/a	n/a	0	0	0
1996117	REC_WORD	wordpools/wasnorm_wordpool_576.txt	LTP251	ltpFR2	3	9	SUNSET	1408	n/a	n/a	0	0	0
2002400	REC_WORD	wordpools/wasnorm_wordpool_576.txt	LTP251	ltpFR2	3	9	POISON	1096	n/a	n/a	0	0	0
2012725	REC_WORD	wordpools/wasnorm_wordpool_576.txt	LTP251	ltpFR2	3	9	LIZARD	834	n/a	n/a	0	0	0
2018069	REC_WORD	wordpools/wasnorm_wordpool_576.txt	LTP251	ltpFR2	3	9	WINDOW	1611	n/a	n/a	0	0	0
2053145	DISTRACTOR	n/a	LTP251	ltpFR2	3	10	n/a	n/a	n/a	n/a	0	0	0
2053145	START	n/a	LTP251	ltpFR2	3	n/a	n/a	n/a	17	n/a	n/a	n/a	n/a
2053164	PROB	n/a	LTP251	ltpFR2	3	n/a	n/a	n/a	17	14	2	4	8
2055384	PROB	n/a	LTP251	ltpFR2	3	n/a	n/a	n/a	17	15	9	3	3
2057394	PROB	n/a	LTP251	ltpFR2	3	n/a	n/a	n/a	17	12	7	2	3
2059011	PROB	n/a	LTP251	ltpFR2	3	n/a	n/a	n/a	17	13	7	4	2
2062005	PROB	n/a	LTP251	ltpFR2	3	n/a	n/a	n/a	17	22	7	8	7
2065008	PROB	n/a	LTP251	ltpFR2	3	n/a	n/a	n/a	17	7	5	1	1
2066388	PROB	n/a	LTP251	ltpFR2	3	n/a	n/a	n/a	17	6	1	1	4
2067750	PROB	n/a	LTP251	ltpFR2	3	n/a	n/a	n/a	17	16	1	7	8
2069402	PROB	n/a	LTP251	ltpFR2	3	n/a	n/a	n/a	17	17	4	6	7
2070833	PROB	n/a	LTP251	ltpFR2	3	n/a	n/a	n/a	17	15	8	4	3
2077145	STOP	n/a	LTP251	ltpFR2	3	n/a	n/a	n/a	17	n/a	n/a	n/a	n/a
2078081	WORD	wordpools/wasnorm_wordpool_576.txt	LTP251	ltpFR2	3	10	COOK	372	n/a	n/a	0	0	0
2080633	WORD	wordpools/wasnorm_wordpool_576.txt	LTP251	ltpFR2	3	10	SANDWICH	1232	n/a	n/a	0	0	0
2083386	WORD	wordpools/wasnorm_wordpool_576.txt	LTP251	ltpFR2	3	10	CLOUD	328	n/a	n/a	0	0	0
2085870	WORD	wordpools/wasnorm_wordpool_576.txt	LTP251	ltpFR2	3	10	JELLO	754	n/a	n/a	0	0	0
2088524	WORD	wordpools/wasnorm_wordpool_576.txt	LTP251	ltpFR2	3	10	FINGER	567	n/a	n/a	0	0	0
2090992	WORD	wordpools/wasnorm_wordpool_576.txt	LTP251	ltpFR2	3	10	GIFT	635	n/a	n/a	0	0	0
2093734	WORD	wordpools/wasnorm_wordpool_576.txt	LTP251	ltpFR2	3	10	MOTOR	922	n/a	n/a	0	0	0
2096247	WORD	wordpools/wasnorm_wordpool_576.txt	LTP251	ltpFR2	3	10	CHEMIST	292	n/a	n/a	0	0	0
2098698	WORD	wordpools/wasnorm_wordpool_576.txt	LTP251	ltpFR2	3	10	CHAMPAGNE	278	n/a	n/a	0	0	0
2101501	WORD	wordpools/wasnorm_wordpool_576.txt	LTP251	ltpFR2	3	10	DANCER	437	n/a	n/a	0	0	0
2103969	WORD	wordpools/wasnorm_wordpool_576.txt	LTP251	ltpFR2	3	10	LEOPARD	812	n/a	n/a	0	0	0
2106404	WORD	wordpools/wasnorm_wordpool_576.txt	LTP251	ltpFR2	3	10	PANTHER	1009	n/a	n/a	0	0	0
2109157	WORD	wordpools/wasnorm_wordpool_576.txt	LTP251	ltpFR2	3	10	SEAL	1262	n/a	n/a	0	0	0
2111625	WORD	wordpools/wasnorm_wordpool_576.txt	LTP251	ltpFR2	3	10	PICTURE	1061	n/a	n/a	0	0	0
2114378	WORD	wordpools/wasnorm_wordpool_576.txt	LTP251	ltpFR2	3	10	BOX	159	n/a	n/a	0	0	0
2117030	WORD	wordpools/wasnorm_wordpool_576.txt	LTP251	ltpFR2	3	10	SNAKE	1333	n/a	n/a	0	0	0
2119706	WORD	wordpools/wasnorm_wordpool_576.txt	LTP251	ltpFR2	3	10	PEPPER	1047	n/a	n/a	0	0	0
2122258	WORD	wordpools/wasnorm_wordpool_576.txt	LTP251	ltpFR2	3	10	SHOVEL	1295	n/a	n/a	0	0	0
2124843	WORD	wordpools/wasnorm_wordpool_576.txt	LTP251	ltpFR2	3	10	SEAFOOD	1260	n/a	n/a	0	0	0
2127654	WORD	wordpools/wasnorm_wordpool_576.txt	LTP251	ltpFR2	3	10	OYSTER	995	n/a	n/a	0	0	0
2130306	WORD	wordpools/wasnorm_wordpool_576.txt	LTP251	ltpFR2	3	10	BUG	187	n/a	n/a	0	0	0
2132800	WORD	wordpools/wasnorm_wordpool_576.txt	LTP251	ltpFR2	3	10	VENUS	1557	n/a	n/a	0	0	0
2135337	WORD	wordpools/wasnorm_wordpool_576.txt	LTP251	ltpFR2	3	10	STAR	1373	n/a	n/a	0	0	0
2138105	WORD	wordpools/wasnorm_wordpool_576.txt	LTP251	ltpFR2	3	10	DRIVER	499	n/a	n/a	0	0	0
2139716	START	n/a	LTP251	ltpFR2	3	n/a	n/a	n/a	18	n/a	n/a	n/a	n/a
2140837	DISTRACTOR	n/a	LTP251	ltpFR2	3	10	n/a	n/a	n/a	n/a	0	0	0
2140847	PROB	n/a	LTP251	ltpFR2	3	n/a	n/a	n/a	18	9	4	2	3
2142942	PROB	n/a	LTP251	ltpFR2	3	n/a	n/a	n/a	18	20	8	8	4
2144944	PROB	n/a	LTP251	ltpFR2	3	n/a	n/a	n/a	18	12	3	5	4
2146745	PROB	n/a	LTP251	ltpFR2	3	n/a	n/a	n/a	18	15	3	7	4
2148047	PROB	n/a	LTP251	ltpFR2	3	n/a	n/a	n/a	18	8	4	3	1
2150738	PROB	n/a	LTP251	ltpFR2	3	n/a	n/a	n/a	18	15	4	2	9
2152969	PROB	n/a	LTP251	ltpFR2	3	n/a	n/a	n/a	18	13	9	2	2
2155720	PROB	n/a	LTP251	ltpFR2	3	n/a	n/a	n/a	18	17	7	5	5
2157673	PROB	n/a	LTP251	ltpFR2	3	n/a	n/a	n/a	18	12	4	4	4
2159856	PROB	n/a	LTP251	ltpFR2	3	n/a	n/a	n/a	18	18	7	6	5
2163716	STOP	n/a	LTP251	ltpFR2	3	n/a	n/a	n/a	18	n/a	n/a	n/a	n/a
2165569	REC_START	n/a	LTP251	ltpFR2	3	10	n/a	n/a	n/a	n/a	0	0	0
2167789	REC_WORD	wordpools/wasnorm_wordpool_576.txt	LTP251	ltpFR2	3	10	COOK	372	n/a	n/a	0	0	0
2168648	REC_WORD	wordpools/wasnorm_wordpool_576.txt	LTP251	ltpFR2	3	10	SANDWICH	1232	n/a	n/a	0	0	0
2169944	REC_WORD	wordpools/wasnorm_wordpool_576.txt	LTP251	ltpFR2	3	10	PEPPER	1047	n/a	n/a	0	0	0
2171257	REC_WORD	wordpools/wasnorm_wordpool_576.txt	LTP251	ltpFR2	3	10	OYSTER	995	n/a	n/a	0	0	0
2172551	REC_WORD	wordpools/wasnorm_wordpool_576.txt	LTP251	ltpFR2	3	10	SEAFOOD	1260	n/a	n/a	0	0	0
2174065	REC_WORD	wordpools/wasnorm_wordpool_576.txt	LTP251	ltpFR2	3	10	CHAMPAGNE	278	n/a	n/a	0	0	0
2176271	REC_WORD	wordpools/wasnorm_wordpool_576.txt	LTP251	ltpFR2	3	10	BOX	159	n/a	n/a	0	0	0
2178282	REC_WORD	wordpools/wasnorm_wordpool_576.txt	LTP251	ltpFR2	3	10	DRIVER	499	n/a	n/a	0	0	0
2179837	REC_WORD	wordpools/wasnorm_wordpool_576.txt	LTP251	ltpFR2	3	10	BUG	187	n/a	n/a	0	0	0
2182121	REC_WORD	wordpools/wasnorm_wordpool_576.txt	LTP251	ltpFR2	3	10	SHOVEL	1295	n/a	n/a	0	0	0
2184073	REC_WORD	wordpools/wasnorm_wordpool_576.txt	LTP251	ltpFR2	3	10	VENUS	1557	n/a	n/a	0	0	0
2185644	REC_WORD	wordpools/wasnorm_wordpool_576.txt	LTP251	ltpFR2	3	10	COMET	353	n/a	n/a	0	0	0
2188384	REC_WORD	wordpools/wasnorm_wordpool_576.txt	LTP251	ltpFR2	3	10	SNAKE	1333	n/a	n/a	0	0	0
2196733	REC_WORD	wordpools/wasnorm_wordpool_576.txt	LTP251	ltpFR2	3	10	MOTOR	922	n/a	n/a	0	0	0
2198370	REC_WORD	wordpools/wasnorm_wordpool_576.txt	LTP251	ltpFR2	3	10	CHEMIST	292	n/a	n/a	0	0	0
2200276	REC_WORD	wordpools/wasnorm_wordpool_576.txt	LTP251	ltpFR2	3	10	LEOPARD	812	n/a	n/a	0	0	0
2202105	REC_WORD	wordpools/wasnorm_wordpool_576.txt	LTP251	ltpFR2	3	10	DANCER	437	n/a	n/a	0	0	0
2256086	WORD	wordpools/wasnorm_wordpool_576.txt	LTP251	ltpFR2	3	11	POET	1095	n/a	n/a	0	0	0
2258710	WORD	wordpools/wasnorm_wordpool_576.txt	LTP251	ltpFR2	3	11	WAGON	1578	n/a	n/a	0	0	0
2261278	WORD	wordpools/wasnorm_wordpool_576.txt	LTP251	ltpFR2	3	11	SWAMP	1416	n/a	n/a	0	0	0
2264064	WORD	wordpools/wasnorm_wordpool_576.txt	LTP251	ltpFR2	3	11	FOREST	593	n/a	n/a	0	0	0
2266516	WORD	wordpools/wasnorm_wordpool_576.txt	LTP251	ltpFR2	3	11	TORTOISE	1486	n/a	n/a	0	0	0
2269085	WORD	wordpools/wasnorm_wordpool_576.txt	LTP251	ltpFR2	3	11	GREASE	660	n/a	n/a	0	0	0
2271570	WORD	wordpools/wasnorm_wordpool_576.txt	LTP251	ltpFR2	3	11	STALLION	1369	n/a	n/a	0	0	0
2274107	WORD	wordpools/wasnorm_wordpool_576.txt	LTP251	ltpFR2	3	11	LION	827	n/a	n/a	0	0	0
2276624	WORD	wordpools/wasnorm_wordpool_576.txt	LTP251	ltpFR2	3	11	WHISTLE	1606	n/a	n/a	0	0	0
2279459	WORD	wordpools/wasnorm_wordpool_576.txt	LTP251	ltpFR2	3	11	CONCERT	360	n/a	n/a	0	0	0
2282115	WORD	wordpools/wasnorm_wordpool_576.txt	LTP251	ltpFR2	3	11	CLIMBER	323	n/a	n/a	0	0	0
2284564	WORD	wordpools/wasnorm_wordpool_576.txt	LTP251	ltpFR2	3	11	LODGE	839	n/a	n/a	0	0	0
2287266	WORD	wordpools/wasnorm_wordpool_576.txt	LTP251	ltpFR2	3	11	PUPIL	1143	n/a	n/a	0	0	0
2289801	WORD	wordpools/wasnorm_wordpool_576.txt	LTP251	ltpFR2	3	11	PATROL	1027	n/a	n/a	0	0	0
2292421	WORD	wordpools/wasnorm_wordpool_576.txt	LTP251	ltpFR2	3	11	ROBBER	1197	n/a	n/a	0	0	0
2294972	WORD	wordpools/wasnorm_wordpool_576.txt	LTP251	ltpFR2	3	11	CLAMP	316	n/a	n/a	0	0	0
2297791	WORD	wordpools/wasnorm_wordpool_576.txt	LTP251	ltpFR2	3	11	FIDDLE	561	n/a	n/a	0	0	0
2300610	WORD	wordpools/wasnorm_wordpool_576.txt	LTP251	ltpFR2	3	11	TROMBONE	1508	n/a	n/a	0	0	0
2303178	WORD	wordpools/wasnorm_wordpool_576.txt	LTP251	ltpFR2	3	11	RECEIPT	1173	n/a	n/a	0	0	0
2305664	WORD	wordpools/wasnorm_wordpool_576.txt	LTP251	ltpFR2	3	11	AUTHOR	61	n/a	n/a	0	0	0
2308354	WORD	wordpools/wasnorm_wordpool_576.txt	LTP251	ltpFR2	3	11	OUTDOORS	987	n/a	n/a	0	0	0
2310783	WORD	wordpools/wasnorm_wordpool_576.txt	LTP251	ltpFR2	3	11	SADDLE	1221	n/a	n/a	0	0	0
2313504	WORD	wordpools/wasnorm_wordpool_576.txt	LTP251	ltpFR2	3	11	GROUND	666	n/a	n/a	0	0	0
2316044	WORD	wordpools/wasnorm_wordpool_576.txt	LTP251	ltpFR2	3	11	GRAVEL	659	n/a	n/a	0	0	0
2317658	START	n/a	LTP251	ltpFR2	3	n/a	n/a	n/a	19	n/a	n/a	n/a	n/a
2318642	DISTRACTOR	n/a	LTP251	ltpFR2	3	11	n/a	n/a	n/a	n/a	0	0	0
2318661	PROB	n/a	LTP251	ltpFR2	3	n/a	n/a	n/a	19	11	1	2	8
2320241	PROB	n/a	LTP251	ltpFR2	3	n/a	n/a	n/a	19	18	8	3	7
2322089	PROB	n/a	LTP251	ltpFR2	3	n/a	n/a	n/a	19	12	1	7	4
2323755	PROB	n/a	LTP251	ltpFR2	3	n/a	n/a	n/a	19	9	4	1	4
2325219	PROB	n/a	LTP251	ltpFR2	3	n/a	n/a	n/a	19	11	8	2	1
2326547	PROB	n/a	LTP251	ltpFR2	3	n/a	n/a	n/a	19	14	2	3	9
2328566	PROB	n/a	LTP251	ltpFR2	3	n/a	n/a	n/a	19	14	6	4	4
2329805	PROB	n/a	LTP251	ltpFR2	3	n/a	n/a	n/a	19	18	8	3	7
2331451	PROB	n/a	LTP251	ltpFR2	3	n/a	n/a	n/a	19	20	7	4	9
2334626	PROB	n/a	LTP251	ltpFR2	3	n/a	n/a	n/a	19	20	9	9	2
2336744	PROB	n/a	LTP251	ltpFR2	3	n/a	n/a	n/a	19	12	8	3	1
2338263	PROB	n/a	LTP251	ltpFR2	3	n/a	n/a	n/a	19	15	6	2	7
2340578	STOP	n/a	LTP251	ltpFR2	3	n/a	n/a	n/a	19	n/a	n/a	n/a	n/a
2343455	REC_START	n/a	LTP251	ltpFR2	3	11	n/a	n/a	n/a	n/a	0	0	0
2346485	REC_WORD	wordpools/wasnorm_wordpool_576.txt	LTP251	ltpFR2	3	11	GREASE	660	n/a	n/a	0	0	0
2347474	REC_WORD	wordpools/wasnorm_wordpool_576.txt	LTP251	ltpFR2	3	11	STALLION	1369	n/a	n/a	0	0	0
2350188	REC_WORD	wordpools/wasnorm_wordpool_576.txt	LTP251	ltpFR2	3	11	BURGLAR	200	n/a	n/a	0	0	0
2351259	REC_WORD	wordpools/wasnorm_wordpool_576.txt	LTP251	ltpFR2	3	11	ROBBER	1197	n/a	n/a	0	0	0
2352741	REC_WORD	wordpools/wasnorm_wordpool_576.txt	LTP251	ltpFR2	3	11	GROUND	666	n/a	n/a	0	0	0
2354537	REC_WORD	wordpools/wasnorm_wordpool_576.txt	LTP251	ltpFR2	3	11	GRAVEL	659	n/a	n/a	0	0	0
2356118	REC_WORD	wordpools/wasnorm_wordpool_576.txt	LTP251	ltpFR2	3	11	LODGE	839	n/a	n/a	0	0	0
2357920	REC_WORD_VV	wordpools/wasnorm_wordpool_576.txt	LTP251	ltpFR2	3	11	<>	-1	n/a	n/a	0	0	0
2358979	REC_WORD	wordpools/wasnorm_wordpool_576.txt	LTP251	ltpFR2	3	11	PUPIL	1143	n/a	n/a	0	0	0
2361296	REC_WORD	wordpools/wasnorm_wordpool_576.txt	LTP251	ltpFR2	3	11	RECEIPT	1173	n/a	n/a	0	0	0
2363844	REC_WORD	wordpools/wasnorm_wordpool_576.txt	LTP251	ltpFR2	3	11	TROMBONE	1508	n/a	n/a	0	0	0
2367222	REC_WORD	wordpools/wasnorm_wordpool_576.txt	LTP251	ltpFR2	3	11	GUITAR	670	n/a	n/a	0	0	0
2370894	REC_WORD	wordpools/wasnorm_wordpool_576.txt	LTP251	ltpFR2	3	11	POET	1095	n/a	n/a	0	0	0
2372326	REC_WORD	wordpools/wasnorm_wordpool_576.txt	LTP251	ltpFR2	3	11	AUTHOR	61	n/a	n/a	0	0	0
2374317	REC_WORD	wordpools/wasnorm_wordpool_576.txt	LTP251	ltpFR2	3	11	OUTDOORS	987	n/a	n/a	0	0	0
2376477	REC_WORD	wordpools/wasnorm_wordpool_576.txt	LTP251	ltpFR2	3	11	CONCERT	360	n/a	n/a	0	0	0
2388630	REC_WORD	wordpools/wasnorm_wordpool_576.txt	LTP251	ltpFR2	3	11	STALLION	1369	n/a	n/a	0	0	0
2398648	REC_WORD	wordpools/wasnorm_wordpool_576.txt	LTP251	ltpFR2	3	11	PATROL	1027	n/a	n/a	0	0	0
2433946	DISTRACTOR	n/a	LTP251	ltpFR2	3	12	n/a	n/a	n/a	n/a	0	0	0
2433946	START	n/a	LTP251	ltpFR2	3	n/a	n/a	n/a	20	n/a	n/a	n/a	n/a
2433967	PROB	n/a	LTP251	ltpFR2	3	n/a	n/a	n/a	20	8	2	1	5
2435398	PROB	n/a	LTP251	ltpFR2	3	n/a	n/a	n/a	20	18	7	8	3
2437099	PROB	n/a	LTP251	ltpFR2	3	n/a	n/a	n/a	20	11	3	7	1
2438433	PROB	n/a	LTP251	ltpFR2	3	n/a	n/a	n/a	20	10	1	7	2
2440068	PROB	n/a	LTP251	ltpFR2	3	n/a	n/a	n/a	20	24	9	9	6
2443787	PROB	n/a	LTP251	ltpFR2	3	n/a	n/a	n/a	20	13	3	1	9
2445673	PROB	n/a	LTP251	ltpFR2	3	n/a	n/a	n/a	20	11	2	8	1
2447007	PROB	n/a	LTP251	ltpFR2	3	n/a	n/a	n/a	20	19	2	8	9
2448592	PROB	n/a	LTP251	ltpFR2	3	n/a	n/a	n/a	20	17	4	6	7
2450264	PROB	n/a	LTP251	ltpFR2	3	n/a	n/a	n/a	20	19	8	9	2
2452679	PROB	n/a	LTP251	ltpFR2	3	n/a	n/a	n/a	20	9	6	2	1
2454464	PROB	n/a	LTP251	ltpFR2	3	n/a	n/a	n/a	20	14	4	9	1
2457946	STOP	n/a	LTP251	ltpFR2	3	n/a	n/a	n/a	20	n/a	n/a	n/a	n/a
2458985	WORD	wordpools/wasnorm_wordpool_576.txt	LTP251	ltpFR2	3	12	CONTRACT	368	n/a	n/a	0	0	0
2461687	WORD	wordpools/wasnorm_wordpool_576.txt	LTP251	ltpFR2	3	12	JAPAN	749	n/a	n/a	0	0	0
2464240	WORD	wordpools/wasnorm_wordpool_576.txt	LTP251	ltpFR2	3	12	DRUG	501	n/a	n/a	0	0	0
2466808	WORD	wordpools/wasnorm_wordpool_576.txt	LTP251	ltpFR2	3	12	CRAYON	401	n/a	n/a	0	0	0
2469394	WORD	wordpools/wasnorm_wordpool_576.txt	LTP251	ltpFR2	3	12	ANKLE	24	n/a	n/a	0	0	0
2471879	WORD	wordpools/wasnorm_wordpool_576.txt	LTP251	ltpFR2	3	12	PERMIT	1051	n/a	n/a	0	0	0
2474599	WORD	wordpools/wasnorm_wordpool_576.txt	LTP251	ltpFR2	3	12	CRUTCH	417	n/a	n/a	0	0	0
2477334	WORD	wordpools/wasnorm_wordpool_576.txt	LTP251	ltpFR2	3	12	MUSTARD	935	n/a	n/a	0	0	0
2479935	WORD	wordpools/wasnorm_wordpool_576.txt	LTP251	ltpFR2	3	12	VAGRANT	1544	n/a	n/a	0	0	0
2482422	WORD	wordpools/wasnorm_wordpool_576.txt	LTP251	ltpFR2	3	12	CARRIAGE	248	n/a	n/a	0	0	0
2485241	WORD	wordpools/wasnorm_wordpool_576.txt	LTP251	ltpFR2	3	12	COUNTY	389	n/a	n/a	0	0	0
2487842	WORD	wordpools/wasnorm_wordpool_576.txt	LTP251	ltpFR2	3	12	LEG	809	n/a	n/a	0	0	0
2490562	WORD	wordpools/wasnorm_wordpool_576.txt	LTP251	ltpFR2	3	12	ATLAS	53	n/a	n/a	0	0	0
2493081	WORD	wordpools/wasnorm_wordpool_576.txt	LTP251	ltpFR2	3	12	BANKER	84	n/a	n/a	0	0	0
2495583	WORD	wordpools/wasnorm_wordpool_576.txt	LTP251	ltpFR2	3	12	QUARTER	1148	n/a	n/a	0	0	0
2498203	WORD	wordpools/wasnorm_wordpool_576.txt	LTP251	ltpFR2	3	12	SHORTS	1293	n/a	n/a	0	0	0
2500920	WORD	wordpools/wasnorm_wordpool_576.txt	LTP251	ltpFR2	3	12	OUTFIT	988	n/a	n/a	0	0	0
2503623	WORD	wordpools/wasnorm_wordpool_576.txt	LTP251	ltpFR2	3	12	PLAYGROUND	1087	n/a	n/a	0	0	0
2506192	WORD	wordpools/wasnorm_wordpool_576.txt	LTP251	ltpFR2	3	12	SLIDE	1326	n/a	n/a	0	0	0
2508926	WORD	wordpools/wasnorm_wordpool_576.txt	LTP251	ltpFR2	3	12	TABLE	1426	n/a	n/a	0	0	0
2511729	WORD	wordpools/wasnorm_wordpool_576.txt	LTP251	ltpFR2	3	12	DORM	488	n/a	n/a	0	0	0
2514281	WORD	wordpools/wasnorm_wordpool_576.txt	LTP251	ltpFR2	3	12	BODY	145	n/a	n/a	0	0	0
2516765	WORD	wordpools/wasnorm_wordpool_576.txt	LTP251	ltpFR2	3	12	WRIST	1626	n/a	n/a	0	0	0
2519352	WORD	wordpools/wasnorm_wordpool_576.txt	LTP251	ltpFR2	3	12	MARKER	870	n/a	n/a	0	0	0
2520971	START	n/a	LTP251	ltpFR2	3	n/a	n/a	n/a	21	n/a	n/a	n/a	n/a
2522058	DISTRACTOR	n/a	LTP251	ltpFR2	3	12	n/a	n/a	n/a	n/a	0	0	0
2522071	PROB	n/a	LTP251	ltpFR2	3	n/a	n/a	n/a	21	14	2	6	6
2524124	PROB	n/a	LTP251	ltpFR2	3	n/a	n/a	n/a	21	10	4	5	1
2525651	PROB	n/a	LTP251	ltpFR2	3	n/a	n/a	n/a	21	11	1	8	2
2527077	PROB	n/a	LTP251	ltpFR2	3	n/a	n/a	n/a	21	14	4	2	8
2528928	PROB	n/a	LTP251	ltpFR2	3	n/a	n/a	n/a	21	16	5	8	3
2531139	PROB	n/a	LTP251	ltpFR2	3	n/a	n/a	n/a	21	9	4	2	3
2533282	PROB	n/a	LTP251	ltpFR2	3	n/a	n/a	n/a	21	20	8	8	4
2534949	PROB	n/a	LTP251	ltpFR2	3	n/a	n/a	n/a	21	17	4	6	7
2536313	PROB	n/a	LTP251	ltpFR2	3	n/a	n/a	n/a	21	12	4	5	3
2539238	PROB	n/a	LTP251	ltpFR2	3	n/a	n/a	n/a	21	10	2	7	1
2540538	PROB	n/a	LTP251	ltpFR2	3	n/a	n/a	n/a	21	19	8	9	2
2542682	PROB	n/a	LTP251	ltpFR2	3	n/a	n/a	n/a	21	12	7	2	3
2544706	STOP	n/a	LTP251	ltpFR2	3	n/a	n/a	n/a	21	n/a	n/a	n/a	n/a
2546757	REC_START	n/a	LTP251	ltpFR2	3	12	n/a	n/a	n/a	n/a	0	0	0
2548313	REC_WORD	wordpools/wasnorm_wordpool_576.txt	LTP251	ltpFR2	3	12	CONTRACT	368	n/a	n/a	0	0	0
2549620	REC_WORD	wordpools/wasnorm_wordpool_576.txt	LTP251	ltpFR2	3	12	JAPAN	749	n/a	n/a	0	0	0
2551306	REC_WORD	wordpools/wasnorm_wordpool_576.txt	LTP251	ltpFR2	3	12	GLOBE	641	n/a	n/a	0	0	0
2552927	REC_WORD	wordpools/wasnorm_wordpool_576.txt	LTP251	ltpFR2	3	12	ATLAS	53	n/a	n/a	0	0	0
2554549	REC_WORD	wordpools/wasnorm_wordpool_576.txt	LTP251	ltpFR2	3	12	DRUG	501	n/a	n/a	0	0	0
2556596	REC_WORD	wordpools/wasnorm_wordpool_576.txt	LTP251	ltpFR2	3	12	BANKER	84	n/a	n/a	0	0	0
2558899	REC_WORD	wordpools/wasnorm_wordpool_576.txt	LTP251	ltpFR2	3	12	TABLE	1426	n/a	n/a	0	0	0
2562321	REC_WORD	wordpools/wasnorm_wordpool_576.txt	LTP251	ltpFR2	3	12	OUTFIT	988	n/a	n/a	0	0	0
2563656	REC_WORD	wordpools/wasnorm_wordpool_576.txt	LTP251	ltpFR2	3	12	BODY	145	n/a	n/a	0	0	0
2565409	REC_WORD	wordpools/wasnorm_wordpool_576.txt	LTP251	ltpFR2	3	12	CRUTCH	417	n/a	n/a	0	0	0
2567230	REC_WORD	wordpools/wasnorm_wordpool_576.txt	LTP251	ltpFR2	3	12	WRIST	1626	n/a	n/a	0	0	0
2568847	REC_WORD	wordpools/wasnorm_wordpool_576.txt	LTP251	ltpFR2	3	12	LEG	809	n/a	n/a	0	0	0
2570693	REC_WORD	wordpools/wasnorm_wordpool_576.txt	LTP251	ltpFR2	3	12	PLAYGROUND	1087	n/a	n/a	0	0	0
2572238	REC_WORD	wordpools/wasnorm_wordpool_576.txt	LTP251	ltpFR2	3	12	SLIDE	1326	n/a	n/a	0	0	0
2574978	REC_WORD	wordpools/wasnorm_wordpool_576.txt	LTP251	ltpFR2	3	12	MUSTARD	935	n/a	n/a	0	0	0
2577118	REC_WORD	wordpools/wasnorm_wordpool_576.txt	LTP251	ltpFR2	3	12	QUARTER	1148	n/a	n/a	0	0	0
2595775	REC_WORD	wordpools/wasnorm_wordpool_576.txt	LTP251	ltpFR2	3	12	CONTRACT	368	n/a	n/a	0	0	0
2637246	WORD	wordpools/wasnorm_wordpool_576.txt	LTP251	ltpFR2	3	13	CAPTIVE	240	n/a	n/a	0	0	0
2639764	WORD	wordpools/wasnorm_wordpool_576.txt	LTP251	ltpFR2	3	13	AWARD	63	n/a	n/a	0	0	0
2642528	WORD	wordpools/wasnorm_wordpool_576.txt	LTP251	ltpFR2	3	13	SERVER	1272	n/a	n/a	0	0	0
2645014	WORD	wordpools/wasnorm_wordpool_576.txt	LTP251	ltpFR2	3	13	SUPPER	1411	n/a	n/a	0	0	0
2647483	WORD	wordpools/wasnorm_wordpool_576.txt	LTP251	ltpFR2	3	13	HERO	706	n/a	n/a	0	0	0
2650001	WORD	wordpools/wasnorm_wordpool_576.txt	LTP251	ltpFR2	3	13	MILDEW	893	n/a	n/a	0	0	0
2652554	WORD	wordpools/wasnorm_wordpool_576.txt	LTP251	ltpFR2	3	13	LACE	792	n/a	n/a	0	0	0
2655123	WORD	wordpools/wasnorm_wordpool_576.txt	LTP251	ltpFR2	3	13	WAITER	1580	n/a	n/a	0	0	0
2657874	WORD	wordpools/wasnorm_wordpool_576.txt	LTP251	ltpFR2	3	13	TURKEY	1520	n/a	n/a	0	0	0
2660544	WORD	wordpools/wasnorm_wordpool_576.txt	LTP251	ltpFR2	3	13	HOUND	724	n/a	n/a	0	0	0
2663330	WORD	wordpools/wasnorm_wordpool_576.txt	LTP251	ltpFR2	3	13	GAZELLE	628	n/a	n/a	0	0	0
2665918	WORD	wordpools/wasnorm_wordpool_576.txt	LTP251	ltpFR2	3	13	FLIPPER	580	n/a	n/a	0	0	0
2668388	WORD	wordpools/wasnorm_wordpool_576.txt	LTP251	ltpFR2	3	13	SAUSAGE	1238	n/a	n/a	0	0	0
2671170	WORD	wordpools/wasnorm_wordpool_576.txt	LTP251	ltpFR2	3	13	SERVANT	1271	n/a	n/a	0	0	0
2673738	WORD	wordpools/wasnorm_wordpool_576.txt	LTP251	ltpFR2	3	13	SEAGULL	1261	n/a	n/a	0	0	0
2676191	WORD	wordpools/wasnorm_wordpool_576.txt	LTP251	ltpFR2	3	13	PUPPY	1144	n/a	n/a	0	0	0
2678741	WORD	wordpools/wasnorm_wordpool_576.txt	LTP251	ltpFR2	3	13	PARTNER	1017	n/a	n/a	0	0	0
2681412	WORD	wordpools/wasnorm_wordpool_576.txt	LTP251	ltpFR2	3	13	SCISSORS	1250	n/a	n/a	0	0	0
2683946	WORD	wordpools/wasnorm_wordpool_576.txt	LTP251	ltpFR2	3	13	FOOT	590	n/a	n/a	0	0	0
2686683	WORD	wordpools/wasnorm_wordpool_576.txt	LTP251	ltpFR2	3	13	SMOG	1330	n/a	n/a	0	0	0
2689168	WORD	wordpools/wasnorm_wordpool_576.txt	LTP251	ltpFR2	3	13	PUDDING	1139	n/a	n/a	0	0	0
2691936	WORD	wordpools/wasnorm_wordpool_576.txt	LTP251	ltpFR2	3	13	CHIPMUNK	304	n/a	n/a	0	0	0
2694607	WORD	wordpools/wasnorm_wordpool_576.txt	LTP251	ltpFR2	3	13	BEAST	108	n/a	n/a	0	0	0
2697175	WORD	wordpools/wasnorm_wordpool_576.txt	LTP251	ltpFR2	3	13	DOUGHNUT	490	n/a	n/a	0	0	0
2698793	START	n/a	LTP251	ltpFR2	3	n/a	n/a	n/a	22	n/a	n/a	n/a	n/a
2699792	DISTRACTOR	n/a	LTP251	ltpFR2	3	13	n/a	n/a	n/a	n/a	0	0	0
2699810	PROB	n/a	LTP251	ltpFR2	3	n/a	n/a	n/a	22	14	4	1	9
2702346	PROB	n/a	LTP251	ltpFR2	3	n/a	n/a	n/a	22	19	4	7	8
2706300	PROB	n/a	LTP251	ltpFR2	3	n/a	n/a	n/a	22	13	3	1	9
2709653	PROB	n/a	LTP251	ltpFR2	3	n/a	n/a	n/a	22	6	2	2	2
2711538	PROB	n/a	LTP251	ltpFR2	3	n/a	n/a	n/a	22	14	2	5	7
2714036	PROB	n/a	LTP251	ltpFR2	3	n/a	n/a	n/a	22	11	5	4	2
2716109	PROB	n/a	LTP251	ltpFR2	3	n/a	n/a	n/a	22	16	2	6	8
2719327	PROB	n/a	LTP251	ltpFR2	3	n/a	n/a	n/a	22	14	9	3	2
2721497	STOP	n/a	LTP251	ltpFR2	3	n/a	n/a	n/a	22	n/a	n/a	n/a	n/a
2724571	REC_START	n/a	LTP251	ltpFR2	3	13	n/a	n/a	n/a	n/a	0	0	0
2726168	REC_WORD	wordpools/wasnorm_wordpool_576.txt	LTP251	ltpFR2	3	13	SUPPER	1411	n/a	n/a	0	0	0
2727637	REC_WORD	wordpools/wasnorm_wordpool_576.txt	LTP251	ltpFR2	3	13	TURKEY	1520	n/a	n/a	0	0	0
2729012	REC_WORD	wordpools/wasnorm_wordpool_576.txt	LTP251	ltpFR2	3	13	SERVANT	1271	n/a	n/a	0	0	0
2730578	REC_WORD	wordpools/wasnorm_wordpool_576.txt	LTP251	ltpFR2	3	13	WAITER	1580	n/a	n/a	0	0	0
2733007	REC_WORD	wordpools/wasnorm_wordpool_576.txt	LTP251	ltpFR2	3	13	SAUSAGE	1238	n/a	n/a	0	0	0
2734454	REC_WORD	wordpools/wasnorm_wordpool_576.txt	LTP251	ltpFR2	3	13	FOOT	590	n/a	n/a	0	0	0
2735920	REC_WORD	wordpools/wasnorm_wordpool_576.txt	LTP251	ltpFR2	3	13	BASEMENT	94	n/a	n/a	0	0	0
2737217	REC_WORD	wordpools/wasnorm_wordpool_576.txt	LTP251	ltpFR2	3	13	PUPPY	1144	n/a	n/a	0	0	0
2738585	REC_WORD	wordpools/wasnorm_wordpool_576.txt	LTP251	ltpFR2	3	13	CHIPMUNK	304	n/a	n/a	0	0	0
2740733	REC_WORD	wordpools/wasnorm_wordpool_576.txt	LTP251	ltpFR2	3	13	SMOG	1330	n/a	n/a	0	0	0
2742264	REC_WORD	wordpools/wasnorm_wordpool_576.txt	LTP251	ltpFR2	3	13	SEAGULL	1261	n/a	n/a	0	0	0
2743943	REC_WORD	wordpools/wasnorm_wordpool_576.txt	LTP251	ltpFR2	3	13	SCISSORS	1250	n/a	n/a	0	0	0
2745748	REC_WORD	wordpools/wasnorm_wordpool_576.txt	LTP251	ltpFR2	3	13	PARTNER	1017	n/a	n/a	0	0	0
2748861	REC_WORD	wordpools/wasnorm_wordpool_576.txt	LTP251	ltpFR2	3	13	FOOT	590	n/a	n/a	0	0	0
2754077	REC_WORD	wordpools/wasnorm_wordpool_576.txt	LTP251	ltpFR2	3	13	PUDDING	1139	n/a	n/a	0	0	0
2755754	REC_WORD	wordpools/wasnorm_wordpool_576.txt	LTP251	ltpFR2	3	13	DOUGHNUT	490	n/a	n/a	0	0	0
2815066	WORD	wordpools/wasnorm_wordpool_576.txt	LTP251	ltpFR2	3	14	SCRIBBLE	1256	n/a	n/a	0	0	0
2817574	WORD	wordpools/wasnorm_wordpool_576.txt	LTP251	ltpFR2	3	14	IDOL	733	n/a	n/a	0	0	0
2820066	WORD	wordpools/wasnorm_wordpool_576.txt	LTP251	ltpFR2	3	14	QUAIL	1147	n/a	n/a	0	0	0
2822778	WORD	wordpools/wasnorm_wordpool_576.txt	LTP251	ltpFR2	3	14	PENGUIN	1044	n/a	n/a	0	0	0
2825564	WORD	wordpools/wasnorm_wordpool_576.txt	LTP251	ltpFR2	3	14	MISSILE	900	n/a	n/a	0	0	0
2828066	WORD	wordpools/wasnorm_wordpool_576.txt	LTP251	ltpFR2	3	14	SCALPEL	1243	n/a	n/a	0	0	0
2830518	WORD	wordpools/wasnorm_wordpool_576.txt	LTP251	ltpFR2	3	14	DRESS	495	n/a	n/a	0	0	0
2832953	WORD	wordpools/wasnorm_wordpool_576.txt	LTP251	ltpFR2	3	14	ZEBRA	1635	n/a	n/a	0	0	0
2835754	WORD	wordpools/wasnorm_wordpool_576.txt	LTP251	ltpFR2	3	14	DONKEY	484	n/a	n/a	0	0	0
2838482	WORD	wordpools/wasnorm_wordpool_576.txt	LTP251	ltpFR2	3	14	GARDEN	623	n/a	n/a	0	0	0
2841102	WORD	wordpools/wasnorm_wordpool_576.txt	LTP251	ltpFR2	3	14	PREACHER	1119	n/a	n/a	0	0	0
2843802	WORD	wordpools/wasnorm_wordpool_576.txt	LTP251	ltpFR2	3	14	PEDAL	1037	n/a	n/a	0	0	0
2846464	WORD	wordpools/wasnorm_wordpool_576.txt	LTP251	ltpFR2	3	14	EMPIRE	530	n/a	n/a	0	0	0
2848923	WORD	wordpools/wasnorm_wordpool_576.txt	LTP251	ltpFR2	3	14	TRUCK	1512	n/a	n/a	0	0	0
2851743	WORD	wordpools/wasnorm_wordpool_576.txt	LTP251	ltpFR2	3	14	BIKE	125	n/a	n/a	0	0	0
2854204	WORD	wordpools/wasnorm_wordpool_576.txt	LTP251	ltpFR2	3	14	BRACES	164	n/a	n/a	0	0	0
2856764	WORD	wordpools/wasnorm_wordpool_576.txt	LTP251	ltpFR2	3	14	NURSE	963	n/a	n/a	0	0	0
2859385	WORD	wordpools/wasnorm_wordpool_576.txt	LTP251	ltpFR2	3	14	COUSIN	392	n/a	n/a	0	0	0
2861960	WORD	wordpools/wasnorm_wordpool_576.txt	LTP251	ltpFR2	3	14	TABLET	1427	n/a	n/a	0	0	0
2864437	WORD	wordpools/wasnorm_wordpool_576.txt	LTP251	ltpFR2	3	14	LIPSTICK	829	n/a	n/a	0	0	0
2866889	WORD	wordpools/wasnorm_wordpool_576.txt	LTP251	ltpFR2	3	14	COUCH	386	n/a	n/a	0	0	0
2869576	WORD	wordpools/wasnorm_wordpool_576.txt	LTP251	ltpFR2	3	14	FRAME	600	n/a	n/a	0	0	0
2872378	WORD	wordpools/wasnorm_wordpool_576.txt	LTP251	ltpFR2	3	14	COSTUME	383	n/a	n/a	0	0	0
2874879	WORD	wordpools/wasnorm_wordpool_576.txt	LTP251	ltpFR2	3	14	IGLOO	734	n/a	n/a	0	0	0
2876489	START	n/a	LTP251	ltpFR2	3	n/a	n/a	n/a	23	n/a	n/a	n/a	n/a
2877662	DISTRACTOR	n/a	LTP251	ltpFR2	3	14	n/a	n/a	n/a	n/a	0	0	0
2877672	PROB	n/a	LTP251	ltpFR2	3	n/a	n/a	n/a	23	10	1	7	2
2879750	PROB	n/a	LTP251	ltpFR2	3	n/a	n/a	n/a	23	22	9	6	7
2883187	PROB	n/a	LTP251	ltpFR2	3	n/a	n/a	n/a	23	13	1	4	8
2886607	PROB	n/a	LTP251	ltpFR2	3	n/a	n/a	n/a	23	8	3	1	4
2888159	PROB	n/a	LTP251	ltpFR2	3	n/a	n/a	n/a	23	18	9	4	5
2890160	PROB	n/a	LTP251	ltpFR2	3	n/a	n/a	n/a	23	20	6	5	9
2892261	PROB	n/a	LTP251	ltpFR2	3	n/a	n/a	n/a	23	13	1	6	6
2893829	PROB	n/a	LTP251	ltpFR2	3	n/a	n/a	n/a	23	13	6	2	5
2895914	PROB	n/a	LTP251	ltpFR2	3	n/a	n/a	n/a	23	13	6	6	1
2897250	PROB	n/a	LTP251	ltpFR2	3	n/a	n/a	n/a	23	12	3	2	7
2898933	PROB	n/a	LTP251	ltpFR2	3	n/a	n/a	n/a	23	9	5	1	3
2900248	STOP	n/a	LTP251	ltpFR2	3	n/a	n/a	n/a	23	n/a	n/a	n/a	n/a
2902326	REC_START	n/a	LTP251	ltpFR2	3	14	n/a	n/a	n/a	n/a	0	0	0
2903602	REC_WORD	wordpools/wasnorm_wordpool_576.txt	LTP251	ltpFR2	3	14	SCRIBBLE	1256	n/a	n/a	0	0	0
2905122	REC_WORD	wordpools/wasnorm_wordpool_576.txt	LTP251	ltpFR2	3	14	IDOL	733	n/a	n/a	0	0	0
2906564	REC_WORD	wordpools/wasnorm_wordpool_576.txt	LTP251	ltpFR2	3	14	QUAIL	1147	n/a	n/a	0	0	0
2909121	REC_WORD	wordpools/wasnorm_wordpool_576.txt	LTP251	ltpFR2	3	14	ZEBRA	1635	n/a	n/a	0	0	0
2910706	REC_WORD	wordpools/wasnorm_wordpool_576.txt	LTP251	ltpFR2	3	14	DONKEY	484	n/a	n/a	0	0	0
2914246	REC_WORD	wordpools/wasnorm_wordpool_576.txt	LTP251	ltpFR2	3	14	SPOOL	1356	n/a	n/a	0	0	0
2916646	REC_WORD	wordpools/wasnorm_wordpool_576.txt	LTP251	ltpFR2	3	14	COUCH	386	n/a	n/a	0	0	0
2917983	REC_WORD	wordpools/wasnorm_wordpool_576.txt	LTP251	ltpFR2	3	14	TABLET	1427	n/a	n/a	0	0	0
2919383	REC_WORD	wordpools/wasnorm_wordpool_576.txt	LTP251	ltpFR2	3	14	DRESS	495	n/a	n/a	0	0	0
2920734	REC_WORD	wordpools/wasnorm_wordpool_576.txt	LTP251	ltpFR2	3	14	LIPSTICK	829	n/a	n/a	0	0	0
2922157	REC_WORD	wordpools/wasnorm_wordpool_576.txt	LTP251	ltpFR2	3	14	NURSE	963	n/a	n/a	0	0	0
2923579	REC_WORD	wordpools/wasnorm_wordpool_576.txt	LTP251	ltpFR2	3	14	COUSIN	392	n/a	n/a	0	0	0
2929501	REC_WORD	wordpools/wasnorm_wordpool_576.txt	LTP251	ltpFR2	3	14	TRUCK	1512	n/a	n/a	0	0	0
2931686	REC_WORD	wordpools/wasnorm_wordpool_576.txt	LTP251	ltpFR2	3	14	BIKE	125	n/a	n/a	0	0	0
2933076	REC_WORD	wordpools/wasnorm_wordpool_576.txt	LTP251	ltpFR2	3	14	PEDAL	1037	n/a	n/a	0	0	0
2934876	REC_WORD	wordpools/wasnorm_wordpool_576.txt	LTP251	ltpFR2	3	14	EMPIRE	530	n/a	n/a	0	0	0
2939617	REC_WORD	wordpools/wasnorm_wordpool_576.txt	LTP251	ltpFR2	3	14	BRACES	164	n/a	n/a	0	0	0
2944442	REC_WORD	wordpools/wasnorm_wordpool_576.txt	LTP251	ltpFR2	3	14	FRAME	600	n/a	n/a	0	0	0
2949011	REC_WORD	wordpools/wasnorm_wordpool_576.txt	LTP251	ltpFR2	3	14	GARDEN	623	n/a	n/a	0	0	0
2951861	REC_WORD	wordpools/wasnorm_wordpool_576.txt	LTP251	ltpFR2	3	14	PREACHER	1119	n/a	n/a	0	0	0
2992842	WORD	wordpools/wasnorm_wordpool_576.txt	LTP251	ltpFR2	3	15	BROTHER	179	n/a	n/a	0	0	0
2995267	WORD	wordpools/wasnorm_wordpool_576.txt	LTP251	ltpFR2	3	15	ISLAND	745	n/a	n/a	0	0	0
2997787	WORD	wordpools/wasnorm_wordpool_576.txt	LTP251	ltpFR2	3	15	POLICE	1098	n/a	n/a	0	0	0
3000271	WORD	wordpools/wasnorm_wordpool_576.txt	LTP251	ltpFR2	3	15	AGENT	10	n/a	n/a	0	0	0
3002788	WORD	wordpools/wasnorm_wordpool_576.txt	LTP251	ltpFR2	3	15	WHISKERS	1605	n/a	n/a	0	0	0
3005609	WORD	wordpools/wasnorm_wordpool_576.txt	LTP251	ltpFR2	3	15	MOP	916	n/a	n/a	0	0	0
3008428	WORD	wordpools/wasnorm_wordpool_576.txt	LTP251	ltpFR2	3	15	PLATE	1086	n/a	n/a	0	0	0
3010945	WORD	wordpools/wasnorm_wordpool_576.txt	LTP251	ltpFR2	3	15	DIME	466	n/a	n/a	0	0	0
3013648	WORD	wordpools/wasnorm_wordpool_576.txt	LTP251	ltpFR2	3	15	CRIB	407	n/a	n/a	0	0	0
3016334	WORD	wordpools/wasnorm_wordpool_576.txt	LTP251	ltpFR2	3	15	CHEST	295	n/a	n/a	0	0	0
3019102	WORD	wordpools/wasnorm_wordpool_576.txt	LTP251	ltpFR2	3	15	BLADE	134	n/a	n/a	0	0	0
3021571	WORD	wordpools/wasnorm_wordpool_576.txt	LTP251	ltpFR2	3	15	SIDEWALK	1303	n/a	n/a	0	0	0
3024273	WORD	wordpools/wasnorm_wordpool_576.txt	LTP251	ltpFR2	3	15	LADDER	793	n/a	n/a	0	0	0
3027092	WORD	wordpools/wasnorm_wordpool_576.txt	LTP251	ltpFR2	3	15	YARN	1631	n/a	n/a	0	0	0
3029864	WORD	wordpools/wasnorm_wordpool_576.txt	LTP251	ltpFR2	3	15	SPOOL	1356	n/a	n/a	0	0	0
3032430	WORD	wordpools/wasnorm_wordpool_576.txt	LTP251	ltpFR2	3	15	ACTRESS	6	n/a	n/a	0	0	0
3035065	WORD	wordpools/wasnorm_wordpool_576.txt	LTP251	ltpFR2	3	15	JUGGLER	763	n/a	n/a	0	0	0
3037817	WORD	wordpools/wasnorm_wordpool_576.txt	LTP251	ltpFR2	3	15	SLOPE	1328	n/a	n/a	0	0	0
3040291	WORD	wordpools/wasnorm_wordpool_576.txt	LTP251	ltpFR2	3	15	CONVICT	371	n/a	n/a	0	0	0
3043038	WORD	wordpools/wasnorm_wordpool_576.txt	LTP251	ltpFR2	3	15	BINDER	127	n/a	n/a	0	0	0
3045557	WORD	wordpools/wasnorm_wordpool_576.txt	LTP251	ltpFR2	3	15	GRAVE	658	n/a	n/a	0	0	0
3048242	WORD	wordpools/wasnorm_wordpool_576.txt	LTP251	ltpFR2	3	15	PICNIC	1060	n/a	n/a	0	0	0
3050744	WORD	wordpools/wasnorm_wordpool_576.txt	LTP251	ltpFR2	3	15	TART	1436	n/a	n/a	0	0	0
3053463	WORD	wordpools/wasnorm_wordpool_576.txt	LTP251	ltpFR2	3	15	HIGHWAY	707	n/a	n/a	0	0	0
3055083	START	n/a	LTP251	ltpFR2	3	n/a	n/a	n/a	24	n/a	n/a	n/a	n/a
3056174	DISTRACTOR	n/a	LTP251	ltpFR2	3	15	n/a	n/a	n/a	n/a	0	0	0
3056189	PROB	n/a	LTP251	ltpFR2	3	n/a	n/a	n/a	24	26	6	9	8
3061642	PROB	n/a	LTP251	ltpFR2	3	n/a	n/a	n/a	24	10	6	1	3
3063471	PROB	n/a	LTP251	ltpFR2	3	n/a	n/a	n/a	24	16	6	9	1
3065013	PROB	n/a	LTP251	ltpFR2	3	n/a	n/a	n/a	24	16	1	8	7
3066822	PROB	n/a	LTP251	ltpFR2	3	n/a	n/a	n/a	24	17	2	9	6
3069086	PROB	n/a	LTP251	ltpFR2	3	n/a	n/a	n/a	24	15	5	6	4
3073724	PROB	n/a	LTP251	ltpFR2	3	n/a	n/a	n/a	24	21	8	4	9
3079082	STOP	n/a	LTP251	ltpFR2	3	n/a	n/a	n/a	24	n/a	n/a	n/a	n/a
3080901	REC_START	n/a	LTP251	ltpFR2	3	15	n/a	n/a	n/a	n/a	0	0	0
3084767	REC_WORD	wordpools/wasnorm_wordpool_576.txt	LTP251	ltpFR2	3	15	BINDER	127	n/a	n/a	0	0	0
3086175	REC_WORD	wordpools/wasnorm_wordpool_576.txt	LTP251	ltpFR2	3	15	TART	1436	n/a	n/a	0	0	0
3087117	REC_WORD	wordpools/wasnorm_wordpool_576.txt	LTP251	ltpFR2	3	15	PICNIC	1060	n/a	n/a	0	0	0
3088100	REC_WORD	wordpools/wasnorm_wordpool_576.txt	LTP251	ltpFR2	3	15	LADDER	793	n/a	n/a	0	0	0
3089429	REC_WORD	wordpools/wasnorm_wordpool_576.txt	LTP251	ltpFR2	3	15	BROTHER	179	n/a	n/a	0	0	0
3090656	REC_WORD	wordpools/wasnorm_wordpool_576.txt	LTP251	ltpFR2	3	15	ACTRESS	6	n/a	n/a	0	0	0
3092115	REC_WORD	wordpools/wasnorm_wordpool_576.txt	LTP251	ltpFR2	3	15	HIGHWAY	707	n/a	n/a	0	0	0
3093283	REC_WORD	wordpools/wasnorm_wordpool_576.txt	LTP251	ltpFR2	3	15	SIDEWALK	1303	n/a	n/a	0	0	0
3096266	REC_WORD	wordpools/wasnorm_wordpool_576.txt	LTP251	ltpFR2	3	15	YARN	1631	n/a	n/a	0	0	0
3097324	REC_WORD	wordpools/wasnorm_wordpool_576.txt	LTP251	ltpFR2	3	15	SPOOL	1356	n/a	n/a	0	0	0
3099028	REC_WORD	wordpools/wasnorm_wordpool_576.txt	LTP251	ltpFR2	3	15	GRAVE	658	n/a	n/a	0	0	0
3102719	REC_WORD	wordpools/wasnorm_wordpool_576.txt	LTP251	ltpFR2	3	15	BLADE	134	n/a	n/a	0	0	0
3111885	REC_WORD	wordpools/wasnorm_wordpool_576.txt	LTP251	ltpFR2	3	15	CRIB	407	n/a	n/a	0	0	0
3123289	REC_WORD	wordpools/wasnorm_wordpool_576.txt	LTP251	ltpFR2	3	15	SLOPE	1328	n/a	n/a	0	0	0
3130661	REC_WORD	wordpools/wasnorm_wordpool_576.txt	LTP251	ltpFR2	3	15	JUGGLER	763	n/a	n/a	0	0	0
3171389	DISTRACTOR	n/a	LTP251	ltpFR2	3	16	n/a	n/a	n/a	n/a	0	0	0
3171389	START	n/a	LTP251	ltpFR2	3	n/a	n/a	n/a	25	n/a	n/a	n/a	n/a
3171408	PROB	n/a	LTP251	ltpFR2	3	n/a	n/a	n/a	25	19	8	4	7
3176377	PROB	n/a	LTP251	ltpFR2	3	n/a	n/a	n/a	25	14	9	1	4
3177793	PROB	n/a	LTP251	ltpFR2	3	n/a	n/a	n/a	25	15	5	1	9
3179695	PROB	n/a	LTP251	ltpFR2	3	n/a	n/a	n/a	25	23	9	7	7
3183748	PROB	n/a	LTP251	ltpFR2	3	n/a	n/a	n/a	25	15	2	8	5
3184966	PROB	n/a	LTP251	ltpFR2	3	n/a	n/a	n/a	25	11	6	2	3
3187135	PROB	n/a	LTP251	ltpFR2	3	n/a	n/a	n/a	25	16	9	5	2
3190489	PROB	n/a	LTP251	ltpFR2	3	n/a	n/a	n/a	25	11	4	4	3
3192173	PROB	n/a	LTP251	ltpFR2	3	n/a	n/a	n/a	25	23	5	9	9
3195131	STOP	n/a	LTP251	ltpFR2	3	n/a	n/a	n/a	25	n/a	n/a	n/a	n/a
3196493	WORD	wordpools/wasnorm_wordpool_576.txt	LTP251	ltpFR2	3	16	BARLEY	88	n/a	n/a	0	0	0
3199213	WORD	wordpools/wasnorm_wordpool_576.txt	LTP251	ltpFR2	3	16	RATTLE	1170	n/a	n/a	0	0	0
3201797	WORD	wordpools/wasnorm_wordpool_576.txt	LTP251	ltpFR2	3	16	CUPBOARD	425	n/a	n/a	0	0	0
3204600	WORD	wordpools/wasnorm_wordpool_576.txt	LTP251	ltpFR2	3	16	LAVA	804	n/a	n/a	0	0	0
3207404	WORD	wordpools/wasnorm_wordpool_576.txt	LTP251	ltpFR2	3	16	BUNNY	198	n/a	n/a	0	0	0
3209988	WORD	wordpools/wasnorm_wordpool_576.txt	LTP251	ltpFR2	3	16	VIRUS	1572	n/a	n/a	0	0	0
3212590	WORD	wordpools/wasnorm_wordpool_576.txt	LTP251	ltpFR2	3	16	CASHEW	253	n/a	n/a	0	0	0
3215276	WORD	wordpools/wasnorm_wordpool_576.txt	LTP251	ltpFR2	3	16	BABY	64	n/a	n/a	0	0	0
3217928	WORD	wordpools/wasnorm_wordpool_576.txt	LTP251	ltpFR2	3	16	CARROT	249	n/a	n/a	0	0	0
3220364	WORD	wordpools/wasnorm_wordpool_576.txt	LTP251	ltpFR2	3	16	FUNGUS	614	n/a	n/a	0	0	0
3223182	WORD	wordpools/wasnorm_wordpool_576.txt	LTP251	ltpFR2	3	16	SURVEY	1414	n/a	n/a	0	0	0
3225934	WORD	wordpools/wasnorm_wordpool_576.txt	LTP251	ltpFR2	3	16	BRICK	172	n/a	n/a	0	0	0
3228720	WORD	wordpools/wasnorm_wordpool_576.txt	LTP251	ltpFR2	3	16	FIREPLACE	570	n/a	n/a	0	0	0
3231440	WORD	wordpools/wasnorm_wordpool_576.txt	LTP251	ltpFR2	3	16	STAKE	1368	n/a	n/a	0	0	0
3234175	WORD	wordpools/wasnorm_wordpool_576.txt	LTP251	ltpFR2	3	16	WORLD	1622	n/a	n/a	0	0	0
3236644	WORD	wordpools/wasnorm_wordpool_576.txt	LTP251	ltpFR2	3	16	HEART	697	n/a	n/a	0	0	0
3239329	WORD	wordpools/wasnorm_wordpool_576.txt	LTP251	ltpFR2	3	16	VICTIM	1562	n/a	n/a	0	0	0
3242031	WORD	wordpools/wasnorm_wordpool_576.txt	LTP251	ltpFR2	3	16	ULCER	1533	n/a	n/a	0	0	0
3244634	WORD	wordpools/wasnorm_wordpool_576.txt	LTP251	ltpFR2	3	16	CASKET	255	n/a	n/a	0	0	0
3247221	WORD	wordpools/wasnorm_wordpool_576.txt	LTP251	ltpFR2	3	16	BANQUET	86	n/a	n/a	0	0	0
3250004	WORD	wordpools/wasnorm_wordpool_576.txt	LTP251	ltpFR2	3	16	SUITCASE	1403	n/a	n/a	0	0	0
3252506	WORD	wordpools/wasnorm_wordpool_576.txt	LTP251	ltpFR2	3	16	LUGGAGE	847	n/a	n/a	0	0	0
3254944	WORD	wordpools/wasnorm_wordpool_576.txt	LTP251	ltpFR2	3	16	THREAD	1460	n/a	n/a	0	0	0
3257444	WORD	wordpools/wasnorm_wordpool_576.txt	LTP251	ltpFR2	3	16	BEAVER	109	n/a	n/a	0	0	0
3259062	START	n/a	LTP251	ltpFR2	3	n/a	n/a	n/a	26	n/a	n/a	n/a	n/a
3260218	DISTRACTOR	n/a	LTP251	ltpFR2	3	16	n/a	n/a	n/a	n/a	0	0	0
3260230	PROB	n/a	LTP251	ltpFR2	3	n/a	n/a	n/a	26	21	9	7	5
3262951	PROB	n/a	LTP251	ltpFR2	3	n/a	n/a	n/a	26	7	3	2	2
3264818	PROB	n/a	LTP251	ltpFR2	3	n/a	n/a	n/a	26	11	3	4	3
3266904	PROB	n/a	LTP251	ltpFR2	3	n/a	n/a	n/a	26	10	2	3	5
3269823	PROB	n/a	LTP251	ltpFR2	3	n/a	n/a	n/a	26	14	2	7	5
3271915	PROB	n/a	LTP251	ltpFR2	3	n/a	n/a	n/a	26	11	3	3	5
3273742	PROB	n/a	LTP251	ltpFR2	3	n/a	n/a	n/a	26	22	8	7	7
3276413	PROB	n/a	LTP251	ltpFR2	3	n/a	n/a	n/a	26	13	1	6	6
3278343	PROB	n/a	LTP251	ltpFR2	3	n/a	n/a	n/a	26	20	6	2	7
3280028	PROB	n/a	LTP251	ltpFR2	3	n/a	n/a	n/a	26	12	8	2	2
3281702	STOP	n/a	LTP251	ltpFR2	3	n/a	n/a	n/a	26	n/a	n/a	n/a	n/a
3284983	REC_START	n/a	LTP251	ltpFR2	3	16	n/a	n/a	n/a	n/a	0	0	0
3286572	REC_WORD	wordpools/wasnorm_wordpool_576.txt	LTP251	ltpFR2	3	16	RATTLE	1170	n/a	n/a	0	0	0
3287886	REC_WORD	wordpools/wasnorm_wordpool_576.txt	LTP251	ltpFR2	3	16	BABY	64	n/a	n/a	0	0	0
3289612	REC_WORD	wordpools/wasnorm_wordpool_576.txt	LTP251	ltpFR2	3	16	BARLEY	88	n/a	n/a	0	0	0
3290926	REC_WORD	wordpools/wasnorm_wordpool_576.txt	LTP251	ltpFR2	3	16	STAKE	1368	n/a	n/a	0	0	0
3295478	REC_WORD	wordpools/wasnorm_wordpool_576.txt	LTP251	ltpFR2	3	16	WORLD	1622	n/a	n/a	0	0	0
3297119	REC_WORD	wordpools/wasnorm_wordpool_576.txt	LTP251	ltpFR2	3	16	GLOBE	641	n/a	n/a	0	0	0
3298597	REC_WORD	wordpools/wasnorm_wordpool_576.txt	LTP251	ltpFR2	3	16	HEART	697	n/a	n/a	0	0	0
3299796	REC_WORD	wordpools/wasnorm_wordpool_576.txt	LTP251	ltpFR2	3	16	VICTIM	1562	n/a	n/a	0	0	0
3301781	REC_WORD	wordpools/wasnorm_wordpool_576.txt	LTP251	ltpFR2	3	16	SURVEY	1414	n/a	n/a	0	0	0
3303549	REC_WORD	wordpools/wasnorm_wordpool_576.txt	LTP251	ltpFR2	3	16	CASKET	255	n/a	n/a	0	0	0
3304939	REC_WORD	wordpools/wasnorm_wordpool_576.txt	LTP251	ltpFR2	3	16	BANQUET	86	n/a	n/a	0	0	0
3310633	REC_WORD	wordpools/wasnorm_wordpool_576.txt	LTP251	ltpFR2	3	16	SPOOL	1356	n/a	n/a	0	0	0
3314624	REC_WORD	wordpools/wasnorm_wordpool_576.txt	LTP251	ltpFR2	3	16	SURVEY	1414	n/a	n/a	0	0	0
3316411	REC_WORD	wordpools/wasnorm_wordpool_576.txt	LTP251	ltpFR2	3	16	HEART	697	n/a	n/a	0	0	0
3318949	REC_WORD	wordpools/wasnorm_wordpool_576.txt	LTP251	ltpFR2	3	16	SUITCASE	1403	n/a	n/a	0	0	0
3322375	REC_WORD	wordpools/wasnorm_wordpool_576.txt	LTP251	ltpFR2	3	16	BRIEFCASE	175	n/a	n/a	0	0	0
3326902	REC_WORD	wordpools/wasnorm_wordpool_576.txt	LTP251	ltpFR2	3	16	BRICK	172	n/a	n/a	0	0	0
3328992	REC_WORD	wordpools/wasnorm_wordpool_576.txt	LTP251	ltpFR2	3	16	BEAVER	109	n/a	n/a	0	0	0
3333379	REC_WORD	wordpools/wasnorm_wordpool_576.txt	LTP251	ltpFR2	3	16	PEANUT	1032	n/a	n/a	0	0	0
3336034	REC_WORD	wordpools/wasnorm_wordpool_576.txt	LTP251	ltpFR2	3	16	CASHEW	253	n/a	n/a	0	0	0
3339196	REC_WORD	wordpools/wasnorm_wordpool_576.txt	LTP251	ltpFR2	3	16	VIRUS	1572	n/a	n/a	0	0	0
3341100	REC_WORD	wordpools/wasnorm_wordpool_576.txt	LTP251	ltpFR2	3	16	FUNGUS	614	n/a	n/a	0	0	0
3361521	REST_REWET	n/a	LTP251	ltpFR2	3	16	n/a	n/a	n/a	n/a	0	0	0
3716457	WORD	wordpools/wasnorm_wordpool_576.txt	LTP251	ltpFR2	3	17	PARSLEY	1016	n/a	n/a	0	0	0
3719097	WORD	wordpools/wasnorm_wordpool_576.txt	LTP251	ltpFR2	3	17	HOOK	715	n/a	n/a	0	0	0
3721732	WORD	wordpools/wasnorm_wordpool_576.txt	LTP251	ltpFR2	3	17	OMELET	976	n/a	n/a	0	0	0
3724402	WORD	wordpools/wasnorm_wordpool_576.txt	LTP251	ltpFR2	3	17	LAKE	796	n/a	n/a	0	0	0
3727170	WORD	wordpools/wasnorm_wordpool_576.txt	LTP251	ltpFR2	3	17	COOKBOOK	373	n/a	n/a	0	0	0
3729972	WORD	wordpools/wasnorm_wordpool_576.txt	LTP251	ltpFR2	3	17	APRON	35	n/a	n/a	0	0	0
3732740	WORD	wordpools/wasnorm_wordpool_576.txt	LTP251	ltpFR2	3	17	SWITCH	1422	n/a	n/a	0	0	0
3735193	WORD	wordpools/wasnorm_wordpool_576.txt	LTP251	ltpFR2	3	17	HEADBAND	696	n/a	n/a	0	0	0
3737894	WORD	wordpools/wasnorm_wordpool_576.txt	LTP251	ltpFR2	3	17	TRANSPLANT	1496	n/a	n/a	0	0	0
3740414	WORD	wordpools/wasnorm_wordpool_576.txt	LTP251	ltpFR2	3	17	BROOK	177	n/a	n/a	0	0	0
3742916	WORD	wordpools/wasnorm_wordpool_576.txt	LTP251	ltpFR2	3	17	JURY	766	n/a	n/a	0	0	0
3745488	WORD	wordpools/wasnorm_wordpool_576.txt	LTP251	ltpFR2	3	17	JUDGE	761	n/a	n/a	0	0	0
3748038	WORD	wordpools/wasnorm_wordpool_576.txt	LTP251	ltpFR2	3	17	GRIZZLY	662	n/a	n/a	0	0	0
3750657	WORD	wordpools/wasnorm_wordpool_576.txt	LTP251	ltpFR2	3	17	SCALLOP	1242	n/a	n/a	0	0	0
3753291	WORD	wordpools/wasnorm_wordpool_576.txt	LTP251	ltpFR2	3	17	LAMP	798	n/a	n/a	0	0	0
3755977	WORD	wordpools/wasnorm_wordpool_576.txt	LTP251	ltpFR2	3	17	ASIA	46	n/a	n/a	0	0	0
3758712	WORD	wordpools/wasnorm_wordpool_576.txt	LTP251	ltpFR2	3	17	TOMBSTONE	1478	n/a	n/a	0	0	0
3761447	WORD	wordpools/wasnorm_wordpool_576.txt	LTP251	ltpFR2	3	17	CATCHER	258	n/a	n/a	0	0	0
3764083	WORD	wordpools/wasnorm_wordpool_576.txt	LTP251	ltpFR2	3	17	PATIENT	1024	n/a	n/a	0	0	0
3766651	WORD	wordpools/wasnorm_wordpool_576.txt	LTP251	ltpFR2	3	17	STREAM	1392	n/a	n/a	0	0	0
3769287	WORD	wordpools/wasnorm_wordpool_576.txt	LTP251	ltpFR2	3	17	CASHIER	254	n/a	n/a	0	0	0
3772055	WORD	wordpools/wasnorm_wordpool_576.txt	LTP251	ltpFR2	3	17	TOURIST	1488	n/a	n/a	0	0	0
3774524	WORD	wordpools/wasnorm_wordpool_576.txt	LTP251	ltpFR2	3	17	GLOBE	641	n/a	n/a	0	0	0
3777343	WORD	wordpools/wasnorm_wordpool_576.txt	LTP251	ltpFR2	3	17	ANTLER	29	n/a	n/a	0	0	0
3778963	START	n/a	LTP251	ltpFR2	3	n/a	n/a	n/a	27	n/a	n/a	n/a	n/a
3779899	DISTRACTOR	n/a	LTP251	ltpFR2	3	17	n/a	n/a	n/a	n/a	0	0	0
3779911	PROB	n/a	LTP251	ltpFR2	3	n/a	n/a	n/a	27	23	9	9	5
3785034	PROB	n/a	LTP251	ltpFR2	3	n/a	n/a	n/a	27	18	4	9	5
3787741	PROB	n/a	LTP251	ltpFR2	3	n/a	n/a	n/a	27	19	4	8	7
3790277	PROB	n/a	LTP251	ltpFR2	3	n/a	n/a	n/a	27	18	7	4	7
3793506	PROB	n/a	LTP251	ltpFR2	3	n/a	n/a	n/a	27	12	5	3	4
3797227	PROB	n/a	LTP251	ltpFR2	3	n/a	n/a	n/a	27	20	9	2	9
3800147	PROB	n/a	LTP251	ltpFR2	3	n/a	n/a	n/a	27	7	2	2	3
3801826	STOP	n/a	LTP251	ltpFR2	3	n/a	n/a	n/a	27	n/a	n/a	n/a	n/a
3804768	REC_START	n/a	LTP251	ltpFR2	3	17	n/a	n/a	n/a	n/a	0	0	0
3805218	REC_WORD_VV	wordpools/wasnorm_wordpool_576.txt	LTP251	ltpFR2	3	17	<>	-1	n/a	n/a	0	0	0
3808140	REC_WORD	wordpools/wasnorm_wordpool_576.txt	LTP251	ltpFR2	3	17	OMELET	976	n/a	n/a	0	0	0
3809782	REC_WORD	wordpools/wasnorm_wordpool_576.txt	LTP251	ltpFR2	3	17	PARSLEY	1016	n/a	n/a	0	0	0
3811677	REC_WORD	wordpools/wasnorm_wordpool_576.txt	LTP251	ltpFR2	3	17	SWITCH	1422	n/a	n/a	0	0	0
3813308	REC_WORD	wordpools/wasnorm_wordpool_576.txt	LTP251	ltpFR2	3	17	APRON	35	n/a	n/a	0	0	0
3815190	REC_WORD	wordpools/wasnorm_wordpool_576.txt	LTP251	ltpFR2	3	17	TRANSPLANT	1496	n/a	n/a	0	0	0
3817424	REC_WORD	wordpools/wasnorm_wordpool_576.txt	LTP251	ltpFR2	3	17	BROOK	177	n/a	n/a	0	0	0
3818908	REC_WORD	wordpools/wasnorm_wordpool_576.txt	LTP251	ltpFR2	3	17	RIVER	1194	n/a	n/a	0	0	0
3820450	REC_WORD	wordpools/wasnorm_wordpool_576.txt	LTP251	ltpFR2	3	17	LAKE	796	n/a	n/a	0	0	0
3822291	REC_WORD	wordpools/wasnorm_wordpool_576.txt	LTP251	ltpFR2	3	17	ANTLER	29	n/a	n/a	0	0	0
3826240	REC_WORD	wordpools/wasnorm_wordpool_576.txt	LTP251	ltpFR2	3	17	GLOBE	641	n/a	n/a	0	0	0
3828240	REC_WORD	wordpools/wasnorm_wordpool_576.txt	LTP251	ltpFR2	3	17	JURY	766	n/a	n/a	0	0	0
3829798	REC_WORD	wordpools/wasnorm_wordpool_576.txt	LTP251	ltpFR2	3	17	JUDGE	761	n/a	n/a	0	0	0
3831469	REC_WORD	wordpools/wasnorm_wordpool_576.txt	LTP251	ltpFR2	3	17	PATIENT	1024	n/a	n/a	0	0	0
3833259	REC_WORD	wordpools/wasnorm_wordpool_576.txt	LTP251	ltpFR2	3	17	GRIZZLY	662	n/a	n/a	0	0	0
3841851	REC_WORD	wordpools/wasnorm_wordpool_576.txt	LTP251	ltpFR2	3	17	LAMP	798	n/a	n/a	0	0	0
3895255	WORD	wordpools/wasnorm_wordpool_576.txt	LTP251	ltpFR2	3	18	TREAT	1501	n/a	n/a	0	0	0
3897690	WORD	wordpools/wasnorm_wordpool_576.txt	LTP251	ltpFR2	3	18	ACTOR	5	n/a	n/a	0	0	0
3900323	WORD	wordpools/wasnorm_wordpool_576.txt	LTP251	ltpFR2	3	18	MEAT	883	n/a	n/a	0	0	0
3902791	WORD	wordpools/wasnorm_wordpool_576.txt	LTP251	ltpFR2	3	18	WASP	1593	n/a	n/a	0	0	0
3905561	WORD	wordpools/wasnorm_wordpool_576.txt	LTP251	ltpFR2	3	18	NECKLACE	940	n/a	n/a	0	0	0
3908380	WORD	wordpools/wasnorm_wordpool_576.txt	LTP251	ltpFR2	3	18	LUNCH	849	n/a	n/a	0	0	0
3910931	WORD	wordpools/wasnorm_wordpool_576.txt	LTP251	ltpFR2	3	18	BRANDY	169	n/a	n/a	0	0	0
3913418	WORD	wordpools/wasnorm_wordpool_576.txt	LTP251	ltpFR2	3	18	SPOON	1357	n/a	n/a	0	0	0
3915869	WORD	wordpools/wasnorm_wordpool_576.txt	LTP251	ltpFR2	3	18	CAFE	216	n/a	n/a	0	0	0
3918672	WORD	wordpools/wasnorm_wordpool_576.txt	LTP251	ltpFR2	3	18	CLAM	315	n/a	n/a	0	0	0
3921124	WORD	wordpools/wasnorm_wordpool_576.txt	LTP251	ltpFR2	3	18	BUTCHER	203	n/a	n/a	0	0	0
3923577	WORD	wordpools/wasnorm_wordpool_576.txt	LTP251	ltpFR2	3	18	POWDER	1117	n/a	n/a	0	0	0
3926029	WORD	wordpools/wasnorm_wordpool_576.txt	LTP251	ltpFR2	3	18	FLEET	578	n/a	n/a	0	0	0
3928514	WORD	wordpools/wasnorm_wordpool_576.txt	LTP251	ltpFR2	3	18	PRINCESS	1125	n/a	n/a	0	0	0
3931050	WORD	wordpools/wasnorm_wordpool_576.txt	LTP251	ltpFR2	3	18	XEROX	1628	n/a	n/a	0	0	0
3933602	WORD	wordpools/wasnorm_wordpool_576.txt	LTP251	ltpFR2	3	18	RADISH	1158	n/a	n/a	0	0	0
3936372	WORD	wordpools/wasnorm_wordpool_576.txt	LTP251	ltpFR2	3	18	SLIME	1327	n/a	n/a	0	0	0
3938822	WORD	wordpools/wasnorm_wordpool_576.txt	LTP251	ltpFR2	3	18	HANDBAG	684	n/a	n/a	0	0	0
3941625	WORD	wordpools/wasnorm_wordpool_576.txt	LTP251	ltpFR2	3	18	VALLEY	1545	n/a	n/a	0	0	0
3944144	WORD	wordpools/wasnorm_wordpool_576.txt	LTP251	ltpFR2	3	18	SUMMIT	1405	n/a	n/a	0	0	0
3946963	WORD	wordpools/wasnorm_wordpool_576.txt	LTP251	ltpFR2	3	18	STONE	1385	n/a	n/a	0	0	0
3949416	WORD	wordpools/wasnorm_wordpool_576.txt	LTP251	ltpFR2	3	18	PEBBLE	1035	n/a	n/a	0	0	0
3952084	WORD	wordpools/wasnorm_wordpool_576.txt	LTP251	ltpFR2	3	18	FREEZER	604	n/a	n/a	0	0	0
3954636	WORD	wordpools/wasnorm_wordpool_576.txt	LTP251	ltpFR2	3	18	QUEEN	1149	n/a	n/a	0	0	0
3956254	START	n/a	LTP251	ltpFR2	3	n/a	n/a	n/a	28	n/a	n/a	n/a	n/a
3957410	DISTRACTOR	n/a	LTP251	ltpFR2	3	18	n/a	n/a	n/a	n/a	0	0	0
3957421	PROB	n/a	LTP251	ltpFR2	3	n/a	n/a	n/a	28	23	7	7	9
3962528	PROB	n/a	LTP251	ltpFR2	3	n/a	n/a	n/a	28	18	9	2	7
3965707	PROB	n/a	LTP251	ltpFR2	3	n/a	n/a	n/a	28	10	1	3	6
3967780	PROB	n/a	LTP251	ltpFR2	3	n/a	n/a	n/a	28	17	7	9	1
3969399	PROB	n/a	LTP251	ltpFR2	3	n/a	n/a	n/a	28	18	7	7	4
3971477	PROB	n/a	LTP251	ltpFR2	3	n/a	n/a	n/a	28	10	5	3	2
3973112	PROB	n/a	LTP251	ltpFR2	3	n/a	n/a	n/a	28	14	4	1	9
3974854	PROB	n/a	LTP251	ltpFR2	3	n/a	n/a	n/a	28	16	4	8	4
3977015	PROB	n/a	LTP251	ltpFR2	3	n/a	n/a	n/a	28	16	6	3	7
3979050	STOP	n/a	LTP251	ltpFR2	3	n/a	n/a	n/a	28	n/a	n/a	n/a	n/a
3982041	REC_START	n/a	LTP251	ltpFR2	3	18	n/a	n/a	n/a	n/a	0	0	0
3984119	REC_WORD	wordpools/wasnorm_wordpool_576.txt	LTP251	ltpFR2	3	18	ACTOR	5	n/a	n/a	0	0	0
3985269	REC_WORD	wordpools/wasnorm_wordpool_576.txt	LTP251	ltpFR2	3	18	WASP	1593	n/a	n/a	0	0	0
3986598	REC_WORD	wordpools/wasnorm_wordpool_576.txt	LTP251	ltpFR2	3	18	BRANDY	169	n/a	n/a	0	0	0
3987846	REC_WORD	wordpools/wasnorm_wordpool_576.txt	LTP251	ltpFR2	3	18	SPOON	1357	n/a	n/a	0	0	0
3989337	REC_WORD	wordpools/wasnorm_wordpool_576.txt	LTP251	ltpFR2	3	18	RADISH	1158	n/a	n/a	0	0	0
3990934	REC_WORD	wordpools/wasnorm_wordpool_576.txt	LTP251	ltpFR2	3	18	PRINCESS	1125	n/a	n/a	0	0	0
3992350	REC_WORD	wordpools/wasnorm_wordpool_576.txt	LTP251	ltpFR2	3	18	QUEEN	1149	n/a	n/a	0	0	0
3993941	REC_WORD	wordpools/wasnorm_wordpool_576.txt	LTP251	ltpFR2	3	18	TREAT	1501	n/a	n/a	0	0	0
3995391	REC_WORD	wordpools/wasnorm_wordpool_576.txt	LTP251	ltpFR2	3	18	VALLEY	1545	n/a	n/a	0	0	0
3996780	REC_WORD	wordpools/wasnorm_wordpool_576.txt	LTP251	ltpFR2	3	18	SUMMIT	1405	n/a	n/a	0	0	0
3998181	REC_WORD	wordpools/wasnorm_wordpool_576.txt	LTP251	ltpFR2	3	18	STONE	1385	n/a	n/a	0	0	0
3999970	REC_WORD	wordpools/wasnorm_wordpool_576.txt	LTP251	ltpFR2	3	18	XEROX	1628	n/a	n/a	0	0	0
4072540	DISTRACTOR	n/a	LTP251	ltpFR2	3	19	n/a	n/a	n/a	n/a	0	0	0
4072540	START	n/a	LTP251	ltpFR2	3	n/a	n/a	n/a	29	n/a	n/a	n/a	n/a
4072564	PROB	n/a	LTP251	ltpFR2	3	n/a	n/a	n/a	29	16	9	1	6
4073985	PROB	n/a	LTP251	ltpFR2	3	n/a	n/a	n/a	29	22	8	6	8
4077327	PROB	n/a	LTP251	ltpFR2	3	n/a	n/a	n/a	29	20	7	5	8
4078910	PROB	n/a	LTP251	ltpFR2	3	n/a	n/a	n/a	29	12	2	1	9
4080264	PROB	n/a	LTP251	ltpFR2	3	n/a	n/a	n/a	29	16	3	7	6
4081647	PROB	n/a	LTP251	ltpFR2	3	n/a	n/a	n/a	29	12	3	6	3
4084067	PROB	n/a	LTP251	ltpFR2	3	n/a	n/a	n/a	29	20	5	6	9
4086051	PROB	n/a	LTP251	ltpFR2	3	n/a	n/a	n/a	29	9	1	1	7
4087603	PROB	n/a	LTP251	ltpFR2	3	n/a	n/a	n/a	29	12	2	3	7
4089170	PROB	n/a	LTP251	ltpFR2	3	n/a	n/a	n/a	29	21	7	7	7
4090770	PROB	n/a	LTP251	ltpFR2	3	n/a	n/a	n/a	29	15	5	7	3
4092156	PROB	n/a	LTP251	ltpFR2	3	n/a	n/a	n/a	29	9	1	4	4
4094725	PROB	n/a	LTP251	ltpFR2	3	n/a	n/a	n/a	29	14	2	6	6
4096270	STOP	n/a	LTP251	ltpFR2	3	n/a	n/a	n/a	29	n/a	n/a	n/a	n/a
4097584	WORD	wordpools/wasnorm_wordpool_576.txt	LTP251	ltpFR2	3	19	ATOM	55	n/a	n/a	0	0	0
4100180	WORD	wordpools/wasnorm_wordpool_576.txt	LTP251	ltpFR2	3	19	LADY	794	n/a	n/a	0	0	0
4102966	WORD	wordpools/wasnorm_wordpool_576.txt	LTP251	ltpFR2	3	19	FLUTE	585	n/a	n/a	0	0	0
4105468	WORD	wordpools/wasnorm_wordpool_576.txt	LTP251	ltpFR2	3	19	MONEY	908	n/a	n/a	0	0	0
4108187	WORD	wordpools/wasnorm_wordpool_576.txt	LTP251	ltpFR2	3	19	LEADER	807	n/a	n/a	0	0	0
4110776	WORD	wordpools/wasnorm_wordpool_576.txt	LTP251	ltpFR2	3	19	PLIERS	1089	n/a	n/a	0	0	0
4113292	WORD	wordpools/wasnorm_wordpool_576.txt	LTP251	ltpFR2	3	19	CHAUFFEUR	283	n/a	n/a	0	0	0
4116078	WORD	wordpools/wasnorm_wordpool_576.txt	LTP251	ltpFR2	3	19	TOASTER	1472	n/a	n/a	0	0	0
4118513	WORD	wordpools/wasnorm_wordpool_576.txt	LTP251	ltpFR2	3	19	SCARECROW	1245	n/a	n/a	0	0	0
4121015	WORD	wordpools/wasnorm_wordpool_576.txt	LTP251	ltpFR2	3	19	COLLEGE	346	n/a	n/a	0	0	0
4123667	WORD	wordpools/wasnorm_wordpool_576.txt	LTP251	ltpFR2	3	19	CUSTARD	429	n/a	n/a	0	0	0
4126273	WORD	wordpools/wasnorm_wordpool_576.txt	LTP251	ltpFR2	3	19	BASEMENT	94	n/a	n/a	0	0	0
4128904	WORD	wordpools/wasnorm_wordpool_576.txt	LTP251	ltpFR2	3	19	CELLAR	267	n/a	n/a	0	0	0
4131740	WORD	wordpools/wasnorm_wordpool_576.txt	LTP251	ltpFR2	3	19	COURSE	390	n/a	n/a	0	0	0
4134397	WORD	wordpools/wasnorm_wordpool_576.txt	LTP251	ltpFR2	3	19	OINTMENT	974	n/a	n/a	0	0	0
4136878	WORD	wordpools/wasnorm_wordpool_576.txt	LTP251	ltpFR2	3	19	SALMON	1227	n/a	n/a	0	0	0
4139482	WORD	wordpools/wasnorm_wordpool_576.txt	LTP251	ltpFR2	3	19	PAIL	1002	n/a	n/a	0	0	0
4142184	WORD	wordpools/wasnorm_wordpool_576.txt	LTP251	ltpFR2	3	19	BUCKET	184	n/a	n/a	0	0	0
4144986	WORD	wordpools/wasnorm_wordpool_576.txt	LTP251	ltpFR2	3	19	PASTA	1021	n/a	n/a	0	0	0
4147722	WORD	wordpools/wasnorm_wordpool_576.txt	LTP251	ltpFR2	3	19	HONEY	713	n/a	n/a	0	0	0
4150474	WORD	wordpools/wasnorm_wordpool_576.txt	LTP251	ltpFR2	3	19	WOMAN	1620	n/a	n/a	0	0	0
4152976	WORD	wordpools/wasnorm_wordpool_576.txt	LTP251	ltpFR2	3	19	ROBIN	1199	n/a	n/a	0	0	0
4155794	WORD	wordpools/wasnorm_wordpool_576.txt	LTP251	ltpFR2	3	19	CRITIC	410	n/a	n/a	0	0	0
4158614	WORD	wordpools/wasnorm_wordpool_576.txt	LTP251	ltpFR2	3	19	BANJO	82	n/a	n/a	0	0	0
4160233	START	n/a	LTP251	ltpFR2	3	n/a	n/a	n/a	30	n/a	n/a	n/a	n/a
4161279	DISTRACTOR	n/a	LTP251	ltpFR2	3	19	n/a	n/a	n/a	n/a	0	0	0
4161301	PROB	n/a	LTP251	ltpFR2	3	n/a	n/a	n/a	30	14	3	9	5
4164086	PROB	n/a	LTP251	ltpFR2	3	n/a	n/a	n/a	30	26	8	9	9
4168889	PROB	n/a	LTP251	ltpFR2	3	n/a	n/a	n/a	30	13	3	6	4
4170774	PROB	n/a	LTP251	ltpFR2	3	n/a	n/a	n/a	30	8	3	3	2
4172743	PROB	n/a	LTP251	ltpFR2	3	n/a	n/a	n/a	30	15	6	3	6
4174545	PROB	n/a	LTP251	ltpFR2	3	n/a	n/a	n/a	30	11	7	1	3
4176074	PROB	n/a	LTP251	ltpFR2	3	n/a	n/a	n/a	30	16	8	5	3
4177998	PROB	n/a	LTP251	ltpFR2	3	n/a	n/a	n/a	30	12	1	5	6
4179961	PROB	n/a	LTP251	ltpFR2	3	n/a	n/a	n/a	30	18	6	6	6
4184233	STOP	n/a	LTP251	ltpFR2	3	n/a	n/a	n/a	30	n/a	n/a	n/a	n/a
4186039	REC_START	n/a	LTP251	ltpFR2	3	19	n/a	n/a	n/a	n/a	0	0	0
4190181	REC_WORD	wordpools/wasnorm_wordpool_576.txt	LTP251	ltpFR2	3	19	CUSTARD	429	n/a	n/a	0	0	0
4191639	REC_WORD	wordpools/wasnorm_wordpool_576.txt	LTP251	ltpFR2	3	19	HONEY	713	n/a	n/a	0	0	0
4194371	REC_WORD	wordpools/wasnorm_wordpool_576.txt	LTP251	ltpFR2	3	19	PASTA	1021	n/a	n/a	0	0	0
4195840	REC_WORD	wordpools/wasnorm_wordpool_576.txt	LTP251	ltpFR2	3	19	CELLAR	267	n/a	n/a	0	0	0
4197080	REC_WORD	wordpools/wasnorm_wordpool_576.txt	LTP251	ltpFR2	3	19	BASEMENT	94	n/a	n/a	0	0	0
4198547	REC_WORD	wordpools/wasnorm_wordpool_576.txt	LTP251	ltpFR2	3	19	LADY	794	n/a	n/a	0	0	0
4200105	REC_WORD	wordpools/wasnorm_wordpool_576.txt	LTP251	ltpFR2	3	19	WOMAN	1620	n/a	n/a	0	0	0
4201578	REC_WORD	wordpools/wasnorm_wordpool_576.txt	LTP251	ltpFR2	3	19	CRITIC	410	n/a	n/a	0	0	0
4202892	REC_WORD	wordpools/wasnorm_wordpool_576.txt	LTP251	ltpFR2	3	19	BANJO	82	n/a	n/a	0	0	0
4204412	REC_WORD	wordpools/wasnorm_wordpool_576.txt	LTP251	ltpFR2	3	19	ATOM	55	n/a	n/a	0	0	0
4205921	REC_WORD	wordpools/wasnorm_wordpool_576.txt	LTP251	ltpFR2	3	19	COURSE	390	n/a	n/a	0	0	0
4214175	REC_WORD	wordpools/wasnorm_wordpool_576.txt	LTP251	ltpFR2	3	19	PAIL	1002	n/a	n/a	0	0	0
4215447	REC_WORD	wordpools/wasnorm_wordpool_576.txt	LTP251	ltpFR2	3	19	BUCKET	184	n/a	n/a	0	0	0
4276555	WORD	wordpools/wasnorm_wordpool_576.txt	LTP251	ltpFR2	3	20	ZIPPER	1636	n/a	n/a	0	0	0
4279212	WORD	wordpools/wasnorm_wordpool_576.txt	LTP251	ltpFR2	3	20	STOVE	1388	n/a	n/a	0	0	0
4281647	WORD	wordpools/wasnorm_wordpool_576.txt	LTP251	ltpFR2	3	20	CITRUS	313	n/a	n/a	0	0	0
4284249	WORD	wordpools/wasnorm_wordpool_576.txt	LTP251	ltpFR2	3	20	JEANS	752	n/a	n/a	0	0	0
4286808	WORD	wordpools/wasnorm_wordpool_576.txt	LTP251	ltpFR2	3	20	COUNTRY	388	n/a	n/a	0	0	0
4289253	WORD	wordpools/wasnorm_wordpool_576.txt	LTP251	ltpFR2	3	20	SKILLET	1317	n/a	n/a	0	0	0
4292047	WORD	wordpools/wasnorm_wordpool_576.txt	LTP251	ltpFR2	3	20	KITCHEN	778	n/a	n/a	0	0	0
4294757	WORD	wordpools/wasnorm_wordpool_576.txt	LTP251	ltpFR2	3	20	BARREL	91	n/a	n/a	0	0	0
4297352	WORD	wordpools/wasnorm_wordpool_576.txt	LTP251	ltpFR2	3	20	COBRA	336	n/a	n/a	0	0	0
4299811	WORD	wordpools/wasnorm_wordpool_576.txt	LTP251	ltpFR2	3	20	RABBIT	1152	n/a	n/a	0	0	0
4302414	WORD	wordpools/wasnorm_wordpool_576.txt	LTP251	ltpFR2	3	20	POSTAGE	1113	n/a	n/a	0	0	0
4305059	WORD	wordpools/wasnorm_wordpool_576.txt	LTP251	ltpFR2	3	20	STICKER	1382	n/a	n/a	0	0	0
4307672	WORD	wordpools/wasnorm_wordpool_576.txt	LTP251	ltpFR2	3	20	INMATE	738	n/a	n/a	0	0	0
4310146	WORD	wordpools/wasnorm_wordpool_576.txt	LTP251	ltpFR2	3	20	CREVICE	405	n/a	n/a	0	0	0
4312932	WORD	wordpools/wasnorm_wordpool_576.txt	LTP251	ltpFR2	3	20	CRAB	397	n/a	n/a	0	0	0
4315568	WORD	wordpools/wasnorm_wordpool_576.txt	LTP251	ltpFR2	3	20	COLONEL	348	n/a	n/a	0	0	0
4318211	WORD	wordpools/wasnorm_wordpool_576.txt	LTP251	ltpFR2	3	20	PIZZA	1079	n/a	n/a	0	0	0
4320855	WORD	wordpools/wasnorm_wordpool_576.txt	LTP251	ltpFR2	3	20	FLASK	576	n/a	n/a	0	0	0
4323448	WORD	wordpools/wasnorm_wordpool_576.txt	LTP251	ltpFR2	3	20	PROTON	1132	n/a	n/a	0	0	0
4325926	WORD	wordpools/wasnorm_wordpool_576.txt	LTP251	ltpFR2	3	20	OUTLAW	989	n/a	n/a	0	0	0
4328646	WORD	wordpools/wasnorm_wordpool_576.txt	LTP251	ltpFR2	3	20	SHOULDER	1294	n/a	n/a	0	0	0
4331382	WORD	wordpools/wasnorm_wordpool_576.txt	LTP251	ltpFR2	3	20	ARM	38	n/a	n/a	0	0	0
4334151	WORD	wordpools/wasnorm_wordpool_576.txt	LTP251	ltpFR2	3	20	TWISTER	1530	n/a	n/a	0	0	0
4336637	WORD	wordpools/wasnorm_wordpool_576.txt	LTP251	ltpFR2	3	20	PECAN	1036	n/a	n/a	0	0	0
4338255	START	n/a	LTP251	ltpFR2	3	n/a	n/a	n/a	31	n/a	n/a	n/a	n/a
4339066	DISTRACTOR	n/a	LTP251	ltpFR2	3	20	n/a	n/a	n/a	n/a	0	0	0
4339077	PROB	n/a	LTP251	ltpFR2	3	n/a	n/a	n/a	31	24	9	8	7
4343175	PROB	n/a	LTP251	ltpFR2	3	n/a	n/a	n/a	31	12	1	5	6
4344443	PROB	n/a	LTP251	ltpFR2	3	n/a	n/a	n/a	31	16	9	6	1
4346227	PROB	n/a	LTP251	ltpFR2	3	n/a	n/a	n/a	31	15	9	3	3
4348663	PROB	n/a	LTP251	ltpFR2	3	n/a	n/a	n/a	31	20	7	4	9
4350598	PROB	n/a	LTP251	ltpFR2	3	n/a	n/a	n/a	31	20	8	9	3
4352749	PROB	n/a	LTP251	ltpFR2	3	n/a	n/a	n/a	31	15	4	6	5
4355752	PROB	n/a	LTP251	ltpFR2	3	n/a	n/a	n/a	31	13	6	3	4
4357937	PROB	n/a	LTP251	ltpFR2	3	n/a	n/a	n/a	31	14	7	1	9
4360107	PROB	n/a	LTP251	ltpFR2	3	n/a	n/a	n/a	31	11	8	2	1
4361496	STOP	n/a	LTP251	ltpFR2	3	n/a	n/a	n/a	31	n/a	n/a	n/a	n/a
4364064	REC_START	n/a	LTP251	ltpFR2	3	20	n/a	n/a	n/a	n/a	0	0	0
4364900	REC_WORD	wordpools/wasnorm_wordpool_576.txt	LTP251	ltpFR2	3	20	CITRUS	313	n/a	n/a	0	0	0
4366301	REC_WORD	wordpools/wasnorm_wordpool_576.txt	LTP251	ltpFR2	3	20	PECAN	1036	n/a	n/a	0	0	0
4367739	REC_WORD	wordpools/wasnorm_wordpool_576.txt	LTP251	ltpFR2	3	20	CREVICE	405	n/a	n/a	0	0	0
4369327	REC_WORD	wordpools/wasnorm_wordpool_576.txt	LTP251	ltpFR2	3	20	INMATE	738	n/a	n/a	0	0	0
4371496	REC_WORD	wordpools/wasnorm_wordpool_576.txt	LTP251	ltpFR2	3	20	OUTLAW	989	n/a	n/a	0	0	0
4374343	REC_WORD	wordpools/wasnorm_wordpool_576.txt	LTP251	ltpFR2	3	20	STICKER	1382	n/a	n/a	0	0	0
