onset	duration	trial_type	sample	stim_file	subject	experiment	session	trial	task	item_name	item_num	recog_conf	resp	color_b	color_g	color_r	case	font
282.808	n/a	SESS_START	141404	n/a	LTP113	ltpFR	4	n/a	n/a	n/a	n/a	5	n/a	n/a	n/a	n/a	n/a	n/a
358.848	n/a	WORD	179424	wordpools/wasnorm_wordpool.txt	LTP113	ltpFR	4	1	1	LUNCH	849	n/a	0	1	0.412841796875	0.57763671875	upper	../fonts/zerothre.ttf
362.764	n/a	WORD	181382	wordpools/wasnorm_wordpool.txt	LTP113	ltpFR	4	1	1	VEGETABLE	1552	n/a	0	1	0.412841796875	0.57763671875	upper	../fonts/zerothre.ttf
366.604	n/a	WORD	183302	wordpools/wasnorm_wordpool.txt	LTP113	ltpFR	4	1	0	PATH	1023	n/a	1	0	0.5869140625	0.422607421875	lower	../fonts/amplitud.ttf
370.652	n/a	WORD	185326	wordpools/wasnorm_wordpool.txt	LTP113	ltpFR	4	1	0	RELATIVE	1182	n/a	0	0	0.5869140625	0.422607421875	lower	../fonts/amplitud.ttf
374.618	n/a	WORD	187309	wordpools/wasnorm_wordpool.txt	LTP113	ltpFR	4	1	0	WEED	1599	n/a	1	0	0.5869140625	0.422607421875	lower	../fonts/amplitud.ttf
378.676	n/a	WORD	189338	wordpools/wasnorm_wordpool.txt	LTP113	ltpFR	4	1	0	HIGHWAY	707	n/a	1	0	0.5869140625	0.422607421875	lower	../fonts/amplitud.ttf
382.674	n/a	WORD	191337	wordpools/wasnorm_wordpool.txt	LTP113	ltpFR	4	1	1	SEA	1259	n/a	0	1	0.412841796875	0.57763671875	upper	../fonts/zerothre.ttf
386.822	n/a	WORD	193411	wordpools/wasnorm_wordpool.txt	LTP113	ltpFR	4	1	1	GROUND	666	n/a	0	1	0.412841796875	0.57763671875	upper	../fonts/zerothre.ttf
390.954	n/a	WORD	195477	wordpools/wasnorm_wordpool.txt	LTP113	ltpFR	4	1	1	AUTHOR	61	n/a	1	1	0.412841796875	0.57763671875	upper	../fonts/zerothre.ttf
394.854	n/a	WORD	197427	wordpools/wasnorm_wordpool.txt	LTP113	ltpFR	4	1	1	POPE	1105	n/a	1	1	0.412841796875	0.57763671875	upper	../fonts/zerothre.ttf
398.778	n/a	WORD	199389	wordpools/wasnorm_wordpool.txt	LTP113	ltpFR	4	1	1	MAILMAN	858	n/a	1	1	0.412841796875	0.57763671875	upper	../fonts/zerothre.ttf
402.694	n/a	WORD	201347	wordpools/wasnorm_wordpool.txt	LTP113	ltpFR	4	1	1	POSTAGE	1113	n/a	1	1	0.412841796875	0.57763671875	upper	../fonts/zerothre.ttf
406.65	n/a	WORD	203325	wordpools/wasnorm_wordpool.txt	LTP113	ltpFR	4	1	0	SPOOL	1356	n/a	1	0	0.5869140625	0.422607421875	lower	../fonts/amplitud.ttf
410.816	n/a	WORD	205408	wordpools/wasnorm_wordpool.txt	LTP113	ltpFR	4	1	0	STRING	1394	n/a	0	0	0.5869140625	0.422607421875	lower	../fonts/amplitud.ttf
414.772	n/a	WORD	207386	wordpools/wasnorm_wordpool.txt	LTP113	ltpFR	4	1	0	PAIL	1002	n/a	0	0	0.5869140625	0.422607421875	lower	../fonts/amplitud.ttf
418.972	n/a	WORD	209486	wordpools/wasnorm_wordpool.txt	LTP113	ltpFR	4	1	0	LEADER	807	n/a	1	0	0.5869140625	0.422607421875	lower	../fonts/amplitud.ttf
424.638	n/a	REC_START	212319	n/a	LTP113	ltpFR	4	1	n/a	n/a	n/a	n/a	n/a	n/a	n/a	n/a	n/a	n/a
425.426	n/a	REC_WORD	212713	wordpools/wasnorm_wordpool.txt	LTP113	ltpFR	4	1	0	LEADER	807	n/a	1	n/a	n/a	n/a	n/a	n/a
426.368	n/a	REC_WORD	213184	wordpools/wasnorm_wordpool.txt	LTP113	ltpFR	4	1	0	PAIL	1002	n/a	0	n/a	n/a	n/a	n/a	n/a
427.426	n/a	REC_WORD	213713	wordpools/wasnorm_wordpool.txt	LTP113	ltpFR	4	1	1	POSTAGE	1113	n/a	1	n/a	n/a	n/a	n/a	n/a
428.474	n/a	REC_WORD	214237	wordpools/wasnorm_wordpool.txt	LTP113	ltpFR	4	1	1	POPE	1105	n/a	1	n/a	n/a	n/a	n/a	n/a
429.306	n/a	REC_WORD	214653	wordpools/wasnorm_wordpool.txt	LTP113	ltpFR	4	1	1	MAILMAN	858	n/a	1	n/a	n/a	n/a	n/a	n/a
433.992	n/a	REC_WORD	216996	wordpools/wasnorm_wordpool.txt	LTP113	ltpFR	4	1	0	RELATIVE	1182	n/a	0	n/a	n/a	n/a	n/a	n/a
434.744	n/a	REC_WORD	217372	wordpools/wasnorm_wordpool.txt	LTP113	ltpFR	4	1	0	PATH	1023	n/a	1	n/a	n/a	n/a	n/a	n/a
436.292	n/a	REC_WORD	218146	wordpools/wasnorm_wordpool.txt	LTP113	ltpFR	4	1	1	SEA	1259	n/a	0	n/a	n/a	n/a	n/a	n/a
437.334	n/a	REC_WORD	218667	wordpools/wasnorm_wordpool.txt	LTP113	ltpFR	4	1	1	GROUND	666	n/a	0	n/a	n/a	n/a	n/a	n/a
439.226	n/a	REC_WORD	219613	wordpools/wasnorm_wordpool.txt	LTP113	ltpFR	4	1	0	HIGHWAY	707	n/a	1	n/a	n/a	n/a	n/a	n/a
440.532	n/a	REC_WORD	220266	wordpools/wasnorm_wordpool.txt	LTP113	ltpFR	4	1	0	WEED	1599	n/a	1	n/a	n/a	n/a	n/a	n/a
445.78	n/a	REC_WORD	222890	wordpools/wasnorm_wordpool.txt	LTP113	ltpFR	4	1	1	LUNCH	849	n/a	0	n/a	n/a	n/a	n/a	n/a
446.538	n/a	REC_WORD	223269	wordpools/wasnorm_wordpool.txt	LTP113	ltpFR	4	1	1	VEGETABLE	1552	n/a	0	n/a	n/a	n/a	n/a	n/a
516.434	n/a	WORD	258217	wordpools/wasnorm_wordpool.txt	LTP113	ltpFR	4	2	0	FISH	571	n/a	0	0	0.5869140625	0.422607421875	lower	../fonts/amplitud.ttf
520.458	n/a	WORD	260229	wordpools/wasnorm_wordpool.txt	LTP113	ltpFR	4	2	0	STEM	1376	n/a	0	0	0.5869140625	0.422607421875	lower	../fonts/amplitud.ttf
524.274	n/a	WORD	262137	wordpools/wasnorm_wordpool.txt	LTP113	ltpFR	4	2	0	LIMOUSINE	824	n/a	1	0	0.5869140625	0.422607421875	lower	../fonts/amplitud.ttf
528.322	n/a	WORD	264161	wordpools/wasnorm_wordpool.txt	LTP113	ltpFR	4	2	0	PASSENGER	1020	n/a	1	0	0.5869140625	0.422607421875	lower	../fonts/amplitud.ttf
532.356	n/a	WORD	266178	wordpools/wasnorm_wordpool.txt	LTP113	ltpFR	4	2	1	FACTORY	548	n/a	0	1	0.412841796875	0.57763671875	upper	../fonts/zerothre.ttf
536.404	n/a	WORD	268202	wordpools/wasnorm_wordpool.txt	LTP113	ltpFR	4	2	1	COOLER	375	n/a	0	1	0.412841796875	0.57763671875	upper	../fonts/zerothre.ttf
540.294	n/a	WORD	270147	wordpools/wasnorm_wordpool.txt	LTP113	ltpFR	4	2	1	SUBMARINE	1398	n/a	0	1	0.412841796875	0.57763671875	upper	../fonts/zerothre.ttf
544.3	n/a	WORD	272150	wordpools/wasnorm_wordpool.txt	LTP113	ltpFR	4	2	1	DRAGON	492	n/a	1	1	0.412841796875	0.57763671875	upper	../fonts/zerothre.ttf
548.44	n/a	WORD	274220	wordpools/wasnorm_wordpool.txt	LTP113	ltpFR	4	2	0	ICE	730	n/a	0	0	0.5869140625	0.422607421875	lower	../fonts/amplitud.ttf
552.556	n/a	WORD	276278	wordpools/wasnorm_wordpool.txt	LTP113	ltpFR	4	2	0	MONUMENT	913	n/a	1	0	0.5869140625	0.422607421875	lower	../fonts/amplitud.ttf
556.646	n/a	WORD	278323	wordpools/wasnorm_wordpool.txt	LTP113	ltpFR	4	2	0	SUBURB	1399	n/a	1	0	0.5869140625	0.422607421875	lower	../fonts/amplitud.ttf
560.754	n/a	WORD	280377	wordpools/wasnorm_wordpool.txt	LTP113	ltpFR	4	2	0	SPIDER	1351	n/a	0	0	0.5869140625	0.422607421875	lower	../fonts/amplitud.ttf
564.694	n/a	WORD	282347	wordpools/wasnorm_wordpool.txt	LTP113	ltpFR	4	2	1	INSECT	740	n/a	1	1	0.412841796875	0.57763671875	upper	../fonts/zerothre.ttf
568.892	n/a	WORD	284446	wordpools/wasnorm_wordpool.txt	LTP113	ltpFR	4	2	1	FOUNTAIN	597	n/a	n/a	1	0.412841796875	0.57763671875	upper	../fonts/zerothre.ttf
571.918	n/a	SLOW_MSG	285959	n/a	LTP113	ltpFR	4	2	n/a	n/a	n/a	n/a	n/a	n/a	n/a	n/a	n/a	n/a
574.426	n/a	WORD	287213	wordpools/wasnorm_wordpool.txt	LTP113	ltpFR	4	2	1	CROCODILE	411	n/a	1	1	0.412841796875	0.57763671875	upper	../fonts/zerothre.ttf
578.432	n/a	WORD	289216	wordpools/wasnorm_wordpool.txt	LTP113	ltpFR	4	2	1	BLOSSOM	138	n/a	1	1	0.412841796875	0.57763671875	upper	../fonts/zerothre.ttf
584.34	n/a	REC_START	292170	n/a	LTP113	ltpFR	4	2	n/a	n/a	n/a	n/a	n/a	n/a	n/a	n/a	n/a	n/a
585.252	n/a	REC_WORD	292626	wordpools/wasnorm_wordpool.txt	LTP113	ltpFR	4	2	1	BLOSSOM	138	n/a	1	n/a	n/a	n/a	n/a	n/a
586.394	n/a	REC_WORD	293197	wordpools/wasnorm_wordpool.txt	LTP113	ltpFR	4	2	1	CROCODILE	411	n/a	1	n/a	n/a	n/a	n/a	n/a
589.192	n/a	REC_WORD	294596	wordpools/wasnorm_wordpool.txt	LTP113	ltpFR	4	2	0	SPIDER	1351	n/a	0	n/a	n/a	n/a	n/a	n/a
590.816	n/a	REC_WORD	295408	wordpools/wasnorm_wordpool.txt	LTP113	ltpFR	4	2	0	MONUMENT	913	n/a	1	n/a	n/a	n/a	n/a	n/a
594.996	n/a	REC_WORD	297498	wordpools/wasnorm_wordpool.txt	LTP113	ltpFR	4	2	1	COOLER	375	n/a	0	n/a	n/a	n/a	n/a	n/a
596.532	n/a	REC_WORD	298266	wordpools/wasnorm_wordpool.txt	LTP113	ltpFR	4	2	1	FACTORY	548	n/a	0	n/a	n/a	n/a	n/a	n/a
597.704	n/a	REC_WORD	298852	wordpools/wasnorm_wordpool.txt	LTP113	ltpFR	4	2	0	LIMOUSINE	824	n/a	1	n/a	n/a	n/a	n/a	n/a
599.026	n/a	REC_WORD	299513	wordpools/wasnorm_wordpool.txt	LTP113	ltpFR	4	2	0	PASSENGER	1020	n/a	1	n/a	n/a	n/a	n/a	n/a
603.048	n/a	REC_WORD	301524	wordpools/wasnorm_wordpool.txt	LTP113	ltpFR	4	2	1	INSECT	740	n/a	1	n/a	n/a	n/a	n/a	n/a
672.28	n/a	WORD	336140	wordpools/wasnorm_wordpool.txt	LTP113	ltpFR	4	3	-1	STAPLE	1371	n/a	-1	1	1.0	1.0	upper	../fonts/Verdana.ttf
676.252	n/a	WORD	338126	wordpools/wasnorm_wordpool.txt	LTP113	ltpFR	4	3	-1	CYCLONE	431	n/a	-1	1	1.0	1.0	upper	../fonts/Verdana.ttf
680.292	n/a	WORD	340146	wordpools/wasnorm_wordpool.txt	LTP113	ltpFR	4	3	-1	TWISTER	1530	n/a	-1	1	1.0	1.0	upper	../fonts/Verdana.ttf
684.216	n/a	WORD	342108	wordpools/wasnorm_wordpool.txt	LTP113	ltpFR	4	3	-1	FREEWAY	603	n/a	-1	1	1.0	1.0	upper	../fonts/Verdana.ttf
688.032	n/a	WORD	344016	wordpools/wasnorm_wordpool.txt	LTP113	ltpFR	4	3	-1	BROTHER	179	n/a	-1	1	1.0	1.0	upper	../fonts/Verdana.ttf
692.03	n/a	WORD	346015	wordpools/wasnorm_wordpool.txt	LTP113	ltpFR	4	3	-1	HUT	729	n/a	-1	1	1.0	1.0	upper	../fonts/Verdana.ttf
695.88	n/a	WORD	347940	wordpools/wasnorm_wordpool.txt	LTP113	ltpFR	4	3	-1	NOSE	957	n/a	-1	1	1.0	1.0	upper	../fonts/Verdana.ttf
699.952	n/a	WORD	349976	wordpools/wasnorm_wordpool.txt	LTP113	ltpFR	4	3	-1	GRIZZLY	662	n/a	-1	1	1.0	1.0	upper	../fonts/Verdana.ttf
704.094	n/a	WORD	352047	wordpools/wasnorm_wordpool.txt	LTP113	ltpFR	4	3	-1	FOLLOWER	589	n/a	-1	1	1.0	1.0	upper	../fonts/Verdana.ttf
708.068	n/a	WORD	354034	wordpools/wasnorm_wordpool.txt	LTP113	ltpFR	4	3	-1	MONARCH	906	n/a	-1	1	1.0	1.0	upper	../fonts/Verdana.ttf
712.032	n/a	WORD	356016	wordpools/wasnorm_wordpool.txt	LTP113	ltpFR	4	3	-1	PISTON	1076	n/a	-1	1	1.0	1.0	upper	../fonts/Verdana.ttf
716.158	n/a	WORD	358079	wordpools/wasnorm_wordpool.txt	LTP113	ltpFR	4	3	-1	PENCIL	1042	n/a	-1	1	1.0	1.0	upper	../fonts/Verdana.ttf
720.198	n/a	WORD	360099	wordpools/wasnorm_wordpool.txt	LTP113	ltpFR	4	3	-1	ERASER	538	n/a	-1	1	1.0	1.0	upper	../fonts/Verdana.ttf
724.256	n/a	WORD	362128	wordpools/wasnorm_wordpool.txt	LTP113	ltpFR	4	3	-1	KLEENEX	782	n/a	-1	1	1.0	1.0	upper	../fonts/Verdana.ttf
728.178	n/a	WORD	364089	wordpools/wasnorm_wordpool.txt	LTP113	ltpFR	4	3	-1	CARAVAN	242	n/a	-1	1	1.0	1.0	upper	../fonts/Verdana.ttf
732.328	n/a	WORD	366164	wordpools/wasnorm_wordpool.txt	LTP113	ltpFR	4	3	-1	BAY	102	n/a	-1	1	1.0	1.0	upper	../fonts/Verdana.ttf
738.152	n/a	REC_START	369076	n/a	LTP113	ltpFR	4	3	n/a	n/a	n/a	n/a	n/a	n/a	n/a	n/a	n/a	n/a
739.094	n/a	REC_WORD	369547	wordpools/wasnorm_wordpool.txt	LTP113	ltpFR	4	3	-1	BAY	102	n/a	-1	n/a	n/a	n/a	n/a	n/a
740.266	n/a	REC_WORD	370133	wordpools/wasnorm_wordpool.txt	LTP113	ltpFR	4	3	-1	CARAVAN	242	n/a	-1	n/a	n/a	n/a	n/a	n/a
742.022	n/a	REC_WORD	371011	wordpools/wasnorm_wordpool.txt	LTP113	ltpFR	4	3	-1	PENCIL	1042	n/a	-1	n/a	n/a	n/a	n/a	n/a
742.986	n/a	REC_WORD	371493	wordpools/wasnorm_wordpool.txt	LTP113	ltpFR	4	3	-1	ERASER	538	n/a	-1	n/a	n/a	n/a	n/a	n/a
747.776	n/a	REC_WORD	373888	wordpools/wasnorm_wordpool.txt	LTP113	ltpFR	4	3	-1	KLEENEX	782	n/a	-1	n/a	n/a	n/a	n/a	n/a
820.352	n/a	WORD	410176	wordpools/wasnorm_wordpool.txt	LTP113	ltpFR	4	4	-1	ROCKET	1202	n/a	-1	1	1.0	1.0	upper	../fonts/Verdana.ttf
824.35	n/a	WORD	412175	wordpools/wasnorm_wordpool.txt	LTP113	ltpFR	4	4	-1	QUARTER	1148	n/a	-1	1	1.0	1.0	upper	../fonts/Verdana.ttf
828.464	n/a	WORD	414232	wordpools/wasnorm_wordpool.txt	LTP113	ltpFR	4	4	-1	CASHIER	254	n/a	-1	1	1.0	1.0	upper	../fonts/Verdana.ttf
832.62	n/a	WORD	416310	wordpools/wasnorm_wordpool.txt	LTP113	ltpFR	4	4	-1	CAMEL	223	n/a	-1	1	1.0	1.0	upper	../fonts/Verdana.ttf
836.528	n/a	WORD	418264	wordpools/wasnorm_wordpool.txt	LTP113	ltpFR	4	4	-1	CATCHER	258	n/a	-1	1	1.0	1.0	upper	../fonts/Verdana.ttf
840.56	n/a	WORD	420280	wordpools/wasnorm_wordpool.txt	LTP113	ltpFR	4	4	-1	GOLD	647	n/a	-1	1	1.0	1.0	upper	../fonts/Verdana.ttf
844.46	n/a	WORD	422230	wordpools/wasnorm_wordpool.txt	LTP113	ltpFR	4	4	-1	PEARL	1034	n/a	-1	1	1.0	1.0	upper	../fonts/Verdana.ttf
848.41	n/a	WORD	424205	wordpools/wasnorm_wordpool.txt	LTP113	ltpFR	4	4	-1	GRASSHOPPER	656	n/a	-1	1	1.0	1.0	upper	../fonts/Verdana.ttf
852.614	n/a	WORD	426307	wordpools/wasnorm_wordpool.txt	LTP113	ltpFR	4	4	-1	DIGGER	464	n/a	-1	1	1.0	1.0	upper	../fonts/Verdana.ttf
856.606	n/a	WORD	428303	wordpools/wasnorm_wordpool.txt	LTP113	ltpFR	4	4	-1	TIMBER	1469	n/a	-1	1	1.0	1.0	upper	../fonts/Verdana.ttf
860.48	n/a	WORD	430240	wordpools/wasnorm_wordpool.txt	LTP113	ltpFR	4	4	-1	CHARCOAL	281	n/a	-1	1	1.0	1.0	upper	../fonts/Verdana.ttf
864.554	n/a	WORD	432277	wordpools/wasnorm_wordpool.txt	LTP113	ltpFR	4	4	-1	STAKE	1368	n/a	-1	1	1.0	1.0	upper	../fonts/Verdana.ttf
868.412	n/a	WORD	434206	wordpools/wasnorm_wordpool.txt	LTP113	ltpFR	4	4	-1	DYNAMITE	511	n/a	-1	1	1.0	1.0	upper	../fonts/Verdana.ttf
872.576	n/a	WORD	436288	wordpools/wasnorm_wordpool.txt	LTP113	ltpFR	4	4	-1	CLAM	315	n/a	-1	1	1.0	1.0	upper	../fonts/Verdana.ttf
876.64	n/a	WORD	438320	wordpools/wasnorm_wordpool.txt	LTP113	ltpFR	4	4	-1	TREE	1502	n/a	-1	1	1.0	1.0	upper	../fonts/Verdana.ttf
880.824	n/a	WORD	440412	wordpools/wasnorm_wordpool.txt	LTP113	ltpFR	4	4	-1	DUST	508	n/a	-1	1	1.0	1.0	upper	../fonts/Verdana.ttf
886.58	n/a	REC_START	443290	n/a	LTP113	ltpFR	4	4	n/a	n/a	n/a	n/a	n/a	n/a	n/a	n/a	n/a	n/a
888.316	n/a	REC_WORD	444158	wordpools/wasnorm_wordpool.txt	LTP113	ltpFR	4	4	-1	DUST	508	n/a	-1	n/a	n/a	n/a	n/a	n/a
889.194	n/a	REC_WORD	444597	wordpools/wasnorm_wordpool.txt	LTP113	ltpFR	4	4	-1	TREE	1502	n/a	-1	n/a	n/a	n/a	n/a	n/a
898.964	n/a	REC_WORD	449482	wordpools/wasnorm_wordpool.txt	LTP113	ltpFR	4	4	-1	PEARL	1034	n/a	-1	n/a	n/a	n/a	n/a	n/a
900.13	n/a	REC_WORD	450065	wordpools/wasnorm_wordpool.txt	LTP113	ltpFR	4	4	-1	GOLD	647	n/a	-1	n/a	n/a	n/a	n/a	n/a
910.098	n/a	REC_WORD	455049	wordpools/wasnorm_wordpool.txt	LTP113	ltpFR	4	4	-1	GRASSHOPPER	656	n/a	-1	n/a	n/a	n/a	n/a	n/a
933.53	n/a	REC_WORD	466765	wordpools/wasnorm_wordpool.txt	LTP113	ltpFR	4	4	-1	CASHIER	254	n/a	-1	n/a	n/a	n/a	n/a	n/a
936.2	n/a	REC_WORD	468100	wordpools/wasnorm_wordpool.txt	LTP113	ltpFR	4	4	-1	QUARTER	1148	n/a	-1	n/a	n/a	n/a	n/a	n/a
985.966	n/a	WORD	492983	wordpools/wasnorm_wordpool.txt	LTP113	ltpFR	4	5	-1	TRUMPET	1513	n/a	-1	1	1.0	1.0	upper	../fonts/Verdana.ttf
989.956	n/a	WORD	494978	wordpools/wasnorm_wordpool.txt	LTP113	ltpFR	4	5	-1	CRYSTAL	418	n/a	-1	1	1.0	1.0	upper	../fonts/Verdana.ttf
993.84	n/a	WORD	496920	wordpools/wasnorm_wordpool.txt	LTP113	ltpFR	4	5	-1	BEAST	108	n/a	-1	1	1.0	1.0	upper	../fonts/Verdana.ttf
997.672	n/a	WORD	498836	wordpools/wasnorm_wordpool.txt	LTP113	ltpFR	4	5	-1	ATOM	55	n/a	-1	1	1.0	1.0	upper	../fonts/Verdana.ttf
1001.82	n/a	WORD	500910	wordpools/wasnorm_wordpool.txt	LTP113	ltpFR	4	5	-1	JET	756	n/a	-1	1	1.0	1.0	upper	../fonts/Verdana.ttf
1006.018	n/a	WORD	503009	wordpools/wasnorm_wordpool.txt	LTP113	ltpFR	4	5	-1	APE	31	n/a	-1	1	1.0	1.0	upper	../fonts/Verdana.ttf
1010.076	n/a	WORD	505038	wordpools/wasnorm_wordpool.txt	LTP113	ltpFR	4	5	-1	FLAG	573	n/a	-1	1	1.0	1.0	upper	../fonts/Verdana.ttf
1014.218	n/a	WORD	507109	wordpools/wasnorm_wordpool.txt	LTP113	ltpFR	4	5	-1	AIRCRAFT	11	n/a	-1	1	1.0	1.0	upper	../fonts/Verdana.ttf
1018.25	n/a	WORD	509125	wordpools/wasnorm_wordpool.txt	LTP113	ltpFR	4	5	-1	COD	340	n/a	-1	1	1.0	1.0	upper	../fonts/Verdana.ttf
1022.414	n/a	WORD	511207	wordpools/wasnorm_wordpool.txt	LTP113	ltpFR	4	5	-1	SHRIMP	1297	n/a	-1	1	1.0	1.0	upper	../fonts/Verdana.ttf
1026.462	n/a	WORD	513231	wordpools/wasnorm_wordpool.txt	LTP113	ltpFR	4	5	-1	HOE	711	n/a	-1	1	1.0	1.0	upper	../fonts/Verdana.ttf
1030.312	n/a	WORD	515156	wordpools/wasnorm_wordpool.txt	LTP113	ltpFR	4	5	-1	LAWN	805	n/a	-1	1	1.0	1.0	upper	../fonts/Verdana.ttf
1034.328	n/a	WORD	517164	wordpools/wasnorm_wordpool.txt	LTP113	ltpFR	4	5	-1	FLORIDA	582	n/a	-1	1	1.0	1.0	upper	../fonts/Verdana.ttf
1038.152	n/a	WORD	519076	wordpools/wasnorm_wordpool.txt	LTP113	ltpFR	4	5	-1	EMERALD	528	n/a	-1	1	1.0	1.0	upper	../fonts/Verdana.ttf
1042.15	n/a	WORD	521075	wordpools/wasnorm_wordpool.txt	LTP113	ltpFR	4	5	-1	ZUCCHINI	1638	n/a	-1	1	1.0	1.0	upper	../fonts/Verdana.ttf
1046.29	n/a	WORD	523145	wordpools/wasnorm_wordpool.txt	LTP113	ltpFR	4	5	-1	CITIZEN	312	n/a	-1	1	1.0	1.0	upper	../fonts/Verdana.ttf
1051.98	n/a	REC_START	525990	n/a	LTP113	ltpFR	4	5	n/a	n/a	n/a	n/a	n/a	n/a	n/a	n/a	n/a	n/a
1052.774	n/a	REC_WORD	526387	wordpools/wasnorm_wordpool.txt	LTP113	ltpFR	4	5	-1	CITIZEN	312	n/a	-1	n/a	n/a	n/a	n/a	n/a
1054.29	n/a	REC_WORD	527145	wordpools/wasnorm_wordpool.txt	LTP113	ltpFR	4	5	-1	ZUCCHINI	1638	n/a	-1	n/a	n/a	n/a	n/a	n/a
1055.846	n/a	REC_WORD	527923	wordpools/wasnorm_wordpool.txt	LTP113	ltpFR	4	5	-1	DUST	508	n/a	-1	n/a	n/a	n/a	n/a	n/a
1056.844	n/a	REC_WORD	528422	wordpools/wasnorm_wordpool.txt	LTP113	ltpFR	4	5	-1	HOE	711	n/a	-1	n/a	n/a	n/a	n/a	n/a
1061.614	n/a	REC_WORD	530807	wordpools/wasnorm_wordpool.txt	LTP113	ltpFR	4	5	-1	EMERALD	528	n/a	-1	n/a	n/a	n/a	n/a	n/a
1075.442	n/a	REC_WORD	537721	wordpools/wasnorm_wordpool.txt	LTP113	ltpFR	4	5	-1	COD	340	n/a	-1	n/a	n/a	n/a	n/a	n/a
1083.236	n/a	REC_WORD	541618	wordpools/wasnorm_wordpool.txt	LTP113	ltpFR	4	5	-1	CAMEL	223	n/a	-1	n/a	n/a	n/a	n/a	n/a
1159.656	n/a	WORD	579828	wordpools/wasnorm_wordpool.txt	LTP113	ltpFR	4	6	0	KEG	770	n/a	0	0	0.5869140625	0.422607421875	lower	../fonts/amplitud.ttf
1163.736	n/a	WORD	581868	wordpools/wasnorm_wordpool.txt	LTP113	ltpFR	4	6	0	BEER	114	n/a	0	0	0.5869140625	0.422607421875	lower	../fonts/amplitud.ttf
1167.92	n/a	WORD	583960	wordpools/wasnorm_wordpool.txt	LTP113	ltpFR	4	6	0	FAMILY	550	n/a	0	0	0.5869140625	0.422607421875	lower	../fonts/amplitud.ttf
1171.776	n/a	WORD	585888	wordpools/wasnorm_wordpool.txt	LTP113	ltpFR	4	6	0	LOCK	838	n/a	0	0	0.5869140625	0.422607421875	lower	../fonts/amplitud.ttf
1175.634	n/a	WORD	587817	wordpools/wasnorm_wordpool.txt	LTP113	ltpFR	4	6	0	CHEESE	289	n/a	0	0	0.5869140625	0.422607421875	lower	../fonts/amplitud.ttf
1179.79	n/a	WORD	589895	wordpools/wasnorm_wordpool.txt	LTP113	ltpFR	4	6	0	DIVER	476	n/a	1	0	0.5869140625	0.422607421875	lower	../fonts/amplitud.ttf
1183.79	n/a	WORD	591895	wordpools/wasnorm_wordpool.txt	LTP113	ltpFR	4	6	0	CHESS	294	n/a	0	0	0.5869140625	0.422607421875	lower	../fonts/amplitud.ttf
1187.648	n/a	WORD	593824	wordpools/wasnorm_wordpool.txt	LTP113	ltpFR	4	6	0	SOCKET	1340	n/a	0	0	0.5869140625	0.422607421875	lower	../fonts/amplitud.ttf
1191.654	n/a	WORD	595827	wordpools/wasnorm_wordpool.txt	LTP113	ltpFR	4	6	0	SWIMMER	1420	n/a	1	0	0.5869140625	0.422607421875	lower	../fonts/amplitud.ttf
1195.802	n/a	WORD	597901	wordpools/wasnorm_wordpool.txt	LTP113	ltpFR	4	6	0	PRAIRIE	1118	n/a	1	0	0.5869140625	0.422607421875	lower	../fonts/amplitud.ttf
1199.66	n/a	WORD	599830	wordpools/wasnorm_wordpool.txt	LTP113	ltpFR	4	6	0	ELECTRICIAN	521	n/a	1	0	0.5869140625	0.422607421875	lower	../fonts/amplitud.ttf
1203.726	n/a	WORD	601863	wordpools/wasnorm_wordpool.txt	LTP113	ltpFR	4	6	0	SOFTBALL	1343	n/a	1	0	0.5869140625	0.422607421875	lower	../fonts/amplitud.ttf
1207.916	n/a	WORD	603958	wordpools/wasnorm_wordpool.txt	LTP113	ltpFR	4	6	0	TEAM	1441	n/a	1	0	0.5869140625	0.422607421875	lower	../fonts/amplitud.ttf
1211.864	n/a	WORD	605932	wordpools/wasnorm_wordpool.txt	LTP113	ltpFR	4	6	0	CLOVE	329	n/a	1	0	0.5869140625	0.422607421875	lower	../fonts/amplitud.ttf
1215.746	n/a	WORD	607873	wordpools/wasnorm_wordpool.txt	LTP113	ltpFR	4	6	0	SCIENTIST	1249	n/a	1	0	0.5869140625	0.422607421875	lower	../fonts/amplitud.ttf
1219.92	n/a	WORD	609960	wordpools/wasnorm_wordpool.txt	LTP113	ltpFR	4	6	0	VET	1560	n/a	1	0	0.5869140625	0.422607421875	lower	../fonts/amplitud.ttf
1225.82	n/a	REC_START	612910	n/a	LTP113	ltpFR	4	6	n/a	n/a	n/a	n/a	n/a	n/a	n/a	n/a	n/a	n/a
1226.752	n/a	REC_WORD	613376	wordpools/wasnorm_wordpool.txt	LTP113	ltpFR	4	6	0	VET	1560	n/a	1	n/a	n/a	n/a	n/a	n/a
1227.86	n/a	REC_WORD	613930	wordpools/wasnorm_wordpool.txt	LTP113	ltpFR	4	6	0	SCIENTIST	1249	n/a	1	n/a	n/a	n/a	n/a	n/a
1228.878	n/a	REC_WORD	614439	wordpools/wasnorm_wordpool.txt	LTP113	ltpFR	4	6	0	ELECTRICIAN	521	n/a	1	n/a	n/a	n/a	n/a	n/a
1230.354	n/a	REC_WORD	615177	wordpools/wasnorm_wordpool.txt	LTP113	ltpFR	4	6	0	DIVER	476	n/a	1	n/a	n/a	n/a	n/a	n/a
1231.158	n/a	REC_WORD	615579	wordpools/wasnorm_wordpool.txt	LTP113	ltpFR	4	6	0	SWIMMER	1420	n/a	1	n/a	n/a	n/a	n/a	n/a
1232.364	n/a	REC_WORD	616182	wordpools/wasnorm_wordpool.txt	LTP113	ltpFR	4	6	0	LOCK	838	n/a	0	n/a	n/a	n/a	n/a	n/a
1233.646	n/a	REC_WORD	616823	wordpools/wasnorm_wordpool.txt	LTP113	ltpFR	4	6	0	LOCK	838	n/a	0	n/a	n/a	n/a	n/a	n/a
1234.754	n/a	REC_WORD	617377	wordpools/wasnorm_wordpool.txt	LTP113	ltpFR	4	6	0	BEER	114	n/a	0	n/a	n/a	n/a	n/a	n/a
1235.706	n/a	REC_WORD	617853	wordpools/wasnorm_wordpool.txt	LTP113	ltpFR	4	6	0	FAMILY	550	n/a	0	n/a	n/a	n/a	n/a	n/a
1236.774	n/a	REC_WORD	618387	wordpools/wasnorm_wordpool.txt	LTP113	ltpFR	4	6	0	CHEESE	289	n/a	0	n/a	n/a	n/a	n/a	n/a
1311.992	n/a	WORD	655996	wordpools/wasnorm_wordpool.txt	LTP113	ltpFR	4	7	1	RICE	1190	n/a	0	1	0.412841796875	0.57763671875	upper	../fonts/zerothre.ttf
1315.824	n/a	WORD	657912	wordpools/wasnorm_wordpool.txt	LTP113	ltpFR	4	7	1	DRIVER	499	n/a	1	1	0.412841796875	0.57763671875	upper	../fonts/zerothre.ttf
1319.782	n/a	WORD	659891	wordpools/wasnorm_wordpool.txt	LTP113	ltpFR	4	7	1	RACK	1154	n/a	0	1	0.412841796875	0.57763671875	upper	../fonts/zerothre.ttf
1323.756	n/a	WORD	661878	wordpools/wasnorm_wordpool.txt	LTP113	ltpFR	4	7	1	CHIMNEY	301	n/a	0	1	0.412841796875	0.57763671875	upper	../fonts/zerothre.ttf
1327.654	n/a	WORD	663827	wordpools/wasnorm_wordpool.txt	LTP113	ltpFR	4	7	1	EXPLOSION	544	n/a	0	1	0.412841796875	0.57763671875	upper	../fonts/zerothre.ttf
1331.486	n/a	WORD	665743	wordpools/wasnorm_wordpool.txt	LTP113	ltpFR	4	7	1	PECAN	1036	n/a	1	1	0.412841796875	0.57763671875	upper	../fonts/zerothre.ttf
1335.626	n/a	WORD	667813	wordpools/wasnorm_wordpool.txt	LTP113	ltpFR	4	7	1	AMBULANCE	19	n/a	0	1	0.412841796875	0.57763671875	upper	../fonts/zerothre.ttf
1339.502	n/a	WORD	669751	wordpools/wasnorm_wordpool.txt	LTP113	ltpFR	4	7	1	CREATURE	403	n/a	1	1	0.412841796875	0.57763671875	upper	../fonts/zerothre.ttf
1343.384	n/a	WORD	671692	wordpools/wasnorm_wordpool.txt	LTP113	ltpFR	4	7	1	PEANUT	1032	n/a	0	1	0.412841796875	0.57763671875	upper	../fonts/zerothre.ttf
1347.54	n/a	WORD	673770	wordpools/wasnorm_wordpool.txt	LTP113	ltpFR	4	7	1	SWING	1421	n/a	0	1	0.412841796875	0.57763671875	upper	../fonts/zerothre.ttf
1351.588	n/a	WORD	675794	wordpools/wasnorm_wordpool.txt	LTP113	ltpFR	4	7	1	HAMMOCK	681	n/a	0	1	0.412841796875	0.57763671875	upper	../fonts/zerothre.ttf
1355.646	n/a	WORD	677823	wordpools/wasnorm_wordpool.txt	LTP113	ltpFR	4	7	1	MUSTARD	935	n/a	1	1	0.412841796875	0.57763671875	upper	../fonts/zerothre.ttf
1359.804	n/a	WORD	679902	wordpools/wasnorm_wordpool.txt	LTP113	ltpFR	4	7	1	SEAL	1262	n/a	1	1	0.412841796875	0.57763671875	upper	../fonts/zerothre.ttf
1363.802	n/a	WORD	681901	wordpools/wasnorm_wordpool.txt	LTP113	ltpFR	4	7	1	YOUTH	1634	n/a	1	1	0.412841796875	0.57763671875	upper	../fonts/zerothre.ttf
1367.976	n/a	WORD	683988	wordpools/wasnorm_wordpool.txt	LTP113	ltpFR	4	7	1	DELINQUENT	445	n/a	1	1	0.412841796875	0.57763671875	upper	../fonts/zerothre.ttf
1371.832	n/a	WORD	685916	wordpools/wasnorm_wordpool.txt	LTP113	ltpFR	4	7	1	CUSTARD	429	n/a	0	1	0.412841796875	0.57763671875	upper	../fonts/zerothre.ttf
1377.54	n/a	REC_START	688770	n/a	LTP113	ltpFR	4	7	n/a	n/a	n/a	n/a	n/a	n/a	n/a	n/a	n/a	n/a
1378.428	n/a	REC_WORD	689214	wordpools/wasnorm_wordpool.txt	LTP113	ltpFR	4	7	1	CUSTARD	429	n/a	0	n/a	n/a	n/a	n/a	n/a
1391.048	n/a	REC_WORD	695524	wordpools/wasnorm_wordpool.txt	LTP113	ltpFR	4	7	1	EXPLOSION	544	n/a	0	n/a	n/a	n/a	n/a	n/a
1393.548	n/a	REC_WORD	696774	wordpools/wasnorm_wordpool.txt	LTP113	ltpFR	4	7	1	CREATURE	403	n/a	1	n/a	n/a	n/a	n/a	n/a
1399.002	n/a	REC_WORD	699501	wordpools/wasnorm_wordpool.txt	LTP113	ltpFR	4	7	1	MUSTARD	935	n/a	1	n/a	n/a	n/a	n/a	n/a
1445.438	n/a	REC_WORD	722719	wordpools/wasnorm_wordpool.txt	LTP113	ltpFR	4	7	1	DELINQUENT	445	n/a	1	n/a	n/a	n/a	n/a	n/a
1465.02	n/a	WORD	732510	wordpools/wasnorm_wordpool.txt	LTP113	ltpFR	4	8	0	NICKEL	950	n/a	0	0	0.5869140625	0.422607421875	lower	../fonts/amplitud.ttf
1469.078	n/a	WORD	734539	wordpools/wasnorm_wordpool.txt	LTP113	ltpFR	4	8	0	BANKER	84	n/a	1	0	0.5869140625	0.422607421875	lower	../fonts/amplitud.ttf
1472.994	n/a	WORD	736497	wordpools/wasnorm_wordpool.txt	LTP113	ltpFR	4	8	0	MARINE	869	n/a	1	0	0.5869140625	0.422607421875	lower	../fonts/amplitud.ttf
1477.026	n/a	WORD	738513	wordpools/wasnorm_wordpool.txt	LTP113	ltpFR	4	8	1	PUBLICATION	1136	n/a	0	1	0.412841796875	0.57763671875	upper	../fonts/zerothre.ttf
1480.974	n/a	WORD	740487	wordpools/wasnorm_wordpool.txt	LTP113	ltpFR	4	8	1	CHEEK	287	n/a	0	1	0.412841796875	0.57763671875	upper	../fonts/zerothre.ttf
1484.824	n/a	WORD	742412	wordpools/wasnorm_wordpool.txt	LTP113	ltpFR	4	8	0	FATHER	554	n/a	3	0	0.5869140625	0.422607421875	lower	../fonts/amplitud.ttf
1486.166	n/a	KEY_MSG	743083	n/a	LTP113	ltpFR	4	8	n/a	n/a	n/a	n/a	n/a	n/a	n/a	n/a	n/a	n/a
1488.996	n/a	WORD	744498	wordpools/wasnorm_wordpool.txt	LTP113	ltpFR	4	8	0	MONGOOSE	909	n/a	1	0	0.5869140625	0.422607421875	lower	../fonts/amplitud.ttf
1492.904	n/a	WORD	746452	wordpools/wasnorm_wordpool.txt	LTP113	ltpFR	4	8	1	HOOD	714	n/a	0	1	0.412841796875	0.57763671875	upper	../fonts/zerothre.ttf
1497.112	n/a	WORD	748556	wordpools/wasnorm_wordpool.txt	LTP113	ltpFR	4	8	1	CHAUFFEUR	283	n/a	1	1	0.412841796875	0.57763671875	upper	../fonts/zerothre.ttf
1501.128	n/a	WORD	750564	wordpools/wasnorm_wordpool.txt	LTP113	ltpFR	4	8	1	TREAD	1499	n/a	0	1	0.412841796875	0.57763671875	upper	../fonts/zerothre.ttf
1505.318	n/a	WORD	752659	wordpools/wasnorm_wordpool.txt	LTP113	ltpFR	4	8	1	RECEIPT	1173	n/a	0	1	0.412841796875	0.57763671875	upper	../fonts/zerothre.ttf
1509.242	n/a	WORD	754621	wordpools/wasnorm_wordpool.txt	LTP113	ltpFR	4	8	1	ARENA	37	n/a	0	1	0.412841796875	0.57763671875	upper	../fonts/zerothre.ttf
1513.066	n/a	WORD	756533	wordpools/wasnorm_wordpool.txt	LTP113	ltpFR	4	8	1	ARTICLE	42	n/a	0	1	0.412841796875	0.57763671875	upper	../fonts/zerothre.ttf
1517.19	n/a	WORD	758595	wordpools/wasnorm_wordpool.txt	LTP113	ltpFR	4	8	0	SWITCH	1422	n/a	0	0	0.5869140625	0.422607421875	lower	../fonts/amplitud.ttf
1521.396	n/a	WORD	760698	wordpools/wasnorm_wordpool.txt	LTP113	ltpFR	4	8	0	PELT	1040	n/a	0	0	0.5869140625	0.422607421875	lower	../fonts/amplitud.ttf
1525.254	n/a	WORD	762627	wordpools/wasnorm_wordpool.txt	LTP113	ltpFR	4	8	0	RACKET	1155	n/a	0	0	0.5869140625	0.422607421875	lower	../fonts/amplitud.ttf
1531.044	n/a	REC_START	765522	n/a	LTP113	ltpFR	4	8	n/a	n/a	n/a	n/a	n/a	n/a	n/a	n/a	n/a	n/a
1531.442	n/a	REC_WORD	765721	wordpools/wasnorm_wordpool.txt	LTP113	ltpFR	4	8	0	RACKET	1155	n/a	0	n/a	n/a	n/a	n/a	n/a
1532.514	n/a	REC_WORD	766257	wordpools/wasnorm_wordpool.txt	LTP113	ltpFR	4	8	0	PELT	1040	n/a	0	n/a	n/a	n/a	n/a	n/a
1535.828	n/a	REC_WORD	767914	wordpools/wasnorm_wordpool.txt	LTP113	ltpFR	4	8	1	PEANUT	1032	n/a	0	n/a	n/a	n/a	n/a	n/a
1536.84	n/a	REC_WORD	768420	wordpools/wasnorm_wordpool.txt	LTP113	ltpFR	4	8	1	PECAN	1036	n/a	1	n/a	n/a	n/a	n/a	n/a
1579.77	n/a	REC_WORD	789885	wordpools/wasnorm_wordpool.txt	LTP113	ltpFR	4	8	0	NICKEL	950	n/a	0	n/a	n/a	n/a	n/a	n/a
1580.946	n/a	REC_WORD	790473	wordpools/wasnorm_wordpool.txt	LTP113	ltpFR	4	8	0	BANKER	84	n/a	1	n/a	n/a	n/a	n/a	n/a
1590.236	n/a	REC_WORD	795118	wordpools/wasnorm_wordpool.txt	LTP113	ltpFR	4	8	1	CHEEK	287	n/a	0	n/a	n/a	n/a	n/a	n/a
1604.944	n/a	REC_WORD	802472	wordpools/wasnorm_wordpool.txt	LTP113	ltpFR	4	8	0	VET	1560	n/a	1	n/a	n/a	n/a	n/a	n/a
1616.4	n/a	WORD	808200	wordpools/wasnorm_wordpool.txt	LTP113	ltpFR	4	9	-1	RESTAURANT	1187	n/a	-1	1	1.0	1.0	upper	../fonts/Verdana.ttf
1620.598	n/a	WORD	810299	wordpools/wasnorm_wordpool.txt	LTP113	ltpFR	4	9	-1	MEAT	883	n/a	-1	1	1.0	1.0	upper	../fonts/Verdana.ttf
1624.68	n/a	WORD	812340	wordpools/wasnorm_wordpool.txt	LTP113	ltpFR	4	9	-1	BATTERY	101	n/a	-1	1	1.0	1.0	upper	../fonts/Verdana.ttf
1628.88	n/a	WORD	814440	wordpools/wasnorm_wordpool.txt	LTP113	ltpFR	4	9	-1	ISLAND	745	n/a	-1	1	1.0	1.0	upper	../fonts/Verdana.ttf
1632.754	n/a	WORD	816377	wordpools/wasnorm_wordpool.txt	LTP113	ltpFR	4	9	-1	PICNIC	1060	n/a	-1	1	1.0	1.0	upper	../fonts/Verdana.ttf
1636.728	n/a	WORD	818364	wordpools/wasnorm_wordpool.txt	LTP113	ltpFR	4	9	-1	FURNITURE	616	n/a	-1	1	1.0	1.0	upper	../fonts/Verdana.ttf
1640.85	n/a	WORD	820425	wordpools/wasnorm_wordpool.txt	LTP113	ltpFR	4	9	-1	DINNER	468	n/a	-1	1	1.0	1.0	upper	../fonts/Verdana.ttf
1645.034	n/a	WORD	822517	wordpools/wasnorm_wordpool.txt	LTP113	ltpFR	4	9	-1	PUDDLE	1140	n/a	-1	1	1.0	1.0	upper	../fonts/Verdana.ttf
1648.874	n/a	WORD	824437	wordpools/wasnorm_wordpool.txt	LTP113	ltpFR	4	9	-1	SPATULA	1348	n/a	-1	1	1.0	1.0	upper	../fonts/Verdana.ttf
1653.038	n/a	WORD	826519	wordpools/wasnorm_wordpool.txt	LTP113	ltpFR	4	9	-1	APRON	35	n/a	-1	1	1.0	1.0	upper	../fonts/Verdana.ttf
1657.196	n/a	WORD	828598	wordpools/wasnorm_wordpool.txt	LTP113	ltpFR	4	9	-1	SENATE	1267	n/a	-1	1	1.0	1.0	upper	../fonts/Verdana.ttf
1661.404	n/a	WORD	830702	wordpools/wasnorm_wordpool.txt	LTP113	ltpFR	4	9	-1	REFEREE	1178	n/a	-1	1	1.0	1.0	upper	../fonts/Verdana.ttf
1665.478	n/a	WORD	832739	wordpools/wasnorm_wordpool.txt	LTP113	ltpFR	4	9	-1	UMPIRE	1535	n/a	-1	1	1.0	1.0	upper	../fonts/Verdana.ttf
1669.452	n/a	WORD	834726	wordpools/wasnorm_wordpool.txt	LTP113	ltpFR	4	9	-1	EARTH	515	n/a	-1	1	1.0	1.0	upper	../fonts/Verdana.ttf
1673.326	n/a	WORD	836663	wordpools/wasnorm_wordpool.txt	LTP113	ltpFR	4	9	-1	DONKEY	484	n/a	-1	1	1.0	1.0	upper	../fonts/Verdana.ttf
1677.216	n/a	WORD	838608	wordpools/wasnorm_wordpool.txt	LTP113	ltpFR	4	9	-1	PORK	1108	n/a	-1	1	1.0	1.0	upper	../fonts/Verdana.ttf
1682.972	n/a	REC_START	841486	n/a	LTP113	ltpFR	4	9	n/a	n/a	n/a	n/a	n/a	n/a	n/a	n/a	n/a	n/a
1683.68	n/a	REC_WORD	841840	wordpools/wasnorm_wordpool.txt	LTP113	ltpFR	4	9	-1	PORK	1108	n/a	-1	n/a	n/a	n/a	n/a	n/a
1684.664	n/a	REC_WORD	842332	wordpools/wasnorm_wordpool.txt	LTP113	ltpFR	4	9	-1	DONKEY	484	n/a	-1	n/a	n/a	n/a	n/a	n/a
1685.876	n/a	REC_WORD	842938	wordpools/wasnorm_wordpool.txt	LTP113	ltpFR	4	9	-1	UMPIRE	1535	n/a	-1	n/a	n/a	n/a	n/a	n/a
1686.998	n/a	REC_WORD	843499	wordpools/wasnorm_wordpool.txt	LTP113	ltpFR	4	9	-1	REFEREE	1178	n/a	-1	n/a	n/a	n/a	n/a	n/a
1692.312	n/a	REC_WORD	846156	wordpools/wasnorm_wordpool.txt	LTP113	ltpFR	4	9	-1	RESTAURANT	1187	n/a	-1	n/a	n/a	n/a	n/a	n/a
1694.326	n/a	REC_WORD	847163	wordpools/wasnorm_wordpool.txt	LTP113	ltpFR	4	9	-1	DINNER	468	n/a	-1	n/a	n/a	n/a	n/a	n/a
1695.38	n/a	REC_WORD	847690	wordpools/wasnorm_wordpool.txt	LTP113	ltpFR	4	9	-1	MEAT	883	n/a	-1	n/a	n/a	n/a	n/a	n/a
1771.96	n/a	WORD	885980	wordpools/wasnorm_wordpool.txt	LTP113	ltpFR	4	10	0	SHORTS	1293	n/a	0	0	0.5869140625	0.422607421875	lower	../fonts/amplitud.ttf
1776.144	n/a	WORD	888072	wordpools/wasnorm_wordpool.txt	LTP113	ltpFR	4	10	0	BIRD	129	n/a	0	0	0.5869140625	0.422607421875	lower	../fonts/amplitud.ttf
1780.144	n/a	WORD	890072	wordpools/wasnorm_wordpool.txt	LTP113	ltpFR	4	10	1	BAKER	71	n/a	1	1	0.412841796875	0.57763671875	upper	../fonts/zerothre.ttf
1783.966	n/a	WORD	891983	wordpools/wasnorm_wordpool.txt	LTP113	ltpFR	4	10	1	TOAST	1471	n/a	0	1	0.412841796875	0.57763671875	upper	../fonts/zerothre.ttf
1787.99	n/a	WORD	893995	wordpools/wasnorm_wordpool.txt	LTP113	ltpFR	4	10	1	QUILT	1151	n/a	0	1	0.412841796875	0.57763671875	upper	../fonts/zerothre.ttf
1791.946	n/a	WORD	895973	wordpools/wasnorm_wordpool.txt	LTP113	ltpFR	4	10	1	LAPEL	800	n/a	0	1	0.412841796875	0.57763671875	upper	../fonts/zerothre.ttf
1796.122	n/a	WORD	898061	wordpools/wasnorm_wordpool.txt	LTP113	ltpFR	4	10	0	FLOWER	584	n/a	0	0	0.5869140625	0.422607421875	lower	../fonts/amplitud.ttf
1800.002	n/a	WORD	900001	wordpools/wasnorm_wordpool.txt	LTP113	ltpFR	4	10	0	DESIGNER	451	n/a	0	0	0.5869140625	0.422607421875	lower	../fonts/amplitud.ttf
1803.976	n/a	WORD	901988	wordpools/wasnorm_wordpool.txt	LTP113	ltpFR	4	10	0	SHED	1277	n/a	1	0	0.5869140625	0.422607421875	lower	../fonts/amplitud.ttf
1807.958	n/a	WORD	903979	wordpools/wasnorm_wordpool.txt	LTP113	ltpFR	4	10	0	HORNET	718	n/a	1	0	0.5869140625	0.422607421875	lower	../fonts/amplitud.ttf
1811.998	n/a	WORD	905999	wordpools/wasnorm_wordpool.txt	LTP113	ltpFR	4	10	0	BEE	112	n/a	1	0	0.5869140625	0.422607421875	lower	../fonts/amplitud.ttf
1815.856	n/a	WORD	907928	wordpools/wasnorm_wordpool.txt	LTP113	ltpFR	4	10	0	GARBAGE	622	n/a	1	0	0.5869140625	0.422607421875	lower	../fonts/amplitud.ttf
1819.972	n/a	WORD	909986	wordpools/wasnorm_wordpool.txt	LTP113	ltpFR	4	10	1	DANCER	437	n/a	0	1	0.412841796875	0.57763671875	upper	../fonts/zerothre.ttf
1823.804	n/a	WORD	911902	wordpools/wasnorm_wordpool.txt	LTP113	ltpFR	4	10	1	BARN	89	n/a	0	1	0.412841796875	0.57763671875	upper	../fonts/zerothre.ttf
1827.994	n/a	WORD	913997	wordpools/wasnorm_wordpool.txt	LTP113	ltpFR	4	10	1	SEED	1266	n/a	0	1	0.412841796875	0.57763671875	upper	../fonts/zerothre.ttf
1831.826	n/a	WORD	915913	wordpools/wasnorm_wordpool.txt	LTP113	ltpFR	4	10	1	PLAID	1080	n/a	0	1	0.412841796875	0.57763671875	upper	../fonts/zerothre.ttf
1837.658	n/a	REC_START	918829	n/a	LTP113	ltpFR	4	10	n/a	n/a	n/a	n/a	n/a	n/a	n/a	n/a	n/a	n/a
1838.182	n/a	REC_WORD	919091	wordpools/wasnorm_wordpool.txt	LTP113	ltpFR	4	10	1	PLAID	1080	n/a	0	n/a	n/a	n/a	n/a	n/a
1839.13	n/a	REC_WORD	919565	wordpools/wasnorm_wordpool.txt	LTP113	ltpFR	4	10	1	SEED	1266	n/a	0	n/a	n/a	n/a	n/a	n/a
1840.322	n/a	REC_WORD	920161	wordpools/wasnorm_wordpool.txt	LTP113	ltpFR	4	10	0	HORNET	718	n/a	1	n/a	n/a	n/a	n/a	n/a
1841.734	n/a	REC_WORD	920867	wordpools/wasnorm_wordpool.txt	LTP113	ltpFR	4	10	0	BEE	112	n/a	1	n/a	n/a	n/a	n/a	n/a
1844.508	n/a	REC_WORD	922254	wordpools/wasnorm_wordpool.txt	LTP113	ltpFR	4	10	1	BAKER	71	n/a	1	n/a	n/a	n/a	n/a	n/a
1845.884	n/a	REC_WORD_VV	922942	wordpools/wasnorm_wordpool.txt	LTP113	ltpFR	4	10	n/a	<>	-1	n/a	n/a	n/a	n/a	n/a	n/a	n/a
1846.728	n/a	REC_WORD	923364	wordpools/wasnorm_wordpool.txt	LTP113	ltpFR	4	10	1	QUILT	1151	n/a	0	n/a	n/a	n/a	n/a	n/a
1849.7	n/a	REC_WORD	924850	wordpools/wasnorm_wordpool.txt	LTP113	ltpFR	4	10	1	TOAST	1471	n/a	0	n/a	n/a	n/a	n/a	n/a
1866.858	n/a	REC_WORD	933429	wordpools/wasnorm_wordpool.txt	LTP113	ltpFR	4	10	1	LAPEL	800	n/a	0	n/a	n/a	n/a	n/a	n/a
1872.904	n/a	REC_WORD	936452	wordpools/wasnorm_wordpool.txt	LTP113	ltpFR	4	10	1	DANCER	437	n/a	0	n/a	n/a	n/a	n/a	n/a
1944.05	n/a	WORD	972025	wordpools/wasnorm_wordpool.txt	LTP113	ltpFR	4	11	1	REGISTER	1180	n/a	2	1	0.412841796875	0.57763671875	upper	../fonts/zerothre.ttf
1946.058	n/a	KEY_MSG	973029	n/a	LTP113	ltpFR	4	11	n/a	n/a	n/a	n/a	n/a	n/a	n/a	n/a	n/a	n/a
1948.5	n/a	WORD	974250	wordpools/wasnorm_wordpool.txt	LTP113	ltpFR	4	11	1	CHOCOLATE	306	n/a	0	1	0.412841796875	0.57763671875	upper	../fonts/zerothre.ttf
1952.532	n/a	WORD	976266	wordpools/wasnorm_wordpool.txt	LTP113	ltpFR	4	11	0	SUGAR	1401	n/a	1	0	0.5869140625	0.422607421875	lower	../fonts/amplitud.ttf
1956.522	n/a	WORD	978261	wordpools/wasnorm_wordpool.txt	LTP113	ltpFR	4	11	0	GENTLEMAN	631	n/a	1	0	0.5869140625	0.422607421875	lower	../fonts/amplitud.ttf
1960.578	n/a	WORD	980289	wordpools/wasnorm_wordpool.txt	LTP113	ltpFR	4	11	0	BUCKLE	185	n/a	0	0	0.5869140625	0.422607421875	lower	../fonts/amplitud.ttf
1964.768	n/a	WORD	982384	wordpools/wasnorm_wordpool.txt	LTP113	ltpFR	4	11	1	SEAGULL	1261	n/a	1	1	0.412841796875	0.57763671875	upper	../fonts/zerothre.ttf
1968.95	n/a	WORD	984475	wordpools/wasnorm_wordpool.txt	LTP113	ltpFR	4	11	1	FLEA	577	n/a	1	1	0.412841796875	0.57763671875	upper	../fonts/zerothre.ttf
1972.792	n/a	WORD	986396	wordpools/wasnorm_wordpool.txt	LTP113	ltpFR	4	11	1	CAT	257	n/a	1	1	0.412841796875	0.57763671875	upper	../fonts/zerothre.ttf
1976.866	n/a	WORD	988433	wordpools/wasnorm_wordpool.txt	LTP113	ltpFR	4	11	1	STUMP	1396	n/a	0	1	0.412841796875	0.57763671875	upper	../fonts/zerothre.ttf
1980.856	n/a	WORD	990428	wordpools/wasnorm_wordpool.txt	LTP113	ltpFR	4	11	1	FIG	563	n/a	1	1	0.412841796875	0.57763671875	upper	../fonts/zerothre.ttf
1984.896	n/a	WORD	992448	wordpools/wasnorm_wordpool.txt	LTP113	ltpFR	4	11	1	CASH	252	n/a	0	1	0.412841796875	0.57763671875	upper	../fonts/zerothre.ttf
1988.736	n/a	WORD	994368	wordpools/wasnorm_wordpool.txt	LTP113	ltpFR	4	11	0	SLACKS	1323	n/a	0	0	0.5869140625	0.422607421875	lower	../fonts/amplitud.ttf
1992.57	n/a	WORD	996285	wordpools/wasnorm_wordpool.txt	LTP113	ltpFR	4	11	0	MAN	862	n/a	1	0	0.5869140625	0.422607421875	lower	../fonts/amplitud.ttf
1996.42	n/a	WORD	998210	wordpools/wasnorm_wordpool.txt	LTP113	ltpFR	4	11	0	ADULT	8	n/a	1	0	0.5869140625	0.422607421875	lower	../fonts/amplitud.ttf
2000.492	n/a	WORD	1000246	wordpools/wasnorm_wordpool.txt	LTP113	ltpFR	4	11	0	SKIRT	1319	n/a	0	0	0.5869140625	0.422607421875	lower	../fonts/amplitud.ttf
2004.432	n/a	WORD	1002216	wordpools/wasnorm_wordpool.txt	LTP113	ltpFR	4	11	0	POTTERY	1116	n/a	1	0	0.5869140625	0.422607421875	lower	../fonts/amplitud.ttf
2010.106	n/a	REC_START	1005053	n/a	LTP113	ltpFR	4	11	n/a	n/a	n/a	n/a	n/a	n/a	n/a	n/a	n/a	n/a
2011.074	n/a	REC_WORD	1005537	wordpools/wasnorm_wordpool.txt	LTP113	ltpFR	4	11	0	POTTERY	1116	n/a	1	n/a	n/a	n/a	n/a	n/a
2012.72	n/a	REC_WORD	1006360	wordpools/wasnorm_wordpool.txt	LTP113	ltpFR	4	11	0	MAN	862	n/a	1	n/a	n/a	n/a	n/a	n/a
2013.738	n/a	REC_WORD	1006869	wordpools/wasnorm_wordpool.txt	LTP113	ltpFR	4	11	0	ADULT	8	n/a	1	n/a	n/a	n/a	n/a	n/a
2015.17	n/a	REC_WORD	1007585	wordpools/wasnorm_wordpool.txt	LTP113	ltpFR	4	11	1	CASH	252	n/a	0	n/a	n/a	n/a	n/a	n/a
2016.422	n/a	REC_WORD	1008211	wordpools/wasnorm_wordpool.txt	LTP113	ltpFR	4	11	1	SEAGULL	1261	n/a	1	n/a	n/a	n/a	n/a	n/a
2034.032	n/a	REC_WORD	1017016	wordpools/wasnorm_wordpool.txt	LTP113	ltpFR	4	11	0	MAN	862	n/a	1	n/a	n/a	n/a	n/a	n/a
2095.522	n/a	WORD	1047761	wordpools/wasnorm_wordpool.txt	LTP113	ltpFR	4	12	1	VETERAN	1561	n/a	1	1	0.412841796875	0.57763671875	upper	../fonts/zerothre.ttf
2099.604	n/a	WORD	1049802	wordpools/wasnorm_wordpool.txt	LTP113	ltpFR	4	12	1	BEAVER	109	n/a	1	1	0.412841796875	0.57763671875	upper	../fonts/zerothre.ttf
2103.576	n/a	WORD	1051788	wordpools/wasnorm_wordpool.txt	LTP113	ltpFR	4	12	0	FOX	598	n/a	1	0	0.5869140625	0.422607421875	lower	../fonts/amplitud.ttf
2107.41	n/a	WORD	1053705	wordpools/wasnorm_wordpool.txt	LTP113	ltpFR	4	12	0	PHOTO	1055	n/a	0	0	0.5869140625	0.422607421875	lower	../fonts/amplitud.ttf
2111.242	n/a	WORD	1055621	wordpools/wasnorm_wordpool.txt	LTP113	ltpFR	4	12	0	PICTURE	1061	n/a	0	0	0.5869140625	0.422607421875	lower	../fonts/amplitud.ttf
2115.424	n/a	WORD	1057712	wordpools/wasnorm_wordpool.txt	LTP113	ltpFR	4	12	1	JUGGLER	763	n/a	1	1	0.412841796875	0.57763671875	upper	../fonts/zerothre.ttf
2119.432	n/a	WORD	1059716	wordpools/wasnorm_wordpool.txt	LTP113	ltpFR	4	12	1	CABBAGE	210	n/a	1	1	0.412841796875	0.57763671875	upper	../fonts/zerothre.ttf
2123.614	n/a	WORD	1061807	wordpools/wasnorm_wordpool.txt	LTP113	ltpFR	4	12	1	PAD	998	n/a	0	1	0.412841796875	0.57763671875	upper	../fonts/zerothre.ttf
2127.57	n/a	WORD	1063785	wordpools/wasnorm_wordpool.txt	LTP113	ltpFR	4	12	1	WARRIOR	1589	n/a	1	1	0.412841796875	0.57763671875	upper	../fonts/zerothre.ttf
2131.568	n/a	WORD	1065784	wordpools/wasnorm_wordpool.txt	LTP113	ltpFR	4	12	0	ACROBAT	4	n/a	1	0	0.5869140625	0.422607421875	lower	../fonts/amplitud.ttf
2135.776	n/a	WORD	1067888	wordpools/wasnorm_wordpool.txt	LTP113	ltpFR	4	12	0	OFFICE	972	n/a	1	0	0.5869140625	0.422607421875	lower	../fonts/amplitud.ttf
2139.866	n/a	WORD	1069933	wordpools/wasnorm_wordpool.txt	LTP113	ltpFR	4	12	0	THREAD	1460	n/a	0	0	0.5869140625	0.422607421875	lower	../fonts/amplitud.ttf
2144.066	n/a	WORD	1072033	wordpools/wasnorm_wordpool.txt	LTP113	ltpFR	4	12	0	TROUSERS	1510	n/a	1	0	0.5869140625	0.422607421875	lower	../fonts/amplitud.ttf
2148.174	n/a	WORD	1074087	wordpools/wasnorm_wordpool.txt	LTP113	ltpFR	4	12	0	VIRUS	1572	n/a	1	0	0.5869140625	0.422607421875	lower	../fonts/amplitud.ttf
2152.12	n/a	WORD	1076060	wordpools/wasnorm_wordpool.txt	LTP113	ltpFR	4	12	1	CABINET	212	n/a	0	1	0.412841796875	0.57763671875	upper	../fonts/zerothre.ttf
2156.186	n/a	WORD	1078093	wordpools/wasnorm_wordpool.txt	LTP113	ltpFR	4	12	1	DOUGHNUT	490	n/a	0	1	0.412841796875	0.57763671875	upper	../fonts/zerothre.ttf
2161.944	n/a	REC_START	1080972	n/a	LTP113	ltpFR	4	12	n/a	n/a	n/a	n/a	n/a	n/a	n/a	n/a	n/a	n/a
2162.712	n/a	REC_WORD	1081356	wordpools/wasnorm_wordpool.txt	LTP113	ltpFR	4	12	1	CABINET	212	n/a	0	n/a	n/a	n/a	n/a	n/a
2164.174	n/a	REC_WORD	1082087	wordpools/wasnorm_wordpool.txt	LTP113	ltpFR	4	12	1	DOUGHNUT	490	n/a	0	n/a	n/a	n/a	n/a	n/a
2165.386	n/a	REC_WORD	1082693	wordpools/wasnorm_wordpool.txt	LTP113	ltpFR	4	12	0	VIRUS	1572	n/a	1	n/a	n/a	n/a	n/a	n/a
2169.92	n/a	REC_WORD	1084960	wordpools/wasnorm_wordpool.txt	LTP113	ltpFR	4	12	1	BEAVER	109	n/a	1	n/a	n/a	n/a	n/a	n/a
2178.012	n/a	REC_WORD	1089006	wordpools/wasnorm_wordpool.txt	LTP113	ltpFR	4	12	0	THREAD	1460	n/a	0	n/a	n/a	n/a	n/a	n/a
2237.57	n/a	REST_REWET	1118785	n/a	LTP113	ltpFR	4	12	n/a	n/a	n/a	n/a	n/a	n/a	n/a	n/a	n/a	n/a
2650.72	n/a	WORD	1325360	wordpools/wasnorm_wordpool.txt	LTP113	ltpFR	4	13	1	BRAKE	166	n/a	0	1	0.412841796875	0.57763671875	upper	../fonts/zerothre.ttf
2654.56	n/a	WORD	1327280	wordpools/wasnorm_wordpool.txt	LTP113	ltpFR	4	13	1	TULIP	1517	n/a	1	1	0.412841796875	0.57763671875	upper	../fonts/zerothre.ttf
2658.384	n/a	WORD	1329192	wordpools/wasnorm_wordpool.txt	LTP113	ltpFR	4	13	1	GARDEN	623	n/a	1	1	0.412841796875	0.57763671875	upper	../fonts/zerothre.ttf
2662.2	n/a	WORD	1331100	wordpools/wasnorm_wordpool.txt	LTP113	ltpFR	4	13	1	SECRETARY	1265	n/a	1	1	0.412841796875	0.57763671875	upper	../fonts/zerothre.ttf
2666.124	n/a	WORD	1333062	wordpools/wasnorm_wordpool.txt	LTP113	ltpFR	4	13	1	SHEET	1279	n/a	0	1	0.412841796875	0.57763671875	upper	../fonts/zerothre.ttf
2669.972	n/a	WORD	1334986	wordpools/wasnorm_wordpool.txt	LTP113	ltpFR	4	13	1	TEACHER	1440	n/a	1	1	0.412841796875	0.57763671875	upper	../fonts/zerothre.ttf
2673.888	n/a	WORD	1336944	wordpools/wasnorm_wordpool.txt	LTP113	ltpFR	4	13	1	BEAD	103	n/a	0	1	0.412841796875	0.57763671875	upper	../fonts/zerothre.ttf
2677.76	n/a	WORD	1338880	wordpools/wasnorm_wordpool.txt	LTP113	ltpFR	4	13	1	PREDATOR	1120	n/a	1	1	0.412841796875	0.57763671875	upper	../fonts/zerothre.ttf
2681.902	n/a	WORD	1340951	wordpools/wasnorm_wordpool.txt	LTP113	ltpFR	4	13	1	GOAT	644	n/a	1	1	0.412841796875	0.57763671875	upper	../fonts/zerothre.ttf
2685.984	n/a	WORD	1342992	wordpools/wasnorm_wordpool.txt	LTP113	ltpFR	4	13	1	APPLE	33	n/a	1	1	0.412841796875	0.57763671875	upper	../fonts/zerothre.ttf
2690.15	n/a	WORD	1345075	wordpools/wasnorm_wordpool.txt	LTP113	ltpFR	4	13	1	RAISIN	1163	n/a	1	1	0.412841796875	0.57763671875	upper	../fonts/zerothre.ttf
2694.282	n/a	WORD	1347141	wordpools/wasnorm_wordpool.txt	LTP113	ltpFR	4	13	1	SUPERVISOR	1410	n/a	1	1	0.412841796875	0.57763671875	upper	../fonts/zerothre.ttf
2698.256	n/a	WORD	1349128	wordpools/wasnorm_wordpool.txt	LTP113	ltpFR	4	13	1	HEAD	695	n/a	1	1	0.412841796875	0.57763671875	upper	../fonts/zerothre.ttf
2702.172	n/a	WORD	1351086	wordpools/wasnorm_wordpool.txt	LTP113	ltpFR	4	13	1	NOTEBOOK	959	n/a	0	1	0.412841796875	0.57763671875	upper	../fonts/zerothre.ttf
2706.028	n/a	WORD	1353014	wordpools/wasnorm_wordpool.txt	LTP113	ltpFR	4	13	1	RUST	1219	n/a	0	1	0.412841796875	0.57763671875	upper	../fonts/zerothre.ttf
2710.11	n/a	WORD	1355055	wordpools/wasnorm_wordpool.txt	LTP113	ltpFR	4	13	1	OATMEAL	967	n/a	0	1	0.412841796875	0.57763671875	upper	../fonts/zerothre.ttf
2715.95	n/a	REC_START	1357975	n/a	LTP113	ltpFR	4	13	n/a	n/a	n/a	n/a	n/a	n/a	n/a	n/a	n/a	n/a
2717.136	n/a	REC_WORD	1358568	wordpools/wasnorm_wordpool.txt	LTP113	ltpFR	4	13	1	OATMEAL	967	n/a	0	n/a	n/a	n/a	n/a	n/a
2718.284	n/a	REC_WORD	1359142	wordpools/wasnorm_wordpool.txt	LTP113	ltpFR	4	13	1	RUST	1219	n/a	0	n/a	n/a	n/a	n/a	n/a
2720.36	n/a	REC_WORD	1360180	wordpools/wasnorm_wordpool.txt	LTP113	ltpFR	4	13	1	SECRETARY	1265	n/a	1	n/a	n/a	n/a	n/a	n/a
2722.346	n/a	REC_WORD	1361173	wordpools/wasnorm_wordpool.txt	LTP113	ltpFR	4	13	1	GOAT	644	n/a	1	n/a	n/a	n/a	n/a	n/a
2728.632	n/a	REC_WORD	1364316	wordpools/wasnorm_wordpool.txt	LTP113	ltpFR	4	13	1	NOTEBOOK	959	n/a	0	n/a	n/a	n/a	n/a	n/a
2732.124	n/a	REC_WORD	1366062	wordpools/wasnorm_wordpool.txt	LTP113	ltpFR	4	13	1	TULIP	1517	n/a	1	n/a	n/a	n/a	n/a	n/a
2733.132	n/a	REC_WORD	1366566	wordpools/wasnorm_wordpool.txt	LTP113	ltpFR	4	13	1	GARDEN	623	n/a	1	n/a	n/a	n/a	n/a	n/a
2740.32	n/a	REC_WORD	1370160	wordpools/wasnorm_wordpool.txt	LTP113	ltpFR	4	13	1	HEAD	695	n/a	1	n/a	n/a	n/a	n/a	n/a
2799.95	n/a	WORD	1399975	wordpools/wasnorm_wordpool.txt	LTP113	ltpFR	4	14	0	MAPLE	866	n/a	1	0	0.5869140625	0.422607421875	lower	../fonts/amplitud.ttf
2803.956	n/a	WORD	1401978	wordpools/wasnorm_wordpool.txt	LTP113	ltpFR	4	14	0	COTTAGE	384	n/a	1	0	0.5869140625	0.422607421875	lower	../fonts/amplitud.ttf
2808.054	n/a	WORD	1404027	wordpools/wasnorm_wordpool.txt	LTP113	ltpFR	4	14	0	CHIPMUNK	304	n/a	0	0	0.5869140625	0.422607421875	lower	../fonts/amplitud.ttf
2812.02	n/a	WORD	1406010	wordpools/wasnorm_wordpool.txt	LTP113	ltpFR	4	14	0	PORCUPINE	1107	n/a	1	0	0.5869140625	0.422607421875	lower	../fonts/amplitud.ttf
2816.044	n/a	WORD	1408022	wordpools/wasnorm_wordpool.txt	LTP113	ltpFR	4	14	0	FLOUR	583	n/a	0	0	0.5869140625	0.422607421875	lower	../fonts/amplitud.ttf
2820.16	n/a	WORD	1410080	wordpools/wasnorm_wordpool.txt	LTP113	ltpFR	4	14	0	FOLDER	588	n/a	0	0	0.5869140625	0.422607421875	lower	../fonts/amplitud.ttf
2824.142	n/a	WORD	1412071	wordpools/wasnorm_wordpool.txt	LTP113	ltpFR	4	14	0	CONTRACT	368	n/a	0	0	0.5869140625	0.422607421875	lower	../fonts/amplitud.ttf
2828.192	n/a	WORD	1414096	wordpools/wasnorm_wordpool.txt	LTP113	ltpFR	4	14	0	SYRINGE	1424	n/a	0	0	0.5869140625	0.422607421875	lower	../fonts/amplitud.ttf
2832.03	n/a	WORD	1416015	wordpools/wasnorm_wordpool.txt	LTP113	ltpFR	4	14	0	LEMON	810	n/a	0	0	0.5869140625	0.422607421875	lower	../fonts/amplitud.ttf
2835.856	n/a	WORD	1417928	wordpools/wasnorm_wordpool.txt	LTP113	ltpFR	4	14	0	TOMATO	1476	n/a	0	0	0.5869140625	0.422607421875	lower	../fonts/amplitud.ttf
2839.846	n/a	WORD	1419923	wordpools/wasnorm_wordpool.txt	LTP113	ltpFR	4	14	0	BEET	115	n/a	0	0	0.5869140625	0.422607421875	lower	../fonts/amplitud.ttf
2843.952	n/a	WORD	1421976	wordpools/wasnorm_wordpool.txt	LTP113	ltpFR	4	14	0	TYPEWRITER	1531	n/a	1	0	0.5869140625	0.422607421875	lower	../fonts/amplitud.ttf
2848.15	n/a	WORD	1424075	wordpools/wasnorm_wordpool.txt	LTP113	ltpFR	4	14	0	FEATHER	557	n/a	0	0	0.5869140625	0.422607421875	lower	../fonts/amplitud.ttf
2851.984	n/a	WORD	1425992	wordpools/wasnorm_wordpool.txt	LTP113	ltpFR	4	14	0	CROW	414	n/a	0	0	0.5869140625	0.422607421875	lower	../fonts/amplitud.ttf
2855.824	n/a	WORD	1427912	wordpools/wasnorm_wordpool.txt	LTP113	ltpFR	4	14	0	WHEAT	1602	n/a	0	0	0.5869140625	0.422607421875	lower	../fonts/amplitud.ttf
2859.964	n/a	WORD	1429982	wordpools/wasnorm_wordpool.txt	LTP113	ltpFR	4	14	0	PIZZA	1079	n/a	0	0	0.5869140625	0.422607421875	lower	../fonts/amplitud.ttf
2865.938	n/a	REC_START	1432969	n/a	LTP113	ltpFR	4	14	n/a	n/a	n/a	n/a	n/a	n/a	n/a	n/a	n/a	n/a
2866.544	n/a	REC_WORD	1433272	wordpools/wasnorm_wordpool.txt	LTP113	ltpFR	4	14	0	PIZZA	1079	n/a	0	n/a	n/a	n/a	n/a	n/a
2867.664	n/a	REC_WORD	1433832	wordpools/wasnorm_wordpool.txt	LTP113	ltpFR	4	14	0	WHEAT	1602	n/a	0	n/a	n/a	n/a	n/a	n/a
2868.356	n/a	REC_WORD	1434178	wordpools/wasnorm_wordpool.txt	LTP113	ltpFR	4	14	0	FLOUR	583	n/a	0	n/a	n/a	n/a	n/a	n/a
2869.57	n/a	REC_WORD	1434785	wordpools/wasnorm_wordpool.txt	LTP113	ltpFR	4	14	0	CROW	414	n/a	0	n/a	n/a	n/a	n/a	n/a
2870.652	n/a	REC_WORD	1435326	wordpools/wasnorm_wordpool.txt	LTP113	ltpFR	4	14	0	FEATHER	557	n/a	0	n/a	n/a	n/a	n/a	n/a
2876.31	n/a	REC_WORD	1438155	wordpools/wasnorm_wordpool.txt	LTP113	ltpFR	4	14	0	SYRINGE	1424	n/a	0	n/a	n/a	n/a	n/a	n/a
2880.85	n/a	REC_WORD	1440425	wordpools/wasnorm_wordpool.txt	LTP113	ltpFR	4	14	0	PORCUPINE	1107	n/a	1	n/a	n/a	n/a	n/a	n/a
2887.504	n/a	REC_WORD	1443752	wordpools/wasnorm_wordpool.txt	LTP113	ltpFR	4	14	0	TYPEWRITER	1531	n/a	1	n/a	n/a	n/a	n/a	n/a
2895.782	n/a	REC_WORD	1447891	wordpools/wasnorm_wordpool.txt	LTP113	ltpFR	4	14	0	TYPEWRITER	1531	n/a	1	n/a	n/a	n/a	n/a	n/a
2898.366	n/a	REC_WORD	1449183	wordpools/wasnorm_wordpool.txt	LTP113	ltpFR	4	14	0	MAPLE	866	n/a	1	n/a	n/a	n/a	n/a	n/a
2910.304	n/a	REC_WORD	1455152	wordpools/wasnorm_wordpool.txt	LTP113	ltpFR	4	14	0	WHEAT	1602	n/a	0	n/a	n/a	n/a	n/a	n/a
2918.45	n/a	REC_WORD	1459225	wordpools/wasnorm_wordpool.txt	LTP113	ltpFR	4	14	0	COTTAGE	384	n/a	1	n/a	n/a	n/a	n/a	n/a
2921.056	n/a	REC_WORD	1460528	wordpools/wasnorm_wordpool.txt	LTP113	ltpFR	4	14	0	BEET	115	n/a	0	n/a	n/a	n/a	n/a	n/a
2921.858	n/a	REC_WORD	1460929	wordpools/wasnorm_wordpool.txt	LTP113	ltpFR	4	14	0	LEMON	810	n/a	0	n/a	n/a	n/a	n/a	n/a
2922.642	n/a	REC_WORD	1461321	wordpools/wasnorm_wordpool.txt	LTP113	ltpFR	4	14	0	TOMATO	1476	n/a	0	n/a	n/a	n/a	n/a	n/a
2971.216	n/a	WORD	1485608	wordpools/wasnorm_wordpool.txt	LTP113	ltpFR	4	15	1	NEPTUNE	943	n/a	0	1	0.412841796875	0.57763671875	upper	../fonts/zerothre.ttf
2975.206	n/a	WORD	1487603	wordpools/wasnorm_wordpool.txt	LTP113	ltpFR	4	15	1	VICTIM	1562	n/a	1	1	0.412841796875	0.57763671875	upper	../fonts/zerothre.ttf
2979.312	n/a	WORD	1489656	wordpools/wasnorm_wordpool.txt	LTP113	ltpFR	4	15	1	CRIMINAL	409	n/a	1	1	0.412841796875	0.57763671875	upper	../fonts/zerothre.ttf
2983.194	n/a	WORD	1491597	wordpools/wasnorm_wordpool.txt	LTP113	ltpFR	4	15	1	HAMBURGER	679	n/a	0	1	0.412841796875	0.57763671875	upper	../fonts/zerothre.ttf
2987.326	n/a	WORD	1493663	wordpools/wasnorm_wordpool.txt	LTP113	ltpFR	4	15	1	HAWK	692	n/a	1	1	0.412841796875	0.57763671875	upper	../fonts/zerothre.ttf
2991.45	n/a	WORD	1495725	wordpools/wasnorm_wordpool.txt	LTP113	ltpFR	4	15	1	CARDINAL	244	n/a	1	1	0.412841796875	0.57763671875	upper	../fonts/zerothre.ttf
2995.614	n/a	WORD	1497807	wordpools/wasnorm_wordpool.txt	LTP113	ltpFR	4	15	1	FARM	552	n/a	0	1	0.412841796875	0.57763671875	upper	../fonts/zerothre.ttf
2999.68	n/a	WORD	1499840	wordpools/wasnorm_wordpool.txt	LTP113	ltpFR	4	15	1	CLAW	319	n/a	0	1	0.412841796875	0.57763671875	upper	../fonts/zerothre.ttf
3003.812	n/a	WORD	1501906	wordpools/wasnorm_wordpool.txt	LTP113	ltpFR	4	15	1	HOME	712	n/a	0	1	0.412841796875	0.57763671875	upper	../fonts/zerothre.ttf
3007.954	n/a	WORD	1503977	wordpools/wasnorm_wordpool.txt	LTP113	ltpFR	4	15	1	GROCERY	664	n/a	0	1	0.412841796875	0.57763671875	upper	../fonts/zerothre.ttf
3011.802	n/a	WORD	1505901	wordpools/wasnorm_wordpool.txt	LTP113	ltpFR	4	15	1	CURB	426	n/a	0	1	0.412841796875	0.57763671875	upper	../fonts/zerothre.ttf
3015.8	n/a	WORD	1507900	wordpools/wasnorm_wordpool.txt	LTP113	ltpFR	4	15	1	PLANET	1082	n/a	0	1	0.412841796875	0.57763671875	upper	../fonts/zerothre.ttf
3019.858	n/a	WORD	1509929	wordpools/wasnorm_wordpool.txt	LTP113	ltpFR	4	15	1	PORCH	1106	n/a	0	1	0.412841796875	0.57763671875	upper	../fonts/zerothre.ttf
3024.038	n/a	WORD	1512019	wordpools/wasnorm_wordpool.txt	LTP113	ltpFR	4	15	1	CAR	241	n/a	0	1	0.412841796875	0.57763671875	upper	../fonts/zerothre.ttf
3027.88	n/a	WORD	1513940	wordpools/wasnorm_wordpool.txt	LTP113	ltpFR	4	15	1	ASTRONAUT	51	n/a	0	1	0.412841796875	0.57763671875	upper	../fonts/zerothre.ttf
3031.778	n/a	WORD	1515889	wordpools/wasnorm_wordpool.txt	LTP113	ltpFR	4	15	1	LASER	801	n/a	0	1	0.412841796875	0.57763671875	upper	../fonts/zerothre.ttf
3037.702	n/a	REC_START	1518851	n/a	LTP113	ltpFR	4	15	n/a	n/a	n/a	n/a	n/a	n/a	n/a	n/a	n/a	n/a
3038.406	n/a	REC_WORD	1519203	wordpools/wasnorm_wordpool.txt	LTP113	ltpFR	4	15	1	LASER	801	n/a	0	n/a	n/a	n/a	n/a	n/a
3039.862	n/a	REC_WORD	1519931	wordpools/wasnorm_wordpool.txt	LTP113	ltpFR	4	15	1	ASTRONAUT	51	n/a	0	n/a	n/a	n/a	n/a	n/a
3041.15	n/a	REC_WORD	1520575	wordpools/wasnorm_wordpool.txt	LTP113	ltpFR	4	15	1	PORCH	1106	n/a	0	n/a	n/a	n/a	n/a	n/a
3042.246	n/a	REC_WORD	1521123	wordpools/wasnorm_wordpool.txt	LTP113	ltpFR	4	15	1	CAR	241	n/a	0	n/a	n/a	n/a	n/a	n/a
3043.3	n/a	REC_WORD	1521650	wordpools/wasnorm_wordpool.txt	LTP113	ltpFR	4	15	1	HOME	712	n/a	0	n/a	n/a	n/a	n/a	n/a
3044.392	n/a	REC_WORD	1522196	wordpools/wasnorm_wordpool.txt	LTP113	ltpFR	4	15	1	PLANET	1082	n/a	0	n/a	n/a	n/a	n/a	n/a
3045.44	n/a	REC_WORD	1522720	wordpools/wasnorm_wordpool.txt	LTP113	ltpFR	4	15	1	NEPTUNE	943	n/a	0	n/a	n/a	n/a	n/a	n/a
3065.58	n/a	REC_WORD	1532790	wordpools/wasnorm_wordpool.txt	LTP113	ltpFR	4	15	1	CURB	426	n/a	0	n/a	n/a	n/a	n/a	n/a
3070.908	n/a	REC_WORD	1535454	wordpools/wasnorm_wordpool.txt	LTP113	ltpFR	4	15	1	HAMBURGER	679	n/a	0	n/a	n/a	n/a	n/a	n/a
3151.876	n/a	WORD	1575938	wordpools/wasnorm_wordpool.txt	LTP113	ltpFR	4	16	0	METEOR	889	n/a	1	0	0.5869140625	0.422607421875	lower	../fonts/amplitud.ttf
3155.832	n/a	WORD	1577916	wordpools/wasnorm_wordpool.txt	LTP113	ltpFR	4	16	0	WELL	1600	n/a	1	0	0.5869140625	0.422607421875	lower	../fonts/amplitud.ttf
3159.948	n/a	WORD	1579974	wordpools/wasnorm_wordpool.txt	LTP113	ltpFR	4	16	0	TURKEY	1520	n/a	n/a	0	0.5869140625	0.422607421875	lower	../fonts/amplitud.ttf
3162.972	n/a	SLOW_MSG	1581486	n/a	LTP113	ltpFR	4	16	n/a	n/a	n/a	n/a	n/a	n/a	n/a	n/a	n/a	n/a
3165.48	n/a	WORD	1582740	wordpools/wasnorm_wordpool.txt	LTP113	ltpFR	4	16	0	GULL	671	n/a	1	0	0.5869140625	0.422607421875	lower	../fonts/amplitud.ttf
3169.612	n/a	WORD	1584806	wordpools/wasnorm_wordpool.txt	LTP113	ltpFR	4	16	0	VALLEY	1545	n/a	1	0	0.5869140625	0.422607421875	lower	../fonts/amplitud.ttf
3173.794	n/a	WORD	1586897	wordpools/wasnorm_wordpool.txt	LTP113	ltpFR	4	16	0	HEEL	700	n/a	0	0	0.5869140625	0.422607421875	lower	../fonts/amplitud.ttf
3177.8	n/a	WORD	1588900	wordpools/wasnorm_wordpool.txt	LTP113	ltpFR	4	16	0	LAKE	796	n/a	1	0	0.5869140625	0.422607421875	lower	../fonts/amplitud.ttf
3181.692	n/a	WORD	1590846	wordpools/wasnorm_wordpool.txt	LTP113	ltpFR	4	16	0	SWAMP	1416	n/a	1	0	0.5869140625	0.422607421875	lower	../fonts/amplitud.ttf
3185.774	n/a	WORD	1592887	wordpools/wasnorm_wordpool.txt	LTP113	ltpFR	4	16	0	WICK	1607	n/a	0	0	0.5869140625	0.422607421875	lower	../fonts/amplitud.ttf
3189.598	n/a	WORD	1594799	wordpools/wasnorm_wordpool.txt	LTP113	ltpFR	4	16	0	SHOE	1288	n/a	0	0	0.5869140625	0.422607421875	lower	../fonts/amplitud.ttf
3193.73	n/a	WORD	1596865	wordpools/wasnorm_wordpool.txt	LTP113	ltpFR	4	16	0	WALLET	1583	n/a	0	0	0.5869140625	0.422607421875	lower	../fonts/amplitud.ttf
3197.596	n/a	WORD	1598798	wordpools/wasnorm_wordpool.txt	LTP113	ltpFR	4	16	0	ENCYCLOPEDIA	533	n/a	0	0	0.5869140625	0.422607421875	lower	../fonts/amplitud.ttf
3201.736	n/a	WORD	1600868	wordpools/wasnorm_wordpool.txt	LTP113	ltpFR	4	16	0	ELM	527	n/a	0	0	0.5869140625	0.422607421875	lower	../fonts/amplitud.ttf
3205.552	n/a	WORD	1602776	wordpools/wasnorm_wordpool.txt	LTP113	ltpFR	4	16	0	BRANCH	168	n/a	0	0	0.5869140625	0.422607421875	lower	../fonts/amplitud.ttf
3209.46	n/a	WORD	1604730	wordpools/wasnorm_wordpool.txt	LTP113	ltpFR	4	16	0	RADIATOR	1156	n/a	0	0	0.5869140625	0.422607421875	lower	../fonts/amplitud.ttf
3213.416	n/a	WORD	1606708	wordpools/wasnorm_wordpool.txt	LTP113	ltpFR	4	16	0	SNORKEL	1336	n/a	0	0	0.5869140625	0.422607421875	lower	../fonts/amplitud.ttf
3219.14	n/a	REC_START	1609570	n/a	LTP113	ltpFR	4	16	n/a	n/a	n/a	n/a	n/a	n/a	n/a	n/a	n/a	n/a
3219.732	n/a	REC_WORD	1609866	wordpools/wasnorm_wordpool.txt	LTP113	ltpFR	4	16	0	SNORKEL	1336	n/a	0	n/a	n/a	n/a	n/a	n/a
3221.214	n/a	REC_WORD	1610607	wordpools/wasnorm_wordpool.txt	LTP113	ltpFR	4	16	0	RADIATOR	1156	n/a	0	n/a	n/a	n/a	n/a	n/a
3222.332	n/a	REC_WORD	1611166	wordpools/wasnorm_wordpool.txt	LTP113	ltpFR	4	16	0	ENCYCLOPEDIA	533	n/a	0	n/a	n/a	n/a	n/a	n/a
3227.122	n/a	REC_WORD	1613561	wordpools/wasnorm_wordpool.txt	LTP113	ltpFR	4	16	0	METEOR	889	n/a	1	n/a	n/a	n/a	n/a	n/a
3239.094	n/a	REC_WORD	1619547	wordpools/wasnorm_wordpool.txt	LTP113	ltpFR	4	16	0	ELM	527	n/a	0	n/a	n/a	n/a	n/a	n/a
3252.404	n/a	REC_WORD	1626202	wordpools/wasnorm_wordpool.txt	LTP113	ltpFR	4	16	0	WICK	1607	n/a	0	n/a	n/a	n/a	n/a	n/a
3330.322	n/a	REC_START	1665161	n/a	LTP113	ltpFR	4	n/a	n/a	n/a	n/a	n/a	n/a	n/a	n/a	n/a	n/a	n/a
3331.324	n/a	FFR_REC_WORD	1665662	wordpools/wasnorm_wordpool.txt	LTP113	ltpFR	4	n/a	n/a	GO	-1	n/a	n/a	n/a	n/a	n/a	n/a	n/a
3332.428	n/a	FFR_REC_WORD	1666214	wordpools/wasnorm_wordpool.txt	LTP113	ltpFR	4	n/a	1	SEAGULL	1261	n/a	1	n/a	n/a	n/a	n/a	n/a
3334.24	n/a	FFR_REC_WORD	1667120	wordpools/wasnorm_wordpool.txt	LTP113	ltpFR	4	n/a	0	WICK	1607	n/a	0	n/a	n/a	n/a	n/a	n/a
3335.732	n/a	FFR_REC_WORD	1667866	wordpools/wasnorm_wordpool.txt	LTP113	ltpFR	4	n/a	1	CARDINAL	244	n/a	1	n/a	n/a	n/a	n/a	n/a
3337.826	n/a	FFR_REC_WORD	1668913	wordpools/wasnorm_wordpool.txt	LTP113	ltpFR	4	n/a	1	HAWK	692	n/a	1	n/a	n/a	n/a	n/a	n/a
3339.134	n/a	FFR_REC_WORD	1669567	wordpools/wasnorm_wordpool.txt	LTP113	ltpFR	4	n/a	0	CROW	414	n/a	0	n/a	n/a	n/a	n/a	n/a
3340.326	n/a	FFR_REC_WORD	1670163	wordpools/wasnorm_wordpool.txt	LTP113	ltpFR	4	n/a	0	FEATHER	557	n/a	0	n/a	n/a	n/a	n/a	n/a
3341.642	n/a	FFR_REC_WORD	1670821	wordpools/wasnorm_wordpool.txt	LTP113	ltpFR	4	n/a	0	TOMATO	1476	n/a	0	n/a	n/a	n/a	n/a	n/a
3342.894	n/a	FFR_REC_WORD	1671447	wordpools/wasnorm_wordpool.txt	LTP113	ltpFR	4	n/a	0	LEMON	810	n/a	0	n/a	n/a	n/a	n/a	n/a
3345.014	n/a	FFR_REC_WORD	1672507	wordpools/wasnorm_wordpool.txt	LTP113	ltpFR	4	n/a	0	BEET	115	n/a	0	n/a	n/a	n/a	n/a	n/a
3347.23	n/a	FFR_REC_WORD	1673615	wordpools/wasnorm_wordpool.txt	LTP113	ltpFR	4	n/a	0	VET	1560	n/a	1	n/a	n/a	n/a	n/a	n/a
3349.246	n/a	FFR_REC_WORD	1674623	wordpools/wasnorm_wordpool.txt	LTP113	ltpFR	4	n/a	0	ELECTRICIAN	521	n/a	1	n/a	n/a	n/a	n/a	n/a
3354.13	n/a	FFR_REC_WORD	1677065	wordpools/wasnorm_wordpool.txt	LTP113	ltpFR	4	n/a	0	PORCUPINE	1107	n/a	1	n/a	n/a	n/a	n/a	n/a
3356.296	n/a	FFR_REC_WORD	1678148	wordpools/wasnorm_wordpool.txt	LTP113	ltpFR	4	n/a	-1	DONKEY	484	n/a	-1	n/a	n/a	n/a	n/a	n/a
3365.948	n/a	FFR_REC_WORD	1682974	wordpools/wasnorm_wordpool.txt	LTP113	ltpFR	4	n/a	0	TYPEWRITER	1531	n/a	1	n/a	n/a	n/a	n/a	n/a
3370.056	n/a	FFR_REC_WORD	1685028	wordpools/wasnorm_wordpool.txt	LTP113	ltpFR	4	n/a	1	CHEEK	287	n/a	0	n/a	n/a	n/a	n/a	n/a
3371.308	n/a	FFR_REC_WORD	1685654	wordpools/wasnorm_wordpool.txt	LTP113	ltpFR	4	n/a	1	ASTRONAUT	51	n/a	0	n/a	n/a	n/a	n/a	n/a
3372.54	n/a	FFR_REC_WORD	1686270	wordpools/wasnorm_wordpool.txt	LTP113	ltpFR	4	n/a	1	PLANET	1082	n/a	0	n/a	n/a	n/a	n/a	n/a
3373.568	n/a	FFR_REC_WORD	1686784	wordpools/wasnorm_wordpool.txt	LTP113	ltpFR	4	n/a	1	NEPTUNE	943	n/a	0	n/a	n/a	n/a	n/a	n/a
3375.214	n/a	FFR_REC_WORD	1687607	wordpools/wasnorm_wordpool.txt	LTP113	ltpFR	4	n/a	0	METEOR	889	n/a	1	n/a	n/a	n/a	n/a	n/a
3379.338	n/a	FFR_REC_WORD	1689669	wordpools/wasnorm_wordpool.txt	LTP113	ltpFR	4	n/a	1	HEAD	695	n/a	1	n/a	n/a	n/a	n/a	n/a
3382.696	n/a	FFR_REC_WORD	1691348	wordpools/wasnorm_wordpool.txt	LTP113	ltpFR	4	n/a	0	WEED	1599	n/a	1	n/a	n/a	n/a	n/a	n/a
3383.594	n/a	FFR_REC_WORD	1691797	wordpools/wasnorm_wordpool.txt	LTP113	ltpFR	4	n/a	-1	HOE	711	n/a	-1	n/a	n/a	n/a	n/a	n/a
3384.538	n/a	FFR_REC_WORD	1692269	wordpools/wasnorm_wordpool.txt	LTP113	ltpFR	4	n/a	1	GARDEN	623	n/a	1	n/a	n/a	n/a	n/a	n/a
3385.48	n/a	FFR_REC_WORD	1692740	wordpools/wasnorm_wordpool.txt	LTP113	ltpFR	4	n/a	n/a	LILY	821	n/a	n/a	n/a	n/a	n/a	n/a	n/a
3393.114	n/a	FFR_REC_WORD	1696557	wordpools/wasnorm_wordpool.txt	LTP113	ltpFR	4	n/a	1	APPLE	33	n/a	1	n/a	n/a	n/a	n/a	n/a
3395.762	n/a	FFR_REC_WORD	1697881	wordpools/wasnorm_wordpool.txt	LTP113	ltpFR	4	n/a	1	DANCER	437	n/a	0	n/a	n/a	n/a	n/a	n/a
3400.352	n/a	FFR_REC_WORD	1700176	wordpools/wasnorm_wordpool.txt	LTP113	ltpFR	4	n/a	0	CHIPMUNK	304	n/a	0	n/a	n/a	n/a	n/a	n/a
3422.184	n/a	FFR_REC_WORD	1711092	wordpools/wasnorm_wordpool.txt	LTP113	ltpFR	4	n/a	0	PATH	1023	n/a	1	n/a	n/a	n/a	n/a	n/a
3423.32	n/a	FFR_REC_WORD	1711660	wordpools/wasnorm_wordpool.txt	LTP113	ltpFR	4	n/a	0	HIGHWAY	707	n/a	1	n/a	n/a	n/a	n/a	n/a
3427.642	n/a	FFR_REC_WORD	1713821	wordpools/wasnorm_wordpool.txt	LTP113	ltpFR	4	n/a	0	COTTAGE	384	n/a	1	n/a	n/a	n/a	n/a	n/a
3428.78	n/a	FFR_REC_WORD	1714390	wordpools/wasnorm_wordpool.txt	LTP113	ltpFR	4	n/a	1	PORCH	1106	n/a	0	n/a	n/a	n/a	n/a	n/a
3431.318	n/a	FFR_REC_WORD	1715659	wordpools/wasnorm_wordpool.txt	LTP113	ltpFR	4	n/a	1	CAR	241	n/a	0	n/a	n/a	n/a	n/a	n/a
3435.474	n/a	FFR_REC_WORD	1717737	wordpools/wasnorm_wordpool.txt	LTP113	ltpFR	4	n/a	1	HOME	712	n/a	0	n/a	n/a	n/a	n/a	n/a
3439.772	n/a	FFR_REC_WORD	1719886	wordpools/wasnorm_wordpool.txt	LTP113	ltpFR	4	n/a	0	ENCYCLOPEDIA	533	n/a	0	n/a	n/a	n/a	n/a	n/a
3443.796	n/a	FFR_REC_WORD	1721898	wordpools/wasnorm_wordpool.txt	LTP113	ltpFR	4	n/a	1	LAPEL	800	n/a	0	n/a	n/a	n/a	n/a	n/a
3449.708	n/a	FFR_REC_WORD	1724854	wordpools/wasnorm_wordpool.txt	LTP113	ltpFR	4	n/a	0	SOCKET	1340	n/a	0	n/a	n/a	n/a	n/a	n/a
3461.976	n/a	FFR_REC_WORD	1730988	wordpools/wasnorm_wordpool.txt	LTP113	ltpFR	4	n/a	0	MAPLE	866	n/a	1	n/a	n/a	n/a	n/a	n/a
3462.942	n/a	FFR_REC_WORD	1731471	wordpools/wasnorm_wordpool.txt	LTP113	ltpFR	4	n/a	0	ELM	527	n/a	0	n/a	n/a	n/a	n/a	n/a
3492.936	n/a	FFR_REC_WORD	1746468	wordpools/wasnorm_wordpool.txt	LTP113	ltpFR	4	n/a	-1	PEARL	1034	n/a	-1	n/a	n/a	n/a	n/a	n/a
3494.554	n/a	FFR_REC_WORD	1747277	wordpools/wasnorm_wordpool.txt	LTP113	ltpFR	4	n/a	-1	EMERALD	528	n/a	-1	n/a	n/a	n/a	n/a	n/a
3525.096	n/a	FFR_REC_WORD	1762548	wordpools/wasnorm_wordpool.txt	LTP113	ltpFR	4	n/a	1	REGISTER	1180	n/a	2	n/a	n/a	n/a	n/a	n/a
3526.438	n/a	FFR_REC_WORD	1763219	wordpools/wasnorm_wordpool.txt	LTP113	ltpFR	4	n/a	-1	CASHIER	254	n/a	-1	n/a	n/a	n/a	n/a	n/a
3527.544	n/a	FFR_REC_WORD	1763772	wordpools/wasnorm_wordpool.txt	LTP113	ltpFR	4	n/a	-1	QUARTER	1148	n/a	-1	n/a	n/a	n/a	n/a	n/a
3531.84	n/a	FFR_REC_WORD	1765920	wordpools/wasnorm_wordpool.txt	LTP113	ltpFR	4	n/a	n/a	SHIRT	1287	n/a	n/a	n/a	n/a	n/a	n/a	n/a
3567.028	n/a	FFR_REC_WORD	1783514	wordpools/wasnorm_wordpool.txt	LTP113	ltpFR	4	n/a	1	CUSTARD	429	n/a	0	n/a	n/a	n/a	n/a	n/a
3567.576	n/a	FFR_REC_WORD	1783788	wordpools/wasnorm_wordpool.txt	LTP113	ltpFR	4	n/a	1	MUSTARD	935	n/a	1	n/a	n/a	n/a	n/a	n/a
3568.884	n/a	FFR_REC_WORD	1784442	wordpools/wasnorm_wordpool.txt	LTP113	ltpFR	4	n/a	n/a	PUDDING	1139	n/a	n/a	n/a	n/a	n/a	n/a	n/a
3576.146	n/a	FFR_REC_WORD	1788073	wordpools/wasnorm_wordpool.txt	LTP113	ltpFR	4	n/a	0	WHEAT	1602	n/a	0	n/a	n/a	n/a	n/a	n/a
3583.322	n/a	FFR_REC_WORD	1791661	wordpools/wasnorm_wordpool.txt	LTP113	ltpFR	4	n/a	0	PIZZA	1079	n/a	0	n/a	n/a	n/a	n/a	n/a
3589.912	n/a	FFR_REC_WORD	1794956	wordpools/wasnorm_wordpool.txt	LTP113	ltpFR	4	n/a	0	DIVER	476	n/a	1	n/a	n/a	n/a	n/a	n/a
3590.454	n/a	FFR_REC_WORD	1795227	wordpools/wasnorm_wordpool.txt	LTP113	ltpFR	4	n/a	n/a	SWIMMING	-1	n/a	n/a	n/a	n/a	n/a	n/a	n/a
3599.99	n/a	FFR_REC_WORD	1799995	wordpools/wasnorm_wordpool.txt	LTP113	ltpFR	4	n/a	n/a	COLT	349	n/a	n/a	n/a	n/a	n/a	n/a	n/a
3668.852	n/a	REC_START	1834426	n/a	LTP113	ltpFR	4	1	n/a	n/a	n/a	n/a	n/a	n/a	n/a	n/a	n/a	n/a
3668.894	n/a	RECOG_LURE	1834447	n/a	LTP113	ltpFR	4	1	n/a	ASSISTANT	48	3	n/a	n/a	n/a	n/a	n/a	n/a
3670.648	n/a	RECOG_RESP	1835324	n/a	LTP113	ltpFR	4	1	n/a	ASSISTANT	48	n/a	n/a	n/a	n/a	n/a	n/a	n/a
3672.858	n/a	RECOG_CONF	1836429	n/a	LTP113	ltpFR	4	1	n/a	ASSISTANT	48	3	n/a	n/a	n/a	n/a	n/a	n/a
3674.56	n/a	RECOG_TARGET	1837280	n/a	LTP113	ltpFR	4	1	0	WEED	1599	5	1	n/a	n/a	n/a	n/a	n/a
3675.532	n/a	RECOG_RESP	1837766	n/a	LTP113	ltpFR	4	1	0	WEED	1599	n/a	1	n/a	n/a	n/a	n/a	n/a
3677.15	n/a	RECOG_CONF	1838575	n/a	LTP113	ltpFR	4	1	0	WEED	1599	5	1	n/a	n/a	n/a	n/a	n/a
3678.632	n/a	RECOG_LURE	1839316	n/a	LTP113	ltpFR	4	1	n/a	INTESTINE	742	5	n/a	n/a	n/a	n/a	n/a	n/a
3679.838	n/a	RECOG_RESP	1839919	n/a	LTP113	ltpFR	4	1	n/a	INTESTINE	742	n/a	n/a	n/a	n/a	n/a	n/a	n/a
3680.97	n/a	RECOG_CONF	1840485	n/a	LTP113	ltpFR	4	1	n/a	INTESTINE	742	5	n/a	n/a	n/a	n/a	n/a	n/a
3682.49	n/a	RECOG_TARGET	1841245	n/a	LTP113	ltpFR	4	1	1	QUILT	1151	5	0	n/a	n/a	n/a	n/a	n/a
3683.41	n/a	RECOG_RESP	1841705	n/a	LTP113	ltpFR	4	1	1	QUILT	1151	n/a	0	n/a	n/a	n/a	n/a	n/a
3684.582	n/a	RECOG_CONF	1842291	n/a	LTP113	ltpFR	4	1	1	QUILT	1151	5	0	n/a	n/a	n/a	n/a	n/a
3686.056	n/a	RECOG_TARGET	1843028	n/a	LTP113	ltpFR	4	1	1	CROCODILE	411	1	1	n/a	n/a	n/a	n/a	n/a
3689.586	n/a	RECOG_RESP	1844793	n/a	LTP113	ltpFR	4	1	1	CROCODILE	411	n/a	1	n/a	n/a	n/a	n/a	n/a
3691.088	n/a	RECOG_CONF	1845544	n/a	LTP113	ltpFR	4	1	1	CROCODILE	411	1	1	n/a	n/a	n/a	n/a	n/a
3692.528	n/a	RECOG_LURE	1846264	n/a	LTP113	ltpFR	4	1	n/a	PROTRACTOR	1133	3	n/a	n/a	n/a	n/a	n/a	n/a
3694.032	n/a	RECOG_RESP	1847016	n/a	LTP113	ltpFR	4	1	n/a	PROTRACTOR	1133	n/a	n/a	n/a	n/a	n/a	n/a	n/a
3695.188	n/a	RECOG_CONF	1847594	n/a	LTP113	ltpFR	4	1	n/a	PROTRACTOR	1133	3	n/a	n/a	n/a	n/a	n/a	n/a
3696.478	n/a	RECOG_LURE	1848239	n/a	LTP113	ltpFR	4	1	n/a	SERVANT	1271	1	n/a	n/a	n/a	n/a	n/a	n/a
3698.108	n/a	RECOG_RESP	1849054	n/a	LTP113	ltpFR	4	1	n/a	SERVANT	1271	n/a	n/a	n/a	n/a	n/a	n/a	n/a
3699.06	n/a	RECOG_CONF	1849530	n/a	LTP113	ltpFR	4	1	n/a	SERVANT	1271	1	n/a	n/a	n/a	n/a	n/a	n/a
3700.428	n/a	RECOG_TARGET	1850214	n/a	LTP113	ltpFR	4	1	-1	GRASSHOPPER	656	5	-1	n/a	n/a	n/a	n/a	n/a
3701.306	n/a	RECOG_RESP	1850653	n/a	LTP113	ltpFR	4	1	-1	GRASSHOPPER	656	n/a	-1	n/a	n/a	n/a	n/a	n/a
3702.294	n/a	RECOG_CONF	1851147	n/a	LTP113	ltpFR	4	1	-1	GRASSHOPPER	656	5	-1	n/a	n/a	n/a	n/a	n/a
3703.568	n/a	RECOG_TARGET	1851784	n/a	LTP113	ltpFR	4	1	1	DANCER	437	5	0	n/a	n/a	n/a	n/a	n/a
3704.308	n/a	RECOG_RESP	1852154	n/a	LTP113	ltpFR	4	1	1	DANCER	437	n/a	0	n/a	n/a	n/a	n/a	n/a
3705.316	n/a	RECOG_CONF	1852658	n/a	LTP113	ltpFR	4	1	1	DANCER	437	5	0	n/a	n/a	n/a	n/a	n/a
3706.45	n/a	RECOG_TARGET	1853225	n/a	LTP113	ltpFR	4	1	1	APPLE	33	4	1	n/a	n/a	n/a	n/a	n/a
3707.26	n/a	RECOG_RESP	1853630	n/a	LTP113	ltpFR	4	1	1	APPLE	33	n/a	1	n/a	n/a	n/a	n/a	n/a
3708.21	n/a	RECOG_CONF	1854105	n/a	LTP113	ltpFR	4	1	1	APPLE	33	4	1	n/a	n/a	n/a	n/a	n/a
3709.458	n/a	RECOG_TARGET	1854729	n/a	LTP113	ltpFR	4	1	-1	UMPIRE	1535	5	-1	n/a	n/a	n/a	n/a	n/a
3710.2	n/a	RECOG_RESP	1855100	n/a	LTP113	ltpFR	4	1	-1	UMPIRE	1535	n/a	-1	n/a	n/a	n/a	n/a	n/a
3711.074	n/a	RECOG_CONF	1855537	n/a	LTP113	ltpFR	4	1	-1	UMPIRE	1535	5	-1	n/a	n/a	n/a	n/a	n/a
3712.282	n/a	RECOG_TARGET	1856141	n/a	LTP113	ltpFR	4	1	1	PUBLICATION	1136	5	0	n/a	n/a	n/a	n/a	n/a
3713.388	n/a	RECOG_RESP	1856694	n/a	LTP113	ltpFR	4	1	1	PUBLICATION	1136	n/a	0	n/a	n/a	n/a	n/a	n/a
3714.426	n/a	RECOG_CONF	1857213	n/a	LTP113	ltpFR	4	1	1	PUBLICATION	1136	5	0	n/a	n/a	n/a	n/a	n/a
3715.896	n/a	RECOG_LURE	1857948	n/a	LTP113	ltpFR	4	1	n/a	CONVENT	370	1	n/a	n/a	n/a	n/a	n/a	n/a
3717.754	n/a	RECOG_RESP	1858877	n/a	LTP113	ltpFR	4	1	n/a	CONVENT	370	n/a	n/a	n/a	n/a	n/a	n/a	n/a
3718.876	n/a	RECOG_CONF	1859438	n/a	LTP113	ltpFR	4	1	n/a	CONVENT	370	1	n/a	n/a	n/a	n/a	n/a	n/a
3720.538	n/a	RECOG_LURE	1860269	n/a	LTP113	ltpFR	4	1	n/a	CROSS	413	2	n/a	n/a	n/a	n/a	n/a	n/a
3721.63	n/a	RECOG_RESP	1860815	n/a	LTP113	ltpFR	4	1	n/a	CROSS	413	n/a	n/a	n/a	n/a	n/a	n/a	n/a
3722.918	n/a	RECOG_CONF	1861459	n/a	LTP113	ltpFR	4	1	n/a	CROSS	413	2	n/a	n/a	n/a	n/a	n/a	n/a
3724.176	n/a	RECOG_TARGET	1862088	n/a	LTP113	ltpFR	4	1	1	GOAT	644	4	1	n/a	n/a	n/a	n/a	n/a
3725.672	n/a	RECOG_RESP	1862836	n/a	LTP113	ltpFR	4	1	1	GOAT	644	n/a	1	n/a	n/a	n/a	n/a	n/a
3727.646	n/a	RECOG_CONF	1863823	n/a	LTP113	ltpFR	4	1	1	GOAT	644	4	1	n/a	n/a	n/a	n/a	n/a
3729.31	n/a	RECOG_TARGET	1864655	n/a	LTP113	ltpFR	4	1	0	METEOR	889	5	1	n/a	n/a	n/a	n/a	n/a
3730.19	n/a	RECOG_RESP	1865095	n/a	LTP113	ltpFR	4	1	0	METEOR	889	n/a	1	n/a	n/a	n/a	n/a	n/a
3731.238	n/a	RECOG_CONF	1865619	n/a	LTP113	ltpFR	4	1	0	METEOR	889	5	1	n/a	n/a	n/a	n/a	n/a
3732.526	n/a	RECOG_TARGET	1866263	n/a	LTP113	ltpFR	4	1	0	SUGAR	1401	3	1	n/a	n/a	n/a	n/a	n/a
3733.672	n/a	RECOG_RESP	1866836	n/a	LTP113	ltpFR	4	1	0	SUGAR	1401	n/a	1	n/a	n/a	n/a	n/a	n/a
3734.952	n/a	RECOG_CONF	1867476	n/a	LTP113	ltpFR	4	1	0	SUGAR	1401	3	1	n/a	n/a	n/a	n/a	n/a
3736.442	n/a	RECOG_TARGET	1868221	n/a	LTP113	ltpFR	4	1	0	VET	1560	5	1	n/a	n/a	n/a	n/a	n/a
3737.086	n/a	RECOG_RESP	1868543	n/a	LTP113	ltpFR	4	1	0	VET	1560	n/a	1	n/a	n/a	n/a	n/a	n/a
3738.014	n/a	RECOG_CONF	1869007	n/a	LTP113	ltpFR	4	1	0	VET	1560	5	1	n/a	n/a	n/a	n/a	n/a
3739.556	n/a	RECOG_LURE	1869778	n/a	LTP113	ltpFR	4	1	n/a	ARTIST	43	2	n/a	n/a	n/a	n/a	n/a	n/a
3741.536	n/a	RECOG_RESP	1870768	n/a	LTP113	ltpFR	4	1	n/a	ARTIST	43	n/a	n/a	n/a	n/a	n/a	n/a	n/a
3742.574	n/a	RECOG_CONF	1871287	n/a	LTP113	ltpFR	4	1	n/a	ARTIST	43	2	n/a	n/a	n/a	n/a	n/a	n/a
3743.962	n/a	RECOG_LURE	1871981	n/a	LTP113	ltpFR	4	1	n/a	CHIME	300	1	n/a	n/a	n/a	n/a	n/a	n/a
3746.196	n/a	RECOG_RESP	1873098	n/a	LTP113	ltpFR	4	1	n/a	CHIME	300	n/a	n/a	n/a	n/a	n/a	n/a	n/a
3748.24	n/a	RECOG_CONF	1874120	n/a	LTP113	ltpFR	4	1	n/a	CHIME	300	1	n/a	n/a	n/a	n/a	n/a	n/a
3758.972	n/a	REC_START	1879486	n/a	LTP113	ltpFR	4	2	n/a	n/a	n/a	n/a	n/a	n/a	n/a	n/a	n/a	n/a
3759.008	n/a	RECOG_TARGET	1879504	n/a	LTP113	ltpFR	4	2	1	VEGETABLE	1552	4	0	n/a	n/a	n/a	n/a	n/a
3760.114	n/a	RECOG_RESP	1880057	n/a	LTP113	ltpFR	4	2	1	VEGETABLE	1552	n/a	0	n/a	n/a	n/a	n/a	n/a
3761.37	n/a	RECOG_CONF	1880685	n/a	LTP113	ltpFR	4	2	1	VEGETABLE	1552	4	0	n/a	n/a	n/a	n/a	n/a
3762.724	n/a	RECOG_TARGET	1881362	n/a	LTP113	ltpFR	4	2	1	COOLER	375	5	0	n/a	n/a	n/a	n/a	n/a
3763.78	n/a	RECOG_RESP	1881890	n/a	LTP113	ltpFR	4	2	1	COOLER	375	n/a	0	n/a	n/a	n/a	n/a	n/a
3765.172	n/a	RECOG_CONF	1882586	n/a	LTP113	ltpFR	4	2	1	COOLER	375	5	0	n/a	n/a	n/a	n/a	n/a
3766.474	n/a	RECOG_LURE	1883237	n/a	LTP113	ltpFR	4	2	n/a	TWIG	1527	1	n/a	n/a	n/a	n/a	n/a	n/a
3767.546	n/a	RECOG_RESP	1883773	n/a	LTP113	ltpFR	4	2	n/a	TWIG	1527	n/a	n/a	n/a	n/a	n/a	n/a	n/a
3768.734	n/a	RECOG_CONF	1884367	n/a	LTP113	ltpFR	4	2	n/a	TWIG	1527	1	n/a	n/a	n/a	n/a	n/a	n/a
3770.264	n/a	RECOG_TARGET	1885132	n/a	LTP113	ltpFR	4	2	0	HIGHWAY	707	4	1	n/a	n/a	n/a	n/a	n/a
3770.9	n/a	RECOG_RESP	1885450	n/a	LTP113	ltpFR	4	2	0	HIGHWAY	707	n/a	1	n/a	n/a	n/a	n/a	n/a
3771.758	n/a	RECOG_CONF	1885879	n/a	LTP113	ltpFR	4	2	0	HIGHWAY	707	4	1	n/a	n/a	n/a	n/a	n/a
3773.08	n/a	RECOG_TARGET	1886540	n/a	LTP113	ltpFR	4	2	0	CHIPMUNK	304	5	0	n/a	n/a	n/a	n/a	n/a
3773.764	n/a	RECOG_RESP	1886882	n/a	LTP113	ltpFR	4	2	0	CHIPMUNK	304	n/a	0	n/a	n/a	n/a	n/a	n/a
3774.582	n/a	RECOG_CONF	1887291	n/a	LTP113	ltpFR	4	2	0	CHIPMUNK	304	5	0	n/a	n/a	n/a	n/a	n/a
3775.904	n/a	RECOG_TARGET	1887952	n/a	LTP113	ltpFR	4	2	1	CAR	241	5	0	n/a	n/a	n/a	n/a	n/a
3776.652	n/a	RECOG_RESP	1888326	n/a	LTP113	ltpFR	4	2	1	CAR	241	n/a	0	n/a	n/a	n/a	n/a	n/a
3777.576	n/a	RECOG_CONF	1888788	n/a	LTP113	ltpFR	4	2	1	CAR	241	5	0	n/a	n/a	n/a	n/a	n/a
3779.078	n/a	RECOG_TARGET	1889539	n/a	LTP113	ltpFR	4	2	0	GARBAGE	622	4	1	n/a	n/a	n/a	n/a	n/a
3780.858	n/a	RECOG_RESP_VV	1890429	n/a	LTP113	ltpFR	4	2	0	GARBAGE	622	5	1	n/a	n/a	n/a	n/a	n/a
3782.474	n/a	RECOG_CONF	1891237	n/a	LTP113	ltpFR	4	2	0	GARBAGE	622	4	1	n/a	n/a	n/a	n/a	n/a
3783.858	n/a	RECOG_TARGET	1891929	n/a	LTP113	ltpFR	4	2	0	COTTAGE	384	5	1	n/a	n/a	n/a	n/a	n/a
3784.544	n/a	RECOG_RESP	1892272	n/a	LTP113	ltpFR	4	2	0	COTTAGE	384	n/a	1	n/a	n/a	n/a	n/a	n/a
3785.368	n/a	RECOG_CONF	1892684	n/a	LTP113	ltpFR	4	2	0	COTTAGE	384	5	1	n/a	n/a	n/a	n/a	n/a
3786.842	n/a	RECOG_LURE	1893421	n/a	LTP113	ltpFR	4	2	n/a	HOUSE	725	3	n/a	n/a	n/a	n/a	n/a	n/a
3788.774	n/a	RECOG_RESP	1894387	n/a	LTP113	ltpFR	4	2	n/a	HOUSE	725	n/a	n/a	n/a	n/a	n/a	n/a	n/a
3790.026	n/a	RECOG_CONF	1895013	n/a	LTP113	ltpFR	4	2	n/a	HOUSE	725	3	n/a	n/a	n/a	n/a	n/a	n/a
3791.498	n/a	RECOG_TARGET	1895749	n/a	LTP113	ltpFR	4	2	0	MAPLE	866	5	1	n/a	n/a	n/a	n/a	n/a
3792.566	n/a	RECOG_RESP	1896283	n/a	LTP113	ltpFR	4	2	0	MAPLE	866	n/a	1	n/a	n/a	n/a	n/a	n/a
3793.64	n/a	RECOG_CONF	1896820	n/a	LTP113	ltpFR	4	2	0	MAPLE	866	5	1	n/a	n/a	n/a	n/a	n/a
3794.998	n/a	RECOG_LURE	1897499	n/a	LTP113	ltpFR	4	2	n/a	FLEET	578	2	n/a	n/a	n/a	n/a	n/a	n/a
3796.398	n/a	RECOG_RESP	1898199	n/a	LTP113	ltpFR	4	2	n/a	FLEET	578	n/a	n/a	n/a	n/a	n/a	n/a	n/a
3797.61	n/a	RECOG_CONF	1898805	n/a	LTP113	ltpFR	4	2	n/a	FLEET	578	2	n/a	n/a	n/a	n/a	n/a	n/a
3799.188	n/a	RECOG_TARGET	1899594	n/a	LTP113	ltpFR	4	2	0	WICK	1607	5	0	n/a	n/a	n/a	n/a	n/a
3799.84	n/a	RECOG_RESP	1899920	n/a	LTP113	ltpFR	4	2	0	WICK	1607	n/a	0	n/a	n/a	n/a	n/a	n/a
3800.734	n/a	RECOG_CONF	1900367	n/a	LTP113	ltpFR	4	2	0	WICK	1607	5	0	n/a	n/a	n/a	n/a	n/a
3802.396	n/a	RECOG_TARGET	1901198	n/a	LTP113	ltpFR	4	2	-1	ROCKET	1202	1	-1	n/a	n/a	n/a	n/a	n/a
3803.606	n/a	RECOG_RESP	1901803	n/a	LTP113	ltpFR	4	2	-1	ROCKET	1202	n/a	-1	n/a	n/a	n/a	n/a	n/a
3804.734	n/a	RECOG_CONF	1902367	n/a	LTP113	ltpFR	4	2	-1	ROCKET	1202	1	-1	n/a	n/a	n/a	n/a	n/a
3806.026	n/a	RECOG_TARGET	1903013	n/a	LTP113	ltpFR	4	2	0	SKIRT	1319	4	0	n/a	n/a	n/a	n/a	n/a
3806.82	n/a	RECOG_RESP	1903410	n/a	LTP113	ltpFR	4	2	0	SKIRT	1319	n/a	0	n/a	n/a	n/a	n/a	n/a
3807.966	n/a	RECOG_CONF	1903983	n/a	LTP113	ltpFR	4	2	0	SKIRT	1319	4	0	n/a	n/a	n/a	n/a	n/a
3809.252	n/a	RECOG_TARGET	1904626	n/a	LTP113	ltpFR	4	2	-1	CLAM	315	1	-1	n/a	n/a	n/a	n/a	n/a
3810.148	n/a	RECOG_RESP	1905074	n/a	LTP113	ltpFR	4	2	-1	CLAM	315	n/a	-1	n/a	n/a	n/a	n/a	n/a
3811.05	n/a	RECOG_CONF	1905525	n/a	LTP113	ltpFR	4	2	-1	CLAM	315	1	-1	n/a	n/a	n/a	n/a	n/a
3812.376	n/a	RECOG_TARGET	1906188	n/a	LTP113	ltpFR	4	2	0	SYRINGE	1424	5	0	n/a	n/a	n/a	n/a	n/a
3813.28	n/a	RECOG_RESP	1906640	n/a	LTP113	ltpFR	4	2	0	SYRINGE	1424	n/a	0	n/a	n/a	n/a	n/a	n/a
3814.264	n/a	RECOG_CONF	1907132	n/a	LTP113	ltpFR	4	2	0	SYRINGE	1424	5	0	n/a	n/a	n/a	n/a	n/a
3815.542	n/a	RECOG_TARGET	1907771	n/a	LTP113	ltpFR	4	2	1	SUBMARINE	1398	2	0	n/a	n/a	n/a	n/a	n/a
3816.334	n/a	RECOG_RESP	1908167	n/a	LTP113	ltpFR	4	2	1	SUBMARINE	1398	n/a	0	n/a	n/a	n/a	n/a	n/a
3817.416	n/a	RECOG_CONF	1908708	n/a	LTP113	ltpFR	4	2	1	SUBMARINE	1398	2	0	n/a	n/a	n/a	n/a	n/a
3818.716	n/a	RECOG_TARGET	1909358	n/a	LTP113	ltpFR	4	2	0	FLOWER	584	3	0	n/a	n/a	n/a	n/a	n/a
3819.542	n/a	RECOG_RESP	1909771	n/a	LTP113	ltpFR	4	2	0	FLOWER	584	n/a	0	n/a	n/a	n/a	n/a	n/a
3821.558	n/a	RECOG_CONF	1910779	n/a	LTP113	ltpFR	4	2	0	FLOWER	584	3	0	n/a	n/a	n/a	n/a	n/a
3823.022	n/a	RECOG_TARGET	1911511	n/a	LTP113	ltpFR	4	2	1	BLOSSOM	138	4	1	n/a	n/a	n/a	n/a	n/a
3824.98	n/a	RECOG_RESP	1912490	n/a	LTP113	ltpFR	4	2	1	BLOSSOM	138	n/a	1	n/a	n/a	n/a	n/a	n/a
3826.536	n/a	RECOG_CONF	1913268	n/a	LTP113	ltpFR	4	2	1	BLOSSOM	138	4	1	n/a	n/a	n/a	n/a	n/a
3827.878	n/a	RECOG_TARGET	1913939	n/a	LTP113	ltpFR	4	2	0	SHOE	1288	2	0	n/a	n/a	n/a	n/a	n/a
3829.474	n/a	RECOG_RESP	1914737	n/a	LTP113	ltpFR	4	2	0	SHOE	1288	n/a	0	n/a	n/a	n/a	n/a	n/a
3830.658	n/a	RECOG_CONF	1915329	n/a	LTP113	ltpFR	4	2	0	SHOE	1288	2	0	n/a	n/a	n/a	n/a	n/a
3859.226	n/a	REC_START	1929613	n/a	LTP113	ltpFR	4	3	n/a	n/a	n/a	n/a	n/a	n/a	n/a	n/a	n/a	n/a
3859.262	n/a	RECOG_TARGET	1929631	n/a	LTP113	ltpFR	4	3	-1	FURNITURE	616	3	-1	n/a	n/a	n/a	n/a	n/a
3860.158	n/a	RECOG_RESP	1930079	n/a	LTP113	ltpFR	4	3	-1	FURNITURE	616	n/a	-1	n/a	n/a	n/a	n/a	n/a
3861.614	n/a	RECOG_CONF	1930807	n/a	LTP113	ltpFR	4	3	-1	FURNITURE	616	3	-1	n/a	n/a	n/a	n/a	n/a
3863.044	n/a	RECOG_TARGET	1931522	n/a	LTP113	ltpFR	4	3	1	PLAID	1080	4	0	n/a	n/a	n/a	n/a	n/a
3863.8	n/a	RECOG_RESP	1931900	n/a	LTP113	ltpFR	4	3	1	PLAID	1080	n/a	0	n/a	n/a	n/a	n/a	n/a
3864.578	n/a	RECOG_CONF	1932289	n/a	LTP113	ltpFR	4	3	1	PLAID	1080	4	0	n/a	n/a	n/a	n/a	n/a
3865.834	n/a	RECOG_TARGET	1932917	n/a	LTP113	ltpFR	4	3	0	SHORTS	1293	3	0	n/a	n/a	n/a	n/a	n/a
3866.644	n/a	RECOG_RESP	1933322	n/a	LTP113	ltpFR	4	3	0	SHORTS	1293	n/a	0	n/a	n/a	n/a	n/a	n/a
3867.482	n/a	RECOG_CONF	1933741	n/a	LTP113	ltpFR	4	3	0	SHORTS	1293	3	0	n/a	n/a	n/a	n/a	n/a
3868.9	n/a	RECOG_TARGET	1934450	n/a	LTP113	ltpFR	4	3	0	TEAM	1441	4	1	n/a	n/a	n/a	n/a	n/a
3869.798	n/a	RECOG_RESP	1934899	n/a	LTP113	ltpFR	4	3	0	TEAM	1441	n/a	1	n/a	n/a	n/a	n/a	n/a
3870.696	n/a	RECOG_CONF	1935348	n/a	LTP113	ltpFR	4	3	0	TEAM	1441	4	1	n/a	n/a	n/a	n/a	n/a
3871.974	n/a	RECOG_LURE	1935987	n/a	LTP113	ltpFR	4	3	n/a	THUMB	1462	1	n/a	n/a	n/a	n/a	n/a	n/a
3872.896	n/a	RECOG_RESP	1936448	n/a	LTP113	ltpFR	4	3	n/a	THUMB	1462	n/a	n/a	n/a	n/a	n/a	n/a	n/a
3874.078	n/a	RECOG_CONF	1937039	n/a	LTP113	ltpFR	4	3	n/a	THUMB	1462	1	n/a	n/a	n/a	n/a	n/a	n/a
3875.34	n/a	RECOG_TARGET	1937670	n/a	LTP113	ltpFR	4	3	-1	DINNER	468	5	-1	n/a	n/a	n/a	n/a	n/a
3876.098	n/a	RECOG_RESP	1938049	n/a	LTP113	ltpFR	4	3	-1	DINNER	468	n/a	-1	n/a	n/a	n/a	n/a	n/a
3877.06	n/a	RECOG_CONF	1938530	n/a	LTP113	ltpFR	4	3	-1	DINNER	468	5	-1	n/a	n/a	n/a	n/a	n/a
3878.456	n/a	RECOG_TARGET	1939228	n/a	LTP113	ltpFR	4	3	0	CHEESE	289	5	0	n/a	n/a	n/a	n/a	n/a
3879.206	n/a	RECOG_RESP	1939603	n/a	LTP113	ltpFR	4	3	0	CHEESE	289	n/a	0	n/a	n/a	n/a	n/a	n/a
3880.134	n/a	RECOG_CONF	1940067	n/a	LTP113	ltpFR	4	3	0	CHEESE	289	5	0	n/a	n/a	n/a	n/a	n/a
3881.564	n/a	RECOG_TARGET	1940782	n/a	LTP113	ltpFR	4	3	-1	PICNIC	1060	5	-1	n/a	n/a	n/a	n/a	n/a
3882.274	n/a	RECOG_RESP	1941137	n/a	LTP113	ltpFR	4	3	-1	PICNIC	1060	n/a	-1	n/a	n/a	n/a	n/a	n/a
3883.038	n/a	RECOG_CONF	1941519	n/a	LTP113	ltpFR	4	3	-1	PICNIC	1060	5	-1	n/a	n/a	n/a	n/a	n/a
3884.438	n/a	RECOG_TARGET	1942219	n/a	LTP113	ltpFR	4	3	0	MONUMENT	913	5	1	n/a	n/a	n/a	n/a	n/a
3886.494	n/a	RECOG_RESP	1943247	n/a	LTP113	ltpFR	4	3	0	MONUMENT	913	n/a	1	n/a	n/a	n/a	n/a	n/a
3887.688	n/a	RECOG_CONF	1943844	n/a	LTP113	ltpFR	4	3	0	MONUMENT	913	5	1	n/a	n/a	n/a	n/a	n/a
3889.086	n/a	RECOG_TARGET	1944543	n/a	LTP113	ltpFR	4	3	1	BARN	89	1	0	n/a	n/a	n/a	n/a	n/a
3890.162	n/a	RECOG_RESP	1945081	n/a	LTP113	ltpFR	4	3	1	BARN	89	n/a	0	n/a	n/a	n/a	n/a	n/a
3891.15	n/a	RECOG_CONF	1945575	n/a	LTP113	ltpFR	4	3	1	BARN	89	1	0	n/a	n/a	n/a	n/a	n/a
3892.578	n/a	RECOG_TARGET	1946289	n/a	LTP113	ltpFR	4	3	-1	FOLLOWER	589	1	-1	n/a	n/a	n/a	n/a	n/a
3893.62	n/a	RECOG_RESP	1946810	n/a	LTP113	ltpFR	4	3	-1	FOLLOWER	589	n/a	-1	n/a	n/a	n/a	n/a	n/a
3894.462	n/a	RECOG_CONF	1947231	n/a	LTP113	ltpFR	4	3	-1	FOLLOWER	589	1	-1	n/a	n/a	n/a	n/a	n/a
3895.95	n/a	RECOG_LURE	1947975	n/a	LTP113	ltpFR	4	3	n/a	CARROT	249	1	n/a	n/a	n/a	n/a	n/a	n/a
3896.826	n/a	RECOG_RESP	1948413	n/a	LTP113	ltpFR	4	3	n/a	CARROT	249	n/a	n/a	n/a	n/a	n/a	n/a	n/a
3897.694	n/a	RECOG_CONF	1948847	n/a	LTP113	ltpFR	4	3	n/a	CARROT	249	1	n/a	n/a	n/a	n/a	n/a	n/a
3899.198	n/a	RECOG_TARGET	1949599	n/a	LTP113	ltpFR	4	3	0	SWIMMER	1420	5	1	n/a	n/a	n/a	n/a	n/a
3900.174	n/a	RECOG_RESP	1950087	n/a	LTP113	ltpFR	4	3	0	SWIMMER	1420	n/a	1	n/a	n/a	n/a	n/a	n/a
3901.276	n/a	RECOG_CONF	1950638	n/a	LTP113	ltpFR	4	3	0	SWIMMER	1420	5	1	n/a	n/a	n/a	n/a	n/a
3902.906	n/a	RECOG_LURE	1951453	n/a	LTP113	ltpFR	4	3	n/a	STONE	1385	1	n/a	n/a	n/a	n/a	n/a	n/a
3903.782	n/a	RECOG_RESP	1951891	n/a	LTP113	ltpFR	4	3	n/a	STONE	1385	n/a	n/a	n/a	n/a	n/a	n/a	n/a
3905.118	n/a	RECOG_CONF	1952559	n/a	LTP113	ltpFR	4	3	n/a	STONE	1385	1	n/a	n/a	n/a	n/a	n/a	n/a
3906.748	n/a	RECOG_LURE	1953374	n/a	LTP113	ltpFR	4	3	n/a	AFRICA	9	4	n/a	n/a	n/a	n/a	n/a	n/a
3907.832	n/a	RECOG_RESP	1953916	n/a	LTP113	ltpFR	4	3	n/a	AFRICA	9	n/a	n/a	n/a	n/a	n/a	n/a	n/a
3909.16	n/a	RECOG_CONF	1954580	n/a	LTP113	ltpFR	4	3	n/a	AFRICA	9	4	n/a	n/a	n/a	n/a	n/a	n/a
3910.522	n/a	RECOG_TARGET	1955261	n/a	LTP113	ltpFR	4	3	0	RACKET	1155	2	0	n/a	n/a	n/a	n/a	n/a
3911.4	n/a	RECOG_RESP	1955700	n/a	LTP113	ltpFR	4	3	0	RACKET	1155	n/a	0	n/a	n/a	n/a	n/a	n/a
3912.522	n/a	RECOG_CONF	1956261	n/a	LTP113	ltpFR	4	3	0	RACKET	1155	2	0	n/a	n/a	n/a	n/a	n/a
3914.052	n/a	RECOG_TARGET	1957026	n/a	LTP113	ltpFR	4	3	1	DOUGHNUT	490	5	0	n/a	n/a	n/a	n/a	n/a
3914.792	n/a	RECOG_RESP	1957396	n/a	LTP113	ltpFR	4	3	1	DOUGHNUT	490	n/a	0	n/a	n/a	n/a	n/a	n/a
3915.686	n/a	RECOG_CONF	1957843	n/a	LTP113	ltpFR	4	3	1	DOUGHNUT	490	5	0	n/a	n/a	n/a	n/a	n/a
3916.968	n/a	RECOG_TARGET	1958484	n/a	LTP113	ltpFR	4	3	0	HEEL	700	5	0	n/a	n/a	n/a	n/a	n/a
3917.7	n/a	RECOG_RESP	1958850	n/a	LTP113	ltpFR	4	3	0	HEEL	700	n/a	0	n/a	n/a	n/a	n/a	n/a
3918.448	n/a	RECOG_CONF	1959224	n/a	LTP113	ltpFR	4	3	0	HEEL	700	5	0	n/a	n/a	n/a	n/a	n/a
3920.026	n/a	RECOG_TARGET	1960013	n/a	LTP113	ltpFR	4	3	1	STUMP	1396	4	0	n/a	n/a	n/a	n/a	n/a
3921.402	n/a	RECOG_RESP	1960701	n/a	LTP113	ltpFR	4	3	1	STUMP	1396	n/a	0	n/a	n/a	n/a	n/a	n/a
3922.47	n/a	RECOG_CONF	1961235	n/a	LTP113	ltpFR	4	3	1	STUMP	1396	4	0	n/a	n/a	n/a	n/a	n/a
3923.682	n/a	RECOG_TARGET	1961841	n/a	LTP113	ltpFR	4	3	1	BEAVER	109	5	1	n/a	n/a	n/a	n/a	n/a
3924.42	n/a	RECOG_RESP	1962210	n/a	LTP113	ltpFR	4	3	1	BEAVER	109	n/a	1	n/a	n/a	n/a	n/a	n/a
3925.244	n/a	RECOG_CONF	1962622	n/a	LTP113	ltpFR	4	3	1	BEAVER	109	5	1	n/a	n/a	n/a	n/a	n/a
3928.712	n/a	REC_START	1964356	n/a	LTP113	ltpFR	4	4	n/a	n/a	n/a	n/a	n/a	n/a	n/a	n/a	n/a	n/a
3928.748	n/a	RECOG_TARGET	1964374	n/a	LTP113	ltpFR	4	4	1	SEED	1266	5	0	n/a	n/a	n/a	n/a	n/a
3929.526	n/a	RECOG_RESP	1964763	n/a	LTP113	ltpFR	4	4	1	SEED	1266	n/a	0	n/a	n/a	n/a	n/a	n/a
3930.384	n/a	RECOG_CONF	1965192	n/a	LTP113	ltpFR	4	4	1	SEED	1266	5	0	n/a	n/a	n/a	n/a	n/a
3931.606	n/a	RECOG_TARGET	1965803	n/a	LTP113	ltpFR	4	4	0	SPIDER	1351	4	0	n/a	n/a	n/a	n/a	n/a
3932.294	n/a	RECOG_RESP	1966147	n/a	LTP113	ltpFR	4	4	0	SPIDER	1351	n/a	0	n/a	n/a	n/a	n/a	n/a
3933.068	n/a	RECOG_CONF	1966534	n/a	LTP113	ltpFR	4	4	0	SPIDER	1351	4	0	n/a	n/a	n/a	n/a	n/a
3934.314	n/a	RECOG_TARGET	1967157	n/a	LTP113	ltpFR	4	4	1	YOUTH	1634	3	1	n/a	n/a	n/a	n/a	n/a
3935.172	n/a	RECOG_RESP	1967586	n/a	LTP113	ltpFR	4	4	1	YOUTH	1634	n/a	1	n/a	n/a	n/a	n/a	n/a
3936.44	n/a	RECOG_CONF	1968220	n/a	LTP113	ltpFR	4	4	1	YOUTH	1634	3	1	n/a	n/a	n/a	n/a	n/a
3937.646	n/a	RECOG_LURE	1968823	n/a	LTP113	ltpFR	4	4	n/a	DRINK	498	1	n/a	n/a	n/a	n/a	n/a	n/a
3938.87	n/a	RECOG_RESP	1969435	n/a	LTP113	ltpFR	4	4	n/a	DRINK	498	n/a	n/a	n/a	n/a	n/a	n/a	n/a
3939.742	n/a	RECOG_CONF	1969871	n/a	LTP113	ltpFR	4	4	n/a	DRINK	498	1	n/a	n/a	n/a	n/a	n/a	n/a
3941.11	n/a	RECOG_TARGET	1970555	n/a	LTP113	ltpFR	4	4	-1	CITIZEN	312	2	-1	n/a	n/a	n/a	n/a	n/a
3942.116	n/a	RECOG_RESP	1971058	n/a	LTP113	ltpFR	4	4	-1	CITIZEN	312	n/a	-1	n/a	n/a	n/a	n/a	n/a
3943.004	n/a	RECOG_CONF	1971502	n/a	LTP113	ltpFR	4	4	-1	CITIZEN	312	2	-1	n/a	n/a	n/a	n/a	n/a
3944.236	n/a	RECOG_TARGET	1972118	n/a	LTP113	ltpFR	4	4	0	ACROBAT	4	5	1	n/a	n/a	n/a	n/a	n/a
3945.34	n/a	RECOG_RESP	1972670	n/a	LTP113	ltpFR	4	4	0	ACROBAT	4	n/a	1	n/a	n/a	n/a	n/a	n/a
3946.018	n/a	RECOG_CONF	1973009	n/a	LTP113	ltpFR	4	4	0	ACROBAT	4	5	1	n/a	n/a	n/a	n/a	n/a
3947.36	n/a	RECOG_TARGET	1973680	n/a	LTP113	ltpFR	4	4	0	WALLET	1583	5	0	n/a	n/a	n/a	n/a	n/a
3948.02	n/a	RECOG_RESP	1974010	n/a	LTP113	ltpFR	4	4	0	WALLET	1583	n/a	0	n/a	n/a	n/a	n/a	n/a
3948.932	n/a	RECOG_CONF	1974466	n/a	LTP113	ltpFR	4	4	0	WALLET	1583	5	0	n/a	n/a	n/a	n/a	n/a
3950.208	n/a	RECOG_TARGET	1975104	n/a	LTP113	ltpFR	4	4	0	PRAIRIE	1118	5	1	n/a	n/a	n/a	n/a	n/a
3951.032	n/a	RECOG_RESP	1975516	n/a	LTP113	ltpFR	4	4	0	PRAIRIE	1118	n/a	1	n/a	n/a	n/a	n/a	n/a
3951.776	n/a	RECOG_CONF	1975888	n/a	LTP113	ltpFR	4	4	0	PRAIRIE	1118	5	1	n/a	n/a	n/a	n/a	n/a
3952.874	n/a	RECOG_LURE	1976437	n/a	LTP113	ltpFR	4	4	n/a	SLEIGH	1325	2	n/a	n/a	n/a	n/a	n/a	n/a
3953.812	n/a	RECOG_RESP	1976906	n/a	LTP113	ltpFR	4	4	n/a	SLEIGH	1325	n/a	n/a	n/a	n/a	n/a	n/a	n/a
3954.742	n/a	RECOG_CONF	1977371	n/a	LTP113	ltpFR	4	4	n/a	SLEIGH	1325	2	n/a	n/a	n/a	n/a	n/a	n/a
3956.056	n/a	RECOG_TARGET	1978028	n/a	LTP113	ltpFR	4	4	1	ASTRONAUT	51	5	0	n/a	n/a	n/a	n/a	n/a
3956.724	n/a	RECOG_RESP	1978362	n/a	LTP113	ltpFR	4	4	1	ASTRONAUT	51	n/a	0	n/a	n/a	n/a	n/a	n/a
3957.482	n/a	RECOG_CONF	1978741	n/a	LTP113	ltpFR	4	4	1	ASTRONAUT	51	5	0	n/a	n/a	n/a	n/a	n/a
3958.566	n/a	RECOG_LURE	1979283	n/a	LTP113	ltpFR	4	4	n/a	PLUMBER	1091	5	n/a	n/a	n/a	n/a	n/a	n/a
3959.564	n/a	RECOG_RESP	1979782	n/a	LTP113	ltpFR	4	4	n/a	PLUMBER	1091	n/a	n/a	n/a	n/a	n/a	n/a	n/a
3960.086	n/a	RECOG_CONF	1980043	n/a	LTP113	ltpFR	4	4	n/a	PLUMBER	1091	5	n/a	n/a	n/a	n/a	n/a	n/a
3961.088	n/a	RECOG_TARGET	1980544	n/a	LTP113	ltpFR	4	4	0	KEG	770	5	0	n/a	n/a	n/a	n/a	n/a
3962.092	n/a	RECOG_RESP	1981046	n/a	LTP113	ltpFR	4	4	0	KEG	770	n/a	0	n/a	n/a	n/a	n/a	n/a
3963.03	n/a	RECOG_CONF	1981515	n/a	LTP113	ltpFR	4	4	0	KEG	770	5	0	n/a	n/a	n/a	n/a	n/a
3964.514	n/a	RECOG_TARGET	1982257	n/a	LTP113	ltpFR	4	4	-1	HUT	729	5	-1	n/a	n/a	n/a	n/a	n/a
3965.38	n/a	RECOG_RESP	1982690	n/a	LTP113	ltpFR	4	4	-1	HUT	729	n/a	-1	n/a	n/a	n/a	n/a	n/a
3966.234	n/a	RECOG_CONF	1983117	n/a	LTP113	ltpFR	4	4	-1	HUT	729	5	-1	n/a	n/a	n/a	n/a	n/a
3967.754	n/a	RECOG_LURE	1983877	n/a	LTP113	ltpFR	4	4	n/a	ANTEATER	26	2	n/a	n/a	n/a	n/a	n/a	n/a
3968.958	n/a	RECOG_RESP	1984479	n/a	LTP113	ltpFR	4	4	n/a	ANTEATER	26	n/a	n/a	n/a	n/a	n/a	n/a	n/a
3969.816	n/a	RECOG_CONF	1984908	n/a	LTP113	ltpFR	4	4	n/a	ANTEATER	26	2	n/a	n/a	n/a	n/a	n/a	n/a
3971.068	n/a	RECOG_TARGET	1985534	n/a	LTP113	ltpFR	4	4	1	DELINQUENT	445	5	1	n/a	n/a	n/a	n/a	n/a
3971.892	n/a	RECOG_RESP	1985946	n/a	LTP113	ltpFR	4	4	1	DELINQUENT	445	n/a	1	n/a	n/a	n/a	n/a	n/a
3972.76	n/a	RECOG_CONF	1986380	n/a	LTP113	ltpFR	4	4	1	DELINQUENT	445	5	1	n/a	n/a	n/a	n/a	n/a
3974.184	n/a	RECOG_TARGET	1987092	n/a	LTP113	ltpFR	4	4	-1	FLAG	573	1	-1	n/a	n/a	n/a	n/a	n/a
3975.622	n/a	RECOG_RESP	1987811	n/a	LTP113	ltpFR	4	4	-1	FLAG	573	n/a	-1	n/a	n/a	n/a	n/a	n/a
3976.62	n/a	RECOG_CONF	1988310	n/a	LTP113	ltpFR	4	4	-1	FLAG	573	1	-1	n/a	n/a	n/a	n/a	n/a
3977.984	n/a	RECOG_LURE	1988992	n/a	LTP113	ltpFR	4	4	n/a	BRAIN	165	2	n/a	n/a	n/a	n/a	n/a	n/a
3980.532	n/a	RECOG_RESP	1990266	n/a	LTP113	ltpFR	4	4	n/a	BRAIN	165	n/a	n/a	n/a	n/a	n/a	n/a	n/a
3981.678	n/a	RECOG_CONF	1990839	n/a	LTP113	ltpFR	4	4	n/a	BRAIN	165	2	n/a	n/a	n/a	n/a	n/a	n/a
3983.082	n/a	RECOG_LURE	1991541	n/a	LTP113	ltpFR	4	4	n/a	WATERFALL	1595	1	n/a	n/a	n/a	n/a	n/a	n/a
3984.24	n/a	RECOG_RESP	1992120	n/a	LTP113	ltpFR	4	4	n/a	WATERFALL	1595	n/a	n/a	n/a	n/a	n/a	n/a	n/a
3985.71	n/a	RECOG_CONF	1992855	n/a	LTP113	ltpFR	4	4	n/a	WATERFALL	1595	1	n/a	n/a	n/a	n/a	n/a	n/a
3987.266	n/a	RECOG_TARGET	1993633	n/a	LTP113	ltpFR	4	4	1	EXPLOSION	544	5	0	n/a	n/a	n/a	n/a	n/a
3988.904	n/a	RECOG_RESP	1994452	n/a	LTP113	ltpFR	4	4	1	EXPLOSION	544	n/a	0	n/a	n/a	n/a	n/a	n/a
3990.948	n/a	RECOG_CONF	1995474	n/a	LTP113	ltpFR	4	4	1	EXPLOSION	544	5	0	n/a	n/a	n/a	n/a	n/a
3992.446	n/a	RECOG_TARGET	1996223	n/a	LTP113	ltpFR	4	4	1	HAWK	692	5	1	n/a	n/a	n/a	n/a	n/a
3993.188	n/a	RECOG_RESP	1996594	n/a	LTP113	ltpFR	4	4	1	HAWK	692	n/a	1	n/a	n/a	n/a	n/a	n/a
3994.002	n/a	RECOG_CONF	1997001	n/a	LTP113	ltpFR	4	4	1	HAWK	692	5	1	n/a	n/a	n/a	n/a	n/a
3997.18	n/a	REC_START	1998590	n/a	LTP113	ltpFR	4	5	n/a	n/a	n/a	n/a	n/a	n/a	n/a	n/a	n/a	n/a
3997.218	n/a	RECOG_LURE	1998609	n/a	LTP113	ltpFR	4	5	n/a	STAPLER	1372	4	n/a	n/a	n/a	n/a	n/a	n/a
3998.202	n/a	RECOG_RESP	1999101	n/a	LTP113	ltpFR	4	5	n/a	STAPLER	1372	n/a	n/a	n/a	n/a	n/a	n/a	n/a
3998.992	n/a	RECOG_CONF	1999496	n/a	LTP113	ltpFR	4	5	n/a	STAPLER	1372	4	n/a	n/a	n/a	n/a	n/a	n/a
4000.226	n/a	RECOG_TARGET	2000113	n/a	LTP113	ltpFR	4	5	-1	BATTERY	101	1	-1	n/a	n/a	n/a	n/a	n/a
4001.206	n/a	RECOG_RESP	2000603	n/a	LTP113	ltpFR	4	5	-1	BATTERY	101	n/a	-1	n/a	n/a	n/a	n/a	n/a
4002.244	n/a	RECOG_CONF	2001122	n/a	LTP113	ltpFR	4	5	-1	BATTERY	101	1	-1	n/a	n/a	n/a	n/a	n/a
4003.634	n/a	RECOG_LURE	2001817	n/a	LTP113	ltpFR	4	5	n/a	SPARROW	1347	1	n/a	n/a	n/a	n/a	n/a	n/a
4005.438	n/a	RECOG_RESP	2002719	n/a	LTP113	ltpFR	4	5	n/a	SPARROW	1347	n/a	n/a	n/a	n/a	n/a	n/a	n/a
4008.63	n/a	RECOG_CONF	2004315	n/a	LTP113	ltpFR	4	5	n/a	SPARROW	1347	1	n/a	n/a	n/a	n/a	n/a	n/a
4009.948	n/a	RECOG_TARGET	2004974	n/a	LTP113	ltpFR	4	5	0	GULL	671	5	1	n/a	n/a	n/a	n/a	n/a
4010.886	n/a	RECOG_RESP	2005443	n/a	LTP113	ltpFR	4	5	0	GULL	671	n/a	1	n/a	n/a	n/a	n/a	n/a
4012.092	n/a	RECOG_CONF	2006046	n/a	LTP113	ltpFR	4	5	0	GULL	671	5	1	n/a	n/a	n/a	n/a	n/a
4013.382	n/a	RECOG_LURE	2006691	n/a	LTP113	ltpFR	4	5	n/a	PLUTO	1092	5	n/a	n/a	n/a	n/a	n/a	n/a
4014.408	n/a	RECOG_RESP	2007204	n/a	LTP113	ltpFR	4	5	n/a	PLUTO	1092	n/a	n/a	n/a	n/a	n/a	n/a	n/a
4015.804	n/a	RECOG_CONF	2007902	n/a	LTP113	ltpFR	4	5	n/a	PLUTO	1092	5	n/a	n/a	n/a	n/a	n/a	n/a
4017.204	n/a	RECOG_TARGET	2008602	n/a	LTP113	ltpFR	4	5	1	AMBULANCE	19	1	0	n/a	n/a	n/a	n/a	n/a
4018.448	n/a	RECOG_RESP	2009224	n/a	LTP113	ltpFR	4	5	1	AMBULANCE	19	n/a	0	n/a	n/a	n/a	n/a	n/a
4019.526	n/a	RECOG_CONF	2009763	n/a	LTP113	ltpFR	4	5	1	AMBULANCE	19	1	0	n/a	n/a	n/a	n/a	n/a
4020.87	n/a	RECOG_LURE	2010435	n/a	LTP113	ltpFR	4	5	n/a	SERGEANT	1269	3	n/a	n/a	n/a	n/a	n/a	n/a
4022.684	n/a	RECOG_RESP	2011342	n/a	LTP113	ltpFR	4	5	n/a	SERGEANT	1269	n/a	n/a	n/a	n/a	n/a	n/a	n/a
4024.036	n/a	RECOG_CONF	2012018	n/a	LTP113	ltpFR	4	5	n/a	SERGEANT	1269	3	n/a	n/a	n/a	n/a	n/a	n/a
4025.562	n/a	RECOG_TARGET	2012781	n/a	LTP113	ltpFR	4	5	0	MARINE	869	4	1	n/a	n/a	n/a	n/a	n/a
4026.58	n/a	RECOG_RESP	2013290	n/a	LTP113	ltpFR	4	5	0	MARINE	869	n/a	1	n/a	n/a	n/a	n/a	n/a
4027.748	n/a	RECOG_CONF	2013874	n/a	LTP113	ltpFR	4	5	0	MARINE	869	4	1	n/a	n/a	n/a	n/a	n/a
4029.168	n/a	RECOG_TARGET	2014584	n/a	LTP113	ltpFR	4	5	-1	PUDDLE	1140	1	-1	n/a	n/a	n/a	n/a	n/a
4030.032	n/a	RECOG_RESP	2015016	n/a	LTP113	ltpFR	4	5	-1	PUDDLE	1140	n/a	-1	n/a	n/a	n/a	n/a	n/a
4030.97	n/a	RECOG_CONF	2015485	n/a	LTP113	ltpFR	4	5	-1	PUDDLE	1140	1	-1	n/a	n/a	n/a	n/a	n/a
4032.292	n/a	RECOG_TARGET	2016146	n/a	LTP113	ltpFR	4	5	0	FATHER	554	4	3	n/a	n/a	n/a	n/a	n/a
4033.166	n/a	RECOG_RESP	2016583	n/a	LTP113	ltpFR	4	5	0	FATHER	554	n/a	3	n/a	n/a	n/a	n/a	n/a
4033.984	n/a	RECOG_CONF	2016992	n/a	LTP113	ltpFR	4	5	0	FATHER	554	4	3	n/a	n/a	n/a	n/a	n/a
4035.266	n/a	RECOG_TARGET	2017633	n/a	LTP113	ltpFR	4	5	0	CLOVE	329	5	1	n/a	n/a	n/a	n/a	n/a
4036.084	n/a	RECOG_RESP	2018042	n/a	LTP113	ltpFR	4	5	0	CLOVE	329	n/a	1	n/a	n/a	n/a	n/a	n/a
4036.808	n/a	RECOG_CONF	2018404	n/a	LTP113	ltpFR	4	5	0	CLOVE	329	5	1	n/a	n/a	n/a	n/a	n/a
4038.206	n/a	RECOG_TARGET	2019103	n/a	LTP113	ltpFR	4	5	-1	CAMEL	223	5	-1	n/a	n/a	n/a	n/a	n/a
4039.116	n/a	RECOG_RESP	2019558	n/a	LTP113	ltpFR	4	5	-1	CAMEL	223	n/a	-1	n/a	n/a	n/a	n/a	n/a
4042.036	n/a	RECOG_CONF	2021018	n/a	LTP113	ltpFR	4	5	-1	CAMEL	223	5	-1	n/a	n/a	n/a	n/a	n/a
4043.772	n/a	RECOG_TARGET	2021886	n/a	LTP113	ltpFR	4	5	0	LIMOUSINE	824	5	1	n/a	n/a	n/a	n/a	n/a
4044.71	n/a	RECOG_RESP	2022355	n/a	LTP113	ltpFR	4	5	0	LIMOUSINE	824	n/a	1	n/a	n/a	n/a	n/a	n/a
4046.466	n/a	RECOG_CONF	2023233	n/a	LTP113	ltpFR	4	5	0	LIMOUSINE	824	5	1	n/a	n/a	n/a	n/a	n/a
4048.088	n/a	RECOG_TARGET	2024044	n/a	LTP113	ltpFR	4	5	1	CABINET	212	4	0	n/a	n/a	n/a	n/a	n/a
4048.94	n/a	RECOG_RESP	2024470	n/a	LTP113	ltpFR	4	5	1	CABINET	212	n/a	0	n/a	n/a	n/a	n/a	n/a
4049.958	n/a	RECOG_CONF	2024979	n/a	LTP113	ltpFR	4	5	1	CABINET	212	4	0	n/a	n/a	n/a	n/a	n/a
4051.554	n/a	RECOG_TARGET	2025777	n/a	LTP113	ltpFR	4	5	1	SEAL	1262	3	1	n/a	n/a	n/a	n/a	n/a
4052.402	n/a	RECOG_RESP	2026201	n/a	LTP113	ltpFR	4	5	1	SEAL	1262	n/a	1	n/a	n/a	n/a	n/a	n/a
4053.37	n/a	RECOG_CONF	2026685	n/a	LTP113	ltpFR	4	5	1	SEAL	1262	3	1	n/a	n/a	n/a	n/a	n/a
4054.952	n/a	RECOG_TARGET	2027476	n/a	LTP113	ltpFR	4	5	-1	TIMBER	1469	1	-1	n/a	n/a	n/a	n/a	n/a
4055.73	n/a	RECOG_RESP	2027865	n/a	LTP113	ltpFR	4	5	-1	TIMBER	1469	n/a	-1	n/a	n/a	n/a	n/a	n/a
4056.654	n/a	RECOG_CONF	2028327	n/a	LTP113	ltpFR	4	5	-1	TIMBER	1469	1	-1	n/a	n/a	n/a	n/a	n/a
4057.968	n/a	RECOG_TARGET	2028984	n/a	LTP113	ltpFR	4	5	1	GROCERY	664	4	0	n/a	n/a	n/a	n/a	n/a
4059.058	n/a	RECOG_RESP	2029529	n/a	LTP113	ltpFR	4	5	1	GROCERY	664	n/a	0	n/a	n/a	n/a	n/a	n/a
4060.246	n/a	RECOG_CONF	2030123	n/a	LTP113	ltpFR	4	5	1	GROCERY	664	4	0	n/a	n/a	n/a	n/a	n/a
4061.61	n/a	RECOG_TARGET	2030805	n/a	LTP113	ltpFR	4	5	1	PORCH	1106	5	0	n/a	n/a	n/a	n/a	n/a
4062.456	n/a	RECOG_RESP	2031228	n/a	LTP113	ltpFR	4	5	1	PORCH	1106	n/a	0	n/a	n/a	n/a	n/a	n/a
4063.2	n/a	RECOG_CONF	2031600	n/a	LTP113	ltpFR	4	5	1	PORCH	1106	5	0	n/a	n/a	n/a	n/a	n/a
4064.392	n/a	RECOG_TARGET	2032196	n/a	LTP113	ltpFR	4	5	0	MAN	862	5	1	n/a	n/a	n/a	n/a	n/a
4065.434	n/a	RECOG_RESP	2032717	n/a	LTP113	ltpFR	4	5	0	MAN	862	n/a	1	n/a	n/a	n/a	n/a	n/a
4066.352	n/a	RECOG_CONF	2033176	n/a	LTP113	ltpFR	4	5	0	MAN	862	5	1	n/a	n/a	n/a	n/a	n/a
4067.972	n/a	RECOG_TARGET	2033986	n/a	LTP113	ltpFR	4	5	0	PATH	1023	4	1	n/a	n/a	n/a	n/a	n/a
4068.726	n/a	RECOG_RESP	2034363	n/a	LTP113	ltpFR	4	5	0	PATH	1023	n/a	1	n/a	n/a	n/a	n/a	n/a
4069.634	n/a	RECOG_CONF	2034817	n/a	LTP113	ltpFR	4	5	0	PATH	1023	4	1	n/a	n/a	n/a	n/a	n/a
4079.852	n/a	REC_START	2039926	n/a	LTP113	ltpFR	4	6	n/a	n/a	n/a	n/a	n/a	n/a	n/a	n/a	n/a	n/a
4079.886	n/a	RECOG_TARGET	2039943	n/a	LTP113	ltpFR	4	6	1	MUSTARD	935	5	1	n/a	n/a	n/a	n/a	n/a
4080.73	n/a	RECOG_RESP	2040365	n/a	LTP113	ltpFR	4	6	1	MUSTARD	935	n/a	1	n/a	n/a	n/a	n/a	n/a
4081.952	n/a	RECOG_CONF	2040976	n/a	LTP113	ltpFR	4	6	1	MUSTARD	935	5	1	n/a	n/a	n/a	n/a	n/a
4083.352	n/a	RECOG_TARGET	2041676	n/a	LTP113	ltpFR	4	6	-1	FLORIDA	582	2	-1	n/a	n/a	n/a	n/a	n/a
4084.016	n/a	RECOG_RESP	2042008	n/a	LTP113	ltpFR	4	6	-1	FLORIDA	582	n/a	-1	n/a	n/a	n/a	n/a	n/a
4085.324	n/a	RECOG_CONF	2042662	n/a	LTP113	ltpFR	4	6	-1	FLORIDA	582	2	-1	n/a	n/a	n/a	n/a	n/a
4086.768	n/a	RECOG_TARGET	2043384	n/a	LTP113	ltpFR	4	6	0	STEM	1376	3	0	n/a	n/a	n/a	n/a	n/a
4087.46	n/a	RECOG_RESP	2043730	n/a	LTP113	ltpFR	4	6	0	STEM	1376	n/a	0	n/a	n/a	n/a	n/a	n/a
4088.476	n/a	RECOG_CONF	2044238	n/a	LTP113	ltpFR	4	6	0	STEM	1376	3	0	n/a	n/a	n/a	n/a	n/a
4089.808	n/a	RECOG_TARGET	2044904	n/a	LTP113	ltpFR	4	6	-1	DUST	508	2	-1	n/a	n/a	n/a	n/a	n/a
4090.468	n/a	RECOG_RESP	2045234	n/a	LTP113	ltpFR	4	6	-1	DUST	508	n/a	-1	n/a	n/a	n/a	n/a	n/a
4091.34	n/a	RECOG_CONF	2045670	n/a	LTP113	ltpFR	4	6	-1	DUST	508	2	-1	n/a	n/a	n/a	n/a	n/a
4092.766	n/a	RECOG_TARGET	2046383	n/a	LTP113	ltpFR	4	6	-1	RESTAURANT	1187	4	-1	n/a	n/a	n/a	n/a	n/a
4093.356	n/a	RECOG_RESP	2046678	n/a	LTP113	ltpFR	4	6	-1	RESTAURANT	1187	n/a	-1	n/a	n/a	n/a	n/a	n/a
4094.434	n/a	RECOG_CONF	2047217	n/a	LTP113	ltpFR	4	6	-1	RESTAURANT	1187	4	-1	n/a	n/a	n/a	n/a	n/a
4095.714	n/a	RECOG_TARGET	2047857	n/a	LTP113	ltpFR	4	6	0	SNORKEL	1336	5	0	n/a	n/a	n/a	n/a	n/a
4096.354	n/a	RECOG_RESP	2048177	n/a	LTP113	ltpFR	4	6	0	SNORKEL	1336	n/a	0	n/a	n/a	n/a	n/a	n/a
4097.236	n/a	RECOG_CONF	2048618	n/a	LTP113	ltpFR	4	6	0	SNORKEL	1336	5	0	n/a	n/a	n/a	n/a	n/a
4098.598	n/a	RECOG_TARGET	2049299	n/a	LTP113	ltpFR	4	6	0	FOX	598	1	1	n/a	n/a	n/a	n/a	n/a
4099.178	n/a	RECOG_RESP	2049589	n/a	LTP113	ltpFR	4	6	0	FOX	598	n/a	1	n/a	n/a	n/a	n/a	n/a
4100.202	n/a	RECOG_CONF	2050101	n/a	LTP113	ltpFR	4	6	0	FOX	598	1	1	n/a	n/a	n/a	n/a	n/a
4101.598	n/a	RECOG_LURE	2050799	n/a	LTP113	ltpFR	4	6	n/a	THIGH	1457	2	n/a	n/a	n/a	n/a	n/a	n/a
4103.02	n/a	RECOG_RESP	2051510	n/a	LTP113	ltpFR	4	6	n/a	THIGH	1457	n/a	n/a	n/a	n/a	n/a	n/a	n/a
4104.032	n/a	RECOG_CONF	2052016	n/a	LTP113	ltpFR	4	6	n/a	THIGH	1457	2	n/a	n/a	n/a	n/a	n/a	n/a
4105.446	n/a	RECOG_LURE	2052723	n/a	LTP113	ltpFR	4	6	n/a	MUMMY	932	3	n/a	n/a	n/a	n/a	n/a	n/a
4106.258	n/a	RECOG_RESP	2053129	n/a	LTP113	ltpFR	4	6	n/a	MUMMY	932	n/a	n/a	n/a	n/a	n/a	n/a	n/a
4107.166	n/a	RECOG_CONF	2053583	n/a	LTP113	ltpFR	4	6	n/a	MUMMY	932	3	n/a	n/a	n/a	n/a	n/a	n/a
4108.412	n/a	RECOG_TARGET	2054206	n/a	LTP113	ltpFR	4	6	0	THREAD	1460	5	0	n/a	n/a	n/a	n/a	n/a
4109.136	n/a	RECOG_RESP	2054568	n/a	LTP113	ltpFR	4	6	0	THREAD	1460	n/a	0	n/a	n/a	n/a	n/a	n/a
4109.958	n/a	RECOG_CONF	2054979	n/a	LTP113	ltpFR	4	6	0	THREAD	1460	5	0	n/a	n/a	n/a	n/a	n/a
4111.618	n/a	RECOG_TARGET	2055809	n/a	LTP113	ltpFR	4	6	-1	MONARCH	906	5	-1	n/a	n/a	n/a	n/a	n/a
4112.404	n/a	RECOG_RESP	2056202	n/a	LTP113	ltpFR	4	6	-1	MONARCH	906	n/a	-1	n/a	n/a	n/a	n/a	n/a
4113.342	n/a	RECOG_CONF	2056671	n/a	LTP113	ltpFR	4	6	-1	MONARCH	906	5	-1	n/a	n/a	n/a	n/a	n/a
4114.542	n/a	RECOG_TARGET	2057271	n/a	LTP113	ltpFR	4	6	-1	SENATE	1267	1	-1	n/a	n/a	n/a	n/a	n/a
4115.492	n/a	RECOG_RESP	2057746	n/a	LTP113	ltpFR	4	6	-1	SENATE	1267	n/a	-1	n/a	n/a	n/a	n/a	n/a
4116.324	n/a	RECOG_CONF	2058162	n/a	LTP113	ltpFR	4	6	-1	SENATE	1267	1	-1	n/a	n/a	n/a	n/a	n/a
4117.892	n/a	RECOG_TARGET	2058946	n/a	LTP113	ltpFR	4	6	0	CONTRACT	368	5	0	n/a	n/a	n/a	n/a	n/a
4118.67	n/a	RECOG_RESP	2059335	n/a	LTP113	ltpFR	4	6	0	CONTRACT	368	n/a	0	n/a	n/a	n/a	n/a	n/a
4119.458	n/a	RECOG_CONF	2059729	n/a	LTP113	ltpFR	4	6	0	CONTRACT	368	5	0	n/a	n/a	n/a	n/a	n/a
4120.816	n/a	RECOG_TARGET	2060408	n/a	LTP113	ltpFR	4	6	1	CHIMNEY	301	2	0	n/a	n/a	n/a	n/a	n/a
4121.748	n/a	RECOG_RESP	2060874	n/a	LTP113	ltpFR	4	6	1	CHIMNEY	301	n/a	0	n/a	n/a	n/a	n/a	n/a
4122.602	n/a	RECOG_CONF	2061301	n/a	LTP113	ltpFR	4	6	1	CHIMNEY	301	2	0	n/a	n/a	n/a	n/a	n/a
4124.29	n/a	RECOG_TARGET	2062145	n/a	LTP113	ltpFR	4	6	1	RAISIN	1163	3	1	n/a	n/a	n/a	n/a	n/a
4124.99	n/a	RECOG_RESP	2062495	n/a	LTP113	ltpFR	4	6	1	RAISIN	1163	n/a	1	n/a	n/a	n/a	n/a	n/a
4125.814	n/a	RECOG_CONF	2062907	n/a	LTP113	ltpFR	4	6	1	RAISIN	1163	3	1	n/a	n/a	n/a	n/a	n/a
4127.414	n/a	RECOG_TARGET	2063707	n/a	LTP113	ltpFR	4	6	-1	DONKEY	484	5	-1	n/a	n/a	n/a	n/a	n/a
4128.248	n/a	RECOG_RESP	2064124	n/a	LTP113	ltpFR	4	6	-1	DONKEY	484	n/a	-1	n/a	n/a	n/a	n/a	n/a
4129.884	n/a	RECOG_CONF	2064942	n/a	LTP113	ltpFR	4	6	-1	DONKEY	484	5	-1	n/a	n/a	n/a	n/a	n/a
4131.354	n/a	RECOG_LURE	2065677	n/a	LTP113	ltpFR	4	6	n/a	HEN	703	2	n/a	n/a	n/a	n/a	n/a	n/a
4132.488	n/a	RECOG_RESP	2066244	n/a	LTP113	ltpFR	4	6	n/a	HEN	703	n/a	n/a	n/a	n/a	n/a	n/a	n/a
4133.436	n/a	RECOG_CONF	2066718	n/a	LTP113	ltpFR	4	6	n/a	HEN	703	2	n/a	n/a	n/a	n/a	n/a	n/a
4134.668	n/a	RECOG_TARGET	2067334	n/a	LTP113	ltpFR	4	6	0	SPOOL	1356	4	1	n/a	n/a	n/a	n/a	n/a
4135.726	n/a	RECOG_RESP	2067863	n/a	LTP113	ltpFR	4	6	0	SPOOL	1356	n/a	1	n/a	n/a	n/a	n/a	n/a
4136.58	n/a	RECOG_CONF	2068290	n/a	LTP113	ltpFR	4	6	0	SPOOL	1356	4	1	n/a	n/a	n/a	n/a	n/a
4138.068	n/a	RECOG_LURE	2069034	n/a	LTP113	ltpFR	4	6	n/a	HATCHET	691	1	n/a	n/a	n/a	n/a	n/a	n/a
4139.134	n/a	RECOG_RESP	2069567	n/a	LTP113	ltpFR	4	6	n/a	HATCHET	691	n/a	n/a	n/a	n/a	n/a	n/a	n/a
4140.182	n/a	RECOG_CONF	2070091	n/a	LTP113	ltpFR	4	6	n/a	HATCHET	691	1	n/a	n/a	n/a	n/a	n/a	n/a
4141.444	n/a	RECOG_TARGET	2070722	n/a	LTP113	ltpFR	4	6	-1	AIRCRAFT	11	2	-1	n/a	n/a	n/a	n/a	n/a
4143.54	n/a	RECOG_RESP	2071770	n/a	LTP113	ltpFR	4	6	-1	AIRCRAFT	11	n/a	-1	n/a	n/a	n/a	n/a	n/a
4144.452	n/a	RECOG_CONF	2072226	n/a	LTP113	ltpFR	4	6	-1	AIRCRAFT	11	2	-1	n/a	n/a	n/a	n/a	n/a
4153.37	n/a	REC_START	2076685	n/a	LTP113	ltpFR	4	7	n/a	n/a	n/a	n/a	n/a	n/a	n/a	n/a	n/a	n/a
4153.406	n/a	RECOG_TARGET	2076703	n/a	LTP113	ltpFR	4	7	-1	SPATULA	1348	1	-1	n/a	n/a	n/a	n/a	n/a
4154.452	n/a	RECOG_RESP	2077226	n/a	LTP113	ltpFR	4	7	-1	SPATULA	1348	n/a	-1	n/a	n/a	n/a	n/a	n/a
4155.29	n/a	RECOG_CONF	2077645	n/a	LTP113	ltpFR	4	7	-1	SPATULA	1348	1	-1	n/a	n/a	n/a	n/a	n/a
4156.654	n/a	RECOG_TARGET	2078327	n/a	LTP113	ltpFR	4	7	0	BANKER	84	5	1	n/a	n/a	n/a	n/a	n/a
4157.386	n/a	RECOG_RESP	2078693	n/a	LTP113	ltpFR	4	7	0	BANKER	84	n/a	1	n/a	n/a	n/a	n/a	n/a
4158.064	n/a	RECOG_CONF	2079032	n/a	LTP113	ltpFR	4	7	0	BANKER	84	5	1	n/a	n/a	n/a	n/a	n/a
4159.38	n/a	RECOG_TARGET	2079690	n/a	LTP113	ltpFR	4	7	1	CHEEK	287	5	0	n/a	n/a	n/a	n/a	n/a
4160.04	n/a	RECOG_RESP	2080020	n/a	LTP113	ltpFR	4	7	1	CHEEK	287	n/a	0	n/a	n/a	n/a	n/a	n/a
4160.798	n/a	RECOG_CONF	2080399	n/a	LTP113	ltpFR	4	7	1	CHEEK	287	5	0	n/a	n/a	n/a	n/a	n/a
4162.186	n/a	RECOG_LURE	2081093	n/a	LTP113	ltpFR	4	7	n/a	FLESH	579	1	n/a	n/a	n/a	n/a	n/a	n/a
4163.842	n/a	RECOG_RESP	2081921	n/a	LTP113	ltpFR	4	7	n/a	FLESH	579	n/a	n/a	n/a	n/a	n/a	n/a	n/a
4165.118	n/a	RECOG_CONF	2082559	n/a	LTP113	ltpFR	4	7	n/a	FLESH	579	1	n/a	n/a	n/a	n/a	n/a	n/a
4168.344	n/a	RECOG_TARGET	2084172	n/a	LTP113	ltpFR	4	7	1	BEAD	103	5	0	n/a	n/a	n/a	n/a	n/a
4169.14	n/a	RECOG_RESP	2084570	n/a	LTP113	ltpFR	4	7	1	BEAD	103	n/a	0	n/a	n/a	n/a	n/a	n/a
4170.168	n/a	RECOG_CONF	2085084	n/a	LTP113	ltpFR	4	7	1	BEAD	103	5	0	n/a	n/a	n/a	n/a	n/a
4171.576	n/a	RECOG_LURE	2085788	n/a	LTP113	ltpFR	4	7	n/a	ORGAN	984	1	n/a	n/a	n/a	n/a	n/a	n/a
4173.1	n/a	RECOG_RESP	2086550	n/a	LTP113	ltpFR	4	7	n/a	ORGAN	984	n/a	n/a	n/a	n/a	n/a	n/a	n/a
4174.148	n/a	RECOG_CONF	2087074	n/a	LTP113	ltpFR	4	7	n/a	ORGAN	984	1	n/a	n/a	n/a	n/a	n/a	n/a
4175.816	n/a	RECOG_TARGET	2087908	n/a	LTP113	ltpFR	4	7	0	LEMON	810	5	0	n/a	n/a	n/a	n/a	n/a
4176.538	n/a	RECOG_RESP	2088269	n/a	LTP113	ltpFR	4	7	0	LEMON	810	n/a	0	n/a	n/a	n/a	n/a	n/a
4177.692	n/a	RECOG_CONF	2088846	n/a	LTP113	ltpFR	4	7	0	LEMON	810	5	0	n/a	n/a	n/a	n/a	n/a
4179.23	n/a	RECOG_TARGET	2089615	n/a	LTP113	ltpFR	4	7	1	DRIVER	499	3	1	n/a	n/a	n/a	n/a	n/a
4180.934	n/a	RECOG_RESP	2090467	n/a	LTP113	ltpFR	4	7	1	DRIVER	499	n/a	1	n/a	n/a	n/a	n/a	n/a
4181.942	n/a	RECOG_CONF	2090971	n/a	LTP113	ltpFR	4	7	1	DRIVER	499	3	1	n/a	n/a	n/a	n/a	n/a
4183.122	n/a	RECOG_TARGET	2091561	n/a	LTP113	ltpFR	4	7	1	HOME	712	5	0	n/a	n/a	n/a	n/a	n/a
4184.096	n/a	RECOG_RESP	2092048	n/a	LTP113	ltpFR	4	7	1	HOME	712	n/a	0	n/a	n/a	n/a	n/a	n/a
4185.244	n/a	RECOG_CONF	2092622	n/a	LTP113	ltpFR	4	7	1	HOME	712	5	0	n/a	n/a	n/a	n/a	n/a
4186.728	n/a	RECOG_LURE	2093364	n/a	LTP113	ltpFR	4	7	n/a	JURY	766	2	n/a	n/a	n/a	n/a	n/a	n/a
4189.164	n/a	RECOG_RESP	2094582	n/a	LTP113	ltpFR	4	7	n/a	JURY	766	n/a	n/a	n/a	n/a	n/a	n/a	n/a
4190.542	n/a	RECOG_CONF	2095271	n/a	LTP113	ltpFR	4	7	n/a	JURY	766	2	n/a	n/a	n/a	n/a	n/a	n/a
4191.952	n/a	RECOG_LURE	2095976	n/a	LTP113	ltpFR	4	7	n/a	WINGS	1614	3	n/a	n/a	n/a	n/a	n/a	n/a
4193.126	n/a	RECOG_RESP	2096563	n/a	LTP113	ltpFR	4	7	n/a	WINGS	1614	n/a	n/a	n/a	n/a	n/a	n/a	n/a
4194.184	n/a	RECOG_CONF	2097092	n/a	LTP113	ltpFR	4	7	n/a	WINGS	1614	3	n/a	n/a	n/a	n/a	n/a	n/a
4195.668	n/a	RECOG_TARGET	2097834	n/a	LTP113	ltpFR	4	7	1	JUGGLER	763	5	1	n/a	n/a	n/a	n/a	n/a
4196.38	n/a	RECOG_RESP	2098190	n/a	LTP113	ltpFR	4	7	1	JUGGLER	763	n/a	1	n/a	n/a	n/a	n/a	n/a
4197.338	n/a	RECOG_CONF	2098669	n/a	LTP113	ltpFR	4	7	1	JUGGLER	763	5	1	n/a	n/a	n/a	n/a	n/a
4198.75	n/a	RECOG_TARGET	2099375	n/a	LTP113	ltpFR	4	7	-1	KLEENEX	782	5	-1	n/a	n/a	n/a	n/a	n/a
4199.542	n/a	RECOG_RESP	2099771	n/a	LTP113	ltpFR	4	7	-1	KLEENEX	782	n/a	-1	n/a	n/a	n/a	n/a	n/a
4200.63	n/a	RECOG_CONF	2100315	n/a	LTP113	ltpFR	4	7	-1	KLEENEX	782	5	-1	n/a	n/a	n/a	n/a	n/a
4202.04	n/a	RECOG_TARGET	2101020	n/a	LTP113	ltpFR	4	7	1	LASER	801	5	0	n/a	n/a	n/a	n/a	n/a
4204.256	n/a	RECOG_RESP	2102128	n/a	LTP113	ltpFR	4	7	1	LASER	801	n/a	0	n/a	n/a	n/a	n/a	n/a
4205.528	n/a	RECOG_CONF	2102764	n/a	LTP113	ltpFR	4	7	1	LASER	801	5	0	n/a	n/a	n/a	n/a	n/a
4206.914	n/a	RECOG_TARGET	2103457	n/a	LTP113	ltpFR	4	7	-1	BAY	102	1	-1	n/a	n/a	n/a	n/a	n/a
4210.418	n/a	RECOG_RESP	2105209	n/a	LTP113	ltpFR	4	7	-1	BAY	102	n/a	-1	n/a	n/a	n/a	n/a	n/a
4211.406	n/a	RECOG_CONF	2105703	n/a	LTP113	ltpFR	4	7	-1	BAY	102	1	-1	n/a	n/a	n/a	n/a	n/a
4212.928	n/a	RECOG_TARGET	2106464	n/a	LTP113	ltpFR	4	7	0	BEET	115	5	0	n/a	n/a	n/a	n/a	n/a
4214.06	n/a	RECOG_RESP	2107030	n/a	LTP113	ltpFR	4	7	0	BEET	115	n/a	0	n/a	n/a	n/a	n/a	n/a
4214.978	n/a	RECOG_CONF	2107489	n/a	LTP113	ltpFR	4	7	0	BEET	115	5	0	n/a	n/a	n/a	n/a	n/a
4216.43	n/a	RECOG_TARGET	2108215	n/a	LTP113	ltpFR	4	7	1	POPE	1105	5	1	n/a	n/a	n/a	n/a	n/a
