onset	duration	trial_type	sample	stim_file	subject	experiment	session	trial	task	item_name	item_num	recog_resp	recog_conf	resp	answer	test_x	test_y	test_z	color_r	color_g	color_b	case	font
221.09	n/a	SESS_START	110545	n/a	LTP233	ltpFR	12	n/a	n/a	n/a	n/a	1	1	n/a	n/a	0	0	0	n/a	n/a	n/a	n/a	n/a
244.938	n/a	START	122469	n/a	LTP233	ltpFR	12	n/a	n/a	n/a	n/a	n/a	n/a	n/a	n/a	n/a	n/a	n/a	n/a	n/a	n/a	n/a	n/a
244.99	n/a	PROB	122495	n/a	LTP233	ltpFR	12	n/a	n/a	n/a	n/a	n/a	n/a	n/a	16	6	1	9	n/a	n/a	n/a	n/a	n/a
246.848	n/a	PROB	123424	n/a	LTP233	ltpFR	12	n/a	n/a	n/a	n/a	n/a	n/a	n/a	15	3	8	4	n/a	n/a	n/a	n/a	n/a
248.166	n/a	PROB	124083	n/a	LTP233	ltpFR	12	n/a	n/a	n/a	n/a	n/a	n/a	n/a	18	8	2	8	n/a	n/a	n/a	n/a	n/a
249.358	n/a	PROB	124679	n/a	LTP233	ltpFR	12	n/a	n/a	n/a	n/a	n/a	n/a	n/a	12	3	8	1	n/a	n/a	n/a	n/a	n/a
250.948	n/a	PROB	125474	n/a	LTP233	ltpFR	12	n/a	n/a	n/a	n/a	n/a	n/a	n/a	22	5	8	9	n/a	n/a	n/a	n/a	n/a
252.854	n/a	PROB	126427	n/a	LTP233	ltpFR	12	n/a	n/a	n/a	n/a	n/a	n/a	n/a	16	7	3	6	n/a	n/a	n/a	n/a	n/a
254.094	n/a	PROB	127047	n/a	LTP233	ltpFR	12	n/a	n/a	n/a	n/a	n/a	n/a	n/a	16	6	4	6	n/a	n/a	n/a	n/a	n/a
256.736	n/a	PROB	128368	n/a	LTP233	ltpFR	12	n/a	n/a	n/a	n/a	n/a	n/a	n/a	23	8	9	6	n/a	n/a	n/a	n/a	n/a
258.41	n/a	PROB	129205	n/a	LTP233	ltpFR	12	n/a	n/a	n/a	n/a	n/a	n/a	n/a	13	2	4	7	n/a	n/a	n/a	n/a	n/a
259.764	n/a	PROB	129882	n/a	LTP233	ltpFR	12	n/a	n/a	n/a	n/a	n/a	n/a	n/a	20	8	4	8	n/a	n/a	n/a	n/a	n/a
261.5	n/a	PROB	130750	n/a	LTP233	ltpFR	12	n/a	n/a	n/a	n/a	n/a	n/a	n/a	2	1	7	4	n/a	n/a	n/a	n/a	n/a
262.62	n/a	PROB	131310	n/a	LTP233	ltpFR	12	n/a	n/a	n/a	n/a	n/a	n/a	n/a	11	6	2	3	n/a	n/a	n/a	n/a	n/a
264.112	n/a	STOP	132056	n/a	LTP233	ltpFR	12	n/a	n/a	n/a	n/a	n/a	n/a	n/a	n/a	n/a	n/a	n/a	n/a	n/a	n/a	n/a	n/a
350.896	n/a	START	175448	n/a	LTP233	ltpFR	12	n/a	n/a	n/a	n/a	n/a	n/a	n/a	n/a	n/a	n/a	n/a	n/a	n/a	n/a	n/a	n/a
352.402	n/a	PROB	176201	n/a	LTP233	ltpFR	12	n/a	n/a	n/a	n/a	n/a	n/a	n/a	11	4	4	3	n/a	n/a	n/a	n/a	n/a
353.606	n/a	PROB	176803	n/a	LTP233	ltpFR	12	n/a	n/a	n/a	n/a	n/a	n/a	n/a	14	9	8	7	n/a	n/a	n/a	n/a	n/a
355.078	n/a	PROB	177539	n/a	LTP233	ltpFR	12	n/a	n/a	n/a	n/a	n/a	n/a	n/a	20	6	5	9	n/a	n/a	n/a	n/a	n/a
356.566	n/a	PROB	178283	n/a	LTP233	ltpFR	12	n/a	n/a	n/a	n/a	n/a	n/a	n/a	9	5	3	1	n/a	n/a	n/a	n/a	n/a
357.766	n/a	STOP	178883	n/a	LTP233	ltpFR	12	n/a	n/a	n/a	n/a	n/a	n/a	n/a	n/a	n/a	n/a	n/a	n/a	n/a	n/a	n/a	n/a
360.098	n/a	WORD	180049	wordpools/wasnorm_wordpool_less_exclusions.txt	LTP233	ltpFR	12	1	0	SIRLOIN	1311	0	n/a	0	n/a	0	0	0	0.57763671875	0.412841796875	1	lower	amplitud.ttf
363.11	n/a	START	181555	n/a	LTP233	ltpFR	12	n/a	n/a	n/a	n/a	n/a	n/a	n/a	n/a	n/a	n/a	n/a	n/a	n/a	n/a	n/a	n/a
364.114	n/a	PROB	182057	n/a	LTP233	ltpFR	12	n/a	n/a	n/a	n/a	n/a	n/a	n/a	14	3	9	2	n/a	n/a	n/a	n/a	n/a
365.886	n/a	PROB	182943	n/a	LTP233	ltpFR	12	n/a	n/a	n/a	n/a	n/a	n/a	n/a	16	5	2	9	n/a	n/a	n/a	n/a	n/a
367.356	n/a	PROB	183678	n/a	LTP233	ltpFR	12	n/a	n/a	n/a	n/a	n/a	n/a	n/a	16	9	4	1	n/a	n/a	n/a	n/a	n/a
370.19	n/a	STOP	185095	n/a	LTP233	ltpFR	12	n/a	n/a	n/a	n/a	n/a	n/a	n/a	n/a	n/a	n/a	n/a	n/a	n/a	n/a	n/a	n/a
372.076	n/a	WORD	186038	wordpools/wasnorm_wordpool_less_exclusions.txt	LTP233	ltpFR	12	1	0	PITCHFORK	1078	n/a	n/a	1	n/a	0	0	0	0.57763671875	0.412841796875	1	lower	amplitud.ttf
375.088	n/a	START	187544	n/a	LTP233	ltpFR	12	n/a	n/a	n/a	n/a	n/a	n/a	n/a	n/a	n/a	n/a	n/a	n/a	n/a	n/a	n/a	n/a
376.192	n/a	PROB	188096	n/a	LTP233	ltpFR	12	n/a	n/a	n/a	n/a	n/a	n/a	n/a	7	2	1	4	n/a	n/a	n/a	n/a	n/a
377.38	n/a	PROB	188690	n/a	LTP233	ltpFR	12	n/a	n/a	n/a	n/a	n/a	n/a	n/a	20	6	6	8	n/a	n/a	n/a	n/a	n/a
378.434	n/a	PROB	189217	n/a	LTP233	ltpFR	12	n/a	n/a	n/a	n/a	n/a	n/a	n/a	17	5	9	3	n/a	n/a	n/a	n/a	n/a
380.006	n/a	PROB	190003	n/a	LTP233	ltpFR	12	n/a	n/a	n/a	n/a	n/a	n/a	n/a	23	9	9	5	n/a	n/a	n/a	n/a	n/a
381.546	n/a	PROB	190773	n/a	LTP233	ltpFR	12	n/a	n/a	n/a	n/a	n/a	n/a	n/a	20	6	5	9	n/a	n/a	n/a	n/a	n/a
382.718	n/a	STOP	191359	n/a	LTP233	ltpFR	12	n/a	n/a	n/a	n/a	n/a	n/a	n/a	n/a	n/a	n/a	n/a	n/a	n/a	n/a	n/a	n/a
384.056	n/a	WORD	192028	wordpools/wasnorm_wordpool_less_exclusions.txt	LTP233	ltpFR	12	1	0	HAY	693	n/a	n/a	0	n/a	0	0	0	0.57763671875	0.412841796875	1	lower	amplitud.ttf
387.068	n/a	START	193534	n/a	LTP233	ltpFR	12	n/a	n/a	n/a	n/a	n/a	n/a	n/a	n/a	n/a	n/a	n/a	n/a	n/a	n/a	n/a	n/a
388.138	n/a	PROB	194069	n/a	LTP233	ltpFR	12	n/a	n/a	n/a	n/a	n/a	n/a	n/a	17	9	5	3	n/a	n/a	n/a	n/a	n/a
391.882	n/a	PROB	195941	n/a	LTP233	ltpFR	12	n/a	n/a	n/a	n/a	n/a	n/a	n/a	21	1	9	2	n/a	n/a	n/a	n/a	n/a
395.068	n/a	STOP	197534	n/a	LTP233	ltpFR	12	n/a	n/a	n/a	n/a	n/a	n/a	n/a	n/a	n/a	n/a	n/a	n/a	n/a	n/a	n/a	n/a
396.064	n/a	WORD	198032	wordpools/wasnorm_wordpool_less_exclusions.txt	LTP233	ltpFR	12	1	0	SKETCH	1315	n/a	n/a	0	n/a	0	0	0	0.57763671875	0.412841796875	1	lower	amplitud.ttf
399.08	n/a	START	199540	n/a	LTP233	ltpFR	12	n/a	n/a	n/a	n/a	n/a	n/a	n/a	n/a	n/a	n/a	n/a	n/a	n/a	n/a	n/a	n/a
400.248	n/a	PROB	200124	n/a	LTP233	ltpFR	12	n/a	n/a	n/a	n/a	n/a	n/a	n/a	13	3	3	7	n/a	n/a	n/a	n/a	n/a
401.57	n/a	PROB	200785	n/a	LTP233	ltpFR	12	n/a	n/a	n/a	n/a	n/a	n/a	n/a	20	2	9	9	n/a	n/a	n/a	n/a	n/a
403.594	n/a	PROB	201797	n/a	LTP233	ltpFR	12	n/a	n/a	n/a	n/a	n/a	n/a	n/a	15	4	9	2	n/a	n/a	n/a	n/a	n/a
404.882	n/a	PROB	202441	n/a	LTP233	ltpFR	12	n/a	n/a	n/a	n/a	n/a	n/a	n/a	15	3	3	9	n/a	n/a	n/a	n/a	n/a
406.728	n/a	STOP	203364	n/a	LTP233	ltpFR	12	n/a	n/a	n/a	n/a	n/a	n/a	n/a	n/a	n/a	n/a	n/a	n/a	n/a	n/a	n/a	n/a
408.262	n/a	WORD	204131	wordpools/wasnorm_wordpool_less_exclusions.txt	LTP233	ltpFR	12	1	0	WALL	1582	n/a	n/a	1	n/a	0	0	0	0.57763671875	0.412841796875	1	lower	amplitud.ttf
411.278	n/a	START	205639	n/a	LTP233	ltpFR	12	n/a	n/a	n/a	n/a	n/a	n/a	n/a	n/a	n/a	n/a	n/a	n/a	n/a	n/a	n/a	n/a
412.398	n/a	PROB	206199	n/a	LTP233	ltpFR	12	n/a	n/a	n/a	n/a	n/a	n/a	n/a	20	5	9	6	n/a	n/a	n/a	n/a	n/a
414.016	n/a	PROB	207008	n/a	LTP233	ltpFR	12	n/a	n/a	n/a	n/a	n/a	n/a	n/a	13	7	4	2	n/a	n/a	n/a	n/a	n/a
415.776	n/a	PROB	207888	n/a	LTP233	ltpFR	12	n/a	n/a	n/a	n/a	n/a	n/a	n/a	19	6	5	8	n/a	n/a	n/a	n/a	n/a
417.446	n/a	PROB	208723	n/a	LTP233	ltpFR	12	n/a	n/a	n/a	n/a	n/a	n/a	n/a	15	3	4	8	n/a	n/a	n/a	n/a	n/a
418.544	n/a	STOP	209272	n/a	LTP233	ltpFR	12	n/a	n/a	n/a	n/a	n/a	n/a	n/a	n/a	n/a	n/a	n/a	n/a	n/a	n/a	n/a	n/a
420.128	n/a	WORD	210064	wordpools/wasnorm_wordpool_less_exclusions.txt	LTP233	ltpFR	12	1	0	KIDNEY	776	n/a	n/a	0	n/a	0	0	0	0.57763671875	0.412841796875	1	lower	amplitud.ttf
423.14	n/a	START	211570	n/a	LTP233	ltpFR	12	n/a	n/a	n/a	n/a	n/a	n/a	n/a	n/a	n/a	n/a	n/a	n/a	n/a	n/a	n/a	n/a
423.958	n/a	PROB	211979	n/a	LTP233	ltpFR	12	n/a	n/a	n/a	n/a	n/a	n/a	n/a	17	9	6	2	n/a	n/a	n/a	n/a	n/a
426.114	n/a	PROB	213057	n/a	LTP233	ltpFR	12	n/a	n/a	n/a	n/a	n/a	n/a	n/a	16	2	7	7	n/a	n/a	n/a	n/a	n/a
427.584	n/a	PROB	213792	n/a	LTP233	ltpFR	12	n/a	n/a	n/a	n/a	n/a	n/a	n/a	7	3	2	2	n/a	n/a	n/a	n/a	n/a
428.776	n/a	PROB	214388	n/a	LTP233	ltpFR	12	n/a	n/a	n/a	n/a	n/a	n/a	n/a	9	4	1	4	n/a	n/a	n/a	n/a	n/a
430.904	n/a	STOP	215452	n/a	LTP233	ltpFR	12	n/a	n/a	n/a	n/a	n/a	n/a	n/a	n/a	n/a	n/a	n/a	n/a	n/a	n/a	n/a	n/a
431.984	n/a	WORD	215992	wordpools/wasnorm_wordpool_less_exclusions.txt	LTP233	ltpFR	12	1	0	SUNRISE	1407	n/a	n/a	1	n/a	0	0	0	0.57763671875	0.412841796875	1	lower	amplitud.ttf
435.0	n/a	START	217500	n/a	LTP233	ltpFR	12	n/a	n/a	n/a	n/a	n/a	n/a	n/a	n/a	n/a	n/a	n/a	n/a	n/a	n/a	n/a	n/a
435.87	n/a	PROB	217935	n/a	LTP233	ltpFR	12	n/a	n/a	n/a	n/a	n/a	n/a	n/a	18	9	4	5	n/a	n/a	n/a	n/a	n/a
437.242	n/a	PROB	218621	n/a	LTP233	ltpFR	12	n/a	n/a	n/a	n/a	n/a	n/a	n/a	17	4	6	7	n/a	n/a	n/a	n/a	n/a
438.728	n/a	PROB	219364	n/a	LTP233	ltpFR	12	n/a	n/a	n/a	n/a	n/a	n/a	n/a	14	2	9	3	n/a	n/a	n/a	n/a	n/a
440.1	n/a	PROB	220050	n/a	LTP233	ltpFR	12	n/a	n/a	n/a	n/a	n/a	n/a	n/a	13	3	3	7	n/a	n/a	n/a	n/a	n/a
441.238	n/a	PROB	220619	n/a	LTP233	ltpFR	12	n/a	n/a	n/a	n/a	n/a	n/a	n/a	11	6	1	4	n/a	n/a	n/a	n/a	n/a
442.404	n/a	STOP	221202	n/a	LTP233	ltpFR	12	n/a	n/a	n/a	n/a	n/a	n/a	n/a	n/a	n/a	n/a	n/a	n/a	n/a	n/a	n/a	n/a
444.132	n/a	WORD	222066	wordpools/wasnorm_wordpool_less_exclusions.txt	LTP233	ltpFR	12	1	0	COD	340	n/a	n/a	0	n/a	0	0	0	0.57763671875	0.412841796875	1	lower	amplitud.ttf
447.148	n/a	START	223574	n/a	LTP233	ltpFR	12	n/a	n/a	n/a	n/a	n/a	n/a	n/a	n/a	n/a	n/a	n/a	n/a	n/a	n/a	n/a	n/a
448.202	n/a	PROB	224101	n/a	LTP233	ltpFR	12	n/a	n/a	n/a	n/a	n/a	n/a	n/a	17	9	5	1	n/a	n/a	n/a	n/a	n/a
449.936	n/a	PROB	224968	n/a	LTP233	ltpFR	12	n/a	n/a	n/a	n/a	n/a	n/a	n/a	14	4	1	9	n/a	n/a	n/a	n/a	n/a
452.196	n/a	PROB	226098	n/a	LTP233	ltpFR	12	n/a	n/a	n/a	n/a	n/a	n/a	n/a	26	8	9	9	n/a	n/a	n/a	n/a	n/a
453.946	n/a	STOP	226973	n/a	LTP233	ltpFR	12	n/a	n/a	n/a	n/a	n/a	n/a	n/a	n/a	n/a	n/a	n/a	n/a	n/a	n/a	n/a	n/a
456.266	n/a	WORD	228133	wordpools/wasnorm_wordpool_less_exclusions.txt	LTP233	ltpFR	12	1	0	FROST	609	n/a	n/a	0	n/a	0	0	0	0.57763671875	0.412841796875	1	lower	amplitud.ttf
459.278	n/a	START	229639	n/a	LTP233	ltpFR	12	n/a	n/a	n/a	n/a	n/a	n/a	n/a	n/a	n/a	n/a	n/a	n/a	n/a	n/a	n/a	n/a
460.182	n/a	PROB	230091	n/a	LTP233	ltpFR	12	n/a	n/a	n/a	n/a	n/a	n/a	n/a	18	9	2	7	n/a	n/a	n/a	n/a	n/a
461.75	n/a	PROB	230875	n/a	LTP233	ltpFR	12	n/a	n/a	n/a	n/a	n/a	n/a	n/a	12	5	6	1	n/a	n/a	n/a	n/a	n/a
463.142	n/a	PROB	231571	n/a	LTP233	ltpFR	12	n/a	n/a	n/a	n/a	n/a	n/a	n/a	22	9	5	8	n/a	n/a	n/a	n/a	n/a
464.994	n/a	PROB	232497	n/a	LTP233	ltpFR	12	n/a	n/a	n/a	n/a	n/a	n/a	n/a	16	5	3	8	n/a	n/a	n/a	n/a	n/a
466.428	n/a	STOP	233214	n/a	LTP233	ltpFR	12	n/a	n/a	n/a	n/a	n/a	n/a	n/a	n/a	n/a	n/a	n/a	n/a	n/a	n/a	n/a	n/a
468.212	n/a	WORD	234106	wordpools/wasnorm_wordpool_less_exclusions.txt	LTP233	ltpFR	12	1	0	TIDE	1465	n/a	n/a	0	n/a	0	0	0	0.57763671875	0.412841796875	1	lower	amplitud.ttf
471.224	n/a	START	235612	n/a	LTP233	ltpFR	12	n/a	n/a	n/a	n/a	n/a	n/a	n/a	n/a	n/a	n/a	n/a	n/a	n/a	n/a	n/a	n/a
472.192	n/a	PROB	236096	n/a	LTP233	ltpFR	12	n/a	n/a	n/a	n/a	n/a	n/a	n/a	16	7	5	4	n/a	n/a	n/a	n/a	n/a
476.158	n/a	PROB	238079	n/a	LTP233	ltpFR	12	n/a	n/a	n/a	n/a	n/a	n/a	n/a	13	3	3	7	n/a	n/a	n/a	n/a	n/a
478.052	n/a	STOP	239026	n/a	LTP233	ltpFR	12	n/a	n/a	n/a	n/a	n/a	n/a	n/a	n/a	n/a	n/a	n/a	n/a	n/a	n/a	n/a	n/a
480.358	n/a	WORD	240179	wordpools/wasnorm_wordpool_less_exclusions.txt	LTP233	ltpFR	12	1	0	HAWK	692	n/a	n/a	0	n/a	0	0	0	0.57763671875	0.412841796875	1	lower	amplitud.ttf
483.37	n/a	START	241685	n/a	LTP233	ltpFR	12	n/a	n/a	n/a	n/a	n/a	n/a	n/a	n/a	n/a	n/a	n/a	n/a	n/a	n/a	n/a	n/a
484.552	n/a	PROB	242276	n/a	LTP233	ltpFR	12	n/a	n/a	n/a	n/a	n/a	n/a	n/a	22	7	6	9	n/a	n/a	n/a	n/a	n/a
486.226	n/a	PROB	243113	n/a	LTP233	ltpFR	12	n/a	n/a	n/a	n/a	n/a	n/a	n/a	18	8	7	3	n/a	n/a	n/a	n/a	n/a
487.916	n/a	PROB	243958	n/a	LTP233	ltpFR	12	n/a	n/a	n/a	n/a	n/a	n/a	n/a	10	2	7	1	n/a	n/a	n/a	n/a	n/a
489.388	n/a	PROB	244694	n/a	LTP233	ltpFR	12	n/a	n/a	n/a	n/a	n/a	n/a	n/a	19	9	2	8	n/a	n/a	n/a	n/a	n/a
491.004	n/a	STOP	245502	n/a	LTP233	ltpFR	12	n/a	n/a	n/a	n/a	n/a	n/a	n/a	n/a	n/a	n/a	n/a	n/a	n/a	n/a	n/a	n/a
492.286	n/a	WORD	246143	wordpools/wasnorm_wordpool_less_exclusions.txt	LTP233	ltpFR	12	1	0	MARKER	870	n/a	n/a	0	n/a	0	0	0	0.57763671875	0.412841796875	1	lower	amplitud.ttf
495.3	n/a	START	247650	n/a	LTP233	ltpFR	12	n/a	n/a	n/a	n/a	n/a	n/a	n/a	n/a	n/a	n/a	n/a	n/a	n/a	n/a	n/a	n/a
496.32	n/a	PROB	248160	n/a	LTP233	ltpFR	12	n/a	n/a	n/a	n/a	n/a	n/a	n/a	17	3	6	8	n/a	n/a	n/a	n/a	n/a
497.636	n/a	PROB	248818	n/a	LTP233	ltpFR	12	n/a	n/a	n/a	n/a	n/a	n/a	n/a	12	2	3	7	n/a	n/a	n/a	n/a	n/a
499.544	n/a	PROB	249772	n/a	LTP233	ltpFR	12	n/a	n/a	n/a	n/a	n/a	n/a	n/a	11	2	2	7	n/a	n/a	n/a	n/a	n/a
500.814	n/a	PROB	250407	n/a	LTP233	ltpFR	12	n/a	n/a	n/a	n/a	n/a	n/a	n/a	9	4	2	3	n/a	n/a	n/a	n/a	n/a
502.052	n/a	STOP	251026	n/a	LTP233	ltpFR	12	n/a	n/a	n/a	n/a	n/a	n/a	n/a	n/a	n/a	n/a	n/a	n/a	n/a	n/a	n/a	n/a
504.448	n/a	WORD	252224	wordpools/wasnorm_wordpool_less_exclusions.txt	LTP233	ltpFR	12	1	0	FLESH	579	n/a	n/a	0	n/a	0	0	0	0.57763671875	0.412841796875	1	lower	amplitud.ttf
507.46	n/a	START	253730	n/a	LTP233	ltpFR	12	n/a	n/a	n/a	n/a	n/a	n/a	n/a	n/a	n/a	n/a	n/a	n/a	n/a	n/a	n/a	n/a
508.53	n/a	PROB	254265	n/a	LTP233	ltpFR	12	n/a	n/a	n/a	n/a	n/a	n/a	n/a	18	9	7	2	n/a	n/a	n/a	n/a	n/a
509.866	n/a	PROB	254933	n/a	LTP233	ltpFR	12	n/a	n/a	n/a	n/a	n/a	n/a	n/a	14	7	1	6	n/a	n/a	n/a	n/a	n/a
511.154	n/a	PROB	255577	n/a	LTP233	ltpFR	12	n/a	n/a	n/a	n/a	n/a	n/a	n/a	18	8	8	2	n/a	n/a	n/a	n/a	n/a
512.28	n/a	PROB	256140	n/a	LTP233	ltpFR	12	n/a	n/a	n/a	n/a	n/a	n/a	n/a	12	7	4	1	n/a	n/a	n/a	n/a	n/a
513.384	n/a	PROB	256692	n/a	LTP233	ltpFR	12	n/a	n/a	n/a	n/a	n/a	n/a	n/a	16	7	1	8	n/a	n/a	n/a	n/a	n/a
514.622	n/a	STOP	257311	n/a	LTP233	ltpFR	12	n/a	n/a	n/a	n/a	n/a	n/a	n/a	n/a	n/a	n/a	n/a	n/a	n/a	n/a	n/a	n/a
516.396	n/a	WORD	258198	wordpools/wasnorm_wordpool_less_exclusions.txt	LTP233	ltpFR	12	1	0	MOON	914	n/a	n/a	1	n/a	0	0	0	0.57763671875	0.412841796875	1	lower	amplitud.ttf
519.408	n/a	START	259704	n/a	LTP233	ltpFR	12	n/a	n/a	n/a	n/a	n/a	n/a	n/a	n/a	n/a	n/a	n/a	n/a	n/a	n/a	n/a	n/a
520.46	n/a	PROB	260230	n/a	LTP233	ltpFR	12	n/a	n/a	n/a	n/a	n/a	n/a	n/a	22	8	6	8	n/a	n/a	n/a	n/a	n/a
521.866	n/a	PROB	260933	n/a	LTP233	ltpFR	12	n/a	n/a	n/a	n/a	n/a	n/a	n/a	19	8	8	3	n/a	n/a	n/a	n/a	n/a
523.234	n/a	PROB	261617	n/a	LTP233	ltpFR	12	n/a	n/a	n/a	n/a	n/a	n/a	n/a	16	8	4	4	n/a	n/a	n/a	n/a	n/a
524.388	n/a	PROB	262194	n/a	LTP233	ltpFR	12	n/a	n/a	n/a	n/a	n/a	n/a	n/a	9	6	2	1	n/a	n/a	n/a	n/a	n/a
525.576	n/a	PROB	262788	n/a	LTP233	ltpFR	12	n/a	n/a	n/a	n/a	n/a	n/a	n/a	14	4	1	9	n/a	n/a	n/a	n/a	n/a
526.71	n/a	STOP	263355	n/a	LTP233	ltpFR	12	n/a	n/a	n/a	n/a	n/a	n/a	n/a	n/a	n/a	n/a	n/a	n/a	n/a	n/a	n/a	n/a
528.34	n/a	WORD	264170	wordpools/wasnorm_wordpool_less_exclusions.txt	LTP233	ltpFR	12	1	0	TREASURE	1500	n/a	n/a	1	n/a	0	0	0	0.57763671875	0.412841796875	1	lower	amplitud.ttf
531.352	n/a	START	265676	n/a	LTP233	ltpFR	12	n/a	n/a	n/a	n/a	n/a	n/a	n/a	n/a	n/a	n/a	n/a	n/a	n/a	n/a	n/a	n/a
532.452	n/a	PROB	266226	n/a	LTP233	ltpFR	12	n/a	n/a	n/a	n/a	n/a	n/a	n/a	15	8	1	6	n/a	n/a	n/a	n/a	n/a
533.778	n/a	PROB	266889	n/a	LTP233	ltpFR	12	n/a	n/a	n/a	n/a	n/a	n/a	n/a	15	4	7	4	n/a	n/a	n/a	n/a	n/a
534.794	n/a	PROB	267397	n/a	LTP233	ltpFR	12	n/a	n/a	n/a	n/a	n/a	n/a	n/a	12	2	5	5	n/a	n/a	n/a	n/a	n/a
536.122	n/a	PROB	268061	n/a	LTP233	ltpFR	12	n/a	n/a	n/a	n/a	n/a	n/a	n/a	14	6	3	5	n/a	n/a	n/a	n/a	n/a
537.188	n/a	PROB	268594	n/a	LTP233	ltpFR	12	n/a	n/a	n/a	n/a	n/a	n/a	n/a	12	2	3	6	n/a	n/a	n/a	n/a	n/a
538.216	n/a	STOP	269108	n/a	LTP233	ltpFR	12	n/a	n/a	n/a	n/a	n/a	n/a	n/a	n/a	n/a	n/a	n/a	n/a	n/a	n/a	n/a	n/a
540.32	n/a	WORD	270160	wordpools/wasnorm_wordpool_less_exclusions.txt	LTP233	ltpFR	12	1	0	MERMAID	887	n/a	n/a	1	n/a	0	0	0	0.57763671875	0.412841796875	1	lower	amplitud.ttf
543.332	n/a	START	271666	n/a	LTP233	ltpFR	12	n/a	n/a	n/a	n/a	n/a	n/a	n/a	n/a	n/a	n/a	n/a	n/a	n/a	n/a	n/a	n/a
544.482	n/a	PROB	272241	n/a	LTP233	ltpFR	12	n/a	n/a	n/a	n/a	n/a	n/a	n/a	16	9	6	2	n/a	n/a	n/a	n/a	n/a
545.786	n/a	PROB	272893	n/a	LTP233	ltpFR	12	n/a	n/a	n/a	n/a	n/a	n/a	n/a	15	7	1	7	n/a	n/a	n/a	n/a	n/a
547.192	n/a	PROB	273596	n/a	LTP233	ltpFR	12	n/a	n/a	n/a	n/a	n/a	n/a	n/a	4	1	3	1	n/a	n/a	n/a	n/a	n/a
548.38	n/a	PROB	274190	n/a	LTP233	ltpFR	12	n/a	n/a	n/a	n/a	n/a	n/a	n/a	13	6	6	1	n/a	n/a	n/a	n/a	n/a
549.638	n/a	PROB	274819	n/a	LTP233	ltpFR	12	n/a	n/a	n/a	n/a	n/a	n/a	n/a	16	7	4	5	n/a	n/a	n/a	n/a	n/a
550.694	n/a	STOP	275347	n/a	LTP233	ltpFR	12	n/a	n/a	n/a	n/a	n/a	n/a	n/a	n/a	n/a	n/a	n/a	n/a	n/a	n/a	n/a	n/a
553.188	n/a	REC_START	276594	n/a	LTP233	ltpFR	12	1	n/a	n/a	n/a	n/a	n/a	n/a	n/a	0	0	0	n/a	n/a	n/a	n/a	n/a
555.248	n/a	REC_WORD	277624	wordpools/wasnorm_wordpool_less_exclusions.txt	LTP233	ltpFR	12	1	0	SUNRISE	1407	n/a	n/a	1	n/a	0	0	0	n/a	n/a	n/a	n/a	n/a
557.074	n/a	REC_WORD	278537	wordpools/wasnorm_wordpool_less_exclusions.txt	LTP233	ltpFR	12	1	0	MOON	914	n/a	n/a	1	n/a	0	0	0	n/a	n/a	n/a	n/a	n/a
558.83	n/a	REC_WORD	279415	wordpools/wasnorm_wordpool_less_exclusions.txt	LTP233	ltpFR	12	1	0	PITCHFORK	1078	n/a	n/a	1	n/a	0	0	0	n/a	n/a	n/a	n/a	n/a
560.006	n/a	REC_WORD	280003	wordpools/wasnorm_wordpool_less_exclusions.txt	LTP233	ltpFR	12	1	0	HAY	693	n/a	n/a	0	n/a	0	0	0	n/a	n/a	n/a	n/a	n/a
561.054	n/a	REC_WORD	280527	wordpools/wasnorm_wordpool_less_exclusions.txt	LTP233	ltpFR	12	1	0	SIRLOIN	1311	n/a	n/a	0	n/a	0	0	0	n/a	n/a	n/a	n/a	n/a
564.81	n/a	REC_WORD	282405	wordpools/wasnorm_wordpool_less_exclusions.txt	LTP233	ltpFR	12	1	0	MERMAID	887	n/a	n/a	1	n/a	0	0	0	n/a	n/a	n/a	n/a	n/a
568.602	n/a	REC_WORD	284301	wordpools/wasnorm_wordpool_less_exclusions.txt	LTP233	ltpFR	12	1	0	FROST	609	n/a	n/a	0	n/a	0	0	0	n/a	n/a	n/a	n/a	n/a
574.384	n/a	REC_WORD	287192	wordpools/wasnorm_wordpool_less_exclusions.txt	LTP233	ltpFR	12	1	0	SKETCH	1315	n/a	n/a	0	n/a	0	0	0	n/a	n/a	n/a	n/a	n/a
576.594	n/a	REC_WORD	288297	wordpools/wasnorm_wordpool_less_exclusions.txt	LTP233	ltpFR	12	1	0	FLESH	579	n/a	n/a	0	n/a	0	0	0	n/a	n/a	n/a	n/a	n/a
578.302	n/a	REC_WORD	289151	wordpools/wasnorm_wordpool_less_exclusions.txt	LTP233	ltpFR	12	1	0	KIDNEY	776	n/a	n/a	0	n/a	0	0	0	n/a	n/a	n/a	n/a	n/a
582.282	n/a	REC_WORD	291141	wordpools/wasnorm_wordpool_less_exclusions.txt	LTP233	ltpFR	12	1	n/a	LIVER	833	n/a	n/a	n/a	n/a	0	0	0	n/a	n/a	n/a	n/a	n/a
584.842	n/a	REC_WORD	292421	wordpools/wasnorm_wordpool_less_exclusions.txt	LTP233	ltpFR	12	1	0	COD	340	n/a	n/a	0	n/a	0	0	0	n/a	n/a	n/a	n/a	n/a
601.894	n/a	REC_WORD	300947	wordpools/wasnorm_wordpool_less_exclusions.txt	LTP233	ltpFR	12	1	0	TREASURE	1500	n/a	n/a	1	n/a	0	0	0	n/a	n/a	n/a	n/a	n/a
604.602	n/a	REC_WORD	302301	wordpools/wasnorm_wordpool_less_exclusions.txt	LTP233	ltpFR	12	1	0	HAWK	692	n/a	n/a	0	n/a	0	0	0	n/a	n/a	n/a	n/a	n/a
692.25	n/a	WORD	346125	wordpools/wasnorm_wordpool_less_exclusions.txt	LTP233	ltpFR	12	2	1	BUFFALO	186	n/a	n/a	1	n/a	0	0	0	0.422607421875	0.5869140625	0	upper	zerothre.ttf
696.416	n/a	WORD	348208	wordpools/wasnorm_wordpool_less_exclusions.txt	LTP233	ltpFR	12	2	1	SCALPEL	1243	n/a	n/a	0	n/a	0	0	0	0.422607421875	0.5869140625	0	upper	zerothre.ttf
700.416	n/a	WORD	350208	wordpools/wasnorm_wordpool_less_exclusions.txt	LTP233	ltpFR	12	2	1	HAMMOCK	681	n/a	n/a	1	n/a	0	0	0	0.422607421875	0.5869140625	0	upper	zerothre.ttf
704.63	n/a	WORD	352315	wordpools/wasnorm_wordpool_less_exclusions.txt	LTP233	ltpFR	12	2	1	DAM	436	n/a	n/a	0	n/a	0	0	0	0.422607421875	0.5869140625	0	upper	zerothre.ttf
708.78	n/a	WORD	354390	wordpools/wasnorm_wordpool_less_exclusions.txt	LTP233	ltpFR	12	2	1	RIVER	1194	n/a	n/a	0	n/a	0	0	0	0.422607421875	0.5869140625	0	upper	zerothre.ttf
712.878	n/a	WORD	356439	wordpools/wasnorm_wordpool_less_exclusions.txt	LTP233	ltpFR	12	2	1	OTTER	986	n/a	n/a	1	n/a	0	0	0	0.422607421875	0.5869140625	0	upper	zerothre.ttf
717.108	n/a	WORD	358554	wordpools/wasnorm_wordpool_less_exclusions.txt	LTP233	ltpFR	12	2	1	CHERRY	293	n/a	n/a	1	n/a	0	0	0	0.422607421875	0.5869140625	0	upper	zerothre.ttf
721.044	n/a	WORD	360522	wordpools/wasnorm_wordpool_less_exclusions.txt	LTP233	ltpFR	12	2	1	CAPTAIN	239	n/a	n/a	1	n/a	0	0	0	0.422607421875	0.5869140625	0	upper	zerothre.ttf
724.872	n/a	WORD	362436	wordpools/wasnorm_wordpool_less_exclusions.txt	LTP233	ltpFR	12	2	1	COMMANDER	354	n/a	n/a	1	n/a	0	0	0	0.422607421875	0.5869140625	0	upper	zerothre.ttf
728.824	n/a	WORD	364412	wordpools/wasnorm_wordpool_less_exclusions.txt	LTP233	ltpFR	12	2	1	ELEVATOR	524	n/a	n/a	0	n/a	0	0	0	0.422607421875	0.5869140625	0	upper	zerothre.ttf
732.772	n/a	WORD	366386	wordpools/wasnorm_wordpool_less_exclusions.txt	LTP233	ltpFR	12	2	1	CALCULATOR	220	n/a	n/a	0	n/a	0	0	0	0.422607421875	0.5869140625	0	upper	zerothre.ttf
736.954	n/a	WORD	368477	wordpools/wasnorm_wordpool_less_exclusions.txt	LTP233	ltpFR	12	2	1	TWIG	1527	n/a	n/a	1	n/a	0	0	0	0.422607421875	0.5869140625	0	upper	zerothre.ttf
740.802	n/a	WORD	370401	wordpools/wasnorm_wordpool_less_exclusions.txt	LTP233	ltpFR	12	2	1	CAKE	219	n/a	n/a	0	n/a	0	0	0	0.422607421875	0.5869140625	0	upper	zerothre.ttf
744.934	n/a	WORD	372467	wordpools/wasnorm_wordpool_less_exclusions.txt	LTP233	ltpFR	12	2	1	TAPIOCA	1434	n/a	n/a	0	n/a	0	0	0	0.422607421875	0.5869140625	0	upper	zerothre.ttf
748.934	n/a	WORD	374467	wordpools/wasnorm_wordpool_less_exclusions.txt	LTP233	ltpFR	12	2	1	JEWEL	757	n/a	n/a	0	n/a	0	0	0	0.422607421875	0.5869140625	0	upper	zerothre.ttf
752.814	n/a	WORD	376407	wordpools/wasnorm_wordpool_less_exclusions.txt	LTP233	ltpFR	12	2	1	SPOON	1357	n/a	n/a	0	n/a	0	0	0	0.422607421875	0.5869140625	0	upper	zerothre.ttf
755.826	n/a	START	377913	n/a	LTP233	ltpFR	12	n/a	n/a	n/a	n/a	n/a	n/a	n/a	n/a	n/a	n/a	n/a	n/a	n/a	n/a	n/a	n/a
757.026	n/a	PROB	378513	n/a	LTP233	ltpFR	12	n/a	n/a	n/a	n/a	n/a	n/a	n/a	6	2	3	1	n/a	n/a	n/a	n/a	n/a
758.484	n/a	PROB	379242	n/a	LTP233	ltpFR	12	n/a	n/a	n/a	n/a	n/a	n/a	n/a	15	4	4	7	n/a	n/a	n/a	n/a	n/a
759.988	n/a	PROB	379994	n/a	LTP233	ltpFR	12	n/a	n/a	n/a	n/a	n/a	n/a	n/a	22	6	9	7	n/a	n/a	n/a	n/a	n/a
762.346	n/a	STOP	381173	n/a	LTP233	ltpFR	12	n/a	n/a	n/a	n/a	n/a	n/a	n/a	n/a	n/a	n/a	n/a	n/a	n/a	n/a	n/a	n/a
765.716	n/a	REC_START	382858	n/a	LTP233	ltpFR	12	2	n/a	n/a	n/a	n/a	n/a	n/a	n/a	0	0	0	n/a	n/a	n/a	n/a	n/a
770.264	n/a	REC_WORD	385132	wordpools/wasnorm_wordpool_less_exclusions.txt	LTP233	ltpFR	12	2	1	COMMANDER	354	n/a	n/a	1	n/a	0	0	0	n/a	n/a	n/a	n/a	n/a
773.738	n/a	REC_WORD	386869	wordpools/wasnorm_wordpool_less_exclusions.txt	LTP233	ltpFR	12	2	1	CAPTAIN	239	n/a	n/a	1	n/a	0	0	0	n/a	n/a	n/a	n/a	n/a
775.378	n/a	REC_WORD	387689	wordpools/wasnorm_wordpool_less_exclusions.txt	LTP233	ltpFR	12	2	1	HAMMOCK	681	n/a	n/a	1	n/a	0	0	0	n/a	n/a	n/a	n/a	n/a
776.762	n/a	REC_WORD	388381	wordpools/wasnorm_wordpool_less_exclusions.txt	LTP233	ltpFR	12	2	1	CHERRY	293	n/a	n/a	1	n/a	0	0	0	n/a	n/a	n/a	n/a	n/a
778.208	n/a	REC_WORD	389104	wordpools/wasnorm_wordpool_less_exclusions.txt	LTP233	ltpFR	12	2	1	CAKE	219	n/a	n/a	0	n/a	0	0	0	n/a	n/a	n/a	n/a	n/a
779.32	n/a	REC_WORD	389660	wordpools/wasnorm_wordpool_less_exclusions.txt	LTP233	ltpFR	12	2	1	TAPIOCA	1434	n/a	n/a	0	n/a	0	0	0	n/a	n/a	n/a	n/a	n/a
780.682	n/a	REC_WORD	390341	wordpools/wasnorm_wordpool_less_exclusions.txt	LTP233	ltpFR	12	2	1	SPOON	1357	n/a	n/a	0	n/a	0	0	0	n/a	n/a	n/a	n/a	n/a
782.094	n/a	REC_WORD	391047	wordpools/wasnorm_wordpool_less_exclusions.txt	LTP233	ltpFR	12	2	1	JEWEL	757	n/a	n/a	0	n/a	0	0	0	n/a	n/a	n/a	n/a	n/a
783.276	n/a	REC_WORD	391638	wordpools/wasnorm_wordpool_less_exclusions.txt	LTP233	ltpFR	12	2	1	RIVER	1194	n/a	n/a	0	n/a	0	0	0	n/a	n/a	n/a	n/a	n/a
784.544	n/a	REC_WORD	392272	wordpools/wasnorm_wordpool_less_exclusions.txt	LTP233	ltpFR	12	2	1	DAM	436	n/a	n/a	0	n/a	0	0	0	n/a	n/a	n/a	n/a	n/a
785.806	n/a	REC_WORD	392903	wordpools/wasnorm_wordpool_less_exclusions.txt	LTP233	ltpFR	12	2	1	TWIG	1527	n/a	n/a	1	n/a	0	0	0	n/a	n/a	n/a	n/a	n/a
787.102	n/a	REC_WORD	393551	wordpools/wasnorm_wordpool_less_exclusions.txt	LTP233	ltpFR	12	2	1	OTTER	986	n/a	n/a	1	n/a	0	0	0	n/a	n/a	n/a	n/a	n/a
789.622	n/a	REC_WORD	394811	wordpools/wasnorm_wordpool_less_exclusions.txt	LTP233	ltpFR	12	2	1	CALCULATOR	220	n/a	n/a	0	n/a	0	0	0	n/a	n/a	n/a	n/a	n/a
791.064	n/a	REC_WORD	395532	wordpools/wasnorm_wordpool_less_exclusions.txt	LTP233	ltpFR	12	2	1	ELEVATOR	524	n/a	n/a	0	n/a	0	0	0	n/a	n/a	n/a	n/a	n/a
792.606	n/a	REC_WORD	396303	wordpools/wasnorm_wordpool_less_exclusions.txt	LTP233	ltpFR	12	2	1	DAM	436	n/a	n/a	0	n/a	0	0	0	n/a	n/a	n/a	n/a	n/a
905.9	n/a	START	452950	n/a	LTP233	ltpFR	12	n/a	n/a	n/a	n/a	n/a	n/a	n/a	n/a	n/a	n/a	n/a	n/a	n/a	n/a	n/a	n/a
907.408	n/a	PROB	453704	n/a	LTP233	ltpFR	12	n/a	n/a	n/a	n/a	n/a	n/a	n/a	10	5	1	4	n/a	n/a	n/a	n/a	n/a
908.64	n/a	PROB	454320	n/a	LTP233	ltpFR	12	n/a	n/a	n/a	n/a	n/a	n/a	n/a	111	8	1	2	n/a	n/a	n/a	n/a	n/a
910.23	n/a	PROB	455115	n/a	LTP233	ltpFR	12	n/a	n/a	n/a	n/a	n/a	n/a	n/a	19	9	5	5	n/a	n/a	n/a	n/a	n/a
912.892	n/a	STOP	456446	n/a	LTP233	ltpFR	12	n/a	n/a	n/a	n/a	n/a	n/a	n/a	n/a	n/a	n/a	n/a	n/a	n/a	n/a	n/a	n/a
914.948	n/a	WORD	457474	wordpools/wasnorm_wordpool_less_exclusions.txt	LTP233	ltpFR	12	3	0	VET	1560	n/a	n/a	1	n/a	0	0	0	0.57763671875	0.412841796875	1	lower	amplitud.ttf
917.964	n/a	START	458982	n/a	LTP233	ltpFR	12	n/a	n/a	n/a	n/a	n/a	n/a	n/a	n/a	n/a	n/a	n/a	n/a	n/a	n/a	n/a	n/a
919.134	n/a	PROB	459567	n/a	LTP233	ltpFR	12	n/a	n/a	n/a	n/a	n/a	n/a	n/a	11	1	4	6	n/a	n/a	n/a	n/a	n/a
920.39	n/a	PROB	460195	n/a	LTP233	ltpFR	12	n/a	n/a	n/a	n/a	n/a	n/a	n/a	18	4	9	5	n/a	n/a	n/a	n/a	n/a
922.126	n/a	PROB	461063	n/a	LTP233	ltpFR	12	n/a	n/a	n/a	n/a	n/a	n/a	n/a	16	2	9	5	n/a	n/a	n/a	n/a	n/a
923.098	n/a	PROB	461549	n/a	LTP233	ltpFR	12	n/a	n/a	n/a	n/a	n/a	n/a	n/a	15	5	6	4	n/a	n/a	n/a	n/a	n/a
924.412	n/a	STOP	462206	n/a	LTP233	ltpFR	12	n/a	n/a	n/a	n/a	n/a	n/a	n/a	n/a	n/a	n/a	n/a	n/a	n/a	n/a	n/a	n/a
927.078	n/a	WORD	463539	wordpools/wasnorm_wordpool_less_exclusions.txt	LTP233	ltpFR	12	3	0	MOOSE	915	n/a	n/a	1	n/a	0	0	0	0.57763671875	0.412841796875	1	lower	amplitud.ttf
930.094	n/a	START	465047	n/a	LTP233	ltpFR	12	n/a	n/a	n/a	n/a	n/a	n/a	n/a	n/a	n/a	n/a	n/a	n/a	n/a	n/a	n/a	n/a
931.092	n/a	PROB	465546	n/a	LTP233	ltpFR	12	n/a	n/a	n/a	n/a	n/a	n/a	n/a	14	1	5	8	n/a	n/a	n/a	n/a	n/a
932.536	n/a	PROB	466268	n/a	LTP233	ltpFR	12	n/a	n/a	n/a	n/a	n/a	n/a	n/a	11	2	6	3	n/a	n/a	n/a	n/a	n/a
934.092	n/a	PROB	467046	n/a	LTP233	ltpFR	12	n/a	n/a	n/a	n/a	n/a	n/a	n/a	8	2	3	3	n/a	n/a	n/a	n/a	n/a
936.264	n/a	PROB	468132	n/a	LTP233	ltpFR	12	n/a	n/a	n/a	n/a	n/a	n/a	n/a	12	3	1	8	n/a	n/a	n/a	n/a	n/a
937.532	n/a	STOP	468766	n/a	LTP233	ltpFR	12	n/a	n/a	n/a	n/a	n/a	n/a	n/a	n/a	n/a	n/a	n/a	n/a	n/a	n/a	n/a	n/a
938.956	n/a	WORD	469478	wordpools/wasnorm_wordpool_less_exclusions.txt	LTP233	ltpFR	12	3	1	CLOTHES	327	n/a	n/a	0	n/a	0	0	0	0.422607421875	0.5869140625	0	upper	zerothre.ttf
941.972	n/a	START	470986	n/a	LTP233	ltpFR	12	n/a	n/a	n/a	n/a	n/a	n/a	n/a	n/a	n/a	n/a	n/a	n/a	n/a	n/a	n/a	n/a
943.126	n/a	PROB	471563	n/a	LTP233	ltpFR	12	n/a	n/a	n/a	n/a	n/a	n/a	n/a	24	9	8	7	n/a	n/a	n/a	n/a	n/a
945.87	n/a	PROB	472935	n/a	LTP233	ltpFR	12	n/a	n/a	n/a	n/a	n/a	n/a	n/a	21	6	7	8	n/a	n/a	n/a	n/a	n/a
947.488	n/a	PROB	473744	n/a	LTP233	ltpFR	12	n/a	n/a	n/a	n/a	n/a	n/a	n/a	14	1	5	8	n/a	n/a	n/a	n/a	n/a
948.63	n/a	STOP	474315	n/a	LTP233	ltpFR	12	n/a	n/a	n/a	n/a	n/a	n/a	n/a	n/a	n/a	n/a	n/a	n/a	n/a	n/a	n/a	n/a
950.906	n/a	WORD	475453	wordpools/wasnorm_wordpool_less_exclusions.txt	LTP233	ltpFR	12	3	1	HARP	689	n/a	n/a	1	n/a	0	0	0	0.422607421875	0.5869140625	0	upper	zerothre.ttf
953.918	n/a	START	476959	n/a	LTP233	ltpFR	12	n/a	n/a	n/a	n/a	n/a	n/a	n/a	n/a	n/a	n/a	n/a	n/a	n/a	n/a	n/a	n/a
955.118	n/a	PROB	477559	n/a	LTP233	ltpFR	12	n/a	n/a	n/a	n/a	n/a	n/a	n/a	15	6	6	3	n/a	n/a	n/a	n/a	n/a
956.824	n/a	PROB	478412	n/a	LTP233	ltpFR	12	n/a	n/a	n/a	n/a	n/a	n/a	n/a	10	1	7	2	n/a	n/a	n/a	n/a	n/a
957.996	n/a	PROB	478998	n/a	LTP233	ltpFR	12	n/a	n/a	n/a	n/a	n/a	n/a	n/a	11	3	2	6	n/a	n/a	n/a	n/a	n/a
959.134	n/a	PROB	479567	n/a	LTP233	ltpFR	12	n/a	n/a	n/a	n/a	n/a	n/a	n/a	18	5	5	8	n/a	n/a	n/a	n/a	n/a
960.63	n/a	STOP	480315	n/a	LTP233	ltpFR	12	n/a	n/a	n/a	n/a	n/a	n/a	n/a	n/a	n/a	n/a	n/a	n/a	n/a	n/a	n/a	n/a
962.85	n/a	WORD	481425	wordpools/wasnorm_wordpool_less_exclusions.txt	LTP233	ltpFR	12	3	0	DRUM	502	n/a	n/a	1	n/a	0	0	0	0.57763671875	0.412841796875	1	lower	amplitud.ttf
965.864	n/a	START	482932	n/a	LTP233	ltpFR	12	n/a	n/a	n/a	n/a	n/a	n/a	n/a	n/a	n/a	n/a	n/a	n/a	n/a	n/a	n/a	n/a
967.014	n/a	PROB	483507	n/a	LTP233	ltpFR	12	n/a	n/a	n/a	n/a	n/a	n/a	n/a	13	2	2	9	n/a	n/a	n/a	n/a	n/a
968.32	n/a	PROB	484160	n/a	LTP233	ltpFR	12	n/a	n/a	n/a	n/a	n/a	n/a	n/a	9	3	3	3	n/a	n/a	n/a	n/a	n/a
969.378	n/a	PROB	484689	n/a	LTP233	ltpFR	12	n/a	n/a	n/a	n/a	n/a	n/a	n/a	13	4	5	4	n/a	n/a	n/a	n/a	n/a
970.996	n/a	PROB	485498	n/a	LTP233	ltpFR	12	n/a	n/a	n/a	n/a	n/a	n/a	n/a	11	7	1	3	n/a	n/a	n/a	n/a	n/a
973.862	n/a	STOP	486931	n/a	LTP233	ltpFR	12	n/a	n/a	n/a	n/a	n/a	n/a	n/a	n/a	n/a	n/a	n/a	n/a	n/a	n/a	n/a	n/a
975.064	n/a	WORD	487532	wordpools/wasnorm_wordpool_less_exclusions.txt	LTP233	ltpFR	12	3	0	BIRD	129	n/a	n/a	0	n/a	0	0	0	0.57763671875	0.412841796875	1	lower	amplitud.ttf
978.076	n/a	START	489038	n/a	LTP233	ltpFR	12	n/a	n/a	n/a	n/a	n/a	n/a	n/a	n/a	n/a	n/a	n/a	n/a	n/a	n/a	n/a	n/a
979.062	n/a	PROB	489531	n/a	LTP233	ltpFR	12	n/a	n/a	n/a	n/a	n/a	n/a	n/a	18	2	8	8	n/a	n/a	n/a	n/a	n/a
980.468	n/a	PROB	490234	n/a	LTP233	ltpFR	12	n/a	n/a	n/a	n/a	n/a	n/a	n/a	12	5	6	1	n/a	n/a	n/a	n/a	n/a
982.04	n/a	PROB	491020	n/a	LTP233	ltpFR	12	n/a	n/a	n/a	n/a	n/a	n/a	n/a	15	8	5	2	n/a	n/a	n/a	n/a	n/a
983.476	n/a	PROB	491738	n/a	LTP233	ltpFR	12	n/a	n/a	n/a	n/a	n/a	n/a	n/a	16	2	6	8	n/a	n/a	n/a	n/a	n/a
984.552	n/a	STOP	492276	n/a	LTP233	ltpFR	12	n/a	n/a	n/a	n/a	n/a	n/a	n/a	n/a	n/a	n/a	n/a	n/a	n/a	n/a	n/a	n/a
987.074	n/a	WORD	493537	wordpools/wasnorm_wordpool_less_exclusions.txt	LTP233	ltpFR	12	3	1	LEVER	815	n/a	n/a	0	n/a	0	0	0	0.422607421875	0.5869140625	0	upper	zerothre.ttf
990.09	n/a	START	495045	n/a	LTP233	ltpFR	12	n/a	n/a	n/a	n/a	n/a	n/a	n/a	n/a	n/a	n/a	n/a	n/a	n/a	n/a	n/a	n/a
991.21	n/a	PROB	495605	n/a	LTP233	ltpFR	12	n/a	n/a	n/a	n/a	n/a	n/a	n/a	16	2	8	6	n/a	n/a	n/a	n/a	n/a
992.594	n/a	PROB	496297	n/a	LTP233	ltpFR	12	n/a	n/a	n/a	n/a	n/a	n/a	n/a	19	8	3	8	n/a	n/a	n/a	n/a	n/a
994.0	n/a	PROB	497000	n/a	LTP233	ltpFR	12	n/a	n/a	n/a	n/a	n/a	n/a	n/a	15	9	3	3	n/a	n/a	n/a	n/a	n/a
995.238	n/a	PROB	497619	n/a	LTP233	ltpFR	12	n/a	n/a	n/a	n/a	n/a	n/a	n/a	18	3	9	6	n/a	n/a	n/a	n/a	n/a
996.984	n/a	STOP	498492	n/a	LTP233	ltpFR	12	n/a	n/a	n/a	n/a	n/a	n/a	n/a	n/a	n/a	n/a	n/a	n/a	n/a	n/a	n/a	n/a
999.24	n/a	WORD	499620	wordpools/wasnorm_wordpool_less_exclusions.txt	LTP233	ltpFR	12	3	1	PORCH	1106	n/a	n/a	0	n/a	0	0	0	0.422607421875	0.5869140625	0	upper	zerothre.ttf
1002.254	n/a	START	501127	n/a	LTP233	ltpFR	12	n/a	n/a	n/a	n/a	n/a	n/a	n/a	n/a	n/a	n/a	n/a	n/a	n/a	n/a	n/a	n/a
1003.39	n/a	PROB	501695	n/a	LTP233	ltpFR	12	n/a	n/a	n/a	n/a	n/a	n/a	n/a	19	9	2	8	n/a	n/a	n/a	n/a	n/a
1004.892	n/a	PROB	502446	n/a	LTP233	ltpFR	12	n/a	n/a	n/a	n/a	n/a	n/a	n/a	14	8	4	2	n/a	n/a	n/a	n/a	n/a
1005.962	n/a	PROB	502981	n/a	LTP233	ltpFR	12	n/a	n/a	n/a	n/a	n/a	n/a	n/a	15	3	9	3	n/a	n/a	n/a	n/a	n/a
1010.252	n/a	STOP	505126	n/a	LTP233	ltpFR	12	n/a	n/a	n/a	n/a	n/a	n/a	n/a	n/a	n/a	n/a	n/a	n/a	n/a	n/a	n/a	n/a
1011.468	n/a	WORD	505734	wordpools/wasnorm_wordpool_less_exclusions.txt	LTP233	ltpFR	12	3	1	BALCONY	72	n/a	n/a	0	n/a	0	0	0	0.422607421875	0.5869140625	0	upper	zerothre.ttf
1014.482	n/a	START	507241	n/a	LTP233	ltpFR	12	n/a	n/a	n/a	n/a	n/a	n/a	n/a	n/a	n/a	n/a	n/a	n/a	n/a	n/a	n/a	n/a
1015.436	n/a	PROB	507718	n/a	LTP233	ltpFR	12	n/a	n/a	n/a	n/a	n/a	n/a	n/a	12	9	2	1	n/a	n/a	n/a	n/a	n/a
1017.192	n/a	PROB	508596	n/a	LTP233	ltpFR	12	n/a	n/a	n/a	n/a	n/a	n/a	n/a	23	9	9	5	n/a	n/a	n/a	n/a	n/a
1018.864	n/a	PROB	509432	n/a	LTP233	ltpFR	12	n/a	n/a	n/a	n/a	n/a	n/a	n/a	14	2	3	9	n/a	n/a	n/a	n/a	n/a
1020.1	n/a	PROB	510050	n/a	LTP233	ltpFR	12	n/a	n/a	n/a	n/a	n/a	n/a	n/a	16	5	4	5	n/a	n/a	n/a	n/a	n/a
1021.666	n/a	STOP	510833	n/a	LTP233	ltpFR	12	n/a	n/a	n/a	n/a	n/a	n/a	n/a	n/a	n/a	n/a	n/a	n/a	n/a	n/a	n/a	n/a
1023.364	n/a	WORD	511682	wordpools/wasnorm_wordpool_less_exclusions.txt	LTP233	ltpFR	12	3	1	QUARTER	1148	n/a	n/a	0	n/a	0	0	0	0.422607421875	0.5869140625	0	upper	zerothre.ttf
1026.378	n/a	START	513189	n/a	LTP233	ltpFR	12	n/a	n/a	n/a	n/a	n/a	n/a	n/a	n/a	n/a	n/a	n/a	n/a	n/a	n/a	n/a	n/a
1027.528	n/a	PROB	513764	n/a	LTP233	ltpFR	12	n/a	n/a	n/a	n/a	n/a	n/a	n/a	19	5	8	6	n/a	n/a	n/a	n/a	n/a
1029.904	n/a	PROB	514952	n/a	LTP233	ltpFR	12	n/a	n/a	n/a	n/a	n/a	n/a	n/a	22	8	8	6	n/a	n/a	n/a	n/a	n/a
1031.23	n/a	PROB	515615	n/a	LTP233	ltpFR	12	n/a	n/a	n/a	n/a	n/a	n/a	n/a	19	3	7	9	n/a	n/a	n/a	n/a	n/a
1032.802	n/a	STOP	516401	n/a	LTP233	ltpFR	12	n/a	n/a	n/a	n/a	n/a	n/a	n/a	n/a	n/a	n/a	n/a	n/a	n/a	n/a	n/a	n/a
1035.346	n/a	WORD	517673	wordpools/wasnorm_wordpool_less_exclusions.txt	LTP233	ltpFR	12	3	1	FEAST	556	n/a	n/a	0	n/a	0	0	0	0.422607421875	0.5869140625	0	upper	zerothre.ttf
1038.358	n/a	START	519179	n/a	LTP233	ltpFR	12	n/a	n/a	n/a	n/a	n/a	n/a	n/a	n/a	n/a	n/a	n/a	n/a	n/a	n/a	n/a	n/a
1039.262	n/a	PROB	519631	n/a	LTP233	ltpFR	12	n/a	n/a	n/a	n/a	n/a	n/a	n/a	16	3	5	8	n/a	n/a	n/a	n/a	n/a
1040.778	n/a	PROB	520389	n/a	LTP233	ltpFR	12	n/a	n/a	n/a	n/a	n/a	n/a	n/a	16	3	5	8	n/a	n/a	n/a	n/a	n/a
1042.168	n/a	PROB	521084	n/a	LTP233	ltpFR	12	n/a	n/a	n/a	n/a	n/a	n/a	n/a	17	7	9	1	n/a	n/a	n/a	n/a	n/a
1044.092	n/a	PROB	522046	n/a	LTP233	ltpFR	12	n/a	n/a	n/a	n/a	n/a	n/a	n/a	18	9	6	3	n/a	n/a	n/a	n/a	n/a
1045.77	n/a	STOP	522885	n/a	LTP233	ltpFR	12	n/a	n/a	n/a	n/a	n/a	n/a	n/a	n/a	n/a	n/a	n/a	n/a	n/a	n/a	n/a	n/a
1047.208	n/a	WORD	523604	wordpools/wasnorm_wordpool_less_exclusions.txt	LTP233	ltpFR	12	3	1	LUNG	850	n/a	n/a	0	n/a	0	0	0	0.422607421875	0.5869140625	0	upper	zerothre.ttf
1050.22	n/a	START	525110	n/a	LTP233	ltpFR	12	n/a	n/a	n/a	n/a	n/a	n/a	n/a	n/a	n/a	n/a	n/a	n/a	n/a	n/a	n/a	n/a
1051.072	n/a	PROB	525536	n/a	LTP233	ltpFR	12	n/a	n/a	n/a	n/a	n/a	n/a	n/a	14	9	3	2	n/a	n/a	n/a	n/a	n/a
1053.108	n/a	PROB	526554	n/a	LTP233	ltpFR	12	n/a	n/a	n/a	n/a	n/a	n/a	n/a	18	1	8	9	n/a	n/a	n/a	n/a	n/a
1054.832	n/a	PROB	527416	n/a	LTP233	ltpFR	12	n/a	n/a	n/a	n/a	n/a	n/a	n/a	8	4	2	2	n/a	n/a	n/a	n/a	n/a
1056.272	n/a	PROB	528136	n/a	LTP233	ltpFR	12	n/a	n/a	n/a	n/a	n/a	n/a	n/a	14	4	5	5	n/a	n/a	n/a	n/a	n/a
1058.004	n/a	STOP	529002	n/a	LTP233	ltpFR	12	n/a	n/a	n/a	n/a	n/a	n/a	n/a	n/a	n/a	n/a	n/a	n/a	n/a	n/a	n/a	n/a
1059.188	n/a	WORD	529594	wordpools/wasnorm_wordpool_less_exclusions.txt	LTP233	ltpFR	12	3	0	PARENT	1013	n/a	n/a	1	n/a	0	0	0	0.57763671875	0.412841796875	1	lower	amplitud.ttf
1062.2	n/a	START	531100	n/a	LTP233	ltpFR	12	n/a	n/a	n/a	n/a	n/a	n/a	n/a	n/a	n/a	n/a	n/a	n/a	n/a	n/a	n/a	n/a
1063.27	n/a	PROB	531635	n/a	LTP233	ltpFR	12	n/a	n/a	n/a	n/a	n/a	n/a	n/a	17	5	5	7	n/a	n/a	n/a	n/a	n/a
1064.52	n/a	PROB	532260	n/a	LTP233	ltpFR	12	n/a	n/a	n/a	n/a	n/a	n/a	n/a	18	6	7	5	n/a	n/a	n/a	n/a	n/a
1065.892	n/a	PROB	532946	n/a	LTP233	ltpFR	12	n/a	n/a	n/a	n/a	n/a	n/a	n/a	19	5	9	5	n/a	n/a	n/a	n/a	n/a
1067.364	n/a	PROB	533682	n/a	LTP233	ltpFR	12	n/a	n/a	n/a	n/a	n/a	n/a	n/a	19	8	6	5	n/a	n/a	n/a	n/a	n/a
1069.236	n/a	STOP	534618	n/a	LTP233	ltpFR	12	n/a	n/a	n/a	n/a	n/a	n/a	n/a	n/a	n/a	n/a	n/a	n/a	n/a	n/a	n/a	n/a
1071.38	n/a	WORD	535690	wordpools/wasnorm_wordpool_less_exclusions.txt	LTP233	ltpFR	12	3	0	PLAZA	1088	n/a	n/a	0	n/a	0	0	0	0.57763671875	0.412841796875	1	lower	amplitud.ttf
1074.396	n/a	START	537198	n/a	LTP233	ltpFR	12	n/a	n/a	n/a	n/a	n/a	n/a	n/a	n/a	n/a	n/a	n/a	n/a	n/a	n/a	n/a	n/a
1075.514	n/a	PROB	537757	n/a	LTP233	ltpFR	12	n/a	n/a	n/a	n/a	n/a	n/a	n/a	22	6	8	9	n/a	n/a	n/a	n/a	n/a
1076.984	n/a	PROB	538492	n/a	LTP233	ltpFR	12	n/a	n/a	n/a	n/a	n/a	n/a	n/a	8	3	2	3	n/a	n/a	n/a	n/a	n/a
1078.144	n/a	PROB	539072	n/a	LTP233	ltpFR	12	n/a	n/a	n/a	n/a	n/a	n/a	n/a	25	6	9	8	n/a	n/a	n/a	n/a	n/a
1079.61	n/a	PROB	539805	n/a	LTP233	ltpFR	12	n/a	n/a	n/a	n/a	n/a	n/a	n/a	15	9	2	4	n/a	n/a	n/a	n/a	n/a
1081.142	n/a	STOP	540571	n/a	LTP233	ltpFR	12	n/a	n/a	n/a	n/a	n/a	n/a	n/a	n/a	n/a	n/a	n/a	n/a	n/a	n/a	n/a	n/a
1083.242	n/a	WORD	541621	wordpools/wasnorm_wordpool_less_exclusions.txt	LTP233	ltpFR	12	3	0	PIGEON	1065	n/a	n/a	0	n/a	0	0	0	0.57763671875	0.412841796875	1	lower	amplitud.ttf
1086.258	n/a	START	543129	n/a	LTP233	ltpFR	12	n/a	n/a	n/a	n/a	n/a	n/a	n/a	n/a	n/a	n/a	n/a	n/a	n/a	n/a	n/a	n/a
1087.428	n/a	PROB	543714	n/a	LTP233	ltpFR	12	n/a	n/a	n/a	n/a	n/a	n/a	n/a	16	6	6	4	n/a	n/a	n/a	n/a	n/a
1088.612	n/a	PROB	544306	n/a	LTP233	ltpFR	12	n/a	n/a	n/a	n/a	n/a	n/a	n/a	14	7	3	4	n/a	n/a	n/a	n/a	n/a
1089.614	n/a	PROB	544807	n/a	LTP233	ltpFR	12	n/a	n/a	n/a	n/a	n/a	n/a	n/a	22	7	8	7	n/a	n/a	n/a	n/a	n/a
1093.74	n/a	STOP	546870	n/a	LTP233	ltpFR	12	n/a	n/a	n/a	n/a	n/a	n/a	n/a	n/a	n/a	n/a	n/a	n/a	n/a	n/a	n/a	n/a
1095.192	n/a	WORD	547596	wordpools/wasnorm_wordpool_less_exclusions.txt	LTP233	ltpFR	12	3	0	CHILD	299	n/a	n/a	0	n/a	0	0	0	0.57763671875	0.412841796875	1	lower	amplitud.ttf
1098.204	n/a	START	549102	n/a	LTP233	ltpFR	12	n/a	n/a	n/a	n/a	n/a	n/a	n/a	n/a	n/a	n/a	n/a	n/a	n/a	n/a	n/a	n/a
1099.22	n/a	PROB	549610	n/a	LTP233	ltpFR	12	n/a	n/a	n/a	n/a	n/a	n/a	n/a	20	5	9	6	n/a	n/a	n/a	n/a	n/a
1100.658	n/a	PROB	550329	n/a	LTP233	ltpFR	12	n/a	n/a	n/a	n/a	n/a	n/a	n/a	16	5	9	2	n/a	n/a	n/a	n/a	n/a
1102.568	n/a	PROB	551284	n/a	LTP233	ltpFR	12	n/a	n/a	n/a	n/a	n/a	n/a	n/a	18	2	7	9	n/a	n/a	n/a	n/a	n/a
1104.242	n/a	PROB	552121	n/a	LTP233	ltpFR	12	n/a	n/a	n/a	n/a	n/a	n/a	n/a	9	1	2	6	n/a	n/a	n/a	n/a	n/a
1105.462	n/a	STOP	552731	n/a	LTP233	ltpFR	12	n/a	n/a	n/a	n/a	n/a	n/a	n/a	n/a	n/a	n/a	n/a	n/a	n/a	n/a	n/a	n/a
1108.056	n/a	REC_START	554028	n/a	LTP233	ltpFR	12	3	n/a	n/a	n/a	n/a	n/a	n/a	n/a	0	0	0	n/a	n/a	n/a	n/a	n/a
1109.662	n/a	REC_WORD	554831	wordpools/wasnorm_wordpool_less_exclusions.txt	LTP233	ltpFR	12	3	0	CHILD	299	n/a	n/a	0	n/a	0	0	0	n/a	n/a	n/a	n/a	n/a
1110.854	n/a	REC_WORD	555427	wordpools/wasnorm_wordpool_less_exclusions.txt	LTP233	ltpFR	12	3	0	PARENT	1013	n/a	n/a	1	n/a	0	0	0	n/a	n/a	n/a	n/a	n/a
1111.842	n/a	REC_WORD	555921	wordpools/wasnorm_wordpool_less_exclusions.txt	LTP233	ltpFR	12	3	1	FEAST	556	n/a	n/a	0	n/a	0	0	0	n/a	n/a	n/a	n/a	n/a
1112.73	n/a	REC_WORD	556365	wordpools/wasnorm_wordpool_less_exclusions.txt	LTP233	ltpFR	12	3	1	LUNG	850	n/a	n/a	0	n/a	0	0	0	n/a	n/a	n/a	n/a	n/a
1113.77	n/a	REC_WORD	556885	wordpools/wasnorm_wordpool_less_exclusions.txt	LTP233	ltpFR	12	3	1	BALCONY	72	n/a	n/a	0	n/a	0	0	0	n/a	n/a	n/a	n/a	n/a
1115.75	n/a	REC_WORD	557875	wordpools/wasnorm_wordpool_less_exclusions.txt	LTP233	ltpFR	12	3	1	QUARTER	1148	n/a	n/a	0	n/a	0	0	0	n/a	n/a	n/a	n/a	n/a
1116.788	n/a	REC_WORD	558394	wordpools/wasnorm_wordpool_less_exclusions.txt	LTP233	ltpFR	12	3	1	PORCH	1106	n/a	n/a	0	n/a	0	0	0	n/a	n/a	n/a	n/a	n/a
1118.164	n/a	REC_WORD	559082	wordpools/wasnorm_wordpool_less_exclusions.txt	LTP233	ltpFR	12	3	0	VET	1560	n/a	n/a	1	n/a	0	0	0	n/a	n/a	n/a	n/a	n/a
1119.092	n/a	REC_WORD	559546	wordpools/wasnorm_wordpool_less_exclusions.txt	LTP233	ltpFR	12	3	0	MOOSE	915	n/a	n/a	1	n/a	0	0	0	n/a	n/a	n/a	n/a	n/a
1120.026	n/a	REC_WORD	560013	wordpools/wasnorm_wordpool_less_exclusions.txt	LTP233	ltpFR	12	3	0	BIRD	129	n/a	n/a	0	n/a	0	0	0	n/a	n/a	n/a	n/a	n/a
1121.012	n/a	REC_WORD	560506	wordpools/wasnorm_wordpool_less_exclusions.txt	LTP233	ltpFR	12	3	0	DRUM	502	n/a	n/a	1	n/a	0	0	0	n/a	n/a	n/a	n/a	n/a
1121.93	n/a	REC_WORD	560965	wordpools/wasnorm_wordpool_less_exclusions.txt	LTP233	ltpFR	12	3	1	HARP	689	n/a	n/a	1	n/a	0	0	0	n/a	n/a	n/a	n/a	n/a
1125.004	n/a	REC_WORD	562502	wordpools/wasnorm_wordpool_less_exclusions.txt	LTP233	ltpFR	12	3	1	CLOTHES	327	n/a	n/a	0	n/a	0	0	0	n/a	n/a	n/a	n/a	n/a
1259.1	n/a	WORD	629550	wordpools/wasnorm_wordpool_less_exclusions.txt	LTP233	ltpFR	12	4	0	ASSISTANT	48	n/a	n/a	1	n/a	0	0	0	0.57763671875	0.412841796875	1	lower	amplitud.ttf
1263.11	n/a	WORD	631555	wordpools/wasnorm_wordpool_less_exclusions.txt	LTP233	ltpFR	12	4	0	STADIUM	1364	n/a	n/a	1	n/a	0	0	0	0.57763671875	0.412841796875	1	lower	amplitud.ttf
1266.964	n/a	WORD	633482	wordpools/wasnorm_wordpool_less_exclusions.txt	LTP233	ltpFR	12	4	1	COUGAR	387	n/a	n/a	1	n/a	0	0	0	0.422607421875	0.5869140625	0	upper	zerothre.ttf
1270.946	n/a	WORD	635473	wordpools/wasnorm_wordpool_less_exclusions.txt	LTP233	ltpFR	12	4	1	BUGGY	188	n/a	n/a	1	n/a	0	0	0	0.422607421875	0.5869140625	0	upper	zerothre.ttf
1275.108	n/a	WORD	637554	wordpools/wasnorm_wordpool_less_exclusions.txt	LTP233	ltpFR	12	4	1	FINGERNAIL	568	n/a	n/a	1	n/a	0	0	0	0.422607421875	0.5869140625	0	upper	zerothre.ttf
1279.21	n/a	WORD	639605	wordpools/wasnorm_wordpool_less_exclusions.txt	LTP233	ltpFR	12	4	1	HAND	683	n/a	n/a	0	n/a	0	0	0	0.422607421875	0.5869140625	0	upper	zerothre.ttf
1283.294	n/a	WORD	641647	wordpools/wasnorm_wordpool_less_exclusions.txt	LTP233	ltpFR	12	4	1	CLAY	320	n/a	n/a	0	n/a	0	0	0	0.422607421875	0.5869140625	0	upper	zerothre.ttf
1287.392	n/a	WORD	643696	wordpools/wasnorm_wordpool_less_exclusions.txt	LTP233	ltpFR	12	4	0	ELECTRON	522	n/a	n/a	0	n/a	0	0	0	0.57763671875	0.412841796875	1	lower	amplitud.ttf
1291.504	n/a	WORD	645752	wordpools/wasnorm_wordpool_less_exclusions.txt	LTP233	ltpFR	12	4	0	TURNIP	1521	n/a	n/a	0	n/a	0	0	0	0.57763671875	0.412841796875	1	lower	amplitud.ttf
1295.356	n/a	WORD	647678	wordpools/wasnorm_wordpool_less_exclusions.txt	LTP233	ltpFR	12	4	0	FRUIT	610	n/a	n/a	0	n/a	0	0	0	0.57763671875	0.412841796875	1	lower	amplitud.ttf
1299.266	n/a	WORD	649633	wordpools/wasnorm_wordpool_less_exclusions.txt	LTP233	ltpFR	12	4	0	WALNUT	1584	n/a	n/a	0	n/a	0	0	0	0.57763671875	0.412841796875	1	lower	amplitud.ttf
1303.454	n/a	WORD	651727	wordpools/wasnorm_wordpool_less_exclusions.txt	LTP233	ltpFR	12	4	0	CHIPMUNK	304	n/a	n/a	1	n/a	0	0	0	0.57763671875	0.412841796875	1	lower	amplitud.ttf
1307.302	n/a	WORD	653651	wordpools/wasnorm_wordpool_less_exclusions.txt	LTP233	ltpFR	12	4	0	BAG	69	n/a	n/a	0	n/a	0	0	0	0.57763671875	0.412841796875	1	lower	amplitud.ttf
1311.384	n/a	WORD	655692	wordpools/wasnorm_wordpool_less_exclusions.txt	LTP233	ltpFR	12	4	1	ATHLETE	52	n/a	n/a	1	n/a	0	0	0	0.422607421875	0.5869140625	0	upper	zerothre.ttf
1315.316	n/a	WORD	657658	wordpools/wasnorm_wordpool_less_exclusions.txt	LTP233	ltpFR	12	4	1	CAGE	218	n/a	n/a	0	n/a	0	0	0	0.422607421875	0.5869140625	0	upper	zerothre.ttf
1319.176	n/a	WORD	659588	wordpools/wasnorm_wordpool_less_exclusions.txt	LTP233	ltpFR	12	4	1	MOTOR	922	n/a	n/a	0	n/a	0	0	0	0.422607421875	0.5869140625	0	upper	zerothre.ttf
1325.07	n/a	REC_START	662535	n/a	LTP233	ltpFR	12	4	n/a	n/a	n/a	n/a	n/a	n/a	n/a	0	0	0	n/a	n/a	n/a	n/a	n/a
1326.53	n/a	REC_WORD	663265	wordpools/wasnorm_wordpool_less_exclusions.txt	LTP233	ltpFR	12	4	1	MOTOR	922	n/a	n/a	0	n/a	0	0	0	n/a	n/a	n/a	n/a	n/a
1327.524	n/a	REC_WORD	663762	wordpools/wasnorm_wordpool_less_exclusions.txt	LTP233	ltpFR	12	4	1	CAGE	218	n/a	n/a	0	n/a	0	0	0	n/a	n/a	n/a	n/a	n/a
1331.44	n/a	REC_WORD	665720	wordpools/wasnorm_wordpool_less_exclusions.txt	LTP233	ltpFR	12	4	1	ATHLETE	52	n/a	n/a	1	n/a	0	0	0	n/a	n/a	n/a	n/a	n/a
1333.43	n/a	REC_WORD	666715	wordpools/wasnorm_wordpool_less_exclusions.txt	LTP233	ltpFR	12	4	0	BAG	69	n/a	n/a	0	n/a	0	0	0	n/a	n/a	n/a	n/a	n/a
1337.526	n/a	REC_WORD	668763	wordpools/wasnorm_wordpool_less_exclusions.txt	LTP233	ltpFR	12	4	0	FRUIT	610	n/a	n/a	0	n/a	0	0	0	n/a	n/a	n/a	n/a	n/a
1338.638	n/a	REC_WORD	669319	wordpools/wasnorm_wordpool_less_exclusions.txt	LTP233	ltpFR	12	4	0	TURNIP	1521	n/a	n/a	0	n/a	0	0	0	n/a	n/a	n/a	n/a	n/a
1344.366	n/a	REC_WORD	672183	wordpools/wasnorm_wordpool_less_exclusions.txt	LTP233	ltpFR	12	4	0	WALNUT	1584	n/a	n/a	0	n/a	0	0	0	n/a	n/a	n/a	n/a	n/a
1345.26	n/a	REC_WORD	672630	wordpools/wasnorm_wordpool_less_exclusions.txt	LTP233	ltpFR	12	4	0	ELECTRON	522	n/a	n/a	0	n/a	0	0	0	n/a	n/a	n/a	n/a	n/a
1349.634	n/a	REC_WORD	674817	wordpools/wasnorm_wordpool_less_exclusions.txt	LTP233	ltpFR	12	4	1	COUGAR	387	n/a	n/a	1	n/a	0	0	0	n/a	n/a	n/a	n/a	n/a
1353.036	n/a	REC_WORD	676518	wordpools/wasnorm_wordpool_less_exclusions.txt	LTP233	ltpFR	12	4	0	ASSISTANT	48	n/a	n/a	1	n/a	0	0	0	n/a	n/a	n/a	n/a	n/a
1355.976	n/a	REC_WORD	677988	wordpools/wasnorm_wordpool_less_exclusions.txt	LTP233	ltpFR	12	4	1	BUGGY	188	n/a	n/a	1	n/a	0	0	0	n/a	n/a	n/a	n/a	n/a
1359.024	n/a	REC_WORD	679512	wordpools/wasnorm_wordpool_less_exclusions.txt	LTP233	ltpFR	12	4	0	STADIUM	1364	n/a	n/a	1	n/a	0	0	0	n/a	n/a	n/a	n/a	n/a
1376.11	n/a	REC_WORD	688055	wordpools/wasnorm_wordpool_less_exclusions.txt	LTP233	ltpFR	12	4	1	CLAY	320	n/a	n/a	0	n/a	0	0	0	n/a	n/a	n/a	n/a	n/a
1377.808	n/a	REC_WORD	688904	wordpools/wasnorm_wordpool_less_exclusions.txt	LTP233	ltpFR	12	4	1	FINGERNAIL	568	n/a	n/a	1	n/a	0	0	0	n/a	n/a	n/a	n/a	n/a
1379.304	n/a	REC_WORD	689652	wordpools/wasnorm_wordpool_less_exclusions.txt	LTP233	ltpFR	12	4	1	HAND	683	n/a	n/a	0	n/a	0	0	0	n/a	n/a	n/a	n/a	n/a
1468.216	n/a	WORD	734108	wordpools/wasnorm_wordpool_less_exclusions.txt	LTP233	ltpFR	12	5	0	TWEEZERS	1526	n/a	n/a	0	n/a	0	0	0	0.57763671875	0.412841796875	1	lower	amplitud.ttf
1472.114	n/a	WORD	736057	wordpools/wasnorm_wordpool_less_exclusions.txt	LTP233	ltpFR	12	5	0	VILLAGE	1566	n/a	n/a	1	n/a	0	0	0	0.57763671875	0.412841796875	1	lower	amplitud.ttf
1475.996	n/a	WORD	737998	wordpools/wasnorm_wordpool_less_exclusions.txt	LTP233	ltpFR	12	5	0	CAB	209	n/a	n/a	1	n/a	0	0	0	0.57763671875	0.412841796875	1	lower	amplitud.ttf
1480.18	n/a	WORD	740090	wordpools/wasnorm_wordpool_less_exclusions.txt	LTP233	ltpFR	12	5	0	SIGN	1305	n/a	n/a	1	n/a	0	0	0	0.57763671875	0.412841796875	1	lower	amplitud.ttf
1484.376	n/a	WORD	742188	wordpools/wasnorm_wordpool_less_exclusions.txt	LTP233	ltpFR	12	5	0	DRAWING	494	n/a	n/a	1	n/a	0	0	0	0.57763671875	0.412841796875	1	lower	amplitud.ttf
1488.376	n/a	WORD	744188	wordpools/wasnorm_wordpool_less_exclusions.txt	LTP233	ltpFR	12	5	0	APPLE	33	n/a	n/a	0	n/a	0	0	0	0.57763671875	0.412841796875	1	lower	amplitud.ttf
1492.472	n/a	WORD	746236	wordpools/wasnorm_wordpool_less_exclusions.txt	LTP233	ltpFR	12	5	0	PRUNE	1134	n/a	n/a	0	n/a	0	0	0	0.57763671875	0.412841796875	1	lower	amplitud.ttf
1496.638	n/a	WORD	748319	wordpools/wasnorm_wordpool_less_exclusions.txt	LTP233	ltpFR	12	5	0	DIAGRAM	456	n/a	n/a	0	n/a	0	0	0	0.57763671875	0.412841796875	1	lower	amplitud.ttf
1500.59	n/a	WORD	750295	wordpools/wasnorm_wordpool_less_exclusions.txt	LTP233	ltpFR	12	5	0	WATER	1594	n/a	n/a	0	n/a	0	0	0	0.57763671875	0.412841796875	1	lower	amplitud.ttf
1504.672	n/a	WORD	752336	wordpools/wasnorm_wordpool_less_exclusions.txt	LTP233	ltpFR	12	5	0	ROOF	1205	n/a	n/a	1	n/a	0	0	0	0.57763671875	0.412841796875	1	lower	amplitud.ttf
1508.67	n/a	WORD	754335	wordpools/wasnorm_wordpool_less_exclusions.txt	LTP233	ltpFR	12	5	0	PRAIRIE	1118	n/a	n/a	1	n/a	0	0	0	0.57763671875	0.412841796875	1	lower	amplitud.ttf
1512.87	n/a	WORD	756435	wordpools/wasnorm_wordpool_less_exclusions.txt	LTP233	ltpFR	12	5	0	SURF	1412	n/a	n/a	1	n/a	0	0	0	0.57763671875	0.412841796875	1	lower	amplitud.ttf
1517.082	n/a	WORD	758541	wordpools/wasnorm_wordpool_less_exclusions.txt	LTP233	ltpFR	12	5	0	WHISTLE	1606	n/a	n/a	0	n/a	0	0	0	0.57763671875	0.412841796875	1	lower	amplitud.ttf
1521.248	n/a	WORD	760624	wordpools/wasnorm_wordpool_less_exclusions.txt	LTP233	ltpFR	12	5	0	PAINTING	1005	n/a	n/a	0	n/a	0	0	0	0.57763671875	0.412841796875	1	lower	amplitud.ttf
1525.452	n/a	WORD	762726	wordpools/wasnorm_wordpool_less_exclusions.txt	LTP233	ltpFR	12	5	0	LADY	794	n/a	n/a	1	n/a	0	0	0	0.57763671875	0.412841796875	1	lower	amplitud.ttf
1529.318	n/a	WORD	764659	wordpools/wasnorm_wordpool_less_exclusions.txt	LTP233	ltpFR	12	5	0	SCOUT	1252	n/a	n/a	1	n/a	0	0	0	0.57763671875	0.412841796875	1	lower	amplitud.ttf
1532.328	n/a	START	766164	n/a	LTP233	ltpFR	12	n/a	n/a	n/a	n/a	n/a	n/a	n/a	n/a	n/a	n/a	n/a	n/a	n/a	n/a	n/a	n/a
1533.466	n/a	PROB	766733	n/a	LTP233	ltpFR	12	n/a	n/a	n/a	n/a	n/a	n/a	n/a	18	9	3	6	n/a	n/a	n/a	n/a	n/a
1535.038	n/a	PROB	767519	n/a	LTP233	ltpFR	12	n/a	n/a	n/a	n/a	n/a	n/a	n/a	16	8	5	3	n/a	n/a	n/a	n/a	n/a
1536.226	n/a	PROB	768113	n/a	LTP233	ltpFR	12	n/a	n/a	n/a	n/a	n/a	n/a	n/a	14	4	8	2	n/a	n/a	n/a	n/a	n/a
1537.36	n/a	PROB	768680	n/a	LTP233	ltpFR	12	n/a	n/a	n/a	n/a	n/a	n/a	n/a	16	9	5	2	n/a	n/a	n/a	n/a	n/a
1538.772	n/a	STOP	769386	n/a	LTP233	ltpFR	12	n/a	n/a	n/a	n/a	n/a	n/a	n/a	n/a	n/a	n/a	n/a	n/a	n/a	n/a	n/a	n/a
1542.116	n/a	REC_START	771058	n/a	LTP233	ltpFR	12	5	n/a	n/a	n/a	n/a	n/a	n/a	n/a	0	0	0	n/a	n/a	n/a	n/a	n/a
1542.63	n/a	REC_WORD	771315	wordpools/wasnorm_wordpool_less_exclusions.txt	LTP233	ltpFR	12	5	0	SCOUT	1252	n/a	n/a	1	n/a	0	0	0	n/a	n/a	n/a	n/a	n/a
1543.836	n/a	REC_WORD	771918	wordpools/wasnorm_wordpool_less_exclusions.txt	LTP233	ltpFR	12	5	0	LADY	794	n/a	n/a	1	n/a	0	0	0	n/a	n/a	n/a	n/a	n/a
1544.844	n/a	REC_WORD	772422	wordpools/wasnorm_wordpool_less_exclusions.txt	LTP233	ltpFR	12	5	0	PAINTING	1005	n/a	n/a	0	n/a	0	0	0	n/a	n/a	n/a	n/a	n/a
1547.39	n/a	REC_WORD	773695	wordpools/wasnorm_wordpool_less_exclusions.txt	LTP233	ltpFR	12	5	0	DIAGRAM	456	n/a	n/a	0	n/a	0	0	0	n/a	n/a	n/a	n/a	n/a
1549.21	n/a	REC_WORD	774605	wordpools/wasnorm_wordpool_less_exclusions.txt	LTP233	ltpFR	12	5	0	SIGN	1305	n/a	n/a	1	n/a	0	0	0	n/a	n/a	n/a	n/a	n/a
1550.352	n/a	REC_WORD	775176	wordpools/wasnorm_wordpool_less_exclusions.txt	LTP233	ltpFR	12	5	0	APPLE	33	n/a	n/a	0	n/a	0	0	0	n/a	n/a	n/a	n/a	n/a
1551.3	n/a	REC_WORD	775650	wordpools/wasnorm_wordpool_less_exclusions.txt	LTP233	ltpFR	12	5	0	PRUNE	1134	n/a	n/a	0	n/a	0	0	0	n/a	n/a	n/a	n/a	n/a
1555.626	n/a	REC_WORD	777813	wordpools/wasnorm_wordpool_less_exclusions.txt	LTP233	ltpFR	12	5	0	WATER	1594	n/a	n/a	0	n/a	0	0	0	n/a	n/a	n/a	n/a	n/a
1556.254	n/a	REC_WORD	778127	wordpools/wasnorm_wordpool_less_exclusions.txt	LTP233	ltpFR	12	5	0	SURF	1412	n/a	n/a	1	n/a	0	0	0	n/a	n/a	n/a	n/a	n/a
1563.274	n/a	REC_WORD	781637	wordpools/wasnorm_wordpool_less_exclusions.txt	LTP233	ltpFR	12	5	0	CAB	209	n/a	n/a	1	n/a	0	0	0	n/a	n/a	n/a	n/a	n/a
1564.022	n/a	REC_WORD	782011	wordpools/wasnorm_wordpool_less_exclusions.txt	LTP233	ltpFR	12	5	0	TWEEZERS	1526	n/a	n/a	0	n/a	0	0	0	n/a	n/a	n/a	n/a	n/a
1565.49	n/a	REC_WORD	782745	wordpools/wasnorm_wordpool_less_exclusions.txt	LTP233	ltpFR	12	5	0	VILLAGE	1566	n/a	n/a	1	n/a	0	0	0	n/a	n/a	n/a	n/a	n/a
1621.47	n/a	WORD	810735	wordpools/wasnorm_wordpool_less_exclusions.txt	LTP233	ltpFR	12	6	1	BUREAU	199	n/a	n/a	0	n/a	0	0	0	0.422607421875	0.5869140625	0	upper	zerothre.ttf
1625.55	n/a	WORD	812775	wordpools/wasnorm_wordpool_less_exclusions.txt	LTP233	ltpFR	12	6	1	LINT	826	n/a	n/a	0	n/a	0	0	0	0.422607421875	0.5869140625	0	upper	zerothre.ttf
1629.416	n/a	WORD	814708	wordpools/wasnorm_wordpool_less_exclusions.txt	LTP233	ltpFR	12	6	1	TONGUE	1479	n/a	n/a	0	n/a	0	0	0	0.422607421875	0.5869140625	0	upper	zerothre.ttf
1633.28	n/a	WORD	816640	wordpools/wasnorm_wordpool_less_exclusions.txt	LTP233	ltpFR	12	6	1	SATURN	1236	n/a	n/a	0	n/a	0	0	0	0.422607421875	0.5869140625	0	upper	zerothre.ttf
1637.212	n/a	WORD	818606	wordpools/wasnorm_wordpool_less_exclusions.txt	LTP233	ltpFR	12	6	1	ACORN	3	n/a	n/a	1	n/a	0	0	0	0.422607421875	0.5869140625	0	upper	zerothre.ttf
1641.126	n/a	WORD	820563	wordpools/wasnorm_wordpool_less_exclusions.txt	LTP233	ltpFR	12	6	1	RIBBON	1189	n/a	n/a	0	n/a	0	0	0	0.422607421875	0.5869140625	0	upper	zerothre.ttf
1645.26	n/a	WORD	822630	wordpools/wasnorm_wordpool_less_exclusions.txt	LTP233	ltpFR	12	6	1	BEET	115	n/a	n/a	1	n/a	0	0	0	0.422607421875	0.5869140625	0	upper	zerothre.ttf
1649.41	n/a	WORD	824705	wordpools/wasnorm_wordpool_less_exclusions.txt	LTP233	ltpFR	12	6	1	GODDESS	646	n/a	n/a	1	n/a	0	0	0	0.422607421875	0.5869140625	0	upper	zerothre.ttf
1653.336	n/a	WORD	826668	wordpools/wasnorm_wordpool_less_exclusions.txt	LTP233	ltpFR	12	6	1	WARRIOR	1589	n/a	n/a	1	n/a	0	0	0	0.422607421875	0.5869140625	0	upper	zerothre.ttf
1657.206	n/a	WORD	828603	wordpools/wasnorm_wordpool_less_exclusions.txt	LTP233	ltpFR	12	6	1	COURT	391	n/a	n/a	0	n/a	0	0	0	0.422607421875	0.5869140625	0	upper	zerothre.ttf
1661.172	n/a	WORD	830586	wordpools/wasnorm_wordpool_less_exclusions.txt	LTP233	ltpFR	12	6	1	JURY	766	n/a	n/a	1	n/a	0	0	0	0.422607421875	0.5869140625	0	upper	zerothre.ttf
1665.304	n/a	WORD	832652	wordpools/wasnorm_wordpool_less_exclusions.txt	LTP233	ltpFR	12	6	1	PECAN	1036	n/a	n/a	1	n/a	0	0	0	0.422607421875	0.5869140625	0	upper	zerothre.ttf
1669.418	n/a	WORD	834709	wordpools/wasnorm_wordpool_less_exclusions.txt	LTP233	ltpFR	12	6	1	ROOMMATE	1207	n/a	n/a	1	n/a	0	0	0	0.422607421875	0.5869140625	0	upper	zerothre.ttf
1673.45	n/a	WORD	836725	wordpools/wasnorm_wordpool_less_exclusions.txt	LTP233	ltpFR	12	6	1	ASTEROID	50	n/a	n/a	0	n/a	0	0	0	0.422607421875	0.5869140625	0	upper	zerothre.ttf
1677.65	n/a	WORD	838825	wordpools/wasnorm_wordpool_less_exclusions.txt	LTP233	ltpFR	12	6	1	PIGMENT	1066	n/a	n/a	0	n/a	0	0	0	0.422607421875	0.5869140625	0	upper	zerothre.ttf
1681.598	n/a	WORD	840799	wordpools/wasnorm_wordpool_less_exclusions.txt	LTP233	ltpFR	12	6	1	GUEST	669	n/a	n/a	1	n/a	0	0	0	0.422607421875	0.5869140625	0	upper	zerothre.ttf
1684.61	n/a	START	842305	n/a	LTP233	ltpFR	12	n/a	n/a	n/a	n/a	n/a	n/a	n/a	n/a	n/a	n/a	n/a	n/a	n/a	n/a	n/a	n/a
1685.444	n/a	PROB	842722	n/a	LTP233	ltpFR	12	n/a	n/a	n/a	n/a	n/a	n/a	n/a	20	6	7	7	n/a	n/a	n/a	n/a	n/a
1686.948	n/a	PROB	843474	n/a	LTP233	ltpFR	12	n/a	n/a	n/a	n/a	n/a	n/a	n/a	22	7	8	7	n/a	n/a	n/a	n/a	n/a
1688.388	n/a	PROB	844194	n/a	LTP233	ltpFR	12	n/a	n/a	n/a	n/a	n/a	n/a	n/a	16	8	6	2	n/a	n/a	n/a	n/a	n/a
1689.712	n/a	PROB	844856	n/a	LTP233	ltpFR	12	n/a	n/a	n/a	n/a	n/a	n/a	n/a	17	4	9	4	n/a	n/a	n/a	n/a	n/a
1693.29	n/a	PROB	846645	n/a	LTP233	ltpFR	12	n/a	n/a	n/a	n/a	n/a	n/a	n/a	19	7	4	8	n/a	n/a	n/a	n/a	n/a
1694.594	n/a	PROB	847297	n/a	LTP233	ltpFR	12	n/a	n/a	n/a	n/a	n/a	n/a	n/a	13	5	7	1	n/a	n/a	n/a	n/a	n/a
1696.168	n/a	PROB	848084	n/a	LTP233	ltpFR	12	n/a	n/a	n/a	n/a	n/a	n/a	n/a	19	3	7	9	n/a	n/a	n/a	n/a	n/a
1697.49	n/a	PROB	848745	n/a	LTP233	ltpFR	12	n/a	n/a	n/a	n/a	n/a	n/a	n/a	12	1	6	5	n/a	n/a	n/a	n/a	n/a
1698.614	n/a	PROB	849307	n/a	LTP233	ltpFR	12	n/a	n/a	n/a	n/a	n/a	n/a	n/a	13	3	8	2	n/a	n/a	n/a	n/a	n/a
1700.062	n/a	STOP	850031	n/a	LTP233	ltpFR	12	n/a	n/a	n/a	n/a	n/a	n/a	n/a	n/a	n/a	n/a	n/a	n/a	n/a	n/a	n/a	n/a
1702.446	n/a	REC_START	851223	n/a	LTP233	ltpFR	12	6	n/a	n/a	n/a	n/a	n/a	n/a	n/a	0	0	0	n/a	n/a	n/a	n/a	n/a
1705.62	n/a	REC_WORD	852810	wordpools/wasnorm_wordpool_less_exclusions.txt	LTP233	ltpFR	12	6	1	COURT	391	n/a	n/a	0	n/a	0	0	0	n/a	n/a	n/a	n/a	n/a
1706.722	n/a	REC_WORD	853361	wordpools/wasnorm_wordpool_less_exclusions.txt	LTP233	ltpFR	12	6	1	JURY	766	n/a	n/a	1	n/a	0	0	0	n/a	n/a	n/a	n/a	n/a
1708.224	n/a	REC_WORD	854112	wordpools/wasnorm_wordpool_less_exclusions.txt	LTP233	ltpFR	12	6	1	ASTEROID	50	n/a	n/a	0	n/a	0	0	0	n/a	n/a	n/a	n/a	n/a
1710.608	n/a	REC_WORD	855304	wordpools/wasnorm_wordpool_less_exclusions.txt	LTP233	ltpFR	12	6	1	GUEST	669	n/a	n/a	1	n/a	0	0	0	n/a	n/a	n/a	n/a	n/a
1712.278	n/a	REC_WORD	856139	wordpools/wasnorm_wordpool_less_exclusions.txt	LTP233	ltpFR	12	6	1	ROOMMATE	1207	n/a	n/a	1	n/a	0	0	0	n/a	n/a	n/a	n/a	n/a
1713.456	n/a	REC_WORD	856728	wordpools/wasnorm_wordpool_less_exclusions.txt	LTP233	ltpFR	12	6	1	WARRIOR	1589	n/a	n/a	1	n/a	0	0	0	n/a	n/a	n/a	n/a	n/a
1714.39	n/a	REC_WORD	857195	wordpools/wasnorm_wordpool_less_exclusions.txt	LTP233	ltpFR	12	6	1	SATURN	1236	n/a	n/a	0	n/a	0	0	0	n/a	n/a	n/a	n/a	n/a
1715.832	n/a	REC_WORD	857916	wordpools/wasnorm_wordpool_less_exclusions.txt	LTP233	ltpFR	12	6	1	GODDESS	646	n/a	n/a	1	n/a	0	0	0	n/a	n/a	n/a	n/a	n/a
1736.65	n/a	REC_WORD	868325	wordpools/wasnorm_wordpool_less_exclusions.txt	LTP233	ltpFR	12	6	1	BEET	115	n/a	n/a	1	n/a	0	0	0	n/a	n/a	n/a	n/a	n/a
1740.272	n/a	REC_WORD	870136	wordpools/wasnorm_wordpool_less_exclusions.txt	LTP233	ltpFR	12	6	1	ACORN	3	n/a	n/a	1	n/a	0	0	0	n/a	n/a	n/a	n/a	n/a
1766.518	n/a	REC_WORD	883259	wordpools/wasnorm_wordpool_less_exclusions.txt	LTP233	ltpFR	12	6	1	TONGUE	1479	n/a	n/a	0	n/a	0	0	0	n/a	n/a	n/a	n/a	n/a
1767.79	n/a	REC_WORD	883895	wordpools/wasnorm_wordpool_less_exclusions.txt	LTP233	ltpFR	12	6	1	LINT	826	n/a	n/a	0	n/a	0	0	0	n/a	n/a	n/a	n/a	n/a
1808.502	n/a	START	904251	n/a	LTP233	ltpFR	12	n/a	n/a	n/a	n/a	n/a	n/a	n/a	n/a	n/a	n/a	n/a	n/a	n/a	n/a	n/a	n/a
1810.018	n/a	PROB	905009	n/a	LTP233	ltpFR	12	n/a	n/a	n/a	n/a	n/a	n/a	n/a	17	9	3	5	n/a	n/a	n/a	n/a	n/a
1811.976	n/a	PROB	905988	n/a	LTP233	ltpFR	12	n/a	n/a	n/a	n/a	n/a	n/a	n/a	15	2	4	9	n/a	n/a	n/a	n/a	n/a
1813.282	n/a	PROB	906641	n/a	LTP233	ltpFR	12	n/a	n/a	n/a	n/a	n/a	n/a	n/a	19	9	7	3	n/a	n/a	n/a	n/a	n/a
1815.29	n/a	PROB	907645	n/a	LTP233	ltpFR	12	n/a	n/a	n/a	n/a	n/a	n/a	n/a	10	7	1	2	n/a	n/a	n/a	n/a	n/a
1816.544	n/a	PROB	908272	n/a	LTP233	ltpFR	12	n/a	n/a	n/a	n/a	n/a	n/a	n/a	20	9	5	6	n/a	n/a	n/a	n/a	n/a
1819.086	n/a	PROB	909543	n/a	LTP233	ltpFR	12	n/a	n/a	n/a	n/a	n/a	n/a	n/a	19	5	8	6	n/a	n/a	n/a	n/a	n/a
1821.964	n/a	PROB	910982	n/a	LTP233	ltpFR	12	n/a	n/a	n/a	n/a	n/a	n/a	n/a	18	2	8	8	n/a	n/a	n/a	n/a	n/a
1823.148	n/a	STOP	911574	n/a	LTP233	ltpFR	12	n/a	n/a	n/a	n/a	n/a	n/a	n/a	n/a	n/a	n/a	n/a	n/a	n/a	n/a	n/a	n/a
1825.548	n/a	WORD	912774	wordpools/wasnorm_wordpool_less_exclusions.txt	LTP233	ltpFR	12	7	1	TIGER	1467	n/a	n/a	1	n/a	0	0	0	0.422607421875	0.5869140625	0	upper	zerothre.ttf
1828.56	n/a	START	914280	n/a	LTP233	ltpFR	12	n/a	n/a	n/a	n/a	n/a	n/a	n/a	n/a	n/a	n/a	n/a	n/a	n/a	n/a	n/a	n/a
1829.63	n/a	PROB	914815	n/a	LTP233	ltpFR	12	n/a	n/a	n/a	n/a	n/a	n/a	n/a	20	9	9	2	n/a	n/a	n/a	n/a	n/a
1830.768	n/a	PROB	915384	n/a	LTP233	ltpFR	12	n/a	n/a	n/a	n/a	n/a	n/a	n/a	21	8	6	7	n/a	n/a	n/a	n/a	n/a
1832.254	n/a	PROB	916127	n/a	LTP233	ltpFR	12	n/a	n/a	n/a	n/a	n/a	n/a	n/a	14	3	3	8	n/a	n/a	n/a	n/a	n/a
1833.776	n/a	PROB	916888	n/a	LTP233	ltpFR	12	n/a	n/a	n/a	n/a	n/a	n/a	n/a	15	9	1	5	n/a	n/a	n/a	n/a	n/a
1836.37	n/a	PROB	918185	n/a	LTP233	ltpFR	12	n/a	n/a	n/a	n/a	n/a	n/a	n/a	26	8	9	9	n/a	n/a	n/a	n/a	n/a
1838.176	n/a	PROB	919088	n/a	LTP233	ltpFR	12	n/a	n/a	n/a	n/a	n/a	n/a	n/a	26	9	8	9	n/a	n/a	n/a	n/a	n/a
1839.632	n/a	PROB	919816	n/a	LTP233	ltpFR	12	n/a	n/a	n/a	n/a	n/a	n/a	n/a	23	6	9	8	n/a	n/a	n/a	n/a	n/a
1842.426	n/a	PROB	921213	n/a	LTP233	ltpFR	12	n/a	n/a	n/a	n/a	n/a	n/a	n/a	9	1	5	3	n/a	n/a	n/a	n/a	n/a
1843.884	n/a	STOP	921942	n/a	LTP233	ltpFR	12	n/a	n/a	n/a	n/a	n/a	n/a	n/a	n/a	n/a	n/a	n/a	n/a	n/a	n/a	n/a	n/a
1845.592	n/a	WORD	922796	wordpools/wasnorm_wordpool_less_exclusions.txt	LTP233	ltpFR	12	7	1	POSTAGE	1113	n/a	n/a	0	n/a	0	0	0	0.422607421875	0.5869140625	0	upper	zerothre.ttf
1848.604	n/a	START	924302	n/a	LTP233	ltpFR	12	n/a	n/a	n/a	n/a	n/a	n/a	n/a	n/a	n/a	n/a	n/a	n/a	n/a	n/a	n/a	n/a
1849.458	n/a	PROB	924729	n/a	LTP233	ltpFR	12	n/a	n/a	n/a	n/a	n/a	n/a	n/a	5	2	1	2	n/a	n/a	n/a	n/a	n/a
1851.428	n/a	PROB	925714	n/a	LTP233	ltpFR	12	n/a	n/a	n/a	n/a	n/a	n/a	n/a	20	9	2	9	n/a	n/a	n/a	n/a	n/a
1852.682	n/a	PROB	926341	n/a	LTP233	ltpFR	12	n/a	n/a	n/a	n/a	n/a	n/a	n/a	11	2	8	1	n/a	n/a	n/a	n/a	n/a
1854.07	n/a	PROB	927035	n/a	LTP233	ltpFR	12	n/a	n/a	n/a	n/a	n/a	n/a	n/a	20	9	5	6	n/a	n/a	n/a	n/a	n/a
1856.546	n/a	PROB	928273	n/a	LTP233	ltpFR	12	n/a	n/a	n/a	n/a	n/a	n/a	n/a	16	9	6	1	n/a	n/a	n/a	n/a	n/a
1857.834	n/a	PROB	928917	n/a	LTP233	ltpFR	12	n/a	n/a	n/a	n/a	n/a	n/a	n/a	21	7	6	8	n/a	n/a	n/a	n/a	n/a
1859.24	n/a	PROB	929620	n/a	LTP233	ltpFR	12	n/a	n/a	n/a	n/a	n/a	n/a	n/a	16	9	4	3	n/a	n/a	n/a	n/a	n/a
1860.416	n/a	PROB	930208	n/a	LTP233	ltpFR	12	n/a	n/a	n/a	n/a	n/a	n/a	n/a	20	7	6	7	n/a	n/a	n/a	n/a	n/a
1861.682	n/a	PROB	930841	n/a	LTP233	ltpFR	12	n/a	n/a	n/a	n/a	n/a	n/a	n/a	11	1	1	9	n/a	n/a	n/a	n/a	n/a
1862.904	n/a	PROB	931452	n/a	LTP233	ltpFR	12	n/a	n/a	n/a	n/a	n/a	n/a	n/a	16	5	9	2	n/a	n/a	n/a	n/a	n/a
1864.456	n/a	STOP	932228	n/a	LTP233	ltpFR	12	n/a	n/a	n/a	n/a	n/a	n/a	n/a	n/a	n/a	n/a	n/a	n/a	n/a	n/a	n/a	n/a
1865.518	n/a	WORD	932759	wordpools/wasnorm_wordpool_less_exclusions.txt	LTP233	ltpFR	12	7	1	COAT	333	n/a	n/a	0	n/a	0	0	0	0.422607421875	0.5869140625	0	upper	zerothre.ttf
1868.53	n/a	START	934265	n/a	LTP233	ltpFR	12	n/a	n/a	n/a	n/a	n/a	n/a	n/a	n/a	n/a	n/a	n/a	n/a	n/a	n/a	n/a	n/a
1869.666	n/a	PROB	934833	n/a	LTP233	ltpFR	12	n/a	n/a	n/a	n/a	n/a	n/a	n/a	7	5	1	1	n/a	n/a	n/a	n/a	n/a
1870.818	n/a	PROB	935409	n/a	LTP233	ltpFR	12	n/a	n/a	n/a	n/a	n/a	n/a	n/a	10	4	3	3	n/a	n/a	n/a	n/a	n/a
1872.408	n/a	PROB	936204	n/a	LTP233	ltpFR	12	n/a	n/a	n/a	n/a	n/a	n/a	n/a	18	6	5	7	n/a	n/a	n/a	n/a	n/a
1873.762	n/a	PROB	936881	n/a	LTP233	ltpFR	12	n/a	n/a	n/a	n/a	n/a	n/a	n/a	10	5	3	2	n/a	n/a	n/a	n/a	n/a
1876.59	n/a	PROB	938295	n/a	LTP233	ltpFR	12	n/a	n/a	n/a	n/a	n/a	n/a	n/a	14	9	1	4	n/a	n/a	n/a	n/a	n/a
1877.962	n/a	PROB	938981	n/a	LTP233	ltpFR	12	n/a	n/a	n/a	n/a	n/a	n/a	n/a	12	7	1	4	n/a	n/a	n/a	n/a	n/a
1879.266	n/a	PROB	939633	n/a	LTP233	ltpFR	12	n/a	n/a	n/a	n/a	n/a	n/a	n/a	10	3	1	6	n/a	n/a	n/a	n/a	n/a
1881.072	n/a	PROB	940536	n/a	LTP233	ltpFR	12	n/a	n/a	n/a	n/a	n/a	n/a	n/a	19	6	4	9	n/a	n/a	n/a	n/a	n/a
1882.964	n/a	PROB	941482	n/a	LTP233	ltpFR	12	n/a	n/a	n/a	n/a	n/a	n/a	n/a	18	8	8	2	n/a	n/a	n/a	n/a	n/a
1884.104	n/a	STOP	942052	n/a	LTP233	ltpFR	12	n/a	n/a	n/a	n/a	n/a	n/a	n/a	n/a	n/a	n/a	n/a	n/a	n/a	n/a	n/a	n/a
1885.462	n/a	WORD	942731	wordpools/wasnorm_wordpool_less_exclusions.txt	LTP233	ltpFR	12	7	1	CARROT	249	n/a	n/a	1	n/a	0	0	0	0.422607421875	0.5869140625	0	upper	zerothre.ttf
1888.474	n/a	START	944237	n/a	LTP233	ltpFR	12	n/a	n/a	n/a	n/a	n/a	n/a	n/a	n/a	n/a	n/a	n/a	n/a	n/a	n/a	n/a	n/a
1889.394	n/a	PROB	944697	n/a	LTP233	ltpFR	12	n/a	n/a	n/a	n/a	n/a	n/a	n/a	16	8	7	1	n/a	n/a	n/a	n/a	n/a
1890.844	n/a	PROB	945422	n/a	LTP233	ltpFR	12	n/a	n/a	n/a	n/a	n/a	n/a	n/a	14	4	8	2	n/a	n/a	n/a	n/a	n/a
1891.932	n/a	PROB	945966	n/a	LTP233	ltpFR	12	n/a	n/a	n/a	n/a	n/a	n/a	n/a	17	1	8	8	n/a	n/a	n/a	n/a	n/a
1893.956	n/a	PROB	946978	n/a	LTP233	ltpFR	12	n/a	n/a	n/a	n/a	n/a	n/a	n/a	16	9	6	1	n/a	n/a	n/a	n/a	n/a
1895.194	n/a	PROB	947597	n/a	LTP233	ltpFR	12	n/a	n/a	n/a	n/a	n/a	n/a	n/a	13	1	5	7	n/a	n/a	n/a	n/a	n/a
1896.532	n/a	PROB	948266	n/a	LTP233	ltpFR	12	n/a	n/a	n/a	n/a	n/a	n/a	n/a	12	2	9	1	n/a	n/a	n/a	n/a	n/a
1897.652	n/a	PROB	948826	n/a	LTP233	ltpFR	12	n/a	n/a	n/a	n/a	n/a	n/a	n/a	10	2	1	7	n/a	n/a	n/a	n/a	n/a
1899.012	n/a	PROB	949506	n/a	LTP233	ltpFR	12	n/a	n/a	n/a	n/a	n/a	n/a	n/a	16	6	6	4	n/a	n/a	n/a	n/a	n/a
1900.948	n/a	PROB	950474	n/a	LTP233	ltpFR	12	n/a	n/a	n/a	n/a	n/a	n/a	n/a	17	5	5	7	n/a	n/a	n/a	n/a	n/a
1902.108	n/a	PROB	951054	n/a	LTP233	ltpFR	12	n/a	n/a	n/a	n/a	n/a	n/a	n/a	10	4	3	3	n/a	n/a	n/a	n/a	n/a
1903.298	n/a	STOP	951649	n/a	LTP233	ltpFR	12	n/a	n/a	n/a	n/a	n/a	n/a	n/a	n/a	n/a	n/a	n/a	n/a	n/a	n/a	n/a	n/a
1905.418	n/a	WORD	952709	wordpools/wasnorm_wordpool_less_exclusions.txt	LTP233	ltpFR	12	7	1	BUNNY	198	n/a	n/a	1	n/a	0	0	0	0.422607421875	0.5869140625	0	upper	zerothre.ttf
1908.434	n/a	START	954217	n/a	LTP233	ltpFR	12	n/a	n/a	n/a	n/a	n/a	n/a	n/a	n/a	n/a	n/a	n/a	n/a	n/a	n/a	n/a	n/a
1909.636	n/a	PROB	954818	n/a	LTP233	ltpFR	12	n/a	n/a	n/a	n/a	n/a	n/a	n/a	9	4	3	2	n/a	n/a	n/a	n/a	n/a
1910.92	n/a	PROB	955460	n/a	LTP233	ltpFR	12	n/a	n/a	n/a	n/a	n/a	n/a	n/a	24	8	8	8	n/a	n/a	n/a	n/a	n/a
1912.794	n/a	PROB	956397	n/a	LTP233	ltpFR	12	n/a	n/a	n/a	n/a	n/a	n/a	n/a	19	8	3	8	n/a	n/a	n/a	n/a	n/a
1914.048	n/a	PROB	957024	n/a	LTP233	ltpFR	12	n/a	n/a	n/a	n/a	n/a	n/a	n/a	21	7	8	6	n/a	n/a	n/a	n/a	n/a
1915.792	n/a	PROB	957896	n/a	LTP233	ltpFR	12	n/a	n/a	n/a	n/a	n/a	n/a	n/a	13	2	2	9	n/a	n/a	n/a	n/a	n/a
1916.976	n/a	PROB	958488	n/a	LTP233	ltpFR	12	n/a	n/a	n/a	n/a	n/a	n/a	n/a	21	7	5	9	n/a	n/a	n/a	n/a	n/a
1918.454	n/a	PROB	959227	n/a	LTP233	ltpFR	12	n/a	n/a	n/a	n/a	n/a	n/a	n/a	21	8	8	5	n/a	n/a	n/a	n/a	n/a
1920.98	n/a	PROB	960490	n/a	LTP233	ltpFR	12	n/a	n/a	n/a	n/a	n/a	n/a	n/a	21	8	8	5	n/a	n/a	n/a	n/a	n/a
1922.03	n/a	PROB	961015	n/a	LTP233	ltpFR	12	n/a	n/a	n/a	n/a	n/a	n/a	n/a	10	3	3	4	n/a	n/a	n/a	n/a	n/a
1924.378	n/a	STOP	962189	n/a	LTP233	ltpFR	12	n/a	n/a	n/a	n/a	n/a	n/a	n/a	n/a	n/a	n/a	n/a	n/a	n/a	n/a	n/a	n/a
1925.598	n/a	WORD	962799	wordpools/wasnorm_wordpool_less_exclusions.txt	LTP233	ltpFR	12	7	1	LOCK	838	n/a	n/a	0	n/a	0	0	0	0.422607421875	0.5869140625	0	upper	zerothre.ttf
1928.61	n/a	START	964305	n/a	LTP233	ltpFR	12	n/a	n/a	n/a	n/a	n/a	n/a	n/a	n/a	n/a	n/a	n/a	n/a	n/a	n/a	n/a	n/a
1929.696	n/a	PROB	964848	n/a	LTP233	ltpFR	12	n/a	n/a	n/a	n/a	n/a	n/a	n/a	13	8	2	3	n/a	n/a	n/a	n/a	n/a
1931.216	n/a	PROB	965608	n/a	LTP233	ltpFR	12	n/a	n/a	n/a	n/a	n/a	n/a	n/a	13	5	7	1	n/a	n/a	n/a	n/a	n/a
1932.536	n/a	PROB	966268	n/a	LTP233	ltpFR	12	n/a	n/a	n/a	n/a	n/a	n/a	n/a	20	4	9	7	n/a	n/a	n/a	n/a	n/a
1934.344	n/a	PROB	967172	n/a	LTP233	ltpFR	12	n/a	n/a	n/a	n/a	n/a	n/a	n/a	13	3	4	6	n/a	n/a	n/a	n/a	n/a
1935.636	n/a	PROB	967818	n/a	LTP233	ltpFR	12	n/a	n/a	n/a	n/a	n/a	n/a	n/a	15	4	2	9	n/a	n/a	n/a	n/a	n/a
1936.954	n/a	PROB	968477	n/a	LTP233	ltpFR	12	n/a	n/a	n/a	n/a	n/a	n/a	n/a	23	9	6	8	n/a	n/a	n/a	n/a	n/a
1938.46	n/a	PROB	969230	n/a	LTP233	ltpFR	12	n/a	n/a	n/a	n/a	n/a	n/a	n/a	14	8	6	4	n/a	n/a	n/a	n/a	n/a
1939.68	n/a	PROB	969840	n/a	LTP233	ltpFR	12	n/a	n/a	n/a	n/a	n/a	n/a	n/a	17	3	7	7	n/a	n/a	n/a	n/a	n/a
1941.726	n/a	PROB	970863	n/a	LTP233	ltpFR	12	n/a	n/a	n/a	n/a	n/a	n/a	n/a	14	4	6	4	n/a	n/a	n/a	n/a	n/a
1942.814	n/a	PROB	971407	n/a	LTP233	ltpFR	12	n/a	n/a	n/a	n/a	n/a	n/a	n/a	11	7	1	3	n/a	n/a	n/a	n/a	n/a
1944.002	n/a	STOP	972001	n/a	LTP233	ltpFR	12	n/a	n/a	n/a	n/a	n/a	n/a	n/a	n/a	n/a	n/a	n/a	n/a	n/a	n/a	n/a	n/a
1945.524	n/a	WORD	972762	wordpools/wasnorm_wordpool_less_exclusions.txt	LTP233	ltpFR	12	7	0	PICNIC	1060	n/a	n/a	0	n/a	0	0	0	0.57763671875	0.412841796875	1	lower	amplitud.ttf
1948.536	n/a	START	974268	n/a	LTP233	ltpFR	12	n/a	n/a	n/a	n/a	n/a	n/a	n/a	n/a	n/a	n/a	n/a	n/a	n/a	n/a	n/a	n/a
1949.552	n/a	PROB	974776	n/a	LTP233	ltpFR	12	n/a	n/a	n/a	n/a	n/a	n/a	n/a	7	4	2	1	n/a	n/a	n/a	n/a	n/a
1950.824	n/a	PROB	975412	n/a	LTP233	ltpFR	12	n/a	n/a	n/a	n/a	n/a	n/a	n/a	9	1	5	3	n/a	n/a	n/a	n/a	n/a
1952.182	n/a	PROB	976091	n/a	LTP233	ltpFR	12	n/a	n/a	n/a	n/a	n/a	n/a	n/a	8	3	2	2	n/a	n/a	n/a	n/a	n/a
1953.484	n/a	PROB	976742	n/a	LTP233	ltpFR	12	n/a	n/a	n/a	n/a	n/a	n/a	n/a	11	1	7	3	n/a	n/a	n/a	n/a	n/a
1955.156	n/a	PROB	977578	n/a	LTP233	ltpFR	12	n/a	n/a	n/a	n/a	n/a	n/a	n/a	18	7	2	9	n/a	n/a	n/a	n/a	n/a
1956.562	n/a	PROB	978281	n/a	LTP233	ltpFR	12	n/a	n/a	n/a	n/a	n/a	n/a	n/a	15	3	6	6	n/a	n/a	n/a	n/a	n/a
1958.236	n/a	PROB	979118	n/a	LTP233	ltpFR	12	n/a	n/a	n/a	n/a	n/a	n/a	n/a	17	3	7	7	n/a	n/a	n/a	n/a	n/a
1959.39	n/a	PROB	979695	n/a	LTP233	ltpFR	12	n/a	n/a	n/a	n/a	n/a	n/a	n/a	13	1	8	4	n/a	n/a	n/a	n/a	n/a
1960.712	n/a	PROB	980356	n/a	LTP233	ltpFR	12	n/a	n/a	n/a	n/a	n/a	n/a	n/a	16	7	4	5	n/a	n/a	n/a	n/a	n/a
1961.982	n/a	PROB	980991	n/a	LTP233	ltpFR	12	n/a	n/a	n/a	n/a	n/a	n/a	n/a	17	7	9	1	n/a	n/a	n/a	n/a	n/a
1963.788	n/a	STOP	981894	n/a	LTP233	ltpFR	12	n/a	n/a	n/a	n/a	n/a	n/a	n/a	n/a	n/a	n/a	n/a	n/a	n/a	n/a	n/a	n/a
1965.634	n/a	WORD	982817	wordpools/wasnorm_wordpool_less_exclusions.txt	LTP233	ltpFR	12	7	0	FACE	547	n/a	n/a	0	n/a	0	0	0	0.57763671875	0.412841796875	1	lower	amplitud.ttf
1968.646	n/a	START	984323	n/a	LTP233	ltpFR	12	n/a	n/a	n/a	n/a	n/a	n/a	n/a	n/a	n/a	n/a	n/a	n/a	n/a	n/a	n/a	n/a
1969.564	n/a	PROB	984782	n/a	LTP233	ltpFR	12	n/a	n/a	n/a	n/a	n/a	n/a	n/a	21	7	6	8	n/a	n/a	n/a	n/a	n/a
1971.336	n/a	PROB	985668	n/a	LTP233	ltpFR	12	n/a	n/a	n/a	n/a	n/a	n/a	n/a	187	8	3	7	n/a	n/a	n/a	n/a	n/a
1972.774	n/a	PROB	986387	n/a	LTP233	ltpFR	12	n/a	n/a	n/a	n/a	n/a	n/a	n/a	13	3	9	1	n/a	n/a	n/a	n/a	n/a
1974.63	n/a	PROB	987315	n/a	LTP233	ltpFR	12	n/a	n/a	n/a	n/a	n/a	n/a	n/a	20	5	9	6	n/a	n/a	n/a	n/a	n/a
1975.956	n/a	PROB	987978	n/a	LTP233	ltpFR	12	n/a	n/a	n/a	n/a	n/a	n/a	n/a	22	5	9	8	n/a	n/a	n/a	n/a	n/a
1978.446	n/a	PROB	989223	n/a	LTP233	ltpFR	12	n/a	n/a	n/a	n/a	n/a	n/a	n/a	18	9	8	4	n/a	n/a	n/a	n/a	n/a
1980.136	n/a	PROB	990068	n/a	LTP233	ltpFR	12	n/a	n/a	n/a	n/a	n/a	n/a	n/a	14	7	2	5	n/a	n/a	n/a	n/a	n/a
1982.294	n/a	PROB	991147	n/a	LTP233	ltpFR	12	n/a	n/a	n/a	n/a	n/a	n/a	n/a	23	8	6	9	n/a	n/a	n/a	n/a	n/a
1983.58	n/a	STOP	991790	n/a	LTP233	ltpFR	12	n/a	n/a	n/a	n/a	n/a	n/a	n/a	n/a	n/a	n/a	n/a	n/a	n/a	n/a	n/a	n/a
1985.844	n/a	WORD	992922	wordpools/wasnorm_wordpool_less_exclusions.txt	LTP233	ltpFR	12	7	0	SWEATER	1419	n/a	n/a	0	n/a	0	0	0	0.57763671875	0.412841796875	1	lower	amplitud.ttf
1988.856	n/a	START	994428	n/a	LTP233	ltpFR	12	n/a	n/a	n/a	n/a	n/a	n/a	n/a	n/a	n/a	n/a	n/a	n/a	n/a	n/a	n/a	n/a
1990.04	n/a	PROB	995020	n/a	LTP233	ltpFR	12	n/a	n/a	n/a	n/a	n/a	n/a	n/a	25	9	9	7	n/a	n/a	n/a	n/a	n/a
1991.662	n/a	PROB	995831	n/a	LTP233	ltpFR	12	n/a	n/a	n/a	n/a	n/a	n/a	n/a	17	8	6	3	n/a	n/a	n/a	n/a	n/a
1994.072	n/a	PROB	997036	n/a	LTP233	ltpFR	12	n/a	n/a	n/a	n/a	n/a	n/a	n/a	13	6	2	5	n/a	n/a	n/a	n/a	n/a
1995.362	n/a	PROB	997681	n/a	LTP233	ltpFR	12	n/a	n/a	n/a	n/a	n/a	n/a	n/a	15	4	8	3	n/a	n/a	n/a	n/a	n/a
1996.736	n/a	PROB	998368	n/a	LTP233	ltpFR	12	n/a	n/a	n/a	n/a	n/a	n/a	n/a	13	4	3	6	n/a	n/a	n/a	n/a	n/a
1998.004	n/a	PROB	999002	n/a	LTP233	ltpFR	12	n/a	n/a	n/a	n/a	n/a	n/a	n/a	16	1	7	8	n/a	n/a	n/a	n/a	n/a
1999.192	n/a	PROB	999596	n/a	LTP233	ltpFR	12	n/a	n/a	n/a	n/a	n/a	n/a	n/a	18	9	6	3	n/a	n/a	n/a	n/a	n/a
2000.664	n/a	PROB	1000332	n/a	LTP233	ltpFR	12	n/a	n/a	n/a	n/a	n/a	n/a	n/a	12	2	5	5	n/a	n/a	n/a	n/a	n/a
2002.018	n/a	PROB	1001009	n/a	LTP233	ltpFR	12	n/a	n/a	n/a	n/a	n/a	n/a	n/a	10	3	3	4	n/a	n/a	n/a	n/a	n/a
2003.258	n/a	PROB	1001629	n/a	LTP233	ltpFR	12	n/a	n/a	n/a	n/a	n/a	n/a	n/a	12	1	6	5	n/a	n/a	n/a	n/a	n/a
2004.342	n/a	STOP	1002171	n/a	LTP233	ltpFR	12	n/a	n/a	n/a	n/a	n/a	n/a	n/a	n/a	n/a	n/a	n/a	n/a	n/a	n/a	n/a	n/a
2005.704	n/a	WORD	1002852	wordpools/wasnorm_wordpool_less_exclusions.txt	LTP233	ltpFR	12	7	0	GOWN	652	n/a	n/a	0	n/a	0	0	0	0.57763671875	0.412841796875	1	lower	amplitud.ttf
2008.716	n/a	START	1004358	n/a	LTP233	ltpFR	12	n/a	n/a	n/a	n/a	n/a	n/a	n/a	n/a	n/a	n/a	n/a	n/a	n/a	n/a	n/a	n/a
2009.568	n/a	PROB	1004784	n/a	LTP233	ltpFR	12	n/a	n/a	n/a	n/a	n/a	n/a	n/a	13	1	5	7	n/a	n/a	n/a	n/a	n/a
2010.872	n/a	PROB	1005436	n/a	LTP233	ltpFR	12	n/a	n/a	n/a	n/a	n/a	n/a	n/a	11	6	1	4	n/a	n/a	n/a	n/a	n/a
2012.608	n/a	PROB	1006304	n/a	LTP233	ltpFR	12	n/a	n/a	n/a	n/a	n/a	n/a	n/a	18	4	7	7	n/a	n/a	n/a	n/a	n/a
2013.868	n/a	PROB	1006934	n/a	LTP233	ltpFR	12	n/a	n/a	n/a	n/a	n/a	n/a	n/a	11	4	5	2	n/a	n/a	n/a	n/a	n/a
2015.254	n/a	PROB	1007627	n/a	LTP233	ltpFR	12	n/a	n/a	n/a	n/a	n/a	n/a	n/a	13	8	1	4	n/a	n/a	n/a	n/a	n/a
2016.378	n/a	PROB	1008189	n/a	LTP233	ltpFR	12	n/a	n/a	n/a	n/a	n/a	n/a	n/a	15	2	9	3	n/a	n/a	n/a	n/a	n/a
2017.416	n/a	PROB	1008708	n/a	LTP233	ltpFR	12	n/a	n/a	n/a	n/a	n/a	n/a	n/a	16	2	9	5	n/a	n/a	n/a	n/a	n/a
2018.984	n/a	PROB	1009492	n/a	LTP233	ltpFR	12	n/a	n/a	n/a	n/a	n/a	n/a	n/a	11	2	8	1	n/a	n/a	n/a	n/a	n/a
2020.524	n/a	PROB	1010262	n/a	LTP233	ltpFR	12	n/a	n/a	n/a	n/a	n/a	n/a	n/a	14	6	1	7	n/a	n/a	n/a	n/a	n/a
2022.986	n/a	PROB	1011493	n/a	LTP233	ltpFR	12	n/a	n/a	n/a	n/a	n/a	n/a	n/a	11	3	2	5	n/a	n/a	n/a	n/a	n/a
2024.184	n/a	STOP	1012092	n/a	LTP233	ltpFR	12	n/a	n/a	n/a	n/a	n/a	n/a	n/a	n/a	n/a	n/a	n/a	n/a	n/a	n/a	n/a	n/a
2025.796	n/a	WORD	1012898	wordpools/wasnorm_wordpool_less_exclusions.txt	LTP233	ltpFR	12	7	0	SPOOL	1356	n/a	n/a	0	n/a	0	0	0	0.57763671875	0.412841796875	1	lower	amplitud.ttf
2028.808	n/a	START	1014404	n/a	LTP233	ltpFR	12	n/a	n/a	n/a	n/a	n/a	n/a	n/a	n/a	n/a	n/a	n/a	n/a	n/a	n/a	n/a	n/a
2029.962	n/a	PROB	1014981	n/a	LTP233	ltpFR	12	n/a	n/a	n/a	n/a	n/a	n/a	n/a	20	8	8	4	n/a	n/a	n/a	n/a	n/a
2031.298	n/a	PROB	1015649	n/a	LTP233	ltpFR	12	n/a	n/a	n/a	n/a	n/a	n/a	n/a	10	3	1	6	n/a	n/a	n/a	n/a	n/a
2032.988	n/a	PROB	1016494	n/a	LTP233	ltpFR	12	n/a	n/a	n/a	n/a	n/a	n/a	n/a	8	4	2	2	n/a	n/a	n/a	n/a	n/a
2034.916	n/a	PROB	1017458	n/a	LTP233	ltpFR	12	n/a	n/a	n/a	n/a	n/a	n/a	n/a	15	6	7	8	n/a	n/a	n/a	n/a	n/a
2036.1	n/a	PROB	1018050	n/a	LTP233	ltpFR	12	n/a	n/a	n/a	n/a	n/a	n/a	n/a	15	6	7	2	n/a	n/a	n/a	n/a	n/a
2037.626	n/a	PROB	1018813	n/a	LTP233	ltpFR	12	n/a	n/a	n/a	n/a	n/a	n/a	n/a	19	5	6	8	n/a	n/a	n/a	n/a	n/a
2039.028	n/a	PROB	1019514	n/a	LTP233	ltpFR	12	n/a	n/a	n/a	n/a	n/a	n/a	n/a	16	6	4	6	n/a	n/a	n/a	n/a	n/a
2040.002	n/a	PROB	1020001	n/a	LTP233	ltpFR	12	n/a	n/a	n/a	n/a	n/a	n/a	n/a	17	1	7	9	n/a	n/a	n/a	n/a	n/a
2041.236	n/a	PROB	1020618	n/a	LTP233	ltpFR	12	n/a	n/a	n/a	n/a	n/a	n/a	n/a	18	3	7	8	n/a	n/a	n/a	n/a	n/a
2042.374	n/a	PROB	1021187	n/a	LTP233	ltpFR	12	n/a	n/a	n/a	n/a	n/a	n/a	n/a	15	2	5	8	n/a	n/a	n/a	n/a	n/a
2044.64	n/a	STOP	1022320	n/a	LTP233	ltpFR	12	n/a	n/a	n/a	n/a	n/a	n/a	n/a	n/a	n/a	n/a	n/a	n/a	n/a	n/a	n/a	n/a
2045.856	n/a	WORD	1022928	wordpools/wasnorm_wordpool_less_exclusions.txt	LTP233	ltpFR	12	7	1	PLUM	1090	n/a	n/a	1	n/a	0	0	0	0.422607421875	0.5869140625	0	upper	zerothre.ttf
2048.868	n/a	START	1024434	n/a	LTP233	ltpFR	12	n/a	n/a	n/a	n/a	n/a	n/a	n/a	n/a	n/a	n/a	n/a	n/a	n/a	n/a	n/a	n/a
2049.704	n/a	PROB	1024852	n/a	LTP233	ltpFR	12	n/a	n/a	n/a	n/a	n/a	n/a	n/a	6	1	2	3	n/a	n/a	n/a	n/a	n/a
2051.514	n/a	PROB	1025757	n/a	LTP233	ltpFR	12	n/a	n/a	n/a	n/a	n/a	n/a	n/a	18	9	7	5	n/a	n/a	n/a	n/a	n/a
2054.102	n/a	PROB	1027051	n/a	LTP233	ltpFR	12	n/a	n/a	n/a	n/a	n/a	n/a	n/a	23	5	9	9	n/a	n/a	n/a	n/a	n/a
2056.882	n/a	PROB	1028441	n/a	LTP233	ltpFR	12	n/a	n/a	n/a	n/a	n/a	n/a	n/a	10	1	6	3	n/a	n/a	n/a	n/a	n/a
2058.238	n/a	PROB	1029119	n/a	LTP233	ltpFR	12	n/a	n/a	n/a	n/a	n/a	n/a	n/a	15	4	7	4	n/a	n/a	n/a	n/a	n/a
2059.31	n/a	PROB	1029655	n/a	LTP233	ltpFR	12	n/a	n/a	n/a	n/a	n/a	n/a	n/a	174	5	3	9	n/a	n/a	n/a	n/a	n/a
2060.526	n/a	PROB	1030263	n/a	LTP233	ltpFR	12	n/a	n/a	n/a	n/a	n/a	n/a	n/a	15	7	4	4	n/a	n/a	n/a	n/a	n/a
2062.132	n/a	PROB	1031066	n/a	LTP233	ltpFR	12	n/a	n/a	n/a	n/a	n/a	n/a	n/a	12	3	6	3	n/a	n/a	n/a	n/a	n/a
2063.288	n/a	PROB	1031644	n/a	LTP233	ltpFR	12	n/a	n/a	n/a	n/a	n/a	n/a	n/a	8	1	3	4	n/a	n/a	n/a	n/a	n/a
2064.616	n/a	STOP	1032308	n/a	LTP233	ltpFR	12	n/a	n/a	n/a	n/a	n/a	n/a	n/a	n/a	n/a	n/a	n/a	n/a	n/a	n/a	n/a	n/a
2065.95	n/a	WORD	1032975	wordpools/wasnorm_wordpool_less_exclusions.txt	LTP233	ltpFR	12	7	1	TREE	1502	n/a	n/a	1	n/a	0	0	0	0.422607421875	0.5869140625	0	upper	zerothre.ttf
2068.962	n/a	START	1034481	n/a	LTP233	ltpFR	12	n/a	n/a	n/a	n/a	n/a	n/a	n/a	n/a	n/a	n/a	n/a	n/a	n/a	n/a	n/a	n/a
2070.048	n/a	PROB	1035024	n/a	LTP233	ltpFR	12	n/a	n/a	n/a	n/a	n/a	n/a	n/a	22	6	8	8	n/a	n/a	n/a	n/a	n/a
2071.718	n/a	PROB	1035859	n/a	LTP233	ltpFR	12	n/a	n/a	n/a	n/a	n/a	n/a	n/a	11	4	2	5	n/a	n/a	n/a	n/a	n/a
2072.974	n/a	PROB	1036487	n/a	LTP233	ltpFR	12	n/a	n/a	n/a	n/a	n/a	n/a	n/a	10	5	3	2	n/a	n/a	n/a	n/a	n/a
2074.196	n/a	PROB	1037098	n/a	LTP233	ltpFR	12	n/a	n/a	n/a	n/a	n/a	n/a	n/a	10	1	5	4	n/a	n/a	n/a	n/a	n/a
2075.918	n/a	PROB	1037959	n/a	LTP233	ltpFR	12	n/a	n/a	n/a	n/a	n/a	n/a	n/a	14	3	2	9	n/a	n/a	n/a	n/a	n/a
2077.392	n/a	PROB	1038696	n/a	LTP233	ltpFR	12	n/a	n/a	n/a	n/a	n/a	n/a	n/a	21	3	9	9	n/a	n/a	n/a	n/a	n/a
2078.846	n/a	PROB	1039423	n/a	LTP233	ltpFR	12	n/a	n/a	n/a	n/a	n/a	n/a	n/a	21	7	9	5	n/a	n/a	n/a	n/a	n/a
2081.174	n/a	PROB	1040587	n/a	LTP233	ltpFR	12	n/a	n/a	n/a	n/a	n/a	n/a	n/a	17	6	4	7	n/a	n/a	n/a	n/a	n/a
2082.294	n/a	PROB	1041147	n/a	LTP233	ltpFR	12	n/a	n/a	n/a	n/a	n/a	n/a	n/a	14	5	3	5	n/a	n/a	n/a	n/a	n/a
2083.73	n/a	STOP	1041865	n/a	LTP233	ltpFR	12	n/a	n/a	n/a	n/a	n/a	n/a	n/a	n/a	n/a	n/a	n/a	n/a	n/a	n/a	n/a	n/a
2085.806	n/a	WORD	1042903	wordpools/wasnorm_wordpool_less_exclusions.txt	LTP233	ltpFR	12	7	0	FOREHEAD	592	n/a	n/a	0	n/a	0	0	0	0.57763671875	0.412841796875	1	lower	amplitud.ttf
2088.822	n/a	START	1044411	n/a	LTP233	ltpFR	12	n/a	n/a	n/a	n/a	n/a	n/a	n/a	n/a	n/a	n/a	n/a	n/a	n/a	n/a	n/a	n/a
2089.956	n/a	PROB	1044978	n/a	LTP233	ltpFR	12	n/a	n/a	n/a	n/a	n/a	n/a	n/a	14	7	4	3	n/a	n/a	n/a	n/a	n/a
2091.75	n/a	PROB	1045875	n/a	LTP233	ltpFR	12	n/a	n/a	n/a	n/a	n/a	n/a	n/a	17	7	9	1	n/a	n/a	n/a	n/a	n/a
2093.536	n/a	PROB	1046768	n/a	LTP233	ltpFR	12	n/a	n/a	n/a	n/a	n/a	n/a	n/a	8	1	4	3	n/a	n/a	n/a	n/a	n/a
2096.3	n/a	PROB	1048150	n/a	LTP233	ltpFR	12	n/a	n/a	n/a	n/a	n/a	n/a	n/a	12	5	5	2	n/a	n/a	n/a	n/a	n/a
2097.502	n/a	PROB	1048751	n/a	LTP233	ltpFR	12	n/a	n/a	n/a	n/a	n/a	n/a	n/a	13	2	8	3	n/a	n/a	n/a	n/a	n/a
2098.972	n/a	PROB	1049486	n/a	LTP233	ltpFR	12	n/a	n/a	n/a	n/a	n/a	n/a	n/a	13	4	7	2	n/a	n/a	n/a	n/a	n/a
2100.266	n/a	PROB	1050133	n/a	LTP233	ltpFR	12	n/a	n/a	n/a	n/a	n/a	n/a	n/a	22	6	7	9	n/a	n/a	n/a	n/a	n/a
2101.984	n/a	PROB	1050992	n/a	LTP233	ltpFR	12	n/a	n/a	n/a	n/a	n/a	n/a	n/a	8	4	1	3	n/a	n/a	n/a	n/a	n/a
2103.38	n/a	STOP	1051690	n/a	LTP233	ltpFR	12	n/a	n/a	n/a	n/a	n/a	n/a	n/a	n/a	n/a	n/a	n/a	n/a	n/a	n/a	n/a	n/a
2105.902	n/a	WORD	1052951	wordpools/wasnorm_wordpool_less_exclusions.txt	LTP233	ltpFR	12	7	0	ZEBRA	1635	n/a	n/a	1	n/a	0	0	0	0.57763671875	0.412841796875	1	lower	amplitud.ttf
2108.916	n/a	START	1054458	n/a	LTP233	ltpFR	12	n/a	n/a	n/a	n/a	n/a	n/a	n/a	n/a	n/a	n/a	n/a	n/a	n/a	n/a	n/a	n/a
2110.102	n/a	PROB	1055051	n/a	LTP233	ltpFR	12	n/a	n/a	n/a	n/a	n/a	n/a	n/a	23	7	9	7	n/a	n/a	n/a	n/a	n/a
2111.554	n/a	PROB	1055777	n/a	LTP233	ltpFR	12	n/a	n/a	n/a	n/a	n/a	n/a	n/a	18	6	4	7	n/a	n/a	n/a	n/a	n/a
2112.708	n/a	PROB	1056354	n/a	LTP233	ltpFR	12	n/a	n/a	n/a	n/a	n/a	n/a	n/a	21	8	6	7	n/a	n/a	n/a	n/a	n/a
2114.784	n/a	PROB	1057392	n/a	LTP233	ltpFR	12	n/a	n/a	n/a	n/a	n/a	n/a	n/a	13	8	1	4	n/a	n/a	n/a	n/a	n/a
2116.022	n/a	PROB	1058011	n/a	LTP233	ltpFR	12	n/a	n/a	n/a	n/a	n/a	n/a	n/a	7	4	1	2	n/a	n/a	n/a	n/a	n/a
2118.634	n/a	PROB	1059317	n/a	LTP233	ltpFR	12	n/a	n/a	n/a	n/a	n/a	n/a	n/a	12	2	1	9	n/a	n/a	n/a	n/a	n/a
2119.806	n/a	PROB	1059903	n/a	LTP233	ltpFR	12	n/a	n/a	n/a	n/a	n/a	n/a	n/a	21	9	8	4	n/a	n/a	n/a	n/a	n/a
2121.342	n/a	PROB	1060671	n/a	LTP233	ltpFR	12	n/a	n/a	n/a	n/a	n/a	n/a	n/a	18	8	3	7	n/a	n/a	n/a	n/a	n/a
2122.7	n/a	PROB	1061350	n/a	LTP233	ltpFR	12	n/a	n/a	n/a	n/a	n/a	n/a	n/a	19	7	4	8	n/a	n/a	n/a	n/a	n/a
2123.964	n/a	STOP	1061982	n/a	LTP233	ltpFR	12	n/a	n/a	n/a	n/a	n/a	n/a	n/a	n/a	n/a	n/a	n/a	n/a	n/a	n/a	n/a	n/a
2125.928	n/a	WORD	1062964	wordpools/wasnorm_wordpool_less_exclusions.txt	LTP233	ltpFR	12	7	0	GENERAL	630	n/a	n/a	1	n/a	0	0	0	0.57763671875	0.412841796875	1	lower	amplitud.ttf
2128.942	n/a	START	1064471	n/a	LTP233	ltpFR	12	n/a	n/a	n/a	n/a	n/a	n/a	n/a	n/a	n/a	n/a	n/a	n/a	n/a	n/a	n/a	n/a
2129.978	n/a	PROB	1064989	n/a	LTP233	ltpFR	12	n/a	n/a	n/a	n/a	n/a	n/a	n/a	14	4	1	9	n/a	n/a	n/a	n/a	n/a
2131.398	n/a	PROB	1065699	n/a	LTP233	ltpFR	12	n/a	n/a	n/a	n/a	n/a	n/a	n/a	18	8	8	2	n/a	n/a	n/a	n/a	n/a
2132.99	n/a	PROB	1066495	n/a	LTP233	ltpFR	12	n/a	n/a	n/a	n/a	n/a	n/a	n/a	14	3	9	2	n/a	n/a	n/a	n/a	n/a
2134.094	n/a	PROB	1067047	n/a	LTP233	ltpFR	12	n/a	n/a	n/a	n/a	n/a	n/a	n/a	15	6	7	2	n/a	n/a	n/a	n/a	n/a
2135.232	n/a	PROB	1067616	n/a	LTP233	ltpFR	12	n/a	n/a	n/a	n/a	n/a	n/a	n/a	12	2	4	6	n/a	n/a	n/a	n/a	n/a
2136.484	n/a	PROB	1068242	n/a	LTP233	ltpFR	12	n/a	n/a	n/a	n/a	n/a	n/a	n/a	18	4	6	8	n/a	n/a	n/a	n/a	n/a
2137.688	n/a	PROB	1068844	n/a	LTP233	ltpFR	12	n/a	n/a	n/a	n/a	n/a	n/a	n/a	13	6	5	2	n/a	n/a	n/a	n/a	n/a
2138.708	n/a	PROB	1069354	n/a	LTP233	ltpFR	12	n/a	n/a	n/a	n/a	n/a	n/a	n/a	22	7	6	9	n/a	n/a	n/a	n/a	n/a
2141.586	n/a	PROB	1070793	n/a	LTP233	ltpFR	12	n/a	n/a	n/a	n/a	n/a	n/a	n/a	17	9	4	4	n/a	n/a	n/a	n/a	n/a
2143.174	n/a	PROB	1071587	n/a	LTP233	ltpFR	12	n/a	n/a	n/a	n/a	n/a	n/a	n/a	11	3	3	5	n/a	n/a	n/a	n/a	n/a
2144.222	n/a	STOP	1072111	n/a	LTP233	ltpFR	12	n/a	n/a	n/a	n/a	n/a	n/a	n/a	n/a	n/a	n/a	n/a	n/a	n/a	n/a	n/a	n/a
2146.894	n/a	REC_START	1073447	n/a	LTP233	ltpFR	12	7	n/a	n/a	n/a	n/a	n/a	n/a	n/a	0	0	0	n/a	n/a	n/a	n/a	n/a
2153.658	n/a	REC_WORD	1076829	wordpools/wasnorm_wordpool_less_exclusions.txt	LTP233	ltpFR	12	7	1	PLUM	1090	n/a	n/a	1	n/a	0	0	0	n/a	n/a	n/a	n/a	n/a
2154.984	n/a	REC_WORD	1077492	wordpools/wasnorm_wordpool_less_exclusions.txt	LTP233	ltpFR	12	7	0	SPOOL	1356	n/a	n/a	0	n/a	0	0	0	n/a	n/a	n/a	n/a	n/a
2156.746	n/a	REC_WORD	1078373	wordpools/wasnorm_wordpool_less_exclusions.txt	LTP233	ltpFR	12	7	0	GOWN	652	n/a	n/a	0	n/a	0	0	0	n/a	n/a	n/a	n/a	n/a
2183.352	n/a	REC_WORD	1091676	wordpools/wasnorm_wordpool_less_exclusions.txt	LTP233	ltpFR	12	7	0	GENERAL	630	n/a	n/a	1	n/a	0	0	0	n/a	n/a	n/a	n/a	n/a
2225.076	n/a	WORD	1112538	wordpools/wasnorm_wordpool_less_exclusions.txt	LTP233	ltpFR	12	8	1	PHOTO	1055	n/a	n/a	0	n/a	0	0	0	0.422607421875	0.5869140625	0	upper	zerothre.ttf
2229.024	n/a	WORD	1114512	wordpools/wasnorm_wordpool_less_exclusions.txt	LTP233	ltpFR	12	8	1	EMPLOYER	532	n/a	n/a	1	n/a	0	0	0	0.422607421875	0.5869140625	0	upper	zerothre.ttf
2233.138	n/a	WORD	1116569	wordpools/wasnorm_wordpool_less_exclusions.txt	LTP233	ltpFR	12	8	1	PERFUME	1049	n/a	n/a	0	n/a	0	0	0	0.422607421875	0.5869140625	0	upper	zerothre.ttf
2237.02	n/a	WORD	1118510	wordpools/wasnorm_wordpool_less_exclusions.txt	LTP233	ltpFR	12	8	1	NECK	939	n/a	n/a	0	n/a	0	0	0	0.422607421875	0.5869140625	0	upper	zerothre.ttf
2240.97	n/a	WORD	1120485	wordpools/wasnorm_wordpool_less_exclusions.txt	LTP233	ltpFR	12	8	1	TAIL	1430	n/a	n/a	0	n/a	0	0	0	0.422607421875	0.5869140625	0	upper	zerothre.ttf
2244.8	n/a	WORD	1122400	wordpools/wasnorm_wordpool_less_exclusions.txt	LTP233	ltpFR	12	8	1	WOLF	1619	n/a	n/a	1	n/a	0	0	0	0.422607421875	0.5869140625	0	upper	zerothre.ttf
2248.882	n/a	WORD	1124441	wordpools/wasnorm_wordpool_less_exclusions.txt	LTP233	ltpFR	12	8	1	TENT	1449	n/a	n/a	0	n/a	0	0	0	0.422607421875	0.5869140625	0	upper	zerothre.ttf
2252.96	n/a	WORD	1126480	wordpools/wasnorm_wordpool_less_exclusions.txt	LTP233	ltpFR	12	8	1	ROOM	1206	n/a	n/a	0	n/a	0	0	0	0.422607421875	0.5869140625	0	upper	zerothre.ttf
2257.148	n/a	WORD	1128574	wordpools/wasnorm_wordpool_less_exclusions.txt	LTP233	ltpFR	12	8	1	DUMP	505	n/a	n/a	0	n/a	0	0	0	0.422607421875	0.5869140625	0	upper	zerothre.ttf
2260.996	n/a	WORD	1130498	wordpools/wasnorm_wordpool_less_exclusions.txt	LTP233	ltpFR	12	8	1	NOSE	957	n/a	n/a	1	n/a	0	0	0	0.422607421875	0.5869140625	0	upper	zerothre.ttf
2265.012	n/a	WORD	1132506	wordpools/wasnorm_wordpool_less_exclusions.txt	LTP233	ltpFR	12	8	1	AIRPORT	13	n/a	n/a	0	n/a	0	0	0	0.422607421875	0.5869140625	0	upper	zerothre.ttf
2268.842	n/a	WORD	1134421	wordpools/wasnorm_wordpool_less_exclusions.txt	LTP233	ltpFR	12	8	1	LEADER	807	n/a	n/a	0	n/a	0	0	0	0.422607421875	0.5869140625	0	upper	zerothre.ttf
2272.72	n/a	WORD	1136360	wordpools/wasnorm_wordpool_less_exclusions.txt	LTP233	ltpFR	12	8	1	SHUTTER	1300	n/a	n/a	0	n/a	0	0	0	0.422607421875	0.5869140625	0	upper	zerothre.ttf
2276.906	n/a	WORD	1138453	wordpools/wasnorm_wordpool_less_exclusions.txt	LTP233	ltpFR	12	8	1	PILOT	1070	n/a	n/a	1	n/a	0	0	0	0.422607421875	0.5869140625	0	upper	zerothre.ttf
2280.988	n/a	WORD	1140494	wordpools/wasnorm_wordpool_less_exclusions.txt	LTP233	ltpFR	12	8	1	BATHROOM	99	n/a	n/a	0	n/a	0	0	0	0.422607421875	0.5869140625	0	upper	zerothre.ttf
2285.122	n/a	WORD	1142561	wordpools/wasnorm_wordpool_less_exclusions.txt	LTP233	ltpFR	12	8	1	SHOWER	1296	n/a	n/a	0	n/a	0	0	0	0.422607421875	0.5869140625	0	upper	zerothre.ttf
2288.132	n/a	START	1144066	n/a	LTP233	ltpFR	12	n/a	n/a	n/a	n/a	n/a	n/a	n/a	n/a	n/a	n/a	n/a	n/a	n/a	n/a	n/a	n/a
2289.322	n/a	PROB	1144661	n/a	LTP233	ltpFR	12	n/a	n/a	n/a	n/a	n/a	n/a	n/a	17	7	6	4	n/a	n/a	n/a	n/a	n/a
2291.842	n/a	PROB	1145921	n/a	LTP233	ltpFR	12	n/a	n/a	n/a	n/a	n/a	n/a	n/a	22	7	7	8	n/a	n/a	n/a	n/a	n/a
2293.202	n/a	PROB	1146601	n/a	LTP233	ltpFR	12	n/a	n/a	n/a	n/a	n/a	n/a	n/a	6	2	3	1	n/a	n/a	n/a	n/a	n/a
2294.27	n/a	PROB	1147135	n/a	LTP233	ltpFR	12	n/a	n/a	n/a	n/a	n/a	n/a	n/a	12	4	6	2	n/a	n/a	n/a	n/a	n/a
2295.746	n/a	PROB	1147873	n/a	LTP233	ltpFR	12	n/a	n/a	n/a	n/a	n/a	n/a	n/a	26	8	9	9	n/a	n/a	n/a	n/a	n/a
2297.236	n/a	PROB	1148618	n/a	LTP233	ltpFR	12	n/a	n/a	n/a	n/a	n/a	n/a	n/a	18	4	5	9	n/a	n/a	n/a	n/a	n/a
2298.57	n/a	PROB	1149285	n/a	LTP233	ltpFR	12	n/a	n/a	n/a	n/a	n/a	n/a	n/a	22	9	6	8	n/a	n/a	n/a	n/a	n/a
2300.326	n/a	PROB	1150163	n/a	LTP233	ltpFR	12	n/a	n/a	n/a	n/a	n/a	n/a	n/a	20	8	4	8	n/a	n/a	n/a	n/a	n/a
2301.68	n/a	PROB	1150840	n/a	LTP233	ltpFR	12	n/a	n/a	n/a	n/a	n/a	n/a	n/a	20	8	7	5	n/a	n/a	n/a	n/a	n/a
2303.918	n/a	STOP	1151959	n/a	LTP233	ltpFR	12	n/a	n/a	n/a	n/a	n/a	n/a	n/a	n/a	n/a	n/a	n/a	n/a	n/a	n/a	n/a	n/a
2306.052	n/a	REC_START	1153026	n/a	LTP233	ltpFR	12	8	n/a	n/a	n/a	n/a	n/a	n/a	n/a	0	0	0	n/a	n/a	n/a	n/a	n/a
2307.338	n/a	REC_WORD	1153669	wordpools/wasnorm_wordpool_less_exclusions.txt	LTP233	ltpFR	12	8	1	ROOM	1206	n/a	n/a	0	n/a	0	0	0	n/a	n/a	n/a	n/a	n/a
2308.536	n/a	REC_WORD	1154268	wordpools/wasnorm_wordpool_less_exclusions.txt	LTP233	ltpFR	12	8	1	BATHROOM	99	n/a	n/a	0	n/a	0	0	0	n/a	n/a	n/a	n/a	n/a
2309.948	n/a	REC_WORD	1154974	wordpools/wasnorm_wordpool_less_exclusions.txt	LTP233	ltpFR	12	8	1	SHOWER	1296	n/a	n/a	0	n/a	0	0	0	n/a	n/a	n/a	n/a	n/a
2311.844	n/a	REC_WORD	1155922	wordpools/wasnorm_wordpool_less_exclusions.txt	LTP233	ltpFR	12	8	1	TENT	1449	n/a	n/a	0	n/a	0	0	0	n/a	n/a	n/a	n/a	n/a
2313.29	n/a	REC_WORD	1156645	wordpools/wasnorm_wordpool_less_exclusions.txt	LTP233	ltpFR	12	8	1	DUMP	505	n/a	n/a	0	n/a	0	0	0	n/a	n/a	n/a	n/a	n/a
2316.802	n/a	REC_WORD	1158401	wordpools/wasnorm_wordpool_less_exclusions.txt	LTP233	ltpFR	12	8	1	AIRPORT	13	n/a	n/a	0	n/a	0	0	0	n/a	n/a	n/a	n/a	n/a
2318.324	n/a	REC_WORD	1159162	wordpools/wasnorm_wordpool_less_exclusions.txt	LTP233	ltpFR	12	8	1	SHUTTER	1300	n/a	n/a	0	n/a	0	0	0	n/a	n/a	n/a	n/a	n/a
2319.706	n/a	REC_WORD	1159853	wordpools/wasnorm_wordpool_less_exclusions.txt	LTP233	ltpFR	12	8	1	PILOT	1070	n/a	n/a	1	n/a	0	0	0	n/a	n/a	n/a	n/a	n/a
2328.062	n/a	REC_WORD	1164031	wordpools/wasnorm_wordpool_less_exclusions.txt	LTP233	ltpFR	12	8	1	WOLF	1619	n/a	n/a	1	n/a	0	0	0	n/a	n/a	n/a	n/a	n/a
2329.35	n/a	REC_WORD	1164675	wordpools/wasnorm_wordpool_less_exclusions.txt	LTP233	ltpFR	12	8	1	TAIL	1430	n/a	n/a	0	n/a	0	0	0	n/a	n/a	n/a	n/a	n/a
2330.652	n/a	REC_WORD	1165326	wordpools/wasnorm_wordpool_less_exclusions.txt	LTP233	ltpFR	12	8	1	NOSE	957	n/a	n/a	1	n/a	0	0	0	n/a	n/a	n/a	n/a	n/a
2331.898	n/a	REC_WORD	1165949	wordpools/wasnorm_wordpool_less_exclusions.txt	LTP233	ltpFR	12	8	1	NECK	939	n/a	n/a	0	n/a	0	0	0	n/a	n/a	n/a	n/a	n/a
2333.416	n/a	REC_WORD	1166708	wordpools/wasnorm_wordpool_less_exclusions.txt	LTP233	ltpFR	12	8	1	PERFUME	1049	n/a	n/a	0	n/a	0	0	0	n/a	n/a	n/a	n/a	n/a
2335.038	n/a	REC_WORD	1167519	wordpools/wasnorm_wordpool_less_exclusions.txt	LTP233	ltpFR	12	8	1	LEADER	807	n/a	n/a	0	n/a	0	0	0	n/a	n/a	n/a	n/a	n/a
2339.528	n/a	REC_WORD	1169764	wordpools/wasnorm_wordpool_less_exclusions.txt	LTP233	ltpFR	12	8	1	PHOTO	1055	n/a	n/a	0	n/a	0	0	0	n/a	n/a	n/a	n/a	n/a
2342.042	n/a	REC_WORD	1171021	wordpools/wasnorm_wordpool_less_exclusions.txt	LTP233	ltpFR	12	8	1	EMPLOYER	532	n/a	n/a	1	n/a	0	0	0	n/a	n/a	n/a	n/a	n/a
2392.666	n/a	WORD	1196333	wordpools/wasnorm_wordpool_less_exclusions.txt	LTP233	ltpFR	12	9	0	RABBIT	1152	n/a	n/a	1	n/a	0	0	0	0.57763671875	0.412841796875	1	lower	amplitud.ttf
2396.748	n/a	WORD	1198374	wordpools/wasnorm_wordpool_less_exclusions.txt	LTP233	ltpFR	12	9	0	BATH	98	n/a	n/a	1	n/a	0	0	0	0.57763671875	0.412841796875	1	lower	amplitud.ttf
2400.63	n/a	WORD	1200315	wordpools/wasnorm_wordpool_less_exclusions.txt	LTP233	ltpFR	12	9	1	SLEEVE	1324	n/a	n/a	0	n/a	0	0	0	0.422607421875	0.5869140625	0	upper	zerothre.ttf
2404.628	n/a	WORD	1202314	wordpools/wasnorm_wordpool_less_exclusions.txt	LTP233	ltpFR	12	9	1	WAGON	1578	n/a	n/a	0	n/a	0	0	0	0.422607421875	0.5869140625	0	upper	zerothre.ttf
2408.524	n/a	WORD	1204262	wordpools/wasnorm_wordpool_less_exclusions.txt	LTP233	ltpFR	12	9	1	CROOK	412	n/a	n/a	0	n/a	0	0	0	0.422607421875	0.5869140625	0	upper	zerothre.ttf
2412.738	n/a	WORD	1206369	wordpools/wasnorm_wordpool_less_exclusions.txt	LTP233	ltpFR	12	9	0	GRIZZLY	662	n/a	n/a	1	n/a	0	0	0	0.57763671875	0.412841796875	1	lower	amplitud.ttf
2416.954	n/a	WORD	1208477	wordpools/wasnorm_wordpool_less_exclusions.txt	LTP233	ltpFR	12	9	0	FARMER	553	n/a	n/a	1	n/a	0	0	0	0.57763671875	0.412841796875	1	lower	amplitud.ttf
2420.906	n/a	WORD	1210453	wordpools/wasnorm_wordpool_less_exclusions.txt	LTP233	ltpFR	12	9	1	FIELD	562	n/a	n/a	0	n/a	0	0	0	0.422607421875	0.5869140625	0	upper	zerothre.ttf
2424.922	n/a	WORD	1212461	wordpools/wasnorm_wordpool_less_exclusions.txt	LTP233	ltpFR	12	9	1	SHIRT	1287	n/a	n/a	0	n/a	0	0	0	0.422607421875	0.5869140625	0	upper	zerothre.ttf
2429.034	n/a	WORD	1214517	wordpools/wasnorm_wordpool_less_exclusions.txt	LTP233	ltpFR	12	9	1	SINK	1309	n/a	n/a	0	n/a	0	0	0	0.422607421875	0.5869140625	0	upper	zerothre.ttf
2433.154	n/a	WORD	1216577	wordpools/wasnorm_wordpool_less_exclusions.txt	LTP233	ltpFR	12	9	1	CREATURE	403	n/a	n/a	1	n/a	0	0	0	0.422607421875	0.5869140625	0	upper	zerothre.ttf
2437.204	n/a	WORD	1218602	wordpools/wasnorm_wordpool_less_exclusions.txt	LTP233	ltpFR	12	9	1	FORK	594	n/a	n/a	0	n/a	0	0	0	0.422607421875	0.5869140625	0	upper	zerothre.ttf
2441.096	n/a	WORD	1220548	wordpools/wasnorm_wordpool_less_exclusions.txt	LTP233	ltpFR	12	9	0	PEPPER	1047	n/a	n/a	0	n/a	0	0	0	0.57763671875	0.412841796875	1	lower	amplitud.ttf
2445.234	n/a	WORD	1222617	wordpools/wasnorm_wordpool_less_exclusions.txt	LTP233	ltpFR	12	9	0	CLOVE	329	n/a	n/a	0	n/a	0	0	0	0.57763671875	0.412841796875	1	lower	amplitud.ttf
2449.4	n/a	WORD	1224700	wordpools/wasnorm_wordpool_less_exclusions.txt	LTP233	ltpFR	12	9	0	DISH	474	n/a	n/a	0	n/a	0	0	0	0.57763671875	0.412841796875	1	lower	amplitud.ttf
2453.416	n/a	WORD	1226708	wordpools/wasnorm_wordpool_less_exclusions.txt	LTP233	ltpFR	12	9	0	PAIL	1002	n/a	n/a	0	n/a	0	0	0	0.57763671875	0.412841796875	1	lower	amplitud.ttf
2459.472	n/a	REC_START	1229736	n/a	LTP233	ltpFR	12	9	n/a	n/a	n/a	n/a	n/a	n/a	n/a	0	0	0	n/a	n/a	n/a	n/a	n/a
2460.29	n/a	REC_WORD	1230145	wordpools/wasnorm_wordpool_less_exclusions.txt	LTP233	ltpFR	12	9	0	PAIL	1002	n/a	n/a	0	n/a	0	0	0	n/a	n/a	n/a	n/a	n/a
2461.672	n/a	REC_WORD	1230836	wordpools/wasnorm_wordpool_less_exclusions.txt	LTP233	ltpFR	12	9	0	DISH	474	n/a	n/a	0	n/a	0	0	0	n/a	n/a	n/a	n/a	n/a
2463.488	n/a	REC_WORD	1231744	wordpools/wasnorm_wordpool_less_exclusions.txt	LTP233	ltpFR	12	9	1	FORK	594	n/a	n/a	0	n/a	0	0	0	n/a	n/a	n/a	n/a	n/a
2465.12	n/a	REC_WORD	1232560	wordpools/wasnorm_wordpool_less_exclusions.txt	LTP233	ltpFR	12	9	n/a	PREACHER	1119	n/a	n/a	n/a	n/a	0	0	0	n/a	n/a	n/a	n/a	n/a
2467.38	n/a	REC_WORD	1233690	wordpools/wasnorm_wordpool_less_exclusions.txt	LTP233	ltpFR	12	9	1	SLEEVE	1324	n/a	n/a	0	n/a	0	0	0	n/a	n/a	n/a	n/a	n/a
2468.702	n/a	REC_WORD	1234351	wordpools/wasnorm_wordpool_less_exclusions.txt	LTP233	ltpFR	12	9	1	SHIRT	1287	n/a	n/a	0	n/a	0	0	0	n/a	n/a	n/a	n/a	n/a
2470.388	n/a	REC_WORD	1235194	wordpools/wasnorm_wordpool_less_exclusions.txt	LTP233	ltpFR	12	9	0	GRIZZLY	662	n/a	n/a	1	n/a	0	0	0	n/a	n/a	n/a	n/a	n/a
2471.756	n/a	REC_WORD	1235878	wordpools/wasnorm_wordpool_less_exclusions.txt	LTP233	ltpFR	12	9	1	CROOK	412	n/a	n/a	0	n/a	0	0	0	n/a	n/a	n/a	n/a	n/a
2473.186	n/a	REC_WORD	1236593	wordpools/wasnorm_wordpool_less_exclusions.txt	LTP233	ltpFR	12	9	0	FARMER	553	n/a	n/a	1	n/a	0	0	0	n/a	n/a	n/a	n/a	n/a
2477.238	n/a	REC_WORD	1238619	wordpools/wasnorm_wordpool_less_exclusions.txt	LTP233	ltpFR	12	9	1	WAGON	1578	n/a	n/a	0	n/a	0	0	0	n/a	n/a	n/a	n/a	n/a
2478.336	n/a	REC_WORD	1239168	wordpools/wasnorm_wordpool_less_exclusions.txt	LTP233	ltpFR	12	9	1	SINK	1309	n/a	n/a	0	n/a	0	0	0	n/a	n/a	n/a	n/a	n/a
2479.768	n/a	REC_WORD	1239884	wordpools/wasnorm_wordpool_less_exclusions.txt	LTP233	ltpFR	12	9	0	BATH	98	n/a	n/a	1	n/a	0	0	0	n/a	n/a	n/a	n/a	n/a
2499.084	n/a	REC_WORD	1249542	wordpools/wasnorm_wordpool_less_exclusions.txt	LTP233	ltpFR	12	9	1	FIELD	562	n/a	n/a	0	n/a	0	0	0	n/a	n/a	n/a	n/a	n/a
2544.38	n/a	START	1272190	n/a	LTP233	ltpFR	12	n/a	n/a	n/a	n/a	n/a	n/a	n/a	n/a	n/a	n/a	n/a	n/a	n/a	n/a	n/a	n/a
2545.898	n/a	PROB	1272949	n/a	LTP233	ltpFR	12	n/a	n/a	n/a	n/a	n/a	n/a	n/a	16	7	7	2	n/a	n/a	n/a	n/a	n/a
2547.304	n/a	PROB	1273652	n/a	LTP233	ltpFR	12	n/a	n/a	n/a	n/a	n/a	n/a	n/a	12	3	6	3	n/a	n/a	n/a	n/a	n/a
2548.542	n/a	PROB	1274271	n/a	LTP233	ltpFR	12	n/a	n/a	n/a	n/a	n/a	n/a	n/a	15	5	5	5	n/a	n/a	n/a	n/a	n/a
2549.644	n/a	PROB	1274822	n/a	LTP233	ltpFR	12	n/a	n/a	n/a	n/a	n/a	n/a	n/a	16	1	7	8	n/a	n/a	n/a	n/a	n/a
2550.766	n/a	PROB	1275383	n/a	LTP233	ltpFR	12	n/a	n/a	n/a	n/a	n/a	n/a	n/a	10	7	1	2	n/a	n/a	n/a	n/a	n/a
2551.794	n/a	STOP	1275897	n/a	LTP233	ltpFR	12	n/a	n/a	n/a	n/a	n/a	n/a	n/a	n/a	n/a	n/a	n/a	n/a	n/a	n/a	n/a	n/a
2553.344	n/a	WORD	1276672	wordpools/wasnorm_wordpool_less_exclusions.txt	LTP233	ltpFR	12	10	1	TRENCH	1503	n/a	n/a	0	n/a	0	0	0	0.422607421875	0.5869140625	0	upper	zerothre.ttf
2556.358	n/a	START	1278179	n/a	LTP233	ltpFR	12	n/a	n/a	n/a	n/a	n/a	n/a	n/a	n/a	n/a	n/a	n/a	n/a	n/a	n/a	n/a	n/a
2557.278	n/a	PROB	1278639	n/a	LTP233	ltpFR	12	n/a	n/a	n/a	n/a	n/a	n/a	n/a	19	7	6	6	n/a	n/a	n/a	n/a	n/a
2558.814	n/a	PROB	1279407	n/a	LTP233	ltpFR	12	n/a	n/a	n/a	n/a	n/a	n/a	n/a	12	4	7	1	n/a	n/a	n/a	n/a	n/a
2560.926	n/a	PROB	1280463	n/a	LTP233	ltpFR	12	n/a	n/a	n/a	n/a	n/a	n/a	n/a	14	4	1	9	n/a	n/a	n/a	n/a	n/a
2562.382	n/a	PROB	1281191	n/a	LTP233	ltpFR	12	n/a	n/a	n/a	n/a	n/a	n/a	n/a	13	2	2	9	n/a	n/a	n/a	n/a	n/a
2563.82	n/a	STOP	1281910	n/a	LTP233	ltpFR	12	n/a	n/a	n/a	n/a	n/a	n/a	n/a	n/a	n/a	n/a	n/a	n/a	n/a	n/a	n/a	n/a
2565.292	n/a	WORD	1282646	wordpools/wasnorm_wordpool_less_exclusions.txt	LTP233	ltpFR	12	10	1	CONSOLE	364	n/a	n/a	0	n/a	0	0	0	0.422607421875	0.5869140625	0	upper	zerothre.ttf
2568.306	n/a	START	1284153	n/a	LTP233	ltpFR	12	n/a	n/a	n/a	n/a	n/a	n/a	n/a	n/a	n/a	n/a	n/a	n/a	n/a	n/a	n/a	n/a
2569.372	n/a	PROB	1284686	n/a	LTP233	ltpFR	12	n/a	n/a	n/a	n/a	n/a	n/a	n/a	11	4	2	5	n/a	n/a	n/a	n/a	n/a
2570.492	n/a	PROB	1285246	n/a	LTP233	ltpFR	12	n/a	n/a	n/a	n/a	n/a	n/a	n/a	18	5	8	5	n/a	n/a	n/a	n/a	n/a
2572.048	n/a	PROB	1286024	n/a	LTP233	ltpFR	12	n/a	n/a	n/a	n/a	n/a	n/a	n/a	14	4	1	9	n/a	n/a	n/a	n/a	n/a
2573.152	n/a	PROB	1286576	n/a	LTP233	ltpFR	12	n/a	n/a	n/a	n/a	n/a	n/a	n/a	11	3	7	1	n/a	n/a	n/a	n/a	n/a
2574.39	n/a	PROB	1287195	n/a	LTP233	ltpFR	12	n/a	n/a	n/a	n/a	n/a	n/a	n/a	12	3	5	4	n/a	n/a	n/a	n/a	n/a
2576.044	n/a	STOP	1288022	n/a	LTP233	ltpFR	12	n/a	n/a	n/a	n/a	n/a	n/a	n/a	n/a	n/a	n/a	n/a	n/a	n/a	n/a	n/a	n/a
2577.172	n/a	WORD	1288586	wordpools/wasnorm_wordpool_less_exclusions.txt	LTP233	ltpFR	12	10	1	MEDAL	885	n/a	n/a	0	n/a	0	0	0	0.422607421875	0.5869140625	0	upper	zerothre.ttf
2580.184	n/a	START	1290092	n/a	LTP233	ltpFR	12	n/a	n/a	n/a	n/a	n/a	n/a	n/a	n/a	n/a	n/a	n/a	n/a	n/a	n/a	n/a	n/a
2581.018	n/a	PROB	1290509	n/a	LTP233	ltpFR	12	n/a	n/a	n/a	n/a	n/a	n/a	n/a	21	3	9	9	n/a	n/a	n/a	n/a	n/a
2582.426	n/a	PROB	1291213	n/a	LTP233	ltpFR	12	n/a	n/a	n/a	n/a	n/a	n/a	n/a	22	4	9	8	n/a	n/a	n/a	n/a	n/a
2583.96	n/a	PROB	1291980	n/a	LTP233	ltpFR	12	n/a	n/a	n/a	n/a	n/a	n/a	n/a	10	4	4	2	n/a	n/a	n/a	n/a	n/a
2585.18	n/a	PROB	1292590	n/a	LTP233	ltpFR	12	n/a	n/a	n/a	n/a	n/a	n/a	n/a	21	8	5	8	n/a	n/a	n/a	n/a	n/a
2586.844	n/a	STOP	1293422	n/a	LTP233	ltpFR	12	n/a	n/a	n/a	n/a	n/a	n/a	n/a	n/a	n/a	n/a	n/a	n/a	n/a	n/a	n/a	n/a
2589.016	n/a	WORD	1294508	wordpools/wasnorm_wordpool_less_exclusions.txt	LTP233	ltpFR	12	10	0	SHRUB	1299	n/a	n/a	0	n/a	0	0	0	0.57763671875	0.412841796875	1	lower	amplitud.ttf
2592.028	n/a	START	1296014	n/a	LTP233	ltpFR	12	n/a	n/a	n/a	n/a	n/a	n/a	n/a	n/a	n/a	n/a	n/a	n/a	n/a	n/a	n/a	n/a
2593.064	n/a	PROB	1296532	n/a	LTP233	ltpFR	12	n/a	n/a	n/a	n/a	n/a	n/a	n/a	6	4	1	1	n/a	n/a	n/a	n/a	n/a
2594.082	n/a	PROB	1297041	n/a	LTP233	ltpFR	12	n/a	n/a	n/a	n/a	n/a	n/a	n/a	18	9	7	2	n/a	n/a	n/a	n/a	n/a
2595.704	n/a	PROB	1297852	n/a	LTP233	ltpFR	12	n/a	n/a	n/a	n/a	n/a	n/a	n/a	8	2	5	1	n/a	n/a	n/a	n/a	n/a
2597.262	n/a	PROB	1298631	n/a	LTP233	ltpFR	12	n/a	n/a	n/a	n/a	n/a	n/a	n/a	20	7	7	6	n/a	n/a	n/a	n/a	n/a
2598.386	n/a	PROB	1299193	n/a	LTP233	ltpFR	12	n/a	n/a	n/a	n/a	n/a	n/a	n/a	14	5	4	5	n/a	n/a	n/a	n/a	n/a
2599.366	n/a	STOP	1299683	n/a	LTP233	ltpFR	12	n/a	n/a	n/a	n/a	n/a	n/a	n/a	n/a	n/a	n/a	n/a	n/a	n/a	n/a	n/a	n/a
2600.944	n/a	WORD	1300472	wordpools/wasnorm_wordpool_less_exclusions.txt	LTP233	ltpFR	12	10	0	ELM	527	n/a	n/a	0	n/a	0	0	0	0.57763671875	0.412841796875	1	lower	amplitud.ttf
2603.956	n/a	START	1301978	n/a	LTP233	ltpFR	12	n/a	n/a	n/a	n/a	n/a	n/a	n/a	n/a	n/a	n/a	n/a	n/a	n/a	n/a	n/a	n/a
2604.86	n/a	PROB	1302430	n/a	LTP233	ltpFR	12	n/a	n/a	n/a	n/a	n/a	n/a	n/a	10	1	6	2	n/a	n/a	n/a	n/a	n/a
2606.178	n/a	PROB	1303089	n/a	LTP233	ltpFR	12	n/a	n/a	n/a	n/a	n/a	n/a	n/a	16	4	5	7	n/a	n/a	n/a	n/a	n/a
2607.904	n/a	PROB	1303952	n/a	LTP233	ltpFR	12	n/a	n/a	n/a	n/a	n/a	n/a	n/a	20	7	9	4	n/a	n/a	n/a	n/a	n/a
2609.724	n/a	PROB	1304862	n/a	LTP233	ltpFR	12	n/a	n/a	n/a	n/a	n/a	n/a	n/a	18	8	8	2	n/a	n/a	n/a	n/a	n/a
2611.014	n/a	STOP	1305507	n/a	LTP233	ltpFR	12	n/a	n/a	n/a	n/a	n/a	n/a	n/a	n/a	n/a	n/a	n/a	n/a	n/a	n/a	n/a	n/a
2612.824	n/a	WORD	1306412	wordpools/wasnorm_wordpool_less_exclusions.txt	LTP233	ltpFR	12	10	0	PASSENGER	1020	n/a	n/a	0	n/a	0	0	0	0.57763671875	0.412841796875	1	lower	amplitud.ttf
2615.836	n/a	START	1307918	n/a	LTP233	ltpFR	12	n/a	n/a	n/a	n/a	n/a	n/a	n/a	n/a	n/a	n/a	n/a	n/a	n/a	n/a	n/a	n/a
2616.872	n/a	PROB	1308436	n/a	LTP233	ltpFR	12	n/a	n/a	n/a	n/a	n/a	n/a	n/a	18	7	7	4	n/a	n/a	n/a	n/a	n/a
2618.776	n/a	PROB	1309388	n/a	LTP233	ltpFR	12	n/a	n/a	n/a	n/a	n/a	n/a	n/a	19	3	9	7	n/a	n/a	n/a	n/a	n/a
2620.014	n/a	PROB	1310007	n/a	LTP233	ltpFR	12	n/a	n/a	n/a	n/a	n/a	n/a	n/a	11	5	1	5	n/a	n/a	n/a	n/a	n/a
2621.136	n/a	PROB	1310568	n/a	LTP233	ltpFR	12	n/a	n/a	n/a	n/a	n/a	n/a	n/a	12	7	1	4	n/a	n/a	n/a	n/a	n/a
2622.614	n/a	STOP	1311307	n/a	LTP233	ltpFR	12	n/a	n/a	n/a	n/a	n/a	n/a	n/a	n/a	n/a	n/a	n/a	n/a	n/a	n/a	n/a	n/a
2624.748	n/a	WORD	1312374	wordpools/wasnorm_wordpool_less_exclusions.txt	LTP233	ltpFR	12	10	1	AUTOMOBILE	62	n/a	n/a	0	n/a	0	0	0	0.422607421875	0.5869140625	0	upper	zerothre.ttf
2627.764	n/a	START	1313882	n/a	LTP233	ltpFR	12	n/a	n/a	n/a	n/a	n/a	n/a	n/a	n/a	n/a	n/a	n/a	n/a	n/a	n/a	n/a	n/a
2628.8	n/a	PROB	1314400	n/a	LTP233	ltpFR	12	n/a	n/a	n/a	n/a	n/a	n/a	n/a	13	2	4	7	n/a	n/a	n/a	n/a	n/a
2630.842	n/a	PROB	1315421	n/a	LTP233	ltpFR	12	n/a	n/a	n/a	n/a	n/a	n/a	n/a	23	6	9	9	n/a	n/a	n/a	n/a	n/a
2632.466	n/a	PROB	1316233	n/a	LTP233	ltpFR	12	n/a	n/a	n/a	n/a	n/a	n/a	n/a	15	6	3	6	n/a	n/a	n/a	n/a	n/a
2634.052	n/a	PROB	1317026	n/a	LTP233	ltpFR	12	n/a	n/a	n/a	n/a	n/a	n/a	n/a	15	5	2	8	n/a	n/a	n/a	n/a	n/a
2635.504	n/a	STOP	1317752	n/a	LTP233	ltpFR	12	n/a	n/a	n/a	n/a	n/a	n/a	n/a	n/a	n/a	n/a	n/a	n/a	n/a	n/a	n/a	n/a
2636.882	n/a	WORD	1318441	wordpools/wasnorm_wordpool_less_exclusions.txt	LTP233	ltpFR	12	10	1	DRIVER	499	n/a	n/a	1	n/a	0	0	0	0.422607421875	0.5869140625	0	upper	zerothre.ttf
2639.894	n/a	START	1319947	n/a	LTP233	ltpFR	12	n/a	n/a	n/a	n/a	n/a	n/a	n/a	n/a	n/a	n/a	n/a	n/a	n/a	n/a	n/a	n/a
2640.982	n/a	PROB	1320491	n/a	LTP233	ltpFR	12	n/a	n/a	n/a	n/a	n/a	n/a	n/a	17	3	8	6	n/a	n/a	n/a	n/a	n/a
2642.722	n/a	PROB	1321361	n/a	LTP233	ltpFR	12	n/a	n/a	n/a	n/a	n/a	n/a	n/a	13	4	3	6	n/a	n/a	n/a	n/a	n/a
2645.146	n/a	PROB	1322573	n/a	LTP233	ltpFR	12	n/a	n/a	n/a	n/a	n/a	n/a	n/a	13	4	3	6	n/a	n/a	n/a	n/a	n/a
2647.368	n/a	STOP	1323684	n/a	LTP233	ltpFR	12	n/a	n/a	n/a	n/a	n/a	n/a	n/a	n/a	n/a	n/a	n/a	n/a	n/a	n/a	n/a	n/a
2648.74	n/a	WORD	1324370	wordpools/wasnorm_wordpool_less_exclusions.txt	LTP233	ltpFR	12	10	1	PLUMBER	1091	n/a	n/a	1	n/a	0	0	0	0.422607421875	0.5869140625	0	upper	zerothre.ttf
2651.756	n/a	START	1325878	n/a	LTP233	ltpFR	12	n/a	n/a	n/a	n/a	n/a	n/a	n/a	n/a	n/a	n/a	n/a	n/a	n/a	n/a	n/a	n/a
2652.626	n/a	PROB	1326313	n/a	LTP233	ltpFR	12	n/a	n/a	n/a	n/a	n/a	n/a	n/a	9	4	3	2	n/a	n/a	n/a	n/a	n/a
2654.062	n/a	PROB	1327031	n/a	LTP233	ltpFR	12	n/a	n/a	n/a	n/a	n/a	n/a	n/a	11	3	7	1	n/a	n/a	n/a	n/a	n/a
2655.27	n/a	PROB	1327635	n/a	LTP233	ltpFR	12	n/a	n/a	n/a	n/a	n/a	n/a	n/a	7	2	2	3	n/a	n/a	n/a	n/a	n/a
2657.442	n/a	PROB	1328721	n/a	LTP233	ltpFR	12	n/a	n/a	n/a	n/a	n/a	n/a	n/a	14	7	5	2	n/a	n/a	n/a	n/a	n/a
2658.498	n/a	STOP	1329249	n/a	LTP233	ltpFR	12	n/a	n/a	n/a	n/a	n/a	n/a	n/a	n/a	n/a	n/a	n/a	n/a	n/a	n/a	n/a	n/a
2660.756	n/a	WORD	1330378	wordpools/wasnorm_wordpool_less_exclusions.txt	LTP233	ltpFR	12	10	0	DRILL	497	n/a	n/a	0	n/a	0	0	0	0.57763671875	0.412841796875	1	lower	amplitud.ttf
2663.768	n/a	START	1331884	n/a	LTP233	ltpFR	12	n/a	n/a	n/a	n/a	n/a	n/a	n/a	n/a	n/a	n/a	n/a	n/a	n/a	n/a	n/a	n/a
2664.622	n/a	PROB	1332311	n/a	LTP233	ltpFR	12	n/a	n/a	n/a	n/a	n/a	n/a	n/a	16	8	2	6	n/a	n/a	n/a	n/a	n/a
2665.704	n/a	PROB	1332852	n/a	LTP233	ltpFR	12	n/a	n/a	n/a	n/a	n/a	n/a	n/a	18	7	2	9	n/a	n/a	n/a	n/a	n/a
2667.35	n/a	PROB	1333675	n/a	LTP233	ltpFR	12	n/a	n/a	n/a	n/a	n/a	n/a	n/a	12	1	3	8	n/a	n/a	n/a	n/a	n/a
2668.516	n/a	PROB	1334258	n/a	LTP233	ltpFR	12	n/a	n/a	n/a	n/a	n/a	n/a	n/a	20	8	4	8	n/a	n/a	n/a	n/a	n/a
2669.888	n/a	PROB	1334944	n/a	LTP233	ltpFR	12	n/a	n/a	n/a	n/a	n/a	n/a	n/a	16	7	3	6	n/a	n/a	n/a	n/a	n/a
2670.842	n/a	STOP	1335421	n/a	LTP233	ltpFR	12	n/a	n/a	n/a	n/a	n/a	n/a	n/a	n/a	n/a	n/a	n/a	n/a	n/a	n/a	n/a	n/a
2672.97	n/a	WORD	1336485	wordpools/wasnorm_wordpool_less_exclusions.txt	LTP233	ltpFR	12	10	0	LID	817	n/a	n/a	0	n/a	0	0	0	0.57763671875	0.412841796875	1	lower	amplitud.ttf
2675.982	n/a	START	1337991	n/a	LTP233	ltpFR	12	n/a	n/a	n/a	n/a	n/a	n/a	n/a	n/a	n/a	n/a	n/a	n/a	n/a	n/a	n/a	n/a
2677.002	n/a	PROB	1338501	n/a	LTP233	ltpFR	12	n/a	n/a	n/a	n/a	n/a	n/a	n/a	18	3	6	9	n/a	n/a	n/a	n/a	n/a
2679.04	n/a	PROB	1339520	n/a	LTP233	ltpFR	12	n/a	n/a	n/a	n/a	n/a	n/a	n/a	18	3	5	8	n/a	n/a	n/a	n/a	n/a
2680.382	n/a	PROB	1340191	n/a	LTP233	ltpFR	12	n/a	n/a	n/a	n/a	n/a	n/a	n/a	18	5	5	8	n/a	n/a	n/a	n/a	n/a
2681.92	n/a	PROB	1340960	n/a	LTP233	ltpFR	12	n/a	n/a	n/a	n/a	n/a	n/a	n/a	10	1	1	8	n/a	n/a	n/a	n/a	n/a
2682.946	n/a	STOP	1341473	n/a	LTP233	ltpFR	12	n/a	n/a	n/a	n/a	n/a	n/a	n/a	n/a	n/a	n/a	n/a	n/a	n/a	n/a	n/a	n/a
2685.08	n/a	WORD	1342540	wordpools/wasnorm_wordpool_less_exclusions.txt	LTP233	ltpFR	12	10	0	MAGAZINE	853	n/a	n/a	0	n/a	0	0	0	0.57763671875	0.412841796875	1	lower	amplitud.ttf
2688.094	n/a	START	1344047	n/a	LTP233	ltpFR	12	n/a	n/a	n/a	n/a	n/a	n/a	n/a	n/a	n/a	n/a	n/a	n/a	n/a	n/a	n/a	n/a
2688.998	n/a	PROB	1344499	n/a	LTP233	ltpFR	12	n/a	n/a	n/a	n/a	n/a	n/a	n/a	16	2	9	5	n/a	n/a	n/a	n/a	n/a
2690.818	n/a	PROB	1345409	n/a	LTP233	ltpFR	12	n/a	n/a	n/a	n/a	n/a	n/a	n/a	14	6	5	3	n/a	n/a	n/a	n/a	n/a
2692.56	n/a	PROB	1346280	n/a	LTP233	ltpFR	12	n/a	n/a	n/a	n/a	n/a	n/a	n/a	10	2	5	3	n/a	n/a	n/a	n/a	n/a
2694.3	n/a	PROB	1347150	n/a	LTP233	ltpFR	12	n/a	n/a	n/a	n/a	n/a	n/a	n/a	14	3	3	8	n/a	n/a	n/a	n/a	n/a
2695.324	n/a	STOP	1347662	n/a	LTP233	ltpFR	12	n/a	n/a	n/a	n/a	n/a	n/a	n/a	n/a	n/a	n/a	n/a	n/a	n/a	n/a	n/a	n/a
2697.162	n/a	WORD	1348581	wordpools/wasnorm_wordpool_less_exclusions.txt	LTP233	ltpFR	12	10	0	STRAWBERRY	1391	n/a	n/a	0	n/a	0	0	0	0.57763671875	0.412841796875	1	lower	amplitud.ttf
2700.174	n/a	START	1350087	n/a	LTP233	ltpFR	12	n/a	n/a	n/a	n/a	n/a	n/a	n/a	n/a	n/a	n/a	n/a	n/a	n/a	n/a	n/a	n/a
2701.14	n/a	PROB	1350570	n/a	LTP233	ltpFR	12	n/a	n/a	n/a	n/a	n/a	n/a	n/a	6	2	2	2	n/a	n/a	n/a	n/a	n/a
2702.01	n/a	PROB	1351005	n/a	LTP233	ltpFR	12	n/a	n/a	n/a	n/a	n/a	n/a	n/a	15	7	4	4	n/a	n/a	n/a	n/a	n/a
2703.216	n/a	PROB	1351608	n/a	LTP233	ltpFR	12	n/a	n/a	n/a	n/a	n/a	n/a	n/a	15	4	3	8	n/a	n/a	n/a	n/a	n/a
2704.888	n/a	PROB	1352444	n/a	LTP233	ltpFR	12	n/a	n/a	n/a	n/a	n/a	n/a	n/a	11	6	3	2	n/a	n/a	n/a	n/a	n/a
2706.462	n/a	PROB	1353231	n/a	LTP233	ltpFR	12	n/a	n/a	n/a	n/a	n/a	n/a	n/a	13	8	1	4	n/a	n/a	n/a	n/a	n/a
2708.034	n/a	STOP	1354017	n/a	LTP233	ltpFR	12	n/a	n/a	n/a	n/a	n/a	n/a	n/a	n/a	n/a	n/a	n/a	n/a	n/a	n/a	n/a	n/a
2709.008	n/a	WORD	1354504	wordpools/wasnorm_wordpool_less_exclusions.txt	LTP233	ltpFR	12	10	0	DANDRUFF	439	n/a	n/a	0	n/a	0	0	0	0.57763671875	0.412841796875	1	lower	amplitud.ttf
2712.02	n/a	START	1356010	n/a	LTP233	ltpFR	12	n/a	n/a	n/a	n/a	n/a	n/a	n/a	n/a	n/a	n/a	n/a	n/a	n/a	n/a	n/a	n/a
2713.174	n/a	PROB	1356587	n/a	LTP233	ltpFR	12	n/a	n/a	n/a	n/a	n/a	n/a	n/a	15	6	1	8	n/a	n/a	n/a	n/a	n/a
2714.626	n/a	PROB	1357313	n/a	LTP233	ltpFR	12	n/a	n/a	n/a	n/a	n/a	n/a	n/a	11	6	1	4	n/a	n/a	n/a	n/a	n/a
