mstime	trial_type	stim_file	subject	experiment	session	trial	item_name	item_num	list	answer	test_x	test_y	test_z
0	SESS_START	n/a	LTP336	ltpFR2	3	n/a	n/a	n/a	n/a	n/a	0	0	0
15146	START	n/a	LTP336	ltpFR2	3	n/a	n/a	n/a	-1	n/a	n/a	n/a	n/a
15176	PROB	n/a	LTP336	ltpFR2	3	n/a	n/a	n/a	-1	11	4	5	2
16875	PROB	n/a	LTP336	ltpFR2	3	n/a	n/a	n/a	-1	9	3	1	5
18358	PROB	n/a	LTP336	ltpFR2	3	n/a	n/a	n/a	-1	12	4	1	7
20390	PROB	n/a	LTP336	ltpFR2	3	n/a	n/a	n/a	-1	16	4	7	5
22156	PROB	n/a	LTP336	ltpFR2	3	n/a	n/a	n/a	-1	12	3	6	3
24239	PROB	n/a	LTP336	ltpFR2	3	n/a	n/a	n/a	-1	15	7	4	4
26400	STOP	n/a	LTP336	ltpFR2	3	n/a	n/a	n/a	-1	n/a	n/a	n/a	n/a
58223	WORD	wordpools/wasnorm_wordpool_576.txt	LTP336	ltpFR2	3	1	PICTURE	1061	n/a	n/a	0	0	0
60922	WORD	wordpools/wasnorm_wordpool_576.txt	LTP336	ltpFR2	3	1	COOKBOOK	373	n/a	n/a	0	0	0
63703	WORD	wordpools/wasnorm_wordpool_576.txt	LTP336	ltpFR2	3	1	HIGHWAY	707	n/a	n/a	0	0	0
66220	WORD	wordpools/wasnorm_wordpool_576.txt	LTP336	ltpFR2	3	1	KLEENEX	782	n/a	n/a	0	0	0
68668	WORD	wordpools/wasnorm_wordpool_576.txt	LTP336	ltpFR2	3	1	CRUTCH	417	n/a	n/a	0	0	0
71484	WORD	wordpools/wasnorm_wordpool_576.txt	LTP336	ltpFR2	3	1	MATTRESS	879	n/a	n/a	0	0	0
74166	WORD	wordpools/wasnorm_wordpool_576.txt	LTP336	ltpFR2	3	1	SPIDER	1351	n/a	n/a	0	0	0
76965	WORD	wordpools/wasnorm_wordpool_576.txt	LTP336	ltpFR2	3	1	HUSBAND	728	n/a	n/a	0	0	0
79629	WORD	wordpools/wasnorm_wordpool_576.txt	LTP336	ltpFR2	3	1	LOVER	846	n/a	n/a	0	0	0
82362	WORD	wordpools/wasnorm_wordpool_576.txt	LTP336	ltpFR2	3	1	PICNIC	1060	n/a	n/a	0	0	0
84828	WORD	wordpools/wasnorm_wordpool_576.txt	LTP336	ltpFR2	3	1	SUPPER	1411	n/a	n/a	0	0	0
87310	WORD	wordpools/wasnorm_wordpool_576.txt	LTP336	ltpFR2	3	1	SCULPTURE	1258	n/a	n/a	0	0	0
89926	WORD	wordpools/wasnorm_wordpool_576.txt	LTP336	ltpFR2	3	1	GAZELLE	628	n/a	n/a	0	0	0
92358	WORD	wordpools/wasnorm_wordpool_576.txt	LTP336	ltpFR2	3	1	LODGE	839	n/a	n/a	0	0	0
94823	WORD	wordpools/wasnorm_wordpool_576.txt	LTP336	ltpFR2	3	1	DRAWING	494	n/a	n/a	0	0	0
97406	WORD	wordpools/wasnorm_wordpool_576.txt	LTP336	ltpFR2	3	1	FRANCE	601	n/a	n/a	0	0	0
100204	WORD	wordpools/wasnorm_wordpool_576.txt	LTP336	ltpFR2	3	1	NURSE	963	n/a	n/a	0	0	0
102686	WORD	wordpools/wasnorm_wordpool_576.txt	LTP336	ltpFR2	3	1	PILOT	1070	n/a	n/a	0	0	0
105485	WORD	wordpools/wasnorm_wordpool_576.txt	LTP336	ltpFR2	3	1	BOUQUET	157	n/a	n/a	0	0	0
107967	WORD	wordpools/wasnorm_wordpool_576.txt	LTP336	ltpFR2	3	1	SPOON	1357	n/a	n/a	0	0	0
110433	WORD	wordpools/wasnorm_wordpool_576.txt	LTP336	ltpFR2	3	1	PASTRY	1022	n/a	n/a	0	0	0
112865	WORD	wordpools/wasnorm_wordpool_576.txt	LTP336	ltpFR2	3	1	BANQUET	86	n/a	n/a	0	0	0
115596	WORD	wordpools/wasnorm_wordpool_576.txt	LTP336	ltpFR2	3	1	REPORT	1184	n/a	n/a	0	0	0
118080	WORD	wordpools/wasnorm_wordpool_576.txt	LTP336	ltpFR2	3	1	PLASTER	1085	n/a	n/a	0	0	0
119695	START	n/a	LTP336	ltpFR2	3	n/a	n/a	n/a	1	n/a	n/a	n/a	n/a
120807	DISTRACTOR	n/a	LTP336	ltpFR2	3	1	n/a	n/a	n/a	n/a	0	0	0
120811	PROB	n/a	LTP336	ltpFR2	3	n/a	n/a	n/a	1	18	6	9	3
122944	PROB	n/a	LTP336	ltpFR2	3	n/a	n/a	n/a	1	20	6	8	6
127791	PROB	n/a	LTP336	ltpFR2	3	n/a	n/a	n/a	1	15	3	5	7
129341	PROB	n/a	LTP336	ltpFR2	3	n/a	n/a	n/a	1	19	3	8	8
131207	PROB	n/a	LTP336	ltpFR2	3	n/a	n/a	n/a	1	14	3	8	3
133389	PROB	n/a	LTP336	ltpFR2	3	n/a	n/a	n/a	1	22	9	5	8
135272	PROB	n/a	LTP336	ltpFR2	3	n/a	n/a	n/a	1	13	4	6	3
136753	PROB	n/a	LTP336	ltpFR2	3	n/a	n/a	n/a	1	18	6	7	5
138520	PROB	n/a	LTP336	ltpFR2	3	n/a	n/a	n/a	1	8	5	2	1
140236	PROB	n/a	LTP336	ltpFR2	3	n/a	n/a	n/a	1	11	8	2	1
141635	PROB	n/a	LTP336	ltpFR2	3	n/a	n/a	n/a	1	9	1	6	2
143324	STOP	n/a	LTP336	ltpFR2	3	n/a	n/a	n/a	1	n/a	n/a	n/a	n/a
145534	REC_START	n/a	LTP336	ltpFR2	3	1	n/a	n/a	n/a	n/a	0	0	0
146309	REC_WORD_VV	wordpools/wasnorm_wordpool_576.txt	LTP336	ltpFR2	3	1	<>	-1	n/a	n/a	0	0	0
147028	REC_WORD	wordpools/wasnorm_wordpool_576.txt	LTP336	ltpFR2	3	1	COOKBOOK	373	n/a	n/a	0	0	0
148021	REC_WORD	wordpools/wasnorm_wordpool_576.txt	LTP336	ltpFR2	3	1	LODGE	839	n/a	n/a	0	0	0
148918	REC_WORD	wordpools/wasnorm_wordpool_576.txt	LTP336	ltpFR2	3	1	HIGHWAY	707	n/a	n/a	0	0	0
150080	REC_WORD	wordpools/wasnorm_wordpool_576.txt	LTP336	ltpFR2	3	1	NURSE	963	n/a	n/a	0	0	0
151297	REC_WORD	wordpools/wasnorm_wordpool_576.txt	LTP336	ltpFR2	3	1	CRUTCH	417	n/a	n/a	0	0	0
152534	REC_WORD	wordpools/wasnorm_wordpool_576.txt	LTP336	ltpFR2	3	1	SPOON	1357	n/a	n/a	0	0	0
153654	REC_WORD	wordpools/wasnorm_wordpool_576.txt	LTP336	ltpFR2	3	1	PASTRY	1022	n/a	n/a	0	0	0
155170	REC_WORD	wordpools/wasnorm_wordpool_576.txt	LTP336	ltpFR2	3	1	MATTRESS	879	n/a	n/a	0	0	0
156409	REC_WORD	wordpools/wasnorm_wordpool_576.txt	LTP336	ltpFR2	3	1	KLEENEX	782	n/a	n/a	0	0	0
157696	REC_WORD	wordpools/wasnorm_wordpool_576.txt	LTP336	ltpFR2	3	1	REPORT	1184	n/a	n/a	0	0	0
159228	REC_WORD	wordpools/wasnorm_wordpool_576.txt	LTP336	ltpFR2	3	1	PILOT	1070	n/a	n/a	0	0	0
160758	REC_WORD	wordpools/wasnorm_wordpool_576.txt	LTP336	ltpFR2	3	1	BOUQUET	157	n/a	n/a	0	0	0
162517	REC_WORD	wordpools/wasnorm_wordpool_576.txt	LTP336	ltpFR2	3	1	BANQUET	86	n/a	n/a	0	0	0
163624	REC_WORD	wordpools/wasnorm_wordpool_576.txt	LTP336	ltpFR2	3	1	HUSBAND	728	n/a	n/a	0	0	0
164896	REC_WORD	wordpools/wasnorm_wordpool_576.txt	LTP336	ltpFR2	3	1	LOVER	846	n/a	n/a	0	0	0
169518	REC_WORD_VV	wordpools/wasnorm_wordpool_576.txt	LTP336	ltpFR2	3	1	<>	-1	n/a	n/a	0	0	0
235976	WORD	wordpools/wasnorm_wordpool_576.txt	LTP336	ltpFR2	3	2	RADISH	1158	n/a	n/a	0	0	0
238641	WORD	wordpools/wasnorm_wordpool_576.txt	LTP336	ltpFR2	3	2	WRIST	1626	n/a	n/a	0	0	0
241157	WORD	wordpools/wasnorm_wordpool_576.txt	LTP336	ltpFR2	3	2	IDOL	733	n/a	n/a	0	0	0
243973	WORD	wordpools/wasnorm_wordpool_576.txt	LTP336	ltpFR2	3	2	PERCH	1048	n/a	n/a	0	0	0
246787	WORD	wordpools/wasnorm_wordpool_576.txt	LTP336	ltpFR2	3	2	JOURNAL	760	n/a	n/a	0	0	0
249287	WORD	wordpools/wasnorm_wordpool_576.txt	LTP336	ltpFR2	3	2	SURVEY	1414	n/a	n/a	0	0	0
251768	WORD	wordpools/wasnorm_wordpool_576.txt	LTP336	ltpFR2	3	2	CONCERT	360	n/a	n/a	0	0	0
254501	WORD	wordpools/wasnorm_wordpool_576.txt	LTP336	ltpFR2	3	2	DRIVER	499	n/a	n/a	0	0	0
256983	WORD	wordpools/wasnorm_wordpool_576.txt	LTP336	ltpFR2	3	2	CABIN	211	n/a	n/a	0	0	0
259482	WORD	wordpools/wasnorm_wordpool_576.txt	LTP336	ltpFR2	3	2	SHELTER	1282	n/a	n/a	0	0	0
262264	WORD	wordpools/wasnorm_wordpool_576.txt	LTP336	ltpFR2	3	2	HERO	706	n/a	n/a	0	0	0
264846	WORD	wordpools/wasnorm_wordpool_576.txt	LTP336	ltpFR2	3	2	NAPKIN	937	n/a	n/a	0	0	0
267594	WORD	wordpools/wasnorm_wordpool_576.txt	LTP336	ltpFR2	3	2	SNACK	1331	n/a	n/a	0	0	0
270144	WORD	wordpools/wasnorm_wordpool_576.txt	LTP336	ltpFR2	3	2	JEANS	752	n/a	n/a	0	0	0
272860	WORD	wordpools/wasnorm_wordpool_576.txt	LTP336	ltpFR2	3	2	BELLY	119	n/a	n/a	0	0	0
275508	WORD	wordpools/wasnorm_wordpool_576.txt	LTP336	ltpFR2	3	2	LIVER	833	n/a	n/a	0	0	0
277991	WORD	wordpools/wasnorm_wordpool_576.txt	LTP336	ltpFR2	3	2	BANJO	82	n/a	n/a	0	0	0
280622	WORD	wordpools/wasnorm_wordpool_576.txt	LTP336	ltpFR2	3	2	BRANDY	169	n/a	n/a	0	0	0
283321	WORD	wordpools/wasnorm_wordpool_576.txt	LTP336	ltpFR2	3	2	COLLEGE	346	n/a	n/a	0	0	0
285753	WORD	wordpools/wasnorm_wordpool_576.txt	LTP336	ltpFR2	3	2	SODA	1341	n/a	n/a	0	0	0
288353	WORD	wordpools/wasnorm_wordpool_576.txt	LTP336	ltpFR2	3	2	BALLOON	75	n/a	n/a	0	0	0
290885	WORD	wordpools/wasnorm_wordpool_576.txt	LTP336	ltpFR2	3	2	PARROT	1015	n/a	n/a	0	0	0
293582	WORD	wordpools/wasnorm_wordpool_576.txt	LTP336	ltpFR2	3	2	WOMAN	1620	n/a	n/a	0	0	0
296382	WORD	wordpools/wasnorm_wordpool_576.txt	LTP336	ltpFR2	3	2	CUPBOARD	425	n/a	n/a	0	0	0
297998	START	n/a	LTP336	ltpFR2	3	n/a	n/a	n/a	2	n/a	n/a	n/a	n/a
299050	DISTRACTOR	n/a	LTP336	ltpFR2	3	2	n/a	n/a	n/a	n/a	0	0	0
299064	PROB	n/a	LTP336	ltpFR2	3	n/a	n/a	n/a	2	23	9	8	6
302296	PROB	n/a	LTP336	ltpFR2	3	n/a	n/a	n/a	2	17	4	8	5
304262	PROB	n/a	LTP336	ltpFR2	3	n/a	n/a	n/a	2	19	8	7	4
306178	PROB	n/a	LTP336	ltpFR2	3	n/a	n/a	n/a	2	19	4	9	6
308060	PROB	n/a	LTP336	ltpFR2	3	n/a	n/a	n/a	2	9	6	1	2
309625	PROB	n/a	LTP336	ltpFR2	3	n/a	n/a	n/a	2	14	1	4	9
311142	PROB	n/a	LTP336	ltpFR2	3	n/a	n/a	n/a	2	14	2	5	7
313341	PROB	n/a	LTP336	ltpFR2	3	n/a	n/a	n/a	2	21	5	7	9
318472	PROB	n/a	LTP336	ltpFR2	3	n/a	n/a	n/a	2	15	5	1	9
321998	STOP	n/a	LTP336	ltpFR2	3	n/a	n/a	n/a	2	n/a	n/a	n/a	n/a
323786	REC_START	n/a	LTP336	ltpFR2	3	2	n/a	n/a	n/a	n/a	0	0	0
324544	REC_WORD	wordpools/wasnorm_wordpool_576.txt	LTP336	ltpFR2	3	2	BALLOON	75	n/a	n/a	0	0	0
326097	REC_WORD	wordpools/wasnorm_wordpool_576.txt	LTP336	ltpFR2	3	2	PARROT	1015	n/a	n/a	0	0	0
327534	REC_WORD	wordpools/wasnorm_wordpool_576.txt	LTP336	ltpFR2	3	2	WOMAN	1620	n/a	n/a	0	0	0
328516	REC_WORD	wordpools/wasnorm_wordpool_576.txt	LTP336	ltpFR2	3	2	CUPBOARD	425	n/a	n/a	0	0	0
330047	REC_WORD	wordpools/wasnorm_wordpool_576.txt	LTP336	ltpFR2	3	2	CABIN	211	n/a	n/a	0	0	0
331307	REC_WORD	wordpools/wasnorm_wordpool_576.txt	LTP336	ltpFR2	3	2	IDOL	733	n/a	n/a	0	0	0
332478	REC_WORD	wordpools/wasnorm_wordpool_576.txt	LTP336	ltpFR2	3	2	CONCERT	360	n/a	n/a	0	0	0
333800	REC_WORD	wordpools/wasnorm_wordpool_576.txt	LTP336	ltpFR2	3	2	DRIVER	499	n/a	n/a	0	0	0
336217	REC_WORD	wordpools/wasnorm_wordpool_576.txt	LTP336	ltpFR2	3	2	JEANS	752	n/a	n/a	0	0	0
337391	REC_WORD	wordpools/wasnorm_wordpool_576.txt	LTP336	ltpFR2	3	2	BELLY	119	n/a	n/a	0	0	0
338688	REC_WORD	wordpools/wasnorm_wordpool_576.txt	LTP336	ltpFR2	3	2	LIVER	833	n/a	n/a	0	0	0
339956	REC_WORD	wordpools/wasnorm_wordpool_576.txt	LTP336	ltpFR2	3	2	SURVEY	1414	n/a	n/a	0	0	0
343398	REC_WORD	wordpools/wasnorm_wordpool_576.txt	LTP336	ltpFR2	3	2	RADISH	1158	n/a	n/a	0	0	0
346452	REC_WORD	wordpools/wasnorm_wordpool_576.txt	LTP336	ltpFR2	3	2	WRIST	1626	n/a	n/a	0	0	0
347555	REC_WORD	wordpools/wasnorm_wordpool_576.txt	LTP336	ltpFR2	3	2	PERCH	1048	n/a	n/a	0	0	0
414229	DISTRACTOR	n/a	LTP336	ltpFR2	3	3	n/a	n/a	n/a	n/a	0	0	0
414229	START	n/a	LTP336	ltpFR2	3	n/a	n/a	n/a	3	n/a	n/a	n/a	n/a
414246	PROB	n/a	LTP336	ltpFR2	3	n/a	n/a	n/a	3	16	3	9	4
416544	PROB	n/a	LTP336	ltpFR2	3	n/a	n/a	n/a	3	9	2	2	5
417994	PROB	n/a	LTP336	ltpFR2	3	n/a	n/a	n/a	3	17	1	8	8
419843	PROB	n/a	LTP336	ltpFR2	3	n/a	n/a	n/a	3	19	7	3	9
421376	PROB	n/a	LTP336	ltpFR2	3	n/a	n/a	n/a	3	16	2	6	8
423291	PROB	n/a	LTP336	ltpFR2	3	n/a	n/a	n/a	3	17	3	7	7
424806	PROB	n/a	LTP336	ltpFR2	3	n/a	n/a	n/a	3	15	9	5	1
426223	PROB	n/a	LTP336	ltpFR2	3	n/a	n/a	n/a	3	11	1	6	4
428173	PROB	n/a	LTP336	ltpFR2	3	n/a	n/a	n/a	3	15	7	4	4
432104	PROB	n/a	LTP336	ltpFR2	3	n/a	n/a	n/a	3	18	8	3	7
433903	PROB	n/a	LTP336	ltpFR2	3	n/a	n/a	n/a	3	15	6	6	3
435702	PROB	n/a	LTP336	ltpFR2	3	n/a	n/a	n/a	3	15	7	4	4
437684	STOP	n/a	LTP336	ltpFR2	3	n/a	n/a	n/a	3	n/a	n/a	n/a	n/a
439134	WORD	wordpools/wasnorm_wordpool_576.txt	LTP336	ltpFR2	3	3	FARMER	553	n/a	n/a	0	0	0
441682	WORD	wordpools/wasnorm_wordpool_576.txt	LTP336	ltpFR2	3	3	LASER	801	n/a	n/a	0	0	0
444115	WORD	wordpools/wasnorm_wordpool_576.txt	LTP336	ltpFR2	3	3	PEACH	1031	n/a	n/a	0	0	0
446680	WORD	wordpools/wasnorm_wordpool_576.txt	LTP336	ltpFR2	3	3	ROBBER	1197	n/a	n/a	0	0	0
449496	WORD	wordpools/wasnorm_wordpool_576.txt	LTP336	ltpFR2	3	3	BURGLAR	200	n/a	n/a	0	0	0
451962	WORD	wordpools/wasnorm_wordpool_576.txt	LTP336	ltpFR2	3	3	SHOVEL	1295	n/a	n/a	0	0	0
454527	WORD	wordpools/wasnorm_wordpool_576.txt	LTP336	ltpFR2	3	3	CHEST	295	n/a	n/a	0	0	0
457060	WORD	wordpools/wasnorm_wordpool_576.txt	LTP336	ltpFR2	3	3	PUPPY	1144	n/a	n/a	0	0	0
459557	WORD	wordpools/wasnorm_wordpool_576.txt	LTP336	ltpFR2	3	3	RUST	1219	n/a	n/a	0	0	0
462340	WORD	wordpools/wasnorm_wordpool_576.txt	LTP336	ltpFR2	3	3	BUTCHER	203	n/a	n/a	0	0	0
464889	WORD	wordpools/wasnorm_wordpool_576.txt	LTP336	ltpFR2	3	3	DIVER	476	n/a	n/a	0	0	0
467637	WORD	wordpools/wasnorm_wordpool_576.txt	LTP336	ltpFR2	3	3	ROOSTER	1209	n/a	n/a	0	0	0
470320	WORD	wordpools/wasnorm_wordpool_576.txt	LTP336	ltpFR2	3	3	LEG	809	n/a	n/a	0	0	0
472902	WORD	wordpools/wasnorm_wordpool_576.txt	LTP336	ltpFR2	3	3	HAND	683	n/a	n/a	0	0	0
475650	WORD	wordpools/wasnorm_wordpool_576.txt	LTP336	ltpFR2	3	3	CEILING	265	n/a	n/a	0	0	0
478100	WORD	wordpools/wasnorm_wordpool_576.txt	LTP336	ltpFR2	3	3	MOP	916	n/a	n/a	0	0	0
480565	WORD	wordpools/wasnorm_wordpool_576.txt	LTP336	ltpFR2	3	3	TWEEZERS	1526	n/a	n/a	0	0	0
483231	WORD	wordpools/wasnorm_wordpool_576.txt	LTP336	ltpFR2	3	3	RAZOR	1171	n/a	n/a	0	0	0
485830	WORD	wordpools/wasnorm_wordpool_576.txt	LTP336	ltpFR2	3	3	SCARECROW	1245	n/a	n/a	0	0	0
488644	WORD	wordpools/wasnorm_wordpool_576.txt	LTP336	ltpFR2	3	3	MARKER	870	n/a	n/a	0	0	0
491327	WORD	wordpools/wasnorm_wordpool_576.txt	LTP336	ltpFR2	3	3	TREAT	1501	n/a	n/a	0	0	0
493926	WORD	wordpools/wasnorm_wordpool_576.txt	LTP336	ltpFR2	3	3	TILE	1468	n/a	n/a	0	0	0
496574	WORD	wordpools/wasnorm_wordpool_576.txt	LTP336	ltpFR2	3	3	MISSILE	900	n/a	n/a	0	0	0
499340	WORD	wordpools/wasnorm_wordpool_576.txt	LTP336	ltpFR2	3	3	ROCKET	1202	n/a	n/a	0	0	0
500957	START	n/a	LTP336	ltpFR2	3	n/a	n/a	n/a	4	n/a	n/a	n/a	n/a
502142	DISTRACTOR	n/a	LTP336	ltpFR2	3	3	n/a	n/a	n/a	n/a	0	0	0
502156	PROB	n/a	LTP336	ltpFR2	3	n/a	n/a	n/a	4	15	1	9	5
504255	PROB	n/a	LTP336	ltpFR2	3	n/a	n/a	n/a	4	20	7	7	6
506887	PROB	n/a	LTP336	ltpFR2	3	n/a	n/a	n/a	4	17	7	3	7
508270	PROB	n/a	LTP336	ltpFR2	3	n/a	n/a	n/a	4	13	4	3	6
510086	PROB	n/a	LTP336	ltpFR2	3	n/a	n/a	n/a	4	17	2	6	9
512235	PROB	n/a	LTP336	ltpFR2	3	n/a	n/a	n/a	4	10	5	2	3
514467	PROB	n/a	LTP336	ltpFR2	3	n/a	n/a	n/a	4	18	5	9	4
517199	PROB	n/a	LTP336	ltpFR2	3	n/a	n/a	n/a	4	13	3	1	9
518865	PROB	n/a	LTP336	ltpFR2	3	n/a	n/a	n/a	4	10	6	1	3
520481	PROB	n/a	LTP336	ltpFR2	3	n/a	n/a	n/a	4	21	7	5	9
524956	STOP	n/a	LTP336	ltpFR2	3	n/a	n/a	n/a	4	n/a	n/a	n/a	n/a
526728	REC_START	n/a	LTP336	ltpFR2	3	3	n/a	n/a	n/a	n/a	0	0	0
527418	REC_WORD_VV	wordpools/wasnorm_wordpool_576.txt	LTP336	ltpFR2	3	3	<>	-1	n/a	n/a	0	0	0
527847	REC_WORD	wordpools/wasnorm_wordpool_576.txt	LTP336	ltpFR2	3	3	PEACH	1031	n/a	n/a	0	0	0
528773	REC_WORD	wordpools/wasnorm_wordpool_576.txt	LTP336	ltpFR2	3	3	FARMER	553	n/a	n/a	0	0	0
529820	REC_WORD	wordpools/wasnorm_wordpool_576.txt	LTP336	ltpFR2	3	3	PUPPY	1144	n/a	n/a	0	0	0
531361	REC_WORD	wordpools/wasnorm_wordpool_576.txt	LTP336	ltpFR2	3	3	ROOSTER	1209	n/a	n/a	0	0	0
532321	REC_WORD	wordpools/wasnorm_wordpool_576.txt	LTP336	ltpFR2	3	3	SCARECROW	1245	n/a	n/a	0	0	0
534068	REC_WORD	wordpools/wasnorm_wordpool_576.txt	LTP336	ltpFR2	3	3	LEG	809	n/a	n/a	0	0	0
534889	REC_WORD	wordpools/wasnorm_wordpool_576.txt	LTP336	ltpFR2	3	3	ARM	38	n/a	n/a	0	0	0
535978	REC_WORD	wordpools/wasnorm_wordpool_576.txt	LTP336	ltpFR2	3	3	SHOVEL	1295	n/a	n/a	0	0	0
537168	REC_WORD	wordpools/wasnorm_wordpool_576.txt	LTP336	ltpFR2	3	3	BUTCHER	203	n/a	n/a	0	0	0
538703	REC_WORD	wordpools/wasnorm_wordpool_576.txt	LTP336	ltpFR2	3	3	BURGLAR	200	n/a	n/a	0	0	0
540034	REC_WORD	wordpools/wasnorm_wordpool_576.txt	LTP336	ltpFR2	3	3	ROBBER	1197	n/a	n/a	0	0	0
541424	REC_WORD	wordpools/wasnorm_wordpool_576.txt	LTP336	ltpFR2	3	3	MISSILE	900	n/a	n/a	0	0	0
543215	REC_WORD	wordpools/wasnorm_wordpool_576.txt	LTP336	ltpFR2	3	3	ROCKET	1202	n/a	n/a	0	0	0
547587	REC_WORD	wordpools/wasnorm_wordpool_576.txt	LTP336	ltpFR2	3	3	CHEST	295	n/a	n/a	0	0	0
548653	REC_WORD	wordpools/wasnorm_wordpool_576.txt	LTP336	ltpFR2	3	3	RUST	1219	n/a	n/a	0	0	0
550378	REC_WORD	wordpools/wasnorm_wordpool_576.txt	LTP336	ltpFR2	3	3	DIVER	476	n/a	n/a	0	0	0
557268	REC_WORD	wordpools/wasnorm_wordpool_576.txt	LTP336	ltpFR2	3	3	CEILING	265	n/a	n/a	0	0	0
617170	DISTRACTOR	n/a	LTP336	ltpFR2	3	4	n/a	n/a	n/a	n/a	0	0	0
617171	START	n/a	LTP336	ltpFR2	3	n/a	n/a	n/a	5	n/a	n/a	n/a	n/a
617187	PROB	n/a	LTP336	ltpFR2	3	n/a	n/a	n/a	5	16	1	9	6
618986	PROB	n/a	LTP336	ltpFR2	3	n/a	n/a	n/a	5	13	8	4	1
621219	PROB	n/a	LTP336	ltpFR2	3	n/a	n/a	n/a	5	11	1	5	5
622451	PROB	n/a	LTP336	ltpFR2	3	n/a	n/a	n/a	5	10	1	1	8
623700	PROB	n/a	LTP336	ltpFR2	3	n/a	n/a	n/a	5	18	9	1	8
625732	PROB	n/a	LTP336	ltpFR2	3	n/a	n/a	n/a	5	22	5	8	9
627932	PROB	n/a	LTP336	ltpFR2	3	n/a	n/a	n/a	5	14	4	5	5
629248	PROB	n/a	LTP336	ltpFR2	3	n/a	n/a	n/a	5	21	7	8	6
632147	PROB	n/a	LTP336	ltpFR2	3	n/a	n/a	n/a	5	23	7	8	4
634313	PROB	n/a	LTP336	ltpFR2	3	n/a	n/a	n/a	5	12	2	2	8
635761	PROB	n/a	LTP336	ltpFR2	3	n/a	n/a	n/a	5	15	4	4	7
638527	PROB	n/a	LTP336	ltpFR2	3	n/a	n/a	n/a	5	19	3	7	9
639820	STOP	n/a	LTP336	ltpFR2	3	n/a	n/a	n/a	5	n/a	n/a	n/a	n/a
642292	WORD	wordpools/wasnorm_wordpool_576.txt	LTP336	ltpFR2	3	4	OX	994	n/a	n/a	0	0	0
644807	WORD	wordpools/wasnorm_wordpool_576.txt	LTP336	ltpFR2	3	4	FOX	598	n/a	n/a	0	0	0
647240	WORD	wordpools/wasnorm_wordpool_576.txt	LTP336	ltpFR2	3	4	DRAGON	492	n/a	n/a	0	0	0
649856	WORD	wordpools/wasnorm_wordpool_576.txt	LTP336	ltpFR2	3	4	GAVEL	627	n/a	n/a	0	0	0
652388	WORD	wordpools/wasnorm_wordpool_576.txt	LTP336	ltpFR2	3	4	GROUND	666	n/a	n/a	0	0	0
654937	WORD	wordpools/wasnorm_wordpool_576.txt	LTP336	ltpFR2	3	4	EMPIRE	530	n/a	n/a	0	0	0
657585	WORD	wordpools/wasnorm_wordpool_576.txt	LTP336	ltpFR2	3	4	GYMNAST	675	n/a	n/a	0	0	0
660118	WORD	wordpools/wasnorm_wordpool_576.txt	LTP336	ltpFR2	3	4	LIGHTNING	820	n/a	n/a	0	0	0
662649	WORD	wordpools/wasnorm_wordpool_576.txt	LTP336	ltpFR2	3	4	MAPLE	866	n/a	n/a	0	0	0
665165	WORD	wordpools/wasnorm_wordpool_576.txt	LTP336	ltpFR2	3	4	CLAM	315	n/a	n/a	0	0	0
667831	WORD	wordpools/wasnorm_wordpool_576.txt	LTP336	ltpFR2	3	4	TUBA	1515	n/a	n/a	0	0	0
670480	WORD	wordpools/wasnorm_wordpool_576.txt	LTP336	ltpFR2	3	4	PASSAGE	1019	n/a	n/a	0	0	0
673128	WORD	wordpools/wasnorm_wordpool_576.txt	LTP336	ltpFR2	3	4	STALLION	1369	n/a	n/a	0	0	0
675776	WORD	wordpools/wasnorm_wordpool_576.txt	LTP336	ltpFR2	3	4	SHRUB	1299	n/a	n/a	0	0	0
678326	WORD	wordpools/wasnorm_wordpool_576.txt	LTP336	ltpFR2	3	4	FUNGUS	614	n/a	n/a	0	0	0
680842	WORD	wordpools/wasnorm_wordpool_576.txt	LTP336	ltpFR2	3	4	BINDER	127	n/a	n/a	0	0	0
683440	WORD	wordpools/wasnorm_wordpool_576.txt	LTP336	ltpFR2	3	4	BATHTUB	100	n/a	n/a	0	0	0
686173	WORD	wordpools/wasnorm_wordpool_576.txt	LTP336	ltpFR2	3	4	SPONGE	1355	n/a	n/a	0	0	0
688637	WORD	wordpools/wasnorm_wordpool_576.txt	LTP336	ltpFR2	3	4	HOUND	724	n/a	n/a	0	0	0
691404	WORD	wordpools/wasnorm_wordpool_576.txt	LTP336	ltpFR2	3	4	BISON	131	n/a	n/a	0	0	0
694119	WORD	wordpools/wasnorm_wordpool_576.txt	LTP336	ltpFR2	3	4	RECORD	1176	n/a	n/a	0	0	0
696700	WORD	wordpools/wasnorm_wordpool_576.txt	LTP336	ltpFR2	3	4	WAITER	1580	n/a	n/a	0	0	0
699300	WORD	wordpools/wasnorm_wordpool_576.txt	LTP336	ltpFR2	3	4	SERVANT	1271	n/a	n/a	0	0	0
701965	WORD	wordpools/wasnorm_wordpool_576.txt	LTP336	ltpFR2	3	4	SPOUSE	1358	n/a	n/a	0	0	0
703580	START	n/a	LTP336	ltpFR2	3	n/a	n/a	n/a	6	n/a	n/a	n/a	n/a
704468	DISTRACTOR	n/a	LTP336	ltpFR2	3	4	n/a	n/a	n/a	n/a	0	0	0
704481	PROB	n/a	LTP336	ltpFR2	3	n/a	n/a	n/a	6	14	6	4	4
706729	PROB	n/a	LTP336	ltpFR2	3	n/a	n/a	n/a	6	12	6	2	4
708446	PROB	n/a	LTP336	ltpFR2	3	n/a	n/a	n/a	6	22	4	9	9
710362	PROB	n/a	LTP336	ltpFR2	3	n/a	n/a	n/a	6	4	1	2	1
711994	PROB	n/a	LTP336	ltpFR2	3	n/a	n/a	n/a	6	22	7	7	8
715076	PROB	n/a	LTP336	ltpFR2	3	n/a	n/a	n/a	6	10	4	2	4
718058	PROB	n/a	LTP336	ltpFR2	3	n/a	n/a	n/a	6	23	9	8	7
721123	PROB	n/a	LTP336	ltpFR2	3	n/a	n/a	n/a	6	15	2	4	9
723422	PROB	n/a	LTP336	ltpFR2	3	n/a	n/a	n/a	6	13	1	9	3
724922	PROB	n/a	LTP336	ltpFR2	3	n/a	n/a	n/a	6	14	7	5	2
726551	STOP	n/a	LTP336	ltpFR2	3	n/a	n/a	n/a	6	n/a	n/a	n/a	n/a
729454	REC_START	n/a	LTP336	ltpFR2	3	4	n/a	n/a	n/a	n/a	0	0	0
729896	REC_WORD	wordpools/wasnorm_wordpool_576.txt	LTP336	ltpFR2	3	4	FOX	598	n/a	n/a	0	0	0
730870	REC_WORD_VV	wordpools/wasnorm_wordpool_576.txt	LTP336	ltpFR2	3	4	<>	-1	n/a	n/a	0	0	0
731332	REC_WORD	wordpools/wasnorm_wordpool_576.txt	LTP336	ltpFR2	3	4	FOX	598	n/a	n/a	0	0	0
732436	REC_WORD	wordpools/wasnorm_wordpool_576.txt	LTP336	ltpFR2	3	4	GAVEL	627	n/a	n/a	0	0	0
733630	REC_WORD	wordpools/wasnorm_wordpool_576.txt	LTP336	ltpFR2	3	4	GROUND	666	n/a	n/a	0	0	0
735072	REC_WORD	wordpools/wasnorm_wordpool_576.txt	LTP336	ltpFR2	3	4	FUNGUS	614	n/a	n/a	0	0	0
736462	REC_WORD	wordpools/wasnorm_wordpool_576.txt	LTP336	ltpFR2	3	4	WAITER	1580	n/a	n/a	0	0	0
737692	REC_WORD	wordpools/wasnorm_wordpool_576.txt	LTP336	ltpFR2	3	4	SERVANT	1271	n/a	n/a	0	0	0
751458	REC_WORD	wordpools/wasnorm_wordpool_576.txt	LTP336	ltpFR2	3	4	CLAM	315	n/a	n/a	0	0	0
753854	REC_WORD	wordpools/wasnorm_wordpool_576.txt	LTP336	ltpFR2	3	4	ROOSTER	1209	n/a	n/a	0	0	0
758072	REC_WORD_VV	wordpools/wasnorm_wordpool_576.txt	LTP336	ltpFR2	3	4	<>	-1	n/a	n/a	0	0	0
819912	WORD	wordpools/wasnorm_wordpool_576.txt	LTP336	ltpFR2	3	5	INFANT	737	n/a	n/a	0	0	0
822710	WORD	wordpools/wasnorm_wordpool_576.txt	LTP336	ltpFR2	3	5	PLAYGROUND	1087	n/a	n/a	0	0	0
825160	WORD	wordpools/wasnorm_wordpool_576.txt	LTP336	ltpFR2	3	5	FRAGRANCE	599	n/a	n/a	0	0	0
827608	WORD	wordpools/wasnorm_wordpool_576.txt	LTP336	ltpFR2	3	5	ROBOT	1200	n/a	n/a	0	0	0
830291	WORD	wordpools/wasnorm_wordpool_576.txt	LTP336	ltpFR2	3	5	STAKE	1368	n/a	n/a	0	0	0
832989	WORD	wordpools/wasnorm_wordpool_576.txt	LTP336	ltpFR2	3	5	ICEBERG	731	n/a	n/a	0	0	0
835737	WORD	wordpools/wasnorm_wordpool_576.txt	LTP336	ltpFR2	3	5	ZEBRA	1635	n/a	n/a	0	0	0
838287	WORD	wordpools/wasnorm_wordpool_576.txt	LTP336	ltpFR2	3	5	MACHINE	852	n/a	n/a	0	0	0
841036	WORD	wordpools/wasnorm_wordpool_576.txt	LTP336	ltpFR2	3	5	MEAT	883	n/a	n/a	0	0	0
843650	WORD	wordpools/wasnorm_wordpool_576.txt	LTP336	ltpFR2	3	5	SIBLING	1301	n/a	n/a	0	0	0
846417	WORD	wordpools/wasnorm_wordpool_576.txt	LTP336	ltpFR2	3	5	SHIRT	1287	n/a	n/a	0	0	0
848916	WORD	wordpools/wasnorm_wordpool_576.txt	LTP336	ltpFR2	3	5	CLOTHES	327	n/a	n/a	0	0	0
851630	WORD	wordpools/wasnorm_wordpool_576.txt	LTP336	ltpFR2	3	5	LONDON	843	n/a	n/a	0	0	0
854297	WORD	wordpools/wasnorm_wordpool_576.txt	LTP336	ltpFR2	3	5	JUDGE	761	n/a	n/a	0	0	0
857062	WORD	wordpools/wasnorm_wordpool_576.txt	LTP336	ltpFR2	3	5	CHILD	299	n/a	n/a	0	0	0
859676	WORD	wordpools/wasnorm_wordpool_576.txt	LTP336	ltpFR2	3	5	GLOVE	642	n/a	n/a	0	0	0
862176	WORD	wordpools/wasnorm_wordpool_576.txt	LTP336	ltpFR2	3	5	SCRIBBLE	1256	n/a	n/a	0	0	0
864624	WORD	wordpools/wasnorm_wordpool_576.txt	LTP336	ltpFR2	3	5	WAGON	1578	n/a	n/a	0	0	0
867441	WORD	wordpools/wasnorm_wordpool_576.txt	LTP336	ltpFR2	3	5	SPHINX	1349	n/a	n/a	0	0	0
869889	WORD	wordpools/wasnorm_wordpool_576.txt	LTP336	ltpFR2	3	5	CHAMPAGNE	278	n/a	n/a	0	0	0
872571	WORD	wordpools/wasnorm_wordpool_576.txt	LTP336	ltpFR2	3	5	PIMPLE	1071	n/a	n/a	0	0	0
875070	WORD	wordpools/wasnorm_wordpool_576.txt	LTP336	ltpFR2	3	5	FRECKLE	602	n/a	n/a	0	0	0
877768	WORD	wordpools/wasnorm_wordpool_576.txt	LTP336	ltpFR2	3	5	PAPER	1011	n/a	n/a	0	0	0
880251	WORD	wordpools/wasnorm_wordpool_576.txt	LTP336	ltpFR2	3	5	STAPLE	1371	n/a	n/a	0	0	0
881868	START	n/a	LTP336	ltpFR2	3	n/a	n/a	n/a	7	n/a	n/a	n/a	n/a
883064	DISTRACTOR	n/a	LTP336	ltpFR2	3	5	n/a	n/a	n/a	n/a	0	0	0
883067	PROB	n/a	LTP336	ltpFR2	3	n/a	n/a	n/a	7	6	3	1	2
885731	PROB	n/a	LTP336	ltpFR2	3	n/a	n/a	n/a	7	16	7	8	1
888331	PROB	n/a	LTP336	ltpFR2	3	n/a	n/a	n/a	7	13	2	5	6
890547	PROB	n/a	LTP336	ltpFR2	3	n/a	n/a	n/a	7	15	6	2	7
892896	PROB	n/a	LTP336	ltpFR2	3	n/a	n/a	n/a	7	17	1	9	7
894462	PROB	n/a	LTP336	ltpFR2	3	n/a	n/a	n/a	7	19	7	3	9
896094	PROB	n/a	LTP336	ltpFR2	3	n/a	n/a	n/a	7	16	7	1	8
899276	PROB	n/a	LTP336	ltpFR2	3	n/a	n/a	n/a	7	15	8	1	6
901542	PROB	n/a	LTP336	ltpFR2	3	n/a	n/a	n/a	7	14	2	7	5
905868	STOP	n/a	LTP336	ltpFR2	3	n/a	n/a	n/a	7	n/a	n/a	n/a	n/a
907739	REC_START	n/a	LTP336	ltpFR2	3	5	n/a	n/a	n/a	n/a	0	0	0
909039	REC_WORD	wordpools/wasnorm_wordpool_576.txt	LTP336	ltpFR2	3	5	INFANT	737	n/a	n/a	0	0	0
910044	REC_WORD	wordpools/wasnorm_wordpool_576.txt	LTP336	ltpFR2	3	5	BABY	64	n/a	n/a	0	0	0
912112	REC_WORD	wordpools/wasnorm_wordpool_576.txt	LTP336	ltpFR2	3	5	INFANT	737	n/a	n/a	0	0	0
912707	REC_WORD	wordpools/wasnorm_wordpool_576.txt	LTP336	ltpFR2	3	5	CHILD	299	n/a	n/a	0	0	0
915137	REC_WORD	wordpools/wasnorm_wordpool_576.txt	LTP336	ltpFR2	3	5	ROBOT	1200	n/a	n/a	0	0	0
916273	REC_WORD	wordpools/wasnorm_wordpool_576.txt	LTP336	ltpFR2	3	5	MACHINE	852	n/a	n/a	0	0	0
917624	REC_WORD	wordpools/wasnorm_wordpool_576.txt	LTP336	ltpFR2	3	5	MEAT	883	n/a	n/a	0	0	0
918544	REC_WORD	wordpools/wasnorm_wordpool_576.txt	LTP336	ltpFR2	3	5	SIBLING	1301	n/a	n/a	0	0	0
919972	REC_WORD	wordpools/wasnorm_wordpool_576.txt	LTP336	ltpFR2	3	5	PLAYGROUND	1087	n/a	n/a	0	0	0
921364	REC_WORD	wordpools/wasnorm_wordpool_576.txt	LTP336	ltpFR2	3	5	SCRIBBLE	1256	n/a	n/a	0	0	0
923021	REC_WORD	wordpools/wasnorm_wordpool_576.txt	LTP336	ltpFR2	3	5	WAGON	1578	n/a	n/a	0	0	0
924207	REC_WORD	wordpools/wasnorm_wordpool_576.txt	LTP336	ltpFR2	3	5	STAKE	1368	n/a	n/a	0	0	0
925525	REC_WORD	wordpools/wasnorm_wordpool_576.txt	LTP336	ltpFR2	3	5	FRAGRANCE	599	n/a	n/a	0	0	0
927079	REC_WORD	wordpools/wasnorm_wordpool_576.txt	LTP336	ltpFR2	3	5	LONDON	843	n/a	n/a	0	0	0
930107	REC_WORD	wordpools/wasnorm_wordpool_576.txt	LTP336	ltpFR2	3	5	ICEBERG	731	n/a	n/a	0	0	0
934941	REC_WORD	wordpools/wasnorm_wordpool_576.txt	LTP336	ltpFR2	3	5	FRECKLE	602	n/a	n/a	0	0	0
936050	REC_WORD	wordpools/wasnorm_wordpool_576.txt	LTP336	ltpFR2	3	5	PIMPLE	1071	n/a	n/a	0	0	0
943662	REC_WORD	wordpools/wasnorm_wordpool_576.txt	LTP336	ltpFR2	3	5	STAKE	1368	n/a	n/a	0	0	0
998181	DISTRACTOR	n/a	LTP336	ltpFR2	3	6	n/a	n/a	n/a	n/a	0	0	0
998182	START	n/a	LTP336	ltpFR2	3	n/a	n/a	n/a	8	n/a	n/a	n/a	n/a
998198	PROB	n/a	LTP336	ltpFR2	3	n/a	n/a	n/a	8	10	1	1	8
999964	PROB	n/a	LTP336	ltpFR2	3	n/a	n/a	n/a	8	12	4	6	2
1001447	PROB	n/a	LTP336	ltpFR2	3	n/a	n/a	n/a	8	19	9	1	9
1003096	PROB	n/a	LTP336	ltpFR2	3	n/a	n/a	n/a	8	12	9	1	2
1004429	PROB	n/a	LTP336	ltpFR2	3	n/a	n/a	n/a	8	17	7	1	9
1006078	PROB	n/a	LTP336	ltpFR2	3	n/a	n/a	n/a	8	10	4	1	5
1007609	PROB	n/a	LTP336	ltpFR2	3	n/a	n/a	n/a	8	12	6	3	3
1009193	PROB	n/a	LTP336	ltpFR2	3	n/a	n/a	n/a	8	15	5	6	4
1011574	PROB	n/a	LTP336	ltpFR2	3	n/a	n/a	n/a	8	24	8	8	8
1013974	PROB	n/a	LTP336	ltpFR2	3	n/a	n/a	n/a	8	19	3	8	8
1017823	PROB	n/a	LTP336	ltpFR2	3	n/a	n/a	n/a	8	19	6	4	9
1019372	PROB	n/a	LTP336	ltpFR2	3	n/a	n/a	n/a	8	18	8	9	2
1021424	STOP	n/a	LTP336	ltpFR2	3	n/a	n/a	n/a	8	n/a	n/a	n/a	n/a
1023103	WORD	wordpools/wasnorm_wordpool_576.txt	LTP336	ltpFR2	3	6	THIEF	1456	n/a	n/a	0	0	0
1025801	WORD	wordpools/wasnorm_wordpool_576.txt	LTP336	ltpFR2	3	6	OUTLAW	989	n/a	n/a	0	0	0
1028518	WORD	wordpools/wasnorm_wordpool_576.txt	LTP336	ltpFR2	3	6	TABLE	1426	n/a	n/a	0	0	0
1030967	WORD	wordpools/wasnorm_wordpool_576.txt	LTP336	ltpFR2	3	6	BROOK	177	n/a	n/a	0	0	0
1033432	WORD	wordpools/wasnorm_wordpool_576.txt	LTP336	ltpFR2	3	6	RATTLE	1170	n/a	n/a	0	0	0
1035948	WORD	wordpools/wasnorm_wordpool_576.txt	LTP336	ltpFR2	3	6	MARS	873	n/a	n/a	0	0	0
1038679	WORD	wordpools/wasnorm_wordpool_576.txt	LTP336	ltpFR2	3	6	SALAD	1224	n/a	n/a	0	0	0
1041395	WORD	wordpools/wasnorm_wordpool_576.txt	LTP336	ltpFR2	3	6	TURNIP	1521	n/a	n/a	0	0	0
1043994	WORD	wordpools/wasnorm_wordpool_576.txt	LTP336	ltpFR2	3	6	RUG	1215	n/a	n/a	0	0	0
1046675	WORD	wordpools/wasnorm_wordpool_576.txt	LTP336	ltpFR2	3	6	FEMALE	559	n/a	n/a	0	0	0
1049292	WORD	wordpools/wasnorm_wordpool_576.txt	LTP336	ltpFR2	3	6	TEACHER	1440	n/a	n/a	0	0	0
1051990	WORD	wordpools/wasnorm_wordpool_576.txt	LTP336	ltpFR2	3	6	XEROX	1628	n/a	n/a	0	0	0
1054755	WORD	wordpools/wasnorm_wordpool_576.txt	LTP336	ltpFR2	3	6	ZIPPER	1636	n/a	n/a	0	0	0
1057371	WORD	wordpools/wasnorm_wordpool_576.txt	LTP336	ltpFR2	3	6	QUEEN	1149	n/a	n/a	0	0	0
1060037	WORD	wordpools/wasnorm_wordpool_576.txt	LTP336	ltpFR2	3	6	VIKING	1565	n/a	n/a	0	0	0
1062819	WORD	wordpools/wasnorm_wordpool_576.txt	LTP336	ltpFR2	3	6	BACON	67	n/a	n/a	0	0	0
1065284	WORD	wordpools/wasnorm_wordpool_576.txt	LTP336	ltpFR2	3	6	MAILMAN	858	n/a	n/a	0	0	0
1068100	WORD	wordpools/wasnorm_wordpool_576.txt	LTP336	ltpFR2	3	6	SMOG	1330	n/a	n/a	0	0	0
1070564	WORD	wordpools/wasnorm_wordpool_576.txt	LTP336	ltpFR2	3	6	TEMPLE	1448	n/a	n/a	0	0	0
1073381	WORD	wordpools/wasnorm_wordpool_576.txt	LTP336	ltpFR2	3	6	HEDGE	699	n/a	n/a	0	0	0
1076080	WORD	wordpools/wasnorm_wordpool_576.txt	LTP336	ltpFR2	3	6	PLUTO	1092	n/a	n/a	0	0	0
1078895	WORD	wordpools/wasnorm_wordpool_576.txt	LTP336	ltpFR2	3	6	COTTAGE	384	n/a	n/a	0	0	0
1081410	WORD	wordpools/wasnorm_wordpool_576.txt	LTP336	ltpFR2	3	6	BLOUSE	139	n/a	n/a	0	0	0
1083843	WORD	wordpools/wasnorm_wordpool_576.txt	LTP336	ltpFR2	3	6	EXPERT	543	n/a	n/a	0	0	0
1085459	START	n/a	LTP336	ltpFR2	3	n/a	n/a	n/a	9	n/a	n/a	n/a	n/a
1086476	DISTRACTOR	n/a	LTP336	ltpFR2	3	6	n/a	n/a	n/a	n/a	0	0	0
1086491	PROB	n/a	LTP336	ltpFR2	3	n/a	n/a	n/a	9	21	5	8	8
1089140	PROB	n/a	LTP336	ltpFR2	3	n/a	n/a	n/a	9	14	7	4	3
1091089	PROB	n/a	LTP336	ltpFR2	3	n/a	n/a	n/a	9	17	7	6	4
1092754	PROB	n/a	LTP336	ltpFR2	3	n/a	n/a	n/a	9	15	4	9	2
1094471	PROB	n/a	LTP336	ltpFR2	3	n/a	n/a	n/a	9	17	6	4	7
1095937	PROB	n/a	LTP336	ltpFR2	3	n/a	n/a	n/a	9	8	1	6	1
1097337	PROB	n/a	LTP336	ltpFR2	3	n/a	n/a	n/a	9	12	2	4	6
1099502	PROB	n/a	LTP336	ltpFR2	3	n/a	n/a	n/a	9	18	6	4	8
1102334	PROB	n/a	LTP336	ltpFR2	3	n/a	n/a	n/a	9	13	1	6	6
1103917	PROB	n/a	LTP336	ltpFR2	3	n/a	n/a	n/a	9	12	2	1	9
1105416	PROB	n/a	LTP336	ltpFR2	3	n/a	n/a	n/a	9	13	9	2	2
1109459	STOP	n/a	LTP336	ltpFR2	3	n/a	n/a	n/a	9	n/a	n/a	n/a	n/a
1111297	REC_START	n/a	LTP336	ltpFR2	3	6	n/a	n/a	n/a	n/a	0	0	0
1111834	REC_WORD	wordpools/wasnorm_wordpool_576.txt	LTP336	ltpFR2	3	6	TEMPLE	1448	n/a	n/a	0	0	0
1112930	REC_WORD	wordpools/wasnorm_wordpool_576.txt	LTP336	ltpFR2	3	6	COTTAGE	384	n/a	n/a	0	0	0
1114117	REC_WORD	wordpools/wasnorm_wordpool_576.txt	LTP336	ltpFR2	3	6	BLOUSE	139	n/a	n/a	0	0	0
1115424	REC_WORD	wordpools/wasnorm_wordpool_576.txt	LTP336	ltpFR2	3	6	EXPERT	543	n/a	n/a	0	0	0
1118072	REC_WORD	wordpools/wasnorm_wordpool_576.txt	LTP336	ltpFR2	3	6	FEMALE	559	n/a	n/a	0	0	0
1119412	REC_WORD	wordpools/wasnorm_wordpool_576.txt	LTP336	ltpFR2	3	6	VIKING	1565	n/a	n/a	0	0	0
1120660	REC_WORD	wordpools/wasnorm_wordpool_576.txt	LTP336	ltpFR2	3	6	QUEEN	1149	n/a	n/a	0	0	0
1121950	REC_WORD	wordpools/wasnorm_wordpool_576.txt	LTP336	ltpFR2	3	6	TEACHER	1440	n/a	n/a	0	0	0
1125507	REC_WORD	wordpools/wasnorm_wordpool_576.txt	LTP336	ltpFR2	3	6	TABLE	1426	n/a	n/a	0	0	0
1127188	REC_WORD	wordpools/wasnorm_wordpool_576.txt	LTP336	ltpFR2	3	6	THIEF	1456	n/a	n/a	0	0	0
1128434	REC_WORD	wordpools/wasnorm_wordpool_576.txt	LTP336	ltpFR2	3	6	OUTLAW	989	n/a	n/a	0	0	0
1134330	REC_WORD	wordpools/wasnorm_wordpool_576.txt	LTP336	ltpFR2	3	6	XEROX	1628	n/a	n/a	0	0	0
1201755	WORD	wordpools/wasnorm_wordpool_576.txt	LTP336	ltpFR2	3	7	PIANO	1057	n/a	n/a	0	0	0
1204305	WORD	wordpools/wasnorm_wordpool_576.txt	LTP336	ltpFR2	3	7	COUCH	386	n/a	n/a	0	0	0
1207087	WORD	wordpools/wasnorm_wordpool_576.txt	LTP336	ltpFR2	3	7	YACHT	1629	n/a	n/a	0	0	0
1209869	WORD	wordpools/wasnorm_wordpool_576.txt	LTP336	ltpFR2	3	7	SCARF	1246	n/a	n/a	0	0	0
1212484	WORD	wordpools/wasnorm_wordpool_576.txt	LTP336	ltpFR2	3	7	PERMIT	1051	n/a	n/a	0	0	0
1215067	WORD	wordpools/wasnorm_wordpool_576.txt	LTP336	ltpFR2	3	7	BUNNY	198	n/a	n/a	0	0	0
1217549	WORD	wordpools/wasnorm_wordpool_576.txt	LTP336	ltpFR2	3	7	LION	827	n/a	n/a	0	0	0
1220331	WORD	wordpools/wasnorm_wordpool_576.txt	LTP336	ltpFR2	3	7	SEAL	1262	n/a	n/a	0	0	0
1223096	WORD	wordpools/wasnorm_wordpool_576.txt	LTP336	ltpFR2	3	7	PACKAGE	997	n/a	n/a	0	0	0
1225644	WORD	wordpools/wasnorm_wordpool_576.txt	LTP336	ltpFR2	3	7	SADDLE	1221	n/a	n/a	0	0	0
1228294	WORD	wordpools/wasnorm_wordpool_576.txt	LTP336	ltpFR2	3	7	DRESSER	496	n/a	n/a	0	0	0
1231043	WORD	wordpools/wasnorm_wordpool_576.txt	LTP336	ltpFR2	3	7	WASHER	1592	n/a	n/a	0	0	0
1233674	WORD	wordpools/wasnorm_wordpool_576.txt	LTP336	ltpFR2	3	7	MARSH	874	n/a	n/a	0	0	0
1236474	WORD	wordpools/wasnorm_wordpool_576.txt	LTP336	ltpFR2	3	7	BEAST	108	n/a	n/a	0	0	0
1239106	WORD	wordpools/wasnorm_wordpool_576.txt	LTP336	ltpFR2	3	7	FOREHEAD	592	n/a	n/a	0	0	0
1241888	WORD	wordpools/wasnorm_wordpool_576.txt	LTP336	ltpFR2	3	7	RIFLE	1192	n/a	n/a	0	0	0
1244437	WORD	wordpools/wasnorm_wordpool_576.txt	LTP336	ltpFR2	3	7	DANCER	437	n/a	n/a	0	0	0
1247119	WORD	wordpools/wasnorm_wordpool_576.txt	LTP336	ltpFR2	3	7	ACTRESS	6	n/a	n/a	0	0	0
1249934	WORD	wordpools/wasnorm_wordpool_576.txt	LTP336	ltpFR2	3	7	OFFICE	972	n/a	n/a	0	0	0
1252682	WORD	wordpools/wasnorm_wordpool_576.txt	LTP336	ltpFR2	3	7	TYPIST	1532	n/a	n/a	0	0	0
1255348	WORD	wordpools/wasnorm_wordpool_576.txt	LTP336	ltpFR2	3	7	WASP	1593	n/a	n/a	0	0	0
1258147	WORD	wordpools/wasnorm_wordpool_576.txt	LTP336	ltpFR2	3	7	SWAMP	1416	n/a	n/a	0	0	0
1260628	WORD	wordpools/wasnorm_wordpool_576.txt	LTP336	ltpFR2	3	7	STUDENT	1395	n/a	n/a	0	0	0
1263328	WORD	wordpools/wasnorm_wordpool_576.txt	LTP336	ltpFR2	3	7	COOK	372	n/a	n/a	0	0	0
1264944	START	n/a	LTP336	ltpFR2	3	n/a	n/a	n/a	10	n/a	n/a	n/a	n/a
1266116	DISTRACTOR	n/a	LTP336	ltpFR2	3	7	n/a	n/a	n/a	n/a	0	0	0
1266127	PROB	n/a	LTP336	ltpFR2	3	n/a	n/a	n/a	10	13	1	7	5
1268725	PROB	n/a	LTP336	ltpFR2	3	n/a	n/a	n/a	10	21	9	3	9
1270707	PROB	n/a	LTP336	ltpFR2	3	n/a	n/a	n/a	10	18	9	1	8
1272191	PROB	n/a	LTP336	ltpFR2	3	n/a	n/a	n/a	10	20	9	5	6
1276039	PROB	n/a	LTP336	ltpFR2	3	n/a	n/a	n/a	10	14	8	1	3
1278155	PROB	n/a	LTP336	ltpFR2	3	n/a	n/a	n/a	10	13	4	4	5
1280104	PROB	n/a	LTP336	ltpFR2	3	n/a	n/a	n/a	10	11	9	1	1
1281619	PROB	n/a	LTP336	ltpFR2	3	n/a	n/a	n/a	10	16	4	3	9
1283785	PROB	n/a	LTP336	ltpFR2	3	n/a	n/a	n/a	10	16	4	9	3
1286251	PROB	n/a	LTP336	ltpFR2	3	n/a	n/a	n/a	10	7	5	1	1
1287735	STOP	n/a	LTP336	ltpFR2	3	n/a	n/a	n/a	10	n/a	n/a	n/a	n/a
1290732	REC_START	n/a	LTP336	ltpFR2	3	7	n/a	n/a	n/a	n/a	0	0	0
1291652	REC_WORD	wordpools/wasnorm_wordpool_576.txt	LTP336	ltpFR2	3	7	DANCER	437	n/a	n/a	0	0	0
1292732	REC_WORD	wordpools/wasnorm_wordpool_576.txt	LTP336	ltpFR2	3	7	ACTRESS	6	n/a	n/a	0	0	0
1294023	REC_WORD	wordpools/wasnorm_wordpool_576.txt	LTP336	ltpFR2	3	7	COOK	372	n/a	n/a	0	0	0
1295642	REC_WORD	wordpools/wasnorm_wordpool_576.txt	LTP336	ltpFR2	3	7	FOREHEAD	592	n/a	n/a	0	0	0
1297172	REC_WORD	wordpools/wasnorm_wordpool_576.txt	LTP336	ltpFR2	3	7	YACHT	1629	n/a	n/a	0	0	0
1298486	REC_WORD	wordpools/wasnorm_wordpool_576.txt	LTP336	ltpFR2	3	7	PERMIT	1051	n/a	n/a	0	0	0
1299716	REC_WORD	wordpools/wasnorm_wordpool_576.txt	LTP336	ltpFR2	3	7	COUCH	386	n/a	n/a	0	0	0
1301024	REC_WORD	wordpools/wasnorm_wordpool_576.txt	LTP336	ltpFR2	3	7	BUNNY	198	n/a	n/a	0	0	0
1302709	REC_WORD	wordpools/wasnorm_wordpool_576.txt	LTP336	ltpFR2	3	7	LION	827	n/a	n/a	0	0	0
1304131	REC_WORD	wordpools/wasnorm_wordpool_576.txt	LTP336	ltpFR2	3	7	SADDLE	1221	n/a	n/a	0	0	0
1305736	REC_WORD	wordpools/wasnorm_wordpool_576.txt	LTP336	ltpFR2	3	7	SEAL	1262	n/a	n/a	0	0	0
1307061	REC_WORD	wordpools/wasnorm_wordpool_576.txt	LTP336	ltpFR2	3	7	SCARF	1246	n/a	n/a	0	0	0
1381191	WORD	wordpools/wasnorm_wordpool_576.txt	LTP336	ltpFR2	3	8	POSSUM	1112	n/a	n/a	0	0	0
1383907	WORD	wordpools/wasnorm_wordpool_576.txt	LTP336	ltpFR2	3	8	POWDER	1117	n/a	n/a	0	0	0
1386721	WORD	wordpools/wasnorm_wordpool_576.txt	LTP336	ltpFR2	3	8	GRAPE	654	n/a	n/a	0	0	0
1389488	WORD	wordpools/wasnorm_wordpool_576.txt	LTP336	ltpFR2	3	8	SEAGULL	1261	n/a	n/a	0	0	0
1392303	WORD	wordpools/wasnorm_wordpool_576.txt	LTP336	ltpFR2	3	8	JURY	766	n/a	n/a	0	0	0
1395069	WORD	wordpools/wasnorm_wordpool_576.txt	LTP336	ltpFR2	3	8	LAMP	798	n/a	n/a	0	0	0
1397766	WORD	wordpools/wasnorm_wordpool_576.txt	LTP336	ltpFR2	3	8	SWITCH	1422	n/a	n/a	0	0	0
1400416	WORD	wordpools/wasnorm_wordpool_576.txt	LTP336	ltpFR2	3	8	DONOR	485	n/a	n/a	0	0	0
1403148	WORD	wordpools/wasnorm_wordpool_576.txt	LTP336	ltpFR2	3	8	DONKEY	484	n/a	n/a	0	0	0
1405629	WORD	wordpools/wasnorm_wordpool_576.txt	LTP336	ltpFR2	3	8	PROTON	1132	n/a	n/a	0	0	0
1408146	WORD	wordpools/wasnorm_wordpool_576.txt	LTP336	ltpFR2	3	8	LEOPARD	812	n/a	n/a	0	0	0
1410911	WORD	wordpools/wasnorm_wordpool_576.txt	LTP336	ltpFR2	3	8	HARP	689	n/a	n/a	0	0	0
1413494	WORD	wordpools/wasnorm_wordpool_576.txt	LTP336	ltpFR2	3	8	NIGHTGOWN	953	n/a	n/a	0	0	0
1415976	WORD	wordpools/wasnorm_wordpool_576.txt	LTP336	ltpFR2	3	8	COSTUME	383	n/a	n/a	0	0	0
1418491	WORD	wordpools/wasnorm_wordpool_576.txt	LTP336	ltpFR2	3	8	CRIB	407	n/a	n/a	0	0	0
1421273	WORD	wordpools/wasnorm_wordpool_576.txt	LTP336	ltpFR2	3	8	TAXI	1438	n/a	n/a	0	0	0
1423822	WORD	wordpools/wasnorm_wordpool_576.txt	LTP336	ltpFR2	3	8	WITNESS	1618	n/a	n/a	0	0	0
1426421	WORD	wordpools/wasnorm_wordpool_576.txt	LTP336	ltpFR2	3	8	AUTHOR	61	n/a	n/a	0	0	0
1428887	WORD	wordpools/wasnorm_wordpool_576.txt	LTP336	ltpFR2	3	8	NOVEL	960	n/a	n/a	0	0	0
1431519	WORD	wordpools/wasnorm_wordpool_576.txt	LTP336	ltpFR2	3	8	CAMEL	223	n/a	n/a	0	0	0
1434084	WORD	wordpools/wasnorm_wordpool_576.txt	LTP336	ltpFR2	3	8	HEART	697	n/a	n/a	0	0	0
1436833	WORD	wordpools/wasnorm_wordpool_576.txt	LTP336	ltpFR2	3	8	COUNTRY	388	n/a	n/a	0	0	0
1439597	WORD	wordpools/wasnorm_wordpool_576.txt	LTP336	ltpFR2	3	8	POSTAGE	1113	n/a	n/a	0	0	0
1442031	WORD	wordpools/wasnorm_wordpool_576.txt	LTP336	ltpFR2	3	8	CARRIAGE	248	n/a	n/a	0	0	0
1443646	START	n/a	LTP336	ltpFR2	3	n/a	n/a	n/a	11	n/a	n/a	n/a	n/a
1444718	DISTRACTOR	n/a	LTP336	ltpFR2	3	8	n/a	n/a	n/a	n/a	0	0	0
1444728	PROB	n/a	LTP336	ltpFR2	3	n/a	n/a	n/a	11	4	2	1	1
1446912	PROB	n/a	LTP336	ltpFR2	3	n/a	n/a	n/a	11	24	6	9	9
1449061	PROB	n/a	LTP336	ltpFR2	3	n/a	n/a	n/a	11	18	6	6	6
1451143	PROB	n/a	LTP336	ltpFR2	3	n/a	n/a	n/a	11	16	1	6	9
1452691	PROB	n/a	LTP336	ltpFR2	3	n/a	n/a	n/a	11	8	1	3	4
1454375	PROB	n/a	LTP336	ltpFR2	3	n/a	n/a	n/a	11	18	6	7	5
1456441	PROB	n/a	LTP336	ltpFR2	3	n/a	n/a	n/a	11	10	2	3	5
1458257	PROB	n/a	LTP336	ltpFR2	3	n/a	n/a	n/a	11	17	1	8	8
1459889	PROB	n/a	LTP336	ltpFR2	3	n/a	n/a	n/a	11	14	8	2	4
1461872	PROB	n/a	LTP336	ltpFR2	3	n/a	n/a	n/a	11	18	8	5	5
1463438	PROB	n/a	LTP336	ltpFR2	3	n/a	n/a	n/a	11	18	9	7	2
1467645	STOP	n/a	LTP336	ltpFR2	3	n/a	n/a	n/a	11	n/a	n/a	n/a	n/a
1469502	REC_START	n/a	LTP336	ltpFR2	3	8	n/a	n/a	n/a	n/a	0	0	0
1470260	REC_WORD	wordpools/wasnorm_wordpool_576.txt	LTP336	ltpFR2	3	8	HEART	697	n/a	n/a	0	0	0
1471027	REC_WORD_VV	wordpools/wasnorm_wordpool_576.txt	LTP336	ltpFR2	3	8	<>	-1	n/a	n/a	0	0	0
1471515	REC_WORD	wordpools/wasnorm_wordpool_576.txt	LTP336	ltpFR2	3	8	COUNTRY	388	n/a	n/a	0	0	0
1473111	REC_WORD	wordpools/wasnorm_wordpool_576.txt	LTP336	ltpFR2	3	8	POSTAGE	1113	n/a	n/a	0	0	0
1474646	REC_WORD	wordpools/wasnorm_wordpool_576.txt	LTP336	ltpFR2	3	8	PACKAGE	997	n/a	n/a	0	0	0
1476090	REC_WORD	wordpools/wasnorm_wordpool_576.txt	LTP336	ltpFR2	3	8	POSSUM	1112	n/a	n/a	0	0	0
1478314	REC_WORD	wordpools/wasnorm_wordpool_576.txt	LTP336	ltpFR2	3	8	JURY	766	n/a	n/a	0	0	0
1487023	REC_WORD	wordpools/wasnorm_wordpool_576.txt	LTP336	ltpFR2	3	8	DONOR	485	n/a	n/a	0	0	0
1493709	REC_WORD	wordpools/wasnorm_wordpool_576.txt	LTP336	ltpFR2	3	8	LAMP	798	n/a	n/a	0	0	0
1499042	REC_WORD	wordpools/wasnorm_wordpool_576.txt	LTP336	ltpFR2	3	8	SWITCH	1422	n/a	n/a	0	0	0
1546050	REST_REWET	n/a	LTP336	ltpFR2	3	8	n/a	n/a	n/a	n/a	0	0	0
1649619	DISTRACTOR	n/a	LTP336	ltpFR2	3	9	n/a	n/a	n/a	n/a	0	0	0
1649619	START	n/a	LTP336	ltpFR2	3	n/a	n/a	n/a	12	n/a	n/a	n/a	n/a
1649636	PROB	n/a	LTP336	ltpFR2	3	n/a	n/a	n/a	12	12	6	1	5
1652102	PROB	n/a	LTP336	ltpFR2	3	n/a	n/a	n/a	12	18	8	6	4
1654201	PROB	n/a	LTP336	ltpFR2	3	n/a	n/a	n/a	12	5	1	3	1
1655467	PROB	n/a	LTP336	ltpFR2	3	n/a	n/a	n/a	12	11	4	3	4
1657599	PROB	n/a	LTP336	ltpFR2	3	n/a	n/a	n/a	12	14	6	2	6
1659266	PROB	n/a	LTP336	ltpFR2	3	n/a	n/a	n/a	12	14	3	4	7
1661381	PROB	n/a	LTP336	ltpFR2	3	n/a	n/a	n/a	12	22	8	5	9
1665929	PROB	n/a	LTP336	ltpFR2	3	n/a	n/a	n/a	12	16	6	1	9
1667778	PROB	n/a	LTP336	ltpFR2	3	n/a	n/a	n/a	12	15	1	9	5
1669627	PROB	n/a	LTP336	ltpFR2	3	n/a	n/a	n/a	12	14	2	4	8
1673619	STOP	n/a	LTP336	ltpFR2	3	n/a	n/a	n/a	12	n/a	n/a	n/a	n/a
1674774	WORD	wordpools/wasnorm_wordpool_576.txt	LTP336	ltpFR2	3	9	FLOWER	584	n/a	n/a	0	0	0
1677573	WORD	wordpools/wasnorm_wordpool_576.txt	LTP336	ltpFR2	3	9	FRUIT	610	n/a	n/a	0	0	0
1680056	WORD	wordpools/wasnorm_wordpool_576.txt	LTP336	ltpFR2	3	9	CARROT	249	n/a	n/a	0	0	0
1682571	WORD	wordpools/wasnorm_wordpool_576.txt	LTP336	ltpFR2	3	9	THREAD	1460	n/a	n/a	0	0	0
1685371	WORD	wordpools/wasnorm_wordpool_576.txt	LTP336	ltpFR2	3	9	SHOULDER	1294	n/a	n/a	0	0	0
1688103	WORD	wordpools/wasnorm_wordpool_576.txt	LTP336	ltpFR2	3	9	NOTEBOOK	959	n/a	n/a	0	0	0
1690617	WORD	wordpools/wasnorm_wordpool_576.txt	LTP336	ltpFR2	3	9	KIDNEY	776	n/a	n/a	0	0	0
1693050	WORD	wordpools/wasnorm_wordpool_576.txt	LTP336	ltpFR2	3	9	GUITAR	670	n/a	n/a	0	0	0
1695832	WORD	wordpools/wasnorm_wordpool_576.txt	LTP336	ltpFR2	3	9	MASK	876	n/a	n/a	0	0	0
1698664	WORD	wordpools/wasnorm_wordpool_576.txt	LTP336	ltpFR2	3	9	ELBOW	520	n/a	n/a	0	0	0
1701280	WORD	wordpools/wasnorm_wordpool_576.txt	LTP336	ltpFR2	3	9	GARBAGE	622	n/a	n/a	0	0	0
1703929	WORD	wordpools/wasnorm_wordpool_576.txt	LTP336	ltpFR2	3	9	VAGRANT	1544	n/a	n/a	0	0	0
1706528	WORD	wordpools/wasnorm_wordpool_576.txt	LTP336	ltpFR2	3	9	FLIPPER	580	n/a	n/a	0	0	0
1709076	WORD	wordpools/wasnorm_wordpool_576.txt	LTP336	ltpFR2	3	9	YARN	1631	n/a	n/a	0	0	0
1711875	WORD	wordpools/wasnorm_wordpool_576.txt	LTP336	ltpFR2	3	9	CLOCK	325	n/a	n/a	0	0	0
1714374	WORD	wordpools/wasnorm_wordpool_576.txt	LTP336	ltpFR2	3	9	TABLET	1427	n/a	n/a	0	0	0
1716805	WORD	wordpools/wasnorm_wordpool_576.txt	LTP336	ltpFR2	3	9	PIGEON	1065	n/a	n/a	0	0	0
1719571	WORD	wordpools/wasnorm_wordpool_576.txt	LTP336	ltpFR2	3	9	SKILLET	1317	n/a	n/a	0	0	0
1722004	WORD	wordpools/wasnorm_wordpool_576.txt	LTP336	ltpFR2	3	9	SPACE	1345	n/a	n/a	0	0	0
1724602	WORD	wordpools/wasnorm_wordpool_576.txt	LTP336	ltpFR2	3	9	BASEMENT	94	n/a	n/a	0	0	0
1727102	WORD	wordpools/wasnorm_wordpool_576.txt	LTP336	ltpFR2	3	9	BLUEPRINT	142	n/a	n/a	0	0	0
1729799	WORD	wordpools/wasnorm_wordpool_576.txt	LTP336	ltpFR2	3	9	BUCKET	184	n/a	n/a	0	0	0
1732316	WORD	wordpools/wasnorm_wordpool_576.txt	LTP336	ltpFR2	3	9	BANK	83	n/a	n/a	0	0	0
1734915	WORD	wordpools/wasnorm_wordpool_576.txt	LTP336	ltpFR2	3	9	QUARTER	1148	n/a	n/a	0	0	0
1736531	START	n/a	LTP336	ltpFR2	3	n/a	n/a	n/a	13	n/a	n/a	n/a	n/a
1737671	DISTRACTOR	n/a	LTP336	ltpFR2	3	9	n/a	n/a	n/a	n/a	0	0	0
1737679	PROB	n/a	LTP336	ltpFR2	3	n/a	n/a	n/a	13	18	5	7	6
1740711	PROB	n/a	LTP336	ltpFR2	3	n/a	n/a	n/a	13	20	9	6	5
1743810	PROB	n/a	LTP336	ltpFR2	3	n/a	n/a	n/a	13	13	1	7	5
1745543	PROB	n/a	LTP336	ltpFR2	3	n/a	n/a	n/a	13	13	2	4	7
1747641	PROB	n/a	LTP336	ltpFR2	3	n/a	n/a	n/a	13	18	7	8	3
1750790	PROB	n/a	LTP336	ltpFR2	3	n/a	n/a	n/a	13	17	3	9	5
1752957	PROB	n/a	LTP336	ltpFR2	3	n/a	n/a	n/a	13	13	9	3	1
1754755	PROB	n/a	LTP336	ltpFR2	3	n/a	n/a	n/a	13	23	7	8	8
1757538	PROB	n/a	LTP336	ltpFR2	3	n/a	n/a	n/a	13	15	4	2	9
1759303	STOP	n/a	LTP336	ltpFR2	3	n/a	n/a	n/a	13	n/a	n/a	n/a	n/a
1762403	REC_START	n/a	LTP336	ltpFR2	3	9	n/a	n/a	n/a	n/a	0	0	0
1763019	REC_WORD	wordpools/wasnorm_wordpool_576.txt	LTP336	ltpFR2	3	9	BUCKET	184	n/a	n/a	0	0	0
1764121	REC_WORD	wordpools/wasnorm_wordpool_576.txt	LTP336	ltpFR2	3	9	BANK	83	n/a	n/a	0	0	0
1765073	REC_WORD	wordpools/wasnorm_wordpool_576.txt	LTP336	ltpFR2	3	9	QUARTER	1148	n/a	n/a	0	0	0
1766312	REC_WORD	wordpools/wasnorm_wordpool_576.txt	LTP336	ltpFR2	3	9	FLIPPER	580	n/a	n/a	0	0	0
1767905	REC_WORD	wordpools/wasnorm_wordpool_576.txt	LTP336	ltpFR2	3	9	GARBAGE	622	n/a	n/a	0	0	0
1769249	REC_WORD	wordpools/wasnorm_wordpool_576.txt	LTP336	ltpFR2	3	9	FLOWER	584	n/a	n/a	0	0	0
1770687	REC_WORD	wordpools/wasnorm_wordpool_576.txt	LTP336	ltpFR2	3	9	NOTEBOOK	959	n/a	n/a	0	0	0
1771850	REC_WORD	wordpools/wasnorm_wordpool_576.txt	LTP336	ltpFR2	3	9	SPACE	1345	n/a	n/a	0	0	0
1773023	REC_WORD	wordpools/wasnorm_wordpool_576.txt	LTP336	ltpFR2	3	9	SKILLET	1317	n/a	n/a	0	0	0
1774560	REC_WORD	wordpools/wasnorm_wordpool_576.txt	LTP336	ltpFR2	3	9	GROUND	666	n/a	n/a	0	0	0
1775648	REC_WORD	wordpools/wasnorm_wordpool_576.txt	LTP336	ltpFR2	3	9	PIGEON	1065	n/a	n/a	0	0	0
1776914	REC_WORD	wordpools/wasnorm_wordpool_576.txt	LTP336	ltpFR2	3	9	SHOULDER	1294	n/a	n/a	0	0	0
1778765	REC_WORD	wordpools/wasnorm_wordpool_576.txt	LTP336	ltpFR2	3	9	ELBOW	520	n/a	n/a	0	0	0
1780080	REC_WORD	wordpools/wasnorm_wordpool_576.txt	LTP336	ltpFR2	3	9	KIDNEY	776	n/a	n/a	0	0	0
1852828	DISTRACTOR	n/a	LTP336	ltpFR2	3	10	n/a	n/a	n/a	n/a	0	0	0
1852828	START	n/a	LTP336	ltpFR2	3	n/a	n/a	n/a	14	n/a	n/a	n/a	n/a
1852845	PROB	n/a	LTP336	ltpFR2	3	n/a	n/a	n/a	14	14	5	5	4
1855726	PROB	n/a	LTP336	ltpFR2	3	n/a	n/a	n/a	14	24	9	8	7
1858126	PROB	n/a	LTP336	ltpFR2	3	n/a	n/a	n/a	14	20	8	9	3
1859942	PROB	n/a	LTP336	ltpFR2	3	n/a	n/a	n/a	14	11	1	6	4
1861274	PROB	n/a	LTP336	ltpFR2	3	n/a	n/a	n/a	14	14	6	1	7
1863073	PROB	n/a	LTP336	ltpFR2	3	n/a	n/a	n/a	14	14	9	2	3
1866539	PROB	n/a	LTP336	ltpFR2	3	n/a	n/a	n/a	14	8	1	2	5
1868071	PROB	n/a	LTP336	ltpFR2	3	n/a	n/a	n/a	14	18	8	3	7
1869636	PROB	n/a	LTP336	ltpFR2	3	n/a	n/a	n/a	14	24	8	9	7
1872668	PROB	n/a	LTP336	ltpFR2	3	n/a	n/a	n/a	14	10	3	3	4
1874252	PROB	n/a	LTP336	ltpFR2	3	n/a	n/a	n/a	14	18	9	1	8
1875786	STOP	n/a	LTP336	ltpFR2	3	n/a	n/a	n/a	14	n/a	n/a	n/a	n/a
1877833	WORD	wordpools/wasnorm_wordpool_576.txt	LTP336	ltpFR2	3	10	BRAKE	166	n/a	n/a	0	0	0
1880382	WORD	wordpools/wasnorm_wordpool_576.txt	LTP336	ltpFR2	3	10	WHISTLE	1606	n/a	n/a	0	0	0
1882964	WORD	wordpools/wasnorm_wordpool_576.txt	LTP336	ltpFR2	3	10	PARENT	1013	n/a	n/a	0	0	0
1885696	WORD	wordpools/wasnorm_wordpool_576.txt	LTP336	ltpFR2	3	10	DINER	467	n/a	n/a	0	0	0
1888262	WORD	wordpools/wasnorm_wordpool_576.txt	LTP336	ltpFR2	3	10	TRIBE	1505	n/a	n/a	0	0	0
1891027	WORD	wordpools/wasnorm_wordpool_576.txt	LTP336	ltpFR2	3	10	COMPASS	358	n/a	n/a	0	0	0
1893575	WORD	wordpools/wasnorm_wordpool_576.txt	LTP336	ltpFR2	3	10	CORAL	378	n/a	n/a	0	0	0
1896159	WORD	wordpools/wasnorm_wordpool_576.txt	LTP336	ltpFR2	3	10	RECEIPT	1173	n/a	n/a	0	0	0
1898824	WORD	wordpools/wasnorm_wordpool_576.txt	LTP336	ltpFR2	3	10	POCKET	1093	n/a	n/a	0	0	0
1901356	WORD	wordpools/wasnorm_wordpool_576.txt	LTP336	ltpFR2	3	10	KNAPSACK	783	n/a	n/a	0	0	0
1903972	WORD	wordpools/wasnorm_wordpool_576.txt	LTP336	ltpFR2	3	10	CAFE	216	n/a	n/a	0	0	0
1906421	WORD	wordpools/wasnorm_wordpool_576.txt	LTP336	ltpFR2	3	10	CATCHER	258	n/a	n/a	0	0	0
1908919	WORD	wordpools/wasnorm_wordpool_576.txt	LTP336	ltpFR2	3	10	FLASHLIGHT	575	n/a	n/a	0	0	0
1911600	WORD	wordpools/wasnorm_wordpool_576.txt	LTP336	ltpFR2	3	10	LILY	821	n/a	n/a	0	0	0
1914350	WORD	wordpools/wasnorm_wordpool_576.txt	LTP336	ltpFR2	3	10	ORCHID	982	n/a	n/a	0	0	0
1917166	WORD	wordpools/wasnorm_wordpool_576.txt	LTP336	ltpFR2	3	10	PENGUIN	1044	n/a	n/a	0	0	0
1919815	WORD	wordpools/wasnorm_wordpool_576.txt	LTP336	ltpFR2	3	10	TROUT	1511	n/a	n/a	0	0	0
1922297	WORD	wordpools/wasnorm_wordpool_576.txt	LTP336	ltpFR2	3	10	WINDOW	1611	n/a	n/a	0	0	0
1924862	WORD	wordpools/wasnorm_wordpool_576.txt	LTP336	ltpFR2	3	10	DOLPHIN	483	n/a	n/a	0	0	0
1927544	WORD	wordpools/wasnorm_wordpool_576.txt	LTP336	ltpFR2	3	10	ROBIN	1199	n/a	n/a	0	0	0
1930110	WORD	wordpools/wasnorm_wordpool_576.txt	LTP336	ltpFR2	3	10	MATCH	878	n/a	n/a	0	0	0
1932859	WORD	wordpools/wasnorm_wordpool_576.txt	LTP336	ltpFR2	3	10	MOTEL	919	n/a	n/a	0	0	0
1935556	WORD	wordpools/wasnorm_wordpool_576.txt	LTP336	ltpFR2	3	10	IGLOO	734	n/a	n/a	0	0	0
1938106	WORD	wordpools/wasnorm_wordpool_576.txt	LTP336	ltpFR2	3	10	ISLAND	745	n/a	n/a	0	0	0
1939721	START	n/a	LTP336	ltpFR2	3	n/a	n/a	n/a	15	n/a	n/a	n/a	n/a
1940651	DISTRACTOR	n/a	LTP336	ltpFR2	3	10	n/a	n/a	n/a	n/a	0	0	0
1940654	PROB	n/a	LTP336	ltpFR2	3	n/a	n/a	n/a	15	14	4	6	4
1942720	PROB	n/a	LTP336	ltpFR2	3	n/a	n/a	n/a	15	21	6	6	9
1945969	PROB	n/a	LTP336	ltpFR2	3	n/a	n/a	n/a	15	18	8	3	7
1947385	PROB	n/a	LTP336	ltpFR2	3	n/a	n/a	n/a	15	16	8	3	5
1949518	PROB	n/a	LTP336	ltpFR2	3	n/a	n/a	n/a	15	9	2	3	4
1951334	PROB	n/a	LTP336	ltpFR2	3	n/a	n/a	n/a	15	13	4	7	2
1953999	PROB	n/a	LTP336	ltpFR2	3	n/a	n/a	n/a	15	15	8	1	6
1957596	PROB	n/a	LTP336	ltpFR2	3	n/a	n/a	n/a	15	20	9	7	4
1961412	PROB	n/a	LTP336	ltpFR2	3	n/a	n/a	n/a	15	14	2	5	7
1963605	STOP	n/a	LTP336	ltpFR2	3	n/a	n/a	n/a	15	n/a	n/a	n/a	n/a
1965527	REC_START	n/a	LTP336	ltpFR2	3	10	n/a	n/a	n/a	n/a	0	0	0
1966283	REC_WORD	wordpools/wasnorm_wordpool_576.txt	LTP336	ltpFR2	3	10	IGLOO	734	n/a	n/a	0	0	0
1968345	REC_WORD	wordpools/wasnorm_wordpool_576.txt	LTP336	ltpFR2	3	10	ISLAND	745	n/a	n/a	0	0	0
1969479	REC_WORD	wordpools/wasnorm_wordpool_576.txt	LTP336	ltpFR2	3	10	WHISTLE	1606	n/a	n/a	0	0	0
1970718	REC_WORD	wordpools/wasnorm_wordpool_576.txt	LTP336	ltpFR2	3	10	CATCHER	258	n/a	n/a	0	0	0
1971949	REC_WORD	wordpools/wasnorm_wordpool_576.txt	LTP336	ltpFR2	3	10	KNAPSACK	783	n/a	n/a	0	0	0
1973362	REC_WORD	wordpools/wasnorm_wordpool_576.txt	LTP336	ltpFR2	3	10	PARENT	1013	n/a	n/a	0	0	0
1974516	REC_WORD	wordpools/wasnorm_wordpool_576.txt	LTP336	ltpFR2	3	10	DINER	467	n/a	n/a	0	0	0
1975873	REC_WORD	wordpools/wasnorm_wordpool_576.txt	LTP336	ltpFR2	3	10	BRAKE	166	n/a	n/a	0	0	0
2055986	WORD	wordpools/wasnorm_wordpool_576.txt	LTP336	ltpFR2	3	11	BROTHER	179	n/a	n/a	0	0	0
2058734	WORD	wordpools/wasnorm_wordpool_576.txt	LTP336	ltpFR2	3	11	HANDBAG	684	n/a	n/a	0	0	0
2061550	WORD	wordpools/wasnorm_wordpool_576.txt	LTP336	ltpFR2	3	11	DUST	508	n/a	n/a	0	0	0
2064199	WORD	wordpools/wasnorm_wordpool_576.txt	LTP336	ltpFR2	3	11	DRUG	501	n/a	n/a	0	0	0
2066948	WORD	wordpools/wasnorm_wordpool_576.txt	LTP336	ltpFR2	3	11	ULCER	1533	n/a	n/a	0	0	0
2069430	WORD	wordpools/wasnorm_wordpool_576.txt	LTP336	ltpFR2	3	11	GARDEN	623	n/a	n/a	0	0	0
2072229	WORD	wordpools/wasnorm_wordpool_576.txt	LTP336	ltpFR2	3	11	BEAKER	104	n/a	n/a	0	0	0
2074944	WORD	wordpools/wasnorm_wordpool_576.txt	LTP336	ltpFR2	3	11	CHEMIST	292	n/a	n/a	0	0	0
2077742	WORD	wordpools/wasnorm_wordpool_576.txt	LTP336	ltpFR2	3	11	DAUGHTER	442	n/a	n/a	0	0	0
2080542	WORD	wordpools/wasnorm_wordpool_576.txt	LTP336	ltpFR2	3	11	FLASK	576	n/a	n/a	0	0	0
2082974	WORD	wordpools/wasnorm_wordpool_576.txt	LTP336	ltpFR2	3	11	BARREL	91	n/a	n/a	0	0	0
2085772	WORD	wordpools/wasnorm_wordpool_576.txt	LTP336	ltpFR2	3	11	GRAVEL	659	n/a	n/a	0	0	0
2088538	WORD	wordpools/wasnorm_wordpool_576.txt	LTP336	ltpFR2	3	11	GHETTO	633	n/a	n/a	0	0	0
2091254	WORD	wordpools/wasnorm_wordpool_576.txt	LTP336	ltpFR2	3	11	BUGGY	188	n/a	n/a	0	0	0
2093919	WORD	wordpools/wasnorm_wordpool_576.txt	LTP336	ltpFR2	3	11	HONEY	713	n/a	n/a	0	0	0
2096501	WORD	wordpools/wasnorm_wordpool_576.txt	LTP336	ltpFR2	3	11	SUSPECT	1415	n/a	n/a	0	0	0
2099050	WORD	wordpools/wasnorm_wordpool_576.txt	LTP336	ltpFR2	3	11	CAPTIVE	240	n/a	n/a	0	0	0
2101598	WORD	wordpools/wasnorm_wordpool_576.txt	LTP336	ltpFR2	3	11	SOFTBALL	1343	n/a	n/a	0	0	0
2104098	WORD	wordpools/wasnorm_wordpool_576.txt	LTP336	ltpFR2	3	11	EGYPT	519	n/a	n/a	0	0	0
2106629	WORD	wordpools/wasnorm_wordpool_576.txt	LTP336	ltpFR2	3	11	BIKE	125	n/a	n/a	0	0	0
2109445	WORD	wordpools/wasnorm_wordpool_576.txt	LTP336	ltpFR2	3	11	CHAUFFEUR	283	n/a	n/a	0	0	0
2112177	WORD	wordpools/wasnorm_wordpool_576.txt	LTP336	ltpFR2	3	11	RACKET	1155	n/a	n/a	0	0	0
2114943	WORD	wordpools/wasnorm_wordpool_576.txt	LTP336	ltpFR2	3	11	HORNET	718	n/a	n/a	0	0	0
2117724	WORD	wordpools/wasnorm_wordpool_576.txt	LTP336	ltpFR2	3	11	COFFEE	341	n/a	n/a	0	0	0
2119341	START	n/a	LTP336	ltpFR2	3	n/a	n/a	n/a	16	n/a	n/a	n/a	n/a
2120444	DISTRACTOR	n/a	LTP336	ltpFR2	3	11	n/a	n/a	n/a	n/a	0	0	0
2120457	PROB	n/a	LTP336	ltpFR2	3	n/a	n/a	n/a	16	16	1	6	9
2123721	PROB	n/a	LTP336	ltpFR2	3	n/a	n/a	n/a	16	14	5	7	2
2125754	PROB	n/a	LTP336	ltpFR2	3	n/a	n/a	n/a	16	13	4	7	2
2127753	PROB	n/a	LTP336	ltpFR2	3	n/a	n/a	n/a	16	25	8	8	9
2130203	PROB	n/a	LTP336	ltpFR2	3	n/a	n/a	n/a	16	23	6	8	9
2134234	PROB	n/a	LTP336	ltpFR2	3	n/a	n/a	n/a	16	11	6	3	2
2136983	PROB	n/a	LTP336	ltpFR2	3	n/a	n/a	n/a	16	16	7	3	6
2138581	PROB	n/a	LTP336	ltpFR2	3	n/a	n/a	n/a	16	12	3	3	6
2140398	PROB	n/a	LTP336	ltpFR2	3	n/a	n/a	n/a	16	9	2	3	4
2143292	STOP	n/a	LTP336	ltpFR2	3	n/a	n/a	n/a	16	n/a	n/a	n/a	n/a
2145146	REC_START	n/a	LTP336	ltpFR2	3	11	n/a	n/a	n/a	n/a	0	0	0
2146210	REC_WORD	wordpools/wasnorm_wordpool_576.txt	LTP336	ltpFR2	3	11	RACKET	1155	n/a	n/a	0	0	0
2147161	REC_WORD	wordpools/wasnorm_wordpool_576.txt	LTP336	ltpFR2	3	11	HORNET	718	n/a	n/a	0	0	0
2148259	REC_WORD	wordpools/wasnorm_wordpool_576.txt	LTP336	ltpFR2	3	11	COFFEE	341	n/a	n/a	0	0	0
2149378	REC_WORD	wordpools/wasnorm_wordpool_576.txt	LTP336	ltpFR2	3	11	HONEY	713	n/a	n/a	0	0	0
2150522	REC_WORD	wordpools/wasnorm_wordpool_576.txt	LTP336	ltpFR2	3	11	GRAVEL	659	n/a	n/a	0	0	0
2151900	REC_WORD	wordpools/wasnorm_wordpool_576.txt	LTP336	ltpFR2	3	11	CHEMIST	292	n/a	n/a	0	0	0
2153210	REC_WORD	wordpools/wasnorm_wordpool_576.txt	LTP336	ltpFR2	3	11	BEAKER	104	n/a	n/a	0	0	0
2154877	REC_WORD	wordpools/wasnorm_wordpool_576.txt	LTP336	ltpFR2	3	11	BARREL	91	n/a	n/a	0	0	0
2156508	REC_WORD	wordpools/wasnorm_wordpool_576.txt	LTP336	ltpFR2	3	11	DAUGHTER	442	n/a	n/a	0	0	0
2157609	REC_WORD	wordpools/wasnorm_wordpool_576.txt	LTP336	ltpFR2	3	11	DUST	508	n/a	n/a	0	0	0
2158692	REC_WORD	wordpools/wasnorm_wordpool_576.txt	LTP336	ltpFR2	3	11	DRUG	501	n/a	n/a	0	0	0
2235587	DISTRACTOR	n/a	LTP336	ltpFR2	3	12	n/a	n/a	n/a	n/a	0	0	0
2235587	START	n/a	LTP336	ltpFR2	3	n/a	n/a	n/a	17	n/a	n/a	n/a	n/a
2235604	PROB	n/a	LTP336	ltpFR2	3	n/a	n/a	n/a	17	17	7	8	2
2242852	PROB	n/a	LTP336	ltpFR2	3	n/a	n/a	n/a	17	19	7	6	5
2245334	PROB	n/a	LTP336	ltpFR2	3	n/a	n/a	n/a	17	19	7	4	8
2248299	PROB	n/a	LTP336	ltpFR2	3	n/a	n/a	n/a	17	14	2	5	7
2251498	PROB	n/a	LTP336	ltpFR2	3	n/a	n/a	n/a	17	11	2	3	6
2253464	PROB	n/a	LTP336	ltpFR2	3	n/a	n/a	n/a	17	16	1	7	8
2255013	PROB	n/a	LTP336	ltpFR2	3	n/a	n/a	n/a	17	21	8	8	5
2256545	PROB	n/a	LTP336	ltpFR2	3	n/a	n/a	n/a	17	20	7	4	9
2258247	STOP	n/a	LTP336	ltpFR2	3	n/a	n/a	n/a	17	n/a	n/a	n/a	n/a
2260527	WORD	wordpools/wasnorm_wordpool_576.txt	LTP336	ltpFR2	3	12	CONVICT	371	n/a	n/a	0	0	0
2263176	WORD	wordpools/wasnorm_wordpool_576.txt	LTP336	ltpFR2	3	12	PECAN	1036	n/a	n/a	0	0	0
2265740	WORD	wordpools/wasnorm_wordpool_576.txt	LTP336	ltpFR2	3	12	CASHEW	253	n/a	n/a	0	0	0
2268457	WORD	wordpools/wasnorm_wordpool_576.txt	LTP336	ltpFR2	3	12	NEUTRON	947	n/a	n/a	0	0	0
2271072	WORD	wordpools/wasnorm_wordpool_576.txt	LTP336	ltpFR2	3	12	LEADER	807	n/a	n/a	0	0	0
2273720	WORD	wordpools/wasnorm_wordpool_576.txt	LTP336	ltpFR2	3	12	WORKER	1621	n/a	n/a	0	0	0
2276303	WORD	wordpools/wasnorm_wordpool_576.txt	LTP336	ltpFR2	3	12	VALVE	1546	n/a	n/a	0	0	0
2279119	WORD	wordpools/wasnorm_wordpool_576.txt	LTP336	ltpFR2	3	12	THRONE	1461	n/a	n/a	0	0	0
2281917	WORD	wordpools/wasnorm_wordpool_576.txt	LTP336	ltpFR2	3	12	BODY	145	n/a	n/a	0	0	0
2284682	WORD	wordpools/wasnorm_wordpool_576.txt	LTP336	ltpFR2	3	12	SISTER	1312	n/a	n/a	0	0	0
2287248	WORD	wordpools/wasnorm_wordpool_576.txt	LTP336	ltpFR2	3	12	MISTER	901	n/a	n/a	0	0	0
2290064	WORD	wordpools/wasnorm_wordpool_576.txt	LTP336	ltpFR2	3	12	CIGAR	308	n/a	n/a	0	0	0
2292711	WORD	wordpools/wasnorm_wordpool_576.txt	LTP336	ltpFR2	3	12	INMATE	738	n/a	n/a	0	0	0
2295445	WORD	wordpools/wasnorm_wordpool_576.txt	LTP336	ltpFR2	3	12	CROWN	415	n/a	n/a	0	0	0
2298093	WORD	wordpools/wasnorm_wordpool_576.txt	LTP336	ltpFR2	3	12	PUDDING	1139	n/a	n/a	0	0	0
2300708	WORD	wordpools/wasnorm_wordpool_576.txt	LTP336	ltpFR2	3	12	EUROPE	541	n/a	n/a	0	0	0
2303241	WORD	wordpools/wasnorm_wordpool_576.txt	LTP336	ltpFR2	3	12	BREAST	171	n/a	n/a	0	0	0
2306056	WORD	wordpools/wasnorm_wordpool_576.txt	LTP336	ltpFR2	3	12	VICTIM	1562	n/a	n/a	0	0	0
2308588	WORD	wordpools/wasnorm_wordpool_576.txt	LTP336	ltpFR2	3	12	JUGGLER	763	n/a	n/a	0	0	0
2311304	WORD	wordpools/wasnorm_wordpool_576.txt	LTP336	ltpFR2	3	12	WHISKERS	1605	n/a	n/a	0	0	0
2313769	WORD	wordpools/wasnorm_wordpool_576.txt	LTP336	ltpFR2	3	12	SCALLOP	1242	n/a	n/a	0	0	0
2316285	WORD	wordpools/wasnorm_wordpool_576.txt	LTP336	ltpFR2	3	12	LIZARD	834	n/a	n/a	0	0	0
2319017	WORD	wordpools/wasnorm_wordpool_576.txt	LTP336	ltpFR2	3	12	POISON	1096	n/a	n/a	0	0	0
2321715	WORD	wordpools/wasnorm_wordpool_576.txt	LTP336	ltpFR2	3	12	MUMMY	932	n/a	n/a	0	0	0
2323332	START	n/a	LTP336	ltpFR2	3	n/a	n/a	n/a	18	n/a	n/a	n/a	n/a
2324406	DISTRACTOR	n/a	LTP336	ltpFR2	3	12	n/a	n/a	n/a	n/a	0	0	0
2324415	PROB	n/a	LTP336	ltpFR2	3	n/a	n/a	n/a	18	15	6	8	1
2326729	PROB	n/a	LTP336	ltpFR2	3	n/a	n/a	n/a	18	19	7	8	4
2329546	PROB	n/a	LTP336	ltpFR2	3	n/a	n/a	n/a	18	17	2	9	6
2332111	PROB	n/a	LTP336	ltpFR2	3	n/a	n/a	n/a	18	16	1	8	7
2333944	PROB	n/a	LTP336	ltpFR2	3	n/a	n/a	n/a	18	18	2	7	9
2336459	PROB	n/a	LTP336	ltpFR2	3	n/a	n/a	n/a	18	16	5	5	6
2338059	PROB	n/a	LTP336	ltpFR2	3	n/a	n/a	n/a	18	11	7	1	3
2339491	PROB	n/a	LTP336	ltpFR2	3	n/a	n/a	n/a	18	16	7	6	3
2342655	PROB	n/a	LTP336	ltpFR2	3	n/a	n/a	n/a	18	17	6	6	5
2344139	PROB	n/a	LTP336	ltpFR2	3	n/a	n/a	n/a	18	12	5	1	6
2345621	PROB	n/a	LTP336	ltpFR2	3	n/a	n/a	n/a	18	21	9	3	9
2347290	STOP	n/a	LTP336	ltpFR2	3	n/a	n/a	n/a	18	n/a	n/a	n/a	n/a
2349254	REC_START	n/a	LTP336	ltpFR2	3	12	n/a	n/a	n/a	n/a	0	0	0
2349982	REC_WORD	wordpools/wasnorm_wordpool_576.txt	LTP336	ltpFR2	3	12	SCALLOP	1242	n/a	n/a	0	0	0
2351094	REC_WORD	wordpools/wasnorm_wordpool_576.txt	LTP336	ltpFR2	3	12	LIZARD	834	n/a	n/a	0	0	0
2352306	REC_WORD	wordpools/wasnorm_wordpool_576.txt	LTP336	ltpFR2	3	12	POISON	1096	n/a	n/a	0	0	0
2353664	REC_WORD	wordpools/wasnorm_wordpool_576.txt	LTP336	ltpFR2	3	12	MONEY	908	n/a	n/a	0	0	0
2356104	REC_WORD	wordpools/wasnorm_wordpool_576.txt	LTP336	ltpFR2	3	12	PECAN	1036	n/a	n/a	0	0	0
2357491	REC_WORD	wordpools/wasnorm_wordpool_576.txt	LTP336	ltpFR2	3	12	CASHEW	253	n/a	n/a	0	0	0
2358828	REC_WORD	wordpools/wasnorm_wordpool_576.txt	LTP336	ltpFR2	3	12	NEUTRON	947	n/a	n/a	0	0	0
2360611	REC_WORD	wordpools/wasnorm_wordpool_576.txt	LTP336	ltpFR2	3	12	LEADER	807	n/a	n/a	0	0	0
2361965	REC_WORD	wordpools/wasnorm_wordpool_576.txt	LTP336	ltpFR2	3	12	PUDDING	1139	n/a	n/a	0	0	0
2363286	REC_WORD	wordpools/wasnorm_wordpool_576.txt	LTP336	ltpFR2	3	12	THRONE	1461	n/a	n/a	0	0	0
2364976	REC_WORD	wordpools/wasnorm_wordpool_576.txt	LTP336	ltpFR2	3	12	SISTER	1312	n/a	n/a	0	0	0
2366402	REC_WORD	wordpools/wasnorm_wordpool_576.txt	LTP336	ltpFR2	3	12	MISTER	901	n/a	n/a	0	0	0
2367886	REC_WORD	wordpools/wasnorm_wordpool_576.txt	LTP336	ltpFR2	3	12	BREAST	171	n/a	n/a	0	0	0
2373566	REC_WORD	wordpools/wasnorm_wordpool_576.txt	LTP336	ltpFR2	3	12	CIGAR	308	n/a	n/a	0	0	0
2439728	WORD	wordpools/wasnorm_wordpool_576.txt	LTP336	ltpFR2	3	13	FLAG	573	n/a	n/a	0	0	0
2442395	WORD	wordpools/wasnorm_wordpool_576.txt	LTP336	ltpFR2	3	13	SHORTS	1293	n/a	n/a	0	0	0
2445093	WORD	wordpools/wasnorm_wordpool_576.txt	LTP336	ltpFR2	3	13	SCISSORS	1250	n/a	n/a	0	0	0
2447758	WORD	wordpools/wasnorm_wordpool_576.txt	LTP336	ltpFR2	3	13	DRESS	495	n/a	n/a	0	0	0
2450424	WORD	wordpools/wasnorm_wordpool_576.txt	LTP336	ltpFR2	3	13	BRACES	164	n/a	n/a	0	0	0
2452973	WORD	wordpools/wasnorm_wordpool_576.txt	LTP336	ltpFR2	3	13	CRATER	400	n/a	n/a	0	0	0
2455771	WORD	wordpools/wasnorm_wordpool_576.txt	LTP336	ltpFR2	3	13	SUNRISE	1407	n/a	n/a	0	0	0
2458238	WORD	wordpools/wasnorm_wordpool_576.txt	LTP336	ltpFR2	3	13	CREVICE	405	n/a	n/a	0	0	0
2460920	WORD	wordpools/wasnorm_wordpool_576.txt	LTP336	ltpFR2	3	13	COBRA	336	n/a	n/a	0	0	0
2463734	WORD	wordpools/wasnorm_wordpool_576.txt	LTP336	ltpFR2	3	13	SNAKE	1333	n/a	n/a	0	0	0
2466467	WORD	wordpools/wasnorm_wordpool_576.txt	LTP336	ltpFR2	3	13	CLIMBER	323	n/a	n/a	0	0	0
2468999	WORD	wordpools/wasnorm_wordpool_576.txt	LTP336	ltpFR2	3	13	DENIM	446	n/a	n/a	0	0	0
2471780	WORD	wordpools/wasnorm_wordpool_576.txt	LTP336	ltpFR2	3	13	GIRL	637	n/a	n/a	0	0	0
2474430	WORD	wordpools/wasnorm_wordpool_576.txt	LTP336	ltpFR2	3	13	AIRPORT	13	n/a	n/a	0	0	0
2477212	WORD	wordpools/wasnorm_wordpool_576.txt	LTP336	ltpFR2	3	13	UNCLE	1536	n/a	n/a	0	0	0
2479961	WORD	wordpools/wasnorm_wordpool_576.txt	LTP336	ltpFR2	3	13	LADDER	793	n/a	n/a	0	0	0
2482393	WORD	wordpools/wasnorm_wordpool_576.txt	LTP336	ltpFR2	3	13	ROD	1203	n/a	n/a	0	0	0
2485142	WORD	wordpools/wasnorm_wordpool_576.txt	LTP336	ltpFR2	3	13	STREAM	1392	n/a	n/a	0	0	0
2487941	WORD	wordpools/wasnorm_wordpool_576.txt	LTP336	ltpFR2	3	13	CLAMP	316	n/a	n/a	0	0	0
2490722	WORD	wordpools/wasnorm_wordpool_576.txt	LTP336	ltpFR2	3	13	VALLEY	1545	n/a	n/a	0	0	0
2493472	WORD	wordpools/wasnorm_wordpool_576.txt	LTP336	ltpFR2	3	13	MARROW	872	n/a	n/a	0	0	0
2496154	WORD	wordpools/wasnorm_wordpool_576.txt	LTP336	ltpFR2	3	13	SCALPEL	1243	n/a	n/a	0	0	0
2498852	WORD	wordpools/wasnorm_wordpool_576.txt	LTP336	ltpFR2	3	13	KNIFE	785	n/a	n/a	0	0	0
2501451	WORD	wordpools/wasnorm_wordpool_576.txt	LTP336	ltpFR2	3	13	PEANUT	1032	n/a	n/a	0	0	0
2503067	START	n/a	LTP336	ltpFR2	3	n/a	n/a	n/a	19	n/a	n/a	n/a	n/a
2503978	DISTRACTOR	n/a	LTP336	ltpFR2	3	13	n/a	n/a	n/a	n/a	0	0	0
2503983	PROB	n/a	LTP336	ltpFR2	3	n/a	n/a	n/a	19	13	5	6	2
2506581	PROB	n/a	LTP336	ltpFR2	3	n/a	n/a	n/a	19	12	7	4	1
2509298	PROB	n/a	LTP336	ltpFR2	3	n/a	n/a	n/a	19	15	3	8	4
2512196	PROB	n/a	LTP336	ltpFR2	3	n/a	n/a	n/a	19	13	7	3	3
2513728	PROB	n/a	LTP336	ltpFR2	3	n/a	n/a	n/a	19	6	1	1	4
2515162	PROB	n/a	LTP336	ltpFR2	3	n/a	n/a	n/a	19	10	1	6	3
2517011	PROB	n/a	LTP336	ltpFR2	3	n/a	n/a	n/a	19	26	8	9	9
2519742	PROB	n/a	LTP336	ltpFR2	3	n/a	n/a	n/a	19	6	2	2	2
2521126	PROB	n/a	LTP336	ltpFR2	3	n/a	n/a	n/a	19	16	4	9	3
2523790	PROB	n/a	LTP336	ltpFR2	3	n/a	n/a	n/a	19	9	3	2	4
2525647	STOP	n/a	LTP336	ltpFR2	3	n/a	n/a	n/a	19	n/a	n/a	n/a	n/a
2528856	REC_START	n/a	LTP336	ltpFR2	3	13	n/a	n/a	n/a	n/a	0	0	0
2529498	REC_WORD	wordpools/wasnorm_wordpool_576.txt	LTP336	ltpFR2	3	13	SCALPEL	1243	n/a	n/a	0	0	0
2530614	REC_WORD_VV	wordpools/wasnorm_wordpool_576.txt	LTP336	ltpFR2	3	13	<>	-1	n/a	n/a	0	0	0
2531212	REC_WORD	wordpools/wasnorm_wordpool_576.txt	LTP336	ltpFR2	3	13	KNIFE	785	n/a	n/a	0	0	0
2532401	REC_WORD	wordpools/wasnorm_wordpool_576.txt	LTP336	ltpFR2	3	13	PEANUT	1032	n/a	n/a	0	0	0
2533629	REC_WORD	wordpools/wasnorm_wordpool_576.txt	LTP336	ltpFR2	3	13	SHORTS	1293	n/a	n/a	0	0	0
2534834	REC_WORD	wordpools/wasnorm_wordpool_576.txt	LTP336	ltpFR2	3	13	VALLEY	1545	n/a	n/a	0	0	0
2536011	REC_WORD	wordpools/wasnorm_wordpool_576.txt	LTP336	ltpFR2	3	13	CREVICE	405	n/a	n/a	0	0	0
2537464	REC_WORD	wordpools/wasnorm_wordpool_576.txt	LTP336	ltpFR2	3	13	MARROW	872	n/a	n/a	0	0	0
2539301	REC_WORD	wordpools/wasnorm_wordpool_576.txt	LTP336	ltpFR2	3	13	FLAG	573	n/a	n/a	0	0	0
2542547	REC_WORD	wordpools/wasnorm_wordpool_576.txt	LTP336	ltpFR2	3	13	DENIM	446	n/a	n/a	0	0	0
2543533	REC_WORD	wordpools/wasnorm_wordpool_576.txt	LTP336	ltpFR2	3	13	GIRL	637	n/a	n/a	0	0	0
2544561	REC_WORD	wordpools/wasnorm_wordpool_576.txt	LTP336	ltpFR2	3	13	AIRPORT	13	n/a	n/a	0	0	0
2546839	REC_WORD	wordpools/wasnorm_wordpool_576.txt	LTP336	ltpFR2	3	13	CLIMBER	323	n/a	n/a	0	0	0
2619315	WORD	wordpools/wasnorm_wordpool_576.txt	LTP336	ltpFR2	3	14	CYCLONE	431	n/a	n/a	0	0	0
2621930	WORD	wordpools/wasnorm_wordpool_576.txt	LTP336	ltpFR2	3	14	PASTA	1021	n/a	n/a	0	0	0
2624678	WORD	wordpools/wasnorm_wordpool_576.txt	LTP336	ltpFR2	3	14	BOYFRIEND	162	n/a	n/a	0	0	0
2627361	WORD	wordpools/wasnorm_wordpool_576.txt	LTP336	ltpFR2	3	14	YOLK	1633	n/a	n/a	0	0	0
2629792	WORD	wordpools/wasnorm_wordpool_576.txt	LTP336	ltpFR2	3	14	AIRPLANE	12	n/a	n/a	0	0	0
2632425	WORD	wordpools/wasnorm_wordpool_576.txt	LTP336	ltpFR2	3	14	FLESH	579	n/a	n/a	0	0	0
2635191	WORD	wordpools/wasnorm_wordpool_576.txt	LTP336	ltpFR2	3	14	PIGMENT	1066	n/a	n/a	0	0	0
2637672	WORD	wordpools/wasnorm_wordpool_576.txt	LTP336	ltpFR2	3	14	FLEET	578	n/a	n/a	0	0	0
2640288	WORD	wordpools/wasnorm_wordpool_576.txt	LTP336	ltpFR2	3	14	CRAYON	401	n/a	n/a	0	0	0
2642803	WORD	wordpools/wasnorm_wordpool_576.txt	LTP336	ltpFR2	3	14	GIFT	635	n/a	n/a	0	0	0
2645602	WORD	wordpools/wasnorm_wordpool_576.txt	LTP336	ltpFR2	3	14	TOURIST	1488	n/a	n/a	0	0	0
2648085	WORD	wordpools/wasnorm_wordpool_576.txt	LTP336	ltpFR2	3	14	COURSE	390	n/a	n/a	0	0	0
2650817	WORD	wordpools/wasnorm_wordpool_576.txt	LTP336	ltpFR2	3	14	CHURCH	307	n/a	n/a	0	0	0
2653565	WORD	wordpools/wasnorm_wordpool_576.txt	LTP336	ltpFR2	3	14	STATUE	1374	n/a	n/a	0	0	0
2656165	WORD	wordpools/wasnorm_wordpool_576.txt	LTP336	ltpFR2	3	14	SKETCH	1315	n/a	n/a	0	0	0
2658629	WORD	wordpools/wasnorm_wordpool_576.txt	LTP336	ltpFR2	3	14	MAILBOX	857	n/a	n/a	0	0	0
2661446	WORD	wordpools/wasnorm_wordpool_576.txt	LTP336	ltpFR2	3	14	STAMP	1370	n/a	n/a	0	0	0
2664078	WORD	wordpools/wasnorm_wordpool_576.txt	LTP336	ltpFR2	3	14	PREACHER	1119	n/a	n/a	0	0	0
2666626	WORD	wordpools/wasnorm_wordpool_576.txt	LTP336	ltpFR2	3	14	TRENCH	1503	n/a	n/a	0	0	0
2669209	WORD	wordpools/wasnorm_wordpool_576.txt	LTP336	ltpFR2	3	14	PAIL	1002	n/a	n/a	0	0	0
2671723	WORD	wordpools/wasnorm_wordpool_576.txt	LTP336	ltpFR2	3	14	FIREMAN	569	n/a	n/a	0	0	0
2674156	WORD	wordpools/wasnorm_wordpool_576.txt	LTP336	ltpFR2	3	14	TWISTER	1530	n/a	n/a	0	0	0
2676955	WORD	wordpools/wasnorm_wordpool_576.txt	LTP336	ltpFR2	3	14	MUSTARD	935	n/a	n/a	0	0	0
2679670	WORD	wordpools/wasnorm_wordpool_576.txt	LTP336	ltpFR2	3	14	PARTNER	1017	n/a	n/a	0	0	0
2681287	START	n/a	LTP336	ltpFR2	3	n/a	n/a	n/a	20	n/a	n/a	n/a	n/a
2682248	DISTRACTOR	n/a	LTP336	ltpFR2	3	14	n/a	n/a	n/a	n/a	0	0	0
2682253	PROB	n/a	LTP336	ltpFR2	3	n/a	n/a	n/a	20	14	9	3	2
2685717	PROB	n/a	LTP336	ltpFR2	3	n/a	n/a	n/a	20	18	7	9	2
2687983	PROB	n/a	LTP336	ltpFR2	3	n/a	n/a	n/a	20	15	5	3	7
2690249	PROB	n/a	LTP336	ltpFR2	3	n/a	n/a	n/a	20	12	1	4	7
2693164	PROB	n/a	LTP336	ltpFR2	3	n/a	n/a	n/a	20	15	6	8	1
2695397	PROB	n/a	LTP336	ltpFR2	3	n/a	n/a	n/a	20	11	5	2	4
2697778	PROB	n/a	LTP336	ltpFR2	3	n/a	n/a	n/a	20	20	5	9	6
2700461	PROB	n/a	LTP336	ltpFR2	3	n/a	n/a	n/a	20	14	6	7	1
2702277	PROB	n/a	LTP336	ltpFR2	3	n/a	n/a	n/a	20	11	4	5	2
2703813	STOP	n/a	LTP336	ltpFR2	3	n/a	n/a	n/a	20	n/a	n/a	n/a	n/a
2707192	REC_START	n/a	LTP336	ltpFR2	3	14	n/a	n/a	n/a	n/a	0	0	0
2708179	REC_WORD	wordpools/wasnorm_wordpool_576.txt	LTP336	ltpFR2	3	14	CYCLONE	431	n/a	n/a	0	0	0
2709684	REC_WORD	wordpools/wasnorm_wordpool_576.txt	LTP336	ltpFR2	3	14	MUSTARD	935	n/a	n/a	0	0	0
2711018	REC_WORD	wordpools/wasnorm_wordpool_576.txt	LTP336	ltpFR2	3	14	BOYFRIEND	162	n/a	n/a	0	0	0
2712485	REC_WORD	wordpools/wasnorm_wordpool_576.txt	LTP336	ltpFR2	3	14	AIRPLANE	12	n/a	n/a	0	0	0
2714293	REC_WORD	wordpools/wasnorm_wordpool_576.txt	LTP336	ltpFR2	3	14	TWISTER	1530	n/a	n/a	0	0	0
2717942	REC_WORD	wordpools/wasnorm_wordpool_576.txt	LTP336	ltpFR2	3	14	TOURIST	1488	n/a	n/a	0	0	0
2735911	REC_WORD_VV	wordpools/wasnorm_wordpool_576.txt	LTP336	ltpFR2	3	14	<>	-1	n/a	n/a	0	0	0
2797633	DISTRACTOR	n/a	LTP336	ltpFR2	3	15	n/a	n/a	n/a	n/a	0	0	0
2797633	START	n/a	LTP336	ltpFR2	3	n/a	n/a	n/a	21	n/a	n/a	n/a	n/a
2797650	PROB	n/a	LTP336	ltpFR2	3	n/a	n/a	n/a	21	8	1	5	2
2800565	PROB	n/a	LTP336	ltpFR2	3	n/a	n/a	n/a	21	12	3	5	4
2802315	PROB	n/a	LTP336	ltpFR2	3	n/a	n/a	n/a	21	11	5	1	5
2803580	PROB	n/a	LTP336	ltpFR2	3	n/a	n/a	n/a	21	15	6	6	3
2805181	PROB	n/a	LTP336	ltpFR2	3	n/a	n/a	n/a	21	21	8	4	9
2807180	PROB	n/a	LTP336	ltpFR2	3	n/a	n/a	n/a	21	14	5	3	6
2808945	PROB	n/a	LTP336	ltpFR2	3	n/a	n/a	n/a	21	13	7	1	5
2811560	PROB	n/a	LTP336	ltpFR2	3	n/a	n/a	n/a	21	16	7	7	2
2813027	PROB	n/a	LTP336	ltpFR2	3	n/a	n/a	n/a	21	22	7	8	7
2815675	PROB	n/a	LTP336	ltpFR2	3	n/a	n/a	n/a	21	11	3	5	3
2817342	PROB	n/a	LTP336	ltpFR2	3	n/a	n/a	n/a	21	16	6	5	5
2818807	PROB	n/a	LTP336	ltpFR2	3	n/a	n/a	n/a	21	11	3	1	7
2821632	STOP	n/a	LTP336	ltpFR2	3	n/a	n/a	n/a	21	n/a	n/a	n/a	n/a
2822572	WORD	wordpools/wasnorm_wordpool_576.txt	LTP336	ltpFR2	3	15	FRAME	600	n/a	n/a	0	0	0
2825105	WORD	wordpools/wasnorm_wordpool_576.txt	LTP336	ltpFR2	3	15	MONSTER	912	n/a	n/a	0	0	0
2827887	WORD	wordpools/wasnorm_wordpool_576.txt	LTP336	ltpFR2	3	15	GLOBE	641	n/a	n/a	0	0	0
2830701	WORD	wordpools/wasnorm_wordpool_576.txt	LTP336	ltpFR2	3	15	PISTOL	1075	n/a	n/a	0	0	0
2833318	WORD	wordpools/wasnorm_wordpool_576.txt	LTP336	ltpFR2	3	15	LAKE	796	n/a	n/a	0	0	0
2835867	WORD	wordpools/wasnorm_wordpool_576.txt	LTP336	ltpFR2	3	15	MILDEW	893	n/a	n/a	0	0	0
2838316	WORD	wordpools/wasnorm_wordpool_576.txt	LTP336	ltpFR2	3	15	ICING	732	n/a	n/a	0	0	0
2841014	WORD	wordpools/wasnorm_wordpool_576.txt	LTP336	ltpFR2	3	15	BUREAU	199	n/a	n/a	0	0	0
2843513	WORD	wordpools/wasnorm_wordpool_576.txt	LTP336	ltpFR2	3	15	BRANCH	168	n/a	n/a	0	0	0
2846045	WORD	wordpools/wasnorm_wordpool_576.txt	LTP336	ltpFR2	3	15	HATCHET	691	n/a	n/a	0	0	0
2848810	WORD	wordpools/wasnorm_wordpool_576.txt	LTP336	ltpFR2	3	15	WIDOW	1608	n/a	n/a	0	0	0
2851376	WORD	wordpools/wasnorm_wordpool_576.txt	LTP336	ltpFR2	3	15	LUGGAGE	847	n/a	n/a	0	0	0
2854092	WORD	wordpools/wasnorm_wordpool_576.txt	LTP336	ltpFR2	3	15	JAPAN	749	n/a	n/a	0	0	0
2856590	WORD	wordpools/wasnorm_wordpool_576.txt	LTP336	ltpFR2	3	15	CURTAIN	427	n/a	n/a	0	0	0
2859073	WORD	wordpools/wasnorm_wordpool_576.txt	LTP336	ltpFR2	3	15	GLASS	639	n/a	n/a	0	0	0
2861621	WORD	wordpools/wasnorm_wordpool_576.txt	LTP336	ltpFR2	3	15	PATROL	1027	n/a	n/a	0	0	0
2864437	WORD	wordpools/wasnorm_wordpool_576.txt	LTP336	ltpFR2	3	15	SERVER	1272	n/a	n/a	0	0	0
2867053	WORD	wordpools/wasnorm_wordpool_576.txt	LTP336	ltpFR2	3	15	PORTRAIT	1111	n/a	n/a	0	0	0
2869667	WORD	wordpools/wasnorm_wordpool_576.txt	LTP336	ltpFR2	3	15	PANTHER	1009	n/a	n/a	0	0	0
2872350	WORD	wordpools/wasnorm_wordpool_576.txt	LTP336	ltpFR2	3	15	GUARD	667	n/a	n/a	0	0	0
2874932	WORD	wordpools/wasnorm_wordpool_576.txt	LTP336	ltpFR2	3	15	ARMY	39	n/a	n/a	0	0	0
2877563	WORD	wordpools/wasnorm_wordpool_576.txt	LTP336	ltpFR2	3	15	COLONEL	348	n/a	n/a	0	0	0
2879997	WORD	wordpools/wasnorm_wordpool_576.txt	LTP336	ltpFR2	3	15	GRAVE	658	n/a	n/a	0	0	0
2882529	WORD	wordpools/wasnorm_wordpool_576.txt	LTP336	ltpFR2	3	15	CRICKET	408	n/a	n/a	0	0	0
2884145	START	n/a	LTP336	ltpFR2	3	n/a	n/a	n/a	22	n/a	n/a	n/a	n/a
2885103	DISTRACTOR	n/a	LTP336	ltpFR2	3	15	n/a	n/a	n/a	n/a	0	0	0
2885111	PROB	n/a	LTP336	ltpFR2	3	n/a	n/a	n/a	22	15	8	3	4
2888243	PROB	n/a	LTP336	ltpFR2	3	n/a	n/a	n/a	22	22	6	9	7
2891258	PROB	n/a	LTP336	ltpFR2	3	n/a	n/a	n/a	22	22	9	6	8
2893057	PROB	n/a	LTP336	ltpFR2	3	n/a	n/a	n/a	22	8	1	3	4
2894973	PROB	n/a	LTP336	ltpFR2	3	n/a	n/a	n/a	22	17	9	7	1
2897571	PROB	n/a	LTP336	ltpFR2	3	n/a	n/a	n/a	22	11	5	1	5
2899138	PROB	n/a	LTP336	ltpFR2	3	n/a	n/a	n/a	22	20	6	7	7
2901120	PROB	n/a	LTP336	ltpFR2	3	n/a	n/a	n/a	22	12	6	2	4
2904568	PROB	n/a	LTP336	ltpFR2	3	n/a	n/a	n/a	22	14	4	2	8
2907571	STOP	n/a	LTP336	ltpFR2	3	n/a	n/a	n/a	22	n/a	n/a	n/a	n/a
2909983	REC_START	n/a	LTP336	ltpFR2	3	15	n/a	n/a	n/a	n/a	0	0	0
2910592	REC_WORD	wordpools/wasnorm_wordpool_576.txt	LTP336	ltpFR2	3	15	ARMY	39	n/a	n/a	0	0	0
2911660	REC_WORD	wordpools/wasnorm_wordpool_576.txt	LTP336	ltpFR2	3	15	COLONEL	348	n/a	n/a	0	0	0
2912864	REC_WORD	wordpools/wasnorm_wordpool_576.txt	LTP336	ltpFR2	3	15	CRICKET	408	n/a	n/a	0	0	0
2914627	REC_WORD	wordpools/wasnorm_wordpool_576.txt	LTP336	ltpFR2	3	15	GRAVE	658	n/a	n/a	0	0	0
2915777	REC_WORD	wordpools/wasnorm_wordpool_576.txt	LTP336	ltpFR2	3	15	MONSTER	912	n/a	n/a	0	0	0
2916905	REC_WORD	wordpools/wasnorm_wordpool_576.txt	LTP336	ltpFR2	3	15	MILDEW	893	n/a	n/a	0	0	0
2917853	REC_WORD	wordpools/wasnorm_wordpool_576.txt	LTP336	ltpFR2	3	15	JAPAN	749	n/a	n/a	0	0	0
2919093	REC_WORD	wordpools/wasnorm_wordpool_576.txt	LTP336	ltpFR2	3	15	ICING	732	n/a	n/a	0	0	0
2920568	REC_WORD	wordpools/wasnorm_wordpool_576.txt	LTP336	ltpFR2	3	15	BUREAU	199	n/a	n/a	0	0	0
2921812	REC_WORD	wordpools/wasnorm_wordpool_576.txt	LTP336	ltpFR2	3	15	BRANCH	168	n/a	n/a	0	0	0
3000409	DISTRACTOR	n/a	LTP336	ltpFR2	3	16	n/a	n/a	n/a	n/a	0	0	0
3000409	START	n/a	LTP336	ltpFR2	3	n/a	n/a	n/a	23	n/a	n/a	n/a	n/a
3000426	PROB	n/a	LTP336	ltpFR2	3	n/a	n/a	n/a	23	7	2	2	3
3002707	PROB	n/a	LTP336	ltpFR2	3	n/a	n/a	n/a	23	10	5	2	3
3005057	PROB	n/a	LTP336	ltpFR2	3	n/a	n/a	n/a	23	11	2	5	4
3007522	PROB	n/a	LTP336	ltpFR2	3	n/a	n/a	n/a	23	21	6	7	8
3010620	PROB	n/a	LTP336	ltpFR2	3	n/a	n/a	n/a	23	14	8	3	3
3013003	PROB	n/a	LTP336	ltpFR2	3	n/a	n/a	n/a	23	11	1	3	7
3014502	PROB	n/a	LTP336	ltpFR2	3	n/a	n/a	n/a	23	13	7	4	2
3016302	PROB	n/a	LTP336	ltpFR2	3	n/a	n/a	n/a	23	15	8	4	1
3018001	PROB	n/a	LTP336	ltpFR2	3	n/a	n/a	n/a	23	22	4	9	9
3020050	PROB	n/a	LTP336	ltpFR2	3	n/a	n/a	n/a	23	18	2	7	9
3022382	PROB	n/a	LTP336	ltpFR2	3	n/a	n/a	n/a	23	15	9	5	2
3024320	STOP	n/a	LTP336	ltpFR2	3	n/a	n/a	n/a	23	n/a	n/a	n/a	n/a
3025580	WORD	wordpools/wasnorm_wordpool_576.txt	LTP336	ltpFR2	3	16	GRILL	661	n/a	n/a	0	0	0
3028196	WORD	wordpools/wasnorm_wordpool_576.txt	LTP336	ltpFR2	3	16	BABY	64	n/a	n/a	0	0	0
3030995	WORD	wordpools/wasnorm_wordpool_576.txt	LTP336	ltpFR2	3	16	REBEL	1172	n/a	n/a	0	0	0
3033676	WORD	wordpools/wasnorm_wordpool_576.txt	LTP336	ltpFR2	3	16	TWIG	1527	n/a	n/a	0	0	0
3036326	WORD	wordpools/wasnorm_wordpool_576.txt	LTP336	ltpFR2	3	16	FOREST	593	n/a	n/a	0	0	0
3038825	WORD	wordpools/wasnorm_wordpool_576.txt	LTP336	ltpFR2	3	16	CLOUD	328	n/a	n/a	0	0	0
3041424	WORD	wordpools/wasnorm_wordpool_576.txt	LTP336	ltpFR2	3	16	GREASE	660	n/a	n/a	0	0	0
3044189	WORD	wordpools/wasnorm_wordpool_576.txt	LTP336	ltpFR2	3	16	RIVER	1194	n/a	n/a	0	0	0
3046904	WORD	wordpools/wasnorm_wordpool_576.txt	LTP336	ltpFR2	3	16	PUDDLE	1140	n/a	n/a	0	0	0
3049387	WORD	wordpools/wasnorm_wordpool_576.txt	LTP336	ltpFR2	3	16	TERMITE	1451	n/a	n/a	0	0	0
3052019	WORD	wordpools/wasnorm_wordpool_576.txt	LTP336	ltpFR2	3	16	DRINK	498	n/a	n/a	0	0	0
3054733	WORD	wordpools/wasnorm_wordpool_576.txt	LTP336	ltpFR2	3	16	SPARROW	1347	n/a	n/a	0	0	0
3057383	WORD	wordpools/wasnorm_wordpool_576.txt	LTP336	ltpFR2	3	16	PLATE	1086	n/a	n/a	0	0	0
3060149	WORD	wordpools/wasnorm_wordpool_576.txt	LTP336	ltpFR2	3	16	TURKEY	1520	n/a	n/a	0	0	0
3062680	WORD	wordpools/wasnorm_wordpool_576.txt	LTP336	ltpFR2	3	16	CASHIER	254	n/a	n/a	0	0	0
3065146	WORD	wordpools/wasnorm_wordpool_576.txt	LTP336	ltpFR2	3	16	EAGLE	512	n/a	n/a	0	0	0
3067627	WORD	wordpools/wasnorm_wordpool_576.txt	LTP336	ltpFR2	3	16	OINTMENT	974	n/a	n/a	0	0	0
3070327	WORD	wordpools/wasnorm_wordpool_576.txt	LTP336	ltpFR2	3	16	GANGSTER	620	n/a	n/a	0	0	0
3073009	WORD	wordpools/wasnorm_wordpool_576.txt	LTP336	ltpFR2	3	16	GALLON	618	n/a	n/a	0	0	0
3075492	WORD	wordpools/wasnorm_wordpool_576.txt	LTP336	ltpFR2	3	16	TUNNEL	1519	n/a	n/a	0	0	0
3078224	WORD	wordpools/wasnorm_wordpool_576.txt	LTP336	ltpFR2	3	16	KEEPER	769	n/a	n/a	0	0	0
3080655	WORD	wordpools/wasnorm_wordpool_576.txt	LTP336	ltpFR2	3	16	COD	340	n/a	n/a	0	0	0
3083405	WORD	wordpools/wasnorm_wordpool_576.txt	LTP336	ltpFR2	3	16	SWIMMER	1420	n/a	n/a	0	0	0
3085920	WORD	wordpools/wasnorm_wordpool_576.txt	LTP336	ltpFR2	3	16	COCOON	339	n/a	n/a	0	0	0
3087536	START	n/a	LTP336	ltpFR2	3	n/a	n/a	n/a	24	n/a	n/a	n/a	n/a
3088676	DISTRACTOR	n/a	LTP336	ltpFR2	3	16	n/a	n/a	n/a	n/a	0	0	0
3088685	PROB	n/a	LTP336	ltpFR2	3	n/a	n/a	n/a	24	18	1	9	8
3090667	PROB	n/a	LTP336	ltpFR2	3	n/a	n/a	n/a	24	12	2	3	7
3092217	PROB	n/a	LTP336	ltpFR2	3	n/a	n/a	n/a	24	23	7	9	7
3095648	PROB	n/a	LTP336	ltpFR2	3	n/a	n/a	n/a	24	18	6	4	8
3097182	PROB	n/a	LTP336	ltpFR2	3	n/a	n/a	n/a	24	15	6	4	5
3098914	PROB	n/a	LTP336	ltpFR2	3	n/a	n/a	n/a	24	13	2	7	4
3100579	PROB	n/a	LTP336	ltpFR2	3	n/a	n/a	n/a	24	13	2	5	6
3102662	PROB	n/a	LTP336	ltpFR2	3	n/a	n/a	n/a	24	14	6	6	2
3104179	PROB	n/a	LTP336	ltpFR2	3	n/a	n/a	n/a	24	16	9	1	6
3105693	PROB	n/a	LTP336	ltpFR2	3	n/a	n/a	n/a	24	17	4	6	7
3107593	PROB	n/a	LTP336	ltpFR2	3	n/a	n/a	n/a	24	17	7	8	2
3110580	STOP	n/a	LTP336	ltpFR2	3	n/a	n/a	n/a	24	n/a	n/a	n/a	n/a
3113342	REC_START	n/a	LTP336	ltpFR2	3	16	n/a	n/a	n/a	n/a	0	0	0
3113731	REC_WORD_VV	wordpools/wasnorm_wordpool_576.txt	LTP336	ltpFR2	3	16	<>	-1	n/a	n/a	0	0	0
3114225	REC_WORD	wordpools/wasnorm_wordpool_576.txt	LTP336	ltpFR2	3	16	COD	340	n/a	n/a	0	0	0
3115117	REC_WORD	wordpools/wasnorm_wordpool_576.txt	LTP336	ltpFR2	3	16	COCOON	339	n/a	n/a	0	0	0
3116295	REC_WORD	wordpools/wasnorm_wordpool_576.txt	LTP336	ltpFR2	3	16	CASHIER	254	n/a	n/a	0	0	0
3117969	REC_WORD	wordpools/wasnorm_wordpool_576.txt	LTP336	ltpFR2	3	16	EAGLE	512	n/a	n/a	0	0	0
3119133	REC_WORD	wordpools/wasnorm_wordpool_576.txt	LTP336	ltpFR2	3	16	SPARROW	1347	n/a	n/a	0	0	0
3120694	REC_WORD	wordpools/wasnorm_wordpool_576.txt	LTP336	ltpFR2	3	16	GREASE	660	n/a	n/a	0	0	0
3122088	REC_WORD	wordpools/wasnorm_wordpool_576.txt	LTP336	ltpFR2	3	16	BABY	64	n/a	n/a	0	0	0
3123016	REC_WORD	wordpools/wasnorm_wordpool_576.txt	LTP336	ltpFR2	3	16	PLATE	1086	n/a	n/a	0	0	0
3124373	REC_WORD	wordpools/wasnorm_wordpool_576.txt	LTP336	ltpFR2	3	16	RIVER	1194	n/a	n/a	0	0	0
3125500	REC_WORD	wordpools/wasnorm_wordpool_576.txt	LTP336	ltpFR2	3	16	PUDDLE	1140	n/a	n/a	0	0	0
3126938	REC_WORD	wordpools/wasnorm_wordpool_576.txt	LTP336	ltpFR2	3	16	FOREST	593	n/a	n/a	0	0	0
3128236	REC_WORD	wordpools/wasnorm_wordpool_576.txt	LTP336	ltpFR2	3	16	CLOUD	328	n/a	n/a	0	0	0
3136112	REC_WORD	wordpools/wasnorm_wordpool_576.txt	LTP336	ltpFR2	3	16	EAGLE	512	n/a	n/a	0	0	0
3189890	REST_REWET	n/a	LTP336	ltpFR2	3	16	n/a	n/a	n/a	n/a	0	0	0
3357047	WORD	wordpools/wasnorm_wordpool_576.txt	LTP336	ltpFR2	3	17	CREATURE	403	n/a	n/a	0	0	0
3359695	WORD	wordpools/wasnorm_wordpool_576.txt	LTP336	ltpFR2	3	17	BEAVER	109	n/a	n/a	0	0	0
3362262	WORD	wordpools/wasnorm_wordpool_576.txt	LTP336	ltpFR2	3	17	BRIEFCASE	175	n/a	n/a	0	0	0
3364960	WORD	wordpools/wasnorm_wordpool_576.txt	LTP336	ltpFR2	3	17	SUITCASE	1403	n/a	n/a	0	0	0
3367658	WORD	wordpools/wasnorm_wordpool_576.txt	LTP336	ltpFR2	3	17	TRANSPLANT	1496	n/a	n/a	0	0	0
3370375	WORD	wordpools/wasnorm_wordpool_576.txt	LTP336	ltpFR2	3	17	JELLY	755	n/a	n/a	0	0	0
3372957	WORD	wordpools/wasnorm_wordpool_576.txt	LTP336	ltpFR2	3	17	SHORTCAKE	1292	n/a	n/a	0	0	0
3375638	WORD	wordpools/wasnorm_wordpool_576.txt	LTP336	ltpFR2	3	17	BLACKBOARD	133	n/a	n/a	0	0	0
3378221	WORD	wordpools/wasnorm_wordpool_576.txt	LTP336	ltpFR2	3	17	BOARD	143	n/a	n/a	0	0	0
3380887	WORD	wordpools/wasnorm_wordpool_576.txt	LTP336	ltpFR2	3	17	PRIMATE	1123	n/a	n/a	0	0	0
3383402	WORD	wordpools/wasnorm_wordpool_576.txt	LTP336	ltpFR2	3	17	TOMBSTONE	1478	n/a	n/a	0	0	0
3386118	WORD	wordpools/wasnorm_wordpool_576.txt	LTP336	ltpFR2	3	17	WAITRESS	1581	n/a	n/a	0	0	0
3388715	WORD	wordpools/wasnorm_wordpool_576.txt	LTP336	ltpFR2	3	17	AGENT	10	n/a	n/a	0	0	0
3391465	WORD	wordpools/wasnorm_wordpool_576.txt	LTP336	ltpFR2	3	17	MAMMAL	861	n/a	n/a	0	0	0
3393947	WORD	wordpools/wasnorm_wordpool_576.txt	LTP336	ltpFR2	3	17	COCKTAIL	338	n/a	n/a	0	0	0
3396612	WORD	wordpools/wasnorm_wordpool_576.txt	LTP336	ltpFR2	3	17	TUTU	1524	n/a	n/a	0	0	0
3399195	WORD	wordpools/wasnorm_wordpool_576.txt	LTP336	ltpFR2	3	17	CABBAGE	210	n/a	n/a	0	0	0
3401944	WORD	wordpools/wasnorm_wordpool_576.txt	LTP336	ltpFR2	3	17	TOASTER	1472	n/a	n/a	0	0	0
3404625	WORD	wordpools/wasnorm_wordpool_576.txt	LTP336	ltpFR2	3	17	PORK	1108	n/a	n/a	0	0	0
3407141	WORD	wordpools/wasnorm_wordpool_576.txt	LTP336	ltpFR2	3	17	GARLIC	624	n/a	n/a	0	0	0
3409789	WORD	wordpools/wasnorm_wordpool_576.txt	LTP336	ltpFR2	3	17	PADDLE	1000	n/a	n/a	0	0	0
3412422	WORD	wordpools/wasnorm_wordpool_576.txt	LTP336	ltpFR2	3	17	POLICE	1098	n/a	n/a	0	0	0
3415221	WORD	wordpools/wasnorm_wordpool_576.txt	LTP336	ltpFR2	3	17	DUSTPAN	509	n/a	n/a	0	0	0
3418036	WORD	wordpools/wasnorm_wordpool_576.txt	LTP336	ltpFR2	3	17	LETTUCE	814	n/a	n/a	0	0	0
3419651	START	n/a	LTP336	ltpFR2	3	n/a	n/a	n/a	25	n/a	n/a	n/a	n/a
3420551	DISTRACTOR	n/a	LTP336	ltpFR2	3	17	n/a	n/a	n/a	n/a	0	0	0
3420568	PROB	n/a	LTP336	ltpFR2	3	n/a	n/a	n/a	25	12	5	5	2
3422783	PROB	n/a	LTP336	ltpFR2	3	n/a	n/a	n/a	25	16	4	8	4
3425033	PROB	n/a	LTP336	ltpFR2	3	n/a	n/a	n/a	25	11	2	7	2
3426433	PROB	n/a	LTP336	ltpFR2	3	n/a	n/a	n/a	25	7	1	3	3
3428647	PROB	n/a	LTP336	ltpFR2	3	n/a	n/a	n/a	25	11	4	4	3
3430397	PROB	n/a	LTP336	ltpFR2	3	n/a	n/a	n/a	25	6	3	1	2
3433313	PROB	n/a	LTP336	ltpFR2	3	n/a	n/a	n/a	25	23	6	8	9
3437178	PROB	n/a	LTP336	ltpFR2	3	n/a	n/a	n/a	25	14	6	1	7
3439044	PROB	n/a	LTP336	ltpFR2	3	n/a	n/a	n/a	25	15	6	8	1
3441309	PROB	n/a	LTP336	ltpFR2	3	n/a	n/a	n/a	25	10	2	5	3
3443317	STOP	n/a	LTP336	ltpFR2	3	n/a	n/a	n/a	25	n/a	n/a	n/a	n/a
3445410	REC_START	n/a	LTP336	ltpFR2	3	17	n/a	n/a	n/a	n/a	0	0	0
3446238	REC_WORD	wordpools/wasnorm_wordpool_576.txt	LTP336	ltpFR2	3	17	GARLIC	624	n/a	n/a	0	0	0
3447242	REC_WORD	wordpools/wasnorm_wordpool_576.txt	LTP336	ltpFR2	3	17	DUSTPAN	509	n/a	n/a	0	0	0
3448512	REC_WORD	wordpools/wasnorm_wordpool_576.txt	LTP336	ltpFR2	3	17	BEAVER	109	n/a	n/a	0	0	0
3449611	REC_WORD	wordpools/wasnorm_wordpool_576.txt	LTP336	ltpFR2	3	17	MAMMAL	861	n/a	n/a	0	0	0
3450714	REC_WORD	wordpools/wasnorm_wordpool_576.txt	LTP336	ltpFR2	3	17	CREATURE	403	n/a	n/a	0	0	0
3452329	REC_WORD	wordpools/wasnorm_wordpool_576.txt	LTP336	ltpFR2	3	17	LUGGAGE	847	n/a	n/a	0	0	0
3453463	REC_WORD	wordpools/wasnorm_wordpool_576.txt	LTP336	ltpFR2	3	17	SUITCASE	1403	n/a	n/a	0	0	0
3455004	REC_WORD	wordpools/wasnorm_wordpool_576.txt	LTP336	ltpFR2	3	17	JELLY	755	n/a	n/a	0	0	0
3456246	REC_WORD	wordpools/wasnorm_wordpool_576.txt	LTP336	ltpFR2	3	17	SHORTCAKE	1292	n/a	n/a	0	0	0
3535850	WORD	wordpools/wasnorm_wordpool_576.txt	LTP336	ltpFR2	3	18	PLAZA	1088	n/a	n/a	0	0	0
3538614	WORD	wordpools/wasnorm_wordpool_576.txt	LTP336	ltpFR2	3	18	JELLO	754	n/a	n/a	0	0	0
3541281	WORD	wordpools/wasnorm_wordpool_576.txt	LTP336	ltpFR2	3	18	CUSTARD	429	n/a	n/a	0	0	0
3543745	WORD	wordpools/wasnorm_wordpool_576.txt	LTP336	ltpFR2	3	18	BEEF	113	n/a	n/a	0	0	0
3546195	WORD	wordpools/wasnorm_wordpool_576.txt	LTP336	ltpFR2	3	18	CATTLE	261	n/a	n/a	0	0	0
3548810	WORD	wordpools/wasnorm_wordpool_576.txt	LTP336	ltpFR2	3	18	SWORD	1423	n/a	n/a	0	0	0
3551376	WORD	wordpools/wasnorm_wordpool_576.txt	LTP336	ltpFR2	3	18	TART	1436	n/a	n/a	0	0	0
3554075	WORD	wordpools/wasnorm_wordpool_576.txt	LTP336	ltpFR2	3	18	ONION	977	n/a	n/a	0	0	0
3556840	WORD	wordpools/wasnorm_wordpool_576.txt	LTP336	ltpFR2	3	18	SNAIL	1332	n/a	n/a	0	0	0
3559406	WORD	wordpools/wasnorm_wordpool_576.txt	LTP336	ltpFR2	3	18	COWBOY	395	n/a	n/a	0	0	0
3561955	WORD	wordpools/wasnorm_wordpool_576.txt	LTP336	ltpFR2	3	18	CRAB	397	n/a	n/a	0	0	0
3564537	WORD	wordpools/wasnorm_wordpool_576.txt	LTP336	ltpFR2	3	18	COUSIN	392	n/a	n/a	0	0	0
3567086	WORD	wordpools/wasnorm_wordpool_576.txt	LTP336	ltpFR2	3	18	FRIEND	606	n/a	n/a	0	0	0
3569683	WORD	wordpools/wasnorm_wordpool_576.txt	LTP336	ltpFR2	3	18	CASKET	255	n/a	n/a	0	0	0
3572483	WORD	wordpools/wasnorm_wordpool_576.txt	LTP336	ltpFR2	3	18	PISTON	1076	n/a	n/a	0	0	0
3575165	WORD	wordpools/wasnorm_wordpool_576.txt	LTP336	ltpFR2	3	18	BLADE	134	n/a	n/a	0	0	0
3577814	WORD	wordpools/wasnorm_wordpool_576.txt	LTP336	ltpFR2	3	18	PRINCE	1124	n/a	n/a	0	0	0
3580595	WORD	wordpools/wasnorm_wordpool_576.txt	LTP336	ltpFR2	3	18	WIFE	1609	n/a	n/a	0	0	0
3583262	WORD	wordpools/wasnorm_wordpool_576.txt	LTP336	ltpFR2	3	18	DAISY	435	n/a	n/a	0	0	0
3585994	WORD	wordpools/wasnorm_wordpool_576.txt	LTP336	ltpFR2	3	18	PALACE	1006	n/a	n/a	0	0	0
3588691	WORD	wordpools/wasnorm_wordpool_576.txt	LTP336	ltpFR2	3	18	POET	1095	n/a	n/a	0	0	0
3591458	WORD	wordpools/wasnorm_wordpool_576.txt	LTP336	ltpFR2	3	18	OYSTER	995	n/a	n/a	0	0	0
3594007	WORD	wordpools/wasnorm_wordpool_576.txt	LTP336	ltpFR2	3	18	LUNCH	849	n/a	n/a	0	0	0
3596788	WORD	wordpools/wasnorm_wordpool_576.txt	LTP336	ltpFR2	3	18	SHELF	1280	n/a	n/a	0	0	0
3598405	START	n/a	LTP336	ltpFR2	3	n/a	n/a	n/a	26	n/a	n/a	n/a	n/a
3599441	DISTRACTOR	n/a	LTP336	ltpFR2	3	18	n/a	n/a	n/a	n/a	0	0	0
3599454	PROB	n/a	LTP336	ltpFR2	3	n/a	n/a	n/a	26	10	2	7	1
3601636	PROB	n/a	LTP336	ltpFR2	3	n/a	n/a	n/a	26	11	6	1	4
3603203	PROB	n/a	LTP336	ltpFR2	3	n/a	n/a	n/a	26	19	5	5	9
3604634	PROB	n/a	LTP336	ltpFR2	3	n/a	n/a	n/a	26	18	6	3	9
3606683	PROB	n/a	LTP336	ltpFR2	3	n/a	n/a	n/a	26	12	1	2	9
3608067	PROB	n/a	LTP336	ltpFR2	3	n/a	n/a	n/a	26	16	2	7	7
3609582	PROB	n/a	LTP336	ltpFR2	3	n/a	n/a	n/a	26	20	7	4	9
3614498	PROB	n/a	LTP336	ltpFR2	3	n/a	n/a	n/a	26	11	5	3	3
3616030	PROB	n/a	LTP336	ltpFR2	3	n/a	n/a	n/a	26	21	9	7	6
3618262	PROB	n/a	LTP336	ltpFR2	3	n/a	n/a	n/a	26	20	7	6	7
3621090	STOP	n/a	LTP336	ltpFR2	3	n/a	n/a	n/a	26	n/a	n/a	n/a	n/a
3624243	REC_START	n/a	LTP336	ltpFR2	3	18	n/a	n/a	n/a	n/a	0	0	0
3625094	REC_WORD	wordpools/wasnorm_wordpool_576.txt	LTP336	ltpFR2	3	18	OYSTER	995	n/a	n/a	0	0	0
3626262	REC_WORD	wordpools/wasnorm_wordpool_576.txt	LTP336	ltpFR2	3	18	LUNCH	849	n/a	n/a	0	0	0
3627366	REC_WORD	wordpools/wasnorm_wordpool_576.txt	LTP336	ltpFR2	3	18	SHELF	1280	n/a	n/a	0	0	0
3628594	REC_WORD	wordpools/wasnorm_wordpool_576.txt	LTP336	ltpFR2	3	18	POET	1095	n/a	n/a	0	0	0
3632402	REC_WORD	wordpools/wasnorm_wordpool_576.txt	LTP336	ltpFR2	3	18	PRINCESS	1125	n/a	n/a	0	0	0
3641557	REC_WORD	wordpools/wasnorm_wordpool_576.txt	LTP336	ltpFR2	3	18	JELLY	755	n/a	n/a	0	0	0
3642989	REC_WORD	wordpools/wasnorm_wordpool_576.txt	LTP336	ltpFR2	3	18	JELLO	754	n/a	n/a	0	0	0
3645963	REC_WORD	wordpools/wasnorm_wordpool_576.txt	LTP336	ltpFR2	3	18	TART	1436	n/a	n/a	0	0	0
3654397	REC_WORD	wordpools/wasnorm_wordpool_576.txt	LTP336	ltpFR2	3	18	OYSTER	995	n/a	n/a	0	0	0
3714684	DISTRACTOR	n/a	LTP336	ltpFR2	3	19	n/a	n/a	n/a	n/a	0	0	0
3714685	START	n/a	LTP336	ltpFR2	3	n/a	n/a	n/a	27	n/a	n/a	n/a	n/a
3714701	PROB	n/a	LTP336	ltpFR2	3	n/a	n/a	n/a	27	24	6	9	9
3717501	PROB	n/a	LTP336	ltpFR2	3	n/a	n/a	n/a	27	20	5	6	9
3720582	PROB	n/a	LTP336	ltpFR2	3	n/a	n/a	n/a	27	24	9	8	7
3724298	PROB	n/a	LTP336	ltpFR2	3	n/a	n/a	n/a	27	17	1	8	8
3725930	PROB	n/a	LTP336	ltpFR2	3	n/a	n/a	n/a	27	13	7	1	5
3727662	PROB	n/a	LTP336	ltpFR2	3	n/a	n/a	n/a	27	12	2	5	5
3729029	PROB	n/a	LTP336	ltpFR2	3	n/a	n/a	n/a	27	15	7	4	4
3731528	PROB	n/a	LTP336	ltpFR2	3	n/a	n/a	n/a	27	12	1	4	7
3733643	PROB	n/a	LTP336	ltpFR2	3	n/a	n/a	n/a	27	16	9	1	6
3735309	PROB	n/a	LTP336	ltpFR2	3	n/a	n/a	n/a	27	15	5	9	2
3737270	STOP	n/a	LTP336	ltpFR2	3	n/a	n/a	n/a	27	n/a	n/a	n/a	n/a
3739757	WORD	wordpools/wasnorm_wordpool_576.txt	LTP336	ltpFR2	3	19	HOSTESS	723	n/a	n/a	0	0	0
3742555	WORD	wordpools/wasnorm_wordpool_576.txt	LTP336	ltpFR2	3	19	KETCHUP	771	n/a	n/a	0	0	0
3744988	WORD	wordpools/wasnorm_wordpool_576.txt	LTP336	ltpFR2	3	19	CHIPMUNK	304	n/a	n/a	0	0	0
3747570	WORD	wordpools/wasnorm_wordpool_576.txt	LTP336	ltpFR2	3	19	CRITIC	410	n/a	n/a	0	0	0
3750103	WORD	wordpools/wasnorm_wordpool_576.txt	LTP336	ltpFR2	3	19	MUFFIN	929	n/a	n/a	0	0	0
3752535	WORD	wordpools/wasnorm_wordpool_576.txt	LTP336	ltpFR2	3	19	LADY	794	n/a	n/a	0	0	0
3755034	WORD	wordpools/wasnorm_wordpool_576.txt	LTP336	ltpFR2	3	19	HORSE	719	n/a	n/a	0	0	0
3757549	WORD	wordpools/wasnorm_wordpool_576.txt	LTP336	ltpFR2	3	19	TROMBONE	1508	n/a	n/a	0	0	0
3760032	WORD	wordpools/wasnorm_wordpool_576.txt	LTP336	ltpFR2	3	19	BUBBLE	183	n/a	n/a	0	0	0
3762464	WORD	wordpools/wasnorm_wordpool_576.txt	LTP336	ltpFR2	3	19	HIKER	708	n/a	n/a	0	0	0
3765263	WORD	wordpools/wasnorm_wordpool_576.txt	LTP336	ltpFR2	3	19	SIDEWALK	1303	n/a	n/a	0	0	0
3767777	WORD	wordpools/wasnorm_wordpool_576.txt	LTP336	ltpFR2	3	19	RELISH	1183	n/a	n/a	0	0	0
3770592	WORD	wordpools/wasnorm_wordpool_576.txt	LTP336	ltpFR2	3	19	SANDWICH	1232	n/a	n/a	0	0	0
3773392	WORD	wordpools/wasnorm_wordpool_576.txt	LTP336	ltpFR2	3	19	SALMON	1227	n/a	n/a	0	0	0
3776008	WORD	wordpools/wasnorm_wordpool_576.txt	LTP336	ltpFR2	3	19	ACTOR	5	n/a	n/a	0	0	0
3778457	WORD	wordpools/wasnorm_wordpool_576.txt	LTP336	ltpFR2	3	19	OUTFIT	988	n/a	n/a	0	0	0
3780989	WORD	wordpools/wasnorm_wordpool_576.txt	LTP336	ltpFR2	3	19	CANAL	226	n/a	n/a	0	0	0
3783521	WORD	wordpools/wasnorm_wordpool_576.txt	LTP336	ltpFR2	3	19	OUTDOORS	987	n/a	n/a	0	0	0
3786336	WORD	wordpools/wasnorm_wordpool_576.txt	LTP336	ltpFR2	3	19	SHARK	1275	n/a	n/a	0	0	0
3789118	WORD	wordpools/wasnorm_wordpool_576.txt	LTP336	ltpFR2	3	19	CELLAR	267	n/a	n/a	0	0	0
3791917	WORD	wordpools/wasnorm_wordpool_576.txt	LTP336	ltpFR2	3	19	OZONE	996	n/a	n/a	0	0	0
3794516	WORD	wordpools/wasnorm_wordpool_576.txt	LTP336	ltpFR2	3	19	SLIDE	1326	n/a	n/a	0	0	0
3797281	WORD	wordpools/wasnorm_wordpool_576.txt	LTP336	ltpFR2	3	19	SALT	1229	n/a	n/a	0	0	0
3800080	WORD	wordpools/wasnorm_wordpool_576.txt	LTP336	ltpFR2	3	19	PEPPER	1047	n/a	n/a	0	0	0
3801695	START	n/a	LTP336	ltpFR2	3	n/a	n/a	n/a	28	n/a	n/a	n/a	n/a
3802780	DISTRACTOR	n/a	LTP336	ltpFR2	3	19	n/a	n/a	n/a	n/a	0	0	0
3802794	PROB	n/a	LTP336	ltpFR2	3	n/a	n/a	n/a	28	12	5	4	3
3804978	PROB	n/a	LTP336	ltpFR2	3	n/a	n/a	n/a	28	16	4	4	8
3807344	PROB	n/a	LTP336	ltpFR2	3	n/a	n/a	n/a	28	18	8	6	4
3809326	PROB	n/a	LTP336	ltpFR2	3	n/a	n/a	n/a	28	12	3	3	6
3811009	PROB	n/a	LTP336	ltpFR2	3	n/a	n/a	n/a	28	15	5	6	4
3812958	PROB	n/a	LTP336	ltpFR2	3	n/a	n/a	n/a	28	19	8	6	5
3815373	PROB	n/a	LTP336	ltpFR2	3	n/a	n/a	n/a	28	9	3	1	5
3818488	PROB	n/a	LTP336	ltpFR2	3	n/a	n/a	n/a	28	14	6	3	5
3821104	PROB	n/a	LTP336	ltpFR2	3	n/a	n/a	n/a	28	20	7	9	4
3823585	PROB	n/a	LTP336	ltpFR2	3	n/a	n/a	n/a	28	22	9	4	9
3825137	STOP	n/a	LTP336	ltpFR2	3	n/a	n/a	n/a	28	n/a	n/a	n/a	n/a
3827551	REC_START	n/a	LTP336	ltpFR2	3	19	n/a	n/a	n/a	n/a	0	0	0
3827896	REC_WORD	wordpools/wasnorm_wordpool_576.txt	LTP336	ltpFR2	3	19	SALT	1229	n/a	n/a	0	0	0
3828970	REC_WORD	wordpools/wasnorm_wordpool_576.txt	LTP336	ltpFR2	3	19	PEPPER	1047	n/a	n/a	0	0	0
3830005	REC_WORD	wordpools/wasnorm_wordpool_576.txt	LTP336	ltpFR2	3	19	KETCHUP	771	n/a	n/a	0	0	0
3831000	REC_WORD	wordpools/wasnorm_wordpool_576.txt	LTP336	ltpFR2	3	19	HOSTESS	723	n/a	n/a	0	0	0
3832929	REC_WORD	wordpools/wasnorm_wordpool_576.txt	LTP336	ltpFR2	3	19	OUTDOORS	987	n/a	n/a	0	0	0
3834171	REC_WORD	wordpools/wasnorm_wordpool_576.txt	LTP336	ltpFR2	3	19	SIDEWALK	1303	n/a	n/a	0	0	0
3837323	REC_WORD_VV	wordpools/wasnorm_wordpool_576.txt	LTP336	ltpFR2	3	19	<>	-1	n/a	n/a	0	0	0
3838113	REC_WORD	wordpools/wasnorm_wordpool_576.txt	LTP336	ltpFR2	3	19	SANDWICH	1232	n/a	n/a	0	0	0
3839214	REC_WORD	wordpools/wasnorm_wordpool_576.txt	LTP336	ltpFR2	3	19	SALMON	1227	n/a	n/a	0	0	0
3840856	REC_WORD	wordpools/wasnorm_wordpool_576.txt	LTP336	ltpFR2	3	19	RELISH	1183	n/a	n/a	0	0	0
3841900	REC_WORD	wordpools/wasnorm_wordpool_576.txt	LTP336	ltpFR2	3	19	MUFFIN	929	n/a	n/a	0	0	0
3843150	REC_WORD	wordpools/wasnorm_wordpool_576.txt	LTP336	ltpFR2	3	19	CRITIC	410	n/a	n/a	0	0	0
3846807	REC_WORD	wordpools/wasnorm_wordpool_576.txt	LTP336	ltpFR2	3	19	HIKER	708	n/a	n/a	0	0	0
3851322	REC_WORD	wordpools/wasnorm_wordpool_576.txt	LTP336	ltpFR2	3	19	BUBBLE	183	n/a	n/a	0	0	0
3854589	REC_WORD	wordpools/wasnorm_wordpool_576.txt	LTP336	ltpFR2	3	19	BUBBLE	183	n/a	n/a	0	0	0
3866467	REC_WORD	wordpools/wasnorm_wordpool_576.txt	LTP336	ltpFR2	3	19	LADY	794	n/a	n/a	0	0	0
3918010	WORD	wordpools/wasnorm_wordpool_576.txt	LTP336	ltpFR2	3	20	BRICK	172	n/a	n/a	0	0	0
3920825	WORD	wordpools/wasnorm_wordpool_576.txt	LTP336	ltpFR2	3	20	PUPIL	1143	n/a	n/a	0	0	0
3923441	WORD	wordpools/wasnorm_wordpool_576.txt	LTP336	ltpFR2	3	20	VENUS	1557	n/a	n/a	0	0	0
3926090	WORD	wordpools/wasnorm_wordpool_576.txt	LTP336	ltpFR2	3	20	SKIRT	1319	n/a	n/a	0	0	0
3928671	WORD	wordpools/wasnorm_wordpool_576.txt	LTP336	ltpFR2	3	20	DORM	488	n/a	n/a	0	0	0
3931137	WORD	wordpools/wasnorm_wordpool_576.txt	LTP336	ltpFR2	3	20	SUNSET	1408	n/a	n/a	0	0	0
3933802	WORD	wordpools/wasnorm_wordpool_576.txt	LTP336	ltpFR2	3	20	PLAID	1080	n/a	n/a	0	0	0
3936485	WORD	wordpools/wasnorm_wordpool_576.txt	LTP336	ltpFR2	3	20	QUAIL	1147	n/a	n/a	0	0	0
3938951	WORD	wordpools/wasnorm_wordpool_576.txt	LTP336	ltpFR2	3	20	HAWK	692	n/a	n/a	0	0	0
3941698	WORD	wordpools/wasnorm_wordpool_576.txt	LTP336	ltpFR2	3	20	LOFT	840	n/a	n/a	0	0	0
3944382	WORD	wordpools/wasnorm_wordpool_576.txt	LTP336	ltpFR2	3	20	PIZZA	1079	n/a	n/a	0	0	0
3946897	WORD	wordpools/wasnorm_wordpool_576.txt	LTP336	ltpFR2	3	20	ASIA	46	n/a	n/a	0	0	0
3949695	WORD	wordpools/wasnorm_wordpool_576.txt	LTP336	ltpFR2	3	20	COUNTY	389	n/a	n/a	0	0	0
3952511	WORD	wordpools/wasnorm_wordpool_576.txt	LTP336	ltpFR2	3	20	POPCORN	1104	n/a	n/a	0	0	0
3955260	WORD	wordpools/wasnorm_wordpool_576.txt	LTP336	ltpFR2	3	20	FILM	565	n/a	n/a	0	0	0
3957758	WORD	wordpools/wasnorm_wordpool_576.txt	LTP336	ltpFR2	3	20	STONE	1385	n/a	n/a	0	0	0
3960258	WORD	wordpools/wasnorm_wordpool_576.txt	LTP336	ltpFR2	3	20	SUBWAY	1400	n/a	n/a	0	0	0
3963023	WORD	wordpools/wasnorm_wordpool_576.txt	LTP336	ltpFR2	3	20	GRIZZLY	662	n/a	n/a	0	0	0
3965555	WORD	wordpools/wasnorm_wordpool_576.txt	LTP336	ltpFR2	3	20	DANDRUFF	439	n/a	n/a	0	0	0
3967987	WORD	wordpools/wasnorm_wordpool_576.txt	LTP336	ltpFR2	3	20	HEADBAND	696	n/a	n/a	0	0	0
3970520	WORD	wordpools/wasnorm_wordpool_576.txt	LTP336	ltpFR2	3	20	MARKET	871	n/a	n/a	0	0	0
3973168	WORD	wordpools/wasnorm_wordpool_576.txt	LTP336	ltpFR2	3	20	BOX	159	n/a	n/a	0	0	0
3975884	WORD	wordpools/wasnorm_wordpool_576.txt	LTP336	ltpFR2	3	20	TRACTOR	1493	n/a	n/a	0	0	0
3978399	WORD	wordpools/wasnorm_wordpool_576.txt	LTP336	ltpFR2	3	20	SHERIFF	1284	n/a	n/a	0	0	0
3980016	START	n/a	LTP336	ltpFR2	3	n/a	n/a	n/a	29	n/a	n/a	n/a	n/a
3980860	DISTRACTOR	n/a	LTP336	ltpFR2	3	20	n/a	n/a	n/a	n/a	0	0	0
3980865	PROB	n/a	LTP336	ltpFR2	3	n/a	n/a	n/a	29	14	3	6	5
3985795	PROB	n/a	LTP336	ltpFR2	3	n/a	n/a	n/a	29	14	4	7	3
3987295	PROB	n/a	LTP336	ltpFR2	3	n/a	n/a	n/a	29	12	8	1	3
3989328	PROB	n/a	LTP336	ltpFR2	3	n/a	n/a	n/a	29	21	7	7	7
3991110	PROB	n/a	LTP336	ltpFR2	3	n/a	n/a	n/a	29	18	8	3	7
3992876	PROB	n/a	LTP336	ltpFR2	3	n/a	n/a	n/a	29	15	8	2	5
3995042	PROB	n/a	LTP336	ltpFR2	3	n/a	n/a	n/a	29	18	7	3	8
3996674	PROB	n/a	LTP336	ltpFR2	3	n/a	n/a	n/a	29	9	1	3	5
3998623	PROB	n/a	LTP336	ltpFR2	3	n/a	n/a	n/a	29	19	5	9	5
4000306	PROB	n/a	LTP336	ltpFR2	3	n/a	n/a	n/a	29	12	5	5	2
4001788	PROB	n/a	LTP336	ltpFR2	3	n/a	n/a	n/a	29	6	2	2	2
4003110	STOP	n/a	LTP336	ltpFR2	3	n/a	n/a	n/a	29	n/a	n/a	n/a	n/a
4005770	REC_START	n/a	LTP336	ltpFR2	3	20	n/a	n/a	n/a	n/a	0	0	0
4006491	REC_WORD	wordpools/wasnorm_wordpool_576.txt	LTP336	ltpFR2	3	20	TRACTOR	1493	n/a	n/a	0	0	0
4007513	REC_WORD	wordpools/wasnorm_wordpool_576.txt	LTP336	ltpFR2	3	20	SHERIFF	1284	n/a	n/a	0	0	0
4008810	REC_WORD	wordpools/wasnorm_wordpool_576.txt	LTP336	ltpFR2	3	20	QUAIL	1147	n/a	n/a	0	0	0
4010116	REC_WORD	wordpools/wasnorm_wordpool_576.txt	LTP336	ltpFR2	3	20	HAWK	692	n/a	n/a	0	0	0
4011281	REC_WORD	wordpools/wasnorm_wordpool_576.txt	LTP336	ltpFR2	3	20	ASIA	46	n/a	n/a	0	0	0
4012338	REC_WORD	wordpools/wasnorm_wordpool_576.txt	LTP336	ltpFR2	3	20	COUNTY	389	n/a	n/a	0	0	0
4014179	REC_WORD	wordpools/wasnorm_wordpool_576.txt	LTP336	ltpFR2	3	20	DORM	488	n/a	n/a	0	0	0
4015183	REC_WORD	wordpools/wasnorm_wordpool_576.txt	LTP336	ltpFR2	3	20	LOFT	840	n/a	n/a	0	0	0
4016340	REC_WORD	wordpools/wasnorm_wordpool_576.txt	LTP336	ltpFR2	3	20	POPCORN	1104	n/a	n/a	0	0	0
4018779	REC_WORD	wordpools/wasnorm_wordpool_576.txt	LTP336	ltpFR2	3	20	SKIRT	1319	n/a	n/a	0	0	0
4019779	REC_WORD_VV	wordpools/wasnorm_wordpool_576.txt	LTP336	ltpFR2	3	20	<>	-1	n/a	n/a	0	0	0
4020855	REC_WORD	wordpools/wasnorm_wordpool_576.txt	LTP336	ltpFR2	3	20	PLAID	1080	n/a	n/a	0	0	0
4023931	REC_WORD	wordpools/wasnorm_wordpool_576.txt	LTP336	ltpFR2	3	20	BRICK	172	n/a	n/a	0	0	0
4025096	REC_WORD	wordpools/wasnorm_wordpool_576.txt	LTP336	ltpFR2	3	20	STONE	1385	n/a	n/a	0	0	0
4026536	REC_WORD	wordpools/wasnorm_wordpool_576.txt	LTP336	ltpFR2	3	20	VENUS	1557	n/a	n/a	0	0	0
4034200	REC_WORD	wordpools/wasnorm_wordpool_576.txt	LTP336	ltpFR2	3	20	PUPIL	1143	n/a	n/a	0	0	0
4096196	DISTRACTOR	n/a	LTP336	ltpFR2	3	21	n/a	n/a	n/a	n/a	0	0	0
4096196	START	n/a	LTP336	ltpFR2	3	n/a	n/a	n/a	30	n/a	n/a	n/a	n/a
4096213	PROB	n/a	LTP336	ltpFR2	3	n/a	n/a	n/a	30	10	2	6	2
4097845	PROB	n/a	LTP336	ltpFR2	3	n/a	n/a	n/a	30	12	6	4	2
4099345	PROB	n/a	LTP336	ltpFR2	3	n/a	n/a	n/a	30	14	2	9	3
4101943	PROB	n/a	LTP336	ltpFR2	3	n/a	n/a	n/a	30	12	2	9	1
4103625	PROB	n/a	LTP336	ltpFR2	3	n/a	n/a	n/a	30	10	2	2	6
4105392	PROB	n/a	LTP336	ltpFR2	3	n/a	n/a	n/a	30	18	6	3	9
4107491	PROB	n/a	LTP336	ltpFR2	3	n/a	n/a	n/a	30	13	6	3	4
4109273	PROB	n/a	LTP336	ltpFR2	3	n/a	n/a	n/a	30	21	7	7	7
4110772	PROB	n/a	LTP336	ltpFR2	3	n/a	n/a	n/a	30	21	8	7	6
4115887	PROB	n/a	LTP336	ltpFR2	3	n/a	n/a	n/a	30	15	4	5	6
4118930	STOP	n/a	LTP336	ltpFR2	3	n/a	n/a	n/a	30	n/a	n/a	n/a	n/a
4121018	WORD	wordpools/wasnorm_wordpool_576.txt	LTP336	ltpFR2	3	21	GOBLIN	645	n/a	n/a	0	0	0
4123817	WORD	wordpools/wasnorm_wordpool_576.txt	LTP336	ltpFR2	3	21	SLIME	1327	n/a	n/a	0	0	0
4126366	WORD	wordpools/wasnorm_wordpool_576.txt	LTP336	ltpFR2	3	21	VIRUS	1572	n/a	n/a	0	0	0
4128898	WORD	wordpools/wasnorm_wordpool_576.txt	LTP336	ltpFR2	3	21	MESSAGE	888	n/a	n/a	0	0	0
4131679	WORD	wordpools/wasnorm_wordpool_576.txt	LTP336	ltpFR2	3	21	BARLEY	88	n/a	n/a	0	0	0
4134229	WORD	wordpools/wasnorm_wordpool_576.txt	LTP336	ltpFR2	3	21	SLUG	1329	n/a	n/a	0	0	0
4136828	WORD	wordpools/wasnorm_wordpool_576.txt	LTP336	ltpFR2	3	21	TURTLE	1522	n/a	n/a	0	0	0
4139625	WORD	wordpools/wasnorm_wordpool_576.txt	LTP336	ltpFR2	3	21	PADDING	999	n/a	n/a	0	0	0
4142059	WORD	wordpools/wasnorm_wordpool_576.txt	LTP336	ltpFR2	3	21	SILK	1307	n/a	n/a	0	0	0
4144656	WORD	wordpools/wasnorm_wordpool_576.txt	LTP336	ltpFR2	3	21	CITRUS	313	n/a	n/a	0	0	0
4147140	WORD	wordpools/wasnorm_wordpool_576.txt	LTP336	ltpFR2	3	21	STICKER	1382	n/a	n/a	0	0	0
4149738	WORD	wordpools/wasnorm_wordpool_576.txt	LTP336	ltpFR2	3	21	BLENDER	136	n/a	n/a	0	0	0
4152421	WORD	wordpools/wasnorm_wordpool_576.txt	LTP336	ltpFR2	3	21	STOMACH	1384	n/a	n/a	0	0	0
4155136	WORD	wordpools/wasnorm_wordpool_576.txt	LTP336	ltpFR2	3	21	HELMET	702	n/a	n/a	0	0	0
4157584	WORD	wordpools/wasnorm_wordpool_576.txt	LTP336	ltpFR2	3	21	PARSLEY	1016	n/a	n/a	0	0	0
4160084	WORD	wordpools/wasnorm_wordpool_576.txt	LTP336	ltpFR2	3	21	WARDROBE	1587	n/a	n/a	0	0	0
4162883	WORD	wordpools/wasnorm_wordpool_576.txt	LTP336	ltpFR2	3	21	DOUGHNUT	490	n/a	n/a	0	0	0
4165465	WORD	wordpools/wasnorm_wordpool_576.txt	LTP336	ltpFR2	3	21	PEDAL	1037	n/a	n/a	0	0	0
4168030	WORD	wordpools/wasnorm_wordpool_576.txt	LTP336	ltpFR2	3	21	APPLE	33	n/a	n/a	0	0	0
4170829	WORD	wordpools/wasnorm_wordpool_576.txt	LTP336	ltpFR2	3	21	HOOK	715	n/a	n/a	0	0	0
4173478	WORD	wordpools/wasnorm_wordpool_576.txt	LTP336	ltpFR2	3	21	FINGER	567	n/a	n/a	0	0	0
4176010	WORD	wordpools/wasnorm_wordpool_576.txt	LTP336	ltpFR2	3	21	WRENCH	1625	n/a	n/a	0	0	0
4178558	WORD	wordpools/wasnorm_wordpool_576.txt	LTP336	ltpFR2	3	21	ITEM	746	n/a	n/a	0	0	0
4181308	WORD	wordpools/wasnorm_wordpool_576.txt	LTP336	ltpFR2	3	21	APRON	35	n/a	n/a	0	0	0
4182924	START	n/a	LTP336	ltpFR2	3	n/a	n/a	n/a	31	n/a	n/a	n/a	n/a
4183734	DISTRACTOR	n/a	LTP336	ltpFR2	3	21	n/a	n/a	n/a	n/a	0	0	0
4183739	PROB	n/a	LTP336	ltpFR2	3	n/a	n/a	n/a	31	16	4	5	7
4188271	PROB	n/a	LTP336	ltpFR2	3	n/a	n/a	n/a	31	16	7	5	4
4190970	PROB	n/a	LTP336	ltpFR2	3	n/a	n/a	n/a	31	15	6	4	5
4193069	PROB	n/a	LTP336	ltpFR2	3	n/a	n/a	n/a	31	13	3	2	8
4195717	PROB	n/a	LTP336	ltpFR2	3	n/a	n/a	n/a	31	14	1	5	8
4198033	PROB	n/a	LTP336	ltpFR2	3	n/a	n/a	n/a	31	17	6	9	2
4200049	PROB	n/a	LTP336	ltpFR2	3	n/a	n/a	n/a	31	16	5	7	4
4203314	PROB	n/a	LTP336	ltpFR2	3	n/a	n/a	n/a	31	10	2	6	2
4205453	STOP	n/a	LTP336	ltpFR2	3	n/a	n/a	n/a	31	n/a	n/a	n/a	n/a
4208794	REC_START	n/a	LTP336	ltpFR2	3	21	n/a	n/a	n/a	n/a	0	0	0
4209306	REC_WORD	wordpools/wasnorm_wordpool_576.txt	LTP336	ltpFR2	3	21	HOOK	715	n/a	n/a	0	0	0
4209909	REC_WORD_VV	wordpools/wasnorm_wordpool_576.txt	LTP336	ltpFR2	3	21	<>	-1	n/a	n/a	0	0	0
4210405	REC_WORD	wordpools/wasnorm_wordpool_576.txt	LTP336	ltpFR2	3	21	APPLE	33	n/a	n/a	0	0	0
4211430	REC_WORD	wordpools/wasnorm_wordpool_576.txt	LTP336	ltpFR2	3	21	FINGER	567	n/a	n/a	0	0	0
4212819	REC_WORD	wordpools/wasnorm_wordpool_576.txt	LTP336	ltpFR2	3	21	WRENCH	1625	n/a	n/a	0	0	0
4214169	REC_WORD	wordpools/wasnorm_wordpool_576.txt	LTP336	ltpFR2	3	21	ITEM	746	n/a	n/a	0	0	0
4215338	REC_WORD	wordpools/wasnorm_wordpool_576.txt	LTP336	ltpFR2	3	21	APRON	35	n/a	n/a	0	0	0
4216497	REC_WORD	wordpools/wasnorm_wordpool_576.txt	LTP336	ltpFR2	3	21	CITRUS	313	n/a	n/a	0	0	0
4217710	REC_WORD	wordpools/wasnorm_wordpool_576.txt	LTP336	ltpFR2	3	21	SILK	1307	n/a	n/a	0	0	0
4218755	REC_WORD	wordpools/wasnorm_wordpool_576.txt	LTP336	ltpFR2	3	21	STICKER	1382	n/a	n/a	0	0	0
4220372	REC_WORD	wordpools/wasnorm_wordpool_576.txt	LTP336	ltpFR2	3	21	GOBLIN	645	n/a	n/a	0	0	0
4221333	REC_WORD	wordpools/wasnorm_wordpool_576.txt	LTP336	ltpFR2	3	21	SLIME	1327	n/a	n/a	0	0	0
4222447	REC_WORD	wordpools/wasnorm_wordpool_576.txt	LTP336	ltpFR2	3	21	SLUG	1329	n/a	n/a	0	0	0
4223923	REC_WORD	wordpools/wasnorm_wordpool_576.txt	LTP336	ltpFR2	3	21	PADDING	999	n/a	n/a	0	0	0
4225148	REC_WORD	wordpools/wasnorm_wordpool_576.txt	LTP336	ltpFR2	3	21	TURTLE	1522	n/a	n/a	0	0	0
4226324	REC_WORD	wordpools/wasnorm_wordpool_576.txt	LTP336	ltpFR2	3	21	VIRUS	1572	n/a	n/a	0	0	0
4228042	REC_WORD	wordpools/wasnorm_wordpool_576.txt	LTP336	ltpFR2	3	21	MESSAGE	888	n/a	n/a	0	0	0
4229458	REC_WORD	wordpools/wasnorm_wordpool_576.txt	LTP336	ltpFR2	3	21	BARLEY	88	n/a	n/a	0	0	0
4299237	WORD	wordpools/wasnorm_wordpool_576.txt	LTP336	ltpFR2	3	22	ANKLE	24	n/a	n/a	0	0	0
4301903	WORD	wordpools/wasnorm_wordpool_576.txt	LTP336	ltpFR2	3	22	RABBIT	1152	n/a	n/a	0	0	0
4304352	WORD	wordpools/wasnorm_wordpool_576.txt	LTP336	ltpFR2	3	22	TORTOISE	1486	n/a	n/a	0	0	0
4307067	WORD	wordpools/wasnorm_wordpool_576.txt	LTP336	ltpFR2	3	22	RAFT	1159	n/a	n/a	0	0	0
4309816	WORD	wordpools/wasnorm_wordpool_576.txt	LTP336	ltpFR2	3	22	HUMAN	726	n/a	n/a	0	0	0
4312315	WORD	wordpools/wasnorm_wordpool_576.txt	LTP336	ltpFR2	3	22	CONTRACT	368	n/a	n/a	0	0	0
4314930	WORD	wordpools/wasnorm_wordpool_576.txt	LTP336	ltpFR2	3	22	SEAFOOD	1260	n/a	n/a	0	0	0
4317429	WORD	wordpools/wasnorm_wordpool_576.txt	LTP336	ltpFR2	3	22	PERFUME	1049	n/a	n/a	0	0	0
4319995	WORD	wordpools/wasnorm_wordpool_576.txt	LTP336	ltpFR2	3	22	PRINCESS	1125	n/a	n/a	0	0	0
4322609	WORD	wordpools/wasnorm_wordpool_576.txt	LTP336	ltpFR2	3	22	DIME	466	n/a	n/a	0	0	0
4325092	WORD	wordpools/wasnorm_wordpool_576.txt	LTP336	ltpFR2	3	22	BULLET	194	n/a	n/a	0	0	0
4327690	WORD	wordpools/wasnorm_wordpool_576.txt	LTP336	ltpFR2	3	22	FOOT	590	n/a	n/a	0	0	0
4330323	WORD	wordpools/wasnorm_wordpool_576.txt	LTP336	ltpFR2	3	22	LIPSTICK	829	n/a	n/a	0	0	0
4333072	WORD	wordpools/wasnorm_wordpool_576.txt	LTP336	ltpFR2	3	22	CANDY	230	n/a	n/a	0	0	0
4335504	WORD	wordpools/wasnorm_wordpool_576.txt	LTP336	ltpFR2	3	22	ORANGE	980	n/a	n/a	0	0	0
4338270	WORD	wordpools/wasnorm_wordpool_576.txt	LTP336	ltpFR2	3	22	LUMBER	848	n/a	n/a	0	0	0
4340919	WORD	wordpools/wasnorm_wordpool_576.txt	LTP336	ltpFR2	3	22	JUNGLE	764	n/a	n/a	0	0	0
4343534	WORD	wordpools/wasnorm_wordpool_576.txt	LTP336	ltpFR2	3	22	EYELASH	546	n/a	n/a	0	0	0
4346016	WORD	wordpools/wasnorm_wordpool_576.txt	LTP336	ltpFR2	3	22	STAR	1373	n/a	n/a	0	0	0
4348797	WORD	wordpools/wasnorm_wordpool_576.txt	LTP336	ltpFR2	3	22	NOMAD	955	n/a	n/a	0	0	0
4351480	WORD	wordpools/wasnorm_wordpool_576.txt	LTP336	ltpFR2	3	22	LABEL	790	n/a	n/a	0	0	0
4354229	WORD	wordpools/wasnorm_wordpool_576.txt	LTP336	ltpFR2	3	22	BUG	187	n/a	n/a	0	0	0
4356861	WORD	wordpools/wasnorm_wordpool_576.txt	LTP336	ltpFR2	3	22	FLUTE	585	n/a	n/a	0	0	0
