onset	duration	trial_type	sample	stim_file	subject	experiment	session	trial	item_name	item_num	list	answer	test_x	test_y	test_z
259.384765625	n/a	SESS_START	531220	n/a	LTP347	ltpFR2	3	n/a	n/a	n/a	n/a	n/a	0	0	0
290.05712890625	n/a	START	594037	n/a	LTP347	ltpFR2	3	n/a	n/a	n/a	-1	n/a	n/a	n/a	n/a
290.0869140625	n/a	PROB	594098	n/a	LTP347	ltpFR2	3	n/a	n/a	n/a	-1	11	4	3	5
291.619140625	n/a	PROB	597236	n/a	LTP347	ltpFR2	3	n/a	n/a	n/a	-1	18	6	7	5
293.21875	n/a	PROB	600512	n/a	LTP347	ltpFR2	3	n/a	n/a	n/a	-1	8	2	4	2
294.41796875	n/a	PROB	602968	n/a	LTP347	ltpFR2	3	n/a	n/a	n/a	-1	23	6	8	9
296.533203125	n/a	PROB	607300	n/a	LTP347	ltpFR2	3	n/a	n/a	n/a	-1	20	8	7	6
298.1162109375	n/a	PROB	610542	n/a	LTP347	ltpFR2	3	n/a	n/a	n/a	-1	15	6	7	2
299.6982421875	n/a	PROB	613782	n/a	LTP347	ltpFR2	3	n/a	n/a	n/a	-1	22	7	7	8
301.52197265625	n/a	STOP	617517	n/a	LTP347	ltpFR2	3	n/a	n/a	n/a	-1	n/a	n/a	n/a	n/a
344.693359375	n/a	WORD	705932	wordpools/wasnorm_wordpool_576.txt	LTP347	ltpFR2	3	1	HORNET	718	n/a	n/a	0	0	0
347.142578125	n/a	WORD	710948	wordpools/wasnorm_wordpool_576.txt	LTP347	ltpFR2	3	1	HONEY	713	n/a	n/a	0	0	0
349.84033203125	n/a	WORD	716473	wordpools/wasnorm_wordpool_576.txt	LTP347	ltpFR2	3	1	TREAT	1501	n/a	n/a	0	0	0
352.2724609375	n/a	WORD	721454	wordpools/wasnorm_wordpool_576.txt	LTP347	ltpFR2	3	1	ICING	732	n/a	n/a	0	0	0
354.9384765625	n/a	WORD	726914	wordpools/wasnorm_wordpool_576.txt	LTP347	ltpFR2	3	1	DRAWING	494	n/a	n/a	0	0	0
357.75341796875	n/a	WORD	732679	wordpools/wasnorm_wordpool_576.txt	LTP347	ltpFR2	3	1	BODY	145	n/a	n/a	0	0	0
360.22021484375	n/a	WORD	737731	wordpools/wasnorm_wordpool_576.txt	LTP347	ltpFR2	3	1	LIVER	833	n/a	n/a	0	0	0
362.83447265625	n/a	WORD	743085	wordpools/wasnorm_wordpool_576.txt	LTP347	ltpFR2	3	1	LUGGAGE	847	n/a	n/a	0	0	0
365.28369140625	n/a	WORD	748101	wordpools/wasnorm_wordpool_576.txt	LTP347	ltpFR2	3	1	AGENT	10	n/a	n/a	0	0	0
368.04833984375	n/a	WORD	753763	wordpools/wasnorm_wordpool_576.txt	LTP347	ltpFR2	3	1	PASTRY	1022	n/a	n/a	0	0	0
370.71337890625	n/a	WORD	759221	wordpools/wasnorm_wordpool_576.txt	LTP347	ltpFR2	3	1	BRANCH	168	n/a	n/a	0	0	0
373.3955078125	n/a	WORD	764714	wordpools/wasnorm_wordpool_576.txt	LTP347	ltpFR2	3	1	COIN	343	n/a	n/a	0	0	0
376.0947265625	n/a	WORD	770242	wordpools/wasnorm_wordpool_576.txt	LTP347	ltpFR2	3	1	VALVE	1546	n/a	n/a	0	0	0
378.8095703125	n/a	WORD	775802	wordpools/wasnorm_wordpool_576.txt	LTP347	ltpFR2	3	1	RECORD	1176	n/a	n/a	0	0	0
381.62451171875	n/a	WORD	781567	wordpools/wasnorm_wordpool_576.txt	LTP347	ltpFR2	3	1	TWISTER	1530	n/a	n/a	0	0	0
384.15673828125	n/a	WORD	786753	wordpools/wasnorm_wordpool_576.txt	LTP347	ltpFR2	3	1	MARKER	870	n/a	n/a	0	0	0
386.92236328125	n/a	WORD	792417	wordpools/wasnorm_wordpool_576.txt	LTP347	ltpFR2	3	1	BELLY	119	n/a	n/a	0	0	0
389.42138671875	n/a	WORD	797535	wordpools/wasnorm_wordpool_576.txt	LTP347	ltpFR2	3	1	FRAME	600	n/a	n/a	0	0	0
391.9697265625	n/a	WORD	802754	wordpools/wasnorm_wordpool_576.txt	LTP347	ltpFR2	3	1	JUGGLER	763	n/a	n/a	0	0	0
394.5517578125	n/a	WORD	808042	wordpools/wasnorm_wordpool_576.txt	LTP347	ltpFR2	3	1	SPOUSE	1358	n/a	n/a	0	0	0
397.33349609375	n/a	WORD	813739	wordpools/wasnorm_wordpool_576.txt	LTP347	ltpFR2	3	1	AIRPORT	13	n/a	n/a	0	0	0
399.86572265625	n/a	WORD	818925	wordpools/wasnorm_wordpool_576.txt	LTP347	ltpFR2	3	1	PARROT	1015	n/a	n/a	0	0	0
402.3818359375	n/a	WORD	824078	wordpools/wasnorm_wordpool_576.txt	LTP347	ltpFR2	3	1	SCARECROW	1245	n/a	n/a	0	0	0
405.11376953125	n/a	WORD	829673	wordpools/wasnorm_wordpool_576.txt	LTP347	ltpFR2	3	1	BLADE	134	n/a	n/a	0	0	0
406.7294921875	n/a	START	832982	n/a	LTP347	ltpFR2	3	n/a	n/a	n/a	1	n/a	n/a	n/a	n/a
407.5908203125	n/a	DISTRACTOR	834746	n/a	LTP347	ltpFR2	3	1	n/a	n/a	n/a	n/a	0	0	0
407.595703125	n/a	PROB	834756	n/a	LTP347	ltpFR2	3	n/a	n/a	n/a	1	15	4	4	7
409.69482421875	n/a	PROB	839055	n/a	LTP347	ltpFR2	3	n/a	n/a	n/a	1	10	3	6	1
411.24365234375	n/a	PROB	842227	n/a	LTP347	ltpFR2	3	n/a	n/a	n/a	1	11	3	7	1
412.509765625	n/a	PROB	844820	n/a	LTP347	ltpFR2	3	n/a	n/a	n/a	1	7	3	3	1
414.0087890625	n/a	PROB	847890	n/a	LTP347	ltpFR2	3	n/a	n/a	n/a	1	12	6	1	5
415.27490234375	n/a	PROB	850483	n/a	LTP347	ltpFR2	3	n/a	n/a	n/a	1	16	6	1	9
416.40771484375	n/a	PROB	852803	n/a	LTP347	ltpFR2	3	n/a	n/a	n/a	1	23	5	9	9
418.52392578125	n/a	PROB	857137	n/a	LTP347	ltpFR2	3	n/a	n/a	n/a	1	12	6	4	2
419.73974609375	n/a	PROB	859627	n/a	LTP347	ltpFR2	3	n/a	n/a	n/a	1	19	7	4	8
421.123046875	n/a	PROB	862460	n/a	LTP347	ltpFR2	3	n/a	n/a	n/a	1	8	2	2	3
422.32177734375	n/a	PROB	864915	n/a	LTP347	ltpFR2	3	n/a	n/a	n/a	1	8	6	1	1
423.40478515625	n/a	PROB	867133	n/a	LTP347	ltpFR2	3	n/a	n/a	n/a	1	23	9	9	5
424.970703125	n/a	PROB	870340	n/a	LTP347	ltpFR2	3	n/a	n/a	n/a	1	26	8	9	7
426.36962890625	n/a	PROB	873205	n/a	LTP347	ltpFR2	3	n/a	n/a	n/a	1	9	4	4	1
427.53564453125	n/a	PROB	875593	n/a	LTP347	ltpFR2	3	n/a	n/a	n/a	1	22	8	8	6
428.81884765625	n/a	PROB	878221	n/a	LTP347	ltpFR2	3	n/a	n/a	n/a	1	23	5	9	9
430.47509765625	n/a	STOP	881613	n/a	LTP347	ltpFR2	3	n/a	n/a	n/a	1	n/a	n/a	n/a	n/a
432.55078125	n/a	REC_START	885864	n/a	LTP347	ltpFR2	3	1	n/a	n/a	n/a	n/a	0	0	0
434.76611328125	n/a	REC_WORD	890401	wordpools/wasnorm_wordpool_576.txt	LTP347	ltpFR2	3	1	HORNET	718	n/a	n/a	0	0	0
435.794921875	n/a	REC_WORD	892508	wordpools/wasnorm_wordpool_576.txt	LTP347	ltpFR2	3	1	HONEY	713	n/a	n/a	0	0	0
437.20703125	n/a	REC_WORD	895400	wordpools/wasnorm_wordpool_576.txt	LTP347	ltpFR2	3	1	BODY	145	n/a	n/a	0	0	0
437.669921875	n/a	REC_WORD	896348	wordpools/wasnorm_wordpool_576.txt	LTP347	ltpFR2	3	1	LIVER	833	n/a	n/a	0	0	0
438.36376953125	n/a	REC_WORD	897769	wordpools/wasnorm_wordpool_576.txt	LTP347	ltpFR2	3	1	BELLY	119	n/a	n/a	0	0	0
439.7939453125	n/a	REC_WORD	900698	wordpools/wasnorm_wordpool_576.txt	LTP347	ltpFR2	3	1	BRANCH	168	n/a	n/a	0	0	0
440.56982421875	n/a	REC_WORD	902287	wordpools/wasnorm_wordpool_576.txt	LTP347	ltpFR2	3	1	TREAT	1501	n/a	n/a	0	0	0
441.38671875	n/a	REC_WORD	903960	wordpools/wasnorm_wordpool_576.txt	LTP347	ltpFR2	3	1	ICING	732	n/a	n/a	0	0	0
444.63818359375	n/a	REC_WORD	910619	wordpools/wasnorm_wordpool_576.txt	LTP347	ltpFR2	3	1	LUGGAGE	847	n/a	n/a	0	0	0
445.3271484375	n/a	REC_WORD	912030	wordpools/wasnorm_wordpool_576.txt	LTP347	ltpFR2	3	1	DRAWING	494	n/a	n/a	0	0	0
445.90283203125	n/a	REC_WORD	913209	wordpools/wasnorm_wordpool_576.txt	LTP347	ltpFR2	3	1	FRAME	600	n/a	n/a	0	0	0
446.39208984375	n/a	REC_WORD	914211	wordpools/wasnorm_wordpool_576.txt	LTP347	ltpFR2	3	1	MARKER	870	n/a	n/a	0	0	0
447.39208984375	n/a	REC_WORD_VV	916259	wordpools/wasnorm_wordpool_576.txt	LTP347	ltpFR2	3	1	<>	-1	n/a	n/a	0	0	0
449.60693359375	n/a	REC_WORD	920795	wordpools/wasnorm_wordpool_576.txt	LTP347	ltpFR2	3	1	COIN	343	n/a	n/a	0	0	0
451.0908203125	n/a	REC_WORD	923834	wordpools/wasnorm_wordpool_576.txt	LTP347	ltpFR2	3	1	AGENT	10	n/a	n/a	0	0	0
451.59521484375	n/a	REC_WORD	924867	wordpools/wasnorm_wordpool_576.txt	LTP347	ltpFR2	3	1	VALVE	1546	n/a	n/a	0	0	0
452.3349609375	n/a	REC_WORD	926382	wordpools/wasnorm_wordpool_576.txt	LTP347	ltpFR2	3	1	BLADE	134	n/a	n/a	0	0	0
452.98779296875	n/a	REC_WORD	927719	wordpools/wasnorm_wordpool_576.txt	LTP347	ltpFR2	3	1	SPOUSE	1358	n/a	n/a	0	0	0
455.35595703125	n/a	REC_WORD	932569	wordpools/wasnorm_wordpool_576.txt	LTP347	ltpFR2	3	1	PARROT	1015	n/a	n/a	0	0	0
455.97607421875	n/a	REC_WORD	933839	wordpools/wasnorm_wordpool_576.txt	LTP347	ltpFR2	3	1	TWISTER	1530	n/a	n/a	0	0	0
457.490234375	n/a	REC_WORD	936940	wordpools/wasnorm_wordpool_576.txt	LTP347	ltpFR2	3	1	SCARECROW	1245	n/a	n/a	0	0	0
458.490234375	n/a	REC_WORD_VV	938988	wordpools/wasnorm_wordpool_576.txt	LTP347	ltpFR2	3	1	<>	-1	n/a	n/a	0	0	0
461.72607421875	n/a	REC_WORD	945615	wordpools/wasnorm_wordpool_576.txt	LTP347	ltpFR2	3	1	AIRPORT	13	n/a	n/a	0	0	0
462.6220703125	n/a	REC_WORD	947450	wordpools/wasnorm_wordpool_576.txt	LTP347	ltpFR2	3	1	LUGGAGE	847	n/a	n/a	0	0	0
522.9892578125	n/a	DISTRACTOR	1071082	n/a	LTP347	ltpFR2	3	2	n/a	n/a	n/a	n/a	0	0	0
522.9892578125	n/a	START	1071082	n/a	LTP347	ltpFR2	3	n/a	n/a	n/a	2	n/a	n/a	n/a	n/a
523.00537109375	n/a	PROB	1071115	n/a	LTP347	ltpFR2	3	n/a	n/a	n/a	2	13	4	1	8
524.53857421875	n/a	PROB	1074255	n/a	LTP347	ltpFR2	3	n/a	n/a	n/a	2	17	9	4	5
526.58740234375	n/a	PROB	1078451	n/a	LTP347	ltpFR2	3	n/a	n/a	n/a	2	12	3	7	2
527.8037109375	n/a	PROB	1080942	n/a	LTP347	ltpFR2	3	n/a	n/a	n/a	2	21	8	8	5
529.78564453125	n/a	PROB	1085001	n/a	LTP347	ltpFR2	3	n/a	n/a	n/a	2	8	2	3	3
531.33447265625	n/a	PROB	1088173	n/a	LTP347	ltpFR2	3	n/a	n/a	n/a	2	12	4	1	7
532.650390625	n/a	PROB	1090868	n/a	LTP347	ltpFR2	3	n/a	n/a	n/a	2	12	2	8	2
533.8837890625	n/a	PROB	1093394	n/a	LTP347	ltpFR2	3	n/a	n/a	n/a	2	12	7	1	4
535.24951171875	n/a	PROB	1096191	n/a	LTP347	ltpFR2	3	n/a	n/a	n/a	2	14	7	3	4
536.8154296875	n/a	PROB	1099398	n/a	LTP347	ltpFR2	3	n/a	n/a	n/a	2	10	1	1	8
538.0654296875	n/a	PROB	1101958	n/a	LTP347	ltpFR2	3	n/a	n/a	n/a	2	4	1	1	2
539.16455078125	n/a	PROB	1104209	n/a	LTP347	ltpFR2	3	n/a	n/a	n/a	2	9	5	2	2
540.36376953125	n/a	PROB	1106665	n/a	LTP347	ltpFR2	3	n/a	n/a	n/a	2	20	5	8	7
541.8466796875	n/a	PROB	1109702	n/a	LTP347	ltpFR2	3	n/a	n/a	n/a	2	14	1	4	9
543.24560546875	n/a	PROB	1112567	n/a	LTP347	ltpFR2	3	n/a	n/a	n/a	2	11	3	2	6
545.4755859375	n/a	STOP	1117134	n/a	LTP347	ltpFR2	3	n/a	n/a	n/a	2	n/a	n/a	n/a	n/a
547.94384765625	n/a	WORD	1122189	wordpools/wasnorm_wordpool_576.txt	LTP347	ltpFR2	3	2	OX	994	n/a	n/a	0	0	0
550.40869140625	n/a	WORD	1127237	wordpools/wasnorm_wordpool_576.txt	LTP347	ltpFR2	3	2	GOBLIN	645	n/a	n/a	0	0	0
553.07470703125	n/a	WORD	1132697	wordpools/wasnorm_wordpool_576.txt	LTP347	ltpFR2	3	2	TYPIST	1532	n/a	n/a	0	0	0
555.7724609375	n/a	WORD	1138222	wordpools/wasnorm_wordpool_576.txt	LTP347	ltpFR2	3	2	HUSBAND	728	n/a	n/a	0	0	0
558.5546875	n/a	WORD	1143920	wordpools/wasnorm_wordpool_576.txt	LTP347	ltpFR2	3	2	SUSPECT	1415	n/a	n/a	0	0	0
561.1708984375	n/a	WORD	1149278	wordpools/wasnorm_wordpool_576.txt	LTP347	ltpFR2	3	2	GAVEL	627	n/a	n/a	0	0	0
563.81884765625	n/a	WORD	1154701	wordpools/wasnorm_wordpool_576.txt	LTP347	ltpFR2	3	2	VENUS	1557	n/a	n/a	0	0	0
566.3349609375	n/a	WORD	1159854	wordpools/wasnorm_wordpool_576.txt	LTP347	ltpFR2	3	2	MEDAL	885	n/a	n/a	0	0	0
569.099609375	n/a	WORD	1165516	wordpools/wasnorm_wordpool_576.txt	LTP347	ltpFR2	3	2	ROCKET	1202	n/a	n/a	0	0	0
571.81494140625	n/a	WORD	1171077	wordpools/wasnorm_wordpool_576.txt	LTP347	ltpFR2	3	2	SUNRISE	1407	n/a	n/a	0	0	0
574.39697265625	n/a	WORD	1176365	wordpools/wasnorm_wordpool_576.txt	LTP347	ltpFR2	3	2	DAUGHTER	442	n/a	n/a	0	0	0
576.94580078125	n/a	WORD	1181585	wordpools/wasnorm_wordpool_576.txt	LTP347	ltpFR2	3	2	BANJO	82	n/a	n/a	0	0	0
579.3779296875	n/a	WORD	1186566	wordpools/wasnorm_wordpool_576.txt	LTP347	ltpFR2	3	2	PACKAGE	997	n/a	n/a	0	0	0
582.14404296875	n/a	WORD	1192231	wordpools/wasnorm_wordpool_576.txt	LTP347	ltpFR2	3	2	MILK	895	n/a	n/a	0	0	0
584.72607421875	n/a	WORD	1197519	wordpools/wasnorm_wordpool_576.txt	LTP347	ltpFR2	3	2	BUBBLE	183	n/a	n/a	0	0	0
587.27392578125	n/a	WORD	1202737	wordpools/wasnorm_wordpool_576.txt	LTP347	ltpFR2	3	2	PARTNER	1017	n/a	n/a	0	0	0
589.97314453125	n/a	WORD	1208265	wordpools/wasnorm_wordpool_576.txt	LTP347	ltpFR2	3	2	BOYFRIEND	162	n/a	n/a	0	0	0
592.6220703125	n/a	WORD	1213690	wordpools/wasnorm_wordpool_576.txt	LTP347	ltpFR2	3	2	OYSTER	995	n/a	n/a	0	0	0
595.169921875	n/a	WORD	1218908	wordpools/wasnorm_wordpool_576.txt	LTP347	ltpFR2	3	2	BURGLAR	200	n/a	n/a	0	0	0
597.869140625	n/a	WORD	1224436	wordpools/wasnorm_wordpool_576.txt	LTP347	ltpFR2	3	2	OUTLAW	989	n/a	n/a	0	0	0
600.65087890625	n/a	WORD	1230133	wordpools/wasnorm_wordpool_576.txt	LTP347	ltpFR2	3	2	MAILBOX	857	n/a	n/a	0	0	0
603.0830078125	n/a	WORD	1235114	wordpools/wasnorm_wordpool_576.txt	LTP347	ltpFR2	3	2	SCALLOP	1242	n/a	n/a	0	0	0
605.6318359375	n/a	WORD	1240334	wordpools/wasnorm_wordpool_576.txt	LTP347	ltpFR2	3	2	DRESSER	496	n/a	n/a	0	0	0
608.0810546875	n/a	WORD	1245350	wordpools/wasnorm_wordpool_576.txt	LTP347	ltpFR2	3	2	FRIEND	606	n/a	n/a	0	0	0
609.697265625	n/a	START	1248660	n/a	LTP347	ltpFR2	3	n/a	n/a	n/a	3	n/a	n/a	n/a	n/a
610.865234375	n/a	DISTRACTOR	1251052	n/a	LTP347	ltpFR2	3	2	n/a	n/a	n/a	n/a	0	0	0
610.87890625	n/a	PROB	1251080	n/a	LTP347	ltpFR2	3	n/a	n/a	n/a	3	16	6	3	7
612.2119140625	n/a	PROB	1253810	n/a	LTP347	ltpFR2	3	n/a	n/a	n/a	3	14	9	3	2
613.8779296875	n/a	PROB	1257222	n/a	LTP347	ltpFR2	3	n/a	n/a	n/a	3	17	6	6	5
615.92724609375	n/a	PROB	1261419	n/a	LTP347	ltpFR2	3	n/a	n/a	n/a	3	13	5	6	2
619.408203125	n/a	PROB	1268548	n/a	LTP347	ltpFR2	3	n/a	n/a	n/a	3	12	4	7	1
620.7080078125	n/a	PROB	1271210	n/a	LTP347	ltpFR2	3	n/a	n/a	n/a	3	23	7	8	8
622.68994140625	n/a	PROB	1275269	n/a	LTP347	ltpFR2	3	n/a	n/a	n/a	3	15	4	2	9
624.43896484375	n/a	PROB	1278851	n/a	LTP347	ltpFR2	3	n/a	n/a	n/a	3	21	4	9	8
626.08837890625	n/a	PROB	1282229	n/a	LTP347	ltpFR2	3	n/a	n/a	n/a	3	12	6	4	2
627.30419921875	n/a	PROB	1284719	n/a	LTP347	ltpFR2	3	n/a	n/a	n/a	3	12	2	9	1
628.55419921875	n/a	PROB	1287279	n/a	LTP347	ltpFR2	3	n/a	n/a	n/a	3	14	9	1	4
630.1201171875	n/a	PROB	1290486	n/a	LTP347	ltpFR2	3	n/a	n/a	n/a	3	12	1	7	4
631.51904296875	n/a	PROB	1293351	n/a	LTP347	ltpFR2	3	n/a	n/a	n/a	3	15	9	5	1
632.56396484375	n/a	STOP	1295491	n/a	LTP347	ltpFR2	3	n/a	n/a	n/a	3	n/a	n/a	n/a	n/a
635.484375	n/a	REC_START	1301472	n/a	LTP347	ltpFR2	3	2	n/a	n/a	n/a	n/a	0	0	0
640.6181640625	n/a	REC_WORD	1311986	wordpools/wasnorm_wordpool_576.txt	LTP347	ltpFR2	3	2	OX	994	n/a	n/a	0	0	0
641.2060546875	n/a	REC_WORD	1313190	wordpools/wasnorm_wordpool_576.txt	LTP347	ltpFR2	3	2	GOBLIN	645	n/a	n/a	0	0	0
645.91748046875	n/a	REC_WORD	1322839	wordpools/wasnorm_wordpool_576.txt	LTP347	ltpFR2	3	2	TYPIST	1532	n/a	n/a	0	0	0
648.66650390625	n/a	REC_WORD	1328469	wordpools/wasnorm_wordpool_576.txt	LTP347	ltpFR2	3	2	BOYFRIEND	162	n/a	n/a	0	0	0
649.66650390625	n/a	REC_WORD_VV	1330517	wordpools/wasnorm_wordpool_576.txt	LTP347	ltpFR2	3	2	<>	-1	n/a	n/a	0	0	0
650.8154296875	n/a	REC_WORD	1332870	wordpools/wasnorm_wordpool_576.txt	LTP347	ltpFR2	3	2	SUSPECT	1415	n/a	n/a	0	0	0
651.8154296875	n/a	REC_WORD_VV	1334918	wordpools/wasnorm_wordpool_576.txt	LTP347	ltpFR2	3	2	<>	-1	n/a	n/a	0	0	0
653.91455078125	n/a	REC_WORD	1339217	wordpools/wasnorm_wordpool_576.txt	LTP347	ltpFR2	3	2	BURGLAR	200	n/a	n/a	0	0	0
655.408203125	n/a	REC_WORD	1342276	wordpools/wasnorm_wordpool_576.txt	LTP347	ltpFR2	3	2	PARTNER	1017	n/a	n/a	0	0	0
655.99658203125	n/a	REC_WORD	1343481	wordpools/wasnorm_wordpool_576.txt	LTP347	ltpFR2	3	2	MAILBOX	857	n/a	n/a	0	0	0
656.91357421875	n/a	REC_WORD	1345359	wordpools/wasnorm_wordpool_576.txt	LTP347	ltpFR2	3	2	MILK	895	n/a	n/a	0	0	0
658.89013671875	n/a	REC_WORD	1349407	wordpools/wasnorm_wordpool_576.txt	LTP347	ltpFR2	3	2	BUBBLE	183	n/a	n/a	0	0	0
661.82421875	n/a	REC_WORD	1355416	wordpools/wasnorm_wordpool_576.txt	LTP347	ltpFR2	3	2	SCALLOP	1242	n/a	n/a	0	0	0
662.447265625	n/a	REC_WORD	1356692	wordpools/wasnorm_wordpool_576.txt	LTP347	ltpFR2	3	2	OYSTER	995	n/a	n/a	0	0	0
663.00146484375	n/a	REC_WORD	1357827	wordpools/wasnorm_wordpool_576.txt	LTP347	ltpFR2	3	2	DRESSER	496	n/a	n/a	0	0	0
664.45263671875	n/a	REC_WORD	1360799	wordpools/wasnorm_wordpool_576.txt	LTP347	ltpFR2	3	2	VENUS	1557	n/a	n/a	0	0	0
665.158203125	n/a	REC_WORD	1362244	wordpools/wasnorm_wordpool_576.txt	LTP347	ltpFR2	3	2	SON	-1	n/a	n/a	0	0	0
665.83837890625	n/a	REC_WORD	1363637	wordpools/wasnorm_wordpool_576.txt	LTP347	ltpFR2	3	2	DAUGHTER	442	n/a	n/a	0	0	0
668.20849609375	n/a	REC_WORD	1368491	wordpools/wasnorm_wordpool_576.txt	LTP347	ltpFR2	3	2	GAVEL	627	n/a	n/a	0	0	0
685.32666015625	n/a	REC_WORD	1403549	wordpools/wasnorm_wordpool_576.txt	LTP347	ltpFR2	3	2	ROCKET	1202	n/a	n/a	0	0	0
725.97265625	n/a	WORD	1486792	wordpools/wasnorm_wordpool_576.txt	LTP347	ltpFR2	3	3	SPOON	1357	n/a	n/a	0	0	0
728.45458984375	n/a	WORD	1491875	wordpools/wasnorm_wordpool_576.txt	LTP347	ltpFR2	3	3	TURNIP	1521	n/a	n/a	0	0	0
731.2216796875	n/a	WORD	1497542	wordpools/wasnorm_wordpool_576.txt	LTP347	ltpFR2	3	3	BREAST	171	n/a	n/a	0	0	0
733.98583984375	n/a	WORD	1503203	wordpools/wasnorm_wordpool_576.txt	LTP347	ltpFR2	3	3	SURVEY	1414	n/a	n/a	0	0	0
736.7509765625	n/a	WORD	1508866	wordpools/wasnorm_wordpool_576.txt	LTP347	ltpFR2	3	3	BROTHER	179	n/a	n/a	0	0	0
739.18310546875	n/a	WORD	1513847	wordpools/wasnorm_wordpool_576.txt	LTP347	ltpFR2	3	3	SCALPEL	1243	n/a	n/a	0	0	0
741.71484375	n/a	WORD	1519032	wordpools/wasnorm_wordpool_576.txt	LTP347	ltpFR2	3	3	FRUIT	610	n/a	n/a	0	0	0
744.19677734375	n/a	WORD	1524115	wordpools/wasnorm_wordpool_576.txt	LTP347	ltpFR2	3	3	MARINE	869	n/a	n/a	0	0	0
746.94580078125	n/a	WORD	1529745	wordpools/wasnorm_wordpool_576.txt	LTP347	ltpFR2	3	3	STOMACH	1384	n/a	n/a	0	0	0
749.61083984375	n/a	WORD	1535203	wordpools/wasnorm_wordpool_576.txt	LTP347	ltpFR2	3	3	SPHINX	1349	n/a	n/a	0	0	0
752.126953125	n/a	WORD	1540356	wordpools/wasnorm_wordpool_576.txt	LTP347	ltpFR2	3	3	ORCHID	982	n/a	n/a	0	0	0
754.9091796875	n/a	WORD	1546054	wordpools/wasnorm_wordpool_576.txt	LTP347	ltpFR2	3	3	ASIA	46	n/a	n/a	0	0	0
757.57421875	n/a	WORD	1551512	wordpools/wasnorm_wordpool_576.txt	LTP347	ltpFR2	3	3	STATUE	1374	n/a	n/a	0	0	0
760.05615234375	n/a	WORD	1556595	wordpools/wasnorm_wordpool_576.txt	LTP347	ltpFR2	3	3	PEACH	1031	n/a	n/a	0	0	0
762.55517578125	n/a	WORD	1561713	wordpools/wasnorm_wordpool_576.txt	LTP347	ltpFR2	3	3	CITRUS	313	n/a	n/a	0	0	0
765.05419921875	n/a	WORD	1566831	wordpools/wasnorm_wordpool_576.txt	LTP347	ltpFR2	3	3	SHORTCAKE	1292	n/a	n/a	0	0	0
767.68603515625	n/a	WORD	1572221	wordpools/wasnorm_wordpool_576.txt	LTP347	ltpFR2	3	3	SUNSET	1408	n/a	n/a	0	0	0
770.21826171875	n/a	WORD	1577407	wordpools/wasnorm_wordpool_576.txt	LTP347	ltpFR2	3	3	CHAUFFEUR	283	n/a	n/a	0	0	0
772.85009765625	n/a	WORD	1582797	wordpools/wasnorm_wordpool_576.txt	LTP347	ltpFR2	3	3	LONDON	843	n/a	n/a	0	0	0
775.31494140625	n/a	WORD	1587845	wordpools/wasnorm_wordpool_576.txt	LTP347	ltpFR2	3	3	STALLION	1369	n/a	n/a	0	0	0
777.7470703125	n/a	WORD	1592826	wordpools/wasnorm_wordpool_576.txt	LTP347	ltpFR2	3	3	PISTON	1076	n/a	n/a	0	0	0
780.46337890625	n/a	WORD	1598389	wordpools/wasnorm_wordpool_576.txt	LTP347	ltpFR2	3	3	RUST	1219	n/a	n/a	0	0	0
783.06103515625	n/a	WORD	1603709	wordpools/wasnorm_wordpool_576.txt	LTP347	ltpFR2	3	3	DASHBOARD	441	n/a	n/a	0	0	0
785.876953125	n/a	WORD	1609476	wordpools/wasnorm_wordpool_576.txt	LTP347	ltpFR2	3	3	SWIMMER	1420	n/a	n/a	0	0	0
787.4931640625	n/a	START	1612786	n/a	LTP347	ltpFR2	3	n/a	n/a	n/a	4	n/a	n/a	n/a	n/a
788.6220703125	n/a	DISTRACTOR	1615098	n/a	LTP347	ltpFR2	3	3	n/a	n/a	n/a	n/a	0	0	0
788.625	n/a	PROB	1615104	n/a	LTP347	ltpFR2	3	n/a	n/a	n/a	4	14	5	4	5
790.05810546875	n/a	PROB	1618039	n/a	LTP347	ltpFR2	3	n/a	n/a	n/a	4	17	7	5	6
792.70703125	n/a	PROB	1623464	n/a	LTP347	ltpFR2	3	n/a	n/a	n/a	4	5	2	1	2
793.65625	n/a	PROB	1625408	n/a	LTP347	ltpFR2	3	n/a	n/a	n/a	4	19	6	7	6
795.322265625	n/a	PROB	1628820	n/a	LTP347	ltpFR2	3	n/a	n/a	n/a	4	16	2	5	9
796.87109375	n/a	PROB	1631992	n/a	LTP347	ltpFR2	3	n/a	n/a	n/a	4	16	5	7	4
799.154296875	n/a	PROB	1636668	n/a	LTP347	ltpFR2	3	n/a	n/a	n/a	4	11	2	3	6
800.91943359375	n/a	PROB	1640283	n/a	LTP347	ltpFR2	3	n/a	n/a	n/a	4	24	7	8	9
804.38427734375	n/a	PROB	1647379	n/a	LTP347	ltpFR2	3	n/a	n/a	n/a	4	15	6	4	5
805.71728515625	n/a	PROB	1650109	n/a	LTP347	ltpFR2	3	n/a	n/a	n/a	4	25	9	8	8
809.3154296875	n/a	PROB	1657478	n/a	LTP347	ltpFR2	3	n/a	n/a	n/a	4	14	7	6	1
810.95751953125	n/a	STOP	1660841	n/a	LTP347	ltpFR2	3	n/a	n/a	n/a	4	n/a	n/a	n/a	n/a
813.447265625	n/a	REC_START	1665940	n/a	LTP347	ltpFR2	3	3	n/a	n/a	n/a	n/a	0	0	0
818.91748046875	n/a	REC_WORD	1677143	wordpools/wasnorm_wordpool_576.txt	LTP347	ltpFR2	3	3	SPOON	1357	n/a	n/a	0	0	0
819.84423828125	n/a	REC_WORD	1679041	wordpools/wasnorm_wordpool_576.txt	LTP347	ltpFR2	3	3	TUB	1514	n/a	n/a	0	0	0
822.4345703125	n/a	REC_WORD	1684346	wordpools/wasnorm_wordpool_576.txt	LTP347	ltpFR2	3	3	SURVEY	1414	n/a	n/a	0	0	0
824.5205078125	n/a	REC_WORD	1688618	wordpools/wasnorm_wordpool_576.txt	LTP347	ltpFR2	3	3	MARINE	869	n/a	n/a	0	0	0
825.21337890625	n/a	REC_WORD	1690037	wordpools/wasnorm_wordpool_576.txt	LTP347	ltpFR2	3	3	SPHINX	1349	n/a	n/a	0	0	0
827.1806640625	n/a	REC_WORD	1694066	wordpools/wasnorm_wordpool_576.txt	LTP347	ltpFR2	3	3	SCALPEL	1243	n/a	n/a	0	0	0
828.41552734375	n/a	REC_WORD	1696595	wordpools/wasnorm_wordpool_576.txt	LTP347	ltpFR2	3	3	FRUIT	610	n/a	n/a	0	0	0
830.8486328125	n/a	REC_WORD	1701578	wordpools/wasnorm_wordpool_576.txt	LTP347	ltpFR2	3	3	SHORTCAKE	1292	n/a	n/a	0	0	0
832.1904296875	n/a	REC_WORD	1704326	wordpools/wasnorm_wordpool_576.txt	LTP347	ltpFR2	3	3	CITRUS	313	n/a	n/a	0	0	0
838.1474609375	n/a	REC_WORD	1716526	wordpools/wasnorm_wordpool_576.txt	LTP347	ltpFR2	3	3	STRAWBERRY	1391	n/a	n/a	0	0	0
847.8134765625	n/a	REC_WORD	1736322	wordpools/wasnorm_wordpool_576.txt	LTP347	ltpFR2	3	3	AWARD	63	n/a	n/a	0	0	0
848.8134765625	n/a	REC_WORD_VV	1738370	wordpools/wasnorm_wordpool_576.txt	LTP347	ltpFR2	3	3	<>	-1	n/a	n/a	0	0	0
851.45458984375	n/a	REC_WORD	1743779	wordpools/wasnorm_wordpool_576.txt	LTP347	ltpFR2	3	3	ORCHID	982	n/a	n/a	0	0	0
852.08837890625	n/a	REC_WORD	1745077	wordpools/wasnorm_wordpool_576.txt	LTP347	ltpFR2	3	3	ASIA	46	n/a	n/a	0	0	0
852.61572265625	n/a	REC_WORD	1746157	wordpools/wasnorm_wordpool_576.txt	LTP347	ltpFR2	3	3	STATUE	1374	n/a	n/a	0	0	0
856.0224609375	n/a	REC_WORD	1753134	wordpools/wasnorm_wordpool_576.txt	LTP347	ltpFR2	3	3	SUNSET	1408	n/a	n/a	0	0	0
856.9345703125	n/a	REC_WORD	1755002	wordpools/wasnorm_wordpool_576.txt	LTP347	ltpFR2	3	3	CHAUFFEUR	283	n/a	n/a	0	0	0
857.71142578125	n/a	REC_WORD	1756593	wordpools/wasnorm_wordpool_576.txt	LTP347	ltpFR2	3	3	LONDON	843	n/a	n/a	0	0	0
858.76953125	n/a	REC_WORD	1758760	wordpools/wasnorm_wordpool_576.txt	LTP347	ltpFR2	3	3	RUST	1219	n/a	n/a	0	0	0
859.34765625	n/a	REC_WORD	1759944	wordpools/wasnorm_wordpool_576.txt	LTP347	ltpFR2	3	3	PISTON	1076	n/a	n/a	0	0	0
860.04345703125	n/a	REC_WORD	1761369	wordpools/wasnorm_wordpool_576.txt	LTP347	ltpFR2	3	3	DASHBOARD	441	n/a	n/a	0	0	0
903.8857421875	n/a	DISTRACTOR	1851158	n/a	LTP347	ltpFR2	3	4	n/a	n/a	n/a	n/a	0	0	0
903.8857421875	n/a	START	1851158	n/a	LTP347	ltpFR2	3	n/a	n/a	n/a	5	n/a	n/a	n/a	n/a
903.90185546875	n/a	PROB	1851191	n/a	LTP347	ltpFR2	3	n/a	n/a	n/a	5	18	1	9	8
905.10205078125	n/a	PROB	1853649	n/a	LTP347	ltpFR2	3	n/a	n/a	n/a	5	14	3	6	5
907.966796875	n/a	PROB	1859516	n/a	LTP347	ltpFR2	3	n/a	n/a	n/a	5	11	7	3	1
909.0830078125	n/a	PROB	1861802	n/a	LTP347	ltpFR2	3	n/a	n/a	n/a	5	15	2	5	6
911.69921875	n/a	PROB	1867160	n/a	LTP347	ltpFR2	3	n/a	n/a	n/a	5	18	9	4	5
913.53125	n/a	PROB	1870912	n/a	LTP347	ltpFR2	3	n/a	n/a	n/a	5	13	8	2	3
914.84716796875	n/a	PROB	1873607	n/a	LTP347	ltpFR2	3	n/a	n/a	n/a	5	16	9	7	1
916.7958984375	n/a	PROB	1877598	n/a	LTP347	ltpFR2	3	n/a	n/a	n/a	5	11	6	1	4
918.2119140625	n/a	PROB	1880498	n/a	LTP347	ltpFR2	3	n/a	n/a	n/a	5	15	3	8	4
920.3779296875	n/a	PROB	1884934	n/a	LTP347	ltpFR2	3	n/a	n/a	n/a	5	18	2	8	8
921.47705078125	n/a	PROB	1887185	n/a	LTP347	ltpFR2	3	n/a	n/a	n/a	5	14	2	4	8
922.81005859375	n/a	PROB	1889915	n/a	LTP347	ltpFR2	3	n/a	n/a	n/a	5	15	8	2	5
924.02587890625	n/a	PROB	1892405	n/a	LTP347	ltpFR2	3	n/a	n/a	n/a	5	19	8	4	7
926.6943359375	n/a	STOP	1897870	n/a	LTP347	ltpFR2	3	n/a	n/a	n/a	5	n/a	n/a	n/a	n/a
929.0732421875	n/a	WORD	1902742	wordpools/wasnorm_wordpool_576.txt	LTP347	ltpFR2	3	4	THIEF	1456	n/a	n/a	0	0	0
931.67236328125	n/a	WORD	1908065	wordpools/wasnorm_wordpool_576.txt	LTP347	ltpFR2	3	4	VICTIM	1562	n/a	n/a	0	0	0
934.25439453125	n/a	WORD	1913353	wordpools/wasnorm_wordpool_576.txt	LTP347	ltpFR2	3	4	LABEL	790	n/a	n/a	0	0	0
936.93603515625	n/a	WORD	1918845	wordpools/wasnorm_wordpool_576.txt	LTP347	ltpFR2	3	4	LEG	809	n/a	n/a	0	0	0
939.60107421875	n/a	WORD	1924303	wordpools/wasnorm_wordpool_576.txt	LTP347	ltpFR2	3	4	BINDER	127	n/a	n/a	0	0	0
942.0673828125	n/a	WORD	1929354	wordpools/wasnorm_wordpool_576.txt	LTP347	ltpFR2	3	4	NOVEL	960	n/a	n/a	0	0	0
944.59912109375	n/a	WORD	1934539	wordpools/wasnorm_wordpool_576.txt	LTP347	ltpFR2	3	4	GARDEN	623	n/a	n/a	0	0	0
947.3984375	n/a	WORD	1940272	wordpools/wasnorm_wordpool_576.txt	LTP347	ltpFR2	3	4	BISON	131	n/a	n/a	0	0	0
950.21337890625	n/a	WORD	1946037	wordpools/wasnorm_wordpool_576.txt	LTP347	ltpFR2	3	4	PIMPLE	1071	n/a	n/a	0	0	0
952.8623046875	n/a	WORD	1951462	wordpools/wasnorm_wordpool_576.txt	LTP347	ltpFR2	3	4	NECKLACE	940	n/a	n/a	0	0	0
955.3271484375	n/a	WORD	1956510	wordpools/wasnorm_wordpool_576.txt	LTP347	ltpFR2	3	4	GAZELLE	628	n/a	n/a	0	0	0
958.09228515625	n/a	WORD	1962173	wordpools/wasnorm_wordpool_576.txt	LTP347	ltpFR2	3	4	WAITRESS	1581	n/a	n/a	0	0	0
960.67431640625	n/a	WORD	1967461	wordpools/wasnorm_wordpool_576.txt	LTP347	ltpFR2	3	4	AWARD	63	n/a	n/a	0	0	0
963.490234375	n/a	WORD	1973228	wordpools/wasnorm_wordpool_576.txt	LTP347	ltpFR2	3	4	BEAST	108	n/a	n/a	0	0	0
966.08837890625	n/a	WORD	1978549	wordpools/wasnorm_wordpool_576.txt	LTP347	ltpFR2	3	4	TRUCK	1512	n/a	n/a	0	0	0
968.8544921875	n/a	WORD	1984214	wordpools/wasnorm_wordpool_576.txt	LTP347	ltpFR2	3	4	CANDY	230	n/a	n/a	0	0	0
971.41943359375	n/a	WORD	1989467	wordpools/wasnorm_wordpool_576.txt	LTP347	ltpFR2	3	4	IDOL	733	n/a	n/a	0	0	0
974.08447265625	n/a	WORD	1994925	wordpools/wasnorm_wordpool_576.txt	LTP347	ltpFR2	3	4	CLOCK	325	n/a	n/a	0	0	0
976.83349609375	n/a	WORD	2000555	wordpools/wasnorm_wordpool_576.txt	LTP347	ltpFR2	3	4	MARSH	874	n/a	n/a	0	0	0
979.6484375	n/a	WORD	2006320	wordpools/wasnorm_wordpool_576.txt	LTP347	ltpFR2	3	4	PLUTO	1092	n/a	n/a	0	0	0
982.1142578125	n/a	WORD	2011370	wordpools/wasnorm_wordpool_576.txt	LTP347	ltpFR2	3	4	STICKER	1382	n/a	n/a	0	0	0
984.62939453125	n/a	WORD	2016521	wordpools/wasnorm_wordpool_576.txt	LTP347	ltpFR2	3	4	CRUTCH	417	n/a	n/a	0	0	0
987.29443359375	n/a	WORD	2021979	wordpools/wasnorm_wordpool_576.txt	LTP347	ltpFR2	3	4	COCKTAIL	338	n/a	n/a	0	0	0
989.9765625	n/a	WORD	2027472	wordpools/wasnorm_wordpool_576.txt	LTP347	ltpFR2	3	4	FLASK	576	n/a	n/a	0	0	0
991.59228515625	n/a	START	2030781	n/a	LTP347	ltpFR2	3	n/a	n/a	n/a	6	n/a	n/a	n/a	n/a
992.5556640625	n/a	DISTRACTOR	2032754	n/a	LTP347	ltpFR2	3	4	n/a	n/a	n/a	n/a	0	0	0
992.55859375	n/a	PROB	2032760	n/a	LTP347	ltpFR2	3	n/a	n/a	n/a	6	19	5	6	8
995.17431640625	n/a	PROB	2038117	n/a	LTP347	ltpFR2	3	n/a	n/a	n/a	6	18	4	8	6
997.224609375	n/a	PROB	2042316	n/a	LTP347	ltpFR2	3	n/a	n/a	n/a	6	10	1	7	2
998.72265625	n/a	PROB	2045384	n/a	LTP347	ltpFR2	3	n/a	n/a	n/a	6	8	3	3	2
1000.35546875	n/a	PROB	2048728	n/a	LTP347	ltpFR2	3	n/a	n/a	n/a	6	20	7	4	9
1002.07080078125	n/a	PROB	2052241	n/a	LTP347	ltpFR2	3	n/a	n/a	n/a	6	18	6	3	9
1003.90380859375	n/a	PROB	2055995	n/a	LTP347	ltpFR2	3	n/a	n/a	n/a	6	9	3	3	3
1004.8525390625	n/a	PROB	2057938	n/a	LTP347	ltpFR2	3	n/a	n/a	n/a	6	4	1	1	2
1005.86962890625	n/a	PROB	2060021	n/a	LTP347	ltpFR2	3	n/a	n/a	n/a	6	20	9	4	7
1007.71875	n/a	PROB	2063808	n/a	LTP347	ltpFR2	3	n/a	n/a	n/a	6	23	9	5	9
1010.58349609375	n/a	PROB	2069675	n/a	LTP347	ltpFR2	3	n/a	n/a	n/a	6	6	4	1	1
1011.7998046875	n/a	PROB	2072166	n/a	LTP347	ltpFR2	3	n/a	n/a	n/a	6	19	3	7	9
1013.08251953125	n/a	PROB	2074793	n/a	LTP347	ltpFR2	3	n/a	n/a	n/a	6	21	8	5	8
1014.73486328125	n/a	STOP	2078177	n/a	LTP347	ltpFR2	3	n/a	n/a	n/a	6	n/a	n/a	n/a	n/a
1017.53076171875	n/a	REC_START	2083903	n/a	LTP347	ltpFR2	3	4	n/a	n/a	n/a	n/a	0	0	0
1021.20458984375	n/a	REC_WORD	2091427	wordpools/wasnorm_wordpool_576.txt	LTP347	ltpFR2	3	4	THIEF	1456	n/a	n/a	0	0	0
1021.7158203125	n/a	REC_WORD	2092474	wordpools/wasnorm_wordpool_576.txt	LTP347	ltpFR2	3	4	VICTIM	1562	n/a	n/a	0	0	0
1022.251953125	n/a	REC_WORD	2093572	wordpools/wasnorm_wordpool_576.txt	LTP347	ltpFR2	3	4	LABEL	790	n/a	n/a	0	0	0
1023.53955078125	n/a	REC_WORD	2096209	wordpools/wasnorm_wordpool_576.txt	LTP347	ltpFR2	3	4	BINDER	127	n/a	n/a	0	0	0
1025.2109375	n/a	REC_WORD	2099632	wordpools/wasnorm_wordpool_576.txt	LTP347	ltpFR2	3	4	NOVEL	960	n/a	n/a	0	0	0
1025.86181640625	n/a	REC_WORD	2100965	wordpools/wasnorm_wordpool_576.txt	LTP347	ltpFR2	3	4	GARDEN	623	n/a	n/a	0	0	0
1026.212890625	n/a	REC_WORD	2101684	wordpools/wasnorm_wordpool_576.txt	LTP347	ltpFR2	3	4	WAITRESS	1581	n/a	n/a	0	0	0
1026.9697265625	n/a	REC_WORD	2103234	wordpools/wasnorm_wordpool_576.txt	LTP347	ltpFR2	3	4	AWARD	63	n/a	n/a	0	0	0
1028.2236328125	n/a	REC_WORD	2105802	wordpools/wasnorm_wordpool_576.txt	LTP347	ltpFR2	3	4	TRUCK	1512	n/a	n/a	0	0	0
1028.73193359375	n/a	REC_WORD	2106843	wordpools/wasnorm_wordpool_576.txt	LTP347	ltpFR2	3	4	CANDY	230	n/a	n/a	0	0	0
1029.36181640625	n/a	REC_WORD	2108133	wordpools/wasnorm_wordpool_576.txt	LTP347	ltpFR2	3	4	IDOL	733	n/a	n/a	0	0	0
1031.4326171875	n/a	REC_WORD	2112374	wordpools/wasnorm_wordpool_576.txt	LTP347	ltpFR2	3	4	FLASK	576	n/a	n/a	0	0	0
1032.24755859375	n/a	REC_WORD	2114043	wordpools/wasnorm_wordpool_576.txt	LTP347	ltpFR2	3	4	COCKTAIL	338	n/a	n/a	0	0	0
1033.24755859375	n/a	REC_WORD_VV	2116091	wordpools/wasnorm_wordpool_576.txt	LTP347	ltpFR2	3	4	<>	-1	n/a	n/a	0	0	0
1034.73291015625	n/a	REC_WORD	2119133	wordpools/wasnorm_wordpool_576.txt	LTP347	ltpFR2	3	4	BEAST	108	n/a	n/a	0	0	0
1036.43505859375	n/a	REC_WORD	2122619	wordpools/wasnorm_wordpool_576.txt	LTP347	ltpFR2	3	4	BISON	131	n/a	n/a	0	0	0
1036.98095703125	n/a	REC_WORD	2123737	wordpools/wasnorm_wordpool_576.txt	LTP347	ltpFR2	3	4	GAZELLE	628	n/a	n/a	0	0	0
1038.97607421875	n/a	REC_WORD	2127823	wordpools/wasnorm_wordpool_576.txt	LTP347	ltpFR2	3	4	NECKLACE	940	n/a	n/a	0	0	0
1039.97607421875	n/a	REC_WORD_VV	2129871	wordpools/wasnorm_wordpool_576.txt	LTP347	ltpFR2	3	4	<>	-1	n/a	n/a	0	0	0
1107.9853515625	n/a	DISTRACTOR	2269154	n/a	LTP347	ltpFR2	3	5	n/a	n/a	n/a	n/a	0	0	0
1107.986328125	n/a	START	2269156	n/a	LTP347	ltpFR2	3	n/a	n/a	n/a	7	n/a	n/a	n/a	n/a
1108.00244140625	n/a	PROB	2269189	n/a	LTP347	ltpFR2	3	n/a	n/a	n/a	7	13	5	3	5
1109.41845703125	n/a	PROB	2272089	n/a	LTP347	ltpFR2	3	n/a	n/a	n/a	7	15	5	4	6
1110.76708984375	n/a	PROB	2274851	n/a	LTP347	ltpFR2	3	n/a	n/a	n/a	7	9	1	4	4
1112.38330078125	n/a	PROB	2278161	n/a	LTP347	ltpFR2	3	n/a	n/a	n/a	7	18	4	7	7
1114.93212890625	n/a	PROB	2283381	n/a	LTP347	ltpFR2	3	n/a	n/a	n/a	7	10	1	5	4
1116.4814453125	n/a	PROB	2286554	n/a	LTP347	ltpFR2	3	n/a	n/a	n/a	7	12	1	9	2
1117.58154296875	n/a	PROB	2288807	n/a	LTP347	ltpFR2	3	n/a	n/a	n/a	7	17	6	8	3
1119.84619140625	n/a	PROB	2293445	n/a	LTP347	ltpFR2	3	n/a	n/a	n/a	7	12	4	6	2
1121.0625	n/a	PROB	2295936	n/a	LTP347	ltpFR2	3	n/a	n/a	n/a	7	13	5	3	5
1122.3125	n/a	PROB	2298496	n/a	LTP347	ltpFR2	3	n/a	n/a	n/a	7	16	9	4	3
1123.71142578125	n/a	PROB	2301361	n/a	LTP347	ltpFR2	3	n/a	n/a	n/a	7	23	9	9	5
1126.2275390625	n/a	PROB	2306514	n/a	LTP347	ltpFR2	3	n/a	n/a	n/a	7	20	8	6	7
1128.359375	n/a	PROB	2310880	n/a	LTP347	ltpFR2	3	n/a	n/a	n/a	7	17	7	7	3
1131.986328125	n/a	STOP	2318308	n/a	LTP347	ltpFR2	3	n/a	n/a	n/a	7	n/a	n/a	n/a	n/a
1133.1904296875	n/a	WORD	2320774	wordpools/wasnorm_wordpool_576.txt	LTP347	ltpFR2	3	5	MONEY	908	n/a	n/a	0	0	0
1135.87255859375	n/a	WORD	2326267	wordpools/wasnorm_wordpool_576.txt	LTP347	ltpFR2	3	5	SPONGE	1355	n/a	n/a	0	0	0
1138.6376953125	n/a	WORD	2331930	wordpools/wasnorm_wordpool_576.txt	LTP347	ltpFR2	3	5	DAISY	435	n/a	n/a	0	0	0
1141.33642578125	n/a	WORD	2337457	wordpools/wasnorm_wordpool_576.txt	LTP347	ltpFR2	3	5	SPIDER	1351	n/a	n/a	0	0	0
1144.0185546875	n/a	WORD	2342950	wordpools/wasnorm_wordpool_576.txt	LTP347	ltpFR2	3	5	OINTMENT	974	n/a	n/a	0	0	0
1146.66650390625	n/a	WORD	2348373	wordpools/wasnorm_wordpool_576.txt	LTP347	ltpFR2	3	5	DONKEY	484	n/a	n/a	0	0	0
1149.36572265625	n/a	WORD	2353901	wordpools/wasnorm_wordpool_576.txt	LTP347	ltpFR2	3	5	QUEEN	1149	n/a	n/a	0	0	0
1152.04736328125	n/a	WORD	2359393	wordpools/wasnorm_wordpool_576.txt	LTP347	ltpFR2	3	5	ICEBERG	731	n/a	n/a	0	0	0
1154.5625	n/a	WORD	2364544	wordpools/wasnorm_wordpool_576.txt	LTP347	ltpFR2	3	5	GUARD	667	n/a	n/a	0	0	0
1157.07861328125	n/a	WORD	2369697	wordpools/wasnorm_wordpool_576.txt	LTP347	ltpFR2	3	5	QUAIL	1147	n/a	n/a	0	0	0
1159.5107421875	n/a	WORD	2374678	wordpools/wasnorm_wordpool_576.txt	LTP347	ltpFR2	3	5	CONTRACT	368	n/a	n/a	0	0	0
1161.94287109375	n/a	WORD	2379659	wordpools/wasnorm_wordpool_576.txt	LTP347	ltpFR2	3	5	EYELASH	546	n/a	n/a	0	0	0
1164.4248046875	n/a	WORD	2384742	wordpools/wasnorm_wordpool_576.txt	LTP347	ltpFR2	3	5	FRECKLE	602	n/a	n/a	0	0	0
1167.189453125	n/a	WORD	2390404	wordpools/wasnorm_wordpool_576.txt	LTP347	ltpFR2	3	5	PLATE	1086	n/a	n/a	0	0	0
1169.65576171875	n/a	WORD	2395455	wordpools/wasnorm_wordpool_576.txt	LTP347	ltpFR2	3	5	MARKET	871	n/a	n/a	0	0	0
1172.37060546875	n/a	WORD	2401015	wordpools/wasnorm_wordpool_576.txt	LTP347	ltpFR2	3	5	PANTHER	1009	n/a	n/a	0	0	0
1174.802734375	n/a	WORD	2405996	wordpools/wasnorm_wordpool_576.txt	LTP347	ltpFR2	3	5	LEOPARD	812	n/a	n/a	0	0	0
1177.501953125	n/a	WORD	2411524	wordpools/wasnorm_wordpool_576.txt	LTP347	ltpFR2	3	5	HEADBAND	696	n/a	n/a	0	0	0
1180.11669921875	n/a	WORD	2416879	wordpools/wasnorm_wordpool_576.txt	LTP347	ltpFR2	3	5	ZEBRA	1635	n/a	n/a	0	0	0
1182.5498046875	n/a	WORD	2421862	wordpools/wasnorm_wordpool_576.txt	LTP347	ltpFR2	3	5	TERMITE	1451	n/a	n/a	0	0	0
1185.0478515625	n/a	WORD	2426978	wordpools/wasnorm_wordpool_576.txt	LTP347	ltpFR2	3	5	SCISSORS	1250	n/a	n/a	0	0	0
1187.796875	n/a	WORD	2432608	wordpools/wasnorm_wordpool_576.txt	LTP347	ltpFR2	3	5	BARREL	91	n/a	n/a	0	0	0
1190.47900390625	n/a	WORD	2438101	wordpools/wasnorm_wordpool_576.txt	LTP347	ltpFR2	3	5	FREEZER	604	n/a	n/a	0	0	0
1193.2607421875	n/a	WORD	2443798	wordpools/wasnorm_wordpool_576.txt	LTP347	ltpFR2	3	5	LIGHTNING	820	n/a	n/a	0	0	0
1194.876953125	n/a	START	2447108	n/a	LTP347	ltpFR2	3	n/a	n/a	n/a	8	n/a	n/a	n/a	n/a
1195.69189453125	n/a	DISTRACTOR	2448777	n/a	LTP347	ltpFR2	3	5	n/a	n/a	n/a	n/a	0	0	0
1195.7099609375	n/a	PROB	2448814	n/a	LTP347	ltpFR2	3	n/a	n/a	n/a	8	22	8	8	7
1198.10791015625	n/a	PROB	2453725	n/a	LTP347	ltpFR2	3	n/a	n/a	n/a	8	19	9	8	2
1199.30810546875	n/a	PROB	2456183	n/a	LTP347	ltpFR2	3	n/a	n/a	n/a	8	18	4	7	7
1201.52294921875	n/a	PROB	2460719	n/a	LTP347	ltpFR2	3	n/a	n/a	n/a	8	13	5	2	6
1203.3720703125	n/a	PROB	2464506	n/a	LTP347	ltpFR2	3	n/a	n/a	n/a	8	15	5	7	3
1205.40478515625	n/a	PROB	2468669	n/a	LTP347	ltpFR2	3	n/a	n/a	n/a	8	12	7	3	2
1206.77099609375	n/a	PROB	2471467	n/a	LTP347	ltpFR2	3	n/a	n/a	n/a	8	15	5	5	5
1207.85400390625	n/a	PROB	2473685	n/a	LTP347	ltpFR2	3	n/a	n/a	n/a	8	14	5	3	6
1209.552734375	n/a	PROB	2477164	n/a	LTP347	ltpFR2	3	n/a	n/a	n/a	8	19	8	6	5
1211.85205078125	n/a	PROB	2481873	n/a	LTP347	ltpFR2	3	n/a	n/a	n/a	8	15	7	5	3
1213.201171875	n/a	PROB	2484636	n/a	LTP347	ltpFR2	3	n/a	n/a	n/a	8	22	8	6	8
1215.89990234375	n/a	PROB	2490163	n/a	LTP347	ltpFR2	3	n/a	n/a	n/a	8	6	1	2	3
1216.98193359375	n/a	PROB	2492379	n/a	LTP347	ltpFR2	3	n/a	n/a	n/a	8	16	5	4	7
1218.6240234375	n/a	STOP	2495742	n/a	LTP347	ltpFR2	3	n/a	n/a	n/a	8	n/a	n/a	n/a	n/a
1220.68115234375	n/a	REC_START	2499955	n/a	LTP347	ltpFR2	3	5	n/a	n/a	n/a	n/a	0	0	0
1227.669921875	n/a	REC_WORD	2514268	wordpools/wasnorm_wordpool_576.txt	LTP347	ltpFR2	3	5	QUEEN	1149	n/a	n/a	0	0	0
1228.6982421875	n/a	REC_WORD	2516374	wordpools/wasnorm_wordpool_576.txt	LTP347	ltpFR2	3	5	EYELASH	546	n/a	n/a	0	0	0
1229.380859375	n/a	REC_WORD	2517772	wordpools/wasnorm_wordpool_576.txt	LTP347	ltpFR2	3	5	FRECKLE	602	n/a	n/a	0	0	0
1230.05517578125	n/a	REC_WORD	2519153	wordpools/wasnorm_wordpool_576.txt	LTP347	ltpFR2	3	5	HEADBAND	696	n/a	n/a	0	0	0
1230.85498046875	n/a	REC_WORD	2520791	wordpools/wasnorm_wordpool_576.txt	LTP347	ltpFR2	3	5	QUAIL	1147	n/a	n/a	0	0	0
1231.2529296875	n/a	REC_WORD	2521606	wordpools/wasnorm_wordpool_576.txt	LTP347	ltpFR2	3	5	CONTRACT	368	n/a	n/a	0	0	0
1232.06298828125	n/a	REC_WORD	2523265	wordpools/wasnorm_wordpool_576.txt	LTP347	ltpFR2	3	5	PLATE	1086	n/a	n/a	0	0	0
1232.5	n/a	REC_WORD	2524160	wordpools/wasnorm_wordpool_576.txt	LTP347	ltpFR2	3	5	MARKET	871	n/a	n/a	0	0	0
1233.07421875	n/a	REC_WORD	2525336	wordpools/wasnorm_wordpool_576.txt	LTP347	ltpFR2	3	5	LEOPARD	812	n/a	n/a	0	0	0
1234.56396484375	n/a	REC_WORD	2528387	wordpools/wasnorm_wordpool_576.txt	LTP347	ltpFR2	3	5	PANTHER	1009	n/a	n/a	0	0	0
1235.0732421875	n/a	REC_WORD	2529430	wordpools/wasnorm_wordpool_576.txt	LTP347	ltpFR2	3	5	ZEBRA	1635	n/a	n/a	0	0	0
1236.34716796875	n/a	REC_WORD	2532039	wordpools/wasnorm_wordpool_576.txt	LTP347	ltpFR2	3	5	TERMITE	1451	n/a	n/a	0	0	0
1236.7431640625	n/a	REC_WORD	2532850	wordpools/wasnorm_wordpool_576.txt	LTP347	ltpFR2	3	5	SCISSORS	1250	n/a	n/a	0	0	0
1237.22314453125	n/a	REC_WORD	2533833	wordpools/wasnorm_wordpool_576.txt	LTP347	ltpFR2	3	5	FREEZER	604	n/a	n/a	0	0	0
1237.8642578125	n/a	REC_WORD	2535146	wordpools/wasnorm_wordpool_576.txt	LTP347	ltpFR2	3	5	LIGHTNING	820	n/a	n/a	0	0	0
1238.48291015625	n/a	REC_WORD	2536413	wordpools/wasnorm_wordpool_576.txt	LTP347	ltpFR2	3	5	BARREL	91	n/a	n/a	0	0	0
1245.1513671875	n/a	REC_WORD	2550070	wordpools/wasnorm_wordpool_576.txt	LTP347	ltpFR2	3	5	OINTMENT	974	n/a	n/a	0	0	0
1247.19921875	n/a	REC_WORD	2554264	wordpools/wasnorm_wordpool_576.txt	LTP347	ltpFR2	3	5	MONEY	908	n/a	n/a	0	0	0
1247.59228515625	n/a	REC_WORD	2555069	wordpools/wasnorm_wordpool_576.txt	LTP347	ltpFR2	3	5	SPONGE	1355	n/a	n/a	0	0	0
1249.87939453125	n/a	REC_WORD	2559753	wordpools/wasnorm_wordpool_576.txt	LTP347	ltpFR2	3	5	SPIDER	1351	n/a	n/a	0	0	0
1250.623046875	n/a	REC_WORD	2561276	wordpools/wasnorm_wordpool_576.txt	LTP347	ltpFR2	3	5	DAISY	435	n/a	n/a	0	0	0
1251.791015625	n/a	REC_WORD	2563668	wordpools/wasnorm_wordpool_576.txt	LTP347	ltpFR2	3	5	OINTMENT	974	n/a	n/a	0	0	0
1252.64013671875	n/a	REC_WORD_VV	2565407	wordpools/wasnorm_wordpool_576.txt	LTP347	ltpFR2	3	5	<>	-1	n/a	n/a	0	0	0
1311.13671875	n/a	WORD	2685208	wordpools/wasnorm_wordpool_576.txt	LTP347	ltpFR2	3	6	MASK	876	n/a	n/a	0	0	0
1313.75146484375	n/a	WORD	2690563	wordpools/wasnorm_wordpool_576.txt	LTP347	ltpFR2	3	6	SANDWICH	1232	n/a	n/a	0	0	0
1316.41650390625	n/a	WORD	2696021	wordpools/wasnorm_wordpool_576.txt	LTP347	ltpFR2	3	6	OZONE	996	n/a	n/a	0	0	0
1318.9658203125	n/a	WORD	2701242	wordpools/wasnorm_wordpool_576.txt	LTP347	ltpFR2	3	6	PEPPER	1047	n/a	n/a	0	0	0
1321.46484375	n/a	WORD	2706360	wordpools/wasnorm_wordpool_576.txt	LTP347	ltpFR2	3	6	GARLIC	624	n/a	n/a	0	0	0
1324.24658203125	n/a	WORD	2712057	wordpools/wasnorm_wordpool_576.txt	LTP347	ltpFR2	3	6	BRIEFCASE	175	n/a	n/a	0	0	0
1326.82861328125	n/a	WORD	2717345	wordpools/wasnorm_wordpool_576.txt	LTP347	ltpFR2	3	6	CREVICE	405	n/a	n/a	0	0	0
1329.34375	n/a	WORD	2722496	wordpools/wasnorm_wordpool_576.txt	LTP347	ltpFR2	3	6	JEANS	752	n/a	n/a	0	0	0
1332.0087890625	n/a	WORD	2727954	wordpools/wasnorm_wordpool_576.txt	LTP347	ltpFR2	3	6	DINER	467	n/a	n/a	0	0	0
1334.6416015625	n/a	WORD	2733346	wordpools/wasnorm_wordpool_576.txt	LTP347	ltpFR2	3	6	MAILMAN	858	n/a	n/a	0	0	0
1337.18994140625	n/a	WORD	2738565	wordpools/wasnorm_wordpool_576.txt	LTP347	ltpFR2	3	6	POSTAGE	1113	n/a	n/a	0	0	0
1339.77197265625	n/a	WORD	2743853	wordpools/wasnorm_wordpool_576.txt	LTP347	ltpFR2	3	6	SWAMP	1416	n/a	n/a	0	0	0
1342.4208984375	n/a	WORD	2749278	wordpools/wasnorm_wordpool_576.txt	LTP347	ltpFR2	3	6	BUTCHER	203	n/a	n/a	0	0	0
1345.052734375	n/a	WORD	2754668	wordpools/wasnorm_wordpool_576.txt	LTP347	ltpFR2	3	6	CRAB	397	n/a	n/a	0	0	0
1347.73486328125	n/a	WORD	2760161	wordpools/wasnorm_wordpool_576.txt	LTP347	ltpFR2	3	6	CASHIER	254	n/a	n/a	0	0	0
1350.30078125	n/a	WORD	2765416	wordpools/wasnorm_wordpool_576.txt	LTP347	ltpFR2	3	6	MONSTER	912	n/a	n/a	0	0	0
1352.798828125	n/a	WORD	2770532	wordpools/wasnorm_wordpool_576.txt	LTP347	ltpFR2	3	6	LAPEL	800	n/a	n/a	0	0	0
1355.5146484375	n/a	WORD	2776094	wordpools/wasnorm_wordpool_576.txt	LTP347	ltpFR2	3	6	CRATER	400	n/a	n/a	0	0	0
1358.02978515625	n/a	WORD	2781245	wordpools/wasnorm_wordpool_576.txt	LTP347	ltpFR2	3	6	CLOUD	328	n/a	n/a	0	0	0
1360.56201171875	n/a	WORD	2786431	wordpools/wasnorm_wordpool_576.txt	LTP347	ltpFR2	3	6	EUROPE	541	n/a	n/a	0	0	0
1363.06103515625	n/a	WORD	2791549	wordpools/wasnorm_wordpool_576.txt	LTP347	ltpFR2	3	6	CONCERT	360	n/a	n/a	0	0	0
1365.576171875	n/a	WORD	2796700	wordpools/wasnorm_wordpool_576.txt	LTP347	ltpFR2	3	6	COOKBOOK	373	n/a	n/a	0	0	0
1368.10791015625	n/a	WORD	2801885	wordpools/wasnorm_wordpool_576.txt	LTP347	ltpFR2	3	6	BANQUET	86	n/a	n/a	0	0	0
1370.83984375	n/a	WORD	2807480	wordpools/wasnorm_wordpool_576.txt	LTP347	ltpFR2	3	6	SEAFOOD	1260	n/a	n/a	0	0	0
1372.4560546875	n/a	START	2810790	n/a	LTP347	ltpFR2	3	n/a	n/a	n/a	9	n/a	n/a	n/a	n/a
1373.44677734375	n/a	DISTRACTOR	2812819	n/a	LTP347	ltpFR2	3	6	n/a	n/a	n/a	n/a	0	0	0
1373.4560546875	n/a	PROB	2812838	n/a	LTP347	ltpFR2	3	n/a	n/a	n/a	9	18	4	9	5
1376.337890625	n/a	PROB	2818740	n/a	LTP347	ltpFR2	3	n/a	n/a	n/a	9	24	9	8	7
1378.97021484375	n/a	PROB	2824131	n/a	LTP347	ltpFR2	3	n/a	n/a	n/a	9	21	5	9	7
1381.30224609375	n/a	PROB	2828907	n/a	LTP347	ltpFR2	3	n/a	n/a	n/a	9	13	5	5	3
1382.7509765625	n/a	PROB	2831874	n/a	LTP347	ltpFR2	3	n/a	n/a	n/a	9	8	1	3	4
1383.93408203125	n/a	PROB	2834297	n/a	LTP347	ltpFR2	3	n/a	n/a	n/a	9	7	1	2	4
1385.2001953125	n/a	PROB	2836890	n/a	LTP347	ltpFR2	3	n/a	n/a	n/a	9	20	9	3	8
1386.81591796875	n/a	PROB	2840199	n/a	LTP347	ltpFR2	3	n/a	n/a	n/a	9	24	8	7	9
1388.88134765625	n/a	PROB	2844429	n/a	LTP347	ltpFR2	3	n/a	n/a	n/a	9	16	8	3	5
1390.79736328125	n/a	PROB	2848353	n/a	LTP347	ltpFR2	3	n/a	n/a	n/a	9	8	3	2	3
1392.7958984375	n/a	PROB	2852446	n/a	LTP347	ltpFR2	3	n/a	n/a	n/a	9	19	4	6	9
1394.37890625	n/a	PROB	2855688	n/a	LTP347	ltpFR2	3	n/a	n/a	n/a	9	21	8	6	7
1396.17724609375	n/a	STOP	2859371	n/a	LTP347	ltpFR2	3	n/a	n/a	n/a	9	n/a	n/a	n/a	n/a
1398.39501953125	n/a	REC_START	2863913	n/a	LTP347	ltpFR2	3	6	n/a	n/a	n/a	n/a	0	0	0
1400.89013671875	n/a	REC_WORD	2869023	wordpools/wasnorm_wordpool_576.txt	LTP347	ltpFR2	3	6	MASK	876	n/a	n/a	0	0	0
1401.38037109375	n/a	REC_WORD	2870027	wordpools/wasnorm_wordpool_576.txt	LTP347	ltpFR2	3	6	SANDWICH	1232	n/a	n/a	0	0	0
1401.97412109375	n/a	REC_WORD	2871243	wordpools/wasnorm_wordpool_576.txt	LTP347	ltpFR2	3	6	PEPPER	1047	n/a	n/a	0	0	0
1402.46435546875	n/a	REC_WORD	2872247	wordpools/wasnorm_wordpool_576.txt	LTP347	ltpFR2	3	6	GARLIC	624	n/a	n/a	0	0	0
1404.00439453125	n/a	REC_WORD	2875401	wordpools/wasnorm_wordpool_576.txt	LTP347	ltpFR2	3	6	BRIEFCASE	175	n/a	n/a	0	0	0
1404.6064453125	n/a	REC_WORD	2876634	wordpools/wasnorm_wordpool_576.txt	LTP347	ltpFR2	3	6	CREVICE	405	n/a	n/a	0	0	0
1405.4970703125	n/a	REC_WORD	2878458	wordpools/wasnorm_wordpool_576.txt	LTP347	ltpFR2	3	6	LABEL	790	n/a	n/a	0	0	0
1406.29638671875	n/a	REC_WORD	2880095	wordpools/wasnorm_wordpool_576.txt	LTP347	ltpFR2	3	6	JEANS	752	n/a	n/a	0	0	0
1410.111328125	n/a	REC_WORD	2887908	wordpools/wasnorm_wordpool_576.txt	LTP347	ltpFR2	3	6	MAILMAN	858	n/a	n/a	0	0	0
1410.84423828125	n/a	REC_WORD	2889409	wordpools/wasnorm_wordpool_576.txt	LTP347	ltpFR2	3	6	POSTAGE	1113	n/a	n/a	0	0	0
1411.84423828125	n/a	REC_WORD_VV	2891457	wordpools/wasnorm_wordpool_576.txt	LTP347	ltpFR2	3	6	<>	-1	n/a	n/a	0	0	0
1414.0400390625	n/a	REC_WORD	2895954	wordpools/wasnorm_wordpool_576.txt	LTP347	ltpFR2	3	6	SWAMP	1416	n/a	n/a	0	0	0
1414.689453125	n/a	REC_WORD	2897284	wordpools/wasnorm_wordpool_576.txt	LTP347	ltpFR2	3	6	OZONE	996	n/a	n/a	0	0	0
1416.88037109375	n/a	REC_WORD	2901771	wordpools/wasnorm_wordpool_576.txt	LTP347	ltpFR2	3	6	BUTCHER	203	n/a	n/a	0	0	0
1421.21337890625	n/a	REC_WORD	2910645	wordpools/wasnorm_wordpool_576.txt	LTP347	ltpFR2	3	6	CRAB	397	n/a	n/a	0	0	0
1421.75244140625	n/a	REC_WORD	2911749	wordpools/wasnorm_wordpool_576.txt	LTP347	ltpFR2	3	6	CASHIER	254	n/a	n/a	0	0	0
1488.8486328125	n/a	DISTRACTOR	3049162	n/a	LTP347	ltpFR2	3	7	n/a	n/a	n/a	n/a	0	0	0
1488.849609375	n/a	START	3049164	n/a	LTP347	ltpFR2	3	n/a	n/a	n/a	10	n/a	n/a	n/a	n/a
1488.86572265625	n/a	PROB	3049197	n/a	LTP347	ltpFR2	3	n/a	n/a	n/a	10	20	4	7	9
1490.23291015625	n/a	PROB	3051997	n/a	LTP347	ltpFR2	3	n/a	n/a	n/a	10	18	8	8	2
1491.380859375	n/a	PROB	3054348	n/a	LTP347	ltpFR2	3	n/a	n/a	n/a	10	15	3	9	3
1493.08056640625	n/a	PROB	3057829	n/a	LTP347	ltpFR2	3	n/a	n/a	n/a	10	17	5	5	7
1494.41259765625	n/a	PROB	3060557	n/a	LTP347	ltpFR2	3	n/a	n/a	n/a	10	15	5	5	5
1495.462890625	n/a	PROB	3062708	n/a	LTP347	ltpFR2	3	n/a	n/a	n/a	10	15	7	2	6
1498.7939453125	n/a	PROB	3069530	n/a	LTP347	ltpFR2	3	n/a	n/a	n/a	10	17	9	3	5
1501.22705078125	n/a	PROB	3074513	n/a	LTP347	ltpFR2	3	n/a	n/a	n/a	10	16	7	6	3
1502.69287109375	n/a	PROB	3077515	n/a	LTP347	ltpFR2	3	n/a	n/a	n/a	10	12	8	1	3
1504.19189453125	n/a	PROB	3080585	n/a	LTP347	ltpFR2	3	n/a	n/a	n/a	10	4	9	2	3
1505.640625	n/a	PROB	3083552	n/a	LTP347	ltpFR2	3	n/a	n/a	n/a	10	8	2	2	3
1506.74072265625	n/a	PROB	3085805	n/a	LTP347	ltpFR2	3	n/a	n/a	n/a	10	27	9	8	7
1509.22265625	n/a	PROB	3090888	n/a	LTP347	ltpFR2	3	n/a	n/a	n/a	10	15	4	3	8
1511.1220703125	n/a	PROB	3094778	n/a	LTP347	ltpFR2	3	n/a	n/a	n/a	10	15	8	6	1
1512.8017578125	n/a	STOP	3098218	n/a	LTP347	ltpFR2	3	n/a	n/a	n/a	10	n/a	n/a	n/a	n/a
1513.73681640625	n/a	WORD	3100133	wordpools/wasnorm_wordpool_576.txt	LTP347	ltpFR2	3	7	TOMBSTONE	1478	n/a	n/a	0	0	0
1516.4521484375	n/a	WORD	3105694	wordpools/wasnorm_wordpool_576.txt	LTP347	ltpFR2	3	7	PILOT	1070	n/a	n/a	0	0	0
1519.10107421875	n/a	WORD	3111119	wordpools/wasnorm_wordpool_576.txt	LTP347	ltpFR2	3	7	FLUTE	585	n/a	n/a	0	0	0
1521.75	n/a	WORD	3116544	wordpools/wasnorm_wordpool_576.txt	LTP347	ltpFR2	3	7	LAVA	804	n/a	n/a	0	0	0
1524.43212890625	n/a	WORD	3122037	wordpools/wasnorm_wordpool_576.txt	LTP347	ltpFR2	3	7	CHIPMUNK	304	n/a	n/a	0	0	0
1527.18017578125	n/a	WORD	3127665	wordpools/wasnorm_wordpool_576.txt	LTP347	ltpFR2	3	7	POSSUM	1112	n/a	n/a	0	0	0
1529.72900390625	n/a	WORD	3132885	wordpools/wasnorm_wordpool_576.txt	LTP347	ltpFR2	3	7	WHISTLE	1606	n/a	n/a	0	0	0
1532.5439453125	n/a	WORD	3138650	wordpools/wasnorm_wordpool_576.txt	LTP347	ltpFR2	3	7	TRENCH	1503	n/a	n/a	0	0	0
1535.01025390625	n/a	WORD	3143701	wordpools/wasnorm_wordpool_576.txt	LTP347	ltpFR2	3	7	PEANUT	1032	n/a	n/a	0	0	0
1537.625	n/a	WORD	3149056	wordpools/wasnorm_wordpool_576.txt	LTP347	ltpFR2	3	7	GRAVE	658	n/a	n/a	0	0	0
1540.39111328125	n/a	WORD	3154721	wordpools/wasnorm_wordpool_576.txt	LTP347	ltpFR2	3	7	HERO	706	n/a	n/a	0	0	0
1543.15625	n/a	WORD	3160384	wordpools/wasnorm_wordpool_576.txt	LTP347	ltpFR2	3	7	EXPERT	543	n/a	n/a	0	0	0
1545.7880859375	n/a	WORD	3165774	wordpools/wasnorm_wordpool_576.txt	LTP347	ltpFR2	3	7	TWEEZERS	1526	n/a	n/a	0	0	0
1548.486328125	n/a	WORD	3171300	wordpools/wasnorm_wordpool_576.txt	LTP347	ltpFR2	3	7	SUBWAY	1400	n/a	n/a	0	0	0
1551.1181640625	n/a	WORD	3176690	wordpools/wasnorm_wordpool_576.txt	LTP347	ltpFR2	3	7	MUFFIN	929	n/a	n/a	0	0	0
1553.6513671875	n/a	WORD	3181878	wordpools/wasnorm_wordpool_576.txt	LTP347	ltpFR2	3	7	CIGAR	308	n/a	n/a	0	0	0
1556.1494140625	n/a	WORD	3186994	wordpools/wasnorm_wordpool_576.txt	LTP347	ltpFR2	3	7	VALLEY	1545	n/a	n/a	0	0	0
1558.68115234375	n/a	WORD	3192179	wordpools/wasnorm_wordpool_576.txt	LTP347	ltpFR2	3	7	BUGGY	188	n/a	n/a	0	0	0
1561.46337890625	n/a	WORD	3197877	wordpools/wasnorm_wordpool_576.txt	LTP347	ltpFR2	3	7	STAMP	1370	n/a	n/a	0	0	0
1563.97900390625	n/a	WORD	3203029	wordpools/wasnorm_wordpool_576.txt	LTP347	ltpFR2	3	7	REPORT	1184	n/a	n/a	0	0	0
1566.5771484375	n/a	WORD	3208350	wordpools/wasnorm_wordpool_576.txt	LTP347	ltpFR2	3	7	GALLON	618	n/a	n/a	0	0	0
1569.26025390625	n/a	WORD	3213845	wordpools/wasnorm_wordpool_576.txt	LTP347	ltpFR2	3	7	BARLEY	88	n/a	n/a	0	0	0
1572.00830078125	n/a	WORD	3219473	wordpools/wasnorm_wordpool_576.txt	LTP347	ltpFR2	3	7	SALMON	1227	n/a	n/a	0	0	0
1574.75732421875	n/a	WORD	3225103	wordpools/wasnorm_wordpool_576.txt	LTP347	ltpFR2	3	7	FLIPPER	580	n/a	n/a	0	0	0
1576.37353515625	n/a	START	3228413	n/a	LTP347	ltpFR2	3	n/a	n/a	n/a	11	n/a	n/a	n/a	n/a
1577.55517578125	n/a	DISTRACTOR	3230833	n/a	LTP347	ltpFR2	3	7	n/a	n/a	n/a	n/a	0	0	0
1577.572265625	n/a	PROB	3230868	n/a	LTP347	ltpFR2	3	n/a	n/a	n/a	11	12	3	7	2
1579.48828125	n/a	PROB	3234792	n/a	LTP347	ltpFR2	3	n/a	n/a	n/a	11	15	6	3	6
1581.33740234375	n/a	PROB	3238579	n/a	LTP347	ltpFR2	3	n/a	n/a	n/a	11	12	7	3	2
1582.38623046875	n/a	PROB	3240727	n/a	LTP347	ltpFR2	3	n/a	n/a	n/a	11	15	3	8	4
1584.13525390625	n/a	PROB	3244309	n/a	LTP347	ltpFR2	3	n/a	n/a	n/a	11	9	5	1	3
1585.8515625	n/a	PROB	3247824	n/a	LTP347	ltpFR2	3	n/a	n/a	n/a	11	7	3	1	3
1587.3505859375	n/a	PROB	3250894	n/a	LTP347	ltpFR2	3	n/a	n/a	n/a	11	18	7	3	8
1588.56640625	n/a	PROB	3253384	n/a	LTP347	ltpFR2	3	n/a	n/a	n/a	11	18	1	7	8
1589.7666015625	n/a	PROB	3255842	n/a	LTP347	ltpFR2	3	n/a	n/a	n/a	11	13	5	5	3
1591.16552734375	n/a	PROB	3258707	n/a	LTP347	ltpFR2	3	n/a	n/a	n/a	11	14	5	6	8
1592.88134765625	n/a	PROB	3262221	n/a	LTP347	ltpFR2	3	n/a	n/a	n/a	11	19	9	8	2
1594.064453125	n/a	PROB	3264644	n/a	LTP347	ltpFR2	3	n/a	n/a	n/a	11	11	3	4	4
1595.83056640625	n/a	PROB	3268261	n/a	LTP347	ltpFR2	3	n/a	n/a	n/a	11	14	2	8	4
1597.16259765625	n/a	PROB	3270989	n/a	LTP347	ltpFR2	3	n/a	n/a	n/a	11	13	8	1	5
1599.65869140625	n/a	STOP	3276101	n/a	LTP347	ltpFR2	3	n/a	n/a	n/a	11	n/a	n/a	n/a	n/a
1602.12744140625	n/a	REC_START	3281157	n/a	LTP347	ltpFR2	3	7	n/a	n/a	n/a	n/a	0	0	0
1603.74853515625	n/a	REC_WORD	3284477	wordpools/wasnorm_wordpool_576.txt	LTP347	ltpFR2	3	7	PILOT	1070	n/a	n/a	0	0	0
1604.8095703125	n/a	REC_WORD	3286650	wordpools/wasnorm_wordpool_576.txt	LTP347	ltpFR2	3	7	TOMBSTONE	1478	n/a	n/a	0	0	0
1605.8095703125	n/a	REC_WORD_VV	3288698	wordpools/wasnorm_wordpool_576.txt	LTP347	ltpFR2	3	7	<>	-1	n/a	n/a	0	0	0
1607.48046875	n/a	REC_WORD	3292120	wordpools/wasnorm_wordpool_576.txt	LTP347	ltpFR2	3	7	GRAVE	658	n/a	n/a	0	0	0
1608.08154296875	n/a	REC_WORD	3293351	wordpools/wasnorm_wordpool_576.txt	LTP347	ltpFR2	3	7	TRENCH	1503	n/a	n/a	0	0	0
1608.53955078125	n/a	REC_WORD	3294289	wordpools/wasnorm_wordpool_576.txt	LTP347	ltpFR2	3	7	CANYON	235	n/a	n/a	0	0	0
1610.87158203125	n/a	REC_WORD	3299065	wordpools/wasnorm_wordpool_576.txt	LTP347	ltpFR2	3	7	BUGGY	188	n/a	n/a	0	0	0
1613.28173828125	n/a	REC_WORD	3304001	wordpools/wasnorm_wordpool_576.txt	LTP347	ltpFR2	3	7	STAMP	1370	n/a	n/a	0	0	0
1613.78076171875	n/a	REC_WORD	3305023	wordpools/wasnorm_wordpool_576.txt	LTP347	ltpFR2	3	7	REPORT	1184	n/a	n/a	0	0	0
1617.24853515625	n/a	REC_WORD	3312125	wordpools/wasnorm_wordpool_576.txt	LTP347	ltpFR2	3	7	CIGAR	308	n/a	n/a	0	0	0
1617.693359375	n/a	REC_WORD	3313036	wordpools/wasnorm_wordpool_576.txt	LTP347	ltpFR2	3	7	MUFFIN	929	n/a	n/a	0	0	0
1618.04443359375	n/a	REC_WORD	3313755	wordpools/wasnorm_wordpool_576.txt	LTP347	ltpFR2	3	7	SUBWAY	1400	n/a	n/a	0	0	0
1619.2734375	n/a	REC_WORD	3316272	wordpools/wasnorm_wordpool_576.txt	LTP347	ltpFR2	3	7	SALMON	1227	n/a	n/a	0	0	0
1625.3046875	n/a	REC_WORD	3328624	wordpools/wasnorm_wordpool_576.txt	LTP347	ltpFR2	3	7	GRAVE	658	n/a	n/a	0	0	0
1626.1025390625	n/a	REC_WORD	3330258	wordpools/wasnorm_wordpool_576.txt	LTP347	ltpFR2	3	7	PEANUT	1032	n/a	n/a	0	0	0
1626.9775390625	n/a	REC_WORD	3332050	wordpools/wasnorm_wordpool_576.txt	LTP347	ltpFR2	3	7	EXPERT	543	n/a	n/a	0	0	0
1628.71044921875	n/a	REC_WORD	3335599	wordpools/wasnorm_wordpool_576.txt	LTP347	ltpFR2	3	7	LAVA	804	n/a	n/a	0	0	0
1629.27783203125	n/a	REC_WORD	3336761	wordpools/wasnorm_wordpool_576.txt	LTP347	ltpFR2	3	7	CHIPMUNK	304	n/a	n/a	0	0	0
1629.82080078125	n/a	REC_WORD	3337873	wordpools/wasnorm_wordpool_576.txt	LTP347	ltpFR2	3	7	WHISTLE	1606	n/a	n/a	0	0	0
1630.2607421875	n/a	REC_WORD	3338774	wordpools/wasnorm_wordpool_576.txt	LTP347	ltpFR2	3	7	FLUTE	585	n/a	n/a	0	0	0
1654.76171875	n/a	REC_WORD	3388952	wordpools/wasnorm_wordpool_576.txt	LTP347	ltpFR2	3	7	HERO	706	n/a	n/a	0	0	0
1670.89013671875	n/a	REC_WORD	3421983	wordpools/wasnorm_wordpool_576.txt	LTP347	ltpFR2	3	7	FLIPPER	580	n/a	n/a	0	0	0
1692.5830078125	n/a	DISTRACTOR	3466410	n/a	LTP347	ltpFR2	3	8	n/a	n/a	n/a	n/a	0	0	0
1692.5830078125	n/a	START	3466410	n/a	LTP347	ltpFR2	3	n/a	n/a	n/a	12	n/a	n/a	n/a	n/a
1692.59912109375	n/a	PROB	3466443	n/a	LTP347	ltpFR2	3	n/a	n/a	n/a	12	8	4	1	3
1693.88232421875	n/a	PROB	3469071	n/a	LTP347	ltpFR2	3	n/a	n/a	n/a	12	8	2	4	2
1695.3310546875	n/a	PROB	3472038	n/a	LTP347	ltpFR2	3	n/a	n/a	n/a	12	19	7	4	8
1697.296875	n/a	PROB	3476064	n/a	LTP347	ltpFR2	3	n/a	n/a	n/a	12	22	5	9	8
1699.24609375	n/a	PROB	3480056	n/a	LTP347	ltpFR2	3	n/a	n/a	n/a	12	17	7	4	6
1701.01220703125	n/a	PROB	3483673	n/a	LTP347	ltpFR2	3	n/a	n/a	n/a	12	20	2	9	9
1702.34423828125	n/a	PROB	3486401	n/a	LTP347	ltpFR2	3	n/a	n/a	n/a	12	13	8	4	1
1703.92724609375	n/a	PROB	3489643	n/a	LTP347	ltpFR2	3	n/a	n/a	n/a	12	16	7	8	1
1705.30908203125	n/a	PROB	3492473	n/a	LTP347	ltpFR2	3	n/a	n/a	n/a	12	10	1	8	1
1707.50830078125	n/a	PROB	3496977	n/a	LTP347	ltpFR2	3	n/a	n/a	n/a	12	14	1	5	8
1709.158203125	n/a	PROB	3500356	n/a	LTP347	ltpFR2	3	n/a	n/a	n/a	12	10	1	4	5
1710.5400390625	n/a	PROB	3503186	n/a	LTP347	ltpFR2	3	n/a	n/a	n/a	12	19	9	7	3
1711.64013671875	n/a	PROB	3505439	n/a	LTP347	ltpFR2	3	n/a	n/a	n/a	12	9	2	5	2
1712.72314453125	n/a	PROB	3507657	n/a	LTP347	ltpFR2	3	n/a	n/a	n/a	12	147	8	4	2
1714.17236328125	n/a	PROB	3510625	n/a	LTP347	ltpFR2	3	n/a	n/a	n/a	12	6	2	3	1
1715.37109375	n/a	STOP	3513080	n/a	LTP347	ltpFR2	3	n/a	n/a	n/a	12	n/a	n/a	n/a	n/a
1717.50439453125	n/a	WORD	3517449	wordpools/wasnorm_wordpool_576.txt	LTP347	ltpFR2	3	8	CUSTARD	429	n/a	n/a	0	0	0
1719.93603515625	n/a	WORD	3522429	wordpools/wasnorm_wordpool_576.txt	LTP347	ltpFR2	3	8	COUCH	386	n/a	n/a	0	0	0
1722.6181640625	n/a	WORD	3527922	wordpools/wasnorm_wordpool_576.txt	LTP347	ltpFR2	3	8	BULLET	194	n/a	n/a	0	0	0
1725.30029296875	n/a	WORD	3533415	wordpools/wasnorm_wordpool_576.txt	LTP347	ltpFR2	3	8	GANGSTER	620	n/a	n/a	0	0	0
1728.04833984375	n/a	WORD	3539043	wordpools/wasnorm_wordpool_576.txt	LTP347	ltpFR2	3	8	FILM	565	n/a	n/a	0	0	0
1730.76416015625	n/a	WORD	3544605	wordpools/wasnorm_wordpool_576.txt	LTP347	ltpFR2	3	8	LAGOON	795	n/a	n/a	0	0	0
1733.54638671875	n/a	WORD	3550303	wordpools/wasnorm_wordpool_576.txt	LTP347	ltpFR2	3	8	MARS	873	n/a	n/a	0	0	0
1736.14453125	n/a	WORD	3555624	wordpools/wasnorm_wordpool_576.txt	LTP347	ltpFR2	3	8	SOFTBALL	1343	n/a	n/a	0	0	0
1738.7431640625	n/a	WORD	3560946	wordpools/wasnorm_wordpool_576.txt	LTP347	ltpFR2	3	8	SKETCH	1315	n/a	n/a	0	0	0
1741.275390625	n/a	WORD	3566132	wordpools/wasnorm_wordpool_576.txt	LTP347	ltpFR2	3	8	PIGMENT	1066	n/a	n/a	0	0	0
1744.0576171875	n/a	WORD	3571830	wordpools/wasnorm_wordpool_576.txt	LTP347	ltpFR2	3	8	CRITIC	410	n/a	n/a	0	0	0
1746.58935546875	n/a	WORD	3577015	wordpools/wasnorm_wordpool_576.txt	LTP347	ltpFR2	3	8	DIME	466	n/a	n/a	0	0	0
1749.021484375	n/a	WORD	3581996	wordpools/wasnorm_wordpool_576.txt	LTP347	ltpFR2	3	8	GLOBE	641	n/a	n/a	0	0	0
1751.50341796875	n/a	WORD	3587079	wordpools/wasnorm_wordpool_576.txt	LTP347	ltpFR2	3	8	SAUSAGE	1238	n/a	n/a	0	0	0
1754.185546875	n/a	WORD	3592572	wordpools/wasnorm_wordpool_576.txt	LTP347	ltpFR2	3	8	PATROL	1027	n/a	n/a	0	0	0
1756.734375	n/a	WORD	3597792	wordpools/wasnorm_wordpool_576.txt	LTP347	ltpFR2	3	8	RABBIT	1152	n/a	n/a	0	0	0
1759.234375	n/a	WORD	3602912	wordpools/wasnorm_wordpool_576.txt	LTP347	ltpFR2	3	8	BUNNY	198	n/a	n/a	0	0	0
1762.04833984375	n/a	WORD	3608675	wordpools/wasnorm_wordpool_576.txt	LTP347	ltpFR2	3	8	MOTEL	919	n/a	n/a	0	0	0
1764.8134765625	n/a	WORD	3614338	wordpools/wasnorm_wordpool_576.txt	LTP347	ltpFR2	3	8	COMPASS	358	n/a	n/a	0	0	0
1767.24560546875	n/a	WORD	3619319	wordpools/wasnorm_wordpool_576.txt	LTP347	ltpFR2	3	8	MUSTARD	935	n/a	n/a	0	0	0
1770.01171875	n/a	WORD	3624984	wordpools/wasnorm_wordpool_576.txt	LTP347	ltpFR2	3	8	PLAZA	1088	n/a	n/a	0	0	0
1772.82666015625	n/a	WORD	3630749	wordpools/wasnorm_wordpool_576.txt	LTP347	ltpFR2	3	8	COUNTY	389	n/a	n/a	0	0	0
1775.525390625	n/a	WORD	3636276	wordpools/wasnorm_wordpool_576.txt	LTP347	ltpFR2	3	8	COFFEE	341	n/a	n/a	0	0	0
1778.32373046875	n/a	WORD	3642007	wordpools/wasnorm_wordpool_576.txt	LTP347	ltpFR2	3	8	PICNIC	1060	n/a	n/a	0	0	0
1779.939453125	n/a	START	3645316	n/a	LTP347	ltpFR2	3	n/a	n/a	n/a	13	n/a	n/a	n/a	n/a
1780.8076171875	n/a	DISTRACTOR	3647094	n/a	LTP347	ltpFR2	3	8	n/a	n/a	n/a	n/a	0	0	0
1780.82275390625	n/a	PROB	3647125	n/a	LTP347	ltpFR2	3	n/a	n/a	n/a	13	7	1	5	1
1782.15576171875	n/a	PROB	3649855	n/a	LTP347	ltpFR2	3	n/a	n/a	n/a	13	13	5	7	1
1784.5205078125	n/a	PROB	3654698	n/a	LTP347	ltpFR2	3	n/a	n/a	n/a	13	11	5	4	2
1786.0205078125	n/a	PROB	3657770	n/a	LTP347	ltpFR2	3	n/a	n/a	n/a	13	11	1	8	2
1787.38671875	n/a	PROB	3660568	n/a	LTP347	ltpFR2	3	n/a	n/a	n/a	13	12	6	4	2
1788.6689453125	n/a	PROB	3663194	n/a	LTP347	ltpFR2	3	n/a	n/a	n/a	13	14	4	1	9
1790.40185546875	n/a	PROB	3666743	n/a	LTP347	ltpFR2	3	n/a	n/a	n/a	13	14	8	4	2
1792.23486328125	n/a	PROB	3670497	n/a	LTP347	ltpFR2	3	n/a	n/a	n/a	13	16	1	7	8
1793.5498046875	n/a	PROB	3673190	n/a	LTP347	ltpFR2	3	n/a	n/a	n/a	13	16	7	8	1
1795.03271484375	n/a	PROB	3676227	n/a	LTP347	ltpFR2	3	n/a	n/a	n/a	13	16	6	5	5
1796.28173828125	n/a	PROB	3678785	n/a	LTP347	ltpFR2	3	n/a	n/a	n/a	13	14	8	1	5
1797.61474609375	n/a	PROB	3681515	n/a	LTP347	ltpFR2	3	n/a	n/a	n/a	13	7	4	1	2
1798.91357421875	n/a	PROB	3684175	n/a	LTP347	ltpFR2	3	n/a	n/a	n/a	13	21	9	8	4
1800.6298828125	n/a	PROB	3687690	n/a	LTP347	ltpFR2	3	n/a	n/a	n/a	13	21	4	2	7
1802.419921875	n/a	STOP	3691356	n/a	LTP347	ltpFR2	3	n/a	n/a	n/a	13	n/a	n/a	n/a	n/a
1805.7109375	n/a	REC_START	3698096	n/a	LTP347	ltpFR2	3	8	n/a	n/a	n/a	n/a	0	0	0
1808.07763671875	n/a	REC_WORD	3702943	wordpools/wasnorm_wordpool_576.txt	LTP347	ltpFR2	3	8	CUSTARD	429	n/a	n/a	0	0	0
1808.74169921875	n/a	REC_WORD	3704303	wordpools/wasnorm_wordpool_576.txt	LTP347	ltpFR2	3	8	COUNTY	389	n/a	n/a	0	0	0
1809.53271484375	n/a	REC_WORD	3705923	wordpools/wasnorm_wordpool_576.txt	LTP347	ltpFR2	3	8	BULLET	194	n/a	n/a	0	0	0
1810.14404296875	n/a	REC_WORD	3707175	wordpools/wasnorm_wordpool_576.txt	LTP347	ltpFR2	3	8	GANGSTER	620	n/a	n/a	0	0	0
1811.20361328125	n/a	REC_WORD	3709345	wordpools/wasnorm_wordpool_576.txt	LTP347	ltpFR2	3	8	FILM	565	n/a	n/a	0	0	0
1812.2041015625	n/a	REC_WORD_VV	3711394	wordpools/wasnorm_wordpool_576.txt	LTP347	ltpFR2	3	8	<>	-1	n/a	n/a	0	0	0
1813.18310546875	n/a	REC_WORD	3713399	wordpools/wasnorm_wordpool_576.txt	LTP347	ltpFR2	3	8	MARS	873	n/a	n/a	0	0	0
1813.71875	n/a	REC_WORD	3714496	wordpools/wasnorm_wordpool_576.txt	LTP347	ltpFR2	3	8	GLOBE	641	n/a	n/a	0	0	0
1814.5537109375	n/a	REC_WORD	3716206	wordpools/wasnorm_wordpool_576.txt	LTP347	ltpFR2	3	8	CRITIC	410	n/a	n/a	0	0	0
1816.541015625	n/a	REC_WORD	3720276	wordpools/wasnorm_wordpool_576.txt	LTP347	ltpFR2	3	8	DIME	466	n/a	n/a	0	0	0
1823.45703125	n/a	REC_WORD	3734440	wordpools/wasnorm_wordpool_576.txt	LTP347	ltpFR2	3	8	DRAWING	494	n/a	n/a	0	0	0
1824.2158203125	n/a	REC_WORD	3735994	wordpools/wasnorm_wordpool_576.txt	LTP347	ltpFR2	3	8	SOFTBALL	1343	n/a	n/a	0	0	0
1825.2158203125	n/a	REC_WORD_VV	3738042	wordpools/wasnorm_wordpool_576.txt	LTP347	ltpFR2	3	8	<>	-1	n/a	n/a	0	0	0
1826.4677734375	n/a	REC_WORD	3740606	wordpools/wasnorm_wordpool_576.txt	LTP347	ltpFR2	3	8	PIGMENT	1066	n/a	n/a	0	0	0
1836.4609375	n/a	REC_WORD	3761072	wordpools/wasnorm_wordpool_576.txt	LTP347	ltpFR2	3	8	SAUSAGE	1238	n/a	n/a	0	0	0
1837.4609375	n/a	REC_WORD_VV	3763120	wordpools/wasnorm_wordpool_576.txt	LTP347	ltpFR2	3	8	<>	-1	n/a	n/a	0	0	0
1838.19091796875	n/a	REC_WORD	3764615	wordpools/wasnorm_wordpool_576.txt	LTP347	ltpFR2	3	8	PATROL	1027	n/a	n/a	0	0	0
1839.11083984375	n/a	REC_WORD	3766499	wordpools/wasnorm_wordpool_576.txt	LTP347	ltpFR2	3	8	BUNNY	198	n/a	n/a	0	0	0
1839.38818359375	n/a	REC_WORD	3767067	wordpools/wasnorm_wordpool_576.txt	LTP347	ltpFR2	3	8	RABBIT	1152	n/a	n/a	0	0	0
1840.755859375	n/a	REC_WORD	3769868	wordpools/wasnorm_wordpool_576.txt	LTP347	ltpFR2	3	8	MOTEL	919	n/a	n/a	0	0	0
1841.72021484375	n/a	REC_WORD	3771843	wordpools/wasnorm_wordpool_576.txt	LTP347	ltpFR2	3	8	COMPASS	358	n/a	n/a	0	0	0
1842.72021484375	n/a	REC_WORD_VV	3773891	wordpools/wasnorm_wordpool_576.txt	LTP347	ltpFR2	3	8	<>	-1	n/a	n/a	0	0	0
1843.78515625	n/a	REC_WORD	3776072	wordpools/wasnorm_wordpool_576.txt	LTP347	ltpFR2	3	8	PLAZA	1088	n/a	n/a	0	0	0
1844.47607421875	n/a	REC_WORD	3777487	wordpools/wasnorm_wordpool_576.txt	LTP347	ltpFR2	3	8	COUNTY	389	n/a	n/a	0	0	0
1847.669921875	n/a	REC_WORD	3784028	wordpools/wasnorm_wordpool_576.txt	LTP347	ltpFR2	3	8	COFFEE	341	n/a	n/a	0	0	0
1848.88720703125	n/a	REC_WORD	3786521	wordpools/wasnorm_wordpool_576.txt	LTP347	ltpFR2	3	8	PICNIC	1060	n/a	n/a	0	0	0
1849.88720703125	n/a	REC_WORD_VV	3788569	wordpools/wasnorm_wordpool_576.txt	LTP347	ltpFR2	3	8	<>	-1	n/a	n/a	0	0	0
1851.826171875	n/a	REC_WORD	3792540	wordpools/wasnorm_wordpool_576.txt	LTP347	ltpFR2	3	8	DINER	467	n/a	n/a	0	0	0
1882.25634765625	n/a	REST_REWET	3854861	n/a	LTP347	ltpFR2	3	8	n/a	n/a	n/a	n/a	0	0	0
2022.75439453125	n/a	WORD	4142601	wordpools/wasnorm_wordpool_576.txt	LTP347	ltpFR2	3	9	GYMNAST	675	n/a	n/a	0	0	0
2025.35302734375	n/a	WORD	4147923	wordpools/wasnorm_wordpool_576.txt	LTP347	ltpFR2	3	9	CATCHER	258	n/a	n/a	0	0	0
2027.83544921875	n/a	WORD	4153007	wordpools/wasnorm_wordpool_576.txt	LTP347	ltpFR2	3	9	AUTHOR	61	n/a	n/a	0	0	0
2030.43310546875	n/a	WORD	4158327	wordpools/wasnorm_wordpool_576.txt	LTP347	ltpFR2	3	9	MAPLE	866	n/a	n/a	0	0	0
2033.01611328125	n/a	WORD	4163617	wordpools/wasnorm_wordpool_576.txt	LTP347	ltpFR2	3	9	CYCLONE	431	n/a	n/a	0	0	0
2035.4482421875	n/a	WORD	4168598	wordpools/wasnorm_wordpool_576.txt	LTP347	ltpFR2	3	9	CLIMBER	323	n/a	n/a	0	0	0
2038.146484375	n/a	WORD	4174124	wordpools/wasnorm_wordpool_576.txt	LTP347	ltpFR2	3	9	PUPIL	1143	n/a	n/a	0	0	0
2040.978515625	n/a	WORD	4179924	wordpools/wasnorm_wordpool_576.txt	LTP347	ltpFR2	3	9	SLUG	1329	n/a	n/a	0	0	0
2043.5771484375	n/a	WORD	4185246	wordpools/wasnorm_wordpool_576.txt	LTP347	ltpFR2	3	9	ROD	1203	n/a	n/a	0	0	0
2046.1923828125	n/a	WORD	4190602	wordpools/wasnorm_wordpool_576.txt	LTP347	ltpFR2	3	9	GLASS	639	n/a	n/a	0	0	0
2048.67431640625	n/a	WORD	4195685	wordpools/wasnorm_wordpool_576.txt	LTP347	ltpFR2	3	9	BUG	187	n/a	n/a	0	0	0
2051.20751953125	n/a	WORD	4200873	wordpools/wasnorm_wordpool_576.txt	LTP347	ltpFR2	3	9	BUREAU	199	n/a	n/a	0	0	0
2053.78955078125	n/a	WORD	4206161	wordpools/wasnorm_wordpool_576.txt	LTP347	ltpFR2	3	9	WARDROBE	1587	n/a	n/a	0	0	0
2056.521484375	n/a	WORD	4211756	wordpools/wasnorm_wordpool_576.txt	LTP347	ltpFR2	3	9	CATTLE	261	n/a	n/a	0	0	0
2058.96923828125	n/a	WORD	4216769	wordpools/wasnorm_wordpool_576.txt	LTP347	ltpFR2	3	9	HORSE	719	n/a	n/a	0	0	0
2061.7353515625	n/a	WORD	4222434	wordpools/wasnorm_wordpool_576.txt	LTP347	ltpFR2	3	9	SHRUB	1299	n/a	n/a	0	0	0
2064.55029296875	n/a	WORD	4228199	wordpools/wasnorm_wordpool_576.txt	LTP347	ltpFR2	3	9	SLOPE	1328	n/a	n/a	0	0	0
2066.99951171875	n/a	WORD	4233215	wordpools/wasnorm_wordpool_576.txt	LTP347	ltpFR2	3	9	STOVE	1388	n/a	n/a	0	0	0
2069.59765625	n/a	WORD	4238536	wordpools/wasnorm_wordpool_576.txt	LTP347	ltpFR2	3	9	POCKET	1093	n/a	n/a	0	0	0
2072.3134765625	n/a	WORD	4244098	wordpools/wasnorm_wordpool_576.txt	LTP347	ltpFR2	3	9	KEEPER	769	n/a	n/a	0	0	0
2074.96142578125	n/a	WORD	4249521	wordpools/wasnorm_wordpool_576.txt	LTP347	ltpFR2	3	9	PUDDLE	1140	n/a	n/a	0	0	0
2077.74365234375	n/a	WORD	4255219	wordpools/wasnorm_wordpool_576.txt	LTP347	ltpFR2	3	9	HAMPER	682	n/a	n/a	0	0	0
2080.275390625	n/a	WORD	4260404	wordpools/wasnorm_wordpool_576.txt	LTP347	ltpFR2	3	9	RIVER	1194	n/a	n/a	0	0	0
2083.04150390625	n/a	WORD	4266069	wordpools/wasnorm_wordpool_576.txt	LTP347	ltpFR2	3	9	PAIL	1002	n/a	n/a	0	0	0
2084.65771484375	n/a	START	4269379	n/a	LTP347	ltpFR2	3	n/a	n/a	n/a	14	n/a	n/a	n/a	n/a
2085.62158203125	n/a	DISTRACTOR	4271353	n/a	LTP347	ltpFR2	3	9	n/a	n/a	n/a	n/a	0	0	0
2085.62353515625	n/a	PROB	4271357	n/a	LTP347	ltpFR2	3	n/a	n/a	n/a	14	19	1	9	9
2087.22265625	n/a	PROB	4274632	n/a	LTP347	ltpFR2	3	n/a	n/a	n/a	14	10	7	2	1
2088.5888671875	n/a	PROB	4277430	n/a	LTP347	ltpFR2	3	n/a	n/a	n/a	14	17	7	5	5
2089.771484375	n/a	PROB	4279852	n/a	LTP347	ltpFR2	3	n/a	n/a	n/a	14	8	3	2	2
2090.853515625	n/a	PROB	4282068	n/a	LTP347	ltpFR2	3	n/a	n/a	n/a	14	123	9	3	1
2092.31982421875	n/a	PROB	4285071	n/a	LTP347	ltpFR2	3	n/a	n/a	n/a	14	12	7	2	3
2093.81982421875	n/a	PROB	4288143	n/a	LTP347	ltpFR2	3	n/a	n/a	n/a	14	8	3	2	3
2095.1357421875	n/a	PROB	4290838	n/a	LTP347	ltpFR2	3	n/a	n/a	n/a	14	11	7	2	2
2096.36767578125	n/a	PROB	4293361	n/a	LTP347	ltpFR2	3	n/a	n/a	n/a	14	15	8	1	6
2097.65087890625	n/a	PROB	4295989	n/a	LTP347	ltpFR2	3	n/a	n/a	n/a	14	19	9	8	2
2098.93359375	n/a	PROB	4298616	n/a	LTP347	ltpFR2	3	n/a	n/a	n/a	14	15	4	5	6
2100.1826171875	n/a	PROB	4301174	n/a	LTP347	ltpFR2	3	n/a	n/a	n/a	14	19	8	2	9
2101.36572265625	n/a	PROB	4303597	n/a	LTP347	ltpFR2	3	n/a	n/a	n/a	14	21	3	9	9
2102.66455078125	n/a	PROB	4306257	n/a	LTP347	ltpFR2	3	n/a	n/a	n/a	14	21	7	7	7
2104.03076171875	n/a	PROB	4309055	n/a	LTP347	ltpFR2	3	n/a	n/a	n/a	14	14	1	4	9
2105.48095703125	n/a	PROB	4312025	n/a	LTP347	ltpFR2	3	n/a	n/a	n/a	14	17	8	9	9
2108.509765625	n/a	STOP	4318228	n/a	LTP347	ltpFR2	3	n/a	n/a	n/a	14	n/a	n/a	n/a	n/a
2110.51171875	n/a	REC_START	4322328	n/a	LTP347	ltpFR2	3	9	n/a	n/a	n/a	n/a	0	0	0
2117.91162109375	n/a	REC_WORD	4337483	wordpools/wasnorm_wordpool_576.txt	LTP347	ltpFR2	3	9	GYMNAST	675	n/a	n/a	0	0	0
2118.69091796875	n/a	REC_WORD	4339079	wordpools/wasnorm_wordpool_576.txt	LTP347	ltpFR2	3	9	CATCHER	258	n/a	n/a	0	0	0
2120.927734375	n/a	REC_WORD	4343660	wordpools/wasnorm_wordpool_576.txt	LTP347	ltpFR2	3	9	AUTHOR	61	n/a	n/a	0	0	0
2122.921875	n/a	REC_WORD	4347744	wordpools/wasnorm_wordpool_576.txt	LTP347	ltpFR2	3	9	MAPLE	866	n/a	n/a	0	0	0
2123.52099609375	n/a	REC_WORD	4348971	wordpools/wasnorm_wordpool_576.txt	LTP347	ltpFR2	3	9	CLIMBER	323	n/a	n/a	0	0	0
2127.68310546875	n/a	REC_WORD	4357495	wordpools/wasnorm_wordpool_576.txt	LTP347	ltpFR2	3	9	CYCLONE	431	n/a	n/a	0	0	0
2128.68310546875	n/a	REC_WORD_VV	4359543	wordpools/wasnorm_wordpool_576.txt	LTP347	ltpFR2	3	9	<>	-1	n/a	n/a	0	0	0
2129.35791015625	n/a	REC_WORD_VV	4360925	wordpools/wasnorm_wordpool_576.txt	LTP347	ltpFR2	3	9	<>	-1	n/a	n/a	0	0	0
2130.5009765625	n/a	REC_WORD_VV	4363266	wordpools/wasnorm_wordpool_576.txt	LTP347	ltpFR2	3	9	<>	-1	n/a	n/a	0	0	0
2130.61572265625	n/a	REC_WORD	4363501	wordpools/wasnorm_wordpool_576.txt	LTP347	ltpFR2	3	9	CYCLONE	431	n/a	n/a	0	0	0
2131.130859375	n/a	REC_WORD	4364556	wordpools/wasnorm_wordpool_576.txt	LTP347	ltpFR2	3	9	PUDDLE	1140	n/a	n/a	0	0	0
2133.80908203125	n/a	REC_WORD	4370041	wordpools/wasnorm_wordpool_576.txt	LTP347	ltpFR2	3	9	SLUG	1329	n/a	n/a	0	0	0
2136.7998046875	n/a	REC_WORD	4376166	wordpools/wasnorm_wordpool_576.txt	LTP347	ltpFR2	3	9	ROD	1203	n/a	n/a	0	0	0
2137.67578125	n/a	REC_WORD	4377960	wordpools/wasnorm_wordpool_576.txt	LTP347	ltpFR2	3	9	GLASS	639	n/a	n/a	0	0	0
2142.42919921875	n/a	REC_WORD	4387695	wordpools/wasnorm_wordpool_576.txt	LTP347	ltpFR2	3	9	BUG	187	n/a	n/a	0	0	0
2142.97705078125	n/a	REC_WORD	4388817	wordpools/wasnorm_wordpool_576.txt	LTP347	ltpFR2	3	9	BUREAU	199	n/a	n/a	0	0	0
2143.68798828125	n/a	REC_WORD	4390273	wordpools/wasnorm_wordpool_576.txt	LTP347	ltpFR2	3	9	WARDROBE	1587	n/a	n/a	0	0	0
2144.68798828125	n/a	REC_WORD_VV	4392321	wordpools/wasnorm_wordpool_576.txt	LTP347	ltpFR2	3	9	<>	-1	n/a	n/a	0	0	0
2163.51806640625	n/a	REC_WORD	4430885	wordpools/wasnorm_wordpool_576.txt	LTP347	ltpFR2	3	9	PAIL	1002	n/a	n/a	0	0	0
2164.1640625	n/a	REC_WORD	4432208	wordpools/wasnorm_wordpool_576.txt	LTP347	ltpFR2	3	9	POCKET	1093	n/a	n/a	0	0	0
2200.96630859375	n/a	WORD	4507579	wordpools/wasnorm_wordpool_576.txt	LTP347	ltpFR2	3	10	PATIENT	1024	n/a	n/a	0	0	0
2203.6982421875	n/a	WORD	4513174	wordpools/wasnorm_wordpool_576.txt	LTP347	ltpFR2	3	10	STAKE	1368	n/a	n/a	0	0	0
2206.447265625	n/a	WORD	4518804	wordpools/wasnorm_wordpool_576.txt	LTP347	ltpFR2	3	10	GROUND	666	n/a	n/a	0	0	0
2209.24755859375	n/a	WORD	4524539	wordpools/wasnorm_wordpool_576.txt	LTP347	ltpFR2	3	10	MISSILE	900	n/a	n/a	0	0	0
2211.861328125	n/a	WORD	4529892	wordpools/wasnorm_wordpool_576.txt	LTP347	ltpFR2	3	10	GREASE	660	n/a	n/a	0	0	0
2214.42626953125	n/a	WORD	4535145	wordpools/wasnorm_wordpool_576.txt	LTP347	ltpFR2	3	10	TWIG	1527	n/a	n/a	0	0	0
2217.12548828125	n/a	WORD	4540673	wordpools/wasnorm_wordpool_576.txt	LTP347	ltpFR2	3	10	HEDGE	699	n/a	n/a	0	0	0
2219.87451171875	n/a	WORD	4546303	wordpools/wasnorm_wordpool_576.txt	LTP347	ltpFR2	3	10	CEILING	265	n/a	n/a	0	0	0
2222.47265625	n/a	WORD	4551624	wordpools/wasnorm_wordpool_576.txt	LTP347	ltpFR2	3	10	JURY	766	n/a	n/a	0	0	0
2224.95556640625	n/a	WORD	4556709	wordpools/wasnorm_wordpool_576.txt	LTP347	ltpFR2	3	10	DENIM	446	n/a	n/a	0	0	0
2227.57080078125	n/a	WORD	4562065	wordpools/wasnorm_wordpool_576.txt	LTP347	ltpFR2	3	10	COD	340	n/a	n/a	0	0	0
2230.36962890625	n/a	WORD	4567797	wordpools/wasnorm_wordpool_576.txt	LTP347	ltpFR2	3	10	PALACE	1006	n/a	n/a	0	0	0
2232.9013671875	n/a	WORD	4572982	wordpools/wasnorm_wordpool_576.txt	LTP347	ltpFR2	3	10	BANK	83	n/a	n/a	0	0	0
2235.6494140625	n/a	WORD	4578610	wordpools/wasnorm_wordpool_576.txt	LTP347	ltpFR2	3	10	BASEMENT	94	n/a	n/a	0	0	0
2238.1484375	n/a	WORD	4583728	wordpools/wasnorm_wordpool_576.txt	LTP347	ltpFR2	3	10	JUNGLE	764	n/a	n/a	0	0	0
2240.73046875	n/a	WORD	4589016	wordpools/wasnorm_wordpool_576.txt	LTP347	ltpFR2	3	10	PEBBLE	1035	n/a	n/a	0	0	0
2243.4296875	n/a	WORD	4594544	wordpools/wasnorm_wordpool_576.txt	LTP347	ltpFR2	3	10	PADDLE	1000	n/a	n/a	0	0	0
2246.02783203125	n/a	WORD	4599865	wordpools/wasnorm_wordpool_576.txt	LTP347	ltpFR2	3	10	RAFT	1159	n/a	n/a	0	0	0
2248.54345703125	n/a	WORD	4605017	wordpools/wasnorm_wordpool_576.txt	LTP347	ltpFR2	3	10	PASTA	1021	n/a	n/a	0	0	0
2251.02587890625	n/a	WORD	4610101	wordpools/wasnorm_wordpool_576.txt	LTP347	ltpFR2	3	10	LUMBER	848	n/a	n/a	0	0	0
2253.54052734375	n/a	WORD	4615251	wordpools/wasnorm_wordpool_576.txt	LTP347	ltpFR2	3	10	RECEIPT	1173	n/a	n/a	0	0	0
2256.22265625	n/a	WORD	4620744	wordpools/wasnorm_wordpool_576.txt	LTP347	ltpFR2	3	10	NURSE	963	n/a	n/a	0	0	0
2258.921875	n/a	WORD	4626272	wordpools/wasnorm_wordpool_576.txt	LTP347	ltpFR2	3	10	GRILL	661	n/a	n/a	0	0	0
2261.53662109375	n/a	WORD	4631627	wordpools/wasnorm_wordpool_576.txt	LTP347	ltpFR2	3	10	CAFE	216	n/a	n/a	0	0	0
2263.15380859375	n/a	START	4634939	n/a	LTP347	ltpFR2	3	n/a	n/a	n/a	15	n/a	n/a	n/a	n/a
2264.15283203125	n/a	DISTRACTOR	4636985	n/a	LTP347	ltpFR2	3	10	n/a	n/a	n/a	n/a	0	0	0
2264.1689453125	n/a	PROB	4637018	n/a	LTP347	ltpFR2	3	n/a	n/a	n/a	15	15	8	4	3
2265.98486328125	n/a	PROB	4640737	n/a	LTP347	ltpFR2	3	n/a	n/a	n/a	15	20	9	6	5
2267.91796875	n/a	PROB	4644696	n/a	LTP347	ltpFR2	3	n/a	n/a	n/a	15	21	5	7	9
2269.7666015625	n/a	PROB	4648482	n/a	LTP347	ltpFR2	3	n/a	n/a	n/a	15	22	8	8	6
2272.03173828125	n/a	PROB	4653121	n/a	LTP347	ltpFR2	3	n/a	n/a	n/a	15	11	6	4	1
2273.34765625	n/a	PROB	4655816	n/a	LTP347	ltpFR2	3	n/a	n/a	n/a	15	16	1	9	6
2274.61376953125	n/a	PROB	4658409	n/a	LTP347	ltpFR2	3	n/a	n/a	n/a	15	18	7	5	6
2276.580078125	n/a	PROB	4662436	n/a	LTP347	ltpFR2	3	n/a	n/a	n/a	15	12	6	1	5
2278.0458984375	n/a	PROB	4665438	n/a	LTP347	ltpFR2	3	n/a	n/a	n/a	15	15	5	6	4
2279.294921875	n/a	PROB	4667996	n/a	LTP347	ltpFR2	3	n/a	n/a	n/a	15	17	1	7	9
2281.494140625	n/a	PROB	4672500	n/a	LTP347	ltpFR2	3	n/a	n/a	n/a	15	16	5	3	4
2284.39306640625	n/a	PROB	4678437	n/a	LTP347	ltpFR2	3	n/a	n/a	n/a	15	23	9	9	5
2286.40673828125	n/a	STOP	4682561	n/a	LTP347	ltpFR2	3	n/a	n/a	n/a	15	n/a	n/a	n/a	n/a
2289.05810546875	n/a	REC_START	4687991	n/a	LTP347	ltpFR2	3	10	n/a	n/a	n/a	n/a	0	0	0
2291.873046875	n/a	REC_WORD	4693756	wordpools/wasnorm_wordpool_576.txt	LTP347	ltpFR2	3	10	GREASE	660	n/a	n/a	0	0	0
2292.60693359375	n/a	REC_WORD	4695259	wordpools/wasnorm_wordpool_576.txt	LTP347	ltpFR2	3	10	HEDGE	699	n/a	n/a	0	0	0
2293.4169921875	n/a	REC_WORD	4696918	wordpools/wasnorm_wordpool_576.txt	LTP347	ltpFR2	3	10	BASEMENT	94	n/a	n/a	0	0	0
2294.19287109375	n/a	REC_WORD	4698507	wordpools/wasnorm_wordpool_576.txt	LTP347	ltpFR2	3	10	BANK	83	n/a	n/a	0	0	0
2295.9658203125	n/a	REC_WORD_VV	4702138	wordpools/wasnorm_wordpool_576.txt	LTP347	ltpFR2	3	10	<>	-1	n/a	n/a	0	0	0
2299.80322265625	n/a	REC_WORD	4709997	wordpools/wasnorm_wordpool_576.txt	LTP347	ltpFR2	3	10	CEILING	265	n/a	n/a	0	0	0
2301.0732421875	n/a	REC_WORD	4712598	wordpools/wasnorm_wordpool_576.txt	LTP347	ltpFR2	3	10	DENIM	446	n/a	n/a	0	0	0
2301.94189453125	n/a	REC_WORD	4714377	wordpools/wasnorm_wordpool_576.txt	LTP347	ltpFR2	3	10	JURY	766	n/a	n/a	0	0	0
2305.033203125	n/a	REC_WORD_VV	4720708	wordpools/wasnorm_wordpool_576.txt	LTP347	ltpFR2	3	10	<>	-1	n/a	n/a	0	0	0
2330.0390625	n/a	REC_WORD	4771920	wordpools/wasnorm_wordpool_576.txt	LTP347	ltpFR2	3	10	HEDGE	699	n/a	n/a	0	0	0
2379.49560546875	n/a	DISTRACTOR	4873207	n/a	LTP347	ltpFR2	3	11	n/a	n/a	n/a	n/a	0	0	0
2379.49658203125	n/a	START	4873209	n/a	LTP347	ltpFR2	3	n/a	n/a	n/a	16	n/a	n/a	n/a	n/a
2379.5126953125	n/a	PROB	4873242	n/a	LTP347	ltpFR2	3	n/a	n/a	n/a	16	14	1	4	9
2381.07861328125	n/a	PROB	4876449	n/a	LTP347	ltpFR2	3	n/a	n/a	n/a	16	17	6	9	3
2383.32763671875	n/a	PROB	4881055	n/a	LTP347	ltpFR2	3	n/a	n/a	n/a	16	15	8	6	1
2385.443359375	n/a	PROB	4885388	n/a	LTP347	ltpFR2	3	n/a	n/a	n/a	16	7	5	2	1
2386.525390625	n/a	PROB	4887604	n/a	LTP347	ltpFR2	3	n/a	n/a	n/a	16	11	8	1	2
2387.80859375	n/a	PROB	4890232	n/a	LTP347	ltpFR2	3	n/a	n/a	n/a	16	14	9	4	1
2389.1416015625	n/a	PROB	4892962	n/a	LTP347	ltpFR2	3	n/a	n/a	n/a	16	15	1	9	5
2390.2734375	n/a	PROB	4895280	n/a	LTP347	ltpFR2	3	n/a	n/a	n/a	16	20	7	8	5
2391.806640625	n/a	PROB	4898420	n/a	LTP347	ltpFR2	3	n/a	n/a	n/a	16	15	3	7	5
2392.85546875	n/a	PROB	4900568	n/a	LTP347	ltpFR2	3	n/a	n/a	n/a	16	14	2	8	4
2394.4716796875	n/a	PROB	4903878	n/a	LTP347	ltpFR2	3	n/a	n/a	n/a	16	21	8	4	9
2395.8046875	n/a	PROB	4906608	n/a	LTP347	ltpFR2	3	n/a	n/a	n/a	16	8	1	5	3
2396.970703125	n/a	PROB	4908996	n/a	LTP347	ltpFR2	3	n/a	n/a	n/a	16	18	9	3	6
2399.31982421875	n/a	PROB	4913807	n/a	LTP347	ltpFR2	3	n/a	n/a	n/a	16	22	9	8	6
2401.08544921875	n/a	PROB	4917423	n/a	LTP347	ltpFR2	3	n/a	n/a	n/a	16	18	5	1	3
2402.5927734375	n/a	STOP	4920510	n/a	LTP347	ltpFR2	3	n/a	n/a	n/a	16	n/a	n/a	n/a	n/a
2404.36767578125	n/a	WORD	4924145	wordpools/wasnorm_wordpool_576.txt	LTP347	ltpFR2	3	11	CROWN	415	n/a	n/a	0	0	0
2406.83251953125	n/a	WORD	4929193	wordpools/wasnorm_wordpool_576.txt	LTP347	ltpFR2	3	11	MISTER	901	n/a	n/a	0	0	0
2409.2978515625	n/a	WORD	4934242	wordpools/wasnorm_wordpool_576.txt	LTP347	ltpFR2	3	11	CRIB	407	n/a	n/a	0	0	0
2411.99658203125	n/a	WORD	4939769	wordpools/wasnorm_wordpool_576.txt	LTP347	ltpFR2	3	11	RATTLE	1170	n/a	n/a	0	0	0
2414.61181640625	n/a	WORD	4945125	wordpools/wasnorm_wordpool_576.txt	LTP347	ltpFR2	3	11	LADY	794	n/a	n/a	0	0	0
2417.044921875	n/a	WORD	4950108	wordpools/wasnorm_wordpool_576.txt	LTP347	ltpFR2	3	11	NEUTRON	947	n/a	n/a	0	0	0
2419.4765625	n/a	WORD	4955088	wordpools/wasnorm_wordpool_576.txt	LTP347	ltpFR2	3	11	STREAM	1392	n/a	n/a	0	0	0
2422.24267578125	n/a	WORD	4960753	wordpools/wasnorm_wordpool_576.txt	LTP347	ltpFR2	3	11	SLIDE	1326	n/a	n/a	0	0	0
2424.95703125	n/a	WORD	4966312	wordpools/wasnorm_wordpool_576.txt	LTP347	ltpFR2	3	11	PRINCESS	1125	n/a	n/a	0	0	0
2427.4228515625	n/a	WORD	4971362	wordpools/wasnorm_wordpool_576.txt	LTP347	ltpFR2	3	11	DRUG	501	n/a	n/a	0	0	0
2429.8876953125	n/a	WORD	4976410	wordpools/wasnorm_wordpool_576.txt	LTP347	ltpFR2	3	11	FINGER	567	n/a	n/a	0	0	0
2432.537109375	n/a	WORD	4981836	wordpools/wasnorm_wordpool_576.txt	LTP347	ltpFR2	3	11	SHOULDER	1294	n/a	n/a	0	0	0
2435.01904296875	n/a	WORD	4986919	wordpools/wasnorm_wordpool_576.txt	LTP347	ltpFR2	3	11	STONE	1385	n/a	n/a	0	0	0
2437.7509765625	n/a	WORD	4992514	wordpools/wasnorm_wordpool_576.txt	LTP347	ltpFR2	3	11	HAND	683	n/a	n/a	0	0	0
2440.19970703125	n/a	WORD	4997529	wordpools/wasnorm_wordpool_576.txt	LTP347	ltpFR2	3	11	RIFLE	1192	n/a	n/a	0	0	0
2442.76513671875	n/a	WORD	5002783	wordpools/wasnorm_wordpool_576.txt	LTP347	ltpFR2	3	11	PISTOL	1075	n/a	n/a	0	0	0
2445.43017578125	n/a	WORD	5008241	wordpools/wasnorm_wordpool_576.txt	LTP347	ltpFR2	3	11	SWORD	1423	n/a	n/a	0	0	0
2448.0458984375	n/a	WORD	5013598	wordpools/wasnorm_wordpool_576.txt	LTP347	ltpFR2	3	11	DORM	488	n/a	n/a	0	0	0
2450.6611328125	n/a	WORD	5018954	wordpools/wasnorm_wordpool_576.txt	LTP347	ltpFR2	3	11	BEAKER	104	n/a	n/a	0	0	0
2453.44287109375	n/a	WORD	5024651	wordpools/wasnorm_wordpool_576.txt	LTP347	ltpFR2	3	11	VELVET	1555	n/a	n/a	0	0	0
2455.875	n/a	WORD	5029632	wordpools/wasnorm_wordpool_576.txt	LTP347	ltpFR2	3	11	COUNTRY	388	n/a	n/a	0	0	0
2458.4072265625	n/a	WORD	5034818	wordpools/wasnorm_wordpool_576.txt	LTP347	ltpFR2	3	11	NAPKIN	937	n/a	n/a	0	0	0
2461.15625	n/a	WORD	5040448	wordpools/wasnorm_wordpool_576.txt	LTP347	ltpFR2	3	11	SUITCASE	1403	n/a	n/a	0	0	0
2463.68798828125	n/a	WORD	5045633	wordpools/wasnorm_wordpool_576.txt	LTP347	ltpFR2	3	11	KNAPSACK	783	n/a	n/a	0	0	0
2465.30419921875	n/a	START	5048943	n/a	LTP347	ltpFR2	3	n/a	n/a	n/a	17	n/a	n/a	n/a	n/a
2466.4560546875	n/a	DISTRACTOR	5051302	n/a	LTP347	ltpFR2	3	11	n/a	n/a	n/a	n/a	0	0	0
2466.47021484375	n/a	PROB	5051331	n/a	LTP347	ltpFR2	3	n/a	n/a	n/a	17	6	1	1	4
2467.7861328125	n/a	PROB	5054026	n/a	LTP347	ltpFR2	3	n/a	n/a	n/a	17	13	3	5	5
2469.18505859375	n/a	PROB	5056891	n/a	LTP347	ltpFR2	3	n/a	n/a	n/a	17	23	9	5	9
2471.1181640625	n/a	PROB	5060850	n/a	LTP347	ltpFR2	3	n/a	n/a	n/a	17	12	3	4	5
2473.400390625	n/a	PROB	5065524	n/a	LTP347	ltpFR2	3	n/a	n/a	n/a	17	20	6	9	5
2474.96630859375	n/a	PROB	5068731	n/a	LTP347	ltpFR2	3	n/a	n/a	n/a	17	18	3	9	6
2477.04833984375	n/a	PROB	5072995	n/a	LTP347	ltpFR2	3	n/a	n/a	n/a	17	16	8	6	2
2478.93017578125	n/a	PROB	5076849	n/a	LTP347	ltpFR2	3	n/a	n/a	n/a	17	14	3	2	9
2480.4462890625	n/a	PROB	5079954	n/a	LTP347	ltpFR2	3	n/a	n/a	n/a	17	15	5	3	7
2481.779296875	n/a	PROB	5082684	n/a	LTP347	ltpFR2	3	n/a	n/a	n/a	17	8	3	2	2
2483.09521484375	n/a	PROB	5085379	n/a	LTP347	ltpFR2	3	n/a	n/a	n/a	17	22	8	7	7
2485.06103515625	n/a	PROB	5089405	n/a	LTP347	ltpFR2	3	n/a	n/a	n/a	17	12	1	2	9
2486.46044921875	n/a	PROB	5092271	n/a	LTP347	ltpFR2	3	n/a	n/a	n/a	17	22	6	8	9
2488.09619140625	n/a	STOP	5095621	n/a	LTP347	ltpFR2	3	n/a	n/a	n/a	17	n/a	n/a	n/a	n/a
2491.0751953125	n/a	REC_START	5101722	n/a	LTP347	ltpFR2	3	11	n/a	n/a	n/a	n/a	0	0	0
2496.91015625	n/a	REC_WORD	5113672	wordpools/wasnorm_wordpool_576.txt	LTP347	ltpFR2	3	11	MISTER	901	n/a	n/a	0	0	0
2497.7724609375	n/a	REC_WORD	5115438	wordpools/wasnorm_wordpool_576.txt	LTP347	ltpFR2	3	11	CROWN	415	n/a	n/a	0	0	0
2498.7724609375	n/a	REC_WORD	5117486	wordpools/wasnorm_wordpool_576.txt	LTP347	ltpFR2	3	11	CRIB	407	n/a	n/a	0	0	0
2502.38037109375	n/a	REC_WORD	5124875	wordpools/wasnorm_wordpool_576.txt	LTP347	ltpFR2	3	11	RATTLE	1170	n/a	n/a	0	0	0
2503.46728515625	n/a	REC_WORD	5127101	wordpools/wasnorm_wordpool_576.txt	LTP347	ltpFR2	3	11	LADY	794	n/a	n/a	0	0	0
2503.91845703125	n/a	REC_WORD	5128025	wordpools/wasnorm_wordpool_576.txt	LTP347	ltpFR2	3	11	PRINCESS	1125	n/a	n/a	0	0	0
2504.6103515625	n/a	REC_WORD	5129442	wordpools/wasnorm_wordpool_576.txt	LTP347	ltpFR2	3	11	NEUTRON	947	n/a	n/a	0	0	0
2505.3271484375	n/a	REC_WORD	5130910	wordpools/wasnorm_wordpool_576.txt	LTP347	ltpFR2	3	11	STREAM	1392	n/a	n/a	0	0	0
2506.3271484375	n/a	REC_WORD_VV	5132958	wordpools/wasnorm_wordpool_576.txt	LTP347	ltpFR2	3	11	<>	-1	n/a	n/a	0	0	0
2513.17529296875	n/a	REC_WORD	5146983	wordpools/wasnorm_wordpool_576.txt	LTP347	ltpFR2	3	11	POISON	1096	n/a	n/a	0	0	0
2513.734375	n/a	REC_WORD	5148128	wordpools/wasnorm_wordpool_576.txt	LTP347	ltpFR2	3	11	FINGER	567	n/a	n/a	0	0	0
2520.5595703125	n/a	REC_WORD	5162106	wordpools/wasnorm_wordpool_576.txt	LTP347	ltpFR2	3	11	WOMAN	1620	n/a	n/a	0	0	0
2521.0244140625	n/a	REC_WORD	5163058	wordpools/wasnorm_wordpool_576.txt	LTP347	ltpFR2	3	11	PRINCESS	1125	n/a	n/a	0	0	0
2523.2333984375	n/a	REC_WORD_VV	5167582	wordpools/wasnorm_wordpool_576.txt	LTP347	ltpFR2	3	11	<>	-1	n/a	n/a	0	0	0
2524.103515625	n/a	REC_WORD	5169364	wordpools/wasnorm_wordpool_576.txt	LTP347	ltpFR2	3	11	WOMAN	1620	n/a	n/a	0	0	0
2524.47265625	n/a	REC_WORD	5170120	wordpools/wasnorm_wordpool_576.txt	LTP347	ltpFR2	3	11	PRINCESS	1125	n/a	n/a	0	0	0
2525.16064453125	n/a	REC_WORD_VV	5171529	wordpools/wasnorm_wordpool_576.txt	LTP347	ltpFR2	3	11	<>	-1	n/a	n/a	0	0	0
2526.04052734375	n/a	REC_WORD_VV	5173331	wordpools/wasnorm_wordpool_576.txt	LTP347	ltpFR2	3	11	<>	-1	n/a	n/a	0	0	0
2532.25048828125	n/a	REC_WORD	5186049	wordpools/wasnorm_wordpool_576.txt	LTP347	ltpFR2	3	11	SHOULDER	1294	n/a	n/a	0	0	0
2534.7626953125	n/a	REC_WORD	5191194	wordpools/wasnorm_wordpool_576.txt	LTP347	ltpFR2	3	11	STONE	1385	n/a	n/a	0	0	0
2536.349609375	n/a	REC_WORD	5194444	wordpools/wasnorm_wordpool_576.txt	LTP347	ltpFR2	3	11	HAND	683	n/a	n/a	0	0	0
2537.5234375	n/a	REC_WORD	5196848	wordpools/wasnorm_wordpool_576.txt	LTP347	ltpFR2	3	11	RIFLE	1192	n/a	n/a	0	0	0
2538.5966796875	n/a	REC_WORD	5199046	wordpools/wasnorm_wordpool_576.txt	LTP347	ltpFR2	3	11	PISTOL	1075	n/a	n/a	0	0	0
2539.12939453125	n/a	REC_WORD	5200137	wordpools/wasnorm_wordpool_576.txt	LTP347	ltpFR2	3	11	SWORD	1423	n/a	n/a	0	0	0
2540.06640625	n/a	REC_WORD	5202056	wordpools/wasnorm_wordpool_576.txt	LTP347	ltpFR2	3	11	DORM	488	n/a	n/a	0	0	0
2547.59375	n/a	REC_WORD	5217472	wordpools/wasnorm_wordpool_576.txt	LTP347	ltpFR2	3	11	BEAKER	104	n/a	n/a	0	0	0
2550.392578125	n/a	REC_WORD	5223204	wordpools/wasnorm_wordpool_576.txt	LTP347	ltpFR2	3	11	CRACK	-1	n/a	n/a	0	0	0
2551.5546875	n/a	REC_WORD	5225584	wordpools/wasnorm_wordpool_576.txt	LTP347	ltpFR2	3	11	VELVET	1555	n/a	n/a	0	0	0
2552.4765625	n/a	REC_WORD	5227472	wordpools/wasnorm_wordpool_576.txt	LTP347	ltpFR2	3	11	NAPKIN	937	n/a	n/a	0	0	0
2553.33349609375	n/a	REC_WORD	5229227	wordpools/wasnorm_wordpool_576.txt	LTP347	ltpFR2	3	11	BRIEFCASE	175	n/a	n/a	0	0	0
2554.11767578125	n/a	REC_WORD	5230833	wordpools/wasnorm_wordpool_576.txt	LTP347	ltpFR2	3	11	KNAPSACK	783	n/a	n/a	0	0	0
2555.11767578125	n/a	REC_WORD_VV	5232881	wordpools/wasnorm_wordpool_576.txt	LTP347	ltpFR2	3	11	<>	-1	n/a	n/a	0	0	0
2581.52978515625	n/a	WORD	5286973	wordpools/wasnorm_wordpool_576.txt	LTP347	ltpFR2	3	12	FOOTBALL	591	n/a	n/a	0	0	0
2584.19580078125	n/a	WORD	5292433	wordpools/wasnorm_wordpool_576.txt	LTP347	ltpFR2	3	12	THREAD	1460	n/a	n/a	0	0	0
2587.0107421875	n/a	WORD	5298198	wordpools/wasnorm_wordpool_576.txt	LTP347	ltpFR2	3	12	PLAYGROUND	1087	n/a	n/a	0	0	0
2589.56005859375	n/a	WORD	5303419	wordpools/wasnorm_wordpool_576.txt	LTP347	ltpFR2	3	12	CANAL	226	n/a	n/a	0	0	0
2592.2578125	n/a	WORD	5308944	wordpools/wasnorm_wordpool_576.txt	LTP347	ltpFR2	3	12	CLAM	315	n/a	n/a	0	0	0
2594.791015625	n/a	WORD	5314132	wordpools/wasnorm_wordpool_576.txt	LTP347	ltpFR2	3	12	CONVICT	371	n/a	n/a	0	0	0
2597.48876953125	n/a	WORD	5319657	wordpools/wasnorm_wordpool_576.txt	LTP347	ltpFR2	3	12	CAPTIVE	240	n/a	n/a	0	0	0
2600.23876953125	n/a	WORD	5325289	wordpools/wasnorm_wordpool_576.txt	LTP347	ltpFR2	3	12	YOLK	1633	n/a	n/a	0	0	0
2602.81982421875	n/a	WORD	5330575	wordpools/wasnorm_wordpool_576.txt	LTP347	ltpFR2	3	12	SHARK	1275	n/a	n/a	0	0	0
2605.60205078125	n/a	WORD	5336273	wordpools/wasnorm_wordpool_576.txt	LTP347	ltpFR2	3	12	BLACKBOARD	133	n/a	n/a	0	0	0
2608.1669921875	n/a	WORD	5341526	wordpools/wasnorm_wordpool_576.txt	LTP347	ltpFR2	3	12	CHILD	299	n/a	n/a	0	0	0
2610.69921875	n/a	WORD	5346712	wordpools/wasnorm_wordpool_576.txt	LTP347	ltpFR2	3	12	CARRIAGE	248	n/a	n/a	0	0	0
2613.1318359375	n/a	WORD	5351694	wordpools/wasnorm_wordpool_576.txt	LTP347	ltpFR2	3	12	SPOOL	1356	n/a	n/a	0	0	0
2615.580078125	n/a	WORD	5356708	wordpools/wasnorm_wordpool_576.txt	LTP347	ltpFR2	3	12	JELLO	754	n/a	n/a	0	0	0
2618.22900390625	n/a	WORD	5362133	wordpools/wasnorm_wordpool_576.txt	LTP347	ltpFR2	3	12	FOOT	590	n/a	n/a	0	0	0
2620.92822265625	n/a	WORD	5367661	wordpools/wasnorm_wordpool_576.txt	LTP347	ltpFR2	3	12	FRANCE	601	n/a	n/a	0	0	0
2623.72607421875	n/a	WORD	5373391	wordpools/wasnorm_wordpool_576.txt	LTP347	ltpFR2	3	12	JAPAN	749	n/a	n/a	0	0	0
2626.3251953125	n/a	WORD	5378714	wordpools/wasnorm_wordpool_576.txt	LTP347	ltpFR2	3	12	BIKE	125	n/a	n/a	0	0	0
2629.14013671875	n/a	WORD	5384479	wordpools/wasnorm_wordpool_576.txt	LTP347	ltpFR2	3	12	CASKET	255	n/a	n/a	0	0	0
2631.6220703125	n/a	WORD	5389562	wordpools/wasnorm_wordpool_576.txt	LTP347	ltpFR2	3	12	WIDOW	1608	n/a	n/a	0	0	0
2634.43798828125	n/a	WORD	5395329	wordpools/wasnorm_wordpool_576.txt	LTP347	ltpFR2	3	12	LEADER	807	n/a	n/a	0	0	0
2637.2373046875	n/a	WORD	5401062	wordpools/wasnorm_wordpool_576.txt	LTP347	ltpFR2	3	12	CHAPEL	280	n/a	n/a	0	0	0
2639.90234375	n/a	WORD	5406520	wordpools/wasnorm_wordpool_576.txt	LTP347	ltpFR2	3	12	CARROT	249	n/a	n/a	0	0	0
2642.43408203125	n/a	WORD	5411705	wordpools/wasnorm_wordpool_576.txt	LTP347	ltpFR2	3	12	TURTLE	1522	n/a	n/a	0	0	0
2644.05029296875	n/a	START	5415015	n/a	LTP347	ltpFR2	3	n/a	n/a	n/a	18	n/a	n/a	n/a	n/a
2645.00244140625	n/a	DISTRACTOR	5416965	n/a	LTP347	ltpFR2	3	12	n/a	n/a	n/a	n/a	0	0	0
2645.01611328125	n/a	PROB	5416993	n/a	LTP347	ltpFR2	3	n/a	n/a	n/a	18	11	6	3	2
2646.615234375	n/a	PROB	5420268	n/a	LTP347	ltpFR2	3	n/a	n/a	n/a	18	6	4	1	1
2648.01416015625	n/a	PROB	5423133	n/a	LTP347	ltpFR2	3	n/a	n/a	n/a	18	14	7	2	5
2649.73046875	n/a	PROB	5426648	n/a	LTP347	ltpFR2	3	n/a	n/a	n/a	18	13	2	5	6
2652.1455078125	n/a	PROB	5431594	n/a	LTP347	ltpFR2	3	n/a	n/a	n/a	18	8	2	1	5
2653.3623046875	n/a	PROB	5434086	n/a	LTP347	ltpFR2	3	n/a	n/a	n/a	18	12	3	2	7
2654.611328125	n/a	PROB	5436644	n/a	LTP347	ltpFR2	3	n/a	n/a	n/a	18	16	4	5	7
2657.09326171875	n/a	PROB	5441727	n/a	LTP347	ltpFR2	3	n/a	n/a	n/a	18	8	2	3	3
2658.67626953125	n/a	PROB	5444969	n/a	LTP347	ltpFR2	3	n/a	n/a	n/a	18	19	4	8	7
2661.8916015625	n/a	PROB	5451554	n/a	LTP347	ltpFR2	3	n/a	n/a	n/a	18	20	7	5	8
2663.5732421875	n/a	PROB	5454998	n/a	LTP347	ltpFR2	3	n/a	n/a	n/a	18	15	5	7	3
2665.47216796875	n/a	PROB	5458887	n/a	LTP347	ltpFR2	3	n/a	n/a	n/a	18	15	2	8	5
2666.80126953125	n/a	STOP	5461609	n/a	LTP347	ltpFR2	3	n/a	n/a	n/a	18	n/a	n/a	n/a	n/a
2669.97119140625	n/a	REC_START	5468101	n/a	LTP347	ltpFR2	3	12	n/a	n/a	n/a	n/a	0	0	0
2680.04443359375	n/a	REC_WORD	5488731	wordpools/wasnorm_wordpool_576.txt	LTP347	ltpFR2	3	12	FOOTBALL	591	n/a	n/a	0	0	0
2680.29443359375	n/a	REC_WORD	5489243	wordpools/wasnorm_wordpool_576.txt	LTP347	ltpFR2	3	12	SPOOL	1356	n/a	n/a	0	0	0
2680.59765625	n/a	REC_WORD	5489864	wordpools/wasnorm_wordpool_576.txt	LTP347	ltpFR2	3	12	SPACE	1345	n/a	n/a	0	0	0
2681.1875	n/a	REC_WORD	5491072	wordpools/wasnorm_wordpool_576.txt	LTP347	ltpFR2	3	12	THREAD	1460	n/a	n/a	0	0	0
2682.068359375	n/a	REC_WORD	5492876	wordpools/wasnorm_wordpool_576.txt	LTP347	ltpFR2	3	12	CHILD	299	n/a	n/a	0	0	0
2682.681640625	n/a	REC_WORD_VV	5494132	wordpools/wasnorm_wordpool_576.txt	LTP347	ltpFR2	3	12	<>	-1	n/a	n/a	0	0	0
2684.68359375	n/a	REC_WORD	5498232	wordpools/wasnorm_wordpool_576.txt	LTP347	ltpFR2	3	12	CARRIAGE	248	n/a	n/a	0	0	0
2685.38037109375	n/a	REC_WORD	5499659	wordpools/wasnorm_wordpool_576.txt	LTP347	ltpFR2	3	12	JELLO	754	n/a	n/a	0	0	0
2685.92333984375	n/a	REC_WORD	5500771	wordpools/wasnorm_wordpool_576.txt	LTP347	ltpFR2	3	12	FOOT	590	n/a	n/a	0	0	0
2686.86767578125	n/a	REC_WORD	5502705	wordpools/wasnorm_wordpool_576.txt	LTP347	ltpFR2	3	12	FOOTBALL	591	n/a	n/a	0	0	0
2688.29541015625	n/a	REC_WORD_VV	5505629	wordpools/wasnorm_wordpool_576.txt	LTP347	ltpFR2	3	12	<>	-1	n/a	n/a	0	0	0
2688.6025390625	n/a	REC_WORD	5506258	wordpools/wasnorm_wordpool_576.txt	LTP347	ltpFR2	3	12	CANAL	226	n/a	n/a	0	0	0
2689.04248046875	n/a	REC_WORD	5507159	wordpools/wasnorm_wordpool_576.txt	LTP347	ltpFR2	3	12	FRANCE	601	n/a	n/a	0	0	0
2689.60546875	n/a	REC_WORD	5508312	wordpools/wasnorm_wordpool_576.txt	LTP347	ltpFR2	3	12	JAPAN	749	n/a	n/a	0	0	0
2693.12353515625	n/a	REC_WORD	5515517	wordpools/wasnorm_wordpool_576.txt	LTP347	ltpFR2	3	12	TEMPLE	1448	n/a	n/a	0	0	0
2693.84375	n/a	REC_WORD	5516992	wordpools/wasnorm_wordpool_576.txt	LTP347	ltpFR2	3	12	CARROT	249	n/a	n/a	0	0	0
2694.40283203125	n/a	REC_WORD	5518137	wordpools/wasnorm_wordpool_576.txt	LTP347	ltpFR2	3	12	TURTLE	1522	n/a	n/a	0	0	0
2694.9345703125	n/a	REC_WORD	5519226	wordpools/wasnorm_wordpool_576.txt	LTP347	ltpFR2	3	12	CLAM	315	n/a	n/a	0	0	0
2695.44970703125	n/a	REC_WORD	5520281	wordpools/wasnorm_wordpool_576.txt	LTP347	ltpFR2	3	12	SHARK	1275	n/a	n/a	0	0	0
2706.28271484375	n/a	REC_WORD	5542467	wordpools/wasnorm_wordpool_576.txt	LTP347	ltpFR2	3	12	BICYCLE	-1	n/a	n/a	0	0	0
2707.23046875	n/a	REC_WORD	5544408	wordpools/wasnorm_wordpool_576.txt	LTP347	ltpFR2	3	12	WIDOW	1608	n/a	n/a	0	0	0
2710.099609375	n/a	REC_WORD	5550284	wordpools/wasnorm_wordpool_576.txt	LTP347	ltpFR2	3	12	LEADER	807	n/a	n/a	0	0	0
2716.29052734375	n/a	REC_WORD	5562963	wordpools/wasnorm_wordpool_576.txt	LTP347	ltpFR2	3	12	CAPTIVE	240	n/a	n/a	0	0	0
2717.40283203125	n/a	REC_WORD	5565241	wordpools/wasnorm_wordpool_576.txt	LTP347	ltpFR2	3	12	CRIMINAL	409	n/a	n/a	0	0	0
2760.42578125	n/a	WORD	5653352	wordpools/wasnorm_wordpool_576.txt	LTP347	ltpFR2	3	13	SHELF	1280	n/a	n/a	0	0	0
2763.22509765625	n/a	WORD	5659085	wordpools/wasnorm_wordpool_576.txt	LTP347	ltpFR2	3	13	PASSAGE	1019	n/a	n/a	0	0	0
2766.0400390625	n/a	WORD	5664850	wordpools/wasnorm_wordpool_576.txt	LTP347	ltpFR2	3	13	DRESS	495	n/a	n/a	0	0	0
2768.52197265625	n/a	WORD	5669933	wordpools/wasnorm_wordpool_576.txt	LTP347	ltpFR2	3	13	BLOCKADE	137	n/a	n/a	0	0	0
2771.287109375	n/a	WORD	5675596	wordpools/wasnorm_wordpool_576.txt	LTP347	ltpFR2	3	13	GARBAGE	622	n/a	n/a	0	0	0
2773.869140625	n/a	WORD	5680884	wordpools/wasnorm_wordpool_576.txt	LTP347	ltpFR2	3	13	SWITCH	1422	n/a	n/a	0	0	0
2776.63525390625	n/a	WORD	5686549	wordpools/wasnorm_wordpool_576.txt	LTP347	ltpFR2	3	13	TILE	1468	n/a	n/a	0	0	0
2779.14990234375	n/a	WORD	5691699	wordpools/wasnorm_wordpool_576.txt	LTP347	ltpFR2	3	13	PARENT	1013	n/a	n/a	0	0	0
2781.7490234375	n/a	WORD	5697022	wordpools/wasnorm_wordpool_576.txt	LTP347	ltpFR2	3	13	OFFICE	972	n/a	n/a	0	0	0
2784.56396484375	n/a	WORD	5702787	wordpools/wasnorm_wordpool_576.txt	LTP347	ltpFR2	3	13	SALT	1229	n/a	n/a	0	0	0
2787.09619140625	n/a	WORD	5707973	wordpools/wasnorm_wordpool_576.txt	LTP347	ltpFR2	3	13	ACTOR	5	n/a	n/a	0	0	0
2789.9111328125	n/a	WORD	5713738	wordpools/wasnorm_wordpool_576.txt	LTP347	ltpFR2	3	13	SHORTS	1293	n/a	n/a	0	0	0
2792.54345703125	n/a	WORD	5719129	wordpools/wasnorm_wordpool_576.txt	LTP347	ltpFR2	3	13	PLAID	1080	n/a	n/a	0	0	0
2795.25927734375	n/a	WORD	5724691	wordpools/wasnorm_wordpool_576.txt	LTP347	ltpFR2	3	13	CLOTHES	327	n/a	n/a	0	0	0
2798.0244140625	n/a	WORD	5730354	wordpools/wasnorm_wordpool_576.txt	LTP347	ltpFR2	3	13	APRON	35	n/a	n/a	0	0	0
2800.47314453125	n/a	WORD	5735369	wordpools/wasnorm_wordpool_576.txt	LTP347	ltpFR2	3	13	CUPBOARD	425	n/a	n/a	0	0	0
2803.10546875	n/a	WORD	5740760	wordpools/wasnorm_wordpool_576.txt	LTP347	ltpFR2	3	13	IGLOO	734	n/a	n/a	0	0	0
2805.654296875	n/a	WORD	5745980	wordpools/wasnorm_wordpool_576.txt	LTP347	ltpFR2	3	13	BADGE	68	n/a	n/a	0	0	0
2808.4521484375	n/a	WORD	5751710	wordpools/wasnorm_wordpool_576.txt	LTP347	ltpFR2	3	13	KIDNEY	776	n/a	n/a	0	0	0
2810.96826171875	n/a	WORD	5756863	wordpools/wasnorm_wordpool_576.txt	LTP347	ltpFR2	3	13	DRILL	497	n/a	n/a	0	0	0
2813.5166015625	n/a	WORD	5762082	wordpools/wasnorm_wordpool_576.txt	LTP347	ltpFR2	3	13	COLLEGE	346	n/a	n/a	0	0	0
2816.0322265625	n/a	WORD	5767234	wordpools/wasnorm_wordpool_576.txt	LTP347	ltpFR2	3	13	FLASHLIGHT	575	n/a	n/a	0	0	0
2818.84716796875	n/a	WORD	5772999	wordpools/wasnorm_wordpool_576.txt	LTP347	ltpFR2	3	13	TUNNEL	1519	n/a	n/a	0	0	0
2821.3623046875	n/a	WORD	5778150	wordpools/wasnorm_wordpool_576.txt	LTP347	ltpFR2	3	13	TRANSPLANT	1496	n/a	n/a	0	0	0
2822.9794921875	n/a	START	5781462	n/a	LTP347	ltpFR2	3	n/a	n/a	n/a	19	n/a	n/a	n/a	n/a
2823.7822265625	n/a	DISTRACTOR	5783106	n/a	LTP347	ltpFR2	3	13	n/a	n/a	n/a	n/a	0	0	0
2823.79541015625	n/a	PROB	5783133	n/a	LTP347	ltpFR2	3	n/a	n/a	n/a	19	1	2	8	5
2825.41064453125	n/a	PROB	5786441	n/a	LTP347	ltpFR2	3	n/a	n/a	n/a	19	8	3	2	3
2826.54345703125	n/a	PROB	5788761	n/a	LTP347	ltpFR2	3	n/a	n/a	n/a	19	17	7	9	1
2827.7763671875	n/a	PROB	5791286	n/a	LTP347	ltpFR2	3	n/a	n/a	n/a	19	19	2	9	8
2828.9755859375	n/a	PROB	5793742	n/a	LTP347	ltpFR2	3	n/a	n/a	n/a	19	10	3	5	2
2830.4755859375	n/a	PROB	5796814	n/a	LTP347	ltpFR2	3	n/a	n/a	n/a	19	13	5	5	3
2831.84130859375	n/a	PROB	5799611	n/a	LTP347	ltpFR2	3	n/a	n/a	n/a	19	9	2	3	4
2833.32373046875	n/a	PROB	5802647	n/a	LTP347	ltpFR2	3	n/a	n/a	n/a	19	18	6	3	9
2835.15673828125	n/a	PROB	5806401	n/a	LTP347	ltpFR2	3	n/a	n/a	n/a	19	16	3	6	7
2836.3056640625	n/a	PROB	5808754	n/a	LTP347	ltpFR2	3	n/a	n/a	n/a	19	19	6	6	7
2837.92138671875	n/a	PROB	5812063	n/a	LTP347	ltpFR2	3	n/a	n/a	n/a	19	26	8	8	9
2840.8037109375	n/a	PROB	5817966	n/a	LTP347	ltpFR2	3	n/a	n/a	n/a	19	15	6	2	5
2843.685546875	n/a	PROB	5823868	n/a	LTP347	ltpFR2	3	n/a	n/a	n/a	19	19	6	6	7
2845.28466796875	n/a	PROB	5827143	n/a	LTP347	ltpFR2	3	n/a	n/a	n/a	19	16	1	7	8
2846.65966796875	n/a	STOP	5829959	n/a	LTP347	ltpFR2	3	n/a	n/a	n/a	19	n/a	n/a	n/a	n/a
2848.8994140625	n/a	REC_START	5834546	n/a	LTP347	ltpFR2	3	13	n/a	n/a	n/a	n/a	0	0	0
2853.0205078125	n/a	REC_WORD	5842986	wordpools/wasnorm_wordpool_576.txt	LTP347	ltpFR2	3	13	DRESS	495	n/a	n/a	0	0	0
2857.15771484375	n/a	REC_WORD	5851459	wordpools/wasnorm_wordpool_576.txt	LTP347	ltpFR2	3	13	BLOCKADE	137	n/a	n/a	0	0	0
2858.6826171875	n/a	REC_WORD	5854582	wordpools/wasnorm_wordpool_576.txt	LTP347	ltpFR2	3	13	PACKAGE	997	n/a	n/a	0	0	0
2860.8369140625	n/a	REC_WORD	5858994	wordpools/wasnorm_wordpool_576.txt	LTP347	ltpFR2	3	13	BADGE	68	n/a	n/a	0	0	0
2861.37890625	n/a	REC_WORD	5860104	wordpools/wasnorm_wordpool_576.txt	LTP347	ltpFR2	3	13	IGLOO	734	n/a	n/a	0	0	0
2869.52392578125	n/a	REC_WORD	5876785	wordpools/wasnorm_wordpool_576.txt	LTP347	ltpFR2	3	13	TILE	1468	n/a	n/a	0	0	0
2869.8876953125	n/a	REC_WORD	5877530	wordpools/wasnorm_wordpool_576.txt	LTP347	ltpFR2	3	13	SWITCH	1422	n/a	n/a	0	0	0
2871.04150390625	n/a	REC_WORD	5879893	wordpools/wasnorm_wordpool_576.txt	LTP347	ltpFR2	3	13	PARENT	1013	n/a	n/a	0	0	0
2871.53564453125	n/a	REC_WORD	5880905	wordpools/wasnorm_wordpool_576.txt	LTP347	ltpFR2	3	13	OFFICE	972	n/a	n/a	0	0	0
2872.53564453125	n/a	REC_WORD_VV	5882953	wordpools/wasnorm_wordpool_576.txt	LTP347	ltpFR2	3	13	<>	-1	n/a	n/a	0	0	0
2876.68994140625	n/a	REC_WORD	5891461	wordpools/wasnorm_wordpool_576.txt	LTP347	ltpFR2	3	13	TRANSPLANT	1496	n/a	n/a	0	0	0
2901.720703125	n/a	REC_WORD	5942724	wordpools/wasnorm_wordpool_576.txt	LTP347	ltpFR2	3	13	DRESS	495	n/a	n/a	0	0	0
2939.35498046875	n/a	WORD	6019799	wordpools/wasnorm_wordpool_576.txt	LTP347	ltpFR2	3	14	HOOK	715	n/a	n/a	0	0	0
2942.08740234375	n/a	WORD	6025395	wordpools/wasnorm_wordpool_576.txt	LTP347	ltpFR2	3	14	INFANT	737	n/a	n/a	0	0	0
2944.63623046875	n/a	WORD	6030615	wordpools/wasnorm_wordpool_576.txt	LTP347	ltpFR2	3	14	ROBIN	1199	n/a	n/a	0	0	0
2947.3681640625	n/a	WORD	6036210	wordpools/wasnorm_wordpool_576.txt	LTP347	ltpFR2	3	14	BLOUSE	139	n/a	n/a	0	0	0
2949.916015625	n/a	WORD	6041428	wordpools/wasnorm_wordpool_576.txt	LTP347	ltpFR2	3	14	OUTFIT	988	n/a	n/a	0	0	0
2952.68212890625	n/a	WORD	6047093	wordpools/wasnorm_wordpool_576.txt	LTP347	ltpFR2	3	14	OUTDOORS	987	n/a	n/a	0	0	0
2955.29736328125	n/a	WORD	6052449	wordpools/wasnorm_wordpool_576.txt	LTP347	ltpFR2	3	14	TABLE	1426	n/a	n/a	0	0	0
2957.96240234375	n/a	WORD	6057907	wordpools/wasnorm_wordpool_576.txt	LTP347	ltpFR2	3	14	CASHEW	253	n/a	n/a	0	0	0
2960.494140625	n/a	WORD	6063092	wordpools/wasnorm_wordpool_576.txt	LTP347	ltpFR2	3	14	PECAN	1036	n/a	n/a	0	0	0
2963.2763671875	n/a	WORD	6068790	wordpools/wasnorm_wordpool_576.txt	LTP347	ltpFR2	3	14	SNAIL	1332	n/a	n/a	0	0	0
2965.75830078125	n/a	WORD	6073873	wordpools/wasnorm_wordpool_576.txt	LTP347	ltpFR2	3	14	POWDER	1117	n/a	n/a	0	0	0
2968.224609375	n/a	WORD	6078924	wordpools/wasnorm_wordpool_576.txt	LTP347	ltpFR2	3	14	PROTON	1132	n/a	n/a	0	0	0
2970.689453125	n/a	WORD	6083972	wordpools/wasnorm_wordpool_576.txt	LTP347	ltpFR2	3	14	HAWK	692	n/a	n/a	0	0	0
2973.48828125	n/a	WORD	6089704	wordpools/wasnorm_wordpool_576.txt	LTP347	ltpFR2	3	14	COSTUME	383	n/a	n/a	0	0	0
2976.28759765625	n/a	WORD	6095437	wordpools/wasnorm_wordpool_576.txt	LTP347	ltpFR2	3	14	SHELTER	1282	n/a	n/a	0	0	0
2978.9853515625	n/a	WORD	6100962	wordpools/wasnorm_wordpool_576.txt	LTP347	ltpFR2	3	14	KNIFE	785	n/a	n/a	0	0	0
2981.6015625	n/a	WORD	6106320	wordpools/wasnorm_wordpool_576.txt	LTP347	ltpFR2	3	14	SADDLE	1221	n/a	n/a	0	0	0
2984.08349609375	n/a	WORD	6111403	wordpools/wasnorm_wordpool_576.txt	LTP347	ltpFR2	3	14	CURTAIN	427	n/a	n/a	0	0	0
2986.79833984375	n/a	WORD	6116963	wordpools/wasnorm_wordpool_576.txt	LTP347	ltpFR2	3	14	BUCKET	184	n/a	n/a	0	0	0
2989.58056640625	n/a	WORD	6122661	wordpools/wasnorm_wordpool_576.txt	LTP347	ltpFR2	3	14	ULCER	1533	n/a	n/a	0	0	0
2992.3955078125	n/a	WORD	6128426	wordpools/wasnorm_wordpool_576.txt	LTP347	ltpFR2	3	14	TRACTOR	1493	n/a	n/a	0	0	0
2995.0947265625	n/a	WORD	6133954	wordpools/wasnorm_wordpool_576.txt	LTP347	ltpFR2	3	14	HIKER	708	n/a	n/a	0	0	0
2997.5263671875	n/a	WORD	6138934	wordpools/wasnorm_wordpool_576.txt	LTP347	ltpFR2	3	14	SUMMIT	1405	n/a	n/a	0	0	0
3000.275390625	n/a	WORD	6144564	wordpools/wasnorm_wordpool_576.txt	LTP347	ltpFR2	3	14	LIZARD	834	n/a	n/a	0	0	0
3001.8916015625	n/a	START	6147874	n/a	LTP347	ltpFR2	3	n/a	n/a	n/a	20	n/a	n/a	n/a	n/a
3002.9365234375	n/a	DISTRACTOR	6150014	n/a	LTP347	ltpFR2	3	14	n/a	n/a	n/a	n/a	0	0	0
3002.9404296875	n/a	PROB	6150022	n/a	LTP347	ltpFR2	3	n/a	n/a	n/a	20	24	8	8	8
3004.58984375	n/a	PROB	6153400	n/a	LTP347	ltpFR2	3	n/a	n/a	n/a	20	22	5	9	8
3006.3056640625	n/a	PROB	6156914	n/a	LTP347	ltpFR2	3	n/a	n/a	n/a	20	12	7	2	3
3007.78857421875	n/a	PROB	6159951	n/a	LTP347	ltpFR2	3	n/a	n/a	n/a	20	14	5	8	1
3011.31982421875	n/a	PROB	6167183	n/a	LTP347	ltpFR2	3	n/a	n/a	n/a	20	21	5	7	9
3012.935546875	n/a	PROB	6170492	n/a	LTP347	ltpFR2	3	n/a	n/a	n/a	20	16	7	2	7
3014.83447265625	n/a	PROB	6174381	n/a	LTP347	ltpFR2	3	n/a	n/a	n/a	20	15	7	4	4
3016.48388671875	n/a	PROB	6177759	n/a	LTP347	ltpFR2	3	n/a	n/a	n/a	20	17	1	7	9
3018.5166015625	n/a	PROB	6181922	n/a	LTP347	ltpFR2	3	n/a	n/a	n/a	20	15	2	5	8
3020.19873046875	n/a	PROB	6185367	n/a	LTP347	ltpFR2	3	n/a	n/a	n/a	20	21	8	8	5
3022.59765625	n/a	PROB	6190280	n/a	LTP347	ltpFR2	3	n/a	n/a	n/a	20	9	3	2	4
3024.3408203125	n/a	STOP	6193850	n/a	LTP347	ltpFR2	3	n/a	n/a	n/a	20	n/a	n/a	n/a	n/a
3027.74560546875	n/a	REC_START	6200823	n/a	LTP347	ltpFR2	3	14	n/a	n/a	n/a	n/a	0	0	0
3030.86669921875	n/a	REC_WORD	6207215	wordpools/wasnorm_wordpool_576.txt	LTP347	ltpFR2	3	14	INFANT	737	n/a	n/a	0	0	0
3031.32373046875	n/a	REC_WORD	6208151	wordpools/wasnorm_wordpool_576.txt	LTP347	ltpFR2	3	14	HOOK	715	n/a	n/a	0	0	0
3031.642578125	n/a	REC_WORD	6208804	wordpools/wasnorm_wordpool_576.txt	LTP347	ltpFR2	3	14	ROBIN	1199	n/a	n/a	0	0	0
3032.671875	n/a	REC_WORD	6210912	wordpools/wasnorm_wordpool_576.txt	LTP347	ltpFR2	3	14	POWDER	1117	n/a	n/a	0	0	0
3034.69482421875	n/a	REC_WORD	6215055	wordpools/wasnorm_wordpool_576.txt	LTP347	ltpFR2	3	14	PROTON	1132	n/a	n/a	0	0	0
3035.45361328125	n/a	REC_WORD	6216609	wordpools/wasnorm_wordpool_576.txt	LTP347	ltpFR2	3	14	PECAN	1036	n/a	n/a	0	0	0
3036.2080078125	n/a	REC_WORD	6218154	wordpools/wasnorm_wordpool_576.txt	LTP347	ltpFR2	3	14	CASHEW	253	n/a	n/a	0	0	0
3037.90576171875	n/a	REC_WORD	6221631	wordpools/wasnorm_wordpool_576.txt	LTP347	ltpFR2	3	14	TABLE	1426	n/a	n/a	0	0	0
3038.3427734375	n/a	REC_WORD	6222526	wordpools/wasnorm_wordpool_576.txt	LTP347	ltpFR2	3	14	SNAIL	1332	n/a	n/a	0	0	0
3038.94482421875	n/a	REC_WORD	6223759	wordpools/wasnorm_wordpool_576.txt	LTP347	ltpFR2	3	14	COSTUME	383	n/a	n/a	0	0	0
3039.634765625	n/a	REC_WORD	6225172	wordpools/wasnorm_wordpool_576.txt	LTP347	ltpFR2	3	14	BLOUSE	139	n/a	n/a	0	0	0
3040.3896484375	n/a	REC_WORD	6226718	wordpools/wasnorm_wordpool_576.txt	LTP347	ltpFR2	3	14	OUTFIT	988	n/a	n/a	0	0	0
3045.23193359375	n/a	REC_WORD	6236635	wordpools/wasnorm_wordpool_576.txt	LTP347	ltpFR2	3	14	HAWK	692	n/a	n/a	0	0	0
3046.13671875	n/a	REC_WORD_VV	6238488	wordpools/wasnorm_wordpool_576.txt	LTP347	ltpFR2	3	14	<>	-1	n/a	n/a	0	0	0
3050.12890625	n/a	REC_WORD	6246664	wordpools/wasnorm_wordpool_576.txt	LTP347	ltpFR2	3	14	SHELTER	1282	n/a	n/a	0	0	0
3050.9267578125	n/a	REC_WORD	6248298	wordpools/wasnorm_wordpool_576.txt	LTP347	ltpFR2	3	14	KNIFE	785	n/a	n/a	0	0	0
3051.9267578125	n/a	REC_WORD_VV	6250346	wordpools/wasnorm_wordpool_576.txt	LTP347	ltpFR2	3	14	<>	-1	n/a	n/a	0	0	0
3056.07080078125	n/a	REC_WORD	6258833	wordpools/wasnorm_wordpool_576.txt	LTP347	ltpFR2	3	14	SADDLE	1221	n/a	n/a	0	0	0
3056.68115234375	n/a	REC_WORD	6260083	wordpools/wasnorm_wordpool_576.txt	LTP347	ltpFR2	3	14	CURTAIN	427	n/a	n/a	0	0	0
3057.3017578125	n/a	REC_WORD	6261354	wordpools/wasnorm_wordpool_576.txt	LTP347	ltpFR2	3	14	BUCKET	184	n/a	n/a	0	0	0
3057.82275390625	n/a	REC_WORD	6262421	wordpools/wasnorm_wordpool_576.txt	LTP347	ltpFR2	3	14	ULCER	1533	n/a	n/a	0	0	0
3058.794921875	n/a	REC_WORD	6264412	wordpools/wasnorm_wordpool_576.txt	LTP347	ltpFR2	3	14	HIKER	708	n/a	n/a	0	0	0
3059.40087890625	n/a	REC_WORD	6265653	wordpools/wasnorm_wordpool_576.txt	LTP347	ltpFR2	3	14	MOUNTAIN	924	n/a	n/a	0	0	0
3060.171875	n/a	REC_WORD	6267232	wordpools/wasnorm_wordpool_576.txt	LTP347	ltpFR2	3	14	LIZARD	834	n/a	n/a	0	0	0
3118.21728515625	n/a	WORD	6386109	wordpools/wasnorm_wordpool_576.txt	LTP347	ltpFR2	3	15	JELLY	755	n/a	n/a	0	0	0
3120.66650390625	n/a	WORD	6391125	wordpools/wasnorm_wordpool_576.txt	LTP347	ltpFR2	3	15	TEACHER	1440	n/a	n/a	0	0	0
3123.16552734375	n/a	WORD	6396243	wordpools/wasnorm_wordpool_576.txt	LTP347	ltpFR2	3	15	HANDBAG	684	n/a	n/a	0	0	0
3125.697265625	n/a	WORD	6401428	wordpools/wasnorm_wordpool_576.txt	LTP347	ltpFR2	3	15	KLEENEX	782	n/a	n/a	0	0	0
3128.32958984375	n/a	WORD	6406819	wordpools/wasnorm_wordpool_576.txt	LTP347	ltpFR2	3	15	FIDDLE	561	n/a	n/a	0	0	0
3130.9775390625	n/a	WORD	6412242	wordpools/wasnorm_wordpool_576.txt	LTP347	ltpFR2	3	15	CRICKET	408	n/a	n/a	0	0	0
3133.6435546875	n/a	WORD	6417702	wordpools/wasnorm_wordpool_576.txt	LTP347	ltpFR2	3	15	CROSS	413	n/a	n/a	0	0	0
3136.40869140625	n/a	WORD	6423365	wordpools/wasnorm_wordpool_576.txt	LTP347	ltpFR2	3	15	FRIAR	605	n/a	n/a	0	0	0
3139.04052734375	n/a	WORD	6428755	wordpools/wasnorm_wordpool_576.txt	LTP347	ltpFR2	3	15	BACKBONE	66	n/a	n/a	0	0	0
