mstime	trial_type	stim_file	subject	experiment	session	trial	task	item_name	item_num	recog_resp	recog_conf	resp	color_r	color_g	color_b	case	font
0	SESS_START	n/a	LTP093	ltpFR	18	n/a	n/a	n/a	n/a	0	5	n/a	n/a	n/a	n/a	n/a	n/a
97890	WORD	wordpools/wasnorm_wordpool.txt	LTP093	ltpFR	18	1	0	DEPUTY	450	1	n/a	0	0.422607421875	0.5869140625	0	lower	amplitud.ttf
101981	WORD	wordpools/wasnorm_wordpool.txt	LTP093	ltpFR	18	1	0	BENCH	121	n/a	n/a	0	0.422607421875	0.5869140625	0	lower	amplitud.ttf
105964	WORD	wordpools/wasnorm_wordpool.txt	LTP093	ltpFR	18	1	0	CHEST	295	n/a	n/a	0	0.422607421875	0.5869140625	0	lower	amplitud.ttf
109781	WORD	wordpools/wasnorm_wordpool.txt	LTP093	ltpFR	18	1	0	KIDNEY	776	n/a	n/a	0	0.422607421875	0.5869140625	0	lower	amplitud.ttf
113698	WORD	wordpools/wasnorm_wordpool.txt	LTP093	ltpFR	18	1	1	SIBLING	1301	n/a	n/a	1	0.57763671875	0.412841796875	1	upper	zerothre.ttf
117838	WORD	wordpools/wasnorm_wordpool.txt	LTP093	ltpFR	18	1	1	HORNET	718	n/a	n/a	1	0.57763671875	0.412841796875	1	upper	zerothre.ttf
121813	WORD	wordpools/wasnorm_wordpool.txt	LTP093	ltpFR	18	1	1	WASP	1593	n/a	n/a	1	0.57763671875	0.412841796875	1	upper	zerothre.ttf
125664	WORD	wordpools/wasnorm_wordpool.txt	LTP093	ltpFR	18	1	1	OATS	968	n/a	n/a	1	0.57763671875	0.412841796875	1	upper	zerothre.ttf
129597	WORD	wordpools/wasnorm_wordpool.txt	LTP093	ltpFR	18	1	1	PATIENT	1024	n/a	n/a	1	0.57763671875	0.412841796875	1	upper	zerothre.ttf
133771	WORD	wordpools/wasnorm_wordpool.txt	LTP093	ltpFR	18	1	0	COP	376	n/a	n/a	1	0.422607421875	0.5869140625	0	lower	amplitud.ttf
137713	WORD	wordpools/wasnorm_wordpool.txt	LTP093	ltpFR	18	1	0	CHILD	299	n/a	n/a	0	0.422607421875	0.5869140625	0	lower	amplitud.ttf
141912	WORD	wordpools/wasnorm_wordpool.txt	LTP093	ltpFR	18	1	0	CARRIAGE	248	n/a	n/a	1	0.422607421875	0.5869140625	0	lower	amplitud.ttf
145970	WORD	wordpools/wasnorm_wordpool.txt	LTP093	ltpFR	18	1	0	BUS	201	n/a	n/a	1	0.422607421875	0.5869140625	0	lower	amplitud.ttf
149944	WORD	wordpools/wasnorm_wordpool.txt	LTP093	ltpFR	18	1	1	PASSENGER	1020	n/a	n/a	1	0.57763671875	0.412841796875	1	upper	zerothre.ttf
154086	WORD	wordpools/wasnorm_wordpool.txt	LTP093	ltpFR	18	1	1	VIRUS	1572	n/a	n/a	0	0.57763671875	0.412841796875	1	upper	zerothre.ttf
158219	WORD	wordpools/wasnorm_wordpool.txt	LTP093	ltpFR	18	1	1	WEB	1598	n/a	n/a	0	0.57763671875	0.412841796875	1	upper	zerothre.ttf
164152	REC_START	n/a	LTP093	ltpFR	18	1	n/a	n/a	n/a	n/a	n/a	n/a	n/a	n/a	n/a	n/a	n/a
165384	REC_WORD	wordpools/wasnorm_wordpool.txt	LTP093	ltpFR	18	1	0	DEPUTY	450	n/a	n/a	0	n/a	n/a	n/a	n/a	n/a
166347	REC_WORD	wordpools/wasnorm_wordpool.txt	LTP093	ltpFR	18	1	1	VIRUS	1572	n/a	n/a	0	n/a	n/a	n/a	n/a	n/a
167459	REC_WORD	wordpools/wasnorm_wordpool.txt	LTP093	ltpFR	18	1	0	BUS	201	n/a	n/a	1	n/a	n/a	n/a	n/a	n/a
168337	REC_WORD	wordpools/wasnorm_wordpool.txt	LTP093	ltpFR	18	1	1	PASSENGER	1020	n/a	n/a	1	n/a	n/a	n/a	n/a	n/a
171126	REC_WORD	wordpools/wasnorm_wordpool.txt	LTP093	ltpFR	18	1	1	WASP	1593	n/a	n/a	1	n/a	n/a	n/a	n/a	n/a
172109	REC_WORD	wordpools/wasnorm_wordpool.txt	LTP093	ltpFR	18	1	1	HORNET	718	n/a	n/a	1	n/a	n/a	n/a	n/a	n/a
174394	REC_WORD	wordpools/wasnorm_wordpool.txt	LTP093	ltpFR	18	1	0	COP	376	n/a	n/a	1	n/a	n/a	n/a	n/a	n/a
179866	REC_WORD	wordpools/wasnorm_wordpool.txt	LTP093	ltpFR	18	1	0	CHILD	299	n/a	n/a	0	n/a	n/a	n/a	n/a	n/a
181717	REC_WORD	wordpools/wasnorm_wordpool.txt	LTP093	ltpFR	18	1	0	CARRIAGE	248	n/a	n/a	1	n/a	n/a	n/a	n/a	n/a
197371	REC_WORD	wordpools/wasnorm_wordpool.txt	LTP093	ltpFR	18	1	1	PATIENT	1024	n/a	n/a	1	n/a	n/a	n/a	n/a	n/a
202106	REC_WORD	wordpools/wasnorm_wordpool.txt	LTP093	ltpFR	18	1	1	OATS	968	n/a	n/a	1	n/a	n/a	n/a	n/a	n/a
295601	WORD	wordpools/wasnorm_wordpool.txt	LTP093	ltpFR	18	2	1	BEET	115	n/a	n/a	1	0.57763671875	0.412841796875	1	upper	zerothre.ttf
299433	WORD	wordpools/wasnorm_wordpool.txt	LTP093	ltpFR	18	2	1	CABBAGE	210	n/a	n/a	1	0.57763671875	0.412841796875	1	upper	zerothre.ttf
303457	WORD	wordpools/wasnorm_wordpool.txt	LTP093	ltpFR	18	2	0	WAITER	1580	n/a	n/a	0	0.422607421875	0.5869140625	0	lower	amplitud.ttf
307457	WORD	wordpools/wasnorm_wordpool.txt	LTP093	ltpFR	18	2	0	DONKEY	484	n/a	n/a	0	0.422607421875	0.5869140625	0	lower	amplitud.ttf
311273	WORD	wordpools/wasnorm_wordpool.txt	LTP093	ltpFR	18	2	0	BRIDGE	174	n/a	n/a	0	0.422607421875	0.5869140625	0	lower	amplitud.ttf
315331	WORD	wordpools/wasnorm_wordpool.txt	LTP093	ltpFR	18	2	0	SACK	1220	n/a	n/a	0	0.422607421875	0.5869140625	0	lower	amplitud.ttf
319289	WORD	wordpools/wasnorm_wordpool.txt	LTP093	ltpFR	18	2	0	SERGEANT	1269	n/a	n/a	0	0.422607421875	0.5869140625	0	lower	amplitud.ttf
323181	WORD	wordpools/wasnorm_wordpool.txt	LTP093	ltpFR	18	2	0	FLEET	578	n/a	n/a	0	0.422607421875	0.5869140625	0	lower	amplitud.ttf
327072	WORD	wordpools/wasnorm_wordpool.txt	LTP093	ltpFR	18	2	1	COLUMN	350	n/a	n/a	0	0.57763671875	0.412841796875	1	upper	zerothre.ttf
331230	WORD	wordpools/wasnorm_wordpool.txt	LTP093	ltpFR	18	2	1	ITEM	746	n/a	n/a	0	0.57763671875	0.412841796875	1	upper	zerothre.ttf
335255	WORD	wordpools/wasnorm_wordpool.txt	LTP093	ltpFR	18	2	1	PEPPER	1047	n/a	n/a	0	0.57763671875	0.412841796875	1	upper	zerothre.ttf
339321	WORD	wordpools/wasnorm_wordpool.txt	LTP093	ltpFR	18	2	1	STAKE	1368	n/a	n/a	0	0.57763671875	0.412841796875	1	upper	zerothre.ttf
343512	WORD	wordpools/wasnorm_wordpool.txt	LTP093	ltpFR	18	2	1	COACH	331	n/a	n/a	1	0.57763671875	0.412841796875	1	upper	zerothre.ttf
347588	WORD	wordpools/wasnorm_wordpool.txt	LTP093	ltpFR	18	2	1	MAID	856	n/a	n/a	1	0.57763671875	0.412841796875	1	upper	zerothre.ttf
351737	WORD	wordpools/wasnorm_wordpool.txt	LTP093	ltpFR	18	2	0	BUCKET	184	n/a	n/a	0	0.422607421875	0.5869140625	0	lower	amplitud.ttf
355704	WORD	wordpools/wasnorm_wordpool.txt	LTP093	ltpFR	18	2	0	SHOE	1288	n/a	n/a	0	0.422607421875	0.5869140625	0	lower	amplitud.ttf
361470	REC_START	n/a	LTP093	ltpFR	18	2	n/a	n/a	n/a	n/a	n/a	n/a	n/a	n/a	n/a	n/a	n/a
362283	REC_WORD	wordpools/wasnorm_wordpool.txt	LTP093	ltpFR	18	2	0	SHOE	1288	n/a	n/a	0	n/a	n/a	n/a	n/a	n/a
363530	REC_WORD	wordpools/wasnorm_wordpool.txt	LTP093	ltpFR	18	2	0	BUCKET	184	n/a	n/a	0	n/a	n/a	n/a	n/a	n/a
365266	REC_WORD	wordpools/wasnorm_wordpool.txt	LTP093	ltpFR	18	2	0	FLEET	578	n/a	n/a	0	n/a	n/a	n/a	n/a	n/a
366314	REC_WORD	wordpools/wasnorm_wordpool.txt	LTP093	ltpFR	18	2	0	SERGEANT	1269	n/a	n/a	0	n/a	n/a	n/a	n/a	n/a
367536	REC_WORD	wordpools/wasnorm_wordpool.txt	LTP093	ltpFR	18	2	0	BRIDGE	174	n/a	n/a	0	n/a	n/a	n/a	n/a	n/a
368519	REC_WORD	wordpools/wasnorm_wordpool.txt	LTP093	ltpFR	18	2	0	SACK	1220	n/a	n/a	0	n/a	n/a	n/a	n/a	n/a
376516	REC_WORD	wordpools/wasnorm_wordpool.txt	LTP093	ltpFR	18	2	1	PEPPER	1047	n/a	n/a	0	n/a	n/a	n/a	n/a	n/a
377493	REC_WORD	wordpools/wasnorm_wordpool.txt	LTP093	ltpFR	18	2	1	STAKE	1368	n/a	n/a	0	n/a	n/a	n/a	n/a	n/a
380262	REC_WORD	wordpools/wasnorm_wordpool.txt	LTP093	ltpFR	18	2	1	MAID	856	n/a	n/a	1	n/a	n/a	n/a	n/a	n/a
381360	REC_WORD	wordpools/wasnorm_wordpool.txt	LTP093	ltpFR	18	2	1	COACH	331	n/a	n/a	1	n/a	n/a	n/a	n/a	n/a
559971	WORD	wordpools/wasnorm_wordpool.txt	LTP093	ltpFR	18	3	-1	CARPET	247	n/a	n/a	-1	1.0	1.0	1	upper	Verdana.ttf
564162	WORD	wordpools/wasnorm_wordpool.txt	LTP093	ltpFR	18	3	-1	SHINGLE	1285	n/a	n/a	-1	1.0	1.0	1	upper	Verdana.ttf
568053	WORD	wordpools/wasnorm_wordpool.txt	LTP093	ltpFR	18	3	-1	SHELTER	1282	n/a	n/a	-1	1.0	1.0	1	upper	Verdana.ttf
572195	WORD	wordpools/wasnorm_wordpool.txt	LTP093	ltpFR	18	3	-1	CABIN	211	n/a	n/a	-1	1.0	1.0	1	upper	Verdana.ttf
576353	WORD	wordpools/wasnorm_wordpool.txt	LTP093	ltpFR	18	3	-1	ONION	977	n/a	n/a	-1	1.0	1.0	1	upper	Verdana.ttf
580427	WORD	wordpools/wasnorm_wordpool.txt	LTP093	ltpFR	18	3	-1	CLOWN	330	n/a	n/a	-1	1.0	1.0	1	upper	Verdana.ttf
584352	WORD	wordpools/wasnorm_wordpool.txt	LTP093	ltpFR	18	3	-1	GAUZE	626	n/a	n/a	-1	1.0	1.0	1	upper	Verdana.ttf
588435	WORD	wordpools/wasnorm_wordpool.txt	LTP093	ltpFR	18	3	-1	CURB	426	n/a	n/a	-1	1.0	1.0	1	upper	Verdana.ttf
592251	WORD	wordpools/wasnorm_wordpool.txt	LTP093	ltpFR	18	3	-1	HAYSTACK	694	n/a	n/a	-1	1.0	1.0	1	upper	Verdana.ttf
596176	WORD	wordpools/wasnorm_wordpool.txt	LTP093	ltpFR	18	3	-1	KEG	770	n/a	n/a	-1	1.0	1.0	1	upper	Verdana.ttf
600176	WORD	wordpools/wasnorm_wordpool.txt	LTP093	ltpFR	18	3	-1	SQUID	1361	n/a	n/a	-1	1.0	1.0	1	upper	Verdana.ttf
604359	WORD	wordpools/wasnorm_wordpool.txt	LTP093	ltpFR	18	3	-1	DIVER	476	n/a	n/a	-1	1.0	1.0	1	upper	Verdana.ttf
608225	WORD	wordpools/wasnorm_wordpool.txt	LTP093	ltpFR	18	3	-1	SIDEWALK	1303	n/a	n/a	-1	1.0	1.0	1	upper	Verdana.ttf
612408	WORD	wordpools/wasnorm_wordpool.txt	LTP093	ltpFR	18	3	-1	SHEPHERD	1283	n/a	n/a	-1	1.0	1.0	1	upper	Verdana.ttf
616449	WORD	wordpools/wasnorm_wordpool.txt	LTP093	ltpFR	18	3	-1	MUG	930	n/a	n/a	-1	1.0	1.0	1	upper	Verdana.ttf
620433	WORD	wordpools/wasnorm_wordpool.txt	LTP093	ltpFR	18	3	-1	OX	994	n/a	n/a	-1	1.0	1.0	1	upper	Verdana.ttf
626399	REC_START	n/a	LTP093	ltpFR	18	3	n/a	n/a	n/a	n/a	n/a	n/a	n/a	n/a	n/a	n/a	n/a
627137	REC_WORD	wordpools/wasnorm_wordpool.txt	LTP093	ltpFR	18	3	-1	OX	994	n/a	n/a	-1	n/a	n/a	n/a	n/a	n/a
627950	REC_WORD	wordpools/wasnorm_wordpool.txt	LTP093	ltpFR	18	3	-1	SQUID	1361	n/a	n/a	-1	n/a	n/a	n/a	n/a	n/a
629447	REC_WORD	wordpools/wasnorm_wordpool.txt	LTP093	ltpFR	18	3	-1	DIVER	476	n/a	n/a	-1	n/a	n/a	n/a	n/a	n/a
630529	REC_WORD	wordpools/wasnorm_wordpool.txt	LTP093	ltpFR	18	3	-1	SHEPHERD	1283	n/a	n/a	-1	n/a	n/a	n/a	n/a	n/a
631916	REC_WORD	wordpools/wasnorm_wordpool.txt	LTP093	ltpFR	18	3	-1	MUG	930	n/a	n/a	-1	n/a	n/a	n/a	n/a	n/a
640761	REC_WORD	wordpools/wasnorm_wordpool.txt	LTP093	ltpFR	18	3	-1	ONION	977	n/a	n/a	-1	n/a	n/a	n/a	n/a	n/a
641729	REC_WORD	wordpools/wasnorm_wordpool.txt	LTP093	ltpFR	18	3	-1	SHINGLE	1285	n/a	n/a	-1	n/a	n/a	n/a	n/a	n/a
650454	REC_WORD	wordpools/wasnorm_wordpool.txt	LTP093	ltpFR	18	3	-1	SIDEWALK	1303	n/a	n/a	-1	n/a	n/a	n/a	n/a	n/a
662342	REC_WORD	wordpools/wasnorm_wordpool.txt	LTP093	ltpFR	18	3	1	PEPPER	1047	n/a	n/a	0	n/a	n/a	n/a	n/a	n/a
665026	REC_WORD	wordpools/wasnorm_wordpool.txt	LTP093	ltpFR	18	3	1	STAKE	1368	n/a	n/a	0	n/a	n/a	n/a	n/a	n/a
685544	REC_WORD	wordpools/wasnorm_wordpool.txt	LTP093	ltpFR	18	3	-1	CARPET	247	n/a	n/a	-1	n/a	n/a	n/a	n/a	n/a
770762	WORD	wordpools/wasnorm_wordpool.txt	LTP093	ltpFR	18	4	0	BRANCH	168	n/a	n/a	0	0.422607421875	0.5869140625	0	lower	amplitud.ttf
774762	WORD	wordpools/wasnorm_wordpool.txt	LTP093	ltpFR	18	4	0	POPCORN	1104	n/a	n/a	0	0.422607421875	0.5869140625	0	lower	amplitud.ttf
778721	WORD	wordpools/wasnorm_wordpool.txt	LTP093	ltpFR	18	4	0	JUGGLER	763	n/a	n/a	0	0.422607421875	0.5869140625	0	lower	amplitud.ttf
782803	WORD	wordpools/wasnorm_wordpool.txt	LTP093	ltpFR	18	4	1	FURNITURE	616	n/a	n/a	0	0.57763671875	0.412841796875	1	upper	zerothre.ttf
787003	WORD	wordpools/wasnorm_wordpool.txt	LTP093	ltpFR	18	4	1	PISTON	1076	n/a	n/a	0	0.57763671875	0.412841796875	1	upper	zerothre.ttf
790927	WORD	wordpools/wasnorm_wordpool.txt	LTP093	ltpFR	18	4	0	TAG	1429	n/a	n/a	0	0.422607421875	0.5869140625	0	lower	amplitud.ttf
795027	WORD	wordpools/wasnorm_wordpool.txt	LTP093	ltpFR	18	4	0	RACKET	1155	n/a	n/a	0	0.422607421875	0.5869140625	0	lower	amplitud.ttf
798993	WORD	wordpools/wasnorm_wordpool.txt	LTP093	ltpFR	18	4	1	TREE	1502	n/a	n/a	1	0.57763671875	0.412841796875	1	upper	zerothre.ttf
802827	WORD	wordpools/wasnorm_wordpool.txt	LTP093	ltpFR	18	4	1	BISON	131	n/a	n/a	1	0.57763671875	0.412841796875	1	upper	zerothre.ttf
806843	WORD	wordpools/wasnorm_wordpool.txt	LTP093	ltpFR	18	4	1	VET	1560	n/a	n/a	1	0.57763671875	0.412841796875	1	upper	zerothre.ttf
810868	WORD	wordpools/wasnorm_wordpool.txt	LTP093	ltpFR	18	4	1	PALM	1007	n/a	n/a	1	0.57763671875	0.412841796875	1	upper	zerothre.ttf
815076	WORD	wordpools/wasnorm_wordpool.txt	LTP093	ltpFR	18	4	1	CHECK	284	n/a	n/a	0	0.57763671875	0.412841796875	1	upper	zerothre.ttf
819059	WORD	wordpools/wasnorm_wordpool.txt	LTP093	ltpFR	18	4	1	STRAW	1390	n/a	n/a	1	0.57763671875	0.412841796875	1	upper	zerothre.ttf
822925	WORD	wordpools/wasnorm_wordpool.txt	LTP093	ltpFR	18	4	0	KID	775	n/a	n/a	0	0.422607421875	0.5869140625	0	lower	amplitud.ttf
826808	WORD	wordpools/wasnorm_wordpool.txt	LTP093	ltpFR	18	4	0	STORE	1387	n/a	n/a	0	0.422607421875	0.5869140625	0	lower	amplitud.ttf
830991	WORD	wordpools/wasnorm_wordpool.txt	LTP093	ltpFR	18	4	0	PLAZA	1088	n/a	n/a	1	0.422607421875	0.5869140625	0	lower	amplitud.ttf
836933	REC_START	n/a	LTP093	ltpFR	18	4	n/a	n/a	n/a	n/a	n/a	n/a	n/a	n/a	n/a	n/a	n/a
837466	REC_WORD	wordpools/wasnorm_wordpool.txt	LTP093	ltpFR	18	4	0	PLAZA	1088	n/a	n/a	1	n/a	n/a	n/a	n/a	n/a
838644	REC_WORD	wordpools/wasnorm_wordpool.txt	LTP093	ltpFR	18	4	0	KID	775	n/a	n/a	0	n/a	n/a	n/a	n/a	n/a
839387	REC_WORD	wordpools/wasnorm_wordpool.txt	LTP093	ltpFR	18	4	0	STORE	1387	n/a	n/a	0	n/a	n/a	n/a	n/a	n/a
840484	REC_WORD	wordpools/wasnorm_wordpool.txt	LTP093	ltpFR	18	4	1	VET	1560	n/a	n/a	1	n/a	n/a	n/a	n/a	n/a
841702	REC_WORD	wordpools/wasnorm_wordpool.txt	LTP093	ltpFR	18	4	1	BISON	131	n/a	n/a	1	n/a	n/a	n/a	n/a	n/a
842615	REC_WORD	wordpools/wasnorm_wordpool.txt	LTP093	ltpFR	18	4	1	STRAW	1390	n/a	n/a	1	n/a	n/a	n/a	n/a	n/a
853530	REC_WORD	wordpools/wasnorm_wordpool.txt	LTP093	ltpFR	18	4	1	FURNITURE	616	n/a	n/a	0	n/a	n/a	n/a	n/a	n/a
857661	REC_WORD	wordpools/wasnorm_wordpool.txt	LTP093	ltpFR	18	4	0	BRANCH	168	n/a	n/a	0	n/a	n/a	n/a	n/a	n/a
858793	REC_WORD	wordpools/wasnorm_wordpool.txt	LTP093	ltpFR	18	4	0	BRANCH	168	n/a	n/a	0	n/a	n/a	n/a	n/a	n/a
883926	REC_WORD	wordpools/wasnorm_wordpool.txt	LTP093	ltpFR	18	4	0	PLAZA	1088	n/a	n/a	1	n/a	n/a	n/a	n/a	n/a
1043799	WORD	wordpools/wasnorm_wordpool.txt	LTP093	ltpFR	18	5	0	FRUIT	610	n/a	n/a	0	0.422607421875	0.5869140625	0	lower	amplitud.ttf
1047766	WORD	wordpools/wasnorm_wordpool.txt	LTP093	ltpFR	18	5	0	HERO	706	n/a	n/a	0	0.422607421875	0.5869140625	0	lower	amplitud.ttf
1051591	WORD	wordpools/wasnorm_wordpool.txt	LTP093	ltpFR	18	5	0	PAGE	1001	n/a	n/a	0	0.422607421875	0.5869140625	0	lower	amplitud.ttf
1055757	WORD	wordpools/wasnorm_wordpool.txt	LTP093	ltpFR	18	5	0	PRINTER	1126	n/a	n/a	0	0.422607421875	0.5869140625	0	lower	amplitud.ttf
1059716	WORD	wordpools/wasnorm_wordpool.txt	LTP093	ltpFR	18	5	0	NAPKIN	937	n/a	n/a	0	0.422607421875	0.5869140625	0	lower	amplitud.ttf
1063539	WORD	wordpools/wasnorm_wordpool.txt	LTP093	ltpFR	18	5	0	FIG	563	n/a	n/a	0	0.422607421875	0.5869140625	0	lower	amplitud.ttf
1067590	WORD	wordpools/wasnorm_wordpool.txt	LTP093	ltpFR	18	5	0	SUBMARINE	1398	n/a	n/a	1	0.422607421875	0.5869140625	0	lower	amplitud.ttf
1071615	WORD	wordpools/wasnorm_wordpool.txt	LTP093	ltpFR	18	5	0	BAY	102	n/a	n/a	0	0.422607421875	0.5869140625	0	lower	amplitud.ttf
1075772	WORD	wordpools/wasnorm_wordpool.txt	LTP093	ltpFR	18	5	0	AMBULANCE	19	n/a	n/a	0	0.422607421875	0.5869140625	0	lower	amplitud.ttf
1079631	WORD	wordpools/wasnorm_wordpool.txt	LTP093	ltpFR	18	5	0	CHAUFFEUR	283	n/a	n/a	0	0.422607421875	0.5869140625	0	lower	amplitud.ttf
1083681	WORD	wordpools/wasnorm_wordpool.txt	LTP093	ltpFR	18	5	0	CABOOSE	214	n/a	n/a	0	0.422607421875	0.5869140625	0	lower	amplitud.ttf
1087854	WORD	wordpools/wasnorm_wordpool.txt	LTP093	ltpFR	18	5	0	LITERATURE	831	n/a	n/a	0	0.422607421875	0.5869140625	0	lower	amplitud.ttf
1091688	WORD	wordpools/wasnorm_wordpool.txt	LTP093	ltpFR	18	5	0	VILLAIN	1567	n/a	n/a	n/a	0.422607421875	0.5869140625	0	lower	amplitud.ttf
1094713	SLOW_MSG	n/a	LTP093	ltpFR	18	5	n/a	n/a	n/a	n/a	n/a	n/a	n/a	n/a	n/a	n/a	n/a
1097295	WORD	wordpools/wasnorm_wordpool.txt	LTP093	ltpFR	18	5	0	ANTEATER	26	n/a	n/a	0	0.422607421875	0.5869140625	0	lower	amplitud.ttf
1101461	WORD	wordpools/wasnorm_wordpool.txt	LTP093	ltpFR	18	5	0	SPIDER	1351	n/a	n/a	0	0.422607421875	0.5869140625	0	lower	amplitud.ttf
1105461	WORD	wordpools/wasnorm_wordpool.txt	LTP093	ltpFR	18	5	0	OCEAN	970	n/a	n/a	1	0.422607421875	0.5869140625	0	lower	amplitud.ttf
1111153	REC_START	n/a	LTP093	ltpFR	18	5	n/a	n/a	n/a	n/a	n/a	n/a	n/a	n/a	n/a	n/a	n/a
1112250	REC_WORD	wordpools/wasnorm_wordpool.txt	LTP093	ltpFR	18	5	0	ANTEATER	26	n/a	n/a	0	n/a	n/a	n/a	n/a	n/a
1113328	REC_WORD	wordpools/wasnorm_wordpool.txt	LTP093	ltpFR	18	5	0	SPIDER	1351	n/a	n/a	0	n/a	n/a	n/a	n/a	n/a
1114565	REC_WORD	wordpools/wasnorm_wordpool.txt	LTP093	ltpFR	18	5	0	OCEAN	970	n/a	n/a	1	n/a	n/a	n/a	n/a	n/a
1115762	REC_WORD	wordpools/wasnorm_wordpool.txt	LTP093	ltpFR	18	5	0	BAY	102	n/a	n/a	0	n/a	n/a	n/a	n/a	n/a
1116879	REC_WORD	wordpools/wasnorm_wordpool.txt	LTP093	ltpFR	18	5	0	VILLAIN	1567	n/a	n/a	n/a	n/a	n/a	n/a	n/a	n/a
1118701	REC_WORD	wordpools/wasnorm_wordpool.txt	LTP093	ltpFR	18	5	0	SUBMARINE	1398	n/a	n/a	1	n/a	n/a	n/a	n/a	n/a
1119978	REC_WORD	wordpools/wasnorm_wordpool.txt	LTP093	ltpFR	18	5	0	HERO	706	n/a	n/a	0	n/a	n/a	n/a	n/a	n/a
1122507	REC_WORD	wordpools/wasnorm_wordpool.txt	LTP093	ltpFR	18	5	0	NAPKIN	937	n/a	n/a	0	n/a	n/a	n/a	n/a	n/a
1123515	REC_WORD	wordpools/wasnorm_wordpool.txt	LTP093	ltpFR	18	5	0	PRINTER	1126	n/a	n/a	0	n/a	n/a	n/a	n/a	n/a
1124383	REC_WORD	wordpools/wasnorm_wordpool.txt	LTP093	ltpFR	18	5	0	PAGE	1001	n/a	n/a	0	n/a	n/a	n/a	n/a	n/a
1140197	REC_WORD	wordpools/wasnorm_wordpool.txt	LTP093	ltpFR	18	5	0	BAY	102	n/a	n/a	0	n/a	n/a	n/a	n/a	n/a
1141658	REC_WORD	wordpools/wasnorm_wordpool.txt	LTP093	ltpFR	18	5	0	OCEAN	970	n/a	n/a	1	n/a	n/a	n/a	n/a	n/a
1145480	REC_WORD_VV	wordpools/wasnorm_wordpool.txt	LTP093	ltpFR	18	5	n/a	<>	-1	n/a	n/a	n/a	n/a	n/a	n/a	n/a	n/a
1271257	WORD	wordpools/wasnorm_wordpool.txt	LTP093	ltpFR	18	6	1	PUBLICATION	1136	n/a	n/a	0	0.57763671875	0.412841796875	1	upper	zerothre.ttf
1275231	WORD	wordpools/wasnorm_wordpool.txt	LTP093	ltpFR	18	6	1	DOOR	486	n/a	n/a	0	0.57763671875	0.412841796875	1	upper	zerothre.ttf
1279439	WORD	wordpools/wasnorm_wordpool.txt	LTP093	ltpFR	18	6	1	ROBIN	1199	n/a	n/a	1	0.57763671875	0.412841796875	1	upper	zerothre.ttf
1283557	WORD	wordpools/wasnorm_wordpool.txt	LTP093	ltpFR	18	6	1	SUBWAY	1400	n/a	n/a	0	0.57763671875	0.412841796875	1	upper	zerothre.ttf
1287673	WORD	wordpools/wasnorm_wordpool.txt	LTP093	ltpFR	18	6	1	MOSQUITO	917	n/a	n/a	1	0.57763671875	0.412841796875	1	upper	zerothre.ttf
1291822	WORD	wordpools/wasnorm_wordpool.txt	LTP093	ltpFR	18	6	1	COCOON	339	n/a	n/a	1	0.57763671875	0.412841796875	1	upper	zerothre.ttf
1295846	WORD	wordpools/wasnorm_wordpool.txt	LTP093	ltpFR	18	6	1	ARROW	40	n/a	n/a	0	0.57763671875	0.412841796875	1	upper	zerothre.ttf
1299821	WORD	wordpools/wasnorm_wordpool.txt	LTP093	ltpFR	18	6	1	GULL	671	n/a	n/a	1	0.57763671875	0.412841796875	1	upper	zerothre.ttf
1303812	WORD	wordpools/wasnorm_wordpool.txt	LTP093	ltpFR	18	6	1	BUTTERFLY	206	n/a	n/a	1	0.57763671875	0.412841796875	1	upper	zerothre.ttf
1307688	WORD	wordpools/wasnorm_wordpool.txt	LTP093	ltpFR	18	6	1	WARRIOR	1589	n/a	n/a	1	0.57763671875	0.412841796875	1	upper	zerothre.ttf
1311621	WORD	wordpools/wasnorm_wordpool.txt	LTP093	ltpFR	18	6	1	BLOSSOM	138	n/a	n/a	1	0.57763671875	0.412841796875	1	upper	zerothre.ttf
1315445	WORD	wordpools/wasnorm_wordpool.txt	LTP093	ltpFR	18	6	1	DAISY	435	n/a	n/a	1	0.57763671875	0.412841796875	1	upper	zerothre.ttf
1319595	WORD	wordpools/wasnorm_wordpool.txt	LTP093	ltpFR	18	6	1	SWAN	1417	n/a	n/a	1	0.57763671875	0.412841796875	1	upper	zerothre.ttf
1323562	WORD	wordpools/wasnorm_wordpool.txt	LTP093	ltpFR	18	6	1	PENDULUM	1043	n/a	n/a	0	0.57763671875	0.412841796875	1	upper	zerothre.ttf
1327645	WORD	wordpools/wasnorm_wordpool.txt	LTP093	ltpFR	18	6	1	CONCERT	360	n/a	n/a	0	0.57763671875	0.412841796875	1	upper	zerothre.ttf
1331711	WORD	wordpools/wasnorm_wordpool.txt	LTP093	ltpFR	18	6	1	KNOT	788	n/a	n/a	0	0.57763671875	0.412841796875	1	upper	zerothre.ttf
1337595	REC_START	n/a	LTP093	ltpFR	18	6	n/a	n/a	n/a	n/a	n/a	n/a	n/a	n/a	n/a	n/a	n/a
1338327	REC_WORD	wordpools/wasnorm_wordpool.txt	LTP093	ltpFR	18	6	1	PENDULUM	1043	n/a	n/a	0	n/a	n/a	n/a	n/a	n/a
1339410	REC_WORD	wordpools/wasnorm_wordpool.txt	LTP093	ltpFR	18	6	1	CONCERT	360	n/a	n/a	0	n/a	n/a	n/a	n/a	n/a
1340368	REC_WORD	wordpools/wasnorm_wordpool.txt	LTP093	ltpFR	18	6	1	KNOT	788	n/a	n/a	0	n/a	n/a	n/a	n/a	n/a
1341165	REC_WORD	wordpools/wasnorm_wordpool.txt	LTP093	ltpFR	18	6	1	SUBWAY	1400	n/a	n/a	0	n/a	n/a	n/a	n/a	n/a
1342387	REC_WORD	wordpools/wasnorm_wordpool.txt	LTP093	ltpFR	18	6	1	ARROW	40	n/a	n/a	0	n/a	n/a	n/a	n/a	n/a
1343278	REC_WORD	wordpools/wasnorm_wordpool.txt	LTP093	ltpFR	18	6	1	SWAN	1417	n/a	n/a	1	n/a	n/a	n/a	n/a	n/a
1344363	REC_WORD	wordpools/wasnorm_wordpool.txt	LTP093	ltpFR	18	6	1	MOSQUITO	917	n/a	n/a	1	n/a	n/a	n/a	n/a	n/a
1345845	REC_WORD	wordpools/wasnorm_wordpool.txt	LTP093	ltpFR	18	6	1	BUTTERFLY	206	n/a	n/a	1	n/a	n/a	n/a	n/a	n/a
1347121	REC_WORD	wordpools/wasnorm_wordpool.txt	LTP093	ltpFR	18	6	1	WARRIOR	1589	n/a	n/a	1	n/a	n/a	n/a	n/a	n/a
1348269	REC_WORD	wordpools/wasnorm_wordpool.txt	LTP093	ltpFR	18	6	1	DAISY	435	n/a	n/a	1	n/a	n/a	n/a	n/a	n/a
1350990	REC_WORD	wordpools/wasnorm_wordpool.txt	LTP093	ltpFR	18	6	1	ROBIN	1199	n/a	n/a	1	n/a	n/a	n/a	n/a	n/a
1396538	REC_WORD	wordpools/wasnorm_wordpool.txt	LTP093	ltpFR	18	6	1	CONCERT	360	n/a	n/a	0	n/a	n/a	n/a	n/a	n/a
1472874	WORD	wordpools/wasnorm_wordpool.txt	LTP093	ltpFR	18	7	1	SIDING	1304	n/a	n/a	0	0.57763671875	0.412841796875	1	upper	zerothre.ttf
1476849	WORD	wordpools/wasnorm_wordpool.txt	LTP093	ltpFR	18	7	1	BROOK	177	n/a	n/a	0	0.57763671875	0.412841796875	1	upper	zerothre.ttf
1480732	WORD	wordpools/wasnorm_wordpool.txt	LTP093	ltpFR	18	7	1	CLOSET	326	n/a	n/a	0	0.57763671875	0.412841796875	1	upper	zerothre.ttf
1484699	WORD	wordpools/wasnorm_wordpool.txt	LTP093	ltpFR	18	7	1	BRICK	172	n/a	n/a	0	0.57763671875	0.412841796875	1	upper	zerothre.ttf
1488715	WORD	wordpools/wasnorm_wordpool.txt	LTP093	ltpFR	18	7	1	OAR	966	n/a	n/a	0	0.57763671875	0.412841796875	1	upper	zerothre.ttf
1492565	WORD	wordpools/wasnorm_wordpool.txt	LTP093	ltpFR	18	7	1	SOLDIER	1344	n/a	n/a	0	0.57763671875	0.412841796875	1	upper	zerothre.ttf
1496590	WORD	wordpools/wasnorm_wordpool.txt	LTP093	ltpFR	18	7	1	GAZELLE	628	n/a	n/a	1	0.57763671875	0.412841796875	1	upper	zerothre.ttf
1500631	WORD	wordpools/wasnorm_wordpool.txt	LTP093	ltpFR	18	7	1	FUNGUS	614	n/a	n/a	1	0.57763671875	0.412841796875	1	upper	zerothre.ttf
1504631	WORD	wordpools/wasnorm_wordpool.txt	LTP093	ltpFR	18	7	1	COLESLAW	344	n/a	n/a	0	0.57763671875	0.412841796875	1	upper	zerothre.ttf
1508689	WORD	wordpools/wasnorm_wordpool.txt	LTP093	ltpFR	18	7	1	PARENT	1013	n/a	n/a	1	0.57763671875	0.412841796875	1	upper	zerothre.ttf
1512647	WORD	wordpools/wasnorm_wordpool.txt	LTP093	ltpFR	18	7	1	CHAMBER	277	n/a	n/a	0	0.57763671875	0.412841796875	1	upper	zerothre.ttf
1516588	WORD	wordpools/wasnorm_wordpool.txt	LTP093	ltpFR	18	7	1	FUGITIVE	612	n/a	n/a	1	0.57763671875	0.412841796875	1	upper	zerothre.ttf
1520671	WORD	wordpools/wasnorm_wordpool.txt	LTP093	ltpFR	18	7	1	COUGAR	387	n/a	n/a	1	0.57763671875	0.412841796875	1	upper	zerothre.ttf
1524571	WORD	wordpools/wasnorm_wordpool.txt	LTP093	ltpFR	18	7	1	KITTEN	780	n/a	n/a	1	0.57763671875	0.412841796875	1	upper	zerothre.ttf
1528679	WORD	wordpools/wasnorm_wordpool.txt	LTP093	ltpFR	18	7	1	DESIGNER	451	n/a	n/a	0	0.57763671875	0.412841796875	1	upper	zerothre.ttf
1532878	WORD	wordpools/wasnorm_wordpool.txt	LTP093	ltpFR	18	7	1	LIBRARY	816	n/a	n/a	0	0.57763671875	0.412841796875	1	upper	zerothre.ttf
1538621	REC_START	n/a	LTP093	ltpFR	18	7	n/a	n/a	n/a	n/a	n/a	n/a	n/a	n/a	n/a	n/a	n/a
1539204	REC_WORD	wordpools/wasnorm_wordpool.txt	LTP093	ltpFR	18	7	1	LIBRARY	816	n/a	n/a	0	n/a	n/a	n/a	n/a	n/a
1540377	REC_WORD	wordpools/wasnorm_wordpool.txt	LTP093	ltpFR	18	7	1	DESIGNER	451	n/a	n/a	0	n/a	n/a	n/a	n/a	n/a
1542377	REC_WORD	wordpools/wasnorm_wordpool.txt	LTP093	ltpFR	18	7	1	KITTEN	780	n/a	n/a	1	n/a	n/a	n/a	n/a	n/a
1543355	REC_WORD	wordpools/wasnorm_wordpool.txt	LTP093	ltpFR	18	7	1	COUGAR	387	n/a	n/a	1	n/a	n/a	n/a	n/a	n/a
1544637	REC_WORD	wordpools/wasnorm_wordpool.txt	LTP093	ltpFR	18	7	1	SOLDIER	1344	n/a	n/a	0	n/a	n/a	n/a	n/a	n/a
1547900	REC_WORD	wordpools/wasnorm_wordpool.txt	LTP093	ltpFR	18	7	1	BRICK	172	n/a	n/a	0	n/a	n/a	n/a	n/a	n/a
1556630	REC_WORD	wordpools/wasnorm_wordpool.txt	LTP093	ltpFR	18	7	1	PUBLICATION	1136	n/a	n/a	0	n/a	n/a	n/a	n/a	n/a
1565325	REC_WORD	wordpools/wasnorm_wordpool.txt	LTP093	ltpFR	18	7	1	COLESLAW	344	n/a	n/a	0	n/a	n/a	n/a	n/a	n/a
1572653	REC_WORD	wordpools/wasnorm_wordpool.txt	LTP093	ltpFR	18	7	1	CLOSET	326	n/a	n/a	0	n/a	n/a	n/a	n/a	n/a
1573482	REC_WORD	wordpools/wasnorm_wordpool.txt	LTP093	ltpFR	18	7	1	SIDING	1304	n/a	n/a	0	n/a	n/a	n/a	n/a	n/a
1701831	WORD	wordpools/wasnorm_wordpool.txt	LTP093	ltpFR	18	8	0	ISLAND	745	n/a	n/a	0	0.422607421875	0.5869140625	0	lower	amplitud.ttf
1705847	WORD	wordpools/wasnorm_wordpool.txt	LTP093	ltpFR	18	8	0	POSTAGE	1113	n/a	n/a	0	0.422607421875	0.5869140625	0	lower	amplitud.ttf
1709855	WORD	wordpools/wasnorm_wordpool.txt	LTP093	ltpFR	18	8	0	PLUMBER	1091	n/a	n/a	0	0.422607421875	0.5869140625	0	lower	amplitud.ttf
1714055	WORD	wordpools/wasnorm_wordpool.txt	LTP093	ltpFR	18	8	0	LIGHTER	819	n/a	n/a	0	0.422607421875	0.5869140625	0	lower	amplitud.ttf
1718221	WORD	wordpools/wasnorm_wordpool.txt	LTP093	ltpFR	18	8	0	PIPE	1073	n/a	n/a	0	0.422607421875	0.5869140625	0	lower	amplitud.ttf
1722229	WORD	wordpools/wasnorm_wordpool.txt	LTP093	ltpFR	18	8	0	KITCHEN	778	n/a	n/a	0	0.422607421875	0.5869140625	0	lower	amplitud.ttf
1726129	WORD	wordpools/wasnorm_wordpool.txt	LTP093	ltpFR	18	8	0	STEW	1380	n/a	n/a	0	0.422607421875	0.5869140625	0	lower	amplitud.ttf
1730037	WORD	wordpools/wasnorm_wordpool.txt	LTP093	ltpFR	18	8	0	SNORKEL	1336	n/a	n/a	0	0.422607421875	0.5869140625	0	lower	amplitud.ttf
1733945	WORD	wordpools/wasnorm_wordpool.txt	LTP093	ltpFR	18	8	0	BUTCHER	203	n/a	n/a	0	0.422607421875	0.5869140625	0	lower	amplitud.ttf
1738086	WORD	wordpools/wasnorm_wordpool.txt	LTP093	ltpFR	18	8	0	OUTDOORS	987	n/a	n/a	0	0.422607421875	0.5869140625	0	lower	amplitud.ttf
1742086	WORD	wordpools/wasnorm_wordpool.txt	LTP093	ltpFR	18	8	0	WATER	1594	n/a	n/a	0	0.422607421875	0.5869140625	0	lower	amplitud.ttf
1746011	WORD	wordpools/wasnorm_wordpool.txt	LTP093	ltpFR	18	8	0	DEPARTMENT	449	n/a	n/a	0	0.422607421875	0.5869140625	0	lower	amplitud.ttf
1749952	WORD	wordpools/wasnorm_wordpool.txt	LTP093	ltpFR	18	8	0	TEAPOT	1442	n/a	n/a	0	0.422607421875	0.5869140625	0	lower	amplitud.ttf
1753927	WORD	wordpools/wasnorm_wordpool.txt	LTP093	ltpFR	18	8	0	ENVELOPE	537	n/a	n/a	0	0.422607421875	0.5869140625	0	lower	amplitud.ttf
1757810	WORD	wordpools/wasnorm_wordpool.txt	LTP093	ltpFR	18	8	0	ICING	732	n/a	n/a	0	0.422607421875	0.5869140625	0	lower	amplitud.ttf
1761868	WORD	wordpools/wasnorm_wordpool.txt	LTP093	ltpFR	18	8	0	SHORTCAKE	1292	n/a	n/a	0	0.422607421875	0.5869140625	0	lower	amplitud.ttf
1767543	REC_START	n/a	LTP093	ltpFR	18	8	n/a	n/a	n/a	n/a	n/a	n/a	n/a	n/a	n/a	n/a	n/a
1768027	REC_WORD	wordpools/wasnorm_wordpool.txt	LTP093	ltpFR	18	8	0	SHORTCAKE	1292	n/a	n/a	0	n/a	n/a	n/a	n/a	n/a
1769364	REC_WORD	wordpools/wasnorm_wordpool.txt	LTP093	ltpFR	18	8	0	ISLAND	745	n/a	n/a	0	n/a	n/a	n/a	n/a	n/a
1770192	REC_WORD	wordpools/wasnorm_wordpool.txt	LTP093	ltpFR	18	8	0	PLUMBER	1091	n/a	n/a	0	n/a	n/a	n/a	n/a	n/a
1771060	REC_WORD	wordpools/wasnorm_wordpool.txt	LTP093	ltpFR	18	8	0	POSTAGE	1113	n/a	n/a	0	n/a	n/a	n/a	n/a	n/a
1771998	REC_WORD	wordpools/wasnorm_wordpool.txt	LTP093	ltpFR	18	8	0	PIPE	1073	n/a	n/a	0	n/a	n/a	n/a	n/a	n/a
1772631	REC_WORD	wordpools/wasnorm_wordpool.txt	LTP093	ltpFR	18	8	0	SNORKEL	1336	n/a	n/a	0	n/a	n/a	n/a	n/a	n/a
1773674	REC_WORD	wordpools/wasnorm_wordpool.txt	LTP093	ltpFR	18	8	0	LIGHTER	819	n/a	n/a	0	n/a	n/a	n/a	n/a	n/a
1913989	WORD	wordpools/wasnorm_wordpool.txt	LTP093	ltpFR	18	9	1	TRAY	1498	n/a	n/a	0	0.57763671875	0.412841796875	1	upper	zerothre.ttf
1918131	WORD	wordpools/wasnorm_wordpool.txt	LTP093	ltpFR	18	9	1	VINEGAR	1569	n/a	n/a	0	0.57763671875	0.412841796875	1	upper	zerothre.ttf
1922055	WORD	wordpools/wasnorm_wordpool.txt	LTP093	ltpFR	18	9	1	RESTAURANT	1187	n/a	n/a	0	0.57763671875	0.412841796875	1	upper	zerothre.ttf
1926022	WORD	wordpools/wasnorm_wordpool.txt	LTP093	ltpFR	18	9	0	TICK	1463	n/a	n/a	0	0.422607421875	0.5869140625	0	lower	amplitud.ttf
1930005	WORD	wordpools/wasnorm_wordpool.txt	LTP093	ltpFR	18	9	0	WOLF	1619	n/a	n/a	0	0.422607421875	0.5869140625	0	lower	amplitud.ttf
1933955	WORD	wordpools/wasnorm_wordpool.txt	LTP093	ltpFR	18	9	0	MICROWAVE	892	n/a	n/a	0	0.422607421875	0.5869140625	0	lower	amplitud.ttf
1938096	WORD	wordpools/wasnorm_wordpool.txt	LTP093	ltpFR	18	9	0	ARCHITECT	36	n/a	n/a	0	0.422607421875	0.5869140625	0	lower	amplitud.ttf
1942096	WORD	wordpools/wasnorm_wordpool.txt	LTP093	ltpFR	18	9	1	FORT	595	n/a	n/a	2	0.57763671875	0.412841796875	1	upper	zerothre.ttf
1943995	KEY_MSG	n/a	LTP093	ltpFR	18	9	n/a	n/a	n/a	n/a	n/a	n/a	n/a	n/a	n/a	n/a	n/a
1946646	WORD	wordpools/wasnorm_wordpool.txt	LTP093	ltpFR	18	9	1	LAWYER	806	n/a	n/a	0	0.57763671875	0.412841796875	1	upper	zerothre.ttf
1950770	WORD	wordpools/wasnorm_wordpool.txt	LTP093	ltpFR	18	9	1	SUPPER	1411	n/a	n/a	0	0.57763671875	0.412841796875	1	upper	zerothre.ttf
1954679	WORD	wordpools/wasnorm_wordpool.txt	LTP093	ltpFR	18	9	1	LAKE	796	n/a	n/a	0	0.57763671875	0.412841796875	1	upper	zerothre.ttf
1958519	WORD	wordpools/wasnorm_wordpool.txt	LTP093	ltpFR	18	9	1	CLOVE	329	n/a	n/a	1	0.57763671875	0.412841796875	1	upper	zerothre.ttf
1962461	WORD	wordpools/wasnorm_wordpool.txt	LTP093	ltpFR	18	9	0	HONEY	713	n/a	n/a	0	0.422607421875	0.5869140625	0	lower	amplitud.ttf
1966586	WORD	wordpools/wasnorm_wordpool.txt	LTP093	ltpFR	18	9	0	ZUCCHINI	1638	n/a	n/a	0	0.422607421875	0.5869140625	0	lower	amplitud.ttf
1970728	WORD	wordpools/wasnorm_wordpool.txt	LTP093	ltpFR	18	9	0	ELK	526	n/a	n/a	0	0.422607421875	0.5869140625	0	lower	amplitud.ttf
1974569	WORD	wordpools/wasnorm_wordpool.txt	LTP093	ltpFR	18	9	0	ANTELOPE	27	n/a	n/a	1	0.422607421875	0.5869140625	0	lower	amplitud.ttf
1980493	REC_START	n/a	LTP093	ltpFR	18	9	n/a	n/a	n/a	n/a	n/a	n/a	n/a	n/a	n/a	n/a	n/a
1981131	REC_WORD	wordpools/wasnorm_wordpool.txt	LTP093	ltpFR	18	9	0	ANTELOPE	27	n/a	n/a	1	n/a	n/a	n/a	n/a	n/a
1982129	REC_WORD	wordpools/wasnorm_wordpool.txt	LTP093	ltpFR	18	9	0	ELK	526	n/a	n/a	0	n/a	n/a	n/a	n/a	n/a
1982867	REC_WORD	wordpools/wasnorm_wordpool.txt	LTP093	ltpFR	18	9	0	HONEY	713	n/a	n/a	0	n/a	n/a	n/a	n/a	n/a
1984269	REC_WORD	wordpools/wasnorm_wordpool.txt	LTP093	ltpFR	18	9	1	RESTAURANT	1187	n/a	n/a	0	n/a	n/a	n/a	n/a	n/a
1985187	REC_WORD	wordpools/wasnorm_wordpool.txt	LTP093	ltpFR	18	9	1	TRAY	1498	n/a	n/a	0	n/a	n/a	n/a	n/a	n/a
1985920	REC_WORD	wordpools/wasnorm_wordpool.txt	LTP093	ltpFR	18	9	1	VINEGAR	1569	n/a	n/a	0	n/a	n/a	n/a	n/a	n/a
1986878	REC_WORD	wordpools/wasnorm_wordpool.txt	LTP093	ltpFR	18	9	0	TICK	1463	n/a	n/a	0	n/a	n/a	n/a	n/a	n/a
1987447	REC_WORD	wordpools/wasnorm_wordpool.txt	LTP093	ltpFR	18	9	0	WOLF	1619	n/a	n/a	0	n/a	n/a	n/a	n/a	n/a
1989547	REC_WORD	wordpools/wasnorm_wordpool.txt	LTP093	ltpFR	18	9	0	MICROWAVE	892	n/a	n/a	0	n/a	n/a	n/a	n/a	n/a
2034146	REC_WORD	wordpools/wasnorm_wordpool.txt	LTP093	ltpFR	18	9	1	LAKE	796	n/a	n/a	0	n/a	n/a	n/a	n/a	n/a
2106016	WORD	wordpools/wasnorm_wordpool.txt	LTP093	ltpFR	18	10	-1	RATTLE	1170	n/a	n/a	-1	1.0	1.0	1	upper	Verdana.ttf
2110132	WORD	wordpools/wasnorm_wordpool.txt	LTP093	ltpFR	18	10	-1	BASSINET	97	n/a	n/a	-1	1.0	1.0	1	upper	Verdana.ttf
2113990	WORD	wordpools/wasnorm_wordpool.txt	LTP093	ltpFR	18	10	-1	HANDKERCHIEF	686	n/a	n/a	-1	1.0	1.0	1	upper	Verdana.ttf
2117998	WORD	wordpools/wasnorm_wordpool.txt	LTP093	ltpFR	18	10	-1	STATUE	1374	n/a	n/a	-1	1.0	1.0	1	upper	Verdana.ttf
2122040	WORD	wordpools/wasnorm_wordpool.txt	LTP093	ltpFR	18	10	-1	CANVAS	234	n/a	n/a	-1	1.0	1.0	1	upper	Verdana.ttf
2126048	WORD	wordpools/wasnorm_wordpool.txt	LTP093	ltpFR	18	10	-1	SPICE	1350	n/a	n/a	-1	1.0	1.0	1	upper	Verdana.ttf
2129948	WORD	wordpools/wasnorm_wordpool.txt	LTP093	ltpFR	18	10	-1	SHAMPOO	1274	n/a	n/a	-1	1.0	1.0	1	upper	Verdana.ttf
2133897	WORD	wordpools/wasnorm_wordpool.txt	LTP093	ltpFR	18	10	-1	DICE	461	n/a	n/a	-1	1.0	1.0	1	upper	Verdana.ttf
2137914	WORD	wordpools/wasnorm_wordpool.txt	LTP093	ltpFR	18	10	-1	GUN	673	n/a	n/a	-1	1.0	1.0	1	upper	Verdana.ttf
2141805	WORD	wordpools/wasnorm_wordpool.txt	LTP093	ltpFR	18	10	-1	CREAM	402	n/a	n/a	-1	1.0	1.0	1	upper	Verdana.ttf
2145780	WORD	wordpools/wasnorm_wordpool.txt	LTP093	ltpFR	18	10	-1	TAPE	1433	n/a	n/a	-1	1.0	1.0	1	upper	Verdana.ttf
2149664	WORD	wordpools/wasnorm_wordpool.txt	LTP093	ltpFR	18	10	-1	GANGSTER	620	n/a	n/a	-1	1.0	1.0	1	upper	Verdana.ttf
2153638	WORD	wordpools/wasnorm_wordpool.txt	LTP093	ltpFR	18	10	-1	ENGINE	535	n/a	n/a	-1	1.0	1.0	1	upper	Verdana.ttf
2157555	WORD	wordpools/wasnorm_wordpool.txt	LTP093	ltpFR	18	10	-1	TRUCK	1512	n/a	n/a	-1	1.0	1.0	1	upper	Verdana.ttf
2161420	WORD	wordpools/wasnorm_wordpool.txt	LTP093	ltpFR	18	10	-1	CHAPEL	280	n/a	n/a	-1	1.0	1.0	1	upper	Verdana.ttf
2165470	WORD	wordpools/wasnorm_wordpool.txt	LTP093	ltpFR	18	10	-1	CLARINET	317	n/a	n/a	-1	1.0	1.0	1	upper	Verdana.ttf
2171270	REC_START	n/a	LTP093	ltpFR	18	10	n/a	n/a	n/a	n/a	n/a	n/a	n/a	n/a	n/a	n/a	n/a
2171878	REC_WORD	wordpools/wasnorm_wordpool.txt	LTP093	ltpFR	18	10	-1	RATTLE	1170	n/a	n/a	-1	n/a	n/a	n/a	n/a	n/a
2172961	REC_WORD	wordpools/wasnorm_wordpool.txt	LTP093	ltpFR	18	10	-1	BASSINET	97	n/a	n/a	-1	n/a	n/a	n/a	n/a	n/a
2174068	REC_WORD	wordpools/wasnorm_wordpool.txt	LTP093	ltpFR	18	10	-1	CLARINET	317	n/a	n/a	-1	n/a	n/a	n/a	n/a	n/a
2175380	REC_WORD	wordpools/wasnorm_wordpool.txt	LTP093	ltpFR	18	10	-1	GANGSTER	620	n/a	n/a	-1	n/a	n/a	n/a	n/a	n/a
2176732	REC_WORD	wordpools/wasnorm_wordpool.txt	LTP093	ltpFR	18	10	-1	TRUCK	1512	n/a	n/a	-1	n/a	n/a	n/a	n/a	n/a
2177860	REC_WORD	wordpools/wasnorm_wordpool.txt	LTP093	ltpFR	18	10	-1	ENGINE	535	n/a	n/a	-1	n/a	n/a	n/a	n/a	n/a
2311083	WORD	wordpools/wasnorm_wordpool.txt	LTP093	ltpFR	18	11	0	FOUNTAIN	597	n/a	n/a	0	0.422607421875	0.5869140625	0	lower	amplitud.ttf
2314983	WORD	wordpools/wasnorm_wordpool.txt	LTP093	ltpFR	18	11	0	LUNCH	849	n/a	n/a	0	0.422607421875	0.5869140625	0	lower	amplitud.ttf
2318983	WORD	wordpools/wasnorm_wordpool.txt	LTP093	ltpFR	18	11	0	ELBOW	520	n/a	n/a	0	0.422607421875	0.5869140625	0	lower	amplitud.ttf
2322857	WORD	wordpools/wasnorm_wordpool.txt	LTP093	ltpFR	18	11	0	ARM	38	n/a	n/a	0	0.422607421875	0.5869140625	0	lower	amplitud.ttf
2326675	WORD	wordpools/wasnorm_wordpool.txt	LTP093	ltpFR	18	11	0	SERVER	1272	n/a	n/a	0	0.422607421875	0.5869140625	0	lower	amplitud.ttf
2330882	WORD	wordpools/wasnorm_wordpool.txt	LTP093	ltpFR	18	11	0	CHEF	290	n/a	n/a	0	0.422607421875	0.5869140625	0	lower	amplitud.ttf
2334731	WORD	wordpools/wasnorm_wordpool.txt	LTP093	ltpFR	18	11	0	PHOTO	1055	n/a	n/a	0	0.422607421875	0.5869140625	0	lower	amplitud.ttf
2338640	WORD	wordpools/wasnorm_wordpool.txt	LTP093	ltpFR	18	11	0	SURVEY	1414	n/a	n/a	0	0.422607421875	0.5869140625	0	lower	amplitud.ttf
2342673	WORD	wordpools/wasnorm_wordpool.txt	LTP093	ltpFR	18	11	0	RUBY	1214	n/a	n/a	0	0.422607421875	0.5869140625	0	lower	amplitud.ttf
2346864	WORD	wordpools/wasnorm_wordpool.txt	LTP093	ltpFR	18	11	0	DAM	436	n/a	n/a	0	0.422607421875	0.5869140625	0	lower	amplitud.ttf
2350730	WORD	wordpools/wasnorm_wordpool.txt	LTP093	ltpFR	18	11	0	REEF	1177	n/a	n/a	0	0.422607421875	0.5869140625	0	lower	amplitud.ttf
2354697	WORD	wordpools/wasnorm_wordpool.txt	LTP093	ltpFR	18	11	0	TIMBER	1469	n/a	n/a	1	0.422607421875	0.5869140625	0	lower	amplitud.ttf
2358581	WORD	wordpools/wasnorm_wordpool.txt	LTP093	ltpFR	18	11	0	DOCK	477	n/a	n/a	0	0.422607421875	0.5869140625	0	lower	amplitud.ttf
2362521	WORD	wordpools/wasnorm_wordpool.txt	LTP093	ltpFR	18	11	0	FELLOW	558	n/a	n/a	0	0.422607421875	0.5869140625	0	lower	amplitud.ttf
2366354	WORD	wordpools/wasnorm_wordpool.txt	LTP093	ltpFR	18	11	0	MAPLE	866	n/a	n/a	0	0.422607421875	0.5869140625	0	lower	amplitud.ttf
2370312	WORD	wordpools/wasnorm_wordpool.txt	LTP093	ltpFR	18	11	0	PORTRAIT	1111	n/a	n/a	0	0.422607421875	0.5869140625	0	lower	amplitud.ttf
2375929	REC_START	n/a	LTP093	ltpFR	18	11	n/a	n/a	n/a	n/a	n/a	n/a	n/a	n/a	n/a	n/a	n/a
2376812	REC_WORD	wordpools/wasnorm_wordpool.txt	LTP093	ltpFR	18	11	0	LUNCH	849	n/a	n/a	0	n/a	n/a	n/a	n/a	n/a
2377600	REC_WORD	wordpools/wasnorm_wordpool.txt	LTP093	ltpFR	18	11	0	FOUNTAIN	597	n/a	n/a	0	n/a	n/a	n/a	n/a	n/a
2378887	REC_WORD	wordpools/wasnorm_wordpool.txt	LTP093	ltpFR	18	11	0	ELBOW	520	n/a	n/a	0	n/a	n/a	n/a	n/a	n/a
2379925	REC_WORD	wordpools/wasnorm_wordpool.txt	LTP093	ltpFR	18	11	0	ARM	38	n/a	n/a	0	n/a	n/a	n/a	n/a	n/a
2389762	REC_WORD	wordpools/wasnorm_wordpool.txt	LTP093	ltpFR	18	11	0	TIMBER	1469	n/a	n/a	1	n/a	n/a	n/a	n/a	n/a
2390625	REC_WORD	wordpools/wasnorm_wordpool.txt	LTP093	ltpFR	18	11	0	DOCK	477	n/a	n/a	0	n/a	n/a	n/a	n/a	n/a
2496485	WORD	wordpools/wasnorm_wordpool.txt	LTP093	ltpFR	18	12	0	OZONE	996	n/a	n/a	0	0.422607421875	0.5869140625	0	lower	amplitud.ttf
2500653	WORD	wordpools/wasnorm_wordpool.txt	LTP093	ltpFR	18	12	0	KLEENEX	782	n/a	n/a	0	0.422607421875	0.5869140625	0	lower	amplitud.ttf
2504743	WORD	wordpools/wasnorm_wordpool.txt	LTP093	ltpFR	18	12	0	FREEZER	604	n/a	n/a	0	0.422607421875	0.5869140625	0	lower	amplitud.ttf
2508818	WORD	wordpools/wasnorm_wordpool.txt	LTP093	ltpFR	18	12	0	SCREWDRIVER	1255	n/a	n/a	0	0.422607421875	0.5869140625	0	lower	amplitud.ttf
2512668	WORD	wordpools/wasnorm_wordpool.txt	LTP093	ltpFR	18	12	1	STREAM	1392	n/a	n/a	0	0.57763671875	0.412841796875	1	upper	zerothre.ttf
2516525	WORD	wordpools/wasnorm_wordpool.txt	LTP093	ltpFR	18	12	1	SWIMMER	1420	n/a	n/a	1	0.57763671875	0.412841796875	1	upper	zerothre.ttf
2520342	WORD	wordpools/wasnorm_wordpool.txt	LTP093	ltpFR	18	12	1	ROBOT	1200	n/a	n/a	0	0.57763671875	0.412841796875	1	upper	zerothre.ttf
2524283	WORD	wordpools/wasnorm_wordpool.txt	LTP093	ltpFR	18	12	1	ENGINEER	536	n/a	n/a	0	0.57763671875	0.412841796875	1	upper	zerothre.ttf
2528224	WORD	wordpools/wasnorm_wordpool.txt	LTP093	ltpFR	18	12	0	TUTU	1524	n/a	n/a	0	0.422607421875	0.5869140625	0	lower	amplitud.ttf
2532141	WORD	wordpools/wasnorm_wordpool.txt	LTP093	ltpFR	18	12	0	MONGOOSE	909	n/a	n/a	1	0.422607421875	0.5869140625	0	lower	amplitud.ttf
2536007	WORD	wordpools/wasnorm_wordpool.txt	LTP093	ltpFR	18	12	0	BRANDY	169	n/a	n/a	0	0.422607421875	0.5869140625	0	lower	amplitud.ttf
2540215	WORD	wordpools/wasnorm_wordpool.txt	LTP093	ltpFR	18	12	0	FINGERNAIL	568	n/a	n/a	0	0.422607421875	0.5869140625	0	lower	amplitud.ttf
2544298	WORD	wordpools/wasnorm_wordpool.txt	LTP093	ltpFR	18	12	1	CREATURE	403	n/a	n/a	1	0.57763671875	0.412841796875	1	upper	zerothre.ttf
2548356	WORD	wordpools/wasnorm_wordpool.txt	LTP093	ltpFR	18	12	1	BALLERINA	74	n/a	n/a	1	0.57763671875	0.412841796875	1	upper	zerothre.ttf
2552181	WORD	wordpools/wasnorm_wordpool.txt	LTP093	ltpFR	18	12	1	MUSTARD	935	n/a	n/a	0	0.57763671875	0.412841796875	1	upper	zerothre.ttf
2556256	WORD	wordpools/wasnorm_wordpool.txt	LTP093	ltpFR	18	12	1	OVAL	990	n/a	n/a	2	0.57763671875	0.412841796875	1	upper	zerothre.ttf
2557431	KEY_MSG	n/a	LTP093	ltpFR	18	12	n/a	n/a	n/a	n/a	n/a	n/a	n/a	n/a	n/a	n/a	n/a
2562189	REC_START	n/a	LTP093	ltpFR	18	12	n/a	n/a	n/a	n/a	n/a	n/a	n/a	n/a	n/a	n/a	n/a
2563132	REC_WORD	wordpools/wasnorm_wordpool.txt	LTP093	ltpFR	18	12	1	OVAL	990	n/a	n/a	2	n/a	n/a	n/a	n/a	n/a
2563895	REC_WORD	wordpools/wasnorm_wordpool.txt	LTP093	ltpFR	18	12	0	TUTU	1524	n/a	n/a	0	n/a	n/a	n/a	n/a	n/a
2564708	REC_WORD	wordpools/wasnorm_wordpool.txt	LTP093	ltpFR	18	12	1	BALLERINA	74	n/a	n/a	1	n/a	n/a	n/a	n/a	n/a
2565651	REC_WORD	wordpools/wasnorm_wordpool.txt	LTP093	ltpFR	18	12	1	STREAM	1392	n/a	n/a	0	n/a	n/a	n/a	n/a	n/a
2566524	REC_WORD	wordpools/wasnorm_wordpool.txt	LTP093	ltpFR	18	12	1	SWIMMER	1420	n/a	n/a	1	n/a	n/a	n/a	n/a	n/a
2583271	REC_WORD	wordpools/wasnorm_wordpool.txt	LTP093	ltpFR	18	12	1	MUSTARD	935	n/a	n/a	0	n/a	n/a	n/a	n/a	n/a
2595144	REC_WORD	wordpools/wasnorm_wordpool.txt	LTP093	ltpFR	18	12	1	ROBOT	1200	n/a	n/a	0	n/a	n/a	n/a	n/a	n/a
2595912	REC_WORD	wordpools/wasnorm_wordpool.txt	LTP093	ltpFR	18	12	1	CREATURE	403	n/a	n/a	1	n/a	n/a	n/a	n/a	n/a
2637808	REST_REWET	n/a	LTP093	ltpFR	18	12	n/a	n/a	n/a	n/a	n/a	n/a	n/a	n/a	n/a	n/a	n/a
3052442	WORD	wordpools/wasnorm_wordpool.txt	LTP093	ltpFR	18	13	-1	MARS	873	n/a	n/a	-1	1.0	1.0	1	upper	Verdana.ttf
3056634	WORD	wordpools/wasnorm_wordpool.txt	LTP093	ltpFR	18	13	-1	UTENSIL	1542	n/a	n/a	-1	1.0	1.0	1	upper	Verdana.ttf
3060833	WORD	wordpools/wasnorm_wordpool.txt	LTP093	ltpFR	18	13	-1	BEAVER	109	n/a	n/a	-1	1.0	1.0	1	upper	Verdana.ttf
3064832	WORD	wordpools/wasnorm_wordpool.txt	LTP093	ltpFR	18	13	-1	EARTH	515	n/a	n/a	-1	1.0	1.0	1	upper	Verdana.ttf
3068999	WORD	wordpools/wasnorm_wordpool.txt	LTP093	ltpFR	18	13	-1	FOX	598	n/a	n/a	-1	1.0	1.0	1	upper	Verdana.ttf
3073073	WORD	wordpools/wasnorm_wordpool.txt	LTP093	ltpFR	18	13	-1	STRING	1394	n/a	n/a	-1	1.0	1.0	1	upper	Verdana.ttf
3077065	WORD	wordpools/wasnorm_wordpool.txt	LTP093	ltpFR	18	13	-1	YARN	1631	n/a	n/a	-1	1.0	1.0	1	upper	Verdana.ttf
3080989	WORD	wordpools/wasnorm_wordpool.txt	LTP093	ltpFR	18	13	-1	CAR	241	n/a	n/a	-1	1.0	1.0	1	upper	Verdana.ttf
3084856	WORD	wordpools/wasnorm_wordpool.txt	LTP093	ltpFR	18	13	-1	TOAD	1470	n/a	n/a	-1	1.0	1.0	1	upper	Verdana.ttf
3089022	WORD	wordpools/wasnorm_wordpool.txt	LTP093	ltpFR	18	13	-1	KANGAROO	768	n/a	n/a	-1	1.0	1.0	1	upper	Verdana.ttf
3093038	WORD	wordpools/wasnorm_wordpool.txt	LTP093	ltpFR	18	13	-1	LOBBY	836	n/a	n/a	-1	1.0	1.0	1	upper	Verdana.ttf
3096971	WORD	wordpools/wasnorm_wordpool.txt	LTP093	ltpFR	18	13	-1	WHIP	1604	n/a	n/a	-1	1.0	1.0	1	upper	Verdana.ttf
3101146	WORD	wordpools/wasnorm_wordpool.txt	LTP093	ltpFR	18	13	-1	CINNAMON	310	n/a	n/a	-1	1.0	1.0	1	upper	Verdana.ttf
3105279	WORD	wordpools/wasnorm_wordpool.txt	LTP093	ltpFR	18	13	-1	HERB	704	n/a	n/a	-1	1.0	1.0	1	upper	Verdana.ttf
3109320	WORD	wordpools/wasnorm_wordpool.txt	LTP093	ltpFR	18	13	-1	SALESMAN	1225	n/a	n/a	-1	1.0	1.0	1	upper	Verdana.ttf
3113287	WORD	wordpools/wasnorm_wordpool.txt	LTP093	ltpFR	18	13	-1	HAY	693	n/a	n/a	-1	1.0	1.0	1	upper	Verdana.ttf
3119071	REC_START	n/a	LTP093	ltpFR	18	13	n/a	n/a	n/a	n/a	n/a	n/a	n/a	n/a	n/a	n/a	n/a
3120158	REC_WORD	wordpools/wasnorm_wordpool.txt	LTP093	ltpFR	18	13	-1	CAR	241	n/a	n/a	-1	n/a	n/a	n/a	n/a	n/a
3120892	REC_WORD	wordpools/wasnorm_wordpool.txt	LTP093	ltpFR	18	13	-1	FOX	598	n/a	n/a	-1	n/a	n/a	n/a	n/a	n/a
3121974	REC_WORD	wordpools/wasnorm_wordpool.txt	LTP093	ltpFR	18	13	-1	EARTH	515	n/a	n/a	-1	n/a	n/a	n/a	n/a	n/a
3122742	REC_WORD	wordpools/wasnorm_wordpool.txt	LTP093	ltpFR	18	13	-1	MARS	873	n/a	n/a	-1	n/a	n/a	n/a	n/a	n/a
3123596	REC_WORD	wordpools/wasnorm_wordpool.txt	LTP093	ltpFR	18	13	-1	STRING	1394	n/a	n/a	-1	n/a	n/a	n/a	n/a	n/a
3124708	REC_WORD	wordpools/wasnorm_wordpool.txt	LTP093	ltpFR	18	13	-1	YARN	1631	n/a	n/a	-1	n/a	n/a	n/a	n/a	n/a
3125611	REC_WORD	wordpools/wasnorm_wordpool.txt	LTP093	ltpFR	18	13	-1	CINNAMON	310	n/a	n/a	-1	n/a	n/a	n/a	n/a	n/a
3126923	REC_WORD	wordpools/wasnorm_wordpool.txt	LTP093	ltpFR	18	13	-1	BEAVER	109	n/a	n/a	-1	n/a	n/a	n/a	n/a	n/a
3127931	REC_WORD	wordpools/wasnorm_wordpool.txt	LTP093	ltpFR	18	13	-1	WHIP	1604	n/a	n/a	-1	n/a	n/a	n/a	n/a	n/a
3128814	REC_WORD	wordpools/wasnorm_wordpool.txt	LTP093	ltpFR	18	13	-1	SALESMAN	1225	n/a	n/a	-1	n/a	n/a	n/a	n/a	n/a
3221845	WORD	wordpools/wasnorm_wordpool.txt	LTP093	ltpFR	18	14	1	TOTE	1487	n/a	n/a	0	0.57763671875	0.412841796875	1	upper	zerothre.ttf
3225845	WORD	wordpools/wasnorm_wordpool.txt	LTP093	ltpFR	18	14	1	FUDGE	611	n/a	n/a	0	0.57763671875	0.412841796875	1	upper	zerothre.ttf
3229978	WORD	wordpools/wasnorm_wordpool.txt	LTP093	ltpFR	18	14	0	TAPIOCA	1434	n/a	n/a	0	0.422607421875	0.5869140625	0	lower	amplitud.ttf
3233869	WORD	wordpools/wasnorm_wordpool.txt	LTP093	ltpFR	18	14	0	WIDOW	1608	n/a	n/a	0	0.422607421875	0.5869140625	0	lower	amplitud.ttf
3237960	WORD	wordpools/wasnorm_wordpool.txt	LTP093	ltpFR	18	14	1	CLAMP	316	n/a	n/a	0	0.57763671875	0.412841796875	1	upper	zerothre.ttf
3241777	WORD	wordpools/wasnorm_wordpool.txt	LTP093	ltpFR	18	14	1	ARTERY	41	n/a	n/a	0	0.57763671875	0.412841796875	1	upper	zerothre.ttf
3245802	WORD	wordpools/wasnorm_wordpool.txt	LTP093	ltpFR	18	14	0	LAGOON	795	n/a	n/a	0	0.422607421875	0.5869140625	0	lower	amplitud.ttf
3249719	WORD	wordpools/wasnorm_wordpool.txt	LTP093	ltpFR	18	14	0	VOLLEYBALL	1576	n/a	n/a	0	0.422607421875	0.5869140625	0	lower	amplitud.ttf
3253834	WORD	wordpools/wasnorm_wordpool.txt	LTP093	ltpFR	18	14	0	CONDUCTOR	362	n/a	n/a	0	0.422607421875	0.5869140625	0	lower	amplitud.ttf
3257801	WORD	wordpools/wasnorm_wordpool.txt	LTP093	ltpFR	18	14	0	NOOSE	956	n/a	n/a	0	0.422607421875	0.5869140625	0	lower	amplitud.ttf
3261734	WORD	wordpools/wasnorm_wordpool.txt	LTP093	ltpFR	18	14	0	BALL	73	n/a	n/a	0	0.422607421875	0.5869140625	0	lower	amplitud.ttf
3265925	WORD	wordpools/wasnorm_wordpool.txt	LTP093	ltpFR	18	14	0	SNACK	1331	n/a	n/a	0	0.422607421875	0.5869140625	0	lower	amplitud.ttf
3270125	WORD	wordpools/wasnorm_wordpool.txt	LTP093	ltpFR	18	14	1	RADISH	1158	n/a	n/a	0	0.57763671875	0.412841796875	1	upper	zerothre.ttf
3274266	WORD	wordpools/wasnorm_wordpool.txt	LTP093	ltpFR	18	14	1	EWE	542	n/a	n/a	1	0.57763671875	0.412841796875	1	upper	zerothre.ttf
3278241	WORD	wordpools/wasnorm_wordpool.txt	LTP093	ltpFR	18	14	1	SHEEP	1278	n/a	n/a	1	0.57763671875	0.412841796875	1	upper	zerothre.ttf
3282124	WORD	wordpools/wasnorm_wordpool.txt	LTP093	ltpFR	18	14	1	TREAD	1499	n/a	n/a	1	0.57763671875	0.412841796875	1	upper	zerothre.ttf
3288007	REC_START	n/a	LTP093	ltpFR	18	14	n/a	n/a	n/a	n/a	n/a	n/a	n/a	n/a	n/a	n/a	n/a
3288521	REC_WORD	wordpools/wasnorm_wordpool.txt	LTP093	ltpFR	18	14	1	TREAD	1499	n/a	n/a	1	n/a	n/a	n/a	n/a	n/a
3289414	REC_WORD	wordpools/wasnorm_wordpool.txt	LTP093	ltpFR	18	14	1	EWE	542	n/a	n/a	1	n/a	n/a	n/a	n/a	n/a
3290232	REC_WORD	wordpools/wasnorm_wordpool.txt	LTP093	ltpFR	18	14	1	SHEEP	1278	n/a	n/a	1	n/a	n/a	n/a	n/a	n/a
3316836	REC_WORD	wordpools/wasnorm_wordpool.txt	LTP093	ltpFR	18	14	1	TOTE	1487	n/a	n/a	0	n/a	n/a	n/a	n/a	n/a
3380559	WORD	wordpools/wasnorm_wordpool.txt	LTP093	ltpFR	18	15	1	MILK	895	n/a	n/a	1	0.57763671875	0.412841796875	1	upper	zerothre.ttf
3384708	WORD	wordpools/wasnorm_wordpool.txt	LTP093	ltpFR	18	15	1	WRITER	1627	n/a	n/a	1	0.57763671875	0.412841796875	1	upper	zerothre.ttf
3388716	WORD	wordpools/wasnorm_wordpool.txt	LTP093	ltpFR	18	15	1	RAG	1160	n/a	n/a	0	0.57763671875	0.412841796875	1	upper	zerothre.ttf
3392882	WORD	wordpools/wasnorm_wordpool.txt	LTP093	ltpFR	18	15	1	PUDDLE	1140	n/a	n/a	0	0.57763671875	0.412841796875	1	upper	zerothre.ttf
3396765	WORD	wordpools/wasnorm_wordpool.txt	LTP093	ltpFR	18	15	1	FROG	608	n/a	n/a	1	0.57763671875	0.412841796875	1	upper	zerothre.ttf
3400914	WORD	wordpools/wasnorm_wordpool.txt	LTP093	ltpFR	18	15	1	CHISEL	305	n/a	n/a	0	0.57763671875	0.412841796875	1	upper	zerothre.ttf
3404922	WORD	wordpools/wasnorm_wordpool.txt	LTP093	ltpFR	18	15	1	BOWL	158	n/a	n/a	n/a	0.57763671875	0.412841796875	1	upper	zerothre.ttf
3407947	SLOW_MSG	n/a	LTP093	ltpFR	18	15	n/a	n/a	n/a	n/a	n/a	n/a	n/a	n/a	n/a	n/a	n/a
3410472	WORD	wordpools/wasnorm_wordpool.txt	LTP093	ltpFR	18	15	1	EMPEROR	529	n/a	n/a	1	0.57763671875	0.412841796875	1	upper	zerothre.ttf
3414656	WORD	wordpools/wasnorm_wordpool.txt	LTP093	ltpFR	18	15	1	PRINCESS	1125	n/a	n/a	1	0.57763671875	0.412841796875	1	upper	zerothre.ttf
3418846	WORD	wordpools/wasnorm_wordpool.txt	LTP093	ltpFR	18	15	1	ARENA	37	n/a	n/a	0	0.57763671875	0.412841796875	1	upper	zerothre.ttf
3423013	WORD	wordpools/wasnorm_wordpool.txt	LTP093	ltpFR	18	15	1	STADIUM	1364	n/a	n/a	0	0.57763671875	0.412841796875	1	upper	zerothre.ttf
3427071	WORD	wordpools/wasnorm_wordpool.txt	LTP093	ltpFR	18	15	1	VEAL	1551	n/a	n/a	1	0.57763671875	0.412841796875	1	upper	zerothre.ttf
3431020	WORD	wordpools/wasnorm_wordpool.txt	LTP093	ltpFR	18	15	1	ASSOCIATE	49	n/a	n/a	0	0.57763671875	0.412841796875	1	upper	zerothre.ttf
3435178	WORD	wordpools/wasnorm_wordpool.txt	LTP093	ltpFR	18	15	1	ASSISTANT	48	n/a	n/a	1	0.57763671875	0.412841796875	1	upper	zerothre.ttf
3439045	WORD	wordpools/wasnorm_wordpool.txt	LTP093	ltpFR	18	15	1	POET	1095	n/a	n/a	1	0.57763671875	0.412841796875	1	upper	zerothre.ttf
3442936	WORD	wordpools/wasnorm_wordpool.txt	LTP093	ltpFR	18	15	1	MANAGER	863	n/a	n/a	1	0.57763671875	0.412841796875	1	upper	zerothre.ttf
3448886	REC_START	n/a	LTP093	ltpFR	18	15	n/a	n/a	n/a	n/a	n/a	n/a	n/a	n/a	n/a	n/a	n/a
3449345	REC_WORD	wordpools/wasnorm_wordpool.txt	LTP093	ltpFR	18	15	1	POET	1095	n/a	n/a	1	n/a	n/a	n/a	n/a	n/a
3450038	REC_WORD	wordpools/wasnorm_wordpool.txt	LTP093	ltpFR	18	15	1	MANAGER	863	n/a	n/a	1	n/a	n/a	n/a	n/a	n/a
3450886	REC_WORD	wordpools/wasnorm_wordpool.txt	LTP093	ltpFR	18	15	1	ASSOCIATE	49	n/a	n/a	0	n/a	n/a	n/a	n/a	n/a
3451834	REC_WORD	wordpools/wasnorm_wordpool.txt	LTP093	ltpFR	18	15	1	ASSISTANT	48	n/a	n/a	1	n/a	n/a	n/a	n/a	n/a
3452957	REC_WORD	wordpools/wasnorm_wordpool.txt	LTP093	ltpFR	18	15	1	PRINCESS	1125	n/a	n/a	1	n/a	n/a	n/a	n/a	n/a
3454179	REC_WORD	wordpools/wasnorm_wordpool.txt	LTP093	ltpFR	18	15	1	BOWL	158	n/a	n/a	n/a	n/a	n/a	n/a	n/a	n/a
3464336	REC_WORD	wordpools/wasnorm_wordpool.txt	LTP093	ltpFR	18	15	1	MILK	895	n/a	n/a	1	n/a	n/a	n/a	n/a	n/a
3488446	REC_WORD	wordpools/wasnorm_wordpool.txt	LTP093	ltpFR	18	15	1	MANAGER	863	n/a	n/a	1	n/a	n/a	n/a	n/a	n/a
3565561	WORD	wordpools/wasnorm_wordpool.txt	LTP093	ltpFR	18	16	-1	SHELF	1280	n/a	n/a	-1	1.0	1.0	1	upper	Verdana.ttf
3569635	WORD	wordpools/wasnorm_wordpool.txt	LTP093	ltpFR	18	16	-1	BULB	192	n/a	n/a	-1	1.0	1.0	1	upper	Verdana.ttf
3573551	WORD	wordpools/wasnorm_wordpool.txt	LTP093	ltpFR	18	16	-1	ULCER	1533	n/a	n/a	-1	1.0	1.0	1	upper	Verdana.ttf
3577409	WORD	wordpools/wasnorm_wordpool.txt	LTP093	ltpFR	18	16	-1	KITE	779	n/a	n/a	-1	1.0	1.0	1	upper	Verdana.ttf
3581342	WORD	wordpools/wasnorm_wordpool.txt	LTP093	ltpFR	18	16	-1	CRUTCH	417	n/a	n/a	-1	1.0	1.0	1	upper	Verdana.ttf
3585175	WORD	wordpools/wasnorm_wordpool.txt	LTP093	ltpFR	18	16	-1	PUBLISHER	1137	n/a	n/a	-1	1.0	1.0	1	upper	Verdana.ttf
3589116	WORD	wordpools/wasnorm_wordpool.txt	LTP093	ltpFR	18	16	-1	CACTUS	215	n/a	n/a	-1	1.0	1.0	1	upper	Verdana.ttf
3593241	WORD	wordpools/wasnorm_wordpool.txt	LTP093	ltpFR	18	16	-1	INFANT	737	n/a	n/a	-1	1.0	1.0	1	upper	Verdana.ttf
3597057	WORD	wordpools/wasnorm_wordpool.txt	LTP093	ltpFR	18	16	-1	GODDESS	646	n/a	n/a	-1	1.0	1.0	1	upper	Verdana.ttf
3601140	WORD	wordpools/wasnorm_wordpool.txt	LTP093	ltpFR	18	16	-1	SPOOL	1356	n/a	n/a	-1	1.0	1.0	1	upper	Verdana.ttf
3605323	WORD	wordpools/wasnorm_wordpool.txt	LTP093	ltpFR	18	16	-1	THORN	1459	n/a	n/a	-1	1.0	1.0	1	upper	Verdana.ttf
3609431	WORD	wordpools/wasnorm_wordpool.txt	LTP093	ltpFR	18	16	-1	PICNIC	1060	n/a	n/a	-1	1.0	1.0	1	upper	Verdana.ttf
3613448	WORD	wordpools/wasnorm_wordpool.txt	LTP093	ltpFR	18	16	-1	RIB	1188	n/a	n/a	-1	1.0	1.0	1	upper	Verdana.ttf
3617431	WORD	wordpools/wasnorm_wordpool.txt	LTP093	ltpFR	18	16	-1	TERMINAL	1450	n/a	n/a	-1	1.0	1.0	1	upper	Verdana.ttf
3621565	WORD	wordpools/wasnorm_wordpool.txt	LTP093	ltpFR	18	16	-1	AIRCRAFT	11	n/a	n/a	-1	1.0	1.0	1	upper	Verdana.ttf
3625648	WORD	wordpools/wasnorm_wordpool.txt	LTP093	ltpFR	18	16	-1	PLANE	1081	n/a	n/a	-1	1.0	1.0	1	upper	Verdana.ttf
3631730	REC_START	n/a	LTP093	ltpFR	18	16	n/a	n/a	n/a	n/a	n/a	n/a	n/a	n/a	n/a	n/a	n/a
3632413	REC_WORD	wordpools/wasnorm_wordpool.txt	LTP093	ltpFR	18	16	-1	AIRCRAFT	11	n/a	n/a	-1	n/a	n/a	n/a	n/a	n/a
3633381	REC_WORD	wordpools/wasnorm_wordpool.txt	LTP093	ltpFR	18	16	-1	PLANE	1081	n/a	n/a	-1	n/a	n/a	n/a	n/a	n/a
3634094	REC_WORD	wordpools/wasnorm_wordpool.txt	LTP093	ltpFR	18	16	-1	SPOOL	1356	n/a	n/a	-1	n/a	n/a	n/a	n/a	n/a
3635736	REC_WORD	wordpools/wasnorm_wordpool.txt	LTP093	ltpFR	18	16	-1	THORN	1459	n/a	n/a	-1	n/a	n/a	n/a	n/a	n/a
3660804	REC_WORD	wordpools/wasnorm_wordpool.txt	LTP093	ltpFR	18	16	-1	SHELF	1280	n/a	n/a	-1	n/a	n/a	n/a	n/a	n/a
3661672	REC_WORD	wordpools/wasnorm_wordpool.txt	LTP093	ltpFR	18	16	-1	KITE	779	n/a	n/a	-1	n/a	n/a	n/a	n/a	n/a
3665159	REC_WORD	wordpools/wasnorm_wordpool.txt	LTP093	ltpFR	18	16	n/a	PUBLIC	-1	n/a	n/a	n/a	n/a	n/a	n/a	n/a	n/a
3668077	REC_WORD	wordpools/wasnorm_wordpool.txt	LTP093	ltpFR	18	16	-1	PUBLISHER	1137	n/a	n/a	-1	n/a	n/a	n/a	n/a	n/a
3674433	REC_WORD	wordpools/wasnorm_wordpool.txt	LTP093	ltpFR	18	16	-1	ULCER	1533	n/a	n/a	-1	n/a	n/a	n/a	n/a	n/a
3722248	REC_START	n/a	LTP093	ltpFR	18	n/a	n/a	n/a	n/a	n/a	n/a	n/a	n/a	n/a	n/a	n/a	n/a
3722886	FFR_REC_WORD	wordpools/wasnorm_wordpool.txt	LTP093	ltpFR	18	n/a	-1	ULCER	1533	n/a	n/a	-1	n/a	n/a	n/a	n/a	n/a
3723909	FFR_REC_WORD	wordpools/wasnorm_wordpool.txt	LTP093	ltpFR	18	n/a	-1	PUBLISHER	1137	n/a	n/a	-1	n/a	n/a	n/a	n/a	n/a
3724987	FFR_REC_WORD	wordpools/wasnorm_wordpool.txt	LTP093	ltpFR	18	n/a	1	PUBLICATION	1136	n/a	n/a	0	n/a	n/a	n/a	n/a	n/a
3727815	FFR_REC_WORD	wordpools/wasnorm_wordpool.txt	LTP093	ltpFR	18	n/a	1	TREAD	1499	n/a	n/a	1	n/a	n/a	n/a	n/a	n/a
3729885	FFR_REC_WORD	wordpools/wasnorm_wordpool.txt	LTP093	ltpFR	18	n/a	-1	STRING	1394	n/a	n/a	-1	n/a	n/a	n/a	n/a	n/a
3731023	FFR_REC_WORD	wordpools/wasnorm_wordpool.txt	LTP093	ltpFR	18	n/a	-1	YARN	1631	n/a	n/a	-1	n/a	n/a	n/a	n/a	n/a
3731841	FFR_REC_WORD	wordpools/wasnorm_wordpool.txt	LTP093	ltpFR	18	n/a	-1	SPOOL	1356	n/a	n/a	-1	n/a	n/a	n/a	n/a	n/a
3734979	FFR_REC_WORD	wordpools/wasnorm_wordpool.txt	LTP093	ltpFR	18	n/a	1	COUGAR	387	n/a	n/a	1	n/a	n/a	n/a	n/a	n/a
3735847	FFR_REC_WORD	wordpools/wasnorm_wordpool.txt	LTP093	ltpFR	18	n/a	1	KITTEN	780	n/a	n/a	1	n/a	n/a	n/a	n/a	n/a
3738296	FFR_REC_WORD	wordpools/wasnorm_wordpool.txt	LTP093	ltpFR	18	n/a	1	ROBIN	1199	n/a	n/a	1	n/a	n/a	n/a	n/a	n/a
3741040	FFR_REC_WORD	wordpools/wasnorm_wordpool.txt	LTP093	ltpFR	18	n/a	1	MANAGER	863	n/a	n/a	1	n/a	n/a	n/a	n/a	n/a
3743400	FFR_REC_WORD	wordpools/wasnorm_wordpool.txt	LTP093	ltpFR	18	n/a	1	WARRIOR	1589	n/a	n/a	1	n/a	n/a	n/a	n/a	n/a
3744692	FFR_REC_WORD	wordpools/wasnorm_wordpool.txt	LTP093	ltpFR	18	n/a	1	DAISY	435	n/a	n/a	1	n/a	n/a	n/a	n/a	n/a
3753143	FFR_REC_WORD	wordpools/wasnorm_wordpool.txt	LTP093	ltpFR	18	n/a	1	TOTE	1487	n/a	n/a	0	n/a	n/a	n/a	n/a	n/a
3753966	FFR_REC_WORD	wordpools/wasnorm_wordpool.txt	LTP093	ltpFR	18	n/a	0	BAY	102	n/a	n/a	0	n/a	n/a	n/a	n/a	n/a
3754704	FFR_REC_WORD	wordpools/wasnorm_wordpool.txt	LTP093	ltpFR	18	n/a	0	OCEAN	970	n/a	n/a	1	n/a	n/a	n/a	n/a	n/a
3755512	FFR_REC_WORD	wordpools/wasnorm_wordpool.txt	LTP093	ltpFR	18	n/a	0	SUBMARINE	1398	n/a	n/a	1	n/a	n/a	n/a	n/a	n/a
3756585	FFR_REC_WORD	wordpools/wasnorm_wordpool.txt	LTP093	ltpFR	18	n/a	0	HERO	706	n/a	n/a	0	n/a	n/a	n/a	n/a	n/a
3789315	FFR_REC_WORD	wordpools/wasnorm_wordpool.txt	LTP093	ltpFR	18	n/a	-1	TOAD	1470	n/a	n/a	-1	n/a	n/a	n/a	n/a	n/a
3791974	FFR_REC_WORD	wordpools/wasnorm_wordpool.txt	LTP093	ltpFR	18	n/a	-1	KANGAROO	768	n/a	n/a	-1	n/a	n/a	n/a	n/a	n/a
3796444	FFR_REC_WORD	wordpools/wasnorm_wordpool.txt	LTP093	ltpFR	18	n/a	1	TREE	1502	n/a	n/a	1	n/a	n/a	n/a	n/a	n/a
3797377	FFR_REC_WORD	wordpools/wasnorm_wordpool.txt	LTP093	ltpFR	18	n/a	0	BRANCH	168	n/a	n/a	0	n/a	n/a	n/a	n/a	n/a
3801747	FFR_REC_WORD	wordpools/wasnorm_wordpool.txt	LTP093	ltpFR	18	n/a	1	BUTTERFLY	206	n/a	n/a	1	n/a	n/a	n/a	n/a	n/a
3802430	FFR_REC_WORD	wordpools/wasnorm_wordpool.txt	LTP093	ltpFR	18	n/a	1	MOSQUITO	917	n/a	n/a	1	n/a	n/a	n/a	n/a	n/a
3816524	FFR_REC_WORD	wordpools/wasnorm_wordpool.txt	LTP093	ltpFR	18	n/a	-1	SHELF	1280	n/a	n/a	-1	n/a	n/a	n/a	n/a	n/a
3817262	FFR_REC_WORD	wordpools/wasnorm_wordpool.txt	LTP093	ltpFR	18	n/a	-1	KITE	779	n/a	n/a	-1	n/a	n/a	n/a	n/a	n/a
3820215	FFR_REC_WORD	wordpools/wasnorm_wordpool.txt	LTP093	ltpFR	18	n/a	1	CHECK	284	n/a	n/a	0	n/a	n/a	n/a	n/a	n/a
3829205	FFR_REC_WORD	wordpools/wasnorm_wordpool.txt	LTP093	ltpFR	18	n/a	1	BOWL	158	n/a	n/a	n/a	n/a	n/a	n/a	n/a	n/a
3829918	FFR_REC_WORD	wordpools/wasnorm_wordpool.txt	LTP093	ltpFR	18	n/a	1	CHAMBER	277	n/a	n/a	0	n/a	n/a	n/a	n/a	n/a
3832702	FFR_REC_WORD	wordpools/wasnorm_wordpool.txt	LTP093	ltpFR	18	n/a	-1	HERB	704	n/a	n/a	-1	n/a	n/a	n/a	n/a	n/a
3888819	FFR_REC_WORD	wordpools/wasnorm_wordpool.txt	LTP093	ltpFR	18	n/a	1	FURNITURE	616	n/a	n/a	0	n/a	n/a	n/a	n/a	n/a
3891882	FFR_REC_WORD	wordpools/wasnorm_wordpool.txt	LTP093	ltpFR	18	n/a	0	KLEENEX	782	n/a	n/a	0	n/a	n/a	n/a	n/a	n/a
3901875	FFR_REC_WORD	wordpools/wasnorm_wordpool.txt	LTP093	ltpFR	18	n/a	0	PAGE	1001	n/a	n/a	0	n/a	n/a	n/a	n/a	n/a
3902518	FFR_REC_WORD	wordpools/wasnorm_wordpool.txt	LTP093	ltpFR	18	n/a	0	PRINTER	1126	n/a	n/a	0	n/a	n/a	n/a	n/a	n/a
3905621	FFR_REC_WORD	wordpools/wasnorm_wordpool.txt	LTP093	ltpFR	18	n/a	0	NAPKIN	937	n/a	n/a	0	n/a	n/a	n/a	n/a	n/a
3915738	FFR_REC_WORD	wordpools/wasnorm_wordpool.txt	LTP093	ltpFR	18	n/a	1	SOLDIER	1344	n/a	n/a	0	n/a	n/a	n/a	n/a	n/a
3918073	FFR_REC_WORD	wordpools/wasnorm_wordpool.txt	LTP093	ltpFR	18	n/a	1	SOLDIER	1344	n/a	n/a	0	n/a	n/a	n/a	n/a	n/a
3918906	FFR_REC_WORD	wordpools/wasnorm_wordpool.txt	LTP093	ltpFR	18	n/a	0	FLEET	578	n/a	n/a	0	n/a	n/a	n/a	n/a	n/a
3923620	FFR_REC_WORD	wordpools/wasnorm_wordpool.txt	LTP093	ltpFR	18	n/a	1	BRICK	172	n/a	n/a	0	n/a	n/a	n/a	n/a	n/a
4041082	REC_START	n/a	LTP093	ltpFR	18	1	n/a	n/a	n/a	n/a	n/a	n/a	n/a	n/a	n/a	n/a	n/a
4041114	RECOG_TARGET	n/a	LTP093	ltpFR	18	1	1	TREE	1502	1	5	1	n/a	n/a	n/a	n/a	n/a
4042309	RECOG_RESP	n/a	LTP093	ltpFR	18	1	1	TREE	1502	1	n/a	1	n/a	n/a	n/a	n/a	n/a
4044729	RECOG_CONF	n/a	LTP093	ltpFR	18	1	1	TREE	1502	n/a	5	1	n/a	n/a	n/a	n/a	n/a
4046455	RECOG_TARGET	n/a	LTP093	ltpFR	18	1	-1	RATTLE	1170	1	5	-1	n/a	n/a	n/a	n/a	n/a
4047143	RECOG_RESP	n/a	LTP093	ltpFR	18	1	-1	RATTLE	1170	1	n/a	-1	n/a	n/a	n/a	n/a	n/a
4048091	RECOG_CONF	n/a	LTP093	ltpFR	18	1	-1	RATTLE	1170	n/a	5	-1	n/a	n/a	n/a	n/a	n/a
4049347	RECOG_TARGET	n/a	LTP093	ltpFR	18	1	0	ANTELOPE	27	1	5	1	n/a	n/a	n/a	n/a	n/a
4049927	RECOG_RESP	n/a	LTP093	ltpFR	18	1	0	ANTELOPE	27	1	n/a	1	n/a	n/a	n/a	n/a	n/a
4050595	RECOG_CONF	n/a	LTP093	ltpFR	18	1	0	ANTELOPE	27	n/a	5	1	n/a	n/a	n/a	n/a	n/a
4052013	RECOG_TARGET	n/a	LTP093	ltpFR	18	1	-1	ULCER	1533	1	5	-1	n/a	n/a	n/a	n/a	n/a
4052586	RECOG_RESP	n/a	LTP093	ltpFR	18	1	-1	ULCER	1533	1	n/a	-1	n/a	n/a	n/a	n/a	n/a
4053249	RECOG_CONF	n/a	LTP093	ltpFR	18	1	-1	ULCER	1533	n/a	5	-1	n/a	n/a	n/a	n/a	n/a
4054664	RECOG_TARGET	n/a	LTP093	ltpFR	18	1	0	PHOTO	1055	0	4	0	n/a	n/a	n/a	n/a	n/a
4055404	RECOG_RESP	n/a	LTP093	ltpFR	18	1	0	PHOTO	1055	0	n/a	0	n/a	n/a	n/a	n/a	n/a
4056202	RECOG_CONF	n/a	LTP093	ltpFR	18	1	0	PHOTO	1055	n/a	4	0	n/a	n/a	n/a	n/a	n/a
4057564	RECOG_TARGET	n/a	LTP093	ltpFR	18	1	-1	DICE	461	1	5	-1	n/a	n/a	n/a	n/a	n/a
4058168	RECOG_RESP	n/a	LTP093	ltpFR	18	1	-1	DICE	461	1	n/a	-1	n/a	n/a	n/a	n/a	n/a
4058936	RECOG_CONF	n/a	LTP093	ltpFR	18	1	-1	DICE	461	n/a	5	-1	n/a	n/a	n/a	n/a	n/a
4060338	RECOG_TARGET	n/a	LTP093	ltpFR	18	1	-1	SPICE	1350	1	5	-1	n/a	n/a	n/a	n/a	n/a
4060892	RECOG_RESP	n/a	LTP093	ltpFR	18	1	-1	SPICE	1350	1	n/a	-1	n/a	n/a	n/a	n/a	n/a
4061500	RECOG_CONF	n/a	LTP093	ltpFR	18	1	-1	SPICE	1350	n/a	5	-1	n/a	n/a	n/a	n/a	n/a
4062946	RECOG_LURE	n/a	LTP093	ltpFR	18	1	n/a	HEATER	698	0	4	n/a	n/a	n/a	n/a	n/a	n/a
4063670	RECOG_RESP	n/a	LTP093	ltpFR	18	1	n/a	HEATER	698	0	n/a	n/a	n/a	n/a	n/a	n/a	n/a
4064274	RECOG_CONF	n/a	LTP093	ltpFR	18	1	n/a	HEATER	698	n/a	4	n/a	n/a	n/a	n/a	n/a	n/a
4065646	RECOG_LURE	n/a	LTP093	ltpFR	18	1	n/a	COYOTE	396	0	4	n/a	n/a	n/a	n/a	n/a	n/a
4066394	RECOG_RESP	n/a	LTP093	ltpFR	18	1	n/a	COYOTE	396	0	n/a	n/a	n/a	n/a	n/a	n/a	n/a
4066998	RECOG_CONF	n/a	LTP093	ltpFR	18	1	n/a	COYOTE	396	n/a	4	n/a	n/a	n/a	n/a	n/a	n/a
4068487	RECOG_LURE	n/a	LTP093	ltpFR	18	1	n/a	SWATTER	1418	0	4	n/a	n/a	n/a	n/a	n/a	n/a
4069318	RECOG_RESP	n/a	LTP093	ltpFR	18	1	n/a	SWATTER	1418	0	n/a	n/a	n/a	n/a	n/a	n/a	n/a
4069861	RECOG_CONF	n/a	LTP093	ltpFR	18	1	n/a	SWATTER	1418	n/a	4	n/a	n/a	n/a	n/a	n/a	n/a
4072688	RECOG_TARGET	n/a	LTP093	ltpFR	18	1	-1	HAY	693	1	3	-1	n/a	n/a	n/a	n/a	n/a
4074965	RECOG_RESP	n/a	LTP093	ltpFR	18	1	-1	HAY	693	1	n/a	-1	n/a	n/a	n/a	n/a	n/a
4076257	RECOG_CONF	n/a	LTP093	ltpFR	18	1	-1	HAY	693	n/a	3	-1	n/a	n/a	n/a	n/a	n/a
4077761	RECOG_TARGET	n/a	LTP093	ltpFR	18	1	-1	STRING	1394	1	5	-1	n/a	n/a	n/a	n/a	n/a
4078756	RECOG_RESP	n/a	LTP093	ltpFR	18	1	-1	STRING	1394	1	n/a	-1	n/a	n/a	n/a	n/a	n/a
4080018	RECOG_CONF	n/a	LTP093	ltpFR	18	1	-1	STRING	1394	n/a	5	-1	n/a	n/a	n/a	n/a	n/a
4081403	RECOG_TARGET	n/a	LTP093	ltpFR	18	1	1	PENDULUM	1043	1	5	0	n/a	n/a	n/a	n/a	n/a
4082138	RECOG_RESP	n/a	LTP093	ltpFR	18	1	1	PENDULUM	1043	1	n/a	0	n/a	n/a	n/a	n/a	n/a
4082932	RECOG_CONF	n/a	LTP093	ltpFR	18	1	1	PENDULUM	1043	n/a	5	0	n/a	n/a	n/a	n/a	n/a
4084202	RECOG_TARGET	n/a	LTP093	ltpFR	18	1	-1	ONION	977	1	5	-1	n/a	n/a	n/a	n/a	n/a
4084977	RECOG_RESP	n/a	LTP093	ltpFR	18	1	-1	ONION	977	1	n/a	-1	n/a	n/a	n/a	n/a	n/a
4085725	RECOG_CONF	n/a	LTP093	ltpFR	18	1	-1	ONION	977	n/a	5	-1	n/a	n/a	n/a	n/a	n/a
4087194	RECOG_TARGET	n/a	LTP093	ltpFR	18	1	0	CHAUFFEUR	283	1	5	0	n/a	n/a	n/a	n/a	n/a
4087851	RECOG_RESP	n/a	LTP093	ltpFR	18	1	0	CHAUFFEUR	283	1	n/a	0	n/a	n/a	n/a	n/a	n/a
4088659	RECOG_CONF	n/a	LTP093	ltpFR	18	1	0	CHAUFFEUR	283	n/a	5	0	n/a	n/a	n/a	n/a	n/a
4090027	RECOG_TARGET	n/a	LTP093	ltpFR	18	1	0	LITERATURE	831	0	4	0	n/a	n/a	n/a	n/a	n/a
4090774	RECOG_RESP	n/a	LTP093	ltpFR	18	1	0	LITERATURE	831	0	n/a	0	n/a	n/a	n/a	n/a	n/a
4091552	RECOG_CONF	n/a	LTP093	ltpFR	18	1	0	LITERATURE	831	n/a	4	0	n/a	n/a	n/a	n/a	n/a
4092835	RECOG_TARGET	n/a	LTP093	ltpFR	18	1	0	MAPLE	866	1	5	0	n/a	n/a	n/a	n/a	n/a
4093493	RECOG_RESP	n/a	LTP093	ltpFR	18	1	0	MAPLE	866	1	n/a	0	n/a	n/a	n/a	n/a	n/a
4094176	RECOG_CONF	n/a	LTP093	ltpFR	18	1	0	MAPLE	866	n/a	5	0	n/a	n/a	n/a	n/a	n/a
4095636	RECOG_TARGET	n/a	LTP093	ltpFR	18	1	1	FUGITIVE	612	1	5	1	n/a	n/a	n/a	n/a	n/a
4096271	RECOG_RESP	n/a	LTP093	ltpFR	18	1	1	FUGITIVE	612	1	n/a	1	n/a	n/a	n/a	n/a	n/a
4096990	RECOG_CONF	n/a	LTP093	ltpFR	18	1	1	FUGITIVE	612	n/a	5	1	n/a	n/a	n/a	n/a	n/a
4098318	RECOG_TARGET	n/a	LTP093	ltpFR	18	1	-1	CANVAS	234	1	5	-1	n/a	n/a	n/a	n/a	n/a
4098925	RECOG_RESP	n/a	LTP093	ltpFR	18	1	-1	CANVAS	234	1	n/a	-1	n/a	n/a	n/a	n/a	n/a
4099564	RECOG_CONF	n/a	LTP093	ltpFR	18	1	-1	CANVAS	234	n/a	5	-1	n/a	n/a	n/a	n/a	n/a
4100876	RECOG_LURE	n/a	LTP093	ltpFR	18	1	n/a	EAR	513	0	4	n/a	n/a	n/a	n/a	n/a	n/a
4101539	RECOG_RESP	n/a	LTP093	ltpFR	18	1	n/a	EAR	513	0	n/a	n/a	n/a	n/a	n/a	n/a	n/a
4102118	RECOG_CONF	n/a	LTP093	ltpFR	18	1	n/a	EAR	513	n/a	4	n/a	n/a	n/a	n/a	n/a	n/a
4111369	REC_START	n/a	LTP093	ltpFR	18	2	n/a	n/a	n/a	n/a	n/a	n/a	n/a	n/a	n/a	n/a	n/a
4111400	RECOG_LURE	n/a	LTP093	ltpFR	18	2	n/a	SALIVA	1226	0	4	n/a	n/a	n/a	n/a	n/a	n/a
4112282	RECOG_RESP	n/a	LTP093	ltpFR	18	2	n/a	SALIVA	1226	0	n/a	n/a	n/a	n/a	n/a	n/a	n/a
4113050	RECOG_CONF	n/a	LTP093	ltpFR	18	2	n/a	SALIVA	1226	n/a	4	n/a	n/a	n/a	n/a	n/a	n/a
4114325	RECOG_TARGET	n/a	LTP093	ltpFR	18	2	0	TIMBER	1469	1	5	1	n/a	n/a	n/a	n/a	n/a
4115021	RECOG_RESP	n/a	LTP093	ltpFR	18	2	0	TIMBER	1469	1	n/a	1	n/a	n/a	n/a	n/a	n/a
4115734	RECOG_CONF	n/a	LTP093	ltpFR	18	2	0	TIMBER	1469	n/a	5	1	n/a	n/a	n/a	n/a	n/a
4117075	RECOG_TARGET	n/a	LTP093	ltpFR	18	2	1	SIDING	1304	1	5	0	n/a	n/a	n/a	n/a	n/a
4117645	RECOG_RESP	n/a	LTP093	ltpFR	18	2	1	SIDING	1304	1	n/a	0	n/a	n/a	n/a	n/a	n/a
4118338	RECOG_CONF	n/a	LTP093	ltpFR	18	2	1	SIDING	1304	n/a	5	0	n/a	n/a	n/a	n/a	n/a
4119609	RECOG_LURE	n/a	LTP093	ltpFR	18	2	n/a	LIMOUSINE	824	0	4	n/a	n/a	n/a	n/a	n/a	n/a
4120184	RECOG_RESP	n/a	LTP093	ltpFR	18	2	n/a	LIMOUSINE	824	0	n/a	n/a	n/a	n/a	n/a	n/a	n/a
4120912	RECOG_CONF	n/a	LTP093	ltpFR	18	2	n/a	LIMOUSINE	824	n/a	4	n/a	n/a	n/a	n/a	n/a	n/a
4122199	RECOG_TARGET	n/a	LTP093	ltpFR	18	2	1	SIBLING	1301	1	3	1	n/a	n/a	n/a	n/a	n/a
4122833	RECOG_RESP_VV	n/a	LTP093	ltpFR	18	2	1	SIBLING	1301	0	n/a	1	n/a	n/a	n/a	n/a	n/a
4130396	RECOG_RESP	n/a	LTP093	ltpFR	18	2	1	SIBLING	1301	1	n/a	1	n/a	n/a	n/a	n/a	n/a
4131877	RECOG_CONF	n/a	LTP093	ltpFR	18	2	1	SIBLING	1301	n/a	3	1	n/a	n/a	n/a	n/a	n/a
4133498	RECOG_LURE	n/a	LTP093	ltpFR	18	2	n/a	NUT	965	0	4	n/a	n/a	n/a	n/a	n/a	n/a
4134247	RECOG_RESP	n/a	LTP093	ltpFR	18	2	n/a	NUT	965	0	n/a	n/a	n/a	n/a	n/a	n/a	n/a
4134870	RECOG_CONF	n/a	LTP093	ltpFR	18	2	n/a	NUT	965	n/a	4	n/a	n/a	n/a	n/a	n/a	n/a
4136307	RECOG_TARGET	n/a	LTP093	ltpFR	18	2	-1	ENGINE	535	1	5	-1	n/a	n/a	n/a	n/a	n/a
4136901	RECOG_RESP	n/a	LTP093	ltpFR	18	2	-1	ENGINE	535	1	n/a	-1	n/a	n/a	n/a	n/a	n/a
4137484	RECOG_CONF	n/a	LTP093	ltpFR	18	2	-1	ENGINE	535	n/a	5	-1	n/a	n/a	n/a	n/a	n/a
4138940	RECOG_TARGET	n/a	LTP093	ltpFR	18	2	-1	CURB	426	1	n/a	-1	n/a	n/a	n/a	n/a	n/a
4139847	RECOG_RESP_VV	n/a	LTP093	ltpFR	18	2	-1	CURB	426	0	n/a	-1	n/a	n/a	n/a	n/a	n/a
4140727	RECOG_RESP	n/a	LTP093	ltpFR	18	2	-1	CURB	426	1	n/a	-1	n/a	n/a	n/a	n/a	n/a
4142189	RECOG_TARGET	n/a	LTP093	ltpFR	18	2	1	VEAL	1551	1	5	1	n/a	n/a	n/a	n/a	n/a
4142817	RECOG_RESP	n/a	LTP093	ltpFR	18	2	1	VEAL	1551	1	n/a	1	n/a	n/a	n/a	n/a	n/a
4143396	RECOG_CONF	n/a	LTP093	ltpFR	18	2	1	VEAL	1551	n/a	5	1	n/a	n/a	n/a	n/a	n/a
4144707	RECOG_TARGET	n/a	LTP093	ltpFR	18	2	-1	GUN	673	1	5	-1	n/a	n/a	n/a	n/a	n/a
4145501	RECOG_RESP	n/a	LTP093	ltpFR	18	2	-1	GUN	673	1	n/a	-1	n/a	n/a	n/a	n/a	n/a
4146095	RECOG_CONF	n/a	LTP093	ltpFR	18	2	-1	GUN	673	n/a	5	-1	n/a	n/a	n/a	n/a	n/a
4147347	RECOG_LURE	n/a	LTP093	ltpFR	18	2	n/a	MOTEL	919	0	4	n/a	n/a	n/a	n/a	n/a	n/a
4148016	RECOG_RESP	n/a	LTP093	ltpFR	18	2	n/a	MOTEL	919	0	n/a	n/a	n/a	n/a	n/a	n/a	n/a
4148450	RECOG_CONF	n/a	LTP093	ltpFR	18	2	n/a	MOTEL	919	n/a	4	n/a	n/a	n/a	n/a	n/a	n/a
4149781	RECOG_TARGET	n/a	LTP093	ltpFR	18	2	0	CHEST	295	1	5	0	n/a	n/a	n/a	n/a	n/a
4150480	RECOG_RESP	n/a	LTP093	ltpFR	18	2	0	CHEST	295	1	n/a	0	n/a	n/a	n/a	n/a	n/a
4151163	RECOG_CONF	n/a	LTP093	ltpFR	18	2	0	CHEST	295	n/a	5	0	n/a	n/a	n/a	n/a	n/a
4152505	RECOG_TARGET	n/a	LTP093	ltpFR	18	2	-1	SHELF	1280	1	5	-1	n/a	n/a	n/a	n/a	n/a
4153139	RECOG_RESP	n/a	LTP093	ltpFR	18	2	-1	SHELF	1280	1	n/a	-1	n/a	n/a	n/a	n/a	n/a
4153698	RECOG_CONF	n/a	LTP093	ltpFR	18	2	-1	SHELF	1280	n/a	5	-1	n/a	n/a	n/a	n/a	n/a
4154997	RECOG_LURE	n/a	LTP093	ltpFR	18	2	n/a	BUGGY	188	0	4	n/a	n/a	n/a	n/a	n/a	n/a
4155713	RECOG_RESP	n/a	LTP093	ltpFR	18	2	n/a	BUGGY	188	0	n/a	n/a	n/a	n/a	n/a	n/a	n/a
4156112	RECOG_CONF	n/a	LTP093	ltpFR	18	2	n/a	BUGGY	188	n/a	4	n/a	n/a	n/a	n/a	n/a	n/a
4157639	RECOG_TARGET	n/a	LTP093	ltpFR	18	2	1	STREAM	1392	1	5	0	n/a	n/a	n/a	n/a	n/a
4158357	RECOG_RESP	n/a	LTP093	ltpFR	18	2	1	STREAM	1392	1	n/a	0	n/a	n/a	n/a	n/a	n/a
4158913	RECOG_CONF	n/a	LTP093	ltpFR	18	2	1	STREAM	1392	n/a	5	0	n/a	n/a	n/a	n/a	n/a
4160672	RECOG_TARGET	n/a	LTP093	ltpFR	18	2	1	RADISH	1158	1	5	0	n/a	n/a	n/a	n/a	n/a
4161310	RECOG_RESP	n/a	LTP093	ltpFR	18	2	1	RADISH	1158	1	n/a	0	n/a	n/a	n/a	n/a	n/a
4161949	RECOG_CONF	n/a	LTP093	ltpFR	18	2	1	RADISH	1158	n/a	5	0	n/a	n/a	n/a	n/a	n/a
4163155	RECOG_LURE	n/a	LTP093	ltpFR	18	2	n/a	WAIST	1579	0	4	n/a	n/a	n/a	n/a	n/a	n/a
4163730	RECOG_RESP	n/a	LTP093	ltpFR	18	2	n/a	WAIST	1579	0	n/a	n/a	n/a	n/a	n/a	n/a	n/a
4164194	RECOG_CONF	n/a	LTP093	ltpFR	18	2	n/a	WAIST	1579	n/a	4	n/a	n/a	n/a	n/a	n/a	n/a
4165655	RECOG_LURE	n/a	LTP093	ltpFR	18	2	n/a	CUPBOARD	425	0	4	n/a	n/a	n/a	n/a	n/a	n/a
4166274	RECOG_RESP	n/a	LTP093	ltpFR	18	2	n/a	CUPBOARD	425	0	n/a	n/a	n/a	n/a	n/a	n/a	n/a
4166957	RECOG_CONF	n/a	LTP093	ltpFR	18	2	n/a	CUPBOARD	425	n/a	4	n/a	n/a	n/a	n/a	n/a	n/a
4168221	RECOG_TARGET	n/a	LTP093	ltpFR	18	2	1	OVAL	990	1	5	2	n/a	n/a	n/a	n/a	n/a
4168863	RECOG_RESP	n/a	LTP093	ltpFR	18	2	1	OVAL	990	1	n/a	2	n/a	n/a	n/a	n/a	n/a
4169415	RECOG_CONF	n/a	LTP093	ltpFR	18	2	1	OVAL	990	n/a	5	2	n/a	n/a	n/a	n/a	n/a
4170722	RECOG_LURE	n/a	LTP093	ltpFR	18	2	n/a	TAVERN	1437	0	4	n/a	n/a	n/a	n/a	n/a	n/a
4171303	RECOG_RESP	n/a	LTP093	ltpFR	18	2	n/a	TAVERN	1437	0	n/a	n/a	n/a	n/a	n/a	n/a	n/a
4171916	RECOG_CONF	n/a	LTP093	ltpFR	18	2	n/a	TAVERN	1437	n/a	4	n/a	n/a	n/a	n/a	n/a	n/a
4216573	REC_START	n/a	LTP093	ltpFR	18	3	n/a	n/a	n/a	n/a	n/a	n/a	n/a	n/a	n/a	n/a	n/a
4216610	RECOG_TARGET	n/a	LTP093	ltpFR	18	3	0	BRIDGE	174	1	5	0	n/a	n/a	n/a	n/a	n/a
4217366	RECOG_RESP	n/a	LTP093	ltpFR	18	3	0	BRIDGE	174	1	n/a	0	n/a	n/a	n/a	n/a	n/a
4217907	RECOG_CONF	n/a	LTP093	ltpFR	18	3	0	BRIDGE	174	n/a	5	0	n/a	n/a	n/a	n/a	n/a
4219400	RECOG_TARGET	n/a	LTP093	ltpFR	18	3	1	CHAMBER	277	0	1	0	n/a	n/a	n/a	n/a	n/a
4219950	RECOG_RESP	n/a	LTP093	ltpFR	18	3	1	CHAMBER	277	0	n/a	0	n/a	n/a	n/a	n/a	n/a
4221018	RECOG_CONF	n/a	LTP093	ltpFR	18	3	1	CHAMBER	277	n/a	1	0	n/a	n/a	n/a	n/a	n/a
4222676	RECOG_LURE	n/a	LTP093	ltpFR	18	3	n/a	CLAW	319	0	4	n/a	n/a	n/a	n/a	n/a	n/a
4223492	RECOG_RESP	n/a	LTP093	ltpFR	18	3	n/a	CLAW	319	0	n/a	n/a	n/a	n/a	n/a	n/a	n/a
4223991	RECOG_CONF	n/a	LTP093	ltpFR	18	3	n/a	CLAW	319	n/a	4	n/a	n/a	n/a	n/a	n/a	n/a
4225391	RECOG_LURE	n/a	LTP093	ltpFR	18	3	n/a	CONVICT	371	0	4	n/a	n/a	n/a	n/a	n/a	n/a
4227638	RECOG_RESP	n/a	LTP093	ltpFR	18	3	n/a	CONVICT	371	0	n/a	n/a	n/a	n/a	n/a	n/a	n/a
4228351	RECOG_CONF	n/a	LTP093	ltpFR	18	3	n/a	CONVICT	371	n/a	4	n/a	n/a	n/a	n/a	n/a	n/a
4229808	RECOG_TARGET	n/a	LTP093	ltpFR	18	3	0	WOLF	1619	1	5	0	n/a	n/a	n/a	n/a	n/a
4230381	RECOG_RESP	n/a	LTP093	ltpFR	18	3	0	WOLF	1619	1	n/a	0	n/a	n/a	n/a	n/a	n/a
4230845	RECOG_CONF	n/a	LTP093	ltpFR	18	3	0	WOLF	1619	n/a	5	0	n/a	n/a	n/a	n/a	n/a
4232216	RECOG_TARGET	n/a	LTP093	ltpFR	18	3	1	STRAW	1390	1	5	1	n/a	n/a	n/a	n/a	n/a
4232736	RECOG_RESP	n/a	LTP093	ltpFR	18	3	1	STRAW	1390	1	n/a	1	n/a	n/a	n/a	n/a	n/a
4233172	RECOG_CONF	n/a	LTP093	ltpFR	18	3	1	STRAW	1390	n/a	5	1	n/a	n/a	n/a	n/a	n/a
4234507	RECOG_TARGET	n/a	LTP093	ltpFR	18	3	1	BALLERINA	74	1	5	1	n/a	n/a	n/a	n/a	n/a
4235106	RECOG_RESP_VV	n/a	LTP093	ltpFR	18	3	1	BALLERINA	74	0	n/a	1	n/a	n/a	n/a	n/a	n/a
4235490	RECOG_RESP	n/a	LTP093	ltpFR	18	3	1	BALLERINA	74	1	n/a	1	n/a	n/a	n/a	n/a	n/a
4236014	RECOG_CONF	n/a	LTP093	ltpFR	18	3	1	BALLERINA	74	n/a	5	1	n/a	n/a	n/a	n/a	n/a
4237365	RECOG_TARGET	n/a	LTP093	ltpFR	18	3	0	BRANCH	168	1	5	0	n/a	n/a	n/a	n/a	n/a
4237969	RECOG_RESP	n/a	LTP093	ltpFR	18	3	0	BRANCH	168	1	n/a	0	n/a	n/a	n/a	n/a	n/a
4238482	RECOG_CONF	n/a	LTP093	ltpFR	18	3	0	BRANCH	168	n/a	5	0	n/a	n/a	n/a	n/a	n/a
4239782	RECOG_TARGET	n/a	LTP093	ltpFR	18	3	0	TAG	1429	1	5	0	n/a	n/a	n/a	n/a	n/a
4240314	RECOG_RESP	n/a	LTP093	ltpFR	18	3	0	TAG	1429	1	n/a	0	n/a	n/a	n/a	n/a	n/a
4240800	RECOG_CONF	n/a	LTP093	ltpFR	18	3	0	TAG	1429	n/a	5	0	n/a	n/a	n/a	n/a	n/a
4242073	RECOG_TARGET	n/a	LTP093	ltpFR	18	3	1	BEET	115	1	5	1	n/a	n/a	n/a	n/a	n/a
4242728	RECOG_RESP_VV	n/a	LTP093	ltpFR	18	3	1	BEET	115	0	n/a	1	n/a	n/a	n/a	n/a	n/a
4243866	RECOG_RESP	n/a	LTP093	ltpFR	18	3	1	BEET	115	1	n/a	1	n/a	n/a	n/a	n/a	n/a
4244474	RECOG_CONF	n/a	LTP093	ltpFR	18	3	1	BEET	115	n/a	5	1	n/a	n/a	n/a	n/a	n/a
4245756	RECOG_LURE	n/a	LTP093	ltpFR	18	3	n/a	WRENCH	1625	0	4	n/a	n/a	n/a	n/a	n/a	n/a
4246654	RECOG_RESP	n/a	LTP093	ltpFR	18	3	n/a	WRENCH	1625	0	n/a	n/a	n/a	n/a	n/a	n/a	n/a
4247258	RECOG_CONF	n/a	LTP093	ltpFR	18	3	n/a	WRENCH	1625	n/a	4	n/a	n/a	n/a	n/a	n/a	n/a
4248440	RECOG_TARGET	n/a	LTP093	ltpFR	18	3	0	SNACK	1331	1	5	0	n/a	n/a	n/a	n/a	n/a
4249129	RECOG_RESP	n/a	LTP093	ltpFR	18	3	0	SNACK	1331	1	n/a	0	n/a	n/a	n/a	n/a	n/a
4249583	RECOG_CONF	n/a	LTP093	ltpFR	18	3	0	SNACK	1331	n/a	5	0	n/a	n/a	n/a	n/a	n/a
4251014	RECOG_LURE	n/a	LTP093	ltpFR	18	3	n/a	GOWN	652	0	4	n/a	n/a	n/a	n/a	n/a	n/a
4251663	RECOG_RESP_VV	n/a	LTP093	ltpFR	18	3	n/a	GOWN	652	1	n/a	n/a	n/a	n/a	n/a	n/a	n/a
4252297	RECOG_RESP	n/a	LTP093	ltpFR	18	3	n/a	GOWN	652	0	n/a	n/a	n/a	n/a	n/a	n/a	n/a
4252845	RECOG_CONF	n/a	LTP093	ltpFR	18	3	n/a	GOWN	652	n/a	4	n/a	n/a	n/a	n/a	n/a	n/a
4254156	RECOG_TARGET	n/a	LTP093	ltpFR	18	3	0	VOLLEYBALL	1576	1	5	0	n/a	n/a	n/a	n/a	n/a
4254886	RECOG_RESP	n/a	LTP093	ltpFR	18	3	0	VOLLEYBALL	1576	1	n/a	0	n/a	n/a	n/a	n/a	n/a
4255422	RECOG_CONF	n/a	LTP093	ltpFR	18	3	0	VOLLEYBALL	1576	n/a	5	0	n/a	n/a	n/a	n/a	n/a
4256606	RECOG_LURE	n/a	LTP093	ltpFR	18	3	n/a	SIGN	1305	1	5	n/a	n/a	n/a	n/a	n/a	n/a
4257230	RECOG_RESP	n/a	LTP093	ltpFR	18	3	n/a	SIGN	1305	1	n/a	n/a	n/a	n/a	n/a	n/a	n/a
4257619	RECOG_CONF	n/a	LTP093	ltpFR	18	3	n/a	SIGN	1305	n/a	5	n/a	n/a	n/a	n/a	n/a	n/a
4258989	RECOG_TARGET	n/a	LTP093	ltpFR	18	3	0	POSTAGE	1113	1	5	0	n/a	n/a	n/a	n/a	n/a
4259635	RECOG_RESP	n/a	LTP093	ltpFR	18	3	0	POSTAGE	1113	1	n/a	0	n/a	n/a	n/a	n/a	n/a
4260169	RECOG_CONF	n/a	LTP093	ltpFR	18	3	0	POSTAGE	1113	n/a	5	0	n/a	n/a	n/a	n/a	n/a
4261330	RECOG_LURE	n/a	LTP093	ltpFR	18	3	n/a	MEAL	882	0	4	n/a	n/a	n/a	n/a	n/a	n/a
4262039	RECOG_RESP	n/a	LTP093	ltpFR	18	3	n/a	MEAL	882	0	n/a	n/a	n/a	n/a	n/a	n/a	n/a
4262503	RECOG_CONF	n/a	LTP093	ltpFR	18	3	n/a	MEAL	882	n/a	4	n/a	n/a	n/a	n/a	n/a	n/a
4263714	RECOG_TARGET	n/a	LTP093	ltpFR	18	3	1	STADIUM	1364	1	5	0	n/a	n/a	n/a	n/a	n/a
4265152	RECOG_RESP	n/a	LTP093	ltpFR	18	3	1	STADIUM	1364	1	n/a	0	n/a	n/a	n/a	n/a	n/a
4265615	RECOG_CONF	n/a	LTP093	ltpFR	18	3	1	STADIUM	1364	n/a	5	0	n/a	n/a	n/a	n/a	n/a
4267130	RECOG_LURE	n/a	LTP093	ltpFR	18	3	n/a	GIFT	635	0	4	n/a	n/a	n/a	n/a	n/a	n/a
4267702	RECOG_RESP	n/a	LTP093	ltpFR	18	3	n/a	GIFT	635	0	n/a	n/a	n/a	n/a	n/a	n/a	n/a
4268172	RECOG_CONF	n/a	LTP093	ltpFR	18	3	n/a	GIFT	635	n/a	4	n/a	n/a	n/a	n/a	n/a	n/a
4269622	RECOG_TARGET	n/a	LTP093	ltpFR	18	3	1	DAISY	435	1	5	1	n/a	n/a	n/a	n/a	n/a
4270306	RECOG_RESP	n/a	LTP093	ltpFR	18	3	1	DAISY	435	1	n/a	1	n/a	n/a	n/a	n/a	n/a
4271313	RECOG_CONF	n/a	LTP093	ltpFR	18	3	1	DAISY	435	n/a	5	1	n/a	n/a	n/a	n/a	n/a
4274475	REC_START	n/a	LTP093	ltpFR	18	4	n/a	n/a	n/a	n/a	n/a	n/a	n/a	n/a	n/a	n/a	n/a
4274504	RECOG_TARGET	n/a	LTP093	ltpFR	18	4	0	COP	376	1	5	1	n/a	n/a	n/a	n/a	n/a
4275961	RECOG_RESP	n/a	LTP093	ltpFR	18	4	0	COP	376	1	n/a	1	n/a	n/a	n/a	n/a	n/a
4276695	RECOG_CONF	n/a	LTP093	ltpFR	18	4	0	COP	376	n/a	5	1	n/a	n/a	n/a	n/a	n/a
4277904	RECOG_LURE	n/a	LTP093	ltpFR	18	4	n/a	CORAL	378	0	4	n/a	n/a	n/a	n/a	n/a	n/a
4278561	RECOG_RESP	n/a	LTP093	ltpFR	18	4	n/a	CORAL	378	0	n/a	n/a	n/a	n/a	n/a	n/a	n/a
4278930	RECOG_CONF	n/a	LTP093	ltpFR	18	4	n/a	CORAL	378	n/a	4	n/a	n/a	n/a	n/a	n/a	n/a
4280187	RECOG_TARGET	n/a	LTP093	ltpFR	18	4	-1	RIB	1188	0	4	-1	n/a	n/a	n/a	n/a	n/a
4280835	RECOG_RESP	n/a	LTP093	ltpFR	18	4	-1	RIB	1188	0	n/a	-1	n/a	n/a	n/a	n/a	n/a
4281183	RECOG_CONF	n/a	LTP093	ltpFR	18	4	-1	RIB	1188	n/a	4	-1	n/a	n/a	n/a	n/a	n/a
4282504	RECOG_TARGET	n/a	LTP093	ltpFR	18	4	1	HORNET	718	1	5	1	n/a	n/a	n/a	n/a	n/a
4283210	RECOG_RESP	n/a	LTP093	ltpFR	18	4	1	HORNET	718	1	n/a	1	n/a	n/a	n/a	n/a	n/a
4283679	RECOG_CONF	n/a	LTP093	ltpFR	18	4	1	HORNET	718	n/a	5	1	n/a	n/a	n/a	n/a	n/a
4284845	RECOG_TARGET	n/a	LTP093	ltpFR	18	4	0	AMBULANCE	19	0	4	0	n/a	n/a	n/a	n/a	n/a
4285420	RECOG_RESP	n/a	LTP093	ltpFR	18	4	0	AMBULANCE	19	0	n/a	0	n/a	n/a	n/a	n/a	n/a
4285768	RECOG_CONF	n/a	LTP093	ltpFR	18	4	0	AMBULANCE	19	n/a	4	0	n/a	n/a	n/a	n/a	n/a
4286961	RECOG_LURE	n/a	LTP093	ltpFR	18	4	n/a	JURY	766	0	4	n/a	n/a	n/a	n/a	n/a	n/a
4288114	RECOG_RESP	n/a	LTP093	ltpFR	18	4	n/a	JURY	766	0	n/a	n/a	n/a	n/a	n/a	n/a	n/a
4288523	RECOG_CONF	n/a	LTP093	ltpFR	18	4	n/a	JURY	766	n/a	4	n/a	n/a	n/a	n/a	n/a	n/a
4289903	RECOG_LURE	n/a	LTP093	ltpFR	18	4	n/a	TREASURE	1500	0	4	n/a	n/a	n/a	n/a	n/a	n/a
4290583	RECOG_RESP	n/a	LTP093	ltpFR	18	4	n/a	TREASURE	1500	0	n/a	n/a	n/a	n/a	n/a	n/a	n/a
4291062	RECOG_CONF	n/a	LTP093	ltpFR	18	4	n/a	TREASURE	1500	n/a	4	n/a	n/a	n/a	n/a	n/a	n/a
4292469	RECOG_TARGET	n/a	LTP093	ltpFR	18	4	1	CONCERT	360	1	5	0	n/a	n/a	n/a	n/a	n/a
4293267	RECOG_RESP	n/a	LTP093	ltpFR	18	4	1	CONCERT	360	1	n/a	0	n/a	n/a	n/a	n/a	n/a
4293824	RECOG_CONF	n/a	LTP093	ltpFR	18	4	1	CONCERT	360	n/a	5	0	n/a	n/a	n/a	n/a	n/a
4295019	RECOG_LURE	n/a	LTP093	ltpFR	18	4	n/a	ROOT	1210	1	5	n/a	n/a	n/a	n/a	n/a	n/a
4295786	RECOG_RESP_VV	n/a	LTP093	ltpFR	18	4	n/a	ROOT	1210	0	n/a	n/a	n/a	n/a	n/a	n/a	n/a
4296295	RECOG_RESP	n/a	LTP093	ltpFR	18	4	n/a	ROOT	1210	1	n/a	n/a	n/a	n/a	n/a	n/a	n/a
4296879	RECOG_CONF	n/a	LTP093	ltpFR	18	4	n/a	ROOT	1210	n/a	5	n/a	n/a	n/a	n/a	n/a	n/a
4298286	RECOG_LURE	n/a	LTP093	ltpFR	18	4	n/a	EYELASH	546	0	4	n/a	n/a	n/a	n/a	n/a	n/a
4299812	RECOG_RESP	n/a	LTP093	ltpFR	18	4	n/a	EYELASH	546	0	n/a	n/a	n/a	n/a	n/a	n/a	n/a
4300450	RECOG_CONF	n/a	LTP093	ltpFR	18	4	n/a	EYELASH	546	n/a	4	n/a	n/a	n/a	n/a	n/a	n/a
4301910	RECOG_TARGET	n/a	LTP093	ltpFR	18	4	1	BROOK	177	0	4	0	n/a	n/a	n/a	n/a	n/a
4302970	RECOG_RESP	n/a	LTP093	ltpFR	18	4	1	BROOK	177	0	n/a	0	n/a	n/a	n/a	n/a	n/a
4308802	RECOG_CONF	n/a	LTP093	ltpFR	18	4	1	BROOK	177	n/a	4	0	n/a	n/a	n/a	n/a	n/a
4310569	RECOG_LURE	n/a	LTP093	ltpFR	18	4	n/a	GROCERY	664	0	4	n/a	n/a	n/a	n/a	n/a	n/a
4312907	RECOG_RESP	n/a	LTP093	ltpFR	18	4	n/a	GROCERY	664	0	n/a	n/a	n/a	n/a	n/a	n/a	n/a
4313572	RECOG_CONF	n/a	LTP093	ltpFR	18	4	n/a	GROCERY	664	n/a	4	n/a	n/a	n/a	n/a	n/a	n/a
4315084	RECOG_TARGET	n/a	LTP093	ltpFR	18	4	-1	PUBLISHER	1137	1	5	-1	n/a	n/a	n/a	n/a	n/a
4315831	RECOG_RESP	n/a	LTP093	ltpFR	18	4	-1	PUBLISHER	1137	1	n/a	-1	n/a	n/a	n/a	n/a	n/a
4316494	RECOG_CONF	n/a	LTP093	ltpFR	18	4	-1	PUBLISHER	1137	n/a	5	-1	n/a	n/a	n/a	n/a	n/a
4317842	RECOG_TARGET	n/a	LTP093	ltpFR	18	4	0	BALL	73	0	4	0	n/a	n/a	n/a	n/a	n/a
4318425	RECOG_RESP	n/a	LTP093	ltpFR	18	4	0	BALL	73	0	n/a	0	n/a	n/a	n/a	n/a	n/a
4319108	RECOG_CONF	n/a	LTP093	ltpFR	18	4	0	BALL	73	n/a	4	0	n/a	n/a	n/a	n/a	n/a
4320492	RECOG_TARGET	n/a	LTP093	ltpFR	18	4	-1	DIVER	476	1	5	-1	n/a	n/a	n/a	n/a	n/a
4321239	RECOG_RESP	n/a	LTP093	ltpFR	18	4	-1	DIVER	476	1	n/a	-1	n/a	n/a	n/a	n/a	n/a
4321932	RECOG_CONF	n/a	LTP093	ltpFR	18	4	-1	DIVER	476	n/a	5	-1	n/a	n/a	n/a	n/a	n/a
4323259	RECOG_LURE	n/a	LTP093	ltpFR	18	4	n/a	MISSILE	900	0	4	n/a	n/a	n/a	n/a	n/a	n/a
4323873	RECOG_RESP	n/a	LTP093	ltpFR	18	4	n/a	MISSILE	900	0	n/a	n/a	n/a	n/a	n/a	n/a	n/a
4324496	RECOG_CONF	n/a	LTP093	ltpFR	18	4	n/a	MISSILE	900	n/a	4	n/a	n/a	n/a	n/a	n/a	n/a
4325975	RECOG_LURE	n/a	LTP093	ltpFR	18	4	n/a	CAGE	218	0	4	n/a	n/a	n/a	n/a	n/a	n/a
4326621	RECOG_RESP	n/a	LTP093	ltpFR	18	4	n/a	CAGE	218	0	n/a	n/a	n/a	n/a	n/a	n/a	n/a
4327479	RECOG_CONF	n/a	LTP093	ltpFR	18	4	n/a	CAGE	218	n/a	4	n/a	n/a	n/a	n/a	n/a	n/a
4328634	RECOG_TARGET	n/a	LTP093	ltpFR	18	4	0	BUTCHER	203	0	4	0	n/a	n/a	n/a	n/a	n/a
4329455	RECOG_RESP	n/a	LTP093	ltpFR	18	4	0	BUTCHER	203	0	n/a	0	n/a	n/a	n/a	n/a	n/a
4330103	RECOG_CONF	n/a	LTP093	ltpFR	18	4	0	BUTCHER	203	n/a	4	0	n/a	n/a	n/a	n/a	n/a
4331516	RECOG_TARGET	n/a	LTP093	ltpFR	18	4	1	ARENA	37	1	5	0	n/a	n/a	n/a	n/a	n/a
4332408	RECOG_RESP	n/a	LTP093	ltpFR	18	4	1	ARENA	37	1	n/a	0	n/a	n/a	n/a	n/a	n/a
4332921	RECOG_CONF	n/a	LTP093	ltpFR	18	4	1	ARENA	37	n/a	5	0	n/a	n/a	n/a	n/a	n/a
4334324	RECOG_LURE	n/a	LTP093	ltpFR	18	4	n/a	RUM	1217	0	4	n/a	n/a	n/a	n/a	n/a	n/a
4335057	RECOG_RESP	n/a	LTP093	ltpFR	18	4	n/a	RUM	1217	0	n/a	n/a	n/a	n/a	n/a	n/a	n/a
4335780	RECOG_CONF	n/a	LTP093	ltpFR	18	4	n/a	RUM	1217	n/a	4	n/a	n/a	n/a	n/a	n/a	n/a
4343780	REC_START	n/a	LTP093	ltpFR	18	5	n/a	n/a	n/a	n/a	n/a	n/a	n/a	n/a	n/a	n/a	n/a
4343815	RECOG_LURE	n/a	LTP093	ltpFR	18	5	n/a	GARAGE	621	0	4	n/a	n/a	n/a	n/a	n/a	n/a
4344583	RECOG_RESP	n/a	LTP093	ltpFR	18	5	n/a	GARAGE	621	0	n/a	n/a	n/a	n/a	n/a	n/a	n/a
4345052	RECOG_CONF	n/a	LTP093	ltpFR	18	5	n/a	GARAGE	621	n/a	4	n/a	n/a	n/a	n/a	n/a	n/a
4346432	RECOG_TARGET	n/a	LTP093	ltpFR	18	5	0	JUGGLER	763	1	4	0	n/a	n/a	n/a	n/a	n/a
4347192	RECOG_RESP_VV	n/a	LTP093	ltpFR	18	5	0	JUGGLER	763	0	n/a	0	n/a	n/a	n/a	n/a	n/a
4348868	RECOG_RESP	n/a	LTP093	ltpFR	18	5	0	JUGGLER	763	1	n/a	0	n/a	n/a	n/a	n/a	n/a
4350170	RECOG_CONF	n/a	LTP093	ltpFR	18	5	0	JUGGLER	763	n/a	4	0	n/a	n/a	n/a	n/a	n/a
4351756	RECOG_LURE	n/a	LTP093	ltpFR	18	5	n/a	DENTIST	447	0	4	n/a	n/a	n/a	n/a	n/a	n/a
4352814	RECOG_RESP	n/a	LTP093	ltpFR	18	5	n/a	DENTIST	447	0	n/a	n/a	n/a	n/a	n/a	n/a	n/a
4353273	RECOG_CONF	n/a	LTP093	ltpFR	18	5	n/a	DENTIST	447	n/a	4	n/a	n/a	n/a	n/a	n/a	n/a
4354773	RECOG_LURE	n/a	LTP093	ltpFR	18	5	n/a	BARTENDER	92	0	4	n/a	n/a	n/a	n/a	n/a	n/a
4355418	RECOG_RESP	n/a	LTP093	ltpFR	18	5	n/a	BARTENDER	92	0	n/a	n/a	n/a	n/a	n/a	n/a	n/a
4356027	RECOG_CONF	n/a	LTP093	ltpFR	18	5	n/a	BARTENDER	92	n/a	4	n/a	n/a	n/a	n/a	n/a	n/a
4357206	RECOG_TARGET	n/a	LTP093	ltpFR	18	5	1	GULL	671	1	4	1	n/a	n/a	n/a	n/a	n/a
4357893	RECOG_RESP	n/a	LTP093	ltpFR	18	5	1	GULL	671	1	n/a	1	n/a	n/a	n/a	n/a	n/a
4358611	RECOG_CONF	n/a	LTP093	ltpFR	18	5	1	GULL	671	n/a	4	1	n/a	n/a	n/a	n/a	n/a
4359947	RECOG_LURE	n/a	LTP093	ltpFR	18	5	n/a	PRINCE	1124	0	4	n/a	n/a	n/a	n/a	n/a	n/a
4360632	RECOG_RESP	n/a	LTP093	ltpFR	18	5	n/a	PRINCE	1124	0	n/a	n/a	n/a	n/a	n/a	n/a	n/a
4361041	RECOG_CONF	n/a	LTP093	ltpFR	18	5	n/a	PRINCE	1124	n/a	4	n/a	n/a	n/a	n/a	n/a	n/a
4362522	RECOG_TARGET	n/a	LTP093	ltpFR	18	5	1	ASSISTANT	48	1	4	1	n/a	n/a	n/a	n/a	n/a
4363131	RECOG_RESP	n/a	LTP093	ltpFR	18	5	1	ASSISTANT	48	1	n/a	1	n/a	n/a	n/a	n/a	n/a
4363710	RECOG_CONF	n/a	LTP093	ltpFR	18	5	1	ASSISTANT	48	n/a	4	1	n/a	n/a	n/a	n/a	n/a
4364939	RECOG_LURE	n/a	LTP093	ltpFR	18	5	n/a	OMELET	976	1	4	n/a	n/a	n/a	n/a	n/a	n/a
4365485	RECOG_RESP	n/a	LTP093	ltpFR	18	5	n/a	OMELET	976	1	n/a	n/a	n/a	n/a	n/a	n/a	n/a
4366064	RECOG_CONF	n/a	LTP093	ltpFR	18	5	n/a	OMELET	976	n/a	4	n/a	n/a	n/a	n/a	n/a	n/a
4367263	RECOG_TARGET	n/a	LTP093	ltpFR	18	5	0	ZUCCHINI	1638	0	4	0	n/a	n/a	n/a	n/a	n/a
4367810	RECOG_RESP	n/a	LTP093	ltpFR	18	5	0	ZUCCHINI	1638	0	n/a	0	n/a	n/a	n/a	n/a	n/a
4368228	RECOG_CONF	n/a	LTP093	ltpFR	18	5	0	ZUCCHINI	1638	n/a	4	0	n/a	n/a	n/a	n/a	n/a
4369547	RECOG_TARGET	n/a	LTP093	ltpFR	18	5	0	TICK	1463	1	4	0	n/a	n/a	n/a	n/a	n/a
4370165	RECOG_RESP	n/a	LTP093	ltpFR	18	5	0	TICK	1463	1	n/a	0	n/a	n/a	n/a	n/a	n/a
4370674	RECOG_CONF	n/a	LTP093	ltpFR	18	5	0	TICK	1463	n/a	4	0	n/a	n/a	n/a	n/a	n/a
4371846	RECOG_LURE	n/a	LTP093	ltpFR	18	5	n/a	BAKER	71	1	4	n/a	n/a	n/a	n/a	n/a	n/a
4372430	RECOG_RESP_VV	n/a	LTP093	ltpFR	18	5	n/a	BAKER	71	0	n/a	n/a	n/a	n/a	n/a	n/a	n/a
4372854	RECOG_RESP	n/a	LTP093	ltpFR	18	5	n/a	BAKER	71	1	n/a	n/a	n/a	n/a	n/a	n/a	n/a
4373437	RECOG_CONF	n/a	LTP093	ltpFR	18	5	n/a	BAKER	71	n/a	4	n/a	n/a	n/a	n/a	n/a	n/a
4374722	RECOG_TARGET	n/a	LTP093	ltpFR	18	5	0	ISLAND	745	1	4	0	n/a	n/a	n/a	n/a	n/a
4375807	RECOG_RESP	n/a	LTP093	ltpFR	18	5	0	ISLAND	745	1	n/a	0	n/a	n/a	n/a	n/a	n/a
4376401	RECOG_CONF	n/a	LTP093	ltpFR	18	5	0	ISLAND	745	n/a	4	0	n/a	n/a	n/a	n/a	n/a
4377714	RECOG_TARGET	n/a	LTP093	ltpFR	18	5	-1	HAYSTACK	694	0	4	-1	n/a	n/a	n/a	n/a	n/a
4378446	RECOG_RESP	n/a	LTP093	ltpFR	18	5	-1	HAYSTACK	694	0	n/a	-1	n/a	n/a	n/a	n/a	n/a
4379174	RECOG_CONF	n/a	LTP093	ltpFR	18	5	-1	HAYSTACK	694	n/a	4	-1	n/a	n/a	n/a	n/a	n/a
4380404	RECOG_TARGET	n/a	LTP093	ltpFR	18	5	1	OAR	966	1	4	0	n/a	n/a	n/a	n/a	n/a
4381110	RECOG_RESP	n/a	LTP093	ltpFR	18	5	1	OAR	966	1	n/a	0	n/a	n/a	n/a	n/a	n/a
4381699	RECOG_CONF	n/a	LTP093	ltpFR	18	5	1	OAR	966	n/a	4	0	n/a	n/a	n/a	n/a	n/a
4383012	RECOG_TARGET	n/a	LTP093	ltpFR	18	5	0	ENVELOPE	537	1	4	0	n/a	n/a	n/a	n/a	n/a
4383629	RECOG_RESP	n/a	LTP093	ltpFR	18	5	0	ENVELOPE	537	1	n/a	0	n/a	n/a	n/a	n/a	n/a
4384173	RECOG_CONF	n/a	LTP093	ltpFR	18	5	0	ENVELOPE	537	n/a	4	0	n/a	n/a	n/a	n/a	n/a
4385404	RECOG_LURE	n/a	LTP093	ltpFR	18	5	n/a	DIAL	457	0	4	n/a	n/a	n/a	n/a	n/a	n/a
4385949	RECOG_RESP	n/a	LTP093	ltpFR	18	5	n/a	DIAL	457	0	n/a	n/a	n/a	n/a	n/a	n/a	n/a
4386488	RECOG_CONF	n/a	LTP093	ltpFR	18	5	n/a	DIAL	457	n/a	4	n/a	n/a	n/a	n/a	n/a	n/a
4387745	RECOG_TARGET	n/a	LTP093	ltpFR	18	5	-1	TAPE	1433	1	4	-1	n/a	n/a	n/a	n/a	n/a
4388174	RECOG_RESP	n/a	LTP093	ltpFR	18	5	-1	TAPE	1433	1	n/a	-1	n/a	n/a	n/a	n/a	n/a
4388753	RECOG_CONF	n/a	LTP093	ltpFR	18	5	-1	TAPE	1433	n/a	4	-1	n/a	n/a	n/a	n/a	n/a
4390053	RECOG_LURE	n/a	LTP093	ltpFR	18	5	n/a	HIP	710	0	4	n/a	n/a	n/a	n/a	n/a	n/a
4390638	RECOG_RESP	n/a	LTP093	ltpFR	18	5	n/a	HIP	710	0	n/a	n/a	n/a	n/a	n/a	n/a	n/a
4391486	RECOG_CONF	n/a	LTP093	ltpFR	18	5	n/a	HIP	710	n/a	4	n/a	n/a	n/a	n/a	n/a	n/a
4392646	RECOG_LURE	n/a	LTP093	ltpFR	18	5	n/a	MACARONI	851	0	4	n/a	n/a	n/a	n/a	n/a	n/a
4393257	RECOG_RESP	n/a	LTP093	ltpFR	18	5	n/a	MACARONI	851	0	n/a	n/a	n/a	n/a	n/a	n/a	n/a
4393831	RECOG_CONF	n/a	LTP093	ltpFR	18	5	n/a	MACARONI	851	n/a	4	n/a	n/a	n/a	n/a	n/a	n/a
4395003	RECOG_TARGET	n/a	LTP093	ltpFR	18	5	0	OZONE	996	1	4	0	n/a	n/a	n/a	n/a	n/a
4395572	RECOG_RESP	n/a	LTP093	ltpFR	18	5	0	OZONE	996	1	n/a	0	n/a	n/a	n/a	n/a	n/a
4396116	RECOG_CONF	n/a	LTP093	ltpFR	18	5	0	OZONE	996	n/a	4	0	n/a	n/a	n/a	n/a	n/a
4456759	REC_START	n/a	LTP093	ltpFR	18	6	n/a	n/a	n/a	n/a	n/a	n/a	n/a	n/a	n/a	n/a	n/a
4456790	RECOG_TARGET	n/a	LTP093	ltpFR	18	6	1	EWE	542	1	5	1	n/a	n/a	n/a	n/a	n/a
4457866	RECOG_RESP	n/a	LTP093	ltpFR	18	6	1	EWE	542	1	n/a	1	n/a	n/a	n/a	n/a	n/a
4458420	RECOG_CONF	n/a	LTP093	ltpFR	18	6	1	EWE	542	n/a	5	1	n/a	n/a	n/a	n/a	n/a
4459740	RECOG_TARGET	n/a	LTP093	ltpFR	18	6	1	PUBLICATION	1136	1	5	0	n/a	n/a	n/a	n/a	n/a
4460376	RECOG_RESP	n/a	LTP093	ltpFR	18	6	1	PUBLICATION	1136	1	n/a	0	n/a	n/a	n/a	n/a	n/a
4460789	RECOG_CONF	n/a	LTP093	ltpFR	18	6	1	PUBLICATION	1136	n/a	5	0	n/a	n/a	n/a	n/a	n/a
4462123	RECOG_TARGET	n/a	LTP093	ltpFR	18	6	1	FUDGE	611	1	5	0	n/a	n/a	n/a	n/a	n/a
4462615	RECOG_RESP	n/a	LTP093	ltpFR	18	6	1	FUDGE	611	1	n/a	0	n/a	n/a	n/a	n/a	n/a
4462985	RECOG_CONF	n/a	LTP093	ltpFR	18	6	1	FUDGE	611	n/a	5	0	n/a	n/a	n/a	n/a	n/a
4464648	RECOG_TARGET	n/a	LTP093	ltpFR	18	6	0	KLEENEX	782	1	5	0	n/a	n/a	n/a	n/a	n/a
4465434	RECOG_RESP	n/a	LTP093	ltpFR	18	6	0	KLEENEX	782	1	n/a	0	n/a	n/a	n/a	n/a	n/a
4465903	RECOG_CONF	n/a	LTP093	ltpFR	18	6	0	KLEENEX	782	n/a	5	0	n/a	n/a	n/a	n/a	n/a
4467114	RECOG_TARGET	n/a	LTP093	ltpFR	18	6	-1	GANGSTER	620	1	5	-1	n/a	n/a	n/a	n/a	n/a
4467629	RECOG_RESP	n/a	LTP093	ltpFR	18	6	-1	GANGSTER	620	1	n/a	-1	n/a	n/a	n/a	n/a	n/a
4468136	RECOG_CONF	n/a	LTP093	ltpFR	18	6	-1	GANGSTER	620	n/a	5	-1	n/a	n/a	n/a	n/a	n/a
4469355	RECOG_TARGET	n/a	LTP093	ltpFR	18	6	-1	KANGAROO	768	1	5	-1	n/a	n/a	n/a	n/a	n/a
4469804	RECOG_RESP	n/a	LTP093	ltpFR	18	6	-1	KANGAROO	768	1	n/a	-1	n/a	n/a	n/a	n/a	n/a
4470247	RECOG_CONF	n/a	LTP093	ltpFR	18	6	-1	KANGAROO	768	n/a	5	-1	n/a	n/a	n/a	n/a	n/a
4471380	RECOG_LURE	n/a	LTP093	ltpFR	18	6	n/a	WAGON	1578	0	4	n/a	n/a	n/a	n/a	n/a	n/a
4471999	RECOG_RESP	n/a	LTP093	ltpFR	18	6	n/a	WAGON	1578	0	n/a	n/a	n/a	n/a	n/a	n/a	n/a
4472371	RECOG_CONF	n/a	LTP093	ltpFR	18	6	n/a	WAGON	1578	n/a	4	n/a	n/a	n/a	n/a	n/a	n/a
4473763	RECOG_LURE	n/a	LTP093	ltpFR	18	6	n/a	MONARCH	906	0	4	n/a	n/a	n/a	n/a	n/a	n/a
4474344	RECOG_RESP	n/a	LTP093	ltpFR	18	6	n/a	MONARCH	906	0	n/a	n/a	n/a	n/a	n/a	n/a	n/a
4474664	RECOG_CONF	n/a	LTP093	ltpFR	18	6	n/a	MONARCH	906	n/a	4	n/a	n/a	n/a	n/a	n/a	n/a
4475963	RECOG_TARGET	n/a	LTP093	ltpFR	18	6	1	STAKE	1368	1	5	0	n/a	n/a	n/a	n/a	n/a
4476529	RECOG_RESP	n/a	LTP093	ltpFR	18	6	1	STAKE	1368	1	n/a	0	n/a	n/a	n/a	n/a	n/a
4476978	RECOG_CONF	n/a	LTP093	ltpFR	18	6	1	STAKE	1368	n/a	5	0	n/a	n/a	n/a	n/a	n/a
4478171	RECOG_LURE	n/a	LTP093	ltpFR	18	6	n/a	HANGER	687	0	4	n/a	n/a	n/a	n/a	n/a	n/a
4478854	RECOG_RESP	n/a	LTP093	ltpFR	18	6	n/a	HANGER	687	0	n/a	n/a	n/a	n/a	n/a	n/a	n/a
4479154	RECOG_CONF	n/a	LTP093	ltpFR	18	6	n/a	HANGER	687	n/a	4	n/a	n/a	n/a	n/a	n/a	n/a
4480556	RECOG_TARGET	n/a	LTP093	ltpFR	18	6	1	ENGINEER	536	1	5	0	n/a	n/a	n/a	n/a	n/a
4481143	RECOG_RESP	n/a	LTP093	ltpFR	18	6	1	ENGINEER	536	1	n/a	0	n/a	n/a	n/a	n/a	n/a
4481515	RECOG_CONF	n/a	LTP093	ltpFR	18	6	1	ENGINEER	536	n/a	5	0	n/a	n/a	n/a	n/a	n/a
4482771	RECOG_LURE	n/a	LTP093	ltpFR	18	6	n/a	LOOP	844	0	4	n/a	n/a	n/a	n/a	n/a	n/a
4483358	RECOG_RESP	n/a	LTP093	ltpFR	18	6	n/a	LOOP	844	0	n/a	n/a	n/a	n/a	n/a	n/a	n/a
4483776	RECOG_CONF	n/a	LTP093	ltpFR	18	6	n/a	LOOP	844	n/a	4	n/a	n/a	n/a	n/a	n/a	n/a
4484913	RECOG_TARGET	n/a	LTP093	ltpFR	18	6	0	SERGEANT	1269	1	5	0	n/a	n/a	n/a	n/a	n/a
4485499	RECOG_RESP	n/a	LTP093	ltpFR	18	6	0	SERGEANT	1269	1	n/a	0	n/a	n/a	n/a	n/a	n/a
4485982	RECOG_CONF	n/a	LTP093	ltpFR	18	6	0	SERGEANT	1269	n/a	5	0	n/a	n/a	n/a	n/a	n/a
4487137	RECOG_TARGET	n/a	LTP093	ltpFR	18	6	-1	KEG	770	1	5	-1	n/a	n/a	n/a	n/a	n/a
4487684	RECOG_RESP	n/a	LTP093	ltpFR	18	6	-1	KEG	770	1	n/a	-1	n/a	n/a	n/a	n/a	n/a
4488102	RECOG_CONF	n/a	LTP093	ltpFR	18	6	-1	KEG	770	n/a	5	-1	n/a	n/a	n/a	n/a	n/a
4489346	RECOG_LURE	n/a	LTP093	ltpFR	18	6	n/a	DASHBOARD	441	1	4	n/a	n/a	n/a	n/a	n/a	n/a
4490003	RECOG_RESP	n/a	LTP093	ltpFR	18	6	n/a	DASHBOARD	441	1	n/a	n/a	n/a	n/a	n/a	n/a	n/a
4490527	RECOG_CONF	n/a	LTP093	ltpFR	18	6	n/a	DASHBOARD	441	n/a	4	n/a	n/a	n/a	n/a	n/a	n/a
4491705	RECOG_LURE	n/a	LTP093	ltpFR	18	6	n/a	BEETLE	116	0	4	n/a	n/a	n/a	n/a	n/a	n/a
4492338	RECOG_RESP	n/a	LTP093	ltpFR	18	6	n/a	BEETLE	116	0	n/a	n/a	n/a	n/a	n/a	n/a	n/a
4492631	RECOG_CONF	n/a	LTP093	ltpFR	18	6	n/a	BEETLE	116	n/a	4	n/a	n/a	n/a	n/a	n/a	n/a
4493970	RECOG_TARGET	n/a	LTP093	ltpFR	18	6	1	ARTERY	41	1	5	0	n/a	n/a	n/a	n/a	n/a
4494573	RECOG_RESP	n/a	LTP093	ltpFR	18	6	1	ARTERY	41	1	n/a	0	n/a	n/a	n/a	n/a	n/a
4495050	RECOG_CONF	n/a	LTP093	ltpFR	18	6	1	ARTERY	41	n/a	5	0	n/a	n/a	n/a	n/a	n/a
4496162	RECOG_TARGET	n/a	LTP093	ltpFR	18	6	-1	MARS	873	1	5	-1	n/a	n/a	n/a	n/a	n/a
4496868	RECOG_RESP	n/a	LTP093	ltpFR	18	6	-1	MARS	873	1	n/a	-1	n/a	n/a	n/a	n/a	n/a
4497318	RECOG_CONF	n/a	LTP093	ltpFR	18	6	-1	MARS	873	n/a	5	-1	n/a	n/a	n/a	n/a	n/a
4498470	RECOG_TARGET	n/a	LTP093	ltpFR	18	6	0	KIDNEY	776	0	5	0	n/a	n/a	n/a	n/a	n/a
4499038	RECOG_RESP	n/a	LTP093	ltpFR	18	6	0	KIDNEY	776	0	n/a	0	n/a	n/a	n/a	n/a	n/a
4499435	RECOG_CONF	n/a	LTP093	ltpFR	18	6	0	KIDNEY	776	n/a	5	0	n/a	n/a	n/a	n/a	n/a
4500612	RECOG_TARGET	n/a	LTP093	ltpFR	18	6	1	PISTON	1076	1	5	0	n/a	n/a	n/a	n/a	n/a
4501148	RECOG_RESP	n/a	LTP093	ltpFR	18	6	1	PISTON	1076	1	n/a	0	n/a	n/a	n/a	n/a	n/a
4501482	RECOG_CONF	n/a	LTP093	ltpFR	18	6	1	PISTON	1076	n/a	5	0	n/a	n/a	n/a	n/a	n/a
4507323	REC_START	n/a	LTP093	ltpFR	18	7	n/a	n/a	n/a	n/a	n/a	n/a	n/a	n/a	n/a	n/a	n/a
4507353	RECOG_TARGET	n/a	LTP093	ltpFR	18	7	0	STEW	1380	0	5	0	n/a	n/a	n/a	n/a	n/a
4507946	RECOG_RESP	n/a	LTP093	ltpFR	18	7	0	STEW	1380	0	n/a	0	n/a	n/a	n/a	n/a	n/a
4508387	RECOG_CONF	n/a	LTP093	ltpFR	18	7	0	STEW	1380	n/a	5	0	n/a	n/a	n/a	n/a	n/a
4509352	RECOG_TARGET	n/a	LTP093	ltpFR	18	7	-1	GAUZE	626	1	3	-1	n/a	n/a	n/a	n/a	n/a
4509977	RECOG_RESP_VV	n/a	LTP093	ltpFR	18	7	-1	GAUZE	626	0	n/a	-1	n/a	n/a	n/a	n/a	n/a
4512731	RECOG_RESP	n/a	LTP093	ltpFR	18	7	-1	GAUZE	626	1	n/a	-1	n/a	n/a	n/a	n/a	n/a
4513554	RECOG_CONF	n/a	LTP093	ltpFR	18	7	-1	GAUZE	626	n/a	3	-1	n/a	n/a	n/a	n/a	n/a
4514852	RECOG_TARGET	n/a	LTP093	ltpFR	18	7	0	KITCHEN	778	1	3	0	n/a	n/a	n/a	n/a	n/a
4515579	RECOG_RESP_VV	n/a	LTP093	ltpFR	18	7	0	KITCHEN	778	0	n/a	0	n/a	n/a	n/a	n/a	n/a
4516377	RECOG_RESP	n/a	LTP093	ltpFR	18	7	0	KITCHEN	778	1	n/a	0	n/a	n/a	n/a	n/a	n/a
4517066	RECOG_CONF	n/a	LTP093	ltpFR	18	7	0	KITCHEN	778	n/a	3	0	n/a	n/a	n/a	n/a	n/a
4518485	RECOG_TARGET	n/a	LTP093	ltpFR	18	7	-1	HANDKERCHIEF	686	1	4	-1	n/a	n/a	n/a	n/a	n/a
4519176	RECOG_RESP	n/a	LTP093	ltpFR	18	7	-1	HANDKERCHIEF	686	1	n/a	-1	n/a	n/a	n/a	n/a	n/a
4519720	RECOG_CONF	n/a	LTP093	ltpFR	18	7	-1	HANDKERCHIEF	686	n/a	4	-1	n/a	n/a	n/a	n/a	n/a
4521051	RECOG_TARGET	n/a	LTP093	ltpFR	18	7	1	ROBIN	1199	1	5	1	n/a	n/a	n/a	n/a	n/a
4521585	RECOG_RESP	n/a	LTP093	ltpFR	18	7	1	ROBIN	1199	1	n/a	1	n/a	n/a	n/a	n/a	n/a
4522104	RECOG_CONF	n/a	LTP093	ltpFR	18	7	1	ROBIN	1199	n/a	5	1	n/a	n/a	n/a	n/a	n/a
4523310	RECOG_TARGET	n/a	LTP093	ltpFR	18	7	-1	STATUE	1374	1	5	-1	n/a	n/a	n/a	n/a	n/a
4523970	RECOG_RESP	n/a	LTP093	ltpFR	18	7	-1	STATUE	1374	1	n/a	-1	n/a	n/a	n/a	n/a	n/a
4524438	RECOG_CONF	n/a	LTP093	ltpFR	18	7	-1	STATUE	1374	n/a	5	-1	n/a	n/a	n/a	n/a	n/a
4525702	RECOG_TARGET	n/a	LTP093	ltpFR	18	7	1	MAID	856	1	5	1	n/a	n/a	n/a	n/a	n/a
4526375	RECOG_RESP	n/a	LTP093	ltpFR	18	7	1	MAID	856	1	n/a	1	n/a	n/a	n/a	n/a	n/a
4526805	RECOG_CONF	n/a	LTP093	ltpFR	18	7	1	MAID	856	n/a	5	1	n/a	n/a	n/a	n/a	n/a
4528017	RECOG_TARGET	n/a	LTP093	ltpFR	18	7	0	REEF	1177	1	5	0	n/a	n/a	n/a	n/a	n/a
4528624	RECOG_RESP_VV	n/a	LTP093	ltpFR	18	7	0	REEF	1177	0	n/a	0	n/a	n/a	n/a	n/a	n/a
4529567	RECOG_RESP	n/a	LTP093	ltpFR	18	7	0	REEF	1177	1	n/a	0	n/a	n/a	n/a	n/a	n/a
4530037	RECOG_CONF	n/a	LTP093	ltpFR	18	7	0	REEF	1177	n/a	5	0	n/a	n/a	n/a	n/a	n/a
4531392	RECOG_TARGET	n/a	LTP093	ltpFR	18	7	0	ICING	732	1	5	0	n/a	n/a	n/a	n/a	n/a
4531972	RECOG_RESP	n/a	LTP093	ltpFR	18	7	0	ICING	732	1	n/a	0	n/a	n/a	n/a	n/a	n/a
4532421	RECOG_CONF	n/a	LTP093	ltpFR	18	7	0	ICING	732	n/a	5	0	n/a	n/a	n/a	n/a	n/a
4533568	RECOG_TARGET	n/a	LTP093	ltpFR	18	7	1	RESTAURANT	1187	1	5	0	n/a	n/a	n/a	n/a	n/a
4534087	RECOG_RESP	n/a	LTP093	ltpFR	18	7	1	RESTAURANT	1187	1	n/a	0	n/a	n/a	n/a	n/a	n/a
4534575	RECOG_CONF	n/a	LTP093	ltpFR	18	7	1	RESTAURANT	1187	n/a	5	0	n/a	n/a	n/a	n/a	n/a
4535585	RECOG_LURE	n/a	LTP093	ltpFR	18	7	n/a	OCTOPUS	971	0	4	n/a	n/a	n/a	n/a	n/a	n/a
4536058	RECOG_RESP	n/a	LTP093	ltpFR	18	7	n/a	OCTOPUS	971	0	n/a	n/a	n/a	n/a	n/a	n/a	n/a
4536651	RECOG_CONF	n/a	LTP093	ltpFR	18	7	n/a	OCTOPUS	971	n/a	4	n/a	n/a	n/a	n/a	n/a	n/a
4538142	RECOG_LURE	n/a	LTP093	ltpFR	18	7	n/a	BOOK	149	0	4	n/a	n/a	n/a	n/a	n/a	n/a
4538672	RECOG_RESP	n/a	LTP093	ltpFR	18	7	n/a	BOOK	149	0	n/a	n/a	n/a	n/a	n/a	n/a	n/a
4539335	RECOG_CONF	n/a	LTP093	ltpFR	18	7	n/a	BOOK	149	n/a	4	n/a	n/a	n/a	n/a	n/a	n/a
4540800	RECOG_LURE	n/a	LTP093	ltpFR	18	7	n/a	SPINE	1353	0	4	n/a	n/a	n/a	n/a	n/a	n/a
4541450	RECOG_RESP	n/a	LTP093	ltpFR	18	7	n/a	SPINE	1353	0	n/a	n/a	n/a	n/a	n/a	n/a	n/a
4541780	RECOG_CONF	n/a	LTP093	ltpFR	18	7	n/a	SPINE	1353	n/a	4	n/a	n/a	n/a	n/a	n/a	n/a
4542991	RECOG_LURE	n/a	LTP093	ltpFR	18	7	n/a	PUB	1135	0	4	n/a	n/a	n/a	n/a	n/a	n/a
4543675	RECOG_RESP	n/a	LTP093	ltpFR	18	7	n/a	PUB	1135	0	n/a	n/a	n/a	n/a	n/a	n/a	n/a
4544093	RECOG_CONF	n/a	LTP093	ltpFR	18	7	n/a	PUB	1135	n/a	4	n/a	n/a	n/a	n/a	n/a	n/a
4545333	RECOG_TARGET	n/a	LTP093	ltpFR	18	7	-1	CACTUS	215	1	5	-1	n/a	n/a	n/a	n/a	n/a
4545945	RECOG_RESP	n/a	LTP093	ltpFR	18	7	-1	CACTUS	215	1	n/a	-1	n/a	n/a	n/a	n/a	n/a
4546433	RECOG_CONF	n/a	LTP093	ltpFR	18	7	-1	CACTUS	215	n/a	5	-1	n/a	n/a	n/a	n/a	n/a
4547474	RECOG_TARGET	n/a	LTP093	ltpFR	18	7	-1	INFANT	737	1	5	-1	n/a	n/a	n/a	n/a	n/a
4548045	RECOG_RESP	n/a	LTP093	ltpFR	18	7	-1	INFANT	737	1	n/a	-1	n/a	n/a	n/a	n/a	n/a
4548509	RECOG_CONF	n/a	LTP093	ltpFR	18	7	-1	INFANT	737	n/a	5	-1	n/a	n/a	n/a	n/a	n/a
4549634	RECOG_LURE	n/a	LTP093	ltpFR	18	7	n/a	FIGHTER	564	0	4	n/a	n/a	n/a	n/a	n/a	n/a
4550589	RECOG_RESP_VV	n/a	LTP093	ltpFR	18	7	n/a	FIGHTER	564	1	n/a	n/a	n/a	n/a	n/a	n/a	n/a
4551298	RECOG_RESP	n/a	LTP093	ltpFR	18	7	n/a	FIGHTER	564	0	n/a	n/a	n/a	n/a	n/a	n/a	n/a
4552026	RECOG_CONF	n/a	LTP093	ltpFR	18	7	n/a	FIGHTER	564	n/a	4	n/a	n/a	n/a	n/a	n/a	n/a
4553583	RECOG_LURE	n/a	LTP093	ltpFR	18	7	n/a	IRON	744	0	4	n/a	n/a	n/a	n/a	n/a	n/a
4554211	RECOG_RESP	n/a	LTP093	ltpFR	18	7	n/a	IRON	744	0	n/a	n/a	n/a	n/a	n/a	n/a	n/a
4554840	RECOG_CONF	n/a	LTP093	ltpFR	18	7	n/a	IRON	744	n/a	4	n/a	n/a	n/a	n/a	n/a	n/a
4555982	RECOG_TARGET	n/a	LTP093	ltpFR	18	7	-1	CAR	241	1	5	-1	n/a	n/a	n/a	n/a	n/a
4556626	RECOG_RESP	n/a	LTP093	ltpFR	18	7	-1	CAR	241	1	n/a	-1	n/a	n/a	n/a	n/a	n/a
4557137	RECOG_CONF	n/a	LTP093	ltpFR	18	7	-1	CAR	241	n/a	5	-1	n/a	n/a	n/a	n/a	n/a
4558449	RECOG_LURE	n/a	LTP093	ltpFR	18	7	n/a	COWARD	394	0	4	n/a	n/a	n/a	n/a	n/a	n/a
4559020	RECOG_RESP	n/a	LTP093	ltpFR	18	7	n/a	COWARD	394	0	n/a	n/a	n/a	n/a	n/a	n/a	n/a
4559399	RECOG_CONF	n/a	LTP093	ltpFR	18	7	n/a	COWARD	394	n/a	4	n/a	n/a	n/a	n/a	n/a	n/a
4562974	REC_START	n/a	LTP093	ltpFR	18	8	n/a	n/a	n/a	n/a	n/a	n/a	n/a	n/a	n/a	n/a	n/a
4563006	RECOG_LURE	n/a	LTP093	ltpFR	18	8	n/a	RUST	1219	0	4	n/a	n/a	n/a	n/a	n/a	n/a
4563652	RECOG_RESP	n/a	LTP093	ltpFR	18	8	n/a	RUST	1219	0	n/a	n/a	n/a	n/a	n/a	n/a	n/a
4564096	RECOG_CONF	n/a	LTP093	ltpFR	18	8	n/a	RUST	1219	n/a	4	n/a	n/a	n/a	n/a	n/a	n/a
4565348	RECOG_LURE	n/a	LTP093	ltpFR	18	8	n/a	COUNTRY	388	0	4	n/a	n/a	n/a	n/a	n/a	n/a
4565907	RECOG_RESP	n/a	LTP093	ltpFR	18	8	n/a	COUNTRY	388	0	n/a	n/a	n/a	n/a	n/a	n/a	n/a
4566279	RECOG_CONF	n/a	LTP093	ltpFR	18	8	n/a	COUNTRY	388	n/a	4	n/a	n/a	n/a	n/a	n/a	n/a
4567557	RECOG_TARGET	n/a	LTP093	ltpFR	18	8	1	EMPEROR	529	0	3	1	n/a	n/a	n/a	n/a	n/a
4568362	RECOG_RESP	n/a	LTP093	ltpFR	18	8	1	EMPEROR	529	0	n/a	1	n/a	n/a	n/a	n/a	n/a
4570312	RECOG_CONF	n/a	LTP093	ltpFR	18	8	1	EMPEROR	529	n/a	3	1	n/a	n/a	n/a	n/a	n/a
4571781	RECOG_TARGET	n/a	LTP093	ltpFR	18	8	-1	PLANE	1081	1	5	-1	n/a	n/a	n/a	n/a	n/a
4572582	RECOG_RESP	n/a	LTP093	ltpFR	18	8	-1	PLANE	1081	1	n/a	-1	n/a	n/a	n/a	n/a	n/a
4573066	RECOG_CONF	n/a	LTP093	ltpFR	18	8	-1	PLANE	1081	n/a	5	-1	n/a	n/a	n/a	n/a	n/a
4574356	RECOG_LURE	n/a	LTP093	ltpFR	18	8	n/a	PROTRACTOR	1133	0	4	n/a	n/a	n/a	n/a	n/a	n/a
4574996	RECOG_RESP	n/a	LTP093	ltpFR	18	8	n/a	PROTRACTOR	1133	0	n/a	n/a	n/a	n/a	n/a	n/a	n/a
4575381	RECOG_CONF	n/a	LTP093	ltpFR	18	8	n/a	PROTRACTOR	1133	n/a	4	n/a	n/a	n/a	n/a	n/a	n/a
4576631	RECOG_TARGET	n/a	LTP093	ltpFR	18	8	0	PRINTER	1126	0	4	0	n/a	n/a	n/a	n/a	n/a
4577351	RECOG_RESP	n/a	LTP093	ltpFR	18	8	0	PRINTER	1126	0	n/a	0	n/a	n/a	n/a	n/a	n/a
4577699	RECOG_CONF	n/a	LTP093	ltpFR	18	8	0	PRINTER	1126	n/a	4	0	n/a	n/a	n/a	n/a	n/a
4579114	RECOG_TARGET	n/a	LTP093	ltpFR	18	8	-1	SHINGLE	1285	1	5	-1	n/a	n/a	n/a	n/a	n/a
4579811	RECOG_RESP	n/a	LTP093	ltpFR	18	8	-1	SHINGLE	1285	1	n/a	-1	n/a	n/a	n/a	n/a	n/a
4580299	RECOG_CONF	n/a	LTP093	ltpFR	18	8	-1	SHINGLE	1285	n/a	5	-1	n/a	n/a	n/a	n/a	n/a
4581447	RECOG_TARGET	n/a	LTP093	ltpFR	18	8	1	OATS	968	1	5	1	n/a	n/a	n/a	n/a	n/a
4582075	RECOG_RESP	n/a	LTP093	ltpFR	18	8	1	OATS	968	1	n/a	1	n/a	n/a	n/a	n/a	n/a
4582516	RECOG_CONF	n/a	LTP093	ltpFR	18	8	1	OATS	968	n/a	5	1	n/a	n/a	n/a	n/a	n/a
4583706	RECOG_TARGET	n/a	LTP093	ltpFR	18	8	1	COACH	331	1	5	1	n/a	n/a	n/a	n/a	n/a
4584320	RECOG_RESP	n/a	LTP093	ltpFR	18	8	1	COACH	331	1	n/a	1	n/a	n/a	n/a	n/a	n/a
4584808	RECOG_CONF	n/a	LTP093	ltpFR	18	8	1	COACH	331	n/a	5	1	n/a	n/a	n/a	n/a	n/a
4586055	RECOG_TARGET	n/a	LTP093	ltpFR	18	8	1	CREATURE	403	1	5	1	n/a	n/a	n/a	n/a	n/a
4586610	RECOG_RESP	n/a	LTP093	ltpFR	18	8	1	CREATURE	403	1	n/a	1	n/a	n/a	n/a	n/a	n/a
4587051	RECOG_CONF	n/a	LTP093	ltpFR	18	8	1	CREATURE	403	n/a	5	1	n/a	n/a	n/a	n/a	n/a
4588363	RECOG_LURE	n/a	LTP093	ltpFR	18	8	n/a	ROSE	1212	0	4	n/a	n/a	n/a	n/a	n/a	n/a
4588810	RECOG_RESP	n/a	LTP093	ltpFR	18	8	n/a	ROSE	1212	0	n/a	n/a	n/a	n/a	n/a	n/a	n/a
4589312	RECOG_CONF	n/a	LTP093	ltpFR	18	8	n/a	ROSE	1212	n/a	4	n/a	n/a	n/a	n/a	n/a	n/a
4590689	RECOG_TARGET	n/a	LTP093	ltpFR	18	8	0	NAPKIN	937	1	5	0	n/a	n/a	n/a	n/a	n/a
4591269	RECOG_RESP	n/a	LTP093	ltpFR	18	8	0	NAPKIN	937	1	n/a	0	n/a	n/a	n/a	n/a	n/a
4591782	RECOG_CONF	n/a	LTP093	ltpFR	18	8	0	NAPKIN	937	n/a	5	0	n/a	n/a	n/a	n/a	n/a
4593004	RECOG_TARGET	n/a	LTP093	ltpFR	18	8	1	MOSQUITO	917	1	5	1	n/a	n/a	n/a	n/a	n/a
4593524	RECOG_RESP	n/a	LTP093	ltpFR	18	8	1	MOSQUITO	917	1	n/a	1	n/a	n/a	n/a	n/a	n/a
4594012	RECOG_CONF	n/a	LTP093	ltpFR	18	8	1	MOSQUITO	917	n/a	5	1	n/a	n/a	n/a	n/a	n/a
4595062	RECOG_TARGET	n/a	LTP093	ltpFR	18	8	-1	AIRCRAFT	11	1	5	-1	n/a	n/a	n/a	n/a	n/a
4595545	RECOG_RESP	n/a	LTP093	ltpFR	18	8	-1	AIRCRAFT	11	1	n/a	-1	n/a	n/a	n/a	n/a	n/a
4595935	RECOG_CONF	n/a	LTP093	ltpFR	18	8	-1	AIRCRAFT	11	n/a	5	-1	n/a	n/a	n/a	n/a	n/a
4597596	RECOG_LURE	n/a	LTP093	ltpFR	18	8	n/a	HUSBAND	728	0	4	n/a	n/a	n/a	n/a	n/a	n/a
4598119	RECOG_RESP	n/a	LTP093	ltpFR	18	8	n/a	HUSBAND	728	0	n/a	n/a	n/a	n/a	n/a	n/a	n/a
4598509	RECOG_CONF	n/a	LTP093	ltpFR	18	8	n/a	HUSBAND	728	n/a	4	n/a	n/a	n/a	n/a	n/a	n/a
4599862	RECOG_TARGET	n/a	LTP093	ltpFR	18	8	0	CARRIAGE	248	1	5	1	n/a	n/a	n/a	n/a	n/a
4600434	RECOG_RESP	n/a	LTP093	ltpFR	18	8	0	CARRIAGE	248	1	n/a	1	n/a	n/a	n/a	n/a	n/a
4601015	RECOG_CONF	n/a	LTP093	ltpFR	18	8	0	CARRIAGE	248	n/a	5	1	n/a	n/a	n/a	n/a	n/a
4602145	RECOG_TARGET	n/a	LTP093	ltpFR	18	8	1	WEB	1598	0	4	0	n/a	n/a	n/a	n/a	n/a
4602963	RECOG_RESP	n/a	LTP093	ltpFR	18	8	1	WEB	1598	0	n/a	0	n/a	n/a	n/a	n/a	n/a
4603407	RECOG_CONF	n/a	LTP093	ltpFR	18	8	1	WEB	1598	n/a	4	0	n/a	n/a	n/a	n/a	n/a
4604870	RECOG_LURE	n/a	LTP093	ltpFR	18	8	n/a	CONVENT	370	0	4	n/a	n/a	n/a	n/a	n/a	n/a
4605896	RECOG_RESP	n/a	LTP093	ltpFR	18	8	n/a	CONVENT	370	0	n/a	n/a	n/a	n/a	n/a	n/a	n/a
4606337	RECOG_CONF	n/a	LTP093	ltpFR	18	8	n/a	CONVENT	370	n/a	4	n/a	n/a	n/a	n/a	n/a	n/a
4607654	RECOG_TARGET	n/a	LTP093	ltpFR	18	8	1	VINEGAR	1569	1	5	0	n/a	n/a	n/a	n/a	n/a
4608221	RECOG_RESP	n/a	LTP093	ltpFR	18	8	1	VINEGAR	1569	1	n/a	0	n/a	n/a	n/a	n/a	n/a
4608709	RECOG_CONF	n/a	LTP093	ltpFR	18	8	1	VINEGAR	1569	n/a	5	0	n/a	n/a	n/a	n/a	n/a
4610069	RECOG_LURE	n/a	LTP093	ltpFR	18	8	n/a	CAMEL	223	0	4	n/a	n/a	n/a	n/a	n/a	n/a
4610655	RECOG_RESP	n/a	LTP093	ltpFR	18	8	n/a	CAMEL	223	0	n/a	n/a	n/a	n/a	n/a	n/a	n/a
4610990	RECOG_CONF	n/a	LTP093	ltpFR	18	8	n/a	CAMEL	223	n/a	4	n/a	n/a	n/a	n/a	n/a	n/a
4642421	REC_START	n/a	LTP093	ltpFR	18	9	n/a	n/a	n/a	n/a	n/a	n/a	n/a	n/a	n/a	n/a	n/a
4642459	RECOG_LURE	n/a	LTP093	ltpFR	18	9	n/a	CHALK	276	0	4	n/a	n/a	n/a	n/a	n/a	n/a
4643329	RECOG_RESP	n/a	LTP093	ltpFR	18	9	n/a	CHALK	276	0	n/a	n/a	n/a	n/a	n/a	n/a	n/a
4643783	RECOG_CONF	n/a	LTP093	ltpFR	18	9	n/a	CHALK	276	n/a	4	n/a	n/a	n/a	n/a	n/a	n/a
4645092	RECOG_LURE	n/a	LTP093	ltpFR	18	9	n/a	COWBOY	395	0	4	n/a	n/a	n/a	n/a	n/a	n/a
4645808	RECOG_RESP	n/a	LTP093	ltpFR	18	9	n/a	COWBOY	395	0	n/a	n/a	n/a	n/a	n/a	n/a	n/a
4646247	RECOG_CONF	n/a	LTP093	ltpFR	18	9	n/a	COWBOY	395	n/a	4	n/a	n/a	n/a	n/a	n/a	n/a
4647626	RECOG_LURE	n/a	LTP093	ltpFR	18	9	n/a	BONE	148	0	4	n/a	n/a	n/a	n/a	n/a	n/a
4648138	RECOG_RESP	n/a	LTP093	ltpFR	18	9	n/a	BONE	148	0	n/a	n/a	n/a	n/a	n/a	n/a	n/a
4648692	RECOG_CONF	n/a	LTP093	ltpFR	18	9	n/a	BONE	148	n/a	4	n/a	n/a	n/a	n/a	n/a	n/a
4650100	RECOG_LURE	n/a	LTP093	ltpFR	18	9	n/a	FRIAR	605	0	4	n/a	n/a	n/a	n/a	n/a	n/a
4650662	RECOG_RESP	n/a	LTP093	ltpFR	18	9	n/a	FRIAR	605	0	n/a	n/a	n/a	n/a	n/a	n/a	n/a
4651025	RECOG_CONF	n/a	LTP093	ltpFR	18	9	n/a	FRIAR	605	n/a	4	n/a	n/a	n/a	n/a	n/a	n/a
4652366	RECOG_TARGET	n/a	LTP093	ltpFR	18	9	0	PIPE	1073	1	5	0	n/a	n/a	n/a	n/a	n/a
4653017	RECOG_RESP	n/a	LTP093	ltpFR	18	9	0	PIPE	1073	1	n/a	0	n/a	n/a	n/a	n/a	n/a
4653551	RECOG_CONF	n/a	LTP093	ltpFR	18	9	0	PIPE	1073	n/a	5	0	n/a	n/a	n/a	n/a	n/a
4654833	RECOG_LURE	n/a	LTP093	ltpFR	18	9	n/a	FACE	547	0	4	n/a	n/a	n/a	n/a	n/a	n/a
4655366	RECOG_RESP	n/a	LTP093	ltpFR	18	9	n/a	FACE	547	0	n/a	n/a	n/a	n/a	n/a	n/a	n/a
4655666	RECOG_CONF	n/a	LTP093	ltpFR	18	9	n/a	FACE	547	n/a	4	n/a	n/a	n/a	n/a	n/a	n/a
4657066	RECOG_TARGET	n/a	LTP093	ltpFR	18	9	1	GAZELLE	628	1	5	1	n/a	n/a	n/a	n/a	n/a
4657656	RECOG_RESP	n/a	LTP093	ltpFR	18	9	1	GAZELLE	628	1	n/a	1	n/a	n/a	n/a	n/a	n/a
4658100	RECOG_CONF	n/a	LTP093	ltpFR	18	9	1	GAZELLE	628	n/a	5	1	n/a	n/a	n/a	n/a	n/a
4659391	RECOG_TARGET	n/a	LTP093	ltpFR	18	9	1	ARROW	40	1	5	0	n/a	n/a	n/a	n/a	n/a
4659956	RECOG_RESP	n/a	LTP093	ltpFR	18	9	1	ARROW	40	1	n/a	0	n/a	n/a	n/a	n/a	n/a
4660526	RECOG_CONF	n/a	LTP093	ltpFR	18	9	1	ARROW	40	n/a	5	0	n/a	n/a	n/a	n/a	n/a
4661575	RECOG_TARGET	n/a	LTP093	ltpFR	18	9	1	PEPPER	1047	1	5	0	n/a	n/a	n/a	n/a	n/a
4662171	RECOG_RESP	n/a	LTP093	ltpFR	18	9	1	PEPPER	1047	1	n/a	0	n/a	n/a	n/a	n/a	n/a
4662612	RECOG_CONF	n/a	LTP093	ltpFR	18	9	1	PEPPER	1047	n/a	5	0	n/a	n/a	n/a	n/a	n/a
