mstime	trial_type	stim_file	subject	experiment	session	trial	item_name	item_num	list	answer	test_x	test_y	test_z
0	SESS_START	n/a	LTP312	ltpFR2	1	n/a	n/a	n/a	n/a	n/a	0	0	0
39553	START	n/a	LTP312	ltpFR2	1	n/a	n/a	n/a	-1	n/a	n/a	n/a	n/a
39575	PROB	n/a	LTP312	ltpFR2	1	n/a	n/a	n/a	-1	24	6	9	9
42852	PROB	n/a	LTP312	ltpFR2	1	n/a	n/a	n/a	-1	18	8	4	6
44819	PROB	n/a	LTP312	ltpFR2	1	n/a	n/a	n/a	-1	10	1	6	3
46487	PROB	n/a	LTP312	ltpFR2	1	n/a	n/a	n/a	-1	16	2	7	7
48221	PROB	n/a	LTP312	ltpFR2	1	n/a	n/a	n/a	-1	9	1	4	4
51553	STOP	n/a	LTP312	ltpFR2	1	n/a	n/a	n/a	-1	n/a	n/a	n/a	n/a
127702	WORD	wordpools/wasnorm_wordpool_576.txt	LTP312	ltpFR2	1	1	TURNIP	1521	n/a	n/a	0	0	0
130155	WORD	wordpools/wasnorm_wordpool_576.txt	LTP312	ltpFR2	1	1	FUNGUS	614	n/a	n/a	0	0	0
132708	WORD	wordpools/wasnorm_wordpool_576.txt	LTP312	ltpFR2	1	1	CLOUD	328	n/a	n/a	0	0	0
135159	WORD	wordpools/wasnorm_wordpool_576.txt	LTP312	ltpFR2	1	1	TEACHER	1440	n/a	n/a	0	0	0
137894	WORD	wordpools/wasnorm_wordpool_576.txt	LTP312	ltpFR2	1	1	TRACTOR	1493	n/a	n/a	0	0	0
140480	WORD	wordpools/wasnorm_wordpool_576.txt	LTP312	ltpFR2	1	1	LAKE	796	n/a	n/a	0	0	0
142949	WORD	wordpools/wasnorm_wordpool_576.txt	LTP312	ltpFR2	1	1	IGLOO	734	n/a	n/a	0	0	0
145685	WORD	wordpools/wasnorm_wordpool_576.txt	LTP312	ltpFR2	1	1	LIGHTNING	820	n/a	n/a	0	0	0
148252	WORD	wordpools/wasnorm_wordpool_576.txt	LTP312	ltpFR2	1	1	STUDENT	1395	n/a	n/a	0	0	0
150754	WORD	wordpools/wasnorm_wordpool_576.txt	LTP312	ltpFR2	1	1	GOBLIN	645	n/a	n/a	0	0	0
153525	WORD	wordpools/wasnorm_wordpool_576.txt	LTP312	ltpFR2	1	1	PLATE	1086	n/a	n/a	0	0	0
156310	WORD	wordpools/wasnorm_wordpool_576.txt	LTP312	ltpFR2	1	1	SPIDER	1351	n/a	n/a	0	0	0
158979	WORD	wordpools/wasnorm_wordpool_576.txt	LTP312	ltpFR2	1	1	BLACKBOARD	133	n/a	n/a	0	0	0
161447	WORD	wordpools/wasnorm_wordpool_576.txt	LTP312	ltpFR2	1	1	TART	1436	n/a	n/a	0	0	0
164182	WORD	wordpools/wasnorm_wordpool_576.txt	LTP312	ltpFR2	1	1	DENIM	446	n/a	n/a	0	0	0
166852	WORD	wordpools/wasnorm_wordpool_576.txt	LTP312	ltpFR2	1	1	PREACHER	1119	n/a	n/a	0	0	0
169537	WORD	wordpools/wasnorm_wordpool_576.txt	LTP312	ltpFR2	1	1	CASKET	255	n/a	n/a	0	0	0
172039	WORD	wordpools/wasnorm_wordpool_576.txt	LTP312	ltpFR2	1	1	PIMPLE	1071	n/a	n/a	0	0	0
174773	WORD	wordpools/wasnorm_wordpool_576.txt	LTP312	ltpFR2	1	1	FOREHEAD	592	n/a	n/a	0	0	0
177493	WORD	wordpools/wasnorm_wordpool_576.txt	LTP312	ltpFR2	1	1	YARN	1631	n/a	n/a	0	0	0
180078	WORD	wordpools/wasnorm_wordpool_576.txt	LTP312	ltpFR2	1	1	CIGAR	308	n/a	n/a	0	0	0
182565	WORD	wordpools/wasnorm_wordpool_576.txt	LTP312	ltpFR2	1	1	PROTON	1132	n/a	n/a	0	0	0
185216	WORD	wordpools/wasnorm_wordpool_576.txt	LTP312	ltpFR2	1	1	NEUTRON	947	n/a	n/a	0	0	0
187968	WORD	wordpools/wasnorm_wordpool_576.txt	LTP312	ltpFR2	1	1	LACE	792	n/a	n/a	0	0	0
189574	START	n/a	LTP312	ltpFR2	1	n/a	n/a	n/a	1	n/a	n/a	n/a	n/a
190714	DISTRACTOR	n/a	LTP312	ltpFR2	1	1	n/a	n/a	n/a	n/a	0	0	0
190721	PROB	n/a	LTP312	ltpFR2	1	n/a	n/a	n/a	1	16	7	3	6
192921	PROB	n/a	LTP312	ltpFR2	1	n/a	n/a	n/a	1	19	6	8	5
196141	PROB	n/a	LTP312	ltpFR2	1	n/a	n/a	n/a	1	10	4	4	2
197642	PROB	n/a	LTP312	ltpFR2	1	n/a	n/a	n/a	1	13	2	5	6
200679	PROB	n/a	LTP312	ltpFR2	1	n/a	n/a	n/a	1	21	9	4	8
203613	PROB	n/a	LTP312	ltpFR2	1	n/a	n/a	n/a	1	23	8	7	8
206082	PROB	n/a	LTP312	ltpFR2	1	n/a	n/a	n/a	1	12	2	9	1
207466	PROB	n/a	LTP312	ltpFR2	1	n/a	n/a	n/a	1	13	3	6	4
209083	PROB	n/a	LTP312	ltpFR2	1	n/a	n/a	n/a	1	11	3	6	2
213574	STOP	n/a	LTP312	ltpFR2	1	n/a	n/a	n/a	1	n/a	n/a	n/a	n/a
215322	REC_START	n/a	LTP312	ltpFR2	1	1	n/a	n/a	n/a	n/a	0	0	0
216455	REC_WORD	wordpools/wasnorm_wordpool_576.txt	LTP312	ltpFR2	1	1	TURNIP	1521	n/a	n/a	0	0	0
217741	REC_WORD	wordpools/wasnorm_wordpool_576.txt	LTP312	ltpFR2	1	1	FUNGUS	614	n/a	n/a	0	0	0
219248	REC_WORD	wordpools/wasnorm_wordpool_576.txt	LTP312	ltpFR2	1	1	IGLOO	734	n/a	n/a	0	0	0
220819	REC_WORD	wordpools/wasnorm_wordpool_576.txt	LTP312	ltpFR2	1	1	LIGHTNING	820	n/a	n/a	0	0	0
222359	REC_WORD	wordpools/wasnorm_wordpool_576.txt	LTP312	ltpFR2	1	1	TEACHER	1440	n/a	n/a	0	0	0
223787	REC_WORD	wordpools/wasnorm_wordpool_576.txt	LTP312	ltpFR2	1	1	STUDENT	1395	n/a	n/a	0	0	0
225555	REC_WORD	wordpools/wasnorm_wordpool_576.txt	LTP312	ltpFR2	1	1	LAKE	796	n/a	n/a	0	0	0
243379	REC_WORD	wordpools/wasnorm_wordpool_576.txt	LTP312	ltpFR2	1	1	TRACTOR	1493	n/a	n/a	0	0	0
247355	REC_WORD	wordpools/wasnorm_wordpool_576.txt	LTP312	ltpFR2	1	1	BLACKBOARD	133	n/a	n/a	0	0	0
252916	REC_WORD	wordpools/wasnorm_wordpool_576.txt	LTP312	ltpFR2	1	1	LACE	792	n/a	n/a	0	0	0
259987	REC_WORD	wordpools/wasnorm_wordpool_576.txt	LTP312	ltpFR2	1	1	FOREHEAD	592	n/a	n/a	0	0	0
269293	REC_WORD	wordpools/wasnorm_wordpool_576.txt	LTP312	ltpFR2	1	1	GOBLIN	645	n/a	n/a	0	0	0
305746	DISTRACTOR	n/a	LTP312	ltpFR2	1	2	n/a	n/a	n/a	n/a	0	0	0
305746	START	n/a	LTP312	ltpFR2	1	n/a	n/a	n/a	2	n/a	n/a	n/a	n/a
305762	PROB	n/a	LTP312	ltpFR2	1	n/a	n/a	n/a	2	14	4	9	1
307863	PROB	n/a	LTP312	ltpFR2	1	n/a	n/a	n/a	2	19	8	9	3
310634	PROB	n/a	LTP312	ltpFR2	1	n/a	n/a	n/a	2	15	5	9	1
312485	PROB	n/a	LTP312	ltpFR2	1	n/a	n/a	n/a	2	11	4	5	2
316189	PROB	n/a	LTP312	ltpFR2	1	n/a	n/a	n/a	2	15	8	5	2
317855	PROB	n/a	LTP312	ltpFR2	1	n/a	n/a	n/a	2	8	2	2	4
319239	PROB	n/a	LTP312	ltpFR2	1	n/a	n/a	n/a	2	20	7	6	7
322176	PROB	n/a	LTP312	ltpFR2	1	n/a	n/a	n/a	2	13	7	3	5
324595	PROB	n/a	LTP312	ltpFR2	1	n/a	n/a	n/a	2	11	2	2	7
327180	PROB	n/a	LTP312	ltpFR2	1	n/a	n/a	n/a	2	11	6	4	1
328590	STOP	n/a	LTP312	ltpFR2	1	n/a	n/a	n/a	2	n/a	n/a	n/a	n/a
330882	WORD	wordpools/wasnorm_wordpool_576.txt	LTP312	ltpFR2	1	2	BULLET	194	n/a	n/a	0	0	0
333616	WORD	wordpools/wasnorm_wordpool_576.txt	LTP312	ltpFR2	1	2	SIBLING	1301	n/a	n/a	0	0	0
336118	WORD	wordpools/wasnorm_wordpool_576.txt	LTP312	ltpFR2	1	2	COD	340	n/a	n/a	0	0	0
338820	WORD	wordpools/wasnorm_wordpool_576.txt	LTP312	ltpFR2	1	2	FLIPPER	580	n/a	n/a	0	0	0
341274	WORD	wordpools/wasnorm_wordpool_576.txt	LTP312	ltpFR2	1	2	ICING	732	n/a	n/a	0	0	0
343807	WORD	wordpools/wasnorm_wordpool_576.txt	LTP312	ltpFR2	1	2	FIDDLE	561	n/a	n/a	0	0	0
346393	WORD	wordpools/wasnorm_wordpool_576.txt	LTP312	ltpFR2	1	2	SISTER	1312	n/a	n/a	0	0	0
349148	WORD	wordpools/wasnorm_wordpool_576.txt	LTP312	ltpFR2	1	2	SPOUSE	1358	n/a	n/a	0	0	0
351733	WORD	wordpools/wasnorm_wordpool_576.txt	LTP312	ltpFR2	1	2	ELBOW	520	n/a	n/a	0	0	0
354317	WORD	wordpools/wasnorm_wordpool_576.txt	LTP312	ltpFR2	1	2	MEAT	883	n/a	n/a	0	0	0
357069	WORD	wordpools/wasnorm_wordpool_576.txt	LTP312	ltpFR2	1	2	PUDDLE	1140	n/a	n/a	0	0	0
359555	WORD	wordpools/wasnorm_wordpool_576.txt	LTP312	ltpFR2	1	2	SUITCASE	1403	n/a	n/a	0	0	0
362074	WORD	wordpools/wasnorm_wordpool_576.txt	LTP312	ltpFR2	1	2	WORLD	1622	n/a	n/a	0	0	0
364825	WORD	wordpools/wasnorm_wordpool_576.txt	LTP312	ltpFR2	1	2	WAITRESS	1581	n/a	n/a	0	0	0
367580	WORD	wordpools/wasnorm_wordpool_576.txt	LTP312	ltpFR2	1	2	WAITER	1580	n/a	n/a	0	0	0
370063	WORD	wordpools/wasnorm_wordpool_576.txt	LTP312	ltpFR2	1	2	GANGSTER	620	n/a	n/a	0	0	0
372850	WORD	wordpools/wasnorm_wordpool_576.txt	LTP312	ltpFR2	1	2	ZIPPER	1636	n/a	n/a	0	0	0
375435	WORD	wordpools/wasnorm_wordpool_576.txt	LTP312	ltpFR2	1	2	COUNTRY	388	n/a	n/a	0	0	0
377987	WORD	wordpools/wasnorm_wordpool_576.txt	LTP312	ltpFR2	1	2	PAIL	1002	n/a	n/a	0	0	0
380524	WORD	wordpools/wasnorm_wordpool_576.txt	LTP312	ltpFR2	1	2	ATLAS	53	n/a	n/a	0	0	0
383175	WORD	wordpools/wasnorm_wordpool_576.txt	LTP312	ltpFR2	1	2	CRITIC	410	n/a	n/a	0	0	0
385943	WORD	wordpools/wasnorm_wordpool_576.txt	LTP312	ltpFR2	1	2	BRIEFCASE	175	n/a	n/a	0	0	0
388379	WORD	wordpools/wasnorm_wordpool_576.txt	LTP312	ltpFR2	1	2	WARDROBE	1587	n/a	n/a	0	0	0
391031	WORD	wordpools/wasnorm_wordpool_576.txt	LTP312	ltpFR2	1	2	BUTCHER	203	n/a	n/a	0	0	0
392651	START	n/a	LTP312	ltpFR2	1	n/a	n/a	n/a	3	n/a	n/a	n/a	n/a
393672	DISTRACTOR	n/a	LTP312	ltpFR2	1	2	n/a	n/a	n/a	n/a	0	0	0
393684	PROB	n/a	LTP312	ltpFR2	1	n/a	n/a	n/a	3	18	6	8	4
395685	PROB	n/a	LTP312	ltpFR2	1	n/a	n/a	n/a	3	16	4	4	8
397986	PROB	n/a	LTP312	ltpFR2	1	n/a	n/a	n/a	3	18	5	7	6
400955	PROB	n/a	LTP312	ltpFR2	1	n/a	n/a	n/a	3	7	4	2	1
402907	PROB	n/a	LTP312	ltpFR2	1	n/a	n/a	n/a	3	10	2	1	7
404408	PROB	n/a	LTP312	ltpFR2	1	n/a	n/a	n/a	3	17	5	9	3
407226	PROB	n/a	LTP312	ltpFR2	1	n/a	n/a	n/a	3	18	6	9	3
409178	PROB	n/a	LTP312	ltpFR2	1	n/a	n/a	n/a	3	11	3	6	2
411430	PROB	n/a	LTP312	ltpFR2	1	n/a	n/a	n/a	3	15	2	4	9
413766	PROB	n/a	LTP312	ltpFR2	1	n/a	n/a	n/a	3	10	1	6	3
415480	STOP	n/a	LTP312	ltpFR2	1	n/a	n/a	n/a	3	n/a	n/a	n/a	n/a
418522	REC_START	n/a	LTP312	ltpFR2	1	2	n/a	n/a	n/a	n/a	0	0	0
421330	REC_WORD	wordpools/wasnorm_wordpool_576.txt	LTP312	ltpFR2	1	2	FIDDLE	561	n/a	n/a	0	0	0
422566	REC_WORD	wordpools/wasnorm_wordpool_576.txt	LTP312	ltpFR2	1	2	SUITCASE	1403	n/a	n/a	0	0	0
424188	REC_WORD	wordpools/wasnorm_wordpool_576.txt	LTP312	ltpFR2	1	2	BRIEFCASE	175	n/a	n/a	0	0	0
426125	REC_WORD	wordpools/wasnorm_wordpool_576.txt	LTP312	ltpFR2	1	2	WARDROBE	1587	n/a	n/a	0	0	0
430785	REC_WORD	wordpools/wasnorm_wordpool_576.txt	LTP312	ltpFR2	1	2	ATLAS	53	n/a	n/a	0	0	0
432253	REC_WORD	wordpools/wasnorm_wordpool_576.txt	LTP312	ltpFR2	1	2	CRITIC	410	n/a	n/a	0	0	0
433862	REC_WORD	wordpools/wasnorm_wordpool_576.txt	LTP312	ltpFR2	1	2	DAUGHTER	442	n/a	n/a	0	0	0
435504	REC_WORD	wordpools/wasnorm_wordpool_576.txt	LTP312	ltpFR2	1	2	SISTER	1312	n/a	n/a	0	0	0
437305	REC_WORD	wordpools/wasnorm_wordpool_576.txt	LTP312	ltpFR2	1	2	SPOUSE	1358	n/a	n/a	0	0	0
476276	REC_WORD	wordpools/wasnorm_wordpool_576.txt	LTP312	ltpFR2	1	2	MEAT	883	n/a	n/a	0	0	0
479876	REC_WORD	wordpools/wasnorm_wordpool_576.txt	LTP312	ltpFR2	1	2	PUDDLE	1140	n/a	n/a	0	0	0
514497	WORD	wordpools/wasnorm_wordpool_576.txt	LTP312	ltpFR2	1	3	PUPPY	1144	n/a	n/a	0	0	0
517126	WORD	wordpools/wasnorm_wordpool_576.txt	LTP312	ltpFR2	1	3	RECEIPT	1173	n/a	n/a	0	0	0
519752	WORD	wordpools/wasnorm_wordpool_576.txt	LTP312	ltpFR2	1	3	ISLAND	745	n/a	n/a	0	0	0
522380	WORD	wordpools/wasnorm_wordpool_576.txt	LTP312	ltpFR2	1	3	COOKBOOK	373	n/a	n/a	0	0	0
524865	WORD	wordpools/wasnorm_wordpool_576.txt	LTP312	ltpFR2	1	3	TUBA	1515	n/a	n/a	0	0	0
527585	WORD	wordpools/wasnorm_wordpool_576.txt	LTP312	ltpFR2	1	3	PRINCESS	1125	n/a	n/a	0	0	0
530020	WORD	wordpools/wasnorm_wordpool_576.txt	LTP312	ltpFR2	1	3	FRIAR	605	n/a	n/a	0	0	0
532657	WORD	wordpools/wasnorm_wordpool_576.txt	LTP312	ltpFR2	1	3	COLONEL	348	n/a	n/a	0	0	0
535297	WORD	wordpools/wasnorm_wordpool_576.txt	LTP312	ltpFR2	1	3	COCKTAIL	338	n/a	n/a	0	0	0
537900	WORD	wordpools/wasnorm_wordpool_576.txt	LTP312	ltpFR2	1	3	SODA	1341	n/a	n/a	0	0	0
540362	WORD	wordpools/wasnorm_wordpool_576.txt	LTP312	ltpFR2	1	3	MONEY	908	n/a	n/a	0	0	0
542781	WORD	wordpools/wasnorm_wordpool_576.txt	LTP312	ltpFR2	1	3	RUST	1219	n/a	n/a	0	0	0
545568	WORD	wordpools/wasnorm_wordpool_576.txt	LTP312	ltpFR2	1	3	HELMET	702	n/a	n/a	0	0	0
548269	WORD	wordpools/wasnorm_wordpool_576.txt	LTP312	ltpFR2	1	3	CAMEL	223	n/a	n/a	0	0	0
550988	WORD	wordpools/wasnorm_wordpool_576.txt	LTP312	ltpFR2	1	3	TRIBE	1505	n/a	n/a	0	0	0
553592	WORD	wordpools/wasnorm_wordpool_576.txt	LTP312	ltpFR2	1	3	CRAB	397	n/a	n/a	0	0	0
556060	WORD	wordpools/wasnorm_wordpool_576.txt	LTP312	ltpFR2	1	3	STOVE	1388	n/a	n/a	0	0	0
558545	WORD	wordpools/wasnorm_wordpool_576.txt	LTP312	ltpFR2	1	3	KITCHEN	778	n/a	n/a	0	0	0
561265	WORD	wordpools/wasnorm_wordpool_576.txt	LTP312	ltpFR2	1	3	CHAUFFEUR	283	n/a	n/a	0	0	0
563771	WORD	wordpools/wasnorm_wordpool_576.txt	LTP312	ltpFR2	1	3	LUGGAGE	847	n/a	n/a	0	0	0
566218	WORD	wordpools/wasnorm_wordpool_576.txt	LTP312	ltpFR2	1	3	PERCH	1048	n/a	n/a	0	0	0
568787	WORD	wordpools/wasnorm_wordpool_576.txt	LTP312	ltpFR2	1	3	BOYFRIEND	162	n/a	n/a	0	0	0
571373	WORD	wordpools/wasnorm_wordpool_576.txt	LTP312	ltpFR2	1	3	FRIEND	606	n/a	n/a	0	0	0
574159	WORD	wordpools/wasnorm_wordpool_576.txt	LTP312	ltpFR2	1	3	DOUGHNUT	490	n/a	n/a	0	0	0
575765	START	n/a	LTP312	ltpFR2	1	n/a	n/a	n/a	4	n/a	n/a	n/a	n/a
576768	DISTRACTOR	n/a	LTP312	ltpFR2	1	3	n/a	n/a	n/a	n/a	0	0	0
576777	PROB	n/a	LTP312	ltpFR2	1	n/a	n/a	n/a	4	12	4	2	6
578444	PROB	n/a	LTP312	ltpFR2	1	n/a	n/a	n/a	4	13	8	3	2
580030	PROB	n/a	LTP312	ltpFR2	1	n/a	n/a	n/a	4	12	1	6	5
581748	PROB	n/a	LTP312	ltpFR2	1	n/a	n/a	n/a	4	8	3	3	2
583215	PROB	n/a	LTP312	ltpFR2	1	n/a	n/a	n/a	4	18	8	3	7
584686	PROB	n/a	LTP312	ltpFR2	1	n/a	n/a	n/a	4	9	4	4	1
585903	PROB	n/a	LTP312	ltpFR2	1	n/a	n/a	n/a	4	12	1	7	4
588355	PROB	n/a	LTP312	ltpFR2	1	n/a	n/a	n/a	4	21	7	7	7
590389	PROB	n/a	LTP312	ltpFR2	1	n/a	n/a	n/a	4	17	8	5	4
593393	PROB	n/a	LTP312	ltpFR2	1	n/a	n/a	n/a	4	9	1	3	5
594729	PROB	n/a	LTP312	ltpFR2	1	n/a	n/a	n/a	4	10	1	8	1
596294	PROB	n/a	LTP312	ltpFR2	1	n/a	n/a	n/a	4	9	2	3	4
598392	STOP	n/a	LTP312	ltpFR2	1	n/a	n/a	n/a	4	n/a	n/a	n/a	n/a
601619	REC_START	n/a	LTP312	ltpFR2	1	3	n/a	n/a	n/a	n/a	0	0	0
602717	REC_WORD	wordpools/wasnorm_wordpool_576.txt	LTP312	ltpFR2	1	3	PUPPY	1144	n/a	n/a	0	0	0
603884	REC_WORD	wordpools/wasnorm_wordpool_576.txt	LTP312	ltpFR2	1	3	RECEIPT	1173	n/a	n/a	0	0	0
605407	REC_WORD	wordpools/wasnorm_wordpool_576.txt	LTP312	ltpFR2	1	3	SODA	1341	n/a	n/a	0	0	0
606926	REC_WORD	wordpools/wasnorm_wordpool_576.txt	LTP312	ltpFR2	1	3	COCKTAIL	338	n/a	n/a	0	0	0
608684	REC_WORD	wordpools/wasnorm_wordpool_576.txt	LTP312	ltpFR2	1	3	MONEY	908	n/a	n/a	0	0	0
612163	REC_WORD	wordpools/wasnorm_wordpool_576.txt	LTP312	ltpFR2	1	3	CRAB	397	n/a	n/a	0	0	0
614193	REC_WORD	wordpools/wasnorm_wordpool_576.txt	LTP312	ltpFR2	1	3	CHAUFFEUR	283	n/a	n/a	0	0	0
615853	REC_WORD	wordpools/wasnorm_wordpool_576.txt	LTP312	ltpFR2	1	3	LUGGAGE	847	n/a	n/a	0	0	0
617100	REC_WORD	wordpools/wasnorm_wordpool_576.txt	LTP312	ltpFR2	1	3	FRIAR	605	n/a	n/a	0	0	0
618450	REC_WORD	wordpools/wasnorm_wordpool_576.txt	LTP312	ltpFR2	1	3	COLONEL	348	n/a	n/a	0	0	0
692056	WORD	wordpools/wasnorm_wordpool_576.txt	LTP312	ltpFR2	1	4	TABLET	1427	n/a	n/a	0	0	0
694843	WORD	wordpools/wasnorm_wordpool_576.txt	LTP312	ltpFR2	1	4	DAISY	435	n/a	n/a	0	0	0
697278	WORD	wordpools/wasnorm_wordpool_576.txt	LTP312	ltpFR2	1	4	MARKER	870	n/a	n/a	0	0	0
700064	WORD	wordpools/wasnorm_wordpool_576.txt	LTP312	ltpFR2	1	4	EYELASH	546	n/a	n/a	0	0	0
702639	WORD	wordpools/wasnorm_wordpool_576.txt	LTP312	ltpFR2	1	4	SALAD	1224	n/a	n/a	0	0	0
705118	WORD	wordpools/wasnorm_wordpool_576.txt	LTP312	ltpFR2	1	4	DRILL	497	n/a	n/a	0	0	0
707870	WORD	wordpools/wasnorm_wordpool_576.txt	LTP312	ltpFR2	1	4	BINDER	127	n/a	n/a	0	0	0
710439	WORD	wordpools/wasnorm_wordpool_576.txt	LTP312	ltpFR2	1	4	FOREST	593	n/a	n/a	0	0	0
712974	WORD	wordpools/wasnorm_wordpool_576.txt	LTP312	ltpFR2	1	4	PEACH	1031	n/a	n/a	0	0	0
715649	WORD	wordpools/wasnorm_wordpool_576.txt	LTP312	ltpFR2	1	4	CLAM	315	n/a	n/a	0	0	0
718228	WORD	wordpools/wasnorm_wordpool_576.txt	LTP312	ltpFR2	1	4	HATCHET	691	n/a	n/a	0	0	0
720838	WORD	wordpools/wasnorm_wordpool_576.txt	LTP312	ltpFR2	1	4	BLADE	134	n/a	n/a	0	0	0
723541	WORD	wordpools/wasnorm_wordpool_576.txt	LTP312	ltpFR2	1	4	MONSTER	912	n/a	n/a	0	0	0
725958	WORD	wordpools/wasnorm_wordpool_576.txt	LTP312	ltpFR2	1	4	COBRA	336	n/a	n/a	0	0	0
728661	WORD	wordpools/wasnorm_wordpool_576.txt	LTP312	ltpFR2	1	4	BUGGY	188	n/a	n/a	0	0	0
731179	WORD	wordpools/wasnorm_wordpool_576.txt	LTP312	ltpFR2	1	4	DUSTPAN	509	n/a	n/a	0	0	0
733725	WORD	wordpools/wasnorm_wordpool_576.txt	LTP312	ltpFR2	1	4	SPONGE	1355	n/a	n/a	0	0	0
736267	WORD	wordpools/wasnorm_wordpool_576.txt	LTP312	ltpFR2	1	4	COWBOY	395	n/a	n/a	0	0	0
739086	WORD	wordpools/wasnorm_wordpool_576.txt	LTP312	ltpFR2	1	4	BRACES	164	n/a	n/a	0	0	0
741597	WORD	wordpools/wasnorm_wordpool_576.txt	LTP312	ltpFR2	1	4	DENTIST	447	n/a	n/a	0	0	0
744308	WORD	wordpools/wasnorm_wordpool_576.txt	LTP312	ltpFR2	1	4	PERMIT	1051	n/a	n/a	0	0	0
746801	WORD	wordpools/wasnorm_wordpool_576.txt	LTP312	ltpFR2	1	4	CRAYON	401	n/a	n/a	0	0	0
749538	WORD	wordpools/wasnorm_wordpool_576.txt	LTP312	ltpFR2	1	4	COMPASS	358	n/a	n/a	0	0	0
752114	WORD	wordpools/wasnorm_wordpool_576.txt	LTP312	ltpFR2	1	4	COTTAGE	384	n/a	n/a	0	0	0
753725	START	n/a	LTP312	ltpFR2	1	n/a	n/a	n/a	5	n/a	n/a	n/a	n/a
754721	DISTRACTOR	n/a	LTP312	ltpFR2	1	4	n/a	n/a	n/a	n/a	0	0	0
754733	PROB	n/a	LTP312	ltpFR2	1	n/a	n/a	n/a	5	17	9	3	5
757041	PROB	n/a	LTP312	ltpFR2	1	n/a	n/a	n/a	5	17	7	9	1
758577	PROB	n/a	LTP312	ltpFR2	1	n/a	n/a	n/a	5	18	7	7	4
760278	PROB	n/a	LTP312	ltpFR2	1	n/a	n/a	n/a	5	15	9	1	5
761547	PROB	n/a	LTP312	ltpFR2	1	n/a	n/a	n/a	5	13	1	6	6
763296	PROB	n/a	LTP312	ltpFR2	1	n/a	n/a	n/a	5	23	9	9	5
764965	PROB	n/a	LTP312	ltpFR2	1	n/a	n/a	n/a	5	5	2	1	2
766183	PROB	n/a	LTP312	ltpFR2	1	n/a	n/a	n/a	5	9	4	3	2
767552	PROB	n/a	LTP312	ltpFR2	1	n/a	n/a	n/a	5	20	9	8	3
771687	PROB	n/a	LTP312	ltpFR2	1	n/a	n/a	n/a	5	9	2	2	5
773706	PROB	n/a	LTP312	ltpFR2	1	n/a	n/a	n/a	5	15	5	2	8
775389	PROB	n/a	LTP312	ltpFR2	1	n/a	n/a	n/a	5	8	3	2	3
776759	STOP	n/a	LTP312	ltpFR2	1	n/a	n/a	n/a	5	n/a	n/a	n/a	n/a
779628	REC_START	n/a	LTP312	ltpFR2	1	4	n/a	n/a	n/a	n/a	0	0	0
781302	REC_WORD	wordpools/wasnorm_wordpool_576.txt	LTP312	ltpFR2	1	4	CLAM	315	n/a	n/a	0	0	0
782954	REC_WORD	wordpools/wasnorm_wordpool_576.txt	LTP312	ltpFR2	1	4	CRAYON	401	n/a	n/a	0	0	0
784472	REC_WORD	wordpools/wasnorm_wordpool_576.txt	LTP312	ltpFR2	1	4	COTTAGE	384	n/a	n/a	0	0	0
787201	REC_WORD	wordpools/wasnorm_wordpool_576.txt	LTP312	ltpFR2	1	4	MONSTER	912	n/a	n/a	0	0	0
788708	REC_WORD	wordpools/wasnorm_wordpool_576.txt	LTP312	ltpFR2	1	4	COBRA	336	n/a	n/a	0	0	0
790327	REC_WORD	wordpools/wasnorm_wordpool_576.txt	LTP312	ltpFR2	1	4	TABLET	1427	n/a	n/a	0	0	0
798638	REC_WORD	wordpools/wasnorm_wordpool_576.txt	LTP312	ltpFR2	1	4	CUSTARD	429	n/a	n/a	0	0	0
813155	REC_WORD	wordpools/wasnorm_wordpool_576.txt	LTP312	ltpFR2	1	4	DAISY	435	n/a	n/a	0	0	0
870085	DISTRACTOR	n/a	LTP312	ltpFR2	1	5	n/a	n/a	n/a	n/a	0	0	0
870085	START	n/a	LTP312	ltpFR2	1	n/a	n/a	n/a	6	n/a	n/a	n/a	n/a
870100	PROB	n/a	LTP312	ltpFR2	1	n/a	n/a	n/a	6	12	7	4	1
872203	PROB	n/a	LTP312	ltpFR2	1	n/a	n/a	n/a	6	12	5	6	1
873802	PROB	n/a	LTP312	ltpFR2	1	n/a	n/a	n/a	6	12	6	1	5
875237	PROB	n/a	LTP312	ltpFR2	1	n/a	n/a	n/a	6	19	5	8	6
878205	PROB	n/a	LTP312	ltpFR2	1	n/a	n/a	n/a	6	14	5	4	4
881626	PROB	n/a	LTP312	ltpFR2	1	n/a	n/a	n/a	6	10	1	4	5
885896	PROB	n/a	LTP312	ltpFR2	1	n/a	n/a	n/a	6	15	5	9	1
887414	PROB	n/a	LTP312	ltpFR2	1	n/a	n/a	n/a	6	12	1	9	2
888899	PROB	n/a	LTP312	ltpFR2	1	n/a	n/a	n/a	6	14	8	4	2
890499	PROB	n/a	LTP312	ltpFR2	1	n/a	n/a	n/a	6	12	5	6	1
891984	PROB	n/a	LTP312	ltpFR2	1	n/a	n/a	n/a	6	15	4	7	4
894060	STOP	n/a	LTP312	ltpFR2	1	n/a	n/a	n/a	6	n/a	n/a	n/a	n/a
895271	WORD	wordpools/wasnorm_wordpool_576.txt	LTP312	ltpFR2	1	5	KIDNEY	776	n/a	n/a	0	0	0
897872	WORD	wordpools/wasnorm_wordpool_576.txt	LTP312	ltpFR2	1	5	NAPKIN	937	n/a	n/a	0	0	0
900559	WORD	wordpools/wasnorm_wordpool_576.txt	LTP312	ltpFR2	1	5	COOK	372	n/a	n/a	0	0	0
903093	WORD	wordpools/wasnorm_wordpool_576.txt	LTP312	ltpFR2	1	5	CRATER	400	n/a	n/a	0	0	0
905863	WORD	wordpools/wasnorm_wordpool_576.txt	LTP312	ltpFR2	1	5	SKETCH	1315	n/a	n/a	0	0	0
908331	WORD	wordpools/wasnorm_wordpool_576.txt	LTP312	ltpFR2	1	5	GIFT	635	n/a	n/a	0	0	0
910933	WORD	wordpools/wasnorm_wordpool_576.txt	LTP312	ltpFR2	1	5	SHORTCAKE	1292	n/a	n/a	0	0	0
913623	WORD	wordpools/wasnorm_wordpool_576.txt	LTP312	ltpFR2	1	5	ORANGE	980	n/a	n/a	0	0	0
916054	WORD	wordpools/wasnorm_wordpool_576.txt	LTP312	ltpFR2	1	5	CANDY	230	n/a	n/a	0	0	0
918557	WORD	wordpools/wasnorm_wordpool_576.txt	LTP312	ltpFR2	1	5	BATHTUB	100	n/a	n/a	0	0	0
921279	WORD	wordpools/wasnorm_wordpool_576.txt	LTP312	ltpFR2	1	5	BANJO	82	n/a	n/a	0	0	0
923910	WORD	wordpools/wasnorm_wordpool_576.txt	LTP312	ltpFR2	1	5	POLICE	1098	n/a	n/a	0	0	0
926550	WORD	wordpools/wasnorm_wordpool_576.txt	LTP312	ltpFR2	1	5	GLASS	639	n/a	n/a	0	0	0
929064	WORD	wordpools/wasnorm_wordpool_576.txt	LTP312	ltpFR2	1	5	TEMPLE	1448	n/a	n/a	0	0	0
931583	WORD	wordpools/wasnorm_wordpool_576.txt	LTP312	ltpFR2	1	5	NURSE	963	n/a	n/a	0	0	0
934001	WORD	wordpools/wasnorm_wordpool_576.txt	LTP312	ltpFR2	1	5	PATIENT	1024	n/a	n/a	0	0	0
936672	WORD	wordpools/wasnorm_wordpool_576.txt	LTP312	ltpFR2	1	5	BEAKER	104	n/a	n/a	0	0	0
939377	WORD	wordpools/wasnorm_wordpool_576.txt	LTP312	ltpFR2	1	5	HERO	706	n/a	n/a	0	0	0
941958	WORD	wordpools/wasnorm_wordpool_576.txt	LTP312	ltpFR2	1	5	TROUT	1511	n/a	n/a	0	0	0
944766	WORD	wordpools/wasnorm_wordpool_576.txt	LTP312	ltpFR2	1	5	SHERIFF	1284	n/a	n/a	0	0	0
947185	WORD	wordpools/wasnorm_wordpool_576.txt	LTP312	ltpFR2	1	5	SPARROW	1347	n/a	n/a	0	0	0
949904	WORD	wordpools/wasnorm_wordpool_576.txt	LTP312	ltpFR2	1	5	SKILLET	1317	n/a	n/a	0	0	0
952383	WORD	wordpools/wasnorm_wordpool_576.txt	LTP312	ltpFR2	1	5	TURKEY	1520	n/a	n/a	0	0	0
954885	WORD	wordpools/wasnorm_wordpool_576.txt	LTP312	ltpFR2	1	5	BANQUET	86	n/a	n/a	0	0	0
956494	START	n/a	LTP312	ltpFR2	1	n/a	n/a	n/a	7	n/a	n/a	n/a	n/a
957596	DISTRACTOR	n/a	LTP312	ltpFR2	1	5	n/a	n/a	n/a	n/a	0	0	0
957604	PROB	n/a	LTP312	ltpFR2	1	n/a	n/a	n/a	7	13	2	8	3
959405	PROB	n/a	LTP312	ltpFR2	1	n/a	n/a	n/a	7	17	1	7	9
961255	PROB	n/a	LTP312	ltpFR2	1	n/a	n/a	n/a	7	14	8	2	4
962626	PROB	n/a	LTP312	ltpFR2	1	n/a	n/a	n/a	7	11	2	8	1
963942	PROB	n/a	LTP312	ltpFR2	1	n/a	n/a	n/a	7	11	1	2	8
965209	PROB	n/a	LTP312	ltpFR2	1	n/a	n/a	n/a	7	14	1	7	6
967094	PROB	n/a	LTP312	ltpFR2	1	n/a	n/a	n/a	7	15	5	9	1
968679	PROB	n/a	LTP312	ltpFR2	1	n/a	n/a	n/a	7	17	5	4	8
970930	PROB	n/a	LTP312	ltpFR2	1	n/a	n/a	n/a	7	18	9	2	7
972832	PROB	n/a	LTP312	ltpFR2	1	n/a	n/a	n/a	7	14	9	1	4
974149	PROB	n/a	LTP312	ltpFR2	1	n/a	n/a	n/a	7	13	3	2	8
975618	PROB	n/a	LTP312	ltpFR2	1	n/a	n/a	n/a	7	19	8	5	6
978854	PROB	n/a	LTP312	ltpFR2	1	n/a	n/a	n/a	7	4	1	2	1
980016	STOP	n/a	LTP312	ltpFR2	1	n/a	n/a	n/a	7	n/a	n/a	n/a	n/a
982409	REC_START	n/a	LTP312	ltpFR2	1	5	n/a	n/a	n/a	n/a	0	0	0
983523	REC_WORD	wordpools/wasnorm_wordpool_576.txt	LTP312	ltpFR2	1	5	TURKEY	1520	n/a	n/a	0	0	0
984902	REC_WORD	wordpools/wasnorm_wordpool_576.txt	LTP312	ltpFR2	1	5	BANQUET	86	n/a	n/a	0	0	0
986580	REC_WORD	wordpools/wasnorm_wordpool_576.txt	LTP312	ltpFR2	1	5	HERO	706	n/a	n/a	0	0	0
987858	REC_WORD	wordpools/wasnorm_wordpool_576.txt	LTP312	ltpFR2	1	5	POLICE	1098	n/a	n/a	0	0	0
989408	REC_WORD	wordpools/wasnorm_wordpool_576.txt	LTP312	ltpFR2	1	5	SHERIFF	1284	n/a	n/a	0	0	0
991500	REC_WORD	wordpools/wasnorm_wordpool_576.txt	LTP312	ltpFR2	1	5	SPARROW	1347	n/a	n/a	0	0	0
1014077	REC_WORD	wordpools/wasnorm_wordpool_576.txt	LTP312	ltpFR2	1	5	NURSE	963	n/a	n/a	0	0	0
1015728	REC_WORD	wordpools/wasnorm_wordpool_576.txt	LTP312	ltpFR2	1	5	TEMPLE	1448	n/a	n/a	0	0	0
1082854	DISTRACTOR	n/a	LTP312	ltpFR2	1	6	n/a	n/a	n/a	n/a	0	0	0
1082854	START	n/a	LTP312	ltpFR2	1	n/a	n/a	n/a	8	n/a	n/a	n/a	n/a
1082872	PROB	n/a	LTP312	ltpFR2	1	n/a	n/a	n/a	8	10	1	6	3
1084722	PROB	n/a	LTP312	ltpFR2	1	n/a	n/a	n/a	8	23	8	7	8
1086906	PROB	n/a	LTP312	ltpFR2	1	n/a	n/a	n/a	8	10	5	3	2
1089042	PROB	n/a	LTP312	ltpFR2	1	n/a	n/a	n/a	8	23	8	7	8
1090843	PROB	n/a	LTP312	ltpFR2	1	n/a	n/a	n/a	8	7	4	1	2
1092895	PROB	n/a	LTP312	ltpFR2	1	n/a	n/a	n/a	8	14	1	9	4
1094331	PROB	n/a	LTP312	ltpFR2	1	n/a	n/a	n/a	8	13	3	3	7
1096148	PROB	n/a	LTP312	ltpFR2	1	n/a	n/a	n/a	8	16	2	6	8
1098166	PROB	n/a	LTP312	ltpFR2	1	n/a	n/a	n/a	8	13	5	6	2
1099802	PROB	n/a	LTP312	ltpFR2	1	n/a	n/a	n/a	8	7	2	1	4
1101286	PROB	n/a	LTP312	ltpFR2	1	n/a	n/a	n/a	8	18	3	7	8
1103137	PROB	n/a	LTP312	ltpFR2	1	n/a	n/a	n/a	8	18	4	7	7
1106854	STOP	n/a	LTP312	ltpFR2	1	n/a	n/a	n/a	8	n/a	n/a	n/a	n/a
1107775	WORD	wordpools/wasnorm_wordpool_576.txt	LTP312	ltpFR2	1	6	MILK	895	n/a	n/a	0	0	0
1110444	WORD	wordpools/wasnorm_wordpool_576.txt	LTP312	ltpFR2	1	6	CARROT	249	n/a	n/a	0	0	0
1113062	WORD	wordpools/wasnorm_wordpool_576.txt	LTP312	ltpFR2	1	6	PARENT	1013	n/a	n/a	0	0	0
1115549	WORD	wordpools/wasnorm_wordpool_576.txt	LTP312	ltpFR2	1	6	SCULPTURE	1258	n/a	n/a	0	0	0
1118034	WORD	wordpools/wasnorm_wordpool_576.txt	LTP312	ltpFR2	1	6	JURY	766	n/a	n/a	0	0	0
1120801	WORD	wordpools/wasnorm_wordpool_576.txt	LTP312	ltpFR2	1	6	FINGER	567	n/a	n/a	0	0	0
1123337	WORD	wordpools/wasnorm_wordpool_576.txt	LTP312	ltpFR2	1	6	WRIST	1626	n/a	n/a	0	0	0
1126122	WORD	wordpools/wasnorm_wordpool_576.txt	LTP312	ltpFR2	1	6	PERFUME	1049	n/a	n/a	0	0	0
1128794	WORD	wordpools/wasnorm_wordpool_576.txt	LTP312	ltpFR2	1	6	LEADER	807	n/a	n/a	0	0	0
1131295	WORD	wordpools/wasnorm_wordpool_576.txt	LTP312	ltpFR2	1	6	PLAID	1080	n/a	n/a	0	0	0
1133796	WORD	wordpools/wasnorm_wordpool_576.txt	LTP312	ltpFR2	1	6	PUPIL	1143	n/a	n/a	0	0	0
1136567	WORD	wordpools/wasnorm_wordpool_576.txt	LTP312	ltpFR2	1	6	DRIVER	499	n/a	n/a	0	0	0
1139233	WORD	wordpools/wasnorm_wordpool_576.txt	LTP312	ltpFR2	1	6	STICKER	1382	n/a	n/a	0	0	0
1141936	WORD	wordpools/wasnorm_wordpool_576.txt	LTP312	ltpFR2	1	6	BACON	67	n/a	n/a	0	0	0
1144674	WORD	wordpools/wasnorm_wordpool_576.txt	LTP312	ltpFR2	1	6	OMELET	976	n/a	n/a	0	0	0
1147357	WORD	wordpools/wasnorm_wordpool_576.txt	LTP312	ltpFR2	1	6	MILDEW	893	n/a	n/a	0	0	0
1149791	WORD	wordpools/wasnorm_wordpool_576.txt	LTP312	ltpFR2	1	6	SHOULDER	1294	n/a	n/a	0	0	0
1152595	WORD	wordpools/wasnorm_wordpool_576.txt	LTP312	ltpFR2	1	6	ASIA	46	n/a	n/a	0	0	0
1155313	WORD	wordpools/wasnorm_wordpool_576.txt	LTP312	ltpFR2	1	6	CITRUS	313	n/a	n/a	0	0	0
1158065	WORD	wordpools/wasnorm_wordpool_576.txt	LTP312	ltpFR2	1	6	STALLION	1369	n/a	n/a	0	0	0
1160585	WORD	wordpools/wasnorm_wordpool_576.txt	LTP312	ltpFR2	1	6	DRAWING	494	n/a	n/a	0	0	0
1163069	WORD	wordpools/wasnorm_wordpool_576.txt	LTP312	ltpFR2	1	6	ICEBERG	731	n/a	n/a	0	0	0
1165644	WORD	wordpools/wasnorm_wordpool_576.txt	LTP312	ltpFR2	1	6	LABEL	790	n/a	n/a	0	0	0
1168327	WORD	wordpools/wasnorm_wordpool_576.txt	LTP312	ltpFR2	1	6	GIRL	637	n/a	n/a	0	0	0
1169942	START	n/a	LTP312	ltpFR2	1	n/a	n/a	n/a	9	n/a	n/a	n/a	n/a
1170764	DISTRACTOR	n/a	LTP312	ltpFR2	1	6	n/a	n/a	n/a	n/a	0	0	0
1170776	PROB	n/a	LTP312	ltpFR2	1	n/a	n/a	n/a	9	14	3	9	2
1174545	PROB	n/a	LTP312	ltpFR2	1	n/a	n/a	n/a	9	17	6	3	8
1176829	PROB	n/a	LTP312	ltpFR2	1	n/a	n/a	n/a	9	23	7	7	9
1179115	PROB	n/a	LTP312	ltpFR2	1	n/a	n/a	n/a	9	16	7	2	7
1180916	PROB	n/a	LTP312	ltpFR2	1	n/a	n/a	n/a	9	15	4	4	9
1182502	PROB	n/a	LTP312	ltpFR2	1	n/a	n/a	n/a	9	23	9	7	7
1184969	PROB	n/a	LTP312	ltpFR2	1	n/a	n/a	n/a	9	13	2	3	8
1186706	PROB	n/a	LTP312	ltpFR2	1	n/a	n/a	n/a	9	14	6	4	4
1188155	PROB	n/a	LTP312	ltpFR2	1	n/a	n/a	n/a	9	23	5	9	9
1191108	PROB	n/a	LTP312	ltpFR2	1	n/a	n/a	n/a	9	5	2	2	1
1192209	PROB	n/a	LTP312	ltpFR2	1	n/a	n/a	n/a	9	8	4	3	1
1193570	STOP	n/a	LTP312	ltpFR2	1	n/a	n/a	n/a	9	n/a	n/a	n/a	n/a
1195728	REC_START	n/a	LTP312	ltpFR2	1	6	n/a	n/a	n/a	n/a	0	0	0
1197793	REC_WORD	wordpools/wasnorm_wordpool_576.txt	LTP312	ltpFR2	1	6	MILK	895	n/a	n/a	0	0	0
1198922	REC_WORD	wordpools/wasnorm_wordpool_576.txt	LTP312	ltpFR2	1	6	CARROT	249	n/a	n/a	0	0	0
1200363	REC_WORD	wordpools/wasnorm_wordpool_576.txt	LTP312	ltpFR2	1	6	PARENT	1013	n/a	n/a	0	0	0
1201915	REC_WORD	wordpools/wasnorm_wordpool_576.txt	LTP312	ltpFR2	1	6	BACON	67	n/a	n/a	0	0	0
1203287	REC_WORD	wordpools/wasnorm_wordpool_576.txt	LTP312	ltpFR2	1	6	OMELET	976	n/a	n/a	0	0	0
1204811	REC_WORD	wordpools/wasnorm_wordpool_576.txt	LTP312	ltpFR2	1	6	FINGER	567	n/a	n/a	0	0	0
1206129	REC_WORD	wordpools/wasnorm_wordpool_576.txt	LTP312	ltpFR2	1	6	WRIST	1626	n/a	n/a	0	0	0
1207287	REC_WORD	wordpools/wasnorm_wordpool_576.txt	LTP312	ltpFR2	1	6	PERFUME	1049	n/a	n/a	0	0	0
1208939	REC_WORD	wordpools/wasnorm_wordpool_576.txt	LTP312	ltpFR2	1	6	PUPIL	1143	n/a	n/a	0	0	0
1211443	REC_WORD	wordpools/wasnorm_wordpool_576.txt	LTP312	ltpFR2	1	6	DRIVER	499	n/a	n/a	0	0	0
1220044	REC_WORD	wordpools/wasnorm_wordpool_576.txt	LTP312	ltpFR2	1	6	PLAID	1080	n/a	n/a	0	0	0
1244393	REC_WORD	wordpools/wasnorm_wordpool_576.txt	LTP312	ltpFR2	1	6	FROLIC	-1	n/a	n/a	0	0	0
1286164	WORD	wordpools/wasnorm_wordpool_576.txt	LTP312	ltpFR2	1	7	GRAVEL	659	n/a	n/a	0	0	0
1288971	WORD	wordpools/wasnorm_wordpool_576.txt	LTP312	ltpFR2	1	7	MOTOR	922	n/a	n/a	0	0	0
1291691	WORD	wordpools/wasnorm_wordpool_576.txt	LTP312	ltpFR2	1	7	HAND	683	n/a	n/a	0	0	0
1294171	WORD	wordpools/wasnorm_wordpool_576.txt	LTP312	ltpFR2	1	7	ARM	38	n/a	n/a	0	0	0
1296823	WORD	wordpools/wasnorm_wordpool_576.txt	LTP312	ltpFR2	1	7	BANKER	84	n/a	n/a	0	0	0
1299259	WORD	wordpools/wasnorm_wordpool_576.txt	LTP312	ltpFR2	1	7	CASHIER	254	n/a	n/a	0	0	0
1301845	WORD	wordpools/wasnorm_wordpool_576.txt	LTP312	ltpFR2	1	7	GUITAR	670	n/a	n/a	0	0	0
1304565	WORD	wordpools/wasnorm_wordpool_576.txt	LTP312	ltpFR2	1	7	REPORT	1184	n/a	n/a	0	0	0
1307133	WORD	wordpools/wasnorm_wordpool_576.txt	LTP312	ltpFR2	1	7	CAPTIVE	240	n/a	n/a	0	0	0
1309902	WORD	wordpools/wasnorm_wordpool_576.txt	LTP312	ltpFR2	1	7	HOSTESS	723	n/a	n/a	0	0	0
1312573	WORD	wordpools/wasnorm_wordpool_576.txt	LTP312	ltpFR2	1	7	JUNGLE	764	n/a	n/a	0	0	0
1315139	WORD	wordpools/wasnorm_wordpool_576.txt	LTP312	ltpFR2	1	7	TRUCK	1512	n/a	n/a	0	0	0
1317560	WORD	wordpools/wasnorm_wordpool_576.txt	LTP312	ltpFR2	1	7	PAPER	1011	n/a	n/a	0	0	0
1320194	WORD	wordpools/wasnorm_wordpool_576.txt	LTP312	ltpFR2	1	7	CREVICE	405	n/a	n/a	0	0	0
1323030	WORD	wordpools/wasnorm_wordpool_576.txt	LTP312	ltpFR2	1	7	WOMAN	1620	n/a	n/a	0	0	0
1325748	WORD	wordpools/wasnorm_wordpool_576.txt	LTP312	ltpFR2	1	7	HAMPER	682	n/a	n/a	0	0	0
1328284	WORD	wordpools/wasnorm_wordpool_576.txt	LTP312	ltpFR2	1	7	OZONE	996	n/a	n/a	0	0	0
1331020	WORD	wordpools/wasnorm_wordpool_576.txt	LTP312	ltpFR2	1	7	BALLOON	75	n/a	n/a	0	0	0
1333491	WORD	wordpools/wasnorm_wordpool_576.txt	LTP312	ltpFR2	1	7	RECORD	1176	n/a	n/a	0	0	0
1336025	WORD	wordpools/wasnorm_wordpool_576.txt	LTP312	ltpFR2	1	7	BUBBLE	183	n/a	n/a	0	0	0
1338495	WORD	wordpools/wasnorm_wordpool_576.txt	LTP312	ltpFR2	1	7	SHIRT	1287	n/a	n/a	0	0	0
1341146	WORD	wordpools/wasnorm_wordpool_576.txt	LTP312	ltpFR2	1	7	OUTDOORS	987	n/a	n/a	0	0	0
1343665	WORD	wordpools/wasnorm_wordpool_576.txt	LTP312	ltpFR2	1	7	BRAKE	166	n/a	n/a	0	0	0
1346267	WORD	wordpools/wasnorm_wordpool_576.txt	LTP312	ltpFR2	1	7	GAVEL	627	n/a	n/a	0	0	0
1347886	START	n/a	LTP312	ltpFR2	1	n/a	n/a	n/a	10	n/a	n/a	n/a	n/a
1349006	DISTRACTOR	n/a	LTP312	ltpFR2	1	7	n/a	n/a	n/a	n/a	0	0	0
1349019	PROB	n/a	LTP312	ltpFR2	1	n/a	n/a	n/a	10	9	2	5	2
1351136	PROB	n/a	LTP312	ltpFR2	1	n/a	n/a	n/a	10	18	9	5	4
1353171	PROB	n/a	LTP312	ltpFR2	1	n/a	n/a	n/a	10	19	8	4	7
1356024	PROB	n/a	LTP312	ltpFR2	1	n/a	n/a	n/a	10	12	6	2	4
1357342	PROB	n/a	LTP312	ltpFR2	1	n/a	n/a	n/a	10	14	1	4	9
1359075	PROB	n/a	LTP312	ltpFR2	1	n/a	n/a	n/a	10	13	1	3	9
1360378	PROB	n/a	LTP312	ltpFR2	1	n/a	n/a	n/a	10	17	5	9	3
1366032	PROB	n/a	LTP312	ltpFR2	1	n/a	n/a	n/a	10	9	1	3	5
1367299	PROB	n/a	LTP312	ltpFR2	1	n/a	n/a	n/a	10	23	6	6	9
1369785	PROB	n/a	LTP312	ltpFR2	1	n/a	n/a	n/a	10	23	7	7	9
1371737	STOP	n/a	LTP312	ltpFR2	1	n/a	n/a	n/a	10	n/a	n/a	n/a	n/a
1373722	REC_START	n/a	LTP312	ltpFR2	1	7	n/a	n/a	n/a	n/a	0	0	0
1375465	REC_WORD	wordpools/wasnorm_wordpool_576.txt	LTP312	ltpFR2	1	7	BUBBLE	183	n/a	n/a	0	0	0
1376523	REC_WORD	wordpools/wasnorm_wordpool_576.txt	LTP312	ltpFR2	1	7	SHIRT	1287	n/a	n/a	0	0	0
1378160	REC_WORD	wordpools/wasnorm_wordpool_576.txt	LTP312	ltpFR2	1	7	OUTDOORS	987	n/a	n/a	0	0	0
1387045	REC_WORD	wordpools/wasnorm_wordpool_576.txt	LTP312	ltpFR2	1	7	HOSTESS	723	n/a	n/a	0	0	0
1406380	REC_WORD	wordpools/wasnorm_wordpool_576.txt	LTP312	ltpFR2	1	7	CAPTIVE	240	n/a	n/a	0	0	0
1411102	REC_WORD	wordpools/wasnorm_wordpool_576.txt	LTP312	ltpFR2	1	7	WOMAN	1620	n/a	n/a	0	0	0
1424174	REC_WORD	wordpools/wasnorm_wordpool_576.txt	LTP312	ltpFR2	1	7	GAVEL	627	n/a	n/a	0	0	0
1433848	REC_WORD	wordpools/wasnorm_wordpool_576.txt	LTP312	ltpFR2	1	7	BRAKE	166	n/a	n/a	0	0	0
1498265	WORD	wordpools/wasnorm_wordpool_576.txt	LTP312	ltpFR2	1	8	HEDGE	699	n/a	n/a	0	0	0
1500953	WORD	wordpools/wasnorm_wordpool_576.txt	LTP312	ltpFR2	1	8	SNAIL	1332	n/a	n/a	0	0	0
1503672	WORD	wordpools/wasnorm_wordpool_576.txt	LTP312	ltpFR2	1	8	WIDOW	1608	n/a	n/a	0	0	0
1506491	WORD	wordpools/wasnorm_wordpool_576.txt	LTP312	ltpFR2	1	8	HEART	697	n/a	n/a	0	0	0
1509026	WORD	wordpools/wasnorm_wordpool_576.txt	LTP312	ltpFR2	1	8	SILK	1307	n/a	n/a	0	0	0
1511513	WORD	wordpools/wasnorm_wordpool_576.txt	LTP312	ltpFR2	1	8	PADDING	999	n/a	n/a	0	0	0
1513998	WORD	wordpools/wasnorm_wordpool_576.txt	LTP312	ltpFR2	1	8	RABBIT	1152	n/a	n/a	0	0	0
1516505	WORD	wordpools/wasnorm_wordpool_576.txt	LTP312	ltpFR2	1	8	SEAGULL	1261	n/a	n/a	0	0	0
1519085	WORD	wordpools/wasnorm_wordpool_576.txt	LTP312	ltpFR2	1	8	STAR	1373	n/a	n/a	0	0	0
1521804	WORD	wordpools/wasnorm_wordpool_576.txt	LTP312	ltpFR2	1	8	BLOUSE	139	n/a	n/a	0	0	0
1524423	WORD	wordpools/wasnorm_wordpool_576.txt	LTP312	ltpFR2	1	8	JELLO	754	n/a	n/a	0	0	0
1527058	WORD	wordpools/wasnorm_wordpool_576.txt	LTP312	ltpFR2	1	8	SMOG	1330	n/a	n/a	0	0	0
1529727	WORD	wordpools/wasnorm_wordpool_576.txt	LTP312	ltpFR2	1	8	ITEM	746	n/a	n/a	0	0	0
1532380	WORD	wordpools/wasnorm_wordpool_576.txt	LTP312	ltpFR2	1	8	PASSAGE	1019	n/a	n/a	0	0	0
1534966	WORD	wordpools/wasnorm_wordpool_576.txt	LTP312	ltpFR2	1	8	HEADBAND	696	n/a	n/a	0	0	0
1537501	WORD	wordpools/wasnorm_wordpool_576.txt	LTP312	ltpFR2	1	8	BODY	145	n/a	n/a	0	0	0
1539970	WORD	wordpools/wasnorm_wordpool_576.txt	LTP312	ltpFR2	1	8	BUNNY	198	n/a	n/a	0	0	0
1542539	WORD	wordpools/wasnorm_wordpool_576.txt	LTP312	ltpFR2	1	8	MESSAGE	888	n/a	n/a	0	0	0
1545324	WORD	wordpools/wasnorm_wordpool_576.txt	LTP312	ltpFR2	1	8	PARSLEY	1016	n/a	n/a	0	0	0
1547960	WORD	wordpools/wasnorm_wordpool_576.txt	LTP312	ltpFR2	1	8	STATUE	1374	n/a	n/a	0	0	0
1550647	WORD	wordpools/wasnorm_wordpool_576.txt	LTP312	ltpFR2	1	8	POSTAGE	1113	n/a	n/a	0	0	0
1553381	WORD	wordpools/wasnorm_wordpool_576.txt	LTP312	ltpFR2	1	8	MOTEL	919	n/a	n/a	0	0	0
1555986	WORD	wordpools/wasnorm_wordpool_576.txt	LTP312	ltpFR2	1	8	LODGE	839	n/a	n/a	0	0	0
1558603	WORD	wordpools/wasnorm_wordpool_576.txt	LTP312	ltpFR2	1	8	PASTRY	1022	n/a	n/a	0	0	0
1560222	START	n/a	LTP312	ltpFR2	1	n/a	n/a	n/a	11	n/a	n/a	n/a	n/a
1561069	DISTRACTOR	n/a	LTP312	ltpFR2	1	8	n/a	n/a	n/a	n/a	0	0	0
1561074	PROB	n/a	LTP312	ltpFR2	1	n/a	n/a	n/a	11	15	2	4	9
1563424	PROB	n/a	LTP312	ltpFR2	1	n/a	n/a	n/a	11	11	1	3	7
1564725	PROB	n/a	LTP312	ltpFR2	1	n/a	n/a	n/a	11	11	2	4	5
1567310	PROB	n/a	LTP312	ltpFR2	1	n/a	n/a	n/a	11	24	8	9	7
1571498	PROB	n/a	LTP312	ltpFR2	1	n/a	n/a	n/a	11	6	3	2	1
1573033	PROB	n/a	LTP312	ltpFR2	1	n/a	n/a	n/a	11	14	4	4	6
1574449	PROB	n/a	LTP312	ltpFR2	1	n/a	n/a	n/a	11	22	5	8	9
1584222	STOP	n/a	LTP312	ltpFR2	1	n/a	n/a	n/a	11	n/a	n/a	n/a	n/a
1586026	REC_START	n/a	LTP312	ltpFR2	1	8	n/a	n/a	n/a	n/a	0	0	0
1591500	REC_WORD	wordpools/wasnorm_wordpool_576.txt	LTP312	ltpFR2	1	8	PARSLEY	1016	n/a	n/a	0	0	0
1601862	REC_WORD	wordpools/wasnorm_wordpool_576.txt	LTP312	ltpFR2	1	8	STATUE	1374	n/a	n/a	0	0	0
1607732	REC_WORD	wordpools/wasnorm_wordpool_576.txt	LTP312	ltpFR2	1	8	ITEM	746	n/a	n/a	0	0	0
1613460	REC_WORD	wordpools/wasnorm_wordpool_576.txt	LTP312	ltpFR2	1	8	DOG	480	n/a	n/a	0	0	0
1662561	REST_REWET	n/a	LTP312	ltpFR2	1	8	n/a	n/a	n/a	n/a	0	0	0
2196268	DISTRACTOR	n/a	LTP312	ltpFR2	1	9	n/a	n/a	n/a	n/a	0	0	0
2196268	START	n/a	LTP312	ltpFR2	1	n/a	n/a	n/a	12	n/a	n/a	n/a	n/a
2196285	PROB	n/a	LTP312	ltpFR2	1	n/a	n/a	n/a	12	14	5	7	2
2198268	PROB	n/a	LTP312	ltpFR2	1	n/a	n/a	n/a	12	19	7	5	7
2201188	PROB	n/a	LTP312	ltpFR2	1	n/a	n/a	n/a	12	11	2	2	7
2203659	PROB	n/a	LTP312	ltpFR2	1	n/a	n/a	n/a	12	20	9	3	8
2205976	PROB	n/a	LTP312	ltpFR2	1	n/a	n/a	n/a	12	13	3	1	9
2207411	PROB	n/a	LTP312	ltpFR2	1	n/a	n/a	n/a	12	13	1	5	7
2208979	PROB	n/a	LTP312	ltpFR2	1	n/a	n/a	n/a	12	15	5	7	3
2211231	PROB	n/a	LTP312	ltpFR2	1	n/a	n/a	n/a	12	10	4	5	1
2212548	PROB	n/a	LTP312	ltpFR2	1	n/a	n/a	n/a	12	17	8	8	1
2214048	PROB	n/a	LTP312	ltpFR2	1	n/a	n/a	n/a	12	8	6	1	1
2215383	PROB	n/a	LTP312	ltpFR2	1	n/a	n/a	n/a	12	12	4	4	3
2217033	PROB	n/a	LTP312	ltpFR2	1	n/a	n/a	n/a	12	7	4	2	1
2218925	STOP	n/a	LTP312	ltpFR2	1	n/a	n/a	n/a	12	n/a	n/a	n/a	n/a
2221148	WORD	wordpools/wasnorm_wordpool_576.txt	LTP312	ltpFR2	1	9	LIVER	833	n/a	n/a	0	0	0
2223941	WORD	wordpools/wasnorm_wordpool_576.txt	LTP312	ltpFR2	1	9	LAMP	798	n/a	n/a	0	0	0
2226672	WORD	wordpools/wasnorm_wordpool_576.txt	LTP312	ltpFR2	1	9	OINTMENT	974	n/a	n/a	0	0	0
2229106	WORD	wordpools/wasnorm_wordpool_576.txt	LTP312	ltpFR2	1	9	BELLY	119	n/a	n/a	0	0	0
2231676	WORD	wordpools/wasnorm_wordpool_576.txt	LTP312	ltpFR2	1	9	DRUG	501	n/a	n/a	0	0	0
2234099	WORD	wordpools/wasnorm_wordpool_576.txt	LTP312	ltpFR2	1	9	SHOVEL	1295	n/a	n/a	0	0	0
2236851	WORD	wordpools/wasnorm_wordpool_576.txt	LTP312	ltpFR2	1	9	NOMAD	955	n/a	n/a	0	0	0
2239482	WORD	wordpools/wasnorm_wordpool_576.txt	LTP312	ltpFR2	1	9	CROSS	413	n/a	n/a	0	0	0
2242150	WORD	wordpools/wasnorm_wordpool_576.txt	LTP312	ltpFR2	1	9	ROD	1203	n/a	n/a	0	0	0
2244704	WORD	wordpools/wasnorm_wordpool_576.txt	LTP312	ltpFR2	1	9	DONOR	485	n/a	n/a	0	0	0
2247326	WORD	wordpools/wasnorm_wordpool_576.txt	LTP312	ltpFR2	1	9	POISON	1096	n/a	n/a	0	0	0
2249840	WORD	wordpools/wasnorm_wordpool_576.txt	LTP312	ltpFR2	1	9	PLAZA	1088	n/a	n/a	0	0	0
2252260	WORD	wordpools/wasnorm_wordpool_576.txt	LTP312	ltpFR2	1	9	MARKET	871	n/a	n/a	0	0	0
2254982	WORD	wordpools/wasnorm_wordpool_576.txt	LTP312	ltpFR2	1	9	SUBWAY	1400	n/a	n/a	0	0	0
2257431	WORD	wordpools/wasnorm_wordpool_576.txt	LTP312	ltpFR2	1	9	CHURCH	307	n/a	n/a	0	0	0
2260250	WORD	wordpools/wasnorm_wordpool_576.txt	LTP312	ltpFR2	1	9	IDOL	733	n/a	n/a	0	0	0
2262936	WORD	wordpools/wasnorm_wordpool_576.txt	LTP312	ltpFR2	1	9	PEANUT	1032	n/a	n/a	0	0	0
2265572	WORD	wordpools/wasnorm_wordpool_576.txt	LTP312	ltpFR2	1	9	MUFFIN	929	n/a	n/a	0	0	0
2268190	WORD	wordpools/wasnorm_wordpool_576.txt	LTP312	ltpFR2	1	9	MAILMAN	858	n/a	n/a	0	0	0
2270743	WORD	wordpools/wasnorm_wordpool_576.txt	LTP312	ltpFR2	1	9	SLIME	1327	n/a	n/a	0	0	0
2273563	WORD	wordpools/wasnorm_wordpool_576.txt	LTP312	ltpFR2	1	9	LADDER	793	n/a	n/a	0	0	0
2276215	WORD	wordpools/wasnorm_wordpool_576.txt	LTP312	ltpFR2	1	9	MAILBOX	857	n/a	n/a	0	0	0
2278866	WORD	wordpools/wasnorm_wordpool_576.txt	LTP312	ltpFR2	1	9	BLOCKADE	137	n/a	n/a	0	0	0
2281519	WORD	wordpools/wasnorm_wordpool_576.txt	LTP312	ltpFR2	1	9	ATOM	55	n/a	n/a	0	0	0
2283137	START	n/a	LTP312	ltpFR2	1	n/a	n/a	n/a	13	n/a	n/a	n/a	n/a
2284171	DISTRACTOR	n/a	LTP312	ltpFR2	1	9	n/a	n/a	n/a	n/a	0	0	0
2284187	PROB	n/a	LTP312	ltpFR2	1	n/a	n/a	n/a	13	20	5	7	8
2286422	PROB	n/a	LTP312	ltpFR2	1	n/a	n/a	n/a	13	13	2	2	9
2288561	PROB	n/a	LTP312	ltpFR2	1	n/a	n/a	n/a	13	13	3	3	7
2290161	PROB	n/a	LTP312	ltpFR2	1	n/a	n/a	n/a	13	13	6	2	5
2291779	PROB	n/a	LTP312	ltpFR2	1	n/a	n/a	n/a	13	15	1	7	7
2294380	PROB	n/a	LTP312	ltpFR2	1	n/a	n/a	n/a	13	17	7	4	6
2296516	PROB	n/a	LTP312	ltpFR2	1	n/a	n/a	n/a	13	10	4	1	5
2297799	PROB	n/a	LTP312	ltpFR2	1	n/a	n/a	n/a	13	15	4	2	9
2299585	PROB	n/a	LTP312	ltpFR2	1	n/a	n/a	n/a	13	25	8	8	9
2304270	PROB	n/a	LTP312	ltpFR2	1	n/a	n/a	n/a	13	18	3	6	9
2306089	STOP	n/a	LTP312	ltpFR2	1	n/a	n/a	n/a	13	n/a	n/a	n/a	n/a
2308975	REC_START	n/a	LTP312	ltpFR2	1	9	n/a	n/a	n/a	n/a	0	0	0
2313635	REC_WORD	wordpools/wasnorm_wordpool_576.txt	LTP312	ltpFR2	1	9	LAMP	798	n/a	n/a	0	0	0
2315286	REC_WORD	wordpools/wasnorm_wordpool_576.txt	LTP312	ltpFR2	1	9	LIVER	833	n/a	n/a	0	0	0
2318569	REC_WORD	wordpools/wasnorm_wordpool_576.txt	LTP312	ltpFR2	1	9	OIL	-1	n/a	n/a	0	0	0
2320169	REC_WORD	wordpools/wasnorm_wordpool_576.txt	LTP312	ltpFR2	1	9	OINTMENT	974	n/a	n/a	0	0	0
2322330	REC_WORD	wordpools/wasnorm_wordpool_576.txt	LTP312	ltpFR2	1	9	BELLY	119	n/a	n/a	0	0	0
2323882	REC_WORD	wordpools/wasnorm_wordpool_576.txt	LTP312	ltpFR2	1	9	POISON	1096	n/a	n/a	0	0	0
2328159	REC_WORD	wordpools/wasnorm_wordpool_576.txt	LTP312	ltpFR2	1	9	BLOCKADE	137	n/a	n/a	0	0	0
2329981	REC_WORD	wordpools/wasnorm_wordpool_576.txt	LTP312	ltpFR2	1	9	NOMAD	955	n/a	n/a	0	0	0
2331463	REC_WORD	wordpools/wasnorm_wordpool_576.txt	LTP312	ltpFR2	1	9	CROSS	413	n/a	n/a	0	0	0
2333774	REC_WORD	wordpools/wasnorm_wordpool_576.txt	LTP312	ltpFR2	1	9	MAILBOX	857	n/a	n/a	0	0	0
2334774	REC_WORD_VV	wordpools/wasnorm_wordpool_576.txt	LTP312	ltpFR2	1	9	<>	-1	n/a	n/a	0	0	0
2335360	REC_WORD	wordpools/wasnorm_wordpool_576.txt	LTP312	ltpFR2	1	9	MAILMAN	858	n/a	n/a	0	0	0
2337260	REC_WORD	wordpools/wasnorm_wordpool_576.txt	LTP312	ltpFR2	1	9	SLIME	1327	n/a	n/a	0	0	0
2349029	REC_WORD	wordpools/wasnorm_wordpool_576.txt	LTP312	ltpFR2	1	9	SHOVEL	1295	n/a	n/a	0	0	0
2354939	REC_WORD	wordpools/wasnorm_wordpool_576.txt	LTP312	ltpFR2	1	9	DOG	480	n/a	n/a	0	0	0
2358773	REC_WORD	wordpools/wasnorm_wordpool_576.txt	LTP312	ltpFR2	1	9	LADDER	793	n/a	n/a	0	0	0
2362569	REC_WORD	wordpools/wasnorm_wordpool_576.txt	LTP312	ltpFR2	1	9	LIVER	833	n/a	n/a	0	0	0
2363410	REC_WORD	wordpools/wasnorm_wordpool_576.txt	LTP312	ltpFR2	1	9	DONOR	485	n/a	n/a	0	0	0
2378874	REC_WORD	wordpools/wasnorm_wordpool_576.txt	LTP312	ltpFR2	1	9	ATOM	55	n/a	n/a	0	0	0
2399400	DISTRACTOR	n/a	LTP312	ltpFR2	1	10	n/a	n/a	n/a	n/a	0	0	0
2399400	START	n/a	LTP312	ltpFR2	1	n/a	n/a	n/a	14	n/a	n/a	n/a	n/a
2399414	PROB	n/a	LTP312	ltpFR2	1	n/a	n/a	n/a	14	5	2	1	2
2400982	PROB	n/a	LTP312	ltpFR2	1	n/a	n/a	n/a	14	20	7	6	7
2403767	PROB	n/a	LTP312	ltpFR2	1	n/a	n/a	n/a	14	6	1	2	3
2405120	PROB	n/a	LTP312	ltpFR2	1	n/a	n/a	n/a	14	12	4	6	2
2406354	PROB	n/a	LTP312	ltpFR2	1	n/a	n/a	n/a	14	18	5	6	7
2408706	PROB	n/a	LTP312	ltpFR2	1	n/a	n/a	n/a	14	19	8	9	2
2410724	PROB	n/a	LTP312	ltpFR2	1	n/a	n/a	n/a	14	20	7	4	9
2413243	PROB	n/a	LTP312	ltpFR2	1	n/a	n/a	n/a	14	18	6	5	7
2415244	PROB	n/a	LTP312	ltpFR2	1	n/a	n/a	n/a	14	14	6	7	1
2418279	PROB	n/a	LTP312	ltpFR2	1	n/a	n/a	n/a	14	16	1	9	6
2419531	PROB	n/a	LTP312	ltpFR2	1	n/a	n/a	n/a	14	12	9	1	2
2420965	PROB	n/a	LTP312	ltpFR2	1	n/a	n/a	n/a	14	12	2	2	8
2422342	STOP	n/a	LTP312	ltpFR2	1	n/a	n/a	n/a	14	n/a	n/a	n/a	n/a
2424359	WORD	wordpools/wasnorm_wordpool_576.txt	LTP312	ltpFR2	1	10	GARDEN	623	n/a	n/a	0	0	0
2426929	WORD	wordpools/wasnorm_wordpool_576.txt	LTP312	ltpFR2	1	10	GRILL	661	n/a	n/a	0	0	0
2429473	WORD	wordpools/wasnorm_wordpool_576.txt	LTP312	ltpFR2	1	10	VALVE	1546	n/a	n/a	0	0	0
2432250	WORD	wordpools/wasnorm_wordpool_576.txt	LTP312	ltpFR2	1	10	COUSIN	392	n/a	n/a	0	0	0
2434869	WORD	wordpools/wasnorm_wordpool_576.txt	LTP312	ltpFR2	1	10	INFANT	737	n/a	n/a	0	0	0
2437329	WORD	wordpools/wasnorm_wordpool_576.txt	LTP312	ltpFR2	1	10	MACHINE	852	n/a	n/a	0	0	0
2439790	WORD	wordpools/wasnorm_wordpool_576.txt	LTP312	ltpFR2	1	10	JELLY	755	n/a	n/a	0	0	0
2442567	WORD	wordpools/wasnorm_wordpool_576.txt	LTP312	ltpFR2	1	10	ROBOT	1200	n/a	n/a	0	0	0
2445119	WORD	wordpools/wasnorm_wordpool_576.txt	LTP312	ltpFR2	1	10	APPLE	33	n/a	n/a	0	0	0
2447931	WORD	wordpools/wasnorm_wordpool_576.txt	LTP312	ltpFR2	1	10	LEG	809	n/a	n/a	0	0	0
2450356	WORD	wordpools/wasnorm_wordpool_576.txt	LTP312	ltpFR2	1	10	FOOT	590	n/a	n/a	0	0	0
2452792	WORD	wordpools/wasnorm_wordpool_576.txt	LTP312	ltpFR2	1	10	SKIRT	1319	n/a	n/a	0	0	0
2455393	WORD	wordpools/wasnorm_wordpool_576.txt	LTP312	ltpFR2	1	10	BUREAU	199	n/a	n/a	0	0	0
2458156	WORD	wordpools/wasnorm_wordpool_576.txt	LTP312	ltpFR2	1	10	XEROX	1628	n/a	n/a	0	0	0
2460798	WORD	wordpools/wasnorm_wordpool_576.txt	LTP312	ltpFR2	1	10	TYPIST	1532	n/a	n/a	0	0	0
2463400	WORD	wordpools/wasnorm_wordpool_576.txt	LTP312	ltpFR2	1	10	PRINCE	1124	n/a	n/a	0	0	0
2466018	WORD	wordpools/wasnorm_wordpool_576.txt	LTP312	ltpFR2	1	10	PALACE	1006	n/a	n/a	0	0	0
2468616	WORD	wordpools/wasnorm_wordpool_576.txt	LTP312	ltpFR2	1	10	BISON	131	n/a	n/a	0	0	0
2471251	WORD	wordpools/wasnorm_wordpool_576.txt	LTP312	ltpFR2	1	10	ORCHID	982	n/a	n/a	0	0	0
2473920	WORD	wordpools/wasnorm_wordpool_576.txt	LTP312	ltpFR2	1	10	CURTAIN	427	n/a	n/a	0	0	0
2476388	WORD	wordpools/wasnorm_wordpool_576.txt	LTP312	ltpFR2	1	10	WINDOW	1611	n/a	n/a	0	0	0
2478812	WORD	wordpools/wasnorm_wordpool_576.txt	LTP312	ltpFR2	1	10	TURTLE	1522	n/a	n/a	0	0	0
2481560	WORD	wordpools/wasnorm_wordpool_576.txt	LTP312	ltpFR2	1	10	SNACK	1331	n/a	n/a	0	0	0
2484045	WORD	wordpools/wasnorm_wordpool_576.txt	LTP312	ltpFR2	1	10	AGENT	10	n/a	n/a	0	0	0
2485654	START	n/a	LTP312	ltpFR2	1	n/a	n/a	n/a	15	n/a	n/a	n/a	n/a
2486831	DISTRACTOR	n/a	LTP312	ltpFR2	1	10	n/a	n/a	n/a	n/a	0	0	0
2486836	PROB	n/a	LTP312	ltpFR2	1	n/a	n/a	n/a	15	16	7	3	6
2488699	PROB	n/a	LTP312	ltpFR2	1	n/a	n/a	n/a	15	17	2	7	8
2490138	PROB	n/a	LTP312	ltpFR2	1	n/a	n/a	n/a	15	25	9	7	9
2492826	PROB	n/a	LTP312	ltpFR2	1	n/a	n/a	n/a	15	23	7	9	7
2495904	PROB	n/a	LTP312	ltpFR2	1	n/a	n/a	n/a	15	21	4	9	8
2497995	PROB	n/a	LTP312	ltpFR2	1	n/a	n/a	n/a	15	7	1	4	2
2499295	PROB	n/a	LTP312	ltpFR2	1	n/a	n/a	n/a	15	8	2	1	5
2500943	PROB	n/a	LTP312	ltpFR2	1	n/a	n/a	n/a	15	16	6	7	3
2502794	PROB	n/a	LTP312	ltpFR2	1	n/a	n/a	n/a	15	12	8	3	1
2505013	PROB	n/a	LTP312	ltpFR2	1	n/a	n/a	n/a	15	5	3	1	1
2506180	PROB	n/a	LTP312	ltpFR2	1	n/a	n/a	n/a	15	23	6	9	8
2508994	STOP	n/a	LTP312	ltpFR2	1	n/a	n/a	n/a	15	n/a	n/a	n/a	n/a
2511421	REC_START	n/a	LTP312	ltpFR2	1	10	n/a	n/a	n/a	n/a	0	0	0
2512734	REC_WORD	wordpools/wasnorm_wordpool_576.txt	LTP312	ltpFR2	1	10	GARDEN	623	n/a	n/a	0	0	0
2514055	REC_WORD	wordpools/wasnorm_wordpool_576.txt	LTP312	ltpFR2	1	10	PALACE	1006	n/a	n/a	0	0	0
2515827	REC_WORD	wordpools/wasnorm_wordpool_576.txt	LTP312	ltpFR2	1	10	BISON	131	n/a	n/a	0	0	0
2519404	REC_WORD	wordpools/wasnorm_wordpool_576.txt	LTP312	ltpFR2	1	10	VALVE	1546	n/a	n/a	0	0	0
2525612	REC_WORD	wordpools/wasnorm_wordpool_576.txt	LTP312	ltpFR2	1	10	XEROX	1628	n/a	n/a	0	0	0
2527042	REC_WORD	wordpools/wasnorm_wordpool_576.txt	LTP312	ltpFR2	1	10	ORCHID	982	n/a	n/a	0	0	0
2528824	REC_WORD	wordpools/wasnorm_wordpool_576.txt	LTP312	ltpFR2	1	10	BUREAU	199	n/a	n/a	0	0	0
2530612	REC_WORD	wordpools/wasnorm_wordpool_576.txt	LTP312	ltpFR2	1	10	CURTAIN	427	n/a	n/a	0	0	0
2531882	REC_WORD	wordpools/wasnorm_wordpool_576.txt	LTP312	ltpFR2	1	10	WINDOW	1611	n/a	n/a	0	0	0
2629702	WORD	wordpools/wasnorm_wordpool_576.txt	LTP312	ltpFR2	1	11	BROTHER	179	n/a	n/a	0	0	0
2632158	WORD	wordpools/wasnorm_wordpool_576.txt	LTP312	ltpFR2	1	11	RELISH	1183	n/a	n/a	0	0	0
2634723	WORD	wordpools/wasnorm_wordpool_576.txt	LTP312	ltpFR2	1	11	FREEZER	604	n/a	n/a	0	0	0
2637363	WORD	wordpools/wasnorm_wordpool_576.txt	LTP312	ltpFR2	1	11	SANDWICH	1232	n/a	n/a	0	0	0
2639893	WORD	wordpools/wasnorm_wordpool_576.txt	LTP312	ltpFR2	1	11	TABLE	1426	n/a	n/a	0	0	0
2642328	WORD	wordpools/wasnorm_wordpool_576.txt	LTP312	ltpFR2	1	11	COUCH	386	n/a	n/a	0	0	0
2644762	WORD	wordpools/wasnorm_wordpool_576.txt	LTP312	ltpFR2	1	11	MARROW	872	n/a	n/a	0	0	0
2647355	WORD	wordpools/wasnorm_wordpool_576.txt	LTP312	ltpFR2	1	11	DAUGHTER	442	n/a	n/a	0	0	0
2650117	WORD	wordpools/wasnorm_wordpool_576.txt	LTP312	ltpFR2	1	11	SLUG	1329	n/a	n/a	0	0	0
2652877	WORD	wordpools/wasnorm_wordpool_576.txt	LTP312	ltpFR2	1	11	LASER	801	n/a	n/a	0	0	0
2655304	WORD	wordpools/wasnorm_wordpool_576.txt	LTP312	ltpFR2	1	11	OFFICE	972	n/a	n/a	0	0	0
2657907	WORD	wordpools/wasnorm_wordpool_576.txt	LTP312	ltpFR2	1	11	QUARTER	1148	n/a	n/a	0	0	0
2660383	WORD	wordpools/wasnorm_wordpool_576.txt	LTP312	ltpFR2	1	11	EMPIRE	530	n/a	n/a	0	0	0
2662894	WORD	wordpools/wasnorm_wordpool_576.txt	LTP312	ltpFR2	1	11	STAMP	1370	n/a	n/a	0	0	0
2665681	WORD	wordpools/wasnorm_wordpool_576.txt	LTP312	ltpFR2	1	11	GRAVE	658	n/a	n/a	0	0	0
2668139	WORD	wordpools/wasnorm_wordpool_576.txt	LTP312	ltpFR2	1	11	PIGMENT	1066	n/a	n/a	0	0	0
2670669	WORD	wordpools/wasnorm_wordpool_576.txt	LTP312	ltpFR2	1	11	CREATURE	403	n/a	n/a	0	0	0
2673377	WORD	wordpools/wasnorm_wordpool_576.txt	LTP312	ltpFR2	1	11	WHISTLE	1606	n/a	n/a	0	0	0
2676013	WORD	wordpools/wasnorm_wordpool_576.txt	LTP312	ltpFR2	1	11	BIKE	125	n/a	n/a	0	0	0
2678824	WORD	wordpools/wasnorm_wordpool_576.txt	LTP312	ltpFR2	1	11	COSTUME	383	n/a	n/a	0	0	0
2681285	WORD	wordpools/wasnorm_wordpool_576.txt	LTP312	ltpFR2	1	11	DIME	466	n/a	n/a	0	0	0
2683705	WORD	wordpools/wasnorm_wordpool_576.txt	LTP312	ltpFR2	1	11	CRICKET	408	n/a	n/a	0	0	0
2686173	WORD	wordpools/wasnorm_wordpool_576.txt	LTP312	ltpFR2	1	11	COCOON	339	n/a	n/a	0	0	0
2688925	WORD	wordpools/wasnorm_wordpool_576.txt	LTP312	ltpFR2	1	11	BACKBONE	66	n/a	n/a	0	0	0
2690535	START	n/a	LTP312	ltpFR2	1	n/a	n/a	n/a	16	n/a	n/a	n/a	n/a
2691387	DISTRACTOR	n/a	LTP312	ltpFR2	1	11	n/a	n/a	n/a	n/a	0	0	0
2691394	PROB	n/a	LTP312	ltpFR2	1	n/a	n/a	n/a	16	14	6	6	2
2693636	PROB	n/a	LTP312	ltpFR2	1	n/a	n/a	n/a	16	15	6	3	6
2695354	PROB	n/a	LTP312	ltpFR2	1	n/a	n/a	n/a	16	12	3	4	5
2698140	PROB	n/a	LTP312	ltpFR2	1	n/a	n/a	n/a	16	14	3	4	7
2699773	PROB	n/a	LTP312	ltpFR2	1	n/a	n/a	n/a	16	14	2	3	9
2703159	PROB	n/a	LTP312	ltpFR2	1	n/a	n/a	n/a	16	13	2	9	2
2705345	PROB	n/a	LTP312	ltpFR2	1	n/a	n/a	n/a	16	19	4	7	8
2708246	PROB	n/a	LTP312	ltpFR2	1	n/a	n/a	n/a	16	14	7	5	2
2709731	PROB	n/a	LTP312	ltpFR2	1	n/a	n/a	n/a	16	13	1	7	5
2711568	PROB	n/a	LTP312	ltpFR2	1	n/a	n/a	n/a	16	20	7	8	5
2713835	STOP	n/a	LTP312	ltpFR2	1	n/a	n/a	n/a	16	n/a	n/a	n/a	n/a
2716388	REC_START	n/a	LTP312	ltpFR2	1	11	n/a	n/a	n/a	n/a	0	0	0
2718270	REC_WORD	wordpools/wasnorm_wordpool_576.txt	LTP312	ltpFR2	1	11	BROTHER	179	n/a	n/a	0	0	0
2719431	REC_WORD	wordpools/wasnorm_wordpool_576.txt	LTP312	ltpFR2	1	11	DAUGHTER	442	n/a	n/a	0	0	0
2726790	REC_WORD	wordpools/wasnorm_wordpool_576.txt	LTP312	ltpFR2	1	11	VALVE	1546	n/a	n/a	0	0	0
2751575	REC_WORD	wordpools/wasnorm_wordpool_576.txt	LTP312	ltpFR2	1	11	LAMP	798	n/a	n/a	0	0	0
2806861	DISTRACTOR	n/a	LTP312	ltpFR2	1	12	n/a	n/a	n/a	n/a	0	0	0
2806861	START	n/a	LTP312	ltpFR2	1	n/a	n/a	n/a	17	n/a	n/a	n/a	n/a
2806876	PROB	n/a	LTP312	ltpFR2	1	n/a	n/a	n/a	17	14	2	7	5
2808744	PROB	n/a	LTP312	ltpFR2	1	n/a	n/a	n/a	17	6	2	1	3
2810128	PROB	n/a	LTP312	ltpFR2	1	n/a	n/a	n/a	17	15	3	4	8
2812164	PROB	n/a	LTP312	ltpFR2	1	n/a	n/a	n/a	17	17	8	1	8
2813649	PROB	n/a	LTP312	ltpFR2	1	n/a	n/a	n/a	17	23	9	5	9
2816185	PROB	n/a	LTP312	ltpFR2	1	n/a	n/a	n/a	17	21	5	9	7
2818752	PROB	n/a	LTP312	ltpFR2	1	n/a	n/a	n/a	17	12	1	5	6
2820605	PROB	n/a	LTP312	ltpFR2	1	n/a	n/a	n/a	17	13	4	4	5
2822524	PROB	n/a	LTP312	ltpFR2	1	n/a	n/a	n/a	17	10	1	6	3
2823956	PROB	n/a	LTP312	ltpFR2	1	n/a	n/a	n/a	17	14	5	8	1
2825376	PROB	n/a	LTP312	ltpFR2	1	n/a	n/a	n/a	17	11	3	7	1
2826660	PROB	n/a	LTP312	ltpFR2	1	n/a	n/a	n/a	17	12	2	5	5
2827926	PROB	n/a	LTP312	ltpFR2	1	n/a	n/a	n/a	17	22	7	5	7
2829697	STOP	n/a	LTP312	ltpFR2	1	n/a	n/a	n/a	17	n/a	n/a	n/a	n/a
2831880	WORD	wordpools/wasnorm_wordpool_576.txt	LTP312	ltpFR2	1	12	MARS	873	n/a	n/a	0	0	0
2834383	WORD	wordpools/wasnorm_wordpool_576.txt	LTP312	ltpFR2	1	12	HUMAN	726	n/a	n/a	0	0	0
2836885	WORD	wordpools/wasnorm_wordpool_576.txt	LTP312	ltpFR2	1	12	LEOPARD	812	n/a	n/a	0	0	0
2839621	WORD	wordpools/wasnorm_wordpool_576.txt	LTP312	ltpFR2	1	12	FARMER	553	n/a	n/a	0	0	0
2842193	WORD	wordpools/wasnorm_wordpool_576.txt	LTP312	ltpFR2	1	12	HARP	689	n/a	n/a	0	0	0
2844908	WORD	wordpools/wasnorm_wordpool_576.txt	LTP312	ltpFR2	1	12	SEAL	1262	n/a	n/a	0	0	0
2847363	WORD	wordpools/wasnorm_wordpool_576.txt	LTP312	ltpFR2	1	12	HOOD	714	n/a	n/a	0	0	0
2849962	WORD	wordpools/wasnorm_wordpool_576.txt	LTP312	ltpFR2	1	12	CAFE	216	n/a	n/a	0	0	0
2852385	WORD	wordpools/wasnorm_wordpool_576.txt	LTP312	ltpFR2	1	12	CUPBOARD	425	n/a	n/a	0	0	0
2855200	WORD	wordpools/wasnorm_wordpool_576.txt	LTP312	ltpFR2	1	12	POWDER	1117	n/a	n/a	0	0	0
2857818	WORD	wordpools/wasnorm_wordpool_576.txt	LTP312	ltpFR2	1	12	REBEL	1172	n/a	n/a	0	0	0
2860442	WORD	wordpools/wasnorm_wordpool_576.txt	LTP312	ltpFR2	1	12	PLASTER	1085	n/a	n/a	0	0	0
2863156	WORD	wordpools/wasnorm_wordpool_576.txt	LTP312	ltpFR2	1	12	WORKER	1621	n/a	n/a	0	0	0
2865709	WORD	wordpools/wasnorm_wordpool_576.txt	LTP312	ltpFR2	1	12	CATCHER	258	n/a	n/a	0	0	0
2868460	WORD	wordpools/wasnorm_wordpool_576.txt	LTP312	ltpFR2	1	12	FLEET	578	n/a	n/a	0	0	0
2871179	WORD	wordpools/wasnorm_wordpool_576.txt	LTP312	ltpFR2	1	12	LONDON	843	n/a	n/a	0	0	0
2873948	WORD	wordpools/wasnorm_wordpool_576.txt	LTP312	ltpFR2	1	12	DANDRUFF	439	n/a	n/a	0	0	0
2876517	WORD	wordpools/wasnorm_wordpool_576.txt	LTP312	ltpFR2	1	12	CHAMPAGNE	278	n/a	n/a	0	0	0
2879075	WORD	wordpools/wasnorm_wordpool_576.txt	LTP312	ltpFR2	1	12	TWISTER	1530	n/a	n/a	0	0	0
2881711	WORD	wordpools/wasnorm_wordpool_576.txt	LTP312	ltpFR2	1	12	POET	1095	n/a	n/a	0	0	0
2884223	WORD	wordpools/wasnorm_wordpool_576.txt	LTP312	ltpFR2	1	12	ARMY	39	n/a	n/a	0	0	0
2886975	WORD	wordpools/wasnorm_wordpool_576.txt	LTP312	ltpFR2	1	12	MARINE	869	n/a	n/a	0	0	0
2889718	WORD	wordpools/wasnorm_wordpool_576.txt	LTP312	ltpFR2	1	12	SCOTCH	1251	n/a	n/a	0	0	0
2892319	WORD	wordpools/wasnorm_wordpool_576.txt	LTP312	ltpFR2	1	12	ULCER	1533	n/a	n/a	0	0	0
2893931	START	n/a	LTP312	ltpFR2	1	n/a	n/a	n/a	18	n/a	n/a	n/a	n/a
2894927	DISTRACTOR	n/a	LTP312	ltpFR2	1	12	n/a	n/a	n/a	n/a	0	0	0
2894932	PROB	n/a	LTP312	ltpFR2	1	n/a	n/a	n/a	18	12	2	6	4
2896633	PROB	n/a	LTP312	ltpFR2	1	n/a	n/a	n/a	18	18	6	7	5
2898918	PROB	n/a	LTP312	ltpFR2	1	n/a	n/a	n/a	18	9	1	3	5
2900118	PROB	n/a	LTP312	ltpFR2	1	n/a	n/a	n/a	18	14	4	5	5
2901337	PROB	n/a	LTP312	ltpFR2	1	n/a	n/a	n/a	18	19	6	4	9
2903003	PROB	n/a	LTP312	ltpFR2	1	n/a	n/a	n/a	18	21	6	7	9
2905289	PROB	n/a	LTP312	ltpFR2	1	n/a	n/a	n/a	18	14	6	4	4
2906623	PROB	n/a	LTP312	ltpFR2	1	n/a	n/a	n/a	18	21	7	9	5
2909091	PROB	n/a	LTP312	ltpFR2	1	n/a	n/a	n/a	18	19	9	3	7
2910512	PROB	n/a	LTP312	ltpFR2	1	n/a	n/a	n/a	18	17	9	5	3
2912912	PROB	n/a	LTP312	ltpFR2	1	n/a	n/a	n/a	18	21	9	5	7
2915846	PROB	n/a	LTP312	ltpFR2	1	n/a	n/a	n/a	18	12	2	6	4
2917517	STOP	n/a	LTP312	ltpFR2	1	n/a	n/a	n/a	18	n/a	n/a	n/a	n/a
2919817	REC_START	n/a	LTP312	ltpFR2	1	12	n/a	n/a	n/a	n/a	0	0	0
2921920	REC_WORD	wordpools/wasnorm_wordpool_576.txt	LTP312	ltpFR2	1	12	HUMAN	726	n/a	n/a	0	0	0
2923318	REC_WORD	wordpools/wasnorm_wordpool_576.txt	LTP312	ltpFR2	1	12	MARS	873	n/a	n/a	0	0	0
2924744	REC_WORD	wordpools/wasnorm_wordpool_576.txt	LTP312	ltpFR2	1	12	CHAMPAGNE	278	n/a	n/a	0	0	0
2926456	REC_WORD	wordpools/wasnorm_wordpool_576.txt	LTP312	ltpFR2	1	12	TWISTER	1530	n/a	n/a	0	0	0
2927991	REC_WORD	wordpools/wasnorm_wordpool_576.txt	LTP312	ltpFR2	1	12	SCOTCH	1251	n/a	n/a	0	0	0
2929561	REC_WORD	wordpools/wasnorm_wordpool_576.txt	LTP312	ltpFR2	1	12	ULCER	1533	n/a	n/a	0	0	0
2933077	REC_WORD	wordpools/wasnorm_wordpool_576.txt	LTP312	ltpFR2	1	12	REBEL	1172	n/a	n/a	0	0	0
2934420	REC_WORD	wordpools/wasnorm_wordpool_576.txt	LTP312	ltpFR2	1	12	PLASTER	1085	n/a	n/a	0	0	0
2957959	REC_WORD	wordpools/wasnorm_wordpool_576.txt	LTP312	ltpFR2	1	12	FLEET	578	n/a	n/a	0	0	0
2965662	REC_WORD	wordpools/wasnorm_wordpool_576.txt	LTP312	ltpFR2	1	12	CUPBOARD	425	n/a	n/a	0	0	0
3010274	DISTRACTOR	n/a	LTP312	ltpFR2	1	13	n/a	n/a	n/a	n/a	0	0	0
3010274	START	n/a	LTP312	ltpFR2	1	n/a	n/a	n/a	19	n/a	n/a	n/a	n/a
3010291	PROB	n/a	LTP312	ltpFR2	1	n/a	n/a	n/a	19	14	9	3	2
3013058	PROB	n/a	LTP312	ltpFR2	1	n/a	n/a	n/a	19	17	9	6	2
3016312	PROB	n/a	LTP312	ltpFR2	1	n/a	n/a	n/a	19	10	1	5	4
3017829	PROB	n/a	LTP312	ltpFR2	1	n/a	n/a	n/a	19	12	2	6	4
3019999	PROB	n/a	LTP312	ltpFR2	1	n/a	n/a	n/a	19	8	5	2	1
3022485	PROB	n/a	LTP312	ltpFR2	1	n/a	n/a	n/a	19	11	2	3	6
3024469	PROB	n/a	LTP312	ltpFR2	1	n/a	n/a	n/a	19	15	5	6	4
3026071	PROB	n/a	LTP312	ltpFR2	1	n/a	n/a	n/a	19	14	9	1	4
3027387	PROB	n/a	LTP312	ltpFR2	1	n/a	n/a	n/a	19	16	8	6	2
3029790	PROB	n/a	LTP312	ltpFR2	1	n/a	n/a	n/a	19	9	4	3	2
3031125	PROB	n/a	LTP312	ltpFR2	1	n/a	n/a	n/a	19	16	5	2	9
3033465	STOP	n/a	LTP312	ltpFR2	1	n/a	n/a	n/a	19	n/a	n/a	n/a	n/a
3035344	WORD	wordpools/wasnorm_wordpool_576.txt	LTP312	ltpFR2	1	13	TWIG	1527	n/a	n/a	0	0	0
3037829	WORD	wordpools/wasnorm_wordpool_576.txt	LTP312	ltpFR2	1	13	FRAGRANCE	599	n/a	n/a	0	0	0
3040500	WORD	wordpools/wasnorm_wordpool_576.txt	LTP312	ltpFR2	1	13	WHISKERS	1605	n/a	n/a	0	0	0
3043235	WORD	wordpools/wasnorm_wordpool_576.txt	LTP312	ltpFR2	1	13	PANTHER	1009	n/a	n/a	0	0	0
3045721	WORD	wordpools/wasnorm_wordpool_576.txt	LTP312	ltpFR2	1	13	ACTOR	5	n/a	n/a	0	0	0
3048254	WORD	wordpools/wasnorm_wordpool_576.txt	LTP312	ltpFR2	1	13	ACTRESS	6	n/a	n/a	0	0	0
3050906	WORD	wordpools/wasnorm_wordpool_576.txt	LTP312	ltpFR2	1	13	TORTOISE	1486	n/a	n/a	0	0	0
3053677	WORD	wordpools/wasnorm_wordpool_576.txt	LTP312	ltpFR2	1	13	SCISSORS	1250	n/a	n/a	0	0	0
3056361	WORD	wordpools/wasnorm_wordpool_576.txt	LTP312	ltpFR2	1	13	DRESSER	496	n/a	n/a	0	0	0
3058880	WORD	wordpools/wasnorm_wordpool_576.txt	LTP312	ltpFR2	1	13	LOVER	846	n/a	n/a	0	0	0
3061366	WORD	wordpools/wasnorm_wordpool_576.txt	LTP312	ltpFR2	1	13	EGYPT	519	n/a	n/a	0	0	0
3063868	WORD	wordpools/wasnorm_wordpool_576.txt	LTP312	ltpFR2	1	13	PICTURE	1061	n/a	n/a	0	0	0
3066303	WORD	wordpools/wasnorm_wordpool_576.txt	LTP312	ltpFR2	1	13	BLUEPRINT	142	n/a	n/a	0	0	0
3068922	WORD	wordpools/wasnorm_wordpool_576.txt	LTP312	ltpFR2	1	13	TWEEZERS	1526	n/a	n/a	0	0	0
3071708	WORD	wordpools/wasnorm_wordpool_576.txt	LTP312	ltpFR2	1	13	SADDLE	1221	n/a	n/a	0	0	0
3074258	WORD	wordpools/wasnorm_wordpool_576.txt	LTP312	ltpFR2	1	13	ONION	977	n/a	n/a	0	0	0
3076728	WORD	wordpools/wasnorm_wordpool_576.txt	LTP312	ltpFR2	1	13	RATTLE	1170	n/a	n/a	0	0	0
3079230	WORD	wordpools/wasnorm_wordpool_576.txt	LTP312	ltpFR2	1	13	DONKEY	484	n/a	n/a	0	0	0
3081948	WORD	wordpools/wasnorm_wordpool_576.txt	LTP312	ltpFR2	1	13	MATCH	878	n/a	n/a	0	0	0
3084519	WORD	wordpools/wasnorm_wordpool_576.txt	LTP312	ltpFR2	1	13	GUARD	667	n/a	n/a	0	0	0
3086952	WORD	wordpools/wasnorm_wordpool_576.txt	LTP312	ltpFR2	1	13	PIGEON	1065	n/a	n/a	0	0	0
3089454	WORD	wordpools/wasnorm_wordpool_576.txt	LTP312	ltpFR2	1	13	SCARECROW	1245	n/a	n/a	0	0	0
3092257	WORD	wordpools/wasnorm_wordpool_576.txt	LTP312	ltpFR2	1	13	SHRUB	1299	n/a	n/a	0	0	0
3095043	WORD	wordpools/wasnorm_wordpool_576.txt	LTP312	ltpFR2	1	13	GARLIC	624	n/a	n/a	0	0	0
3096650	START	n/a	LTP312	ltpFR2	1	n/a	n/a	n/a	20	n/a	n/a	n/a	n/a
3097792	DISTRACTOR	n/a	LTP312	ltpFR2	1	13	n/a	n/a	n/a	n/a	0	0	0
3097799	PROB	n/a	LTP312	ltpFR2	1	n/a	n/a	n/a	20	18	7	7	4
3099795	PROB	n/a	LTP312	ltpFR2	1	n/a	n/a	n/a	20	16	3	4	9
3103232	PROB	n/a	LTP312	ltpFR2	1	n/a	n/a	n/a	20	14	4	7	3
3104650	PROB	n/a	LTP312	ltpFR2	1	n/a	n/a	n/a	20	19	4	6	9
3106319	PROB	n/a	LTP312	ltpFR2	1	n/a	n/a	n/a	20	17	6	9	2
3107985	PROB	n/a	LTP312	ltpFR2	1	n/a	n/a	n/a	20	24	6	9	9
3109788	PROB	n/a	LTP312	ltpFR2	1	n/a	n/a	n/a	20	19	9	7	3
3111305	PROB	n/a	LTP312	ltpFR2	1	n/a	n/a	n/a	20	12	6	4	2
3112490	PROB	n/a	LTP312	ltpFR2	1	n/a	n/a	n/a	20	14	5	4	5
3113924	PROB	n/a	LTP312	ltpFR2	1	n/a	n/a	n/a	20	23	9	8	6
3117494	PROB	n/a	LTP312	ltpFR2	1	n/a	n/a	n/a	20	17	8	1	8
3120650	STOP	n/a	LTP312	ltpFR2	1	n/a	n/a	n/a	20	n/a	n/a	n/a	n/a
3122399	REC_START	n/a	LTP312	ltpFR2	1	13	n/a	n/a	n/a	n/a	0	0	0
3123496	REC_WORD	wordpools/wasnorm_wordpool_576.txt	LTP312	ltpFR2	1	13	ACTOR	5	n/a	n/a	0	0	0
3124706	REC_WORD	wordpools/wasnorm_wordpool_576.txt	LTP312	ltpFR2	1	13	ACTRESS	6	n/a	n/a	0	0	0
3125706	REC_WORD_VV	wordpools/wasnorm_wordpool_576.txt	LTP312	ltpFR2	1	13	<>	-1	n/a	n/a	0	0	0
3128697	REC_WORD	wordpools/wasnorm_wordpool_576.txt	LTP312	ltpFR2	1	13	DRESSER	496	n/a	n/a	0	0	0
3130072	REC_WORD	wordpools/wasnorm_wordpool_576.txt	LTP312	ltpFR2	1	13	SCARECROW	1245	n/a	n/a	0	0	0
3131072	REC_WORD_VV	wordpools/wasnorm_wordpool_576.txt	LTP312	ltpFR2	1	13	<>	-1	n/a	n/a	0	0	0
3133082	REC_WORD	wordpools/wasnorm_wordpool_576.txt	LTP312	ltpFR2	1	13	LOVER	846	n/a	n/a	0	0	0
3136553	REC_WORD	wordpools/wasnorm_wordpool_576.txt	LTP312	ltpFR2	1	13	GARLIC	624	n/a	n/a	0	0	0
3140208	REC_WORD	wordpools/wasnorm_wordpool_576.txt	LTP312	ltpFR2	1	13	APPLE	33	n/a	n/a	0	0	0
3142180	REC_WORD	wordpools/wasnorm_wordpool_576.txt	LTP312	ltpFR2	1	13	WATCH	-1	n/a	n/a	0	0	0
3145213	REC_WORD	wordpools/wasnorm_wordpool_576.txt	LTP312	ltpFR2	1	13	GUARD	667	n/a	n/a	0	0	0
3212817	DISTRACTOR	n/a	LTP312	ltpFR2	1	14	n/a	n/a	n/a	n/a	0	0	0
3212817	START	n/a	LTP312	ltpFR2	1	n/a	n/a	n/a	21	n/a	n/a	n/a	n/a
3212832	PROB	n/a	LTP312	ltpFR2	1	n/a	n/a	n/a	21	8	2	1	5
3215273	PROB	n/a	LTP312	ltpFR2	1	n/a	n/a	n/a	21	10	1	7	2
3216691	PROB	n/a	LTP312	ltpFR2	1	n/a	n/a	n/a	21	15	3	9	2
3218954	PROB	n/a	LTP312	ltpFR2	1	n/a	n/a	n/a	21	13	7	3	3
3220490	PROB	n/a	LTP312	ltpFR2	1	n/a	n/a	n/a	21	15	6	5	4
3221756	PROB	n/a	LTP312	ltpFR2	1	n/a	n/a	n/a	21	13	2	6	5
3223993	PROB	n/a	LTP312	ltpFR2	1	n/a	n/a	n/a	21	16	6	9	1
3225599	PROB	n/a	LTP312	ltpFR2	1	n/a	n/a	n/a	21	18	3	8	7
3227061	PROB	n/a	LTP312	ltpFR2	1	n/a	n/a	n/a	21	20	9	4	7
3229430	PROB	n/a	LTP312	ltpFR2	1	n/a	n/a	n/a	21	18	9	2	7
3231470	PROB	n/a	LTP312	ltpFR2	1	n/a	n/a	n/a	21	7	4	1	2
3233117	PROB	n/a	LTP312	ltpFR2	1	n/a	n/a	n/a	21	20	8	7	5
3236817	STOP	n/a	LTP312	ltpFR2	1	n/a	n/a	n/a	21	n/a	n/a	n/a	n/a
3237706	WORD	wordpools/wasnorm_wordpool_576.txt	LTP312	ltpFR2	1	14	PEPPER	1047	n/a	n/a	0	0	0
3240259	WORD	wordpools/wasnorm_wordpool_576.txt	LTP312	ltpFR2	1	14	KNAPSACK	783	n/a	n/a	0	0	0
3242792	WORD	wordpools/wasnorm_wordpool_576.txt	LTP312	ltpFR2	1	14	NOVEL	960	n/a	n/a	0	0	0
3245545	WORD	wordpools/wasnorm_wordpool_576.txt	LTP312	ltpFR2	1	14	CASHEW	253	n/a	n/a	0	0	0
3248348	WORD	wordpools/wasnorm_wordpool_576.txt	LTP312	ltpFR2	1	14	STAKE	1368	n/a	n/a	0	0	0
3250950	WORD	wordpools/wasnorm_wordpool_576.txt	LTP312	ltpFR2	1	14	ANTLER	29	n/a	n/a	0	0	0
3253537	WORD	wordpools/wasnorm_wordpool_576.txt	LTP312	ltpFR2	1	14	BADGE	68	n/a	n/a	0	0	0
3256337	WORD	wordpools/wasnorm_wordpool_576.txt	LTP312	ltpFR2	1	14	FLOWER	584	n/a	n/a	0	0	0
3259141	WORD	wordpools/wasnorm_wordpool_576.txt	LTP312	ltpFR2	1	14	RUG	1215	n/a	n/a	0	0	0
3261943	WORD	wordpools/wasnorm_wordpool_576.txt	LTP312	ltpFR2	1	14	LIPSTICK	829	n/a	n/a	0	0	0
3264713	WORD	wordpools/wasnorm_wordpool_576.txt	LTP312	ltpFR2	1	14	VIRUS	1572	n/a	n/a	0	0	0
3267381	WORD	wordpools/wasnorm_wordpool_576.txt	LTP312	ltpFR2	1	14	CLOTHES	327	n/a	n/a	0	0	0
3270000	WORD	wordpools/wasnorm_wordpool_576.txt	LTP312	ltpFR2	1	14	ANKLE	24	n/a	n/a	0	0	0
3272819	WORD	wordpools/wasnorm_wordpool_576.txt	LTP312	ltpFR2	1	14	BUCKET	184	n/a	n/a	0	0	0
3275304	WORD	wordpools/wasnorm_wordpool_576.txt	LTP312	ltpFR2	1	14	PECAN	1036	n/a	n/a	0	0	0
3277973	WORD	wordpools/wasnorm_wordpool_576.txt	LTP312	ltpFR2	1	14	POPCORN	1104	n/a	n/a	0	0	0
3280758	WORD	wordpools/wasnorm_wordpool_576.txt	LTP312	ltpFR2	1	14	SURVEY	1414	n/a	n/a	0	0	0
3283579	WORD	wordpools/wasnorm_wordpool_576.txt	LTP312	ltpFR2	1	14	RIVER	1194	n/a	n/a	0	0	0
3286314	WORD	wordpools/wasnorm_wordpool_576.txt	LTP312	ltpFR2	1	14	MOP	916	n/a	n/a	0	0	0
3289149	WORD	wordpools/wasnorm_wordpool_576.txt	LTP312	ltpFR2	1	14	BOARD	143	n/a	n/a	0	0	0
3291834	WORD	wordpools/wasnorm_wordpool_576.txt	LTP312	ltpFR2	1	14	EUROPE	541	n/a	n/a	0	0	0
3294521	WORD	wordpools/wasnorm_wordpool_576.txt	LTP312	ltpFR2	1	14	JAPAN	749	n/a	n/a	0	0	0
3297138	WORD	wordpools/wasnorm_wordpool_576.txt	LTP312	ltpFR2	1	14	OYSTER	995	n/a	n/a	0	0	0
3299807	WORD	wordpools/wasnorm_wordpool_576.txt	LTP312	ltpFR2	1	14	SCALLOP	1242	n/a	n/a	0	0	0
3301426	START	n/a	LTP312	ltpFR2	1	n/a	n/a	n/a	22	n/a	n/a	n/a	n/a
3302325	DISTRACTOR	n/a	LTP312	ltpFR2	1	14	n/a	n/a	n/a	n/a	0	0	0
3302343	PROB	n/a	LTP312	ltpFR2	1	n/a	n/a	n/a	22	9	7	1	1
3304277	PROB	n/a	LTP312	ltpFR2	1	n/a	n/a	n/a	22	13	1	6	6
3305994	PROB	n/a	LTP312	ltpFR2	1	n/a	n/a	n/a	22	17	6	5	6
3308046	PROB	n/a	LTP312	ltpFR2	1	n/a	n/a	n/a	22	11	2	4	5
3309966	PROB	n/a	LTP312	ltpFR2	1	n/a	n/a	n/a	22	12	1	3	8
3311399	PROB	n/a	LTP312	ltpFR2	1	n/a	n/a	n/a	22	15	8	1	6
3312852	PROB	n/a	LTP312	ltpFR2	1	n/a	n/a	n/a	22	11	6	4	1
3314101	PROB	n/a	LTP312	ltpFR2	1	n/a	n/a	n/a	22	9	2	4	3
3315436	PROB	n/a	LTP312	ltpFR2	1	n/a	n/a	n/a	22	14	3	7	4
3316770	PROB	n/a	LTP312	ltpFR2	1	n/a	n/a	n/a	22	9	1	3	5
3317921	PROB	n/a	LTP312	ltpFR2	1	n/a	n/a	n/a	22	19	7	9	3
3319489	PROB	n/a	LTP312	ltpFR2	1	n/a	n/a	n/a	22	18	4	8	6
3321142	PROB	n/a	LTP312	ltpFR2	1	n/a	n/a	n/a	22	23	6	8	9
3323595	PROB	n/a	LTP312	ltpFR2	1	n/a	n/a	n/a	22	10	5	1	4
3324885	STOP	n/a	LTP312	ltpFR2	1	n/a	n/a	n/a	22	n/a	n/a	n/a	n/a
3327212	REC_START	n/a	LTP312	ltpFR2	1	14	n/a	n/a	n/a	n/a	0	0	0
3336246	REC_WORD	wordpools/wasnorm_wordpool_576.txt	LTP312	ltpFR2	1	14	JAPAN	749	n/a	n/a	0	0	0
3344535	REC_WORD	wordpools/wasnorm_wordpool_576.txt	LTP312	ltpFR2	1	14	SCALLOP	1242	n/a	n/a	0	0	0
3349213	REC_WORD	wordpools/wasnorm_wordpool_576.txt	LTP312	ltpFR2	1	14	OYSTER	995	n/a	n/a	0	0	0
3373457	REC_WORD	wordpools/wasnorm_wordpool_576.txt	LTP312	ltpFR2	1	14	FLOWER	584	n/a	n/a	0	0	0
3374394	REC_WORD	wordpools/wasnorm_wordpool_576.txt	LTP312	ltpFR2	1	14	RUG	1215	n/a	n/a	0	0	0
3436112	DISTRACTOR	n/a	LTP312	ltpFR2	1	15	n/a	n/a	n/a	n/a	0	0	0
3436112	START	n/a	LTP312	ltpFR2	1	n/a	n/a	n/a	23	n/a	n/a	n/a	n/a
3436128	PROB	n/a	LTP312	ltpFR2	1	n/a	n/a	n/a	23	10	3	3	4
3438235	PROB	n/a	LTP312	ltpFR2	1	n/a	n/a	n/a	23	13	7	2	4
3440688	PROB	n/a	LTP312	ltpFR2	1	n/a	n/a	n/a	23	5	3	1	1
3441838	PROB	n/a	LTP312	ltpFR2	1	n/a	n/a	n/a	23	8	2	1	5
3443205	PROB	n/a	LTP312	ltpFR2	1	n/a	n/a	n/a	23	19	8	3	8
3445258	PROB	n/a	LTP312	ltpFR2	1	n/a	n/a	n/a	23	14	6	4	4
3446609	PROB	n/a	LTP312	ltpFR2	1	n/a	n/a	n/a	23	16	2	5	9
3449979	PROB	n/a	LTP312	ltpFR2	1	n/a	n/a	n/a	23	6	2	2	2
3451063	PROB	n/a	LTP312	ltpFR2	1	n/a	n/a	n/a	23	17	5	5	7
3453348	PROB	n/a	LTP312	ltpFR2	1	n/a	n/a	n/a	23	12	3	7	2
3454684	PROB	n/a	LTP312	ltpFR2	1	n/a	n/a	n/a	23	11	4	4	3
3456050	PROB	n/a	LTP312	ltpFR2	1	n/a	n/a	n/a	23	15	6	7	2
3460112	STOP	n/a	LTP312	ltpFR2	1	n/a	n/a	n/a	23	n/a	n/a	n/a	n/a
3461284	WORD	wordpools/wasnorm_wordpool_576.txt	LTP312	ltpFR2	1	15	PORTRAIT	1111	n/a	n/a	0	0	0
3463952	WORD	wordpools/wasnorm_wordpool_576.txt	LTP312	ltpFR2	1	15	SPOOL	1356	n/a	n/a	0	0	0
3466455	WORD	wordpools/wasnorm_wordpool_576.txt	LTP312	ltpFR2	1	15	NECKLACE	940	n/a	n/a	0	0	0
3469241	WORD	wordpools/wasnorm_wordpool_576.txt	LTP312	ltpFR2	1	15	SWAMP	1416	n/a	n/a	0	0	0
3471909	WORD	wordpools/wasnorm_wordpool_576.txt	LTP312	ltpFR2	1	15	YOLK	1633	n/a	n/a	0	0	0
3474700	WORD	wordpools/wasnorm_wordpool_576.txt	LTP312	ltpFR2	1	15	VAGRANT	1544	n/a	n/a	0	0	0
3477432	WORD	wordpools/wasnorm_wordpool_576.txt	LTP312	ltpFR2	1	15	BANK	83	n/a	n/a	0	0	0
3480067	WORD	wordpools/wasnorm_wordpool_576.txt	LTP312	ltpFR2	1	15	AWARD	63	n/a	n/a	0	0	0
3482520	WORD	wordpools/wasnorm_wordpool_576.txt	LTP312	ltpFR2	1	15	BURGLAR	200	n/a	n/a	0	0	0
3485021	WORD	wordpools/wasnorm_wordpool_576.txt	LTP312	ltpFR2	1	15	FLASHLIGHT	575	n/a	n/a	0	0	0
3487473	WORD	wordpools/wasnorm_wordpool_576.txt	LTP312	ltpFR2	1	15	SWITCH	1422	n/a	n/a	0	0	0
3490226	WORD	wordpools/wasnorm_wordpool_576.txt	LTP312	ltpFR2	1	15	BEEF	113	n/a	n/a	0	0	0
3492795	WORD	wordpools/wasnorm_wordpool_576.txt	LTP312	ltpFR2	1	15	CHILD	299	n/a	n/a	0	0	0
3495264	WORD	wordpools/wasnorm_wordpool_576.txt	LTP312	ltpFR2	1	15	SEAFOOD	1260	n/a	n/a	0	0	0
3497982	WORD	wordpools/wasnorm_wordpool_576.txt	LTP312	ltpFR2	1	15	CORAL	378	n/a	n/a	0	0	0
3500619	WORD	wordpools/wasnorm_wordpool_576.txt	LTP312	ltpFR2	1	15	PLAYGROUND	1087	n/a	n/a	0	0	0
3503087	WORD	wordpools/wasnorm_wordpool_576.txt	LTP312	ltpFR2	1	15	GHETTO	633	n/a	n/a	0	0	0
3505889	WORD	wordpools/wasnorm_wordpool_576.txt	LTP312	ltpFR2	1	15	SHARK	1275	n/a	n/a	0	0	0
3508676	WORD	wordpools/wasnorm_wordpool_576.txt	LTP312	ltpFR2	1	15	TILE	1468	n/a	n/a	0	0	0
3511512	WORD	wordpools/wasnorm_wordpool_576.txt	LTP312	ltpFR2	1	15	CEILING	265	n/a	n/a	0	0	0
3514163	WORD	wordpools/wasnorm_wordpool_576.txt	LTP312	ltpFR2	1	15	DIVER	476	n/a	n/a	0	0	0
3516650	WORD	wordpools/wasnorm_wordpool_576.txt	LTP312	ltpFR2	1	15	PATROL	1027	n/a	n/a	0	0	0
3519468	WORD	wordpools/wasnorm_wordpool_576.txt	LTP312	ltpFR2	1	15	CRIB	407	n/a	n/a	0	0	0
3522236	WORD	wordpools/wasnorm_wordpool_576.txt	LTP312	ltpFR2	1	15	HOOK	715	n/a	n/a	0	0	0
3523856	START	n/a	LTP312	ltpFR2	1	n/a	n/a	n/a	24	n/a	n/a	n/a	n/a
3524799	DISTRACTOR	n/a	LTP312	ltpFR2	1	15	n/a	n/a	n/a	n/a	0	0	0
3524805	PROB	n/a	LTP312	ltpFR2	1	n/a	n/a	n/a	24	21	8	4	9
3529057	PROB	n/a	LTP312	ltpFR2	1	n/a	n/a	n/a	24	13	4	8	1
3530942	PROB	n/a	LTP312	ltpFR2	1	n/a	n/a	n/a	24	8	1	4	3
3532263	PROB	n/a	LTP312	ltpFR2	1	n/a	n/a	n/a	24	16	8	5	3
3534030	PROB	n/a	LTP312	ltpFR2	1	n/a	n/a	n/a	24	8	3	3	2
3535463	PROB	n/a	LTP312	ltpFR2	1	n/a	n/a	n/a	24	13	3	6	4
3536698	PROB	n/a	LTP312	ltpFR2	1	n/a	n/a	n/a	24	14	8	3	3
3540399	PROB	n/a	LTP312	ltpFR2	1	n/a	n/a	n/a	24	15	4	9	2
3542553	PROB	n/a	LTP312	ltpFR2	1	n/a	n/a	n/a	24	14	5	5	4
3543770	PROB	n/a	LTP312	ltpFR2	1	n/a	n/a	n/a	24	21	9	9	3
3547856	STOP	n/a	LTP312	ltpFR2	1	n/a	n/a	n/a	24	n/a	n/a	n/a	n/a
3549660	REC_START	n/a	LTP312	ltpFR2	1	15	n/a	n/a	n/a	n/a	0	0	0
3553199	REC_WORD	wordpools/wasnorm_wordpool_576.txt	LTP312	ltpFR2	1	15	GHETTO	633	n/a	n/a	0	0	0
3554443	REC_WORD	wordpools/wasnorm_wordpool_576.txt	LTP312	ltpFR2	1	15	VAGRANT	1544	n/a	n/a	0	0	0
3555794	REC_WORD	wordpools/wasnorm_wordpool_576.txt	LTP312	ltpFR2	1	15	BURGLAR	200	n/a	n/a	0	0	0
3557165	REC_WORD	wordpools/wasnorm_wordpool_576.txt	LTP312	ltpFR2	1	15	FLASHLIGHT	575	n/a	n/a	0	0	0
3562975	REC_WORD	wordpools/wasnorm_wordpool_576.txt	LTP312	ltpFR2	1	15	CRIB	407	n/a	n/a	0	0	0
3564319	REC_WORD	wordpools/wasnorm_wordpool_576.txt	LTP312	ltpFR2	1	15	HOOK	715	n/a	n/a	0	0	0
3567865	REC_WORD	wordpools/wasnorm_wordpool_576.txt	LTP312	ltpFR2	1	15	PLAYGROUND	1087	n/a	n/a	0	0	0
3655505	DISTRACTOR	n/a	LTP312	ltpFR2	1	16	n/a	n/a	n/a	n/a	0	0	0
3655505	START	n/a	LTP312	ltpFR2	1	n/a	n/a	n/a	25	n/a	n/a	n/a	n/a
3655520	PROB	n/a	LTP312	ltpFR2	1	n/a	n/a	n/a	25	9	1	3	5
3657160	PROB	n/a	LTP312	ltpFR2	1	n/a	n/a	n/a	25	7	2	2	3
3659378	PROB	n/a	LTP312	ltpFR2	1	n/a	n/a	n/a	25	14	9	3	2
3661666	PROB	n/a	LTP312	ltpFR2	1	n/a	n/a	n/a	25	12	6	4	2
3662931	PROB	n/a	LTP312	ltpFR2	1	n/a	n/a	n/a	25	9	6	1	2
3664350	PROB	n/a	LTP312	ltpFR2	1	n/a	n/a	n/a	25	23	6	9	8
3667285	PROB	n/a	LTP312	ltpFR2	1	n/a	n/a	n/a	25	12	5	6	1
3669203	PROB	n/a	LTP312	ltpFR2	1	n/a	n/a	n/a	25	12	5	2	5
3670456	PROB	n/a	LTP312	ltpFR2	1	n/a	n/a	n/a	25	12	5	1	6
3672022	PROB	n/a	LTP312	ltpFR2	1	n/a	n/a	n/a	25	22	7	7	8
3674425	PROB	n/a	LTP312	ltpFR2	1	n/a	n/a	n/a	25	16	5	5	6
3676309	PROB	n/a	LTP312	ltpFR2	1	n/a	n/a	n/a	25	13	1	5	7
3679505	STOP	n/a	LTP312	ltpFR2	1	n/a	n/a	n/a	25	n/a	n/a	n/a	n/a
3680559	WORD	wordpools/wasnorm_wordpool_576.txt	LTP312	ltpFR2	1	16	CHIPMUNK	304	n/a	n/a	0	0	0
3683061	WORD	wordpools/wasnorm_wordpool_576.txt	LTP312	ltpFR2	1	16	OX	994	n/a	n/a	0	0	0
3685847	WORD	wordpools/wasnorm_wordpool_576.txt	LTP312	ltpFR2	1	16	SERVANT	1271	n/a	n/a	0	0	0
3688522	WORD	wordpools/wasnorm_wordpool_576.txt	LTP312	ltpFR2	1	16	GROUND	666	n/a	n/a	0	0	0
3691101	WORD	wordpools/wasnorm_wordpool_576.txt	LTP312	ltpFR2	1	16	RADISH	1158	n/a	n/a	0	0	0
3693587	WORD	wordpools/wasnorm_wordpool_576.txt	LTP312	ltpFR2	1	16	FOOTBALL	591	n/a	n/a	0	0	0
3696039	WORD	wordpools/wasnorm_wordpool_576.txt	LTP312	ltpFR2	1	16	HORSE	719	n/a	n/a	0	0	0
3698592	WORD	wordpools/wasnorm_wordpool_576.txt	LTP312	ltpFR2	1	16	SWORD	1423	n/a	n/a	0	0	0
3701093	WORD	wordpools/wasnorm_wordpool_576.txt	LTP312	ltpFR2	1	16	DINER	467	n/a	n/a	0	0	0
3703596	WORD	wordpools/wasnorm_wordpool_576.txt	LTP312	ltpFR2	1	16	AUTHOR	61	n/a	n/a	0	0	0
3706235	WORD	wordpools/wasnorm_wordpool_576.txt	LTP312	ltpFR2	1	16	DANCER	437	n/a	n/a	0	0	0
3709036	WORD	wordpools/wasnorm_wordpool_576.txt	LTP312	ltpFR2	1	16	FOX	598	n/a	n/a	0	0	0
3711836	WORD	wordpools/wasnorm_wordpool_576.txt	LTP312	ltpFR2	1	16	TUNNEL	1519	n/a	n/a	0	0	0
3714522	WORD	wordpools/wasnorm_wordpool_576.txt	LTP312	ltpFR2	1	16	SUPPER	1411	n/a	n/a	0	0	0
3717090	WORD	wordpools/wasnorm_wordpool_576.txt	LTP312	ltpFR2	1	16	TUTU	1524	n/a	n/a	0	0	0
3719776	WORD	wordpools/wasnorm_wordpool_576.txt	LTP312	ltpFR2	1	16	MISTER	901	n/a	n/a	0	0	0
3722295	WORD	wordpools/wasnorm_wordpool_576.txt	LTP312	ltpFR2	1	16	LADY	794	n/a	n/a	0	0	0
3724846	WORD	wordpools/wasnorm_wordpool_576.txt	LTP312	ltpFR2	1	16	CHEMIST	292	n/a	n/a	0	0	0
3727332	WORD	wordpools/wasnorm_wordpool_576.txt	LTP312	ltpFR2	1	16	DUST	508	n/a	n/a	0	0	0
3729834	WORD	wordpools/wasnorm_wordpool_576.txt	LTP312	ltpFR2	1	16	HONEY	713	n/a	n/a	0	0	0
3732287	WORD	wordpools/wasnorm_wordpool_576.txt	LTP312	ltpFR2	1	16	TREAT	1501	n/a	n/a	0	0	0
3734973	WORD	wordpools/wasnorm_wordpool_576.txt	LTP312	ltpFR2	1	16	DRESS	495	n/a	n/a	0	0	0
3737709	WORD	wordpools/wasnorm_wordpool_576.txt	LTP312	ltpFR2	1	16	CARRIAGE	248	n/a	n/a	0	0	0
3740211	WORD	wordpools/wasnorm_wordpool_576.txt	LTP312	ltpFR2	1	16	COLLEGE	346	n/a	n/a	0	0	0
3741830	START	n/a	LTP312	ltpFR2	1	n/a	n/a	n/a	26	n/a	n/a	n/a	n/a
3742950	DISTRACTOR	n/a	LTP312	ltpFR2	1	16	n/a	n/a	n/a	n/a	0	0	0
3742963	PROB	n/a	LTP312	ltpFR2	1	n/a	n/a	n/a	26	18	1	9	8
3744932	PROB	n/a	LTP312	ltpFR2	1	n/a	n/a	n/a	26	11	3	5	3
3746500	PROB	n/a	LTP312	ltpFR2	1	n/a	n/a	n/a	26	20	4	9	7
3749086	PROB	n/a	LTP312	ltpFR2	1	n/a	n/a	n/a	26	11	6	2	3
3751504	PROB	n/a	LTP312	ltpFR2	1	n/a	n/a	n/a	26	11	3	5	3
3753256	PROB	n/a	LTP312	ltpFR2	1	n/a	n/a	n/a	26	22	8	7	7
3755257	PROB	n/a	LTP312	ltpFR2	1	n/a	n/a	n/a	26	24	9	7	8
3759926	PROB	n/a	LTP312	ltpFR2	1	n/a	n/a	n/a	26	11	6	1	4
3761277	PROB	n/a	LTP312	ltpFR2	1	n/a	n/a	n/a	26	15	5	7	3
3763012	PROB	n/a	LTP312	ltpFR2	1	n/a	n/a	n/a	26	14	4	5	5
3765830	STOP	n/a	LTP312	ltpFR2	1	n/a	n/a	n/a	26	n/a	n/a	n/a	n/a
3767751	REC_START	n/a	LTP312	ltpFR2	1	16	n/a	n/a	n/a	n/a	0	0	0
3770457	REC_WORD	wordpools/wasnorm_wordpool_576.txt	LTP312	ltpFR2	1	16	HONEY	713	n/a	n/a	0	0	0
3771771	REC_WORD	wordpools/wasnorm_wordpool_576.txt	LTP312	ltpFR2	1	16	TREAT	1501	n/a	n/a	0	0	0
3773395	REC_WORD	wordpools/wasnorm_wordpool_576.txt	LTP312	ltpFR2	1	16	LADY	794	n/a	n/a	0	0	0
3776046	REC_WORD	wordpools/wasnorm_wordpool_576.txt	LTP312	ltpFR2	1	16	OX	994	n/a	n/a	0	0	0
3777104	REC_WORD	wordpools/wasnorm_wordpool_576.txt	LTP312	ltpFR2	1	16	CHIPMUNK	304	n/a	n/a	0	0	0
3779604	REC_WORD	wordpools/wasnorm_wordpool_576.txt	LTP312	ltpFR2	1	16	RADISH	1158	n/a	n/a	0	0	0
3780907	REC_WORD	wordpools/wasnorm_wordpool_576.txt	LTP312	ltpFR2	1	16	FOOTBALL	591	n/a	n/a	0	0	0
3844278	REST_REWET	n/a	LTP312	ltpFR2	1	16	n/a	n/a	n/a	n/a	0	0	0
4259012	DISTRACTOR	n/a	LTP312	ltpFR2	1	17	n/a	n/a	n/a	n/a	0	0	0
4259012	START	n/a	LTP312	ltpFR2	1	n/a	n/a	n/a	27	n/a	n/a	n/a	n/a
4259027	PROB	n/a	LTP312	ltpFR2	1	n/a	n/a	n/a	27	18	5	4	9
4261479	PROB	n/a	LTP312	ltpFR2	1	n/a	n/a	n/a	27	13	2	7	4
4263599	PROB	n/a	LTP312	ltpFR2	1	n/a	n/a	n/a	27	8	5	2	1
4265048	PROB	n/a	LTP312	ltpFR2	1	n/a	n/a	n/a	27	10	5	1	4
4266635	PROB	n/a	LTP312	ltpFR2	1	n/a	n/a	n/a	27	15	9	2	4
4268468	PROB	n/a	LTP312	ltpFR2	1	n/a	n/a	n/a	27	26	9	8	9
4272155	PROB	n/a	LTP312	ltpFR2	1	n/a	n/a	n/a	27	10	3	6	1
4273823	PROB	n/a	LTP312	ltpFR2	1	n/a	n/a	n/a	27	11	1	7	3
4275023	PROB	n/a	LTP312	ltpFR2	1	n/a	n/a	n/a	27	15	8	1	6
4276307	PROB	n/a	LTP312	ltpFR2	1	n/a	n/a	n/a	27	27	9	9	9
4277727	PROB	n/a	LTP312	ltpFR2	1	n/a	n/a	n/a	27	13	6	2	5
4279826	PROB	n/a	LTP312	ltpFR2	1	n/a	n/a	n/a	27	8	1	1	6
4283012	STOP	n/a	LTP312	ltpFR2	1	n/a	n/a	n/a	27	n/a	n/a	n/a	n/a
4284218	WORD	wordpools/wasnorm_wordpool_576.txt	LTP312	ltpFR2	1	17	GAZELLE	628	n/a	n/a	0	0	0
4286968	WORD	wordpools/wasnorm_wordpool_576.txt	LTP312	ltpFR2	1	17	MUSTARD	935	n/a	n/a	0	0	0
4289524	WORD	wordpools/wasnorm_wordpool_576.txt	LTP312	ltpFR2	1	17	WRENCH	1625	n/a	n/a	0	0	0
4292105	WORD	wordpools/wasnorm_wordpool_576.txt	LTP312	ltpFR2	1	17	STOMACH	1384	n/a	n/a	0	0	0
4294624	WORD	wordpools/wasnorm_wordpool_576.txt	LTP312	ltpFR2	1	17	BRANDY	169	n/a	n/a	0	0	0
4297242	WORD	wordpools/wasnorm_wordpool_576.txt	LTP312	ltpFR2	1	17	DRINK	498	n/a	n/a	0	0	0
4299778	WORD	wordpools/wasnorm_wordpool_576.txt	LTP312	ltpFR2	1	17	GARBAGE	622	n/a	n/a	0	0	0
4302514	WORD	wordpools/wasnorm_wordpool_576.txt	LTP312	ltpFR2	1	17	PISTOL	1075	n/a	n/a	0	0	0
4305098	WORD	wordpools/wasnorm_wordpool_576.txt	LTP312	ltpFR2	1	17	FEMALE	559	n/a	n/a	0	0	0
4307867	WORD	wordpools/wasnorm_wordpool_576.txt	LTP312	ltpFR2	1	17	CHEST	295	n/a	n/a	0	0	0
4310642	WORD	wordpools/wasnorm_wordpool_576.txt	LTP312	ltpFR2	1	17	GYMNAST	675	n/a	n/a	0	0	0
4313155	WORD	wordpools/wasnorm_wordpool_576.txt	LTP312	ltpFR2	1	17	CONCERT	360	n/a	n/a	0	0	0
4315874	WORD	wordpools/wasnorm_wordpool_576.txt	LTP312	ltpFR2	1	17	MAPLE	866	n/a	n/a	0	0	0
4318511	WORD	wordpools/wasnorm_wordpool_576.txt	LTP312	ltpFR2	1	17	DORM	488	n/a	n/a	0	0	0
4320994	WORD	wordpools/wasnorm_wordpool_576.txt	LTP312	ltpFR2	1	17	SHELTER	1282	n/a	n/a	0	0	0
4323797	WORD	wordpools/wasnorm_wordpool_576.txt	LTP312	ltpFR2	1	17	GREASE	660	n/a	n/a	0	0	0
4326490	WORD	wordpools/wasnorm_wordpool_576.txt	LTP312	ltpFR2	1	17	BRANCH	168	n/a	n/a	0	0	0
4329101	WORD	wordpools/wasnorm_wordpool_576.txt	LTP312	ltpFR2	1	17	THREAD	1460	n/a	n/a	0	0	0
4331654	WORD	wordpools/wasnorm_wordpool_576.txt	LTP312	ltpFR2	1	17	MEDAL	885	n/a	n/a	0	0	0
4334439	WORD	wordpools/wasnorm_wordpool_576.txt	LTP312	ltpFR2	1	17	LUMBER	848	n/a	n/a	0	0	0
4337108	WORD	wordpools/wasnorm_wordpool_576.txt	LTP312	ltpFR2	1	17	DRAGON	492	n/a	n/a	0	0	0
4339810	WORD	wordpools/wasnorm_wordpool_576.txt	LTP312	ltpFR2	1	17	RAZOR	1171	n/a	n/a	0	0	0
4342368	WORD	wordpools/wasnorm_wordpool_576.txt	LTP312	ltpFR2	1	17	PASTA	1021	n/a	n/a	0	0	0
4345030	WORD	wordpools/wasnorm_wordpool_576.txt	LTP312	ltpFR2	1	17	RIFLE	1192	n/a	n/a	0	0	0
4346642	START	n/a	LTP312	ltpFR2	1	n/a	n/a	n/a	28	n/a	n/a	n/a	n/a
4347700	DISTRACTOR	n/a	LTP312	ltpFR2	1	17	n/a	n/a	n/a	n/a	0	0	0
4347708	PROB	n/a	LTP312	ltpFR2	1	n/a	n/a	n/a	28	20	7	8	5
4350834	PROB	n/a	LTP312	ltpFR2	1	n/a	n/a	n/a	28	13	3	3	5
4353653	PROB	n/a	LTP312	ltpFR2	1	n/a	n/a	n/a	28	12	4	1	7
4355021	PROB	n/a	LTP312	ltpFR2	1	n/a	n/a	n/a	28	14	4	4	6
4356338	PROB	n/a	LTP312	ltpFR2	1	n/a	n/a	n/a	28	21	8	5	9
4358508	PROB	n/a	LTP312	ltpFR2	1	n/a	n/a	n/a	28	20	9	7	4
4360643	PROB	n/a	LTP312	ltpFR2	1	n/a	n/a	n/a	28	9	3	5	1
4361810	PROB	n/a	LTP312	ltpFR2	1	n/a	n/a	n/a	28	12	3	1	8
4363327	PROB	n/a	LTP312	ltpFR2	1	n/a	n/a	n/a	28	18	9	2	8
4364612	PROB	n/a	LTP312	ltpFR2	1	n/a	n/a	n/a	28	19	9	4	6
4367431	PROB	n/a	LTP312	ltpFR2	1	n/a	n/a	n/a	28	8	1	3	4
4368732	PROB	n/a	LTP312	ltpFR2	1	n/a	n/a	n/a	28	15	9	5	1
4370392	STOP	n/a	LTP312	ltpFR2	1	n/a	n/a	n/a	28	n/a	n/a	n/a	n/a
4372419	REC_START	n/a	LTP312	ltpFR2	1	17	n/a	n/a	n/a	n/a	0	0	0
4373819	REC_WORD	wordpools/wasnorm_wordpool_576.txt	LTP312	ltpFR2	1	17	RAZOR	1171	n/a	n/a	0	0	0
4375208	REC_WORD	wordpools/wasnorm_wordpool_576.txt	LTP312	ltpFR2	1	17	PASTA	1021	n/a	n/a	0	0	0
4376873	REC_WORD	wordpools/wasnorm_wordpool_576.txt	LTP312	ltpFR2	1	17	GAZELLE	628	n/a	n/a	0	0	0
4379004	REC_WORD	wordpools/wasnorm_wordpool_576.txt	LTP312	ltpFR2	1	17	GREASE	660	n/a	n/a	0	0	0
4380594	REC_WORD	wordpools/wasnorm_wordpool_576.txt	LTP312	ltpFR2	1	17	BRANCH	168	n/a	n/a	0	0	0
4382160	REC_WORD	wordpools/wasnorm_wordpool_576.txt	LTP312	ltpFR2	1	17	LUMBER	848	n/a	n/a	0	0	0
4397556	REC_WORD	wordpools/wasnorm_wordpool_576.txt	LTP312	ltpFR2	1	17	DRAGON	492	n/a	n/a	0	0	0
4403727	REC_WORD	wordpools/wasnorm_wordpool_576.txt	LTP312	ltpFR2	1	17	DORM	488	n/a	n/a	0	0	0
4404718	REC_WORD	wordpools/wasnorm_wordpool_576.txt	LTP312	ltpFR2	1	17	SHELTER	1282	n/a	n/a	0	0	0
4426058	REC_WORD	wordpools/wasnorm_wordpool_576.txt	LTP312	ltpFR2	1	17	MAPLE	866	n/a	n/a	0	0	0
4485676	WORD	wordpools/wasnorm_wordpool_576.txt	LTP312	ltpFR2	1	18	PLIERS	1089	n/a	n/a	0	0	0
4488497	WORD	wordpools/wasnorm_wordpool_576.txt	LTP312	ltpFR2	1	18	PLUTO	1092	n/a	n/a	0	0	0
4491198	WORD	wordpools/wasnorm_wordpool_576.txt	LTP312	ltpFR2	1	18	EXPERT	543	n/a	n/a	0	0	0
4493817	WORD	wordpools/wasnorm_wordpool_576.txt	LTP312	ltpFR2	1	18	MISSILE	900	n/a	n/a	0	0	0
4496604	WORD	wordpools/wasnorm_wordpool_576.txt	LTP312	ltpFR2	1	18	NOTEBOOK	959	n/a	n/a	0	0	0
4499055	WORD	wordpools/wasnorm_wordpool_576.txt	LTP312	ltpFR2	1	18	LILY	821	n/a	n/a	0	0	0
4501823	WORD	wordpools/wasnorm_wordpool_576.txt	LTP312	ltpFR2	1	18	MATTRESS	879	n/a	n/a	0	0	0
4504392	WORD	wordpools/wasnorm_wordpool_576.txt	LTP312	ltpFR2	1	18	SALMON	1227	n/a	n/a	0	0	0
4506860	WORD	wordpools/wasnorm_wordpool_576.txt	LTP312	ltpFR2	1	18	STREAM	1392	n/a	n/a	0	0	0
4509379	WORD	wordpools/wasnorm_wordpool_576.txt	LTP312	ltpFR2	1	18	EAGLE	512	n/a	n/a	0	0	0
4512048	WORD	wordpools/wasnorm_wordpool_576.txt	LTP312	ltpFR2	1	18	SPACE	1345	n/a	n/a	0	0	0
4514469	WORD	wordpools/wasnorm_wordpool_576.txt	LTP312	ltpFR2	1	18	COMET	353	n/a	n/a	0	0	0
4517251	WORD	wordpools/wasnorm_wordpool_576.txt	LTP312	ltpFR2	1	18	LAGOON	795	n/a	n/a	0	0	0
4519853	WORD	wordpools/wasnorm_wordpool_576.txt	LTP312	ltpFR2	1	18	MARSH	874	n/a	n/a	0	0	0
4522558	WORD	wordpools/wasnorm_wordpool_576.txt	LTP312	ltpFR2	1	18	CYCLONE	431	n/a	n/a	0	0	0
4525242	WORD	wordpools/wasnorm_wordpool_576.txt	LTP312	ltpFR2	1	18	NIGHTGOWN	953	n/a	n/a	0	0	0
4527944	WORD	wordpools/wasnorm_wordpool_576.txt	LTP312	ltpFR2	1	18	PEDAL	1037	n/a	n/a	0	0	0
4530746	WORD	wordpools/wasnorm_wordpool_576.txt	LTP312	ltpFR2	1	18	BROOK	177	n/a	n/a	0	0	0
4533301	WORD	wordpools/wasnorm_wordpool_576.txt	LTP312	ltpFR2	1	18	POSSUM	1112	n/a	n/a	0	0	0
4536001	WORD	wordpools/wasnorm_wordpool_576.txt	LTP312	ltpFR2	1	18	CABIN	211	n/a	n/a	0	0	0
4538586	WORD	wordpools/wasnorm_wordpool_576.txt	LTP312	ltpFR2	1	18	BEAVER	109	n/a	n/a	0	0	0
4541005	WORD	wordpools/wasnorm_wordpool_576.txt	LTP312	ltpFR2	1	18	PISTON	1076	n/a	n/a	0	0	0
4543674	WORD	wordpools/wasnorm_wordpool_576.txt	LTP312	ltpFR2	1	18	ROCKET	1202	n/a	n/a	0	0	0
4546342	WORD	wordpools/wasnorm_wordpool_576.txt	LTP312	ltpFR2	1	18	SNAKE	1333	n/a	n/a	0	0	0
4547950	START	n/a	LTP312	ltpFR2	1	n/a	n/a	n/a	29	n/a	n/a	n/a	n/a
4548873	DISTRACTOR	n/a	LTP312	ltpFR2	1	18	n/a	n/a	n/a	n/a	0	0	0
4548877	PROB	n/a	LTP312	ltpFR2	1	n/a	n/a	n/a	29	5	1	1	3
4550580	PROB	n/a	LTP312	ltpFR2	1	n/a	n/a	n/a	29	21	8	5	7
4553915	PROB	n/a	LTP312	ltpFR2	1	n/a	n/a	n/a	29	25	9	8	8
4556618	PROB	n/a	LTP312	ltpFR2	1	n/a	n/a	n/a	29	13	7	2	4
4558817	PROB	n/a	LTP312	ltpFR2	1	n/a	n/a	n/a	29	18	8	1	9
4560354	PROB	n/a	LTP312	ltpFR2	1	n/a	n/a	n/a	29	16	6	7	3
4561838	PROB	n/a	LTP312	ltpFR2	1	n/a	n/a	n/a	29	10	6	1	3
4563672	PROB	n/a	LTP312	ltpFR2	1	n/a	n/a	n/a	29	16	5	9	2
4566641	PROB	n/a	LTP312	ltpFR2	1	n/a	n/a	n/a	29	15	6	4	5
4568109	PROB	n/a	LTP312	ltpFR2	1	n/a	n/a	n/a	29	12	8	2	2
4569376	PROB	n/a	LTP312	ltpFR2	1	n/a	n/a	n/a	29	10	7	1	2
4570840	STOP	n/a	LTP312	ltpFR2	1	n/a	n/a	n/a	29	n/a	n/a	n/a	n/a
4573796	REC_START	n/a	LTP312	ltpFR2	1	18	n/a	n/a	n/a	n/a	0	0	0
4575304	REC_WORD	wordpools/wasnorm_wordpool_576.txt	LTP312	ltpFR2	1	18	PISTOL	1075	n/a	n/a	0	0	0
4576528	REC_WORD	wordpools/wasnorm_wordpool_576.txt	LTP312	ltpFR2	1	18	CABIN	211	n/a	n/a	0	0	0
4577862	REC_WORD	wordpools/wasnorm_wordpool_576.txt	LTP312	ltpFR2	1	18	BEAVER	109	n/a	n/a	0	0	0
4579268	REC_WORD	wordpools/wasnorm_wordpool_576.txt	LTP312	ltpFR2	1	18	PLIERS	1089	n/a	n/a	0	0	0
4580574	REC_WORD	wordpools/wasnorm_wordpool_576.txt	LTP312	ltpFR2	1	18	PLUTO	1092	n/a	n/a	0	0	0
4581838	REC_WORD	wordpools/wasnorm_wordpool_576.txt	LTP312	ltpFR2	1	18	MISSILE	900	n/a	n/a	0	0	0
4587467	REC_WORD	wordpools/wasnorm_wordpool_576.txt	LTP312	ltpFR2	1	18	NIGHTMARE	-1	n/a	n/a	0	0	0
4664232	WORD	wordpools/wasnorm_wordpool_576.txt	LTP312	ltpFR2	1	19	PARTNER	1017	n/a	n/a	0	0	0
4667035	WORD	wordpools/wasnorm_wordpool_576.txt	LTP312	ltpFR2	1	19	PICNIC	1060	n/a	n/a	0	0	0
4669656	WORD	wordpools/wasnorm_wordpool_576.txt	LTP312	ltpFR2	1	19	PEBBLE	1035	n/a	n/a	0	0	0
4672122	WORD	wordpools/wasnorm_wordpool_576.txt	LTP312	ltpFR2	1	19	STONE	1385	n/a	n/a	0	0	0
4674743	WORD	wordpools/wasnorm_wordpool_576.txt	LTP312	ltpFR2	1	19	TROMBONE	1508	n/a	n/a	0	0	0
4677378	WORD	wordpools/wasnorm_wordpool_576.txt	LTP312	ltpFR2	1	19	FLUTE	585	n/a	n/a	0	0	0
4680180	WORD	wordpools/wasnorm_wordpool_576.txt	LTP312	ltpFR2	1	19	UMPIRE	1535	n/a	n/a	0	0	0
4682966	WORD	wordpools/wasnorm_wordpool_576.txt	LTP312	ltpFR2	1	19	GLOVE	642	n/a	n/a	0	0	0
4685452	WORD	wordpools/wasnorm_wordpool_576.txt	LTP312	ltpFR2	1	19	COUNTY	389	n/a	n/a	0	0	0
4688037	WORD	wordpools/wasnorm_wordpool_576.txt	LTP312	ltpFR2	1	19	YACHT	1629	n/a	n/a	0	0	0
4690642	WORD	wordpools/wasnorm_wordpool_576.txt	LTP312	ltpFR2	1	19	GRAPE	654	n/a	n/a	0	0	0
4693224	WORD	wordpools/wasnorm_wordpool_576.txt	LTP312	ltpFR2	1	19	VELVET	1555	n/a	n/a	0	0	0
4695811	WORD	wordpools/wasnorm_wordpool_576.txt	LTP312	ltpFR2	1	19	JUGGLER	763	n/a	n/a	0	0	0
4698597	WORD	wordpools/wasnorm_wordpool_576.txt	LTP312	ltpFR2	1	19	FRAME	600	n/a	n/a	0	0	0
4701398	WORD	wordpools/wasnorm_wordpool_576.txt	LTP312	ltpFR2	1	19	ROBIN	1199	n/a	n/a	0	0	0
4703835	WORD	wordpools/wasnorm_wordpool_576.txt	LTP312	ltpFR2	1	19	WIFE	1609	n/a	n/a	0	0	0
4706604	WORD	wordpools/wasnorm_wordpool_576.txt	LTP312	ltpFR2	1	19	HANDBAG	684	n/a	n/a	0	0	0
4709056	WORD	wordpools/wasnorm_wordpool_576.txt	LTP312	ltpFR2	1	19	POCKET	1093	n/a	n/a	0	0	0
4711758	WORD	wordpools/wasnorm_wordpool_576.txt	LTP312	ltpFR2	1	19	CATTLE	261	n/a	n/a	0	0	0
4714326	WORD	wordpools/wasnorm_wordpool_576.txt	LTP312	ltpFR2	1	19	FLESH	579	n/a	n/a	0	0	0
4717113	WORD	wordpools/wasnorm_wordpool_576.txt	LTP312	ltpFR2	1	19	JEANS	752	n/a	n/a	0	0	0
4719648	WORD	wordpools/wasnorm_wordpool_576.txt	LTP312	ltpFR2	1	19	KEEPER	769	n/a	n/a	0	0	0
4722184	WORD	wordpools/wasnorm_wordpool_576.txt	LTP312	ltpFR2	1	19	TERMITE	1451	n/a	n/a	0	0	0
4724687	WORD	wordpools/wasnorm_wordpool_576.txt	LTP312	ltpFR2	1	19	HAWK	692	n/a	n/a	0	0	0
4726304	START	n/a	LTP312	ltpFR2	1	n/a	n/a	n/a	30	n/a	n/a	n/a	n/a
4727406	DISTRACTOR	n/a	LTP312	ltpFR2	1	19	n/a	n/a	n/a	n/a	0	0	0
4727421	PROB	n/a	LTP312	ltpFR2	1	n/a	n/a	n/a	30	24	8	8	8
4729438	PROB	n/a	LTP312	ltpFR2	1	n/a	n/a	n/a	30	13	2	6	5
4732874	PROB	n/a	LTP312	ltpFR2	1	n/a	n/a	n/a	30	15	4	4	7
4734710	PROB	n/a	LTP312	ltpFR2	1	n/a	n/a	n/a	30	14	5	3	4
4736545	PROB	n/a	LTP312	ltpFR2	1	n/a	n/a	n/a	30	18	6	6	6
4738446	PROB	n/a	LTP312	ltpFR2	1	n/a	n/a	n/a	30	18	6	7	5
4740363	PROB	n/a	LTP312	ltpFR2	1	n/a	n/a	n/a	30	4	1	2	1
4741632	PROB	n/a	LTP312	ltpFR2	1	n/a	n/a	n/a	30	12	6	2	4
4742898	PROB	n/a	LTP312	ltpFR2	1	n/a	n/a	n/a	30	13	3	3	7
4744116	PROB	n/a	LTP312	ltpFR2	1	n/a	n/a	n/a	30	22	9	9	4
4745718	PROB	n/a	LTP312	ltpFR2	1	n/a	n/a	n/a	30	24	6	9	9
4748069	PROB	n/a	LTP312	ltpFR2	1	n/a	n/a	n/a	30	14	5	1	8
4749775	STOP	n/a	LTP312	ltpFR2	1	n/a	n/a	n/a	30	n/a	n/a	n/a	n/a
4752173	REC_START	n/a	LTP312	ltpFR2	1	19	n/a	n/a	n/a	n/a	0	0	0
4755579	REC_WORD	wordpools/wasnorm_wordpool_576.txt	LTP312	ltpFR2	1	19	JUGGLER	763	n/a	n/a	0	0	0
4757452	REC_WORD	wordpools/wasnorm_wordpool_576.txt	LTP312	ltpFR2	1	19	COUNTY	389	n/a	n/a	0	0	0
4758796	REC_WORD	wordpools/wasnorm_wordpool_576.txt	LTP312	ltpFR2	1	19	YACHT	1629	n/a	n/a	0	0	0
4760404	REC_WORD	wordpools/wasnorm_wordpool_576.txt	LTP312	ltpFR2	1	19	GRAPE	654	n/a	n/a	0	0	0
4762135	REC_WORD	wordpools/wasnorm_wordpool_576.txt	LTP312	ltpFR2	1	19	PEBBLE	1035	n/a	n/a	0	0	0
4764548	REC_WORD	wordpools/wasnorm_wordpool_576.txt	LTP312	ltpFR2	1	19	FLUTE	585	n/a	n/a	0	0	0
4765722	REC_WORD	wordpools/wasnorm_wordpool_576.txt	LTP312	ltpFR2	1	19	TROMBONE	1508	n/a	n/a	0	0	0
4766722	REC_WORD_VV	wordpools/wasnorm_wordpool_576.txt	LTP312	ltpFR2	1	19	<>	-1	n/a	n/a	0	0	0
4852539	WORD	wordpools/wasnorm_wordpool_576.txt	LTP312	ltpFR2	1	20	PARROT	1015	n/a	n/a	0	0	0
4854990	WORD	wordpools/wasnorm_wordpool_576.txt	LTP312	ltpFR2	1	20	BOUQUET	157	n/a	n/a	0	0	0
4857536	WORD	wordpools/wasnorm_wordpool_576.txt	LTP312	ltpFR2	1	20	SUSPECT	1415	n/a	n/a	0	0	0
4859953	WORD	wordpools/wasnorm_wordpool_576.txt	LTP312	ltpFR2	1	20	COFFEE	341	n/a	n/a	0	0	0
4862479	WORD	wordpools/wasnorm_wordpool_576.txt	LTP312	ltpFR2	1	20	BREAST	171	n/a	n/a	0	0	0
4865008	WORD	wordpools/wasnorm_wordpool_576.txt	LTP312	ltpFR2	1	20	RACKET	1155	n/a	n/a	0	0	0
4867601	WORD	wordpools/wasnorm_wordpool_576.txt	LTP312	ltpFR2	1	20	LOFT	840	n/a	n/a	0	0	0
4870068	WORD	wordpools/wasnorm_wordpool_576.txt	LTP312	ltpFR2	1	20	GLOBE	641	n/a	n/a	0	0	0
4872648	WORD	wordpools/wasnorm_wordpool_576.txt	LTP312	ltpFR2	1	20	AIRPORT	13	n/a	n/a	0	0	0
4875317	WORD	wordpools/wasnorm_wordpool_576.txt	LTP312	ltpFR2	1	20	PADDLE	1000	n/a	n/a	0	0	0
4877903	WORD	wordpools/wasnorm_wordpool_576.txt	LTP312	ltpFR2	1	20	RAFT	1159	n/a	n/a	0	0	0
4880506	WORD	wordpools/wasnorm_wordpool_576.txt	LTP312	ltpFR2	1	20	ROOSTER	1209	n/a	n/a	0	0	0
4883090	WORD	wordpools/wasnorm_wordpool_576.txt	LTP312	ltpFR2	1	20	SHORTS	1293	n/a	n/a	0	0	0
4885716	WORD	wordpools/wasnorm_wordpool_576.txt	LTP312	ltpFR2	1	20	LAPEL	800	n/a	n/a	0	0	0
4888379	WORD	wordpools/wasnorm_wordpool_576.txt	LTP312	ltpFR2	1	20	SPHINX	1349	n/a	n/a	0	0	0
4890897	WORD	wordpools/wasnorm_wordpool_576.txt	LTP312	ltpFR2	1	20	FLAG	573	n/a	n/a	0	0	0
4893466	WORD	wordpools/wasnorm_wordpool_576.txt	LTP312	ltpFR2	1	20	AIRPLANE	12	n/a	n/a	0	0	0
4896268	WORD	wordpools/wasnorm_wordpool_576.txt	LTP312	ltpFR2	1	20	PILOT	1070	n/a	n/a	0	0	0
4898837	WORD	wordpools/wasnorm_wordpool_576.txt	LTP312	ltpFR2	1	20	WASP	1593	n/a	n/a	0	0	0
4901323	WORD	wordpools/wasnorm_wordpool_576.txt	LTP312	ltpFR2	1	20	PIANO	1057	n/a	n/a	0	0	0
4903863	WORD	wordpools/wasnorm_wordpool_576.txt	LTP312	ltpFR2	1	20	KETCHUP	771	n/a	n/a	0	0	0
4906629	WORD	wordpools/wasnorm_wordpool_576.txt	LTP312	ltpFR2	1	20	FLASK	576	n/a	n/a	0	0	0
4909146	WORD	wordpools/wasnorm_wordpool_576.txt	LTP312	ltpFR2	1	20	ROBBER	1197	n/a	n/a	0	0	0
4911932	WORD	wordpools/wasnorm_wordpool_576.txt	LTP312	ltpFR2	1	20	CANYON	235	n/a	n/a	0	0	0
4913538	START	n/a	LTP312	ltpFR2	1	n/a	n/a	n/a	31	n/a	n/a	n/a	n/a
4914452	DISTRACTOR	n/a	LTP312	ltpFR2	1	20	n/a	n/a	n/a	n/a	0	0	0
4914468	PROB	n/a	LTP312	ltpFR2	1	n/a	n/a	n/a	31	16	6	5	5
4916089	PROB	n/a	LTP312	ltpFR2	1	n/a	n/a	n/a	31	17	8	6	3
4918037	PROB	n/a	LTP312	ltpFR2	1	n/a	n/a	n/a	31	17	6	2	9
4920455	PROB	n/a	LTP312	ltpFR2	1	n/a	n/a	n/a	31	10	8	1	1
4921659	PROB	n/a	LTP312	ltpFR2	1	n/a	n/a	n/a	31	10	7	1	2
4922840	PROB	n/a	LTP312	ltpFR2	1	n/a	n/a	n/a	31	14	7	1	6
4924559	PROB	n/a	LTP312	ltpFR2	1	n/a	n/a	n/a	31	15	1	9	5
4926377	PROB	n/a	LTP312	ltpFR2	1	n/a	n/a	n/a	31	20	9	2	9
4928013	PROB	n/a	LTP312	ltpFR2	1	n/a	n/a	n/a	31	13	2	6	5
4929498	PROB	n/a	LTP312	ltpFR2	1	n/a	n/a	n/a	31	18	8	3	7
4930932	PROB	n/a	LTP312	ltpFR2	1	n/a	n/a	n/a	31	19	4	7	8
4932766	PROB	n/a	LTP312	ltpFR2	1	n/a	n/a	n/a	31	16	6	5	5
4934250	PROB	n/a	LTP312	ltpFR2	1	n/a	n/a	n/a	31	14	6	2	6
4935620	PROB	n/a	LTP312	ltpFR2	1	n/a	n/a	n/a	31	14	6	7	1
4937063	STOP	n/a	LTP312	ltpFR2	1	n/a	n/a	n/a	31	n/a	n/a	n/a	n/a
4939375	REC_START	n/a	LTP312	ltpFR2	1	20	n/a	n/a	n/a	n/a	0	0	0
4954285	REC_WORD	wordpools/wasnorm_wordpool_576.txt	LTP312	ltpFR2	1	20	LOFT	840	n/a	n/a	0	0	0
4955535	REC_WORD	wordpools/wasnorm_wordpool_576.txt	LTP312	ltpFR2	1	20	BREAST	171	n/a	n/a	0	0	0
4956923	REC_WORD	wordpools/wasnorm_wordpool_576.txt	LTP312	ltpFR2	1	20	RAFT	1159	n/a	n/a	0	0	0
4958304	REC_WORD	wordpools/wasnorm_wordpool_576.txt	LTP312	ltpFR2	1	20	PADDLE	1000	n/a	n/a	0	0	0
4964777	REC_WORD	wordpools/wasnorm_wordpool_576.txt	LTP312	ltpFR2	1	20	WASP	1593	n/a	n/a	0	0	0
4969438	REC_WORD	wordpools/wasnorm_wordpool_576.txt	LTP312	ltpFR2	1	20	AIRPLANE	12	n/a	n/a	0	0	0
4970716	REC_WORD	wordpools/wasnorm_wordpool_576.txt	LTP312	ltpFR2	1	20	PILOT	1070	n/a	n/a	0	0	0
4974868	REC_WORD	wordpools/wasnorm_wordpool_576.txt	LTP312	ltpFR2	1	20	GLOBE	641	n/a	n/a	0	0	0
4981134	REC_WORD	wordpools/wasnorm_wordpool_576.txt	LTP312	ltpFR2	1	20	PIANO	1057	n/a	n/a	0	0	0
4982755	REC_WORD	wordpools/wasnorm_wordpool_576.txt	LTP312	ltpFR2	1	20	SPHINX	1349	n/a	n/a	0	0	0
4987919	REC_WORD	wordpools/wasnorm_wordpool_576.txt	LTP312	ltpFR2	1	20	LAPEL	800	n/a	n/a	0	0	0
5032684	DISTRACTOR	n/a	LTP312	ltpFR2	1	21	n/a	n/a	n/a	n/a	0	0	0
5032684	START	n/a	LTP312	ltpFR2	1	n/a	n/a	n/a	32	n/a	n/a	n/a	n/a
5032698	PROB	n/a	LTP312	ltpFR2	1	n/a	n/a	n/a	32	21	4	8	9
5035634	PROB	n/a	LTP312	ltpFR2	1	n/a	n/a	n/a	32	11	8	1	3
5038353	PROB	n/a	LTP312	ltpFR2	1	n/a	n/a	n/a	32	17	7	3	7
5041139	PROB	n/a	LTP312	ltpFR2	1	n/a	n/a	n/a	32	18	6	6	6
5042472	PROB	n/a	LTP312	ltpFR2	1	n/a	n/a	n/a	32	20	5	8	7
5044257	PROB	n/a	LTP312	ltpFR2	1	n/a	n/a	n/a	32	11	1	5	5
5045458	PROB	n/a	LTP312	ltpFR2	1	n/a	n/a	n/a	32	13	8	4	1
5047309	PROB	n/a	LTP312	ltpFR2	1	n/a	n/a	n/a	32	20	6	9	5
5051347	PROB	n/a	LTP312	ltpFR2	1	n/a	n/a	n/a	32	8	2	1	5
5052748	PROB	n/a	LTP312	ltpFR2	1	n/a	n/a	n/a	32	16	8	6	2
5055739	STOP	n/a	LTP312	ltpFR2	1	n/a	n/a	n/a	32	n/a	n/a	n/a	n/a
5057819	WORD	wordpools/wasnorm_wordpool_576.txt	LTP312	ltpFR2	1	21	VIKING	1565	n/a	n/a	0	0	0
5060371	WORD	wordpools/wasnorm_wordpool_576.txt	LTP312	ltpFR2	1	21	HOUND	724	n/a	n/a	0	0	0
5062914	WORD	wordpools/wasnorm_wordpool_576.txt	LTP312	ltpFR2	1	21	CABBAGE	210	n/a	n/a	0	0	0
5065600	WORD	wordpools/wasnorm_wordpool_576.txt	LTP312	ltpFR2	1	21	INMATE	738	n/a	n/a	0	0	0
5068377	WORD	wordpools/wasnorm_wordpool_576.txt	LTP312	ltpFR2	1	21	PORK	1108	n/a	n/a	0	0	0
5071070	WORD	wordpools/wasnorm_wordpool_576.txt	LTP312	ltpFR2	1	21	SAUSAGE	1238	n/a	n/a	0	0	0
5073574	WORD	wordpools/wasnorm_wordpool_576.txt	LTP312	ltpFR2	1	21	DASHBOARD	441	n/a	n/a	0	0	0
5076101	WORD	wordpools/wasnorm_wordpool_576.txt	LTP312	ltpFR2	1	21	SLOPE	1328	n/a	n/a	0	0	0
5078579	WORD	wordpools/wasnorm_wordpool_576.txt	LTP312	ltpFR2	1	21	VENUS	1557	n/a	n/a	0	0	0
5081197	WORD	wordpools/wasnorm_wordpool_576.txt	LTP312	ltpFR2	1	21	SOFTBALL	1343	n/a	n/a	0	0	0
5083815	WORD	wordpools/wasnorm_wordpool_576.txt	LTP312	ltpFR2	1	21	SCALPEL	1243	n/a	n/a	0	0	0
5086376	WORD	wordpools/wasnorm_wordpool_576.txt	LTP312	ltpFR2	1	21	FRUIT	610	n/a	n/a	0	0	0
5088936	WORD	wordpools/wasnorm_wordpool_576.txt	LTP312	ltpFR2	1	21	COURSE	390	n/a	n/a	0	0	0
5091388	WORD	wordpools/wasnorm_wordpool_576.txt	LTP312	ltpFR2	1	21	KNIFE	785	n/a	n/a	0	0	0
5093815	WORD	wordpools/wasnorm_wordpool_576.txt	LTP312	ltpFR2	1	21	LETTUCE	814	n/a	n/a	0	0	0
5096611	WORD	wordpools/wasnorm_wordpool_576.txt	LTP312	ltpFR2	1	21	LUNCH	849	n/a	n/a	0	0	0
5099385	WORD	wordpools/wasnorm_wordpool_576.txt	LTP312	ltpFR2	1	21	PRIMATE	1123	n/a	n/a	0	0	0
5101814	WORD	wordpools/wasnorm_wordpool_576.txt	LTP312	ltpFR2	1	21	ZEBRA	1635	n/a	n/a	0	0	0
5104525	WORD	wordpools/wasnorm_wordpool_576.txt	LTP312	ltpFR2	1	21	JOURNAL	760	n/a	n/a	0	0	0
5107075	WORD	wordpools/wasnorm_wordpool_576.txt	LTP312	ltpFR2	1	21	DOLPHIN	483	n/a	n/a	0	0	0
5109572	WORD	wordpools/wasnorm_wordpool_576.txt	LTP312	ltpFR2	1	21	MAMMAL	861	n/a	n/a	0	0	0
5112257	WORD	wordpools/wasnorm_wordpool_576.txt	LTP312	ltpFR2	1	21	TAXI	1438	n/a	n/a	0	0	0
5114759	WORD	wordpools/wasnorm_wordpool_576.txt	LTP312	ltpFR2	1	21	BARREL	91	n/a	n/a	0	0	0
5117434	WORD	wordpools/wasnorm_wordpool_576.txt	LTP312	ltpFR2	1	21	CANAL	226	n/a	n/a	0	0	0
5119046	START	n/a	LTP312	ltpFR2	1	n/a	n/a	n/a	33	n/a	n/a	n/a	n/a
5119949	DISTRACTOR	n/a	LTP312	ltpFR2	1	21	n/a	n/a	n/a	n/a	0	0	0
5119964	PROB	n/a	LTP312	ltpFR2	1	n/a	n/a	n/a	33	16	8	7	1
5122571	PROB	n/a	LTP312	ltpFR2	1	n/a	n/a	n/a	33	18	7	6	5
5125173	PROB	n/a	LTP312	ltpFR2	1	n/a	n/a	n/a	33	18	6	5	7
5127275	PROB	n/a	LTP312	ltpFR2	1	n/a	n/a	n/a	33	13	3	9	1
5129193	PROB	n/a	LTP312	ltpFR2	1	n/a	n/a	n/a	33	20	5	6	9
5131077	PROB	n/a	LTP312	ltpFR2	1	n/a	n/a	n/a	33	14	6	3	5
5133546	PROB	n/a	LTP312	ltpFR2	1	n/a	n/a	n/a	33	6	2	3	1
5135131	PROB	n/a	LTP312	ltpFR2	1	n/a	n/a	n/a	33	23	9	6	8
5137883	PROB	n/a	LTP312	ltpFR2	1	n/a	n/a	n/a	33	14	6	5	3
5141336	PROB	n/a	LTP312	ltpFR2	1	n/a	n/a	n/a	33	6	1	2	3
5142407	STOP	n/a	LTP312	ltpFR2	1	n/a	n/a	n/a	33	n/a	n/a	n/a	n/a
5144940	REC_START	n/a	LTP312	ltpFR2	1	21	n/a	n/a	n/a	n/a	0	0	0
5147435	REC_WORD	wordpools/wasnorm_wordpool_576.txt	LTP312	ltpFR2	1	21	CANAL	226	n/a	n/a	0	0	0
5149648	REC_WORD	wordpools/wasnorm_wordpool_576.txt	LTP312	ltpFR2	1	21	MAMMAL	861	n/a	n/a	0	0	0
5151537	REC_WORD	wordpools/wasnorm_wordpool_576.txt	LTP312	ltpFR2	1	21	DOLPHIN	483	n/a	n/a	0	0	0
5161894	REC_WORD	wordpools/wasnorm_wordpool_576.txt	LTP312	ltpFR2	1	21	CABBAGE	210	n/a	n/a	0	0	0
5163099	REC_WORD	wordpools/wasnorm_wordpool_576.txt	LTP312	ltpFR2	1	21	DASHBOARD	441	n/a	n/a	0	0	0
5235411	WORD	wordpools/wasnorm_wordpool_576.txt	LTP312	ltpFR2	1	22	HORNET	718	n/a	n/a	0	0	0
5238130	WORD	wordpools/wasnorm_wordpool_576.txt	LTP312	ltpFR2	1	22	LIZARD	834	n/a	n/a	0	0	0
5240799	WORD	wordpools/wasnorm_wordpool_576.txt	LTP312	ltpFR2	1	22	PUDDING	1139	n/a	n/a	0	0	0
5243486	WORD	wordpools/wasnorm_wordpool_576.txt	LTP312	ltpFR2	1	22	STAPLE	1371	n/a	n/a	0	0	0
5245970	WORD	wordpools/wasnorm_wordpool_576.txt	LTP312	ltpFR2	1	22	APRON	35	n/a	n/a	0	0	0
5248557	WORD	wordpools/wasnorm_wordpool_576.txt	LTP312	ltpFR2	1	22	TOMBSTONE	1478	n/a	n/a	0	0	0
5251374	WORD	wordpools/wasnorm_wordpool_576.txt	LTP312	ltpFR2	1	22	COIN	343	n/a	n/a	0	0	0
5253793	WORD	wordpools/wasnorm_wordpool_576.txt	LTP312	ltpFR2	1	22	WITNESS	1618	n/a	n/a	0	0	0
5256513	WORD	wordpools/wasnorm_wordpool_576.txt	LTP312	ltpFR2	1	22	TRENCH	1503	n/a	n/a	0	0	0
5259297	WORD	wordpools/wasnorm_wordpool_576.txt	LTP312	ltpFR2	1	22	QUEEN	1149	n/a	n/a	0	0	0
5262004	WORD	wordpools/wasnorm_wordpool_576.txt	LTP312	ltpFR2	1	22	SPOON	1357	n/a	n/a	0	0	0
5264769	WORD	wordpools/wasnorm_wordpool_576.txt	LTP312	ltpFR2	1	22	BLENDER	136	n/a	n/a	0	0	0
5267505	WORD	wordpools/wasnorm_wordpool_576.txt	LTP312	ltpFR2	1	22	SLIDE	1326	n/a	n/a	0	0	0
5269955	WORD	wordpools/wasnorm_wordpool_576.txt	LTP312	ltpFR2	1	22	UNCLE	1536	n/a	n/a	0	0	0
5272425	WORD	wordpools/wasnorm_wordpool_576.txt	LTP312	ltpFR2	1	22	FIREPLACE	570	n/a	n/a	0	0	0
5275027	WORD	wordpools/wasnorm_wordpool_576.txt	LTP312	ltpFR2	1	22	FIREMAN	569	n/a	n/a	0	0	0
5277834	WORD	wordpools/wasnorm_wordpool_576.txt	LTP312	ltpFR2	1	22	PIZZA	1079	n/a	n/a	0	0	0
5280587	WORD	wordpools/wasnorm_wordpool_576.txt	LTP312	ltpFR2	1	22	CRUTCH	417	n/a	n/a	0	0	0
5283183	WORD	wordpools/wasnorm_wordpool_576.txt	LTP312	ltpFR2	1	22	VALLEY	1545	n/a	n/a	0	0	0
5285735	WORD	wordpools/wasnorm_wordpool_576.txt	LTP312	ltpFR2	1	22	SUMMIT	1405	n/a	n/a	0	0	0
5288354	WORD	wordpools/wasnorm_wordpool_576.txt	LTP312	ltpFR2	1	22	FILM	565	n/a	n/a	0	0	0
5290929	WORD	wordpools/wasnorm_wordpool_576.txt	LTP312	ltpFR2	1	22	SIDEWALK	1303	n/a	n/a	0	0	0
5293559	WORD	wordpools/wasnorm_wordpool_576.txt	LTP312	ltpFR2	1	22	HIKER	708	n/a	n/a	0	0	0
5296094	WORD	wordpools/wasnorm_wordpool_576.txt	LTP312	ltpFR2	1	22	JUDGE	761	n/a	n/a	0	0	0
5297703	START	n/a	LTP312	ltpFR2	1	n/a	n/a	n/a	34	n/a	n/a	n/a	n/a
5298583	DISTRACTOR	n/a	LTP312	ltpFR2	1	22	n/a	n/a	n/a	n/a	0	0	0
5298596	PROB	n/a	LTP312	ltpFR2	1	n/a	n/a	n/a	34	11	4	3	4
5301347	PROB	n/a	LTP312	ltpFR2	1	n/a	n/a	n/a	34	11	2	3	6
5303033	PROB	n/a	LTP312	ltpFR2	1	n/a	n/a	n/a	34	14	1	4	9
5305335	PROB	n/a	LTP312	ltpFR2	1	n/a	n/a	n/a	34	14	6	1	7
5307001	PROB	n/a	LTP312	ltpFR2	1	n/a	n/a	n/a	34	10	6	1	3
5308403	PROB	n/a	LTP312	ltpFR2	1	n/a	n/a	n/a	34	17	6	2	9
5311454	PROB	n/a	LTP312	ltpFR2	1	n/a	n/a	n/a	34	13	3	8	2
5312889	PROB	n/a	LTP312	ltpFR2	1	n/a	n/a	n/a	34	4	1	2	1
5314141	PROB	n/a	LTP312	ltpFR2	1	n/a	n/a	n/a	34	17	9	2	6
5316409	PROB	n/a	LTP312	ltpFR2	1	n/a	n/a	n/a	34	12	6	5	1
5317893	PROB	n/a	LTP312	ltpFR2	1	n/a	n/a	n/a	34	15	6	6	3
5319928	PROB	n/a	LTP312	ltpFR2	1	n/a	n/a	n/a	34	11	5	4	2
5321454	STOP	n/a	LTP312	ltpFR2	1	n/a	n/a	n/a	34	n/a	n/a	n/a	n/a
5323599	REC_START	n/a	LTP312	ltpFR2	1	22	n/a	n/a	n/a	n/a	0	0	0
5326065	REC_WORD	wordpools/wasnorm_wordpool_576.txt	LTP312	ltpFR2	1	22	FIREMAN	569	n/a	n/a	0	0	0
5328109	REC_WORD	wordpools/wasnorm_wordpool_576.txt	LTP312	ltpFR2	1	22	FIREPLACE	570	n/a	n/a	0	0	0
5329109	REC_WORD_VV	wordpools/wasnorm_wordpool_576.txt	LTP312	ltpFR2	1	22	<>	-1	n/a	n/a	0	0	0
5329973	REC_WORD	wordpools/wasnorm_wordpool_576.txt	LTP312	ltpFR2	1	22	PIZZA	1079	n/a	n/a	0	0	0
5331723	REC_WORD	wordpools/wasnorm_wordpool_576.txt	LTP312	ltpFR2	1	22	CRUTCH	417	n/a	n/a	0	0	0
5335182	REC_WORD	wordpools/wasnorm_wordpool_576.txt	LTP312	ltpFR2	1	22	TOMBSTONE	1478	n/a	n/a	0	0	0
5337131	REC_WORD	wordpools/wasnorm_wordpool_576.txt	LTP312	ltpFR2	1	22	COIN	343	n/a	n/a	0	0	0
5344857	REC_WORD	wordpools/wasnorm_wordpool_576.txt	LTP312	ltpFR2	1	22	HIKER	708	n/a	n/a	0	0	0
5362462	REC_WORD	wordpools/wasnorm_wordpool_576.txt	LTP312	ltpFR2	1	22	APRON	35	n/a	n/a	0	0	0
5424730	WORD	wordpools/wasnorm_wordpool_576.txt	LTP312	ltpFR2	1	23	HUSBAND	728	n/a	n/a	0	0	0
5427398	WORD	wordpools/wasnorm_wordpool_576.txt	LTP312	ltpFR2	1	23	BASEMENT	94	n/a	n/a	0	0	0
5429867	WORD	wordpools/wasnorm_wordpool_576.txt	LTP312	ltpFR2	1	23	FRECKLE	602	n/a	n/a	0	0	0
5432436	WORD	wordpools/wasnorm_wordpool_576.txt	LTP312	ltpFR2	1	23	KLEENEX	782	n/a	n/a	0	0	0
5434971	WORD	wordpools/wasnorm_wordpool_576.txt	LTP312	ltpFR2	1	23	LAVA	804	n/a	n/a	0	0	0
5437524	WORD	wordpools/wasnorm_wordpool_576.txt	LTP312	ltpFR2	1	23	SUNSET	1408	n/a	n/a	0	0	0
5440293	WORD	wordpools/wasnorm_wordpool_576.txt	LTP312	ltpFR2	1	23	BUG	187	n/a	n/a	0	0	0
5442878	WORD	wordpools/wasnorm_wordpool_576.txt	LTP312	ltpFR2	1	23	CUSTARD	429	n/a	n/a	0	0	0
5445531	WORD	wordpools/wasnorm_wordpool_576.txt	LTP312	ltpFR2	1	23	THRONE	1461	n/a	n/a	0	0	0
5448350	WORD	wordpools/wasnorm_wordpool_576.txt	LTP312	ltpFR2	1	23	SCARF	1246	n/a	n/a	0	0	0
5451119	WORD	wordpools/wasnorm_wordpool_576.txt	LTP312	ltpFR2	1	23	MASK	876	n/a	n/a	0	0	0
5453605	WORD	wordpools/wasnorm_wordpool_576.txt	LTP312	ltpFR2	1	23	THIEF	1456	n/a	n/a	0	0	0
5456306	WORD	wordpools/wasnorm_wordpool_576.txt	LTP312	ltpFR2	1	23	GALLON	618	n/a	n/a	0	0	0
5458841	WORD	wordpools/wasnorm_wordpool_576.txt	LTP312	ltpFR2	1	23	BARLEY	88	n/a	n/a	0	0	0
5461310	WORD	wordpools/wasnorm_wordpool_576.txt	LTP312	ltpFR2	1	23	SALT	1229	n/a	n/a	0	0	0
5464011	WORD	wordpools/wasnorm_wordpool_576.txt	LTP312	ltpFR2	1	23	PENGUIN	1044	n/a	n/a	0	0	0
5466565	WORD	wordpools/wasnorm_wordpool_576.txt	LTP312	ltpFR2	1	23	QUAIL	1147	n/a	n/a	0	0	0
5468999	WORD	wordpools/wasnorm_wordpool_576.txt	LTP312	ltpFR2	1	23	BABY	64	n/a	n/a	0	0	0
5471653	WORD	wordpools/wasnorm_wordpool_576.txt	LTP312	ltpFR2	1	23	CELLAR	267	n/a	n/a	0	0	0
5474204	WORD	wordpools/wasnorm_wordpool_576.txt	LTP312	ltpFR2	1	23	SUNRISE	1407	n/a	n/a	0	0	0
5476906	WORD	wordpools/wasnorm_wordpool_576.txt	LTP312	ltpFR2	1	23	CLOCK	325	n/a	n/a	0	0	0
5479592	WORD	wordpools/wasnorm_wordpool_576.txt	LTP312	ltpFR2	1	23	SHELF	1280	n/a	n/a	0	0	0
5482092	WORD	wordpools/wasnorm_wordpool_576.txt	LTP312	ltpFR2	1	23	MUMMY	932	n/a	n/a	0	0	0
5484879	WORD	wordpools/wasnorm_wordpool_576.txt	LTP312	ltpFR2	1	23	CROWN	415	n/a	n/a	0	0	0
5486498	START	n/a	LTP312	ltpFR2	1	n/a	n/a	n/a	35	n/a	n/a	n/a	n/a
5487565	DISTRACTOR	n/a	LTP312	ltpFR2	1	23	n/a	n/a	n/a	n/a	0	0	0
5487582	PROB	n/a	LTP312	ltpFR2	1	n/a	n/a	n/a	35	6	4	1	1
5489231	PROB	n/a	LTP312	ltpFR2	1	n/a	n/a	n/a	35	17	5	8	4
5491283	PROB	n/a	LTP312	ltpFR2	1	n/a	n/a	n/a	35	15	2	6	7
5492834	PROB	n/a	LTP312	ltpFR2	1	n/a	n/a	n/a	35	9	6	2	1
5494101	PROB	n/a	LTP312	ltpFR2	1	n/a	n/a	n/a	35	9	4	4	1
5495285	PROB	n/a	LTP312	ltpFR2	1	n/a	n/a	n/a	35	19	9	5	5
5496705	PROB	n/a	LTP312	ltpFR2	1	n/a	n/a	n/a	35	9	4	3	2
5498372	PROB	n/a	LTP312	ltpFR2	1	n/a	n/a	n/a	35	20	9	9	2
5499857	PROB	n/a	LTP312	ltpFR2	1	n/a	n/a	n/a	35	20	9	7	4
5502509	PROB	n/a	LTP312	ltpFR2	1	n/a	n/a	n/a	35	19	6	5	8
