mstime	trial_type	stim_file	subject	experiment	session	trial	task	item_name	item_num	recog_resp	recog_conf	resp	answer	test_x	test_y	test_z	color_r	color_g	color_b	case	font
0	SESS_START	n/a	LTP289	ltpFR	7	n/a	n/a	n/a	n/a	1	n/a	n/a	n/a	0	0	0	n/a	n/a	n/a	n/a	n/a
507659	START	n/a	LTP289	ltpFR	7	n/a	n/a	n/a	n/a	n/a	n/a	n/a	n/a	n/a	n/a	n/a	n/a	n/a	n/a	n/a	n/a
507709	PROB	n/a	LTP289	ltpFR	7	n/a	n/a	n/a	n/a	n/a	n/a	n/a	14	3	9	2	n/a	n/a	n/a	n/a	n/a
510303	PROB	n/a	LTP289	ltpFR	7	n/a	n/a	n/a	n/a	n/a	n/a	n/a	24	5	9	8	n/a	n/a	n/a	n/a	n/a
513799	PROB	n/a	LTP289	ltpFR	7	n/a	n/a	n/a	n/a	n/a	n/a	n/a	18	7	7	4	n/a	n/a	n/a	n/a	n/a
518445	PROB	n/a	LTP289	ltpFR	7	n/a	n/a	n/a	n/a	n/a	n/a	n/a	14	1	4	9	n/a	n/a	n/a	n/a	n/a
527659	STOP	n/a	LTP289	ltpFR	7	n/a	n/a	n/a	n/a	n/a	n/a	n/a	n/a	n/a	n/a	n/a	n/a	n/a	n/a	n/a	n/a
620380	START	n/a	LTP289	ltpFR	7	n/a	n/a	n/a	n/a	n/a	n/a	n/a	n/a	n/a	n/a	n/a	n/a	n/a	n/a	n/a	n/a
621889	PROB	n/a	LTP289	ltpFR	7	n/a	n/a	n/a	n/a	n/a	n/a	n/a	15	3	5	7	n/a	n/a	n/a	n/a	n/a
625214	PROB	n/a	LTP289	ltpFR	7	n/a	n/a	n/a	n/a	n/a	n/a	n/a	11	3	2	6	n/a	n/a	n/a	n/a	n/a
627360	STOP	n/a	LTP289	ltpFR	7	n/a	n/a	n/a	n/a	n/a	n/a	n/a	n/a	n/a	n/a	n/a	n/a	n/a	n/a	n/a	n/a
629452	WORD	wordpools/wasnorm_wordpool_less_exclusions.txt	LTP289	ltpFR	7	1	1	BANDANNA	80	n/a	n/a	0	n/a	0	0	0	0.57763671875	0.412841796875	1	upper	zerothre.ttf
632464	START	n/a	LTP289	ltpFR	7	n/a	n/a	n/a	n/a	n/a	n/a	n/a	n/a	n/a	n/a	n/a	n/a	n/a	n/a	n/a	n/a
633534	PROB	n/a	LTP289	ltpFR	7	n/a	n/a	n/a	n/a	n/a	n/a	n/a	15	5	6	4	n/a	n/a	n/a	n/a	n/a
635953	PROB	n/a	LTP289	ltpFR	7	n/a	n/a	n/a	n/a	n/a	n/a	n/a	16	1	9	6	n/a	n/a	n/a	n/a	n/a
637576	PROB	n/a	LTP289	ltpFR	7	n/a	n/a	n/a	n/a	n/a	n/a	n/a	16	8	6	2	n/a	n/a	n/a	n/a	n/a
639528	STOP	n/a	LTP289	ltpFR	7	n/a	n/a	n/a	n/a	n/a	n/a	n/a	n/a	n/a	n/a	n/a	n/a	n/a	n/a	n/a	n/a
641497	WORD	wordpools/wasnorm_wordpool_less_exclusions.txt	LTP289	ltpFR	7	1	1	CROOK	412	n/a	n/a	1	n/a	0	0	0	0.57763671875	0.412841796875	1	upper	zerothre.ttf
644510	START	n/a	LTP289	ltpFR	7	n/a	n/a	n/a	n/a	n/a	n/a	n/a	n/a	n/a	n/a	n/a	n/a	n/a	n/a	n/a	n/a
645496	PROB	n/a	LTP289	ltpFR	7	n/a	n/a	n/a	n/a	n/a	n/a	n/a	12	2	4	6	n/a	n/a	n/a	n/a	n/a
647765	PROB	n/a	LTP289	ltpFR	7	n/a	n/a	n/a	n/a	n/a	n/a	n/a	13	2	2	9	n/a	n/a	n/a	n/a	n/a
649828	PROB	n/a	LTP289	ltpFR	7	n/a	n/a	n/a	n/a	n/a	n/a	n/a	10	2	7	1	n/a	n/a	n/a	n/a	n/a
651575	STOP	n/a	LTP289	ltpFR	7	n/a	n/a	n/a	n/a	n/a	n/a	n/a	n/a	n/a	n/a	n/a	n/a	n/a	n/a	n/a	n/a
653443	WORD	wordpools/wasnorm_wordpool_less_exclusions.txt	LTP289	ltpFR	7	1	1	CURB	426	n/a	n/a	0	n/a	0	0	0	0.57763671875	0.412841796875	1	upper	zerothre.ttf
656454	START	n/a	LTP289	ltpFR	7	n/a	n/a	n/a	n/a	n/a	n/a	n/a	n/a	n/a	n/a	n/a	n/a	n/a	n/a	n/a	n/a
657424	PROB	n/a	LTP289	ltpFR	7	n/a	n/a	n/a	n/a	n/a	n/a	n/a	21	9	4	8	n/a	n/a	n/a	n/a	n/a
660580	PROB	n/a	LTP289	ltpFR	7	n/a	n/a	n/a	n/a	n/a	n/a	n/a	17	5	7	5	n/a	n/a	n/a	n/a	n/a
664453	STOP	n/a	LTP289	ltpFR	7	n/a	n/a	n/a	n/a	n/a	n/a	n/a	n/a	n/a	n/a	n/a	n/a	n/a	n/a	n/a	n/a
665654	WORD	wordpools/wasnorm_wordpool_less_exclusions.txt	LTP289	ltpFR	7	1	1	HEEL	700	n/a	n/a	0	n/a	0	0	0	0.57763671875	0.412841796875	1	upper	zerothre.ttf
668666	START	n/a	LTP289	ltpFR	7	n/a	n/a	n/a	n/a	n/a	n/a	n/a	n/a	n/a	n/a	n/a	n/a	n/a	n/a	n/a	n/a
669569	PROB	n/a	LTP289	ltpFR	7	n/a	n/a	n/a	n/a	n/a	n/a	n/a	18	7	9	2	n/a	n/a	n/a	n/a	n/a
671922	PROB	n/a	LTP289	ltpFR	7	n/a	n/a	n/a	n/a	n/a	n/a	n/a	10	2	2	6	n/a	n/a	n/a	n/a	n/a
673668	PROB	n/a	LTP289	ltpFR	7	n/a	n/a	n/a	n/a	n/a	n/a	n/a	12	1	2	9	n/a	n/a	n/a	n/a	n/a
676015	STOP	n/a	LTP289	ltpFR	7	n/a	n/a	n/a	n/a	n/a	n/a	n/a	n/a	n/a	n/a	n/a	n/a	n/a	n/a	n/a	n/a
677878	WORD	wordpools/wasnorm_wordpool_less_exclusions.txt	LTP289	ltpFR	7	1	1	WASHER	1592	n/a	n/a	0	n/a	0	0	0	0.57763671875	0.412841796875	1	upper	zerothre.ttf
680896	START	n/a	LTP289	ltpFR	7	n/a	n/a	n/a	n/a	n/a	n/a	n/a	n/a	n/a	n/a	n/a	n/a	n/a	n/a	n/a	n/a
681966	PROB	n/a	LTP289	ltpFR	7	n/a	n/a	n/a	n/a	n/a	n/a	n/a	22	7	6	9	n/a	n/a	n/a	n/a	n/a
685780	PROB	n/a	LTP289	ltpFR	7	n/a	n/a	n/a	n/a	n/a	n/a	n/a	13	6	1	6	n/a	n/a	n/a	n/a	n/a
687623	STOP	n/a	LTP289	ltpFR	7	n/a	n/a	n/a	n/a	n/a	n/a	n/a	n/a	n/a	n/a	n/a	n/a	n/a	n/a	n/a	n/a
690097	WORD	wordpools/wasnorm_wordpool_less_exclusions.txt	LTP289	ltpFR	7	1	1	HERO	706	n/a	n/a	1	n/a	0	0	0	0.57763671875	0.412841796875	1	upper	zerothre.ttf
693109	START	n/a	LTP289	ltpFR	7	n/a	n/a	n/a	n/a	n/a	n/a	n/a	n/a	n/a	n/a	n/a	n/a	n/a	n/a	n/a	n/a
694246	PROB	n/a	LTP289	ltpFR	7	n/a	n/a	n/a	n/a	n/a	n/a	n/a	12	2	7	3	n/a	n/a	n/a	n/a	n/a
696248	PROB	n/a	LTP289	ltpFR	7	n/a	n/a	n/a	n/a	n/a	n/a	n/a	23	7	9	9	n/a	n/a	n/a	n/a	n/a
701109	STOP	n/a	LTP289	ltpFR	7	n/a	n/a	n/a	n/a	n/a	n/a	n/a	n/a	n/a	n/a	n/a	n/a	n/a	n/a	n/a	n/a
701958	WORD	wordpools/wasnorm_wordpool_less_exclusions.txt	LTP289	ltpFR	7	1	1	OUTLAW	989	n/a	n/a	1	n/a	0	0	0	0.57763671875	0.412841796875	1	upper	zerothre.ttf
704970	START	n/a	LTP289	ltpFR	7	n/a	n/a	n/a	n/a	n/a	n/a	n/a	n/a	n/a	n/a	n/a	n/a	n/a	n/a	n/a	n/a
705923	PROB	n/a	LTP289	ltpFR	7	n/a	n/a	n/a	n/a	n/a	n/a	n/a	12	4	2	6	n/a	n/a	n/a	n/a	n/a
707724	PROB	n/a	LTP289	ltpFR	7	n/a	n/a	n/a	n/a	n/a	n/a	n/a	33	9	7	6	n/a	n/a	n/a	n/a	n/a
711424	STOP	n/a	LTP289	ltpFR	7	n/a	n/a	n/a	n/a	n/a	n/a	n/a	n/a	n/a	n/a	n/a	n/a	n/a	n/a	n/a	n/a
713953	WORD	wordpools/wasnorm_wordpool_less_exclusions.txt	LTP289	ltpFR	7	1	1	COMPANION	357	n/a	n/a	1	n/a	0	0	0	0.57763671875	0.412841796875	1	upper	zerothre.ttf
716965	START	n/a	LTP289	ltpFR	7	n/a	n/a	n/a	n/a	n/a	n/a	n/a	n/a	n/a	n/a	n/a	n/a	n/a	n/a	n/a	n/a
718029	PROB	n/a	LTP289	ltpFR	7	n/a	n/a	n/a	n/a	n/a	n/a	n/a	18	7	7	4	n/a	n/a	n/a	n/a	n/a
719853	PROB	n/a	LTP289	ltpFR	7	n/a	n/a	n/a	n/a	n/a	n/a	n/a	20	9	9	2	n/a	n/a	n/a	n/a	n/a
724965	STOP	n/a	LTP289	ltpFR	7	n/a	n/a	n/a	n/a	n/a	n/a	n/a	n/a	n/a	n/a	n/a	n/a	n/a	n/a	n/a	n/a
726144	WORD	wordpools/wasnorm_wordpool_less_exclusions.txt	LTP289	ltpFR	7	1	1	ASSOCIATE	49	n/a	n/a	1	n/a	0	0	0	0.57763671875	0.412841796875	1	upper	zerothre.ttf
729162	START	n/a	LTP289	ltpFR	7	n/a	n/a	n/a	n/a	n/a	n/a	n/a	n/a	n/a	n/a	n/a	n/a	n/a	n/a	n/a	n/a
730115	PROB	n/a	LTP289	ltpFR	7	n/a	n/a	n/a	n/a	n/a	n/a	n/a	15	6	6	3	n/a	n/a	n/a	n/a	n/a
731815	PROB	n/a	LTP289	ltpFR	7	n/a	n/a	n/a	n/a	n/a	n/a	n/a	17	3	6	8	n/a	n/a	n/a	n/a	n/a
737162	STOP	n/a	LTP289	ltpFR	7	n/a	n/a	n/a	n/a	n/a	n/a	n/a	n/a	n/a	n/a	n/a	n/a	n/a	n/a	n/a	n/a
738329	WORD	wordpools/wasnorm_wordpool_less_exclusions.txt	LTP289	ltpFR	7	1	1	BRAKE	166	n/a	n/a	0	n/a	0	0	0	0.57763671875	0.412841796875	1	upper	zerothre.ttf
741341	START	n/a	LTP289	ltpFR	7	n/a	n/a	n/a	n/a	n/a	n/a	n/a	n/a	n/a	n/a	n/a	n/a	n/a	n/a	n/a	n/a
742277	PROB	n/a	LTP289	ltpFR	7	n/a	n/a	n/a	n/a	n/a	n/a	n/a	12	6	3	3	n/a	n/a	n/a	n/a	n/a
745066	PROB	n/a	LTP289	ltpFR	7	n/a	n/a	n/a	n/a	n/a	n/a	n/a	10	1	4	5	n/a	n/a	n/a	n/a	n/a
747073	PROB	n/a	LTP289	ltpFR	7	n/a	n/a	n/a	n/a	n/a	n/a	n/a	12	1	5	6	n/a	n/a	n/a	n/a	n/a
749112	STOP	n/a	LTP289	ltpFR	7	n/a	n/a	n/a	n/a	n/a	n/a	n/a	n/a	n/a	n/a	n/a	n/a	n/a	n/a	n/a	n/a
750520	WORD	wordpools/wasnorm_wordpool_less_exclusions.txt	LTP289	ltpFR	7	1	1	BUS	201	n/a	n/a	0	n/a	0	0	0	0.57763671875	0.412841796875	1	upper	zerothre.ttf
753537	START	n/a	LTP289	ltpFR	7	n/a	n/a	n/a	n/a	n/a	n/a	n/a	n/a	n/a	n/a	n/a	n/a	n/a	n/a	n/a	n/a
754440	PROB	n/a	LTP289	ltpFR	7	n/a	n/a	n/a	n/a	n/a	n/a	n/a	10	5	2	3	n/a	n/a	n/a	n/a	n/a
756375	PROB	n/a	LTP289	ltpFR	7	n/a	n/a	n/a	n/a	n/a	n/a	n/a	17	6	7	4	n/a	n/a	n/a	n/a	n/a
758533	PROB	n/a	LTP289	ltpFR	7	n/a	n/a	n/a	n/a	n/a	n/a	n/a	11	4	3	4	n/a	n/a	n/a	n/a	n/a
761144	STOP	n/a	LTP289	ltpFR	7	n/a	n/a	n/a	n/a	n/a	n/a	n/a	n/a	n/a	n/a	n/a	n/a	n/a	n/a	n/a	n/a
762453	WORD	wordpools/wasnorm_wordpool_less_exclusions.txt	LTP289	ltpFR	7	1	1	SWATTER	1418	n/a	n/a	0	n/a	0	0	0	0.57763671875	0.412841796875	1	upper	zerothre.ttf
765465	START	n/a	LTP289	ltpFR	7	n/a	n/a	n/a	n/a	n/a	n/a	n/a	n/a	n/a	n/a	n/a	n/a	n/a	n/a	n/a	n/a
766635	PROB	n/a	LTP289	ltpFR	7	n/a	n/a	n/a	n/a	n/a	n/a	n/a	19	2	9	8	n/a	n/a	n/a	n/a	n/a
769441	PROB	n/a	LTP289	ltpFR	7	n/a	n/a	n/a	n/a	n/a	n/a	n/a	15	9	5	1	n/a	n/a	n/a	n/a	n/a
773465	STOP	n/a	LTP289	ltpFR	7	n/a	n/a	n/a	n/a	n/a	n/a	n/a	n/a	n/a	n/a	n/a	n/a	n/a	n/a	n/a	n/a
774632	WORD	wordpools/wasnorm_wordpool_less_exclusions.txt	LTP289	ltpFR	7	1	1	MARGARINE	868	n/a	n/a	0	n/a	0	0	0	0.57763671875	0.412841796875	1	upper	zerothre.ttf
777644	START	n/a	LTP289	ltpFR	7	n/a	n/a	n/a	n/a	n/a	n/a	n/a	n/a	n/a	n/a	n/a	n/a	n/a	n/a	n/a	n/a
778809	PROB	n/a	LTP289	ltpFR	7	n/a	n/a	n/a	n/a	n/a	n/a	n/a	14	4	6	4	n/a	n/a	n/a	n/a	n/a
780282	PROB	n/a	LTP289	ltpFR	7	n/a	n/a	n/a	n/a	n/a	n/a	n/a	18	7	8	3	n/a	n/a	n/a	n/a	n/a
782407	PROB	n/a	LTP289	ltpFR	7	n/a	n/a	n/a	n/a	n/a	n/a	n/a	6	4	1	1	n/a	n/a	n/a	n/a	n/a
784991	STOP	n/a	LTP289	ltpFR	7	n/a	n/a	n/a	n/a	n/a	n/a	n/a	n/a	n/a	n/a	n/a	n/a	n/a	n/a	n/a	n/a
786856	WORD	wordpools/wasnorm_wordpool_less_exclusions.txt	LTP289	ltpFR	7	1	1	ALMOND	18	n/a	n/a	0	n/a	0	0	0	0.57763671875	0.412841796875	1	upper	zerothre.ttf
789873	START	n/a	LTP289	ltpFR	7	n/a	n/a	n/a	n/a	n/a	n/a	n/a	n/a	n/a	n/a	n/a	n/a	n/a	n/a	n/a	n/a
790938	PROB	n/a	LTP289	ltpFR	7	n/a	n/a	n/a	n/a	n/a	n/a	n/a	10	1	2	7	n/a	n/a	n/a	n/a	n/a
793197	PROB	n/a	LTP289	ltpFR	7	n/a	n/a	n/a	n/a	n/a	n/a	n/a	14	2	8	4	n/a	n/a	n/a	n/a	n/a
797872	STOP	n/a	LTP289	ltpFR	7	n/a	n/a	n/a	n/a	n/a	n/a	n/a	n/a	n/a	n/a	n/a	n/a	n/a	n/a	n/a	n/a
799024	WORD	wordpools/wasnorm_wordpool_less_exclusions.txt	LTP289	ltpFR	7	1	1	WRIST	1626	n/a	n/a	0	n/a	0	0	0	0.57763671875	0.412841796875	1	upper	zerothre.ttf
802035	START	n/a	LTP289	ltpFR	7	n/a	n/a	n/a	n/a	n/a	n/a	n/a	n/a	n/a	n/a	n/a	n/a	n/a	n/a	n/a	n/a
803207	PROB	n/a	LTP289	ltpFR	7	n/a	n/a	n/a	n/a	n/a	n/a	n/a	16	6	9	1	n/a	n/a	n/a	n/a	n/a
804829	PROB	n/a	LTP289	ltpFR	7	n/a	n/a	n/a	n/a	n/a	n/a	n/a	11	7	3	1	n/a	n/a	n/a	n/a	n/a
806347	PROB	n/a	LTP289	ltpFR	7	n/a	n/a	n/a	n/a	n/a	n/a	n/a	17	4	8	5	n/a	n/a	n/a	n/a	n/a
808951	STOP	n/a	LTP289	ltpFR	7	n/a	n/a	n/a	n/a	n/a	n/a	n/a	n/a	n/a	n/a	n/a	n/a	n/a	n/a	n/a	n/a
811002	WORD	wordpools/wasnorm_wordpool_less_exclusions.txt	LTP289	ltpFR	7	1	1	BEARD	107	n/a	n/a	0	n/a	0	0	0	0.57763671875	0.412841796875	1	upper	zerothre.ttf
814014	START	n/a	LTP289	ltpFR	7	n/a	n/a	n/a	n/a	n/a	n/a	n/a	n/a	n/a	n/a	n/a	n/a	n/a	n/a	n/a	n/a
814867	PROB	n/a	LTP289	ltpFR	7	n/a	n/a	n/a	n/a	n/a	n/a	n/a	9	3	2	4	n/a	n/a	n/a	n/a	n/a
816802	PROB	n/a	LTP289	ltpFR	7	n/a	n/a	n/a	n/a	n/a	n/a	n/a	13	4	5	4	n/a	n/a	n/a	n/a	n/a
820847	STOP	n/a	LTP289	ltpFR	7	n/a	n/a	n/a	n/a	n/a	n/a	n/a	n/a	n/a	n/a	n/a	n/a	n/a	n/a	n/a	n/a
823863	REC_START	n/a	LTP289	ltpFR	7	1	n/a	n/a	n/a	n/a	n/a	n/a	n/a	0	0	0	n/a	n/a	n/a	n/a	n/a
825521	REC_WORD	wordpools/wasnorm_wordpool_less_exclusions.txt	LTP289	ltpFR	7	1	1	MARGARINE	868	n/a	n/a	0	n/a	0	0	0	n/a	n/a	n/a	n/a	n/a
826556	REC_WORD	wordpools/wasnorm_wordpool_less_exclusions.txt	LTP289	ltpFR	7	1	1	BRAKE	166	n/a	n/a	0	n/a	0	0	0	n/a	n/a	n/a	n/a	n/a
827704	REC_WORD	wordpools/wasnorm_wordpool_less_exclusions.txt	LTP289	ltpFR	7	1	n/a	CHAMPION	279	n/a	n/a	n/a	n/a	0	0	0	n/a	n/a	n/a	n/a	n/a
828836	REC_WORD	wordpools/wasnorm_wordpool_less_exclusions.txt	LTP289	ltpFR	7	1	1	CURB	426	n/a	n/a	0	n/a	0	0	0	n/a	n/a	n/a	n/a	n/a
830028	REC_WORD	wordpools/wasnorm_wordpool_less_exclusions.txt	LTP289	ltpFR	7	1	1	WASHER	1592	n/a	n/a	0	n/a	0	0	0	n/a	n/a	n/a	n/a	n/a
831096	REC_WORD	wordpools/wasnorm_wordpool_less_exclusions.txt	LTP289	ltpFR	7	1	1	BANDANNA	80	n/a	n/a	0	n/a	0	0	0	n/a	n/a	n/a	n/a	n/a
832595	REC_WORD	wordpools/wasnorm_wordpool_less_exclusions.txt	LTP289	ltpFR	7	1	1	ALMOND	18	n/a	n/a	0	n/a	0	0	0	n/a	n/a	n/a	n/a	n/a
869043	REC_WORD	wordpools/wasnorm_wordpool_less_exclusions.txt	LTP289	ltpFR	7	1	1	SWATTER	1418	n/a	n/a	0	n/a	0	0	0	n/a	n/a	n/a	n/a	n/a
969014	WORD	wordpools/wasnorm_wordpool_less_exclusions.txt	LTP289	ltpFR	7	2	0	CUFF	423	n/a	n/a	0	n/a	0	0	0	0.422607421875	0.5869140625	0	lower	amplitud.ttf
973097	WORD	wordpools/wasnorm_wordpool_less_exclusions.txt	LTP289	ltpFR	7	2	0	FLANNEL	574	n/a	n/a	0	n/a	0	0	0	0.422607421875	0.5869140625	0	lower	amplitud.ttf
977297	WORD	wordpools/wasnorm_wordpool_less_exclusions.txt	LTP289	ltpFR	7	2	0	BURGLAR	200	n/a	n/a	1	n/a	0	0	0	0.422607421875	0.5869140625	0	lower	amplitud.ttf
981228	WORD	wordpools/wasnorm_wordpool_less_exclusions.txt	LTP289	ltpFR	7	2	0	MASK	876	n/a	n/a	0	n/a	0	0	0	0.422607421875	0.5869140625	0	lower	amplitud.ttf
985160	WORD	wordpools/wasnorm_wordpool_less_exclusions.txt	LTP289	ltpFR	7	2	0	OVEN	991	n/a	n/a	1	n/a	0	0	0	0.422607421875	0.5869140625	0	lower	amplitud.ttf
989308	WORD	wordpools/wasnorm_wordpool_less_exclusions.txt	LTP289	ltpFR	7	2	0	CHAIN	273	n/a	n/a	0	n/a	0	0	0	0.422607421875	0.5869140625	0	lower	amplitud.ttf
993290	WORD	wordpools/wasnorm_wordpool_less_exclusions.txt	LTP289	ltpFR	7	2	0	TOENAIL	1474	n/a	n/a	0	n/a	0	0	0	0.422607421875	0.5869140625	0	lower	amplitud.ttf
997517	WORD	wordpools/wasnorm_wordpool_less_exclusions.txt	LTP289	ltpFR	7	2	0	DRAWER	493	n/a	n/a	1	n/a	0	0	0	0.422607421875	0.5869140625	0	lower	amplitud.ttf
1001371	WORD	wordpools/wasnorm_wordpool_less_exclusions.txt	LTP289	ltpFR	7	2	0	HINGE	709	n/a	n/a	0	n/a	0	0	0	0.422607421875	0.5869140625	0	lower	amplitud.ttf
1005447	WORD	wordpools/wasnorm_wordpool_less_exclusions.txt	LTP289	ltpFR	7	2	0	LOUNGE	845	n/a	n/a	1	n/a	0	0	0	0.422607421875	0.5869140625	0	lower	amplitud.ttf
1009496	WORD	wordpools/wasnorm_wordpool_less_exclusions.txt	LTP289	ltpFR	7	2	0	DESSERT	453	n/a	n/a	1	n/a	0	0	0	0.422607421875	0.5869140625	0	lower	amplitud.ttf
1013383	WORD	wordpools/wasnorm_wordpool_less_exclusions.txt	LTP289	ltpFR	7	2	0	PIE	1062	n/a	n/a	0	n/a	0	0	0	0.422607421875	0.5869140625	0	lower	amplitud.ttf
1017375	WORD	wordpools/wasnorm_wordpool_less_exclusions.txt	LTP289	ltpFR	7	2	0	STOVE	1388	n/a	n/a	1	n/a	0	0	0	0.422607421875	0.5869140625	0	lower	amplitud.ttf
1021396	WORD	wordpools/wasnorm_wordpool_less_exclusions.txt	LTP289	ltpFR	7	2	0	DRYER	503	n/a	n/a	1	n/a	0	0	0	0.422607421875	0.5869140625	0	lower	amplitud.ttf
1025372	WORD	wordpools/wasnorm_wordpool_less_exclusions.txt	LTP289	ltpFR	7	2	0	TERMITE	1451	n/a	n/a	0	n/a	0	0	0	0.422607421875	0.5869140625	0	lower	amplitud.ttf
1029570	WORD	wordpools/wasnorm_wordpool_less_exclusions.txt	LTP289	ltpFR	7	2	0	FORK	594	n/a	n/a	0	n/a	0	0	0	0.422607421875	0.5869140625	0	lower	amplitud.ttf
1032588	START	n/a	LTP289	ltpFR	7	n/a	n/a	n/a	n/a	n/a	n/a	n/a	n/a	n/a	n/a	n/a	n/a	n/a	n/a	n/a	n/a
1033525	PROB	n/a	LTP289	ltpFR	7	n/a	n/a	n/a	n/a	n/a	n/a	n/a	13	4	4	7	n/a	n/a	n/a	n/a	n/a
1040587	STOP	n/a	LTP289	ltpFR	7	n/a	n/a	n/a	n/a	n/a	n/a	n/a	n/a	n/a	n/a	n/a	n/a	n/a	n/a	n/a	n/a
1042376	REC_START	n/a	LTP289	ltpFR	7	2	n/a	n/a	n/a	n/a	n/a	n/a	n/a	0	0	0	n/a	n/a	n/a	n/a	n/a
1043518	REC_WORD	wordpools/wasnorm_wordpool_less_exclusions.txt	LTP289	ltpFR	7	2	1	WASHER	1592	n/a	n/a	0	n/a	0	0	0	n/a	n/a	n/a	n/a	n/a
1044503	REC_WORD	wordpools/wasnorm_wordpool_less_exclusions.txt	LTP289	ltpFR	7	2	0	DRYER	503	n/a	n/a	1	n/a	0	0	0	n/a	n/a	n/a	n/a	n/a
1045445	REC_WORD	wordpools/wasnorm_wordpool_less_exclusions.txt	LTP289	ltpFR	7	2	0	STOVE	1388	n/a	n/a	1	n/a	0	0	0	n/a	n/a	n/a	n/a	n/a
1046943	REC_WORD	wordpools/wasnorm_wordpool_less_exclusions.txt	LTP289	ltpFR	7	2	0	OVEN	991	n/a	n/a	1	n/a	0	0	0	n/a	n/a	n/a	n/a	n/a
1048709	REC_WORD	wordpools/wasnorm_wordpool_less_exclusions.txt	LTP289	ltpFR	7	2	0	MASK	876	n/a	n/a	0	n/a	0	0	0	n/a	n/a	n/a	n/a	n/a
1049559	REC_WORD	wordpools/wasnorm_wordpool_less_exclusions.txt	LTP289	ltpFR	7	2	0	FLANNEL	574	n/a	n/a	0	n/a	0	0	0	n/a	n/a	n/a	n/a	n/a
1051390	REC_WORD	wordpools/wasnorm_wordpool_less_exclusions.txt	LTP289	ltpFR	7	2	0	BURGLAR	200	n/a	n/a	1	n/a	0	0	0	n/a	n/a	n/a	n/a	n/a
1053166	REC_WORD	wordpools/wasnorm_wordpool_less_exclusions.txt	LTP289	ltpFR	7	2	0	CUFF	423	n/a	n/a	0	n/a	0	0	0	n/a	n/a	n/a	n/a	n/a
1067368	REC_WORD	wordpools/wasnorm_wordpool_less_exclusions.txt	LTP289	ltpFR	7	2	0	TERMITE	1451	n/a	n/a	0	n/a	0	0	0	n/a	n/a	n/a	n/a	n/a
1069011	REC_WORD	wordpools/wasnorm_wordpool_less_exclusions.txt	LTP289	ltpFR	7	2	0	CHAIN	273	n/a	n/a	0	n/a	0	0	0	n/a	n/a	n/a	n/a	n/a
1078243	REC_WORD	wordpools/wasnorm_wordpool_less_exclusions.txt	LTP289	ltpFR	7	2	0	DESSERT	453	n/a	n/a	1	n/a	0	0	0	n/a	n/a	n/a	n/a	n/a
1079621	REC_WORD	wordpools/wasnorm_wordpool_less_exclusions.txt	LTP289	ltpFR	7	2	0	PIE	1062	n/a	n/a	0	n/a	0	0	0	n/a	n/a	n/a	n/a	n/a
1235219	START	n/a	LTP289	ltpFR	7	n/a	n/a	n/a	n/a	n/a	n/a	n/a	n/a	n/a	n/a	n/a	n/a	n/a	n/a	n/a	n/a
1236735	PROB	n/a	LTP289	ltpFR	7	n/a	n/a	n/a	n/a	n/a	n/a	n/a	11	1	9	1	n/a	n/a	n/a	n/a	n/a
1243219	STOP	n/a	LTP289	ltpFR	7	n/a	n/a	n/a	n/a	n/a	n/a	n/a	n/a	n/a	n/a	n/a	n/a	n/a	n/a	n/a	n/a
1244136	WORD	wordpools/wasnorm_wordpool_less_exclusions.txt	LTP289	ltpFR	7	3	0	PLANT	1083	n/a	n/a	0	n/a	0	0	0	0.422607421875	0.5869140625	0	lower	amplitud.ttf
1247148	START	n/a	LTP289	ltpFR	7	n/a	n/a	n/a	n/a	n/a	n/a	n/a	n/a	n/a	n/a	n/a	n/a	n/a	n/a	n/a	n/a
1248335	PROB	n/a	LTP289	ltpFR	7	n/a	n/a	n/a	n/a	n/a	n/a	n/a	14	6	4	4	n/a	n/a	n/a	n/a	n/a
1249890	PROB	n/a	LTP289	ltpFR	7	n/a	n/a	n/a	n/a	n/a	n/a	n/a	21	6	9	6	n/a	n/a	n/a	n/a	n/a
1255147	STOP	n/a	LTP289	ltpFR	7	n/a	n/a	n/a	n/a	n/a	n/a	n/a	n/a	n/a	n/a	n/a	n/a	n/a	n/a	n/a	n/a
1256348	WORD	wordpools/wasnorm_wordpool_less_exclusions.txt	LTP289	ltpFR	7	3	0	DOLL	481	n/a	n/a	0	n/a	0	0	0	0.422607421875	0.5869140625	0	lower	amplitud.ttf
1259360	START	n/a	LTP289	ltpFR	7	n/a	n/a	n/a	n/a	n/a	n/a	n/a	n/a	n/a	n/a	n/a	n/a	n/a	n/a	n/a	n/a
1260380	PROB	n/a	LTP289	ltpFR	7	n/a	n/a	n/a	n/a	n/a	n/a	n/a	12	7	3	2	n/a	n/a	n/a	n/a	n/a
1261762	PROB	n/a	LTP289	ltpFR	7	n/a	n/a	n/a	n/a	n/a	n/a	n/a	18	4	6	8	n/a	n/a	n/a	n/a	n/a
1263202	PROB	n/a	LTP289	ltpFR	7	n/a	n/a	n/a	n/a	n/a	n/a	n/a	10	3	2	5	n/a	n/a	n/a	n/a	n/a
1265092	PROB	n/a	LTP289	ltpFR	7	n/a	n/a	n/a	n/a	n/a	n/a	n/a	18	7	5	6	n/a	n/a	n/a	n/a	n/a
1267039	STOP	n/a	LTP289	ltpFR	7	n/a	n/a	n/a	n/a	n/a	n/a	n/a	n/a	n/a	n/a	n/a	n/a	n/a	n/a	n/a	n/a
1268477	WORD	wordpools/wasnorm_wordpool_less_exclusions.txt	LTP289	ltpFR	7	3	0	FREEZER	604	n/a	n/a	1	n/a	0	0	0	0.422607421875	0.5869140625	0	lower	amplitud.ttf
1271489	START	n/a	LTP289	ltpFR	7	n/a	n/a	n/a	n/a	n/a	n/a	n/a	n/a	n/a	n/a	n/a	n/a	n/a	n/a	n/a	n/a
1272526	PROB	n/a	LTP289	ltpFR	7	n/a	n/a	n/a	n/a	n/a	n/a	n/a	17	6	4	7	n/a	n/a	n/a	n/a	n/a
1274048	PROB	n/a	LTP289	ltpFR	7	n/a	n/a	n/a	n/a	n/a	n/a	n/a	19	3	7	9	n/a	n/a	n/a	n/a	n/a
1276335	PROB	n/a	LTP289	ltpFR	7	n/a	n/a	n/a	n/a	n/a	n/a	n/a	13	3	6	4	n/a	n/a	n/a	n/a	n/a
1279489	STOP	n/a	LTP289	ltpFR	7	n/a	n/a	n/a	n/a	n/a	n/a	n/a	n/a	n/a	n/a	n/a	n/a	n/a	n/a	n/a	n/a
1280706	WORD	wordpools/wasnorm_wordpool_less_exclusions.txt	LTP289	ltpFR	7	3	0	CINNAMON	310	n/a	n/a	0	n/a	0	0	0	0.422607421875	0.5869140625	0	lower	amplitud.ttf
1283718	START	n/a	LTP289	ltpFR	7	n/a	n/a	n/a	n/a	n/a	n/a	n/a	n/a	n/a	n/a	n/a	n/a	n/a	n/a	n/a	n/a
1284922	PROB	n/a	LTP289	ltpFR	7	n/a	n/a	n/a	n/a	n/a	n/a	n/a	20	8	8	4	n/a	n/a	n/a	n/a	n/a
1287415	PROB	n/a	LTP289	ltpFR	7	n/a	n/a	n/a	n/a	n/a	n/a	n/a	19	9	9	1	n/a	n/a	n/a	n/a	n/a
1289116	PROB	n/a	LTP289	ltpFR	7	n/a	n/a	n/a	n/a	n/a	n/a	n/a	14	9	4	1	n/a	n/a	n/a	n/a	n/a
1290967	STOP	n/a	LTP289	ltpFR	7	n/a	n/a	n/a	n/a	n/a	n/a	n/a	n/a	n/a	n/a	n/a	n/a	n/a	n/a	n/a	n/a
1292651	WORD	wordpools/wasnorm_wordpool_less_exclusions.txt	LTP289	ltpFR	7	3	0	CHILD	299	n/a	n/a	1	n/a	0	0	0	0.422607421875	0.5869140625	0	lower	amplitud.ttf
1295663	START	n/a	LTP289	ltpFR	7	n/a	n/a	n/a	n/a	n/a	n/a	n/a	n/a	n/a	n/a	n/a	n/a	n/a	n/a	n/a	n/a
1296528	PROB	n/a	LTP289	ltpFR	7	n/a	n/a	n/a	n/a	n/a	n/a	n/a	5	1	1	3	n/a	n/a	n/a	n/a	n/a
1298690	PROB	n/a	LTP289	ltpFR	7	n/a	n/a	n/a	n/a	n/a	n/a	n/a	13	7	5	1	n/a	n/a	n/a	n/a	n/a
1301095	PROB	n/a	LTP289	ltpFR	7	n/a	n/a	n/a	n/a	n/a	n/a	n/a	18	6	8	4	n/a	n/a	n/a	n/a	n/a
1302615	STOP	n/a	LTP289	ltpFR	7	n/a	n/a	n/a	n/a	n/a	n/a	n/a	n/a	n/a	n/a	n/a	n/a	n/a	n/a	n/a	n/a
1304824	WORD	wordpools/wasnorm_wordpool_less_exclusions.txt	LTP289	ltpFR	7	3	0	TAPIOCA	1434	n/a	n/a	0	n/a	0	0	0	0.422607421875	0.5869140625	0	lower	amplitud.ttf
1307837	START	n/a	LTP289	ltpFR	7	n/a	n/a	n/a	n/a	n/a	n/a	n/a	n/a	n/a	n/a	n/a	n/a	n/a	n/a	n/a	n/a
1308762	PROB	n/a	LTP289	ltpFR	7	n/a	n/a	n/a	n/a	n/a	n/a	n/a	20	3	8	9	n/a	n/a	n/a	n/a	n/a
1311567	PROB	n/a	LTP289	ltpFR	7	n/a	n/a	n/a	n/a	n/a	n/a	n/a	21	7	9	5	n/a	n/a	n/a	n/a	n/a
1314281	STOP	n/a	LTP289	ltpFR	7	n/a	n/a	n/a	n/a	n/a	n/a	n/a	n/a	n/a	n/a	n/a	n/a	n/a	n/a	n/a	n/a
1316959	WORD	wordpools/wasnorm_wordpool_less_exclusions.txt	LTP289	ltpFR	7	3	0	MICROWAVE	892	n/a	n/a	1	n/a	0	0	0	0.422607421875	0.5869140625	0	lower	amplitud.ttf
1319971	START	n/a	LTP289	ltpFR	7	n/a	n/a	n/a	n/a	n/a	n/a	n/a	n/a	n/a	n/a	n/a	n/a	n/a	n/a	n/a	n/a
1321008	PROB	n/a	LTP289	ltpFR	7	n/a	n/a	n/a	n/a	n/a	n/a	n/a	21	7	8	6	n/a	n/a	n/a	n/a	n/a
1323751	PROB	n/a	LTP289	ltpFR	7	n/a	n/a	n/a	n/a	n/a	n/a	n/a	19	6	5	8	n/a	n/a	n/a	n/a	n/a
1325569	PROB	n/a	LTP289	ltpFR	7	n/a	n/a	n/a	n/a	n/a	n/a	n/a	4	1	1	2	n/a	n/a	n/a	n/a	n/a
1326936	STOP	n/a	LTP289	ltpFR	7	n/a	n/a	n/a	n/a	n/a	n/a	n/a	n/a	n/a	n/a	n/a	n/a	n/a	n/a	n/a	n/a
1328848	WORD	wordpools/wasnorm_wordpool_less_exclusions.txt	LTP289	ltpFR	7	3	0	PUBLISHER	1137	n/a	n/a	1	n/a	0	0	0	0.422607421875	0.5869140625	0	lower	amplitud.ttf
1331866	START	n/a	LTP289	ltpFR	7	n/a	n/a	n/a	n/a	n/a	n/a	n/a	n/a	n/a	n/a	n/a	n/a	n/a	n/a	n/a	n/a
1332903	PROB	n/a	LTP289	ltpFR	7	n/a	n/a	n/a	n/a	n/a	n/a	n/a	19	8	5	6	n/a	n/a	n/a	n/a	n/a
1335095	PROB	n/a	LTP289	ltpFR	7	n/a	n/a	n/a	n/a	n/a	n/a	n/a	19	2	8	9	n/a	n/a	n/a	n/a	n/a
1336695	PROB	n/a	LTP289	ltpFR	7	n/a	n/a	n/a	n/a	n/a	n/a	n/a	11	3	2	6	n/a	n/a	n/a	n/a	n/a
1338879	STOP	n/a	LTP289	ltpFR	7	n/a	n/a	n/a	n/a	n/a	n/a	n/a	n/a	n/a	n/a	n/a	n/a	n/a	n/a	n/a	n/a
1340927	WORD	wordpools/wasnorm_wordpool_less_exclusions.txt	LTP289	ltpFR	7	3	0	LIBRARY	816	n/a	n/a	1	n/a	0	0	0	0.422607421875	0.5869140625	0	lower	amplitud.ttf
1343945	START	n/a	LTP289	ltpFR	7	n/a	n/a	n/a	n/a	n/a	n/a	n/a	n/a	n/a	n/a	n/a	n/a	n/a	n/a	n/a	n/a
1344881	PROB	n/a	LTP289	ltpFR	7	n/a	n/a	n/a	n/a	n/a	n/a	n/a	14	4	4	6	n/a	n/a	n/a	n/a	n/a
1347602	PROB	n/a	LTP289	ltpFR	7	n/a	n/a	n/a	n/a	n/a	n/a	n/a	6	1	3	2	n/a	n/a	n/a	n/a	n/a
1351945	STOP	n/a	LTP289	ltpFR	7	n/a	n/a	n/a	n/a	n/a	n/a	n/a	n/a	n/a	n/a	n/a	n/a	n/a	n/a	n/a	n/a
1352911	WORD	wordpools/wasnorm_wordpool_less_exclusions.txt	LTP289	ltpFR	7	3	0	BROOK	177	n/a	n/a	1	n/a	0	0	0	0.422607421875	0.5869140625	0	lower	amplitud.ttf
1355923	START	n/a	LTP289	ltpFR	7	n/a	n/a	n/a	n/a	n/a	n/a	n/a	n/a	n/a	n/a	n/a	n/a	n/a	n/a	n/a	n/a
1356943	PROB	n/a	LTP289	ltpFR	7	n/a	n/a	n/a	n/a	n/a	n/a	n/a	13	8	2	3	n/a	n/a	n/a	n/a	n/a
1358744	PROB	n/a	LTP289	ltpFR	7	n/a	n/a	n/a	n/a	n/a	n/a	n/a	21	9	7	5	n/a	n/a	n/a	n/a	n/a
1363551	STOP	n/a	LTP289	ltpFR	7	n/a	n/a	n/a	n/a	n/a	n/a	n/a	n/a	n/a	n/a	n/a	n/a	n/a	n/a	n/a	n/a
1365119	WORD	wordpools/wasnorm_wordpool_less_exclusions.txt	LTP289	ltpFR	7	3	0	POWDER	1117	n/a	n/a	0	n/a	0	0	0	0.422607421875	0.5869140625	0	lower	amplitud.ttf
1368137	START	n/a	LTP289	ltpFR	7	n/a	n/a	n/a	n/a	n/a	n/a	n/a	n/a	n/a	n/a	n/a	n/a	n/a	n/a	n/a	n/a
1369005	PROB	n/a	LTP289	ltpFR	7	n/a	n/a	n/a	n/a	n/a	n/a	n/a	10	2	3	5	n/a	n/a	n/a	n/a	n/a
1370946	PROB	n/a	LTP289	ltpFR	7	n/a	n/a	n/a	n/a	n/a	n/a	n/a	21	8	5	8	n/a	n/a	n/a	n/a	n/a
1373256	PROB	n/a	LTP289	ltpFR	7	n/a	n/a	n/a	n/a	n/a	n/a	n/a	16	8	3	5	n/a	n/a	n/a	n/a	n/a
1375440	STOP	n/a	LTP289	ltpFR	7	n/a	n/a	n/a	n/a	n/a	n/a	n/a	n/a	n/a	n/a	n/a	n/a	n/a	n/a	n/a	n/a
1377187	WORD	wordpools/wasnorm_wordpool_less_exclusions.txt	LTP289	ltpFR	7	3	0	CIGAR	308	n/a	n/a	0	n/a	0	0	0	0.422607421875	0.5869140625	0	lower	amplitud.ttf
1380199	START	n/a	LTP289	ltpFR	7	n/a	n/a	n/a	n/a	n/a	n/a	n/a	n/a	n/a	n/a	n/a	n/a	n/a	n/a	n/a	n/a
1381347	PROB	n/a	LTP289	ltpFR	7	n/a	n/a	n/a	n/a	n/a	n/a	n/a	19	8	4	7	n/a	n/a	n/a	n/a	n/a
1384147	PROB	n/a	LTP289	ltpFR	7	n/a	n/a	n/a	n/a	n/a	n/a	n/a	16	6	8	2	n/a	n/a	n/a	n/a	n/a
1388199	STOP	n/a	LTP289	ltpFR	7	n/a	n/a	n/a	n/a	n/a	n/a	n/a	n/a	n/a	n/a	n/a	n/a	n/a	n/a	n/a	n/a
1389166	WORD	wordpools/wasnorm_wordpool_less_exclusions.txt	LTP289	ltpFR	7	3	0	CORN	381	n/a	n/a	0	n/a	0	0	0	0.422607421875	0.5869140625	0	lower	amplitud.ttf
1392177	START	n/a	LTP289	ltpFR	7	n/a	n/a	n/a	n/a	n/a	n/a	n/a	n/a	n/a	n/a	n/a	n/a	n/a	n/a	n/a	n/a
1393381	PROB	n/a	LTP289	ltpFR	7	n/a	n/a	n/a	n/a	n/a	n/a	n/a	13	7	5	1	n/a	n/a	n/a	n/a	n/a
1395289	PROB	n/a	LTP289	ltpFR	7	n/a	n/a	n/a	n/a	n/a	n/a	n/a	25	8	8	9	n/a	n/a	n/a	n/a	n/a
1400176	STOP	n/a	LTP289	ltpFR	7	n/a	n/a	n/a	n/a	n/a	n/a	n/a	n/a	n/a	n/a	n/a	n/a	n/a	n/a	n/a	n/a
1401026	WORD	wordpools/wasnorm_wordpool_less_exclusions.txt	LTP289	ltpFR	7	3	0	BARLEY	88	n/a	n/a	1	n/a	0	0	0	0.422607421875	0.5869140625	0	lower	amplitud.ttf
1404038	START	n/a	LTP289	ltpFR	7	n/a	n/a	n/a	n/a	n/a	n/a	n/a	n/a	n/a	n/a	n/a	n/a	n/a	n/a	n/a	n/a
1405159	PROB	n/a	LTP289	ltpFR	7	n/a	n/a	n/a	n/a	n/a	n/a	n/a	19	6	6	7	n/a	n/a	n/a	n/a	n/a
1408483	PROB	n/a	LTP289	ltpFR	7	n/a	n/a	n/a	n/a	n/a	n/a	n/a	10	3	5	2	n/a	n/a	n/a	n/a	n/a
1412038	STOP	n/a	LTP289	ltpFR	7	n/a	n/a	n/a	n/a	n/a	n/a	n/a	n/a	n/a	n/a	n/a	n/a	n/a	n/a	n/a	n/a
1412887	WORD	wordpools/wasnorm_wordpool_less_exclusions.txt	LTP289	ltpFR	7	3	0	DIVER	476	n/a	n/a	1	n/a	0	0	0	0.422607421875	0.5869140625	0	lower	amplitud.ttf
1415899	START	n/a	LTP289	ltpFR	7	n/a	n/a	n/a	n/a	n/a	n/a	n/a	n/a	n/a	n/a	n/a	n/a	n/a	n/a	n/a	n/a
1417036	PROB	n/a	LTP289	ltpFR	7	n/a	n/a	n/a	n/a	n/a	n/a	n/a	14	3	8	3	n/a	n/a	n/a	n/a	n/a
1418905	PROB	n/a	LTP289	ltpFR	7	n/a	n/a	n/a	n/a	n/a	n/a	n/a	14	8	3	3	n/a	n/a	n/a	n/a	n/a
1420600	PROB	n/a	LTP289	ltpFR	7	n/a	n/a	n/a	n/a	n/a	n/a	n/a	10	6	3	1	n/a	n/a	n/a	n/a	n/a
1422329	STOP	n/a	LTP289	ltpFR	7	n/a	n/a	n/a	n/a	n/a	n/a	n/a	n/a	n/a	n/a	n/a	n/a	n/a	n/a	n/a	n/a
1424927	WORD	wordpools/wasnorm_wordpool_less_exclusions.txt	LTP289	ltpFR	7	3	0	SCALPEL	1243	n/a	n/a	0	n/a	0	0	0	0.422607421875	0.5869140625	0	lower	amplitud.ttf
1427944	START	n/a	LTP289	ltpFR	7	n/a	n/a	n/a	n/a	n/a	n/a	n/a	n/a	n/a	n/a	n/a	n/a	n/a	n/a	n/a	n/a
1428875	PROB	n/a	LTP289	ltpFR	7	n/a	n/a	n/a	n/a	n/a	n/a	n/a	11	5	5	1	n/a	n/a	n/a	n/a	n/a
1430064	PROB	n/a	LTP289	ltpFR	7	n/a	n/a	n/a	n/a	n/a	n/a	n/a	16	4	8	6	n/a	n/a	n/a	n/a	n/a
1433209	PROB	n/a	LTP289	ltpFR	7	n/a	n/a	n/a	n/a	n/a	n/a	n/a	17	7	9	1	n/a	n/a	n/a	n/a	n/a
1435792	STOP	n/a	LTP289	ltpFR	7	n/a	n/a	n/a	n/a	n/a	n/a	n/a	n/a	n/a	n/a	n/a	n/a	n/a	n/a	n/a	n/a
1437760	REC_START	n/a	LTP289	ltpFR	7	3	n/a	n/a	n/a	n/a	n/a	n/a	n/a	0	0	0	n/a	n/a	n/a	n/a	n/a
1438563	REC_WORD	wordpools/wasnorm_wordpool_less_exclusions.txt	LTP289	ltpFR	7	3	0	SCALPEL	1243	n/a	n/a	0	n/a	0	0	0	n/a	n/a	n/a	n/a	n/a
1439807	REC_WORD	wordpools/wasnorm_wordpool_less_exclusions.txt	LTP289	ltpFR	7	3	0	FREEZER	604	n/a	n/a	1	n/a	0	0	0	n/a	n/a	n/a	n/a	n/a
1441990	REC_WORD	wordpools/wasnorm_wordpool_less_exclusions.txt	LTP289	ltpFR	7	3	0	BROOK	177	n/a	n/a	1	n/a	0	0	0	n/a	n/a	n/a	n/a	n/a
1446006	REC_WORD	wordpools/wasnorm_wordpool_less_exclusions.txt	LTP289	ltpFR	7	3	0	DOLL	481	n/a	n/a	0	n/a	0	0	0	n/a	n/a	n/a	n/a	n/a
1447145	REC_WORD	wordpools/wasnorm_wordpool_less_exclusions.txt	LTP289	ltpFR	7	3	0	PLANT	1083	n/a	n/a	0	n/a	0	0	0	n/a	n/a	n/a	n/a	n/a
1453065	REC_WORD	wordpools/wasnorm_wordpool_less_exclusions.txt	LTP289	ltpFR	7	3	0	TAPIOCA	1434	n/a	n/a	0	n/a	0	0	0	n/a	n/a	n/a	n/a	n/a
1467672	REC_WORD	wordpools/wasnorm_wordpool_less_exclusions.txt	LTP289	ltpFR	7	3	0	CHILD	299	n/a	n/a	1	n/a	0	0	0	n/a	n/a	n/a	n/a	n/a
1474512	REC_WORD	wordpools/wasnorm_wordpool_less_exclusions.txt	LTP289	ltpFR	7	3	0	LIBRARY	816	n/a	n/a	1	n/a	0	0	0	n/a	n/a	n/a	n/a	n/a
1475834	REC_WORD	wordpools/wasnorm_wordpool_less_exclusions.txt	LTP289	ltpFR	7	3	0	PUBLISHER	1137	n/a	n/a	1	n/a	0	0	0	n/a	n/a	n/a	n/a	n/a
1498757	REC_WORD	wordpools/wasnorm_wordpool_less_exclusions.txt	LTP289	ltpFR	7	3	0	POWDER	1117	n/a	n/a	0	n/a	0	0	0	n/a	n/a	n/a	n/a	n/a
1623315	WORD	wordpools/wasnorm_wordpool_less_exclusions.txt	LTP289	ltpFR	7	4	1	SHORE	1291	n/a	n/a	0	n/a	0	0	0	0.57763671875	0.412841796875	1	upper	zerothre.ttf
1627464	WORD	wordpools/wasnorm_wordpool_less_exclusions.txt	LTP289	ltpFR	7	4	1	BAY	102	n/a	n/a	0	n/a	0	0	0	0.57763671875	0.412841796875	1	upper	zerothre.ttf
1631490	WORD	wordpools/wasnorm_wordpool_less_exclusions.txt	LTP289	ltpFR	7	4	1	MUFFIN	929	n/a	n/a	0	n/a	0	0	0	0.57763671875	0.412841796875	1	upper	zerothre.ttf
1635638	WORD	wordpools/wasnorm_wordpool_less_exclusions.txt	LTP289	ltpFR	7	4	1	BLUEBERRY	140	n/a	n/a	0	n/a	0	0	0	0.57763671875	0.412841796875	1	upper	zerothre.ttf
1639636	WORD	wordpools/wasnorm_wordpool_less_exclusions.txt	LTP289	ltpFR	7	4	1	BRIDGE	174	n/a	n/a	0	n/a	0	0	0	0.57763671875	0.412841796875	1	upper	zerothre.ttf
1643635	WORD	wordpools/wasnorm_wordpool_less_exclusions.txt	LTP289	ltpFR	7	4	1	SUSPECT	1415	n/a	n/a	1	n/a	0	0	0	0.57763671875	0.412841796875	1	upper	zerothre.ttf
1647834	WORD	wordpools/wasnorm_wordpool_less_exclusions.txt	LTP289	ltpFR	7	4	1	CLASS	318	n/a	n/a	0	n/a	0	0	0	0.57763671875	0.412841796875	1	upper	zerothre.ttf
1651804	WORD	wordpools/wasnorm_wordpool_less_exclusions.txt	LTP289	ltpFR	7	4	1	GRADUATE	653	n/a	n/a	1	n/a	0	0	0	0.57763671875	0.412841796875	1	upper	zerothre.ttf
1655870	WORD	wordpools/wasnorm_wordpool_less_exclusions.txt	LTP289	ltpFR	7	4	1	SAUCER	1237	n/a	n/a	0	n/a	0	0	0	0.57763671875	0.412841796875	1	upper	zerothre.ttf
1660013	WORD	wordpools/wasnorm_wordpool_less_exclusions.txt	LTP289	ltpFR	7	4	1	DICTATOR	462	n/a	n/a	1	n/a	0	0	0	0.57763671875	0.412841796875	1	upper	zerothre.ttf
1664213	WORD	wordpools/wasnorm_wordpool_less_exclusions.txt	LTP289	ltpFR	7	4	1	SCARF	1246	n/a	n/a	0	n/a	0	0	0	0.57763671875	0.412841796875	1	upper	zerothre.ttf
1668167	WORD	wordpools/wasnorm_wordpool_less_exclusions.txt	LTP289	ltpFR	7	4	1	TAG	1429	n/a	n/a	0	n/a	0	0	0	0.57763671875	0.412841796875	1	upper	zerothre.ttf
1672350	WORD	wordpools/wasnorm_wordpool_less_exclusions.txt	LTP289	ltpFR	7	4	1	CHEESE	289	n/a	n/a	0	n/a	0	0	0	0.57763671875	0.412841796875	1	upper	zerothre.ttf
1676359	WORD	wordpools/wasnorm_wordpool_less_exclusions.txt	LTP289	ltpFR	7	4	1	BEAKER	104	n/a	n/a	0	n/a	0	0	0	0.57763671875	0.412841796875	1	upper	zerothre.ttf
1680357	WORD	wordpools/wasnorm_wordpool_less_exclusions.txt	LTP289	ltpFR	7	4	1	DESIGNER	451	n/a	n/a	1	n/a	0	0	0	0.57763671875	0.412841796875	1	upper	zerothre.ttf
1684495	WORD	wordpools/wasnorm_wordpool_less_exclusions.txt	LTP289	ltpFR	7	4	1	SWIMMER	1420	n/a	n/a	1	n/a	0	0	0	0.57763671875	0.412841796875	1	upper	zerothre.ttf
1687507	START	n/a	LTP289	ltpFR	7	n/a	n/a	n/a	n/a	n/a	n/a	n/a	n/a	n/a	n/a	n/a	n/a	n/a	n/a	n/a	n/a
1688643	PROB	n/a	LTP289	ltpFR	7	n/a	n/a	n/a	n/a	n/a	n/a	n/a	13	2	2	9	n/a	n/a	n/a	n/a	n/a
1691649	PROB	n/a	LTP289	ltpFR	7	n/a	n/a	n/a	n/a	n/a	n/a	n/a	18	9	4	5	n/a	n/a	n/a	n/a	n/a
1693824	PROB	n/a	LTP289	ltpFR	7	n/a	n/a	n/a	n/a	n/a	n/a	n/a	15	7	3	5	n/a	n/a	n/a	n/a	n/a
1695104	STOP	n/a	LTP289	ltpFR	7	n/a	n/a	n/a	n/a	n/a	n/a	n/a	n/a	n/a	n/a	n/a	n/a	n/a	n/a	n/a	n/a
1697395	REC_START	n/a	LTP289	ltpFR	7	4	n/a	n/a	n/a	n/a	n/a	n/a	n/a	0	0	0	n/a	n/a	n/a	n/a	n/a
1698620	REC_WORD	wordpools/wasnorm_wordpool_less_exclusions.txt	LTP289	ltpFR	7	4	1	BEAKER	104	n/a	n/a	0	n/a	0	0	0	n/a	n/a	n/a	n/a	n/a
1699775	REC_WORD	wordpools/wasnorm_wordpool_less_exclusions.txt	LTP289	ltpFR	7	4	1	GRADUATE	653	n/a	n/a	1	n/a	0	0	0	n/a	n/a	n/a	n/a	n/a
1701768	REC_WORD	wordpools/wasnorm_wordpool_less_exclusions.txt	LTP289	ltpFR	7	4	1	SHORE	1291	n/a	n/a	0	n/a	0	0	0	n/a	n/a	n/a	n/a	n/a
1703071	REC_WORD	wordpools/wasnorm_wordpool_less_exclusions.txt	LTP289	ltpFR	7	4	1	BAY	102	n/a	n/a	0	n/a	0	0	0	n/a	n/a	n/a	n/a	n/a
1704267	REC_WORD	wordpools/wasnorm_wordpool_less_exclusions.txt	LTP289	ltpFR	7	4	1	BRIDGE	174	n/a	n/a	0	n/a	0	0	0	n/a	n/a	n/a	n/a	n/a
1726143	REC_WORD	wordpools/wasnorm_wordpool_less_exclusions.txt	LTP289	ltpFR	7	4	1	BLUEBERRY	140	n/a	n/a	0	n/a	0	0	0	n/a	n/a	n/a	n/a	n/a
1727441	REC_WORD	wordpools/wasnorm_wordpool_less_exclusions.txt	LTP289	ltpFR	7	4	1	MUFFIN	929	n/a	n/a	0	n/a	0	0	0	n/a	n/a	n/a	n/a	n/a
1737303	REC_WORD	wordpools/wasnorm_wordpool_less_exclusions.txt	LTP289	ltpFR	7	4	1	TAG	1429	n/a	n/a	0	n/a	0	0	0	n/a	n/a	n/a	n/a	n/a
1742623	REC_WORD	wordpools/wasnorm_wordpool_less_exclusions.txt	LTP289	ltpFR	7	4	1	DESIGNER	451	n/a	n/a	1	n/a	0	0	0	n/a	n/a	n/a	n/a	n/a
1743990	REC_WORD	wordpools/wasnorm_wordpool_less_exclusions.txt	LTP289	ltpFR	7	4	1	DICTATOR	462	n/a	n/a	1	n/a	0	0	0	n/a	n/a	n/a	n/a	n/a
1826442	START	n/a	LTP289	ltpFR	7	n/a	n/a	n/a	n/a	n/a	n/a	n/a	n/a	n/a	n/a	n/a	n/a	n/a	n/a	n/a	n/a
1827952	PROB	n/a	LTP289	ltpFR	7	n/a	n/a	n/a	n/a	n/a	n/a	n/a	16	9	5	2	n/a	n/a	n/a	n/a	n/a
1834442	STOP	n/a	LTP289	ltpFR	7	n/a	n/a	n/a	n/a	n/a	n/a	n/a	n/a	n/a	n/a	n/a	n/a	n/a	n/a	n/a	n/a
1835297	WORD	wordpools/wasnorm_wordpool_less_exclusions.txt	LTP289	ltpFR	7	5	1	COOK	372	n/a	n/a	1	n/a	0	0	0	0.57763671875	0.412841796875	1	upper	zerothre.ttf
1838309	START	n/a	LTP289	ltpFR	7	n/a	n/a	n/a	n/a	n/a	n/a	n/a	n/a	n/a	n/a	n/a	n/a	n/a	n/a	n/a	n/a
1839245	PROB	n/a	LTP289	ltpFR	7	n/a	n/a	n/a	n/a	n/a	n/a	n/a	12	2	9	1	n/a	n/a	n/a	n/a	n/a
1841581	PROB	n/a	LTP289	ltpFR	7	n/a	n/a	n/a	n/a	n/a	n/a	n/a	12	8	2	2	n/a	n/a	n/a	n/a	n/a
1843193	PROB	n/a	LTP289	ltpFR	7	n/a	n/a	n/a	n/a	n/a	n/a	n/a	6	3	2	1	n/a	n/a	n/a	n/a	n/a
1846309	STOP	n/a	LTP289	ltpFR	7	n/a	n/a	n/a	n/a	n/a	n/a	n/a	n/a	n/a	n/a	n/a	n/a	n/a	n/a	n/a	n/a
1847225	WORD	wordpools/wasnorm_wordpool_less_exclusions.txt	LTP289	ltpFR	7	5	1	HELICOPTER	701	n/a	n/a	0	n/a	0	0	0	0.57763671875	0.412841796875	1	upper	zerothre.ttf
1850237	START	n/a	LTP289	ltpFR	7	n/a	n/a	n/a	n/a	n/a	n/a	n/a	n/a	n/a	n/a	n/a	n/a	n/a	n/a	n/a	n/a
1851352	PROB	n/a	LTP289	ltpFR	7	n/a	n/a	n/a	n/a	n/a	n/a	n/a	16	7	8	9	n/a	n/a	n/a	n/a	n/a
1855639	PROB	n/a	LTP289	ltpFR	7	n/a	n/a	n/a	n/a	n/a	n/a	n/a	18	8	1	9	n/a	n/a	n/a	n/a	n/a
1857200	STOP	n/a	LTP289	ltpFR	7	n/a	n/a	n/a	n/a	n/a	n/a	n/a	n/a	n/a	n/a	n/a	n/a	n/a	n/a	n/a	n/a
1859338	WORD	wordpools/wasnorm_wordpool_less_exclusions.txt	LTP289	ltpFR	7	5	1	NEUTRON	947	n/a	n/a	0	n/a	0	0	0	0.57763671875	0.412841796875	1	upper	zerothre.ttf
1862349	START	n/a	LTP289	ltpFR	7	n/a	n/a	n/a	n/a	n/a	n/a	n/a	n/a	n/a	n/a	n/a	n/a	n/a	n/a	n/a	n/a
1863436	PROB	n/a	LTP289	ltpFR	7	n/a	n/a	n/a	n/a	n/a	n/a	n/a	13	3	1	8	n/a	n/a	n/a	n/a	n/a
1865555	PROB	n/a	LTP289	ltpFR	7	n/a	n/a	n/a	n/a	n/a	n/a	n/a	14	8	2	4	n/a	n/a	n/a	n/a	n/a
1868936	STOP	n/a	LTP289	ltpFR	7	n/a	n/a	n/a	n/a	n/a	n/a	n/a	n/a	n/a	n/a	n/a	n/a	n/a	n/a	n/a	n/a
1871350	WORD	wordpools/wasnorm_wordpool_less_exclusions.txt	LTP289	ltpFR	7	5	1	GRAPE	654	n/a	n/a	0	n/a	0	0	0	0.57763671875	0.412841796875	1	upper	zerothre.ttf
1874362	START	n/a	LTP289	ltpFR	7	n/a	n/a	n/a	n/a	n/a	n/a	n/a	n/a	n/a	n/a	n/a	n/a	n/a	n/a	n/a	n/a
1875559	PROB	n/a	LTP289	ltpFR	7	n/a	n/a	n/a	n/a	n/a	n/a	n/a	25	9	8	8	n/a	n/a	n/a	n/a	n/a
1877923	PROB	n/a	LTP289	ltpFR	7	n/a	n/a	n/a	n/a	n/a	n/a	n/a	11	1	2	8	n/a	n/a	n/a	n/a	n/a
1882362	STOP	n/a	LTP289	ltpFR	7	n/a	n/a	n/a	n/a	n/a	n/a	n/a	n/a	n/a	n/a	n/a	n/a	n/a	n/a	n/a	n/a
1883473	WORD	wordpools/wasnorm_wordpool_less_exclusions.txt	LTP289	ltpFR	7	5	1	KIWI	781	n/a	n/a	0	n/a	0	0	0	0.57763671875	0.412841796875	1	upper	zerothre.ttf
1886491	START	n/a	LTP289	ltpFR	7	n/a	n/a	n/a	n/a	n/a	n/a	n/a	n/a	n/a	n/a	n/a	n/a	n/a	n/a	n/a	n/a
1887460	PROB	n/a	LTP289	ltpFR	7	n/a	n/a	n/a	n/a	n/a	n/a	n/a	14	4	2	8	n/a	n/a	n/a	n/a	n/a
1889328	PROB	n/a	LTP289	ltpFR	7	n/a	n/a	n/a	n/a	n/a	n/a	n/a	18	7	2	9	n/a	n/a	n/a	n/a	n/a
1894491	STOP	n/a	LTP289	ltpFR	7	n/a	n/a	n/a	n/a	n/a	n/a	n/a	n/a	n/a	n/a	n/a	n/a	n/a	n/a	n/a	n/a
1895357	WORD	wordpools/wasnorm_wordpool_less_exclusions.txt	LTP289	ltpFR	7	5	1	MOUNTAIN	924	n/a	n/a	0	n/a	0	0	0	0.57763671875	0.412841796875	1	upper	zerothre.ttf
1898369	START	n/a	LTP289	ltpFR	7	n/a	n/a	n/a	n/a	n/a	n/a	n/a	n/a	n/a	n/a	n/a	n/a	n/a	n/a	n/a	n/a
1899221	PROB	n/a	LTP289	ltpFR	7	n/a	n/a	n/a	n/a	n/a	n/a	n/a	14	7	1	6	n/a	n/a	n/a	n/a	n/a
1901212	PROB	n/a	LTP289	ltpFR	7	n/a	n/a	n/a	n/a	n/a	n/a	n/a	18	8	2	8	n/a	n/a	n/a	n/a	n/a
1906368	STOP	n/a	LTP289	ltpFR	7	n/a	n/a	n/a	n/a	n/a	n/a	n/a	n/a	n/a	n/a	n/a	n/a	n/a	n/a	n/a	n/a
1907436	WORD	wordpools/wasnorm_wordpool_less_exclusions.txt	LTP289	ltpFR	7	5	1	CARROT	249	n/a	n/a	0	n/a	0	0	0	0.57763671875	0.412841796875	1	upper	zerothre.ttf
1910447	START	n/a	LTP289	ltpFR	7	n/a	n/a	n/a	n/a	n/a	n/a	n/a	n/a	n/a	n/a	n/a	n/a	n/a	n/a	n/a	n/a
1911550	PROB	n/a	LTP289	ltpFR	7	n/a	n/a	n/a	n/a	n/a	n/a	n/a	19	9	4	6	n/a	n/a	n/a	n/a	n/a
1913285	PROB	n/a	LTP289	ltpFR	7	n/a	n/a	n/a	n/a	n/a	n/a	n/a	16	6	9	1	n/a	n/a	n/a	n/a	n/a
1914812	PROB	n/a	LTP289	ltpFR	7	n/a	n/a	n/a	n/a	n/a	n/a	n/a	8	4	3	1	n/a	n/a	n/a	n/a	n/a
1918446	STOP	n/a	LTP289	ltpFR	7	n/a	n/a	n/a	n/a	n/a	n/a	n/a	n/a	n/a	n/a	n/a	n/a	n/a	n/a	n/a	n/a
1919392	WORD	wordpools/wasnorm_wordpool_less_exclusions.txt	LTP289	ltpFR	7	5	1	BUNNY	198	n/a	n/a	1	n/a	0	0	0	0.57763671875	0.412841796875	1	upper	zerothre.ttf
1922409	START	n/a	LTP289	ltpFR	7	n/a	n/a	n/a	n/a	n/a	n/a	n/a	n/a	n/a	n/a	n/a	n/a	n/a	n/a	n/a	n/a
1923562	PROB	n/a	LTP289	ltpFR	7	n/a	n/a	n/a	n/a	n/a	n/a	n/a	14	4	5	5	n/a	n/a	n/a	n/a	n/a
1926535	PROB	n/a	LTP289	ltpFR	7	n/a	n/a	n/a	n/a	n/a	n/a	n/a	11	9	1	1	n/a	n/a	n/a	n/a	n/a
1930401	STOP	n/a	LTP289	ltpFR	7	n/a	n/a	n/a	n/a	n/a	n/a	n/a	n/a	n/a	n/a	n/a	n/a	n/a	n/a	n/a	n/a
1931576	WORD	wordpools/wasnorm_wordpool_less_exclusions.txt	LTP289	ltpFR	7	5	1	PRIMATE	1123	n/a	n/a	1	n/a	0	0	0	0.57763671875	0.412841796875	1	upper	zerothre.ttf
1934587	START	n/a	LTP289	ltpFR	7	n/a	n/a	n/a	n/a	n/a	n/a	n/a	n/a	n/a	n/a	n/a	n/a	n/a	n/a	n/a	n/a
1935775	PROB	n/a	LTP289	ltpFR	7	n/a	n/a	n/a	n/a	n/a	n/a	n/a	14	4	8	2	n/a	n/a	n/a	n/a	n/a
1937315	PROB	n/a	LTP289	ltpFR	7	n/a	n/a	n/a	n/a	n/a	n/a	n/a	10	5	2	3	n/a	n/a	n/a	n/a	n/a
1939451	PROB	n/a	LTP289	ltpFR	7	n/a	n/a	n/a	n/a	n/a	n/a	n/a	15	9	3	3	n/a	n/a	n/a	n/a	n/a
1941943	STOP	n/a	LTP289	ltpFR	7	n/a	n/a	n/a	n/a	n/a	n/a	n/a	n/a	n/a	n/a	n/a	n/a	n/a	n/a	n/a	n/a
1943483	WORD	wordpools/wasnorm_wordpool_less_exclusions.txt	LTP289	ltpFR	7	5	1	PRINTER	1126	n/a	n/a	0	n/a	0	0	0	0.57763671875	0.412841796875	1	upper	zerothre.ttf
1946500	START	n/a	LTP289	ltpFR	7	n/a	n/a	n/a	n/a	n/a	n/a	n/a	n/a	n/a	n/a	n/a	n/a	n/a	n/a	n/a	n/a
1947319	PROB	n/a	LTP289	ltpFR	7	n/a	n/a	n/a	n/a	n/a	n/a	n/a	8	2	1	5	n/a	n/a	n/a	n/a	n/a
1949002	PROB	n/a	LTP289	ltpFR	7	n/a	n/a	n/a	n/a	n/a	n/a	n/a	13	3	9	1	n/a	n/a	n/a	n/a	n/a
1950509	PROB	n/a	LTP289	ltpFR	7	n/a	n/a	n/a	n/a	n/a	n/a	n/a	16	9	1	6	n/a	n/a	n/a	n/a	n/a
1952014	PROB	n/a	LTP289	ltpFR	7	n/a	n/a	n/a	n/a	n/a	n/a	n/a	19	8	7	4	n/a	n/a	n/a	n/a	n/a
1954457	STOP	n/a	LTP289	ltpFR	7	n/a	n/a	n/a	n/a	n/a	n/a	n/a	n/a	n/a	n/a	n/a	n/a	n/a	n/a	n/a	n/a
1955400	WORD	wordpools/wasnorm_wordpool_less_exclusions.txt	LTP289	ltpFR	7	5	1	DINNER	468	n/a	n/a	0	n/a	0	0	0	0.57763671875	0.412841796875	1	upper	zerothre.ttf
1958412	START	n/a	LTP289	ltpFR	7	n/a	n/a	n/a	n/a	n/a	n/a	n/a	n/a	n/a	n/a	n/a	n/a	n/a	n/a	n/a	n/a
1959381	PROB	n/a	LTP289	ltpFR	7	n/a	n/a	n/a	n/a	n/a	n/a	n/a	14	1	4	9	n/a	n/a	n/a	n/a	n/a
1961817	PROB	n/a	LTP289	ltpFR	7	n/a	n/a	n/a	n/a	n/a	n/a	n/a	14	4	9	1	n/a	n/a	n/a	n/a	n/a
1963212	PROB	n/a	LTP289	ltpFR	7	n/a	n/a	n/a	n/a	n/a	n/a	n/a	9	2	4	3	n/a	n/a	n/a	n/a	n/a
1965184	STOP	n/a	LTP289	ltpFR	7	n/a	n/a	n/a	n/a	n/a	n/a	n/a	n/a	n/a	n/a	n/a	n/a	n/a	n/a	n/a	n/a
1967361	WORD	wordpools/wasnorm_wordpool_less_exclusions.txt	LTP289	ltpFR	7	5	1	NERVE	944	n/a	n/a	0	n/a	0	0	0	0.57763671875	0.412841796875	1	upper	zerothre.ttf
1970373	START	n/a	LTP289	ltpFR	7	n/a	n/a	n/a	n/a	n/a	n/a	n/a	n/a	n/a	n/a	n/a	n/a	n/a	n/a	n/a	n/a
1971326	PROB	n/a	LTP289	ltpFR	7	n/a	n/a	n/a	n/a	n/a	n/a	n/a	15	5	1	9	n/a	n/a	n/a	n/a	n/a
1973729	PROB	n/a	LTP289	ltpFR	7	n/a	n/a	n/a	n/a	n/a	n/a	n/a	9	6	1	2	n/a	n/a	n/a	n/a	n/a
1975904	PROB	n/a	LTP289	ltpFR	7	n/a	n/a	n/a	n/a	n/a	n/a	n/a	18	9	3	6	n/a	n/a	n/a	n/a	n/a
1977999	STOP	n/a	LTP289	ltpFR	7	n/a	n/a	n/a	n/a	n/a	n/a	n/a	n/a	n/a	n/a	n/a	n/a	n/a	n/a	n/a	n/a
1979590	WORD	wordpools/wasnorm_wordpool_less_exclusions.txt	LTP289	ltpFR	7	5	1	PORCH	1106	n/a	n/a	0	n/a	0	0	0	0.57763671875	0.412841796875	1	upper	zerothre.ttf
1982602	START	n/a	LTP289	ltpFR	7	n/a	n/a	n/a	n/a	n/a	n/a	n/a	n/a	n/a	n/a	n/a	n/a	n/a	n/a	n/a	n/a
1983616	PROB	n/a	LTP289	ltpFR	7	n/a	n/a	n/a	n/a	n/a	n/a	n/a	12	1	3	8	n/a	n/a	n/a	n/a	n/a
1986060	PROB	n/a	LTP289	ltpFR	7	n/a	n/a	n/a	n/a	n/a	n/a	n/a	13	4	8	1	n/a	n/a	n/a	n/a	n/a
1990601	STOP	n/a	LTP289	ltpFR	7	n/a	n/a	n/a	n/a	n/a	n/a	n/a	n/a	n/a	n/a	n/a	n/a	n/a	n/a	n/a	n/a
1991769	WORD	wordpools/wasnorm_wordpool_less_exclusions.txt	LTP289	ltpFR	7	5	1	COUCH	386	n/a	n/a	0	n/a	0	0	0	0.57763671875	0.412841796875	1	upper	zerothre.ttf
1994781	START	n/a	LTP289	ltpFR	7	n/a	n/a	n/a	n/a	n/a	n/a	n/a	n/a	n/a	n/a	n/a	n/a	n/a	n/a	n/a	n/a
1995634	PROB	n/a	LTP289	ltpFR	7	n/a	n/a	n/a	n/a	n/a	n/a	n/a	7	3	2	2	n/a	n/a	n/a	n/a	n/a
1997386	PROB	n/a	LTP289	ltpFR	7	n/a	n/a	n/a	n/a	n/a	n/a	n/a	9	6	1	2	n/a	n/a	n/a	n/a	n/a
2002780	STOP	n/a	LTP289	ltpFR	7	n/a	n/a	n/a	n/a	n/a	n/a	n/a	n/a	n/a	n/a	n/a	n/a	n/a	n/a	n/a	n/a
2003982	WORD	wordpools/wasnorm_wordpool_less_exclusions.txt	LTP289	ltpFR	7	5	1	CONDUCTOR	362	n/a	n/a	1	n/a	0	0	0	0.57763671875	0.412841796875	1	upper	zerothre.ttf
2006994	START	n/a	LTP289	ltpFR	7	n/a	n/a	n/a	n/a	n/a	n/a	n/a	n/a	n/a	n/a	n/a	n/a	n/a	n/a	n/a	n/a
2008193	PROB	n/a	LTP289	ltpFR	7	n/a	n/a	n/a	n/a	n/a	n/a	n/a	14	5	2	7	n/a	n/a	n/a	n/a	n/a
2009781	PROB	n/a	LTP289	ltpFR	7	n/a	n/a	n/a	n/a	n/a	n/a	n/a	15	9	4	2	n/a	n/a	n/a	n/a	n/a
2014994	STOP	n/a	LTP289	ltpFR	7	n/a	n/a	n/a	n/a	n/a	n/a	n/a	n/a	n/a	n/a	n/a	n/a	n/a	n/a	n/a	n/a
2015826	WORD	wordpools/wasnorm_wordpool_less_exclusions.txt	LTP289	ltpFR	7	5	1	AIRCRAFT	11	n/a	n/a	0	n/a	0	0	0	0.57763671875	0.412841796875	1	upper	zerothre.ttf
2018838	START	n/a	LTP289	ltpFR	7	n/a	n/a	n/a	n/a	n/a	n/a	n/a	n/a	n/a	n/a	n/a	n/a	n/a	n/a	n/a	n/a
2020037	PROB	n/a	LTP289	ltpFR	7	n/a	n/a	n/a	n/a	n/a	n/a	n/a	15	4	7	4	n/a	n/a	n/a	n/a	n/a
2022101	PROB	n/a	LTP289	ltpFR	7	n/a	n/a	n/a	n/a	n/a	n/a	n/a	19	7	4	8	n/a	n/a	n/a	n/a	n/a
2023974	PROB	n/a	LTP289	ltpFR	7	n/a	n/a	n/a	n/a	n/a	n/a	n/a	13	5	1	7	n/a	n/a	n/a	n/a	n/a
2026145	STOP	n/a	LTP289	ltpFR	7	n/a	n/a	n/a	n/a	n/a	n/a	n/a	n/a	n/a	n/a	n/a	n/a	n/a	n/a	n/a	n/a
2028793	REC_START	n/a	LTP289	ltpFR	7	5	n/a	n/a	n/a	n/a	n/a	n/a	n/a	0	0	0	n/a	n/a	n/a	n/a	n/a
2029867	REC_WORD	wordpools/wasnorm_wordpool_less_exclusions.txt	LTP289	ltpFR	7	5	1	PRIMATE	1123	n/a	n/a	1	n/a	0	0	0	n/a	n/a	n/a	n/a	n/a
2031001	REC_WORD	wordpools/wasnorm_wordpool_less_exclusions.txt	LTP289	ltpFR	7	5	1	GRAPE	654	n/a	n/a	0	n/a	0	0	0	n/a	n/a	n/a	n/a	n/a
2032077	REC_WORD	wordpools/wasnorm_wordpool_less_exclusions.txt	LTP289	ltpFR	7	5	1	KIWI	781	n/a	n/a	0	n/a	0	0	0	n/a	n/a	n/a	n/a	n/a
2034132	REC_WORD	wordpools/wasnorm_wordpool_less_exclusions.txt	LTP289	ltpFR	7	5	1	AIRCRAFT	11	n/a	n/a	0	n/a	0	0	0	n/a	n/a	n/a	n/a	n/a
2058326	REC_WORD	wordpools/wasnorm_wordpool_less_exclusions.txt	LTP289	ltpFR	7	5	1	CONDUCTOR	362	n/a	n/a	1	n/a	0	0	0	n/a	n/a	n/a	n/a	n/a
2059746	REC_WORD	wordpools/wasnorm_wordpool_less_exclusions.txt	LTP289	ltpFR	7	5	1	NERVE	944	n/a	n/a	0	n/a	0	0	0	n/a	n/a	n/a	n/a	n/a
2175429	START	n/a	LTP289	ltpFR	7	n/a	n/a	n/a	n/a	n/a	n/a	n/a	n/a	n/a	n/a	n/a	n/a	n/a	n/a	n/a	n/a
2176945	PROB	n/a	LTP289	ltpFR	7	n/a	n/a	n/a	n/a	n/a	n/a	n/a	10	1	1	8	n/a	n/a	n/a	n/a	n/a
2178785	PROB	n/a	LTP289	ltpFR	7	n/a	n/a	n/a	n/a	n/a	n/a	n/a	23	8	9	6	n/a	n/a	n/a	n/a	n/a
2182534	PROB	n/a	LTP289	ltpFR	7	n/a	n/a	n/a	n/a	n/a	n/a	n/a	13	9	2	2	n/a	n/a	n/a	n/a	n/a
2184424	PROB	n/a	LTP289	ltpFR	7	n/a	n/a	n/a	n/a	n/a	n/a	n/a	11	3	7	1	n/a	n/a	n/a	n/a	n/a
2186748	PROB	n/a	LTP289	ltpFR	7	n/a	n/a	n/a	n/a	n/a	n/a	n/a	14	7	2	5	n/a	n/a	n/a	n/a	n/a
2190137	STOP	n/a	LTP289	ltpFR	7	n/a	n/a	n/a	n/a	n/a	n/a	n/a	n/a	n/a	n/a	n/a	n/a	n/a	n/a	n/a	n/a
2192443	WORD	wordpools/wasnorm_wordpool_less_exclusions.txt	LTP289	ltpFR	7	6	0	PLAID	1080	n/a	n/a	0	n/a	0	0	0	0.422607421875	0.5869140625	0	lower	amplitud.ttf
2195455	START	n/a	LTP289	ltpFR	7	n/a	n/a	n/a	n/a	n/a	n/a	n/a	n/a	n/a	n/a	n/a	n/a	n/a	n/a	n/a	n/a
2196291	PROB	n/a	LTP289	ltpFR	7	n/a	n/a	n/a	n/a	n/a	n/a	n/a	15	5	3	7	n/a	n/a	n/a	n/a	n/a
2199948	PROB	n/a	LTP289	ltpFR	7	n/a	n/a	n/a	n/a	n/a	n/a	n/a	27	9	9	9	n/a	n/a	n/a	n/a	n/a
2202341	PROB	n/a	LTP289	ltpFR	7	n/a	n/a	n/a	n/a	n/a	n/a	n/a	7	1	2	4	n/a	n/a	n/a	n/a	n/a
2204867	PROB	n/a	LTP289	ltpFR	7	n/a	n/a	n/a	n/a	n/a	n/a	n/a	15	9	1	5	n/a	n/a	n/a	n/a	n/a
2206556	PROB	n/a	LTP289	ltpFR	7	n/a	n/a	n/a	n/a	n/a	n/a	n/a	13	5	4	4	n/a	n/a	n/a	n/a	n/a
2211455	STOP	n/a	LTP289	ltpFR	7	n/a	n/a	n/a	n/a	n/a	n/a	n/a	n/a	n/a	n/a	n/a	n/a	n/a	n/a	n/a	n/a
2212435	WORD	wordpools/wasnorm_wordpool_less_exclusions.txt	LTP289	ltpFR	7	6	0	SHIRT	1287	n/a	n/a	0	n/a	0	0	0	0.422607421875	0.5869140625	0	lower	amplitud.ttf
2215447	START	n/a	LTP289	ltpFR	7	n/a	n/a	n/a	n/a	n/a	n/a	n/a	n/a	n/a	n/a	n/a	n/a	n/a	n/a	n/a	n/a
2216611	PROB	n/a	LTP289	ltpFR	7	n/a	n/a	n/a	n/a	n/a	n/a	n/a	20	5	7	8	n/a	n/a	n/a	n/a	n/a
2218975	PROB	n/a	LTP289	ltpFR	7	n/a	n/a	n/a	n/a	n/a	n/a	n/a	13	2	9	2	n/a	n/a	n/a	n/a	n/a
2220760	PROB	n/a	LTP289	ltpFR	7	n/a	n/a	n/a	n/a	n/a	n/a	n/a	15	3	9	3	n/a	n/a	n/a	n/a	n/a
2222907	PROB	n/a	LTP289	ltpFR	7	n/a	n/a	n/a	n/a	n/a	n/a	n/a	19	7	9	3	n/a	n/a	n/a	n/a	n/a
2231446	STOP	n/a	LTP289	ltpFR	7	n/a	n/a	n/a	n/a	n/a	n/a	n/a	n/a	n/a	n/a	n/a	n/a	n/a	n/a	n/a	n/a
2232439	WORD	wordpools/wasnorm_wordpool_less_exclusions.txt	LTP289	ltpFR	7	6	0	LIMB	822	n/a	n/a	1	n/a	0	0	0	0.422607421875	0.5869140625	0	lower	amplitud.ttf
2235456	START	n/a	LTP289	ltpFR	7	n/a	n/a	n/a	n/a	n/a	n/a	n/a	n/a	n/a	n/a	n/a	n/a	n/a	n/a	n/a	n/a
2236459	PROB	n/a	LTP289	ltpFR	7	n/a	n/a	n/a	n/a	n/a	n/a	n/a	18	3	6	9	n/a	n/a	n/a	n/a	n/a
2238427	PROB	n/a	LTP289	ltpFR	7	n/a	n/a	n/a	n/a	n/a	n/a	n/a	10	4	3	3	n/a	n/a	n/a	n/a	n/a
2240390	PROB	n/a	LTP289	ltpFR	7	n/a	n/a	n/a	n/a	n/a	n/a	n/a	18	5	7	6	n/a	n/a	n/a	n/a	n/a
2244339	PROB	n/a	LTP289	ltpFR	7	n/a	n/a	n/a	n/a	n/a	n/a	n/a	18	9	7	2	n/a	n/a	n/a	n/a	n/a
2247116	PROB	n/a	LTP289	ltpFR	7	n/a	n/a	n/a	n/a	n/a	n/a	n/a	16	7	4	5	n/a	n/a	n/a	n/a	n/a
2250353	STOP	n/a	LTP289	ltpFR	7	n/a	n/a	n/a	n/a	n/a	n/a	n/a	n/a	n/a	n/a	n/a	n/a	n/a	n/a	n/a	n/a
2252680	WORD	wordpools/wasnorm_wordpool_less_exclusions.txt	LTP289	ltpFR	7	6	0	TURKEY	1520	n/a	n/a	1	n/a	0	0	0	0.422607421875	0.5869140625	0	lower	amplitud.ttf
2255698	START	n/a	LTP289	ltpFR	7	n/a	n/a	n/a	n/a	n/a	n/a	n/a	n/a	n/a	n/a	n/a	n/a	n/a	n/a	n/a	n/a
2256550	PROB	n/a	LTP289	ltpFR	7	n/a	n/a	n/a	n/a	n/a	n/a	n/a	17	8	7	2	n/a	n/a	n/a	n/a	n/a
2258920	PROB	n/a	LTP289	ltpFR	7	n/a	n/a	n/a	n/a	n/a	n/a	n/a	8	1	3	5	n/a	n/a	n/a	n/a	n/a
2261264	PROB	n/a	LTP289	ltpFR	7	n/a	n/a	n/a	n/a	n/a	n/a	n/a	18	3	9	6	n/a	n/a	n/a	n/a	n/a
2265217	PROB	n/a	LTP289	ltpFR	7	n/a	n/a	n/a	n/a	n/a	n/a	n/a	19	9	4	6	n/a	n/a	n/a	n/a	n/a
2267370	PROB	n/a	LTP289	ltpFR	7	n/a	n/a	n/a	n/a	n/a	n/a	n/a	12	2	6	4	n/a	n/a	n/a	n/a	n/a
2270552	STOP	n/a	LTP289	ltpFR	7	n/a	n/a	n/a	n/a	n/a	n/a	n/a	n/a	n/a	n/a	n/a	n/a	n/a	n/a	n/a	n/a
2272873	WORD	wordpools/wasnorm_wordpool_less_exclusions.txt	LTP289	ltpFR	7	6	0	PLUM	1090	n/a	n/a	0	n/a	0	0	0	0.422607421875	0.5869140625	0	lower	amplitud.ttf
2275891	START	n/a	LTP289	ltpFR	7	n/a	n/a	n/a	n/a	n/a	n/a	n/a	n/a	n/a	n/a	n/a	n/a	n/a	n/a	n/a	n/a
2276994	PROB	n/a	LTP289	ltpFR	7	n/a	n/a	n/a	n/a	n/a	n/a	n/a	14	3	8	3	n/a	n/a	n/a	n/a	n/a
2279604	PROB	n/a	LTP289	ltpFR	7	n/a	n/a	n/a	n/a	n/a	n/a	n/a	11	2	3	6	n/a	n/a	n/a	n/a	n/a
2281807	PROB	n/a	LTP289	ltpFR	7	n/a	n/a	n/a	n/a	n/a	n/a	n/a	14	8	3	3	n/a	n/a	n/a	n/a	n/a
2283563	PROB	n/a	LTP289	ltpFR	7	n/a	n/a	n/a	n/a	n/a	n/a	n/a	15	2	8	5	n/a	n/a	n/a	n/a	n/a
2285170	PROB	n/a	LTP289	ltpFR	7	n/a	n/a	n/a	n/a	n/a	n/a	n/a	17	9	5	3	n/a	n/a	n/a	n/a	n/a
2288549	PROB	n/a	LTP289	ltpFR	7	n/a	n/a	n/a	n/a	n/a	n/a	n/a	8	2	3	3	n/a	n/a	n/a	n/a	n/a
2290711	STOP	n/a	LTP289	ltpFR	7	n/a	n/a	n/a	n/a	n/a	n/a	n/a	n/a	n/a	n/a	n/a	n/a	n/a	n/a	n/a	n/a
2292820	WORD	wordpools/wasnorm_wordpool_less_exclusions.txt	LTP289	ltpFR	7	6	0	SPINACH	1352	n/a	n/a	0	n/a	0	0	0	0.422607421875	0.5869140625	0	lower	amplitud.ttf
2295832	START	n/a	LTP289	ltpFR	7	n/a	n/a	n/a	n/a	n/a	n/a	n/a	n/a	n/a	n/a	n/a	n/a	n/a	n/a	n/a	n/a
2296969	PROB	n/a	LTP289	ltpFR	7	n/a	n/a	n/a	n/a	n/a	n/a	n/a	19	6	9	4	n/a	n/a	n/a	n/a	n/a
2299062	PROB	n/a	LTP289	ltpFR	7	n/a	n/a	n/a	n/a	n/a	n/a	n/a	17	6	5	6	n/a	n/a	n/a	n/a	n/a
2303594	PROB	n/a	LTP289	ltpFR	7	n/a	n/a	n/a	n/a	n/a	n/a	n/a	18	9	8	1	n/a	n/a	n/a	n/a	n/a
2305814	PROB	n/a	LTP289	ltpFR	7	n/a	n/a	n/a	n/a	n/a	n/a	n/a	17	5	6	6	n/a	n/a	n/a	n/a	n/a
2308073	PROB	n/a	LTP289	ltpFR	7	n/a	n/a	n/a	n/a	n/a	n/a	n/a	16	6	9	1	n/a	n/a	n/a	n/a	n/a
2311831	STOP	n/a	LTP289	ltpFR	7	n/a	n/a	n/a	n/a	n/a	n/a	n/a	n/a	n/a	n/a	n/a	n/a	n/a	n/a	n/a	n/a
2312812	WORD	wordpools/wasnorm_wordpool_less_exclusions.txt	LTP289	ltpFR	7	6	0	FINGER	567	n/a	n/a	0	n/a	0	0	0	0.422607421875	0.5869140625	0	lower	amplitud.ttf
2315824	START	n/a	LTP289	ltpFR	7	n/a	n/a	n/a	n/a	n/a	n/a	n/a	n/a	n/a	n/a	n/a	n/a	n/a	n/a	n/a	n/a
2316945	PROB	n/a	LTP289	ltpFR	7	n/a	n/a	n/a	n/a	n/a	n/a	n/a	15	5	4	6	n/a	n/a	n/a	n/a	n/a
2318896	PROB	n/a	LTP289	ltpFR	7	n/a	n/a	n/a	n/a	n/a	n/a	n/a	13	5	1	7	n/a	n/a	n/a	n/a	n/a
2321791	PROB	n/a	LTP289	ltpFR	7	n/a	n/a	n/a	n/a	n/a	n/a	n/a	26	7	8	7	n/a	n/a	n/a	n/a	n/a
2326642	PROB	n/a	LTP289	ltpFR	7	n/a	n/a	n/a	n/a	n/a	n/a	n/a	9	1	3	5	n/a	n/a	n/a	n/a	n/a
2331823	STOP	n/a	LTP289	ltpFR	7	n/a	n/a	n/a	n/a	n/a	n/a	n/a	n/a	n/a	n/a	n/a	n/a	n/a	n/a	n/a	n/a
2332838	WORD	wordpools/wasnorm_wordpool_less_exclusions.txt	LTP289	ltpFR	7	6	0	HOUSE	725	n/a	n/a	1	n/a	0	0	0	0.422607421875	0.5869140625	0	lower	amplitud.ttf
2335850	START	n/a	LTP289	ltpFR	7	n/a	n/a	n/a	n/a	n/a	n/a	n/a	n/a	n/a	n/a	n/a	n/a	n/a	n/a	n/a	n/a
2336948	PROB	n/a	LTP289	ltpFR	7	n/a	n/a	n/a	n/a	n/a	n/a	n/a	13	1	6	6	n/a	n/a	n/a	n/a	n/a
2338688	PROB	n/a	LTP289	ltpFR	7	n/a	n/a	n/a	n/a	n/a	n/a	n/a	14	1	5	8	n/a	n/a	n/a	n/a	n/a
2340851	PROB	n/a	LTP289	ltpFR	7	n/a	n/a	n/a	n/a	n/a	n/a	n/a	10	4	3	3	n/a	n/a	n/a	n/a	n/a
2343156	PROB	n/a	LTP289	ltpFR	7	n/a	n/a	n/a	n/a	n/a	n/a	n/a	17	3	8	6	n/a	n/a	n/a	n/a	n/a
2346083	PROB	n/a	LTP289	ltpFR	7	n/a	n/a	n/a	n/a	n/a	n/a	n/a	17	5	5	7	n/a	n/a	n/a	n/a	n/a
2347522	PROB	n/a	LTP289	ltpFR	7	n/a	n/a	n/a	n/a	n/a	n/a	n/a	17	4	5	8	n/a	n/a	n/a	n/a	n/a
2350655	STOP	n/a	LTP289	ltpFR	7	n/a	n/a	n/a	n/a	n/a	n/a	n/a	n/a	n/a	n/a	n/a	n/a	n/a	n/a	n/a	n/a
2352691	WORD	wordpools/wasnorm_wordpool_less_exclusions.txt	LTP289	ltpFR	7	6	0	SIDING	1304	n/a	n/a	1	n/a	0	0	0	0.422607421875	0.5869140625	0	lower	amplitud.ttf
2355708	START	n/a	LTP289	ltpFR	7	n/a	n/a	n/a	n/a	n/a	n/a	n/a	n/a	n/a	n/a	n/a	n/a	n/a	n/a	n/a	n/a
2356895	PROB	n/a	LTP289	ltpFR	7	n/a	n/a	n/a	n/a	n/a	n/a	n/a	8	1	2	5	n/a	n/a	n/a	n/a	n/a
2359049	PROB	n/a	LTP289	ltpFR	7	n/a	n/a	n/a	n/a	n/a	n/a	n/a	9	2	1	6	n/a	n/a	n/a	n/a	n/a
2361775	PROB	n/a	LTP289	ltpFR	7	n/a	n/a	n/a	n/a	n/a	n/a	n/a	16	3	2	6	n/a	n/a	n/a	n/a	n/a
2364736	PROB	n/a	LTP289	ltpFR	7	n/a	n/a	n/a	n/a	n/a	n/a	n/a	15	8	4	3	n/a	n/a	n/a	n/a	n/a
2369220	PROB	n/a	LTP289	ltpFR	7	n/a	n/a	n/a	n/a	n/a	n/a	n/a	18	5	8	5	n/a	n/a	n/a	n/a	n/a
2371520	STOP	n/a	LTP289	ltpFR	7	n/a	n/a	n/a	n/a	n/a	n/a	n/a	n/a	n/a	n/a	n/a	n/a	n/a	n/a	n/a	n/a
2372538	WORD	wordpools/wasnorm_wordpool_less_exclusions.txt	LTP289	ltpFR	7	6	0	CITRUS	313	n/a	n/a	0	n/a	0	0	0	0.422607421875	0.5869140625	0	lower	amplitud.ttf
2375550	START	n/a	LTP289	ltpFR	7	n/a	n/a	n/a	n/a	n/a	n/a	n/a	n/a	n/a	n/a	n/a	n/a	n/a	n/a	n/a	n/a
2376670	PROB	n/a	LTP289	ltpFR	7	n/a	n/a	n/a	n/a	n/a	n/a	n/a	12	2	5	5	n/a	n/a	n/a	n/a	n/a
2378928	PROB	n/a	LTP289	ltpFR	7	n/a	n/a	n/a	n/a	n/a	n/a	n/a	16	9	3	4	n/a	n/a	n/a	n/a	n/a
2381087	PROB	n/a	LTP289	ltpFR	7	n/a	n/a	n/a	n/a	n/a	n/a	n/a	17	5	3	9	n/a	n/a	n/a	n/a	n/a
2383891	PROB	n/a	LTP289	ltpFR	7	n/a	n/a	n/a	n/a	n/a	n/a	n/a	12	3	1	8	n/a	n/a	n/a	n/a	n/a
2387473	PROB	n/a	LTP289	ltpFR	7	n/a	n/a	n/a	n/a	n/a	n/a	n/a	5	1	1	3	n/a	n/a	n/a	n/a	n/a
2391550	STOP	n/a	LTP289	ltpFR	7	n/a	n/a	n/a	n/a	n/a	n/a	n/a	n/a	n/a	n/a	n/a	n/a	n/a	n/a	n/a	n/a
2392508	WORD	wordpools/wasnorm_wordpool_less_exclusions.txt	LTP289	ltpFR	7	6	0	FIREPLACE	570	n/a	n/a	0	n/a	0	0	0	0.422607421875	0.5869140625	0	lower	amplitud.ttf
2395526	START	n/a	LTP289	ltpFR	7	n/a	n/a	n/a	n/a	n/a	n/a	n/a	n/a	n/a	n/a	n/a	n/a	n/a	n/a	n/a	n/a
2396345	PROB	n/a	LTP289	ltpFR	7	n/a	n/a	n/a	n/a	n/a	n/a	n/a	17	3	6	8	n/a	n/a	n/a	n/a	n/a
2399840	PROB	n/a	LTP289	ltpFR	7	n/a	n/a	n/a	n/a	n/a	n/a	n/a	14	4	1	9	n/a	n/a	n/a	n/a	n/a
2401932	PROB	n/a	LTP289	ltpFR	7	n/a	n/a	n/a	n/a	n/a	n/a	n/a	14	3	8	3	n/a	n/a	n/a	n/a	n/a
2404085	PROB	n/a	LTP289	ltpFR	7	n/a	n/a	n/a	n/a	n/a	n/a	n/a	19	5	8	6	n/a	n/a	n/a	n/a	n/a
2406699	PROB	n/a	LTP289	ltpFR	7	n/a	n/a	n/a	n/a	n/a	n/a	n/a	16	9	2	5	n/a	n/a	n/a	n/a	n/a
2411526	STOP	n/a	LTP289	ltpFR	7	n/a	n/a	n/a	n/a	n/a	n/a	n/a	n/a	n/a	n/a	n/a	n/a	n/a	n/a	n/a	n/a
2412639	WORD	wordpools/wasnorm_wordpool_less_exclusions.txt	LTP289	ltpFR	7	6	0	SHELTER	1282	n/a	n/a	1	n/a	0	0	0	0.422607421875	0.5869140625	0	lower	amplitud.ttf
2415651	START	n/a	LTP289	ltpFR	7	n/a	n/a	n/a	n/a	n/a	n/a	n/a	n/a	n/a	n/a	n/a	n/a	n/a	n/a	n/a	n/a
2416570	PROB	n/a	LTP289	ltpFR	7	n/a	n/a	n/a	n/a	n/a	n/a	n/a	13	4	6	3	n/a	n/a	n/a	n/a	n/a
2418506	PROB	n/a	LTP289	ltpFR	7	n/a	n/a	n/a	n/a	n/a	n/a	n/a	19	6	8	5	n/a	n/a	n/a	n/a	n/a
2423658	PROB	n/a	LTP289	ltpFR	7	n/a	n/a	n/a	n/a	n/a	n/a	n/a	12	4	3	5	n/a	n/a	n/a	n/a	n/a
2431651	STOP	n/a	LTP289	ltpFR	7	n/a	n/a	n/a	n/a	n/a	n/a	n/a	n/a	n/a	n/a	n/a	n/a	n/a	n/a	n/a	n/a
2432714	WORD	wordpools/wasnorm_wordpool_less_exclusions.txt	LTP289	ltpFR	7	6	0	OVAL	990	n/a	n/a	1	n/a	0	0	0	0.422607421875	0.5869140625	0	lower	amplitud.ttf
2435726	START	n/a	LTP289	ltpFR	7	n/a	n/a	n/a	n/a	n/a	n/a	n/a	n/a	n/a	n/a	n/a	n/a	n/a	n/a	n/a	n/a
2436724	PROB	n/a	LTP289	ltpFR	7	n/a	n/a	n/a	n/a	n/a	n/a	n/a	21	5	9	7	n/a	n/a	n/a	n/a	n/a
2440087	PROB	n/a	LTP289	ltpFR	7	n/a	n/a	n/a	n/a	n/a	n/a	n/a	15	5	4	6	n/a	n/a	n/a	n/a	n/a
2441715	PROB	n/a	LTP289	ltpFR	7	n/a	n/a	n/a	n/a	n/a	n/a	n/a	10	6	1	3	n/a	n/a	n/a	n/a	n/a
2445741	PROB	n/a	LTP289	ltpFR	7	n/a	n/a	n/a	n/a	n/a	n/a	n/a	12	8	2	2	n/a	n/a	n/a	n/a	n/a
2447454	PROB	n/a	LTP289	ltpFR	7	n/a	n/a	n/a	n/a	n/a	n/a	n/a	15	2	5	8	n/a	n/a	n/a	n/a	n/a
2450337	STOP	n/a	LTP289	ltpFR	7	n/a	n/a	n/a	n/a	n/a	n/a	n/a	n/a	n/a	n/a	n/a	n/a	n/a	n/a	n/a	n/a
2452723	WORD	wordpools/wasnorm_wordpool_less_exclusions.txt	LTP289	ltpFR	7	6	0	TWIG	1527	n/a	n/a	0	n/a	0	0	0	0.422607421875	0.5869140625	0	lower	amplitud.ttf
2455735	START	n/a	LTP289	ltpFR	7	n/a	n/a	n/a	n/a	n/a	n/a	n/a	n/a	n/a	n/a	n/a	n/a	n/a	n/a	n/a	n/a
2456616	PROB	n/a	LTP289	ltpFR	7	n/a	n/a	n/a	n/a	n/a	n/a	n/a	11	4	6	1	n/a	n/a	n/a	n/a	n/a
2457943	PROB	n/a	LTP289	ltpFR	7	n/a	n/a	n/a	n/a	n/a	n/a	n/a	24	7	8	9	n/a	n/a	n/a	n/a	n/a
2464083	PROB	n/a	LTP289	ltpFR	7	n/a	n/a	n/a	n/a	n/a	n/a	n/a	20	4	9	7	n/a	n/a	n/a	n/a	n/a
2467691	PROB	n/a	LTP289	ltpFR	7	n/a	n/a	n/a	n/a	n/a	n/a	n/a	25	8	8	7	n/a	n/a	n/a	n/a	n/a
2470599	STOP	n/a	LTP289	ltpFR	7	n/a	n/a	n/a	n/a	n/a	n/a	n/a	n/a	n/a	n/a	n/a	n/a	n/a	n/a	n/a	n/a
2472832	WORD	wordpools/wasnorm_wordpool_less_exclusions.txt	LTP289	ltpFR	7	6	0	GLOVE	642	n/a	n/a	0	n/a	0	0	0	0.422607421875	0.5869140625	0	lower	amplitud.ttf
2475844	START	n/a	LTP289	ltpFR	7	n/a	n/a	n/a	n/a	n/a	n/a	n/a	n/a	n/a	n/a	n/a	n/a	n/a	n/a	n/a	n/a
2476797	PROB	n/a	LTP289	ltpFR	7	n/a	n/a	n/a	n/a	n/a	n/a	n/a	15	9	4	2	n/a	n/a	n/a	n/a	n/a
2479374	PROB	n/a	LTP289	ltpFR	7	n/a	n/a	n/a	n/a	n/a	n/a	n/a	20	9	6	5	n/a	n/a	n/a	n/a	n/a
2481799	PROB	n/a	LTP289	ltpFR	7	n/a	n/a	n/a	n/a	n/a	n/a	n/a	24	9	6	9	n/a	n/a	n/a	n/a	n/a
2484455	PROB	n/a	LTP289	ltpFR	7	n/a	n/a	n/a	n/a	n/a	n/a	n/a	16	1	7	8	n/a	n/a	n/a	n/a	n/a
2486550	PROB	n/a	LTP289	ltpFR	7	n/a	n/a	n/a	n/a	n/a	n/a	n/a	10	2	5	3	n/a	n/a	n/a	n/a	n/a
2489122	PROB	n/a	LTP289	ltpFR	7	n/a	n/a	n/a	n/a	n/a	n/a	n/a	13	6	4	3	n/a	n/a	n/a	n/a	n/a
2490568	STOP	n/a	LTP289	ltpFR	7	n/a	n/a	n/a	n/a	n/a	n/a	n/a	n/a	n/a	n/a	n/a	n/a	n/a	n/a	n/a	n/a
2492958	WORD	wordpools/wasnorm_wordpool_less_exclusions.txt	LTP289	ltpFR	7	6	0	RADISH	1158	n/a	n/a	0	n/a	0	0	0	0.422607421875	0.5869140625	0	lower	amplitud.ttf
2495970	START	n/a	LTP289	ltpFR	7	n/a	n/a	n/a	n/a	n/a	n/a	n/a	n/a	n/a	n/a	n/a	n/a	n/a	n/a	n/a	n/a
2496873	PROB	n/a	LTP289	ltpFR	7	n/a	n/a	n/a	n/a	n/a	n/a	n/a	15	2	5	8	n/a	n/a	n/a	n/a	n/a
2498942	PROB	n/a	LTP289	ltpFR	7	n/a	n/a	n/a	n/a	n/a	n/a	n/a	16	9	2	5	n/a	n/a	n/a	n/a	n/a
2500838	PROB	n/a	LTP289	ltpFR	7	n/a	n/a	n/a	n/a	n/a	n/a	n/a	14	5	4	5	n/a	n/a	n/a	n/a	n/a
2503264	PROB	n/a	LTP289	ltpFR	7	n/a	n/a	n/a	n/a	n/a	n/a	n/a	18	7	7	4	n/a	n/a	n/a	n/a	n/a
2505974	PROB	n/a	LTP289	ltpFR	7	n/a	n/a	n/a	n/a	n/a	n/a	n/a	9	1	7	1	n/a	n/a	n/a	n/a	n/a
2507608	PROB	n/a	LTP289	ltpFR	7	n/a	n/a	n/a	n/a	n/a	n/a	n/a	20	8	6	6	n/a	n/a	n/a	n/a	n/a
2511970	STOP	n/a	LTP289	ltpFR	7	n/a	n/a	n/a	n/a	n/a	n/a	n/a	n/a	n/a	n/a	n/a	n/a	n/a	n/a	n/a	n/a
2513799	REC_START	n/a	LTP289	ltpFR	7	6	n/a	n/a	n/a	n/a	n/a	n/a	n/a	0	0	0	n/a	n/a	n/a	n/a	n/a
2515795	REC_WORD	wordpools/wasnorm_wordpool_less_exclusions.txt	LTP289	ltpFR	7	6	0	RADISH	1158	n/a	n/a	0	n/a	0	0	0	n/a	n/a	n/a	n/a	n/a
2516717	REC_WORD	wordpools/wasnorm_wordpool_less_exclusions.txt	LTP289	ltpFR	7	6	0	TWIG	1527	n/a	n/a	0	n/a	0	0	0	n/a	n/a	n/a	n/a	n/a
2517864	REC_WORD	wordpools/wasnorm_wordpool_less_exclusions.txt	LTP289	ltpFR	7	6	0	LIMB	822	n/a	n/a	1	n/a	0	0	0	n/a	n/a	n/a	n/a	n/a
2518847	REC_WORD	wordpools/wasnorm_wordpool_less_exclusions.txt	LTP289	ltpFR	7	6	0	FIREPLACE	570	n/a	n/a	0	n/a	0	0	0	n/a	n/a	n/a	n/a	n/a
2519854	REC_WORD_VV	wordpools/wasnorm_wordpool_less_exclusions.txt	LTP289	ltpFR	7	6	n/a	<>	-1	n/a	n/a	n/a	n/a	0	0	0	n/a	n/a	n/a	n/a	n/a
2522210	REC_WORD	wordpools/wasnorm_wordpool_less_exclusions.txt	LTP289	ltpFR	7	6	0	PLAID	1080	n/a	n/a	0	n/a	0	0	0	n/a	n/a	n/a	n/a	n/a
2535801	REC_WORD	wordpools/wasnorm_wordpool_less_exclusions.txt	LTP289	ltpFR	7	6	0	SPINACH	1352	n/a	n/a	0	n/a	0	0	0	n/a	n/a	n/a	n/a	n/a
2536975	REC_WORD	wordpools/wasnorm_wordpool_less_exclusions.txt	LTP289	ltpFR	7	6	0	TURKEY	1520	n/a	n/a	1	n/a	0	0	0	n/a	n/a	n/a	n/a	n/a
2557099	REC_WORD	wordpools/wasnorm_wordpool_less_exclusions.txt	LTP289	ltpFR	7	6	0	SIDING	1304	n/a	n/a	1	n/a	0	0	0	n/a	n/a	n/a	n/a	n/a
2558312	REC_WORD	wordpools/wasnorm_wordpool_less_exclusions.txt	LTP289	ltpFR	7	6	0	SHELTER	1282	n/a	n/a	1	n/a	0	0	0	n/a	n/a	n/a	n/a	n/a
2559536	REC_WORD	wordpools/wasnorm_wordpool_less_exclusions.txt	LTP289	ltpFR	7	6	0	HOUSE	725	n/a	n/a	1	n/a	0	0	0	n/a	n/a	n/a	n/a	n/a
2589456	REST_REWET	n/a	LTP289	ltpFR	7	6	n/a	n/a	n/a	n/a	n/a	n/a	n/a	0	0	0	n/a	n/a	n/a	n/a	n/a
2972182	WORD	wordpools/wasnorm_wordpool_less_exclusions.txt	LTP289	ltpFR	7	7	1	REGISTER	1180	n/a	n/a	0	n/a	0	0	0	0.57763671875	0.412841796875	1	upper	zerothre.ttf
2976359	WORD	wordpools/wasnorm_wordpool_less_exclusions.txt	LTP289	ltpFR	7	7	1	VAULT	1550	n/a	n/a	0	n/a	0	0	0	0.57763671875	0.412841796875	1	upper	zerothre.ttf
2980463	WORD	wordpools/wasnorm_wordpool_less_exclusions.txt	LTP289	ltpFR	7	7	1	FLOWER	584	n/a	n/a	1	n/a	0	0	0	0.57763671875	0.412841796875	1	upper	zerothre.ttf
2984311	WORD	wordpools/wasnorm_wordpool_less_exclusions.txt	LTP289	ltpFR	7	7	1	PUMPKIN	1142	n/a	n/a	1	n/a	0	0	0	0.57763671875	0.412841796875	1	upper	zerothre.ttf
2988504	WORD	wordpools/wasnorm_wordpool_less_exclusions.txt	LTP289	ltpFR	7	7	1	RASH	1167	n/a	n/a	0	n/a	0	0	0	0.57763671875	0.412841796875	1	upper	zerothre.ttf
2992719	WORD	wordpools/wasnorm_wordpool_less_exclusions.txt	LTP289	ltpFR	7	7	1	TULIP	1517	n/a	n/a	1	n/a	0	0	0	0.57763671875	0.412841796875	1	upper	zerothre.ttf
2996673	WORD	wordpools/wasnorm_wordpool_less_exclusions.txt	LTP289	ltpFR	7	7	1	DETERGENT	455	n/a	n/a	0	n/a	0	0	0	0.57763671875	0.412841796875	1	upper	zerothre.ttf
3000588	WORD	wordpools/wasnorm_wordpool_less_exclusions.txt	LTP289	ltpFR	7	7	1	TROPHY	1509	n/a	n/a	0	n/a	0	0	0	0.57763671875	0.412841796875	1	upper	zerothre.ttf
3004586	WORD	wordpools/wasnorm_wordpool_less_exclusions.txt	LTP289	ltpFR	7	7	1	ANTENNA	28	n/a	n/a	0	n/a	0	0	0	0.57763671875	0.412841796875	1	upper	zerothre.ttf
3008802	WORD	wordpools/wasnorm_wordpool_less_exclusions.txt	LTP289	ltpFR	7	7	1	SANDPAPER	1231	n/a	n/a	0	n/a	0	0	0	0.57763671875	0.412841796875	1	upper	zerothre.ttf
3013012	WORD	wordpools/wasnorm_wordpool_less_exclusions.txt	LTP289	ltpFR	7	7	1	VINE	1568	n/a	n/a	0	n/a	0	0	0	0.57763671875	0.412841796875	1	upper	zerothre.ttf
3017151	WORD	wordpools/wasnorm_wordpool_less_exclusions.txt	LTP289	ltpFR	7	7	1	BEETLE	116	n/a	n/a	1	n/a	0	0	0	0.57763671875	0.412841796875	1	upper	zerothre.ttf
3021094	WORD	wordpools/wasnorm_wordpool_less_exclusions.txt	LTP289	ltpFR	7	7	1	CATERPILLAR	259	n/a	n/a	1	n/a	0	0	0	0.57763671875	0.412841796875	1	upper	zerothre.ttf
3024941	WORD	wordpools/wasnorm_wordpool_less_exclusions.txt	LTP289	ltpFR	7	7	1	MARKET	871	n/a	n/a	0	n/a	0	0	0	0.57763671875	0.412841796875	1	upper	zerothre.ttf
3028811	WORD	wordpools/wasnorm_wordpool_less_exclusions.txt	LTP289	ltpFR	7	7	1	SCALLOP	1242	n/a	n/a	1	n/a	0	0	0	0.57763671875	0.412841796875	1	upper	zerothre.ttf
3032993	WORD	wordpools/wasnorm_wordpool_less_exclusions.txt	LTP289	ltpFR	7	7	1	EXPERT	543	n/a	n/a	1	n/a	0	0	0	0.57763671875	0.412841796875	1	upper	zerothre.ttf
3036005	START	n/a	LTP289	ltpFR	7	n/a	n/a	n/a	n/a	n/a	n/a	n/a	n/a	n/a	n/a	n/a	n/a	n/a	n/a	n/a	n/a
3036875	PROB	n/a	LTP289	ltpFR	7	n/a	n/a	n/a	n/a	n/a	n/a	n/a	10	3	2	5	n/a	n/a	n/a	n/a	n/a
3038782	PROB	n/a	LTP289	ltpFR	7	n/a	n/a	n/a	n/a	n/a	n/a	n/a	9	3	1	5	n/a	n/a	n/a	n/a	n/a
3040583	PROB	n/a	LTP289	ltpFR	7	n/a	n/a	n/a	n/a	n/a	n/a	n/a	11	2	1	8	n/a	n/a	n/a	n/a	n/a
3044005	STOP	n/a	LTP289	ltpFR	7	n/a	n/a	n/a	n/a	n/a	n/a	n/a	n/a	n/a	n/a	n/a	n/a	n/a	n/a	n/a	n/a
3045854	REC_START	n/a	LTP289	ltpFR	7	7	n/a	n/a	n/a	n/a	n/a	n/a	n/a	0	0	0	n/a	n/a	n/a	n/a	n/a
3047225	REC_WORD	wordpools/wasnorm_wordpool_less_exclusions.txt	LTP289	ltpFR	7	7	1	TULIP	1517	n/a	n/a	1	n/a	0	0	0	n/a	n/a	n/a	n/a	n/a
3048132	REC_WORD	wordpools/wasnorm_wordpool_less_exclusions.txt	LTP289	ltpFR	7	7	1	FLOWER	584	n/a	n/a	1	n/a	0	0	0	n/a	n/a	n/a	n/a	n/a
3049600	REC_WORD	wordpools/wasnorm_wordpool_less_exclusions.txt	LTP289	ltpFR	7	7	1	SANDPAPER	1231	n/a	n/a	0	n/a	0	0	0	n/a	n/a	n/a	n/a	n/a
3051092	REC_WORD	wordpools/wasnorm_wordpool_less_exclusions.txt	LTP289	ltpFR	7	7	1	SCALLOP	1242	n/a	n/a	1	n/a	0	0	0	n/a	n/a	n/a	n/a	n/a
3053072	REC_WORD	wordpools/wasnorm_wordpool_less_exclusions.txt	LTP289	ltpFR	7	7	1	VINE	1568	n/a	n/a	0	n/a	0	0	0	n/a	n/a	n/a	n/a	n/a
3058560	REC_WORD	wordpools/wasnorm_wordpool_less_exclusions.txt	LTP289	ltpFR	7	7	1	DETERGENT	455	n/a	n/a	0	n/a	0	0	0	n/a	n/a	n/a	n/a	n/a
3061152	REC_WORD	wordpools/wasnorm_wordpool_less_exclusions.txt	LTP289	ltpFR	7	7	1	VAULT	1550	n/a	n/a	0	n/a	0	0	0	n/a	n/a	n/a	n/a	n/a
3063367	REC_WORD	wordpools/wasnorm_wordpool_less_exclusions.txt	LTP289	ltpFR	7	7	1	REGISTER	1180	n/a	n/a	0	n/a	0	0	0	n/a	n/a	n/a	n/a	n/a
3072203	REC_WORD	wordpools/wasnorm_wordpool_less_exclusions.txt	LTP289	ltpFR	7	7	1	PUMPKIN	1142	n/a	n/a	1	n/a	0	0	0	n/a	n/a	n/a	n/a	n/a
3075399	REC_WORD	wordpools/wasnorm_wordpool_less_exclusions.txt	LTP289	ltpFR	7	7	1	RASH	1167	n/a	n/a	0	n/a	0	0	0	n/a	n/a	n/a	n/a	n/a
3083248	REC_WORD	wordpools/wasnorm_wordpool_less_exclusions.txt	LTP289	ltpFR	7	7	1	CATERPILLAR	259	n/a	n/a	1	n/a	0	0	0	n/a	n/a	n/a	n/a	n/a
3093479	REC_WORD	wordpools/wasnorm_wordpool_less_exclusions.txt	LTP289	ltpFR	7	7	1	FLOWER	584	n/a	n/a	1	n/a	0	0	0	n/a	n/a	n/a	n/a	n/a
3163269	WORD	wordpools/wasnorm_wordpool_less_exclusions.txt	LTP289	ltpFR	7	8	0	ROOT	1210	n/a	n/a	0	n/a	0	0	0	0.422607421875	0.5869140625	0	lower	amplitud.ttf
3167429	WORD	wordpools/wasnorm_wordpool_less_exclusions.txt	LTP289	ltpFR	7	8	0	MARINE	869	n/a	n/a	1	n/a	0	0	0	0.422607421875	0.5869140625	0	lower	amplitud.ttf
3171616	WORD	wordpools/wasnorm_wordpool_less_exclusions.txt	LTP289	ltpFR	7	8	0	CACTUS	215	n/a	n/a	1	n/a	0	0	0	0.422607421875	0.5869140625	0	lower	amplitud.ttf
3175815	WORD	wordpools/wasnorm_wordpool_less_exclusions.txt	LTP289	ltpFR	7	8	0	DAISY	435	n/a	n/a	0	n/a	0	0	0	0.422607421875	0.5869140625	0	lower	amplitud.ttf
3179847	WORD	wordpools/wasnorm_wordpool_less_exclusions.txt	LTP289	ltpFR	7	8	0	ICING	732	n/a	n/a	0	n/a	0	0	0	0.422607421875	0.5869140625	0	lower	amplitud.ttf
3183895	WORD	wordpools/wasnorm_wordpool_less_exclusions.txt	LTP289	ltpFR	7	8	0	SHEPHERD	1283	n/a	n/a	1	n/a	0	0	0	0.422607421875	0.5869140625	0	lower	amplitud.ttf
3188073	WORD	wordpools/wasnorm_wordpool_less_exclusions.txt	LTP289	ltpFR	7	8	0	SENATOR	1268	n/a	n/a	1	n/a	0	0	0	0.422607421875	0.5869140625	0	lower	amplitud.ttf
3192043	WORD	wordpools/wasnorm_wordpool_less_exclusions.txt	LTP289	ltpFR	7	8	0	NICKEL	950	n/a	n/a	0	n/a	0	0	0	0.422607421875	0.5869140625	0	lower	amplitud.ttf
3196204	WORD	wordpools/wasnorm_wordpool_less_exclusions.txt	LTP289	ltpFR	7	8	0	BRANCH	168	n/a	n/a	1	n/a	0	0	0	0.422607421875	0.5869140625	0	lower	amplitud.ttf
3200392	WORD	wordpools/wasnorm_wordpool_less_exclusions.txt	LTP289	ltpFR	7	8	0	SHORTCAKE	1292	n/a	n/a	0	n/a	0	0	0	0.422607421875	0.5869140625	0	lower	amplitud.ttf
3204440	WORD	wordpools/wasnorm_wordpool_less_exclusions.txt	LTP289	ltpFR	7	8	0	NEPHEW	942	n/a	n/a	1	n/a	0	0	0	0.422607421875	0.5869140625	0	lower	amplitud.ttf
3208522	WORD	wordpools/wasnorm_wordpool_less_exclusions.txt	LTP289	ltpFR	7	8	0	THERMOMETER	1453	n/a	n/a	0	n/a	0	0	0	0.422607421875	0.5869140625	0	lower	amplitud.ttf
3212553	WORD	wordpools/wasnorm_wordpool_less_exclusions.txt	LTP289	ltpFR	7	8	0	HEATER	698	n/a	n/a	1	n/a	0	0	0	0.422607421875	0.5869140625	0	lower	amplitud.ttf
3216486	WORD	wordpools/wasnorm_wordpool_less_exclusions.txt	LTP289	ltpFR	7	8	0	TRAY	1498	n/a	n/a	0	n/a	0	0	0	0.422607421875	0.5869140625	0	lower	amplitud.ttf
3220662	WORD	wordpools/wasnorm_wordpool_less_exclusions.txt	LTP289	ltpFR	7	8	0	STRAWBERRY	1391	n/a	n/a	0	n/a	0	0	0	0.422607421875	0.5869140625	0	lower	amplitud.ttf
3224850	WORD	wordpools/wasnorm_wordpool_less_exclusions.txt	LTP289	ltpFR	7	8	0	TOWER	1490	n/a	n/a	1	n/a	0	0	0	0.422607421875	0.5869140625	0	lower	amplitud.ttf
3227861	START	n/a	LTP289	ltpFR	7	n/a	n/a	n/a	n/a	n/a	n/a	n/a	n/a	n/a	n/a	n/a	n/a	n/a	n/a	n/a	n/a
3229015	PROB	n/a	LTP289	ltpFR	7	n/a	n/a	n/a	n/a	n/a	n/a	n/a	11	2	8	1	n/a	n/a	n/a	n/a	n/a
3231069	PROB	n/a	LTP289	ltpFR	7	n/a	n/a	n/a	n/a	n/a	n/a	n/a	15	7	2	6	n/a	n/a	n/a	n/a	n/a
3232763	PROB	n/a	LTP289	ltpFR	7	n/a	n/a	n/a	n/a	n/a	n/a	n/a	21	7	9	5	n/a	n/a	n/a	n/a	n/a
3234999	PROB	n/a	LTP289	ltpFR	7	n/a	n/a	n/a	n/a	n/a	n/a	n/a	13	4	3	8	n/a	n/a	n/a	n/a	n/a
3237242	PROB	n/a	LTP289	ltpFR	7	n/a	n/a	n/a	n/a	n/a	n/a	n/a	20	7	5	8	n/a	n/a	n/a	n/a	n/a
3243860	STOP	n/a	LTP289	ltpFR	7	n/a	n/a	n/a	n/a	n/a	n/a	n/a	n/a	n/a	n/a	n/a	n/a	n/a	n/a	n/a	n/a
3245746	REC_START	n/a	LTP289	ltpFR	7	8	n/a	n/a	n/a	n/a	n/a	n/a	n/a	0	0	0	n/a	n/a	n/a	n/a	n/a
3246512	REC_WORD	wordpools/wasnorm_wordpool_less_exclusions.txt	LTP289	ltpFR	7	8	0	THERMOMETER	1453	n/a	n/a	0	n/a	0	0	0	n/a	n/a	n/a	n/a	n/a
3247872	REC_WORD	wordpools/wasnorm_wordpool_less_exclusions.txt	LTP289	ltpFR	7	8	0	HEATER	698	n/a	n/a	1	n/a	0	0	0	n/a	n/a	n/a	n/a	n/a
3249122	REC_WORD	wordpools/wasnorm_wordpool_less_exclusions.txt	LTP289	ltpFR	7	8	0	TRAY	1498	n/a	n/a	0	n/a	0	0	0	n/a	n/a	n/a	n/a	n/a
3250458	REC_WORD	wordpools/wasnorm_wordpool_less_exclusions.txt	LTP289	ltpFR	7	8	0	NICKEL	950	n/a	n/a	0	n/a	0	0	0	n/a	n/a	n/a	n/a	n/a
3252348	REC_WORD	wordpools/wasnorm_wordpool_less_exclusions.txt	LTP289	ltpFR	7	8	0	SENATOR	1268	n/a	n/a	1	n/a	0	0	0	n/a	n/a	n/a	n/a	n/a
3253701	REC_WORD	wordpools/wasnorm_wordpool_less_exclusions.txt	LTP289	ltpFR	7	8	0	MARINE	869	n/a	n/a	1	n/a	0	0	0	n/a	n/a	n/a	n/a	n/a
3257438	REC_WORD	wordpools/wasnorm_wordpool_less_exclusions.txt	LTP289	ltpFR	7	8	0	DAISY	435	n/a	n/a	0	n/a	0	0	0	n/a	n/a	n/a	n/a	n/a
3262959	REC_WORD	wordpools/wasnorm_wordpool_less_exclusions.txt	LTP289	ltpFR	7	8	0	TOWER	1490	n/a	n/a	1	n/a	0	0	0	n/a	n/a	n/a	n/a	n/a
3314353	REC_WORD	wordpools/wasnorm_wordpool_less_exclusions.txt	LTP289	ltpFR	7	8	0	CACTUS	215	n/a	n/a	1	n/a	0	0	0	n/a	n/a	n/a	n/a	n/a
3349871	WORD	wordpools/wasnorm_wordpool_less_exclusions.txt	LTP289	ltpFR	7	9	1	DONKEY	484	n/a	n/a	1	n/a	0	0	0	0.57763671875	0.412841796875	1	upper	zerothre.ttf
3353719	WORD	wordpools/wasnorm_wordpool_less_exclusions.txt	LTP289	ltpFR	7	9	1	ESSAY	540	n/a	n/a	0	n/a	0	0	0	0.57763671875	0.412841796875	1	upper	zerothre.ttf
3357868	WORD	wordpools/wasnorm_wordpool_less_exclusions.txt	LTP289	ltpFR	7	9	1	FLUTE	585	n/a	n/a	0	n/a	0	0	0	0.57763671875	0.412841796875	1	upper	zerothre.ttf
3361827	WORD	wordpools/wasnorm_wordpool_less_exclusions.txt	LTP289	ltpFR	7	9	1	MECHANIC	884	n/a	n/a	1	n/a	0	0	0	0.57763671875	0.412841796875	1	upper	zerothre.ttf
3365959	WORD	wordpools/wasnorm_wordpool_less_exclusions.txt	LTP289	ltpFR	7	9	1	OX	994	n/a	n/a	1	n/a	0	0	0	0.57763671875	0.412841796875	1	upper	zerothre.ttf
3369974	WORD	wordpools/wasnorm_wordpool_less_exclusions.txt	LTP289	ltpFR	7	9	1	JUNGLE	764	n/a	n/a	0	n/a	0	0	0	0.57763671875	0.412841796875	1	upper	zerothre.ttf
3373878	WORD	wordpools/wasnorm_wordpool_less_exclusions.txt	LTP289	ltpFR	7	9	1	CHIMPANZEE	302	n/a	n/a	1	n/a	0	0	0	0.57763671875	0.412841796875	1	upper	zerothre.ttf
3377709	WORD	wordpools/wasnorm_wordpool_less_exclusions.txt	LTP289	ltpFR	7	9	1	PAPER	1011	n/a	n/a	0	n/a	0	0	0	0.57763671875	0.412841796875	1	upper	zerothre.ttf
3381657	WORD	wordpools/wasnorm_wordpool_less_exclusions.txt	LTP289	ltpFR	7	9	1	BUREAU	199	n/a	n/a	0	n/a	0	0	0	0.57763671875	0.412841796875	1	upper	zerothre.ttf
3385773	WORD	wordpools/wasnorm_wordpool_less_exclusions.txt	LTP289	ltpFR	7	9	1	WARDROBE	1587	n/a	n/a	0	n/a	0	0	0	0.57763671875	0.412841796875	1	upper	zerothre.ttf
3389883	WORD	wordpools/wasnorm_wordpool_less_exclusions.txt	LTP289	ltpFR	7	9	1	DIRECTOR	471	n/a	n/a	1	n/a	0	0	0	0.57763671875	0.412841796875	1	upper	zerothre.ttf
3393937	WORD	wordpools/wasnorm_wordpool_less_exclusions.txt	LTP289	ltpFR	7	9	1	BAND	78	n/a	n/a	1	n/a	0	0	0	0.57763671875	0.412841796875	1	upper	zerothre.ttf
3398137	WORD	wordpools/wasnorm_wordpool_less_exclusions.txt	LTP289	ltpFR	7	9	1	NAPKIN	937	n/a	n/a	0	n/a	0	0	0	0.57763671875	0.412841796875	1	upper	zerothre.ttf
3402269	WORD	wordpools/wasnorm_wordpool_less_exclusions.txt	LTP289	ltpFR	7	9	1	TROMBONE	1508	n/a	n/a	0	n/a	0	0	0	0.57763671875	0.412841796875	1	upper	zerothre.ttf
3406418	WORD	wordpools/wasnorm_wordpool_less_exclusions.txt	LTP289	ltpFR	7	9	1	PLATE	1086	n/a	n/a	0	n/a	0	0	0	0.57763671875	0.412841796875	1	upper	zerothre.ttf
3410500	WORD	wordpools/wasnorm_wordpool_less_exclusions.txt	LTP289	ltpFR	7	9	1	SUGAR	1401	n/a	n/a	0	n/a	0	0	0	0.57763671875	0.412841796875	1	upper	zerothre.ttf
3416407	REC_START	n/a	LTP289	ltpFR	7	9	n/a	n/a	n/a	n/a	n/a	n/a	n/a	0	0	0	n/a	n/a	n/a	n/a	n/a
3417170	REC_WORD	wordpools/wasnorm_wordpool_less_exclusions.txt	LTP289	ltpFR	7	9	1	TROMBONE	1508	n/a	n/a	0	n/a	0	0	0	n/a	n/a	n/a	n/a	n/a
3418528	REC_WORD	wordpools/wasnorm_wordpool_less_exclusions.txt	LTP289	ltpFR	7	9	1	PLATE	1086	n/a	n/a	0	n/a	0	0	0	n/a	n/a	n/a	n/a	n/a
3419663	REC_WORD	wordpools/wasnorm_wordpool_less_exclusions.txt	LTP289	ltpFR	7	9	1	SUGAR	1401	n/a	n/a	0	n/a	0	0	0	n/a	n/a	n/a	n/a	n/a
3422409	REC_WORD	wordpools/wasnorm_wordpool_less_exclusions.txt	LTP289	ltpFR	7	9	1	PAPER	1011	n/a	n/a	0	n/a	0	0	0	n/a	n/a	n/a	n/a	n/a
3423887	REC_WORD	wordpools/wasnorm_wordpool_less_exclusions.txt	LTP289	ltpFR	7	9	1	BUREAU	199	n/a	n/a	0	n/a	0	0	0	n/a	n/a	n/a	n/a	n/a
3425405	REC_WORD	wordpools/wasnorm_wordpool_less_exclusions.txt	LTP289	ltpFR	7	9	1	WARDROBE	1587	n/a	n/a	0	n/a	0	0	0	n/a	n/a	n/a	n/a	n/a
3429449	REC_WORD	wordpools/wasnorm_wordpool_less_exclusions.txt	LTP289	ltpFR	7	9	1	BAND	78	n/a	n/a	1	n/a	0	0	0	n/a	n/a	n/a	n/a	n/a
3436967	REC_WORD	wordpools/wasnorm_wordpool_less_exclusions.txt	LTP289	ltpFR	7	9	1	DONKEY	484	n/a	n/a	1	n/a	0	0	0	n/a	n/a	n/a	n/a	n/a
3438184	REC_WORD	wordpools/wasnorm_wordpool_less_exclusions.txt	LTP289	ltpFR	7	9	1	ESSAY	540	n/a	n/a	0	n/a	0	0	0	n/a	n/a	n/a	n/a	n/a
3439765	REC_WORD	wordpools/wasnorm_wordpool_less_exclusions.txt	LTP289	ltpFR	7	9	1	MECHANIC	884	n/a	n/a	1	n/a	0	0	0	n/a	n/a	n/a	n/a	n/a
3441398	REC_WORD	wordpools/wasnorm_wordpool_less_exclusions.txt	LTP289	ltpFR	7	9	1	OX	994	n/a	n/a	1	n/a	0	0	0	n/a	n/a	n/a	n/a	n/a
3442952	REC_WORD	wordpools/wasnorm_wordpool_less_exclusions.txt	LTP289	ltpFR	7	9	1	FLUTE	585	n/a	n/a	0	n/a	0	0	0	n/a	n/a	n/a	n/a	n/a
3444616	REC_WORD	wordpools/wasnorm_wordpool_less_exclusions.txt	LTP289	ltpFR	7	9	1	JUNGLE	764	n/a	n/a	0	n/a	0	0	0	n/a	n/a	n/a	n/a	n/a
3461197	REC_WORD	wordpools/wasnorm_wordpool_less_exclusions.txt	LTP289	ltpFR	7	9	1	NAPKIN	937	n/a	n/a	0	n/a	0	0	0	n/a	n/a	n/a	n/a	n/a
3586039	WORD	wordpools/wasnorm_wordpool_less_exclusions.txt	LTP289	ltpFR	7	10	0	DRUM	502	n/a	n/a	1	n/a	0	0	0	0.422607421875	0.5869140625	0	lower	amplitud.ttf
3589887	WORD	wordpools/wasnorm_wordpool_less_exclusions.txt	LTP289	ltpFR	7	10	0	CELLO	268	n/a	n/a	1	n/a	0	0	0	0.422607421875	0.5869140625	0	lower	amplitud.ttf
3593868	WORD	wordpools/wasnorm_wordpool_less_exclusions.txt	LTP289	ltpFR	7	10	0	CRACKER	398	n/a	n/a	0	n/a	0	0	0	0.422607421875	0.5869140625	0	lower	amplitud.ttf
3597967	WORD	wordpools/wasnorm_wordpool_less_exclusions.txt	LTP289	ltpFR	7	10	0	CABLE	213	n/a	n/a	0	n/a	0	0	0	0.422607421875	0.5869140625	0	lower	amplitud.ttf
3602004	WORD	wordpools/wasnorm_wordpool_less_exclusions.txt	LTP289	ltpFR	7	10	0	TYPEWRITER	1531	n/a	n/a	1	n/a	0	0	0	0.422607421875	0.5869140625	0	lower	amplitud.ttf
3606048	WORD	wordpools/wasnorm_wordpool_less_exclusions.txt	LTP289	ltpFR	7	10	0	YARN	1631	n/a	n/a	0	n/a	0	0	0	0.422607421875	0.5869140625	0	lower	amplitud.ttf
3609951	WORD	wordpools/wasnorm_wordpool_less_exclusions.txt	LTP289	ltpFR	7	10	0	TORTOISE	1486	n/a	n/a	1	n/a	0	0	0	0.422607421875	0.5869140625	0	lower	amplitud.ttf
3613916	WORD	wordpools/wasnorm_wordpool_less_exclusions.txt	LTP289	ltpFR	7	10	0	STOOL	1386	n/a	n/a	1	n/a	0	0	0	0.422607421875	0.5869140625	0	lower	amplitud.ttf
3617992	WORD	wordpools/wasnorm_wordpool_less_exclusions.txt	LTP289	ltpFR	7	10	0	DIPLOMA	470	n/a	n/a	0	n/a	0	0	0	0.422607421875	0.5869140625	0	lower	amplitud.ttf
3622148	WORD	wordpools/wasnorm_wordpool_less_exclusions.txt	LTP289	ltpFR	7	10	0	MICROSCOPE	891	n/a	n/a	1	n/a	0	0	0	0.422607421875	0.5869140625	0	lower	amplitud.ttf
3626364	WORD	wordpools/wasnorm_wordpool_less_exclusions.txt	LTP289	ltpFR	7	10	0	COMET	353	n/a	n/a	1	n/a	0	0	0	0.422607421875	0.5869140625	0	lower	amplitud.ttf
3630479	WORD	wordpools/wasnorm_wordpool_less_exclusions.txt	LTP289	ltpFR	7	10	0	SALOON	1228	n/a	n/a	1	n/a	0	0	0	0.422607421875	0.5869140625	0	lower	amplitud.ttf
3634672	WORD	wordpools/wasnorm_wordpool_less_exclusions.txt	LTP289	ltpFR	7	10	0	PORCUPINE	1107	n/a	n/a	1	n/a	0	0	0	0.422607421875	0.5869140625	0	lower	amplitud.ttf
3638526	WORD	wordpools/wasnorm_wordpool_less_exclusions.txt	LTP289	ltpFR	7	10	0	TELEVISION	1447	n/a	n/a	1	n/a	0	0	0	0.422607421875	0.5869140625	0	lower	amplitud.ttf
3642658	WORD	wordpools/wasnorm_wordpool_less_exclusions.txt	LTP289	ltpFR	7	10	0	CHART	282	n/a	n/a	1	n/a	0	0	0	0.422607421875	0.5869140625	0	lower	amplitud.ttf
3646584	WORD	wordpools/wasnorm_wordpool_less_exclusions.txt	LTP289	ltpFR	7	10	0	FRAME	600	n/a	n/a	1	n/a	0	0	0	0.422607421875	0.5869140625	0	lower	amplitud.ttf
3649601	START	n/a	LTP289	ltpFR	7	n/a	n/a	n/a	n/a	n/a	n/a	n/a	n/a	n/a	n/a	n/a	n/a	n/a	n/a	n/a	n/a
3650688	PROB	n/a	LTP289	ltpFR	7	n/a	n/a	n/a	n/a	n/a	n/a	n/a	98	2	3	4	n/a	n/a	n/a	n/a	n/a
3652524	PROB	n/a	LTP289	ltpFR	7	n/a	n/a	n/a	n/a	n/a	n/a	n/a	4	2	1	1	n/a	n/a	n/a	n/a	n/a
3655751	PROB	n/a	LTP289	ltpFR	7	n/a	n/a	n/a	n/a	n/a	n/a	n/a	18	2	5	9	n/a	n/a	n/a	n/a	n/a
3658027	PROB	n/a	LTP289	ltpFR	7	n/a	n/a	n/a	n/a	n/a	n/a	n/a	13	3	8	2	n/a	n/a	n/a	n/a	n/a
3665601	STOP	n/a	LTP289	ltpFR	7	n/a	n/a	n/a	n/a	n/a	n/a	n/a	n/a	n/a	n/a	n/a	n/a	n/a	n/a	n/a	n/a
3667369	REC_START	n/a	LTP289	ltpFR	7	10	n/a	n/a	n/a	n/a	n/a	n/a	n/a	0	0	0	n/a	n/a	n/a	n/a	n/a
3668454	REC_WORD	wordpools/wasnorm_wordpool_less_exclusions.txt	LTP289	ltpFR	7	10	0	DRUM	502	n/a	n/a	1	n/a	0	0	0	n/a	n/a	n/a	n/a	n/a
3669413	REC_WORD	wordpools/wasnorm_wordpool_less_exclusions.txt	LTP289	ltpFR	7	10	0	CELLO	268	n/a	n/a	1	n/a	0	0	0	n/a	n/a	n/a	n/a	n/a
3670613	REC_WORD	wordpools/wasnorm_wordpool_less_exclusions.txt	LTP289	ltpFR	7	10	0	CRACKER	398	n/a	n/a	0	n/a	0	0	0	n/a	n/a	n/a	n/a	n/a
3675618	REC_WORD	wordpools/wasnorm_wordpool_less_exclusions.txt	LTP289	ltpFR	7	10	0	MICROSCOPE	891	n/a	n/a	1	n/a	0	0	0	n/a	n/a	n/a	n/a	n/a
3683648	REC_WORD	wordpools/wasnorm_wordpool_less_exclusions.txt	LTP289	ltpFR	7	10	0	FRAME	600	n/a	n/a	1	n/a	0	0	0	n/a	n/a	n/a	n/a	n/a
3686741	REC_WORD	wordpools/wasnorm_wordpool_less_exclusions.txt	LTP289	ltpFR	7	10	0	CABLE	213	n/a	n/a	0	n/a	0	0	0	n/a	n/a	n/a	n/a	n/a
3687946	REC_WORD	wordpools/wasnorm_wordpool_less_exclusions.txt	LTP289	ltpFR	7	10	0	YARN	1631	n/a	n/a	0	n/a	0	0	0	n/a	n/a	n/a	n/a	n/a
3725712	REC_WORD	wordpools/wasnorm_wordpool_less_exclusions.txt	LTP289	ltpFR	7	10	0	COMET	353	n/a	n/a	1	n/a	0	0	0	n/a	n/a	n/a	n/a	n/a
3783105	WORD	wordpools/wasnorm_wordpool_less_exclusions.txt	LTP289	ltpFR	7	11	1	SURF	1412	n/a	n/a	0	n/a	0	0	0	0.57763671875	0.412841796875	1	upper	zerothre.ttf
3787035	WORD	wordpools/wasnorm_wordpool_less_exclusions.txt	LTP289	ltpFR	7	11	1	FOUNTAIN	597	n/a	n/a	0	n/a	0	0	0	0.57763671875	0.412841796875	1	upper	zerothre.ttf
3790877	WORD	wordpools/wasnorm_wordpool_less_exclusions.txt	LTP289	ltpFR	7	11	1	AGENT	10	n/a	n/a	1	n/a	0	0	0	0.57763671875	0.412841796875	1	upper	zerothre.ttf
3794998	WORD	wordpools/wasnorm_wordpool_less_exclusions.txt	LTP289	ltpFR	7	11	1	CITIZEN	312	n/a	n/a	1	n/a	0	0	0	0.57763671875	0.412841796875	1	upper	zerothre.ttf
3799014	WORD	wordpools/wasnorm_wordpool_less_exclusions.txt	LTP289	ltpFR	7	11	1	COOKIE	374	n/a	n/a	0	n/a	0	0	0	0.57763671875	0.412841796875	1	upper	zerothre.ttf
3802895	WORD	wordpools/wasnorm_wordpool_less_exclusions.txt	LTP289	ltpFR	7	11	1	POT	1114	n/a	n/a	0	n/a	0	0	0	0.57763671875	0.412841796875	1	upper	zerothre.ttf
3806921	WORD	wordpools/wasnorm_wordpool_less_exclusions.txt	LTP289	ltpFR	7	11	1	LAWN	805	n/a	n/a	0	n/a	0	0	0	0.57763671875	0.412841796875	1	upper	zerothre.ttf
3810869	WORD	wordpools/wasnorm_wordpool_less_exclusions.txt	LTP289	ltpFR	7	11	1	MOWER	928	n/a	n/a	0	n/a	0	0	0	0.57763671875	0.412841796875	1	upper	zerothre.ttf
3814940	WORD	wordpools/wasnorm_wordpool_less_exclusions.txt	LTP289	ltpFR	7	11	1	SHRIMP	1297	n/a	n/a	1	n/a	0	0	0	0.57763671875	0.412841796875	1	upper	zerothre.ttf
3818905	WORD	wordpools/wasnorm_wordpool_less_exclusions.txt	LTP289	ltpFR	7	11	1	WAITER	1580	n/a	n/a	1	n/a	0	0	0	0.57763671875	0.412841796875	1	upper	zerothre.ttf
3823122	WORD	wordpools/wasnorm_wordpool_less_exclusions.txt	LTP289	ltpFR	7	11	1	CUPBOARD	425	n/a	n/a	0	n/a	0	0	0	0.57763671875	0.412841796875	1	upper	zerothre.ttf
3827019	WORD	wordpools/wasnorm_wordpool_less_exclusions.txt	LTP289	ltpFR	7	11	1	HUMAN	726	n/a	n/a	1	n/a	0	0	0	0.57763671875	0.412841796875	1	upper	zerothre.ttf
3831136	WORD	wordpools/wasnorm_wordpool_less_exclusions.txt	LTP289	ltpFR	7	11	1	MINT	898	n/a	n/a	0	n/a	0	0	0	0.57763671875	0.412841796875	1	upper	zerothre.ttf
3835145	WORD	wordpools/wasnorm_wordpool_less_exclusions.txt	LTP289	ltpFR	7	11	1	EDITOR	516	n/a	n/a	1	n/a	0	0	0	0.57763671875	0.412841796875	1	upper	zerothre.ttf
3839277	WORD	wordpools/wasnorm_wordpool_less_exclusions.txt	LTP289	ltpFR	7	11	1	BAIT	70	n/a	n/a	0	n/a	0	0	0	0.57763671875	0.412841796875	1	upper	zerothre.ttf
3843281	WORD	wordpools/wasnorm_wordpool_less_exclusions.txt	LTP289	ltpFR	7	11	1	CIGARETTE	309	n/a	n/a	0	n/a	0	0	0	0.57763671875	0.412841796875	1	upper	zerothre.ttf
3846293	START	n/a	LTP289	ltpFR	7	n/a	n/a	n/a	n/a	n/a	n/a	n/a	n/a	n/a	n/a	n/a	n/a	n/a	n/a	n/a	n/a
3847112	PROB	n/a	LTP289	ltpFR	7	n/a	n/a	n/a	n/a	n/a	n/a	n/a	11	1	5	5	n/a	n/a	n/a	n/a	n/a
3849404	PROB	n/a	LTP289	ltpFR	7	n/a	n/a	n/a	n/a	n/a	n/a	n/a	13	7	1	5	n/a	n/a	n/a	n/a	n/a
3851457	PROB	n/a	LTP289	ltpFR	7	n/a	n/a	n/a	n/a	n/a	n/a	n/a	15	8	4	3	n/a	n/a	n/a	n/a	n/a
3853529	STOP	n/a	LTP289	ltpFR	7	n/a	n/a	n/a	n/a	n/a	n/a	n/a	n/a	n/a	n/a	n/a	n/a	n/a	n/a	n/a	n/a
3856064	REC_START	n/a	LTP289	ltpFR	7	11	n/a	n/a	n/a	n/a	n/a	n/a	n/a	0	0	0	n/a	n/a	n/a	n/a	n/a
3856898	REC_WORD	wordpools/wasnorm_wordpool_less_exclusions.txt	LTP289	ltpFR	7	11	1	CIGARETTE	309	n/a	n/a	0	n/a	0	0	0	n/a	n/a	n/a	n/a	n/a
3858442	REC_WORD	wordpools/wasnorm_wordpool_less_exclusions.txt	LTP289	ltpFR	7	11	1	BAIT	70	n/a	n/a	0	n/a	0	0	0	n/a	n/a	n/a	n/a	n/a
3860845	REC_WORD	wordpools/wasnorm_wordpool_less_exclusions.txt	LTP289	ltpFR	7	11	1	AGENT	10	n/a	n/a	1	n/a	0	0	0	n/a	n/a	n/a	n/a	n/a
3863416	REC_WORD	wordpools/wasnorm_wordpool_less_exclusions.txt	LTP289	ltpFR	7	11	1	COOKIE	374	n/a	n/a	0	n/a	0	0	0	n/a	n/a	n/a	n/a	n/a
3867657	REC_WORD	wordpools/wasnorm_wordpool_less_exclusions.txt	LTP289	ltpFR	7	11	1	POT	1114	n/a	n/a	0	n/a	0	0	0	n/a	n/a	n/a	n/a	n/a
3868665	REC_WORD	wordpools/wasnorm_wordpool_less_exclusions.txt	LTP289	ltpFR	7	11	1	LAWN	805	n/a	n/a	0	n/a	0	0	0	n/a	n/a	n/a	n/a	n/a
3869844	REC_WORD	wordpools/wasnorm_wordpool_less_exclusions.txt	LTP289	ltpFR	7	11	1	MOWER	928	n/a	n/a	0	n/a	0	0	0	n/a	n/a	n/a	n/a	n/a
3872664	REC_WORD	wordpools/wasnorm_wordpool_less_exclusions.txt	LTP289	ltpFR	7	11	1	SURF	1412	n/a	n/a	0	n/a	0	0	0	n/a	n/a	n/a	n/a	n/a
3873706	REC_WORD	wordpools/wasnorm_wordpool_less_exclusions.txt	LTP289	ltpFR	7	11	1	FOUNTAIN	597	n/a	n/a	0	n/a	0	0	0	n/a	n/a	n/a	n/a	n/a
3875495	REC_WORD	wordpools/wasnorm_wordpool_less_exclusions.txt	LTP289	ltpFR	7	11	1	SHRIMP	1297	n/a	n/a	1	n/a	0	0	0	n/a	n/a	n/a	n/a	n/a
3880534	REC_WORD	wordpools/wasnorm_wordpool_less_exclusions.txt	LTP289	ltpFR	7	11	1	CUPBOARD	425	n/a	n/a	0	n/a	0	0	0	n/a	n/a	n/a	n/a	n/a
3894155	REC_WORD	wordpools/wasnorm_wordpool_less_exclusions.txt	LTP289	ltpFR	7	11	1	HUMAN	726	n/a	n/a	1	n/a	0	0	0	n/a	n/a	n/a	n/a	n/a
3987207	START	n/a	LTP289	ltpFR	7	n/a	n/a	n/a	n/a	n/a	n/a	n/a	n/a	n/a	n/a	n/a	n/a	n/a	n/a	n/a	n/a
3988723	PROB	n/a	LTP289	ltpFR	7	n/a	n/a	n/a	n/a	n/a	n/a	n/a	19	8	7	4	n/a	n/a	n/a	n/a	n/a
3991924	PROB	n/a	LTP289	ltpFR	7	n/a	n/a	n/a	n/a	n/a	n/a	n/a	13	4	3	6	n/a	n/a	n/a	n/a	n/a
3994040	STOP	n/a	LTP289	ltpFR	7	n/a	n/a	n/a	n/a	n/a	n/a	n/a	n/a	n/a	n/a	n/a	n/a	n/a	n/a	n/a	n/a
3996403	WORD	wordpools/wasnorm_wordpool_less_exclusions.txt	LTP289	ltpFR	7	12	1	GLACIER	638	n/a	n/a	0	n/a	0	0	0	0.57763671875	0.412841796875	1	upper	zerothre.ttf
3999420	START	n/a	LTP289	ltpFR	7	n/a	n/a	n/a	n/a	n/a	n/a	n/a	n/a	n/a	n/a	n/a	n/a	n/a	n/a	n/a	n/a
4000524	PROB	n/a	LTP289	ltpFR	7	n/a	n/a	n/a	n/a	n/a	n/a	n/a	15	8	5	2	n/a	n/a	n/a	n/a	n/a
4003986	PROB	n/a	LTP289	ltpFR	7	n/a	n/a	n/a	n/a	n/a	n/a	n/a	7	3	2	2	n/a	n/a	n/a	n/a	n/a
4007419	STOP	n/a	LTP289	ltpFR	7	n/a	n/a	n/a	n/a	n/a	n/a	n/a	n/a	n/a	n/a	n/a	n/a	n/a	n/a	n/a	n/a
4008482	WORD	wordpools/wasnorm_wordpool_less_exclusions.txt	LTP289	ltpFR	7	12	1	SPOOL	1356	n/a	n/a	0	n/a	0	0	0	0.57763671875	0.412841796875	1	upper	zerothre.ttf
4011499	START	n/a	LTP289	ltpFR	7	n/a	n/a	n/a	n/a	n/a	n/a	n/a	n/a	n/a	n/a	n/a	n/a	n/a	n/a	n/a	n/a
4012346	PROB	n/a	LTP289	ltpFR	7	n/a	n/a	n/a	n/a	n/a	n/a	n/a	16	5	3	8	n/a	n/a	n/a	n/a	n/a
4014035	PROB	n/a	LTP289	ltpFR	7	n/a	n/a	n/a	n/a	n/a	n/a	n/a	14	3	3	5	n/a	n/a	n/a	n/a	n/a
4019498	STOP	n/a	LTP289	ltpFR	7	n/a	n/a	n/a	n/a	n/a	n/a	n/a	n/a	n/a	n/a	n/a	n/a	n/a	n/a	n/a	n/a
4020615	WORD	wordpools/wasnorm_wordpool_less_exclusions.txt	LTP289	ltpFR	7	12	1	COD	340	n/a	n/a	1	n/a	0	0	0	0.57763671875	0.412841796875	1	upper	zerothre.ttf
4023627	START	n/a	LTP289	ltpFR	7	n/a	n/a	n/a	n/a	n/a	n/a	n/a	n/a	n/a	n/a	n/a	n/a	n/a	n/a	n/a	n/a
4024509	PROB	n/a	LTP289	ltpFR	7	n/a	n/a	n/a	n/a	n/a	n/a	n/a	14	4	5	5	n/a	n/a	n/a	n/a	n/a
4026182	PROB	n/a	LTP289	ltpFR	7	n/a	n/a	n/a	n/a	n/a	n/a	n/a	16	7	1	8	n/a	n/a	n/a	n/a	n/a
4028323	PROB	n/a	LTP289	ltpFR	7	n/a	n/a	n/a	n/a	n/a	n/a	n/a	9	1	3	5	n/a	n/a	n/a	n/a	n/a
4030465	STOP	n/a	LTP289	ltpFR	7	n/a	n/a	n/a	n/a	n/a	n/a	n/a	n/a	n/a	n/a	n/a	n/a	n/a	n/a	n/a	n/a
4032722	WORD	wordpools/wasnorm_wordpool_less_exclusions.txt	LTP289	ltpFR	7	12	1	CAT	257	n/a	n/a	1	n/a	0	0	0	0.57763671875	0.412841796875	1	upper	zerothre.ttf
4035740	START	n/a	LTP289	ltpFR	7	n/a	n/a	n/a	n/a	n/a	n/a	n/a	n/a	n/a	n/a	n/a	n/a	n/a	n/a	n/a	n/a
4036810	PROB	n/a	LTP289	ltpFR	7	n/a	n/a	n/a	n/a	n/a	n/a	n/a	19	7	8	4	n/a	n/a	n/a	n/a	n/a
4040719	PROB	n/a	LTP289	ltpFR	7	n/a	n/a	n/a	n/a	n/a	n/a	n/a	17	6	8	3	n/a	n/a	n/a	n/a	n/a
4043201	STOP	n/a	LTP289	ltpFR	7	n/a	n/a	n/a	n/a	n/a	n/a	n/a	n/a	n/a	n/a	n/a	n/a	n/a	n/a	n/a	n/a
4044773	WORD	wordpools/wasnorm_wordpool_less_exclusions.txt	LTP289	ltpFR	7	12	1	COOLER	375	n/a	n/a	0	n/a	0	0	0	0.57763671875	0.412841796875	1	upper	zerothre.ttf
4047785	START	n/a	LTP289	ltpFR	7	n/a	n/a	n/a	n/a	n/a	n/a	n/a	n/a	n/a	n/a	n/a	n/a	n/a	n/a	n/a	n/a
4048933	PROB	n/a	LTP289	ltpFR	7	n/a	n/a	n/a	n/a	n/a	n/a	n/a	10	4	3	3	n/a	n/a	n/a	n/a	n/a
4050891	PROB	n/a	LTP289	ltpFR	7	n/a	n/a	n/a	n/a	n/a	n/a	n/a	16	6	9	1	n/a	n/a	n/a	n/a	n/a
4052403	PROB	n/a	LTP289	ltpFR	7	n/a	n/a	n/a	n/a	n/a	n/a	n/a	19	9	3	7	n/a	n/a	n/a	n/a	n/a
4054313	STOP	n/a	LTP289	ltpFR	7	n/a	n/a	n/a	n/a	n/a	n/a	n/a	n/a	n/a	n/a	n/a	n/a	n/a	n/a	n/a	n/a
4057002	WORD	wordpools/wasnorm_wordpool_less_exclusions.txt	LTP289	ltpFR	7	12	1	SHOELACE	1289	n/a	n/a	0	n/a	0	0	0	0.57763671875	0.412841796875	1	upper	zerothre.ttf
4060015	START	n/a	LTP289	ltpFR	7	n/a	n/a	n/a	n/a	n/a	n/a	n/a	n/a	n/a	n/a	n/a	n/a	n/a	n/a	n/a	n/a
4061085	PROB	n/a	LTP289	ltpFR	7	n/a	n/a	n/a	n/a	n/a	n/a	n/a	9	2	6	1	n/a	n/a	n/a	n/a	n/a
4062802	PROB	n/a	LTP289	ltpFR	7	n/a	n/a	n/a	n/a	n/a	n/a	n/a	16	8	2	6	n/a	n/a	n/a	n/a	n/a
4064426	PROB	n/a	LTP289	ltpFR	7	n/a	n/a	n/a	n/a	n/a	n/a	n/a	16	4	8	4	n/a	n/a	n/a	n/a	n/a
4066425	STOP	n/a	LTP289	ltpFR	7	n/a	n/a	n/a	n/a	n/a	n/a	n/a	n/a	n/a	n/a	n/a	n/a	n/a	n/a	n/a	n/a
4069160	WORD	wordpools/wasnorm_wordpool_less_exclusions.txt	LTP289	ltpFR	7	12	1	TOOL	1480	n/a	n/a	0	n/a	0	0	0	0.57763671875	0.412841796875	1	upper	zerothre.ttf
4072172	START	n/a	LTP289	ltpFR	7	n/a	n/a	n/a	n/a	n/a	n/a	n/a	n/a	n/a	n/a	n/a	n/a	n/a	n/a	n/a	n/a
4073109	PROB	n/a	LTP289	ltpFR	7	n/a	n/a	n/a	n/a	n/a	n/a	n/a	13	7	1	5	n/a	n/a	n/a	n/a	n/a
4076471	PROB	n/a	LTP289	ltpFR	7	n/a	n/a	n/a	n/a	n/a	n/a	n/a	14	4	8	2	n/a	n/a	n/a	n/a	n/a
4078009	PROB	n/a	LTP289	ltpFR	7	n/a	n/a	n/a	n/a	n/a	n/a	n/a	14	3	3	8	n/a	n/a	n/a	n/a	n/a
4079696	STOP	n/a	LTP289	ltpFR	7	n/a	n/a	n/a	n/a	n/a	n/a	n/a	n/a	n/a	n/a	n/a	n/a	n/a	n/a	n/a	n/a
4081178	WORD	wordpools/wasnorm_wordpool_less_exclusions.txt	LTP289	ltpFR	7	12	1	KITTEN	780	n/a	n/a	1	n/a	0	0	0	0.57763671875	0.412841796875	1	upper	zerothre.ttf
4084190	START	n/a	LTP289	ltpFR	7	n/a	n/a	n/a	n/a	n/a	n/a	n/a	n/a	n/a	n/a	n/a	n/a	n/a	n/a	n/a	n/a
4085076	PROB	n/a	LTP289	ltpFR	7	n/a	n/a	n/a	n/a	n/a	n/a	n/a	12	3	6	3	n/a	n/a	n/a	n/a	n/a
4087980	PROB	n/a	LTP289	ltpFR	7	n/a	n/a	n/a	n/a	n/a	n/a	n/a	10	6	1	3	n/a	n/a	n/a	n/a	n/a
4092189	STOP	n/a	LTP289	ltpFR	7	n/a	n/a	n/a	n/a	n/a	n/a	n/a	n/a	n/a	n/a	n/a	n/a	n/a	n/a	n/a	n/a
4093022	WORD	wordpools/wasnorm_wordpool_less_exclusions.txt	LTP289	ltpFR	7	12	1	PIG	1064	n/a	n/a	1	n/a	0	0	0	0.57763671875	0.412841796875	1	upper	zerothre.ttf
4096034	START	n/a	LTP289	ltpFR	7	n/a	n/a	n/a	n/a	n/a	n/a	n/a	n/a	n/a	n/a	n/a	n/a	n/a	n/a	n/a	n/a
4097003	PROB	n/a	LTP289	ltpFR	7	n/a	n/a	n/a	n/a	n/a	n/a	n/a	15	3	8	4	n/a	n/a	n/a	n/a	n/a
4099157	PROB	n/a	LTP289	ltpFR	7	n/a	n/a	n/a	n/a	n/a	n/a	n/a	12	2	4	6	n/a	n/a	n/a	n/a	n/a
4101131	PROB	n/a	LTP289	ltpFR	7	n/a	n/a	n/a	n/a	n/a	n/a	n/a	12	3	5	4	n/a	n/a	n/a	n/a	n/a
4103137	STOP	n/a	LTP289	ltpFR	7	n/a	n/a	n/a	n/a	n/a	n/a	n/a	n/a	n/a	n/a	n/a	n/a	n/a	n/a	n/a	n/a
4104883	WORD	wordpools/wasnorm_wordpool_less_exclusions.txt	LTP289	ltpFR	7	12	1	PADDING	999	n/a	n/a	0	n/a	0	0	0	0.57763671875	0.412841796875	1	upper	zerothre.ttf
4107895	START	n/a	LTP289	ltpFR	7	n/a	n/a	n/a	n/a	n/a	n/a	n/a	n/a	n/a	n/a	n/a	n/a	n/a	n/a	n/a	n/a
4108876	PROB	n/a	LTP289	ltpFR	7	n/a	n/a	n/a	n/a	n/a	n/a	n/a	12	2	4	6	n/a	n/a	n/a	n/a	n/a
4110766	PROB	n/a	LTP289	ltpFR	7	n/a	n/a	n/a	n/a	n/a	n/a	n/a	13	4	5	4	n/a	n/a	n/a	n/a	n/a
4115895	STOP	n/a	LTP289	ltpFR	7	n/a	n/a	n/a	n/a	n/a	n/a	n/a	n/a	n/a	n/a	n/a	n/a	n/a	n/a	n/a	n/a
4116906	WORD	wordpools/wasnorm_wordpool_less_exclusions.txt	LTP289	ltpFR	7	12	1	SEAT	1264	n/a	n/a	0	n/a	0	0	0	0.57763671875	0.412841796875	1	upper	zerothre.ttf
4119924	START	n/a	LTP289	ltpFR	7	n/a	n/a	n/a	n/a	n/a	n/a	n/a	n/a	n/a	n/a	n/a	n/a	n/a	n/a	n/a	n/a
4121095	PROB	n/a	LTP289	ltpFR	7	n/a	n/a	n/a	n/a	n/a	n/a	n/a	19	5	5	9	n/a	n/a	n/a	n/a	n/a
4123035	PROB	n/a	LTP289	ltpFR	7	n/a	n/a	n/a	n/a	n/a	n/a	n/a	16	3	6	7	n/a	n/a	n/a	n/a	n/a
4125639	PROB	n/a	LTP289	ltpFR	7	n/a	n/a	n/a	n/a	n/a	n/a	n/a	16	8	1	7	n/a	n/a	n/a	n/a	n/a
4127560	STOP	n/a	LTP289	ltpFR	7	n/a	n/a	n/a	n/a	n/a	n/a	n/a	n/a	n/a	n/a	n/a	n/a	n/a	n/a	n/a	n/a
4128756	WORD	wordpools/wasnorm_wordpool_less_exclusions.txt	LTP289	ltpFR	7	12	1	TECHNICIAN	1443	n/a	n/a	1	n/a	0	0	0	0.57763671875	0.412841796875	1	upper	zerothre.ttf
4131768	START	n/a	LTP289	ltpFR	7	n/a	n/a	n/a	n/a	n/a	n/a	n/a	n/a	n/a	n/a	n/a	n/a	n/a	n/a	n/a	n/a
4132883	PROB	n/a	LTP289	ltpFR	7	n/a	n/a	n/a	n/a	n/a	n/a	n/a	16	3	5	8	n/a	n/a	n/a	n/a	n/a
4134612	PROB	n/a	LTP289	ltpFR	7	n/a	n/a	n/a	n/a	n/a	n/a	n/a	14	4	7	3	n/a	n/a	n/a	n/a	n/a
4136096	PROB	n/a	LTP289	ltpFR	7	n/a	n/a	n/a	n/a	n/a	n/a	n/a	8	6	1	1	n/a	n/a	n/a	n/a	n/a
4137584	PROB	n/a	LTP289	ltpFR	7	n/a	n/a	n/a	n/a	n/a	n/a	n/a	15	8	1	5	n/a	n/a	n/a	n/a	n/a
4139664	STOP	n/a	LTP289	ltpFR	7	n/a	n/a	n/a	n/a	n/a	n/a	n/a	n/a	n/a	n/a	n/a	n/a	n/a	n/a	n/a	n/a
4140768	WORD	wordpools/wasnorm_wordpool_less_exclusions.txt	LTP289	ltpFR	7	12	1	BEER	114	n/a	n/a	0	n/a	0	0	0	0.57763671875	0.412841796875	1	upper	zerothre.ttf
4143780	START	n/a	LTP289	ltpFR	7	n/a	n/a	n/a	n/a	n/a	n/a	n/a	n/a	n/a	n/a	n/a	n/a	n/a	n/a	n/a	n/a
4144750	PROB	n/a	LTP289	ltpFR	7	n/a	n/a	n/a	n/a	n/a	n/a	n/a	15	9	3	3	n/a	n/a	n/a	n/a	n/a
4147138	PROB	n/a	LTP289	ltpFR	7	n/a	n/a	n/a	n/a	n/a	n/a	n/a	17	9	1	7	n/a	n/a	n/a	n/a	n/a
4148659	PROB	n/a	LTP289	ltpFR	7	n/a	n/a	n/a	n/a	n/a	n/a	n/a	12	3	1	8	n/a	n/a	n/a	n/a	n/a
4150928	STOP	n/a	LTP289	ltpFR	7	n/a	n/a	n/a	n/a	n/a	n/a	n/a	n/a	n/a	n/a	n/a	n/a	n/a	n/a	n/a	n/a
4152808	WORD	wordpools/wasnorm_wordpool_less_exclusions.txt	LTP289	ltpFR	7	12	1	BRANDY	169	n/a	n/a	0	n/a	0	0	0	0.57763671875	0.412841796875	1	upper	zerothre.ttf
4155826	START	n/a	LTP289	ltpFR	7	n/a	n/a	n/a	n/a	n/a	n/a	n/a	n/a	n/a	n/a	n/a	n/a	n/a	n/a	n/a	n/a
4156695	PROB	n/a	LTP289	ltpFR	7	n/a	n/a	n/a	n/a	n/a	n/a	n/a	10	1	2	7	n/a	n/a	n/a	n/a	n/a
4158386	PROB	n/a	LTP289	ltpFR	7	n/a	n/a	n/a	n/a	n/a	n/a	n/a	15	2	9	4	n/a	n/a	n/a	n/a	n/a
4160538	PROB	n/a	LTP289	ltpFR	7	n/a	n/a	n/a	n/a	n/a	n/a	n/a	18	5	6	7	n/a	n/a	n/a	n/a	n/a
4162257	STOP	n/a	LTP289	ltpFR	7	n/a	n/a	n/a	n/a	n/a	n/a	n/a	n/a	n/a	n/a	n/a	n/a	n/a	n/a	n/a	n/a
4164943	WORD	wordpools/wasnorm_wordpool_less_exclusions.txt	LTP289	ltpFR	7	12	1	HOME	712	n/a	n/a	0	n/a	0	0	0	0.57763671875	0.412841796875	1	upper	zerothre.ttf
4167955	START	n/a	LTP289	ltpFR	7	n/a	n/a	n/a	n/a	n/a	n/a	n/a	n/a	n/a	n/a	n/a	n/a	n/a	n/a	n/a	n/a
4168991	PROB	n/a	LTP289	ltpFR	7	n/a	n/a	n/a	n/a	n/a	n/a	n/a	12	1	7	4	n/a	n/a	n/a	n/a	n/a
4171902	PROB	n/a	LTP289	ltpFR	7	n/a	n/a	n/a	n/a	n/a	n/a	n/a	15	3	5	7	n/a	n/a	n/a	n/a	n/a
4175954	STOP	n/a	LTP289	ltpFR	7	n/a	n/a	n/a	n/a	n/a	n/a	n/a	n/a	n/a	n/a	n/a	n/a	n/a	n/a	n/a	n/a
4177056	WORD	wordpools/wasnorm_wordpool_less_exclusions.txt	LTP289	ltpFR	7	12	1	BEDROOM	111	n/a	n/a	0	n/a	0	0	0	0.57763671875	0.412841796875	1	upper	zerothre.ttf
4180068	START	n/a	LTP289	ltpFR	7	n/a	n/a	n/a	n/a	n/a	n/a	n/a	n/a	n/a	n/a	n/a	n/a	n/a	n/a	n/a	n/a
4181104	PROB	n/a	LTP289	ltpFR	7	n/a	n/a	n/a	n/a	n/a	n/a	n/a	15	7	7	1	n/a	n/a	n/a	n/a	n/a
4182559	PROB	n/a	LTP289	ltpFR	7	n/a	n/a	n/a	n/a	n/a	n/a	n/a	14	5	4	5	n/a	n/a	n/a	n/a	n/a
4184583	PROB	n/a	LTP289	ltpFR	7	n/a	n/a	n/a	n/a	n/a	n/a	n/a	13	8	4	1	n/a	n/a	n/a	n/a	n/a
4186760	STOP	n/a	LTP289	ltpFR	7	n/a	n/a	n/a	n/a	n/a	n/a	n/a	n/a	n/a	n/a	n/a	n/a	n/a	n/a	n/a	n/a
4189832	REC_START	n/a	LTP289	ltpFR	7	12	n/a	n/a	n/a	n/a	n/a	n/a	n/a	0	0	0	n/a	n/a	n/a	n/a	n/a
4191303	REC_WORD	wordpools/wasnorm_wordpool_less_exclusions.txt	LTP289	ltpFR	7	12	1	BEDROOM	111	n/a	n/a	0	n/a	0	0	0	n/a	n/a	n/a	n/a	n/a
4193409	REC_WORD	wordpools/wasnorm_wordpool_less_exclusions.txt	LTP289	ltpFR	7	12	1	HOME	712	n/a	n/a	0	n/a	0	0	0	n/a	n/a	n/a	n/a	n/a
4194594	REC_WORD	wordpools/wasnorm_wordpool_less_exclusions.txt	LTP289	ltpFR	7	12	1	GLACIER	638	n/a	n/a	0	n/a	0	0	0	n/a	n/a	n/a	n/a	n/a
4195854	REC_WORD	wordpools/wasnorm_wordpool_less_exclusions.txt	LTP289	ltpFR	7	12	1	COOLER	375	n/a	n/a	0	n/a	0	0	0	n/a	n/a	n/a	n/a	n/a
4197299	REC_WORD	wordpools/wasnorm_wordpool_less_exclusions.txt	LTP289	ltpFR	7	12	1	PADDING	999	n/a	n/a	0	n/a	0	0	0	n/a	n/a	n/a	n/a	n/a
4201361	REC_WORD	wordpools/wasnorm_wordpool_less_exclusions.txt	LTP289	ltpFR	7	12	1	TOOL	1480	n/a	n/a	0	n/a	0	0	0	n/a	n/a	n/a	n/a	n/a
4204936	REC_WORD	wordpools/wasnorm_wordpool_less_exclusions.txt	LTP289	ltpFR	7	12	1	TECHNICIAN	1443	n/a	n/a	1	n/a	0	0	0	n/a	n/a	n/a	n/a	n/a
4209730	REC_WORD	wordpools/wasnorm_wordpool_less_exclusions.txt	LTP289	ltpFR	7	12	1	BRANDY	169	n/a	n/a	0	n/a	0	0	0	n/a	n/a	n/a	n/a	n/a
4247831	REC_WORD	wordpools/wasnorm_wordpool_less_exclusions.txt	LTP289	ltpFR	7	12	1	COD	340	n/a	n/a	1	n/a	0	0	0	n/a	n/a	n/a	n/a	n/a
4311061	WORD	wordpools/wasnorm_wordpool_less_exclusions.txt	LTP289	ltpFR	7	13	0	SALESMAN	1225	n/a	n/a	1	n/a	0	0	0	0.422607421875	0.5869140625	0	lower	amplitud.ttf
4315110	WORD	wordpools/wasnorm_wordpool_less_exclusions.txt	LTP289	ltpFR	7	13	0	CONSUMER	365	n/a	n/a	1	n/a	0	0	0	0.422607421875	0.5869140625	0	lower	amplitud.ttf
4319040	WORD	wordpools/wasnorm_wordpool_less_exclusions.txt	LTP289	ltpFR	7	13	0	MUSEUM	933	n/a	n/a	1	n/a	0	0	0	0.422607421875	0.5869140625	0	lower	amplitud.ttf
4323268	WORD	wordpools/wasnorm_wordpool_less_exclusions.txt	LTP289	ltpFR	7	13	0	NOVEL	960	n/a	n/a	0	n/a	0	0	0	0.422607421875	0.5869140625	0	lower	amplitud.ttf
4327122	WORD	wordpools/wasnorm_wordpool_less_exclusions.txt	LTP289	ltpFR	7	13	0	EMPLOYEE	531	n/a	n/a	1	n/a	0	0	0	0.422607421875	0.5869140625	0	lower	amplitud.ttf
4331215	WORD	wordpools/wasnorm_wordpool_less_exclusions.txt	LTP289	ltpFR	7	13	0	HALL	677	n/a	n/a	1	n/a	0	0	0	0.422607421875	0.5869140625	0	lower	amplitud.ttf
4335185	WORD	wordpools/wasnorm_wordpool_less_exclusions.txt	LTP289	ltpFR	7	13	0	JOURNAL	760	n/a	n/a	0	n/a	0	0	0	0.422607421875	0.5869140625	0	lower	amplitud.ttf
4339317	WORD	wordpools/wasnorm_wordpool_less_exclusions.txt	LTP289	ltpFR	7	13	0	POTTERY	1116	n/a	n/a	1	n/a	0	0	0	0.422607421875	0.5869140625	0	lower	amplitud.ttf
4343182	WORD	wordpools/wasnorm_wordpool_less_exclusions.txt	LTP289	ltpFR	7	13	0	SLACKS	1323	n/a	n/a	0	n/a	0	0	0	0.422607421875	0.5869140625	0	lower	amplitud.ttf
4347023	WORD	wordpools/wasnorm_wordpool_less_exclusions.txt	LTP289	ltpFR	7	13	0	CORK	380	n/a	n/a	0	n/a	0	0	0	0.422607421875	0.5869140625	0	lower	amplitud.ttf
4350910	WORD	wordpools/wasnorm_wordpool_less_exclusions.txt	LTP289	ltpFR	7	13	0	WALL	1582	n/a	n/a	1	n/a	0	0	0	0.422607421875	0.5869140625	0	lower	amplitud.ttf
4354892	WORD	wordpools/wasnorm_wordpool_less_exclusions.txt	LTP289	ltpFR	7	13	0	WATER	1594	n/a	n/a	0	n/a	0	0	0	0.422607421875	0.5869140625	0	lower	amplitud.ttf
4359007	WORD	wordpools/wasnorm_wordpool_less_exclusions.txt	LTP289	ltpFR	7	13	0	NET	946	n/a	n/a	1	n/a	0	0	0	0.422607421875	0.5869140625	0	lower	amplitud.ttf
4363051	WORD	wordpools/wasnorm_wordpool_less_exclusions.txt	LTP289	ltpFR	7	13	0	RACKET	1155	n/a	n/a	1	n/a	0	0	0	0.422607421875	0.5869140625	0	lower	amplitud.ttf
4367150	WORD	wordpools/wasnorm_wordpool_less_exclusions.txt	LTP289	ltpFR	7	13	0	CUE	422	n/a	n/a	0	n/a	0	0	0	0.422607421875	0.5869140625	0	lower	amplitud.ttf
4371254	WORD	wordpools/wasnorm_wordpool_less_exclusions.txt	LTP289	ltpFR	7	13	0	BLANKET	135	n/a	n/a	1	n/a	0	0	0	0.422607421875	0.5869140625	0	lower	amplitud.ttf
4376954	REC_START	n/a	LTP289	ltpFR	7	13	n/a	n/a	n/a	n/a	n/a	n/a	n/a	0	0	0	n/a	n/a	n/a	n/a	n/a
4377750	REC_WORD	wordpools/wasnorm_wordpool_less_exclusions.txt	LTP289	ltpFR	7	13	0	CUE	422	n/a	n/a	0	n/a	0	0	0	n/a	n/a	n/a	n/a	n/a
4378856	REC_WORD	wordpools/wasnorm_wordpool_less_exclusions.txt	LTP289	ltpFR	7	13	0	BLANKET	135	n/a	n/a	1	n/a	0	0	0	n/a	n/a	n/a	n/a	n/a
4380136	REC_WORD	wordpools/wasnorm_wordpool_less_exclusions.txt	LTP289	ltpFR	7	13	0	RACKET	1155	n/a	n/a	1	n/a	0	0	0	n/a	n/a	n/a	n/a	n/a
4383197	REC_WORD	wordpools/wasnorm_wordpool_less_exclusions.txt	LTP289	ltpFR	7	13	0	CONSUMER	365	n/a	n/a	1	n/a	0	0	0	n/a	n/a	n/a	n/a	n/a
4389941	REC_WORD	wordpools/wasnorm_wordpool_less_exclusions.txt	LTP289	ltpFR	7	13	0	EMPLOYEE	531	n/a	n/a	1	n/a	0	0	0	n/a	n/a	n/a	n/a	n/a
4392956	REC_WORD	wordpools/wasnorm_wordpool_less_exclusions.txt	LTP289	ltpFR	7	13	n/a	DIARY	460	n/a	n/a	n/a	n/a	0	0	0	n/a	n/a	n/a	n/a	n/a
4394358	REC_WORD	wordpools/wasnorm_wordpool_less_exclusions.txt	LTP289	ltpFR	7	13	0	NOVEL	960	n/a	n/a	0	n/a	0	0	0	n/a	n/a	n/a	n/a	n/a
4433570	REC_WORD	wordpools/wasnorm_wordpool_less_exclusions.txt	LTP289	ltpFR	7	13	0	NET	946	n/a	n/a	1	n/a	0	0	0	n/a	n/a	n/a	n/a	n/a
4450291	REC_WORD	wordpools/wasnorm_wordpool_less_exclusions.txt	LTP289	ltpFR	7	13	0	MUSEUM	933	n/a	n/a	1	n/a	0	0	0	n/a	n/a	n/a	n/a	n/a
4499805	START	n/a	LTP289	ltpFR	7	n/a	n/a	n/a	n/a	n/a	n/a	n/a	n/a	n/a	n/a	n/a	n/a	n/a	n/a	n/a	n/a
4501323	PROB	n/a	LTP289	ltpFR	7	n/a	n/a	n/a	n/a	n/a	n/a	n/a	8	4	1	3	n/a	n/a	n/a	n/a	n/a
4503430	PROB	n/a	LTP289	ltpFR	7	n/a	n/a	n/a	n/a	n/a	n/a	n/a	11	4	1	6	n/a	n/a	n/a	n/a	n/a
4505894	PROB	n/a	LTP289	ltpFR	7	n/a	n/a	n/a	n/a	n/a	n/a	n/a	11	3	5	3	n/a	n/a	n/a	n/a	n/a
4507863	PROB	n/a	LTP289	ltpFR	7	n/a	n/a	n/a	n/a	n/a	n/a	n/a	11	3	5	5	n/a	n/a	n/a	n/a	n/a
4509509	PROB	n/a	LTP289	ltpFR	7	n/a	n/a	n/a	n/a	n/a	n/a	n/a	11	6	3	2	n/a	n/a	n/a	n/a	n/a
4515797	STOP	n/a	LTP289	ltpFR	7	n/a	n/a	n/a	n/a	n/a	n/a	n/a	n/a	n/a	n/a	n/a	n/a	n/a	n/a	n/a	n/a
4516997	WORD	wordpools/wasnorm_wordpool_less_exclusions.txt	LTP289	ltpFR	7	14	0	GREASE	660	n/a	n/a	0	n/a	0	0	0	0.422607421875	0.5869140625	0	lower	amplitud.ttf
4520015	START	n/a	LTP289	ltpFR	7	n/a	n/a	n/a	n/a	n/a	n/a	n/a	n/a	n/a	n/a	n/a	n/a	n/a	n/a	n/a	n/a
4521186	PROB	n/a	LTP289	ltpFR	7	n/a	n/a	n/a	n/a	n/a	n/a	n/a	25	9	7	9	n/a	n/a	n/a	n/a	n/a
4524058	PROB	n/a	LTP289	ltpFR	7	n/a	n/a	n/a	n/a	n/a	n/a	n/a	12	1	8	3	n/a	n/a	n/a	n/a	n/a
4525831	PROB	n/a	LTP289	ltpFR	7	n/a	n/a	n/a	n/a	n/a	n/a	n/a	14	8	4	2	n/a	n/a	n/a	n/a	n/a
4527438	PROB	n/a	LTP289	ltpFR	7	n/a	n/a	n/a	n/a	n/a	n/a	n/a	20	3	8	9	n/a	n/a	n/a	n/a	n/a
4529595	PROB	n/a	LTP289	ltpFR	7	n/a	n/a	n/a	n/a	n/a	n/a	n/a	13	4	4	5	n/a	n/a	n/a	n/a	n/a
4532261	PROB	n/a	LTP289	ltpFR	7	n/a	n/a	n/a	n/a	n/a	n/a	n/a	13	8	3	2	n/a	n/a	n/a	n/a	n/a
4536014	STOP	n/a	LTP289	ltpFR	7	n/a	n/a	n/a	n/a	n/a	n/a	n/a	n/a	n/a	n/a	n/a	n/a	n/a	n/a	n/a	n/a
4536844	WORD	wordpools/wasnorm_wordpool_less_exclusions.txt	LTP289	ltpFR	7	14	0	MUSHROOM	934	n/a	n/a	0	n/a	0	0	0	0.422607421875	0.5869140625	0	lower	amplitud.ttf
4539856	START	n/a	LTP289	ltpFR	7	n/a	n/a	n/a	n/a	n/a	n/a	n/a	n/a	n/a	n/a	n/a	n/a	n/a	n/a	n/a	n/a
4540692	PROB	n/a	LTP289	ltpFR	7	n/a	n/a	n/a	n/a	n/a	n/a	n/a	14	8	1	5	n/a	n/a	n/a	n/a	n/a
4542817	PROB	n/a	LTP289	ltpFR	7	n/a	n/a	n/a	n/a	n/a	n/a	n/a	18	8	1	9	n/a	n/a	n/a	n/a	n/a
4545338	PROB	n/a	LTP289	ltpFR	7	n/a	n/a	n/a	n/a	n/a	n/a	n/a	12	5	6	1	n/a	n/a	n/a	n/a	n/a
4548500	PROB	n/a	LTP289	ltpFR	7	n/a	n/a	n/a	n/a	n/a	n/a	n/a	10	4	2	4	n/a	n/a	n/a	n/a	n/a
4551328	PROB	n/a	LTP289	ltpFR	7	n/a	n/a	n/a	n/a	n/a	n/a	n/a	16	7	8	1	n/a	n/a	n/a	n/a	n/a
4553369	PROB	n/a	LTP289	ltpFR	7	n/a	n/a	n/a	n/a	n/a	n/a	n/a	8	3	2	3	n/a	n/a	n/a	n/a	n/a
4555153	STOP	n/a	LTP289	ltpFR	7	n/a	n/a	n/a	n/a	n/a	n/a	n/a	n/a	n/a	n/a	n/a	n/a	n/a	n/a	n/a	n/a
4556853	WORD	wordpools/wasnorm_wordpool_less_exclusions.txt	LTP289	ltpFR	7	14	0	LANDSCAPE	799	n/a	n/a	1	n/a	0	0	0	0.422607421875	0.5869140625	0	lower	amplitud.ttf
4559865	START	n/a	LTP289	ltpFR	7	n/a	n/a	n/a	n/a	n/a	n/a	n/a	n/a	n/a	n/a	n/a	n/a	n/a	n/a	n/a	n/a
4561035	PROB	n/a	LTP289	ltpFR	7	n/a	n/a	n/a	n/a	n/a	n/a	n/a	4	1	2	1	n/a	n/a	n/a	n/a	n/a
4562787	PROB	n/a	LTP289	ltpFR	7	n/a	n/a	n/a	n/a	n/a	n/a	n/a	11	9	1	1	n/a	n/a	n/a	n/a	n/a
4564159	PROB	n/a	LTP289	ltpFR	7	n/a	n/a	n/a	n/a	n/a	n/a	n/a	18	8	9	1	n/a	n/a	n/a	n/a	n/a
4565698	PROB	n/a	LTP289	ltpFR	7	n/a	n/a	n/a	n/a	n/a	n/a	n/a	15	5	5	5	n/a	n/a	n/a	n/a	n/a
4567310	PROB	n/a	LTP289	ltpFR	7	n/a	n/a	n/a	n/a	n/a	n/a	n/a	11	2	8	1	n/a	n/a	n/a	n/a	n/a
4570238	PROB	n/a	LTP289	ltpFR	7	n/a	n/a	n/a	n/a	n/a	n/a	n/a	17	9	7	1	n/a	n/a	n/a	n/a	n/a
4573728	PROB	n/a	LTP289	ltpFR	7	n/a	n/a	n/a	n/a	n/a	n/a	n/a	18	7	8	3	n/a	n/a	n/a	n/a	n/a
4575728	STOP	n/a	LTP289	ltpFR	7	n/a	n/a	n/a	n/a	n/a	n/a	n/a	n/a	n/a	n/a	n/a	n/a	n/a	n/a	n/a	n/a
4577080	WORD	wordpools/wasnorm_wordpool_less_exclusions.txt	LTP289	ltpFR	7	14	0	BLADE	134	n/a	n/a	0	n/a	0	0	0	0.422607421875	0.5869140625	0	lower	amplitud.ttf
4580092	START	n/a	LTP289	ltpFR	7	n/a	n/a	n/a	n/a	n/a	n/a	n/a	n/a	n/a	n/a	n/a	n/a	n/a	n/a	n/a	n/a
4580994	PROB	n/a	LTP289	ltpFR	7	n/a	n/a	n/a	n/a	n/a	n/a	n/a	17	2	9	6	n/a	n/a	n/a	n/a	n/a
4582812	PROB	n/a	LTP289	ltpFR	7	n/a	n/a	n/a	n/a	n/a	n/a	n/a	15	5	3	7	n/a	n/a	n/a	n/a	n/a
4585189	PROB	n/a	LTP289	ltpFR	7	n/a	n/a	n/a	n/a	n/a	n/a	n/a	16	5	6	6	n/a	n/a	n/a	n/a	n/a
4587814	PROB	n/a	LTP289	ltpFR	7	n/a	n/a	n/a	n/a	n/a	n/a	n/a	14	4	9	1	n/a	n/a	n/a	n/a	n/a
4591846	PROB	n/a	LTP289	ltpFR	7	n/a	n/a	n/a	n/a	n/a	n/a	n/a	19	6	6	7	n/a	n/a	n/a	n/a	n/a
4594004	PROB	n/a	LTP289	ltpFR	7	n/a	n/a	n/a	n/a	n/a	n/a	n/a	19	1	9	9	n/a	n/a	n/a	n/a	n/a
4595497	STOP	n/a	LTP289	ltpFR	7	n/a	n/a	n/a	n/a	n/a	n/a	n/a	n/a	n/a	n/a	n/a	n/a	n/a	n/a	n/a	n/a
4597004	WORD	wordpools/wasnorm_wordpool_less_exclusions.txt	LTP289	ltpFR	7	14	0	TURTLE	1522	n/a	n/a	0	n/a	0	0	0	0.422607421875	0.5869140625	0	lower	amplitud.ttf
4600016	START	n/a	LTP289	ltpFR	7	n/a	n/a	n/a	n/a	n/a	n/a	n/a	n/a	n/a	n/a	n/a	n/a	n/a	n/a	n/a	n/a
4601138	PROB	n/a	LTP289	ltpFR	7	n/a	n/a	n/a	n/a	n/a	n/a	n/a	13	6	2	5	n/a	n/a	n/a	n/a	n/a
4603329	PROB	n/a	LTP289	ltpFR	7	n/a	n/a	n/a	n/a	n/a	n/a	n/a	11	1	9	1	n/a	n/a	n/a	n/a	n/a
4604650	PROB	n/a	LTP289	ltpFR	7	n/a	n/a	n/a	n/a	n/a	n/a	n/a	14	4	9	1	n/a	n/a	n/a	n/a	n/a
4606140	PROB	n/a	LTP289	ltpFR	7	n/a	n/a	n/a	n/a	n/a	n/a	n/a	16	5	3	8	n/a	n/a	n/a	n/a	n/a
4608029	PROB	n/a	LTP289	ltpFR	7	n/a	n/a	n/a	n/a	n/a	n/a	n/a	17	7	7	3	n/a	n/a	n/a	n/a	n/a
4610133	PROB	n/a	LTP289	ltpFR	7	n/a	n/a	n/a	n/a	n/a	n/a	n/a	16	2	5	7	n/a	n/a	n/a	n/a	n/a
4616015	STOP	n/a	LTP289	ltpFR	7	n/a	n/a	n/a	n/a	n/a	n/a	n/a	n/a	n/a	n/a	n/a	n/a	n/a	n/a	n/a	n/a
4616946	WORD	wordpools/wasnorm_wordpool_less_exclusions.txt	LTP289	ltpFR	7	14	0	SNAIL	1332	n/a	n/a	0	n/a	0	0	0	0.422607421875	0.5869140625	0	lower	amplitud.ttf
