mstime	trial_type	stim_file	subject	experiment	session	trial	task	item_name	item_num	recog_resp	recog_conf	resp	answer	test_x	test_y	test_z	color_r	color_g	color_b	case	font
0	SESS_START	n/a	LTP122	ltpFR	13	n/a	n/a	n/a	n/a	1	n/a	n/a	n/a	0	0	0	n/a	n/a	n/a	n/a	n/a
24189	START	n/a	LTP122	ltpFR	13	n/a	n/a	n/a	n/a	n/a	n/a	n/a	n/a	n/a	n/a	n/a	n/a	n/a	n/a	n/a	n/a
24213	PROB	n/a	LTP122	ltpFR	13	n/a	n/a	n/a	n/a	n/a	n/a	n/a	22	8	5	9	n/a	n/a	n/a	n/a	n/a
28400	PROB	n/a	LTP122	ltpFR	13	n/a	n/a	n/a	n/a	n/a	n/a	n/a	17	3	8	6	n/a	n/a	n/a	n/a	n/a
31047	PROB	n/a	LTP122	ltpFR	13	n/a	n/a	n/a	n/a	n/a	n/a	n/a	14	1	5	8	n/a	n/a	n/a	n/a	n/a
32604	PROB	n/a	LTP122	ltpFR	13	n/a	n/a	n/a	n/a	n/a	n/a	n/a	10	3	4	3	n/a	n/a	n/a	n/a	n/a
34252	PROB	n/a	LTP122	ltpFR	13	n/a	n/a	n/a	n/a	n/a	n/a	n/a	112	2	9	1	n/a	n/a	n/a	n/a	n/a
36166	PROB	n/a	LTP122	ltpFR	13	n/a	n/a	n/a	n/a	n/a	n/a	n/a	24	7	8	9	n/a	n/a	n/a	n/a	n/a
39138	PROB	n/a	LTP122	ltpFR	13	n/a	n/a	n/a	n/a	n/a	n/a	n/a	13	7	1	5	n/a	n/a	n/a	n/a	n/a
40502	PROB	n/a	LTP122	ltpFR	13	n/a	n/a	n/a	n/a	n/a	n/a	n/a	13	4	7	2	n/a	n/a	n/a	n/a	n/a
42718	STOP	n/a	LTP122	ltpFR	13	n/a	n/a	n/a	n/a	n/a	n/a	n/a	n/a	n/a	n/a	n/a	n/a	n/a	n/a	n/a	n/a
69194	WORD	wordpools/wasnorm_wordpool.txt	LTP122	ltpFR	13	1	1	DRESS	495	n/a	n/a	0	n/a	0	0	0	0.422607421875	0.5869140625	0	upper	amplitud.ttf
73323	WORD	wordpools/wasnorm_wordpool.txt	LTP122	ltpFR	13	1	1	PEOPLE	1046	n/a	n/a	1	n/a	0	0	0	0.422607421875	0.5869140625	0	upper	amplitud.ttf
77293	WORD	wordpools/wasnorm_wordpool.txt	LTP122	ltpFR	13	1	0	PERSON	1052	n/a	n/a	1	n/a	0	0	0	0.57763671875	0.412841796875	1	lower	zerothre.ttf
81496	WORD	wordpools/wasnorm_wordpool.txt	LTP122	ltpFR	13	1	0	CAVE	263	n/a	n/a	1	n/a	0	0	0	0.57763671875	0.412841796875	1	lower	zerothre.ttf
85692	WORD	wordpools/wasnorm_wordpool.txt	LTP122	ltpFR	13	1	0	ANKLE	24	n/a	n/a	0	n/a	0	0	0	0.57763671875	0.412841796875	1	lower	zerothre.ttf
89820	WORD	wordpools/wasnorm_wordpool.txt	LTP122	ltpFR	13	1	0	MATTRESS	879	n/a	n/a	1	n/a	0	0	0	0.57763671875	0.412841796875	1	lower	zerothre.ttf
93957	WORD	wordpools/wasnorm_wordpool.txt	LTP122	ltpFR	13	1	0	FUNGUS	614	n/a	n/a	0	n/a	0	0	0	0.57763671875	0.412841796875	1	lower	zerothre.ttf
98136	WORD	wordpools/wasnorm_wordpool.txt	LTP122	ltpFR	13	1	1	HEEL	700	n/a	n/a	0	n/a	0	0	0	0.422607421875	0.5869140625	0	upper	amplitud.ttf
102123	WORD	wordpools/wasnorm_wordpool.txt	LTP122	ltpFR	13	1	1	JOURNAL	760	n/a	n/a	0	n/a	0	0	0	0.422607421875	0.5869140625	0	upper	amplitud.ttf
106227	WORD	wordpools/wasnorm_wordpool.txt	LTP122	ltpFR	13	1	1	TANK	1432	n/a	n/a	0	n/a	0	0	0	0.422607421875	0.5869140625	0	upper	amplitud.ttf
110222	WORD	wordpools/wasnorm_wordpool.txt	LTP122	ltpFR	13	1	1	FAUCET	555	n/a	n/a	0	n/a	0	0	0	0.422607421875	0.5869140625	0	upper	amplitud.ttf
114284	WORD	wordpools/wasnorm_wordpool.txt	LTP122	ltpFR	13	1	0	LIZARD	834	n/a	n/a	0	n/a	0	0	0	0.57763671875	0.412841796875	1	lower	zerothre.ttf
118254	WORD	wordpools/wasnorm_wordpool.txt	LTP122	ltpFR	13	1	0	ALMANAC	17	n/a	n/a	1	n/a	0	0	0	0.57763671875	0.412841796875	1	lower	zerothre.ttf
122133	WORD	wordpools/wasnorm_wordpool.txt	LTP122	ltpFR	13	1	0	AUTHOR	61	n/a	n/a	1	n/a	0	0	0	0.57763671875	0.412841796875	1	lower	zerothre.ttf
126020	WORD	wordpools/wasnorm_wordpool.txt	LTP122	ltpFR	13	1	1	SCRIBBLE	1256	n/a	n/a	0	n/a	0	0	0	0.422607421875	0.5869140625	0	upper	amplitud.ttf
130224	WORD	wordpools/wasnorm_wordpool.txt	LTP122	ltpFR	13	1	1	LADY	794	n/a	n/a	1	n/a	0	0	0	0.422607421875	0.5869140625	0	upper	amplitud.ttf
133229	START	n/a	LTP122	ltpFR	13	n/a	n/a	n/a	n/a	n/a	n/a	n/a	n/a	n/a	n/a	n/a	n/a	n/a	n/a	n/a	n/a
134086	PROB	n/a	LTP122	ltpFR	13	n/a	n/a	n/a	n/a	n/a	n/a	n/a	11	2	6	3	n/a	n/a	n/a	n/a	n/a
136042	PROB	n/a	LTP122	ltpFR	13	n/a	n/a	n/a	n/a	n/a	n/a	n/a	8	2	4	2	n/a	n/a	n/a	n/a	n/a
137765	PROB	n/a	LTP122	ltpFR	13	n/a	n/a	n/a	n/a	n/a	n/a	n/a	16	5	6	5	n/a	n/a	n/a	n/a	n/a
139943	STOP	n/a	LTP122	ltpFR	13	n/a	n/a	n/a	n/a	n/a	n/a	n/a	n/a	n/a	n/a	n/a	n/a	n/a	n/a	n/a	n/a
143026	REC_START	n/a	LTP122	ltpFR	13	1	n/a	n/a	n/a	n/a	n/a	n/a	n/a	0	0	0	n/a	n/a	n/a	n/a	n/a
144941	REC_WORD	wordpools/wasnorm_wordpool.txt	LTP122	ltpFR	13	1	1	DRESS	495	n/a	n/a	0	n/a	0	0	0	n/a	n/a	n/a	n/a	n/a
145929	REC_WORD	wordpools/wasnorm_wordpool.txt	LTP122	ltpFR	13	1	1	PEOPLE	1046	n/a	n/a	1	n/a	0	0	0	n/a	n/a	n/a	n/a	n/a
146842	REC_WORD	wordpools/wasnorm_wordpool.txt	LTP122	ltpFR	13	1	0	PERSON	1052	n/a	n/a	1	n/a	0	0	0	n/a	n/a	n/a	n/a	n/a
147640	REC_WORD	wordpools/wasnorm_wordpool.txt	LTP122	ltpFR	13	1	0	MATTRESS	879	n/a	n/a	1	n/a	0	0	0	n/a	n/a	n/a	n/a	n/a
150175	REC_WORD	wordpools/wasnorm_wordpool.txt	LTP122	ltpFR	13	1	1	TANK	1432	n/a	n/a	0	n/a	0	0	0	n/a	n/a	n/a	n/a	n/a
150623	REC_WORD	wordpools/wasnorm_wordpool.txt	LTP122	ltpFR	13	1	1	FAUCET	555	n/a	n/a	0	n/a	0	0	0	n/a	n/a	n/a	n/a	n/a
151426	REC_WORD	wordpools/wasnorm_wordpool.txt	LTP122	ltpFR	13	1	0	LIZARD	834	n/a	n/a	0	n/a	0	0	0	n/a	n/a	n/a	n/a	n/a
155657	REC_WORD	wordpools/wasnorm_wordpool.txt	LTP122	ltpFR	13	1	0	ANKLE	24	n/a	n/a	0	n/a	0	0	0	n/a	n/a	n/a	n/a	n/a
156398	REC_WORD	wordpools/wasnorm_wordpool.txt	LTP122	ltpFR	13	1	0	FUNGUS	614	n/a	n/a	0	n/a	0	0	0	n/a	n/a	n/a	n/a	n/a
157388	REC_WORD	wordpools/wasnorm_wordpool.txt	LTP122	ltpFR	13	1	1	HEEL	700	n/a	n/a	0	n/a	0	0	0	n/a	n/a	n/a	n/a	n/a
159418	REC_WORD	wordpools/wasnorm_wordpool.txt	LTP122	ltpFR	13	1	1	LADY	794	n/a	n/a	1	n/a	0	0	0	n/a	n/a	n/a	n/a	n/a
161125	REC_WORD	wordpools/wasnorm_wordpool.txt	LTP122	ltpFR	13	1	0	AUTHOR	61	n/a	n/a	1	n/a	0	0	0	n/a	n/a	n/a	n/a	n/a
162137	REC_WORD	wordpools/wasnorm_wordpool.txt	LTP122	ltpFR	13	1	1	JOURNAL	760	n/a	n/a	0	n/a	0	0	0	n/a	n/a	n/a	n/a	n/a
162886	REC_WORD	wordpools/wasnorm_wordpool.txt	LTP122	ltpFR	13	1	1	SCRIBBLE	1256	n/a	n/a	0	n/a	0	0	0	n/a	n/a	n/a	n/a	n/a
173647	REC_WORD	wordpools/wasnorm_wordpool.txt	LTP122	ltpFR	13	1	0	MATTRESS	879	n/a	n/a	1	n/a	0	0	0	n/a	n/a	n/a	n/a	n/a
181434	REC_WORD	wordpools/wasnorm_wordpool.txt	LTP122	ltpFR	13	1	0	AUTHOR	61	n/a	n/a	1	n/a	0	0	0	n/a	n/a	n/a	n/a	n/a
192354	REC_WORD	wordpools/wasnorm_wordpool.txt	LTP122	ltpFR	13	1	0	CAVE	263	n/a	n/a	1	n/a	0	0	0	n/a	n/a	n/a	n/a	n/a
224431	START	n/a	LTP122	ltpFR	13	n/a	n/a	n/a	n/a	n/a	n/a	n/a	n/a	n/a	n/a	n/a	n/a	n/a	n/a	n/a	n/a
225938	PROB	n/a	LTP122	ltpFR	13	n/a	n/a	n/a	n/a	n/a	n/a	n/a	16	6	1	9	n/a	n/a	n/a	n/a	n/a
227811	PROB	n/a	LTP122	ltpFR	13	n/a	n/a	n/a	n/a	n/a	n/a	n/a	14	5	4	5	n/a	n/a	n/a	n/a	n/a
229292	PROB	n/a	LTP122	ltpFR	13	n/a	n/a	n/a	n/a	n/a	n/a	n/a	11	2	6	3	n/a	n/a	n/a	n/a	n/a
231159	STOP	n/a	LTP122	ltpFR	13	n/a	n/a	n/a	n/a	n/a	n/a	n/a	n/a	n/a	n/a	n/a	n/a	n/a	n/a	n/a	n/a
233486	WORD	wordpools/wasnorm_wordpool.txt	LTP122	ltpFR	13	2	0	BARRACUDA	90	n/a	n/a	1	n/a	0	0	0	0.57763671875	0.412841796875	1	lower	zerothre.ttf
236492	START	n/a	LTP122	ltpFR	13	n/a	n/a	n/a	n/a	n/a	n/a	n/a	n/a	n/a	n/a	n/a	n/a	n/a	n/a	n/a	n/a
237515	PROB	n/a	LTP122	ltpFR	13	n/a	n/a	n/a	n/a	n/a	n/a	n/a	18	1	9	8	n/a	n/a	n/a	n/a	n/a
239089	PROB	n/a	LTP122	ltpFR	13	n/a	n/a	n/a	n/a	n/a	n/a	n/a	18	7	2	9	n/a	n/a	n/a	n/a	n/a
240862	PROB	n/a	LTP122	ltpFR	13	n/a	n/a	n/a	n/a	n/a	n/a	n/a	17	4	4	9	n/a	n/a	n/a	n/a	n/a
242385	PROB	n/a	LTP122	ltpFR	13	n/a	n/a	n/a	n/a	n/a	n/a	n/a	19	5	9	5	n/a	n/a	n/a	n/a	n/a
243887	STOP	n/a	LTP122	ltpFR	13	n/a	n/a	n/a	n/a	n/a	n/a	n/a	n/a	n/a	n/a	n/a	n/a	n/a	n/a	n/a	n/a
245590	WORD	wordpools/wasnorm_wordpool.txt	LTP122	ltpFR	13	2	0	COD	340	n/a	n/a	0	n/a	0	0	0	0.57763671875	0.412841796875	1	lower	zerothre.ttf
248595	START	n/a	LTP122	ltpFR	13	n/a	n/a	n/a	n/a	n/a	n/a	n/a	n/a	n/a	n/a	n/a	n/a	n/a	n/a	n/a	n/a
249552	PROB	n/a	LTP122	ltpFR	13	n/a	n/a	n/a	n/a	n/a	n/a	n/a	17	4	5	8	n/a	n/a	n/a	n/a	n/a
251691	PROB	n/a	LTP122	ltpFR	13	n/a	n/a	n/a	n/a	n/a	n/a	n/a	19	2	8	9	n/a	n/a	n/a	n/a	n/a
256595	STOP	n/a	LTP122	ltpFR	13	n/a	n/a	n/a	n/a	n/a	n/a	n/a	n/a	n/a	n/a	n/a	n/a	n/a	n/a	n/a	n/a
257651	WORD	wordpools/wasnorm_wordpool.txt	LTP122	ltpFR	13	2	0	LODGE	839	n/a	n/a	1	n/a	0	0	0	0.57763671875	0.412841796875	1	lower	zerothre.ttf
260656	START	n/a	LTP122	ltpFR	13	n/a	n/a	n/a	n/a	n/a	n/a	n/a	n/a	n/a	n/a	n/a	n/a	n/a	n/a	n/a	n/a
261638	PROB	n/a	LTP122	ltpFR	13	n/a	n/a	n/a	n/a	n/a	n/a	n/a	11	1	6	4	n/a	n/a	n/a	n/a	n/a
263344	PROB	n/a	LTP122	ltpFR	13	n/a	n/a	n/a	n/a	n/a	n/a	n/a	7	3	2	2	n/a	n/a	n/a	n/a	n/a
264776	PROB	n/a	LTP122	ltpFR	13	n/a	n/a	n/a	n/a	n/a	n/a	n/a	19	9	8	2	n/a	n/a	n/a	n/a	n/a
266757	PROB	n/a	LTP122	ltpFR	13	n/a	n/a	n/a	n/a	n/a	n/a	n/a	14	8	2	4	n/a	n/a	n/a	n/a	n/a
267967	STOP	n/a	LTP122	ltpFR	13	n/a	n/a	n/a	n/a	n/a	n/a	n/a	n/a	n/a	n/a	n/a	n/a	n/a	n/a	n/a	n/a
269778	WORD	wordpools/wasnorm_wordpool.txt	LTP122	ltpFR	13	2	0	JOINT	758	n/a	n/a	0	n/a	0	0	0	0.57763671875	0.412841796875	1	lower	zerothre.ttf
272784	START	n/a	LTP122	ltpFR	13	n/a	n/a	n/a	n/a	n/a	n/a	n/a	n/a	n/a	n/a	n/a	n/a	n/a	n/a	n/a	n/a
273741	PROB	n/a	LTP122	ltpFR	13	n/a	n/a	n/a	n/a	n/a	n/a	n/a	18	3	7	8	n/a	n/a	n/a	n/a	n/a
275330	PROB	n/a	LTP122	ltpFR	13	n/a	n/a	n/a	n/a	n/a	n/a	n/a	15	3	9	3	n/a	n/a	n/a	n/a	n/a
278468	PROB	n/a	LTP122	ltpFR	13	n/a	n/a	n/a	n/a	n/a	n/a	n/a	5	1	1	3	n/a	n/a	n/a	n/a	n/a
279767	STOP	n/a	LTP122	ltpFR	13	n/a	n/a	n/a	n/a	n/a	n/a	n/a	n/a	n/a	n/a	n/a	n/a	n/a	n/a	n/a	n/a
281623	WORD	wordpools/wasnorm_wordpool.txt	LTP122	ltpFR	13	2	0	SHOULDER	1294	n/a	n/a	0	n/a	0	0	0	0.57763671875	0.412841796875	1	lower	zerothre.ttf
284628	START	n/a	LTP122	ltpFR	13	n/a	n/a	n/a	n/a	n/a	n/a	n/a	n/a	n/a	n/a	n/a	n/a	n/a	n/a	n/a	n/a
285526	PROB	n/a	LTP122	ltpFR	13	n/a	n/a	n/a	n/a	n/a	n/a	n/a	12	8	3	1	n/a	n/a	n/a	n/a	n/a
287799	PROB	n/a	LTP122	ltpFR	13	n/a	n/a	n/a	n/a	n/a	n/a	n/a	17	8	6	3	n/a	n/a	n/a	n/a	n/a
289872	PROB	n/a	LTP122	ltpFR	13	n/a	n/a	n/a	n/a	n/a	n/a	n/a	14	7	2	5	n/a	n/a	n/a	n/a	n/a
291470	STOP	n/a	LTP122	ltpFR	13	n/a	n/a	n/a	n/a	n/a	n/a	n/a	n/a	n/a	n/a	n/a	n/a	n/a	n/a	n/a	n/a
293701	WORD	wordpools/wasnorm_wordpool.txt	LTP122	ltpFR	13	2	0	DIVER	476	n/a	n/a	1	n/a	0	0	0	0.57763671875	0.412841796875	1	lower	zerothre.ttf
296706	START	n/a	LTP122	ltpFR	13	n/a	n/a	n/a	n/a	n/a	n/a	n/a	n/a	n/a	n/a	n/a	n/a	n/a	n/a	n/a	n/a
297630	PROB	n/a	LTP122	ltpFR	13	n/a	n/a	n/a	n/a	n/a	n/a	n/a	16	4	6	6	n/a	n/a	n/a	n/a	n/a
299003	PROB	n/a	LTP122	ltpFR	13	n/a	n/a	n/a	n/a	n/a	n/a	n/a	8	1	1	6	n/a	n/a	n/a	n/a	n/a
300410	PROB	n/a	LTP122	ltpFR	13	n/a	n/a	n/a	n/a	n/a	n/a	n/a	25	8	9	8	n/a	n/a	n/a	n/a	n/a
303191	STOP	n/a	LTP122	ltpFR	13	n/a	n/a	n/a	n/a	n/a	n/a	n/a	n/a	n/a	n/a	n/a	n/a	n/a	n/a	n/a	n/a
305587	WORD	wordpools/wasnorm_wordpool.txt	LTP122	ltpFR	13	2	0	MERMAID	887	n/a	n/a	1	n/a	0	0	0	0.57763671875	0.412841796875	1	lower	zerothre.ttf
308592	START	n/a	LTP122	ltpFR	13	n/a	n/a	n/a	n/a	n/a	n/a	n/a	n/a	n/a	n/a	n/a	n/a	n/a	n/a	n/a	n/a
309699	PROB	n/a	LTP122	ltpFR	13	n/a	n/a	n/a	n/a	n/a	n/a	n/a	21	6	6	9	n/a	n/a	n/a	n/a	n/a
312546	PROB	n/a	LTP122	ltpFR	13	n/a	n/a	n/a	n/a	n/a	n/a	n/a	18	5	7	6	n/a	n/a	n/a	n/a	n/a
315783	STOP	n/a	LTP122	ltpFR	13	n/a	n/a	n/a	n/a	n/a	n/a	n/a	n/a	n/a	n/a	n/a	n/a	n/a	n/a	n/a	n/a
317656	WORD	wordpools/wasnorm_wordpool.txt	LTP122	ltpFR	13	2	0	DENTIST	447	n/a	n/a	1	n/a	0	0	0	0.57763671875	0.412841796875	1	lower	zerothre.ttf
320662	START	n/a	LTP122	ltpFR	13	n/a	n/a	n/a	n/a	n/a	n/a	n/a	n/a	n/a	n/a	n/a	n/a	n/a	n/a	n/a	n/a
321618	PROB	n/a	LTP122	ltpFR	13	n/a	n/a	n/a	n/a	n/a	n/a	n/a	12	6	2	4	n/a	n/a	n/a	n/a	n/a
324448	PROB	n/a	LTP122	ltpFR	13	n/a	n/a	n/a	n/a	n/a	n/a	n/a	19	9	2	8	n/a	n/a	n/a	n/a	n/a
326113	PROB	n/a	LTP122	ltpFR	13	n/a	n/a	n/a	n/a	n/a	n/a	n/a	21	9	7	5	n/a	n/a	n/a	n/a	n/a
328303	STOP	n/a	LTP122	ltpFR	13	n/a	n/a	n/a	n/a	n/a	n/a	n/a	n/a	n/a	n/a	n/a	n/a	n/a	n/a	n/a	n/a
329734	WORD	wordpools/wasnorm_wordpool.txt	LTP122	ltpFR	13	2	0	BONE	148	n/a	n/a	0	n/a	0	0	0	0.57763671875	0.412841796875	1	lower	zerothre.ttf
332739	START	n/a	LTP122	ltpFR	13	n/a	n/a	n/a	n/a	n/a	n/a	n/a	n/a	n/a	n/a	n/a	n/a	n/a	n/a	n/a	n/a
333796	PROB	n/a	LTP122	ltpFR	13	n/a	n/a	n/a	n/a	n/a	n/a	n/a	11	2	5	4	n/a	n/a	n/a	n/a	n/a
335752	PROB	n/a	LTP122	ltpFR	13	n/a	n/a	n/a	n/a	n/a	n/a	n/a	19	9	5	5	n/a	n/a	n/a	n/a	n/a
337117	PROB	n/a	LTP122	ltpFR	13	n/a	n/a	n/a	n/a	n/a	n/a	n/a	18	9	1	8	n/a	n/a	n/a	n/a	n/a
340739	STOP	n/a	LTP122	ltpFR	13	n/a	n/a	n/a	n/a	n/a	n/a	n/a	n/a	n/a	n/a	n/a	n/a	n/a	n/a	n/a	n/a
341720	WORD	wordpools/wasnorm_wordpool.txt	LTP122	ltpFR	13	2	0	SAUCER	1237	n/a	n/a	0	n/a	0	0	0	0.57763671875	0.412841796875	1	lower	zerothre.ttf
344725	START	n/a	LTP122	ltpFR	13	n/a	n/a	n/a	n/a	n/a	n/a	n/a	n/a	n/a	n/a	n/a	n/a	n/a	n/a	n/a	n/a
345799	PROB	n/a	LTP122	ltpFR	13	n/a	n/a	n/a	n/a	n/a	n/a	n/a	16	4	7	5	n/a	n/a	n/a	n/a	n/a
347680	PROB	n/a	LTP122	ltpFR	13	n/a	n/a	n/a	n/a	n/a	n/a	n/a	18	8	2	8	n/a	n/a	n/a	n/a	n/a
349353	PROB	n/a	LTP122	ltpFR	13	n/a	n/a	n/a	n/a	n/a	n/a	n/a	19	2	8	9	n/a	n/a	n/a	n/a	n/a
350926	PROB	n/a	LTP122	ltpFR	13	n/a	n/a	n/a	n/a	n/a	n/a	n/a	12	1	8	3	n/a	n/a	n/a	n/a	n/a
352183	STOP	n/a	LTP122	ltpFR	13	n/a	n/a	n/a	n/a	n/a	n/a	n/a	n/a	n/a	n/a	n/a	n/a	n/a	n/a	n/a	n/a
353581	WORD	wordpools/wasnorm_wordpool.txt	LTP122	ltpFR	13	2	0	SNAKE	1333	n/a	n/a	0	n/a	0	0	0	0.57763671875	0.412841796875	1	lower	zerothre.ttf
356587	START	n/a	LTP122	ltpFR	13	n/a	n/a	n/a	n/a	n/a	n/a	n/a	n/a	n/a	n/a	n/a	n/a	n/a	n/a	n/a	n/a
357776	PROB	n/a	LTP122	ltpFR	13	n/a	n/a	n/a	n/a	n/a	n/a	n/a	19	2	5	5	n/a	n/a	n/a	n/a	n/a
361131	PROB	n/a	LTP122	ltpFR	13	n/a	n/a	n/a	n/a	n/a	n/a	n/a	15	2	8	5	n/a	n/a	n/a	n/a	n/a
363079	STOP	n/a	LTP122	ltpFR	13	n/a	n/a	n/a	n/a	n/a	n/a	n/a	n/a	n/a	n/a	n/a	n/a	n/a	n/a	n/a	n/a
365409	WORD	wordpools/wasnorm_wordpool.txt	LTP122	ltpFR	13	2	0	EAGLE	512	n/a	n/a	1	n/a	0	0	0	0.57763671875	0.412841796875	1	lower	zerothre.ttf
368414	START	n/a	LTP122	ltpFR	13	n/a	n/a	n/a	n/a	n/a	n/a	n/a	n/a	n/a	n/a	n/a	n/a	n/a	n/a	n/a	n/a
369463	PROB	n/a	LTP122	ltpFR	13	n/a	n/a	n/a	n/a	n/a	n/a	n/a	21	9	7	5	n/a	n/a	n/a	n/a	n/a
372176	PROB	n/a	LTP122	ltpFR	13	n/a	n/a	n/a	n/a	n/a	n/a	n/a	17	5	7	5	n/a	n/a	n/a	n/a	n/a
374357	PROB	n/a	LTP122	ltpFR	13	n/a	n/a	n/a	n/a	n/a	n/a	n/a	17	5	7	5	n/a	n/a	n/a	n/a	n/a
375759	STOP	n/a	LTP122	ltpFR	13	n/a	n/a	n/a	n/a	n/a	n/a	n/a	n/a	n/a	n/a	n/a	n/a	n/a	n/a	n/a	n/a
377511	WORD	wordpools/wasnorm_wordpool.txt	LTP122	ltpFR	13	2	0	CONCRETE	361	n/a	n/a	1	n/a	0	0	0	0.57763671875	0.412841796875	1	lower	zerothre.ttf
380516	START	n/a	LTP122	ltpFR	13	n/a	n/a	n/a	n/a	n/a	n/a	n/a	n/a	n/a	n/a	n/a	n/a	n/a	n/a	n/a	n/a
381416	PROB	n/a	LTP122	ltpFR	13	n/a	n/a	n/a	n/a	n/a	n/a	n/a	16	3	9	4	n/a	n/a	n/a	n/a	n/a
383080	PROB	n/a	LTP122	ltpFR	13	n/a	n/a	n/a	n/a	n/a	n/a	n/a	11	4	4	3	n/a	n/a	n/a	n/a	n/a
384928	PROB	n/a	LTP122	ltpFR	13	n/a	n/a	n/a	n/a	n/a	n/a	n/a	7	4	2	1	n/a	n/a	n/a	n/a	n/a
388516	STOP	n/a	LTP122	ltpFR	13	n/a	n/a	n/a	n/a	n/a	n/a	n/a	n/a	n/a	n/a	n/a	n/a	n/a	n/a	n/a	n/a
389615	WORD	wordpools/wasnorm_wordpool.txt	LTP122	ltpFR	13	2	0	PAVEMENT	1028	n/a	n/a	1	n/a	0	0	0	0.57763671875	0.412841796875	1	lower	zerothre.ttf
392620	START	n/a	LTP122	ltpFR	13	n/a	n/a	n/a	n/a	n/a	n/a	n/a	n/a	n/a	n/a	n/a	n/a	n/a	n/a	n/a	n/a
393810	PROB	n/a	LTP122	ltpFR	13	n/a	n/a	n/a	n/a	n/a	n/a	n/a	17	3	7	7	n/a	n/a	n/a	n/a	n/a
395366	PROB	n/a	LTP122	ltpFR	13	n/a	n/a	n/a	n/a	n/a	n/a	n/a	18	7	2	9	n/a	n/a	n/a	n/a	n/a
396973	PROB	n/a	LTP122	ltpFR	13	n/a	n/a	n/a	n/a	n/a	n/a	n/a	13	3	6	4	n/a	n/a	n/a	n/a	n/a
398612	PROB	n/a	LTP122	ltpFR	13	n/a	n/a	n/a	n/a	n/a	n/a	n/a	9	1	4	4	n/a	n/a	n/a	n/a	n/a
400223	STOP	n/a	LTP122	ltpFR	13	n/a	n/a	n/a	n/a	n/a	n/a	n/a	n/a	n/a	n/a	n/a	n/a	n/a	n/a	n/a	n/a
401642	WORD	wordpools/wasnorm_wordpool.txt	LTP122	ltpFR	13	2	0	KNEE	784	n/a	n/a	0	n/a	0	0	0	0.57763671875	0.412841796875	1	lower	zerothre.ttf
404647	START	n/a	LTP122	ltpFR	13	n/a	n/a	n/a	n/a	n/a	n/a	n/a	n/a	n/a	n/a	n/a	n/a	n/a	n/a	n/a	n/a
405470	PROB	n/a	LTP122	ltpFR	13	n/a	n/a	n/a	n/a	n/a	n/a	n/a	15	1	6	8	n/a	n/a	n/a	n/a	n/a
407252	PROB	n/a	LTP122	ltpFR	13	n/a	n/a	n/a	n/a	n/a	n/a	n/a	11	9	1	1	n/a	n/a	n/a	n/a	n/a
408601	PROB	n/a	LTP122	ltpFR	13	n/a	n/a	n/a	n/a	n/a	n/a	n/a	8	5	1	2	n/a	n/a	n/a	n/a	n/a
410166	PROB	n/a	LTP122	ltpFR	13	n/a	n/a	n/a	n/a	n/a	n/a	n/a	8	1	5	2	n/a	n/a	n/a	n/a	n/a
411695	STOP	n/a	LTP122	ltpFR	13	n/a	n/a	n/a	n/a	n/a	n/a	n/a	n/a	n/a	n/a	n/a	n/a	n/a	n/a	n/a	n/a
413845	WORD	wordpools/wasnorm_wordpool.txt	LTP122	ltpFR	13	2	0	CHAMBER	277	n/a	n/a	1	n/a	0	0	0	0.57763671875	0.412841796875	1	lower	zerothre.ttf
416850	START	n/a	LTP122	ltpFR	13	n/a	n/a	n/a	n/a	n/a	n/a	n/a	n/a	n/a	n/a	n/a	n/a	n/a	n/a	n/a	n/a
417699	PROB	n/a	LTP122	ltpFR	13	n/a	n/a	n/a	n/a	n/a	n/a	n/a	11	2	7	2	n/a	n/a	n/a	n/a	n/a
419372	PROB	n/a	LTP122	ltpFR	13	n/a	n/a	n/a	n/a	n/a	n/a	n/a	22	4	9	9	n/a	n/a	n/a	n/a	n/a
421386	PROB	n/a	LTP122	ltpFR	13	n/a	n/a	n/a	n/a	n/a	n/a	n/a	20	9	5	6	n/a	n/a	n/a	n/a	n/a
424407	STOP	n/a	LTP122	ltpFR	13	n/a	n/a	n/a	n/a	n/a	n/a	n/a	n/a	n/a	n/a	n/a	n/a	n/a	n/a	n/a	n/a
426772	REC_START	n/a	LTP122	ltpFR	13	2	n/a	n/a	n/a	n/a	n/a	n/a	n/a	0	0	0	n/a	n/a	n/a	n/a	n/a
429486	REC_WORD	wordpools/wasnorm_wordpool.txt	LTP122	ltpFR	13	2	0	BARRACUDA	90	n/a	n/a	1	n/a	0	0	0	n/a	n/a	n/a	n/a	n/a
430384	REC_WORD	wordpools/wasnorm_wordpool.txt	LTP122	ltpFR	13	2	0	COD	340	n/a	n/a	0	n/a	0	0	0	n/a	n/a	n/a	n/a	n/a
431077	REC_WORD	wordpools/wasnorm_wordpool.txt	LTP122	ltpFR	13	2	0	SNAKE	1333	n/a	n/a	0	n/a	0	0	0	n/a	n/a	n/a	n/a	n/a
432140	REC_WORD	wordpools/wasnorm_wordpool.txt	LTP122	ltpFR	13	2	0	LODGE	839	n/a	n/a	1	n/a	0	0	0	n/a	n/a	n/a	n/a	n/a
432979	REC_WORD	wordpools/wasnorm_wordpool.txt	LTP122	ltpFR	13	2	0	PAVEMENT	1028	n/a	n/a	1	n/a	0	0	0	n/a	n/a	n/a	n/a	n/a
433681	REC_WORD	wordpools/wasnorm_wordpool.txt	LTP122	ltpFR	13	2	n/a	CEMENT	-1	n/a	n/a	n/a	n/a	0	0	0	n/a	n/a	n/a	n/a	n/a
436594	REC_WORD	wordpools/wasnorm_wordpool.txt	LTP122	ltpFR	13	2	0	JOINT	758	n/a	n/a	0	n/a	0	0	0	n/a	n/a	n/a	n/a	n/a
437497	REC_WORD	wordpools/wasnorm_wordpool.txt	LTP122	ltpFR	13	2	0	SHOULDER	1294	n/a	n/a	0	n/a	0	0	0	n/a	n/a	n/a	n/a	n/a
439248	REC_WORD	wordpools/wasnorm_wordpool.txt	LTP122	ltpFR	13	2	0	KNEE	784	n/a	n/a	0	n/a	0	0	0	n/a	n/a	n/a	n/a	n/a
440396	REC_WORD	wordpools/wasnorm_wordpool.txt	LTP122	ltpFR	13	2	0	DIVER	476	n/a	n/a	1	n/a	0	0	0	n/a	n/a	n/a	n/a	n/a
441195	REC_WORD	wordpools/wasnorm_wordpool.txt	LTP122	ltpFR	13	2	0	MERMAID	887	n/a	n/a	1	n/a	0	0	0	n/a	n/a	n/a	n/a	n/a
443713	REC_WORD	wordpools/wasnorm_wordpool.txt	LTP122	ltpFR	13	2	0	DENTIST	447	n/a	n/a	1	n/a	0	0	0	n/a	n/a	n/a	n/a	n/a
444676	REC_WORD	wordpools/wasnorm_wordpool.txt	LTP122	ltpFR	13	2	0	BONE	148	n/a	n/a	0	n/a	0	0	0	n/a	n/a	n/a	n/a	n/a
445354	REC_WORD	wordpools/wasnorm_wordpool.txt	LTP122	ltpFR	13	2	0	SAUCER	1237	n/a	n/a	0	n/a	0	0	0	n/a	n/a	n/a	n/a	n/a
446297	REC_WORD	wordpools/wasnorm_wordpool.txt	LTP122	ltpFR	13	2	0	CHAMBER	277	n/a	n/a	1	n/a	0	0	0	n/a	n/a	n/a	n/a	n/a
447150	REC_WORD	wordpools/wasnorm_wordpool.txt	LTP122	ltpFR	13	2	0	LODGE	839	n/a	n/a	1	n/a	0	0	0	n/a	n/a	n/a	n/a	n/a
449066	REC_WORD	wordpools/wasnorm_wordpool.txt	LTP122	ltpFR	13	2	0	EAGLE	512	n/a	n/a	1	n/a	0	0	0	n/a	n/a	n/a	n/a	n/a
517425	WORD	wordpools/wasnorm_wordpool.txt	LTP122	ltpFR	13	3	0	FUDGE	611	n/a	n/a	0	n/a	0	0	0	0.57763671875	0.412841796875	1	lower	zerothre.ttf
521494	WORD	wordpools/wasnorm_wordpool.txt	LTP122	ltpFR	13	3	0	OBOE	969	n/a	n/a	1	n/a	0	0	0	0.57763671875	0.412841796875	1	lower	zerothre.ttf
525382	WORD	wordpools/wasnorm_wordpool.txt	LTP122	ltpFR	13	3	0	TORTOISE	1486	n/a	n/a	1	n/a	0	0	0	0.57763671875	0.412841796875	1	lower	zerothre.ttf
529485	WORD	wordpools/wasnorm_wordpool.txt	LTP122	ltpFR	13	3	1	SCIENTIST	1249	n/a	n/a	1	n/a	0	0	0	0.422607421875	0.5869140625	0	upper	amplitud.ttf
533513	WORD	wordpools/wasnorm_wordpool.txt	LTP122	ltpFR	13	3	1	LABYRINTH	791	n/a	n/a	1	n/a	0	0	0	0.422607421875	0.5869140625	0	upper	amplitud.ttf
537418	WORD	wordpools/wasnorm_wordpool.txt	LTP122	ltpFR	13	3	1	MEAT	883	n/a	n/a	1	n/a	0	0	0	0.422607421875	0.5869140625	0	upper	amplitud.ttf
541230	WORD	wordpools/wasnorm_wordpool.txt	LTP122	ltpFR	13	3	1	DESSERT	453	n/a	n/a	0	n/a	0	0	0	0.422607421875	0.5869140625	0	upper	amplitud.ttf
545076	WORD	wordpools/wasnorm_wordpool.txt	LTP122	ltpFR	13	3	0	SHORTCAKE	1292	n/a	n/a	0	n/a	0	0	0	0.57763671875	0.412841796875	1	lower	zerothre.ttf
549021	WORD	wordpools/wasnorm_wordpool.txt	LTP122	ltpFR	13	3	0	MARKET	871	n/a	n/a	1	n/a	0	0	0	0.57763671875	0.412841796875	1	lower	zerothre.ttf
553100	WORD	wordpools/wasnorm_wordpool.txt	LTP122	ltpFR	13	3	0	BUTCHER	203	n/a	n/a	1	n/a	0	0	0	0.57763671875	0.412841796875	1	lower	zerothre.ttf
557104	WORD	wordpools/wasnorm_wordpool.txt	LTP122	ltpFR	13	3	1	SURGEON	1413	n/a	n/a	1	n/a	0	0	0	0.422607421875	0.5869140625	0	upper	amplitud.ttf
561132	WORD	wordpools/wasnorm_wordpool.txt	LTP122	ltpFR	13	3	1	PUZZLE	1146	n/a	n/a	0	n/a	0	0	0	0.422607421875	0.5869140625	0	upper	amplitud.ttf
565028	WORD	wordpools/wasnorm_wordpool.txt	LTP122	ltpFR	13	3	1	SERVER	1272	n/a	n/a	1	n/a	0	0	0	0.422607421875	0.5869140625	0	upper	amplitud.ttf
568873	WORD	wordpools/wasnorm_wordpool.txt	LTP122	ltpFR	13	3	1	POSSUM	1112	n/a	n/a	1	n/a	0	0	0	0.422607421875	0.5869140625	0	upper	amplitud.ttf
573052	WORD	wordpools/wasnorm_wordpool.txt	LTP122	ltpFR	13	3	0	THRONE	1461	n/a	n/a	1	n/a	0	0	0	0.57763671875	0.412841796875	1	lower	zerothre.ttf
576906	WORD	wordpools/wasnorm_wordpool.txt	LTP122	ltpFR	13	3	0	QUEEN	1149	n/a	n/a	1	n/a	0	0	0	0.57763671875	0.412841796875	1	lower	zerothre.ttf
582558	REC_START	n/a	LTP122	ltpFR	13	3	n/a	n/a	n/a	n/a	n/a	n/a	n/a	0	0	0	n/a	n/a	n/a	n/a	n/a
584084	REC_WORD_VV	wordpools/wasnorm_wordpool.txt	LTP122	ltpFR	13	3	n/a	<>	-1	n/a	n/a	n/a	n/a	0	0	0	n/a	n/a	n/a	n/a	n/a
588030	REC_WORD	wordpools/wasnorm_wordpool.txt	LTP122	ltpFR	13	3	0	FUDGE	611	n/a	n/a	0	n/a	0	0	0	n/a	n/a	n/a	n/a	n/a
589198	REC_WORD	wordpools/wasnorm_wordpool.txt	LTP122	ltpFR	13	3	0	OBOE	969	n/a	n/a	1	n/a	0	0	0	n/a	n/a	n/a	n/a	n/a
591483	REC_WORD	wordpools/wasnorm_wordpool.txt	LTP122	ltpFR	13	3	0	TORTOISE	1486	n/a	n/a	1	n/a	0	0	0	n/a	n/a	n/a	n/a	n/a
593737	REC_WORD	wordpools/wasnorm_wordpool.txt	LTP122	ltpFR	13	3	1	SCIENTIST	1249	n/a	n/a	1	n/a	0	0	0	n/a	n/a	n/a	n/a	n/a
594737	REC_WORD_VV	wordpools/wasnorm_wordpool.txt	LTP122	ltpFR	13	3	n/a	<>	-1	n/a	n/a	n/a	n/a	0	0	0	n/a	n/a	n/a	n/a	n/a
597389	REC_WORD	wordpools/wasnorm_wordpool.txt	LTP122	ltpFR	13	3	1	SURGEON	1413	n/a	n/a	1	n/a	0	0	0	n/a	n/a	n/a	n/a	n/a
599210	REC_WORD	wordpools/wasnorm_wordpool.txt	LTP122	ltpFR	13	3	1	LABYRINTH	791	n/a	n/a	1	n/a	0	0	0	n/a	n/a	n/a	n/a	n/a
602602	REC_WORD	wordpools/wasnorm_wordpool.txt	LTP122	ltpFR	13	3	1	MEAT	883	n/a	n/a	1	n/a	0	0	0	n/a	n/a	n/a	n/a	n/a
603435	REC_WORD	wordpools/wasnorm_wordpool.txt	LTP122	ltpFR	13	3	0	BUTCHER	203	n/a	n/a	1	n/a	0	0	0	n/a	n/a	n/a	n/a	n/a
603969	REC_WORD	wordpools/wasnorm_wordpool.txt	LTP122	ltpFR	13	3	0	MARKET	871	n/a	n/a	1	n/a	0	0	0	n/a	n/a	n/a	n/a	n/a
605196	REC_WORD	wordpools/wasnorm_wordpool.txt	LTP122	ltpFR	13	3	1	POSSUM	1112	n/a	n/a	1	n/a	0	0	0	n/a	n/a	n/a	n/a	n/a
605999	REC_WORD	wordpools/wasnorm_wordpool.txt	LTP122	ltpFR	13	3	0	THRONE	1461	n/a	n/a	1	n/a	0	0	0	n/a	n/a	n/a	n/a	n/a
606758	REC_WORD	wordpools/wasnorm_wordpool.txt	LTP122	ltpFR	13	3	0	QUEEN	1149	n/a	n/a	1	n/a	0	0	0	n/a	n/a	n/a	n/a	n/a
608170	REC_WORD	wordpools/wasnorm_wordpool.txt	LTP122	ltpFR	13	3	1	PUZZLE	1146	n/a	n/a	0	n/a	0	0	0	n/a	n/a	n/a	n/a	n/a
610664	REC_WORD	wordpools/wasnorm_wordpool.txt	LTP122	ltpFR	13	3	0	SHORTCAKE	1292	n/a	n/a	0	n/a	0	0	0	n/a	n/a	n/a	n/a	n/a
611352	REC_WORD	wordpools/wasnorm_wordpool.txt	LTP122	ltpFR	13	3	1	DESSERT	453	n/a	n/a	0	n/a	0	0	0	n/a	n/a	n/a	n/a	n/a
627974	REC_WORD	wordpools/wasnorm_wordpool.txt	LTP122	ltpFR	13	3	1	SERVER	1272	n/a	n/a	1	n/a	0	0	0	n/a	n/a	n/a	n/a	n/a
630159	REC_WORD	wordpools/wasnorm_wordpool.txt	LTP122	ltpFR	13	3	0	MARKET	871	n/a	n/a	1	n/a	0	0	0	n/a	n/a	n/a	n/a	n/a
669024	WORD	wordpools/wasnorm_wordpool.txt	LTP122	ltpFR	13	4	1	LACE	792	n/a	n/a	0	n/a	0	0	0	0.422607421875	0.5869140625	0	upper	amplitud.ttf
673127	WORD	wordpools/wasnorm_wordpool.txt	LTP122	ltpFR	13	4	1	GOWN	652	n/a	n/a	0	n/a	0	0	0	0.422607421875	0.5869140625	0	upper	amplitud.ttf
676965	WORD	wordpools/wasnorm_wordpool.txt	LTP122	ltpFR	13	4	1	CREW	406	n/a	n/a	1	n/a	0	0	0	0.422607421875	0.5869140625	0	upper	amplitud.ttf
681068	WORD	wordpools/wasnorm_wordpool.txt	LTP122	ltpFR	13	4	1	MINK	897	n/a	n/a	1	n/a	0	0	0	0.422607421875	0.5869140625	0	upper	amplitud.ttf
685155	WORD	wordpools/wasnorm_wordpool.txt	LTP122	ltpFR	13	4	1	BARTENDER	92	n/a	n/a	1	n/a	0	0	0	0.422607421875	0.5869140625	0	upper	amplitud.ttf
689159	WORD	wordpools/wasnorm_wordpool.txt	LTP122	ltpFR	13	4	1	COOLER	375	n/a	n/a	0	n/a	0	0	0	0.422607421875	0.5869140625	0	upper	amplitud.ttf
693021	WORD	wordpools/wasnorm_wordpool.txt	LTP122	ltpFR	13	4	1	TAVERN	1437	n/a	n/a	1	n/a	0	0	0	0.422607421875	0.5869140625	0	upper	amplitud.ttf
697183	WORD	wordpools/wasnorm_wordpool.txt	LTP122	ltpFR	13	4	1	PORT	1110	n/a	n/a	1	n/a	0	0	0	0.422607421875	0.5869140625	0	upper	amplitud.ttf
701336	WORD	wordpools/wasnorm_wordpool.txt	LTP122	ltpFR	13	4	1	CHAMPAGNE	278	n/a	n/a	1	n/a	0	0	0	0.422607421875	0.5869140625	0	upper	amplitud.ttf
705282	WORD	wordpools/wasnorm_wordpool.txt	LTP122	ltpFR	13	4	1	WALRUS	1585	n/a	n/a	1	n/a	0	0	0	0.422607421875	0.5869140625	0	upper	amplitud.ttf
709285	WORD	wordpools/wasnorm_wordpool.txt	LTP122	ltpFR	13	4	1	SKULL	1320	n/a	n/a	0	n/a	0	0	0	0.422607421875	0.5869140625	0	upper	amplitud.ttf
713156	WORD	wordpools/wasnorm_wordpool.txt	LTP122	ltpFR	13	4	1	PIER	1063	n/a	n/a	0	n/a	0	0	0	0.422607421875	0.5869140625	0	upper	amplitud.ttf
717168	WORD	wordpools/wasnorm_wordpool.txt	LTP122	ltpFR	13	4	1	SKIRT	1319	n/a	n/a	1	n/a	0	0	0	0.422607421875	0.5869140625	0	upper	amplitud.ttf
721038	WORD	wordpools/wasnorm_wordpool.txt	LTP122	ltpFR	13	4	1	OUTFIT	988	n/a	n/a	0	n/a	0	0	0	0.422607421875	0.5869140625	0	upper	amplitud.ttf
725167	WORD	wordpools/wasnorm_wordpool.txt	LTP122	ltpFR	13	4	1	REEF	1177	n/a	n/a	0	n/a	0	0	0	0.422607421875	0.5869140625	0	upper	amplitud.ttf
729287	WORD	wordpools/wasnorm_wordpool.txt	LTP122	ltpFR	13	4	1	MARINE	869	n/a	n/a	0	n/a	0	0	0	0.422607421875	0.5869140625	0	upper	amplitud.ttf
732292	START	n/a	LTP122	ltpFR	13	n/a	n/a	n/a	n/a	n/a	n/a	n/a	n/a	n/a	n/a	n/a	n/a	n/a	n/a	n/a	n/a
733416	PROB	n/a	LTP122	ltpFR	13	n/a	n/a	n/a	n/a	n/a	n/a	n/a	27	9	9	9	n/a	n/a	n/a	n/a	n/a
735430	PROB	n/a	LTP122	ltpFR	13	n/a	n/a	n/a	n/a	n/a	n/a	n/a	17	3	6	8	n/a	n/a	n/a	n/a	n/a
737028	PROB	n/a	LTP122	ltpFR	13	n/a	n/a	n/a	n/a	n/a	n/a	n/a	4	1	2	1	n/a	n/a	n/a	n/a	n/a
738534	PROB	n/a	LTP122	ltpFR	13	n/a	n/a	n/a	n/a	n/a	n/a	n/a	8	1	1	6	n/a	n/a	n/a	n/a	n/a
739958	PROB	n/a	LTP122	ltpFR	13	n/a	n/a	n/a	n/a	n/a	n/a	n/a	9	2	5	1	n/a	n/a	n/a	n/a	n/a
741332	PROB	n/a	LTP122	ltpFR	13	n/a	n/a	n/a	n/a	n/a	n/a	n/a	15	4	3	8	n/a	n/a	n/a	n/a	n/a
743887	PROB	n/a	LTP122	ltpFR	13	n/a	n/a	n/a	n/a	n/a	n/a	n/a	14	3	8	3	n/a	n/a	n/a	n/a	n/a
745860	PROB	n/a	LTP122	ltpFR	13	n/a	n/a	n/a	n/a	n/a	n/a	n/a	9	2	4	3	n/a	n/a	n/a	n/a	n/a
747759	STOP	n/a	LTP122	ltpFR	13	n/a	n/a	n/a	n/a	n/a	n/a	n/a	n/a	n/a	n/a	n/a	n/a	n/a	n/a	n/a	n/a
750047	REC_START	n/a	LTP122	ltpFR	13	4	n/a	n/a	n/a	n/a	n/a	n/a	n/a	0	0	0	n/a	n/a	n/a	n/a	n/a
750920	REC_WORD	wordpools/wasnorm_wordpool.txt	LTP122	ltpFR	13	4	1	LACE	792	n/a	n/a	0	n/a	0	0	0	n/a	n/a	n/a	n/a	n/a
751848	REC_WORD	wordpools/wasnorm_wordpool.txt	LTP122	ltpFR	13	4	1	GOWN	652	n/a	n/a	0	n/a	0	0	0	n/a	n/a	n/a	n/a	n/a
752680	REC_WORD	wordpools/wasnorm_wordpool.txt	LTP122	ltpFR	13	4	1	CREW	406	n/a	n/a	1	n/a	0	0	0	n/a	n/a	n/a	n/a	n/a
755774	REC_WORD	wordpools/wasnorm_wordpool.txt	LTP122	ltpFR	13	4	1	BARTENDER	92	n/a	n/a	1	n/a	0	0	0	n/a	n/a	n/a	n/a	n/a
757170	REC_WORD	wordpools/wasnorm_wordpool.txt	LTP122	ltpFR	13	4	1	COOLER	375	n/a	n/a	0	n/a	0	0	0	n/a	n/a	n/a	n/a	n/a
759460	REC_WORD	wordpools/wasnorm_wordpool.txt	LTP122	ltpFR	13	4	1	TAVERN	1437	n/a	n/a	1	n/a	0	0	0	n/a	n/a	n/a	n/a	n/a
760842	REC_WORD	wordpools/wasnorm_wordpool.txt	LTP122	ltpFR	13	4	1	PORT	1110	n/a	n/a	1	n/a	0	0	0	n/a	n/a	n/a	n/a	n/a
762008	REC_WORD	wordpools/wasnorm_wordpool.txt	LTP122	ltpFR	13	4	1	SKULL	1320	n/a	n/a	0	n/a	0	0	0	n/a	n/a	n/a	n/a	n/a
763955	REC_WORD	wordpools/wasnorm_wordpool.txt	LTP122	ltpFR	13	4	1	PIER	1063	n/a	n/a	0	n/a	0	0	0	n/a	n/a	n/a	n/a	n/a
764464	REC_WORD	wordpools/wasnorm_wordpool.txt	LTP122	ltpFR	13	4	1	WALRUS	1585	n/a	n/a	1	n/a	0	0	0	n/a	n/a	n/a	n/a	n/a
765002	REC_WORD	wordpools/wasnorm_wordpool.txt	LTP122	ltpFR	13	4	1	MARINE	869	n/a	n/a	0	n/a	0	0	0	n/a	n/a	n/a	n/a	n/a
765613	REC_WORD	wordpools/wasnorm_wordpool.txt	LTP122	ltpFR	13	4	1	REEF	1177	n/a	n/a	0	n/a	0	0	0	n/a	n/a	n/a	n/a	n/a
768934	REC_WORD	wordpools/wasnorm_wordpool.txt	LTP122	ltpFR	13	4	1	OUTFIT	988	n/a	n/a	0	n/a	0	0	0	n/a	n/a	n/a	n/a	n/a
770376	REC_WORD	wordpools/wasnorm_wordpool.txt	LTP122	ltpFR	13	4	1	SKIRT	1319	n/a	n/a	1	n/a	0	0	0	n/a	n/a	n/a	n/a	n/a
784164	REC_WORD	wordpools/wasnorm_wordpool.txt	LTP122	ltpFR	13	4	1	TAVERN	1437	n/a	n/a	1	n/a	0	0	0	n/a	n/a	n/a	n/a	n/a
804932	REC_WORD	wordpools/wasnorm_wordpool.txt	LTP122	ltpFR	13	4	1	CHAMPAGNE	278	n/a	n/a	1	n/a	0	0	0	n/a	n/a	n/a	n/a	n/a
831152	WORD	wordpools/wasnorm_wordpool.txt	LTP122	ltpFR	13	5	0	MANAGER	863	n/a	n/a	1	n/a	0	0	0	0.57763671875	0.412841796875	1	lower	zerothre.ttf
835181	WORD	wordpools/wasnorm_wordpool.txt	LTP122	ltpFR	13	5	0	PUPPY	1144	n/a	n/a	1	n/a	0	0	0	0.57763671875	0.412841796875	1	lower	zerothre.ttf
839068	WORD	wordpools/wasnorm_wordpool.txt	LTP122	ltpFR	13	5	0	OWNER	993	n/a	n/a	1	n/a	0	0	0	0.57763671875	0.412841796875	1	lower	zerothre.ttf
842947	WORD	wordpools/wasnorm_wordpool.txt	LTP122	ltpFR	13	5	0	BOTTLE	153	n/a	n/a	0	n/a	0	0	0	0.57763671875	0.412841796875	1	lower	zerothre.ttf
846826	WORD	wordpools/wasnorm_wordpool.txt	LTP122	ltpFR	13	5	1	DEODORANT	448	n/a	n/a	0	n/a	0	0	0	0.422607421875	0.5869140625	0	upper	amplitud.ttf
850796	WORD	wordpools/wasnorm_wordpool.txt	LTP122	ltpFR	13	5	1	WIDOW	1608	n/a	n/a	1	n/a	0	0	0	0.422607421875	0.5869140625	0	upper	amplitud.ttf
854675	WORD	wordpools/wasnorm_wordpool.txt	LTP122	ltpFR	13	5	1	CONTAINER	366	n/a	n/a	0	n/a	0	0	0	0.422607421875	0.5869140625	0	upper	amplitud.ttf
858870	WORD	wordpools/wasnorm_wordpool.txt	LTP122	ltpFR	13	5	0	OFFICE	972	n/a	n/a	1	n/a	0	0	0	0.57763671875	0.412841796875	1	lower	zerothre.ttf
862791	WORD	wordpools/wasnorm_wordpool.txt	LTP122	ltpFR	13	5	0	CONSUMER	365	n/a	n/a	1	n/a	0	0	0	0.57763671875	0.412841796875	1	lower	zerothre.ttf
866811	WORD	wordpools/wasnorm_wordpool.txt	LTP122	ltpFR	13	5	0	LIBRARY	816	n/a	n/a	1	n/a	0	0	0	0.57763671875	0.412841796875	1	lower	zerothre.ttf
870990	WORD	wordpools/wasnorm_wordpool.txt	LTP122	ltpFR	13	5	0	WRITER	1627	n/a	n/a	1	n/a	0	0	0	0.57763671875	0.412841796875	1	lower	zerothre.ttf
874877	WORD	wordpools/wasnorm_wordpool.txt	LTP122	ltpFR	13	5	1	CHEF	290	n/a	n/a	1	n/a	0	0	0	0.422607421875	0.5869140625	0	upper	amplitud.ttf
878914	WORD	wordpools/wasnorm_wordpool.txt	LTP122	ltpFR	13	5	1	WASHER	1592	n/a	n/a	1	n/a	0	0	0	0.422607421875	0.5869140625	0	upper	amplitud.ttf
882876	WORD	wordpools/wasnorm_wordpool.txt	LTP122	ltpFR	13	5	1	SNORKEL	1336	n/a	n/a	0	n/a	0	0	0	0.422607421875	0.5869140625	0	upper	amplitud.ttf
887029	WORD	wordpools/wasnorm_wordpool.txt	LTP122	ltpFR	13	5	1	WELL	1600	n/a	n/a	0	n/a	0	0	0	0.422607421875	0.5869140625	0	upper	amplitud.ttf
891075	WORD	wordpools/wasnorm_wordpool.txt	LTP122	ltpFR	13	5	1	POWDER	1117	n/a	n/a	0	n/a	0	0	0	0.422607421875	0.5869140625	0	upper	amplitud.ttf
894080	START	n/a	LTP122	ltpFR	13	n/a	n/a	n/a	n/a	n/a	n/a	n/a	n/a	n/a	n/a	n/a	n/a	n/a	n/a	n/a	n/a
895162	PROB	n/a	LTP122	ltpFR	13	n/a	n/a	n/a	n/a	n/a	n/a	n/a	16	3	8	5	n/a	n/a	n/a	n/a	n/a
897376	PROB	n/a	LTP122	ltpFR	13	n/a	n/a	n/a	n/a	n/a	n/a	n/a	22	9	8	5	n/a	n/a	n/a	n/a	n/a
900172	PROB	n/a	LTP122	ltpFR	13	n/a	n/a	n/a	n/a	n/a	n/a	n/a	16	9	5	2	n/a	n/a	n/a	n/a	n/a
901823	STOP	n/a	LTP122	ltpFR	13	n/a	n/a	n/a	n/a	n/a	n/a	n/a	n/a	n/a	n/a	n/a	n/a	n/a	n/a	n/a	n/a
903952	REC_START	n/a	LTP122	ltpFR	13	5	n/a	n/a	n/a	n/a	n/a	n/a	n/a	0	0	0	n/a	n/a	n/a	n/a	n/a
905174	REC_WORD	wordpools/wasnorm_wordpool.txt	LTP122	ltpFR	13	5	0	MANAGER	863	n/a	n/a	1	n/a	0	0	0	n/a	n/a	n/a	n/a	n/a
906232	REC_WORD	wordpools/wasnorm_wordpool.txt	LTP122	ltpFR	13	5	0	PUPPY	1144	n/a	n/a	1	n/a	0	0	0	n/a	n/a	n/a	n/a	n/a
907259	REC_WORD	wordpools/wasnorm_wordpool.txt	LTP122	ltpFR	13	5	0	OWNER	993	n/a	n/a	1	n/a	0	0	0	n/a	n/a	n/a	n/a	n/a
910127	REC_WORD	wordpools/wasnorm_wordpool.txt	LTP122	ltpFR	13	5	1	WIDOW	1608	n/a	n/a	1	n/a	0	0	0	n/a	n/a	n/a	n/a	n/a
910886	REC_WORD	wordpools/wasnorm_wordpool.txt	LTP122	ltpFR	13	5	1	DEODORANT	448	n/a	n/a	0	n/a	0	0	0	n/a	n/a	n/a	n/a	n/a
911609	REC_WORD	wordpools/wasnorm_wordpool.txt	LTP122	ltpFR	13	5	1	WELL	1600	n/a	n/a	0	n/a	0	0	0	n/a	n/a	n/a	n/a	n/a
912087	REC_WORD	wordpools/wasnorm_wordpool.txt	LTP122	ltpFR	13	5	1	SNORKEL	1336	n/a	n/a	0	n/a	0	0	0	n/a	n/a	n/a	n/a	n/a
913121	REC_WORD	wordpools/wasnorm_wordpool.txt	LTP122	ltpFR	13	5	1	POWDER	1117	n/a	n/a	0	n/a	0	0	0	n/a	n/a	n/a	n/a	n/a
915376	REC_WORD	wordpools/wasnorm_wordpool.txt	LTP122	ltpFR	13	5	1	CONTAINER	366	n/a	n/a	0	n/a	0	0	0	n/a	n/a	n/a	n/a	n/a
916219	REC_WORD	wordpools/wasnorm_wordpool.txt	LTP122	ltpFR	13	5	0	CONSUMER	365	n/a	n/a	1	n/a	0	0	0	n/a	n/a	n/a	n/a	n/a
917376	REC_WORD	wordpools/wasnorm_wordpool.txt	LTP122	ltpFR	13	5	0	OFFICE	972	n/a	n/a	1	n/a	0	0	0	n/a	n/a	n/a	n/a	n/a
918274	REC_WORD	wordpools/wasnorm_wordpool.txt	LTP122	ltpFR	13	5	0	LIBRARY	816	n/a	n/a	1	n/a	0	0	0	n/a	n/a	n/a	n/a	n/a
919112	REC_WORD	wordpools/wasnorm_wordpool.txt	LTP122	ltpFR	13	5	0	WRITER	1627	n/a	n/a	1	n/a	0	0	0	n/a	n/a	n/a	n/a	n/a
936568	REC_WORD	wordpools/wasnorm_wordpool.txt	LTP122	ltpFR	13	5	1	WASHER	1592	n/a	n/a	1	n/a	0	0	0	n/a	n/a	n/a	n/a	n/a
945143	REC_WORD	wordpools/wasnorm_wordpool.txt	LTP122	ltpFR	13	5	1	CHEF	290	n/a	n/a	1	n/a	0	0	0	n/a	n/a	n/a	n/a	n/a
969190	REC_WORD	wordpools/wasnorm_wordpool.txt	LTP122	ltpFR	13	5	1	DEODORANT	448	n/a	n/a	0	n/a	0	0	0	n/a	n/a	n/a	n/a	n/a
1000298	START	n/a	LTP122	ltpFR	13	n/a	n/a	n/a	n/a	n/a	n/a	n/a	n/a	n/a	n/a	n/a	n/a	n/a	n/a	n/a	n/a
1001805	PROB	n/a	LTP122	ltpFR	13	n/a	n/a	n/a	n/a	n/a	n/a	n/a	14	7	3	4	n/a	n/a	n/a	n/a	n/a
1003336	PROB	n/a	LTP122	ltpFR	13	n/a	n/a	n/a	n/a	n/a	n/a	n/a	20	4	8	8	n/a	n/a	n/a	n/a	n/a
1008298	STOP	n/a	LTP122	ltpFR	13	n/a	n/a	n/a	n/a	n/a	n/a	n/a	n/a	n/a	n/a	n/a	n/a	n/a	n/a	n/a	n/a
1009446	WORD	wordpools/wasnorm_wordpool.txt	LTP122	ltpFR	13	6	1	CHEST	295	n/a	n/a	0	n/a	0	0	0	0.422607421875	0.5869140625	0	upper	amplitud.ttf
1012451	START	n/a	LTP122	ltpFR	13	n/a	n/a	n/a	n/a	n/a	n/a	n/a	n/a	n/a	n/a	n/a	n/a	n/a	n/a	n/a	n/a
1013599	PROB	n/a	LTP122	ltpFR	13	n/a	n/a	n/a	n/a	n/a	n/a	n/a	20	7	9	4	n/a	n/a	n/a	n/a	n/a
1016221	PROB	n/a	LTP122	ltpFR	13	n/a	n/a	n/a	n/a	n/a	n/a	n/a	16	8	3	5	n/a	n/a	n/a	n/a	n/a
1020451	STOP	n/a	LTP122	ltpFR	13	n/a	n/a	n/a	n/a	n/a	n/a	n/a	n/a	n/a	n/a	n/a	n/a	n/a	n/a	n/a	n/a
1021573	WORD	wordpools/wasnorm_wordpool.txt	LTP122	ltpFR	13	6	1	SQUID	1361	n/a	n/a	1	n/a	0	0	0	0.422607421875	0.5869140625	0	upper	amplitud.ttf
1024579	START	n/a	LTP122	ltpFR	13	n/a	n/a	n/a	n/a	n/a	n/a	n/a	n/a	n/a	n/a	n/a	n/a	n/a	n/a	n/a	n/a
1025585	PROB	n/a	LTP122	ltpFR	13	n/a	n/a	n/a	n/a	n/a	n/a	n/a	19	7	3	9	n/a	n/a	n/a	n/a	n/a
1026925	PROB	n/a	LTP122	ltpFR	13	n/a	n/a	n/a	n/a	n/a	n/a	n/a	18	7	8	3	n/a	n/a	n/a	n/a	n/a
1028798	PROB	n/a	LTP122	ltpFR	13	n/a	n/a	n/a	n/a	n/a	n/a	n/a	17	2	8	7	n/a	n/a	n/a	n/a	n/a
1032579	STOP	n/a	LTP122	ltpFR	13	n/a	n/a	n/a	n/a	n/a	n/a	n/a	n/a	n/a	n/a	n/a	n/a	n/a	n/a	n/a	n/a
1033418	WORD	wordpools/wasnorm_wordpool.txt	LTP122	ltpFR	13	6	1	LOBSTER	837	n/a	n/a	1	n/a	0	0	0	0.422607421875	0.5869140625	0	upper	amplitud.ttf
1036423	START	n/a	LTP122	ltpFR	13	n/a	n/a	n/a	n/a	n/a	n/a	n/a	n/a	n/a	n/a	n/a	n/a	n/a	n/a	n/a	n/a
1037455	PROB	n/a	LTP122	ltpFR	13	n/a	n/a	n/a	n/a	n/a	n/a	n/a	13	5	4	4	n/a	n/a	n/a	n/a	n/a
1039244	PROB	n/a	LTP122	ltpFR	13	n/a	n/a	n/a	n/a	n/a	n/a	n/a	7	2	3	2	n/a	n/a	n/a	n/a	n/a
1040951	PROB	n/a	LTP122	ltpFR	13	n/a	n/a	n/a	n/a	n/a	n/a	n/a	15	5	9	1	n/a	n/a	n/a	n/a	n/a
1042481	PROB	n/a	LTP122	ltpFR	13	n/a	n/a	n/a	n/a	n/a	n/a	n/a	17	1	8	8	n/a	n/a	n/a	n/a	n/a
1043983	STOP	n/a	LTP122	ltpFR	13	n/a	n/a	n/a	n/a	n/a	n/a	n/a	n/a	n/a	n/a	n/a	n/a	n/a	n/a	n/a	n/a
1045287	WORD	wordpools/wasnorm_wordpool.txt	LTP122	ltpFR	13	6	1	THREAD	1460	n/a	n/a	0	n/a	0	0	0	0.422607421875	0.5869140625	0	upper	amplitud.ttf
1048293	START	n/a	LTP122	ltpFR	13	n/a	n/a	n/a	n/a	n/a	n/a	n/a	n/a	n/a	n/a	n/a	n/a	n/a	n/a	n/a	n/a
1049308	PROB	n/a	LTP122	ltpFR	13	n/a	n/a	n/a	n/a	n/a	n/a	n/a	17	4	5	8	n/a	n/a	n/a	n/a	n/a
1052155	PROB	n/a	LTP122	ltpFR	13	n/a	n/a	n/a	n/a	n/a	n/a	n/a	17	9	6	2	n/a	n/a	n/a	n/a	n/a
1053844	PROB	n/a	LTP122	ltpFR	13	n/a	n/a	n/a	n/a	n/a	n/a	n/a	11	7	2	2	n/a	n/a	n/a	n/a	n/a
1055583	STOP	n/a	LTP122	ltpFR	13	n/a	n/a	n/a	n/a	n/a	n/a	n/a	n/a	n/a	n/a	n/a	n/a	n/a	n/a	n/a	n/a
1057365	WORD	wordpools/wasnorm_wordpool.txt	LTP122	ltpFR	13	6	1	NUCLEUS	961	n/a	n/a	0	n/a	0	0	0	0.422607421875	0.5869140625	0	upper	amplitud.ttf
1060370	START	n/a	LTP122	ltpFR	13	n/a	n/a	n/a	n/a	n/a	n/a	n/a	n/a	n/a	n/a	n/a	n/a	n/a	n/a	n/a	n/a
1061344	PROB	n/a	LTP122	ltpFR	13	n/a	n/a	n/a	n/a	n/a	n/a	n/a	21	5	7	9	n/a	n/a	n/a	n/a	n/a
1068370	STOP	n/a	LTP122	ltpFR	13	n/a	n/a	n/a	n/a	n/a	n/a	n/a	n/a	n/a	n/a	n/a	n/a	n/a	n/a	n/a	n/a
1069401	WORD	wordpools/wasnorm_wordpool.txt	LTP122	ltpFR	13	6	1	DIRECTOR	471	n/a	n/a	1	n/a	0	0	0	0.422607421875	0.5869140625	0	upper	amplitud.ttf
1072406	START	n/a	LTP122	ltpFR	13	n/a	n/a	n/a	n/a	n/a	n/a	n/a	n/a	n/a	n/a	n/a	n/a	n/a	n/a	n/a	n/a
1073305	PROB	n/a	LTP122	ltpFR	13	n/a	n/a	n/a	n/a	n/a	n/a	n/a	16	7	5	4	n/a	n/a	n/a	n/a	n/a
1075169	PROB	n/a	LTP122	ltpFR	13	n/a	n/a	n/a	n/a	n/a	n/a	n/a	12	2	1	9	n/a	n/a	n/a	n/a	n/a
1076909	PROB	n/a	LTP122	ltpFR	13	n/a	n/a	n/a	n/a	n/a	n/a	n/a	18	3	6	9	n/a	n/a	n/a	n/a	n/a
1078416	PROB	n/a	LTP122	ltpFR	13	n/a	n/a	n/a	n/a	n/a	n/a	n/a	14	3	4	7	n/a	n/a	n/a	n/a	n/a
1079887	STOP	n/a	LTP122	ltpFR	13	n/a	n/a	n/a	n/a	n/a	n/a	n/a	n/a	n/a	n/a	n/a	n/a	n/a	n/a	n/a	n/a
1081304	WORD	wordpools/wasnorm_wordpool.txt	LTP122	ltpFR	13	6	1	HOME	712	n/a	n/a	1	n/a	0	0	0	0.422607421875	0.5869140625	0	upper	amplitud.ttf
1084309	START	n/a	LTP122	ltpFR	13	n/a	n/a	n/a	n/a	n/a	n/a	n/a	n/a	n/a	n/a	n/a	n/a	n/a	n/a	n/a	n/a
1085358	PROB	n/a	LTP122	ltpFR	13	n/a	n/a	n/a	n/a	n/a	n/a	n/a	17	8	7	2	n/a	n/a	n/a	n/a	n/a
1087439	PROB	n/a	LTP122	ltpFR	13	n/a	n/a	n/a	n/a	n/a	n/a	n/a	8	5	2	1	n/a	n/a	n/a	n/a	n/a
1092309	STOP	n/a	LTP122	ltpFR	13	n/a	n/a	n/a	n/a	n/a	n/a	n/a	n/a	n/a	n/a	n/a	n/a	n/a	n/a	n/a	n/a
1093373	WORD	wordpools/wasnorm_wordpool.txt	LTP122	ltpFR	13	6	1	TRAITOR	1495	n/a	n/a	1	n/a	0	0	0	0.422607421875	0.5869140625	0	upper	amplitud.ttf
1096379	START	n/a	LTP122	ltpFR	13	n/a	n/a	n/a	n/a	n/a	n/a	n/a	n/a	n/a	n/a	n/a	n/a	n/a	n/a	n/a	n/a
1097534	PROB	n/a	LTP122	ltpFR	13	n/a	n/a	n/a	n/a	n/a	n/a	n/a	20	6	8	6	n/a	n/a	n/a	n/a	n/a
1100232	PROB	n/a	LTP122	ltpFR	13	n/a	n/a	n/a	n/a	n/a	n/a	n/a	10	1	7	2	n/a	n/a	n/a	n/a	n/a
1101913	PROB	n/a	LTP122	ltpFR	13	n/a	n/a	n/a	n/a	n/a	n/a	n/a	15	6	7	2	n/a	n/a	n/a	n/a	n/a
1103526	STOP	n/a	LTP122	ltpFR	13	n/a	n/a	n/a	n/a	n/a	n/a	n/a	n/a	n/a	n/a	n/a	n/a	n/a	n/a	n/a	n/a
1105559	WORD	wordpools/wasnorm_wordpool.txt	LTP122	ltpFR	13	6	1	SCAPEGOAT	1244	n/a	n/a	1	n/a	0	0	0	0.422607421875	0.5869140625	0	upper	amplitud.ttf
1108565	START	n/a	LTP122	ltpFR	13	n/a	n/a	n/a	n/a	n/a	n/a	n/a	n/a	n/a	n/a	n/a	n/a	n/a	n/a	n/a	n/a
1109763	PROB	n/a	LTP122	ltpFR	13	n/a	n/a	n/a	n/a	n/a	n/a	n/a	10	6	2	2	n/a	n/a	n/a	n/a	n/a
1111561	PROB	n/a	LTP122	ltpFR	13	n/a	n/a	n/a	n/a	n/a	n/a	n/a	15	3	4	8	n/a	n/a	n/a	n/a	n/a
1113142	PROB	n/a	LTP122	ltpFR	13	n/a	n/a	n/a	n/a	n/a	n/a	n/a	11	1	6	4	n/a	n/a	n/a	n/a	n/a
1114957	PROB	n/a	LTP122	ltpFR	13	n/a	n/a	n/a	n/a	n/a	n/a	n/a	19	5	6	8	n/a	n/a	n/a	n/a	n/a
1116486	STOP	n/a	LTP122	ltpFR	13	n/a	n/a	n/a	n/a	n/a	n/a	n/a	n/a	n/a	n/a	n/a	n/a	n/a	n/a	n/a	n/a
1117670	WORD	wordpools/wasnorm_wordpool.txt	LTP122	ltpFR	13	6	1	NEEDLE	941	n/a	n/a	0	n/a	0	0	0	0.422607421875	0.5869140625	0	upper	amplitud.ttf
1120676	START	n/a	LTP122	ltpFR	13	n/a	n/a	n/a	n/a	n/a	n/a	n/a	n/a	n/a	n/a	n/a	n/a	n/a	n/a	n/a	n/a
1121782	PROB	n/a	LTP122	ltpFR	13	n/a	n/a	n/a	n/a	n/a	n/a	n/a	6	3	2	1	n/a	n/a	n/a	n/a	n/a
1123364	PROB	n/a	LTP122	ltpFR	13	n/a	n/a	n/a	n/a	n/a	n/a	n/a	16	7	8	1	n/a	n/a	n/a	n/a	n/a
1125037	PROB	n/a	LTP122	ltpFR	13	n/a	n/a	n/a	n/a	n/a	n/a	n/a	14	7	6	2	n/a	n/a	n/a	n/a	n/a
1128675	STOP	n/a	LTP122	ltpFR	13	n/a	n/a	n/a	n/a	n/a	n/a	n/a	n/a	n/a	n/a	n/a	n/a	n/a	n/a	n/a	n/a
1129598	WORD	wordpools/wasnorm_wordpool.txt	LTP122	ltpFR	13	6	1	SATURN	1236	n/a	n/a	1	n/a	0	0	0	0.422607421875	0.5869140625	0	upper	amplitud.ttf
1132603	START	n/a	LTP122	ltpFR	13	n/a	n/a	n/a	n/a	n/a	n/a	n/a	n/a	n/a	n/a	n/a	n/a	n/a	n/a	n/a	n/a
1133643	PROB	n/a	LTP122	ltpFR	13	n/a	n/a	n/a	n/a	n/a	n/a	n/a	16	3	9	4	n/a	n/a	n/a	n/a	n/a
1135616	PROB	n/a	LTP122	ltpFR	13	n/a	n/a	n/a	n/a	n/a	n/a	n/a	18	5	5	8	n/a	n/a	n/a	n/a	n/a
1137630	PROB	n/a	LTP122	ltpFR	13	n/a	n/a	n/a	n/a	n/a	n/a	n/a	12	4	3	5	n/a	n/a	n/a	n/a	n/a
1140439	STOP	n/a	LTP122	ltpFR	13	n/a	n/a	n/a	n/a	n/a	n/a	n/a	n/a	n/a	n/a	n/a	n/a	n/a	n/a	n/a	n/a
1141551	WORD	wordpools/wasnorm_wordpool.txt	LTP122	ltpFR	13	6	1	CARAVAN	242	n/a	n/a	1	n/a	0	0	0	0.422607421875	0.5869140625	0	upper	amplitud.ttf
1144556	START	n/a	LTP122	ltpFR	13	n/a	n/a	n/a	n/a	n/a	n/a	n/a	n/a	n/a	n/a	n/a	n/a	n/a	n/a	n/a	n/a
1145495	PROB	n/a	LTP122	ltpFR	13	n/a	n/a	n/a	n/a	n/a	n/a	n/a	15	4	4	7	n/a	n/a	n/a	n/a	n/a
1147910	PROB	n/a	LTP122	ltpFR	13	n/a	n/a	n/a	n/a	n/a	n/a	n/a	18	9	4	5	n/a	n/a	n/a	n/a	n/a
1149841	PROB	n/a	LTP122	ltpFR	13	n/a	n/a	n/a	n/a	n/a	n/a	n/a	10	3	2	5	n/a	n/a	n/a	n/a	n/a
1151103	STOP	n/a	LTP122	ltpFR	13	n/a	n/a	n/a	n/a	n/a	n/a	n/a	n/a	n/a	n/a	n/a	n/a	n/a	n/a	n/a	n/a
1153737	WORD	wordpools/wasnorm_wordpool.txt	LTP122	ltpFR	13	6	1	TEACHER	1440	n/a	n/a	1	n/a	0	0	0	0.422607421875	0.5869140625	0	upper	amplitud.ttf
1156742	START	n/a	LTP122	ltpFR	13	n/a	n/a	n/a	n/a	n/a	n/a	n/a	n/a	n/a	n/a	n/a	n/a	n/a	n/a	n/a	n/a
1157915	PROB	n/a	LTP122	ltpFR	13	n/a	n/a	n/a	n/a	n/a	n/a	n/a	19	9	9	1	n/a	n/a	n/a	n/a	n/a
1160745	PROB	n/a	LTP122	ltpFR	13	n/a	n/a	n/a	n/a	n/a	n/a	n/a	13	5	1	7	n/a	n/a	n/a	n/a	n/a
1162526	PROB	n/a	LTP122	ltpFR	13	n/a	n/a	n/a	n/a	n/a	n/a	n/a	19	7	9	3	n/a	n/a	n/a	n/a	n/a
1164559	STOP	n/a	LTP122	ltpFR	13	n/a	n/a	n/a	n/a	n/a	n/a	n/a	n/a	n/a	n/a	n/a	n/a	n/a	n/a	n/a	n/a
1165864	WORD	wordpools/wasnorm_wordpool.txt	LTP122	ltpFR	13	6	1	COMET	353	n/a	n/a	1	n/a	0	0	0	0.422607421875	0.5869140625	0	upper	amplitud.ttf
1168870	START	n/a	LTP122	ltpFR	13	n/a	n/a	n/a	n/a	n/a	n/a	n/a	n/a	n/a	n/a	n/a	n/a	n/a	n/a	n/a	n/a
1169801	PROB	n/a	LTP122	ltpFR	13	n/a	n/a	n/a	n/a	n/a	n/a	n/a	16	4	7	5	n/a	n/a	n/a	n/a	n/a
1171674	PROB	n/a	LTP122	ltpFR	13	n/a	n/a	n/a	n/a	n/a	n/a	n/a	22	9	9	4	n/a	n/a	n/a	n/a	n/a
1176870	STOP	n/a	LTP122	ltpFR	13	n/a	n/a	n/a	n/a	n/a	n/a	n/a	n/a	n/a	n/a	n/a	n/a	n/a	n/a	n/a	n/a
1177917	WORD	wordpools/wasnorm_wordpool.txt	LTP122	ltpFR	13	6	1	ROBOT	1200	n/a	n/a	1	n/a	0	0	0	0.422607421875	0.5869140625	0	upper	amplitud.ttf
1180922	START	n/a	LTP122	ltpFR	13	n/a	n/a	n/a	n/a	n/a	n/a	n/a	n/a	n/a	n/a	n/a	n/a	n/a	n/a	n/a	n/a
1181821	PROB	n/a	LTP122	ltpFR	13	n/a	n/a	n/a	n/a	n/a	n/a	n/a	11	3	5	3	n/a	n/a	n/a	n/a	n/a
1183727	PROB	n/a	LTP122	ltpFR	13	n/a	n/a	n/a	n/a	n/a	n/a	n/a	10	1	8	1	n/a	n/a	n/a	n/a	n/a
1185766	PROB	n/a	LTP122	ltpFR	13	n/a	n/a	n/a	n/a	n/a	n/a	n/a	21	7	8	6	n/a	n/a	n/a	n/a	n/a
1187639	STOP	n/a	LTP122	ltpFR	13	n/a	n/a	n/a	n/a	n/a	n/a	n/a	n/a	n/a	n/a	n/a	n/a	n/a	n/a	n/a	n/a
1190095	WORD	wordpools/wasnorm_wordpool.txt	LTP122	ltpFR	13	6	1	BUILDER	190	n/a	n/a	1	n/a	0	0	0	0.422607421875	0.5869140625	0	upper	amplitud.ttf
1193100	START	n/a	LTP122	ltpFR	13	n/a	n/a	n/a	n/a	n/a	n/a	n/a	n/a	n/a	n/a	n/a	n/a	n/a	n/a	n/a	n/a
1194248	PROB	n/a	LTP122	ltpFR	13	n/a	n/a	n/a	n/a	n/a	n/a	n/a	19	5	7	7	n/a	n/a	n/a	n/a	n/a
1195913	PROB	n/a	LTP122	ltpFR	13	n/a	n/a	n/a	n/a	n/a	n/a	n/a	17	3	8	6	n/a	n/a	n/a	n/a	n/a
1198085	PROB	n/a	LTP122	ltpFR	13	n/a	n/a	n/a	n/a	n/a	n/a	n/a	17	1	8	8	n/a	n/a	n/a	n/a	n/a
1201099	STOP	n/a	LTP122	ltpFR	13	n/a	n/a	n/a	n/a	n/a	n/a	n/a	n/a	n/a	n/a	n/a	n/a	n/a	n/a	n/a	n/a
1202947	REC_START	n/a	LTP122	ltpFR	13	6	n/a	n/a	n/a	n/a	n/a	n/a	n/a	0	0	0	n/a	n/a	n/a	n/a	n/a
1205576	REC_WORD	wordpools/wasnorm_wordpool.txt	LTP122	ltpFR	13	6	1	CHEST	295	n/a	n/a	0	n/a	0	0	0	n/a	n/a	n/a	n/a	n/a
1206388	REC_WORD	wordpools/wasnorm_wordpool.txt	LTP122	ltpFR	13	6	1	SQUID	1361	n/a	n/a	1	n/a	0	0	0	n/a	n/a	n/a	n/a	n/a
1207596	REC_WORD	wordpools/wasnorm_wordpool.txt	LTP122	ltpFR	13	6	1	LOBSTER	837	n/a	n/a	1	n/a	0	0	0	n/a	n/a	n/a	n/a	n/a
1210160	REC_WORD	wordpools/wasnorm_wordpool.txt	LTP122	ltpFR	13	6	1	THREAD	1460	n/a	n/a	0	n/a	0	0	0	n/a	n/a	n/a	n/a	n/a
1210914	REC_WORD	wordpools/wasnorm_wordpool.txt	LTP122	ltpFR	13	6	1	NEEDLE	941	n/a	n/a	0	n/a	0	0	0	n/a	n/a	n/a	n/a	n/a
1211711	REC_WORD	wordpools/wasnorm_wordpool.txt	LTP122	ltpFR	13	6	1	NUCLEUS	961	n/a	n/a	0	n/a	0	0	0	n/a	n/a	n/a	n/a	n/a
1216446	REC_WORD	wordpools/wasnorm_wordpool.txt	LTP122	ltpFR	13	6	1	TRAITOR	1495	n/a	n/a	1	n/a	0	0	0	n/a	n/a	n/a	n/a	n/a
1217029	REC_WORD	wordpools/wasnorm_wordpool.txt	LTP122	ltpFR	13	6	1	SCAPEGOAT	1244	n/a	n/a	1	n/a	0	0	0	n/a	n/a	n/a	n/a	n/a
1217962	REC_WORD	wordpools/wasnorm_wordpool.txt	LTP122	ltpFR	13	6	1	HOME	712	n/a	n/a	1	n/a	0	0	0	n/a	n/a	n/a	n/a	n/a
1219219	REC_WORD	wordpools/wasnorm_wordpool.txt	LTP122	ltpFR	13	6	1	DIRECTOR	471	n/a	n/a	1	n/a	0	0	0	n/a	n/a	n/a	n/a	n/a
1219988	REC_WORD	wordpools/wasnorm_wordpool.txt	LTP122	ltpFR	13	6	1	CARAVAN	242	n/a	n/a	1	n/a	0	0	0	n/a	n/a	n/a	n/a	n/a
1220915	REC_WORD	wordpools/wasnorm_wordpool.txt	LTP122	ltpFR	13	6	1	TEACHER	1440	n/a	n/a	1	n/a	0	0	0	n/a	n/a	n/a	n/a	n/a
1222682	REC_WORD	wordpools/wasnorm_wordpool.txt	LTP122	ltpFR	13	6	1	SATURN	1236	n/a	n/a	1	n/a	0	0	0	n/a	n/a	n/a	n/a	n/a
1223685	REC_WORD	wordpools/wasnorm_wordpool.txt	LTP122	ltpFR	13	6	1	COMET	353	n/a	n/a	1	n/a	0	0	0	n/a	n/a	n/a	n/a	n/a
1226074	REC_WORD	wordpools/wasnorm_wordpool.txt	LTP122	ltpFR	13	6	1	BUILDER	190	n/a	n/a	1	n/a	0	0	0	n/a	n/a	n/a	n/a	n/a
1279824	START	n/a	LTP122	ltpFR	13	n/a	n/a	n/a	n/a	n/a	n/a	n/a	n/a	n/a	n/a	n/a	n/a	n/a	n/a	n/a	n/a
1281330	PROB	n/a	LTP122	ltpFR	13	n/a	n/a	n/a	n/a	n/a	n/a	n/a	17	3	5	9	n/a	n/a	n/a	n/a	n/a
1283603	PROB	n/a	LTP122	ltpFR	13	n/a	n/a	n/a	n/a	n/a	n/a	n/a	13	3	8	2	n/a	n/a	n/a	n/a	n/a
1285609	PROB	n/a	LTP122	ltpFR	13	n/a	n/a	n/a	n/a	n/a	n/a	n/a	19	5	6	8	n/a	n/a	n/a	n/a	n/a
1287806	PROB	n/a	LTP122	ltpFR	13	n/a	n/a	n/a	n/a	n/a	n/a	n/a	13	3	9	1	n/a	n/a	n/a	n/a	n/a
1289646	PROB	n/a	LTP122	ltpFR	13	n/a	n/a	n/a	n/a	n/a	n/a	n/a	23	7	9	7	n/a	n/a	n/a	n/a	n/a
1295824	STOP	n/a	LTP122	ltpFR	13	n/a	n/a	n/a	n/a	n/a	n/a	n/a	n/a	n/a	n/a	n/a	n/a	n/a	n/a	n/a	n/a
1296654	WORD	wordpools/wasnorm_wordpool.txt	LTP122	ltpFR	13	7	0	LOAF	835	n/a	n/a	0	n/a	0	0	0	0.57763671875	0.412841796875	1	lower	zerothre.ttf
1299660	START	n/a	LTP122	ltpFR	13	n/a	n/a	n/a	n/a	n/a	n/a	n/a	n/a	n/a	n/a	n/a	n/a	n/a	n/a	n/a	n/a
1300724	PROB	n/a	LTP122	ltpFR	13	n/a	n/a	n/a	n/a	n/a	n/a	n/a	19	7	9	3	n/a	n/a	n/a	n/a	n/a
1302847	PROB	n/a	LTP122	ltpFR	13	n/a	n/a	n/a	n/a	n/a	n/a	n/a	8	4	3	1	n/a	n/a	n/a	n/a	n/a
1304254	PROB	n/a	LTP122	ltpFR	13	n/a	n/a	n/a	n/a	n/a	n/a	n/a	22	7	7	8	n/a	n/a	n/a	n/a	n/a
1308349	PROB	n/a	LTP122	ltpFR	13	n/a	n/a	n/a	n/a	n/a	n/a	n/a	17	7	5	5	n/a	n/a	n/a	n/a	n/a
1311121	PROB	n/a	LTP122	ltpFR	13	n/a	n/a	n/a	n/a	n/a	n/a	n/a	12	7	1	4	n/a	n/a	n/a	n/a	n/a
1312677	PROB	n/a	LTP122	ltpFR	13	n/a	n/a	n/a	n/a	n/a	n/a	n/a	7	1	5	1	n/a	n/a	n/a	n/a	n/a
1314231	STOP	n/a	LTP122	ltpFR	13	n/a	n/a	n/a	n/a	n/a	n/a	n/a	n/a	n/a	n/a	n/a	n/a	n/a	n/a	n/a	n/a
1316623	WORD	wordpools/wasnorm_wordpool.txt	LTP122	ltpFR	13	7	0	PAD	998	n/a	n/a	0	n/a	0	0	0	0.57763671875	0.412841796875	1	lower	zerothre.ttf
1319628	START	n/a	LTP122	ltpFR	13	n/a	n/a	n/a	n/a	n/a	n/a	n/a	n/a	n/a	n/a	n/a	n/a	n/a	n/a	n/a	n/a
1320552	PROB	n/a	LTP122	ltpFR	13	n/a	n/a	n/a	n/a	n/a	n/a	n/a	26	9	8	9	n/a	n/a	n/a	n/a	n/a
1323457	PROB	n/a	LTP122	ltpFR	13	n/a	n/a	n/a	n/a	n/a	n/a	n/a	13	4	5	4	n/a	n/a	n/a	n/a	n/a
1325429	PROB	n/a	LTP122	ltpFR	13	n/a	n/a	n/a	n/a	n/a	n/a	n/a	20	8	3	9	n/a	n/a	n/a	n/a	n/a
1328043	PROB	n/a	LTP122	ltpFR	13	n/a	n/a	n/a	n/a	n/a	n/a	n/a	12	1	9	2	n/a	n/a	n/a	n/a	n/a
1329433	PROB	n/a	LTP122	ltpFR	13	n/a	n/a	n/a	n/a	n/a	n/a	n/a	11	2	8	1	n/a	n/a	n/a	n/a	n/a
1330731	PROB	n/a	LTP122	ltpFR	13	n/a	n/a	n/a	n/a	n/a	n/a	n/a	5	2	2	1	n/a	n/a	n/a	n/a	n/a
1331955	PROB	n/a	LTP122	ltpFR	13	n/a	n/a	n/a	n/a	n/a	n/a	n/a	17	7	4	6	n/a	n/a	n/a	n/a	n/a
1334231	STOP	n/a	LTP122	ltpFR	13	n/a	n/a	n/a	n/a	n/a	n/a	n/a	n/a	n/a	n/a	n/a	n/a	n/a	n/a	n/a	n/a
1336699	WORD	wordpools/wasnorm_wordpool.txt	LTP122	ltpFR	13	7	0	COLT	349	n/a	n/a	1	n/a	0	0	0	0.57763671875	0.412841796875	1	lower	zerothre.ttf
1339705	START	n/a	LTP122	ltpFR	13	n/a	n/a	n/a	n/a	n/a	n/a	n/a	n/a	n/a	n/a	n/a	n/a	n/a	n/a	n/a	n/a
1340761	PROB	n/a	LTP122	ltpFR	13	n/a	n/a	n/a	n/a	n/a	n/a	n/a	15	1	5	9	n/a	n/a	n/a	n/a	n/a
1343558	PROB	n/a	LTP122	ltpFR	13	n/a	n/a	n/a	n/a	n/a	n/a	n/a	16	9	1	6	n/a	n/a	n/a	n/a	n/a
1345497	PROB	n/a	LTP122	ltpFR	13	n/a	n/a	n/a	n/a	n/a	n/a	n/a	17	6	7	4	n/a	n/a	n/a	n/a	n/a
1347179	PROB	n/a	LTP122	ltpFR	13	n/a	n/a	n/a	n/a	n/a	n/a	n/a	16	6	6	4	n/a	n/a	n/a	n/a	n/a
1349185	PROB	n/a	LTP122	ltpFR	13	n/a	n/a	n/a	n/a	n/a	n/a	n/a	7	1	2	4	n/a	n/a	n/a	n/a	n/a
1350775	PROB	n/a	LTP122	ltpFR	13	n/a	n/a	n/a	n/a	n/a	n/a	n/a	17	9	1	7	n/a	n/a	n/a	n/a	n/a
1352423	PROB	n/a	LTP122	ltpFR	13	n/a	n/a	n/a	n/a	n/a	n/a	n/a	17	6	5	6	n/a	n/a	n/a	n/a	n/a
1355705	STOP	n/a	LTP122	ltpFR	13	n/a	n/a	n/a	n/a	n/a	n/a	n/a	n/a	n/a	n/a	n/a	n/a	n/a	n/a	n/a	n/a
1356643	WORD	wordpools/wasnorm_wordpool.txt	LTP122	ltpFR	13	7	0	STABLE	1363	n/a	n/a	1	n/a	0	0	0	0.57763671875	0.412841796875	1	lower	zerothre.ttf
1359648	START	n/a	LTP122	ltpFR	13	n/a	n/a	n/a	n/a	n/a	n/a	n/a	n/a	n/a	n/a	n/a	n/a	n/a	n/a	n/a	n/a
1360464	PROB	n/a	LTP122	ltpFR	13	n/a	n/a	n/a	n/a	n/a	n/a	n/a	6	2	3	1	n/a	n/a	n/a	n/a	n/a
1361795	PROB	n/a	LTP122	ltpFR	13	n/a	n/a	n/a	n/a	n/a	n/a	n/a	20	6	9	5	n/a	n/a	n/a	n/a	n/a
1363702	PROB	n/a	LTP122	ltpFR	13	n/a	n/a	n/a	n/a	n/a	n/a	n/a	17	6	3	8	n/a	n/a	n/a	n/a	n/a
1365191	PROB	n/a	LTP122	ltpFR	13	n/a	n/a	n/a	n/a	n/a	n/a	n/a	8	2	4	2	n/a	n/a	n/a	n/a	n/a
1366740	PROB	n/a	LTP122	ltpFR	13	n/a	n/a	n/a	n/a	n/a	n/a	n/a	21	4	9	8	n/a	n/a	n/a	n/a	n/a
1374767	STOP	n/a	LTP122	ltpFR	13	n/a	n/a	n/a	n/a	n/a	n/a	n/a	n/a	n/a	n/a	n/a	n/a	n/a	n/a	n/a	n/a
1376511	WORD	wordpools/wasnorm_wordpool.txt	LTP122	ltpFR	13	7	1	INMATE	738	n/a	n/a	1	n/a	0	0	0	0.422607421875	0.5869140625	0	upper	amplitud.ttf
1379516	START	n/a	LTP122	ltpFR	13	n/a	n/a	n/a	n/a	n/a	n/a	n/a	n/a	n/a	n/a	n/a	n/a	n/a	n/a	n/a	n/a
1380399	PROB	n/a	LTP122	ltpFR	13	n/a	n/a	n/a	n/a	n/a	n/a	n/a	13	8	1	4	n/a	n/a	n/a	n/a	n/a
1382072	PROB	n/a	LTP122	ltpFR	13	n/a	n/a	n/a	n/a	n/a	n/a	n/a	11	2	3	6	n/a	n/a	n/a	n/a	n/a
1383603	PROB	n/a	LTP122	ltpFR	13	n/a	n/a	n/a	n/a	n/a	n/a	n/a	12	8	1	3	n/a	n/a	n/a	n/a	n/a
1385218	PROB	n/a	LTP122	ltpFR	13	n/a	n/a	n/a	n/a	n/a	n/a	n/a	15	4	6	5	n/a	n/a	n/a	n/a	n/a
1387166	PROB	n/a	LTP122	ltpFR	13	n/a	n/a	n/a	n/a	n/a	n/a	n/a	13	1	9	3	n/a	n/a	n/a	n/a	n/a
1388573	PROB	n/a	LTP122	ltpFR	13	n/a	n/a	n/a	n/a	n/a	n/a	n/a	22	8	9	5	n/a	n/a	n/a	n/a	n/a
1395516	STOP	n/a	LTP122	ltpFR	13	n/a	n/a	n/a	n/a	n/a	n/a	n/a	n/a	n/a	n/a	n/a	n/a	n/a	n/a	n/a	n/a
1396563	WORD	wordpools/wasnorm_wordpool.txt	LTP122	ltpFR	13	7	1	QUILT	1151	n/a	n/a	1	n/a	0	0	0	0.422607421875	0.5869140625	0	upper	amplitud.ttf
1399569	START	n/a	LTP122	ltpFR	13	n/a	n/a	n/a	n/a	n/a	n/a	n/a	n/a	n/a	n/a	n/a	n/a	n/a	n/a	n/a	n/a
1400459	PROB	n/a	LTP122	ltpFR	13	n/a	n/a	n/a	n/a	n/a	n/a	n/a	15	8	2	5	n/a	n/a	n/a	n/a	n/a
1402964	PROB	n/a	LTP122	ltpFR	13	n/a	n/a	n/a	n/a	n/a	n/a	n/a	13	7	3	3	n/a	n/a	n/a	n/a	n/a
1404271	PROB	n/a	LTP122	ltpFR	13	n/a	n/a	n/a	n/a	n/a	n/a	n/a	16	5	2	9	n/a	n/a	n/a	n/a	n/a
1406501	PROB	n/a	LTP122	ltpFR	13	n/a	n/a	n/a	n/a	n/a	n/a	n/a	13	3	1	9	n/a	n/a	n/a	n/a	n/a
1408266	PROB	n/a	LTP122	ltpFR	13	n/a	n/a	n/a	n/a	n/a	n/a	n/a	15	5	3	7	n/a	n/a	n/a	n/a	n/a
1409815	PROB	n/a	LTP122	ltpFR	13	n/a	n/a	n/a	n/a	n/a	n/a	n/a	11	3	2	6	n/a	n/a	n/a	n/a	n/a
1411654	PROB	n/a	LTP122	ltpFR	13	n/a	n/a	n/a	n/a	n/a	n/a	n/a	12	3	1	8	n/a	n/a	n/a	n/a	n/a
1415568	STOP	n/a	LTP122	ltpFR	13	n/a	n/a	n/a	n/a	n/a	n/a	n/a	n/a	n/a	n/a	n/a	n/a	n/a	n/a	n/a	n/a
1416590	WORD	wordpools/wasnorm_wordpool.txt	LTP122	ltpFR	13	7	1	PASTRY	1022	n/a	n/a	0	n/a	0	0	0	0.422607421875	0.5869140625	0	upper	amplitud.ttf
1419595	START	n/a	LTP122	ltpFR	13	n/a	n/a	n/a	n/a	n/a	n/a	n/a	n/a	n/a	n/a	n/a	n/a	n/a	n/a	n/a	n/a
1420510	PROB	n/a	LTP122	ltpFR	13	n/a	n/a	n/a	n/a	n/a	n/a	n/a	12	2	6	4	n/a	n/a	n/a	n/a	n/a
1423091	PROB	n/a	LTP122	ltpFR	13	n/a	n/a	n/a	n/a	n/a	n/a	n/a	17	4	7	6	n/a	n/a	n/a	n/a	n/a
1425230	PROB	n/a	LTP122	ltpFR	13	n/a	n/a	n/a	n/a	n/a	n/a	n/a	5	1	1	3	n/a	n/a	n/a	n/a	n/a
1426604	PROB	n/a	LTP122	ltpFR	13	n/a	n/a	n/a	n/a	n/a	n/a	n/a	16	5	2	9	n/a	n/a	n/a	n/a	n/a
1428135	PROB	n/a	LTP122	ltpFR	13	n/a	n/a	n/a	n/a	n/a	n/a	n/a	22	8	7	7	n/a	n/a	n/a	n/a	n/a
1431373	PROB	n/a	LTP122	ltpFR	13	n/a	n/a	n/a	n/a	n/a	n/a	n/a	14	3	3	8	n/a	n/a	n/a	n/a	n/a
1433238	PROB	n/a	LTP122	ltpFR	13	n/a	n/a	n/a	n/a	n/a	n/a	n/a	17	8	7	2	n/a	n/a	n/a	n/a	n/a
1435159	STOP	n/a	LTP122	ltpFR	13	n/a	n/a	n/a	n/a	n/a	n/a	n/a	n/a	n/a	n/a	n/a	n/a	n/a	n/a	n/a	n/a
1436592	WORD	wordpools/wasnorm_wordpool.txt	LTP122	ltpFR	13	7	1	FUGITIVE	612	n/a	n/a	1	n/a	0	0	0	0.422607421875	0.5869140625	0	upper	amplitud.ttf
1439597	START	n/a	LTP122	ltpFR	13	n/a	n/a	n/a	n/a	n/a	n/a	n/a	n/a	n/a	n/a	n/a	n/a	n/a	n/a	n/a	n/a
1440754	PROB	n/a	LTP122	ltpFR	13	n/a	n/a	n/a	n/a	n/a	n/a	n/a	9	1	3	5	n/a	n/a	n/a	n/a	n/a
1442534	PROB	n/a	LTP122	ltpFR	13	n/a	n/a	n/a	n/a	n/a	n/a	n/a	16	6	2	6	n/a	n/a	n/a	n/a	n/a
1445065	PROB	n/a	LTP122	ltpFR	13	n/a	n/a	n/a	n/a	n/a	n/a	n/a	21	7	6	8	n/a	n/a	n/a	n/a	n/a
1450792	PROB	n/a	LTP122	ltpFR	13	n/a	n/a	n/a	n/a	n/a	n/a	n/a	11	2	7	2	n/a	n/a	n/a	n/a	n/a
1452565	PROB	n/a	LTP122	ltpFR	13	n/a	n/a	n/a	n/a	n/a	n/a	n/a	19	5	7	7	n/a	n/a	n/a	n/a	n/a
1454615	STOP	n/a	LTP122	ltpFR	13	n/a	n/a	n/a	n/a	n/a	n/a	n/a	n/a	n/a	n/a	n/a	n/a	n/a	n/a	n/a	n/a
1456510	WORD	wordpools/wasnorm_wordpool.txt	LTP122	ltpFR	13	7	0	PLAQUE	1084	n/a	n/a	0	n/a	0	0	0	0.57763671875	0.412841796875	1	lower	zerothre.ttf
1459515	START	n/a	LTP122	ltpFR	13	n/a	n/a	n/a	n/a	n/a	n/a	n/a	n/a	n/a	n/a	n/a	n/a	n/a	n/a	n/a	n/a
1460639	PROB	n/a	LTP122	ltpFR	13	n/a	n/a	n/a	n/a	n/a	n/a	n/a	5	1	1	3	n/a	n/a	n/a	n/a	n/a
1462262	PROB	n/a	LTP122	ltpFR	13	n/a	n/a	n/a	n/a	n/a	n/a	n/a	16	6	6	4	n/a	n/a	n/a	n/a	n/a
1464002	PROB	n/a	LTP122	ltpFR	13	n/a	n/a	n/a	n/a	n/a	n/a	n/a	9	2	5	2	n/a	n/a	n/a	n/a	n/a
1465716	PROB	n/a	LTP122	ltpFR	13	n/a	n/a	n/a	n/a	n/a	n/a	n/a	11	2	7	2	n/a	n/a	n/a	n/a	n/a
1467756	PROB	n/a	LTP122	ltpFR	13	n/a	n/a	n/a	n/a	n/a	n/a	n/a	22	6	7	9	n/a	n/a	n/a	n/a	n/a
1470428	PROB	n/a	LTP122	ltpFR	13	n/a	n/a	n/a	n/a	n/a	n/a	n/a	13	8	4	1	n/a	n/a	n/a	n/a	n/a
1472067	PROB	n/a	LTP122	ltpFR	13	n/a	n/a	n/a	n/a	n/a	n/a	n/a	18	2	7	9	n/a	n/a	n/a	n/a	n/a
1473666	PROB	n/a	LTP122	ltpFR	13	n/a	n/a	n/a	n/a	n/a	n/a	n/a	11	3	7	1	n/a	n/a	n/a	n/a	n/a
1474831	STOP	n/a	LTP122	ltpFR	13	n/a	n/a	n/a	n/a	n/a	n/a	n/a	n/a	n/a	n/a	n/a	n/a	n/a	n/a	n/a	n/a
1476646	WORD	wordpools/wasnorm_wordpool.txt	LTP122	ltpFR	13	7	0	GIRAFFE	636	n/a	n/a	1	n/a	0	0	0	0.57763671875	0.412841796875	1	lower	zerothre.ttf
1479651	START	n/a	LTP122	ltpFR	13	n/a	n/a	n/a	n/a	n/a	n/a	n/a	n/a	n/a	n/a	n/a	n/a	n/a	n/a	n/a	n/a
1480608	PROB	n/a	LTP122	ltpFR	13	n/a	n/a	n/a	n/a	n/a	n/a	n/a	20	8	4	8	n/a	n/a	n/a	n/a	n/a
1482639	PROB	n/a	LTP122	ltpFR	13	n/a	n/a	n/a	n/a	n/a	n/a	n/a	10	3	6	1	n/a	n/a	n/a	n/a	n/a
1484104	PROB	n/a	LTP122	ltpFR	13	n/a	n/a	n/a	n/a	n/a	n/a	n/a	14	4	3	7	n/a	n/a	n/a	n/a	n/a
1485501	PROB	n/a	LTP122	ltpFR	13	n/a	n/a	n/a	n/a	n/a	n/a	n/a	15	1	9	5	n/a	n/a	n/a	n/a	n/a
1486850	PROB	n/a	LTP122	ltpFR	13	n/a	n/a	n/a	n/a	n/a	n/a	n/a	14	6	7	1	n/a	n/a	n/a	n/a	n/a
1488906	PROB	n/a	LTP122	ltpFR	13	n/a	n/a	n/a	n/a	n/a	n/a	n/a	9	5	1	3	n/a	n/a	n/a	n/a	n/a
1490463	PROB	n/a	LTP122	ltpFR	13	n/a	n/a	n/a	n/a	n/a	n/a	n/a	14	2	8	4	n/a	n/a	n/a	n/a	n/a
1491886	PROB	n/a	LTP122	ltpFR	13	n/a	n/a	n/a	n/a	n/a	n/a	n/a	18	9	3	6	n/a	n/a	n/a	n/a	n/a
1494271	STOP	n/a	LTP122	ltpFR	13	n/a	n/a	n/a	n/a	n/a	n/a	n/a	n/a	n/a	n/a	n/a	n/a	n/a	n/a	n/a	n/a
1496714	WORD	wordpools/wasnorm_wordpool.txt	LTP122	ltpFR	13	7	0	ELEPHANT	523	n/a	n/a	1	n/a	0	0	0	0.57763671875	0.412841796875	1	lower	zerothre.ttf
1499719	START	n/a	LTP122	ltpFR	13	n/a	n/a	n/a	n/a	n/a	n/a	n/a	n/a	n/a	n/a	n/a	n/a	n/a	n/a	n/a	n/a
1500601	PROB	n/a	LTP122	ltpFR	13	n/a	n/a	n/a	n/a	n/a	n/a	n/a	10	1	5	4	n/a	n/a	n/a	n/a	n/a
1502191	PROB	n/a	LTP122	ltpFR	13	n/a	n/a	n/a	n/a	n/a	n/a	n/a	14	3	6	5	n/a	n/a	n/a	n/a	n/a
1505494	PROB	n/a	LTP122	ltpFR	13	n/a	n/a	n/a	n/a	n/a	n/a	n/a	11	5	4	2	n/a	n/a	n/a	n/a	n/a
1507551	PROB	n/a	LTP122	ltpFR	13	n/a	n/a	n/a	n/a	n/a	n/a	n/a	19	7	9	3	n/a	n/a	n/a	n/a	n/a
1510340	PROB	n/a	LTP122	ltpFR	13	n/a	n/a	n/a	n/a	n/a	n/a	n/a	21	7	5	9	n/a	n/a	n/a	n/a	n/a
1515719	STOP	n/a	LTP122	ltpFR	13	n/a	n/a	n/a	n/a	n/a	n/a	n/a	n/a	n/a	n/a	n/a	n/a	n/a	n/a	n/a	n/a
1516666	WORD	wordpools/wasnorm_wordpool.txt	LTP122	ltpFR	13	7	0	GUM	672	n/a	n/a	0	n/a	0	0	0	0.57763671875	0.412841796875	1	lower	zerothre.ttf
1519671	START	n/a	LTP122	ltpFR	13	n/a	n/a	n/a	n/a	n/a	n/a	n/a	n/a	n/a	n/a	n/a	n/a	n/a	n/a	n/a	n/a
1520828	PROB	n/a	LTP122	ltpFR	13	n/a	n/a	n/a	n/a	n/a	n/a	n/a	24	8	9	7	n/a	n/a	n/a	n/a	n/a
1525447	PROB	n/a	LTP122	ltpFR	13	n/a	n/a	n/a	n/a	n/a	n/a	n/a	9	1	6	2	n/a	n/a	n/a	n/a	n/a
1527045	PROB	n/a	LTP122	ltpFR	13	n/a	n/a	n/a	n/a	n/a	n/a	n/a	6	1	3	2	n/a	n/a	n/a	n/a	n/a
1528760	PROB	n/a	LTP122	ltpFR	13	n/a	n/a	n/a	n/a	n/a	n/a	n/a	15	4	9	2	n/a	n/a	n/a	n/a	n/a
1530366	PROB	n/a	LTP122	ltpFR	13	n/a	n/a	n/a	n/a	n/a	n/a	n/a	6	3	1	2	n/a	n/a	n/a	n/a	n/a
1532505	PROB	n/a	LTP122	ltpFR	13	n/a	n/a	n/a	n/a	n/a	n/a	n/a	14	4	3	7	n/a	n/a	n/a	n/a	n/a
1534463	STOP	n/a	LTP122	ltpFR	13	n/a	n/a	n/a	n/a	n/a	n/a	n/a	n/a	n/a	n/a	n/a	n/a	n/a	n/a	n/a	n/a
1536693	WORD	wordpools/wasnorm_wordpool.txt	LTP122	ltpFR	13	7	1	STEAM	1375	n/a	n/a	0	n/a	0	0	0	0.422607421875	0.5869140625	0	upper	amplitud.ttf
1539698	START	n/a	LTP122	ltpFR	13	n/a	n/a	n/a	n/a	n/a	n/a	n/a	n/a	n/a	n/a	n/a	n/a	n/a	n/a	n/a	n/a
1540829	PROB	n/a	LTP122	ltpFR	13	n/a	n/a	n/a	n/a	n/a	n/a	n/a	13	4	8	1	n/a	n/a	n/a	n/a	n/a
1542378	PROB	n/a	LTP122	ltpFR	13	n/a	n/a	n/a	n/a	n/a	n/a	n/a	18	5	8	5	n/a	n/a	n/a	n/a	n/a
1544292	PROB	n/a	LTP122	ltpFR	13	n/a	n/a	n/a	n/a	n/a	n/a	n/a	9	5	3	1	n/a	n/a	n/a	n/a	n/a
1545857	PROB	n/a	LTP122	ltpFR	13	n/a	n/a	n/a	n/a	n/a	n/a	n/a	21	8	9	4	n/a	n/a	n/a	n/a	n/a
1548528	PROB	n/a	LTP122	ltpFR	13	n/a	n/a	n/a	n/a	n/a	n/a	n/a	17	9	3	5	n/a	n/a	n/a	n/a	n/a
1550517	PROB	n/a	LTP122	ltpFR	13	n/a	n/a	n/a	n/a	n/a	n/a	n/a	13	6	8	1	n/a	n/a	n/a	n/a	n/a
1552624	PROB	n/a	LTP122	ltpFR	13	n/a	n/a	n/a	n/a	n/a	n/a	n/a	12	8	3	1	n/a	n/a	n/a	n/a	n/a
1555494	STOP	n/a	LTP122	ltpFR	13	n/a	n/a	n/a	n/a	n/a	n/a	n/a	n/a	n/a	n/a	n/a	n/a	n/a	n/a	n/a	n/a
1556703	WORD	wordpools/wasnorm_wordpool.txt	LTP122	ltpFR	13	7	1	MASCARA	875	n/a	n/a	0	n/a	0	0	0	0.422607421875	0.5869140625	0	upper	amplitud.ttf
1559708	START	n/a	LTP122	ltpFR	13	n/a	n/a	n/a	n/a	n/a	n/a	n/a	n/a	n/a	n/a	n/a	n/a	n/a	n/a	n/a	n/a
1560623	PROB	n/a	LTP122	ltpFR	13	n/a	n/a	n/a	n/a	n/a	n/a	n/a	110	1	3	7	n/a	n/a	n/a	n/a	n/a
1564011	PROB	n/a	LTP122	ltpFR	13	n/a	n/a	n/a	n/a	n/a	n/a	n/a	6	4	1	1	n/a	n/a	n/a	n/a	n/a
1566042	PROB	n/a	LTP122	ltpFR	13	n/a	n/a	n/a	n/a	n/a	n/a	n/a	13	3	5	5	n/a	n/a	n/a	n/a	n/a
1569063	PROB	n/a	LTP122	ltpFR	13	n/a	n/a	n/a	n/a	n/a	n/a	n/a	16	8	3	5	n/a	n/a	n/a	n/a	n/a
1571452	PROB	n/a	LTP122	ltpFR	13	n/a	n/a	n/a	n/a	n/a	n/a	n/a	17	8	3	6	n/a	n/a	n/a	n/a	n/a
1573092	PROB	n/a	LTP122	ltpFR	13	n/a	n/a	n/a	n/a	n/a	n/a	n/a	11	3	7	1	n/a	n/a	n/a	n/a	n/a
1574367	STOP	n/a	LTP122	ltpFR	13	n/a	n/a	n/a	n/a	n/a	n/a	n/a	n/a	n/a	n/a	n/a	n/a	n/a	n/a	n/a	n/a
1576796	WORD	wordpools/wasnorm_wordpool.txt	LTP122	ltpFR	13	7	1	COCOON	339	n/a	n/a	0	n/a	0	0	0	0.422607421875	0.5869140625	0	upper	amplitud.ttf
1579801	START	n/a	LTP122	ltpFR	13	n/a	n/a	n/a	n/a	n/a	n/a	n/a	n/a	n/a	n/a	n/a	n/a	n/a	n/a	n/a	n/a
1580633	PROB	n/a	LTP122	ltpFR	13	n/a	n/a	n/a	n/a	n/a	n/a	n/a	13	8	4	1	n/a	n/a	n/a	n/a	n/a
1582772	PROB	n/a	LTP122	ltpFR	13	n/a	n/a	n/a	n/a	n/a	n/a	n/a	12	9	1	2	n/a	n/a	n/a	n/a	n/a
1584612	PROB	n/a	LTP122	ltpFR	13	n/a	n/a	n/a	n/a	n/a	n/a	n/a	12	3	8	1	n/a	n/a	n/a	n/a	n/a
1586959	PROB	n/a	LTP122	ltpFR	13	n/a	n/a	n/a	n/a	n/a	n/a	n/a	16	5	2	7	n/a	n/a	n/a	n/a	n/a
1588807	PROB	n/a	LTP122	ltpFR	13	n/a	n/a	n/a	n/a	n/a	n/a	n/a	13	9	1	3	n/a	n/a	n/a	n/a	n/a
1590813	PROB	n/a	LTP122	ltpFR	13	n/a	n/a	n/a	n/a	n/a	n/a	n/a	12	7	4	1	n/a	n/a	n/a	n/a	n/a
1592636	PROB	n/a	LTP122	ltpFR	13	n/a	n/a	n/a	n/a	n/a	n/a	n/a	11	1	2	8	n/a	n/a	n/a	n/a	n/a
1595800	STOP	n/a	LTP122	ltpFR	13	n/a	n/a	n/a	n/a	n/a	n/a	n/a	n/a	n/a	n/a	n/a	n/a	n/a	n/a	n/a	n/a
1596615	WORD	wordpools/wasnorm_wordpool.txt	LTP122	ltpFR	13	7	1	DINOSAUR	469	n/a	n/a	1	n/a	0	0	0	0.422607421875	0.5869140625	0	upper	amplitud.ttf
1599620	START	n/a	LTP122	ltpFR	13	n/a	n/a	n/a	n/a	n/a	n/a	n/a	n/a	n/a	n/a	n/a	n/a	n/a	n/a	n/a	n/a
1600785	PROB	n/a	LTP122	ltpFR	13	n/a	n/a	n/a	n/a	n/a	n/a	n/a	24	7	9	8	n/a	n/a	n/a	n/a	n/a
1606670	PROB	n/a	LTP122	ltpFR	13	n/a	n/a	n/a	n/a	n/a	n/a	n/a	16	6	4	6	n/a	n/a	n/a	n/a	n/a
1608126	PROB	n/a	LTP122	ltpFR	13	n/a	n/a	n/a	n/a	n/a	n/a	n/a	15	5	8	2	n/a	n/a	n/a	n/a	n/a
1609858	PROB	n/a	LTP122	ltpFR	13	n/a	n/a	n/a	n/a	n/a	n/a	n/a	18	9	7	2	n/a	n/a	n/a	n/a	n/a
1611897	PROB	n/a	LTP122	ltpFR	13	n/a	n/a	n/a	n/a	n/a	n/a	n/a	15	7	3	5	n/a	n/a	n/a	n/a	n/a
1613212	PROB	n/a	LTP122	ltpFR	13	n/a	n/a	n/a	n/a	n/a	n/a	n/a	11	4	1	6	n/a	n/a	n/a	n/a	n/a
1614863	STOP	n/a	LTP122	ltpFR	13	n/a	n/a	n/a	n/a	n/a	n/a	n/a	n/a	n/a	n/a	n/a	n/a	n/a	n/a	n/a	n/a
1617349	REC_START	n/a	LTP122	ltpFR	13	7	n/a	n/a	n/a	n/a	n/a	n/a	n/a	0	0	0	n/a	n/a	n/a	n/a	n/a
1619479	REC_WORD	wordpools/wasnorm_wordpool.txt	LTP122	ltpFR	13	7	0	LOAF	835	n/a	n/a	0	n/a	0	0	0	n/a	n/a	n/a	n/a	n/a
1620407	REC_WORD	wordpools/wasnorm_wordpool.txt	LTP122	ltpFR	13	7	0	PAD	998	n/a	n/a	0	n/a	0	0	0	n/a	n/a	n/a	n/a	n/a
1621105	REC_WORD	wordpools/wasnorm_wordpool.txt	LTP122	ltpFR	13	7	1	QUILT	1151	n/a	n/a	1	n/a	0	0	0	n/a	n/a	n/a	n/a	n/a
1622038	REC_WORD	wordpools/wasnorm_wordpool.txt	LTP122	ltpFR	13	7	0	COLT	349	n/a	n/a	1	n/a	0	0	0	n/a	n/a	n/a	n/a	n/a
1623766	REC_WORD	wordpools/wasnorm_wordpool.txt	LTP122	ltpFR	13	7	0	STABLE	1363	n/a	n/a	1	n/a	0	0	0	n/a	n/a	n/a	n/a	n/a
1626318	REC_WORD	wordpools/wasnorm_wordpool.txt	LTP122	ltpFR	13	7	1	INMATE	738	n/a	n/a	1	n/a	0	0	0	n/a	n/a	n/a	n/a	n/a
1627226	REC_WORD	wordpools/wasnorm_wordpool.txt	LTP122	ltpFR	13	7	1	FUGITIVE	612	n/a	n/a	1	n/a	0	0	0	n/a	n/a	n/a	n/a	n/a
1628728	REC_WORD	wordpools/wasnorm_wordpool.txt	LTP122	ltpFR	13	7	1	PASTRY	1022	n/a	n/a	0	n/a	0	0	0	n/a	n/a	n/a	n/a	n/a
1631053	REC_WORD	wordpools/wasnorm_wordpool.txt	LTP122	ltpFR	13	7	0	GIRAFFE	636	n/a	n/a	1	n/a	0	0	0	n/a	n/a	n/a	n/a	n/a
1631681	REC_WORD	wordpools/wasnorm_wordpool.txt	LTP122	ltpFR	13	7	1	MASCARA	875	n/a	n/a	0	n/a	0	0	0	n/a	n/a	n/a	n/a	n/a
1632400	REC_WORD	wordpools/wasnorm_wordpool.txt	LTP122	ltpFR	13	7	0	ELEPHANT	523	n/a	n/a	1	n/a	0	0	0	n/a	n/a	n/a	n/a	n/a
1633013	REC_WORD	wordpools/wasnorm_wordpool.txt	LTP122	ltpFR	13	7	1	STEAM	1375	n/a	n/a	0	n/a	0	0	0	n/a	n/a	n/a	n/a	n/a
1635034	REC_WORD	wordpools/wasnorm_wordpool.txt	LTP122	ltpFR	13	7	1	DINOSAUR	469	n/a	n/a	1	n/a	0	0	0	n/a	n/a	n/a	n/a	n/a
1635702	REC_WORD	wordpools/wasnorm_wordpool.txt	LTP122	ltpFR	13	7	1	COCOON	339	n/a	n/a	0	n/a	0	0	0	n/a	n/a	n/a	n/a	n/a
1647700	REC_WORD	wordpools/wasnorm_wordpool.txt	LTP122	ltpFR	13	7	0	GUM	672	n/a	n/a	0	n/a	0	0	0	n/a	n/a	n/a	n/a	n/a
1653322	REC_WORD	wordpools/wasnorm_wordpool.txt	LTP122	ltpFR	13	7	0	LOAF	835	n/a	n/a	0	n/a	0	0	0	n/a	n/a	n/a	n/a	n/a
1836062	WORD	wordpools/wasnorm_wordpool.txt	LTP122	ltpFR	13	8	1	MAT	877	n/a	n/a	0	n/a	0	0	0	0.422607421875	0.5869140625	0	upper	amplitud.ttf
1840132	WORD	wordpools/wasnorm_wordpool.txt	LTP122	ltpFR	13	8	1	CARPET	247	n/a	n/a	0	n/a	0	0	0	0.422607421875	0.5869140625	0	upper	amplitud.ttf
1844236	WORD	wordpools/wasnorm_wordpool.txt	LTP122	ltpFR	13	8	1	BOULEVARD	156	n/a	n/a	1	n/a	0	0	0	0.422607421875	0.5869140625	0	upper	amplitud.ttf
1848423	WORD	wordpools/wasnorm_wordpool.txt	LTP122	ltpFR	13	8	1	OWL	992	n/a	n/a	1	n/a	0	0	0	0.422607421875	0.5869140625	0	upper	amplitud.ttf
1852301	WORD	wordpools/wasnorm_wordpool.txt	LTP122	ltpFR	13	8	1	MARBLE	867	n/a	n/a	0	n/a	0	0	0	0.422607421875	0.5869140625	0	upper	amplitud.ttf
1856280	WORD	wordpools/wasnorm_wordpool.txt	LTP122	ltpFR	13	8	1	LENS	811	n/a	n/a	0	n/a	0	0	0	0.422607421875	0.5869140625	0	upper	amplitud.ttf
1860117	WORD	wordpools/wasnorm_wordpool.txt	LTP122	ltpFR	13	8	0	TAR	1435	n/a	n/a	0	n/a	0	0	0	0.57763671875	0.412841796875	1	lower	zerothre.ttf
1863996	WORD	wordpools/wasnorm_wordpool.txt	LTP122	ltpFR	13	8	0	ROCK	1201	n/a	n/a	0	n/a	0	0	0	0.57763671875	0.412841796875	1	lower	zerothre.ttf
1867883	WORD	wordpools/wasnorm_wordpool.txt	LTP122	ltpFR	13	8	0	TOURIST	1488	n/a	n/a	1	n/a	0	0	0	0.57763671875	0.412841796875	1	lower	zerothre.ttf
1872004	WORD	wordpools/wasnorm_wordpool.txt	LTP122	ltpFR	13	8	0	BASSINET	97	n/a	n/a	1	n/a	0	0	0	0.57763671875	0.412841796875	1	lower	zerothre.ttf
1875907	WORD	wordpools/wasnorm_wordpool.txt	LTP122	ltpFR	13	8	1	PUB	1135	n/a	n/a	0	n/a	0	0	0	0.422607421875	0.5869140625	0	upper	amplitud.ttf
1879953	WORD	wordpools/wasnorm_wordpool.txt	LTP122	ltpFR	13	8	1	DUNGEON	507	n/a	n/a	0	n/a	0	0	0	0.422607421875	0.5869140625	0	upper	amplitud.ttf
1883956	WORD	wordpools/wasnorm_wordpool.txt	LTP122	ltpFR	13	8	0	PRISONER	1128	n/a	n/a	1	n/a	0	0	0	0.57763671875	0.412841796875	1	lower	zerothre.ttf
1888143	WORD	wordpools/wasnorm_wordpool.txt	LTP122	ltpFR	13	8	0	DOLLAR	482	n/a	n/a	0	n/a	0	0	0	0.57763671875	0.412841796875	1	lower	zerothre.ttf
1892347	WORD	wordpools/wasnorm_wordpool.txt	LTP122	ltpFR	13	8	0	WHALE	1601	n/a	n/a	1	n/a	0	0	0	0.57763671875	0.412841796875	1	lower	zerothre.ttf
1896317	WORD	wordpools/wasnorm_wordpool.txt	LTP122	ltpFR	13	8	0	KEEPER	769	n/a	n/a	1	n/a	0	0	0	0.57763671875	0.412841796875	1	lower	zerothre.ttf
1902286	REC_START	n/a	LTP122	ltpFR	13	8	n/a	n/a	n/a	n/a	n/a	n/a	n/a	0	0	0	n/a	n/a	n/a	n/a	n/a
1904411	REC_WORD	wordpools/wasnorm_wordpool.txt	LTP122	ltpFR	13	8	1	MAT	877	n/a	n/a	0	n/a	0	0	0	n/a	n/a	n/a	n/a	n/a
1905269	REC_WORD	wordpools/wasnorm_wordpool.txt	LTP122	ltpFR	13	8	1	CARPET	247	n/a	n/a	0	n/a	0	0	0	n/a	n/a	n/a	n/a	n/a
1906157	REC_WORD	wordpools/wasnorm_wordpool.txt	LTP122	ltpFR	13	8	1	BOULEVARD	156	n/a	n/a	1	n/a	0	0	0	n/a	n/a	n/a	n/a	n/a
1906980	REC_WORD	wordpools/wasnorm_wordpool.txt	LTP122	ltpFR	13	8	0	TAR	1435	n/a	n/a	0	n/a	0	0	0	n/a	n/a	n/a	n/a	n/a
1907908	REC_WORD	wordpools/wasnorm_wordpool.txt	LTP122	ltpFR	13	8	1	OWL	992	n/a	n/a	1	n/a	0	0	0	n/a	n/a	n/a	n/a	n/a
1908631	REC_WORD	wordpools/wasnorm_wordpool.txt	LTP122	ltpFR	13	8	1	MARBLE	867	n/a	n/a	0	n/a	0	0	0	n/a	n/a	n/a	n/a	n/a
1909718	REC_WORD	wordpools/wasnorm_wordpool.txt	LTP122	ltpFR	13	8	n/a	STONE	1385	n/a	n/a	n/a	n/a	0	0	0	n/a	n/a	n/a	n/a	n/a
1910961	REC_WORD	wordpools/wasnorm_wordpool.txt	LTP122	ltpFR	13	8	1	LENS	811	n/a	n/a	0	n/a	0	0	0	n/a	n/a	n/a	n/a	n/a
1917895	REC_WORD	wordpools/wasnorm_wordpool.txt	LTP122	ltpFR	13	8	1	PUB	1135	n/a	n/a	0	n/a	0	0	0	n/a	n/a	n/a	n/a	n/a
1921173	REC_WORD	wordpools/wasnorm_wordpool.txt	LTP122	ltpFR	13	8	1	DUNGEON	507	n/a	n/a	0	n/a	0	0	0	n/a	n/a	n/a	n/a	n/a
1923582	REC_WORD	wordpools/wasnorm_wordpool.txt	LTP122	ltpFR	13	8	0	PRISONER	1128	n/a	n/a	1	n/a	0	0	0	n/a	n/a	n/a	n/a	n/a
1925363	REC_WORD	wordpools/wasnorm_wordpool.txt	LTP122	ltpFR	13	8	0	DOLLAR	482	n/a	n/a	0	n/a	0	0	0	n/a	n/a	n/a	n/a	n/a
1927383	REC_WORD	wordpools/wasnorm_wordpool.txt	LTP122	ltpFR	13	8	0	KEEPER	769	n/a	n/a	1	n/a	0	0	0	n/a	n/a	n/a	n/a	n/a
1928162	REC_WORD	wordpools/wasnorm_wordpool.txt	LTP122	ltpFR	13	8	0	WHALE	1601	n/a	n/a	1	n/a	0	0	0	n/a	n/a	n/a	n/a	n/a
1935356	REC_WORD	wordpools/wasnorm_wordpool.txt	LTP122	ltpFR	13	8	0	BASSINET	97	n/a	n/a	1	n/a	0	0	0	n/a	n/a	n/a	n/a	n/a
1936294	REC_WORD	wordpools/wasnorm_wordpool.txt	LTP122	ltpFR	13	8	0	TOURIST	1488	n/a	n/a	1	n/a	0	0	0	n/a	n/a	n/a	n/a	n/a
1942963	REC_WORD	wordpools/wasnorm_wordpool.txt	LTP122	ltpFR	13	8	n/a	BAR	-1	n/a	n/a	n/a	n/a	0	0	0	n/a	n/a	n/a	n/a	n/a
1974670	REC_WORD	wordpools/wasnorm_wordpool.txt	LTP122	ltpFR	13	8	1	CARPET	247	n/a	n/a	0	n/a	0	0	0	n/a	n/a	n/a	n/a	n/a
1979221	START	n/a	LTP122	ltpFR	13	n/a	n/a	n/a	n/a	n/a	n/a	n/a	n/a	n/a	n/a	n/a	n/a	n/a	n/a	n/a	n/a
1980728	PROB	n/a	LTP122	ltpFR	13	n/a	n/a	n/a	n/a	n/a	n/a	n/a	11	2	6	3	n/a	n/a	n/a	n/a	n/a
1983333	PROB	n/a	LTP122	ltpFR	13	n/a	n/a	n/a	n/a	n/a	n/a	n/a	24	7	9	8	n/a	n/a	n/a	n/a	n/a
1985863	PROB	n/a	LTP122	ltpFR	13	n/a	n/a	n/a	n/a	n/a	n/a	n/a	9	2	3	4	n/a	n/a	n/a	n/a	n/a
1987203	PROB	n/a	LTP122	ltpFR	13	n/a	n/a	n/a	n/a	n/a	n/a	n/a	13	6	4	3	n/a	n/a	n/a	n/a	n/a
1988352	PROB	n/a	LTP122	ltpFR	13	n/a	n/a	n/a	n/a	n/a	n/a	n/a	14	7	5	2	n/a	n/a	n/a	n/a	n/a
1990674	PROB	n/a	LTP122	ltpFR	13	n/a	n/a	n/a	n/a	n/a	n/a	n/a	10	6	1	3	n/a	n/a	n/a	n/a	n/a
1992406	PROB	n/a	LTP122	ltpFR	13	n/a	n/a	n/a	n/a	n/a	n/a	n/a	7	3	3	1	n/a	n/a	n/a	n/a	n/a
1993911	STOP	n/a	LTP122	ltpFR	13	n/a	n/a	n/a	n/a	n/a	n/a	n/a	n/a	n/a	n/a	n/a	n/a	n/a	n/a	n/a	n/a
1996409	WORD	wordpools/wasnorm_wordpool.txt	LTP122	ltpFR	13	9	1	FELLOW	558	n/a	n/a	1	n/a	0	0	0	0.422607421875	0.5869140625	0	upper	amplitud.ttf
1999415	START	n/a	LTP122	ltpFR	13	n/a	n/a	n/a	n/a	n/a	n/a	n/a	n/a	n/a	n/a	n/a	n/a	n/a	n/a	n/a	n/a
2000230	PROB	n/a	LTP122	ltpFR	13	n/a	n/a	n/a	n/a	n/a	n/a	n/a	17	8	8	1	n/a	n/a	n/a	n/a	n/a
2002594	PROB	n/a	LTP122	ltpFR	13	n/a	n/a	n/a	n/a	n/a	n/a	n/a	13	3	8	2	n/a	n/a	n/a	n/a	n/a
2005341	PROB	n/a	LTP122	ltpFR	13	n/a	n/a	n/a	n/a	n/a	n/a	n/a	10	3	2	5	n/a	n/a	n/a	n/a	n/a
2006922	PROB	n/a	LTP122	ltpFR	13	n/a	n/a	n/a	n/a	n/a	n/a	n/a	12	3	1	8	n/a	n/a	n/a	n/a	n/a
2008478	PROB	n/a	LTP122	ltpFR	13	n/a	n/a	n/a	n/a	n/a	n/a	n/a	13	6	6	1	n/a	n/a	n/a	n/a	n/a
2009869	PROB	n/a	LTP122	ltpFR	13	n/a	n/a	n/a	n/a	n/a	n/a	n/a	14	3	2	9	n/a	n/a	n/a	n/a	n/a
2011459	PROB	n/a	LTP122	ltpFR	13	n/a	n/a	n/a	n/a	n/a	n/a	n/a	14	2	7	5	n/a	n/a	n/a	n/a	n/a
2015415	STOP	n/a	LTP122	ltpFR	13	n/a	n/a	n/a	n/a	n/a	n/a	n/a	n/a	n/a	n/a	n/a	n/a	n/a	n/a	n/a	n/a
2016353	WORD	wordpools/wasnorm_wordpool.txt	LTP122	ltpFR	13	9	1	MAP	865	n/a	n/a	0	n/a	0	0	0	0.422607421875	0.5869140625	0	upper	amplitud.ttf
2019358	START	n/a	LTP122	ltpFR	13	n/a	n/a	n/a	n/a	n/a	n/a	n/a	n/a	n/a	n/a	n/a	n/a	n/a	n/a	n/a	n/a
2020298	PROB	n/a	LTP122	ltpFR	13	n/a	n/a	n/a	n/a	n/a	n/a	n/a	20	2	9	9	n/a	n/a	n/a	n/a	n/a
2023253	PROB	n/a	LTP122	ltpFR	13	n/a	n/a	n/a	n/a	n/a	n/a	n/a	13	5	6	2	n/a	n/a	n/a	n/a	n/a
2024685	PROB	n/a	LTP122	ltpFR	13	n/a	n/a	n/a	n/a	n/a	n/a	n/a	18	5	6	7	n/a	n/a	n/a	n/a	n/a
2027631	PROB	n/a	LTP122	ltpFR	13	n/a	n/a	n/a	n/a	n/a	n/a	n/a	10	3	6	1	n/a	n/a	n/a	n/a	n/a
2030012	PROB	n/a	LTP122	ltpFR	13	n/a	n/a	n/a	n/a	n/a	n/a	n/a	16	8	6	2	n/a	n/a	n/a	n/a	n/a
2032351	PROB	n/a	LTP122	ltpFR	13	n/a	n/a	n/a	n/a	n/a	n/a	n/a	16	4	5	7	n/a	n/a	n/a	n/a	n/a
2034239	STOP	n/a	LTP122	ltpFR	13	n/a	n/a	n/a	n/a	n/a	n/a	n/a	n/a	n/a	n/a	n/a	n/a	n/a	n/a	n/a	n/a
2036478	WORD	wordpools/wasnorm_wordpool.txt	LTP122	ltpFR	13	9	1	TYPEWRITER	1531	n/a	n/a	0	n/a	0	0	0	0.422607421875	0.5869140625	0	upper	amplitud.ttf
2039484	START	n/a	LTP122	ltpFR	13	n/a	n/a	n/a	n/a	n/a	n/a	n/a	n/a	n/a	n/a	n/a	n/a	n/a	n/a	n/a	n/a
2040342	PROB	n/a	LTP122	ltpFR	13	n/a	n/a	n/a	n/a	n/a	n/a	n/a	10	8	1	1	n/a	n/a	n/a	n/a	n/a
2042023	PROB	n/a	LTP122	ltpFR	13	n/a	n/a	n/a	n/a	n/a	n/a	n/a	23	8	7	8	n/a	n/a	n/a	n/a	n/a
2045852	PROB	n/a	LTP122	ltpFR	13	n/a	n/a	n/a	n/a	n/a	n/a	n/a	11	3	7	1	n/a	n/a	n/a	n/a	n/a
2048033	PROB	n/a	LTP122	ltpFR	13	n/a	n/a	n/a	n/a	n/a	n/a	n/a	11	4	1	6	n/a	n/a	n/a	n/a	n/a
2050047	PROB	n/a	LTP122	ltpFR	13	n/a	n/a	n/a	n/a	n/a	n/a	n/a	6	1	4	1	n/a	n/a	n/a	n/a	n/a
2052211	PROB	n/a	LTP122	ltpFR	13	n/a	n/a	n/a	n/a	n/a	n/a	n/a	11	1	3	7	n/a	n/a	n/a	n/a	n/a
2055484	STOP	n/a	LTP122	ltpFR	13	n/a	n/a	n/a	n/a	n/a	n/a	n/a	n/a	n/a	n/a	n/a	n/a	n/a	n/a	n/a	n/a
2056423	WORD	wordpools/wasnorm_wordpool.txt	LTP122	ltpFR	13	9	1	NOTEBOOK	959	n/a	n/a	0	n/a	0	0	0	0.422607421875	0.5869140625	0	upper	amplitud.ttf
2059428	START	n/a	LTP122	ltpFR	13	n/a	n/a	n/a	n/a	n/a	n/a	n/a	n/a	n/a	n/a	n/a	n/a	n/a	n/a	n/a	n/a
2060418	PROB	n/a	LTP122	ltpFR	13	n/a	n/a	n/a	n/a	n/a	n/a	n/a	7	2	3	2	n/a	n/a	n/a	n/a	n/a
2062366	PROB	n/a	LTP122	ltpFR	13	n/a	n/a	n/a	n/a	n/a	n/a	n/a	11	2	8	1	n/a	n/a	n/a	n/a	n/a
2064006	PROB	n/a	LTP122	ltpFR	13	n/a	n/a	n/a	n/a	n/a	n/a	n/a	19	7	8	4	n/a	n/a	n/a	n/a	n/a
2066195	PROB	n/a	LTP122	ltpFR	13	n/a	n/a	n/a	n/a	n/a	n/a	n/a	13	3	8	2	n/a	n/a	n/a	n/a	n/a
2067960	PROB	n/a	LTP122	ltpFR	13	n/a	n/a	n/a	n/a	n/a	n/a	n/a	17	2	7	8	n/a	n/a	n/a	n/a	n/a
2070673	PROB	n/a	LTP122	ltpFR	13	n/a	n/a	n/a	n/a	n/a	n/a	n/a	17	7	4	6	n/a	n/a	n/a	n/a	n/a
2075428	STOP	n/a	LTP122	ltpFR	13	n/a	n/a	n/a	n/a	n/a	n/a	n/a	n/a	n/a	n/a	n/a	n/a	n/a	n/a	n/a	n/a
2076350	WORD	wordpools/wasnorm_wordpool.txt	LTP122	ltpFR	13	9	1	NEWSPAPER	948	n/a	n/a	0	n/a	0	0	0	0.422607421875	0.5869140625	0	upper	amplitud.ttf
2079355	START	n/a	LTP122	ltpFR	13	n/a	n/a	n/a	n/a	n/a	n/a	n/a	n/a	n/a	n/a	n/a	n/a	n/a	n/a	n/a	n/a
2080404	PROB	n/a	LTP122	ltpFR	13	n/a	n/a	n/a	n/a	n/a	n/a	n/a	17	4	7	6	n/a	n/a	n/a	n/a	n/a
2083858	PROB	n/a	LTP122	ltpFR	13	n/a	n/a	n/a	n/a	n/a	n/a	n/a	13	5	4	4	n/a	n/a	n/a	n/a	n/a
2085439	PROB	n/a	LTP122	ltpFR	13	n/a	n/a	n/a	n/a	n/a	n/a	n/a	12	3	4	5	n/a	n/a	n/a	n/a	n/a
2087928	PROB	n/a	LTP122	ltpFR	13	n/a	n/a	n/a	n/a	n/a	n/a	n/a	17	6	2	9	n/a	n/a	n/a	n/a	n/a
2089759	PROB	n/a	LTP122	ltpFR	13	n/a	n/a	n/a	n/a	n/a	n/a	n/a	9	2	6	1	n/a	n/a	n/a	n/a	n/a
2091457	PROB	n/a	LTP122	ltpFR	13	n/a	n/a	n/a	n/a	n/a	n/a	n/a	22	5	8	9	n/a	n/a	n/a	n/a	n/a
2094159	STOP	n/a	LTP122	ltpFR	13	n/a	n/a	n/a	n/a	n/a	n/a	n/a	n/a	n/a	n/a	n/a	n/a	n/a	n/a	n/a	n/a
2096517	WORD	wordpools/wasnorm_wordpool.txt	LTP122	ltpFR	13	9	1	BASKET	95	n/a	n/a	0	n/a	0	0	0	0.422607421875	0.5869140625	0	upper	amplitud.ttf
2099522	START	n/a	LTP122	ltpFR	13	n/a	n/a	n/a	n/a	n/a	n/a	n/a	n/a	n/a	n/a	n/a	n/a	n/a	n/a	n/a	n/a
2100330	PROB	n/a	LTP122	ltpFR	13	n/a	n/a	n/a	n/a	n/a	n/a	n/a	8	4	2	2	n/a	n/a	n/a	n/a	n/a
2102619	PROB	n/a	LTP122	ltpFR	13	n/a	n/a	n/a	n/a	n/a	n/a	n/a	20	9	5	6	n/a	n/a	n/a	n/a	n/a
2105266	PROB	n/a	LTP122	ltpFR	13	n/a	n/a	n/a	n/a	n/a	n/a	n/a	9	2	3	4	n/a	n/a	n/a	n/a	n/a
2107106	PROB	n/a	LTP122	ltpFR	13	n/a	n/a	n/a	n/a	n/a	n/a	n/a	15	6	2	7	n/a	n/a	n/a	n/a	n/a
2109378	PROB	n/a	LTP122	ltpFR	13	n/a	n/a	n/a	n/a	n/a	n/a	n/a	17	6	8	3	n/a	n/a	n/a	n/a	n/a
2113107	PROB	n/a	LTP122	ltpFR	13	n/a	n/a	n/a	n/a	n/a	n/a	n/a	5	2	2	1	n/a	n/a	n/a	n/a	n/a
2114351	STOP	n/a	LTP122	ltpFR	13	n/a	n/a	n/a	n/a	n/a	n/a	n/a	n/a	n/a	n/a	n/a	n/a	n/a	n/a	n/a	n/a
2116420	WORD	wordpools/wasnorm_wordpool.txt	LTP122	ltpFR	13	9	1	FOE	587	n/a	n/a	1	n/a	0	0	0	0.422607421875	0.5869140625	0	upper	amplitud.ttf
2119425	START	n/a	LTP122	ltpFR	13	n/a	n/a	n/a	n/a	n/a	n/a	n/a	n/a	n/a	n/a	n/a	n/a	n/a	n/a	n/a	n/a
2120506	PROB	n/a	LTP122	ltpFR	13	n/a	n/a	n/a	n/a	n/a	n/a	n/a	23	5	9	9	n/a	n/a	n/a	n/a	n/a
2123545	PROB	n/a	LTP122	ltpFR	13	n/a	n/a	n/a	n/a	n/a	n/a	n/a	17	7	1	9	n/a	n/a	n/a	n/a	n/a
2125517	PROB	n/a	LTP122	ltpFR	13	n/a	n/a	n/a	n/a	n/a	n/a	n/a	11	1	4	6	n/a	n/a	n/a	n/a	n/a
2127208	PROB	n/a	LTP122	ltpFR	13	n/a	n/a	n/a	n/a	n/a	n/a	n/a	13	2	9	2	n/a	n/a	n/a	n/a	n/a
2130088	PROB	n/a	LTP122	ltpFR	13	n/a	n/a	n/a	n/a	n/a	n/a	n/a	20	8	8	4	n/a	n/a	n/a	n/a	n/a
2131802	PROB	n/a	LTP122	ltpFR	13	n/a	n/a	n/a	n/a	n/a	n/a	n/a	16	4	3	9	n/a	n/a	n/a	n/a	n/a
2135425	STOP	n/a	LTP122	ltpFR	13	n/a	n/a	n/a	n/a	n/a	n/a	n/a	n/a	n/a	n/a	n/a	n/a	n/a	n/a	n/a	n/a
2136512	WORD	wordpools/wasnorm_wordpool.txt	LTP122	ltpFR	13	9	1	STAPLE	1371	n/a	n/a	0	n/a	0	0	0	0.422607421875	0.5869140625	0	upper	amplitud.ttf
2139518	START	n/a	LTP122	ltpFR	13	n/a	n/a	n/a	n/a	n/a	n/a	n/a	n/a	n/a	n/a	n/a	n/a	n/a	n/a	n/a	n/a
2140600	PROB	n/a	LTP122	ltpFR	13	n/a	n/a	n/a	n/a	n/a	n/a	n/a	20	9	8	3	n/a	n/a	n/a	n/a	n/a
2143713	PROB	n/a	LTP122	ltpFR	13	n/a	n/a	n/a	n/a	n/a	n/a	n/a	4	1	2	1	n/a	n/a	n/a	n/a	n/a
2146036	PROB	n/a	LTP122	ltpFR	13	n/a	n/a	n/a	n/a	n/a	n/a	n/a	15	6	4	5	n/a	n/a	n/a	n/a	n/a
2147642	PROB	n/a	LTP122	ltpFR	13	n/a	n/a	n/a	n/a	n/a	n/a	n/a	19	9	2	8	n/a	n/a	n/a	n/a	n/a
2149390	PROB	n/a	LTP122	ltpFR	13	n/a	n/a	n/a	n/a	n/a	n/a	n/a	7	1	4	2	n/a	n/a	n/a	n/a	n/a
2152320	PROB	n/a	LTP122	ltpFR	13	n/a	n/a	n/a	n/a	n/a	n/a	n/a	20	4	8	8	n/a	n/a	n/a	n/a	n/a
2154287	STOP	n/a	LTP122	ltpFR	13	n/a	n/a	n/a	n/a	n/a	n/a	n/a	n/a	n/a	n/a	n/a	n/a	n/a	n/a	n/a	n/a
2156723	WORD	wordpools/wasnorm_wordpool.txt	LTP122	ltpFR	13	9	1	PATH	1023	n/a	n/a	1	n/a	0	0	0	0.422607421875	0.5869140625	0	upper	amplitud.ttf
2159729	START	n/a	LTP122	ltpFR	13	n/a	n/a	n/a	n/a	n/a	n/a	n/a	n/a	n/a	n/a	n/a	n/a	n/a	n/a	n/a	n/a
2160652	PROB	n/a	LTP122	ltpFR	13	n/a	n/a	n/a	n/a	n/a	n/a	n/a	17	3	8	6	n/a	n/a	n/a	n/a	n/a
2163506	PROB	n/a	LTP122	ltpFR	13	n/a	n/a	n/a	n/a	n/a	n/a	n/a	18	4	6	8	n/a	n/a	n/a	n/a	n/a
2165954	PROB	n/a	LTP122	ltpFR	13	n/a	n/a	n/a	n/a	n/a	n/a	n/a	11	7	2	2	n/a	n/a	n/a	n/a	n/a
2167461	PROB	n/a	LTP122	ltpFR	13	n/a	n/a	n/a	n/a	n/a	n/a	n/a	14	1	6	7	n/a	n/a	n/a	n/a	n/a
2168826	PROB	n/a	LTP122	ltpFR	13	n/a	n/a	n/a	n/a	n/a	n/a	n/a	13	7	5	1	n/a	n/a	n/a	n/a	n/a
2170840	PROB	n/a	LTP122	ltpFR	13	n/a	n/a	n/a	n/a	n/a	n/a	n/a	21	6	8	7	n/a	n/a	n/a	n/a	n/a
2173429	PROB	n/a	LTP122	ltpFR	13	n/a	n/a	n/a	n/a	n/a	n/a	n/a	17	4	8	5	n/a	n/a	n/a	n/a	n/a
2175655	STOP	n/a	LTP122	ltpFR	13	n/a	n/a	n/a	n/a	n/a	n/a	n/a	n/a	n/a	n/a	n/a	n/a	n/a	n/a	n/a	n/a
2176908	WORD	wordpools/wasnorm_wordpool.txt	LTP122	ltpFR	13	9	1	HOUND	724	n/a	n/a	1	n/a	0	0	0	0.422607421875	0.5869140625	0	upper	amplitud.ttf
2179914	START	n/a	LTP122	ltpFR	13	n/a	n/a	n/a	n/a	n/a	n/a	n/a	n/a	n/a	n/a	n/a	n/a	n/a	n/a	n/a	n/a
2181062	PROB	n/a	LTP122	ltpFR	13	n/a	n/a	n/a	n/a	n/a	n/a	n/a	17	7	8	2	n/a	n/a	n/a	n/a	n/a
2183126	PROB	n/a	LTP122	ltpFR	13	n/a	n/a	n/a	n/a	n/a	n/a	n/a	14	2	8	4	n/a	n/a	n/a	n/a	n/a
2184633	PROB	n/a	LTP122	ltpFR	13	n/a	n/a	n/a	n/a	n/a	n/a	n/a	14	5	8	2	n/a	n/a	n/a	n/a	n/a
2186680	PROB	n/a	LTP122	ltpFR	13	n/a	n/a	n/a	n/a	n/a	n/a	n/a	18	2	9	7	n/a	n/a	n/a	n/a	n/a
2189685	PROB	n/a	LTP122	ltpFR	13	n/a	n/a	n/a	n/a	n/a	n/a	n/a	25	9	7	9	n/a	n/a	n/a	n/a	n/a
2192049	PROB	n/a	LTP122	ltpFR	13	n/a	n/a	n/a	n/a	n/a	n/a	n/a	18	9	3	6	n/a	n/a	n/a	n/a	n/a
2194526	STOP	n/a	LTP122	ltpFR	13	n/a	n/a	n/a	n/a	n/a	n/a	n/a	n/a	n/a	n/a	n/a	n/a	n/a	n/a	n/a	n/a
2196960	WORD	wordpools/wasnorm_wordpool.txt	LTP122	ltpFR	13	9	1	WOLF	1619	n/a	n/a	1	n/a	0	0	0	0.422607421875	0.5869140625	0	upper	amplitud.ttf
2199965	START	n/a	LTP122	ltpFR	13	n/a	n/a	n/a	n/a	n/a	n/a	n/a	n/a	n/a	n/a	n/a	n/a	n/a	n/a	n/a	n/a
2200872	PROB	n/a	LTP122	ltpFR	13	n/a	n/a	n/a	n/a	n/a	n/a	n/a	14	3	3	8	n/a	n/a	n/a	n/a	n/a
2203095	PROB	n/a	LTP122	ltpFR	13	n/a	n/a	n/a	n/a	n/a	n/a	n/a	18	8	9	1	n/a	n/a	n/a	n/a	n/a
2205242	PROB	n/a	LTP122	ltpFR	13	n/a	n/a	n/a	n/a	n/a	n/a	n/a	17	7	3	7	n/a	n/a	n/a	n/a	n/a
2207165	PROB	n/a	LTP122	ltpFR	13	n/a	n/a	n/a	n/a	n/a	n/a	n/a	13	6	1	6	n/a	n/a	n/a	n/a	n/a
2209695	PROB	n/a	LTP122	ltpFR	13	n/a	n/a	n/a	n/a	n/a	n/a	n/a	23	9	9	5	n/a	n/a	n/a	n/a	n/a
2213882	PROB	n/a	LTP122	ltpFR	13	n/a	n/a	n/a	n/a	n/a	n/a	n/a	18	2	8	8	n/a	n/a	n/a	n/a	n/a
2215671	STOP	n/a	LTP122	ltpFR	13	n/a	n/a	n/a	n/a	n/a	n/a	n/a	n/a	n/a	n/a	n/a	n/a	n/a	n/a	n/a	n/a
2216929	WORD	wordpools/wasnorm_wordpool.txt	LTP122	ltpFR	13	9	1	ANGEL	22	n/a	n/a	1	n/a	0	0	0	0.422607421875	0.5869140625	0	upper	amplitud.ttf
2219934	START	n/a	LTP122	ltpFR	13	n/a	n/a	n/a	n/a	n/a	n/a	n/a	n/a	n/a	n/a	n/a	n/a	n/a	n/a	n/a	n/a
2221049	PROB	n/a	LTP122	ltpFR	13	n/a	n/a	n/a	n/a	n/a	n/a	n/a	9	4	2	3	n/a	n/a	n/a	n/a	n/a
2222722	PROB	n/a	LTP122	ltpFR	13	n/a	n/a	n/a	n/a	n/a	n/a	n/a	18	2	9	7	n/a	n/a	n/a	n/a	n/a
2224961	PROB	n/a	LTP122	ltpFR	13	n/a	n/a	n/a	n/a	n/a	n/a	n/a	19	8	9	2	n/a	n/a	n/a	n/a	n/a
2226784	PROB	n/a	LTP122	ltpFR	13	n/a	n/a	n/a	n/a	n/a	n/a	n/a	17	2	9	6	n/a	n/a	n/a	n/a	n/a
2229488	PROB	n/a	LTP122	ltpFR	13	n/a	n/a	n/a	n/a	n/a	n/a	n/a	12	6	2	3	n/a	n/a	n/a	n/a	n/a
2235933	STOP	n/a	LTP122	ltpFR	13	n/a	n/a	n/a	n/a	n/a	n/a	n/a	n/a	n/a	n/a	n/a	n/a	n/a	n/a	n/a	n/a
2236980	WORD	wordpools/wasnorm_wordpool.txt	LTP122	ltpFR	13	9	1	WINDSHIELD	1612	n/a	n/a	1	n/a	0	0	0	0.422607421875	0.5869140625	0	upper	amplitud.ttf
2239986	START	n/a	LTP122	ltpFR	13	n/a	n/a	n/a	n/a	n/a	n/a	n/a	n/a	n/a	n/a	n/a	n/a	n/a	n/a	n/a	n/a
2240992	PROB	n/a	LTP122	ltpFR	13	n/a	n/a	n/a	n/a	n/a	n/a	n/a	15	5	4	6	n/a	n/a	n/a	n/a	n/a
2242715	PROB	n/a	LTP122	ltpFR	13	n/a	n/a	n/a	n/a	n/a	n/a	n/a	21	5	8	9	n/a	n/a	n/a	n/a	n/a
2247343	PROB	n/a	LTP122	ltpFR	13	n/a	n/a	n/a	n/a	n/a	n/a	n/a	16	1	9	6	n/a	n/a	n/a	n/a	n/a
2252945	PROB	n/a	LTP122	ltpFR	13	n/a	n/a	n/a	n/a	n/a	n/a	n/a	14	4	1	9	n/a	n/a	n/a	n/a	n/a
2255985	STOP	n/a	LTP122	ltpFR	13	n/a	n/a	n/a	n/a	n/a	n/a	n/a	n/a	n/a	n/a	n/a	n/a	n/a	n/a	n/a	n/a
2257140	WORD	wordpools/wasnorm_wordpool.txt	LTP122	ltpFR	13	9	1	ATMOSPHERE	54	n/a	n/a	1	n/a	0	0	0	0.422607421875	0.5869140625	0	upper	amplitud.ttf
2260146	START	n/a	LTP122	ltpFR	13	n/a	n/a	n/a	n/a	n/a	n/a	n/a	n/a	n/a	n/a	n/a	n/a	n/a	n/a	n/a	n/a
2261335	PROB	n/a	LTP122	ltpFR	13	n/a	n/a	n/a	n/a	n/a	n/a	n/a	15	4	3	8	n/a	n/a	n/a	n/a	n/a
2263532	PROB	n/a	LTP122	ltpFR	13	n/a	n/a	n/a	n/a	n/a	n/a	n/a	7	3	3	1	n/a	n/a	n/a	n/a	n/a
2265056	PROB	n/a	LTP122	ltpFR	13	n/a	n/a	n/a	n/a	n/a	n/a	n/a	11	6	3	2	n/a	n/a	n/a	n/a	n/a
2267179	PROB	n/a	LTP122	ltpFR	13	n/a	n/a	n/a	n/a	n/a	n/a	n/a	20	6	9	5	n/a	n/a	n/a	n/a	n/a
2270367	PROB	n/a	LTP122	ltpFR	13	n/a	n/a	n/a	n/a	n/a	n/a	n/a	18	8	9	1	n/a	n/a	n/a	n/a	n/a
2272656	PROB	n/a	LTP122	ltpFR	13	n/a	n/a	n/a	n/a	n/a	n/a	n/a	18	3	8	7	n/a	n/a	n/a	n/a	n/a
2274553	PROB	n/a	LTP122	ltpFR	13	n/a	n/a	n/a	n/a	n/a	n/a	n/a	11	7	2	2	n/a	n/a	n/a	n/a	n/a
2275983	STOP	n/a	LTP122	ltpFR	13	n/a	n/a	n/a	n/a	n/a	n/a	n/a	n/a	n/a	n/a	n/a	n/a	n/a	n/a	n/a	n/a
2277092	WORD	wordpools/wasnorm_wordpool.txt	LTP122	ltpFR	13	9	1	BLOSSOM	138	n/a	n/a	0	n/a	0	0	0	0.422607421875	0.5869140625	0	upper	amplitud.ttf
2280097	START	n/a	LTP122	ltpFR	13	n/a	n/a	n/a	n/a	n/a	n/a	n/a	n/a	n/a	n/a	n/a	n/a	n/a	n/a	n/a	n/a
2281096	PROB	n/a	LTP122	ltpFR	13	n/a	n/a	n/a	n/a	n/a	n/a	n/a	18	6	7	5	n/a	n/a	n/a	n/a	n/a
2283443	PROB	n/a	LTP122	ltpFR	13	n/a	n/a	n/a	n/a	n/a	n/a	n/a	12	9	2	1	n/a	n/a	n/a	n/a	n/a
2285124	PROB	n/a	LTP122	ltpFR	13	n/a	n/a	n/a	n/a	n/a	n/a	n/a	18	6	8	4	n/a	n/a	n/a	n/a	n/a
2287397	PROB	n/a	LTP122	ltpFR	13	n/a	n/a	n/a	n/a	n/a	n/a	n/a	17	6	4	7	n/a	n/a	n/a	n/a	n/a
2289037	PROB	n/a	LTP122	ltpFR	13	n/a	n/a	n/a	n/a	n/a	n/a	n/a	13	8	4	1	n/a	n/a	n/a	n/a	n/a
2291217	PROB	n/a	LTP122	ltpFR	13	n/a	n/a	n/a	n/a	n/a	n/a	n/a	20	9	3	8	n/a	n/a	n/a	n/a	n/a
2293581	PROB	n/a	LTP122	ltpFR	13	n/a	n/a	n/a	n/a	n/a	n/a	n/a	15	4	4	5	n/a	n/a	n/a	n/a	n/a
2295439	STOP	n/a	LTP122	ltpFR	13	n/a	n/a	n/a	n/a	n/a	n/a	n/a	n/a	n/a	n/a	n/a	n/a	n/a	n/a	n/a	n/a
2297285	WORD	wordpools/wasnorm_wordpool.txt	LTP122	ltpFR	13	9	1	LAPEL	800	n/a	n/a	0	n/a	0	0	0	0.422607421875	0.5869140625	0	upper	amplitud.ttf
2300290	START	n/a	LTP122	ltpFR	13	n/a	n/a	n/a	n/a	n/a	n/a	n/a	n/a	n/a	n/a	n/a	n/a	n/a	n/a	n/a	n/a
2301422	PROB	n/a	LTP122	ltpFR	13	n/a	n/a	n/a	n/a	n/a	n/a	n/a	23	9	8	6	n/a	n/a	n/a	n/a	n/a
2305001	PROB	n/a	LTP122	ltpFR	13	n/a	n/a	n/a	n/a	n/a	n/a	n/a	12	5	2	5	n/a	n/a	n/a	n/a	n/a
2307191	PROB	n/a	LTP122	ltpFR	13	n/a	n/a	n/a	n/a	n/a	n/a	n/a	15	9	1	5	n/a	n/a	n/a	n/a	n/a
2308505	PROB	n/a	LTP122	ltpFR	13	n/a	n/a	n/a	n/a	n/a	n/a	n/a	9	1	5	3	n/a	n/a	n/a	n/a	n/a
2309871	PROB	n/a	LTP122	ltpFR	13	n/a	n/a	n/a	n/a	n/a	n/a	n/a	11	3	6	2	n/a	n/a	n/a	n/a	n/a
2311394	PROB	n/a	LTP122	ltpFR	13	n/a	n/a	n/a	n/a	n/a	n/a	n/a	16	7	5	4	n/a	n/a	n/a	n/a	n/a
2313608	PROB	n/a	LTP122	ltpFR	13	n/a	n/a	n/a	n/a	n/a	n/a	n/a	13	4	1	8	n/a	n/a	n/a	n/a	n/a
2314983	STOP	n/a	LTP122	ltpFR	13	n/a	n/a	n/a	n/a	n/a	n/a	n/a	n/a	n/a	n/a	n/a	n/a	n/a	n/a	n/a	n/a
2318128	REC_START	n/a	LTP122	ltpFR	13	9	n/a	n/a	n/a	n/a	n/a	n/a	n/a	0	0	0	n/a	n/a	n/a	n/a	n/a
2320631	REC_WORD	wordpools/wasnorm_wordpool.txt	LTP122	ltpFR	13	9	1	FELLOW	558	n/a	n/a	1	n/a	0	0	0	n/a	n/a	n/a	n/a	n/a
2321580	REC_WORD	wordpools/wasnorm_wordpool.txt	LTP122	ltpFR	13	9	1	MAP	865	n/a	n/a	0	n/a	0	0	0	n/a	n/a	n/a	n/a	n/a
2324034	REC_WORD	wordpools/wasnorm_wordpool.txt	LTP122	ltpFR	13	9	1	TYPEWRITER	1531	n/a	n/a	0	n/a	0	0	0	n/a	n/a	n/a	n/a	n/a
2325670	REC_WORD	wordpools/wasnorm_wordpool.txt	LTP122	ltpFR	13	9	1	NOTEBOOK	959	n/a	n/a	0	n/a	0	0	0	n/a	n/a	n/a	n/a	n/a
2327395	REC_WORD	wordpools/wasnorm_wordpool.txt	LTP122	ltpFR	13	9	1	NEWSPAPER	948	n/a	n/a	0	n/a	0	0	0	n/a	n/a	n/a	n/a	n/a
2329052	REC_WORD	wordpools/wasnorm_wordpool.txt	LTP122	ltpFR	13	9	1	LAPEL	800	n/a	n/a	0	n/a	0	0	0	n/a	n/a	n/a	n/a	n/a
2331792	REC_WORD	wordpools/wasnorm_wordpool.txt	LTP122	ltpFR	13	9	1	PATH	1023	n/a	n/a	1	n/a	0	0	0	n/a	n/a	n/a	n/a	n/a
2332570	REC_WORD	wordpools/wasnorm_wordpool.txt	LTP122	ltpFR	13	9	1	BASKET	95	n/a	n/a	0	n/a	0	0	0	n/a	n/a	n/a	n/a	n/a
2333108	REC_WORD	wordpools/wasnorm_wordpool.txt	LTP122	ltpFR	13	9	1	STAPLE	1371	n/a	n/a	0	n/a	0	0	0	n/a	n/a	n/a	n/a	n/a
2333995	REC_WORD	wordpools/wasnorm_wordpool.txt	LTP122	ltpFR	13	9	1	BLOSSOM	138	n/a	n/a	0	n/a	0	0	0	n/a	n/a	n/a	n/a	n/a
2335608	REC_WORD	wordpools/wasnorm_wordpool.txt	LTP122	ltpFR	13	9	1	WINDSHIELD	1612	n/a	n/a	1	n/a	0	0	0	n/a	n/a	n/a	n/a	n/a
2336286	REC_WORD	wordpools/wasnorm_wordpool.txt	LTP122	ltpFR	13	9	1	ATMOSPHERE	54	n/a	n/a	1	n/a	0	0	0	n/a	n/a	n/a	n/a	n/a
2337233	REC_WORD	wordpools/wasnorm_wordpool.txt	LTP122	ltpFR	13	9	1	ANGEL	22	n/a	n/a	1	n/a	0	0	0	n/a	n/a	n/a	n/a	n/a
2337920	REC_WORD	wordpools/wasnorm_wordpool.txt	LTP122	ltpFR	13	9	1	HOUND	724	n/a	n/a	1	n/a	0	0	0	n/a	n/a	n/a	n/a	n/a
2338930	REC_WORD	wordpools/wasnorm_wordpool.txt	LTP122	ltpFR	13	9	1	WOLF	1619	n/a	n/a	1	n/a	0	0	0	n/a	n/a	n/a	n/a	n/a
2339618	REC_WORD	wordpools/wasnorm_wordpool.txt	LTP122	ltpFR	13	9	1	FOE	587	n/a	n/a	1	n/a	0	0	0	n/a	n/a	n/a	n/a	n/a
2397501	WORD	wordpools/wasnorm_wordpool.txt	LTP122	ltpFR	13	10	1	UNIVERSITY	1541	n/a	n/a	1	n/a	0	0	0	0.422607421875	0.5869140625	0	upper	amplitud.ttf
2401448	WORD	wordpools/wasnorm_wordpool.txt	LTP122	ltpFR	13	10	1	COLLEGE	346	n/a	n/a	0	n/a	0	0	0	0.422607421875	0.5869140625	0	upper	amplitud.ttf
2405651	WORD	wordpools/wasnorm_wordpool.txt	LTP122	ltpFR	13	10	0	SALAD	1224	n/a	n/a	0	n/a	0	0	0	0.57763671875	0.412841796875	1	lower	zerothre.ttf
2409705	WORD	wordpools/wasnorm_wordpool.txt	LTP122	ltpFR	13	10	0	PICNIC	1060	n/a	n/a	0	n/a	0	0	0	0.57763671875	0.412841796875	1	lower	zerothre.ttf
2413592	WORD	wordpools/wasnorm_wordpool.txt	LTP122	ltpFR	13	10	0	ORNAMENT	985	n/a	n/a	0	n/a	0	0	0	0.57763671875	0.412841796875	1	lower	zerothre.ttf
2417621	WORD	wordpools/wasnorm_wordpool.txt	LTP122	ltpFR	13	10	0	PADDLE	1000	n/a	n/a	0	n/a	0	0	0	0.57763671875	0.412841796875	1	lower	zerothre.ttf
2421716	WORD	wordpools/wasnorm_wordpool.txt	LTP122	ltpFR	13	10	1	EDITORIAL	517	n/a	n/a	0	n/a	0	0	0	0.422607421875	0.5869140625	0	upper	amplitud.ttf
2425728	WORD	wordpools/wasnorm_wordpool.txt	LTP122	ltpFR	13	10	1	OTTER	986	n/a	n/a	1	n/a	0	0	0	0.422607421875	0.5869140625	0	upper	amplitud.ttf
2429765	WORD	wordpools/wasnorm_wordpool.txt	LTP122	ltpFR	13	10	1	BROOK	177	n/a	n/a	1	n/a	0	0	0	0.422607421875	0.5869140625	0	upper	amplitud.ttf
2433819	WORD	wordpools/wasnorm_wordpool.txt	LTP122	ltpFR	13	10	1	ACTOR	5	n/a	n/a	1	n/a	0	0	0	0.422607421875	0.5869140625	0	upper	amplitud.ttf
2437972	WORD	wordpools/wasnorm_wordpool.txt	LTP122	ltpFR	13	10	1	EMPEROR	529	n/a	n/a	1	n/a	0	0	0	0.422607421875	0.5869140625	0	upper	amplitud.ttf
2442101	WORD	wordpools/wasnorm_wordpool.txt	LTP122	ltpFR	13	10	1	SAILOR	1223	n/a	n/a	1	n/a	0	0	0	0.422607421875	0.5869140625	0	upper	amplitud.ttf
2446013	WORD	wordpools/wasnorm_wordpool.txt	LTP122	ltpFR	13	10	0	PERCH	1048	n/a	n/a	0	n/a	0	0	0	0.57763671875	0.412841796875	1	lower	zerothre.ttf
2449975	WORD	wordpools/wasnorm_wordpool.txt	LTP122	ltpFR	13	10	0	MONUMENT	913	n/a	n/a	1	n/a	0	0	0	0.57763671875	0.412841796875	1	lower	zerothre.ttf
2454087	WORD	wordpools/wasnorm_wordpool.txt	LTP122	ltpFR	13	10	0	ANTENNA	28	n/a	n/a	1	n/a	0	0	0	0.57763671875	0.412841796875	1	lower	zerothre.ttf
2458207	WORD	wordpools/wasnorm_wordpool.txt	LTP122	ltpFR	13	10	0	MOSS	918	n/a	n/a	0	n/a	0	0	0	0.57763671875	0.412841796875	1	lower	zerothre.ttf
2461212	START	n/a	LTP122	ltpFR	13	n/a	n/a	n/a	n/a	n/a	n/a	n/a	n/a	n/a	n/a	n/a	n/a	n/a	n/a	n/a	n/a
2462286	PROB	n/a	LTP122	ltpFR	13	n/a	n/a	n/a	n/a	n/a	n/a	n/a	16	4	3	9	n/a	n/a	n/a	n/a	n/a
2464175	PROB	n/a	LTP122	ltpFR	13	n/a	n/a	n/a	n/a	n/a	n/a	n/a	18	5	8	5	n/a	n/a	n/a	n/a	n/a
2467862	PROB	n/a	LTP122	ltpFR	13	n/a	n/a	n/a	n/a	n/a	n/a	n/a	16	3	8	5	n/a	n/a	n/a	n/a	n/a
2470027	PROB	n/a	LTP122	ltpFR	13	n/a	n/a	n/a	n/a	n/a	n/a	n/a	20	7	9	4	n/a	n/a	n/a	n/a	n/a
2471991	PROB	n/a	LTP122	ltpFR	13	n/a	n/a	n/a	n/a	n/a	n/a	n/a	11	1	9	1	n/a	n/a	n/a	n/a	n/a
2477212	STOP	n/a	LTP122	ltpFR	13	n/a	n/a	n/a	n/a	n/a	n/a	n/a	n/a	n/a	n/a	n/a	n/a	n/a	n/a	n/a	n/a
2478983	REC_START	n/a	LTP122	ltpFR	13	10	n/a	n/a	n/a	n/a	n/a	n/a	n/a	0	0	0	n/a	n/a	n/a	n/a	n/a
2480504	REC_WORD	wordpools/wasnorm_wordpool.txt	LTP122	ltpFR	13	10	1	UNIVERSITY	1541	n/a	n/a	1	n/a	0	0	0	n/a	n/a	n/a	n/a	n/a
2481298	REC_WORD	wordpools/wasnorm_wordpool.txt	LTP122	ltpFR	13	10	1	COLLEGE	346	n/a	n/a	0	n/a	0	0	0	n/a	n/a	n/a	n/a	n/a
2482003	REC_WORD	wordpools/wasnorm_wordpool.txt	LTP122	ltpFR	13	10	0	SALAD	1224	n/a	n/a	0	n/a	0	0	0	n/a	n/a	n/a	n/a	n/a
2482804	REC_WORD	wordpools/wasnorm_wordpool.txt	LTP122	ltpFR	13	10	0	PICNIC	1060	n/a	n/a	0	n/a	0	0	0	n/a	n/a	n/a	n/a	n/a
2486441	REC_WORD	wordpools/wasnorm_wordpool.txt	LTP122	ltpFR	13	10	0	ORNAMENT	985	n/a	n/a	0	n/a	0	0	0	n/a	n/a	n/a	n/a	n/a
2487294	REC_WORD	wordpools/wasnorm_wordpool.txt	LTP122	ltpFR	13	10	0	PERCH	1048	n/a	n/a	0	n/a	0	0	0	n/a	n/a	n/a	n/a	n/a
2488905	REC_WORD	wordpools/wasnorm_wordpool.txt	LTP122	ltpFR	13	10	0	ANTENNA	28	n/a	n/a	1	n/a	0	0	0	n/a	n/a	n/a	n/a	n/a
2489599	REC_WORD	wordpools/wasnorm_wordpool.txt	LTP122	ltpFR	13	10	0	MONUMENT	913	n/a	n/a	1	n/a	0	0	0	n/a	n/a	n/a	n/a	n/a
2491534	REC_WORD	wordpools/wasnorm_wordpool.txt	LTP122	ltpFR	13	10	0	PADDLE	1000	n/a	n/a	0	n/a	0	0	0	n/a	n/a	n/a	n/a	n/a
2493011	REC_WORD	wordpools/wasnorm_wordpool.txt	LTP122	ltpFR	13	10	1	BROOK	177	n/a	n/a	1	n/a	0	0	0	n/a	n/a	n/a	n/a	n/a
2493769	REC_WORD	wordpools/wasnorm_wordpool.txt	LTP122	ltpFR	13	10	1	OTTER	986	n/a	n/a	1	n/a	0	0	0	n/a	n/a	n/a	n/a	n/a
2496737	REC_WORD	wordpools/wasnorm_wordpool.txt	LTP122	ltpFR	13	10	1	ACTOR	5	n/a	n/a	1	n/a	0	0	0	n/a	n/a	n/a	n/a	n/a
2499167	REC_WORD	wordpools/wasnorm_wordpool.txt	LTP122	ltpFR	13	10	1	EMPEROR	529	n/a	n/a	1	n/a	0	0	0	n/a	n/a	n/a	n/a	n/a
2534671	REC_WORD	wordpools/wasnorm_wordpool.txt	LTP122	ltpFR	13	10	1	SAILOR	1223	n/a	n/a	1	n/a	0	0	0	n/a	n/a	n/a	n/a	n/a
2546264	REC_WORD	wordpools/wasnorm_wordpool.txt	LTP122	ltpFR	13	10	1	EDITORIAL	517	n/a	n/a	0	n/a	0	0	0	n/a	n/a	n/a	n/a	n/a
2554587	REST_REWET	n/a	LTP122	ltpFR	13	10	n/a	n/a	n/a	n/a	n/a	n/a	n/a	0	0	0	n/a	n/a	n/a	n/a	n/a
2905005	WORD	wordpools/wasnorm_wordpool.txt	LTP122	ltpFR	13	11	0	NICKEL	950	n/a	n/a	0	n/a	0	0	0	0.57763671875	0.412841796875	1	lower	zerothre.ttf
2909159	WORD	wordpools/wasnorm_wordpool.txt	LTP122	ltpFR	13	11	0	SIDING	1304	n/a	n/a	1	n/a	0	0	0	0.57763671875	0.412841796875	1	lower	zerothre.ttf
2913088	WORD	wordpools/wasnorm_wordpool.txt	LTP122	ltpFR	13	11	0	BLACKBERRY	132	n/a	n/a	1	n/a	0	0	0	0.57763671875	0.412841796875	1	lower	zerothre.ttf
2917291	WORD	wordpools/wasnorm_wordpool.txt	LTP122	ltpFR	13	11	0	SUPERMARKET	1409	n/a	n/a	1	n/a	0	0	0	0.57763671875	0.412841796875	1	lower	zerothre.ttf
2921469	WORD	wordpools/wasnorm_wordpool.txt	LTP122	ltpFR	13	11	0	BRACELET	163	n/a	n/a	0	n/a	0	0	0	0.57763671875	0.412841796875	1	lower	zerothre.ttf
2925607	WORD	wordpools/wasnorm_wordpool.txt	LTP122	ltpFR	13	11	0	CARPENTER	246	n/a	n/a	1	n/a	0	0	0	0.57763671875	0.412841796875	1	lower	zerothre.ttf
2929818	WORD	wordpools/wasnorm_wordpool.txt	LTP122	ltpFR	13	11	0	ELM	527	n/a	n/a	1	n/a	0	0	0	0.57763671875	0.412841796875	1	lower	zerothre.ttf
2933889	WORD	wordpools/wasnorm_wordpool.txt	LTP122	ltpFR	13	11	0	CRICKET	408	n/a	n/a	0	n/a	0	0	0	0.57763671875	0.412841796875	1	lower	zerothre.ttf
2937734	WORD	wordpools/wasnorm_wordpool.txt	LTP122	ltpFR	13	11	0	MOTH	920	n/a	n/a	0	n/a	0	0	0	0.57763671875	0.412841796875	1	lower	zerothre.ttf
2941871	WORD	wordpools/wasnorm_wordpool.txt	LTP122	ltpFR	13	11	0	SAP	1233	n/a	n/a	0	n/a	0	0	0	0.57763671875	0.412841796875	1	lower	zerothre.ttf
2945841	WORD	wordpools/wasnorm_wordpool.txt	LTP122	ltpFR	13	11	0	SCREWDRIVER	1255	n/a	n/a	0	n/a	0	0	0	0.57763671875	0.412841796875	1	lower	zerothre.ttf
2950053	WORD	wordpools/wasnorm_wordpool.txt	LTP122	ltpFR	13	11	0	CHAIN	273	n/a	n/a	0	n/a	0	0	0	0.57763671875	0.412841796875	1	lower	zerothre.ttf
2954132	WORD	wordpools/wasnorm_wordpool.txt	LTP122	ltpFR	13	11	0	INTESTINE	742	n/a	n/a	0	n/a	0	0	0	0.57763671875	0.412841796875	1	lower	zerothre.ttf
2958260	WORD	wordpools/wasnorm_wordpool.txt	LTP122	ltpFR	13	11	0	SAXOPHONE	1240	n/a	n/a	1	n/a	0	0	0	0.57763671875	0.412841796875	1	lower	zerothre.ttf
2962106	WORD	wordpools/wasnorm_wordpool.txt	LTP122	ltpFR	13	11	0	KEYBOARD	774	n/a	n/a	1	n/a	0	0	0	0.57763671875	0.412841796875	1	lower	zerothre.ttf
2966218	WORD	wordpools/wasnorm_wordpool.txt	LTP122	ltpFR	13	11	0	SUBWAY	1400	n/a	n/a	1	n/a	0	0	0	0.57763671875	0.412841796875	1	lower	zerothre.ttf
2969223	START	n/a	LTP122	ltpFR	13	n/a	n/a	n/a	n/a	n/a	n/a	n/a	n/a	n/a	n/a	n/a	n/a	n/a	n/a	n/a	n/a
2970205	PROB	n/a	LTP122	ltpFR	13	n/a	n/a	n/a	n/a	n/a	n/a	n/a	11	4	2	5	n/a	n/a	n/a	n/a	n/a
2972893	PROB	n/a	LTP122	ltpFR	13	n/a	n/a	n/a	n/a	n/a	n/a	n/a	17	9	2	6	n/a	n/a	n/a	n/a	n/a
2974899	PROB	n/a	LTP122	ltpFR	13	n/a	n/a	n/a	n/a	n/a	n/a	n/a	13	3	3	7	n/a	n/a	n/a	n/a	n/a
2977159	STOP	n/a	LTP122	ltpFR	13	n/a	n/a	n/a	n/a	n/a	n/a	n/a	n/a	n/a	n/a	n/a	n/a	n/a	n/a	n/a	n/a
2979103	REC_START	n/a	LTP122	ltpFR	13	11	n/a	n/a	n/a	n/a	n/a	n/a	n/a	0	0	0	n/a	n/a	n/a	n/a	n/a
2980709	REC_WORD	wordpools/wasnorm_wordpool.txt	LTP122	ltpFR	13	11	0	NICKEL	950	n/a	n/a	0	n/a	0	0	0	n/a	n/a	n/a	n/a	n/a
2981262	REC_WORD	wordpools/wasnorm_wordpool.txt	LTP122	ltpFR	13	11	0	SIDING	1304	n/a	n/a	1	n/a	0	0	0	n/a	n/a	n/a	n/a	n/a
2982684	REC_WORD	wordpools/wasnorm_wordpool.txt	LTP122	ltpFR	13	11	0	SUPERMARKET	1409	n/a	n/a	1	n/a	0	0	0	n/a	n/a	n/a	n/a	n/a
2983684	REC_WORD_VV	wordpools/wasnorm_wordpool.txt	LTP122	ltpFR	13	11	n/a	<>	-1	n/a	n/a	n/a	n/a	0	0	0	n/a	n/a	n/a	n/a	n/a
2985379	REC_WORD	wordpools/wasnorm_wordpool.txt	LTP122	ltpFR	13	11	0	BRACELET	163	n/a	n/a	0	n/a	0	0	0	n/a	n/a	n/a	n/a	n/a
2986132	REC_WORD	wordpools/wasnorm_wordpool.txt	LTP122	ltpFR	13	11	0	CHAIN	273	n/a	n/a	0	n/a	0	0	0	n/a	n/a	n/a	n/a	n/a
2987698	REC_WORD	wordpools/wasnorm_wordpool.txt	LTP122	ltpFR	13	11	0	CARPENTER	246	n/a	n/a	1	n/a	0	0	0	n/a	n/a	n/a	n/a	n/a
2988698	REC_WORD_VV	wordpools/wasnorm_wordpool.txt	LTP122	ltpFR	13	11	n/a	<>	-1	n/a	n/a	n/a	n/a	0	0	0	n/a	n/a	n/a	n/a	n/a
2990412	REC_WORD	wordpools/wasnorm_wordpool.txt	LTP122	ltpFR	13	11	0	ELM	527	n/a	n/a	1	n/a	0	0	0	n/a	n/a	n/a	n/a	n/a
2991144	REC_WORD	wordpools/wasnorm_wordpool.txt	LTP122	ltpFR	13	11	0	SAP	1233	n/a	n/a	0	n/a	0	0	0	n/a	n/a	n/a	n/a	n/a
2992293	REC_WORD	wordpools/wasnorm_wordpool.txt	LTP122	ltpFR	13	11	0	MOTH	920	n/a	n/a	0	n/a	0	0	0	n/a	n/a	n/a	n/a	n/a
2993989	REC_WORD	wordpools/wasnorm_wordpool.txt	LTP122	ltpFR	13	11	0	CRICKET	408	n/a	n/a	0	n/a	0	0	0	n/a	n/a	n/a	n/a	n/a
2995680	REC_WORD	wordpools/wasnorm_wordpool.txt	LTP122	ltpFR	13	11	0	INTESTINE	742	n/a	n/a	0	n/a	0	0	0	n/a	n/a	n/a	n/a	n/a
2997197	REC_WORD	wordpools/wasnorm_wordpool.txt	LTP122	ltpFR	13	11	0	SCREWDRIVER	1255	n/a	n/a	0	n/a	0	0	0	n/a	n/a	n/a	n/a	n/a
2999768	REC_WORD	wordpools/wasnorm_wordpool.txt	LTP122	ltpFR	13	11	0	SUBWAY	1400	n/a	n/a	1	n/a	0	0	0	n/a	n/a	n/a	n/a	n/a
3003956	REC_WORD	wordpools/wasnorm_wordpool.txt	LTP122	ltpFR	13	11	0	SAXOPHONE	1240	n/a	n/a	1	n/a	0	0	0	n/a	n/a	n/a	n/a	n/a
3005058	REC_WORD	wordpools/wasnorm_wordpool.txt	LTP122	ltpFR	13	11	0	KEYBOARD	774	n/a	n/a	1	n/a	0	0	0	n/a	n/a	n/a	n/a	n/a
3008182	REC_WORD	wordpools/wasnorm_wordpool.txt	LTP122	ltpFR	13	11	0	BLACKBERRY	132	n/a	n/a	1	n/a	0	0	0	n/a	n/a	n/a	n/a	n/a
3056772	START	n/a	LTP122	ltpFR	13	n/a	n/a	n/a	n/a	n/a	n/a	n/a	n/a	n/a	n/a	n/a	n/a	n/a	n/a	n/a	n/a
3058278	PROB	n/a	LTP122	ltpFR	13	n/a	n/a	n/a	n/a	n/a	n/a	n/a	15	7	2	6	n/a	n/a	n/a	n/a	n/a
3060550	PROB	n/a	LTP122	ltpFR	13	n/a	n/a	n/a	n/a	n/a	n/a	n/a	11	8	2	1	n/a	n/a	n/a	n/a	n/a
3061882	PROB	n/a	LTP122	ltpFR	13	n/a	n/a	n/a	n/a	n/a	n/a	n/a	15	5	8	3	n/a	n/a	n/a	n/a	n/a
3064047	STOP	n/a	LTP122	ltpFR	13	n/a	n/a	n/a	n/a	n/a	n/a	n/a	n/a	n/a	n/a	n/a	n/a	n/a	n/a	n/a	n/a
3065844	WORD	wordpools/wasnorm_wordpool.txt	LTP122	ltpFR	13	12	0	SUBURB	1399	n/a	n/a	1	n/a	0	0	0	0.57763671875	0.412841796875	1	lower	zerothre.ttf
3068849	START	n/a	LTP122	ltpFR	13	n/a	n/a	n/a	n/a	n/a	n/a	n/a	n/a	n/a	n/a	n/a	n/a	n/a	n/a	n/a	n/a
3069764	PROB	n/a	LTP122	ltpFR	13	n/a	n/a	n/a	n/a	n/a	n/a	n/a	11	2	5	4	n/a	n/a	n/a	n/a	n/a
3071446	PROB	n/a	LTP122	ltpFR	13	n/a	n/a	n/a	n/a	n/a	n/a	n/a	16	7	5	4	n/a	n/a	n/a	n/a	n/a
3073443	PROB	n/a	LTP122	ltpFR	13	n/a	n/a	n/a	n/a	n/a	n/a	n/a	7	3	1	3	n/a	n/a	n/a	n/a	n/a
3075225	PROB	n/a	LTP122	ltpFR	13	n/a	n/a	n/a	n/a	n/a	n/a	n/a	13	4	4	5	n/a	n/a	n/a	n/a	n/a
3076679	STOP	n/a	LTP122	ltpFR	13	n/a	n/a	n/a	n/a	n/a	n/a	n/a	n/a	n/a	n/a	n/a	n/a	n/a	n/a	n/a	n/a
3077997	WORD	wordpools/wasnorm_wordpool.txt	LTP122	ltpFR	13	12	0	WALL	1582	n/a	n/a	1	n/a	0	0	0	0.57763671875	0.412841796875	1	lower	zerothre.ttf
3081002	START	n/a	LTP122	ltpFR	13	n/a	n/a	n/a	n/a	n/a	n/a	n/a	n/a	n/a	n/a	n/a	n/a	n/a	n/a	n/a	n/a
3082017	PROB	n/a	LTP122	ltpFR	13	n/a	n/a	n/a	n/a	n/a	n/a	n/a	17	6	5	6	n/a	n/a	n/a	n/a	n/a
3083890	PROB	n/a	LTP122	ltpFR	13	n/a	n/a	n/a	n/a	n/a	n/a	n/a	24	9	9	8	n/a	n/a	n/a	n/a	n/a
3089001	STOP	n/a	LTP122	ltpFR	13	n/a	n/a	n/a	n/a	n/a	n/a	n/a	n/a	n/a	n/a	n/a	n/a	n/a	n/a	n/a	n/a
3090091	WORD	wordpools/wasnorm_wordpool.txt	LTP122	ltpFR	13	12	0	COLLAR	345	n/a	n/a	0	n/a	0	0	0	0.57763671875	0.412841796875	1	lower	zerothre.ttf
3093096	START	n/a	LTP122	ltpFR	13	n/a	n/a	n/a	n/a	n/a	n/a	n/a	n/a	n/a	n/a	n/a	n/a	n/a	n/a	n/a	n/a
3094236	PROB	n/a	LTP122	ltpFR	13	n/a	n/a	n/a	n/a	n/a	n/a	n/a	21	9	3	9	n/a	n/a	n/a	n/a	n/a
3097041	PROB	n/a	LTP122	ltpFR	13	n/a	n/a	n/a	n/a	n/a	n/a	n/a	16	3	8	5	n/a	n/a	n/a	n/a	n/a
3100055	STOP	n/a	LTP122	ltpFR	13	n/a	n/a	n/a	n/a	n/a	n/a	n/a	n/a	n/a	n/a	n/a	n/a	n/a	n/a	n/a	n/a
3102293	WORD	wordpools/wasnorm_wordpool.txt	LTP122	ltpFR	13	12	0	SWATTER	1418	n/a	n/a	0	n/a	0	0	0	0.57763671875	0.412841796875	1	lower	zerothre.ttf
3105299	START	n/a	LTP122	ltpFR	13	n/a	n/a	n/a	n/a	n/a	n/a	n/a	n/a	n/a	n/a	n/a	n/a	n/a	n/a	n/a	n/a
3106197	PROB	n/a	LTP122	ltpFR	13	n/a	n/a	n/a	n/a	n/a	n/a	n/a	13	4	7	2	n/a	n/a	n/a	n/a	n/a
3108245	PROB	n/a	LTP122	ltpFR	13	n/a	n/a	n/a	n/a	n/a	n/a	n/a	19	7	9	3	n/a	n/a	n/a	n/a	n/a
3110367	PROB	n/a	LTP122	ltpFR	13	n/a	n/a	n/a	n/a	n/a	n/a	n/a	11	1	9	1	n/a	n/a	n/a	n/a	n/a
3113299	STOP	n/a	LTP122	ltpFR	13	n/a	n/a	n/a	n/a	n/a	n/a	n/a	n/a	n/a	n/a	n/a	n/a	n/a	n/a	n/a	n/a
3114288	WORD	wordpools/wasnorm_wordpool.txt	LTP122	ltpFR	13	12	0	FIGHTER	564	n/a	n/a	1	n/a	0	0	0	0.57763671875	0.412841796875	1	lower	zerothre.ttf
3117293	START	n/a	LTP122	ltpFR	13	n/a	n/a	n/a	n/a	n/a	n/a	n/a	n/a	n/a	n/a	n/a	n/a	n/a	n/a	n/a	n/a
3118375	PROB	n/a	LTP122	ltpFR	13	n/a	n/a	n/a	n/a	n/a	n/a	n/a	18	9	6	3	n/a	n/a	n/a	n/a	n/a
3120114	PROB	n/a	LTP122	ltpFR	13	n/a	n/a	n/a	n/a	n/a	n/a	n/a	27	9	9	9	n/a	n/a	n/a	n/a	n/a
3122087	PROB	n/a	LTP122	ltpFR	13	n/a	n/a	n/a	n/a	n/a	n/a	n/a	20	4	7	9	n/a	n/a	n/a	n/a	n/a
3124127	STOP	n/a	LTP122	ltpFR	13	n/a	n/a	n/a	n/a	n/a	n/a	n/a	n/a	n/a	n/a	n/a	n/a	n/a	n/a	n/a	n/a
3126481	WORD	wordpools/wasnorm_wordpool.txt	LTP122	ltpFR	13	12	0	DANCER	437	n/a	n/a	1	n/a	0	0	0	0.57763671875	0.412841796875	1	lower	zerothre.ttf
3129486	START	n/a	LTP122	ltpFR	13	n/a	n/a	n/a	n/a	n/a	n/a	n/a	n/a	n/a	n/a	n/a	n/a	n/a	n/a	n/a	n/a
3130311	PROB	n/a	LTP122	ltpFR	13	n/a	n/a	n/a	n/a	n/a	n/a	n/a	9	6	1	2	n/a	n/a	n/a	n/a	n/a
3132092	PROB	n/a	LTP122	ltpFR	13	n/a	n/a	n/a	n/a	n/a	n/a	n/a	14	2	9	3	n/a	n/a	n/a	n/a	n/a
3134381	PROB	n/a	LTP122	ltpFR	13	n/a	n/a	n/a	n/a	n/a	n/a	n/a	19	3	7	9	n/a	n/a	n/a	n/a	n/a
3135630	PROB	n/a	LTP122	ltpFR	13	n/a	n/a	n/a	n/a	n/a	n/a	n/a	10	2	7	1	n/a	n/a	n/a	n/a	n/a
3137351	STOP	n/a	LTP122	ltpFR	13	n/a	n/a	n/a	n/a	n/a	n/a	n/a	n/a	n/a	n/a	n/a	n/a	n/a	n/a	n/a	n/a
3138525	WORD	wordpools/wasnorm_wordpool.txt	LTP122	ltpFR	13	12	0	PACKAGE	997	n/a	n/a	0	n/a	0	0	0	0.57763671875	0.412841796875	1	lower	zerothre.ttf
3141531	START	n/a	LTP122	ltpFR	13	n/a	n/a	n/a	n/a	n/a	n/a	n/a	n/a	n/a	n/a	n/a	n/a	n/a	n/a	n/a	n/a
3142671	PROB	n/a	LTP122	ltpFR	13	n/a	n/a	n/a	n/a	n/a	n/a	n/a	12	6	3	3	n/a	n/a	n/a	n/a	n/a
3144095	PROB	n/a	LTP122	ltpFR	13	n/a	n/a	n/a	n/a	n/a	n/a	n/a	21	6	6	9	n/a	n/a	n/a	n/a	n/a
3146084	PROB	n/a	LTP122	ltpFR	13	n/a	n/a	n/a	n/a	n/a	n/a	n/a	7	5	1	1	n/a	n/a	n/a	n/a	n/a
3148486	STOP	n/a	LTP122	ltpFR	13	n/a	n/a	n/a	n/a	n/a	n/a	n/a	n/a	n/a	n/a	n/a	n/a	n/a	n/a	n/a	n/a
3150446	WORD	wordpools/wasnorm_wordpool.txt	LTP122	ltpFR	13	12	0	GENERAL	630	n/a	n/a	1	n/a	0	0	0	0.57763671875	0.412841796875	1	lower	zerothre.ttf
3153451	START	n/a	LTP122	ltpFR	13	n/a	n/a	n/a	n/a	n/a	n/a	n/a	n/a	n/a	n/a	n/a	n/a	n/a	n/a	n/a	n/a
3154591	PROB	n/a	LTP122	ltpFR	13	n/a	n/a	n/a	n/a	n/a	n/a	n/a	16	1	9	6	n/a	n/a	n/a	n/a	n/a
3156081	PROB	n/a	LTP122	ltpFR	13	n/a	n/a	n/a	n/a	n/a	n/a	n/a	16	3	5	8	n/a	n/a	n/a	n/a	n/a
3157712	PROB	n/a	LTP122	ltpFR	13	n/a	n/a	n/a	n/a	n/a	n/a	n/a	22	9	8	5	n/a	n/a	n/a	n/a	n/a
3161031	STOP	n/a	LTP122	ltpFR	13	n/a	n/a	n/a	n/a	n/a	n/a	n/a	n/a	n/a	n/a	n/a	n/a	n/a	n/a	n/a	n/a
3162557	WORD	wordpools/wasnorm_wordpool.txt	LTP122	ltpFR	13	12	0	LIEUTENANT	818	n/a	n/a	1	n/a	0	0	0	0.57763671875	0.412841796875	1	lower	zerothre.ttf
3165562	START	n/a	LTP122	ltpFR	13	n/a	n/a	n/a	n/a	n/a	n/a	n/a	n/a	n/a	n/a	n/a	n/a	n/a	n/a	n/a	n/a
3166669	PROB	n/a	LTP122	ltpFR	13	n/a	n/a	n/a	n/a	n/a	n/a	n/a	11	1	1	9	n/a	n/a	n/a	n/a	n/a
3169640	PROB	n/a	LTP122	ltpFR	13	n/a	n/a	n/a	n/a	n/a	n/a	n/a	18	6	9	3	n/a	n/a	n/a	n/a	n/a
3173055	STOP	n/a	LTP122	ltpFR	13	n/a	n/a	n/a	n/a	n/a	n/a	n/a	n/a	n/a	n/a	n/a	n/a	n/a	n/a	n/a	n/a
3174643	WORD	wordpools/wasnorm_wordpool.txt	LTP122	ltpFR	13	12	0	DORM	488	n/a	n/a	1	n/a	0	0	0	0.57763671875	0.412841796875	1	lower	zerothre.ttf
3177648	START	n/a	LTP122	ltpFR	13	n/a	n/a	n/a	n/a	n/a	n/a	n/a	n/a	n/a	n/a	n/a	n/a	n/a	n/a	n/a	n/a
