mstime	trial_type	stim_file	subject	experiment	session	trial	item_name	item_num	list	answer	test_x	test_y	test_z
0	SESS_START	n/a	LTP229	ltpFR2	18	n/a	n/a	n/a	n/a	n/a	0	0	0
20021	START	n/a	LTP229	ltpFR2	18	n/a	n/a	n/a	-1	n/a	n/a	n/a	n/a
20054	PROB	n/a	LTP229	ltpFR2	18	n/a	n/a	n/a	-1	18	8	3	7
22316	PROB	n/a	LTP229	ltpFR2	18	n/a	n/a	n/a	-1	8	2	1	5
23515	PROB	n/a	LTP229	ltpFR2	18	n/a	n/a	n/a	-1	15	8	9	6
24763	PROB	n/a	LTP229	ltpFR2	18	n/a	n/a	n/a	-1	8	3	3	2
26277	PROB	n/a	LTP229	ltpFR2	18	n/a	n/a	n/a	-1	14	6	5	3
28990	PROB	n/a	LTP229	ltpFR2	18	n/a	n/a	n/a	-1	14	9	4	1
30941	STOP	n/a	LTP229	ltpFR2	18	n/a	n/a	n/a	-1	n/a	n/a	n/a	n/a
67915	WORD	wordpools/wasnorm_wordpool_576.txt	LTP229	ltpFR2	18	1	LEADER	807	n/a	n/a	0	0	0
70628	WORD	wordpools/wasnorm_wordpool_576.txt	LTP229	ltpFR2	18	1	LADY	794	n/a	n/a	0	0	0
73058	WORD	wordpools/wasnorm_wordpool_576.txt	LTP229	ltpFR2	18	1	COMET	353	n/a	n/a	0	0	0
75770	WORD	wordpools/wasnorm_wordpool_576.txt	LTP229	ltpFR2	18	1	OMELET	976	n/a	n/a	0	0	0
78583	WORD	wordpools/wasnorm_wordpool_576.txt	LTP229	ltpFR2	18	1	LILY	821	n/a	n/a	0	0	0
81029	WORD	wordpools/wasnorm_wordpool_576.txt	LTP229	ltpFR2	18	1	TREAT	1501	n/a	n/a	0	0	0
83609	WORD	wordpools/wasnorm_wordpool_576.txt	LTP229	ltpFR2	18	1	FOX	598	n/a	n/a	0	0	0
86137	WORD	wordpools/wasnorm_wordpool_576.txt	LTP229	ltpFR2	18	1	YOLK	1633	n/a	n/a	0	0	0
88768	WORD	wordpools/wasnorm_wordpool_576.txt	LTP229	ltpFR2	18	1	WITNESS	1618	n/a	n/a	0	0	0
91230	WORD	wordpools/wasnorm_wordpool_576.txt	LTP229	ltpFR2	18	1	SANDWICH	1232	n/a	n/a	0	0	0
93793	WORD	wordpools/wasnorm_wordpool_576.txt	LTP229	ltpFR2	18	1	INFANT	737	n/a	n/a	0	0	0
96239	WORD	wordpools/wasnorm_wordpool_576.txt	LTP229	ltpFR2	18	1	CELLAR	267	n/a	n/a	0	0	0
98886	WORD	wordpools/wasnorm_wordpool_576.txt	LTP229	ltpFR2	18	1	CLAMP	316	n/a	n/a	0	0	0
101499	WORD	wordpools/wasnorm_wordpool_576.txt	LTP229	ltpFR2	18	1	SPIDER	1351	n/a	n/a	0	0	0
104111	WORD	wordpools/wasnorm_wordpool_576.txt	LTP229	ltpFR2	18	1	OINTMENT	974	n/a	n/a	0	0	0
106658	WORD	wordpools/wasnorm_wordpool_576.txt	LTP229	ltpFR2	18	1	ARM	38	n/a	n/a	0	0	0
109253	WORD	wordpools/wasnorm_wordpool_576.txt	LTP229	ltpFR2	18	1	STAPLE	1371	n/a	n/a	0	0	0
111683	WORD	wordpools/wasnorm_wordpool_576.txt	LTP229	ltpFR2	18	1	PAPER	1011	n/a	n/a	0	0	0
114412	WORD	wordpools/wasnorm_wordpool_576.txt	LTP229	ltpFR2	18	1	SPACE	1345	n/a	n/a	0	0	0
117009	WORD	wordpools/wasnorm_wordpool_576.txt	LTP229	ltpFR2	18	1	HEART	697	n/a	n/a	0	0	0
119454	WORD	wordpools/wasnorm_wordpool_576.txt	LTP229	ltpFR2	18	1	FLESH	579	n/a	n/a	0	0	0
122085	WORD	wordpools/wasnorm_wordpool_576.txt	LTP229	ltpFR2	18	1	BASEMENT	94	n/a	n/a	0	0	0
124681	WORD	wordpools/wasnorm_wordpool_576.txt	LTP229	ltpFR2	18	1	SALT	1229	n/a	n/a	0	0	0
127226	WORD	wordpools/wasnorm_wordpool_576.txt	LTP229	ltpFR2	18	1	PERFUME	1049	n/a	n/a	0	0	0
128841	START	n/a	LTP229	ltpFR2	18	n/a	n/a	n/a	1	n/a	n/a	n/a	n/a
129921	DISTRACTOR	n/a	LTP229	ltpFR2	18	1	n/a	n/a	n/a	n/a	0	0	0
129923	PROB	n/a	LTP229	ltpFR2	18	n/a	n/a	n/a	1	15	5	1	9
131604	PROB	n/a	LTP229	ltpFR2	18	n/a	n/a	n/a	1	6	2	3	1
132985	PROB	n/a	LTP229	ltpFR2	18	n/a	n/a	n/a	1	17	8	8	1
134716	PROB	n/a	LTP229	ltpFR2	18	n/a	n/a	n/a	1	21	9	3	9
136480	PROB	n/a	LTP229	ltpFR2	18	n/a	n/a	n/a	1	18	3	6	9
137711	PROB	n/a	LTP229	ltpFR2	18	n/a	n/a	n/a	1	14	7	2	5
139241	PROB	n/a	LTP229	ltpFR2	18	n/a	n/a	n/a	1	9	3	3	3
140323	PROB	n/a	LTP229	ltpFR2	18	n/a	n/a	n/a	1	21	5	7	6
142470	PROB	n/a	LTP229	ltpFR2	18	n/a	n/a	n/a	1	15	5	9	8
143719	PROB	n/a	LTP229	ltpFR2	18	n/a	n/a	n/a	1	18	8	2	8
145149	PROB	n/a	LTP229	ltpFR2	18	n/a	n/a	n/a	1	14	4	8	2
146581	PROB	n/a	LTP229	ltpFR2	18	n/a	n/a	n/a	1	19	5	5	9
147613	PROB	n/a	LTP229	ltpFR2	18	n/a	n/a	n/a	1	13	5	5	3
148695	PROB	n/a	LTP229	ltpFR2	18	n/a	n/a	n/a	1	10	7	1	2
150559	PROB	n/a	LTP229	ltpFR2	18	n/a	n/a	n/a	1	7	5	1	1
151581	STOP	n/a	LTP229	ltpFR2	18	n/a	n/a	n/a	1	n/a	n/a	n/a	n/a
154687	REC_START	n/a	LTP229	ltpFR2	18	1	n/a	n/a	n/a	n/a	0	0	0
156952	REC_WORD	wordpools/wasnorm_wordpool_576.txt	LTP229	ltpFR2	18	1	LADY	794	n/a	n/a	0	0	0
158373	REC_WORD	wordpools/wasnorm_wordpool_576.txt	LTP229	ltpFR2	18	1	LEADER	807	n/a	n/a	0	0	0
160147	REC_WORD	wordpools/wasnorm_wordpool_576.txt	LTP229	ltpFR2	18	1	COMET	353	n/a	n/a	0	0	0
161689	REC_WORD	wordpools/wasnorm_wordpool_576.txt	LTP229	ltpFR2	18	1	SPACE	1345	n/a	n/a	0	0	0
163344	REC_WORD	wordpools/wasnorm_wordpool_576.txt	LTP229	ltpFR2	18	1	SALT	1229	n/a	n/a	0	0	0
165137	REC_WORD	wordpools/wasnorm_wordpool_576.txt	LTP229	ltpFR2	18	1	PERFUME	1049	n/a	n/a	0	0	0
168426	REC_WORD	wordpools/wasnorm_wordpool_576.txt	LTP229	ltpFR2	18	1	YOLK	1633	n/a	n/a	0	0	0
245449	WORD	wordpools/wasnorm_wordpool_576.txt	LTP229	ltpFR2	18	2	BABY	64	n/a	n/a	0	0	0
248096	WORD	wordpools/wasnorm_wordpool_576.txt	LTP229	ltpFR2	18	2	BLUEPRINT	142	n/a	n/a	0	0	0
250693	WORD	wordpools/wasnorm_wordpool_576.txt	LTP229	ltpFR2	18	2	PADDLE	1000	n/a	n/a	0	0	0
253121	WORD	wordpools/wasnorm_wordpool_576.txt	LTP229	ltpFR2	18	2	VIKING	1565	n/a	n/a	0	0	0
255868	WORD	wordpools/wasnorm_wordpool_576.txt	LTP229	ltpFR2	18	2	SERVANT	1271	n/a	n/a	0	0	0
258297	WORD	wordpools/wasnorm_wordpool_576.txt	LTP229	ltpFR2	18	2	NOVEL	960	n/a	n/a	0	0	0
261060	WORD	wordpools/wasnorm_wordpool_576.txt	LTP229	ltpFR2	18	2	DANCER	437	n/a	n/a	0	0	0
263623	WORD	wordpools/wasnorm_wordpool_576.txt	LTP229	ltpFR2	18	2	LAVA	804	n/a	n/a	0	0	0
266070	WORD	wordpools/wasnorm_wordpool_576.txt	LTP229	ltpFR2	18	2	DENTIST	447	n/a	n/a	0	0	0
268732	WORD	wordpools/wasnorm_wordpool_576.txt	LTP229	ltpFR2	18	2	TUTU	1524	n/a	n/a	0	0	0
271461	WORD	wordpools/wasnorm_wordpool_576.txt	LTP229	ltpFR2	18	2	DINER	467	n/a	n/a	0	0	0
274108	WORD	wordpools/wasnorm_wordpool_576.txt	LTP229	ltpFR2	18	2	GUARD	667	n/a	n/a	0	0	0
276837	WORD	wordpools/wasnorm_wordpool_576.txt	LTP229	ltpFR2	18	2	WHISTLE	1606	n/a	n/a	0	0	0
279449	WORD	wordpools/wasnorm_wordpool_576.txt	LTP229	ltpFR2	18	2	DRILL	497	n/a	n/a	0	0	0
281879	WORD	wordpools/wasnorm_wordpool_576.txt	LTP229	ltpFR2	18	2	LUNCH	849	n/a	n/a	0	0	0
284408	WORD	wordpools/wasnorm_wordpool_576.txt	LTP229	ltpFR2	18	2	CANYON	235	n/a	n/a	0	0	0
287038	WORD	wordpools/wasnorm_wordpool_576.txt	LTP229	ltpFR2	18	2	PIANO	1057	n/a	n/a	0	0	0
289467	WORD	wordpools/wasnorm_wordpool_576.txt	LTP229	ltpFR2	18	2	JOURNAL	760	n/a	n/a	0	0	0
292263	WORD	wordpools/wasnorm_wordpool_576.txt	LTP229	ltpFR2	18	2	NOTEBOOK	959	n/a	n/a	0	0	0
294976	WORD	wordpools/wasnorm_wordpool_576.txt	LTP229	ltpFR2	18	2	MASK	876	n/a	n/a	0	0	0
297438	WORD	wordpools/wasnorm_wordpool_576.txt	LTP229	ltpFR2	18	2	CASHIER	254	n/a	n/a	0	0	0
300002	WORD	wordpools/wasnorm_wordpool_576.txt	LTP229	ltpFR2	18	2	AWARD	63	n/a	n/a	0	0	0
302532	WORD	wordpools/wasnorm_wordpool_576.txt	LTP229	ltpFR2	18	2	MONEY	908	n/a	n/a	0	0	0
305061	WORD	wordpools/wasnorm_wordpool_576.txt	LTP229	ltpFR2	18	2	ATLAS	53	n/a	n/a	0	0	0
306676	START	n/a	LTP229	ltpFR2	18	n/a	n/a	n/a	2	n/a	n/a	n/a	n/a
307629	DISTRACTOR	n/a	LTP229	ltpFR2	18	2	n/a	n/a	n/a	n/a	0	0	0
307641	PROB	n/a	LTP229	ltpFR2	18	n/a	n/a	n/a	2	5	1	3	1
308839	PROB	n/a	LTP229	ltpFR2	18	n/a	n/a	n/a	2	20	4	7	9
310803	PROB	n/a	LTP229	ltpFR2	18	n/a	n/a	n/a	2	13	7	3	3
311918	PROB	n/a	LTP229	ltpFR2	18	n/a	n/a	n/a	2	14	4	8	2
314647	PROB	n/a	LTP229	ltpFR2	18	n/a	n/a	n/a	2	9	6	2	1
316644	PROB	n/a	LTP229	ltpFR2	18	n/a	n/a	n/a	2	10	5	2	3
318641	PROB	n/a	LTP229	ltpFR2	18	n/a	n/a	n/a	2	8	1	2	5
320006	PROB	n/a	LTP229	ltpFR2	18	n/a	n/a	n/a	2	17	5	5	7
321071	PROB	n/a	LTP229	ltpFR2	18	n/a	n/a	n/a	2	15	8	3	4
322668	PROB	n/a	LTP229	ltpFR2	18	n/a	n/a	n/a	2	16	5	7	4
324265	PROB	n/a	LTP229	ltpFR2	18	n/a	n/a	n/a	2	9	2	4	3
326195	PROB	n/a	LTP229	ltpFR2	18	n/a	n/a	n/a	2	7	1	4	2
327827	PROB	n/a	LTP229	ltpFR2	18	n/a	n/a	n/a	2	8	4	1	3
329059	PROB	n/a	LTP229	ltpFR2	18	n/a	n/a	n/a	2	9	3	1	5
330460	STOP	n/a	LTP229	ltpFR2	18	n/a	n/a	n/a	2	n/a	n/a	n/a	n/a
332504	REC_START	n/a	LTP229	ltpFR2	18	2	n/a	n/a	n/a	n/a	0	0	0
337647	REC_WORD	wordpools/wasnorm_wordpool_576.txt	LTP229	ltpFR2	18	2	BLUEPRINT	142	n/a	n/a	0	0	0
339286	REC_WORD	wordpools/wasnorm_wordpool_576.txt	LTP229	ltpFR2	18	2	BABY	64	n/a	n/a	0	0	0
340783	REC_WORD	wordpools/wasnorm_wordpool_576.txt	LTP229	ltpFR2	18	2	LAVA	804	n/a	n/a	0	0	0
342389	REC_WORD	wordpools/wasnorm_wordpool_576.txt	LTP229	ltpFR2	18	2	DANCER	437	n/a	n/a	0	0	0
344009	REC_WORD	wordpools/wasnorm_wordpool_576.txt	LTP229	ltpFR2	18	2	TUTU	1524	n/a	n/a	0	0	0
345752	REC_WORD	wordpools/wasnorm_wordpool_576.txt	LTP229	ltpFR2	18	2	DENTIST	447	n/a	n/a	0	0	0
347446	REC_WORD	wordpools/wasnorm_wordpool_576.txt	LTP229	ltpFR2	18	2	DINER	467	n/a	n/a	0	0	0
352638	REC_WORD	wordpools/wasnorm_wordpool_576.txt	LTP229	ltpFR2	18	2	PADDLE	1000	n/a	n/a	0	0	0
354648	REC_WORD	wordpools/wasnorm_wordpool_576.txt	LTP229	ltpFR2	18	2	WHISTLE	1606	n/a	n/a	0	0	0
392683	REC_WORD_VV	wordpools/wasnorm_wordpool_576.txt	LTP229	ltpFR2	18	2	<>	-1	n/a	n/a	0	0	0
393683	REC_WORD_VV	wordpools/wasnorm_wordpool_576.txt	LTP229	ltpFR2	18	2	<>	-1	n/a	n/a	0	0	0
423167	WORD	wordpools/wasnorm_wordpool_576.txt	LTP229	ltpFR2	18	3	FRUIT	610	n/a	n/a	0	0	0
425731	WORD	wordpools/wasnorm_wordpool_576.txt	LTP229	ltpFR2	18	3	BUBBLE	183	n/a	n/a	0	0	0
428177	WORD	wordpools/wasnorm_wordpool_576.txt	LTP229	ltpFR2	18	3	AIRPLANE	12	n/a	n/a	0	0	0
430940	WORD	wordpools/wasnorm_wordpool_576.txt	LTP229	ltpFR2	18	3	SISTER	1312	n/a	n/a	0	0	0
433469	WORD	wordpools/wasnorm_wordpool_576.txt	LTP229	ltpFR2	18	3	PICTURE	1061	n/a	n/a	0	0	0
436116	WORD	wordpools/wasnorm_wordpool_576.txt	LTP229	ltpFR2	18	3	MEAT	883	n/a	n/a	0	0	0
438778	WORD	wordpools/wasnorm_wordpool_576.txt	LTP229	ltpFR2	18	3	GLASS	639	n/a	n/a	0	0	0
441240	WORD	wordpools/wasnorm_wordpool_576.txt	LTP229	ltpFR2	18	3	JUDGE	761	n/a	n/a	0	0	0
444054	WORD	wordpools/wasnorm_wordpool_576.txt	LTP229	ltpFR2	18	3	BRIEFCASE	175	n/a	n/a	0	0	0
446650	WORD	wordpools/wasnorm_wordpool_576.txt	LTP229	ltpFR2	18	3	RAFT	1159	n/a	n/a	0	0	0
449345	WORD	wordpools/wasnorm_wordpool_576.txt	LTP229	ltpFR2	18	3	CANAL	226	n/a	n/a	0	0	0
452075	WORD	wordpools/wasnorm_wordpool_576.txt	LTP229	ltpFR2	18	3	STONE	1385	n/a	n/a	0	0	0
454854	WORD	wordpools/wasnorm_wordpool_576.txt	LTP229	ltpFR2	18	3	SHELTER	1282	n/a	n/a	0	0	0
457283	WORD	wordpools/wasnorm_wordpool_576.txt	LTP229	ltpFR2	18	3	WINDOW	1611	n/a	n/a	0	0	0
459864	WORD	wordpools/wasnorm_wordpool_576.txt	LTP229	ltpFR2	18	3	SUSPECT	1415	n/a	n/a	0	0	0
462459	WORD	wordpools/wasnorm_wordpool_576.txt	LTP229	ltpFR2	18	3	BROTHER	179	n/a	n/a	0	0	0
465155	WORD	wordpools/wasnorm_wordpool_576.txt	LTP229	ltpFR2	18	3	OUTFIT	988	n/a	n/a	0	0	0
467935	WORD	wordpools/wasnorm_wordpool_576.txt	LTP229	ltpFR2	18	3	NECKLACE	940	n/a	n/a	0	0	0
470564	WORD	wordpools/wasnorm_wordpool_576.txt	LTP229	ltpFR2	18	3	MEDAL	885	n/a	n/a	0	0	0
473209	WORD	wordpools/wasnorm_wordpool_576.txt	LTP229	ltpFR2	18	3	BOARD	143	n/a	n/a	0	0	0
475723	WORD	wordpools/wasnorm_wordpool_576.txt	LTP229	ltpFR2	18	3	POSTAGE	1113	n/a	n/a	0	0	0
478285	WORD	wordpools/wasnorm_wordpool_576.txt	LTP229	ltpFR2	18	3	STATUE	1374	n/a	n/a	0	0	0
480832	WORD	wordpools/wasnorm_wordpool_576.txt	LTP229	ltpFR2	18	3	OUTLAW	989	n/a	n/a	0	0	0
483545	WORD	wordpools/wasnorm_wordpool_576.txt	LTP229	ltpFR2	18	3	CAPTIVE	240	n/a	n/a	0	0	0
485158	START	n/a	LTP229	ltpFR2	18	n/a	n/a	n/a	3	n/a	n/a	n/a	n/a
486204	DISTRACTOR	n/a	LTP229	ltpFR2	18	3	n/a	n/a	n/a	n/a	0	0	0
486207	PROB	n/a	LTP229	ltpFR2	18	n/a	n/a	n/a	3	14	4	7	3
487822	PROB	n/a	LTP229	ltpFR2	18	n/a	n/a	n/a	3	22	9	7	6
491366	PROB	n/a	LTP229	ltpFR2	18	n/a	n/a	n/a	3	20	9	7	4
493097	PROB	n/a	LTP229	ltpFR2	18	n/a	n/a	n/a	3	15	4	8	2
495843	PROB	n/a	LTP229	ltpFR2	18	n/a	n/a	n/a	3	21	3	9	9
497740	PROB	n/a	LTP229	ltpFR2	18	n/a	n/a	n/a	3	15	9	1	5
499221	PROB	n/a	LTP229	ltpFR2	18	n/a	n/a	n/a	3	15	4	4	7
500786	PROB	n/a	LTP229	ltpFR2	18	n/a	n/a	n/a	3	16	4	1	7
504031	PROB	n/a	LTP229	ltpFR2	18	n/a	n/a	n/a	3	16	8	3	5
507805	STOP	n/a	LTP229	ltpFR2	18	n/a	n/a	n/a	3	n/a	n/a	n/a	n/a
511104	REC_START	n/a	LTP229	ltpFR2	18	3	n/a	n/a	n/a	n/a	0	0	0
512154	REC_WORD	wordpools/wasnorm_wordpool_576.txt	LTP229	ltpFR2	18	3	POSTAGE	1113	n/a	n/a	0	0	0
513828	REC_WORD	wordpools/wasnorm_wordpool_576.txt	LTP229	ltpFR2	18	3	OUTLAW	989	n/a	n/a	0	0	0
515432	REC_WORD	wordpools/wasnorm_wordpool_576.txt	LTP229	ltpFR2	18	3	SUSPECT	1415	n/a	n/a	0	0	0
517363	REC_WORD	wordpools/wasnorm_wordpool_576.txt	LTP229	ltpFR2	18	3	BROTHER	179	n/a	n/a	0	0	0
518859	REC_WORD	wordpools/wasnorm_wordpool_576.txt	LTP229	ltpFR2	18	3	SISTER	1312	n/a	n/a	0	0	0
520535	REC_WORD	wordpools/wasnorm_wordpool_576.txt	LTP229	ltpFR2	18	3	CANAL	226	n/a	n/a	0	0	0
522310	REC_WORD	wordpools/wasnorm_wordpool_576.txt	LTP229	ltpFR2	18	3	RAFT	1159	n/a	n/a	0	0	0
571083	REC_WORD	wordpools/wasnorm_wordpool_576.txt	LTP229	ltpFR2	18	3	WINDOW	1611	n/a	n/a	0	0	0
575683	REC_WORD	wordpools/wasnorm_wordpool_576.txt	LTP229	ltpFR2	18	3	AIRPLANE	12	n/a	n/a	0	0	0
577451	REC_WORD	wordpools/wasnorm_wordpool_576.txt	LTP229	ltpFR2	18	3	SISTER	1312	n/a	n/a	0	0	0
579711	REC_WORD	wordpools/wasnorm_wordpool_576.txt	LTP229	ltpFR2	18	3	BROTHER	179	n/a	n/a	0	0	0
581635	REC_WORD	wordpools/wasnorm_wordpool_576.txt	LTP229	ltpFR2	18	3	OUTFIT	988	n/a	n/a	0	0	0
601802	DISTRACTOR	n/a	LTP229	ltpFR2	18	4	n/a	n/a	n/a	n/a	0	0	0
601802	START	n/a	LTP229	ltpFR2	18	n/a	n/a	n/a	4	n/a	n/a	n/a	n/a
601835	PROB	n/a	LTP229	ltpFR2	18	n/a	n/a	n/a	4	12	3	4	5
603232	PROB	n/a	LTP229	ltpFR2	18	n/a	n/a	n/a	4	16	2	7	7
605179	PROB	n/a	LTP229	ltpFR2	18	n/a	n/a	n/a	4	14	3	2	9
606528	PROB	n/a	LTP229	ltpFR2	18	n/a	n/a	n/a	4	13	2	8	3
608758	PROB	n/a	LTP229	ltpFR2	18	n/a	n/a	n/a	4	7	1	4	2
610338	PROB	n/a	LTP229	ltpFR2	18	n/a	n/a	n/a	4	20	9	4	7
611970	PROB	n/a	LTP229	ltpFR2	18	n/a	n/a	n/a	4	10	6	2	2
613383	PROB	n/a	LTP229	ltpFR2	18	n/a	n/a	n/a	4	24	9	8	7
617228	PROB	n/a	LTP229	ltpFR2	18	n/a	n/a	n/a	4	8	1	3	4
618710	PROB	n/a	LTP229	ltpFR2	18	n/a	n/a	n/a	4	7	5	1	1
619725	PROB	n/a	LTP229	ltpFR2	18	n/a	n/a	n/a	4	23	5	9	9
621755	PROB	n/a	LTP229	ltpFR2	18	n/a	n/a	n/a	4	7	2	2	3
623553	PROB	n/a	LTP229	ltpFR2	18	n/a	n/a	n/a	4	10	2	2	6
625124	STOP	n/a	LTP229	ltpFR2	18	n/a	n/a	n/a	4	n/a	n/a	n/a	n/a
626798	WORD	wordpools/wasnorm_wordpool_576.txt	LTP229	ltpFR2	18	4	LIZARD	834	n/a	n/a	0	0	0
629360	WORD	wordpools/wasnorm_wordpool_576.txt	LTP229	ltpFR2	18	4	BREAST	171	n/a	n/a	0	0	0
632122	WORD	wordpools/wasnorm_wordpool_576.txt	LTP229	ltpFR2	18	4	SHORTS	1293	n/a	n/a	0	0	0
634936	WORD	wordpools/wasnorm_wordpool_576.txt	LTP229	ltpFR2	18	4	RELISH	1183	n/a	n/a	0	0	0
637765	WORD	wordpools/wasnorm_wordpool_576.txt	LTP229	ltpFR2	18	4	LEG	809	n/a	n/a	0	0	0
640426	WORD	wordpools/wasnorm_wordpool_576.txt	LTP229	ltpFR2	18	4	CRAB	397	n/a	n/a	0	0	0
642990	WORD	wordpools/wasnorm_wordpool_576.txt	LTP229	ltpFR2	18	4	STOMACH	1384	n/a	n/a	0	0	0
645719	WORD	wordpools/wasnorm_wordpool_576.txt	LTP229	ltpFR2	18	4	LIVER	833	n/a	n/a	0	0	0
648532	WORD	wordpools/wasnorm_wordpool_576.txt	LTP229	ltpFR2	18	4	BLADE	134	n/a	n/a	0	0	0
651260	WORD	wordpools/wasnorm_wordpool_576.txt	LTP229	ltpFR2	18	4	LAPEL	800	n/a	n/a	0	0	0
653974	WORD	wordpools/wasnorm_wordpool_576.txt	LTP229	ltpFR2	18	4	TWEEZERS	1526	n/a	n/a	0	0	0
656720	WORD	wordpools/wasnorm_wordpool_576.txt	LTP229	ltpFR2	18	4	COOKBOOK	373	n/a	n/a	0	0	0
659499	WORD	wordpools/wasnorm_wordpool_576.txt	LTP229	ltpFR2	18	4	BULLET	194	n/a	n/a	0	0	0
662045	WORD	wordpools/wasnorm_wordpool_576.txt	LTP229	ltpFR2	18	4	PISTOL	1075	n/a	n/a	0	0	0
664525	WORD	wordpools/wasnorm_wordpool_576.txt	LTP229	ltpFR2	18	4	SPOUSE	1358	n/a	n/a	0	0	0
667320	WORD	wordpools/wasnorm_wordpool_576.txt	LTP229	ltpFR2	18	4	PRINCESS	1125	n/a	n/a	0	0	0
669833	WORD	wordpools/wasnorm_wordpool_576.txt	LTP229	ltpFR2	18	4	CLAM	315	n/a	n/a	0	0	0
672295	WORD	wordpools/wasnorm_wordpool_576.txt	LTP229	ltpFR2	18	4	FLOWER	584	n/a	n/a	0	0	0
674959	WORD	wordpools/wasnorm_wordpool_576.txt	LTP229	ltpFR2	18	4	JAPAN	749	n/a	n/a	0	0	0
677755	WORD	wordpools/wasnorm_wordpool_576.txt	LTP229	ltpFR2	18	4	SNAKE	1333	n/a	n/a	0	0	0
680383	WORD	wordpools/wasnorm_wordpool_576.txt	LTP229	ltpFR2	18	4	STALLION	1369	n/a	n/a	0	0	0
682947	WORD	wordpools/wasnorm_wordpool_576.txt	LTP229	ltpFR2	18	4	BARLEY	88	n/a	n/a	0	0	0
685660	WORD	wordpools/wasnorm_wordpool_576.txt	LTP229	ltpFR2	18	4	GALLON	618	n/a	n/a	0	0	0
688188	WORD	wordpools/wasnorm_wordpool_576.txt	LTP229	ltpFR2	18	4	SWORD	1423	n/a	n/a	0	0	0
689804	START	n/a	LTP229	ltpFR2	18	n/a	n/a	n/a	5	n/a	n/a	n/a	n/a
690715	DISTRACTOR	n/a	LTP229	ltpFR2	18	4	n/a	n/a	n/a	n/a	0	0	0
690719	PROB	n/a	LTP229	ltpFR2	18	n/a	n/a	n/a	5	10	5	3	2
692316	PROB	n/a	LTP229	ltpFR2	18	n/a	n/a	n/a	5	24	6	8	7
694081	PROB	n/a	LTP229	ltpFR2	18	n/a	n/a	n/a	5	15	6	9	7
695978	PROB	n/a	LTP229	ltpFR2	18	n/a	n/a	n/a	5	16	5	4	7
697742	PROB	n/a	LTP229	ltpFR2	18	n/a	n/a	n/a	5	11	2	6	3
699305	PROB	n/a	LTP229	ltpFR2	18	n/a	n/a	n/a	5	7	3	3	1
700588	PROB	n/a	LTP229	ltpFR2	18	n/a	n/a	n/a	5	11	7	1	3
701686	PROB	n/a	LTP229	ltpFR2	18	n/a	n/a	n/a	5	19	6	4	9
702718	PROB	n/a	LTP229	ltpFR2	18	n/a	n/a	n/a	5	19	8	2	9
703799	PROB	n/a	LTP229	ltpFR2	18	n/a	n/a	n/a	5	22	7	8	7
705746	PROB	n/a	LTP229	ltpFR2	18	n/a	n/a	n/a	5	11	5	3	3
707410	PROB	n/a	LTP229	ltpFR2	18	n/a	n/a	n/a	5	16	8	6	2
708792	PROB	n/a	LTP229	ltpFR2	18	n/a	n/a	n/a	5	13	9	2	2
710239	PROB	n/a	LTP229	ltpFR2	18	n/a	n/a	n/a	5	10	1	6	3
713803	STOP	n/a	LTP229	ltpFR2	18	n/a	n/a	n/a	5	n/a	n/a	n/a	n/a
715582	REC_START	n/a	LTP229	ltpFR2	18	4	n/a	n/a	n/a	n/a	0	0	0
727601	REC_WORD	wordpools/wasnorm_wordpool_576.txt	LTP229	ltpFR2	18	4	JAPAN	749	n/a	n/a	0	0	0
729277	REC_WORD	wordpools/wasnorm_wordpool_576.txt	LTP229	ltpFR2	18	4	SWORD	1423	n/a	n/a	0	0	0
731110	REC_WORD	wordpools/wasnorm_wordpool_576.txt	LTP229	ltpFR2	18	4	SNAKE	1333	n/a	n/a	0	0	0
733877	REC_WORD	wordpools/wasnorm_wordpool_576.txt	LTP229	ltpFR2	18	4	BREAST	171	n/a	n/a	0	0	0
735876	REC_WORD	wordpools/wasnorm_wordpool_576.txt	LTP229	ltpFR2	18	4	FLOWER	584	n/a	n/a	0	0	0
738276	REC_WORD	wordpools/wasnorm_wordpool_576.txt	LTP229	ltpFR2	18	4	LILY	821	n/a	n/a	0	0	0
740716	REC_WORD	wordpools/wasnorm_wordpool_576.txt	LTP229	ltpFR2	18	4	PRINCESS	1125	n/a	n/a	0	0	0
742953	REC_WORD	wordpools/wasnorm_wordpool_576.txt	LTP229	ltpFR2	18	4	CLAM	315	n/a	n/a	0	0	0
806279	WORD	wordpools/wasnorm_wordpool_576.txt	LTP229	ltpFR2	18	5	MARSH	874	n/a	n/a	0	0	0
808959	WORD	wordpools/wasnorm_wordpool_576.txt	LTP229	ltpFR2	18	5	PECAN	1036	n/a	n/a	0	0	0
811572	WORD	wordpools/wasnorm_wordpool_576.txt	LTP229	ltpFR2	18	5	OUTDOORS	987	n/a	n/a	0	0	0
814150	WORD	wordpools/wasnorm_wordpool_576.txt	LTP229	ltpFR2	18	5	SKIRT	1319	n/a	n/a	0	0	0
816631	WORD	wordpools/wasnorm_wordpool_576.txt	LTP229	ltpFR2	18	5	WASP	1593	n/a	n/a	0	0	0
819243	WORD	wordpools/wasnorm_wordpool_576.txt	LTP229	ltpFR2	18	5	PASSAGE	1019	n/a	n/a	0	0	0
821723	WORD	wordpools/wasnorm_wordpool_576.txt	LTP229	ltpFR2	18	5	PIGEON	1065	n/a	n/a	0	0	0
824185	WORD	wordpools/wasnorm_wordpool_576.txt	LTP229	ltpFR2	18	5	PORK	1108	n/a	n/a	0	0	0
826949	WORD	wordpools/wasnorm_wordpool_576.txt	LTP229	ltpFR2	18	5	SEAL	1262	n/a	n/a	0	0	0
829512	WORD	wordpools/wasnorm_wordpool_576.txt	LTP229	ltpFR2	18	5	CHIPMUNK	304	n/a	n/a	0	0	0
832273	WORD	wordpools/wasnorm_wordpool_576.txt	LTP229	ltpFR2	18	5	COWBOY	395	n/a	n/a	0	0	0
834737	WORD	wordpools/wasnorm_wordpool_576.txt	LTP229	ltpFR2	18	5	CROSS	413	n/a	n/a	0	0	0
837465	WORD	wordpools/wasnorm_wordpool_576.txt	LTP229	ltpFR2	18	5	WIFE	1609	n/a	n/a	0	0	0
840261	WORD	wordpools/wasnorm_wordpool_576.txt	LTP229	ltpFR2	18	5	COD	340	n/a	n/a	0	0	0
842709	WORD	wordpools/wasnorm_wordpool_576.txt	LTP229	ltpFR2	18	5	SALMON	1227	n/a	n/a	0	0	0
845270	WORD	wordpools/wasnorm_wordpool_576.txt	LTP229	ltpFR2	18	5	TRUCK	1512	n/a	n/a	0	0	0
847818	WORD	wordpools/wasnorm_wordpool_576.txt	LTP229	ltpFR2	18	5	BLOCKADE	137	n/a	n/a	0	0	0
850446	WORD	wordpools/wasnorm_wordpool_576.txt	LTP229	ltpFR2	18	5	SOFTBALL	1343	n/a	n/a	0	0	0
852943	WORD	wordpools/wasnorm_wordpool_576.txt	LTP229	ltpFR2	18	5	TEMPLE	1448	n/a	n/a	0	0	0
855573	WORD	wordpools/wasnorm_wordpool_576.txt	LTP229	ltpFR2	18	5	PARSLEY	1016	n/a	n/a	0	0	0
858301	WORD	wordpools/wasnorm_wordpool_576.txt	LTP229	ltpFR2	18	5	PUDDLE	1140	n/a	n/a	0	0	0
861115	WORD	wordpools/wasnorm_wordpool_576.txt	LTP229	ltpFR2	18	5	ZIPPER	1636	n/a	n/a	0	0	0
863644	WORD	wordpools/wasnorm_wordpool_576.txt	LTP229	ltpFR2	18	5	DASHBOARD	441	n/a	n/a	0	0	0
866372	WORD	wordpools/wasnorm_wordpool_576.txt	LTP229	ltpFR2	18	5	TERMITE	1451	n/a	n/a	0	0	0
867988	START	n/a	LTP229	ltpFR2	18	n/a	n/a	n/a	6	n/a	n/a	n/a	n/a
869185	DISTRACTOR	n/a	LTP229	ltpFR2	18	5	n/a	n/a	n/a	n/a	0	0	0
869201	PROB	n/a	LTP229	ltpFR2	18	n/a	n/a	n/a	6	14	3	3	8
871198	PROB	n/a	LTP229	ltpFR2	18	n/a	n/a	n/a	6	18	1	9	8
873063	PROB	n/a	LTP229	ltpFR2	18	n/a	n/a	n/a	6	18	3	9	6
875359	PROB	n/a	LTP229	ltpFR2	18	n/a	n/a	n/a	6	20	7	6	7
877041	PROB	n/a	LTP229	ltpFR2	18	n/a	n/a	n/a	6	1	4	9	1
879520	PROB	n/a	LTP229	ltpFR2	18	n/a	n/a	n/a	6	25	7	6	9
881651	PROB	n/a	LTP229	ltpFR2	18	n/a	n/a	n/a	6	24	8	9	7
883498	PROB	n/a	LTP229	ltpFR2	18	n/a	n/a	n/a	6	12	3	4	5
886061	PROB	n/a	LTP229	ltpFR2	18	n/a	n/a	n/a	6	17	3	5	9
887492	PROB	n/a	LTP229	ltpFR2	18	n/a	n/a	n/a	6	14	4	4	6
889471	PROB	n/a	LTP229	ltpFR2	18	n/a	n/a	n/a	6	12	4	5	3
890869	STOP	n/a	LTP229	ltpFR2	18	n/a	n/a	n/a	6	n/a	n/a	n/a	n/a
893816	REC_START	n/a	LTP229	ltpFR2	18	5	n/a	n/a	n/a	n/a	0	0	0
896553	REC_WORD	wordpools/wasnorm_wordpool_576.txt	LTP229	ltpFR2	18	5	WIFE	1609	n/a	n/a	0	0	0
898291	REC_WORD	wordpools/wasnorm_wordpool_576.txt	LTP229	ltpFR2	18	5	COD	340	n/a	n/a	0	0	0
900228	REC_WORD	wordpools/wasnorm_wordpool_576.txt	LTP229	ltpFR2	18	5	SALMON	1227	n/a	n/a	0	0	0
901940	REC_WORD	wordpools/wasnorm_wordpool_576.txt	LTP229	ltpFR2	18	5	TRUCK	1512	n/a	n/a	0	0	0
908419	REC_WORD	wordpools/wasnorm_wordpool_576.txt	LTP229	ltpFR2	18	5	OUTDOORS	987	n/a	n/a	0	0	0
910593	REC_WORD	wordpools/wasnorm_wordpool_576.txt	LTP229	ltpFR2	18	5	BULLET	194	n/a	n/a	0	0	0
912253	REC_WORD	wordpools/wasnorm_wordpool_576.txt	LTP229	ltpFR2	18	5	SPOUSE	1358	n/a	n/a	0	0	0
916430	REC_WORD	wordpools/wasnorm_wordpool_576.txt	LTP229	ltpFR2	18	5	PASSAGE	1019	n/a	n/a	0	0	0
938555	REC_WORD_VV	wordpools/wasnorm_wordpool_576.txt	LTP229	ltpFR2	18	5	<>	-1	n/a	n/a	0	0	0
944878	REC_WORD_VV	wordpools/wasnorm_wordpool_576.txt	LTP229	ltpFR2	18	5	<>	-1	n/a	n/a	0	0	0
984463	DISTRACTOR	n/a	LTP229	ltpFR2	18	6	n/a	n/a	n/a	n/a	0	0	0
984463	START	n/a	LTP229	ltpFR2	18	n/a	n/a	n/a	7	n/a	n/a	n/a	n/a
984497	PROB	n/a	LTP229	ltpFR2	18	n/a	n/a	n/a	7	16	7	6	3
986494	PROB	n/a	LTP229	ltpFR2	18	n/a	n/a	n/a	7	10	1	6	3
988340	PROB	n/a	LTP229	ltpFR2	18	n/a	n/a	n/a	7	24	8	9	7
989989	PROB	n/a	LTP229	ltpFR2	18	n/a	n/a	n/a	7	20	7	4	9
991770	PROB	n/a	LTP229	ltpFR2	18	n/a	n/a	n/a	7	23	6	9	8
996395	PROB	n/a	LTP229	ltpFR2	18	n/a	n/a	n/a	7	12	1	9	2
997877	PROB	n/a	LTP229	ltpFR2	18	n/a	n/a	n/a	7	15	9	5	1
999324	PROB	n/a	LTP229	ltpFR2	18	n/a	n/a	n/a	7	11	4	5	2
1000789	PROB	n/a	LTP229	ltpFR2	18	n/a	n/a	n/a	7	15	6	3	6
1003384	PROB	n/a	LTP229	ltpFR2	18	n/a	n/a	n/a	7	14	4	3	7
1004634	PROB	n/a	LTP229	ltpFR2	18	n/a	n/a	n/a	7	16	7	8	1
1005815	PROB	n/a	LTP229	ltpFR2	18	n/a	n/a	n/a	7	18	4	8	6
1007396	STOP	n/a	LTP229	ltpFR2	18	n/a	n/a	n/a	7	n/a	n/a	n/a	n/a
1009510	WORD	wordpools/wasnorm_wordpool_576.txt	LTP229	ltpFR2	18	6	COUCH	386	n/a	n/a	0	0	0
1012121	WORD	wordpools/wasnorm_wordpool_576.txt	LTP229	ltpFR2	18	6	CORAL	378	n/a	n/a	0	0	0
1014852	WORD	wordpools/wasnorm_wordpool_576.txt	LTP229	ltpFR2	18	6	POPCORN	1104	n/a	n/a	0	0	0
1017631	WORD	wordpools/wasnorm_wordpool_576.txt	LTP229	ltpFR2	18	6	ONION	977	n/a	n/a	0	0	0
1020259	WORD	wordpools/wasnorm_wordpool_576.txt	LTP229	ltpFR2	18	6	LION	827	n/a	n/a	0	0	0
1022856	WORD	wordpools/wasnorm_wordpool_576.txt	LTP229	ltpFR2	18	6	CHILD	299	n/a	n/a	0	0	0
1025335	WORD	wordpools/wasnorm_wordpool_576.txt	LTP229	ltpFR2	18	6	MAILBOX	857	n/a	n/a	0	0	0
1027799	WORD	wordpools/wasnorm_wordpool_576.txt	LTP229	ltpFR2	18	6	TUBA	1515	n/a	n/a	0	0	0
1030294	WORD	wordpools/wasnorm_wordpool_576.txt	LTP229	ltpFR2	18	6	HELMET	702	n/a	n/a	0	0	0
1032908	WORD	wordpools/wasnorm_wordpool_576.txt	LTP229	ltpFR2	18	6	MARKET	871	n/a	n/a	0	0	0
1035621	WORD	wordpools/wasnorm_wordpool_576.txt	LTP229	ltpFR2	18	6	KEEPER	769	n/a	n/a	0	0	0
1038067	WORD	wordpools/wasnorm_wordpool_576.txt	LTP229	ltpFR2	18	6	PARENT	1013	n/a	n/a	0	0	0
1040863	WORD	wordpools/wasnorm_wordpool_576.txt	LTP229	ltpFR2	18	6	FOOTBALL	591	n/a	n/a	0	0	0
1043509	WORD	wordpools/wasnorm_wordpool_576.txt	LTP229	ltpFR2	18	6	FILM	565	n/a	n/a	0	0	0
1046005	WORD	wordpools/wasnorm_wordpool_576.txt	LTP229	ltpFR2	18	6	HATCHET	691	n/a	n/a	0	0	0
1048801	WORD	wordpools/wasnorm_wordpool_576.txt	LTP229	ltpFR2	18	6	GROUND	666	n/a	n/a	0	0	0
1051613	WORD	wordpools/wasnorm_wordpool_576.txt	LTP229	ltpFR2	18	6	LUGGAGE	847	n/a	n/a	0	0	0
1054142	WORD	wordpools/wasnorm_wordpool_576.txt	LTP229	ltpFR2	18	6	PRIMATE	1123	n/a	n/a	0	0	0
1056806	WORD	wordpools/wasnorm_wordpool_576.txt	LTP229	ltpFR2	18	6	JUNGLE	764	n/a	n/a	0	0	0
1059334	WORD	wordpools/wasnorm_wordpool_576.txt	LTP229	ltpFR2	18	6	PANTHER	1009	n/a	n/a	0	0	0
1061898	WORD	wordpools/wasnorm_wordpool_576.txt	LTP229	ltpFR2	18	6	SCARECROW	1245	n/a	n/a	0	0	0
1064393	WORD	wordpools/wasnorm_wordpool_576.txt	LTP229	ltpFR2	18	6	SHOVEL	1295	n/a	n/a	0	0	0
1067189	WORD	wordpools/wasnorm_wordpool_576.txt	LTP229	ltpFR2	18	6	WRENCH	1625	n/a	n/a	0	0	0
1069919	WORD	wordpools/wasnorm_wordpool_576.txt	LTP229	ltpFR2	18	6	ROBIN	1199	n/a	n/a	0	0	0
1071534	START	n/a	LTP229	ltpFR2	18	n/a	n/a	n/a	8	n/a	n/a	n/a	n/a
1072499	DISTRACTOR	n/a	LTP229	ltpFR2	18	6	n/a	n/a	n/a	n/a	0	0	0
1072516	PROB	n/a	LTP229	ltpFR2	18	n/a	n/a	n/a	8	18	4	9	5
1074345	PROB	n/a	LTP229	ltpFR2	18	n/a	n/a	n/a	8	14	3	6	5
1075827	PROB	n/a	LTP229	ltpFR2	18	n/a	n/a	n/a	8	26	9	9	8
1078456	PROB	n/a	LTP229	ltpFR2	18	n/a	n/a	n/a	8	6	1	2	3
1079921	PROB	n/a	LTP229	ltpFR2	18	n/a	n/a	n/a	8	8	3	2	3
1081585	PROB	n/a	LTP229	ltpFR2	18	n/a	n/a	n/a	8	10	1	4	5
1083348	PROB	n/a	LTP229	ltpFR2	18	n/a	n/a	n/a	8	24	7	8	9
1084714	PROB	n/a	LTP229	ltpFR2	18	n/a	n/a	n/a	8	12	9	1	2
1085896	PROB	n/a	LTP229	ltpFR2	18	n/a	n/a	n/a	8	10	7	2	1
1087126	PROB	n/a	LTP229	ltpFR2	18	n/a	n/a	n/a	8	15	9	2	4
1088457	PROB	n/a	LTP229	ltpFR2	18	n/a	n/a	n/a	8	23	6	9	9
1090471	PROB	n/a	LTP229	ltpFR2	18	n/a	n/a	n/a	8	17	1	7	9
1091986	PROB	n/a	LTP229	ltpFR2	18	n/a	n/a	n/a	8	14	3	2	9
1093367	PROB	n/a	LTP229	ltpFR2	18	n/a	n/a	n/a	8	10	2	5	3
1095460	STOP	n/a	LTP229	ltpFR2	18	n/a	n/a	n/a	8	n/a	n/a	n/a	n/a
1097479	REC_START	n/a	LTP229	ltpFR2	18	6	n/a	n/a	n/a	n/a	0	0	0
1098845	REC_WORD	wordpools/wasnorm_wordpool_576.txt	LTP229	ltpFR2	18	6	SHOVEL	1295	n/a	n/a	0	0	0
1101176	REC_WORD	wordpools/wasnorm_wordpool_576.txt	LTP229	ltpFR2	18	6	PANTHER	1009	n/a	n/a	0	0	0
1103227	REC_WORD	wordpools/wasnorm_wordpool_576.txt	LTP229	ltpFR2	18	6	JUNGLE	764	n/a	n/a	0	0	0
1109257	REC_WORD	wordpools/wasnorm_wordpool_576.txt	LTP229	ltpFR2	18	6	COUCH	386	n/a	n/a	0	0	0
1188125	DISTRACTOR	n/a	LTP229	ltpFR2	18	7	n/a	n/a	n/a	n/a	0	0	0
1188126	START	n/a	LTP229	ltpFR2	18	n/a	n/a	n/a	9	n/a	n/a	n/a	n/a
1188159	PROB	n/a	LTP229	ltpFR2	18	n/a	n/a	n/a	9	15	7	5	3
1190872	PROB	n/a	LTP229	ltpFR2	18	n/a	n/a	n/a	9	9	4	4	1
1192120	PROB	n/a	LTP229	ltpFR2	18	n/a	n/a	n/a	9	17	8	6	3
1193685	PROB	n/a	LTP229	ltpFR2	18	n/a	n/a	n/a	9	11	2	1	8
1194899	PROB	n/a	LTP229	ltpFR2	18	n/a	n/a	n/a	9	13	7	2	4
1197512	PROB	n/a	LTP229	ltpFR2	18	n/a	n/a	n/a	9	19	5	9	5
1198810	PROB	n/a	LTP229	ltpFR2	18	n/a	n/a	n/a	9	23	8	9	6
1202471	PROB	n/a	LTP229	ltpFR2	18	n/a	n/a	n/a	9	19	6	5	8
1203786	PROB	n/a	LTP229	ltpFR2	18	n/a	n/a	n/a	9	23	8	8	7
1206050	PROB	n/a	LTP229	ltpFR2	18	n/a	n/a	n/a	9	9	1	6	2
1207396	PROB	n/a	LTP229	ltpFR2	18	n/a	n/a	n/a	9	14	4	3	7
1208679	PROB	n/a	LTP229	ltpFR2	18	n/a	n/a	n/a	9	9	1	6	2
1210010	PROB	n/a	LTP229	ltpFR2	18	n/a	n/a	n/a	9	12	3	7	2
1211501	STOP	n/a	LTP229	ltpFR2	18	n/a	n/a	n/a	9	n/a	n/a	n/a	n/a
1213039	WORD	wordpools/wasnorm_wordpool_576.txt	LTP229	ltpFR2	18	7	CRICKET	408	n/a	n/a	0	0	0
1215552	WORD	wordpools/wasnorm_wordpool_576.txt	LTP229	ltpFR2	18	7	COCOON	339	n/a	n/a	0	0	0
1218147	WORD	wordpools/wasnorm_wordpool_576.txt	LTP229	ltpFR2	18	7	CIGAR	308	n/a	n/a	0	0	0
1220711	WORD	wordpools/wasnorm_wordpool_576.txt	LTP229	ltpFR2	18	7	TROMBONE	1508	n/a	n/a	0	0	0
1223356	WORD	wordpools/wasnorm_wordpool_576.txt	LTP229	ltpFR2	18	7	FLUTE	585	n/a	n/a	0	0	0
1225953	WORD	wordpools/wasnorm_wordpool_576.txt	LTP229	ltpFR2	18	7	TRANSPLANT	1496	n/a	n/a	0	0	0
1228432	WORD	wordpools/wasnorm_wordpool_576.txt	LTP229	ltpFR2	18	7	TRENCH	1503	n/a	n/a	0	0	0
1231144	WORD	wordpools/wasnorm_wordpool_576.txt	LTP229	ltpFR2	18	7	SHRUB	1299	n/a	n/a	0	0	0
1233808	WORD	wordpools/wasnorm_wordpool_576.txt	LTP229	ltpFR2	18	7	SPARROW	1347	n/a	n/a	0	0	0
1236470	WORD	wordpools/wasnorm_wordpool_576.txt	LTP229	ltpFR2	18	7	ICEBERG	731	n/a	n/a	0	0	0
1239232	WORD	wordpools/wasnorm_wordpool_576.txt	LTP229	ltpFR2	18	7	KIDNEY	776	n/a	n/a	0	0	0
1241829	WORD	wordpools/wasnorm_wordpool_576.txt	LTP229	ltpFR2	18	7	BANQUET	86	n/a	n/a	0	0	0
1244509	WORD	wordpools/wasnorm_wordpool_576.txt	LTP229	ltpFR2	18	7	BEAKER	104	n/a	n/a	0	0	0
1246955	WORD	wordpools/wasnorm_wordpool_576.txt	LTP229	ltpFR2	18	7	CUSTARD	429	n/a	n/a	0	0	0
1249601	WORD	wordpools/wasnorm_wordpool_576.txt	LTP229	ltpFR2	18	7	DRAGON	492	n/a	n/a	0	0	0
1252114	WORD	wordpools/wasnorm_wordpool_576.txt	LTP229	ltpFR2	18	7	PROTON	1132	n/a	n/a	0	0	0
1254910	WORD	wordpools/wasnorm_wordpool_576.txt	LTP229	ltpFR2	18	7	UNCLE	1536	n/a	n/a	0	0	0
1257673	WORD	wordpools/wasnorm_wordpool_576.txt	LTP229	ltpFR2	18	7	IDOL	733	n/a	n/a	0	0	0
1260218	WORD	wordpools/wasnorm_wordpool_576.txt	LTP229	ltpFR2	18	7	KLEENEX	782	n/a	n/a	0	0	0
1262648	WORD	wordpools/wasnorm_wordpool_576.txt	LTP229	ltpFR2	18	7	DAUGHTER	442	n/a	n/a	0	0	0
1265177	WORD	wordpools/wasnorm_wordpool_576.txt	LTP229	ltpFR2	18	7	INMATE	738	n/a	n/a	0	0	0
1267924	WORD	wordpools/wasnorm_wordpool_576.txt	LTP229	ltpFR2	18	7	STAR	1373	n/a	n/a	0	0	0
1270603	WORD	wordpools/wasnorm_wordpool_576.txt	LTP229	ltpFR2	18	7	GARBAGE	622	n/a	n/a	0	0	0
1273381	WORD	wordpools/wasnorm_wordpool_576.txt	LTP229	ltpFR2	18	7	BOX	159	n/a	n/a	0	0	0
1274997	START	n/a	LTP229	ltpFR2	18	n/a	n/a	n/a	10	n/a	n/a	n/a	n/a
1276033	DISTRACTOR	n/a	LTP229	ltpFR2	18	7	n/a	n/a	n/a	n/a	0	0	0
1276045	PROB	n/a	LTP229	ltpFR2	18	n/a	n/a	n/a	10	15	9	1	5
1277409	PROB	n/a	LTP229	ltpFR2	18	n/a	n/a	n/a	10	15	8	6	9
1278491	PROB	n/a	LTP229	ltpFR2	18	n/a	n/a	n/a	10	12	3	3	6
1280705	PROB	n/a	LTP229	ltpFR2	18	n/a	n/a	n/a	10	27	9	9	9
1282268	PROB	n/a	LTP229	ltpFR2	18	n/a	n/a	n/a	10	12	2	9	1
1283983	PROB	n/a	LTP229	ltpFR2	18	n/a	n/a	n/a	10	15	4	4	7
1285380	PROB	n/a	LTP229	ltpFR2	18	n/a	n/a	n/a	10	8	2	5	1
1286596	PROB	n/a	LTP229	ltpFR2	18	n/a	n/a	n/a	10	3	1	1	1
1287744	PROB	n/a	LTP229	ltpFR2	18	n/a	n/a	n/a	10	15	2	6	7
1289324	PROB	n/a	LTP229	ltpFR2	18	n/a	n/a	n/a	10	13	6	2	5
1292570	PROB	n/a	LTP229	ltpFR2	18	n/a	n/a	n/a	10	16	8	7	1
1294317	PROB	n/a	LTP229	ltpFR2	18	n/a	n/a	n/a	10	22	9	7	6
1297030	PROB	n/a	LTP229	ltpFR2	18	n/a	n/a	n/a	10	19	9	7	3
1298124	STOP	n/a	LTP229	ltpFR2	18	n/a	n/a	n/a	10	n/a	n/a	n/a	n/a
1300875	REC_START	n/a	LTP229	ltpFR2	18	7	n/a	n/a	n/a	n/a	0	0	0
1312646	REC_WORD_VV	wordpools/wasnorm_wordpool_576.txt	LTP229	ltpFR2	18	7	<>	-1	n/a	n/a	0	0	0
1313646	REC_WORD_VV	wordpools/wasnorm_wordpool_576.txt	LTP229	ltpFR2	18	7	<>	-1	n/a	n/a	0	0	0
1314646	REC_WORD_VV	wordpools/wasnorm_wordpool_576.txt	LTP229	ltpFR2	18	7	<>	-1	n/a	n/a	0	0	0
1391556	DISTRACTOR	n/a	LTP229	ltpFR2	18	8	n/a	n/a	n/a	n/a	0	0	0
1391556	START	n/a	LTP229	ltpFR2	18	n/a	n/a	n/a	11	n/a	n/a	n/a	n/a
1391589	PROB	n/a	LTP229	ltpFR2	18	n/a	n/a	n/a	11	12	2	3	7
1392737	PROB	n/a	LTP229	ltpFR2	18	n/a	n/a	n/a	11	15	1	9	5
1393803	PROB	n/a	LTP229	ltpFR2	18	n/a	n/a	n/a	11	13	7	2	4
1395583	PROB	n/a	LTP229	ltpFR2	18	n/a	n/a	n/a	11	15	4	3	8
1396898	PROB	n/a	LTP229	ltpFR2	18	n/a	n/a	n/a	11	16	7	2	7
1398612	PROB	n/a	LTP229	ltpFR2	18	n/a	n/a	n/a	11	15	4	4	7
1400027	PROB	n/a	LTP229	ltpFR2	18	n/a	n/a	n/a	11	16	9	3	4
1402989	PROB	n/a	LTP229	ltpFR2	18	n/a	n/a	n/a	11	23	9	9	6
1404803	PROB	n/a	LTP229	ltpFR2	18	n/a	n/a	n/a	11	9	4	3	2
1406484	PROB	n/a	LTP229	ltpFR2	18	n/a	n/a	n/a	11	12	2	6	4
1407732	PROB	n/a	LTP229	ltpFR2	18	n/a	n/a	n/a	11	19	3	7	9
1408913	PROB	n/a	LTP229	ltpFR2	18	n/a	n/a	n/a	11	18	5	8	5
1410310	PROB	n/a	LTP229	ltpFR2	18	n/a	n/a	n/a	11	22	7	6	9
1415556	STOP	n/a	LTP229	ltpFR2	18	n/a	n/a	n/a	11	n/a	n/a	n/a	n/a
1416535	WORD	wordpools/wasnorm_wordpool_576.txt	LTP229	ltpFR2	18	8	LASER	801	n/a	n/a	0	0	0
1418982	WORD	wordpools/wasnorm_wordpool_576.txt	LTP229	ltpFR2	18	8	ITEM	746	n/a	n/a	0	0	0
1421661	WORD	wordpools/wasnorm_wordpool_576.txt	LTP229	ltpFR2	18	8	NEUTRON	947	n/a	n/a	0	0	0
1424289	WORD	wordpools/wasnorm_wordpool_576.txt	LTP229	ltpFR2	18	8	VAGRANT	1544	n/a	n/a	0	0	0
1426803	WORD	wordpools/wasnorm_wordpool_576.txt	LTP229	ltpFR2	18	8	ZEBRA	1635	n/a	n/a	0	0	0
1429448	WORD	wordpools/wasnorm_wordpool_576.txt	LTP229	ltpFR2	18	8	PATROL	1027	n/a	n/a	0	0	0
1431896	WORD	wordpools/wasnorm_wordpool_576.txt	LTP229	ltpFR2	18	8	REBEL	1172	n/a	n/a	0	0	0
1434441	WORD	wordpools/wasnorm_wordpool_576.txt	LTP229	ltpFR2	18	8	ROBOT	1200	n/a	n/a	0	0	0
1436955	WORD	wordpools/wasnorm_wordpool_576.txt	LTP229	ltpFR2	18	8	GRIZZLY	662	n/a	n/a	0	0	0
1439701	WORD	wordpools/wasnorm_wordpool_576.txt	LTP229	ltpFR2	18	8	BUNNY	198	n/a	n/a	0	0	0
1442163	WORD	wordpools/wasnorm_wordpool_576.txt	LTP229	ltpFR2	18	8	PLIERS	1089	n/a	n/a	0	0	0
1444843	WORD	wordpools/wasnorm_wordpool_576.txt	LTP229	ltpFR2	18	8	WOMAN	1620	n/a	n/a	0	0	0
1447288	WORD	wordpools/wasnorm_wordpool_576.txt	LTP229	ltpFR2	18	8	UMPIRE	1535	n/a	n/a	0	0	0
1449969	WORD	wordpools/wasnorm_wordpool_576.txt	LTP229	ltpFR2	18	8	RACKET	1155	n/a	n/a	0	0	0
1452482	WORD	wordpools/wasnorm_wordpool_576.txt	LTP229	ltpFR2	18	8	CITRUS	313	n/a	n/a	0	0	0
1455276	WORD	wordpools/wasnorm_wordpool_576.txt	LTP229	ltpFR2	18	8	ANKLE	24	n/a	n/a	0	0	0
1458040	WORD	wordpools/wasnorm_wordpool_576.txt	LTP229	ltpFR2	18	8	FOOT	590	n/a	n/a	0	0	0
1460836	WORD	wordpools/wasnorm_wordpool_576.txt	LTP229	ltpFR2	18	8	CAMEL	223	n/a	n/a	0	0	0
1463298	WORD	wordpools/wasnorm_wordpool_576.txt	LTP229	ltpFR2	18	8	MATCH	878	n/a	n/a	0	0	0
1465978	WORD	wordpools/wasnorm_wordpool_576.txt	LTP229	ltpFR2	18	8	CLOUD	328	n/a	n/a	0	0	0
1468608	WORD	wordpools/wasnorm_wordpool_576.txt	LTP229	ltpFR2	18	8	LIGHTNING	820	n/a	n/a	0	0	0
1471303	WORD	wordpools/wasnorm_wordpool_576.txt	LTP229	ltpFR2	18	8	KNIFE	785	n/a	n/a	0	0	0
1474016	WORD	wordpools/wasnorm_wordpool_576.txt	LTP229	ltpFR2	18	8	HORSE	719	n/a	n/a	0	0	0
1476461	WORD	wordpools/wasnorm_wordpool_576.txt	LTP229	ltpFR2	18	8	RADISH	1158	n/a	n/a	0	0	0
1478077	START	n/a	LTP229	ltpFR2	18	n/a	n/a	n/a	12	n/a	n/a	n/a	n/a
1478986	DISTRACTOR	n/a	LTP229	ltpFR2	18	8	n/a	n/a	n/a	n/a	0	0	0
1478992	PROB	n/a	LTP229	ltpFR2	18	n/a	n/a	n/a	12	8	4	3	1
1480556	PROB	n/a	LTP229	ltpFR2	18	n/a	n/a	n/a	12	16	3	7	6
1481621	PROB	n/a	LTP229	ltpFR2	18	n/a	n/a	n/a	12	14	5	7	2
1483535	PROB	n/a	LTP229	ltpFR2	18	n/a	n/a	n/a	12	13	6	1	6
1484833	PROB	n/a	LTP229	ltpFR2	18	n/a	n/a	n/a	12	12	2	2	8
1486098	PROB	n/a	LTP229	ltpFR2	18	n/a	n/a	n/a	12	12	1	6	5
1487962	PROB	n/a	LTP229	ltpFR2	18	n/a	n/a	n/a	12	15	9	5	8
1489543	PROB	n/a	LTP229	ltpFR2	18	n/a	n/a	n/a	12	9	1	3	5
1490841	PROB	n/a	LTP229	ltpFR2	18	n/a	n/a	n/a	12	18	2	8	8
1492888	PROB	n/a	LTP229	ltpFR2	18	n/a	n/a	n/a	12	8	6	1	1
1493936	PROB	n/a	LTP229	ltpFR2	18	n/a	n/a	n/a	12	17	3	8	6
1495501	PROB	n/a	LTP229	ltpFR2	18	n/a	n/a	n/a	12	9	1	6	2
1496749	PROB	n/a	LTP229	ltpFR2	18	n/a	n/a	n/a	12	18	8	4	6
1498412	PROB	n/a	LTP229	ltpFR2	18	n/a	n/a	n/a	12	19	5	7	7
1500111	PROB	n/a	LTP229	ltpFR2	18	n/a	n/a	n/a	12	18	8	3	7
1501973	STOP	n/a	LTP229	ltpFR2	18	n/a	n/a	n/a	12	n/a	n/a	n/a	n/a
1503939	REC_START	n/a	LTP229	ltpFR2	18	8	n/a	n/a	n/a	n/a	0	0	0
1504851	REC_WORD	wordpools/wasnorm_wordpool_576.txt	LTP229	ltpFR2	18	8	MATCH	878	n/a	n/a	0	0	0
1506569	REC_WORD	wordpools/wasnorm_wordpool_576.txt	LTP229	ltpFR2	18	8	CLOUD	328	n/a	n/a	0	0	0
1508502	REC_WORD	wordpools/wasnorm_wordpool_576.txt	LTP229	ltpFR2	18	8	LIGHTNING	820	n/a	n/a	0	0	0
1510439	REC_WORD	wordpools/wasnorm_wordpool_576.txt	LTP229	ltpFR2	18	8	KNIFE	785	n/a	n/a	0	0	0
1512061	REC_WORD	wordpools/wasnorm_wordpool_576.txt	LTP229	ltpFR2	18	8	HORSE	719	n/a	n/a	0	0	0
1513995	REC_WORD	wordpools/wasnorm_wordpool_576.txt	LTP229	ltpFR2	18	8	RADISH	1158	n/a	n/a	0	0	0
1580557	REST_REWET	n/a	LTP229	ltpFR2	18	8	n/a	n/a	n/a	n/a	0	0	0
2116140	WORD	wordpools/wasnorm_wordpool_576.txt	LTP229	ltpFR2	18	9	CLOTHES	327	n/a	n/a	0	0	0
2118737	WORD	wordpools/wasnorm_wordpool_576.txt	LTP229	ltpFR2	18	9	PEACH	1031	n/a	n/a	0	0	0
2121282	WORD	wordpools/wasnorm_wordpool_576.txt	LTP229	ltpFR2	18	9	ATOM	55	n/a	n/a	0	0	0
2123962	WORD	wordpools/wasnorm_wordpool_576.txt	LTP229	ltpFR2	18	9	HONEY	713	n/a	n/a	0	0	0
2126509	WORD	wordpools/wasnorm_wordpool_576.txt	LTP229	ltpFR2	18	9	YARN	1631	n/a	n/a	0	0	0
2129038	WORD	wordpools/wasnorm_wordpool_576.txt	LTP229	ltpFR2	18	9	TURTLE	1522	n/a	n/a	0	0	0
2131851	WORD	wordpools/wasnorm_wordpool_576.txt	LTP229	ltpFR2	18	9	COURSE	390	n/a	n/a	0	0	0
2134630	WORD	wordpools/wasnorm_wordpool_576.txt	LTP229	ltpFR2	18	9	PALACE	1006	n/a	n/a	0	0	0
2137325	WORD	wordpools/wasnorm_wordpool_576.txt	LTP229	ltpFR2	18	9	MAILMAN	858	n/a	n/a	0	0	0
2140088	WORD	wordpools/wasnorm_wordpool_576.txt	LTP229	ltpFR2	18	9	DONKEY	484	n/a	n/a	0	0	0
2142601	WORD	wordpools/wasnorm_wordpool_576.txt	LTP229	ltpFR2	18	9	RATTLE	1170	n/a	n/a	0	0	0
2145196	WORD	wordpools/wasnorm_wordpool_576.txt	LTP229	ltpFR2	18	9	COBRA	336	n/a	n/a	0	0	0
2147744	WORD	wordpools/wasnorm_wordpool_576.txt	LTP229	ltpFR2	18	9	PLAZA	1088	n/a	n/a	0	0	0
2150539	WORD	wordpools/wasnorm_wordpool_576.txt	LTP229	ltpFR2	18	9	SURVEY	1414	n/a	n/a	0	0	0
2153218	WORD	wordpools/wasnorm_wordpool_576.txt	LTP229	ltpFR2	18	9	CABIN	211	n/a	n/a	0	0	0
2155665	WORD	wordpools/wasnorm_wordpool_576.txt	LTP229	ltpFR2	18	9	LODGE	839	n/a	n/a	0	0	0
2158377	WORD	wordpools/wasnorm_wordpool_576.txt	LTP229	ltpFR2	18	9	HEDGE	699	n/a	n/a	0	0	0
2160824	WORD	wordpools/wasnorm_wordpool_576.txt	LTP229	ltpFR2	18	9	BIKE	125	n/a	n/a	0	0	0
2163336	WORD	wordpools/wasnorm_wordpool_576.txt	LTP229	ltpFR2	18	9	PEDAL	1037	n/a	n/a	0	0	0
2166033	WORD	wordpools/wasnorm_wordpool_576.txt	LTP229	ltpFR2	18	9	APPLE	33	n/a	n/a	0	0	0
2168462	WORD	wordpools/wasnorm_wordpool_576.txt	LTP229	ltpFR2	18	9	PRINCE	1124	n/a	n/a	0	0	0
2171274	WORD	wordpools/wasnorm_wordpool_576.txt	LTP229	ltpFR2	18	9	CRATER	400	n/a	n/a	0	0	0
2173855	WORD	wordpools/wasnorm_wordpool_576.txt	LTP229	ltpFR2	18	9	PAIL	1002	n/a	n/a	0	0	0
2176617	WORD	wordpools/wasnorm_wordpool_576.txt	LTP229	ltpFR2	18	9	SNAIL	1332	n/a	n/a	0	0	0
2178231	START	n/a	LTP229	ltpFR2	18	n/a	n/a	n/a	13	n/a	n/a	n/a	n/a
2179324	DISTRACTOR	n/a	LTP229	ltpFR2	18	9	n/a	n/a	n/a	n/a	0	0	0
2179329	PROB	n/a	LTP229	ltpFR2	18	n/a	n/a	n/a	13	11	3	2	6
2181259	PROB	n/a	LTP229	ltpFR2	18	n/a	n/a	n/a	13	18	1	9	8
2182374	PROB	n/a	LTP229	ltpFR2	18	n/a	n/a	n/a	13	14	5	6	3
2183990	PROB	n/a	LTP229	ltpFR2	18	n/a	n/a	n/a	13	14	4	7	2
2187002	PROB	n/a	LTP229	ltpFR2	18	n/a	n/a	n/a	13	5	1	1	3
2188132	PROB	n/a	LTP229	ltpFR2	18	n/a	n/a	n/a	13	14	7	3	4
2189264	PROB	n/a	LTP229	ltpFR2	18	n/a	n/a	n/a	13	13	9	2	2
2190746	PROB	n/a	LTP229	ltpFR2	18	n/a	n/a	n/a	13	15	3	9	3
2192193	PROB	n/a	LTP229	ltpFR2	18	n/a	n/a	n/a	13	10	4	2	4
2193941	PROB	n/a	LTP229	ltpFR2	18	n/a	n/a	n/a	13	17	6	8	3
2195672	PROB	n/a	LTP229	ltpFR2	18	n/a	n/a	n/a	13	10	2	1	7
2196887	PROB	n/a	LTP229	ltpFR2	18	n/a	n/a	n/a	13	20	9	2	9
2199332	PROB	n/a	LTP229	ltpFR2	18	n/a	n/a	n/a	13	19	6	6	7
2201717	STOP	n/a	LTP229	ltpFR2	18	n/a	n/a	n/a	13	n/a	n/a	n/a	n/a
2204044	REC_START	n/a	LTP229	ltpFR2	18	9	n/a	n/a	n/a	n/a	0	0	0
2207631	REC_WORD	wordpools/wasnorm_wordpool_576.txt	LTP229	ltpFR2	18	9	CABIN	211	n/a	n/a	0	0	0
2209516	REC_WORD	wordpools/wasnorm_wordpool_576.txt	LTP229	ltpFR2	18	9	DONKEY	484	n/a	n/a	0	0	0
2219161	REC_WORD	wordpools/wasnorm_wordpool_576.txt	LTP229	ltpFR2	18	9	APPLE	33	n/a	n/a	0	0	0
2244491	REC_WORD	wordpools/wasnorm_wordpool_576.txt	LTP229	ltpFR2	18	9	INMATE	738	n/a	n/a	0	0	0
2247752	REC_WORD_VV	wordpools/wasnorm_wordpool_576.txt	LTP229	ltpFR2	18	9	<>	-1	n/a	n/a	0	0	0
2251089	REC_WORD	wordpools/wasnorm_wordpool_576.txt	LTP229	ltpFR2	18	9	COURSE	390	n/a	n/a	0	0	0
2252543	REC_WORD	wordpools/wasnorm_wordpool_576.txt	LTP229	ltpFR2	18	9	LODGE	839	n/a	n/a	0	0	0
2259103	REC_WORD	wordpools/wasnorm_wordpool_576.txt	LTP229	ltpFR2	18	9	COBRA	336	n/a	n/a	0	0	0
2260920	REC_WORD	wordpools/wasnorm_wordpool_576.txt	LTP229	ltpFR2	18	9	RATTLE	1170	n/a	n/a	0	0	0
2294708	WORD	wordpools/wasnorm_wordpool_576.txt	LTP229	ltpFR2	18	10	CHAMPAGNE	278	n/a	n/a	0	0	0
2297403	WORD	wordpools/wasnorm_wordpool_576.txt	LTP229	ltpFR2	18	10	MACHINE	852	n/a	n/a	0	0	0
2300198	WORD	wordpools/wasnorm_wordpool_576.txt	LTP229	ltpFR2	18	10	PASTA	1021	n/a	n/a	0	0	0
2302912	WORD	wordpools/wasnorm_wordpool_576.txt	LTP229	ltpFR2	18	10	SUITCASE	1403	n/a	n/a	0	0	0
2305575	WORD	wordpools/wasnorm_wordpool_576.txt	LTP229	ltpFR2	18	10	PLUTO	1092	n/a	n/a	0	0	0
2308220	WORD	wordpools/wasnorm_wordpool_576.txt	LTP229	ltpFR2	18	10	MARS	873	n/a	n/a	0	0	0
2310700	WORD	wordpools/wasnorm_wordpool_576.txt	LTP229	ltpFR2	18	10	QUEEN	1149	n/a	n/a	0	0	0
2313462	WORD	wordpools/wasnorm_wordpool_576.txt	LTP229	ltpFR2	18	10	BARREL	91	n/a	n/a	0	0	0
2316258	WORD	wordpools/wasnorm_wordpool_576.txt	LTP229	ltpFR2	18	10	MOP	916	n/a	n/a	0	0	0
2318788	WORD	wordpools/wasnorm_wordpool_576.txt	LTP229	ltpFR2	18	10	RUG	1215	n/a	n/a	0	0	0
2321234	WORD	wordpools/wasnorm_wordpool_576.txt	LTP229	ltpFR2	18	10	WAITRESS	1581	n/a	n/a	0	0	0
2323964	WORD	wordpools/wasnorm_wordpool_576.txt	LTP229	ltpFR2	18	10	TEACHER	1440	n/a	n/a	0	0	0
2326627	WORD	wordpools/wasnorm_wordpool_576.txt	LTP229	ltpFR2	18	10	WHISKERS	1605	n/a	n/a	0	0	0
2329106	WORD	wordpools/wasnorm_wordpool_576.txt	LTP229	ltpFR2	18	10	HORNET	718	n/a	n/a	0	0	0
2331619	WORD	wordpools/wasnorm_wordpool_576.txt	LTP229	ltpFR2	18	10	COLONEL	348	n/a	n/a	0	0	0
2334331	WORD	wordpools/wasnorm_wordpool_576.txt	LTP229	ltpFR2	18	10	RABBIT	1152	n/a	n/a	0	0	0
2337028	WORD	wordpools/wasnorm_wordpool_576.txt	LTP229	ltpFR2	18	10	BELLY	119	n/a	n/a	0	0	0
2339790	WORD	wordpools/wasnorm_wordpool_576.txt	LTP229	ltpFR2	18	10	FLEET	578	n/a	n/a	0	0	0
2342369	WORD	wordpools/wasnorm_wordpool_576.txt	LTP229	ltpFR2	18	10	WORKER	1621	n/a	n/a	0	0	0
2345165	WORD	wordpools/wasnorm_wordpool_576.txt	LTP229	ltpFR2	18	10	BEAST	108	n/a	n/a	0	0	0
2347812	WORD	wordpools/wasnorm_wordpool_576.txt	LTP229	ltpFR2	18	10	TRACTOR	1493	n/a	n/a	0	0	0
2350290	WORD	wordpools/wasnorm_wordpool_576.txt	LTP229	ltpFR2	18	10	CREVICE	405	n/a	n/a	0	0	0
2352937	WORD	wordpools/wasnorm_wordpool_576.txt	LTP229	ltpFR2	18	10	WIDOW	1608	n/a	n/a	0	0	0
2355449	WORD	wordpools/wasnorm_wordpool_576.txt	LTP229	ltpFR2	18	10	THRONE	1461	n/a	n/a	0	0	0
2357065	START	n/a	LTP229	ltpFR2	18	n/a	n/a	n/a	14	n/a	n/a	n/a	n/a
2357974	DISTRACTOR	n/a	LTP229	ltpFR2	18	10	n/a	n/a	n/a	n/a	0	0	0
2357980	PROB	n/a	LTP229	ltpFR2	18	n/a	n/a	n/a	14	12	4	3	5
2360060	PROB	n/a	LTP229	ltpFR2	18	n/a	n/a	n/a	14	16	5	3	8
2361457	PROB	n/a	LTP229	ltpFR2	18	n/a	n/a	n/a	14	21	4	8	9
2363522	PROB	n/a	LTP229	ltpFR2	18	n/a	n/a	n/a	14	10	8	1	1
2364836	PROB	n/a	LTP229	ltpFR2	18	n/a	n/a	n/a	14	18	4	8	5
2366534	PROB	n/a	LTP229	ltpFR2	18	n/a	n/a	n/a	14	14	3	5	6
2368581	PROB	n/a	LTP229	ltpFR2	18	n/a	n/a	n/a	14	5	2	1	2
2370394	PROB	n/a	LTP229	ltpFR2	18	n/a	n/a	n/a	14	11	2	5	4
2371743	PROB	n/a	LTP229	ltpFR2	18	n/a	n/a	n/a	14	12	5	3	4
2373074	PROB	n/a	LTP229	ltpFR2	18	n/a	n/a	n/a	14	21	6	8	7
2375703	PROB	n/a	LTP229	ltpFR2	18	n/a	n/a	n/a	14	19	7	5	7
2378100	PROB	n/a	LTP229	ltpFR2	18	n/a	n/a	n/a	14	14	3	6	5
2379526	STOP	n/a	LTP229	ltpFR2	18	n/a	n/a	n/a	14	n/a	n/a	n/a	n/a
2382876	REC_START	n/a	LTP229	ltpFR2	18	10	n/a	n/a	n/a	n/a	0	0	0
2385967	REC_WORD	wordpools/wasnorm_wordpool_576.txt	LTP229	ltpFR2	18	10	CHAMPAGNE	278	n/a	n/a	0	0	0
2388372	REC_WORD	wordpools/wasnorm_wordpool_576.txt	LTP229	ltpFR2	18	10	BEAST	108	n/a	n/a	0	0	0
2399898	REC_WORD_VV	wordpools/wasnorm_wordpool_576.txt	LTP229	ltpFR2	18	10	<>	-1	n/a	n/a	0	0	0
2473541	WORD	wordpools/wasnorm_wordpool_576.txt	LTP229	ltpFR2	18	11	POISON	1096	n/a	n/a	0	0	0
2476202	WORD	wordpools/wasnorm_wordpool_576.txt	LTP229	ltpFR2	18	11	HUMAN	726	n/a	n/a	0	0	0
2478916	WORD	wordpools/wasnorm_wordpool_576.txt	LTP229	ltpFR2	18	11	COLLEGE	346	n/a	n/a	0	0	0
2481512	WORD	wordpools/wasnorm_wordpool_576.txt	LTP229	ltpFR2	18	11	TURKEY	1520	n/a	n/a	0	0	0
2484075	WORD	wordpools/wasnorm_wordpool_576.txt	LTP229	ltpFR2	18	11	BLACKBOARD	133	n/a	n/a	0	0	0
2486604	WORD	wordpools/wasnorm_wordpool_576.txt	LTP229	ltpFR2	18	11	SERVER	1272	n/a	n/a	0	0	0
2489216	WORD	wordpools/wasnorm_wordpool_576.txt	LTP229	ltpFR2	18	11	WORLD	1622	n/a	n/a	0	0	0
2491780	WORD	wordpools/wasnorm_wordpool_576.txt	LTP229	ltpFR2	18	11	TILE	1468	n/a	n/a	0	0	0
2494458	WORD	wordpools/wasnorm_wordpool_576.txt	LTP229	ltpFR2	18	11	CEILING	265	n/a	n/a	0	0	0
2497039	WORD	wordpools/wasnorm_wordpool_576.txt	LTP229	ltpFR2	18	11	CLOCK	325	n/a	n/a	0	0	0
2499552	WORD	wordpools/wasnorm_wordpool_576.txt	LTP229	ltpFR2	18	11	VELVET	1555	n/a	n/a	0	0	0
2502230	WORD	wordpools/wasnorm_wordpool_576.txt	LTP229	ltpFR2	18	11	FLAG	573	n/a	n/a	0	0	0
2504794	WORD	wordpools/wasnorm_wordpool_576.txt	LTP229	ltpFR2	18	11	HERO	706	n/a	n/a	0	0	0
2507273	WORD	wordpools/wasnorm_wordpool_576.txt	LTP229	ltpFR2	18	11	GRILL	661	n/a	n/a	0	0	0
2509820	WORD	wordpools/wasnorm_wordpool_576.txt	LTP229	ltpFR2	18	11	TOMBSTONE	1478	n/a	n/a	0	0	0
2512398	WORD	wordpools/wasnorm_wordpool_576.txt	LTP229	ltpFR2	18	11	PIZZA	1079	n/a	n/a	0	0	0
2514995	WORD	wordpools/wasnorm_wordpool_576.txt	LTP229	ltpFR2	18	11	POCKET	1093	n/a	n/a	0	0	0
2517608	WORD	wordpools/wasnorm_wordpool_576.txt	LTP229	ltpFR2	18	11	PUPIL	1143	n/a	n/a	0	0	0
2520038	WORD	wordpools/wasnorm_wordpool_576.txt	LTP229	ltpFR2	18	11	SODA	1341	n/a	n/a	0	0	0
2522667	WORD	wordpools/wasnorm_wordpool_576.txt	LTP229	ltpFR2	18	11	DRINK	498	n/a	n/a	0	0	0
2525312	WORD	wordpools/wasnorm_wordpool_576.txt	LTP229	ltpFR2	18	11	SILK	1307	n/a	n/a	0	0	0
2527943	WORD	wordpools/wasnorm_wordpool_576.txt	LTP229	ltpFR2	18	11	MISTER	901	n/a	n/a	0	0	0
2530489	WORD	wordpools/wasnorm_wordpool_576.txt	LTP229	ltpFR2	18	11	CYCLONE	431	n/a	n/a	0	0	0
2533052	WORD	wordpools/wasnorm_wordpool_576.txt	LTP229	ltpFR2	18	11	WAITER	1580	n/a	n/a	0	0	0
2534666	START	n/a	LTP229	ltpFR2	18	n/a	n/a	n/a	15	n/a	n/a	n/a	n/a
2535697	DISTRACTOR	n/a	LTP229	ltpFR2	18	11	n/a	n/a	n/a	n/a	0	0	0
2535698	PROB	n/a	LTP229	ltpFR2	18	n/a	n/a	n/a	15	13	3	1	9
2537645	PROB	n/a	LTP229	ltpFR2	18	n/a	n/a	n/a	15	16	5	5	6
2538693	PROB	n/a	LTP229	ltpFR2	18	n/a	n/a	n/a	15	12	6	4	2
2540240	PROB	n/a	LTP229	ltpFR2	18	n/a	n/a	n/a	15	26	9	8	9
2542470	PROB	n/a	LTP229	ltpFR2	18	n/a	n/a	n/a	15	18	6	4	8
2543603	PROB	n/a	LTP229	ltpFR2	18	n/a	n/a	n/a	15	11	4	1	6
2544751	PROB	n/a	LTP229	ltpFR2	18	n/a	n/a	n/a	15	11	2	5	4
2546447	PROB	n/a	LTP229	ltpFR2	18	n/a	n/a	n/a	15	19	9	9	1
2547580	PROB	n/a	LTP229	ltpFR2	18	n/a	n/a	n/a	15	9	7	1	1
2548945	PROB	n/a	LTP229	ltpFR2	18	n/a	n/a	n/a	15	13	4	4	5
2551707	PROB	n/a	LTP229	ltpFR2	18	n/a	n/a	n/a	15	11	4	3	4
2553505	PROB	n/a	LTP229	ltpFR2	18	n/a	n/a	n/a	15	6	2	3	1
2554836	PROB	n/a	LTP229	ltpFR2	18	n/a	n/a	n/a	15	8	5	2	1
2556750	PROB	n/a	LTP229	ltpFR2	18	n/a	n/a	n/a	15	8	2	5	1
2557805	STOP	n/a	LTP229	ltpFR2	18	n/a	n/a	n/a	15	n/a	n/a	n/a	n/a
2560545	REC_START	n/a	LTP229	ltpFR2	18	11	n/a	n/a	n/a	n/a	0	0	0
2561489	REC_WORD	wordpools/wasnorm_wordpool_576.txt	LTP229	ltpFR2	18	11	WAITER	1580	n/a	n/a	0	0	0
2563065	REC_WORD	wordpools/wasnorm_wordpool_576.txt	LTP229	ltpFR2	18	11	WAITRESS	1581	n/a	n/a	0	0	0
2565148	REC_WORD	wordpools/wasnorm_wordpool_576.txt	LTP229	ltpFR2	18	11	PASTA	1021	n/a	n/a	0	0	0
2567035	REC_WORD	wordpools/wasnorm_wordpool_576.txt	LTP229	ltpFR2	18	11	MACHINE	852	n/a	n/a	0	0	0
2577053	REC_WORD	wordpools/wasnorm_wordpool_576.txt	LTP229	ltpFR2	18	11	BOARD	143	n/a	n/a	0	0	0
2578954	REC_WORD	wordpools/wasnorm_wordpool_576.txt	LTP229	ltpFR2	18	11	DASHBOARD	441	n/a	n/a	0	0	0
2580899	REC_WORD	wordpools/wasnorm_wordpool_576.txt	LTP229	ltpFR2	18	11	BLACKBOARD	133	n/a	n/a	0	0	0
2587094	REC_WORD	wordpools/wasnorm_wordpool_576.txt	LTP229	ltpFR2	18	11	PARSLEY	1016	n/a	n/a	0	0	0
2617326	REC_WORD	wordpools/wasnorm_wordpool_576.txt	LTP229	ltpFR2	18	11	RATTLE	1170	n/a	n/a	0	0	0
2651208	DISTRACTOR	n/a	LTP229	ltpFR2	18	12	n/a	n/a	n/a	n/a	0	0	0
2651208	START	n/a	LTP229	ltpFR2	18	n/a	n/a	n/a	16	n/a	n/a	n/a	n/a
2651241	PROB	n/a	LTP229	ltpFR2	18	n/a	n/a	n/a	16	17	8	5	4
2654137	PROB	n/a	LTP229	ltpFR2	18	n/a	n/a	n/a	16	10	2	5	3
2656300	PROB	n/a	LTP229	ltpFR2	18	n/a	n/a	n/a	16	14	7	2	5
2658147	PROB	n/a	LTP229	ltpFR2	18	n/a	n/a	n/a	16	24	9	9	6
2661143	PROB	n/a	LTP229	ltpFR2	18	n/a	n/a	n/a	16	20	9	5	6
2662958	PROB	n/a	LTP229	ltpFR2	18	n/a	n/a	n/a	16	20	7	4	9
2664722	PROB	n/a	LTP229	ltpFR2	18	n/a	n/a	n/a	16	14	2	7	5
2667534	PROB	n/a	LTP229	ltpFR2	18	n/a	n/a	n/a	16	5	2	2	1
2668716	PROB	n/a	LTP229	ltpFR2	18	n/a	n/a	n/a	16	6	1	4	1
2669881	PROB	n/a	LTP229	ltpFR2	18	n/a	n/a	n/a	16	15	7	2	4
2671994	PROB	n/a	LTP229	ltpFR2	18	n/a	n/a	n/a	16	15	5	4	6
2674164	STOP	n/a	LTP229	ltpFR2	18	n/a	n/a	n/a	16	n/a	n/a	n/a	n/a
2676287	WORD	wordpools/wasnorm_wordpool_576.txt	LTP229	ltpFR2	18	12	FARMER	553	n/a	n/a	0	0	0
2679001	WORD	wordpools/wasnorm_wordpool_576.txt	LTP229	ltpFR2	18	12	PERMIT	1051	n/a	n/a	0	0	0
2681680	WORD	wordpools/wasnorm_wordpool_576.txt	LTP229	ltpFR2	18	12	DIVER	476	n/a	n/a	0	0	0
2684125	WORD	wordpools/wasnorm_wordpool_576.txt	LTP229	ltpFR2	18	12	SWAMP	1416	n/a	n/a	0	0	0
2686772	WORD	wordpools/wasnorm_wordpool_576.txt	LTP229	ltpFR2	18	12	PEPPER	1047	n/a	n/a	0	0	0
2689201	WORD	wordpools/wasnorm_wordpool_576.txt	LTP229	ltpFR2	18	12	PREACHER	1119	n/a	n/a	0	0	0
2691765	WORD	wordpools/wasnorm_wordpool_576.txt	LTP229	ltpFR2	18	12	CHURCH	307	n/a	n/a	0	0	0
2694310	WORD	wordpools/wasnorm_wordpool_576.txt	LTP229	ltpFR2	18	12	WAGON	1578	n/a	n/a	0	0	0
2696757	WORD	wordpools/wasnorm_wordpool_576.txt	LTP229	ltpFR2	18	12	HOSTESS	723	n/a	n/a	0	0	0
2699186	WORD	wordpools/wasnorm_wordpool_576.txt	LTP229	ltpFR2	18	12	PICNIC	1060	n/a	n/a	0	0	0
2701667	WORD	wordpools/wasnorm_wordpool_576.txt	LTP229	ltpFR2	18	12	EMPIRE	530	n/a	n/a	0	0	0
2704345	WORD	wordpools/wasnorm_wordpool_576.txt	LTP229	ltpFR2	18	12	GAZELLE	628	n/a	n/a	0	0	0
2706892	WORD	wordpools/wasnorm_wordpool_576.txt	LTP229	ltpFR2	18	12	VALLEY	1545	n/a	n/a	0	0	0
2709705	WORD	wordpools/wasnorm_wordpool_576.txt	LTP229	ltpFR2	18	12	TABLE	1426	n/a	n/a	0	0	0
2712450	WORD	wordpools/wasnorm_wordpool_576.txt	LTP229	ltpFR2	18	12	CURTAIN	427	n/a	n/a	0	0	0
2714947	WORD	wordpools/wasnorm_wordpool_576.txt	LTP229	ltpFR2	18	12	BUGGY	188	n/a	n/a	0	0	0
2717709	WORD	wordpools/wasnorm_wordpool_576.txt	LTP229	ltpFR2	18	12	GRAVE	658	n/a	n/a	0	0	0
2720305	WORD	wordpools/wasnorm_wordpool_576.txt	LTP229	ltpFR2	18	12	PADDING	999	n/a	n/a	0	0	0
2722868	WORD	wordpools/wasnorm_wordpool_576.txt	LTP229	ltpFR2	18	12	SLOPE	1328	n/a	n/a	0	0	0
2725464	WORD	wordpools/wasnorm_wordpool_576.txt	LTP229	ltpFR2	18	12	GARDEN	623	n/a	n/a	0	0	0
2728011	WORD	wordpools/wasnorm_wordpool_576.txt	LTP229	ltpFR2	18	12	SUBWAY	1400	n/a	n/a	0	0	0
2730807	WORD	wordpools/wasnorm_wordpool_576.txt	LTP229	ltpFR2	18	12	BUTCHER	203	n/a	n/a	0	0	0
2733368	WORD	wordpools/wasnorm_wordpool_576.txt	LTP229	ltpFR2	18	12	SPHINX	1349	n/a	n/a	0	0	0
2736082	WORD	wordpools/wasnorm_wordpool_576.txt	LTP229	ltpFR2	18	12	HAND	683	n/a	n/a	0	0	0
2737696	START	n/a	LTP229	ltpFR2	18	n/a	n/a	n/a	17	n/a	n/a	n/a	n/a
2738682	DISTRACTOR	n/a	LTP229	ltpFR2	18	12	n/a	n/a	n/a	n/a	0	0	0
2738695	PROB	n/a	LTP229	ltpFR2	18	n/a	n/a	n/a	17	12	5	2	5
2740308	PROB	n/a	LTP229	ltpFR2	18	n/a	n/a	n/a	17	14	5	6	3
2742023	PROB	n/a	LTP229	ltpFR2	18	n/a	n/a	n/a	17	17	8	3	6
2744087	PROB	n/a	LTP229	ltpFR2	18	n/a	n/a	n/a	17	17	6	4	7
2745684	PROB	n/a	LTP229	ltpFR2	18	n/a	n/a	n/a	17	9	5	1	3
2746866	PROB	n/a	LTP229	ltpFR2	18	n/a	n/a	n/a	17	22	7	7	8
2748446	PROB	n/a	LTP229	ltpFR2	18	n/a	n/a	n/a	17	13	2	5	6
2749895	PROB	n/a	LTP229	ltpFR2	18	n/a	n/a	n/a	17	14	8	3	2
2751908	PROB	n/a	LTP229	ltpFR2	18	n/a	n/a	n/a	17	16	7	1	7
2753222	PROB	n/a	LTP229	ltpFR2	18	n/a	n/a	n/a	17	15	2	7	6
2755104	PROB	n/a	LTP229	ltpFR2	18	n/a	n/a	n/a	17	15	9	7	5
2757600	PROB	n/a	LTP229	ltpFR2	18	n/a	n/a	n/a	17	19	1	9	9
2758781	PROB	n/a	LTP229	ltpFR2	18	n/a	n/a	n/a	17	12	8	1	3
2759930	PROB	n/a	LTP229	ltpFR2	18	n/a	n/a	n/a	17	8	4	1	3
2761373	STOP	n/a	LTP229	ltpFR2	18	n/a	n/a	n/a	17	n/a	n/a	n/a	n/a
2763608	REC_START	n/a	LTP229	ltpFR2	18	12	n/a	n/a	n/a	n/a	0	0	0
2764336	REC_WORD	wordpools/wasnorm_wordpool_576.txt	LTP229	ltpFR2	18	12	SLOPE	1328	n/a	n/a	0	0	0
2766066	REC_WORD	wordpools/wasnorm_wordpool_576.txt	LTP229	ltpFR2	18	12	GARDEN	623	n/a	n/a	0	0	0
2767667	REC_WORD	wordpools/wasnorm_wordpool_576.txt	LTP229	ltpFR2	18	12	SUBWAY	1400	n/a	n/a	0	0	0
2769466	REC_WORD	wordpools/wasnorm_wordpool_576.txt	LTP229	ltpFR2	18	12	HAND	683	n/a	n/a	0	0	0
2771119	REC_WORD	wordpools/wasnorm_wordpool_576.txt	LTP229	ltpFR2	18	12	BUTCHER	203	n/a	n/a	0	0	0
2773144	REC_WORD	wordpools/wasnorm_wordpool_576.txt	LTP229	ltpFR2	18	12	FARMER	553	n/a	n/a	0	0	0
2774821	REC_WORD	wordpools/wasnorm_wordpool_576.txt	LTP229	ltpFR2	18	12	PERMIT	1051	n/a	n/a	0	0	0
2777985	REC_WORD	wordpools/wasnorm_wordpool_576.txt	LTP229	ltpFR2	18	12	DIVER	476	n/a	n/a	0	0	0
2779523	REC_WORD	wordpools/wasnorm_wordpool_576.txt	LTP229	ltpFR2	18	12	PREACHER	1119	n/a	n/a	0	0	0
2781610	REC_WORD	wordpools/wasnorm_wordpool_576.txt	LTP229	ltpFR2	18	12	CHURCH	307	n/a	n/a	0	0	0
2819140	REC_WORD	wordpools/wasnorm_wordpool_576.txt	LTP229	ltpFR2	18	12	SPHINX	1349	n/a	n/a	0	0	0
2854321	DISTRACTOR	n/a	LTP229	ltpFR2	18	13	n/a	n/a	n/a	n/a	0	0	0
2854321	START	n/a	LTP229	ltpFR2	18	n/a	n/a	n/a	18	n/a	n/a	n/a	n/a
2854354	PROB	n/a	LTP229	ltpFR2	18	n/a	n/a	n/a	18	19	9	8	2
2855554	PROB	n/a	LTP229	ltpFR2	18	n/a	n/a	n/a	18	14	3	9	2
2858232	PROB	n/a	LTP229	ltpFR2	18	n/a	n/a	n/a	18	17	5	9	3
2860530	PROB	n/a	LTP229	ltpFR2	18	n/a	n/a	n/a	18	15	1	9	5
2861844	PROB	n/a	LTP229	ltpFR2	18	n/a	n/a	n/a	18	18	6	8	4
2863675	PROB	n/a	LTP229	ltpFR2	18	n/a	n/a	n/a	18	13	8	4	1
2865106	PROB	n/a	LTP229	ltpFR2	18	n/a	n/a	n/a	18	16	3	6	7
2866787	PROB	n/a	LTP229	ltpFR2	18	n/a	n/a	n/a	18	16	2	5	9
2868618	PROB	n/a	LTP229	ltpFR2	18	n/a	n/a	n/a	18	11	5	3	3
2870814	PROB	n/a	LTP229	ltpFR2	18	n/a	n/a	n/a	18	8	1	1	6
2871913	PROB	n/a	LTP229	ltpFR2	18	n/a	n/a	n/a	18	12	2	8	2
2873028	PROB	n/a	LTP229	ltpFR2	18	n/a	n/a	n/a	18	14	3	5	6
2874808	PROB	n/a	LTP229	ltpFR2	18	n/a	n/a	n/a	18	20	9	2	9
2876572	PROB	n/a	LTP229	ltpFR2	18	n/a	n/a	n/a	18	18	4	7	7
2878277	STOP	n/a	LTP229	ltpFR2	18	n/a	n/a	n/a	18	n/a	n/a	n/a	n/a
2879485	WORD	wordpools/wasnorm_wordpool_576.txt	LTP229	ltpFR2	18	13	PEANUT	1032	n/a	n/a	0	0	0
2881981	WORD	wordpools/wasnorm_wordpool_576.txt	LTP229	ltpFR2	18	13	CASHEW	253	n/a	n/a	0	0	0
2884694	WORD	wordpools/wasnorm_wordpool_576.txt	LTP229	ltpFR2	18	13	FREEZER	604	n/a	n/a	0	0	0
2887239	WORD	wordpools/wasnorm_wordpool_576.txt	LTP229	ltpFR2	18	13	LUMBER	848	n/a	n/a	0	0	0
2889803	WORD	wordpools/wasnorm_wordpool_576.txt	LTP229	ltpFR2	18	13	FIREMAN	569	n/a	n/a	0	0	0
2892615	WORD	wordpools/wasnorm_wordpool_576.txt	LTP229	ltpFR2	18	13	FUNGUS	614	n/a	n/a	0	0	0
2895377	WORD	wordpools/wasnorm_wordpool_576.txt	LTP229	ltpFR2	18	13	SCULPTURE	1258	n/a	n/a	0	0	0
2897841	WORD	wordpools/wasnorm_wordpool_576.txt	LTP229	ltpFR2	18	13	BADGE	68	n/a	n/a	0	0	0
2900303	WORD	wordpools/wasnorm_wordpool_576.txt	LTP229	ltpFR2	18	13	DRESSER	496	n/a	n/a	0	0	0
2903083	WORD	wordpools/wasnorm_wordpool_576.txt	LTP229	ltpFR2	18	13	CONVICT	371	n/a	n/a	0	0	0
2905596	WORD	wordpools/wasnorm_wordpool_576.txt	LTP229	ltpFR2	18	13	VICTIM	1562	n/a	n/a	0	0	0
2908341	WORD	wordpools/wasnorm_wordpool_576.txt	LTP229	ltpFR2	18	13	TURNIP	1521	n/a	n/a	0	0	0
2910838	WORD	wordpools/wasnorm_wordpool_576.txt	LTP229	ltpFR2	18	13	COIN	343	n/a	n/a	0	0	0
2913584	WORD	wordpools/wasnorm_wordpool_576.txt	LTP229	ltpFR2	18	13	IGLOO	734	n/a	n/a	0	0	0
2916229	WORD	wordpools/wasnorm_wordpool_576.txt	LTP229	ltpFR2	18	13	PORTRAIT	1111	n/a	n/a	0	0	0
2918959	WORD	wordpools/wasnorm_wordpool_576.txt	LTP229	ltpFR2	18	13	CONTRACT	368	n/a	n/a	0	0	0
2921672	WORD	wordpools/wasnorm_wordpool_576.txt	LTP229	ltpFR2	18	13	AIRPORT	13	n/a	n/a	0	0	0
2924184	WORD	wordpools/wasnorm_wordpool_576.txt	LTP229	ltpFR2	18	13	STAKE	1368	n/a	n/a	0	0	0
2926647	WORD	wordpools/wasnorm_wordpool_576.txt	LTP229	ltpFR2	18	13	FRANCE	601	n/a	n/a	0	0	0
2929359	WORD	wordpools/wasnorm_wordpool_576.txt	LTP229	ltpFR2	18	13	SHOULDER	1294	n/a	n/a	0	0	0
2931807	WORD	wordpools/wasnorm_wordpool_576.txt	LTP229	ltpFR2	18	13	PIGMENT	1066	n/a	n/a	0	0	0
2934435	WORD	wordpools/wasnorm_wordpool_576.txt	LTP229	ltpFR2	18	13	CHEMIST	292	n/a	n/a	0	0	0
2936899	WORD	wordpools/wasnorm_wordpool_576.txt	LTP229	ltpFR2	18	13	PLASTER	1085	n/a	n/a	0	0	0
2939394	WORD	wordpools/wasnorm_wordpool_576.txt	LTP229	ltpFR2	18	13	FIREPLACE	570	n/a	n/a	0	0	0
2941010	START	n/a	LTP229	ltpFR2	18	n/a	n/a	n/a	19	n/a	n/a	n/a	n/a
2941973	DISTRACTOR	n/a	LTP229	ltpFR2	18	13	n/a	n/a	n/a	n/a	0	0	0
2941975	PROB	n/a	LTP229	ltpFR2	18	n/a	n/a	n/a	19	13	5	3	5
2943722	PROB	n/a	LTP229	ltpFR2	18	n/a	n/a	n/a	19	17	6	5	6
2947266	PROB	n/a	LTP229	ltpFR2	18	n/a	n/a	n/a	19	11	1	8	2
2948397	PROB	n/a	LTP229	ltpFR2	18	n/a	n/a	n/a	19	25	8	8	9
2950995	PROB	n/a	LTP229	ltpFR2	18	n/a	n/a	n/a	19	14	5	1	8
2954107	PROB	n/a	LTP229	ltpFR2	18	n/a	n/a	n/a	19	9	2	3	4
2956936	PROB	n/a	LTP229	ltpFR2	18	n/a	n/a	n/a	19	8	1	4	3
2958316	PROB	n/a	LTP229	ltpFR2	18	n/a	n/a	n/a	19	14	2	8	4
2959565	PROB	n/a	LTP229	ltpFR2	18	n/a	n/a	n/a	19	15	7	5	3
2961096	PROB	n/a	LTP229	ltpFR2	18	n/a	n/a	n/a	19	10	1	5	4
2962594	PROB	n/a	LTP229	ltpFR2	18	n/a	n/a	n/a	19	15	5	9	1
2963686	STOP	n/a	LTP229	ltpFR2	18	n/a	n/a	n/a	19	n/a	n/a	n/a	n/a
2966955	REC_START	n/a	LTP229	ltpFR2	18	13	n/a	n/a	n/a	n/a	0	0	0
2971316	REC_WORD	wordpools/wasnorm_wordpool_576.txt	LTP229	ltpFR2	18	13	PIGMENT	1066	n/a	n/a	0	0	0
2973668	REC_WORD	wordpools/wasnorm_wordpool_576.txt	LTP229	ltpFR2	18	13	PLASTER	1085	n/a	n/a	0	0	0
2976677	REC_WORD	wordpools/wasnorm_wordpool_576.txt	LTP229	ltpFR2	18	13	MEDAL	885	n/a	n/a	0	0	0
2978729	REC_WORD	wordpools/wasnorm_wordpool_576.txt	LTP229	ltpFR2	18	13	AWARD	63	n/a	n/a	0	0	0
2981018	REC_WORD	wordpools/wasnorm_wordpool_576.txt	LTP229	ltpFR2	18	13	COIN	343	n/a	n/a	0	0	0
3020522	REC_WORD	wordpools/wasnorm_wordpool_576.txt	LTP229	ltpFR2	18	13	CASHEW	253	n/a	n/a	0	0	0
3022565	REC_WORD	wordpools/wasnorm_wordpool_576.txt	LTP229	ltpFR2	18	13	PEANUT	1032	n/a	n/a	0	0	0
3057619	DISTRACTOR	n/a	LTP229	ltpFR2	18	14	n/a	n/a	n/a	n/a	0	0	0
3057619	START	n/a	LTP229	ltpFR2	18	n/a	n/a	n/a	20	n/a	n/a	n/a	n/a
3057652	PROB	n/a	LTP229	ltpFR2	18	n/a	n/a	n/a	20	12	1	4	7
3059100	PROB	n/a	LTP229	ltpFR2	18	n/a	n/a	n/a	20	16	4	7	5
3060697	PROB	n/a	LTP229	ltpFR2	18	n/a	n/a	n/a	20	15	5	7	3
3061946	PROB	n/a	LTP229	ltpFR2	18	n/a	n/a	n/a	20	12	7	4	1
3063293	PROB	n/a	LTP229	ltpFR2	18	n/a	n/a	n/a	20	11	8	1	2
3065156	PROB	n/a	LTP229	ltpFR2	18	n/a	n/a	n/a	20	18	6	8	4
3066489	PROB	n/a	LTP229	ltpFR2	18	n/a	n/a	n/a	20	18	7	4	7
3068402	PROB	n/a	LTP229	ltpFR2	18	n/a	n/a	n/a	20	12	6	4	2
3069501	PROB	n/a	LTP229	ltpFR2	18	n/a	n/a	n/a	20	9	4	3	2
3071148	PROB	n/a	LTP229	ltpFR2	18	n/a	n/a	n/a	20	9	2	4	3
3072530	PROB	n/a	LTP229	ltpFR2	18	n/a	n/a	n/a	20	22	6	8	8
3076390	PROB	n/a	LTP229	ltpFR2	18	n/a	n/a	n/a	20	15	6	3	3
3078387	PROB	n/a	LTP229	ltpFR2	18	n/a	n/a	n/a	20	18	4	8	6
3081619	STOP	n/a	LTP229	ltpFR2	18	n/a	n/a	n/a	20	n/a	n/a	n/a	n/a
3082515	WORD	wordpools/wasnorm_wordpool_576.txt	LTP229	ltpFR2	18	14	PARROT	1015	n/a	n/a	0	0	0
3084945	WORD	wordpools/wasnorm_wordpool_576.txt	LTP229	ltpFR2	18	14	ICING	732	n/a	n/a	0	0	0
3087690	WORD	wordpools/wasnorm_wordpool_576.txt	LTP229	ltpFR2	18	14	FIDDLE	561	n/a	n/a	0	0	0
3090402	WORD	wordpools/wasnorm_wordpool_576.txt	LTP229	ltpFR2	18	14	COUNTRY	388	n/a	n/a	0	0	0
3093082	WORD	wordpools/wasnorm_wordpool_576.txt	LTP229	ltpFR2	18	14	BRICK	172	n/a	n/a	0	0	0
3095795	WORD	wordpools/wasnorm_wordpool_576.txt	LTP229	ltpFR2	18	14	YACHT	1629	n/a	n/a	0	0	0
3098558	WORD	wordpools/wasnorm_wordpool_576.txt	LTP229	ltpFR2	18	14	PILOT	1070	n/a	n/a	0	0	0
3101269	WORD	wordpools/wasnorm_wordpool_576.txt	LTP229	ltpFR2	18	14	CHEST	295	n/a	n/a	0	0	0
3103966	WORD	wordpools/wasnorm_wordpool_576.txt	LTP229	ltpFR2	18	14	LOVER	846	n/a	n/a	0	0	0
3106712	WORD	wordpools/wasnorm_wordpool_576.txt	LTP229	ltpFR2	18	14	FEMALE	559	n/a	n/a	0	0	0
3109440	WORD	wordpools/wasnorm_wordpool_576.txt	LTP229	ltpFR2	18	14	OFFICE	972	n/a	n/a	0	0	0
3112170	WORD	wordpools/wasnorm_wordpool_576.txt	LTP229	ltpFR2	18	14	WARDROBE	1587	n/a	n/a	0	0	0
3114617	WORD	wordpools/wasnorm_wordpool_576.txt	LTP229	ltpFR2	18	14	SCISSORS	1250	n/a	n/a	0	0	0
3117362	WORD	wordpools/wasnorm_wordpool_576.txt	LTP229	ltpFR2	18	14	THREAD	1460	n/a	n/a	0	0	0
3119909	WORD	wordpools/wasnorm_wordpool_576.txt	LTP229	ltpFR2	18	14	HEADBAND	696	n/a	n/a	0	0	0
3122489	WORD	wordpools/wasnorm_wordpool_576.txt	LTP229	ltpFR2	18	14	CREATURE	403	n/a	n/a	0	0	0
3124935	WORD	wordpools/wasnorm_wordpool_576.txt	LTP229	ltpFR2	18	14	PASTRY	1022	n/a	n/a	0	0	0
3127397	WORD	wordpools/wasnorm_wordpool_576.txt	LTP229	ltpFR2	18	14	CABBAGE	210	n/a	n/a	0	0	0
3130193	WORD	wordpools/wasnorm_wordpool_576.txt	LTP229	ltpFR2	18	14	PEBBLE	1035	n/a	n/a	0	0	0
3132657	WORD	wordpools/wasnorm_wordpool_576.txt	LTP229	ltpFR2	18	14	GRAVEL	659	n/a	n/a	0	0	0
3135385	WORD	wordpools/wasnorm_wordpool_576.txt	LTP229	ltpFR2	18	14	SKETCH	1315	n/a	n/a	0	0	0
3137965	WORD	wordpools/wasnorm_wordpool_576.txt	LTP229	ltpFR2	18	14	DRAWING	494	n/a	n/a	0	0	0
3140695	WORD	wordpools/wasnorm_wordpool_576.txt	LTP229	ltpFR2	18	14	PISTON	1076	n/a	n/a	0	0	0
3143440	WORD	wordpools/wasnorm_wordpool_576.txt	LTP229	ltpFR2	18	14	SUPPER	1411	n/a	n/a	0	0	0
3145055	START	n/a	LTP229	ltpFR2	18	n/a	n/a	n/a	21	n/a	n/a	n/a	n/a
3146063	DISTRACTOR	n/a	LTP229	ltpFR2	18	14	n/a	n/a	n/a	n/a	0	0	0
3146070	PROB	n/a	LTP229	ltpFR2	18	n/a	n/a	n/a	21	7	2	4	1
3147601	PROB	n/a	LTP229	ltpFR2	18	n/a	n/a	n/a	21	16	1	6	9
3150513	PROB	n/a	LTP229	ltpFR2	18	n/a	n/a	n/a	21	12	5	4	3
3151911	PROB	n/a	LTP229	ltpFR2	18	n/a	n/a	n/a	21	8	1	3	4
3153208	PROB	n/a	LTP229	ltpFR2	18	n/a	n/a	n/a	21	14	7	5	2
3154774	PROB	n/a	LTP229	ltpFR2	18	n/a	n/a	n/a	21	14	5	6	2
3156554	PROB	n/a	LTP229	ltpFR2	18	n/a	n/a	n/a	21	17	7	9	1
3157919	PROB	n/a	LTP229	ltpFR2	18	n/a	n/a	n/a	21	16	7	8	1
3159716	PROB	n/a	LTP229	ltpFR2	18	n/a	n/a	n/a	21	7	2	1	4
3161213	PROB	n/a	LTP229	ltpFR2	18	n/a	n/a	n/a	21	15	9	6	6
3162261	PROB	n/a	LTP229	ltpFR2	18	n/a	n/a	n/a	21	17	2	9	6
3164175	PROB	n/a	LTP229	ltpFR2	18	n/a	n/a	n/a	21	20	7	5	8
3168790	STOP	n/a	LTP229	ltpFR2	18	n/a	n/a	n/a	21	n/a	n/a	n/a	n/a
3170983	REC_START	n/a	LTP229	ltpFR2	18	14	n/a	n/a	n/a	n/a	0	0	0
3171927	REC_WORD	wordpools/wasnorm_wordpool_576.txt	LTP229	ltpFR2	18	14	PASTRY	1022	n/a	n/a	0	0	0
3173406	REC_WORD	wordpools/wasnorm_wordpool_576.txt	LTP229	ltpFR2	18	14	BIKE	125	n/a	n/a	0	0	0
3174796	REC_WORD	wordpools/wasnorm_wordpool_576.txt	LTP229	ltpFR2	18	14	PEDAL	1037	n/a	n/a	0	0	0
3177954	REC_WORD	wordpools/wasnorm_wordpool_576.txt	LTP229	ltpFR2	18	14	ICING	732	n/a	n/a	0	0	0
3179646	REC_WORD	wordpools/wasnorm_wordpool_576.txt	LTP229	ltpFR2	18	14	FIDDLE	561	n/a	n/a	0	0	0
3182249	REC_WORD	wordpools/wasnorm_wordpool_576.txt	LTP229	ltpFR2	18	14	LOVER	846	n/a	n/a	0	0	0
3183684	REC_WORD	wordpools/wasnorm_wordpool_576.txt	LTP229	ltpFR2	18	14	FEMALE	559	n/a	n/a	0	0	0
3186259	REC_WORD	wordpools/wasnorm_wordpool_576.txt	LTP229	ltpFR2	18	14	PISTON	1076	n/a	n/a	0	0	0
3203189	REC_WORD	wordpools/wasnorm_wordpool_576.txt	LTP229	ltpFR2	18	14	BRICK	172	n/a	n/a	0	0	0
3205651	REC_WORD	wordpools/wasnorm_wordpool_576.txt	LTP229	ltpFR2	18	14	STONE	1385	n/a	n/a	0	0	0
3207801	REC_WORD	wordpools/wasnorm_wordpool_576.txt	LTP229	ltpFR2	18	14	SHELTER	1282	n/a	n/a	0	0	0
3219179	REC_WORD	wordpools/wasnorm_wordpool_576.txt	LTP229	ltpFR2	18	14	POSTAGE	1113	n/a	n/a	0	0	0
3261631	DISTRACTOR	n/a	LTP229	ltpFR2	18	15	n/a	n/a	n/a	n/a	0	0	0
3261631	START	n/a	LTP229	ltpFR2	18	n/a	n/a	n/a	22	n/a	n/a	n/a	n/a
3261664	PROB	n/a	LTP229	ltpFR2	18	n/a	n/a	n/a	22	17	7	4	6
3263029	PROB	n/a	LTP229	ltpFR2	18	n/a	n/a	n/a	22	11	5	2	4
3264710	PROB	n/a	LTP229	ltpFR2	18	n/a	n/a	n/a	22	24	9	8	7
3266206	PROB	n/a	LTP229	ltpFR2	18	n/a	n/a	n/a	22	15	4	7	4
3268253	PROB	n/a	LTP229	ltpFR2	18	n/a	n/a	n/a	22	2	7	9	6
3271282	PROB	n/a	LTP229	ltpFR2	18	n/a	n/a	n/a	22	15	6	6	3
3273912	PROB	n/a	LTP229	ltpFR2	18	n/a	n/a	n/a	22	13	4	5	4
3277707	PROB	n/a	LTP229	ltpFR2	18	n/a	n/a	n/a	22	23	7	9	7
3281151	PROB	n/a	LTP229	ltpFR2	18	n/a	n/a	n/a	22	14	2	4	8
3282882	PROB	n/a	LTP229	ltpFR2	18	n/a	n/a	n/a	22	17	7	4	6
3284157	STOP	n/a	LTP229	ltpFR2	18	n/a	n/a	n/a	22	n/a	n/a	n/a	n/a
3286727	WORD	wordpools/wasnorm_wordpool_576.txt	LTP229	ltpFR2	18	15	MUSTARD	935	n/a	n/a	0	0	0
3289155	WORD	wordpools/wasnorm_wordpool_576.txt	LTP229	ltpFR2	18	15	SWITCH	1422	n/a	n/a	0	0	0
3291736	WORD	wordpools/wasnorm_wordpool_576.txt	LTP229	ltpFR2	18	15	ROOSTER	1209	n/a	n/a	0	0	0
3294331	WORD	wordpools/wasnorm_wordpool_576.txt	LTP229	ltpFR2	18	15	JELLO	754	n/a	n/a	0	0	0
3297095	WORD	wordpools/wasnorm_wordpool_576.txt	LTP229	ltpFR2	18	15	PUPPY	1144	n/a	n/a	0	0	0
3299757	WORD	wordpools/wasnorm_wordpool_576.txt	LTP229	ltpFR2	18	15	MARKER	870	n/a	n/a	0	0	0
3302402	WORD	wordpools/wasnorm_wordpool_576.txt	LTP229	ltpFR2	18	15	CRAYON	401	n/a	n/a	0	0	0
3304883	WORD	wordpools/wasnorm_wordpool_576.txt	LTP229	ltpFR2	18	15	JURY	766	n/a	n/a	0	0	0
3307445	WORD	wordpools/wasnorm_wordpool_576.txt	LTP229	ltpFR2	18	15	HOUND	724	n/a	n/a	0	0	0
3309959	WORD	wordpools/wasnorm_wordpool_576.txt	LTP229	ltpFR2	18	15	FLASHLIGHT	575	n/a	n/a	0	0	0
3312421	WORD	wordpools/wasnorm_wordpool_576.txt	LTP229	ltpFR2	18	15	TWIG	1527	n/a	n/a	0	0	0
3314885	WORD	wordpools/wasnorm_wordpool_576.txt	LTP229	ltpFR2	18	15	MAPLE	866	n/a	n/a	0	0	0
3317681	WORD	wordpools/wasnorm_wordpool_576.txt	LTP229	ltpFR2	18	15	CATCHER	258	n/a	n/a	0	0	0
3320259	WORD	wordpools/wasnorm_wordpool_576.txt	LTP229	ltpFR2	18	15	LAMP	798	n/a	n/a	0	0	0
3322839	WORD	wordpools/wasnorm_wordpool_576.txt	LTP229	ltpFR2	18	15	TOURIST	1488	n/a	n/a	0	0	0
3325602	WORD	wordpools/wasnorm_wordpool_576.txt	LTP229	ltpFR2	18	15	BANK	83	n/a	n/a	0	0	0
3328413	WORD	wordpools/wasnorm_wordpool_576.txt	LTP229	ltpFR2	18	15	BUREAU	199	n/a	n/a	0	0	0
3331226	WORD	wordpools/wasnorm_wordpool_576.txt	LTP229	ltpFR2	18	15	RIFLE	1192	n/a	n/a	0	0	0
3333707	WORD	wordpools/wasnorm_wordpool_576.txt	LTP229	ltpFR2	18	15	LIPSTICK	829	n/a	n/a	0	0	0
3336318	WORD	wordpools/wasnorm_wordpool_576.txt	LTP229	ltpFR2	18	15	WRIST	1626	n/a	n/a	0	0	0
3338832	WORD	wordpools/wasnorm_wordpool_576.txt	LTP229	ltpFR2	18	15	SEAGULL	1261	n/a	n/a	0	0	0
3341661	WORD	wordpools/wasnorm_wordpool_576.txt	LTP229	ltpFR2	18	15	QUAIL	1147	n/a	n/a	0	0	0
3344240	WORD	wordpools/wasnorm_wordpool_576.txt	LTP229	ltpFR2	18	15	EYELASH	546	n/a	n/a	0	0	0
3346870	WORD	wordpools/wasnorm_wordpool_576.txt	LTP229	ltpFR2	18	15	SCALPEL	1243	n/a	n/a	0	0	0
3348485	START	n/a	LTP229	ltpFR2	18	n/a	n/a	n/a	23	n/a	n/a	n/a	n/a
3349500	DISTRACTOR	n/a	LTP229	ltpFR2	18	15	n/a	n/a	n/a	n/a	0	0	0
3349516	PROB	n/a	LTP229	ltpFR2	18	n/a	n/a	n/a	23	174	2	8	7
3351114	PROB	n/a	LTP229	ltpFR2	18	n/a	n/a	n/a	23	14	5	4	5
3352828	PROB	n/a	LTP229	ltpFR2	18	n/a	n/a	n/a	23	15	2	5	8
3354375	PROB	n/a	LTP229	ltpFR2	18	n/a	n/a	n/a	23	18	2	9	7
3356106	PROB	n/a	LTP229	ltpFR2	18	n/a	n/a	n/a	23	17	4	6	7
3357387	PROB	n/a	LTP229	ltpFR2	18	n/a	n/a	n/a	23	11	5	1	5
3358536	PROB	n/a	LTP229	ltpFR2	18	n/a	n/a	n/a	23	13	3	5	5
3359651	PROB	n/a	LTP229	ltpFR2	18	n/a	n/a	n/a	23	21	8	4	9
3361848	PROB	n/a	LTP229	ltpFR2	18	n/a	n/a	n/a	23	11	6	2	3
3363495	PROB	n/a	LTP229	ltpFR2	18	n/a	n/a	n/a	23	19	6	5	8
3365060	PROB	n/a	LTP229	ltpFR2	18	n/a	n/a	n/a	23	12	8	2	2
3366340	PROB	n/a	LTP229	ltpFR2	18	n/a	n/a	n/a	23	17	7	2	8
3368387	PROB	n/a	LTP229	ltpFR2	18	n/a	n/a	n/a	23	14	3	6	5
3369969	PROB	n/a	LTP229	ltpFR2	18	n/a	n/a	n/a	23	16	6	3	7
3371502	STOP	n/a	LTP229	ltpFR2	18	n/a	n/a	n/a	23	n/a	n/a	n/a	n/a
3374345	REC_START	n/a	LTP229	ltpFR2	18	15	n/a	n/a	n/a	n/a	0	0	0
3376139	REC_WORD	wordpools/wasnorm_wordpool_576.txt	LTP229	ltpFR2	18	15	UMPIRE	1535	n/a	n/a	0	0	0
3378870	REC_WORD	wordpools/wasnorm_wordpool_576.txt	LTP229	ltpFR2	18	15	CATCHER	258	n/a	n/a	0	0	0
3384253	REC_WORD	wordpools/wasnorm_wordpool_576.txt	LTP229	ltpFR2	18	15	QUAIL	1147	n/a	n/a	0	0	0
3387041	REC_WORD	wordpools/wasnorm_wordpool_576.txt	LTP229	ltpFR2	18	15	PARROT	1015	n/a	n/a	0	0	0
3465011	WORD	wordpools/wasnorm_wordpool_576.txt	LTP229	ltpFR2	18	16	OX	994	n/a	n/a	0	0	0
3467507	WORD	wordpools/wasnorm_wordpool_576.txt	LTP229	ltpFR2	18	16	BRAKE	166	n/a	n/a	0	0	0
3470252	WORD	wordpools/wasnorm_wordpool_576.txt	LTP229	ltpFR2	18	16	CONCERT	360	n/a	n/a	0	0	0
3472932	WORD	wordpools/wasnorm_wordpool_576.txt	LTP229	ltpFR2	18	16	BOYFRIEND	162	n/a	n/a	0	0	0
3475495	WORD	wordpools/wasnorm_wordpool_576.txt	LTP229	ltpFR2	18	16	BOUQUET	157	n/a	n/a	0	0	0
3478074	WORD	wordpools/wasnorm_wordpool_576.txt	LTP229	ltpFR2	18	16	TABLET	1427	n/a	n/a	0	0	0
3480804	WORD	wordpools/wasnorm_wordpool_576.txt	LTP229	ltpFR2	18	16	BATHTUB	100	n/a	n/a	0	0	0
3483282	WORD	wordpools/wasnorm_wordpool_576.txt	LTP229	ltpFR2	18	16	SPONGE	1355	n/a	n/a	0	0	0
3485963	WORD	wordpools/wasnorm_wordpool_576.txt	LTP229	ltpFR2	18	16	SAUSAGE	1238	n/a	n/a	0	0	0
3488525	WORD	wordpools/wasnorm_wordpool_576.txt	LTP229	ltpFR2	18	16	TAXI	1438	n/a	n/a	0	0	0
3491121	WORD	wordpools/wasnorm_wordpool_576.txt	LTP229	ltpFR2	18	16	RUST	1219	n/a	n/a	0	0	0
3493568	WORD	wordpools/wasnorm_wordpool_576.txt	LTP229	ltpFR2	18	16	GYMNAST	675	n/a	n/a	0	0	0
3496329	WORD	wordpools/wasnorm_wordpool_576.txt	LTP229	ltpFR2	18	16	RECORD	1176	n/a	n/a	0	0	0
3499110	WORD	wordpools/wasnorm_wordpool_576.txt	LTP229	ltpFR2	18	16	POET	1095	n/a	n/a	0	0	0
3501623	WORD	wordpools/wasnorm_wordpool_576.txt	LTP229	ltpFR2	18	16	CRIB	407	n/a	n/a	0	0	0
3504069	WORD	wordpools/wasnorm_wordpool_576.txt	LTP229	ltpFR2	18	16	LEOPARD	812	n/a	n/a	0	0	0
3506815	WORD	wordpools/wasnorm_wordpool_576.txt	LTP229	ltpFR2	18	16	BANJO	82	n/a	n/a	0	0	0
3509594	WORD	wordpools/wasnorm_wordpool_576.txt	LTP229	ltpFR2	18	16	AGENT	10	n/a	n/a	0	0	0
3512239	WORD	wordpools/wasnorm_wordpool_576.txt	LTP229	ltpFR2	18	16	DRUG	501	n/a	n/a	0	0	0
3515003	WORD	wordpools/wasnorm_wordpool_576.txt	LTP229	ltpFR2	18	16	GAVEL	627	n/a	n/a	0	0	0
3517499	WORD	wordpools/wasnorm_wordpool_576.txt	LTP229	ltpFR2	18	16	COMPASS	358	n/a	n/a	0	0	0
3519929	WORD	wordpools/wasnorm_wordpool_576.txt	LTP229	ltpFR2	18	16	BUG	187	n/a	n/a	0	0	0
3522641	WORD	wordpools/wasnorm_wordpool_576.txt	LTP229	ltpFR2	18	16	FLIPPER	580	n/a	n/a	0	0	0
3525419	WORD	wordpools/wasnorm_wordpool_576.txt	LTP229	ltpFR2	18	16	FRECKLE	602	n/a	n/a	0	0	0
3527035	START	n/a	LTP229	ltpFR2	18	n/a	n/a	n/a	24	n/a	n/a	n/a	n/a
3528010	DISTRACTOR	n/a	LTP229	ltpFR2	18	16	n/a	n/a	n/a	n/a	0	0	0
3528016	PROB	n/a	LTP229	ltpFR2	18	n/a	n/a	n/a	24	14	6	3	5
3529864	PROB	n/a	LTP229	ltpFR2	18	n/a	n/a	n/a	24	15	1	5	9
3531394	PROB	n/a	LTP229	ltpFR2	18	n/a	n/a	n/a	24	16	2	8	6
3532909	PROB	n/a	LTP229	ltpFR2	18	n/a	n/a	n/a	24	12	2	6	4
3534074	PROB	n/a	LTP229	ltpFR2	18	n/a	n/a	n/a	24	24	7	8	6
3535888	PROB	n/a	LTP229	ltpFR2	18	n/a	n/a	n/a	24	16	8	4	4
3538400	PROB	n/a	LTP229	ltpFR2	18	n/a	n/a	n/a	24	15	8	5	2
3539682	PROB	n/a	LTP229	ltpFR2	18	n/a	n/a	n/a	24	17	8	2	7
3540964	PROB	n/a	LTP229	ltpFR2	18	n/a	n/a	n/a	24	13	1	6	6
3542427	PROB	n/a	LTP229	ltpFR2	18	n/a	n/a	n/a	24	17	4	6	7
3543593	PROB	n/a	LTP229	ltpFR2	18	n/a	n/a	n/a	24	14	1	5	8
3545273	PROB	n/a	LTP229	ltpFR2	18	n/a	n/a	n/a	24	20	8	6	6
3547387	PROB	n/a	LTP229	ltpFR2	18	n/a	n/a	n/a	24	19	8	2	9
3548586	PROB	n/a	LTP229	ltpFR2	18	n/a	n/a	n/a	24	8	3	1	4
3549982	STOP	n/a	LTP229	ltpFR2	18	n/a	n/a	n/a	24	n/a	n/a	n/a	n/a
3552913	REC_START	n/a	LTP229	ltpFR2	18	16	n/a	n/a	n/a	n/a	0	0	0
3554685	REC_WORD	wordpools/wasnorm_wordpool_576.txt	LTP229	ltpFR2	18	16	GAVEL	627	n/a	n/a	0	0	0
3557183	REC_WORD	wordpools/wasnorm_wordpool_576.txt	LTP229	ltpFR2	18	16	JURY	766	n/a	n/a	0	0	0
3559611	REC_WORD	wordpools/wasnorm_wordpool_576.txt	LTP229	ltpFR2	18	16	CRIB	407	n/a	n/a	0	0	0
3561616	REC_WORD	wordpools/wasnorm_wordpool_576.txt	LTP229	ltpFR2	18	16	AGENT	10	n/a	n/a	0	0	0
3563696	REC_WORD	wordpools/wasnorm_wordpool_576.txt	LTP229	ltpFR2	18	16	DRUG	501	n/a	n/a	0	0	0
3565845	REC_WORD	wordpools/wasnorm_wordpool_576.txt	LTP229	ltpFR2	18	16	BOYFRIEND	162	n/a	n/a	0	0	0
3570415	REC_WORD	wordpools/wasnorm_wordpool_576.txt	LTP229	ltpFR2	18	16	LEOPARD	812	n/a	n/a	0	0	0
3572881	REC_WORD	wordpools/wasnorm_wordpool_576.txt	LTP229	ltpFR2	18	16	LUMBER	848	n/a	n/a	0	0	0
3603758	REC_WORD	wordpools/wasnorm_wordpool_576.txt	LTP229	ltpFR2	18	16	BOX	159	n/a	n/a	0	0	0
3610873	REC_WORD	wordpools/wasnorm_wordpool_576.txt	LTP229	ltpFR2	18	16	GYMNAST	675	n/a	n/a	0	0	0
3612902	REC_WORD	wordpools/wasnorm_wordpool_576.txt	LTP229	ltpFR2	18	16	POET	1095	n/a	n/a	0	0	0
3620618	REC_WORD	wordpools/wasnorm_wordpool_576.txt	LTP229	ltpFR2	18	16	COMPASS	358	n/a	n/a	0	0	0
3629532	REST_REWET	n/a	LTP229	ltpFR2	18	16	n/a	n/a	n/a	n/a	0	0	0
4034926	WORD	wordpools/wasnorm_wordpool_576.txt	LTP229	ltpFR2	18	17	CLIMBER	323	n/a	n/a	0	0	0
4037556	WORD	wordpools/wasnorm_wordpool_576.txt	LTP229	ltpFR2	18	17	RIVER	1194	n/a	n/a	0	0	0
4040151	WORD	wordpools/wasnorm_wordpool_576.txt	LTP229	ltpFR2	18	17	ISLAND	745	n/a	n/a	0	0	0
4042881	WORD	wordpools/wasnorm_wordpool_576.txt	LTP229	ltpFR2	18	17	TROUT	1511	n/a	n/a	0	0	0
4045343	WORD	wordpools/wasnorm_wordpool_576.txt	LTP229	ltpFR2	18	17	HIGHWAY	707	n/a	n/a	0	0	0
4047924	WORD	wordpools/wasnorm_wordpool_576.txt	LTP229	ltpFR2	18	17	MOTOR	922	n/a	n/a	0	0	0
4050436	WORD	wordpools/wasnorm_wordpool_576.txt	LTP229	ltpFR2	18	17	MOTEL	919	n/a	n/a	0	0	0
4053148	WORD	wordpools/wasnorm_wordpool_576.txt	LTP229	ltpFR2	18	17	POWDER	1117	n/a	n/a	0	0	0
4055912	WORD	wordpools/wasnorm_wordpool_576.txt	LTP229	ltpFR2	18	17	CARRIAGE	248	n/a	n/a	0	0	0
4058558	WORD	wordpools/wasnorm_wordpool_576.txt	LTP229	ltpFR2	18	17	DORM	488	n/a	n/a	0	0	0
4061087	WORD	wordpools/wasnorm_wordpool_576.txt	LTP229	ltpFR2	18	17	ASIA	46	n/a	n/a	0	0	0
4063650	WORD	wordpools/wasnorm_wordpool_576.txt	LTP229	ltpFR2	18	17	SUMMIT	1405	n/a	n/a	0	0	0
4066195	WORD	wordpools/wasnorm_wordpool_576.txt	LTP229	ltpFR2	18	17	STUDENT	1395	n/a	n/a	0	0	0
4068793	WORD	wordpools/wasnorm_wordpool_576.txt	LTP229	ltpFR2	18	17	SCOTCH	1251	n/a	n/a	0	0	0
4071388	WORD	wordpools/wasnorm_wordpool_576.txt	LTP229	ltpFR2	18	17	MISSILE	900	n/a	n/a	0	0	0
4074068	WORD	wordpools/wasnorm_wordpool_576.txt	LTP229	ltpFR2	18	17	ORCHID	982	n/a	n/a	0	0	0
4076747	WORD	wordpools/wasnorm_wordpool_576.txt	LTP229	ltpFR2	18	17	DIME	466	n/a	n/a	0	0	0
4079409	WORD	wordpools/wasnorm_wordpool_576.txt	LTP229	ltpFR2	18	17	BRANDY	169	n/a	n/a	0	0	0
4081840	WORD	wordpools/wasnorm_wordpool_576.txt	LTP229	ltpFR2	18	17	MUMMY	932	n/a	n/a	0	0	0
4084318	WORD	wordpools/wasnorm_wordpool_576.txt	LTP229	ltpFR2	18	17	BRANCH	168	n/a	n/a	0	0	0
4086899	WORD	wordpools/wasnorm_wordpool_576.txt	LTP229	ltpFR2	18	17	COFFEE	341	n/a	n/a	0	0	0
4089377	WORD	wordpools/wasnorm_wordpool_576.txt	LTP229	ltpFR2	18	17	PATIENT	1024	n/a	n/a	0	0	0
4091891	WORD	wordpools/wasnorm_wordpool_576.txt	LTP229	ltpFR2	18	17	NURSE	963	n/a	n/a	0	0	0
4094488	WORD	wordpools/wasnorm_wordpool_576.txt	LTP229	ltpFR2	18	17	CROWN	415	n/a	n/a	0	0	0
4096102	START	n/a	LTP229	ltpFR2	18	n/a	n/a	n/a	25	n/a	n/a	n/a	n/a
4097275	DISTRACTOR	n/a	LTP229	ltpFR2	18	17	n/a	n/a	n/a	n/a	0	0	0
4097282	PROB	n/a	LTP229	ltpFR2	18	n/a	n/a	n/a	25	18	6	6	6
4099064	PROB	n/a	LTP229	ltpFR2	18	n/a	n/a	n/a	25	19	8	4	7
4100761	PROB	n/a	LTP229	ltpFR2	18	n/a	n/a	n/a	25	11	5	1	5
4101760	PROB	n/a	LTP229	ltpFR2	18	n/a	n/a	n/a	25	17	2	7	8
4103307	PROB	n/a	LTP229	ltpFR2	18	n/a	n/a	n/a	25	14	8	4	2
4105504	PROB	n/a	LTP229	ltpFR2	18	n/a	n/a	n/a	25	11	5	5	1
4106503	PROB	n/a	LTP229	ltpFR2	18	n/a	n/a	n/a	25	11	9	1	1
4107768	PROB	n/a	LTP229	ltpFR2	18	n/a	n/a	n/a	25	10	1	5	4
4109548	PROB	n/a	LTP229	ltpFR2	18	n/a	n/a	n/a	25	12	6	2	4
4111395	PROB	n/a	LTP229	ltpFR2	18	n/a	n/a	n/a	25	6	1	2	3
4112843	PROB	n/a	LTP229	ltpFR2	18	n/a	n/a	n/a	25	15	8	5	7
4115024	PROB	n/a	LTP229	ltpFR2	18	n/a	n/a	n/a	25	14	3	8	3
4117054	PROB	n/a	LTP229	ltpFR2	18	n/a	n/a	n/a	25	18	6	8	4
4120102	STOP	n/a	LTP229	ltpFR2	18	n/a	n/a	n/a	25	n/a	n/a	n/a	n/a
4121847	REC_START	n/a	LTP229	ltpFR2	18	17	n/a	n/a	n/a	n/a	0	0	0
4123338	REC_WORD	wordpools/wasnorm_wordpool_576.txt	LTP229	ltpFR2	18	17	BRANCH	168	n/a	n/a	0	0	0
4125094	REC_WORD	wordpools/wasnorm_wordpool_576.txt	LTP229	ltpFR2	18	17	DIME	466	n/a	n/a	0	0	0
4126842	REC_WORD	wordpools/wasnorm_wordpool_576.txt	LTP229	ltpFR2	18	17	MUMMY	932	n/a	n/a	0	0	0
4128814	REC_WORD	wordpools/wasnorm_wordpool_576.txt	LTP229	ltpFR2	18	17	CROWN	415	n/a	n/a	0	0	0
4130486	REC_WORD	wordpools/wasnorm_wordpool_576.txt	LTP229	ltpFR2	18	17	CRAYON	401	n/a	n/a	0	0	0
4212495	DISTRACTOR	n/a	LTP229	ltpFR2	18	18	n/a	n/a	n/a	n/a	0	0	0
4212495	START	n/a	LTP229	ltpFR2	18	n/a	n/a	n/a	26	n/a	n/a	n/a	n/a
4212528	PROB	n/a	LTP229	ltpFR2	18	n/a	n/a	n/a	26	22	6	8	8
4215173	PROB	n/a	LTP229	ltpFR2	18	n/a	n/a	n/a	26	21	5	8	8
4218368	PROB	n/a	LTP229	ltpFR2	18	n/a	n/a	n/a	26	15	3	4	8
4219767	PROB	n/a	LTP229	ltpFR2	18	n/a	n/a	n/a	26	7	1	2	4
4221481	PROB	n/a	LTP229	ltpFR2	18	n/a	n/a	n/a	26	7	1	4	2
4222813	PROB	n/a	LTP229	ltpFR2	18	n/a	n/a	n/a	26	9	3	1	5
4223978	PROB	n/a	LTP229	ltpFR2	18	n/a	n/a	n/a	26	7	3	3	1
4225208	PROB	n/a	LTP229	ltpFR2	18	n/a	n/a	n/a	26	25	9	8	8
4228005	PROB	n/a	LTP229	ltpFR2	18	n/a	n/a	n/a	26	25	9	8	8
4228970	PROB	n/a	LTP229	ltpFR2	18	n/a	n/a	n/a	26	12	5	2	5
4230250	PROB	n/a	LTP229	ltpFR2	18	n/a	n/a	n/a	26	14	2	3	8
4231899	PROB	n/a	LTP229	ltpFR2	18	n/a	n/a	n/a	26	14	5	5	4
4233081	PROB	n/a	LTP229	ltpFR2	18	n/a	n/a	n/a	26	10	4	4	2
4235542	STOP	n/a	LTP229	ltpFR2	18	n/a	n/a	n/a	26	n/a	n/a	n/a	n/a
4237473	WORD	wordpools/wasnorm_wordpool_576.txt	LTP229	ltpFR2	18	18	DUSTPAN	509	n/a	n/a	0	0	0
4239937	WORD	wordpools/wasnorm_wordpool_576.txt	LTP229	ltpFR2	18	18	SIBLING	1301	n/a	n/a	0	0	0
4242517	WORD	wordpools/wasnorm_wordpool_576.txt	LTP229	ltpFR2	18	18	BURGLAR	200	n/a	n/a	0	0	0
4245178	WORD	wordpools/wasnorm_wordpool_576.txt	LTP229	ltpFR2	18	18	ROBBER	1197	n/a	n/a	0	0	0
4247892	WORD	wordpools/wasnorm_wordpool_576.txt	LTP229	ltpFR2	18	18	GUITAR	670	n/a	n/a	0	0	0
4250621	WORD	wordpools/wasnorm_wordpool_576.txt	LTP229	ltpFR2	18	18	ULCER	1533	n/a	n/a	0	0	0
4253133	WORD	wordpools/wasnorm_wordpool_576.txt	LTP229	ltpFR2	18	18	MAMMAL	861	n/a	n/a	0	0	0
4255880	WORD	wordpools/wasnorm_wordpool_576.txt	LTP229	ltpFR2	18	18	KNAPSACK	783	n/a	n/a	0	0	0
4258325	WORD	wordpools/wasnorm_wordpool_576.txt	LTP229	ltpFR2	18	18	LOFT	840	n/a	n/a	0	0	0
4260939	WORD	wordpools/wasnorm_wordpool_576.txt	LTP229	ltpFR2	18	18	VENUS	1557	n/a	n/a	0	0	0
4263568	WORD	wordpools/wasnorm_wordpool_576.txt	LTP229	ltpFR2	18	18	GLOVE	642	n/a	n/a	0	0	0
4266098	WORD	wordpools/wasnorm_wordpool_576.txt	LTP229	ltpFR2	18	18	SLIDE	1326	n/a	n/a	0	0	0
4268811	WORD	wordpools/wasnorm_wordpool_576.txt	LTP229	ltpFR2	18	18	PLAYGROUND	1087	n/a	n/a	0	0	0
4271456	WORD	wordpools/wasnorm_wordpool_576.txt	LTP229	ltpFR2	18	18	SCARF	1246	n/a	n/a	0	0	0
4273903	WORD	wordpools/wasnorm_wordpool_576.txt	LTP229	ltpFR2	18	18	FOREST	593	n/a	n/a	0	0	0
4276448	WORD	wordpools/wasnorm_wordpool_576.txt	LTP229	ltpFR2	18	18	DUST	508	n/a	n/a	0	0	0
4279227	WORD	wordpools/wasnorm_wordpool_576.txt	LTP229	ltpFR2	18	18	MATTRESS	879	n/a	n/a	0	0	0
4281741	WORD	wordpools/wasnorm_wordpool_576.txt	LTP229	ltpFR2	18	18	CRITIC	410	n/a	n/a	0	0	0
4284386	WORD	wordpools/wasnorm_wordpool_576.txt	LTP229	ltpFR2	18	18	FRAGRANCE	599	n/a	n/a	0	0	0
4287132	WORD	wordpools/wasnorm_wordpool_576.txt	LTP229	ltpFR2	18	18	CASKET	255	n/a	n/a	0	0	0
4289912	WORD	wordpools/wasnorm_wordpool_576.txt	LTP229	ltpFR2	18	18	POSSUM	1112	n/a	n/a	0	0	0
4292441	WORD	wordpools/wasnorm_wordpool_576.txt	LTP229	ltpFR2	18	18	GLOBE	641	n/a	n/a	0	0	0
4295170	WORD	wordpools/wasnorm_wordpool_576.txt	LTP229	ltpFR2	18	18	BISON	131	n/a	n/a	0	0	0
4297618	WORD	wordpools/wasnorm_wordpool_576.txt	LTP229	ltpFR2	18	18	NIGHTGOWN	953	n/a	n/a	0	0	0
4299231	START	n/a	LTP229	ltpFR2	18	n/a	n/a	n/a	27	n/a	n/a	n/a	n/a
4300381	DISTRACTOR	n/a	LTP229	ltpFR2	18	18	n/a	n/a	n/a	n/a	0	0	0
4300396	PROB	n/a	LTP229	ltpFR2	18	n/a	n/a	n/a	27	13	4	7	2
4302443	PROB	n/a	LTP229	ltpFR2	18	n/a	n/a	n/a	27	17	8	7	2
4305289	PROB	n/a	LTP229	ltpFR2	18	n/a	n/a	n/a	27	15	2	4	9
4306737	PROB	n/a	LTP229	ltpFR2	18	n/a	n/a	n/a	27	11	1	6	4
4307769	PROB	n/a	LTP229	ltpFR2	18	n/a	n/a	n/a	27	13	6	8	1
4309466	PROB	n/a	LTP229	ltpFR2	18	n/a	n/a	n/a	27	6	3	2	1
4310881	PROB	n/a	LTP229	ltpFR2	18	n/a	n/a	n/a	27	15	9	5	8
4312113	PROB	n/a	LTP229	ltpFR2	18	n/a	n/a	n/a	27	21	7	8	6
4314759	PROB	n/a	LTP229	ltpFR2	18	n/a	n/a	n/a	27	233	9	6	8
4318037	PROB	n/a	LTP229	ltpFR2	18	n/a	n/a	n/a	27	11	1	9	1
4319102	PROB	n/a	LTP229	ltpFR2	18	n/a	n/a	n/a	27	18	3	7	8
4320233	PROB	n/a	LTP229	ltpFR2	18	n/a	n/a	n/a	27	12	5	4	3
4321998	STOP	n/a	LTP229	ltpFR2	18	n/a	n/a	n/a	27	n/a	n/a	n/a	n/a
4325044	REC_START	n/a	LTP229	ltpFR2	18	18	n/a	n/a	n/a	n/a	0	0	0
4327527	REC_WORD	wordpools/wasnorm_wordpool_576.txt	LTP229	ltpFR2	18	18	BISON	131	n/a	n/a	0	0	0
4415741	WORD	wordpools/wasnorm_wordpool_576.txt	LTP229	ltpFR2	18	19	PIMPLE	1071	n/a	n/a	0	0	0
4418554	WORD	wordpools/wasnorm_wordpool_576.txt	LTP229	ltpFR2	18	19	MARINE	869	n/a	n/a	0	0	0
4421365	WORD	wordpools/wasnorm_wordpool_576.txt	LTP229	ltpFR2	18	19	HAWK	692	n/a	n/a	0	0	0
4423962	WORD	wordpools/wasnorm_wordpool_576.txt	LTP229	ltpFR2	18	19	ANTLER	29	n/a	n/a	0	0	0
4426441	WORD	wordpools/wasnorm_wordpool_576.txt	LTP229	ltpFR2	18	19	BROOK	177	n/a	n/a	0	0	0
4429038	WORD	wordpools/wasnorm_wordpool_576.txt	LTP229	ltpFR2	18	19	PARTNER	1017	n/a	n/a	0	0	0
4431767	WORD	wordpools/wasnorm_wordpool_576.txt	LTP229	ltpFR2	18	19	NOMAD	955	n/a	n/a	0	0	0
4434229	WORD	wordpools/wasnorm_wordpool_576.txt	LTP229	ltpFR2	18	19	TRIBE	1505	n/a	n/a	0	0	0
4436660	WORD	wordpools/wasnorm_wordpool_576.txt	LTP229	ltpFR2	18	19	ACTRESS	6	n/a	n/a	0	0	0
4439272	WORD	wordpools/wasnorm_wordpool_576.txt	LTP229	ltpFR2	18	19	SUNRISE	1407	n/a	n/a	0	0	0
4442052	WORD	wordpools/wasnorm_wordpool_576.txt	LTP229	ltpFR2	18	19	SCRIBBLE	1256	n/a	n/a	0	0	0
4444864	WORD	wordpools/wasnorm_wordpool_576.txt	LTP229	ltpFR2	18	19	FINGER	567	n/a	n/a	0	0	0
4447594	WORD	wordpools/wasnorm_wordpool_576.txt	LTP229	ltpFR2	18	19	EUROPE	541	n/a	n/a	0	0	0
4450389	WORD	wordpools/wasnorm_wordpool_576.txt	LTP229	ltpFR2	18	19	BRACES	164	n/a	n/a	0	0	0
4453086	WORD	wordpools/wasnorm_wordpool_576.txt	LTP229	ltpFR2	18	19	GHETTO	633	n/a	n/a	0	0	0
4455831	WORD	wordpools/wasnorm_wordpool_576.txt	LTP229	ltpFR2	18	19	ACTOR	5	n/a	n/a	0	0	0
4458644	WORD	wordpools/wasnorm_wordpool_576.txt	LTP229	ltpFR2	18	19	JEANS	752	n/a	n/a	0	0	0
4461356	WORD	wordpools/wasnorm_wordpool_576.txt	LTP229	ltpFR2	18	19	BLOUSE	139	n/a	n/a	0	0	0
4463886	WORD	wordpools/wasnorm_wordpool_576.txt	LTP229	ltpFR2	18	19	GIRL	637	n/a	n/a	0	0	0
4466448	WORD	wordpools/wasnorm_wordpool_576.txt	LTP229	ltpFR2	18	19	COUSIN	392	n/a	n/a	0	0	0
4469177	WORD	wordpools/wasnorm_wordpool_576.txt	LTP229	ltpFR2	18	19	ORANGE	980	n/a	n/a	0	0	0
4471907	WORD	wordpools/wasnorm_wordpool_576.txt	LTP229	ltpFR2	18	19	HANDBAG	684	n/a	n/a	0	0	0
4474353	WORD	wordpools/wasnorm_wordpool_576.txt	LTP229	ltpFR2	18	19	CAFE	216	n/a	n/a	0	0	0
4477033	WORD	wordpools/wasnorm_wordpool_576.txt	LTP229	ltpFR2	18	19	PLATE	1086	n/a	n/a	0	0	0
4478648	START	n/a	LTP229	ltpFR2	18	n/a	n/a	n/a	28	n/a	n/a	n/a	n/a
4479452	DISTRACTOR	n/a	LTP229	ltpFR2	18	19	n/a	n/a	n/a	n/a	0	0	0
4479462	PROB	n/a	LTP229	ltpFR2	18	n/a	n/a	n/a	28	13	7	1	5
4481826	PROB	n/a	LTP229	ltpFR2	18	n/a	n/a	n/a	28	9	5	3	1
4483256	PROB	n/a	LTP229	ltpFR2	18	n/a	n/a	n/a	28	15	1	4	9
4484838	PROB	n/a	LTP229	ltpFR2	18	n/a	n/a	n/a	28	8	5	2	1
4486036	PROB	n/a	LTP229	ltpFR2	18	n/a	n/a	n/a	28	17	5	5	7
4487167	PROB	n/a	LTP229	ltpFR2	18	n/a	n/a	n/a	28	13	3	7	3
4488516	PROB	n/a	LTP229	ltpFR2	18	n/a	n/a	n/a	28	13	6	6	1
4489814	PROB	n/a	LTP229	ltpFR2	18	n/a	n/a	n/a	28	19	3	8	8
4491844	PROB	n/a	LTP229	ltpFR2	18	n/a	n/a	n/a	28	10	1	5	4
4493258	PROB	n/a	LTP229	ltpFR2	18	n/a	n/a	n/a	28	7	3	3	1
4494740	PROB	n/a	LTP229	ltpFR2	18	n/a	n/a	n/a	28	9	3	5	2
4496953	PROB	n/a	LTP229	ltpFR2	18	n/a	n/a	n/a	28	10	4	5	1
4498317	PROB	n/a	LTP229	ltpFR2	18	n/a	n/a	n/a	28	6	2	3	1
4499683	PROB	n/a	LTP229	ltpFR2	18	n/a	n/a	n/a	28	13	6	3	4
4500881	PROB	n/a	LTP229	ltpFR2	18	n/a	n/a	n/a	28	13	4	7	2
4502486	STOP	n/a	LTP229	ltpFR2	18	n/a	n/a	n/a	28	n/a	n/a	n/a	n/a
4504559	REC_START	n/a	LTP229	ltpFR2	18	19	n/a	n/a	n/a	n/a	0	0	0
4526848	REC_WORD	wordpools/wasnorm_wordpool_576.txt	LTP229	ltpFR2	18	19	SCRIBBLE	1256	n/a	n/a	0	0	0
4528865	REC_WORD	wordpools/wasnorm_wordpool_576.txt	LTP229	ltpFR2	18	19	FINGER	567	n/a	n/a	0	0	0
4530837	REC_WORD	wordpools/wasnorm_wordpool_576.txt	LTP229	ltpFR2	18	19	HANDBAG	684	n/a	n/a	0	0	0
4595206	WORD	wordpools/wasnorm_wordpool_576.txt	LTP229	ltpFR2	18	20	WASHER	1592	n/a	n/a	0	0	0
4597986	WORD	wordpools/wasnorm_wordpool_576.txt	LTP229	ltpFR2	18	20	DANDRUFF	439	n/a	n/a	0	0	0
4600448	WORD	wordpools/wasnorm_wordpool_576.txt	LTP229	ltpFR2	18	20	SCALLOP	1242	n/a	n/a	0	0	0
4602995	WORD	wordpools/wasnorm_wordpool_576.txt	LTP229	ltpFR2	18	20	DRIVER	499	n/a	n/a	0	0	0
4605440	WORD	wordpools/wasnorm_wordpool_576.txt	LTP229	ltpFR2	18	20	PACKAGE	997	n/a	n/a	0	0	0
4608236	WORD	wordpools/wasnorm_wordpool_576.txt	LTP229	ltpFR2	18	20	MESSAGE	888	n/a	n/a	0	0	0
4610950	WORD	wordpools/wasnorm_wordpool_576.txt	LTP229	ltpFR2	18	20	COCKTAIL	338	n/a	n/a	0	0	0
4613462	WORD	wordpools/wasnorm_wordpool_576.txt	LTP229	ltpFR2	18	20	FLASK	576	n/a	n/a	0	0	0
4616124	WORD	wordpools/wasnorm_wordpool_576.txt	LTP229	ltpFR2	18	20	TART	1436	n/a	n/a	0	0	0
4618755	WORD	wordpools/wasnorm_wordpool_576.txt	LTP229	ltpFR2	18	20	DENIM	446	n/a	n/a	0	0	0
4621234	WORD	wordpools/wasnorm_wordpool_576.txt	LTP229	ltpFR2	18	20	SHIRT	1287	n/a	n/a	0	0	0
4623764	WORD	wordpools/wasnorm_wordpool_576.txt	LTP229	ltpFR2	18	20	MILK	895	n/a	n/a	0	0	0
4626193	WORD	wordpools/wasnorm_wordpool_576.txt	LTP229	ltpFR2	18	20	BEEF	113	n/a	n/a	0	0	0
4628657	WORD	wordpools/wasnorm_wordpool_576.txt	LTP229	ltpFR2	18	20	QUARTER	1148	n/a	n/a	0	0	0
4631269	WORD	wordpools/wasnorm_wordpool_576.txt	LTP229	ltpFR2	18	20	FOREHEAD	592	n/a	n/a	0	0	0
4633932	WORD	wordpools/wasnorm_wordpool_576.txt	LTP229	ltpFR2	18	20	SHERIFF	1284	n/a	n/a	0	0	0
4636444	WORD	wordpools/wasnorm_wordpool_576.txt	LTP229	ltpFR2	18	20	SLIME	1327	n/a	n/a	0	0	0
4639041	WORD	wordpools/wasnorm_wordpool_576.txt	LTP229	ltpFR2	18	20	OZONE	996	n/a	n/a	0	0	0
4641604	WORD	wordpools/wasnorm_wordpool_576.txt	LTP229	ltpFR2	18	20	JUGGLER	763	n/a	n/a	0	0	0
4644117	WORD	wordpools/wasnorm_wordpool_576.txt	LTP229	ltpFR2	18	20	RECEIPT	1173	n/a	n/a	0	0	0
4646580	WORD	wordpools/wasnorm_wordpool_576.txt	LTP229	ltpFR2	18	20	HAMPER	682	n/a	n/a	0	0	0
4649192	WORD	wordpools/wasnorm_wordpool_576.txt	LTP229	ltpFR2	18	20	POLICE	1098	n/a	n/a	0	0	0
4651622	WORD	wordpools/wasnorm_wordpool_576.txt	LTP229	ltpFR2	18	20	CATTLE	261	n/a	n/a	0	0	0
4654234	WORD	wordpools/wasnorm_wordpool_576.txt	LTP229	ltpFR2	18	20	BACON	67	n/a	n/a	0	0	0
4655850	START	n/a	LTP229	ltpFR2	18	n/a	n/a	n/a	29	n/a	n/a	n/a	n/a
4656945	DISTRACTOR	n/a	LTP229	ltpFR2	18	20	n/a	n/a	n/a	n/a	0	0	0
4656948	PROB	n/a	LTP229	ltpFR2	18	n/a	n/a	n/a	29	20	8	8	4
4659028	PROB	n/a	LTP229	ltpFR2	18	n/a	n/a	n/a	29	15	3	7	5
4660225	PROB	n/a	LTP229	ltpFR2	18	n/a	n/a	n/a	29	20	7	5	8
4664236	PROB	n/a	LTP229	ltpFR2	18	n/a	n/a	n/a	29	11	4	6	1
4665518	PROB	n/a	LTP229	ltpFR2	18	n/a	n/a	n/a	29	21	6	6	9
4670144	PROB	n/a	LTP229	ltpFR2	18	n/a	n/a	n/a	29	13	1	4	8
4671576	PROB	n/a	LTP229	ltpFR2	18	n/a	n/a	n/a	29	17	8	3	6
4673123	PROB	n/a	LTP229	ltpFR2	18	n/a	n/a	n/a	29	11	7	3	1
4674204	PROB	n/a	LTP229	ltpFR2	18	n/a	n/a	n/a	29	10	2	4	4
4675836	PROB	n/a	LTP229	ltpFR2	18	n/a	n/a	n/a	29	16	2	9	5
4677750	PROB	n/a	LTP229	ltpFR2	18	n/a	n/a	n/a	29	14	4	6	4
4679118	STOP	n/a	LTP229	ltpFR2	18	n/a	n/a	n/a	29	n/a	n/a	n/a	n/a
4681628	REC_START	n/a	LTP229	ltpFR2	18	20	n/a	n/a	n/a	n/a	0	0	0
4683375	REC_WORD	wordpools/wasnorm_wordpool_576.txt	LTP229	ltpFR2	18	20	JUGGLER	763	n/a	n/a	0	0	0
4685673	REC_WORD	wordpools/wasnorm_wordpool_576.txt	LTP229	ltpFR2	18	20	POLICE	1098	n/a	n/a	0	0	0
4687949	REC_WORD	wordpools/wasnorm_wordpool_576.txt	LTP229	ltpFR2	18	20	STUDENT	1395	n/a	n/a	0	0	0
4690374	REC_WORD	wordpools/wasnorm_wordpool_576.txt	LTP229	ltpFR2	18	20	SUMMIT	1405	n/a	n/a	0	0	0
4692793	REC_WORD	wordpools/wasnorm_wordpool_576.txt	LTP229	ltpFR2	18	20	QUARTER	1148	n/a	n/a	0	0	0
4711321	REC_WORD	wordpools/wasnorm_wordpool_576.txt	LTP229	ltpFR2	18	20	ACTRESS	6	n/a	n/a	0	0	0
4715364	REC_WORD	wordpools/wasnorm_wordpool_576.txt	LTP229	ltpFR2	18	20	DENIM	446	n/a	n/a	0	0	0
4717068	REC_WORD	wordpools/wasnorm_wordpool_576.txt	LTP229	ltpFR2	18	20	SHIRT	1287	n/a	n/a	0	0	0
4718788	REC_WORD	wordpools/wasnorm_wordpool_576.txt	LTP229	ltpFR2	18	20	MILK	895	n/a	n/a	0	0	0
4720739	REC_WORD	wordpools/wasnorm_wordpool_576.txt	LTP229	ltpFR2	18	20	BEEF	113	n/a	n/a	0	0	0
4723423	REC_WORD	wordpools/wasnorm_wordpool_576.txt	LTP229	ltpFR2	18	20	GIRL	637	n/a	n/a	0	0	0
4725263	REC_WORD	wordpools/wasnorm_wordpool_576.txt	LTP229	ltpFR2	18	20	BLOUSE	139	n/a	n/a	0	0	0
4727308	REC_WORD	wordpools/wasnorm_wordpool_576.txt	LTP229	ltpFR2	18	20	SKIRT	1319	n/a	n/a	0	0	0
4772308	DISTRACTOR	n/a	LTP229	ltpFR2	18	21	n/a	n/a	n/a	n/a	0	0	0
4772308	START	n/a	LTP229	ltpFR2	18	n/a	n/a	n/a	30	n/a	n/a	n/a	n/a
4772341	PROB	n/a	LTP229	ltpFR2	18	n/a	n/a	n/a	30	11	1	8	2
4773456	PROB	n/a	LTP229	ltpFR2	18	n/a	n/a	n/a	30	17	2	7	8
4774839	PROB	n/a	LTP229	ltpFR2	18	n/a	n/a	n/a	30	16	7	1	8
4776202	PROB	n/a	LTP229	ltpFR2	18	n/a	n/a	n/a	30	15	4	5	6
4780313	PROB	n/a	LTP229	ltpFR2	18	n/a	n/a	n/a	30	13	3	5	5
4781512	PROB	n/a	LTP229	ltpFR2	18	n/a	n/a	n/a	30	15	6	7	2
4783592	PROB	n/a	LTP229	ltpFR2	18	n/a	n/a	n/a	30	12	4	7	1
4785007	PROB	n/a	LTP229	ltpFR2	18	n/a	n/a	n/a	30	11	1	3	8
4786354	PROB	n/a	LTP229	ltpFR2	18	n/a	n/a	n/a	30	26	9	8	9
4788968	PROB	n/a	LTP229	ltpFR2	18	n/a	n/a	n/a	30	17	9	2	6
4790565	PROB	n/a	LTP229	ltpFR2	18	n/a	n/a	n/a	30	14	2	3	9
4792162	PROB	n/a	LTP229	ltpFR2	18	n/a	n/a	n/a	30	13	1	6	6
4793410	PROB	n/a	LTP229	ltpFR2	18	n/a	n/a	n/a	30	7	2	3	2
4794982	STOP	n/a	LTP229	ltpFR2	18	n/a	n/a	n/a	30	n/a	n/a	n/a	n/a
4797237	WORD	wordpools/wasnorm_wordpool_576.txt	LTP229	ltpFR2	18	21	BLENDER	136	n/a	n/a	0	0	0
4799701	WORD	wordpools/wasnorm_wordpool_576.txt	LTP229	ltpFR2	18	21	OYSTER	995	n/a	n/a	0	0	0
4802147	WORD	wordpools/wasnorm_wordpool_576.txt	LTP229	ltpFR2	18	21	NAPKIN	937	n/a	n/a	0	0	0
4804827	WORD	wordpools/wasnorm_wordpool_576.txt	LTP229	ltpFR2	18	21	LACE	792	n/a	n/a	0	0	0
4807289	WORD	wordpools/wasnorm_wordpool_576.txt	LTP229	ltpFR2	18	21	HUSBAND	728	n/a	n/a	0	0	0
4810103	WORD	wordpools/wasnorm_wordpool_576.txt	LTP229	ltpFR2	18	21	BALLOON	75	n/a	n/a	0	0	0
4812882	WORD	wordpools/wasnorm_wordpool_576.txt	LTP229	ltpFR2	18	21	LETTUCE	814	n/a	n/a	0	0	0
4815344	WORD	wordpools/wasnorm_wordpool_576.txt	LTP229	ltpFR2	18	21	COUNTY	389	n/a	n/a	0	0	0
4817874	WORD	wordpools/wasnorm_wordpool_576.txt	LTP229	ltpFR2	18	21	PERCH	1048	n/a	n/a	0	0	0
4820537	WORD	wordpools/wasnorm_wordpool_576.txt	LTP229	ltpFR2	18	21	PENGUIN	1044	n/a	n/a	0	0	0
4823149	WORD	wordpools/wasnorm_wordpool_576.txt	LTP229	ltpFR2	18	21	EAGLE	512	n/a	n/a	0	0	0
4825679	WORD	wordpools/wasnorm_wordpool_576.txt	LTP229	ltpFR2	18	21	SLUG	1329	n/a	n/a	0	0	0
4828141	WORD	wordpools/wasnorm_wordpool_576.txt	LTP229	ltpFR2	18	21	TORTOISE	1486	n/a	n/a	0	0	0
4830888	WORD	wordpools/wasnorm_wordpool_576.txt	LTP229	ltpFR2	18	21	SHELF	1280	n/a	n/a	0	0	0
4833701	WORD	wordpools/wasnorm_wordpool_576.txt	LTP229	ltpFR2	18	21	SHARK	1275	n/a	n/a	0	0	0
4836429	WORD	wordpools/wasnorm_wordpool_576.txt	LTP229	ltpFR2	18	21	MUFFIN	929	n/a	n/a	0	0	0
4839158	WORD	wordpools/wasnorm_wordpool_576.txt	LTP229	ltpFR2	18	21	SMOG	1330	n/a	n/a	0	0	0
4841888	WORD	wordpools/wasnorm_wordpool_576.txt	LTP229	ltpFR2	18	21	COTTAGE	384	n/a	n/a	0	0	0
4844701	WORD	wordpools/wasnorm_wordpool_576.txt	LTP229	ltpFR2	18	21	GARLIC	624	n/a	n/a	0	0	0
4847429	WORD	wordpools/wasnorm_wordpool_576.txt	LTP229	ltpFR2	18	21	SALAD	1224	n/a	n/a	0	0	0
4850110	WORD	wordpools/wasnorm_wordpool_576.txt	LTP229	ltpFR2	18	21	DOLPHIN	483	n/a	n/a	0	0	0
4852672	WORD	wordpools/wasnorm_wordpool_576.txt	LTP229	ltpFR2	18	21	HOOK	715	n/a	n/a	0	0	0
4855367	WORD	wordpools/wasnorm_wordpool_576.txt	LTP229	ltpFR2	18	21	ELBOW	520	n/a	n/a	0	0	0
4857964	WORD	wordpools/wasnorm_wordpool_576.txt	LTP229	ltpFR2	18	21	SEAFOOD	1260	n/a	n/a	0	0	0
4859579	START	n/a	LTP229	ltpFR2	18	n/a	n/a	n/a	31	n/a	n/a	n/a	n/a
4860535	DISTRACTOR	n/a	LTP229	ltpFR2	18	21	n/a	n/a	n/a	n/a	0	0	0
4860544	PROB	n/a	LTP229	ltpFR2	18	n/a	n/a	n/a	31	13	1	5	7
4862541	PROB	n/a	LTP229	ltpFR2	18	n/a	n/a	n/a	31	13	4	3	6
4863822	PROB	n/a	LTP229	ltpFR2	18	n/a	n/a	n/a	31	16	7	8	1
4865037	PROB	n/a	LTP229	ltpFR2	18	n/a	n/a	n/a	31	18	7	6	5
4866468	PROB	n/a	LTP229	ltpFR2	18	n/a	n/a	n/a	31	13	3	1	9
4868682	PROB	n/a	LTP229	ltpFR2	18	n/a	n/a	n/a	31	14	7	6	1
4869963	PROB	n/a	LTP229	ltpFR2	18	n/a	n/a	n/a	31	20	7	6	7
4872842	PROB	n/a	LTP229	ltpFR2	18	n/a	n/a	n/a	31	15	7	9	5
4874972	PROB	n/a	LTP229	ltpFR2	18	n/a	n/a	n/a	31	22	8	6	9
4877868	PROB	n/a	LTP229	ltpFR2	18	n/a	n/a	n/a	31	18	8	4	6
4879431	PROB	n/a	LTP229	ltpFR2	18	n/a	n/a	n/a	31	8	6	1	1
4880764	PROB	n/a	LTP229	ltpFR2	18	n/a	n/a	n/a	31	22	8	9	6
4882822	STOP	n/a	LTP229	ltpFR2	18	n/a	n/a	n/a	31	n/a	n/a	n/a	n/a
4885340	REC_START	n/a	LTP229	ltpFR2	18	21	n/a	n/a	n/a	n/a	0	0	0
4886837	REC_WORD	wordpools/wasnorm_wordpool_576.txt	LTP229	ltpFR2	18	21	DOLPHIN	483	n/a	n/a	0	0	0
4888593	REC_WORD	wordpools/wasnorm_wordpool_576.txt	LTP229	ltpFR2	18	21	HOOK	715	n/a	n/a	0	0	0
4890531	REC_WORD	wordpools/wasnorm_wordpool_576.txt	LTP229	ltpFR2	18	21	SEAFOOD	1260	n/a	n/a	0	0	0
4892594	REC_WORD	wordpools/wasnorm_wordpool_576.txt	LTP229	ltpFR2	18	21	MUFFIN	929	n/a	n/a	0	0	0
4896079	REC_WORD	wordpools/wasnorm_wordpool_576.txt	LTP229	ltpFR2	18	21	OYSTER	995	n/a	n/a	0	0	0
4898314	REC_WORD	wordpools/wasnorm_wordpool_576.txt	LTP229	ltpFR2	18	21	BLENDER	136	n/a	n/a	0	0	0
4905446	REC_WORD	wordpools/wasnorm_wordpool_576.txt	LTP229	ltpFR2	18	21	SKETCH	1315	n/a	n/a	0	0	0
4907291	REC_WORD	wordpools/wasnorm_wordpool_576.txt	LTP229	ltpFR2	18	21	DRAWING	494	n/a	n/a	0	0	0
4975988	DISTRACTOR	n/a	LTP229	ltpFR2	18	22	n/a	n/a	n/a	n/a	0	0	0
4975989	START	n/a	LTP229	ltpFR2	18	n/a	n/a	n/a	32	n/a	n/a	n/a	n/a
4976022	PROB	n/a	LTP229	ltpFR2	18	n/a	n/a	n/a	32	18	5	5	8
4977169	PROB	n/a	LTP229	ltpFR2	18	n/a	n/a	n/a	32	17	3	7	7
4978501	PROB	n/a	LTP229	ltpFR2	18	n/a	n/a	n/a	32	19	8	3	8
4980482	PROB	n/a	LTP229	ltpFR2	18	n/a	n/a	n/a	32	17	1	8	8
4981846	PROB	n/a	LTP229	ltpFR2	18	n/a	n/a	n/a	32	11	3	5	3
4983326	PROB	n/a	LTP229	ltpFR2	18	n/a	n/a	n/a	32	18	9	4	7
4985340	PROB	n/a	LTP229	ltpFR2	18	n/a	n/a	n/a	32	10	3	5	2
4987038	PROB	n/a	LTP229	ltpFR2	18	n/a	n/a	n/a	32	12	2	1	9
4988586	PROB	n/a	LTP229	ltpFR2	18	n/a	n/a	n/a	32	16	2	8	6
4989884	PROB	n/a	LTP229	ltpFR2	18	n/a	n/a	n/a	32	8	2	2	4
4991731	PROB	n/a	LTP229	ltpFR2	18	n/a	n/a	n/a	32	12	2	1	9
4992946	PROB	n/a	LTP229	ltpFR2	18	n/a	n/a	n/a	32	18	4	9	5
4994511	PROB	n/a	LTP229	ltpFR2	18	n/a	n/a	n/a	32	20	9	2	9
4999988	STOP	n/a	LTP229	ltpFR2	18	n/a	n/a	n/a	32	n/a	n/a	n/a	n/a
5000984	WORD	wordpools/wasnorm_wordpool_576.txt	LTP229	ltpFR2	18	22	PLAID	1080	n/a	n/a	0	0	0
5003580	WORD	wordpools/wasnorm_wordpool_576.txt	LTP229	ltpFR2	18	22	DOUGHNUT	490	n/a	n/a	0	0	0
5006027	WORD	wordpools/wasnorm_wordpool_576.txt	LTP229	ltpFR2	18	22	BACKBONE	66	n/a	n/a	0	0	0
5008540	WORD	wordpools/wasnorm_wordpool_576.txt	LTP229	ltpFR2	18	22	STICKER	1382	n/a	n/a	0	0	0
5011003	WORD	wordpools/wasnorm_wordpool_576.txt	LTP229	ltpFR2	18	22	JELLY	755	n/a	n/a	0	0	0
5013782	WORD	wordpools/wasnorm_wordpool_576.txt	LTP229	ltpFR2	18	22	SHORTCAKE	1292	n/a	n/a	0	0	0
5016310	WORD	wordpools/wasnorm_wordpool_576.txt	LTP229	ltpFR2	18	22	STAMP	1370	n/a	n/a	0	0	0
5018924	WORD	wordpools/wasnorm_wordpool_576.txt	LTP229	ltpFR2	18	22	RAZOR	1171	n/a	n/a	0	0	0
5021637	WORD	wordpools/wasnorm_wordpool_576.txt	LTP229	ltpFR2	18	22	TUNNEL	1519	n/a	n/a	0	0	0
5024432	WORD	wordpools/wasnorm_wordpool_576.txt	LTP229	ltpFR2	18	22	SADDLE	1221	n/a	n/a	0	0	0
5027261	WORD	wordpools/wasnorm_wordpool_576.txt	LTP229	ltpFR2	18	22	GIFT	635	n/a	n/a	0	0	0
5029808	WORD	wordpools/wasnorm_wordpool_576.txt	LTP229	ltpFR2	18	22	CARROT	249	n/a	n/a	0	0	0
5032504	WORD	wordpools/wasnorm_wordpool_576.txt	LTP229	ltpFR2	18	22	COSTUME	383	n/a	n/a	0	0	0
5035067	WORD	wordpools/wasnorm_wordpool_576.txt	LTP229	ltpFR2	18	22	GRAPE	654	n/a	n/a	0	0	0
5037746	WORD	wordpools/wasnorm_wordpool_576.txt	LTP229	ltpFR2	18	22	STREAM	1392	n/a	n/a	0	0	0
5040559	WORD	wordpools/wasnorm_wordpool_576.txt	LTP229	ltpFR2	18	22	BUCKET	184	n/a	n/a	0	0	0
5043072	WORD	wordpools/wasnorm_wordpool_576.txt	LTP229	ltpFR2	18	22	DRESS	495	n/a	n/a	0	0	0
5045901	WORD	wordpools/wasnorm_wordpool_576.txt	LTP229	ltpFR2	18	22	MILDEW	893	n/a	n/a	0	0	0
5048363	WORD	wordpools/wasnorm_wordpool_576.txt	LTP229	ltpFR2	18	22	EGYPT	519	n/a	n/a	0	0	0
5050877	WORD	wordpools/wasnorm_wordpool_576.txt	LTP229	ltpFR2	18	22	MARROW	872	n/a	n/a	0	0	0
5053523	WORD	wordpools/wasnorm_wordpool_576.txt	LTP229	ltpFR2	18	22	CHAUFFEUR	283	n/a	n/a	0	0	0
5056168	WORD	wordpools/wasnorm_wordpool_576.txt	LTP229	ltpFR2	18	22	GREASE	660	n/a	n/a	0	0	0
5058615	WORD	wordpools/wasnorm_wordpool_576.txt	LTP229	ltpFR2	18	22	SIDEWALK	1303	n/a	n/a	0	0	0
5061377	WORD	wordpools/wasnorm_wordpool_576.txt	LTP229	ltpFR2	18	22	ROD	1203	n/a	n/a	0	0	0
5062992	START	n/a	LTP229	ltpFR2	18	n/a	n/a	n/a	33	n/a	n/a	n/a	n/a
5064171	DISTRACTOR	n/a	LTP229	ltpFR2	18	22	n/a	n/a	n/a	n/a	0	0	0
5064172	PROB	n/a	LTP229	ltpFR2	18	n/a	n/a	n/a	33	16	4	3	9
5065838	PROB	n/a	LTP229	ltpFR2	18	n/a	n/a	n/a	33	15	7	2	6
5068816	PROB	n/a	LTP229	ltpFR2	18	n/a	n/a	n/a	33	21	8	7	6
5070413	PROB	n/a	LTP229	ltpFR2	18	n/a	n/a	n/a	33	14	5	7	2
5071878	PROB	n/a	LTP229	ltpFR2	18	n/a	n/a	n/a	33	18	4	7	7
5073909	PROB	n/a	LTP229	ltpFR2	18	n/a	n/a	n/a	33	11	1	3	7
5075107	PROB	n/a	LTP229	ltpFR2	18	n/a	n/a	n/a	33	12	1	2	9
5076354	PROB	n/a	LTP229	ltpFR2	18	n/a	n/a	n/a	33	20	9	4	7
5078235	PROB	n/a	LTP229	ltpFR2	18	n/a	n/a	n/a	33	18	7	4	7
5079416	PROB	n/a	LTP229	ltpFR2	18	n/a	n/a	n/a	33	5	1	1	3
5080649	PROB	n/a	LTP229	ltpFR2	18	n/a	n/a	n/a	33	17	8	8	1
5082279	PROB	n/a	LTP229	ltpFR2	18	n/a	n/a	n/a	33	16	5	7	4
5084176	PROB	n/a	LTP229	ltpFR2	18	n/a	n/a	n/a	33	21	4	9	8
5086918	STOP	n/a	LTP229	ltpFR2	18	n/a	n/a	n/a	33	n/a	n/a	n/a	n/a
5088904	REC_START	n/a	LTP229	ltpFR2	18	22	n/a	n/a	n/a	n/a	0	0	0
5090360	REC_WORD	wordpools/wasnorm_wordpool_576.txt	LTP229	ltpFR2	18	22	JELLY	755	n/a	n/a	0	0	0
5091583	REC_WORD	wordpools/wasnorm_wordpool_576.txt	LTP229	ltpFR2	18	22	DOUGHNUT	490	n/a	n/a	0	0	0
5092976	REC_WORD	wordpools/wasnorm_wordpool_576.txt	LTP229	ltpFR2	18	22	BACKBONE	66	n/a	n/a	0	0	0
5094808	REC_WORD	wordpools/wasnorm_wordpool_576.txt	LTP229	ltpFR2	18	22	STICKER	1382	n/a	n/a	0	0	0
5096953	REC_WORD	wordpools/wasnorm_wordpool_576.txt	LTP229	ltpFR2	18	22	SHORTCAKE	1292	n/a	n/a	0	0	0
5098890	REC_WORD	wordpools/wasnorm_wordpool_576.txt	LTP229	ltpFR2	18	22	MILDEW	893	n/a	n/a	0	0	0
5100830	REC_WORD	wordpools/wasnorm_wordpool_576.txt	LTP229	ltpFR2	18	22	MARROW	872	n/a	n/a	0	0	0
5102759	REC_WORD	wordpools/wasnorm_wordpool_576.txt	LTP229	ltpFR2	18	22	EGYPT	519	n/a	n/a	0	0	0
5105199	REC_WORD	wordpools/wasnorm_wordpool_576.txt	LTP229	ltpFR2	18	22	GREASE	660	n/a	n/a	0	0	0
5108418	REC_WORD_VV	wordpools/wasnorm_wordpool_576.txt	LTP229	ltpFR2	18	22	<>	-1	n/a	n/a	0	0	0
5109418	REC_WORD_VV	wordpools/wasnorm_wordpool_576.txt	LTP229	ltpFR2	18	22	<>	-1	n/a	n/a	0	0	0
5179584	WORD	wordpools/wasnorm_wordpool_576.txt	LTP229	ltpFR2	18	23	FRAME	600	n/a	n/a	0	0	0
5182346	WORD	wordpools/wasnorm_wordpool_576.txt	LTP229	ltpFR2	18	23	HOOD	714	n/a	n/a	0	0	0
5185093	WORD	wordpools/wasnorm_wordpool_576.txt	LTP229	ltpFR2	18	23	KITCHEN	778	n/a	n/a	0	0	0
5187889	WORD	wordpools/wasnorm_wordpool_576.txt	LTP229	ltpFR2	18	23	APRON	35	n/a	n/a	0	0	0
5190684	WORD	wordpools/wasnorm_wordpool_576.txt	LTP229	ltpFR2	18	23	LONDON	843	n/a	n/a	0	0	0
5193313	WORD	wordpools/wasnorm_wordpool_576.txt	LTP229	ltpFR2	18	23	PUDDING	1139	n/a	n/a	0	0	0
5196110	WORD	wordpools/wasnorm_wordpool_576.txt	LTP229	ltpFR2	18	23	DONOR	485	n/a	n/a	0	0	0
5198539	WORD	wordpools/wasnorm_wordpool_576.txt	LTP229	ltpFR2	18	23	BANKER	84	n/a	n/a	0	0	0
5201184	WORD	wordpools/wasnorm_wordpool_576.txt	LTP229	ltpFR2	18	23	DAISY	435	n/a	n/a	0	0	0
5203998	WORD	wordpools/wasnorm_wordpool_576.txt	LTP229	ltpFR2	18	23	AUTHOR	61	n/a	n/a	0	0	0
5206677	WORD	wordpools/wasnorm_wordpool_576.txt	LTP229	ltpFR2	18	23	GANGSTER	620	n/a	n/a	0	0	0
5209189	WORD	wordpools/wasnorm_wordpool_576.txt	LTP229	ltpFR2	18	23	LAGOON	795	n/a	n/a	0	0	0
5211736	WORD	wordpools/wasnorm_wordpool_576.txt	LTP229	ltpFR2	18	23	BEAVER	109	n/a	n/a	0	0	0
5214516	WORD	wordpools/wasnorm_wordpool_576.txt	LTP229	ltpFR2	18	23	BINDER	127	n/a	n/a	0	0	0
5216995	WORD	wordpools/wasnorm_wordpool_576.txt	LTP229	ltpFR2	18	23	TYPIST	1532	n/a	n/a	0	0	0
5219457	WORD	wordpools/wasnorm_wordpool_576.txt	LTP229	ltpFR2	18	23	ARMY	39	n/a	n/a	0	0	0
5222187	WORD	wordpools/wasnorm_wordpool_576.txt	LTP229	ltpFR2	18	23	VALVE	1546	n/a	n/a	0	0	0
5224983	WORD	wordpools/wasnorm_wordpool_576.txt	LTP229	ltpFR2	18	23	CRUTCH	417	n/a	n/a	0	0	0
5227646	WORD	wordpools/wasnorm_wordpool_576.txt	LTP229	ltpFR2	18	23	MONSTER	912	n/a	n/a	0	0	0
5230109	WORD	wordpools/wasnorm_wordpool_576.txt	LTP229	ltpFR2	18	23	GOBLIN	645	n/a	n/a	0	0	0
5232788	WORD	wordpools/wasnorm_wordpool_576.txt	LTP229	ltpFR2	18	23	FRIEND	606	n/a	n/a	0	0	0
