onset	duration	trial_type	sample	stim_file	subject	experiment	session	trial	item_name	item_num	list	answer	test_x	test_y	test_z
238.152	n/a	SESS_START	119076	n/a	LTP290	ltpFR2	1	n/a	n/a	n/a	n/a	n/a	0	0	0
264.628	n/a	START	132314	n/a	LTP290	ltpFR2	1	n/a	n/a	n/a	-1	n/a	n/a	n/a	n/a
264.678	n/a	PROB	132339	n/a	LTP290	ltpFR2	1	n/a	n/a	n/a	-1	11	7	2	2
266.53	n/a	PROB	133265	n/a	LTP290	ltpFR2	1	n/a	n/a	n/a	-1	8	2	4	2
268.996	n/a	PROB	134498	n/a	LTP290	ltpFR2	1	n/a	n/a	n/a	-1	18	5	6	7
270.4	n/a	PROB	135200	n/a	LTP290	ltpFR2	1	n/a	n/a	n/a	-1	16	7	8	1
272.018	n/a	PROB	136009	n/a	LTP290	ltpFR2	1	n/a	n/a	n/a	-1	11	1	2	8
273.44	n/a	PROB	136720	n/a	LTP290	ltpFR2	1	n/a	n/a	n/a	-1	13	6	6	1
274.828	n/a	PROB	137414	n/a	LTP290	ltpFR2	1	n/a	n/a	n/a	-1	19	1	9	9
276.398	n/a	STOP	138199	n/a	LTP290	ltpFR2	1	n/a	n/a	n/a	-1	n/a	n/a	n/a	n/a
311.156	n/a	WORD	155578	wordpools/wasnorm_wordpool_576.txt	LTP290	ltpFR2	1	1	POLICE	1098	n/a	n/a	0	0	0
313.676	n/a	WORD	156838	wordpools/wasnorm_wordpool_576.txt	LTP290	ltpFR2	1	1	AGENT	10	n/a	n/a	0	0	0
316.336	n/a	WORD	158168	wordpools/wasnorm_wordpool_576.txt	LTP290	ltpFR2	1	1	XEROX	1628	n/a	n/a	0	0	0
319.152	n/a	WORD	159576	wordpools/wasnorm_wordpool_576.txt	LTP290	ltpFR2	1	1	COCOON	339	n/a	n/a	0	0	0
321.88	n/a	WORD	160940	wordpools/wasnorm_wordpool_576.txt	LTP290	ltpFR2	1	1	COSTUME	383	n/a	n/a	0	0	0
324.34	n/a	WORD	162170	wordpools/wasnorm_wordpool_576.txt	LTP290	ltpFR2	1	1	PASTA	1021	n/a	n/a	0	0	0
327.128	n/a	WORD	163564	wordpools/wasnorm_wordpool_576.txt	LTP290	ltpFR2	1	1	QUEEN	1149	n/a	n/a	0	0	0
329.778	n/a	WORD	164889	wordpools/wasnorm_wordpool_576.txt	LTP290	ltpFR2	1	1	PIANO	1057	n/a	n/a	0	0	0
332.52	n/a	WORD	166260	wordpools/wasnorm_wordpool_576.txt	LTP290	ltpFR2	1	1	HAMPER	682	n/a	n/a	0	0	0
335.158	n/a	WORD	167579	wordpools/wasnorm_wordpool_576.txt	LTP290	ltpFR2	1	1	FIREPLACE	570	n/a	n/a	0	0	0
337.908	n/a	WORD	168954	wordpools/wasnorm_wordpool_576.txt	LTP290	ltpFR2	1	1	FIREMAN	569	n/a	n/a	0	0	0
340.384	n/a	WORD	170192	wordpools/wasnorm_wordpool_576.txt	LTP290	ltpFR2	1	1	BANKER	84	n/a	n/a	0	0	0
342.812	n/a	WORD	171406	wordpools/wasnorm_wordpool_576.txt	LTP290	ltpFR2	1	1	MUMMY	932	n/a	n/a	0	0	0
345.282	n/a	WORD	172641	wordpools/wasnorm_wordpool_576.txt	LTP290	ltpFR2	1	1	LUGGAGE	847	n/a	n/a	0	0	0
348.03	n/a	WORD	174015	wordpools/wasnorm_wordpool_576.txt	LTP290	ltpFR2	1	1	BUGGY	188	n/a	n/a	0	0	0
350.684	n/a	WORD	175342	wordpools/wasnorm_wordpool_576.txt	LTP290	ltpFR2	1	1	BALLOON	75	n/a	n/a	0	0	0
353.216	n/a	WORD	176608	wordpools/wasnorm_wordpool_576.txt	LTP290	ltpFR2	1	1	WHISKERS	1605	n/a	n/a	0	0	0
355.738	n/a	WORD	177869	wordpools/wasnorm_wordpool_576.txt	LTP290	ltpFR2	1	1	POWDER	1117	n/a	n/a	0	0	0
358.286	n/a	WORD	179143	wordpools/wasnorm_wordpool_576.txt	LTP290	ltpFR2	1	1	DIME	466	n/a	n/a	0	0	0
360.758	n/a	WORD	180379	wordpools/wasnorm_wordpool_576.txt	LTP290	ltpFR2	1	1	CREATURE	403	n/a	n/a	0	0	0
363.334	n/a	WORD	181667	wordpools/wasnorm_wordpool_576.txt	LTP290	ltpFR2	1	1	FLOWER	584	n/a	n/a	0	0	0
365.776	n/a	WORD	182888	wordpools/wasnorm_wordpool_576.txt	LTP290	ltpFR2	1	1	BANQUET	86	n/a	n/a	0	0	0
368.208	n/a	WORD	184104	wordpools/wasnorm_wordpool_576.txt	LTP290	ltpFR2	1	1	THREAD	1460	n/a	n/a	0	0	0
371.002	n/a	WORD	185501	wordpools/wasnorm_wordpool_576.txt	LTP290	ltpFR2	1	1	GARBAGE	622	n/a	n/a	0	0	0
372.618	n/a	START	186309	n/a	LTP290	ltpFR2	1	n/a	n/a	n/a	1	n/a	n/a	n/a	n/a
373.548	n/a	DISTRACTOR	186774	n/a	LTP290	ltpFR2	1	1	n/a	n/a	n/a	n/a	0	0	0
373.56	n/a	PROB	186780	n/a	LTP290	ltpFR2	1	n/a	n/a	n/a	1	18	8	1	9
376.098	n/a	PROB	188049	n/a	LTP290	ltpFR2	1	n/a	n/a	n/a	1	9	6	2	1
377.604	n/a	PROB	188802	n/a	LTP290	ltpFR2	1	n/a	n/a	n/a	1	19	5	5	9
378.916	n/a	PROB	189458	n/a	LTP290	ltpFR2	1	n/a	n/a	n/a	1	17	1	8	8
380.438	n/a	PROB	190219	n/a	LTP290	ltpFR2	1	n/a	n/a	n/a	1	13	7	5	1
381.944	n/a	PROB	190972	n/a	LTP290	ltpFR2	1	n/a	n/a	n/a	1	10	1	7	2
384.214	n/a	PROB	192107	n/a	LTP290	ltpFR2	1	n/a	n/a	n/a	1	17	2	8	7
385.752	n/a	PROB	192876	n/a	LTP290	ltpFR2	1	n/a	n/a	n/a	1	15	8	6	1
387.542	n/a	PROB	193771	n/a	LTP290	ltpFR2	1	n/a	n/a	n/a	1	18	3	6	9
389.004	n/a	PROB	194502	n/a	LTP290	ltpFR2	1	n/a	n/a	n/a	1	24	9	8	7
391.312	n/a	PROB	195656	n/a	LTP290	ltpFR2	1	n/a	n/a	n/a	1	13	2	3	8
396.62	n/a	STOP	198310	n/a	LTP290	ltpFR2	1	n/a	n/a	n/a	1	n/a	n/a	n/a	n/a
398.452	n/a	REC_START	199226	n/a	LTP290	ltpFR2	1	1	n/a	n/a	n/a	n/a	0	0	0
400.186	n/a	REC_WORD	200093	wordpools/wasnorm_wordpool_576.txt	LTP290	ltpFR2	1	1	POLICE	1098	n/a	n/a	0	0	0
400.884	n/a	REC_WORD	200442	wordpools/wasnorm_wordpool_576.txt	LTP290	ltpFR2	1	1	AGENT	10	n/a	n/a	0	0	0
402.858	n/a	REC_WORD	201429	wordpools/wasnorm_wordpool_576.txt	LTP290	ltpFR2	1	1	COCOON	339	n/a	n/a	0	0	0
403.52	n/a	REC_WORD	201760	wordpools/wasnorm_wordpool_576.txt	LTP290	ltpFR2	1	1	COSTUME	383	n/a	n/a	0	0	0
405.446	n/a	REC_WORD	202723	wordpools/wasnorm_wordpool_576.txt	LTP290	ltpFR2	1	1	PASTA	1021	n/a	n/a	0	0	0
406.166	n/a	REC_WORD	203083	wordpools/wasnorm_wordpool_576.txt	LTP290	ltpFR2	1	1	QUEEN	1149	n/a	n/a	0	0	0
407.426	n/a	REC_WORD	203713	wordpools/wasnorm_wordpool_576.txt	LTP290	ltpFR2	1	1	PIANO	1057	n/a	n/a	0	0	0
407.912	n/a	REC_WORD	203956	wordpools/wasnorm_wordpool_576.txt	LTP290	ltpFR2	1	1	HAMPER	682	n/a	n/a	0	0	0
409.28	n/a	REC_WORD	204640	wordpools/wasnorm_wordpool_576.txt	LTP290	ltpFR2	1	1	POWDER	1117	n/a	n/a	0	0	0
409.716	n/a	REC_WORD	204858	wordpools/wasnorm_wordpool_576.txt	LTP290	ltpFR2	1	1	DIME	466	n/a	n/a	0	0	0
410.182	n/a	REC_WORD	205091	wordpools/wasnorm_wordpool_576.txt	LTP290	ltpFR2	1	1	CREATURE	403	n/a	n/a	0	0	0
410.764	n/a	REC_WORD	205382	wordpools/wasnorm_wordpool_576.txt	LTP290	ltpFR2	1	1	FLOWER	584	n/a	n/a	0	0	0
412.104	n/a	REC_WORD	206052	wordpools/wasnorm_wordpool_576.txt	LTP290	ltpFR2	1	1	BALLOON	75	n/a	n/a	0	0	0
412.528	n/a	REC_WORD	206264	wordpools/wasnorm_wordpool_576.txt	LTP290	ltpFR2	1	1	WHISKERS	1605	n/a	n/a	0	0	0
418.918	n/a	REC_WORD	209459	wordpools/wasnorm_wordpool_576.txt	LTP290	ltpFR2	1	1	FIREPLACE	570	n/a	n/a	0	0	0
419.554	n/a	REC_WORD	209777	wordpools/wasnorm_wordpool_576.txt	LTP290	ltpFR2	1	1	FIREMAN	569	n/a	n/a	0	0	0
434.708	n/a	REC_WORD	217354	wordpools/wasnorm_wordpool_576.txt	LTP290	ltpFR2	1	1	LUGGAGE	847	n/a	n/a	0	0	0
435.438	n/a	REC_WORD	217719	wordpools/wasnorm_wordpool_576.txt	LTP290	ltpFR2	1	1	BUGGY	188	n/a	n/a	0	0	0
436.778	n/a	REC_WORD	218389	wordpools/wasnorm_wordpool_576.txt	LTP290	ltpFR2	1	1	MUMMY	932	n/a	n/a	0	0	0
437.558	n/a	REC_WORD	218779	wordpools/wasnorm_wordpool_576.txt	LTP290	ltpFR2	1	1	BANKER	84	n/a	n/a	0	0	0
442.384	n/a	REC_WORD	221192	wordpools/wasnorm_wordpool_576.txt	LTP290	ltpFR2	1	1	BANQUET	86	n/a	n/a	0	0	0
442.81	n/a	REC_WORD	221405	wordpools/wasnorm_wordpool_576.txt	LTP290	ltpFR2	1	1	THREAD	1460	n/a	n/a	0	0	0
443.68	n/a	REC_WORD	221840	wordpools/wasnorm_wordpool_576.txt	LTP290	ltpFR2	1	1	GARBAGE	622	n/a	n/a	0	0	0
489.522	n/a	WORD	244761	wordpools/wasnorm_wordpool_576.txt	LTP290	ltpFR2	1	2	GRIZZLY	662	n/a	n/a	0	0	0
492.114	n/a	WORD	246057	wordpools/wasnorm_wordpool_576.txt	LTP290	ltpFR2	1	2	DRESSER	496	n/a	n/a	0	0	0
494.568	n/a	WORD	247284	wordpools/wasnorm_wordpool_576.txt	LTP290	ltpFR2	1	2	OUTFIT	988	n/a	n/a	0	0	0
497.318	n/a	WORD	248659	wordpools/wasnorm_wordpool_576.txt	LTP290	ltpFR2	1	2	TRACTOR	1493	n/a	n/a	0	0	0
499.878	n/a	WORD	249939	wordpools/wasnorm_wordpool_576.txt	LTP290	ltpFR2	1	2	SPOOL	1356	n/a	n/a	0	0	0
502.7	n/a	WORD	251350	wordpools/wasnorm_wordpool_576.txt	LTP290	ltpFR2	1	2	FARMER	553	n/a	n/a	0	0	0
505.164	n/a	WORD	252582	wordpools/wasnorm_wordpool_576.txt	LTP290	ltpFR2	1	2	ZEBRA	1635	n/a	n/a	0	0	0
507.79	n/a	WORD	253895	wordpools/wasnorm_wordpool_576.txt	LTP290	ltpFR2	1	2	PEPPER	1047	n/a	n/a	0	0	0
510.502	n/a	WORD	255251	wordpools/wasnorm_wordpool_576.txt	LTP290	ltpFR2	1	2	LIVER	833	n/a	n/a	0	0	0
513.072	n/a	WORD	256536	wordpools/wasnorm_wordpool_576.txt	LTP290	ltpFR2	1	2	LAGOON	795	n/a	n/a	0	0	0
515.856	n/a	WORD	257928	wordpools/wasnorm_wordpool_576.txt	LTP290	ltpFR2	1	2	ISLAND	745	n/a	n/a	0	0	0
518.56	n/a	WORD	259280	wordpools/wasnorm_wordpool_576.txt	LTP290	ltpFR2	1	2	BEEF	113	n/a	n/a	0	0	0
521.142	n/a	WORD	260571	wordpools/wasnorm_wordpool_576.txt	LTP290	ltpFR2	1	2	SHIRT	1287	n/a	n/a	0	0	0
523.852	n/a	WORD	261926	wordpools/wasnorm_wordpool_576.txt	LTP290	ltpFR2	1	2	SCARF	1246	n/a	n/a	0	0	0
526.446	n/a	WORD	263223	wordpools/wasnorm_wordpool_576.txt	LTP290	ltpFR2	1	2	POPCORN	1104	n/a	n/a	0	0	0
529.156	n/a	WORD	264578	wordpools/wasnorm_wordpool_576.txt	LTP290	ltpFR2	1	2	ATOM	55	n/a	n/a	0	0	0
531.598	n/a	WORD	265799	wordpools/wasnorm_wordpool_576.txt	LTP290	ltpFR2	1	2	VALLEY	1545	n/a	n/a	0	0	0
534.208	n/a	WORD	267104	wordpools/wasnorm_wordpool_576.txt	LTP290	ltpFR2	1	2	WRIST	1626	n/a	n/a	0	0	0
536.646	n/a	WORD	268323	wordpools/wasnorm_wordpool_576.txt	LTP290	ltpFR2	1	2	PORK	1108	n/a	n/a	0	0	0
539.312	n/a	WORD	269656	wordpools/wasnorm_wordpool_576.txt	LTP290	ltpFR2	1	2	LEOPARD	812	n/a	n/a	0	0	0
541.754	n/a	WORD	270877	wordpools/wasnorm_wordpool_576.txt	LTP290	ltpFR2	1	2	COD	340	n/a	n/a	0	0	0
544.18	n/a	WORD	272090	wordpools/wasnorm_wordpool_576.txt	LTP290	ltpFR2	1	2	VENUS	1557	n/a	n/a	0	0	0
546.69	n/a	WORD	273345	wordpools/wasnorm_wordpool_576.txt	LTP290	ltpFR2	1	2	FILM	565	n/a	n/a	0	0	0
549.16	n/a	WORD	274580	wordpools/wasnorm_wordpool_576.txt	LTP290	ltpFR2	1	2	OZONE	996	n/a	n/a	0	0	0
550.772	n/a	START	275386	n/a	LTP290	ltpFR2	1	n/a	n/a	n/a	2	n/a	n/a	n/a	n/a
551.62	n/a	DISTRACTOR	275810	n/a	LTP290	ltpFR2	1	2	n/a	n/a	n/a	n/a	0	0	0
551.636	n/a	PROB	275818	n/a	LTP290	ltpFR2	1	n/a	n/a	n/a	2	15	4	2	9
553.616	n/a	PROB	276808	n/a	LTP290	ltpFR2	1	n/a	n/a	n/a	2	21	7	8	6
555.584	n/a	PROB	277792	n/a	LTP290	ltpFR2	1	n/a	n/a	n/a	2	19	9	4	6
557.274	n/a	PROB	278637	n/a	LTP290	ltpFR2	1	n/a	n/a	n/a	2	13	5	6	2
558.646	n/a	PROB	279323	n/a	LTP290	ltpFR2	1	n/a	n/a	n/a	2	13	4	8	1
560.218	n/a	PROB	280109	n/a	LTP290	ltpFR2	1	n/a	n/a	n/a	2	16	7	8	1
561.824	n/a	PROB	280912	n/a	LTP290	ltpFR2	1	n/a	n/a	n/a	2	19	7	9	3
563.966	n/a	PROB	281983	n/a	LTP290	ltpFR2	1	n/a	n/a	n/a	2	16	1	9	6
565.272	n/a	PROB	282636	n/a	LTP290	ltpFR2	1	n/a	n/a	n/a	2	13	3	3	7
566.878	n/a	PROB	283439	n/a	LTP290	ltpFR2	1	n/a	n/a	n/a	2	16	5	7	4
568.518	n/a	PROB	284259	n/a	LTP290	ltpFR2	1	n/a	n/a	n/a	2	22	9	5	8
571.028	n/a	PROB	285514	n/a	LTP290	ltpFR2	1	n/a	n/a	n/a	2	18	3	7	8
572.348	n/a	PROB	286174	n/a	LTP290	ltpFR2	1	n/a	n/a	n/a	2	18	3	6	9
573.686	n/a	STOP	286843	n/a	LTP290	ltpFR2	1	n/a	n/a	n/a	2	n/a	n/a	n/a	n/a
576.654	n/a	REC_START	288327	n/a	LTP290	ltpFR2	1	2	n/a	n/a	n/a	n/a	0	0	0
579.496	n/a	REC_WORD	289748	wordpools/wasnorm_wordpool_576.txt	LTP290	ltpFR2	1	2	SPOOL	1356	n/a	n/a	0	0	0
580.238	n/a	REC_WORD	290119	wordpools/wasnorm_wordpool_576.txt	LTP290	ltpFR2	1	2	FARMER	553	n/a	n/a	0	0	0
581.024	n/a	REC_WORD	290512	wordpools/wasnorm_wordpool_576.txt	LTP290	ltpFR2	1	2	ZEBRA	1635	n/a	n/a	0	0	0
581.836	n/a	REC_WORD	290918	wordpools/wasnorm_wordpool_576.txt	LTP290	ltpFR2	1	2	PEPPER	1047	n/a	n/a	0	0	0
582.728	n/a	REC_WORD	291364	wordpools/wasnorm_wordpool_576.txt	LTP290	ltpFR2	1	2	LIVER	833	n/a	n/a	0	0	0
583.342	n/a	REC_WORD	291671	wordpools/wasnorm_wordpool_576.txt	LTP290	ltpFR2	1	2	LAGOON	795	n/a	n/a	0	0	0
584.156	n/a	REC_WORD	292078	wordpools/wasnorm_wordpool_576.txt	LTP290	ltpFR2	1	2	ISLAND	745	n/a	n/a	0	0	0
584.9	n/a	REC_WORD	292450	wordpools/wasnorm_wordpool_576.txt	LTP290	ltpFR2	1	2	BEEF	113	n/a	n/a	0	0	0
585.542	n/a	REC_WORD	292771	wordpools/wasnorm_wordpool_576.txt	LTP290	ltpFR2	1	2	SHIRT	1287	n/a	n/a	0	0	0
586.256	n/a	REC_WORD	293128	wordpools/wasnorm_wordpool_576.txt	LTP290	ltpFR2	1	2	SCARF	1246	n/a	n/a	0	0	0
589.8	n/a	REC_WORD	294900	wordpools/wasnorm_wordpool_576.txt	LTP290	ltpFR2	1	2	TRACTOR	1493	n/a	n/a	0	0	0
590.75	n/a	REC_WORD	295375	wordpools/wasnorm_wordpool_576.txt	LTP290	ltpFR2	1	2	DRESS	495	n/a	n/a	0	0	0
592.196	n/a	REC_WORD	296098	wordpools/wasnorm_wordpool_576.txt	LTP290	ltpFR2	1	2	GRIZZLY	662	n/a	n/a	0	0	0
592.854	n/a	REC_WORD	296427	wordpools/wasnorm_wordpool_576.txt	LTP290	ltpFR2	1	2	DRESSER	496	n/a	n/a	0	0	0
593.448	n/a	REC_WORD	296724	wordpools/wasnorm_wordpool_576.txt	LTP290	ltpFR2	1	2	OUTFIT	988	n/a	n/a	0	0	0
602.218	n/a	REC_WORD	301109	wordpools/wasnorm_wordpool_576.txt	LTP290	ltpFR2	1	2	WRIST	1626	n/a	n/a	0	0	0
602.744	n/a	REC_WORD	301372	wordpools/wasnorm_wordpool_576.txt	LTP290	ltpFR2	1	2	VALLEY	1545	n/a	n/a	0	0	0
618.502	n/a	REC_WORD	309251	wordpools/wasnorm_wordpool_576.txt	LTP290	ltpFR2	1	2	POPCORN	1104	n/a	n/a	0	0	0
619.186	n/a	REC_WORD	309593	wordpools/wasnorm_wordpool_576.txt	LTP290	ltpFR2	1	2	ATOM	55	n/a	n/a	0	0	0
667.702	n/a	WORD	333851	wordpools/wasnorm_wordpool_576.txt	LTP290	ltpFR2	1	3	CANYON	235	n/a	n/a	0	0	0
670.128	n/a	WORD	335064	wordpools/wasnorm_wordpool_576.txt	LTP290	ltpFR2	1	3	CELLAR	267	n/a	n/a	0	0	0
672.838	n/a	WORD	336419	wordpools/wasnorm_wordpool_576.txt	LTP290	ltpFR2	1	3	BRICK	172	n/a	n/a	0	0	0
675.292	n/a	WORD	337646	wordpools/wasnorm_wordpool_576.txt	LTP290	ltpFR2	1	3	MISTER	901	n/a	n/a	0	0	0
678.092	n/a	WORD	339046	wordpools/wasnorm_wordpool_576.txt	LTP290	ltpFR2	1	3	SHELTER	1282	n/a	n/a	0	0	0
680.668	n/a	WORD	340334	wordpools/wasnorm_wordpool_576.txt	LTP290	ltpFR2	1	3	SKILLET	1317	n/a	n/a	0	0	0
683.14	n/a	WORD	341570	wordpools/wasnorm_wordpool_576.txt	LTP290	ltpFR2	1	3	PADDLE	1000	n/a	n/a	0	0	0
685.788	n/a	WORD	342894	wordpools/wasnorm_wordpool_576.txt	LTP290	ltpFR2	1	3	CHEMIST	292	n/a	n/a	0	0	0
688.258	n/a	WORD	344129	wordpools/wasnorm_wordpool_576.txt	LTP290	ltpFR2	1	3	HOOD	714	n/a	n/a	0	0	0
690.69	n/a	WORD	345345	wordpools/wasnorm_wordpool_576.txt	LTP290	ltpFR2	1	3	COWBOY	395	n/a	n/a	0	0	0
693.416	n/a	WORD	346708	wordpools/wasnorm_wordpool_576.txt	LTP290	ltpFR2	1	3	BRACES	164	n/a	n/a	0	0	0
696.128	n/a	WORD	348064	wordpools/wasnorm_wordpool_576.txt	LTP290	ltpFR2	1	3	DORM	488	n/a	n/a	0	0	0
698.67	n/a	WORD	349335	wordpools/wasnorm_wordpool_576.txt	LTP290	ltpFR2	1	3	PLAYGROUND	1087	n/a	n/a	0	0	0
701.146	n/a	WORD	350573	wordpools/wasnorm_wordpool_576.txt	LTP290	ltpFR2	1	3	SLIDE	1326	n/a	n/a	0	0	0
703.84	n/a	WORD	351920	wordpools/wasnorm_wordpool_576.txt	LTP290	ltpFR2	1	3	TUNNEL	1519	n/a	n/a	0	0	0
706.384	n/a	WORD	353192	wordpools/wasnorm_wordpool_576.txt	LTP290	ltpFR2	1	3	LILY	821	n/a	n/a	0	0	0
709.004	n/a	WORD	354502	wordpools/wasnorm_wordpool_576.txt	LTP290	ltpFR2	1	3	PEANUT	1032	n/a	n/a	0	0	0
711.586	n/a	WORD	355793	wordpools/wasnorm_wordpool_576.txt	LTP290	ltpFR2	1	3	KNAPSACK	783	n/a	n/a	0	0	0
714.292	n/a	WORD	357146	wordpools/wasnorm_wordpool_576.txt	LTP290	ltpFR2	1	3	FUNGUS	614	n/a	n/a	0	0	0
717.058	n/a	WORD	358529	wordpools/wasnorm_wordpool_576.txt	LTP290	ltpFR2	1	3	MILDEW	893	n/a	n/a	0	0	0
719.784	n/a	WORD	359892	wordpools/wasnorm_wordpool_576.txt	LTP290	ltpFR2	1	3	DENTIST	447	n/a	n/a	0	0	0
722.412	n/a	WORD	361206	wordpools/wasnorm_wordpool_576.txt	LTP290	ltpFR2	1	3	PARENT	1013	n/a	n/a	0	0	0
725.182	n/a	WORD	362591	wordpools/wasnorm_wordpool_576.txt	LTP290	ltpFR2	1	3	HANDBAG	684	n/a	n/a	0	0	0
727.776	n/a	WORD	363888	wordpools/wasnorm_wordpool_576.txt	LTP290	ltpFR2	1	3	COBRA	336	n/a	n/a	0	0	0
729.388	n/a	START	364694	n/a	LTP290	ltpFR2	1	n/a	n/a	n/a	3	n/a	n/a	n/a	n/a
730.498	n/a	DISTRACTOR	365249	n/a	LTP290	ltpFR2	1	3	n/a	n/a	n/a	n/a	0	0	0
730.508	n/a	PROB	365254	n/a	LTP290	ltpFR2	1	n/a	n/a	n/a	3	9	2	1	6
732.562	n/a	PROB	366281	n/a	LTP290	ltpFR2	1	n/a	n/a	n/a	3	15	3	4	8
734.202	n/a	PROB	367101	n/a	LTP290	ltpFR2	1	n/a	n/a	n/a	3	21	6	9	4
735.824	n/a	PROB	367912	n/a	LTP290	ltpFR2	1	n/a	n/a	n/a	3	18	3	8	7
737.982	n/a	PROB	368991	n/a	LTP290	ltpFR2	1	n/a	n/a	n/a	3	12	3	8	1
739.694	n/a	PROB	369847	n/a	LTP290	ltpFR2	1	n/a	n/a	n/a	3	15	2	7	6
741.312	n/a	PROB	370656	n/a	LTP290	ltpFR2	1	n/a	n/a	n/a	3	14	4	6	4
743.056	n/a	PROB	371528	n/a	LTP290	ltpFR2	1	n/a	n/a	n/a	3	13	7	5	1
744.808	n/a	PROB	372404	n/a	LTP290	ltpFR2	1	n/a	n/a	n/a	3	21	4	9	9
746.264	n/a	PROB	373132	n/a	LTP290	ltpFR2	1	n/a	n/a	n/a	3	12	5	3	4
747.87	n/a	PROB	373935	n/a	LTP290	ltpFR2	1	n/a	n/a	n/a	3	16	3	8	5
749.71	n/a	PROB	374855	n/a	LTP290	ltpFR2	1	n/a	n/a	n/a	3	16	3	4	9
752.392	n/a	STOP	376196	n/a	LTP290	ltpFR2	1	n/a	n/a	n/a	3	n/a	n/a	n/a	n/a
755.182	n/a	REC_START	377591	n/a	LTP290	ltpFR2	1	3	n/a	n/a	n/a	n/a	0	0	0
757.03	n/a	REC_WORD_VV	378515	wordpools/wasnorm_wordpool_576.txt	LTP290	ltpFR2	1	3	<>	-1	n/a	n/a	0	0	0
758.762	n/a	REC_WORD	379381	wordpools/wasnorm_wordpool_576.txt	LTP290	ltpFR2	1	3	FUNGUS	614	n/a	n/a	0	0	0
759.316	n/a	REC_WORD	379658	wordpools/wasnorm_wordpool_576.txt	LTP290	ltpFR2	1	3	MILDEW	893	n/a	n/a	0	0	0
759.804	n/a	REC_WORD	379902	wordpools/wasnorm_wordpool_576.txt	LTP290	ltpFR2	1	3	DENTIST	447	n/a	n/a	0	0	0
760.688	n/a	REC_WORD	380344	wordpools/wasnorm_wordpool_576.txt	LTP290	ltpFR2	1	3	PARENT	1013	n/a	n/a	0	0	0
761.406	n/a	REC_WORD	380703	wordpools/wasnorm_wordpool_576.txt	LTP290	ltpFR2	1	3	HANDBAG	684	n/a	n/a	0	0	0
762.11	n/a	REC_WORD	381055	wordpools/wasnorm_wordpool_576.txt	LTP290	ltpFR2	1	3	COBRA	336	n/a	n/a	0	0	0
765.388	n/a	REC_WORD	382694	wordpools/wasnorm_wordpool_576.txt	LTP290	ltpFR2	1	3	TUNNEL	1519	n/a	n/a	0	0	0
765.784	n/a	REC_WORD	382892	wordpools/wasnorm_wordpool_576.txt	LTP290	ltpFR2	1	3	LILY	821	n/a	n/a	0	0	0
774.434	n/a	REC_WORD	387217	wordpools/wasnorm_wordpool_576.txt	LTP290	ltpFR2	1	3	CHEMIST	292	n/a	n/a	0	0	0
775.082	n/a	REC_WORD	387541	wordpools/wasnorm_wordpool_576.txt	LTP290	ltpFR2	1	3	HOOD	714	n/a	n/a	0	0	0
776.708	n/a	REC_WORD	388354	wordpools/wasnorm_wordpool_576.txt	LTP290	ltpFR2	1	3	COWBOY	395	n/a	n/a	0	0	0
777.314	n/a	REC_WORD	388657	wordpools/wasnorm_wordpool_576.txt	LTP290	ltpFR2	1	3	BRACES	164	n/a	n/a	0	0	0
779.284	n/a	REC_WORD	389642	wordpools/wasnorm_wordpool_576.txt	LTP290	ltpFR2	1	3	PADDLE	1000	n/a	n/a	0	0	0
779.876	n/a	REC_WORD	389938	wordpools/wasnorm_wordpool_576.txt	LTP290	ltpFR2	1	3	SKILLET	1317	n/a	n/a	0	0	0
781.21	n/a	REC_WORD	390605	wordpools/wasnorm_wordpool_576.txt	LTP290	ltpFR2	1	3	SHELTER	1282	n/a	n/a	0	0	0
783.19	n/a	REC_WORD	391595	wordpools/wasnorm_wordpool_576.txt	LTP290	ltpFR2	1	3	BRICK	172	n/a	n/a	0	0	0
783.95	n/a	REC_WORD	391975	wordpools/wasnorm_wordpool_576.txt	LTP290	ltpFR2	1	3	MISTER	901	n/a	n/a	0	0	0
786.58	n/a	REC_WORD	393290	wordpools/wasnorm_wordpool_576.txt	LTP290	ltpFR2	1	3	CANYON	235	n/a	n/a	0	0	0
787.402	n/a	REC_WORD	393701	wordpools/wasnorm_wordpool_576.txt	LTP290	ltpFR2	1	3	CELLAR	267	n/a	n/a	0	0	0
846.234	n/a	WORD	423117	wordpools/wasnorm_wordpool_576.txt	LTP290	ltpFR2	1	4	CUSTARD	429	n/a	n/a	0	0	0
848.978	n/a	WORD	424489	wordpools/wasnorm_wordpool_576.txt	LTP290	ltpFR2	1	4	MUFFIN	929	n/a	n/a	0	0	0
851.55	n/a	WORD	425775	wordpools/wasnorm_wordpool_576.txt	LTP290	ltpFR2	1	4	CARROT	249	n/a	n/a	0	0	0
854.048	n/a	WORD	427024	wordpools/wasnorm_wordpool_576.txt	LTP290	ltpFR2	1	4	SHOULDER	1294	n/a	n/a	0	0	0
856.59	n/a	WORD	428295	wordpools/wasnorm_wordpool_576.txt	LTP290	ltpFR2	1	4	HUMAN	726	n/a	n/a	0	0	0
859.194	n/a	WORD	429597	wordpools/wasnorm_wordpool_576.txt	LTP290	ltpFR2	1	4	GIRL	637	n/a	n/a	0	0	0
861.722	n/a	WORD	430861	wordpools/wasnorm_wordpool_576.txt	LTP290	ltpFR2	1	4	SEAL	1262	n/a	n/a	0	0	0
864.404	n/a	WORD	432202	wordpools/wasnorm_wordpool_576.txt	LTP290	ltpFR2	1	4	CASHEW	253	n/a	n/a	0	0	0
866.942	n/a	WORD	433471	wordpools/wasnorm_wordpool_576.txt	LTP290	ltpFR2	1	4	RADISH	1158	n/a	n/a	0	0	0
869.434	n/a	WORD	434717	wordpools/wasnorm_wordpool_576.txt	LTP290	ltpFR2	1	4	CABBAGE	210	n/a	n/a	0	0	0
872.184	n/a	WORD	436092	wordpools/wasnorm_wordpool_576.txt	LTP290	ltpFR2	1	4	SWITCH	1422	n/a	n/a	0	0	0
874.626	n/a	WORD	437313	wordpools/wasnorm_wordpool_576.txt	LTP290	ltpFR2	1	4	LETTUCE	814	n/a	n/a	0	0	0
877.304	n/a	WORD	438652	wordpools/wasnorm_wordpool_576.txt	LTP290	ltpFR2	1	4	STAKE	1368	n/a	n/a	0	0	0
879.796	n/a	WORD	439898	wordpools/wasnorm_wordpool_576.txt	LTP290	ltpFR2	1	4	DRUG	501	n/a	n/a	0	0	0
882.468	n/a	WORD	441234	wordpools/wasnorm_wordpool_576.txt	LTP290	ltpFR2	1	4	WINDOW	1611	n/a	n/a	0	0	0
884.978	n/a	WORD	442489	wordpools/wasnorm_wordpool_576.txt	LTP290	ltpFR2	1	4	VELVET	1555	n/a	n/a	0	0	0
887.676	n/a	WORD	443838	wordpools/wasnorm_wordpool_576.txt	LTP290	ltpFR2	1	4	LUMBER	848	n/a	n/a	0	0	0
890.152	n/a	WORD	445076	wordpools/wasnorm_wordpool_576.txt	LTP290	ltpFR2	1	4	LEG	809	n/a	n/a	0	0	0
892.88	n/a	WORD	446440	wordpools/wasnorm_wordpool_576.txt	LTP290	ltpFR2	1	4	FRUIT	610	n/a	n/a	0	0	0
895.356	n/a	WORD	447678	wordpools/wasnorm_wordpool_576.txt	LTP290	ltpFR2	1	4	GRAPE	654	n/a	n/a	0	0	0
897.976	n/a	WORD	448988	wordpools/wasnorm_wordpool_576.txt	LTP290	ltpFR2	1	4	KETCHUP	771	n/a	n/a	0	0	0
900.726	n/a	WORD	450363	wordpools/wasnorm_wordpool_576.txt	LTP290	ltpFR2	1	4	SANDWICH	1232	n/a	n/a	0	0	0
903.504	n/a	WORD	451752	wordpools/wasnorm_wordpool_576.txt	LTP290	ltpFR2	1	4	MARKET	871	n/a	n/a	0	0	0
906.248	n/a	WORD	453124	wordpools/wasnorm_wordpool_576.txt	LTP290	ltpFR2	1	4	SHORTCAKE	1292	n/a	n/a	0	0	0
907.866	n/a	START	453933	n/a	LTP290	ltpFR2	1	n/a	n/a	n/a	4	n/a	n/a	n/a	n/a
908.704	n/a	DISTRACTOR	454352	n/a	LTP290	ltpFR2	1	4	n/a	n/a	n/a	n/a	0	0	0
908.718	n/a	PROB	454359	n/a	LTP290	ltpFR2	1	n/a	n/a	n/a	4	21	8	9	4
911.144	n/a	PROB	455572	n/a	LTP290	ltpFR2	1	n/a	n/a	n/a	4	9	2	2	5
912.632	n/a	PROB	456316	n/a	LTP290	ltpFR2	1	n/a	n/a	n/a	4	14	2	9	3
914.39	n/a	PROB	457195	n/a	LTP290	ltpFR2	1	n/a	n/a	n/a	4	15	7	3	5
915.594	n/a	PROB	457797	n/a	LTP290	ltpFR2	1	n/a	n/a	n/a	4	14	7	3	4
916.77	n/a	PROB	458385	n/a	LTP290	ltpFR2	1	n/a	n/a	n/a	4	18	9	3	6
918.41	n/a	PROB	459205	n/a	LTP290	ltpFR2	1	n/a	n/a	n/a	4	13	6	4	3
919.65	n/a	PROB	459825	n/a	LTP290	ltpFR2	1	n/a	n/a	n/a	4	13	5	4	4
921.584	n/a	PROB	460792	n/a	LTP290	ltpFR2	1	n/a	n/a	n/a	4	11	1	2	8
923.056	n/a	PROB	461528	n/a	LTP290	ltpFR2	1	n/a	n/a	n/a	4	13	3	6	4
924.796	n/a	PROB	462398	n/a	LTP290	ltpFR2	1	n/a	n/a	n/a	4	14	5	8	1
927.044	n/a	PROB	463522	n/a	LTP290	ltpFR2	1	n/a	n/a	n/a	4	21	9	4	8
931.866	n/a	STOP	465933	n/a	LTP290	ltpFR2	1	n/a	n/a	n/a	4	n/a	n/a	n/a	n/a
933.686	n/a	REC_START	466843	n/a	LTP290	ltpFR2	1	4	n/a	n/a	n/a	n/a	0	0	0
936.064	n/a	REC_WORD	468032	wordpools/wasnorm_wordpool_576.txt	LTP290	ltpFR2	1	4	SHORTCAKE	1292	n/a	n/a	0	0	0
936.876	n/a	REC_WORD	468438	wordpools/wasnorm_wordpool_576.txt	LTP290	ltpFR2	1	4	MARKET	871	n/a	n/a	0	0	0
952.142	n/a	REC_WORD	476071	wordpools/wasnorm_wordpool_576.txt	LTP290	ltpFR2	1	4	CARROT	249	n/a	n/a	0	0	0
952.89	n/a	REC_WORD	476445	wordpools/wasnorm_wordpool_576.txt	LTP290	ltpFR2	1	4	MUFFIN	929	n/a	n/a	0	0	0
953.666	n/a	REC_WORD	476833	wordpools/wasnorm_wordpool_576.txt	LTP290	ltpFR2	1	4	CUSTARD	429	n/a	n/a	0	0	0
954.5	n/a	REC_WORD	477250	wordpools/wasnorm_wordpool_576.txt	LTP290	ltpFR2	1	4	SHOULDER	1294	n/a	n/a	0	0	0
956.362	n/a	REC_WORD	478181	wordpools/wasnorm_wordpool_576.txt	LTP290	ltpFR2	1	4	HUMAN	726	n/a	n/a	0	0	0
957.204	n/a	REC_WORD	478602	wordpools/wasnorm_wordpool_576.txt	LTP290	ltpFR2	1	4	GIRL	637	n/a	n/a	0	0	0
957.914	n/a	REC_WORD	478957	wordpools/wasnorm_wordpool_576.txt	LTP290	ltpFR2	1	4	SEAL	1262	n/a	n/a	0	0	0
958.924	n/a	REC_WORD	479462	wordpools/wasnorm_wordpool_576.txt	LTP290	ltpFR2	1	4	CASHEW	253	n/a	n/a	0	0	0
960.58	n/a	REC_WORD	480290	wordpools/wasnorm_wordpool_576.txt	LTP290	ltpFR2	1	4	RADISH	1158	n/a	n/a	0	0	0
965.448	n/a	REC_WORD	482724	wordpools/wasnorm_wordpool_576.txt	LTP290	ltpFR2	1	4	CABBAGE	210	n/a	n/a	0	0	0
966.072	n/a	REC_WORD	483036	wordpools/wasnorm_wordpool_576.txt	LTP290	ltpFR2	1	4	SWITCH	1422	n/a	n/a	0	0	0
966.97	n/a	REC_WORD	483485	wordpools/wasnorm_wordpool_576.txt	LTP290	ltpFR2	1	4	LETTUCE	814	n/a	n/a	0	0	0
967.636	n/a	REC_WORD	483818	wordpools/wasnorm_wordpool_576.txt	LTP290	ltpFR2	1	4	STAKE	1368	n/a	n/a	0	0	0
972.518	n/a	REC_WORD	486259	wordpools/wasnorm_wordpool_576.txt	LTP290	ltpFR2	1	4	DRUG	501	n/a	n/a	0	0	0
1024.734	n/a	WORD	512367	wordpools/wasnorm_wordpool_576.txt	LTP290	ltpFR2	1	5	PATIENT	1024	n/a	n/a	0	0	0
1027.426	n/a	WORD	513713	wordpools/wasnorm_wordpool_576.txt	LTP290	ltpFR2	1	5	PASTRY	1022	n/a	n/a	0	0	0
1029.964	n/a	WORD	514982	wordpools/wasnorm_wordpool_576.txt	LTP290	ltpFR2	1	5	RABBIT	1152	n/a	n/a	0	0	0
1032.446	n/a	WORD	516223	wordpools/wasnorm_wordpool_576.txt	LTP290	ltpFR2	1	5	SCALLOP	1242	n/a	n/a	0	0	0
1035.024	n/a	WORD	517512	wordpools/wasnorm_wordpool_576.txt	LTP290	ltpFR2	1	5	PIGMENT	1066	n/a	n/a	0	0	0
1037.846	n/a	WORD	518923	wordpools/wasnorm_wordpool_576.txt	LTP290	ltpFR2	1	5	DRINK	498	n/a	n/a	0	0	0
1040.41	n/a	WORD	520205	wordpools/wasnorm_wordpool_576.txt	LTP290	ltpFR2	1	5	ELBOW	520	n/a	n/a	0	0	0
1042.948	n/a	WORD	521474	wordpools/wasnorm_wordpool_576.txt	LTP290	ltpFR2	1	5	JELLY	755	n/a	n/a	0	0	0
1045.696	n/a	WORD	522848	wordpools/wasnorm_wordpool_576.txt	LTP290	ltpFR2	1	5	MAILMAN	858	n/a	n/a	0	0	0
1048.3	n/a	WORD	524150	wordpools/wasnorm_wordpool_576.txt	LTP290	ltpFR2	1	5	SEAGULL	1261	n/a	n/a	0	0	0
1050.794	n/a	WORD	525397	wordpools/wasnorm_wordpool_576.txt	LTP290	ltpFR2	1	5	SERVANT	1271	n/a	n/a	0	0	0
1053.242	n/a	WORD	526621	wordpools/wasnorm_wordpool_576.txt	LTP290	ltpFR2	1	5	LACE	792	n/a	n/a	0	0	0
1055.68	n/a	WORD	527840	wordpools/wasnorm_wordpool_576.txt	LTP290	ltpFR2	1	5	YACHT	1629	n/a	n/a	0	0	0
1058.346	n/a	WORD	529173	wordpools/wasnorm_wordpool_576.txt	LTP290	ltpFR2	1	5	HORSE	719	n/a	n/a	0	0	0
1061.09	n/a	WORD	530545	wordpools/wasnorm_wordpool_576.txt	LTP290	ltpFR2	1	5	ROOSTER	1209	n/a	n/a	0	0	0
1063.86	n/a	WORD	531930	wordpools/wasnorm_wordpool_576.txt	LTP290	ltpFR2	1	5	BREAST	171	n/a	n/a	0	0	0
1066.554	n/a	WORD	533277	wordpools/wasnorm_wordpool_576.txt	LTP290	ltpFR2	1	5	DONKEY	484	n/a	n/a	0	0	0
1069.354	n/a	WORD	534677	wordpools/wasnorm_wordpool_576.txt	LTP290	ltpFR2	1	5	TURKEY	1520	n/a	n/a	0	0	0
1071.88	n/a	WORD	535940	wordpools/wasnorm_wordpool_576.txt	LTP290	ltpFR2	1	5	WAITRESS	1581	n/a	n/a	0	0	0
1074.486	n/a	WORD	537243	wordpools/wasnorm_wordpool_576.txt	LTP290	ltpFR2	1	5	LOFT	840	n/a	n/a	0	0	0
1077.016	n/a	WORD	538508	wordpools/wasnorm_wordpool_576.txt	LTP290	ltpFR2	1	5	BADGE	68	n/a	n/a	0	0	0
1079.728	n/a	WORD	539864	wordpools/wasnorm_wordpool_576.txt	LTP290	ltpFR2	1	5	GUARD	667	n/a	n/a	0	0	0
1082.236	n/a	WORD	541118	wordpools/wasnorm_wordpool_576.txt	LTP290	ltpFR2	1	5	SERVER	1272	n/a	n/a	0	0	0
1084.69	n/a	WORD	542345	wordpools/wasnorm_wordpool_576.txt	LTP290	ltpFR2	1	5	CLAM	315	n/a	n/a	0	0	0
1086.302	n/a	START	543151	n/a	LTP290	ltpFR2	1	n/a	n/a	n/a	5	n/a	n/a	n/a	n/a
1087.236	n/a	DISTRACTOR	543618	n/a	LTP290	ltpFR2	1	5	n/a	n/a	n/a	n/a	0	0	0
1087.25	n/a	PROB	543625	n/a	LTP290	ltpFR2	1	n/a	n/a	n/a	5	16	9	1	6
1089.75	n/a	PROB	544875	n/a	LTP290	ltpFR2	1	n/a	n/a	n/a	5	11	5	1	5
1090.87	n/a	PROB	545435	n/a	LTP290	ltpFR2	1	n/a	n/a	n/a	5	18	4	5	9
1092.99	n/a	PROB	546495	n/a	LTP290	ltpFR2	1	n/a	n/a	n/a	5	13	5	1	7
1094.478	n/a	PROB	547239	n/a	LTP290	ltpFR2	1	n/a	n/a	n/a	5	14	9	2	3
1096.084	n/a	PROB	548042	n/a	LTP290	ltpFR2	1	n/a	n/a	n/a	5	10	2	3	5
1097.774	n/a	PROB	548887	n/a	LTP290	ltpFR2	1	n/a	n/a	n/a	5	13	7	3	3
1099.068	n/a	PROB	549534	n/a	LTP290	ltpFR2	1	n/a	n/a	n/a	5	16	6	3	7
1100.674	n/a	PROB	550337	n/a	LTP290	ltpFR2	1	n/a	n/a	n/a	5	18	7	2	9
1102.028	n/a	PROB	551014	n/a	LTP290	ltpFR2	1	n/a	n/a	n/a	5	16	6	6	4
1103.428	n/a	PROB	551714	n/a	LTP290	ltpFR2	1	n/a	n/a	n/a	5	19	9	4	6
1106.844	n/a	PROB	553422	n/a	LTP290	ltpFR2	1	n/a	n/a	n/a	5	9	1	2	6
1108.388	n/a	PROB	554194	n/a	LTP290	ltpFR2	1	n/a	n/a	n/a	5	13	1	6	6
1109.818	n/a	STOP	554909	n/a	LTP290	ltpFR2	1	n/a	n/a	n/a	5	n/a	n/a	n/a	n/a
1112.246	n/a	REC_START	556123	n/a	LTP290	ltpFR2	1	5	n/a	n/a	n/a	n/a	0	0	0
1115.236	n/a	REC_WORD_VV	557618	wordpools/wasnorm_wordpool_576.txt	LTP290	ltpFR2	1	5	<>	-1	n/a	n/a	0	0	0
1117.796	n/a	REC_WORD	558898	wordpools/wasnorm_wordpool_576.txt	LTP290	ltpFR2	1	5	BREAST	171	n/a	n/a	0	0	0
1118.466	n/a	REC_WORD	559233	wordpools/wasnorm_wordpool_576.txt	LTP290	ltpFR2	1	5	LACE	792	n/a	n/a	0	0	0
1119.316	n/a	REC_WORD	559658	wordpools/wasnorm_wordpool_576.txt	LTP290	ltpFR2	1	5	YACHT	1629	n/a	n/a	0	0	0
1120.154	n/a	REC_WORD	560077	wordpools/wasnorm_wordpool_576.txt	LTP290	ltpFR2	1	5	ROOSTER	1209	n/a	n/a	0	0	0
1120.996	n/a	REC_WORD	560498	wordpools/wasnorm_wordpool_576.txt	LTP290	ltpFR2	1	5	DONKEY	484	n/a	n/a	0	0	0
1203.282	n/a	WORD	601641	wordpools/wasnorm_wordpool_576.txt	LTP290	ltpFR2	1	6	AIRPORT	13	n/a	n/a	0	0	0
1205.792	n/a	WORD	602896	wordpools/wasnorm_wordpool_576.txt	LTP290	ltpFR2	1	6	TROMBONE	1508	n/a	n/a	0	0	0
1208.57	n/a	WORD	604285	wordpools/wasnorm_wordpool_576.txt	LTP290	ltpFR2	1	6	LASER	801	n/a	n/a	0	0	0
1211.062	n/a	WORD	605531	wordpools/wasnorm_wordpool_576.txt	LTP290	ltpFR2	1	6	MISSILE	900	n/a	n/a	0	0	0
1213.722	n/a	WORD	606861	wordpools/wasnorm_wordpool_576.txt	LTP290	ltpFR2	1	6	PARSLEY	1016	n/a	n/a	0	0	0
1216.164	n/a	WORD	608082	wordpools/wasnorm_wordpool_576.txt	LTP290	ltpFR2	1	6	TWISTER	1530	n/a	n/a	0	0	0
1218.892	n/a	WORD	609446	wordpools/wasnorm_wordpool_576.txt	LTP290	ltpFR2	1	6	TEMPLE	1448	n/a	n/a	0	0	0
1221.336	n/a	WORD	610668	wordpools/wasnorm_wordpool_576.txt	LTP290	ltpFR2	1	6	EGYPT	519	n/a	n/a	0	0	0
1223.822	n/a	WORD	611911	wordpools/wasnorm_wordpool_576.txt	LTP290	ltpFR2	1	6	CHAPEL	280	n/a	n/a	0	0	0
1226.588	n/a	WORD	613294	wordpools/wasnorm_wordpool_576.txt	LTP290	ltpFR2	1	6	FLASHLIGHT	575	n/a	n/a	0	0	0
1229.098	n/a	WORD	614549	wordpools/wasnorm_wordpool_576.txt	LTP290	ltpFR2	1	6	SCALPEL	1243	n/a	n/a	0	0	0
1231.786	n/a	WORD	615893	wordpools/wasnorm_wordpool_576.txt	LTP290	ltpFR2	1	6	WITNESS	1618	n/a	n/a	0	0	0
1234.212	n/a	WORD	617106	wordpools/wasnorm_wordpool_576.txt	LTP290	ltpFR2	1	6	CABIN	211	n/a	n/a	0	0	0
1236.71	n/a	WORD	618355	wordpools/wasnorm_wordpool_576.txt	LTP290	ltpFR2	1	6	IDOL	733	n/a	n/a	0	0	0
1239.238	n/a	WORD	619619	wordpools/wasnorm_wordpool_576.txt	LTP290	ltpFR2	1	6	BLADE	134	n/a	n/a	0	0	0
1241.864	n/a	WORD	620932	wordpools/wasnorm_wordpool_576.txt	LTP290	ltpFR2	1	6	SPOUSE	1358	n/a	n/a	0	0	0
1244.686	n/a	WORD	622343	wordpools/wasnorm_wordpool_576.txt	LTP290	ltpFR2	1	6	BROTHER	179	n/a	n/a	0	0	0
1247.43	n/a	WORD	623715	wordpools/wasnorm_wordpool_576.txt	LTP290	ltpFR2	1	6	DAUGHTER	442	n/a	n/a	0	0	0
1249.978	n/a	WORD	624989	wordpools/wasnorm_wordpool_576.txt	LTP290	ltpFR2	1	6	PARTNER	1017	n/a	n/a	0	0	0
1252.582	n/a	WORD	626291	wordpools/wasnorm_wordpool_576.txt	LTP290	ltpFR2	1	6	FRIEND	606	n/a	n/a	0	0	0
1255.214	n/a	WORD	627607	wordpools/wasnorm_wordpool_576.txt	LTP290	ltpFR2	1	6	MEDAL	885	n/a	n/a	0	0	0
1257.926	n/a	WORD	628963	wordpools/wasnorm_wordpool_576.txt	LTP290	ltpFR2	1	6	SAUSAGE	1238	n/a	n/a	0	0	0
1260.368	n/a	WORD	630184	wordpools/wasnorm_wordpool_576.txt	LTP290	ltpFR2	1	6	RUST	1219	n/a	n/a	0	0	0
1263.062	n/a	WORD	631531	wordpools/wasnorm_wordpool_576.txt	LTP290	ltpFR2	1	6	JURY	766	n/a	n/a	0	0	0
1264.678	n/a	START	632339	n/a	LTP290	ltpFR2	1	n/a	n/a	n/a	6	n/a	n/a	n/a	n/a
1265.51	n/a	DISTRACTOR	632755	n/a	LTP290	ltpFR2	1	6	n/a	n/a	n/a	n/a	0	0	0
1265.52	n/a	PROB	632760	n/a	LTP290	ltpFR2	1	n/a	n/a	n/a	6	15	1	6	8
1268.442	n/a	PROB	634221	n/a	LTP290	ltpFR2	1	n/a	n/a	n/a	6	13	4	3	6
1269.914	n/a	PROB	634957	n/a	LTP290	ltpFR2	1	n/a	n/a	n/a	6	6	1	1	4
1271.286	n/a	PROB	635643	n/a	LTP290	ltpFR2	1	n/a	n/a	n/a	6	8	3	1	4
1272.758	n/a	PROB	636379	n/a	LTP290	ltpFR2	1	n/a	n/a	n/a	6	22	9	9	4
1274.198	n/a	PROB	637099	n/a	LTP290	ltpFR2	1	n/a	n/a	n/a	6	11	7	1	3
1276.246	n/a	PROB	638123	n/a	LTP290	ltpFR2	1	n/a	n/a	n/a	6	17	3	8	6
1278.972	n/a	PROB	639486	n/a	LTP290	ltpFR2	1	n/a	n/a	n/a	6	11	4	3	4
1280.272	n/a	PROB	640136	n/a	LTP290	ltpFR2	1	n/a	n/a	n/a	6	10	2	6	2
1281.7	n/a	PROB	640850	n/a	LTP290	ltpFR2	1	n/a	n/a	n/a	6	14	6	2	6
1284.158	n/a	PROB	642079	n/a	LTP290	ltpFR2	1	n/a	n/a	n/a	6	10	1	6	3
1285.542	n/a	PROB	642771	n/a	LTP290	ltpFR2	1	n/a	n/a	n/a	6	5	2	2	1
1286.678	n/a	PROB	643339	n/a	LTP290	ltpFR2	1	n/a	n/a	n/a	6	8	2	2	4
1288.652	n/a	STOP	644326	n/a	LTP290	ltpFR2	1	n/a	n/a	n/a	6	n/a	n/a	n/a	n/a
1290.46	n/a	REC_START	645230	n/a	LTP290	ltpFR2	1	6	n/a	n/a	n/a	n/a	0	0	0
1339.45	n/a	REC_WORD	669725	wordpools/wasnorm_wordpool_576.txt	LTP290	ltpFR2	1	6	TEMPLE	1448	n/a	n/a	0	0	0
1339.954	n/a	REC_WORD	669977	wordpools/wasnorm_wordpool_576.txt	LTP290	ltpFR2	1	6	EGYPT	519	n/a	n/a	0	0	0
1342.972	n/a	REC_WORD	671486	wordpools/wasnorm_wordpool_576.txt	LTP290	ltpFR2	1	6	BLADE	134	n/a	n/a	0	0	0
1343.976	n/a	REC_WORD	671988	wordpools/wasnorm_wordpool_576.txt	LTP290	ltpFR2	1	6	SPOUSE	1358	n/a	n/a	0	0	0
1345.644	n/a	REC_WORD	672822	wordpools/wasnorm_wordpool_576.txt	LTP290	ltpFR2	1	6	BROTHER	179	n/a	n/a	0	0	0
1346.08	n/a	REC_WORD	673040	wordpools/wasnorm_wordpool_576.txt	LTP290	ltpFR2	1	6	DAUGHTER	442	n/a	n/a	0	0	0
1346.938	n/a	REC_WORD	673469	wordpools/wasnorm_wordpool_576.txt	LTP290	ltpFR2	1	6	PARTNER	1017	n/a	n/a	0	0	0
1350.166	n/a	REC_WORD	675083	wordpools/wasnorm_wordpool_576.txt	LTP290	ltpFR2	1	6	MEDAL	885	n/a	n/a	0	0	0
1351.978	n/a	REC_WORD	675989	wordpools/wasnorm_wordpool_576.txt	LTP290	ltpFR2	1	6	FRIEND	606	n/a	n/a	0	0	0
1361.458	n/a	REC_WORD	680729	wordpools/wasnorm_wordpool_576.txt	LTP290	ltpFR2	1	6	CABIN	211	n/a	n/a	0	0	0
1361.894	n/a	REC_WORD	680947	wordpools/wasnorm_wordpool_576.txt	LTP290	ltpFR2	1	6	IDOL	733	n/a	n/a	0	0	0
1362.582	n/a	REC_WORD	681291	wordpools/wasnorm_wordpool_576.txt	LTP290	ltpFR2	1	6	FLASHLIGHT	575	n/a	n/a	0	0	0
1364.016	n/a	REC_WORD	682008	wordpools/wasnorm_wordpool_576.txt	LTP290	ltpFR2	1	6	CHAPEL	280	n/a	n/a	0	0	0
1381.496	n/a	DISTRACTOR	690748	n/a	LTP290	ltpFR2	1	7	n/a	n/a	n/a	n/a	0	0	0
1381.498	n/a	START	690749	n/a	LTP290	ltpFR2	1	n/a	n/a	n/a	7	n/a	n/a	n/a	n/a
1381.548	n/a	PROB	690774	n/a	LTP290	ltpFR2	1	n/a	n/a	n/a	7	23	6	8	9
1387.516	n/a	PROB	693758	n/a	LTP290	ltpFR2	1	n/a	n/a	n/a	7	10	1	7	2
1388.992	n/a	PROB	694496	n/a	LTP290	ltpFR2	1	n/a	n/a	n/a	7	10	1	3	6
1390.074	n/a	PROB	695037	n/a	LTP290	ltpFR2	1	n/a	n/a	n/a	7	21	9	5	7
1391.832	n/a	PROB	695916	n/a	LTP290	ltpFR2	1	n/a	n/a	n/a	7	18	5	6	7
1393.388	n/a	PROB	696694	n/a	LTP290	ltpFR2	1	n/a	n/a	n/a	7	15	3	7	5
1394.614	n/a	PROB	697307	n/a	LTP290	ltpFR2	1	n/a	n/a	n/a	7	19	8	8	3
1396.236	n/a	PROB	698118	n/a	LTP290	ltpFR2	1	n/a	n/a	n/a	7	12	2	4	6
1397.436	n/a	PROB	698718	n/a	LTP290	ltpFR2	1	n/a	n/a	n/a	7	10	3	4	3
1399.142	n/a	PROB	699571	n/a	LTP290	ltpFR2	1	n/a	n/a	n/a	7	11	5	3	3
1401.25	n/a	PROB	700625	n/a	LTP290	ltpFR2	1	n/a	n/a	n/a	7	17	9	2	6
1403.112	n/a	PROB	701556	n/a	LTP290	ltpFR2	1	n/a	n/a	n/a	7	15	4	2	8
1404.57	n/a	STOP	702285	n/a	LTP290	ltpFR2	1	n/a	n/a	n/a	7	n/a	n/a	n/a	n/a
1406.538	n/a	WORD	703269	wordpools/wasnorm_wordpool_576.txt	LTP290	ltpFR2	1	7	ANKLE	24	n/a	n/a	0	0	0
1409.314	n/a	WORD	704657	wordpools/wasnorm_wordpool_576.txt	LTP290	ltpFR2	1	7	BASEMENT	94	n/a	n/a	0	0	0
1412.08	n/a	WORD	706040	wordpools/wasnorm_wordpool_576.txt	LTP290	ltpFR2	1	7	ROBIN	1199	n/a	n/a	0	0	0
1414.524	n/a	WORD	707262	wordpools/wasnorm_wordpool_576.txt	LTP290	ltpFR2	1	7	ANTLER	29	n/a	n/a	0	0	0
1417.262	n/a	WORD	708631	wordpools/wasnorm_wordpool_576.txt	LTP290	ltpFR2	1	7	SWAMP	1416	n/a	n/a	0	0	0
1419.704	n/a	WORD	709852	wordpools/wasnorm_wordpool_576.txt	LTP290	ltpFR2	1	7	BUBBLE	183	n/a	n/a	0	0	0
1422.152	n/a	WORD	711076	wordpools/wasnorm_wordpool_576.txt	LTP290	ltpFR2	1	7	CHIPMUNK	304	n/a	n/a	0	0	0
1424.662	n/a	WORD	712331	wordpools/wasnorm_wordpool_576.txt	LTP290	ltpFR2	1	7	GRAVEL	659	n/a	n/a	0	0	0
1427.25	n/a	WORD	713625	wordpools/wasnorm_wordpool_576.txt	LTP290	ltpFR2	1	7	NECKLACE	940	n/a	n/a	0	0	0
1429.96	n/a	WORD	714980	wordpools/wasnorm_wordpool_576.txt	LTP290	ltpFR2	1	7	PRIMATE	1123	n/a	n/a	0	0	0
1432.442	n/a	WORD	716221	wordpools/wasnorm_wordpool_576.txt	LTP290	ltpFR2	1	7	FOOT	590	n/a	n/a	0	0	0
1435.046	n/a	WORD	717523	wordpools/wasnorm_wordpool_576.txt	LTP290	ltpFR2	1	7	STAMP	1370	n/a	n/a	0	0	0
1437.722	n/a	WORD	718861	wordpools/wasnorm_wordpool_576.txt	LTP290	ltpFR2	1	7	TWIG	1527	n/a	n/a	0	0	0
1440.154	n/a	WORD	720077	wordpools/wasnorm_wordpool_576.txt	LTP290	ltpFR2	1	7	BRANCH	168	n/a	n/a	0	0	0
1442.798	n/a	WORD	721399	wordpools/wasnorm_wordpool_576.txt	LTP290	ltpFR2	1	7	CLOCK	325	n/a	n/a	0	0	0
1445.526	n/a	WORD	722763	wordpools/wasnorm_wordpool_576.txt	LTP290	ltpFR2	1	7	SALT	1229	n/a	n/a	0	0	0
1448.336	n/a	WORD	724168	wordpools/wasnorm_wordpool_576.txt	LTP290	ltpFR2	1	7	BARREL	91	n/a	n/a	0	0	0
1450.93	n/a	WORD	725465	wordpools/wasnorm_wordpool_576.txt	LTP290	ltpFR2	1	7	GLOVE	642	n/a	n/a	0	0	0
1453.656	n/a	WORD	726828	wordpools/wasnorm_wordpool_576.txt	LTP290	ltpFR2	1	7	POCKET	1093	n/a	n/a	0	0	0
1456.21	n/a	WORD	728105	wordpools/wasnorm_wordpool_576.txt	LTP290	ltpFR2	1	7	PUDDING	1139	n/a	n/a	0	0	0
1458.676	n/a	WORD	729338	wordpools/wasnorm_wordpool_576.txt	LTP290	ltpFR2	1	7	ROCKET	1202	n/a	n/a	0	0	0
1461.486	n/a	WORD	730743	wordpools/wasnorm_wordpool_576.txt	LTP290	ltpFR2	1	7	ROBOT	1200	n/a	n/a	0	0	0
1464.03	n/a	WORD	732015	wordpools/wasnorm_wordpool_576.txt	LTP290	ltpFR2	1	7	WASHER	1592	n/a	n/a	0	0	0
1466.54	n/a	WORD	733270	wordpools/wasnorm_wordpool_576.txt	LTP290	ltpFR2	1	7	COMET	353	n/a	n/a	0	0	0
1468.156	n/a	START	734078	n/a	LTP290	ltpFR2	1	n/a	n/a	n/a	8	n/a	n/a	n/a	n/a
1469.254	n/a	DISTRACTOR	734627	n/a	LTP290	ltpFR2	1	7	n/a	n/a	n/a	n/a	0	0	0
1469.266	n/a	PROB	734633	n/a	LTP290	ltpFR2	1	n/a	n/a	n/a	8	23	8	8	7
1471.072	n/a	PROB	735536	n/a	LTP290	ltpFR2	1	n/a	n/a	n/a	8	13	3	4	6
1472.93	n/a	PROB	736465	n/a	LTP290	ltpFR2	1	n/a	n/a	n/a	8	18	8	6	4
1474.496	n/a	PROB	737248	n/a	LTP290	ltpFR2	1	n/a	n/a	n/a	8	11	6	4	1
1475.64	n/a	PROB	737820	n/a	LTP290	ltpFR2	1	n/a	n/a	n/a	8	14	3	9	2
1477.09	n/a	PROB	738545	n/a	LTP290	ltpFR2	1	n/a	n/a	n/a	8	19	6	4	9
1480.638	n/a	PROB	740319	n/a	LTP290	ltpFR2	1	n/a	n/a	n/a	8	12	2	1	9
1482.216	n/a	PROB	741108	n/a	LTP290	ltpFR2	1	n/a	n/a	n/a	8	15	5	3	7
1483.582	n/a	PROB	741791	n/a	LTP290	ltpFR2	1	n/a	n/a	n/a	8	15	3	9	3
1485.456	n/a	PROB	742728	n/a	LTP290	ltpFR2	1	n/a	n/a	n/a	8	11	8	2	1
1487.63	n/a	PROB	743815	n/a	LTP290	ltpFR2	1	n/a	n/a	n/a	8	15	5	7	3
1489.136	n/a	PROB	744568	n/a	LTP290	ltpFR2	1	n/a	n/a	n/a	8	20	5	6	9
1490.918	n/a	STOP	745459	n/a	LTP290	ltpFR2	1	n/a	n/a	n/a	8	n/a	n/a	n/a	n/a
1494.028	n/a	REC_START	747014	n/a	LTP290	ltpFR2	1	7	n/a	n/a	n/a	n/a	0	0	0
1495.978	n/a	REC_WORD	747989	wordpools/wasnorm_wordpool_576.txt	LTP290	ltpFR2	1	7	ROCKET	1202	n/a	n/a	0	0	0
1496.544	n/a	REC_WORD	748272	wordpools/wasnorm_wordpool_576.txt	LTP290	ltpFR2	1	7	PUDDING	1139	n/a	n/a	0	0	0
1497.19	n/a	REC_WORD	748595	wordpools/wasnorm_wordpool_576.txt	LTP290	ltpFR2	1	7	POCKET	1093	n/a	n/a	0	0	0
1504.886	n/a	REC_WORD	752443	wordpools/wasnorm_wordpool_576.txt	LTP290	ltpFR2	1	7	STAMP	1370	n/a	n/a	0	0	0
1505.482	n/a	REC_WORD	752741	wordpools/wasnorm_wordpool_576.txt	LTP290	ltpFR2	1	7	FOOT	590	n/a	n/a	0	0	0
1506.226	n/a	REC_WORD	753113	wordpools/wasnorm_wordpool_576.txt	LTP290	ltpFR2	1	7	TWIG	1527	n/a	n/a	0	0	0
1506.992	n/a	REC_WORD	753496	wordpools/wasnorm_wordpool_576.txt	LTP290	ltpFR2	1	7	CLOCK	325	n/a	n/a	0	0	0
1507.662	n/a	REC_WORD	753831	wordpools/wasnorm_wordpool_576.txt	LTP290	ltpFR2	1	7	SALT	1229	n/a	n/a	0	0	0
1508.956	n/a	REC_WORD	754478	wordpools/wasnorm_wordpool_576.txt	LTP290	ltpFR2	1	7	PRIMATE	1123	n/a	n/a	0	0	0
1509.572	n/a	REC_WORD	754786	wordpools/wasnorm_wordpool_576.txt	LTP290	ltpFR2	1	7	NECKLACE	940	n/a	n/a	0	0	0
1511.6	n/a	REC_WORD	755800	wordpools/wasnorm_wordpool_576.txt	LTP290	ltpFR2	1	7	SWAMP	1416	n/a	n/a	0	0	0
1512.362	n/a	REC_WORD	756181	wordpools/wasnorm_wordpool_576.txt	LTP290	ltpFR2	1	7	BUBBLE	183	n/a	n/a	0	0	0
1518.506	n/a	REC_WORD	759253	wordpools/wasnorm_wordpool_576.txt	LTP290	ltpFR2	1	7	CHIPMUNK	304	n/a	n/a	0	0	0
1519.274	n/a	REC_WORD	759637	wordpools/wasnorm_wordpool_576.txt	LTP290	ltpFR2	1	7	GRAVEL	659	n/a	n/a	0	0	0
1585.092	n/a	DISTRACTOR	792546	n/a	LTP290	ltpFR2	1	8	n/a	n/a	n/a	n/a	0	0	0
1585.092	n/a	START	792546	n/a	LTP290	ltpFR2	1	n/a	n/a	n/a	9	n/a	n/a	n/a	n/a
1585.142	n/a	PROB	792571	n/a	LTP290	ltpFR2	1	n/a	n/a	n/a	9	11	3	7	1
1586.692	n/a	PROB	793346	n/a	LTP290	ltpFR2	1	n/a	n/a	n/a	9	16	6	3	7
1588.572	n/a	PROB	794286	n/a	LTP290	ltpFR2	1	n/a	n/a	n/a	9	17	1	9	7
1589.878	n/a	PROB	794939	n/a	LTP290	ltpFR2	1	n/a	n/a	n/a	9	9	2	6	1
1591.846	n/a	PROB	795923	n/a	LTP290	ltpFR2	1	n/a	n/a	n/a	9	17	6	2	9
1593.258	n/a	PROB	796629	n/a	LTP290	ltpFR2	1	n/a	n/a	n/a	9	21	8	9	4
1594.858	n/a	PROB	797429	n/a	LTP290	ltpFR2	1	n/a	n/a	n/a	9	12	2	1	9
1596.72	n/a	PROB	798360	n/a	LTP290	ltpFR2	1	n/a	n/a	n/a	9	10	5	1	4
1598.304	n/a	PROB	799152	n/a	LTP290	ltpFR2	1	n/a	n/a	n/a	9	22	9	5	8
1600.998	n/a	PROB	800499	n/a	LTP290	ltpFR2	1	n/a	n/a	n/a	9	24	8	8	8
1603.344	n/a	PROB	801672	n/a	LTP290	ltpFR2	1	n/a	n/a	n/a	9	21	7	6	8
1605.314	n/a	PROB	802657	n/a	LTP290	ltpFR2	1	n/a	n/a	n/a	9	21	5	9	7
1607.472	n/a	PROB	803736	n/a	LTP290	ltpFR2	1	n/a	n/a	n/a	9	18	5	9	4
1609.052	n/a	STOP	804526	n/a	LTP290	ltpFR2	1	n/a	n/a	n/a	9	n/a	n/a	n/a	n/a
1610.266	n/a	WORD	805133	wordpools/wasnorm_wordpool_576.txt	LTP290	ltpFR2	1	8	PASSAGE	1019	n/a	n/a	0	0	0
1612.764	n/a	WORD	806382	wordpools/wasnorm_wordpool_576.txt	LTP290	ltpFR2	1	8	FEMALE	559	n/a	n/a	0	0	0
1615.402	n/a	WORD	807701	wordpools/wasnorm_wordpool_576.txt	LTP290	ltpFR2	1	8	DRESS	495	n/a	n/a	0	0	0
1618.034	n/a	WORD	809017	wordpools/wasnorm_wordpool_576.txt	LTP290	ltpFR2	1	8	SKIRT	1319	n/a	n/a	0	0	0
1620.578	n/a	WORD	810289	wordpools/wasnorm_wordpool_576.txt	LTP290	ltpFR2	1	8	NOMAD	955	n/a	n/a	0	0	0
1623.036	n/a	WORD	811518	wordpools/wasnorm_wordpool_576.txt	LTP290	ltpFR2	1	8	LODGE	839	n/a	n/a	0	0	0
1625.546	n/a	WORD	812773	wordpools/wasnorm_wordpool_576.txt	LTP290	ltpFR2	1	8	ARM	38	n/a	n/a	0	0	0
1628.006	n/a	WORD	814003	wordpools/wasnorm_wordpool_576.txt	LTP290	ltpFR2	1	8	TRIBE	1505	n/a	n/a	0	0	0
1630.8	n/a	WORD	815400	wordpools/wasnorm_wordpool_576.txt	LTP290	ltpFR2	1	8	POSSUM	1112	n/a	n/a	0	0	0
1633.288	n/a	WORD	816644	wordpools/wasnorm_wordpool_576.txt	LTP290	ltpFR2	1	8	BINDER	127	n/a	n/a	0	0	0
1635.964	n/a	WORD	817982	wordpools/wasnorm_wordpool_576.txt	LTP290	ltpFR2	1	8	LABEL	790	n/a	n/a	0	0	0
1638.408	n/a	WORD	819204	wordpools/wasnorm_wordpool_576.txt	LTP290	ltpFR2	1	8	GRAVE	658	n/a	n/a	0	0	0
1641.19	n/a	WORD	820595	wordpools/wasnorm_wordpool_576.txt	LTP290	ltpFR2	1	8	FLAG	573	n/a	n/a	0	0	0
1643.994	n/a	WORD	821997	wordpools/wasnorm_wordpool_576.txt	LTP290	ltpFR2	1	8	TOURIST	1488	n/a	n/a	0	0	0
1646.778	n/a	WORD	823389	wordpools/wasnorm_wordpool_576.txt	LTP290	ltpFR2	1	8	SWIMMER	1420	n/a	n/a	0	0	0
1649.338	n/a	WORD	824669	wordpools/wasnorm_wordpool_576.txt	LTP290	ltpFR2	1	8	OMELET	976	n/a	n/a	0	0	0
1651.798	n/a	WORD	825899	wordpools/wasnorm_wordpool_576.txt	LTP290	ltpFR2	1	8	CASKET	255	n/a	n/a	0	0	0
1654.49	n/a	WORD	827245	wordpools/wasnorm_wordpool_576.txt	LTP290	ltpFR2	1	8	VAGRANT	1544	n/a	n/a	0	0	0
1657.084	n/a	WORD	828542	wordpools/wasnorm_wordpool_576.txt	LTP290	ltpFR2	1	8	ICING	732	n/a	n/a	0	0	0
1659.644	n/a	WORD	829822	wordpools/wasnorm_wordpool_576.txt	LTP290	ltpFR2	1	8	SHORTS	1293	n/a	n/a	0	0	0
1662.438	n/a	WORD	831219	wordpools/wasnorm_wordpool_576.txt	LTP290	ltpFR2	1	8	LAPEL	800	n/a	n/a	0	0	0
1665.242	n/a	WORD	832621	wordpools/wasnorm_wordpool_576.txt	LTP290	ltpFR2	1	8	TURNIP	1521	n/a	n/a	0	0	0
1667.96	n/a	WORD	833980	wordpools/wasnorm_wordpool_576.txt	LTP290	ltpFR2	1	8	BEAVER	109	n/a	n/a	0	0	0
1670.68	n/a	WORD	835340	wordpools/wasnorm_wordpool_576.txt	LTP290	ltpFR2	1	8	YOLK	1633	n/a	n/a	0	0	0
1672.292	n/a	START	836146	n/a	LTP290	ltpFR2	1	n/a	n/a	n/a	10	n/a	n/a	n/a	n/a
1673.154	n/a	DISTRACTOR	836577	n/a	LTP290	ltpFR2	1	8	n/a	n/a	n/a	n/a	0	0	0
1673.162	n/a	PROB	836581	n/a	LTP290	ltpFR2	1	n/a	n/a	n/a	10	19	6	8	5
1675.18	n/a	PROB	837590	n/a	LTP290	ltpFR2	1	n/a	n/a	n/a	10	13	5	2	6
1676.878	n/a	PROB	838439	n/a	LTP290	ltpFR2	1	n/a	n/a	n/a	10	24	7	8	7
1679.252	n/a	PROB	839626	n/a	LTP290	ltpFR2	1	n/a	n/a	n/a	10	12	4	7	1
1680.858	n/a	PROB	840429	n/a	LTP290	ltpFR2	1	n/a	n/a	n/a	10	18	8	9	1
1682.346	n/a	PROB	841173	n/a	LTP290	ltpFR2	1	n/a	n/a	n/a	10	14	2	5	7
1683.702	n/a	PROB	841851	n/a	LTP290	ltpFR2	1	n/a	n/a	n/a	10	19	7	3	9
1685.102	n/a	PROB	842551	n/a	LTP290	ltpFR2	1	n/a	n/a	n/a	10	18	6	6	6
1687.83	n/a	PROB	843915	n/a	LTP290	ltpFR2	1	n/a	n/a	n/a	10	18	5	7	6
1691.226	n/a	PROB	845613	n/a	LTP290	ltpFR2	1	n/a	n/a	n/a	10	15	6	4	5
1692.396	n/a	PROB	846198	n/a	LTP290	ltpFR2	1	n/a	n/a	n/a	10	22	9	6	7
1695.842	n/a	STOP	847921	n/a	LTP290	ltpFR2	1	n/a	n/a	n/a	10	n/a	n/a	n/a	n/a
1698.17	n/a	REC_START	849085	n/a	LTP290	ltpFR2	1	8	n/a	n/a	n/a	n/a	0	0	0
1698.916	n/a	REC_WORD	849458	wordpools/wasnorm_wordpool_576.txt	LTP290	ltpFR2	1	8	TURNIP	1521	n/a	n/a	0	0	0
1699.6	n/a	REC_WORD	849800	wordpools/wasnorm_wordpool_576.txt	LTP290	ltpFR2	1	8	LAPEL	800	n/a	n/a	0	0	0
1700.496	n/a	REC_WORD	850248	wordpools/wasnorm_wordpool_576.txt	LTP290	ltpFR2	1	8	BEAVER	109	n/a	n/a	0	0	0
1702.962	n/a	REC_WORD	851481	wordpools/wasnorm_wordpool_576.txt	LTP290	ltpFR2	1	8	NOMAD	955	n/a	n/a	0	0	0
1705.146	n/a	REC_WORD	852573	wordpools/wasnorm_wordpool_576.txt	LTP290	ltpFR2	1	8	VAGRANT	1544	n/a	n/a	0	0	0
1708.482	n/a	REC_WORD	854241	wordpools/wasnorm_wordpool_576.txt	LTP290	ltpFR2	1	8	PASSAGE	1019	n/a	n/a	0	0	0
1709.138	n/a	REC_WORD	854569	wordpools/wasnorm_wordpool_576.txt	LTP290	ltpFR2	1	8	FEMALE	559	n/a	n/a	0	0	0
1710.346	n/a	REC_WORD	855173	wordpools/wasnorm_wordpool_576.txt	LTP290	ltpFR2	1	8	SKIRT	1319	n/a	n/a	0	0	0
1711.564	n/a	REC_WORD	855782	wordpools/wasnorm_wordpool_576.txt	LTP290	ltpFR2	1	8	DRESS	495	n/a	n/a	0	0	0
1718.892	n/a	REC_WORD	859446	wordpools/wasnorm_wordpool_576.txt	LTP290	ltpFR2	1	8	LODGE	839	n/a	n/a	0	0	0
1774.928	n/a	REST_REWET	887464	n/a	LTP290	ltpFR2	1	8	n/a	n/a	n/a	n/a	0	0	0
2138.006	n/a	DISTRACTOR	1069003	n/a	LTP290	ltpFR2	1	9	n/a	n/a	n/a	n/a	0	0	0
2138.006	n/a	START	1069003	n/a	LTP290	ltpFR2	1	n/a	n/a	n/a	11	n/a	n/a	n/a	n/a
2138.056	n/a	PROB	1069028	n/a	LTP290	ltpFR2	1	n/a	n/a	n/a	11	26	8	8	9
2142.55	n/a	PROB	1071275	n/a	LTP290	ltpFR2	1	n/a	n/a	n/a	11	12	3	1	8
2144.91	n/a	PROB	1072455	n/a	LTP290	ltpFR2	1	n/a	n/a	n/a	11	16	8	5	3
2146.654	n/a	PROB	1073327	n/a	LTP290	ltpFR2	1	n/a	n/a	n/a	11	16	5	7	4
2148.44	n/a	PROB	1074220	n/a	LTP290	ltpFR2	1	n/a	n/a	n/a	11	9	5	2	2
2150.068	n/a	PROB	1075034	n/a	LTP290	ltpFR2	1	n/a	n/a	n/a	11	6	2	2	2
2151.252	n/a	PROB	1075626	n/a	LTP290	ltpFR2	1	n/a	n/a	n/a	11	13	7	1	5
2152.84	n/a	PROB	1076420	n/a	LTP290	ltpFR2	1	n/a	n/a	n/a	11	7	3	1	3
2154.346	n/a	PROB	1077173	n/a	LTP290	ltpFR2	1	n/a	n/a	n/a	11	19	8	3	8
2156.388	n/a	PROB	1078194	n/a	LTP290	ltpFR2	1	n/a	n/a	n/a	11	19	6	9	4
2158.478	n/a	PROB	1079239	n/a	LTP290	ltpFR2	1	n/a	n/a	n/a	11	14	2	8	4
2160.084	n/a	PROB	1080042	n/a	LTP290	ltpFR2	1	n/a	n/a	n/a	11	15	3	8	4
2161.554	n/a	STOP	1080777	n/a	LTP290	ltpFR2	1	n/a	n/a	n/a	11	n/a	n/a	n/a	n/a
2163.162	n/a	WORD	1081581	wordpools/wasnorm_wordpool_576.txt	LTP290	ltpFR2	1	9	SILK	1307	n/a	n/a	0	0	0
2165.928	n/a	WORD	1082964	wordpools/wasnorm_wordpool_576.txt	LTP290	ltpFR2	1	9	SOFTBALL	1343	n/a	n/a	0	0	0
2168.638	n/a	WORD	1084319	wordpools/wasnorm_wordpool_576.txt	LTP290	ltpFR2	1	9	CLOTHES	327	n/a	n/a	0	0	0
2171.066	n/a	WORD	1085533	wordpools/wasnorm_wordpool_576.txt	LTP290	ltpFR2	1	9	CHURCH	307	n/a	n/a	0	0	0
2173.894	n/a	WORD	1086947	wordpools/wasnorm_wordpool_576.txt	LTP290	ltpFR2	1	9	PERFUME	1049	n/a	n/a	0	0	0
2176.548	n/a	WORD	1088274	wordpools/wasnorm_wordpool_576.txt	LTP290	ltpFR2	1	9	FRAGRANCE	599	n/a	n/a	0	0	0
2179.19	n/a	WORD	1089595	wordpools/wasnorm_wordpool_576.txt	LTP290	ltpFR2	1	9	AUTHOR	61	n/a	n/a	0	0	0
2181.89	n/a	WORD	1090945	wordpools/wasnorm_wordpool_576.txt	LTP290	ltpFR2	1	9	SPIDER	1351	n/a	n/a	0	0	0
2184.56	n/a	WORD	1092280	wordpools/wasnorm_wordpool_576.txt	LTP290	ltpFR2	1	9	BISON	131	n/a	n/a	0	0	0
2187.26	n/a	WORD	1093630	wordpools/wasnorm_wordpool_576.txt	LTP290	ltpFR2	1	9	HOSTESS	723	n/a	n/a	0	0	0
2189.72	n/a	WORD	1094860	wordpools/wasnorm_wordpool_576.txt	LTP290	ltpFR2	1	9	MAILBOX	857	n/a	n/a	0	0	0
2192.476	n/a	WORD	1096238	wordpools/wasnorm_wordpool_576.txt	LTP290	ltpFR2	1	9	UNCLE	1536	n/a	n/a	0	0	0
2194.984	n/a	WORD	1097492	wordpools/wasnorm_wordpool_576.txt	LTP290	ltpFR2	1	9	CLAMP	316	n/a	n/a	0	0	0
2197.516	n/a	WORD	1098758	wordpools/wasnorm_wordpool_576.txt	LTP290	ltpFR2	1	9	RIVER	1194	n/a	n/a	0	0	0
2200.142	n/a	WORD	1100071	wordpools/wasnorm_wordpool_576.txt	LTP290	ltpFR2	1	9	STALLION	1369	n/a	n/a	0	0	0
2202.652	n/a	WORD	1101326	wordpools/wasnorm_wordpool_576.txt	LTP290	ltpFR2	1	9	WARDROBE	1587	n/a	n/a	0	0	0
2205.212	n/a	WORD	1102606	wordpools/wasnorm_wordpool_576.txt	LTP290	ltpFR2	1	9	TABLE	1426	n/a	n/a	0	0	0
2207.806	n/a	WORD	1103903	wordpools/wasnorm_wordpool_576.txt	LTP290	ltpFR2	1	9	DONOR	485	n/a	n/a	0	0	0
2210.416	n/a	WORD	1105208	wordpools/wasnorm_wordpool_576.txt	LTP290	ltpFR2	1	9	SPONGE	1355	n/a	n/a	0	0	0
2213.054	n/a	WORD	1106527	wordpools/wasnorm_wordpool_576.txt	LTP290	ltpFR2	1	9	EMPIRE	530	n/a	n/a	0	0	0
2215.87	n/a	WORD	1107935	wordpools/wasnorm_wordpool_576.txt	LTP290	ltpFR2	1	9	ASIA	46	n/a	n/a	0	0	0
2218.664	n/a	WORD	1109332	wordpools/wasnorm_wordpool_576.txt	LTP290	ltpFR2	1	9	WAITER	1580	n/a	n/a	0	0	0
2221.118	n/a	WORD	1110559	wordpools/wasnorm_wordpool_576.txt	LTP290	ltpFR2	1	9	SNACK	1331	n/a	n/a	0	0	0
2223.728	n/a	WORD	1111864	wordpools/wasnorm_wordpool_576.txt	LTP290	ltpFR2	1	9	HAND	683	n/a	n/a	0	0	0
2225.34	n/a	START	1112670	n/a	LTP290	ltpFR2	1	n/a	n/a	n/a	12	n/a	n/a	n/a	n/a
2226.526	n/a	DISTRACTOR	1113263	n/a	LTP290	ltpFR2	1	9	n/a	n/a	n/a	n/a	0	0	0
2226.538	n/a	PROB	1113269	n/a	LTP290	ltpFR2	1	n/a	n/a	n/a	12	15	5	2	8
2227.916	n/a	PROB	1113958	n/a	LTP290	ltpFR2	1	n/a	n/a	n/a	12	15	3	6	6
2230.754	n/a	PROB	1115377	n/a	LTP290	ltpFR2	1	n/a	n/a	n/a	12	13	7	5	1
2232.712	n/a	PROB	1116356	n/a	LTP290	ltpFR2	1	n/a	n/a	n/a	12	17	9	2	6
2234.2	n/a	PROB	1117100	n/a	LTP290	ltpFR2	1	n/a	n/a	n/a	12	14	4	2	8
2236.058	n/a	PROB	1118029	n/a	LTP290	ltpFR2	1	n/a	n/a	n/a	12	21	5	8	8
2237.914	n/a	PROB	1118957	n/a	LTP290	ltpFR2	1	n/a	n/a	n/a	12	19	8	8	3
2239.572	n/a	PROB	1119786	n/a	LTP290	ltpFR2	1	n/a	n/a	n/a	12	14	5	6	3
2241.026	n/a	PROB	1120513	n/a	LTP290	ltpFR2	1	n/a	n/a	n/a	12	21	7	7	7
2242.282	n/a	PROB	1121141	n/a	LTP290	ltpFR2	1	n/a	n/a	n/a	12	19	9	1	9
2245.428	n/a	PROB	1122714	n/a	LTP290	ltpFR2	1	n/a	n/a	n/a	12	18	5	6	7
2249.342	n/a	STOP	1124671	n/a	LTP290	ltpFR2	1	n/a	n/a	n/a	12	n/a	n/a	n/a	n/a
2251.24	n/a	REC_START	1125620	n/a	LTP290	ltpFR2	1	9	n/a	n/a	n/a	n/a	0	0	0
2252.93	n/a	REC_WORD	1126465	wordpools/wasnorm_wordpool_576.txt	LTP290	ltpFR2	1	9	SILK	1307	n/a	n/a	0	0	0
2253.444	n/a	REC_WORD	1126722	wordpools/wasnorm_wordpool_576.txt	LTP290	ltpFR2	1	9	SOFTBALL	1343	n/a	n/a	0	0	0
2255.796	n/a	REC_WORD	1127898	wordpools/wasnorm_wordpool_576.txt	LTP290	ltpFR2	1	9	CLOTHES	327	n/a	n/a	0	0	0
2256.6	n/a	REC_WORD	1128300	wordpools/wasnorm_wordpool_576.txt	LTP290	ltpFR2	1	9	CHURCH	307	n/a	n/a	0	0	0
2259.248	n/a	REC_WORD	1129624	wordpools/wasnorm_wordpool_576.txt	LTP290	ltpFR2	1	9	ASIA	46	n/a	n/a	0	0	0
2267.482	n/a	REC_WORD	1133741	wordpools/wasnorm_wordpool_576.txt	LTP290	ltpFR2	1	9	EUROPE	541	n/a	n/a	0	0	0
2272.684	n/a	REC_WORD	1136342	wordpools/wasnorm_wordpool_576.txt	LTP290	ltpFR2	1	9	SPIDER	1351	n/a	n/a	0	0	0
2273.356	n/a	REC_WORD	1136678	wordpools/wasnorm_wordpool_576.txt	LTP290	ltpFR2	1	9	BISON	131	n/a	n/a	0	0	0
2342.336	n/a	WORD	1171168	wordpools/wasnorm_wordpool_576.txt	LTP290	ltpFR2	1	10	MARINE	869	n/a	n/a	0	0	0
2344.914	n/a	WORD	1172457	wordpools/wasnorm_wordpool_576.txt	LTP290	ltpFR2	1	10	MARROW	872	n/a	n/a	0	0	0
2347.656	n/a	WORD	1173828	wordpools/wasnorm_wordpool_576.txt	LTP290	ltpFR2	1	10	BANK	83	n/a	n/a	0	0	0
2350.446	n/a	WORD	1175223	wordpools/wasnorm_wordpool_576.txt	LTP290	ltpFR2	1	10	CITRUS	313	n/a	n/a	0	0	0
2353.16	n/a	WORD	1176580	wordpools/wasnorm_wordpool_576.txt	LTP290	ltpFR2	1	10	CAFE	216	n/a	n/a	0	0	0
2355.654	n/a	WORD	1177827	wordpools/wasnorm_wordpool_576.txt	LTP290	ltpFR2	1	10	RATTLE	1170	n/a	n/a	0	0	0
2358.466	n/a	WORD	1179233	wordpools/wasnorm_wordpool_576.txt	LTP290	ltpFR2	1	10	PLAID	1080	n/a	n/a	0	0	0
2360.942	n/a	WORD	1180471	wordpools/wasnorm_wordpool_576.txt	LTP290	ltpFR2	1	10	TILE	1468	n/a	n/a	0	0	0
2363.562	n/a	WORD	1181781	wordpools/wasnorm_wordpool_576.txt	LTP290	ltpFR2	1	10	CEILING	265	n/a	n/a	0	0	0
2366.128	n/a	WORD	1183064	wordpools/wasnorm_wordpool_576.txt	LTP290	ltpFR2	1	10	MARSH	874	n/a	n/a	0	0	0
2368.636	n/a	WORD	1184318	wordpools/wasnorm_wordpool_576.txt	LTP290	ltpFR2	1	10	FRAME	600	n/a	n/a	0	0	0
2371.246	n/a	WORD	1185623	wordpools/wasnorm_wordpool_576.txt	LTP290	ltpFR2	1	10	PLASTER	1085	n/a	n/a	0	0	0
2373.768	n/a	WORD	1186884	wordpools/wasnorm_wordpool_576.txt	LTP290	ltpFR2	1	10	LADDER	793	n/a	n/a	0	0	0
2376.562	n/a	WORD	1188281	wordpools/wasnorm_wordpool_576.txt	LTP290	ltpFR2	1	10	ARMY	39	n/a	n/a	0	0	0
2379.16	n/a	WORD	1189580	wordpools/wasnorm_wordpool_576.txt	LTP290	ltpFR2	1	10	LIZARD	834	n/a	n/a	0	0	0
2381.604	n/a	WORD	1190802	wordpools/wasnorm_wordpool_576.txt	LTP290	ltpFR2	1	10	COFFEE	341	n/a	n/a	0	0	0
2384.18	n/a	WORD	1192090	wordpools/wasnorm_wordpool_576.txt	LTP290	ltpFR2	1	10	CUPBOARD	425	n/a	n/a	0	0	0
2386.806	n/a	WORD	1193403	wordpools/wasnorm_wordpool_576.txt	LTP290	ltpFR2	1	10	CANAL	226	n/a	n/a	0	0	0
2389.444	n/a	WORD	1194722	wordpools/wasnorm_wordpool_576.txt	LTP290	ltpFR2	1	10	CRAYON	401	n/a	n/a	0	0	0
2392.02	n/a	WORD	1196010	wordpools/wasnorm_wordpool_576.txt	LTP290	ltpFR2	1	10	CIGAR	308	n/a	n/a	0	0	0
2394.682	n/a	WORD	1197341	wordpools/wasnorm_wordpool_576.txt	LTP290	ltpFR2	1	10	LADY	794	n/a	n/a	0	0	0
2397.398	n/a	WORD	1198699	wordpools/wasnorm_wordpool_576.txt	LTP290	ltpFR2	1	10	LEADER	807	n/a	n/a	0	0	0
2400.102	n/a	WORD	1200051	wordpools/wasnorm_wordpool_576.txt	LTP290	ltpFR2	1	10	CHAUFFEUR	283	n/a	n/a	0	0	0
2402.7	n/a	WORD	1201350	wordpools/wasnorm_wordpool_576.txt	LTP290	ltpFR2	1	10	DINER	467	n/a	n/a	0	0	0
2404.318	n/a	START	1202159	n/a	LTP290	ltpFR2	1	n/a	n/a	n/a	13	n/a	n/a	n/a	n/a
2405.41	n/a	DISTRACTOR	1202705	n/a	LTP290	ltpFR2	1	10	n/a	n/a	n/a	n/a	0	0	0
2405.428	n/a	PROB	1202714	n/a	LTP290	ltpFR2	1	n/a	n/a	n/a	13	10	1	7	2
2407.898	n/a	PROB	1203949	n/a	LTP290	ltpFR2	1	n/a	n/a	n/a	13	17	7	3	7
2410.542	n/a	PROB	1205271	n/a	LTP290	ltpFR2	1	n/a	n/a	n/a	13	12	5	1	6
2412.6	n/a	PROB	1206300	n/a	LTP290	ltpFR2	1	n/a	n/a	n/a	13	12	3	4	5
2413.988	n/a	PROB	1206994	n/a	LTP290	ltpFR2	1	n/a	n/a	n/a	13	24	8	6	8
2418.17	n/a	PROB	1209085	n/a	LTP290	ltpFR2	1	n/a	n/a	n/a	13	9	3	2	4
2420.168	n/a	PROB	1210084	n/a	LTP290	ltpFR2	1	n/a	n/a	n/a	13	17	3	6	8
2422.068	n/a	PROB	1211034	n/a	LTP290	ltpFR2	1	n/a	n/a	n/a	13	12	1	5	6
2423.324	n/a	PROB	1211662	n/a	LTP290	ltpFR2	1	n/a	n/a	n/a	13	17	3	9	5
2424.862	n/a	PROB	1212431	n/a	LTP290	ltpFR2	1	n/a	n/a	n/a	13	24	8	8	7
2428.224	n/a	STOP	1214112	n/a	LTP290	ltpFR2	1	n/a	n/a	n/a	13	n/a	n/a	n/a	n/a
2430.184	n/a	REC_START	1215092	n/a	LTP290	ltpFR2	1	10	n/a	n/a	n/a	n/a	0	0	0
2505.182	n/a	REC_WORD_VV	1252591	wordpools/wasnorm_wordpool_576.txt	LTP290	ltpFR2	1	10	<>	-1	n/a	n/a	0	0	0
2521.204	n/a	DISTRACTOR	1260602	n/a	LTP290	ltpFR2	1	11	n/a	n/a	n/a	n/a	0	0	0
2521.204	n/a	START	1260602	n/a	LTP290	ltpFR2	1	n/a	n/a	n/a	14	n/a	n/a	n/a	n/a
2521.254	n/a	PROB	1260627	n/a	LTP290	ltpFR2	1	n/a	n/a	n/a	14	22	7	7	8
2525.18	n/a	PROB	1262590	n/a	LTP290	ltpFR2	1	n/a	n/a	n/a	14	16	5	6	5
2526.904	n/a	PROB	1263452	n/a	LTP290	ltpFR2	1	n/a	n/a	n/a	14	19	7	4	8
2528.258	n/a	PROB	1264129	n/a	LTP290	ltpFR2	1	n/a	n/a	n/a	14	7	4	1	2
2530.266	n/a	PROB	1265133	n/a	LTP290	ltpFR2	1	n/a	n/a	n/a	14	17	7	3	7
2531.644	n/a	PROB	1265822	n/a	LTP290	ltpFR2	1	n/a	n/a	n/a	14	17	9	7	1
2535.954	n/a	PROB	1267977	n/a	LTP290	ltpFR2	1	n/a	n/a	n/a	14	8	1	3	4
2537.432	n/a	PROB	1268716	n/a	LTP290	ltpFR2	1	n/a	n/a	n/a	14	15	8	4	3
2539.066	n/a	PROB	1269533	n/a	LTP290	ltpFR2	1	n/a	n/a	n/a	14	20	3	8	9
2545.206	n/a	STOP	1272603	n/a	LTP290	ltpFR2	1	n/a	n/a	n/a	14	n/a	n/a	n/a	n/a
2546.044	n/a	WORD	1273022	wordpools/wasnorm_wordpool_576.txt	LTP290	ltpFR2	1	11	JELLO	754	n/a	n/a	0	0	0
2548.72	n/a	WORD	1274360	wordpools/wasnorm_wordpool_576.txt	LTP290	ltpFR2	1	11	PROTON	1132	n/a	n/a	0	0	0
2551.218	n/a	WORD	1275609	wordpools/wasnorm_wordpool_576.txt	LTP290	ltpFR2	1	11	AWARD	63	n/a	n/a	0	0	0
2554.012	n/a	WORD	1277006	wordpools/wasnorm_wordpool_576.txt	LTP290	ltpFR2	1	11	QUARTER	1148	n/a	n/a	0	0	0
2556.706	n/a	WORD	1278353	wordpools/wasnorm_wordpool_576.txt	LTP290	ltpFR2	1	11	ROBBER	1197	n/a	n/a	0	0	0
2559.148	n/a	WORD	1279574	wordpools/wasnorm_wordpool_576.txt	LTP290	ltpFR2	1	11	OUTLAW	989	n/a	n/a	0	0	0
2561.842	n/a	WORD	1280921	wordpools/wasnorm_wordpool_576.txt	LTP290	ltpFR2	1	11	GARDEN	623	n/a	n/a	0	0	0
2564.336	n/a	WORD	1282168	wordpools/wasnorm_wordpool_576.txt	LTP290	ltpFR2	1	11	CRAB	397	n/a	n/a	0	0	0
2566.93	n/a	WORD	1283465	wordpools/wasnorm_wordpool_576.txt	LTP290	ltpFR2	1	11	GHETTO	633	n/a	n/a	0	0	0
2569.372	n/a	WORD	1284686	wordpools/wasnorm_wordpool_576.txt	LTP290	ltpFR2	1	11	MOTOR	922	n/a	n/a	0	0	0
2571.864	n/a	WORD	1285932	wordpools/wasnorm_wordpool_576.txt	LTP290	ltpFR2	1	11	STOMACH	1384	n/a	n/a	0	0	0
2574.468	n/a	WORD	1287234	wordpools/wasnorm_wordpool_576.txt	LTP290	ltpFR2	1	11	PLATE	1086	n/a	n/a	0	0	0
2577.016	n/a	WORD	1288508	wordpools/wasnorm_wordpool_576.txt	LTP290	ltpFR2	1	11	BULLET	194	n/a	n/a	0	0	0
2579.726	n/a	WORD	1289863	wordpools/wasnorm_wordpool_576.txt	LTP290	ltpFR2	1	11	BRANDY	169	n/a	n/a	0	0	0
2582.186	n/a	WORD	1291093	wordpools/wasnorm_wordpool_576.txt	LTP290	ltpFR2	1	11	PIMPLE	1071	n/a	n/a	0	0	0
2584.662	n/a	WORD	1292331	wordpools/wasnorm_wordpool_576.txt	LTP290	ltpFR2	1	11	EAGLE	512	n/a	n/a	0	0	0
2587.122	n/a	WORD	1293561	wordpools/wasnorm_wordpool_576.txt	LTP290	ltpFR2	1	11	TEACHER	1440	n/a	n/a	0	0	0
2589.826	n/a	WORD	1294913	wordpools/wasnorm_wordpool_576.txt	LTP290	ltpFR2	1	11	CASHIER	254	n/a	n/a	0	0	0
2592.538	n/a	WORD	1296269	wordpools/wasnorm_wordpool_576.txt	LTP290	ltpFR2	1	11	VALVE	1546	n/a	n/a	0	0	0
2595.33	n/a	WORD	1297665	wordpools/wasnorm_wordpool_576.txt	LTP290	ltpFR2	1	11	FRECKLE	602	n/a	n/a	0	0	0
2598.042	n/a	WORD	1299021	wordpools/wasnorm_wordpool_576.txt	LTP290	ltpFR2	1	11	THRONE	1461	n/a	n/a	0	0	0
2600.558	n/a	WORD	1300279	wordpools/wasnorm_wordpool_576.txt	LTP290	ltpFR2	1	11	PRINCESS	1125	n/a	n/a	0	0	0
2603.01	n/a	WORD	1301505	wordpools/wasnorm_wordpool_576.txt	LTP290	ltpFR2	1	11	PISTOL	1075	n/a	n/a	0	0	0
2605.71	n/a	WORD	1302855	wordpools/wasnorm_wordpool_576.txt	LTP290	ltpFR2	1	11	PISTON	1076	n/a	n/a	0	0	0
2607.316	n/a	START	1303658	n/a	LTP290	ltpFR2	1	n/a	n/a	n/a	15	n/a	n/a	n/a	n/a
2608.452	n/a	DISTRACTOR	1304226	n/a	LTP290	ltpFR2	1	11	n/a	n/a	n/a	n/a	0	0	0
2608.464	n/a	PROB	1304232	n/a	LTP290	ltpFR2	1	n/a	n/a	n/a	15	16	4	8	4
2610.054	n/a	PROB	1305027	n/a	LTP290	ltpFR2	1	n/a	n/a	n/a	15	11	7	1	3
2611.56	n/a	PROB	1305780	n/a	LTP290	ltpFR2	1	n/a	n/a	n/a	15	13	2	2	9
2613.416	n/a	PROB	1306708	n/a	LTP290	ltpFR2	1	n/a	n/a	n/a	15	19	5	8	6
2616.066	n/a	PROB	1308033	n/a	LTP290	ltpFR2	1	n/a	n/a	n/a	15	18	3	9	6
2617.952	n/a	PROB	1308976	n/a	LTP290	ltpFR2	1	n/a	n/a	n/a	15	10	2	2	6
2619.144	n/a	PROB	1309572	n/a	LTP290	ltpFR2	1	n/a	n/a	n/a	15	23	7	9	7
2622.72	n/a	PROB	1311360	n/a	LTP290	ltpFR2	1	n/a	n/a	n/a	15	17	4	9	4
2624.81	n/a	PROB	1312405	n/a	LTP290	ltpFR2	1	n/a	n/a	n/a	15	18	6	7	5
2626.384	n/a	PROB	1313192	n/a	LTP290	ltpFR2	1	n/a	n/a	n/a	15	12	1	6	5
2628.04	n/a	PROB	1314020	n/a	LTP290	ltpFR2	1	n/a	n/a	n/a	15	10	1	8	1
2631.316	n/a	STOP	1315658	n/a	LTP290	ltpFR2	1	n/a	n/a	n/a	15	n/a	n/a	n/a	n/a
2633.226	n/a	REC_START	1316613	n/a	LTP290	ltpFR2	1	11	n/a	n/a	n/a	n/a	0	0	0
2635.666	n/a	REC_WORD	1317833	wordpools/wasnorm_wordpool_576.txt	LTP290	ltpFR2	1	11	FRECKLE	602	n/a	n/a	0	0	0
2636.284	n/a	REC_WORD	1318142	wordpools/wasnorm_wordpool_576.txt	LTP290	ltpFR2	1	11	THRONE	1461	n/a	n/a	0	0	0
2637.344	n/a	REC_WORD	1318672	wordpools/wasnorm_wordpool_576.txt	LTP290	ltpFR2	1	11	PRINCESS	1125	n/a	n/a	0	0	0
2641.842	n/a	REC_WORD	1320921	wordpools/wasnorm_wordpool_576.txt	LTP290	ltpFR2	1	11	VALVE	1546	n/a	n/a	0	0	0
2646.496	n/a	REC_WORD	1323248	wordpools/wasnorm_wordpool_576.txt	LTP290	ltpFR2	1	11	OUTLAW	989	n/a	n/a	0	0	0
2647.402	n/a	REC_WORD	1323701	wordpools/wasnorm_wordpool_576.txt	LTP290	ltpFR2	1	11	BULLET	194	n/a	n/a	0	0	0
2647.934	n/a	REC_WORD	1323967	wordpools/wasnorm_wordpool_576.txt	LTP290	ltpFR2	1	11	PLATE	1086	n/a	n/a	0	0	0
2650.312	n/a	REC_WORD	1325156	wordpools/wasnorm_wordpool_576.txt	LTP290	ltpFR2	1	11	GARDEN	623	n/a	n/a	0	0	0
2655.29	n/a	REC_WORD	1327645	wordpools/wasnorm_wordpool_576.txt	LTP290	ltpFR2	1	11	THIEF	1456	n/a	n/a	0	0	0
2724.28	n/a	WORD	1362140	wordpools/wasnorm_wordpool_576.txt	LTP290	ltpFR2	1	12	PERMIT	1051	n/a	n/a	0	0	0
2727.034	n/a	WORD	1363517	wordpools/wasnorm_wordpool_576.txt	LTP290	ltpFR2	1	12	TOMBSTONE	1478	n/a	n/a	0	0	0
2729.512	n/a	WORD	1364756	wordpools/wasnorm_wordpool_576.txt	LTP290	ltpFR2	1	12	BLACKBOARD	133	n/a	n/a	0	0	0
2732.328	n/a	WORD	1366164	wordpools/wasnorm_wordpool_576.txt	LTP290	ltpFR2	1	12	PACKAGE	997	n/a	n/a	0	0	0
2734.966	n/a	WORD	1367483	wordpools/wasnorm_wordpool_576.txt	LTP290	ltpFR2	1	12	TORTOISE	1486	n/a	n/a	0	0	0
2737.446	n/a	WORD	1368723	wordpools/wasnorm_wordpool_576.txt	LTP290	ltpFR2	1	12	CAPTIVE	240	n/a	n/a	0	0	0
2740.124	n/a	WORD	1370062	wordpools/wasnorm_wordpool_576.txt	LTP290	ltpFR2	1	12	BRAKE	166	n/a	n/a	0	0	0
2742.712	n/a	WORD	1371356	wordpools/wasnorm_wordpool_576.txt	LTP290	ltpFR2	1	12	CROSS	413	n/a	n/a	0	0	0
2745.46	n/a	WORD	1372730	wordpools/wasnorm_wordpool_576.txt	LTP290	ltpFR2	1	12	BOARD	143	n/a	n/a	0	0	0
2747.948	n/a	WORD	1373974	wordpools/wasnorm_wordpool_576.txt	LTP290	ltpFR2	1	12	PEACH	1031	n/a	n/a	0	0	0
2750.664	n/a	WORD	1375332	wordpools/wasnorm_wordpool_576.txt	LTP290	ltpFR2	1	12	DOUGHNUT	490	n/a	n/a	0	0	0
2753.458	n/a	WORD	1376729	wordpools/wasnorm_wordpool_576.txt	LTP290	ltpFR2	1	12	CRITIC	410	n/a	n/a	0	0	0
2756.28	n/a	WORD	1378140	wordpools/wasnorm_wordpool_576.txt	LTP290	ltpFR2	1	12	CONTRACT	368	n/a	n/a	0	0	0
2759.046	n/a	WORD	1379523	wordpools/wasnorm_wordpool_576.txt	LTP290	ltpFR2	1	12	SUPPER	1411	n/a	n/a	0	0	0
2761.516	n/a	WORD	1380758	wordpools/wasnorm_wordpool_576.txt	LTP290	ltpFR2	1	12	WORKER	1621	n/a	n/a	0	0	0
2763.982	n/a	WORD	1381991	wordpools/wasnorm_wordpool_576.txt	LTP290	ltpFR2	1	12	PICTURE	1061	n/a	n/a	0	0	0
2766.81	n/a	WORD	1383405	wordpools/wasnorm_wordpool_576.txt	LTP290	ltpFR2	1	12	FOX	598	n/a	n/a	0	0	0
2769.586	n/a	WORD	1384793	wordpools/wasnorm_wordpool_576.txt	LTP290	ltpFR2	1	12	PUPPY	1144	n/a	n/a	0	0	0
2772.18	n/a	WORD	1386090	wordpools/wasnorm_wordpool_576.txt	LTP290	ltpFR2	1	12	JOURNAL	760	n/a	n/a	0	0	0
2774.706	n/a	WORD	1387353	wordpools/wasnorm_wordpool_576.txt	LTP290	ltpFR2	1	12	BACKBONE	66	n/a	n/a	0	0	0
2777.216	n/a	WORD	1388608	wordpools/wasnorm_wordpool_576.txt	LTP290	ltpFR2	1	12	SLUG	1329	n/a	n/a	0	0	0
2779.976	n/a	WORD	1389988	wordpools/wasnorm_wordpool_576.txt	LTP290	ltpFR2	1	12	CATTLE	261	n/a	n/a	0	0	0
2782.402	n/a	WORD	1391201	wordpools/wasnorm_wordpool_576.txt	LTP290	ltpFR2	1	12	OX	994	n/a	n/a	0	0	0
2784.856	n/a	WORD	1392428	wordpools/wasnorm_wordpool_576.txt	LTP290	ltpFR2	1	12	ZIPPER	1636	n/a	n/a	0	0	0
2786.468	n/a	START	1393234	n/a	LTP290	ltpFR2	1	n/a	n/a	n/a	16	n/a	n/a	n/a	n/a
2787.478	n/a	DISTRACTOR	1393739	n/a	LTP290	ltpFR2	1	12	n/a	n/a	n/a	n/a	0	0	0
2787.488	n/a	PROB	1393744	n/a	LTP290	ltpFR2	1	n/a	n/a	n/a	16	16	9	4	3
2789.692	n/a	PROB	1394846	n/a	LTP290	ltpFR2	1	n/a	n/a	n/a	16	14	5	1	8
2792.038	n/a	PROB	1396019	n/a	LTP290	ltpFR2	1	n/a	n/a	n/a	16	16	5	9	1
2793.606	n/a	PROB	1396803	n/a	LTP290	ltpFR2	1	n/a	n/a	n/a	16	15	2	6	7
2795.48	n/a	PROB	1397740	n/a	LTP290	ltpFR2	1	n/a	n/a	n/a	16	10	1	5	4
2797.94	n/a	PROB	1398970	n/a	LTP290	ltpFR2	1	n/a	n/a	n/a	16	14	9	3	2
2799.494	n/a	PROB	1399747	n/a	LTP290	ltpFR2	1	n/a	n/a	n/a	16	18	8	6	4
2801.77	n/a	PROB	1400885	n/a	LTP290	ltpFR2	1	n/a	n/a	n/a	16	14	7	3	4
2803.108	n/a	PROB	1401554	n/a	LTP290	ltpFR2	1	n/a	n/a	n/a	16	8	1	1	6
2804.648	n/a	PROB	1402324	n/a	LTP290	ltpFR2	1	n/a	n/a	n/a	16	15	2	8	5
2806.026	n/a	PROB	1403013	n/a	LTP290	ltpFR2	1	n/a	n/a	n/a	16	17	9	2	6
2807.81	n/a	PROB	1403905	n/a	LTP290	ltpFR2	1	n/a	n/a	n/a	16	15	4	6	5
2808.998	n/a	STOP	1404499	n/a	LTP290	ltpFR2	1	n/a	n/a	n/a	16	n/a	n/a	n/a	n/a
2812.412	n/a	REC_START	1406206	n/a	LTP290	ltpFR2	1	12	n/a	n/a	n/a	n/a	0	0	0
2814.328	n/a	REC_WORD	1407164	wordpools/wasnorm_wordpool_576.txt	LTP290	ltpFR2	1	12	OX	994	n/a	n/a	0	0	0
2814.744	n/a	REC_WORD	1407372	wordpools/wasnorm_wordpool_576.txt	LTP290	ltpFR2	1	12	ZIPPER	1636	n/a	n/a	0	0	0
2816.772	n/a	REC_WORD	1408386	wordpools/wasnorm_wordpool_576.txt	LTP290	ltpFR2	1	12	SLUG	1329	n/a	n/a	0	0	0
2839.826	n/a	REC_WORD	1419913	wordpools/wasnorm_wordpool_576.txt	LTP290	ltpFR2	1	12	TORTOISE	1486	n/a	n/a	0	0	0
2840.658	n/a	REC_WORD	1420329	wordpools/wasnorm_wordpool_576.txt	LTP290	ltpFR2	1	12	CAPTIVE	240	n/a	n/a	0	0	0
2846.35	n/a	REC_WORD	1423175	wordpools/wasnorm_wordpool_576.txt	LTP290	ltpFR2	1	12	PEACH	1031	n/a	n/a	0	0	0
2846.93	n/a	REC_WORD	1423465	wordpools/wasnorm_wordpool_576.txt	LTP290	ltpFR2	1	12	DOUGHNUT	490	n/a	n/a	0	0	0
2847.636	n/a	REC_WORD	1423818	wordpools/wasnorm_wordpool_576.txt	LTP290	ltpFR2	1	12	BOARD	143	n/a	n/a	0	0	0
2851.024	n/a	REC_WORD	1425512	wordpools/wasnorm_wordpool_576.txt	LTP290	ltpFR2	1	12	CRITIC	410	n/a	n/a	0	0	0
2852.054	n/a	REC_WORD	1426027	wordpools/wasnorm_wordpool_576.txt	LTP290	ltpFR2	1	12	CONTRACT	368	n/a	n/a	0	0	0
2852.83	n/a	REC_WORD	1426415	wordpools/wasnorm_wordpool_576.txt	LTP290	ltpFR2	1	12	SUPPER	1411	n/a	n/a	0	0	0
2853.654	n/a	REC_WORD	1426827	wordpools/wasnorm_wordpool_576.txt	LTP290	ltpFR2	1	12	WORKER	1621	n/a	n/a	0	0	0
2871.084	n/a	REC_WORD	1435542	wordpools/wasnorm_wordpool_576.txt	LTP290	ltpFR2	1	12	TOMBSTONE	1478	n/a	n/a	0	0	0
2872.546	n/a	REC_WORD	1436273	wordpools/wasnorm_wordpool_576.txt	LTP290	ltpFR2	1	12	PERMIT	1051	n/a	n/a	0	0	0
2874.802	n/a	REC_WORD	1437401	wordpools/wasnorm_wordpool_576.txt	LTP290	ltpFR2	1	12	BLACKBOARD	133	n/a	n/a	0	0	0
2876.404	n/a	REC_WORD	1438202	wordpools/wasnorm_wordpool_576.txt	LTP290	ltpFR2	1	12	PACKAGE	997	n/a	n/a	0	0	0
2903.482	n/a	DISTRACTOR	1451741	n/a	LTP290	ltpFR2	1	13	n/a	n/a	n/a	n/a	0	0	0
2903.482	n/a	START	1451741	n/a	LTP290	ltpFR2	1	n/a	n/a	n/a	17	n/a	n/a	n/a	n/a
2903.532	n/a	PROB	1451766	n/a	LTP290	ltpFR2	1	n/a	n/a	n/a	17	16	1	7	8
2905.65	n/a	PROB	1452825	n/a	LTP290	ltpFR2	1	n/a	n/a	n/a	17	14	2	3	9
2907.274	n/a	PROB	1453637	n/a	LTP290	ltpFR2	1	n/a	n/a	n/a	17	20	8	8	4
2908.796	n/a	PROB	1454398	n/a	LTP290	ltpFR2	1	n/a	n/a	n/a	17	16	6	2	8
2910.284	n/a	PROB	1455142	n/a	LTP290	ltpFR2	1	n/a	n/a	n/a	17	14	9	4	1
2911.812	n/a	PROB	1455906	n/a	LTP290	ltpFR2	1	n/a	n/a	n/a	17	14	5	7	1
2913.502	n/a	PROB	1456751	n/a	LTP290	ltpFR2	1	n/a	n/a	n/a	17	24	6	9	9
2918.902	n/a	PROB	1459451	n/a	LTP290	ltpFR2	1	n/a	n/a	n/a	17	11	1	7	3
2920.574	n/a	PROB	1460287	n/a	LTP290	ltpFR2	1	n/a	n/a	n/a	17	20	8	4	8
2922.254	n/a	PROB	1461127	n/a	LTP290	ltpFR2	1	n/a	n/a	n/a	17	13	7	3	3
2923.636	n/a	PROB	1461818	n/a	LTP290	ltpFR2	1	n/a	n/a	n/a	17	5	2	2	1
2925.024	n/a	PROB	1462512	n/a	LTP290	ltpFR2	1	n/a	n/a	n/a	17	17	8	7	2
2926.908	n/a	STOP	1463454	n/a	LTP290	ltpFR2	1	n/a	n/a	n/a	17	n/a	n/a	n/a	n/a
2928.376	n/a	WORD	1464188	wordpools/wasnorm_wordpool_576.txt	LTP290	ltpFR2	1	13	SIDEWALK	1303	n/a	n/a	0	0	0
2931.07	n/a	WORD	1465535	wordpools/wasnorm_wordpool_576.txt	LTP290	ltpFR2	1	13	HIKER	708	n/a	n/a	0	0	0
2933.842	n/a	WORD	1466921	wordpools/wasnorm_wordpool_576.txt	LTP290	ltpFR2	1	13	MACHINE	852	n/a	n/a	0	0	0
2936.474	n/a	WORD	1468237	wordpools/wasnorm_wordpool_576.txt	LTP290	ltpFR2	1	13	CLIMBER	323	n/a	n/a	0	0	0
2938.912	n/a	WORD	1469456	wordpools/wasnorm_wordpool_576.txt	LTP290	ltpFR2	1	13	COLONEL	348	n/a	n/a	0	0	0
2941.694	n/a	WORD	1470847	wordpools/wasnorm_wordpool_576.txt	LTP290	ltpFR2	1	13	FLEET	578	n/a	n/a	0	0	0
2944.438	n/a	WORD	1472219	wordpools/wasnorm_wordpool_576.txt	LTP290	ltpFR2	1	13	SCISSORS	1250	n/a	n/a	0	0	0
2946.892	n/a	WORD	1473446	wordpools/wasnorm_wordpool_576.txt	LTP290	ltpFR2	1	13	HOOK	715	n/a	n/a	0	0	0
2949.434	n/a	WORD	1474717	wordpools/wasnorm_wordpool_576.txt	LTP290	ltpFR2	1	13	CONCERT	360	n/a	n/a	0	0	0
2952.128	n/a	WORD	1476064	wordpools/wasnorm_wordpool_576.txt	LTP290	ltpFR2	1	13	OINTMENT	974	n/a	n/a	0	0	0
2954.778	n/a	WORD	1477389	wordpools/wasnorm_wordpool_576.txt	LTP290	ltpFR2	1	13	EYELASH	546	n/a	n/a	0	0	0
2957.27	n/a	WORD	1478635	wordpools/wasnorm_wordpool_576.txt	LTP290	ltpFR2	1	13	WORLD	1622	n/a	n/a	0	0	0
2959.764	n/a	WORD	1479882	wordpools/wasnorm_wordpool_576.txt	LTP290	ltpFR2	1	13	DRAWING	494	n/a	n/a	0	0	0
2962.568	n/a	WORD	1481284	wordpools/wasnorm_wordpool_576.txt	LTP290	ltpFR2	1	13	CONVICT	371	n/a	n/a	0	0	0
2965.212	n/a	WORD	1482606	wordpools/wasnorm_wordpool_576.txt	LTP290	ltpFR2	1	13	VICTIM	1562	n/a	n/a	0	0	0
2967.844	n/a	WORD	1483922	wordpools/wasnorm_wordpool_576.txt	LTP290	ltpFR2	1	13	STOVE	1388	n/a	n/a	0	0	0
2970.432	n/a	WORD	1485216	wordpools/wasnorm_wordpool_576.txt	LTP290	ltpFR2	1	13	BEAST	108	n/a	n/a	0	0	0
2972.908	n/a	WORD	1486454	wordpools/wasnorm_wordpool_576.txt	LTP290	ltpFR2	1	13	HEADBAND	696	n/a	n/a	0	0	0
2975.724	n/a	WORD	1487862	wordpools/wasnorm_wordpool_576.txt	LTP290	ltpFR2	1	13	SCULPTURE	1258	n/a	n/a	0	0	0
2978.334	n/a	WORD	1489167	wordpools/wasnorm_wordpool_576.txt	LTP290	ltpFR2	1	13	BABY	64	n/a	n/a	0	0	0
2981.022	n/a	WORD	1490511	wordpools/wasnorm_wordpool_576.txt	LTP290	ltpFR2	1	13	REBEL	1172	n/a	n/a	0	0	0
2983.754	n/a	WORD	1491877	wordpools/wasnorm_wordpool_576.txt	LTP290	ltpFR2	1	13	BLENDER	136	n/a	n/a	0	0	0
2986.248	n/a	WORD	1493124	wordpools/wasnorm_wordpool_576.txt	LTP290	ltpFR2	1	13	ORCHID	982	n/a	n/a	0	0	0
2988.674	n/a	WORD	1494337	wordpools/wasnorm_wordpool_576.txt	LTP290	ltpFR2	1	13	RAZOR	1171	n/a	n/a	0	0	0
2990.29	n/a	START	1495145	n/a	LTP290	ltpFR2	1	n/a	n/a	n/a	18	n/a	n/a	n/a	n/a
2991.458	n/a	DISTRACTOR	1495729	n/a	LTP290	ltpFR2	1	13	n/a	n/a	n/a	n/a	0	0	0
2991.468	n/a	PROB	1495734	n/a	LTP290	ltpFR2	1	n/a	n/a	n/a	18	18	4	8	6
2993.588	n/a	PROB	1496794	n/a	LTP290	ltpFR2	1	n/a	n/a	n/a	18	13	6	1	6
2995.082	n/a	PROB	1497541	n/a	LTP290	ltpFR2	1	n/a	n/a	n/a	18	15	9	1	5
2996.95	n/a	PROB	1498475	n/a	LTP290	ltpFR2	1	n/a	n/a	n/a	18	13	3	7	3
2998.272	n/a	PROB	1499136	n/a	LTP290	ltpFR2	1	n/a	n/a	n/a	18	19	5	6	8
3000.496	n/a	PROB	1500248	n/a	LTP290	ltpFR2	1	n/a	n/a	n/a	18	21	8	4	9
3002.092	n/a	PROB	1501046	n/a	LTP290	ltpFR2	1	n/a	n/a	n/a	18	16	6	9	1
3003.932	n/a	PROB	1501966	n/a	LTP290	ltpFR2	1	n/a	n/a	n/a	18	15	1	8	6
3006.402	n/a	PROB	1503201	n/a	LTP290	ltpFR2	1	n/a	n/a	n/a	18	17	7	6	4
3008.198	n/a	PROB	1504099	n/a	LTP290	ltpFR2	1	n/a	n/a	n/a	18	17	1	8	8
3009.922	n/a	PROB	1504961	n/a	LTP290	ltpFR2	1	n/a	n/a	n/a	18	20	5	8	7
3014.292	n/a	STOP	1507146	n/a	LTP290	ltpFR2	1	n/a	n/a	n/a	18	n/a	n/a	n/a	n/a
3016.246	n/a	REC_START	1508123	n/a	LTP290	ltpFR2	1	13	n/a	n/a	n/a	n/a	0	0	0
3018.35	n/a	REC_WORD_VV	1509175	wordpools/wasnorm_wordpool_576.txt	LTP290	ltpFR2	1	13	<>	-1	n/a	n/a	0	0	0
3022.166	n/a	REC_WORD	1511083	wordpools/wasnorm_wordpool_576.txt	LTP290	ltpFR2	1	13	WORLD	1622	n/a	n/a	0	0	0
3022.786	n/a	REC_WORD	1511393	wordpools/wasnorm_wordpool_576.txt	LTP290	ltpFR2	1	13	DRAWING	494	n/a	n/a	0	0	0
3026.788	n/a	REC_WORD	1513394	wordpools/wasnorm_wordpool_576.txt	LTP290	ltpFR2	1	13	CONVICT	371	n/a	n/a	0	0	0
3027.308	n/a	REC_WORD	1513654	wordpools/wasnorm_wordpool_576.txt	LTP290	ltpFR2	1	13	VICTIM	1562	n/a	n/a	0	0	0
3030.048	n/a	REC_WORD	1515024	wordpools/wasnorm_wordpool_576.txt	LTP290	ltpFR2	1	13	SCISSORS	1250	n/a	n/a	0	0	0
3030.66	n/a	REC_WORD	1515330	wordpools/wasnorm_wordpool_576.txt	LTP290	ltpFR2	1	13	FLEET	578	n/a	n/a	0	0	0
3034.648	n/a	REC_WORD	1517324	wordpools/wasnorm_wordpool_576.txt	LTP290	ltpFR2	1	13	COLONEL	348	n/a	n/a	0	0	0
3035.306	n/a	REC_WORD	1517653	wordpools/wasnorm_wordpool_576.txt	LTP290	ltpFR2	1	13	SIDEWALK	1303	n/a	n/a	0	0	0
3035.946	n/a	REC_WORD	1517973	wordpools/wasnorm_wordpool_576.txt	LTP290	ltpFR2	1	13	HIKER	708	n/a	n/a	0	0	0
3038.332	n/a	REC_WORD	1519166	wordpools/wasnorm_wordpool_576.txt	LTP290	ltpFR2	1	13	CLIMBER	323	n/a	n/a	0	0	0
3050.462	n/a	REC_WORD	1525231	wordpools/wasnorm_wordpool_576.txt	LTP290	ltpFR2	1	13	HOOK	715	n/a	n/a	0	0	0
3051.372	n/a	REC_WORD	1525686	wordpools/wasnorm_wordpool_576.txt	LTP290	ltpFR2	1	13	CONCERT	360	n/a	n/a	0	0	0
3052.04	n/a	REC_WORD	1526020	wordpools/wasnorm_wordpool_576.txt	LTP290	ltpFR2	1	13	OINTMENT	974	n/a	n/a	0	0	0
3053.288	n/a	REC_WORD	1526644	wordpools/wasnorm_wordpool_576.txt	LTP290	ltpFR2	1	13	EYELASH	546	n/a	n/a	0	0	0
3107.31	n/a	DISTRACTOR	1553655	n/a	LTP290	ltpFR2	1	14	n/a	n/a	n/a	n/a	0	0	0
3107.31	n/a	START	1553655	n/a	LTP290	ltpFR2	1	n/a	n/a	n/a	19	n/a	n/a	n/a	n/a
3107.36	n/a	PROB	1553680	n/a	LTP290	ltpFR2	1	n/a	n/a	n/a	19	20	4	7	9
3109.754	n/a	PROB	1554877	n/a	LTP290	ltpFR2	1	n/a	n/a	n/a	19	7	2	3	2
3114.432	n/a	PROB	1557216	n/a	LTP290	ltpFR2	1	n/a	n/a	n/a	19	12	6	1	5
3116.01	n/a	PROB	1558005	n/a	LTP290	ltpFR2	1	n/a	n/a	n/a	19	18	5	7	6
3117.744	n/a	PROB	1558872	n/a	LTP290	ltpFR2	1	n/a	n/a	n/a	19	12	3	5	4
3119.418	n/a	PROB	1559709	n/a	LTP290	ltpFR2	1	n/a	n/a	n/a	19	19	2	8	9
3121.14	n/a	PROB	1560570	n/a	LTP290	ltpFR2	1	n/a	n/a	n/a	19	4	2	1	1
3123.702	n/a	PROB	1561851	n/a	LTP290	ltpFR2	1	n/a	n/a	n/a	19	17	1	8	8
3125.296	n/a	PROB	1562648	n/a	LTP290	ltpFR2	1	n/a	n/a	n/a	19	14	8	3	3
3127.198	n/a	PROB	1563599	n/a	LTP290	ltpFR2	1	n/a	n/a	n/a	19	17	9	6	2
3129.104	n/a	PROB	1564552	n/a	LTP290	ltpFR2	1	n/a	n/a	n/a	19	20	6	5	9
3130.478	n/a	STOP	1565239	n/a	LTP290	ltpFR2	1	n/a	n/a	n/a	19	n/a	n/a	n/a	n/a
3132.2	n/a	WORD	1566100	wordpools/wasnorm_wordpool_576.txt	LTP290	ltpFR2	1	14	BODY	145	n/a	n/a	0	0	0
3134.844	n/a	WORD	1567422	wordpools/wasnorm_wordpool_576.txt	LTP290	ltpFR2	1	14	CANDY	230	n/a	n/a	0	0	0
3137.274	n/a	WORD	1568637	wordpools/wasnorm_wordpool_576.txt	LTP290	ltpFR2	1	14	ACTOR	5	n/a	n/a	0	0	0
3139.75	n/a	WORD	1569875	wordpools/wasnorm_wordpool_576.txt	LTP290	ltpFR2	1	14	DUSTPAN	509	n/a	n/a	0	0	0
3142.562	n/a	WORD	1571281	wordpools/wasnorm_wordpool_576.txt	LTP290	ltpFR2	1	14	DUST	508	n/a	n/a	0	0	0
3145.072	n/a	WORD	1572536	wordpools/wasnorm_wordpool_576.txt	LTP290	ltpFR2	1	14	ROD	1203	n/a	n/a	0	0	0
3147.792	n/a	WORD	1573896	wordpools/wasnorm_wordpool_576.txt	LTP290	ltpFR2	1	14	FRIAR	605	n/a	n/a	0	0	0
3150.476	n/a	WORD	1575238	wordpools/wasnorm_wordpool_576.txt	LTP290	ltpFR2	1	14	FLESH	579	n/a	n/a	0	0	0
3152.984	n/a	WORD	1576492	wordpools/wasnorm_wordpool_576.txt	LTP290	ltpFR2	1	14	SIBLING	1301	n/a	n/a	0	0	0
3155.472	n/a	WORD	1577736	wordpools/wasnorm_wordpool_576.txt	LTP290	ltpFR2	1	14	PEBBLE	1035	n/a	n/a	0	0	0
3158.204	n/a	WORD	1579102	wordpools/wasnorm_wordpool_576.txt	LTP290	ltpFR2	1	14	STONE	1385	n/a	n/a	0	0	0
3160.944	n/a	WORD	1580472	wordpools/wasnorm_wordpool_576.txt	LTP290	ltpFR2	1	14	CRUTCH	417	n/a	n/a	0	0	0
3163.61	n/a	WORD	1581805	wordpools/wasnorm_wordpool_576.txt	LTP290	ltpFR2	1	14	VIRUS	1572	n/a	n/a	0	0	0
3166.43	n/a	WORD	1583215	wordpools/wasnorm_wordpool_576.txt	LTP290	ltpFR2	1	14	SALMON	1227	n/a	n/a	0	0	0
3169.174	n/a	WORD	1584587	wordpools/wasnorm_wordpool_576.txt	LTP290	ltpFR2	1	14	KEEPER	769	n/a	n/a	0	0	0
3171.79	n/a	WORD	1585895	wordpools/wasnorm_wordpool_576.txt	LTP290	ltpFR2	1	14	SODA	1341	n/a	n/a	0	0	0
3174.316	n/a	WORD	1587158	wordpools/wasnorm_wordpool_576.txt	LTP290	ltpFR2	1	14	FLIPPER	580	n/a	n/a	0	0	0
3176.988	n/a	WORD	1588494	wordpools/wasnorm_wordpool_576.txt	LTP290	ltpFR2	1	14	JEANS	752	n/a	n/a	0	0	0
3179.67	n/a	WORD	1589835	wordpools/wasnorm_wordpool_576.txt	LTP290	ltpFR2	1	14	BLOUSE	139	n/a	n/a	0	0	0
3182.23	n/a	WORD	1591115	wordpools/wasnorm_wordpool_576.txt	LTP290	ltpFR2	1	14	LIGHTNING	820	n/a	n/a	0	0	0
3184.89	n/a	WORD	1592445	wordpools/wasnorm_wordpool_576.txt	LTP290	ltpFR2	1	14	LIPSTICK	829	n/a	n/a	0	0	0
3187.344	n/a	WORD	1593672	wordpools/wasnorm_wordpool_576.txt	LTP290	ltpFR2	1	14	YARN	1631	n/a	n/a	0	0	0
3190.076	n/a	WORD	1595038	wordpools/wasnorm_wordpool_576.txt	LTP290	ltpFR2	1	14	TREAT	1501	n/a	n/a	0	0	0
3192.804	n/a	WORD	1596402	wordpools/wasnorm_wordpool_576.txt	LTP290	ltpFR2	1	14	CHEST	295	n/a	n/a	0	0	0
3194.42	n/a	START	1597210	n/a	LTP290	ltpFR2	1	n/a	n/a	n/a	20	n/a	n/a	n/a	n/a
3195.232	n/a	DISTRACTOR	1597616	n/a	LTP290	ltpFR2	1	14	n/a	n/a	n/a	n/a	0	0	0
3195.246	n/a	PROB	1597623	n/a	LTP290	ltpFR2	1	n/a	n/a	n/a	20	17	7	3	7
3196.864	n/a	PROB	1598432	n/a	LTP290	ltpFR2	1	n/a	n/a	n/a	20	16	3	4	9
3198.436	n/a	PROB	1599218	n/a	LTP290	ltpFR2	1	n/a	n/a	n/a	20	6	1	2	3
3199.942	n/a	PROB	1599971	n/a	LTP290	ltpFR2	1	n/a	n/a	n/a	20	12	3	7	2
3201.052	n/a	PROB	1600526	n/a	LTP290	ltpFR2	1	n/a	n/a	n/a	20	12	3	7	2
3202.016	n/a	PROB	1601008	n/a	LTP290	ltpFR2	1	n/a	n/a	n/a	20	13	8	4	1
3203.706	n/a	PROB	1601853	n/a	LTP290	ltpFR2	1	n/a	n/a	n/a	20	19	7	6	6
3208.726	n/a	PROB	1604363	n/a	LTP290	ltpFR2	1	n/a	n/a	n/a	20	12	4	1	7
3209.964	n/a	PROB	1604982	n/a	LTP290	ltpFR2	1	n/a	n/a	n/a	20	11	7	1	3
3211.452	n/a	PROB	1605726	n/a	LTP290	ltpFR2	1	n/a	n/a	n/a	20	18	4	9	5
3213.544	n/a	PROB	1606772	n/a	LTP290	ltpFR2	1	n/a	n/a	n/a	20	13	6	4	3
3214.664	n/a	PROB	1607332	n/a	LTP290	ltpFR2	1	n/a	n/a	n/a	20	18	9	4	5
3217.692	n/a	STOP	1608846	n/a	LTP290	ltpFR2	1	n/a	n/a	n/a	20	n/a	n/a	n/a	n/a
3220.176	n/a	REC_START	1610088	n/a	LTP290	ltpFR2	1	14	n/a	n/a	n/a	n/a	0	0	0
3221.894	n/a	REC_WORD	1610947	wordpools/wasnorm_wordpool_576.txt	LTP290	ltpFR2	1	14	BLOUSE	139	n/a	n/a	0	0	0
3222.438	n/a	REC_WORD	1611219	wordpools/wasnorm_wordpool_576.txt	LTP290	ltpFR2	1	14	LIGHTNING	820	n/a	n/a	0	0	0
3223.404	n/a	REC_WORD	1611702	wordpools/wasnorm_wordpool_576.txt	LTP290	ltpFR2	1	14	YARN	1631	n/a	n/a	0	0	0
3223.754	n/a	REC_WORD	1611877	wordpools/wasnorm_wordpool_576.txt	LTP290	ltpFR2	1	14	LIPSTICK	829	n/a	n/a	0	0	0
3224.884	n/a	REC_WORD	1612442	wordpools/wasnorm_wordpool_576.txt	LTP290	ltpFR2	1	14	CHEST	295	n/a	n/a	0	0	0
3225.518	n/a	REC_WORD	1612759	wordpools/wasnorm_wordpool_576.txt	LTP290	ltpFR2	1	14	TREAT	1501	n/a	n/a	0	0	0
3235.162	n/a	REC_WORD	1617581	wordpools/wasnorm_wordpool_576.txt	LTP290	ltpFR2	1	14	ACTOR	5	n/a	n/a	0	0	0
3235.676	n/a	REC_WORD	1617838	wordpools/wasnorm_wordpool_576.txt	LTP290	ltpFR2	1	14	DUSTPAN	509	n/a	n/a	0	0	0
3236.358	n/a	REC_WORD	1618179	wordpools/wasnorm_wordpool_576.txt	LTP290	ltpFR2	1	14	DUST	508	n/a	n/a	0	0	0
3311.224	n/a	WORD	1655612	wordpools/wasnorm_wordpool_576.txt	LTP290	ltpFR2	1	15	FOREST	593	n/a	n/a	0	0	0
3314.018	n/a	WORD	1657009	wordpools/wasnorm_wordpool_576.txt	LTP290	ltpFR2	1	15	MAPLE	866	n/a	n/a	0	0	0
3316.538	n/a	WORD	1658269	wordpools/wasnorm_wordpool_576.txt	LTP290	ltpFR2	1	15	COCKTAIL	338	n/a	n/a	0	0	0
3319.204	n/a	WORD	1659602	wordpools/wasnorm_wordpool_576.txt	LTP290	ltpFR2	1	15	CHAMPAGNE	278	n/a	n/a	0	0	0
3321.898	n/a	WORD	1660949	wordpools/wasnorm_wordpool_576.txt	LTP290	ltpFR2	1	15	TERMITE	1451	n/a	n/a	0	0	0
3324.474	n/a	WORD	1662237	wordpools/wasnorm_wordpool_576.txt	LTP290	ltpFR2	1	15	DRILL	497	n/a	n/a	0	0	0
3326.928	n/a	WORD	1663464	wordpools/wasnorm_wordpool_576.txt	LTP290	ltpFR2	1	15	STAR	1373	n/a	n/a	0	0	0
3329.488	n/a	WORD	1664744	wordpools/wasnorm_wordpool_576.txt	LTP290	ltpFR2	1	15	MATTRESS	879	n/a	n/a	0	0	0
3332.104	n/a	WORD	1666052	wordpools/wasnorm_wordpool_576.txt	LTP290	ltpFR2	1	15	SHELF	1280	n/a	n/a	0	0	0
3334.924	n/a	WORD	1667462	wordpools/wasnorm_wordpool_576.txt	LTP290	ltpFR2	1	15	BURGLAR	200	n/a	n/a	0	0	0
3337.608	n/a	WORD	1668804	wordpools/wasnorm_wordpool_576.txt	LTP290	ltpFR2	1	15	TAXI	1438	n/a	n/a	0	0	0
3340.418	n/a	WORD	1670209	wordpools/wasnorm_wordpool_576.txt	LTP290	ltpFR2	1	15	SPACE	1345	n/a	n/a	0	0	0
3342.904	n/a	WORD	1671452	wordpools/wasnorm_wordpool_576.txt	LTP290	ltpFR2	1	15	MEAT	883	n/a	n/a	0	0	0
3345.722	n/a	WORD	1672861	wordpools/wasnorm_wordpool_576.txt	LTP290	ltpFR2	1	15	BACON	67	n/a	n/a	0	0	0
3348.366	n/a	WORD	1674183	wordpools/wasnorm_wordpool_576.txt	LTP290	ltpFR2	1	15	JUGGLER	763	n/a	n/a	0	0	0
3350.892	n/a	WORD	1675446	wordpools/wasnorm_wordpool_576.txt	LTP290	ltpFR2	1	15	TUBA	1515	n/a	n/a	0	0	0
3353.462	n/a	WORD	1676731	wordpools/wasnorm_wordpool_576.txt	LTP290	ltpFR2	1	15	TROUT	1511	n/a	n/a	0	0	0
3356.246	n/a	WORD	1678123	wordpools/wasnorm_wordpool_576.txt	LTP290	ltpFR2	1	15	PAPER	1011	n/a	n/a	0	0	0
3358.882	n/a	WORD	1679441	wordpools/wasnorm_wordpool_576.txt	LTP290	ltpFR2	1	15	WIFE	1609	n/a	n/a	0	0	0
3361.532	n/a	WORD	1680766	wordpools/wasnorm_wordpool_576.txt	LTP290	ltpFR2	1	15	BUTCHER	203	n/a	n/a	0	0	0
3364.31	n/a	WORD	1682155	wordpools/wasnorm_wordpool_576.txt	LTP290	ltpFR2	1	15	FRANCE	601	n/a	n/a	0	0	0
3366.764	n/a	WORD	1683382	wordpools/wasnorm_wordpool_576.txt	LTP290	ltpFR2	1	15	PILOT	1070	n/a	n/a	0	0	0
3369.58	n/a	WORD	1684790	wordpools/wasnorm_wordpool_576.txt	LTP290	ltpFR2	1	15	THIEF	1456	n/a	n/a	0	0	0
3372.318	n/a	WORD	1686159	wordpools/wasnorm_wordpool_576.txt	LTP290	ltpFR2	1	15	SUBWAY	1400	n/a	n/a	0	0	0
3373.93	n/a	START	1686965	n/a	LTP290	ltpFR2	1	n/a	n/a	n/a	21	n/a	n/a	n/a	n/a
3374.95	n/a	DISTRACTOR	1687475	n/a	LTP290	ltpFR2	1	15	n/a	n/a	n/a	n/a	0	0	0
3374.968	n/a	PROB	1687484	n/a	LTP290	ltpFR2	1	n/a	n/a	n/a	21	12	2	8	2
3377.018	n/a	PROB	1688509	n/a	LTP290	ltpFR2	1	n/a	n/a	n/a	21	5	3	1	1
3378.24	n/a	PROB	1689120	n/a	LTP290	ltpFR2	1	n/a	n/a	n/a	21	12	3	5	4
3379.618	n/a	PROB	1689809	n/a	LTP290	ltpFR2	1	n/a	n/a	n/a	21	22	9	5	8
3381.704	n/a	PROB	1690852	n/a	LTP290	ltpFR2	1	n/a	n/a	n/a	21	16	9	3	4
3383.912	n/a	PROB	1691956	n/a	LTP290	ltpFR2	1	n/a	n/a	n/a	21	19	9	9	1
3385.458	n/a	PROB	1692729	n/a	LTP290	ltpFR2	1	n/a	n/a	n/a	21	16	6	5	5
3387.214	n/a	PROB	1693607	n/a	LTP290	ltpFR2	1	n/a	n/a	n/a	21	9	2	4	3
3388.966	n/a	PROB	1694483	n/a	LTP290	ltpFR2	1	n/a	n/a	n/a	21	9	2	6	1
3390.336	n/a	PROB	1695168	n/a	LTP290	ltpFR2	1	n/a	n/a	n/a	21	13	3	4	6
3391.748	n/a	PROB	1695874	n/a	LTP290	ltpFR2	1	n/a	n/a	n/a	21	20	8	6	6
3395.606	n/a	PROB	1697803	n/a	LTP290	ltpFR2	1	n/a	n/a	n/a	21	15	9	4	2
3397.884	n/a	STOP	1698942	n/a	LTP290	ltpFR2	1	n/a	n/a	n/a	21	n/a	n/a	n/a	n/a
3399.874	n/a	REC_START	1699937	n/a	LTP290	ltpFR2	1	15	n/a	n/a	n/a	n/a	0	0	0
3402.108	n/a	REC_WORD_VV	1701054	wordpools/wasnorm_wordpool_576.txt	LTP290	ltpFR2	1	15	<>	-1	n/a	n/a	0	0	0
3402.708	n/a	REC_WORD	1701354	wordpools/wasnorm_wordpool_576.txt	LTP290	ltpFR2	1	15	STAR	1373	n/a	n/a	0	0	0
3403.4	n/a	REC_WORD	1701700	wordpools/wasnorm_wordpool_576.txt	LTP290	ltpFR2	1	15	MATTRESS	879	n/a	n/a	0	0	0
3404.436	n/a	REC_WORD	1702218	wordpools/wasnorm_wordpool_576.txt	LTP290	ltpFR2	1	15	SHELF	1280	n/a	n/a	0	0	0
3405.246	n/a	REC_WORD	1702623	wordpools/wasnorm_wordpool_576.txt	LTP290	ltpFR2	1	15	BURGLAR	200	n/a	n/a	0	0	0
3407.192	n/a	REC_WORD	1703596	wordpools/wasnorm_wordpool_576.txt	LTP290	ltpFR2	1	15	SPACE	1345	n/a	n/a	0	0	0
3407.972	n/a	REC_WORD	1703986	wordpools/wasnorm_wordpool_576.txt	LTP290	ltpFR2	1	15	TAXI	1438	n/a	n/a	0	0	0
3409.262	n/a	REC_WORD	1704631	wordpools/wasnorm_wordpool_576.txt	LTP290	ltpFR2	1	15	MEAT	883	n/a	n/a	0	0	0
3409.946	n/a	REC_WORD	1704973	wordpools/wasnorm_wordpool_576.txt	LTP290	ltpFR2	1	15	BACON	67	n/a	n/a	0	0	0
3411.23	n/a	REC_WORD	1705615	wordpools/wasnorm_wordpool_576.txt	LTP290	ltpFR2	1	15	JUGGLER	763	n/a	n/a	0	0	0
3413.66	n/a	REC_WORD	1706830	wordpools/wasnorm_wordpool_576.txt	LTP290	ltpFR2	1	15	PAPER	1011	n/a	n/a	0	0	0
3414.384	n/a	REC_WORD	1707192	wordpools/wasnorm_wordpool_576.txt	LTP290	ltpFR2	1	15	WIFE	1609	n/a	n/a	0	0	0
3415.554	n/a	REC_WORD	1707777	wordpools/wasnorm_wordpool_576.txt	LTP290	ltpFR2	1	15	BUTCHER	203	n/a	n/a	0	0	0
3415.982	n/a	REC_WORD	1707991	wordpools/wasnorm_wordpool_576.txt	LTP290	ltpFR2	1	15	FRANCE	601	n/a	n/a	0	0	0
3436.71	n/a	REC_WORD	1718355	wordpools/wasnorm_wordpool_576.txt	LTP290	ltpFR2	1	15	SUBWAY	1400	n/a	n/a	0	0	0
3490.892	n/a	DISTRACTOR	1745446	n/a	LTP290	ltpFR2	1	16	n/a	n/a	n/a	n/a	0	0	0
3490.894	n/a	START	1745447	n/a	LTP290	ltpFR2	1	n/a	n/a	n/a	22	n/a	n/a	n/a	n/a
3490.944	n/a	PROB	1745472	n/a	LTP290	ltpFR2	1	n/a	n/a	n/a	22	22	5	9	8
3492.744	n/a	PROB	1746372	n/a	LTP290	ltpFR2	1	n/a	n/a	n/a	22	14	4	5	5
3494.708	n/a	PROB	1747354	n/a	LTP290	ltpFR2	1	n/a	n/a	n/a	22	11	7	1	3
3495.94	n/a	PROB	1747970	n/a	LTP290	ltpFR2	1	n/a	n/a	n/a	22	19	9	9	1
3497.648	n/a	PROB	1748824	n/a	LTP290	ltpFR2	1	n/a	n/a	n/a	22	5	1	3	1
3498.752	n/a	PROB	1749376	n/a	LTP290	ltpFR2	1	n/a	n/a	n/a	22	23	9	6	8
3502.398	n/a	PROB	1751199	n/a	LTP290	ltpFR2	1	n/a	n/a	n/a	22	19	1	9	9
3504.022	n/a	PROB	1752011	n/a	LTP290	ltpFR2	1	n/a	n/a	n/a	22	14	2	5	7
3509.742	n/a	PROB	1754871	n/a	LTP290	ltpFR2	1	n/a	n/a	n/a	22	17	3	9	5
3511.504	n/a	PROB	1755752	n/a	LTP290	ltpFR2	1	n/a	n/a	n/a	22	24	9	9	8
3514.124	n/a	STOP	1757062	n/a	LTP290	ltpFR2	1	n/a	n/a	n/a	22	n/a	n/a	n/a	n/a
3516.056	n/a	WORD	1758028	wordpools/wasnorm_wordpool_576.txt	LTP290	ltpFR2	1	16	PORTRAIT	1111	n/a	n/a	0	0	0
3518.828	n/a	WORD	1759414	wordpools/wasnorm_wordpool_576.txt	LTP290	ltpFR2	1	16	GAVEL	627	n/a	n/a	0	0	0
3521.606	n/a	WORD	1760803	wordpools/wasnorm_wordpool_576.txt	LTP290	ltpFR2	1	16	SHERIFF	1284	n/a	n/a	0	0	0
3524.288	n/a	WORD	1762144	wordpools/wasnorm_wordpool_576.txt	LTP290	ltpFR2	1	16	HORNET	718	n/a	n/a	0	0	0
3526.848	n/a	WORD	1763424	wordpools/wasnorm_wordpool_576.txt	LTP290	ltpFR2	1	16	JUDGE	761	n/a	n/a	0	0	0
3529.39	n/a	WORD	1764695	wordpools/wasnorm_wordpool_576.txt	LTP290	ltpFR2	1	16	TRENCH	1503	n/a	n/a	0	0	0
3532.084	n/a	WORD	1766042	wordpools/wasnorm_wordpool_576.txt	LTP290	ltpFR2	1	16	DAISY	435	n/a	n/a	0	0	0
3534.638	n/a	WORD	1767319	wordpools/wasnorm_wordpool_576.txt	LTP290	ltpFR2	1	16	FLUTE	585	n/a	n/a	0	0	0
3537.17	n/a	WORD	1768585	wordpools/wasnorm_wordpool_576.txt	LTP290	ltpFR2	1	16	MOP	916	n/a	n/a	0	0	0
3539.998	n/a	WORD	1769999	wordpools/wasnorm_wordpool_576.txt	LTP290	ltpFR2	1	16	SUMMIT	1405	n/a	n/a	0	0	0
3542.686	n/a	WORD	1771343	wordpools/wasnorm_wordpool_576.txt	LTP290	ltpFR2	1	16	CORAL	378	n/a	n/a	0	0	0
3545.318	n/a	WORD	1772659	wordpools/wasnorm_wordpool_576.txt	LTP290	ltpFR2	1	16	RECORD	1176	n/a	n/a	0	0	0
3547.928	n/a	WORD	1773964	wordpools/wasnorm_wordpool_576.txt	LTP290	ltpFR2	1	16	STUDENT	1395	n/a	n/a	0	0	0
3550.666	n/a	WORD	1775333	wordpools/wasnorm_wordpool_576.txt	LTP290	ltpFR2	1	16	COLLEGE	346	n/a	n/a	0	0	0
3553.126	n/a	WORD	1776563	wordpools/wasnorm_wordpool_576.txt	LTP290	ltpFR2	1	16	BROOK	177	n/a	n/a	0	0	0
3555.836	n/a	WORD	1777918	wordpools/wasnorm_wordpool_576.txt	LTP290	ltpFR2	1	16	WHISTLE	1606	n/a	n/a	0	0	0
3558.486	n/a	WORD	1779243	wordpools/wasnorm_wordpool_576.txt	LTP290	ltpFR2	1	16	PICNIC	1060	n/a	n/a	0	0	0
3561.274	n/a	WORD	1780637	wordpools/wasnorm_wordpool_576.txt	LTP290	ltpFR2	1	16	NOVEL	960	n/a	n/a	0	0	0
3563.974	n/a	WORD	1781987	wordpools/wasnorm_wordpool_576.txt	LTP290	ltpFR2	1	16	NOTEBOOK	959	n/a	n/a	0	0	0
3566.594	n/a	WORD	1783297	wordpools/wasnorm_wordpool_576.txt	LTP290	ltpFR2	1	16	PLUTO	1092	n/a	n/a	0	0	0
3569.058	n/a	WORD	1784529	wordpools/wasnorm_wordpool_576.txt	LTP290	ltpFR2	1	16	MARS	873	n/a	n/a	0	0	0
3571.568	n/a	WORD	1785784	wordpools/wasnorm_wordpool_576.txt	LTP290	ltpFR2	1	16	SPARROW	1347	n/a	n/a	0	0	0
3574.206	n/a	WORD	1787103	wordpools/wasnorm_wordpool_576.txt	LTP290	ltpFR2	1	16	HARP	689	n/a	n/a	0	0	0
3577.034	n/a	WORD	1788517	wordpools/wasnorm_wordpool_576.txt	LTP290	ltpFR2	1	16	CURTAIN	427	n/a	n/a	0	0	0
3578.646	n/a	START	1789323	n/a	LTP290	ltpFR2	1	n/a	n/a	n/a	23	n/a	n/a	n/a	n/a
3579.784	n/a	DISTRACTOR	1789892	n/a	LTP290	ltpFR2	1	16	n/a	n/a	n/a	n/a	0	0	0
3579.8	n/a	PROB	1789900	n/a	LTP290	ltpFR2	1	n/a	n/a	n/a	23	11	9	6	3
3581.3	n/a	PROB	1790650	n/a	LTP290	ltpFR2	1	n/a	n/a	n/a	23	18	6	5	7
3583.642	n/a	PROB	1791821	n/a	LTP290	ltpFR2	1	n/a	n/a	n/a	23	18	9	7	2
3585.622	n/a	PROB	1792811	n/a	LTP290	ltpFR2	1	n/a	n/a	n/a	23	13	1	3	9
3587.49	n/a	PROB	1793745	n/a	LTP290	ltpFR2	1	n/a	n/a	n/a	23	18	8	6	4
3589.18	n/a	PROB	1794590	n/a	LTP290	ltpFR2	1	n/a	n/a	n/a	23	13	1	8	4
3590.742	n/a	PROB	1795371	n/a	LTP290	ltpFR2	1	n/a	n/a	n/a	23	21	6	8	7
3593.686	n/a	PROB	1796843	n/a	LTP290	ltpFR2	1	n/a	n/a	n/a	23	10	2	4	4
3595.51	n/a	PROB	1797755	n/a	LTP290	ltpFR2	1	n/a	n/a	n/a	23	13	3	3	4
3597.266	n/a	PROB	1798633	n/a	LTP290	ltpFR2	1	n/a	n/a	n/a	23	16	5	2	9
3600.796	n/a	PROB	1800398	n/a	LTP290	ltpFR2	1	n/a	n/a	n/a	23	18	8	8	2
3602.264	n/a	STOP	1801132	n/a	LTP290	ltpFR2	1	n/a	n/a	n/a	23	n/a	n/a	n/a	n/a
3604.54	n/a	REC_START	1802270	n/a	LTP290	ltpFR2	1	16	n/a	n/a	n/a	n/a	0	0	0
3605.846	n/a	REC_WORD	1802923	wordpools/wasnorm_wordpool_576.txt	LTP290	ltpFR2	1	16	NEPTUNE	943	n/a	n/a	0	0	0
3606.45	n/a	REC_WORD	1803225	wordpools/wasnorm_wordpool_576.txt	LTP290	ltpFR2	1	16	MARS	873	n/a	n/a	0	0	0
3607.414	n/a	REC_WORD	1803707	wordpools/wasnorm_wordpool_576.txt	LTP290	ltpFR2	1	16	SPARROW	1347	n/a	n/a	0	0	0
3661.954	n/a	REC_WORD	1830977	wordpools/wasnorm_wordpool_576.txt	LTP290	ltpFR2	1	16	HARP	689	n/a	n/a	0	0	0
3681.304	n/a	REST_REWET	1840652	n/a	LTP290	ltpFR2	1	16	n/a	n/a	n/a	n/a	0	0	0
4087.006	n/a	DISTRACTOR	2043503	n/a	LTP290	ltpFR2	1	17	n/a	n/a	n/a	n/a	0	0	0
4087.006	n/a	START	2043503	n/a	LTP290	ltpFR2	1	n/a	n/a	n/a	24	n/a	n/a	n/a	n/a
4087.056	n/a	PROB	2043528	n/a	LTP290	ltpFR2	1	n/a	n/a	n/a	24	10	1	7	2
4088.862	n/a	PROB	2044431	n/a	LTP290	ltpFR2	1	n/a	n/a	n/a	24	18	8	8	2
4090.596	n/a	PROB	2045298	n/a	LTP290	ltpFR2	1	n/a	n/a	n/a	24	17	4	4	9
4092.17	n/a	PROB	2046085	n/a	LTP290	ltpFR2	1	n/a	n/a	n/a	24	20	6	7	7
4095.052	n/a	PROB	2047526	n/a	LTP290	ltpFR2	1	n/a	n/a	n/a	24	16	8	7	1
4096.592	n/a	PROB	2048296	n/a	LTP290	ltpFR2	1	n/a	n/a	n/a	24	23	7	9	7
4098.7	n/a	PROB	2049350	n/a	LTP290	ltpFR2	1	n/a	n/a	n/a	24	22	9	7	6
4100.534	n/a	PROB	2050267	n/a	LTP290	ltpFR2	1	n/a	n/a	n/a	24	10	5	4	1
4101.956	n/a	PROB	2050978	n/a	LTP290	ltpFR2	1	n/a	n/a	n/a	24	21	9	6	6
4106.006	n/a	PROB	2053003	n/a	LTP290	ltpFR2	1	n/a	n/a	n/a	24	17	8	7	2
4107.902	n/a	PROB	2053951	n/a	LTP290	ltpFR2	1	n/a	n/a	n/a	24	16	7	4	5
4111.008	n/a	STOP	2055504	n/a	LTP290	ltpFR2	1	n/a	n/a	n/a	24	n/a	n/a	n/a	n/a
4112.186	n/a	WORD	2056093	wordpools/wasnorm_wordpool_576.txt	LTP290	ltpFR2	1	17	BOYFRIEND	162	n/a	n/a	0	0	0
4114.806	n/a	WORD	2057403	wordpools/wasnorm_wordpool_576.txt	LTP290	ltpFR2	1	17	GYMNAST	675	n/a	n/a	0	0	0
4117.322	n/a	WORD	2058661	wordpools/wasnorm_wordpool_576.txt	LTP290	ltpFR2	1	17	TRUCK	1512	n/a	n/a	0	0	0
4120.014	n/a	WORD	2060007	wordpools/wasnorm_wordpool_576.txt	LTP290	ltpFR2	1	17	GREASE	660	n/a	n/a	0	0	0
4122.524	n/a	WORD	2061262	wordpools/wasnorm_wordpool_576.txt	LTP290	ltpFR2	1	17	OFFICE	972	n/a	n/a	0	0	0
4125.346	n/a	WORD	2062673	wordpools/wasnorm_wordpool_576.txt	LTP290	ltpFR2	1	17	POSTAGE	1113	n/a	n/a	0	0	0
4127.81	n/a	WORD	2063905	wordpools/wasnorm_wordpool_576.txt	LTP290	ltpFR2	1	17	GLOBE	641	n/a	n/a	0	0	0
4130.532	n/a	WORD	2065266	wordpools/wasnorm_wordpool_576.txt	LTP290	ltpFR2	1	17	GUITAR	670	n/a	n/a	0	0	0
4133.282	n/a	WORD	2066641	wordpools/wasnorm_wordpool_576.txt	LTP290	ltpFR2	1	17	PIGEON	1065	n/a	n/a	0	0	0
4136.026	n/a	WORD	2068013	wordpools/wasnorm_wordpool_576.txt	LTP290	ltpFR2	1	17	SPOON	1357	n/a	n/a	0	0	0
4138.586	n/a	WORD	2069293	wordpools/wasnorm_wordpool_576.txt	LTP290	ltpFR2	1	17	GANGSTER	620	n/a	n/a	0	0	0
4141.128	n/a	WORD	2070564	wordpools/wasnorm_wordpool_576.txt	LTP290	ltpFR2	1	17	CREVICE	405	n/a	n/a	0	0	0
4143.75	n/a	WORD	2071875	wordpools/wasnorm_wordpool_576.txt	LTP290	ltpFR2	1	17	MUSTARD	935	n/a	n/a	0	0	0
4146.282	n/a	WORD	2073141	wordpools/wasnorm_wordpool_576.txt	LTP290	ltpFR2	1	17	MOTEL	919	n/a	n/a	0	0	0
4148.958	n/a	WORD	2074479	wordpools/wasnorm_wordpool_576.txt	LTP290	ltpFR2	1	17	CAMEL	223	n/a	n/a	0	0	0
4151.462	n/a	WORD	2075731	wordpools/wasnorm_wordpool_576.txt	LTP290	ltpFR2	1	17	RIFLE	1192	n/a	n/a	0	0	0
4154.062	n/a	WORD	2077031	wordpools/wasnorm_wordpool_576.txt	LTP290	ltpFR2	1	17	CHILD	299	n/a	n/a	0	0	0
4156.806	n/a	WORD	2078403	wordpools/wasnorm_wordpool_576.txt	LTP290	ltpFR2	1	17	QUAIL	1147	n/a	n/a	0	0	0
4159.6	n/a	WORD	2079800	wordpools/wasnorm_wordpool_576.txt	LTP290	ltpFR2	1	17	PENGUIN	1044	n/a	n/a	0	0	0
4162.102	n/a	WORD	2081051	wordpools/wasnorm_wordpool_576.txt	LTP290	ltpFR2	1	17	FIDDLE	561	n/a	n/a	0	0	0
4164.736	n/a	WORD	2082368	wordpools/wasnorm_wordpool_576.txt	LTP290	ltpFR2	1	17	REPORT	1184	n/a	n/a	0	0	0
4167.28	n/a	WORD	2083640	wordpools/wasnorm_wordpool_576.txt	LTP290	ltpFR2	1	17	PLIERS	1089	n/a	n/a	0	0	0
4169.788	n/a	WORD	2084894	wordpools/wasnorm_wordpool_576.txt	LTP290	ltpFR2	1	17	BANJO	82	n/a	n/a	0	0	0
4172.276	n/a	WORD	2086138	wordpools/wasnorm_wordpool_576.txt	LTP290	ltpFR2	1	17	GAZELLE	628	n/a	n/a	0	0	0
4173.888	n/a	START	2086944	n/a	LTP290	ltpFR2	1	n/a	n/a	n/a	25	n/a	n/a	n/a	n/a
4174.702	n/a	DISTRACTOR	2087351	n/a	LTP290	ltpFR2	1	17	n/a	n/a	n/a	n/a	0	0	0
4174.718	n/a	PROB	2087359	n/a	LTP290	ltpFR2	1	n/a	n/a	n/a	25	17	8	4	5
4177.16	n/a	PROB	2088580	n/a	LTP290	ltpFR2	1	n/a	n/a	n/a	25	20	8	7	5
4178.868	n/a	PROB	2089434	n/a	LTP290	ltpFR2	1	n/a	n/a	n/a	25	24	6	9	7
4180.898	n/a	PROB	2090449	n/a	LTP290	ltpFR2	1	n/a	n/a	n/a	25	13	5	1	7
4182.564	n/a	PROB	2091282	n/a	LTP290	ltpFR2	1	n/a	n/a	n/a	25	10	3	3	4
4184.254	n/a	PROB	2092127	n/a	LTP290	ltpFR2	1	n/a	n/a	n/a	25	12	1	3	8
4187.15	n/a	PROB	2093575	n/a	LTP290	ltpFR2	1	n/a	n/a	n/a	25	21	7	7	7
4188.906	n/a	PROB	2094453	n/a	LTP290	ltpFR2	1	n/a	n/a	n/a	25	17	5	8	4
4191.17	n/a	PROB	2095585	n/a	LTP290	ltpFR2	1	n/a	n/a	n/a	25	15	8	3	4
4192.676	n/a	PROB	2096338	n/a	LTP290	ltpFR2	1	n/a	n/a	n/a	25	20	7	7	6
4194.176	n/a	PROB	2097088	n/a	LTP290	ltpFR2	1	n/a	n/a	n/a	25	19	6	9	4
4197.232	n/a	STOP	2098616	n/a	LTP290	ltpFR2	1	n/a	n/a	n/a	25	n/a	n/a	n/a	n/a
4199.764	n/a	REC_START	2099882	n/a	LTP290	ltpFR2	1	17	n/a	n/a	n/a	n/a	0	0	0
4202.276	n/a	REC_WORD	2101138	wordpools/wasnorm_wordpool_576.txt	LTP290	ltpFR2	1	17	BOYFRIEND	162	n/a	n/a	0	0	0
4206.092	n/a	REC_WORD	2103046	wordpools/wasnorm_wordpool_576.txt	LTP290	ltpFR2	1	17	GYMNAST	675	n/a	n/a	0	0	0
4212.066	n/a	REC_WORD	2106033	wordpools/wasnorm_wordpool_576.txt	LTP290	ltpFR2	1	17	TRUCK	1512	n/a	n/a	0	0	0
4213.036	n/a	REC_WORD	2106518	wordpools/wasnorm_wordpool_576.txt	LTP290	ltpFR2	1	17	OFFICE	972	n/a	n/a	0	0	0
4214.698	n/a	REC_WORD	2107349	wordpools/wasnorm_wordpool_576.txt	LTP290	ltpFR2	1	17	GREASE	660	n/a	n/a	0	0	0
4217.826	n/a	REC_WORD	2108913	wordpools/wasnorm_wordpool_576.txt	LTP290	ltpFR2	1	17	PIGEON	1065	n/a	n/a	0	0	0
4219.736	n/a	REC_WORD	2109868	wordpools/wasnorm_wordpool_576.txt	LTP290	ltpFR2	1	17	POSTAGE	1113	n/a	n/a	0	0	0
4290.818	n/a	WORD	2145409	wordpools/wasnorm_wordpool_576.txt	LTP290	ltpFR2	1	18	MESSAGE	888	n/a	n/a	0	0	0
4293.478	n/a	WORD	2146739	wordpools/wasnorm_wordpool_576.txt	LTP290	ltpFR2	1	18	BUCKET	184	n/a	n/a	0	0	0
4296.016	n/a	WORD	2148008	wordpools/wasnorm_wordpool_576.txt	LTP290	ltpFR2	1	18	GROUND	666	n/a	n/a	0	0	0
4298.748	n/a	WORD	2149374	wordpools/wasnorm_wordpool_576.txt	LTP290	ltpFR2	1	18	PUDDLE	1140	n/a	n/a	0	0	0
4301.424	n/a	WORD	2150712	wordpools/wasnorm_wordpool_576.txt	LTP290	ltpFR2	1	18	BATHTUB	100	n/a	n/a	0	0	0
4304.152	n/a	WORD	2152076	wordpools/wasnorm_wordpool_576.txt	LTP290	ltpFR2	1	18	LUNCH	849	n/a	n/a	0	0	0
4306.878	n/a	WORD	2153439	wordpools/wasnorm_wordpool_576.txt	LTP290	ltpFR2	1	18	COOK	372	n/a	n/a	0	0	0
4309.432	n/a	WORD	2154716	wordpools/wasnorm_wordpool_576.txt	LTP290	ltpFR2	1	18	DOLPHIN	483	n/a	n/a	0	0	0
4312.216	n/a	WORD	2156108	wordpools/wasnorm_wordpool_576.txt	LTP290	ltpFR2	1	18	STICKER	1382	n/a	n/a	0	0	0
4315.022	n/a	WORD	2157511	wordpools/wasnorm_wordpool_576.txt	LTP290	ltpFR2	1	18	ITEM	746	n/a	n/a	0	0	0
4317.688	n/a	WORD	2158844	wordpools/wasnorm_wordpool_576.txt	LTP290	ltpFR2	1	18	POET	1095	n/a	n/a	0	0	0
4320.196	n/a	WORD	2160098	wordpools/wasnorm_wordpool_576.txt	LTP290	ltpFR2	1	18	TOASTER	1472	n/a	n/a	0	0	0
4322.834	n/a	WORD	2161417	wordpools/wasnorm_wordpool_576.txt	LTP290	ltpFR2	1	18	RUG	1215	n/a	n/a	0	0	0
4325.584	n/a	WORD	2162792	wordpools/wasnorm_wordpool_576.txt	LTP290	ltpFR2	1	18	DIVER	476	n/a	n/a	0	0	0
4328.094	n/a	WORD	2164047	wordpools/wasnorm_wordpool_576.txt	LTP290	ltpFR2	1	18	EXPERT	543	n/a	n/a	0	0	0
4330.82	n/a	WORD	2165410	wordpools/wasnorm_wordpool_576.txt	LTP290	ltpFR2	1	18	NURSE	963	n/a	n/a	0	0	0
4333.262	n/a	WORD	2166631	wordpools/wasnorm_wordpool_576.txt	LTP290	ltpFR2	1	18	KITCHEN	778	n/a	n/a	0	0	0
4335.856	n/a	WORD	2167928	wordpools/wasnorm_wordpool_576.txt	LTP290	ltpFR2	1	18	FREEZER	604	n/a	n/a	0	0	0
4338.434	n/a	WORD	2169217	wordpools/wasnorm_wordpool_576.txt	LTP290	ltpFR2	1	18	PECAN	1036	n/a	n/a	0	0	0
4341.022	n/a	WORD	2170511	wordpools/wasnorm_wordpool_576.txt	LTP290	ltpFR2	1	18	SMOG	1330	n/a	n/a	0	0	0
4343.664	n/a	WORD	2171832	wordpools/wasnorm_wordpool_576.txt	LTP290	ltpFR2	1	18	DASHBOARD	441	n/a	n/a	0	0	0
4346.162	n/a	WORD	2173081	wordpools/wasnorm_wordpool_576.txt	LTP290	ltpFR2	1	18	DRIVER	499	n/a	n/a	0	0	0
4348.85	n/a	WORD	2174425	wordpools/wasnorm_wordpool_576.txt	LTP290	ltpFR2	1	18	MASK	876	n/a	n/a	0	0	0
4351.61	n/a	WORD	2175805	wordpools/wasnorm_wordpool_576.txt	LTP290	ltpFR2	1	18	COUSIN	392	n/a	n/a	0	0	0
4353.222	n/a	START	2176611	n/a	LTP290	ltpFR2	1	n/a	n/a	n/a	26	n/a	n/a	n/a	n/a
4354.084	n/a	DISTRACTOR	2177042	n/a	LTP290	ltpFR2	1	18	n/a	n/a	n/a	n/a	0	0	0
4354.094	n/a	PROB	2177047	n/a	LTP290	ltpFR2	1	n/a	n/a	n/a	26	20	7	8	5
4357.116	n/a	PROB	2178558	n/a	LTP290	ltpFR2	1	n/a	n/a	n/a	26	19	4	9	6
4359.262	n/a	PROB	2179631	n/a	LTP290	ltpFR2	1	n/a	n/a	n/a	26	14	7	6	1
4361.364	n/a	PROB	2180682	n/a	LTP290	ltpFR2	1	n/a	n/a	n/a	26	8	1	3	4
4363.172	n/a	PROB	2181586	n/a	LTP290	ltpFR2	1	n/a	n/a	n/a	26	15	4	2	9
4365.028	n/a	PROB	2182514	n/a	LTP290	ltpFR2	1	n/a	n/a	n/a	26	19	7	4	8
4366.702	n/a	PROB	2183351	n/a	LTP290	ltpFR2	1	n/a	n/a	n/a	26	19	5	6	8
4368.542	n/a	PROB	2184271	n/a	LTP290	ltpFR2	1	n/a	n/a	n/a	26	14	7	5	2
4370.036	n/a	PROB	2185018	n/a	LTP290	ltpFR2	1	n/a	n/a	n/a	26	18	6	9	3
4372.814	n/a	PROB	2186407	n/a	LTP290	ltpFR2	1	n/a	n/a	n/a	26	19	7	9	3
4375.994	n/a	STOP	2187997	n/a	LTP290	ltpFR2	1	n/a	n/a	n/a	26	n/a	n/a	n/a	n/a
4379.1	n/a	REC_START	2189550	n/a	LTP290	ltpFR2	1	18	n/a	n/a	n/a	n/a	0	0	0
4402.222	n/a	REC_WORD	2201111	wordpools/wasnorm_wordpool_576.txt	LTP290	ltpFR2	1	18	TOASTER	1472	n/a	n/a	0	0	0
4402.814	n/a	REC_WORD	2201407	wordpools/wasnorm_wordpool_576.txt	LTP290	ltpFR2	1	18	POET	1095	n/a	n/a	0	0	0
4470.154	n/a	DISTRACTOR	2235077	n/a	LTP290	ltpFR2	1	19	n/a	n/a	n/a	n/a	0	0	0
4470.154	n/a	START	2235077	n/a	LTP290	ltpFR2	1	n/a	n/a	n/a	27	n/a	n/a	n/a	n/a
4470.204	n/a	PROB	2235102	n/a	LTP290	ltpFR2	1	n/a	n/a	n/a	27	19	5	9	5
4471.954	n/a	PROB	2235977	n/a	LTP290	ltpFR2	1	n/a	n/a	n/a	27	16	1	6	9
4473.816	n/a	PROB	2236908	n/a	LTP290	ltpFR2	1	n/a	n/a	n/a	27	12	1	2	9
4475.818	n/a	PROB	2237909	n/a	LTP290	ltpFR2	1	n/a	n/a	n/a	27	17	5	8	4
4478.312	n/a	PROB	2239156	n/a	LTP290	ltpFR2	1	n/a	n/a	n/a	27	8	5	1	1
4479.404	n/a	PROB	2239702	n/a	LTP290	ltpFR2	1	n/a	n/a	n/a	27	19	8	5	6
4481.54	n/a	PROB	2240770	n/a	LTP290	ltpFR2	1	n/a	n/a	n/a	27	16	3	6	7
4483.85	n/a	PROB	2241925	n/a	LTP290	ltpFR2	1	n/a	n/a	n/a	27	19	9	7	3
4485.244	n/a	PROB	2242622	n/a	LTP290	ltpFR2	1	n/a	n/a	n/a	27	24	8	9	7
4487.564	n/a	PROB	2243782	n/a	LTP290	ltpFR2	1	n/a	n/a	n/a	27	6	1	2	3
4489.738	n/a	PROB	2244869	n/a	LTP290	ltpFR2	1	n/a	n/a	n/a	27	26	9	9	7
4491.668	n/a	PROB	2245834	n/a	LTP290	ltpFR2	1	n/a	n/a	n/a	27	18	7	2	8
4493.328	n/a	STOP	2246664	n/a	LTP290	ltpFR2	1	n/a	n/a	n/a	27	n/a	n/a	n/a	n/a
4495.114	n/a	WORD	2247557	wordpools/wasnorm_wordpool_576.txt	LTP290	ltpFR2	1	19	TUTU	1524	n/a	n/a	0	0	0
4497.908	n/a	WORD	2248954	wordpools/wasnorm_wordpool_576.txt	LTP290	ltpFR2	1	19	DANCER	437	n/a	n/a	0	0	0
4500.586	n/a	WORD	2250293	wordpools/wasnorm_wordpool_576.txt	LTP290	ltpFR2	1	19	BUNNY	198	n/a	n/a	0	0	0
4503.012	n/a	WORD	2251506	wordpools/wasnorm_wordpool_576.txt	LTP290	ltpFR2	1	19	BLUEPRINT	142	n/a	n/a	0	0	0
4505.506	n/a	WORD	2252753	wordpools/wasnorm_wordpool_576.txt	LTP290	ltpFR2	1	19	MONEY	908	n/a	n/a	0	0	0
4508.182	n/a	WORD	2254091	wordpools/wasnorm_wordpool_576.txt	LTP290	ltpFR2	1	19	INFANT	737	n/a	n/a	0	0	0
4510.72	n/a	WORD	2255360	wordpools/wasnorm_wordpool_576.txt	LTP290	ltpFR2	1	19	APPLE	33	n/a	n/a	0	0	0
4513.302	n/a	WORD	2256651	wordpools/wasnorm_wordpool_576.txt	LTP290	ltpFR2	1	19	SALAD	1224	n/a	n/a	0	0	0
4515.91	n/a	WORD	2257955	wordpools/wasnorm_wordpool_576.txt	LTP290	ltpFR2	1	19	PANTHER	1009	n/a	n/a	0	0	0
4518.404	n/a	WORD	2259202	wordpools/wasnorm_wordpool_576.txt	LTP290	ltpFR2	1	19	LION	827	n/a	n/a	0	0	0
4521.114	n/a	WORD	2260557	wordpools/wasnorm_wordpool_576.txt	LTP290	ltpFR2	1	19	TART	1436	n/a	n/a	0	0	0
4523.642	n/a	WORD	2261821	wordpools/wasnorm_wordpool_576.txt	LTP290	ltpFR2	1	19	JUNGLE	764	n/a	n/a	0	0	0
4526.134	n/a	WORD	2263067	wordpools/wasnorm_wordpool_576.txt	LTP290	ltpFR2	1	19	CARRIAGE	248	n/a	n/a	0	0	0
4528.844	n/a	WORD	2264422	wordpools/wasnorm_wordpool_576.txt	LTP290	ltpFR2	1	19	PEDAL	1037	n/a	n/a	0	0	0
4531.52	n/a	WORD	2265760	wordpools/wasnorm_wordpool_576.txt	LTP290	ltpFR2	1	19	ORANGE	980	n/a	n/a	0	0	0
4534.014	n/a	WORD	2267007	wordpools/wasnorm_wordpool_576.txt	LTP290	ltpFR2	1	19	CYCLONE	431	n/a	n/a	0	0	0
4536.652	n/a	WORD	2268326	wordpools/wasnorm_wordpool_576.txt	LTP290	ltpFR2	1	19	TURTLE	1522	n/a	n/a	0	0	0
4539.316	n/a	WORD	2269658	wordpools/wasnorm_wordpool_576.txt	LTP290	ltpFR2	1	19	BIKE	125	n/a	n/a	0	0	0
4542.062	n/a	WORD	2271031	wordpools/wasnorm_wordpool_576.txt	LTP290	ltpFR2	1	19	SCARECROW	1245	n/a	n/a	0	0	0
4544.822	n/a	WORD	2272411	wordpools/wasnorm_wordpool_576.txt	LTP290	ltpFR2	1	19	SLIME	1327	n/a	n/a	0	0	0
4547.342	n/a	WORD	2273671	wordpools/wasnorm_wordpool_576.txt	LTP290	ltpFR2	1	19	NIGHTGOWN	953	n/a	n/a	0	0	0
4549.958	n/a	WORD	2274979	wordpools/wasnorm_wordpool_576.txt	LTP290	ltpFR2	1	19	SEAFOOD	1260	n/a	n/a	0	0	0
4552.478	n/a	WORD	2276239	wordpools/wasnorm_wordpool_576.txt	LTP290	ltpFR2	1	19	BRIEFCASE	175	n/a	n/a	0	0	0
4555.078	n/a	WORD	2277539	wordpools/wasnorm_wordpool_576.txt	LTP290	ltpFR2	1	19	COOKBOOK	373	n/a	n/a	0	0	0
4556.694	n/a	START	2278347	n/a	LTP290	ltpFR2	1	n/a	n/a	n/a	28	n/a	n/a	n/a	n/a
4557.852	n/a	DISTRACTOR	2278926	n/a	LTP290	ltpFR2	1	19	n/a	n/a	n/a	n/a	0	0	0
4557.866	n/a	PROB	2278933	n/a	LTP290	ltpFR2	1	n/a	n/a	n/a	28	17	6	6	5
4561.446	n/a	PROB	2280723	n/a	LTP290	ltpFR2	1	n/a	n/a	n/a	28	21	9	3	9
4562.874	n/a	PROB	2281437	n/a	LTP290	ltpFR2	1	n/a	n/a	n/a	28	11	7	3	1
4564.208	n/a	PROB	2282104	n/a	LTP290	ltpFR2	1	n/a	n/a	n/a	28	10	3	3	4
4565.496	n/a	PROB	2282748	n/a	LTP290	ltpFR2	1	n/a	n/a	n/a	28	16	3	5	8
