mstime	trial_type	stim_file	subject	experiment	session	trial	task	item_name	item_num	recog_resp	recog_conf	resp	answer	test_x	test_y	test_z	color_r	color_g	color_b	case	font
0	SESS_START	n/a	LTP123	ltpFR	9	n/a	n/a	n/a	n/a	1	1	n/a	n/a	0	0	0	n/a	n/a	n/a	n/a	n/a
58397	START	n/a	LTP123	ltpFR	9	n/a	n/a	n/a	n/a	n/a	n/a	n/a	n/a	n/a	n/a	n/a	n/a	n/a	n/a	n/a	n/a
58422	PROB	n/a	LTP123	ltpFR	9	n/a	n/a	n/a	n/a	n/a	n/a	n/a	13	9	2	2	n/a	n/a	n/a	n/a	n/a
60878	PROB	n/a	LTP123	ltpFR	9	n/a	n/a	n/a	n/a	n/a	n/a	n/a	10	2	6	2	n/a	n/a	n/a	n/a	n/a
62620	PROB	n/a	LTP123	ltpFR	9	n/a	n/a	n/a	n/a	n/a	n/a	n/a	19	8	4	7	n/a	n/a	n/a	n/a	n/a
64652	PROB	n/a	LTP123	ltpFR	9	n/a	n/a	n/a	n/a	n/a	n/a	n/a	8	4	3	1	n/a	n/a	n/a	n/a	n/a
66734	PROB	n/a	LTP123	ltpFR	9	n/a	n/a	n/a	n/a	n/a	n/a	n/a	13	2	7	4	n/a	n/a	n/a	n/a	n/a
68667	PROB	n/a	LTP123	ltpFR	9	n/a	n/a	n/a	n/a	n/a	n/a	n/a	8	2	1	5	n/a	n/a	n/a	n/a	n/a
70725	PROB	n/a	LTP123	ltpFR	9	n/a	n/a	n/a	n/a	n/a	n/a	n/a	18	6	8	4	n/a	n/a	n/a	n/a	n/a
72483	PROB	n/a	LTP123	ltpFR	9	n/a	n/a	n/a	n/a	n/a	n/a	n/a	14	6	4	4	n/a	n/a	n/a	n/a	n/a
73832	PROB	n/a	LTP123	ltpFR	9	n/a	n/a	n/a	n/a	n/a	n/a	n/a	20	5	9	6	n/a	n/a	n/a	n/a	n/a
77033	STOP	n/a	LTP123	ltpFR	9	n/a	n/a	n/a	n/a	n/a	n/a	n/a	n/a	n/a	n/a	n/a	n/a	n/a	n/a	n/a	n/a
119417	WORD	wordpools/wasnorm_wordpool.txt	LTP123	ltpFR	9	1	0	OVEN	991	0	n/a	1	n/a	0	0	0	0.57763671875	0.412841796875	1	upper	zerothre.ttf
123565	WORD	wordpools/wasnorm_wordpool.txt	LTP123	ltpFR	9	1	0	CHEF	290	n/a	n/a	1	n/a	0	0	0	0.57763671875	0.412841796875	1	upper	zerothre.ttf
127671	WORD	wordpools/wasnorm_wordpool.txt	LTP123	ltpFR	9	1	0	BUTLER	204	n/a	n/a	1	n/a	0	0	0	0.57763671875	0.412841796875	1	upper	zerothre.ttf
131811	WORD	wordpools/wasnorm_wordpool.txt	LTP123	ltpFR	9	1	0	HIP	710	n/a	n/a	1	n/a	0	0	0	0.57763671875	0.412841796875	1	upper	zerothre.ttf
135802	WORD	wordpools/wasnorm_wordpool.txt	LTP123	ltpFR	9	1	0	CHAUFFEUR	283	n/a	n/a	1	n/a	0	0	0	0.57763671875	0.412841796875	1	upper	zerothre.ttf
139908	WORD	wordpools/wasnorm_wordpool.txt	LTP123	ltpFR	9	1	0	RUST	1219	n/a	n/a	0	n/a	0	0	0	0.57763671875	0.412841796875	1	upper	zerothre.ttf
144058	WORD	wordpools/wasnorm_wordpool.txt	LTP123	ltpFR	9	1	0	RASPBERRY	1168	n/a	n/a	0	n/a	0	0	0	0.57763671875	0.412841796875	1	upper	zerothre.ttf
148082	WORD	wordpools/wasnorm_wordpool.txt	LTP123	ltpFR	9	1	0	TART	1436	n/a	n/a	0	n/a	0	0	0	0.57763671875	0.412841796875	1	upper	zerothre.ttf
152072	WORD	wordpools/wasnorm_wordpool.txt	LTP123	ltpFR	9	1	0	LIGHTER	819	n/a	n/a	0	n/a	0	0	0	0.57763671875	0.412841796875	1	upper	zerothre.ttf
156204	WORD	wordpools/wasnorm_wordpool.txt	LTP123	ltpFR	9	1	0	CATCHER	258	n/a	n/a	1	n/a	0	0	0	0.57763671875	0.412841796875	1	upper	zerothre.ttf
160043	WORD	wordpools/wasnorm_wordpool.txt	LTP123	ltpFR	9	1	0	NUT	965	n/a	n/a	0	n/a	0	0	0	0.57763671875	0.412841796875	1	upper	zerothre.ttf
163967	WORD	wordpools/wasnorm_wordpool.txt	LTP123	ltpFR	9	1	0	COP	376	n/a	n/a	1	n/a	0	0	0	0.57763671875	0.412841796875	1	upper	zerothre.ttf
168015	WORD	wordpools/wasnorm_wordpool.txt	LTP123	ltpFR	9	1	0	WORKER	1621	n/a	n/a	1	n/a	0	0	0	0.57763671875	0.412841796875	1	upper	zerothre.ttf
171872	WORD	wordpools/wasnorm_wordpool.txt	LTP123	ltpFR	9	1	0	JOINT	758	n/a	n/a	0	n/a	0	0	0	0.57763671875	0.412841796875	1	upper	zerothre.ttf
176037	WORD	wordpools/wasnorm_wordpool.txt	LTP123	ltpFR	9	1	0	DRAWING	494	n/a	n/a	0	n/a	0	0	0	0.57763671875	0.412841796875	1	upper	zerothre.ttf
179944	WORD	wordpools/wasnorm_wordpool.txt	LTP123	ltpFR	9	1	0	PEANUT	1032	n/a	n/a	0	n/a	0	0	0	0.57763671875	0.412841796875	1	upper	zerothre.ttf
182952	START	n/a	LTP123	ltpFR	9	n/a	n/a	n/a	n/a	n/a	n/a	n/a	n/a	n/a	n/a	n/a	n/a	n/a	n/a	n/a	n/a
184135	PROB	n/a	LTP123	ltpFR	9	n/a	n/a	n/a	n/a	n/a	n/a	n/a	15	6	5	4	n/a	n/a	n/a	n/a	n/a
187051	PROB	n/a	LTP123	ltpFR	9	n/a	n/a	n/a	n/a	n/a	n/a	n/a	11	5	3	3	n/a	n/a	n/a	n/a	n/a
188941	PROB	n/a	LTP123	ltpFR	9	n/a	n/a	n/a	n/a	n/a	n/a	n/a	17	9	6	2	n/a	n/a	n/a	n/a	n/a
190833	STOP	n/a	LTP123	ltpFR	9	n/a	n/a	n/a	n/a	n/a	n/a	n/a	n/a	n/a	n/a	n/a	n/a	n/a	n/a	n/a	n/a
192857	REC_START	n/a	LTP123	ltpFR	9	1	n/a	n/a	n/a	n/a	n/a	n/a	n/a	0	0	0	n/a	n/a	n/a	n/a	n/a
193555	REC_WORD	wordpools/wasnorm_wordpool.txt	LTP123	ltpFR	9	1	0	PEANUT	1032	n/a	n/a	0	n/a	0	0	0	n/a	n/a	n/a	n/a	n/a
194543	REC_WORD	wordpools/wasnorm_wordpool.txt	LTP123	ltpFR	9	1	n/a	DUST	508	n/a	n/a	n/a	n/a	0	0	0	n/a	n/a	n/a	n/a	n/a
195940	REC_WORD	wordpools/wasnorm_wordpool.txt	LTP123	ltpFR	9	1	0	DRAWING	494	n/a	n/a	0	n/a	0	0	0	n/a	n/a	n/a	n/a	n/a
197287	REC_WORD	wordpools/wasnorm_wordpool.txt	LTP123	ltpFR	9	1	0	CHAUFFEUR	283	n/a	n/a	1	n/a	0	0	0	n/a	n/a	n/a	n/a	n/a
199297	REC_WORD	wordpools/wasnorm_wordpool.txt	LTP123	ltpFR	9	1	0	WORKER	1621	n/a	n/a	1	n/a	0	0	0	n/a	n/a	n/a	n/a	n/a
200255	REC_WORD	wordpools/wasnorm_wordpool.txt	LTP123	ltpFR	9	1	0	COP	376	n/a	n/a	1	n/a	0	0	0	n/a	n/a	n/a	n/a	n/a
201762	REC_WORD	wordpools/wasnorm_wordpool.txt	LTP123	ltpFR	9	1	0	CHEF	290	n/a	n/a	1	n/a	0	0	0	n/a	n/a	n/a	n/a	n/a
203103	REC_WORD	wordpools/wasnorm_wordpool.txt	LTP123	ltpFR	9	1	0	RASPBERRY	1168	n/a	n/a	0	n/a	0	0	0	n/a	n/a	n/a	n/a	n/a
210886	REC_WORD	wordpools/wasnorm_wordpool.txt	LTP123	ltpFR	9	1	0	HIP	710	n/a	n/a	1	n/a	0	0	0	n/a	n/a	n/a	n/a	n/a
212442	REC_WORD	wordpools/wasnorm_wordpool.txt	LTP123	ltpFR	9	1	0	JOINT	758	n/a	n/a	0	n/a	0	0	0	n/a	n/a	n/a	n/a	n/a
224325	REC_WORD	wordpools/wasnorm_wordpool.txt	LTP123	ltpFR	9	1	0	BUTLER	204	n/a	n/a	1	n/a	0	0	0	n/a	n/a	n/a	n/a	n/a
226181	REC_WORD	wordpools/wasnorm_wordpool.txt	LTP123	ltpFR	9	1	0	OVEN	991	n/a	n/a	1	n/a	0	0	0	n/a	n/a	n/a	n/a	n/a
273836	START	n/a	LTP123	ltpFR	9	n/a	n/a	n/a	n/a	n/a	n/a	n/a	n/a	n/a	n/a	n/a	n/a	n/a	n/a	n/a	n/a
275345	PROB	n/a	LTP123	ltpFR	9	n/a	n/a	n/a	n/a	n/a	n/a	n/a	9	4	2	3	n/a	n/a	n/a	n/a	n/a
277227	PROB	n/a	LTP123	ltpFR	9	n/a	n/a	n/a	n/a	n/a	n/a	n/a	15	6	2	7	n/a	n/a	n/a	n/a	n/a
278943	PROB	n/a	LTP123	ltpFR	9	n/a	n/a	n/a	n/a	n/a	n/a	n/a	12	2	2	8	n/a	n/a	n/a	n/a	n/a
281835	STOP	n/a	LTP123	ltpFR	9	n/a	n/a	n/a	n/a	n/a	n/a	n/a	n/a	n/a	n/a	n/a	n/a	n/a	n/a	n/a	n/a
282758	WORD	wordpools/wasnorm_wordpool.txt	LTP123	ltpFR	9	2	0	CAFETERIA	217	n/a	n/a	1	n/a	0	0	0	0.57763671875	0.412841796875	1	upper	zerothre.ttf
285766	START	n/a	LTP123	ltpFR	9	n/a	n/a	n/a	n/a	n/a	n/a	n/a	n/a	n/a	n/a	n/a	n/a	n/a	n/a	n/a	n/a
286915	PROB	n/a	LTP123	ltpFR	9	n/a	n/a	n/a	n/a	n/a	n/a	n/a	12	5	3	4	n/a	n/a	n/a	n/a	n/a
288482	PROB	n/a	LTP123	ltpFR	9	n/a	n/a	n/a	n/a	n/a	n/a	n/a	8	4	1	3	n/a	n/a	n/a	n/a	n/a
290206	PROB	n/a	LTP123	ltpFR	9	n/a	n/a	n/a	n/a	n/a	n/a	n/a	16	1	8	7	n/a	n/a	n/a	n/a	n/a
293765	STOP	n/a	LTP123	ltpFR	9	n/a	n/a	n/a	n/a	n/a	n/a	n/a	n/a	n/a	n/a	n/a	n/a	n/a	n/a	n/a	n/a
294704	WORD	wordpools/wasnorm_wordpool.txt	LTP123	ltpFR	9	2	0	TRAY	1498	n/a	n/a	0	n/a	0	0	0	0.57763671875	0.412841796875	1	upper	zerothre.ttf
297711	START	n/a	LTP123	ltpFR	9	n/a	n/a	n/a	n/a	n/a	n/a	n/a	n/a	n/a	n/a	n/a	n/a	n/a	n/a	n/a	n/a
298537	PROB	n/a	LTP123	ltpFR	9	n/a	n/a	n/a	n/a	n/a	n/a	n/a	15	3	4	8	n/a	n/a	n/a	n/a	n/a
300078	PROB	n/a	LTP123	ltpFR	9	n/a	n/a	n/a	n/a	n/a	n/a	n/a	10	4	5	1	n/a	n/a	n/a	n/a	n/a
301659	PROB	n/a	LTP123	ltpFR	9	n/a	n/a	n/a	n/a	n/a	n/a	n/a	16	4	6	6	n/a	n/a	n/a	n/a	n/a
302984	PROB	n/a	LTP123	ltpFR	9	n/a	n/a	n/a	n/a	n/a	n/a	n/a	8	3	2	3	n/a	n/a	n/a	n/a	n/a
304785	STOP	n/a	LTP123	ltpFR	9	n/a	n/a	n/a	n/a	n/a	n/a	n/a	n/a	n/a	n/a	n/a	n/a	n/a	n/a	n/a	n/a
306891	WORD	wordpools/wasnorm_wordpool.txt	LTP123	ltpFR	9	2	1	OATS	968	n/a	n/a	0	n/a	0	0	0	0.422607421875	0.5869140625	0	lower	amplitud.ttf
309899	START	n/a	LTP123	ltpFR	9	n/a	n/a	n/a	n/a	n/a	n/a	n/a	n/a	n/a	n/a	n/a	n/a	n/a	n/a	n/a	n/a
310906	PROB	n/a	LTP123	ltpFR	9	n/a	n/a	n/a	n/a	n/a	n/a	n/a	15	4	7	4	n/a	n/a	n/a	n/a	n/a
312830	PROB	n/a	LTP123	ltpFR	9	n/a	n/a	n/a	n/a	n/a	n/a	n/a	6	2	2	2	n/a	n/a	n/a	n/a	n/a
313930	PROB	n/a	LTP123	ltpFR	9	n/a	n/a	n/a	n/a	n/a	n/a	n/a	8	3	1	4	n/a	n/a	n/a	n/a	n/a
315646	PROB	n/a	LTP123	ltpFR	9	n/a	n/a	n/a	n/a	n/a	n/a	n/a	12	5	2	5	n/a	n/a	n/a	n/a	n/a
316929	STOP	n/a	LTP123	ltpFR	9	n/a	n/a	n/a	n/a	n/a	n/a	n/a	n/a	n/a	n/a	n/a	n/a	n/a	n/a	n/a	n/a
318870	WORD	wordpools/wasnorm_wordpool.txt	LTP123	ltpFR	9	2	1	FARM	552	n/a	n/a	0	n/a	0	0	0	0.422607421875	0.5869140625	0	lower	amplitud.ttf
321878	START	n/a	LTP123	ltpFR	9	n/a	n/a	n/a	n/a	n/a	n/a	n/a	n/a	n/a	n/a	n/a	n/a	n/a	n/a	n/a	n/a
322785	PROB	n/a	LTP123	ltpFR	9	n/a	n/a	n/a	n/a	n/a	n/a	n/a	18	7	3	8	n/a	n/a	n/a	n/a	n/a
324302	PROB	n/a	LTP123	ltpFR	9	n/a	n/a	n/a	n/a	n/a	n/a	n/a	18	6	4	8	n/a	n/a	n/a	n/a	n/a
326102	PROB	n/a	LTP123	ltpFR	9	n/a	n/a	n/a	n/a	n/a	n/a	n/a	16	4	4	8	n/a	n/a	n/a	n/a	n/a
328458	STOP	n/a	LTP123	ltpFR	9	n/a	n/a	n/a	n/a	n/a	n/a	n/a	n/a	n/a	n/a	n/a	n/a	n/a	n/a	n/a	n/a
330716	WORD	wordpools/wasnorm_wordpool.txt	LTP123	ltpFR	9	2	0	CHIPMUNK	304	n/a	n/a	0	n/a	0	0	0	0.57763671875	0.412841796875	1	upper	zerothre.ttf
333723	START	n/a	LTP123	ltpFR	9	n/a	n/a	n/a	n/a	n/a	n/a	n/a	n/a	n/a	n/a	n/a	n/a	n/a	n/a	n/a	n/a
334873	PROB	n/a	LTP123	ltpFR	9	n/a	n/a	n/a	n/a	n/a	n/a	n/a	12	2	8	2	n/a	n/a	n/a	n/a	n/a
336248	PROB	n/a	LTP123	ltpFR	9	n/a	n/a	n/a	n/a	n/a	n/a	n/a	21	9	7	6	n/a	n/a	n/a	n/a	n/a
338854	PROB	n/a	LTP123	ltpFR	9	n/a	n/a	n/a	n/a	n/a	n/a	n/a	20	9	9	2	n/a	n/a	n/a	n/a	n/a
340825	STOP	n/a	LTP123	ltpFR	9	n/a	n/a	n/a	n/a	n/a	n/a	n/a	n/a	n/a	n/a	n/a	n/a	n/a	n/a	n/a	n/a
342613	WORD	wordpools/wasnorm_wordpool.txt	LTP123	ltpFR	9	2	0	COUSIN	392	n/a	n/a	1	n/a	0	0	0	0.57763671875	0.412841796875	1	upper	zerothre.ttf
345620	START	n/a	LTP123	ltpFR	9	n/a	n/a	n/a	n/a	n/a	n/a	n/a	n/a	n/a	n/a	n/a	n/a	n/a	n/a	n/a	n/a
346693	PROB	n/a	LTP123	ltpFR	9	n/a	n/a	n/a	n/a	n/a	n/a	n/a	14	1	9	4	n/a	n/a	n/a	n/a	n/a
348177	PROB	n/a	LTP123	ltpFR	9	n/a	n/a	n/a	n/a	n/a	n/a	n/a	14	5	3	6	n/a	n/a	n/a	n/a	n/a
350351	PROB	n/a	LTP123	ltpFR	9	n/a	n/a	n/a	n/a	n/a	n/a	n/a	11	3	1	7	n/a	n/a	n/a	n/a	n/a
352202	STOP	n/a	LTP123	ltpFR	9	n/a	n/a	n/a	n/a	n/a	n/a	n/a	n/a	n/a	n/a	n/a	n/a	n/a	n/a	n/a	n/a
354824	WORD	wordpools/wasnorm_wordpool.txt	LTP123	ltpFR	9	2	0	CAT	257	n/a	n/a	1	n/a	0	0	0	0.57763671875	0.412841796875	1	upper	zerothre.ttf
357832	START	n/a	LTP123	ltpFR	9	n/a	n/a	n/a	n/a	n/a	n/a	n/a	n/a	n/a	n/a	n/a	n/a	n/a	n/a	n/a	n/a
358872	PROB	n/a	LTP123	ltpFR	9	n/a	n/a	n/a	n/a	n/a	n/a	n/a	18	6	5	7	n/a	n/a	n/a	n/a	n/a
361056	PROB	n/a	LTP123	ltpFR	9	n/a	n/a	n/a	n/a	n/a	n/a	n/a	8	5	2	1	n/a	n/a	n/a	n/a	n/a
363671	PROB	n/a	LTP123	ltpFR	9	n/a	n/a	n/a	n/a	n/a	n/a	n/a	9	4	3	2	n/a	n/a	n/a	n/a	n/a
365442	STOP	n/a	LTP123	ltpFR	9	n/a	n/a	n/a	n/a	n/a	n/a	n/a	n/a	n/a	n/a	n/a	n/a	n/a	n/a	n/a	n/a
367036	WORD	wordpools/wasnorm_wordpool.txt	LTP123	ltpFR	9	2	0	PLUM	1090	n/a	n/a	0	n/a	0	0	0	0.57763671875	0.412841796875	1	upper	zerothre.ttf
370044	START	n/a	LTP123	ltpFR	9	n/a	n/a	n/a	n/a	n/a	n/a	n/a	n/a	n/a	n/a	n/a	n/a	n/a	n/a	n/a	n/a
371127	PROB	n/a	LTP123	ltpFR	9	n/a	n/a	n/a	n/a	n/a	n/a	n/a	8	3	4	1	n/a	n/a	n/a	n/a	n/a
372651	PROB	n/a	LTP123	ltpFR	9	n/a	n/a	n/a	n/a	n/a	n/a	n/a	11	2	2	7	n/a	n/a	n/a	n/a	n/a
374368	PROB	n/a	LTP123	ltpFR	9	n/a	n/a	n/a	n/a	n/a	n/a	n/a	15	6	6	3	n/a	n/a	n/a	n/a	n/a
375941	PROB	n/a	LTP123	ltpFR	9	n/a	n/a	n/a	n/a	n/a	n/a	n/a	8	6	1	1	n/a	n/a	n/a	n/a	n/a
377154	STOP	n/a	LTP123	ltpFR	9	n/a	n/a	n/a	n/a	n/a	n/a	n/a	n/a	n/a	n/a	n/a	n/a	n/a	n/a	n/a	n/a
379166	WORD	wordpools/wasnorm_wordpool.txt	LTP123	ltpFR	9	2	0	SCIENTIST	1249	n/a	n/a	1	n/a	0	0	0	0.57763671875	0.412841796875	1	upper	zerothre.ttf
382174	START	n/a	LTP123	ltpFR	9	n/a	n/a	n/a	n/a	n/a	n/a	n/a	n/a	n/a	n/a	n/a	n/a	n/a	n/a	n/a	n/a
383115	PROB	n/a	LTP123	ltpFR	9	n/a	n/a	n/a	n/a	n/a	n/a	n/a	16	9	4	3	n/a	n/a	n/a	n/a	n/a
385122	PROB	n/a	LTP123	ltpFR	9	n/a	n/a	n/a	n/a	n/a	n/a	n/a	14	1	9	4	n/a	n/a	n/a	n/a	n/a
386530	PROB	n/a	LTP123	ltpFR	9	n/a	n/a	n/a	n/a	n/a	n/a	n/a	12	2	1	9	n/a	n/a	n/a	n/a	n/a
388029	PROB	n/a	LTP123	ltpFR	9	n/a	n/a	n/a	n/a	n/a	n/a	n/a	14	5	3	6	n/a	n/a	n/a	n/a	n/a
389705	STOP	n/a	LTP123	ltpFR	9	n/a	n/a	n/a	n/a	n/a	n/a	n/a	n/a	n/a	n/a	n/a	n/a	n/a	n/a	n/a	n/a
391054	WORD	wordpools/wasnorm_wordpool.txt	LTP123	ltpFR	9	2	0	PANTHER	1009	n/a	n/a	1	n/a	0	0	0	0.57763671875	0.412841796875	1	upper	zerothre.ttf
394061	START	n/a	LTP123	ltpFR	9	n/a	n/a	n/a	n/a	n/a	n/a	n/a	n/a	n/a	n/a	n/a	n/a	n/a	n/a	n/a	n/a
395144	PROB	n/a	LTP123	ltpFR	9	n/a	n/a	n/a	n/a	n/a	n/a	n/a	15	1	5	9	n/a	n/a	n/a	n/a	n/a
397285	PROB	n/a	LTP123	ltpFR	9	n/a	n/a	n/a	n/a	n/a	n/a	n/a	19	9	8	2	n/a	n/a	n/a	n/a	n/a
399417	PROB	n/a	LTP123	ltpFR	9	n/a	n/a	n/a	n/a	n/a	n/a	n/a	25	7	9	9	n/a	n/a	n/a	n/a	n/a
401594	STOP	n/a	LTP123	ltpFR	9	n/a	n/a	n/a	n/a	n/a	n/a	n/a	n/a	n/a	n/a	n/a	n/a	n/a	n/a	n/a	n/a
403091	WORD	wordpools/wasnorm_wordpool.txt	LTP123	ltpFR	9	2	1	CHEESE	289	n/a	n/a	0	n/a	0	0	0	0.422607421875	0.5869140625	0	lower	amplitud.ttf
406099	START	n/a	LTP123	ltpFR	9	n/a	n/a	n/a	n/a	n/a	n/a	n/a	n/a	n/a	n/a	n/a	n/a	n/a	n/a	n/a	n/a
407022	PROB	n/a	LTP123	ltpFR	9	n/a	n/a	n/a	n/a	n/a	n/a	n/a	9	2	3	4	n/a	n/a	n/a	n/a	n/a
408663	PROB	n/a	LTP123	ltpFR	9	n/a	n/a	n/a	n/a	n/a	n/a	n/a	7	1	1	5	n/a	n/a	n/a	n/a	n/a
410038	PROB	n/a	LTP123	ltpFR	9	n/a	n/a	n/a	n/a	n/a	n/a	n/a	14	2	8	4	n/a	n/a	n/a	n/a	n/a
411413	PROB	n/a	LTP123	ltpFR	9	n/a	n/a	n/a	n/a	n/a	n/a	n/a	11	4	4	3	n/a	n/a	n/a	n/a	n/a
413154	STOP	n/a	LTP123	ltpFR	9	n/a	n/a	n/a	n/a	n/a	n/a	n/a	n/a	n/a	n/a	n/a	n/a	n/a	n/a	n/a	n/a
414978	WORD	wordpools/wasnorm_wordpool.txt	LTP123	ltpFR	9	2	1	CONTRACT	368	n/a	n/a	0	n/a	0	0	0	0.422607421875	0.5869140625	0	lower	amplitud.ttf
417985	START	n/a	LTP123	ltpFR	9	n/a	n/a	n/a	n/a	n/a	n/a	n/a	n/a	n/a	n/a	n/a	n/a	n/a	n/a	n/a	n/a
419001	PROB	n/a	LTP123	ltpFR	9	n/a	n/a	n/a	n/a	n/a	n/a	n/a	17	9	4	4	n/a	n/a	n/a	n/a	n/a
420875	PROB	n/a	LTP123	ltpFR	9	n/a	n/a	n/a	n/a	n/a	n/a	n/a	20	8	5	7	n/a	n/a	n/a	n/a	n/a
423142	PROB	n/a	LTP123	ltpFR	9	n/a	n/a	n/a	n/a	n/a	n/a	n/a	21	7	5	9	n/a	n/a	n/a	n/a	n/a
425082	STOP	n/a	LTP123	ltpFR	9	n/a	n/a	n/a	n/a	n/a	n/a	n/a	n/a	n/a	n/a	n/a	n/a	n/a	n/a	n/a	n/a
427040	WORD	wordpools/wasnorm_wordpool.txt	LTP123	ltpFR	9	2	1	GRILL	661	n/a	n/a	0	n/a	0	0	0	0.422607421875	0.5869140625	0	lower	amplitud.ttf
430049	START	n/a	LTP123	ltpFR	9	n/a	n/a	n/a	n/a	n/a	n/a	n/a	n/a	n/a	n/a	n/a	n/a	n/a	n/a	n/a	n/a
431206	PROB	n/a	LTP123	ltpFR	9	n/a	n/a	n/a	n/a	n/a	n/a	n/a	18	5	8	5	n/a	n/a	n/a	n/a	n/a
432996	PROB	n/a	LTP123	ltpFR	9	n/a	n/a	n/a	n/a	n/a	n/a	n/a	14	2	8	4	n/a	n/a	n/a	n/a	n/a
434397	PROB	n/a	LTP123	ltpFR	9	n/a	n/a	n/a	n/a	n/a	n/a	n/a	16	7	1	8	n/a	n/a	n/a	n/a	n/a
436538	STOP	n/a	LTP123	ltpFR	9	n/a	n/a	n/a	n/a	n/a	n/a	n/a	n/a	n/a	n/a	n/a	n/a	n/a	n/a	n/a	n/a
439128	WORD	wordpools/wasnorm_wordpool.txt	LTP123	ltpFR	9	2	1	POTATO	1115	n/a	n/a	0	n/a	0	0	0	0.422607421875	0.5869140625	0	lower	amplitud.ttf
442136	START	n/a	LTP123	ltpFR	9	n/a	n/a	n/a	n/a	n/a	n/a	n/a	n/a	n/a	n/a	n/a	n/a	n/a	n/a	n/a	n/a
443001	PROB	n/a	LTP123	ltpFR	9	n/a	n/a	n/a	n/a	n/a	n/a	n/a	11	2	8	1	n/a	n/a	n/a	n/a	n/a
444385	PROB	n/a	LTP123	ltpFR	9	n/a	n/a	n/a	n/a	n/a	n/a	n/a	23	9	7	7	n/a	n/a	n/a	n/a	n/a
446601	PROB	n/a	LTP123	ltpFR	9	n/a	n/a	n/a	n/a	n/a	n/a	n/a	9	2	2	5	n/a	n/a	n/a	n/a	n/a
448275	PROB	n/a	LTP123	ltpFR	9	n/a	n/a	n/a	n/a	n/a	n/a	n/a	13	8	2	3	n/a	n/a	n/a	n/a	n/a
449578	STOP	n/a	LTP123	ltpFR	9	n/a	n/a	n/a	n/a	n/a	n/a	n/a	n/a	n/a	n/a	n/a	n/a	n/a	n/a	n/a	n/a
450948	WORD	wordpools/wasnorm_wordpool.txt	LTP123	ltpFR	9	2	1	GIRL	637	n/a	n/a	1	n/a	0	0	0	0.422607421875	0.5869140625	0	lower	amplitud.ttf
453956	START	n/a	LTP123	ltpFR	9	n/a	n/a	n/a	n/a	n/a	n/a	n/a	n/a	n/a	n/a	n/a	n/a	n/a	n/a	n/a	n/a
454813	PROB	n/a	LTP123	ltpFR	9	n/a	n/a	n/a	n/a	n/a	n/a	n/a	17	6	6	5	n/a	n/a	n/a	n/a	n/a
456555	PROB	n/a	LTP123	ltpFR	9	n/a	n/a	n/a	n/a	n/a	n/a	n/a	20	8	8	4	n/a	n/a	n/a	n/a	n/a
458230	PROB	n/a	LTP123	ltpFR	9	n/a	n/a	n/a	n/a	n/a	n/a	n/a	19	9	9	1	n/a	n/a	n/a	n/a	n/a
460063	PROB	n/a	LTP123	ltpFR	9	n/a	n/a	n/a	n/a	n/a	n/a	n/a	17	2	9	6	n/a	n/a	n/a	n/a	n/a
461905	STOP	n/a	LTP123	ltpFR	9	n/a	n/a	n/a	n/a	n/a	n/a	n/a	n/a	n/a	n/a	n/a	n/a	n/a	n/a	n/a	n/a
462969	WORD	wordpools/wasnorm_wordpool.txt	LTP123	ltpFR	9	2	1	SURGEON	1413	n/a	n/a	1	n/a	0	0	0	0.422607421875	0.5869140625	0	lower	amplitud.ttf
465976	START	n/a	LTP123	ltpFR	9	n/a	n/a	n/a	n/a	n/a	n/a	n/a	n/a	n/a	n/a	n/a	n/a	n/a	n/a	n/a	n/a
466967	PROB	n/a	LTP123	ltpFR	9	n/a	n/a	n/a	n/a	n/a	n/a	n/a	17	5	7	5	n/a	n/a	n/a	n/a	n/a
468418	PROB	n/a	LTP123	ltpFR	9	n/a	n/a	n/a	n/a	n/a	n/a	n/a	10	4	1	5	n/a	n/a	n/a	n/a	n/a
471075	PROB	n/a	LTP123	ltpFR	9	n/a	n/a	n/a	n/a	n/a	n/a	n/a	15	2	8	5	n/a	n/a	n/a	n/a	n/a
473976	STOP	n/a	LTP123	ltpFR	9	n/a	n/a	n/a	n/a	n/a	n/a	n/a	n/a	n/a	n/a	n/a	n/a	n/a	n/a	n/a	n/a
475840	REC_START	n/a	LTP123	ltpFR	9	2	n/a	n/a	n/a	n/a	n/a	n/a	n/a	0	0	0	n/a	n/a	n/a	n/a	n/a
476942	REC_WORD	wordpools/wasnorm_wordpool.txt	LTP123	ltpFR	9	2	1	GIRL	637	n/a	n/a	1	n/a	0	0	0	n/a	n/a	n/a	n/a	n/a
477626	REC_WORD	wordpools/wasnorm_wordpool.txt	LTP123	ltpFR	9	2	1	GRILL	661	n/a	n/a	0	n/a	0	0	0	n/a	n/a	n/a	n/a	n/a
478174	REC_WORD	wordpools/wasnorm_wordpool.txt	LTP123	ltpFR	9	2	1	SURGEON	1413	n/a	n/a	1	n/a	0	0	0	n/a	n/a	n/a	n/a	n/a
479048	REC_WORD	wordpools/wasnorm_wordpool.txt	LTP123	ltpFR	9	2	0	CHIPMUNK	304	n/a	n/a	0	n/a	0	0	0	n/a	n/a	n/a	n/a	n/a
479916	REC_WORD	wordpools/wasnorm_wordpool.txt	LTP123	ltpFR	9	2	1	CHEESE	289	n/a	n/a	0	n/a	0	0	0	n/a	n/a	n/a	n/a	n/a
482714	REC_WORD	wordpools/wasnorm_wordpool.txt	LTP123	ltpFR	9	2	0	CAFETERIA	217	n/a	n/a	1	n/a	0	0	0	n/a	n/a	n/a	n/a	n/a
483777	REC_WORD	wordpools/wasnorm_wordpool.txt	LTP123	ltpFR	9	2	0	TRAY	1498	n/a	n/a	0	n/a	0	0	0	n/a	n/a	n/a	n/a	n/a
490736	REC_WORD	wordpools/wasnorm_wordpool.txt	LTP123	ltpFR	9	2	0	CAT	257	n/a	n/a	1	n/a	0	0	0	n/a	n/a	n/a	n/a	n/a
491688	REC_WORD	wordpools/wasnorm_wordpool.txt	LTP123	ltpFR	9	2	0	PLUM	1090	n/a	n/a	0	n/a	0	0	0	n/a	n/a	n/a	n/a	n/a
505123	REC_WORD	wordpools/wasnorm_wordpool.txt	LTP123	ltpFR	9	2	1	FARM	552	n/a	n/a	0	n/a	0	0	0	n/a	n/a	n/a	n/a	n/a
506475	REC_WORD	wordpools/wasnorm_wordpool.txt	LTP123	ltpFR	9	2	1	OATS	968	n/a	n/a	0	n/a	0	0	0	n/a	n/a	n/a	n/a	n/a
558411	WORD	wordpools/wasnorm_wordpool.txt	LTP123	ltpFR	9	3	1	LIST	830	n/a	n/a	0	n/a	0	0	0	0.422607421875	0.5869140625	0	lower	amplitud.ttf
562384	WORD	wordpools/wasnorm_wordpool.txt	LTP123	ltpFR	9	3	1	BOSS	152	n/a	n/a	0	n/a	0	0	0	0.422607421875	0.5869140625	0	lower	amplitud.ttf
566333	WORD	wordpools/wasnorm_wordpool.txt	LTP123	ltpFR	9	3	1	SECRETARY	1265	n/a	n/a	1	n/a	0	0	0	0.422607421875	0.5869140625	0	lower	amplitud.ttf
570215	WORD	wordpools/wasnorm_wordpool.txt	LTP123	ltpFR	9	3	1	TUNNEL	1519	n/a	n/a	0	n/a	0	0	0	0.422607421875	0.5869140625	0	lower	amplitud.ttf
574205	WORD	wordpools/wasnorm_wordpool.txt	LTP123	ltpFR	9	3	1	NICOTINE	951	n/a	n/a	0	n/a	0	0	0	0.422607421875	0.5869140625	0	lower	amplitud.ttf
578237	WORD	wordpools/wasnorm_wordpool.txt	LTP123	ltpFR	9	3	1	WAITER	1580	n/a	n/a	1	n/a	0	0	0	0.422607421875	0.5869140625	0	lower	amplitud.ttf
582236	WORD	wordpools/wasnorm_wordpool.txt	LTP123	ltpFR	9	3	1	ARROW	40	n/a	n/a	0	n/a	0	0	0	0.422607421875	0.5869140625	0	lower	amplitud.ttf
586059	WORD	wordpools/wasnorm_wordpool.txt	LTP123	ltpFR	9	3	1	FOLDER	588	n/a	n/a	0	n/a	0	0	0	0.422607421875	0.5869140625	0	lower	amplitud.ttf
590015	WORD	wordpools/wasnorm_wordpool.txt	LTP123	ltpFR	9	3	1	COMPUTER	359	n/a	n/a	0	n/a	0	0	0	0.422607421875	0.5869140625	0	lower	amplitud.ttf
594065	WORD	wordpools/wasnorm_wordpool.txt	LTP123	ltpFR	9	3	1	RIBBON	1189	n/a	n/a	0	n/a	0	0	0	0.422607421875	0.5869140625	0	lower	amplitud.ttf
597879	WORD	wordpools/wasnorm_wordpool.txt	LTP123	ltpFR	9	3	1	SHEEP	1278	n/a	n/a	1	n/a	0	0	0	0.422607421875	0.5869140625	0	lower	amplitud.ttf
601986	WORD	wordpools/wasnorm_wordpool.txt	LTP123	ltpFR	9	3	1	DUST	508	n/a	n/a	0	n/a	0	0	0	0.422607421875	0.5869140625	0	lower	amplitud.ttf
606169	WORD	wordpools/wasnorm_wordpool.txt	LTP123	ltpFR	9	3	1	CAMEL	223	n/a	n/a	1	n/a	0	0	0	0.422607421875	0.5869140625	0	lower	amplitud.ttf
610301	WORD	wordpools/wasnorm_wordpool.txt	LTP123	ltpFR	9	3	1	HALL	677	n/a	n/a	0	n/a	0	0	0	0.422607421875	0.5869140625	0	lower	amplitud.ttf
614233	WORD	wordpools/wasnorm_wordpool.txt	LTP123	ltpFR	9	3	1	MAT	877	n/a	n/a	0	n/a	0	0	0	0.422607421875	0.5869140625	0	lower	amplitud.ttf
618331	WORD	wordpools/wasnorm_wordpool.txt	LTP123	ltpFR	9	3	1	OX	994	n/a	n/a	1	n/a	0	0	0	0.422607421875	0.5869140625	0	lower	amplitud.ttf
621339	START	n/a	LTP123	ltpFR	9	n/a	n/a	n/a	n/a	n/a	n/a	n/a	n/a	n/a	n/a	n/a	n/a	n/a	n/a	n/a	n/a
622180	PROB	n/a	LTP123	ltpFR	9	n/a	n/a	n/a	n/a	n/a	n/a	n/a	18	8	3	7	n/a	n/a	n/a	n/a	n/a
624479	PROB	n/a	LTP123	ltpFR	9	n/a	n/a	n/a	n/a	n/a	n/a	n/a	10	1	5	4	n/a	n/a	n/a	n/a	n/a
625986	PROB	n/a	LTP123	ltpFR	9	n/a	n/a	n/a	n/a	n/a	n/a	n/a	14	5	1	8	n/a	n/a	n/a	n/a	n/a
627586	PROB	n/a	LTP123	ltpFR	9	n/a	n/a	n/a	n/a	n/a	n/a	n/a	21	3	9	9	n/a	n/a	n/a	n/a	n/a
629258	STOP	n/a	LTP123	ltpFR	9	n/a	n/a	n/a	n/a	n/a	n/a	n/a	n/a	n/a	n/a	n/a	n/a	n/a	n/a	n/a	n/a
631144	REC_START	n/a	LTP123	ltpFR	9	3	n/a	n/a	n/a	n/a	n/a	n/a	n/a	0	0	0	n/a	n/a	n/a	n/a	n/a
631922	REC_WORD	wordpools/wasnorm_wordpool.txt	LTP123	ltpFR	9	3	1	HALL	677	n/a	n/a	0	n/a	0	0	0	n/a	n/a	n/a	n/a	n/a
632645	REC_WORD	wordpools/wasnorm_wordpool.txt	LTP123	ltpFR	9	3	1	MAT	877	n/a	n/a	0	n/a	0	0	0	n/a	n/a	n/a	n/a	n/a
633568	REC_WORD	wordpools/wasnorm_wordpool.txt	LTP123	ltpFR	9	3	1	DUST	508	n/a	n/a	0	n/a	0	0	0	n/a	n/a	n/a	n/a	n/a
635185	REC_WORD	wordpools/wasnorm_wordpool.txt	LTP123	ltpFR	9	3	1	OX	994	n/a	n/a	1	n/a	0	0	0	n/a	n/a	n/a	n/a	n/a
636746	REC_WORD	wordpools/wasnorm_wordpool.txt	LTP123	ltpFR	9	3	1	SECRETARY	1265	n/a	n/a	1	n/a	0	0	0	n/a	n/a	n/a	n/a	n/a
638073	REC_WORD	wordpools/wasnorm_wordpool.txt	LTP123	ltpFR	9	3	1	BOSS	152	n/a	n/a	0	n/a	0	0	0	n/a	n/a	n/a	n/a	n/a
638916	REC_WORD	wordpools/wasnorm_wordpool.txt	LTP123	ltpFR	9	3	1	FOLDER	588	n/a	n/a	0	n/a	0	0	0	n/a	n/a	n/a	n/a	n/a
639984	REC_WORD	wordpools/wasnorm_wordpool.txt	LTP123	ltpFR	9	3	1	LIST	830	n/a	n/a	0	n/a	0	0	0	n/a	n/a	n/a	n/a	n/a
645766	REC_WORD	wordpools/wasnorm_wordpool.txt	LTP123	ltpFR	9	3	1	HALL	677	n/a	n/a	0	n/a	0	0	0	n/a	n/a	n/a	n/a	n/a
671502	REC_WORD	wordpools/wasnorm_wordpool.txt	LTP123	ltpFR	9	3	1	COMPUTER	359	n/a	n/a	0	n/a	0	0	0	n/a	n/a	n/a	n/a	n/a
720694	WORD	wordpools/wasnorm_wordpool.txt	LTP123	ltpFR	9	4	1	PELT	1040	n/a	n/a	0	n/a	0	0	0	0.422607421875	0.5869140625	0	lower	amplitud.ttf
724801	WORD	wordpools/wasnorm_wordpool.txt	LTP123	ltpFR	9	4	1	GAVEL	627	n/a	n/a	0	n/a	0	0	0	0.422607421875	0.5869140625	0	lower	amplitud.ttf
728716	WORD	wordpools/wasnorm_wordpool.txt	LTP123	ltpFR	9	4	1	YARN	1631	n/a	n/a	0	n/a	0	0	0	0.422607421875	0.5869140625	0	lower	amplitud.ttf
732856	WORD	wordpools/wasnorm_wordpool.txt	LTP123	ltpFR	9	4	1	ASTRONAUT	51	n/a	n/a	1	n/a	0	0	0	0.422607421875	0.5869140625	0	lower	amplitud.ttf
736930	WORD	wordpools/wasnorm_wordpool.txt	LTP123	ltpFR	9	4	1	SHRINE	1298	n/a	n/a	0	n/a	0	0	0	0.422607421875	0.5869140625	0	lower	amplitud.ttf
740887	WORD	wordpools/wasnorm_wordpool.txt	LTP123	ltpFR	9	4	0	MONK	910	n/a	n/a	1	n/a	0	0	0	0.57763671875	0.412841796875	1	upper	zerothre.ttf
744927	WORD	wordpools/wasnorm_wordpool.txt	LTP123	ltpFR	9	4	0	CREATURE	403	n/a	n/a	1	n/a	0	0	0	0.57763671875	0.412841796875	1	upper	zerothre.ttf
748992	WORD	wordpools/wasnorm_wordpool.txt	LTP123	ltpFR	9	4	0	DONKEY	484	n/a	n/a	1	n/a	0	0	0	0.57763671875	0.412841796875	1	upper	zerothre.ttf
752857	WORD	wordpools/wasnorm_wordpool.txt	LTP123	ltpFR	9	4	1	GRATE	657	n/a	n/a	0	n/a	0	0	0	0.422607421875	0.5869140625	0	lower	amplitud.ttf
757031	WORD	wordpools/wasnorm_wordpool.txt	LTP123	ltpFR	9	4	1	COOLER	375	n/a	n/a	0	n/a	0	0	0	0.422607421875	0.5869140625	0	lower	amplitud.ttf
761197	WORD	wordpools/wasnorm_wordpool.txt	LTP123	ltpFR	9	4	1	INSTRUCTOR	741	n/a	n/a	1	n/a	0	0	0	0.422607421875	0.5869140625	0	lower	amplitud.ttf
765036	WORD	wordpools/wasnorm_wordpool.txt	LTP123	ltpFR	9	4	0	THREAD	1460	n/a	n/a	0	n/a	0	0	0	0.57763671875	0.412841796875	1	upper	zerothre.ttf
769002	WORD	wordpools/wasnorm_wordpool.txt	LTP123	ltpFR	9	4	0	RAT	1169	n/a	n/a	0	n/a	0	0	0	0.57763671875	0.412841796875	1	upper	zerothre.ttf
773034	WORD	wordpools/wasnorm_wordpool.txt	LTP123	ltpFR	9	4	0	CHECK	284	n/a	n/a	0	n/a	0	0	0	0.57763671875	0.412841796875	1	upper	zerothre.ttf
777133	WORD	wordpools/wasnorm_wordpool.txt	LTP123	ltpFR	9	4	0	BANK	83	n/a	n/a	1	n/a	0	0	0	0.57763671875	0.412841796875	1	upper	zerothre.ttf
781107	WORD	wordpools/wasnorm_wordpool.txt	LTP123	ltpFR	9	4	0	SCHOOL	1248	n/a	n/a	1	n/a	0	0	0	0.57763671875	0.412841796875	1	upper	zerothre.ttf
784114	START	n/a	LTP123	ltpFR	9	n/a	n/a	n/a	n/a	n/a	n/a	n/a	n/a	n/a	n/a	n/a	n/a	n/a	n/a	n/a	n/a
785147	PROB	n/a	LTP123	ltpFR	9	n/a	n/a	n/a	n/a	n/a	n/a	n/a	14	5	6	3	n/a	n/a	n/a	n/a	n/a
787205	PROB	n/a	LTP123	ltpFR	9	n/a	n/a	n/a	n/a	n/a	n/a	n/a	5	1	2	2	n/a	n/a	n/a	n/a	n/a
788661	PROB	n/a	LTP123	ltpFR	9	n/a	n/a	n/a	n/a	n/a	n/a	n/a	13	1	3	9	n/a	n/a	n/a	n/a	n/a
790719	PROB	n/a	LTP123	ltpFR	9	n/a	n/a	n/a	n/a	n/a	n/a	n/a	10	3	1	6	n/a	n/a	n/a	n/a	n/a
792561	PROB	n/a	LTP123	ltpFR	9	n/a	n/a	n/a	n/a	n/a	n/a	n/a	22	9	8	5	n/a	n/a	n/a	n/a	n/a
794984	PROB	n/a	LTP123	ltpFR	9	n/a	n/a	n/a	n/a	n/a	n/a	n/a	14	5	2	7	n/a	n/a	n/a	n/a	n/a
796800	PROB	n/a	LTP123	ltpFR	9	n/a	n/a	n/a	n/a	n/a	n/a	n/a	22	5	8	9	n/a	n/a	n/a	n/a	n/a
799673	STOP	n/a	LTP123	ltpFR	9	n/a	n/a	n/a	n/a	n/a	n/a	n/a	n/a	n/a	n/a	n/a	n/a	n/a	n/a	n/a	n/a
801941	REC_START	n/a	LTP123	ltpFR	9	4	n/a	n/a	n/a	n/a	n/a	n/a	n/a	0	0	0	n/a	n/a	n/a	n/a	n/a
802794	REC_WORD	wordpools/wasnorm_wordpool.txt	LTP123	ltpFR	9	4	0	SCHOOL	1248	n/a	n/a	1	n/a	0	0	0	n/a	n/a	n/a	n/a	n/a
803811	REC_WORD	wordpools/wasnorm_wordpool.txt	LTP123	ltpFR	9	4	0	THREAD	1460	n/a	n/a	0	n/a	0	0	0	n/a	n/a	n/a	n/a	n/a
805333	REC_WORD	wordpools/wasnorm_wordpool.txt	LTP123	ltpFR	9	4	1	YARN	1631	n/a	n/a	0	n/a	0	0	0	n/a	n/a	n/a	n/a	n/a
806446	REC_WORD	wordpools/wasnorm_wordpool.txt	LTP123	ltpFR	9	4	0	BANK	83	n/a	n/a	1	n/a	0	0	0	n/a	n/a	n/a	n/a	n/a
807653	REC_WORD	wordpools/wasnorm_wordpool.txt	LTP123	ltpFR	9	4	1	ASTRONAUT	51	n/a	n/a	1	n/a	0	0	0	n/a	n/a	n/a	n/a	n/a
810455	REC_WORD	wordpools/wasnorm_wordpool.txt	LTP123	ltpFR	9	4	n/a	STATUE	1374	n/a	n/a	n/a	n/a	0	0	0	n/a	n/a	n/a	n/a	n/a
811455	REC_WORD_VV	wordpools/wasnorm_wordpool.txt	LTP123	ltpFR	9	4	n/a	<>	-1	n/a	n/a	n/a	n/a	0	0	0	n/a	n/a	n/a	n/a	n/a
822310	REC_WORD	wordpools/wasnorm_wordpool.txt	LTP123	ltpFR	9	4	0	DONKEY	484	n/a	n/a	1	n/a	0	0	0	n/a	n/a	n/a	n/a	n/a
824195	REC_WORD	wordpools/wasnorm_wordpool.txt	LTP123	ltpFR	9	4	1	SHEEP	1278	n/a	n/a	1	n/a	0	0	0	n/a	n/a	n/a	n/a	n/a
880297	START	n/a	LTP123	ltpFR	9	n/a	n/a	n/a	n/a	n/a	n/a	n/a	n/a	n/a	n/a	n/a	n/a	n/a	n/a	n/a	n/a
881803	PROB	n/a	LTP123	ltpFR	9	n/a	n/a	n/a	n/a	n/a	n/a	n/a	22	9	5	8	n/a	n/a	n/a	n/a	n/a
884885	PROB	n/a	LTP123	ltpFR	9	n/a	n/a	n/a	n/a	n/a	n/a	n/a	16	7	2	7	n/a	n/a	n/a	n/a	n/a
886743	PROB	n/a	LTP123	ltpFR	9	n/a	n/a	n/a	n/a	n/a	n/a	n/a	10	5	3	2	n/a	n/a	n/a	n/a	n/a
888177	PROB	n/a	LTP123	ltpFR	9	n/a	n/a	n/a	n/a	n/a	n/a	n/a	6	2	2	2	n/a	n/a	n/a	n/a	n/a
889327	PROB	n/a	LTP123	ltpFR	9	n/a	n/a	n/a	n/a	n/a	n/a	n/a	14	8	5	1	n/a	n/a	n/a	n/a	n/a
891251	PROB	n/a	LTP123	ltpFR	9	n/a	n/a	n/a	n/a	n/a	n/a	n/a	12	8	1	3	n/a	n/a	n/a	n/a	n/a
896296	STOP	n/a	LTP123	ltpFR	9	n/a	n/a	n/a	n/a	n/a	n/a	n/a	n/a	n/a	n/a	n/a	n/a	n/a	n/a	n/a	n/a
897182	WORD	wordpools/wasnorm_wordpool.txt	LTP123	ltpFR	9	5	1	PRUNE	1134	n/a	n/a	0	n/a	0	0	0	0.422607421875	0.5869140625	0	lower	amplitud.ttf
900190	START	n/a	LTP123	ltpFR	9	n/a	n/a	n/a	n/a	n/a	n/a	n/a	n/a	n/a	n/a	n/a	n/a	n/a	n/a	n/a	n/a
901231	PROB	n/a	LTP123	ltpFR	9	n/a	n/a	n/a	n/a	n/a	n/a	n/a	12	2	4	6	n/a	n/a	n/a	n/a	n/a
903072	PROB	n/a	LTP123	ltpFR	9	n/a	n/a	n/a	n/a	n/a	n/a	n/a	21	7	6	9	n/a	n/a	n/a	n/a	n/a
905138	PROB	n/a	LTP123	ltpFR	9	n/a	n/a	n/a	n/a	n/a	n/a	n/a	16	4	8	4	n/a	n/a	n/a	n/a	n/a
907179	PROB	n/a	LTP123	ltpFR	9	n/a	n/a	n/a	n/a	n/a	n/a	n/a	12	1	6	5	n/a	n/a	n/a	n/a	n/a
909952	PROB	n/a	LTP123	ltpFR	9	n/a	n/a	n/a	n/a	n/a	n/a	n/a	10	5	2	3	n/a	n/a	n/a	n/a	n/a
913085	PROB	n/a	LTP123	ltpFR	9	n/a	n/a	n/a	n/a	n/a	n/a	n/a	13	2	9	2	n/a	n/a	n/a	n/a	n/a
915033	STOP	n/a	LTP123	ltpFR	9	n/a	n/a	n/a	n/a	n/a	n/a	n/a	n/a	n/a	n/a	n/a	n/a	n/a	n/a	n/a	n/a
917067	WORD	wordpools/wasnorm_wordpool.txt	LTP123	ltpFR	9	5	1	OATMEAL	967	n/a	n/a	0	n/a	0	0	0	0.422607421875	0.5869140625	0	lower	amplitud.ttf
920074	START	n/a	LTP123	ltpFR	9	n/a	n/a	n/a	n/a	n/a	n/a	n/a	n/a	n/a	n/a	n/a	n/a	n/a	n/a	n/a	n/a
920914	PROB	n/a	LTP123	ltpFR	9	n/a	n/a	n/a	n/a	n/a	n/a	n/a	16	6	3	7	n/a	n/a	n/a	n/a	n/a
923215	PROB	n/a	LTP123	ltpFR	9	n/a	n/a	n/a	n/a	n/a	n/a	n/a	19	9	6	4	n/a	n/a	n/a	n/a	n/a
925804	PROB	n/a	LTP123	ltpFR	9	n/a	n/a	n/a	n/a	n/a	n/a	n/a	15	7	5	3	n/a	n/a	n/a	n/a	n/a
927338	PROB	n/a	LTP123	ltpFR	9	n/a	n/a	n/a	n/a	n/a	n/a	n/a	13	5	3	5	n/a	n/a	n/a	n/a	n/a
929054	PROB	n/a	LTP123	ltpFR	9	n/a	n/a	n/a	n/a	n/a	n/a	n/a	13	3	7	3	n/a	n/a	n/a	n/a	n/a
930902	PROB	n/a	LTP123	ltpFR	9	n/a	n/a	n/a	n/a	n/a	n/a	n/a	18	9	1	8	n/a	n/a	n/a	n/a	n/a
932578	PROB	n/a	LTP123	ltpFR	9	n/a	n/a	n/a	n/a	n/a	n/a	n/a	20	6	5	9	n/a	n/a	n/a	n/a	n/a
936074	STOP	n/a	LTP123	ltpFR	9	n/a	n/a	n/a	n/a	n/a	n/a	n/a	n/a	n/a	n/a	n/a	n/a	n/a	n/a	n/a	n/a
937193	WORD	wordpools/wasnorm_wordpool.txt	LTP123	ltpFR	9	5	1	ASSOCIATE	49	n/a	n/a	1	n/a	0	0	0	0.422607421875	0.5869140625	0	lower	amplitud.ttf
940201	START	n/a	LTP123	ltpFR	9	n/a	n/a	n/a	n/a	n/a	n/a	n/a	n/a	n/a	n/a	n/a	n/a	n/a	n/a	n/a	n/a
941400	PROB	n/a	LTP123	ltpFR	9	n/a	n/a	n/a	n/a	n/a	n/a	n/a	12	6	3	3	n/a	n/a	n/a	n/a	n/a
943083	PROB	n/a	LTP123	ltpFR	9	n/a	n/a	n/a	n/a	n/a	n/a	n/a	21	7	8	6	n/a	n/a	n/a	n/a	n/a
945115	PROB	n/a	LTP123	ltpFR	9	n/a	n/a	n/a	n/a	n/a	n/a	n/a	16	7	6	3	n/a	n/a	n/a	n/a	n/a
946847	PROB	n/a	LTP123	ltpFR	9	n/a	n/a	n/a	n/a	n/a	n/a	n/a	8	4	3	1	n/a	n/a	n/a	n/a	n/a
949430	PROB	n/a	LTP123	ltpFR	9	n/a	n/a	n/a	n/a	n/a	n/a	n/a	19	7	9	3	n/a	n/a	n/a	n/a	n/a
951263	PROB	n/a	LTP123	ltpFR	9	n/a	n/a	n/a	n/a	n/a	n/a	n/a	12	4	3	5	n/a	n/a	n/a	n/a	n/a
953046	PROB	n/a	LTP123	ltpFR	9	n/a	n/a	n/a	n/a	n/a	n/a	n/a	19	2	9	8	n/a	n/a	n/a	n/a	n/a
954769	STOP	n/a	LTP123	ltpFR	9	n/a	n/a	n/a	n/a	n/a	n/a	n/a	n/a	n/a	n/a	n/a	n/a	n/a	n/a	n/a	n/a
957177	WORD	wordpools/wasnorm_wordpool.txt	LTP123	ltpFR	9	5	0	SEAT	1264	n/a	n/a	1	n/a	0	0	0	0.57763671875	0.412841796875	1	upper	zerothre.ttf
960185	START	n/a	LTP123	ltpFR	9	n/a	n/a	n/a	n/a	n/a	n/a	n/a	n/a	n/a	n/a	n/a	n/a	n/a	n/a	n/a	n/a
960992	PROB	n/a	LTP123	ltpFR	9	n/a	n/a	n/a	n/a	n/a	n/a	n/a	11	5	3	3	n/a	n/a	n/a	n/a	n/a
962576	PROB	n/a	LTP123	ltpFR	9	n/a	n/a	n/a	n/a	n/a	n/a	n/a	15	6	4	5	n/a	n/a	n/a	n/a	n/a
963824	PROB	n/a	LTP123	ltpFR	9	n/a	n/a	n/a	n/a	n/a	n/a	n/a	20	4	9	7	n/a	n/a	n/a	n/a	n/a
966574	PROB	n/a	LTP123	ltpFR	9	n/a	n/a	n/a	n/a	n/a	n/a	n/a	11	2	3	6	n/a	n/a	n/a	n/a	n/a
968398	PROB	n/a	LTP123	ltpFR	9	n/a	n/a	n/a	n/a	n/a	n/a	n/a	24	6	9	9	n/a	n/a	n/a	n/a	n/a
970348	PROB	n/a	LTP123	ltpFR	9	n/a	n/a	n/a	n/a	n/a	n/a	n/a	9	4	3	2	n/a	n/a	n/a	n/a	n/a
972564	PROB	n/a	LTP123	ltpFR	9	n/a	n/a	n/a	n/a	n/a	n/a	n/a	7	3	1	3	n/a	n/a	n/a	n/a	n/a
974521	PROB	n/a	LTP123	ltpFR	9	n/a	n/a	n/a	n/a	n/a	n/a	n/a	13	3	2	8	n/a	n/a	n/a	n/a	n/a
976146	STOP	n/a	LTP123	ltpFR	9	n/a	n/a	n/a	n/a	n/a	n/a	n/a	n/a	n/a	n/a	n/a	n/a	n/a	n/a	n/a	n/a
977345	WORD	wordpools/wasnorm_wordpool.txt	LTP123	ltpFR	9	5	0	MOUSE	925	n/a	n/a	0	n/a	0	0	0	0.57763671875	0.412841796875	1	upper	zerothre.ttf
980353	START	n/a	LTP123	ltpFR	9	n/a	n/a	n/a	n/a	n/a	n/a	n/a	n/a	n/a	n/a	n/a	n/a	n/a	n/a	n/a	n/a
981544	PROB	n/a	LTP123	ltpFR	9	n/a	n/a	n/a	n/a	n/a	n/a	n/a	6	1	4	1	n/a	n/a	n/a	n/a	n/a
983034	PROB	n/a	LTP123	ltpFR	9	n/a	n/a	n/a	n/a	n/a	n/a	n/a	11	2	4	5	n/a	n/a	n/a	n/a	n/a
985334	PROB	n/a	LTP123	ltpFR	9	n/a	n/a	n/a	n/a	n/a	n/a	n/a	12	6	4	2	n/a	n/a	n/a	n/a	n/a
986891	PROB	n/a	LTP123	ltpFR	9	n/a	n/a	n/a	n/a	n/a	n/a	n/a	20	6	7	7	n/a	n/a	n/a	n/a	n/a
989433	PROB	n/a	LTP123	ltpFR	9	n/a	n/a	n/a	n/a	n/a	n/a	n/a	9	6	2	1	n/a	n/a	n/a	n/a	n/a
991972	PROB	n/a	LTP123	ltpFR	9	n/a	n/a	n/a	n/a	n/a	n/a	n/a	15	4	3	8	n/a	n/a	n/a	n/a	n/a
993797	PROB	n/a	LTP123	ltpFR	9	n/a	n/a	n/a	n/a	n/a	n/a	n/a	15	7	3	5	n/a	n/a	n/a	n/a	n/a
995570	STOP	n/a	LTP123	ltpFR	9	n/a	n/a	n/a	n/a	n/a	n/a	n/a	n/a	n/a	n/a	n/a	n/a	n/a	n/a	n/a	n/a
997313	WORD	wordpools/wasnorm_wordpool.txt	LTP123	ltpFR	9	5	0	DUCK	504	n/a	n/a	0	n/a	0	0	0	0.57763671875	0.412841796875	1	upper	zerothre.ttf
1000321	START	n/a	LTP123	ltpFR	9	n/a	n/a	n/a	n/a	n/a	n/a	n/a	n/a	n/a	n/a	n/a	n/a	n/a	n/a	n/a	n/a
1001503	PROB	n/a	LTP123	ltpFR	9	n/a	n/a	n/a	n/a	n/a	n/a	n/a	11	5	3	3	n/a	n/a	n/a	n/a	n/a
1003086	PROB	n/a	LTP123	ltpFR	9	n/a	n/a	n/a	n/a	n/a	n/a	n/a	17	7	3	7	n/a	n/a	n/a	n/a	n/a
1006093	PROB	n/a	LTP123	ltpFR	9	n/a	n/a	n/a	n/a	n/a	n/a	n/a	15	6	2	7	n/a	n/a	n/a	n/a	n/a
1007800	PROB	n/a	LTP123	ltpFR	9	n/a	n/a	n/a	n/a	n/a	n/a	n/a	20	5	8	7	n/a	n/a	n/a	n/a	n/a
1010657	PROB	n/a	LTP123	ltpFR	9	n/a	n/a	n/a	n/a	n/a	n/a	n/a	15	4	3	8	n/a	n/a	n/a	n/a	n/a
1012183	PROB	n/a	LTP123	ltpFR	9	n/a	n/a	n/a	n/a	n/a	n/a	n/a	18	2	8	8	n/a	n/a	n/a	n/a	n/a
1016321	STOP	n/a	LTP123	ltpFR	9	n/a	n/a	n/a	n/a	n/a	n/a	n/a	n/a	n/a	n/a	n/a	n/a	n/a	n/a	n/a	n/a
1017239	WORD	wordpools/wasnorm_wordpool.txt	LTP123	ltpFR	9	5	0	CHISEL	305	n/a	n/a	0	n/a	0	0	0	0.57763671875	0.412841796875	1	upper	zerothre.ttf
1020247	START	n/a	LTP123	ltpFR	9	n/a	n/a	n/a	n/a	n/a	n/a	n/a	n/a	n/a	n/a	n/a	n/a	n/a	n/a	n/a	n/a
1021088	PROB	n/a	LTP123	ltpFR	9	n/a	n/a	n/a	n/a	n/a	n/a	n/a	15	3	8	4	n/a	n/a	n/a	n/a	n/a
1023994	PROB	n/a	LTP123	ltpFR	9	n/a	n/a	n/a	n/a	n/a	n/a	n/a	16	3	4	9	n/a	n/a	n/a	n/a	n/a
1026220	PROB	n/a	LTP123	ltpFR	9	n/a	n/a	n/a	n/a	n/a	n/a	n/a	15	4	6	5	n/a	n/a	n/a	n/a	n/a
1027644	PROB	n/a	LTP123	ltpFR	9	n/a	n/a	n/a	n/a	n/a	n/a	n/a	12	4	7	1	n/a	n/a	n/a	n/a	n/a
1030326	PROB	n/a	LTP123	ltpFR	9	n/a	n/a	n/a	n/a	n/a	n/a	n/a	10	2	4	4	n/a	n/a	n/a	n/a	n/a
1032142	PROB	n/a	LTP123	ltpFR	9	n/a	n/a	n/a	n/a	n/a	n/a	n/a	17	5	9	3	n/a	n/a	n/a	n/a	n/a
1035122	STOP	n/a	LTP123	ltpFR	9	n/a	n/a	n/a	n/a	n/a	n/a	n/a	n/a	n/a	n/a	n/a	n/a	n/a	n/a	n/a	n/a
1037057	WORD	wordpools/wasnorm_wordpool.txt	LTP123	ltpFR	9	5	1	WHISKERS	1605	n/a	n/a	0	n/a	0	0	0	0.422607421875	0.5869140625	0	lower	amplitud.ttf
1040065	START	n/a	LTP123	ltpFR	9	n/a	n/a	n/a	n/a	n/a	n/a	n/a	n/a	n/a	n/a	n/a	n/a	n/a	n/a	n/a	n/a
1040972	PROB	n/a	LTP123	ltpFR	9	n/a	n/a	n/a	n/a	n/a	n/a	n/a	21	9	9	3	n/a	n/a	n/a	n/a	n/a
1043238	PROB	n/a	LTP123	ltpFR	9	n/a	n/a	n/a	n/a	n/a	n/a	n/a	23	6	7	8	n/a	n/a	n/a	n/a	n/a
1047853	PROB	n/a	LTP123	ltpFR	9	n/a	n/a	n/a	n/a	n/a	n/a	n/a	15	3	4	8	n/a	n/a	n/a	n/a	n/a
1049710	PROB	n/a	LTP123	ltpFR	9	n/a	n/a	n/a	n/a	n/a	n/a	n/a	12	5	3	4	n/a	n/a	n/a	n/a	n/a
1052077	PROB	n/a	LTP123	ltpFR	9	n/a	n/a	n/a	n/a	n/a	n/a	n/a	11	8	1	2	n/a	n/a	n/a	n/a	n/a
1056065	STOP	n/a	LTP123	ltpFR	9	n/a	n/a	n/a	n/a	n/a	n/a	n/a	n/a	n/a	n/a	n/a	n/a	n/a	n/a	n/a	n/a
1056941	WORD	wordpools/wasnorm_wordpool.txt	LTP123	ltpFR	9	5	1	TROPHY	1509	n/a	n/a	0	n/a	0	0	0	0.422607421875	0.5869140625	0	lower	amplitud.ttf
1059949	START	n/a	LTP123	ltpFR	9	n/a	n/a	n/a	n/a	n/a	n/a	n/a	n/a	n/a	n/a	n/a	n/a	n/a	n/a	n/a	n/a
1060856	PROB	n/a	LTP123	ltpFR	9	n/a	n/a	n/a	n/a	n/a	n/a	n/a	12	2	7	3	n/a	n/a	n/a	n/a	n/a
1062332	PROB	n/a	LTP123	ltpFR	9	n/a	n/a	n/a	n/a	n/a	n/a	n/a	17	6	9	2	n/a	n/a	n/a	n/a	n/a
1064930	PROB	n/a	LTP123	ltpFR	9	n/a	n/a	n/a	n/a	n/a	n/a	n/a	22	8	5	9	n/a	n/a	n/a	n/a	n/a
1068670	PROB	n/a	LTP123	ltpFR	9	n/a	n/a	n/a	n/a	n/a	n/a	n/a	11	2	3	6	n/a	n/a	n/a	n/a	n/a
1070504	PROB	n/a	LTP123	ltpFR	9	n/a	n/a	n/a	n/a	n/a	n/a	n/a	12	4	7	1	n/a	n/a	n/a	n/a	n/a
1072178	PROB	n/a	LTP123	ltpFR	9	n/a	n/a	n/a	n/a	n/a	n/a	n/a	3	1	1	1	n/a	n/a	n/a	n/a	n/a
1073594	PROB	n/a	LTP123	ltpFR	9	n/a	n/a	n/a	n/a	n/a	n/a	n/a	13	1	8	4	n/a	n/a	n/a	n/a	n/a
1075873	STOP	n/a	LTP123	ltpFR	9	n/a	n/a	n/a	n/a	n/a	n/a	n/a	n/a	n/a	n/a	n/a	n/a	n/a	n/a	n/a	n/a
1077042	WORD	wordpools/wasnorm_wordpool.txt	LTP123	ltpFR	9	5	0	CARPENTER	246	n/a	n/a	1	n/a	0	0	0	0.57763671875	0.412841796875	1	upper	zerothre.ttf
1080051	START	n/a	LTP123	ltpFR	9	n/a	n/a	n/a	n/a	n/a	n/a	n/a	n/a	n/a	n/a	n/a	n/a	n/a	n/a	n/a	n/a
1080974	PROB	n/a	LTP123	ltpFR	9	n/a	n/a	n/a	n/a	n/a	n/a	n/a	16	5	4	7	n/a	n/a	n/a	n/a	n/a
1083299	PROB	n/a	LTP123	ltpFR	9	n/a	n/a	n/a	n/a	n/a	n/a	n/a	18	7	2	9	n/a	n/a	n/a	n/a	n/a
1085922	PROB	n/a	LTP123	ltpFR	9	n/a	n/a	n/a	n/a	n/a	n/a	n/a	16	3	7	6	n/a	n/a	n/a	n/a	n/a
1087414	PROB	n/a	LTP123	ltpFR	9	n/a	n/a	n/a	n/a	n/a	n/a	n/a	16	4	6	4	n/a	n/a	n/a	n/a	n/a
1088971	PROB	n/a	LTP123	ltpFR	9	n/a	n/a	n/a	n/a	n/a	n/a	n/a	11	2	1	8	n/a	n/a	n/a	n/a	n/a
1092388	PROB	n/a	LTP123	ltpFR	9	n/a	n/a	n/a	n/a	n/a	n/a	n/a	18	4	8	6	n/a	n/a	n/a	n/a	n/a
1095825	STOP	n/a	LTP123	ltpFR	9	n/a	n/a	n/a	n/a	n/a	n/a	n/a	n/a	n/a	n/a	n/a	n/a	n/a	n/a	n/a	n/a
1096943	WORD	wordpools/wasnorm_wordpool.txt	LTP123	ltpFR	9	5	0	VITAMIN	1574	n/a	n/a	0	n/a	0	0	0	0.57763671875	0.412841796875	1	upper	zerothre.ttf
1099951	START	n/a	LTP123	ltpFR	9	n/a	n/a	n/a	n/a	n/a	n/a	n/a	n/a	n/a	n/a	n/a	n/a	n/a	n/a	n/a	n/a
1100909	PROB	n/a	LTP123	ltpFR	9	n/a	n/a	n/a	n/a	n/a	n/a	n/a	19	3	8	8	n/a	n/a	n/a	n/a	n/a
1103267	PROB	n/a	LTP123	ltpFR	9	n/a	n/a	n/a	n/a	n/a	n/a	n/a	25	9	9	7	n/a	n/a	n/a	n/a	n/a
1105690	PROB	n/a	LTP123	ltpFR	9	n/a	n/a	n/a	n/a	n/a	n/a	n/a	8	1	3	4	n/a	n/a	n/a	n/a	n/a
1107382	PROB	n/a	LTP123	ltpFR	9	n/a	n/a	n/a	n/a	n/a	n/a	n/a	10	7	2	1	n/a	n/a	n/a	n/a	n/a
1108922	PROB	n/a	LTP123	ltpFR	9	n/a	n/a	n/a	n/a	n/a	n/a	n/a	17	3	9	5	n/a	n/a	n/a	n/a	n/a
1112614	PROB	n/a	LTP123	ltpFR	9	n/a	n/a	n/a	n/a	n/a	n/a	n/a	8	3	2	2	n/a	n/a	n/a	n/a	n/a
1114697	STOP	n/a	LTP123	ltpFR	9	n/a	n/a	n/a	n/a	n/a	n/a	n/a	n/a	n/a	n/a	n/a	n/a	n/a	n/a	n/a	n/a
1116870	WORD	wordpools/wasnorm_wordpool.txt	LTP123	ltpFR	9	5	0	GLOVE	642	n/a	n/a	0	n/a	0	0	0	0.57763671875	0.412841796875	1	upper	zerothre.ttf
1119877	START	n/a	LTP123	ltpFR	9	n/a	n/a	n/a	n/a	n/a	n/a	n/a	n/a	n/a	n/a	n/a	n/a	n/a	n/a	n/a	n/a
1120877	PROB	n/a	LTP123	ltpFR	9	n/a	n/a	n/a	n/a	n/a	n/a	n/a	17	3	9	5	n/a	n/a	n/a	n/a	n/a
1123268	PROB	n/a	LTP123	ltpFR	9	n/a	n/a	n/a	n/a	n/a	n/a	n/a	17	8	5	4	n/a	n/a	n/a	n/a	n/a
1125675	PROB	n/a	LTP123	ltpFR	9	n/a	n/a	n/a	n/a	n/a	n/a	n/a	10	8	1	1	n/a	n/a	n/a	n/a	n/a
1127084	PROB	n/a	LTP123	ltpFR	9	n/a	n/a	n/a	n/a	n/a	n/a	n/a	23	8	8	7	n/a	n/a	n/a	n/a	n/a
1130249	PROB	n/a	LTP123	ltpFR	9	n/a	n/a	n/a	n/a	n/a	n/a	n/a	18	7	3	8	n/a	n/a	n/a	n/a	n/a
1131664	PROB	n/a	LTP123	ltpFR	9	n/a	n/a	n/a	n/a	n/a	n/a	n/a	11	7	2	2	n/a	n/a	n/a	n/a	n/a
1133098	PROB	n/a	LTP123	ltpFR	9	n/a	n/a	n/a	n/a	n/a	n/a	n/a	11	6	4	1	n/a	n/a	n/a	n/a	n/a
1135877	STOP	n/a	LTP123	ltpFR	9	n/a	n/a	n/a	n/a	n/a	n/a	n/a	n/a	n/a	n/a	n/a	n/a	n/a	n/a	n/a	n/a
1136863	WORD	wordpools/wasnorm_wordpool.txt	LTP123	ltpFR	9	5	0	FIST	572	n/a	n/a	0	n/a	0	0	0	0.57763671875	0.412841796875	1	upper	zerothre.ttf
1139870	START	n/a	LTP123	ltpFR	9	n/a	n/a	n/a	n/a	n/a	n/a	n/a	n/a	n/a	n/a	n/a	n/a	n/a	n/a	n/a	n/a
1140894	PROB	n/a	LTP123	ltpFR	9	n/a	n/a	n/a	n/a	n/a	n/a	n/a	11	1	3	7	n/a	n/a	n/a	n/a	n/a
1142387	PROB	n/a	LTP123	ltpFR	9	n/a	n/a	n/a	n/a	n/a	n/a	n/a	8	5	2	1	n/a	n/a	n/a	n/a	n/a
1144018	PROB	n/a	LTP123	ltpFR	9	n/a	n/a	n/a	n/a	n/a	n/a	n/a	12	3	1	8	n/a	n/a	n/a	n/a	n/a
1145527	PROB	n/a	LTP123	ltpFR	9	n/a	n/a	n/a	n/a	n/a	n/a	n/a	18	5	7	6	n/a	n/a	n/a	n/a	n/a
1147618	PROB	n/a	LTP123	ltpFR	9	n/a	n/a	n/a	n/a	n/a	n/a	n/a	8	2	1	5	n/a	n/a	n/a	n/a	n/a
1149534	PROB	n/a	LTP123	ltpFR	9	n/a	n/a	n/a	n/a	n/a	n/a	n/a	14	3	6	5	n/a	n/a	n/a	n/a	n/a
1151583	PROB	n/a	LTP123	ltpFR	9	n/a	n/a	n/a	n/a	n/a	n/a	n/a	18	5	5	8	n/a	n/a	n/a	n/a	n/a
1153116	PROB	n/a	LTP123	ltpFR	9	n/a	n/a	n/a	n/a	n/a	n/a	n/a	14	6	4	4	n/a	n/a	n/a	n/a	n/a
1154522	STOP	n/a	LTP123	ltpFR	9	n/a	n/a	n/a	n/a	n/a	n/a	n/a	n/a	n/a	n/a	n/a	n/a	n/a	n/a	n/a	n/a
1156747	WORD	wordpools/wasnorm_wordpool.txt	LTP123	ltpFR	9	5	1	GUITAR	670	n/a	n/a	0	n/a	0	0	0	0.422607421875	0.5869140625	0	lower	amplitud.ttf
1159755	START	n/a	LTP123	ltpFR	9	n/a	n/a	n/a	n/a	n/a	n/a	n/a	n/a	n/a	n/a	n/a	n/a	n/a	n/a	n/a	n/a
1160704	PROB	n/a	LTP123	ltpFR	9	n/a	n/a	n/a	n/a	n/a	n/a	n/a	23	7	7	9	n/a	n/a	n/a	n/a	n/a
1162928	PROB	n/a	LTP123	ltpFR	9	n/a	n/a	n/a	n/a	n/a	n/a	n/a	18	6	5	7	n/a	n/a	n/a	n/a	n/a
1166161	PROB	n/a	LTP123	ltpFR	9	n/a	n/a	n/a	n/a	n/a	n/a	n/a	23	5	9	9	n/a	n/a	n/a	n/a	n/a
1169102	PROB	n/a	LTP123	ltpFR	9	n/a	n/a	n/a	n/a	n/a	n/a	n/a	16	1	8	7	n/a	n/a	n/a	n/a	n/a
1170959	PROB	n/a	LTP123	ltpFR	9	n/a	n/a	n/a	n/a	n/a	n/a	n/a	23	8	6	9	n/a	n/a	n/a	n/a	n/a
1174649	STOP	n/a	LTP123	ltpFR	9	n/a	n/a	n/a	n/a	n/a	n/a	n/a	n/a	n/a	n/a	n/a	n/a	n/a	n/a	n/a	n/a
1176740	WORD	wordpools/wasnorm_wordpool.txt	LTP123	ltpFR	9	5	1	ORCHESTRA	981	n/a	n/a	0	n/a	0	0	0	0.422607421875	0.5869140625	0	lower	amplitud.ttf
1179748	START	n/a	LTP123	ltpFR	9	n/a	n/a	n/a	n/a	n/a	n/a	n/a	n/a	n/a	n/a	n/a	n/a	n/a	n/a	n/a	n/a
1180855	PROB	n/a	LTP123	ltpFR	9	n/a	n/a	n/a	n/a	n/a	n/a	n/a	11	3	1	7	n/a	n/a	n/a	n/a	n/a
1182314	PROB	n/a	LTP123	ltpFR	9	n/a	n/a	n/a	n/a	n/a	n/a	n/a	13	3	5	5	n/a	n/a	n/a	n/a	n/a
1184130	PROB	n/a	LTP123	ltpFR	9	n/a	n/a	n/a	n/a	n/a	n/a	n/a	17	3	5	9	n/a	n/a	n/a	n/a	n/a
1186188	PROB	n/a	LTP123	ltpFR	9	n/a	n/a	n/a	n/a	n/a	n/a	n/a	16	3	8	5	n/a	n/a	n/a	n/a	n/a
1188652	PROB	n/a	LTP123	ltpFR	9	n/a	n/a	n/a	n/a	n/a	n/a	n/a	17	8	8	1	n/a	n/a	n/a	n/a	n/a
1191043	PROB	n/a	LTP123	ltpFR	9	n/a	n/a	n/a	n/a	n/a	n/a	n/a	15	7	2	6	n/a	n/a	n/a	n/a	n/a
1193535	PROB	n/a	LTP123	ltpFR	9	n/a	n/a	n/a	n/a	n/a	n/a	n/a	18	8	5	5	n/a	n/a	n/a	n/a	n/a
1195466	STOP	n/a	LTP123	ltpFR	9	n/a	n/a	n/a	n/a	n/a	n/a	n/a	n/a	n/a	n/a	n/a	n/a	n/a	n/a	n/a	n/a
1196584	WORD	wordpools/wasnorm_wordpool.txt	LTP123	ltpFR	9	5	1	WINNER	1615	n/a	n/a	1	n/a	0	0	0	0.422607421875	0.5869140625	0	lower	amplitud.ttf
1199591	START	n/a	LTP123	ltpFR	9	n/a	n/a	n/a	n/a	n/a	n/a	n/a	n/a	n/a	n/a	n/a	n/a	n/a	n/a	n/a	n/a
1200723	PROB	n/a	LTP123	ltpFR	9	n/a	n/a	n/a	n/a	n/a	n/a	n/a	12	2	7	3	n/a	n/a	n/a	n/a	n/a
1202664	PROB	n/a	LTP123	ltpFR	9	n/a	n/a	n/a	n/a	n/a	n/a	n/a	9	4	1	4	n/a	n/a	n/a	n/a	n/a
1204614	PROB	n/a	LTP123	ltpFR	9	n/a	n/a	n/a	n/a	n/a	n/a	n/a	3	1	1	1	n/a	n/a	n/a	n/a	n/a
1205913	PROB	n/a	LTP123	ltpFR	9	n/a	n/a	n/a	n/a	n/a	n/a	n/a	18	4	8	6	n/a	n/a	n/a	n/a	n/a
1207513	PROB	n/a	LTP123	ltpFR	9	n/a	n/a	n/a	n/a	n/a	n/a	n/a	19	4	6	9	n/a	n/a	n/a	n/a	n/a
1209429	PROB	n/a	LTP123	ltpFR	9	n/a	n/a	n/a	n/a	n/a	n/a	n/a	14	5	3	6	n/a	n/a	n/a	n/a	n/a
1211137	PROB	n/a	LTP123	ltpFR	9	n/a	n/a	n/a	n/a	n/a	n/a	n/a	18	2	9	7	n/a	n/a	n/a	n/a	n/a
1215591	STOP	n/a	LTP123	ltpFR	9	n/a	n/a	n/a	n/a	n/a	n/a	n/a	n/a	n/a	n/a	n/a	n/a	n/a	n/a	n/a	n/a
1217444	REC_START	n/a	LTP123	ltpFR	9	5	n/a	n/a	n/a	n/a	n/a	n/a	n/a	0	0	0	n/a	n/a	n/a	n/a	n/a
1219195	REC_WORD	wordpools/wasnorm_wordpool.txt	LTP123	ltpFR	9	5	1	ORCHESTRA	981	n/a	n/a	0	n/a	0	0	0	n/a	n/a	n/a	n/a	n/a
1220222	REC_WORD	wordpools/wasnorm_wordpool.txt	LTP123	ltpFR	9	5	1	GUITAR	670	n/a	n/a	0	n/a	0	0	0	n/a	n/a	n/a	n/a	n/a
1221315	REC_WORD	wordpools/wasnorm_wordpool.txt	LTP123	ltpFR	9	5	0	MOUSE	925	n/a	n/a	0	n/a	0	0	0	n/a	n/a	n/a	n/a	n/a
1222403	REC_WORD	wordpools/wasnorm_wordpool.txt	LTP123	ltpFR	9	5	1	WHISKERS	1605	n/a	n/a	0	n/a	0	0	0	n/a	n/a	n/a	n/a	n/a
1232579	REC_WORD	wordpools/wasnorm_wordpool.txt	LTP123	ltpFR	9	5	1	WINNER	1615	n/a	n/a	1	n/a	0	0	0	n/a	n/a	n/a	n/a	n/a
1246608	REC_WORD	wordpools/wasnorm_wordpool.txt	LTP123	ltpFR	9	5	0	DUCK	504	n/a	n/a	0	n/a	0	0	0	n/a	n/a	n/a	n/a	n/a
1249037	REC_WORD	wordpools/wasnorm_wordpool.txt	LTP123	ltpFR	9	5	0	GLOVE	642	n/a	n/a	0	n/a	0	0	0	n/a	n/a	n/a	n/a	n/a
1305379	WORD	wordpools/wasnorm_wordpool.txt	LTP123	ltpFR	9	6	0	TRASH	1497	n/a	n/a	1	n/a	0	0	0	0.57763671875	0.412841796875	1	upper	zerothre.ttf
1309269	WORD	wordpools/wasnorm_wordpool.txt	LTP123	ltpFR	9	6	0	FOE	587	n/a	n/a	1	n/a	0	0	0	0.57763671875	0.412841796875	1	upper	zerothre.ttf
1313326	WORD	wordpools/wasnorm_wordpool.txt	LTP123	ltpFR	9	6	0	VAN	1548	n/a	n/a	1	n/a	0	0	0	0.57763671875	0.412841796875	1	upper	zerothre.ttf
1317333	WORD	wordpools/wasnorm_wordpool.txt	LTP123	ltpFR	9	6	0	TRAIN	1494	n/a	n/a	1	n/a	0	0	0	0.57763671875	0.412841796875	1	upper	zerothre.ttf
1321390	WORD	wordpools/wasnorm_wordpool.txt	LTP123	ltpFR	9	6	0	SCENERY	1247	n/a	n/a	1	n/a	0	0	0	0.57763671875	0.412841796875	1	upper	zerothre.ttf
1325413	WORD	wordpools/wasnorm_wordpool.txt	LTP123	ltpFR	9	6	0	LOOP	844	n/a	n/a	1	n/a	0	0	0	0.57763671875	0.412841796875	1	upper	zerothre.ttf
1329395	WORD	wordpools/wasnorm_wordpool.txt	LTP123	ltpFR	9	6	0	HOOP	716	n/a	n/a	1	n/a	0	0	0	0.57763671875	0.412841796875	1	upper	zerothre.ttf
1333210	WORD	wordpools/wasnorm_wordpool.txt	LTP123	ltpFR	9	6	0	TRUCK	1512	n/a	n/a	1	n/a	0	0	0	0.57763671875	0.412841796875	1	upper	zerothre.ttf
1337041	WORD	wordpools/wasnorm_wordpool.txt	LTP123	ltpFR	9	6	0	PISTON	1076	n/a	n/a	0	n/a	0	0	0	0.57763671875	0.412841796875	1	upper	zerothre.ttf
1341216	WORD	wordpools/wasnorm_wordpool.txt	LTP123	ltpFR	9	6	0	BOUQUET	157	n/a	n/a	0	n/a	0	0	0	0.57763671875	0.412841796875	1	upper	zerothre.ttf
1345131	WORD	wordpools/wasnorm_wordpool.txt	LTP123	ltpFR	9	6	0	FELLOW	558	n/a	n/a	1	n/a	0	0	0	0.57763671875	0.412841796875	1	upper	zerothre.ttf
1349230	WORD	wordpools/wasnorm_wordpool.txt	LTP123	ltpFR	9	6	0	TOILET	1475	n/a	n/a	1	n/a	0	0	0	0.57763671875	0.412841796875	1	upper	zerothre.ttf
1353220	WORD	wordpools/wasnorm_wordpool.txt	LTP123	ltpFR	9	6	0	HELMET	702	n/a	n/a	1	n/a	0	0	0	0.57763671875	0.412841796875	1	upper	zerothre.ttf
1357410	WORD	wordpools/wasnorm_wordpool.txt	LTP123	ltpFR	9	6	0	BUFFALO	186	n/a	n/a	1	n/a	0	0	0	0.57763671875	0.412841796875	1	upper	zerothre.ttf
1361350	WORD	wordpools/wasnorm_wordpool.txt	LTP123	ltpFR	9	6	0	ELEPHANT	523	n/a	n/a	1	n/a	0	0	0	0.57763671875	0.412841796875	1	upper	zerothre.ttf
1365457	WORD	wordpools/wasnorm_wordpool.txt	LTP123	ltpFR	9	6	0	STRAW	1390	n/a	n/a	0	n/a	0	0	0	0.57763671875	0.412841796875	1	upper	zerothre.ttf
1371189	REC_START	n/a	LTP123	ltpFR	9	6	n/a	n/a	n/a	n/a	n/a	n/a	n/a	0	0	0	n/a	n/a	n/a	n/a	n/a
1371787	REC_WORD	wordpools/wasnorm_wordpool.txt	LTP123	ltpFR	9	6	0	STRAW	1390	n/a	n/a	0	n/a	0	0	0	n/a	n/a	n/a	n/a	n/a
1372616	REC_WORD	wordpools/wasnorm_wordpool.txt	LTP123	ltpFR	9	6	0	ELEPHANT	523	n/a	n/a	1	n/a	0	0	0	n/a	n/a	n/a	n/a	n/a
1374656	REC_WORD	wordpools/wasnorm_wordpool.txt	LTP123	ltpFR	9	6	0	HELMET	702	n/a	n/a	1	n/a	0	0	0	n/a	n/a	n/a	n/a	n/a
1380971	REC_WORD	wordpools/wasnorm_wordpool.txt	LTP123	ltpFR	9	6	0	FELLOW	558	n/a	n/a	1	n/a	0	0	0	n/a	n/a	n/a	n/a	n/a
1389542	REC_WORD	wordpools/wasnorm_wordpool.txt	LTP123	ltpFR	9	6	0	FOE	587	n/a	n/a	1	n/a	0	0	0	n/a	n/a	n/a	n/a	n/a
1390724	REC_WORD	wordpools/wasnorm_wordpool.txt	LTP123	ltpFR	9	6	0	LOOP	844	n/a	n/a	1	n/a	0	0	0	n/a	n/a	n/a	n/a	n/a
1391342	REC_WORD	wordpools/wasnorm_wordpool.txt	LTP123	ltpFR	9	6	0	HOOP	716	n/a	n/a	1	n/a	0	0	0	n/a	n/a	n/a	n/a	n/a
1400358	REC_WORD	wordpools/wasnorm_wordpool.txt	LTP123	ltpFR	9	6	0	VAN	1548	n/a	n/a	1	n/a	0	0	0	n/a	n/a	n/a	n/a	n/a
1401146	REC_WORD	wordpools/wasnorm_wordpool.txt	LTP123	ltpFR	9	6	0	TRUCK	1512	n/a	n/a	1	n/a	0	0	0	n/a	n/a	n/a	n/a	n/a
1403176	REC_WORD	wordpools/wasnorm_wordpool.txt	LTP123	ltpFR	9	6	0	TRAIN	1494	n/a	n/a	1	n/a	0	0	0	n/a	n/a	n/a	n/a	n/a
1424507	REC_WORD	wordpools/wasnorm_wordpool.txt	LTP123	ltpFR	9	6	0	BOUQUET	157	n/a	n/a	0	n/a	0	0	0	n/a	n/a	n/a	n/a	n/a
1459549	START	n/a	LTP123	ltpFR	9	n/a	n/a	n/a	n/a	n/a	n/a	n/a	n/a	n/a	n/a	n/a	n/a	n/a	n/a	n/a	n/a
1461057	PROB	n/a	LTP123	ltpFR	9	n/a	n/a	n/a	n/a	n/a	n/a	n/a	8	6	1	1	n/a	n/a	n/a	n/a	n/a
1462813	PROB	n/a	LTP123	ltpFR	9	n/a	n/a	n/a	n/a	n/a	n/a	n/a	19	9	9	1	n/a	n/a	n/a	n/a	n/a
1464946	PROB	n/a	LTP123	ltpFR	9	n/a	n/a	n/a	n/a	n/a	n/a	n/a	15	2	6	7	n/a	n/a	n/a	n/a	n/a
1466410	STOP	n/a	LTP123	ltpFR	9	n/a	n/a	n/a	n/a	n/a	n/a	n/a	n/a	n/a	n/a	n/a	n/a	n/a	n/a	n/a	n/a
1468753	WORD	wordpools/wasnorm_wordpool.txt	LTP123	ltpFR	9	7	0	RELATIVE	1182	n/a	n/a	1	n/a	0	0	0	0.57763671875	0.412841796875	1	upper	zerothre.ttf
1471761	START	n/a	LTP123	ltpFR	9	n/a	n/a	n/a	n/a	n/a	n/a	n/a	n/a	n/a	n/a	n/a	n/a	n/a	n/a	n/a	n/a
1472943	PROB	n/a	LTP123	ltpFR	9	n/a	n/a	n/a	n/a	n/a	n/a	n/a	12	8	1	3	n/a	n/a	n/a	n/a	n/a
1474552	PROB	n/a	LTP123	ltpFR	9	n/a	n/a	n/a	n/a	n/a	n/a	n/a	21	6	7	8	n/a	n/a	n/a	n/a	n/a
1476318	PROB	n/a	LTP123	ltpFR	9	n/a	n/a	n/a	n/a	n/a	n/a	n/a	20	5	9	6	n/a	n/a	n/a	n/a	n/a
1479594	STOP	n/a	LTP123	ltpFR	9	n/a	n/a	n/a	n/a	n/a	n/a	n/a	n/a	n/a	n/a	n/a	n/a	n/a	n/a	n/a	n/a
1480740	WORD	wordpools/wasnorm_wordpool.txt	LTP123	ltpFR	9	7	0	FREEZER	604	n/a	n/a	1	n/a	0	0	0	0.57763671875	0.412841796875	1	upper	zerothre.ttf
1483748	START	n/a	LTP123	ltpFR	9	n/a	n/a	n/a	n/a	n/a	n/a	n/a	n/a	n/a	n/a	n/a	n/a	n/a	n/a	n/a	n/a
1484598	PROB	n/a	LTP123	ltpFR	9	n/a	n/a	n/a	n/a	n/a	n/a	n/a	7	3	1	3	n/a	n/a	n/a	n/a	n/a
1486631	PROB	n/a	LTP123	ltpFR	9	n/a	n/a	n/a	n/a	n/a	n/a	n/a	12	2	1	9	n/a	n/a	n/a	n/a	n/a
1488821	PROB	n/a	LTP123	ltpFR	9	n/a	n/a	n/a	n/a	n/a	n/a	n/a	20	9	5	6	n/a	n/a	n/a	n/a	n/a
1490945	STOP	n/a	LTP123	ltpFR	9	n/a	n/a	n/a	n/a	n/a	n/a	n/a	n/a	n/a	n/a	n/a	n/a	n/a	n/a	n/a	n/a
1492761	WORD	wordpools/wasnorm_wordpool.txt	LTP123	ltpFR	9	7	0	CHEEK	287	n/a	n/a	0	n/a	0	0	0	0.57763671875	0.412841796875	1	upper	zerothre.ttf
1495769	START	n/a	LTP123	ltpFR	9	n/a	n/a	n/a	n/a	n/a	n/a	n/a	n/a	n/a	n/a	n/a	n/a	n/a	n/a	n/a	n/a
1496893	PROB	n/a	LTP123	ltpFR	9	n/a	n/a	n/a	n/a	n/a	n/a	n/a	19	9	4	6	n/a	n/a	n/a	n/a	n/a
1498701	PROB	n/a	LTP123	ltpFR	9	n/a	n/a	n/a	n/a	n/a	n/a	n/a	12	2	1	9	n/a	n/a	n/a	n/a	n/a
1500168	PROB	n/a	LTP123	ltpFR	9	n/a	n/a	n/a	n/a	n/a	n/a	n/a	24	8	9	7	n/a	n/a	n/a	n/a	n/a
1502897	STOP	n/a	LTP123	ltpFR	9	n/a	n/a	n/a	n/a	n/a	n/a	n/a	n/a	n/a	n/a	n/a	n/a	n/a	n/a	n/a	n/a
1504649	WORD	wordpools/wasnorm_wordpool.txt	LTP123	ltpFR	9	7	0	KNEE	784	n/a	n/a	0	n/a	0	0	0	0.57763671875	0.412841796875	1	upper	zerothre.ttf
1507656	START	n/a	LTP123	ltpFR	9	n/a	n/a	n/a	n/a	n/a	n/a	n/a	n/a	n/a	n/a	n/a	n/a	n/a	n/a	n/a	n/a
1508847	PROB	n/a	LTP123	ltpFR	9	n/a	n/a	n/a	n/a	n/a	n/a	n/a	24	9	8	7	n/a	n/a	n/a	n/a	n/a
1511097	PROB	n/a	LTP123	ltpFR	9	n/a	n/a	n/a	n/a	n/a	n/a	n/a	9	4	1	4	n/a	n/a	n/a	n/a	n/a
1512854	PROB	n/a	LTP123	ltpFR	9	n/a	n/a	n/a	n/a	n/a	n/a	n/a	13	2	2	9	n/a	n/a	n/a	n/a	n/a
1515489	STOP	n/a	LTP123	ltpFR	9	n/a	n/a	n/a	n/a	n/a	n/a	n/a	n/a	n/a	n/a	n/a	n/a	n/a	n/a	n/a	n/a
1516744	WORD	wordpools/wasnorm_wordpool.txt	LTP123	ltpFR	9	7	1	VISITOR	1573	n/a	n/a	1	n/a	0	0	0	0.422607421875	0.5869140625	0	lower	amplitud.ttf
1519752	START	n/a	LTP123	ltpFR	9	n/a	n/a	n/a	n/a	n/a	n/a	n/a	n/a	n/a	n/a	n/a	n/a	n/a	n/a	n/a	n/a
1520577	PROB	n/a	LTP123	ltpFR	9	n/a	n/a	n/a	n/a	n/a	n/a	n/a	16	8	1	7	n/a	n/a	n/a	n/a	n/a
1522510	PROB	n/a	LTP123	ltpFR	9	n/a	n/a	n/a	n/a	n/a	n/a	n/a	12	3	1	8	n/a	n/a	n/a	n/a	n/a
1524042	PROB	n/a	LTP123	ltpFR	9	n/a	n/a	n/a	n/a	n/a	n/a	n/a	11	6	4	1	n/a	n/a	n/a	n/a	n/a
1527752	STOP	n/a	LTP123	ltpFR	9	n/a	n/a	n/a	n/a	n/a	n/a	n/a	n/a	n/a	n/a	n/a	n/a	n/a	n/a	n/a	n/a
1528773	WORD	wordpools/wasnorm_wordpool.txt	LTP123	ltpFR	9	7	1	BARK	87	n/a	n/a	0	n/a	0	0	0	0.422607421875	0.5869140625	0	lower	amplitud.ttf
1531781	START	n/a	LTP123	ltpFR	9	n/a	n/a	n/a	n/a	n/a	n/a	n/a	n/a	n/a	n/a	n/a	n/a	n/a	n/a	n/a	n/a
1532680	PROB	n/a	LTP123	ltpFR	9	n/a	n/a	n/a	n/a	n/a	n/a	n/a	6	1	2	3	n/a	n/a	n/a	n/a	n/a
1534730	PROB	n/a	LTP123	ltpFR	9	n/a	n/a	n/a	n/a	n/a	n/a	n/a	15	5	7	3	n/a	n/a	n/a	n/a	n/a
1536737	PROB	n/a	LTP123	ltpFR	9	n/a	n/a	n/a	n/a	n/a	n/a	n/a	17	7	7	3	n/a	n/a	n/a	n/a	n/a
1538721	STOP	n/a	LTP123	ltpFR	9	n/a	n/a	n/a	n/a	n/a	n/a	n/a	n/a	n/a	n/a	n/a	n/a	n/a	n/a	n/a	n/a
1540819	WORD	wordpools/wasnorm_wordpool.txt	LTP123	ltpFR	9	7	1	CARAVAN	242	n/a	n/a	0	n/a	0	0	0	0.422607421875	0.5869140625	0	lower	amplitud.ttf
1543827	START	n/a	LTP123	ltpFR	9	n/a	n/a	n/a	n/a	n/a	n/a	n/a	n/a	n/a	n/a	n/a	n/a	n/a	n/a	n/a	n/a
1544676	PROB	n/a	LTP123	ltpFR	9	n/a	n/a	n/a	n/a	n/a	n/a	n/a	9	1	7	1	n/a	n/a	n/a	n/a	n/a
1546185	PROB	n/a	LTP123	ltpFR	9	n/a	n/a	n/a	n/a	n/a	n/a	n/a	17	7	7	3	n/a	n/a	n/a	n/a	n/a
1548076	PROB	n/a	LTP123	ltpFR	9	n/a	n/a	n/a	n/a	n/a	n/a	n/a	19	9	6	4	n/a	n/a	n/a	n/a	n/a
1549716	PROB	n/a	LTP123	ltpFR	9	n/a	n/a	n/a	n/a	n/a	n/a	n/a	13	6	3	4	n/a	n/a	n/a	n/a	n/a
1551490	STOP	n/a	LTP123	ltpFR	9	n/a	n/a	n/a	n/a	n/a	n/a	n/a	n/a	n/a	n/a	n/a	n/a	n/a	n/a	n/a	n/a
1552915	WORD	wordpools/wasnorm_wordpool.txt	LTP123	ltpFR	9	7	1	VALVE	1546	n/a	n/a	0	n/a	0	0	0	0.422607421875	0.5869140625	0	lower	amplitud.ttf
1555923	START	n/a	LTP123	ltpFR	9	n/a	n/a	n/a	n/a	n/a	n/a	n/a	n/a	n/a	n/a	n/a	n/a	n/a	n/a	n/a	n/a
1556955	PROB	n/a	LTP123	ltpFR	9	n/a	n/a	n/a	n/a	n/a	n/a	n/a	20	6	6	8	n/a	n/a	n/a	n/a	n/a
1558921	PROB	n/a	LTP123	ltpFR	9	n/a	n/a	n/a	n/a	n/a	n/a	n/a	18	7	4	7	n/a	n/a	n/a	n/a	n/a
1561604	PROB	n/a	LTP123	ltpFR	9	n/a	n/a	n/a	n/a	n/a	n/a	n/a	6	2	3	1	n/a	n/a	n/a	n/a	n/a
1563242	STOP	n/a	LTP123	ltpFR	9	n/a	n/a	n/a	n/a	n/a	n/a	n/a	n/a	n/a	n/a	n/a	n/a	n/a	n/a	n/a	n/a
1564969	WORD	wordpools/wasnorm_wordpool.txt	LTP123	ltpFR	9	7	0	SUBURB	1399	n/a	n/a	1	n/a	0	0	0	0.57763671875	0.412841796875	1	upper	zerothre.ttf
1567977	START	n/a	LTP123	ltpFR	9	n/a	n/a	n/a	n/a	n/a	n/a	n/a	n/a	n/a	n/a	n/a	n/a	n/a	n/a	n/a	n/a
1568793	PROB	n/a	LTP123	ltpFR	9	n/a	n/a	n/a	n/a	n/a	n/a	n/a	18	5	6	7	n/a	n/a	n/a	n/a	n/a
1570817	PROB	n/a	LTP123	ltpFR	9	n/a	n/a	n/a	n/a	n/a	n/a	n/a	19	4	9	6	n/a	n/a	n/a	n/a	n/a
1573024	PROB	n/a	LTP123	ltpFR	9	n/a	n/a	n/a	n/a	n/a	n/a	n/a	13	5	6	2	n/a	n/a	n/a	n/a	n/a
1574562	STOP	n/a	LTP123	ltpFR	9	n/a	n/a	n/a	n/a	n/a	n/a	n/a	n/a	n/a	n/a	n/a	n/a	n/a	n/a	n/a	n/a
1576831	WORD	wordpools/wasnorm_wordpool.txt	LTP123	ltpFR	9	7	0	BLOCKADE	137	n/a	n/a	1	n/a	0	0	0	0.57763671875	0.412841796875	1	upper	zerothre.ttf
1579839	START	n/a	LTP123	ltpFR	9	n/a	n/a	n/a	n/a	n/a	n/a	n/a	n/a	n/a	n/a	n/a	n/a	n/a	n/a	n/a	n/a
1580780	PROB	n/a	LTP123	ltpFR	9	n/a	n/a	n/a	n/a	n/a	n/a	n/a	11	4	5	2	n/a	n/a	n/a	n/a	n/a
1582605	PROB	n/a	LTP123	ltpFR	9	n/a	n/a	n/a	n/a	n/a	n/a	n/a	16	9	1	6	n/a	n/a	n/a	n/a	n/a
1584071	PROB	n/a	LTP123	ltpFR	9	n/a	n/a	n/a	n/a	n/a	n/a	n/a	19	8	4	7	n/a	n/a	n/a	n/a	n/a
1587839	STOP	n/a	LTP123	ltpFR	9	n/a	n/a	n/a	n/a	n/a	n/a	n/a	n/a	n/a	n/a	n/a	n/a	n/a	n/a	n/a	n/a
1588752	WORD	wordpools/wasnorm_wordpool.txt	LTP123	ltpFR	9	7	1	NAVIGATOR	938	n/a	n/a	1	n/a	0	0	0	0.422607421875	0.5869140625	0	lower	amplitud.ttf
1591760	START	n/a	LTP123	ltpFR	9	n/a	n/a	n/a	n/a	n/a	n/a	n/a	n/a	n/a	n/a	n/a	n/a	n/a	n/a	n/a	n/a
1592884	PROB	n/a	LTP123	ltpFR	9	n/a	n/a	n/a	n/a	n/a	n/a	n/a	25	8	8	9	n/a	n/a	n/a	n/a	n/a
1595292	PROB	n/a	LTP123	ltpFR	9	n/a	n/a	n/a	n/a	n/a	n/a	n/a	14	6	4	4	n/a	n/a	n/a	n/a	n/a
1596691	PROB	n/a	LTP123	ltpFR	9	n/a	n/a	n/a	n/a	n/a	n/a	n/a	19	8	5	6	n/a	n/a	n/a	n/a	n/a
1598466	STOP	n/a	LTP123	ltpFR	9	n/a	n/a	n/a	n/a	n/a	n/a	n/a	n/a	n/a	n/a	n/a	n/a	n/a	n/a	n/a	n/a
1600582	WORD	wordpools/wasnorm_wordpool.txt	LTP123	ltpFR	9	7	1	SWATTER	1418	n/a	n/a	0	n/a	0	0	0	0.422607421875	0.5869140625	0	lower	amplitud.ttf
1603590	START	n/a	LTP123	ltpFR	9	n/a	n/a	n/a	n/a	n/a	n/a	n/a	n/a	n/a	n/a	n/a	n/a	n/a	n/a	n/a	n/a
1604414	PROB	n/a	LTP123	ltpFR	9	n/a	n/a	n/a	n/a	n/a	n/a	n/a	19	4	6	9	n/a	n/a	n/a	n/a	n/a
1605771	PROB	n/a	LTP123	ltpFR	9	n/a	n/a	n/a	n/a	n/a	n/a	n/a	13	1	5	7	n/a	n/a	n/a	n/a	n/a
1607430	PROB	n/a	LTP123	ltpFR	9	n/a	n/a	n/a	n/a	n/a	n/a	n/a	12	1	3	8	n/a	n/a	n/a	n/a	n/a
1609204	PROB	n/a	LTP123	ltpFR	9	n/a	n/a	n/a	n/a	n/a	n/a	n/a	15	1	5	9	n/a	n/a	n/a	n/a	n/a
1611378	STOP	n/a	LTP123	ltpFR	9	n/a	n/a	n/a	n/a	n/a	n/a	n/a	n/a	n/a	n/a	n/a	n/a	n/a	n/a	n/a	n/a
1612702	WORD	wordpools/wasnorm_wordpool.txt	LTP123	ltpFR	9	7	1	TAR	1435	n/a	n/a	0	n/a	0	0	0	0.422607421875	0.5869140625	0	lower	amplitud.ttf
1615710	START	n/a	LTP123	ltpFR	9	n/a	n/a	n/a	n/a	n/a	n/a	n/a	n/a	n/a	n/a	n/a	n/a	n/a	n/a	n/a	n/a
1616568	PROB	n/a	LTP123	ltpFR	9	n/a	n/a	n/a	n/a	n/a	n/a	n/a	18	7	5	6	n/a	n/a	n/a	n/a	n/a
1618891	PROB	n/a	LTP123	ltpFR	9	n/a	n/a	n/a	n/a	n/a	n/a	n/a	15	4	2	9	n/a	n/a	n/a	n/a	n/a
1621083	PROB	n/a	LTP123	ltpFR	9	n/a	n/a	n/a	n/a	n/a	n/a	n/a	14	5	2	7	n/a	n/a	n/a	n/a	n/a
1623322	STOP	n/a	LTP123	ltpFR	9	n/a	n/a	n/a	n/a	n/a	n/a	n/a	n/a	n/a	n/a	n/a	n/a	n/a	n/a	n/a	n/a
1624748	WORD	wordpools/wasnorm_wordpool.txt	LTP123	ltpFR	9	7	1	NIECE	952	n/a	n/a	1	n/a	0	0	0	0.422607421875	0.5869140625	0	lower	amplitud.ttf
1627755	START	n/a	LTP123	ltpFR	9	n/a	n/a	n/a	n/a	n/a	n/a	n/a	n/a	n/a	n/a	n/a	n/a	n/a	n/a	n/a	n/a
1628855	PROB	n/a	LTP123	ltpFR	9	n/a	n/a	n/a	n/a	n/a	n/a	n/a	20	8	7	5	n/a	n/a	n/a	n/a	n/a
1635755	STOP	n/a	LTP123	ltpFR	9	n/a	n/a	n/a	n/a	n/a	n/a	n/a	n/a	n/a	n/a	n/a	n/a	n/a	n/a	n/a	n/a
1636902	WORD	wordpools/wasnorm_wordpool.txt	LTP123	ltpFR	9	7	0	FRIEND	606	n/a	n/a	1	n/a	0	0	0	0.57763671875	0.412841796875	1	upper	zerothre.ttf
1639909	START	n/a	LTP123	ltpFR	9	n/a	n/a	n/a	n/a	n/a	n/a	n/a	n/a	n/a	n/a	n/a	n/a	n/a	n/a	n/a	n/a
1641000	PROB	n/a	LTP123	ltpFR	9	n/a	n/a	n/a	n/a	n/a	n/a	n/a	12	6	1	5	n/a	n/a	n/a	n/a	n/a
1642691	PROB	n/a	LTP123	ltpFR	9	n/a	n/a	n/a	n/a	n/a	n/a	n/a	16	7	8	1	n/a	n/a	n/a	n/a	n/a
1647909	STOP	n/a	LTP123	ltpFR	9	n/a	n/a	n/a	n/a	n/a	n/a	n/a	n/a	n/a	n/a	n/a	n/a	n/a	n/a	n/a	n/a
1649115	WORD	wordpools/wasnorm_wordpool.txt	LTP123	ltpFR	9	7	0	MARBLE	867	n/a	n/a	1	n/a	0	0	0	0.57763671875	0.412841796875	1	upper	zerothre.ttf
1652123	START	n/a	LTP123	ltpFR	9	n/a	n/a	n/a	n/a	n/a	n/a	n/a	n/a	n/a	n/a	n/a	n/a	n/a	n/a	n/a	n/a
1652963	PROB	n/a	LTP123	ltpFR	9	n/a	n/a	n/a	n/a	n/a	n/a	n/a	15	6	7	2	n/a	n/a	n/a	n/a	n/a
1654945	PROB	n/a	LTP123	ltpFR	9	n/a	n/a	n/a	n/a	n/a	n/a	n/a	16	8	7	1	n/a	n/a	n/a	n/a	n/a
1656978	PROB	n/a	LTP123	ltpFR	9	n/a	n/a	n/a	n/a	n/a	n/a	n/a	16	4	8	4	n/a	n/a	n/a	n/a	n/a
1658642	STOP	n/a	LTP123	ltpFR	9	n/a	n/a	n/a	n/a	n/a	n/a	n/a	n/a	n/a	n/a	n/a	n/a	n/a	n/a	n/a	n/a
1661927	REC_START	n/a	LTP123	ltpFR	9	7	n/a	n/a	n/a	n/a	n/a	n/a	n/a	0	0	0	n/a	n/a	n/a	n/a	n/a
1662855	REC_WORD	wordpools/wasnorm_wordpool.txt	LTP123	ltpFR	9	7	0	MARBLE	867	n/a	n/a	1	n/a	0	0	0	n/a	n/a	n/a	n/a	n/a
1663572	REC_WORD	wordpools/wasnorm_wordpool.txt	LTP123	ltpFR	9	7	1	SWATTER	1418	n/a	n/a	0	n/a	0	0	0	n/a	n/a	n/a	n/a	n/a
1665958	REC_WORD	wordpools/wasnorm_wordpool.txt	LTP123	ltpFR	9	7	0	RELATIVE	1182	n/a	n/a	1	n/a	0	0	0	n/a	n/a	n/a	n/a	n/a
1667109	REC_WORD	wordpools/wasnorm_wordpool.txt	LTP123	ltpFR	9	7	0	FRIEND	606	n/a	n/a	1	n/a	0	0	0	n/a	n/a	n/a	n/a	n/a
1668098	REC_WORD	wordpools/wasnorm_wordpool.txt	LTP123	ltpFR	9	7	1	NIECE	952	n/a	n/a	1	n/a	0	0	0	n/a	n/a	n/a	n/a	n/a
1669998	REC_WORD	wordpools/wasnorm_wordpool.txt	LTP123	ltpFR	9	7	1	CARAVAN	242	n/a	n/a	0	n/a	0	0	0	n/a	n/a	n/a	n/a	n/a
1702200	REC_WORD	wordpools/wasnorm_wordpool.txt	LTP123	ltpFR	9	7	1	TAR	1435	n/a	n/a	0	n/a	0	0	0	n/a	n/a	n/a	n/a	n/a
1749762	START	n/a	LTP123	ltpFR	9	n/a	n/a	n/a	n/a	n/a	n/a	n/a	n/a	n/a	n/a	n/a	n/a	n/a	n/a	n/a	n/a
1751271	PROB	n/a	LTP123	ltpFR	9	n/a	n/a	n/a	n/a	n/a	n/a	n/a	17	7	6	4	n/a	n/a	n/a	n/a	n/a
1753844	PROB	n/a	LTP123	ltpFR	9	n/a	n/a	n/a	n/a	n/a	n/a	n/a	19	8	3	8	n/a	n/a	n/a	n/a	n/a
1755586	PROB	n/a	LTP123	ltpFR	9	n/a	n/a	n/a	n/a	n/a	n/a	n/a	19	9	7	3	n/a	n/a	n/a	n/a	n/a
1757077	PROB	n/a	LTP123	ltpFR	9	n/a	n/a	n/a	n/a	n/a	n/a	n/a	19	9	4	6	n/a	n/a	n/a	n/a	n/a
1758834	PROB	n/a	LTP123	ltpFR	9	n/a	n/a	n/a	n/a	n/a	n/a	n/a	18	9	5	4	n/a	n/a	n/a	n/a	n/a
1760783	PROB	n/a	LTP123	ltpFR	9	n/a	n/a	n/a	n/a	n/a	n/a	n/a	21	7	6	9	n/a	n/a	n/a	n/a	n/a
1763083	PROB	n/a	LTP123	ltpFR	9	n/a	n/a	n/a	n/a	n/a	n/a	n/a	16	5	8	3	n/a	n/a	n/a	n/a	n/a
1765122	STOP	n/a	LTP123	ltpFR	9	n/a	n/a	n/a	n/a	n/a	n/a	n/a	n/a	n/a	n/a	n/a	n/a	n/a	n/a	n/a	n/a
1766831	WORD	wordpools/wasnorm_wordpool.txt	LTP123	ltpFR	9	8	0	COOKBOOK	373	n/a	n/a	0	n/a	0	0	0	0.57763671875	0.412841796875	1	upper	zerothre.ttf
1769838	START	n/a	LTP123	ltpFR	9	n/a	n/a	n/a	n/a	n/a	n/a	n/a	n/a	n/a	n/a	n/a	n/a	n/a	n/a	n/a	n/a
1770738	PROB	n/a	LTP123	ltpFR	9	n/a	n/a	n/a	n/a	n/a	n/a	n/a	7	4	2	1	n/a	n/a	n/a	n/a	n/a
1772596	PROB	n/a	LTP123	ltpFR	9	n/a	n/a	n/a	n/a	n/a	n/a	n/a	13	5	3	5	n/a	n/a	n/a	n/a	n/a
1774936	PROB	n/a	LTP123	ltpFR	9	n/a	n/a	n/a	n/a	n/a	n/a	n/a	13	3	7	3	n/a	n/a	n/a	n/a	n/a
1776677	PROB	n/a	LTP123	ltpFR	9	n/a	n/a	n/a	n/a	n/a	n/a	n/a	10	2	3	5	n/a	n/a	n/a	n/a	n/a
1778578	PROB	n/a	LTP123	ltpFR	9	n/a	n/a	n/a	n/a	n/a	n/a	n/a	21	4	8	9	n/a	n/a	n/a	n/a	n/a
1781460	PROB	n/a	LTP123	ltpFR	9	n/a	n/a	n/a	n/a	n/a	n/a	n/a	16	8	5	3	n/a	n/a	n/a	n/a	n/a
1783384	PROB	n/a	LTP123	ltpFR	9	n/a	n/a	n/a	n/a	n/a	n/a	n/a	10	1	6	3	n/a	n/a	n/a	n/a	n/a
1785202	STOP	n/a	LTP123	ltpFR	9	n/a	n/a	n/a	n/a	n/a	n/a	n/a	n/a	n/a	n/a	n/a	n/a	n/a	n/a	n/a	n/a
1786940	WORD	wordpools/wasnorm_wordpool.txt	LTP123	ltpFR	9	8	0	WALRUS	1585	n/a	n/a	1	n/a	0	0	0	0.57763671875	0.412841796875	1	upper	zerothre.ttf
1789948	START	n/a	LTP123	ltpFR	9	n/a	n/a	n/a	n/a	n/a	n/a	n/a	n/a	n/a	n/a	n/a	n/a	n/a	n/a	n/a	n/a
1790839	PROB	n/a	LTP123	ltpFR	9	n/a	n/a	n/a	n/a	n/a	n/a	n/a	17	6	7	4	n/a	n/a	n/a	n/a	n/a
1792688	PROB	n/a	LTP123	ltpFR	9	n/a	n/a	n/a	n/a	n/a	n/a	n/a	15	4	3	8	n/a	n/a	n/a	n/a	n/a
1794514	PROB	n/a	LTP123	ltpFR	9	n/a	n/a	n/a	n/a	n/a	n/a	n/a	12	3	2	7	n/a	n/a	n/a	n/a	n/a
1796388	PROB	n/a	LTP123	ltpFR	9	n/a	n/a	n/a	n/a	n/a	n/a	n/a	18	6	4	8	n/a	n/a	n/a	n/a	n/a
1797961	PROB	n/a	LTP123	ltpFR	9	n/a	n/a	n/a	n/a	n/a	n/a	n/a	21	5	8	8	n/a	n/a	n/a	n/a	n/a
1800128	PROB	n/a	LTP123	ltpFR	9	n/a	n/a	n/a	n/a	n/a	n/a	n/a	14	5	1	8	n/a	n/a	n/a	n/a	n/a
1801868	PROB	n/a	LTP123	ltpFR	9	n/a	n/a	n/a	n/a	n/a	n/a	n/a	16	3	9	4	n/a	n/a	n/a	n/a	n/a
1805817	STOP	n/a	LTP123	ltpFR	9	n/a	n/a	n/a	n/a	n/a	n/a	n/a	n/a	n/a	n/a	n/a	n/a	n/a	n/a	n/a	n/a
1806858	WORD	wordpools/wasnorm_wordpool.txt	LTP123	ltpFR	9	8	1	TORTOISE	1486	n/a	n/a	1	n/a	0	0	0	0.422607421875	0.5869140625	0	lower	amplitud.ttf
1809866	START	n/a	LTP123	ltpFR	9	n/a	n/a	n/a	n/a	n/a	n/a	n/a	n/a	n/a	n/a	n/a	n/a	n/a	n/a	n/a	n/a
1810840	PROB	n/a	LTP123	ltpFR	9	n/a	n/a	n/a	n/a	n/a	n/a	n/a	7	1	2	4	n/a	n/a	n/a	n/a	n/a
1812540	PROB	n/a	LTP123	ltpFR	9	n/a	n/a	n/a	n/a	n/a	n/a	n/a	16	3	8	5	n/a	n/a	n/a	n/a	n/a
1814689	PROB	n/a	LTP123	ltpFR	9	n/a	n/a	n/a	n/a	n/a	n/a	n/a	23	7	7	9	n/a	n/a	n/a	n/a	n/a
1817264	PROB	n/a	LTP123	ltpFR	9	n/a	n/a	n/a	n/a	n/a	n/a	n/a	14	3	3	8	n/a	n/a	n/a	n/a	n/a
1819080	PROB	n/a	LTP123	ltpFR	9	n/a	n/a	n/a	n/a	n/a	n/a	n/a	14	3	2	9	n/a	n/a	n/a	n/a	n/a
1820837	PROB	n/a	LTP123	ltpFR	9	n/a	n/a	n/a	n/a	n/a	n/a	n/a	21	8	6	7	n/a	n/a	n/a	n/a	n/a
1824120	PROB	n/a	LTP123	ltpFR	9	n/a	n/a	n/a	n/a	n/a	n/a	n/a	14	4	5	5	n/a	n/a	n/a	n/a	n/a
1825354	STOP	n/a	LTP123	ltpFR	9	n/a	n/a	n/a	n/a	n/a	n/a	n/a	n/a	n/a	n/a	n/a	n/a	n/a	n/a	n/a	n/a
1826901	WORD	wordpools/wasnorm_wordpool.txt	LTP123	ltpFR	9	8	1	CLAM	315	n/a	n/a	1	n/a	0	0	0	0.422607421875	0.5869140625	0	lower	amplitud.ttf
1829909	START	n/a	LTP123	ltpFR	9	n/a	n/a	n/a	n/a	n/a	n/a	n/a	n/a	n/a	n/a	n/a	n/a	n/a	n/a	n/a	n/a
1831067	PROB	n/a	LTP123	ltpFR	9	n/a	n/a	n/a	n/a	n/a	n/a	n/a	9	1	5	3	n/a	n/a	n/a	n/a	n/a
1832741	PROB	n/a	LTP123	ltpFR	9	n/a	n/a	n/a	n/a	n/a	n/a	n/a	11	3	5	3	n/a	n/a	n/a	n/a	n/a
1834723	PROB	n/a	LTP123	ltpFR	9	n/a	n/a	n/a	n/a	n/a	n/a	n/a	13	5	2	6	n/a	n/a	n/a	n/a	n/a
1837515	PROB	n/a	LTP123	ltpFR	9	n/a	n/a	n/a	n/a	n/a	n/a	n/a	15	7	2	6	n/a	n/a	n/a	n/a	n/a
1839955	PROB	n/a	LTP123	ltpFR	9	n/a	n/a	n/a	n/a	n/a	n/a	n/a	12	5	5	2	n/a	n/a	n/a	n/a	n/a
1841322	PROB	n/a	LTP123	ltpFR	9	n/a	n/a	n/a	n/a	n/a	n/a	n/a	19	8	2	9	n/a	n/a	n/a	n/a	n/a
1842904	PROB	n/a	LTP123	ltpFR	9	n/a	n/a	n/a	n/a	n/a	n/a	n/a	8	2	4	2	n/a	n/a	n/a	n/a	n/a
1844538	STOP	n/a	LTP123	ltpFR	9	n/a	n/a	n/a	n/a	n/a	n/a	n/a	n/a	n/a	n/a	n/a	n/a	n/a	n/a	n/a	n/a
1847112	WORD	wordpools/wasnorm_wordpool.txt	LTP123	ltpFR	9	8	0	NAPKIN	937	n/a	n/a	0	n/a	0	0	0	0.57763671875	0.412841796875	1	upper	zerothre.ttf
1850119	START	n/a	LTP123	ltpFR	9	n/a	n/a	n/a	n/a	n/a	n/a	n/a	n/a	n/a	n/a	n/a	n/a	n/a	n/a	n/a	n/a
1851168	PROB	n/a	LTP123	ltpFR	9	n/a	n/a	n/a	n/a	n/a	n/a	n/a	18	6	6	6	n/a	n/a	n/a	n/a	n/a
1852767	PROB	n/a	LTP123	ltpFR	9	n/a	n/a	n/a	n/a	n/a	n/a	n/a	16	7	8	1	n/a	n/a	n/a	n/a	n/a
1854974	PROB	n/a	LTP123	ltpFR	9	n/a	n/a	n/a	n/a	n/a	n/a	n/a	12	4	3	5	n/a	n/a	n/a	n/a	n/a
1856957	PROB	n/a	LTP123	ltpFR	9	n/a	n/a	n/a	n/a	n/a	n/a	n/a	19	6	6	7	n/a	n/a	n/a	n/a	n/a
1860039	PROB	n/a	LTP123	ltpFR	9	n/a	n/a	n/a	n/a	n/a	n/a	n/a	21	6	7	9	n/a	n/a	n/a	n/a	n/a
1862348	PROB	n/a	LTP123	ltpFR	9	n/a	n/a	n/a	n/a	n/a	n/a	n/a	22	4	9	9	n/a	n/a	n/a	n/a	n/a
1866119	STOP	n/a	LTP123	ltpFR	9	n/a	n/a	n/a	n/a	n/a	n/a	n/a	n/a	n/a	n/a	n/a	n/a	n/a	n/a	n/a	n/a
1867104	WORD	wordpools/wasnorm_wordpool.txt	LTP123	ltpFR	9	8	0	REFRIGERATOR	1179	n/a	n/a	1	n/a	0	0	0	0.57763671875	0.412841796875	1	upper	zerothre.ttf
1870112	START	n/a	LTP123	ltpFR	9	n/a	n/a	n/a	n/a	n/a	n/a	n/a	n/a	n/a	n/a	n/a	n/a	n/a	n/a	n/a	n/a
1870960	PROB	n/a	LTP123	ltpFR	9	n/a	n/a	n/a	n/a	n/a	n/a	n/a	15	2	6	7	n/a	n/a	n/a	n/a	n/a
1872943	PROB	n/a	LTP123	ltpFR	9	n/a	n/a	n/a	n/a	n/a	n/a	n/a	19	5	8	6	n/a	n/a	n/a	n/a	n/a
1875493	PROB	n/a	LTP123	ltpFR	9	n/a	n/a	n/a	n/a	n/a	n/a	n/a	12	6	3	3	n/a	n/a	n/a	n/a	n/a
1877367	PROB	n/a	LTP123	ltpFR	9	n/a	n/a	n/a	n/a	n/a	n/a	n/a	14	4	5	5	n/a	n/a	n/a	n/a	n/a
1878999	PROB	n/a	LTP123	ltpFR	9	n/a	n/a	n/a	n/a	n/a	n/a	n/a	3	1	1	1	n/a	n/a	n/a	n/a	n/a
1880508	PROB	n/a	LTP123	ltpFR	9	n/a	n/a	n/a	n/a	n/a	n/a	n/a	15	5	9	1	n/a	n/a	n/a	n/a	n/a
1886112	STOP	n/a	LTP123	ltpFR	9	n/a	n/a	n/a	n/a	n/a	n/a	n/a	n/a	n/a	n/a	n/a	n/a	n/a	n/a	n/a	n/a
1887239	WORD	wordpools/wasnorm_wordpool.txt	LTP123	ltpFR	9	8	0	COWBOY	395	n/a	n/a	1	n/a	0	0	0	0.57763671875	0.412841796875	1	upper	zerothre.ttf
1890247	START	n/a	LTP123	ltpFR	9	n/a	n/a	n/a	n/a	n/a	n/a	n/a	n/a	n/a	n/a	n/a	n/a	n/a	n/a	n/a	n/a
1891296	PROB	n/a	LTP123	ltpFR	9	n/a	n/a	n/a	n/a	n/a	n/a	n/a	7	1	5	1	n/a	n/a	n/a	n/a	n/a
1892894	PROB	n/a	LTP123	ltpFR	9	n/a	n/a	n/a	n/a	n/a	n/a	n/a	14	4	1	9	n/a	n/a	n/a	n/a	n/a
1895145	PROB	n/a	LTP123	ltpFR	9	n/a	n/a	n/a	n/a	n/a	n/a	n/a	18	4	9	5	n/a	n/a	n/a	n/a	n/a
1897335	PROB	n/a	LTP123	ltpFR	9	n/a	n/a	n/a	n/a	n/a	n/a	n/a	18	7	9	2	n/a	n/a	n/a	n/a	n/a
1899218	PROB	n/a	LTP123	ltpFR	9	n/a	n/a	n/a	n/a	n/a	n/a	n/a	17	1	8	8	n/a	n/a	n/a	n/a	n/a
1902250	PROB	n/a	LTP123	ltpFR	9	n/a	n/a	n/a	n/a	n/a	n/a	n/a	14	2	5	7	n/a	n/a	n/a	n/a	n/a
1906246	STOP	n/a	LTP123	ltpFR	9	n/a	n/a	n/a	n/a	n/a	n/a	n/a	n/a	n/a	n/a	n/a	n/a	n/a	n/a	n/a	n/a
1907423	WORD	wordpools/wasnorm_wordpool.txt	LTP123	ltpFR	9	8	1	BARN	89	n/a	n/a	0	n/a	0	0	0	0.422607421875	0.5869140625	0	lower	amplitud.ttf
1910431	START	n/a	LTP123	ltpFR	9	n/a	n/a	n/a	n/a	n/a	n/a	n/a	n/a	n/a	n/a	n/a	n/a	n/a	n/a	n/a	n/a
1911514	PROB	n/a	LTP123	ltpFR	9	n/a	n/a	n/a	n/a	n/a	n/a	n/a	14	5	6	3	n/a	n/a	n/a	n/a	n/a
1914770	PROB	n/a	LTP123	ltpFR	9	n/a	n/a	n/a	n/a	n/a	n/a	n/a	4	2	1	1	n/a	n/a	n/a	n/a	n/a
1915861	PROB	n/a	LTP123	ltpFR	9	n/a	n/a	n/a	n/a	n/a	n/a	n/a	17	2	6	9	n/a	n/a	n/a	n/a	n/a
1917860	PROB	n/a	LTP123	ltpFR	9	n/a	n/a	n/a	n/a	n/a	n/a	n/a	9	3	1	5	n/a	n/a	n/a	n/a	n/a
1920061	PROB	n/a	LTP123	ltpFR	9	n/a	n/a	n/a	n/a	n/a	n/a	n/a	23	6	9	8	n/a	n/a	n/a	n/a	n/a
1926431	STOP	n/a	LTP123	ltpFR	9	n/a	n/a	n/a	n/a	n/a	n/a	n/a	n/a	n/a	n/a	n/a	n/a	n/a	n/a	n/a	n/a
1927275	WORD	wordpools/wasnorm_wordpool.txt	LTP123	ltpFR	9	8	1	COLOGNE	347	n/a	n/a	0	n/a	0	0	0	0.422607421875	0.5869140625	0	lower	amplitud.ttf
1930283	START	n/a	LTP123	ltpFR	9	n/a	n/a	n/a	n/a	n/a	n/a	n/a	n/a	n/a	n/a	n/a	n/a	n/a	n/a	n/a	n/a
1931282	PROB	n/a	LTP123	ltpFR	9	n/a	n/a	n/a	n/a	n/a	n/a	n/a	18	6	5	7	n/a	n/a	n/a	n/a	n/a
1933581	PROB	n/a	LTP123	ltpFR	9	n/a	n/a	n/a	n/a	n/a	n/a	n/a	12	5	3	4	n/a	n/a	n/a	n/a	n/a
1935804	PROB	n/a	LTP123	ltpFR	9	n/a	n/a	n/a	n/a	n/a	n/a	n/a	10	8	1	1	n/a	n/a	n/a	n/a	n/a
1937221	PROB	n/a	LTP123	ltpFR	9	n/a	n/a	n/a	n/a	n/a	n/a	n/a	11	4	6	1	n/a	n/a	n/a	n/a	n/a
1938404	PROB	n/a	LTP123	ltpFR	9	n/a	n/a	n/a	n/a	n/a	n/a	n/a	16	8	5	3	n/a	n/a	n/a	n/a	n/a
1940019	PROB	n/a	LTP123	ltpFR	9	n/a	n/a	n/a	n/a	n/a	n/a	n/a	18	6	5	7	n/a	n/a	n/a	n/a	n/a
1941835	PROB	n/a	LTP123	ltpFR	9	n/a	n/a	n/a	n/a	n/a	n/a	n/a	8	2	2	4	n/a	n/a	n/a	n/a	n/a
1943436	PROB	n/a	LTP123	ltpFR	9	n/a	n/a	n/a	n/a	n/a	n/a	n/a	18	9	8	1	n/a	n/a	n/a	n/a	n/a
1945442	STOP	n/a	LTP123	ltpFR	9	n/a	n/a	n/a	n/a	n/a	n/a	n/a	n/a	n/a	n/a	n/a	n/a	n/a	n/a	n/a	n/a
1947101	WORD	wordpools/wasnorm_wordpool.txt	LTP123	ltpFR	9	8	1	OYSTER	995	n/a	n/a	1	n/a	0	0	0	0.422607421875	0.5869140625	0	lower	amplitud.ttf
1950109	START	n/a	LTP123	ltpFR	9	n/a	n/a	n/a	n/a	n/a	n/a	n/a	n/a	n/a	n/a	n/a	n/a	n/a	n/a	n/a	n/a
1951108	PROB	n/a	LTP123	ltpFR	9	n/a	n/a	n/a	n/a	n/a	n/a	n/a	17	6	2	9	n/a	n/a	n/a	n/a	n/a
1952948	PROB	n/a	LTP123	ltpFR	9	n/a	n/a	n/a	n/a	n/a	n/a	n/a	10	2	5	3	n/a	n/a	n/a	n/a	n/a
1954789	PROB	n/a	LTP123	ltpFR	9	n/a	n/a	n/a	n/a	n/a	n/a	n/a	13	4	2	7	n/a	n/a	n/a	n/a	n/a
1958539	PROB	n/a	LTP123	ltpFR	9	n/a	n/a	n/a	n/a	n/a	n/a	n/a	12	5	1	6	n/a	n/a	n/a	n/a	n/a
1960912	PROB	n/a	LTP123	ltpFR	9	n/a	n/a	n/a	n/a	n/a	n/a	n/a	15	5	9	1	n/a	n/a	n/a	n/a	n/a
1962362	PROB	n/a	LTP123	ltpFR	9	n/a	n/a	n/a	n/a	n/a	n/a	n/a	14	6	6	2	n/a	n/a	n/a	n/a	n/a
1963844	PROB	n/a	LTP123	ltpFR	9	n/a	n/a	n/a	n/a	n/a	n/a	n/a	19	6	7	6	n/a	n/a	n/a	n/a	n/a
1965961	STOP	n/a	LTP123	ltpFR	9	n/a	n/a	n/a	n/a	n/a	n/a	n/a	n/a	n/a	n/a	n/a	n/a	n/a	n/a	n/a	n/a
1967227	WORD	wordpools/wasnorm_wordpool.txt	LTP123	ltpFR	9	8	1	DUNE	506	n/a	n/a	0	n/a	0	0	0	0.422607421875	0.5869140625	0	lower	amplitud.ttf
1970235	START	n/a	LTP123	ltpFR	9	n/a	n/a	n/a	n/a	n/a	n/a	n/a	n/a	n/a	n/a	n/a	n/a	n/a	n/a	n/a	n/a
1971318	PROB	n/a	LTP123	ltpFR	9	n/a	n/a	n/a	n/a	n/a	n/a	n/a	13	5	4	4	n/a	n/a	n/a	n/a	n/a
1973350	PROB	n/a	LTP123	ltpFR	9	n/a	n/a	n/a	n/a	n/a	n/a	n/a	6	4	1	1	n/a	n/a	n/a	n/a	n/a
1974740	PROB	n/a	LTP123	ltpFR	9	n/a	n/a	n/a	n/a	n/a	n/a	n/a	15	3	7	5	n/a	n/a	n/a	n/a	n/a
1976049	PROB	n/a	LTP123	ltpFR	9	n/a	n/a	n/a	n/a	n/a	n/a	n/a	15	4	3	8	n/a	n/a	n/a	n/a	n/a
1977549	PROB	n/a	LTP123	ltpFR	9	n/a	n/a	n/a	n/a	n/a	n/a	n/a	19	6	9	4	n/a	n/a	n/a	n/a	n/a
1980398	PROB	n/a	LTP123	ltpFR	9	n/a	n/a	n/a	n/a	n/a	n/a	n/a	13	5	2	6	n/a	n/a	n/a	n/a	n/a
1983037	PROB	n/a	LTP123	ltpFR	9	n/a	n/a	n/a	n/a	n/a	n/a	n/a	15	1	6	8	n/a	n/a	n/a	n/a	n/a
1984713	STOP	n/a	LTP123	ltpFR	9	n/a	n/a	n/a	n/a	n/a	n/a	n/a	n/a	n/a	n/a	n/a	n/a	n/a	n/a	n/a	n/a
1987320	WORD	wordpools/wasnorm_wordpool.txt	LTP123	ltpFR	9	8	1	CRAB	397	n/a	n/a	1	n/a	0	0	0	0.422607421875	0.5869140625	0	lower	amplitud.ttf
1990328	START	n/a	LTP123	ltpFR	9	n/a	n/a	n/a	n/a	n/a	n/a	n/a	n/a	n/a	n/a	n/a	n/a	n/a	n/a	n/a	n/a
1991394	PROB	n/a	LTP123	ltpFR	9	n/a	n/a	n/a	n/a	n/a	n/a	n/a	20	2	9	9	n/a	n/a	n/a	n/a	n/a
1993343	PROB	n/a	LTP123	ltpFR	9	n/a	n/a	n/a	n/a	n/a	n/a	n/a	16	7	1	8	n/a	n/a	n/a	n/a	n/a
1996024	PROB	n/a	LTP123	ltpFR	9	n/a	n/a	n/a	n/a	n/a	n/a	n/a	18	9	8	1	n/a	n/a	n/a	n/a	n/a
1998050	PROB	n/a	LTP123	ltpFR	9	n/a	n/a	n/a	n/a	n/a	n/a	n/a	8	1	3	4	n/a	n/a	n/a	n/a	n/a
2000174	PROB	n/a	LTP123	ltpFR	9	n/a	n/a	n/a	n/a	n/a	n/a	n/a	11	1	6	4	n/a	n/a	n/a	n/a	n/a
2001457	PROB	n/a	LTP123	ltpFR	9	n/a	n/a	n/a	n/a	n/a	n/a	n/a	13	5	7	1	n/a	n/a	n/a	n/a	n/a
2003573	PROB	n/a	LTP123	ltpFR	9	n/a	n/a	n/a	n/a	n/a	n/a	n/a	15	4	7	4	n/a	n/a	n/a	n/a	n/a
2005434	STOP	n/a	LTP123	ltpFR	9	n/a	n/a	n/a	n/a	n/a	n/a	n/a	n/a	n/a	n/a	n/a	n/a	n/a	n/a	n/a	n/a
2007455	WORD	wordpools/wasnorm_wordpool.txt	LTP123	ltpFR	9	8	1	SWAN	1417	n/a	n/a	1	n/a	0	0	0	0.422607421875	0.5869140625	0	lower	amplitud.ttf
2010462	START	n/a	LTP123	ltpFR	9	n/a	n/a	n/a	n/a	n/a	n/a	n/a	n/a	n/a	n/a	n/a	n/a	n/a	n/a	n/a	n/a
2011378	PROB	n/a	LTP123	ltpFR	9	n/a	n/a	n/a	n/a	n/a	n/a	n/a	17	6	3	8	n/a	n/a	n/a	n/a	n/a
2013344	PROB	n/a	LTP123	ltpFR	9	n/a	n/a	n/a	n/a	n/a	n/a	n/a	19	5	8	6	n/a	n/a	n/a	n/a	n/a
2016318	PROB	n/a	LTP123	ltpFR	9	n/a	n/a	n/a	n/a	n/a	n/a	n/a	15	7	3	5	n/a	n/a	n/a	n/a	n/a
2017609	PROB	n/a	LTP123	ltpFR	9	n/a	n/a	n/a	n/a	n/a	n/a	n/a	15	8	3	4	n/a	n/a	n/a	n/a	n/a
2019167	PROB	n/a	LTP123	ltpFR	9	n/a	n/a	n/a	n/a	n/a	n/a	n/a	15	4	6	5	n/a	n/a	n/a	n/a	n/a
2020841	PROB	n/a	LTP123	ltpFR	9	n/a	n/a	n/a	n/a	n/a	n/a	n/a	16	5	4	7	n/a	n/a	n/a	n/a	n/a
2023507	PROB	n/a	LTP123	ltpFR	9	n/a	n/a	n/a	n/a	n/a	n/a	n/a	17	9	3	5	n/a	n/a	n/a	n/a	n/a
2025961	STOP	n/a	LTP123	ltpFR	9	n/a	n/a	n/a	n/a	n/a	n/a	n/a	n/a	n/a	n/a	n/a	n/a	n/a	n/a	n/a	n/a
2027531	WORD	wordpools/wasnorm_wordpool.txt	LTP123	ltpFR	9	8	0	GOOSE	649	n/a	n/a	1	n/a	0	0	0	0.57763671875	0.412841796875	1	upper	zerothre.ttf
2030539	START	n/a	LTP123	ltpFR	9	n/a	n/a	n/a	n/a	n/a	n/a	n/a	n/a	n/a	n/a	n/a	n/a	n/a	n/a	n/a	n/a
2031588	PROB	n/a	LTP123	ltpFR	9	n/a	n/a	n/a	n/a	n/a	n/a	n/a	18	4	7	7	n/a	n/a	n/a	n/a	n/a
2033229	PROB	n/a	LTP123	ltpFR	9	n/a	n/a	n/a	n/a	n/a	n/a	n/a	19	9	2	8	n/a	n/a	n/a	n/a	n/a
2035128	PROB	n/a	LTP123	ltpFR	9	n/a	n/a	n/a	n/a	n/a	n/a	n/a	9	3	3	3	n/a	n/a	n/a	n/a	n/a
2036311	PROB	n/a	LTP123	ltpFR	9	n/a	n/a	n/a	n/a	n/a	n/a	n/a	15	2	9	4	n/a	n/a	n/a	n/a	n/a
2038635	PROB	n/a	LTP123	ltpFR	9	n/a	n/a	n/a	n/a	n/a	n/a	n/a	16	6	1	9	n/a	n/a	n/a	n/a	n/a
2040700	PROB	n/a	LTP123	ltpFR	9	n/a	n/a	n/a	n/a	n/a	n/a	n/a	12	7	2	3	n/a	n/a	n/a	n/a	n/a
2042534	PROB	n/a	LTP123	ltpFR	9	n/a	n/a	n/a	n/a	n/a	n/a	n/a	15	3	3	9	n/a	n/a	n/a	n/a	n/a
2046538	STOP	n/a	LTP123	ltpFR	9	n/a	n/a	n/a	n/a	n/a	n/a	n/a	n/a	n/a	n/a	n/a	n/a	n/a	n/a	n/a	n/a
2047366	WORD	wordpools/wasnorm_wordpool.txt	LTP123	ltpFR	9	8	0	SHOE	1288	n/a	n/a	0	n/a	0	0	0	0.57763671875	0.412841796875	1	upper	zerothre.ttf
2050373	START	n/a	LTP123	ltpFR	9	n/a	n/a	n/a	n/a	n/a	n/a	n/a	n/a	n/a	n/a	n/a	n/a	n/a	n/a	n/a	n/a
2051206	PROB	n/a	LTP123	ltpFR	9	n/a	n/a	n/a	n/a	n/a	n/a	n/a	10	2	2	6	n/a	n/a	n/a	n/a	n/a
2052646	PROB	n/a	LTP123	ltpFR	9	n/a	n/a	n/a	n/a	n/a	n/a	n/a	12	2	2	8	n/a	n/a	n/a	n/a	n/a
2054770	PROB	n/a	LTP123	ltpFR	9	n/a	n/a	n/a	n/a	n/a	n/a	n/a	16	7	2	7	n/a	n/a	n/a	n/a	n/a
2057179	PROB	n/a	LTP123	ltpFR	9	n/a	n/a	n/a	n/a	n/a	n/a	n/a	14	5	1	8	n/a	n/a	n/a	n/a	n/a
2059495	PROB	n/a	LTP123	ltpFR	9	n/a	n/a	n/a	n/a	n/a	n/a	n/a	13	1	6	6	n/a	n/a	n/a	n/a	n/a
2061119	PROB	n/a	LTP123	ltpFR	9	n/a	n/a	n/a	n/a	n/a	n/a	n/a	15	6	8	1	n/a	n/a	n/a	n/a	n/a
2062851	PROB	n/a	LTP123	ltpFR	9	n/a	n/a	n/a	n/a	n/a	n/a	n/a	20	3	9	8	n/a	n/a	n/a	n/a	n/a
2066373	STOP	n/a	LTP123	ltpFR	9	n/a	n/a	n/a	n/a	n/a	n/a	n/a	n/a	n/a	n/a	n/a	n/a	n/a	n/a	n/a	n/a
2067350	WORD	wordpools/wasnorm_wordpool.txt	LTP123	ltpFR	9	8	0	CORK	380	n/a	n/a	0	n/a	0	0	0	0.57763671875	0.412841796875	1	upper	zerothre.ttf
2070358	START	n/a	LTP123	ltpFR	9	n/a	n/a	n/a	n/a	n/a	n/a	n/a	n/a	n/a	n/a	n/a	n/a	n/a	n/a	n/a	n/a
2071374	PROB	n/a	LTP123	ltpFR	9	n/a	n/a	n/a	n/a	n/a	n/a	n/a	3	1	1	1	n/a	n/a	n/a	n/a	n/a
2072482	PROB	n/a	LTP123	ltpFR	9	n/a	n/a	n/a	n/a	n/a	n/a	n/a	15	8	1	6	n/a	n/a	n/a	n/a	n/a
2074065	PROB	n/a	LTP123	ltpFR	9	n/a	n/a	n/a	n/a	n/a	n/a	n/a	20	8	5	7	n/a	n/a	n/a	n/a	n/a
2076505	PROB	n/a	LTP123	ltpFR	9	n/a	n/a	n/a	n/a	n/a	n/a	n/a	22	8	5	9	n/a	n/a	n/a	n/a	n/a
2079571	PROB	n/a	LTP123	ltpFR	9	n/a	n/a	n/a	n/a	n/a	n/a	n/a	22	8	6	8	n/a	n/a	n/a	n/a	n/a
2082245	PROB	n/a	LTP123	ltpFR	9	n/a	n/a	n/a	n/a	n/a	n/a	n/a	24	9	6	9	n/a	n/a	n/a	n/a	n/a
2085626	STOP	n/a	LTP123	ltpFR	9	n/a	n/a	n/a	n/a	n/a	n/a	n/a	n/a	n/a	n/a	n/a	n/a	n/a	n/a	n/a	n/a
2088243	REC_START	n/a	LTP123	ltpFR	9	8	n/a	n/a	n/a	n/a	n/a	n/a	n/a	0	0	0	n/a	n/a	n/a	n/a	n/a
2089290	REC_WORD	wordpools/wasnorm_wordpool.txt	LTP123	ltpFR	9	8	0	SHOE	1288	n/a	n/a	0	n/a	0	0	0	n/a	n/a	n/a	n/a	n/a
2090148	REC_WORD	wordpools/wasnorm_wordpool.txt	LTP123	ltpFR	9	8	0	CORK	380	n/a	n/a	0	n/a	0	0	0	n/a	n/a	n/a	n/a	n/a
2090766	REC_WORD	wordpools/wasnorm_wordpool.txt	LTP123	ltpFR	9	8	1	SWAN	1417	n/a	n/a	1	n/a	0	0	0	n/a	n/a	n/a	n/a	n/a
2091715	REC_WORD	wordpools/wasnorm_wordpool.txt	LTP123	ltpFR	9	8	0	GOOSE	649	n/a	n/a	1	n/a	0	0	0	n/a	n/a	n/a	n/a	n/a
2092987	REC_WORD	wordpools/wasnorm_wordpool.txt	LTP123	ltpFR	9	8	1	CRAB	397	n/a	n/a	1	n/a	0	0	0	n/a	n/a	n/a	n/a	n/a
2093780	REC_WORD	wordpools/wasnorm_wordpool.txt	LTP123	ltpFR	9	8	1	OYSTER	995	n/a	n/a	1	n/a	0	0	0	n/a	n/a	n/a	n/a	n/a
2098405	REC_WORD	wordpools/wasnorm_wordpool.txt	LTP123	ltpFR	9	8	1	DUNE	506	n/a	n/a	0	n/a	0	0	0	n/a	n/a	n/a	n/a	n/a
2107968	REC_WORD	wordpools/wasnorm_wordpool.txt	LTP123	ltpFR	9	8	0	REFRIGERATOR	1179	n/a	n/a	1	n/a	0	0	0	n/a	n/a	n/a	n/a	n/a
2175154	WORD	wordpools/wasnorm_wordpool.txt	LTP123	ltpFR	9	9	1	TOMATO	1476	n/a	n/a	0	n/a	0	0	0	0.422607421875	0.5869140625	0	lower	amplitud.ttf
2179227	WORD	wordpools/wasnorm_wordpool.txt	LTP123	ltpFR	9	9	1	PALM	1007	n/a	n/a	0	n/a	0	0	0	0.422607421875	0.5869140625	0	lower	amplitud.ttf
2183226	WORD	wordpools/wasnorm_wordpool.txt	LTP123	ltpFR	9	9	0	NICKEL	950	n/a	n/a	0	n/a	0	0	0	0.57763671875	0.412841796875	1	upper	zerothre.ttf
2187424	WORD	wordpools/wasnorm_wordpool.txt	LTP123	ltpFR	9	9	0	APE	31	n/a	n/a	1	n/a	0	0	0	0.57763671875	0.412841796875	1	upper	zerothre.ttf
2191373	WORD	wordpools/wasnorm_wordpool.txt	LTP123	ltpFR	9	9	0	PRIMATE	1123	n/a	n/a	1	n/a	0	0	0	0.57763671875	0.412841796875	1	upper	zerothre.ttf
2195388	WORD	wordpools/wasnorm_wordpool.txt	LTP123	ltpFR	9	9	1	CASH	252	n/a	n/a	0	n/a	0	0	0	0.422607421875	0.5869140625	0	lower	amplitud.ttf
2199362	WORD	wordpools/wasnorm_wordpool.txt	LTP123	ltpFR	9	9	1	ALLIGATOR	16	n/a	n/a	1	n/a	0	0	0	0.422607421875	0.5869140625	0	lower	amplitud.ttf
2203335	WORD	wordpools/wasnorm_wordpool.txt	LTP123	ltpFR	9	9	1	BISON	131	n/a	n/a	1	n/a	0	0	0	0.422607421875	0.5869140625	0	lower	amplitud.ttf
2207284	WORD	wordpools/wasnorm_wordpool.txt	LTP123	ltpFR	9	9	1	ZUCCHINI	1638	n/a	n/a	0	n/a	0	0	0	0.422607421875	0.5869140625	0	lower	amplitud.ttf
2211183	WORD	wordpools/wasnorm_wordpool.txt	LTP123	ltpFR	9	9	1	THICKET	1455	n/a	n/a	0	n/a	0	0	0	0.422607421875	0.5869140625	0	lower	amplitud.ttf
2214997	WORD	wordpools/wasnorm_wordpool.txt	LTP123	ltpFR	9	9	1	MAILBOX	857	n/a	n/a	0	n/a	0	0	0	0.422607421875	0.5869140625	0	lower	amplitud.ttf
2218970	WORD	wordpools/wasnorm_wordpool.txt	LTP123	ltpFR	9	9	0	PIKE	1067	n/a	n/a	0	n/a	0	0	0	0.57763671875	0.412841796875	1	upper	zerothre.ttf
2222994	WORD	wordpools/wasnorm_wordpool.txt	LTP123	ltpFR	9	9	0	INSECT	740	n/a	n/a	0	n/a	0	0	0	0.57763671875	0.412841796875	1	upper	zerothre.ttf
2227144	WORD	wordpools/wasnorm_wordpool.txt	LTP123	ltpFR	9	9	0	OREGANO	983	n/a	n/a	0	n/a	0	0	0	0.57763671875	0.412841796875	1	upper	zerothre.ttf
2231150	WORD	wordpools/wasnorm_wordpool.txt	LTP123	ltpFR	9	9	0	PIZZA	1079	n/a	n/a	1	n/a	0	0	0	0.57763671875	0.412841796875	1	upper	zerothre.ttf
2235307	WORD	wordpools/wasnorm_wordpool.txt	LTP123	ltpFR	9	9	0	BRAIN	165	n/a	n/a	1	n/a	0	0	0	0.57763671875	0.412841796875	1	upper	zerothre.ttf
2241156	REC_START	n/a	LTP123	ltpFR	9	9	n/a	n/a	n/a	n/a	n/a	n/a	n/a	0	0	0	n/a	n/a	n/a	n/a	n/a
2242049	REC_WORD	wordpools/wasnorm_wordpool.txt	LTP123	ltpFR	9	9	0	BRAIN	165	n/a	n/a	1	n/a	0	0	0	n/a	n/a	n/a	n/a	n/a
2242677	REC_WORD	wordpools/wasnorm_wordpool.txt	LTP123	ltpFR	9	9	0	PIZZA	1079	n/a	n/a	1	n/a	0	0	0	n/a	n/a	n/a	n/a	n/a
2243430	REC_WORD	wordpools/wasnorm_wordpool.txt	LTP123	ltpFR	9	9	0	OREGANO	983	n/a	n/a	0	n/a	0	0	0	n/a	n/a	n/a	n/a	n/a
2245017	REC_WORD	wordpools/wasnorm_wordpool.txt	LTP123	ltpFR	9	9	1	BISON	131	n/a	n/a	1	n/a	0	0	0	n/a	n/a	n/a	n/a	n/a
2249537	REC_WORD	wordpools/wasnorm_wordpool.txt	LTP123	ltpFR	9	9	1	TOMATO	1476	n/a	n/a	0	n/a	0	0	0	n/a	n/a	n/a	n/a	n/a
2250334	REC_WORD	wordpools/wasnorm_wordpool.txt	LTP123	ltpFR	9	9	1	ZUCCHINI	1638	n/a	n/a	0	n/a	0	0	0	n/a	n/a	n/a	n/a	n/a
2255403	REC_WORD	wordpools/wasnorm_wordpool.txt	LTP123	ltpFR	9	9	1	ALLIGATOR	16	n/a	n/a	1	n/a	0	0	0	n/a	n/a	n/a	n/a	n/a
2258656	REC_WORD	wordpools/wasnorm_wordpool.txt	LTP123	ltpFR	9	9	0	NICKEL	950	n/a	n/a	0	n/a	0	0	0	n/a	n/a	n/a	n/a	n/a
2259594	REC_WORD	wordpools/wasnorm_wordpool.txt	LTP123	ltpFR	9	9	1	CASH	252	n/a	n/a	0	n/a	0	0	0	n/a	n/a	n/a	n/a	n/a
2274380	REC_WORD	wordpools/wasnorm_wordpool.txt	LTP123	ltpFR	9	9	0	PIKE	1067	n/a	n/a	0	n/a	0	0	0	n/a	n/a	n/a	n/a	n/a
2312264	REC_WORD	wordpools/wasnorm_wordpool.txt	LTP123	ltpFR	9	9	0	BRAIN	165	n/a	n/a	1	n/a	0	0	0	n/a	n/a	n/a	n/a	n/a
2321726	WORD	wordpools/wasnorm_wordpool.txt	LTP123	ltpFR	9	10	1	WINDSHIELD	1612	n/a	n/a	0	n/a	0	0	0	0.422607421875	0.5869140625	0	lower	amplitud.ttf
2325916	WORD	wordpools/wasnorm_wordpool.txt	LTP123	ltpFR	9	10	1	RAM	1165	n/a	n/a	1	n/a	0	0	0	0.422607421875	0.5869140625	0	lower	amplitud.ttf
2330099	WORD	wordpools/wasnorm_wordpool.txt	LTP123	ltpFR	9	10	1	SHRIMP	1297	n/a	n/a	1	n/a	0	0	0	0.422607421875	0.5869140625	0	lower	amplitud.ttf
2334097	WORD	wordpools/wasnorm_wordpool.txt	LTP123	ltpFR	9	10	1	COMMUNITY	356	n/a	n/a	1	n/a	0	0	0	0.422607421875	0.5869140625	0	lower	amplitud.ttf
2338138	WORD	wordpools/wasnorm_wordpool.txt	LTP123	ltpFR	9	10	1	CONE	363	n/a	n/a	0	n/a	0	0	0	0.422607421875	0.5869140625	0	lower	amplitud.ttf
2342136	WORD	wordpools/wasnorm_wordpool.txt	LTP123	ltpFR	9	10	1	TREAT	1501	n/a	n/a	0	n/a	0	0	0	0.422607421875	0.5869140625	0	lower	amplitud.ttf
2346017	WORD	wordpools/wasnorm_wordpool.txt	LTP123	ltpFR	9	10	1	SOCIETY	1338	n/a	n/a	1	n/a	0	0	0	0.422607421875	0.5869140625	0	lower	amplitud.ttf
2349866	WORD	wordpools/wasnorm_wordpool.txt	LTP123	ltpFR	9	10	1	BREAD	170	n/a	n/a	0	n/a	0	0	0	0.422607421875	0.5869140625	0	lower	amplitud.ttf
2353914	WORD	wordpools/wasnorm_wordpool.txt	LTP123	ltpFR	9	10	1	COD	340	n/a	n/a	1	n/a	0	0	0	0.422607421875	0.5869140625	0	lower	amplitud.ttf
2357980	WORD	wordpools/wasnorm_wordpool.txt	LTP123	ltpFR	9	10	1	FIELD	562	n/a	n/a	0	n/a	0	0	0	0.422607421875	0.5869140625	0	lower	amplitud.ttf
2361920	WORD	wordpools/wasnorm_wordpool.txt	LTP123	ltpFR	9	10	1	TUNA	1518	n/a	n/a	1	n/a	0	0	0	0.422607421875	0.5869140625	0	lower	amplitud.ttf
2365877	WORD	wordpools/wasnorm_wordpool.txt	LTP123	ltpFR	9	10	1	ELF	525	n/a	n/a	1	n/a	0	0	0	0.422607421875	0.5869140625	0	lower	amplitud.ttf
2370017	WORD	wordpools/wasnorm_wordpool.txt	LTP123	ltpFR	9	10	1	FOOT	590	n/a	n/a	0	n/a	0	0	0	0.422607421875	0.5869140625	0	lower	amplitud.ttf
2374125	WORD	wordpools/wasnorm_wordpool.txt	LTP123	ltpFR	9	10	1	TOE	1473	n/a	n/a	0	n/a	0	0	0	0.422607421875	0.5869140625	0	lower	amplitud.ttf
2377947	WORD	wordpools/wasnorm_wordpool.txt	LTP123	ltpFR	9	10	1	BEAST	108	n/a	n/a	1	n/a	0	0	0	0.422607421875	0.5869140625	0	lower	amplitud.ttf
2382072	WORD	wordpools/wasnorm_wordpool.txt	LTP123	ltpFR	9	10	1	COAT	333	n/a	n/a	0	n/a	0	0	0	0.422607421875	0.5869140625	0	lower	amplitud.ttf
2385079	START	n/a	LTP123	ltpFR	9	n/a	n/a	n/a	n/a	n/a	n/a	n/a	n/a	n/a	n/a	n/a	n/a	n/a	n/a	n/a	n/a
2386245	PROB	n/a	LTP123	ltpFR	9	n/a	n/a	n/a	n/a	n/a	n/a	n/a	17	2	9	6	n/a	n/a	n/a	n/a	n/a
2388486	PROB	n/a	LTP123	ltpFR	9	n/a	n/a	n/a	n/a	n/a	n/a	n/a	23	8	7	8	n/a	n/a	n/a	n/a	n/a
2391849	STOP	n/a	LTP123	ltpFR	9	n/a	n/a	n/a	n/a	n/a	n/a	n/a	n/a	n/a	n/a	n/a	n/a	n/a	n/a	n/a	n/a
2394825	REC_START	n/a	LTP123	ltpFR	9	10	n/a	n/a	n/a	n/a	n/a	n/a	n/a	0	0	0	n/a	n/a	n/a	n/a	n/a
2396092	REC_WORD	wordpools/wasnorm_wordpool.txt	LTP123	ltpFR	9	10	1	BEAST	108	n/a	n/a	1	n/a	0	0	0	n/a	n/a	n/a	n/a	n/a
2396870	REC_WORD	wordpools/wasnorm_wordpool.txt	LTP123	ltpFR	9	10	1	ELF	525	n/a	n/a	1	n/a	0	0	0	n/a	n/a	n/a	n/a	n/a
2397498	REC_WORD	wordpools/wasnorm_wordpool.txt	LTP123	ltpFR	9	10	1	FOOT	590	n/a	n/a	0	n/a	0	0	0	n/a	n/a	n/a	n/a	n/a
2398402	REC_WORD	wordpools/wasnorm_wordpool.txt	LTP123	ltpFR	9	10	1	TOE	1473	n/a	n/a	0	n/a	0	0	0	n/a	n/a	n/a	n/a	n/a
2399180	REC_WORD	wordpools/wasnorm_wordpool.txt	LTP123	ltpFR	9	10	1	COD	340	n/a	n/a	1	n/a	0	0	0	n/a	n/a	n/a	n/a	n/a
2400083	REC_WORD	wordpools/wasnorm_wordpool.txt	LTP123	ltpFR	9	10	1	SHRIMP	1297	n/a	n/a	1	n/a	0	0	0	n/a	n/a	n/a	n/a	n/a
2401455	REC_WORD	wordpools/wasnorm_wordpool.txt	LTP123	ltpFR	9	10	1	SOCIETY	1338	n/a	n/a	1	n/a	0	0	0	n/a	n/a	n/a	n/a	n/a
2402652	REC_WORD	wordpools/wasnorm_wordpool.txt	LTP123	ltpFR	9	10	1	COMMUNITY	356	n/a	n/a	1	n/a	0	0	0	n/a	n/a	n/a	n/a	n/a
2409925	REC_WORD	wordpools/wasnorm_wordpool.txt	LTP123	ltpFR	9	10	1	WINDSHIELD	1612	n/a	n/a	0	n/a	0	0	0	n/a	n/a	n/a	n/a	n/a
2470424	REST_REWET	n/a	LTP123	ltpFR	9	10	n/a	n/a	n/a	n/a	n/a	n/a	n/a	0	0	0	n/a	n/a	n/a	n/a	n/a
2995355	START	n/a	LTP123	ltpFR	9	n/a	n/a	n/a	n/a	n/a	n/a	n/a	n/a	n/a	n/a	n/a	n/a	n/a	n/a	n/a	n/a
2996861	PROB	n/a	LTP123	ltpFR	9	n/a	n/a	n/a	n/a	n/a	n/a	n/a	14	5	6	3	n/a	n/a	n/a	n/a	n/a
2998479	PROB	n/a	LTP123	ltpFR	9	n/a	n/a	n/a	n/a	n/a	n/a	n/a	11	2	2	7	n/a	n/a	n/a	n/a	n/a
3000078	PROB	n/a	LTP123	ltpFR	9	n/a	n/a	n/a	n/a	n/a	n/a	n/a	11	2	1	8	n/a	n/a	n/a	n/a	n/a
3003355	STOP	n/a	LTP123	ltpFR	9	n/a	n/a	n/a	n/a	n/a	n/a	n/a	n/a	n/a	n/a	n/a	n/a	n/a	n/a	n/a	n/a
3004327	WORD	wordpools/wasnorm_wordpool.txt	LTP123	ltpFR	9	11	1	SLIME	1327	n/a	n/a	0	n/a	0	0	0	0.422607421875	0.5869140625	0	lower	amplitud.ttf
3007334	START	n/a	LTP123	ltpFR	9	n/a	n/a	n/a	n/a	n/a	n/a	n/a	n/a	n/a	n/a	n/a	n/a	n/a	n/a	n/a	n/a
3008433	PROB	n/a	LTP123	ltpFR	9	n/a	n/a	n/a	n/a	n/a	n/a	n/a	17	7	9	1	n/a	n/a	n/a	n/a	n/a
3010756	PROB	n/a	LTP123	ltpFR	9	n/a	n/a	n/a	n/a	n/a	n/a	n/a	14	2	6	6	n/a	n/a	n/a	n/a	n/a
3012299	PROB	n/a	LTP123	ltpFR	9	n/a	n/a	n/a	n/a	n/a	n/a	n/a	14	6	6	2	n/a	n/a	n/a	n/a	n/a
3014114	STOP	n/a	LTP123	ltpFR	9	n/a	n/a	n/a	n/a	n/a	n/a	n/a	n/a	n/a	n/a	n/a	n/a	n/a	n/a	n/a	n/a
3016431	WORD	wordpools/wasnorm_wordpool.txt	LTP123	ltpFR	9	11	1	SKI	1316	n/a	n/a	0	n/a	0	0	0	0.422607421875	0.5869140625	0	lower	amplitud.ttf
3019438	START	n/a	LTP123	ltpFR	9	n/a	n/a	n/a	n/a	n/a	n/a	n/a	n/a	n/a	n/a	n/a	n/a	n/a	n/a	n/a	n/a
3020521	PROB	n/a	LTP123	ltpFR	9	n/a	n/a	n/a	n/a	n/a	n/a	n/a	7	5	1	1	n/a	n/a	n/a	n/a	n/a
3023203	PROB	n/a	LTP123	ltpFR	9	n/a	n/a	n/a	n/a	n/a	n/a	n/a	23	7	8	7	n/a	n/a	n/a	n/a	n/a
3026482	STOP	n/a	LTP123	ltpFR	9	n/a	n/a	n/a	n/a	n/a	n/a	n/a	n/a	n/a	n/a	n/a	n/a	n/a	n/a	n/a	n/a
3028551	WORD	wordpools/wasnorm_wordpool.txt	LTP123	ltpFR	9	11	1	BIRD	129	n/a	n/a	1	n/a	0	0	0	0.422607421875	0.5869140625	0	lower	amplitud.ttf
3031559	START	n/a	LTP123	ltpFR	9	n/a	n/a	n/a	n/a	n/a	n/a	n/a	n/a	n/a	n/a	n/a	n/a	n/a	n/a	n/a	n/a
3032458	PROB	n/a	LTP123	ltpFR	9	n/a	n/a	n/a	n/a	n/a	n/a	n/a	17	4	6	7	n/a	n/a	n/a	n/a	n/a
3033982	PROB	n/a	LTP123	ltpFR	9	n/a	n/a	n/a	n/a	n/a	n/a	n/a	8	3	4	1	n/a	n/a	n/a	n/a	n/a
3035806	PROB	n/a	LTP123	ltpFR	9	n/a	n/a	n/a	n/a	n/a	n/a	n/a	23	5	9	9	n/a	n/a	n/a	n/a	n/a
3039226	STOP	n/a	LTP123	ltpFR	9	n/a	n/a	n/a	n/a	n/a	n/a	n/a	n/a	n/a	n/a	n/a	n/a	n/a	n/a	n/a	n/a
3040614	WORD	wordpools/wasnorm_wordpool.txt	LTP123	ltpFR	9	11	1	SKIRT	1319	n/a	n/a	0	n/a	0	0	0	0.422607421875	0.5869140625	0	lower	amplitud.ttf
3043621	START	n/a	LTP123	ltpFR	9	n/a	n/a	n/a	n/a	n/a	n/a	n/a	n/a	n/a	n/a	n/a	n/a	n/a	n/a	n/a	n/a
3044753	PROB	n/a	LTP123	ltpFR	9	n/a	n/a	n/a	n/a	n/a	n/a	n/a	16	8	7	1	n/a	n/a	n/a	n/a	n/a
3046353	PROB	n/a	LTP123	ltpFR	9	n/a	n/a	n/a	n/a	n/a	n/a	n/a	20	9	6	5	n/a	n/a	n/a	n/a	n/a
3048511	PROB	n/a	LTP123	ltpFR	9	n/a	n/a	n/a	n/a	n/a	n/a	n/a	20	6	6	8	n/a	n/a	n/a	n/a	n/a
3051621	STOP	n/a	LTP123	ltpFR	9	n/a	n/a	n/a	n/a	n/a	n/a	n/a	n/a	n/a	n/a	n/a	n/a	n/a	n/a	n/a	n/a
3052501	WORD	wordpools/wasnorm_wordpool.txt	LTP123	ltpFR	9	11	1	JUPITER	765	n/a	n/a	0	n/a	0	0	0	0.422607421875	0.5869140625	0	lower	amplitud.ttf
3055509	START	n/a	LTP123	ltpFR	9	n/a	n/a	n/a	n/a	n/a	n/a	n/a	n/a	n/a	n/a	n/a	n/a	n/a	n/a	n/a	n/a
3056433	PROB	n/a	LTP123	ltpFR	9	n/a	n/a	n/a	n/a	n/a	n/a	n/a	15	3	8	4	n/a	n/a	n/a	n/a	n/a
3058591	PROB	n/a	LTP123	ltpFR	9	n/a	n/a	n/a	n/a	n/a	n/a	n/a	17	4	8	5	n/a	n/a	n/a	n/a	n/a
3060889	PROB	n/a	LTP123	ltpFR	9	n/a	n/a	n/a	n/a	n/a	n/a	n/a	13	2	8	3	n/a	n/a	n/a	n/a	n/a
3063025	STOP	n/a	LTP123	ltpFR	9	n/a	n/a	n/a	n/a	n/a	n/a	n/a	n/a	n/a	n/a	n/a	n/a	n/a	n/a	n/a	n/a
3064662	WORD	wordpools/wasnorm_wordpool.txt	LTP123	ltpFR	9	11	1	ROACH	1195	n/a	n/a	1	n/a	0	0	0	0.422607421875	0.5869140625	0	lower	amplitud.ttf
3067670	START	n/a	LTP123	ltpFR	9	n/a	n/a	n/a	n/a	n/a	n/a	n/a	n/a	n/a	n/a	n/a	n/a	n/a	n/a	n/a	n/a
3068479	PROB	n/a	LTP123	ltpFR	9	n/a	n/a	n/a	n/a	n/a	n/a	n/a	16	6	7	3	n/a	n/a	n/a	n/a	n/a
3070145	PROB	n/a	LTP123	ltpFR	9	n/a	n/a	n/a	n/a	n/a	n/a	n/a	14	3	6	5	n/a	n/a	n/a	n/a	n/a
3073219	PROB	n/a	LTP123	ltpFR	9	n/a	n/a	n/a	n/a	n/a	n/a	n/a	18	5	9	4	n/a	n/a	n/a	n/a	n/a
3075586	STOP	n/a	LTP123	ltpFR	9	n/a	n/a	n/a	n/a	n/a	n/a	n/a	n/a	n/a	n/a	n/a	n/a	n/a	n/a	n/a	n/a
3076700	WORD	wordpools/wasnorm_wordpool.txt	LTP123	ltpFR	9	11	1	GRASSHOPPER	656	n/a	n/a	1	n/a	0	0	0	0.422607421875	0.5869140625	0	lower	amplitud.ttf
3079708	START	n/a	LTP123	ltpFR	9	n/a	n/a	n/a	n/a	n/a	n/a	n/a	n/a	n/a	n/a	n/a	n/a	n/a	n/a	n/a	n/a
3080715	PROB	n/a	LTP123	ltpFR	9	n/a	n/a	n/a	n/a	n/a	n/a	n/a	12	3	8	1	n/a	n/a	n/a	n/a	n/a
3082499	PROB	n/a	LTP123	ltpFR	9	n/a	n/a	n/a	n/a	n/a	n/a	n/a	10	2	1	7	n/a	n/a	n/a	n/a	n/a
3084057	PROB	n/a	LTP123	ltpFR	9	n/a	n/a	n/a	n/a	n/a	n/a	n/a	13	3	6	4	n/a	n/a	n/a	n/a	n/a
3087170	STOP	n/a	LTP123	ltpFR	9	n/a	n/a	n/a	n/a	n/a	n/a	n/a	n/a	n/a	n/a	n/a	n/a	n/a	n/a	n/a	n/a
3088605	WORD	wordpools/wasnorm_wordpool.txt	LTP123	ltpFR	9	11	1	SILVERWARE	1308	n/a	n/a	0	n/a	0	0	0	0.422607421875	0.5869140625	0	lower	amplitud.ttf
3091613	START	n/a	LTP123	ltpFR	9	n/a	n/a	n/a	n/a	n/a	n/a	n/a	n/a	n/a	n/a	n/a	n/a	n/a	n/a	n/a	n/a
3092620	PROB	n/a	LTP123	ltpFR	9	n/a	n/a	n/a	n/a	n/a	n/a	n/a	11	4	1	6	n/a	n/a	n/a	n/a	n/a
3093952	PROB	n/a	LTP123	ltpFR	9	n/a	n/a	n/a	n/a	n/a	n/a	n/a	18	6	9	3	n/a	n/a	n/a	n/a	n/a
3096527	PROB	n/a	LTP123	ltpFR	9	n/a	n/a	n/a	n/a	n/a	n/a	n/a	19	8	3	8	n/a	n/a	n/a	n/a	n/a
3098258	STOP	n/a	LTP123	ltpFR	9	n/a	n/a	n/a	n/a	n/a	n/a	n/a	n/a	n/a	n/a	n/a	n/a	n/a	n/a	n/a	n/a
3100459	WORD	wordpools/wasnorm_wordpool.txt	LTP123	ltpFR	9	11	1	ROOT	1210	n/a	n/a	0	n/a	0	0	0	0.422607421875	0.5869140625	0	lower	amplitud.ttf
3103467	START	n/a	LTP123	ltpFR	9	n/a	n/a	n/a	n/a	n/a	n/a	n/a	n/a	n/a	n/a	n/a	n/a	n/a	n/a	n/a	n/a
3104558	PROB	n/a	LTP123	ltpFR	9	n/a	n/a	n/a	n/a	n/a	n/a	n/a	15	3	8	4	n/a	n/a	n/a	n/a	n/a
3106490	PROB	n/a	LTP123	ltpFR	9	n/a	n/a	n/a	n/a	n/a	n/a	n/a	17	9	7	1	n/a	n/a	n/a	n/a	n/a
3111466	STOP	n/a	LTP123	ltpFR	9	n/a	n/a	n/a	n/a	n/a	n/a	n/a	n/a	n/a	n/a	n/a	n/a	n/a	n/a	n/a	n/a
3112497	WORD	wordpools/wasnorm_wordpool.txt	LTP123	ltpFR	9	11	1	STUDENT	1395	n/a	n/a	1	n/a	0	0	0	0.422607421875	0.5869140625	0	lower	amplitud.ttf
3115504	START	n/a	LTP123	ltpFR	9	n/a	n/a	n/a	n/a	n/a	n/a	n/a	n/a	n/a	n/a	n/a	n/a	n/a	n/a	n/a	n/a
3116587	PROB	n/a	LTP123	ltpFR	9	n/a	n/a	n/a	n/a	n/a	n/a	n/a	8	6	1	1	n/a	n/a	n/a	n/a	n/a
3118043	PROB	n/a	LTP123	ltpFR	9	n/a	n/a	n/a	n/a	n/a	n/a	n/a	17	6	9	2	n/a	n/a	n/a	n/a	n/a
3123503	STOP	n/a	LTP123	ltpFR	9	n/a	n/a	n/a	n/a	n/a	n/a	n/a	n/a	n/a	n/a	n/a	n/a	n/a	n/a	n/a	n/a
3124534	WORD	wordpools/wasnorm_wordpool.txt	LTP123	ltpFR	9	11	1	PLAID	1080	n/a	n/a	0	n/a	0	0	0	0.422607421875	0.5869140625	0	lower	amplitud.ttf
3127542	START	n/a	LTP123	ltpFR	9	n/a	n/a	n/a	n/a	n/a	n/a	n/a	n/a	n/a	n/a	n/a	n/a	n/a	n/a	n/a	n/a
3128731	PROB	n/a	LTP123	ltpFR	9	n/a	n/a	n/a	n/a	n/a	n/a	n/a	20	7	8	5	n/a	n/a	n/a	n/a	n/a
3131989	PROB	n/a	LTP123	ltpFR	9	n/a	n/a	n/a	n/a	n/a	n/a	n/a	16	8	4	4	n/a	n/a	n/a	n/a	n/a
3135242	STOP	n/a	LTP123	ltpFR	9	n/a	n/a	n/a	n/a	n/a	n/a	n/a	n/a	n/a	n/a	n/a	n/a	n/a	n/a	n/a	n/a
3136687	WORD	wordpools/wasnorm_wordpool.txt	LTP123	ltpFR	9	11	1	FUR	615	n/a	n/a	0	n/a	0	0	0	0.422607421875	0.5869140625	0	lower	amplitud.ttf
3139695	START	n/a	LTP123	ltpFR	9	n/a	n/a	n/a	n/a	n/a	n/a	n/a	n/a	n/a	n/a	n/a	n/a	n/a	n/a	n/a	n/a
3140860	PROB	n/a	LTP123	ltpFR	9	n/a	n/a	n/a	n/a	n/a	n/a	n/a	18	6	6	6	n/a	n/a	n/a	n/a	n/a
3142236	PROB	n/a	LTP123	ltpFR	9	n/a	n/a	n/a	n/a	n/a	n/a	n/a	20	7	6	7	n/a	n/a	n/a	n/a	n/a
3144435	PROB	n/a	LTP123	ltpFR	9	n/a	n/a	n/a	n/a	n/a	n/a	n/a	22	8	6	8	n/a	n/a	n/a	n/a	n/a
3146610	STOP	n/a	LTP123	ltpFR	9	n/a	n/a	n/a	n/a	n/a	n/a	n/a	n/a	n/a	n/a	n/a	n/a	n/a	n/a	n/a	n/a
3148617	WORD	wordpools/wasnorm_wordpool.txt	LTP123	ltpFR	9	11	1	KING	777	n/a	n/a	1	n/a	0	0	0	0.422607421875	0.5869140625	0	lower	amplitud.ttf
3151625	START	n/a	LTP123	ltpFR	9	n/a	n/a	n/a	n/a	n/a	n/a	n/a	n/a	n/a	n/a	n/a	n/a	n/a	n/a	n/a	n/a
3152549	PROB	n/a	LTP123	ltpFR	9	n/a	n/a	n/a	n/a	n/a	n/a	n/a	20	6	5	9	n/a	n/a	n/a	n/a	n/a
3154290	PROB	n/a	LTP123	ltpFR	9	n/a	n/a	n/a	n/a	n/a	n/a	n/a	18	7	5	6	n/a	n/a	n/a	n/a	n/a
3156980	PROB	n/a	LTP123	ltpFR	9	n/a	n/a	n/a	n/a	n/a	n/a	n/a	16	1	7	8	n/a	n/a	n/a	n/a	n/a
3158881	STOP	n/a	LTP123	ltpFR	9	n/a	n/a	n/a	n/a	n/a	n/a	n/a	n/a	n/a	n/a	n/a	n/a	n/a	n/a	n/a	n/a
3160571	WORD	wordpools/wasnorm_wordpool.txt	LTP123	ltpFR	9	11	1	RULER	1216	n/a	n/a	0	n/a	0	0	0	0.422607421875	0.5869140625	0	lower	amplitud.ttf
3163579	START	n/a	LTP123	ltpFR	9	n/a	n/a	n/a	n/a	n/a	n/a	n/a	n/a	n/a	n/a	n/a	n/a	n/a	n/a	n/a	n/a
3164769	PROB	n/a	LTP123	ltpFR	9	n/a	n/a	n/a	n/a	n/a	n/a	n/a	11	2	6	3	n/a	n/a	n/a	n/a	n/a
3166735	PROB	n/a	LTP123	ltpFR	9	n/a	n/a	n/a	n/a	n/a	n/a	n/a	12	4	7	1	n/a	n/a	n/a	n/a	n/a
3168667	PROB	n/a	LTP123	ltpFR	9	n/a	n/a	n/a	n/a	n/a	n/a	n/a	20	7	5	8	n/a	n/a	n/a	n/a	n/a
3171554	STOP	n/a	LTP123	ltpFR	9	n/a	n/a	n/a	n/a	n/a	n/a	n/a	n/a	n/a	n/a	n/a	n/a	n/a	n/a	n/a	n/a
3172509	WORD	wordpools/wasnorm_wordpool.txt	LTP123	ltpFR	9	11	1	UTENSIL	1542	n/a	n/a	0	n/a	0	0	0	0.422607421875	0.5869140625	0	lower	amplitud.ttf
3175516	START	n/a	LTP123	ltpFR	9	n/a	n/a	n/a	n/a	n/a	n/a	n/a	n/a	n/a	n/a	n/a	n/a	n/a	n/a	n/a	n/a
3176607	PROB	n/a	LTP123	ltpFR	9	n/a	n/a	n/a	n/a	n/a	n/a	n/a	16	6	9	1	n/a	n/a	n/a	n/a	n/a
3178473	PROB	n/a	LTP123	ltpFR	9	n/a	n/a	n/a	n/a	n/a	n/a	n/a	26	9	9	8	n/a	n/a	n/a	n/a	n/a
3183516	STOP	n/a	LTP123	ltpFR	9	n/a	n/a	n/a	n/a	n/a	n/a	n/a	n/a	n/a	n/a	n/a	n/a	n/a	n/a	n/a	n/a
3184579	WORD	wordpools/wasnorm_wordpool.txt	LTP123	ltpFR	9	11	1	MOUNTAIN	924	n/a	n/a	0	n/a	0	0	0	0.422607421875	0.5869140625	0	lower	amplitud.ttf
3187587	START	n/a	LTP123	ltpFR	9	n/a	n/a	n/a	n/a	n/a	n/a	n/a	n/a	n/a	n/a	n/a	n/a	n/a	n/a	n/a	n/a
3188620	PROB	n/a	LTP123	ltpFR	9	n/a	n/a	n/a	n/a	n/a	n/a	n/a	9	3	1	5	n/a	n/a	n/a	n/a	n/a
3190502	PROB	n/a	LTP123	ltpFR	9	n/a	n/a	n/a	n/a	n/a	n/a	n/a	7	4	1	2	n/a	n/a	n/a	n/a	n/a
3192268	PROB	n/a	LTP123	ltpFR	9	n/a	n/a	n/a	n/a	n/a	n/a	n/a	16	5	7	4	n/a	n/a	n/a	n/a	n/a
3194745	STOP	n/a	LTP123	ltpFR	9	n/a	n/a	n/a	n/a	n/a	n/a	n/a	n/a	n/a	n/a	n/a	n/a	n/a	n/a	n/a	n/a
3197417	REC_START	n/a	LTP123	ltpFR	9	11	n/a	n/a	n/a	n/a	n/a	n/a	n/a	0	0	0	n/a	n/a	n/a	n/a	n/a
3198040	REC_WORD	wordpools/wasnorm_wordpool.txt	LTP123	ltpFR	9	11	1	MOUNTAIN	924	n/a	n/a	0	n/a	0	0	0	n/a	n/a	n/a	n/a	n/a
3198903	REC_WORD	wordpools/wasnorm_wordpool.txt	LTP123	ltpFR	9	11	1	RULER	1216	n/a	n/a	0	n/a	0	0	0	n/a	n/a	n/a	n/a	n/a
3199632	REC_WORD	wordpools/wasnorm_wordpool.txt	LTP123	ltpFR	9	11	1	KING	777	n/a	n/a	1	n/a	0	0	0	n/a	n/a	n/a	n/a	n/a
3200390	REC_WORD	wordpools/wasnorm_wordpool.txt	LTP123	ltpFR	9	11	1	PLAID	1080	n/a	n/a	0	n/a	0	0	0	n/a	n/a	n/a	n/a	n/a
3201133	REC_WORD	wordpools/wasnorm_wordpool.txt	LTP123	ltpFR	9	11	1	UTENSIL	1542	n/a	n/a	0	n/a	0	0	0	n/a	n/a	n/a	n/a	n/a
3202101	REC_WORD	wordpools/wasnorm_wordpool.txt	LTP123	ltpFR	9	11	1	SILVERWARE	1308	n/a	n/a	0	n/a	0	0	0	n/a	n/a	n/a	n/a	n/a
3203134	REC_WORD	wordpools/wasnorm_wordpool.txt	LTP123	ltpFR	9	11	1	GRASSHOPPER	656	n/a	n/a	1	n/a	0	0	0	n/a	n/a	n/a	n/a	n/a
3204120	REC_WORD	wordpools/wasnorm_wordpool.txt	LTP123	ltpFR	9	11	1	ROACH	1195	n/a	n/a	1	n/a	0	0	0	n/a	n/a	n/a	n/a	n/a
3206156	REC_WORD	wordpools/wasnorm_wordpool.txt	LTP123	ltpFR	9	11	1	STUDENT	1395	n/a	n/a	1	n/a	0	0	0	n/a	n/a	n/a	n/a	n/a
3217561	REC_WORD	wordpools/wasnorm_wordpool.txt	LTP123	ltpFR	9	11	1	JUPITER	765	n/a	n/a	0	n/a	0	0	0	n/a	n/a	n/a	n/a	n/a
3223283	REC_WORD	wordpools/wasnorm_wordpool.txt	LTP123	ltpFR	9	11	1	FUR	615	n/a	n/a	0	n/a	0	0	0	n/a	n/a	n/a	n/a	n/a
3322206	WORD	wordpools/wasnorm_wordpool.txt	LTP123	ltpFR	9	12	0	STAR	1373	n/a	n/a	1	n/a	0	0	0	0.57763671875	0.412841796875	1	upper	zerothre.ttf
3326287	WORD	wordpools/wasnorm_wordpool.txt	LTP123	ltpFR	9	12	0	PRESIDENT	1121	n/a	n/a	1	n/a	0	0	0	0.57763671875	0.412841796875	1	upper	zerothre.ttf
3330203	WORD	wordpools/wasnorm_wordpool.txt	LTP123	ltpFR	9	12	0	CONCRETE	361	n/a	n/a	1	n/a	0	0	0	0.57763671875	0.412841796875	1	upper	zerothre.ttf
3334210	WORD	wordpools/wasnorm_wordpool.txt	LTP123	ltpFR	9	12	0	SIDEWALK	1303	n/a	n/a	1	n/a	0	0	0	0.57763671875	0.412841796875	1	upper	zerothre.ttf
3338208	WORD	wordpools/wasnorm_wordpool.txt	LTP123	ltpFR	9	12	0	FAUCET	555	n/a	n/a	0	n/a	0	0	0	0.57763671875	0.412841796875	1	upper	zerothre.ttf
3342165	WORD	wordpools/wasnorm_wordpool.txt	LTP123	ltpFR	9	12	0	FIREMAN	569	n/a	n/a	1	n/a	0	0	0	0.57763671875	0.412841796875	1	upper	zerothre.ttf
3345988	WORD	wordpools/wasnorm_wordpool.txt	LTP123	ltpFR	9	12	0	TANGERINE	1431	n/a	n/a	0	n/a	0	0	0	0.57763671875	0.412841796875	1	upper	zerothre.ttf
3350112	WORD	wordpools/wasnorm_wordpool.txt	LTP123	ltpFR	9	12	0	BUSH	202	n/a	n/a	1	n/a	0	0	0	0.57763671875	0.412841796875	1	upper	zerothre.ttf
3354236	WORD	wordpools/wasnorm_wordpool.txt	LTP123	ltpFR	9	12	0	GARAGE	621	n/a	n/a	1	n/a	0	0	0	0.57763671875	0.412841796875	1	upper	zerothre.ttf
3358118	WORD	wordpools/wasnorm_wordpool.txt	LTP123	ltpFR	9	12	0	GRADUATE	653	n/a	n/a	1	n/a	0	0	0	0.57763671875	0.412841796875	1	upper	zerothre.ttf
3362308	WORD	wordpools/wasnorm_wordpool.txt	LTP123	ltpFR	9	12	0	COMET	353	n/a	n/a	1	n/a	0	0	0	0.57763671875	0.412841796875	1	upper	zerothre.ttf
3366456	WORD	wordpools/wasnorm_wordpool.txt	LTP123	ltpFR	9	12	0	LAPEL	800	n/a	n/a	0	n/a	0	0	0	0.57763671875	0.412841796875	1	upper	zerothre.ttf
3370522	WORD	wordpools/wasnorm_wordpool.txt	LTP123	ltpFR	9	12	0	SLEEVE	1324	n/a	n/a	0	n/a	0	0	0	0.57763671875	0.412841796875	1	upper	zerothre.ttf
3374495	WORD	wordpools/wasnorm_wordpool.txt	LTP123	ltpFR	9	12	0	DICTATOR	462	n/a	n/a	1	n/a	0	0	0	0.57763671875	0.412841796875	1	upper	zerothre.ttf
3378469	WORD	wordpools/wasnorm_wordpool.txt	LTP123	ltpFR	9	12	0	STONE	1385	n/a	n/a	0	n/a	0	0	0	0.57763671875	0.412841796875	1	upper	zerothre.ttf
3382551	WORD	wordpools/wasnorm_wordpool.txt	LTP123	ltpFR	9	12	0	KNAPSACK	783	n/a	n/a	1	n/a	0	0	0	0.57763671875	0.412841796875	1	upper	zerothre.ttf
3385558	START	n/a	LTP123	ltpFR	9	n/a	n/a	n/a	n/a	n/a	n/a	n/a	n/a	n/a	n/a	n/a	n/a	n/a	n/a	n/a	n/a
3386599	PROB	n/a	LTP123	ltpFR	9	n/a	n/a	n/a	n/a	n/a	n/a	n/a	20	6	6	8	n/a	n/a	n/a	n/a	n/a
3388839	PROB	n/a	LTP123	ltpFR	9	n/a	n/a	n/a	n/a	n/a	n/a	n/a	20	7	4	9	n/a	n/a	n/a	n/a	n/a
3390581	PROB	n/a	LTP123	ltpFR	9	n/a	n/a	n/a	n/a	n/a	n/a	n/a	17	7	5	5	n/a	n/a	n/a	n/a	n/a
3394155	PROB	n/a	LTP123	ltpFR	9	n/a	n/a	n/a	n/a	n/a	n/a	n/a	11	2	2	7	n/a	n/a	n/a	n/a	n/a
3395645	PROB	n/a	LTP123	ltpFR	9	n/a	n/a	n/a	n/a	n/a	n/a	n/a	23	7	7	9	n/a	n/a	n/a	n/a	n/a
3399153	PROB	n/a	LTP123	ltpFR	9	n/a	n/a	n/a	n/a	n/a	n/a	n/a	11	2	3	6	n/a	n/a	n/a	n/a	n/a
3400897	STOP	n/a	LTP123	ltpFR	9	n/a	n/a	n/a	n/a	n/a	n/a	n/a	n/a	n/a	n/a	n/a	n/a	n/a	n/a	n/a	n/a
3403394	REC_START	n/a	LTP123	ltpFR	9	12	n/a	n/a	n/a	n/a	n/a	n/a	n/a	0	0	0	n/a	n/a	n/a	n/a	n/a
3404057	REC_WORD	wordpools/wasnorm_wordpool.txt	LTP123	ltpFR	9	12	0	KNAPSACK	783	n/a	n/a	1	n/a	0	0	0	n/a	n/a	n/a	n/a	n/a
3405893	REC_WORD	wordpools/wasnorm_wordpool.txt	LTP123	ltpFR	9	12	0	COMET	353	n/a	n/a	1	n/a	0	0	0	n/a	n/a	n/a	n/a	n/a
3409594	REC_WORD	wordpools/wasnorm_wordpool.txt	LTP123	ltpFR	9	12	0	LAPEL	800	n/a	n/a	0	n/a	0	0	0	n/a	n/a	n/a	n/a	n/a
3410347	REC_WORD	wordpools/wasnorm_wordpool.txt	LTP123	ltpFR	9	12	0	SLEEVE	1324	n/a	n/a	0	n/a	0	0	0	n/a	n/a	n/a	n/a	n/a
3412897	REC_WORD	wordpools/wasnorm_wordpool.txt	LTP123	ltpFR	9	12	0	GRADUATE	653	n/a	n/a	1	n/a	0	0	0	n/a	n/a	n/a	n/a	n/a
3416933	REC_WORD	wordpools/wasnorm_wordpool.txt	LTP123	ltpFR	9	12	0	PRESIDENT	1121	n/a	n/a	1	n/a	0	0	0	n/a	n/a	n/a	n/a	n/a
3419627	REC_WORD	wordpools/wasnorm_wordpool.txt	LTP123	ltpFR	9	12	0	STAR	1373	n/a	n/a	1	n/a	0	0	0	n/a	n/a	n/a	n/a	n/a
3421049	REC_WORD	wordpools/wasnorm_wordpool.txt	LTP123	ltpFR	9	12	0	BUSH	202	n/a	n/a	1	n/a	0	0	0	n/a	n/a	n/a	n/a	n/a
3423587	REC_WORD	wordpools/wasnorm_wordpool.txt	LTP123	ltpFR	9	12	0	DICTATOR	462	n/a	n/a	1	n/a	0	0	0	n/a	n/a	n/a	n/a	n/a
3439462	REC_WORD	wordpools/wasnorm_wordpool.txt	LTP123	ltpFR	9	12	0	GARAGE	621	n/a	n/a	1	n/a	0	0	0	n/a	n/a	n/a	n/a	n/a
3440923	REC_WORD	wordpools/wasnorm_wordpool.txt	LTP123	ltpFR	9	12	0	SIDEWALK	1303	n/a	n/a	1	n/a	0	0	0	n/a	n/a	n/a	n/a	n/a
3441812	REC_WORD	wordpools/wasnorm_wordpool.txt	LTP123	ltpFR	9	12	0	CONCRETE	361	n/a	n/a	1	n/a	0	0	0	n/a	n/a	n/a	n/a	n/a
3460125	REC_WORD	wordpools/wasnorm_wordpool.txt	LTP123	ltpFR	9	12	0	FAUCET	555	n/a	n/a	0	n/a	0	0	0	n/a	n/a	n/a	n/a	n/a
3492271	REC_START	n/a	LTP123	ltpFR	9	n/a	n/a	n/a	n/a	n/a	n/a	n/a	n/a	0	0	0	n/a	n/a	n/a	n/a	n/a
3493363	FFR_REC_WORD	wordpools/wasnorm_wordpool.txt	LTP123	ltpFR	9	n/a	0	DICTATOR	462	n/a	n/a	1	n/a	0	0	0	n/a	n/a	n/a	n/a	n/a
3494305	FFR_REC_WORD	wordpools/wasnorm_wordpool.txt	LTP123	ltpFR	9	n/a	1	RULER	1216	n/a	n/a	0	n/a	0	0	0	n/a	n/a	n/a	n/a	n/a
3495199	FFR_REC_WORD	wordpools/wasnorm_wordpool.txt	LTP123	ltpFR	9	n/a	0	PRESIDENT	1121	n/a	n/a	1	n/a	0	0	0	n/a	n/a	n/a	n/a	n/a
3497135	FFR_REC_WORD	wordpools/wasnorm_wordpool.txt	LTP123	ltpFR	9	n/a	0	BUSH	202	n/a	n/a	1	n/a	0	0	0	n/a	n/a	n/a	n/a	n/a
3498347	FFR_REC_WORD	wordpools/wasnorm_wordpool.txt	LTP123	ltpFR	9	n/a	1	KING	777	n/a	n/a	1	n/a	0	0	0	n/a	n/a	n/a	n/a	n/a
3500472	FFR_REC_WORD	wordpools/wasnorm_wordpool.txt	LTP123	ltpFR	9	n/a	0	COMET	353	n/a	n/a	1	n/a	0	0	0	n/a	n/a	n/a	n/a	n/a
3502019	FFR_REC_WORD	wordpools/wasnorm_wordpool.txt	LTP123	ltpFR	9	n/a	1	JUPITER	765	n/a	n/a	0	n/a	0	0	0	n/a	n/a	n/a	n/a	n/a
3502741	FFR_REC_WORD	wordpools/wasnorm_wordpool.txt	LTP123	ltpFR	9	n/a	0	STAR	1373	n/a	n/a	1	n/a	0	0	0	n/a	n/a	n/a	n/a	n/a
3506114	FFR_REC_WORD	wordpools/wasnorm_wordpool.txt	LTP123	ltpFR	9	n/a	1	TOE	1473	n/a	n/a	0	n/a	0	0	0	n/a	n/a	n/a	n/a	n/a
3507067	FFR_REC_WORD	wordpools/wasnorm_wordpool.txt	LTP123	ltpFR	9	n/a	1	FOOT	590	n/a	n/a	0	n/a	0	0	0	n/a	n/a	n/a	n/a	n/a
3507900	FFR_REC_WORD	wordpools/wasnorm_wordpool.txt	LTP123	ltpFR	9	n/a	0	KNEE	784	n/a	n/a	0	n/a	0	0	0	n/a	n/a	n/a	n/a	n/a
3509277	FFR_REC_WORD	wordpools/wasnorm_wordpool.txt	LTP123	ltpFR	9	n/a	0	HIP	710	n/a	n/a	1	n/a	0	0	0	n/a	n/a	n/a	n/a	n/a
3511472	FFR_REC_WORD	wordpools/wasnorm_wordpool.txt	LTP123	ltpFR	9	n/a	0	SLEEVE	1324	n/a	n/a	0	n/a	0	0	0	n/a	n/a	n/a	n/a	n/a
3512545	FFR_REC_WORD	wordpools/wasnorm_wordpool.txt	LTP123	ltpFR	9	n/a	0	LAPEL	800	n/a	n/a	0	n/a	0	0	0	n/a	n/a	n/a	n/a	n/a
3515762	FFR_REC_WORD	wordpools/wasnorm_wordpool.txt	LTP123	ltpFR	9	n/a	n/a	GRANITE	-1	n/a	n/a	n/a	n/a	0	0	0	n/a	n/a	n/a	n/a	n/a
3516730	FFR_REC_WORD	wordpools/wasnorm_wordpool.txt	LTP123	ltpFR	9	n/a	0	CONCRETE	361	n/a	n/a	1	n/a	0	0	0	n/a	n/a	n/a	n/a	n/a
3517683	FFR_REC_WORD	wordpools/wasnorm_wordpool.txt	LTP123	ltpFR	9	n/a	0	SIDEWALK	1303	n/a	n/a	1	n/a	0	0	0	n/a	n/a	n/a	n/a	n/a
3520876	FFR_REC_WORD	wordpools/wasnorm_wordpool.txt	LTP123	ltpFR	9	n/a	0	MARBLE	867	n/a	n/a	1	n/a	0	0	0	n/a	n/a	n/a	n/a	n/a
3521653	FFR_REC_WORD	wordpools/wasnorm_wordpool.txt	LTP123	ltpFR	9	n/a	0	STONE	1385	n/a	n/a	0	n/a	0	0	0	n/a	n/a	n/a	n/a	n/a
3528404	FFR_REC_WORD	wordpools/wasnorm_wordpool.txt	LTP123	ltpFR	9	n/a	0	GRADUATE	653	n/a	n/a	1	n/a	0	0	0	n/a	n/a	n/a	n/a	n/a
3529540	FFR_REC_WORD	wordpools/wasnorm_wordpool.txt	LTP123	ltpFR	9	n/a	1	STUDENT	1395	n/a	n/a	1	n/a	0	0	0	n/a	n/a	n/a	n/a	n/a
3531042	FFR_REC_WORD	wordpools/wasnorm_wordpool.txt	LTP123	ltpFR	9	n/a	0	SCHOOL	1248	n/a	n/a	1	n/a	0	0	0	n/a	n/a	n/a	n/a	n/a
3538112	FFR_REC_WORD	wordpools/wasnorm_wordpool.txt	LTP123	ltpFR	9	n/a	0	WORKER	1621	n/a	n/a	1	n/a	0	0	0	n/a	n/a	n/a	n/a	n/a
3539059	FFR_REC_WORD	wordpools/wasnorm_wordpool.txt	LTP123	ltpFR	9	n/a	1	BOSS	152	n/a	n/a	0	n/a	0	0	0	n/a	n/a	n/a	n/a	n/a
