mstime	trial_type	stim_file	subject	experiment	session	trial	task	item_name	item_num	recog_resp	recog_conf	resp	answer	test_x	test_y	test_z	color_r	color_g	color_b	case	font
0	SESS_START	n/a	LTP095	ltpFR	7	n/a	n/a	n/a	n/a	1	3	n/a	n/a	0	0	0	n/a	n/a	n/a	n/a	n/a
60327	START	n/a	LTP095	ltpFR	7	n/a	n/a	n/a	n/a	n/a	n/a	n/a	n/a	n/a	n/a	n/a	n/a	n/a	n/a	n/a	n/a
60351	PROB	n/a	LTP095	ltpFR	7	n/a	n/a	n/a	n/a	n/a	n/a	n/a	18	4	8	6	n/a	n/a	n/a	n/a	n/a
63807	PROB	n/a	LTP095	ltpFR	7	n/a	n/a	n/a	n/a	n/a	n/a	n/a	14	5	3	6	n/a	n/a	n/a	n/a	n/a
68259	PROB	n/a	LTP095	ltpFR	7	n/a	n/a	n/a	n/a	n/a	n/a	n/a	6	1	1	4	n/a	n/a	n/a	n/a	n/a
70033	PROB	n/a	LTP095	ltpFR	7	n/a	n/a	n/a	n/a	n/a	n/a	n/a	19	9	7	3	n/a	n/a	n/a	n/a	n/a
72437	PROB	n/a	LTP095	ltpFR	7	n/a	n/a	n/a	n/a	n/a	n/a	n/a	16	5	5	6	n/a	n/a	n/a	n/a	n/a
74153	PROB	n/a	LTP095	ltpFR	7	n/a	n/a	n/a	n/a	n/a	n/a	n/a	22	6	7	9	n/a	n/a	n/a	n/a	n/a
80327	STOP	n/a	LTP095	ltpFR	7	n/a	n/a	n/a	n/a	n/a	n/a	n/a	n/a	n/a	n/a	n/a	n/a	n/a	n/a	n/a	n/a
164372	WORD	wordpools/wasnorm_wordpool.txt	LTP095	ltpFR	7	1	1	COMMANDER	354	0	n/a	1	n/a	0	0	0	0.57763671875	0.412841796875	1	upper	zerothre.ttf
168342	WORD	wordpools/wasnorm_wordpool.txt	LTP095	ltpFR	7	1	1	TRICYCLE	1506	n/a	n/a	0	n/a	0	0	0	0.57763671875	0.412841796875	1	upper	zerothre.ttf
172479	WORD	wordpools/wasnorm_wordpool.txt	LTP095	ltpFR	7	1	1	CHILD	299	n/a	n/a	1	n/a	0	0	0	0.57763671875	0.412841796875	1	upper	zerothre.ttf
176641	WORD	wordpools/wasnorm_wordpool.txt	LTP095	ltpFR	7	1	1	VETERAN	1561	n/a	n/a	1	n/a	0	0	0	0.57763671875	0.412841796875	1	upper	zerothre.ttf
180804	WORD	wordpools/wasnorm_wordpool.txt	LTP095	ltpFR	7	1	1	JEWEL	757	n/a	n/a	0	n/a	0	0	0	0.57763671875	0.412841796875	1	upper	zerothre.ttf
184698	WORD	wordpools/wasnorm_wordpool.txt	LTP095	ltpFR	7	1	1	CABIN	211	n/a	n/a	0	n/a	0	0	0	0.57763671875	0.412841796875	1	upper	zerothre.ttf
188785	WORD	wordpools/wasnorm_wordpool.txt	LTP095	ltpFR	7	1	1	BALCONY	72	n/a	n/a	0	n/a	0	0	0	0.57763671875	0.412841796875	1	upper	zerothre.ttf
192681	WORD	wordpools/wasnorm_wordpool.txt	LTP095	ltpFR	7	1	1	GENERAL	630	n/a	n/a	1	n/a	0	0	0	0.57763671875	0.412841796875	1	upper	zerothre.ttf
196634	WORD	wordpools/wasnorm_wordpool.txt	LTP095	ltpFR	7	1	1	PROTRACTOR	1133	n/a	n/a	0	n/a	0	0	0	0.57763671875	0.412841796875	1	upper	zerothre.ttf
200447	WORD	wordpools/wasnorm_wordpool.txt	LTP095	ltpFR	7	1	1	SERGEANT	1269	n/a	n/a	1	n/a	0	0	0	0.57763671875	0.412841796875	1	upper	zerothre.ttf
204359	WORD	wordpools/wasnorm_wordpool.txt	LTP095	ltpFR	7	1	1	VAN	1548	n/a	n/a	0	n/a	0	0	0	0.57763671875	0.412841796875	1	upper	zerothre.ttf
208421	WORD	wordpools/wasnorm_wordpool.txt	LTP095	ltpFR	7	1	1	PATRIOT	1026	n/a	n/a	1	n/a	0	0	0	0.57763671875	0.412841796875	1	upper	zerothre.ttf
212491	WORD	wordpools/wasnorm_wordpool.txt	LTP095	ltpFR	7	1	1	LIEUTENANT	818	n/a	n/a	1	n/a	0	0	0	0.57763671875	0.412841796875	1	upper	zerothre.ttf
216528	WORD	wordpools/wasnorm_wordpool.txt	LTP095	ltpFR	7	1	1	BRIDGE	174	n/a	n/a	0	n/a	0	0	0	0.57763671875	0.412841796875	1	upper	zerothre.ttf
220340	WORD	wordpools/wasnorm_wordpool.txt	LTP095	ltpFR	7	1	1	SWIMMER	1420	n/a	n/a	1	n/a	0	0	0	0.57763671875	0.412841796875	1	upper	zerothre.ttf
224361	WORD	wordpools/wasnorm_wordpool.txt	LTP095	ltpFR	7	1	1	CARAVAN	242	n/a	n/a	0	n/a	0	0	0	0.57763671875	0.412841796875	1	upper	zerothre.ttf
227366	START	n/a	LTP095	ltpFR	7	n/a	n/a	n/a	n/a	n/a	n/a	n/a	n/a	n/a	n/a	n/a	n/a	n/a	n/a	n/a	n/a
228439	PROB	n/a	LTP095	ltpFR	7	n/a	n/a	n/a	n/a	n/a	n/a	n/a	10	7	1	2	n/a	n/a	n/a	n/a	n/a
231071	PROB	n/a	LTP095	ltpFR	7	n/a	n/a	n/a	n/a	n/a	n/a	n/a	14	1	8	5	n/a	n/a	n/a	n/a	n/a
233862	STOP	n/a	LTP095	ltpFR	7	n/a	n/a	n/a	n/a	n/a	n/a	n/a	n/a	n/a	n/a	n/a	n/a	n/a	n/a	n/a	n/a
237097	REC_START	n/a	LTP095	ltpFR	7	1	n/a	n/a	n/a	n/a	n/a	n/a	n/a	0	0	0	n/a	n/a	n/a	n/a	n/a
242176	REC_WORD	wordpools/wasnorm_wordpool.txt	LTP095	ltpFR	7	1	1	LIEUTENANT	818	n/a	n/a	1	n/a	0	0	0	n/a	n/a	n/a	n/a	n/a
243941	REC_WORD	wordpools/wasnorm_wordpool.txt	LTP095	ltpFR	7	1	1	COMMANDER	354	n/a	n/a	1	n/a	0	0	0	n/a	n/a	n/a	n/a	n/a
245568	REC_WORD	wordpools/wasnorm_wordpool.txt	LTP095	ltpFR	7	1	1	PATRIOT	1026	n/a	n/a	1	n/a	0	0	0	n/a	n/a	n/a	n/a	n/a
247822	REC_WORD	wordpools/wasnorm_wordpool.txt	LTP095	ltpFR	7	1	1	VETERAN	1561	n/a	n/a	1	n/a	0	0	0	n/a	n/a	n/a	n/a	n/a
249813	REC_WORD	wordpools/wasnorm_wordpool.txt	LTP095	ltpFR	7	1	1	VAN	1548	n/a	n/a	0	n/a	0	0	0	n/a	n/a	n/a	n/a	n/a
251783	REC_WORD	wordpools/wasnorm_wordpool.txt	LTP095	ltpFR	7	1	1	CARAVAN	242	n/a	n/a	0	n/a	0	0	0	n/a	n/a	n/a	n/a	n/a
255874	REC_WORD	wordpools/wasnorm_wordpool.txt	LTP095	ltpFR	7	1	1	TRICYCLE	1506	n/a	n/a	0	n/a	0	0	0	n/a	n/a	n/a	n/a	n/a
259970	REC_WORD	wordpools/wasnorm_wordpool.txt	LTP095	ltpFR	7	1	1	BRIDGE	174	n/a	n/a	0	n/a	0	0	0	n/a	n/a	n/a	n/a	n/a
263063	REC_WORD	wordpools/wasnorm_wordpool.txt	LTP095	ltpFR	7	1	n/a	TODDLER	-1	n/a	n/a	n/a	n/a	0	0	0	n/a	n/a	n/a	n/a	n/a
265672	REC_WORD	wordpools/wasnorm_wordpool.txt	LTP095	ltpFR	7	1	1	PROTRACTOR	1133	n/a	n/a	0	n/a	0	0	0	n/a	n/a	n/a	n/a	n/a
266672	REC_WORD_VV	wordpools/wasnorm_wordpool.txt	LTP095	ltpFR	7	1	n/a	<>	-1	n/a	n/a	n/a	n/a	0	0	0	n/a	n/a	n/a	n/a	n/a
274801	REC_WORD	wordpools/wasnorm_wordpool.txt	LTP095	ltpFR	7	1	1	SWIMMER	1420	n/a	n/a	1	n/a	0	0	0	n/a	n/a	n/a	n/a	n/a
294387	REC_WORD	wordpools/wasnorm_wordpool.txt	LTP095	ltpFR	7	1	1	GENERAL	630	n/a	n/a	1	n/a	0	0	0	n/a	n/a	n/a	n/a	n/a
296602	REC_WORD_VV	wordpools/wasnorm_wordpool.txt	LTP095	ltpFR	7	1	n/a	<>	-1	n/a	n/a	n/a	n/a	0	0	0	n/a	n/a	n/a	n/a	n/a
316954	START	n/a	LTP095	ltpFR	7	n/a	n/a	n/a	n/a	n/a	n/a	n/a	n/a	n/a	n/a	n/a	n/a	n/a	n/a	n/a	n/a
318460	PROB	n/a	LTP095	ltpFR	7	n/a	n/a	n/a	n/a	n/a	n/a	n/a	11	5	1	5	n/a	n/a	n/a	n/a	n/a
320000	PROB	n/a	LTP095	ltpFR	7	n/a	n/a	n/a	n/a	n/a	n/a	n/a	15	9	2	4	n/a	n/a	n/a	n/a	n/a
322447	PROB	n/a	LTP095	ltpFR	7	n/a	n/a	n/a	n/a	n/a	n/a	n/a	11	2	2	7	n/a	n/a	n/a	n/a	n/a
324269	STOP	n/a	LTP095	ltpFR	7	n/a	n/a	n/a	n/a	n/a	n/a	n/a	n/a	n/a	n/a	n/a	n/a	n/a	n/a	n/a	n/a
325969	WORD	wordpools/wasnorm_wordpool.txt	LTP095	ltpFR	7	2	0	CROOK	412	n/a	n/a	0	n/a	0	0	0	0.422607421875	0.5869140625	0	lower	amplitud.ttf
328974	START	n/a	LTP095	ltpFR	7	n/a	n/a	n/a	n/a	n/a	n/a	n/a	n/a	n/a	n/a	n/a	n/a	n/a	n/a	n/a	n/a
330072	PROB	n/a	LTP095	ltpFR	7	n/a	n/a	n/a	n/a	n/a	n/a	n/a	9	1	6	2	n/a	n/a	n/a	n/a	n/a
331887	PROB	n/a	LTP095	ltpFR	7	n/a	n/a	n/a	n/a	n/a	n/a	n/a	9	1	6	2	n/a	n/a	n/a	n/a	n/a
333459	PROB	n/a	LTP095	ltpFR	7	n/a	n/a	n/a	n/a	n/a	n/a	n/a	11	1	2	9	n/a	n/a	n/a	n/a	n/a
335041	PROB	n/a	LTP095	ltpFR	7	n/a	n/a	n/a	n/a	n/a	n/a	n/a	17	7	7	3	n/a	n/a	n/a	n/a	n/a
336870	STOP	n/a	LTP095	ltpFR	7	n/a	n/a	n/a	n/a	n/a	n/a	n/a	n/a	n/a	n/a	n/a	n/a	n/a	n/a	n/a	n/a
337880	WORD	wordpools/wasnorm_wordpool.txt	LTP095	ltpFR	7	2	0	HEAD	695	n/a	n/a	1	n/a	0	0	0	0.422607421875	0.5869140625	0	lower	amplitud.ttf
340885	START	n/a	LTP095	ltpFR	7	n/a	n/a	n/a	n/a	n/a	n/a	n/a	n/a	n/a	n/a	n/a	n/a	n/a	n/a	n/a	n/a
341708	PROB	n/a	LTP095	ltpFR	7	n/a	n/a	n/a	n/a	n/a	n/a	n/a	23	9	9	5	n/a	n/a	n/a	n/a	n/a
345670	PROB	n/a	LTP095	ltpFR	7	n/a	n/a	n/a	n/a	n/a	n/a	n/a	14	1	4	9	n/a	n/a	n/a	n/a	n/a
347429	STOP	n/a	LTP095	ltpFR	7	n/a	n/a	n/a	n/a	n/a	n/a	n/a	n/a	n/a	n/a	n/a	n/a	n/a	n/a	n/a	n/a
349748	WORD	wordpools/wasnorm_wordpool.txt	LTP095	ltpFR	7	2	0	MOAT	903	n/a	n/a	1	n/a	0	0	0	0.422607421875	0.5869140625	0	lower	amplitud.ttf
352754	START	n/a	LTP095	ltpFR	7	n/a	n/a	n/a	n/a	n/a	n/a	n/a	n/a	n/a	n/a	n/a	n/a	n/a	n/a	n/a	n/a
353794	PROB	n/a	LTP095	ltpFR	7	n/a	n/a	n/a	n/a	n/a	n/a	n/a	13	7	3	3	n/a	n/a	n/a	n/a	n/a
355442	PROB	n/a	LTP095	ltpFR	7	n/a	n/a	n/a	n/a	n/a	n/a	n/a	17	4	5	8	n/a	n/a	n/a	n/a	n/a
358605	PROB	n/a	LTP095	ltpFR	7	n/a	n/a	n/a	n/a	n/a	n/a	n/a	11	1	1	9	n/a	n/a	n/a	n/a	n/a
359894	STOP	n/a	LTP095	ltpFR	7	n/a	n/a	n/a	n/a	n/a	n/a	n/a	n/a	n/a	n/a	n/a	n/a	n/a	n/a	n/a	n/a
361860	WORD	wordpools/wasnorm_wordpool.txt	LTP095	ltpFR	7	2	0	PALACE	1006	n/a	n/a	1	n/a	0	0	0	0.422607421875	0.5869140625	0	lower	amplitud.ttf
364865	START	n/a	LTP095	ltpFR	7	n/a	n/a	n/a	n/a	n/a	n/a	n/a	n/a	n/a	n/a	n/a	n/a	n/a	n/a	n/a	n/a
365980	PROB	n/a	LTP095	ltpFR	7	n/a	n/a	n/a	n/a	n/a	n/a	n/a	11	1	9	1	n/a	n/a	n/a	n/a	n/a
367319	PROB	n/a	LTP095	ltpFR	7	n/a	n/a	n/a	n/a	n/a	n/a	n/a	16	8	2	6	n/a	n/a	n/a	n/a	n/a
368810	PROB	n/a	LTP095	ltpFR	7	n/a	n/a	n/a	n/a	n/a	n/a	n/a	11	7	2	2	n/a	n/a	n/a	n/a	n/a
372865	STOP	n/a	LTP095	ltpFR	7	n/a	n/a	n/a	n/a	n/a	n/a	n/a	n/a	n/a	n/a	n/a	n/a	n/a	n/a	n/a	n/a
373695	WORD	wordpools/wasnorm_wordpool.txt	LTP095	ltpFR	7	2	0	LAUNDRY	803	n/a	n/a	1	n/a	0	0	0	0.422607421875	0.5869140625	0	lower	amplitud.ttf
376701	START	n/a	LTP095	ltpFR	7	n/a	n/a	n/a	n/a	n/a	n/a	n/a	n/a	n/a	n/a	n/a	n/a	n/a	n/a	n/a	n/a
377817	PROB	n/a	LTP095	ltpFR	7	n/a	n/a	n/a	n/a	n/a	n/a	n/a	13	3	4	6	n/a	n/a	n/a	n/a	n/a
379472	PROB	n/a	LTP095	ltpFR	7	n/a	n/a	n/a	n/a	n/a	n/a	n/a	22	7	9	6	n/a	n/a	n/a	n/a	n/a
381820	PROB	n/a	LTP095	ltpFR	7	n/a	n/a	n/a	n/a	n/a	n/a	n/a	14	4	9	1	n/a	n/a	n/a	n/a	n/a
383127	PROB	n/a	LTP095	ltpFR	7	n/a	n/a	n/a	n/a	n/a	n/a	n/a	8	6	1	1	n/a	n/a	n/a	n/a	n/a
384381	STOP	n/a	LTP095	ltpFR	7	n/a	n/a	n/a	n/a	n/a	n/a	n/a	n/a	n/a	n/a	n/a	n/a	n/a	n/a	n/a	n/a
385731	WORD	wordpools/wasnorm_wordpool.txt	LTP095	ltpFR	7	2	0	BURGLAR	200	n/a	n/a	1	n/a	0	0	0	0.422607421875	0.5869140625	0	lower	amplitud.ttf
388737	START	n/a	LTP095	ltpFR	7	n/a	n/a	n/a	n/a	n/a	n/a	n/a	n/a	n/a	n/a	n/a	n/a	n/a	n/a	n/a	n/a
389861	PROB	n/a	LTP095	ltpFR	7	n/a	n/a	n/a	n/a	n/a	n/a	n/a	21	9	5	7	n/a	n/a	n/a	n/a	n/a
392866	PROB	n/a	LTP095	ltpFR	7	n/a	n/a	n/a	n/a	n/a	n/a	n/a	9	1	3	5	n/a	n/a	n/a	n/a	n/a
394156	PROB	n/a	LTP095	ltpFR	7	n/a	n/a	n/a	n/a	n/a	n/a	n/a	7	1	3	3	n/a	n/a	n/a	n/a	n/a
395493	STOP	n/a	LTP095	ltpFR	7	n/a	n/a	n/a	n/a	n/a	n/a	n/a	n/a	n/a	n/a	n/a	n/a	n/a	n/a	n/a	n/a
397584	WORD	wordpools/wasnorm_wordpool.txt	LTP095	ltpFR	7	2	0	ROBOT	1200	n/a	n/a	1	n/a	0	0	0	0.422607421875	0.5869140625	0	lower	amplitud.ttf
400590	START	n/a	LTP095	ltpFR	7	n/a	n/a	n/a	n/a	n/a	n/a	n/a	n/a	n/a	n/a	n/a	n/a	n/a	n/a	n/a	n/a
401413	PROB	n/a	LTP095	ltpFR	7	n/a	n/a	n/a	n/a	n/a	n/a	n/a	8	5	1	2	n/a	n/a	n/a	n/a	n/a
403561	PROB	n/a	LTP095	ltpFR	7	n/a	n/a	n/a	n/a	n/a	n/a	n/a	13	1	7	4	n/a	n/a	n/a	n/a	n/a
406616	PROB	n/a	LTP095	ltpFR	7	n/a	n/a	n/a	n/a	n/a	n/a	n/a	14	2	8	4	n/a	n/a	n/a	n/a	n/a
408501	STOP	n/a	LTP095	ltpFR	7	n/a	n/a	n/a	n/a	n/a	n/a	n/a	n/a	n/a	n/a	n/a	n/a	n/a	n/a	n/a	n/a
409795	WORD	wordpools/wasnorm_wordpool.txt	LTP095	ltpFR	7	2	0	PAD	998	n/a	n/a	0	n/a	0	0	0	0.422607421875	0.5869140625	0	lower	amplitud.ttf
412801	START	n/a	LTP095	ltpFR	7	n/a	n/a	n/a	n/a	n/a	n/a	n/a	n/a	n/a	n/a	n/a	n/a	n/a	n/a	n/a	n/a
413983	PROB	n/a	LTP095	ltpFR	7	n/a	n/a	n/a	n/a	n/a	n/a	n/a	10	4	3	3	n/a	n/a	n/a	n/a	n/a
415906	PROB	n/a	LTP095	ltpFR	7	n/a	n/a	n/a	n/a	n/a	n/a	n/a	13	8	2	3	n/a	n/a	n/a	n/a	n/a
417336	PROB	n/a	LTP095	ltpFR	7	n/a	n/a	n/a	n/a	n/a	n/a	n/a	13	3	3	7	n/a	n/a	n/a	n/a	n/a
418660	PROB	n/a	LTP095	ltpFR	7	n/a	n/a	n/a	n/a	n/a	n/a	n/a	19	7	5	7	n/a	n/a	n/a	n/a	n/a
420565	STOP	n/a	LTP095	ltpFR	7	n/a	n/a	n/a	n/a	n/a	n/a	n/a	n/a	n/a	n/a	n/a	n/a	n/a	n/a	n/a	n/a
421781	WORD	wordpools/wasnorm_wordpool.txt	LTP095	ltpFR	7	2	0	UNDERWEAR	1537	n/a	n/a	0	n/a	0	0	0	0.422607421875	0.5869140625	0	lower	amplitud.ttf
424786	START	n/a	LTP095	ltpFR	7	n/a	n/a	n/a	n/a	n/a	n/a	n/a	n/a	n/a	n/a	n/a	n/a	n/a	n/a	n/a	n/a
425961	PROB	n/a	LTP095	ltpFR	7	n/a	n/a	n/a	n/a	n/a	n/a	n/a	21	8	3	9	n/a	n/a	n/a	n/a	n/a
428000	PROB	n/a	LTP095	ltpFR	7	n/a	n/a	n/a	n/a	n/a	n/a	n/a	17	6	5	5	n/a	n/a	n/a	n/a	n/a
429989	PROB	n/a	LTP095	ltpFR	7	n/a	n/a	n/a	n/a	n/a	n/a	n/a	11	1	3	7	n/a	n/a	n/a	n/a	n/a
432461	STOP	n/a	LTP095	ltpFR	7	n/a	n/a	n/a	n/a	n/a	n/a	n/a	n/a	n/a	n/a	n/a	n/a	n/a	n/a	n/a	n/a
433910	WORD	wordpools/wasnorm_wordpool.txt	LTP095	ltpFR	7	2	0	EAR	513	n/a	n/a	0	n/a	0	0	0	0.422607421875	0.5869140625	0	lower	amplitud.ttf
436915	START	n/a	LTP095	ltpFR	7	n/a	n/a	n/a	n/a	n/a	n/a	n/a	n/a	n/a	n/a	n/a	n/a	n/a	n/a	n/a	n/a
437746	PROB	n/a	LTP095	ltpFR	7	n/a	n/a	n/a	n/a	n/a	n/a	n/a	15	1	8	6	n/a	n/a	n/a	n/a	n/a
440268	PROB	n/a	LTP095	ltpFR	7	n/a	n/a	n/a	n/a	n/a	n/a	n/a	10	2	2	6	n/a	n/a	n/a	n/a	n/a
444914	STOP	n/a	LTP095	ltpFR	7	n/a	n/a	n/a	n/a	n/a	n/a	n/a	n/a	n/a	n/a	n/a	n/a	n/a	n/a	n/a	n/a
446062	WORD	wordpools/wasnorm_wordpool.txt	LTP095	ltpFR	7	2	0	BEET	115	n/a	n/a	0	n/a	0	0	0	0.422607421875	0.5869140625	0	lower	amplitud.ttf
449068	START	n/a	LTP095	ltpFR	7	n/a	n/a	n/a	n/a	n/a	n/a	n/a	n/a	n/a	n/a	n/a	n/a	n/a	n/a	n/a	n/a
449883	PROB	n/a	LTP095	ltpFR	7	n/a	n/a	n/a	n/a	n/a	n/a	n/a	15	8	5	2	n/a	n/a	n/a	n/a	n/a
452039	PROB	n/a	LTP095	ltpFR	7	n/a	n/a	n/a	n/a	n/a	n/a	n/a	8	4	1	3	n/a	n/a	n/a	n/a	n/a
457068	STOP	n/a	LTP095	ltpFR	7	n/a	n/a	n/a	n/a	n/a	n/a	n/a	n/a	n/a	n/a	n/a	n/a	n/a	n/a	n/a	n/a
458198	WORD	wordpools/wasnorm_wordpool.txt	LTP095	ltpFR	7	2	0	CANOE	233	n/a	n/a	1	n/a	0	0	0	0.422607421875	0.5869140625	0	lower	amplitud.ttf
461204	START	n/a	LTP095	ltpFR	7	n/a	n/a	n/a	n/a	n/a	n/a	n/a	n/a	n/a	n/a	n/a	n/a	n/a	n/a	n/a	n/a
462276	PROB	n/a	LTP095	ltpFR	7	n/a	n/a	n/a	n/a	n/a	n/a	n/a	19	8	7	4	n/a	n/a	n/a	n/a	n/a
464556	PROB	n/a	LTP095	ltpFR	7	n/a	n/a	n/a	n/a	n/a	n/a	n/a	19	8	8	3	n/a	n/a	n/a	n/a	n/a
467846	STOP	n/a	LTP095	ltpFR	7	n/a	n/a	n/a	n/a	n/a	n/a	n/a	n/a	n/a	n/a	n/a	n/a	n/a	n/a	n/a	n/a
470250	WORD	wordpools/wasnorm_wordpool.txt	LTP095	ltpFR	7	2	0	SHELTER	1282	n/a	n/a	1	n/a	0	0	0	0.422607421875	0.5869140625	0	lower	amplitud.ttf
473255	START	n/a	LTP095	ltpFR	7	n/a	n/a	n/a	n/a	n/a	n/a	n/a	n/a	n/a	n/a	n/a	n/a	n/a	n/a	n/a	n/a
474453	PROB	n/a	LTP095	ltpFR	7	n/a	n/a	n/a	n/a	n/a	n/a	n/a	21	9	8	3	n/a	n/a	n/a	n/a	n/a
476534	PROB	n/a	LTP095	ltpFR	7	n/a	n/a	n/a	n/a	n/a	n/a	n/a	15	7	3	5	n/a	n/a	n/a	n/a	n/a
478599	PROB	n/a	LTP095	ltpFR	7	n/a	n/a	n/a	n/a	n/a	n/a	n/a	15	9	1	5	n/a	n/a	n/a	n/a	n/a
479910	STOP	n/a	LTP095	ltpFR	7	n/a	n/a	n/a	n/a	n/a	n/a	n/a	n/a	n/a	n/a	n/a	n/a	n/a	n/a	n/a	n/a
482461	WORD	wordpools/wasnorm_wordpool.txt	LTP095	ltpFR	7	2	0	BRICK	172	n/a	n/a	0	n/a	0	0	0	0.422607421875	0.5869140625	0	lower	amplitud.ttf
485466	START	n/a	LTP095	ltpFR	7	n/a	n/a	n/a	n/a	n/a	n/a	n/a	n/a	n/a	n/a	n/a	n/a	n/a	n/a	n/a	n/a
486356	PROB	n/a	LTP095	ltpFR	7	n/a	n/a	n/a	n/a	n/a	n/a	n/a	13	5	7	4	n/a	n/a	n/a	n/a	n/a
490352	PROB	n/a	LTP095	ltpFR	7	n/a	n/a	n/a	n/a	n/a	n/a	n/a	11	4	1	6	n/a	n/a	n/a	n/a	n/a
493466	STOP	n/a	LTP095	ltpFR	7	n/a	n/a	n/a	n/a	n/a	n/a	n/a	n/a	n/a	n/a	n/a	n/a	n/a	n/a	n/a	n/a
494314	WORD	wordpools/wasnorm_wordpool.txt	LTP095	ltpFR	7	2	0	POND	1101	n/a	n/a	1	n/a	0	0	0	0.422607421875	0.5869140625	0	lower	amplitud.ttf
497319	START	n/a	LTP095	ltpFR	7	n/a	n/a	n/a	n/a	n/a	n/a	n/a	n/a	n/a	n/a	n/a	n/a	n/a	n/a	n/a	n/a
498342	PROB	n/a	LTP095	ltpFR	7	n/a	n/a	n/a	n/a	n/a	n/a	n/a	19	8	5	6	n/a	n/a	n/a	n/a	n/a
500723	PROB	n/a	LTP095	ltpFR	7	n/a	n/a	n/a	n/a	n/a	n/a	n/a	14	4	2	8	n/a	n/a	n/a	n/a	n/a
503171	PROB	n/a	LTP095	ltpFR	7	n/a	n/a	n/a	n/a	n/a	n/a	n/a	16	5	8	3	n/a	n/a	n/a	n/a	n/a
505078	STOP	n/a	LTP095	ltpFR	7	n/a	n/a	n/a	n/a	n/a	n/a	n/a	n/a	n/a	n/a	n/a	n/a	n/a	n/a	n/a	n/a
506408	WORD	wordpools/wasnorm_wordpool.txt	LTP095	ltpFR	7	2	0	RADISH	1158	n/a	n/a	0	n/a	0	0	0	0.422607421875	0.5869140625	0	lower	amplitud.ttf
509413	START	n/a	LTP095	ltpFR	7	n/a	n/a	n/a	n/a	n/a	n/a	n/a	n/a	n/a	n/a	n/a	n/a	n/a	n/a	n/a	n/a
510287	PROB	n/a	LTP095	ltpFR	7	n/a	n/a	n/a	n/a	n/a	n/a	n/a	9	6	1	2	n/a	n/a	n/a	n/a	n/a
511819	PROB	n/a	LTP095	ltpFR	7	n/a	n/a	n/a	n/a	n/a	n/a	n/a	21	6	6	9	n/a	n/a	n/a	n/a	n/a
514191	PROB	n/a	LTP095	ltpFR	7	n/a	n/a	n/a	n/a	n/a	n/a	n/a	18	7	4	7	n/a	n/a	n/a	n/a	n/a
517365	STOP	n/a	LTP095	ltpFR	7	n/a	n/a	n/a	n/a	n/a	n/a	n/a	n/a	n/a	n/a	n/a	n/a	n/a	n/a	n/a	n/a
519178	REC_START	n/a	LTP095	ltpFR	7	2	n/a	n/a	n/a	n/a	n/a	n/a	n/a	0	0	0	n/a	n/a	n/a	n/a	n/a
523062	REC_WORD_VV	wordpools/wasnorm_wordpool.txt	LTP095	ltpFR	7	2	n/a	<>	-1	n/a	n/a	n/a	n/a	0	0	0	n/a	n/a	n/a	n/a	n/a
523266	REC_WORD	wordpools/wasnorm_wordpool.txt	LTP095	ltpFR	7	2	0	RADISH	1158	n/a	n/a	0	n/a	0	0	0	n/a	n/a	n/a	n/a	n/a
525758	REC_WORD	wordpools/wasnorm_wordpool.txt	LTP095	ltpFR	7	2	0	SHELTER	1282	n/a	n/a	1	n/a	0	0	0	n/a	n/a	n/a	n/a	n/a
528626	REC_WORD	wordpools/wasnorm_wordpool.txt	LTP095	ltpFR	7	2	0	PAD	998	n/a	n/a	0	n/a	0	0	0	n/a	n/a	n/a	n/a	n/a
551489	REC_WORD	wordpools/wasnorm_wordpool.txt	LTP095	ltpFR	7	2	0	MOAT	903	n/a	n/a	1	n/a	0	0	0	n/a	n/a	n/a	n/a	n/a
556034	REC_WORD	wordpools/wasnorm_wordpool.txt	LTP095	ltpFR	7	2	0	HEAD	695	n/a	n/a	1	n/a	0	0	0	n/a	n/a	n/a	n/a	n/a
624904	WORD	wordpools/wasnorm_wordpool.txt	LTP095	ltpFR	7	3	0	PIER	1063	n/a	n/a	1	n/a	0	0	0	0.422607421875	0.5869140625	0	lower	amplitud.ttf
628766	WORD	wordpools/wasnorm_wordpool.txt	LTP095	ltpFR	7	3	0	SOCIETY	1338	n/a	n/a	1	n/a	0	0	0	0.422607421875	0.5869140625	0	lower	amplitud.ttf
632862	WORD	wordpools/wasnorm_wordpool.txt	LTP095	ltpFR	7	3	0	SCROLL	1257	n/a	n/a	0	n/a	0	0	0	0.422607421875	0.5869140625	0	lower	amplitud.ttf
636924	WORD	wordpools/wasnorm_wordpool.txt	LTP095	ltpFR	7	3	0	ORNAMENT	985	n/a	n/a	0	n/a	0	0	0	0.422607421875	0.5869140625	0	lower	amplitud.ttf
640861	WORD	wordpools/wasnorm_wordpool.txt	LTP095	ltpFR	7	3	0	ELM	527	n/a	n/a	1	n/a	0	0	0	0.422607421875	0.5869140625	0	lower	amplitud.ttf
644848	WORD	wordpools/wasnorm_wordpool.txt	LTP095	ltpFR	7	3	0	STOOL	1386	n/a	n/a	1	n/a	0	0	0	0.422607421875	0.5869140625	0	lower	amplitud.ttf
648968	WORD	wordpools/wasnorm_wordpool.txt	LTP095	ltpFR	7	3	0	SURGEON	1413	n/a	n/a	1	n/a	0	0	0	0.422607421875	0.5869140625	0	lower	amplitud.ttf
653138	WORD	wordpools/wasnorm_wordpool.txt	LTP095	ltpFR	7	3	0	SHORTS	1293	n/a	n/a	0	n/a	0	0	0	0.422607421875	0.5869140625	0	lower	amplitud.ttf
657249	WORD	wordpools/wasnorm_wordpool.txt	LTP095	ltpFR	7	3	0	CHAIR	274	n/a	n/a	1	n/a	0	0	0	0.422607421875	0.5869140625	0	lower	amplitud.ttf
661319	WORD	wordpools/wasnorm_wordpool.txt	LTP095	ltpFR	7	3	0	YACHT	1629	n/a	n/a	1	n/a	0	0	0	0.422607421875	0.5869140625	0	lower	amplitud.ttf
665166	WORD	wordpools/wasnorm_wordpool.txt	LTP095	ltpFR	7	3	0	HOME	712	n/a	n/a	1	n/a	0	0	0	0.422607421875	0.5869140625	0	lower	amplitud.ttf
669327	WORD	wordpools/wasnorm_wordpool.txt	LTP095	ltpFR	7	3	0	COTTAGE	384	n/a	n/a	1	n/a	0	0	0	0.422607421875	0.5869140625	0	lower	amplitud.ttf
673397	WORD	wordpools/wasnorm_wordpool.txt	LTP095	ltpFR	7	3	0	LETTER	813	n/a	n/a	0	n/a	0	0	0	0.422607421875	0.5869140625	0	lower	amplitud.ttf
677559	WORD	wordpools/wasnorm_wordpool.txt	LTP095	ltpFR	7	3	0	PUZZLE	1146	n/a	n/a	0	n/a	0	0	0	0.422607421875	0.5869140625	0	lower	amplitud.ttf
681446	WORD	wordpools/wasnorm_wordpool.txt	LTP095	ltpFR	7	3	0	SUPERMARKET	1409	n/a	n/a	1	n/a	0	0	0	0.422607421875	0.5869140625	0	lower	amplitud.ttf
685616	WORD	wordpools/wasnorm_wordpool.txt	LTP095	ltpFR	7	3	0	STAKE	1368	n/a	n/a	0	n/a	0	0	0	0.422607421875	0.5869140625	0	lower	amplitud.ttf
688621	START	n/a	LTP095	ltpFR	7	n/a	n/a	n/a	n/a	n/a	n/a	n/a	n/a	n/a	n/a	n/a	n/a	n/a	n/a	n/a	n/a
689737	PROB	n/a	LTP095	ltpFR	7	n/a	n/a	n/a	n/a	n/a	n/a	n/a	19	5	6	8	n/a	n/a	n/a	n/a	n/a
696245	STOP	n/a	LTP095	ltpFR	7	n/a	n/a	n/a	n/a	n/a	n/a	n/a	n/a	n/a	n/a	n/a	n/a	n/a	n/a	n/a	n/a
698419	REC_START	n/a	LTP095	ltpFR	7	3	n/a	n/a	n/a	n/a	n/a	n/a	n/a	0	0	0	n/a	n/a	n/a	n/a	n/a
705702	REC_WORD	wordpools/wasnorm_wordpool.txt	LTP095	ltpFR	7	3	0	LETTER	813	n/a	n/a	0	n/a	0	0	0	n/a	n/a	n/a	n/a	n/a
707179	REC_WORD	wordpools/wasnorm_wordpool.txt	LTP095	ltpFR	7	3	0	HOME	712	n/a	n/a	1	n/a	0	0	0	n/a	n/a	n/a	n/a	n/a
711679	REC_WORD	wordpools/wasnorm_wordpool.txt	LTP095	ltpFR	7	3	0	YACHT	1629	n/a	n/a	1	n/a	0	0	0	n/a	n/a	n/a	n/a	n/a
721681	REC_WORD	wordpools/wasnorm_wordpool.txt	LTP095	ltpFR	7	3	0	CHAIR	274	n/a	n/a	1	n/a	0	0	0	n/a	n/a	n/a	n/a	n/a
724469	REC_WORD	wordpools/wasnorm_wordpool.txt	LTP095	ltpFR	7	3	0	STOOL	1386	n/a	n/a	1	n/a	0	0	0	n/a	n/a	n/a	n/a	n/a
727173	REC_WORD	wordpools/wasnorm_wordpool.txt	LTP095	ltpFR	7	3	0	STAKE	1368	n/a	n/a	0	n/a	0	0	0	n/a	n/a	n/a	n/a	n/a
743801	REC_WORD	wordpools/wasnorm_wordpool.txt	LTP095	ltpFR	7	3	0	SURGEON	1413	n/a	n/a	1	n/a	0	0	0	n/a	n/a	n/a	n/a	n/a
779209	START	n/a	LTP095	ltpFR	7	n/a	n/a	n/a	n/a	n/a	n/a	n/a	n/a	n/a	n/a	n/a	n/a	n/a	n/a	n/a	n/a
780714	PROB	n/a	LTP095	ltpFR	7	n/a	n/a	n/a	n/a	n/a	n/a	n/a	12	1	3	8	n/a	n/a	n/a	n/a	n/a
782662	PROB	n/a	LTP095	ltpFR	7	n/a	n/a	n/a	n/a	n/a	n/a	n/a	18	8	7	3	n/a	n/a	n/a	n/a	n/a
784268	PROB	n/a	LTP095	ltpFR	7	n/a	n/a	n/a	n/a	n/a	n/a	n/a	21	9	3	9	n/a	n/a	n/a	n/a	n/a
785982	STOP	n/a	LTP095	ltpFR	7	n/a	n/a	n/a	n/a	n/a	n/a	n/a	n/a	n/a	n/a	n/a	n/a	n/a	n/a	n/a	n/a
788305	WORD	wordpools/wasnorm_wordpool.txt	LTP095	ltpFR	7	4	1	HIP	710	n/a	n/a	0	n/a	0	0	0	0.57763671875	0.412841796875	1	upper	zerothre.ttf
791311	START	n/a	LTP095	ltpFR	7	n/a	n/a	n/a	n/a	n/a	n/a	n/a	n/a	n/a	n/a	n/a	n/a	n/a	n/a	n/a	n/a
792342	PROB	n/a	LTP095	ltpFR	7	n/a	n/a	n/a	n/a	n/a	n/a	n/a	165	5	7	4	n/a	n/a	n/a	n/a	n/a
794373	PROB	n/a	LTP095	ltpFR	7	n/a	n/a	n/a	n/a	n/a	n/a	n/a	11	1	2	8	n/a	n/a	n/a	n/a	n/a
796363	PROB	n/a	LTP095	ltpFR	7	n/a	n/a	n/a	n/a	n/a	n/a	n/a	10	2	1	7	n/a	n/a	n/a	n/a	n/a
798062	STOP	n/a	LTP095	ltpFR	7	n/a	n/a	n/a	n/a	n/a	n/a	n/a	n/a	n/a	n/a	n/a	n/a	n/a	n/a	n/a	n/a
800258	WORD	wordpools/wasnorm_wordpool.txt	LTP095	ltpFR	7	4	1	GROCERIES	663	n/a	n/a	0	n/a	0	0	0	0.57763671875	0.412841796875	1	upper	zerothre.ttf
803263	START	n/a	LTP095	ltpFR	7	n/a	n/a	n/a	n/a	n/a	n/a	n/a	n/a	n/a	n/a	n/a	n/a	n/a	n/a	n/a	n/a
804138	PROB	n/a	LTP095	ltpFR	7	n/a	n/a	n/a	n/a	n/a	n/a	n/a	20	9	7	4	n/a	n/a	n/a	n/a	n/a
807475	PROB	n/a	LTP095	ltpFR	7	n/a	n/a	n/a	n/a	n/a	n/a	n/a	12	1	3	8	n/a	n/a	n/a	n/a	n/a
808765	PROB	n/a	LTP095	ltpFR	7	n/a	n/a	n/a	n/a	n/a	n/a	n/a	11	2	4	5	n/a	n/a	n/a	n/a	n/a
810509	STOP	n/a	LTP095	ltpFR	7	n/a	n/a	n/a	n/a	n/a	n/a	n/a	n/a	n/a	n/a	n/a	n/a	n/a	n/a	n/a	n/a
812311	WORD	wordpools/wasnorm_wordpool.txt	LTP095	ltpFR	7	4	1	TOOL	1480	n/a	n/a	0	n/a	0	0	0	0.57763671875	0.412841796875	1	upper	zerothre.ttf
815316	START	n/a	LTP095	ltpFR	7	n/a	n/a	n/a	n/a	n/a	n/a	n/a	n/a	n/a	n/a	n/a	n/a	n/a	n/a	n/a	n/a
816248	PROB	n/a	LTP095	ltpFR	7	n/a	n/a	n/a	n/a	n/a	n/a	n/a	23	7	8	8	n/a	n/a	n/a	n/a	n/a
819777	PROB	n/a	LTP095	ltpFR	7	n/a	n/a	n/a	n/a	n/a	n/a	n/a	14	2	4	8	n/a	n/a	n/a	n/a	n/a
823316	STOP	n/a	LTP095	ltpFR	7	n/a	n/a	n/a	n/a	n/a	n/a	n/a	n/a	n/a	n/a	n/a	n/a	n/a	n/a	n/a	n/a
824447	WORD	wordpools/wasnorm_wordpool.txt	LTP095	ltpFR	7	4	1	SEED	1266	n/a	n/a	0	n/a	0	0	0	0.57763671875	0.412841796875	1	upper	zerothre.ttf
827452	START	n/a	LTP095	ltpFR	7	n/a	n/a	n/a	n/a	n/a	n/a	n/a	n/a	n/a	n/a	n/a	n/a	n/a	n/a	n/a	n/a
828534	PROB	n/a	LTP095	ltpFR	7	n/a	n/a	n/a	n/a	n/a	n/a	n/a	13	7	1	5	n/a	n/a	n/a	n/a	n/a
831040	PROB	n/a	LTP095	ltpFR	7	n/a	n/a	n/a	n/a	n/a	n/a	n/a	11	4	4	3	n/a	n/a	n/a	n/a	n/a
832429	PROB	n/a	LTP095	ltpFR	7	n/a	n/a	n/a	n/a	n/a	n/a	n/a	9	3	4	2	n/a	n/a	n/a	n/a	n/a
834190	STOP	n/a	LTP095	ltpFR	7	n/a	n/a	n/a	n/a	n/a	n/a	n/a	n/a	n/a	n/a	n/a	n/a	n/a	n/a	n/a	n/a
836308	WORD	wordpools/wasnorm_wordpool.txt	LTP095	ltpFR	7	4	1	BUCKLE	185	n/a	n/a	0	n/a	0	0	0	0.57763671875	0.412841796875	1	upper	zerothre.ttf
839313	START	n/a	LTP095	ltpFR	7	n/a	n/a	n/a	n/a	n/a	n/a	n/a	n/a	n/a	n/a	n/a	n/a	n/a	n/a	n/a	n/a
840328	PROB	n/a	LTP095	ltpFR	7	n/a	n/a	n/a	n/a	n/a	n/a	n/a	18	7	9	2	n/a	n/a	n/a	n/a	n/a
842626	PROB	n/a	LTP095	ltpFR	7	n/a	n/a	n/a	n/a	n/a	n/a	n/a	19	4	8	7	n/a	n/a	n/a	n/a	n/a
844965	PROB	n/a	LTP095	ltpFR	7	n/a	n/a	n/a	n/a	n/a	n/a	n/a	11	2	7	7	n/a	n/a	n/a	n/a	n/a
846365	STOP	n/a	LTP095	ltpFR	7	n/a	n/a	n/a	n/a	n/a	n/a	n/a	n/a	n/a	n/a	n/a	n/a	n/a	n/a	n/a	n/a
848302	WORD	wordpools/wasnorm_wordpool.txt	LTP095	ltpFR	7	4	1	HERD	705	n/a	n/a	0	n/a	0	0	0	0.57763671875	0.412841796875	1	upper	zerothre.ttf
851307	START	n/a	LTP095	ltpFR	7	n/a	n/a	n/a	n/a	n/a	n/a	n/a	n/a	n/a	n/a	n/a	n/a	n/a	n/a	n/a	n/a
852439	PROB	n/a	LTP095	ltpFR	7	n/a	n/a	n/a	n/a	n/a	n/a	n/a	16	5	8	3	n/a	n/a	n/a	n/a	n/a
854254	PROB	n/a	LTP095	ltpFR	7	n/a	n/a	n/a	n/a	n/a	n/a	n/a	13	1	8	4	n/a	n/a	n/a	n/a	n/a
855978	PROB	n/a	LTP095	ltpFR	7	n/a	n/a	n/a	n/a	n/a	n/a	n/a	9	1	5	3	n/a	n/a	n/a	n/a	n/a
857333	PROB	n/a	LTP095	ltpFR	7	n/a	n/a	n/a	n/a	n/a	n/a	n/a	9	1	5	2	n/a	n/a	n/a	n/a	n/a
858541	STOP	n/a	LTP095	ltpFR	7	n/a	n/a	n/a	n/a	n/a	n/a	n/a	n/a	n/a	n/a	n/a	n/a	n/a	n/a	n/a	n/a
860405	WORD	wordpools/wasnorm_wordpool.txt	LTP095	ltpFR	7	4	1	BEEF	113	n/a	n/a	0	n/a	0	0	0	0.57763671875	0.412841796875	1	upper	zerothre.ttf
863410	START	n/a	LTP095	ltpFR	7	n/a	n/a	n/a	n/a	n/a	n/a	n/a	n/a	n/a	n/a	n/a	n/a	n/a	n/a	n/a	n/a
864242	PROB	n/a	LTP095	ltpFR	7	n/a	n/a	n/a	n/a	n/a	n/a	n/a	17	7	8	2	n/a	n/a	n/a	n/a	n/a
866149	PROB	n/a	LTP095	ltpFR	7	n/a	n/a	n/a	n/a	n/a	n/a	n/a	19	9	7	3	n/a	n/a	n/a	n/a	n/a
867538	PROB	n/a	LTP095	ltpFR	7	n/a	n/a	n/a	n/a	n/a	n/a	n/a	4	2	2	1	n/a	n/a	n/a	n/a	n/a
871410	STOP	n/a	LTP095	ltpFR	7	n/a	n/a	n/a	n/a	n/a	n/a	n/a	n/a	n/a	n/a	n/a	n/a	n/a	n/a	n/a	n/a
872566	WORD	wordpools/wasnorm_wordpool.txt	LTP095	ltpFR	7	4	1	THRONE	1461	n/a	n/a	0	n/a	0	0	0	0.57763671875	0.412841796875	1	upper	zerothre.ttf
875571	START	n/a	LTP095	ltpFR	7	n/a	n/a	n/a	n/a	n/a	n/a	n/a	n/a	n/a	n/a	n/a	n/a	n/a	n/a	n/a	n/a
876503	PROB	n/a	LTP095	ltpFR	7	n/a	n/a	n/a	n/a	n/a	n/a	n/a	11	2	7	2	n/a	n/a	n/a	n/a	n/a
878251	PROB	n/a	LTP095	ltpFR	7	n/a	n/a	n/a	n/a	n/a	n/a	n/a	18	8	3	7	n/a	n/a	n/a	n/a	n/a
880615	PROB	n/a	LTP095	ltpFR	7	n/a	n/a	n/a	n/a	n/a	n/a	n/a	21	8	4	9	n/a	n/a	n/a	n/a	n/a
882445	STOP	n/a	LTP095	ltpFR	7	n/a	n/a	n/a	n/a	n/a	n/a	n/a	n/a	n/a	n/a	n/a	n/a	n/a	n/a	n/a	n/a
884560	WORD	wordpools/wasnorm_wordpool.txt	LTP095	ltpFR	7	4	1	PLUMBER	1091	n/a	n/a	1	n/a	0	0	0	0.57763671875	0.412841796875	1	upper	zerothre.ttf
887565	START	n/a	LTP095	ltpFR	7	n/a	n/a	n/a	n/a	n/a	n/a	n/a	n/a	n/a	n/a	n/a	n/a	n/a	n/a	n/a	n/a
888580	PROB	n/a	LTP095	ltpFR	7	n/a	n/a	n/a	n/a	n/a	n/a	n/a	22	6	7	9	n/a	n/a	n/a	n/a	n/a
891811	PROB	n/a	LTP095	ltpFR	7	n/a	n/a	n/a	n/a	n/a	n/a	n/a	12	1	7	4	n/a	n/a	n/a	n/a	n/a
895565	STOP	n/a	LTP095	ltpFR	7	n/a	n/a	n/a	n/a	n/a	n/a	n/a	n/a	n/a	n/a	n/a	n/a	n/a	n/a	n/a	n/a
896588	WORD	wordpools/wasnorm_wordpool.txt	LTP095	ltpFR	7	4	1	SPONGE	1355	n/a	n/a	0	n/a	0	0	0	0.57763671875	0.412841796875	1	upper	zerothre.ttf
899593	START	n/a	LTP095	ltpFR	7	n/a	n/a	n/a	n/a	n/a	n/a	n/a	n/a	n/a	n/a	n/a	n/a	n/a	n/a	n/a	n/a
900467	PROB	n/a	LTP095	ltpFR	7	n/a	n/a	n/a	n/a	n/a	n/a	n/a	12	4	5	3	n/a	n/a	n/a	n/a	n/a
902107	PROB	n/a	LTP095	ltpFR	7	n/a	n/a	n/a	n/a	n/a	n/a	n/a	9	2	4	3	n/a	n/a	n/a	n/a	n/a
904295	PROB	n/a	LTP095	ltpFR	7	n/a	n/a	n/a	n/a	n/a	n/a	n/a	17	8	4	5	n/a	n/a	n/a	n/a	n/a
906213	STOP	n/a	LTP095	ltpFR	7	n/a	n/a	n/a	n/a	n/a	n/a	n/a	n/a	n/a	n/a	n/a	n/a	n/a	n/a	n/a	n/a
908757	WORD	wordpools/wasnorm_wordpool.txt	LTP095	ltpFR	7	4	1	TOAD	1470	n/a	n/a	1	n/a	0	0	0	0.57763671875	0.412841796875	1	upper	zerothre.ttf
911762	START	n/a	LTP095	ltpFR	7	n/a	n/a	n/a	n/a	n/a	n/a	n/a	n/a	n/a	n/a	n/a	n/a	n/a	n/a	n/a	n/a
912945	PROB	n/a	LTP095	ltpFR	7	n/a	n/a	n/a	n/a	n/a	n/a	n/a	19	6	6	7	n/a	n/a	n/a	n/a	n/a
915491	PROB	n/a	LTP095	ltpFR	7	n/a	n/a	n/a	n/a	n/a	n/a	n/a	6	4	1	1	n/a	n/a	n/a	n/a	n/a
919762	STOP	n/a	LTP095	ltpFR	7	n/a	n/a	n/a	n/a	n/a	n/a	n/a	n/a	n/a	n/a	n/a	n/a	n/a	n/a	n/a	n/a
920643	WORD	wordpools/wasnorm_wordpool.txt	LTP095	ltpFR	7	4	1	PARSLEY	1016	n/a	n/a	1	n/a	0	0	0	0.57763671875	0.412841796875	1	upper	zerothre.ttf
923648	START	n/a	LTP095	ltpFR	7	n/a	n/a	n/a	n/a	n/a	n/a	n/a	n/a	n/a	n/a	n/a	n/a	n/a	n/a	n/a	n/a
924547	PROB	n/a	LTP095	ltpFR	7	n/a	n/a	n/a	n/a	n/a	n/a	n/a	13	1	7	5	n/a	n/a	n/a	n/a	n/a
926228	PROB	n/a	LTP095	ltpFR	7	n/a	n/a	n/a	n/a	n/a	n/a	n/a	6	1	1	4	n/a	n/a	n/a	n/a	n/a
928734	PROB	n/a	LTP095	ltpFR	7	n/a	n/a	n/a	n/a	n/a	n/a	n/a	10	3	4	3	n/a	n/a	n/a	n/a	n/a
930910	STOP	n/a	LTP095	ltpFR	7	n/a	n/a	n/a	n/a	n/a	n/a	n/a	n/a	n/a	n/a	n/a	n/a	n/a	n/a	n/a	n/a
932513	WORD	wordpools/wasnorm_wordpool.txt	LTP095	ltpFR	7	4	1	SPICE	1350	n/a	n/a	0	n/a	0	0	0	0.57763671875	0.412841796875	1	upper	zerothre.ttf
935518	START	n/a	LTP095	ltpFR	7	n/a	n/a	n/a	n/a	n/a	n/a	n/a	n/a	n/a	n/a	n/a	n/a	n/a	n/a	n/a	n/a
936550	PROB	n/a	LTP095	ltpFR	7	n/a	n/a	n/a	n/a	n/a	n/a	n/a	10	2	6	2	n/a	n/a	n/a	n/a	n/a
938007	PROB	n/a	LTP095	ltpFR	7	n/a	n/a	n/a	n/a	n/a	n/a	n/a	13	8	1	4	n/a	n/a	n/a	n/a	n/a
943518	STOP	n/a	LTP095	ltpFR	7	n/a	n/a	n/a	n/a	n/a	n/a	n/a	n/a	n/a	n/a	n/a	n/a	n/a	n/a	n/a	n/a
944649	WORD	wordpools/wasnorm_wordpool.txt	LTP095	ltpFR	7	4	1	RING	1193	n/a	n/a	0	n/a	0	0	0	0.57763671875	0.412841796875	1	upper	zerothre.ttf
947654	START	n/a	LTP095	ltpFR	7	n/a	n/a	n/a	n/a	n/a	n/a	n/a	n/a	n/a	n/a	n/a	n/a	n/a	n/a	n/a	n/a
948736	PROB	n/a	LTP095	ltpFR	7	n/a	n/a	n/a	n/a	n/a	n/a	n/a	12	6	5	1	n/a	n/a	n/a	n/a	n/a
951167	PROB	n/a	LTP095	ltpFR	7	n/a	n/a	n/a	n/a	n/a	n/a	n/a	5	1	3	1	n/a	n/a	n/a	n/a	n/a
955653	STOP	n/a	LTP095	ltpFR	7	n/a	n/a	n/a	n/a	n/a	n/a	n/a	n/a	n/a	n/a	n/a	n/a	n/a	n/a	n/a	n/a
956810	WORD	wordpools/wasnorm_wordpool.txt	LTP095	ltpFR	7	4	1	GRILL	661	n/a	n/a	n/a	n/a	0	0	0	0.57763671875	0.412841796875	1	upper	zerothre.ttf
959832	SLOW_MSG	n/a	LTP095	ltpFR	7	4	n/a	n/a	n/a	n/a	n/a	n/a	n/a	0	0	0	n/a	n/a	n/a	n/a	n/a
961346	START	n/a	LTP095	ltpFR	7	n/a	n/a	n/a	n/a	n/a	n/a	n/a	n/a	n/a	n/a	n/a	n/a	n/a	n/a	n/a	n/a
962486	PROB	n/a	LTP095	ltpFR	7	n/a	n/a	n/a	n/a	n/a	n/a	n/a	24	6	9	9	n/a	n/a	n/a	n/a	n/a
965458	PROB	n/a	LTP095	ltpFR	7	n/a	n/a	n/a	n/a	n/a	n/a	n/a	14	7	1	6	n/a	n/a	n/a	n/a	n/a
969346	STOP	n/a	LTP095	ltpFR	7	n/a	n/a	n/a	n/a	n/a	n/a	n/a	n/a	n/a	n/a	n/a	n/a	n/a	n/a	n/a	n/a
970552	WORD	wordpools/wasnorm_wordpool.txt	LTP095	ltpFR	7	4	1	EMPEROR	529	n/a	n/a	1	n/a	0	0	0	0.57763671875	0.412841796875	1	upper	zerothre.ttf
973557	START	n/a	LTP095	ltpFR	7	n/a	n/a	n/a	n/a	n/a	n/a	n/a	n/a	n/a	n/a	n/a	n/a	n/a	n/a	n/a	n/a
974397	PROB	n/a	LTP095	ltpFR	7	n/a	n/a	n/a	n/a	n/a	n/a	n/a	15	3	6	6	n/a	n/a	n/a	n/a	n/a
976821	PROB	n/a	LTP095	ltpFR	7	n/a	n/a	n/a	n/a	n/a	n/a	n/a	13	9	2	2	n/a	n/a	n/a	n/a	n/a
981557	STOP	n/a	LTP095	ltpFR	7	n/a	n/a	n/a	n/a	n/a	n/a	n/a	n/a	n/a	n/a	n/a	n/a	n/a	n/a	n/a	n/a
983404	REC_START	n/a	LTP095	ltpFR	7	4	n/a	n/a	n/a	n/a	n/a	n/a	n/a	0	0	0	n/a	n/a	n/a	n/a	n/a
996172	REC_WORD	wordpools/wasnorm_wordpool.txt	LTP095	ltpFR	7	4	1	PARSLEY	1016	n/a	n/a	1	n/a	0	0	0	n/a	n/a	n/a	n/a	n/a
998724	REC_WORD	wordpools/wasnorm_wordpool.txt	LTP095	ltpFR	7	4	1	SEED	1266	n/a	n/a	0	n/a	0	0	0	n/a	n/a	n/a	n/a	n/a
999724	REC_WORD_VV	wordpools/wasnorm_wordpool.txt	LTP095	ltpFR	7	4	n/a	<>	-1	n/a	n/a	n/a	n/a	0	0	0	n/a	n/a	n/a	n/a	n/a
1005259	REC_WORD	wordpools/wasnorm_wordpool.txt	LTP095	ltpFR	7	4	1	BEEF	113	n/a	n/a	0	n/a	0	0	0	n/a	n/a	n/a	n/a	n/a
1010956	REC_WORD	wordpools/wasnorm_wordpool.txt	LTP095	ltpFR	7	4	1	HERD	705	n/a	n/a	0	n/a	0	0	0	n/a	n/a	n/a	n/a	n/a
1011956	REC_WORD_VV	wordpools/wasnorm_wordpool.txt	LTP095	ltpFR	7	4	n/a	<>	-1	n/a	n/a	n/a	n/a	0	0	0	n/a	n/a	n/a	n/a	n/a
1016384	REC_WORD	wordpools/wasnorm_wordpool.txt	LTP095	ltpFR	7	4	0	SHELTER	1282	n/a	n/a	1	n/a	0	0	0	n/a	n/a	n/a	n/a	n/a
1068989	START	n/a	LTP095	ltpFR	7	n/a	n/a	n/a	n/a	n/a	n/a	n/a	n/a	n/a	n/a	n/a	n/a	n/a	n/a	n/a	n/a
1070494	PROB	n/a	LTP095	ltpFR	7	n/a	n/a	n/a	n/a	n/a	n/a	n/a	13	4	4	5	n/a	n/a	n/a	n/a	n/a
1072650	PROB	n/a	LTP095	ltpFR	7	n/a	n/a	n/a	n/a	n/a	n/a	n/a	15	6	2	7	n/a	n/a	n/a	n/a	n/a
1074890	PROB	n/a	LTP095	ltpFR	7	n/a	n/a	n/a	n/a	n/a	n/a	n/a	15	4	6	5	n/a	n/a	n/a	n/a	n/a
1076229	STOP	n/a	LTP095	ltpFR	7	n/a	n/a	n/a	n/a	n/a	n/a	n/a	n/a	n/a	n/a	n/a	n/a	n/a	n/a	n/a	n/a
1078161	WORD	wordpools/wasnorm_wordpool.txt	LTP095	ltpFR	7	5	0	COWARD	394	n/a	n/a	0	n/a	0	0	0	0.422607421875	0.5869140625	0	lower	amplitud.ttf
1081166	START	n/a	LTP095	ltpFR	7	n/a	n/a	n/a	n/a	n/a	n/a	n/a	n/a	n/a	n/a	n/a	n/a	n/a	n/a	n/a	n/a
1082347	PROB	n/a	LTP095	ltpFR	7	n/a	n/a	n/a	n/a	n/a	n/a	n/a	21	8	7	6	n/a	n/a	n/a	n/a	n/a
1084619	PROB	n/a	LTP095	ltpFR	7	n/a	n/a	n/a	n/a	n/a	n/a	n/a	15	9	5	1	n/a	n/a	n/a	n/a	n/a
1086292	PROB	n/a	LTP095	ltpFR	7	n/a	n/a	n/a	n/a	n/a	n/a	n/a	24	6	8	8	n/a	n/a	n/a	n/a	n/a
1088277	STOP	n/a	LTP095	ltpFR	7	n/a	n/a	n/a	n/a	n/a	n/a	n/a	n/a	n/a	n/a	n/a	n/a	n/a	n/a	n/a	n/a
1090164	WORD	wordpools/wasnorm_wordpool.txt	LTP095	ltpFR	7	5	0	COBWEB	337	n/a	n/a	1	n/a	0	0	0	0.422607421875	0.5869140625	0	lower	amplitud.ttf
1093169	START	n/a	LTP095	ltpFR	7	n/a	n/a	n/a	n/a	n/a	n/a	n/a	n/a	n/a	n/a	n/a	n/a	n/a	n/a	n/a	n/a
1094258	PROB	n/a	LTP095	ltpFR	7	n/a	n/a	n/a	n/a	n/a	n/a	n/a	14	7	4	3	n/a	n/a	n/a	n/a	n/a
1096165	PROB	n/a	LTP095	ltpFR	7	n/a	n/a	n/a	n/a	n/a	n/a	n/a	21	7	7	7	n/a	n/a	n/a	n/a	n/a
1097679	PROB	n/a	LTP095	ltpFR	7	n/a	n/a	n/a	n/a	n/a	n/a	n/a	11	1	7	3	n/a	n/a	n/a	n/a	n/a
1101168	STOP	n/a	LTP095	ltpFR	7	n/a	n/a	n/a	n/a	n/a	n/a	n/a	n/a	n/a	n/a	n/a	n/a	n/a	n/a	n/a	n/a
1102232	WORD	wordpools/wasnorm_wordpool.txt	LTP095	ltpFR	7	5	0	WIDOW	1608	n/a	n/a	1	n/a	0	0	0	0.422607421875	0.5869140625	0	lower	amplitud.ttf
1105237	START	n/a	LTP095	ltpFR	7	n/a	n/a	n/a	n/a	n/a	n/a	n/a	n/a	n/a	n/a	n/a	n/a	n/a	n/a	n/a	n/a
1106054	PROB	n/a	LTP095	ltpFR	7	n/a	n/a	n/a	n/a	n/a	n/a	n/a	15	6	6	3	n/a	n/a	n/a	n/a	n/a
1110323	PROB	n/a	LTP095	ltpFR	7	n/a	n/a	n/a	n/a	n/a	n/a	n/a	11	2	6	3	n/a	n/a	n/a	n/a	n/a
1112142	STOP	n/a	LTP095	ltpFR	7	n/a	n/a	n/a	n/a	n/a	n/a	n/a	n/a	n/a	n/a	n/a	n/a	n/a	n/a	n/a	n/a
1114335	WORD	wordpools/wasnorm_wordpool.txt	LTP095	ltpFR	7	5	0	TEAM	1441	n/a	n/a	1	n/a	0	0	0	0.422607421875	0.5869140625	0	lower	amplitud.ttf
1117340	START	n/a	LTP095	ltpFR	7	n/a	n/a	n/a	n/a	n/a	n/a	n/a	n/a	n/a	n/a	n/a	n/a	n/a	n/a	n/a	n/a
1118372	PROB	n/a	LTP095	ltpFR	7	n/a	n/a	n/a	n/a	n/a	n/a	n/a	17	2	8	7	n/a	n/a	n/a	n/a	n/a
1120361	PROB	n/a	LTP095	ltpFR	7	n/a	n/a	n/a	n/a	n/a	n/a	n/a	12	4	7	1	n/a	n/a	n/a	n/a	n/a
1122334	PROB	n/a	LTP095	ltpFR	7	n/a	n/a	n/a	n/a	n/a	n/a	n/a	16	5	3	8	n/a	n/a	n/a	n/a	n/a
1124741	STOP	n/a	LTP095	ltpFR	7	n/a	n/a	n/a	n/a	n/a	n/a	n/a	n/a	n/a	n/a	n/a	n/a	n/a	n/a	n/a	n/a
1126337	WORD	wordpools/wasnorm_wordpool.txt	LTP095	ltpFR	7	5	0	SOFTBALL	1343	n/a	n/a	0	n/a	0	0	0	0.422607421875	0.5869140625	0	lower	amplitud.ttf
1129343	START	n/a	LTP095	ltpFR	7	n/a	n/a	n/a	n/a	n/a	n/a	n/a	n/a	n/a	n/a	n/a	n/a	n/a	n/a	n/a	n/a
1130408	PROB	n/a	LTP095	ltpFR	7	n/a	n/a	n/a	n/a	n/a	n/a	n/a	12	7	1	4	n/a	n/a	n/a	n/a	n/a
1135870	STOP	n/a	LTP095	ltpFR	7	n/a	n/a	n/a	n/a	n/a	n/a	n/a	n/a	n/a	n/a	n/a	n/a	n/a	n/a	n/a	n/a
1138473	WORD	wordpools/wasnorm_wordpool.txt	LTP095	ltpFR	7	5	0	PRISON	1127	n/a	n/a	1	n/a	0	0	0	0.422607421875	0.5869140625	0	lower	amplitud.ttf
1141479	START	n/a	LTP095	ltpFR	7	n/a	n/a	n/a	n/a	n/a	n/a	n/a	n/a	n/a	n/a	n/a	n/a	n/a	n/a	n/a	n/a
1142361	PROB	n/a	LTP095	ltpFR	7	n/a	n/a	n/a	n/a	n/a	n/a	n/a	15	6	7	2	n/a	n/a	n/a	n/a	n/a
1144558	PROB	n/a	LTP095	ltpFR	7	n/a	n/a	n/a	n/a	n/a	n/a	n/a	12	7	3	2	n/a	n/a	n/a	n/a	n/a
1145924	PROB	n/a	LTP095	ltpFR	7	n/a	n/a	n/a	n/a	n/a	n/a	n/a	17	2	6	9	n/a	n/a	n/a	n/a	n/a
1149478	STOP	n/a	LTP095	ltpFR	7	n/a	n/a	n/a	n/a	n/a	n/a	n/a	n/a	n/a	n/a	n/a	n/a	n/a	n/a	n/a	n/a
1150343	WORD	wordpools/wasnorm_wordpool.txt	LTP095	ltpFR	7	5	0	ROOSTER	1209	n/a	n/a	1	n/a	0	0	0	0.422607421875	0.5869140625	0	lower	amplitud.ttf
1153348	START	n/a	LTP095	ltpFR	7	n/a	n/a	n/a	n/a	n/a	n/a	n/a	n/a	n/a	n/a	n/a	n/a	n/a	n/a	n/a	n/a
1154388	PROB	n/a	LTP095	ltpFR	7	n/a	n/a	n/a	n/a	n/a	n/a	n/a	18	8	5	5	n/a	n/a	n/a	n/a	n/a
1156012	PROB	n/a	LTP095	ltpFR	7	n/a	n/a	n/a	n/a	n/a	n/a	n/a	16	8	3	5	n/a	n/a	n/a	n/a	n/a
1160261	STOP	n/a	LTP095	ltpFR	7	n/a	n/a	n/a	n/a	n/a	n/a	n/a	n/a	n/a	n/a	n/a	n/a	n/a	n/a	n/a	n/a
1162188	WORD	wordpools/wasnorm_wordpool.txt	LTP095	ltpFR	7	5	0	TAVERN	1437	n/a	n/a	2	n/a	0	0	0	0.422607421875	0.5869140625	0	lower	amplitud.ttf
1164078	KEY_MSG	n/a	LTP095	ltpFR	7	5	n/a	n/a	n/a	n/a	n/a	n/a	n/a	0	0	0	n/a	n/a	n/a	n/a	n/a
1165592	START	n/a	LTP095	ltpFR	7	n/a	n/a	n/a	n/a	n/a	n/a	n/a	n/a	n/a	n/a	n/a	n/a	n/a	n/a	n/a	n/a
1166724	PROB	n/a	LTP095	ltpFR	7	n/a	n/a	n/a	n/a	n/a	n/a	n/a	11	4	4	3	n/a	n/a	n/a	n/a	n/a
1169654	PROB	n/a	LTP095	ltpFR	7	n/a	n/a	n/a	n/a	n/a	n/a	n/a	16	6	3	7	n/a	n/a	n/a	n/a	n/a
1173592	STOP	n/a	LTP095	ltpFR	7	n/a	n/a	n/a	n/a	n/a	n/a	n/a	n/a	n/a	n/a	n/a	n/a	n/a	n/a	n/a	n/a
1174548	WORD	wordpools/wasnorm_wordpool.txt	LTP095	ltpFR	7	5	0	EARRING	514	n/a	n/a	0	n/a	0	0	0	0.422607421875	0.5869140625	0	lower	amplitud.ttf
1177553	START	n/a	LTP095	ltpFR	7	n/a	n/a	n/a	n/a	n/a	n/a	n/a	n/a	n/a	n/a	n/a	n/a	n/a	n/a	n/a	n/a
1178518	PROB	n/a	LTP095	ltpFR	7	n/a	n/a	n/a	n/a	n/a	n/a	n/a	14	4	5	5	n/a	n/a	n/a	n/a	n/a
1180316	PROB	n/a	LTP095	ltpFR	7	n/a	n/a	n/a	n/a	n/a	n/a	n/a	16	4	8	4	n/a	n/a	n/a	n/a	n/a
1182065	PROB	n/a	LTP095	ltpFR	7	n/a	n/a	n/a	n/a	n/a	n/a	n/a	19	6	5	8	n/a	n/a	n/a	n/a	n/a
1184501	STOP	n/a	LTP095	ltpFR	7	n/a	n/a	n/a	n/a	n/a	n/a	n/a	n/a	n/a	n/a	n/a	n/a	n/a	n/a	n/a	n/a
1186667	WORD	wordpools/wasnorm_wordpool.txt	LTP095	ltpFR	7	5	0	VILLAGE	1566	n/a	n/a	1	n/a	0	0	0	0.422607421875	0.5869140625	0	lower	amplitud.ttf
1189673	START	n/a	LTP095	ltpFR	7	n/a	n/a	n/a	n/a	n/a	n/a	n/a	n/a	n/a	n/a	n/a	n/a	n/a	n/a	n/a	n/a
1190488	PROB	n/a	LTP095	ltpFR	7	n/a	n/a	n/a	n/a	n/a	n/a	n/a	16	7	7	2	n/a	n/a	n/a	n/a	n/a
1192853	PROB	n/a	LTP095	ltpFR	7	n/a	n/a	n/a	n/a	n/a	n/a	n/a	16	6	3	7	n/a	n/a	n/a	n/a	n/a
1194267	PROB	n/a	LTP095	ltpFR	7	n/a	n/a	n/a	n/a	n/a	n/a	n/a	14	5	6	3	n/a	n/a	n/a	n/a	n/a
1197673	STOP	n/a	LTP095	ltpFR	7	n/a	n/a	n/a	n/a	n/a	n/a	n/a	n/a	n/a	n/a	n/a	n/a	n/a	n/a	n/a	n/a
1198863	WORD	wordpools/wasnorm_wordpool.txt	LTP095	ltpFR	7	5	0	AMBULANCE	19	n/a	n/a	1	n/a	0	0	0	0.422607421875	0.5869140625	0	lower	amplitud.ttf
1201868	START	n/a	LTP095	ltpFR	7	n/a	n/a	n/a	n/a	n/a	n/a	n/a	n/a	n/a	n/a	n/a	n/a	n/a	n/a	n/a	n/a
1202949	PROB	n/a	LTP095	ltpFR	7	n/a	n/a	n/a	n/a	n/a	n/a	n/a	15	4	2	9	n/a	n/a	n/a	n/a	n/a
1204872	PROB	n/a	LTP095	ltpFR	7	n/a	n/a	n/a	n/a	n/a	n/a	n/a	12	6	3	3	n/a	n/a	n/a	n/a	n/a
1206895	PROB	n/a	LTP095	ltpFR	7	n/a	n/a	n/a	n/a	n/a	n/a	n/a	6	1	4	1	n/a	n/a	n/a	n/a	n/a
1208830	STOP	n/a	LTP095	ltpFR	7	n/a	n/a	n/a	n/a	n/a	n/a	n/a	n/a	n/a	n/a	n/a	n/a	n/a	n/a	n/a	n/a
1210773	WORD	wordpools/wasnorm_wordpool.txt	LTP095	ltpFR	7	5	0	BEETLE	116	n/a	n/a	0	n/a	0	0	0	0.422607421875	0.5869140625	0	lower	amplitud.ttf
1213778	START	n/a	LTP095	ltpFR	7	n/a	n/a	n/a	n/a	n/a	n/a	n/a	n/a	n/a	n/a	n/a	n/a	n/a	n/a	n/a	n/a
1214902	PROB	n/a	LTP095	ltpFR	7	n/a	n/a	n/a	n/a	n/a	n/a	n/a	12	4	7	1	n/a	n/a	n/a	n/a	n/a
1217598	PROB	n/a	LTP095	ltpFR	7	n/a	n/a	n/a	n/a	n/a	n/a	n/a	6	1	4	1	n/a	n/a	n/a	n/a	n/a
1218948	PROB	n/a	LTP095	ltpFR	7	n/a	n/a	n/a	n/a	n/a	n/a	n/a	18	1	9	8	n/a	n/a	n/a	n/a	n/a
1220661	STOP	n/a	LTP095	ltpFR	7	n/a	n/a	n/a	n/a	n/a	n/a	n/a	n/a	n/a	n/a	n/a	n/a	n/a	n/a	n/a	n/a
1222667	WORD	wordpools/wasnorm_wordpool.txt	LTP095	ltpFR	7	5	0	MOTH	920	n/a	n/a	0	n/a	0	0	0	0.422607421875	0.5869140625	0	lower	amplitud.ttf
1225672	START	n/a	LTP095	ltpFR	7	n/a	n/a	n/a	n/a	n/a	n/a	n/a	n/a	n/a	n/a	n/a	n/a	n/a	n/a	n/a	n/a
1226754	PROB	n/a	LTP095	ltpFR	7	n/a	n/a	n/a	n/a	n/a	n/a	n/a	14	1	6	7	n/a	n/a	n/a	n/a	n/a
1233671	STOP	n/a	LTP095	ltpFR	7	n/a	n/a	n/a	n/a	n/a	n/a	n/a	n/a	n/a	n/a	n/a	n/a	n/a	n/a	n/a	n/a
1234862	WORD	wordpools/wasnorm_wordpool.txt	LTP095	ltpFR	7	5	0	FLASK	576	n/a	n/a	0	n/a	0	0	0	0.422607421875	0.5869140625	0	lower	amplitud.ttf
1237868	START	n/a	LTP095	ltpFR	7	n/a	n/a	n/a	n/a	n/a	n/a	n/a	n/a	n/a	n/a	n/a	n/a	n/a	n/a	n/a	n/a
1238924	PROB	n/a	LTP095	ltpFR	7	n/a	n/a	n/a	n/a	n/a	n/a	n/a	15	1	6	8	n/a	n/a	n/a	n/a	n/a
1241063	PROB	n/a	LTP095	ltpFR	7	n/a	n/a	n/a	n/a	n/a	n/a	n/a	10	5	4	1	n/a	n/a	n/a	n/a	n/a
1242794	PROB	n/a	LTP095	ltpFR	7	n/a	n/a	n/a	n/a	n/a	n/a	n/a	19	5	7	5	n/a	n/a	n/a	n/a	n/a
1244757	STOP	n/a	LTP095	ltpFR	7	n/a	n/a	n/a	n/a	n/a	n/a	n/a	n/a	n/a	n/a	n/a	n/a	n/a	n/a	n/a	n/a
1246873	WORD	wordpools/wasnorm_wordpool.txt	LTP095	ltpFR	7	5	0	CRIMINAL	409	n/a	n/a	1	n/a	0	0	0	0.422607421875	0.5869140625	0	lower	amplitud.ttf
1249879	START	n/a	LTP095	ltpFR	7	n/a	n/a	n/a	n/a	n/a	n/a	n/a	n/a	n/a	n/a	n/a	n/a	n/a	n/a	n/a	n/a
1251077	PROB	n/a	LTP095	ltpFR	7	n/a	n/a	n/a	n/a	n/a	n/a	n/a	18	2	7	9	n/a	n/a	n/a	n/a	n/a
1253473	PROB	n/a	LTP095	ltpFR	7	n/a	n/a	n/a	n/a	n/a	n/a	n/a	12	3	3	6	n/a	n/a	n/a	n/a	n/a
1257878	STOP	n/a	LTP095	ltpFR	7	n/a	n/a	n/a	n/a	n/a	n/a	n/a	n/a	n/a	n/a	n/a	n/a	n/a	n/a	n/a	n/a
1258826	WORD	wordpools/wasnorm_wordpool.txt	LTP095	ltpFR	7	5	0	SCARF	1246	n/a	n/a	0	n/a	0	0	0	0.422607421875	0.5869140625	0	lower	amplitud.ttf
1261831	START	n/a	LTP095	ltpFR	7	n/a	n/a	n/a	n/a	n/a	n/a	n/a	n/a	n/a	n/a	n/a	n/a	n/a	n/a	n/a	n/a
1262830	PROB	n/a	LTP095	ltpFR	7	n/a	n/a	n/a	n/a	n/a	n/a	n/a	11	4	2	5	n/a	n/a	n/a	n/a	n/a
1265234	PROB	n/a	LTP095	ltpFR	7	n/a	n/a	n/a	n/a	n/a	n/a	n/a	9	4	4	1	n/a	n/a	n/a	n/a	n/a
1267274	PROB	n/a	LTP095	ltpFR	7	n/a	n/a	n/a	n/a	n/a	n/a	n/a	13	2	7	4	n/a	n/a	n/a	n/a	n/a
1269142	STOP	n/a	LTP095	ltpFR	7	n/a	n/a	n/a	n/a	n/a	n/a	n/a	n/a	n/a	n/a	n/a	n/a	n/a	n/a	n/a	n/a
1271603	REC_START	n/a	LTP095	ltpFR	7	5	n/a	n/a	n/a	n/a	n/a	n/a	n/a	0	0	0	n/a	n/a	n/a	n/a	n/a
1278811	REC_WORD	wordpools/wasnorm_wordpool.txt	LTP095	ltpFR	7	5	0	CRIMINAL	409	n/a	n/a	1	n/a	0	0	0	n/a	n/a	n/a	n/a	n/a
1283306	REC_WORD	wordpools/wasnorm_wordpool.txt	LTP095	ltpFR	7	5	0	WIDOW	1608	n/a	n/a	1	n/a	0	0	0	n/a	n/a	n/a	n/a	n/a
1291003	REC_WORD	wordpools/wasnorm_wordpool.txt	LTP095	ltpFR	7	5	0	FLASK	576	n/a	n/a	0	n/a	0	0	0	n/a	n/a	n/a	n/a	n/a
1292003	REC_WORD_VV	wordpools/wasnorm_wordpool.txt	LTP095	ltpFR	7	5	n/a	<>	-1	n/a	n/a	n/a	n/a	0	0	0	n/a	n/a	n/a	n/a	n/a
1317324	REC_WORD	wordpools/wasnorm_wordpool.txt	LTP095	ltpFR	7	5	0	VILLAGE	1566	n/a	n/a	1	n/a	0	0	0	n/a	n/a	n/a	n/a	n/a
1318324	REC_WORD_VV	wordpools/wasnorm_wordpool.txt	LTP095	ltpFR	7	5	n/a	<>	-1	n/a	n/a	n/a	n/a	0	0	0	n/a	n/a	n/a	n/a	n/a
1378220	WORD	wordpools/wasnorm_wordpool.txt	LTP095	ltpFR	7	6	0	CONTINENT	367	n/a	n/a	1	n/a	0	0	0	0.422607421875	0.5869140625	0	lower	amplitud.ttf
1382240	WORD	wordpools/wasnorm_wordpool.txt	LTP095	ltpFR	7	6	0	EMPIRE	530	n/a	n/a	1	n/a	0	0	0	0.422607421875	0.5869140625	0	lower	amplitud.ttf
1386095	WORD	wordpools/wasnorm_wordpool.txt	LTP095	ltpFR	7	6	0	SIDING	1304	n/a	n/a	1	n/a	0	0	0	0.422607421875	0.5869140625	0	lower	amplitud.ttf
1390281	WORD	wordpools/wasnorm_wordpool.txt	LTP095	ltpFR	7	6	0	BIRD	129	n/a	n/a	0	n/a	0	0	0	0.422607421875	0.5869140625	0	lower	amplitud.ttf
1394426	WORD	wordpools/wasnorm_wordpool.txt	LTP095	ltpFR	7	6	0	BANKER	84	n/a	n/a	1	n/a	0	0	0	0.422607421875	0.5869140625	0	lower	amplitud.ttf
1398388	WORD	wordpools/wasnorm_wordpool.txt	LTP095	ltpFR	7	6	0	PAWN	1030	n/a	n/a	0	n/a	0	0	0	0.422607421875	0.5869140625	0	lower	amplitud.ttf
1402201	WORD	wordpools/wasnorm_wordpool.txt	LTP095	ltpFR	7	6	0	IRON	744	n/a	n/a	0	n/a	0	0	0	0.422607421875	0.5869140625	0	lower	amplitud.ttf
1406080	WORD	wordpools/wasnorm_wordpool.txt	LTP095	ltpFR	7	6	0	LIST	830	n/a	n/a	0	n/a	0	0	0	0.422607421875	0.5869140625	0	lower	amplitud.ttf
1410134	WORD	wordpools/wasnorm_wordpool.txt	LTP095	ltpFR	7	6	0	REFRIGERATOR	1179	n/a	n/a	1	n/a	0	0	0	0.422607421875	0.5869140625	0	lower	amplitud.ttf
1413988	WORD	wordpools/wasnorm_wordpool.txt	LTP095	ltpFR	7	6	0	FEATHER	557	n/a	n/a	0	n/a	0	0	0	0.422607421875	0.5869140625	0	lower	amplitud.ttf
1418016	WORD	wordpools/wasnorm_wordpool.txt	LTP095	ltpFR	7	6	0	NEUTRON	947	n/a	n/a	0	n/a	0	0	0	0.422607421875	0.5869140625	0	lower	amplitud.ttf
1421837	WORD	wordpools/wasnorm_wordpool.txt	LTP095	ltpFR	7	6	0	ANGEL	22	n/a	n/a	0	n/a	0	0	0	0.422607421875	0.5869140625	0	lower	amplitud.ttf
1425832	WORD	wordpools/wasnorm_wordpool.txt	LTP095	ltpFR	7	6	0	TYPEWRITER	1531	n/a	n/a	1	n/a	0	0	0	0.422607421875	0.5869140625	0	lower	amplitud.ttf
1429677	WORD	wordpools/wasnorm_wordpool.txt	LTP095	ltpFR	7	6	0	TOILET	1475	n/a	n/a	1	n/a	0	0	0	0.422607421875	0.5869140625	0	lower	amplitud.ttf
1433589	WORD	wordpools/wasnorm_wordpool.txt	LTP095	ltpFR	7	6	0	CROWN	415	n/a	n/a	0	n/a	0	0	0	0.422607421875	0.5869140625	0	lower	amplitud.ttf
1437759	WORD	wordpools/wasnorm_wordpool.txt	LTP095	ltpFR	7	6	0	CASTLE	256	n/a	n/a	1	n/a	0	0	0	0.422607421875	0.5869140625	0	lower	amplitud.ttf
1440764	START	n/a	LTP095	ltpFR	7	n/a	n/a	n/a	n/a	n/a	n/a	n/a	n/a	n/a	n/a	n/a	n/a	n/a	n/a	n/a	n/a
1441779	PROB	n/a	LTP095	ltpFR	7	n/a	n/a	n/a	n/a	n/a	n/a	n/a	18	8	6	4	n/a	n/a	n/a	n/a	n/a
1443836	PROB	n/a	LTP095	ltpFR	7	n/a	n/a	n/a	n/a	n/a	n/a	n/a	12	2	7	3	n/a	n/a	n/a	n/a	n/a
1445201	PROB	n/a	LTP095	ltpFR	7	n/a	n/a	n/a	n/a	n/a	n/a	n/a	23	7	9	7	n/a	n/a	n/a	n/a	n/a
1448213	STOP	n/a	LTP095	ltpFR	7	n/a	n/a	n/a	n/a	n/a	n/a	n/a	n/a	n/a	n/a	n/a	n/a	n/a	n/a	n/a	n/a
1450536	REC_START	n/a	LTP095	ltpFR	7	6	n/a	n/a	n/a	n/a	n/a	n/a	n/a	0	0	0	n/a	n/a	n/a	n/a	n/a
1454492	REC_WORD_VV	wordpools/wasnorm_wordpool.txt	LTP095	ltpFR	7	6	n/a	<>	-1	n/a	n/a	n/a	n/a	0	0	0	n/a	n/a	n/a	n/a	n/a
1455492	REC_WORD_VV	wordpools/wasnorm_wordpool.txt	LTP095	ltpFR	7	6	n/a	<>	-1	n/a	n/a	n/a	n/a	0	0	0	n/a	n/a	n/a	n/a	n/a
1458862	REC_WORD	wordpools/wasnorm_wordpool.txt	LTP095	ltpFR	7	6	0	NEUTRON	947	n/a	n/a	0	n/a	0	0	0	n/a	n/a	n/a	n/a	n/a
1461835	REC_WORD	wordpools/wasnorm_wordpool.txt	LTP095	ltpFR	7	6	0	FEATHER	557	n/a	n/a	0	n/a	0	0	0	n/a	n/a	n/a	n/a	n/a
1466544	REC_WORD	wordpools/wasnorm_wordpool.txt	LTP095	ltpFR	7	6	0	EMPIRE	530	n/a	n/a	1	n/a	0	0	0	n/a	n/a	n/a	n/a	n/a
1468809	REC_WORD	wordpools/wasnorm_wordpool.txt	LTP095	ltpFR	7	6	0	CONTINENT	367	n/a	n/a	1	n/a	0	0	0	n/a	n/a	n/a	n/a	n/a
1474786	REC_WORD	wordpools/wasnorm_wordpool.txt	LTP095	ltpFR	7	6	0	TYPEWRITER	1531	n/a	n/a	1	n/a	0	0	0	n/a	n/a	n/a	n/a	n/a
1476028	REC_WORD_VV	wordpools/wasnorm_wordpool.txt	LTP095	ltpFR	7	6	n/a	<>	-1	n/a	n/a	n/a	n/a	0	0	0	n/a	n/a	n/a	n/a	n/a
1522981	REC_WORD	wordpools/wasnorm_wordpool.txt	LTP095	ltpFR	7	6	0	CROWN	415	n/a	n/a	0	n/a	0	0	0	n/a	n/a	n/a	n/a	n/a
1525151	REC_WORD_VV	wordpools/wasnorm_wordpool.txt	LTP095	ltpFR	7	6	n/a	<>	-1	n/a	n/a	n/a	n/a	0	0	0	n/a	n/a	n/a	n/a	n/a
1542122	WORD	wordpools/wasnorm_wordpool.txt	LTP095	ltpFR	7	7	0	KITCHEN	778	n/a	n/a	1	n/a	0	0	0	0.422607421875	0.5869140625	0	lower	amplitud.ttf
1546192	WORD	wordpools/wasnorm_wordpool.txt	LTP095	ltpFR	7	7	0	TUB	1514	n/a	n/a	1	n/a	0	0	0	0.422607421875	0.5869140625	0	lower	amplitud.ttf
1550345	WORD	wordpools/wasnorm_wordpool.txt	LTP095	ltpFR	7	7	0	YOLK	1633	n/a	n/a	0	n/a	0	0	0	0.422607421875	0.5869140625	0	lower	amplitud.ttf
1554373	WORD	wordpools/wasnorm_wordpool.txt	LTP095	ltpFR	7	7	0	CHICK	296	n/a	n/a	0	n/a	0	0	0	0.422607421875	0.5869140625	0	lower	amplitud.ttf
1558294	WORD	wordpools/wasnorm_wordpool.txt	LTP095	ltpFR	7	7	0	PREDATOR	1120	n/a	n/a	1	n/a	0	0	0	0.422607421875	0.5869140625	0	lower	amplitud.ttf
1562140	WORD	wordpools/wasnorm_wordpool.txt	LTP095	ltpFR	7	7	0	ANT	25	n/a	n/a	0	n/a	0	0	0	0.422607421875	0.5869140625	0	lower	amplitud.ttf
1566077	WORD	wordpools/wasnorm_wordpool.txt	LTP095	ltpFR	7	7	0	BLUEBERRY	140	n/a	n/a	0	n/a	0	0	0	0.422607421875	0.5869140625	0	lower	amplitud.ttf
1569981	WORD	wordpools/wasnorm_wordpool.txt	LTP095	ltpFR	7	7	0	ISLAND	745	n/a	n/a	1	n/a	0	0	0	0.422607421875	0.5869140625	0	lower	amplitud.ttf
1573810	WORD	wordpools/wasnorm_wordpool.txt	LTP095	ltpFR	7	7	0	TREAD	1499	n/a	n/a	0	n/a	0	0	0	0.422607421875	0.5869140625	0	lower	amplitud.ttf
1577947	WORD	wordpools/wasnorm_wordpool.txt	LTP095	ltpFR	7	7	0	BAIT	70	n/a	n/a	0	n/a	0	0	0	0.422607421875	0.5869140625	0	lower	amplitud.ttf
1581992	WORD	wordpools/wasnorm_wordpool.txt	LTP095	ltpFR	7	7	0	BOWL	158	n/a	n/a	0	n/a	0	0	0	0.422607421875	0.5869140625	0	lower	amplitud.ttf
1586137	WORD	wordpools/wasnorm_wordpool.txt	LTP095	ltpFR	7	7	0	CHIMNEY	301	n/a	n/a	1	n/a	0	0	0	0.422607421875	0.5869140625	0	lower	amplitud.ttf
1590298	WORD	wordpools/wasnorm_wordpool.txt	LTP095	ltpFR	7	7	0	FISH	571	n/a	n/a	0	n/a	0	0	0	0.422607421875	0.5869140625	0	lower	amplitud.ttf
1594120	WORD	wordpools/wasnorm_wordpool.txt	LTP095	ltpFR	7	7	0	SNACK	1331	n/a	n/a	0	n/a	0	0	0	0.422607421875	0.5869140625	0	lower	amplitud.ttf
1598107	WORD	wordpools/wasnorm_wordpool.txt	LTP095	ltpFR	7	7	0	CYCLONE	431	n/a	n/a	1	n/a	0	0	0	0.422607421875	0.5869140625	0	lower	amplitud.ttf
1602161	WORD	wordpools/wasnorm_wordpool.txt	LTP095	ltpFR	7	7	0	BOY	161	n/a	n/a	1	n/a	0	0	0	0.422607421875	0.5869140625	0	lower	amplitud.ttf
1605166	START	n/a	LTP095	ltpFR	7	n/a	n/a	n/a	n/a	n/a	n/a	n/a	n/a	n/a	n/a	n/a	n/a	n/a	n/a	n/a	n/a
1606288	PROB	n/a	LTP095	ltpFR	7	n/a	n/a	n/a	n/a	n/a	n/a	n/a	18	9	1	8	n/a	n/a	n/a	n/a	n/a
1608702	PROB	n/a	LTP095	ltpFR	7	n/a	n/a	n/a	n/a	n/a	n/a	n/a	12	6	4	2	n/a	n/a	n/a	n/a	n/a
1610400	PROB	n/a	LTP095	ltpFR	7	n/a	n/a	n/a	n/a	n/a	n/a	n/a	16	7	8	1	n/a	n/a	n/a	n/a	n/a
1612815	PROB	n/a	LTP095	ltpFR	7	n/a	n/a	n/a	n/a	n/a	n/a	n/a	10	2	5	3	n/a	n/a	n/a	n/a	n/a
1615021	PROB	n/a	LTP095	ltpFR	7	n/a	n/a	n/a	n/a	n/a	n/a	n/a	13	4	8	1	n/a	n/a	n/a	n/a	n/a
1616877	PROB	n/a	LTP095	ltpFR	7	n/a	n/a	n/a	n/a	n/a	n/a	n/a	18	7	4	8	n/a	n/a	n/a	n/a	n/a
1618540	PROB	n/a	LTP095	ltpFR	7	n/a	n/a	n/a	n/a	n/a	n/a	n/a	8	2	5	1	n/a	n/a	n/a	n/a	n/a
1621142	STOP	n/a	LTP095	ltpFR	7	n/a	n/a	n/a	n/a	n/a	n/a	n/a	n/a	n/a	n/a	n/a	n/a	n/a	n/a	n/a	n/a
1622978	REC_START	n/a	LTP095	ltpFR	7	7	n/a	n/a	n/a	n/a	n/a	n/a	n/a	0	0	0	n/a	n/a	n/a	n/a	n/a
1630411	REC_WORD	wordpools/wasnorm_wordpool.txt	LTP095	ltpFR	7	7	0	BOY	161	n/a	n/a	1	n/a	0	0	0	n/a	n/a	n/a	n/a	n/a
1632486	REC_WORD	wordpools/wasnorm_wordpool.txt	LTP095	ltpFR	7	7	0	BOWL	158	n/a	n/a	0	n/a	0	0	0	n/a	n/a	n/a	n/a	n/a
1637709	REC_WORD	wordpools/wasnorm_wordpool.txt	LTP095	ltpFR	7	7	n/a	THREAD	1460	n/a	n/a	n/a	n/a	0	0	0	n/a	n/a	n/a	n/a	n/a
1696092	REC_WORD	wordpools/wasnorm_wordpool.txt	LTP095	ltpFR	7	7	0	ANT	25	n/a	n/a	0	n/a	0	0	0	n/a	n/a	n/a	n/a	n/a
1766327	WORD	wordpools/wasnorm_wordpool.txt	LTP095	ltpFR	7	8	0	WALL	1582	n/a	n/a	1	n/a	0	0	0	0.422607421875	0.5869140625	0	lower	amplitud.ttf
1770182	WORD	wordpools/wasnorm_wordpool.txt	LTP095	ltpFR	7	8	0	KEEPER	769	n/a	n/a	1	n/a	0	0	0	0.422607421875	0.5869140625	0	lower	amplitud.ttf
1774044	WORD	wordpools/wasnorm_wordpool.txt	LTP095	ltpFR	7	8	0	SANDWICH	1232	n/a	n/a	1	n/a	0	0	0	0.422607421875	0.5869140625	0	lower	amplitud.ttf
1778006	WORD	wordpools/wasnorm_wordpool.txt	LTP095	ltpFR	7	8	0	SAXOPHONE	1240	n/a	n/a	1	n/a	0	0	0	0.422607421875	0.5869140625	0	lower	amplitud.ttf
1782210	WORD	wordpools/wasnorm_wordpool.txt	LTP095	ltpFR	7	8	0	LAGOON	795	n/a	n/a	1	n/a	0	0	0	0.422607421875	0.5869140625	0	lower	amplitud.ttf
1786113	WORD	wordpools/wasnorm_wordpool.txt	LTP095	ltpFR	7	8	0	RECEIPT	1173	n/a	n/a	0	n/a	0	0	0	0.422607421875	0.5869140625	0	lower	amplitud.ttf
1790167	WORD	wordpools/wasnorm_wordpool.txt	LTP095	ltpFR	7	8	0	BARTENDER	92	n/a	n/a	1	n/a	0	0	0	0.422607421875	0.5869140625	0	lower	amplitud.ttf
1794378	WORD	wordpools/wasnorm_wordpool.txt	LTP095	ltpFR	7	8	0	EUROPE	541	n/a	n/a	1	n/a	0	0	0	0.422607421875	0.5869140625	0	lower	amplitud.ttf
1798340	WORD	wordpools/wasnorm_wordpool.txt	LTP095	ltpFR	7	8	0	DRIVEWAY	500	n/a	n/a	1	n/a	0	0	0	0.422607421875	0.5869140625	0	lower	amplitud.ttf
1802252	WORD	wordpools/wasnorm_wordpool.txt	LTP095	ltpFR	7	8	0	GARAGE	621	n/a	n/a	1	n/a	0	0	0	0.422607421875	0.5869140625	0	lower	amplitud.ttf
1806074	WORD	wordpools/wasnorm_wordpool.txt	LTP095	ltpFR	7	8	0	SALESMAN	1225	n/a	n/a	1	n/a	0	0	0	0.422607421875	0.5869140625	0	lower	amplitud.ttf
1810276	WORD	wordpools/wasnorm_wordpool.txt	LTP095	ltpFR	7	8	0	CONE	363	n/a	n/a	0	n/a	0	0	0	0.422607421875	0.5869140625	0	lower	amplitud.ttf
1814413	WORD	wordpools/wasnorm_wordpool.txt	LTP095	ltpFR	7	8	0	COBBLER	335	n/a	n/a	1	n/a	0	0	0	0.422607421875	0.5869140625	0	lower	amplitud.ttf
1818367	WORD	wordpools/wasnorm_wordpool.txt	LTP095	ltpFR	7	8	0	RASPBERRY	1168	n/a	n/a	0	n/a	0	0	0	0.422607421875	0.5869140625	0	lower	amplitud.ttf
1822528	WORD	wordpools/wasnorm_wordpool.txt	LTP095	ltpFR	7	8	0	PUDDLE	1140	n/a	n/a	1	n/a	0	0	0	0.422607421875	0.5869140625	0	lower	amplitud.ttf
1826565	WORD	wordpools/wasnorm_wordpool.txt	LTP095	ltpFR	7	8	0	CUCUMBER	421	n/a	n/a	1	n/a	0	0	0	0.422607421875	0.5869140625	0	lower	amplitud.ttf
1832426	REC_START	n/a	LTP095	ltpFR	7	8	n/a	n/a	n/a	n/a	n/a	n/a	n/a	0	0	0	n/a	n/a	n/a	n/a	n/a
1838013	REC_WORD	wordpools/wasnorm_wordpool.txt	LTP095	ltpFR	7	8	0	CUCUMBER	421	n/a	n/a	1	n/a	0	0	0	n/a	n/a	n/a	n/a	n/a
1839205	REC_WORD	wordpools/wasnorm_wordpool.txt	LTP095	ltpFR	7	8	0	RASPBERRY	1168	n/a	n/a	0	n/a	0	0	0	n/a	n/a	n/a	n/a	n/a
1840205	REC_WORD_VV	wordpools/wasnorm_wordpool.txt	LTP095	ltpFR	7	8	n/a	<>	-1	n/a	n/a	n/a	n/a	0	0	0	n/a	n/a	n/a	n/a	n/a
1840657	REC_WORD	wordpools/wasnorm_wordpool.txt	LTP095	ltpFR	7	8	0	CONE	363	n/a	n/a	0	n/a	0	0	0	n/a	n/a	n/a	n/a	n/a
1844588	REC_WORD	wordpools/wasnorm_wordpool.txt	LTP095	ltpFR	7	8	0	SALESMAN	1225	n/a	n/a	1	n/a	0	0	0	n/a	n/a	n/a	n/a	n/a
1845588	REC_WORD_VV	wordpools/wasnorm_wordpool.txt	LTP095	ltpFR	7	8	n/a	<>	-1	n/a	n/a	n/a	n/a	0	0	0	n/a	n/a	n/a	n/a	n/a
1845875	REC_WORD	wordpools/wasnorm_wordpool.txt	LTP095	ltpFR	7	8	0	COBBLER	335	n/a	n/a	1	n/a	0	0	0	n/a	n/a	n/a	n/a	n/a
1848020	REC_WORD	wordpools/wasnorm_wordpool.txt	LTP095	ltpFR	7	8	0	BARTENDER	92	n/a	n/a	1	n/a	0	0	0	n/a	n/a	n/a	n/a	n/a
1849020	REC_WORD_VV	wordpools/wasnorm_wordpool.txt	LTP095	ltpFR	7	8	n/a	<>	-1	n/a	n/a	n/a	n/a	0	0	0	n/a	n/a	n/a	n/a	n/a
1849791	REC_WORD	wordpools/wasnorm_wordpool.txt	LTP095	ltpFR	7	8	0	EUROPE	541	n/a	n/a	1	n/a	0	0	0	n/a	n/a	n/a	n/a	n/a
1880147	REC_WORD	wordpools/wasnorm_wordpool.txt	LTP095	ltpFR	7	8	0	WALL	1582	n/a	n/a	1	n/a	0	0	0	n/a	n/a	n/a	n/a	n/a
1909812	START	n/a	LTP095	ltpFR	7	n/a	n/a	n/a	n/a	n/a	n/a	n/a	n/a	n/a	n/a	n/a	n/a	n/a	n/a	n/a	n/a
1911317	PROB	n/a	LTP095	ltpFR	7	n/a	n/a	n/a	n/a	n/a	n/a	n/a	18	9	1	8	n/a	n/a	n/a	n/a	n/a
1913315	PROB	n/a	LTP095	ltpFR	7	n/a	n/a	n/a	n/a	n/a	n/a	n/a	10	3	2	5	n/a	n/a	n/a	n/a	n/a
1915737	PROB	n/a	LTP095	ltpFR	7	n/a	n/a	n/a	n/a	n/a	n/a	n/a	20	7	6	7	n/a	n/a	n/a	n/a	n/a
1917919	PROB	n/a	LTP095	ltpFR	7	n/a	n/a	n/a	n/a	n/a	n/a	n/a	18	6	2	9	n/a	n/a	n/a	n/a	n/a
1920290	PROB	n/a	LTP095	ltpFR	7	n/a	n/a	n/a	n/a	n/a	n/a	n/a	8	1	5	2	n/a	n/a	n/a	n/a	n/a
1923519	PROB	n/a	LTP095	ltpFR	7	n/a	n/a	n/a	n/a	n/a	n/a	n/a	18	9	5	4	n/a	n/a	n/a	n/a	n/a
1925557	STOP	n/a	LTP095	ltpFR	7	n/a	n/a	n/a	n/a	n/a	n/a	n/a	n/a	n/a	n/a	n/a	n/a	n/a	n/a	n/a	n/a
1927016	WORD	wordpools/wasnorm_wordpool.txt	LTP095	ltpFR	7	9	1	MOOSE	915	n/a	n/a	1	n/a	0	0	0	0.57763671875	0.412841796875	1	upper	zerothre.ttf
1930022	START	n/a	LTP095	ltpFR	7	n/a	n/a	n/a	n/a	n/a	n/a	n/a	n/a	n/a	n/a	n/a	n/a	n/a	n/a	n/a	n/a
1931095	PROB	n/a	LTP095	ltpFR	7	n/a	n/a	n/a	n/a	n/a	n/a	n/a	9	7	1	1	n/a	n/a	n/a	n/a	n/a
1933192	PROB	n/a	LTP095	ltpFR	7	n/a	n/a	n/a	n/a	n/a	n/a	n/a	24	7	8	9	n/a	n/a	n/a	n/a	n/a
1937245	PROB	n/a	LTP095	ltpFR	7	n/a	n/a	n/a	n/a	n/a	n/a	n/a	14	1	9	3	n/a	n/a	n/a	n/a	n/a
1940867	PROB	n/a	LTP095	ltpFR	7	n/a	n/a	n/a	n/a	n/a	n/a	n/a	14	4	3	7	n/a	n/a	n/a	n/a	n/a
1942381	PROB	n/a	LTP095	ltpFR	7	n/a	n/a	n/a	n/a	n/a	n/a	n/a	12	4	2	6	n/a	n/a	n/a	n/a	n/a
1945213	STOP	n/a	LTP095	ltpFR	7	n/a	n/a	n/a	n/a	n/a	n/a	n/a	n/a	n/a	n/a	n/a	n/a	n/a	n/a	n/a	n/a
1947076	WORD	wordpools/wasnorm_wordpool.txt	LTP095	ltpFR	7	9	1	ANTELOPE	27	n/a	n/a	1	n/a	0	0	0	0.57763671875	0.412841796875	1	upper	zerothre.ttf
1950082	START	n/a	LTP095	ltpFR	7	n/a	n/a	n/a	n/a	n/a	n/a	n/a	n/a	n/a	n/a	n/a	n/a	n/a	n/a	n/a	n/a
1950889	PROB	n/a	LTP095	ltpFR	7	n/a	n/a	n/a	n/a	n/a	n/a	n/a	13	5	1	7	n/a	n/a	n/a	n/a	n/a
1953543	PROB	n/a	LTP095	ltpFR	7	n/a	n/a	n/a	n/a	n/a	n/a	n/a	20	7	6	7	n/a	n/a	n/a	n/a	n/a
1955482	PROB	n/a	LTP095	ltpFR	7	n/a	n/a	n/a	n/a	n/a	n/a	n/a	21	8	9	7	n/a	n/a	n/a	n/a	n/a
1958470	PROB	n/a	LTP095	ltpFR	7	n/a	n/a	n/a	n/a	n/a	n/a	n/a	13	5	3	5	n/a	n/a	n/a	n/a	n/a
1961625	PROB	n/a	LTP095	ltpFR	7	n/a	n/a	n/a	n/a	n/a	n/a	n/a	10	2	5	3	n/a	n/a	n/a	n/a	n/a
1963598	PROB	n/a	LTP095	ltpFR	7	n/a	n/a	n/a	n/a	n/a	n/a	n/a	18	3	9	6	n/a	n/a	n/a	n/a	n/a
1965982	STOP	n/a	LTP095	ltpFR	7	n/a	n/a	n/a	n/a	n/a	n/a	n/a	n/a	n/a	n/a	n/a	n/a	n/a	n/a	n/a	n/a
1966995	WORD	wordpools/wasnorm_wordpool.txt	LTP095	ltpFR	7	9	1	TRUMPET	1513	n/a	n/a	0	n/a	0	0	0	0.57763671875	0.412841796875	1	upper	zerothre.ttf
1970000	START	n/a	LTP095	ltpFR	7	n/a	n/a	n/a	n/a	n/a	n/a	n/a	n/a	n/a	n/a	n/a	n/a	n/a	n/a	n/a	n/a
1970832	PROB	n/a	LTP095	ltpFR	7	n/a	n/a	n/a	n/a	n/a	n/a	n/a	12	7	3	2	n/a	n/a	n/a	n/a	n/a
1972463	PROB	n/a	LTP095	ltpFR	7	n/a	n/a	n/a	n/a	n/a	n/a	n/a	12	3	3	6	n/a	n/a	n/a	n/a	n/a
1974427	PROB	n/a	LTP095	ltpFR	7	n/a	n/a	n/a	n/a	n/a	n/a	n/a	5	1	1	3	n/a	n/a	n/a	n/a	n/a
1975826	PROB	n/a	LTP095	ltpFR	7	n/a	n/a	n/a	n/a	n/a	n/a	n/a	24	9	6	9	n/a	n/a	n/a	n/a	n/a
1980188	PROB	n/a	LTP095	ltpFR	7	n/a	n/a	n/a	n/a	n/a	n/a	n/a	17	4	4	9	n/a	n/a	n/a	n/a	n/a
1985999	STOP	n/a	LTP095	ltpFR	7	n/a	n/a	n/a	n/a	n/a	n/a	n/a	n/a	n/a	n/a	n/a	n/a	n/a	n/a	n/a	n/a
1986913	WORD	wordpools/wasnorm_wordpool.txt	LTP095	ltpFR	7	9	1	BASKET	95	n/a	n/a	0	n/a	0	0	0	0.57763671875	0.412841796875	1	upper	zerothre.ttf
1989919	START	n/a	LTP095	ltpFR	7	n/a	n/a	n/a	n/a	n/a	n/a	n/a	n/a	n/a	n/a	n/a	n/a	n/a	n/a	n/a	n/a
1990934	PROB	n/a	LTP095	ltpFR	7	n/a	n/a	n/a	n/a	n/a	n/a	n/a	17	6	8	3	n/a	n/a	n/a	n/a	n/a
1993313	PROB	n/a	LTP095	ltpFR	7	n/a	n/a	n/a	n/a	n/a	n/a	n/a	24	7	8	9	n/a	n/a	n/a	n/a	n/a
1996426	PROB	n/a	LTP095	ltpFR	7	n/a	n/a	n/a	n/a	n/a	n/a	n/a	16	5	2	9	n/a	n/a	n/a	n/a	n/a
1999481	PROB	n/a	LTP095	ltpFR	7	n/a	n/a	n/a	n/a	n/a	n/a	n/a	14	4	3	7	n/a	n/a	n/a	n/a	n/a
2001863	PROB	n/a	LTP095	ltpFR	7	n/a	n/a	n/a	n/a	n/a	n/a	n/a	20	9	7	4	n/a	n/a	n/a	n/a	n/a
2005789	STOP	n/a	LTP095	ltpFR	7	n/a	n/a	n/a	n/a	n/a	n/a	n/a	n/a	n/a	n/a	n/a	n/a	n/a	n/a	n/a	n/a
2006815	WORD	wordpools/wasnorm_wordpool.txt	LTP095	ltpFR	7	9	1	DAUGHTER	442	n/a	n/a	n/a	n/a	0	0	0	0.57763671875	0.412841796875	1	upper	zerothre.ttf
2009837	SLOW_MSG	n/a	LTP095	ltpFR	7	9	n/a	n/a	n/a	n/a	n/a	n/a	n/a	0	0	0	n/a	n/a	n/a	n/a	n/a
2011351	START	n/a	LTP095	ltpFR	7	n/a	n/a	n/a	n/a	n/a	n/a	n/a	n/a	n/a	n/a	n/a	n/a	n/a	n/a	n/a	n/a
2012491	PROB	n/a	LTP095	ltpFR	7	n/a	n/a	n/a	n/a	n/a	n/a	n/a	21	5	7	9	n/a	n/a	n/a	n/a	n/a
2015229	PROB	n/a	LTP095	ltpFR	7	n/a	n/a	n/a	n/a	n/a	n/a	n/a	16	2	5	9	n/a	n/a	n/a	n/a	n/a
2018734	PROB	n/a	LTP095	ltpFR	7	n/a	n/a	n/a	n/a	n/a	n/a	n/a	13	8	3	2	n/a	n/a	n/a	n/a	n/a
2022321	PROB	n/a	LTP095	ltpFR	7	n/a	n/a	n/a	n/a	n/a	n/a	n/a	13	6	4	3	n/a	n/a	n/a	n/a	n/a
2024012	PROB	n/a	LTP095	ltpFR	7	n/a	n/a	n/a	n/a	n/a	n/a	n/a	14	6	1	7	n/a	n/a	n/a	n/a	n/a
2025910	STOP	n/a	LTP095	ltpFR	7	n/a	n/a	n/a	n/a	n/a	n/a	n/a	n/a	n/a	n/a	n/a	n/a	n/a	n/a	n/a	n/a
2028481	WORD	wordpools/wasnorm_wordpool.txt	LTP095	ltpFR	7	9	1	BROTHER	179	n/a	n/a	1	n/a	0	0	0	0.57763671875	0.412841796875	1	upper	zerothre.ttf
2031486	START	n/a	LTP095	ltpFR	7	n/a	n/a	n/a	n/a	n/a	n/a	n/a	n/a	n/a	n/a	n/a	n/a	n/a	n/a	n/a	n/a
2032385	PROB	n/a	LTP095	ltpFR	7	n/a	n/a	n/a	n/a	n/a	n/a	n/a	18	7	2	9	n/a	n/a	n/a	n/a	n/a
2035506	PROB	n/a	LTP095	ltpFR	7	n/a	n/a	n/a	n/a	n/a	n/a	n/a	21	7	7	7	n/a	n/a	n/a	n/a	n/a
2036864	PROB	n/a	LTP095	ltpFR	7	n/a	n/a	n/a	n/a	n/a	n/a	n/a	19	8	2	9	n/a	n/a	n/a	n/a	n/a
2038945	PROB	n/a	LTP095	ltpFR	7	n/a	n/a	n/a	n/a	n/a	n/a	n/a	13	4	3	6	n/a	n/a	n/a	n/a	n/a
2041224	PROB	n/a	LTP095	ltpFR	7	n/a	n/a	n/a	n/a	n/a	n/a	n/a	23	6	9	8	n/a	n/a	n/a	n/a	n/a
2047486	STOP	n/a	LTP095	ltpFR	7	n/a	n/a	n/a	n/a	n/a	n/a	n/a	n/a	n/a	n/a	n/a	n/a	n/a	n/a	n/a	n/a
2048624	WORD	wordpools/wasnorm_wordpool.txt	LTP095	ltpFR	7	9	1	KEG	770	n/a	n/a	0	n/a	0	0	0	0.57763671875	0.412841796875	1	upper	zerothre.ttf
2051629	START	n/a	LTP095	ltpFR	7	n/a	n/a	n/a	n/a	n/a	n/a	n/a	n/a	n/a	n/a	n/a	n/a	n/a	n/a	n/a	n/a
2052711	PROB	n/a	LTP095	ltpFR	7	n/a	n/a	n/a	n/a	n/a	n/a	n/a	5	1	4	3	n/a	n/a	n/a	n/a	n/a
2054784	PROB	n/a	LTP095	ltpFR	7	n/a	n/a	n/a	n/a	n/a	n/a	n/a	22	8	8	6	n/a	n/a	n/a	n/a	n/a
2059436	PROB	n/a	LTP095	ltpFR	7	n/a	n/a	n/a	n/a	n/a	n/a	n/a	15	2	5	8	n/a	n/a	n/a	n/a	n/a
2062143	PROB	n/a	LTP095	ltpFR	7	n/a	n/a	n/a	n/a	n/a	n/a	n/a	23	5	9	9	n/a	n/a	n/a	n/a	n/a
2065529	PROB	n/a	LTP095	ltpFR	7	n/a	n/a	n/a	n/a	n/a	n/a	n/a	17	6	4	7	n/a	n/a	n/a	n/a	n/a
2067541	STOP	n/a	LTP095	ltpFR	7	n/a	n/a	n/a	n/a	n/a	n/a	n/a	n/a	n/a	n/a	n/a	n/a	n/a	n/a	n/a	n/a
2068584	WORD	wordpools/wasnorm_wordpool.txt	LTP095	ltpFR	7	9	1	CHICKEN	297	n/a	n/a	1	n/a	0	0	0	0.57763671875	0.412841796875	1	upper	zerothre.ttf
2071589	START	n/a	LTP095	ltpFR	7	n/a	n/a	n/a	n/a	n/a	n/a	n/a	n/a	n/a	n/a	n/a	n/a	n/a	n/a	n/a	n/a
2072613	PROB	n/a	LTP095	ltpFR	7	n/a	n/a	n/a	n/a	n/a	n/a	n/a	20	6	7	7	n/a	n/a	n/a	n/a	n/a
2074961	PROB	n/a	LTP095	ltpFR	7	n/a	n/a	n/a	n/a	n/a	n/a	n/a	11	1	1	9	n/a	n/a	n/a	n/a	n/a
2077109	PROB	n/a	LTP095	ltpFR	7	n/a	n/a	n/a	n/a	n/a	n/a	n/a	10	4	1	2	n/a	n/a	n/a	n/a	n/a
2079530	PROB	n/a	LTP095	ltpFR	7	n/a	n/a	n/a	n/a	n/a	n/a	n/a	9	7	1	1	n/a	n/a	n/a	n/a	n/a
2083550	PROB	n/a	LTP095	ltpFR	7	n/a	n/a	n/a	n/a	n/a	n/a	n/a	4	1	2	1	n/a	n/a	n/a	n/a	n/a
2085074	PROB	n/a	LTP095	ltpFR	7	n/a	n/a	n/a	n/a	n/a	n/a	n/a	9	4	1	4	n/a	n/a	n/a	n/a	n/a
2086773	STOP	n/a	LTP095	ltpFR	7	n/a	n/a	n/a	n/a	n/a	n/a	n/a	n/a	n/a	n/a	n/a	n/a	n/a	n/a	n/a	n/a
2088744	WORD	wordpools/wasnorm_wordpool.txt	LTP095	ltpFR	7	9	1	KNOT	788	n/a	n/a	0	n/a	0	0	0	0.57763671875	0.412841796875	1	upper	zerothre.ttf
2091749	START	n/a	LTP095	ltpFR	7	n/a	n/a	n/a	n/a	n/a	n/a	n/a	n/a	n/a	n/a	n/a	n/a	n/a	n/a	n/a	n/a
2092764	PROB	n/a	LTP095	ltpFR	7	n/a	n/a	n/a	n/a	n/a	n/a	n/a	17	7	6	4	n/a	n/a	n/a	n/a	n/a
2094546	PROB	n/a	LTP095	ltpFR	7	n/a	n/a	n/a	n/a	n/a	n/a	n/a	9	1	4	4	n/a	n/a	n/a	n/a	n/a
2096186	PROB	n/a	LTP095	ltpFR	7	n/a	n/a	n/a	n/a	n/a	n/a	n/a	24	6	9	9	n/a	n/a	n/a	n/a	n/a
2099490	PROB	n/a	LTP095	ltpFR	7	n/a	n/a	n/a	n/a	n/a	n/a	n/a	18	8	7	3	n/a	n/a	n/a	n/a	n/a
2101238	PROB	n/a	LTP095	ltpFR	7	n/a	n/a	n/a	n/a	n/a	n/a	n/a	13	3	6	4	n/a	n/a	n/a	n/a	n/a
2102728	PROB	n/a	LTP095	ltpFR	7	n/a	n/a	n/a	n/a	n/a	n/a	n/a	11	6	1	4	n/a	n/a	n/a	n/a	n/a
2104534	PROB	n/a	LTP095	ltpFR	7	n/a	n/a	n/a	n/a	n/a	n/a	n/a	18	3	7	8	n/a	n/a	n/a	n/a	n/a
2107748	STOP	n/a	LTP095	ltpFR	7	n/a	n/a	n/a	n/a	n/a	n/a	n/a	n/a	n/a	n/a	n/a	n/a	n/a	n/a	n/a	n/a
2108754	WORD	wordpools/wasnorm_wordpool.txt	LTP095	ltpFR	7	9	1	FUNGUS	614	n/a	n/a	0	n/a	0	0	0	0.57763671875	0.412841796875	1	upper	zerothre.ttf
2111759	START	n/a	LTP095	ltpFR	7	n/a	n/a	n/a	n/a	n/a	n/a	n/a	n/a	n/a	n/a	n/a	n/a	n/a	n/a	n/a	n/a
2112950	PROB	n/a	LTP095	ltpFR	7	n/a	n/a	n/a	n/a	n/a	n/a	n/a	17	8	8	1	n/a	n/a	n/a	n/a	n/a
2114865	PROB	n/a	LTP095	ltpFR	7	n/a	n/a	n/a	n/a	n/a	n/a	n/a	23	7	9	7	n/a	n/a	n/a	n/a	n/a
2117619	PROB	n/a	LTP095	ltpFR	7	n/a	n/a	n/a	n/a	n/a	n/a	n/a	14	3	8	3	n/a	n/a	n/a	n/a	n/a
2119483	PROB	n/a	LTP095	ltpFR	7	n/a	n/a	n/a	n/a	n/a	n/a	n/a	12	6	2	4	n/a	n/a	n/a	n/a	n/a
2121074	PROB	n/a	LTP095	ltpFR	7	n/a	n/a	n/a	n/a	n/a	n/a	n/a	15	8	4	3	n/a	n/a	n/a	n/a	n/a
2123404	PROB	n/a	LTP095	ltpFR	7	n/a	n/a	n/a	n/a	n/a	n/a	n/a	14	4	4	6	n/a	n/a	n/a	n/a	n/a
2124736	PROB	n/a	LTP095	ltpFR	7	n/a	n/a	n/a	n/a	n/a	n/a	n/a	9	6	2	1	n/a	n/a	n/a	n/a	n/a
2127758	STOP	n/a	LTP095	ltpFR	7	n/a	n/a	n/a	n/a	n/a	n/a	n/a	n/a	n/a	n/a	n/a	n/a	n/a	n/a	n/a	n/a
2128589	WORD	wordpools/wasnorm_wordpool.txt	LTP095	ltpFR	7	9	1	LOUNGE	845	n/a	n/a	1	n/a	0	0	0	0.57763671875	0.412841796875	1	upper	zerothre.ttf
2131595	START	n/a	LTP095	ltpFR	7	n/a	n/a	n/a	n/a	n/a	n/a	n/a	n/a	n/a	n/a	n/a	n/a	n/a	n/a	n/a	n/a
2132784	PROB	n/a	LTP095	ltpFR	7	n/a	n/a	n/a	n/a	n/a	n/a	n/a	13	6	6	1	n/a	n/a	n/a	n/a	n/a
2134266	PROB	n/a	LTP095	ltpFR	7	n/a	n/a	n/a	n/a	n/a	n/a	n/a	14	8	2	4	n/a	n/a	n/a	n/a	n/a
2135815	PROB	n/a	LTP095	ltpFR	7	n/a	n/a	n/a	n/a	n/a	n/a	n/a	22	9	6	7	n/a	n/a	n/a	n/a	n/a
2139095	PROB	n/a	LTP095	ltpFR	7	n/a	n/a	n/a	n/a	n/a	n/a	n/a	15	6	2	7	n/a	n/a	n/a	n/a	n/a
2141142	PROB	n/a	LTP095	ltpFR	7	n/a	n/a	n/a	n/a	n/a	n/a	n/a	5	2	1	2	n/a	n/a	n/a	n/a	n/a
2142899	PROB	n/a	LTP095	ltpFR	7	n/a	n/a	n/a	n/a	n/a	n/a	n/a	18	7	5	6	n/a	n/a	n/a	n/a	n/a
2144855	PROB	n/a	LTP095	ltpFR	7	n/a	n/a	n/a	n/a	n/a	n/a	n/a	19	7	8	4	n/a	n/a	n/a	n/a	n/a
2146653	STOP	n/a	LTP095	ltpFR	7	n/a	n/a	n/a	n/a	n/a	n/a	n/a	n/a	n/a	n/a	n/a	n/a	n/a	n/a	n/a	n/a
2148791	WORD	wordpools/wasnorm_wordpool.txt	LTP095	ltpFR	7	9	1	MOUTH	926	n/a	n/a	1	n/a	0	0	0	0.57763671875	0.412841796875	1	upper	zerothre.ttf
2151796	START	n/a	LTP095	ltpFR	7	n/a	n/a	n/a	n/a	n/a	n/a	n/a	n/a	n/a	n/a	n/a	n/a	n/a	n/a	n/a	n/a
2152845	PROB	n/a	LTP095	ltpFR	7	n/a	n/a	n/a	n/a	n/a	n/a	n/a	14	1	9	4	n/a	n/a	n/a	n/a	n/a
2155475	PROB	n/a	LTP095	ltpFR	7	n/a	n/a	n/a	n/a	n/a	n/a	n/a	18	5	7	6	n/a	n/a	n/a	n/a	n/a
2157664	PROB	n/a	LTP095	ltpFR	7	n/a	n/a	n/a	n/a	n/a	n/a	n/a	11	3	4	4	n/a	n/a	n/a	n/a	n/a
2161161	PROB	n/a	LTP095	ltpFR	7	n/a	n/a	n/a	n/a	n/a	n/a	n/a	16	3	8	5	n/a	n/a	n/a	n/a	n/a
2163200	PROB	n/a	LTP095	ltpFR	7	n/a	n/a	n/a	n/a	n/a	n/a	n/a	19	7	8	5	n/a	n/a	n/a	n/a	n/a
2167796	STOP	n/a	LTP095	ltpFR	7	n/a	n/a	n/a	n/a	n/a	n/a	n/a	n/a	n/a	n/a	n/a	n/a	n/a	n/a	n/a	n/a
2168852	WORD	wordpools/wasnorm_wordpool.txt	LTP095	ltpFR	7	9	1	WART	1590	n/a	n/a	0	n/a	0	0	0	0.57763671875	0.412841796875	1	upper	zerothre.ttf
2171857	START	n/a	LTP095	ltpFR	7	n/a	n/a	n/a	n/a	n/a	n/a	n/a	n/a	n/a	n/a	n/a	n/a	n/a	n/a	n/a	n/a
2172780	PROB	n/a	LTP095	ltpFR	7	n/a	n/a	n/a	n/a	n/a	n/a	n/a	17	8	8	1	n/a	n/a	n/a	n/a	n/a
2174644	PROB	n/a	LTP095	ltpFR	7	n/a	n/a	n/a	n/a	n/a	n/a	n/a	20	6	6	8	n/a	n/a	n/a	n/a	n/a
2177574	PROB	n/a	LTP095	ltpFR	7	n/a	n/a	n/a	n/a	n/a	n/a	n/a	14	9	2	3	n/a	n/a	n/a	n/a	n/a
2179231	PROB	n/a	LTP095	ltpFR	7	n/a	n/a	n/a	n/a	n/a	n/a	n/a	15	5	1	9	n/a	n/a	n/a	n/a	n/a
2180737	PROB	n/a	LTP095	ltpFR	7	n/a	n/a	n/a	n/a	n/a	n/a	n/a	15	1	9	5	n/a	n/a	n/a	n/a	n/a
2182510	PROB	n/a	LTP095	ltpFR	7	n/a	n/a	n/a	n/a	n/a	n/a	n/a	7	1	2	4	n/a	n/a	n/a	n/a	n/a
2184084	PROB	n/a	LTP095	ltpFR	7	n/a	n/a	n/a	n/a	n/a	n/a	n/a	14	5	7	2	n/a	n/a	n/a	n/a	n/a
2185598	PROB	n/a	LTP095	ltpFR	7	n/a	n/a	n/a	n/a	n/a	n/a	n/a	18	8	5	5	n/a	n/a	n/a	n/a	n/a
2187006	STOP	n/a	LTP095	ltpFR	7	n/a	n/a	n/a	n/a	n/a	n/a	n/a	n/a	n/a	n/a	n/a	n/a	n/a	n/a	n/a	n/a
2188728	WORD	wordpools/wasnorm_wordpool.txt	LTP095	ltpFR	7	9	1	NOOSE	956	n/a	n/a	0	n/a	0	0	0	0.57763671875	0.412841796875	1	upper	zerothre.ttf
2191733	START	n/a	LTP095	ltpFR	7	n/a	n/a	n/a	n/a	n/a	n/a	n/a	n/a	n/a	n/a	n/a	n/a	n/a	n/a	n/a	n/a
2192807	PROB	n/a	LTP095	ltpFR	7	n/a	n/a	n/a	n/a	n/a	n/a	n/a	17	8	5	4	n/a	n/a	n/a	n/a	n/a
2194863	PROB	n/a	LTP095	ltpFR	7	n/a	n/a	n/a	n/a	n/a	n/a	n/a	18	5	9	4	n/a	n/a	n/a	n/a	n/a
2197434	PROB	n/a	LTP095	ltpFR	7	n/a	n/a	n/a	n/a	n/a	n/a	n/a	17	2	6	9	n/a	n/a	n/a	n/a	n/a
2199841	PROB	n/a	LTP095	ltpFR	7	n/a	n/a	n/a	n/a	n/a	n/a	n/a	14	4	9	1	n/a	n/a	n/a	n/a	n/a
2201779	PROB	n/a	LTP095	ltpFR	7	n/a	n/a	n/a	n/a	n/a	n/a	n/a	18	6	5	7	n/a	n/a	n/a	n/a	n/a
2204418	PROB	n/a	LTP095	ltpFR	7	n/a	n/a	n/a	n/a	n/a	n/a	n/a	18	5	4	9	n/a	n/a	n/a	n/a	n/a
2207493	STOP	n/a	LTP095	ltpFR	7	n/a	n/a	n/a	n/a	n/a	n/a	n/a	n/a	n/a	n/a	n/a	n/a	n/a	n/a	n/a	n/a
2208763	WORD	wordpools/wasnorm_wordpool.txt	LTP095	ltpFR	7	9	1	BLACKBERRY	132	n/a	n/a	0	n/a	0	0	0	0.57763671875	0.412841796875	1	upper	zerothre.ttf
2211768	START	n/a	LTP095	ltpFR	7	n/a	n/a	n/a	n/a	n/a	n/a	n/a	n/a	n/a	n/a	n/a	n/a	n/a	n/a	n/a	n/a
2212600	PROB	n/a	LTP095	ltpFR	7	n/a	n/a	n/a	n/a	n/a	n/a	n/a	13	6	1	6	n/a	n/a	n/a	n/a	n/a
2214815	PROB	n/a	LTP095	ltpFR	7	n/a	n/a	n/a	n/a	n/a	n/a	n/a	9	6	2	1	n/a	n/a	n/a	n/a	n/a
2216197	PROB	n/a	LTP095	ltpFR	7	n/a	n/a	n/a	n/a	n/a	n/a	n/a	22	5	9	8	n/a	n/a	n/a	n/a	n/a
2218360	PROB	n/a	LTP095	ltpFR	7	n/a	n/a	n/a	n/a	n/a	n/a	n/a	13	1	4	8	n/a	n/a	n/a	n/a	n/a
2219750	PROB	n/a	LTP095	ltpFR	7	n/a	n/a	n/a	n/a	n/a	n/a	n/a	13	7	4	2	n/a	n/a	n/a	n/a	n/a
2221373	PROB	n/a	LTP095	ltpFR	7	n/a	n/a	n/a	n/a	n/a	n/a	n/a	15	4	9	2	n/a	n/a	n/a	n/a	n/a
2223106	PROB	n/a	LTP095	ltpFR	7	n/a	n/a	n/a	n/a	n/a	n/a	n/a	11	3	1	7	n/a	n/a	n/a	n/a	n/a
2224311	PROB	n/a	LTP095	ltpFR	7	n/a	n/a	n/a	n/a	n/a	n/a	n/a	13	6	5	4	n/a	n/a	n/a	n/a	n/a
2226453	STOP	n/a	LTP095	ltpFR	7	n/a	n/a	n/a	n/a	n/a	n/a	n/a	n/a	n/a	n/a	n/a	n/a	n/a	n/a	n/a	n/a
2228940	WORD	wordpools/wasnorm_wordpool.txt	LTP095	ltpFR	7	9	1	VINE	1568	n/a	n/a	1	n/a	0	0	0	0.57763671875	0.412841796875	1	upper	zerothre.ttf
2231946	START	n/a	LTP095	ltpFR	7	n/a	n/a	n/a	n/a	n/a	n/a	n/a	n/a	n/a	n/a	n/a	n/a	n/a	n/a	n/a	n/a
2232819	PROB	n/a	LTP095	ltpFR	7	n/a	n/a	n/a	n/a	n/a	n/a	n/a	11	3	4	4	n/a	n/a	n/a	n/a	n/a
2234925	PROB	n/a	LTP095	ltpFR	7	n/a	n/a	n/a	n/a	n/a	n/a	n/a	17	9	5	3	n/a	n/a	n/a	n/a	n/a
2237822	PROB	n/a	LTP095	ltpFR	7	n/a	n/a	n/a	n/a	n/a	n/a	n/a	15	4	2	9	n/a	n/a	n/a	n/a	n/a
2240301	PROB	n/a	LTP095	ltpFR	7	n/a	n/a	n/a	n/a	n/a	n/a	n/a	16	9	3	4	n/a	n/a	n/a	n/a	n/a
2243182	PROB	n/a	LTP095	ltpFR	7	n/a	n/a	n/a	n/a	n/a	n/a	n/a	20	3	8	9	n/a	n/a	n/a	n/a	n/a
2244830	PROB	n/a	LTP095	ltpFR	7	n/a	n/a	n/a	n/a	n/a	n/a	n/a	18	7	6	5	n/a	n/a	n/a	n/a	n/a
2247309	STOP	n/a	LTP095	ltpFR	7	n/a	n/a	n/a	n/a	n/a	n/a	n/a	n/a	n/a	n/a	n/a	n/a	n/a	n/a	n/a	n/a
2249850	REC_START	n/a	LTP095	ltpFR	7	9	n/a	n/a	n/a	n/a	n/a	n/a	n/a	0	0	0	n/a	n/a	n/a	n/a	n/a
2255347	REC_WORD	wordpools/wasnorm_wordpool.txt	LTP095	ltpFR	7	9	1	WART	1590	n/a	n/a	0	n/a	0	0	0	n/a	n/a	n/a	n/a	n/a
2257103	REC_WORD	wordpools/wasnorm_wordpool.txt	LTP095	ltpFR	7	9	1	FUNGUS	614	n/a	n/a	0	n/a	0	0	0	n/a	n/a	n/a	n/a	n/a
2258103	REC_WORD_VV	wordpools/wasnorm_wordpool.txt	LTP095	ltpFR	7	9	n/a	<>	-1	n/a	n/a	n/a	n/a	0	0	0	n/a	n/a	n/a	n/a	n/a
2260885	REC_WORD	wordpools/wasnorm_wordpool.txt	LTP095	ltpFR	7	9	1	VINE	1568	n/a	n/a	1	n/a	0	0	0	n/a	n/a	n/a	n/a	n/a
2266552	REC_WORD	wordpools/wasnorm_wordpool.txt	LTP095	ltpFR	7	9	1	MOUTH	926	n/a	n/a	1	n/a	0	0	0	n/a	n/a	n/a	n/a	n/a
2267552	REC_WORD_VV	wordpools/wasnorm_wordpool.txt	LTP095	ltpFR	7	9	n/a	<>	-1	n/a	n/a	n/a	n/a	0	0	0	n/a	n/a	n/a	n/a	n/a
2335241	WORD	wordpools/wasnorm_wordpool.txt	LTP095	ltpFR	7	10	0	DRESS	495	n/a	n/a	1	n/a	0	0	0	0.422607421875	0.5869140625	0	lower	amplitud.ttf
2339154	WORD	wordpools/wasnorm_wordpool.txt	LTP095	ltpFR	7	10	0	COSTUME	383	n/a	n/a	1	n/a	0	0	0	0.422607421875	0.5869140625	0	lower	amplitud.ttf
2343191	WORD	wordpools/wasnorm_wordpool.txt	LTP095	ltpFR	7	10	0	TERMINAL	1450	n/a	n/a	1	n/a	0	0	0	0.422607421875	0.5869140625	0	lower	amplitud.ttf
2347128	WORD	wordpools/wasnorm_wordpool.txt	LTP095	ltpFR	7	10	0	AIRPORT	13	n/a	n/a	1	n/a	0	0	0	0.422607421875	0.5869140625	0	lower	amplitud.ttf
2351314	WORD	wordpools/wasnorm_wordpool.txt	LTP095	ltpFR	7	10	0	GROCERY	664	n/a	n/a	0	n/a	0	0	0	0.422607421875	0.5869140625	0	lower	amplitud.ttf
2355326	WORD	wordpools/wasnorm_wordpool.txt	LTP095	ltpFR	7	10	0	BLANKET	135	n/a	n/a	0	n/a	0	0	0	0.422607421875	0.5869140625	0	lower	amplitud.ttf
2359438	WORD	wordpools/wasnorm_wordpool.txt	LTP095	ltpFR	7	10	0	TAPE	1433	n/a	n/a	0	n/a	0	0	0	0.422607421875	0.5869140625	0	lower	amplitud.ttf
2363292	WORD	wordpools/wasnorm_wordpool.txt	LTP095	ltpFR	7	10	0	GRASS	655	n/a	n/a	0	n/a	0	0	0	0.422607421875	0.5869140625	0	lower	amplitud.ttf
2367329	WORD	wordpools/wasnorm_wordpool.txt	LTP095	ltpFR	7	10	0	BAG	69	n/a	n/a	0	n/a	0	0	0	0.422607421875	0.5869140625	0	lower	amplitud.ttf
2371324	WORD	wordpools/wasnorm_wordpool.txt	LTP095	ltpFR	7	10	0	SWEATER	1419	n/a	n/a	0	n/a	0	0	0	0.422607421875	0.5869140625	0	lower	amplitud.ttf
2375444	WORD	wordpools/wasnorm_wordpool.txt	LTP095	ltpFR	7	10	0	COW	393	n/a	n/a	1	n/a	0	0	0	0.422607421875	0.5869140625	0	lower	amplitud.ttf
2379490	WORD	wordpools/wasnorm_wordpool.txt	LTP095	ltpFR	7	10	0	PONY	1102	n/a	n/a	n/a	n/a	0	0	0	0.422607421875	0.5869140625	0	lower	amplitud.ttf
2382511	SLOW_MSG	n/a	LTP095	ltpFR	7	10	n/a	n/a	n/a	n/a	n/a	n/a	n/a	0	0	0	n/a	n/a	n/a	n/a	n/a
2384884	WORD	wordpools/wasnorm_wordpool.txt	LTP095	ltpFR	7	10	0	ROBBER	1197	n/a	n/a	1	n/a	0	0	0	0.422607421875	0.5869140625	0	lower	amplitud.ttf
2388729	WORD	wordpools/wasnorm_wordpool.txt	LTP095	ltpFR	7	10	0	BUYER	208	n/a	n/a	n/a	n/a	0	0	0	0.422607421875	0.5869140625	0	lower	amplitud.ttf
2391750	SLOW_MSG	n/a	LTP095	ltpFR	7	10	n/a	n/a	n/a	n/a	n/a	n/a	n/a	0	0	0	n/a	n/a	n/a	n/a	n/a
2394347	WORD	wordpools/wasnorm_wordpool.txt	LTP095	ltpFR	7	10	0	SKULL	1320	n/a	n/a	0	n/a	0	0	0	0.422607421875	0.5869140625	0	lower	amplitud.ttf
2398351	WORD	wordpools/wasnorm_wordpool.txt	LTP095	ltpFR	7	10	0	BAND	78	n/a	n/a	1	n/a	0	0	0	0.422607421875	0.5869140625	0	lower	amplitud.ttf
2401356	START	n/a	LTP095	ltpFR	7	n/a	n/a	n/a	n/a	n/a	n/a	n/a	n/a	n/a	n/a	n/a	n/a	n/a	n/a	n/a	n/a
2402454	PROB	n/a	LTP095	ltpFR	7	n/a	n/a	n/a	n/a	n/a	n/a	n/a	13	6	6	1	n/a	n/a	n/a	n/a	n/a
2404236	PROB	n/a	LTP095	ltpFR	7	n/a	n/a	n/a	n/a	n/a	n/a	n/a	14	3	3	8	n/a	n/a	n/a	n/a	n/a
2406875	PROB	n/a	LTP095	ltpFR	7	n/a	n/a	n/a	n/a	n/a	n/a	n/a	20	4	7	9	n/a	n/a	n/a	n/a	n/a
2408965	PROB	n/a	LTP095	ltpFR	7	n/a	n/a	n/a	n/a	n/a	n/a	n/a	16	8	6	2	n/a	n/a	n/a	n/a	n/a
2411494	PROB	n/a	LTP095	ltpFR	7	n/a	n/a	n/a	n/a	n/a	n/a	n/a	10	4	3	3	n/a	n/a	n/a	n/a	n/a
2413917	PROB	n/a	LTP095	ltpFR	7	n/a	n/a	n/a	n/a	n/a	n/a	n/a	17	9	7	1	n/a	n/a	n/a	n/a	n/a
2417355	STOP	n/a	LTP095	ltpFR	7	n/a	n/a	n/a	n/a	n/a	n/a	n/a	n/a	n/a	n/a	n/a	n/a	n/a	n/a	n/a	n/a
2419203	REC_START	n/a	LTP095	ltpFR	7	10	n/a	n/a	n/a	n/a	n/a	n/a	n/a	0	0	0	n/a	n/a	n/a	n/a	n/a
2426666	REC_WORD	wordpools/wasnorm_wordpool.txt	LTP095	ltpFR	7	10	0	ROBBER	1197	n/a	n/a	1	n/a	0	0	0	n/a	n/a	n/a	n/a	n/a
2427666	REC_WORD_VV	wordpools/wasnorm_wordpool.txt	LTP095	ltpFR	7	10	n/a	<>	-1	n/a	n/a	n/a	n/a	0	0	0	n/a	n/a	n/a	n/a	n/a
2431464	REC_WORD	wordpools/wasnorm_wordpool.txt	LTP095	ltpFR	7	10	0	SKULL	1320	n/a	n/a	0	n/a	0	0	0	n/a	n/a	n/a	n/a	n/a
2432464	REC_WORD_VV	wordpools/wasnorm_wordpool.txt	LTP095	ltpFR	7	10	n/a	<>	-1	n/a	n/a	n/a	n/a	0	0	0	n/a	n/a	n/a	n/a	n/a
2434169	REC_WORD	wordpools/wasnorm_wordpool.txt	LTP095	ltpFR	7	10	0	GRASS	655	n/a	n/a	0	n/a	0	0	0	n/a	n/a	n/a	n/a	n/a
2438808	REC_WORD	wordpools/wasnorm_wordpool.txt	LTP095	ltpFR	7	10	0	BAG	69	n/a	n/a	0	n/a	0	0	0	n/a	n/a	n/a	n/a	n/a
2442904	REC_WORD	wordpools/wasnorm_wordpool.txt	LTP095	ltpFR	7	10	0	BLANKET	135	n/a	n/a	0	n/a	0	0	0	n/a	n/a	n/a	n/a	n/a
2444525	REC_WORD	wordpools/wasnorm_wordpool.txt	LTP095	ltpFR	7	10	0	TAPE	1433	n/a	n/a	0	n/a	0	0	0	n/a	n/a	n/a	n/a	n/a
2456109	REC_WORD	wordpools/wasnorm_wordpool.txt	LTP095	ltpFR	7	10	0	AIRPORT	13	n/a	n/a	1	n/a	0	0	0	n/a	n/a	n/a	n/a	n/a
2457760	REC_WORD	wordpools/wasnorm_wordpool.txt	LTP095	ltpFR	7	10	0	TERMINAL	1450	n/a	n/a	1	n/a	0	0	0	n/a	n/a	n/a	n/a	n/a
2494807	REST_REWET	n/a	LTP095	ltpFR	7	10	n/a	n/a	n/a	n/a	n/a	n/a	n/a	0	0	0	n/a	n/a	n/a	n/a	n/a
2964003	START	n/a	LTP095	ltpFR	7	n/a	n/a	n/a	n/a	n/a	n/a	n/a	n/a	n/a	n/a	n/a	n/a	n/a	n/a	n/a	n/a
2965508	PROB	n/a	LTP095	ltpFR	7	n/a	n/a	n/a	n/a	n/a	n/a	n/a	16	6	1	9	n/a	n/a	n/a	n/a	n/a
2972002	STOP	n/a	LTP095	ltpFR	7	n/a	n/a	n/a	n/a	n/a	n/a	n/a	n/a	n/a	n/a	n/a	n/a	n/a	n/a	n/a	n/a
2972843	WORD	wordpools/wasnorm_wordpool.txt	LTP095	ltpFR	7	11	1	TORTOISE	1486	n/a	n/a	3	n/a	0	0	0	0.57763671875	0.412841796875	1	upper	zerothre.ttf
2973308	KEY_MSG	n/a	LTP095	ltpFR	7	11	n/a	n/a	n/a	n/a	n/a	n/a	n/a	0	0	0	n/a	n/a	n/a	n/a	n/a
2975848	START	n/a	LTP095	ltpFR	7	n/a	n/a	n/a	n/a	n/a	n/a	n/a	n/a	n/a	n/a	n/a	n/a	n/a	n/a	n/a	n/a
2976954	PROB	n/a	LTP095	ltpFR	7	n/a	n/a	n/a	n/a	n/a	n/a	n/a	18	2	8	8	n/a	n/a	n/a	n/a	n/a
2979185	PROB	n/a	LTP095	ltpFR	7	n/a	n/a	n/a	n/a	n/a	n/a	n/a	8	2	3	3	n/a	n/a	n/a	n/a	n/a
2981141	PROB	n/a	LTP095	ltpFR	7	n/a	n/a	n/a	n/a	n/a	n/a	n/a	6	1	3	2	n/a	n/a	n/a	n/a	n/a
2982887	STOP	n/a	LTP095	ltpFR	7	n/a	n/a	n/a	n/a	n/a	n/a	n/a	n/a	n/a	n/a	n/a	n/a	n/a	n/a	n/a	n/a
2984753	WORD	wordpools/wasnorm_wordpool.txt	LTP095	ltpFR	7	11	1	RACCOON	1153	n/a	n/a	1	n/a	0	0	0	0.57763671875	0.412841796875	1	upper	zerothre.ttf
2987758	START	n/a	LTP095	ltpFR	7	n/a	n/a	n/a	n/a	n/a	n/a	n/a	n/a	n/a	n/a	n/a	n/a	n/a	n/a	n/a	n/a
2988565	PROB	n/a	LTP095	ltpFR	7	n/a	n/a	n/a	n/a	n/a	n/a	n/a	13	5	7	1	n/a	n/a	n/a	n/a	n/a
2990638	PROB	n/a	LTP095	ltpFR	7	n/a	n/a	n/a	n/a	n/a	n/a	n/a	16	8	6	2	n/a	n/a	n/a	n/a	n/a
2992836	PROB	n/a	LTP095	ltpFR	7	n/a	n/a	n/a	n/a	n/a	n/a	n/a	12	9	2	1	n/a	n/a	n/a	n/a	n/a
2994254	STOP	n/a	LTP095	ltpFR	7	n/a	n/a	n/a	n/a	n/a	n/a	n/a	n/a	n/a	n/a	n/a	n/a	n/a	n/a	n/a	n/a
2996656	WORD	wordpools/wasnorm_wordpool.txt	LTP095	ltpFR	7	11	1	CHEF	290	n/a	n/a	1	n/a	0	0	0	0.57763671875	0.412841796875	1	upper	zerothre.ttf
2999661	START	n/a	LTP095	ltpFR	7	n/a	n/a	n/a	n/a	n/a	n/a	n/a	n/a	n/a	n/a	n/a	n/a	n/a	n/a	n/a	n/a
3000551	PROB	n/a	LTP095	ltpFR	7	n/a	n/a	n/a	n/a	n/a	n/a	n/a	8	2	4	2	n/a	n/a	n/a	n/a	n/a
3002582	PROB	n/a	LTP095	ltpFR	7	n/a	n/a	n/a	n/a	n/a	n/a	n/a	17	6	4	7	n/a	n/a	n/a	n/a	n/a
3004073	PROB	n/a	LTP095	ltpFR	7	n/a	n/a	n/a	n/a	n/a	n/a	n/a	7	3	2	2	n/a	n/a	n/a	n/a	n/a
3007661	STOP	n/a	LTP095	ltpFR	7	n/a	n/a	n/a	n/a	n/a	n/a	n/a	n/a	n/a	n/a	n/a	n/a	n/a	n/a	n/a	n/a
3008817	WORD	wordpools/wasnorm_wordpool.txt	LTP095	ltpFR	7	11	1	CEILING	265	n/a	n/a	0	n/a	0	0	0	0.57763671875	0.412841796875	1	upper	zerothre.ttf
3011823	START	n/a	LTP095	ltpFR	7	n/a	n/a	n/a	n/a	n/a	n/a	n/a	n/a	n/a	n/a	n/a	n/a	n/a	n/a	n/a	n/a
3012695	PROB	n/a	LTP095	ltpFR	7	n/a	n/a	n/a	n/a	n/a	n/a	n/a	16	9	6	1	n/a	n/a	n/a	n/a	n/a
3014819	PROB	n/a	LTP095	ltpFR	7	n/a	n/a	n/a	n/a	n/a	n/a	n/a	13	2	5	6	n/a	n/a	n/a	n/a	n/a
3017141	PROB	n/a	LTP095	ltpFR	7	n/a	n/a	n/a	n/a	n/a	n/a	n/a	12	1	2	9	n/a	n/a	n/a	n/a	n/a
3019222	STOP	n/a	LTP095	ltpFR	7	n/a	n/a	n/a	n/a	n/a	n/a	n/a	n/a	n/a	n/a	n/a	n/a	n/a	n/a	n/a	n/a
3020895	WORD	wordpools/wasnorm_wordpool.txt	LTP095	ltpFR	7	11	1	DOUGHNUT	490	n/a	n/a	0	n/a	0	0	0	0.57763671875	0.412841796875	1	upper	zerothre.ttf
3023900	START	n/a	LTP095	ltpFR	7	n/a	n/a	n/a	n/a	n/a	n/a	n/a	n/a	n/a	n/a	n/a	n/a	n/a	n/a	n/a	n/a
3024849	PROB	n/a	LTP095	ltpFR	7	n/a	n/a	n/a	n/a	n/a	n/a	n/a	23	8	8	7	n/a	n/a	n/a	n/a	n/a
3027879	PROB	n/a	LTP095	ltpFR	7	n/a	n/a	n/a	n/a	n/a	n/a	n/a	9	5	3	1	n/a	n/a	n/a	n/a	n/a
3031900	STOP	n/a	LTP095	ltpFR	7	n/a	n/a	n/a	n/a	n/a	n/a	n/a	n/a	n/a	n/a	n/a	n/a	n/a	n/a	n/a	n/a
3032839	WORD	wordpools/wasnorm_wordpool.txt	LTP095	ltpFR	7	11	1	PILL	1068	n/a	n/a	0	n/a	0	0	0	0.57763671875	0.412841796875	1	upper	zerothre.ttf
3035845	START	n/a	LTP095	ltpFR	7	n/a	n/a	n/a	n/a	n/a	n/a	n/a	n/a	n/a	n/a	n/a	n/a	n/a	n/a	n/a	n/a
3036951	PROB	n/a	LTP095	ltpFR	7	n/a	n/a	n/a	n/a	n/a	n/a	n/a	8	4	2	2	n/a	n/a	n/a	n/a	n/a
3039273	PROB	n/a	LTP095	ltpFR	7	n/a	n/a	n/a	n/a	n/a	n/a	n/a	11	1	7	3	n/a	n/a	n/a	n/a	n/a
3040938	PROB	n/a	LTP095	ltpFR	7	n/a	n/a	n/a	n/a	n/a	n/a	n/a	9	6	2	1	n/a	n/a	n/a	n/a	n/a
3042566	STOP	n/a	LTP095	ltpFR	7	n/a	n/a	n/a	n/a	n/a	n/a	n/a	n/a	n/a	n/a	n/a	n/a	n/a	n/a	n/a	n/a
3044775	WORD	wordpools/wasnorm_wordpool.txt	LTP095	ltpFR	7	11	1	TRIGGER	1507	n/a	n/a	0	n/a	0	0	0	0.57763671875	0.412841796875	1	upper	zerothre.ttf
3047780	START	n/a	LTP095	ltpFR	7	n/a	n/a	n/a	n/a	n/a	n/a	n/a	n/a	n/a	n/a	n/a	n/a	n/a	n/a	n/a	n/a
3048879	PROB	n/a	LTP095	ltpFR	7	n/a	n/a	n/a	n/a	n/a	n/a	n/a	14	2	7	5	n/a	n/a	n/a	n/a	n/a
3051909	PROB	n/a	LTP095	ltpFR	7	n/a	n/a	n/a	n/a	n/a	n/a	n/a	12	9	2	1	n/a	n/a	n/a	n/a	n/a
3053748	PROB	n/a	LTP095	ltpFR	7	n/a	n/a	n/a	n/a	n/a	n/a	n/a	12	7	2	3	n/a	n/a	n/a	n/a	n/a
3055071	STOP	n/a	LTP095	ltpFR	7	n/a	n/a	n/a	n/a	n/a	n/a	n/a	n/a	n/a	n/a	n/a	n/a	n/a	n/a	n/a	n/a
3056686	WORD	wordpools/wasnorm_wordpool.txt	LTP095	ltpFR	7	11	1	APRON	35	n/a	n/a	0	n/a	0	0	0	0.57763671875	0.412841796875	1	upper	zerothre.ttf
3059691	START	n/a	LTP095	ltpFR	7	n/a	n/a	n/a	n/a	n/a	n/a	n/a	n/a	n/a	n/a	n/a	n/a	n/a	n/a	n/a	n/a
3060623	PROB	n/a	LTP095	ltpFR	7	n/a	n/a	n/a	n/a	n/a	n/a	n/a	12	1	7	4	n/a	n/a	n/a	n/a	n/a
3062963	PROB	n/a	LTP095	ltpFR	7	n/a	n/a	n/a	n/a	n/a	n/a	n/a	14	5	8	1	n/a	n/a	n/a	n/a	n/a
3064927	PROB	n/a	LTP095	ltpFR	7	n/a	n/a	n/a	n/a	n/a	n/a	n/a	23	5	9	9	n/a	n/a	n/a	n/a	n/a
3067598	STOP	n/a	LTP095	ltpFR	7	n/a	n/a	n/a	n/a	n/a	n/a	n/a	n/a	n/a	n/a	n/a	n/a	n/a	n/a	n/a	n/a
3068713	WORD	wordpools/wasnorm_wordpool.txt	LTP095	ltpFR	7	11	1	WIRE	1616	n/a	n/a	0	n/a	0	0	0	0.57763671875	0.412841796875	1	upper	zerothre.ttf
3071727	START	n/a	LTP095	ltpFR	7	n/a	n/a	n/a	n/a	n/a	n/a	n/a	n/a	n/a	n/a	n/a	n/a	n/a	n/a	n/a	n/a
3072692	PROB	n/a	LTP095	ltpFR	7	n/a	n/a	n/a	n/a	n/a	n/a	n/a	19	9	2	8	n/a	n/a	n/a	n/a	n/a
3075057	PROB	n/a	LTP095	ltpFR	7	n/a	n/a	n/a	n/a	n/a	n/a	n/a	11	2	4	5	n/a	n/a	n/a	n/a	n/a
3076805	PROB	n/a	LTP095	ltpFR	7	n/a	n/a	n/a	n/a	n/a	n/a	n/a	12	6	2	4	n/a	n/a	n/a	n/a	n/a
3078350	STOP	n/a	LTP095	ltpFR	7	n/a	n/a	n/a	n/a	n/a	n/a	n/a	n/a	n/a	n/a	n/a	n/a	n/a	n/a	n/a	n/a
3080708	WORD	wordpools/wasnorm_wordpool.txt	LTP095	ltpFR	7	11	1	TOASTER	1472	n/a	n/a	0	n/a	0	0	0	0.57763671875	0.412841796875	1	upper	zerothre.ttf
3083713	START	n/a	LTP095	ltpFR	7	n/a	n/a	n/a	n/a	n/a	n/a	n/a	n/a	n/a	n/a	n/a	n/a	n/a	n/a	n/a	n/a
3084904	PROB	n/a	LTP095	ltpFR	7	n/a	n/a	n/a	n/a	n/a	n/a	n/a	20	7	9	4	n/a	n/a	n/a	n/a	n/a
3087334	PROB	n/a	LTP095	ltpFR	7	n/a	n/a	n/a	n/a	n/a	n/a	n/a	15	9	1	5	n/a	n/a	n/a	n/a	n/a
3089664	PROB	n/a	LTP095	ltpFR	7	n/a	n/a	n/a	n/a	n/a	n/a	n/a	5	1	3	1	n/a	n/a	n/a	n/a	n/a
3091302	STOP	n/a	LTP095	ltpFR	7	n/a	n/a	n/a	n/a	n/a	n/a	n/a	n/a	n/a	n/a	n/a	n/a	n/a	n/a	n/a	n/a
3092669	WORD	wordpools/wasnorm_wordpool.txt	LTP095	ltpFR	7	11	1	POSSUM	1112	n/a	n/a	0	n/a	0	0	0	0.57763671875	0.412841796875	1	upper	zerothre.ttf
3095674	START	n/a	LTP095	ltpFR	7	n/a	n/a	n/a	n/a	n/a	n/a	n/a	n/a	n/a	n/a	n/a	n/a	n/a	n/a	n/a	n/a
3096648	PROB	n/a	LTP095	ltpFR	7	n/a	n/a	n/a	n/a	n/a	n/a	n/a	19	7	4	8	n/a	n/a	n/a	n/a	n/a
3098770	PROB	n/a	LTP095	ltpFR	7	n/a	n/a	n/a	n/a	n/a	n/a	n/a	18	6	9	3	n/a	n/a	n/a	n/a	n/a
3103673	STOP	n/a	LTP095	ltpFR	7	n/a	n/a	n/a	n/a	n/a	n/a	n/a	n/a	n/a	n/a	n/a	n/a	n/a	n/a	n/a	n/a
3104597	WORD	wordpools/wasnorm_wordpool.txt	LTP095	ltpFR	7	11	1	ANTEATER	26	n/a	n/a	1	n/a	0	0	0	0.57763671875	0.412841796875	1	upper	zerothre.ttf
3107602	START	n/a	LTP095	ltpFR	7	n/a	n/a	n/a	n/a	n/a	n/a	n/a	n/a	n/a	n/a	n/a	n/a	n/a	n/a	n/a	n/a
3108625	PROB	n/a	LTP095	ltpFR	7	n/a	n/a	n/a	n/a	n/a	n/a	n/a	7	2	1	4	n/a	n/a	n/a	n/a	n/a
3115602	STOP	n/a	LTP095	ltpFR	7	n/a	n/a	n/a	n/a	n/a	n/a	n/a	n/a	n/a	n/a	n/a	n/a	n/a	n/a	n/a	n/a
3116774	WORD	wordpools/wasnorm_wordpool.txt	LTP095	ltpFR	7	11	1	GROUND	666	n/a	n/a	0	n/a	0	0	0	0.57763671875	0.412841796875	1	upper	zerothre.ttf
3119780	START	n/a	LTP095	ltpFR	7	n/a	n/a	n/a	n/a	n/a	n/a	n/a	n/a	n/a	n/a	n/a	n/a	n/a	n/a	n/a	n/a
3120871	PROB	n/a	LTP095	ltpFR	7	n/a	n/a	n/a	n/a	n/a	n/a	n/a	20	5	6	9	n/a	n/a	n/a	n/a	n/a
3122651	PROB	n/a	LTP095	ltpFR	7	n/a	n/a	n/a	n/a	n/a	n/a	n/a	13	8	2	3	n/a	n/a	n/a	n/a	n/a
3127780	STOP	n/a	LTP095	ltpFR	7	n/a	n/a	n/a	n/a	n/a	n/a	n/a	n/a	n/a	n/a	n/a	n/a	n/a	n/a	n/a	n/a
3128845	WORD	wordpools/wasnorm_wordpool.txt	LTP095	ltpFR	7	11	1	PAINTER	1004	n/a	n/a	1	n/a	0	0	0	0.57763671875	0.412841796875	1	upper	zerothre.ttf
3131850	START	n/a	LTP095	ltpFR	7	n/a	n/a	n/a	n/a	n/a	n/a	n/a	n/a	n/a	n/a	n/a	n/a	n/a	n/a	n/a	n/a
3133048	PROB	n/a	LTP095	ltpFR	7	n/a	n/a	n/a	n/a	n/a	n/a	n/a	8	1	2	5	n/a	n/a	n/a	n/a	n/a
3139850	STOP	n/a	LTP095	ltpFR	7	n/a	n/a	n/a	n/a	n/a	n/a	n/a	n/a	n/a	n/a	n/a	n/a	n/a	n/a	n/a	n/a
3140788	WORD	wordpools/wasnorm_wordpool.txt	LTP095	ltpFR	7	11	1	STEAM	1375	n/a	n/a	n/a	n/a	0	0	0	0.57763671875	0.412841796875	1	upper	zerothre.ttf
3143811	SLOW_MSG	n/a	LTP095	ltpFR	7	11	n/a	n/a	n/a	n/a	n/a	n/a	n/a	0	0	0	n/a	n/a	n/a	n/a	n/a
3145325	START	n/a	LTP095	ltpFR	7	n/a	n/a	n/a	n/a	n/a	n/a	n/a	n/a	n/a	n/a	n/a	n/a	n/a	n/a	n/a	n/a
3146348	PROB	n/a	LTP095	ltpFR	7	n/a	n/a	n/a	n/a	n/a	n/a	n/a	19	6	4	9	n/a	n/a	n/a	n/a	n/a
3148081	PROB	n/a	LTP095	ltpFR	7	n/a	n/a	n/a	n/a	n/a	n/a	n/a	9	6	2	1	n/a	n/a	n/a	n/a	n/a
3149636	PROB	n/a	LTP095	ltpFR	7	n/a	n/a	n/a	n/a	n/a	n/a	n/a	17	1	8	8	n/a	n/a	n/a	n/a	n/a
3151467	PROB	n/a	LTP095	ltpFR	7	n/a	n/a	n/a	n/a	n/a	n/a	n/a	18	2	8	8	n/a	n/a	n/a	n/a	n/a
3153310	STOP	n/a	LTP095	ltpFR	7	n/a	n/a	n/a	n/a	n/a	n/a	n/a	n/a	n/a	n/a	n/a	n/a	n/a	n/a	n/a	n/a
3154422	WORD	wordpools/wasnorm_wordpool.txt	LTP095	ltpFR	7	11	1	PAIL	1002	n/a	n/a	0	n/a	0	0	0	0.57763671875	0.412841796875	1	upper	zerothre.ttf
3157427	START	n/a	LTP095	ltpFR	7	n/a	n/a	n/a	n/a	n/a	n/a	n/a	n/a	n/a	n/a	n/a	n/a	n/a	n/a	n/a	n/a
3158276	PROB	n/a	LTP095	ltpFR	7	n/a	n/a	n/a	n/a	n/a	n/a	n/a	12	3	2	7	n/a	n/a	n/a	n/a	n/a
3160083	PROB	n/a	LTP095	ltpFR	7	n/a	n/a	n/a	n/a	n/a	n/a	n/a	13	5	7	1	n/a	n/a	n/a	n/a	n/a
3162089	PROB	n/a	LTP095	ltpFR	7	n/a	n/a	n/a	n/a	n/a	n/a	n/a	24	9	8	7	n/a	n/a	n/a	n/a	n/a
3165103	STOP	n/a	LTP095	ltpFR	7	n/a	n/a	n/a	n/a	n/a	n/a	n/a	n/a	n/a	n/a	n/a	n/a	n/a	n/a	n/a	n/a
3167266	REC_START	n/a	LTP095	ltpFR	7	11	n/a	n/a	n/a	n/a	n/a	n/a	n/a	0	0	0	n/a	n/a	n/a	n/a	n/a
3179718	REC_WORD	wordpools/wasnorm_wordpool.txt	LTP095	ltpFR	7	11	1	ANTEATER	26	n/a	n/a	1	n/a	0	0	0	n/a	n/a	n/a	n/a	n/a
3180718	REC_WORD_VV	wordpools/wasnorm_wordpool.txt	LTP095	ltpFR	7	11	n/a	<>	-1	n/a	n/a	n/a	n/a	0	0	0	n/a	n/a	n/a	n/a	n/a
3182062	REC_WORD	wordpools/wasnorm_wordpool.txt	LTP095	ltpFR	7	11	1	TORTOISE	1486	n/a	n/a	3	n/a	0	0	0	n/a	n/a	n/a	n/a	n/a
3183062	REC_WORD_VV	wordpools/wasnorm_wordpool.txt	LTP095	ltpFR	7	11	n/a	<>	-1	n/a	n/a	n/a	n/a	0	0	0	n/a	n/a	n/a	n/a	n/a
3247730	WORD	wordpools/wasnorm_wordpool.txt	LTP095	ltpFR	7	12	1	RACKET	1155	n/a	n/a	0	n/a	0	0	0	0.57763671875	0.412841796875	1	upper	zerothre.ttf
3251759	WORD	wordpools/wasnorm_wordpool.txt	LTP095	ltpFR	7	12	1	JUGGLER	763	n/a	n/a	1	n/a	0	0	0	0.57763671875	0.412841796875	1	upper	zerothre.ttf
3255955	WORD	wordpools/wasnorm_wordpool.txt	LTP095	ltpFR	7	12	1	PARENT	1013	n/a	n/a	1	n/a	0	0	0	0.57763671875	0.412841796875	1	upper	zerothre.ttf
3259992	WORD	wordpools/wasnorm_wordpool.txt	LTP095	ltpFR	7	12	1	MICROWAVE	892	n/a	n/a	0	n/a	0	0	0	0.57763671875	0.412841796875	1	upper	zerothre.ttf
3263938	WORD	wordpools/wasnorm_wordpool.txt	LTP095	ltpFR	7	12	1	CAULIFLOWER	262	n/a	n/a	0	n/a	0	0	0	0.57763671875	0.412841796875	1	upper	zerothre.ttf
3267908	WORD	wordpools/wasnorm_wordpool.txt	LTP095	ltpFR	7	12	1	MERMAID	887	n/a	n/a	1	n/a	0	0	0	0.57763671875	0.412841796875	1	upper	zerothre.ttf
3271978	WORD	wordpools/wasnorm_wordpool.txt	LTP095	ltpFR	7	12	1	OFFICER	973	n/a	n/a	1	n/a	0	0	0	0.57763671875	0.412841796875	1	upper	zerothre.ttf
3276074	WORD	wordpools/wasnorm_wordpool.txt	LTP095	ltpFR	7	12	1	BOARD	143	n/a	n/a	0	n/a	0	0	0	0.57763671875	0.412841796875	1	upper	zerothre.ttf
3280019	WORD	wordpools/wasnorm_wordpool.txt	LTP095	ltpFR	7	12	1	BLACKBOARD	133	n/a	n/a	0	n/a	0	0	0	0.57763671875	0.412841796875	1	upper	zerothre.ttf
3284172	WORD	wordpools/wasnorm_wordpool.txt	LTP095	ltpFR	7	12	1	ANCESTOR	20	n/a	n/a	1	n/a	0	0	0	0.57763671875	0.412841796875	1	upper	zerothre.ttf
3287993	WORD	wordpools/wasnorm_wordpool.txt	LTP095	ltpFR	7	12	1	BANDAGE	79	n/a	n/a	0	n/a	0	0	0	0.57763671875	0.412841796875	1	upper	zerothre.ttf
3292196	WORD	wordpools/wasnorm_wordpool.txt	LTP095	ltpFR	7	12	1	TEACHER	1440	n/a	n/a	1	n/a	0	0	0	0.57763671875	0.412841796875	1	upper	zerothre.ttf
3296042	WORD	wordpools/wasnorm_wordpool.txt	LTP095	ltpFR	7	12	1	TURKEY	1520	n/a	n/a	0	n/a	0	0	0	0.57763671875	0.412841796875	1	upper	zerothre.ttf
3300104	WORD	wordpools/wasnorm_wordpool.txt	LTP095	ltpFR	7	12	1	GAUZE	626	n/a	n/a	0	n/a	0	0	0	0.57763671875	0.412841796875	1	upper	zerothre.ttf
3303933	WORD	wordpools/wasnorm_wordpool.txt	LTP095	ltpFR	7	12	1	ROBE	1198	n/a	n/a	0	n/a	0	0	0	0.57763671875	0.412841796875	1	upper	zerothre.ttf
3307995	WORD	wordpools/wasnorm_wordpool.txt	LTP095	ltpFR	7	12	1	TIE	1466	n/a	n/a	0	n/a	0	0	0	0.57763671875	0.412841796875	1	upper	zerothre.ttf
3313855	REC_START	n/a	LTP095	ltpFR	7	12	n/a	n/a	n/a	n/a	n/a	n/a	n/a	0	0	0	n/a	n/a	n/a	n/a	n/a
3316359	REC_WORD	wordpools/wasnorm_wordpool.txt	LTP095	ltpFR	7	12	1	TIE	1466	n/a	n/a	0	n/a	0	0	0	n/a	n/a	n/a	n/a	n/a
3317841	REC_WORD	wordpools/wasnorm_wordpool.txt	LTP095	ltpFR	7	12	1	BLACKBOARD	133	n/a	n/a	0	n/a	0	0	0	n/a	n/a	n/a	n/a	n/a
3318841	REC_WORD_VV	wordpools/wasnorm_wordpool.txt	LTP095	ltpFR	7	12	n/a	<>	-1	n/a	n/a	n/a	n/a	0	0	0	n/a	n/a	n/a	n/a	n/a
3320385	REC_WORD	wordpools/wasnorm_wordpool.txt	LTP095	ltpFR	7	12	1	PARENT	1013	n/a	n/a	1	n/a	0	0	0	n/a	n/a	n/a	n/a	n/a
3323328	REC_WORD	wordpools/wasnorm_wordpool.txt	LTP095	ltpFR	7	12	1	BOARD	143	n/a	n/a	0	n/a	0	0	0	n/a	n/a	n/a	n/a	n/a
3327574	REC_WORD	wordpools/wasnorm_wordpool.txt	LTP095	ltpFR	7	12	1	JUGGLER	763	n/a	n/a	1	n/a	0	0	0	n/a	n/a	n/a	n/a	n/a
3339157	REC_WORD	wordpools/wasnorm_wordpool.txt	LTP095	ltpFR	7	12	1	TURKEY	1520	n/a	n/a	0	n/a	0	0	0	n/a	n/a	n/a	n/a	n/a
3392621	START	n/a	LTP095	ltpFR	7	n/a	n/a	n/a	n/a	n/a	n/a	n/a	n/a	n/a	n/a	n/a	n/a	n/a	n/a	n/a	n/a
3394128	PROB	n/a	LTP095	ltpFR	7	n/a	n/a	n/a	n/a	n/a	n/a	n/a	12	4	6	2	n/a	n/a	n/a	n/a	n/a
3396176	PROB	n/a	LTP095	ltpFR	7	n/a	n/a	n/a	n/a	n/a	n/a	n/a	10	1	5	4	n/a	n/a	n/a	n/a	n/a
3398239	PROB	n/a	LTP095	ltpFR	7	n/a	n/a	n/a	n/a	n/a	n/a	n/a	12	4	4	4	n/a	n/a	n/a	n/a	n/a
3400054	PROB	n/a	LTP095	ltpFR	7	n/a	n/a	n/a	n/a	n/a	n/a	n/a	18	9	5	4	n/a	n/a	n/a	n/a	n/a
3401836	PROB	n/a	LTP095	ltpFR	7	n/a	n/a	n/a	n/a	n/a	n/a	n/a	7	1	1	5	n/a	n/a	n/a	n/a	n/a
3404232	PROB	n/a	LTP095	ltpFR	7	n/a	n/a	n/a	n/a	n/a	n/a	n/a	14	6	6	2	n/a	n/a	n/a	n/a	n/a
3405680	PROB	n/a	LTP095	ltpFR	7	n/a	n/a	n/a	n/a	n/a	n/a	n/a	10	2	2	6	n/a	n/a	n/a	n/a	n/a
3407342	STOP	n/a	LTP095	ltpFR	7	n/a	n/a	n/a	n/a	n/a	n/a	n/a	n/a	n/a	n/a	n/a	n/a	n/a	n/a	n/a	n/a
3409810	WORD	wordpools/wasnorm_wordpool.txt	LTP095	ltpFR	7	13	1	SHED	1277	n/a	n/a	0	n/a	0	0	0	0.57763671875	0.412841796875	1	upper	zerothre.ttf
3412815	START	n/a	LTP095	ltpFR	7	n/a	n/a	n/a	n/a	n/a	n/a	n/a	n/a	n/a	n/a	n/a	n/a	n/a	n/a	n/a	n/a
3413930	PROB	n/a	LTP095	ltpFR	7	n/a	n/a	n/a	n/a	n/a	n/a	n/a	9	3	2	4	n/a	n/a	n/a	n/a	n/a
3416409	PROB	n/a	LTP095	ltpFR	7	n/a	n/a	n/a	n/a	n/a	n/a	n/a	19	5	6	8	n/a	n/a	n/a	n/a	n/a
3418515	PROB	n/a	LTP095	ltpFR	7	n/a	n/a	n/a	n/a	n/a	n/a	n/a	19	9	2	8	n/a	n/a	n/a	n/a	n/a
3420704	PROB	n/a	LTP095	ltpFR	7	n/a	n/a	n/a	n/a	n/a	n/a	n/a	165	8	7	1	n/a	n/a	n/a	n/a	n/a
3422744	PROB	n/a	LTP095	ltpFR	7	n/a	n/a	n/a	n/a	n/a	n/a	n/a	13	5	3	5	n/a	n/a	n/a	n/a	n/a
3426033	PROB	n/a	LTP095	ltpFR	7	n/a	n/a	n/a	n/a	n/a	n/a	n/a	22	9	6	7	n/a	n/a	n/a	n/a	n/a
3427887	STOP	n/a	LTP095	ltpFR	7	n/a	n/a	n/a	n/a	n/a	n/a	n/a	n/a	n/a	n/a	n/a	n/a	n/a	n/a	n/a	n/a
3430011	WORD	wordpools/wasnorm_wordpool.txt	LTP095	ltpFR	7	13	1	PRAIRIE	1118	n/a	n/a	0	n/a	0	0	0	0.57763671875	0.412841796875	1	upper	zerothre.ttf
3433017	START	n/a	LTP095	ltpFR	7	n/a	n/a	n/a	n/a	n/a	n/a	n/a	n/a	n/a	n/a	n/a	n/a	n/a	n/a	n/a	n/a
3433915	PROB	n/a	LTP095	ltpFR	7	n/a	n/a	n/a	n/a	n/a	n/a	n/a	18	9	5	3	n/a	n/a	n/a	n/a	n/a
3437435	PROB	n/a	LTP095	ltpFR	7	n/a	n/a	n/a	n/a	n/a	n/a	n/a	20	3	8	9	n/a	n/a	n/a	n/a	n/a
3440183	PROB	n/a	LTP095	ltpFR	7	n/a	n/a	n/a	n/a	n/a	n/a	n/a	19	8	9	2	n/a	n/a	n/a	n/a	n/a
3442963	PROB	n/a	LTP095	ltpFR	7	n/a	n/a	n/a	n/a	n/a	n/a	n/a	11	1	2	8	n/a	n/a	n/a	n/a	n/a
3444844	PROB	n/a	LTP095	ltpFR	7	n/a	n/a	n/a	n/a	n/a	n/a	n/a	15	2	9	4	n/a	n/a	n/a	n/a	n/a
3446499	PROB	n/a	LTP095	ltpFR	7	n/a	n/a	n/a	n/a	n/a	n/a	n/a	17	6	7	4	n/a	n/a	n/a	n/a	n/a
3448654	STOP	n/a	LTP095	ltpFR	7	n/a	n/a	n/a	n/a	n/a	n/a	n/a	n/a	n/a	n/a	n/a	n/a	n/a	n/a	n/a	n/a
3450121	WORD	wordpools/wasnorm_wordpool.txt	LTP095	ltpFR	7	13	1	BUG	187	n/a	n/a	1	n/a	0	0	0	0.57763671875	0.412841796875	1	upper	zerothre.ttf
3453126	START	n/a	LTP095	ltpFR	7	n/a	n/a	n/a	n/a	n/a	n/a	n/a	n/a	n/a	n/a	n/a	n/a	n/a	n/a	n/a	n/a
3454075	PROB	n/a	LTP095	ltpFR	7	n/a	n/a	n/a	n/a	n/a	n/a	n/a	19	9	4	6	n/a	n/a	n/a	n/a	n/a
3455572	PROB	n/a	LTP095	ltpFR	7	n/a	n/a	n/a	n/a	n/a	n/a	n/a	12	1	2	9	n/a	n/a	n/a	n/a	n/a
3457862	PROB	n/a	LTP095	ltpFR	7	n/a	n/a	n/a	n/a	n/a	n/a	n/a	13	5	4	4	n/a	n/a	n/a	n/a	n/a
3460859	PROB	n/a	LTP095	ltpFR	7	n/a	n/a	n/a	n/a	n/a	n/a	n/a	22	9	6	7	n/a	n/a	n/a	n/a	n/a
3462589	PROB	n/a	LTP095	ltpFR	7	n/a	n/a	n/a	n/a	n/a	n/a	n/a	9	3	1	5	n/a	n/a	n/a	n/a	n/a
3464395	PROB	n/a	LTP095	ltpFR	7	n/a	n/a	n/a	n/a	n/a	n/a	n/a	17	8	8	1	n/a	n/a	n/a	n/a	n/a
3466260	PROB	n/a	LTP095	ltpFR	7	n/a	n/a	n/a	n/a	n/a	n/a	n/a	12	3	1	8	n/a	n/a	n/a	n/a	n/a
3467919	STOP	n/a	LTP095	ltpFR	7	n/a	n/a	n/a	n/a	n/a	n/a	n/a	n/a	n/a	n/a	n/a	n/a	n/a	n/a	n/a	n/a
3469940	WORD	wordpools/wasnorm_wordpool.txt	LTP095	ltpFR	7	13	1	CLAW	319	n/a	n/a	0	n/a	0	0	0	0.57763671875	0.412841796875	1	upper	zerothre.ttf
3472945	START	n/a	LTP095	ltpFR	7	n/a	n/a	n/a	n/a	n/a	n/a	n/a	n/a	n/a	n/a	n/a	n/a	n/a	n/a	n/a	n/a
3474077	PROB	n/a	LTP095	ltpFR	7	n/a	n/a	n/a	n/a	n/a	n/a	n/a	19	9	5	5	n/a	n/a	n/a	n/a	n/a
3475665	PROB	n/a	LTP095	ltpFR	7	n/a	n/a	n/a	n/a	n/a	n/a	n/a	10	1	5	4	n/a	n/a	n/a	n/a	n/a
3477906	PROB	n/a	LTP095	ltpFR	7	n/a	n/a	n/a	n/a	n/a	n/a	n/a	17	5	3	9	n/a	n/a	n/a	n/a	n/a
3482616	PROB	n/a	LTP095	ltpFR	7	n/a	n/a	n/a	n/a	n/a	n/a	n/a	6	1	1	4	n/a	n/a	n/a	n/a	n/a
3484314	PROB	n/a	LTP095	ltpFR	7	n/a	n/a	n/a	n/a	n/a	n/a	n/a	15	7	1	7	n/a	n/a	n/a	n/a	n/a
3486154	PROB	n/a	LTP095	ltpFR	7	n/a	n/a	n/a	n/a	n/a	n/a	n/a	23	8	9	6	n/a	n/a	n/a	n/a	n/a
3488622	STOP	n/a	LTP095	ltpFR	7	n/a	n/a	n/a	n/a	n/a	n/a	n/a	n/a	n/a	n/a	n/a	n/a	n/a	n/a	n/a	n/a
3490016	WORD	wordpools/wasnorm_wordpool.txt	LTP095	ltpFR	7	13	1	HOSE	720	n/a	n/a	0	n/a	0	0	0	0.57763671875	0.412841796875	1	upper	zerothre.ttf
3493022	START	n/a	LTP095	ltpFR	7	n/a	n/a	n/a	n/a	n/a	n/a	n/a	n/a	n/a	n/a	n/a	n/a	n/a	n/a	n/a	n/a
3493995	PROB	n/a	LTP095	ltpFR	7	n/a	n/a	n/a	n/a	n/a	n/a	n/a	17	6	3	8	n/a	n/a	n/a	n/a	n/a
3496658	PROB	n/a	LTP095	ltpFR	7	n/a	n/a	n/a	n/a	n/a	n/a	n/a	19	7	6	6	n/a	n/a	n/a	n/a	n/a
3499131	PROB	n/a	LTP095	ltpFR	7	n/a	n/a	n/a	n/a	n/a	n/a	n/a	13	4	7	2	n/a	n/a	n/a	n/a	n/a
3500995	PROB	n/a	LTP095	ltpFR	7	n/a	n/a	n/a	n/a	n/a	n/a	n/a	13	4	8	1	n/a	n/a	n/a	n/a	n/a
3502784	PROB	n/a	LTP095	ltpFR	7	n/a	n/a	n/a	n/a	n/a	n/a	n/a	13	8	2	3	n/a	n/a	n/a	n/a	n/a
3505174	PROB	n/a	LTP095	ltpFR	7	n/a	n/a	n/a	n/a	n/a	n/a	n/a	16	8	2	6	n/a	n/a	n/a	n/a	n/a
3508710	STOP	n/a	LTP095	ltpFR	7	n/a	n/a	n/a	n/a	n/a	n/a	n/a	n/a	n/a	n/a	n/a	n/a	n/a	n/a	n/a	n/a
3509977	WORD	wordpools/wasnorm_wordpool.txt	LTP095	ltpFR	7	13	1	CREEK	404	n/a	n/a	0	n/a	0	0	0	0.57763671875	0.412841796875	1	upper	zerothre.ttf
3512982	START	n/a	LTP095	ltpFR	7	n/a	n/a	n/a	n/a	n/a	n/a	n/a	n/a	n/a	n/a	n/a	n/a	n/a	n/a	n/a	n/a
3514014	PROB	n/a	LTP095	ltpFR	7	n/a	n/a	n/a	n/a	n/a	n/a	n/a	17	2	6	9	n/a	n/a	n/a	n/a	n/a
3516693	PROB	n/a	LTP095	ltpFR	7	n/a	n/a	n/a	n/a	n/a	n/a	n/a	15	4	8	3	n/a	n/a	n/a	n/a	n/a
3520148	PROB	n/a	LTP095	ltpFR	7	n/a	n/a	n/a	n/a	n/a	n/a	n/a	16	7	4	4	n/a	n/a	n/a	n/a	n/a
3523410	PROB	n/a	LTP095	ltpFR	7	n/a	n/a	n/a	n/a	n/a	n/a	n/a	17	7	6	4	n/a	n/a	n/a	n/a	n/a
3525724	PROB	n/a	LTP095	ltpFR	7	n/a	n/a	n/a	n/a	n/a	n/a	n/a	16	6	1	9	n/a	n/a	n/a	n/a	n/a
3527694	STOP	n/a	LTP095	ltpFR	7	n/a	n/a	n/a	n/a	n/a	n/a	n/a	n/a	n/a	n/a	n/a	n/a	n/a	n/a	n/a	n/a
3530037	WORD	wordpools/wasnorm_wordpool.txt	LTP095	ltpFR	7	13	1	TRACTOR	1493	n/a	n/a	1	n/a	0	0	0	0.57763671875	0.412841796875	1	upper	zerothre.ttf
3533042	START	n/a	LTP095	ltpFR	7	n/a	n/a	n/a	n/a	n/a	n/a	n/a	n/a	n/a	n/a	n/a	n/a	n/a	n/a	n/a	n/a
3533990	PROB	n/a	LTP095	ltpFR	7	n/a	n/a	n/a	n/a	n/a	n/a	n/a	12	5	1	6	n/a	n/a	n/a	n/a	n/a
3536262	PROB	n/a	LTP095	ltpFR	7	n/a	n/a	n/a	n/a	n/a	n/a	n/a	14	6	6	2	n/a	n/a	n/a	n/a	n/a
3537853	PROB	n/a	LTP095	ltpFR	7	n/a	n/a	n/a	n/a	n/a	n/a	n/a	4	1	1	2	n/a	n/a	n/a	n/a	n/a
3539358	PROB	n/a	LTP095	ltpFR	7	n/a	n/a	n/a	n/a	n/a	n/a	n/a	21	9	3	9	n/a	n/a	n/a	n/a	n/a
3541914	PROB	n/a	LTP095	ltpFR	7	n/a	n/a	n/a	n/a	n/a	n/a	n/a	19	9	9	1	n/a	n/a	n/a	n/a	n/a
3549042	STOP	n/a	LTP095	ltpFR	7	n/a	n/a	n/a	n/a	n/a	n/a	n/a	n/a	n/a	n/a	n/a	n/a	n/a	n/a	n/a	n/a
3550030	WORD	wordpools/wasnorm_wordpool.txt	LTP095	ltpFR	7	13	1	VALVE	1546	n/a	n/a	0	n/a	0	0	0	0.57763671875	0.412841796875	1	upper	zerothre.ttf
3553035	START	n/a	LTP095	ltpFR	7	n/a	n/a	n/a	n/a	n/a	n/a	n/a	n/a	n/a	n/a	n/a	n/a	n/a	n/a	n/a	n/a
3554109	PROB	n/a	LTP095	ltpFR	7	n/a	n/a	n/a	n/a	n/a	n/a	n/a	12	1	9	2	n/a	n/a	n/a	n/a	n/a
3555589	PROB	n/a	LTP095	ltpFR	7	n/a	n/a	n/a	n/a	n/a	n/a	n/a	14	4	7	3	n/a	n/a	n/a	n/a	n/a
3557172	PROB	n/a	LTP095	ltpFR	7	n/a	n/a	n/a	n/a	n/a	n/a	n/a	13	5	2	6	n/a	n/a	n/a	n/a	n/a
3559194	PROB	n/a	LTP095	ltpFR	7	n/a	n/a	n/a	n/a	n/a	n/a	n/a	11	1	3	7	n/a	n/a	n/a	n/a	n/a
3560801	PROB	n/a	LTP095	ltpFR	7	n/a	n/a	n/a	n/a	n/a	n/a	n/a	15	8	1	6	n/a	n/a	n/a	n/a	n/a
3563297	PROB	n/a	LTP095	ltpFR	7	n/a	n/a	n/a	n/a	n/a	n/a	n/a	17	2	9	6	n/a	n/a	n/a	n/a	n/a
3565553	PROB	n/a	LTP095	ltpFR	7	n/a	n/a	n/a	n/a	n/a	n/a	n/a	13	2	4	7	n/a	n/a	n/a	n/a	n/a
3567143	PROB	n/a	LTP095	ltpFR	7	n/a	n/a	n/a	n/a	n/a	n/a	n/a	18	9	8	1	n/a	n/a	n/a	n/a	n/a
3568807	STOP	n/a	LTP095	ltpFR	7	n/a	n/a	n/a	n/a	n/a	n/a	n/a	n/a	n/a	n/a	n/a	n/a	n/a	n/a	n/a	n/a
3569857	WORD	wordpools/wasnorm_wordpool.txt	LTP095	ltpFR	7	13	1	COMMUNITY	356	n/a	n/a	0	n/a	0	0	0	0.57763671875	0.412841796875	1	upper	zerothre.ttf
3572862	START	n/a	LTP095	ltpFR	7	n/a	n/a	n/a	n/a	n/a	n/a	n/a	n/a	n/a	n/a	n/a	n/a	n/a	n/a	n/a	n/a
3573919	PROB	n/a	LTP095	ltpFR	7	n/a	n/a	n/a	n/a	n/a	n/a	n/a	13	9	3	1	n/a	n/a	n/a	n/a	n/a
3576033	PROB	n/a	LTP095	ltpFR	7	n/a	n/a	n/a	n/a	n/a	n/a	n/a	18	4	9	5	n/a	n/a	n/a	n/a	n/a
3578579	PROB	n/a	LTP095	ltpFR	7	n/a	n/a	n/a	n/a	n/a	n/a	n/a	18	9	2	7	n/a	n/a	n/a	n/a	n/a
3580494	PROB	n/a	LTP095	ltpFR	7	n/a	n/a	n/a	n/a	n/a	n/a	n/a	14	7	5	2	n/a	n/a	n/a	n/a	n/a
3582925	PROB	n/a	LTP095	ltpFR	7	n/a	n/a	n/a	n/a	n/a	n/a	n/a	10	1	6	3	n/a	n/a	n/a	n/a	n/a
3584755	PROB	n/a	LTP095	ltpFR	7	n/a	n/a	n/a	n/a	n/a	n/a	n/a	76	7	8	1	n/a	n/a	n/a	n/a	n/a
3588438	STOP	n/a	LTP095	ltpFR	7	n/a	n/a	n/a	n/a	n/a	n/a	n/a	n/a	n/a	n/a	n/a	n/a	n/a	n/a	n/a	n/a
3589875	WORD	wordpools/wasnorm_wordpool.txt	LTP095	ltpFR	7	13	1	PARTNER	1017	n/a	n/a	0	n/a	0	0	0	0.57763671875	0.412841796875	1	upper	zerothre.ttf
3592881	START	n/a	LTP095	ltpFR	7	n/a	n/a	n/a	n/a	n/a	n/a	n/a	n/a	n/a	n/a	n/a	n/a	n/a	n/a	n/a	n/a
3594062	PROB	n/a	LTP095	ltpFR	7	n/a	n/a	n/a	n/a	n/a	n/a	n/a	22	9	6	7	n/a	n/a	n/a	n/a	n/a
3596300	PROB	n/a	LTP095	ltpFR	7	n/a	n/a	n/a	n/a	n/a	n/a	n/a	13	2	8	3	n/a	n/a	n/a	n/a	n/a
3597958	PROB	n/a	LTP095	ltpFR	7	n/a	n/a	n/a	n/a	n/a	n/a	n/a	19	5	5	9	n/a	n/a	n/a	n/a	n/a
3600097	PROB	n/a	LTP095	ltpFR	7	n/a	n/a	n/a	n/a	n/a	n/a	n/a	14	6	4	4	n/a	n/a	n/a	n/a	n/a
3602086	PROB	n/a	LTP095	ltpFR	7	n/a	n/a	n/a	n/a	n/a	n/a	n/a	17	3	7	7	n/a	n/a	n/a	n/a	n/a
3604092	PROB	n/a	LTP095	ltpFR	7	n/a	n/a	n/a	n/a	n/a	n/a	n/a	21	7	9	5	n/a	n/a	n/a	n/a	n/a
3608880	STOP	n/a	LTP095	ltpFR	7	n/a	n/a	n/a	n/a	n/a	n/a	n/a	n/a	n/a	n/a	n/a	n/a	n/a	n/a	n/a	n/a
3609760	WORD	wordpools/wasnorm_wordpool.txt	LTP095	ltpFR	7	13	1	SPIDER	1351	n/a	n/a	1	n/a	0	0	0	0.57763671875	0.412841796875	1	upper	zerothre.ttf
3612765	START	n/a	LTP095	ltpFR	7	n/a	n/a	n/a	n/a	n/a	n/a	n/a	n/a	n/a	n/a	n/a	n/a	n/a	n/a	n/a	n/a
3613956	PROB	n/a	LTP095	ltpFR	7	n/a	n/a	n/a	n/a	n/a	n/a	n/a	18	5	4	9	n/a	n/a	n/a	n/a	n/a
3617019	PROB	n/a	LTP095	ltpFR	7	n/a	n/a	n/a	n/a	n/a	n/a	n/a	17	6	8	3	n/a	n/a	n/a	n/a	n/a
3618883	PROB	n/a	LTP095	ltpFR	7	n/a	n/a	n/a	n/a	n/a	n/a	n/a	9	1	4	4	n/a	n/a	n/a	n/a	n/a
3620772	PROB	n/a	LTP095	ltpFR	7	n/a	n/a	n/a	n/a	n/a	n/a	n/a	12	6	1	5	n/a	n/a	n/a	n/a	n/a
3622228	PROB	n/a	LTP095	ltpFR	7	n/a	n/a	n/a	n/a	n/a	n/a	n/a	12	3	6	3	n/a	n/a	n/a	n/a	n/a
3624851	PROB	n/a	LTP095	ltpFR	7	n/a	n/a	n/a	n/a	n/a	n/a	n/a	15	1	5	9	n/a	n/a	n/a	n/a	n/a
3628765	STOP	n/a	LTP095	ltpFR	7	n/a	n/a	n/a	n/a	n/a	n/a	n/a	n/a	n/a	n/a	n/a	n/a	n/a	n/a	n/a	n/a
3629653	WORD	wordpools/wasnorm_wordpool.txt	LTP095	ltpFR	7	13	1	GULL	671	n/a	n/a	1	n/a	0	0	0	0.57763671875	0.412841796875	1	upper	zerothre.ttf
3632658	START	n/a	LTP095	ltpFR	7	n/a	n/a	n/a	n/a	n/a	n/a	n/a	n/a	n/a	n/a	n/a	n/a	n/a	n/a	n/a	n/a
3633748	PROB	n/a	LTP095	ltpFR	7	n/a	n/a	n/a	n/a	n/a	n/a	n/a	18	9	8	1	n/a	n/a	n/a	n/a	n/a
3636320	PROB	n/a	LTP095	ltpFR	7	n/a	n/a	n/a	n/a	n/a	n/a	n/a	16	6	7	3	n/a	n/a	n/a	n/a	n/a
3638543	PROB	n/a	LTP095	ltpFR	7	n/a	n/a	n/a	n/a	n/a	n/a	n/a	16	7	1	8	n/a	n/a	n/a	n/a	n/a
3640958	PROB	n/a	LTP095	ltpFR	7	n/a	n/a	n/a	n/a	n/a	n/a	n/a	8	3	2	2	n/a	n/a	n/a	n/a	n/a
3644046	PROB	n/a	LTP095	ltpFR	7	n/a	n/a	n/a	n/a	n/a	n/a	n/a	20	3	9	8	n/a	n/a	n/a	n/a	n/a
3648658	STOP	n/a	LTP095	ltpFR	7	n/a	n/a	n/a	n/a	n/a	n/a	n/a	n/a	n/a	n/a	n/a	n/a	n/a	n/a	n/a	n/a
3649806	WORD	wordpools/wasnorm_wordpool.txt	LTP095	ltpFR	7	13	1	VISITOR	1573	n/a	n/a	1	n/a	0	0	0	0.57763671875	0.412841796875	1	upper	zerothre.ttf
3652811	START	n/a	LTP095	ltpFR	7	n/a	n/a	n/a	n/a	n/a	n/a	n/a	n/a	n/a	n/a	n/a	n/a	n/a	n/a	n/a	n/a
3653783	PROB	n/a	LTP095	ltpFR	7	n/a	n/a	n/a	n/a	n/a	n/a	n/a	15	7	4	2	n/a	n/a	n/a	n/a	n/a
3656672	PROB	n/a	LTP095	ltpFR	7	n/a	n/a	n/a	n/a	n/a	n/a	n/a	17	9	7	1	n/a	n/a	n/a	n/a	n/a
3659535	PROB	n/a	LTP095	ltpFR	7	n/a	n/a	n/a	n/a	n/a	n/a	n/a	11	8	2	1	n/a	n/a	n/a	n/a	n/a
3661474	PROB	n/a	LTP095	ltpFR	7	n/a	n/a	n/a	n/a	n/a	n/a	n/a	13	3	7	3	n/a	n/a	n/a	n/a	n/a
3662966	PROB	n/a	LTP095	ltpFR	7	n/a	n/a	n/a	n/a	n/a	n/a	n/a	10	5	2	3	n/a	n/a	n/a	n/a	n/a
3664822	PROB	n/a	LTP095	ltpFR	7	n/a	n/a	n/a	n/a	n/a	n/a	n/a	18	4	7	7	n/a	n/a	n/a	n/a	n/a
3668811	STOP	n/a	LTP095	ltpFR	7	n/a	n/a	n/a	n/a	n/a	n/a	n/a	n/a	n/a	n/a	n/a	n/a	n/a	n/a	n/a	n/a
3669707	WORD	wordpools/wasnorm_wordpool.txt	LTP095	ltpFR	7	13	1	CAMEL	223	n/a	n/a	1	n/a	0	0	0	0.57763671875	0.412841796875	1	upper	zerothre.ttf
3672712	START	n/a	LTP095	ltpFR	7	n/a	n/a	n/a	n/a	n/a	n/a	n/a	n/a	n/a	n/a	n/a	n/a	n/a	n/a	n/a	n/a
3673710	PROB	n/a	LTP095	ltpFR	7	n/a	n/a	n/a	n/a	n/a	n/a	n/a	19	6	6	7	n/a	n/a	n/a	n/a	n/a
3675550	PROB	n/a	LTP095	ltpFR	7	n/a	n/a	n/a	n/a	n/a	n/a	n/a	15	3	7	5	n/a	n/a	n/a	n/a	n/a
3677256	PROB	n/a	LTP095	ltpFR	7	n/a	n/a	n/a	n/a	n/a	n/a	n/a	14	9	4	1	n/a	n/a	n/a	n/a	n/a
3678679	PROB	n/a	LTP095	ltpFR	7	n/a	n/a	n/a	n/a	n/a	n/a	n/a	14	1	8	5	n/a	n/a	n/a	n/a	n/a
3680477	PROB	n/a	LTP095	ltpFR	7	n/a	n/a	n/a	n/a	n/a	n/a	n/a	9	3	3	3	n/a	n/a	n/a	n/a	n/a
3688712	STOP	n/a	LTP095	ltpFR	7	n/a	n/a	n/a	n/a	n/a	n/a	n/a	n/a	n/a	n/a	n/a	n/a	n/a	n/a	n/a	n/a
3689692	WORD	wordpools/wasnorm_wordpool.txt	LTP095	ltpFR	7	13	1	SCHOOL	1248	n/a	n/a	0	n/a	0	0	0	0.57763671875	0.412841796875	1	upper	zerothre.ttf
3692697	START	n/a	LTP095	ltpFR	7	n/a	n/a	n/a	n/a	n/a	n/a	n/a	n/a	n/a	n/a	n/a	n/a	n/a	n/a	n/a	n/a
3693679	PROB	n/a	LTP095	ltpFR	7	n/a	n/a	n/a	n/a	n/a	n/a	n/a	10	1	7	2	n/a	n/a	n/a	n/a	n/a
3696276	PROB	n/a	LTP095	ltpFR	7	n/a	n/a	n/a	n/a	n/a	n/a	n/a	13	5	5	3	n/a	n/a	n/a	n/a	n/a
3697825	PROB	n/a	LTP095	ltpFR	7	n/a	n/a	n/a	n/a	n/a	n/a	n/a	8	3	1	4	n/a	n/a	n/a	n/a	n/a
3699539	PROB	n/a	LTP095	ltpFR	7	n/a	n/a	n/a	n/a	n/a	n/a	n/a	17	9	2	6	n/a	n/a	n/a	n/a	n/a
3701154	PROB	n/a	LTP095	ltpFR	7	n/a	n/a	n/a	n/a	n/a	n/a	n/a	14	4	7	3	n/a	n/a	n/a	n/a	n/a
3703011	PROB	n/a	LTP095	ltpFR	7	n/a	n/a	n/a	n/a	n/a	n/a	n/a	8	2	3	3	n/a	n/a	n/a	n/a	n/a
3704958	PROB	n/a	LTP095	ltpFR	7	n/a	n/a	n/a	n/a	n/a	n/a	n/a	11	1	6	4	n/a	n/a	n/a	n/a	n/a
3708697	STOP	n/a	LTP095	ltpFR	7	n/a	n/a	n/a	n/a	n/a	n/a	n/a	n/a	n/a	n/a	n/a	n/a	n/a	n/a	n/a	n/a
3709552	WORD	wordpools/wasnorm_wordpool.txt	LTP095	ltpFR	7	13	1	BOYFRIEND	162	n/a	n/a	1	n/a	0	0	0	0.57763671875	0.412841796875	1	upper	zerothre.ttf
3712557	START	n/a	LTP095	ltpFR	7	n/a	n/a	n/a	n/a	n/a	n/a	n/a	n/a	n/a	n/a	n/a	n/a	n/a	n/a	n/a	n/a
3713373	PROB	n/a	LTP095	ltpFR	7	n/a	n/a	n/a	n/a	n/a	n/a	n/a	14	6	1	7	n/a	n/a	n/a	n/a	n/a
3714947	PROB	n/a	LTP095	ltpFR	7	n/a	n/a	n/a	n/a	n/a	n/a	n/a	15	5	4	6	n/a	n/a	n/a	n/a	n/a
3717802	PROB	n/a	LTP095	ltpFR	7	n/a	n/a	n/a	n/a	n/a	n/a	n/a	9	4	2	3	n/a	n/a	n/a	n/a	n/a
3720024	PROB	n/a	LTP095	ltpFR	7	n/a	n/a	n/a	n/a	n/a	n/a	n/a	21	9	8	4	n/a	n/a	n/a	n/a	n/a
3722678	PROB	n/a	LTP095	ltpFR	7	n/a	n/a	n/a	n/a	n/a	n/a	n/a	13	4	3	6	n/a	n/a	n/a	n/a	n/a
3727055	STOP	n/a	LTP095	ltpFR	7	n/a	n/a	n/a	n/a	n/a	n/a	n/a	n/a	n/a	n/a	n/a	n/a	n/a	n/a	n/a	n/a
