mstime	trial_type	stim_file	subject	experiment	session	trial	task	item_name	item_num	recog_conf	resp	answer	test_x	test_y	test_z	color_b	color_g	color_r	case	font
0	SESS_START	n/a	LTP189	ltpFR	7	n/a	n/a	n/a	n/a	4	n/a	n/a	0	0	0	n/a	n/a	n/a	n/a	n/a
235514	START	n/a	LTP189	ltpFR	7	n/a	n/a	n/a	n/a	n/a	n/a	n/a	n/a	n/a	n/a	n/a	n/a	n/a	n/a	n/a
235547	PROB	n/a	LTP189	ltpFR	7	n/a	n/a	n/a	n/a	n/a	n/a	11	5	1	5	n/a	n/a	n/a	n/a	n/a
237744	PROB	n/a	LTP189	ltpFR	7	n/a	n/a	n/a	n/a	n/a	n/a	24	8	8	8	n/a	n/a	n/a	n/a	n/a
240473	PROB	n/a	LTP189	ltpFR	7	n/a	n/a	n/a	n/a	n/a	n/a	15	2	6	7	n/a	n/a	n/a	n/a	n/a
243152	PROB	n/a	LTP189	ltpFR	7	n/a	n/a	n/a	n/a	n/a	n/a	18	5	4	9	n/a	n/a	n/a	n/a	n/a
245366	PROB	n/a	LTP189	ltpFR	7	n/a	n/a	n/a	n/a	n/a	n/a	20	9	5	6	n/a	n/a	n/a	n/a	n/a
247878	PROB	n/a	LTP189	ltpFR	7	n/a	n/a	n/a	n/a	n/a	n/a	16	5	3	8	n/a	n/a	n/a	n/a	n/a
250059	PROB	n/a	LTP189	ltpFR	7	n/a	n/a	n/a	n/a	n/a	n/a	22	8	6	7	n/a	n/a	n/a	n/a	n/a
254181	STOP	n/a	LTP189	ltpFR	7	n/a	n/a	n/a	n/a	n/a	n/a	n/a	n/a	n/a	n/a	n/a	n/a	n/a	n/a	n/a
349344	WORD	wordpools/wasnorm_wordpool_less_exclusions.txt	LTP189	ltpFR	7	1	0	SPONGE	1355	5	0	n/a	0	0	0	1	0.412841796875	0.57763671875	lower	../fonts/zerothre.ttf
353205	WORD	wordpools/wasnorm_wordpool_less_exclusions.txt	LTP189	ltpFR	7	1	0	BATHTUB	100	n/a	1	n/a	0	0	0	1	0.412841796875	0.57763671875	lower	../fonts/zerothre.ttf
357165	WORD	wordpools/wasnorm_wordpool_less_exclusions.txt	LTP189	ltpFR	7	1	0	ROOSTER	1209	n/a	0	n/a	0	0	0	1	0.412841796875	0.57763671875	lower	../fonts/zerothre.ttf
361176	WORD	wordpools/wasnorm_wordpool_less_exclusions.txt	LTP189	ltpFR	7	1	0	ROBIN	1199	n/a	0	n/a	0	0	0	1	0.412841796875	0.57763671875	lower	../fonts/zerothre.ttf
365054	WORD	wordpools/wasnorm_wordpool_less_exclusions.txt	LTP189	ltpFR	7	1	0	SHOWER	1296	n/a	0	n/a	0	0	0	1	0.412841796875	0.57763671875	lower	../fonts/zerothre.ttf
369164	WORD	wordpools/wasnorm_wordpool_less_exclusions.txt	LTP189	ltpFR	7	1	0	ANTELOPE	27	n/a	1	n/a	0	0	0	1	0.412841796875	0.57763671875	lower	../fonts/zerothre.ttf
373075	WORD	wordpools/wasnorm_wordpool_less_exclusions.txt	LTP189	ltpFR	7	1	0	DUCK	504	n/a	0	n/a	0	0	0	1	0.412841796875	0.57763671875	lower	../fonts/zerothre.ttf
377069	WORD	wordpools/wasnorm_wordpool_less_exclusions.txt	LTP189	ltpFR	7	1	0	GAZELLE	628	n/a	1	n/a	0	0	0	1	0.412841796875	0.57763671875	lower	../fonts/zerothre.ttf
381013	WORD	wordpools/wasnorm_wordpool_less_exclusions.txt	LTP189	ltpFR	7	1	0	SOAP	1337	n/a	0	n/a	0	0	0	1	0.412841796875	0.57763671875	lower	../fonts/zerothre.ttf
384973	WORD	wordpools/wasnorm_wordpool_less_exclusions.txt	LTP189	ltpFR	7	1	0	MOOSE	915	n/a	1	n/a	0	0	0	1	0.412841796875	0.57763671875	lower	../fonts/zerothre.ttf
389151	WORD	wordpools/wasnorm_wordpool_less_exclusions.txt	LTP189	ltpFR	7	1	0	TOURIST	1488	n/a	1	n/a	0	0	0	1	0.412841796875	0.57763671875	lower	../fonts/zerothre.ttf
393328	WORD	wordpools/wasnorm_wordpool_less_exclusions.txt	LTP189	ltpFR	7	1	0	CAMERA	224	n/a	0	n/a	0	0	0	1	0.412841796875	0.57763671875	lower	../fonts/zerothre.ttf
397172	WORD	wordpools/wasnorm_wordpool_less_exclusions.txt	LTP189	ltpFR	7	1	0	LIZARD	834	n/a	0	n/a	0	0	0	1	0.412841796875	0.57763671875	lower	../fonts/zerothre.ttf
401017	WORD	wordpools/wasnorm_wordpool_less_exclusions.txt	LTP189	ltpFR	7	1	0	FOX	598	n/a	0	n/a	0	0	0	1	0.412841796875	0.57763671875	lower	../fonts/zerothre.ttf
405077	WORD	wordpools/wasnorm_wordpool_less_exclusions.txt	LTP189	ltpFR	7	1	0	CHAIRPERSON	275	n/a	1	n/a	0	0	0	1	0.412841796875	0.57763671875	lower	../fonts/zerothre.ttf
409238	WORD	wordpools/wasnorm_wordpool_less_exclusions.txt	LTP189	ltpFR	7	1	0	DICTATOR	462	n/a	1	n/a	0	0	0	1	0.412841796875	0.57763671875	lower	../fonts/zerothre.ttf
412250	START	n/a	LTP189	ltpFR	7	n/a	n/a	n/a	n/a	n/a	n/a	n/a	n/a	n/a	n/a	n/a	n/a	n/a	n/a	n/a
413348	PROB	n/a	LTP189	ltpFR	7	n/a	n/a	n/a	n/a	n/a	n/a	12	2	4	6	n/a	n/a	n/a	n/a	n/a
415145	PROB	n/a	LTP189	ltpFR	7	n/a	n/a	n/a	n/a	n/a	n/a	47	7	2	8	n/a	n/a	n/a	n/a	n/a
420250	STOP	n/a	LTP189	ltpFR	7	n/a	n/a	n/a	n/a	n/a	n/a	n/a	n/a	n/a	n/a	n/a	n/a	n/a	n/a	n/a
422152	REC_START	n/a	LTP189	ltpFR	7	1	n/a	n/a	n/a	n/a	n/a	n/a	0	0	0	n/a	n/a	n/a	n/a	n/a
423139	REC_WORD	wordpools/wasnorm_wordpool_less_exclusions.txt	LTP189	ltpFR	7	1	0	ANTELOPE	27	n/a	1	n/a	0	0	0	n/a	n/a	n/a	n/a	n/a
423963	REC_WORD	wordpools/wasnorm_wordpool_less_exclusions.txt	LTP189	ltpFR	7	1	0	GAZELLE	628	n/a	1	n/a	0	0	0	n/a	n/a	n/a	n/a	n/a
424826	REC_WORD	wordpools/wasnorm_wordpool_less_exclusions.txt	LTP189	ltpFR	7	1	0	MOOSE	915	n/a	1	n/a	0	0	0	n/a	n/a	n/a	n/a	n/a
426701	REC_WORD	wordpools/wasnorm_wordpool_less_exclusions.txt	LTP189	ltpFR	7	1	0	SPONGE	1355	n/a	0	n/a	0	0	0	n/a	n/a	n/a	n/a	n/a
428088	REC_WORD	wordpools/wasnorm_wordpool_less_exclusions.txt	LTP189	ltpFR	7	1	0	SOAP	1337	n/a	0	n/a	0	0	0	n/a	n/a	n/a	n/a	n/a
430039	REC_WORD	wordpools/wasnorm_wordpool_less_exclusions.txt	LTP189	ltpFR	7	1	0	BATHTUB	100	n/a	1	n/a	0	0	0	n/a	n/a	n/a	n/a	n/a
444301	REC_WORD	wordpools/wasnorm_wordpool_less_exclusions.txt	LTP189	ltpFR	7	1	0	ROBIN	1199	n/a	0	n/a	0	0	0	n/a	n/a	n/a	n/a	n/a
450762	REC_WORD	wordpools/wasnorm_wordpool_less_exclusions.txt	LTP189	ltpFR	7	1	0	SHOWER	1296	n/a	0	n/a	0	0	0	n/a	n/a	n/a	n/a	n/a
508739	WORD	wordpools/wasnorm_wordpool_less_exclusions.txt	LTP189	ltpFR	7	2	1	LID	817	n/a	1	n/a	0	0	0	0	0.5869140625	0.422607421875	upper	../fonts/amplitud.ttf
512583	WORD	wordpools/wasnorm_wordpool_less_exclusions.txt	LTP189	ltpFR	7	2	1	COLT	349	n/a	1	n/a	0	0	0	0	0.5869140625	0.422607421875	upper	../fonts/amplitud.ttf
516561	WORD	wordpools/wasnorm_wordpool_less_exclusions.txt	LTP189	ltpFR	7	2	1	PAINTER	1004	n/a	1	n/a	0	0	0	0	0.5869140625	0.422607421875	upper	../fonts/amplitud.ttf
520638	WORD	wordpools/wasnorm_wordpool_less_exclusions.txt	LTP189	ltpFR	7	2	1	LOUNGE	845	n/a	1	n/a	0	0	0	0	0.5869140625	0.422607421875	upper	../fonts/amplitud.ttf
524732	WORD	wordpools/wasnorm_wordpool_less_exclusions.txt	LTP189	ltpFR	7	2	1	DIVER	476	n/a	1	n/a	0	0	0	0	0.5869140625	0.422607421875	upper	../fonts/amplitud.ttf
528875	WORD	wordpools/wasnorm_wordpool_less_exclusions.txt	LTP189	ltpFR	7	2	1	MARSH	874	n/a	1	n/a	0	0	0	0	0.5869140625	0.422607421875	upper	../fonts/amplitud.ttf
533069	WORD	wordpools/wasnorm_wordpool_less_exclusions.txt	LTP189	ltpFR	7	2	1	SERVER	1272	n/a	1	n/a	0	0	0	0	0.5869140625	0.422607421875	upper	../fonts/amplitud.ttf
537147	WORD	wordpools/wasnorm_wordpool_less_exclusions.txt	LTP189	ltpFR	7	2	1	SEED	1266	n/a	1	n/a	0	0	0	0	0.5869140625	0.422607421875	upper	../fonts/amplitud.ttf
541324	WORD	wordpools/wasnorm_wordpool_less_exclusions.txt	LTP189	ltpFR	7	2	1	ORCHID	982	n/a	1	n/a	0	0	0	0	0.5869140625	0.422607421875	upper	../fonts/amplitud.ttf
545467	WORD	wordpools/wasnorm_wordpool_less_exclusions.txt	LTP189	ltpFR	7	2	1	CUSTARD	429	n/a	0	n/a	0	0	0	0	0.5869140625	0.422607421875	upper	../fonts/amplitud.ttf
549661	WORD	wordpools/wasnorm_wordpool_less_exclusions.txt	LTP189	ltpFR	7	2	1	TURKEY	1520	n/a	1	n/a	0	0	0	0	0.5869140625	0.422607421875	upper	../fonts/amplitud.ttf
553705	WORD	wordpools/wasnorm_wordpool_less_exclusions.txt	LTP189	ltpFR	7	2	1	DENIM	446	n/a	0	n/a	0	0	0	0	0.5869140625	0.422607421875	upper	../fonts/amplitud.ttf
557633	WORD	wordpools/wasnorm_wordpool_less_exclusions.txt	LTP189	ltpFR	7	2	1	PUMPKIN	1142	n/a	1	n/a	0	0	0	0	0.5869140625	0.422607421875	upper	../fonts/amplitud.ttf
561710	WORD	wordpools/wasnorm_wordpool_less_exclusions.txt	LTP189	ltpFR	7	2	1	OATS	968	n/a	1	n/a	0	0	0	0	0.5869140625	0.422607421875	upper	../fonts/amplitud.ttf
565787	WORD	wordpools/wasnorm_wordpool_less_exclusions.txt	LTP189	ltpFR	7	2	1	TAG	1429	n/a	0	n/a	0	0	0	0	0.5869140625	0.422607421875	upper	../fonts/amplitud.ttf
569815	WORD	wordpools/wasnorm_wordpool_less_exclusions.txt	LTP189	ltpFR	7	2	1	BASKETBALL	96	n/a	0	n/a	0	0	0	0	0.5869140625	0.422607421875	upper	../fonts/amplitud.ttf
572826	START	n/a	LTP189	ltpFR	7	n/a	n/a	n/a	n/a	n/a	n/a	n/a	n/a	n/a	n/a	n/a	n/a	n/a	n/a	n/a
574008	PROB	n/a	LTP189	ltpFR	7	n/a	n/a	n/a	n/a	n/a	n/a	14	3	3	8	n/a	n/a	n/a	n/a	n/a
580826	STOP	n/a	LTP189	ltpFR	7	n/a	n/a	n/a	n/a	n/a	n/a	n/a	n/a	n/a	n/a	n/a	n/a	n/a	n/a	n/a
582712	REC_START	n/a	LTP189	ltpFR	7	2	n/a	n/a	n/a	n/a	n/a	n/a	0	0	0	n/a	n/a	n/a	n/a	n/a
584144	REC_WORD	wordpools/wasnorm_wordpool_less_exclusions.txt	LTP189	ltpFR	7	2	1	OATS	968	n/a	1	n/a	0	0	0	n/a	n/a	n/a	n/a	n/a
584827	REC_WORD	wordpools/wasnorm_wordpool_less_exclusions.txt	LTP189	ltpFR	7	2	1	DENIM	446	n/a	0	n/a	0	0	0	n/a	n/a	n/a	n/a	n/a
585500	REC_WORD	wordpools/wasnorm_wordpool_less_exclusions.txt	LTP189	ltpFR	7	2	1	TAG	1429	n/a	0	n/a	0	0	0	n/a	n/a	n/a	n/a	n/a
588568	REC_WORD	wordpools/wasnorm_wordpool_less_exclusions.txt	LTP189	ltpFR	7	2	1	COLT	349	n/a	1	n/a	0	0	0	n/a	n/a	n/a	n/a	n/a
589182	REC_WORD	wordpools/wasnorm_wordpool_less_exclusions.txt	LTP189	ltpFR	7	2	1	PAINTER	1004	n/a	1	n/a	0	0	0	n/a	n/a	n/a	n/a	n/a
589841	REC_WORD	wordpools/wasnorm_wordpool_less_exclusions.txt	LTP189	ltpFR	7	2	1	LOUNGE	845	n/a	1	n/a	0	0	0	n/a	n/a	n/a	n/a	n/a
590424	REC_WORD	wordpools/wasnorm_wordpool_less_exclusions.txt	LTP189	ltpFR	7	2	1	MARSH	874	n/a	1	n/a	0	0	0	n/a	n/a	n/a	n/a	n/a
593727	REC_WORD	wordpools/wasnorm_wordpool_less_exclusions.txt	LTP189	ltpFR	7	2	1	SEED	1266	n/a	1	n/a	0	0	0	n/a	n/a	n/a	n/a	n/a
594480	REC_WORD	wordpools/wasnorm_wordpool_less_exclusions.txt	LTP189	ltpFR	7	2	1	ORCHID	982	n/a	1	n/a	0	0	0	n/a	n/a	n/a	n/a	n/a
594874	REC_WORD	wordpools/wasnorm_wordpool_less_exclusions.txt	LTP189	ltpFR	7	2	1	SERVER	1272	n/a	1	n/a	0	0	0	n/a	n/a	n/a	n/a	n/a
600307	REC_WORD	wordpools/wasnorm_wordpool_less_exclusions.txt	LTP189	ltpFR	7	2	1	TURKEY	1520	n/a	1	n/a	0	0	0	n/a	n/a	n/a	n/a	n/a
632707	REC_WORD	wordpools/wasnorm_wordpool_less_exclusions.txt	LTP189	ltpFR	7	2	n/a	POOL	1103	n/a	n/a	n/a	0	0	0	n/a	n/a	n/a	n/a	n/a
660163	START	n/a	LTP189	ltpFR	7	n/a	n/a	n/a	n/a	n/a	n/a	n/a	n/a	n/a	n/a	n/a	n/a	n/a	n/a	n/a
661677	PROB	n/a	LTP189	ltpFR	7	n/a	n/a	n/a	n/a	n/a	n/a	8	2	5	1	n/a	n/a	n/a	n/a	n/a
663658	PROB	n/a	LTP189	ltpFR	7	n/a	n/a	n/a	n/a	n/a	n/a	9	3	2	4	n/a	n/a	n/a	n/a	n/a
667293	STOP	n/a	LTP189	ltpFR	7	n/a	n/a	n/a	n/a	n/a	n/a	n/a	n/a	n/a	n/a	n/a	n/a	n/a	n/a	n/a
669100	WORD	wordpools/wasnorm_wordpool_less_exclusions.txt	LTP189	ltpFR	7	3	0	DORM	488	n/a	0	n/a	0	0	0	1	0.412841796875	0.57763671875	lower	../fonts/zerothre.ttf
672112	START	n/a	LTP189	ltpFR	7	n/a	n/a	n/a	n/a	n/a	n/a	n/a	n/a	n/a	n/a	n/a	n/a	n/a	n/a	n/a
673143	PROB	n/a	LTP189	ltpFR	7	n/a	n/a	n/a	n/a	n/a	n/a	22	8	8	6	n/a	n/a	n/a	n/a	n/a
677737	PROB	n/a	LTP189	ltpFR	7	n/a	n/a	n/a	n/a	n/a	n/a	3	1	1	1	n/a	n/a	n/a	n/a	n/a
679053	STOP	n/a	LTP189	ltpFR	7	n/a	n/a	n/a	n/a	n/a	n/a	n/a	n/a	n/a	n/a	n/a	n/a	n/a	n/a	n/a
681248	WORD	wordpools/wasnorm_wordpool_less_exclusions.txt	LTP189	ltpFR	7	3	0	NICOTINE	951	n/a	0	n/a	0	0	0	1	0.412841796875	0.57763671875	lower	../fonts/zerothre.ttf
684261	START	n/a	LTP189	ltpFR	7	n/a	n/a	n/a	n/a	n/a	n/a	n/a	n/a	n/a	n/a	n/a	n/a	n/a	n/a	n/a
685392	PROB	n/a	LTP189	ltpFR	7	n/a	n/a	n/a	n/a	n/a	n/a	6	4	1	1	n/a	n/a	n/a	n/a	n/a
686939	PROB	n/a	LTP189	ltpFR	7	n/a	n/a	n/a	n/a	n/a	n/a	20	6	9	5	n/a	n/a	n/a	n/a	n/a
692261	STOP	n/a	LTP189	ltpFR	7	n/a	n/a	n/a	n/a	n/a	n/a	n/a	n/a	n/a	n/a	n/a	n/a	n/a	n/a	n/a
693130	WORD	wordpools/wasnorm_wordpool_less_exclusions.txt	LTP189	ltpFR	7	3	0	ENVELOPE	537	n/a	0	n/a	0	0	0	1	0.412841796875	0.57763671875	lower	../fonts/zerothre.ttf
696143	START	n/a	LTP189	ltpFR	7	n/a	n/a	n/a	n/a	n/a	n/a	n/a	n/a	n/a	n/a	n/a	n/a	n/a	n/a	n/a
697141	PROB	n/a	LTP189	ltpFR	7	n/a	n/a	n/a	n/a	n/a	n/a	6	1	4	1	n/a	n/a	n/a	n/a	n/a
698821	PROB	n/a	LTP189	ltpFR	7	n/a	n/a	n/a	n/a	n/a	n/a	15	5	3	7	n/a	n/a	n/a	n/a	n/a
701118	PROB	n/a	LTP189	ltpFR	7	n/a	n/a	n/a	n/a	n/a	n/a	10	6	2	4	n/a	n/a	n/a	n/a	n/a
703773	STOP	n/a	LTP189	ltpFR	7	n/a	n/a	n/a	n/a	n/a	n/a	n/a	n/a	n/a	n/a	n/a	n/a	n/a	n/a	n/a
705112	WORD	wordpools/wasnorm_wordpool_less_exclusions.txt	LTP189	ltpFR	7	3	0	RATTLE	1170	n/a	0	n/a	0	0	0	1	0.412841796875	0.57763671875	lower	../fonts/zerothre.ttf
708125	START	n/a	LTP189	ltpFR	7	n/a	n/a	n/a	n/a	n/a	n/a	n/a	n/a	n/a	n/a	n/a	n/a	n/a	n/a	n/a
708956	PROB	n/a	LTP189	ltpFR	7	n/a	n/a	n/a	n/a	n/a	n/a	14	1	4	9	n/a	n/a	n/a	n/a	n/a
711603	PROB	n/a	LTP189	ltpFR	7	n/a	n/a	n/a	n/a	n/a	n/a	13	4	2	7	n/a	n/a	n/a	n/a	n/a
716125	STOP	n/a	LTP189	ltpFR	7	n/a	n/a	n/a	n/a	n/a	n/a	n/a	n/a	n/a	n/a	n/a	n/a	n/a	n/a	n/a
717028	WORD	wordpools/wasnorm_wordpool_less_exclusions.txt	LTP189	ltpFR	7	3	0	POWDER	1117	n/a	0	n/a	0	0	0	1	0.412841796875	0.57763671875	lower	../fonts/zerothre.ttf
720040	START	n/a	LTP189	ltpFR	7	n/a	n/a	n/a	n/a	n/a	n/a	n/a	n/a	n/a	n/a	n/a	n/a	n/a	n/a	n/a
720921	PROB	n/a	LTP189	ltpFR	7	n/a	n/a	n/a	n/a	n/a	n/a	11	8	2	1	n/a	n/a	n/a	n/a	n/a
728040	STOP	n/a	LTP189	ltpFR	7	n/a	n/a	n/a	n/a	n/a	n/a	n/a	n/a	n/a	n/a	n/a	n/a	n/a	n/a	n/a
728959	WORD	wordpools/wasnorm_wordpool_less_exclusions.txt	LTP189	ltpFR	7	3	0	OWNER	993	n/a	0	n/a	0	0	0	1	0.412841796875	0.57763671875	lower	../fonts/zerothre.ttf
731972	START	n/a	LTP189	ltpFR	7	n/a	n/a	n/a	n/a	n/a	n/a	n/a	n/a	n/a	n/a	n/a	n/a	n/a	n/a	n/a
732837	PROB	n/a	LTP189	ltpFR	7	n/a	n/a	n/a	n/a	n/a	n/a	16	8	5	3	n/a	n/a	n/a	n/a	n/a
734983	PROB	n/a	LTP189	ltpFR	7	n/a	n/a	n/a	n/a	n/a	n/a	18	4	6	8	n/a	n/a	n/a	n/a	n/a
737181	PROB	n/a	LTP189	ltpFR	7	n/a	n/a	n/a	n/a	n/a	n/a	21	5	8	8	n/a	n/a	n/a	n/a	n/a
739605	STOP	n/a	LTP189	ltpFR	7	n/a	n/a	n/a	n/a	n/a	n/a	n/a	n/a	n/a	n/a	n/a	n/a	n/a	n/a	n/a
740908	WORD	wordpools/wasnorm_wordpool_less_exclusions.txt	LTP189	ltpFR	7	3	0	PERSONNEL	1053	n/a	0	n/a	0	0	0	1	0.412841796875	0.57763671875	lower	../fonts/zerothre.ttf
743920	START	n/a	LTP189	ltpFR	7	n/a	n/a	n/a	n/a	n/a	n/a	n/a	n/a	n/a	n/a	n/a	n/a	n/a	n/a	n/a
744902	PROB	n/a	LTP189	ltpFR	7	n/a	n/a	n/a	n/a	n/a	n/a	11	2	3	6	n/a	n/a	n/a	n/a	n/a
747133	PROB	n/a	LTP189	ltpFR	7	n/a	n/a	n/a	n/a	n/a	n/a	1	7	5	1	n/a	n/a	n/a	n/a	n/a
751920	STOP	n/a	LTP189	ltpFR	7	n/a	n/a	n/a	n/a	n/a	n/a	n/a	n/a	n/a	n/a	n/a	n/a	n/a	n/a	n/a
752991	WORD	wordpools/wasnorm_wordpool_less_exclusions.txt	LTP189	ltpFR	7	3	0	KITE	779	n/a	0	n/a	0	0	0	1	0.412841796875	0.57763671875	lower	../fonts/zerothre.ttf
756003	START	n/a	LTP189	ltpFR	7	n/a	n/a	n/a	n/a	n/a	n/a	n/a	n/a	n/a	n/a	n/a	n/a	n/a	n/a	n/a
757118	PROB	n/a	LTP189	ltpFR	7	n/a	n/a	n/a	n/a	n/a	n/a	9	4	3	2	n/a	n/a	n/a	n/a	n/a
759863	PROB	n/a	LTP189	ltpFR	7	n/a	n/a	n/a	n/a	n/a	n/a	16	4	9	3	n/a	n/a	n/a	n/a	n/a
763237	STOP	n/a	LTP189	ltpFR	7	n/a	n/a	n/a	n/a	n/a	n/a	n/a	n/a	n/a	n/a	n/a	n/a	n/a	n/a	n/a
764905	WORD	wordpools/wasnorm_wordpool_less_exclusions.txt	LTP189	ltpFR	7	3	0	NOTE	958	n/a	0	n/a	0	0	0	1	0.412841796875	0.57763671875	lower	../fonts/zerothre.ttf
767918	START	n/a	LTP189	ltpFR	7	n/a	n/a	n/a	n/a	n/a	n/a	n/a	n/a	n/a	n/a	n/a	n/a	n/a	n/a	n/a
768833	PROB	n/a	LTP189	ltpFR	7	n/a	n/a	n/a	n/a	n/a	n/a	7	1	2	4	n/a	n/a	n/a	n/a	n/a
770963	PROB	n/a	LTP189	ltpFR	7	n/a	n/a	n/a	n/a	n/a	n/a	11	4	5	2	n/a	n/a	n/a	n/a	n/a
773127	PROB	n/a	LTP189	ltpFR	7	n/a	n/a	n/a	n/a	n/a	n/a	12	4	2	6	n/a	n/a	n/a	n/a	n/a
775469	STOP	n/a	LTP189	ltpFR	7	n/a	n/a	n/a	n/a	n/a	n/a	n/a	n/a	n/a	n/a	n/a	n/a	n/a	n/a	n/a
776971	WORD	wordpools/wasnorm_wordpool_less_exclusions.txt	LTP189	ltpFR	7	3	0	KLEENEX	782	n/a	0	n/a	0	0	0	1	0.412841796875	0.57763671875	lower	../fonts/zerothre.ttf
779983	START	n/a	LTP189	ltpFR	7	n/a	n/a	n/a	n/a	n/a	n/a	n/a	n/a	n/a	n/a	n/a	n/a	n/a	n/a	n/a
780948	PROB	n/a	LTP189	ltpFR	7	n/a	n/a	n/a	n/a	n/a	n/a	18	4	8	6	n/a	n/a	n/a	n/a	n/a
787972	STOP	n/a	LTP189	ltpFR	7	n/a	n/a	n/a	n/a	n/a	n/a	n/a	n/a	n/a	n/a	n/a	n/a	n/a	n/a	n/a
789104	WORD	wordpools/wasnorm_wordpool_less_exclusions.txt	LTP189	ltpFR	7	3	0	INSTRUCTOR	741	n/a	0	n/a	0	0	0	1	0.412841796875	0.57763671875	lower	../fonts/zerothre.ttf
792116	START	n/a	LTP189	ltpFR	7	n/a	n/a	n/a	n/a	n/a	n/a	n/a	n/a	n/a	n/a	n/a	n/a	n/a	n/a	n/a
793048	PROB	n/a	LTP189	ltpFR	7	n/a	n/a	n/a	n/a	n/a	n/a	20	9	3	8	n/a	n/a	n/a	n/a	n/a
795660	PROB	n/a	LTP189	ltpFR	7	n/a	n/a	n/a	n/a	n/a	n/a	13	5	3	5	n/a	n/a	n/a	n/a	n/a
799133	STOP	n/a	LTP189	ltpFR	7	n/a	n/a	n/a	n/a	n/a	n/a	n/a	n/a	n/a	n/a	n/a	n/a	n/a	n/a	n/a
801052	WORD	wordpools/wasnorm_wordpool_less_exclusions.txt	LTP189	ltpFR	7	3	0	CATERPILLAR	259	n/a	0	n/a	0	0	0	1	0.412841796875	0.57763671875	lower	../fonts/zerothre.ttf
804065	START	n/a	LTP189	ltpFR	7	n/a	n/a	n/a	n/a	n/a	n/a	n/a	n/a	n/a	n/a	n/a	n/a	n/a	n/a	n/a
805180	PROB	n/a	LTP189	ltpFR	7	n/a	n/a	n/a	n/a	n/a	n/a	13	4	4	5	n/a	n/a	n/a	n/a	n/a
812064	STOP	n/a	LTP189	ltpFR	7	n/a	n/a	n/a	n/a	n/a	n/a	n/a	n/a	n/a	n/a	n/a	n/a	n/a	n/a	n/a
813234	WORD	wordpools/wasnorm_wordpool_less_exclusions.txt	LTP189	ltpFR	7	3	0	WITNESS	1618	n/a	0	n/a	0	0	0	1	0.412841796875	0.57763671875	lower	../fonts/zerothre.ttf
816247	START	n/a	LTP189	ltpFR	7	n/a	n/a	n/a	n/a	n/a	n/a	n/a	n/a	n/a	n/a	n/a	n/a	n/a	n/a	n/a
817445	PROB	n/a	LTP189	ltpFR	7	n/a	n/a	n/a	n/a	n/a	n/a	9	1	7	1	n/a	n/a	n/a	n/a	n/a
818842	PROB	n/a	LTP189	ltpFR	7	n/a	n/a	n/a	n/a	n/a	n/a	11	4	6	1	n/a	n/a	n/a	n/a	n/a
820390	PROB	n/a	LTP189	ltpFR	7	n/a	n/a	n/a	n/a	n/a	n/a	12	3	3	5	n/a	n/a	n/a	n/a	n/a
823069	STOP	n/a	LTP189	ltpFR	7	n/a	n/a	n/a	n/a	n/a	n/a	n/a	n/a	n/a	n/a	n/a	n/a	n/a	n/a	n/a
825383	WORD	wordpools/wasnorm_wordpool_less_exclusions.txt	LTP189	ltpFR	7	3	0	COURT	391	n/a	0	n/a	0	0	0	1	0.412841796875	0.57763671875	lower	../fonts/zerothre.ttf
828395	START	n/a	LTP189	ltpFR	7	n/a	n/a	n/a	n/a	n/a	n/a	n/a	n/a	n/a	n/a	n/a	n/a	n/a	n/a	n/a
829210	PROB	n/a	LTP189	ltpFR	7	n/a	n/a	n/a	n/a	n/a	n/a	13	4	4	5	n/a	n/a	n/a	n/a	n/a
833354	PROB	n/a	LTP189	ltpFR	7	n/a	n/a	n/a	n/a	n/a	n/a	17	9	7	1	n/a	n/a	n/a	n/a	n/a
835653	STOP	n/a	LTP189	ltpFR	7	n/a	n/a	n/a	n/a	n/a	n/a	n/a	n/a	n/a	n/a	n/a	n/a	n/a	n/a	n/a
837348	WORD	wordpools/wasnorm_wordpool_less_exclusions.txt	LTP189	ltpFR	7	3	0	EGG	518	n/a	0	n/a	0	0	0	1	0.412841796875	0.57763671875	lower	../fonts/zerothre.ttf
840361	START	n/a	LTP189	ltpFR	7	n/a	n/a	n/a	n/a	n/a	n/a	n/a	n/a	n/a	n/a	n/a	n/a	n/a	n/a	n/a
841226	PROB	n/a	LTP189	ltpFR	7	n/a	n/a	n/a	n/a	n/a	n/a	15	5	4	6	n/a	n/a	n/a	n/a	n/a
843189	PROB	n/a	LTP189	ltpFR	7	n/a	n/a	n/a	n/a	n/a	n/a	17	5	6	6	n/a	n/a	n/a	n/a	n/a
846252	PROB	n/a	LTP189	ltpFR	7	n/a	n/a	n/a	n/a	n/a	n/a	14	4	5	5	n/a	n/a	n/a	n/a	n/a
848061	STOP	n/a	LTP189	ltpFR	7	n/a	n/a	n/a	n/a	n/a	n/a	n/a	n/a	n/a	n/a	n/a	n/a	n/a	n/a	n/a
849347	WORD	wordpools/wasnorm_wordpool_less_exclusions.txt	LTP189	ltpFR	7	3	0	HEN	703	n/a	0	n/a	0	0	0	1	0.412841796875	0.57763671875	lower	../fonts/zerothre.ttf
852359	START	n/a	LTP189	ltpFR	7	n/a	n/a	n/a	n/a	n/a	n/a	n/a	n/a	n/a	n/a	n/a	n/a	n/a	n/a	n/a
853341	PROB	n/a	LTP189	ltpFR	7	n/a	n/a	n/a	n/a	n/a	n/a	14	7	4	3	n/a	n/a	n/a	n/a	n/a
855771	PROB	n/a	LTP189	ltpFR	7	n/a	n/a	n/a	n/a	n/a	n/a	9	2	4	3	n/a	n/a	n/a	n/a	n/a
859213	STOP	n/a	LTP189	ltpFR	7	n/a	n/a	n/a	n/a	n/a	n/a	n/a	n/a	n/a	n/a	n/a	n/a	n/a	n/a	n/a
862162	REC_START	n/a	LTP189	ltpFR	7	3	n/a	n/a	n/a	n/a	n/a	n/a	0	0	0	n/a	n/a	n/a	n/a	n/a
863643	REC_WORD	wordpools/wasnorm_wordpool_less_exclusions.txt	LTP189	ltpFR	7	3	0	COURT	391	n/a	0	n/a	0	0	0	n/a	n/a	n/a	n/a	n/a
864417	REC_WORD	wordpools/wasnorm_wordpool_less_exclusions.txt	LTP189	ltpFR	7	3	0	RATTLE	1170	n/a	0	n/a	0	0	0	n/a	n/a	n/a	n/a	n/a
865564	REC_WORD	wordpools/wasnorm_wordpool_less_exclusions.txt	LTP189	ltpFR	7	3	0	HEN	703	n/a	0	n/a	0	0	0	n/a	n/a	n/a	n/a	n/a
960614	START	n/a	LTP189	ltpFR	7	n/a	n/a	n/a	n/a	n/a	n/a	n/a	n/a	n/a	n/a	n/a	n/a	n/a	n/a	n/a
962128	PROB	n/a	LTP189	ltpFR	7	n/a	n/a	n/a	n/a	n/a	n/a	19	4	9	6	n/a	n/a	n/a	n/a	n/a
964991	PROB	n/a	LTP189	ltpFR	7	n/a	n/a	n/a	n/a	n/a	n/a	18	4	5	9	n/a	n/a	n/a	n/a	n/a
967229	STOP	n/a	LTP189	ltpFR	7	n/a	n/a	n/a	n/a	n/a	n/a	n/a	n/a	n/a	n/a	n/a	n/a	n/a	n/a	n/a
969451	WORD	wordpools/wasnorm_wordpool_less_exclusions.txt	LTP189	ltpFR	7	4	1	BOXER	160	n/a	1	n/a	0	0	0	0	0.5869140625	0.422607421875	upper	../fonts/amplitud.ttf
972463	START	n/a	LTP189	ltpFR	7	n/a	n/a	n/a	n/a	n/a	n/a	n/a	n/a	n/a	n/a	n/a	n/a	n/a	n/a	n/a
973462	PROB	n/a	LTP189	ltpFR	7	n/a	n/a	n/a	n/a	n/a	n/a	6	3	2	1	n/a	n/a	n/a	n/a	n/a
975042	PROB	n/a	LTP189	ltpFR	7	n/a	n/a	n/a	n/a	n/a	n/a	10	7	2	1	n/a	n/a	n/a	n/a	n/a
979045	STOP	n/a	LTP189	ltpFR	7	n/a	n/a	n/a	n/a	n/a	n/a	n/a	n/a	n/a	n/a	n/a	n/a	n/a	n/a	n/a
981649	WORD	wordpools/wasnorm_wordpool_less_exclusions.txt	LTP189	ltpFR	7	4	1	CITRUS	313	n/a	0	n/a	0	0	0	0	0.5869140625	0.422607421875	upper	../fonts/amplitud.ttf
984662	START	n/a	LTP189	ltpFR	7	n/a	n/a	n/a	n/a	n/a	n/a	n/a	n/a	n/a	n/a	n/a	n/a	n/a	n/a	n/a
985859	PROB	n/a	LTP189	ltpFR	7	n/a	n/a	n/a	n/a	n/a	n/a	16	6	9	1	n/a	n/a	n/a	n/a	n/a
987822	PROB	n/a	LTP189	ltpFR	7	n/a	n/a	n/a	n/a	n/a	n/a	16	6	4	6	n/a	n/a	n/a	n/a	n/a
989953	PROB	n/a	LTP189	ltpFR	7	n/a	n/a	n/a	n/a	n/a	n/a	20	5	6	9	n/a	n/a	n/a	n/a	n/a
992485	STOP	n/a	LTP189	ltpFR	7	n/a	n/a	n/a	n/a	n/a	n/a	n/a	n/a	n/a	n/a	n/a	n/a	n/a	n/a	n/a
993748	WORD	wordpools/wasnorm_wordpool_less_exclusions.txt	LTP189	ltpFR	7	4	1	RICE	1190	n/a	1	n/a	0	0	0	0	0.5869140625	0.422607421875	upper	../fonts/amplitud.ttf
996761	START	n/a	LTP189	ltpFR	7	n/a	n/a	n/a	n/a	n/a	n/a	n/a	n/a	n/a	n/a	n/a	n/a	n/a	n/a	n/a
997974	PROB	n/a	LTP189	ltpFR	7	n/a	n/a	n/a	n/a	n/a	n/a	8	4	1	3	n/a	n/a	n/a	n/a	n/a
1000870	PROB	n/a	LTP189	ltpFR	7	n/a	n/a	n/a	n/a	n/a	n/a	12	6	5	1	n/a	n/a	n/a	n/a	n/a
1004761	STOP	n/a	LTP189	ltpFR	7	n/a	n/a	n/a	n/a	n/a	n/a	n/a	n/a	n/a	n/a	n/a	n/a	n/a	n/a	n/a
1005730	WORD	wordpools/wasnorm_wordpool_less_exclusions.txt	LTP189	ltpFR	7	4	1	MOAT	903	n/a	0	n/a	0	0	0	0	0.5869140625	0.422607421875	upper	../fonts/amplitud.ttf
1008743	START	n/a	LTP189	ltpFR	7	n/a	n/a	n/a	n/a	n/a	n/a	n/a	n/a	n/a	n/a	n/a	n/a	n/a	n/a	n/a
1009939	PROB	n/a	LTP189	ltpFR	7	n/a	n/a	n/a	n/a	n/a	n/a	10	2	1	7	n/a	n/a	n/a	n/a	n/a
1016742	STOP	n/a	LTP189	ltpFR	7	n/a	n/a	n/a	n/a	n/a	n/a	n/a	n/a	n/a	n/a	n/a	n/a	n/a	n/a	n/a
1017828	WORD	wordpools/wasnorm_wordpool_less_exclusions.txt	LTP189	ltpFR	7	4	1	REEF	1177	n/a	0	n/a	0	0	0	0	0.5869140625	0.422607421875	upper	../fonts/amplitud.ttf
1020840	START	n/a	LTP189	ltpFR	7	n/a	n/a	n/a	n/a	n/a	n/a	n/a	n/a	n/a	n/a	n/a	n/a	n/a	n/a	n/a
1021689	PROB	n/a	LTP189	ltpFR	7	n/a	n/a	n/a	n/a	n/a	n/a	11	1	3	7	n/a	n/a	n/a	n/a	n/a
1025617	PROB	n/a	LTP189	ltpFR	7	n/a	n/a	n/a	n/a	n/a	n/a	4	2	1	1	n/a	n/a	n/a	n/a	n/a
1027293	STOP	n/a	LTP189	ltpFR	7	n/a	n/a	n/a	n/a	n/a	n/a	n/a	n/a	n/a	n/a	n/a	n/a	n/a	n/a	n/a
1029843	WORD	wordpools/wasnorm_wordpool_less_exclusions.txt	LTP189	ltpFR	7	4	1	SALMON	1227	n/a	1	n/a	0	0	0	0	0.5869140625	0.422607421875	upper	../fonts/amplitud.ttf
1032856	START	n/a	LTP189	ltpFR	7	n/a	n/a	n/a	n/a	n/a	n/a	n/a	n/a	n/a	n/a	n/a	n/a	n/a	n/a	n/a
1034054	PROB	n/a	LTP189	ltpFR	7	n/a	n/a	n/a	n/a	n/a	n/a	16	3	9	4	n/a	n/a	n/a	n/a	n/a
1036800	PROB	n/a	LTP189	ltpFR	7	n/a	n/a	n/a	n/a	n/a	n/a	17	9	6	2	n/a	n/a	n/a	n/a	n/a
1040669	STOP	n/a	LTP189	ltpFR	7	n/a	n/a	n/a	n/a	n/a	n/a	n/a	n/a	n/a	n/a	n/a	n/a	n/a	n/a	n/a
1041875	WORD	wordpools/wasnorm_wordpool_less_exclusions.txt	LTP189	ltpFR	7	4	1	COP	376	n/a	1	n/a	0	0	0	0	0.5869140625	0.422607421875	upper	../fonts/amplitud.ttf
1044888	START	n/a	LTP189	ltpFR	7	n/a	n/a	n/a	n/a	n/a	n/a	n/a	n/a	n/a	n/a	n/a	n/a	n/a	n/a	n/a
1045869	PROB	n/a	LTP189	ltpFR	7	n/a	n/a	n/a	n/a	n/a	n/a	11	4	6	1	n/a	n/a	n/a	n/a	n/a
1047484	PROB	n/a	LTP189	ltpFR	7	n/a	n/a	n/a	n/a	n/a	n/a	15	7	3	5	n/a	n/a	n/a	n/a	n/a
1052888	STOP	n/a	LTP189	ltpFR	7	n/a	n/a	n/a	n/a	n/a	n/a	n/a	n/a	n/a	n/a	n/a	n/a	n/a	n/a	n/a
1053924	WORD	wordpools/wasnorm_wordpool_less_exclusions.txt	LTP189	ltpFR	7	4	1	COYOTE	396	n/a	1	n/a	0	0	0	0	0.5869140625	0.422607421875	upper	../fonts/amplitud.ttf
1056936	START	n/a	LTP189	ltpFR	7	n/a	n/a	n/a	n/a	n/a	n/a	n/a	n/a	n/a	n/a	n/a	n/a	n/a	n/a	n/a
1057951	PROB	n/a	LTP189	ltpFR	7	n/a	n/a	n/a	n/a	n/a	n/a	17	5	9	3	n/a	n/a	n/a	n/a	n/a
1060615	PROB	n/a	LTP189	ltpFR	7	n/a	n/a	n/a	n/a	n/a	n/a	16	7	4	5	n/a	n/a	n/a	n/a	n/a
1063773	STOP	n/a	LTP189	ltpFR	7	n/a	n/a	n/a	n/a	n/a	n/a	n/a	n/a	n/a	n/a	n/a	n/a	n/a	n/a	n/a
1065823	WORD	wordpools/wasnorm_wordpool_less_exclusions.txt	LTP189	ltpFR	7	4	1	GLOVE	642	n/a	0	n/a	0	0	0	0	0.5869140625	0.422607421875	upper	../fonts/amplitud.ttf
1068835	START	n/a	LTP189	ltpFR	7	n/a	n/a	n/a	n/a	n/a	n/a	n/a	n/a	n/a	n/a	n/a	n/a	n/a	n/a	n/a
1070034	PROB	n/a	LTP189	ltpFR	7	n/a	n/a	n/a	n/a	n/a	n/a	11	1	2	8	n/a	n/a	n/a	n/a	n/a
1071682	PROB	n/a	LTP189	ltpFR	7	n/a	n/a	n/a	n/a	n/a	n/a	18	3	6	9	n/a	n/a	n/a	n/a	n/a
1076835	STOP	n/a	LTP189	ltpFR	7	n/a	n/a	n/a	n/a	n/a	n/a	n/a	n/a	n/a	n/a	n/a	n/a	n/a	n/a	n/a
1077673	WORD	wordpools/wasnorm_wordpool_less_exclusions.txt	LTP189	ltpFR	7	4	1	SHRIMP	1297	n/a	1	n/a	0	0	0	0	0.5869140625	0.422607421875	upper	../fonts/amplitud.ttf
1080685	START	n/a	LTP189	ltpFR	7	n/a	n/a	n/a	n/a	n/a	n/a	n/a	n/a	n/a	n/a	n/a	n/a	n/a	n/a	n/a
1081882	PROB	n/a	LTP189	ltpFR	7	n/a	n/a	n/a	n/a	n/a	n/a	14	7	5	2	n/a	n/a	n/a	n/a	n/a
1083945	PROB	n/a	LTP189	ltpFR	7	n/a	n/a	n/a	n/a	n/a	n/a	11	6	2	3	n/a	n/a	n/a	n/a	n/a
1087173	STOP	n/a	LTP189	ltpFR	7	n/a	n/a	n/a	n/a	n/a	n/a	n/a	n/a	n/a	n/a	n/a	n/a	n/a	n/a	n/a
1089853	WORD	wordpools/wasnorm_wordpool_less_exclusions.txt	LTP189	ltpFR	7	4	1	DEPARTMENT	449	n/a	0	n/a	0	0	0	0	0.5869140625	0.422607421875	upper	../fonts/amplitud.ttf
1092866	START	n/a	LTP189	ltpFR	7	n/a	n/a	n/a	n/a	n/a	n/a	n/a	n/a	n/a	n/a	n/a	n/a	n/a	n/a	n/a
1093964	PROB	n/a	LTP189	ltpFR	7	n/a	n/a	n/a	n/a	n/a	n/a	22	9	6	7	n/a	n/a	n/a	n/a	n/a
1100866	STOP	n/a	LTP189	ltpFR	7	n/a	n/a	n/a	n/a	n/a	n/a	n/a	n/a	n/a	n/a	n/a	n/a	n/a	n/a	n/a
1101803	WORD	wordpools/wasnorm_wordpool_less_exclusions.txt	LTP189	ltpFR	7	4	1	DANDELION	438	n/a	1	n/a	0	0	0	0	0.5869140625	0.422607421875	upper	../fonts/amplitud.ttf
1104815	START	n/a	LTP189	ltpFR	7	n/a	n/a	n/a	n/a	n/a	n/a	n/a	n/a	n/a	n/a	n/a	n/a	n/a	n/a	n/a
1105979	PROB	n/a	LTP189	ltpFR	7	n/a	n/a	n/a	n/a	n/a	n/a	21	7	5	9	n/a	n/a	n/a	n/a	n/a
1112815	STOP	n/a	LTP189	ltpFR	7	n/a	n/a	n/a	n/a	n/a	n/a	n/a	n/a	n/a	n/a	n/a	n/a	n/a	n/a	n/a
1113834	WORD	wordpools/wasnorm_wordpool_less_exclusions.txt	LTP189	ltpFR	7	4	1	VASE	1549	n/a	0	n/a	0	0	0	0	0.5869140625	0.422607421875	upper	../fonts/amplitud.ttf
1116847	START	n/a	LTP189	ltpFR	7	n/a	n/a	n/a	n/a	n/a	n/a	n/a	n/a	n/a	n/a	n/a	n/a	n/a	n/a	n/a
1117828	PROB	n/a	LTP189	ltpFR	7	n/a	n/a	n/a	n/a	n/a	n/a	13	1	6	6	n/a	n/a	n/a	n/a	n/a
1119676	PROB	n/a	LTP189	ltpFR	7	n/a	n/a	n/a	n/a	n/a	n/a	13	4	2	7	n/a	n/a	n/a	n/a	n/a
1124847	STOP	n/a	LTP189	ltpFR	7	n/a	n/a	n/a	n/a	n/a	n/a	n/a	n/a	n/a	n/a	n/a	n/a	n/a	n/a	n/a
1125866	WORD	wordpools/wasnorm_wordpool_less_exclusions.txt	LTP189	ltpFR	7	4	1	LETTUCE	814	n/a	1	n/a	0	0	0	0	0.5869140625	0.422607421875	upper	../fonts/amplitud.ttf
1128879	START	n/a	LTP189	ltpFR	7	n/a	n/a	n/a	n/a	n/a	n/a	n/a	n/a	n/a	n/a	n/a	n/a	n/a	n/a	n/a
1129860	PROB	n/a	LTP189	ltpFR	7	n/a	n/a	n/a	n/a	n/a	n/a	12	3	1	8	n/a	n/a	n/a	n/a	n/a
1131924	PROB	n/a	LTP189	ltpFR	7	n/a	n/a	n/a	n/a	n/a	n/a	12	6	2	4	n/a	n/a	n/a	n/a	n/a
1134271	PROB	n/a	LTP189	ltpFR	7	n/a	n/a	n/a	n/a	n/a	n/a	8	3	2	3	n/a	n/a	n/a	n/a	n/a
1136789	STOP	n/a	LTP189	ltpFR	7	n/a	n/a	n/a	n/a	n/a	n/a	n/a	n/a	n/a	n/a	n/a	n/a	n/a	n/a	n/a
1137932	WORD	wordpools/wasnorm_wordpool_less_exclusions.txt	LTP189	ltpFR	7	4	1	TIGER	1467	n/a	1	n/a	0	0	0	0	0.5869140625	0.422607421875	upper	../fonts/amplitud.ttf
1140944	START	n/a	LTP189	ltpFR	7	n/a	n/a	n/a	n/a	n/a	n/a	n/a	n/a	n/a	n/a	n/a	n/a	n/a	n/a	n/a
1142110	PROB	n/a	LTP189	ltpFR	7	n/a	n/a	n/a	n/a	n/a	n/a	6	2	1	3	n/a	n/a	n/a	n/a	n/a
1143607	PROB	n/a	LTP189	ltpFR	7	n/a	n/a	n/a	n/a	n/a	n/a	17	8	3	6	n/a	n/a	n/a	n/a	n/a
1146387	PROB	n/a	LTP189	ltpFR	7	n/a	n/a	n/a	n/a	n/a	n/a	14	4	1	9	n/a	n/a	n/a	n/a	n/a
1148493	STOP	n/a	LTP189	ltpFR	7	n/a	n/a	n/a	n/a	n/a	n/a	n/a	n/a	n/a	n/a	n/a	n/a	n/a	n/a	n/a
1149998	WORD	wordpools/wasnorm_wordpool_less_exclusions.txt	LTP189	ltpFR	7	4	1	MOUSE	925	n/a	1	n/a	0	0	0	0	0.5869140625	0.422607421875	upper	../fonts/amplitud.ttf
1153010	START	n/a	LTP189	ltpFR	7	n/a	n/a	n/a	n/a	n/a	n/a	n/a	n/a	n/a	n/a	n/a	n/a	n/a	n/a	n/a
1154192	PROB	n/a	LTP189	ltpFR	7	n/a	n/a	n/a	n/a	n/a	n/a	21	7	7	7	n/a	n/a	n/a	n/a	n/a
1156488	PROB	n/a	LTP189	ltpFR	7	n/a	n/a	n/a	n/a	n/a	n/a	12	1	5	6	n/a	n/a	n/a	n/a	n/a
1158552	PROB	n/a	LTP189	ltpFR	7	n/a	n/a	n/a	n/a	n/a	n/a	15	5	9	1	n/a	n/a	n/a	n/a	n/a
1160325	STOP	n/a	LTP189	ltpFR	7	n/a	n/a	n/a	n/a	n/a	n/a	n/a	n/a	n/a	n/a	n/a	n/a	n/a	n/a	n/a
1162928	REC_START	n/a	LTP189	ltpFR	7	4	n/a	n/a	n/a	n/a	n/a	n/a	0	0	0	n/a	n/a	n/a	n/a	n/a
1164045	REC_WORD	wordpools/wasnorm_wordpool_less_exclusions.txt	LTP189	ltpFR	7	4	1	CITRUS	313	n/a	0	n/a	0	0	0	n/a	n/a	n/a	n/a	n/a
1164823	REC_WORD	wordpools/wasnorm_wordpool_less_exclusions.txt	LTP189	ltpFR	7	4	1	MOUSE	925	n/a	1	n/a	0	0	0	n/a	n/a	n/a	n/a	n/a
1165467	REC_WORD	wordpools/wasnorm_wordpool_less_exclusions.txt	LTP189	ltpFR	7	4	1	BOXER	160	n/a	1	n/a	0	0	0	n/a	n/a	n/a	n/a	n/a
1166774	REC_WORD	wordpools/wasnorm_wordpool_less_exclusions.txt	LTP189	ltpFR	7	4	1	SALMON	1227	n/a	1	n/a	0	0	0	n/a	n/a	n/a	n/a	n/a
1168405	REC_WORD	wordpools/wasnorm_wordpool_less_exclusions.txt	LTP189	ltpFR	7	4	1	SHRIMP	1297	n/a	1	n/a	0	0	0	n/a	n/a	n/a	n/a	n/a
1169004	REC_WORD	wordpools/wasnorm_wordpool_less_exclusions.txt	LTP189	ltpFR	7	4	1	COP	376	n/a	1	n/a	0	0	0	n/a	n/a	n/a	n/a	n/a
1169564	REC_WORD	wordpools/wasnorm_wordpool_less_exclusions.txt	LTP189	ltpFR	7	4	1	GLOVE	642	n/a	0	n/a	0	0	0	n/a	n/a	n/a	n/a	n/a
1170361	REC_WORD	wordpools/wasnorm_wordpool_less_exclusions.txt	LTP189	ltpFR	7	4	1	DEPARTMENT	449	n/a	0	n/a	0	0	0	n/a	n/a	n/a	n/a	n/a
1171338	REC_WORD	wordpools/wasnorm_wordpool_less_exclusions.txt	LTP189	ltpFR	7	4	1	VASE	1549	n/a	0	n/a	0	0	0	n/a	n/a	n/a	n/a	n/a
1271467	START	n/a	LTP189	ltpFR	7	n/a	n/a	n/a	n/a	n/a	n/a	n/a	n/a	n/a	n/a	n/a	n/a	n/a	n/a	n/a
1272980	PROB	n/a	LTP189	ltpFR	7	n/a	n/a	n/a	n/a	n/a	n/a	14	4	2	8	n/a	n/a	n/a	n/a	n/a
1275427	PROB	n/a	LTP189	ltpFR	7	n/a	n/a	n/a	n/a	n/a	n/a	13	6	2	5	n/a	n/a	n/a	n/a	n/a
1278381	STOP	n/a	LTP189	ltpFR	7	n/a	n/a	n/a	n/a	n/a	n/a	n/a	n/a	n/a	n/a	n/a	n/a	n/a	n/a	n/a
1280303	WORD	wordpools/wasnorm_wordpool_less_exclusions.txt	LTP189	ltpFR	7	5	1	LOCK	838	n/a	1	n/a	0	0	0	0	0.5869140625	0.422607421875	upper	../fonts/amplitud.ttf
1283316	START	n/a	LTP189	ltpFR	7	n/a	n/a	n/a	n/a	n/a	n/a	n/a	n/a	n/a	n/a	n/a	n/a	n/a	n/a	n/a
1284514	PROB	n/a	LTP189	ltpFR	7	n/a	n/a	n/a	n/a	n/a	n/a	13	5	3	5	n/a	n/a	n/a	n/a	n/a
1286011	PROB	n/a	LTP189	ltpFR	7	n/a	n/a	n/a	n/a	n/a	n/a	15	2	9	4	n/a	n/a	n/a	n/a	n/a
1287824	PROB	n/a	LTP189	ltpFR	7	n/a	n/a	n/a	n/a	n/a	n/a	15	7	6	2	n/a	n/a	n/a	n/a	n/a
1290261	STOP	n/a	LTP189	ltpFR	7	n/a	n/a	n/a	n/a	n/a	n/a	n/a	n/a	n/a	n/a	n/a	n/a	n/a	n/a	n/a
1292285	WORD	wordpools/wasnorm_wordpool_less_exclusions.txt	LTP189	ltpFR	7	5	1	SUGAR	1401	n/a	1	n/a	0	0	0	0	0.5869140625	0.422607421875	upper	../fonts/amplitud.ttf
1295298	START	n/a	LTP189	ltpFR	7	n/a	n/a	n/a	n/a	n/a	n/a	n/a	n/a	n/a	n/a	n/a	n/a	n/a	n/a	n/a
1296213	PROB	n/a	LTP189	ltpFR	7	n/a	n/a	n/a	n/a	n/a	n/a	11	1	6	4	n/a	n/a	n/a	n/a	n/a
1297993	PROB	n/a	LTP189	ltpFR	7	n/a	n/a	n/a	n/a	n/a	n/a	10	7	1	2	n/a	n/a	n/a	n/a	n/a
1303298	STOP	n/a	LTP189	ltpFR	7	n/a	n/a	n/a	n/a	n/a	n/a	n/a	n/a	n/a	n/a	n/a	n/a	n/a	n/a	n/a
1304484	WORD	wordpools/wasnorm_wordpool_less_exclusions.txt	LTP189	ltpFR	7	5	1	DESK	452	n/a	0	n/a	0	0	0	0	0.5869140625	0.422607421875	upper	../fonts/amplitud.ttf
1307496	START	n/a	LTP189	ltpFR	7	n/a	n/a	n/a	n/a	n/a	n/a	n/a	n/a	n/a	n/a	n/a	n/a	n/a	n/a	n/a
1308311	PROB	n/a	LTP189	ltpFR	7	n/a	n/a	n/a	n/a	n/a	n/a	14	8	2	3	n/a	n/a	n/a	n/a	n/a
1312089	PROB	n/a	LTP189	ltpFR	7	n/a	n/a	n/a	n/a	n/a	n/a	15	1	7	7	n/a	n/a	n/a	n/a	n/a
1315496	STOP	n/a	LTP189	ltpFR	7	n/a	n/a	n/a	n/a	n/a	n/a	n/a	n/a	n/a	n/a	n/a	n/a	n/a	n/a	n/a
1316699	WORD	wordpools/wasnorm_wordpool_less_exclusions.txt	LTP189	ltpFR	7	5	1	VESSEL	1558	n/a	0	n/a	0	0	0	0	0.5869140625	0.422607421875	upper	../fonts/amplitud.ttf
1319711	START	n/a	LTP189	ltpFR	7	n/a	n/a	n/a	n/a	n/a	n/a	n/a	n/a	n/a	n/a	n/a	n/a	n/a	n/a	n/a
1320676	PROB	n/a	LTP189	ltpFR	7	n/a	n/a	n/a	n/a	n/a	n/a	14	3	4	7	n/a	n/a	n/a	n/a	n/a
1322507	PROB	n/a	LTP189	ltpFR	7	n/a	n/a	n/a	n/a	n/a	n/a	18	4	5	9	n/a	n/a	n/a	n/a	n/a
1327711	STOP	n/a	LTP189	ltpFR	7	n/a	n/a	n/a	n/a	n/a	n/a	n/a	n/a	n/a	n/a	n/a	n/a	n/a	n/a	n/a
1328731	WORD	wordpools/wasnorm_wordpool_less_exclusions.txt	LTP189	ltpFR	7	5	1	LOLLIPOP	842	n/a	0	n/a	0	0	0	0	0.5869140625	0.422607421875	upper	../fonts/amplitud.ttf
1331743	START	n/a	LTP189	ltpFR	7	n/a	n/a	n/a	n/a	n/a	n/a	n/a	n/a	n/a	n/a	n/a	n/a	n/a	n/a	n/a
1332559	PROB	n/a	LTP189	ltpFR	7	n/a	n/a	n/a	n/a	n/a	n/a	16	2	7	7	n/a	n/a	n/a	n/a	n/a
1334472	PROB	n/a	LTP189	ltpFR	7	n/a	n/a	n/a	n/a	n/a	n/a	13	3	9	1	n/a	n/a	n/a	n/a	n/a
1336186	PROB	n/a	LTP189	ltpFR	7	n/a	n/a	n/a	n/a	n/a	n/a	20	6	8	6	n/a	n/a	n/a	n/a	n/a
1338461	STOP	n/a	LTP189	ltpFR	7	n/a	n/a	n/a	n/a	n/a	n/a	n/a	n/a	n/a	n/a	n/a	n/a	n/a	n/a	n/a
1340763	WORD	wordpools/wasnorm_wordpool_less_exclusions.txt	LTP189	ltpFR	7	5	1	ASSISTANT	48	n/a	1	n/a	0	0	0	0	0.5869140625	0.422607421875	upper	../fonts/amplitud.ttf
1343775	START	n/a	LTP189	ltpFR	7	n/a	n/a	n/a	n/a	n/a	n/a	n/a	n/a	n/a	n/a	n/a	n/a	n/a	n/a	n/a
1344990	PROB	n/a	LTP189	ltpFR	7	n/a	n/a	n/a	n/a	n/a	n/a	19	9	6	4	n/a	n/a	n/a	n/a	n/a
1346953	PROB	n/a	LTP189	ltpFR	7	n/a	n/a	n/a	n/a	n/a	n/a	13	1	8	4	n/a	n/a	n/a	n/a	n/a
1349915	PROB	n/a	LTP189	ltpFR	7	n/a	n/a	n/a	n/a	n/a	n/a	10	1	3	6	n/a	n/a	n/a	n/a	n/a
1351629	STOP	n/a	LTP189	ltpFR	7	n/a	n/a	n/a	n/a	n/a	n/a	n/a	n/a	n/a	n/a	n/a	n/a	n/a	n/a	n/a
1352910	WORD	wordpools/wasnorm_wordpool_less_exclusions.txt	LTP189	ltpFR	7	5	1	PIGMENT	1066	n/a	0	n/a	0	0	0	0	0.5869140625	0.422607421875	upper	../fonts/amplitud.ttf
1355923	START	n/a	LTP189	ltpFR	7	n/a	n/a	n/a	n/a	n/a	n/a	n/a	n/a	n/a	n/a	n/a	n/a	n/a	n/a	n/a
1357105	PROB	n/a	LTP189	ltpFR	7	n/a	n/a	n/a	n/a	n/a	n/a	14	5	2	7	n/a	n/a	n/a	n/a	n/a
1359169	PROB	n/a	LTP189	ltpFR	7	n/a	n/a	n/a	n/a	n/a	n/a	9	4	2	3	n/a	n/a	n/a	n/a	n/a
1363923	STOP	n/a	LTP189	ltpFR	7	n/a	n/a	n/a	n/a	n/a	n/a	n/a	n/a	n/a	n/a	n/a	n/a	n/a	n/a	n/a
1365110	WORD	wordpools/wasnorm_wordpool_less_exclusions.txt	LTP189	ltpFR	7	5	1	KNOB	787	n/a	0	n/a	0	0	0	0	0.5869140625	0.422607421875	upper	../fonts/amplitud.ttf
1368122	START	n/a	LTP189	ltpFR	7	n/a	n/a	n/a	n/a	n/a	n/a	n/a	n/a	n/a	n/a	n/a	n/a	n/a	n/a	n/a
1369187	PROB	n/a	LTP189	ltpFR	7	n/a	n/a	n/a	n/a	n/a	n/a	15	6	4	5	n/a	n/a	n/a	n/a	n/a
1371118	PROB	n/a	LTP189	ltpFR	7	n/a	n/a	n/a	n/a	n/a	n/a	13	1	6	6	n/a	n/a	n/a	n/a	n/a
1372765	PROB	n/a	LTP189	ltpFR	7	n/a	n/a	n/a	n/a	n/a	n/a	13	2	8	3	n/a	n/a	n/a	n/a	n/a
1374932	STOP	n/a	LTP189	ltpFR	7	n/a	n/a	n/a	n/a	n/a	n/a	n/a	n/a	n/a	n/a	n/a	n/a	n/a	n/a	n/a
1377325	WORD	wordpools/wasnorm_wordpool_less_exclusions.txt	LTP189	ltpFR	7	5	1	PARROT	1015	n/a	1	n/a	0	0	0	0	0.5869140625	0.422607421875	upper	../fonts/amplitud.ttf
1380338	START	n/a	LTP189	ltpFR	7	n/a	n/a	n/a	n/a	n/a	n/a	n/a	n/a	n/a	n/a	n/a	n/a	n/a	n/a	n/a
1381469	PROB	n/a	LTP189	ltpFR	7	n/a	n/a	n/a	n/a	n/a	n/a	18	7	5	6	n/a	n/a	n/a	n/a	n/a
1383765	PROB	n/a	LTP189	ltpFR	7	n/a	n/a	n/a	n/a	n/a	n/a	19	3	8	8	n/a	n/a	n/a	n/a	n/a
1388338	STOP	n/a	LTP189	ltpFR	7	n/a	n/a	n/a	n/a	n/a	n/a	n/a	n/a	n/a	n/a	n/a	n/a	n/a	n/a	n/a
1389274	WORD	wordpools/wasnorm_wordpool_less_exclusions.txt	LTP189	ltpFR	7	5	1	HAWK	692	n/a	1	n/a	0	0	0	0	0.5869140625	0.422607421875	upper	../fonts/amplitud.ttf
1392286	START	n/a	LTP189	ltpFR	7	n/a	n/a	n/a	n/a	n/a	n/a	n/a	n/a	n/a	n/a	n/a	n/a	n/a	n/a	n/a
1393301	PROB	n/a	LTP189	ltpFR	7	n/a	n/a	n/a	n/a	n/a	n/a	13	4	5	4	n/a	n/a	n/a	n/a	n/a
1396746	PROB	n/a	LTP189	ltpFR	7	n/a	n/a	n/a	n/a	n/a	n/a	6	4	1	1	n/a	n/a	n/a	n/a	n/a
1398027	PROB	n/a	LTP189	ltpFR	7	n/a	n/a	n/a	n/a	n/a	n/a	21	6	9	6	n/a	n/a	n/a	n/a	n/a
1400109	STOP	n/a	LTP189	ltpFR	7	n/a	n/a	n/a	n/a	n/a	n/a	n/a	n/a	n/a	n/a	n/a	n/a	n/a	n/a	n/a
1401439	WORD	wordpools/wasnorm_wordpool_less_exclusions.txt	LTP189	ltpFR	7	5	1	AUDIENCE	59	n/a	1	n/a	0	0	0	0	0.5869140625	0.422607421875	upper	../fonts/amplitud.ttf
1404452	START	n/a	LTP189	ltpFR	7	n/a	n/a	n/a	n/a	n/a	n/a	n/a	n/a	n/a	n/a	n/a	n/a	n/a	n/a	n/a
1405416	PROB	n/a	LTP189	ltpFR	7	n/a	n/a	n/a	n/a	n/a	n/a	15	8	4	3	n/a	n/a	n/a	n/a	n/a
1407497	PROB	n/a	LTP189	ltpFR	7	n/a	n/a	n/a	n/a	n/a	n/a	9	1	2	6	n/a	n/a	n/a	n/a	n/a
1409677	PROB	n/a	LTP189	ltpFR	7	n/a	n/a	n/a	n/a	n/a	n/a	9	2	6	1	n/a	n/a	n/a	n/a	n/a
1411541	STOP	n/a	LTP189	ltpFR	7	n/a	n/a	n/a	n/a	n/a	n/a	n/a	n/a	n/a	n/a	n/a	n/a	n/a	n/a	n/a
1413621	WORD	wordpools/wasnorm_wordpool_less_exclusions.txt	LTP189	ltpFR	7	5	1	PRIEST	1122	n/a	1	n/a	0	0	0	0	0.5869140625	0.422607421875	upper	../fonts/amplitud.ttf
1416633	START	n/a	LTP189	ltpFR	7	n/a	n/a	n/a	n/a	n/a	n/a	n/a	n/a	n/a	n/a	n/a	n/a	n/a	n/a	n/a
1417830	PROB	n/a	LTP189	ltpFR	7	n/a	n/a	n/a	n/a	n/a	n/a	19	2	8	9	n/a	n/a	n/a	n/a	n/a
1421759	PROB	n/a	LTP189	ltpFR	7	n/a	n/a	n/a	n/a	n/a	n/a	15	7	1	7	n/a	n/a	n/a	n/a	n/a
1423453	STOP	n/a	LTP189	ltpFR	7	n/a	n/a	n/a	n/a	n/a	n/a	n/a	n/a	n/a	n/a	n/a	n/a	n/a	n/a	n/a
1425486	WORD	wordpools/wasnorm_wordpool_less_exclusions.txt	LTP189	ltpFR	7	5	1	BRANCH	168	n/a	1	n/a	0	0	0	0	0.5869140625	0.422607421875	upper	../fonts/amplitud.ttf
1428499	START	n/a	LTP189	ltpFR	7	n/a	n/a	n/a	n/a	n/a	n/a	n/a	n/a	n/a	n/a	n/a	n/a	n/a	n/a	n/a
1429414	PROB	n/a	LTP189	ltpFR	7	n/a	n/a	n/a	n/a	n/a	n/a	12	4	3	5	n/a	n/a	n/a	n/a	n/a
1432409	PROB	n/a	LTP189	ltpFR	7	n/a	n/a	n/a	n/a	n/a	n/a	10	4	4	2	n/a	n/a	n/a	n/a	n/a
1436499	STOP	n/a	LTP189	ltpFR	7	n/a	n/a	n/a	n/a	n/a	n/a	n/a	n/a	n/a	n/a	n/a	n/a	n/a	n/a	n/a
1437635	WORD	wordpools/wasnorm_wordpool_less_exclusions.txt	LTP189	ltpFR	7	5	1	THORN	1459	n/a	1	n/a	0	0	0	0	0.5869140625	0.422607421875	upper	../fonts/amplitud.ttf
1440647	START	n/a	LTP189	ltpFR	7	n/a	n/a	n/a	n/a	n/a	n/a	n/a	n/a	n/a	n/a	n/a	n/a	n/a	n/a	n/a
1441496	PROB	n/a	LTP189	ltpFR	7	n/a	n/a	n/a	n/a	n/a	n/a	10	2	6	2	n/a	n/a	n/a	n/a	n/a
1443143	PROB	n/a	LTP189	ltpFR	7	n/a	n/a	n/a	n/a	n/a	n/a	15	8	3	4	n/a	n/a	n/a	n/a	n/a
1446538	PROB	n/a	LTP189	ltpFR	7	n/a	n/a	n/a	n/a	n/a	n/a	18	5	7	6	n/a	n/a	n/a	n/a	n/a
1448517	STOP	n/a	LTP189	ltpFR	7	n/a	n/a	n/a	n/a	n/a	n/a	n/a	n/a	n/a	n/a	n/a	n/a	n/a	n/a	n/a
1449550	WORD	wordpools/wasnorm_wordpool_less_exclusions.txt	LTP189	ltpFR	7	5	1	OTTER	986	n/a	1	n/a	0	0	0	0	0.5869140625	0.422607421875	upper	../fonts/amplitud.ttf
1452563	START	n/a	LTP189	ltpFR	7	n/a	n/a	n/a	n/a	n/a	n/a	n/a	n/a	n/a	n/a	n/a	n/a	n/a	n/a	n/a
1453628	PROB	n/a	LTP189	ltpFR	7	n/a	n/a	n/a	n/a	n/a	n/a	14	3	6	5	n/a	n/a	n/a	n/a	n/a
1460563	STOP	n/a	LTP189	ltpFR	7	n/a	n/a	n/a	n/a	n/a	n/a	n/a	n/a	n/a	n/a	n/a	n/a	n/a	n/a	n/a
1461649	WORD	wordpools/wasnorm_wordpool_less_exclusions.txt	LTP189	ltpFR	7	5	1	FAUCET	555	n/a	0	n/a	0	0	0	0	0.5869140625	0.422607421875	upper	../fonts/amplitud.ttf
1464661	START	n/a	LTP189	ltpFR	7	n/a	n/a	n/a	n/a	n/a	n/a	n/a	n/a	n/a	n/a	n/a	n/a	n/a	n/a	n/a
1465626	PROB	n/a	LTP189	ltpFR	7	n/a	n/a	n/a	n/a	n/a	n/a	13	5	1	7	n/a	n/a	n/a	n/a	n/a
1468239	PROB	n/a	LTP189	ltpFR	7	n/a	n/a	n/a	n/a	n/a	n/a	9	3	5	1	n/a	n/a	n/a	n/a	n/a
1470552	PROB	n/a	LTP189	ltpFR	7	n/a	n/a	n/a	n/a	n/a	n/a	15	8	5	2	n/a	n/a	n/a	n/a	n/a
1472437	STOP	n/a	LTP189	ltpFR	7	n/a	n/a	n/a	n/a	n/a	n/a	n/a	n/a	n/a	n/a	n/a	n/a	n/a	n/a	n/a
1474464	REC_START	n/a	LTP189	ltpFR	7	5	n/a	n/a	n/a	n/a	n/a	n/a	0	0	0	n/a	n/a	n/a	n/a	n/a
1475357	REC_WORD	wordpools/wasnorm_wordpool_less_exclusions.txt	LTP189	ltpFR	7	5	1	FAUCET	555	n/a	0	n/a	0	0	0	n/a	n/a	n/a	n/a	n/a
1476155	REC_WORD	wordpools/wasnorm_wordpool_less_exclusions.txt	LTP189	ltpFR	7	5	1	THORN	1459	n/a	1	n/a	0	0	0	n/a	n/a	n/a	n/a	n/a
1476878	REC_WORD	wordpools/wasnorm_wordpool_less_exclusions.txt	LTP189	ltpFR	7	5	1	BRANCH	168	n/a	1	n/a	0	0	0	n/a	n/a	n/a	n/a	n/a
1478150	REC_WORD	wordpools/wasnorm_wordpool_less_exclusions.txt	LTP189	ltpFR	7	5	1	SUGAR	1401	n/a	1	n/a	0	0	0	n/a	n/a	n/a	n/a	n/a
1479223	REC_WORD	wordpools/wasnorm_wordpool_less_exclusions.txt	LTP189	ltpFR	7	5	1	ASSISTANT	48	n/a	1	n/a	0	0	0	n/a	n/a	n/a	n/a	n/a
1480181	REC_WORD	wordpools/wasnorm_wordpool_less_exclusions.txt	LTP189	ltpFR	7	5	1	PIGMENT	1066	n/a	0	n/a	0	0	0	n/a	n/a	n/a	n/a	n/a
1480959	REC_WORD	wordpools/wasnorm_wordpool_less_exclusions.txt	LTP189	ltpFR	7	5	1	DESK	452	n/a	0	n/a	0	0	0	n/a	n/a	n/a	n/a	n/a
1481687	REC_WORD	wordpools/wasnorm_wordpool_less_exclusions.txt	LTP189	ltpFR	7	5	1	LOCK	838	n/a	1	n/a	0	0	0	n/a	n/a	n/a	n/a	n/a
1482520	REC_WORD	wordpools/wasnorm_wordpool_less_exclusions.txt	LTP189	ltpFR	7	5	1	KNOB	787	n/a	0	n/a	0	0	0	n/a	n/a	n/a	n/a	n/a
1571817	START	n/a	LTP189	ltpFR	7	n/a	n/a	n/a	n/a	n/a	n/a	n/a	n/a	n/a	n/a	n/a	n/a	n/a	n/a	n/a
1573332	PROB	n/a	LTP189	ltpFR	7	n/a	n/a	n/a	n/a	n/a	n/a	24	9	7	8	n/a	n/a	n/a	n/a	n/a
1577676	PROB	n/a	LTP189	ltpFR	7	n/a	n/a	n/a	n/a	n/a	n/a	14	6	4	2	n/a	n/a	n/a	n/a	n/a
1580853	PROB	n/a	LTP189	ltpFR	7	n/a	n/a	n/a	n/a	n/a	n/a	16	8	5	3	n/a	n/a	n/a	n/a	n/a
1583849	PROB	n/a	LTP189	ltpFR	7	n/a	n/a	n/a	n/a	n/a	n/a	6	1	4	1	n/a	n/a	n/a	n/a	n/a
1585298	PROB	n/a	LTP189	ltpFR	7	n/a	n/a	n/a	n/a	n/a	n/a	9	2	5	2	n/a	n/a	n/a	n/a	n/a
1586852	STOP	n/a	LTP189	ltpFR	7	n/a	n/a	n/a	n/a	n/a	n/a	n/a	n/a	n/a	n/a	n/a	n/a	n/a	n/a	n/a
1588958	WORD	wordpools/wasnorm_wordpool_less_exclusions.txt	LTP189	ltpFR	7	6	1	TILE	1468	n/a	1	n/a	0	0	0	0	0.5869140625	0.422607421875	upper	../fonts/amplitud.ttf
1591970	START	n/a	LTP189	ltpFR	7	n/a	n/a	n/a	n/a	n/a	n/a	n/a	n/a	n/a	n/a	n/a	n/a	n/a	n/a	n/a
1592835	PROB	n/a	LTP189	ltpFR	7	n/a	n/a	n/a	n/a	n/a	n/a	14	9	4	1	n/a	n/a	n/a	n/a	n/a
1594684	PROB	n/a	LTP189	ltpFR	7	n/a	n/a	n/a	n/a	n/a	n/a	19	8	7	4	n/a	n/a	n/a	n/a	n/a
1597030	PROB	n/a	LTP189	ltpFR	7	n/a	n/a	n/a	n/a	n/a	n/a	18	7	2	9	n/a	n/a	n/a	n/a	n/a
1598876	PROB	n/a	LTP189	ltpFR	7	n/a	n/a	n/a	n/a	n/a	n/a	14	4	4	6	n/a	n/a	n/a	n/a	n/a
1600840	PROB	n/a	LTP189	ltpFR	7	n/a	n/a	n/a	n/a	n/a	n/a	12	5	4	3	n/a	n/a	n/a	n/a	n/a
1604053	PROB	n/a	LTP189	ltpFR	7	n/a	n/a	n/a	n/a	n/a	n/a	18	6	5	6	n/a	n/a	n/a	n/a	n/a
1606773	STOP	n/a	LTP189	ltpFR	7	n/a	n/a	n/a	n/a	n/a	n/a	n/a	n/a	n/a	n/a	n/a	n/a	n/a	n/a	n/a
1608996	WORD	wordpools/wasnorm_wordpool_less_exclusions.txt	LTP189	ltpFR	7	6	1	POLICE	1098	n/a	1	n/a	0	0	0	0	0.5869140625	0.422607421875	upper	../fonts/amplitud.ttf
1612008	START	n/a	LTP189	ltpFR	7	n/a	n/a	n/a	n/a	n/a	n/a	n/a	n/a	n/a	n/a	n/a	n/a	n/a	n/a	n/a
1612955	PROB	n/a	LTP189	ltpFR	7	n/a	n/a	n/a	n/a	n/a	n/a	20	8	8	4	n/a	n/a	n/a	n/a	n/a
1615419	PROB	n/a	LTP189	ltpFR	7	n/a	n/a	n/a	n/a	n/a	n/a	16	1	6	9	n/a	n/a	n/a	n/a	n/a
1617815	PROB	n/a	LTP189	ltpFR	7	n/a	n/a	n/a	n/a	n/a	n/a	15	4	5	6	n/a	n/a	n/a	n/a	n/a
1621760	PROB	n/a	LTP189	ltpFR	7	n/a	n/a	n/a	n/a	n/a	n/a	12	3	2	7	n/a	n/a	n/a	n/a	n/a
1623740	PROB	n/a	LTP189	ltpFR	7	n/a	n/a	n/a	n/a	n/a	n/a	12	1	5	6	n/a	n/a	n/a	n/a	n/a
1625637	PROB	n/a	LTP189	ltpFR	7	n/a	n/a	n/a	n/a	n/a	n/a	8	3	4	1	n/a	n/a	n/a	n/a	n/a
1627892	STOP	n/a	LTP189	ltpFR	7	n/a	n/a	n/a	n/a	n/a	n/a	n/a	n/a	n/a	n/a	n/a	n/a	n/a	n/a	n/a
1629132	WORD	wordpools/wasnorm_wordpool_less_exclusions.txt	LTP189	ltpFR	7	6	1	VOLLEYBALL	1576	n/a	0	n/a	0	0	0	0	0.5869140625	0.422607421875	upper	../fonts/amplitud.ttf
1632145	START	n/a	LTP189	ltpFR	7	n/a	n/a	n/a	n/a	n/a	n/a	n/a	n/a	n/a	n/a	n/a	n/a	n/a	n/a	n/a
1633143	PROB	n/a	LTP189	ltpFR	7	n/a	n/a	n/a	n/a	n/a	n/a	14	1	8	5	n/a	n/a	n/a	n/a	n/a
1635854	PROB	n/a	LTP189	ltpFR	7	n/a	n/a	n/a	n/a	n/a	n/a	19	7	3	9	n/a	n/a	n/a	n/a	n/a
1637968	PROB	n/a	LTP189	ltpFR	7	n/a	n/a	n/a	n/a	n/a	n/a	16	5	4	7	n/a	n/a	n/a	n/a	n/a
1640930	PROB	n/a	LTP189	ltpFR	7	n/a	n/a	n/a	n/a	n/a	n/a	18	4	7	7	n/a	n/a	n/a	n/a	n/a
1643111	PROB	n/a	LTP189	ltpFR	7	n/a	n/a	n/a	n/a	n/a	n/a	14	2	3	9	n/a	n/a	n/a	n/a	n/a
1648145	STOP	n/a	LTP189	ltpFR	7	n/a	n/a	n/a	n/a	n/a	n/a	n/a	n/a	n/a	n/a	n/a	n/a	n/a	n/a	n/a
1649252	WORD	wordpools/wasnorm_wordpool_less_exclusions.txt	LTP189	ltpFR	7	6	1	PORCUPINE	1107	n/a	1	n/a	0	0	0	0	0.5869140625	0.422607421875	upper	../fonts/amplitud.ttf
1652265	START	n/a	LTP189	ltpFR	7	n/a	n/a	n/a	n/a	n/a	n/a	n/a	n/a	n/a	n/a	n/a	n/a	n/a	n/a	n/a
1653096	PROB	n/a	LTP189	ltpFR	7	n/a	n/a	n/a	n/a	n/a	n/a	15	6	3	6	n/a	n/a	n/a	n/a	n/a
1660967	PROB	n/a	LTP189	ltpFR	7	n/a	n/a	n/a	n/a	n/a	n/a	27	8	9	9	n/a	n/a	n/a	n/a	n/a
1664795	PROB	n/a	LTP189	ltpFR	7	n/a	n/a	n/a	n/a	n/a	n/a	13	1	6	6	n/a	n/a	n/a	n/a	n/a
1667109	STOP	n/a	LTP189	ltpFR	7	n/a	n/a	n/a	n/a	n/a	n/a	n/a	n/a	n/a	n/a	n/a	n/a	n/a	n/a	n/a
1669189	WORD	wordpools/wasnorm_wordpool_less_exclusions.txt	LTP189	ltpFR	7	6	1	ZEBRA	1635	n/a	1	n/a	0	0	0	0	0.5869140625	0.422607421875	upper	../fonts/amplitud.ttf
1672202	START	n/a	LTP189	ltpFR	7	n/a	n/a	n/a	n/a	n/a	n/a	n/a	n/a	n/a	n/a	n/a	n/a	n/a	n/a	n/a
1673100	PROB	n/a	LTP189	ltpFR	7	n/a	n/a	n/a	n/a	n/a	n/a	15	1	8	6	n/a	n/a	n/a	n/a	n/a
1675796	PROB	n/a	LTP189	ltpFR	7	n/a	n/a	n/a	n/a	n/a	n/a	12	2	6	4	n/a	n/a	n/a	n/a	n/a
1678009	PROB	n/a	LTP189	ltpFR	7	n/a	n/a	n/a	n/a	n/a	n/a	19	7	4	8	n/a	n/a	n/a	n/a	n/a
1683800	PROB	n/a	LTP189	ltpFR	7	n/a	n/a	n/a	n/a	n/a	n/a	21	9	5	7	n/a	n/a	n/a	n/a	n/a
1686781	STOP	n/a	LTP189	ltpFR	7	n/a	n/a	n/a	n/a	n/a	n/a	n/a	n/a	n/a	n/a	n/a	n/a	n/a	n/a	n/a
1689342	WORD	wordpools/wasnorm_wordpool_less_exclusions.txt	LTP189	ltpFR	7	6	1	CRITIC	410	n/a	0	n/a	0	0	0	0	0.5869140625	0.422607421875	upper	../fonts/amplitud.ttf
1692355	START	n/a	LTP189	ltpFR	7	n/a	n/a	n/a	n/a	n/a	n/a	n/a	n/a	n/a	n/a	n/a	n/a	n/a	n/a	n/a
1693286	PROB	n/a	LTP189	ltpFR	7	n/a	n/a	n/a	n/a	n/a	n/a	13	3	3	7	n/a	n/a	n/a	n/a	n/a
1696016	PROB	n/a	LTP189	ltpFR	7	n/a	n/a	n/a	n/a	n/a	n/a	13	3	4	6	n/a	n/a	n/a	n/a	n/a
1699959	PROB	n/a	LTP189	ltpFR	7	n/a	n/a	n/a	n/a	n/a	n/a	20	6	5	9	n/a	n/a	n/a	n/a	n/a
1708355	STOP	n/a	LTP189	ltpFR	7	n/a	n/a	n/a	n/a	n/a	n/a	n/a	n/a	n/a	n/a	n/a	n/a	n/a	n/a	n/a
1709196	WORD	wordpools/wasnorm_wordpool_less_exclusions.txt	LTP189	ltpFR	7	6	1	ACTRESS	6	n/a	1	n/a	0	0	0	0	0.5869140625	0.422607421875	upper	../fonts/amplitud.ttf
1712208	START	n/a	LTP189	ltpFR	7	n/a	n/a	n/a	n/a	n/a	n/a	n/a	n/a	n/a	n/a	n/a	n/a	n/a	n/a	n/a
1713173	PROB	n/a	LTP189	ltpFR	7	n/a	n/a	n/a	n/a	n/a	n/a	20	8	8	4	n/a	n/a	n/a	n/a	n/a
1716735	PROB	n/a	LTP189	ltpFR	7	n/a	n/a	n/a	n/a	n/a	n/a	18	2	9	7	n/a	n/a	n/a	n/a	n/a
1719297	PROB	n/a	LTP189	ltpFR	7	n/a	n/a	n/a	n/a	n/a	n/a	16	3	9	4	n/a	n/a	n/a	n/a	n/a
1721859	PROB	n/a	LTP189	ltpFR	7	n/a	n/a	n/a	n/a	n/a	n/a	13	6	1	6	n/a	n/a	n/a	n/a	n/a
1723408	PROB	n/a	LTP189	ltpFR	7	n/a	n/a	n/a	n/a	n/a	n/a	23	8	9	6	n/a	n/a	n/a	n/a	n/a
1726805	STOP	n/a	LTP189	ltpFR	7	n/a	n/a	n/a	n/a	n/a	n/a	n/a	n/a	n/a	n/a	n/a	n/a	n/a	n/a	n/a
1729416	WORD	wordpools/wasnorm_wordpool_less_exclusions.txt	LTP189	ltpFR	7	6	1	PRIMATE	1123	n/a	1	n/a	0	0	0	0	0.5869140625	0.422607421875	upper	../fonts/amplitud.ttf
1732428	START	n/a	LTP189	ltpFR	7	n/a	n/a	n/a	n/a	n/a	n/a	n/a	n/a	n/a	n/a	n/a	n/a	n/a	n/a	n/a
1733310	PROB	n/a	LTP189	ltpFR	7	n/a	n/a	n/a	n/a	n/a	n/a	13	4	3	3	n/a	n/a	n/a	n/a	n/a
1738469	PROB	n/a	LTP189	ltpFR	7	n/a	n/a	n/a	n/a	n/a	n/a	9	1	2	6	n/a	n/a	n/a	n/a	n/a
1743062	PROB	n/a	LTP189	ltpFR	7	n/a	n/a	n/a	n/a	n/a	n/a	17	5	3	9	n/a	n/a	n/a	n/a	n/a
1748428	STOP	n/a	LTP189	ltpFR	7	n/a	n/a	n/a	n/a	n/a	n/a	n/a	n/a	n/a	n/a	n/a	n/a	n/a	n/a	n/a
1749469	WORD	wordpools/wasnorm_wordpool_less_exclusions.txt	LTP189	ltpFR	7	6	1	ELM	527	n/a	1	n/a	0	0	0	0	0.5869140625	0.422607421875	upper	../fonts/amplitud.ttf
1752482	START	n/a	LTP189	ltpFR	7	n/a	n/a	n/a	n/a	n/a	n/a	n/a	n/a	n/a	n/a	n/a	n/a	n/a	n/a	n/a
1753580	PROB	n/a	LTP189	ltpFR	7	n/a	n/a	n/a	n/a	n/a	n/a	14	6	2	6	n/a	n/a	n/a	n/a	n/a
1755776	PROB	n/a	LTP189	ltpFR	7	n/a	n/a	n/a	n/a	n/a	n/a	7	2	4	1	n/a	n/a	n/a	n/a	n/a
1758439	PROB	n/a	LTP189	ltpFR	7	n/a	n/a	n/a	n/a	n/a	n/a	9	1	7	1	n/a	n/a	n/a	n/a	n/a
1759936	PROB	n/a	LTP189	ltpFR	7	n/a	n/a	n/a	n/a	n/a	n/a	18	4	8	6	n/a	n/a	n/a	n/a	n/a
1763099	PROB	n/a	LTP189	ltpFR	7	n/a	n/a	n/a	n/a	n/a	n/a	12	2	4	6	n/a	n/a	n/a	n/a	n/a
1764845	PROB	n/a	LTP189	ltpFR	7	n/a	n/a	n/a	n/a	n/a	n/a	11	1	8	2	n/a	n/a	n/a	n/a	n/a
1768482	STOP	n/a	LTP189	ltpFR	7	n/a	n/a	n/a	n/a	n/a	n/a	n/a	n/a	n/a	n/a	n/a	n/a	n/a	n/a	n/a
1769506	WORD	wordpools/wasnorm_wordpool_less_exclusions.txt	LTP189	ltpFR	7	6	1	PENGUIN	1044	n/a	1	n/a	0	0	0	0	0.5869140625	0.422607421875	upper	../fonts/amplitud.ttf
1772518	START	n/a	LTP189	ltpFR	7	n/a	n/a	n/a	n/a	n/a	n/a	n/a	n/a	n/a	n/a	n/a	n/a	n/a	n/a	n/a
1773483	PROB	n/a	LTP189	ltpFR	7	n/a	n/a	n/a	n/a	n/a	n/a	6	4	1	1	n/a	n/a	n/a	n/a	n/a
1774698	PROB	n/a	LTP189	ltpFR	7	n/a	n/a	n/a	n/a	n/a	n/a	12	3	3	6	n/a	n/a	n/a	n/a	n/a
1776944	PROB	n/a	LTP189	ltpFR	7	n/a	n/a	n/a	n/a	n/a	n/a	14	3	2	9	n/a	n/a	n/a	n/a	n/a
1779108	PROB	n/a	LTP189	ltpFR	7	n/a	n/a	n/a	n/a	n/a	n/a	5	1	3	1	n/a	n/a	n/a	n/a	n/a
1780954	PROB	n/a	LTP189	ltpFR	7	n/a	n/a	n/a	n/a	n/a	n/a	8	2	1	5	n/a	n/a	n/a	n/a	n/a
1782636	PROB	n/a	LTP189	ltpFR	7	n/a	n/a	n/a	n/a	n/a	n/a	10	3	1	6	n/a	n/a	n/a	n/a	n/a
1785149	PROB	n/a	LTP189	ltpFR	7	n/a	n/a	n/a	n/a	n/a	n/a	19	3	8	8	n/a	n/a	n/a	n/a	n/a
1787165	STOP	n/a	LTP189	ltpFR	7	n/a	n/a	n/a	n/a	n/a	n/a	n/a	n/a	n/a	n/a	n/a	n/a	n/a	n/a	n/a
1789459	WORD	wordpools/wasnorm_wordpool_less_exclusions.txt	LTP189	ltpFR	7	6	1	HORSE	719	n/a	1	n/a	0	0	0	0	0.5869140625	0.422607421875	upper	../fonts/amplitud.ttf
1792472	START	n/a	LTP189	ltpFR	7	n/a	n/a	n/a	n/a	n/a	n/a	n/a	n/a	n/a	n/a	n/a	n/a	n/a	n/a	n/a
1793420	PROB	n/a	LTP189	ltpFR	7	n/a	n/a	n/a	n/a	n/a	n/a	10	4	5	1	n/a	n/a	n/a	n/a	n/a
1795334	PROB	n/a	LTP189	ltpFR	7	n/a	n/a	n/a	n/a	n/a	n/a	17	2	7	8	n/a	n/a	n/a	n/a	n/a
1798096	PROB	n/a	LTP189	ltpFR	7	n/a	n/a	n/a	n/a	n/a	n/a	13	6	6	1	n/a	n/a	n/a	n/a	n/a
1800127	PROB	n/a	LTP189	ltpFR	7	n/a	n/a	n/a	n/a	n/a	n/a	13	3	2	8	n/a	n/a	n/a	n/a	n/a
1802507	PROB	n/a	LTP189	ltpFR	7	n/a	n/a	n/a	n/a	n/a	n/a	18	6	6	6	n/a	n/a	n/a	n/a	n/a
1805336	PROB	n/a	LTP189	ltpFR	7	n/a	n/a	n/a	n/a	n/a	n/a	14	5	6	3	n/a	n/a	n/a	n/a	n/a
1808221	STOP	n/a	LTP189	ltpFR	7	n/a	n/a	n/a	n/a	n/a	n/a	n/a	n/a	n/a	n/a	n/a	n/a	n/a	n/a	n/a
1809529	WORD	wordpools/wasnorm_wordpool_less_exclusions.txt	LTP189	ltpFR	7	6	1	MOP	916	n/a	0	n/a	0	0	0	0	0.5869140625	0.422607421875	upper	../fonts/amplitud.ttf
1812542	START	n/a	LTP189	ltpFR	7	n/a	n/a	n/a	n/a	n/a	n/a	n/a	n/a	n/a	n/a	n/a	n/a	n/a	n/a	n/a
1813706	PROB	n/a	LTP189	ltpFR	7	n/a	n/a	n/a	n/a	n/a	n/a	17	8	2	7	n/a	n/a	n/a	n/a	n/a
1819415	PROB	n/a	LTP189	ltpFR	7	n/a	n/a	n/a	n/a	n/a	n/a	9	1	4	4	n/a	n/a	n/a	n/a	n/a
1821129	PROB	n/a	LTP189	ltpFR	7	n/a	n/a	n/a	n/a	n/a	n/a	14	2	6	6	n/a	n/a	n/a	n/a	n/a
1823242	PROB	n/a	LTP189	ltpFR	7	n/a	n/a	n/a	n/a	n/a	n/a	7	2	1	4	n/a	n/a	n/a	n/a	n/a
1825854	PROB	n/a	LTP189	ltpFR	7	n/a	n/a	n/a	n/a	n/a	n/a	9	2	4	3	n/a	n/a	n/a	n/a	n/a
1828077	STOP	n/a	LTP189	ltpFR	7	n/a	n/a	n/a	n/a	n/a	n/a	n/a	n/a	n/a	n/a	n/a	n/a	n/a	n/a	n/a
1829733	WORD	wordpools/wasnorm_wordpool_less_exclusions.txt	LTP189	ltpFR	7	6	1	SHERIFF	1284	n/a	1	n/a	0	0	0	0	0.5869140625	0.422607421875	upper	../fonts/amplitud.ttf
1832745	START	n/a	LTP189	ltpFR	7	n/a	n/a	n/a	n/a	n/a	n/a	n/a	n/a	n/a	n/a	n/a	n/a	n/a	n/a	n/a
1833777	PROB	n/a	LTP189	ltpFR	7	n/a	n/a	n/a	n/a	n/a	n/a	14	2	9	3	n/a	n/a	n/a	n/a	n/a
1836239	PROB	n/a	LTP189	ltpFR	7	n/a	n/a	n/a	n/a	n/a	n/a	13	5	2	6	n/a	n/a	n/a	n/a	n/a
1839518	PROB	n/a	LTP189	ltpFR	7	n/a	n/a	n/a	n/a	n/a	n/a	14	1	7	6	n/a	n/a	n/a	n/a	n/a
1841665	PROB	n/a	LTP189	ltpFR	7	n/a	n/a	n/a	n/a	n/a	n/a	8	1	5	2	n/a	n/a	n/a	n/a	n/a
1844227	PROB	n/a	LTP189	ltpFR	7	n/a	n/a	n/a	n/a	n/a	n/a	20	4	7	9	n/a	n/a	n/a	n/a	n/a
1848445	STOP	n/a	LTP189	ltpFR	7	n/a	n/a	n/a	n/a	n/a	n/a	n/a	n/a	n/a	n/a	n/a	n/a	n/a	n/a	n/a
1849686	WORD	wordpools/wasnorm_wordpool_less_exclusions.txt	LTP189	ltpFR	7	6	1	COMPUTER	359	n/a	0	n/a	0	0	0	0	0.5869140625	0.422607421875	upper	../fonts/amplitud.ttf
1852699	START	n/a	LTP189	ltpFR	7	n/a	n/a	n/a	n/a	n/a	n/a	n/a	n/a	n/a	n/a	n/a	n/a	n/a	n/a	n/a
1853797	PROB	n/a	LTP189	ltpFR	7	n/a	n/a	n/a	n/a	n/a	n/a	12	3	4	5	n/a	n/a	n/a	n/a	n/a
1857474	PROB	n/a	LTP189	ltpFR	7	n/a	n/a	n/a	n/a	n/a	n/a	18	9	2	7	n/a	n/a	n/a	n/a	n/a
1859688	PROB	n/a	LTP189	ltpFR	7	n/a	n/a	n/a	n/a	n/a	n/a	15	3	4	8	n/a	n/a	n/a	n/a	n/a
1863116	PROB	n/a	LTP189	ltpFR	7	n/a	n/a	n/a	n/a	n/a	n/a	19	4	7	8	n/a	n/a	n/a	n/a	n/a
1865662	PROB	n/a	LTP189	ltpFR	7	n/a	n/a	n/a	n/a	n/a	n/a	14	1	8	5	n/a	n/a	n/a	n/a	n/a
1868325	STOP	n/a	LTP189	ltpFR	7	n/a	n/a	n/a	n/a	n/a	n/a	n/a	n/a	n/a	n/a	n/a	n/a	n/a	n/a	n/a
1869822	WORD	wordpools/wasnorm_wordpool_less_exclusions.txt	LTP189	ltpFR	7	6	1	KEYBOARD	774	n/a	0	n/a	0	0	0	0	0.5869140625	0.422607421875	upper	../fonts/amplitud.ttf
1872834	START	n/a	LTP189	ltpFR	7	n/a	n/a	n/a	n/a	n/a	n/a	n/a	n/a	n/a	n/a	n/a	n/a	n/a	n/a	n/a
1874033	PROB	n/a	LTP189	ltpFR	7	n/a	n/a	n/a	n/a	n/a	n/a	15	4	2	9	n/a	n/a	n/a	n/a	n/a
1876961	PROB	n/a	LTP189	ltpFR	7	n/a	n/a	n/a	n/a	n/a	n/a	18	8	8	2	n/a	n/a	n/a	n/a	n/a
1879508	PROB	n/a	LTP189	ltpFR	7	n/a	n/a	n/a	n/a	n/a	n/a	22	7	9	6	n/a	n/a	n/a	n/a	n/a
1884418	PROB	n/a	LTP189	ltpFR	7	n/a	n/a	n/a	n/a	n/a	n/a	12	5	4	3	n/a	n/a	n/a	n/a	n/a
1887533	STOP	n/a	LTP189	ltpFR	7	n/a	n/a	n/a	n/a	n/a	n/a	n/a	n/a	n/a	n/a	n/a	n/a	n/a	n/a	n/a
1889825	WORD	wordpools/wasnorm_wordpool_less_exclusions.txt	LTP189	ltpFR	7	6	1	RADISH	1158	n/a	0	n/a	0	0	0	0	0.5869140625	0.422607421875	upper	../fonts/amplitud.ttf
1892837	START	n/a	LTP189	ltpFR	7	n/a	n/a	n/a	n/a	n/a	n/a	n/a	n/a	n/a	n/a	n/a	n/a	n/a	n/a	n/a
1893819	PROB	n/a	LTP189	ltpFR	7	n/a	n/a	n/a	n/a	n/a	n/a	6	2	1	3	n/a	n/a	n/a	n/a	n/a
1896000	PROB	n/a	LTP189	ltpFR	7	n/a	n/a	n/a	n/a	n/a	n/a	16	1	6	9	n/a	n/a	n/a	n/a	n/a
1898097	PROB	n/a	LTP189	ltpFR	7	n/a	n/a	n/a	n/a	n/a	n/a	11	6	1	4	n/a	n/a	n/a	n/a	n/a
1900194	PROB	n/a	LTP189	ltpFR	7	n/a	n/a	n/a	n/a	n/a	n/a	16	4	8	4	n/a	n/a	n/a	n/a	n/a
1902374	PROB	n/a	LTP189	ltpFR	7	n/a	n/a	n/a	n/a	n/a	n/a	9	3	4	2	n/a	n/a	n/a	n/a	n/a
1905702	PROB	n/a	LTP189	ltpFR	7	n/a	n/a	n/a	n/a	n/a	n/a	14	4	4	6	n/a	n/a	n/a	n/a	n/a
1908389	STOP	n/a	LTP189	ltpFR	7	n/a	n/a	n/a	n/a	n/a	n/a	n/a	n/a	n/a	n/a	n/a	n/a	n/a	n/a	n/a
1910712	REC_START	n/a	LTP189	ltpFR	7	6	n/a	n/a	n/a	n/a	n/a	n/a	0	0	0	n/a	n/a	n/a	n/a	n/a
1912363	REC_WORD	wordpools/wasnorm_wordpool_less_exclusions.txt	LTP189	ltpFR	7	6	1	RADISH	1158	n/a	0	n/a	0	0	0	n/a	n/a	n/a	n/a	n/a
1913231	REC_WORD	wordpools/wasnorm_wordpool_less_exclusions.txt	LTP189	ltpFR	7	6	1	HORSE	719	n/a	1	n/a	0	0	0	n/a	n/a	n/a	n/a	n/a
1917496	REC_WORD	wordpools/wasnorm_wordpool_less_exclusions.txt	LTP189	ltpFR	7	6	1	POLICE	1098	n/a	1	n/a	0	0	0	n/a	n/a	n/a	n/a	n/a
1918150	REC_WORD	wordpools/wasnorm_wordpool_less_exclusions.txt	LTP189	ltpFR	7	6	1	TILE	1468	n/a	1	n/a	0	0	0	n/a	n/a	n/a	n/a	n/a
2001093	WORD	wordpools/wasnorm_wordpool_less_exclusions.txt	LTP189	ltpFR	7	7	1	MOTOR	922	n/a	0	n/a	0	0	0	0	0.5869140625	0.422607421875	upper	../fonts/amplitud.ttf
2005270	WORD	wordpools/wasnorm_wordpool_less_exclusions.txt	LTP189	ltpFR	7	7	1	RUM	1217	n/a	0	n/a	0	0	0	0	0.5869140625	0.422607421875	upper	../fonts/amplitud.ttf
2009165	WORD	wordpools/wasnorm_wordpool_less_exclusions.txt	LTP189	ltpFR	7	7	1	FUGITIVE	612	n/a	0	n/a	0	0	0	0	0.5869140625	0.422607421875	upper	../fonts/amplitud.ttf
2013142	WORD	wordpools/wasnorm_wordpool_less_exclusions.txt	LTP189	ltpFR	7	7	1	PILL	1068	n/a	0	n/a	0	0	0	0	0.5869140625	0.422607421875	upper	../fonts/amplitud.ttf
2017153	WORD	wordpools/wasnorm_wordpool_less_exclusions.txt	LTP189	ltpFR	7	7	1	CABIN	211	n/a	0	n/a	0	0	0	0	0.5869140625	0.422607421875	upper	../fonts/amplitud.ttf
2020979	WORD	wordpools/wasnorm_wordpool_less_exclusions.txt	LTP189	ltpFR	7	7	1	PIGEON	1065	n/a	1	n/a	0	0	0	0	0.5869140625	0.422607421875	upper	../fonts/amplitud.ttf
2024923	WORD	wordpools/wasnorm_wordpool_less_exclusions.txt	LTP189	ltpFR	7	7	1	BLUEJAY	141	n/a	1	n/a	0	0	0	0	0.5869140625	0.422607421875	upper	../fonts/amplitud.ttf
2029068	WORD	wordpools/wasnorm_wordpool_less_exclusions.txt	LTP189	ltpFR	7	7	1	LOG	841	n/a	1	n/a	0	0	0	0	0.5869140625	0.422607421875	upper	../fonts/amplitud.ttf
2033179	WORD	wordpools/wasnorm_wordpool_less_exclusions.txt	LTP189	ltpFR	7	7	1	PUBLICATION	1136	n/a	0	n/a	0	0	0	0	0.5869140625	0.422607421875	upper	../fonts/amplitud.ttf
2037256	WORD	wordpools/wasnorm_wordpool_less_exclusions.txt	LTP189	ltpFR	7	7	1	ATTORNEY	58	n/a	1	n/a	0	0	0	0	0.5869140625	0.422607421875	upper	../fonts/amplitud.ttf
2041117	WORD	wordpools/wasnorm_wordpool_less_exclusions.txt	LTP189	ltpFR	7	7	1	OINTMENT	974	n/a	0	n/a	0	0	0	0	0.5869140625	0.422607421875	upper	../fonts/amplitud.ttf
2045261	WORD	wordpools/wasnorm_wordpool_less_exclusions.txt	LTP189	ltpFR	7	7	1	SHEEP	1278	n/a	1	n/a	0	0	0	0	0.5869140625	0.422607421875	upper	../fonts/amplitud.ttf
2049471	WORD	wordpools/wasnorm_wordpool_less_exclusions.txt	LTP189	ltpFR	7	7	1	ANKLE	24	n/a	0	n/a	0	0	0	0	0.5869140625	0.422607421875	upper	../fonts/amplitud.ttf
2053648	WORD	wordpools/wasnorm_wordpool_less_exclusions.txt	LTP189	ltpFR	7	7	1	FINGER	567	n/a	1	n/a	0	0	0	0	0.5869140625	0.422607421875	upper	../fonts/amplitud.ttf
2057476	WORD	wordpools/wasnorm_wordpool_less_exclusions.txt	LTP189	ltpFR	7	7	1	BEET	115	n/a	1	n/a	0	0	0	0	0.5869140625	0.422607421875	upper	../fonts/amplitud.ttf
2061586	WORD	wordpools/wasnorm_wordpool_less_exclusions.txt	LTP189	ltpFR	7	7	1	TOMATO	1476	n/a	1	n/a	0	0	0	0	0.5869140625	0.422607421875	upper	../fonts/amplitud.ttf
2067378	REC_START	n/a	LTP189	ltpFR	7	7	n/a	n/a	n/a	n/a	n/a	n/a	0	0	0	n/a	n/a	n/a	n/a	n/a
2069338	REC_WORD	wordpools/wasnorm_wordpool_less_exclusions.txt	LTP189	ltpFR	7	7	1	TOMATO	1476	n/a	1	n/a	0	0	0	n/a	n/a	n/a	n/a	n/a
2070805	REC_WORD	wordpools/wasnorm_wordpool_less_exclusions.txt	LTP189	ltpFR	7	7	1	BEET	115	n/a	1	n/a	0	0	0	n/a	n/a	n/a	n/a	n/a
2071793	REC_WORD	wordpools/wasnorm_wordpool_less_exclusions.txt	LTP189	ltpFR	7	7	1	ANKLE	24	n/a	0	n/a	0	0	0	n/a	n/a	n/a	n/a	n/a
2072531	REC_WORD	wordpools/wasnorm_wordpool_less_exclusions.txt	LTP189	ltpFR	7	7	1	FUGITIVE	612	n/a	0	n/a	0	0	0	n/a	n/a	n/a	n/a	n/a
2073559	REC_WORD	wordpools/wasnorm_wordpool_less_exclusions.txt	LTP189	ltpFR	7	7	1	LOG	841	n/a	1	n/a	0	0	0	n/a	n/a	n/a	n/a	n/a
2074242	REC_WORD	wordpools/wasnorm_wordpool_less_exclusions.txt	LTP189	ltpFR	7	7	1	ATTORNEY	58	n/a	1	n/a	0	0	0	n/a	n/a	n/a	n/a	n/a
2075125	REC_WORD	wordpools/wasnorm_wordpool_less_exclusions.txt	LTP189	ltpFR	7	7	1	OINTMENT	974	n/a	0	n/a	0	0	0	n/a	n/a	n/a	n/a	n/a
2076312	REC_WORD	wordpools/wasnorm_wordpool_less_exclusions.txt	LTP189	ltpFR	7	7	1	SHEEP	1278	n/a	1	n/a	0	0	0	n/a	n/a	n/a	n/a	n/a
2077964	REC_WORD	wordpools/wasnorm_wordpool_less_exclusions.txt	LTP189	ltpFR	7	7	1	MOTOR	922	n/a	0	n/a	0	0	0	n/a	n/a	n/a	n/a	n/a
2078602	REC_WORD	wordpools/wasnorm_wordpool_less_exclusions.txt	LTP189	ltpFR	7	7	1	RUM	1217	n/a	0	n/a	0	0	0	n/a	n/a	n/a	n/a	n/a
2082404	REC_WORD	wordpools/wasnorm_wordpool_less_exclusions.txt	LTP189	ltpFR	7	7	1	CABIN	211	n/a	0	n/a	0	0	0	n/a	n/a	n/a	n/a	n/a
2083731	REC_WORD	wordpools/wasnorm_wordpool_less_exclusions.txt	LTP189	ltpFR	7	7	1	PIGEON	1065	n/a	1	n/a	0	0	0	n/a	n/a	n/a	n/a	n/a
2084434	REC_WORD	wordpools/wasnorm_wordpool_less_exclusions.txt	LTP189	ltpFR	7	7	1	BLUEJAY	141	n/a	1	n/a	0	0	0	n/a	n/a	n/a	n/a	n/a
2152217	WORD	wordpools/wasnorm_wordpool_less_exclusions.txt	LTP189	ltpFR	7	8	0	BALLOT	76	n/a	0	n/a	0	0	0	1	0.412841796875	0.57763671875	lower	../fonts/zerothre.ttf
2156095	WORD	wordpools/wasnorm_wordpool_less_exclusions.txt	LTP189	ltpFR	7	8	0	UNIFORM	1539	n/a	1	n/a	0	0	0	1	0.412841796875	0.57763671875	lower	../fonts/zerothre.ttf
2160139	WORD	wordpools/wasnorm_wordpool_less_exclusions.txt	LTP189	ltpFR	7	8	0	SCISSORS	1250	n/a	0	n/a	0	0	0	1	0.412841796875	0.57763671875	lower	../fonts/zerothre.ttf
2164233	WORD	wordpools/wasnorm_wordpool_less_exclusions.txt	LTP189	ltpFR	7	8	0	CLIPPERS	324	n/a	0	n/a	0	0	0	1	0.412841796875	0.57763671875	lower	../fonts/zerothre.ttf
2168310	WORD	wordpools/wasnorm_wordpool_less_exclusions.txt	LTP189	ltpFR	7	8	0	FOOTBALL	591	n/a	0	n/a	0	0	0	1	0.412841796875	0.57763671875	lower	../fonts/zerothre.ttf
2172404	WORD	wordpools/wasnorm_wordpool_less_exclusions.txt	LTP189	ltpFR	7	8	0	VEST	1559	n/a	0	n/a	0	0	0	1	0.412841796875	0.57763671875	lower	../fonts/zerothre.ttf
2176398	WORD	wordpools/wasnorm_wordpool_less_exclusions.txt	LTP189	ltpFR	7	8	0	EDITOR	516	n/a	1	n/a	0	0	0	1	0.412841796875	0.57763671875	lower	../fonts/zerothre.ttf
2180375	WORD	wordpools/wasnorm_wordpool_less_exclusions.txt	LTP189	ltpFR	7	8	0	TABLET	1427	n/a	0	n/a	0	0	0	1	0.412841796875	0.57763671875	lower	../fonts/zerothre.ttf
2184320	WORD	wordpools/wasnorm_wordpool_less_exclusions.txt	LTP189	ltpFR	7	8	0	MEAL	882	n/a	0	n/a	0	0	0	1	0.412841796875	0.57763671875	lower	../fonts/zerothre.ttf
2188230	WORD	wordpools/wasnorm_wordpool_less_exclusions.txt	LTP189	ltpFR	7	8	0	AFRICA	9	n/a	1	n/a	0	0	0	1	0.412841796875	0.57763671875	lower	../fonts/zerothre.ttf
2192407	WORD	wordpools/wasnorm_wordpool_less_exclusions.txt	LTP189	ltpFR	7	8	0	FELLOW	558	n/a	1	n/a	0	0	0	1	0.412841796875	0.57763671875	lower	../fonts/zerothre.ttf
2196268	WORD	wordpools/wasnorm_wordpool_less_exclusions.txt	LTP189	ltpFR	7	8	0	BOTTLE	153	n/a	0	n/a	0	0	0	1	0.412841796875	0.57763671875	lower	../fonts/zerothre.ttf
2200379	WORD	wordpools/wasnorm_wordpool_less_exclusions.txt	LTP189	ltpFR	7	8	0	DRINK	498	n/a	0	n/a	0	0	0	1	0.412841796875	0.57763671875	lower	../fonts/zerothre.ttf
2204556	WORD	wordpools/wasnorm_wordpool_less_exclusions.txt	LTP189	ltpFR	7	8	0	DINNER	468	n/a	0	n/a	0	0	0	1	0.412841796875	0.57763671875	lower	../fonts/zerothre.ttf
2208500	WORD	wordpools/wasnorm_wordpool_less_exclusions.txt	LTP189	ltpFR	7	8	0	CANYON	235	n/a	0	n/a	0	0	0	1	0.412841796875	0.57763671875	lower	../fonts/zerothre.ttf
2212411	WORD	wordpools/wasnorm_wordpool_less_exclusions.txt	LTP189	ltpFR	7	8	0	SOFTBALL	1343	n/a	0	n/a	0	0	0	1	0.412841796875	0.57763671875	lower	../fonts/zerothre.ttf
2215423	START	n/a	LTP189	ltpFR	7	n/a	n/a	n/a	n/a	n/a	n/a	n/a	n/a	n/a	n/a	n/a	n/a	n/a	n/a	n/a
2216521	PROB	n/a	LTP189	ltpFR	7	n/a	n/a	n/a	n/a	n/a	n/a	15	8	5	2	n/a	n/a	n/a	n/a	n/a
2218983	PROB	n/a	LTP189	ltpFR	7	n/a	n/a	n/a	n/a	n/a	n/a	16	4	3	9	n/a	n/a	n/a	n/a	n/a
2221946	PROB	n/a	LTP189	ltpFR	7	n/a	n/a	n/a	n/a	n/a	n/a	21	4	8	9	n/a	n/a	n/a	n/a	n/a
2226390	PROB	n/a	LTP189	ltpFR	7	n/a	n/a	n/a	n/a	n/a	n/a	20	7	7	6	n/a	n/a	n/a	n/a	n/a
2231422	STOP	n/a	LTP189	ltpFR	7	n/a	n/a	n/a	n/a	n/a	n/a	n/a	n/a	n/a	n/a	n/a	n/a	n/a	n/a	n/a
2233214	REC_START	n/a	LTP189	ltpFR	7	8	n/a	n/a	n/a	n/a	n/a	n/a	0	0	0	n/a	n/a	n/a	n/a	n/a
2234700	REC_WORD	wordpools/wasnorm_wordpool_less_exclusions.txt	LTP189	ltpFR	7	8	0	FOOTBALL	591	n/a	0	n/a	0	0	0	n/a	n/a	n/a	n/a	n/a
2235184	REC_WORD	wordpools/wasnorm_wordpool_less_exclusions.txt	LTP189	ltpFR	7	8	0	CLIPPERS	324	n/a	0	n/a	0	0	0	n/a	n/a	n/a	n/a	n/a
2236332	REC_WORD	wordpools/wasnorm_wordpool_less_exclusions.txt	LTP189	ltpFR	7	8	0	SCISSORS	1250	n/a	0	n/a	0	0	0	n/a	n/a	n/a	n/a	n/a
2236826	REC_WORD	wordpools/wasnorm_wordpool_less_exclusions.txt	LTP189	ltpFR	7	8	0	BALLOT	76	n/a	0	n/a	0	0	0	n/a	n/a	n/a	n/a	n/a
2238726	REC_WORD	wordpools/wasnorm_wordpool_less_exclusions.txt	LTP189	ltpFR	7	8	0	UNIFORM	1539	n/a	1	n/a	0	0	0	n/a	n/a	n/a	n/a	n/a
2239185	REC_WORD	wordpools/wasnorm_wordpool_less_exclusions.txt	LTP189	ltpFR	7	8	0	VEST	1559	n/a	0	n/a	0	0	0	n/a	n/a	n/a	n/a	n/a
2241325	REC_WORD	wordpools/wasnorm_wordpool_less_exclusions.txt	LTP189	ltpFR	7	8	0	EDITOR	516	n/a	1	n/a	0	0	0	n/a	n/a	n/a	n/a	n/a
2241759	REC_WORD	wordpools/wasnorm_wordpool_less_exclusions.txt	LTP189	ltpFR	7	8	0	TABLET	1427	n/a	0	n/a	0	0	0	n/a	n/a	n/a	n/a	n/a
2259125	REC_WORD_VV	wordpools/wasnorm_wordpool_less_exclusions.txt	LTP189	ltpFR	7	8	n/a	<>	-1	n/a	n/a	n/a	0	0	0	n/a	n/a	n/a	n/a	n/a
2290922	REC_WORD	wordpools/wasnorm_wordpool_less_exclusions.txt	LTP189	ltpFR	7	8	0	FOOTBALL	591	n/a	0	n/a	0	0	0	n/a	n/a	n/a	n/a	n/a
2291283	REC_WORD	wordpools/wasnorm_wordpool_less_exclusions.txt	LTP189	ltpFR	7	8	0	SOFTBALL	1343	n/a	0	n/a	0	0	0	n/a	n/a	n/a	n/a	n/a
2347076	WORD	wordpools/wasnorm_wordpool_less_exclusions.txt	LTP189	ltpFR	7	9	0	LINT	826	n/a	0	n/a	0	0	0	1	0.412841796875	0.57763671875	lower	../fonts/zerothre.ttf
2351004	WORD	wordpools/wasnorm_wordpool_less_exclusions.txt	LTP189	ltpFR	7	9	0	BELLY	119	n/a	0	n/a	0	0	0	1	0.412841796875	0.57763671875	lower	../fonts/zerothre.ttf
2355065	WORD	wordpools/wasnorm_wordpool_less_exclusions.txt	LTP189	ltpFR	7	9	0	THIGH	1457	n/a	0	n/a	0	0	0	1	0.412841796875	0.57763671875	lower	../fonts/zerothre.ttf
2359242	WORD	wordpools/wasnorm_wordpool_less_exclusions.txt	LTP189	ltpFR	7	9	0	ROBE	1198	n/a	0	n/a	0	0	0	1	0.412841796875	0.57763671875	lower	../fonts/zerothre.ttf
2363119	WORD	wordpools/wasnorm_wordpool_less_exclusions.txt	LTP189	ltpFR	7	9	0	GROCERIES	663	n/a	1	n/a	0	0	0	1	0.412841796875	0.57763671875	lower	../fonts/zerothre.ttf
2367063	WORD	wordpools/wasnorm_wordpool_less_exclusions.txt	LTP189	ltpFR	7	9	0	HAM	678	n/a	1	n/a	0	0	0	1	0.412841796875	0.57763671875	lower	../fonts/zerothre.ttf
2371174	WORD	wordpools/wasnorm_wordpool_less_exclusions.txt	LTP189	ltpFR	7	9	0	SEAGULL	1261	n/a	0	n/a	0	0	0	1	0.412841796875	0.57763671875	lower	../fonts/zerothre.ttf
2375201	WORD	wordpools/wasnorm_wordpool_less_exclusions.txt	LTP189	ltpFR	7	9	0	EAGLE	512	n/a	0	n/a	0	0	0	1	0.412841796875	0.57763671875	lower	../fonts/zerothre.ttf
2379312	WORD	wordpools/wasnorm_wordpool_less_exclusions.txt	LTP189	ltpFR	7	9	0	RIVER	1194	n/a	1	n/a	0	0	0	1	0.412841796875	0.57763671875	lower	../fonts/zerothre.ttf
2383389	WORD	wordpools/wasnorm_wordpool_less_exclusions.txt	LTP189	ltpFR	7	9	0	LIME	823	n/a	0	n/a	0	0	0	1	0.412841796875	0.57763671875	lower	../fonts/zerothre.ttf
2387433	WORD	wordpools/wasnorm_wordpool_less_exclusions.txt	LTP189	ltpFR	7	9	0	DILL	465	n/a	0	n/a	0	0	0	1	0.412841796875	0.57763671875	lower	../fonts/zerothre.ttf
2391410	WORD	wordpools/wasnorm_wordpool_less_exclusions.txt	LTP189	ltpFR	7	9	0	PIKE	1067	n/a	0	n/a	0	0	0	1	0.412841796875	0.57763671875	lower	../fonts/zerothre.ttf
2395604	WORD	wordpools/wasnorm_wordpool_less_exclusions.txt	LTP189	ltpFR	7	9	0	ABDOMEN	1	n/a	1	n/a	0	0	0	1	0.412841796875	0.57763671875	lower	../fonts/zerothre.ttf
2399814	WORD	wordpools/wasnorm_wordpool_less_exclusions.txt	LTP189	ltpFR	7	9	0	HANDKERCHIEF	686	n/a	0	n/a	0	0	0	1	0.412841796875	0.57763671875	lower	../fonts/zerothre.ttf
2403974	WORD	wordpools/wasnorm_wordpool_less_exclusions.txt	LTP189	ltpFR	7	9	0	MITTEN	902	n/a	0	n/a	0	0	0	1	0.412841796875	0.57763671875	lower	../fonts/zerothre.ttf
2407868	WORD	wordpools/wasnorm_wordpool_less_exclusions.txt	LTP189	ltpFR	7	9	0	CELLAR	267	n/a	0	n/a	0	0	0	1	0.412841796875	0.57763671875	lower	../fonts/zerothre.ttf
2410880	START	n/a	LTP189	ltpFR	7	n/a	n/a	n/a	n/a	n/a	n/a	n/a	n/a	n/a	n/a	n/a	n/a	n/a	n/a	n/a
2411929	PROB	n/a	LTP189	ltpFR	7	n/a	n/a	n/a	n/a	n/a	n/a	1	4	9	6	n/a	n/a	n/a	n/a	n/a
2414675	PROB	n/a	LTP189	ltpFR	7	n/a	n/a	n/a	n/a	n/a	n/a	9	3	3	3	n/a	n/a	n/a	n/a	n/a
2416057	PROB	n/a	LTP189	ltpFR	7	n/a	n/a	n/a	n/a	n/a	n/a	16	9	2	5	n/a	n/a	n/a	n/a	n/a
2418325	STOP	n/a	LTP189	ltpFR	7	n/a	n/a	n/a	n/a	n/a	n/a	n/a	n/a	n/a	n/a	n/a	n/a	n/a	n/a	n/a
2420800	REC_START	n/a	LTP189	ltpFR	7	9	n/a	n/a	n/a	n/a	n/a	n/a	0	0	0	n/a	n/a	n/a	n/a	n/a
2421713	REC_WORD	wordpools/wasnorm_wordpool_less_exclusions.txt	LTP189	ltpFR	7	9	0	ABDOMEN	1	n/a	1	n/a	0	0	0	n/a	n/a	n/a	n/a	n/a
2422331	REC_WORD	wordpools/wasnorm_wordpool_less_exclusions.txt	LTP189	ltpFR	7	9	0	BELLY	119	n/a	0	n/a	0	0	0	n/a	n/a	n/a	n/a	n/a
2422815	REC_WORD	wordpools/wasnorm_wordpool_less_exclusions.txt	LTP189	ltpFR	7	9	0	LINT	826	n/a	0	n/a	0	0	0	n/a	n/a	n/a	n/a	n/a
2423404	REC_WORD	wordpools/wasnorm_wordpool_less_exclusions.txt	LTP189	ltpFR	7	9	0	THIGH	1457	n/a	0	n/a	0	0	0	n/a	n/a	n/a	n/a	n/a
2425519	REC_WORD	wordpools/wasnorm_wordpool_less_exclusions.txt	LTP189	ltpFR	7	9	0	HANDKERCHIEF	686	n/a	0	n/a	0	0	0	n/a	n/a	n/a	n/a	n/a
2426507	REC_WORD	wordpools/wasnorm_wordpool_less_exclusions.txt	LTP189	ltpFR	7	9	0	MITTEN	902	n/a	0	n/a	0	0	0	n/a	n/a	n/a	n/a	n/a
2427071	REC_WORD	wordpools/wasnorm_wordpool_less_exclusions.txt	LTP189	ltpFR	7	9	0	LIME	823	n/a	0	n/a	0	0	0	n/a	n/a	n/a	n/a	n/a
2427470	REC_WORD	wordpools/wasnorm_wordpool_less_exclusions.txt	LTP189	ltpFR	7	9	0	HAM	678	n/a	1	n/a	0	0	0	n/a	n/a	n/a	n/a	n/a
2428098	REC_WORD	wordpools/wasnorm_wordpool_less_exclusions.txt	LTP189	ltpFR	7	9	0	GROCERIES	663	n/a	1	n/a	0	0	0	n/a	n/a	n/a	n/a	n/a
2428670	REC_WORD	wordpools/wasnorm_wordpool_less_exclusions.txt	LTP189	ltpFR	7	9	0	RIVER	1194	n/a	1	n/a	0	0	0	n/a	n/a	n/a	n/a	n/a
2428964	REC_WORD	wordpools/wasnorm_wordpool_less_exclusions.txt	LTP189	ltpFR	7	9	0	CELLAR	267	n/a	0	n/a	0	0	0	n/a	n/a	n/a	n/a	n/a
2430094	REC_WORD	wordpools/wasnorm_wordpool_less_exclusions.txt	LTP189	ltpFR	7	9	0	EAGLE	512	n/a	0	n/a	0	0	0	n/a	n/a	n/a	n/a	n/a
2437557	REC_WORD	wordpools/wasnorm_wordpool_less_exclusions.txt	LTP189	ltpFR	7	9	0	ROBE	1198	n/a	0	n/a	0	0	0	n/a	n/a	n/a	n/a	n/a
2528356	START	n/a	LTP189	ltpFR	7	n/a	n/a	n/a	n/a	n/a	n/a	n/a	n/a	n/a	n/a	n/a	n/a	n/a	n/a	n/a
2529869	PROB	n/a	LTP189	ltpFR	7	n/a	n/a	n/a	n/a	n/a	n/a	18	4	6	8	n/a	n/a	n/a	n/a	n/a
2532150	PROB	n/a	LTP189	ltpFR	7	n/a	n/a	n/a	n/a	n/a	n/a	17	7	9	1	n/a	n/a	n/a	n/a	n/a
2534363	PROB	n/a	LTP189	ltpFR	7	n/a	n/a	n/a	n/a	n/a	n/a	15	4	3	8	n/a	n/a	n/a	n/a	n/a
2537026	PROB	n/a	LTP189	ltpFR	7	n/a	n/a	n/a	n/a	n/a	n/a	11	2	6	3	n/a	n/a	n/a	n/a	n/a
2539373	PROB	n/a	LTP189	ltpFR	7	n/a	n/a	n/a	n/a	n/a	n/a	19	6	5	8	n/a	n/a	n/a	n/a	n/a
2541586	PROB	n/a	LTP189	ltpFR	7	n/a	n/a	n/a	n/a	n/a	n/a	11	2	8	1	n/a	n/a	n/a	n/a	n/a
2543237	STOP	n/a	LTP189	ltpFR	7	n/a	n/a	n/a	n/a	n/a	n/a	n/a	n/a	n/a	n/a	n/a	n/a	n/a	n/a	n/a
2545430	WORD	wordpools/wasnorm_wordpool_less_exclusions.txt	LTP189	ltpFR	7	10	0	DUST	508	n/a	0	n/a	0	0	0	1	0.412841796875	0.57763671875	lower	../fonts/zerothre.ttf
2548443	START	n/a	LTP189	ltpFR	7	n/a	n/a	n/a	n/a	n/a	n/a	n/a	n/a	n/a	n/a	n/a	n/a	n/a	n/a	n/a
2549374	PROB	n/a	LTP189	ltpFR	7	n/a	n/a	n/a	n/a	n/a	n/a	19	6	4	9	n/a	n/a	n/a	n/a	n/a
2551421	PROB	n/a	LTP189	ltpFR	7	n/a	n/a	n/a	n/a	n/a	n/a	16	9	5	2	n/a	n/a	n/a	n/a	n/a
2553668	PROB	n/a	LTP189	ltpFR	7	n/a	n/a	n/a	n/a	n/a	n/a	17	3	9	5	n/a	n/a	n/a	n/a	n/a
2556064	PROB	n/a	LTP189	ltpFR	7	n/a	n/a	n/a	n/a	n/a	n/a	13	7	2	4	n/a	n/a	n/a	n/a	n/a
2559093	PROB	n/a	LTP189	ltpFR	7	n/a	n/a	n/a	n/a	n/a	n/a	13	3	5	5	n/a	n/a	n/a	n/a	n/a
2560724	PROB	n/a	LTP189	ltpFR	7	n/a	n/a	n/a	n/a	n/a	n/a	14	3	4	7	n/a	n/a	n/a	n/a	n/a
2564443	STOP	n/a	LTP189	ltpFR	7	n/a	n/a	n/a	n/a	n/a	n/a	n/a	n/a	n/a	n/a	n/a	n/a	n/a	n/a	n/a
2565400	WORD	wordpools/wasnorm_wordpool_less_exclusions.txt	LTP189	ltpFR	7	10	0	PUB	1135	n/a	0	n/a	0	0	0	1	0.412841796875	0.57763671875	lower	../fonts/zerothre.ttf
2568413	START	n/a	LTP189	ltpFR	7	n/a	n/a	n/a	n/a	n/a	n/a	n/a	n/a	n/a	n/a	n/a	n/a	n/a	n/a	n/a
2569378	PROB	n/a	LTP189	ltpFR	7	n/a	n/a	n/a	n/a	n/a	n/a	13	2	8	3	n/a	n/a	n/a	n/a	n/a
2571508	PROB	n/a	LTP189	ltpFR	7	n/a	n/a	n/a	n/a	n/a	n/a	14	8	1	5	n/a	n/a	n/a	n/a	n/a
2573870	PROB	n/a	LTP189	ltpFR	7	n/a	n/a	n/a	n/a	n/a	n/a	13	8	1	4	n/a	n/a	n/a	n/a	n/a
2575785	PROB	n/a	LTP189	ltpFR	7	n/a	n/a	n/a	n/a	n/a	n/a	12	4	5	3	n/a	n/a	n/a	n/a	n/a
2577831	PROB	n/a	LTP189	ltpFR	7	n/a	n/a	n/a	n/a	n/a	n/a	18	8	1	9	n/a	n/a	n/a	n/a	n/a
2580062	PROB	n/a	LTP189	ltpFR	7	n/a	n/a	n/a	n/a	n/a	n/a	15	1	9	5	n/a	n/a	n/a	n/a	n/a
2581908	PROB	n/a	LTP189	ltpFR	7	n/a	n/a	n/a	n/a	n/a	n/a	11	3	1	7	n/a	n/a	n/a	n/a	n/a
2583573	STOP	n/a	LTP189	ltpFR	7	n/a	n/a	n/a	n/a	n/a	n/a	n/a	n/a	n/a	n/a	n/a	n/a	n/a	n/a	n/a
2585470	WORD	wordpools/wasnorm_wordpool_less_exclusions.txt	LTP189	ltpFR	7	10	0	UNDERWEAR	1537	n/a	0	n/a	0	0	0	1	0.412841796875	0.57763671875	lower	../fonts/zerothre.ttf
2588483	START	n/a	LTP189	ltpFR	7	n/a	n/a	n/a	n/a	n/a	n/a	n/a	n/a	n/a	n/a	n/a	n/a	n/a	n/a	n/a
2589398	PROB	n/a	LTP189	ltpFR	7	n/a	n/a	n/a	n/a	n/a	n/a	20	9	4	7	n/a	n/a	n/a	n/a	n/a
2592825	PROB	n/a	LTP189	ltpFR	7	n/a	n/a	n/a	n/a	n/a	n/a	3	1	1	1	n/a	n/a	n/a	n/a	n/a
2595356	PROB	n/a	LTP189	ltpFR	7	n/a	n/a	n/a	n/a	n/a	n/a	13	2	7	4	n/a	n/a	n/a	n/a	n/a
2599333	PROB	n/a	LTP189	ltpFR	7	n/a	n/a	n/a	n/a	n/a	n/a	16	3	5	8	n/a	n/a	n/a	n/a	n/a
2601247	PROB	n/a	LTP189	ltpFR	7	n/a	n/a	n/a	n/a	n/a	n/a	15	8	3	4	n/a	n/a	n/a	n/a	n/a
2603221	STOP	n/a	LTP189	ltpFR	7	n/a	n/a	n/a	n/a	n/a	n/a	n/a	n/a	n/a	n/a	n/a	n/a	n/a	n/a	n/a
2605674	WORD	wordpools/wasnorm_wordpool_less_exclusions.txt	LTP189	ltpFR	7	10	0	PIRATE	1074	n/a	0	n/a	0	0	0	1	0.412841796875	0.57763671875	lower	../fonts/zerothre.ttf
2608686	START	n/a	LTP189	ltpFR	7	n/a	n/a	n/a	n/a	n/a	n/a	n/a	n/a	n/a	n/a	n/a	n/a	n/a	n/a	n/a
2609534	PROB	n/a	LTP189	ltpFR	7	n/a	n/a	n/a	n/a	n/a	n/a	12	7	3	2	n/a	n/a	n/a	n/a	n/a
2611698	PROB	n/a	LTP189	ltpFR	7	n/a	n/a	n/a	n/a	n/a	n/a	8	3	2	3	n/a	n/a	n/a	n/a	n/a
2615409	PROB	n/a	LTP189	ltpFR	7	n/a	n/a	n/a	n/a	n/a	n/a	21	6	9	6	n/a	n/a	n/a	n/a	n/a
2618903	PROB	n/a	LTP189	ltpFR	7	n/a	n/a	n/a	n/a	n/a	n/a	25	8	8	9	n/a	n/a	n/a	n/a	n/a
2623773	STOP	n/a	LTP189	ltpFR	7	n/a	n/a	n/a	n/a	n/a	n/a	n/a	n/a	n/a	n/a	n/a	n/a	n/a	n/a	n/a
2625560	WORD	wordpools/wasnorm_wordpool_less_exclusions.txt	LTP189	ltpFR	7	10	0	TOWN	1491	n/a	1	n/a	0	0	0	1	0.412841796875	0.57763671875	lower	../fonts/zerothre.ttf
2628573	START	n/a	LTP189	ltpFR	7	n/a	n/a	n/a	n/a	n/a	n/a	n/a	n/a	n/a	n/a	n/a	n/a	n/a	n/a	n/a
2629438	PROB	n/a	LTP189	ltpFR	7	n/a	n/a	n/a	n/a	n/a	n/a	15	4	4	7	n/a	n/a	n/a	n/a	n/a
2632583	PROB	n/a	LTP189	ltpFR	7	n/a	n/a	n/a	n/a	n/a	n/a	10	1	3	6	n/a	n/a	n/a	n/a	n/a
2635313	PROB	n/a	LTP189	ltpFR	7	n/a	n/a	n/a	n/a	n/a	n/a	17	5	9	3	n/a	n/a	n/a	n/a	n/a
2638906	PROB	n/a	LTP189	ltpFR	7	n/a	n/a	n/a	n/a	n/a	n/a	18	5	5	8	n/a	n/a	n/a	n/a	n/a
2641320	PROB	n/a	LTP189	ltpFR	7	n/a	n/a	n/a	n/a	n/a	n/a	16	3	5	8	n/a	n/a	n/a	n/a	n/a
2643621	STOP	n/a	LTP189	ltpFR	7	n/a	n/a	n/a	n/a	n/a	n/a	n/a	n/a	n/a	n/a	n/a	n/a	n/a	n/a	n/a
2645514	WORD	wordpools/wasnorm_wordpool_less_exclusions.txt	LTP189	ltpFR	7	10	0	CAPITAL	238	n/a	1	n/a	0	0	0	1	0.412841796875	0.57763671875	lower	../fonts/zerothre.ttf
2648527	START	n/a	LTP189	ltpFR	7	n/a	n/a	n/a	n/a	n/a	n/a	n/a	n/a	n/a	n/a	n/a	n/a	n/a	n/a	n/a
2649724	PROB	n/a	LTP189	ltpFR	7	n/a	n/a	n/a	n/a	n/a	n/a	11	8	1	2	n/a	n/a	n/a	n/a	n/a
2652819	PROB	n/a	LTP189	ltpFR	7	n/a	n/a	n/a	n/a	n/a	n/a	20	2	9	9	n/a	n/a	n/a	n/a	n/a
2655333	PROB	n/a	LTP189	ltpFR	7	n/a	n/a	n/a	n/a	n/a	n/a	16	6	2	8	n/a	n/a	n/a	n/a	n/a
2660823	PROB	n/a	LTP189	ltpFR	7	n/a	n/a	n/a	n/a	n/a	n/a	12	5	1	6	n/a	n/a	n/a	n/a	n/a
2662455	PROB	n/a	LTP189	ltpFR	7	n/a	n/a	n/a	n/a	n/a	n/a	12	7	3	2	n/a	n/a	n/a	n/a	n/a
2664221	STOP	n/a	LTP189	ltpFR	7	n/a	n/a	n/a	n/a	n/a	n/a	n/a	n/a	n/a	n/a	n/a	n/a	n/a	n/a	n/a
2665667	WORD	wordpools/wasnorm_wordpool_less_exclusions.txt	LTP189	ltpFR	7	10	0	VINEGAR	1569	n/a	0	n/a	0	0	0	1	0.412841796875	0.57763671875	lower	../fonts/zerothre.ttf
2668680	START	n/a	LTP189	ltpFR	7	n/a	n/a	n/a	n/a	n/a	n/a	n/a	n/a	n/a	n/a	n/a	n/a	n/a	n/a	n/a
2669611	PROB	n/a	LTP189	ltpFR	7	n/a	n/a	n/a	n/a	n/a	n/a	12	5	6	1	n/a	n/a	n/a	n/a	n/a
2671542	PROB	n/a	LTP189	ltpFR	7	n/a	n/a	n/a	n/a	n/a	n/a	13	3	9	1	n/a	n/a	n/a	n/a	n/a
2674554	PROB	n/a	LTP189	ltpFR	7	n/a	n/a	n/a	n/a	n/a	n/a	15	5	6	4	n/a	n/a	n/a	n/a	n/a
2678032	PROB	n/a	LTP189	ltpFR	7	n/a	n/a	n/a	n/a	n/a	n/a	7	4	1	3	n/a	n/a	n/a	n/a	n/a
2679978	PROB	n/a	LTP189	ltpFR	7	n/a	n/a	n/a	n/a	n/a	n/a	24	9	8	7	n/a	n/a	n/a	n/a	n/a
2683581	STOP	n/a	LTP189	ltpFR	7	n/a	n/a	n/a	n/a	n/a	n/a	n/a	n/a	n/a	n/a	n/a	n/a	n/a	n/a	n/a
2685687	WORD	wordpools/wasnorm_wordpool_less_exclusions.txt	LTP189	ltpFR	7	10	0	SEA	1259	n/a	0	n/a	0	0	0	1	0.412841796875	0.57763671875	lower	../fonts/zerothre.ttf
2688700	START	n/a	LTP189	ltpFR	7	n/a	n/a	n/a	n/a	n/a	n/a	n/a	n/a	n/a	n/a	n/a	n/a	n/a	n/a	n/a
2689548	PROB	n/a	LTP189	ltpFR	7	n/a	n/a	n/a	n/a	n/a	n/a	14	1	6	7	n/a	n/a	n/a	n/a	n/a
2691395	PROB	n/a	LTP189	ltpFR	7	n/a	n/a	n/a	n/a	n/a	n/a	19	9	4	6	n/a	n/a	n/a	n/a	n/a
2694108	PROB	n/a	LTP189	ltpFR	7	n/a	n/a	n/a	n/a	n/a	n/a	8	1	1	6	n/a	n/a	n/a	n/a	n/a
2695672	PROB	n/a	LTP189	ltpFR	7	n/a	n/a	n/a	n/a	n/a	n/a	13	4	4	5	n/a	n/a	n/a	n/a	n/a
2698435	PROB	n/a	LTP189	ltpFR	7	n/a	n/a	n/a	n/a	n/a	n/a	12	4	4	4	n/a	n/a	n/a	n/a	n/a
2700830	PROB	n/a	LTP189	ltpFR	7	n/a	n/a	n/a	n/a	n/a	n/a	17	5	6	6	n/a	n/a	n/a	n/a	n/a
2703349	STOP	n/a	LTP189	ltpFR	7	n/a	n/a	n/a	n/a	n/a	n/a	n/a	n/a	n/a	n/a	n/a	n/a	n/a	n/a	n/a
2705657	WORD	wordpools/wasnorm_wordpool_less_exclusions.txt	LTP189	ltpFR	7	10	0	BRIEFCASE	175	n/a	0	n/a	0	0	0	1	0.412841796875	0.57763671875	lower	../fonts/zerothre.ttf
2708670	START	n/a	LTP189	ltpFR	7	n/a	n/a	n/a	n/a	n/a	n/a	n/a	n/a	n/a	n/a	n/a	n/a	n/a	n/a	n/a
2709801	PROB	n/a	LTP189	ltpFR	7	n/a	n/a	n/a	n/a	n/a	n/a	13	4	3	6	n/a	n/a	n/a	n/a	n/a
2712181	PROB	n/a	LTP189	ltpFR	7	n/a	n/a	n/a	n/a	n/a	n/a	14	8	1	5	n/a	n/a	n/a	n/a	n/a
2714245	PROB	n/a	LTP189	ltpFR	7	n/a	n/a	n/a	n/a	n/a	n/a	24	7	8	9	n/a	n/a	n/a	n/a	n/a
2716758	PROB	n/a	LTP189	ltpFR	7	n/a	n/a	n/a	n/a	n/a	n/a	13	8	3	2	n/a	n/a	n/a	n/a	n/a
2719071	PROB	n/a	LTP189	ltpFR	7	n/a	n/a	n/a	n/a	n/a	n/a	14	1	8	5	n/a	n/a	n/a	n/a	n/a
2724670	STOP	n/a	LTP189	ltpFR	7	n/a	n/a	n/a	n/a	n/a	n/a	n/a	n/a	n/a	n/a	n/a	n/a	n/a	n/a	n/a
2725678	WORD	wordpools/wasnorm_wordpool_less_exclusions.txt	LTP189	ltpFR	7	10	0	NAVIGATOR	938	n/a	0	n/a	0	0	0	1	0.412841796875	0.57763671875	lower	../fonts/zerothre.ttf
2728690	START	n/a	LTP189	ltpFR	7	n/a	n/a	n/a	n/a	n/a	n/a	n/a	n/a	n/a	n/a	n/a	n/a	n/a	n/a	n/a
2729555	PROB	n/a	LTP189	ltpFR	7	n/a	n/a	n/a	n/a	n/a	n/a	21	6	9	6	n/a	n/a	n/a	n/a	n/a
2731851	PROB	n/a	LTP189	ltpFR	7	n/a	n/a	n/a	n/a	n/a	n/a	19	8	3	8	n/a	n/a	n/a	n/a	n/a
2734431	PROB	n/a	LTP189	ltpFR	7	n/a	n/a	n/a	n/a	n/a	n/a	16	3	4	9	n/a	n/a	n/a	n/a	n/a
2737244	PROB	n/a	LTP189	ltpFR	7	n/a	n/a	n/a	n/a	n/a	n/a	12	1	9	1	n/a	n/a	n/a	n/a	n/a
2738857	PROB	n/a	LTP189	ltpFR	7	n/a	n/a	n/a	n/a	n/a	n/a	17	2	6	9	n/a	n/a	n/a	n/a	n/a
2743645	STOP	n/a	LTP189	ltpFR	7	n/a	n/a	n/a	n/a	n/a	n/a	n/a	n/a	n/a	n/a	n/a	n/a	n/a	n/a	n/a
2745764	WORD	wordpools/wasnorm_wordpool_less_exclusions.txt	LTP189	ltpFR	7	10	0	SUBURB	1399	n/a	0	n/a	0	0	0	1	0.412841796875	0.57763671875	lower	../fonts/zerothre.ttf
2748777	START	n/a	LTP189	ltpFR	7	n/a	n/a	n/a	n/a	n/a	n/a	n/a	n/a	n/a	n/a	n/a	n/a	n/a	n/a	n/a
2749957	PROB	n/a	LTP189	ltpFR	7	n/a	n/a	n/a	n/a	n/a	n/a	9	7	1	1	n/a	n/a	n/a	n/a	n/a
2751389	PROB	n/a	LTP189	ltpFR	7	n/a	n/a	n/a	n/a	n/a	n/a	24	6	9	9	n/a	n/a	n/a	n/a	n/a
2754035	PROB	n/a	LTP189	ltpFR	7	n/a	n/a	n/a	n/a	n/a	n/a	13	7	1	5	n/a	n/a	n/a	n/a	n/a
2757247	PROB	n/a	LTP189	ltpFR	7	n/a	n/a	n/a	n/a	n/a	n/a	24	9	8	7	n/a	n/a	n/a	n/a	n/a
2760742	PROB	n/a	LTP189	ltpFR	7	n/a	n/a	n/a	n/a	n/a	n/a	11	3	6	2	n/a	n/a	n/a	n/a	n/a
2764381	STOP	n/a	LTP189	ltpFR	7	n/a	n/a	n/a	n/a	n/a	n/a	n/a	n/a	n/a	n/a	n/a	n/a	n/a	n/a	n/a
2765983	WORD	wordpools/wasnorm_wordpool_less_exclusions.txt	LTP189	ltpFR	7	10	0	OVAL	990	n/a	0	n/a	0	0	0	1	0.412841796875	0.57763671875	lower	../fonts/zerothre.ttf
2768997	START	n/a	LTP189	ltpFR	7	n/a	n/a	n/a	n/a	n/a	n/a	n/a	n/a	n/a	n/a	n/a	n/a	n/a	n/a	n/a
2769812	PROB	n/a	LTP189	ltpFR	7	n/a	n/a	n/a	n/a	n/a	n/a	18	8	3	7	n/a	n/a	n/a	n/a	n/a
2771824	PROB	n/a	LTP189	ltpFR	7	n/a	n/a	n/a	n/a	n/a	n/a	11	2	1	8	n/a	n/a	n/a	n/a	n/a
2773988	PROB	n/a	LTP189	ltpFR	7	n/a	n/a	n/a	n/a	n/a	n/a	18	8	4	6	n/a	n/a	n/a	n/a	n/a
2776718	PROB	n/a	LTP189	ltpFR	7	n/a	n/a	n/a	n/a	n/a	n/a	16	8	3	5	n/a	n/a	n/a	n/a	n/a
2778980	PROB	n/a	LTP189	ltpFR	7	n/a	n/a	n/a	n/a	n/a	n/a	16	5	2	9	n/a	n/a	n/a	n/a	n/a
2781095	PROB	n/a	LTP189	ltpFR	7	n/a	n/a	n/a	n/a	n/a	n/a	15	9	2	4	n/a	n/a	n/a	n/a	n/a
2783485	STOP	n/a	LTP189	ltpFR	7	n/a	n/a	n/a	n/a	n/a	n/a	n/a	n/a	n/a	n/a	n/a	n/a	n/a	n/a	n/a
2785853	WORD	wordpools/wasnorm_wordpool_less_exclusions.txt	LTP189	ltpFR	7	10	0	SALOON	1228	n/a	0	n/a	0	0	0	1	0.412841796875	0.57763671875	lower	../fonts/zerothre.ttf
2788866	START	n/a	LTP189	ltpFR	7	n/a	n/a	n/a	n/a	n/a	n/a	n/a	n/a	n/a	n/a	n/a	n/a	n/a	n/a	n/a
2789864	PROB	n/a	LTP189	ltpFR	7	n/a	n/a	n/a	n/a	n/a	n/a	22	6	7	9	n/a	n/a	n/a	n/a	n/a
2797054	PROB	n/a	LTP189	ltpFR	7	n/a	n/a	n/a	n/a	n/a	n/a	17	8	1	8	n/a	n/a	n/a	n/a	n/a
2799234	PROB	n/a	LTP189	ltpFR	7	n/a	n/a	n/a	n/a	n/a	n/a	10	2	4	4	n/a	n/a	n/a	n/a	n/a
2801814	PROB	n/a	LTP189	ltpFR	7	n/a	n/a	n/a	n/a	n/a	n/a	13	3	5	5	n/a	n/a	n/a	n/a	n/a
2804517	STOP	n/a	LTP189	ltpFR	7	n/a	n/a	n/a	n/a	n/a	n/a	n/a	n/a	n/a	n/a	n/a	n/a	n/a	n/a	n/a
2805940	WORD	wordpools/wasnorm_wordpool_less_exclusions.txt	LTP189	ltpFR	7	10	0	TONGUE	1479	n/a	0	n/a	0	0	0	1	0.412841796875	0.57763671875	lower	../fonts/zerothre.ttf
2808953	START	n/a	LTP189	ltpFR	7	n/a	n/a	n/a	n/a	n/a	n/a	n/a	n/a	n/a	n/a	n/a	n/a	n/a	n/a	n/a
2809868	PROB	n/a	LTP189	ltpFR	7	n/a	n/a	n/a	n/a	n/a	n/a	22	9	4	9	n/a	n/a	n/a	n/a	n/a
2812564	PROB	n/a	LTP189	ltpFR	7	n/a	n/a	n/a	n/a	n/a	n/a	11	1	7	3	n/a	n/a	n/a	n/a	n/a
2815627	PROB	n/a	LTP189	ltpFR	7	n/a	n/a	n/a	n/a	n/a	n/a	20	7	5	8	n/a	n/a	n/a	n/a	n/a
2820136	PROB	n/a	LTP189	ltpFR	7	n/a	n/a	n/a	n/a	n/a	n/a	20	8	3	9	n/a	n/a	n/a	n/a	n/a
2824421	STOP	n/a	LTP189	ltpFR	7	n/a	n/a	n/a	n/a	n/a	n/a	n/a	n/a	n/a	n/a	n/a	n/a	n/a	n/a	n/a
2825977	WORD	wordpools/wasnorm_wordpool_less_exclusions.txt	LTP189	ltpFR	7	10	0	GUM	672	n/a	0	n/a	0	0	0	1	0.412841796875	0.57763671875	lower	../fonts/zerothre.ttf
2828990	START	n/a	LTP189	ltpFR	7	n/a	n/a	n/a	n/a	n/a	n/a	n/a	n/a	n/a	n/a	n/a	n/a	n/a	n/a	n/a
2829871	PROB	n/a	LTP189	ltpFR	7	n/a	n/a	n/a	n/a	n/a	n/a	19	7	4	8	n/a	n/a	n/a	n/a	n/a
2833517	PROB	n/a	LTP189	ltpFR	7	n/a	n/a	n/a	n/a	n/a	n/a	11	1	4	6	n/a	n/a	n/a	n/a	n/a
2835231	PROB	n/a	LTP189	ltpFR	7	n/a	n/a	n/a	n/a	n/a	n/a	11	5	1	5	n/a	n/a	n/a	n/a	n/a
2836977	PROB	n/a	LTP189	ltpFR	7	n/a	n/a	n/a	n/a	n/a	n/a	12	1	4	7	n/a	n/a	n/a	n/a	n/a
2838841	PROB	n/a	LTP189	ltpFR	7	n/a	n/a	n/a	n/a	n/a	n/a	10	1	7	2	n/a	n/a	n/a	n/a	n/a
2841105	PROB	n/a	LTP189	ltpFR	7	n/a	n/a	n/a	n/a	n/a	n/a	17	5	6	6	n/a	n/a	n/a	n/a	n/a
2844892	STOP	n/a	LTP189	ltpFR	7	n/a	n/a	n/a	n/a	n/a	n/a	n/a	n/a	n/a	n/a	n/a	n/a	n/a	n/a	n/a
2846198	WORD	wordpools/wasnorm_wordpool_less_exclusions.txt	LTP189	ltpFR	7	10	0	BARLEY	88	n/a	0	n/a	0	0	0	1	0.412841796875	0.57763671875	lower	../fonts/zerothre.ttf
2849210	START	n/a	LTP189	ltpFR	7	n/a	n/a	n/a	n/a	n/a	n/a	n/a	n/a	n/a	n/a	n/a	n/a	n/a	n/a	n/a
2850208	PROB	n/a	LTP189	ltpFR	7	n/a	n/a	n/a	n/a	n/a	n/a	21	9	6	6	n/a	n/a	n/a	n/a	n/a
2853437	PROB	n/a	LTP189	ltpFR	7	n/a	n/a	n/a	n/a	n/a	n/a	9	5	2	2	n/a	n/a	n/a	n/a	n/a
2856482	PROB	n/a	LTP189	ltpFR	7	n/a	n/a	n/a	n/a	n/a	n/a	4	1	2	1	n/a	n/a	n/a	n/a	n/a
2858047	PROB	n/a	LTP189	ltpFR	7	n/a	n/a	n/a	n/a	n/a	n/a	12	2	5	5	n/a	n/a	n/a	n/a	n/a
2859611	PROB	n/a	LTP189	ltpFR	7	n/a	n/a	n/a	n/a	n/a	n/a	13	1	3	9	n/a	n/a	n/a	n/a	n/a
2861475	PROB	n/a	LTP189	ltpFR	7	n/a	n/a	n/a	n/a	n/a	n/a	16	7	4	5	n/a	n/a	n/a	n/a	n/a
2863940	STOP	n/a	LTP189	ltpFR	7	n/a	n/a	n/a	n/a	n/a	n/a	n/a	n/a	n/a	n/a	n/a	n/a	n/a	n/a	n/a
2867000	REC_START	n/a	LTP189	ltpFR	7	10	n/a	n/a	n/a	n/a	n/a	n/a	0	0	0	n/a	n/a	n/a	n/a	n/a
2868122	REC_WORD	wordpools/wasnorm_wordpool_less_exclusions.txt	LTP189	ltpFR	7	10	0	BARLEY	88	n/a	0	n/a	0	0	0	n/a	n/a	n/a	n/a	n/a
2868720	REC_WORD	wordpools/wasnorm_wordpool_less_exclusions.txt	LTP189	ltpFR	7	10	0	SALOON	1228	n/a	0	n/a	0	0	0	n/a	n/a	n/a	n/a	n/a
2869529	REC_WORD	wordpools/wasnorm_wordpool_less_exclusions.txt	LTP189	ltpFR	7	10	0	PUB	1135	n/a	0	n/a	0	0	0	n/a	n/a	n/a	n/a	n/a
2870287	REC_WORD	wordpools/wasnorm_wordpool_less_exclusions.txt	LTP189	ltpFR	7	10	0	PIRATE	1074	n/a	0	n/a	0	0	0	n/a	n/a	n/a	n/a	n/a
2870901	REC_WORD	wordpools/wasnorm_wordpool_less_exclusions.txt	LTP189	ltpFR	7	10	0	BRIEFCASE	175	n/a	0	n/a	0	0	0	n/a	n/a	n/a	n/a	n/a
2872043	REC_WORD	wordpools/wasnorm_wordpool_less_exclusions.txt	LTP189	ltpFR	7	10	0	CAPITAL	238	n/a	1	n/a	0	0	0	n/a	n/a	n/a	n/a	n/a
2872637	REC_WORD	wordpools/wasnorm_wordpool_less_exclusions.txt	LTP189	ltpFR	7	10	0	TOWN	1491	n/a	1	n/a	0	0	0	n/a	n/a	n/a	n/a	n/a
2877850	REC_WORD_VV	wordpools/wasnorm_wordpool_less_exclusions.txt	LTP189	ltpFR	7	10	n/a	<>	-1	n/a	n/a	n/a	0	0	0	n/a	n/a	n/a	n/a	n/a
2886056	REC_WORD	wordpools/wasnorm_wordpool_less_exclusions.txt	LTP189	ltpFR	7	10	0	SEA	1259	n/a	0	n/a	0	0	0	n/a	n/a	n/a	n/a	n/a
2942604	REST_REWET	n/a	LTP189	ltpFR	7	10	n/a	n/a	n/a	n/a	n/a	n/a	0	0	0	n/a	n/a	n/a	n/a	n/a
3317693	WORD	wordpools/wasnorm_wordpool_less_exclusions.txt	LTP189	ltpFR	7	11	1	OFFICE	972	n/a	0	n/a	0	0	0	0	0.5869140625	0.422607421875	upper	../fonts/amplitud.ttf
3321787	WORD	wordpools/wasnorm_wordpool_less_exclusions.txt	LTP189	ltpFR	7	11	1	BUILDER	190	n/a	1	n/a	0	0	0	0	0.5869140625	0.422607421875	upper	../fonts/amplitud.ttf
3325798	WORD	wordpools/wasnorm_wordpool_less_exclusions.txt	LTP189	ltpFR	7	11	1	BOYFRIEND	162	n/a	1	n/a	0	0	0	0	0.5869140625	0.422607421875	upper	../fonts/amplitud.ttf
3330008	WORD	wordpools/wasnorm_wordpool_less_exclusions.txt	LTP189	ltpFR	7	11	1	ROOMMATE	1207	n/a	1	n/a	0	0	0	0	0.5869140625	0.422607421875	upper	../fonts/amplitud.ttf
3334002	WORD	wordpools/wasnorm_wordpool_less_exclusions.txt	LTP189	ltpFR	7	11	1	VENUS	1557	n/a	0	n/a	0	0	0	0	0.5869140625	0.422607421875	upper	../fonts/amplitud.ttf
3337912	WORD	wordpools/wasnorm_wordpool_less_exclusions.txt	LTP189	ltpFR	7	11	1	FEATHER	557	n/a	0	n/a	0	0	0	0	0.5869140625	0.422607421875	upper	../fonts/amplitud.ttf
3341840	WORD	wordpools/wasnorm_wordpool_less_exclusions.txt	LTP189	ltpFR	7	11	1	HOOK	715	n/a	0	n/a	0	0	0	0	0.5869140625	0.422607421875	upper	../fonts/amplitud.ttf
3346001	WORD	wordpools/wasnorm_wordpool_less_exclusions.txt	LTP189	ltpFR	7	11	1	LIEUTENANT	818	n/a	1	n/a	0	0	0	0	0.5869140625	0.422607421875	upper	../fonts/amplitud.ttf
3349977	WORD	wordpools/wasnorm_wordpool_less_exclusions.txt	LTP189	ltpFR	7	11	1	SLACKS	1323	n/a	1	n/a	0	0	0	0	0.5869140625	0.422607421875	upper	../fonts/amplitud.ttf
3353806	WORD	wordpools/wasnorm_wordpool_less_exclusions.txt	LTP189	ltpFR	7	11	1	SUPERMARKET	1409	n/a	0	n/a	0	0	0	0	0.5869140625	0.422607421875	upper	../fonts/amplitud.ttf
3357750	WORD	wordpools/wasnorm_wordpool_less_exclusions.txt	LTP189	ltpFR	7	11	1	SERGEANT	1269	n/a	1	n/a	0	0	0	0	0.5869140625	0.422607421875	upper	../fonts/amplitud.ttf
3361943	WORD	wordpools/wasnorm_wordpool_less_exclusions.txt	LTP189	ltpFR	7	11	1	JAW	751	n/a	1	n/a	0	0	0	0	0.5869140625	0.422607421875	upper	../fonts/amplitud.ttf
3365772	WORD	wordpools/wasnorm_wordpool_less_exclusions.txt	LTP189	ltpFR	7	11	1	PERCH	1048	n/a	0	n/a	0	0	0	0	0.5869140625	0.422607421875	upper	../fonts/amplitud.ttf
3369682	WORD	wordpools/wasnorm_wordpool_less_exclusions.txt	LTP189	ltpFR	7	11	1	RECORD	1176	n/a	0	n/a	0	0	0	0	0.5869140625	0.422607421875	upper	../fonts/amplitud.ttf
3373510	WORD	wordpools/wasnorm_wordpool_less_exclusions.txt	LTP189	ltpFR	7	11	1	CONCERT	360	n/a	0	n/a	0	0	0	0	0.5869140625	0.422607421875	upper	../fonts/amplitud.ttf
3377437	WORD	wordpools/wasnorm_wordpool_less_exclusions.txt	LTP189	ltpFR	7	11	1	PASTRY	1022	n/a	1	n/a	0	0	0	0	0.5869140625	0.422607421875	upper	../fonts/amplitud.ttf
3383396	REC_START	n/a	LTP189	ltpFR	7	11	n/a	n/a	n/a	n/a	n/a	n/a	0	0	0	n/a	n/a	n/a	n/a	n/a
3385586	REC_WORD	wordpools/wasnorm_wordpool_less_exclusions.txt	LTP189	ltpFR	7	11	1	PASTRY	1022	n/a	1	n/a	0	0	0	n/a	n/a	n/a	n/a	n/a
3386224	REC_WORD	wordpools/wasnorm_wordpool_less_exclusions.txt	LTP189	ltpFR	7	11	1	RECORD	1176	n/a	0	n/a	0	0	0	n/a	n/a	n/a	n/a	n/a
3386953	REC_WORD	wordpools/wasnorm_wordpool_less_exclusions.txt	LTP189	ltpFR	7	11	1	PERCH	1048	n/a	0	n/a	0	0	0	n/a	n/a	n/a	n/a	n/a
3387551	REC_WORD	wordpools/wasnorm_wordpool_less_exclusions.txt	LTP189	ltpFR	7	11	1	SUPERMARKET	1409	n/a	0	n/a	0	0	0	n/a	n/a	n/a	n/a	n/a
3388240	REC_WORD	wordpools/wasnorm_wordpool_less_exclusions.txt	LTP189	ltpFR	7	11	1	SERGEANT	1269	n/a	1	n/a	0	0	0	n/a	n/a	n/a	n/a	n/a
3388823	REC_WORD	wordpools/wasnorm_wordpool_less_exclusions.txt	LTP189	ltpFR	7	11	1	LIEUTENANT	818	n/a	1	n/a	0	0	0	n/a	n/a	n/a	n/a	n/a
3389462	REC_WORD	wordpools/wasnorm_wordpool_less_exclusions.txt	LTP189	ltpFR	7	11	1	BOYFRIEND	162	n/a	1	n/a	0	0	0	n/a	n/a	n/a	n/a	n/a
3390200	REC_WORD	wordpools/wasnorm_wordpool_less_exclusions.txt	LTP189	ltpFR	7	11	1	BUILDER	190	n/a	1	n/a	0	0	0	n/a	n/a	n/a	n/a	n/a
3391966	REC_WORD	wordpools/wasnorm_wordpool_less_exclusions.txt	LTP189	ltpFR	7	11	1	VENUS	1557	n/a	0	n/a	0	0	0	n/a	n/a	n/a	n/a	n/a
3392969	REC_WORD	wordpools/wasnorm_wordpool_less_exclusions.txt	LTP189	ltpFR	7	11	1	FEATHER	557	n/a	0	n/a	0	0	0	n/a	n/a	n/a	n/a	n/a
3393494	REC_WORD	wordpools/wasnorm_wordpool_less_exclusions.txt	LTP189	ltpFR	7	11	1	HOOK	715	n/a	0	n/a	0	0	0	n/a	n/a	n/a	n/a	n/a
3397733	REC_WORD	wordpools/wasnorm_wordpool_less_exclusions.txt	LTP189	ltpFR	7	11	1	ROOMMATE	1207	n/a	1	n/a	0	0	0	n/a	n/a	n/a	n/a	n/a
3401475	REC_WORD	wordpools/wasnorm_wordpool_less_exclusions.txt	LTP189	ltpFR	7	11	1	OFFICE	972	n/a	0	n/a	0	0	0	n/a	n/a	n/a	n/a	n/a
3471297	WORD	wordpools/wasnorm_wordpool_less_exclusions.txt	LTP189	ltpFR	7	12	0	DIARY	460	n/a	2	n/a	0	0	0	1	0.412841796875	0.57763671875	lower	../fonts/zerothre.ttf
3472246	KEY_MSG	n/a	LTP189	ltpFR	7	12	n/a	n/a	n/a	n/a	n/a	n/a	0	0	0	n/a	n/a	n/a	n/a	n/a
3475291	WORD	wordpools/wasnorm_wordpool_less_exclusions.txt	LTP189	ltpFR	7	12	0	LUNCH	849	n/a	0	n/a	0	0	0	1	0.412841796875	0.57763671875	lower	../fonts/zerothre.ttf
3479136	WORD	wordpools/wasnorm_wordpool_less_exclusions.txt	LTP189	ltpFR	7	12	0	PEDESTRIAN	1038	n/a	1	n/a	0	0	0	1	0.412841796875	0.57763671875	lower	../fonts/zerothre.ttf
3483196	WORD	wordpools/wasnorm_wordpool_less_exclusions.txt	LTP189	ltpFR	7	12	0	STAIRS	1367	n/a	1	n/a	0	0	0	1	0.412841796875	0.57763671875	lower	../fonts/zerothre.ttf
3487107	WORD	wordpools/wasnorm_wordpool_less_exclusions.txt	LTP189	ltpFR	7	12	0	CUCUMBER	421	n/a	0	n/a	0	0	0	1	0.412841796875	0.57763671875	lower	../fonts/zerothre.ttf
3491068	WORD	wordpools/wasnorm_wordpool_less_exclusions.txt	LTP189	ltpFR	7	12	0	COOK	372	n/a	0	n/a	0	0	0	1	0.412841796875	0.57763671875	lower	../fonts/zerothre.ttf
3495278	WORD	wordpools/wasnorm_wordpool_less_exclusions.txt	LTP189	ltpFR	7	12	0	PAIL	1002	n/a	0	n/a	0	0	0	1	0.412841796875	0.57763671875	lower	../fonts/zerothre.ttf
3499439	WORD	wordpools/wasnorm_wordpool_less_exclusions.txt	LTP189	ltpFR	7	12	0	BUCKET	184	n/a	0	n/a	0	0	0	1	0.412841796875	0.57763671875	lower	../fonts/zerothre.ttf
3503399	WORD	wordpools/wasnorm_wordpool_less_exclusions.txt	LTP189	ltpFR	7	12	0	BANQUET	86	n/a	1	n/a	0	0	0	1	0.412841796875	0.57763671875	lower	../fonts/zerothre.ttf
3507576	WORD	wordpools/wasnorm_wordpool_less_exclusions.txt	LTP189	ltpFR	7	12	0	ANT	25	n/a	0	n/a	0	0	0	1	0.412841796875	0.57763671875	lower	../fonts/zerothre.ttf
3511654	WORD	wordpools/wasnorm_wordpool_less_exclusions.txt	LTP189	ltpFR	7	12	0	BUTTERFLY	206	n/a	0	n/a	0	0	0	1	0.412841796875	0.57763671875	lower	../fonts/zerothre.ttf
3515498	WORD	wordpools/wasnorm_wordpool_less_exclusions.txt	LTP189	ltpFR	7	12	0	BIBLE	124	n/a	0	n/a	0	0	0	1	0.412841796875	0.57763671875	lower	../fonts/zerothre.ttf
3519442	WORD	wordpools/wasnorm_wordpool_less_exclusions.txt	LTP189	ltpFR	7	12	0	BOSS	152	n/a	1	n/a	0	0	0	1	0.412841796875	0.57763671875	lower	../fonts/zerothre.ttf
3523569	WORD	wordpools/wasnorm_wordpool_less_exclusions.txt	LTP189	ltpFR	7	12	0	BEEF	113	n/a	0	n/a	0	0	0	1	0.412841796875	0.57763671875	lower	../fonts/zerothre.ttf
3527780	WORD	wordpools/wasnorm_wordpool_less_exclusions.txt	LTP189	ltpFR	7	12	0	JUG	762	n/a	0	n/a	0	0	0	1	0.412841796875	0.57763671875	lower	../fonts/zerothre.ttf
3531624	WORD	wordpools/wasnorm_wordpool_less_exclusions.txt	LTP189	ltpFR	7	12	0	SUPPER	1411	n/a	1	n/a	0	0	0	1	0.412841796875	0.57763671875	lower	../fonts/zerothre.ttf
3534636	START	n/a	LTP189	ltpFR	7	n/a	n/a	n/a	n/a	n/a	n/a	n/a	n/a	n/a	n/a	n/a	n/a	n/a	n/a	n/a
3535618	PROB	n/a	LTP189	ltpFR	7	n/a	n/a	n/a	n/a	n/a	n/a	14	4	1	9	n/a	n/a	n/a	n/a	n/a
3537715	PROB	n/a	LTP189	ltpFR	7	n/a	n/a	n/a	n/a	n/a	n/a	14	3	5	6	n/a	n/a	n/a	n/a	n/a
3540594	PROB	n/a	LTP189	ltpFR	7	n/a	n/a	n/a	n/a	n/a	n/a	14	3	5	6	n/a	n/a	n/a	n/a	n/a
3541892	STOP	n/a	LTP189	ltpFR	7	n/a	n/a	n/a	n/a	n/a	n/a	n/a	n/a	n/a	n/a	n/a	n/a	n/a	n/a	n/a
3544538	REC_START	n/a	LTP189	ltpFR	7	12	n/a	n/a	n/a	n/a	n/a	n/a	0	0	0	n/a	n/a	n/a	n/a	n/a
3546189	REC_WORD	wordpools/wasnorm_wordpool_less_exclusions.txt	LTP189	ltpFR	7	12	0	PAIL	1002	n/a	0	n/a	0	0	0	n/a	n/a	n/a	n/a	n/a
3546773	REC_WORD	wordpools/wasnorm_wordpool_less_exclusions.txt	LTP189	ltpFR	7	12	0	BUCKET	184	n/a	0	n/a	0	0	0	n/a	n/a	n/a	n/a	n/a
3547312	REC_WORD	wordpools/wasnorm_wordpool_less_exclusions.txt	LTP189	ltpFR	7	12	0	DIARY	460	n/a	2	n/a	0	0	0	n/a	n/a	n/a	n/a	n/a
3547765	REC_WORD	wordpools/wasnorm_wordpool_less_exclusions.txt	LTP189	ltpFR	7	12	0	PEDESTRIAN	1038	n/a	1	n/a	0	0	0	n/a	n/a	n/a	n/a	n/a
3549596	REC_WORD	wordpools/wasnorm_wordpool_less_exclusions.txt	LTP189	ltpFR	7	12	0	STAIRS	1367	n/a	1	n/a	0	0	0	n/a	n/a	n/a	n/a	n/a
3551128	REC_WORD	wordpools/wasnorm_wordpool_less_exclusions.txt	LTP189	ltpFR	7	12	n/a	ZUCCHINI	1638	n/a	n/a	n/a	0	0	0	n/a	n/a	n/a	n/a	n/a
3553902	REC_WORD	wordpools/wasnorm_wordpool_less_exclusions.txt	LTP189	ltpFR	7	12	0	ANT	25	n/a	0	n/a	0	0	0	n/a	n/a	n/a	n/a	n/a
3555204	REC_WORD	wordpools/wasnorm_wordpool_less_exclusions.txt	LTP189	ltpFR	7	12	0	SUPPER	1411	n/a	1	n/a	0	0	0	n/a	n/a	n/a	n/a	n/a
3556216	REC_WORD	wordpools/wasnorm_wordpool_less_exclusions.txt	LTP189	ltpFR	7	12	0	BANQUET	86	n/a	1	n/a	0	0	0	n/a	n/a	n/a	n/a	n/a
3556999	REC_WORD	wordpools/wasnorm_wordpool_less_exclusions.txt	LTP189	ltpFR	7	12	n/a	BOX	159	n/a	n/a	n/a	0	0	0	n/a	n/a	n/a	n/a	n/a
3634354	WORD	wordpools/wasnorm_wordpool_less_exclusions.txt	LTP189	ltpFR	7	13	1	OAR	966	n/a	0	n/a	0	0	0	0	0.5869140625	0.422607421875	upper	../fonts/amplitud.ttf
3638348	WORD	wordpools/wasnorm_wordpool_less_exclusions.txt	LTP189	ltpFR	7	13	1	CONDUCTOR	362	n/a	1	n/a	0	0	0	0	0.5869140625	0.422607421875	upper	../fonts/amplitud.ttf
3642541	WORD	wordpools/wasnorm_wordpool_less_exclusions.txt	LTP189	ltpFR	7	13	1	SPOON	1357	n/a	0	n/a	0	0	0	0	0.5869140625	0.422607421875	upper	../fonts/amplitud.ttf
3646702	WORD	wordpools/wasnorm_wordpool_less_exclusions.txt	LTP189	ltpFR	7	13	1	PLATE	1086	n/a	0	n/a	0	0	0	0	0.5869140625	0.422607421875	upper	../fonts/amplitud.ttf
3650579	WORD	wordpools/wasnorm_wordpool_less_exclusions.txt	LTP189	ltpFR	7	13	1	MAID	856	n/a	1	n/a	0	0	0	0	0.5869140625	0.422607421875	upper	../fonts/amplitud.ttf
3654574	WORD	wordpools/wasnorm_wordpool_less_exclusions.txt	LTP189	ltpFR	7	13	1	TECHNICIAN	1443	n/a	1	n/a	0	0	0	0	0.5869140625	0.422607421875	upper	../fonts/amplitud.ttf
3658751	WORD	wordpools/wasnorm_wordpool_less_exclusions.txt	LTP189	ltpFR	7	13	1	BOAT	144	n/a	0	n/a	0	0	0	0	0.5869140625	0.422607421875	upper	../fonts/amplitud.ttf
3662628	WORD	wordpools/wasnorm_wordpool_less_exclusions.txt	LTP189	ltpFR	7	13	1	PELICAN	1039	n/a	1	n/a	0	0	0	0	0.5869140625	0.422607421875	upper	../fonts/amplitud.ttf
3666755	WORD	wordpools/wasnorm_wordpool_less_exclusions.txt	LTP189	ltpFR	7	13	1	SPICE	1350	n/a	0	n/a	0	0	0	0	0.5869140625	0.422607421875	upper	../fonts/amplitud.ttf
3670881	WORD	wordpools/wasnorm_wordpool_less_exclusions.txt	LTP189	ltpFR	7	13	1	CLOVE	329	n/a	0	n/a	0	0	0	0	0.5869140625	0.422607421875	upper	../fonts/amplitud.ttf
3674993	WORD	wordpools/wasnorm_wordpool_less_exclusions.txt	LTP189	ltpFR	7	13	1	WORKER	1621	n/a	1	n/a	0	0	0	0	0.5869140625	0.422607421875	upper	../fonts/amplitud.ttf
3678836	WORD	wordpools/wasnorm_wordpool_less_exclusions.txt	LTP189	ltpFR	7	13	1	VILLAGE	1566	n/a	0	n/a	0	0	0	0	0.5869140625	0.422607421875	upper	../fonts/amplitud.ttf
3683014	WORD	wordpools/wasnorm_wordpool_less_exclusions.txt	LTP189	ltpFR	7	13	1	HAND	683	n/a	1	n/a	0	0	0	0	0.5869140625	0.422607421875	upper	../fonts/amplitud.ttf
3687108	WORD	wordpools/wasnorm_wordpool_less_exclusions.txt	LTP189	ltpFR	7	13	1	GUITAR	670	n/a	0	n/a	0	0	0	0	0.5869140625	0.422607421875	upper	../fonts/amplitud.ttf
3691185	WORD	wordpools/wasnorm_wordpool_less_exclusions.txt	LTP189	ltpFR	7	13	1	QUILT	1151	n/a	0	n/a	0	0	0	0	0.5869140625	0.422607421875	upper	../fonts/amplitud.ttf
3695379	WORD	wordpools/wasnorm_wordpool_less_exclusions.txt	LTP189	ltpFR	7	13	1	BLOUSE	139	n/a	0	n/a	0	0	0	0	0.5869140625	0.422607421875	upper	../fonts/amplitud.ttf
3698392	START	n/a	LTP189	ltpFR	7	n/a	n/a	n/a	n/a	n/a	n/a	n/a	n/a	n/a	n/a	n/a	n/a	n/a	n/a	n/a
3699506	PROB	n/a	LTP189	ltpFR	7	n/a	n/a	n/a	n/a	n/a	n/a	19	7	3	9	n/a	n/a	n/a	n/a	n/a
3701370	PROB	n/a	LTP189	ltpFR	7	n/a	n/a	n/a	n/a	n/a	n/a	13	3	4	6	n/a	n/a	n/a	n/a	n/a
3702801	PROB	n/a	LTP189	ltpFR	7	n/a	n/a	n/a	n/a	n/a	n/a	18	7	9	2	n/a	n/a	n/a	n/a	n/a
3704649	PROB	n/a	LTP189	ltpFR	7	n/a	n/a	n/a	n/a	n/a	n/a	22	9	6	7	n/a	n/a	n/a	n/a	n/a
3708958	PROB	n/a	LTP189	ltpFR	7	n/a	n/a	n/a	n/a	n/a	n/a	11	1	3	7	n/a	n/a	n/a	n/a	n/a
3710457	PROB	n/a	LTP189	ltpFR	7	n/a	n/a	n/a	n/a	n/a	n/a	14	7	6	1	n/a	n/a	n/a	n/a	n/a
3712387	PROB	n/a	LTP189	ltpFR	7	n/a	n/a	n/a	n/a	n/a	n/a	11	7	2	2	n/a	n/a	n/a	n/a	n/a
3714373	STOP	n/a	LTP189	ltpFR	7	n/a	n/a	n/a	n/a	n/a	n/a	n/a	n/a	n/a	n/a	n/a	n/a	n/a	n/a	n/a
3716265	REC_START	n/a	LTP189	ltpFR	7	13	n/a	n/a	n/a	n/a	n/a	n/a	0	0	0	n/a	n/a	n/a	n/a	n/a
3718065	REC_WORD	wordpools/wasnorm_wordpool_less_exclusions.txt	LTP189	ltpFR	7	13	1	CONDUCTOR	362	n/a	1	n/a	0	0	0	n/a	n/a	n/a	n/a	n/a
3719123	REC_WORD	wordpools/wasnorm_wordpool_less_exclusions.txt	LTP189	ltpFR	7	13	1	OAR	966	n/a	0	n/a	0	0	0	n/a	n/a	n/a	n/a	n/a
3719732	REC_WORD	wordpools/wasnorm_wordpool_less_exclusions.txt	LTP189	ltpFR	7	13	1	TECHNICIAN	1443	n/a	1	n/a	0	0	0	n/a	n/a	n/a	n/a	n/a
3720620	REC_WORD	wordpools/wasnorm_wordpool_less_exclusions.txt	LTP189	ltpFR	7	13	1	SPOON	1357	n/a	0	n/a	0	0	0	n/a	n/a	n/a	n/a	n/a
3722037	REC_WORD	wordpools/wasnorm_wordpool_less_exclusions.txt	LTP189	ltpFR	7	13	1	PLATE	1086	n/a	0	n/a	0	0	0	n/a	n/a	n/a	n/a	n/a
3722820	REC_WORD	wordpools/wasnorm_wordpool_less_exclusions.txt	LTP189	ltpFR	7	13	1	MAID	856	n/a	1	n/a	0	0	0	n/a	n/a	n/a	n/a	n/a
3723868	REC_WORD	wordpools/wasnorm_wordpool_less_exclusions.txt	LTP189	ltpFR	7	13	1	BOAT	144	n/a	0	n/a	0	0	0	n/a	n/a	n/a	n/a	n/a
3727948	REC_WORD	wordpools/wasnorm_wordpool_less_exclusions.txt	LTP189	ltpFR	7	13	1	PELICAN	1039	n/a	1	n/a	0	0	0	n/a	n/a	n/a	n/a	n/a
3731670	REC_WORD	wordpools/wasnorm_wordpool_less_exclusions.txt	LTP189	ltpFR	7	13	1	BLOUSE	139	n/a	0	n/a	0	0	0	n/a	n/a	n/a	n/a	n/a
3856239	START	n/a	LTP189	ltpFR	7	n/a	n/a	n/a	n/a	n/a	n/a	n/a	n/a	n/a	n/a	n/a	n/a	n/a	n/a	n/a
3857753	PROB	n/a	LTP189	ltpFR	7	n/a	n/a	n/a	n/a	n/a	n/a	21	7	9	5	n/a	n/a	n/a	n/a	n/a
3861781	PROB	n/a	LTP189	ltpFR	7	n/a	n/a	n/a	n/a	n/a	n/a	14	6	3	5	n/a	n/a	n/a	n/a	n/a
3863876	STOP	n/a	LTP189	ltpFR	7	n/a	n/a	n/a	n/a	n/a	n/a	n/a	n/a	n/a	n/a	n/a	n/a	n/a	n/a	n/a
3865209	WORD	wordpools/wasnorm_wordpool_less_exclusions.txt	LTP189	ltpFR	7	14	0	RACKET	1155	n/a	0	n/a	0	0	0	1	0.412841796875	0.57763671875	lower	../fonts/zerothre.ttf
3868222	START	n/a	LTP189	ltpFR	7	n/a	n/a	n/a	n/a	n/a	n/a	n/a	n/a	n/a	n/a	n/a	n/a	n/a	n/a	n/a
3869220	PROB	n/a	LTP189	ltpFR	7	n/a	n/a	n/a	n/a	n/a	n/a	10	2	6	2	n/a	n/a	n/a	n/a	n/a
3870966	PROB	n/a	LTP189	ltpFR	7	n/a	n/a	n/a	n/a	n/a	n/a	10	3	6	1	n/a	n/a	n/a	n/a	n/a
3872598	PROB	n/a	LTP189	ltpFR	7	n/a	n/a	n/a	n/a	n/a	n/a	21	8	5	7	n/a	n/a	n/a	n/a	n/a
3875181	STOP	n/a	LTP189	ltpFR	7	n/a	n/a	n/a	n/a	n/a	n/a	n/a	n/a	n/a	n/a	n/a	n/a	n/a	n/a	n/a
3877274	WORD	wordpools/wasnorm_wordpool_less_exclusions.txt	LTP189	ltpFR	7	14	0	WIRE	1616	n/a	0	n/a	0	0	0	1	0.412841796875	0.57763671875	lower	../fonts/zerothre.ttf
3880287	START	n/a	LTP189	ltpFR	7	n/a	n/a	n/a	n/a	n/a	n/a	n/a	n/a	n/a	n/a	n/a	n/a	n/a	n/a	n/a
3881285	PROB	n/a	LTP189	ltpFR	7	n/a	n/a	n/a	n/a	n/a	n/a	15	5	6	4	n/a	n/a	n/a	n/a	n/a
3882882	PROB	n/a	LTP189	ltpFR	7	n/a	n/a	n/a	n/a	n/a	n/a	17	9	2	6	n/a	n/a	n/a	n/a	n/a
3886111	PROB	n/a	LTP189	ltpFR	7	n/a	n/a	n/a	n/a	n/a	n/a	17	9	6	2	n/a	n/a	n/a	n/a	n/a
3888125	STOP	n/a	LTP189	ltpFR	7	n/a	n/a	n/a	n/a	n/a	n/a	n/a	n/a	n/a	n/a	n/a	n/a	n/a	n/a	n/a
3889306	WORD	wordpools/wasnorm_wordpool_less_exclusions.txt	LTP189	ltpFR	7	14	0	RADIO	1157	n/a	0	n/a	0	0	0	1	0.412841796875	0.57763671875	lower	../fonts/zerothre.ttf
3892319	START	n/a	LTP189	ltpFR	7	n/a	n/a	n/a	n/a	n/a	n/a	n/a	n/a	n/a	n/a	n/a	n/a	n/a	n/a	n/a
3893250	PROB	n/a	LTP189	ltpFR	7	n/a	n/a	n/a	n/a	n/a	n/a	10	2	6	2	n/a	n/a	n/a	n/a	n/a
3894963	PROB	n/a	LTP189	ltpFR	7	n/a	n/a	n/a	n/a	n/a	n/a	23	8	8	7	n/a	n/a	n/a	n/a	n/a
3897544	PROB	n/a	LTP189	ltpFR	7	n/a	n/a	n/a	n/a	n/a	n/a	15	6	1	8	n/a	n/a	n/a	n/a	n/a
3899661	STOP	n/a	LTP189	ltpFR	7	n/a	n/a	n/a	n/a	n/a	n/a	n/a	n/a	n/a	n/a	n/a	n/a	n/a	n/a	n/a
3901288	WORD	wordpools/wasnorm_wordpool_less_exclusions.txt	LTP189	ltpFR	7	14	0	COLLEGE	346	n/a	1	n/a	0	0	0	1	0.412841796875	0.57763671875	lower	../fonts/zerothre.ttf
3904301	START	n/a	LTP189	ltpFR	7	n/a	n/a	n/a	n/a	n/a	n/a	n/a	n/a	n/a	n/a	n/a	n/a	n/a	n/a	n/a
3905465	PROB	n/a	LTP189	ltpFR	7	n/a	n/a	n/a	n/a	n/a	n/a	15	5	8	2	n/a	n/a	n/a	n/a	n/a
3908428	PROB	n/a	LTP189	ltpFR	7	n/a	n/a	n/a	n/a	n/a	n/a	16	8	7	1	n/a	n/a	n/a	n/a	n/a
3912300	STOP	n/a	LTP189	ltpFR	7	n/a	n/a	n/a	n/a	n/a	n/a	n/a	n/a	n/a	n/a	n/a	n/a	n/a	n/a	n/a
3913537	WORD	wordpools/wasnorm_wordpool_less_exclusions.txt	LTP189	ltpFR	7	14	0	PASSENGER	1020	n/a	0	n/a	0	0	0	1	0.412841796875	0.57763671875	lower	../fonts/zerothre.ttf
3916549	START	n/a	LTP189	ltpFR	7	n/a	n/a	n/a	n/a	n/a	n/a	n/a	n/a	n/a	n/a	n/a	n/a	n/a	n/a	n/a
3917414	PROB	n/a	LTP189	ltpFR	7	n/a	n/a	n/a	n/a	n/a	n/a	12	4	4	3	n/a	n/a	n/a	n/a	n/a
3920160	PROB	n/a	LTP189	ltpFR	7	n/a	n/a	n/a	n/a	n/a	n/a	22	4	9	9	n/a	n/a	n/a	n/a	n/a
3924549	STOP	n/a	LTP189	ltpFR	7	n/a	n/a	n/a	n/a	n/a	n/a	n/a	n/a	n/a	n/a	n/a	n/a	n/a	n/a	n/a
3925585	WORD	wordpools/wasnorm_wordpool_less_exclusions.txt	LTP189	ltpFR	7	14	0	STREAM	1392	n/a	0	n/a	0	0	0	1	0.412841796875	0.57763671875	lower	../fonts/zerothre.ttf
3928598	START	n/a	LTP189	ltpFR	7	n/a	n/a	n/a	n/a	n/a	n/a	n/a	n/a	n/a	n/a	n/a	n/a	n/a	n/a	n/a
3929413	PROB	n/a	LTP189	ltpFR	7	n/a	n/a	n/a	n/a	n/a	n/a	14	3	9	2	n/a	n/a	n/a	n/a	n/a
3931360	PROB	n/a	LTP189	ltpFR	7	n/a	n/a	n/a	n/a	n/a	n/a	12	1	9	2	n/a	n/a	n/a	n/a	n/a
3936589	STOP	n/a	LTP189	ltpFR	7	n/a	n/a	n/a	n/a	n/a	n/a	n/a	n/a	n/a	n/a	n/a	n/a	n/a	n/a	n/a
3937451	WORD	wordpools/wasnorm_wordpool_less_exclusions.txt	LTP189	ltpFR	7	14	0	CANAL	226	n/a	1	n/a	0	0	0	1	0.412841796875	0.57763671875	lower	../fonts/zerothre.ttf
3940464	START	n/a	LTP189	ltpFR	7	n/a	n/a	n/a	n/a	n/a	n/a	n/a	n/a	n/a	n/a	n/a	n/a	n/a	n/a	n/a
3941428	PROB	n/a	LTP189	ltpFR	7	n/a	n/a	n/a	n/a	n/a	n/a	21	7	7	7	n/a	n/a	n/a	n/a	n/a
3943342	PROB	n/a	LTP189	ltpFR	7	n/a	n/a	n/a	n/a	n/a	n/a	19	3	8	8	n/a	n/a	n/a	n/a	n/a
3948463	STOP	n/a	LTP189	ltpFR	7	n/a	n/a	n/a	n/a	n/a	n/a	n/a	n/a	n/a	n/a	n/a	n/a	n/a	n/a	n/a
3949500	WORD	wordpools/wasnorm_wordpool_less_exclusions.txt	LTP189	ltpFR	7	14	0	HOSE	720	n/a	0	n/a	0	0	0	1	0.412841796875	0.57763671875	lower	../fonts/zerothre.ttf
3952512	START	n/a	LTP189	ltpFR	7	n/a	n/a	n/a	n/a	n/a	n/a	n/a	n/a	n/a	n/a	n/a	n/a	n/a	n/a	n/a
3953627	PROB	n/a	LTP189	ltpFR	7	n/a	n/a	n/a	n/a	n/a	n/a	12	9	2	1	n/a	n/a	n/a	n/a	n/a
