onset	duration	trial_type	sample	stim_file	subject	experiment	session	trial	task	item_name	item_num	recog_conf	resp	color_b	color_g	color_r	case	font
526.026	n/a	SESS_START	263013	n/a	LTP108	ltpFR	1	n/a	n/a	n/a	n/a	2	n/a	n/a	n/a	n/a	n/a	n/a
600.12	n/a	WORD	300060	wordpools/wasnorm_wordpool.txt	LTP108	ltpFR	1	1	0	MISTER	901	n/a	1	0	0.5869140625	0.422607421875	lower	../fonts/zerothre.ttf
604.298	n/a	WORD	302149	wordpools/wasnorm_wordpool.txt	LTP108	ltpFR	1	1	0	MOWER	928	n/a	1	0	0.5869140625	0.422607421875	lower	../fonts/zerothre.ttf
608.478	n/a	WORD	304239	wordpools/wasnorm_wordpool.txt	LTP108	ltpFR	1	1	0	BEAR	106	n/a	1	0	0.5869140625	0.422607421875	lower	../fonts/zerothre.ttf
612.448	n/a	WORD	306224	wordpools/wasnorm_wordpool.txt	LTP108	ltpFR	1	1	1	ROOT	1210	n/a	1	1	0.412841796875	0.57763671875	upper	../fonts/amplitud.ttf
616.286	n/a	WORD	308143	wordpools/wasnorm_wordpool.txt	LTP108	ltpFR	1	1	1	SHRUB	1299	n/a	1	1	0.412841796875	0.57763671875	upper	../fonts/amplitud.ttf
620.214	n/a	WORD	310107	wordpools/wasnorm_wordpool.txt	LTP108	ltpFR	1	1	0	SERVER	1272	n/a	1	0	0.5869140625	0.422607421875	lower	../fonts/zerothre.ttf
624.226	n/a	WORD	312113	wordpools/wasnorm_wordpool.txt	LTP108	ltpFR	1	1	0	CUPBOARD	425	n/a	1	0	0.5869140625	0.422607421875	lower	../fonts/zerothre.ttf
628.312	n/a	WORD	314156	wordpools/wasnorm_wordpool.txt	LTP108	ltpFR	1	1	0	COLESLAW	344	n/a	0	0	0.5869140625	0.422607421875	lower	../fonts/zerothre.ttf
632.384	n/a	WORD	316192	wordpools/wasnorm_wordpool.txt	LTP108	ltpFR	1	1	1	HEN	703	n/a	1	1	0.412841796875	0.57763671875	upper	../fonts/amplitud.ttf
636.338	n/a	WORD	318169	wordpools/wasnorm_wordpool.txt	LTP108	ltpFR	1	1	1	GEM	629	n/a	0	1	0.412841796875	0.57763671875	upper	../fonts/amplitud.ttf
640.166	n/a	WORD	320083	wordpools/wasnorm_wordpool.txt	LTP108	ltpFR	1	1	1	ROBE	1198	n/a	0	1	0.412841796875	0.57763671875	upper	../fonts/amplitud.ttf
643.978	n/a	WORD	321989	wordpools/wasnorm_wordpool.txt	LTP108	ltpFR	1	1	1	COCOON	339	n/a	1	1	0.412841796875	0.57763671875	upper	../fonts/amplitud.ttf
648.174	n/a	WORD	324087	wordpools/wasnorm_wordpool.txt	LTP108	ltpFR	1	1	1	LEG	809	n/a	1	1	0.412841796875	0.57763671875	upper	../fonts/amplitud.ttf
652.378	n/a	WORD	326189	wordpools/wasnorm_wordpool.txt	LTP108	ltpFR	1	1	1	SPIDER	1351	n/a	1	1	0.412841796875	0.57763671875	upper	../fonts/amplitud.ttf
656.374	n/a	WORD	328187	wordpools/wasnorm_wordpool.txt	LTP108	ltpFR	1	1	0	HANGER	687	n/a	0	0	0.5869140625	0.422607421875	lower	../fonts/zerothre.ttf
660.46	n/a	WORD	330230	wordpools/wasnorm_wordpool.txt	LTP108	ltpFR	1	1	0	BEETLE	116	n/a	0	0	0.5869140625	0.422607421875	lower	../fonts/zerothre.ttf
666.388	n/a	REC_START	333194	n/a	LTP108	ltpFR	1	1	n/a	n/a	n/a	n/a	n/a	n/a	n/a	n/a	n/a	n/a
668.916	n/a	REC_WORD	334458	wordpools/wasnorm_wordpool.txt	LTP108	ltpFR	1	1	1	HEN	703	n/a	1	n/a	n/a	n/a	n/a	n/a
669.576	n/a	REC_WORD	334788	wordpools/wasnorm_wordpool.txt	LTP108	ltpFR	1	1	1	LEG	809	n/a	1	n/a	n/a	n/a	n/a	n/a
670.318	n/a	REC_WORD	335159	wordpools/wasnorm_wordpool.txt	LTP108	ltpFR	1	1	1	SPIDER	1351	n/a	1	n/a	n/a	n/a	n/a	n/a
671.056	n/a	REC_WORD	335528	wordpools/wasnorm_wordpool.txt	LTP108	ltpFR	1	1	0	HANGER	687	n/a	0	n/a	n/a	n/a	n/a	n/a
672.798	n/a	REC_WORD	336399	wordpools/wasnorm_wordpool.txt	LTP108	ltpFR	1	1	1	COCOON	339	n/a	1	n/a	n/a	n/a	n/a	n/a
694.298	n/a	REC_WORD	347149	wordpools/wasnorm_wordpool.txt	LTP108	ltpFR	1	1	0	COLESLAW	344	n/a	0	n/a	n/a	n/a	n/a	n/a
719.292	n/a	REC_WORD	359646	wordpools/wasnorm_wordpool.txt	LTP108	ltpFR	1	1	0	SERVER	1272	n/a	1	n/a	n/a	n/a	n/a	n/a
750.39	n/a	WORD	375195	wordpools/wasnorm_wordpool.txt	LTP108	ltpFR	1	2	1	BARK	87	n/a	0	1	0.412841796875	0.57763671875	upper	../fonts/amplitud.ttf
754.236	n/a	WORD	377118	wordpools/wasnorm_wordpool.txt	LTP108	ltpFR	1	2	1	BIRD	129	n/a	1	1	0.412841796875	0.57763671875	upper	../fonts/amplitud.ttf
758.382	n/a	WORD	379191	wordpools/wasnorm_wordpool.txt	LTP108	ltpFR	1	2	0	PENGUIN	1044	n/a	1	0	0.5869140625	0.422607421875	lower	../fonts/zerothre.ttf
762.368	n/a	WORD	381184	wordpools/wasnorm_wordpool.txt	LTP108	ltpFR	1	2	0	JET	756	n/a	1	0	0.5869140625	0.422607421875	lower	../fonts/zerothre.ttf
766.28	n/a	WORD	383140	wordpools/wasnorm_wordpool.txt	LTP108	ltpFR	1	2	0	WARRIOR	1589	n/a	1	0	0.5869140625	0.422607421875	lower	../fonts/zerothre.ttf
770.25	n/a	WORD	385125	wordpools/wasnorm_wordpool.txt	LTP108	ltpFR	1	2	1	DIME	466	n/a	0	1	0.412841796875	0.57763671875	upper	../fonts/amplitud.ttf
774.154	n/a	WORD	387077	wordpools/wasnorm_wordpool.txt	LTP108	ltpFR	1	2	1	REGISTER	1180	n/a	0	1	0.412841796875	0.57763671875	upper	../fonts/amplitud.ttf
777.992	n/a	WORD	388996	wordpools/wasnorm_wordpool.txt	LTP108	ltpFR	1	2	0	LIEUTENANT	818	n/a	1	0	0.5869140625	0.422607421875	lower	../fonts/zerothre.ttf
781.844	n/a	WORD	390922	wordpools/wasnorm_wordpool.txt	LTP108	ltpFR	1	2	0	COTTON	385	n/a	0	0	0.5869140625	0.422607421875	lower	../fonts/zerothre.ttf
785.682	n/a	WORD	392841	wordpools/wasnorm_wordpool.txt	LTP108	ltpFR	1	2	0	DESIGNER	451	n/a	0	0	0.5869140625	0.422607421875	lower	../fonts/zerothre.ttf
789.728	n/a	WORD	394864	wordpools/wasnorm_wordpool.txt	LTP108	ltpFR	1	2	0	EARTH	515	n/a	1	0	0.5869140625	0.422607421875	lower	../fonts/zerothre.ttf
793.848	n/a	WORD	396924	wordpools/wasnorm_wordpool.txt	LTP108	ltpFR	1	2	0	MOTOR	922	n/a	1	0	0.5869140625	0.422607421875	lower	../fonts/zerothre.ttf
798.01	n/a	WORD	399005	wordpools/wasnorm_wordpool.txt	LTP108	ltpFR	1	2	1	FOLDER	588	n/a	0	1	0.412841796875	0.57763671875	upper	../fonts/amplitud.ttf
802.096	n/a	WORD	401048	wordpools/wasnorm_wordpool.txt	LTP108	ltpFR	1	2	1	TAVERN	1437	n/a	0	1	0.412841796875	0.57763671875	upper	../fonts/amplitud.ttf
805.942	n/a	WORD	402971	wordpools/wasnorm_wordpool.txt	LTP108	ltpFR	1	2	1	FIGHTER	564	n/a	1	1	0.412841796875	0.57763671875	upper	../fonts/amplitud.ttf
809.988	n/a	WORD	404994	wordpools/wasnorm_wordpool.txt	LTP108	ltpFR	1	2	1	LIST	830	n/a	0	1	0.412841796875	0.57763671875	upper	../fonts/amplitud.ttf
815.782	n/a	REC_START	407891	n/a	LTP108	ltpFR	1	2	n/a	n/a	n/a	n/a	n/a	n/a	n/a	n/a	n/a	n/a
816.82	n/a	REC_WORD	408410	wordpools/wasnorm_wordpool.txt	LTP108	ltpFR	1	2	1	LIST	830	n/a	0	n/a	n/a	n/a	n/a	n/a
817.364	n/a	REC_WORD	408682	wordpools/wasnorm_wordpool.txt	LTP108	ltpFR	1	2	1	FIGHTER	564	n/a	1	n/a	n/a	n/a	n/a	n/a
818.182	n/a	REC_WORD	409091	wordpools/wasnorm_wordpool.txt	LTP108	ltpFR	1	2	1	REGISTER	1180	n/a	0	n/a	n/a	n/a	n/a	n/a
819.3	n/a	REC_WORD	409650	wordpools/wasnorm_wordpool.txt	LTP108	ltpFR	1	2	1	FOLDER	588	n/a	0	n/a	n/a	n/a	n/a	n/a
832.204	n/a	REC_WORD	416102	wordpools/wasnorm_wordpool.txt	LTP108	ltpFR	1	2	0	LIEUTENANT	818	n/a	1	n/a	n/a	n/a	n/a	n/a
865.116	n/a	REC_WORD	432558	wordpools/wasnorm_wordpool.txt	LTP108	ltpFR	1	2	1	BARK	87	n/a	0	n/a	n/a	n/a	n/a	n/a
899.362	n/a	WORD	449681	wordpools/wasnorm_wordpool.txt	LTP108	ltpFR	1	3	1	JUDGE	761	n/a	0	1	0.412841796875	0.57763671875	upper	../fonts/amplitud.ttf
903.48	n/a	WORD	451740	wordpools/wasnorm_wordpool.txt	LTP108	ltpFR	1	3	1	JURY	766	n/a	1	1	0.412841796875	0.57763671875	upper	../fonts/amplitud.ttf
907.36	n/a	WORD	453680	wordpools/wasnorm_wordpool.txt	LTP108	ltpFR	1	3	1	SALAD	1224	n/a	0	1	0.412841796875	0.57763671875	upper	../fonts/amplitud.ttf
911.514	n/a	WORD	455757	wordpools/wasnorm_wordpool.txt	LTP108	ltpFR	1	3	1	SLIME	1327	n/a	0	1	0.412841796875	0.57763671875	upper	../fonts/amplitud.ttf
915.476	n/a	WORD	457738	wordpools/wasnorm_wordpool.txt	LTP108	ltpFR	1	3	1	GAUZE	626	n/a	0	1	0.412841796875	0.57763671875	upper	../fonts/amplitud.ttf
919.404	n/a	WORD	459702	wordpools/wasnorm_wordpool.txt	LTP108	ltpFR	1	3	1	BISON	131	n/a	1	1	0.412841796875	0.57763671875	upper	../fonts/amplitud.ttf
923.59	n/a	WORD	461795	wordpools/wasnorm_wordpool.txt	LTP108	ltpFR	1	3	1	DRIVEWAY	500	n/a	0	1	0.412841796875	0.57763671875	upper	../fonts/amplitud.ttf
927.494	n/a	WORD	463747	wordpools/wasnorm_wordpool.txt	LTP108	ltpFR	1	3	1	TWIG	1527	n/a	1	1	0.412841796875	0.57763671875	upper	../fonts/amplitud.ttf
931.482	n/a	WORD	465741	wordpools/wasnorm_wordpool.txt	LTP108	ltpFR	1	3	1	WALNUT	1584	n/a	1	1	0.412841796875	0.57763671875	upper	../fonts/amplitud.ttf
935.46	n/a	WORD	467730	wordpools/wasnorm_wordpool.txt	LTP108	ltpFR	1	3	1	RACK	1154	n/a	0	1	0.412841796875	0.57763671875	upper	../fonts/amplitud.ttf
939.564	n/a	WORD	469782	wordpools/wasnorm_wordpool.txt	LTP108	ltpFR	1	3	1	LENS	811	n/a	0	1	0.412841796875	0.57763671875	upper	../fonts/amplitud.ttf
943.692	n/a	WORD	471846	wordpools/wasnorm_wordpool.txt	LTP108	ltpFR	1	3	1	LEOPARD	812	n/a	1	1	0.412841796875	0.57763671875	upper	../fonts/amplitud.ttf
947.712	n/a	WORD	473856	wordpools/wasnorm_wordpool.txt	LTP108	ltpFR	1	3	1	HAT	690	n/a	0	1	0.412841796875	0.57763671875	upper	../fonts/amplitud.ttf
951.782	n/a	WORD	475891	wordpools/wasnorm_wordpool.txt	LTP108	ltpFR	1	3	1	BUFFALO	186	n/a	1	1	0.412841796875	0.57763671875	upper	../fonts/amplitud.ttf
955.962	n/a	WORD	477981	wordpools/wasnorm_wordpool.txt	LTP108	ltpFR	1	3	1	NAVIGATOR	938	n/a	1	1	0.412841796875	0.57763671875	upper	../fonts/amplitud.ttf
959.99	n/a	WORD	479995	wordpools/wasnorm_wordpool.txt	LTP108	ltpFR	1	3	1	RUST	1219	n/a	0	1	0.412841796875	0.57763671875	upper	../fonts/amplitud.ttf
965.958	n/a	REC_START	482979	n/a	LTP108	ltpFR	1	3	n/a	n/a	n/a	n/a	n/a	n/a	n/a	n/a	n/a	n/a
969.038	n/a	REC_WORD	484519	wordpools/wasnorm_wordpool.txt	LTP108	ltpFR	1	3	1	RUST	1219	n/a	0	n/a	n/a	n/a	n/a	n/a
969.706	n/a	REC_WORD	484853	wordpools/wasnorm_wordpool.txt	LTP108	ltpFR	1	3	1	NAVIGATOR	938	n/a	1	n/a	n/a	n/a	n/a	n/a
970.668	n/a	REC_WORD	485334	wordpools/wasnorm_wordpool.txt	LTP108	ltpFR	1	3	1	BISON	131	n/a	1	n/a	n/a	n/a	n/a	n/a
971.268	n/a	REC_WORD	485634	wordpools/wasnorm_wordpool.txt	LTP108	ltpFR	1	3	1	BUFFALO	186	n/a	1	n/a	n/a	n/a	n/a	n/a
976.148	n/a	REC_WORD	488074	wordpools/wasnorm_wordpool.txt	LTP108	ltpFR	1	3	1	SLIME	1327	n/a	0	n/a	n/a	n/a	n/a	n/a
977.388	n/a	REC_WORD	488694	wordpools/wasnorm_wordpool.txt	LTP108	ltpFR	1	3	1	JUDGE	761	n/a	0	n/a	n/a	n/a	n/a	n/a
977.878	n/a	REC_WORD	488939	wordpools/wasnorm_wordpool.txt	LTP108	ltpFR	1	3	1	JURY	766	n/a	1	n/a	n/a	n/a	n/a	n/a
979.672	n/a	REC_WORD	489836	wordpools/wasnorm_wordpool.txt	LTP108	ltpFR	1	3	1	SALAD	1224	n/a	0	n/a	n/a	n/a	n/a	n/a
981.304	n/a	REC_WORD	490652	wordpools/wasnorm_wordpool.txt	LTP108	ltpFR	1	3	1	WALNUT	1584	n/a	1	n/a	n/a	n/a	n/a	n/a
1047.706	n/a	WORD	523853	wordpools/wasnorm_wordpool.txt	LTP108	ltpFR	1	4	-1	SHIP	1286	n/a	-1	1	1.0	1.0	upper	../fonts/Verdana.ttf
1051.786	n/a	WORD	525893	wordpools/wasnorm_wordpool.txt	LTP108	ltpFR	1	4	-1	WINNER	1615	n/a	-1	1	1.0	1.0	upper	../fonts/Verdana.ttf
1055.922	n/a	WORD	527961	wordpools/wasnorm_wordpool.txt	LTP108	ltpFR	1	4	-1	PLATE	1086	n/a	-1	1	1.0	1.0	upper	../fonts/Verdana.ttf
1059.776	n/a	WORD	529888	wordpools/wasnorm_wordpool.txt	LTP108	ltpFR	1	4	-1	PENNY	1045	n/a	-1	1	1.0	1.0	upper	../fonts/Verdana.ttf
1063.946	n/a	WORD	531973	wordpools/wasnorm_wordpool.txt	LTP108	ltpFR	1	4	-1	MAGNET	855	n/a	-1	1	1.0	1.0	upper	../fonts/Verdana.ttf
1067.9	n/a	WORD	533950	wordpools/wasnorm_wordpool.txt	LTP108	ltpFR	1	4	-1	BUILDER	190	n/a	-1	1	1.0	1.0	upper	../fonts/Verdana.ttf
1072.104	n/a	WORD	536052	wordpools/wasnorm_wordpool.txt	LTP108	ltpFR	1	4	-1	SKETCH	1315	n/a	-1	1	1.0	1.0	upper	../fonts/Verdana.ttf
1076.132	n/a	WORD	538066	wordpools/wasnorm_wordpool.txt	LTP108	ltpFR	1	4	-1	BRAKE	166	n/a	-1	1	1.0	1.0	upper	../fonts/Verdana.ttf
1080.31	n/a	WORD	540155	wordpools/wasnorm_wordpool.txt	LTP108	ltpFR	1	4	-1	SIGN	1305	n/a	-1	1	1.0	1.0	upper	../fonts/Verdana.ttf
1084.156	n/a	WORD	542078	wordpools/wasnorm_wordpool.txt	LTP108	ltpFR	1	4	-1	SWORD	1423	n/a	-1	1	1.0	1.0	upper	../fonts/Verdana.ttf
1088.352	n/a	WORD	544176	wordpools/wasnorm_wordpool.txt	LTP108	ltpFR	1	4	-1	NURSE	963	n/a	-1	1	1.0	1.0	upper	../fonts/Verdana.ttf
1092.214	n/a	WORD	546107	wordpools/wasnorm_wordpool.txt	LTP108	ltpFR	1	4	-1	SCIENTIST	1249	n/a	-1	1	1.0	1.0	upper	../fonts/Verdana.ttf
1096.368	n/a	WORD	548184	wordpools/wasnorm_wordpool.txt	LTP108	ltpFR	1	4	-1	FOUNTAIN	597	n/a	-1	1	1.0	1.0	upper	../fonts/Verdana.ttf
1100.47	n/a	WORD	550235	wordpools/wasnorm_wordpool.txt	LTP108	ltpFR	1	4	-1	LAWN	805	n/a	-1	1	1.0	1.0	upper	../fonts/Verdana.ttf
1104.624	n/a	WORD	552312	wordpools/wasnorm_wordpool.txt	LTP108	ltpFR	1	4	-1	VICTOR	1563	n/a	-1	1	1.0	1.0	upper	../fonts/Verdana.ttf
1108.462	n/a	WORD	554231	wordpools/wasnorm_wordpool.txt	LTP108	ltpFR	1	4	-1	HOUSE	725	n/a	-1	1	1.0	1.0	upper	../fonts/Verdana.ttf
1114.438	n/a	REC_START	557219	n/a	LTP108	ltpFR	1	4	n/a	n/a	n/a	n/a	n/a	n/a	n/a	n/a	n/a	n/a
1116.04	n/a	REC_WORD	558020	wordpools/wasnorm_wordpool.txt	LTP108	ltpFR	1	4	-1	LAWN	805	n/a	-1	n/a	n/a	n/a	n/a	n/a
1116.724	n/a	REC_WORD	558362	wordpools/wasnorm_wordpool.txt	LTP108	ltpFR	1	4	-1	VICTOR	1563	n/a	-1	n/a	n/a	n/a	n/a	n/a
1117.356	n/a	REC_WORD	558678	wordpools/wasnorm_wordpool.txt	LTP108	ltpFR	1	4	-1	HOUSE	725	n/a	-1	n/a	n/a	n/a	n/a	n/a
1118.01	n/a	REC_WORD	559005	wordpools/wasnorm_wordpool.txt	LTP108	ltpFR	1	4	-1	SHIP	1286	n/a	-1	n/a	n/a	n/a	n/a	n/a
1119.222	n/a	REC_WORD	559611	wordpools/wasnorm_wordpool.txt	LTP108	ltpFR	1	4	-1	PLATE	1086	n/a	-1	n/a	n/a	n/a	n/a	n/a
1120.424	n/a	REC_WORD	560212	wordpools/wasnorm_wordpool.txt	LTP108	ltpFR	1	4	-1	NURSE	963	n/a	-1	n/a	n/a	n/a	n/a	n/a
1121.332	n/a	REC_WORD	560666	wordpools/wasnorm_wordpool.txt	LTP108	ltpFR	1	4	-1	SCIENTIST	1249	n/a	-1	n/a	n/a	n/a	n/a	n/a
1157.996	n/a	REC_WORD	578998	wordpools/wasnorm_wordpool.txt	LTP108	ltpFR	1	4	-1	BUILDER	190	n/a	-1	n/a	n/a	n/a	n/a	n/a
1198.116	n/a	WORD	599058	wordpools/wasnorm_wordpool.txt	LTP108	ltpFR	1	5	1	MONUMENT	913	n/a	0	1	0.412841796875	0.57763671875	upper	../fonts/amplitud.ttf
1201.996	n/a	WORD	600998	wordpools/wasnorm_wordpool.txt	LTP108	ltpFR	1	5	1	GALAXY	617	n/a	1	1	0.412841796875	0.57763671875	upper	../fonts/amplitud.ttf
1205.816	n/a	WORD	602908	wordpools/wasnorm_wordpool.txt	LTP108	ltpFR	1	5	1	TORTOISE	1486	n/a	1	1	0.412841796875	0.57763671875	upper	../fonts/amplitud.ttf
1209.744	n/a	WORD	604872	wordpools/wasnorm_wordpool.txt	LTP108	ltpFR	1	5	1	MUSEUM	933	n/a	0	1	0.412841796875	0.57763671875	upper	../fonts/amplitud.ttf
1213.808	n/a	WORD	606904	wordpools/wasnorm_wordpool.txt	LTP108	ltpFR	1	5	1	SLACKS	1323	n/a	0	1	0.412841796875	0.57763671875	upper	../fonts/amplitud.ttf
1217.994	n/a	WORD	608997	wordpools/wasnorm_wordpool.txt	LTP108	ltpFR	1	5	1	BEE	112	n/a	1	1	0.412841796875	0.57763671875	upper	../fonts/amplitud.ttf
1222.114	n/a	WORD	611057	wordpools/wasnorm_wordpool.txt	LTP108	ltpFR	1	5	1	MAMMAL	861	n/a	1	1	0.412841796875	0.57763671875	upper	../fonts/amplitud.ttf
1226.136	n/a	WORD	613068	wordpools/wasnorm_wordpool.txt	LTP108	ltpFR	1	5	1	SUMMIT	1405	n/a	0	1	0.412841796875	0.57763671875	upper	../fonts/amplitud.ttf
1229.956	n/a	WORD	614978	wordpools/wasnorm_wordpool.txt	LTP108	ltpFR	1	5	1	COMMITTEE	355	n/a	1	1	0.412841796875	0.57763671875	upper	../fonts/amplitud.ttf
1234.1	n/a	WORD	617050	wordpools/wasnorm_wordpool.txt	LTP108	ltpFR	1	5	1	SHUTTER	1300	n/a	0	1	0.412841796875	0.57763671875	upper	../fonts/amplitud.ttf
1237.938	n/a	WORD	618969	wordpools/wasnorm_wordpool.txt	LTP108	ltpFR	1	5	1	GLASS	639	n/a	0	1	0.412841796875	0.57763671875	upper	../fonts/amplitud.ttf
1241.784	n/a	WORD	620892	wordpools/wasnorm_wordpool.txt	LTP108	ltpFR	1	5	1	MACHINE	852	n/a	0	1	0.412841796875	0.57763671875	upper	../fonts/amplitud.ttf
1245.712	n/a	WORD	622856	wordpools/wasnorm_wordpool.txt	LTP108	ltpFR	1	5	1	WINGS	1614	n/a	0	1	0.412841796875	0.57763671875	upper	../fonts/amplitud.ttf
1249.574	n/a	WORD	624787	wordpools/wasnorm_wordpool.txt	LTP108	ltpFR	1	5	1	QUAIL	1147	n/a	1	1	0.412841796875	0.57763671875	upper	../fonts/amplitud.ttf
1253.736	n/a	WORD	626868	wordpools/wasnorm_wordpool.txt	LTP108	ltpFR	1	5	1	ZIPPER	1636	n/a	0	1	0.412841796875	0.57763671875	upper	../fonts/amplitud.ttf
1257.914	n/a	WORD	628957	wordpools/wasnorm_wordpool.txt	LTP108	ltpFR	1	5	1	SQUIRREL	1362	n/a	1	1	0.412841796875	0.57763671875	upper	../fonts/amplitud.ttf
1263.842	n/a	REC_START	631921	n/a	LTP108	ltpFR	1	5	n/a	n/a	n/a	n/a	n/a	n/a	n/a	n/a	n/a	n/a
1265.812	n/a	REC_WORD	632906	wordpools/wasnorm_wordpool.txt	LTP108	ltpFR	1	5	1	QUAIL	1147	n/a	1	n/a	n/a	n/a	n/a	n/a
1266.4	n/a	REC_WORD	633200	wordpools/wasnorm_wordpool.txt	LTP108	ltpFR	1	5	1	SQUIRREL	1362	n/a	1	n/a	n/a	n/a	n/a	n/a
1267.314	n/a	REC_WORD	633657	wordpools/wasnorm_wordpool.txt	LTP108	ltpFR	1	5	1	TORTOISE	1486	n/a	1	n/a	n/a	n/a	n/a	n/a
1269.254	n/a	REC_WORD	634627	wordpools/wasnorm_wordpool.txt	LTP108	ltpFR	1	5	1	COMMITTEE	355	n/a	1	n/a	n/a	n/a	n/a	n/a
1276.962	n/a	REC_WORD	638481	wordpools/wasnorm_wordpool.txt	LTP108	ltpFR	1	5	1	MAMMAL	861	n/a	1	n/a	n/a	n/a	n/a	n/a
1289.158	n/a	REC_WORD	644579	wordpools/wasnorm_wordpool.txt	LTP108	ltpFR	1	5	-1	SHIP	1286	n/a	-1	n/a	n/a	n/a	n/a	n/a
1297.864	n/a	REC_WORD	648932	wordpools/wasnorm_wordpool.txt	LTP108	ltpFR	1	5	1	MONUMENT	913	n/a	0	n/a	n/a	n/a	n/a	n/a
1344.814	n/a	WORD	672407	wordpools/wasnorm_wordpool.txt	LTP108	ltpFR	1	6	1	VASE	1549	n/a	0	1	0.412841796875	0.57763671875	upper	../fonts/amplitud.ttf
1348.652	n/a	WORD	674326	wordpools/wasnorm_wordpool.txt	LTP108	ltpFR	1	6	1	WALRUS	1585	n/a	1	1	0.412841796875	0.57763671875	upper	../fonts/amplitud.ttf
1352.548	n/a	WORD	676274	wordpools/wasnorm_wordpool.txt	LTP108	ltpFR	1	6	1	JAW	751	n/a	0	1	0.412841796875	0.57763671875	upper	../fonts/amplitud.ttf
1356.642	n/a	WORD	678321	wordpools/wasnorm_wordpool.txt	LTP108	ltpFR	1	6	1	PEPPER	1047	n/a	0	1	0.412841796875	0.57763671875	upper	../fonts/amplitud.ttf
1360.804	n/a	WORD	680402	wordpools/wasnorm_wordpool.txt	LTP108	ltpFR	1	6	1	MERMAID	887	n/a	1	1	0.412841796875	0.57763671875	upper	../fonts/amplitud.ttf
1364.874	n/a	WORD	682437	wordpools/wasnorm_wordpool.txt	LTP108	ltpFR	1	6	1	ASH	44	n/a	0	1	0.412841796875	0.57763671875	upper	../fonts/amplitud.ttf
1368.904	n/a	WORD	684452	wordpools/wasnorm_wordpool.txt	LTP108	ltpFR	1	6	1	NICOTINE	951	n/a	0	1	0.412841796875	0.57763671875	upper	../fonts/amplitud.ttf
1372.958	n/a	WORD	686479	wordpools/wasnorm_wordpool.txt	LTP108	ltpFR	1	6	1	OUTLAW	989	n/a	1	1	0.412841796875	0.57763671875	upper	../fonts/amplitud.ttf
1376.936	n/a	WORD	688468	wordpools/wasnorm_wordpool.txt	LTP108	ltpFR	1	6	1	ORCHID	982	n/a	1	1	0.412841796875	0.57763671875	upper	../fonts/amplitud.ttf
1380.99	n/a	WORD	690495	wordpools/wasnorm_wordpool.txt	LTP108	ltpFR	1	6	1	SEA	1259	n/a	1	1	0.412841796875	0.57763671875	upper	../fonts/amplitud.ttf
1384.844	n/a	WORD	692422	wordpools/wasnorm_wordpool.txt	LTP108	ltpFR	1	6	1	GLASSES	640	n/a	0	1	0.412841796875	0.57763671875	upper	../fonts/amplitud.ttf
1388.824	n/a	WORD	694412	wordpools/wasnorm_wordpool.txt	LTP108	ltpFR	1	6	1	INCENSE	735	n/a	0	1	0.412841796875	0.57763671875	upper	../fonts/amplitud.ttf
1392.876	n/a	WORD	696438	wordpools/wasnorm_wordpool.txt	LTP108	ltpFR	1	6	1	NITROGEN	954	n/a	0	1	0.412841796875	0.57763671875	upper	../fonts/amplitud.ttf
1396.73	n/a	WORD	698365	wordpools/wasnorm_wordpool.txt	LTP108	ltpFR	1	6	1	CHEMIST	292	n/a	1	1	0.412841796875	0.57763671875	upper	../fonts/amplitud.ttf
1400.584	n/a	WORD	700292	wordpools/wasnorm_wordpool.txt	LTP108	ltpFR	1	6	1	CANOE	233	n/a	0	1	0.412841796875	0.57763671875	upper	../fonts/amplitud.ttf
1404.604	n/a	WORD	702302	wordpools/wasnorm_wordpool.txt	LTP108	ltpFR	1	6	1	NOSE	957	n/a	0	1	0.412841796875	0.57763671875	upper	../fonts/amplitud.ttf
1410.44	n/a	REC_START	705220	n/a	LTP108	ltpFR	1	6	n/a	n/a	n/a	n/a	n/a	n/a	n/a	n/a	n/a	n/a
1411.888	n/a	REC_WORD	705944	wordpools/wasnorm_wordpool.txt	LTP108	ltpFR	1	6	1	CANOE	233	n/a	0	n/a	n/a	n/a	n/a	n/a
1412.576	n/a	REC_WORD	706288	wordpools/wasnorm_wordpool.txt	LTP108	ltpFR	1	6	1	NOSE	957	n/a	0	n/a	n/a	n/a	n/a	n/a
1413.224	n/a	REC_WORD	706612	wordpools/wasnorm_wordpool.txt	LTP108	ltpFR	1	6	1	MERMAID	887	n/a	1	n/a	n/a	n/a	n/a	n/a
1419.49	n/a	REC_WORD	709745	wordpools/wasnorm_wordpool.txt	LTP108	ltpFR	1	6	1	ASH	44	n/a	0	n/a	n/a	n/a	n/a	n/a
1420.128	n/a	REC_WORD	710064	wordpools/wasnorm_wordpool.txt	LTP108	ltpFR	1	6	1	NICOTINE	951	n/a	0	n/a	n/a	n/a	n/a	n/a
1427.252	n/a	REC_WORD	713626	wordpools/wasnorm_wordpool.txt	LTP108	ltpFR	1	6	1	ORCHID	982	n/a	1	n/a	n/a	n/a	n/a	n/a
1443.934	n/a	REC_WORD	721967	wordpools/wasnorm_wordpool.txt	LTP108	ltpFR	1	6	1	SEA	1259	n/a	1	n/a	n/a	n/a	n/a	n/a
1444.862	n/a	REC_WORD	722431	wordpools/wasnorm_wordpool.txt	LTP108	ltpFR	1	6	1	NOSE	957	n/a	0	n/a	n/a	n/a	n/a	n/a
1461.88	n/a	REC_WORD	730940	wordpools/wasnorm_wordpool.txt	LTP108	ltpFR	1	6	1	WALRUS	1585	n/a	1	n/a	n/a	n/a	n/a	n/a
1495.402	n/a	WORD	747701	wordpools/wasnorm_wordpool.txt	LTP108	ltpFR	1	7	-1	FURNITURE	616	n/a	-1	1	1.0	1.0	upper	../fonts/Verdana.ttf
1499.596	n/a	WORD	749798	wordpools/wasnorm_wordpool.txt	LTP108	ltpFR	1	7	-1	TRICYCLE	1506	n/a	-1	1	1.0	1.0	upper	../fonts/Verdana.ttf
1503.758	n/a	WORD	751879	wordpools/wasnorm_wordpool.txt	LTP108	ltpFR	1	7	-1	COCKTAIL	338	n/a	-1	1	1.0	1.0	upper	../fonts/Verdana.ttf
1507.728	n/a	WORD	753864	wordpools/wasnorm_wordpool.txt	LTP108	ltpFR	1	7	-1	HAMMOCK	681	n/a	-1	1	1.0	1.0	upper	../fonts/Verdana.ttf
1511.74	n/a	WORD	755870	wordpools/wasnorm_wordpool.txt	LTP108	ltpFR	1	7	-1	INN	739	n/a	-1	1	1.0	1.0	upper	../fonts/Verdana.ttf
1515.81	n/a	WORD	757905	wordpools/wasnorm_wordpool.txt	LTP108	ltpFR	1	7	-1	ORCHESTRA	981	n/a	-1	1	1.0	1.0	upper	../fonts/Verdana.ttf
1519.896	n/a	WORD	759948	wordpools/wasnorm_wordpool.txt	LTP108	ltpFR	1	7	-1	COLLAR	345	n/a	-1	1	1.0	1.0	upper	../fonts/Verdana.ttf
1523.884	n/a	WORD	761942	wordpools/wasnorm_wordpool.txt	LTP108	ltpFR	1	7	-1	BUTTON	207	n/a	-1	1	1.0	1.0	upper	../fonts/Verdana.ttf
1528.004	n/a	WORD	764002	wordpools/wasnorm_wordpool.txt	LTP108	ltpFR	1	7	-1	TAPE	1433	n/a	-1	1	1.0	1.0	upper	../fonts/Verdana.ttf
1532.19	n/a	WORD	766095	wordpools/wasnorm_wordpool.txt	LTP108	ltpFR	1	7	-1	ROOM	1206	n/a	-1	1	1.0	1.0	upper	../fonts/Verdana.ttf
1536.078	n/a	WORD	768039	wordpools/wasnorm_wordpool.txt	LTP108	ltpFR	1	7	-1	FACE	547	n/a	-1	1	1.0	1.0	upper	../fonts/Verdana.ttf
1540.232	n/a	WORD	770116	wordpools/wasnorm_wordpool.txt	LTP108	ltpFR	1	7	-1	BEARD	107	n/a	-1	1	1.0	1.0	upper	../fonts/Verdana.ttf
1544.202	n/a	WORD	772101	wordpools/wasnorm_wordpool.txt	LTP108	ltpFR	1	7	-1	STETHOSCOPE	1379	n/a	-1	1	1.0	1.0	upper	../fonts/Verdana.ttf
1548.19	n/a	WORD	774095	wordpools/wasnorm_wordpool.txt	LTP108	ltpFR	1	7	-1	FLASHLIGHT	575	n/a	-1	1	1.0	1.0	upper	../fonts/Verdana.ttf
1552.236	n/a	WORD	776118	wordpools/wasnorm_wordpool.txt	LTP108	ltpFR	1	7	-1	TOWER	1490	n/a	-1	1	1.0	1.0	upper	../fonts/Verdana.ttf
1556.356	n/a	WORD	778178	wordpools/wasnorm_wordpool.txt	LTP108	ltpFR	1	7	-1	PLAYGROUND	1087	n/a	-1	1	1.0	1.0	upper	../fonts/Verdana.ttf
1562.342	n/a	REC_START	781171	n/a	LTP108	ltpFR	1	7	n/a	n/a	n/a	n/a	n/a	n/a	n/a	n/a	n/a	n/a
1563.27	n/a	REC_WORD_VV	781635	wordpools/wasnorm_wordpool.txt	LTP108	ltpFR	1	7	n/a	<>	-1	n/a	n/a	n/a	n/a	n/a	n/a	n/a
1564.946	n/a	REC_WORD	782473	wordpools/wasnorm_wordpool.txt	LTP108	ltpFR	1	7	-1	TOWER	1490	n/a	-1	n/a	n/a	n/a	n/a	n/a
1565.608	n/a	REC_WORD	782804	wordpools/wasnorm_wordpool.txt	LTP108	ltpFR	1	7	-1	PLAYGROUND	1087	n/a	-1	n/a	n/a	n/a	n/a	n/a
1566.666	n/a	REC_WORD	783333	wordpools/wasnorm_wordpool.txt	LTP108	ltpFR	1	7	-1	BUTTON	207	n/a	-1	n/a	n/a	n/a	n/a	n/a
1567.52	n/a	REC_WORD	783760	wordpools/wasnorm_wordpool.txt	LTP108	ltpFR	1	7	-1	INN	739	n/a	-1	n/a	n/a	n/a	n/a	n/a
1568.094	n/a	REC_WORD	784047	wordpools/wasnorm_wordpool.txt	LTP108	ltpFR	1	7	-1	ROOM	1206	n/a	-1	n/a	n/a	n/a	n/a	n/a
1568.792	n/a	REC_WORD	784396	wordpools/wasnorm_wordpool.txt	LTP108	ltpFR	1	7	-1	HAMMOCK	681	n/a	-1	n/a	n/a	n/a	n/a	n/a
1569.56	n/a	REC_WORD	784780	wordpools/wasnorm_wordpool.txt	LTP108	ltpFR	1	7	-1	COCKTAIL	338	n/a	-1	n/a	n/a	n/a	n/a	n/a
1570.254	n/a	REC_WORD	785127	wordpools/wasnorm_wordpool.txt	LTP108	ltpFR	1	7	-1	FACE	547	n/a	-1	n/a	n/a	n/a	n/a	n/a
1570.972	n/a	REC_WORD	785486	wordpools/wasnorm_wordpool.txt	LTP108	ltpFR	1	7	-1	BEARD	107	n/a	-1	n/a	n/a	n/a	n/a	n/a
1573.622	n/a	REC_WORD	786811	wordpools/wasnorm_wordpool.txt	LTP108	ltpFR	1	7	-1	STETHOSCOPE	1379	n/a	-1	n/a	n/a	n/a	n/a	n/a
1575.172	n/a	REC_WORD	787586	wordpools/wasnorm_wordpool.txt	LTP108	ltpFR	1	7	-1	HAMMOCK	681	n/a	-1	n/a	n/a	n/a	n/a	n/a
1644.054	n/a	WORD	822027	wordpools/wasnorm_wordpool.txt	LTP108	ltpFR	1	8	1	CHIEF	298	n/a	1	1	0.412841796875	0.57763671875	upper	../fonts/amplitud.ttf
1648.016	n/a	WORD	824008	wordpools/wasnorm_wordpool.txt	LTP108	ltpFR	1	8	1	INDIAN	736	n/a	1	1	0.412841796875	0.57763671875	upper	../fonts/amplitud.ttf
1651.962	n/a	WORD	825981	wordpools/wasnorm_wordpool.txt	LTP108	ltpFR	1	8	1	CHEERLEADER	288	n/a	1	1	0.412841796875	0.57763671875	upper	../fonts/amplitud.ttf
1656.04	n/a	WORD	828020	wordpools/wasnorm_wordpool.txt	LTP108	ltpFR	1	8	1	GUEST	669	n/a	1	1	0.412841796875	0.57763671875	upper	../fonts/amplitud.ttf
1659.92	n/a	WORD	829960	wordpools/wasnorm_wordpool.txt	LTP108	ltpFR	1	8	0	CAP	236	n/a	0	0	0.5869140625	0.422607421875	lower	../fonts/zerothre.ttf
1663.824	n/a	WORD	831912	wordpools/wasnorm_wordpool.txt	LTP108	ltpFR	1	8	0	FOOTBALL	591	n/a	0	0	0.5869140625	0.422607421875	lower	../fonts/zerothre.ttf
1667.91	n/a	WORD	833955	wordpools/wasnorm_wordpool.txt	LTP108	ltpFR	1	8	0	PICKLE	1059	n/a	0	0	0.5869140625	0.422607421875	lower	../fonts/zerothre.ttf
1671.73	n/a	WORD	835865	wordpools/wasnorm_wordpool.txt	LTP108	ltpFR	1	8	0	BAND	78	n/a	1	0	0.5869140625	0.422607421875	lower	../fonts/zerothre.ttf
1675.86	n/a	WORD	837930	wordpools/wasnorm_wordpool.txt	LTP108	ltpFR	1	8	0	CONDUCTOR	362	n/a	1	0	0.5869140625	0.422607421875	lower	../fonts/zerothre.ttf
1679.954	n/a	WORD	839977	wordpools/wasnorm_wordpool.txt	LTP108	ltpFR	1	8	1	CANE	231	n/a	0	1	0.412841796875	0.57763671875	upper	../fonts/amplitud.ttf
1683.8	n/a	WORD	841900	wordpools/wasnorm_wordpool.txt	LTP108	ltpFR	1	8	1	SPINACH	1352	n/a	0	1	0.412841796875	0.57763671875	upper	../fonts/amplitud.ttf
1687.928	n/a	WORD	843964	wordpools/wasnorm_wordpool.txt	LTP108	ltpFR	1	8	1	STADIUM	1364	n/a	0	1	0.412841796875	0.57763671875	upper	../fonts/amplitud.ttf
1691.9	n/a	WORD	845950	wordpools/wasnorm_wordpool.txt	LTP108	ltpFR	1	8	1	PASTRY	1022	n/a	0	1	0.412841796875	0.57763671875	upper	../fonts/amplitud.ttf
1695.762	n/a	WORD	847881	wordpools/wasnorm_wordpool.txt	LTP108	ltpFR	1	8	0	SOAP	1337	n/a	0	0	0.5869140625	0.422607421875	lower	../fonts/zerothre.ttf
1699.874	n/a	WORD	849937	wordpools/wasnorm_wordpool.txt	LTP108	ltpFR	1	8	0	SWEATER	1419	n/a	1	0	0.5869140625	0.422607421875	lower	../fonts/zerothre.ttf
1703.902	n/a	WORD	851951	wordpools/wasnorm_wordpool.txt	LTP108	ltpFR	1	8	0	SCOUT	1252	n/a	1	0	0.5869140625	0.422607421875	lower	../fonts/zerothre.ttf
1709.496	n/a	REC_START	854748	n/a	LTP108	ltpFR	1	8	n/a	n/a	n/a	n/a	n/a	n/a	n/a	n/a	n/a	n/a
1711.278	n/a	REC_WORD	855639	wordpools/wasnorm_wordpool.txt	LTP108	ltpFR	1	8	0	BAND	78	n/a	1	n/a	n/a	n/a	n/a	n/a
1711.856	n/a	REC_WORD	855928	wordpools/wasnorm_wordpool.txt	LTP108	ltpFR	1	8	0	SWEATER	1419	n/a	1	n/a	n/a	n/a	n/a	n/a
1725.006	n/a	REC_WORD	862503	wordpools/wasnorm_wordpool.txt	LTP108	ltpFR	1	8	1	INDIAN	736	n/a	1	n/a	n/a	n/a	n/a	n/a
1727.056	n/a	REC_WORD	863528	wordpools/wasnorm_wordpool.txt	LTP108	ltpFR	1	8	1	CHIEF	298	n/a	1	n/a	n/a	n/a	n/a	n/a
1727.714	n/a	REC_WORD	863857	wordpools/wasnorm_wordpool.txt	LTP108	ltpFR	1	8	1	CHEERLEADER	288	n/a	1	n/a	n/a	n/a	n/a	n/a
1731.206	n/a	REC_WORD	865603	wordpools/wasnorm_wordpool.txt	LTP108	ltpFR	1	8	1	SPINACH	1352	n/a	0	n/a	n/a	n/a	n/a	n/a
1774.554	n/a	REC_WORD	887277	wordpools/wasnorm_wordpool.txt	LTP108	ltpFR	1	8	0	CONDUCTOR	362	n/a	1	n/a	n/a	n/a	n/a	n/a
1792.034	n/a	WORD	896017	wordpools/wasnorm_wordpool.txt	LTP108	ltpFR	1	9	-1	PATH	1023	n/a	-1	1	1.0	1.0	upper	../fonts/Verdana.ttf
1796.096	n/a	WORD	898048	wordpools/wasnorm_wordpool.txt	LTP108	ltpFR	1	9	-1	FLORIDA	582	n/a	-1	1	1.0	1.0	upper	../fonts/Verdana.ttf
1799.918	n/a	WORD	899959	wordpools/wasnorm_wordpool.txt	LTP108	ltpFR	1	9	-1	RASPBERRY	1168	n/a	-1	1	1.0	1.0	upper	../fonts/Verdana.ttf
1803.788	n/a	WORD	901894	wordpools/wasnorm_wordpool.txt	LTP108	ltpFR	1	9	-1	PIANO	1057	n/a	-1	1	1.0	1.0	upper	../fonts/Verdana.ttf
1807.858	n/a	WORD	903929	wordpools/wasnorm_wordpool.txt	LTP108	ltpFR	1	9	-1	WIRE	1616	n/a	-1	1	1.0	1.0	upper	../fonts/Verdana.ttf
1811.92	n/a	WORD	905960	wordpools/wasnorm_wordpool.txt	LTP108	ltpFR	1	9	-1	GRAVEL	659	n/a	-1	1	1.0	1.0	upper	../fonts/Verdana.ttf
1815.848	n/a	WORD	907924	wordpools/wasnorm_wordpool.txt	LTP108	ltpFR	1	9	-1	CELERY	266	n/a	-1	1	1.0	1.0	upper	../fonts/Verdana.ttf
1819.844	n/a	WORD	909922	wordpools/wasnorm_wordpool.txt	LTP108	ltpFR	1	9	-1	FRUIT	610	n/a	-1	1	1.0	1.0	upper	../fonts/Verdana.ttf
1823.706	n/a	WORD	911853	wordpools/wasnorm_wordpool.txt	LTP108	ltpFR	1	9	-1	CAULIFLOWER	262	n/a	-1	1	1.0	1.0	upper	../fonts/Verdana.ttf
1827.784	n/a	WORD	913892	wordpools/wasnorm_wordpool.txt	LTP108	ltpFR	1	9	-1	PEAR	1033	n/a	-1	1	1.0	1.0	upper	../fonts/Verdana.ttf
1831.922	n/a	WORD	915961	wordpools/wasnorm_wordpool.txt	LTP108	ltpFR	1	9	-1	RADIO	1157	n/a	-1	1	1.0	1.0	upper	../fonts/Verdana.ttf
1835.984	n/a	WORD	917992	wordpools/wasnorm_wordpool.txt	LTP108	ltpFR	1	9	-1	TUBA	1515	n/a	-1	1	1.0	1.0	upper	../fonts/Verdana.ttf
1839.912	n/a	WORD	919956	wordpools/wasnorm_wordpool.txt	LTP108	ltpFR	1	9	-1	BASSINET	97	n/a	-1	1	1.0	1.0	upper	../fonts/Verdana.ttf
1843.824	n/a	WORD	921912	wordpools/wasnorm_wordpool.txt	LTP108	ltpFR	1	9	-1	DIAPER	459	n/a	-1	1	1.0	1.0	upper	../fonts/Verdana.ttf
1847.804	n/a	WORD	923902	wordpools/wasnorm_wordpool.txt	LTP108	ltpFR	1	9	-1	GOWN	652	n/a	-1	1	1.0	1.0	upper	../fonts/Verdana.ttf
1851.69	n/a	WORD	925845	wordpools/wasnorm_wordpool.txt	LTP108	ltpFR	1	9	-1	QUILT	1151	n/a	-1	1	1.0	1.0	upper	../fonts/Verdana.ttf
1857.618	n/a	REC_START	928809	n/a	LTP108	ltpFR	1	9	n/a	n/a	n/a	n/a	n/a	n/a	n/a	n/a	n/a	n/a
1858.634	n/a	REC_WORD	929317	wordpools/wasnorm_wordpool.txt	LTP108	ltpFR	1	9	-1	GOWN	652	n/a	-1	n/a	n/a	n/a	n/a	n/a
1859.194	n/a	REC_WORD	929597	wordpools/wasnorm_wordpool.txt	LTP108	ltpFR	1	9	-1	QUILT	1151	n/a	-1	n/a	n/a	n/a	n/a	n/a
1859.792	n/a	REC_WORD	929896	wordpools/wasnorm_wordpool.txt	LTP108	ltpFR	1	9	-1	FRUIT	610	n/a	-1	n/a	n/a	n/a	n/a	n/a
1860.576	n/a	REC_WORD	930288	wordpools/wasnorm_wordpool.txt	LTP108	ltpFR	1	9	-1	RASPBERRY	1168	n/a	-1	n/a	n/a	n/a	n/a	n/a
1862.162	n/a	REC_WORD	931081	wordpools/wasnorm_wordpool.txt	LTP108	ltpFR	1	9	-1	GRAVEL	659	n/a	-1	n/a	n/a	n/a	n/a	n/a
1862.8	n/a	REC_WORD	931400	wordpools/wasnorm_wordpool.txt	LTP108	ltpFR	1	9	-1	PATH	1023	n/a	-1	n/a	n/a	n/a	n/a	n/a
1863.36	n/a	REC_WORD	931680	wordpools/wasnorm_wordpool.txt	LTP108	ltpFR	1	9	-1	FLORIDA	582	n/a	-1	n/a	n/a	n/a	n/a	n/a
1865.19	n/a	REC_WORD	932595	wordpools/wasnorm_wordpool.txt	LTP108	ltpFR	1	9	-1	PIANO	1057	n/a	-1	n/a	n/a	n/a	n/a	n/a
1869.886	n/a	REC_WORD	934943	wordpools/wasnorm_wordpool.txt	LTP108	ltpFR	1	9	-1	PEAR	1033	n/a	-1	n/a	n/a	n/a	n/a	n/a
1870.818	n/a	REC_WORD	935409	wordpools/wasnorm_wordpool.txt	LTP108	ltpFR	1	9	-1	CAULIFLOWER	262	n/a	-1	n/a	n/a	n/a	n/a	n/a
1886.822	n/a	REC_WORD	943411	wordpools/wasnorm_wordpool.txt	LTP108	ltpFR	1	9	-1	DIAPER	459	n/a	-1	n/a	n/a	n/a	n/a	n/a
1901.424	n/a	REC_WORD	950712	wordpools/wasnorm_wordpool.txt	LTP108	ltpFR	1	9	-1	ORCHESTRA	981	n/a	-1	n/a	n/a	n/a	n/a	n/a
1940.064	n/a	WORD	970032	wordpools/wasnorm_wordpool.txt	LTP108	ltpFR	1	10	0	LABEL	790	n/a	0	0	0.5869140625	0.422607421875	lower	../fonts/zerothre.ttf
1944.118	n/a	WORD	972059	wordpools/wasnorm_wordpool.txt	LTP108	ltpFR	1	10	0	AIRPLANE	12	n/a	1	0	0.5869140625	0.422607421875	lower	../fonts/zerothre.ttf
1948.18	n/a	WORD	974090	wordpools/wasnorm_wordpool.txt	LTP108	ltpFR	1	10	0	ORNAMENT	985	n/a	0	0	0.5869140625	0.422607421875	lower	../fonts/zerothre.ttf
1952.352	n/a	WORD	976176	wordpools/wasnorm_wordpool.txt	LTP108	ltpFR	1	10	0	TIMBER	1469	n/a	1	0	0.5869140625	0.422607421875	lower	../fonts/zerothre.ttf
1956.204	n/a	WORD	978102	wordpools/wasnorm_wordpool.txt	LTP108	ltpFR	1	10	0	MARINE	869	n/a	1	0	0.5869140625	0.422607421875	lower	../fonts/zerothre.ttf
1960.334	n/a	WORD	980167	wordpools/wasnorm_wordpool.txt	LTP108	ltpFR	1	10	0	BEDROOM	111	n/a	1	0	0.5869140625	0.422607421875	lower	../fonts/zerothre.ttf
1964.428	n/a	WORD	982214	wordpools/wasnorm_wordpool.txt	LTP108	ltpFR	1	10	0	TOWEL	1489	n/a	1	0	0.5869140625	0.422607421875	lower	../fonts/zerothre.ttf
1968.64	n/a	WORD	984320	wordpools/wasnorm_wordpool.txt	LTP108	ltpFR	1	10	0	ROBIN	1199	n/a	0	0	0.5869140625	0.422607421875	lower	../fonts/zerothre.ttf
1972.61	n/a	WORD	986305	wordpools/wasnorm_wordpool.txt	LTP108	ltpFR	1	10	0	PILLOW	1069	n/a	1	0	0.5869140625	0.422607421875	lower	../fonts/zerothre.ttf
1976.63	n/a	WORD	988315	wordpools/wasnorm_wordpool.txt	LTP108	ltpFR	1	10	0	DOCK	477	n/a	1	0	0.5869140625	0.422607421875	lower	../fonts/zerothre.ttf
1980.826	n/a	WORD	990413	wordpools/wasnorm_wordpool.txt	LTP108	ltpFR	1	10	0	CRYSTAL	418	n/a	0	0	0.5869140625	0.422607421875	lower	../fonts/zerothre.ttf
1984.704	n/a	WORD	992352	wordpools/wasnorm_wordpool.txt	LTP108	ltpFR	1	10	0	COFFEE	341	n/a	0	0	0.5869140625	0.422607421875	lower	../fonts/zerothre.ttf
1988.892	n/a	WORD	994446	wordpools/wasnorm_wordpool.txt	LTP108	ltpFR	1	10	0	PERCH	1048	n/a	1	0	0.5869140625	0.422607421875	lower	../fonts/zerothre.ttf
1992.728	n/a	WORD	996364	wordpools/wasnorm_wordpool.txt	LTP108	ltpFR	1	10	0	PELT	1040	n/a	0	0	0.5869140625	0.422607421875	lower	../fonts/zerothre.ttf
1996.59	n/a	WORD	998295	wordpools/wasnorm_wordpool.txt	LTP108	ltpFR	1	10	0	KNOT	788	n/a	0	0	0.5869140625	0.422607421875	lower	../fonts/zerothre.ttf
2000.412	n/a	WORD	1000206	wordpools/wasnorm_wordpool.txt	LTP108	ltpFR	1	10	0	ROPE	1211	n/a	0	0	0.5869140625	0.422607421875	lower	../fonts/zerothre.ttf
2006.196	n/a	REC_START	1003098	n/a	LTP108	ltpFR	1	10	n/a	n/a	n/a	n/a	n/a	n/a	n/a	n/a	n/a	n/a
2007.248	n/a	REC_WORD	1003624	wordpools/wasnorm_wordpool.txt	LTP108	ltpFR	1	10	0	PERCH	1048	n/a	1	n/a	n/a	n/a	n/a	n/a
2007.802	n/a	REC_WORD	1003901	wordpools/wasnorm_wordpool.txt	LTP108	ltpFR	1	10	0	PELT	1040	n/a	0	n/a	n/a	n/a	n/a	n/a
2008.346	n/a	REC_WORD	1004173	wordpools/wasnorm_wordpool.txt	LTP108	ltpFR	1	10	0	ROPE	1211	n/a	0	n/a	n/a	n/a	n/a	n/a
2008.96	n/a	REC_WORD	1004480	wordpools/wasnorm_wordpool.txt	LTP108	ltpFR	1	10	0	KNOT	788	n/a	0	n/a	n/a	n/a	n/a	n/a
2037.236	n/a	REC_WORD	1018618	wordpools/wasnorm_wordpool.txt	LTP108	ltpFR	1	10	0	PILLOW	1069	n/a	1	n/a	n/a	n/a	n/a	n/a
2038.4	n/a	REC_WORD	1019200	wordpools/wasnorm_wordpool.txt	LTP108	ltpFR	1	10	0	BEDROOM	111	n/a	1	n/a	n/a	n/a	n/a	n/a
2039.446	n/a	REC_WORD	1019723	wordpools/wasnorm_wordpool.txt	LTP108	ltpFR	1	10	0	TOWEL	1489	n/a	1	n/a	n/a	n/a	n/a	n/a
2042.814	n/a	REC_WORD	1021407	wordpools/wasnorm_wordpool.txt	LTP108	ltpFR	1	10	0	MARINE	869	n/a	1	n/a	n/a	n/a	n/a	n/a
2086.696	n/a	WORD	1043348	wordpools/wasnorm_wordpool.txt	LTP108	ltpFR	1	11	1	BRUSH	182	n/a	0	1	0.412841796875	0.57763671875	upper	../fonts/amplitud.ttf
2090.632	n/a	WORD	1045316	wordpools/wasnorm_wordpool.txt	LTP108	ltpFR	1	11	1	PUBLICATION	1136	n/a	0	1	0.412841796875	0.57763671875	upper	../fonts/amplitud.ttf
2094.562	n/a	WORD	1047281	wordpools/wasnorm_wordpool.txt	LTP108	ltpFR	1	11	1	INVENTOR	743	n/a	1	1	0.412841796875	0.57763671875	upper	../fonts/amplitud.ttf
2098.432	n/a	WORD	1049216	wordpools/wasnorm_wordpool.txt	LTP108	ltpFR	1	11	1	AGENT	10	n/a	1	1	0.412841796875	0.57763671875	upper	../fonts/amplitud.ttf
2102.346	n/a	WORD	1051173	wordpools/wasnorm_wordpool.txt	LTP108	ltpFR	1	11	0	CATCHER	258	n/a	1	0	0.5869140625	0.422607421875	lower	../fonts/zerothre.ttf
2106.39	n/a	WORD	1053195	wordpools/wasnorm_wordpool.txt	LTP108	ltpFR	1	11	0	TECHNICIAN	1443	n/a	1	0	0.5869140625	0.422607421875	lower	../fonts/zerothre.ttf
2110.426	n/a	WORD	1055213	wordpools/wasnorm_wordpool.txt	LTP108	ltpFR	1	11	1	HOSE	720	n/a	0	1	0.412841796875	0.57763671875	upper	../fonts/amplitud.ttf
2114.414	n/a	WORD	1057207	wordpools/wasnorm_wordpool.txt	LTP108	ltpFR	1	11	1	BUREAU	199	n/a	0	1	0.412841796875	0.57763671875	upper	../fonts/amplitud.ttf
2118.37	n/a	WORD	1059185	wordpools/wasnorm_wordpool.txt	LTP108	ltpFR	1	11	0	TURKEY	1520	n/a	1	0	0.5869140625	0.422607421875	lower	../fonts/zerothre.ttf
2122.348	n/a	WORD	1061174	wordpools/wasnorm_wordpool.txt	LTP108	ltpFR	1	11	0	HEAD	695	n/a	1	0	0.5869140625	0.422607421875	lower	../fonts/zerothre.ttf
2126.384	n/a	WORD	1063192	wordpools/wasnorm_wordpool.txt	LTP108	ltpFR	1	11	0	LETTUCE	814	n/a	0	0	0.5869140625	0.422607421875	lower	../fonts/zerothre.ttf
2130.488	n/a	WORD	1065244	wordpools/wasnorm_wordpool.txt	LTP108	ltpFR	1	11	0	SHELL	1281	n/a	0	0	0.5869140625	0.422607421875	lower	../fonts/zerothre.ttf
2134.35	n/a	WORD	1067175	wordpools/wasnorm_wordpool.txt	LTP108	ltpFR	1	11	0	SEASHORE	1263	n/a	1	0	0.5869140625	0.422607421875	lower	../fonts/zerothre.ttf
2138.47	n/a	WORD	1069235	wordpools/wasnorm_wordpool.txt	LTP108	ltpFR	1	11	0	JEEP	753	n/a	1	0	0.5869140625	0.422607421875	lower	../fonts/zerothre.ttf
2142.474	n/a	WORD	1071237	wordpools/wasnorm_wordpool.txt	LTP108	ltpFR	1	11	1	TAXI	1438	n/a	0	1	0.412841796875	0.57763671875	upper	../fonts/amplitud.ttf
2146.568	n/a	WORD	1073284	wordpools/wasnorm_wordpool.txt	LTP108	ltpFR	1	11	1	BAY	102	n/a	0	1	0.412841796875	0.57763671875	upper	../fonts/amplitud.ttf
2152.196	n/a	REC_START	1076098	n/a	LTP108	ltpFR	1	11	n/a	n/a	n/a	n/a	n/a	n/a	n/a	n/a	n/a	n/a
2153.928	n/a	REC_WORD_VV	1076964	wordpools/wasnorm_wordpool.txt	LTP108	ltpFR	1	11	n/a	<>	-1	n/a	n/a	n/a	n/a	n/a	n/a	n/a
2157.718	n/a	REC_WORD	1078859	wordpools/wasnorm_wordpool.txt	LTP108	ltpFR	1	11	1	BAY	102	n/a	0	n/a	n/a	n/a	n/a	n/a
2163.386	n/a	REC_WORD	1081693	wordpools/wasnorm_wordpool.txt	LTP108	ltpFR	1	11	0	TECHNICIAN	1443	n/a	1	n/a	n/a	n/a	n/a	n/a
2173.344	n/a	REC_WORD	1086672	wordpools/wasnorm_wordpool.txt	LTP108	ltpFR	1	11	0	SHELL	1281	n/a	0	n/a	n/a	n/a	n/a	n/a
2177.604	n/a	REC_WORD	1088802	wordpools/wasnorm_wordpool.txt	LTP108	ltpFR	1	11	1	INVENTOR	743	n/a	1	n/a	n/a	n/a	n/a	n/a
2179.494	n/a	REC_WORD	1089747	wordpools/wasnorm_wordpool.txt	LTP108	ltpFR	1	11	1	AGENT	10	n/a	1	n/a	n/a	n/a	n/a	n/a
2181.176	n/a	REC_WORD	1090588	wordpools/wasnorm_wordpool.txt	LTP108	ltpFR	1	11	1	TAXI	1438	n/a	0	n/a	n/a	n/a	n/a	n/a
2188.588	n/a	REC_WORD	1094294	wordpools/wasnorm_wordpool.txt	LTP108	ltpFR	1	11	0	JEEP	753	n/a	1	n/a	n/a	n/a	n/a	n/a
2195.104	n/a	REC_WORD	1097552	wordpools/wasnorm_wordpool.txt	LTP108	ltpFR	1	11	0	SEASHORE	1263	n/a	1	n/a	n/a	n/a	n/a	n/a
2200.458	n/a	REC_WORD	1100229	wordpools/wasnorm_wordpool.txt	LTP108	ltpFR	1	11	0	SHELL	1281	n/a	0	n/a	n/a	n/a	n/a	n/a
2241.152	n/a	WORD	1120576	wordpools/wasnorm_wordpool.txt	LTP108	ltpFR	1	12	0	POTATO	1115	n/a	0	0	0.5869140625	0.422607421875	lower	../fonts/zerothre.ttf
2245.314	n/a	WORD	1122657	wordpools/wasnorm_wordpool.txt	LTP108	ltpFR	1	12	0	SKIRT	1319	n/a	0	0	0.5869140625	0.422607421875	lower	../fonts/zerothre.ttf
2249.5	n/a	WORD	1124750	wordpools/wasnorm_wordpool.txt	LTP108	ltpFR	1	12	0	VEST	1559	n/a	0	0	0.5869140625	0.422607421875	lower	../fonts/zerothre.ttf
2253.454	n/a	WORD	1126727	wordpools/wasnorm_wordpool.txt	LTP108	ltpFR	1	12	0	BALLOT	76	n/a	0	0	0.5869140625	0.422607421875	lower	../fonts/zerothre.ttf
2257.49	n/a	WORD	1128745	wordpools/wasnorm_wordpool.txt	LTP108	ltpFR	1	12	0	RANCH	1166	n/a	1	0	0.5869140625	0.422607421875	lower	../fonts/zerothre.ttf
2261.52	n/a	WORD	1130760	wordpools/wasnorm_wordpool.txt	LTP108	ltpFR	1	12	0	DRESSER	496	n/a	1	0	0.5869140625	0.422607421875	lower	../fonts/zerothre.ttf
2265.506	n/a	WORD	1132753	wordpools/wasnorm_wordpool.txt	LTP108	ltpFR	1	12	0	AFRICA	9	n/a	1	0	0.5869140625	0.422607421875	lower	../fonts/zerothre.ttf
2269.602	n/a	WORD	1134801	wordpools/wasnorm_wordpool.txt	LTP108	ltpFR	1	12	0	SHORE	1291	n/a	1	0	0.5869140625	0.422607421875	lower	../fonts/zerothre.ttf
2273.696	n/a	WORD	1136848	wordpools/wasnorm_wordpool.txt	LTP108	ltpFR	1	12	0	CANYON	235	n/a	1	0	0.5869140625	0.422607421875	lower	../fonts/zerothre.ttf
2277.65	n/a	WORD	1138825	wordpools/wasnorm_wordpool.txt	LTP108	ltpFR	1	12	0	MOUNTAIN	924	n/a	1	0	0.5869140625	0.422607421875	lower	../fonts/zerothre.ttf
2281.73	n/a	WORD	1140865	wordpools/wasnorm_wordpool.txt	LTP108	ltpFR	1	12	0	COLT	349	n/a	1	0	0.5869140625	0.422607421875	lower	../fonts/zerothre.ttf
2285.75	n/a	WORD	1142875	wordpools/wasnorm_wordpool.txt	LTP108	ltpFR	1	12	0	CHESS	294	n/a	0	0	0.5869140625	0.422607421875	lower	../fonts/zerothre.ttf
2289.696	n/a	WORD	1144848	wordpools/wasnorm_wordpool.txt	LTP108	ltpFR	1	12	0	MOAT	903	n/a	1	0	0.5869140625	0.422607421875	lower	../fonts/zerothre.ttf
2293.85	n/a	WORD	1146925	wordpools/wasnorm_wordpool.txt	LTP108	ltpFR	1	12	0	HAM	678	n/a	0	0	0.5869140625	0.422607421875	lower	../fonts/zerothre.ttf
2297.812	n/a	WORD	1148906	wordpools/wasnorm_wordpool.txt	LTP108	ltpFR	1	12	0	DIVER	476	n/a	1	0	0.5869140625	0.422607421875	lower	../fonts/zerothre.ttf
2301.732	n/a	WORD	1150866	wordpools/wasnorm_wordpool.txt	LTP108	ltpFR	1	12	0	DOUGH	489	n/a	0	0	0.5869140625	0.422607421875	lower	../fonts/zerothre.ttf
2307.418	n/a	REC_START	1153709	n/a	LTP108	ltpFR	1	12	n/a	n/a	n/a	n/a	n/a	n/a	n/a	n/a	n/a	n/a
2308.166	n/a	REC_WORD_VV	1154083	wordpools/wasnorm_wordpool.txt	LTP108	ltpFR	1	12	n/a	<>	-1	n/a	n/a	n/a	n/a	n/a	n/a	n/a
2309.07	n/a	REC_WORD	1154535	wordpools/wasnorm_wordpool.txt	LTP108	ltpFR	1	12	0	DOUGH	489	n/a	0	n/a	n/a	n/a	n/a	n/a
2309.678	n/a	REC_WORD	1154839	wordpools/wasnorm_wordpool.txt	LTP108	ltpFR	1	12	0	DIVER	476	n/a	1	n/a	n/a	n/a	n/a	n/a
2313.106	n/a	REC_WORD	1156553	wordpools/wasnorm_wordpool.txt	LTP108	ltpFR	1	12	0	SHORE	1291	n/a	1	n/a	n/a	n/a	n/a	n/a
2319.576	n/a	REC_WORD_VV	1159788	wordpools/wasnorm_wordpool.txt	LTP108	ltpFR	1	12	n/a	<>	-1	n/a	n/a	n/a	n/a	n/a	n/a	n/a
2327.482	n/a	REC_WORD	1163741	wordpools/wasnorm_wordpool.txt	LTP108	ltpFR	1	12	0	SKIRT	1319	n/a	0	n/a	n/a	n/a	n/a	n/a
2328.296	n/a	REC_WORD	1164148	wordpools/wasnorm_wordpool.txt	LTP108	ltpFR	1	12	0	VEST	1559	n/a	0	n/a	n/a	n/a	n/a	n/a
2344.848	n/a	REC_WORD	1172424	wordpools/wasnorm_wordpool.txt	LTP108	ltpFR	1	12	0	DIVER	476	n/a	1	n/a	n/a	n/a	n/a	n/a
2345.792	n/a	REC_WORD	1172896	wordpools/wasnorm_wordpool.txt	LTP108	ltpFR	1	12	0	DOUGH	489	n/a	0	n/a	n/a	n/a	n/a	n/a
2383.03	n/a	REST_REWET	1191515	n/a	LTP108	ltpFR	1	12	n/a	n/a	n/a	n/a	n/a	n/a	n/a	n/a	n/a	n/a
2825.39	n/a	WORD	1412695	wordpools/wasnorm_wordpool.txt	LTP108	ltpFR	1	13	0	SCREWDRIVER	1255	n/a	2	0	0.5869140625	0.422607421875	lower	../fonts/zerothre.ttf
2828.344	n/a	KEY_MSG	1414172	n/a	LTP108	ltpFR	1	13	n/a	n/a	n/a	n/a	n/a	n/a	n/a	n/a	n/a	n/a
2830.974	n/a	WORD	1415487	wordpools/wasnorm_wordpool.txt	LTP108	ltpFR	1	13	0	ATTORNEY	58	n/a	3	0	0.5869140625	0.422607421875	lower	../fonts/zerothre.ttf
2832.472	n/a	KEY_MSG	1416236	n/a	LTP108	ltpFR	1	13	n/a	n/a	n/a	n/a	n/a	n/a	n/a	n/a	n/a	n/a
2834.902	n/a	WORD	1417451	wordpools/wasnorm_wordpool.txt	LTP108	ltpFR	1	13	1	INFANT	737	n/a	1	1	0.412841796875	0.57763671875	upper	../fonts/amplitud.ttf
2838.798	n/a	WORD	1419399	wordpools/wasnorm_wordpool.txt	LTP108	ltpFR	1	13	1	DENIM	446	n/a	0	1	0.412841796875	0.57763671875	upper	../fonts/amplitud.ttf
2842.834	n/a	WORD	1421417	wordpools/wasnorm_wordpool.txt	LTP108	ltpFR	1	13	1	JEANS	752	n/a	0	1	0.412841796875	0.57763671875	upper	../fonts/amplitud.ttf
2846.738	n/a	WORD	1423369	wordpools/wasnorm_wordpool.txt	LTP108	ltpFR	1	13	1	DOOR	486	n/a	0	1	0.412841796875	0.57763671875	upper	../fonts/amplitud.ttf
2850.626	n/a	WORD	1425313	wordpools/wasnorm_wordpool.txt	LTP108	ltpFR	1	13	0	BATHROOM	99	n/a	1	0	0.5869140625	0.422607421875	lower	../fonts/zerothre.ttf
2854.706	n/a	WORD	1427353	wordpools/wasnorm_wordpool.txt	LTP108	ltpFR	1	13	0	KING	777	n/a	1	0	0.5869140625	0.422607421875	lower	../fonts/zerothre.ttf
2858.858	n/a	WORD	1429429	wordpools/wasnorm_wordpool.txt	LTP108	ltpFR	1	13	0	MECHANIC	884	n/a	1	0	0.5869140625	0.422607421875	lower	../fonts/zerothre.ttf
2862.738	n/a	WORD	1431369	wordpools/wasnorm_wordpool.txt	LTP108	ltpFR	1	13	1	APARTMENT	30	n/a	0	1	0.412841796875	0.57763671875	upper	../fonts/amplitud.ttf
2866.742	n/a	WORD	1433371	wordpools/wasnorm_wordpool.txt	LTP108	ltpFR	1	13	1	CONTRACTOR	369	n/a	1	1	0.412841796875	0.57763671875	upper	../fonts/amplitud.ttf
2870.944	n/a	WORD	1435472	wordpools/wasnorm_wordpool.txt	LTP108	ltpFR	1	13	1	HAMPER	682	n/a	0	1	0.412841796875	0.57763671875	upper	../fonts/amplitud.ttf
2875.032	n/a	WORD	1437516	wordpools/wasnorm_wordpool.txt	LTP108	ltpFR	1	13	1	BUGGY	188	n/a	0	1	0.412841796875	0.57763671875	upper	../fonts/amplitud.ttf
2879.002	n/a	WORD	1439501	wordpools/wasnorm_wordpool.txt	LTP108	ltpFR	1	13	0	STRAW	1390	n/a	0	0	0.5869140625	0.422607421875	lower	../fonts/zerothre.ttf
2883.106	n/a	WORD	1441553	wordpools/wasnorm_wordpool.txt	LTP108	ltpFR	1	13	0	CLOTHES	327	n/a	0	0	0.5869140625	0.422607421875	lower	../fonts/zerothre.ttf
2887.2	n/a	WORD	1443600	wordpools/wasnorm_wordpool.txt	LTP108	ltpFR	1	13	0	POWDER	1117	n/a	1	0	0.5869140625	0.422607421875	lower	../fonts/zerothre.ttf
2893.07	n/a	REC_START	1446535	n/a	LTP108	ltpFR	1	13	n/a	n/a	n/a	n/a	n/a	n/a	n/a	n/a	n/a	n/a
2895.21	n/a	REC_WORD	1447605	wordpools/wasnorm_wordpool.txt	LTP108	ltpFR	1	13	0	POWDER	1117	n/a	1	n/a	n/a	n/a	n/a	n/a
2898.458	n/a	REC_WORD	1449229	wordpools/wasnorm_wordpool.txt	LTP108	ltpFR	1	13	1	CONTRACTOR	369	n/a	1	n/a	n/a	n/a	n/a	n/a
2899.534	n/a	REC_WORD	1449767	wordpools/wasnorm_wordpool.txt	LTP108	ltpFR	1	13	1	APARTMENT	30	n/a	0	n/a	n/a	n/a	n/a	n/a
2904.388	n/a	REC_WORD	1452194	wordpools/wasnorm_wordpool.txt	LTP108	ltpFR	1	13	1	INFANT	737	n/a	1	n/a	n/a	n/a	n/a	n/a
2908.548	n/a	REC_WORD	1454274	wordpools/wasnorm_wordpool.txt	LTP108	ltpFR	1	13	0	SCREWDRIVER	1255	n/a	2	n/a	n/a	n/a	n/a	n/a
2915.034	n/a	REC_WORD	1457517	wordpools/wasnorm_wordpool.txt	LTP108	ltpFR	1	13	0	KING	777	n/a	1	n/a	n/a	n/a	n/a	n/a
2980.818	n/a	WORD	1490409	wordpools/wasnorm_wordpool.txt	LTP108	ltpFR	1	14	0	CRUMB	416	n/a	0	0	0.5869140625	0.422607421875	lower	../fonts/zerothre.ttf
2984.706	n/a	WORD	1492353	wordpools/wasnorm_wordpool.txt	LTP108	ltpFR	1	14	0	BAKER	71	n/a	0	0	0.5869140625	0.422607421875	lower	../fonts/zerothre.ttf
2988.568	n/a	WORD	1494284	wordpools/wasnorm_wordpool.txt	LTP108	ltpFR	1	14	0	REINDEER	1181	n/a	1	0	0.5869140625	0.422607421875	lower	../fonts/zerothre.ttf
2992.472	n/a	WORD	1496236	wordpools/wasnorm_wordpool.txt	LTP108	ltpFR	1	14	1	TRAY	1498	n/a	0	1	0.412841796875	0.57763671875	upper	../fonts/amplitud.ttf
2996.492	n/a	WORD	1498246	wordpools/wasnorm_wordpool.txt	LTP108	ltpFR	1	14	1	ENCYCLOPEDIA	533	n/a	0	1	0.412841796875	0.57763671875	upper	../fonts/amplitud.ttf
3000.678	n/a	WORD	1500339	wordpools/wasnorm_wordpool.txt	LTP108	ltpFR	1	14	1	STOCKING	1383	n/a	0	1	0.412841796875	0.57763671875	upper	../fonts/amplitud.ttf
3004.674	n/a	WORD	1502337	wordpools/wasnorm_wordpool.txt	LTP108	ltpFR	1	14	0	POND	1101	n/a	0	0	0.5869140625	0.422607421875	lower	../fonts/zerothre.ttf
3008.67	n/a	WORD	1504335	wordpools/wasnorm_wordpool.txt	LTP108	ltpFR	1	14	0	LIME	823	n/a	0	0	0.5869140625	0.422607421875	lower	../fonts/zerothre.ttf
3012.522	n/a	WORD	1506261	wordpools/wasnorm_wordpool.txt	LTP108	ltpFR	1	14	0	RAISIN	1163	n/a	0	0	0.5869140625	0.422607421875	lower	../fonts/zerothre.ttf
3016.578	n/a	WORD	1508289	wordpools/wasnorm_wordpool.txt	LTP108	ltpFR	1	14	0	WATERFALL	1595	n/a	1	0	0.5869140625	0.422607421875	lower	../fonts/zerothre.ttf
3020.606	n/a	WORD	1510303	wordpools/wasnorm_wordpool.txt	LTP108	ltpFR	1	14	0	TRENCH	1503	n/a	1	0	0.5869140625	0.422607421875	lower	../fonts/zerothre.ttf
3024.802	n/a	WORD	1512401	wordpools/wasnorm_wordpool.txt	LTP108	ltpFR	1	14	1	SQUID	1361	n/a	1	1	0.412841796875	0.57763671875	upper	../fonts/amplitud.ttf
3028.822	n/a	WORD	1514411	wordpools/wasnorm_wordpool.txt	LTP108	ltpFR	1	14	1	DRILL	497	n/a	1	1	0.412841796875	0.57763671875	upper	../fonts/amplitud.ttf
3032.75	n/a	WORD	1516375	wordpools/wasnorm_wordpool.txt	LTP108	ltpFR	1	14	1	TOOL	1480	n/a	1	1	0.412841796875	0.57763671875	upper	../fonts/amplitud.ttf
3036.904	n/a	WORD	1518452	wordpools/wasnorm_wordpool.txt	LTP108	ltpFR	1	14	1	CRAB	397	n/a	1	1	0.412841796875	0.57763671875	upper	../fonts/amplitud.ttf
3040.782	n/a	WORD	1520391	wordpools/wasnorm_wordpool.txt	LTP108	ltpFR	1	14	1	WAITRESS	1581	n/a	1	1	0.412841796875	0.57763671875	upper	../fonts/amplitud.ttf
3046.428	n/a	REC_START	1523214	n/a	LTP108	ltpFR	1	14	n/a	n/a	n/a	n/a	n/a	n/a	n/a	n/a	n/a	n/a
3048.244	n/a	REC_WORD	1524122	wordpools/wasnorm_wordpool.txt	LTP108	ltpFR	1	14	0	REINDEER	1181	n/a	1	n/a	n/a	n/a	n/a	n/a
3048.716	n/a	REC_WORD	1524358	wordpools/wasnorm_wordpool.txt	LTP108	ltpFR	1	14	1	STOCKING	1383	n/a	0	n/a	n/a	n/a	n/a	n/a
3049.82	n/a	REC_WORD	1524910	wordpools/wasnorm_wordpool.txt	LTP108	ltpFR	1	14	1	CRAB	397	n/a	1	n/a	n/a	n/a	n/a	n/a
3050.782	n/a	REC_WORD	1525391	wordpools/wasnorm_wordpool.txt	LTP108	ltpFR	1	14	1	WAITRESS	1581	n/a	1	n/a	n/a	n/a	n/a	n/a
3052.938	n/a	REC_WORD	1526469	wordpools/wasnorm_wordpool.txt	LTP108	ltpFR	1	14	0	TRENCH	1503	n/a	1	n/a	n/a	n/a	n/a	n/a
3057.922	n/a	REC_WORD	1528961	wordpools/wasnorm_wordpool.txt	LTP108	ltpFR	1	14	0	WATERFALL	1595	n/a	1	n/a	n/a	n/a	n/a	n/a
3064.516	n/a	REC_WORD	1532258	wordpools/wasnorm_wordpool.txt	LTP108	ltpFR	1	14	1	CRAB	397	n/a	1	n/a	n/a	n/a	n/a	n/a
3128.216	n/a	WORD	1564108	wordpools/wasnorm_wordpool.txt	LTP108	ltpFR	1	15	0	SALIVA	1226	n/a	0	0	0.5869140625	0.422607421875	lower	../fonts/zerothre.ttf
3132.286	n/a	WORD	1566143	wordpools/wasnorm_wordpool.txt	LTP108	ltpFR	1	15	0	DIRECTOR	471	n/a	1	0	0.5869140625	0.422607421875	lower	../fonts/zerothre.ttf
3136.172	n/a	WORD	1568086	wordpools/wasnorm_wordpool.txt	LTP108	ltpFR	1	15	0	SCARECROW	1245	n/a	1	0	0.5869140625	0.422607421875	lower	../fonts/zerothre.ttf
3140.018	n/a	WORD	1570009	wordpools/wasnorm_wordpool.txt	LTP108	ltpFR	1	15	0	BAIT	70	n/a	0	0	0.5869140625	0.422607421875	lower	../fonts/zerothre.ttf
3143.906	n/a	WORD	1571953	wordpools/wasnorm_wordpool.txt	LTP108	ltpFR	1	15	0	CRITIC	410	n/a	1	0	0.5869140625	0.422607421875	lower	../fonts/zerothre.ttf
3148.01	n/a	WORD	1574005	wordpools/wasnorm_wordpool.txt	LTP108	ltpFR	1	15	0	CELLAR	267	n/a	1	0	0.5869140625	0.422607421875	lower	../fonts/zerothre.ttf
3152.162	n/a	WORD	1576081	wordpools/wasnorm_wordpool.txt	LTP108	ltpFR	1	15	0	SEED	1266	n/a	0	0	0.5869140625	0.422607421875	lower	../fonts/zerothre.ttf
3156.066	n/a	WORD	1578033	wordpools/wasnorm_wordpool.txt	LTP108	ltpFR	1	15	0	SPRINKLE	1359	n/a	0	0	0.5869140625	0.422607421875	lower	../fonts/zerothre.ttf
3160.128	n/a	WORD	1580064	wordpools/wasnorm_wordpool.txt	LTP108	ltpFR	1	15	0	BACK	65	n/a	0	0	0.5869140625	0.422607421875	lower	../fonts/zerothre.ttf
3164.116	n/a	WORD	1582058	wordpools/wasnorm_wordpool.txt	LTP108	ltpFR	1	15	0	BONE	148	n/a	1	0	0.5869140625	0.422607421875	lower	../fonts/zerothre.ttf
3167.928	n/a	WORD	1583964	wordpools/wasnorm_wordpool.txt	LTP108	ltpFR	1	15	0	FIELD	562	n/a	1	0	0.5869140625	0.422607421875	lower	../fonts/zerothre.ttf
3171.99	n/a	WORD	1585995	wordpools/wasnorm_wordpool.txt	LTP108	ltpFR	1	15	0	RUNNER	1218	n/a	1	0	0.5869140625	0.422607421875	lower	../fonts/zerothre.ttf
3175.852	n/a	WORD	1587926	wordpools/wasnorm_wordpool.txt	LTP108	ltpFR	1	15	0	CHIME	300	n/a	0	0	0.5869140625	0.422607421875	lower	../fonts/zerothre.ttf
3179.806	n/a	WORD	1589903	wordpools/wasnorm_wordpool.txt	LTP108	ltpFR	1	15	0	TRUMPET	1513	n/a	1	0	0.5869140625	0.422607421875	lower	../fonts/zerothre.ttf
3183.76	n/a	WORD	1591880	wordpools/wasnorm_wordpool.txt	LTP108	ltpFR	1	15	0	BUCKET	184	n/a	1	0	0.5869140625	0.422607421875	lower	../fonts/zerothre.ttf
3187.806	n/a	WORD	1593903	wordpools/wasnorm_wordpool.txt	LTP108	ltpFR	1	15	0	TIDE	1465	n/a	1	0	0.5869140625	0.422607421875	lower	../fonts/zerothre.ttf
3193.474	n/a	REC_START	1596737	n/a	LTP108	ltpFR	1	15	n/a	n/a	n/a	n/a	n/a	n/a	n/a	n/a	n/a	n/a
3194.312	n/a	REC_WORD	1597156	wordpools/wasnorm_wordpool.txt	LTP108	ltpFR	1	15	0	TIDE	1465	n/a	1	n/a	n/a	n/a	n/a	n/a
3195.05	n/a	REC_WORD	1597525	wordpools/wasnorm_wordpool.txt	LTP108	ltpFR	1	15	0	BACK	65	n/a	0	n/a	n/a	n/a	n/a	n/a
3195.544	n/a	REC_WORD	1597772	wordpools/wasnorm_wordpool.txt	LTP108	ltpFR	1	15	0	BONE	148	n/a	1	n/a	n/a	n/a	n/a	n/a
3196.962	n/a	REC_WORD	1598481	wordpools/wasnorm_wordpool.txt	LTP108	ltpFR	1	15	0	RUNNER	1218	n/a	1	n/a	n/a	n/a	n/a	n/a
3197.524	n/a	REC_WORD	1598762	wordpools/wasnorm_wordpool.txt	LTP108	ltpFR	1	15	0	FIELD	562	n/a	1	n/a	n/a	n/a	n/a	n/a
3203.776	n/a	REC_WORD	1601888	wordpools/wasnorm_wordpool.txt	LTP108	ltpFR	1	15	0	BUCKET	184	n/a	1	n/a	n/a	n/a	n/a	n/a
3218.462	n/a	REC_WORD_VV	1609231	wordpools/wasnorm_wordpool.txt	LTP108	ltpFR	1	15	n/a	<>	-1	n/a	n/a	n/a	n/a	n/a	n/a	n/a
3280.3	n/a	WORD	1640150	wordpools/wasnorm_wordpool.txt	LTP108	ltpFR	1	16	-1	DOUGHNUT	490	n/a	-1	1	1.0	1.0	upper	../fonts/Verdana.ttf
3284.27	n/a	WORD	1642135	wordpools/wasnorm_wordpool.txt	LTP108	ltpFR	1	16	-1	WAVE	1596	n/a	-1	1	1.0	1.0	upper	../fonts/Verdana.ttf
3288.314	n/a	WORD	1644157	wordpools/wasnorm_wordpool.txt	LTP108	ltpFR	1	16	-1	ASHTRAY	45	n/a	-1	1	1.0	1.0	upper	../fonts/Verdana.ttf
3292.318	n/a	WORD	1646159	wordpools/wasnorm_wordpool.txt	LTP108	ltpFR	1	16	-1	LIGHTER	819	n/a	-1	1	1.0	1.0	upper	../fonts/Verdana.ttf
3296.264	n/a	WORD	1648132	wordpools/wasnorm_wordpool.txt	LTP108	ltpFR	1	16	-1	POET	1095	n/a	-1	1	1.0	1.0	upper	../fonts/Verdana.ttf
3300.134	n/a	WORD	1650067	wordpools/wasnorm_wordpool.txt	LTP108	ltpFR	1	16	-1	BOOK	149	n/a	-1	1	1.0	1.0	upper	../fonts/Verdana.ttf
3304.046	n/a	WORD	1652023	wordpools/wasnorm_wordpool.txt	LTP108	ltpFR	1	16	-1	FUDGE	611	n/a	-1	1	1.0	1.0	upper	../fonts/Verdana.ttf
3308.068	n/a	WORD	1654034	wordpools/wasnorm_wordpool.txt	LTP108	ltpFR	1	16	-1	CANAL	226	n/a	-1	1	1.0	1.0	upper	../fonts/Verdana.ttf
3312.188	n/a	WORD	1656094	wordpools/wasnorm_wordpool.txt	LTP108	ltpFR	1	16	-1	PUDDLE	1140	n/a	-1	1	1.0	1.0	upper	../fonts/Verdana.ttf
3316.032	n/a	WORD	1658016	wordpools/wasnorm_wordpool.txt	LTP108	ltpFR	1	16	-1	MUFFIN	929	n/a	-1	1	1.0	1.0	upper	../fonts/Verdana.ttf
3320.17	n/a	WORD	1660085	wordpools/wasnorm_wordpool.txt	LTP108	ltpFR	1	16	-1	SENATE	1267	n/a	-1	1	1.0	1.0	upper	../fonts/Verdana.ttf
3323.99	n/a	WORD	1661995	wordpools/wasnorm_wordpool.txt	LTP108	ltpFR	1	16	-1	YOLK	1633	n/a	-1	1	1.0	1.0	upper	../fonts/Verdana.ttf
3327.902	n/a	WORD	1663951	wordpools/wasnorm_wordpool.txt	LTP108	ltpFR	1	16	-1	MOVIE	927	n/a	-1	1	1.0	1.0	upper	../fonts/Verdana.ttf
3332.098	n/a	WORD	1666049	wordpools/wasnorm_wordpool.txt	LTP108	ltpFR	1	16	-1	SWIMMER	1420	n/a	-1	1	1.0	1.0	upper	../fonts/Verdana.ttf
3336.092	n/a	WORD	1668046	wordpools/wasnorm_wordpool.txt	LTP108	ltpFR	1	16	-1	VACUUM	1543	n/a	-1	1	1.0	1.0	upper	../fonts/Verdana.ttf
3339.938	n/a	WORD	1669969	wordpools/wasnorm_wordpool.txt	LTP108	ltpFR	1	16	-1	PADDING	999	n/a	-1	1	1.0	1.0	upper	../fonts/Verdana.ttf
3345.884	n/a	REC_START	1672942	n/a	LTP108	ltpFR	1	16	n/a	n/a	n/a	n/a	n/a	n/a	n/a	n/a	n/a	n/a
3347.29	n/a	REC_WORD	1673645	wordpools/wasnorm_wordpool.txt	LTP108	ltpFR	1	16	-1	PADDING	999	n/a	-1	n/a	n/a	n/a	n/a	n/a
3348.014	n/a	REC_WORD	1674007	wordpools/wasnorm_wordpool.txt	LTP108	ltpFR	1	16	-1	YOLK	1633	n/a	-1	n/a	n/a	n/a	n/a	n/a
3348.862	n/a	REC_WORD	1674431	wordpools/wasnorm_wordpool.txt	LTP108	ltpFR	1	16	-1	CANAL	226	n/a	-1	n/a	n/a	n/a	n/a	n/a
3350.058	n/a	REC_WORD	1675029	wordpools/wasnorm_wordpool.txt	LTP108	ltpFR	1	16	0	RUNNER	1218	n/a	1	n/a	n/a	n/a	n/a	n/a
3351.79	n/a	REC_WORD	1675895	wordpools/wasnorm_wordpool.txt	LTP108	ltpFR	1	16	-1	DOUGHNUT	490	n/a	-1	n/a	n/a	n/a	n/a	n/a
3359.926	n/a	REC_WORD	1679963	wordpools/wasnorm_wordpool.txt	LTP108	ltpFR	1	16	-1	SENATE	1267	n/a	-1	n/a	n/a	n/a	n/a	n/a
3409.444	n/a	REC_WORD	1704722	wordpools/wasnorm_wordpool.txt	LTP108	ltpFR	1	16	0	TIDE	1465	n/a	1	n/a	n/a	n/a	n/a	n/a
3443.414	n/a	REC_START	1721707	n/a	LTP108	ltpFR	1	n/a	n/a	n/a	n/a	n/a	n/a	n/a	n/a	n/a	n/a	n/a
3444.556	n/a	FFR_REC_WORD	1722278	wordpools/wasnorm_wordpool.txt	LTP108	ltpFR	1	n/a	0	TIDE	1465	n/a	1	n/a	n/a	n/a	n/a	n/a
3445.324	n/a	FFR_REC_WORD	1722662	wordpools/wasnorm_wordpool.txt	LTP108	ltpFR	1	n/a	-1	SENATE	1267	n/a	-1	n/a	n/a	n/a	n/a	n/a
3446.376	n/a	FFR_REC_WORD	1723188	wordpools/wasnorm_wordpool.txt	LTP108	ltpFR	1	n/a	0	AFRICA	9	n/a	1	n/a	n/a	n/a	n/a	n/a
3450.448	n/a	FFR_REC_WORD	1725224	wordpools/wasnorm_wordpool.txt	LTP108	ltpFR	1	n/a	0	REINDEER	1181	n/a	1	n/a	n/a	n/a	n/a	n/a
3451.61	n/a	FFR_REC_WORD_VV	1725805	wordpools/wasnorm_wordpool.txt	LTP108	ltpFR	1	n/a	n/a	<>	-1	n/a	n/a	n/a	n/a	n/a	n/a	n/a
3452.194	n/a	FFR_REC_WORD	1726097	wordpools/wasnorm_wordpool.txt	LTP108	ltpFR	1	n/a	n/a	CHIMNEY	301	n/a	n/a	n/a	n/a	n/a	n/a	n/a
3454.368	n/a	FFR_REC_WORD	1727184	wordpools/wasnorm_wordpool.txt	LTP108	ltpFR	1	n/a	1	STOCKING	1383	n/a	0	n/a	n/a	n/a	n/a	n/a
3456.338	n/a	FFR_REC_WORD	1728169	wordpools/wasnorm_wordpool.txt	LTP108	ltpFR	1	n/a	0	MOAT	903	n/a	1	n/a	n/a	n/a	n/a	n/a
3459.486	n/a	FFR_REC_WORD	1729743	wordpools/wasnorm_wordpool.txt	LTP108	ltpFR	1	n/a	-1	DOUGHNUT	490	n/a	-1	n/a	n/a	n/a	n/a	n/a
3466.016	n/a	FFR_REC_WORD	1733008	wordpools/wasnorm_wordpool.txt	LTP108	ltpFR	1	n/a	0	BONE	148	n/a	1	n/a	n/a	n/a	n/a	n/a
3466.924	n/a	FFR_REC_WORD	1733462	wordpools/wasnorm_wordpool.txt	LTP108	ltpFR	1	n/a	1	COCOON	339	n/a	1	n/a	n/a	n/a	n/a	n/a
3489.388	n/a	FFR_REC_WORD	1744694	wordpools/wasnorm_wordpool.txt	LTP108	ltpFR	1	n/a	-1	FACE	547	n/a	-1	n/a	n/a	n/a	n/a	n/a
3491.374	n/a	FFR_REC_WORD	1745687	wordpools/wasnorm_wordpool.txt	LTP108	ltpFR	1	n/a	-1	BEARD	107	n/a	-1	n/a	n/a	n/a	n/a	n/a
3492.486	n/a	FFR_REC_WORD	1746243	wordpools/wasnorm_wordpool.txt	LTP108	ltpFR	1	n/a	-1	COLLAR	345	n/a	-1	n/a	n/a	n/a	n/a	n/a
3493.49	n/a	FFR_REC_WORD	1746745	wordpools/wasnorm_wordpool.txt	LTP108	ltpFR	1	n/a	-1	BUTTON	207	n/a	-1	n/a	n/a	n/a	n/a	n/a
3494.836	n/a	FFR_REC_WORD	1747418	wordpools/wasnorm_wordpool.txt	LTP108	ltpFR	1	n/a	-1	INN	739	n/a	-1	n/a	n/a	n/a	n/a	n/a
3495.348	n/a	FFR_REC_WORD	1747674	wordpools/wasnorm_wordpool.txt	LTP108	ltpFR	1	n/a	-1	HAMMOCK	681	n/a	-1	n/a	n/a	n/a	n/a	n/a
3496.836	n/a	FFR_REC_WORD	1748418	wordpools/wasnorm_wordpool.txt	LTP108	ltpFR	1	n/a	-1	COCKTAIL	338	n/a	-1	n/a	n/a	n/a	n/a	n/a
3498.378	n/a	FFR_REC_WORD_VV	1749189	wordpools/wasnorm_wordpool.txt	LTP108	ltpFR	1	n/a	n/a	<>	-1	n/a	n/a	n/a	n/a	n/a	n/a	n/a
3507.808	n/a	FFR_REC_WORD	1753904	wordpools/wasnorm_wordpool.txt	LTP108	ltpFR	1	n/a	-1	PEAR	1033	n/a	-1	n/a	n/a	n/a	n/a	n/a
3509.988	n/a	FFR_REC_WORD	1754994	wordpools/wasnorm_wordpool.txt	LTP108	ltpFR	1	n/a	1	CRAB	397	n/a	1	n/a	n/a	n/a	n/a	n/a
3512.882	n/a	FFR_REC_WORD	1756441	wordpools/wasnorm_wordpool.txt	LTP108	ltpFR	1	n/a	0	SHORE	1291	n/a	1	n/a	n/a	n/a	n/a	n/a
3523.312	n/a	FFR_REC_WORD	1761656	wordpools/wasnorm_wordpool.txt	LTP108	ltpFR	1	n/a	n/a	REEF	1177	n/a	n/a	n/a	n/a	n/a	n/a	n/a
3545.004	n/a	FFR_REC_WORD	1772502	wordpools/wasnorm_wordpool.txt	LTP108	ltpFR	1	n/a	-1	ORCHESTRA	981	n/a	-1	n/a	n/a	n/a	n/a	n/a
3546.38	n/a	FFR_REC_WORD	1773190	wordpools/wasnorm_wordpool.txt	LTP108	ltpFR	1	n/a	0	TRUMPET	1513	n/a	1	n/a	n/a	n/a	n/a	n/a
3564.554	n/a	FFR_REC_WORD	1782277	wordpools/wasnorm_wordpool.txt	LTP108	ltpFR	1	n/a	-1	TOWER	1490	n/a	-1	n/a	n/a	n/a	n/a	n/a
3614.716	n/a	FFR_REC_WORD	1807358	wordpools/wasnorm_wordpool.txt	LTP108	ltpFR	1	n/a	0	PILLOW	1069	n/a	1	n/a	n/a	n/a	n/a	n/a
3615.53	n/a	FFR_REC_WORD	1807765	wordpools/wasnorm_wordpool.txt	LTP108	ltpFR	1	n/a	0	BEDROOM	111	n/a	1	n/a	n/a	n/a	n/a	n/a
3617.166	n/a	FFR_REC_WORD	1808583	wordpools/wasnorm_wordpool.txt	LTP108	ltpFR	1	n/a	0	MARINE	869	n/a	1	n/a	n/a	n/a	n/a	n/a
3732.87	n/a	FFR_REC_WORD	1866435	wordpools/wasnorm_wordpool.txt	LTP108	ltpFR	1	n/a	0	CELLAR	267	n/a	1	n/a	n/a	n/a	n/a	n/a
3777.496	n/a	REC_START	1888748	n/a	LTP108	ltpFR	1	1	n/a	n/a	n/a	n/a	n/a	n/a	n/a	n/a	n/a	n/a
3777.528	n/a	RECOG_TARGET	1888764	n/a	LTP108	ltpFR	1	1	0	MOWER	928	4	1	n/a	n/a	n/a	n/a	n/a
3779.082	n/a	RECOG_RESP	1889541	n/a	LTP108	ltpFR	1	1	0	MOWER	928	n/a	1	n/a	n/a	n/a	n/a	n/a
3780.634	n/a	RECOG_CONF	1890317	n/a	LTP108	ltpFR	1	1	0	MOWER	928	4	1	n/a	n/a	n/a	n/a	n/a
3782.414	n/a	RECOG_TARGET	1891207	n/a	LTP108	ltpFR	1	1	1	ENCYCLOPEDIA	533	5	0	n/a	n/a	n/a	n/a	n/a
3783.516	n/a	RECOG_RESP	1891758	n/a	LTP108	ltpFR	1	1	1	ENCYCLOPEDIA	533	n/a	0	n/a	n/a	n/a	n/a	n/a
3784.684	n/a	RECOG_CONF	1892342	n/a	LTP108	ltpFR	1	1	1	ENCYCLOPEDIA	533	5	0	n/a	n/a	n/a	n/a	n/a
3786.318	n/a	RECOG_TARGET	1893159	n/a	LTP108	ltpFR	1	1	0	CHESS	294	5	0	n/a	n/a	n/a	n/a	n/a
3787.358	n/a	RECOG_RESP	1893679	n/a	LTP108	ltpFR	1	1	0	CHESS	294	n/a	0	n/a	n/a	n/a	n/a	n/a
3788.466	n/a	RECOG_CONF	1894233	n/a	LTP108	ltpFR	1	1	0	CHESS	294	5	0	n/a	n/a	n/a	n/a	n/a
3789.956	n/a	RECOG_LURE	1894978	n/a	LTP108	ltpFR	1	1	n/a	HUT	729	2	n/a	n/a	n/a	n/a	n/a	n/a
3792.002	n/a	RECOG_RESP	1896001	n/a	LTP108	ltpFR	1	1	n/a	HUT	729	n/a	n/a	n/a	n/a	n/a	n/a	n/a
3793.214	n/a	RECOG_CONF	1896607	n/a	LTP108	ltpFR	1	1	n/a	HUT	729	2	n/a	n/a	n/a	n/a	n/a	n/a
3794.832	n/a	RECOG_LURE	1897416	n/a	LTP108	ltpFR	1	1	n/a	DIRT	472	5	n/a	n/a	n/a	n/a	n/a	n/a
3795.724	n/a	RECOG_RESP	1897862	n/a	LTP108	ltpFR	1	1	n/a	DIRT	472	n/a	n/a	n/a	n/a	n/a	n/a	n/a
3796.786	n/a	RECOG_CONF	1898393	n/a	LTP108	ltpFR	1	1	n/a	DIRT	472	5	n/a	n/a	n/a	n/a	n/a	n/a
3798.372	n/a	RECOG_LURE	1899186	n/a	LTP108	ltpFR	1	1	n/a	FLUTE	585	3	n/a	n/a	n/a	n/a	n/a	n/a
3799.606	n/a	RECOG_RESP	1899803	n/a	LTP108	ltpFR	1	1	n/a	FLUTE	585	n/a	n/a	n/a	n/a	n/a	n/a	n/a
3800.878	n/a	RECOG_CONF	1900439	n/a	LTP108	ltpFR	1	1	n/a	FLUTE	585	3	n/a	n/a	n/a	n/a	n/a	n/a
3802.448	n/a	RECOG_LURE	1901224	n/a	LTP108	ltpFR	1	1	n/a	MANAGER	863	3	n/a	n/a	n/a	n/a	n/a	n/a
3804.09	n/a	RECOG_RESP_VV	1902045	n/a	LTP108	ltpFR	1	1	n/a	MANAGER	863	n/a	n/a	n/a	n/a	n/a	n/a	n/a
3804.678	n/a	RECOG_RESP	1902339	n/a	LTP108	ltpFR	1	1	n/a	MANAGER	863	n/a	n/a	n/a	n/a	n/a	n/a	n/a
3806.954	n/a	RECOG_CONF	1903477	n/a	LTP108	ltpFR	1	1	n/a	MANAGER	863	3	n/a	n/a	n/a	n/a	n/a	n/a
3808.516	n/a	RECOG_TARGET	1904258	n/a	LTP108	ltpFR	1	1	1	SHUTTER	1300	5	0	n/a	n/a	n/a	n/a	n/a
3809.682	n/a	RECOG_RESP	1904841	n/a	LTP108	ltpFR	1	1	1	SHUTTER	1300	n/a	0	n/a	n/a	n/a	n/a	n/a
3810.754	n/a	RECOG_CONF	1905377	n/a	LTP108	ltpFR	1	1	1	SHUTTER	1300	5	0	n/a	n/a	n/a	n/a	n/a
3812.488	n/a	RECOG_LURE	1906244	n/a	LTP108	ltpFR	1	1	n/a	PARIS	1014	5	n/a	n/a	n/a	n/a	n/a	n/a
3813.448	n/a	RECOG_RESP	1906724	n/a	LTP108	ltpFR	1	1	n/a	PARIS	1014	n/a	n/a	n/a	n/a	n/a	n/a	n/a
3814.426	n/a	RECOG_CONF	1907213	n/a	LTP108	ltpFR	1	1	n/a	PARIS	1014	5	n/a	n/a	n/a	n/a	n/a	n/a
3816.016	n/a	RECOG_TARGET	1908008	n/a	LTP108	ltpFR	1	1	1	HAMPER	682	4	0	n/a	n/a	n/a	n/a	n/a
3817.284	n/a	RECOG_RESP	1908642	n/a	LTP108	ltpFR	1	1	1	HAMPER	682	n/a	0	n/a	n/a	n/a	n/a	n/a
3818.388	n/a	RECOG_CONF	1909194	n/a	LTP108	ltpFR	1	1	1	HAMPER	682	4	0	n/a	n/a	n/a	n/a	n/a
3819.812	n/a	RECOG_TARGET	1909906	n/a	LTP108	ltpFR	1	1	1	COCOON	339	5	1	n/a	n/a	n/a	n/a	n/a
3820.596	n/a	RECOG_RESP	1910298	n/a	LTP108	ltpFR	1	1	1	COCOON	339	n/a	1	n/a	n/a	n/a	n/a	n/a
3821.76	n/a	RECOG_CONF	1910880	n/a	LTP108	ltpFR	1	1	1	COCOON	339	5	1	n/a	n/a	n/a	n/a	n/a
3823.69	n/a	RECOG_LURE	1911845	n/a	LTP108	ltpFR	1	1	n/a	GHETTO	633	5	n/a	n/a	n/a	n/a	n/a	n/a
3824.668	n/a	RECOG_RESP	1912334	n/a	LTP108	ltpFR	1	1	n/a	GHETTO	633	n/a	n/a	n/a	n/a	n/a	n/a	n/a
3825.77	n/a	RECOG_CONF	1912885	n/a	LTP108	ltpFR	1	1	n/a	GHETTO	633	5	n/a	n/a	n/a	n/a	n/a	n/a
3827.654	n/a	RECOG_TARGET	1913827	n/a	LTP108	ltpFR	1	1	1	DOOR	486	4	0	n/a	n/a	n/a	n/a	n/a
3830.35	n/a	RECOG_RESP	1915175	n/a	LTP108	ltpFR	1	1	1	DOOR	486	n/a	0	n/a	n/a	n/a	n/a	n/a
3831.468	n/a	RECOG_CONF	1915734	n/a	LTP108	ltpFR	1	1	1	DOOR	486	4	0	n/a	n/a	n/a	n/a	n/a
3833.138	n/a	RECOG_TARGET	1916569	n/a	LTP108	ltpFR	1	1	1	OUTLAW	989	2	1	n/a	n/a	n/a	n/a	n/a
3834.7	n/a	RECOG_RESP	1917350	n/a	LTP108	ltpFR	1	1	1	OUTLAW	989	n/a	1	n/a	n/a	n/a	n/a	n/a
3835.778	n/a	RECOG_CONF	1917889	n/a	LTP108	ltpFR	1	1	1	OUTLAW	989	2	1	n/a	n/a	n/a	n/a	n/a
3837.5	n/a	RECOG_LURE	1918750	n/a	LTP108	ltpFR	1	1	n/a	NET	946	1	n/a	n/a	n/a	n/a	n/a	n/a
3838.708	n/a	RECOG_RESP	1919354	n/a	LTP108	ltpFR	1	1	n/a	NET	946	n/a	n/a	n/a	n/a	n/a	n/a	n/a
3839.85	n/a	RECOG_CONF	1919925	n/a	LTP108	ltpFR	1	1	n/a	NET	946	1	n/a	n/a	n/a	n/a	n/a	n/a
3841.346	n/a	RECOG_LURE	1920673	n/a	LTP108	ltpFR	1	1	n/a	RABBIT	1152	4	n/a	n/a	n/a	n/a	n/a	n/a
3842.358	n/a	RECOG_RESP	1921179	n/a	LTP108	ltpFR	1	1	n/a	RABBIT	1152	n/a	n/a	n/a	n/a	n/a	n/a	n/a
3843.592	n/a	RECOG_CONF	1921796	n/a	LTP108	ltpFR	1	1	n/a	RABBIT	1152	4	n/a	n/a	n/a	n/a	n/a	n/a
3845.1	n/a	RECOG_TARGET	1922550	n/a	LTP108	ltpFR	1	1	0	LIME	823	5	0	n/a	n/a	n/a	n/a	n/a
3845.9	n/a	RECOG_RESP	1922950	n/a	LTP108	ltpFR	1	1	0	LIME	823	n/a	0	n/a	n/a	n/a	n/a	n/a
3847.034	n/a	RECOG_CONF	1923517	n/a	LTP108	ltpFR	1	1	0	LIME	823	5	0	n/a	n/a	n/a	n/a	n/a
3848.496	n/a	RECOG_LURE	1924248	n/a	LTP108	ltpFR	1	1	n/a	CYCLONE	431	4	n/a	n/a	n/a	n/a	n/a	n/a
3849.892	n/a	RECOG_RESP	1924946	n/a	LTP108	ltpFR	1	1	n/a	CYCLONE	431	n/a	n/a	n/a	n/a	n/a	n/a	n/a
3851.094	n/a	RECOG_CONF	1925547	n/a	LTP108	ltpFR	1	1	n/a	CYCLONE	431	4	n/a	n/a	n/a	n/a	n/a	n/a
3852.584	n/a	RECOG_TARGET	1926292	n/a	LTP108	ltpFR	1	1	0	MOAT	903	5	1	n/a	n/a	n/a	n/a	n/a
3853.624	n/a	RECOG_RESP	1926812	n/a	LTP108	ltpFR	1	1	0	MOAT	903	n/a	1	n/a	n/a	n/a	n/a	n/a
3855.076	n/a	RECOG_CONF	1927538	n/a	LTP108	ltpFR	1	1	0	MOAT	903	5	1	n/a	n/a	n/a	n/a	n/a
3856.62	n/a	RECOG_LURE	1928310	n/a	LTP108	ltpFR	1	1	n/a	RUG	1215	3	n/a	n/a	n/a	n/a	n/a	n/a
3857.67	n/a	RECOG_RESP	1928835	n/a	LTP108	ltpFR	1	1	n/a	RUG	1215	n/a	n/a	n/a	n/a	n/a	n/a	n/a
3858.766	n/a	RECOG_CONF	1929383	n/a	LTP108	ltpFR	1	1	n/a	RUG	1215	3	n/a	n/a	n/a	n/a	n/a	n/a
3865.75	n/a	REC_START	1932875	n/a	LTP108	ltpFR	1	2	n/a	n/a	n/a	n/a	n/a	n/a	n/a	n/a	n/a	n/a
3865.776	n/a	RECOG_LURE	1932888	n/a	LTP108	ltpFR	1	2	n/a	BROOK	177	5	n/a	n/a	n/a	n/a	n/a	n/a
3866.918	n/a	RECOG_RESP	1933459	n/a	LTP108	ltpFR	1	2	n/a	BROOK	177	n/a	n/a	n/a	n/a	n/a	n/a	n/a
3868.0	n/a	RECOG_CONF	1934000	n/a	LTP108	ltpFR	1	2	n/a	BROOK	177	5	n/a	n/a	n/a	n/a	n/a	n/a
3869.53	n/a	RECOG_LURE	1934765	n/a	LTP108	ltpFR	1	2	n/a	CHIMPANZEE	302	5	n/a	n/a	n/a	n/a	n/a	n/a
3870.49	n/a	RECOG_RESP	1935245	n/a	LTP108	ltpFR	1	2	n/a	CHIMPANZEE	302	n/a	n/a	n/a	n/a	n/a	n/a	n/a
3871.602	n/a	RECOG_CONF	1935801	n/a	LTP108	ltpFR	1	2	n/a	CHIMPANZEE	302	5	n/a	n/a	n/a	n/a	n/a	n/a
3873.276	n/a	RECOG_TARGET	1936638	n/a	LTP108	ltpFR	1	2	1	GAUZE	626	5	0	n/a	n/a	n/a	n/a	n/a
3874.426	n/a	RECOG_RESP	1937213	n/a	LTP108	ltpFR	1	2	1	GAUZE	626	n/a	0	n/a	n/a	n/a	n/a	n/a
3875.384	n/a	RECOG_CONF	1937692	n/a	LTP108	ltpFR	1	2	1	GAUZE	626	5	0	n/a	n/a	n/a	n/a	n/a
3876.914	n/a	RECOG_LURE	1938457	n/a	LTP108	ltpFR	1	2	n/a	MONARCH	906	2	n/a	n/a	n/a	n/a	n/a	n/a
3878.212	n/a	RECOG_RESP	1939106	n/a	LTP108	ltpFR	1	2	n/a	MONARCH	906	n/a	n/a	n/a	n/a	n/a	n/a	n/a
3879.344	n/a	RECOG_CONF	1939672	n/a	LTP108	ltpFR	1	2	n/a	MONARCH	906	2	n/a	n/a	n/a	n/a	n/a	n/a
3880.826	n/a	RECOG_TARGET	1940413	n/a	LTP108	ltpFR	1	2	-1	TRICYCLE	1506	4	-1	n/a	n/a	n/a	n/a	n/a
3882.232	n/a	RECOG_RESP	1941116	n/a	LTP108	ltpFR	1	2	-1	TRICYCLE	1506	n/a	-1	n/a	n/a	n/a	n/a	n/a
3883.446	n/a	RECOG_CONF	1941723	n/a	LTP108	ltpFR	1	2	-1	TRICYCLE	1506	4	-1	n/a	n/a	n/a	n/a	n/a
3884.962	n/a	RECOG_TARGET	1942481	n/a	LTP108	ltpFR	1	2	0	AIRPLANE	12	5	1	n/a	n/a	n/a	n/a	n/a
3886.0	n/a	RECOG_RESP	1943000	n/a	LTP108	ltpFR	1	2	0	AIRPLANE	12	n/a	1	n/a	n/a	n/a	n/a	n/a
3887.066	n/a	RECOG_CONF	1943533	n/a	LTP108	ltpFR	1	2	0	AIRPLANE	12	5	1	n/a	n/a	n/a	n/a	n/a
3888.608	n/a	RECOG_TARGET	1944304	n/a	LTP108	ltpFR	1	2	1	CRAB	397	5	1	n/a	n/a	n/a	n/a	n/a
3889.422	n/a	RECOG_RESP	1944711	n/a	LTP108	ltpFR	1	2	1	CRAB	397	n/a	1	n/a	n/a	n/a	n/a	n/a
3890.558	n/a	RECOG_CONF	1945279	n/a	LTP108	ltpFR	1	2	1	CRAB	397	5	1	n/a	n/a	n/a	n/a	n/a
3892.112	n/a	RECOG_TARGET	1946056	n/a	LTP108	ltpFR	1	2	1	SQUID	1361	1	1	n/a	n/a	n/a	n/a	n/a
3893.318	n/a	RECOG_RESP	1946659	n/a	LTP108	ltpFR	1	2	1	SQUID	1361	n/a	1	n/a	n/a	n/a	n/a	n/a
3894.4	n/a	RECOG_CONF	1947200	n/a	LTP108	ltpFR	1	2	1	SQUID	1361	1	1	n/a	n/a	n/a	n/a	n/a
3895.95	n/a	RECOG_TARGET	1947975	n/a	LTP108	ltpFR	1	2	0	PILLOW	1069	5	1	n/a	n/a	n/a	n/a	n/a
3896.656	n/a	RECOG_RESP	1948328	n/a	LTP108	ltpFR	1	2	0	PILLOW	1069	n/a	1	n/a	n/a	n/a	n/a	n/a
3897.652	n/a	RECOG_CONF	1948826	n/a	LTP108	ltpFR	1	2	0	PILLOW	1069	5	1	n/a	n/a	n/a	n/a	n/a
3899.388	n/a	RECOG_TARGET	1949694	n/a	LTP108	ltpFR	1	2	0	SHORE	1291	5	1	n/a	n/a	n/a	n/a	n/a
3900.606	n/a	RECOG_RESP	1950303	n/a	LTP108	ltpFR	1	2	0	SHORE	1291	n/a	1	n/a	n/a	n/a	n/a	n/a
3901.684	n/a	RECOG_CONF	1950842	n/a	LTP108	ltpFR	1	2	0	SHORE	1291	5	1	n/a	n/a	n/a	n/a	n/a
3903.184	n/a	RECOG_LURE	1951592	n/a	LTP108	ltpFR	1	2	n/a	PRUNE	1134	5	n/a	n/a	n/a	n/a	n/a	n/a
3904.024	n/a	RECOG_RESP	1952012	n/a	LTP108	ltpFR	1	2	n/a	PRUNE	1134	n/a	n/a	n/a	n/a	n/a	n/a	n/a
3905.006	n/a	RECOG_CONF	1952503	n/a	LTP108	ltpFR	1	2	n/a	PRUNE	1134	5	n/a	n/a	n/a	n/a	n/a	n/a
3906.52	n/a	RECOG_TARGET	1953260	n/a	LTP108	ltpFR	1	2	1	BEE	112	4	1	n/a	n/a	n/a	n/a	n/a
3907.57	n/a	RECOG_RESP	1953785	n/a	LTP108	ltpFR	1	2	1	BEE	112	n/a	1	n/a	n/a	n/a	n/a	n/a
3908.788	n/a	RECOG_CONF	1954394	n/a	LTP108	ltpFR	1	2	1	BEE	112	4	1	n/a	n/a	n/a	n/a	n/a
3910.35	n/a	RECOG_LURE	1955175	n/a	LTP108	ltpFR	1	2	n/a	SHELTER	1282	3	n/a	n/a	n/a	n/a	n/a	n/a
3911.052	n/a	RECOG_RESP	1955526	n/a	LTP108	ltpFR	1	2	n/a	SHELTER	1282	n/a	n/a	n/a	n/a	n/a	n/a	n/a
3912.16	n/a	RECOG_CONF	1956080	n/a	LTP108	ltpFR	1	2	n/a	SHELTER	1282	3	n/a	n/a	n/a	n/a	n/a	n/a
3913.662	n/a	RECOG_TARGET	1956831	n/a	LTP108	ltpFR	1	2	1	WAITRESS	1581	5	1	n/a	n/a	n/a	n/a	n/a
3914.714	n/a	RECOG_RESP	1957357	n/a	LTP108	ltpFR	1	2	1	WAITRESS	1581	n/a	1	n/a	n/a	n/a	n/a	n/a
3915.722	n/a	RECOG_CONF	1957861	n/a	LTP108	ltpFR	1	2	1	WAITRESS	1581	5	1	n/a	n/a	n/a	n/a	n/a
3917.184	n/a	RECOG_LURE	1958592	n/a	LTP108	ltpFR	1	2	n/a	GENERAL	630	4	n/a	n/a	n/a	n/a	n/a	n/a
3918.266	n/a	RECOG_RESP	1959133	n/a	LTP108	ltpFR	1	2	n/a	GENERAL	630	n/a	n/a	n/a	n/a	n/a	n/a	n/a
3919.324	n/a	RECOG_CONF	1959662	n/a	LTP108	ltpFR	1	2	n/a	GENERAL	630	4	n/a	n/a	n/a	n/a	n/a	n/a
3920.756	n/a	RECOG_TARGET	1960378	n/a	LTP108	ltpFR	1	2	-1	BRAKE	166	2	-1	n/a	n/a	n/a	n/a	n/a
3921.898	n/a	RECOG_RESP	1960949	n/a	LTP108	ltpFR	1	2	-1	BRAKE	166	n/a	-1	n/a	n/a	n/a	n/a	n/a
3922.996	n/a	RECOG_CONF	1961498	n/a	LTP108	ltpFR	1	2	-1	BRAKE	166	2	-1	n/a	n/a	n/a	n/a	n/a
3924.428	n/a	RECOG_TARGET	1962214	n/a	LTP108	ltpFR	1	2	1	LIST	830	2	0	n/a	n/a	n/a	n/a	n/a
3926.044	n/a	RECOG_RESP	1963022	n/a	LTP108	ltpFR	1	2	1	LIST	830	n/a	0	n/a	n/a	n/a	n/a	n/a
3927.196	n/a	RECOG_CONF	1963598	n/a	LTP108	ltpFR	1	2	1	LIST	830	2	0	n/a	n/a	n/a	n/a	n/a
3928.73	n/a	RECOG_LURE	1964365	n/a	LTP108	ltpFR	1	2	n/a	ESSAY	540	5	n/a	n/a	n/a	n/a	n/a	n/a
3929.72	n/a	RECOG_RESP	1964860	n/a	LTP108	ltpFR	1	2	n/a	ESSAY	540	n/a	n/a	n/a	n/a	n/a	n/a	n/a
3930.768	n/a	RECOG_CONF	1965384	n/a	LTP108	ltpFR	1	2	n/a	ESSAY	540	5	n/a	n/a	n/a	n/a	n/a	n/a
3932.158	n/a	RECOG_LURE	1966079	n/a	LTP108	ltpFR	1	2	n/a	BULL	193	5	n/a	n/a	n/a	n/a	n/a	n/a
3933.134	n/a	RECOG_RESP	1966567	n/a	LTP108	ltpFR	1	2	n/a	BULL	193	n/a	n/a	n/a	n/a	n/a	n/a	n/a
3934.022	n/a	RECOG_CONF	1967011	n/a	LTP108	ltpFR	1	2	n/a	BULL	193	5	n/a	n/a	n/a	n/a	n/a	n/a
3935.564	n/a	RECOG_LURE	1967782	n/a	LTP108	ltpFR	1	2	n/a	ENGINEER	536	2	n/a	n/a	n/a	n/a	n/a	n/a
3936.89	n/a	RECOG_RESP	1968445	n/a	LTP108	ltpFR	1	2	n/a	ENGINEER	536	n/a	n/a	n/a	n/a	n/a	n/a	n/a
3937.952	n/a	RECOG_CONF	1968976	n/a	LTP108	ltpFR	1	2	n/a	ENGINEER	536	2	n/a	n/a	n/a	n/a	n/a	n/a
3942.996	n/a	REC_START	1971498	n/a	LTP108	ltpFR	1	3	n/a	n/a	n/a	n/a	n/a	n/a	n/a	n/a	n/a	n/a
3943.022	n/a	RECOG_TARGET	1971511	n/a	LTP108	ltpFR	1	3	0	HANGER	687	5	0	n/a	n/a	n/a	n/a	n/a
3943.954	n/a	RECOG_RESP	1971977	n/a	LTP108	ltpFR	1	3	0	HANGER	687	n/a	0	n/a	n/a	n/a	n/a	n/a
3945.036	n/a	RECOG_CONF	1972518	n/a	LTP108	ltpFR	1	3	0	HANGER	687	5	0	n/a	n/a	n/a	n/a	n/a
3946.484	n/a	RECOG_LURE	1973242	n/a	LTP108	ltpFR	1	3	n/a	COUSIN	392	5	n/a	n/a	n/a	n/a	n/a	n/a
3947.362	n/a	RECOG_RESP	1973681	n/a	LTP108	ltpFR	1	3	n/a	COUSIN	392	n/a	n/a	n/a	n/a	n/a	n/a	n/a
3948.29	n/a	RECOG_CONF	1974145	n/a	LTP108	ltpFR	1	3	n/a	COUSIN	392	5	n/a	n/a	n/a	n/a	n/a	n/a
3949.846	n/a	RECOG_TARGET	1974923	n/a	LTP108	ltpFR	1	3	1	CANOE	233	5	0	n/a	n/a	n/a	n/a	n/a
3950.934	n/a	RECOG_RESP	1975467	n/a	LTP108	ltpFR	1	3	1	CANOE	233	n/a	0	n/a	n/a	n/a	n/a	n/a
3951.892	n/a	RECOG_CONF	1975946	n/a	LTP108	ltpFR	1	3	1	CANOE	233	5	0	n/a	n/a	n/a	n/a	n/a
3953.394	n/a	RECOG_LURE	1976697	n/a	LTP108	ltpFR	1	3	n/a	CLIFF	322	3	n/a	n/a	n/a	n/a	n/a	n/a
3954.19	n/a	RECOG_RESP	1977095	n/a	LTP108	ltpFR	1	3	n/a	CLIFF	322	n/a	n/a	n/a	n/a	n/a	n/a	n/a
3955.174	n/a	RECOG_CONF	1977587	n/a	LTP108	ltpFR	1	3	n/a	CLIFF	322	3	n/a	n/a	n/a	n/a	n/a	n/a
3956.58	n/a	RECOG_LURE	1978290	n/a	LTP108	ltpFR	1	3	n/a	ANGEL	22	1	n/a	n/a	n/a	n/a	n/a	n/a
3957.942	n/a	RECOG_RESP	1978971	n/a	LTP108	ltpFR	1	3	n/a	ANGEL	22	n/a	n/a	n/a	n/a	n/a	n/a	n/a
3958.984	n/a	RECOG_CONF	1979492	n/a	LTP108	ltpFR	1	3	n/a	ANGEL	22	1	n/a	n/a	n/a	n/a	n/a	n/a
3960.526	n/a	RECOG_TARGET	1980263	n/a	LTP108	ltpFR	1	3	0	SOAP	1337	5	0	n/a	n/a	n/a	n/a	n/a
3961.39	n/a	RECOG_RESP	1980695	n/a	LTP108	ltpFR	1	3	0	SOAP	1337	n/a	0	n/a	n/a	n/a	n/a	n/a
3962.536	n/a	RECOG_CONF	1981268	n/a	LTP108	ltpFR	1	3	0	SOAP	1337	5	0	n/a	n/a	n/a	n/a	n/a
3964.114	n/a	RECOG_LURE	1982057	n/a	LTP108	ltpFR	1	3	n/a	BRAN	167	5	n/a	n/a	n/a	n/a	n/a	n/a
3965.156	n/a	RECOG_RESP	1982578	n/a	LTP108	ltpFR	1	3	n/a	BRAN	167	n/a	n/a	n/a	n/a	n/a	n/a	n/a
3966.218	n/a	RECOG_CONF	1983109	n/a	LTP108	ltpFR	1	3	n/a	BRAN	167	5	n/a	n/a	n/a	n/a	n/a	n/a
3967.7	n/a	RECOG_LURE	1983850	n/a	LTP108	ltpFR	1	3	n/a	DRYER	503	3	n/a	n/a	n/a	n/a	n/a	n/a
3968.624	n/a	RECOG_RESP	1984312	n/a	LTP108	ltpFR	1	3	n/a	DRYER	503	n/a	n/a	n/a	n/a	n/a	n/a	n/a
3969.77	n/a	RECOG_CONF	1984885	n/a	LTP108	ltpFR	1	3	n/a	DRYER	503	3	n/a	n/a	n/a	n/a	n/a	n/a
3971.196	n/a	RECOG_TARGET	1985598	n/a	LTP108	ltpFR	1	3	-1	COLLAR	345	5	-1	n/a	n/a	n/a	n/a	n/a
3972.06	n/a	RECOG_RESP	1986030	n/a	LTP108	ltpFR	1	3	-1	COLLAR	345	n/a	-1	n/a	n/a	n/a	n/a	n/a
3973.132	n/a	RECOG_CONF	1986566	n/a	LTP108	ltpFR	1	3	-1	COLLAR	345	5	-1	n/a	n/a	n/a	n/a	n/a
3974.602	n/a	RECOG_TARGET	1987301	n/a	LTP108	ltpFR	1	3	0	HAM	678	1	0	n/a	n/a	n/a	n/a	n/a
3975.972	n/a	RECOG_RESP	1987986	n/a	LTP108	ltpFR	1	3	0	HAM	678	n/a	0	n/a	n/a	n/a	n/a	n/a
3976.944	n/a	RECOG_CONF	1988472	n/a	LTP108	ltpFR	1	3	0	HAM	678	1	0	n/a	n/a	n/a	n/a	n/a
3978.39	n/a	RECOG_TARGET	1989195	n/a	LTP108	ltpFR	1	3	-1	POET	1095	5	-1	n/a	n/a	n/a	n/a	n/a
3979.344	n/a	RECOG_RESP	1989672	n/a	LTP108	ltpFR	1	3	-1	POET	1095	n/a	-1	n/a	n/a	n/a	n/a	n/a
3980.306	n/a	RECOG_CONF	1990153	n/a	LTP108	ltpFR	1	3	-1	POET	1095	5	-1	n/a	n/a	n/a	n/a	n/a
3981.968	n/a	RECOG_TARGET	1990984	n/a	LTP108	ltpFR	1	3	-1	TAPE	1433	2	-1	n/a	n/a	n/a	n/a	n/a
3982.83	n/a	RECOG_RESP	1991415	n/a	LTP108	ltpFR	1	3	-1	TAPE	1433	n/a	-1	n/a	n/a	n/a	n/a	n/a
3983.858	n/a	RECOG_CONF	1991929	n/a	LTP108	ltpFR	1	3	-1	TAPE	1433	2	-1	n/a	n/a	n/a	n/a	n/a
3985.398	n/a	RECOG_TARGET	1992699	n/a	LTP108	ltpFR	1	3	0	AFRICA	9	5	1	n/a	n/a	n/a	n/a	n/a
3986.936	n/a	RECOG_RESP	1993468	n/a	LTP108	ltpFR	1	3	0	AFRICA	9	n/a	1	n/a	n/a	n/a	n/a	n/a
3988.018	n/a	RECOG_CONF	1994009	n/a	LTP108	ltpFR	1	3	0	AFRICA	9	5	1	n/a	n/a	n/a	n/a	n/a
3989.518	n/a	RECOG_LURE	1994759	n/a	LTP108	ltpFR	1	3	n/a	KETCHUP	771	5	n/a	n/a	n/a	n/a	n/a	n/a
3990.238	n/a	RECOG_RESP	1995119	n/a	LTP108	ltpFR	1	3	n/a	KETCHUP	771	n/a	n/a	n/a	n/a	n/a	n/a	n/a
3991.262	n/a	RECOG_CONF	1995631	n/a	LTP108	ltpFR	1	3	n/a	KETCHUP	771	5	n/a	n/a	n/a	n/a	n/a	n/a
3992.68	n/a	RECOG_TARGET	1996340	n/a	LTP108	ltpFR	1	3	0	MISTER	901	4	1	n/a	n/a	n/a	n/a	n/a
3993.662	n/a	RECOG_RESP	1996831	n/a	LTP108	ltpFR	1	3	0	MISTER	901	n/a	1	n/a	n/a	n/a	n/a	n/a
3994.794	n/a	RECOG_CONF	1997397	n/a	LTP108	ltpFR	1	3	0	MISTER	901	4	1	n/a	n/a	n/a	n/a	n/a
3996.226	n/a	RECOG_TARGET	1998113	n/a	LTP108	ltpFR	1	3	0	TURKEY	1520	2	1	n/a	n/a	n/a	n/a	n/a
3997.392	n/a	RECOG_RESP	1998696	n/a	LTP108	ltpFR	1	3	0	TURKEY	1520	n/a	1	n/a	n/a	n/a	n/a	n/a
3998.506	n/a	RECOG_CONF	1999253	n/a	LTP108	ltpFR	1	3	0	TURKEY	1520	2	1	n/a	n/a	n/a	n/a	n/a
4000.006	n/a	RECOG_LURE	2000003	n/a	LTP108	ltpFR	1	3	n/a	BUN	197	3	n/a	n/a	n/a	n/a	n/a	n/a
4001.13	n/a	RECOG_RESP	2000565	n/a	LTP108	ltpFR	1	3	n/a	BUN	197	n/a	n/a	n/a	n/a	n/a	n/a	n/a
4002.248	n/a	RECOG_CONF	2001124	n/a	LTP108	ltpFR	1	3	n/a	BUN	197	3	n/a	n/a	n/a	n/a	n/a	n/a
4003.734	n/a	RECOG_TARGET	2001867	n/a	LTP108	ltpFR	1	3	-1	SCIENTIST	1249	5	-1	n/a	n/a	n/a	n/a	n/a
4004.652	n/a	RECOG_RESP	2002326	n/a	LTP108	ltpFR	1	3	-1	SCIENTIST	1249	n/a	-1	n/a	n/a	n/a	n/a	n/a
4005.72	n/a	RECOG_CONF	2002860	n/a	LTP108	ltpFR	1	3	-1	SCIENTIST	1249	5	-1	n/a	n/a	n/a	n/a	n/a
4007.14	n/a	RECOG_TARGET	2003570	n/a	LTP108	ltpFR	1	3	0	FIELD	562	5	1	n/a	n/a	n/a	n/a	n/a
4008.094	n/a	RECOG_RESP	2004047	n/a	LTP108	ltpFR	1	3	0	FIELD	562	n/a	1	n/a	n/a	n/a	n/a	n/a
4009.062	n/a	RECOG_CONF	2004531	n/a	LTP108	ltpFR	1	3	0	FIELD	562	5	1	n/a	n/a	n/a	n/a	n/a
4010.444	n/a	RECOG_LURE	2005222	n/a	LTP108	ltpFR	1	3	n/a	CAPTIVE	240	4	n/a	n/a	n/a	n/a	n/a	n/a
4011.402	n/a	RECOG_RESP	2005701	n/a	LTP108	ltpFR	1	3	n/a	CAPTIVE	240	n/a	n/a	n/a	n/a	n/a	n/a	n/a
4012.454	n/a	RECOG_CONF	2006227	n/a	LTP108	ltpFR	1	3	n/a	CAPTIVE	240	4	n/a	n/a	n/a	n/a	n/a	n/a
4015.986	n/a	REC_START	2007993	n/a	LTP108	ltpFR	1	4	n/a	n/a	n/a	n/a	n/a	n/a	n/a	n/a	n/a	n/a
4016.02	n/a	RECOG_LURE	2008010	n/a	LTP108	ltpFR	1	4	n/a	ADOLESCENT	7	5	n/a	n/a	n/a	n/a	n/a	n/a
4016.874	n/a	RECOG_RESP	2008437	n/a	LTP108	ltpFR	1	4	n/a	ADOLESCENT	7	n/a	n/a	n/a	n/a	n/a	n/a	n/a
4017.818	n/a	RECOG_CONF	2008909	n/a	LTP108	ltpFR	1	4	n/a	ADOLESCENT	7	5	n/a	n/a	n/a	n/a	n/a	n/a
4019.226	n/a	RECOG_TARGET	2009613	n/a	LTP108	ltpFR	1	4	0	EARTH	515	5	1	n/a	n/a	n/a	n/a	n/a
4020.008	n/a	RECOG_RESP	2010004	n/a	LTP108	ltpFR	1	4	0	EARTH	515	n/a	1	n/a	n/a	n/a	n/a	n/a
4020.98	n/a	RECOG_CONF	2010490	n/a	LTP108	ltpFR	1	4	0	EARTH	515	5	1	n/a	n/a	n/a	n/a	n/a
4022.314	n/a	RECOG_TARGET	2011157	n/a	LTP108	ltpFR	1	4	1	FOLDER	588	5	0	n/a	n/a	n/a	n/a	n/a
4023.13	n/a	RECOG_RESP	2011565	n/a	LTP108	ltpFR	1	4	1	FOLDER	588	n/a	0	n/a	n/a	n/a	n/a	n/a
4024.112	n/a	RECOG_CONF	2012056	n/a	LTP108	ltpFR	1	4	1	FOLDER	588	5	0	n/a	n/a	n/a	n/a	n/a
4025.584	n/a	RECOG_LURE	2012792	n/a	LTP108	ltpFR	1	4	n/a	ROOST	1208	2	n/a	n/a	n/a	n/a	n/a	n/a
4027.35	n/a	RECOG_RESP	2013675	n/a	LTP108	ltpFR	1	4	n/a	ROOST	1208	n/a	n/a	n/a	n/a	n/a	n/a	n/a
4028.462	n/a	RECOG_CONF	2014231	n/a	LTP108	ltpFR	1	4	n/a	ROOST	1208	2	n/a	n/a	n/a	n/a	n/a	n/a
4029.996	n/a	RECOG_TARGET	2014998	n/a	LTP108	ltpFR	1	4	1	NOSE	957	5	0	n/a	n/a	n/a	n/a	n/a
4030.788	n/a	RECOG_RESP	2015394	n/a	LTP108	ltpFR	1	4	1	NOSE	957	n/a	0	n/a	n/a	n/a	n/a	n/a
4031.876	n/a	RECOG_CONF	2015938	n/a	LTP108	ltpFR	1	4	1	NOSE	957	5	0	n/a	n/a	n/a	n/a	n/a
4033.426	n/a	RECOG_TARGET	2016713	n/a	LTP108	ltpFR	1	4	-1	QUILT	1151	3	-1	n/a	n/a	n/a	n/a	n/a
4034.116	n/a	RECOG_RESP	2017058	n/a	LTP108	ltpFR	1	4	-1	QUILT	1151	n/a	-1	n/a	n/a	n/a	n/a	n/a
4035.298	n/a	RECOG_CONF	2017649	n/a	LTP108	ltpFR	1	4	-1	QUILT	1151	3	-1	n/a	n/a	n/a	n/a	n/a
4036.78	n/a	RECOG_TARGET	2018390	n/a	LTP108	ltpFR	1	4	1	PUBLICATION	1136	5	0	n/a	n/a	n/a	n/a	n/a
4038.47	n/a	RECOG_RESP	2019235	n/a	LTP108	ltpFR	1	4	1	PUBLICATION	1136	n/a	0	n/a	n/a	n/a	n/a	n/a
4039.558	n/a	RECOG_CONF	2019779	n/a	LTP108	ltpFR	1	4	1	PUBLICATION	1136	5	0	n/a	n/a	n/a	n/a	n/a
4041.074	n/a	RECOG_LURE	2020537	n/a	LTP108	ltpFR	1	4	n/a	LEMON	810	4	n/a	n/a	n/a	n/a	n/a	n/a
4041.912	n/a	RECOG_RESP	2020956	n/a	LTP108	ltpFR	1	4	n/a	LEMON	810	n/a	n/a	n/a	n/a	n/a	n/a	n/a
4042.97	n/a	RECOG_CONF	2021485	n/a	LTP108	ltpFR	1	4	n/a	LEMON	810	4	n/a	n/a	n/a	n/a	n/a	n/a
4044.38	n/a	RECOG_TARGET	2022190	n/a	LTP108	ltpFR	1	4	0	LETTUCE	814	5	0	n/a	n/a	n/a	n/a	n/a
4045.26	n/a	RECOG_RESP	2022630	n/a	LTP108	ltpFR	1	4	0	LETTUCE	814	n/a	0	n/a	n/a	n/a	n/a	n/a
4046.182	n/a	RECOG_CONF	2023091	n/a	LTP108	ltpFR	1	4	0	LETTUCE	814	5	0	n/a	n/a	n/a	n/a	n/a
4047.634	n/a	RECOG_TARGET	2023817	n/a	LTP108	ltpFR	1	4	0	SEASHORE	1263	5	1	n/a	n/a	n/a	n/a	n/a
4049.052	n/a	RECOG_RESP	2024526	n/a	LTP108	ltpFR	1	4	0	SEASHORE	1263	n/a	1	n/a	n/a	n/a	n/a	n/a
4050.214	n/a	RECOG_CONF	2025107	n/a	LTP108	ltpFR	1	4	0	SEASHORE	1263	5	1	n/a	n/a	n/a	n/a	n/a
4051.73	n/a	RECOG_TARGET	2025865	n/a	LTP108	ltpFR	1	4	-1	ROOM	1206	4	-1	n/a	n/a	n/a	n/a	n/a
4052.688	n/a	RECOG_RESP	2026344	n/a	LTP108	ltpFR	1	4	-1	ROOM	1206	n/a	-1	n/a	n/a	n/a	n/a	n/a
4053.826	n/a	RECOG_CONF	2026913	n/a	LTP108	ltpFR	1	4	-1	ROOM	1206	4	-1	n/a	n/a	n/a	n/a	n/a
4055.242	n/a	RECOG_TARGET	2027621	n/a	LTP108	ltpFR	1	4	0	BAKER	71	5	0	n/a	n/a	n/a	n/a	n/a
4056.34	n/a	RECOG_RESP	2028170	n/a	LTP108	ltpFR	1	4	0	BAKER	71	n/a	0	n/a	n/a	n/a	n/a	n/a
4057.298	n/a	RECOG_CONF	2028649	n/a	LTP108	ltpFR	1	4	0	BAKER	71	5	0	n/a	n/a	n/a	n/a	n/a
4058.838	n/a	RECOG_LURE	2029419	n/a	LTP108	ltpFR	1	4	n/a	BARN	89	3	n/a	n/a	n/a	n/a	n/a	n/a
4059.732	n/a	RECOG_RESP	2029866	n/a	LTP108	ltpFR	1	4	n/a	BARN	89	n/a	n/a	n/a	n/a	n/a	n/a	n/a
4060.68	n/a	RECOG_CONF	2030340	n/a	LTP108	ltpFR	1	4	n/a	BARN	89	3	n/a	n/a	n/a	n/a	n/a	n/a
4062.076	n/a	RECOG_LURE	2031038	n/a	LTP108	ltpFR	1	4	n/a	FRIES	607	5	n/a	n/a	n/a	n/a	n/a	n/a
4062.934	n/a	RECOG_RESP	2031467	n/a	LTP108	ltpFR	1	4	n/a	FRIES	607	n/a	n/a	n/a	n/a	n/a	n/a	n/a
4063.972	n/a	RECOG_CONF	2031986	n/a	LTP108	ltpFR	1	4	n/a	FRIES	607	5	n/a	n/a	n/a	n/a	n/a	n/a
4065.43	n/a	RECOG_TARGET	2032715	n/a	LTP108	ltpFR	1	4	1	SLIME	1327	5	0	n/a	n/a	n/a	n/a	n/a
4066.332	n/a	RECOG_RESP	2033166	n/a	LTP108	ltpFR	1	4	1	SLIME	1327	n/a	0	n/a	n/a	n/a	n/a	n/a
4067.314	n/a	RECOG_CONF	2033657	n/a	LTP108	ltpFR	1	4	1	SLIME	1327	5	0	n/a	n/a	n/a	n/a	n/a
4068.826	n/a	RECOG_TARGET	2034413	n/a	LTP108	ltpFR	1	4	-1	BUTTON	207	5	-1	n/a	n/a	n/a	n/a	n/a
4069.65	n/a	RECOG_RESP	2034825	n/a	LTP108	ltpFR	1	4	-1	BUTTON	207	n/a	-1	n/a	n/a	n/a	n/a	n/a
4070.668	n/a	RECOG_CONF	2035334	n/a	LTP108	ltpFR	1	4	-1	BUTTON	207	5	-1	n/a	n/a	n/a	n/a	n/a
4072.156	n/a	RECOG_TARGET	2036078	n/a	LTP108	ltpFR	1	4	0	ORNAMENT	985	2	0	n/a	n/a	n/a	n/a	n/a
4074.154	n/a	RECOG_RESP	2037077	n/a	LTP108	ltpFR	1	4	0	ORNAMENT	985	n/a	0	n/a	n/a	n/a	n/a	n/a
4075.276	n/a	RECOG_CONF	2037638	n/a	LTP108	ltpFR	1	4	0	ORNAMENT	985	2	0	n/a	n/a	n/a	n/a	n/a
4076.792	n/a	RECOG_LURE	2038396	n/a	LTP108	ltpFR	1	4	n/a	DIPLOMA	470	5	n/a	n/a	n/a	n/a	n/a	n/a
4077.682	n/a	RECOG_RESP	2038841	n/a	LTP108	ltpFR	1	4	n/a	DIPLOMA	470	n/a	n/a	n/a	n/a	n/a	n/a	n/a
4078.718	n/a	RECOG_CONF	2039359	n/a	LTP108	ltpFR	1	4	n/a	DIPLOMA	470	5	n/a	n/a	n/a	n/a	n/a	n/a
4080.046	n/a	RECOG_TARGET	2040023	n/a	LTP108	ltpFR	1	4	0	MECHANIC	884	4	1	n/a	n/a	n/a	n/a	n/a
4081.248	n/a	RECOG_RESP	2040624	n/a	LTP108	ltpFR	1	4	0	MECHANIC	884	n/a	1	n/a	n/a	n/a	n/a	n/a
4082.392	n/a	RECOG_CONF	2041196	n/a	LTP108	ltpFR	1	4	0	MECHANIC	884	4	1	n/a	n/a	n/a	n/a	n/a
4083.884	n/a	RECOG_LURE	2041942	n/a	LTP108	ltpFR	1	4	n/a	ALMOND	18	5	n/a	n/a	n/a	n/a	n/a	n/a
4084.666	n/a	RECOG_RESP	2042333	n/a	LTP108	ltpFR	1	4	n/a	ALMOND	18	n/a	n/a	n/a	n/a	n/a	n/a	n/a
4085.704	n/a	RECOG_CONF	2042852	n/a	LTP108	ltpFR	1	4	n/a	ALMOND	18	5	n/a	n/a	n/a	n/a	n/a	n/a
4097.16	n/a	REC_START	2048580	n/a	LTP108	ltpFR	1	5	n/a	n/a	n/a	n/a	n/a	n/a	n/a	n/a	n/a	n/a
4097.194	n/a	RECOG_TARGET	2048597	n/a	LTP108	ltpFR	1	5	-1	PLAYGROUND	1087	5	-1	n/a	n/a	n/a	n/a	n/a
4098.034	n/a	RECOG_RESP	2049017	n/a	LTP108	ltpFR	1	5	-1	PLAYGROUND	1087	n/a	-1	n/a	n/a	n/a	n/a	n/a
4099.052	n/a	RECOG_CONF	2049526	n/a	LTP108	ltpFR	1	5	-1	PLAYGROUND	1087	5	-1	n/a	n/a	n/a	n/a	n/a
4100.524	n/a	RECOG_TARGET	2050262	n/a	LTP108	ltpFR	1	5	1	BISON	131	5	1	n/a	n/a	n/a	n/a	n/a
4101.546	n/a	RECOG_RESP	2050773	n/a	LTP108	ltpFR	1	5	1	BISON	131	n/a	1	n/a	n/a	n/a	n/a	n/a
4102.622	n/a	RECOG_CONF	2051311	n/a	LTP108	ltpFR	1	5	1	BISON	131	5	1	n/a	n/a	n/a	n/a	n/a
4104.078	n/a	RECOG_LURE	2052039	n/a	LTP108	ltpFR	1	5	n/a	CAR	241	1	n/a	n/a	n/a	n/a	n/a	n/a
4105.626	n/a	RECOG_RESP	2052813	n/a	LTP108	ltpFR	1	5	n/a	CAR	241	n/a	n/a	n/a	n/a	n/a	n/a	n/a
4106.684	n/a	RECOG_CONF	2053342	n/a	LTP108	ltpFR	1	5	n/a	CAR	241	1	n/a	n/a	n/a	n/a	n/a	n/a
4108.132	n/a	RECOG_TARGET	2054066	n/a	LTP108	ltpFR	1	5	1	CONTRACTOR	369	5	1	n/a	n/a	n/a	n/a	n/a
4109.048	n/a	RECOG_RESP	2054524	n/a	LTP108	ltpFR	1	5	1	CONTRACTOR	369	n/a	1	n/a	n/a	n/a	n/a	n/a
4109.966	n/a	RECOG_CONF	2054983	n/a	LTP108	ltpFR	1	5	1	CONTRACTOR	369	5	1	n/a	n/a	n/a	n/a	n/a
4111.42	n/a	RECOG_TARGET	2055710	n/a	LTP108	ltpFR	1	5	0	KNOT	788	5	0	n/a	n/a	n/a	n/a	n/a
4112.3	n/a	RECOG_RESP	2056150	n/a	LTP108	ltpFR	1	5	0	KNOT	788	n/a	0	n/a	n/a	n/a	n/a	n/a
4113.288	n/a	RECOG_CONF	2056644	n/a	LTP108	ltpFR	1	5	0	KNOT	788	5	0	n/a	n/a	n/a	n/a	n/a
4114.824	n/a	RECOG_TARGET	2057412	n/a	LTP108	ltpFR	1	5	0	COLESLAW	344	5	0	n/a	n/a	n/a	n/a	n/a
4115.684	n/a	RECOG_RESP	2057842	n/a	LTP108	ltpFR	1	5	0	COLESLAW	344	n/a	0	n/a	n/a	n/a	n/a	n/a
4116.8	n/a	RECOG_CONF	2058400	n/a	LTP108	ltpFR	1	5	0	COLESLAW	344	5	0	n/a	n/a	n/a	n/a	n/a
4118.362	n/a	RECOG_TARGET	2059181	n/a	LTP108	ltpFR	1	5	1	DIME	466	5	0	n/a	n/a	n/a	n/a	n/a
4119.09	n/a	RECOG_RESP	2059545	n/a	LTP108	ltpFR	1	5	1	DIME	466	n/a	0	n/a	n/a	n/a	n/a	n/a
4120.202	n/a	RECOG_CONF	2060101	n/a	LTP108	ltpFR	1	5	1	DIME	466	5	0	n/a	n/a	n/a	n/a	n/a
4121.69	n/a	RECOG_LURE	2060845	n/a	LTP108	ltpFR	1	5	n/a	PEN	1041	2	n/a	n/a	n/a	n/a	n/a	n/a
4122.568	n/a	RECOG_RESP	2061284	n/a	LTP108	ltpFR	1	5	n/a	PEN	1041	n/a	n/a	n/a	n/a	n/a	n/a	n/a
4123.566	n/a	RECOG_CONF	2061783	n/a	LTP108	ltpFR	1	5	n/a	PEN	1041	2	n/a	n/a	n/a	n/a	n/a	n/a
4124.97	n/a	RECOG_TARGET	2062485	n/a	LTP108	ltpFR	1	5	0	BAND	78	2	1	n/a	n/a	n/a	n/a	n/a
4125.91	n/a	RECOG_RESP	2062955	n/a	LTP108	ltpFR	1	5	0	BAND	78	n/a	1	n/a	n/a	n/a	n/a	n/a
4126.918	n/a	RECOG_CONF	2063459	n/a	LTP108	ltpFR	1	5	0	BAND	78	2	1	n/a	n/a	n/a	n/a	n/a
4128.408	n/a	RECOG_TARGET	2064204	n/a	LTP108	ltpFR	1	5	0	RUNNER	1218	5	1	n/a	n/a	n/a	n/a	n/a
4129.132	n/a	RECOG_RESP	2064566	n/a	LTP108	ltpFR	1	5	0	RUNNER	1218	n/a	1	n/a	n/a	n/a	n/a	n/a
4130.11	n/a	RECOG_CONF	2065055	n/a	LTP108	ltpFR	1	5	0	RUNNER	1218	5	1	n/a	n/a	n/a	n/a	n/a
4131.58	n/a	RECOG_TARGET	2065790	n/a	LTP108	ltpFR	1	5	-1	BASSINET	97	4	-1	n/a	n/a	n/a	n/a	n/a
4132.87	n/a	RECOG_RESP	2066435	n/a	LTP108	ltpFR	1	5	-1	BASSINET	97	n/a	-1	n/a	n/a	n/a	n/a	n/a
4133.992	n/a	RECOG_CONF	2066996	n/a	LTP108	ltpFR	1	5	-1	BASSINET	97	4	-1	n/a	n/a	n/a	n/a	n/a
4135.474	n/a	RECOG_TARGET	2067737	n/a	LTP108	ltpFR	1	5	0	ROPE	1211	5	0	n/a	n/a	n/a	n/a	n/a
4136.236	n/a	RECOG_RESP	2068118	n/a	LTP108	ltpFR	1	5	0	ROPE	1211	n/a	0	n/a	n/a	n/a	n/a	n/a
4137.194	n/a	RECOG_CONF	2068597	n/a	LTP108	ltpFR	1	5	0	ROPE	1211	5	0	n/a	n/a	n/a	n/a	n/a
4138.638	n/a	RECOG_TARGET	2069319	n/a	LTP108	ltpFR	1	5	1	JAW	751	3	0	n/a	n/a	n/a	n/a	n/a
4139.694	n/a	RECOG_RESP	2069847	n/a	LTP108	ltpFR	1	5	1	JAW	751	n/a	0	n/a	n/a	n/a	n/a	n/a
4140.716	n/a	RECOG_CONF	2070358	n/a	LTP108	ltpFR	1	5	1	JAW	751	3	0	n/a	n/a	n/a	n/a	n/a
4142.166	n/a	RECOG_TARGET	2071083	n/a	LTP108	ltpFR	1	5	0	LIEUTENANT	818	5	1	n/a	n/a	n/a	n/a	n/a
4143.146	n/a	RECOG_RESP	2071573	n/a	LTP108	ltpFR	1	5	0	LIEUTENANT	818	n/a	1	n/a	n/a	n/a	n/a	n/a
4144.178	n/a	RECOG_CONF	2072089	n/a	LTP108	ltpFR	1	5	0	LIEUTENANT	818	5	1	n/a	n/a	n/a	n/a	n/a
4145.638	n/a	RECOG_TARGET	2072819	n/a	LTP108	ltpFR	1	5	-1	GRAVEL	659	5	-1	n/a	n/a	n/a	n/a	n/a
4146.718	n/a	RECOG_RESP	2073359	n/a	LTP108	ltpFR	1	5	-1	GRAVEL	659	n/a	-1	n/a	n/a	n/a	n/a	n/a
4147.93	n/a	RECOG_CONF	2073965	n/a	LTP108	ltpFR	1	5	-1	GRAVEL	659	5	-1	n/a	n/a	n/a	n/a	n/a
4149.484	n/a	RECOG_TARGET	2074742	n/a	LTP108	ltpFR	1	5	0	CONDUCTOR	362	3	1	n/a	n/a	n/a	n/a	n/a
4150.234	n/a	RECOG_RESP	2075117	n/a	LTP108	ltpFR	1	5	0	CONDUCTOR	362	n/a	1	n/a	n/a	n/a	n/a	n/a
4151.272	n/a	RECOG_CONF	2075636	n/a	LTP108	ltpFR	1	5	0	CONDUCTOR	362	3	1	n/a	n/a	n/a	n/a	n/a
4152.704	n/a	RECOG_TARGET	2076352	n/a	LTP108	ltpFR	1	5	0	CANYON	235	4	1	n/a	n/a	n/a	n/a	n/a
4153.926	n/a	RECOG_RESP	2076963	n/a	LTP108	ltpFR	1	5	0	CANYON	235	n/a	1	n/a	n/a	n/a	n/a	n/a
4155.014	n/a	RECOG_CONF	2077507	n/a	LTP108	ltpFR	1	5	0	CANYON	235	4	1	n/a	n/a	n/a	n/a	n/a
4156.734	n/a	RECOG_TARGET	2078367	n/a	LTP108	ltpFR	1	5	-1	RASPBERRY	1168	2	-1	n/a	n/a	n/a	n/a	n/a
4157.948	n/a	RECOG_RESP	2078974	n/a	LTP108	ltpFR	1	5	-1	RASPBERRY	1168	n/a	-1	n/a	n/a	n/a	n/a	n/a
4159.124	n/a	RECOG_CONF	2079562	n/a	LTP108	ltpFR	1	5	-1	RASPBERRY	1168	2	-1	n/a	n/a	n/a	n/a	n/a
4160.654	n/a	RECOG_LURE	2080327	n/a	LTP108	ltpFR	1	5	n/a	GLOBE	641	4	n/a	n/a	n/a	n/a	n/a	n/a
4161.828	n/a	RECOG_RESP	2080914	n/a	LTP108	ltpFR	1	5	n/a	GLOBE	641	n/a	n/a	n/a	n/a	n/a	n/a	n/a
4162.986	n/a	RECOG_CONF	2081493	n/a	LTP108	ltpFR	1	5	n/a	GLOBE	641	4	n/a	n/a	n/a	n/a	n/a	n/a
4164.5	n/a	RECOG_TARGET	2082250	n/a	LTP108	ltpFR	1	5	-1	VACUUM	1543	5	-1	n/a	n/a	n/a	n/a	n/a
4165.606	n/a	RECOG_RESP	2082803	n/a	LTP108	ltpFR	1	5	-1	VACUUM	1543	n/a	-1	n/a	n/a	n/a	n/a	n/a
4166.648	n/a	RECOG_CONF	2083324	n/a	LTP108	ltpFR	1	5	-1	VACUUM	1543	5	-1	n/a	n/a	n/a	n/a	n/a
4175.892	n/a	REC_START	2087946	n/a	LTP108	ltpFR	1	6	n/a	n/a	n/a	n/a	n/a	n/a	n/a	n/a	n/a	n/a
4175.92	n/a	RECOG_TARGET	2087960	n/a	LTP108	ltpFR	1	6	-1	SHIP	1286	5	-1	n/a	n/a	n/a	n/a	n/a
4177.068	n/a	RECOG_RESP	2088534	n/a	LTP108	ltpFR	1	6	-1	SHIP	1286	n/a	-1	n/a	n/a	n/a	n/a	n/a
4178.102	n/a	RECOG_CONF	2089051	n/a	LTP108	ltpFR	1	6	-1	SHIP	1286	5	-1	n/a	n/a	n/a	n/a	n/a
4179.658	n/a	RECOG_LURE	2089829	n/a	LTP108	ltpFR	1	6	n/a	HAWK	692	4	n/a	n/a	n/a	n/a	n/a	n/a
4180.48	n/a	RECOG_RESP	2090240	n/a	LTP108	ltpFR	1	6	n/a	HAWK	692	n/a	n/a	n/a	n/a	n/a	n/a	n/a
4181.514	n/a	RECOG_CONF	2090757	n/a	LTP108	ltpFR	1	6	n/a	HAWK	692	4	n/a	n/a	n/a	n/a	n/a	n/a
4182.87	n/a	RECOG_LURE	2091435	n/a	LTP108	ltpFR	1	6	n/a	CALENDAR	221	1	n/a	n/a	n/a	n/a	n/a	n/a
4184.746	n/a	RECOG_RESP	2092373	n/a	LTP108	ltpFR	1	6	n/a	CALENDAR	221	n/a	n/a	n/a	n/a	n/a	n/a	n/a
4185.734	n/a	RECOG_CONF	2092867	n/a	LTP108	ltpFR	1	6	n/a	CALENDAR	221	1	n/a	n/a	n/a	n/a	n/a	n/a
4187.232	n/a	RECOG_LURE	2093616	n/a	LTP108	ltpFR	1	6	n/a	LONDON	843	5	n/a	n/a	n/a	n/a	n/a	n/a
4188.044	n/a	RECOG_RESP	2094022	n/a	LTP108	ltpFR	1	6	n/a	LONDON	843	n/a	n/a	n/a	n/a	n/a	n/a	n/a
4188.946	n/a	RECOG_CONF	2094473	n/a	LTP108	ltpFR	1	6	n/a	LONDON	843	5	n/a	n/a	n/a	n/a	n/a	n/a
4190.404	n/a	RECOG_TARGET	2095202	n/a	LTP108	ltpFR	1	6	1	TRAY	1498	2	0	n/a	n/a	n/a	n/a	n/a
4191.506	n/a	RECOG_RESP	2095753	n/a	LTP108	ltpFR	1	6	1	TRAY	1498	n/a	0	n/a	n/a	n/a	n/a	n/a
4192.538	n/a	RECOG_CONF	2096269	n/a	LTP108	ltpFR	1	6	1	TRAY	1498	2	0	n/a	n/a	n/a	n/a	n/a
4194.058	n/a	RECOG_LURE	2097029	n/a	LTP108	ltpFR	1	6	n/a	FLESH	579	1	n/a	n/a	n/a	n/a	n/a	n/a
4195.062	n/a	RECOG_RESP	2097531	n/a	LTP108	ltpFR	1	6	n/a	FLESH	579	n/a	n/a	n/a	n/a	n/a	n/a	n/a
4196.1	n/a	RECOG_CONF	2098050	n/a	LTP108	ltpFR	1	6	n/a	FLESH	579	1	n/a	n/a	n/a	n/a	n/a	n/a
4197.604	n/a	RECOG_TARGET	2098802	n/a	LTP108	ltpFR	1	6	0	SERVER	1272	4	1	n/a	n/a	n/a	n/a	n/a
4199.078	n/a	RECOG_RESP	2099539	n/a	LTP108	ltpFR	1	6	0	SERVER	1272	n/a	1	n/a	n/a	n/a	n/a	n/a
4200.3	n/a	RECOG_CONF	2100150	n/a	LTP108	ltpFR	1	6	0	SERVER	1272	4	1	n/a	n/a	n/a	n/a	n/a
4201.716	n/a	RECOG_LURE	2100858	n/a	LTP108	ltpFR	1	6	n/a	MOTORCYCLE	923	5	n/a	n/a	n/a	n/a	n/a	n/a
4203.558	n/a	RECOG_RESP	2101779	n/a	LTP108	ltpFR	1	6	n/a	MOTORCYCLE	923	n/a	n/a	n/a	n/a	n/a	n/a	n/a
4204.572	n/a	RECOG_CONF	2102286	n/a	LTP108	ltpFR	1	6	n/a	MOTORCYCLE	923	5	n/a	n/a	n/a	n/a	n/a	n/a
4206.052	n/a	RECOG_LURE	2103026	n/a	LTP108	ltpFR	1	6	n/a	EMPIRE	530	4	n/a	n/a	n/a	n/a	n/a	n/a
4206.896	n/a	RECOG_RESP	2103448	n/a	LTP108	ltpFR	1	6	n/a	EMPIRE	530	n/a	n/a	n/a	n/a	n/a	n/a	n/a
4207.974	n/a	RECOG_CONF	2103987	n/a	LTP108	ltpFR	1	6	n/a	EMPIRE	530	4	n/a	n/a	n/a	n/a	n/a	n/a
4209.424	n/a	RECOG_TARGET	2104712	n/a	LTP108	ltpFR	1	6	0	SEED	1266	5	0	n/a	n/a	n/a	n/a	n/a
4210.314	n/a	RECOG_RESP	2105157	n/a	LTP108	ltpFR	1	6	0	SEED	1266	n/a	0	n/a	n/a	n/a	n/a	n/a
4211.226	n/a	RECOG_CONF	2105613	n/a	LTP108	ltpFR	1	6	0	SEED	1266	5	0	n/a	n/a	n/a	n/a	n/a
4212.678	n/a	RECOG_TARGET	2106339	n/a	LTP108	ltpFR	1	6	0	STRAW	1390	5	0	n/a	n/a	n/a	n/a	n/a
4213.55	n/a	RECOG_RESP	2106775	n/a	LTP108	ltpFR	1	6	0	STRAW	1390	n/a	0	n/a	n/a	n/a	n/a	n/a
4214.478	n/a	RECOG_CONF	2107239	n/a	LTP108	ltpFR	1	6	0	STRAW	1390	5	0	n/a	n/a	n/a	n/a	n/a
4216.008	n/a	RECOG_LURE	2108004	n/a	LTP108	ltpFR	1	6	n/a	VINEGAR	1569	3	n/a	n/a	n/a	n/a	n/a	n/a
4216.858	n/a	RECOG_RESP	2108429	n/a	LTP108	ltpFR	1	6	n/a	VINEGAR	1569	n/a	n/a	n/a	n/a	n/a	n/a	n/a
4217.86	n/a	RECOG_CONF	2108930	n/a	LTP108	ltpFR	1	6	n/a	VINEGAR	1569	3	n/a	n/a	n/a	n/a	n/a	n/a
4219.344	n/a	RECOG_LURE	2109672	n/a	LTP108	ltpFR	1	6	n/a	MATTRESS	879	2	n/a	n/a	n/a	n/a	n/a	n/a
4220.874	n/a	RECOG_RESP	2110437	n/a	LTP108	ltpFR	1	6	n/a	MATTRESS	879	n/a	n/a	n/a	n/a	n/a	n/a	n/a
4221.912	n/a	RECOG_CONF	2110956	n/a	LTP108	ltpFR	1	6	n/a	MATTRESS	879	2	n/a	n/a	n/a	n/a	n/a	n/a
4223.366	n/a	RECOG_TARGET	2111683	n/a	LTP108	ltpFR	1	6	1	RACK	1154	5	0	n/a	n/a	n/a	n/a	n/a
4224.156	n/a	RECOG_RESP	2112078	n/a	LTP108	ltpFR	1	6	1	RACK	1154	n/a	0	n/a	n/a	n/a	n/a	n/a
4225.104	n/a	RECOG_CONF	2112552	n/a	LTP108	ltpFR	1	6	1	RACK	1154	5	0	n/a	n/a	n/a	n/a	n/a
4226.62	n/a	RECOG_LURE	2113310	n/a	LTP108	ltpFR	1	6	n/a	DOLL	481	4	n/a	n/a	n/a	n/a	n/a	n/a
4227.648	n/a	RECOG_RESP	2113824	n/a	LTP108	ltpFR	1	6	n/a	DOLL	481	n/a	n/a	n/a	n/a	n/a	n/a	n/a
4228.726	n/a	RECOG_CONF	2114363	n/a	LTP108	ltpFR	1	6	n/a	DOLL	481	4	n/a	n/a	n/a	n/a	n/a	n/a
4230.216	n/a	RECOG_TARGET	2115108	n/a	LTP108	ltpFR	1	6	1	SEA	1259	3	1	n/a	n/a	n/a	n/a	n/a
4231.416	n/a	RECOG_RESP	2115708	n/a	LTP108	ltpFR	1	6	1	SEA	1259	n/a	1	n/a	n/a	n/a	n/a	n/a
4232.408	n/a	RECOG_CONF	2116204	n/a	LTP108	ltpFR	1	6	1	SEA	1259	3	1	n/a	n/a	n/a	n/a	n/a
4233.77	n/a	RECOG_TARGET	2116885	n/a	LTP108	ltpFR	1	6	1	TAVERN	1437	5	0	n/a	n/a	n/a	n/a	n/a
4234.752	n/a	RECOG_RESP	2117376	n/a	LTP108	ltpFR	1	6	1	TAVERN	1437	n/a	0	n/a	n/a	n/a	n/a	n/a
4235.72	n/a	RECOG_CONF	2117860	n/a	LTP108	ltpFR	1	6	1	TAVERN	1437	5	0	n/a	n/a	n/a	n/a	n/a
4237.25	n/a	RECOG_TARGET	2118625	n/a	LTP108	ltpFR	1	6	-1	FUDGE	611	5	-1	n/a	n/a	n/a	n/a	n/a
4238.02	n/a	RECOG_RESP	2119010	n/a	LTP108	ltpFR	1	6	-1	FUDGE	611	n/a	-1	n/a	n/a	n/a	n/a	n/a
4239.052	n/a	RECOG_CONF	2119526	n/a	LTP108	ltpFR	1	6	-1	FUDGE	611	5	-1	n/a	n/a	n/a	n/a	n/a
4240.478	n/a	RECOG_LURE	2120239	n/a	LTP108	ltpFR	1	6	n/a	STREAM	1392	2	n/a	n/a	n/a	n/a	n/a	n/a
4241.548	n/a	RECOG_RESP	2120774	n/a	LTP108	ltpFR	1	6	n/a	STREAM	1392	n/a	n/a	n/a	n/a	n/a	n/a	n/a
4242.544	n/a	RECOG_CONF	2121272	n/a	LTP108	ltpFR	1	6	n/a	STREAM	1392	2	n/a	n/a	n/a	n/a	n/a	n/a
4243.992	n/a	RECOG_TARGET	2121996	n/a	LTP108	ltpFR	1	6	-1	PATH	1023	3	-1	n/a	n/a	n/a	n/a	n/a
4245.464	n/a	RECOG_RESP	2122732	n/a	LTP108	ltpFR	1	6	-1	PATH	1023	n/a	-1	n/a	n/a	n/a	n/a	n/a
4246.466	n/a	RECOG_CONF	2123233	n/a	LTP108	ltpFR	1	6	-1	PATH	1023	3	-1	n/a	n/a	n/a	n/a	n/a
4250.654	n/a	REC_START	2125327	n/a	LTP108	ltpFR	1	7	n/a	n/a	n/a	n/a	n/a	n/a	n/a	n/a	n/a	n/a
4250.684	n/a	RECOG_TARGET	2125342	n/a	LTP108	ltpFR	1	7	0	SCARECROW	1245	5	1	n/a	n/a	n/a	n/a	n/a
4251.806	n/a	RECOG_RESP	2125903	n/a	LTP108	ltpFR	1	7	0	SCARECROW	1245	n/a	1	n/a	n/a	n/a	n/a	n/a
4252.674	n/a	RECOG_CONF	2126337	n/a	LTP108	ltpFR	1	7	0	SCARECROW	1245	5	1	n/a	n/a	n/a	n/a	n/a
4254.13	n/a	RECOG_TARGET	2127065	n/a	LTP108	ltpFR	1	7	0	DESIGNER	451	4	0	n/a	n/a	n/a	n/a	n/a
4255.108	n/a	RECOG_RESP	2127554	n/a	LTP108	ltpFR	1	7	0	DESIGNER	451	n/a	0	n/a	n/a	n/a	n/a	n/a
4256.176	n/a	RECOG_CONF	2128088	n/a	LTP108	ltpFR	1	7	0	DESIGNER	451	4	0	n/a	n/a	n/a	n/a	n/a
4257.634	n/a	RECOG_LURE	2128817	n/a	LTP108	ltpFR	1	7	n/a	UNIFORM	1539	1	n/a	n/a	n/a	n/a	n/a	n/a
4259.03	n/a	RECOG_RESP	2129515	n/a	LTP108	ltpFR	1	7	n/a	UNIFORM	1539	n/a	n/a	n/a	n/a	n/a	n/a	n/a
4259.988	n/a	RECOG_CONF	2129994	n/a	LTP108	ltpFR	1	7	n/a	UNIFORM	1539	1	n/a	n/a	n/a	n/a	n/a	n/a
4261.406	n/a	RECOG_TARGET	2130703	n/a	LTP108	ltpFR	1	7	-1	WIRE	1616	5	-1	n/a	n/a	n/a	n/a	n/a
4262.142	n/a	RECOG_RESP	2131071	n/a	LTP108	ltpFR	1	7	-1	WIRE	1616	n/a	-1	n/a	n/a	n/a	n/a	n/a
4263.06	n/a	RECOG_CONF	2131530	n/a	LTP108	ltpFR	1	7	-1	WIRE	1616	5	-1	n/a	n/a	n/a	n/a	n/a
4264.494	n/a	RECOG_TARGET	2132247	n/a	LTP108	ltpFR	1	7	1	REGISTER	1180	1	0	n/a	n/a	n/a	n/a	n/a
4265.584	n/a	RECOG_RESP	2132792	n/a	LTP108	ltpFR	1	7	1	REGISTER	1180	n/a	0	n/a	n/a	n/a	n/a	n/a
4266.492	n/a	RECOG_CONF	2133246	n/a	LTP108	ltpFR	1	7	1	REGISTER	1180	1	0	n/a	n/a	n/a	n/a	n/a
4267.94	n/a	RECOG_TARGET	2133970	n/a	LTP108	ltpFR	1	7	-1	VICTOR	1563	3	-1	n/a	n/a	n/a	n/a	n/a
4268.832	n/a	RECOG_RESP	2134416	n/a	LTP108	ltpFR	1	7	-1	VICTOR	1563	n/a	-1	n/a	n/a	n/a	n/a	n/a
4269.844	n/a	RECOG_CONF	2134922	n/a	LTP108	ltpFR	1	7	-1	VICTOR	1563	3	-1	n/a	n/a	n/a	n/a	n/a
4271.294	n/a	RECOG_LURE	2135647	n/a	LTP108	ltpFR	1	7	n/a	QUEEN	1149	5	n/a	n/a	n/a	n/a	n/a	n/a
4272.618	n/a	RECOG_RESP	2136309	n/a	LTP108	ltpFR	1	7	n/a	QUEEN	1149	n/a	n/a	n/a	n/a	n/a	n/a	n/a
4273.576	n/a	RECOG_CONF	2136788	n/a	LTP108	ltpFR	1	7	n/a	QUEEN	1149	5	n/a	n/a	n/a	n/a	n/a	n/a
4275.206	n/a	RECOG_TARGET	2137603	n/a	LTP108	ltpFR	1	7	0	DIVER	476	5	1	n/a	n/a	n/a	n/a	n/a
4276.34	n/a	RECOG_RESP	2138170	n/a	LTP108	ltpFR	1	7	0	DIVER	476	n/a	1	n/a	n/a	n/a	n/a	n/a
4277.268	n/a	RECOG_CONF	2138634	n/a	LTP108	ltpFR	1	7	0	DIVER	476	5	1	n/a	n/a	n/a	n/a	n/a
4278.752	n/a	RECOG_TARGET	2139376	n/a	LTP108	ltpFR	1	7	-1	BEARD	107	5	-1	n/a	n/a	n/a	n/a	n/a
4279.702	n/a	RECOG_RESP	2139851	n/a	LTP108	ltpFR	1	7	-1	BEARD	107	n/a	-1	n/a	n/a	n/a	n/a	n/a
4280.59	n/a	RECOG_CONF	2140295	n/a	LTP108	ltpFR	1	7	-1	BEARD	107	5	-1	n/a	n/a	n/a	n/a	n/a
4282.072	n/a	RECOG_TARGET	2141036	n/a	LTP108	ltpFR	1	7	-1	FRUIT	610	5	-1	n/a	n/a	n/a	n/a	n/a
4283.114	n/a	RECOG_RESP	2141557	n/a	LTP108	ltpFR	1	7	-1	FRUIT	610	n/a	-1	n/a	n/a	n/a	n/a	n/a
4284.072	n/a	RECOG_CONF	2142036	n/a	LTP108	ltpFR	1	7	-1	FRUIT	610	5	-1	n/a	n/a	n/a	n/a	n/a
4285.536	n/a	RECOG_LURE	2142768	n/a	LTP108	ltpFR	1	7	n/a	WITNESS	1618	1	n/a	n/a	n/a	n/a	n/a	n/a
4286.532	n/a	RECOG_RESP	2143266	n/a	LTP108	ltpFR	1	7	n/a	WITNESS	1618	n/a	n/a	n/a	n/a	n/a	n/a	n/a
4287.464	n/a	RECOG_CONF	2143732	n/a	LTP108	ltpFR	1	7	n/a	WITNESS	1618	1	n/a	n/a	n/a	n/a	n/a	n/a
4288.956	n/a	RECOG_TARGET	2144478	n/a	LTP108	ltpFR	1	7	1	ROOT	1210	1	1	n/a	n/a	n/a	n/a	n/a
4290.188	n/a	RECOG_RESP	2145094	n/a	LTP108	ltpFR	1	7	1	ROOT	1210	n/a	1	n/a	n/a	n/a	n/a	n/a
4291.126	n/a	RECOG_CONF	2145563	n/a	LTP108	ltpFR	1	7	1	ROOT	1210	1	1	n/a	n/a	n/a	n/a	n/a
4292.62	n/a	RECOG_TARGET	2146310	n/a	LTP108	ltpFR	1	7	1	BIRD	129	3	1	n/a	n/a	n/a	n/a	n/a
4293.786	n/a	RECOG_RESP	2146893	n/a	LTP108	ltpFR	1	7	1	BIRD	129	n/a	1	n/a	n/a	n/a	n/a	n/a
4294.838	n/a	RECOG_CONF	2147419	n/a	LTP108	ltpFR	1	7	1	BIRD	129	3	1	n/a	n/a	n/a	n/a	n/a
4296.298	n/a	RECOG_LURE	2148149	n/a	LTP108	ltpFR	1	7	n/a	OUTDOORS	987	1	n/a	n/a	n/a	n/a	n/a	n/a
4297.298	n/a	RECOG_RESP	2148649	n/a	LTP108	ltpFR	1	7	n/a	OUTDOORS	987	n/a	n/a	n/a	n/a	n/a	n/a	n/a
4298.25	n/a	RECOG_CONF	2149125	n/a	LTP108	ltpFR	1	7	n/a	OUTDOORS	987	1	n/a	n/a	n/a	n/a	n/a	n/a
4299.76	n/a	RECOG_LURE	2149880	n/a	LTP108	ltpFR	1	7	n/a	PILOT	1070	5	n/a	n/a	n/a	n/a	n/a	n/a
4300.654	n/a	RECOG_RESP	2150327	n/a	LTP108	ltpFR	1	7	n/a	PILOT	1070	n/a	n/a	n/a	n/a	n/a	n/a	n/a
4301.612	n/a	RECOG_CONF	2150806	n/a	LTP108	ltpFR	1	7	n/a	PILOT	1070	5	n/a	n/a	n/a	n/a	n/a	n/a
4303.082	n/a	RECOG_TARGET	2151541	n/a	LTP108	ltpFR	1	7	1	BUREAU	199	4	0	n/a	n/a	n/a	n/a	n/a
4304.516	n/a	RECOG_RESP	2152258	n/a	LTP108	ltpFR	1	7	1	BUREAU	199	n/a	0	n/a	n/a	n/a	n/a	n/a
4305.604	n/a	RECOG_CONF	2152802	n/a	LTP108	ltpFR	1	7	1	BUREAU	199	4	0	n/a	n/a	n/a	n/a	n/a
4307.06	n/a	RECOG_TARGET	2153530	n/a	LTP108	ltpFR	1	7	-1	WINNER	1615	1	-1	n/a	n/a	n/a	n/a	n/a
4308.492	n/a	RECOG_RESP	2154246	n/a	LTP108	ltpFR	1	7	-1	WINNER	1615	n/a	-1	n/a	n/a	n/a	n/a	n/a
4309.404	n/a	RECOG_CONF	2154702	n/a	LTP108	ltpFR	1	7	-1	WINNER	1615	1	-1	n/a	n/a	n/a	n/a	n/a
4310.856	n/a	RECOG_TARGET	2155428	n/a	LTP108	ltpFR	1	7	-1	DIAPER	459	5	-1	n/a	n/a	n/a	n/a	n/a
4311.91	n/a	RECOG_RESP	2155955	n/a	LTP108	ltpFR	1	7	-1	DIAPER	459	n/a	-1	n/a	n/a	n/a	n/a	n/a
4312.866	n/a	RECOG_CONF	2156433	n/a	LTP108	ltpFR	1	7	-1	DIAPER	459	5	-1	n/a	n/a	n/a	n/a	n/a
4314.394	n/a	RECOG_TARGET	2157197	n/a	LTP108	ltpFR	1	7	1	QUAIL	1147	5	1	n/a	n/a	n/a	n/a	n/a
4315.282	n/a	RECOG_RESP	2157641	n/a	LTP108	ltpFR	1	7	1	QUAIL	1147	n/a	1	n/a	n/a	n/a	n/a	n/a
4316.31	n/a	RECOG_CONF	2158155	n/a	LTP108	ltpFR	1	7	1	QUAIL	1147	5	1	n/a	n/a	n/a	n/a	n/a
4317.84	n/a	RECOG_LURE	2158920	n/a	LTP108	ltpFR	1	7	n/a	WINE	1613	3	n/a	n/a	n/a	n/a	n/a	n/a
4319.392	n/a	RECOG_RESP	2159696	n/a	LTP108	ltpFR	1	7	n/a	WINE	1613	n/a	n/a	n/a	n/a	n/a	n/a	n/a
4320.53	n/a	RECOG_CONF	2160265	n/a	LTP108	ltpFR	1	7	n/a	WINE	1613	3	n/a	n/a	n/a	n/a	n/a	n/a
4326.28	n/a	REC_START	2163140	n/a	LTP108	ltpFR	1	8	n/a	n/a	n/a	n/a	n/a	n/a	n/a	n/a	n/a	n/a
4326.304	n/a	RECOG_TARGET	2163152	n/a	LTP108	ltpFR	1	8	0	BEDROOM	111	5	1	n/a	n/a	n/a	n/a	n/a
4327.104	n/a	RECOG_RESP	2163552	n/a	LTP108	ltpFR	1	8	0	BEDROOM	111	n/a	1	n/a	n/a	n/a	n/a	n/a
4328.052	n/a	RECOG_CONF	2164026	n/a	LTP108	ltpFR	1	8	0	BEDROOM	111	5	1	n/a	n/a	n/a	n/a	n/a
4329.618	n/a	RECOG_LURE	2164809	n/a	LTP108	ltpFR	1	8	n/a	TOTE	1487	4	n/a	n/a	n/a	n/a	n/a	n/a
4330.506	n/a	RECOG_RESP	2165253	n/a	LTP108	ltpFR	1	8	n/a	TOTE	1487	n/a	n/a	n/a	n/a	n/a	n/a	n/a
4331.434	n/a	RECOG_CONF	2165717	n/a	LTP108	ltpFR	1	8	n/a	TOTE	1487	4	n/a	n/a	n/a	n/a	n/a	n/a
4332.848	n/a	RECOG_TARGET	2166424	n/a	LTP108	ltpFR	1	8	1	CANE	231	4	0	n/a	n/a	n/a	n/a	n/a
4333.854	n/a	RECOG_RESP	2166927	n/a	LTP108	ltpFR	1	8	1	CANE	231	n/a	0	n/a	n/a	n/a	n/a	n/a
4334.876	n/a	RECOG_CONF	2167438	n/a	LTP108	ltpFR	1	8	1	CANE	231	4	0	n/a	n/a	n/a	n/a	n/a
4336.286	n/a	RECOG_TARGET	2168143	n/a	LTP108	ltpFR	1	8	0	TRUMPET	1513	5	1	n/a	n/a	n/a	n/a	n/a
4337.06	n/a	RECOG_RESP	2168530	n/a	LTP108	ltpFR	1	8	0	TRUMPET	1513	n/a	1	n/a	n/a	n/a	n/a	n/a
4337.918	n/a	RECOG_CONF	2168959	n/a	LTP108	ltpFR	1	8	0	TRUMPET	1513	5	1	n/a	n/a	n/a	n/a	n/a
4339.4	n/a	RECOG_TARGET	2169700	n/a	LTP108	ltpFR	1	8	0	WARRIOR	1589	1	1	n/a	n/a	n/a	n/a	n/a
4340.244	n/a	RECOG_RESP	2170122	n/a	LTP108	ltpFR	1	8	0	WARRIOR	1589	n/a	1	n/a	n/a	n/a	n/a	n/a
4341.212	n/a	RECOG_CONF	2170606	n/a	LTP108	ltpFR	1	8	0	WARRIOR	1589	1	1	n/a	n/a	n/a	n/a	n/a
4342.746	n/a	RECOG_LURE	2171373	n/a	LTP108	ltpFR	1	8	n/a	FOOT	590	3	n/a	n/a	n/a	n/a	n/a	n/a
4343.786	n/a	RECOG_RESP	2171893	n/a	LTP108	ltpFR	1	8	n/a	FOOT	590	n/a	n/a	n/a	n/a	n/a	n/a	n/a
