onset	duration	trial_type	sample	stim_file	subject	experiment	session	trial	task	item_name	item_num	recog_conf	resp	color_b	color_g	color_r	case	font
-0.002	n/a	SESS_START	-1	n/a	LTP107	ltpFR	18	n/a	n/a	n/a	n/a	5	n/a	n/a	n/a	n/a	n/a	n/a
-0.002	n/a	WORD	-1	wordpools/wasnorm_wordpool.txt	LTP107	ltpFR	18	1	0	TOY	1492	n/a	0	0	0.5869140625	0.422607421875	lower	../fonts/zerothre.ttf
-0.002	n/a	WORD	-1	wordpools/wasnorm_wordpool.txt	LTP107	ltpFR	18	1	0	TEENAGER	1444	n/a	1	0	0.5869140625	0.422607421875	lower	../fonts/zerothre.ttf
-0.002	n/a	WORD	-1	wordpools/wasnorm_wordpool.txt	LTP107	ltpFR	18	1	0	WRENCH	1625	n/a	0	0	0.5869140625	0.422607421875	lower	../fonts/zerothre.ttf
-0.002	n/a	WORD	-1	wordpools/wasnorm_wordpool.txt	LTP107	ltpFR	18	1	0	MIRROR	899	n/a	1	0	0.5869140625	0.422607421875	lower	../fonts/zerothre.ttf
-0.002	n/a	WORD	-1	wordpools/wasnorm_wordpool.txt	LTP107	ltpFR	18	1	1	COIN	343	n/a	0	1	0.412841796875	0.57763671875	upper	../fonts/amplitud.ttf
-0.002	n/a	WORD	-1	wordpools/wasnorm_wordpool.txt	LTP107	ltpFR	18	1	1	SOCIETY	1338	n/a	1	1	0.412841796875	0.57763671875	upper	../fonts/amplitud.ttf
-0.002	n/a	WORD	-1	wordpools/wasnorm_wordpool.txt	LTP107	ltpFR	18	1	1	OBOE	969	n/a	0	1	0.412841796875	0.57763671875	upper	../fonts/amplitud.ttf
-0.002	n/a	WORD	-1	wordpools/wasnorm_wordpool.txt	LTP107	ltpFR	18	1	1	MOLECULE	905	n/a	0	1	0.412841796875	0.57763671875	upper	../fonts/amplitud.ttf
-0.002	n/a	WORD	-1	wordpools/wasnorm_wordpool.txt	LTP107	ltpFR	18	1	0	CAPTIVE	240	n/a	1	0	0.5869140625	0.422607421875	lower	../fonts/zerothre.ttf
-0.002	n/a	WORD	-1	wordpools/wasnorm_wordpool.txt	LTP107	ltpFR	18	1	0	CREW	406	n/a	1	0	0.5869140625	0.422607421875	lower	../fonts/zerothre.ttf
-0.002	n/a	WORD	-1	wordpools/wasnorm_wordpool.txt	LTP107	ltpFR	18	1	1	BIOLOGIST	128	n/a	1	1	0.412841796875	0.57763671875	upper	../fonts/amplitud.ttf
-0.002	n/a	WORD	-1	wordpools/wasnorm_wordpool.txt	LTP107	ltpFR	18	1	1	CONDUCTOR	362	n/a	1	1	0.412841796875	0.57763671875	upper	../fonts/amplitud.ttf
-0.002	n/a	WORD	-1	wordpools/wasnorm_wordpool.txt	LTP107	ltpFR	18	1	1	RAILROAD	1162	n/a	0	1	0.412841796875	0.57763671875	upper	../fonts/amplitud.ttf
-0.002	n/a	WORD	-1	wordpools/wasnorm_wordpool.txt	LTP107	ltpFR	18	1	1	TRUMPET	1513	n/a	0	1	0.412841796875	0.57763671875	upper	../fonts/amplitud.ttf
-0.002	n/a	WORD	-1	wordpools/wasnorm_wordpool.txt	LTP107	ltpFR	18	1	0	COW	393	n/a	1	0	0.5869140625	0.422607421875	lower	../fonts/zerothre.ttf
-0.002	n/a	WORD	-1	wordpools/wasnorm_wordpool.txt	LTP107	ltpFR	18	1	0	CARRIAGE	248	n/a	1	0	0.5869140625	0.422607421875	lower	../fonts/zerothre.ttf
-0.002	n/a	REC_START	-1	n/a	LTP107	ltpFR	18	1	n/a	n/a	n/a	n/a	n/a	n/a	n/a	n/a	n/a	n/a
-0.002	n/a	REC_WORD	-1	wordpools/wasnorm_wordpool.txt	LTP107	ltpFR	18	1	0	CARRIAGE	248	n/a	1	n/a	n/a	n/a	n/a	n/a
-0.002	n/a	REC_WORD	-1	wordpools/wasnorm_wordpool.txt	LTP107	ltpFR	18	1	0	COW	393	n/a	1	n/a	n/a	n/a	n/a	n/a
-0.002	n/a	REC_WORD	-1	wordpools/wasnorm_wordpool.txt	LTP107	ltpFR	18	1	1	CONDUCTOR	362	n/a	1	n/a	n/a	n/a	n/a	n/a
-0.002	n/a	REC_WORD	-1	wordpools/wasnorm_wordpool.txt	LTP107	ltpFR	18	1	1	OBOE	969	n/a	0	n/a	n/a	n/a	n/a	n/a
-0.002	n/a	REC_WORD	-1	wordpools/wasnorm_wordpool.txt	LTP107	ltpFR	18	1	1	TRUMPET	1513	n/a	0	n/a	n/a	n/a	n/a	n/a
-0.002	n/a	REC_WORD	-1	wordpools/wasnorm_wordpool.txt	LTP107	ltpFR	18	1	0	MIRROR	899	n/a	1	n/a	n/a	n/a	n/a	n/a
-0.002	n/a	REC_WORD	-1	wordpools/wasnorm_wordpool.txt	LTP107	ltpFR	18	1	0	CREW	406	n/a	1	n/a	n/a	n/a	n/a	n/a
-0.002	n/a	REC_WORD	-1	wordpools/wasnorm_wordpool.txt	LTP107	ltpFR	18	1	1	COIN	343	n/a	0	n/a	n/a	n/a	n/a	n/a
-0.002	n/a	REC_WORD	-1	wordpools/wasnorm_wordpool.txt	LTP107	ltpFR	18	1	0	TOY	1492	n/a	0	n/a	n/a	n/a	n/a	n/a
-0.002	n/a	REC_WORD	-1	wordpools/wasnorm_wordpool.txt	LTP107	ltpFR	18	1	0	TEENAGER	1444	n/a	1	n/a	n/a	n/a	n/a	n/a
-0.002	n/a	REC_WORD	-1	wordpools/wasnorm_wordpool.txt	LTP107	ltpFR	18	1	0	WRENCH	1625	n/a	0	n/a	n/a	n/a	n/a	n/a
-0.002	n/a	REC_WORD	-1	wordpools/wasnorm_wordpool.txt	LTP107	ltpFR	18	1	1	SOCIETY	1338	n/a	1	n/a	n/a	n/a	n/a	n/a
-0.002	n/a	REC_WORD	-1	wordpools/wasnorm_wordpool.txt	LTP107	ltpFR	18	1	n/a	COMMUNITY	356	n/a	n/a	n/a	n/a	n/a	n/a	n/a
-0.002	n/a	REC_WORD	-1	wordpools/wasnorm_wordpool.txt	LTP107	ltpFR	18	1	1	COIN	343	n/a	0	n/a	n/a	n/a	n/a	n/a
-0.002	n/a	REC_WORD	-1	wordpools/wasnorm_wordpool.txt	LTP107	ltpFR	18	1	0	CREW	406	n/a	1	n/a	n/a	n/a	n/a	n/a
-0.002	n/a	WORD	-1	wordpools/wasnorm_wordpool.txt	LTP107	ltpFR	18	2	1	CARROT	249	n/a	0	1	0.412841796875	0.57763671875	upper	../fonts/amplitud.ttf
-0.002	n/a	WORD	-1	wordpools/wasnorm_wordpool.txt	LTP107	ltpFR	18	2	1	RIVER	1194	n/a	0	1	0.412841796875	0.57763671875	upper	../fonts/amplitud.ttf
-0.002	n/a	WORD	-1	wordpools/wasnorm_wordpool.txt	LTP107	ltpFR	18	2	1	ROCK	1201	n/a	0	1	0.412841796875	0.57763671875	upper	../fonts/amplitud.ttf
-0.002	n/a	WORD	-1	wordpools/wasnorm_wordpool.txt	LTP107	ltpFR	18	2	0	ACID	2	n/a	0	0	0.5869140625	0.422607421875	lower	../fonts/zerothre.ttf
-0.002	n/a	WORD	-1	wordpools/wasnorm_wordpool.txt	LTP107	ltpFR	18	2	0	OX	994	n/a	1	0	0.5869140625	0.422607421875	lower	../fonts/zerothre.ttf
-0.002	n/a	WORD	-1	wordpools/wasnorm_wordpool.txt	LTP107	ltpFR	18	2	0	RUST	1219	n/a	0	0	0.5869140625	0.422607421875	lower	../fonts/zerothre.ttf
-0.002	n/a	WORD	-1	wordpools/wasnorm_wordpool.txt	LTP107	ltpFR	18	2	1	SCREW	1254	n/a	0	1	0.412841796875	0.57763671875	upper	../fonts/amplitud.ttf
-0.002	n/a	WORD	-1	wordpools/wasnorm_wordpool.txt	LTP107	ltpFR	18	2	1	SWING	1421	n/a	0	1	0.412841796875	0.57763671875	upper	../fonts/amplitud.ttf
-0.002	n/a	WORD	-1	wordpools/wasnorm_wordpool.txt	LTP107	ltpFR	18	2	1	COBBLER	335	n/a	0	1	0.412841796875	0.57763671875	upper	../fonts/amplitud.ttf
-0.002	n/a	WORD	-1	wordpools/wasnorm_wordpool.txt	LTP107	ltpFR	18	2	0	STRAWBERRY	1391	n/a	0	0	0.5869140625	0.422607421875	lower	../fonts/zerothre.ttf
-0.002	n/a	WORD	-1	wordpools/wasnorm_wordpool.txt	LTP107	ltpFR	18	2	0	HANDCUFFS	685	n/a	0	0	0.5869140625	0.422607421875	lower	../fonts/zerothre.ttf
-0.002	n/a	WORD	-1	wordpools/wasnorm_wordpool.txt	LTP107	ltpFR	18	2	0	VAGRANT	1544	n/a	1	0	0.5869140625	0.422607421875	lower	../fonts/zerothre.ttf
-0.002	n/a	WORD	-1	wordpools/wasnorm_wordpool.txt	LTP107	ltpFR	18	2	0	ACROBAT	4	n/a	1	0	0.5869140625	0.422607421875	lower	../fonts/zerothre.ttf
-0.002	n/a	WORD	-1	wordpools/wasnorm_wordpool.txt	LTP107	ltpFR	18	2	0	JUGGLER	763	n/a	1	0	0.5869140625	0.422607421875	lower	../fonts/zerothre.ttf
-0.002	n/a	WORD	-1	wordpools/wasnorm_wordpool.txt	LTP107	ltpFR	18	2	1	STEAM	1375	n/a	0	1	0.412841796875	0.57763671875	upper	../fonts/amplitud.ttf
-0.002	n/a	WORD	-1	wordpools/wasnorm_wordpool.txt	LTP107	ltpFR	18	2	1	DETECTIVE	454	n/a	1	1	0.412841796875	0.57763671875	upper	../fonts/amplitud.ttf
-0.002	n/a	REC_START	-1	n/a	LTP107	ltpFR	18	2	n/a	n/a	n/a	n/a	n/a	n/a	n/a	n/a	n/a	n/a
-0.002	n/a	REC_WORD	-1	wordpools/wasnorm_wordpool.txt	LTP107	ltpFR	18	2	1	DETECTIVE	454	n/a	1	n/a	n/a	n/a	n/a	n/a
-0.002	n/a	REC_WORD	-1	wordpools/wasnorm_wordpool.txt	LTP107	ltpFR	18	2	1	STEAM	1375	n/a	0	n/a	n/a	n/a	n/a	n/a
-0.002	n/a	REC_WORD	-1	wordpools/wasnorm_wordpool.txt	LTP107	ltpFR	18	2	0	HANDCUFFS	685	n/a	0	n/a	n/a	n/a	n/a	n/a
-0.002	n/a	REC_WORD	-1	wordpools/wasnorm_wordpool.txt	LTP107	ltpFR	18	2	0	VAGRANT	1544	n/a	1	n/a	n/a	n/a	n/a	n/a
-0.002	n/a	REC_WORD	-1	wordpools/wasnorm_wordpool.txt	LTP107	ltpFR	18	2	0	ACID	2	n/a	0	n/a	n/a	n/a	n/a	n/a
-0.002	n/a	REC_WORD	-1	wordpools/wasnorm_wordpool.txt	LTP107	ltpFR	18	2	n/a	STREAM	1392	n/a	n/a	n/a	n/a	n/a	n/a	n/a
-0.002	n/a	REC_WORD	-1	wordpools/wasnorm_wordpool.txt	LTP107	ltpFR	18	2	1	CARROT	249	n/a	0	n/a	n/a	n/a	n/a	n/a
-0.002	n/a	REC_WORD	-1	wordpools/wasnorm_wordpool.txt	LTP107	ltpFR	18	2	0	RUST	1219	n/a	0	n/a	n/a	n/a	n/a	n/a
-0.002	n/a	REC_WORD	-1	wordpools/wasnorm_wordpool.txt	LTP107	ltpFR	18	2	1	SCREW	1254	n/a	0	n/a	n/a	n/a	n/a	n/a
-0.002	n/a	REC_WORD	-1	wordpools/wasnorm_wordpool.txt	LTP107	ltpFR	18	2	n/a	NAIL	936	n/a	n/a	n/a	n/a	n/a	n/a	n/a
-0.002	n/a	REC_WORD	-1	wordpools/wasnorm_wordpool.txt	LTP107	ltpFR	18	2	1	COBBLER	335	n/a	0	n/a	n/a	n/a	n/a	n/a
-0.002	n/a	REC_WORD	-1	wordpools/wasnorm_wordpool.txt	LTP107	ltpFR	18	2	0	STRAWBERRY	1391	n/a	0	n/a	n/a	n/a	n/a	n/a
-0.002	n/a	REC_WORD	-1	wordpools/wasnorm_wordpool.txt	LTP107	ltpFR	18	2	0	JUGGLER	763	n/a	1	n/a	n/a	n/a	n/a	n/a
-0.002	n/a	REC_WORD	-1	wordpools/wasnorm_wordpool.txt	LTP107	ltpFR	18	2	0	ACROBAT	4	n/a	1	n/a	n/a	n/a	n/a	n/a
-0.002	n/a	REC_WORD	-1	wordpools/wasnorm_wordpool.txt	LTP107	ltpFR	18	2	1	SWING	1421	n/a	0	n/a	n/a	n/a	n/a	n/a
-0.002	n/a	REC_WORD	-1	wordpools/wasnorm_wordpool.txt	LTP107	ltpFR	18	2	1	ROCK	1201	n/a	0	n/a	n/a	n/a	n/a	n/a
-0.002	n/a	REC_WORD	-1	wordpools/wasnorm_wordpool.txt	LTP107	ltpFR	18	2	0	ACID	2	n/a	0	n/a	n/a	n/a	n/a	n/a
-0.002	n/a	REC_WORD	-1	wordpools/wasnorm_wordpool.txt	LTP107	ltpFR	18	2	1	DETECTIVE	454	n/a	1	n/a	n/a	n/a	n/a	n/a
-0.002	n/a	REC_WORD	-1	wordpools/wasnorm_wordpool.txt	LTP107	ltpFR	18	2	0	OX	994	n/a	1	n/a	n/a	n/a	n/a	n/a
-0.002	n/a	WORD	-1	wordpools/wasnorm_wordpool.txt	LTP107	ltpFR	18	3	-1	RICE	1190	n/a	-1	1	1.0	1.0	upper	../fonts/Verdana.ttf
-0.002	n/a	WORD	-1	wordpools/wasnorm_wordpool.txt	LTP107	ltpFR	18	3	-1	SCARECROW	1245	n/a	-1	1	1.0	1.0	upper	../fonts/Verdana.ttf
-0.002	n/a	WORD	-1	wordpools/wasnorm_wordpool.txt	LTP107	ltpFR	18	3	-1	RAG	1160	n/a	-1	1	1.0	1.0	upper	../fonts/Verdana.ttf
-0.002	n/a	WORD	-1	wordpools/wasnorm_wordpool.txt	LTP107	ltpFR	18	3	-1	PLANT	1083	n/a	-1	1	1.0	1.0	upper	../fonts/Verdana.ttf
-0.002	n/a	WORD	-1	wordpools/wasnorm_wordpool.txt	LTP107	ltpFR	18	3	-1	VALVE	1546	n/a	-1	1	1.0	1.0	upper	../fonts/Verdana.ttf
-0.002	n/a	WORD	-1	wordpools/wasnorm_wordpool.txt	LTP107	ltpFR	18	3	-1	BUTTERFLY	206	n/a	-1	1	1.0	1.0	upper	../fonts/Verdana.ttf
-0.002	n/a	WORD	-1	wordpools/wasnorm_wordpool.txt	LTP107	ltpFR	18	3	-1	FLOWER	584	n/a	-1	1	1.0	1.0	upper	../fonts/Verdana.ttf
-0.002	n/a	WORD	-1	wordpools/wasnorm_wordpool.txt	LTP107	ltpFR	18	3	-1	LIMOUSINE	824	n/a	-1	1	1.0	1.0	upper	../fonts/Verdana.ttf
-0.002	n/a	WORD	-1	wordpools/wasnorm_wordpool.txt	LTP107	ltpFR	18	3	-1	BATHROOM	99	n/a	-1	1	1.0	1.0	upper	../fonts/Verdana.ttf
-0.002	n/a	WORD	-1	wordpools/wasnorm_wordpool.txt	LTP107	ltpFR	18	3	-1	ROOMMATE	1207	n/a	-1	1	1.0	1.0	upper	../fonts/Verdana.ttf
-0.002	n/a	WORD	-1	wordpools/wasnorm_wordpool.txt	LTP107	ltpFR	18	3	-1	LOVER	846	n/a	-1	1	1.0	1.0	upper	../fonts/Verdana.ttf
-0.002	n/a	WORD	-1	wordpools/wasnorm_wordpool.txt	LTP107	ltpFR	18	3	-1	HAMMER	680	n/a	-1	1	1.0	1.0	upper	../fonts/Verdana.ttf
-0.002	n/a	WORD	-1	wordpools/wasnorm_wordpool.txt	LTP107	ltpFR	18	3	-1	DESSERT	453	n/a	-1	1	1.0	1.0	upper	../fonts/Verdana.ttf
-0.002	n/a	WORD	-1	wordpools/wasnorm_wordpool.txt	LTP107	ltpFR	18	3	-1	SOAP	1337	n/a	-1	1	1.0	1.0	upper	../fonts/Verdana.ttf
-0.002	n/a	WORD	-1	wordpools/wasnorm_wordpool.txt	LTP107	ltpFR	18	3	-1	GARLIC	624	n/a	-1	1	1.0	1.0	upper	../fonts/Verdana.ttf
-0.002	n/a	WORD	-1	wordpools/wasnorm_wordpool.txt	LTP107	ltpFR	18	3	-1	BAKER	71	n/a	-1	1	1.0	1.0	upper	../fonts/Verdana.ttf
-0.002	n/a	REC_START	-1	n/a	LTP107	ltpFR	18	3	n/a	n/a	n/a	n/a	n/a	n/a	n/a	n/a	n/a	n/a
-0.002	n/a	REC_WORD	-1	wordpools/wasnorm_wordpool.txt	LTP107	ltpFR	18	3	-1	BAKER	71	n/a	-1	n/a	n/a	n/a	n/a	n/a
-0.002	n/a	REC_WORD	-1	wordpools/wasnorm_wordpool.txt	LTP107	ltpFR	18	3	-1	GARLIC	624	n/a	-1	n/a	n/a	n/a	n/a	n/a
-0.002	n/a	REC_WORD	-1	wordpools/wasnorm_wordpool.txt	LTP107	ltpFR	18	3	-1	DESSERT	453	n/a	-1	n/a	n/a	n/a	n/a	n/a
-0.002	n/a	REC_WORD	-1	wordpools/wasnorm_wordpool.txt	LTP107	ltpFR	18	3	-1	SOAP	1337	n/a	-1	n/a	n/a	n/a	n/a	n/a
-0.002	n/a	REC_WORD	-1	wordpools/wasnorm_wordpool.txt	LTP107	ltpFR	18	3	-1	HAMMER	680	n/a	-1	n/a	n/a	n/a	n/a	n/a
-0.002	n/a	REC_WORD	-1	wordpools/wasnorm_wordpool.txt	LTP107	ltpFR	18	3	-1	BATHROOM	99	n/a	-1	n/a	n/a	n/a	n/a	n/a
-0.002	n/a	REC_WORD	-1	wordpools/wasnorm_wordpool.txt	LTP107	ltpFR	18	3	-1	ROOMMATE	1207	n/a	-1	n/a	n/a	n/a	n/a	n/a
-0.002	n/a	REC_WORD	-1	wordpools/wasnorm_wordpool.txt	LTP107	ltpFR	18	3	-1	LOVER	846	n/a	-1	n/a	n/a	n/a	n/a	n/a
-0.002	n/a	REC_WORD	-1	wordpools/wasnorm_wordpool.txt	LTP107	ltpFR	18	3	-1	SCARECROW	1245	n/a	-1	n/a	n/a	n/a	n/a	n/a
-0.002	n/a	REC_WORD	-1	wordpools/wasnorm_wordpool.txt	LTP107	ltpFR	18	3	-1	BUTTERFLY	206	n/a	-1	n/a	n/a	n/a	n/a	n/a
-0.002	n/a	REC_WORD	-1	wordpools/wasnorm_wordpool.txt	LTP107	ltpFR	18	3	-1	VALVE	1546	n/a	-1	n/a	n/a	n/a	n/a	n/a
-0.002	n/a	REC_WORD	-1	wordpools/wasnorm_wordpool.txt	LTP107	ltpFR	18	3	-1	RICE	1190	n/a	-1	n/a	n/a	n/a	n/a	n/a
-0.002	n/a	REC_WORD	-1	wordpools/wasnorm_wordpool.txt	LTP107	ltpFR	18	3	-1	RAG	1160	n/a	-1	n/a	n/a	n/a	n/a	n/a
-0.002	n/a	REC_WORD	-1	wordpools/wasnorm_wordpool.txt	LTP107	ltpFR	18	3	-1	LIMOUSINE	824	n/a	-1	n/a	n/a	n/a	n/a	n/a
-0.002	n/a	REC_WORD	-1	wordpools/wasnorm_wordpool.txt	LTP107	ltpFR	18	3	-1	ROOMMATE	1207	n/a	-1	n/a	n/a	n/a	n/a	n/a
-0.002	n/a	REC_WORD	-1	wordpools/wasnorm_wordpool.txt	LTP107	ltpFR	18	3	-1	HAMMER	680	n/a	-1	n/a	n/a	n/a	n/a	n/a
-0.002	n/a	REC_WORD	-1	wordpools/wasnorm_wordpool.txt	LTP107	ltpFR	18	3	-1	SOAP	1337	n/a	-1	n/a	n/a	n/a	n/a	n/a
-0.002	n/a	REC_WORD	-1	wordpools/wasnorm_wordpool.txt	LTP107	ltpFR	18	3	-1	RICE	1190	n/a	-1	n/a	n/a	n/a	n/a	n/a
-0.002	n/a	WORD	-1	wordpools/wasnorm_wordpool.txt	LTP107	ltpFR	18	4	0	EMPEROR	529	n/a	1	0	0.5869140625	0.422607421875	lower	../fonts/zerothre.ttf
-0.002	n/a	WORD	-1	wordpools/wasnorm_wordpool.txt	LTP107	ltpFR	18	4	0	FRIES	607	n/a	0	0	0.5869140625	0.422607421875	lower	../fonts/zerothre.ttf
-0.002	n/a	WORD	-1	wordpools/wasnorm_wordpool.txt	LTP107	ltpFR	18	4	1	ALLIGATOR	16	n/a	1	1	0.412841796875	0.57763671875	upper	../fonts/amplitud.ttf
-0.002	n/a	WORD	-1	wordpools/wasnorm_wordpool.txt	LTP107	ltpFR	18	4	1	CASH	252	n/a	0	1	0.412841796875	0.57763671875	upper	../fonts/amplitud.ttf
-0.002	n/a	WORD	-1	wordpools/wasnorm_wordpool.txt	LTP107	ltpFR	18	4	1	HEART	697	n/a	0	1	0.412841796875	0.57763671875	upper	../fonts/amplitud.ttf
-0.002	n/a	WORD	-1	wordpools/wasnorm_wordpool.txt	LTP107	ltpFR	18	4	0	CHICKEN	297	n/a	0	0	0.5869140625	0.422607421875	lower	../fonts/zerothre.ttf
-0.002	n/a	WORD	-1	wordpools/wasnorm_wordpool.txt	LTP107	ltpFR	18	4	0	SUPPER	1411	n/a	1	0	0.5869140625	0.422607421875	lower	../fonts/zerothre.ttf
-0.002	n/a	WORD	-1	wordpools/wasnorm_wordpool.txt	LTP107	ltpFR	18	4	0	RULER	1216	n/a	0	0	0.5869140625	0.422607421875	lower	../fonts/zerothre.ttf
-0.002	n/a	WORD	-1	wordpools/wasnorm_wordpool.txt	LTP107	ltpFR	18	4	0	RATTLE	1170	n/a	0	0	0.5869140625	0.422607421875	lower	../fonts/zerothre.ttf
-0.002	n/a	WORD	-1	wordpools/wasnorm_wordpool.txt	LTP107	ltpFR	18	4	0	BARTENDER	92	n/a	1	0	0.5869140625	0.422607421875	lower	../fonts/zerothre.ttf
-0.002	n/a	WORD	-1	wordpools/wasnorm_wordpool.txt	LTP107	ltpFR	18	4	0	COOLER	375	n/a	1	0	0.5869140625	0.422607421875	lower	../fonts/zerothre.ttf
-0.002	n/a	WORD	-1	wordpools/wasnorm_wordpool.txt	LTP107	ltpFR	18	4	1	THIMBLE	1458	n/a	0	1	0.412841796875	0.57763671875	upper	../fonts/amplitud.ttf
-0.002	n/a	WORD	-1	wordpools/wasnorm_wordpool.txt	LTP107	ltpFR	18	4	1	COFFEE	341	n/a	0	1	0.412841796875	0.57763671875	upper	../fonts/amplitud.ttf
-0.002	n/a	WORD	-1	wordpools/wasnorm_wordpool.txt	LTP107	ltpFR	18	4	1	BANKER	84	n/a	1	1	0.412841796875	0.57763671875	upper	../fonts/amplitud.ttf
-0.002	n/a	WORD	-1	wordpools/wasnorm_wordpool.txt	LTP107	ltpFR	18	4	1	DRESSER	496	n/a	0	1	0.412841796875	0.57763671875	upper	../fonts/amplitud.ttf
-0.002	n/a	WORD	-1	wordpools/wasnorm_wordpool.txt	LTP107	ltpFR	18	4	1	CLOSET	326	n/a	0	1	0.412841796875	0.57763671875	upper	../fonts/amplitud.ttf
-0.002	n/a	REC_START	-1	n/a	LTP107	ltpFR	18	4	n/a	n/a	n/a	n/a	n/a	n/a	n/a	n/a	n/a	n/a
-0.002	n/a	REC_WORD	-1	wordpools/wasnorm_wordpool.txt	LTP107	ltpFR	18	4	1	CLOSET	326	n/a	0	n/a	n/a	n/a	n/a	n/a
-0.002	n/a	REC_WORD	-1	wordpools/wasnorm_wordpool.txt	LTP107	ltpFR	18	4	1	BANKER	84	n/a	1	n/a	n/a	n/a	n/a	n/a
-0.002	n/a	REC_WORD	-1	wordpools/wasnorm_wordpool.txt	LTP107	ltpFR	18	4	1	DRESSER	496	n/a	0	n/a	n/a	n/a	n/a	n/a
-0.002	n/a	REC_WORD	-1	wordpools/wasnorm_wordpool.txt	LTP107	ltpFR	18	4	0	RULER	1216	n/a	0	n/a	n/a	n/a	n/a	n/a
-0.002	n/a	REC_WORD	-1	wordpools/wasnorm_wordpool.txt	LTP107	ltpFR	18	4	0	EMPEROR	529	n/a	1	n/a	n/a	n/a	n/a	n/a
-0.002	n/a	REC_WORD	-1	wordpools/wasnorm_wordpool.txt	LTP107	ltpFR	18	4	1	CASH	252	n/a	0	n/a	n/a	n/a	n/a	n/a
-0.002	n/a	REC_WORD	-1	wordpools/wasnorm_wordpool.txt	LTP107	ltpFR	18	4	n/a	MONEY	908	n/a	n/a	n/a	n/a	n/a	n/a	n/a
-0.002	n/a	REC_WORD	-1	wordpools/wasnorm_wordpool.txt	LTP107	ltpFR	18	4	0	RATTLE	1170	n/a	0	n/a	n/a	n/a	n/a	n/a
-0.002	n/a	REC_WORD	-1	wordpools/wasnorm_wordpool.txt	LTP107	ltpFR	18	4	1	ALLIGATOR	16	n/a	1	n/a	n/a	n/a	n/a	n/a
-0.002	n/a	REC_WORD	-1	wordpools/wasnorm_wordpool.txt	LTP107	ltpFR	18	4	1	DRESSER	496	n/a	0	n/a	n/a	n/a	n/a	n/a
-0.002	n/a	REC_WORD	-1	wordpools/wasnorm_wordpool.txt	LTP107	ltpFR	18	4	0	BARTENDER	92	n/a	1	n/a	n/a	n/a	n/a	n/a
-0.002	n/a	WORD	-1	wordpools/wasnorm_wordpool.txt	LTP107	ltpFR	18	5	1	NOVEL	960	n/a	0	1	0.412841796875	0.57763671875	upper	../fonts/amplitud.ttf
-0.002	n/a	WORD	-1	wordpools/wasnorm_wordpool.txt	LTP107	ltpFR	18	5	1	BUTCHER	203	n/a	1	1	0.412841796875	0.57763671875	upper	../fonts/amplitud.ttf
-0.002	n/a	WORD	-1	wordpools/wasnorm_wordpool.txt	LTP107	ltpFR	18	5	1	FILM	565	n/a	0	1	0.412841796875	0.57763671875	upper	../fonts/amplitud.ttf
-0.002	n/a	WORD	-1	wordpools/wasnorm_wordpool.txt	LTP107	ltpFR	18	5	1	TREAD	1499	n/a	0	1	0.412841796875	0.57763671875	upper	../fonts/amplitud.ttf
-0.002	n/a	WORD	-1	wordpools/wasnorm_wordpool.txt	LTP107	ltpFR	18	5	1	PREDATOR	1120	n/a	1	1	0.412841796875	0.57763671875	upper	../fonts/amplitud.ttf
-0.002	n/a	WORD	-1	wordpools/wasnorm_wordpool.txt	LTP107	ltpFR	18	5	1	OTTER	986	n/a	1	1	0.412841796875	0.57763671875	upper	../fonts/amplitud.ttf
-0.002	n/a	WORD	-1	wordpools/wasnorm_wordpool.txt	LTP107	ltpFR	18	5	1	HANDBAG	684	n/a	0	1	0.412841796875	0.57763671875	upper	../fonts/amplitud.ttf
-0.002	n/a	WORD	-1	wordpools/wasnorm_wordpool.txt	LTP107	ltpFR	18	5	1	WATERFALL	1595	n/a	0	1	0.412841796875	0.57763671875	upper	../fonts/amplitud.ttf
-0.002	n/a	WORD	-1	wordpools/wasnorm_wordpool.txt	LTP107	ltpFR	18	5	1	BUILDER	190	n/a	1	1	0.412841796875	0.57763671875	upper	../fonts/amplitud.ttf
-0.002	n/a	WORD	-1	wordpools/wasnorm_wordpool.txt	LTP107	ltpFR	18	5	1	BRANCH	168	n/a	0	1	0.412841796875	0.57763671875	upper	../fonts/amplitud.ttf
-0.002	n/a	WORD	-1	wordpools/wasnorm_wordpool.txt	LTP107	ltpFR	18	5	1	ROOT	1210	n/a	0	1	0.412841796875	0.57763671875	upper	../fonts/amplitud.ttf
-0.002	n/a	WORD	-1	wordpools/wasnorm_wordpool.txt	LTP107	ltpFR	18	5	1	INFANT	737	n/a	1	1	0.412841796875	0.57763671875	upper	../fonts/amplitud.ttf
-0.002	n/a	WORD	-1	wordpools/wasnorm_wordpool.txt	LTP107	ltpFR	18	5	1	CAFETERIA	217	n/a	0	1	0.412841796875	0.57763671875	upper	../fonts/amplitud.ttf
-0.002	n/a	WORD	-1	wordpools/wasnorm_wordpool.txt	LTP107	ltpFR	18	5	1	ASPIRIN	47	n/a	0	1	0.412841796875	0.57763671875	upper	../fonts/amplitud.ttf
-0.002	n/a	WORD	-1	wordpools/wasnorm_wordpool.txt	LTP107	ltpFR	18	5	1	BRUISE	180	n/a	0	1	0.412841796875	0.57763671875	upper	../fonts/amplitud.ttf
-0.002	n/a	WORD	-1	wordpools/wasnorm_wordpool.txt	LTP107	ltpFR	18	5	1	LIVER	833	n/a	0	1	0.412841796875	0.57763671875	upper	../fonts/amplitud.ttf
-0.002	n/a	REC_START	-1	n/a	LTP107	ltpFR	18	5	n/a	n/a	n/a	n/a	n/a	n/a	n/a	n/a	n/a	n/a
-0.002	n/a	REC_WORD	-1	wordpools/wasnorm_wordpool.txt	LTP107	ltpFR	18	5	1	LIVER	833	n/a	0	n/a	n/a	n/a	n/a	n/a
-0.002	n/a	REC_WORD	-1	wordpools/wasnorm_wordpool.txt	LTP107	ltpFR	18	5	1	BRUISE	180	n/a	0	n/a	n/a	n/a	n/a	n/a
-0.002	n/a	REC_WORD	-1	wordpools/wasnorm_wordpool.txt	LTP107	ltpFR	18	5	1	ASPIRIN	47	n/a	0	n/a	n/a	n/a	n/a	n/a
-0.002	n/a	REC_WORD	-1	wordpools/wasnorm_wordpool.txt	LTP107	ltpFR	18	5	1	CAFETERIA	217	n/a	0	n/a	n/a	n/a	n/a	n/a
-0.002	n/a	REC_WORD	-1	wordpools/wasnorm_wordpool.txt	LTP107	ltpFR	18	5	1	INFANT	737	n/a	1	n/a	n/a	n/a	n/a	n/a
-0.002	n/a	REC_WORD	-1	wordpools/wasnorm_wordpool.txt	LTP107	ltpFR	18	5	1	WATERFALL	1595	n/a	0	n/a	n/a	n/a	n/a	n/a
-0.002	n/a	REC_WORD	-1	wordpools/wasnorm_wordpool.txt	LTP107	ltpFR	18	5	1	BUTCHER	203	n/a	1	n/a	n/a	n/a	n/a	n/a
-0.002	n/a	REC_WORD	-1	wordpools/wasnorm_wordpool.txt	LTP107	ltpFR	18	5	1	BUILDER	190	n/a	1	n/a	n/a	n/a	n/a	n/a
-0.002	n/a	REC_WORD	-1	wordpools/wasnorm_wordpool.txt	LTP107	ltpFR	18	5	1	CAFETERIA	217	n/a	0	n/a	n/a	n/a	n/a	n/a
-0.002	n/a	REC_WORD	-1	wordpools/wasnorm_wordpool.txt	LTP107	ltpFR	18	5	1	HANDBAG	684	n/a	0	n/a	n/a	n/a	n/a	n/a
-0.002	n/a	REC_WORD_VV	-1	wordpools/wasnorm_wordpool.txt	LTP107	ltpFR	18	5	n/a	<>	-1	n/a	n/a	n/a	n/a	n/a	n/a	n/a
-0.002	n/a	REC_WORD	-1	wordpools/wasnorm_wordpool.txt	LTP107	ltpFR	18	5	n/a	PURSE	1145	n/a	n/a	n/a	n/a	n/a	n/a	n/a
-0.002	n/a	REC_WORD	-1	wordpools/wasnorm_wordpool.txt	LTP107	ltpFR	18	5	1	OTTER	986	n/a	1	n/a	n/a	n/a	n/a	n/a
-0.002	n/a	REC_WORD	-1	wordpools/wasnorm_wordpool.txt	LTP107	ltpFR	18	5	1	NOVEL	960	n/a	0	n/a	n/a	n/a	n/a	n/a
-0.002	n/a	REC_WORD	-1	wordpools/wasnorm_wordpool.txt	LTP107	ltpFR	18	5	1	BUTCHER	203	n/a	1	n/a	n/a	n/a	n/a	n/a
-0.002	n/a	REC_WORD	-1	wordpools/wasnorm_wordpool.txt	LTP107	ltpFR	18	5	1	PREDATOR	1120	n/a	1	n/a	n/a	n/a	n/a	n/a
-0.002	n/a	WORD	-1	wordpools/wasnorm_wordpool.txt	LTP107	ltpFR	18	6	0	SIGNATURE	1306	n/a	2	0	0.5869140625	0.422607421875	lower	../fonts/zerothre.ttf
-0.002	n/a	KEY_MSG	-1	n/a	LTP107	ltpFR	18	6	n/a	n/a	n/a	n/a	n/a	n/a	n/a	n/a	n/a	n/a
-0.002	n/a	WORD	-1	wordpools/wasnorm_wordpool.txt	LTP107	ltpFR	18	6	0	AIRPLANE	12	n/a	1	0	0.5869140625	0.422607421875	lower	../fonts/zerothre.ttf
-0.002	n/a	WORD	-1	wordpools/wasnorm_wordpool.txt	LTP107	ltpFR	18	6	0	WAVE	1596	n/a	1	0	0.5869140625	0.422607421875	lower	../fonts/zerothre.ttf
-0.002	n/a	WORD	-1	wordpools/wasnorm_wordpool.txt	LTP107	ltpFR	18	6	0	BATH	98	n/a	1	0	0.5869140625	0.422607421875	lower	../fonts/zerothre.ttf
-0.002	n/a	WORD	-1	wordpools/wasnorm_wordpool.txt	LTP107	ltpFR	18	6	0	BUBBLE	183	n/a	0	0	0.5869140625	0.422607421875	lower	../fonts/zerothre.ttf
-0.002	n/a	WORD	-1	wordpools/wasnorm_wordpool.txt	LTP107	ltpFR	18	6	0	SPICE	1350	n/a	0	0	0.5869140625	0.422607421875	lower	../fonts/zerothre.ttf
-0.002	n/a	WORD	-1	wordpools/wasnorm_wordpool.txt	LTP107	ltpFR	18	6	0	PEDESTRIAN	1038	n/a	1	0	0.5869140625	0.422607421875	lower	../fonts/zerothre.ttf
-0.002	n/a	WORD	-1	wordpools/wasnorm_wordpool.txt	LTP107	ltpFR	18	6	0	BANNER	85	n/a	1	0	0.5869140625	0.422607421875	lower	../fonts/zerothre.ttf
-0.002	n/a	WORD	-1	wordpools/wasnorm_wordpool.txt	LTP107	ltpFR	18	6	0	PATRIOT	1026	n/a	0	0	0.5869140625	0.422607421875	lower	../fonts/zerothre.ttf
-0.002	n/a	WORD	-1	wordpools/wasnorm_wordpool.txt	LTP107	ltpFR	18	6	0	ANIMAL	23	n/a	1	0	0.5869140625	0.422607421875	lower	../fonts/zerothre.ttf
-0.002	n/a	WORD	-1	wordpools/wasnorm_wordpool.txt	LTP107	ltpFR	18	6	0	LIZARD	834	n/a	0	0	0.5869140625	0.422607421875	lower	../fonts/zerothre.ttf
-0.002	n/a	WORD	-1	wordpools/wasnorm_wordpool.txt	LTP107	ltpFR	18	6	0	MAGAZINE	853	n/a	0	0	0.5869140625	0.422607421875	lower	../fonts/zerothre.ttf
-0.002	n/a	WORD	-1	wordpools/wasnorm_wordpool.txt	LTP107	ltpFR	18	6	0	CATHEDRAL	260	n/a	1	0	0.5869140625	0.422607421875	lower	../fonts/zerothre.ttf
-0.002	n/a	WORD	-1	wordpools/wasnorm_wordpool.txt	LTP107	ltpFR	18	6	0	DIVER	476	n/a	1	0	0.5869140625	0.422607421875	lower	../fonts/zerothre.ttf
-0.002	n/a	WORD	-1	wordpools/wasnorm_wordpool.txt	LTP107	ltpFR	18	6	0	BLOCKADE	137	n/a	1	0	0.5869140625	0.422607421875	lower	../fonts/zerothre.ttf
-0.002	n/a	WORD	-1	wordpools/wasnorm_wordpool.txt	LTP107	ltpFR	18	6	0	CINNAMON	310	n/a	0	0	0.5869140625	0.422607421875	lower	../fonts/zerothre.ttf
-0.002	n/a	REC_START	-1	n/a	LTP107	ltpFR	18	6	n/a	n/a	n/a	n/a	n/a	n/a	n/a	n/a	n/a	n/a
-0.002	n/a	REC_WORD	-1	wordpools/wasnorm_wordpool.txt	LTP107	ltpFR	18	6	0	CINNAMON	310	n/a	0	n/a	n/a	n/a	n/a	n/a
-0.002	n/a	REC_WORD	-1	wordpools/wasnorm_wordpool.txt	LTP107	ltpFR	18	6	0	SPICE	1350	n/a	0	n/a	n/a	n/a	n/a	n/a
-0.002	n/a	REC_WORD	-1	wordpools/wasnorm_wordpool.txt	LTP107	ltpFR	18	6	0	BLOCKADE	137	n/a	1	n/a	n/a	n/a	n/a	n/a
-0.002	n/a	REC_WORD	-1	wordpools/wasnorm_wordpool.txt	LTP107	ltpFR	18	6	0	ANIMAL	23	n/a	1	n/a	n/a	n/a	n/a	n/a
-0.002	n/a	REC_WORD	-1	wordpools/wasnorm_wordpool.txt	LTP107	ltpFR	18	6	0	WAVE	1596	n/a	1	n/a	n/a	n/a	n/a	n/a
-0.002	n/a	REC_WORD	-1	wordpools/wasnorm_wordpool.txt	LTP107	ltpFR	18	6	n/a	SURF	1412	n/a	n/a	n/a	n/a	n/a	n/a	n/a
-0.002	n/a	REC_WORD	-1	wordpools/wasnorm_wordpool.txt	LTP107	ltpFR	18	6	0	AIRPLANE	12	n/a	1	n/a	n/a	n/a	n/a	n/a
-0.002	n/a	REC_WORD	-1	wordpools/wasnorm_wordpool.txt	LTP107	ltpFR	18	6	0	SIGNATURE	1306	n/a	2	n/a	n/a	n/a	n/a	n/a
-0.002	n/a	REC_WORD	-1	wordpools/wasnorm_wordpool.txt	LTP107	ltpFR	18	6	0	BANNER	85	n/a	1	n/a	n/a	n/a	n/a	n/a
-0.002	n/a	REC_WORD	-1	wordpools/wasnorm_wordpool.txt	LTP107	ltpFR	18	6	0	CATHEDRAL	260	n/a	1	n/a	n/a	n/a	n/a	n/a
-0.002	n/a	REC_WORD	-1	wordpools/wasnorm_wordpool.txt	LTP107	ltpFR	18	6	0	PEDESTRIAN	1038	n/a	1	n/a	n/a	n/a	n/a	n/a
-0.002	n/a	REC_WORD	-1	wordpools/wasnorm_wordpool.txt	LTP107	ltpFR	18	6	0	LIZARD	834	n/a	0	n/a	n/a	n/a	n/a	n/a
-0.002	n/a	REC_WORD	-1	wordpools/wasnorm_wordpool.txt	LTP107	ltpFR	18	6	0	MAGAZINE	853	n/a	0	n/a	n/a	n/a	n/a	n/a
-0.002	n/a	REC_WORD	-1	wordpools/wasnorm_wordpool.txt	LTP107	ltpFR	18	6	0	BATH	98	n/a	1	n/a	n/a	n/a	n/a	n/a
-0.002	n/a	REC_WORD	-1	wordpools/wasnorm_wordpool.txt	LTP107	ltpFR	18	6	0	BUBBLE	183	n/a	0	n/a	n/a	n/a	n/a	n/a
-0.002	n/a	REC_WORD	-1	wordpools/wasnorm_wordpool.txt	LTP107	ltpFR	18	6	n/a	SHOWER	1296	n/a	n/a	n/a	n/a	n/a	n/a	n/a
-0.002	n/a	REC_WORD	-1	wordpools/wasnorm_wordpool.txt	LTP107	ltpFR	18	6	0	DIVER	476	n/a	1	n/a	n/a	n/a	n/a	n/a
-0.002	n/a	REC_WORD	-1	wordpools/wasnorm_wordpool.txt	LTP107	ltpFR	18	6	n/a	OCEAN	970	n/a	n/a	n/a	n/a	n/a	n/a	n/a
-0.002	n/a	REC_WORD	-1	wordpools/wasnorm_wordpool.txt	LTP107	ltpFR	18	6	0	BLOCKADE	137	n/a	1	n/a	n/a	n/a	n/a	n/a
-0.002	n/a	WORD	-1	wordpools/wasnorm_wordpool.txt	LTP107	ltpFR	18	7	-1	GALAXY	617	n/a	-1	1	1.0	1.0	upper	../fonts/Verdana.ttf
-0.002	n/a	WORD	-1	wordpools/wasnorm_wordpool.txt	LTP107	ltpFR	18	7	-1	DOUGH	489	n/a	-1	1	1.0	1.0	upper	../fonts/Verdana.ttf
-0.002	n/a	WORD	-1	wordpools/wasnorm_wordpool.txt	LTP107	ltpFR	18	7	-1	CAMEL	223	n/a	-1	1	1.0	1.0	upper	../fonts/Verdana.ttf
-0.002	n/a	WORD	-1	wordpools/wasnorm_wordpool.txt	LTP107	ltpFR	18	7	-1	SWIMMER	1420	n/a	-1	1	1.0	1.0	upper	../fonts/Verdana.ttf
-0.002	n/a	WORD	-1	wordpools/wasnorm_wordpool.txt	LTP107	ltpFR	18	7	-1	PEANUT	1032	n/a	-1	1	1.0	1.0	upper	../fonts/Verdana.ttf
-0.002	n/a	WORD	-1	wordpools/wasnorm_wordpool.txt	LTP107	ltpFR	18	7	-1	MOON	914	n/a	-1	1	1.0	1.0	upper	../fonts/Verdana.ttf
-0.002	n/a	WORD	-1	wordpools/wasnorm_wordpool.txt	LTP107	ltpFR	18	7	-1	BEDROOM	111	n/a	-1	1	1.0	1.0	upper	../fonts/Verdana.ttf
-0.002	n/a	WORD	-1	wordpools/wasnorm_wordpool.txt	LTP107	ltpFR	18	7	-1	WAITRESS	1581	n/a	-1	1	1.0	1.0	upper	../fonts/Verdana.ttf
-0.002	n/a	WORD	-1	wordpools/wasnorm_wordpool.txt	LTP107	ltpFR	18	7	-1	MAID	856	n/a	-1	1	1.0	1.0	upper	../fonts/Verdana.ttf
-0.002	n/a	WORD	-1	wordpools/wasnorm_wordpool.txt	LTP107	ltpFR	18	7	-1	MARBLE	867	n/a	-1	1	1.0	1.0	upper	../fonts/Verdana.ttf
-0.002	n/a	WORD	-1	wordpools/wasnorm_wordpool.txt	LTP107	ltpFR	18	7	-1	NUCLEUS	961	n/a	-1	1	1.0	1.0	upper	../fonts/Verdana.ttf
-0.002	n/a	WORD	-1	wordpools/wasnorm_wordpool.txt	LTP107	ltpFR	18	7	-1	LOOP	844	n/a	-1	1	1.0	1.0	upper	../fonts/Verdana.ttf
-0.002	n/a	WORD	-1	wordpools/wasnorm_wordpool.txt	LTP107	ltpFR	18	7	-1	HORNET	718	n/a	-1	1	1.0	1.0	upper	../fonts/Verdana.ttf
-0.002	n/a	WORD	-1	wordpools/wasnorm_wordpool.txt	LTP107	ltpFR	18	7	-1	CARAVAN	242	n/a	-1	1	1.0	1.0	upper	../fonts/Verdana.ttf
-0.002	n/a	WORD	-1	wordpools/wasnorm_wordpool.txt	LTP107	ltpFR	18	7	-1	CAR	241	n/a	-1	1	1.0	1.0	upper	../fonts/Verdana.ttf
-0.002	n/a	WORD	-1	wordpools/wasnorm_wordpool.txt	LTP107	ltpFR	18	7	-1	SHELTER	1282	n/a	-1	1	1.0	1.0	upper	../fonts/Verdana.ttf
-0.002	n/a	REC_START	-1	n/a	LTP107	ltpFR	18	7	n/a	n/a	n/a	n/a	n/a	n/a	n/a	n/a	n/a	n/a
-0.002	n/a	REC_WORD	-1	wordpools/wasnorm_wordpool.txt	LTP107	ltpFR	18	7	-1	SHELTER	1282	n/a	-1	n/a	n/a	n/a	n/a	n/a
-0.002	n/a	REC_WORD	-1	wordpools/wasnorm_wordpool.txt	LTP107	ltpFR	18	7	-1	CARAVAN	242	n/a	-1	n/a	n/a	n/a	n/a	n/a
-0.002	n/a	REC_WORD	-1	wordpools/wasnorm_wordpool.txt	LTP107	ltpFR	18	7	-1	CAR	241	n/a	-1	n/a	n/a	n/a	n/a	n/a
-0.002	n/a	REC_WORD	-1	wordpools/wasnorm_wordpool.txt	LTP107	ltpFR	18	7	-1	LOOP	844	n/a	-1	n/a	n/a	n/a	n/a	n/a
-0.002	n/a	REC_WORD	-1	wordpools/wasnorm_wordpool.txt	LTP107	ltpFR	18	7	-1	NUCLEUS	961	n/a	-1	n/a	n/a	n/a	n/a	n/a
-0.002	n/a	REC_WORD	-1	wordpools/wasnorm_wordpool.txt	LTP107	ltpFR	18	7	-1	MARBLE	867	n/a	-1	n/a	n/a	n/a	n/a	n/a
-0.002	n/a	REC_WORD	-1	wordpools/wasnorm_wordpool.txt	LTP107	ltpFR	18	7	-1	GALAXY	617	n/a	-1	n/a	n/a	n/a	n/a	n/a
-0.002	n/a	REC_WORD	-1	wordpools/wasnorm_wordpool.txt	LTP107	ltpFR	18	7	-1	MOON	914	n/a	-1	n/a	n/a	n/a	n/a	n/a
-0.002	n/a	REC_WORD	-1	wordpools/wasnorm_wordpool.txt	LTP107	ltpFR	18	7	-1	BEDROOM	111	n/a	-1	n/a	n/a	n/a	n/a	n/a
-0.002	n/a	REC_WORD	-1	wordpools/wasnorm_wordpool.txt	LTP107	ltpFR	18	7	-1	CARAVAN	242	n/a	-1	n/a	n/a	n/a	n/a	n/a
-0.002	n/a	REC_WORD	-1	wordpools/wasnorm_wordpool.txt	LTP107	ltpFR	18	7	-1	CAR	241	n/a	-1	n/a	n/a	n/a	n/a	n/a
-0.002	n/a	REC_WORD	-1	wordpools/wasnorm_wordpool.txt	LTP107	ltpFR	18	7	-1	LOOP	844	n/a	-1	n/a	n/a	n/a	n/a	n/a
-0.002	n/a	REC_WORD	-1	wordpools/wasnorm_wordpool.txt	LTP107	ltpFR	18	7	-1	BEDROOM	111	n/a	-1	n/a	n/a	n/a	n/a	n/a
-0.002	n/a	REC_WORD	-1	wordpools/wasnorm_wordpool.txt	LTP107	ltpFR	18	7	-1	WAITRESS	1581	n/a	-1	n/a	n/a	n/a	n/a	n/a
-0.002	n/a	REC_WORD	-1	wordpools/wasnorm_wordpool.txt	LTP107	ltpFR	18	7	-1	MAID	856	n/a	-1	n/a	n/a	n/a	n/a	n/a
-0.002	n/a	REC_WORD	-1	wordpools/wasnorm_wordpool.txt	LTP107	ltpFR	18	7	-1	PEANUT	1032	n/a	-1	n/a	n/a	n/a	n/a	n/a
-0.002	n/a	REC_WORD	-1	wordpools/wasnorm_wordpool.txt	LTP107	ltpFR	18	7	n/a	PEANUTBUTTER	-1	n/a	n/a	n/a	n/a	n/a	n/a	n/a
-0.002	n/a	REC_WORD	-1	wordpools/wasnorm_wordpool.txt	LTP107	ltpFR	18	7	-1	DOUGH	489	n/a	-1	n/a	n/a	n/a	n/a	n/a
-0.002	n/a	REC_WORD	-1	wordpools/wasnorm_wordpool.txt	LTP107	ltpFR	18	7	-1	BATHROOM	99	n/a	-1	n/a	n/a	n/a	n/a	n/a
-0.002	n/a	REC_WORD	-1	wordpools/wasnorm_wordpool.txt	LTP107	ltpFR	18	7	-1	GALAXY	617	n/a	-1	n/a	n/a	n/a	n/a	n/a
-0.002	n/a	WORD	-1	wordpools/wasnorm_wordpool.txt	LTP107	ltpFR	18	8	1	UNIVERSE	1540	n/a	0	1	0.412841796875	0.57763671875	upper	../fonts/amplitud.ttf
-0.002	n/a	WORD	-1	wordpools/wasnorm_wordpool.txt	LTP107	ltpFR	18	8	1	EARTH	515	n/a	0	1	0.412841796875	0.57763671875	upper	../fonts/amplitud.ttf
-0.002	n/a	WORD	-1	wordpools/wasnorm_wordpool.txt	LTP107	ltpFR	18	8	1	SIDING	1304	n/a	0	1	0.412841796875	0.57763671875	upper	../fonts/amplitud.ttf
-0.002	n/a	WORD	-1	wordpools/wasnorm_wordpool.txt	LTP107	ltpFR	18	8	1	CHEERLEADER	288	n/a	1	1	0.412841796875	0.57763671875	upper	../fonts/amplitud.ttf
-0.002	n/a	WORD	-1	wordpools/wasnorm_wordpool.txt	LTP107	ltpFR	18	8	1	TEAM	1441	n/a	0	1	0.412841796875	0.57763671875	upper	../fonts/amplitud.ttf
-0.002	n/a	WORD	-1	wordpools/wasnorm_wordpool.txt	LTP107	ltpFR	18	8	1	DUNGEON	507	n/a	0	1	0.412841796875	0.57763671875	upper	../fonts/amplitud.ttf
-0.002	n/a	WORD	-1	wordpools/wasnorm_wordpool.txt	LTP107	ltpFR	18	8	1	TOAD	1470	n/a	1	1	0.412841796875	0.57763671875	upper	../fonts/amplitud.ttf
-0.002	n/a	WORD	-1	wordpools/wasnorm_wordpool.txt	LTP107	ltpFR	18	8	1	AGENT	10	n/a	1	1	0.412841796875	0.57763671875	upper	../fonts/amplitud.ttf
-0.002	n/a	WORD	-1	wordpools/wasnorm_wordpool.txt	LTP107	ltpFR	18	8	1	COAT	333	n/a	0	1	0.412841796875	0.57763671875	upper	../fonts/amplitud.ttf
-0.002	n/a	WORD	-1	wordpools/wasnorm_wordpool.txt	LTP107	ltpFR	18	8	1	BOTTLE	153	n/a	0	1	0.412841796875	0.57763671875	upper	../fonts/amplitud.ttf
-0.002	n/a	WORD	-1	wordpools/wasnorm_wordpool.txt	LTP107	ltpFR	18	8	1	PALACE	1006	n/a	0	1	0.412841796875	0.57763671875	upper	../fonts/amplitud.ttf
-0.002	n/a	WORD	-1	wordpools/wasnorm_wordpool.txt	LTP107	ltpFR	18	8	1	BIKE	125	n/a	0	1	0.412841796875	0.57763671875	upper	../fonts/amplitud.ttf
-0.002	n/a	WORD	-1	wordpools/wasnorm_wordpool.txt	LTP107	ltpFR	18	8	1	COSTUME	383	n/a	0	1	0.412841796875	0.57763671875	upper	../fonts/amplitud.ttf
-0.002	n/a	WORD	-1	wordpools/wasnorm_wordpool.txt	LTP107	ltpFR	18	8	1	EYELASH	546	n/a	0	1	0.412841796875	0.57763671875	upper	../fonts/amplitud.ttf
-0.002	n/a	WORD	-1	wordpools/wasnorm_wordpool.txt	LTP107	ltpFR	18	8	1	TRENCH	1503	n/a	0	1	0.412841796875	0.57763671875	upper	../fonts/amplitud.ttf
-0.002	n/a	WORD	-1	wordpools/wasnorm_wordpool.txt	LTP107	ltpFR	18	8	1	KING	777	n/a	1	1	0.412841796875	0.57763671875	upper	../fonts/amplitud.ttf
-0.002	n/a	REC_START	-1	n/a	LTP107	ltpFR	18	8	n/a	n/a	n/a	n/a	n/a	n/a	n/a	n/a	n/a	n/a
-0.002	n/a	REC_WORD	-1	wordpools/wasnorm_wordpool.txt	LTP107	ltpFR	18	8	1	KING	777	n/a	1	n/a	n/a	n/a	n/a	n/a
-0.002	n/a	REC_WORD	-1	wordpools/wasnorm_wordpool.txt	LTP107	ltpFR	18	8	1	PALACE	1006	n/a	0	n/a	n/a	n/a	n/a	n/a
-0.002	n/a	REC_WORD	-1	wordpools/wasnorm_wordpool.txt	LTP107	ltpFR	18	8	1	DUNGEON	507	n/a	0	n/a	n/a	n/a	n/a	n/a
-0.002	n/a	REC_WORD	-1	wordpools/wasnorm_wordpool.txt	LTP107	ltpFR	18	8	1	AGENT	10	n/a	1	n/a	n/a	n/a	n/a	n/a
-0.002	n/a	REC_WORD	-1	wordpools/wasnorm_wordpool.txt	LTP107	ltpFR	18	8	1	BIKE	125	n/a	0	n/a	n/a	n/a	n/a	n/a
-0.002	n/a	REC_WORD	-1	wordpools/wasnorm_wordpool.txt	LTP107	ltpFR	18	8	1	BOTTLE	153	n/a	0	n/a	n/a	n/a	n/a	n/a
-0.002	n/a	REC_WORD	-1	wordpools/wasnorm_wordpool.txt	LTP107	ltpFR	18	8	1	COAT	333	n/a	0	n/a	n/a	n/a	n/a	n/a
-0.002	n/a	REC_WORD	-1	wordpools/wasnorm_wordpool.txt	LTP107	ltpFR	18	8	1	TRENCH	1503	n/a	0	n/a	n/a	n/a	n/a	n/a
-0.002	n/a	REC_WORD	-1	wordpools/wasnorm_wordpool.txt	LTP107	ltpFR	18	8	1	COSTUME	383	n/a	0	n/a	n/a	n/a	n/a	n/a
-0.002	n/a	REC_WORD	-1	wordpools/wasnorm_wordpool.txt	LTP107	ltpFR	18	8	1	CHEERLEADER	288	n/a	1	n/a	n/a	n/a	n/a	n/a
-0.002	n/a	REC_WORD	-1	wordpools/wasnorm_wordpool.txt	LTP107	ltpFR	18	8	1	TEAM	1441	n/a	0	n/a	n/a	n/a	n/a	n/a
-0.002	n/a	REC_WORD	-1	wordpools/wasnorm_wordpool.txt	LTP107	ltpFR	18	8	1	TOAD	1470	n/a	1	n/a	n/a	n/a	n/a	n/a
-0.002	n/a	REC_WORD	-1	wordpools/wasnorm_wordpool.txt	LTP107	ltpFR	18	8	1	EYELASH	546	n/a	0	n/a	n/a	n/a	n/a	n/a
-0.002	n/a	REC_WORD	-1	wordpools/wasnorm_wordpool.txt	LTP107	ltpFR	18	8	1	CHEERLEADER	288	n/a	1	n/a	n/a	n/a	n/a	n/a
-0.002	n/a	REC_WORD	-1	wordpools/wasnorm_wordpool.txt	LTP107	ltpFR	18	8	1	UNIVERSE	1540	n/a	0	n/a	n/a	n/a	n/a	n/a
-0.002	n/a	REC_WORD	-1	wordpools/wasnorm_wordpool.txt	LTP107	ltpFR	18	8	1	EARTH	515	n/a	0	n/a	n/a	n/a	n/a	n/a
-0.002	n/a	REC_WORD	-1	wordpools/wasnorm_wordpool.txt	LTP107	ltpFR	18	8	1	SIDING	1304	n/a	0	n/a	n/a	n/a	n/a	n/a
-0.002	n/a	REC_WORD	-1	wordpools/wasnorm_wordpool.txt	LTP107	ltpFR	18	8	1	COSTUME	383	n/a	0	n/a	n/a	n/a	n/a	n/a
-0.002	n/a	REC_WORD	-1	wordpools/wasnorm_wordpool.txt	LTP107	ltpFR	18	8	n/a	UNIFORM	1539	n/a	n/a	n/a	n/a	n/a	n/a	n/a
-0.002	n/a	REC_WORD	-1	wordpools/wasnorm_wordpool.txt	LTP107	ltpFR	18	8	1	TRENCH	1503	n/a	0	n/a	n/a	n/a	n/a	n/a
-0.002	n/a	WORD	-1	wordpools/wasnorm_wordpool.txt	LTP107	ltpFR	18	9	0	SLEEVE	1324	n/a	0	0	0.5869140625	0.422607421875	lower	../fonts/zerothre.ttf
-0.002	n/a	WORD	-1	wordpools/wasnorm_wordpool.txt	LTP107	ltpFR	18	9	0	EMPIRE	530	n/a	1	0	0.5869140625	0.422607421875	lower	../fonts/zerothre.ttf
-0.002	n/a	WORD	-1	wordpools/wasnorm_wordpool.txt	LTP107	ltpFR	18	9	0	BARREL	91	n/a	1	0	0.5869140625	0.422607421875	lower	../fonts/zerothre.ttf
-0.002	n/a	WORD	-1	wordpools/wasnorm_wordpool.txt	LTP107	ltpFR	18	9	0	SKIRT	1319	n/a	0	0	0.5869140625	0.422607421875	lower	../fonts/zerothre.ttf
-0.002	n/a	WORD	-1	wordpools/wasnorm_wordpool.txt	LTP107	ltpFR	18	9	0	FAMILY	550	n/a	1	0	0.5869140625	0.422607421875	lower	../fonts/zerothre.ttf
-0.002	n/a	WORD	-1	wordpools/wasnorm_wordpool.txt	LTP107	ltpFR	18	9	0	MOTHER	921	n/a	1	0	0.5869140625	0.422607421875	lower	../fonts/zerothre.ttf
-0.002	n/a	WORD	-1	wordpools/wasnorm_wordpool.txt	LTP107	ltpFR	18	9	0	SHORE	1291	n/a	1	0	0.5869140625	0.422607421875	lower	../fonts/zerothre.ttf
-0.002	n/a	WORD	-1	wordpools/wasnorm_wordpool.txt	LTP107	ltpFR	18	9	0	TURTLE	1522	n/a	0	0	0.5869140625	0.422607421875	lower	../fonts/zerothre.ttf
-0.002	n/a	WORD	-1	wordpools/wasnorm_wordpool.txt	LTP107	ltpFR	18	9	0	TWINE	1529	n/a	0	0	0.5869140625	0.422607421875	lower	../fonts/zerothre.ttf
-0.002	n/a	WORD	-1	wordpools/wasnorm_wordpool.txt	LTP107	ltpFR	18	9	0	RAISIN	1163	n/a	0	0	0.5869140625	0.422607421875	lower	../fonts/zerothre.ttf
-0.002	n/a	WORD	-1	wordpools/wasnorm_wordpool.txt	LTP107	ltpFR	18	9	0	SAND	1230	n/a	0	0	0.5869140625	0.422607421875	lower	../fonts/zerothre.ttf
-0.002	n/a	WORD	-1	wordpools/wasnorm_wordpool.txt	LTP107	ltpFR	18	9	0	GUN	673	n/a	0	0	0.5869140625	0.422607421875	lower	../fonts/zerothre.ttf
-0.002	n/a	WORD	-1	wordpools/wasnorm_wordpool.txt	LTP107	ltpFR	18	9	0	STAGE	1366	n/a	1	0	0.5869140625	0.422607421875	lower	../fonts/zerothre.ttf
-0.002	n/a	WORD	-1	wordpools/wasnorm_wordpool.txt	LTP107	ltpFR	18	9	0	ACTOR	5	n/a	1	0	0.5869140625	0.422607421875	lower	../fonts/zerothre.ttf
-0.002	n/a	WORD	-1	wordpools/wasnorm_wordpool.txt	LTP107	ltpFR	18	9	0	CHIP	303	n/a	0	0	0.5869140625	0.422607421875	lower	../fonts/zerothre.ttf
-0.002	n/a	WORD	-1	wordpools/wasnorm_wordpool.txt	LTP107	ltpFR	18	9	0	BRIEFCASE	175	n/a	0	0	0.5869140625	0.422607421875	lower	../fonts/zerothre.ttf
-0.002	n/a	REC_START	-1	n/a	LTP107	ltpFR	18	9	n/a	n/a	n/a	n/a	n/a	n/a	n/a	n/a	n/a	n/a
-0.002	n/a	REC_WORD	-1	wordpools/wasnorm_wordpool.txt	LTP107	ltpFR	18	9	0	BRIEFCASE	175	n/a	0	n/a	n/a	n/a	n/a	n/a
-0.002	n/a	REC_WORD	-1	wordpools/wasnorm_wordpool.txt	LTP107	ltpFR	18	9	0	CHIP	303	n/a	0	n/a	n/a	n/a	n/a	n/a
-0.002	n/a	REC_WORD	-1	wordpools/wasnorm_wordpool.txt	LTP107	ltpFR	18	9	0	STAGE	1366	n/a	1	n/a	n/a	n/a	n/a	n/a
-0.002	n/a	REC_WORD	-1	wordpools/wasnorm_wordpool.txt	LTP107	ltpFR	18	9	0	ACTOR	5	n/a	1	n/a	n/a	n/a	n/a	n/a
-0.002	n/a	REC_WORD	-1	wordpools/wasnorm_wordpool.txt	LTP107	ltpFR	18	9	0	GUN	673	n/a	0	n/a	n/a	n/a	n/a	n/a
-0.002	n/a	REC_WORD	-1	wordpools/wasnorm_wordpool.txt	LTP107	ltpFR	18	9	0	BARREL	91	n/a	1	n/a	n/a	n/a	n/a	n/a
-0.002	n/a	REC_WORD	-1	wordpools/wasnorm_wordpool.txt	LTP107	ltpFR	18	9	0	FAMILY	550	n/a	1	n/a	n/a	n/a	n/a	n/a
-0.002	n/a	REC_WORD	-1	wordpools/wasnorm_wordpool.txt	LTP107	ltpFR	18	9	0	MOTHER	921	n/a	1	n/a	n/a	n/a	n/a	n/a
-0.002	n/a	REC_WORD	-1	wordpools/wasnorm_wordpool.txt	LTP107	ltpFR	18	9	0	EMPEROR	529	n/a	1	n/a	n/a	n/a	n/a	n/a
-0.002	n/a	REC_WORD	-1	wordpools/wasnorm_wordpool.txt	LTP107	ltpFR	18	9	0	EMPIRE	530	n/a	1	n/a	n/a	n/a	n/a	n/a
-0.002	n/a	REC_WORD	-1	wordpools/wasnorm_wordpool.txt	LTP107	ltpFR	18	9	0	SLEEVE	1324	n/a	0	n/a	n/a	n/a	n/a	n/a
-0.002	n/a	REC_WORD	-1	wordpools/wasnorm_wordpool.txt	LTP107	ltpFR	18	9	0	BARREL	91	n/a	1	n/a	n/a	n/a	n/a	n/a
-0.002	n/a	REC_WORD	-1	wordpools/wasnorm_wordpool.txt	LTP107	ltpFR	18	9	0	SHORE	1291	n/a	1	n/a	n/a	n/a	n/a	n/a
-0.002	n/a	REC_WORD	-1	wordpools/wasnorm_wordpool.txt	LTP107	ltpFR	18	9	0	SAND	1230	n/a	0	n/a	n/a	n/a	n/a	n/a
-0.002	n/a	REC_WORD	-1	wordpools/wasnorm_wordpool.txt	LTP107	ltpFR	18	9	0	TURTLE	1522	n/a	0	n/a	n/a	n/a	n/a	n/a
-0.002	n/a	REC_WORD	-1	wordpools/wasnorm_wordpool.txt	LTP107	ltpFR	18	9	0	WAVE	1596	n/a	1	n/a	n/a	n/a	n/a	n/a
-0.002	n/a	REC_WORD	-1	wordpools/wasnorm_wordpool.txt	LTP107	ltpFR	18	9	n/a	SURF	1412	n/a	n/a	n/a	n/a	n/a	n/a	n/a
-0.002	n/a	REC_WORD	-1	wordpools/wasnorm_wordpool.txt	LTP107	ltpFR	18	9	0	CATHEDRAL	260	n/a	1	n/a	n/a	n/a	n/a	n/a
-0.002	n/a	WORD	-1	wordpools/wasnorm_wordpool.txt	LTP107	ltpFR	18	10	1	POET	1095	n/a	1	1	0.412841796875	0.57763671875	upper	../fonts/amplitud.ttf
-0.002	n/a	WORD	-1	wordpools/wasnorm_wordpool.txt	LTP107	ltpFR	18	10	1	PILLOW	1069	n/a	0	1	0.412841796875	0.57763671875	upper	../fonts/amplitud.ttf
-0.002	n/a	WORD	-1	wordpools/wasnorm_wordpool.txt	LTP107	ltpFR	18	10	1	ATTIRE	57	n/a	0	1	0.412841796875	0.57763671875	upper	../fonts/amplitud.ttf
-0.002	n/a	WORD	-1	wordpools/wasnorm_wordpool.txt	LTP107	ltpFR	18	10	1	TREE	1502	n/a	1	1	0.412841796875	0.57763671875	upper	../fonts/amplitud.ttf
-0.002	n/a	WORD	-1	wordpools/wasnorm_wordpool.txt	LTP107	ltpFR	18	10	1	CASTLE	256	n/a	0	1	0.412841796875	0.57763671875	upper	../fonts/amplitud.ttf
-0.002	n/a	WORD	-1	wordpools/wasnorm_wordpool.txt	LTP107	ltpFR	18	10	1	CHIMPANZEE	302	n/a	1	1	0.412841796875	0.57763671875	upper	../fonts/amplitud.ttf
-0.002	n/a	WORD	-1	wordpools/wasnorm_wordpool.txt	LTP107	ltpFR	18	10	1	PORCH	1106	n/a	0	1	0.412841796875	0.57763671875	upper	../fonts/amplitud.ttf
-0.002	n/a	WORD	-1	wordpools/wasnorm_wordpool.txt	LTP107	ltpFR	18	10	1	APE	31	n/a	1	1	0.412841796875	0.57763671875	upper	../fonts/amplitud.ttf
-0.002	n/a	WORD	-1	wordpools/wasnorm_wordpool.txt	LTP107	ltpFR	18	10	1	RIB	1188	n/a	0	1	0.412841796875	0.57763671875	upper	../fonts/amplitud.ttf
-0.002	n/a	WORD	-1	wordpools/wasnorm_wordpool.txt	LTP107	ltpFR	18	10	1	POTATO	1115	n/a	0	1	0.412841796875	0.57763671875	upper	../fonts/amplitud.ttf
-0.002	n/a	WORD	-1	wordpools/wasnorm_wordpool.txt	LTP107	ltpFR	18	10	1	BANANA	77	n/a	0	1	0.412841796875	0.57763671875	upper	../fonts/amplitud.ttf
-0.002	n/a	WORD	-1	wordpools/wasnorm_wordpool.txt	LTP107	ltpFR	18	10	1	GENERAL	630	n/a	1	1	0.412841796875	0.57763671875	upper	../fonts/amplitud.ttf
-0.002	n/a	WORD	-1	wordpools/wasnorm_wordpool.txt	LTP107	ltpFR	18	10	1	LIEUTENANT	818	n/a	1	1	0.412841796875	0.57763671875	upper	../fonts/amplitud.ttf
-0.002	n/a	WORD	-1	wordpools/wasnorm_wordpool.txt	LTP107	ltpFR	18	10	1	TOILET	1475	n/a	0	1	0.412841796875	0.57763671875	upper	../fonts/amplitud.ttf
-0.002	n/a	WORD	-1	wordpools/wasnorm_wordpool.txt	LTP107	ltpFR	18	10	1	WARDROBE	1587	n/a	0	1	0.412841796875	0.57763671875	upper	../fonts/amplitud.ttf
-0.002	n/a	WORD	-1	wordpools/wasnorm_wordpool.txt	LTP107	ltpFR	18	10	1	LADDER	793	n/a	0	1	0.412841796875	0.57763671875	upper	../fonts/amplitud.ttf
-0.002	n/a	REC_START	-1	n/a	LTP107	ltpFR	18	10	n/a	n/a	n/a	n/a	n/a	n/a	n/a	n/a	n/a	n/a
-0.002	n/a	REC_WORD	-1	wordpools/wasnorm_wordpool.txt	LTP107	ltpFR	18	10	1	LADDER	793	n/a	0	n/a	n/a	n/a	n/a	n/a
-0.002	n/a	REC_WORD	-1	wordpools/wasnorm_wordpool.txt	LTP107	ltpFR	18	10	1	WARDROBE	1587	n/a	0	n/a	n/a	n/a	n/a	n/a
-0.002	n/a	REC_WORD	-1	wordpools/wasnorm_wordpool.txt	LTP107	ltpFR	18	10	1	GENERAL	630	n/a	1	n/a	n/a	n/a	n/a	n/a
-0.002	n/a	REC_WORD	-1	wordpools/wasnorm_wordpool.txt	LTP107	ltpFR	18	10	1	LIEUTENANT	818	n/a	1	n/a	n/a	n/a	n/a	n/a
-0.002	n/a	REC_WORD	-1	wordpools/wasnorm_wordpool.txt	LTP107	ltpFR	18	10	1	CASTLE	256	n/a	0	n/a	n/a	n/a	n/a	n/a
-0.002	n/a	REC_WORD	-1	wordpools/wasnorm_wordpool.txt	LTP107	ltpFR	18	10	1	PILLOW	1069	n/a	0	n/a	n/a	n/a	n/a	n/a
-0.002	n/a	REC_WORD	-1	wordpools/wasnorm_wordpool.txt	LTP107	ltpFR	18	10	1	TOILET	1475	n/a	0	n/a	n/a	n/a	n/a	n/a
-0.002	n/a	REC_WORD	-1	wordpools/wasnorm_wordpool.txt	LTP107	ltpFR	18	10	1	TREE	1502	n/a	1	n/a	n/a	n/a	n/a	n/a
-0.002	n/a	REC_WORD	-1	wordpools/wasnorm_wordpool.txt	LTP107	ltpFR	18	10	1	POET	1095	n/a	1	n/a	n/a	n/a	n/a	n/a
-0.002	n/a	REC_WORD	-1	wordpools/wasnorm_wordpool.txt	LTP107	ltpFR	18	10	1	PILLOW	1069	n/a	0	n/a	n/a	n/a	n/a	n/a
-0.002	n/a	REC_WORD	-1	wordpools/wasnorm_wordpool.txt	LTP107	ltpFR	18	10	1	ATTIRE	57	n/a	0	n/a	n/a	n/a	n/a	n/a
-0.002	n/a	REC_WORD	-1	wordpools/wasnorm_wordpool.txt	LTP107	ltpFR	18	10	1	WARDROBE	1587	n/a	0	n/a	n/a	n/a	n/a	n/a
-0.002	n/a	REC_WORD	-1	wordpools/wasnorm_wordpool.txt	LTP107	ltpFR	18	10	1	APE	31	n/a	1	n/a	n/a	n/a	n/a	n/a
-0.002	n/a	REC_WORD	-1	wordpools/wasnorm_wordpool.txt	LTP107	ltpFR	18	10	1	CHIMPANZEE	302	n/a	1	n/a	n/a	n/a	n/a	n/a
-0.002	n/a	REC_WORD	-1	wordpools/wasnorm_wordpool.txt	LTP107	ltpFR	18	10	1	BANANA	77	n/a	0	n/a	n/a	n/a	n/a	n/a
-0.002	n/a	REC_WORD	-1	wordpools/wasnorm_wordpool.txt	LTP107	ltpFR	18	10	1	RIB	1188	n/a	0	n/a	n/a	n/a	n/a	n/a
-0.002	n/a	REC_WORD	-1	wordpools/wasnorm_wordpool.txt	LTP107	ltpFR	18	10	1	POTATO	1115	n/a	0	n/a	n/a	n/a	n/a	n/a
-0.002	n/a	REC_WORD	-1	wordpools/wasnorm_wordpool.txt	LTP107	ltpFR	18	10	1	PORCH	1106	n/a	0	n/a	n/a	n/a	n/a	n/a
-0.002	n/a	WORD	-1	wordpools/wasnorm_wordpool.txt	LTP107	ltpFR	18	11	-1	CONCERT	360	n/a	-1	1	1.0	1.0	upper	../fonts/Verdana.ttf
-0.002	n/a	WORD	-1	wordpools/wasnorm_wordpool.txt	LTP107	ltpFR	18	11	-1	PUMPKIN	1142	n/a	-1	1	1.0	1.0	upper	../fonts/Verdana.ttf
-0.002	n/a	WORD	-1	wordpools/wasnorm_wordpool.txt	LTP107	ltpFR	18	11	-1	PEAR	1033	n/a	-1	1	1.0	1.0	upper	../fonts/Verdana.ttf
-0.002	n/a	WORD	-1	wordpools/wasnorm_wordpool.txt	LTP107	ltpFR	18	11	-1	PICNIC	1060	n/a	-1	1	1.0	1.0	upper	../fonts/Verdana.ttf
-0.002	n/a	WORD	-1	wordpools/wasnorm_wordpool.txt	LTP107	ltpFR	18	11	-1	RUM	1217	n/a	-1	1	1.0	1.0	upper	../fonts/Verdana.ttf
-0.002	n/a	WORD	-1	wordpools/wasnorm_wordpool.txt	LTP107	ltpFR	18	11	-1	PALM	1007	n/a	-1	1	1.0	1.0	upper	../fonts/Verdana.ttf
-0.002	n/a	WORD	-1	wordpools/wasnorm_wordpool.txt	LTP107	ltpFR	18	11	-1	TIMBER	1469	n/a	-1	1	1.0	1.0	upper	../fonts/Verdana.ttf
-0.002	n/a	WORD	-1	wordpools/wasnorm_wordpool.txt	LTP107	ltpFR	18	11	-1	BLENDER	136	n/a	-1	1	1.0	1.0	upper	../fonts/Verdana.ttf
-0.002	n/a	WORD	-1	wordpools/wasnorm_wordpool.txt	LTP107	ltpFR	18	11	-1	PLUMBER	1091	n/a	-1	1	1.0	1.0	upper	../fonts/Verdana.ttf
-0.002	n/a	WORD	-1	wordpools/wasnorm_wordpool.txt	LTP107	ltpFR	18	11	-1	MARSH	874	n/a	-1	1	1.0	1.0	upper	../fonts/Verdana.ttf
-0.002	n/a	WORD	-1	wordpools/wasnorm_wordpool.txt	LTP107	ltpFR	18	11	-1	WINE	1613	n/a	-1	1	1.0	1.0	upper	../fonts/Verdana.ttf
-0.002	n/a	WORD	-1	wordpools/wasnorm_wordpool.txt	LTP107	ltpFR	18	11	-1	PIPE	1073	n/a	-1	1	1.0	1.0	upper	../fonts/Verdana.ttf
-0.002	n/a	WORD	-1	wordpools/wasnorm_wordpool.txt	LTP107	ltpFR	18	11	-1	WICK	1607	n/a	-1	1	1.0	1.0	upper	../fonts/Verdana.ttf
-0.002	n/a	WORD	-1	wordpools/wasnorm_wordpool.txt	LTP107	ltpFR	18	11	-1	BEAST	108	n/a	-1	1	1.0	1.0	upper	../fonts/Verdana.ttf
-0.002	n/a	WORD	-1	wordpools/wasnorm_wordpool.txt	LTP107	ltpFR	18	11	-1	BROOM	178	n/a	-1	1	1.0	1.0	upper	../fonts/Verdana.ttf
-0.002	n/a	WORD	-1	wordpools/wasnorm_wordpool.txt	LTP107	ltpFR	18	11	-1	HARP	689	n/a	-1	1	1.0	1.0	upper	../fonts/Verdana.ttf
-0.002	n/a	REC_START	-1	n/a	LTP107	ltpFR	18	11	n/a	n/a	n/a	n/a	n/a	n/a	n/a	n/a	n/a	n/a
-0.002	n/a	REC_WORD	-1	wordpools/wasnorm_wordpool.txt	LTP107	ltpFR	18	11	-1	HARP	689	n/a	-1	n/a	n/a	n/a	n/a	n/a
-0.002	n/a	REC_WORD	-1	wordpools/wasnorm_wordpool.txt	LTP107	ltpFR	18	11	-1	BROOM	178	n/a	-1	n/a	n/a	n/a	n/a	n/a
-0.002	n/a	REC_WORD	-1	wordpools/wasnorm_wordpool.txt	LTP107	ltpFR	18	11	-1	WICK	1607	n/a	-1	n/a	n/a	n/a	n/a	n/a
-0.002	n/a	REC_WORD	-1	wordpools/wasnorm_wordpool.txt	LTP107	ltpFR	18	11	-1	BEAST	108	n/a	-1	n/a	n/a	n/a	n/a	n/a
-0.002	n/a	REC_WORD	-1	wordpools/wasnorm_wordpool.txt	LTP107	ltpFR	18	11	-1	PIPE	1073	n/a	-1	n/a	n/a	n/a	n/a	n/a
-0.002	n/a	REC_WORD	-1	wordpools/wasnorm_wordpool.txt	LTP107	ltpFR	18	11	-1	PLUMBER	1091	n/a	-1	n/a	n/a	n/a	n/a	n/a
-0.002	n/a	REC_WORD	-1	wordpools/wasnorm_wordpool.txt	LTP107	ltpFR	18	11	-1	BLENDER	136	n/a	-1	n/a	n/a	n/a	n/a	n/a
-0.002	n/a	REC_WORD	-1	wordpools/wasnorm_wordpool.txt	LTP107	ltpFR	18	11	-1	PICNIC	1060	n/a	-1	n/a	n/a	n/a	n/a	n/a
-0.002	n/a	REC_WORD	-1	wordpools/wasnorm_wordpool.txt	LTP107	ltpFR	18	11	-1	WINE	1613	n/a	-1	n/a	n/a	n/a	n/a	n/a
-0.002	n/a	REC_WORD	-1	wordpools/wasnorm_wordpool.txt	LTP107	ltpFR	18	11	-1	RUM	1217	n/a	-1	n/a	n/a	n/a	n/a	n/a
-0.002	n/a	REC_WORD	-1	wordpools/wasnorm_wordpool.txt	LTP107	ltpFR	18	11	-1	CONCERT	360	n/a	-1	n/a	n/a	n/a	n/a	n/a
-0.002	n/a	REC_WORD	-1	wordpools/wasnorm_wordpool.txt	LTP107	ltpFR	18	11	n/a	SLEEP	-1	n/a	n/a	n/a	n/a	n/a	n/a	n/a
-0.002	n/a	REC_WORD	-1	wordpools/wasnorm_wordpool.txt	LTP107	ltpFR	18	11	-1	CONCERT	360	n/a	-1	n/a	n/a	n/a	n/a	n/a
-0.002	n/a	REC_WORD	-1	wordpools/wasnorm_wordpool.txt	LTP107	ltpFR	18	11	-1	PEAR	1033	n/a	-1	n/a	n/a	n/a	n/a	n/a
-0.002	n/a	REC_WORD	-1	wordpools/wasnorm_wordpool.txt	LTP107	ltpFR	18	11	-1	PUMPKIN	1142	n/a	-1	n/a	n/a	n/a	n/a	n/a
-0.002	n/a	REC_WORD	-1	wordpools/wasnorm_wordpool.txt	LTP107	ltpFR	18	11	n/a	PIE	1062	n/a	n/a	n/a	n/a	n/a	n/a	n/a
-0.002	n/a	REC_WORD	-1	wordpools/wasnorm_wordpool.txt	LTP107	ltpFR	18	11	-1	PLUMBER	1091	n/a	-1	n/a	n/a	n/a	n/a	n/a
-0.002	n/a	REC_WORD	-1	wordpools/wasnorm_wordpool.txt	LTP107	ltpFR	18	11	-1	TIMBER	1469	n/a	-1	n/a	n/a	n/a	n/a	n/a
-0.002	n/a	REC_WORD	-1	wordpools/wasnorm_wordpool.txt	LTP107	ltpFR	18	11	-1	PALM	1007	n/a	-1	n/a	n/a	n/a	n/a	n/a
-0.002	n/a	REC_WORD	-1	wordpools/wasnorm_wordpool.txt	LTP107	ltpFR	18	11	-1	WICK	1607	n/a	-1	n/a	n/a	n/a	n/a	n/a
-0.002	n/a	WORD	-1	wordpools/wasnorm_wordpool.txt	LTP107	ltpFR	18	12	0	TOMATO	1476	n/a	0	0	0.5869140625	0.422607421875	lower	../fonts/zerothre.ttf
-0.002	n/a	WORD	-1	wordpools/wasnorm_wordpool.txt	LTP107	ltpFR	18	12	0	VOLLEYBALL	1576	n/a	0	0	0.5869140625	0.422607421875	lower	../fonts/zerothre.ttf
-0.002	n/a	WORD	-1	wordpools/wasnorm_wordpool.txt	LTP107	ltpFR	18	12	0	CANDLE	229	n/a	0	0	0.5869140625	0.422607421875	lower	../fonts/zerothre.ttf
-0.002	n/a	WORD	-1	wordpools/wasnorm_wordpool.txt	LTP107	ltpFR	18	12	0	RUNNER	1218	n/a	1	0	0.5869140625	0.422607421875	lower	../fonts/zerothre.ttf
-0.002	n/a	WORD	-1	wordpools/wasnorm_wordpool.txt	LTP107	ltpFR	18	12	0	WINGS	1614	n/a	0	0	0.5869140625	0.422607421875	lower	../fonts/zerothre.ttf
-0.002	n/a	WORD	-1	wordpools/wasnorm_wordpool.txt	LTP107	ltpFR	18	12	0	PLANE	1081	n/a	1	0	0.5869140625	0.422607421875	lower	../fonts/zerothre.ttf
-0.002	n/a	WORD	-1	wordpools/wasnorm_wordpool.txt	LTP107	ltpFR	18	12	0	APPLE	33	n/a	0	0	0.5869140625	0.422607421875	lower	../fonts/zerothre.ttf
-0.002	n/a	WORD	-1	wordpools/wasnorm_wordpool.txt	LTP107	ltpFR	18	12	0	WELL	1600	n/a	1	0	0.5869140625	0.422607421875	lower	../fonts/zerothre.ttf
-0.002	n/a	WORD	-1	wordpools/wasnorm_wordpool.txt	LTP107	ltpFR	18	12	0	CARPENTER	246	n/a	1	0	0.5869140625	0.422607421875	lower	../fonts/zerothre.ttf
-0.002	n/a	WORD	-1	wordpools/wasnorm_wordpool.txt	LTP107	ltpFR	18	12	0	LUMBER	848	n/a	1	0	0.5869140625	0.422607421875	lower	../fonts/zerothre.ttf
-0.002	n/a	WORD	-1	wordpools/wasnorm_wordpool.txt	LTP107	ltpFR	18	12	0	TRUCK	1512	n/a	1	0	0.5869140625	0.422607421875	lower	../fonts/zerothre.ttf
-0.002	n/a	WORD	-1	wordpools/wasnorm_wordpool.txt	LTP107	ltpFR	18	12	0	HIGHWAY	707	n/a	1	0	0.5869140625	0.422607421875	lower	../fonts/zerothre.ttf
-0.002	n/a	WORD	-1	wordpools/wasnorm_wordpool.txt	LTP107	ltpFR	18	12	0	BROOK	177	n/a	1	0	0.5869140625	0.422607421875	lower	../fonts/zerothre.ttf
-0.002	n/a	WORD	-1	wordpools/wasnorm_wordpool.txt	LTP107	ltpFR	18	12	0	SHELL	1281	n/a	0	0	0.5869140625	0.422607421875	lower	../fonts/zerothre.ttf
-0.002	n/a	WORD	-1	wordpools/wasnorm_wordpool.txt	LTP107	ltpFR	18	12	0	OYSTER	995	n/a	0	0	0.5869140625	0.422607421875	lower	../fonts/zerothre.ttf
-0.002	n/a	WORD	-1	wordpools/wasnorm_wordpool.txt	LTP107	ltpFR	18	12	0	AIRPORT	13	n/a	1	0	0.5869140625	0.422607421875	lower	../fonts/zerothre.ttf
-0.002	n/a	REC_START	-1	n/a	LTP107	ltpFR	18	12	n/a	n/a	n/a	n/a	n/a	n/a	n/a	n/a	n/a	n/a
-0.002	n/a	REC_WORD	-1	wordpools/wasnorm_wordpool.txt	LTP107	ltpFR	18	12	0	AIRPORT	13	n/a	1	n/a	n/a	n/a	n/a	n/a
-0.002	n/a	REC_WORD	-1	wordpools/wasnorm_wordpool.txt	LTP107	ltpFR	18	12	0	SHELL	1281	n/a	0	n/a	n/a	n/a	n/a	n/a
-0.002	n/a	REC_WORD	-1	wordpools/wasnorm_wordpool.txt	LTP107	ltpFR	18	12	0	OYSTER	995	n/a	0	n/a	n/a	n/a	n/a	n/a
-0.002	n/a	REC_WORD	-1	wordpools/wasnorm_wordpool.txt	LTP107	ltpFR	18	12	0	PLANE	1081	n/a	1	n/a	n/a	n/a	n/a	n/a
-0.002	n/a	REC_WORD	-1	wordpools/wasnorm_wordpool.txt	LTP107	ltpFR	18	12	0	CARPENTER	246	n/a	1	n/a	n/a	n/a	n/a	n/a
-0.002	n/a	REC_WORD	-1	wordpools/wasnorm_wordpool.txt	LTP107	ltpFR	18	12	-1	TIMBER	1469	n/a	-1	n/a	n/a	n/a	n/a	n/a
-0.002	n/a	REC_WORD	-1	wordpools/wasnorm_wordpool.txt	LTP107	ltpFR	18	12	0	WELL	1600	n/a	1	n/a	n/a	n/a	n/a	n/a
-0.002	n/a	REC_WORD	-1	wordpools/wasnorm_wordpool.txt	LTP107	ltpFR	18	12	-1	PICNIC	1060	n/a	-1	n/a	n/a	n/a	n/a	n/a
-0.002	n/a	REC_WORD	-1	wordpools/wasnorm_wordpool.txt	LTP107	ltpFR	18	12	-1	LOVER	846	n/a	-1	n/a	n/a	n/a	n/a	n/a
-0.002	n/a	REC_WORD	-1	wordpools/wasnorm_wordpool.txt	LTP107	ltpFR	18	12	-1	ROOMMATE	1207	n/a	-1	n/a	n/a	n/a	n/a	n/a
-0.002	n/a	REC_WORD	-1	wordpools/wasnorm_wordpool.txt	LTP107	ltpFR	18	12	-1	TIMBER	1469	n/a	-1	n/a	n/a	n/a	n/a	n/a
-0.002	n/a	REC_WORD	-1	wordpools/wasnorm_wordpool.txt	LTP107	ltpFR	18	12	0	LUMBER	848	n/a	1	n/a	n/a	n/a	n/a	n/a
-0.002	n/a	REST_REWET	-1	n/a	LTP107	ltpFR	18	12	n/a	n/a	n/a	n/a	n/a	n/a	n/a	n/a	n/a	n/a
-0.002	n/a	WORD	-1	wordpools/wasnorm_wordpool.txt	LTP107	ltpFR	18	13	1	ATTORNEY	58	n/a	1	1	0.412841796875	0.57763671875	upper	../fonts/amplitud.ttf
-0.002	n/a	WORD	-1	wordpools/wasnorm_wordpool.txt	LTP107	ltpFR	18	13	1	CUPBOARD	425	n/a	0	1	0.412841796875	0.57763671875	upper	../fonts/amplitud.ttf
-0.002	n/a	WORD	-1	wordpools/wasnorm_wordpool.txt	LTP107	ltpFR	18	13	0	GIRL	637	n/a	0	0	0.5869140625	0.422607421875	lower	../fonts/zerothre.ttf
-0.002	n/a	WORD	-1	wordpools/wasnorm_wordpool.txt	LTP107	ltpFR	18	13	0	PARTNER	1017	n/a	0	0	0.5869140625	0.422607421875	lower	../fonts/zerothre.ttf
-0.002	n/a	WORD	-1	wordpools/wasnorm_wordpool.txt	LTP107	ltpFR	18	13	0	BARN	89	n/a	1	0	0.5869140625	0.422607421875	lower	../fonts/zerothre.ttf
-0.002	n/a	WORD	-1	wordpools/wasnorm_wordpool.txt	LTP107	ltpFR	18	13	0	MULE	931	n/a	1	0	0.5869140625	0.422607421875	lower	../fonts/zerothre.ttf
-0.002	n/a	WORD	-1	wordpools/wasnorm_wordpool.txt	LTP107	ltpFR	18	13	0	ITEM	746	n/a	0	0	0.5869140625	0.422607421875	lower	../fonts/zerothre.ttf
-0.002	n/a	WORD	-1	wordpools/wasnorm_wordpool.txt	LTP107	ltpFR	18	13	1	CARDINAL	244	n/a	1	1	0.412841796875	0.57763671875	upper	../fonts/amplitud.ttf
-0.002	n/a	WORD	-1	wordpools/wasnorm_wordpool.txt	LTP107	ltpFR	18	13	1	BEETLE	116	n/a	0	1	0.412841796875	0.57763671875	upper	../fonts/amplitud.ttf
-0.002	n/a	WORD	-1	wordpools/wasnorm_wordpool.txt	LTP107	ltpFR	18	13	0	CATERPILLAR	259	n/a	0	0	0.5869140625	0.422607421875	lower	../fonts/zerothre.ttf
-0.002	n/a	WORD	-1	wordpools/wasnorm_wordpool.txt	LTP107	ltpFR	18	13	0	SWAN	1417	n/a	1	0	0.5869140625	0.422607421875	lower	../fonts/zerothre.ttf
-0.002	n/a	WORD	-1	wordpools/wasnorm_wordpool.txt	LTP107	ltpFR	18	13	0	PAPER	1011	n/a	0	0	0.5869140625	0.422607421875	lower	../fonts/zerothre.ttf
-0.002	n/a	WORD	-1	wordpools/wasnorm_wordpool.txt	LTP107	ltpFR	18	13	1	VEGETABLE	1552	n/a	0	1	0.412841796875	0.57763671875	upper	../fonts/amplitud.ttf
-0.002	n/a	WORD	-1	wordpools/wasnorm_wordpool.txt	LTP107	ltpFR	18	13	1	CRYSTAL	418	n/a	0	1	0.412841796875	0.57763671875	upper	../fonts/amplitud.ttf
-0.002	n/a	WORD	-1	wordpools/wasnorm_wordpool.txt	LTP107	ltpFR	18	13	1	PORK	1108	n/a	1	1	0.412841796875	0.57763671875	upper	../fonts/amplitud.ttf
-0.002	n/a	WORD	-1	wordpools/wasnorm_wordpool.txt	LTP107	ltpFR	18	13	1	ZUCCHINI	1638	n/a	0	1	0.412841796875	0.57763671875	upper	../fonts/amplitud.ttf
-0.002	n/a	REC_START	-1	n/a	LTP107	ltpFR	18	13	n/a	n/a	n/a	n/a	n/a	n/a	n/a	n/a	n/a	n/a
-0.002	n/a	REC_WORD	-1	wordpools/wasnorm_wordpool.txt	LTP107	ltpFR	18	13	1	ZUCCHINI	1638	n/a	0	n/a	n/a	n/a	n/a	n/a
-0.002	n/a	REC_WORD	-1	wordpools/wasnorm_wordpool.txt	LTP107	ltpFR	18	13	1	PORK	1108	n/a	1	n/a	n/a	n/a	n/a	n/a
-0.002	n/a	REC_WORD	-1	wordpools/wasnorm_wordpool.txt	LTP107	ltpFR	18	13	1	VEGETABLE	1552	n/a	0	n/a	n/a	n/a	n/a	n/a
-0.002	n/a	REC_WORD	-1	wordpools/wasnorm_wordpool.txt	LTP107	ltpFR	18	13	0	PAPER	1011	n/a	0	n/a	n/a	n/a	n/a	n/a
-0.002	n/a	REC_WORD	-1	wordpools/wasnorm_wordpool.txt	LTP107	ltpFR	18	13	0	BARN	89	n/a	1	n/a	n/a	n/a	n/a	n/a
-0.002	n/a	REC_WORD	-1	wordpools/wasnorm_wordpool.txt	LTP107	ltpFR	18	13	0	MULE	931	n/a	1	n/a	n/a	n/a	n/a	n/a
-0.002	n/a	REC_WORD	-1	wordpools/wasnorm_wordpool.txt	LTP107	ltpFR	18	13	1	BEETLE	116	n/a	0	n/a	n/a	n/a	n/a	n/a
-0.002	n/a	REC_WORD	-1	wordpools/wasnorm_wordpool.txt	LTP107	ltpFR	18	13	n/a	LAWYER	806	n/a	n/a	n/a	n/a	n/a	n/a	n/a
-0.002	n/a	REC_WORD	-1	wordpools/wasnorm_wordpool.txt	LTP107	ltpFR	18	13	0	PARTNER	1017	n/a	0	n/a	n/a	n/a	n/a	n/a
-0.002	n/a	REC_WORD	-1	wordpools/wasnorm_wordpool.txt	LTP107	ltpFR	18	13	0	GIRL	637	n/a	0	n/a	n/a	n/a	n/a	n/a
-0.002	n/a	REC_WORD	-1	wordpools/wasnorm_wordpool.txt	LTP107	ltpFR	18	13	0	MULE	931	n/a	1	n/a	n/a	n/a	n/a	n/a
-0.002	n/a	WORD	-1	wordpools/wasnorm_wordpool.txt	LTP107	ltpFR	18	14	1	BISCUIT	130	n/a	0	1	0.412841796875	0.57763671875	upper	../fonts/amplitud.ttf
-0.002	n/a	WORD	-1	wordpools/wasnorm_wordpool.txt	LTP107	ltpFR	18	14	1	CAKE	219	n/a	0	1	0.412841796875	0.57763671875	upper	../fonts/amplitud.ttf
-0.002	n/a	WORD	-1	wordpools/wasnorm_wordpool.txt	LTP107	ltpFR	18	14	1	PLANET	1082	n/a	0	1	0.412841796875	0.57763671875	upper	../fonts/amplitud.ttf
-0.002	n/a	WORD	-1	wordpools/wasnorm_wordpool.txt	LTP107	ltpFR	18	14	1	PICKLE	1059	n/a	0	1	0.412841796875	0.57763671875	upper	../fonts/amplitud.ttf
-0.002	n/a	WORD	-1	wordpools/wasnorm_wordpool.txt	LTP107	ltpFR	18	14	0	NICKEL	950	n/a	0	0	0.5869140625	0.422607421875	lower	../fonts/zerothre.ttf
-0.002	n/a	WORD	-1	wordpools/wasnorm_wordpool.txt	LTP107	ltpFR	18	14	0	GRADUATE	653	n/a	1	0	0.5869140625	0.422607421875	lower	../fonts/zerothre.ttf
-0.002	n/a	WORD	-1	wordpools/wasnorm_wordpool.txt	LTP107	ltpFR	18	14	1	CROWN	415	n/a	0	1	0.412841796875	0.57763671875	upper	../fonts/amplitud.ttf
-0.002	n/a	WORD	-1	wordpools/wasnorm_wordpool.txt	LTP107	ltpFR	18	14	1	BANK	83	n/a	0	1	0.412841796875	0.57763671875	upper	../fonts/amplitud.ttf
-0.002	n/a	WORD	-1	wordpools/wasnorm_wordpool.txt	LTP107	ltpFR	18	14	1	WORM	1623	n/a	0	1	0.412841796875	0.57763671875	upper	../fonts/amplitud.ttf
-0.002	n/a	WORD	-1	wordpools/wasnorm_wordpool.txt	LTP107	ltpFR	18	14	1	ASTRONAUT	51	n/a	1	1	0.412841796875	0.57763671875	upper	../fonts/amplitud.ttf
-0.002	n/a	WORD	-1	wordpools/wasnorm_wordpool.txt	LTP107	ltpFR	18	14	0	WINDSHIELD	1612	n/a	1	0	0.5869140625	0.422607421875	lower	../fonts/zerothre.ttf
-0.002	n/a	WORD	-1	wordpools/wasnorm_wordpool.txt	LTP107	ltpFR	18	14	0	BUGGY	188	n/a	1	0	0.5869140625	0.422607421875	lower	../fonts/zerothre.ttf
-0.002	n/a	WORD	-1	wordpools/wasnorm_wordpool.txt	LTP107	ltpFR	18	14	0	PERCH	1048	n/a	1	0	0.5869140625	0.422607421875	lower	../fonts/zerothre.ttf
-0.002	n/a	WORD	-1	wordpools/wasnorm_wordpool.txt	LTP107	ltpFR	18	14	0	EAGLE	512	n/a	1	0	0.5869140625	0.422607421875	lower	../fonts/zerothre.ttf
-0.002	n/a	WORD	-1	wordpools/wasnorm_wordpool.txt	LTP107	ltpFR	18	14	0	REPTILE	1185	n/a	1	0	0.5869140625	0.422607421875	lower	../fonts/zerothre.ttf
-0.002	n/a	WORD	-1	wordpools/wasnorm_wordpool.txt	LTP107	ltpFR	18	14	0	COBRA	336	n/a	1	0	0.5869140625	0.422607421875	lower	../fonts/zerothre.ttf
-0.002	n/a	REC_START	-1	n/a	LTP107	ltpFR	18	14	n/a	n/a	n/a	n/a	n/a	n/a	n/a	n/a	n/a	n/a
-0.002	n/a	REC_WORD	-1	wordpools/wasnorm_wordpool.txt	LTP107	ltpFR	18	14	0	COBRA	336	n/a	1	n/a	n/a	n/a	n/a	n/a
-0.002	n/a	REC_WORD	-1	wordpools/wasnorm_wordpool.txt	LTP107	ltpFR	18	14	0	REPTILE	1185	n/a	1	n/a	n/a	n/a	n/a	n/a
-0.002	n/a	REC_WORD	-1	wordpools/wasnorm_wordpool.txt	LTP107	ltpFR	18	14	0	EAGLE	512	n/a	1	n/a	n/a	n/a	n/a	n/a
-0.002	n/a	REC_WORD	-1	wordpools/wasnorm_wordpool.txt	LTP107	ltpFR	18	14	0	PERCH	1048	n/a	1	n/a	n/a	n/a	n/a	n/a
-0.002	n/a	REC_WORD	-1	wordpools/wasnorm_wordpool.txt	LTP107	ltpFR	18	14	0	GRADUATE	653	n/a	1	n/a	n/a	n/a	n/a	n/a
-0.002	n/a	REC_WORD	-1	wordpools/wasnorm_wordpool.txt	LTP107	ltpFR	18	14	1	ASTRONAUT	51	n/a	1	n/a	n/a	n/a	n/a	n/a
-0.002	n/a	REC_WORD	-1	wordpools/wasnorm_wordpool.txt	LTP107	ltpFR	18	14	1	CROWN	415	n/a	0	n/a	n/a	n/a	n/a	n/a
-0.002	n/a	REC_WORD	-1	wordpools/wasnorm_wordpool.txt	LTP107	ltpFR	18	14	1	BIOLOGIST	128	n/a	1	n/a	n/a	n/a	n/a	n/a
-0.002	n/a	REC_WORD	-1	wordpools/wasnorm_wordpool.txt	LTP107	ltpFR	18	14	1	BISCUIT	130	n/a	0	n/a	n/a	n/a	n/a	n/a
-0.002	n/a	REC_WORD	-1	wordpools/wasnorm_wordpool.txt	LTP107	ltpFR	18	14	n/a	GRAVY	-1	n/a	n/a	n/a	n/a	n/a	n/a	n/a
-0.002	n/a	REC_WORD	-1	wordpools/wasnorm_wordpool.txt	LTP107	ltpFR	18	14	1	CAKE	219	n/a	0	n/a	n/a	n/a	n/a	n/a
-0.002	n/a	REC_WORD	-1	wordpools/wasnorm_wordpool.txt	LTP107	ltpFR	18	14	1	PICKLE	1059	n/a	0	n/a	n/a	n/a	n/a	n/a
-0.002	n/a	REC_WORD	-1	wordpools/wasnorm_wordpool.txt	LTP107	ltpFR	18	14	0	NICKEL	950	n/a	0	n/a	n/a	n/a	n/a	n/a
-0.002	n/a	REC_WORD	-1	wordpools/wasnorm_wordpool.txt	LTP107	ltpFR	18	14	0	GRADUATE	653	n/a	1	n/a	n/a	n/a	n/a	n/a
-0.002	n/a	REC_WORD	-1	wordpools/wasnorm_wordpool.txt	LTP107	ltpFR	18	14	0	WINDSHIELD	1612	n/a	1	n/a	n/a	n/a	n/a	n/a
-0.002	n/a	REC_WORD	-1	wordpools/wasnorm_wordpool.txt	LTP107	ltpFR	18	14	0	BUGGY	188	n/a	1	n/a	n/a	n/a	n/a	n/a
-0.002	n/a	REC_WORD	-1	wordpools/wasnorm_wordpool.txt	LTP107	ltpFR	18	14	-1	ROOMMATE	1207	n/a	-1	n/a	n/a	n/a	n/a	n/a
-0.002	n/a	WORD	-1	wordpools/wasnorm_wordpool.txt	LTP107	ltpFR	18	15	0	MICROSCOPE	891	n/a	0	0	0.5869140625	0.422607421875	lower	../fonts/zerothre.ttf
-0.002	n/a	WORD	-1	wordpools/wasnorm_wordpool.txt	LTP107	ltpFR	18	15	0	CLAM	315	n/a	0	0	0.5869140625	0.422607421875	lower	../fonts/zerothre.ttf
-0.002	n/a	WORD	-1	wordpools/wasnorm_wordpool.txt	LTP107	ltpFR	18	15	0	SEA	1259	n/a	1	0	0.5869140625	0.422607421875	lower	../fonts/zerothre.ttf
-0.002	n/a	WORD	-1	wordpools/wasnorm_wordpool.txt	LTP107	ltpFR	18	15	1	SARDINE	1235	n/a	0	1	0.412841796875	0.57763671875	upper	../fonts/amplitud.ttf
-0.002	n/a	WORD	-1	wordpools/wasnorm_wordpool.txt	LTP107	ltpFR	18	15	1	CUP	424	n/a	0	1	0.412841796875	0.57763671875	upper	../fonts/amplitud.ttf
-0.002	n/a	WORD	-1	wordpools/wasnorm_wordpool.txt	LTP107	ltpFR	18	15	1	CABINET	212	n/a	0	1	0.412841796875	0.57763671875	upper	../fonts/amplitud.ttf
-0.002	n/a	WORD	-1	wordpools/wasnorm_wordpool.txt	LTP107	ltpFR	18	15	1	OCEAN	970	n/a	1	1	0.412841796875	0.57763671875	upper	../fonts/amplitud.ttf
-0.002	n/a	WORD	-1	wordpools/wasnorm_wordpool.txt	LTP107	ltpFR	18	15	1	ESSAY	540	n/a	0	1	0.412841796875	0.57763671875	upper	../fonts/amplitud.ttf
-0.002	n/a	WORD	-1	wordpools/wasnorm_wordpool.txt	LTP107	ltpFR	18	15	0	KIDNEY	776	n/a	0	0	0.5869140625	0.422607421875	lower	../fonts/zerothre.ttf
-0.002	n/a	WORD	-1	wordpools/wasnorm_wordpool.txt	LTP107	ltpFR	18	15	0	PARROT	1015	n/a	1	0	0.5869140625	0.422607421875	lower	../fonts/zerothre.ttf
-0.002	n/a	WORD	-1	wordpools/wasnorm_wordpool.txt	LTP107	ltpFR	18	15	0	CROW	414	n/a	1	0	0.5869140625	0.422607421875	lower	../fonts/zerothre.ttf
-0.002	n/a	WORD	-1	wordpools/wasnorm_wordpool.txt	LTP107	ltpFR	18	15	1	BINDER	127	n/a	0	1	0.412841796875	0.57763671875	upper	../fonts/amplitud.ttf
-0.002	n/a	WORD	-1	wordpools/wasnorm_wordpool.txt	LTP107	ltpFR	18	15	1	PRODUCER	1129	n/a	1	1	0.412841796875	0.57763671875	upper	../fonts/amplitud.ttf
-0.002	n/a	WORD	-1	wordpools/wasnorm_wordpool.txt	LTP107	ltpFR	18	15	1	WOUND	1624	n/a	0	1	0.412841796875	0.57763671875	upper	../fonts/amplitud.ttf
-0.002	n/a	WORD	-1	wordpools/wasnorm_wordpool.txt	LTP107	ltpFR	18	15	0	ENCYCLOPEDIA	533	n/a	1	0	0.5869140625	0.422607421875	lower	../fonts/zerothre.ttf
-0.002	n/a	WORD	-1	wordpools/wasnorm_wordpool.txt	LTP107	ltpFR	18	15	0	SCROLL	1257	n/a	0	0	0.5869140625	0.422607421875	lower	../fonts/zerothre.ttf
-0.002	n/a	REC_START	-1	n/a	LTP107	ltpFR	18	15	n/a	n/a	n/a	n/a	n/a	n/a	n/a	n/a	n/a	n/a
-0.002	n/a	REC_WORD	-1	wordpools/wasnorm_wordpool.txt	LTP107	ltpFR	18	15	0	SCROLL	1257	n/a	0	n/a	n/a	n/a	n/a	n/a
-0.002	n/a	REC_WORD	-1	wordpools/wasnorm_wordpool.txt	LTP107	ltpFR	18	15	0	ENCYCLOPEDIA	533	n/a	1	n/a	n/a	n/a	n/a	n/a
-0.002	n/a	REC_WORD_VV	-1	wordpools/wasnorm_wordpool.txt	LTP107	ltpFR	18	15	n/a	<>	-1	n/a	n/a	n/a	n/a	n/a	n/a	n/a
-0.002	n/a	REC_WORD	-1	wordpools/wasnorm_wordpool.txt	LTP107	ltpFR	18	15	1	PRODUCER	1129	n/a	1	n/a	n/a	n/a	n/a	n/a
-0.002	n/a	REC_WORD	-1	wordpools/wasnorm_wordpool.txt	LTP107	ltpFR	18	15	0	PARROT	1015	n/a	1	n/a	n/a	n/a	n/a	n/a
-0.002	n/a	REC_WORD	-1	wordpools/wasnorm_wordpool.txt	LTP107	ltpFR	18	15	0	EAGLE	512	n/a	1	n/a	n/a	n/a	n/a	n/a
-0.002	n/a	REC_WORD	-1	wordpools/wasnorm_wordpool.txt	LTP107	ltpFR	18	15	n/a	BIRD	129	n/a	n/a	n/a	n/a	n/a	n/a	n/a
-0.002	n/a	REC_WORD	-1	wordpools/wasnorm_wordpool.txt	LTP107	ltpFR	18	15	0	CROW	414	n/a	1	n/a	n/a	n/a	n/a	n/a
-0.002	n/a	REC_WORD	-1	wordpools/wasnorm_wordpool.txt	LTP107	ltpFR	18	15	n/a	CLAW	319	n/a	n/a	n/a	n/a	n/a	n/a	n/a
-0.002	n/a	REC_WORD	-1	wordpools/wasnorm_wordpool.txt	LTP107	ltpFR	18	15	1	WOUND	1624	n/a	0	n/a	n/a	n/a	n/a	n/a
-0.002	n/a	REC_WORD	-1	wordpools/wasnorm_wordpool.txt	LTP107	ltpFR	18	15	n/a	BANDAGE	79	n/a	n/a	n/a	n/a	n/a	n/a	n/a
-0.002	n/a	REC_WORD	-1	wordpools/wasnorm_wordpool.txt	LTP107	ltpFR	18	15	1	BRUISE	180	n/a	0	n/a	n/a	n/a	n/a	n/a
-0.002	n/a	REC_WORD	-1	wordpools/wasnorm_wordpool.txt	LTP107	ltpFR	18	15	1	PRODUCER	1129	n/a	1	n/a	n/a	n/a	n/a	n/a
-0.002	n/a	REC_WORD	-1	wordpools/wasnorm_wordpool.txt	LTP107	ltpFR	18	15	0	WINDSHIELD	1612	n/a	1	n/a	n/a	n/a	n/a	n/a
-0.002	n/a	REC_WORD	-1	wordpools/wasnorm_wordpool.txt	LTP107	ltpFR	18	15	0	PARROT	1015	n/a	1	n/a	n/a	n/a	n/a	n/a
-0.002	n/a	WORD	-1	wordpools/wasnorm_wordpool.txt	LTP107	ltpFR	18	16	-1	MAMMAL	861	n/a	-1	1	1.0	1.0	upper	../fonts/Verdana.ttf
-0.002	n/a	WORD	-1	wordpools/wasnorm_wordpool.txt	LTP107	ltpFR	18	16	-1	CLOTHES	327	n/a	-1	1	1.0	1.0	upper	../fonts/Verdana.ttf
-0.002	n/a	WORD	-1	wordpools/wasnorm_wordpool.txt	LTP107	ltpFR	18	16	-1	RACK	1154	n/a	-1	1	1.0	1.0	upper	../fonts/Verdana.ttf
-0.002	n/a	WORD	-1	wordpools/wasnorm_wordpool.txt	LTP107	ltpFR	18	16	-1	COLOGNE	347	n/a	-1	1	1.0	1.0	upper	../fonts/Verdana.ttf
-0.002	n/a	WORD	-1	wordpools/wasnorm_wordpool.txt	LTP107	ltpFR	18	16	-1	STALLION	1369	n/a	-1	1	1.0	1.0	upper	../fonts/Verdana.ttf
-0.002	n/a	WORD	-1	wordpools/wasnorm_wordpool.txt	LTP107	ltpFR	18	16	-1	SEAL	1262	n/a	-1	1	1.0	1.0	upper	../fonts/Verdana.ttf
-0.002	n/a	WORD	-1	wordpools/wasnorm_wordpool.txt	LTP107	ltpFR	18	16	-1	RECEIPT	1173	n/a	-1	1	1.0	1.0	upper	../fonts/Verdana.ttf
-0.002	n/a	WORD	-1	wordpools/wasnorm_wordpool.txt	LTP107	ltpFR	18	16	-1	CHEF	290	n/a	-1	1	1.0	1.0	upper	../fonts/Verdana.ttf
-0.002	n/a	WORD	-1	wordpools/wasnorm_wordpool.txt	LTP107	ltpFR	18	16	-1	HAM	678	n/a	-1	1	1.0	1.0	upper	../fonts/Verdana.ttf
-0.002	n/a	WORD	-1	wordpools/wasnorm_wordpool.txt	LTP107	ltpFR	18	16	-1	SPONGE	1355	n/a	-1	1	1.0	1.0	upper	../fonts/Verdana.ttf
-0.002	n/a	WORD	-1	wordpools/wasnorm_wordpool.txt	LTP107	ltpFR	18	16	-1	PEOPLE	1046	n/a	-1	1	1.0	1.0	upper	../fonts/Verdana.ttf
-0.002	n/a	WORD	-1	wordpools/wasnorm_wordpool.txt	LTP107	ltpFR	18	16	-1	PEACH	1031	n/a	-1	1	1.0	1.0	upper	../fonts/Verdana.ttf
-0.002	n/a	WORD	-1	wordpools/wasnorm_wordpool.txt	LTP107	ltpFR	18	16	-1	RASPBERRY	1168	n/a	-1	1	1.0	1.0	upper	../fonts/Verdana.ttf
-0.002	n/a	WORD	-1	wordpools/wasnorm_wordpool.txt	LTP107	ltpFR	18	16	-1	OMELET	976	n/a	-1	1	1.0	1.0	upper	../fonts/Verdana.ttf
-0.002	n/a	WORD	-1	wordpools/wasnorm_wordpool.txt	LTP107	ltpFR	18	16	-1	DIME	466	n/a	-1	1	1.0	1.0	upper	../fonts/Verdana.ttf
-0.002	n/a	WORD	-1	wordpools/wasnorm_wordpool.txt	LTP107	ltpFR	18	16	-1	MOP	916	n/a	-1	1	1.0	1.0	upper	../fonts/Verdana.ttf
-0.002	n/a	REC_START	-1	n/a	LTP107	ltpFR	18	16	n/a	n/a	n/a	n/a	n/a	n/a	n/a	n/a	n/a	n/a
-0.002	n/a	REC_WORD	-1	wordpools/wasnorm_wordpool.txt	LTP107	ltpFR	18	16	-1	MOP	916	n/a	-1	n/a	n/a	n/a	n/a	n/a
-0.002	n/a	REC_WORD	-1	wordpools/wasnorm_wordpool.txt	LTP107	ltpFR	18	16	-1	DIME	466	n/a	-1	n/a	n/a	n/a	n/a	n/a
-0.002	n/a	REC_WORD	-1	wordpools/wasnorm_wordpool.txt	LTP107	ltpFR	18	16	-1	HAM	678	n/a	-1	n/a	n/a	n/a	n/a	n/a
-0.002	n/a	REC_WORD	-1	wordpools/wasnorm_wordpool.txt	LTP107	ltpFR	18	16	-1	PEACH	1031	n/a	-1	n/a	n/a	n/a	n/a	n/a
-0.002	n/a	REC_WORD	-1	wordpools/wasnorm_wordpool.txt	LTP107	ltpFR	18	16	-1	PEOPLE	1046	n/a	-1	n/a	n/a	n/a	n/a	n/a
-0.002	n/a	REC_WORD	-1	wordpools/wasnorm_wordpool.txt	LTP107	ltpFR	18	16	-1	SEAL	1262	n/a	-1	n/a	n/a	n/a	n/a	n/a
-0.002	n/a	REC_WORD	-1	wordpools/wasnorm_wordpool.txt	LTP107	ltpFR	18	16	n/a	PERSON	1052	n/a	n/a	n/a	n/a	n/a	n/a	n/a
-0.002	n/a	REC_WORD	-1	wordpools/wasnorm_wordpool.txt	LTP107	ltpFR	18	16	-1	RACK	1154	n/a	-1	n/a	n/a	n/a	n/a	n/a
-0.002	n/a	REC_WORD	-1	wordpools/wasnorm_wordpool.txt	LTP107	ltpFR	18	16	-1	CLOTHES	327	n/a	-1	n/a	n/a	n/a	n/a	n/a
-0.002	n/a	REC_WORD	-1	wordpools/wasnorm_wordpool.txt	LTP107	ltpFR	18	16	-1	MAMMAL	861	n/a	-1	n/a	n/a	n/a	n/a	n/a
-0.002	n/a	REC_WORD	-1	wordpools/wasnorm_wordpool.txt	LTP107	ltpFR	18	16	-1	DIME	466	n/a	-1	n/a	n/a	n/a	n/a	n/a
-0.002	n/a	REC_WORD	-1	wordpools/wasnorm_wordpool.txt	LTP107	ltpFR	18	16	-1	DESSERT	453	n/a	-1	n/a	n/a	n/a	n/a	n/a
-0.002	n/a	REC_WORD	-1	wordpools/wasnorm_wordpool.txt	LTP107	ltpFR	18	16	-1	RASPBERRY	1168	n/a	-1	n/a	n/a	n/a	n/a	n/a
-0.002	n/a	REC_WORD	-1	wordpools/wasnorm_wordpool.txt	LTP107	ltpFR	18	16	-1	PEACH	1031	n/a	-1	n/a	n/a	n/a	n/a	n/a
-0.002	n/a	REC_WORD	-1	wordpools/wasnorm_wordpool.txt	LTP107	ltpFR	18	16	-1	STALLION	1369	n/a	-1	n/a	n/a	n/a	n/a	n/a
-0.002	n/a	REC_WORD	-1	wordpools/wasnorm_wordpool.txt	LTP107	ltpFR	18	16	-1	COLOGNE	347	n/a	-1	n/a	n/a	n/a	n/a	n/a
-0.002	n/a	REC_WORD	-1	wordpools/wasnorm_wordpool.txt	LTP107	ltpFR	18	16	-1	RECEIPT	1173	n/a	-1	n/a	n/a	n/a	n/a	n/a
-0.002	n/a	REC_WORD	-1	wordpools/wasnorm_wordpool.txt	LTP107	ltpFR	18	16	0	PERCH	1048	n/a	1	n/a	n/a	n/a	n/a	n/a
-0.002	n/a	REC_WORD	-1	wordpools/wasnorm_wordpool.txt	LTP107	ltpFR	18	16	-1	CHEF	290	n/a	-1	n/a	n/a	n/a	n/a	n/a
-0.002	n/a	REC_WORD	-1	wordpools/wasnorm_wordpool.txt	LTP107	ltpFR	18	16	-1	OMELET	976	n/a	-1	n/a	n/a	n/a	n/a	n/a
-0.002	n/a	REC_WORD	-1	wordpools/wasnorm_wordpool.txt	LTP107	ltpFR	18	16	n/a	EGG	518	n/a	n/a	n/a	n/a	n/a	n/a	n/a
-0.002	n/a	REC_WORD	-1	wordpools/wasnorm_wordpool.txt	LTP107	ltpFR	18	16	-1	MOP	916	n/a	-1	n/a	n/a	n/a	n/a	n/a
-0.002	n/a	REC_START	-1	n/a	LTP107	ltpFR	18	n/a	n/a	n/a	n/a	n/a	n/a	n/a	n/a	n/a	n/a	n/a
-0.002	n/a	FFR_REC_WORD	-1	wordpools/wasnorm_wordpool.txt	LTP107	ltpFR	18	n/a	-1	OMELET	976	n/a	-1	n/a	n/a	n/a	n/a	n/a
-0.002	n/a	FFR_REC_WORD	-1	wordpools/wasnorm_wordpool.txt	LTP107	ltpFR	18	n/a	-1	MOP	916	n/a	-1	n/a	n/a	n/a	n/a	n/a
-0.002	n/a	FFR_REC_WORD	-1	wordpools/wasnorm_wordpool.txt	LTP107	ltpFR	18	n/a	-1	PEACH	1031	n/a	-1	n/a	n/a	n/a	n/a	n/a
-0.002	n/a	FFR_REC_WORD	-1	wordpools/wasnorm_wordpool.txt	LTP107	ltpFR	18	n/a	-1	RASPBERRY	1168	n/a	-1	n/a	n/a	n/a	n/a	n/a
-0.002	n/a	FFR_REC_WORD	-1	wordpools/wasnorm_wordpool.txt	LTP107	ltpFR	18	n/a	-1	STALLION	1369	n/a	-1	n/a	n/a	n/a	n/a	n/a
-0.002	n/a	FFR_REC_WORD	-1	wordpools/wasnorm_wordpool.txt	LTP107	ltpFR	18	n/a	-1	RACK	1154	n/a	-1	n/a	n/a	n/a	n/a	n/a
-0.002	n/a	FFR_REC_WORD	-1	wordpools/wasnorm_wordpool.txt	LTP107	ltpFR	18	n/a	-1	CLOTHES	327	n/a	-1	n/a	n/a	n/a	n/a	n/a
-0.002	n/a	FFR_REC_WORD	-1	wordpools/wasnorm_wordpool.txt	LTP107	ltpFR	18	n/a	-1	CHEF	290	n/a	-1	n/a	n/a	n/a	n/a	n/a
-0.002	n/a	FFR_REC_WORD	-1	wordpools/wasnorm_wordpool.txt	LTP107	ltpFR	18	n/a	-1	PEACH	1031	n/a	-1	n/a	n/a	n/a	n/a	n/a
-0.002	n/a	FFR_REC_WORD	-1	wordpools/wasnorm_wordpool.txt	LTP107	ltpFR	18	n/a	0	WINDSHIELD	1612	n/a	1	n/a	n/a	n/a	n/a	n/a
-0.002	n/a	FFR_REC_WORD	-1	wordpools/wasnorm_wordpool.txt	LTP107	ltpFR	18	n/a	-1	ROOMMATE	1207	n/a	-1	n/a	n/a	n/a	n/a	n/a
-0.002	n/a	FFR_REC_WORD	-1	wordpools/wasnorm_wordpool.txt	LTP107	ltpFR	18	n/a	-1	LOVER	846	n/a	-1	n/a	n/a	n/a	n/a	n/a
-0.002	n/a	FFR_REC_WORD	-1	wordpools/wasnorm_wordpool.txt	LTP107	ltpFR	18	n/a	-1	VALVE	1546	n/a	-1	n/a	n/a	n/a	n/a	n/a
-0.002	n/a	FFR_REC_WORD	-1	wordpools/wasnorm_wordpool.txt	LTP107	ltpFR	18	n/a	-1	SCARECROW	1245	n/a	-1	n/a	n/a	n/a	n/a	n/a
-0.002	n/a	FFR_REC_WORD	-1	wordpools/wasnorm_wordpool.txt	LTP107	ltpFR	18	n/a	-1	BUTTERFLY	206	n/a	-1	n/a	n/a	n/a	n/a	n/a
-0.002	n/a	FFR_REC_WORD	-1	wordpools/wasnorm_wordpool.txt	LTP107	ltpFR	18	n/a	-1	BATHROOM	99	n/a	-1	n/a	n/a	n/a	n/a	n/a
-0.002	n/a	FFR_REC_WORD	-1	wordpools/wasnorm_wordpool.txt	LTP107	ltpFR	18	n/a	-1	BEDROOM	111	n/a	-1	n/a	n/a	n/a	n/a	n/a
-0.002	n/a	FFR_REC_WORD	-1	wordpools/wasnorm_wordpool.txt	LTP107	ltpFR	18	n/a	-1	SOAP	1337	n/a	-1	n/a	n/a	n/a	n/a	n/a
-0.002	n/a	FFR_REC_WORD	-1	wordpools/wasnorm_wordpool.txt	LTP107	ltpFR	18	n/a	0	SKIRT	1319	n/a	0	n/a	n/a	n/a	n/a	n/a
-0.002	n/a	FFR_REC_WORD	-1	wordpools/wasnorm_wordpool.txt	LTP107	ltpFR	18	n/a	1	CROWN	415	n/a	0	n/a	n/a	n/a	n/a	n/a
-0.002	n/a	FFR_REC_WORD	-1	wordpools/wasnorm_wordpool.txt	LTP107	ltpFR	18	n/a	1	BEETLE	116	n/a	0	n/a	n/a	n/a	n/a	n/a
-0.002	n/a	FFR_REC_WORD	-1	wordpools/wasnorm_wordpool.txt	LTP107	ltpFR	18	n/a	n/a	ANTEATER	26	n/a	n/a	n/a	n/a	n/a	n/a	n/a
-0.002	n/a	FFR_REC_WORD	-1	wordpools/wasnorm_wordpool.txt	LTP107	ltpFR	18	n/a	0	GRADUATE	653	n/a	1	n/a	n/a	n/a	n/a	n/a
-0.002	n/a	FFR_REC_WORD	-1	wordpools/wasnorm_wordpool.txt	LTP107	ltpFR	18	n/a	-1	STALLION	1369	n/a	-1	n/a	n/a	n/a	n/a	n/a
-0.002	n/a	FFR_REC_WORD	-1	wordpools/wasnorm_wordpool.txt	LTP107	ltpFR	18	n/a	0	BUGGY	188	n/a	1	n/a	n/a	n/a	n/a	n/a
-0.002	n/a	FFR_REC_WORD	-1	wordpools/wasnorm_wordpool.txt	LTP107	ltpFR	18	n/a	0	ACROBAT	4	n/a	1	n/a	n/a	n/a	n/a	n/a
-0.002	n/a	FFR_REC_WORD	-1	wordpools/wasnorm_wordpool.txt	LTP107	ltpFR	18	n/a	1	SWING	1421	n/a	0	n/a	n/a	n/a	n/a	n/a
-0.002	n/a	FFR_REC_WORD	-1	wordpools/wasnorm_wordpool.txt	LTP107	ltpFR	18	n/a	n/a	STREAM	1392	n/a	n/a	n/a	n/a	n/a	n/a	n/a
-0.002	n/a	FFR_REC_WORD	-1	wordpools/wasnorm_wordpool.txt	LTP107	ltpFR	18	n/a	n/a	CREEK	404	n/a	n/a	n/a	n/a	n/a	n/a	n/a
-0.002	n/a	FFR_REC_WORD	-1	wordpools/wasnorm_wordpool.txt	LTP107	ltpFR	18	n/a	1	ROCK	1201	n/a	0	n/a	n/a	n/a	n/a	n/a
-0.002	n/a	FFR_REC_WORD	-1	wordpools/wasnorm_wordpool.txt	LTP107	ltpFR	18	n/a	1	SCREW	1254	n/a	0	n/a	n/a	n/a	n/a	n/a
-0.002	n/a	FFR_REC_WORD	-1	wordpools/wasnorm_wordpool.txt	LTP107	ltpFR	18	n/a	0	RUST	1219	n/a	0	n/a	n/a	n/a	n/a	n/a
-0.002	n/a	FFR_REC_WORD	-1	wordpools/wasnorm_wordpool.txt	LTP107	ltpFR	18	n/a	n/a	NAIL	936	n/a	n/a	n/a	n/a	n/a	n/a	n/a
-0.002	n/a	FFR_REC_WORD	-1	wordpools/wasnorm_wordpool.txt	LTP107	ltpFR	18	n/a	-1	MAMMAL	861	n/a	-1	n/a	n/a	n/a	n/a	n/a
-0.002	n/a	FFR_REC_WORD	-1	wordpools/wasnorm_wordpool.txt	LTP107	ltpFR	18	n/a	0	ANIMAL	23	n/a	1	n/a	n/a	n/a	n/a	n/a
-0.002	n/a	FFR_REC_WORD	-1	wordpools/wasnorm_wordpool.txt	LTP107	ltpFR	18	n/a	0	WAVE	1596	n/a	1	n/a	n/a	n/a	n/a	n/a
-0.002	n/a	FFR_REC_WORD	-1	wordpools/wasnorm_wordpool.txt	LTP107	ltpFR	18	n/a	0	CATHEDRAL	260	n/a	1	n/a	n/a	n/a	n/a	n/a
-0.002	n/a	FFR_REC_WORD	-1	wordpools/wasnorm_wordpool.txt	LTP107	ltpFR	18	n/a	0	PEDESTRIAN	1038	n/a	1	n/a	n/a	n/a	n/a	n/a
-0.002	n/a	FFR_REC_WORD	-1	wordpools/wasnorm_wordpool.txt	LTP107	ltpFR	18	n/a	0	BANNER	85	n/a	1	n/a	n/a	n/a	n/a	n/a
-0.002	n/a	FFR_REC_WORD	-1	wordpools/wasnorm_wordpool.txt	LTP107	ltpFR	18	n/a	1	OCEAN	970	n/a	1	n/a	n/a	n/a	n/a	n/a
-0.002	n/a	FFR_REC_WORD	-1	wordpools/wasnorm_wordpool.txt	LTP107	ltpFR	18	n/a	0	SEA	1259	n/a	1	n/a	n/a	n/a	n/a	n/a
-0.002	n/a	FFR_REC_WORD	-1	wordpools/wasnorm_wordpool.txt	LTP107	ltpFR	18	n/a	0	OYSTER	995	n/a	0	n/a	n/a	n/a	n/a	n/a
-0.002	n/a	FFR_REC_WORD	-1	wordpools/wasnorm_wordpool.txt	LTP107	ltpFR	18	n/a	0	SHELL	1281	n/a	0	n/a	n/a	n/a	n/a	n/a
-0.002	n/a	FFR_REC_WORD	-1	wordpools/wasnorm_wordpool.txt	LTP107	ltpFR	18	n/a	n/a	SCALLOP	1242	n/a	n/a	n/a	n/a	n/a	n/a	n/a
-0.002	n/a	FFR_REC_WORD	-1	wordpools/wasnorm_wordpool.txt	LTP107	ltpFR	18	n/a	0	STRAWBERRY	1391	n/a	0	n/a	n/a	n/a	n/a	n/a
-0.002	n/a	FFR_REC_WORD	-1	wordpools/wasnorm_wordpool.txt	LTP107	ltpFR	18	n/a	-1	DESSERT	453	n/a	-1	n/a	n/a	n/a	n/a	n/a
-0.002	n/a	FFR_REC_WORD	-1	wordpools/wasnorm_wordpool.txt	LTP107	ltpFR	18	n/a	-1	SEAL	1262	n/a	-1	n/a	n/a	n/a	n/a	n/a
-0.002	n/a	FFR_REC_WORD	-1	wordpools/wasnorm_wordpool.txt	LTP107	ltpFR	18	n/a	0	DIVER	476	n/a	1	n/a	n/a	n/a	n/a	n/a
-0.002	n/a	FFR_REC_WORD	-1	wordpools/wasnorm_wordpool.txt	LTP107	ltpFR	18	n/a	1	ATTORNEY	58	n/a	1	n/a	n/a	n/a	n/a	n/a
-0.002	n/a	FFR_REC_WORD	-1	wordpools/wasnorm_wordpool.txt	LTP107	ltpFR	18	n/a	n/a	LAWYER	806	n/a	n/a	n/a	n/a	n/a	n/a	n/a
-0.002	n/a	FFR_REC_WORD	-1	wordpools/wasnorm_wordpool.txt	LTP107	ltpFR	18	n/a	0	GIRL	637	n/a	0	n/a	n/a	n/a	n/a	n/a
-0.002	n/a	FFR_REC_WORD	-1	wordpools/wasnorm_wordpool.txt	LTP107	ltpFR	18	n/a	0	FAMILY	550	n/a	1	n/a	n/a	n/a	n/a	n/a
-0.002	n/a	FFR_REC_WORD	-1	wordpools/wasnorm_wordpool.txt	LTP107	ltpFR	18	n/a	0	MOTHER	921	n/a	1	n/a	n/a	n/a	n/a	n/a
-0.002	n/a	FFR_REC_WORD	-1	wordpools/wasnorm_wordpool.txt	LTP107	ltpFR	18	n/a	0	GUN	673	n/a	0	n/a	n/a	n/a	n/a	n/a
-0.002	n/a	FFR_REC_WORD	-1	wordpools/wasnorm_wordpool.txt	LTP107	ltpFR	18	n/a	0	ACTOR	5	n/a	1	n/a	n/a	n/a	n/a	n/a
-0.002	n/a	FFR_REC_WORD	-1	wordpools/wasnorm_wordpool.txt	LTP107	ltpFR	18	n/a	0	STAGE	1366	n/a	1	n/a	n/a	n/a	n/a	n/a
-0.002	n/a	FFR_REC_WORD	-1	wordpools/wasnorm_wordpool.txt	LTP107	ltpFR	18	n/a	0	AIRPORT	13	n/a	1	n/a	n/a	n/a	n/a	n/a
-0.002	n/a	FFR_REC_WORD	-1	wordpools/wasnorm_wordpool.txt	LTP107	ltpFR	18	n/a	0	AIRPLANE	12	n/a	1	n/a	n/a	n/a	n/a	n/a
-0.002	n/a	FFR_REC_WORD	-1	wordpools/wasnorm_wordpool.txt	LTP107	ltpFR	18	n/a	0	PLANE	1081	n/a	1	n/a	n/a	n/a	n/a	n/a
-0.002	n/a	FFR_REC_WORD	-1	wordpools/wasnorm_wordpool.txt	LTP107	ltpFR	18	n/a	1	OCEAN	970	n/a	1	n/a	n/a	n/a	n/a	n/a
-0.002	n/a	FFR_REC_WORD	-1	wordpools/wasnorm_wordpool.txt	LTP107	ltpFR	18	n/a	0	SAND	1230	n/a	0	n/a	n/a	n/a	n/a	n/a
-0.002	n/a	FFR_REC_WORD	-1	wordpools/wasnorm_wordpool.txt	LTP107	ltpFR	18	n/a	0	SHORE	1291	n/a	1	n/a	n/a	n/a	n/a	n/a
-0.002	n/a	FFR_REC_WORD	-1	wordpools/wasnorm_wordpool.txt	LTP107	ltpFR	18	n/a	0	EMPEROR	529	n/a	1	n/a	n/a	n/a	n/a	n/a
-0.002	n/a	FFR_REC_WORD	-1	wordpools/wasnorm_wordpool.txt	LTP107	ltpFR	18	n/a	0	EMPIRE	530	n/a	1	n/a	n/a	n/a	n/a	n/a
-0.002	n/a	FFR_REC_WORD	-1	wordpools/wasnorm_wordpool.txt	LTP107	ltpFR	18	n/a	0	RATTLE	1170	n/a	0	n/a	n/a	n/a	n/a	n/a
-0.002	n/a	FFR_REC_WORD	-1	wordpools/wasnorm_wordpool.txt	LTP107	ltpFR	18	n/a	1	BIOLOGIST	128	n/a	1	n/a	n/a	n/a	n/a	n/a
-0.002	n/a	FFR_REC_WORD_VV	-1	wordpools/wasnorm_wordpool.txt	LTP107	ltpFR	18	n/a	n/a	<>	-1	n/a	n/a	n/a	n/a	n/a	n/a	n/a
-0.002	n/a	FFR_REC_WORD	-1	wordpools/wasnorm_wordpool.txt	LTP107	ltpFR	18	n/a	-1	NUCLEUS	961	n/a	-1	n/a	n/a	n/a	n/a	n/a
-0.002	n/a	FFR_REC_WORD	-1	wordpools/wasnorm_wordpool.txt	LTP107	ltpFR	18	n/a	1	UNIVERSE	1540	n/a	0	n/a	n/a	n/a	n/a	n/a
-0.002	n/a	FFR_REC_WORD	-1	wordpools/wasnorm_wordpool.txt	LTP107	ltpFR	18	n/a	1	EARTH	515	n/a	0	n/a	n/a	n/a	n/a	n/a
-0.002	n/a	FFR_REC_WORD	-1	wordpools/wasnorm_wordpool.txt	LTP107	ltpFR	18	n/a	-1	GALAXY	617	n/a	-1	n/a	n/a	n/a	n/a	n/a
-0.002	n/a	FFR_REC_WORD	-1	wordpools/wasnorm_wordpool.txt	LTP107	ltpFR	18	n/a	-1	MOON	914	n/a	-1	n/a	n/a	n/a	n/a	n/a
-0.002	n/a	FFR_REC_WORD	-1	wordpools/wasnorm_wordpool.txt	LTP107	ltpFR	18	n/a	-1	MARBLE	867	n/a	-1	n/a	n/a	n/a	n/a	n/a
-0.002	n/a	FFR_REC_WORD	-1	wordpools/wasnorm_wordpool.txt	LTP107	ltpFR	18	n/a	1	SIDING	1304	n/a	0	n/a	n/a	n/a	n/a	n/a
-0.002	n/a	FFR_REC_WORD	-1	wordpools/wasnorm_wordpool.txt	LTP107	ltpFR	18	n/a	1	CHEERLEADER	288	n/a	1	n/a	n/a	n/a	n/a	n/a
-0.002	n/a	FFR_REC_WORD	-1	wordpools/wasnorm_wordpool.txt	LTP107	ltpFR	18	n/a	1	CASTLE	256	n/a	0	n/a	n/a	n/a	n/a	n/a
-0.002	n/a	FFR_REC_WORD	-1	wordpools/wasnorm_wordpool.txt	LTP107	ltpFR	18	n/a	1	DUNGEON	507	n/a	0	n/a	n/a	n/a	n/a	n/a
-0.002	n/a	FFR_REC_WORD	-1	wordpools/wasnorm_wordpool.txt	LTP107	ltpFR	18	n/a	1	AGENT	10	n/a	1	n/a	n/a	n/a	n/a	n/a
-0.002	n/a	FFR_REC_WORD	-1	wordpools/wasnorm_wordpool.txt	LTP107	ltpFR	18	n/a	1	COSTUME	383	n/a	0	n/a	n/a	n/a	n/a	n/a
-0.002	n/a	FFR_REC_WORD	-1	wordpools/wasnorm_wordpool.txt	LTP107	ltpFR	18	n/a	1	TRENCH	1503	n/a	0	n/a	n/a	n/a	n/a	n/a
-0.002	n/a	FFR_REC_WORD	-1	wordpools/wasnorm_wordpool.txt	LTP107	ltpFR	18	n/a	1	COAT	333	n/a	0	n/a	n/a	n/a	n/a	n/a
-0.002	n/a	FFR_REC_WORD	-1	wordpools/wasnorm_wordpool.txt	LTP107	ltpFR	18	n/a	1	TOAD	1470	n/a	1	n/a	n/a	n/a	n/a	n/a
-0.002	n/a	FFR_REC_WORD	-1	wordpools/wasnorm_wordpool.txt	LTP107	ltpFR	18	n/a	1	EYELASH	546	n/a	0	n/a	n/a	n/a	n/a	n/a
-0.002	n/a	FFR_REC_WORD_VV	-1	wordpools/wasnorm_wordpool.txt	LTP107	ltpFR	18	n/a	n/a	<>	-1	n/a	n/a	n/a	n/a	n/a	n/a	n/a
-0.002	n/a	FFR_REC_WORD	-1	wordpools/wasnorm_wordpool.txt	LTP107	ltpFR	18	n/a	1	TEAM	1441	n/a	0	n/a	n/a	n/a	n/a	n/a
-0.002	n/a	FFR_REC_WORD	-1	wordpools/wasnorm_wordpool.txt	LTP107	ltpFR	18	n/a	1	PALACE	1006	n/a	0	n/a	n/a	n/a	n/a	n/a
-0.002	n/a	FFR_REC_WORD	-1	wordpools/wasnorm_wordpool.txt	LTP107	ltpFR	18	n/a	n/a	MANSION	864	n/a	n/a	n/a	n/a	n/a	n/a	n/a
-0.002	n/a	FFR_REC_WORD	-1	wordpools/wasnorm_wordpool.txt	LTP107	ltpFR	18	n/a	0	RULER	1216	n/a	0	n/a	n/a	n/a	n/a	n/a
-0.002	n/a	REC_START	-1	n/a	LTP107	ltpFR	18	1	n/a	n/a	n/a	n/a	n/a	n/a	n/a	n/a	n/a	n/a
-0.002	n/a	RECOG_TARGET	-1	n/a	LTP107	ltpFR	18	1	-1	CARAVAN	242	5	-1	n/a	n/a	n/a	n/a	n/a
-0.002	n/a	RECOG_RESP	-1	n/a	LTP107	ltpFR	18	1	-1	CARAVAN	242	n/a	-1	n/a	n/a	n/a	n/a	n/a
-0.002	n/a	RECOG_CONF	-1	n/a	LTP107	ltpFR	18	1	-1	CARAVAN	242	5	-1	n/a	n/a	n/a	n/a	n/a
-0.002	n/a	RECOG_TARGET	-1	n/a	LTP107	ltpFR	18	1	0	CLAM	315	5	0	n/a	n/a	n/a	n/a	n/a
-0.002	n/a	RECOG_RESP	-1	n/a	LTP107	ltpFR	18	1	0	CLAM	315	n/a	0	n/a	n/a	n/a	n/a	n/a
-0.002	n/a	RECOG_CONF	-1	n/a	LTP107	ltpFR	18	1	0	CLAM	315	5	0	n/a	n/a	n/a	n/a	n/a
-0.002	n/a	RECOG_TARGET	-1	n/a	LTP107	ltpFR	18	1	1	COIN	343	5	0	n/a	n/a	n/a	n/a	n/a
-0.002	n/a	RECOG_RESP	-1	n/a	LTP107	ltpFR	18	1	1	COIN	343	n/a	0	n/a	n/a	n/a	n/a	n/a
-0.002	n/a	RECOG_CONF	-1	n/a	LTP107	ltpFR	18	1	1	COIN	343	5	0	n/a	n/a	n/a	n/a	n/a
-0.002	n/a	RECOG_TARGET	-1	n/a	LTP107	ltpFR	18	1	0	PATRIOT	1026	5	0	n/a	n/a	n/a	n/a	n/a
-0.002	n/a	RECOG_RESP	-1	n/a	LTP107	ltpFR	18	1	0	PATRIOT	1026	n/a	0	n/a	n/a	n/a	n/a	n/a
-0.002	n/a	RECOG_CONF	-1	n/a	LTP107	ltpFR	18	1	0	PATRIOT	1026	5	0	n/a	n/a	n/a	n/a	n/a
-0.002	n/a	RECOG_TARGET	-1	n/a	LTP107	ltpFR	18	1	0	ANIMAL	23	5	1	n/a	n/a	n/a	n/a	n/a
-0.002	n/a	RECOG_RESP	-1	n/a	LTP107	ltpFR	18	1	0	ANIMAL	23	n/a	1	n/a	n/a	n/a	n/a	n/a
-0.002	n/a	RECOG_CONF	-1	n/a	LTP107	ltpFR	18	1	0	ANIMAL	23	5	1	n/a	n/a	n/a	n/a	n/a
-0.002	n/a	RECOG_TARGET	-1	n/a	LTP107	ltpFR	18	1	1	CLOSET	326	4	0	n/a	n/a	n/a	n/a	n/a
-0.002	n/a	RECOG_RESP	-1	n/a	LTP107	ltpFR	18	1	1	CLOSET	326	n/a	0	n/a	n/a	n/a	n/a	n/a
-0.002	n/a	RECOG_CONF	-1	n/a	LTP107	ltpFR	18	1	1	CLOSET	326	4	0	n/a	n/a	n/a	n/a	n/a
-0.002	n/a	RECOG_TARGET	-1	n/a	LTP107	ltpFR	18	1	0	COW	393	5	1	n/a	n/a	n/a	n/a	n/a
-0.002	n/a	RECOG_RESP	-1	n/a	LTP107	ltpFR	18	1	0	COW	393	n/a	1	n/a	n/a	n/a	n/a	n/a
-0.002	n/a	RECOG_CONF	-1	n/a	LTP107	ltpFR	18	1	0	COW	393	5	1	n/a	n/a	n/a	n/a	n/a
-0.002	n/a	RECOG_TARGET	-1	n/a	LTP107	ltpFR	18	1	-1	SPONGE	1355	4	-1	n/a	n/a	n/a	n/a	n/a
-0.002	n/a	RECOG_RESP	-1	n/a	LTP107	ltpFR	18	1	-1	SPONGE	1355	n/a	-1	n/a	n/a	n/a	n/a	n/a
-0.002	n/a	RECOG_CONF	-1	n/a	LTP107	ltpFR	18	1	-1	SPONGE	1355	4	-1	n/a	n/a	n/a	n/a	n/a
-0.002	n/a	RECOG_TARGET	-1	n/a	LTP107	ltpFR	18	1	1	BOTTLE	153	5	0	n/a	n/a	n/a	n/a	n/a
-0.002	n/a	RECOG_RESP	-1	n/a	LTP107	ltpFR	18	1	1	BOTTLE	153	n/a	0	n/a	n/a	n/a	n/a	n/a
-0.002	n/a	RECOG_CONF	-1	n/a	LTP107	ltpFR	18	1	1	BOTTLE	153	5	0	n/a	n/a	n/a	n/a	n/a
-0.002	n/a	RECOG_TARGET	-1	n/a	LTP107	ltpFR	18	1	-1	RAG	1160	5	-1	n/a	n/a	n/a	n/a	n/a
-0.002	n/a	RECOG_RESP	-1	n/a	LTP107	ltpFR	18	1	-1	RAG	1160	n/a	-1	n/a	n/a	n/a	n/a	n/a
-0.002	n/a	RECOG_CONF	-1	n/a	LTP107	ltpFR	18	1	-1	RAG	1160	5	-1	n/a	n/a	n/a	n/a	n/a
-0.002	n/a	RECOG_TARGET	-1	n/a	LTP107	ltpFR	18	1	0	MIRROR	899	1	1	n/a	n/a	n/a	n/a	n/a
-0.002	n/a	RECOG_RESP	-1	n/a	LTP107	ltpFR	18	1	0	MIRROR	899	n/a	1	n/a	n/a	n/a	n/a	n/a
-0.002	n/a	RECOG_CONF	-1	n/a	LTP107	ltpFR	18	1	0	MIRROR	899	1	1	n/a	n/a	n/a	n/a	n/a
-0.002	n/a	RECOG_TARGET	-1	n/a	LTP107	ltpFR	18	1	0	ITEM	746	5	0	n/a	n/a	n/a	n/a	n/a
-0.002	n/a	RECOG_RESP	-1	n/a	LTP107	ltpFR	18	1	0	ITEM	746	n/a	0	n/a	n/a	n/a	n/a	n/a
-0.002	n/a	RECOG_CONF	-1	n/a	LTP107	ltpFR	18	1	0	ITEM	746	5	0	n/a	n/a	n/a	n/a	n/a
-0.002	n/a	RECOG_TARGET	-1	n/a	LTP107	ltpFR	18	1	0	CATHEDRAL	260	5	1	n/a	n/a	n/a	n/a	n/a
-0.002	n/a	RECOG_RESP	-1	n/a	LTP107	ltpFR	18	1	0	CATHEDRAL	260	n/a	1	n/a	n/a	n/a	n/a	n/a
-0.002	n/a	RECOG_CONF	-1	n/a	LTP107	ltpFR	18	1	0	CATHEDRAL	260	5	1	n/a	n/a	n/a	n/a	n/a
-0.002	n/a	RECOG_TARGET	-1	n/a	LTP107	ltpFR	18	1	0	SHELL	1281	5	0	n/a	n/a	n/a	n/a	n/a
-0.002	n/a	RECOG_RESP	-1	n/a	LTP107	ltpFR	18	1	0	SHELL	1281	n/a	0	n/a	n/a	n/a	n/a	n/a
-0.002	n/a	RECOG_CONF	-1	n/a	LTP107	ltpFR	18	1	0	SHELL	1281	5	0	n/a	n/a	n/a	n/a	n/a
-0.002	n/a	RECOG_TARGET	-1	n/a	LTP107	ltpFR	18	1	-1	LOVER	846	4	-1	n/a	n/a	n/a	n/a	n/a
-0.002	n/a	RECOG_RESP	-1	n/a	LTP107	ltpFR	18	1	-1	LOVER	846	n/a	-1	n/a	n/a	n/a	n/a	n/a
-0.002	n/a	RECOG_CONF	-1	n/a	LTP107	ltpFR	18	1	-1	LOVER	846	4	-1	n/a	n/a	n/a	n/a	n/a
-0.002	n/a	RECOG_TARGET	-1	n/a	LTP107	ltpFR	18	1	-1	LOOP	844	5	-1	n/a	n/a	n/a	n/a	n/a
-0.002	n/a	RECOG_RESP	-1	n/a	LTP107	ltpFR	18	1	-1	LOOP	844	n/a	-1	n/a	n/a	n/a	n/a	n/a
-0.002	n/a	RECOG_CONF	-1	n/a	LTP107	ltpFR	18	1	-1	LOOP	844	5	-1	n/a	n/a	n/a	n/a	n/a
-0.002	n/a	RECOG_TARGET	-1	n/a	LTP107	ltpFR	18	1	1	ATTORNEY	58	4	1	n/a	n/a	n/a	n/a	n/a
-0.002	n/a	RECOG_RESP	-1	n/a	LTP107	ltpFR	18	1	1	ATTORNEY	58	n/a	1	n/a	n/a	n/a	n/a	n/a
-0.002	n/a	RECOG_CONF	-1	n/a	LTP107	ltpFR	18	1	1	ATTORNEY	58	4	1	n/a	n/a	n/a	n/a	n/a
-0.002	n/a	RECOG_TARGET	-1	n/a	LTP107	ltpFR	18	1	0	SIGNATURE	1306	5	2	n/a	n/a	n/a	n/a	n/a
-0.002	n/a	RECOG_RESP	-1	n/a	LTP107	ltpFR	18	1	0	SIGNATURE	1306	n/a	2	n/a	n/a	n/a	n/a	n/a
-0.002	n/a	RECOG_CONF	-1	n/a	LTP107	ltpFR	18	1	0	SIGNATURE	1306	5	2	n/a	n/a	n/a	n/a	n/a
-0.002	n/a	RECOG_TARGET	-1	n/a	LTP107	ltpFR	18	1	1	PRODUCER	1129	5	1	n/a	n/a	n/a	n/a	n/a
-0.002	n/a	RECOG_RESP	-1	n/a	LTP107	ltpFR	18	1	1	PRODUCER	1129	n/a	1	n/a	n/a	n/a	n/a	n/a
-0.002	n/a	RECOG_CONF	-1	n/a	LTP107	ltpFR	18	1	1	PRODUCER	1129	5	1	n/a	n/a	n/a	n/a	n/a
-0.002	n/a	RECOG_TARGET	-1	n/a	LTP107	ltpFR	18	1	0	SEA	1259	5	1	n/a	n/a	n/a	n/a	n/a
-0.002	n/a	RECOG_RESP	-1	n/a	LTP107	ltpFR	18	1	0	SEA	1259	n/a	1	n/a	n/a	n/a	n/a	n/a
-0.002	n/a	RECOG_CONF	-1	n/a	LTP107	ltpFR	18	1	0	SEA	1259	5	1	n/a	n/a	n/a	n/a	n/a
-0.002	n/a	REC_START	-1	n/a	LTP107	ltpFR	18	2	n/a	n/a	n/a	n/a	n/a	n/a	n/a	n/a	n/a	n/a
-0.002	n/a	RECOG_TARGET	-1	n/a	LTP107	ltpFR	18	2	1	KING	777	2	1	n/a	n/a	n/a	n/a	n/a
-0.002	n/a	RECOG_RESP	-1	n/a	LTP107	ltpFR	18	2	1	KING	777	n/a	1	n/a	n/a	n/a	n/a	n/a
-0.002	n/a	RECOG_CONF	-1	n/a	LTP107	ltpFR	18	2	1	KING	777	2	1	n/a	n/a	n/a	n/a	n/a
-0.002	n/a	RECOG_LURE	-1	n/a	LTP107	ltpFR	18	2	n/a	APPENDAGE	32	3	n/a	n/a	n/a	n/a	n/a	n/a
-0.002	n/a	RECOG_RESP	-1	n/a	LTP107	ltpFR	18	2	n/a	APPENDAGE	32	n/a	n/a	n/a	n/a	n/a	n/a	n/a
-0.002	n/a	RECOG_CONF	-1	n/a	LTP107	ltpFR	18	2	n/a	APPENDAGE	32	3	n/a	n/a	n/a	n/a	n/a	n/a
-0.002	n/a	RECOG_TARGET	-1	n/a	LTP107	ltpFR	18	2	1	SIDING	1304	5	0	n/a	n/a	n/a	n/a	n/a
-0.002	n/a	RECOG_RESP	-1	n/a	LTP107	ltpFR	18	2	1	SIDING	1304	n/a	0	n/a	n/a	n/a	n/a	n/a
-0.002	n/a	RECOG_CONF	-1	n/a	LTP107	ltpFR	18	2	1	SIDING	1304	5	0	n/a	n/a	n/a	n/a	n/a
-0.002	n/a	RECOG_LURE	-1	n/a	LTP107	ltpFR	18	2	n/a	SHOVEL	1295	4	n/a	n/a	n/a	n/a	n/a	n/a
-0.002	n/a	RECOG_RESP	-1	n/a	LTP107	ltpFR	18	2	n/a	SHOVEL	1295	n/a	n/a	n/a	n/a	n/a	n/a	n/a
-0.002	n/a	RECOG_CONF	-1	n/a	LTP107	ltpFR	18	2	n/a	SHOVEL	1295	4	n/a	n/a	n/a	n/a	n/a	n/a
-0.002	n/a	RECOG_TARGET	-1	n/a	LTP107	ltpFR	18	2	0	BARTENDER	92	5	1	n/a	n/a	n/a	n/a	n/a
-0.002	n/a	RECOG_RESP	-1	n/a	LTP107	ltpFR	18	2	0	BARTENDER	92	n/a	1	n/a	n/a	n/a	n/a	n/a
-0.002	n/a	RECOG_CONF	-1	n/a	LTP107	ltpFR	18	2	0	BARTENDER	92	5	1	n/a	n/a	n/a	n/a	n/a
-0.002	n/a	RECOG_TARGET	-1	n/a	LTP107	ltpFR	18	2	1	OCEAN	970	5	1	n/a	n/a	n/a	n/a	n/a
-0.002	n/a	RECOG_RESP	-1	n/a	LTP107	ltpFR	18	2	1	OCEAN	970	n/a	1	n/a	n/a	n/a	n/a	n/a
-0.002	n/a	RECOG_CONF	-1	n/a	LTP107	ltpFR	18	2	1	OCEAN	970	5	1	n/a	n/a	n/a	n/a	n/a
-0.002	n/a	RECOG_TARGET	-1	n/a	LTP107	ltpFR	18	2	1	BIKE	125	5	0	n/a	n/a	n/a	n/a	n/a
-0.002	n/a	RECOG_RESP	-1	n/a	LTP107	ltpFR	18	2	1	BIKE	125	n/a	0	n/a	n/a	n/a	n/a	n/a
-0.002	n/a	RECOG_CONF	-1	n/a	LTP107	ltpFR	18	2	1	BIKE	125	5	0	n/a	n/a	n/a	n/a	n/a
-0.002	n/a	RECOG_TARGET	-1	n/a	LTP107	ltpFR	18	2	-1	SEAL	1262	5	-1	n/a	n/a	n/a	n/a	n/a
-0.002	n/a	RECOG_RESP	-1	n/a	LTP107	ltpFR	18	2	-1	SEAL	1262	n/a	-1	n/a	n/a	n/a	n/a	n/a
-0.002	n/a	RECOG_CONF	-1	n/a	LTP107	ltpFR	18	2	-1	SEAL	1262	5	-1	n/a	n/a	n/a	n/a	n/a
-0.002	n/a	RECOG_TARGET	-1	n/a	LTP107	ltpFR	18	2	1	TREAD	1499	5	0	n/a	n/a	n/a	n/a	n/a
-0.002	n/a	RECOG_RESP	-1	n/a	LTP107	ltpFR	18	2	1	TREAD	1499	n/a	0	n/a	n/a	n/a	n/a	n/a
-0.002	n/a	RECOG_CONF	-1	n/a	LTP107	ltpFR	18	2	1	TREAD	1499	5	0	n/a	n/a	n/a	n/a	n/a
-0.002	n/a	RECOG_LURE	-1	n/a	LTP107	ltpFR	18	2	n/a	ORCHID	982	4	n/a	n/a	n/a	n/a	n/a	n/a
-0.002	n/a	RECOG_RESP	-1	n/a	LTP107	ltpFR	18	2	n/a	ORCHID	982	n/a	n/a	n/a	n/a	n/a	n/a	n/a
-0.002	n/a	RECOG_CONF	-1	n/a	LTP107	ltpFR	18	2	n/a	ORCHID	982	4	n/a	n/a	n/a	n/a	n/a	n/a
-0.002	n/a	RECOG_TARGET	-1	n/a	LTP107	ltpFR	18	2	1	STEAM	1375	5	0	n/a	n/a	n/a	n/a	n/a
-0.002	n/a	RECOG_RESP	-1	n/a	LTP107	ltpFR	18	2	1	STEAM	1375	n/a	0	n/a	n/a	n/a	n/a	n/a
-0.002	n/a	RECOG_CONF	-1	n/a	LTP107	ltpFR	18	2	1	STEAM	1375	5	0	n/a	n/a	n/a	n/a	n/a
-0.002	n/a	RECOG_LURE	-1	n/a	LTP107	ltpFR	18	2	n/a	STEM	1376	2	n/a	n/a	n/a	n/a	n/a	n/a
-0.002	n/a	RECOG_RESP	-1	n/a	LTP107	ltpFR	18	2	n/a	STEM	1376	n/a	n/a	n/a	n/a	n/a	n/a	n/a
-0.002	n/a	RECOG_CONF	-1	n/a	LTP107	ltpFR	18	2	n/a	STEM	1376	2	n/a	n/a	n/a	n/a	n/a	n/a
-0.002	n/a	RECOG_TARGET	-1	n/a	LTP107	ltpFR	18	2	0	CHICKEN	297	5	0	n/a	n/a	n/a	n/a	n/a
-0.002	n/a	RECOG_RESP	-1	n/a	LTP107	ltpFR	18	2	0	CHICKEN	297	n/a	0	n/a	n/a	n/a	n/a	n/a
-0.002	n/a	RECOG_CONF	-1	n/a	LTP107	ltpFR	18	2	0	CHICKEN	297	5	0	n/a	n/a	n/a	n/a	n/a
-0.002	n/a	RECOG_TARGET	-1	n/a	LTP107	ltpFR	18	2	0	AIRPORT	13	5	1	n/a	n/a	n/a	n/a	n/a
-0.002	n/a	RECOG_RESP	-1	n/a	LTP107	ltpFR	18	2	0	AIRPORT	13	n/a	1	n/a	n/a	n/a	n/a	n/a
-0.002	n/a	RECOG_CONF	-1	n/a	LTP107	ltpFR	18	2	0	AIRPORT	13	5	1	n/a	n/a	n/a	n/a	n/a
-0.002	n/a	RECOG_TARGET	-1	n/a	LTP107	ltpFR	18	2	-1	DESSERT	453	5	-1	n/a	n/a	n/a	n/a	n/a
-0.002	n/a	RECOG_RESP	-1	n/a	LTP107	ltpFR	18	2	-1	DESSERT	453	n/a	-1	n/a	n/a	n/a	n/a	n/a
-0.002	n/a	RECOG_CONF	-1	n/a	LTP107	ltpFR	18	2	-1	DESSERT	453	5	-1	n/a	n/a	n/a	n/a	n/a
-0.002	n/a	RECOG_LURE	-1	n/a	LTP107	ltpFR	18	2	n/a	BAIT	70	2	n/a	n/a	n/a	n/a	n/a	n/a
-0.002	n/a	RECOG_RESP	-1	n/a	LTP107	ltpFR	18	2	n/a	BAIT	70	n/a	n/a	n/a	n/a	n/a	n/a	n/a
-0.002	n/a	RECOG_CONF	-1	n/a	LTP107	ltpFR	18	2	n/a	BAIT	70	2	n/a	n/a	n/a	n/a	n/a	n/a
-0.002	n/a	RECOG_LURE	-1	n/a	LTP107	ltpFR	18	2	n/a	PORCUPINE	1107	4	n/a	n/a	n/a	n/a	n/a	n/a
-0.002	n/a	RECOG_RESP	-1	n/a	LTP107	ltpFR	18	2	n/a	PORCUPINE	1107	n/a	n/a	n/a	n/a	n/a	n/a	n/a
-0.002	n/a	RECOG_CONF	-1	n/a	LTP107	ltpFR	18	2	n/a	PORCUPINE	1107	4	n/a	n/a	n/a	n/a	n/a	n/a
-0.002	n/a	RECOG_TARGET	-1	n/a	LTP107	ltpFR	18	2	0	PAPER	1011	5	0	n/a	n/a	n/a	n/a	n/a
-0.002	n/a	RECOG_RESP	-1	n/a	LTP107	ltpFR	18	2	0	PAPER	1011	n/a	0	n/a	n/a	n/a	n/a	n/a
-0.002	n/a	RECOG_CONF	-1	n/a	LTP107	ltpFR	18	2	0	PAPER	1011	5	0	n/a	n/a	n/a	n/a	n/a
-0.002	n/a	RECOG_TARGET	-1	n/a	LTP107	ltpFR	18	2	1	BEETLE	116	5	0	n/a	n/a	n/a	n/a	n/a
-0.002	n/a	RECOG_RESP	-1	n/a	LTP107	ltpFR	18	2	1	BEETLE	116	n/a	0	n/a	n/a	n/a	n/a	n/a
-0.002	n/a	RECOG_CONF	-1	n/a	LTP107	ltpFR	18	2	1	BEETLE	116	5	0	n/a	n/a	n/a	n/a	n/a
-0.002	n/a	RECOG_LURE	-1	n/a	LTP107	ltpFR	18	2	n/a	MONEY	908	2	n/a	n/a	n/a	n/a	n/a	n/a
-0.002	n/a	RECOG_RESP	-1	n/a	LTP107	ltpFR	18	2	n/a	MONEY	908	n/a	n/a	n/a	n/a	n/a	n/a	n/a
-0.002	n/a	RECOG_CONF	-1	n/a	LTP107	ltpFR	18	2	n/a	MONEY	908	2	n/a	n/a	n/a	n/a	n/a	n/a
-0.002	n/a	REC_START	-1	n/a	LTP107	ltpFR	18	3	n/a	n/a	n/a	n/a	n/a	n/a	n/a	n/a	n/a	n/a
-0.002	n/a	RECOG_TARGET	-1	n/a	LTP107	ltpFR	18	3	1	DUNGEON	507	5	0	n/a	n/a	n/a	n/a	n/a
-0.002	n/a	RECOG_RESP	-1	n/a	LTP107	ltpFR	18	3	1	DUNGEON	507	n/a	0	n/a	n/a	n/a	n/a	n/a
-0.002	n/a	RECOG_CONF	-1	n/a	LTP107	ltpFR	18	3	1	DUNGEON	507	5	0	n/a	n/a	n/a	n/a	n/a
-0.002	n/a	RECOG_TARGET	-1	n/a	LTP107	ltpFR	18	3	0	RULER	1216	5	0	n/a	n/a	n/a	n/a	n/a
-0.002	n/a	RECOG_RESP	-1	n/a	LTP107	ltpFR	18	3	0	RULER	1216	n/a	0	n/a	n/a	n/a	n/a	n/a
-0.002	n/a	RECOG_CONF	-1	n/a	LTP107	ltpFR	18	3	0	RULER	1216	5	0	n/a	n/a	n/a	n/a	n/a
-0.002	n/a	RECOG_TARGET	-1	n/a	LTP107	ltpFR	18	3	-1	ROOMMATE	1207	5	-1	n/a	n/a	n/a	n/a	n/a
-0.002	n/a	RECOG_RESP	-1	n/a	LTP107	ltpFR	18	3	-1	ROOMMATE	1207	n/a	-1	n/a	n/a	n/a	n/a	n/a
-0.002	n/a	RECOG_CONF	-1	n/a	LTP107	ltpFR	18	3	-1	ROOMMATE	1207	5	-1	n/a	n/a	n/a	n/a	n/a
-0.002	n/a	RECOG_TARGET	-1	n/a	LTP107	ltpFR	18	3	1	SARDINE	1235	5	0	n/a	n/a	n/a	n/a	n/a
-0.002	n/a	RECOG_RESP	-1	n/a	LTP107	ltpFR	18	3	1	SARDINE	1235	n/a	0	n/a	n/a	n/a	n/a	n/a
-0.002	n/a	RECOG_CONF	-1	n/a	LTP107	ltpFR	18	3	1	SARDINE	1235	5	0	n/a	n/a	n/a	n/a	n/a
-0.002	n/a	RECOG_TARGET	-1	n/a	LTP107	ltpFR	18	3	1	COBBLER	335	5	0	n/a	n/a	n/a	n/a	n/a
-0.002	n/a	RECOG_RESP	-1	n/a	LTP107	ltpFR	18	3	1	COBBLER	335	n/a	0	n/a	n/a	n/a	n/a	n/a
-0.002	n/a	RECOG_CONF	-1	n/a	LTP107	ltpFR	18	3	1	COBBLER	335	5	0	n/a	n/a	n/a	n/a	n/a
-0.002	n/a	RECOG_TARGET	-1	n/a	LTP107	ltpFR	18	3	-1	BEDROOM	111	5	-1	n/a	n/a	n/a	n/a	n/a
-0.002	n/a	RECOG_RESP	-1	n/a	LTP107	ltpFR	18	3	-1	BEDROOM	111	n/a	-1	n/a	n/a	n/a	n/a	n/a
-0.002	n/a	RECOG_CONF	-1	n/a	LTP107	ltpFR	18	3	-1	BEDROOM	111	5	-1	n/a	n/a	n/a	n/a	n/a
-0.002	n/a	RECOG_TARGET	-1	n/a	LTP107	ltpFR	18	3	0	WINDSHIELD	1612	5	1	n/a	n/a	n/a	n/a	n/a
-0.002	n/a	RECOG_RESP	-1	n/a	LTP107	ltpFR	18	3	0	WINDSHIELD	1612	n/a	1	n/a	n/a	n/a	n/a	n/a
-0.002	n/a	RECOG_CONF	-1	n/a	LTP107	ltpFR	18	3	0	WINDSHIELD	1612	5	1	n/a	n/a	n/a	n/a	n/a
-0.002	n/a	RECOG_TARGET	-1	n/a	LTP107	ltpFR	18	3	-1	PLANT	1083	5	-1	n/a	n/a	n/a	n/a	n/a
-0.002	n/a	RECOG_RESP	-1	n/a	LTP107	ltpFR	18	3	-1	PLANT	1083	n/a	-1	n/a	n/a	n/a	n/a	n/a
-0.002	n/a	RECOG_CONF	-1	n/a	LTP107	ltpFR	18	3	-1	PLANT	1083	5	-1	n/a	n/a	n/a	n/a	n/a
-0.002	n/a	RECOG_TARGET	-1	n/a	LTP107	ltpFR	18	3	-1	MAID	856	5	-1	n/a	n/a	n/a	n/a	n/a
-0.002	n/a	RECOG_RESP	-1	n/a	LTP107	ltpFR	18	3	-1	MAID	856	n/a	-1	n/a	n/a	n/a	n/a	n/a
-0.002	n/a	RECOG_CONF	-1	n/a	LTP107	ltpFR	18	3	-1	MAID	856	5	-1	n/a	n/a	n/a	n/a	n/a
-0.002	n/a	RECOG_TARGET	-1	n/a	LTP107	ltpFR	18	3	1	UNIVERSE	1540	5	0	n/a	n/a	n/a	n/a	n/a
-0.002	n/a	RECOG_RESP	-1	n/a	LTP107	ltpFR	18	3	1	UNIVERSE	1540	n/a	0	n/a	n/a	n/a	n/a	n/a
-0.002	n/a	RECOG_CONF	-1	n/a	LTP107	ltpFR	18	3	1	UNIVERSE	1540	5	0	n/a	n/a	n/a	n/a	n/a
-0.002	n/a	RECOG_TARGET	-1	n/a	LTP107	ltpFR	18	3	1	PREDATOR	1120	5	1	n/a	n/a	n/a	n/a	n/a
-0.002	n/a	RECOG_RESP	-1	n/a	LTP107	ltpFR	18	3	1	PREDATOR	1120	n/a	1	n/a	n/a	n/a	n/a	n/a
-0.002	n/a	RECOG_CONF	-1	n/a	LTP107	ltpFR	18	3	1	PREDATOR	1120	5	1	n/a	n/a	n/a	n/a	n/a
-0.002	n/a	RECOG_TARGET	-1	n/a	LTP107	ltpFR	18	3	0	NICKEL	950	5	0	n/a	n/a	n/a	n/a	n/a
-0.002	n/a	RECOG_RESP	-1	n/a	LTP107	ltpFR	18	3	0	NICKEL	950	n/a	0	n/a	n/a	n/a	n/a	n/a
-0.002	n/a	RECOG_CONF	-1	n/a	LTP107	ltpFR	18	3	0	NICKEL	950	5	0	n/a	n/a	n/a	n/a	n/a
-0.002	n/a	RECOG_TARGET	-1	n/a	LTP107	ltpFR	18	3	0	BARN	89	4	1	n/a	n/a	n/a	n/a	n/a
-0.002	n/a	RECOG_RESP	-1	n/a	LTP107	ltpFR	18	3	0	BARN	89	n/a	1	n/a	n/a	n/a	n/a	n/a
-0.002	n/a	RECOG_CONF	-1	n/a	LTP107	ltpFR	18	3	0	BARN	89	4	1	n/a	n/a	n/a	n/a	n/a
-0.002	n/a	RECOG_TARGET	-1	n/a	LTP107	ltpFR	18	3	0	OYSTER	995	5	0	n/a	n/a	n/a	n/a	n/a
-0.002	n/a	RECOG_RESP	-1	n/a	LTP107	ltpFR	18	3	0	OYSTER	995	n/a	0	n/a	n/a	n/a	n/a	n/a
-0.002	n/a	RECOG_CONF	-1	n/a	LTP107	ltpFR	18	3	0	OYSTER	995	5	0	n/a	n/a	n/a	n/a	n/a
-0.002	n/a	RECOG_LURE	-1	n/a	LTP107	ltpFR	18	3	n/a	SAW	1239	4	n/a	n/a	n/a	n/a	n/a	n/a
-0.002	n/a	RECOG_RESP	-1	n/a	LTP107	ltpFR	18	3	n/a	SAW	1239	n/a	n/a	n/a	n/a	n/a	n/a	n/a
-0.002	n/a	RECOG_CONF	-1	n/a	LTP107	ltpFR	18	3	n/a	SAW	1239	4	n/a	n/a	n/a	n/a	n/a	n/a
-0.002	n/a	RECOG_TARGET	-1	n/a	LTP107	ltpFR	18	3	1	BUILDER	190	5	1	n/a	n/a	n/a	n/a	n/a
-0.002	n/a	RECOG_RESP	-1	n/a	LTP107	ltpFR	18	3	1	BUILDER	190	n/a	1	n/a	n/a	n/a	n/a	n/a
-0.002	n/a	RECOG_CONF	-1	n/a	LTP107	ltpFR	18	3	1	BUILDER	190	5	1	n/a	n/a	n/a	n/a	n/a
-0.002	n/a	RECOG_LURE	-1	n/a	LTP107	ltpFR	18	3	n/a	CHECK	284	2	n/a	n/a	n/a	n/a	n/a	n/a
-0.002	n/a	RECOG_RESP	-1	n/a	LTP107	ltpFR	18	3	n/a	CHECK	284	n/a	n/a	n/a	n/a	n/a	n/a	n/a
-0.002	n/a	RECOG_CONF	-1	n/a	LTP107	ltpFR	18	3	n/a	CHECK	284	2	n/a	n/a	n/a	n/a	n/a	n/a
-0.002	n/a	RECOG_LURE	-1	n/a	LTP107	ltpFR	18	3	n/a	FOX	598	4	n/a	n/a	n/a	n/a	n/a	n/a
-0.002	n/a	RECOG_RESP	-1	n/a	LTP107	ltpFR	18	3	n/a	FOX	598	n/a	n/a	n/a	n/a	n/a	n/a	n/a
-0.002	n/a	RECOG_CONF	-1	n/a	LTP107	ltpFR	18	3	n/a	FOX	598	4	n/a	n/a	n/a	n/a	n/a	n/a
-0.002	n/a	RECOG_TARGET	-1	n/a	LTP107	ltpFR	18	3	-1	LIMOUSINE	824	5	-1	n/a	n/a	n/a	n/a	n/a
-0.002	n/a	RECOG_RESP	-1	n/a	LTP107	ltpFR	18	3	-1	LIMOUSINE	824	n/a	-1	n/a	n/a	n/a	n/a	n/a
-0.002	n/a	RECOG_CONF	-1	n/a	LTP107	ltpFR	18	3	-1	LIMOUSINE	824	5	-1	n/a	n/a	n/a	n/a	n/a
-0.002	n/a	RECOG_TARGET	-1	n/a	LTP107	ltpFR	18	3	0	PERCH	1048	4	1	n/a	n/a	n/a	n/a	n/a
-0.002	n/a	RECOG_RESP	-1	n/a	LTP107	ltpFR	18	3	0	PERCH	1048	n/a	1	n/a	n/a	n/a	n/a	n/a
-0.002	n/a	RECOG_CONF	-1	n/a	LTP107	ltpFR	18	3	0	PERCH	1048	4	1	n/a	n/a	n/a	n/a	n/a
-0.002	n/a	REC_START	-1	n/a	LTP107	ltpFR	18	4	n/a	n/a	n/a	n/a	n/a	n/a	n/a	n/a	n/a	n/a
-0.002	n/a	RECOG_TARGET	-1	n/a	LTP107	ltpFR	18	4	-1	PIPE	1073	5	-1	n/a	n/a	n/a	n/a	n/a
-0.002	n/a	RECOG_RESP	-1	n/a	LTP107	ltpFR	18	4	-1	PIPE	1073	n/a	-1	n/a	n/a	n/a	n/a	n/a
-0.002	n/a	RECOG_CONF	-1	n/a	LTP107	ltpFR	18	4	-1	PIPE	1073	5	-1	n/a	n/a	n/a	n/a	n/a
-0.002	n/a	RECOG_TARGET	-1	n/a	LTP107	ltpFR	18	4	-1	RICE	1190	5	-1	n/a	n/a	n/a	n/a	n/a
-0.002	n/a	RECOG_RESP	-1	n/a	LTP107	ltpFR	18	4	-1	RICE	1190	n/a	-1	n/a	n/a	n/a	n/a	n/a
-0.002	n/a	RECOG_CONF	-1	n/a	LTP107	ltpFR	18	4	-1	RICE	1190	5	-1	n/a	n/a	n/a	n/a	n/a
-0.002	n/a	RECOG_LURE	-1	n/a	LTP107	ltpFR	18	4	n/a	BEET	115	3	n/a	n/a	n/a	n/a	n/a	n/a
-0.002	n/a	RECOG_RESP_VV	-1	n/a	LTP107	ltpFR	18	4	n/a	BEET	115	n/a	n/a	n/a	n/a	n/a	n/a	n/a
-0.002	n/a	RECOG_RESP	-1	n/a	LTP107	ltpFR	18	4	n/a	BEET	115	n/a	n/a	n/a	n/a	n/a	n/a	n/a
-0.002	n/a	RECOG_CONF	-1	n/a	LTP107	ltpFR	18	4	n/a	BEET	115	3	n/a	n/a	n/a	n/a	n/a	n/a
-0.002	n/a	RECOG_LURE	-1	n/a	LTP107	ltpFR	18	4	n/a	RODENT	1204	2	n/a	n/a	n/a	n/a	n/a	n/a
-0.002	n/a	RECOG_RESP	-1	n/a	LTP107	ltpFR	18	4	n/a	RODENT	1204	n/a	n/a	n/a	n/a	n/a	n/a	n/a
-0.002	n/a	RECOG_CONF	-1	n/a	LTP107	ltpFR	18	4	n/a	RODENT	1204	2	n/a	n/a	n/a	n/a	n/a	n/a
-0.002	n/a	RECOG_TARGET	-1	n/a	LTP107	ltpFR	18	4	0	JUGGLER	763	5	1	n/a	n/a	n/a	n/a	n/a
-0.002	n/a	RECOG_RESP	-1	n/a	LTP107	ltpFR	18	4	0	JUGGLER	763	n/a	1	n/a	n/a	n/a	n/a	n/a
-0.002	n/a	RECOG_CONF	-1	n/a	LTP107	ltpFR	18	4	0	JUGGLER	763	5	1	n/a	n/a	n/a	n/a	n/a
-0.002	n/a	RECOG_TARGET	-1	n/a	LTP107	ltpFR	18	4	0	GIRL	637	5	0	n/a	n/a	n/a	n/a	n/a
-0.002	n/a	RECOG_RESP	-1	n/a	LTP107	ltpFR	18	4	0	GIRL	637	n/a	0	n/a	n/a	n/a	n/a	n/a
-0.002	n/a	RECOG_CONF	-1	n/a	LTP107	ltpFR	18	4	0	GIRL	637	5	0	n/a	n/a	n/a	n/a	n/a
-0.002	n/a	RECOG_LURE	-1	n/a	LTP107	ltpFR	18	4	n/a	SILK	1307	3	n/a	n/a	n/a	n/a	n/a	n/a
-0.002	n/a	RECOG_RESP	-1	n/a	LTP107	ltpFR	18	4	n/a	SILK	1307	n/a	n/a	n/a	n/a	n/a	n/a	n/a
-0.002	n/a	RECOG_CONF	-1	n/a	LTP107	ltpFR	18	4	n/a	SILK	1307	3	n/a	n/a	n/a	n/a	n/a	n/a
-0.002	n/a	RECOG_TARGET	-1	n/a	LTP107	ltpFR	18	4	-1	GALAXY	617	5	-1	n/a	n/a	n/a	n/a	n/a
-0.002	n/a	RECOG_RESP	-1	n/a	LTP107	ltpFR	18	4	-1	GALAXY	617	n/a	-1	n/a	n/a	n/a	n/a	n/a
-0.002	n/a	RECOG_CONF	-1	n/a	LTP107	ltpFR	18	4	-1	GALAXY	617	5	-1	n/a	n/a	n/a	n/a	n/a
-0.002	n/a	RECOG_TARGET	-1	n/a	LTP107	ltpFR	18	4	0	PEDESTRIAN	1038	5	1	n/a	n/a	n/a	n/a	n/a
-0.002	n/a	RECOG_RESP	-1	n/a	LTP107	ltpFR	18	4	0	PEDESTRIAN	1038	n/a	1	n/a	n/a	n/a	n/a	n/a
-0.002	n/a	RECOG_CONF	-1	n/a	LTP107	ltpFR	18	4	0	PEDESTRIAN	1038	5	1	n/a	n/a	n/a	n/a	n/a
-0.002	n/a	RECOG_TARGET	-1	n/a	LTP107	ltpFR	18	4	1	PILLOW	1069	5	0	n/a	n/a	n/a	n/a	n/a
-0.002	n/a	RECOG_RESP	-1	n/a	LTP107	ltpFR	18	4	1	PILLOW	1069	n/a	0	n/a	n/a	n/a	n/a	n/a
-0.002	n/a	RECOG_CONF	-1	n/a	LTP107	ltpFR	18	4	1	PILLOW	1069	5	0	n/a	n/a	n/a	n/a	n/a
-0.002	n/a	RECOG_TARGET	-1	n/a	LTP107	ltpFR	18	4	1	TOAD	1470	5	1	n/a	n/a	n/a	n/a	n/a
-0.002	n/a	RECOG_RESP	-1	n/a	LTP107	ltpFR	18	4	1	TOAD	1470	n/a	1	n/a	n/a	n/a	n/a	n/a
-0.002	n/a	RECOG_CONF	-1	n/a	LTP107	ltpFR	18	4	1	TOAD	1470	5	1	n/a	n/a	n/a	n/a	n/a
-0.002	n/a	RECOG_LURE	-1	n/a	LTP107	ltpFR	18	4	n/a	ASSISTANT	48	4	n/a	n/a	n/a	n/a	n/a	n/a
-0.002	n/a	RECOG_RESP	-1	n/a	LTP107	ltpFR	18	4	n/a	ASSISTANT	48	n/a	n/a	n/a	n/a	n/a	n/a	n/a
-0.002	n/a	RECOG_CONF	-1	n/a	LTP107	ltpFR	18	4	n/a	ASSISTANT	48	4	n/a	n/a	n/a	n/a	n/a	n/a
-0.002	n/a	RECOG_TARGET	-1	n/a	LTP107	ltpFR	18	4	-1	MOP	916	5	-1	n/a	n/a	n/a	n/a	n/a
-0.002	n/a	RECOG_RESP	-1	n/a	LTP107	ltpFR	18	4	-1	MOP	916	n/a	-1	n/a	n/a	n/a	n/a	n/a
-0.002	n/a	RECOG_CONF	-1	n/a	LTP107	ltpFR	18	4	-1	MOP	916	5	-1	n/a	n/a	n/a	n/a	n/a
-0.002	n/a	RECOG_TARGET	-1	n/a	LTP107	ltpFR	18	4	1	MOLECULE	905	5	0	n/a	n/a	n/a	n/a	n/a
-0.002	n/a	RECOG_RESP	-1	n/a	LTP107	ltpFR	18	4	1	MOLECULE	905	n/a	0	n/a	n/a	n/a	n/a	n/a
-0.002	n/a	RECOG_CONF	-1	n/a	LTP107	ltpFR	18	4	1	MOLECULE	905	5	0	n/a	n/a	n/a	n/a	n/a
-0.002	n/a	RECOG_TARGET	-1	n/a	LTP107	ltpFR	18	4	1	ROCK	1201	5	0	n/a	n/a	n/a	n/a	n/a
-0.002	n/a	RECOG_RESP	-1	n/a	LTP107	ltpFR	18	4	1	ROCK	1201	n/a	0	n/a	n/a	n/a	n/a	n/a
-0.002	n/a	RECOG_CONF	-1	n/a	LTP107	ltpFR	18	4	1	ROCK	1201	5	0	n/a	n/a	n/a	n/a	n/a
-0.002	n/a	RECOG_LURE	-1	n/a	LTP107	ltpFR	18	4	n/a	SHELF	1280	3	n/a	n/a	n/a	n/a	n/a	n/a
-0.002	n/a	RECOG_RESP	-1	n/a	LTP107	ltpFR	18	4	n/a	SHELF	1280	n/a	n/a	n/a	n/a	n/a	n/a	n/a
-0.002	n/a	RECOG_CONF	-1	n/a	LTP107	ltpFR	18	4	n/a	SHELF	1280	3	n/a	n/a	n/a	n/a	n/a	n/a
-0.002	n/a	RECOG_TARGET	-1	n/a	LTP107	ltpFR	18	4	1	VEGETABLE	1552	5	0	n/a	n/a	n/a	n/a	n/a
-0.002	n/a	RECOG_RESP	-1	n/a	LTP107	ltpFR	18	4	1	VEGETABLE	1552	n/a	0	n/a	n/a	n/a	n/a	n/a
-0.002	n/a	RECOG_CONF	-1	n/a	LTP107	ltpFR	18	4	1	VEGETABLE	1552	5	0	n/a	n/a	n/a	n/a	n/a
-0.002	n/a	RECOG_TARGET	-1	n/a	LTP107	ltpFR	18	4	0	TWINE	1529	4	0	n/a	n/a	n/a	n/a	n/a
-0.002	n/a	RECOG_RESP	-1	n/a	LTP107	ltpFR	18	4	0	TWINE	1529	n/a	0	n/a	n/a	n/a	n/a	n/a
-0.002	n/a	RECOG_CONF	-1	n/a	LTP107	ltpFR	18	4	0	TWINE	1529	4	0	n/a	n/a	n/a	n/a	n/a
-0.002	n/a	RECOG_TARGET	-1	n/a	LTP107	ltpFR	18	4	-1	DIME	466	5	-1	n/a	n/a	n/a	n/a	n/a
-0.002	n/a	RECOG_RESP	-1	n/a	LTP107	ltpFR	18	4	-1	DIME	466	n/a	-1	n/a	n/a	n/a	n/a	n/a
-0.002	n/a	RECOG_CONF	-1	n/a	LTP107	ltpFR	18	4	-1	DIME	466	5	-1	n/a	n/a	n/a	n/a	n/a
