onset	duration	trial_type	sample	stim_file	subject	experiment	session	trial	task	item_name	item_num	recog_conf	resp	answer	test_x	test_y	test_z	color_b	color_g	color_r	case	font
296.822	n/a	SESS_START	148411	n/a	LTP089	ltpFR	8	n/a	n/a	n/a	n/a	5	n/a	n/a	0	0	0	n/a	n/a	n/a	n/a	n/a
323.908	n/a	START	161954	n/a	LTP089	ltpFR	8	n/a	n/a	n/a	n/a	n/a	n/a	n/a	n/a	n/a	n/a	n/a	n/a	n/a	n/a	n/a
323.932	n/a	PROB	161966	n/a	LTP089	ltpFR	8	n/a	n/a	n/a	n/a	n/a	n/a	19	6	9	4	n/a	n/a	n/a	n/a	n/a
327.856	n/a	PROB	163928	n/a	LTP089	ltpFR	8	n/a	n/a	n/a	n/a	n/a	n/a	11	5	2	4	n/a	n/a	n/a	n/a	n/a
330.356	n/a	PROB	165178	n/a	LTP089	ltpFR	8	n/a	n/a	n/a	n/a	n/a	n/a	21	4	9	8	n/a	n/a	n/a	n/a	n/a
333.632	n/a	PROB	166816	n/a	LTP089	ltpFR	8	n/a	n/a	n/a	n/a	n/a	n/a	20	5	7	8	n/a	n/a	n/a	n/a	n/a
336.674	n/a	PROB	168337	n/a	LTP089	ltpFR	8	n/a	n/a	n/a	n/a	n/a	n/a	18	3	6	9	n/a	n/a	n/a	n/a	n/a
339.324	n/a	PROB	169662	n/a	LTP089	ltpFR	8	n/a	n/a	n/a	n/a	n/a	n/a	7	4	1	2	n/a	n/a	n/a	n/a	n/a
341.29	n/a	PROB	170645	n/a	LTP089	ltpFR	8	n/a	n/a	n/a	n/a	n/a	n/a	9	2	6	2	n/a	n/a	n/a	n/a	n/a
343.82	n/a	STOP	171910	n/a	LTP089	ltpFR	8	n/a	n/a	n/a	n/a	n/a	n/a	n/a	n/a	n/a	n/a	n/a	n/a	n/a	n/a	n/a
369.172	n/a	WORD	184586	wordpools/wasnorm_wordpool.txt	LTP089	ltpFR	8	1	0	WHISTLE	1606	n/a	0	n/a	0	0	0	0	0.5869140625	0.422607421875	lower	../fonts/amplitud.ttf
373.346	n/a	WORD	186673	wordpools/wasnorm_wordpool.txt	LTP089	ltpFR	8	1	0	GLACIER	638	n/a	1	n/a	0	0	0	0	0.5869140625	0.422607421875	lower	../fonts/amplitud.ttf
377.28	n/a	WORD	188640	wordpools/wasnorm_wordpool.txt	LTP089	ltpFR	8	1	0	BEAST	108	n/a	1	n/a	0	0	0	0	0.5869140625	0.422607421875	lower	../fonts/amplitud.ttf
381.348	n/a	WORD	190674	wordpools/wasnorm_wordpool.txt	LTP089	ltpFR	8	1	0	HAWK	692	n/a	1	n/a	0	0	0	0	0.5869140625	0.422607421875	lower	../fonts/amplitud.ttf
385.538	n/a	WORD	192769	wordpools/wasnorm_wordpool.txt	LTP089	ltpFR	8	1	0	HEATER	698	n/a	1	n/a	0	0	0	0	0.5869140625	0.422607421875	lower	../fonts/amplitud.ttf
389.446	n/a	WORD	194723	wordpools/wasnorm_wordpool.txt	LTP089	ltpFR	8	1	0	ORNAMENT	985	n/a	1	n/a	0	0	0	0	0.5869140625	0.422607421875	lower	../fonts/amplitud.ttf
393.364	n/a	WORD	196682	wordpools/wasnorm_wordpool.txt	LTP089	ltpFR	8	1	0	COCOON	339	n/a	0	n/a	0	0	0	0	0.5869140625	0.422607421875	lower	../fonts/amplitud.ttf
397.238	n/a	WORD	198619	wordpools/wasnorm_wordpool.txt	LTP089	ltpFR	8	1	0	TIGER	1467	n/a	1	n/a	0	0	0	0	0.5869140625	0.422607421875	lower	../fonts/amplitud.ttf
401.214	n/a	WORD	200607	wordpools/wasnorm_wordpool.txt	LTP089	ltpFR	8	1	0	FOREST	593	n/a	1	n/a	0	0	0	0	0.5869140625	0.422607421875	lower	../fonts/amplitud.ttf
405.038	n/a	WORD	202519	wordpools/wasnorm_wordpool.txt	LTP089	ltpFR	8	1	0	HOOD	714	n/a	1	n/a	0	0	0	0	0.5869140625	0.422607421875	lower	../fonts/amplitud.ttf
409.046	n/a	WORD	204523	wordpools/wasnorm_wordpool.txt	LTP089	ltpFR	8	1	0	DRIVER	499	n/a	1	n/a	0	0	0	0	0.5869140625	0.422607421875	lower	../fonts/amplitud.ttf
413.164	n/a	WORD	206582	wordpools/wasnorm_wordpool.txt	LTP089	ltpFR	8	1	0	CAMEL	223	n/a	1	n/a	0	0	0	0	0.5869140625	0.422607421875	lower	../fonts/amplitud.ttf
417.172	n/a	WORD	208586	wordpools/wasnorm_wordpool.txt	LTP089	ltpFR	8	1	0	SNORKEL	1336	n/a	1	n/a	0	0	0	0	0.5869140625	0.422607421875	lower	../fonts/amplitud.ttf
421.096	n/a	WORD	210548	wordpools/wasnorm_wordpool.txt	LTP089	ltpFR	8	1	0	THERMOMETER	1453	n/a	1	n/a	0	0	0	0	0.5869140625	0.422607421875	lower	../fonts/amplitud.ttf
425.27	n/a	WORD	212635	wordpools/wasnorm_wordpool.txt	LTP089	ltpFR	8	1	0	VIKING	1565	n/a	1	n/a	0	0	0	0	0.5869140625	0.422607421875	lower	../fonts/amplitud.ttf
429.254	n/a	WORD	214627	wordpools/wasnorm_wordpool.txt	LTP089	ltpFR	8	1	0	ANCHOR	21	n/a	1	n/a	0	0	0	0	0.5869140625	0.422607421875	lower	../fonts/amplitud.ttf
432.264	n/a	START	216132	n/a	LTP089	ltpFR	8	n/a	n/a	n/a	n/a	n/a	n/a	n/a	n/a	n/a	n/a	n/a	n/a	n/a	n/a	n/a
433.422	n/a	PROB	216711	n/a	LTP089	ltpFR	8	n/a	n/a	n/a	n/a	n/a	n/a	11	6	3	2	n/a	n/a	n/a	n/a	n/a
436.346	n/a	PROB	218173	n/a	LTP089	ltpFR	8	n/a	n/a	n/a	n/a	n/a	n/a	12	5	7	1	n/a	n/a	n/a	n/a	n/a
438.864	n/a	STOP	219432	n/a	LTP089	ltpFR	8	n/a	n/a	n/a	n/a	n/a	n/a	n/a	n/a	n/a	n/a	n/a	n/a	n/a	n/a	n/a
442.004	n/a	REC_START	221002	n/a	LTP089	ltpFR	8	1	n/a	n/a	n/a	n/a	n/a	n/a	0	0	0	n/a	n/a	n/a	n/a	n/a
445.172	n/a	REC_WORD	222586	wordpools/wasnorm_wordpool.txt	LTP089	ltpFR	8	1	0	GLACIER	638	n/a	1	n/a	0	0	0	n/a	n/a	n/a	n/a	n/a
446.604	n/a	REC_WORD	223302	wordpools/wasnorm_wordpool.txt	LTP089	ltpFR	8	1	0	TIGER	1467	n/a	1	n/a	0	0	0	n/a	n/a	n/a	n/a	n/a
448.524	n/a	REC_WORD	224262	wordpools/wasnorm_wordpool.txt	LTP089	ltpFR	8	1	0	ANCHOR	21	n/a	1	n/a	0	0	0	n/a	n/a	n/a	n/a	n/a
455.02	n/a	REC_WORD	227510	wordpools/wasnorm_wordpool.txt	LTP089	ltpFR	8	1	n/a	MONSTER	912	n/a	n/a	n/a	0	0	0	n/a	n/a	n/a	n/a	n/a
530.086	n/a	START	265043	n/a	LTP089	ltpFR	8	n/a	n/a	n/a	n/a	n/a	n/a	n/a	n/a	n/a	n/a	n/a	n/a	n/a	n/a	n/a
531.594	n/a	PROB	265797	n/a	LTP089	ltpFR	8	n/a	n/a	n/a	n/a	n/a	n/a	18	8	4	6	n/a	n/a	n/a	n/a	n/a
534.618	n/a	PROB	267309	n/a	LTP089	ltpFR	8	n/a	n/a	n/a	n/a	n/a	n/a	13	3	7	3	n/a	n/a	n/a	n/a	n/a
538.086	n/a	STOP	269043	n/a	LTP089	ltpFR	8	n/a	n/a	n/a	n/a	n/a	n/a	n/a	n/a	n/a	n/a	n/a	n/a	n/a	n/a	n/a
539.234	n/a	WORD	269617	wordpools/wasnorm_wordpool.txt	LTP089	ltpFR	8	2	1	CAULIFLOWER	262	n/a	0	n/a	0	0	0	1	0.412841796875	0.57763671875	upper	../fonts/zerothre.ttf
542.236	n/a	START	271118	n/a	LTP089	ltpFR	8	n/a	n/a	n/a	n/a	n/a	n/a	n/a	n/a	n/a	n/a	n/a	n/a	n/a	n/a	n/a
543.426	n/a	PROB	271713	n/a	LTP089	ltpFR	8	n/a	n/a	n/a	n/a	n/a	n/a	15	4	7	4	n/a	n/a	n/a	n/a	n/a
547.476	n/a	PROB	273738	n/a	LTP089	ltpFR	8	n/a	n/a	n/a	n/a	n/a	n/a	15	6	4	5	n/a	n/a	n/a	n/a	n/a
548.878	n/a	STOP	274439	n/a	LTP089	ltpFR	8	n/a	n/a	n/a	n/a	n/a	n/a	n/a	n/a	n/a	n/a	n/a	n/a	n/a	n/a	n/a
551.16	n/a	WORD	275580	wordpools/wasnorm_wordpool.txt	LTP089	ltpFR	8	2	1	CHIEF	298	n/a	1	n/a	0	0	0	1	0.412841796875	0.57763671875	upper	../fonts/zerothre.ttf
554.16	n/a	START	277080	n/a	LTP089	ltpFR	8	n/a	n/a	n/a	n/a	n/a	n/a	n/a	n/a	n/a	n/a	n/a	n/a	n/a	n/a	n/a
555.192	n/a	PROB	277596	n/a	LTP089	ltpFR	8	n/a	n/a	n/a	n/a	n/a	n/a	13	1	8	3	n/a	n/a	n/a	n/a	n/a
556.842	n/a	PROB	278421	n/a	LTP089	ltpFR	8	n/a	n/a	n/a	n/a	n/a	n/a	16	5	3	8	n/a	n/a	n/a	n/a	n/a
562.16	n/a	STOP	281080	n/a	LTP089	ltpFR	8	n/a	n/a	n/a	n/a	n/a	n/a	n/a	n/a	n/a	n/a	n/a	n/a	n/a	n/a	n/a
563.018	n/a	WORD	281509	wordpools/wasnorm_wordpool.txt	LTP089	ltpFR	8	2	1	TEAPOT	1442	n/a	0	n/a	0	0	0	1	0.412841796875	0.57763671875	upper	../fonts/zerothre.ttf
566.028	n/a	START	283014	n/a	LTP089	ltpFR	8	n/a	n/a	n/a	n/a	n/a	n/a	n/a	n/a	n/a	n/a	n/a	n/a	n/a	n/a	n/a
567.202	n/a	PROB	283601	n/a	LTP089	ltpFR	8	n/a	n/a	n/a	n/a	n/a	n/a	5	1	3	1	n/a	n/a	n/a	n/a	n/a
569.068	n/a	PROB	284534	n/a	LTP089	ltpFR	8	n/a	n/a	n/a	n/a	n/a	n/a	18	6	8	4	n/a	n/a	n/a	n/a	n/a
571.418	n/a	PROB	285709	n/a	LTP089	ltpFR	8	n/a	n/a	n/a	n/a	n/a	n/a	17	6	6	5	n/a	n/a	n/a	n/a	n/a
573.824	n/a	STOP	286912	n/a	LTP089	ltpFR	8	n/a	n/a	n/a	n/a	n/a	n/a	n/a	n/a	n/a	n/a	n/a	n/a	n/a	n/a	n/a
574.934	n/a	WORD	287467	wordpools/wasnorm_wordpool.txt	LTP089	ltpFR	8	2	1	ROAD	1196	n/a	0	n/a	0	0	0	1	0.412841796875	0.57763671875	upper	../fonts/zerothre.ttf
577.942	n/a	START	288971	n/a	LTP089	ltpFR	8	n/a	n/a	n/a	n/a	n/a	n/a	n/a	n/a	n/a	n/a	n/a	n/a	n/a	n/a	n/a
578.958	n/a	PROB	289479	n/a	LTP089	ltpFR	8	n/a	n/a	n/a	n/a	n/a	n/a	18	2	7	9	n/a	n/a	n/a	n/a	n/a
581.384	n/a	PROB	290692	n/a	LTP089	ltpFR	8	n/a	n/a	n/a	n/a	n/a	n/a	13	6	2	5	n/a	n/a	n/a	n/a	n/a
584.042	n/a	PROB	292021	n/a	LTP089	ltpFR	8	n/a	n/a	n/a	n/a	n/a	n/a	14	6	6	2	n/a	n/a	n/a	n/a	n/a
585.824	n/a	STOP	292912	n/a	LTP089	ltpFR	8	n/a	n/a	n/a	n/a	n/a	n/a	n/a	n/a	n/a	n/a	n/a	n/a	n/a	n/a	n/a
586.818	n/a	WORD	293409	wordpools/wasnorm_wordpool.txt	LTP089	ltpFR	8	2	1	PISTON	1076	n/a	1	n/a	0	0	0	1	0.412841796875	0.57763671875	upper	../fonts/zerothre.ttf
589.826	n/a	START	294913	n/a	LTP089	ltpFR	8	n/a	n/a	n/a	n/a	n/a	n/a	n/a	n/a	n/a	n/a	n/a	n/a	n/a	n/a	n/a
590.992	n/a	PROB	295496	n/a	LTP089	ltpFR	8	n/a	n/a	n/a	n/a	n/a	n/a	13	7	3	3	n/a	n/a	n/a	n/a	n/a
592.484	n/a	PROB	296242	n/a	LTP089	ltpFR	8	n/a	n/a	n/a	n/a	n/a	n/a	10	4	3	3	n/a	n/a	n/a	n/a	n/a
597.826	n/a	STOP	298913	n/a	LTP089	ltpFR	8	n/a	n/a	n/a	n/a	n/a	n/a	n/a	n/a	n/a	n/a	n/a	n/a	n/a	n/a	n/a
598.924	n/a	WORD	299462	wordpools/wasnorm_wordpool.txt	LTP089	ltpFR	8	2	1	EGYPT	519	n/a	0	n/a	0	0	0	1	0.412841796875	0.57763671875	upper	../fonts/zerothre.ttf
601.934	n/a	START	300967	n/a	LTP089	ltpFR	8	n/a	n/a	n/a	n/a	n/a	n/a	n/a	n/a	n/a	n/a	n/a	n/a	n/a	n/a	n/a
603.058	n/a	PROB	301529	n/a	LTP089	ltpFR	8	n/a	n/a	n/a	n/a	n/a	n/a	24	9	9	5	n/a	n/a	n/a	n/a	n/a
609.934	n/a	STOP	304967	n/a	LTP089	ltpFR	8	n/a	n/a	n/a	n/a	n/a	n/a	n/a	n/a	n/a	n/a	n/a	n/a	n/a	n/a	n/a
610.842	n/a	WORD	305421	wordpools/wasnorm_wordpool.txt	LTP089	ltpFR	8	2	1	TEENAGER	1444	n/a	0	n/a	0	0	0	1	0.412841796875	0.57763671875	upper	../fonts/zerothre.ttf
613.858	n/a	START	306929	n/a	LTP089	ltpFR	8	n/a	n/a	n/a	n/a	n/a	n/a	n/a	n/a	n/a	n/a	n/a	n/a	n/a	n/a	n/a
614.908	n/a	PROB	307454	n/a	LTP089	ltpFR	8	n/a	n/a	n/a	n/a	n/a	n/a	17	7	1	9	n/a	n/a	n/a	n/a	n/a
617.758	n/a	PROB	308879	n/a	LTP089	ltpFR	8	n/a	n/a	n/a	n/a	n/a	n/a	11	9	1	1	n/a	n/a	n/a	n/a	n/a
619.49	n/a	PROB	309745	n/a	LTP089	ltpFR	8	n/a	n/a	n/a	n/a	n/a	n/a	16	6	8	2	n/a	n/a	n/a	n/a	n/a
621.85	n/a	STOP	310925	n/a	LTP089	ltpFR	8	n/a	n/a	n/a	n/a	n/a	n/a	n/a	n/a	n/a	n/a	n/a	n/a	n/a	n/a	n/a
622.782	n/a	WORD	311391	wordpools/wasnorm_wordpool.txt	LTP089	ltpFR	8	2	1	FARMER	553	n/a	1	n/a	0	0	0	1	0.412841796875	0.57763671875	upper	../fonts/zerothre.ttf
625.792	n/a	START	312896	n/a	LTP089	ltpFR	8	n/a	n/a	n/a	n/a	n/a	n/a	n/a	n/a	n/a	n/a	n/a	n/a	n/a	n/a	n/a
626.842	n/a	PROB	313421	n/a	LTP089	ltpFR	8	n/a	n/a	n/a	n/a	n/a	n/a	11	6	3	2	n/a	n/a	n/a	n/a	n/a
629.666	n/a	PROB	314833	n/a	LTP089	ltpFR	8	n/a	n/a	n/a	n/a	n/a	n/a	17	7	4	6	n/a	n/a	n/a	n/a	n/a
633.792	n/a	STOP	316896	n/a	LTP089	ltpFR	8	n/a	n/a	n/a	n/a	n/a	n/a	n/a	n/a	n/a	n/a	n/a	n/a	n/a	n/a	n/a
634.866	n/a	WORD	317433	wordpools/wasnorm_wordpool.txt	LTP089	ltpFR	8	2	1	TEMPLE	1448	n/a	0	n/a	0	0	0	1	0.412841796875	0.57763671875	upper	../fonts/zerothre.ttf
637.874	n/a	START	318937	n/a	LTP089	ltpFR	8	n/a	n/a	n/a	n/a	n/a	n/a	n/a	n/a	n/a	n/a	n/a	n/a	n/a	n/a	n/a
639.04	n/a	PROB	319520	n/a	LTP089	ltpFR	8	n/a	n/a	n/a	n/a	n/a	n/a	19	7	3	9	n/a	n/a	n/a	n/a	n/a
640.966	n/a	PROB	320483	n/a	LTP089	ltpFR	8	n/a	n/a	n/a	n/a	n/a	n/a	12	5	4	3	n/a	n/a	n/a	n/a	n/a
645.876	n/a	STOP	322938	n/a	LTP089	ltpFR	8	n/a	n/a	n/a	n/a	n/a	n/a	n/a	n/a	n/a	n/a	n/a	n/a	n/a	n/a	n/a
647.024	n/a	WORD	323512	wordpools/wasnorm_wordpool.txt	LTP089	ltpFR	8	2	1	SCALLOP	1242	n/a	0	n/a	0	0	0	1	0.412841796875	0.57763671875	upper	../fonts/zerothre.ttf
650.032	n/a	START	325016	n/a	LTP089	ltpFR	8	n/a	n/a	n/a	n/a	n/a	n/a	n/a	n/a	n/a	n/a	n/a	n/a	n/a	n/a	n/a
651.158	n/a	PROB	325579	n/a	LTP089	ltpFR	8	n/a	n/a	n/a	n/a	n/a	n/a	10	1	3	6	n/a	n/a	n/a	n/a	n/a
653.348	n/a	PROB	326674	n/a	LTP089	ltpFR	8	n/a	n/a	n/a	n/a	n/a	n/a	21	4	9	9	n/a	n/a	n/a	n/a	n/a
656.732	n/a	STOP	328366	n/a	LTP089	ltpFR	8	n/a	n/a	n/a	n/a	n/a	n/a	n/a	n/a	n/a	n/a	n/a	n/a	n/a	n/a	n/a
659.19	n/a	WORD	329595	wordpools/wasnorm_wordpool.txt	LTP089	ltpFR	8	2	1	BAKER	71	n/a	0	n/a	0	0	0	1	0.412841796875	0.57763671875	upper	../fonts/zerothre.ttf
662.192	n/a	START	331096	n/a	LTP089	ltpFR	8	n/a	n/a	n/a	n/a	n/a	n/a	n/a	n/a	n/a	n/a	n/a	n/a	n/a	n/a	n/a
663.148	n/a	PROB	331574	n/a	LTP089	ltpFR	8	n/a	n/a	n/a	n/a	n/a	n/a	19	8	5	6	n/a	n/a	n/a	n/a	n/a
669.132	n/a	STOP	334566	n/a	LTP089	ltpFR	8	n/a	n/a	n/a	n/a	n/a	n/a	n/a	n/a	n/a	n/a	n/a	n/a	n/a	n/a	n/a
671.09	n/a	WORD	335545	wordpools/wasnorm_wordpool.txt	LTP089	ltpFR	8	2	1	STORE	1387	n/a	0	n/a	0	0	0	1	0.412841796875	0.57763671875	upper	../fonts/zerothre.ttf
674.09	n/a	START	337045	n/a	LTP089	ltpFR	8	n/a	n/a	n/a	n/a	n/a	n/a	n/a	n/a	n/a	n/a	n/a	n/a	n/a	n/a	n/a
675.274	n/a	PROB	337637	n/a	LTP089	ltpFR	8	n/a	n/a	n/a	n/a	n/a	n/a	13	1	4	7	n/a	n/a	n/a	n/a	n/a
677.982	n/a	PROB	338991	n/a	LTP089	ltpFR	8	n/a	n/a	n/a	n/a	n/a	n/a	17	6	5	6	n/a	n/a	n/a	n/a	n/a
680.732	n/a	STOP	340366	n/a	LTP089	ltpFR	8	n/a	n/a	n/a	n/a	n/a	n/a	n/a	n/a	n/a	n/a	n/a	n/a	n/a	n/a	n/a
682.956	n/a	WORD	341478	wordpools/wasnorm_wordpool.txt	LTP089	ltpFR	8	2	1	MARKET	871	n/a	0	n/a	0	0	0	1	0.412841796875	0.57763671875	upper	../fonts/zerothre.ttf
685.966	n/a	START	342983	n/a	LTP089	ltpFR	8	n/a	n/a	n/a	n/a	n/a	n/a	n/a	n/a	n/a	n/a	n/a	n/a	n/a	n/a	n/a
686.882	n/a	PROB	343441	n/a	LTP089	ltpFR	8	n/a	n/a	n/a	n/a	n/a	n/a	17	3	8	6	n/a	n/a	n/a	n/a	n/a
689.506	n/a	PROB	344753	n/a	LTP089	ltpFR	8	n/a	n/a	n/a	n/a	n/a	n/a	20	5	7	8	n/a	n/a	n/a	n/a	n/a
692.59	n/a	STOP	346295	n/a	LTP089	ltpFR	8	n/a	n/a	n/a	n/a	n/a	n/a	n/a	n/a	n/a	n/a	n/a	n/a	n/a	n/a	n/a
694.806	n/a	WORD	347403	wordpools/wasnorm_wordpool.txt	LTP089	ltpFR	8	2	1	COOK	372	n/a	0	n/a	0	0	0	1	0.412841796875	0.57763671875	upper	../fonts/zerothre.ttf
697.806	n/a	START	348903	n/a	LTP089	ltpFR	8	n/a	n/a	n/a	n/a	n/a	n/a	n/a	n/a	n/a	n/a	n/a	n/a	n/a	n/a	n/a
698.614	n/a	PROB	349307	n/a	LTP089	ltpFR	8	n/a	n/a	n/a	n/a	n/a	n/a	16	6	3	7	n/a	n/a	n/a	n/a	n/a
701.848	n/a	PROB	350924	n/a	LTP089	ltpFR	8	n/a	n/a	n/a	n/a	n/a	n/a	12	7	3	2	n/a	n/a	n/a	n/a	n/a
705.808	n/a	STOP	352904	n/a	LTP089	ltpFR	8	n/a	n/a	n/a	n/a	n/a	n/a	n/a	n/a	n/a	n/a	n/a	n/a	n/a	n/a	n/a
706.63	n/a	WORD	353315	wordpools/wasnorm_wordpool.txt	LTP089	ltpFR	8	2	1	GRILL	661	n/a	0	n/a	0	0	0	1	0.412841796875	0.57763671875	upper	../fonts/zerothre.ttf
709.632	n/a	START	354816	n/a	LTP089	ltpFR	8	n/a	n/a	n/a	n/a	n/a	n/a	n/a	n/a	n/a	n/a	n/a	n/a	n/a	n/a	n/a
710.638	n/a	PROB	355319	n/a	LTP089	ltpFR	8	n/a	n/a	n/a	n/a	n/a	n/a	16	3	5	8	n/a	n/a	n/a	n/a	n/a
713.546	n/a	PROB	356773	n/a	LTP089	ltpFR	8	n/a	n/a	n/a	n/a	n/a	n/a	16	1	8	7	n/a	n/a	n/a	n/a	n/a
717.632	n/a	STOP	358816	n/a	LTP089	ltpFR	8	n/a	n/a	n/a	n/a	n/a	n/a	n/a	n/a	n/a	n/a	n/a	n/a	n/a	n/a	n/a
718.688	n/a	WORD	359344	wordpools/wasnorm_wordpool.txt	LTP089	ltpFR	8	2	1	CARAVAN	242	n/a	0	n/a	0	0	0	1	0.412841796875	0.57763671875	upper	../fonts/zerothre.ttf
721.698	n/a	START	360849	n/a	LTP089	ltpFR	8	n/a	n/a	n/a	n/a	n/a	n/a	n/a	n/a	n/a	n/a	n/a	n/a	n/a	n/a	n/a
722.69	n/a	PROB	361345	n/a	LTP089	ltpFR	8	n/a	n/a	n/a	n/a	n/a	n/a	17	5	8	4	n/a	n/a	n/a	n/a	n/a
725.656	n/a	PROB	362828	n/a	LTP089	ltpFR	8	n/a	n/a	n/a	n/a	n/a	n/a	15	4	3	8	n/a	n/a	n/a	n/a	n/a
728.712	n/a	STOP	364356	n/a	LTP089	ltpFR	8	n/a	n/a	n/a	n/a	n/a	n/a	n/a	n/a	n/a	n/a	n/a	n/a	n/a	n/a	n/a
731.448	n/a	REC_START	365724	n/a	LTP089	ltpFR	8	2	n/a	n/a	n/a	n/a	n/a	n/a	0	0	0	n/a	n/a	n/a	n/a	n/a
735.562	n/a	REC_WORD	367781	wordpools/wasnorm_wordpool.txt	LTP089	ltpFR	8	2	1	CARAVAN	242	n/a	0	n/a	0	0	0	n/a	n/a	n/a	n/a	n/a
736.65	n/a	REC_WORD	368325	wordpools/wasnorm_wordpool.txt	LTP089	ltpFR	8	2	0	TIGER	1467	n/a	1	n/a	0	0	0	n/a	n/a	n/a	n/a	n/a
737.812	n/a	REC_WORD	368906	wordpools/wasnorm_wordpool.txt	LTP089	ltpFR	8	2	n/a	GYPSY	-1	n/a	n/a	n/a	0	0	0	n/a	n/a	n/a	n/a	n/a
739.664	n/a	REC_WORD_VV	369832	wordpools/wasnorm_wordpool.txt	LTP089	ltpFR	8	2	n/a	<>	-1	n/a	n/a	n/a	0	0	0	n/a	n/a	n/a	n/a	n/a
816.112	n/a	START	408056	n/a	LTP089	ltpFR	8	n/a	n/a	n/a	n/a	n/a	n/a	n/a	n/a	n/a	n/a	n/a	n/a	n/a	n/a	n/a
817.62	n/a	PROB	408810	n/a	LTP089	ltpFR	8	n/a	n/a	n/a	n/a	n/a	n/a	15	1	7	7	n/a	n/a	n/a	n/a	n/a
819.77	n/a	PROB	409885	n/a	LTP089	ltpFR	8	n/a	n/a	n/a	n/a	n/a	n/a	22	4	9	9	n/a	n/a	n/a	n/a	n/a
821.886	n/a	PROB	410943	n/a	LTP089	ltpFR	8	n/a	n/a	n/a	n/a	n/a	n/a	10	4	3	3	n/a	n/a	n/a	n/a	n/a
823.868	n/a	STOP	411934	n/a	LTP089	ltpFR	8	n/a	n/a	n/a	n/a	n/a	n/a	n/a	n/a	n/a	n/a	n/a	n/a	n/a	n/a	n/a
825.212	n/a	WORD	412606	wordpools/wasnorm_wordpool.txt	LTP089	ltpFR	8	3	0	COSTUME	383	n/a	0	n/a	0	0	0	0	0.5869140625	0.422607421875	lower	../fonts/amplitud.ttf
828.22	n/a	START	414110	n/a	LTP089	ltpFR	8	n/a	n/a	n/a	n/a	n/a	n/a	n/a	n/a	n/a	n/a	n/a	n/a	n/a	n/a	n/a
829.186	n/a	PROB	414593	n/a	LTP089	ltpFR	8	n/a	n/a	n/a	n/a	n/a	n/a	12	3	3	6	n/a	n/a	n/a	n/a	n/a
831.618	n/a	PROB	415809	n/a	LTP089	ltpFR	8	n/a	n/a	n/a	n/a	n/a	n/a	24	9	9	6	n/a	n/a	n/a	n/a	n/a
836.22	n/a	STOP	418110	n/a	LTP089	ltpFR	8	n/a	n/a	n/a	n/a	n/a	n/a	n/a	n/a	n/a	n/a	n/a	n/a	n/a	n/a	n/a
837.252	n/a	WORD	418626	wordpools/wasnorm_wordpool.txt	LTP089	ltpFR	8	3	0	BARLEY	88	n/a	0	n/a	0	0	0	0	0.5869140625	0.422607421875	lower	../fonts/amplitud.ttf
840.262	n/a	START	420131	n/a	LTP089	ltpFR	8	n/a	n/a	n/a	n/a	n/a	n/a	n/a	n/a	n/a	n/a	n/a	n/a	n/a	n/a	n/a
841.32	n/a	PROB	420660	n/a	LTP089	ltpFR	8	n/a	n/a	n/a	n/a	n/a	n/a	16	8	5	3	n/a	n/a	n/a	n/a	n/a
844.128	n/a	PROB	422064	n/a	LTP089	ltpFR	8	n/a	n/a	n/a	n/a	n/a	n/a	15	6	5	4	n/a	n/a	n/a	n/a	n/a
848.26	n/a	STOP	424130	n/a	LTP089	ltpFR	8	n/a	n/a	n/a	n/a	n/a	n/a	n/a	n/a	n/a	n/a	n/a	n/a	n/a	n/a	n/a
849.336	n/a	WORD	424668	wordpools/wasnorm_wordpool.txt	LTP089	ltpFR	8	3	0	TOAST	1471	n/a	0	n/a	0	0	0	0	0.5869140625	0.422607421875	lower	../fonts/amplitud.ttf
852.344	n/a	START	426172	n/a	LTP089	ltpFR	8	n/a	n/a	n/a	n/a	n/a	n/a	n/a	n/a	n/a	n/a	n/a	n/a	n/a	n/a	n/a
853.334	n/a	PROB	426667	n/a	LTP089	ltpFR	8	n/a	n/a	n/a	n/a	n/a	n/a	19	6	5	8	n/a	n/a	n/a	n/a	n/a
856.086	n/a	PROB	428043	n/a	LTP089	ltpFR	8	n/a	n/a	n/a	n/a	n/a	n/a	20	4	5	8	n/a	n/a	n/a	n/a	n/a
859.022	n/a	STOP	429511	n/a	LTP089	ltpFR	8	n/a	n/a	n/a	n/a	n/a	n/a	n/a	n/a	n/a	n/a	n/a	n/a	n/a	n/a	n/a
861.51	n/a	WORD	430755	wordpools/wasnorm_wordpool.txt	LTP089	ltpFR	8	3	0	MASK	876	n/a	0	n/a	0	0	0	0	0.5869140625	0.422607421875	lower	../fonts/amplitud.ttf
864.518	n/a	START	432259	n/a	LTP089	ltpFR	8	n/a	n/a	n/a	n/a	n/a	n/a	n/a	n/a	n/a	n/a	n/a	n/a	n/a	n/a	n/a
865.71	n/a	PROB	432855	n/a	LTP089	ltpFR	8	n/a	n/a	n/a	n/a	n/a	n/a	11	6	3	2	n/a	n/a	n/a	n/a	n/a
868.302	n/a	PROB	434151	n/a	LTP089	ltpFR	8	n/a	n/a	n/a	n/a	n/a	n/a	12	5	5	2	n/a	n/a	n/a	n/a	n/a
872.518	n/a	STOP	436259	n/a	LTP089	ltpFR	8	n/a	n/a	n/a	n/a	n/a	n/a	n/a	n/a	n/a	n/a	n/a	n/a	n/a	n/a	n/a
873.452	n/a	WORD	436726	wordpools/wasnorm_wordpool.txt	LTP089	ltpFR	8	3	1	BUTTERFLY	206	n/a	2	n/a	0	0	0	1	0.412841796875	0.57763671875	upper	../fonts/zerothre.ttf
874.594	n/a	KEY_MSG	437297	n/a	LTP089	ltpFR	8	3	n/a	n/a	n/a	n/a	n/a	n/a	0	0	0	n/a	n/a	n/a	n/a	n/a
876.46	n/a	START	438230	n/a	LTP089	ltpFR	8	n/a	n/a	n/a	n/a	n/a	n/a	n/a	n/a	n/a	n/a	n/a	n/a	n/a	n/a	n/a
877.542	n/a	PROB	438771	n/a	LTP089	ltpFR	8	n/a	n/a	n/a	n/a	n/a	n/a	12	2	3	7	n/a	n/a	n/a	n/a	n/a
884.46	n/a	STOP	442230	n/a	LTP089	ltpFR	8	n/a	n/a	n/a	n/a	n/a	n/a	n/a	n/a	n/a	n/a	n/a	n/a	n/a	n/a	n/a
885.376	n/a	WORD	442688	wordpools/wasnorm_wordpool.txt	LTP089	ltpFR	8	3	1	SECRETARY	1265	n/a	1	n/a	0	0	0	1	0.412841796875	0.57763671875	upper	../fonts/zerothre.ttf
888.384	n/a	START	444192	n/a	LTP089	ltpFR	8	n/a	n/a	n/a	n/a	n/a	n/a	n/a	n/a	n/a	n/a	n/a	n/a	n/a	n/a	n/a
889.368	n/a	PROB	444684	n/a	LTP089	ltpFR	8	n/a	n/a	n/a	n/a	n/a	n/a	18	6	4	8	n/a	n/a	n/a	n/a	n/a
891.408	n/a	PROB	445704	n/a	LTP089	ltpFR	8	n/a	n/a	n/a	n/a	n/a	n/a	18	5	5	8	n/a	n/a	n/a	n/a	n/a
894.954	n/a	STOP	447477	n/a	LTP089	ltpFR	8	n/a	n/a	n/a	n/a	n/a	n/a	n/a	n/a	n/a	n/a	n/a	n/a	n/a	n/a	n/a
897.418	n/a	WORD	448709	wordpools/wasnorm_wordpool.txt	LTP089	ltpFR	8	3	1	RECEPTIONIST	1174	n/a	1	n/a	0	0	0	1	0.412841796875	0.57763671875	upper	../fonts/zerothre.ttf
900.418	n/a	START	450209	n/a	LTP089	ltpFR	8	n/a	n/a	n/a	n/a	n/a	n/a	n/a	n/a	n/a	n/a	n/a	n/a	n/a	n/a	n/a
901.476	n/a	PROB	450738	n/a	LTP089	ltpFR	8	n/a	n/a	n/a	n/a	n/a	n/a	22	7	8	7	n/a	n/a	n/a	n/a	n/a
908.418	n/a	STOP	454209	n/a	LTP089	ltpFR	8	n/a	n/a	n/a	n/a	n/a	n/a	n/a	n/a	n/a	n/a	n/a	n/a	n/a	n/a	n/a
909.266	n/a	WORD	454633	wordpools/wasnorm_wordpool.txt	LTP089	ltpFR	8	3	1	TUNA	1518	n/a	0	n/a	0	0	0	1	0.412841796875	0.57763671875	upper	../fonts/zerothre.ttf
912.268	n/a	START	456134	n/a	LTP089	ltpFR	8	n/a	n/a	n/a	n/a	n/a	n/a	n/a	n/a	n/a	n/a	n/a	n/a	n/a	n/a	n/a
913.102	n/a	PROB	456551	n/a	LTP089	ltpFR	8	n/a	n/a	n/a	n/a	n/a	n/a	15	2	4	9	n/a	n/a	n/a	n/a	n/a
916.826	n/a	PROB	458413	n/a	LTP089	ltpFR	8	n/a	n/a	n/a	n/a	n/a	n/a	9	5	1	3	n/a	n/a	n/a	n/a	n/a
920.268	n/a	STOP	460134	n/a	LTP089	ltpFR	8	n/a	n/a	n/a	n/a	n/a	n/a	n/a	n/a	n/a	n/a	n/a	n/a	n/a	n/a	n/a
921.418	n/a	WORD	460709	wordpools/wasnorm_wordpool.txt	LTP089	ltpFR	8	3	0	TURNIP	1521	n/a	2	n/a	0	0	0	0	0.5869140625	0.422607421875	lower	../fonts/amplitud.ttf
921.842	n/a	KEY_MSG	460921	n/a	LTP089	ltpFR	8	3	n/a	n/a	n/a	n/a	n/a	n/a	0	0	0	n/a	n/a	n/a	n/a	n/a
924.426	n/a	START	462213	n/a	LTP089	ltpFR	8	n/a	n/a	n/a	n/a	n/a	n/a	n/a	n/a	n/a	n/a	n/a	n/a	n/a	n/a	n/a
925.4	n/a	PROB	462700	n/a	LTP089	ltpFR	8	n/a	n/a	n/a	n/a	n/a	n/a	12	7	3	2	n/a	n/a	n/a	n/a	n/a
926.892	n/a	PROB	463446	n/a	LTP089	ltpFR	8	n/a	n/a	n/a	n/a	n/a	n/a	14	5	7	1	n/a	n/a	n/a	n/a	n/a
932.426	n/a	STOP	466213	n/a	LTP089	ltpFR	8	n/a	n/a	n/a	n/a	n/a	n/a	n/a	n/a	n/a	n/a	n/a	n/a	n/a	n/a	n/a
933.45	n/a	WORD	466725	wordpools/wasnorm_wordpool.txt	LTP089	ltpFR	8	3	0	WARDROBE	1587	n/a	0	n/a	0	0	0	0	0.5869140625	0.422607421875	lower	../fonts/amplitud.ttf
936.458	n/a	START	468229	n/a	LTP089	ltpFR	8	n/a	n/a	n/a	n/a	n/a	n/a	n/a	n/a	n/a	n/a	n/a	n/a	n/a	n/a	n/a
937.476	n/a	PROB	468738	n/a	LTP089	ltpFR	8	n/a	n/a	n/a	n/a	n/a	n/a	14	1	9	4	n/a	n/a	n/a	n/a	n/a
939.276	n/a	PROB	469638	n/a	LTP089	ltpFR	8	n/a	n/a	n/a	n/a	n/a	n/a	13	3	2	8	n/a	n/a	n/a	n/a	n/a
944.45	n/a	STOP	472225	n/a	LTP089	ltpFR	8	n/a	n/a	n/a	n/a	n/a	n/a	n/a	n/a	n/a	n/a	n/a	n/a	n/a	n/a	n/a
945.632	n/a	WORD	472816	wordpools/wasnorm_wordpool.txt	LTP089	ltpFR	8	3	1	CHECK	284	n/a	2	n/a	0	0	0	1	0.412841796875	0.57763671875	upper	../fonts/zerothre.ttf
946.166	n/a	KEY_MSG	473083	n/a	LTP089	ltpFR	8	3	n/a	n/a	n/a	n/a	n/a	n/a	0	0	0	n/a	n/a	n/a	n/a	n/a
948.634	n/a	START	474317	n/a	LTP089	ltpFR	8	n/a	n/a	n/a	n/a	n/a	n/a	n/a	n/a	n/a	n/a	n/a	n/a	n/a	n/a	n/a
949.782	n/a	PROB	474891	n/a	LTP089	ltpFR	8	n/a	n/a	n/a	n/a	n/a	n/a	23	7	7	9	n/a	n/a	n/a	n/a	n/a
956.634	n/a	STOP	478317	n/a	LTP089	ltpFR	8	n/a	n/a	n/a	n/a	n/a	n/a	n/a	n/a	n/a	n/a	n/a	n/a	n/a	n/a	n/a
957.816	n/a	WORD	478908	wordpools/wasnorm_wordpool.txt	LTP089	ltpFR	8	3	1	DIPLOMA	470	n/a	0	n/a	0	0	0	1	0.412841796875	0.57763671875	upper	../fonts/zerothre.ttf
960.824	n/a	START	480412	n/a	LTP089	ltpFR	8	n/a	n/a	n/a	n/a	n/a	n/a	n/a	n/a	n/a	n/a	n/a	n/a	n/a	n/a	n/a
961.916	n/a	PROB	480958	n/a	LTP089	ltpFR	8	n/a	n/a	n/a	n/a	n/a	n/a	15	8	1	6	n/a	n/a	n/a	n/a	n/a
966.766	n/a	PROB	483383	n/a	LTP089	ltpFR	8	n/a	n/a	n/a	n/a	n/a	n/a	11	4	1	6	n/a	n/a	n/a	n/a	n/a
968.796	n/a	STOP	484398	n/a	LTP089	ltpFR	8	n/a	n/a	n/a	n/a	n/a	n/a	n/a	n/a	n/a	n/a	n/a	n/a	n/a	n/a	n/a
969.724	n/a	WORD	484862	wordpools/wasnorm_wordpool.txt	LTP089	ltpFR	8	3	1	STUDENT	1395	n/a	2	n/a	0	0	0	1	0.412841796875	0.57763671875	upper	../fonts/zerothre.ttf
970.242	n/a	KEY_MSG	485121	n/a	LTP089	ltpFR	8	3	n/a	n/a	n/a	n/a	n/a	n/a	0	0	0	n/a	n/a	n/a	n/a	n/a
972.734	n/a	START	486367	n/a	LTP089	ltpFR	8	n/a	n/a	n/a	n/a	n/a	n/a	n/a	n/a	n/a	n/a	n/a	n/a	n/a	n/a	n/a
973.79	n/a	PROB	486895	n/a	LTP089	ltpFR	8	n/a	n/a	n/a	n/a	n/a	n/a	13	1	3	8	n/a	n/a	n/a	n/a	n/a
976.574	n/a	PROB	488287	n/a	LTP089	ltpFR	8	n/a	n/a	n/a	n/a	n/a	n/a	12	4	2	6	n/a	n/a	n/a	n/a	n/a
979.228	n/a	STOP	489614	n/a	LTP089	ltpFR	8	n/a	n/a	n/a	n/a	n/a	n/a	n/a	n/a	n/a	n/a	n/a	n/a	n/a	n/a	n/a
981.924	n/a	WORD	490962	wordpools/wasnorm_wordpool.txt	LTP089	ltpFR	8	3	1	RADIO	1157	n/a	2	n/a	0	0	0	1	0.412841796875	0.57763671875	upper	../fonts/zerothre.ttf
982.432	n/a	KEY_MSG	491216	n/a	LTP089	ltpFR	8	3	n/a	n/a	n/a	n/a	n/a	n/a	0	0	0	n/a	n/a	n/a	n/a	n/a
984.932	n/a	START	492466	n/a	LTP089	ltpFR	8	n/a	n/a	n/a	n/a	n/a	n/a	n/a	n/a	n/a	n/a	n/a	n/a	n/a	n/a	n/a
985.916	n/a	PROB	492958	n/a	LTP089	ltpFR	8	n/a	n/a	n/a	n/a	n/a	n/a	12	2	1	9	n/a	n/a	n/a	n/a	n/a
987.848	n/a	PROB	493924	n/a	LTP089	ltpFR	8	n/a	n/a	n/a	n/a	n/a	n/a	21	8	8	5	n/a	n/a	n/a	n/a	n/a
990.94	n/a	PROB	495470	n/a	LTP089	ltpFR	8	n/a	n/a	n/a	n/a	n/a	n/a	13	3	1	9	n/a	n/a	n/a	n/a	n/a
992.678	n/a	STOP	496339	n/a	LTP089	ltpFR	8	n/a	n/a	n/a	n/a	n/a	n/a	n/a	n/a	n/a	n/a	n/a	n/a	n/a	n/a	n/a
993.808	n/a	WORD	496904	wordpools/wasnorm_wordpool.txt	LTP089	ltpFR	8	3	0	VIOLA	1570	n/a	2	n/a	0	0	0	0	0.5869140625	0.422607421875	lower	../fonts/amplitud.ttf
993.848	n/a	KEY_MSG	496924	n/a	LTP089	ltpFR	8	3	n/a	n/a	n/a	n/a	n/a	n/a	0	0	0	n/a	n/a	n/a	n/a	n/a
996.816	n/a	START	498408	n/a	LTP089	ltpFR	8	n/a	n/a	n/a	n/a	n/a	n/a	n/a	n/a	n/a	n/a	n/a	n/a	n/a	n/a	n/a
997.956	n/a	PROB	498978	n/a	LTP089	ltpFR	8	n/a	n/a	n/a	n/a	n/a	n/a	13	4	1	8	n/a	n/a	n/a	n/a	n/a
1000.764	n/a	PROB	500382	n/a	LTP089	ltpFR	8	n/a	n/a	n/a	n/a	n/a	n/a	15	3	3	8	n/a	n/a	n/a	n/a	n/a
1003.982	n/a	STOP	501991	n/a	LTP089	ltpFR	8	n/a	n/a	n/a	n/a	n/a	n/a	n/a	n/a	n/a	n/a	n/a	n/a	n/a	n/a	n/a
1005.748	n/a	WORD	502874	wordpools/wasnorm_wordpool.txt	LTP089	ltpFR	8	3	0	BISCUIT	130	n/a	0	n/a	0	0	0	0	0.5869140625	0.422607421875	lower	../fonts/amplitud.ttf
1008.758	n/a	START	504379	n/a	LTP089	ltpFR	8	n/a	n/a	n/a	n/a	n/a	n/a	n/a	n/a	n/a	n/a	n/a	n/a	n/a	n/a	n/a
1009.766	n/a	PROB	504883	n/a	LTP089	ltpFR	8	n/a	n/a	n/a	n/a	n/a	n/a	18	9	8	1	n/a	n/a	n/a	n/a	n/a
1011.89	n/a	PROB	505945	n/a	LTP089	ltpFR	8	n/a	n/a	n/a	n/a	n/a	n/a	10	4	5	1	n/a	n/a	n/a	n/a	n/a
1014.014	n/a	PROB	507007	n/a	LTP089	ltpFR	8	n/a	n/a	n/a	n/a	n/a	n/a	11	2	8	1	n/a	n/a	n/a	n/a	n/a
1015.806	n/a	STOP	507903	n/a	LTP089	ltpFR	8	n/a	n/a	n/a	n/a	n/a	n/a	n/a	n/a	n/a	n/a	n/a	n/a	n/a	n/a	n/a
1018.54	n/a	REC_START	509270	n/a	LTP089	ltpFR	8	3	n/a	n/a	n/a	n/a	n/a	n/a	0	0	0	n/a	n/a	n/a	n/a	n/a
1022.082	n/a	REC_WORD	511041	wordpools/wasnorm_wordpool.txt	LTP089	ltpFR	8	3	0	BISCUIT	130	n/a	0	n/a	0	0	0	n/a	n/a	n/a	n/a	n/a
1023.094	n/a	REC_WORD	511547	wordpools/wasnorm_wordpool.txt	LTP089	ltpFR	8	3	0	MASK	876	n/a	0	n/a	0	0	0	n/a	n/a	n/a	n/a	n/a
1024.9	n/a	REC_WORD_VV	512450	wordpools/wasnorm_wordpool.txt	LTP089	ltpFR	8	3	n/a	<>	-1	n/a	n/a	n/a	0	0	0	n/a	n/a	n/a	n/a	n/a
1099.254	n/a	WORD	549627	wordpools/wasnorm_wordpool.txt	LTP089	ltpFR	8	4	0	EWE	542	n/a	0	n/a	0	0	0	0	0.5869140625	0.422607421875	lower	../fonts/amplitud.ttf
1103.204	n/a	WORD	551602	wordpools/wasnorm_wordpool.txt	LTP089	ltpFR	8	4	0	LIGHTER	819	n/a	0	n/a	0	0	0	0	0.5869140625	0.422607421875	lower	../fonts/amplitud.ttf
1107.372	n/a	WORD	553686	wordpools/wasnorm_wordpool.txt	LTP089	ltpFR	8	4	0	BUGLE	189	n/a	0	n/a	0	0	0	0	0.5869140625	0.422607421875	lower	../fonts/amplitud.ttf
1111.504	n/a	WORD	555752	wordpools/wasnorm_wordpool.txt	LTP089	ltpFR	8	4	0	TERMINAL	1450	n/a	0	n/a	0	0	0	0	0.5869140625	0.422607421875	lower	../fonts/amplitud.ttf
1115.678	n/a	WORD	557839	wordpools/wasnorm_wordpool.txt	LTP089	ltpFR	8	4	0	SOCK	1339	n/a	0	n/a	0	0	0	0	0.5869140625	0.422607421875	lower	../fonts/amplitud.ttf
1119.67	n/a	WORD	559835	wordpools/wasnorm_wordpool.txt	LTP089	ltpFR	8	4	0	VENUS	1557	n/a	0	n/a	0	0	0	0	0.5869140625	0.422607421875	lower	../fonts/amplitud.ttf
1123.654	n/a	WORD	561827	wordpools/wasnorm_wordpool.txt	LTP089	ltpFR	8	4	0	PAWN	1030	n/a	1	n/a	0	0	0	0	0.5869140625	0.422607421875	lower	../fonts/amplitud.ttf
1127.754	n/a	WORD	563877	wordpools/wasnorm_wordpool.txt	LTP089	ltpFR	8	4	0	CAPITAL	238	n/a	0	n/a	0	0	0	0	0.5869140625	0.422607421875	lower	../fonts/amplitud.ttf
1131.662	n/a	WORD	565831	wordpools/wasnorm_wordpool.txt	LTP089	ltpFR	8	4	0	DRUM	502	n/a	0	n/a	0	0	0	0	0.5869140625	0.422607421875	lower	../fonts/amplitud.ttf
1135.82	n/a	WORD	567910	wordpools/wasnorm_wordpool.txt	LTP089	ltpFR	8	4	0	COYOTE	396	n/a	1	n/a	0	0	0	0	0.5869140625	0.422607421875	lower	../fonts/amplitud.ttf
1139.72	n/a	WORD	569860	wordpools/wasnorm_wordpool.txt	LTP089	ltpFR	8	4	0	PIPE	1073	n/a	0	n/a	0	0	0	0	0.5869140625	0.422607421875	lower	../fonts/amplitud.ttf
1143.836	n/a	WORD	571918	wordpools/wasnorm_wordpool.txt	LTP089	ltpFR	8	4	0	FREEWAY	603	n/a	0	n/a	0	0	0	0	0.5869140625	0.422607421875	lower	../fonts/amplitud.ttf
1147.712	n/a	WORD	573856	wordpools/wasnorm_wordpool.txt	LTP089	ltpFR	8	4	0	ALLEY	15	n/a	1	n/a	0	0	0	0	0.5869140625	0.422607421875	lower	../fonts/amplitud.ttf
1151.836	n/a	WORD	575918	wordpools/wasnorm_wordpool.txt	LTP089	ltpFR	8	4	0	PUMPKIN	1142	n/a	0	n/a	0	0	0	0	0.5869140625	0.422607421875	lower	../fonts/amplitud.ttf
1155.878	n/a	WORD	577939	wordpools/wasnorm_wordpool.txt	LTP089	ltpFR	8	4	0	PEAR	1033	n/a	1	n/a	0	0	0	0	0.5869140625	0.422607421875	lower	../fonts/amplitud.ttf
1159.728	n/a	WORD	579864	wordpools/wasnorm_wordpool.txt	LTP089	ltpFR	8	4	0	BUTTON	207	n/a	1	n/a	0	0	0	0	0.5869140625	0.422607421875	lower	../fonts/amplitud.ttf
1162.736	n/a	START	581368	n/a	LTP089	ltpFR	8	n/a	n/a	n/a	n/a	n/a	n/a	n/a	n/a	n/a	n/a	n/a	n/a	n/a	n/a	n/a
1163.77	n/a	PROB	581885	n/a	LTP089	ltpFR	8	n/a	n/a	n/a	n/a	n/a	n/a	17	9	4	4	n/a	n/a	n/a	n/a	n/a
1166.286	n/a	PROB	583143	n/a	LTP089	ltpFR	8	n/a	n/a	n/a	n/a	n/a	n/a	21	5	8	8	n/a	n/a	n/a	n/a	n/a
1169.278	n/a	PROB	584639	n/a	LTP089	ltpFR	8	n/a	n/a	n/a	n/a	n/a	n/a	10	2	7	1	n/a	n/a	n/a	n/a	n/a
1171.278	n/a	PROB	585639	n/a	LTP089	ltpFR	8	n/a	n/a	n/a	n/a	n/a	n/a	10	2	6	2	n/a	n/a	n/a	n/a	n/a
1173.894	n/a	PROB	586947	n/a	LTP089	ltpFR	8	n/a	n/a	n/a	n/a	n/a	n/a	15	7	2	6	n/a	n/a	n/a	n/a	n/a
1176.318	n/a	PROB	588159	n/a	LTP089	ltpFR	8	n/a	n/a	n/a	n/a	n/a	n/a	8	4	3	1	n/a	n/a	n/a	n/a	n/a
1178.318	n/a	STOP	589159	n/a	LTP089	ltpFR	8	n/a	n/a	n/a	n/a	n/a	n/a	n/a	n/a	n/a	n/a	n/a	n/a	n/a	n/a	n/a
1180.66	n/a	REC_START	590330	n/a	LTP089	ltpFR	8	4	n/a	n/a	n/a	n/a	n/a	n/a	0	0	0	n/a	n/a	n/a	n/a	n/a
1185.296	n/a	REC_WORD	592648	wordpools/wasnorm_wordpool.txt	LTP089	ltpFR	8	4	0	DRUM	502	n/a	0	n/a	0	0	0	n/a	n/a	n/a	n/a	n/a
1188.518	n/a	REC_WORD	594259	wordpools/wasnorm_wordpool.txt	LTP089	ltpFR	8	4	0	EWE	542	n/a	0	n/a	0	0	0	n/a	n/a	n/a	n/a	n/a
1191.94	n/a	REC_WORD	595970	wordpools/wasnorm_wordpool.txt	LTP089	ltpFR	8	4	0	COYOTE	396	n/a	1	n/a	0	0	0	n/a	n/a	n/a	n/a	n/a
1192.328	n/a	REC_WORD_VV	596164	wordpools/wasnorm_wordpool.txt	LTP089	ltpFR	8	4	n/a	<>	-1	n/a	n/a	n/a	0	0	0	n/a	n/a	n/a	n/a	n/a
1279.068	n/a	START	639534	n/a	LTP089	ltpFR	8	n/a	n/a	n/a	n/a	n/a	n/a	n/a	n/a	n/a	n/a	n/a	n/a	n/a	n/a	n/a
1280.574	n/a	PROB	640287	n/a	LTP089	ltpFR	8	n/a	n/a	n/a	n/a	n/a	n/a	20	6	6	8	n/a	n/a	n/a	n/a	n/a
1282.716	n/a	PROB	641358	n/a	LTP089	ltpFR	8	n/a	n/a	n/a	n/a	n/a	n/a	15	9	5	1	n/a	n/a	n/a	n/a	n/a
1284.308	n/a	PROB	642154	n/a	LTP089	ltpFR	8	n/a	n/a	n/a	n/a	n/a	n/a	7	4	1	2	n/a	n/a	n/a	n/a	n/a
1286.532	n/a	PROB	643266	n/a	LTP089	ltpFR	8	n/a	n/a	n/a	n/a	n/a	n/a	10	2	4	4	n/a	n/a	n/a	n/a	n/a
1288.174	n/a	PROB	644087	n/a	LTP089	ltpFR	8	n/a	n/a	n/a	n/a	n/a	n/a	18	5	5	8	n/a	n/a	n/a	n/a	n/a
1290.924	n/a	PROB	645462	n/a	LTP089	ltpFR	8	n/a	n/a	n/a	n/a	n/a	n/a	13	3	7	3	n/a	n/a	n/a	n/a	n/a
1295.068	n/a	STOP	647534	n/a	LTP089	ltpFR	8	n/a	n/a	n/a	n/a	n/a	n/a	n/a	n/a	n/a	n/a	n/a	n/a	n/a	n/a	n/a
1295.998	n/a	WORD	647999	wordpools/wasnorm_wordpool.txt	LTP089	ltpFR	8	5	1	ROOSTER	1209	n/a	0	n/a	0	0	0	1	0.412841796875	0.57763671875	upper	../fonts/zerothre.ttf
1299.0	n/a	START	649500	n/a	LTP089	ltpFR	8	n/a	n/a	n/a	n/a	n/a	n/a	n/a	n/a	n/a	n/a	n/a	n/a	n/a	n/a	n/a
1299.992	n/a	PROB	649996	n/a	LTP089	ltpFR	8	n/a	n/a	n/a	n/a	n/a	n/a	24	7	9	8	n/a	n/a	n/a	n/a	n/a
1307.166	n/a	PROB	653583	n/a	LTP089	ltpFR	8	n/a	n/a	n/a	n/a	n/a	n/a	18	8	5	5	n/a	n/a	n/a	n/a	n/a
1309.024	n/a	PROB	654512	n/a	LTP089	ltpFR	8	n/a	n/a	n/a	n/a	n/a	n/a	15	1	5	8	n/a	n/a	n/a	n/a	n/a
1313.95	n/a	STOP	656975	n/a	LTP089	ltpFR	8	n/a	n/a	n/a	n/a	n/a	n/a	n/a	n/a	n/a	n/a	n/a	n/a	n/a	n/a	n/a
1315.982	n/a	WORD	657991	wordpools/wasnorm_wordpool.txt	LTP089	ltpFR	8	5	1	TRANSPLANT	1496	n/a	0	n/a	0	0	0	1	0.412841796875	0.57763671875	upper	../fonts/zerothre.ttf
1318.992	n/a	START	659496	n/a	LTP089	ltpFR	8	n/a	n/a	n/a	n/a	n/a	n/a	n/a	n/a	n/a	n/a	n/a	n/a	n/a	n/a	n/a
1319.866	n/a	PROB	659933	n/a	LTP089	ltpFR	8	n/a	n/a	n/a	n/a	n/a	n/a	10	2	3	5	n/a	n/a	n/a	n/a	n/a
1321.782	n/a	PROB	660891	n/a	LTP089	ltpFR	8	n/a	n/a	n/a	n/a	n/a	n/a	14	3	2	9	n/a	n/a	n/a	n/a	n/a
1326.49	n/a	PROB	663245	n/a	LTP089	ltpFR	8	n/a	n/a	n/a	n/a	n/a	n/a	24	6	9	7	n/a	n/a	n/a	n/a	n/a
1330.148	n/a	PROB	665074	n/a	LTP089	ltpFR	8	n/a	n/a	n/a	n/a	n/a	n/a	14	4	6	4	n/a	n/a	n/a	n/a	n/a
1332.106	n/a	PROB	666053	n/a	LTP089	ltpFR	8	n/a	n/a	n/a	n/a	n/a	n/a	15	9	3	3	n/a	n/a	n/a	n/a	n/a
1334.734	n/a	STOP	667367	n/a	LTP089	ltpFR	8	n/a	n/a	n/a	n/a	n/a	n/a	n/a	n/a	n/a	n/a	n/a	n/a	n/a	n/a	n/a
1335.848	n/a	WORD	667924	wordpools/wasnorm_wordpool.txt	LTP089	ltpFR	8	5	0	PAINT	1003	n/a	0	n/a	0	0	0	0	0.5869140625	0.422607421875	lower	../fonts/amplitud.ttf
1338.858	n/a	START	669429	n/a	LTP089	ltpFR	8	n/a	n/a	n/a	n/a	n/a	n/a	n/a	n/a	n/a	n/a	n/a	n/a	n/a	n/a	n/a
1339.674	n/a	PROB	669837	n/a	LTP089	ltpFR	8	n/a	n/a	n/a	n/a	n/a	n/a	11	2	4	5	n/a	n/a	n/a	n/a	n/a
1342.132	n/a	PROB	671066	n/a	LTP089	ltpFR	8	n/a	n/a	n/a	n/a	n/a	n/a	9	1	3	5	n/a	n/a	n/a	n/a	n/a
1345.032	n/a	PROB	672516	n/a	LTP089	ltpFR	8	n/a	n/a	n/a	n/a	n/a	n/a	17	7	4	6	n/a	n/a	n/a	n/a	n/a
1347.782	n/a	PROB	673891	n/a	LTP089	ltpFR	8	n/a	n/a	n/a	n/a	n/a	n/a	14	7	3	4	n/a	n/a	n/a	n/a	n/a
1349.482	n/a	PROB	674741	n/a	LTP089	ltpFR	8	n/a	n/a	n/a	n/a	n/a	n/a	16	4	3	9	n/a	n/a	n/a	n/a	n/a
1354.858	n/a	STOP	677429	n/a	LTP089	ltpFR	8	n/a	n/a	n/a	n/a	n/a	n/a	n/a	n/a	n/a	n/a	n/a	n/a	n/a	n/a	n/a
1356.024	n/a	WORD	678012	wordpools/wasnorm_wordpool.txt	LTP089	ltpFR	8	5	0	CHARCOAL	281	n/a	2	n/a	0	0	0	0	0.5869140625	0.422607421875	lower	../fonts/amplitud.ttf
1356.714	n/a	KEY_MSG	678357	n/a	LTP089	ltpFR	8	5	n/a	n/a	n/a	n/a	n/a	n/a	0	0	0	n/a	n/a	n/a	n/a	n/a
1359.032	n/a	START	679516	n/a	LTP089	ltpFR	8	n/a	n/a	n/a	n/a	n/a	n/a	n/a	n/a	n/a	n/a	n/a	n/a	n/a	n/a	n/a
1360.214	n/a	PROB	680107	n/a	LTP089	ltpFR	8	n/a	n/a	n/a	n/a	n/a	n/a	18	3	8	7	n/a	n/a	n/a	n/a	n/a
1362.872	n/a	PROB	681436	n/a	LTP089	ltpFR	8	n/a	n/a	n/a	n/a	n/a	n/a	14	7	6	1	n/a	n/a	n/a	n/a	n/a
1365.34	n/a	PROB	682670	n/a	LTP089	ltpFR	8	n/a	n/a	n/a	n/a	n/a	n/a	8	2	2	4	n/a	n/a	n/a	n/a	n/a
1367.456	n/a	PROB	683728	n/a	LTP089	ltpFR	8	n/a	n/a	n/a	n/a	n/a	n/a	14	4	8	2	n/a	n/a	n/a	n/a	n/a
1369.414	n/a	PROB	684707	n/a	LTP089	ltpFR	8	n/a	n/a	n/a	n/a	n/a	n/a	19	6	4	9	n/a	n/a	n/a	n/a	n/a
1371.672	n/a	PROB	685836	n/a	LTP089	ltpFR	8	n/a	n/a	n/a	n/a	n/a	n/a	18	5	6	7	n/a	n/a	n/a	n/a	n/a
1373.978	n/a	STOP	686989	n/a	LTP089	ltpFR	8	n/a	n/a	n/a	n/a	n/a	n/a	n/a	n/a	n/a	n/a	n/a	n/a	n/a	n/a	n/a
1375.872	n/a	WORD	687936	wordpools/wasnorm_wordpool.txt	LTP089	ltpFR	8	5	0	GREASE	660	n/a	0	n/a	0	0	0	0	0.5869140625	0.422607421875	lower	../fonts/amplitud.ttf
1378.882	n/a	START	689441	n/a	LTP089	ltpFR	8	n/a	n/a	n/a	n/a	n/a	n/a	n/a	n/a	n/a	n/a	n/a	n/a	n/a	n/a	n/a
1379.988	n/a	PROB	689994	n/a	LTP089	ltpFR	8	n/a	n/a	n/a	n/a	n/a	n/a	18	9	3	6	n/a	n/a	n/a	n/a	n/a
1383.738	n/a	PROB	691869	n/a	LTP089	ltpFR	8	n/a	n/a	n/a	n/a	n/a	n/a	17	6	9	3	n/a	n/a	n/a	n/a	n/a
1386.706	n/a	PROB	693353	n/a	LTP089	ltpFR	8	n/a	n/a	n/a	n/a	n/a	n/a	21	7	5	9	n/a	n/a	n/a	n/a	n/a
1389.764	n/a	PROB	694882	n/a	LTP089	ltpFR	8	n/a	n/a	n/a	n/a	n/a	n/a	13	5	1	7	n/a	n/a	n/a	n/a	n/a
1394.882	n/a	STOP	697441	n/a	LTP089	ltpFR	8	n/a	n/a	n/a	n/a	n/a	n/a	n/a	n/a	n/a	n/a	n/a	n/a	n/a	n/a	n/a
1395.93	n/a	WORD	697965	wordpools/wasnorm_wordpool.txt	LTP089	ltpFR	8	5	0	STEREO	1378	n/a	0	n/a	0	0	0	0	0.5869140625	0.422607421875	lower	../fonts/amplitud.ttf
1398.938	n/a	START	699469	n/a	LTP089	ltpFR	8	n/a	n/a	n/a	n/a	n/a	n/a	n/a	n/a	n/a	n/a	n/a	n/a	n/a	n/a	n/a
1399.922	n/a	PROB	699961	n/a	LTP089	ltpFR	8	n/a	n/a	n/a	n/a	n/a	n/a	20	6	8	6	n/a	n/a	n/a	n/a	n/a
1402.464	n/a	PROB	701232	n/a	LTP089	ltpFR	8	n/a	n/a	n/a	n/a	n/a	n/a	18	6	5	7	n/a	n/a	n/a	n/a	n/a
1405.004	n/a	PROB	702502	n/a	LTP089	ltpFR	8	n/a	n/a	n/a	n/a	n/a	n/a	13	6	3	4	n/a	n/a	n/a	n/a	n/a
1408.23	n/a	PROB	704115	n/a	LTP089	ltpFR	8	n/a	n/a	n/a	n/a	n/a	n/a	17	7	8	2	n/a	n/a	n/a	n/a	n/a
1410.578	n/a	PROB	705289	n/a	LTP089	ltpFR	8	n/a	n/a	n/a	n/a	n/a	n/a	13	5	1	7	n/a	n/a	n/a	n/a	n/a
1413.516	n/a	STOP	706758	n/a	LTP089	ltpFR	8	n/a	n/a	n/a	n/a	n/a	n/a	n/a	n/a	n/a	n/a	n/a	n/a	n/a	n/a	n/a
1416.004	n/a	WORD	708002	wordpools/wasnorm_wordpool.txt	LTP089	ltpFR	8	5	0	VIOLIN	1571	n/a	2	n/a	0	0	0	0	0.5869140625	0.422607421875	lower	../fonts/amplitud.ttf
1417.788	n/a	KEY_MSG	708894	n/a	LTP089	ltpFR	8	5	n/a	n/a	n/a	n/a	n/a	n/a	0	0	0	n/a	n/a	n/a	n/a	n/a
1419.306	n/a	START	709653	n/a	LTP089	ltpFR	8	n/a	n/a	n/a	n/a	n/a	n/a	n/a	n/a	n/a	n/a	n/a	n/a	n/a	n/a	n/a
1420.154	n/a	PROB	710077	n/a	LTP089	ltpFR	8	n/a	n/a	n/a	n/a	n/a	n/a	17	4	4	9	n/a	n/a	n/a	n/a	n/a
1423.146	n/a	PROB	711573	n/a	LTP089	ltpFR	8	n/a	n/a	n/a	n/a	n/a	n/a	9	1	4	4	n/a	n/a	n/a	n/a	n/a
1425.054	n/a	PROB	712527	n/a	LTP089	ltpFR	8	n/a	n/a	n/a	n/a	n/a	n/a	22	7	8	8	n/a	n/a	n/a	n/a	n/a
1428.562	n/a	PROB	714281	n/a	LTP089	ltpFR	8	n/a	n/a	n/a	n/a	n/a	n/a	10	1	3	6	n/a	n/a	n/a	n/a	n/a
1430.454	n/a	PROB	715227	n/a	LTP089	ltpFR	8	n/a	n/a	n/a	n/a	n/a	n/a	14	4	2	8	n/a	n/a	n/a	n/a	n/a
1435.306	n/a	STOP	717653	n/a	LTP089	ltpFR	8	n/a	n/a	n/a	n/a	n/a	n/a	n/a	n/a	n/a	n/a	n/a	n/a	n/a	n/a	n/a
1436.262	n/a	WORD	718131	wordpools/wasnorm_wordpool.txt	LTP089	ltpFR	8	5	1	DINOSAUR	469	n/a	2	n/a	0	0	0	1	0.412841796875	0.57763671875	upper	../fonts/zerothre.ttf
1437.27	n/a	KEY_MSG	718635	n/a	LTP089	ltpFR	8	5	n/a	n/a	n/a	n/a	n/a	n/a	0	0	0	n/a	n/a	n/a	n/a	n/a
1439.272	n/a	START	719636	n/a	LTP089	ltpFR	8	n/a	n/a	n/a	n/a	n/a	n/a	n/a	n/a	n/a	n/a	n/a	n/a	n/a	n/a	n/a
1440.254	n/a	PROB	720127	n/a	LTP089	ltpFR	8	n/a	n/a	n/a	n/a	n/a	n/a	20	9	4	7	n/a	n/a	n/a	n/a	n/a
1442.594	n/a	PROB	721297	n/a	LTP089	ltpFR	8	n/a	n/a	n/a	n/a	n/a	n/a	21	5	8	6	n/a	n/a	n/a	n/a	n/a
1446.478	n/a	PROB	723239	n/a	LTP089	ltpFR	8	n/a	n/a	n/a	n/a	n/a	n/a	11	2	4	5	n/a	n/a	n/a	n/a	n/a
1449.304	n/a	PROB	724652	n/a	LTP089	ltpFR	8	n/a	n/a	n/a	n/a	n/a	n/a	7	2	4	1	n/a	n/a	n/a	n/a	n/a
1452.08	n/a	PROB	726040	n/a	LTP089	ltpFR	8	n/a	n/a	n/a	n/a	n/a	n/a	10	1	3	6	n/a	n/a	n/a	n/a	n/a
1453.982	n/a	STOP	726991	n/a	LTP089	ltpFR	8	n/a	n/a	n/a	n/a	n/a	n/a	n/a	n/a	n/a	n/a	n/a	n/a	n/a	n/a	n/a
1456.096	n/a	WORD	728048	wordpools/wasnorm_wordpool.txt	LTP089	ltpFR	8	5	1	PAINTER	1004	n/a	0	n/a	0	0	0	1	0.412841796875	0.57763671875	upper	../fonts/zerothre.ttf
1459.104	n/a	START	729552	n/a	LTP089	ltpFR	8	n/a	n/a	n/a	n/a	n/a	n/a	n/a	n/a	n/a	n/a	n/a	n/a	n/a	n/a	n/a
1459.928	n/a	PROB	729964	n/a	LTP089	ltpFR	8	n/a	n/a	n/a	n/a	n/a	n/a	17	7	6	4	n/a	n/a	n/a	n/a	n/a
1462.004	n/a	PROB	731002	n/a	LTP089	ltpFR	8	n/a	n/a	n/a	n/a	n/a	n/a	18	6	4	8	n/a	n/a	n/a	n/a	n/a
1463.886	n/a	PROB	731943	n/a	LTP089	ltpFR	8	n/a	n/a	n/a	n/a	n/a	n/a	8	1	1	6	n/a	n/a	n/a	n/a	n/a
1466.52	n/a	PROB	733260	n/a	LTP089	ltpFR	8	n/a	n/a	n/a	n/a	n/a	n/a	21	4	9	8	n/a	n/a	n/a	n/a	n/a
1470.586	n/a	PROB	735293	n/a	LTP089	ltpFR	8	n/a	n/a	n/a	n/a	n/a	n/a	11	2	8	1	n/a	n/a	n/a	n/a	n/a
1475.104	n/a	STOP	737552	n/a	LTP089	ltpFR	8	n/a	n/a	n/a	n/a	n/a	n/a	n/a	n/a	n/a	n/a	n/a	n/a	n/a	n/a	n/a
1476.028	n/a	WORD	738014	wordpools/wasnorm_wordpool.txt	LTP089	ltpFR	8	5	1	FIN	566	n/a	0	n/a	0	0	0	1	0.412841796875	0.57763671875	upper	../fonts/zerothre.ttf
1479.036	n/a	START	739518	n/a	LTP089	ltpFR	8	n/a	n/a	n/a	n/a	n/a	n/a	n/a	n/a	n/a	n/a	n/a	n/a	n/a	n/a	n/a
1479.878	n/a	PROB	739939	n/a	LTP089	ltpFR	8	n/a	n/a	n/a	n/a	n/a	n/a	10	7	1	2	n/a	n/a	n/a	n/a	n/a
1481.328	n/a	PROB	740664	n/a	LTP089	ltpFR	8	n/a	n/a	n/a	n/a	n/a	n/a	13	9	3	1	n/a	n/a	n/a	n/a	n/a
1482.952	n/a	PROB	741476	n/a	LTP089	ltpFR	8	n/a	n/a	n/a	n/a	n/a	n/a	17	5	4	8	n/a	n/a	n/a	n/a	n/a
1485.336	n/a	PROB	742668	n/a	LTP089	ltpFR	8	n/a	n/a	n/a	n/a	n/a	n/a	1	6	8	5	n/a	n/a	n/a	n/a	n/a
1487.786	n/a	PROB	743893	n/a	LTP089	ltpFR	8	n/a	n/a	n/a	n/a	n/a	n/a	18	7	7	4	n/a	n/a	n/a	n/a	n/a
1490.736	n/a	PROB	745368	n/a	LTP089	ltpFR	8	n/a	n/a	n/a	n/a	n/a	n/a	23	8	9	6	n/a	n/a	n/a	n/a	n/a
1494.088	n/a	STOP	747044	n/a	LTP089	ltpFR	8	n/a	n/a	n/a	n/a	n/a	n/a	n/a	n/a	n/a	n/a	n/a	n/a	n/a	n/a	n/a
1495.87	n/a	WORD	747935	wordpools/wasnorm_wordpool.txt	LTP089	ltpFR	8	5	1	GARDEN	623	n/a	0	n/a	0	0	0	1	0.412841796875	0.57763671875	upper	../fonts/zerothre.ttf
1498.878	n/a	START	749439	n/a	LTP089	ltpFR	8	n/a	n/a	n/a	n/a	n/a	n/a	n/a	n/a	n/a	n/a	n/a	n/a	n/a	n/a	n/a
1499.92	n/a	PROB	749960	n/a	LTP089	ltpFR	8	n/a	n/a	n/a	n/a	n/a	n/a	17	8	5	4	n/a	n/a	n/a	n/a	n/a
1503.744	n/a	PROB	751872	n/a	LTP089	ltpFR	8	n/a	n/a	n/a	n/a	n/a	n/a	20	6	7	7	n/a	n/a	n/a	n/a	n/a
1505.876	n/a	PROB	752938	n/a	LTP089	ltpFR	8	n/a	n/a	n/a	n/a	n/a	n/a	20	9	4	9	n/a	n/a	n/a	n/a	n/a
1508.202	n/a	PROB	754101	n/a	LTP089	ltpFR	8	n/a	n/a	n/a	n/a	n/a	n/a	20	6	8	6	n/a	n/a	n/a	n/a	n/a
1510.852	n/a	PROB	755426	n/a	LTP089	ltpFR	8	n/a	n/a	n/a	n/a	n/a	n/a	9	2	6	1	n/a	n/a	n/a	n/a	n/a
1514.878	n/a	STOP	757439	n/a	LTP089	ltpFR	8	n/a	n/a	n/a	n/a	n/a	n/a	n/a	n/a	n/a	n/a	n/a	n/a	n/a	n/a	n/a
1515.886	n/a	WORD	757943	wordpools/wasnorm_wordpool.txt	LTP089	ltpFR	8	5	0	SCROLL	1257	n/a	2	n/a	0	0	0	0	0.5869140625	0.422607421875	lower	../fonts/amplitud.ttf
1516.46	n/a	KEY_MSG	758230	n/a	LTP089	ltpFR	8	5	n/a	n/a	n/a	n/a	n/a	n/a	0	0	0	n/a	n/a	n/a	n/a	n/a
1518.894	n/a	START	759447	n/a	LTP089	ltpFR	8	n/a	n/a	n/a	n/a	n/a	n/a	n/a	n/a	n/a	n/a	n/a	n/a	n/a	n/a	n/a
1519.976	n/a	PROB	759988	n/a	LTP089	ltpFR	8	n/a	n/a	n/a	n/a	n/a	n/a	18	6	6	6	n/a	n/a	n/a	n/a	n/a
1522.06	n/a	PROB	761030	n/a	LTP089	ltpFR	8	n/a	n/a	n/a	n/a	n/a	n/a	23	8	7	8	n/a	n/a	n/a	n/a	n/a
1527.668	n/a	PROB	763834	n/a	LTP089	ltpFR	8	n/a	n/a	n/a	n/a	n/a	n/a	16	7	6	3	n/a	n/a	n/a	n/a	n/a
1530.286	n/a	PROB	765143	n/a	LTP089	ltpFR	8	n/a	n/a	n/a	n/a	n/a	n/a	18	3	8	7	n/a	n/a	n/a	n/a	n/a
1534.896	n/a	STOP	767448	n/a	LTP089	ltpFR	8	n/a	n/a	n/a	n/a	n/a	n/a	n/a	n/a	n/a	n/a	n/a	n/a	n/a	n/a	n/a
1536.06	n/a	WORD	768030	wordpools/wasnorm_wordpool.txt	LTP089	ltpFR	8	5	0	ROBIN	1199	n/a	0	n/a	0	0	0	0	0.5869140625	0.422607421875	lower	../fonts/amplitud.ttf
1539.068	n/a	START	769534	n/a	LTP089	ltpFR	8	n/a	n/a	n/a	n/a	n/a	n/a	n/a	n/a	n/a	n/a	n/a	n/a	n/a	n/a	n/a
1540.194	n/a	PROB	770097	n/a	LTP089	ltpFR	8	n/a	n/a	n/a	n/a	n/a	n/a	14	1	5	7	n/a	n/a	n/a	n/a	n/a
1544.41	n/a	PROB	772205	n/a	LTP089	ltpFR	8	n/a	n/a	n/a	n/a	n/a	n/a	19	5	9	5	n/a	n/a	n/a	n/a	n/a
1547.21	n/a	PROB	773605	n/a	LTP089	ltpFR	8	n/a	n/a	n/a	n/a	n/a	n/a	21	5	8	8	n/a	n/a	n/a	n/a	n/a
1549.618	n/a	PROB	774809	n/a	LTP089	ltpFR	8	n/a	n/a	n/a	n/a	n/a	n/a	12	8	1	3	n/a	n/a	n/a	n/a	n/a
1555.07	n/a	STOP	777535	n/a	LTP089	ltpFR	8	n/a	n/a	n/a	n/a	n/a	n/a	n/a	n/a	n/a	n/a	n/a	n/a	n/a	n/a	n/a
1556.276	n/a	WORD	778138	wordpools/wasnorm_wordpool.txt	LTP089	ltpFR	8	5	0	THORN	1459	n/a	0	n/a	0	0	0	0	0.5869140625	0.422607421875	lower	../fonts/amplitud.ttf
1559.284	n/a	START	779642	n/a	LTP089	ltpFR	8	n/a	n/a	n/a	n/a	n/a	n/a	n/a	n/a	n/a	n/a	n/a	n/a	n/a	n/a	n/a
1560.4	n/a	PROB	780200	n/a	LTP089	ltpFR	8	n/a	n/a	n/a	n/a	n/a	n/a	15	7	5	3	n/a	n/a	n/a	n/a	n/a
1564.326	n/a	PROB	782163	n/a	LTP089	ltpFR	8	n/a	n/a	n/a	n/a	n/a	n/a	20	3	9	8	n/a	n/a	n/a	n/a	n/a
1568.552	n/a	PROB	784276	n/a	LTP089	ltpFR	8	n/a	n/a	n/a	n/a	n/a	n/a	17	4	9	4	n/a	n/a	n/a	n/a	n/a
1575.284	n/a	STOP	787642	n/a	LTP089	ltpFR	8	n/a	n/a	n/a	n/a	n/a	n/a	n/a	n/a	n/a	n/a	n/a	n/a	n/a	n/a	n/a
1576.392	n/a	WORD	788196	wordpools/wasnorm_wordpool.txt	LTP089	ltpFR	8	5	1	DISC	473	n/a	0	n/a	0	0	0	1	0.412841796875	0.57763671875	upper	../fonts/zerothre.ttf
1579.4	n/a	START	789700	n/a	LTP089	ltpFR	8	n/a	n/a	n/a	n/a	n/a	n/a	n/a	n/a	n/a	n/a	n/a	n/a	n/a	n/a	n/a
1580.258	n/a	PROB	790129	n/a	LTP089	ltpFR	8	n/a	n/a	n/a	n/a	n/a	n/a	13	3	5	5	n/a	n/a	n/a	n/a	n/a
1581.942	n/a	PROB	790971	n/a	LTP089	ltpFR	8	n/a	n/a	n/a	n/a	n/a	n/a	5	2	1	1	n/a	n/a	n/a	n/a	n/a
1583.742	n/a	PROB	791871	n/a	LTP089	ltpFR	8	n/a	n/a	n/a	n/a	n/a	n/a	7	3	2	2	n/a	n/a	n/a	n/a	n/a
1585.992	n/a	PROB	792996	n/a	LTP089	ltpFR	8	n/a	n/a	n/a	n/a	n/a	n/a	15	7	4	4	n/a	n/a	n/a	n/a	n/a
1588.576	n/a	PROB	794288	n/a	LTP089	ltpFR	8	n/a	n/a	n/a	n/a	n/a	n/a	22	8	6	8	n/a	n/a	n/a	n/a	n/a
1592.5	n/a	PROB	796250	n/a	LTP089	ltpFR	8	n/a	n/a	n/a	n/a	n/a	n/a	11	1	7	3	n/a	n/a	n/a	n/a	n/a
1594.774	n/a	STOP	797387	n/a	LTP089	ltpFR	8	n/a	n/a	n/a	n/a	n/a	n/a	n/a	n/a	n/a	n/a	n/a	n/a	n/a	n/a	n/a
1596.55	n/a	WORD	798275	wordpools/wasnorm_wordpool.txt	LTP089	ltpFR	8	5	1	PRINTER	1126	n/a	0	n/a	0	0	0	1	0.412841796875	0.57763671875	upper	../fonts/zerothre.ttf
1599.558	n/a	START	799779	n/a	LTP089	ltpFR	8	n/a	n/a	n/a	n/a	n/a	n/a	n/a	n/a	n/a	n/a	n/a	n/a	n/a	n/a	n/a
1600.574	n/a	PROB	800287	n/a	LTP089	ltpFR	8	n/a	n/a	n/a	n/a	n/a	n/a	24	7	8	9	n/a	n/a	n/a	n/a	n/a
1606.976	n/a	PROB	803488	n/a	LTP089	ltpFR	8	n/a	n/a	n/a	n/a	n/a	n/a	13	7	4	2	n/a	n/a	n/a	n/a	n/a
1609.774	n/a	PROB	804887	n/a	LTP089	ltpFR	8	n/a	n/a	n/a	n/a	n/a	n/a	24	8	8	8	n/a	n/a	n/a	n/a	n/a
1611.634	n/a	PROB	805817	n/a	LTP089	ltpFR	8	n/a	n/a	n/a	n/a	n/a	n/a	7	1	5	1	n/a	n/a	n/a	n/a	n/a
1613.658	n/a	PROB	806829	n/a	LTP089	ltpFR	8	n/a	n/a	n/a	n/a	n/a	n/a	3	1	1	1	n/a	n/a	n/a	n/a	n/a
1614.806	n/a	STOP	807403	n/a	LTP089	ltpFR	8	n/a	n/a	n/a	n/a	n/a	n/a	n/a	n/a	n/a	n/a	n/a	n/a	n/a	n/a	n/a
1617.316	n/a	REC_START	808658	n/a	LTP089	ltpFR	8	5	n/a	n/a	n/a	n/a	n/a	n/a	0	0	0	n/a	n/a	n/a	n/a	n/a
1620.154	n/a	REC_WORD	810077	wordpools/wasnorm_wordpool.txt	LTP089	ltpFR	8	5	1	PAINTER	1004	n/a	0	n/a	0	0	0	n/a	n/a	n/a	n/a	n/a
1621.516	n/a	REC_WORD	810758	wordpools/wasnorm_wordpool.txt	LTP089	ltpFR	8	5	n/a	CHEETAH	-1	n/a	n/a	n/a	0	0	0	n/a	n/a	n/a	n/a	n/a
1720.414	n/a	WORD	860207	wordpools/wasnorm_wordpool.txt	LTP089	ltpFR	8	6	0	CHERRY	293	n/a	2	n/a	0	0	0	0	0.5869140625	0.422607421875	lower	../fonts/amplitud.ttf
1721.206	n/a	KEY_MSG	860603	n/a	LTP089	ltpFR	8	6	n/a	n/a	n/a	n/a	n/a	n/a	0	0	0	n/a	n/a	n/a	n/a	n/a
1724.398	n/a	WORD	862199	wordpools/wasnorm_wordpool.txt	LTP089	ltpFR	8	6	0	KIWI	781	n/a	0	n/a	0	0	0	0	0.5869140625	0.422607421875	lower	../fonts/amplitud.ttf
1728.322	n/a	WORD	864161	wordpools/wasnorm_wordpool.txt	LTP089	ltpFR	8	6	0	SPONGE	1355	n/a	0	n/a	0	0	0	0	0.5869140625	0.422607421875	lower	../fonts/amplitud.ttf
1732.388	n/a	WORD	866194	wordpools/wasnorm_wordpool.txt	LTP089	ltpFR	8	6	1	CUSTOMER	430	n/a	0	n/a	0	0	0	1	0.412841796875	0.57763671875	upper	../fonts/zerothre.ttf
1736.362	n/a	WORD	868181	wordpools/wasnorm_wordpool.txt	LTP089	ltpFR	8	6	1	RECEIPT	1173	n/a	1	n/a	0	0	0	1	0.412841796875	0.57763671875	upper	../fonts/zerothre.ttf
1740.464	n/a	WORD	870232	wordpools/wasnorm_wordpool.txt	LTP089	ltpFR	8	6	1	KLEENEX	782	n/a	1	n/a	0	0	0	1	0.412841796875	0.57763671875	upper	../fonts/zerothre.ttf
1744.338	n/a	WORD	872169	wordpools/wasnorm_wordpool.txt	LTP089	ltpFR	8	6	1	PICKLE	1059	n/a	0	n/a	0	0	0	1	0.412841796875	0.57763671875	upper	../fonts/zerothre.ttf
1748.462	n/a	WORD	874231	wordpools/wasnorm_wordpool.txt	LTP089	ltpFR	8	6	1	DOG	480	n/a	0	n/a	0	0	0	1	0.412841796875	0.57763671875	upper	../fonts/zerothre.ttf
1752.462	n/a	WORD	876231	wordpools/wasnorm_wordpool.txt	LTP089	ltpFR	8	6	1	SKELETON	1314	n/a	0	n/a	0	0	0	1	0.412841796875	0.57763671875	upper	../fonts/zerothre.ttf
1756.47	n/a	WORD	878235	wordpools/wasnorm_wordpool.txt	LTP089	ltpFR	8	6	0	MUSHROOM	934	n/a	0	n/a	0	0	0	0	0.5869140625	0.422607421875	lower	../fonts/amplitud.ttf
1760.522	n/a	WORD	880261	wordpools/wasnorm_wordpool.txt	LTP089	ltpFR	8	6	0	BATHROOM	99	n/a	0	n/a	0	0	0	0	0.5869140625	0.422607421875	lower	../fonts/amplitud.ttf
1764.68	n/a	WORD	882340	wordpools/wasnorm_wordpool.txt	LTP089	ltpFR	8	6	0	CASHIER	254	n/a	0	n/a	0	0	0	0	0.5869140625	0.422607421875	lower	../fonts/amplitud.ttf
1768.778	n/a	WORD	884389	wordpools/wasnorm_wordpool.txt	LTP089	ltpFR	8	6	0	BUTTER	205	n/a	0	n/a	0	0	0	0	0.5869140625	0.422607421875	lower	../fonts/amplitud.ttf
1772.904	n/a	WORD	886452	wordpools/wasnorm_wordpool.txt	LTP089	ltpFR	8	6	0	MONKEY	911	n/a	0	n/a	0	0	0	0	0.5869140625	0.422607421875	lower	../fonts/amplitud.ttf
1777.028	n/a	WORD	888514	wordpools/wasnorm_wordpool.txt	LTP089	ltpFR	8	6	1	CAVE	263	n/a	3	n/a	0	0	0	1	0.412841796875	0.57763671875	upper	../fonts/zerothre.ttf
1777.88	n/a	KEY_MSG	888940	n/a	LTP089	ltpFR	8	6	n/a	n/a	n/a	n/a	n/a	n/a	0	0	0	n/a	n/a	n/a	n/a	n/a
1780.962	n/a	WORD	890481	wordpools/wasnorm_wordpool.txt	LTP089	ltpFR	8	6	1	PEANUT	1032	n/a	1	n/a	0	0	0	1	0.412841796875	0.57763671875	upper	../fonts/zerothre.ttf
1783.97	n/a	START	891985	n/a	LTP089	ltpFR	8	n/a	n/a	n/a	n/a	n/a	n/a	n/a	n/a	n/a	n/a	n/a	n/a	n/a	n/a	n/a
1785.104	n/a	PROB	892552	n/a	LTP089	ltpFR	8	n/a	n/a	n/a	n/a	n/a	n/a	16	3	5	8	n/a	n/a	n/a	n/a	n/a
1788.512	n/a	PROB	894256	n/a	LTP089	ltpFR	8	n/a	n/a	n/a	n/a	n/a	n/a	17	9	4	6	n/a	n/a	n/a	n/a	n/a
1791.008	n/a	STOP	895504	n/a	LTP089	ltpFR	8	n/a	n/a	n/a	n/a	n/a	n/a	n/a	n/a	n/a	n/a	n/a	n/a	n/a	n/a	n/a
1793.728	n/a	REC_START	896864	n/a	LTP089	ltpFR	8	6	n/a	n/a	n/a	n/a	n/a	n/a	0	0	0	n/a	n/a	n/a	n/a	n/a
1796.526	n/a	REC_WORD	898263	wordpools/wasnorm_wordpool.txt	LTP089	ltpFR	8	6	1	CAVE	263	n/a	3	n/a	0	0	0	n/a	n/a	n/a	n/a	n/a
1797.45	n/a	REC_WORD	898725	wordpools/wasnorm_wordpool.txt	LTP089	ltpFR	8	6	1	PEANUT	1032	n/a	1	n/a	0	0	0	n/a	n/a	n/a	n/a	n/a
1798.274	n/a	REC_WORD	899137	wordpools/wasnorm_wordpool.txt	LTP089	ltpFR	8	6	0	KIWI	781	n/a	0	n/a	0	0	0	n/a	n/a	n/a	n/a	n/a
1799.322	n/a	REC_WORD	899661	wordpools/wasnorm_wordpool.txt	LTP089	ltpFR	8	6	0	CHERRY	293	n/a	2	n/a	0	0	0	n/a	n/a	n/a	n/a	n/a
1801.536	n/a	REC_WORD_VV	900768	wordpools/wasnorm_wordpool.txt	LTP089	ltpFR	8	6	n/a	<>	-1	n/a	n/a	n/a	0	0	0	n/a	n/a	n/a	n/a	n/a
1881.66	n/a	WORD	940830	wordpools/wasnorm_wordpool.txt	LTP089	ltpFR	8	7	1	SILVERWARE	1308	n/a	2	n/a	0	0	0	1	0.412841796875	0.57763671875	upper	../fonts/zerothre.ttf
1882.584	n/a	KEY_MSG	941292	n/a	LTP089	ltpFR	8	7	n/a	n/a	n/a	n/a	n/a	n/a	0	0	0	n/a	n/a	n/a	n/a	n/a
1885.584	n/a	WORD	942792	wordpools/wasnorm_wordpool.txt	LTP089	ltpFR	8	7	1	HATCHET	691	n/a	0	n/a	0	0	0	1	0.412841796875	0.57763671875	upper	../fonts/zerothre.ttf
1889.684	n/a	WORD	944842	wordpools/wasnorm_wordpool.txt	LTP089	ltpFR	8	7	1	COUSIN	392	n/a	1	n/a	0	0	0	1	0.412841796875	0.57763671875	upper	../fonts/zerothre.ttf
1893.86	n/a	WORD	946930	wordpools/wasnorm_wordpool.txt	LTP089	ltpFR	8	7	1	NEUTRON	947	n/a	0	n/a	0	0	0	1	0.412841796875	0.57763671875	upper	../fonts/zerothre.ttf
1897.968	n/a	WORD	948984	wordpools/wasnorm_wordpool.txt	LTP089	ltpFR	8	7	1	TEAM	1441	n/a	0	n/a	0	0	0	1	0.412841796875	0.57763671875	upper	../fonts/zerothre.ttf
1901.81	n/a	WORD	950905	wordpools/wasnorm_wordpool.txt	LTP089	ltpFR	8	7	1	CANNON	232	n/a	0	n/a	0	0	0	1	0.412841796875	0.57763671875	upper	../fonts/zerothre.ttf
1905.9	n/a	WORD	952950	wordpools/wasnorm_wordpool.txt	LTP089	ltpFR	8	7	1	TWIN	1528	n/a	0	n/a	0	0	0	1	0.412841796875	0.57763671875	upper	../fonts/zerothre.ttf
1909.792	n/a	WORD	954896	wordpools/wasnorm_wordpool.txt	LTP089	ltpFR	8	7	1	ATHLETE	52	n/a	0	n/a	0	0	0	1	0.412841796875	0.57763671875	upper	../fonts/zerothre.ttf
1913.75	n/a	WORD	956875	wordpools/wasnorm_wordpool.txt	LTP089	ltpFR	8	7	1	CRITIC	410	n/a	0	n/a	0	0	0	1	0.412841796875	0.57763671875	upper	../fonts/zerothre.ttf
1917.884	n/a	WORD	958942	wordpools/wasnorm_wordpool.txt	LTP089	ltpFR	8	7	1	TWISTER	1530	n/a	0	n/a	0	0	0	1	0.412841796875	0.57763671875	upper	../fonts/zerothre.ttf
1922.05	n/a	WORD	961025	wordpools/wasnorm_wordpool.txt	LTP089	ltpFR	8	7	1	MOTH	920	n/a	1	n/a	0	0	0	1	0.412841796875	0.57763671875	upper	../fonts/zerothre.ttf
1925.974	n/a	WORD	962987	wordpools/wasnorm_wordpool.txt	LTP089	ltpFR	8	7	1	BUG	187	n/a	1	n/a	0	0	0	1	0.412841796875	0.57763671875	upper	../fonts/zerothre.ttf
1930.058	n/a	WORD	965029	wordpools/wasnorm_wordpool.txt	LTP089	ltpFR	8	7	1	RELATIVE	1182	n/a	1	n/a	0	0	0	1	0.412841796875	0.57763671875	upper	../fonts/zerothre.ttf
1933.866	n/a	WORD	966933	wordpools/wasnorm_wordpool.txt	LTP089	ltpFR	8	7	1	TYPEWRITER	1531	n/a	1	n/a	0	0	0	1	0.412841796875	0.57763671875	upper	../fonts/zerothre.ttf
1937.858	n/a	WORD	968929	wordpools/wasnorm_wordpool.txt	LTP089	ltpFR	8	7	1	CONTAINER	366	n/a	1	n/a	0	0	0	1	0.412841796875	0.57763671875	upper	../fonts/zerothre.ttf
1941.95	n/a	WORD	970975	wordpools/wasnorm_wordpool.txt	LTP089	ltpFR	8	7	1	CHAMBER	277	n/a	1	n/a	0	0	0	1	0.412841796875	0.57763671875	upper	../fonts/zerothre.ttf
1947.808	n/a	REC_START	973904	n/a	LTP089	ltpFR	8	7	n/a	n/a	n/a	n/a	n/a	n/a	0	0	0	n/a	n/a	n/a	n/a	n/a
1949.46	n/a	REC_WORD	974730	wordpools/wasnorm_wordpool.txt	LTP089	ltpFR	8	7	1	CHAMBER	277	n/a	1	n/a	0	0	0	n/a	n/a	n/a	n/a	n/a
1950.332	n/a	REC_WORD	975166	wordpools/wasnorm_wordpool.txt	LTP089	ltpFR	8	7	1	MOTH	920	n/a	1	n/a	0	0	0	n/a	n/a	n/a	n/a	n/a
1951.476	n/a	REC_WORD	975738	wordpools/wasnorm_wordpool.txt	LTP089	ltpFR	8	7	1	TWIN	1528	n/a	0	n/a	0	0	0	n/a	n/a	n/a	n/a	n/a
1952.992	n/a	REC_WORD_VV	976496	wordpools/wasnorm_wordpool.txt	LTP089	ltpFR	8	7	n/a	<>	-1	n/a	n/a	n/a	0	0	0	n/a	n/a	n/a	n/a	n/a
1956.136	n/a	REC_WORD_VV	978068	wordpools/wasnorm_wordpool.txt	LTP089	ltpFR	8	7	n/a	<>	-1	n/a	n/a	n/a	0	0	0	n/a	n/a	n/a	n/a	n/a
2046.514	n/a	WORD	1023257	wordpools/wasnorm_wordpool.txt	LTP089	ltpFR	8	8	1	POOL	1103	n/a	0	n/a	0	0	0	1	0.412841796875	0.57763671875	upper	../fonts/zerothre.ttf
2050.656	n/a	WORD	1025328	wordpools/wasnorm_wordpool.txt	LTP089	ltpFR	8	8	1	WAVE	1596	n/a	0	n/a	0	0	0	1	0.412841796875	0.57763671875	upper	../fonts/zerothre.ttf
2054.814	n/a	WORD	1027407	wordpools/wasnorm_wordpool.txt	LTP089	ltpFR	8	8	1	COURT	391	n/a	0	n/a	0	0	0	1	0.412841796875	0.57763671875	upper	../fonts/zerothre.ttf
2058.664	n/a	WORD	1029332	wordpools/wasnorm_wordpool.txt	LTP089	ltpFR	8	8	1	SALESMAN	1225	n/a	0	n/a	0	0	0	1	0.412841796875	0.57763671875	upper	../fonts/zerothre.ttf
2062.546	n/a	WORD	1031273	wordpools/wasnorm_wordpool.txt	LTP089	ltpFR	8	8	1	SHARK	1275	n/a	0	n/a	0	0	0	1	0.412841796875	0.57763671875	upper	../fonts/zerothre.ttf
2066.414	n/a	WORD	1033207	wordpools/wasnorm_wordpool.txt	LTP089	ltpFR	8	8	1	MERMAID	887	n/a	0	n/a	0	0	0	1	0.412841796875	0.57763671875	upper	../fonts/zerothre.ttf
2070.306	n/a	WORD	1035153	wordpools/wasnorm_wordpool.txt	LTP089	ltpFR	8	8	1	SUPERVISOR	1410	n/a	0	n/a	0	0	0	1	0.412841796875	0.57763671875	upper	../fonts/zerothre.ttf
2074.214	n/a	WORD	1037107	wordpools/wasnorm_wordpool.txt	LTP089	ltpFR	8	8	1	NAPKIN	937	n/a	1	n/a	0	0	0	1	0.412841796875	0.57763671875	upper	../fonts/zerothre.ttf
2078.388	n/a	WORD	1039194	wordpools/wasnorm_wordpool.txt	LTP089	ltpFR	8	8	1	DART	440	n/a	1	n/a	0	0	0	1	0.412841796875	0.57763671875	upper	../fonts/zerothre.ttf
2082.346	n/a	WORD	1041173	wordpools/wasnorm_wordpool.txt	LTP089	ltpFR	8	8	1	CEMETERY	269	n/a	1	n/a	0	0	0	1	0.412841796875	0.57763671875	upper	../fonts/zerothre.ttf
2086.204	n/a	WORD	1043102	wordpools/wasnorm_wordpool.txt	LTP089	ltpFR	8	8	1	CUSTARD	429	n/a	1	n/a	0	0	0	1	0.412841796875	0.57763671875	upper	../fonts/zerothre.ttf
2090.146	n/a	WORD	1045073	wordpools/wasnorm_wordpool.txt	LTP089	ltpFR	8	8	1	STRAWBERRY	1391	n/a	1	n/a	0	0	0	1	0.412841796875	0.57763671875	upper	../fonts/zerothre.ttf
2094.32	n/a	WORD	1047160	wordpools/wasnorm_wordpool.txt	LTP089	ltpFR	8	8	1	GAVEL	627	n/a	1	n/a	0	0	0	1	0.412841796875	0.57763671875	upper	../fonts/zerothre.ttf
2098.52	n/a	WORD	1049260	wordpools/wasnorm_wordpool.txt	LTP089	ltpFR	8	8	1	AUTOMOBILE	62	n/a	1	n/a	0	0	0	1	0.412841796875	0.57763671875	upper	../fonts/zerothre.ttf
2102.636	n/a	WORD	1051318	wordpools/wasnorm_wordpool.txt	LTP089	ltpFR	8	8	1	PRESIDENT	1121	n/a	1	n/a	0	0	0	1	0.412841796875	0.57763671875	upper	../fonts/zerothre.ttf
2106.496	n/a	WORD	1053248	wordpools/wasnorm_wordpool.txt	LTP089	ltpFR	8	8	1	ACTOR	5	n/a	1	n/a	0	0	0	1	0.412841796875	0.57763671875	upper	../fonts/zerothre.ttf
2109.496	n/a	START	1054748	n/a	LTP089	ltpFR	8	n/a	n/a	n/a	n/a	n/a	n/a	n/a	n/a	n/a	n/a	n/a	n/a	n/a	n/a	n/a
2110.33	n/a	PROB	1055165	n/a	LTP089	ltpFR	8	n/a	n/a	n/a	n/a	n/a	n/a	14	7	5	2	n/a	n/a	n/a	n/a	n/a
2114.528	n/a	PROB	1057264	n/a	LTP089	ltpFR	8	n/a	n/a	n/a	n/a	n/a	n/a	12	7	4	1	n/a	n/a	n/a	n/a	n/a
2116.64	n/a	STOP	1058320	n/a	LTP089	ltpFR	8	n/a	n/a	n/a	n/a	n/a	n/a	n/a	n/a	n/a	n/a	n/a	n/a	n/a	n/a	n/a
2119.238	n/a	REC_START	1059619	n/a	LTP089	ltpFR	8	8	n/a	n/a	n/a	n/a	n/a	n/a	0	0	0	n/a	n/a	n/a	n/a	n/a
2121.986	n/a	REC_WORD	1060993	wordpools/wasnorm_wordpool.txt	LTP089	ltpFR	8	8	1	GAVEL	627	n/a	1	n/a	0	0	0	n/a	n/a	n/a	n/a	n/a
2122.694	n/a	REC_WORD	1061347	wordpools/wasnorm_wordpool.txt	LTP089	ltpFR	8	8	1	ACTOR	5	n/a	1	n/a	0	0	0	n/a	n/a	n/a	n/a	n/a
2123.562	n/a	REC_WORD	1061781	wordpools/wasnorm_wordpool.txt	LTP089	ltpFR	8	8	1	PRESIDENT	1121	n/a	1	n/a	0	0	0	n/a	n/a	n/a	n/a	n/a
2125.798	n/a	REC_WORD	1062899	wordpools/wasnorm_wordpool.txt	LTP089	ltpFR	8	8	1	AUTOMOBILE	62	n/a	1	n/a	0	0	0	n/a	n/a	n/a	n/a	n/a
2197.834	n/a	WORD	1098917	wordpools/wasnorm_wordpool.txt	LTP089	ltpFR	8	9	0	CUBE	420	n/a	0	n/a	0	0	0	0	0.5869140625	0.422607421875	lower	../fonts/amplitud.ttf
2201.944	n/a	WORD	1100972	wordpools/wasnorm_wordpool.txt	LTP089	ltpFR	8	9	0	UMBRELLA	1534	n/a	0	n/a	0	0	0	0	0.5869140625	0.422607421875	lower	../fonts/amplitud.ttf
2205.968	n/a	WORD	1102984	wordpools/wasnorm_wordpool.txt	LTP089	ltpFR	8	9	0	TONGUE	1479	n/a	1	n/a	0	0	0	0	0.5869140625	0.422607421875	lower	../fonts/amplitud.ttf
2210.176	n/a	WORD	1105088	wordpools/wasnorm_wordpool.txt	LTP089	ltpFR	8	9	0	WASHCLOTH	1591	n/a	0	n/a	0	0	0	0	0.5869140625	0.422607421875	lower	../fonts/amplitud.ttf
2214.36	n/a	WORD	1107180	wordpools/wasnorm_wordpool.txt	LTP089	ltpFR	8	9	0	BUCKET	184	n/a	1	n/a	0	0	0	0	0.5869140625	0.422607421875	lower	../fonts/amplitud.ttf
2218.36	n/a	WORD	1109180	wordpools/wasnorm_wordpool.txt	LTP089	ltpFR	8	9	0	KANGAROO	768	n/a	1	n/a	0	0	0	0	0.5869140625	0.422607421875	lower	../fonts/amplitud.ttf
2222.502	n/a	WORD	1111251	wordpools/wasnorm_wordpool.txt	LTP089	ltpFR	8	9	0	FRECKLE	602	n/a	0	n/a	0	0	0	0	0.5869140625	0.422607421875	lower	../fonts/amplitud.ttf
2226.602	n/a	WORD	1113301	wordpools/wasnorm_wordpool.txt	LTP089	ltpFR	8	9	0	TUBE	1516	n/a	1	n/a	0	0	0	0	0.5869140625	0.422607421875	lower	../fonts/amplitud.ttf
2230.616	n/a	WORD	1115308	wordpools/wasnorm_wordpool.txt	LTP089	ltpFR	8	9	0	SALIVA	1226	n/a	0	n/a	0	0	0	0	0.5869140625	0.422607421875	lower	../fonts/amplitud.ttf
2234.726	n/a	WORD	1117363	wordpools/wasnorm_wordpool.txt	LTP089	ltpFR	8	9	0	PITCHFORK	1078	n/a	1	n/a	0	0	0	0	0.5869140625	0.422607421875	lower	../fonts/amplitud.ttf
2238.7	n/a	WORD	1119350	wordpools/wasnorm_wordpool.txt	LTP089	ltpFR	8	9	0	PLAQUE	1084	n/a	1	n/a	0	0	0	0	0.5869140625	0.422607421875	lower	../fonts/amplitud.ttf
2242.86	n/a	WORD	1121430	wordpools/wasnorm_wordpool.txt	LTP089	ltpFR	8	9	0	CONCERT	360	n/a	1	n/a	0	0	0	0	0.5869140625	0.422607421875	lower	../fonts/amplitud.ttf
2246.684	n/a	WORD	1123342	wordpools/wasnorm_wordpool.txt	LTP089	ltpFR	8	9	0	TROMBONE	1508	n/a	0	n/a	0	0	0	0	0.5869140625	0.422607421875	lower	../fonts/amplitud.ttf
2250.658	n/a	WORD	1125329	wordpools/wasnorm_wordpool.txt	LTP089	ltpFR	8	9	0	KNAPSACK	783	n/a	1	n/a	0	0	0	0	0.5869140625	0.422607421875	lower	../fonts/amplitud.ttf
2254.658	n/a	WORD	1127329	wordpools/wasnorm_wordpool.txt	LTP089	ltpFR	8	9	0	WALRUS	1585	n/a	1	n/a	0	0	0	0	0.5869140625	0.422607421875	lower	../fonts/amplitud.ttf
2258.682	n/a	WORD	1129341	wordpools/wasnorm_wordpool.txt	LTP089	ltpFR	8	9	0	ALLIGATOR	16	n/a	0	n/a	0	0	0	0	0.5869140625	0.422607421875	lower	../fonts/amplitud.ttf
2264.784	n/a	REC_START	1132392	n/a	LTP089	ltpFR	8	9	n/a	n/a	n/a	n/a	n/a	n/a	0	0	0	n/a	n/a	n/a	n/a	n/a
2266.012	n/a	REC_WORD	1133006	wordpools/wasnorm_wordpool.txt	LTP089	ltpFR	8	9	0	ALLIGATOR	16	n/a	0	n/a	0	0	0	n/a	n/a	n/a	n/a	n/a
2268.266	n/a	REC_WORD	1134133	wordpools/wasnorm_wordpool.txt	LTP089	ltpFR	8	9	0	WALRUS	1585	n/a	1	n/a	0	0	0	n/a	n/a	n/a	n/a	n/a
2269.25	n/a	REC_WORD	1134625	wordpools/wasnorm_wordpool.txt	LTP089	ltpFR	8	9	n/a	DISH	474	n/a	n/a	n/a	0	0	0	n/a	n/a	n/a	n/a	n/a
2269.542	n/a	REC_WORD	1134771	wordpools/wasnorm_wordpool.txt	LTP089	ltpFR	8	9	n/a	CLOTH	-1	n/a	n/a	n/a	0	0	0	n/a	n/a	n/a	n/a	n/a
2271.524	n/a	REC_WORD	1135762	wordpools/wasnorm_wordpool.txt	LTP089	ltpFR	8	9	n/a	CLOTH	-1	n/a	n/a	n/a	0	0	0	n/a	n/a	n/a	n/a	n/a
2276.288	n/a	REC_WORD	1138144	wordpools/wasnorm_wordpool.txt	LTP089	ltpFR	8	9	1	MOTH	920	n/a	1	n/a	0	0	0	n/a	n/a	n/a	n/a	n/a
2278.918	n/a	REC_WORD	1139459	wordpools/wasnorm_wordpool.txt	LTP089	ltpFR	8	9	n/a	SLOTH	-1	n/a	n/a	n/a	0	0	0	n/a	n/a	n/a	n/a	n/a
2350.922	n/a	WORD	1175461	wordpools/wasnorm_wordpool.txt	LTP089	ltpFR	8	10	0	CHEF	290	n/a	0	n/a	0	0	0	0	0.5869140625	0.422607421875	lower	../fonts/amplitud.ttf
2354.78	n/a	WORD	1177390	wordpools/wasnorm_wordpool.txt	LTP089	ltpFR	8	10	0	VEST	1559	n/a	1	n/a	0	0	0	0	0.5869140625	0.422607421875	lower	../fonts/amplitud.ttf
2358.748	n/a	WORD	1179374	wordpools/wasnorm_wordpool.txt	LTP089	ltpFR	8	10	0	MOSQUITO	917	n/a	0	n/a	0	0	0	0	0.5869140625	0.422607421875	lower	../fonts/amplitud.ttf
2362.898	n/a	WORD	1181449	wordpools/wasnorm_wordpool.txt	LTP089	ltpFR	8	10	1	CLOSET	326	n/a	1	n/a	0	0	0	1	0.412841796875	0.57763671875	upper	../fonts/zerothre.ttf
2366.748	n/a	WORD	1183374	wordpools/wasnorm_wordpool.txt	LTP089	ltpFR	8	10	1	LINT	826	n/a	0	n/a	0	0	0	1	0.412841796875	0.57763671875	upper	../fonts/zerothre.ttf
2370.73	n/a	WORD	1185365	wordpools/wasnorm_wordpool.txt	LTP089	ltpFR	8	10	1	PARROT	1015	n/a	1	n/a	0	0	0	1	0.412841796875	0.57763671875	upper	../fonts/zerothre.ttf
2374.83	n/a	WORD	1187415	wordpools/wasnorm_wordpool.txt	LTP089	ltpFR	8	10	1	CROW	414	n/a	1	n/a	0	0	0	1	0.412841796875	0.57763671875	upper	../fonts/zerothre.ttf
2379.014	n/a	WORD	1189507	wordpools/wasnorm_wordpool.txt	LTP089	ltpFR	8	10	1	GROCERY	664	n/a	1	n/a	0	0	0	1	0.412841796875	0.57763671875	upper	../fonts/zerothre.ttf
2382.946	n/a	WORD	1191473	wordpools/wasnorm_wordpool.txt	LTP089	ltpFR	8	10	1	LILY	821	n/a	0	n/a	0	0	0	1	0.412841796875	0.57763671875	upper	../fonts/zerothre.ttf
2387.106	n/a	WORD	1193553	wordpools/wasnorm_wordpool.txt	LTP089	ltpFR	8	10	0	LAPEL	800	n/a	0	n/a	0	0	0	0	0.5869140625	0.422607421875	lower	../fonts/amplitud.ttf
2391.096	n/a	WORD	1195548	wordpools/wasnorm_wordpool.txt	LTP089	ltpFR	8	10	0	DILL	465	n/a	0	n/a	0	0	0	0	0.5869140625	0.422607421875	lower	../fonts/amplitud.ttf
2395.014	n/a	WORD	1197507	wordpools/wasnorm_wordpool.txt	LTP089	ltpFR	8	10	1	TOAD	1470	n/a	3	n/a	0	0	0	1	0.412841796875	0.57763671875	upper	../fonts/zerothre.ttf
2396.014	n/a	KEY_MSG	1198007	n/a	LTP089	ltpFR	8	10	n/a	n/a	n/a	n/a	n/a	n/a	0	0	0	n/a	n/a	n/a	n/a	n/a
2398.946	n/a	WORD	1199473	wordpools/wasnorm_wordpool.txt	LTP089	ltpFR	8	10	1	BIOLOGIST	128	n/a	1	n/a	0	0	0	1	0.412841796875	0.57763671875	upper	../fonts/zerothre.ttf
2402.83	n/a	WORD	1201415	wordpools/wasnorm_wordpool.txt	LTP089	ltpFR	8	10	0	LAVA	804	n/a	0	n/a	0	0	0	0	0.5869140625	0.422607421875	lower	../fonts/amplitud.ttf
2406.78	n/a	WORD	1203390	wordpools/wasnorm_wordpool.txt	LTP089	ltpFR	8	10	0	JOURNAL	760	n/a	0	n/a	0	0	0	0	0.5869140625	0.422607421875	lower	../fonts/amplitud.ttf
2410.788	n/a	WORD	1205394	wordpools/wasnorm_wordpool.txt	LTP089	ltpFR	8	10	0	PLANT	1083	n/a	0	n/a	0	0	0	0	0.5869140625	0.422607421875	lower	../fonts/amplitud.ttf
2413.796	n/a	START	1206898	n/a	LTP089	ltpFR	8	n/a	n/a	n/a	n/a	n/a	n/a	n/a	n/a	n/a	n/a	n/a	n/a	n/a	n/a	n/a
2414.972	n/a	PROB	1207486	n/a	LTP089	ltpFR	8	n/a	n/a	n/a	n/a	n/a	n/a	13	8	2	3	n/a	n/a	n/a	n/a	n/a
2416.938	n/a	PROB	1208469	n/a	LTP089	ltpFR	8	n/a	n/a	n/a	n/a	n/a	n/a	15	6	7	2	n/a	n/a	n/a	n/a	n/a
2419.722	n/a	PROB	1209861	n/a	LTP089	ltpFR	8	n/a	n/a	n/a	n/a	n/a	n/a	18	9	5	7	n/a	n/a	n/a	n/a	n/a
2422.612	n/a	PROB	1211306	n/a	LTP089	ltpFR	8	n/a	n/a	n/a	n/a	n/a	n/a	13	5	4	4	n/a	n/a	n/a	n/a	n/a
2424.938	n/a	PROB	1212469	n/a	LTP089	ltpFR	8	n/a	n/a	n/a	n/a	n/a	n/a	8	2	5	1	n/a	n/a	n/a	n/a	n/a
2428.576	n/a	STOP	1214288	n/a	LTP089	ltpFR	8	n/a	n/a	n/a	n/a	n/a	n/a	n/a	n/a	n/a	n/a	n/a	n/a	n/a	n/a	n/a
2431.688	n/a	REC_START	1215844	n/a	LTP089	ltpFR	8	10	n/a	n/a	n/a	n/a	n/a	n/a	0	0	0	n/a	n/a	n/a	n/a	n/a
2434.422	n/a	REC_WORD	1217211	wordpools/wasnorm_wordpool.txt	LTP089	ltpFR	8	10	1	BIOLOGIST	128	n/a	1	n/a	0	0	0	n/a	n/a	n/a	n/a	n/a
2435.286	n/a	REC_WORD	1217643	wordpools/wasnorm_wordpool.txt	LTP089	ltpFR	8	10	1	TOAD	1470	n/a	3	n/a	0	0	0	n/a	n/a	n/a	n/a	n/a
2436.492	n/a	REC_WORD	1218246	wordpools/wasnorm_wordpool.txt	LTP089	ltpFR	8	10	1	LILY	821	n/a	0	n/a	0	0	0	n/a	n/a	n/a	n/a	n/a
2437.49	n/a	REC_WORD	1218745	wordpools/wasnorm_wordpool.txt	LTP089	ltpFR	8	10	0	LAPEL	800	n/a	0	n/a	0	0	0	n/a	n/a	n/a	n/a	n/a
2438.428	n/a	REC_WORD	1219214	wordpools/wasnorm_wordpool.txt	LTP089	ltpFR	8	10	1	PARROT	1015	n/a	1	n/a	0	0	0	n/a	n/a	n/a	n/a	n/a
2440.0	n/a	REC_WORD	1220000	wordpools/wasnorm_wordpool.txt	LTP089	ltpFR	8	10	1	CROW	414	n/a	1	n/a	0	0	0	n/a	n/a	n/a	n/a	n/a
2466.844	n/a	REC_WORD_VV	1233422	wordpools/wasnorm_wordpool.txt	LTP089	ltpFR	8	10	n/a	<>	-1	n/a	n/a	n/a	0	0	0	n/a	n/a	n/a	n/a	n/a
2507.294	n/a	REST_REWET	1253647	n/a	LTP089	ltpFR	8	10	n/a	n/a	n/a	n/a	n/a	n/a	0	0	0	n/a	n/a	n/a	n/a	n/a
2992.05	n/a	START	1496025	n/a	LTP089	ltpFR	8	n/a	n/a	n/a	n/a	n/a	n/a	n/a	n/a	n/a	n/a	n/a	n/a	n/a	n/a	n/a
2993.556	n/a	PROB	1496778	n/a	LTP089	ltpFR	8	n/a	n/a	n/a	n/a	n/a	n/a	19	9	3	6	n/a	n/a	n/a	n/a	n/a
2997.406	n/a	PROB	1498703	n/a	LTP089	ltpFR	8	n/a	n/a	n/a	n/a	n/a	n/a	10	4	1	5	n/a	n/a	n/a	n/a	n/a
2999.464	n/a	PROB	1499732	n/a	LTP089	ltpFR	8	n/a	n/a	n/a	n/a	n/a	n/a	17	1	9	7	n/a	n/a	n/a	n/a	n/a
3001.248	n/a	PROB	1500624	n/a	LTP089	ltpFR	8	n/a	n/a	n/a	n/a	n/a	n/a	17	3	9	5	n/a	n/a	n/a	n/a	n/a
3003.972	n/a	PROB	1501986	n/a	LTP089	ltpFR	8	n/a	n/a	n/a	n/a	n/a	n/a	9	1	6	2	n/a	n/a	n/a	n/a	n/a
3008.048	n/a	STOP	1504024	n/a	LTP089	ltpFR	8	n/a	n/a	n/a	n/a	n/a	n/a	n/a	n/a	n/a	n/a	n/a	n/a	n/a	n/a	n/a
3009.072	n/a	WORD	1504536	wordpools/wasnorm_wordpool.txt	LTP089	ltpFR	8	11	1	BADGE	68	n/a	2	n/a	0	0	0	1	0.412841796875	0.57763671875	upper	../fonts/zerothre.ttf
3009.998	n/a	KEY_MSG	1504999	n/a	LTP089	ltpFR	8	11	n/a	n/a	n/a	n/a	n/a	n/a	0	0	0	n/a	n/a	n/a	n/a	n/a
3012.082	n/a	START	1506041	n/a	LTP089	ltpFR	8	n/a	n/a	n/a	n/a	n/a	n/a	n/a	n/a	n/a	n/a	n/a	n/a	n/a	n/a	n/a
3013.04	n/a	PROB	1506520	n/a	LTP089	ltpFR	8	n/a	n/a	n/a	n/a	n/a	n/a	14	3	7	4	n/a	n/a	n/a	n/a	n/a
3014.482	n/a	PROB	1507241	n/a	LTP089	ltpFR	8	n/a	n/a	n/a	n/a	n/a	n/a	12	7	4	1	n/a	n/a	n/a	n/a	n/a
3016.84	n/a	PROB	1508420	n/a	LTP089	ltpFR	8	n/a	n/a	n/a	n/a	n/a	n/a	2	8	9	6	n/a	n/a	n/a	n/a	n/a
3022.722	n/a	PROB	1511361	n/a	LTP089	ltpFR	8	n/a	n/a	n/a	n/a	n/a	n/a	17	3	5	9	n/a	n/a	n/a	n/a	n/a
3027.52	n/a	STOP	1513760	n/a	LTP089	ltpFR	8	n/a	n/a	n/a	n/a	n/a	n/a	n/a	n/a	n/a	n/a	n/a	n/a	n/a	n/a	n/a
3029.056	n/a	WORD	1514528	wordpools/wasnorm_wordpool.txt	LTP089	ltpFR	8	11	1	PUB	1135	n/a	0	n/a	0	0	0	1	0.412841796875	0.57763671875	upper	../fonts/zerothre.ttf
3032.064	n/a	START	1516032	n/a	LTP089	ltpFR	8	n/a	n/a	n/a	n/a	n/a	n/a	n/a	n/a	n/a	n/a	n/a	n/a	n/a	n/a	n/a
3033.022	n/a	PROB	1516511	n/a	LTP089	ltpFR	8	n/a	n/a	n/a	n/a	n/a	n/a	16	7	7	2	n/a	n/a	n/a	n/a	n/a
3035.23	n/a	PROB	1517615	n/a	LTP089	ltpFR	8	n/a	n/a	n/a	n/a	n/a	n/a	14	8	3	2	n/a	n/a	n/a	n/a	n/a
3037.256	n/a	PROB	1518628	n/a	LTP089	ltpFR	8	n/a	n/a	n/a	n/a	n/a	n/a	23	2	6	5	n/a	n/a	n/a	n/a	n/a
3040.922	n/a	PROB	1520461	n/a	LTP089	ltpFR	8	n/a	n/a	n/a	n/a	n/a	n/a	16	5	2	9	n/a	n/a	n/a	n/a	n/a
3048.066	n/a	STOP	1524033	n/a	LTP089	ltpFR	8	n/a	n/a	n/a	n/a	n/a	n/a	n/a	n/a	n/a	n/a	n/a	n/a	n/a	n/a	n/a
3049.238	n/a	WORD	1524619	wordpools/wasnorm_wordpool.txt	LTP089	ltpFR	8	11	1	DEPARTMENT	449	n/a	2	n/a	0	0	0	1	0.412841796875	0.57763671875	upper	../fonts/zerothre.ttf
3049.738	n/a	KEY_MSG	1524869	n/a	LTP089	ltpFR	8	11	n/a	n/a	n/a	n/a	n/a	n/a	0	0	0	n/a	n/a	n/a	n/a	n/a
3052.238	n/a	START	1526119	n/a	LTP089	ltpFR	8	n/a	n/a	n/a	n/a	n/a	n/a	n/a	n/a	n/a	n/a	n/a	n/a	n/a	n/a	n/a
3053.106	n/a	PROB	1526553	n/a	LTP089	ltpFR	8	n/a	n/a	n/a	n/a	n/a	n/a	13	8	2	3	n/a	n/a	n/a	n/a	n/a
3054.67	n/a	PROB	1527335	n/a	LTP089	ltpFR	8	n/a	n/a	n/a	n/a	n/a	n/a	11	5	3	3	n/a	n/a	n/a	n/a	n/a
3057.788	n/a	PROB	1528894	n/a	LTP089	ltpFR	8	n/a	n/a	n/a	n/a	n/a	n/a	18	5	6	7	n/a	n/a	n/a	n/a	n/a
3060.696	n/a	PROB	1530348	n/a	LTP089	ltpFR	8	n/a	n/a	n/a	n/a	n/a	n/a	10	6	1	3	n/a	n/a	n/a	n/a	n/a
3062.504	n/a	PROB	1531252	n/a	LTP089	ltpFR	8	n/a	n/a	n/a	n/a	n/a	n/a	10	3	1	6	n/a	n/a	n/a	n/a	n/a
3064.596	n/a	PROB	1532298	n/a	LTP089	ltpFR	8	n/a	n/a	n/a	n/a	n/a	n/a	21	9	7	5	n/a	n/a	n/a	n/a	n/a
3067.538	n/a	STOP	1533769	n/a	LTP089	ltpFR	8	n/a	n/a	n/a	n/a	n/a	n/a	n/a	n/a	n/a	n/a	n/a	n/a	n/a	n/a	n/a
3069.222	n/a	WORD	1534611	wordpools/wasnorm_wordpool.txt	LTP089	ltpFR	8	11	0	ASSISTANT	48	n/a	2	n/a	0	0	0	0	0.5869140625	0.422607421875	lower	../fonts/amplitud.ttf
3069.972	n/a	KEY_MSG	1534986	n/a	LTP089	ltpFR	8	11	n/a	n/a	n/a	n/a	n/a	n/a	0	0	0	n/a	n/a	n/a	n/a	n/a
3072.23	n/a	START	1536115	n/a	LTP089	ltpFR	8	n/a	n/a	n/a	n/a	n/a	n/a	n/a	n/a	n/a	n/a	n/a	n/a	n/a	n/a	n/a
3073.196	n/a	PROB	1536598	n/a	LTP089	ltpFR	8	n/a	n/a	n/a	n/a	n/a	n/a	14	1	9	4	n/a	n/a	n/a	n/a	n/a
3074.962	n/a	PROB	1537481	n/a	LTP089	ltpFR	8	n/a	n/a	n/a	n/a	n/a	n/a	7	1	1	5	n/a	n/a	n/a	n/a	n/a
3076.504	n/a	PROB	1538252	n/a	LTP089	ltpFR	8	n/a	n/a	n/a	n/a	n/a	n/a	16	5	5	6	n/a	n/a	n/a	n/a	n/a
3079.48	n/a	PROB	1539740	n/a	LTP089	ltpFR	8	n/a	n/a	n/a	n/a	n/a	n/a	19	8	8	3	n/a	n/a	n/a	n/a	n/a
3082.212	n/a	PROB	1541106	n/a	LTP089	ltpFR	8	n/a	n/a	n/a	n/a	n/a	n/a	15	5	7	3	n/a	n/a	n/a	n/a	n/a
3085.796	n/a	PROB	1542898	n/a	LTP089	ltpFR	8	n/a	n/a	n/a	n/a	n/a	n/a	4	1	2	1	n/a	n/a	n/a	n/a	n/a
3087.268	n/a	STOP	1543634	n/a	LTP089	ltpFR	8	n/a	n/a	n/a	n/a	n/a	n/a	n/a	n/a	n/a	n/a	n/a	n/a	n/a	n/a	n/a
3089.438	n/a	WORD	1544719	wordpools/wasnorm_wordpool.txt	LTP089	ltpFR	8	11	0	POLICE	1098	n/a	2	n/a	0	0	0	0	0.5869140625	0.422607421875	lower	../fonts/amplitud.ttf
3089.962	n/a	KEY_MSG	1544981	n/a	LTP089	ltpFR	8	11	n/a	n/a	n/a	n/a	n/a	n/a	0	0	0	n/a	n/a	n/a	n/a	n/a
3092.446	n/a	START	1546223	n/a	LTP089	ltpFR	8	n/a	n/a	n/a	n/a	n/a	n/a	n/a	n/a	n/a	n/a	n/a	n/a	n/a	n/a	n/a
3093.538	n/a	PROB	1546769	n/a	LTP089	ltpFR	8	n/a	n/a	n/a	n/a	n/a	n/a	20	6	6	8	n/a	n/a	n/a	n/a	n/a
3095.42	n/a	PROB	1547710	n/a	LTP089	ltpFR	8	n/a	n/a	n/a	n/a	n/a	n/a	20	5	6	9	n/a	n/a	n/a	n/a	n/a
3101.528	n/a	PROB	1550764	n/a	LTP089	ltpFR	8	n/a	n/a	n/a	n/a	n/a	n/a	23	8	6	9	n/a	n/a	n/a	n/a	n/a
3108.348	n/a	STOP	1554174	n/a	LTP089	ltpFR	8	n/a	n/a	n/a	n/a	n/a	n/a	n/a	n/a	n/a	n/a	n/a	n/a	n/a	n/a	n/a
3109.596	n/a	WORD	1554798	wordpools/wasnorm_wordpool.txt	LTP089	ltpFR	8	11	0	PAPER	1011	n/a	0	n/a	0	0	0	0	0.5869140625	0.422607421875	lower	../fonts/amplitud.ttf
3112.604	n/a	START	1556302	n/a	LTP089	ltpFR	8	n/a	n/a	n/a	n/a	n/a	n/a	n/a	n/a	n/a	n/a	n/a	n/a	n/a	n/a	n/a
3113.754	n/a	PROB	1556877	n/a	LTP089	ltpFR	8	n/a	n/a	n/a	n/a	n/a	n/a	23	9	6	8	n/a	n/a	n/a	n/a	n/a
3120.854	n/a	PROB	1560427	n/a	LTP089	ltpFR	8	n/a	n/a	n/a	n/a	n/a	n/a	18	2	8	8	n/a	n/a	n/a	n/a	n/a
3128.606	n/a	STOP	1564303	n/a	LTP089	ltpFR	8	n/a	n/a	n/a	n/a	n/a	n/a	n/a	n/a	n/a	n/a	n/a	n/a	n/a	n/a	n/a
3129.712	n/a	WORD	1564856	wordpools/wasnorm_wordpool.txt	LTP089	ltpFR	8	11	0	DOCUMENT	479	n/a	0	n/a	0	0	0	0	0.5869140625	0.422607421875	lower	../fonts/amplitud.ttf
3132.72	n/a	START	1566360	n/a	LTP089	ltpFR	8	n/a	n/a	n/a	n/a	n/a	n/a	n/a	n/a	n/a	n/a	n/a	n/a	n/a	n/a	n/a
3133.92	n/a	PROB	1566960	n/a	LTP089	ltpFR	8	n/a	n/a	n/a	n/a	n/a	n/a	20	9	8	3	n/a	n/a	n/a	n/a	n/a
3137.044	n/a	PROB	1568522	n/a	LTP089	ltpFR	8	n/a	n/a	n/a	n/a	n/a	n/a	14	3	5	6	n/a	n/a	n/a	n/a	n/a
3141.202	n/a	PROB	1570601	n/a	LTP089	ltpFR	8	n/a	n/a	n/a	n/a	n/a	n/a	19	5	7	7	n/a	n/a	n/a	n/a	n/a
3148.722	n/a	STOP	1574361	n/a	LTP089	ltpFR	8	n/a	n/a	n/a	n/a	n/a	n/a	n/a	n/a	n/a	n/a	n/a	n/a	n/a	n/a	n/a
3149.744	n/a	WORD	1574872	wordpools/wasnorm_wordpool.txt	LTP089	ltpFR	8	11	1	COBBLER	335	n/a	2	n/a	0	0	0	1	0.412841796875	0.57763671875	upper	../fonts/zerothre.ttf
3150.794	n/a	KEY_MSG	1575397	n/a	LTP089	ltpFR	8	11	n/a	n/a	n/a	n/a	n/a	n/a	0	0	0	n/a	n/a	n/a	n/a	n/a
3152.752	n/a	START	1576376	n/a	LTP089	ltpFR	8	n/a	n/a	n/a	n/a	n/a	n/a	n/a	n/a	n/a	n/a	n/a	n/a	n/a	n/a	n/a
3153.668	n/a	PROB	1576834	n/a	LTP089	ltpFR	8	n/a	n/a	n/a	n/a	n/a	n/a	17	6	5	6	n/a	n/a	n/a	n/a	n/a
3157.794	n/a	PROB	1578897	n/a	LTP089	ltpFR	8	n/a	n/a	n/a	n/a	n/a	n/a	19	9	2	8	n/a	n/a	n/a	n/a	n/a
3160.626	n/a	PROB	1580313	n/a	LTP089	ltpFR	8	n/a	n/a	n/a	n/a	n/a	n/a	20	8	4	8	n/a	n/a	n/a	n/a	n/a
3162.776	n/a	PROB	1581388	n/a	LTP089	ltpFR	8	n/a	n/a	n/a	n/a	n/a	n/a	12	4	2	6	n/a	n/a	n/a	n/a	n/a
3164.82	n/a	PROB	1582410	n/a	LTP089	ltpFR	8	n/a	n/a	n/a	n/a	n/a	n/a	11	3	4	4	n/a	n/a	n/a	n/a	n/a
3166.986	n/a	PROB	1583493	n/a	LTP089	ltpFR	8	n/a	n/a	n/a	n/a	n/a	n/a	147	3	7	4	n/a	n/a	n/a	n/a	n/a
3168.584	n/a	STOP	1584292	n/a	LTP089	ltpFR	8	n/a	n/a	n/a	n/a	n/a	n/a	n/a	n/a	n/a	n/a	n/a	n/a	n/a	n/a	n/a
3169.918	n/a	WORD	1584959	wordpools/wasnorm_wordpool.txt	LTP089	ltpFR	8	11	1	KITTEN	780	n/a	0	n/a	0	0	0	1	0.412841796875	0.57763671875	upper	../fonts/zerothre.ttf
3172.918	n/a	START	1586459	n/a	LTP089	ltpFR	8	n/a	n/a	n/a	n/a	n/a	n/a	n/a	n/a	n/a	n/a	n/a	n/a	n/a	n/a	n/a
3173.776	n/a	PROB	1586888	n/a	LTP089	ltpFR	8	n/a	n/a	n/a	n/a	n/a	n/a	20	7	4	9	n/a	n/a	n/a	n/a	n/a
3176.094	n/a	PROB	1588047	n/a	LTP089	ltpFR	8	n/a	n/a	n/a	n/a	n/a	n/a	12	4	4	4	n/a	n/a	n/a	n/a	n/a
3177.658	n/a	PROB	1588829	n/a	LTP089	ltpFR	8	n/a	n/a	n/a	n/a	n/a	n/a	10	5	4	1	n/a	n/a	n/a	n/a	n/a
3179.692	n/a	PROB	1589846	n/a	LTP089	ltpFR	8	n/a	n/a	n/a	n/a	n/a	n/a	15	3	9	3	n/a	n/a	n/a	n/a	n/a
3183.036	n/a	PROB	1591518	n/a	LTP089	ltpFR	8	n/a	n/a	n/a	n/a	n/a	n/a	20	6	9	5	n/a	n/a	n/a	n/a	n/a
3188.92	n/a	STOP	1594460	n/a	LTP089	ltpFR	8	n/a	n/a	n/a	n/a	n/a	n/a	n/a	n/a	n/a	n/a	n/a	n/a	n/a	n/a	n/a
3190.094	n/a	WORD	1595047	wordpools/wasnorm_wordpool.txt	LTP089	ltpFR	8	11	1	BED	110	n/a	0	n/a	0	0	0	1	0.412841796875	0.57763671875	upper	../fonts/zerothre.ttf
3193.102	n/a	START	1596551	n/a	LTP089	ltpFR	8	n/a	n/a	n/a	n/a	n/a	n/a	n/a	n/a	n/a	n/a	n/a	n/a	n/a	n/a	n/a
3194.034	n/a	PROB	1597017	n/a	LTP089	ltpFR	8	n/a	n/a	n/a	n/a	n/a	n/a	20	7	9	4	n/a	n/a	n/a	n/a	n/a
3196.492	n/a	PROB	1598246	n/a	LTP089	ltpFR	8	n/a	n/a	n/a	n/a	n/a	n/a	20	8	7	5	n/a	n/a	n/a	n/a	n/a
3199.1	n/a	PROB	1599550	n/a	LTP089	ltpFR	8	n/a	n/a	n/a	n/a	n/a	n/a	11	1	6	4	n/a	n/a	n/a	n/a	n/a
3200.768	n/a	PROB	1600384	n/a	LTP089	ltpFR	8	n/a	n/a	n/a	n/a	n/a	n/a	11	2	1	8	n/a	n/a	n/a	n/a	n/a
3203.094	n/a	PROB	1601547	n/a	LTP089	ltpFR	8	n/a	n/a	n/a	n/a	n/a	n/a	12	1	5	6	n/a	n/a	n/a	n/a	n/a
3205.376	n/a	PROB	1602688	n/a	LTP089	ltpFR	8	n/a	n/a	n/a	n/a	n/a	n/a	21	9	6	6	n/a	n/a	n/a	n/a	n/a
3208.618	n/a	STOP	1604309	n/a	LTP089	ltpFR	8	n/a	n/a	n/a	n/a	n/a	n/a	n/a	n/a	n/a	n/a	n/a	n/a	n/a	n/a	n/a
3210.126	n/a	WORD	1605063	wordpools/wasnorm_wordpool.txt	LTP089	ltpFR	8	11	1	QUILT	1151	n/a	0	n/a	0	0	0	1	0.412841796875	0.57763671875	upper	../fonts/zerothre.ttf
3213.134	n/a	START	1606567	n/a	LTP089	ltpFR	8	n/a	n/a	n/a	n/a	n/a	n/a	n/a	n/a	n/a	n/a	n/a	n/a	n/a	n/a	n/a
3214.134	n/a	PROB	1607067	n/a	LTP089	ltpFR	8	n/a	n/a	n/a	n/a	n/a	n/a	8	1	4	3	n/a	n/a	n/a	n/a	n/a
3217.192	n/a	PROB	1608596	n/a	LTP089	ltpFR	8	n/a	n/a	n/a	n/a	n/a	n/a	23	8	9	5	n/a	n/a	n/a	n/a	n/a
3221.684	n/a	PROB	1610842	n/a	LTP089	ltpFR	8	n/a	n/a	n/a	n/a	n/a	n/a	21	6	9	6	n/a	n/a	n/a	n/a	n/a
3228.706	n/a	STOP	1614353	n/a	LTP089	ltpFR	8	n/a	n/a	n/a	n/a	n/a	n/a	n/a	n/a	n/a	n/a	n/a	n/a	n/a	n/a	n/a
3230.318	n/a	WORD	1615159	wordpools/wasnorm_wordpool.txt	LTP089	ltpFR	8	11	1	FIGHTER	564	n/a	0	n/a	0	0	0	1	0.412841796875	0.57763671875	upper	../fonts/zerothre.ttf
3233.326	n/a	START	1616663	n/a	LTP089	ltpFR	8	n/a	n/a	n/a	n/a	n/a	n/a	n/a	n/a	n/a	n/a	n/a	n/a	n/a	n/a	n/a
3234.308	n/a	PROB	1617154	n/a	LTP089	ltpFR	8	n/a	n/a	n/a	n/a	n/a	n/a	21	8	6	7	n/a	n/a	n/a	n/a	n/a
3238.484	n/a	PROB	1619242	n/a	LTP089	ltpFR	8	n/a	n/a	n/a	n/a	n/a	n/a	15	8	3	4	n/a	n/a	n/a	n/a	n/a
3241.4	n/a	PROB	1620700	n/a	LTP089	ltpFR	8	n/a	n/a	n/a	n/a	n/a	n/a	20	6	8	6	n/a	n/a	n/a	n/a	n/a
3244.642	n/a	PROB	1622321	n/a	LTP089	ltpFR	8	n/a	n/a	n/a	n/a	n/a	n/a	9	4	5	4	n/a	n/a	n/a	n/a	n/a
3249.326	n/a	STOP	1624663	n/a	LTP089	ltpFR	8	n/a	n/a	n/a	n/a	n/a	n/a	n/a	n/a	n/a	n/a	n/a	n/a	n/a	n/a	n/a
3250.376	n/a	WORD	1625188	wordpools/wasnorm_wordpool.txt	LTP089	ltpFR	8	11	0	FOLLOWER	589	n/a	2	n/a	0	0	0	0	0.5869140625	0.422607421875	lower	../fonts/amplitud.ttf
3250.682	n/a	KEY_MSG	1625341	n/a	LTP089	ltpFR	8	11	n/a	n/a	n/a	n/a	n/a	n/a	0	0	0	n/a	n/a	n/a	n/a	n/a
3253.384	n/a	START	1626692	n/a	LTP089	ltpFR	8	n/a	n/a	n/a	n/a	n/a	n/a	n/a	n/a	n/a	n/a	n/a	n/a	n/a	n/a	n/a
3254.566	n/a	PROB	1627283	n/a	LTP089	ltpFR	8	n/a	n/a	n/a	n/a	n/a	n/a	16	5	8	3	n/a	n/a	n/a	n/a	n/a
3257.2	n/a	PROB	1628600	n/a	LTP089	ltpFR	8	n/a	n/a	n/a	n/a	n/a	n/a	23	4	9	9	n/a	n/a	n/a	n/a	n/a
3261.458	n/a	PROB	1630729	n/a	LTP089	ltpFR	8	n/a	n/a	n/a	n/a	n/a	n/a	8	1	6	1	n/a	n/a	n/a	n/a	n/a
3263.4	n/a	PROB	1631700	n/a	LTP089	ltpFR	8	n/a	n/a	n/a	n/a	n/a	n/a	17	5	8	5	n/a	n/a	n/a	n/a	n/a
3267.852	n/a	STOP	1633926	n/a	LTP089	ltpFR	8	n/a	n/a	n/a	n/a	n/a	n/a	n/a	n/a	n/a	n/a	n/a	n/a	n/a	n/a	n/a
3270.366	n/a	WORD	1635183	wordpools/wasnorm_wordpool.txt	LTP089	ltpFR	8	11	0	FLASK	576	n/a	0	n/a	0	0	0	0	0.5869140625	0.422607421875	lower	../fonts/amplitud.ttf
3273.374	n/a	START	1636687	n/a	LTP089	ltpFR	8	n/a	n/a	n/a	n/a	n/a	n/a	n/a	n/a	n/a	n/a	n/a	n/a	n/a	n/a	n/a
3274.466	n/a	PROB	1637233	n/a	LTP089	ltpFR	8	n/a	n/a	n/a	n/a	n/a	n/a	12	3	5	4	n/a	n/a	n/a	n/a	n/a
3277.848	n/a	PROB	1638924	n/a	LTP089	ltpFR	8	n/a	n/a	n/a	n/a	n/a	n/a	16	4	6	6	n/a	n/a	n/a	n/a	n/a
3279.774	n/a	PROB	1639887	n/a	LTP089	ltpFR	8	n/a	n/a	n/a	n/a	n/a	n/a	10	3	2	5	n/a	n/a	n/a	n/a	n/a
3281.724	n/a	PROB	1640862	n/a	LTP089	ltpFR	8	n/a	n/a	n/a	n/a	n/a	n/a	14	1	6	7	n/a	n/a	n/a	n/a	n/a
3283.742	n/a	PROB	1641871	n/a	LTP089	ltpFR	8	n/a	n/a	n/a	n/a	n/a	n/a	18	5	5	8	n/a	n/a	n/a	n/a	n/a
3285.592	n/a	PROB	1642796	n/a	LTP089	ltpFR	8	n/a	n/a	n/a	n/a	n/a	n/a	13	3	3	7	n/a	n/a	n/a	n/a	n/a
3287.15	n/a	PROB	1643575	n/a	LTP089	ltpFR	8	n/a	n/a	n/a	n/a	n/a	n/a	10	4	2	4	n/a	n/a	n/a	n/a	n/a
3289.142	n/a	STOP	1644571	n/a	LTP089	ltpFR	8	n/a	n/a	n/a	n/a	n/a	n/a	n/a	n/a	n/a	n/a	n/a	n/a	n/a	n/a	n/a
3290.282	n/a	WORD	1645141	wordpools/wasnorm_wordpool.txt	LTP089	ltpFR	8	11	0	FLOOR	581	n/a	0	n/a	0	0	0	0	0.5869140625	0.422607421875	lower	../fonts/amplitud.ttf
3293.29	n/a	START	1646645	n/a	LTP089	ltpFR	8	n/a	n/a	n/a	n/a	n/a	n/a	n/a	n/a	n/a	n/a	n/a	n/a	n/a	n/a	n/a
3294.132	n/a	PROB	1647066	n/a	LTP089	ltpFR	8	n/a	n/a	n/a	n/a	n/a	n/a	9	3	1	5	n/a	n/a	n/a	n/a	n/a
3296.032	n/a	PROB	1648016	n/a	LTP089	ltpFR	8	n/a	n/a	n/a	n/a	n/a	n/a	21	5	7	9	n/a	n/a	n/a	n/a	n/a
3299.608	n/a	PROB	1649804	n/a	LTP089	ltpFR	8	n/a	n/a	n/a	n/a	n/a	n/a	12	7	1	5	n/a	n/a	n/a	n/a	n/a
3302.5	n/a	PROB	1651250	n/a	LTP089	ltpFR	8	n/a	n/a	n/a	n/a	n/a	n/a	16	2	8	6	n/a	n/a	n/a	n/a	n/a
3304.074	n/a	PROB	1652037	n/a	LTP089	ltpFR	8	n/a	n/a	n/a	n/a	n/a	n/a	15	9	4	2	n/a	n/a	n/a	n/a	n/a
3308.39	n/a	STOP	1654195	n/a	LTP089	ltpFR	8	n/a	n/a	n/a	n/a	n/a	n/a	n/a	n/a	n/a	n/a	n/a	n/a	n/a	n/a	n/a
3310.132	n/a	WORD	1655066	wordpools/wasnorm_wordpool.txt	LTP089	ltpFR	8	11	0	EMPLOYEE	531	n/a	0	n/a	0	0	0	0	0.5869140625	0.422607421875	lower	../fonts/amplitud.ttf
3313.14	n/a	START	1656570	n/a	LTP089	ltpFR	8	n/a	n/a	n/a	n/a	n/a	n/a	n/a	n/a	n/a	n/a	n/a	n/a	n/a	n/a	n/a
3314.214	n/a	PROB	1657107	n/a	LTP089	ltpFR	8	n/a	n/a	n/a	n/a	n/a	n/a	18	7	2	9	n/a	n/a	n/a	n/a	n/a
3317.816	n/a	PROB	1658908	n/a	LTP089	ltpFR	8	n/a	n/a	n/a	n/a	n/a	n/a	16	5	9	2	n/a	n/a	n/a	n/a	n/a
3320.99	n/a	PROB	1660495	n/a	LTP089	ltpFR	8	n/a	n/a	n/a	n/a	n/a	n/a	18	8	2	8	n/a	n/a	n/a	n/a	n/a
3323.856	n/a	PROB	1661928	n/a	LTP089	ltpFR	8	n/a	n/a	n/a	n/a	n/a	n/a	2	3	4	6	n/a	n/a	n/a	n/a	n/a
3327.936	n/a	STOP	1663968	n/a	LTP089	ltpFR	8	n/a	n/a	n/a	n/a	n/a	n/a	n/a	n/a	n/a	n/a	n/a	n/a	n/a	n/a	n/a
3331.032	n/a	REC_START	1665516	n/a	LTP089	ltpFR	8	11	n/a	n/a	n/a	n/a	n/a	n/a	0	0	0	n/a	n/a	n/a	n/a	n/a
3336.274	n/a	REC_WORD_VV	1668137	wordpools/wasnorm_wordpool.txt	LTP089	ltpFR	8	11	n/a	<>	-1	n/a	n/a	n/a	0	0	0	n/a	n/a	n/a	n/a	n/a
3337.274	n/a	REC_WORD_VV	1668637	wordpools/wasnorm_wordpool.txt	LTP089	ltpFR	8	11	n/a	<>	-1	n/a	n/a	n/a	0	0	0	n/a	n/a	n/a	n/a	n/a
3338.274	n/a	REC_WORD_VV	1669137	wordpools/wasnorm_wordpool.txt	LTP089	ltpFR	8	11	n/a	<>	-1	n/a	n/a	n/a	0	0	0	n/a	n/a	n/a	n/a	n/a
3339.274	n/a	REC_WORD_VV	1669637	wordpools/wasnorm_wordpool.txt	LTP089	ltpFR	8	11	n/a	<>	-1	n/a	n/a	n/a	0	0	0	n/a	n/a	n/a	n/a	n/a
3340.274	n/a	REC_WORD_VV	1670137	wordpools/wasnorm_wordpool.txt	LTP089	ltpFR	8	11	n/a	<>	-1	n/a	n/a	n/a	0	0	0	n/a	n/a	n/a	n/a	n/a
3350.02	n/a	REC_WORD	1675010	wordpools/wasnorm_wordpool.txt	LTP089	ltpFR	8	11	1	KITTEN	780	n/a	0	n/a	0	0	0	n/a	n/a	n/a	n/a	n/a
3422.446	n/a	START	1711223	n/a	LTP089	ltpFR	8	n/a	n/a	n/a	n/a	n/a	n/a	n/a	n/a	n/a	n/a	n/a	n/a	n/a	n/a	n/a
3423.954	n/a	PROB	1711977	n/a	LTP089	ltpFR	8	n/a	n/a	n/a	n/a	n/a	n/a	12	2	6	4	n/a	n/a	n/a	n/a	n/a
3425.878	n/a	PROB	1712939	n/a	LTP089	ltpFR	8	n/a	n/a	n/a	n/a	n/a	n/a	25	9	8	8	n/a	n/a	n/a	n/a	n/a
3429.58	n/a	STOP	1714790	n/a	LTP089	ltpFR	8	n/a	n/a	n/a	n/a	n/a	n/a	n/a	n/a	n/a	n/a	n/a	n/a	n/a	n/a	n/a
3431.612	n/a	WORD	1715806	wordpools/wasnorm_wordpool.txt	LTP089	ltpFR	8	12	1	PATH	1023	n/a	0	n/a	0	0	0	1	0.412841796875	0.57763671875	upper	../fonts/zerothre.ttf
3434.622	n/a	START	1717311	n/a	LTP089	ltpFR	8	n/a	n/a	n/a	n/a	n/a	n/a	n/a	n/a	n/a	n/a	n/a	n/a	n/a	n/a	n/a
3435.678	n/a	PROB	1717839	n/a	LTP089	ltpFR	8	n/a	n/a	n/a	n/a	n/a	n/a	16	7	5	4	n/a	n/a	n/a	n/a	n/a
3440.462	n/a	PROB	1720231	n/a	LTP089	ltpFR	8	n/a	n/a	n/a	n/a	n/a	n/a	5	1	6	1	n/a	n/a	n/a	n/a	n/a
3441.926	n/a	STOP	1720963	n/a	LTP089	ltpFR	8	n/a	n/a	n/a	n/a	n/a	n/a	n/a	n/a	n/a	n/a	n/a	n/a	n/a	n/a	n/a
3443.578	n/a	WORD	1721789	wordpools/wasnorm_wordpool.txt	LTP089	ltpFR	8	12	1	CALENDAR	221	n/a	0	n/a	0	0	0	1	0.412841796875	0.57763671875	upper	../fonts/zerothre.ttf
3446.588	n/a	START	1723294	n/a	LTP089	ltpFR	8	n/a	n/a	n/a	n/a	n/a	n/a	n/a	n/a	n/a	n/a	n/a	n/a	n/a	n/a	n/a
3447.528	n/a	PROB	1723764	n/a	LTP089	ltpFR	8	n/a	n/a	n/a	n/a	n/a	n/a	11	2	8	1	n/a	n/a	n/a	n/a	n/a
3449.786	n/a	PROB	1724893	n/a	LTP089	ltpFR	8	n/a	n/a	n/a	n/a	n/a	n/a	14	4	4	6	n/a	n/a	n/a	n/a	n/a
3454.588	n/a	STOP	1727294	n/a	LTP089	ltpFR	8	n/a	n/a	n/a	n/a	n/a	n/a	n/a	n/a	n/a	n/a	n/a	n/a	n/a	n/a	n/a
3455.746	n/a	WORD	1727873	wordpools/wasnorm_wordpool.txt	LTP089	ltpFR	8	12	0	MARGARINE	868	n/a	2	n/a	0	0	0	0	0.5869140625	0.422607421875	lower	../fonts/amplitud.ttf
3456.304	n/a	KEY_MSG	1728152	n/a	LTP089	ltpFR	8	12	n/a	n/a	n/a	n/a	n/a	n/a	0	0	0	n/a	n/a	n/a	n/a	n/a
3458.754	n/a	START	1729377	n/a	LTP089	ltpFR	8	n/a	n/a	n/a	n/a	n/a	n/a	n/a	n/a	n/a	n/a	n/a	n/a	n/a	n/a	n/a
3459.944	n/a	PROB	1729972	n/a	LTP089	ltpFR	8	n/a	n/a	n/a	n/a	n/a	n/a	18	7	3	8	n/a	n/a	n/a	n/a	n/a
3461.854	n/a	PROB	1730927	n/a	LTP089	ltpFR	8	n/a	n/a	n/a	n/a	n/a	n/a	11	3	5	3	n/a	n/a	n/a	n/a	n/a
3465.878	n/a	STOP	1732939	n/a	LTP089	ltpFR	8	n/a	n/a	n/a	n/a	n/a	n/a	n/a	n/a	n/a	n/a	n/a	n/a	n/a	n/a	n/a
3467.67	n/a	WORD	1733835	wordpools/wasnorm_wordpool.txt	LTP089	ltpFR	8	12	0	PEDESTRIAN	1038	n/a	0	n/a	0	0	0	0	0.5869140625	0.422607421875	lower	../fonts/amplitud.ttf
3470.676	n/a	START	1735338	n/a	LTP089	ltpFR	8	n/a	n/a	n/a	n/a	n/a	n/a	n/a	n/a	n/a	n/a	n/a	n/a	n/a	n/a	n/a
3471.686	n/a	PROB	1735843	n/a	LTP089	ltpFR	8	n/a	n/a	n/a	n/a	n/a	n/a	11	8	1	2	n/a	n/a	n/a	n/a	n/a
3473.536	n/a	PROB	1736768	n/a	LTP089	ltpFR	8	n/a	n/a	n/a	n/a	n/a	n/a	18	6	7	5	n/a	n/a	n/a	n/a	n/a
3478.676	n/a	STOP	1739338	n/a	LTP089	ltpFR	8	n/a	n/a	n/a	n/a	n/a	n/a	n/a	n/a	n/a	n/a	n/a	n/a	n/a	n/a	n/a
3479.552	n/a	WORD	1739776	wordpools/wasnorm_wordpool.txt	LTP089	ltpFR	8	12	0	SEAL	1262	n/a	0	n/a	0	0	0	0	0.5869140625	0.422607421875	lower	../fonts/amplitud.ttf
3482.562	n/a	START	1741281	n/a	LTP089	ltpFR	8	n/a	n/a	n/a	n/a	n/a	n/a	n/a	n/a	n/a	n/a	n/a	n/a	n/a	n/a	n/a
3483.552	n/a	PROB	1741776	n/a	LTP089	ltpFR	8	n/a	n/a	n/a	n/a	n/a	n/a	17	6	7	4	n/a	n/a	n/a	n/a	n/a
3490.562	n/a	STOP	1745281	n/a	LTP089	ltpFR	8	n/a	n/a	n/a	n/a	n/a	n/a	n/a	n/a	n/a	n/a	n/a	n/a	n/a	n/a	n/a
3491.662	n/a	WORD	1745831	wordpools/wasnorm_wordpool.txt	LTP089	ltpFR	8	12	0	CREATURE	403	n/a	0	n/a	0	0	0	0	0.5869140625	0.422607421875	lower	../fonts/amplitud.ttf
3494.67	n/a	START	1747335	n/a	LTP089	ltpFR	8	n/a	n/a	n/a	n/a	n/a	n/a	n/a	n/a	n/a	n/a	n/a	n/a	n/a	n/a	n/a
3495.52	n/a	PROB	1747760	n/a	LTP089	ltpFR	8	n/a	n/a	n/a	n/a	n/a	n/a	19	9	5	5	n/a	n/a	n/a	n/a	n/a
3499.068	n/a	PROB	1749534	n/a	LTP089	ltpFR	8	n/a	n/a	n/a	n/a	n/a	n/a	14	5	5	4	n/a	n/a	n/a	n/a	n/a
3501.408	n/a	STOP	1750704	n/a	LTP089	ltpFR	8	n/a	n/a	n/a	n/a	n/a	n/a	n/a	n/a	n/a	n/a	n/a	n/a	n/a	n/a	n/a
3503.86	n/a	WORD	1751930	wordpools/wasnorm_wordpool.txt	LTP089	ltpFR	8	12	1	STATUE	1374	n/a	2	n/a	0	0	0	1	0.412841796875	0.57763671875	upper	../fonts/zerothre.ttf
3504.336	n/a	KEY_MSG	1752168	n/a	LTP089	ltpFR	8	12	n/a	n/a	n/a	n/a	n/a	n/a	0	0	0	n/a	n/a	n/a	n/a	n/a
3506.868	n/a	START	1753434	n/a	LTP089	ltpFR	8	n/a	n/a	n/a	n/a	n/a	n/a	n/a	n/a	n/a	n/a	n/a	n/a	n/a	n/a	n/a
3507.7	n/a	PROB	1753850	n/a	LTP089	ltpFR	8	n/a	n/a	n/a	n/a	n/a	n/a	18	4	5	9	n/a	n/a	n/a	n/a	n/a
3510.278	n/a	PROB	1755139	n/a	LTP089	ltpFR	8	n/a	n/a	n/a	n/a	n/a	n/a	10	1	6	3	n/a	n/a	n/a	n/a	n/a
3512.402	n/a	PROB	1756201	n/a	LTP089	ltpFR	8	n/a	n/a	n/a	n/a	n/a	n/a	10	6	2	2	n/a	n/a	n/a	n/a	n/a
3514.13	n/a	STOP	1757065	n/a	LTP089	ltpFR	8	n/a	n/a	n/a	n/a	n/a	n/a	n/a	n/a	n/a	n/a	n/a	n/a	n/a	n/a	n/a
3516.01	n/a	WORD	1758005	wordpools/wasnorm_wordpool.txt	LTP089	ltpFR	8	12	1	METEOR	889	n/a	0	n/a	0	0	0	1	0.412841796875	0.57763671875	upper	../fonts/zerothre.ttf
3519.018	n/a	START	1759509	n/a	LTP089	ltpFR	8	n/a	n/a	n/a	n/a	n/a	n/a	n/a	n/a	n/a	n/a	n/a	n/a	n/a	n/a	n/a
3519.984	n/a	PROB	1759992	n/a	LTP089	ltpFR	8	n/a	n/a	n/a	n/a	n/a	n/a	13	5	7	4	n/a	n/a	n/a	n/a	n/a
3523.152	n/a	PROB	1761576	n/a	LTP089	ltpFR	8	n/a	n/a	n/a	n/a	n/a	n/a	15	1	5	9	n/a	n/a	n/a	n/a	n/a
3526.138	n/a	STOP	1763069	n/a	LTP089	ltpFR	8	n/a	n/a	n/a	n/a	n/a	n/a	n/a	n/a	n/a	n/a	n/a	n/a	n/a	n/a	n/a
3527.992	n/a	WORD	1763996	wordpools/wasnorm_wordpool.txt	LTP089	ltpFR	8	12	0	STONE	1385	n/a	2	n/a	0	0	0	0	0.5869140625	0.422607421875	lower	../fonts/amplitud.ttf
3528.518	n/a	KEY_MSG	1764259	n/a	LTP089	ltpFR	8	12	n/a	n/a	n/a	n/a	n/a	n/a	0	0	0	n/a	n/a	n/a	n/a	n/a
3531.002	n/a	START	1765501	n/a	LTP089	ltpFR	8	n/a	n/a	n/a	n/a	n/a	n/a	n/a	n/a	n/a	n/a	n/a	n/a	n/a	n/a	n/a
3531.918	n/a	PROB	1765959	n/a	LTP089	ltpFR	8	n/a	n/a	n/a	n/a	n/a	n/a	18	6	6	6	n/a	n/a	n/a	n/a	n/a
3533.784	n/a	PROB	1766892	n/a	LTP089	ltpFR	8	n/a	n/a	n/a	n/a	n/a	n/a	20	6	5	9	n/a	n/a	n/a	n/a	n/a
3537.914	n/a	STOP	1768957	n/a	LTP089	ltpFR	8	n/a	n/a	n/a	n/a	n/a	n/a	n/a	n/a	n/a	n/a	n/a	n/a	n/a	n/a	n/a
3539.934	n/a	WORD	1769967	wordpools/wasnorm_wordpool.txt	LTP089	ltpFR	8	12	0	ALMANAC	17	n/a	0	n/a	0	0	0	0	0.5869140625	0.422607421875	lower	../fonts/amplitud.ttf
3542.942	n/a	START	1771471	n/a	LTP089	ltpFR	8	n/a	n/a	n/a	n/a	n/a	n/a	n/a	n/a	n/a	n/a	n/a	n/a	n/a	n/a	n/a
3543.984	n/a	PROB	1771992	n/a	LTP089	ltpFR	8	n/a	n/a	n/a	n/a	n/a	n/a	23	9	6	8	n/a	n/a	n/a	n/a	n/a
3546.7	n/a	PROB	1773350	n/a	LTP089	ltpFR	8	n/a	n/a	n/a	n/a	n/a	n/a	8	1	2	5	n/a	n/a	n/a	n/a	n/a
3550.944	n/a	STOP	1775472	n/a	LTP089	ltpFR	8	n/a	n/a	n/a	n/a	n/a	n/a	n/a	n/a	n/a	n/a	n/a	n/a	n/a	n/a	n/a
3552.118	n/a	WORD	1776059	wordpools/wasnorm_wordpool.txt	LTP089	ltpFR	8	12	0	NOVEL	960	n/a	0	n/a	0	0	0	0	0.5869140625	0.422607421875	lower	../fonts/amplitud.ttf
3555.126	n/a	START	1777563	n/a	LTP089	ltpFR	8	n/a	n/a	n/a	n/a	n/a	n/a	n/a	n/a	n/a	n/a	n/a	n/a	n/a	n/a	n/a
3556.092	n/a	PROB	1778046	n/a	LTP089	ltpFR	8	n/a	n/a	n/a	n/a	n/a	n/a	16	4	8	4	n/a	n/a	n/a	n/a	n/a
3563.126	n/a	STOP	1781563	n/a	LTP089	ltpFR	8	n/a	n/a	n/a	n/a	n/a	n/a	n/a	n/a	n/a	n/a	n/a	n/a	n/a	n/a	n/a
3564.05	n/a	WORD	1782025	wordpools/wasnorm_wordpool.txt	LTP089	ltpFR	8	12	0	JUDGE	761	n/a	0	n/a	0	0	0	0	0.5869140625	0.422607421875	lower	../fonts/amplitud.ttf
3567.06	n/a	START	1783530	n/a	LTP089	ltpFR	8	n/a	n/a	n/a	n/a	n/a	n/a	n/a	n/a	n/a	n/a	n/a	n/a	n/a	n/a	n/a
3568.11	n/a	PROB	1784055	n/a	LTP089	ltpFR	8	n/a	n/a	n/a	n/a	n/a	n/a	11	2	3	6	n/a	n/a	n/a	n/a	n/a
3570.368	n/a	PROB	1785184	n/a	LTP089	ltpFR	8	n/a	n/a	n/a	n/a	n/a	n/a	18	5	5	8	n/a	n/a	n/a	n/a	n/a
3573.772	n/a	STOP	1786886	n/a	LTP089	ltpFR	8	n/a	n/a	n/a	n/a	n/a	n/a	n/a	n/a	n/a	n/a	n/a	n/a	n/a	n/a	n/a
3576.108	n/a	WORD	1788054	wordpools/wasnorm_wordpool.txt	LTP089	ltpFR	8	12	1	PANTHER	1009	n/a	2	n/a	0	0	0	1	0.412841796875	0.57763671875	upper	../fonts/zerothre.ttf
3576.842	n/a	KEY_MSG	1788421	n/a	LTP089	ltpFR	8	12	n/a	n/a	n/a	n/a	n/a	n/a	0	0	0	n/a	n/a	n/a	n/a	n/a
3579.118	n/a	START	1789559	n/a	LTP089	ltpFR	8	n/a	n/a	n/a	n/a	n/a	n/a	n/a	n/a	n/a	n/a	n/a	n/a	n/a	n/a	n/a
3580.024	n/a	PROB	1790012	n/a	LTP089	ltpFR	8	n/a	n/a	n/a	n/a	n/a	n/a	23	8	7	8	n/a	n/a	n/a	n/a	n/a
3583.624	n/a	PROB	1791812	n/a	LTP089	ltpFR	8	n/a	n/a	n/a	n/a	n/a	n/a	13	4	6	3	n/a	n/a	n/a	n/a	n/a
3585.908	n/a	STOP	1792954	n/a	LTP089	ltpFR	8	n/a	n/a	n/a	n/a	n/a	n/a	n/a	n/a	n/a	n/a	n/a	n/a	n/a	n/a	n/a
3588.176	n/a	WORD	1794088	wordpools/wasnorm_wordpool.txt	LTP089	ltpFR	8	12	1	SHRINE	1298	n/a	0	n/a	0	0	0	1	0.412841796875	0.57763671875	upper	../fonts/zerothre.ttf
3591.184	n/a	START	1795592	n/a	LTP089	ltpFR	8	n/a	n/a	n/a	n/a	n/a	n/a	n/a	n/a	n/a	n/a	n/a	n/a	n/a	n/a	n/a
3592.026	n/a	PROB	1796013	n/a	LTP089	ltpFR	8	n/a	n/a	n/a	n/a	n/a	n/a	17	7	3	7	n/a	n/a	n/a	n/a	n/a
3594.092	n/a	PROB	1797046	n/a	LTP089	ltpFR	8	n/a	n/a	n/a	n/a	n/a	n/a	15	4	2	9	n/a	n/a	n/a	n/a	n/a
3597.966	n/a	STOP	1798983	n/a	LTP089	ltpFR	8	n/a	n/a	n/a	n/a	n/a	n/a	n/a	n/a	n/a	n/a	n/a	n/a	n/a	n/a	n/a
3600.35	n/a	WORD	1800175	wordpools/wasnorm_wordpool.txt	LTP089	ltpFR	8	12	1	LAWYER	806	n/a	0	n/a	0	0	0	1	0.412841796875	0.57763671875	upper	../fonts/zerothre.ttf
3603.358	n/a	START	1801679	n/a	LTP089	ltpFR	8	n/a	n/a	n/a	n/a	n/a	n/a	n/a	n/a	n/a	n/a	n/a	n/a	n/a	n/a	n/a
3604.466	n/a	PROB	1802233	n/a	LTP089	ltpFR	8	n/a	n/a	n/a	n/a	n/a	n/a	16	3	5	8	n/a	n/a	n/a	n/a	n/a
3607.724	n/a	PROB	1803862	n/a	LTP089	ltpFR	8	n/a	n/a	n/a	n/a	n/a	n/a	13	2	5	6	n/a	n/a	n/a	n/a	n/a
3610.886	n/a	STOP	1805443	n/a	LTP089	ltpFR	8	n/a	n/a	n/a	n/a	n/a	n/a	n/a	n/a	n/a	n/a	n/a	n/a	n/a	n/a	n/a
3612.342	n/a	WORD	1806171	wordpools/wasnorm_wordpool.txt	LTP089	ltpFR	8	12	1	BANDANNA	80	n/a	0	n/a	0	0	0	1	0.412841796875	0.57763671875	upper	../fonts/zerothre.ttf
3615.35	n/a	START	1807675	n/a	LTP089	ltpFR	8	n/a	n/a	n/a	n/a	n/a	n/a	n/a	n/a	n/a	n/a	n/a	n/a	n/a	n/a	n/a
3616.324	n/a	PROB	1808162	n/a	LTP089	ltpFR	8	n/a	n/a	n/a	n/a	n/a	n/a	20	6	9	5	n/a	n/a	n/a	n/a	n/a
3618.624	n/a	PROB	1809312	n/a	LTP089	ltpFR	8	n/a	n/a	n/a	n/a	n/a	n/a	16	9	5	2	n/a	n/a	n/a	n/a	n/a
3622.038	n/a	STOP	1811019	n/a	LTP089	ltpFR	8	n/a	n/a	n/a	n/a	n/a	n/a	n/a	n/a	n/a	n/a	n/a	n/a	n/a	n/a	n/a
3625.124	n/a	REC_START	1812562	n/a	LTP089	ltpFR	8	12	n/a	n/a	n/a	n/a	n/a	n/a	0	0	0	n/a	n/a	n/a	n/a	n/a
3627.972	n/a	REC_WORD	1813986	wordpools/wasnorm_wordpool.txt	LTP089	ltpFR	8	12	1	BANDANNA	80	n/a	0	n/a	0	0	0	n/a	n/a	n/a	n/a	n/a
3629.17	n/a	REC_WORD	1814585	wordpools/wasnorm_wordpool.txt	LTP089	ltpFR	8	12	0	ALMANAC	17	n/a	0	n/a	0	0	0	n/a	n/a	n/a	n/a	n/a
3630.358	n/a	REC_WORD_VV	1815179	wordpools/wasnorm_wordpool.txt	LTP089	ltpFR	8	12	n/a	<>	-1	n/a	n/a	n/a	0	0	0	n/a	n/a	n/a	n/a	n/a
3716.356	n/a	REC_START	1858178	n/a	LTP089	ltpFR	8	1	n/a	n/a	n/a	n/a	n/a	n/a	0	0	0	n/a	n/a	n/a	n/a	n/a
3716.396	n/a	RECOG_TARGET	1858198	n/a	LTP089	ltpFR	8	1	1	PRESIDENT	1121	5	1	n/a	0	0	0	n/a	n/a	n/a	n/a	n/a
3718.496	n/a	RECOG_RESP	1859248	n/a	LTP089	ltpFR	8	1	1	PRESIDENT	1121	n/a	1	n/a	0	0	0	n/a	n/a	n/a	n/a	n/a
3720.082	n/a	RECOG_CONF	1860041	n/a	LTP089	ltpFR	8	1	1	PRESIDENT	1121	5	1	n/a	0	0	0	n/a	n/a	n/a	n/a	n/a
3721.322	n/a	RECOG_TARGET	1860661	n/a	LTP089	ltpFR	8	1	1	DART	440	5	1	n/a	0	0	0	n/a	n/a	n/a	n/a	n/a
3722.756	n/a	RECOG_RESP	1861378	n/a	LTP089	ltpFR	8	1	1	DART	440	n/a	1	n/a	0	0	0	n/a	n/a	n/a	n/a	n/a
3723.092	n/a	RECOG_CONF	1861546	n/a	LTP089	ltpFR	8	1	1	DART	440	5	1	n/a	0	0	0	n/a	n/a	n/a	n/a	n/a
3724.53	n/a	RECOG_LURE	1862265	n/a	LTP089	ltpFR	8	1	n/a	EAR	513	5	n/a	n/a	0	0	0	n/a	n/a	n/a	n/a	n/a
3725.51	n/a	RECOG_RESP	1862755	n/a	LTP089	ltpFR	8	1	n/a	EAR	513	n/a	n/a	n/a	0	0	0	n/a	n/a	n/a	n/a	n/a
3726.022	n/a	RECOG_CONF	1863011	n/a	LTP089	ltpFR	8	1	n/a	EAR	513	5	n/a	n/a	0	0	0	n/a	n/a	n/a	n/a	n/a
3727.172	n/a	RECOG_TARGET	1863586	n/a	LTP089	ltpFR	8	1	1	MARKET	871	5	0	n/a	0	0	0	n/a	n/a	n/a	n/a	n/a
3727.876	n/a	RECOG_RESP	1863938	n/a	LTP089	ltpFR	8	1	1	MARKET	871	n/a	0	n/a	0	0	0	n/a	n/a	n/a	n/a	n/a
3728.188	n/a	RECOG_CONF	1864094	n/a	LTP089	ltpFR	8	1	1	MARKET	871	5	0	n/a	0	0	0	n/a	n/a	n/a	n/a	n/a
3729.514	n/a	RECOG_TARGET	1864757	n/a	LTP089	ltpFR	8	1	0	PUMPKIN	1142	5	0	n/a	0	0	0	n/a	n/a	n/a	n/a	n/a
3730.2	n/a	RECOG_RESP	1865100	n/a	LTP089	ltpFR	8	1	0	PUMPKIN	1142	n/a	0	n/a	0	0	0	n/a	n/a	n/a	n/a	n/a
3730.582	n/a	RECOG_CONF	1865291	n/a	LTP089	ltpFR	8	1	0	PUMPKIN	1142	5	0	n/a	0	0	0	n/a	n/a	n/a	n/a	n/a
3731.922	n/a	RECOG_LURE	1865961	n/a	LTP089	ltpFR	8	1	n/a	BOAT	144	5	n/a	n/a	0	0	0	n/a	n/a	n/a	n/a	n/a
3732.694	n/a	RECOG_RESP	1866347	n/a	LTP089	ltpFR	8	1	n/a	BOAT	144	n/a	n/a	n/a	0	0	0	n/a	n/a	n/a	n/a	n/a
3733.066	n/a	RECOG_CONF	1866533	n/a	LTP089	ltpFR	8	1	n/a	BOAT	144	5	n/a	n/a	0	0	0	n/a	n/a	n/a	n/a	n/a
3734.422	n/a	RECOG_LURE	1867211	n/a	LTP089	ltpFR	8	1	n/a	FILM	565	5	n/a	n/a	0	0	0	n/a	n/a	n/a	n/a	n/a
3735.128	n/a	RECOG_RESP	1867564	n/a	LTP089	ltpFR	8	1	n/a	FILM	565	n/a	n/a	n/a	0	0	0	n/a	n/a	n/a	n/a	n/a
3735.454	n/a	RECOG_CONF	1867727	n/a	LTP089	ltpFR	8	1	n/a	FILM	565	5	n/a	n/a	0	0	0	n/a	n/a	n/a	n/a	n/a
3736.846	n/a	RECOG_LURE	1868423	n/a	LTP089	ltpFR	8	1	n/a	DANDELION	438	5	n/a	n/a	0	0	0	n/a	n/a	n/a	n/a	n/a
3737.642	n/a	RECOG_RESP	1868821	n/a	LTP089	ltpFR	8	1	n/a	DANDELION	438	n/a	n/a	n/a	0	0	0	n/a	n/a	n/a	n/a	n/a
3737.954	n/a	RECOG_CONF	1868977	n/a	LTP089	ltpFR	8	1	n/a	DANDELION	438	5	n/a	n/a	0	0	0	n/a	n/a	n/a	n/a	n/a
3739.354	n/a	RECOG_LURE	1869677	n/a	LTP089	ltpFR	8	1	n/a	NOMAD	955	5	n/a	n/a	0	0	0	n/a	n/a	n/a	n/a	n/a
3740.098	n/a	RECOG_RESP	1870049	n/a	LTP089	ltpFR	8	1	n/a	NOMAD	955	n/a	n/a	n/a	0	0	0	n/a	n/a	n/a	n/a	n/a
3740.434	n/a	RECOG_CONF	1870217	n/a	LTP089	ltpFR	8	1	n/a	NOMAD	955	5	n/a	n/a	0	0	0	n/a	n/a	n/a	n/a	n/a
3741.72	n/a	RECOG_TARGET	1870860	n/a	LTP089	ltpFR	8	1	0	PITCHFORK	1078	5	1	n/a	0	0	0	n/a	n/a	n/a	n/a	n/a
3742.562	n/a	RECOG_RESP	1871281	n/a	LTP089	ltpFR	8	1	0	PITCHFORK	1078	n/a	1	n/a	0	0	0	n/a	n/a	n/a	n/a	n/a
3742.944	n/a	RECOG_CONF	1871472	n/a	LTP089	ltpFR	8	1	0	PITCHFORK	1078	5	1	n/a	0	0	0	n/a	n/a	n/a	n/a	n/a
3744.104	n/a	RECOG_TARGET	1872052	n/a	LTP089	ltpFR	8	1	0	CHARCOAL	281	5	2	n/a	0	0	0	n/a	n/a	n/a	n/a	n/a
3744.868	n/a	RECOG_RESP	1872434	n/a	LTP089	ltpFR	8	1	0	CHARCOAL	281	n/a	2	n/a	0	0	0	n/a	n/a	n/a	n/a	n/a
3745.18	n/a	RECOG_CONF	1872590	n/a	LTP089	ltpFR	8	1	0	CHARCOAL	281	5	2	n/a	0	0	0	n/a	n/a	n/a	n/a	n/a
3746.446	n/a	RECOG_TARGET	1873223	n/a	LTP089	ltpFR	8	1	1	CALENDAR	221	5	0	n/a	0	0	0	n/a	n/a	n/a	n/a	n/a
3747.172	n/a	RECOG_RESP	1873586	n/a	LTP089	ltpFR	8	1	1	CALENDAR	221	n/a	0	n/a	0	0	0	n/a	n/a	n/a	n/a	n/a
3747.554	n/a	RECOG_CONF	1873777	n/a	LTP089	ltpFR	8	1	1	CALENDAR	221	5	0	n/a	0	0	0	n/a	n/a	n/a	n/a	n/a
3748.77	n/a	RECOG_TARGET	1874385	n/a	LTP089	ltpFR	8	1	0	JUDGE	761	5	0	n/a	0	0	0	n/a	n/a	n/a	n/a	n/a
3749.318	n/a	RECOG_RESP	1874659	n/a	LTP089	ltpFR	8	1	0	JUDGE	761	n/a	0	n/a	0	0	0	n/a	n/a	n/a	n/a	n/a
3749.652	n/a	RECOG_CONF	1874826	n/a	LTP089	ltpFR	8	1	0	JUDGE	761	5	0	n/a	0	0	0	n/a	n/a	n/a	n/a	n/a
3750.846	n/a	RECOG_LURE	1875423	n/a	LTP089	ltpFR	8	1	n/a	CAFE	216	5	n/a	n/a	0	0	0	n/a	n/a	n/a	n/a	n/a
3751.462	n/a	RECOG_RESP	1875731	n/a	LTP089	ltpFR	8	1	n/a	CAFE	216	n/a	n/a	n/a	0	0	0	n/a	n/a	n/a	n/a	n/a
3751.82	n/a	RECOG_CONF	1875910	n/a	LTP089	ltpFR	8	1	n/a	CAFE	216	5	n/a	n/a	0	0	0	n/a	n/a	n/a	n/a	n/a
3753.078	n/a	RECOG_TARGET	1876539	n/a	LTP089	ltpFR	8	1	1	CUSTOMER	430	5	0	n/a	0	0	0	n/a	n/a	n/a	n/a	n/a
3753.618	n/a	RECOG_RESP	1876809	n/a	LTP089	ltpFR	8	1	1	CUSTOMER	430	n/a	0	n/a	0	0	0	n/a	n/a	n/a	n/a	n/a
3753.952	n/a	RECOG_CONF	1876976	n/a	LTP089	ltpFR	8	1	1	CUSTOMER	430	5	0	n/a	0	0	0	n/a	n/a	n/a	n/a	n/a
3755.22	n/a	RECOG_LURE	1877610	n/a	LTP089	ltpFR	8	1	n/a	SLACKS	1323	5	n/a	n/a	0	0	0	n/a	n/a	n/a	n/a	n/a
3756.6	n/a	RECOG_RESP	1878300	n/a	LTP089	ltpFR	8	1	n/a	SLACKS	1323	n/a	n/a	n/a	0	0	0	n/a	n/a	n/a	n/a	n/a
3756.936	n/a	RECOG_CONF	1878468	n/a	LTP089	ltpFR	8	1	n/a	SLACKS	1323	5	n/a	n/a	0	0	0	n/a	n/a	n/a	n/a	n/a
3758.286	n/a	RECOG_TARGET	1879143	n/a	LTP089	ltpFR	8	1	0	TONGUE	1479	5	1	n/a	0	0	0	n/a	n/a	n/a	n/a	n/a
3758.916	n/a	RECOG_RESP	1879458	n/a	LTP089	ltpFR	8	1	0	TONGUE	1479	n/a	1	n/a	0	0	0	n/a	n/a	n/a	n/a	n/a
3759.264	n/a	RECOG_CONF	1879632	n/a	LTP089	ltpFR	8	1	0	TONGUE	1479	5	1	n/a	0	0	0	n/a	n/a	n/a	n/a	n/a
3760.604	n/a	RECOG_TARGET	1880302	n/a	LTP089	ltpFR	8	1	0	ROBIN	1199	5	0	n/a	0	0	0	n/a	n/a	n/a	n/a	n/a
3761.172	n/a	RECOG_RESP	1880586	n/a	LTP089	ltpFR	8	1	0	ROBIN	1199	n/a	0	n/a	0	0	0	n/a	n/a	n/a	n/a	n/a
3761.46	n/a	RECOG_CONF	1880730	n/a	LTP089	ltpFR	8	1	0	ROBIN	1199	5	0	n/a	0	0	0	n/a	n/a	n/a	n/a	n/a
3762.78	n/a	RECOG_TARGET	1881390	n/a	LTP089	ltpFR	8	1	0	KNAPSACK	783	5	1	n/a	0	0	0	n/a	n/a	n/a	n/a	n/a
3763.856	n/a	RECOG_RESP	1881928	n/a	LTP089	ltpFR	8	1	0	KNAPSACK	783	n/a	1	n/a	0	0	0	n/a	n/a	n/a	n/a	n/a
3764.204	n/a	RECOG_CONF	1882102	n/a	LTP089	ltpFR	8	1	0	KNAPSACK	783	5	1	n/a	0	0	0	n/a	n/a	n/a	n/a	n/a
3765.588	n/a	RECOG_TARGET	1882794	n/a	LTP089	ltpFR	8	1	0	ASSISTANT	48	5	2	n/a	0	0	0	n/a	n/a	n/a	n/a	n/a
3766.23	n/a	RECOG_RESP	1883115	n/a	LTP089	ltpFR	8	1	0	ASSISTANT	48	n/a	2	n/a	0	0	0	n/a	n/a	n/a	n/a	n/a
3766.532	n/a	RECOG_CONF	1883266	n/a	LTP089	ltpFR	8	1	0	ASSISTANT	48	5	2	n/a	0	0	0	n/a	n/a	n/a	n/a	n/a
3769.916	n/a	REC_START	1884958	n/a	LTP089	ltpFR	8	2	n/a	n/a	n/a	n/a	n/a	n/a	0	0	0	n/a	n/a	n/a	n/a	n/a
3769.954	n/a	RECOG_TARGET	1884977	n/a	LTP089	ltpFR	8	2	0	CAPITAL	238	5	0	n/a	0	0	0	n/a	n/a	n/a	n/a	n/a
3771.088	n/a	RECOG_RESP	1885544	n/a	LTP089	ltpFR	8	2	0	CAPITAL	238	n/a	0	n/a	0	0	0	n/a	n/a	n/a	n/a	n/a
3771.436	n/a	RECOG_CONF	1885718	n/a	LTP089	ltpFR	8	2	0	CAPITAL	238	5	0	n/a	0	0	0	n/a	n/a	n/a	n/a	n/a
3772.812	n/a	RECOG_LURE	1886406	n/a	LTP089	ltpFR	8	2	n/a	ANTELOPE	27	5	n/a	n/a	0	0	0	n/a	n/a	n/a	n/a	n/a
3773.612	n/a	RECOG_RESP	1886806	n/a	LTP089	ltpFR	8	2	n/a	ANTELOPE	27	n/a	n/a	n/a	0	0	0	n/a	n/a	n/a	n/a	n/a
3773.96	n/a	RECOG_CONF	1886980	n/a	LTP089	ltpFR	8	2	n/a	ANTELOPE	27	5	n/a	n/a	0	0	0	n/a	n/a	n/a	n/a	n/a
3775.304	n/a	RECOG_LURE	1887652	n/a	LTP089	ltpFR	8	2	n/a	JAM	748	5	n/a	n/a	0	0	0	n/a	n/a	n/a	n/a	n/a
3775.888	n/a	RECOG_RESP	1887944	n/a	LTP089	ltpFR	8	2	n/a	JAM	748	n/a	n/a	n/a	0	0	0	n/a	n/a	n/a	n/a	n/a
3776.176	n/a	RECOG_CONF	1888088	n/a	LTP089	ltpFR	8	2	n/a	JAM	748	5	n/a	n/a	0	0	0	n/a	n/a	n/a	n/a	n/a
3777.486	n/a	RECOG_TARGET	1888743	n/a	LTP089	ltpFR	8	2	0	BARLEY	88	5	0	n/a	0	0	0	n/a	n/a	n/a	n/a	n/a
3778.222	n/a	RECOG_RESP	1889111	n/a	LTP089	ltpFR	8	2	0	BARLEY	88	n/a	0	n/a	0	0	0	n/a	n/a	n/a	n/a	n/a
3778.512	n/a	RECOG_CONF	1889256	n/a	LTP089	ltpFR	8	2	0	BARLEY	88	5	0	n/a	0	0	0	n/a	n/a	n/a	n/a	n/a
3779.804	n/a	RECOG_LURE	1889902	n/a	LTP089	ltpFR	8	2	n/a	KNIGHT	786	5	n/a	n/a	0	0	0	n/a	n/a	n/a	n/a	n/a
3780.788	n/a	RECOG_RESP	1890394	n/a	LTP089	ltpFR	8	2	n/a	KNIGHT	786	n/a	n/a	n/a	0	0	0	n/a	n/a	n/a	n/a	n/a
3781.136	n/a	RECOG_CONF	1890568	n/a	LTP089	ltpFR	8	2	n/a	KNIGHT	786	5	n/a	n/a	0	0	0	n/a	n/a	n/a	n/a	n/a
3782.62	n/a	RECOG_TARGET	1891310	n/a	LTP089	ltpFR	8	2	0	COSTUME	383	5	0	n/a	0	0	0	n/a	n/a	n/a	n/a	n/a
3783.482	n/a	RECOG_RESP	1891741	n/a	LTP089	ltpFR	8	2	0	COSTUME	383	n/a	0	n/a	0	0	0	n/a	n/a	n/a	n/a	n/a
3783.9	n/a	RECOG_CONF	1891950	n/a	LTP089	ltpFR	8	2	0	COSTUME	383	5	0	n/a	0	0	0	n/a	n/a	n/a	n/a	n/a
3785.22	n/a	RECOG_TARGET	1892610	n/a	LTP089	ltpFR	8	2	1	PICKLE	1059	5	0	n/a	0	0	0	n/a	n/a	n/a	n/a	n/a
3786.37	n/a	RECOG_RESP	1893185	n/a	LTP089	ltpFR	8	2	1	PICKLE	1059	n/a	0	n/a	0	0	0	n/a	n/a	n/a	n/a	n/a
3786.694	n/a	RECOG_CONF	1893347	n/a	LTP089	ltpFR	8	2	1	PICKLE	1059	5	0	n/a	0	0	0	n/a	n/a	n/a	n/a	n/a
3787.986	n/a	RECOG_TARGET	1893993	n/a	LTP089	ltpFR	8	2	0	WARDROBE	1587	5	0	n/a	0	0	0	n/a	n/a	n/a	n/a	n/a
3789.384	n/a	RECOG_RESP	1894692	n/a	LTP089	ltpFR	8	2	0	WARDROBE	1587	n/a	0	n/a	0	0	0	n/a	n/a	n/a	n/a	n/a
3789.91	n/a	RECOG_CONF	1894955	n/a	LTP089	ltpFR	8	2	0	WARDROBE	1587	5	0	n/a	0	0	0	n/a	n/a	n/a	n/a	n/a
3791.07	n/a	RECOG_LURE	1895535	n/a	LTP089	ltpFR	8	2	n/a	PAW	1029	5	n/a	n/a	0	0	0	n/a	n/a	n/a	n/a	n/a
3791.862	n/a	RECOG_RESP	1895931	n/a	LTP089	ltpFR	8	2	n/a	PAW	1029	n/a	n/a	n/a	0	0	0	n/a	n/a	n/a	n/a	n/a
3792.198	n/a	RECOG_CONF	1896099	n/a	LTP089	ltpFR	8	2	n/a	PAW	1029	5	n/a	n/a	0	0	0	n/a	n/a	n/a	n/a	n/a
3793.652	n/a	RECOG_TARGET	1896826	n/a	LTP089	ltpFR	8	2	0	STEREO	1378	5	0	n/a	0	0	0	n/a	n/a	n/a	n/a	n/a
3794.706	n/a	RECOG_RESP	1897353	n/a	LTP089	ltpFR	8	2	0	STEREO	1378	n/a	0	n/a	0	0	0	n/a	n/a	n/a	n/a	n/a
3795.054	n/a	RECOG_CONF	1897527	n/a	LTP089	ltpFR	8	2	0	STEREO	1378	5	0	n/a	0	0	0	n/a	n/a	n/a	n/a	n/a
3796.42	n/a	RECOG_LURE	1898210	n/a	LTP089	ltpFR	8	2	n/a	DAUGHTER	442	5	n/a	n/a	0	0	0	n/a	n/a	n/a	n/a	n/a
3797.16	n/a	RECOG_RESP	1898580	n/a	LTP089	ltpFR	8	2	n/a	DAUGHTER	442	n/a	n/a	n/a	0	0	0	n/a	n/a	n/a	n/a	n/a
3797.45	n/a	RECOG_CONF	1898725	n/a	LTP089	ltpFR	8	2	n/a	DAUGHTER	442	5	n/a	n/a	0	0	0	n/a	n/a	n/a	n/a	n/a
3798.878	n/a	RECOG_TARGET	1899439	n/a	LTP089	ltpFR	8	2	0	HEATER	698	5	1	n/a	0	0	0	n/a	n/a	n/a	n/a	n/a
3800.164	n/a	RECOG_RESP	1900082	n/a	LTP089	ltpFR	8	2	0	HEATER	698	n/a	1	n/a	0	0	0	n/a	n/a	n/a	n/a	n/a
3800.476	n/a	RECOG_CONF	1900238	n/a	LTP089	ltpFR	8	2	0	HEATER	698	5	1	n/a	0	0	0	n/a	n/a	n/a	n/a	n/a
3801.87	n/a	RECOG_LURE	1900935	n/a	LTP089	ltpFR	8	2	n/a	NECKLACE	940	5	n/a	n/a	0	0	0	n/a	n/a	n/a	n/a	n/a
3802.658	n/a	RECOG_RESP	1901329	n/a	LTP089	ltpFR	8	2	n/a	NECKLACE	940	n/a	n/a	n/a	0	0	0	n/a	n/a	n/a	n/a	n/a
3803.03	n/a	RECOG_CONF	1901515	n/a	LTP089	ltpFR	8	2	n/a	NECKLACE	940	5	n/a	n/a	0	0	0	n/a	n/a	n/a	n/a	n/a
3804.336	n/a	RECOG_TARGET	1902168	n/a	LTP089	ltpFR	8	2	0	UMBRELLA	1534	5	0	n/a	0	0	0	n/a	n/a	n/a	n/a	n/a
3805.292	n/a	RECOG_RESP	1902646	n/a	LTP089	ltpFR	8	2	0	UMBRELLA	1534	n/a	0	n/a	0	0	0	n/a	n/a	n/a	n/a	n/a
3805.618	n/a	RECOG_CONF	1902809	n/a	LTP089	ltpFR	8	2	0	UMBRELLA	1534	5	0	n/a	0	0	0	n/a	n/a	n/a	n/a	n/a
3807.052	n/a	RECOG_TARGET	1903526	n/a	LTP089	ltpFR	8	2	0	CUBE	420	5	0	n/a	0	0	0	n/a	n/a	n/a	n/a	n/a
3807.778	n/a	RECOG_RESP	1903889	n/a	LTP089	ltpFR	8	2	0	CUBE	420	n/a	0	n/a	0	0	0	n/a	n/a	n/a	n/a	n/a
3808.09	n/a	RECOG_CONF	1904045	n/a	LTP089	ltpFR	8	2	0	CUBE	420	5	0	n/a	0	0	0	n/a	n/a	n/a	n/a	n/a
3809.486	n/a	RECOG_TARGET	1904743	n/a	LTP089	ltpFR	8	2	0	BUTTON	207	5	1	n/a	0	0	0	n/a	n/a	n/a	n/a	n/a
3810.676	n/a	RECOG_RESP	1905338	n/a	LTP089	ltpFR	8	2	0	BUTTON	207	n/a	1	n/a	0	0	0	n/a	n/a	n/a	n/a	n/a
3811.062	n/a	RECOG_CONF	1905531	n/a	LTP089	ltpFR	8	2	0	BUTTON	207	5	1	n/a	0	0	0	n/a	n/a	n/a	n/a	n/a
3812.26	n/a	RECOG_TARGET	1906130	n/a	LTP089	ltpFR	8	2	0	FLASK	576	5	0	n/a	0	0	0	n/a	n/a	n/a	n/a	n/a
3813.036	n/a	RECOG_RESP	1906518	n/a	LTP089	ltpFR	8	2	0	FLASK	576	n/a	0	n/a	0	0	0	n/a	n/a	n/a	n/a	n/a
