mstime	trial_type	stim_file	subject	experiment	session	trial	item_name	item_num	list	answer	test_x	test_y	test_z
0	SESS_START	n/a	LTP362	ltpFR2	16	n/a	n/a	n/a	n/a	n/a	0	0	0
13264	START	n/a	LTP362	ltpFR2	16	n/a	n/a	n/a	-1	n/a	n/a	n/a	n/a
13295	PROB	n/a	LTP362	ltpFR2	16	n/a	n/a	n/a	-1	17	7	2	8
15211	PROB	n/a	LTP362	ltpFR2	16	n/a	n/a	n/a	-1	13	4	1	8
16593	PROB	n/a	LTP362	ltpFR2	16	n/a	n/a	n/a	-1	12	1	9	2
18243	PROB	n/a	LTP362	ltpFR2	16	n/a	n/a	n/a	-1	16	2	9	5
19592	PROB	n/a	LTP362	ltpFR2	16	n/a	n/a	n/a	-1	21	5	9	7
21475	PROB	n/a	LTP362	ltpFR2	16	n/a	n/a	n/a	-1	16	8	1	7
25264	STOP	n/a	LTP362	ltpFR2	16	n/a	n/a	n/a	-1	n/a	n/a	n/a	n/a
68170	WORD	wordpools/wasnorm_wordpool_576.txt	LTP362	ltpFR2	16	1	PIANO	1057	n/a	n/a	0	0	0
70785	WORD	wordpools/wasnorm_wordpool_576.txt	LTP362	ltpFR2	16	1	RECORD	1176	n/a	n/a	0	0	0
73285	WORD	wordpools/wasnorm_wordpool_576.txt	LTP362	ltpFR2	16	1	IDOL	733	n/a	n/a	0	0	0
75949	WORD	wordpools/wasnorm_wordpool_576.txt	LTP362	ltpFR2	16	1	MEAT	883	n/a	n/a	0	0	0
78748	WORD	wordpools/wasnorm_wordpool_576.txt	LTP362	ltpFR2	16	1	SHELTER	1282	n/a	n/a	0	0	0
81298	WORD	wordpools/wasnorm_wordpool_576.txt	LTP362	ltpFR2	16	1	GRAVE	658	n/a	n/a	0	0	0
83945	WORD	wordpools/wasnorm_wordpool_576.txt	LTP362	ltpFR2	16	1	TOMBSTONE	1478	n/a	n/a	0	0	0
86545	WORD	wordpools/wasnorm_wordpool_576.txt	LTP362	ltpFR2	16	1	CASKET	255	n/a	n/a	0	0	0
89144	WORD	wordpools/wasnorm_wordpool_576.txt	LTP362	ltpFR2	16	1	LODGE	839	n/a	n/a	0	0	0
91692	WORD	wordpools/wasnorm_wordpool_576.txt	LTP362	ltpFR2	16	1	STONE	1385	n/a	n/a	0	0	0
94425	WORD	wordpools/wasnorm_wordpool_576.txt	LTP362	ltpFR2	16	1	LABEL	790	n/a	n/a	0	0	0
97207	WORD	wordpools/wasnorm_wordpool_576.txt	LTP362	ltpFR2	16	1	PASSAGE	1019	n/a	n/a	0	0	0
100022	WORD	wordpools/wasnorm_wordpool_576.txt	LTP362	ltpFR2	16	1	FIDDLE	561	n/a	n/a	0	0	0
102588	WORD	wordpools/wasnorm_wordpool_576.txt	LTP362	ltpFR2	16	1	BABY	64	n/a	n/a	0	0	0
105103	WORD	wordpools/wasnorm_wordpool_576.txt	LTP362	ltpFR2	16	1	DENIM	446	n/a	n/a	0	0	0
107602	WORD	wordpools/wasnorm_wordpool_576.txt	LTP362	ltpFR2	16	1	GUITAR	670	n/a	n/a	0	0	0
110301	WORD	wordpools/wasnorm_wordpool_576.txt	LTP362	ltpFR2	16	1	WHISTLE	1606	n/a	n/a	0	0	0
113049	WORD	wordpools/wasnorm_wordpool_576.txt	LTP362	ltpFR2	16	1	WRENCH	1625	n/a	n/a	0	0	0
115714	WORD	wordpools/wasnorm_wordpool_576.txt	LTP362	ltpFR2	16	1	BANJO	82	n/a	n/a	0	0	0
118464	WORD	wordpools/wasnorm_wordpool_576.txt	LTP362	ltpFR2	16	1	SAUSAGE	1238	n/a	n/a	0	0	0
120945	WORD	wordpools/wasnorm_wordpool_576.txt	LTP362	ltpFR2	16	1	CRAB	397	n/a	n/a	0	0	0
123744	WORD	wordpools/wasnorm_wordpool_576.txt	LTP362	ltpFR2	16	1	SCARF	1246	n/a	n/a	0	0	0
126377	WORD	wordpools/wasnorm_wordpool_576.txt	LTP362	ltpFR2	16	1	ACTOR	5	n/a	n/a	0	0	0
128858	WORD	wordpools/wasnorm_wordpool_576.txt	LTP362	ltpFR2	16	1	JELLO	754	n/a	n/a	0	0	0
130475	START	n/a	LTP362	ltpFR2	16	n/a	n/a	n/a	1	n/a	n/a	n/a	n/a
131501	DISTRACTOR	n/a	LTP362	ltpFR2	16	1	n/a	n/a	n/a	n/a	0	0	0
131508	PROB	n/a	LTP362	ltpFR2	16	n/a	n/a	n/a	1	13	6	6	1
132641	PROB	n/a	LTP362	ltpFR2	16	n/a	n/a	n/a	1	15	5	8	2
133673	PROB	n/a	LTP362	ltpFR2	16	n/a	n/a	n/a	1	20	7	6	7
134922	PROB	n/a	LTP362	ltpFR2	16	n/a	n/a	n/a	1	9	1	4	4
135955	PROB	n/a	LTP362	ltpFR2	16	n/a	n/a	n/a	1	11	3	3	5
137256	PROB	n/a	LTP362	ltpFR2	16	n/a	n/a	n/a	1	19	4	6	9
138355	PROB	n/a	LTP362	ltpFR2	16	n/a	n/a	n/a	1	12	3	1	8
139670	PROB	n/a	LTP362	ltpFR2	16	n/a	n/a	n/a	1	16	4	3	9
141053	PROB	n/a	LTP362	ltpFR2	16	n/a	n/a	n/a	1	24	8	9	7
142719	PROB	n/a	LTP362	ltpFR2	16	n/a	n/a	n/a	1	18	8	3	7
143835	PROB	n/a	LTP362	ltpFR2	16	n/a	n/a	n/a	1	15	9	3	3
145084	PROB	n/a	LTP362	ltpFR2	16	n/a	n/a	n/a	1	18	7	3	8
146867	PROB	n/a	LTP362	ltpFR2	16	n/a	n/a	n/a	1	10	6	2	2
147883	PROB	n/a	LTP362	ltpFR2	16	n/a	n/a	n/a	1	8	3	2	3
149450	PROB	n/a	LTP362	ltpFR2	16	n/a	n/a	n/a	1	9	5	1	3
150832	PROB	n/a	LTP362	ltpFR2	16	n/a	n/a	n/a	1	18	9	1	8
152465	PROB	n/a	LTP362	ltpFR2	16	n/a	n/a	n/a	1	14	6	1	7
153701	STOP	n/a	LTP362	ltpFR2	16	n/a	n/a	n/a	1	n/a	n/a	n/a	n/a
156314	REC_START	n/a	LTP362	ltpFR2	16	1	n/a	n/a	n/a	n/a	0	0	0
157392	REC_WORD	wordpools/wasnorm_wordpool_576.txt	LTP362	ltpFR2	16	1	BANJO	82	n/a	n/a	0	0	0
158061	REC_WORD	wordpools/wasnorm_wordpool_576.txt	LTP362	ltpFR2	16	1	PIANO	1057	n/a	n/a	0	0	0
158840	REC_WORD	wordpools/wasnorm_wordpool_576.txt	LTP362	ltpFR2	16	1	WHISTLE	1606	n/a	n/a	0	0	0
159621	REC_WORD	wordpools/wasnorm_wordpool_576.txt	LTP362	ltpFR2	16	1	CRAB	397	n/a	n/a	0	0	0
160437	REC_WORD	wordpools/wasnorm_wordpool_576.txt	LTP362	ltpFR2	16	1	MEAT	883	n/a	n/a	0	0	0
161158	REC_WORD	wordpools/wasnorm_wordpool_576.txt	LTP362	ltpFR2	16	1	SAUSAGE	1238	n/a	n/a	0	0	0
163118	REC_WORD	wordpools/wasnorm_wordpool_576.txt	LTP362	ltpFR2	16	1	GRAVE	658	n/a	n/a	0	0	0
163890	REC_WORD	wordpools/wasnorm_wordpool_576.txt	LTP362	ltpFR2	16	1	TOMBSTONE	1478	n/a	n/a	0	0	0
164882	REC_WORD	wordpools/wasnorm_wordpool_576.txt	LTP362	ltpFR2	16	1	STONE	1385	n/a	n/a	0	0	0
165875	REC_WORD	wordpools/wasnorm_wordpool_576.txt	LTP362	ltpFR2	16	1	IDOL	733	n/a	n/a	0	0	0
178341	REC_WORD	wordpools/wasnorm_wordpool_576.txt	LTP362	ltpFR2	16	1	DENIM	446	n/a	n/a	0	0	0
188844	REC_WORD	wordpools/wasnorm_wordpool_576.txt	LTP362	ltpFR2	16	1	WRENCH	1625	n/a	n/a	0	0	0
246738	DISTRACTOR	n/a	LTP362	ltpFR2	16	2	n/a	n/a	n/a	n/a	0	0	0
246739	START	n/a	LTP362	ltpFR2	16	n/a	n/a	n/a	2	n/a	n/a	n/a	n/a
246755	PROB	n/a	LTP362	ltpFR2	16	n/a	n/a	n/a	2	9	2	1	6
247938	PROB	n/a	LTP362	ltpFR2	16	n/a	n/a	n/a	2	16	7	3	6
249372	PROB	n/a	LTP362	ltpFR2	16	n/a	n/a	n/a	2	14	1	7	6
250687	PROB	n/a	LTP362	ltpFR2	16	n/a	n/a	n/a	2	12	1	5	6
251670	PROB	n/a	LTP362	ltpFR2	16	n/a	n/a	n/a	2	15	5	7	3
252669	PROB	n/a	LTP362	ltpFR2	16	n/a	n/a	n/a	2	12	6	4	2
253653	PROB	n/a	LTP362	ltpFR2	16	n/a	n/a	n/a	2	7	5	1	1
254653	PROB	n/a	LTP362	ltpFR2	16	n/a	n/a	n/a	2	15	6	8	1
256185	PROB	n/a	LTP362	ltpFR2	16	n/a	n/a	n/a	2	16	7	6	3
257485	PROB	n/a	LTP362	ltpFR2	16	n/a	n/a	n/a	2	24	8	9	7
258900	PROB	n/a	LTP362	ltpFR2	16	n/a	n/a	n/a	2	11	1	9	1
259983	PROB	n/a	LTP362	ltpFR2	16	n/a	n/a	n/a	2	12	1	6	5
261015	PROB	n/a	LTP362	ltpFR2	16	n/a	n/a	n/a	2	13	2	5	6
262781	PROB	n/a	LTP362	ltpFR2	16	n/a	n/a	n/a	2	18	1	8	9
264047	PROB	n/a	LTP362	ltpFR2	16	n/a	n/a	n/a	2	21	9	3	9
265614	PROB	n/a	LTP362	ltpFR2	16	n/a	n/a	n/a	2	16	1	6	9
266796	PROB	n/a	LTP362	ltpFR2	16	n/a	n/a	n/a	2	18	8	4	6
268029	PROB	n/a	LTP362	ltpFR2	16	n/a	n/a	n/a	2	13	7	3	3
269012	PROB	n/a	LTP362	ltpFR2	16	n/a	n/a	n/a	2	12	7	4	1
270186	STOP	n/a	LTP362	ltpFR2	16	n/a	n/a	n/a	2	n/a	n/a	n/a	n/a
271927	WORD	wordpools/wasnorm_wordpool_576.txt	LTP362	ltpFR2	16	2	RELISH	1183	n/a	n/a	0	0	0
274560	WORD	wordpools/wasnorm_wordpool_576.txt	LTP362	ltpFR2	16	2	PERMIT	1051	n/a	n/a	0	0	0
277108	WORD	wordpools/wasnorm_wordpool_576.txt	LTP362	ltpFR2	16	2	EGYPT	519	n/a	n/a	0	0	0
279707	WORD	wordpools/wasnorm_wordpool_576.txt	LTP362	ltpFR2	16	2	CONVICT	371	n/a	n/a	0	0	0
282323	WORD	wordpools/wasnorm_wordpool_576.txt	LTP362	ltpFR2	16	2	SCOTCH	1251	n/a	n/a	0	0	0
284771	WORD	wordpools/wasnorm_wordpool_576.txt	LTP362	ltpFR2	16	2	DRINK	498	n/a	n/a	0	0	0
287338	WORD	wordpools/wasnorm_wordpool_576.txt	LTP362	ltpFR2	16	2	DAISY	435	n/a	n/a	0	0	0
290119	WORD	wordpools/wasnorm_wordpool_576.txt	LTP362	ltpFR2	16	2	TRACTOR	1493	n/a	n/a	0	0	0
292552	WORD	wordpools/wasnorm_wordpool_576.txt	LTP362	ltpFR2	16	2	ROOSTER	1209	n/a	n/a	0	0	0
295184	WORD	wordpools/wasnorm_wordpool_576.txt	LTP362	ltpFR2	16	2	CATCHER	258	n/a	n/a	0	0	0
297815	WORD	wordpools/wasnorm_wordpool_576.txt	LTP362	ltpFR2	16	2	SLUG	1329	n/a	n/a	0	0	0
300332	WORD	wordpools/wasnorm_wordpool_576.txt	LTP362	ltpFR2	16	2	FLASHLIGHT	575	n/a	n/a	0	0	0
302830	WORD	wordpools/wasnorm_wordpool_576.txt	LTP362	ltpFR2	16	2	CAMEL	223	n/a	n/a	0	0	0
305546	WORD	wordpools/wasnorm_wordpool_576.txt	LTP362	ltpFR2	16	2	HERO	706	n/a	n/a	0	0	0
308027	WORD	wordpools/wasnorm_wordpool_576.txt	LTP362	ltpFR2	16	2	MISTER	901	n/a	n/a	0	0	0
310511	WORD	wordpools/wasnorm_wordpool_576.txt	LTP362	ltpFR2	16	2	MUMMY	932	n/a	n/a	0	0	0
313193	WORD	wordpools/wasnorm_wordpool_576.txt	LTP362	ltpFR2	16	2	FARMER	553	n/a	n/a	0	0	0
315841	WORD	wordpools/wasnorm_wordpool_576.txt	LTP362	ltpFR2	16	2	BREAST	171	n/a	n/a	0	0	0
318324	WORD	wordpools/wasnorm_wordpool_576.txt	LTP362	ltpFR2	16	2	SADDLE	1221	n/a	n/a	0	0	0
320772	WORD	wordpools/wasnorm_wordpool_576.txt	LTP362	ltpFR2	16	2	COWBOY	395	n/a	n/a	0	0	0
323388	WORD	wordpools/wasnorm_wordpool_576.txt	LTP362	ltpFR2	16	2	DENTIST	447	n/a	n/a	0	0	0
326053	WORD	wordpools/wasnorm_wordpool_576.txt	LTP362	ltpFR2	16	2	TUNNEL	1519	n/a	n/a	0	0	0
328701	WORD	wordpools/wasnorm_wordpool_576.txt	LTP362	ltpFR2	16	2	FLIPPER	580	n/a	n/a	0	0	0
331418	WORD	wordpools/wasnorm_wordpool_576.txt	LTP362	ltpFR2	16	2	EXPERT	543	n/a	n/a	0	0	0
333033	START	n/a	LTP362	ltpFR2	16	n/a	n/a	n/a	3	n/a	n/a	n/a	n/a
334150	DISTRACTOR	n/a	LTP362	ltpFR2	16	2	n/a	n/a	n/a	n/a	0	0	0
334167	PROB	n/a	LTP362	ltpFR2	16	n/a	n/a	n/a	3	14	5	1	8
338097	PROB	n/a	LTP362	ltpFR2	16	n/a	n/a	n/a	3	17	8	6	3
339796	PROB	n/a	LTP362	ltpFR2	16	n/a	n/a	n/a	3	15	9	5	1
340846	PROB	n/a	LTP362	ltpFR2	16	n/a	n/a	n/a	3	8	2	4	2
341912	PROB	n/a	LTP362	ltpFR2	16	n/a	n/a	n/a	3	20	8	3	9
343263	PROB	n/a	LTP362	ltpFR2	16	n/a	n/a	n/a	3	9	5	1	3
344612	PROB	n/a	LTP362	ltpFR2	16	n/a	n/a	n/a	3	1	5	8	1
346161	PROB	n/a	LTP362	ltpFR2	16	n/a	n/a	n/a	3	8	5	2	1
349076	PROB	n/a	LTP362	ltpFR2	16	n/a	n/a	n/a	3	21	7	7	7
350159	PROB	n/a	LTP362	ltpFR2	16	n/a	n/a	n/a	3	19	5	9	5
351375	PROB	n/a	LTP362	ltpFR2	16	n/a	n/a	n/a	3	12	6	4	2
352408	PROB	n/a	LTP362	ltpFR2	16	n/a	n/a	n/a	3	9	3	1	5
353475	PROB	n/a	LTP362	ltpFR2	16	n/a	n/a	n/a	3	16	1	8	7
354723	PROB	n/a	LTP362	ltpFR2	16	n/a	n/a	n/a	3	12	4	6	2
355812	STOP	n/a	LTP362	ltpFR2	16	n/a	n/a	n/a	3	n/a	n/a	n/a	n/a
358822	REC_START	n/a	LTP362	ltpFR2	16	2	n/a	n/a	n/a	n/a	0	0	0
359678	REC_WORD	wordpools/wasnorm_wordpool_576.txt	LTP362	ltpFR2	16	2	CAMEL	223	n/a	n/a	0	0	0
360232	REC_WORD	wordpools/wasnorm_wordpool_576.txt	LTP362	ltpFR2	16	2	HERO	706	n/a	n/a	0	0	0
360845	REC_WORD	wordpools/wasnorm_wordpool_576.txt	LTP362	ltpFR2	16	2	MISTER	901	n/a	n/a	0	0	0
361432	REC_WORD	wordpools/wasnorm_wordpool_576.txt	LTP362	ltpFR2	16	2	MUMMY	932	n/a	n/a	0	0	0
368289	REC_WORD	wordpools/wasnorm_wordpool_576.txt	LTP362	ltpFR2	16	2	FARMER	553	n/a	n/a	0	0	0
372890	REC_WORD	wordpools/wasnorm_wordpool_576.txt	LTP362	ltpFR2	16	2	SADDLE	1221	n/a	n/a	0	0	0
373412	REC_WORD	wordpools/wasnorm_wordpool_576.txt	LTP362	ltpFR2	16	2	COWBOY	395	n/a	n/a	0	0	0
387002	REC_WORD	wordpools/wasnorm_wordpool_576.txt	LTP362	ltpFR2	16	2	ROOSTER	1209	n/a	n/a	0	0	0
449248	DISTRACTOR	n/a	LTP362	ltpFR2	16	3	n/a	n/a	n/a	n/a	0	0	0
449248	START	n/a	LTP362	ltpFR2	16	n/a	n/a	n/a	4	n/a	n/a	n/a	n/a
449265	PROB	n/a	LTP362	ltpFR2	16	n/a	n/a	n/a	4	12	3	1	8
450314	PROB	n/a	LTP362	ltpFR2	16	n/a	n/a	n/a	4	18	3	6	9
452129	PROB	n/a	LTP362	ltpFR2	16	n/a	n/a	n/a	4	17	6	6	5
453613	PROB	n/a	LTP362	ltpFR2	16	n/a	n/a	n/a	4	18	4	7	7
455044	PROB	n/a	LTP362	ltpFR2	16	n/a	n/a	n/a	4	15	4	7	4
456660	PROB	n/a	LTP362	ltpFR2	16	n/a	n/a	n/a	4	16	3	5	8
458294	PROB	n/a	LTP362	ltpFR2	16	n/a	n/a	n/a	4	12	5	5	2
459410	PROB	n/a	LTP362	ltpFR2	16	n/a	n/a	n/a	4	19	9	1	9
460643	PROB	n/a	LTP362	ltpFR2	16	n/a	n/a	n/a	4	16	1	8	7
461708	PROB	n/a	LTP362	ltpFR2	16	n/a	n/a	n/a	4	7	5	1	1
462657	PROB	n/a	LTP362	ltpFR2	16	n/a	n/a	n/a	4	18	9	7	2
464057	PROB	n/a	LTP362	ltpFR2	16	n/a	n/a	n/a	4	14	4	8	2
465906	PROB	n/a	LTP362	ltpFR2	16	n/a	n/a	n/a	4	9	5	3	1
467105	PROB	n/a	LTP362	ltpFR2	16	n/a	n/a	n/a	4	14	3	2	9
469439	PROB	n/a	LTP362	ltpFR2	16	n/a	n/a	n/a	4	14	5	6	3
470720	PROB	n/a	LTP362	ltpFR2	16	n/a	n/a	n/a	4	14	6	4	4
471888	STOP	n/a	LTP362	ltpFR2	16	n/a	n/a	n/a	4	n/a	n/a	n/a	n/a
474320	WORD	wordpools/wasnorm_wordpool_576.txt	LTP362	ltpFR2	16	3	THREAD	1460	n/a	n/a	0	0	0
476968	WORD	wordpools/wasnorm_wordpool_576.txt	LTP362	ltpFR2	16	3	BROOK	177	n/a	n/a	0	0	0
479716	WORD	wordpools/wasnorm_wordpool_576.txt	LTP362	ltpFR2	16	3	NOVEL	960	n/a	n/a	0	0	0
482466	WORD	wordpools/wasnorm_wordpool_576.txt	LTP362	ltpFR2	16	3	BOX	159	n/a	n/a	0	0	0
484931	WORD	wordpools/wasnorm_wordpool_576.txt	LTP362	ltpFR2	16	3	PISTON	1076	n/a	n/a	0	0	0
487647	WORD	wordpools/wasnorm_wordpool_576.txt	LTP362	ltpFR2	16	3	OFFICE	972	n/a	n/a	0	0	0
490179	WORD	wordpools/wasnorm_wordpool_576.txt	LTP362	ltpFR2	16	3	TYPIST	1532	n/a	n/a	0	0	0
492612	WORD	wordpools/wasnorm_wordpool_576.txt	LTP362	ltpFR2	16	3	LAKE	796	n/a	n/a	0	0	0
495310	WORD	wordpools/wasnorm_wordpool_576.txt	LTP362	ltpFR2	16	3	OUTLAW	989	n/a	n/a	0	0	0
497775	WORD	wordpools/wasnorm_wordpool_576.txt	LTP362	ltpFR2	16	3	BEEF	113	n/a	n/a	0	0	0
500225	WORD	wordpools/wasnorm_wordpool_576.txt	LTP362	ltpFR2	16	3	UNCLE	1536	n/a	n/a	0	0	0
503023	WORD	wordpools/wasnorm_wordpool_576.txt	LTP362	ltpFR2	16	3	PENGUIN	1044	n/a	n/a	0	0	0
505688	WORD	wordpools/wasnorm_wordpool_576.txt	LTP362	ltpFR2	16	3	SPOON	1357	n/a	n/a	0	0	0
508421	WORD	wordpools/wasnorm_wordpool_576.txt	LTP362	ltpFR2	16	3	VICTIM	1562	n/a	n/a	0	0	0
510919	WORD	wordpools/wasnorm_wordpool_576.txt	LTP362	ltpFR2	16	3	BASEMENT	94	n/a	n/a	0	0	0
513652	WORD	wordpools/wasnorm_wordpool_576.txt	LTP362	ltpFR2	16	3	HELMET	702	n/a	n/a	0	0	0
516434	WORD	wordpools/wasnorm_wordpool_576.txt	LTP362	ltpFR2	16	3	FOOTBALL	591	n/a	n/a	0	0	0
519233	WORD	wordpools/wasnorm_wordpool_576.txt	LTP362	ltpFR2	16	3	MARSH	874	n/a	n/a	0	0	0
521681	WORD	wordpools/wasnorm_wordpool_576.txt	LTP362	ltpFR2	16	3	GROUND	666	n/a	n/a	0	0	0
524447	WORD	wordpools/wasnorm_wordpool_576.txt	LTP362	ltpFR2	16	3	VAGRANT	1544	n/a	n/a	0	0	0
527128	WORD	wordpools/wasnorm_wordpool_576.txt	LTP362	ltpFR2	16	3	KLEENEX	782	n/a	n/a	0	0	0
529612	WORD	wordpools/wasnorm_wordpool_576.txt	LTP362	ltpFR2	16	3	SHERIFF	1284	n/a	n/a	0	0	0
532076	WORD	wordpools/wasnorm_wordpool_576.txt	LTP362	ltpFR2	16	3	JURY	766	n/a	n/a	0	0	0
534675	WORD	wordpools/wasnorm_wordpool_576.txt	LTP362	ltpFR2	16	3	VENUS	1557	n/a	n/a	0	0	0
536292	START	n/a	LTP362	ltpFR2	16	n/a	n/a	n/a	5	n/a	n/a	n/a	n/a
537464	DISTRACTOR	n/a	LTP362	ltpFR2	16	3	n/a	n/a	n/a	n/a	0	0	0
537475	PROB	n/a	LTP362	ltpFR2	16	n/a	n/a	n/a	5	7	5	1	1
538956	PROB	n/a	LTP362	ltpFR2	16	n/a	n/a	n/a	5	8	3	3	2
540006	PROB	n/a	LTP362	ltpFR2	16	n/a	n/a	n/a	5	14	2	3	9
541423	PROB	n/a	LTP362	ltpFR2	16	n/a	n/a	n/a	5	9	5	3	1
542788	PROB	n/a	LTP362	ltpFR2	16	n/a	n/a	n/a	5	5	3	1	1
543788	PROB	n/a	LTP362	ltpFR2	16	n/a	n/a	n/a	5	15	6	4	5
544837	PROB	n/a	LTP362	ltpFR2	16	n/a	n/a	n/a	5	21	8	8	5
546803	PROB	n/a	LTP362	ltpFR2	16	n/a	n/a	n/a	5	12	5	5	2
547919	PROB	n/a	LTP362	ltpFR2	16	n/a	n/a	n/a	5	11	5	5	1
548952	PROB	n/a	LTP362	ltpFR2	16	n/a	n/a	n/a	5	21	9	3	9
550569	PROB	n/a	LTP362	ltpFR2	16	n/a	n/a	n/a	5	24	8	9	7
553100	PROB	n/a	LTP362	ltpFR2	16	n/a	n/a	n/a	5	7	4	2	1
554450	PROB	n/a	LTP362	ltpFR2	16	n/a	n/a	n/a	5	8	3	1	4
555533	PROB	n/a	LTP362	ltpFR2	16	n/a	n/a	n/a	5	9	6	1	2
556882	PROB	n/a	LTP362	ltpFR2	16	n/a	n/a	n/a	5	11	5	2	4
558582	PROB	n/a	LTP362	ltpFR2	16	n/a	n/a	n/a	5	16	6	3	7
560203	STOP	n/a	LTP362	ltpFR2	16	n/a	n/a	n/a	5	n/a	n/a	n/a	n/a
562197	REC_START	n/a	LTP362	ltpFR2	16	3	n/a	n/a	n/a	n/a	0	0	0
563278	REC_WORD	wordpools/wasnorm_wordpool_576.txt	LTP362	ltpFR2	16	3	VICTIM	1562	n/a	n/a	0	0	0
564026	REC_WORD	wordpools/wasnorm_wordpool_576.txt	LTP362	ltpFR2	16	3	LAKE	796	n/a	n/a	0	0	0
564747	REC_WORD	wordpools/wasnorm_wordpool_576.txt	LTP362	ltpFR2	16	3	OUTLAW	989	n/a	n/a	0	0	0
567707	REC_WORD	wordpools/wasnorm_wordpool_576.txt	LTP362	ltpFR2	16	3	MARSH	874	n/a	n/a	0	0	0
568422	REC_WORD	wordpools/wasnorm_wordpool_576.txt	LTP362	ltpFR2	16	3	BASEMENT	94	n/a	n/a	0	0	0
569018	REC_WORD	wordpools/wasnorm_wordpool_576.txt	LTP362	ltpFR2	16	3	SPOON	1357	n/a	n/a	0	0	0
569685	REC_WORD	wordpools/wasnorm_wordpool_576.txt	LTP362	ltpFR2	16	3	HELMET	702	n/a	n/a	0	0	0
571953	REC_WORD	wordpools/wasnorm_wordpool_576.txt	LTP362	ltpFR2	16	3	JURY	766	n/a	n/a	0	0	0
594488	REC_WORD	wordpools/wasnorm_wordpool_576.txt	LTP362	ltpFR2	16	3	KLEENEX	782	n/a	n/a	0	0	0
652639	WORD	wordpools/wasnorm_wordpool_576.txt	LTP362	ltpFR2	16	4	TORTOISE	1486	n/a	n/a	0	0	0
655221	WORD	wordpools/wasnorm_wordpool_576.txt	LTP362	ltpFR2	16	4	CHAPEL	280	n/a	n/a	0	0	0
657686	WORD	wordpools/wasnorm_wordpool_576.txt	LTP362	ltpFR2	16	4	WRIST	1626	n/a	n/a	0	0	0
660386	WORD	wordpools/wasnorm_wordpool_576.txt	LTP362	ltpFR2	16	4	BODY	145	n/a	n/a	0	0	0
663050	WORD	wordpools/wasnorm_wordpool_576.txt	LTP362	ltpFR2	16	4	GIFT	635	n/a	n/a	0	0	0
665682	WORD	wordpools/wasnorm_wordpool_576.txt	LTP362	ltpFR2	16	4	BOARD	143	n/a	n/a	0	0	0
668416	WORD	wordpools/wasnorm_wordpool_576.txt	LTP362	ltpFR2	16	4	PREACHER	1119	n/a	n/a	0	0	0
670997	WORD	wordpools/wasnorm_wordpool_576.txt	LTP362	ltpFR2	16	4	CROSS	413	n/a	n/a	0	0	0
673596	WORD	wordpools/wasnorm_wordpool_576.txt	LTP362	ltpFR2	16	4	PLIERS	1089	n/a	n/a	0	0	0
676061	WORD	wordpools/wasnorm_wordpool_576.txt	LTP362	ltpFR2	16	4	FRUIT	610	n/a	n/a	0	0	0
678611	WORD	wordpools/wasnorm_wordpool_576.txt	LTP362	ltpFR2	16	4	PEANUT	1032	n/a	n/a	0	0	0
681075	WORD	wordpools/wasnorm_wordpool_576.txt	LTP362	ltpFR2	16	4	SUITCASE	1403	n/a	n/a	0	0	0
683674	WORD	wordpools/wasnorm_wordpool_576.txt	LTP362	ltpFR2	16	4	TURTLE	1522	n/a	n/a	0	0	0
686158	WORD	wordpools/wasnorm_wordpool_576.txt	LTP362	ltpFR2	16	4	BUCKET	184	n/a	n/a	0	0	0
688755	WORD	wordpools/wasnorm_wordpool_576.txt	LTP362	ltpFR2	16	4	SPIDER	1351	n/a	n/a	0	0	0
691239	WORD	wordpools/wasnorm_wordpool_576.txt	LTP362	ltpFR2	16	4	FIREPLACE	570	n/a	n/a	0	0	0
693903	WORD	wordpools/wasnorm_wordpool_576.txt	LTP362	ltpFR2	16	4	SPOUSE	1358	n/a	n/a	0	0	0
696486	WORD	wordpools/wasnorm_wordpool_576.txt	LTP362	ltpFR2	16	4	WIFE	1609	n/a	n/a	0	0	0
699302	WORD	wordpools/wasnorm_wordpool_576.txt	LTP362	ltpFR2	16	4	ROCKET	1202	n/a	n/a	0	0	0
702083	WORD	wordpools/wasnorm_wordpool_576.txt	LTP362	ltpFR2	16	4	BUREAU	199	n/a	n/a	0	0	0
704715	WORD	wordpools/wasnorm_wordpool_576.txt	LTP362	ltpFR2	16	4	DASHBOARD	441	n/a	n/a	0	0	0
707365	WORD	wordpools/wasnorm_wordpool_576.txt	LTP362	ltpFR2	16	4	TWEEZERS	1526	n/a	n/a	0	0	0
709812	WORD	wordpools/wasnorm_wordpool_576.txt	LTP362	ltpFR2	16	4	PIZZA	1079	n/a	n/a	0	0	0
712579	WORD	wordpools/wasnorm_wordpool_576.txt	LTP362	ltpFR2	16	4	DRILL	497	n/a	n/a	0	0	0
714195	START	n/a	LTP362	ltpFR2	16	n/a	n/a	n/a	6	n/a	n/a	n/a	n/a
715340	DISTRACTOR	n/a	LTP362	ltpFR2	16	4	n/a	n/a	n/a	n/a	0	0	0
715344	PROB	n/a	LTP362	ltpFR2	16	n/a	n/a	n/a	6	11	3	5	3
716759	PROB	n/a	LTP362	ltpFR2	16	n/a	n/a	n/a	6	10	4	4	2
718643	PROB	n/a	LTP362	ltpFR2	16	n/a	n/a	n/a	6	14	4	6	4
720008	PROB	n/a	LTP362	ltpFR2	16	n/a	n/a	n/a	6	16	7	8	1
721057	PROB	n/a	LTP362	ltpFR2	16	n/a	n/a	n/a	6	17	9	1	7
723040	PROB	n/a	LTP362	ltpFR2	16	n/a	n/a	n/a	6	23	8	8	7
725273	PROB	n/a	LTP362	ltpFR2	16	n/a	n/a	n/a	6	17	9	2	6
727105	PROB	n/a	LTP362	ltpFR2	16	n/a	n/a	n/a	6	19	7	9	3
728472	PROB	n/a	LTP362	ltpFR2	16	n/a	n/a	n/a	6	11	3	1	7
729787	PROB	n/a	LTP362	ltpFR2	16	n/a	n/a	n/a	6	20	3	8	9
731404	PROB	n/a	LTP362	ltpFR2	16	n/a	n/a	n/a	6	14	3	4	7
732835	PROB	n/a	LTP362	ltpFR2	16	n/a	n/a	n/a	6	21	9	9	3
734502	PROB	n/a	LTP362	ltpFR2	16	n/a	n/a	n/a	6	20	9	4	7
736335	PROB	n/a	LTP362	ltpFR2	16	n/a	n/a	n/a	6	11	1	7	3
737864	STOP	n/a	LTP362	ltpFR2	16	n/a	n/a	n/a	6	n/a	n/a	n/a	n/a
740150	REC_START	n/a	LTP362	ltpFR2	16	4	n/a	n/a	n/a	n/a	0	0	0
740706	REC_WORD	wordpools/wasnorm_wordpool_576.txt	LTP362	ltpFR2	16	4	DASHBOARD	441	n/a	n/a	0	0	0
741355	REC_WORD	wordpools/wasnorm_wordpool_576.txt	LTP362	ltpFR2	16	4	PLIERS	1089	n/a	n/a	0	0	0
742100	REC_WORD	wordpools/wasnorm_wordpool_576.txt	LTP362	ltpFR2	16	4	WIFE	1609	n/a	n/a	0	0	0
742553	REC_WORD	wordpools/wasnorm_wordpool_576.txt	LTP362	ltpFR2	16	4	SPOUSE	1358	n/a	n/a	0	0	0
744593	REC_WORD	wordpools/wasnorm_wordpool_576.txt	LTP362	ltpFR2	16	4	PIZZA	1079	n/a	n/a	0	0	0
746752	REC_WORD	wordpools/wasnorm_wordpool_576.txt	LTP362	ltpFR2	16	4	TWEEZERS	1526	n/a	n/a	0	0	0
830592	WORD	wordpools/wasnorm_wordpool_576.txt	LTP362	ltpFR2	16	5	HUSBAND	728	n/a	n/a	0	0	0
833258	WORD	wordpools/wasnorm_wordpool_576.txt	LTP362	ltpFR2	16	5	OUTFIT	988	n/a	n/a	0	0	0
836005	WORD	wordpools/wasnorm_wordpool_576.txt	LTP362	ltpFR2	16	5	MAMMAL	861	n/a	n/a	0	0	0
838589	WORD	wordpools/wasnorm_wordpool_576.txt	LTP362	ltpFR2	16	5	DOLPHIN	483	n/a	n/a	0	0	0
841371	WORD	wordpools/wasnorm_wordpool_576.txt	LTP362	ltpFR2	16	5	CAPTIVE	240	n/a	n/a	0	0	0
844085	WORD	wordpools/wasnorm_wordpool_576.txt	LTP362	ltpFR2	16	5	GIRL	637	n/a	n/a	0	0	0
846734	WORD	wordpools/wasnorm_wordpool_576.txt	LTP362	ltpFR2	16	5	DRAGON	492	n/a	n/a	0	0	0
849367	WORD	wordpools/wasnorm_wordpool_576.txt	LTP362	ltpFR2	16	5	FRAGRANCE	599	n/a	n/a	0	0	0
851982	WORD	wordpools/wasnorm_wordpool_576.txt	LTP362	ltpFR2	16	5	CIGAR	308	n/a	n/a	0	0	0
854598	WORD	wordpools/wasnorm_wordpool_576.txt	LTP362	ltpFR2	16	5	STATUE	1374	n/a	n/a	0	0	0
857164	WORD	wordpools/wasnorm_wordpool_576.txt	LTP362	ltpFR2	16	5	SCULPTURE	1258	n/a	n/a	0	0	0
859828	WORD	wordpools/wasnorm_wordpool_576.txt	LTP362	ltpFR2	16	5	RUST	1219	n/a	n/a	0	0	0
862478	WORD	wordpools/wasnorm_wordpool_576.txt	LTP362	ltpFR2	16	5	MARINE	869	n/a	n/a	0	0	0
865227	WORD	wordpools/wasnorm_wordpool_576.txt	LTP362	ltpFR2	16	5	SWORD	1423	n/a	n/a	0	0	0
868041	WORD	wordpools/wasnorm_wordpool_576.txt	LTP362	ltpFR2	16	5	BIKE	125	n/a	n/a	0	0	0
870557	WORD	wordpools/wasnorm_wordpool_576.txt	LTP362	ltpFR2	16	5	SEAL	1262	n/a	n/a	0	0	0
873290	WORD	wordpools/wasnorm_wordpool_576.txt	LTP362	ltpFR2	16	5	GANGSTER	620	n/a	n/a	0	0	0
875954	WORD	wordpools/wasnorm_wordpool_576.txt	LTP362	ltpFR2	16	5	RECEIPT	1173	n/a	n/a	0	0	0
878437	WORD	wordpools/wasnorm_wordpool_576.txt	LTP362	ltpFR2	16	5	SEAFOOD	1260	n/a	n/a	0	0	0
880935	WORD	wordpools/wasnorm_wordpool_576.txt	LTP362	ltpFR2	16	5	SNACK	1331	n/a	n/a	0	0	0
883667	WORD	wordpools/wasnorm_wordpool_576.txt	LTP362	ltpFR2	16	5	HEART	697	n/a	n/a	0	0	0
886400	WORD	wordpools/wasnorm_wordpool_576.txt	LTP362	ltpFR2	16	5	CANAL	226	n/a	n/a	0	0	0
888898	WORD	wordpools/wasnorm_wordpool_576.txt	LTP362	ltpFR2	16	5	PALACE	1006	n/a	n/a	0	0	0
891631	WORD	wordpools/wasnorm_wordpool_576.txt	LTP362	ltpFR2	16	5	RAZOR	1171	n/a	n/a	0	0	0
893248	START	n/a	LTP362	ltpFR2	16	n/a	n/a	n/a	7	n/a	n/a	n/a	n/a
894310	DISTRACTOR	n/a	LTP362	ltpFR2	16	5	n/a	n/a	n/a	n/a	0	0	0
894330	PROB	n/a	LTP362	ltpFR2	16	n/a	n/a	n/a	7	13	4	5	4
895895	PROB	n/a	LTP362	ltpFR2	16	n/a	n/a	n/a	7	13	6	6	1
896961	PROB	n/a	LTP362	ltpFR2	16	n/a	n/a	n/a	7	17	3	6	8
898428	PROB	n/a	LTP362	ltpFR2	16	n/a	n/a	n/a	7	9	7	1	1
899428	PROB	n/a	LTP362	ltpFR2	16	n/a	n/a	n/a	7	17	6	4	7
900644	PROB	n/a	LTP362	ltpFR2	16	n/a	n/a	n/a	7	24	6	9	9
902975	PROB	n/a	LTP362	ltpFR2	16	n/a	n/a	n/a	7	16	9	1	6
904226	PROB	n/a	LTP362	ltpFR2	16	n/a	n/a	n/a	7	15	6	2	7
906141	PROB	n/a	LTP362	ltpFR2	16	n/a	n/a	n/a	7	21	9	6	6
907241	PROB	n/a	LTP362	ltpFR2	16	n/a	n/a	n/a	7	13	5	6	2
908424	PROB	n/a	LTP362	ltpFR2	16	n/a	n/a	n/a	7	21	4	9	8
910273	PROB	n/a	LTP362	ltpFR2	16	n/a	n/a	n/a	7	16	3	6	7
911556	PROB	n/a	LTP362	ltpFR2	16	n/a	n/a	n/a	7	10	7	1	2
912871	PROB	n/a	LTP362	ltpFR2	16	n/a	n/a	n/a	7	18	9	2	7
914221	PROB	n/a	LTP362	ltpFR2	16	n/a	n/a	n/a	7	7	4	1	2
915271	PROB	n/a	LTP362	ltpFR2	16	n/a	n/a	n/a	7	5	2	2	1
916175	STOP	n/a	LTP362	ltpFR2	16	n/a	n/a	n/a	7	n/a	n/a	n/a	n/a
919052	REC_START	n/a	LTP362	ltpFR2	16	5	n/a	n/a	n/a	n/a	0	0	0
923695	REC_WORD	wordpools/wasnorm_wordpool_576.txt	LTP362	ltpFR2	16	5	SEAL	1262	n/a	n/a	0	0	0
924318	REC_WORD	wordpools/wasnorm_wordpool_576.txt	LTP362	ltpFR2	16	5	GANGSTER	620	n/a	n/a	0	0	0
926549	REC_WORD	wordpools/wasnorm_wordpool_576.txt	LTP362	ltpFR2	16	5	RECEIPT	1173	n/a	n/a	0	0	0
927234	REC_WORD	wordpools/wasnorm_wordpool_576.txt	LTP362	ltpFR2	16	5	SWORD	1423	n/a	n/a	0	0	0
929764	REC_WORD	wordpools/wasnorm_wordpool_576.txt	LTP362	ltpFR2	16	5	PALACE	1006	n/a	n/a	0	0	0
931374	REC_WORD	wordpools/wasnorm_wordpool_576.txt	LTP362	ltpFR2	16	5	SEAFOOD	1260	n/a	n/a	0	0	0
932011	REC_WORD	wordpools/wasnorm_wordpool_576.txt	LTP362	ltpFR2	16	5	SNACK	1331	n/a	n/a	0	0	0
973062	REC_WORD	wordpools/wasnorm_wordpool_576.txt	LTP362	ltpFR2	16	5	SHERIFF	1284	n/a	n/a	0	0	0
978471	REC_WORD	wordpools/wasnorm_wordpool_576.txt	LTP362	ltpFR2	16	5	CAPTIVE	240	n/a	n/a	0	0	0
979291	REC_WORD	wordpools/wasnorm_wordpool_576.txt	LTP362	ltpFR2	16	5	HUSBAND	728	n/a	n/a	0	0	0
982065	REC_WORD	wordpools/wasnorm_wordpool_576.txt	LTP362	ltpFR2	16	5	DOLPHIN	483	n/a	n/a	0	0	0
982700	REC_WORD	wordpools/wasnorm_wordpool_576.txt	LTP362	ltpFR2	16	5	OUTFIT	988	n/a	n/a	0	0	0
984213	REC_WORD	wordpools/wasnorm_wordpool_576.txt	LTP362	ltpFR2	16	5	COSTUME	383	n/a	n/a	0	0	0
1009478	DISTRACTOR	n/a	LTP362	ltpFR2	16	6	n/a	n/a	n/a	n/a	0	0	0
1009478	START	n/a	LTP362	ltpFR2	16	n/a	n/a	n/a	8	n/a	n/a	n/a	n/a
1009495	PROB	n/a	LTP362	ltpFR2	16	n/a	n/a	n/a	8	13	6	2	5
1011194	PROB	n/a	LTP362	ltpFR2	16	n/a	n/a	n/a	8	12	1	9	2
1012676	PROB	n/a	LTP362	ltpFR2	16	n/a	n/a	n/a	8	14	1	4	9
1013858	PROB	n/a	LTP362	ltpFR2	16	n/a	n/a	n/a	8	18	5	9	4
1015509	PROB	n/a	LTP362	ltpFR2	16	n/a	n/a	n/a	8	6	3	1	2
1016625	PROB	n/a	LTP362	ltpFR2	16	n/a	n/a	n/a	8	18	5	7	6
1018441	PROB	n/a	LTP362	ltpFR2	16	n/a	n/a	n/a	8	12	4	5	3
1019607	PROB	n/a	LTP362	ltpFR2	16	n/a	n/a	n/a	8	21	7	5	9
1022572	PROB	n/a	LTP362	ltpFR2	16	n/a	n/a	n/a	8	17	2	6	9
1024138	PROB	n/a	LTP362	ltpFR2	16	n/a	n/a	n/a	8	17	5	5	7
1025238	PROB	n/a	LTP362	ltpFR2	16	n/a	n/a	n/a	8	17	3	5	9
1026654	PROB	n/a	LTP362	ltpFR2	16	n/a	n/a	n/a	8	16	5	6	5
1027735	PROB	n/a	LTP362	ltpFR2	16	n/a	n/a	n/a	8	12	2	1	9
1028868	PROB	n/a	LTP362	ltpFR2	16	n/a	n/a	n/a	8	16	5	3	8
1030219	PROB	n/a	LTP362	ltpFR2	16	n/a	n/a	n/a	8	13	5	4	4
1032626	STOP	n/a	LTP362	ltpFR2	16	n/a	n/a	n/a	8	n/a	n/a	n/a	n/a
1034666	WORD	wordpools/wasnorm_wordpool_576.txt	LTP362	ltpFR2	16	6	THIEF	1456	n/a	n/a	0	0	0
1037199	WORD	wordpools/wasnorm_wordpool_576.txt	LTP362	ltpFR2	16	6	WORLD	1622	n/a	n/a	0	0	0
1039680	WORD	wordpools/wasnorm_wordpool_576.txt	LTP362	ltpFR2	16	6	COMET	353	n/a	n/a	0	0	0
1042296	WORD	wordpools/wasnorm_wordpool_576.txt	LTP362	ltpFR2	16	6	PILOT	1070	n/a	n/a	0	0	0
1044994	WORD	wordpools/wasnorm_wordpool_576.txt	LTP362	ltpFR2	16	6	ITEM	746	n/a	n/a	0	0	0
1047627	WORD	wordpools/wasnorm_wordpool_576.txt	LTP362	ltpFR2	16	6	GREASE	660	n/a	n/a	0	0	0
1050075	WORD	wordpools/wasnorm_wordpool_576.txt	LTP362	ltpFR2	16	6	NOMAD	955	n/a	n/a	0	0	0
1052824	WORD	wordpools/wasnorm_wordpool_576.txt	LTP362	ltpFR2	16	6	MAPLE	866	n/a	n/a	0	0	0
1055524	WORD	wordpools/wasnorm_wordpool_576.txt	LTP362	ltpFR2	16	6	TAXI	1438	n/a	n/a	0	0	0
1057988	WORD	wordpools/wasnorm_wordpool_576.txt	LTP362	ltpFR2	16	6	SNAIL	1332	n/a	n/a	0	0	0
1060720	WORD	wordpools/wasnorm_wordpool_576.txt	LTP362	ltpFR2	16	6	SOFTBALL	1343	n/a	n/a	0	0	0
1063270	WORD	wordpools/wasnorm_wordpool_576.txt	LTP362	ltpFR2	16	6	MOTOR	922	n/a	n/a	0	0	0
1065702	WORD	wordpools/wasnorm_wordpool_576.txt	LTP362	ltpFR2	16	6	POLICE	1098	n/a	n/a	0	0	0
1068368	WORD	wordpools/wasnorm_wordpool_576.txt	LTP362	ltpFR2	16	6	SALAD	1224	n/a	n/a	0	0	0
1070799	WORD	wordpools/wasnorm_wordpool_576.txt	LTP362	ltpFR2	16	6	GRAPE	654	n/a	n/a	0	0	0
1073249	WORD	wordpools/wasnorm_wordpool_576.txt	LTP362	ltpFR2	16	6	CHAUFFEUR	283	n/a	n/a	0	0	0
1075864	WORD	wordpools/wasnorm_wordpool_576.txt	LTP362	ltpFR2	16	6	SALMON	1227	n/a	n/a	0	0	0
1078330	WORD	wordpools/wasnorm_wordpool_576.txt	LTP362	ltpFR2	16	6	HOOK	715	n/a	n/a	0	0	0
1081145	WORD	wordpools/wasnorm_wordpool_576.txt	LTP362	ltpFR2	16	6	COCOON	339	n/a	n/a	0	0	0
1083860	WORD	wordpools/wasnorm_wordpool_576.txt	LTP362	ltpFR2	16	6	SIDEWALK	1303	n/a	n/a	0	0	0
1086293	WORD	wordpools/wasnorm_wordpool_576.txt	LTP362	ltpFR2	16	6	BADGE	68	n/a	n/a	0	0	0
1088758	WORD	wordpools/wasnorm_wordpool_576.txt	LTP362	ltpFR2	16	6	AGENT	10	n/a	n/a	0	0	0
1091458	WORD	wordpools/wasnorm_wordpool_576.txt	LTP362	ltpFR2	16	6	DONOR	485	n/a	n/a	0	0	0
1094173	WORD	wordpools/wasnorm_wordpool_576.txt	LTP362	ltpFR2	16	6	RACKET	1155	n/a	n/a	0	0	0
1095788	START	n/a	LTP362	ltpFR2	16	n/a	n/a	n/a	9	n/a	n/a	n/a	n/a
1096982	DISTRACTOR	n/a	LTP362	ltpFR2	16	6	n/a	n/a	n/a	n/a	0	0	0
1096987	PROB	n/a	LTP362	ltpFR2	16	n/a	n/a	n/a	9	14	3	2	9
1098538	PROB	n/a	LTP362	ltpFR2	16	n/a	n/a	n/a	9	7	1	1	5
1099537	PROB	n/a	LTP362	ltpFR2	16	n/a	n/a	n/a	9	13	2	3	8
1100869	PROB	n/a	LTP362	ltpFR2	16	n/a	n/a	n/a	9	14	3	2	9
1102785	PROB	n/a	LTP362	ltpFR2	16	n/a	n/a	n/a	9	15	5	2	8
1103901	PROB	n/a	LTP362	ltpFR2	16	n/a	n/a	n/a	9	14	7	3	4
1105368	PROB	n/a	LTP362	ltpFR2	16	n/a	n/a	n/a	9	5	1	2	2
1106351	PROB	n/a	LTP362	ltpFR2	16	n/a	n/a	n/a	9	14	9	3	2
1107617	PROB	n/a	LTP362	ltpFR2	16	n/a	n/a	n/a	9	14	9	2	3
1108982	PROB	n/a	LTP362	ltpFR2	16	n/a	n/a	n/a	9	19	6	7	6
1110516	PROB	n/a	LTP362	ltpFR2	16	n/a	n/a	n/a	9	14	8	2	4
1111814	PROB	n/a	LTP362	ltpFR2	16	n/a	n/a	n/a	9	15	5	1	9
1112947	PROB	n/a	LTP362	ltpFR2	16	n/a	n/a	n/a	9	17	8	4	5
1114264	PROB	n/a	LTP362	ltpFR2	16	n/a	n/a	n/a	9	15	5	8	2
1115413	PROB	n/a	LTP362	ltpFR2	16	n/a	n/a	n/a	9	26	9	9	8
1117012	PROB	n/a	LTP362	ltpFR2	16	n/a	n/a	n/a	9	9	1	7	1
1119788	STOP	n/a	LTP362	ltpFR2	16	n/a	n/a	n/a	9	n/a	n/a	n/a	n/a
1121660	REC_START	n/a	LTP362	ltpFR2	16	6	n/a	n/a	n/a	n/a	0	0	0
1122481	REC_WORD	wordpools/wasnorm_wordpool_576.txt	LTP362	ltpFR2	16	6	HOOK	715	n/a	n/a	0	0	0
1122917	REC_WORD	wordpools/wasnorm_wordpool_576.txt	LTP362	ltpFR2	16	6	COCOON	339	n/a	n/a	0	0	0
1123580	REC_WORD	wordpools/wasnorm_wordpool_576.txt	LTP362	ltpFR2	16	6	SIDEWALK	1303	n/a	n/a	0	0	0
1124418	REC_WORD	wordpools/wasnorm_wordpool_576.txt	LTP362	ltpFR2	16	6	BADGE	68	n/a	n/a	0	0	0
1125044	REC_WORD	wordpools/wasnorm_wordpool_576.txt	LTP362	ltpFR2	16	6	AGENT	10	n/a	n/a	0	0	0
1212102	DISTRACTOR	n/a	LTP362	ltpFR2	16	7	n/a	n/a	n/a	n/a	0	0	0
1212102	START	n/a	LTP362	ltpFR2	16	n/a	n/a	n/a	10	n/a	n/a	n/a	n/a
1212119	PROB	n/a	LTP362	ltpFR2	16	n/a	n/a	n/a	10	12	6	5	1
1213202	PROB	n/a	LTP362	ltpFR2	16	n/a	n/a	n/a	10	12	2	9	1
1214285	PROB	n/a	LTP362	ltpFR2	16	n/a	n/a	n/a	10	14	9	2	3
1215784	PROB	n/a	LTP362	ltpFR2	16	n/a	n/a	n/a	10	14	3	5	6
1218033	PROB	n/a	LTP362	ltpFR2	16	n/a	n/a	n/a	10	20	6	9	5
1219466	PROB	n/a	LTP362	ltpFR2	16	n/a	n/a	n/a	10	22	8	5	9
1221565	PROB	n/a	LTP362	ltpFR2	16	n/a	n/a	n/a	10	20	7	7	6
1223181	PROB	n/a	LTP362	ltpFR2	16	n/a	n/a	n/a	10	12	6	2	4
1224581	PROB	n/a	LTP362	ltpFR2	16	n/a	n/a	n/a	10	20	8	3	9
1225929	PROB	n/a	LTP362	ltpFR2	16	n/a	n/a	n/a	10	5	1	1	3
1227112	PROB	n/a	LTP362	ltpFR2	16	n/a	n/a	n/a	10	18	6	3	9
1228479	PROB	n/a	LTP362	ltpFR2	16	n/a	n/a	n/a	10	13	5	4	4
1229827	PROB	n/a	LTP362	ltpFR2	16	n/a	n/a	n/a	10	15	3	4	8
1231461	PROB	n/a	LTP362	ltpFR2	16	n/a	n/a	n/a	10	15	1	8	6
1233026	PROB	n/a	LTP362	ltpFR2	16	n/a	n/a	n/a	10	19	5	7	7
1235168	STOP	n/a	LTP362	ltpFR2	16	n/a	n/a	n/a	10	n/a	n/a	n/a	n/a
1237208	WORD	wordpools/wasnorm_wordpool_576.txt	LTP362	ltpFR2	16	7	PEDAL	1037	n/a	n/a	0	0	0
1239889	WORD	wordpools/wasnorm_wordpool_576.txt	LTP362	ltpFR2	16	7	DORM	488	n/a	n/a	0	0	0
1242705	WORD	wordpools/wasnorm_wordpool_576.txt	LTP362	ltpFR2	16	7	PADDLE	1000	n/a	n/a	0	0	0
1245188	WORD	wordpools/wasnorm_wordpool_576.txt	LTP362	ltpFR2	16	7	GAVEL	627	n/a	n/a	0	0	0
1247719	WORD	wordpools/wasnorm_wordpool_576.txt	LTP362	ltpFR2	16	7	HANDBAG	684	n/a	n/a	0	0	0
1250186	WORD	wordpools/wasnorm_wordpool_576.txt	LTP362	ltpFR2	16	7	BUTCHER	203	n/a	n/a	0	0	0
1252651	WORD	wordpools/wasnorm_wordpool_576.txt	LTP362	ltpFR2	16	7	MATTRESS	879	n/a	n/a	0	0	0
1255300	WORD	wordpools/wasnorm_wordpool_576.txt	LTP362	ltpFR2	16	7	IGLOO	734	n/a	n/a	0	0	0
1258081	WORD	wordpools/wasnorm_wordpool_576.txt	LTP362	ltpFR2	16	7	JOURNAL	760	n/a	n/a	0	0	0
1260531	WORD	wordpools/wasnorm_wordpool_576.txt	LTP362	ltpFR2	16	7	SHELF	1280	n/a	n/a	0	0	0
1263129	WORD	wordpools/wasnorm_wordpool_576.txt	LTP362	ltpFR2	16	7	FLESH	579	n/a	n/a	0	0	0
1265761	WORD	wordpools/wasnorm_wordpool_576.txt	LTP362	ltpFR2	16	7	POCKET	1093	n/a	n/a	0	0	0
1268261	WORD	wordpools/wasnorm_wordpool_576.txt	LTP362	ltpFR2	16	7	WITNESS	1618	n/a	n/a	0	0	0
1270942	WORD	wordpools/wasnorm_wordpool_576.txt	LTP362	ltpFR2	16	7	INMATE	738	n/a	n/a	0	0	0
1273757	WORD	wordpools/wasnorm_wordpool_576.txt	LTP362	ltpFR2	16	7	CELLAR	267	n/a	n/a	0	0	0
1276457	WORD	wordpools/wasnorm_wordpool_576.txt	LTP362	ltpFR2	16	7	QUAIL	1147	n/a	n/a	0	0	0
1278955	WORD	wordpools/wasnorm_wordpool_576.txt	LTP362	ltpFR2	16	7	SPARROW	1347	n/a	n/a	0	0	0
1281522	WORD	wordpools/wasnorm_wordpool_576.txt	LTP362	ltpFR2	16	7	MILDEW	893	n/a	n/a	0	0	0
1284187	WORD	wordpools/wasnorm_wordpool_576.txt	LTP362	ltpFR2	16	7	FLAG	573	n/a	n/a	0	0	0
1286619	WORD	wordpools/wasnorm_wordpool_576.txt	LTP362	ltpFR2	16	7	PASTRY	1022	n/a	n/a	0	0	0
1289050	WORD	wordpools/wasnorm_wordpool_576.txt	LTP362	ltpFR2	16	7	STOVE	1388	n/a	n/a	0	0	0
1291600	WORD	wordpools/wasnorm_wordpool_576.txt	LTP362	ltpFR2	16	7	BUBBLE	183	n/a	n/a	0	0	0
1294166	WORD	wordpools/wasnorm_wordpool_576.txt	LTP362	ltpFR2	16	7	QUARTER	1148	n/a	n/a	0	0	0
1296880	WORD	wordpools/wasnorm_wordpool_576.txt	LTP362	ltpFR2	16	7	DRUG	501	n/a	n/a	0	0	0
1298497	START	n/a	LTP362	ltpFR2	16	n/a	n/a	n/a	11	n/a	n/a	n/a	n/a
1299679	DISTRACTOR	n/a	LTP362	ltpFR2	16	7	n/a	n/a	n/a	n/a	0	0	0
1299696	PROB	n/a	LTP362	ltpFR2	16	n/a	n/a	n/a	11	13	2	2	9
1300995	PROB	n/a	LTP362	ltpFR2	16	n/a	n/a	n/a	11	17	7	8	2
1302612	PROB	n/a	LTP362	ltpFR2	16	n/a	n/a	n/a	11	16	4	3	9
1304195	PROB	n/a	LTP362	ltpFR2	16	n/a	n/a	n/a	11	20	3	9	8
1306026	PROB	n/a	LTP362	ltpFR2	16	n/a	n/a	n/a	11	9	5	3	1
1307393	PROB	n/a	LTP362	ltpFR2	16	n/a	n/a	n/a	11	15	5	6	4
1308808	PROB	n/a	LTP362	ltpFR2	16	n/a	n/a	n/a	11	15	9	1	5
1309891	PROB	n/a	LTP362	ltpFR2	16	n/a	n/a	n/a	11	20	3	8	9
1311308	PROB	n/a	LTP362	ltpFR2	16	n/a	n/a	n/a	11	18	8	9	1
1312906	PROB	n/a	LTP362	ltpFR2	16	n/a	n/a	n/a	11	17	4	9	4
1314357	PROB	n/a	LTP362	ltpFR2	16	n/a	n/a	n/a	11	14	9	4	1
1315639	PROB	n/a	LTP362	ltpFR2	16	n/a	n/a	n/a	11	14	1	8	5
1317572	PROB	n/a	LTP362	ltpFR2	16	n/a	n/a	n/a	11	15	8	1	4
1318970	PROB	n/a	LTP362	ltpFR2	16	n/a	n/a	n/a	11	9	1	1	7
1322491	STOP	n/a	LTP362	ltpFR2	16	n/a	n/a	n/a	11	n/a	n/a	n/a	n/a
1324369	REC_START	n/a	LTP362	ltpFR2	16	7	n/a	n/a	n/a	n/a	0	0	0
1325076	REC_WORD	wordpools/wasnorm_wordpool_576.txt	LTP362	ltpFR2	16	7	PEDAL	1037	n/a	n/a	0	0	0
1325640	REC_WORD	wordpools/wasnorm_wordpool_576.txt	LTP362	ltpFR2	16	7	PEDAL	1037	n/a	n/a	0	0	0
1326337	REC_WORD	wordpools/wasnorm_wordpool_576.txt	LTP362	ltpFR2	16	7	DORM	488	n/a	n/a	0	0	0
1414794	DISTRACTOR	n/a	LTP362	ltpFR2	16	8	n/a	n/a	n/a	n/a	0	0	0
1414794	START	n/a	LTP362	ltpFR2	16	n/a	n/a	n/a	12	n/a	n/a	n/a	n/a
1414810	PROB	n/a	LTP362	ltpFR2	16	n/a	n/a	n/a	12	22	9	4	9
1416294	PROB	n/a	LTP362	ltpFR2	16	n/a	n/a	n/a	12	11	2	2	7
1417809	PROB	n/a	LTP362	ltpFR2	16	n/a	n/a	n/a	12	19	5	6	8
1419125	PROB	n/a	LTP362	ltpFR2	16	n/a	n/a	n/a	12	16	3	8	5
1420807	PROB	n/a	LTP362	ltpFR2	16	n/a	n/a	n/a	12	12	6	1	5
1421940	PROB	n/a	LTP362	ltpFR2	16	n/a	n/a	n/a	12	20	8	9	3
1424174	PROB	n/a	LTP362	ltpFR2	16	n/a	n/a	n/a	12	16	8	5	3
1425805	PROB	n/a	LTP362	ltpFR2	16	n/a	n/a	n/a	12	20	9	9	2
1426955	PROB	n/a	LTP362	ltpFR2	16	n/a	n/a	n/a	12	9	7	1	1
1428021	PROB	n/a	LTP362	ltpFR2	16	n/a	n/a	n/a	12	26	9	9	8
1430919	PROB	n/a	LTP362	ltpFR2	16	n/a	n/a	n/a	12	17	8	5	4
1432187	PROB	n/a	LTP362	ltpFR2	16	n/a	n/a	n/a	12	16	2	6	8
1433735	PROB	n/a	LTP362	ltpFR2	16	n/a	n/a	n/a	12	6	2	1	3
1434934	PROB	n/a	LTP362	ltpFR2	16	n/a	n/a	n/a	12	20	9	9	2
1436235	PROB	n/a	LTP362	ltpFR2	16	n/a	n/a	n/a	12	12	5	3	4
1438167	STOP	n/a	LTP362	ltpFR2	16	n/a	n/a	n/a	12	n/a	n/a	n/a	n/a
1439965	WORD	wordpools/wasnorm_wordpool_576.txt	LTP362	ltpFR2	16	8	CASHIER	254	n/a	n/a	0	0	0
1442714	WORD	wordpools/wasnorm_wordpool_576.txt	LTP362	ltpFR2	16	8	TABLET	1427	n/a	n/a	0	0	0
1445347	WORD	wordpools/wasnorm_wordpool_576.txt	LTP362	ltpFR2	16	8	CHIPMUNK	304	n/a	n/a	0	0	0
1448012	WORD	wordpools/wasnorm_wordpool_576.txt	LTP362	ltpFR2	16	8	PLATE	1086	n/a	n/a	0	0	0
1450545	WORD	wordpools/wasnorm_wordpool_576.txt	LTP362	ltpFR2	16	8	STALLION	1369	n/a	n/a	0	0	0
1453010	WORD	wordpools/wasnorm_wordpool_576.txt	LTP362	ltpFR2	16	8	ROBIN	1199	n/a	n/a	0	0	0
1455493	WORD	wordpools/wasnorm_wordpool_576.txt	LTP362	ltpFR2	16	8	SHIRT	1287	n/a	n/a	0	0	0
1458057	WORD	wordpools/wasnorm_wordpool_576.txt	LTP362	ltpFR2	16	8	HONEY	713	n/a	n/a	0	0	0
1460590	WORD	wordpools/wasnorm_wordpool_576.txt	LTP362	ltpFR2	16	8	COD	340	n/a	n/a	0	0	0
1463356	WORD	wordpools/wasnorm_wordpool_576.txt	LTP362	ltpFR2	16	8	SUNSET	1408	n/a	n/a	0	0	0
1465970	WORD	wordpools/wasnorm_wordpool_576.txt	LTP362	ltpFR2	16	8	SURVEY	1414	n/a	n/a	0	0	0
1468587	WORD	wordpools/wasnorm_wordpool_576.txt	LTP362	ltpFR2	16	8	NIGHTGOWN	953	n/a	n/a	0	0	0
1471352	WORD	wordpools/wasnorm_wordpool_576.txt	LTP362	ltpFR2	16	8	SILK	1307	n/a	n/a	0	0	0
1473917	WORD	wordpools/wasnorm_wordpool_576.txt	LTP362	ltpFR2	16	8	MAILMAN	858	n/a	n/a	0	0	0
1476699	WORD	wordpools/wasnorm_wordpool_576.txt	LTP362	ltpFR2	16	8	MESSAGE	888	n/a	n/a	0	0	0
1479349	WORD	wordpools/wasnorm_wordpool_576.txt	LTP362	ltpFR2	16	8	DANCER	437	n/a	n/a	0	0	0
1481946	WORD	wordpools/wasnorm_wordpool_576.txt	LTP362	ltpFR2	16	8	LIGHTNING	820	n/a	n/a	0	0	0
1484712	WORD	wordpools/wasnorm_wordpool_576.txt	LTP362	ltpFR2	16	8	SISTER	1312	n/a	n/a	0	0	0
1487395	WORD	wordpools/wasnorm_wordpool_576.txt	LTP362	ltpFR2	16	8	SIBLING	1301	n/a	n/a	0	0	0
1490210	WORD	wordpools/wasnorm_wordpool_576.txt	LTP362	ltpFR2	16	8	JUNGLE	764	n/a	n/a	0	0	0
1492775	WORD	wordpools/wasnorm_wordpool_576.txt	LTP362	ltpFR2	16	8	BOYFRIEND	162	n/a	n/a	0	0	0
1495525	WORD	wordpools/wasnorm_wordpool_576.txt	LTP362	ltpFR2	16	8	TOURIST	1488	n/a	n/a	0	0	0
1497972	WORD	wordpools/wasnorm_wordpool_576.txt	LTP362	ltpFR2	16	8	SHARK	1275	n/a	n/a	0	0	0
1500622	WORD	wordpools/wasnorm_wordpool_576.txt	LTP362	ltpFR2	16	8	ARMY	39	n/a	n/a	0	0	0
1502239	START	n/a	LTP362	ltpFR2	16	n/a	n/a	n/a	13	n/a	n/a	n/a	n/a
1503217	DISTRACTOR	n/a	LTP362	ltpFR2	16	8	n/a	n/a	n/a	n/a	0	0	0
1503221	PROB	n/a	LTP362	ltpFR2	16	n/a	n/a	n/a	13	19	4	9	6
1504819	PROB	n/a	LTP362	ltpFR2	16	n/a	n/a	n/a	13	8	4	3	1
1506119	PROB	n/a	LTP362	ltpFR2	16	n/a	n/a	n/a	13	21	5	9	7
1508668	PROB	n/a	LTP362	ltpFR2	16	n/a	n/a	n/a	13	18	6	2	6
1510135	PROB	n/a	LTP362	ltpFR2	16	n/a	n/a	n/a	13	16	6	5	5
1511783	PROB	n/a	LTP362	ltpFR2	16	n/a	n/a	n/a	13	14	1	9	4
1513200	PROB	n/a	LTP362	ltpFR2	16	n/a	n/a	n/a	13	10	1	2	7
1514433	PROB	n/a	LTP362	ltpFR2	16	n/a	n/a	n/a	13	24	9	8	7
1515914	PROB	n/a	LTP362	ltpFR2	16	n/a	n/a	n/a	13	15	2	7	6
1517265	PROB	n/a	LTP362	ltpFR2	16	n/a	n/a	n/a	13	11	2	8	1
1518581	PROB	n/a	LTP362	ltpFR2	16	n/a	n/a	n/a	13	20	7	6	7
1519796	PROB	n/a	LTP362	ltpFR2	16	n/a	n/a	n/a	13	17	8	8	1
1521280	PROB	n/a	LTP362	ltpFR2	16	n/a	n/a	n/a	13	14	5	2	7
1523412	PROB	n/a	LTP362	ltpFR2	16	n/a	n/a	n/a	13	15	6	3	6
1524920	STOP	n/a	LTP362	ltpFR2	16	n/a	n/a	n/a	13	n/a	n/a	n/a	n/a
1528093	REC_START	n/a	LTP362	ltpFR2	16	8	n/a	n/a	n/a	n/a	0	0	0
1528963	REC_WORD	wordpools/wasnorm_wordpool_576.txt	LTP362	ltpFR2	16	8	SUNSET	1408	n/a	n/a	0	0	0
1529756	REC_WORD	wordpools/wasnorm_wordpool_576.txt	LTP362	ltpFR2	16	8	SILK	1307	n/a	n/a	0	0	0
1531544	REC_WORD	wordpools/wasnorm_wordpool_576.txt	LTP362	ltpFR2	16	8	SISTER	1312	n/a	n/a	0	0	0
1532286	REC_WORD	wordpools/wasnorm_wordpool_576.txt	LTP362	ltpFR2	16	8	SIBLING	1301	n/a	n/a	0	0	0
1533081	REC_WORD	wordpools/wasnorm_wordpool_576.txt	LTP362	ltpFR2	16	8	BOYFRIEND	162	n/a	n/a	0	0	0
1539347	REC_WORD	wordpools/wasnorm_wordpool_576.txt	LTP362	ltpFR2	16	8	SHARK	1275	n/a	n/a	0	0	0
1539757	REC_WORD	wordpools/wasnorm_wordpool_576.txt	LTP362	ltpFR2	16	8	ARMY	39	n/a	n/a	0	0	0
1604625	REST_REWET	n/a	LTP362	ltpFR2	16	8	n/a	n/a	n/a	n/a	0	0	0
1754790	WORD	wordpools/wasnorm_wordpool_576.txt	LTP362	ltpFR2	16	9	DUSTPAN	509	n/a	n/a	0	0	0
1757539	WORD	wordpools/wasnorm_wordpool_576.txt	LTP362	ltpFR2	16	9	MOP	916	n/a	n/a	0	0	0
1760155	WORD	wordpools/wasnorm_wordpool_576.txt	LTP362	ltpFR2	16	9	SCALPEL	1243	n/a	n/a	0	0	0
1762969	WORD	wordpools/wasnorm_wordpool_576.txt	LTP362	ltpFR2	16	9	PUPIL	1143	n/a	n/a	0	0	0
1765785	WORD	wordpools/wasnorm_wordpool_576.txt	LTP362	ltpFR2	16	9	LETTUCE	814	n/a	n/a	0	0	0
1768251	WORD	wordpools/wasnorm_wordpool_576.txt	LTP362	ltpFR2	16	9	CHILD	299	n/a	n/a	0	0	0
1770799	WORD	wordpools/wasnorm_wordpool_576.txt	LTP362	ltpFR2	16	9	SCALLOP	1242	n/a	n/a	0	0	0
1773465	WORD	wordpools/wasnorm_wordpool_576.txt	LTP362	ltpFR2	16	9	BEAVER	109	n/a	n/a	0	0	0
1775930	WORD	wordpools/wasnorm_wordpool_576.txt	LTP362	ltpFR2	16	9	CLOCK	325	n/a	n/a	0	0	0
1778630	WORD	wordpools/wasnorm_wordpool_576.txt	LTP362	ltpFR2	16	9	FUNGUS	614	n/a	n/a	0	0	0
1781078	WORD	wordpools/wasnorm_wordpool_576.txt	LTP362	ltpFR2	16	9	PARENT	1013	n/a	n/a	0	0	0
1783710	WORD	wordpools/wasnorm_wordpool_576.txt	LTP362	ltpFR2	16	9	DIME	466	n/a	n/a	0	0	0
1786543	WORD	wordpools/wasnorm_wordpool_576.txt	LTP362	ltpFR2	16	9	LOFT	840	n/a	n/a	0	0	0
1789325	WORD	wordpools/wasnorm_wordpool_576.txt	LTP362	ltpFR2	16	9	MOTEL	919	n/a	n/a	0	0	0
1791923	WORD	wordpools/wasnorm_wordpool_576.txt	LTP362	ltpFR2	16	9	CANYON	235	n/a	n/a	0	0	0
1794556	WORD	wordpools/wasnorm_wordpool_576.txt	LTP362	ltpFR2	16	9	SWITCH	1422	n/a	n/a	0	0	0
1797321	WORD	wordpools/wasnorm_wordpool_576.txt	LTP362	ltpFR2	16	9	LAVA	804	n/a	n/a	0	0	0
1799886	WORD	wordpools/wasnorm_wordpool_576.txt	LTP362	ltpFR2	16	9	BACKBONE	66	n/a	n/a	0	0	0
1802569	WORD	wordpools/wasnorm_wordpool_576.txt	LTP362	ltpFR2	16	9	FEMALE	559	n/a	n/a	0	0	0
1805134	WORD	wordpools/wasnorm_wordpool_576.txt	LTP362	ltpFR2	16	9	LOVER	846	n/a	n/a	0	0	0
1807617	WORD	wordpools/wasnorm_wordpool_576.txt	LTP362	ltpFR2	16	9	FLEET	578	n/a	n/a	0	0	0
1810065	WORD	wordpools/wasnorm_wordpool_576.txt	LTP362	ltpFR2	16	9	GRIZZLY	662	n/a	n/a	0	0	0
1812863	WORD	wordpools/wasnorm_wordpool_576.txt	LTP362	ltpFR2	16	9	VALLEY	1545	n/a	n/a	0	0	0
1815563	WORD	wordpools/wasnorm_wordpool_576.txt	LTP362	ltpFR2	16	9	TWIG	1527	n/a	n/a	0	0	0
1817179	START	n/a	LTP362	ltpFR2	16	n/a	n/a	n/a	14	n/a	n/a	n/a	n/a
1818011	DISTRACTOR	n/a	LTP362	ltpFR2	16	9	n/a	n/a	n/a	n/a	0	0	0
1818028	PROB	n/a	LTP362	ltpFR2	16	n/a	n/a	n/a	14	15	7	5	3
1819660	PROB	n/a	LTP362	ltpFR2	16	n/a	n/a	n/a	14	8	3	2	3
1821294	PROB	n/a	LTP362	ltpFR2	16	n/a	n/a	n/a	14	9	6	1	2
1822410	PROB	n/a	LTP362	ltpFR2	16	n/a	n/a	n/a	14	14	2	4	8
1823742	PROB	n/a	LTP362	ltpFR2	16	n/a	n/a	n/a	14	18	2	8	8
1825124	PROB	n/a	LTP362	ltpFR2	16	n/a	n/a	n/a	14	15	7	2	6
1826475	PROB	n/a	LTP362	ltpFR2	16	n/a	n/a	n/a	14	16	8	3	5
1828341	PROB	n/a	LTP362	ltpFR2	16	n/a	n/a	n/a	14	19	8	2	9
1829507	PROB	n/a	LTP362	ltpFR2	16	n/a	n/a	n/a	14	17	3	5	9
1831005	PROB	n/a	LTP362	ltpFR2	16	n/a	n/a	n/a	14	9	5	3	1
1832139	PROB	n/a	LTP362	ltpFR2	16	n/a	n/a	n/a	14	14	3	2	9
1833704	PROB	n/a	LTP362	ltpFR2	16	n/a	n/a	n/a	14	18	7	6	5
1835254	PROB	n/a	LTP362	ltpFR2	16	n/a	n/a	n/a	14	18	9	5	4
1836570	PROB	n/a	LTP362	ltpFR2	16	n/a	n/a	n/a	14	17	9	5	3
1838170	PROB	n/a	LTP362	ltpFR2	16	n/a	n/a	n/a	14	11	3	1	7
1839336	PROB	n/a	LTP362	ltpFR2	16	n/a	n/a	n/a	14	11	4	3	4
1840754	STOP	n/a	LTP362	ltpFR2	16	n/a	n/a	n/a	14	n/a	n/a	n/a	n/a
1843034	REC_START	n/a	LTP362	ltpFR2	16	9	n/a	n/a	n/a	n/a	0	0	0
1843926	REC_WORD	wordpools/wasnorm_wordpool_576.txt	LTP362	ltpFR2	16	9	CANYON	235	n/a	n/a	0	0	0
1844357	REC_WORD	wordpools/wasnorm_wordpool_576.txt	LTP362	ltpFR2	16	9	SWITCH	1422	n/a	n/a	0	0	0
1844901	REC_WORD	wordpools/wasnorm_wordpool_576.txt	LTP362	ltpFR2	16	9	FEMALE	559	n/a	n/a	0	0	0
1845429	REC_WORD	wordpools/wasnorm_wordpool_576.txt	LTP362	ltpFR2	16	9	LOVER	846	n/a	n/a	0	0	0
1933476	DISTRACTOR	n/a	LTP362	ltpFR2	16	10	n/a	n/a	n/a	n/a	0	0	0
1933477	START	n/a	LTP362	ltpFR2	16	n/a	n/a	n/a	15	n/a	n/a	n/a	n/a
1933493	PROB	n/a	LTP362	ltpFR2	16	n/a	n/a	n/a	15	21	9	7	6
1935476	PROB	n/a	LTP362	ltpFR2	16	n/a	n/a	n/a	15	22	9	7	6
1936891	PROB	n/a	LTP362	ltpFR2	16	n/a	n/a	n/a	15	17	9	1	7
1938557	PROB	n/a	LTP362	ltpFR2	16	n/a	n/a	n/a	15	17	8	1	8
1940340	PROB	n/a	LTP362	ltpFR2	16	n/a	n/a	n/a	15	15	1	5	9
1941439	PROB	n/a	LTP362	ltpFR2	16	n/a	n/a	n/a	15	18	5	5	8
1942721	PROB	n/a	LTP362	ltpFR2	16	n/a	n/a	n/a	15	13	6	5	2
1944004	PROB	n/a	LTP362	ltpFR2	16	n/a	n/a	n/a	15	13	4	5	2
1949619	PROB	n/a	LTP362	ltpFR2	16	n/a	n/a	n/a	15	10	3	2	5
1952933	PROB	n/a	LTP362	ltpFR2	16	n/a	n/a	n/a	15	19	5	9	5
1954066	PROB	n/a	LTP362	ltpFR2	16	n/a	n/a	n/a	15	19	6	7	6
1957476	STOP	n/a	LTP362	ltpFR2	16	n/a	n/a	n/a	15	n/a	n/a	n/a	n/a
1958448	WORD	wordpools/wasnorm_wordpool_576.txt	LTP362	ltpFR2	16	10	LILY	821	n/a	n/a	0	0	0
1960880	WORD	wordpools/wasnorm_wordpool_576.txt	LTP362	ltpFR2	16	10	HOSTESS	723	n/a	n/a	0	0	0
1963429	WORD	wordpools/wasnorm_wordpool_576.txt	LTP362	ltpFR2	16	10	ROD	1203	n/a	n/a	0	0	0
1966145	WORD	wordpools/wasnorm_wordpool_576.txt	LTP362	ltpFR2	16	10	FRECKLE	602	n/a	n/a	0	0	0
1968709	WORD	wordpools/wasnorm_wordpool_576.txt	LTP362	ltpFR2	16	10	BELLY	119	n/a	n/a	0	0	0
1971309	WORD	wordpools/wasnorm_wordpool_576.txt	LTP362	ltpFR2	16	10	COOK	372	n/a	n/a	0	0	0
1973974	WORD	wordpools/wasnorm_wordpool_576.txt	LTP362	ltpFR2	16	10	COUSIN	392	n/a	n/a	0	0	0
1976557	WORD	wordpools/wasnorm_wordpool_576.txt	LTP362	ltpFR2	16	10	SPHINX	1349	n/a	n/a	0	0	0
1979005	WORD	wordpools/wasnorm_wordpool_576.txt	LTP362	ltpFR2	16	10	LADDER	793	n/a	n/a	0	0	0
1981787	WORD	wordpools/wasnorm_wordpool_576.txt	LTP362	ltpFR2	16	10	SLIDE	1326	n/a	n/a	0	0	0
1984587	WORD	wordpools/wasnorm_wordpool_576.txt	LTP362	ltpFR2	16	10	SLOPE	1328	n/a	n/a	0	0	0
1987185	WORD	wordpools/wasnorm_wordpool_576.txt	LTP362	ltpFR2	16	10	HIKER	708	n/a	n/a	0	0	0
1989850	WORD	wordpools/wasnorm_wordpool_576.txt	LTP362	ltpFR2	16	10	LAPEL	800	n/a	n/a	0	0	0
1992665	WORD	wordpools/wasnorm_wordpool_576.txt	LTP362	ltpFR2	16	10	REPORT	1184	n/a	n/a	0	0	0
1995182	WORD	wordpools/wasnorm_wordpool_576.txt	LTP362	ltpFR2	16	10	OUTDOORS	987	n/a	n/a	0	0	0
1997631	WORD	wordpools/wasnorm_wordpool_576.txt	LTP362	ltpFR2	16	10	TURNIP	1521	n/a	n/a	0	0	0
2000246	WORD	wordpools/wasnorm_wordpool_576.txt	LTP362	ltpFR2	16	10	DIVER	476	n/a	n/a	0	0	0
2002694	WORD	wordpools/wasnorm_wordpool_576.txt	LTP362	ltpFR2	16	10	BATHTUB	100	n/a	n/a	0	0	0
2005444	WORD	wordpools/wasnorm_wordpool_576.txt	LTP362	ltpFR2	16	10	CLOTHES	327	n/a	n/a	0	0	0
2008125	WORD	wordpools/wasnorm_wordpool_576.txt	LTP362	ltpFR2	16	10	COSTUME	383	n/a	n/a	0	0	0
2010857	WORD	wordpools/wasnorm_wordpool_576.txt	LTP362	ltpFR2	16	10	COOKBOOK	373	n/a	n/a	0	0	0
2013540	WORD	wordpools/wasnorm_wordpool_576.txt	LTP362	ltpFR2	16	10	ULCER	1533	n/a	n/a	0	0	0
2016189	WORD	wordpools/wasnorm_wordpool_576.txt	LTP362	ltpFR2	16	10	STAPLE	1371	n/a	n/a	0	0	0
2018803	WORD	wordpools/wasnorm_wordpool_576.txt	LTP362	ltpFR2	16	10	BRIEFCASE	175	n/a	n/a	0	0	0
2020421	START	n/a	LTP362	ltpFR2	16	n/a	n/a	n/a	16	n/a	n/a	n/a	n/a
2021457	DISTRACTOR	n/a	LTP362	ltpFR2	16	10	n/a	n/a	n/a	n/a	0	0	0
2021470	PROB	n/a	LTP362	ltpFR2	16	n/a	n/a	n/a	16	10	4	3	3
2023169	PROB	n/a	LTP362	ltpFR2	16	n/a	n/a	n/a	16	22	9	8	5
2025185	PROB	n/a	LTP362	ltpFR2	16	n/a	n/a	n/a	16	24	9	9	6
2027251	PROB	n/a	LTP362	ltpFR2	16	n/a	n/a	n/a	16	19	9	2	8
2028400	PROB	n/a	LTP362	ltpFR2	16	n/a	n/a	n/a	16	18	4	8	6
2029748	PROB	n/a	LTP362	ltpFR2	16	n/a	n/a	n/a	16	11	1	8	2
2031215	PROB	n/a	LTP362	ltpFR2	16	n/a	n/a	n/a	16	15	7	5	3
2032298	PROB	n/a	LTP362	ltpFR2	16	n/a	n/a	n/a	16	17	9	7	1
2033464	PROB	n/a	LTP362	ltpFR2	16	n/a	n/a	n/a	16	20	6	8	6
2034713	PROB	n/a	LTP362	ltpFR2	16	n/a	n/a	n/a	16	23	6	8	9
2036945	PROB	n/a	LTP362	ltpFR2	16	n/a	n/a	n/a	16	12	3	3	6
2038546	PROB	n/a	LTP362	ltpFR2	16	n/a	n/a	n/a	16	18	5	9	4
2040495	PROB	n/a	LTP362	ltpFR2	16	n/a	n/a	n/a	16	18	7	6	5
2044421	STOP	n/a	LTP362	ltpFR2	16	n/a	n/a	n/a	16	n/a	n/a	n/a	n/a
2046343	REC_START	n/a	LTP362	ltpFR2	16	10	n/a	n/a	n/a	n/a	0	0	0
2047246	REC_WORD	wordpools/wasnorm_wordpool_576.txt	LTP362	ltpFR2	16	10	HIKER	708	n/a	n/a	0	0	0
2074432	REC_WORD	wordpools/wasnorm_wordpool_576.txt	LTP362	ltpFR2	16	10	SLOPE	1328	n/a	n/a	0	0	0
2076063	REC_WORD	wordpools/wasnorm_wordpool_576.txt	LTP362	ltpFR2	16	10	SLIDE	1326	n/a	n/a	0	0	0
2136783	WORD	wordpools/wasnorm_wordpool_576.txt	LTP362	ltpFR2	16	11	JUDGE	761	n/a	n/a	0	0	0
2139467	WORD	wordpools/wasnorm_wordpool_576.txt	LTP362	ltpFR2	16	11	BLENDER	136	n/a	n/a	0	0	0
2141948	WORD	wordpools/wasnorm_wordpool_576.txt	LTP362	ltpFR2	16	11	OYSTER	995	n/a	n/a	0	0	0
2144581	WORD	wordpools/wasnorm_wordpool_576.txt	LTP362	ltpFR2	16	11	ORANGE	980	n/a	n/a	0	0	0
2147380	WORD	wordpools/wasnorm_wordpool_576.txt	LTP362	ltpFR2	16	11	CARROT	249	n/a	n/a	0	0	0
2149994	WORD	wordpools/wasnorm_wordpool_576.txt	LTP362	ltpFR2	16	11	CAFE	216	n/a	n/a	0	0	0
2152810	WORD	wordpools/wasnorm_wordpool_576.txt	LTP362	ltpFR2	16	11	JEANS	752	n/a	n/a	0	0	0
2155276	WORD	wordpools/wasnorm_wordpool_576.txt	LTP362	ltpFR2	16	11	ICEBERG	731	n/a	n/a	0	0	0
2157741	WORD	wordpools/wasnorm_wordpool_576.txt	LTP362	ltpFR2	16	11	COUNTY	389	n/a	n/a	0	0	0
2160224	WORD	wordpools/wasnorm_wordpool_576.txt	LTP362	ltpFR2	16	11	CRUTCH	417	n/a	n/a	0	0	0
2162788	WORD	wordpools/wasnorm_wordpool_576.txt	LTP362	ltpFR2	16	11	CLAM	315	n/a	n/a	0	0	0
2165255	WORD	wordpools/wasnorm_wordpool_576.txt	LTP362	ltpFR2	16	11	TRENCH	1503	n/a	n/a	0	0	0
2167803	WORD	wordpools/wasnorm_wordpool_576.txt	LTP362	ltpFR2	16	11	BANQUET	86	n/a	n/a	0	0	0
2170569	WORD	wordpools/wasnorm_wordpool_576.txt	LTP362	ltpFR2	16	11	PICNIC	1060	n/a	n/a	0	0	0
2173050	WORD	wordpools/wasnorm_wordpool_576.txt	LTP362	ltpFR2	16	11	BARLEY	88	n/a	n/a	0	0	0
2175766	WORD	wordpools/wasnorm_wordpool_576.txt	LTP362	ltpFR2	16	11	HAND	683	n/a	n/a	0	0	0
2178249	WORD	wordpools/wasnorm_wordpool_576.txt	LTP362	ltpFR2	16	11	SCISSORS	1250	n/a	n/a	0	0	0
2180830	WORD	wordpools/wasnorm_wordpool_576.txt	LTP362	ltpFR2	16	11	CROWN	415	n/a	n/a	0	0	0
2183480	WORD	wordpools/wasnorm_wordpool_576.txt	LTP362	ltpFR2	16	11	ORCHID	982	n/a	n/a	0	0	0
2186162	WORD	wordpools/wasnorm_wordpool_576.txt	LTP362	ltpFR2	16	11	LIVER	833	n/a	n/a	0	0	0
2188743	WORD	wordpools/wasnorm_wordpool_576.txt	LTP362	ltpFR2	16	11	PARROT	1015	n/a	n/a	0	0	0
2191326	WORD	wordpools/wasnorm_wordpool_576.txt	LTP362	ltpFR2	16	11	ZEBRA	1635	n/a	n/a	0	0	0
2193774	WORD	wordpools/wasnorm_wordpool_576.txt	LTP362	ltpFR2	16	11	MONSTER	912	n/a	n/a	0	0	0
2196291	WORD	wordpools/wasnorm_wordpool_576.txt	LTP362	ltpFR2	16	11	SHOVEL	1295	n/a	n/a	0	0	0
2197906	START	n/a	LTP362	ltpFR2	16	n/a	n/a	n/a	17	n/a	n/a	n/a	n/a
2199046	DISTRACTOR	n/a	LTP362	ltpFR2	16	11	n/a	n/a	n/a	n/a	0	0	0
2199055	PROB	n/a	LTP362	ltpFR2	16	n/a	n/a	n/a	17	12	4	2	6
2200489	PROB	n/a	LTP362	ltpFR2	16	n/a	n/a	n/a	17	17	7	9	1
2201655	PROB	n/a	LTP362	ltpFR2	16	n/a	n/a	n/a	17	14	2	5	7
2204003	PROB	n/a	LTP362	ltpFR2	16	n/a	n/a	n/a	17	21	5	8	9
2205969	PROB	n/a	LTP362	ltpFR2	16	n/a	n/a	n/a	17	16	5	3	8
2207718	PROB	n/a	LTP362	ltpFR2	16	n/a	n/a	n/a	17	12	6	1	5
2209067	PROB	n/a	LTP362	ltpFR2	16	n/a	n/a	n/a	17	10	5	3	2
2210850	PROB	n/a	LTP362	ltpFR2	16	n/a	n/a	n/a	17	11	1	1	9
2212049	PROB	n/a	LTP362	ltpFR2	16	n/a	n/a	n/a	17	15	6	5	4
2213948	PROB	n/a	LTP362	ltpFR2	16	n/a	n/a	n/a	17	13	6	6	1
2215399	PROB	n/a	LTP362	ltpFR2	16	n/a	n/a	n/a	17	17	9	1	7
2217198	PROB	n/a	LTP362	ltpFR2	16	n/a	n/a	n/a	17	9	2	5	2
2218980	PROB	n/a	LTP362	ltpFR2	16	n/a	n/a	n/a	17	11	3	3	5
2220407	STOP	n/a	LTP362	ltpFR2	16	n/a	n/a	n/a	17	n/a	n/a	n/a	n/a
2223728	REC_START	n/a	LTP362	ltpFR2	16	11	n/a	n/a	n/a	n/a	0	0	0
2224538	REC_WORD	wordpools/wasnorm_wordpool_576.txt	LTP362	ltpFR2	16	11	BANQUET	86	n/a	n/a	0	0	0
2225144	REC_WORD	wordpools/wasnorm_wordpool_576.txt	LTP362	ltpFR2	16	11	PICNIC	1060	n/a	n/a	0	0	0
2225805	REC_WORD	wordpools/wasnorm_wordpool_576.txt	LTP362	ltpFR2	16	11	CROWN	415	n/a	n/a	0	0	0
2314171	DISTRACTOR	n/a	LTP362	ltpFR2	16	12	n/a	n/a	n/a	n/a	0	0	0
2314171	START	n/a	LTP362	ltpFR2	16	n/a	n/a	n/a	18	n/a	n/a	n/a	n/a
2314187	PROB	n/a	LTP362	ltpFR2	16	n/a	n/a	n/a	18	16	6	2	8
2315537	PROB	n/a	LTP362	ltpFR2	16	n/a	n/a	n/a	18	22	6	9	7
2317419	PROB	n/a	LTP362	ltpFR2	16	n/a	n/a	n/a	18	23	9	7	7
2319017	PROB	n/a	LTP362	ltpFR2	16	n/a	n/a	n/a	18	14	2	4	8
2320201	PROB	n/a	LTP362	ltpFR2	16	n/a	n/a	n/a	18	10	2	2	6
2321184	PROB	n/a	LTP362	ltpFR2	16	n/a	n/a	n/a	18	17	4	4	9
2322434	PROB	n/a	LTP362	ltpFR2	16	n/a	n/a	n/a	18	13	6	2	5
2324032	PROB	n/a	LTP362	ltpFR2	16	n/a	n/a	n/a	18	15	8	6	1
2325798	PROB	n/a	LTP362	ltpFR2	16	n/a	n/a	n/a	18	14	2	9	3
2327064	PROB	n/a	LTP362	ltpFR2	16	n/a	n/a	n/a	18	17	5	9	3
2329013	PROB	n/a	LTP362	ltpFR2	16	n/a	n/a	n/a	18	6	1	3	2
2330363	PROB	n/a	LTP362	ltpFR2	16	n/a	n/a	n/a	18	21	6	9	6
2331712	PROB	n/a	LTP362	ltpFR2	16	n/a	n/a	n/a	18	14	3	1	8
2333162	PROB	n/a	LTP362	ltpFR2	16	n/a	n/a	n/a	18	10	4	2	4
2334677	PROB	n/a	LTP362	ltpFR2	16	n/a	n/a	n/a	18	17	7	3	7
2335943	PROB	n/a	LTP362	ltpFR2	16	n/a	n/a	n/a	18	14	3	4	7
2337187	STOP	n/a	LTP362	ltpFR2	16	n/a	n/a	n/a	18	n/a	n/a	n/a	n/a
2339293	WORD	wordpools/wasnorm_wordpool_576.txt	LTP362	ltpFR2	16	12	ONION	977	n/a	n/a	0	0	0
2341957	WORD	wordpools/wasnorm_wordpool_576.txt	LTP362	ltpFR2	16	12	FRIEND	606	n/a	n/a	0	0	0
2344390	WORD	wordpools/wasnorm_wordpool_576.txt	LTP362	ltpFR2	16	12	LIZARD	834	n/a	n/a	0	0	0
2346938	WORD	wordpools/wasnorm_wordpool_576.txt	LTP362	ltpFR2	16	12	PERCH	1048	n/a	n/a	0	0	0
2349471	WORD	wordpools/wasnorm_wordpool_576.txt	LTP362	ltpFR2	16	12	KIDNEY	776	n/a	n/a	0	0	0
2352002	WORD	wordpools/wasnorm_wordpool_576.txt	LTP362	ltpFR2	16	12	BRACES	164	n/a	n/a	0	0	0
2354636	WORD	wordpools/wasnorm_wordpool_576.txt	LTP362	ltpFR2	16	12	HAWK	692	n/a	n/a	0	0	0
2357451	WORD	wordpools/wasnorm_wordpool_576.txt	LTP362	ltpFR2	16	12	CARRIAGE	248	n/a	n/a	0	0	0
2359916	WORD	wordpools/wasnorm_wordpool_576.txt	LTP362	ltpFR2	16	12	PARSLEY	1016	n/a	n/a	0	0	0
2362664	WORD	wordpools/wasnorm_wordpool_576.txt	LTP362	ltpFR2	16	12	PLASTER	1085	n/a	n/a	0	0	0
2365447	WORD	wordpools/wasnorm_wordpool_576.txt	LTP362	ltpFR2	16	12	WORKER	1621	n/a	n/a	0	0	0
2368213	WORD	wordpools/wasnorm_wordpool_576.txt	LTP362	ltpFR2	16	12	OMELET	976	n/a	n/a	0	0	0
2370827	WORD	wordpools/wasnorm_wordpool_576.txt	LTP362	ltpFR2	16	12	DAUGHTER	442	n/a	n/a	0	0	0
2373477	WORD	wordpools/wasnorm_wordpool_576.txt	LTP362	ltpFR2	16	12	RATTLE	1170	n/a	n/a	0	0	0
2376042	WORD	wordpools/wasnorm_wordpool_576.txt	LTP362	ltpFR2	16	12	CASHEW	253	n/a	n/a	0	0	0
2378558	WORD	wordpools/wasnorm_wordpool_576.txt	LTP362	ltpFR2	16	12	COURSE	390	n/a	n/a	0	0	0
2381373	WORD	wordpools/wasnorm_wordpool_576.txt	LTP362	ltpFR2	16	12	SKILLET	1317	n/a	n/a	0	0	0
2383921	WORD	wordpools/wasnorm_wordpool_576.txt	LTP362	ltpFR2	16	12	YOLK	1633	n/a	n/a	0	0	0
2386720	WORD	wordpools/wasnorm_wordpool_576.txt	LTP362	ltpFR2	16	12	PERFUME	1049	n/a	n/a	0	0	0
2389487	WORD	wordpools/wasnorm_wordpool_576.txt	LTP362	ltpFR2	16	12	SNAKE	1333	n/a	n/a	0	0	0
2392169	WORD	wordpools/wasnorm_wordpool_576.txt	LTP362	ltpFR2	16	12	SKIRT	1319	n/a	n/a	0	0	0
2394783	WORD	wordpools/wasnorm_wordpool_576.txt	LTP362	ltpFR2	16	12	ZIPPER	1636	n/a	n/a	0	0	0
2397216	WORD	wordpools/wasnorm_wordpool_576.txt	LTP362	ltpFR2	16	12	LADY	794	n/a	n/a	0	0	0
2399698	WORD	wordpools/wasnorm_wordpool_576.txt	LTP362	ltpFR2	16	12	SERVANT	1271	n/a	n/a	0	0	0
2401315	START	n/a	LTP362	ltpFR2	16	n/a	n/a	n/a	19	n/a	n/a	n/a	n/a
2402307	DISTRACTOR	n/a	LTP362	ltpFR2	16	12	n/a	n/a	n/a	n/a	0	0	0
2402314	PROB	n/a	LTP362	ltpFR2	16	n/a	n/a	n/a	19	18	5	7	6
2404878	PROB	n/a	LTP362	ltpFR2	16	n/a	n/a	n/a	19	13	3	3	7
2406529	PROB	n/a	LTP362	ltpFR2	16	n/a	n/a	n/a	19	14	7	5	2
2408777	PROB	n/a	LTP362	ltpFR2	16	n/a	n/a	n/a	19	13	1	8	4
2410676	PROB	n/a	LTP362	ltpFR2	16	n/a	n/a	n/a	19	12	1	9	2
2411892	PROB	n/a	LTP362	ltpFR2	16	n/a	n/a	n/a	19	7	4	2	1
2413442	PROB	n/a	LTP362	ltpFR2	16	n/a	n/a	n/a	19	17	5	7	5
2414691	PROB	n/a	LTP362	ltpFR2	16	n/a	n/a	n/a	19	5	1	1	3
2415674	PROB	n/a	LTP362	ltpFR2	16	n/a	n/a	n/a	19	8	2	4	2
2416906	PROB	n/a	LTP362	ltpFR2	16	n/a	n/a	n/a	19	13	1	3	9
2418039	PROB	n/a	LTP362	ltpFR2	16	n/a	n/a	n/a	19	16	6	7	3
2419573	PROB	n/a	LTP362	ltpFR2	16	n/a	n/a	n/a	19	15	6	6	3
2421121	PROB	n/a	LTP362	ltpFR2	16	n/a	n/a	n/a	19	11	7	1	3
2422621	PROB	n/a	LTP362	ltpFR2	16	n/a	n/a	n/a	19	22	8	6	8
2424621	STOP	n/a	LTP362	ltpFR2	16	n/a	n/a	n/a	19	n/a	n/a	n/a	n/a
2427170	REC_START	n/a	LTP362	ltpFR2	16	12	n/a	n/a	n/a	n/a	0	0	0
2502170	REC_WORD_VV	wordpools/wasnorm_wordpool_576.txt	LTP362	ltpFR2	16	12	<>	-1	n/a	n/a	0	0	0
2517612	WORD	wordpools/wasnorm_wordpool_576.txt	LTP362	ltpFR2	16	13	COLLEGE	346	n/a	n/a	0	0	0
2520294	WORD	wordpools/wasnorm_wordpool_576.txt	LTP362	ltpFR2	16	13	RUG	1215	n/a	n/a	0	0	0
2522792	WORD	wordpools/wasnorm_wordpool_576.txt	LTP362	ltpFR2	16	13	VIKING	1565	n/a	n/a	0	0	0
2525225	WORD	wordpools/wasnorm_wordpool_576.txt	LTP362	ltpFR2	16	13	PRINCE	1124	n/a	n/a	0	0	0
2527939	WORD	wordpools/wasnorm_wordpool_576.txt	LTP362	ltpFR2	16	13	BISON	131	n/a	n/a	0	0	0
2530721	WORD	wordpools/wasnorm_wordpool_576.txt	LTP362	ltpFR2	16	13	CREATURE	403	n/a	n/a	0	0	0
2533155	WORD	wordpools/wasnorm_wordpool_576.txt	LTP362	ltpFR2	16	13	PAPER	1011	n/a	n/a	0	0	0
2535803	WORD	wordpools/wasnorm_wordpool_576.txt	LTP362	ltpFR2	16	13	FRAME	600	n/a	n/a	0	0	0
2538269	WORD	wordpools/wasnorm_wordpool_576.txt	LTP362	ltpFR2	16	13	FRIAR	605	n/a	n/a	0	0	0
2540717	WORD	wordpools/wasnorm_wordpool_576.txt	LTP362	ltpFR2	16	13	WHISKERS	1605	n/a	n/a	0	0	0
2543233	WORD	wordpools/wasnorm_wordpool_576.txt	LTP362	ltpFR2	16	13	BLACKBOARD	133	n/a	n/a	0	0	0
2545765	WORD	wordpools/wasnorm_wordpool_576.txt	LTP362	ltpFR2	16	13	ICING	732	n/a	n/a	0	0	0
2548531	WORD	wordpools/wasnorm_wordpool_576.txt	LTP362	ltpFR2	16	13	PIGEON	1065	n/a	n/a	0	0	0
2551029	WORD	wordpools/wasnorm_wordpool_576.txt	LTP362	ltpFR2	16	13	CHURCH	307	n/a	n/a	0	0	0
2553462	WORD	wordpools/wasnorm_wordpool_576.txt	LTP362	ltpFR2	16	13	JELLY	755	n/a	n/a	0	0	0
2556060	WORD	wordpools/wasnorm_wordpool_576.txt	LTP362	ltpFR2	16	13	MILK	895	n/a	n/a	0	0	0
2558643	WORD	wordpools/wasnorm_wordpool_576.txt	LTP362	ltpFR2	16	13	CATTLE	261	n/a	n/a	0	0	0
2561159	WORD	wordpools/wasnorm_wordpool_576.txt	LTP362	ltpFR2	16	13	OINTMENT	974	n/a	n/a	0	0	0
2563956	WORD	wordpools/wasnorm_wordpool_576.txt	LTP362	ltpFR2	16	13	STUDENT	1395	n/a	n/a	0	0	0
2566390	WORD	wordpools/wasnorm_wordpool_576.txt	LTP362	ltpFR2	16	13	GALLON	618	n/a	n/a	0	0	0
2569071	WORD	wordpools/wasnorm_wordpool_576.txt	LTP362	ltpFR2	16	13	KITCHEN	778	n/a	n/a	0	0	0
2571853	WORD	wordpools/wasnorm_wordpool_576.txt	LTP362	ltpFR2	16	13	FILM	565	n/a	n/a	0	0	0
2574636	WORD	wordpools/wasnorm_wordpool_576.txt	LTP362	ltpFR2	16	13	STICKER	1382	n/a	n/a	0	0	0
2577168	WORD	wordpools/wasnorm_wordpool_576.txt	LTP362	ltpFR2	16	13	WAGON	1578	n/a	n/a	0	0	0
2578783	START	n/a	LTP362	ltpFR2	16	n/a	n/a	n/a	20	n/a	n/a	n/a	n/a
2579884	DISTRACTOR	n/a	LTP362	ltpFR2	16	13	n/a	n/a	n/a	n/a	0	0	0
2579899	PROB	n/a	LTP362	ltpFR2	16	n/a	n/a	n/a	20	11	1	1	9
2581350	PROB	n/a	LTP362	ltpFR2	16	n/a	n/a	n/a	20	15	1	9	5
2582432	PROB	n/a	LTP362	ltpFR2	16	n/a	n/a	n/a	20	12	2	8	2
2583532	PROB	n/a	LTP362	ltpFR2	16	n/a	n/a	n/a	20	16	5	5	6
2584680	PROB	n/a	LTP362	ltpFR2	16	n/a	n/a	n/a	20	7	1	1	5
2585797	PROB	n/a	LTP362	ltpFR2	16	n/a	n/a	n/a	20	14	6	3	5
2587879	PROB	n/a	LTP362	ltpFR2	16	n/a	n/a	n/a	20	14	1	9	4
2588928	PROB	n/a	LTP362	ltpFR2	16	n/a	n/a	n/a	20	16	3	8	5
2590811	PROB	n/a	LTP362	ltpFR2	16	n/a	n/a	n/a	20	20	7	7	6
2592993	PROB	n/a	LTP362	ltpFR2	16	n/a	n/a	n/a	20	16	8	4	4
2594494	PROB	n/a	LTP362	ltpFR2	16	n/a	n/a	n/a	20	19	6	8	5
2596426	PROB	n/a	LTP362	ltpFR2	16	n/a	n/a	n/a	20	8	1	1	6
2597526	PROB	n/a	LTP362	ltpFR2	16	n/a	n/a	n/a	20	16	6	5	5
2598807	PROB	n/a	LTP362	ltpFR2	16	n/a	n/a	n/a	20	13	4	1	8
2600341	PROB	n/a	LTP362	ltpFR2	16	n/a	n/a	n/a	20	13	2	7	4
2602227	STOP	n/a	LTP362	ltpFR2	16	n/a	n/a	n/a	20	n/a	n/a	n/a	n/a
2604705	REC_START	n/a	LTP362	ltpFR2	16	13	n/a	n/a	n/a	n/a	0	0	0
2679700	REC_WORD_VV	wordpools/wasnorm_wordpool_576.txt	LTP362	ltpFR2	16	13	<>	-1	n/a	n/a	0	0	0
2695131	DISTRACTOR	n/a	LTP362	ltpFR2	16	14	n/a	n/a	n/a	n/a	0	0	0
2695131	START	n/a	LTP362	ltpFR2	16	n/a	n/a	n/a	21	n/a	n/a	n/a	n/a
2695148	PROB	n/a	LTP362	ltpFR2	16	n/a	n/a	n/a	21	18	4	9	5
2696514	PROB	n/a	LTP362	ltpFR2	16	n/a	n/a	n/a	21	21	9	4	8
2698062	PROB	n/a	LTP362	ltpFR2	16	n/a	n/a	n/a	21	18	8	8	2
2699196	PROB	n/a	LTP362	ltpFR2	16	n/a	n/a	n/a	21	18	7	2	9
2700828	PROB	n/a	LTP362	ltpFR2	16	n/a	n/a	n/a	21	17	5	4	8
2702694	PROB	n/a	LTP362	ltpFR2	16	n/a	n/a	n/a	21	15	4	8	3
2704460	PROB	n/a	LTP362	ltpFR2	16	n/a	n/a	n/a	21	12	4	1	7
2705610	PROB	n/a	LTP362	ltpFR2	16	n/a	n/a	n/a	21	12	1	6	5
2707276	PROB	n/a	LTP362	ltpFR2	16	n/a	n/a	n/a	21	15	4	3	8
2709275	PROB	n/a	LTP362	ltpFR2	16	n/a	n/a	n/a	21	18	2	7	9
2710690	PROB	n/a	LTP362	ltpFR2	16	n/a	n/a	n/a	21	14	3	2	9
2712157	PROB	n/a	LTP362	ltpFR2	16	n/a	n/a	n/a	21	16	6	6	4
2713390	PROB	n/a	LTP362	ltpFR2	16	n/a	n/a	n/a	21	17	4	7	6
2715339	PROB	n/a	LTP362	ltpFR2	16	n/a	n/a	n/a	21	11	3	6	2
2716737	PROB	n/a	LTP362	ltpFR2	16	n/a	n/a	n/a	21	18	8	8	2
2717853	STOP	n/a	LTP362	ltpFR2	16	n/a	n/a	n/a	21	n/a	n/a	n/a	n/a
2720119	WORD	wordpools/wasnorm_wordpool_576.txt	LTP362	ltpFR2	16	14	PICTURE	1061	n/a	n/a	0	0	0
2722868	WORD	wordpools/wasnorm_wordpool_576.txt	LTP362	ltpFR2	16	14	AUTHOR	61	n/a	n/a	0	0	0
2725468	WORD	wordpools/wasnorm_wordpool_576.txt	LTP362	ltpFR2	16	14	SLIME	1327	n/a	n/a	0	0	0
2728049	WORD	wordpools/wasnorm_wordpool_576.txt	LTP362	ltpFR2	16	14	SANDWICH	1232	n/a	n/a	0	0	0
2730864	WORD	wordpools/wasnorm_wordpool_576.txt	LTP362	ltpFR2	16	14	CURTAIN	427	n/a	n/a	0	0	0
2733614	WORD	wordpools/wasnorm_wordpool_576.txt	LTP362	ltpFR2	16	14	GLASS	639	n/a	n/a	0	0	0
2736213	WORD	wordpools/wasnorm_wordpool_576.txt	LTP362	ltpFR2	16	14	WAITRESS	1581	n/a	n/a	0	0	0
2739010	WORD	wordpools/wasnorm_wordpool_576.txt	LTP362	ltpFR2	16	14	CHAMPAGNE	278	n/a	n/a	0	0	0
2741577	WORD	wordpools/wasnorm_wordpool_576.txt	LTP362	ltpFR2	16	14	PANTHER	1009	n/a	n/a	0	0	0
2744309	WORD	wordpools/wasnorm_wordpool_576.txt	LTP362	ltpFR2	16	14	LEOPARD	812	n/a	n/a	0	0	0
2747007	WORD	wordpools/wasnorm_wordpool_576.txt	LTP362	ltpFR2	16	14	SODA	1341	n/a	n/a	0	0	0
2749739	WORD	wordpools/wasnorm_wordpool_576.txt	LTP362	ltpFR2	16	14	DOUGHNUT	490	n/a	n/a	0	0	0
2752222	WORD	wordpools/wasnorm_wordpool_576.txt	LTP362	ltpFR2	16	14	WASHER	1592	n/a	n/a	0	0	0
2754837	WORD	wordpools/wasnorm_wordpool_576.txt	LTP362	ltpFR2	16	14	PORTRAIT	1111	n/a	n/a	0	0	0
2757353	WORD	wordpools/wasnorm_wordpool_576.txt	LTP362	ltpFR2	16	14	HEDGE	699	n/a	n/a	0	0	0
2759868	WORD	wordpools/wasnorm_wordpool_576.txt	LTP362	ltpFR2	16	14	ANTLER	29	n/a	n/a	0	0	0
2762401	WORD	wordpools/wasnorm_wordpool_576.txt	LTP362	ltpFR2	16	14	TRIBE	1505	n/a	n/a	0	0	0
2765150	WORD	wordpools/wasnorm_wordpool_576.txt	LTP362	ltpFR2	16	14	STAKE	1368	n/a	n/a	0	0	0
2767814	WORD	wordpools/wasnorm_wordpool_576.txt	LTP362	ltpFR2	16	14	FOREST	593	n/a	n/a	0	0	0
2770514	WORD	wordpools/wasnorm_wordpool_576.txt	LTP362	ltpFR2	16	14	RADISH	1158	n/a	n/a	0	0	0
2773112	WORD	wordpools/wasnorm_wordpool_576.txt	LTP362	ltpFR2	16	14	XEROX	1628	n/a	n/a	0	0	0
2775810	WORD	wordpools/wasnorm_wordpool_576.txt	LTP362	ltpFR2	16	14	PLAZA	1088	n/a	n/a	0	0	0
2778627	WORD	wordpools/wasnorm_wordpool_576.txt	LTP362	ltpFR2	16	14	HIGHWAY	707	n/a	n/a	0	0	0
2781125	WORD	wordpools/wasnorm_wordpool_576.txt	LTP362	ltpFR2	16	14	RABBIT	1152	n/a	n/a	0	0	0
2782741	START	n/a	LTP362	ltpFR2	16	n/a	n/a	n/a	22	n/a	n/a	n/a	n/a
2783570	DISTRACTOR	n/a	LTP362	ltpFR2	16	14	n/a	n/a	n/a	n/a	0	0	0
2783575	PROB	n/a	LTP362	ltpFR2	16	n/a	n/a	n/a	22	23	8	6	9
2786772	PROB	n/a	LTP362	ltpFR2	16	n/a	n/a	n/a	22	13	1	9	3
2788038	PROB	n/a	LTP362	ltpFR2	16	n/a	n/a	n/a	22	19	2	8	9
2789222	PROB	n/a	LTP362	ltpFR2	16	n/a	n/a	n/a	22	16	6	8	2
2790405	PROB	n/a	LTP362	ltpFR2	16	n/a	n/a	n/a	22	13	1	6	6
2791521	PROB	n/a	LTP362	ltpFR2	16	n/a	n/a	n/a	22	15	1	9	5
2792703	PROB	n/a	LTP362	ltpFR2	16	n/a	n/a	n/a	22	19	4	8	7
2795085	PROB	n/a	LTP362	ltpFR2	16	n/a	n/a	n/a	22	13	5	4	4
2797302	PROB	n/a	LTP362	ltpFR2	16	n/a	n/a	n/a	22	10	2	2	6
2798368	PROB	n/a	LTP362	ltpFR2	16	n/a	n/a	n/a	22	14	5	8	1
2800600	PROB	n/a	LTP362	ltpFR2	16	n/a	n/a	n/a	22	17	9	7	1
2801799	PROB	n/a	LTP362	ltpFR2	16	n/a	n/a	n/a	22	7	3	2	2
2803182	PROB	n/a	LTP362	ltpFR2	16	n/a	n/a	n/a	22	16	3	5	8
2804814	PROB	n/a	LTP362	ltpFR2	16	n/a	n/a	n/a	22	4	1	1	2
2805784	STOP	n/a	LTP362	ltpFR2	16	n/a	n/a	n/a	22	n/a	n/a	n/a	n/a
2808631	REC_START	n/a	LTP362	ltpFR2	16	14	n/a	n/a	n/a	n/a	0	0	0
2812028	REC_WORD	wordpools/wasnorm_wordpool_576.txt	LTP362	ltpFR2	16	14	AUTHOR	61	n/a	n/a	0	0	0
2812910	REC_WORD	wordpools/wasnorm_wordpool_576.txt	LTP362	ltpFR2	16	14	PICTURE	1061	n/a	n/a	0	0	0
2813552	REC_WORD	wordpools/wasnorm_wordpool_576.txt	LTP362	ltpFR2	16	14	PORTRAIT	1111	n/a	n/a	0	0	0
2814156	REC_WORD	wordpools/wasnorm_wordpool_576.txt	LTP362	ltpFR2	16	14	SLIME	1327	n/a	n/a	0	0	0
2814804	REC_WORD	wordpools/wasnorm_wordpool_576.txt	LTP362	ltpFR2	16	14	SANDWICH	1232	n/a	n/a	0	0	0
2815626	REC_WORD	wordpools/wasnorm_wordpool_576.txt	LTP362	ltpFR2	16	14	GLASS	639	n/a	n/a	0	0	0
2816364	REC_WORD	wordpools/wasnorm_wordpool_576.txt	LTP362	ltpFR2	16	14	CURTAIN	427	n/a	n/a	0	0	0
2817578	REC_WORD	wordpools/wasnorm_wordpool_576.txt	LTP362	ltpFR2	16	14	WAITRESS	1581	n/a	n/a	0	0	0
2820840	REC_WORD	wordpools/wasnorm_wordpool_576.txt	LTP362	ltpFR2	16	14	CHAMPAGNE	278	n/a	n/a	0	0	0
2821645	REC_WORD	wordpools/wasnorm_wordpool_576.txt	LTP362	ltpFR2	16	14	SODA	1341	n/a	n/a	0	0	0
2822425	REC_WORD	wordpools/wasnorm_wordpool_576.txt	LTP362	ltpFR2	16	14	LEOPARD	812	n/a	n/a	0	0	0
2823021	REC_WORD	wordpools/wasnorm_wordpool_576.txt	LTP362	ltpFR2	16	14	JET	756	n/a	n/a	0	0	0
2823776	REC_WORD	wordpools/wasnorm_wordpool_576.txt	LTP362	ltpFR2	16	14	PANTHER	1009	n/a	n/a	0	0	0
2848295	REC_WORD	wordpools/wasnorm_wordpool_576.txt	LTP362	ltpFR2	16	14	DOUGHNUT	490	n/a	n/a	0	0	0
2848687	REC_WORD	wordpools/wasnorm_wordpool_576.txt	LTP362	ltpFR2	16	14	WRENCH	1625	n/a	n/a	0	0	0
2899055	DISTRACTOR	n/a	LTP362	ltpFR2	16	15	n/a	n/a	n/a	n/a	0	0	0
2899055	START	n/a	LTP362	ltpFR2	16	n/a	n/a	n/a	23	n/a	n/a	n/a	n/a
2899071	PROB	n/a	LTP362	ltpFR2	16	n/a	n/a	n/a	23	4	2	1	1
2900054	PROB	n/a	LTP362	ltpFR2	16	n/a	n/a	n/a	23	4	1	2	1
2900904	PROB	n/a	LTP362	ltpFR2	16	n/a	n/a	n/a	23	17	8	1	8
2902537	PROB	n/a	LTP362	ltpFR2	16	n/a	n/a	n/a	23	19	9	9	1
2903902	PROB	n/a	LTP362	ltpFR2	16	n/a	n/a	n/a	23	13	4	5	4
2905519	PROB	n/a	LTP362	ltpFR2	16	n/a	n/a	n/a	23	10	2	3	5
2906751	PROB	n/a	LTP362	ltpFR2	16	n/a	n/a	n/a	23	19	3	9	7
2907851	PROB	n/a	LTP362	ltpFR2	16	n/a	n/a	n/a	23	7	3	1	3
2908834	PROB	n/a	LTP362	ltpFR2	16	n/a	n/a	n/a	23	15	1	6	8
2910567	PROB	n/a	LTP362	ltpFR2	16	n/a	n/a	n/a	23	11	7	3	1
2912400	PROB	n/a	LTP362	ltpFR2	16	n/a	n/a	n/a	23	7	2	2	3
2913449	PROB	n/a	LTP362	ltpFR2	16	n/a	n/a	n/a	23	14	8	1	5
2914731	PROB	n/a	LTP362	ltpFR2	16	n/a	n/a	n/a	23	21	6	6	9
2916080	PROB	n/a	LTP362	ltpFR2	16	n/a	n/a	n/a	23	8	1	5	2
2917514	PROB	n/a	LTP362	ltpFR2	16	n/a	n/a	n/a	23	17	8	5	4
2918896	PROB	n/a	LTP362	ltpFR2	16	n/a	n/a	n/a	23	12	1	8	3
2923055	STOP	n/a	LTP362	ltpFR2	16	n/a	n/a	n/a	23	n/a	n/a	n/a	n/a
2923927	WORD	wordpools/wasnorm_wordpool_576.txt	LTP362	ltpFR2	16	15	PRINCESS	1125	n/a	n/a	0	0	0
2926360	WORD	wordpools/wasnorm_wordpool_576.txt	LTP362	ltpFR2	16	15	ANKLE	24	n/a	n/a	0	0	0
2928808	WORD	wordpools/wasnorm_wordpool_576.txt	LTP362	ltpFR2	16	15	PADDING	999	n/a	n/a	0	0	0
2931424	WORD	wordpools/wasnorm_wordpool_576.txt	LTP362	ltpFR2	16	15	QUEEN	1149	n/a	n/a	0	0	0
2934089	WORD	wordpools/wasnorm_wordpool_576.txt	LTP362	ltpFR2	16	15	DONKEY	484	n/a	n/a	0	0	0
2936888	WORD	wordpools/wasnorm_wordpool_576.txt	LTP362	ltpFR2	16	15	HORSE	719	n/a	n/a	0	0	0
2939621	WORD	wordpools/wasnorm_wordpool_576.txt	LTP362	ltpFR2	16	15	DRAWING	494	n/a	n/a	0	0	0
2942386	WORD	wordpools/wasnorm_wordpool_576.txt	LTP362	ltpFR2	16	15	MISSILE	900	n/a	n/a	0	0	0
2944834	WORD	wordpools/wasnorm_wordpool_576.txt	LTP362	ltpFR2	16	15	SPOOL	1356	n/a	n/a	0	0	0
2947300	WORD	wordpools/wasnorm_wordpool_576.txt	LTP362	ltpFR2	16	15	SHORTS	1293	n/a	n/a	0	0	0
2949832	WORD	wordpools/wasnorm_wordpool_576.txt	LTP362	ltpFR2	16	15	MARKET	871	n/a	n/a	0	0	0
2952481	WORD	wordpools/wasnorm_wordpool_576.txt	LTP362	ltpFR2	16	15	YARN	1631	n/a	n/a	0	0	0
2955096	WORD	wordpools/wasnorm_wordpool_576.txt	LTP362	ltpFR2	16	15	PLAID	1080	n/a	n/a	0	0	0
2957579	WORD	wordpools/wasnorm_wordpool_576.txt	LTP362	ltpFR2	16	15	AIRPLANE	12	n/a	n/a	0	0	0
2960261	WORD	wordpools/wasnorm_wordpool_576.txt	LTP362	ltpFR2	16	15	MARS	873	n/a	n/a	0	0	0
2962926	WORD	wordpools/wasnorm_wordpool_576.txt	LTP362	ltpFR2	16	15	PLUTO	1092	n/a	n/a	0	0	0
2965758	WORD	wordpools/wasnorm_wordpool_576.txt	LTP362	ltpFR2	16	15	STAR	1373	n/a	n/a	0	0	0
2968391	WORD	wordpools/wasnorm_wordpool_576.txt	LTP362	ltpFR2	16	15	DRESSER	496	n/a	n/a	0	0	0
2970922	WORD	wordpools/wasnorm_wordpool_576.txt	LTP362	ltpFR2	16	15	COTTAGE	384	n/a	n/a	0	0	0
2973405	WORD	wordpools/wasnorm_wordpool_576.txt	LTP362	ltpFR2	16	15	JAPAN	749	n/a	n/a	0	0	0
2976070	WORD	wordpools/wasnorm_wordpool_576.txt	LTP362	ltpFR2	16	15	LEG	809	n/a	n/a	0	0	0
2978685	WORD	wordpools/wasnorm_wordpool_576.txt	LTP362	ltpFR2	16	15	FOOT	590	n/a	n/a	0	0	0
2981518	WORD	wordpools/wasnorm_wordpool_576.txt	LTP362	ltpFR2	16	15	LACE	792	n/a	n/a	0	0	0
2983949	WORD	wordpools/wasnorm_wordpool_576.txt	LTP362	ltpFR2	16	15	MEDAL	885	n/a	n/a	0	0	0
2985567	START	n/a	LTP362	ltpFR2	16	n/a	n/a	n/a	24	n/a	n/a	n/a	n/a
2986600	DISTRACTOR	n/a	LTP362	ltpFR2	16	15	n/a	n/a	n/a	n/a	0	0	0
2986616	PROB	n/a	LTP362	ltpFR2	16	n/a	n/a	n/a	24	15	1	5	9
2988014	PROB	n/a	LTP362	ltpFR2	16	n/a	n/a	n/a	24	14	7	1	6
2989165	PROB	n/a	LTP362	ltpFR2	16	n/a	n/a	n/a	24	9	3	5	1
2990314	PROB	n/a	LTP362	ltpFR2	16	n/a	n/a	n/a	24	16	2	6	8
2991497	PROB	n/a	LTP362	ltpFR2	16	n/a	n/a	n/a	24	10	2	6	2
2992729	PROB	n/a	LTP362	ltpFR2	16	n/a	n/a	n/a	24	5	3	1	1
2993678	PROB	n/a	LTP362	ltpFR2	16	n/a	n/a	n/a	24	16	6	7	3
2994761	PROB	n/a	LTP362	ltpFR2	16	n/a	n/a	n/a	24	13	1	4	8
2997195	PROB	n/a	LTP362	ltpFR2	16	n/a	n/a	n/a	24	15	6	2	7
2998594	PROB	n/a	LTP362	ltpFR2	16	n/a	n/a	n/a	24	13	2	5	6
2999709	PROB	n/a	LTP362	ltpFR2	16	n/a	n/a	n/a	24	9	3	1	6
3000725	PROB	n/a	LTP362	ltpFR2	16	n/a	n/a	n/a	24	17	4	9	4
3002642	PROB	n/a	LTP362	ltpFR2	16	n/a	n/a	n/a	24	12	1	9	2
3003857	PROB	n/a	LTP362	ltpFR2	16	n/a	n/a	n/a	24	20	6	7	7
3005023	PROB	n/a	LTP362	ltpFR2	16	n/a	n/a	n/a	24	25	8	9	8
3006673	PROB	n/a	LTP362	ltpFR2	16	n/a	n/a	n/a	24	15	4	4	7
3008039	PROB	n/a	LTP362	ltpFR2	16	n/a	n/a	n/a	24	16	1	8	7
3009303	STOP	n/a	LTP362	ltpFR2	16	n/a	n/a	n/a	24	n/a	n/a	n/a	n/a
3011472	REC_START	n/a	LTP362	ltpFR2	16	15	n/a	n/a	n/a	n/a	0	0	0
3011673	REC_WORD	wordpools/wasnorm_wordpool_576.txt	LTP362	ltpFR2	16	15	PRINCESS	1125	n/a	n/a	0	0	0
3012329	REC_WORD	wordpools/wasnorm_wordpool_576.txt	LTP362	ltpFR2	16	15	ANKLE	24	n/a	n/a	0	0	0
3012808	REC_WORD	wordpools/wasnorm_wordpool_576.txt	LTP362	ltpFR2	16	15	PADDING	999	n/a	n/a	0	0	0
3013367	REC_WORD	wordpools/wasnorm_wordpool_576.txt	LTP362	ltpFR2	16	15	QUEEN	1149	n/a	n/a	0	0	0
3014031	REC_WORD	wordpools/wasnorm_wordpool_576.txt	LTP362	ltpFR2	16	15	DONKEY	484	n/a	n/a	0	0	0
3014970	REC_WORD	wordpools/wasnorm_wordpool_576.txt	LTP362	ltpFR2	16	15	HORSE	719	n/a	n/a	0	0	0
3015557	REC_WORD	wordpools/wasnorm_wordpool_576.txt	LTP362	ltpFR2	16	15	SHORTS	1293	n/a	n/a	0	0	0
3016339	REC_WORD	wordpools/wasnorm_wordpool_576.txt	LTP362	ltpFR2	16	15	JAPAN	749	n/a	n/a	0	0	0
3018707	REC_WORD	wordpools/wasnorm_wordpool_576.txt	LTP362	ltpFR2	16	15	LACE	792	n/a	n/a	0	0	0
3025570	REC_WORD	wordpools/wasnorm_wordpool_576.txt	LTP362	ltpFR2	16	15	XEROX	1628	n/a	n/a	0	0	0
3101913	WORD	wordpools/wasnorm_wordpool_576.txt	LTP362	ltpFR2	16	16	COUNTRY	388	n/a	n/a	0	0	0
3104479	WORD	wordpools/wasnorm_wordpool_576.txt	LTP362	ltpFR2	16	16	FREEZER	604	n/a	n/a	0	0	0
3107010	WORD	wordpools/wasnorm_wordpool_576.txt	LTP362	ltpFR2	16	16	PIGMENT	1066	n/a	n/a	0	0	0
3109510	WORD	wordpools/wasnorm_wordpool_576.txt	LTP362	ltpFR2	16	16	REBEL	1172	n/a	n/a	0	0	0
3111942	WORD	wordpools/wasnorm_wordpool_576.txt	LTP362	ltpFR2	16	16	COUCH	386	n/a	n/a	0	0	0
3114724	WORD	wordpools/wasnorm_wordpool_576.txt	LTP362	ltpFR2	16	16	STREAM	1392	n/a	n/a	0	0	0
3117340	WORD	wordpools/wasnorm_wordpool_576.txt	LTP362	ltpFR2	16	16	ISLAND	745	n/a	n/a	0	0	0
3120055	WORD	wordpools/wasnorm_wordpool_576.txt	LTP362	ltpFR2	16	16	GYMNAST	675	n/a	n/a	0	0	0
3122737	WORD	wordpools/wasnorm_wordpool_576.txt	LTP362	ltpFR2	16	16	TABLE	1426	n/a	n/a	0	0	0
3125503	WORD	wordpools/wasnorm_wordpool_576.txt	LTP362	ltpFR2	16	16	DINER	467	n/a	n/a	0	0	0
3128001	WORD	wordpools/wasnorm_wordpool_576.txt	LTP362	ltpFR2	16	16	BLOUSE	139	n/a	n/a	0	0	0
3130617	WORD	wordpools/wasnorm_wordpool_576.txt	LTP362	ltpFR2	16	16	SHOULDER	1294	n/a	n/a	0	0	0
3133049	WORD	wordpools/wasnorm_wordpool_576.txt	LTP362	ltpFR2	16	16	CABBAGE	210	n/a	n/a	0	0	0
3135499	WORD	wordpools/wasnorm_wordpool_576.txt	LTP362	ltpFR2	16	16	TART	1436	n/a	n/a	0	0	0
3138181	WORD	wordpools/wasnorm_wordpool_576.txt	LTP362	ltpFR2	16	16	CITRUS	313	n/a	n/a	0	0	0
3140646	WORD	wordpools/wasnorm_wordpool_576.txt	LTP362	ltpFR2	16	16	FOX	598	n/a	n/a	0	0	0
3143162	WORD	wordpools/wasnorm_wordpool_576.txt	LTP362	ltpFR2	16	16	KETCHUP	771	n/a	n/a	0	0	0
3145776	WORD	wordpools/wasnorm_wordpool_576.txt	LTP362	ltpFR2	16	16	ATLAS	53	n/a	n/a	0	0	0
3148593	WORD	wordpools/wasnorm_wordpool_576.txt	LTP362	ltpFR2	16	16	SHORTCAKE	1292	n/a	n/a	0	0	0
3151308	WORD	wordpools/wasnorm_wordpool_576.txt	LTP362	ltpFR2	16	16	RIVER	1194	n/a	n/a	0	0	0
3153839	WORD	wordpools/wasnorm_wordpool_576.txt	LTP362	ltpFR2	16	16	STAMP	1370	n/a	n/a	0	0	0
3156522	WORD	wordpools/wasnorm_wordpool_576.txt	LTP362	ltpFR2	16	16	MAILBOX	857	n/a	n/a	0	0	0
3159238	WORD	wordpools/wasnorm_wordpool_576.txt	LTP362	ltpFR2	16	16	PARTNER	1017	n/a	n/a	0	0	0
3161852	WORD	wordpools/wasnorm_wordpool_576.txt	LTP362	ltpFR2	16	16	EYELASH	546	n/a	n/a	0	0	0
3163469	START	n/a	LTP362	ltpFR2	16	n/a	n/a	n/a	25	n/a	n/a	n/a	n/a
3164619	DISTRACTOR	n/a	LTP362	ltpFR2	16	16	n/a	n/a	n/a	n/a	0	0	0
3164635	PROB	n/a	LTP362	ltpFR2	16	n/a	n/a	n/a	25	10	3	5	2
3166017	PROB	n/a	LTP362	ltpFR2	16	n/a	n/a	n/a	25	13	4	8	1
3167517	PROB	n/a	LTP362	ltpFR2	16	n/a	n/a	n/a	25	13	7	1	5
3170483	PROB	n/a	LTP362	ltpFR2	16	n/a	n/a	n/a	25	18	4	5	9
3173648	PROB	n/a	LTP362	ltpFR2	16	n/a	n/a	n/a	25	17	8	7	2
3175647	PROB	n/a	LTP362	ltpFR2	16	n/a	n/a	n/a	25	13	3	4	6
3176695	PROB	n/a	LTP362	ltpFR2	16	n/a	n/a	n/a	25	12	7	2	3
3178629	PROB	n/a	LTP362	ltpFR2	16	n/a	n/a	n/a	25	18	2	7	9
3180495	PROB	n/a	LTP362	ltpFR2	16	n/a	n/a	n/a	25	16	7	8	1
3181594	PROB	n/a	LTP362	ltpFR2	16	n/a	n/a	n/a	25	18	6	4	8
3182627	PROB	n/a	LTP362	ltpFR2	16	n/a	n/a	n/a	25	13	7	2	4
3185359	PROB	n/a	LTP362	ltpFR2	16	n/a	n/a	n/a	25	6	4	1	1
3186300	STOP	n/a	LTP362	ltpFR2	16	n/a	n/a	n/a	25	n/a	n/a	n/a	n/a
3189275	REC_START	n/a	LTP362	ltpFR2	16	16	n/a	n/a	n/a	n/a	0	0	0
3202630	REC_WORD	wordpools/wasnorm_wordpool_576.txt	LTP362	ltpFR2	16	16	SHORTCAKE	1292	n/a	n/a	0	0	0
3265805	REST_REWET	n/a	LTP362	ltpFR2	16	16	n/a	n/a	n/a	n/a	0	0	0
3317665	WORD	wordpools/wasnorm_wordpool_576.txt	LTP362	ltpFR2	16	17	STOMACH	1384	n/a	n/a	0	0	0
3320248	WORD	wordpools/wasnorm_wordpool_576.txt	LTP362	ltpFR2	16	17	TEACHER	1440	n/a	n/a	0	0	0
3322946	WORD	wordpools/wasnorm_wordpool_576.txt	LTP362	ltpFR2	16	17	COMPASS	358	n/a	n/a	0	0	0
3325562	WORD	wordpools/wasnorm_wordpool_576.txt	LTP362	ltpFR2	16	17	VIRUS	1572	n/a	n/a	0	0	0
3328311	WORD	wordpools/wasnorm_wordpool_576.txt	LTP362	ltpFR2	16	17	TEMPLE	1448	n/a	n/a	0	0	0
3330942	WORD	wordpools/wasnorm_wordpool_576.txt	LTP362	ltpFR2	16	17	TOASTER	1472	n/a	n/a	0	0	0
3333525	WORD	wordpools/wasnorm_wordpool_576.txt	LTP362	ltpFR2	16	17	APRON	35	n/a	n/a	0	0	0
3336090	WORD	wordpools/wasnorm_wordpool_576.txt	LTP362	ltpFR2	16	17	WINDOW	1611	n/a	n/a	0	0	0
3338705	WORD	wordpools/wasnorm_wordpool_576.txt	LTP362	ltpFR2	16	17	SHRUB	1299	n/a	n/a	0	0	0
3341338	WORD	wordpools/wasnorm_wordpool_576.txt	LTP362	ltpFR2	16	17	BRANCH	168	n/a	n/a	0	0	0
3344120	WORD	wordpools/wasnorm_wordpool_576.txt	LTP362	ltpFR2	16	17	BRICK	172	n/a	n/a	0	0	0
3346553	WORD	wordpools/wasnorm_wordpool_576.txt	LTP362	ltpFR2	16	17	HARP	689	n/a	n/a	0	0	0
3349067	WORD	wordpools/wasnorm_wordpool_576.txt	LTP362	ltpFR2	16	17	PACKAGE	997	n/a	n/a	0	0	0
3351617	WORD	wordpools/wasnorm_wordpool_576.txt	LTP362	ltpFR2	16	17	DRESS	495	n/a	n/a	0	0	0
3354233	WORD	wordpools/wasnorm_wordpool_576.txt	LTP362	ltpFR2	16	17	ROBOT	1200	n/a	n/a	0	0	0
3356747	WORD	wordpools/wasnorm_wordpool_576.txt	LTP362	ltpFR2	16	17	LION	827	n/a	n/a	0	0	0
3359314	WORD	wordpools/wasnorm_wordpool_576.txt	LTP362	ltpFR2	16	17	CEILING	265	n/a	n/a	0	0	0
3361762	WORD	wordpools/wasnorm_wordpool_576.txt	LTP362	ltpFR2	16	17	OX	994	n/a	n/a	0	0	0
3364295	WORD	wordpools/wasnorm_wordpool_576.txt	LTP362	ltpFR2	16	17	TRANSPLANT	1496	n/a	n/a	0	0	0
3366859	WORD	wordpools/wasnorm_wordpool_576.txt	LTP362	ltpFR2	16	17	COBRA	336	n/a	n/a	0	0	0
3369409	WORD	wordpools/wasnorm_wordpool_576.txt	LTP362	ltpFR2	16	17	SWAMP	1416	n/a	n/a	0	0	0
3372007	WORD	wordpools/wasnorm_wordpool_576.txt	LTP362	ltpFR2	16	17	BLADE	134	n/a	n/a	0	0	0
3374457	WORD	wordpools/wasnorm_wordpool_576.txt	LTP362	ltpFR2	16	17	POSTAGE	1113	n/a	n/a	0	0	0
3376988	WORD	wordpools/wasnorm_wordpool_576.txt	LTP362	ltpFR2	16	17	CONCERT	360	n/a	n/a	0	0	0
3378605	START	n/a	LTP362	ltpFR2	16	n/a	n/a	n/a	26	n/a	n/a	n/a	n/a
3379732	DISTRACTOR	n/a	LTP362	ltpFR2	16	17	n/a	n/a	n/a	n/a	0	0	0
3379737	PROB	n/a	LTP362	ltpFR2	16	n/a	n/a	n/a	26	21	7	8	6
3382420	PROB	n/a	LTP362	ltpFR2	16	n/a	n/a	n/a	26	19	9	2	8
3383636	PROB	n/a	LTP362	ltpFR2	16	n/a	n/a	n/a	26	11	2	4	5
3385101	PROB	n/a	LTP362	ltpFR2	16	n/a	n/a	n/a	26	13	5	5	3
3386117	PROB	n/a	LTP362	ltpFR2	16	n/a	n/a	n/a	26	9	6	1	2
3388100	PROB	n/a	LTP362	ltpFR2	16	n/a	n/a	n/a	26	21	5	8	8
3389417	PROB	n/a	LTP362	ltpFR2	16	n/a	n/a	n/a	26	14	3	6	5
3390798	PROB	n/a	LTP362	ltpFR2	16	n/a	n/a	n/a	26	10	3	4	3
3393365	PROB	n/a	LTP362	ltpFR2	16	n/a	n/a	n/a	26	14	7	5	2
3394980	PROB	n/a	LTP362	ltpFR2	16	n/a	n/a	n/a	26	17	1	7	9
3396247	PROB	n/a	LTP362	ltpFR2	16	n/a	n/a	n/a	26	17	7	3	7
3398496	PROB	n/a	LTP362	ltpFR2	16	n/a	n/a	n/a	26	8	5	2	1
3399711	PROB	n/a	LTP362	ltpFR2	16	n/a	n/a	n/a	26	10	4	2	4
3400977	PROB	n/a	LTP362	ltpFR2	16	n/a	n/a	n/a	26	25	7	9	9
3402475	STOP	n/a	LTP362	ltpFR2	16	n/a	n/a	n/a	26	n/a	n/a	n/a	n/a
3404377	REC_START	n/a	LTP362	ltpFR2	16	17	n/a	n/a	n/a	n/a	0	0	0
3455585	REC_WORD	wordpools/wasnorm_wordpool_576.txt	LTP362	ltpFR2	16	17	LION	827	n/a	n/a	0	0	0
3456275	REC_WORD	wordpools/wasnorm_wordpool_576.txt	LTP362	ltpFR2	16	17	OX	994	n/a	n/a	0	0	0
3494818	WORD	wordpools/wasnorm_wordpool_576.txt	LTP362	ltpFR2	16	18	PROTON	1132	n/a	n/a	0	0	0
3497601	WORD	wordpools/wasnorm_wordpool_576.txt	LTP362	ltpFR2	16	18	INFANT	737	n/a	n/a	0	0	0
3500150	WORD	wordpools/wasnorm_wordpool_576.txt	LTP362	ltpFR2	16	18	GOBLIN	645	n/a	n/a	0	0	0
3502615	WORD	wordpools/wasnorm_wordpool_576.txt	LTP362	ltpFR2	16	18	BLUEPRINT	142	n/a	n/a	0	0	0
3505097	WORD	wordpools/wasnorm_wordpool_576.txt	LTP362	ltpFR2	16	18	KNAPSACK	783	n/a	n/a	0	0	0
3507662	WORD	wordpools/wasnorm_wordpool_576.txt	LTP362	ltpFR2	16	18	LUNCH	849	n/a	n/a	0	0	0
3510111	WORD	wordpools/wasnorm_wordpool_576.txt	LTP362	ltpFR2	16	18	POSSUM	1112	n/a	n/a	0	0	0
3512910	WORD	wordpools/wasnorm_wordpool_576.txt	LTP362	ltpFR2	16	18	SUNRISE	1407	n/a	n/a	0	0	0
3515426	WORD	wordpools/wasnorm_wordpool_576.txt	LTP362	ltpFR2	16	18	TROMBONE	1508	n/a	n/a	0	0	0
3517957	WORD	wordpools/wasnorm_wordpool_576.txt	LTP362	ltpFR2	16	18	ASIA	46	n/a	n/a	0	0	0
3520756	WORD	wordpools/wasnorm_wordpool_576.txt	LTP362	ltpFR2	16	18	GLOBE	641	n/a	n/a	0	0	0
3523223	WORD	wordpools/wasnorm_wordpool_576.txt	LTP362	ltpFR2	16	18	MATCH	878	n/a	n/a	0	0	0
3525954	WORD	wordpools/wasnorm_wordpool_576.txt	LTP362	ltpFR2	16	18	GARBAGE	622	n/a	n/a	0	0	0
3528736	WORD	wordpools/wasnorm_wordpool_576.txt	LTP362	ltpFR2	16	18	BUGGY	188	n/a	n/a	0	0	0
3531536	WORD	wordpools/wasnorm_wordpool_576.txt	LTP362	ltpFR2	16	18	PUPPY	1144	n/a	n/a	0	0	0
3534151	WORD	wordpools/wasnorm_wordpool_576.txt	LTP362	ltpFR2	16	18	LAMP	798	n/a	n/a	0	0	0
3536666	WORD	wordpools/wasnorm_wordpool_576.txt	LTP362	ltpFR2	16	18	GLOVE	642	n/a	n/a	0	0	0
3539465	WORD	wordpools/wasnorm_wordpool_576.txt	LTP362	ltpFR2	16	18	FINGER	567	n/a	n/a	0	0	0
3541947	WORD	wordpools/wasnorm_wordpool_576.txt	LTP362	ltpFR2	16	18	SEAGULL	1261	n/a	n/a	0	0	0
3544546	WORD	wordpools/wasnorm_wordpool_576.txt	LTP362	ltpFR2	16	18	LASER	801	n/a	n/a	0	0	0
3547094	WORD	wordpools/wasnorm_wordpool_576.txt	LTP362	ltpFR2	16	18	POISON	1096	n/a	n/a	0	0	0
3549910	WORD	wordpools/wasnorm_wordpool_576.txt	LTP362	ltpFR2	16	18	PUDDING	1139	n/a	n/a	0	0	0
3552725	WORD	wordpools/wasnorm_wordpool_576.txt	LTP362	ltpFR2	16	18	HOUND	724	n/a	n/a	0	0	0
3555508	WORD	wordpools/wasnorm_wordpool_576.txt	LTP362	ltpFR2	16	18	TREAT	1501	n/a	n/a	0	0	0
3557123	START	n/a	LTP362	ltpFR2	16	n/a	n/a	n/a	27	n/a	n/a	n/a	n/a
3558216	DISTRACTOR	n/a	LTP362	ltpFR2	16	18	n/a	n/a	n/a	n/a	0	0	0
3558223	PROB	n/a	LTP362	ltpFR2	16	n/a	n/a	n/a	27	8	1	2	5
3559440	PROB	n/a	LTP362	ltpFR2	16	n/a	n/a	n/a	27	10	1	5	4
3560805	PROB	n/a	LTP362	ltpFR2	16	n/a	n/a	n/a	27	12	1	7	4
3562787	PROB	n/a	LTP362	ltpFR2	16	n/a	n/a	n/a	27	23	9	6	8
3564587	PROB	n/a	LTP362	ltpFR2	16	n/a	n/a	n/a	27	14	4	6	4
3567536	PROB	n/a	LTP362	ltpFR2	16	n/a	n/a	n/a	27	10	7	1	2
3568901	PROB	n/a	LTP362	ltpFR2	16	n/a	n/a	n/a	27	17	8	4	5
3570401	PROB	n/a	LTP362	ltpFR2	16	n/a	n/a	n/a	27	9	3	5	1
3571716	PROB	n/a	LTP362	ltpFR2	16	n/a	n/a	n/a	27	16	8	5	3
3572916	PROB	n/a	LTP362	ltpFR2	16	n/a	n/a	n/a	27	12	3	5	4
3574583	PROB	n/a	LTP362	ltpFR2	16	n/a	n/a	n/a	27	11	1	1	9
3575665	PROB	n/a	LTP362	ltpFR2	16	n/a	n/a	n/a	27	25	9	8	8
3578448	PROB	n/a	LTP362	ltpFR2	16	n/a	n/a	n/a	27	16	3	4	9
3580111	STOP	n/a	LTP362	ltpFR2	16	n/a	n/a	n/a	27	n/a	n/a	n/a	n/a
3582962	REC_START	n/a	LTP362	ltpFR2	16	18	n/a	n/a	n/a	n/a	0	0	0
3583251	REC_WORD	wordpools/wasnorm_wordpool_576.txt	LTP362	ltpFR2	16	18	PROTON	1132	n/a	n/a	0	0	0
3583903	REC_WORD	wordpools/wasnorm_wordpool_576.txt	LTP362	ltpFR2	16	18	INFANT	737	n/a	n/a	0	0	0
3584372	REC_WORD	wordpools/wasnorm_wordpool_576.txt	LTP362	ltpFR2	16	18	LASER	801	n/a	n/a	0	0	0
3584971	REC_WORD	wordpools/wasnorm_wordpool_576.txt	LTP362	ltpFR2	16	18	PUPPY	1144	n/a	n/a	0	0	0
3585377	REC_WORD	wordpools/wasnorm_wordpool_576.txt	LTP362	ltpFR2	16	18	HOUND	724	n/a	n/a	0	0	0
3673405	WORD	wordpools/wasnorm_wordpool_576.txt	LTP362	ltpFR2	16	19	GARLIC	624	n/a	n/a	0	0	0
3676019	WORD	wordpools/wasnorm_wordpool_576.txt	LTP362	ltpFR2	16	19	MUFFIN	929	n/a	n/a	0	0	0
3678519	WORD	wordpools/wasnorm_wordpool_576.txt	LTP362	ltpFR2	16	19	PISTOL	1075	n/a	n/a	0	0	0
3680983	WORD	wordpools/wasnorm_wordpool_576.txt	LTP362	ltpFR2	16	19	ATOM	55	n/a	n/a	0	0	0
3683550	WORD	wordpools/wasnorm_wordpool_576.txt	LTP362	ltpFR2	16	19	SKETCH	1315	n/a	n/a	0	0	0
3685981	WORD	wordpools/wasnorm_wordpool_576.txt	LTP362	ltpFR2	16	19	CHEST	295	n/a	n/a	0	0	0
3688598	WORD	wordpools/wasnorm_wordpool_576.txt	LTP362	ltpFR2	16	19	BEAST	108	n/a	n/a	0	0	0
3691112	WORD	wordpools/wasnorm_wordpool_576.txt	LTP362	ltpFR2	16	19	DUST	508	n/a	n/a	0	0	0
3693844	WORD	wordpools/wasnorm_wordpool_576.txt	LTP362	ltpFR2	16	19	SCRIBBLE	1256	n/a	n/a	0	0	0
3696528	WORD	wordpools/wasnorm_wordpool_576.txt	LTP362	ltpFR2	16	19	CLAMP	316	n/a	n/a	0	0	0
3698975	WORD	wordpools/wasnorm_wordpool_576.txt	LTP362	ltpFR2	16	19	BROTHER	179	n/a	n/a	0	0	0
3701757	WORD	wordpools/wasnorm_wordpool_576.txt	LTP362	ltpFR2	16	19	LUMBER	848	n/a	n/a	0	0	0
3704557	WORD	wordpools/wasnorm_wordpool_576.txt	LTP362	ltpFR2	16	19	MARROW	872	n/a	n/a	0	0	0
3707038	WORD	wordpools/wasnorm_wordpool_576.txt	LTP362	ltpFR2	16	19	LONDON	843	n/a	n/a	0	0	0
3709704	WORD	wordpools/wasnorm_wordpool_576.txt	LTP362	ltpFR2	16	19	WASP	1593	n/a	n/a	0	0	0
3712154	WORD	wordpools/wasnorm_wordpool_576.txt	LTP362	ltpFR2	16	19	HORNET	718	n/a	n/a	0	0	0
3714619	WORD	wordpools/wasnorm_wordpool_576.txt	LTP362	ltpFR2	16	19	WARDROBE	1587	n/a	n/a	0	0	0
3717151	WORD	wordpools/wasnorm_wordpool_576.txt	LTP362	ltpFR2	16	19	POWDER	1117	n/a	n/a	0	0	0
3719617	WORD	wordpools/wasnorm_wordpool_576.txt	LTP362	ltpFR2	16	19	CRIB	407	n/a	n/a	0	0	0
3722299	WORD	wordpools/wasnorm_wordpool_576.txt	LTP362	ltpFR2	16	19	HAMPER	682	n/a	n/a	0	0	0
3724914	WORD	wordpools/wasnorm_wordpool_576.txt	LTP362	ltpFR2	16	19	AIRPORT	13	n/a	n/a	0	0	0
3727580	WORD	wordpools/wasnorm_wordpool_576.txt	LTP362	ltpFR2	16	19	LUGGAGE	847	n/a	n/a	0	0	0
3730395	WORD	wordpools/wasnorm_wordpool_576.txt	LTP362	ltpFR2	16	19	KEEPER	769	n/a	n/a	0	0	0
3733060	WORD	wordpools/wasnorm_wordpool_576.txt	LTP362	ltpFR2	16	19	WOMAN	1620	n/a	n/a	0	0	0
3734676	START	n/a	LTP362	ltpFR2	16	n/a	n/a	n/a	28	n/a	n/a	n/a	n/a
3735561	DISTRACTOR	n/a	LTP362	ltpFR2	16	19	n/a	n/a	n/a	n/a	0	0	0
3735576	PROB	n/a	LTP362	ltpFR2	16	n/a	n/a	n/a	28	12	6	5	1
3736908	PROB	n/a	LTP362	ltpFR2	16	n/a	n/a	n/a	28	24	9	8	7
3739508	PROB	n/a	LTP362	ltpFR2	16	n/a	n/a	n/a	28	16	6	8	2
3740706	PROB	n/a	LTP362	ltpFR2	16	n/a	n/a	n/a	28	14	7	5	2
3742822	PROB	n/a	LTP362	ltpFR2	16	n/a	n/a	n/a	28	9	5	2	2
3744022	PROB	n/a	LTP362	ltpFR2	16	n/a	n/a	n/a	28	13	6	1	6
3745289	PROB	n/a	LTP362	ltpFR2	16	n/a	n/a	n/a	28	14	2	4	8
3746655	PROB	n/a	LTP362	ltpFR2	16	n/a	n/a	n/a	28	17	9	3	5
3748003	PROB	n/a	LTP362	ltpFR2	16	n/a	n/a	n/a	28	13	5	5	3
3749053	PROB	n/a	LTP362	ltpFR2	16	n/a	n/a	n/a	28	19	8	2	9
3750785	PROB	n/a	LTP362	ltpFR2	16	n/a	n/a	n/a	28	12	4	3	5
3753701	PROB	n/a	LTP362	ltpFR2	16	n/a	n/a	n/a	28	21	9	8	5
3755966	PROB	n/a	LTP362	ltpFR2	16	n/a	n/a	n/a	28	18	9	5	4
3758286	STOP	n/a	LTP362	ltpFR2	16	n/a	n/a	n/a	28	n/a	n/a	n/a	n/a
3760516	REC_START	n/a	LTP362	ltpFR2	16	19	n/a	n/a	n/a	n/a	0	0	0
3762018	REC_WORD	wordpools/wasnorm_wordpool_576.txt	LTP362	ltpFR2	16	19	ATOM	55	n/a	n/a	0	0	0
3763737	REC_WORD	wordpools/wasnorm_wordpool_576.txt	LTP362	ltpFR2	16	19	PISTOL	1075	n/a	n/a	0	0	0
3764705	REC_WORD	wordpools/wasnorm_wordpool_576.txt	LTP362	ltpFR2	16	19	MUFFIN	929	n/a	n/a	0	0	0
3850940	DISTRACTOR	n/a	LTP362	ltpFR2	16	20	n/a	n/a	n/a	n/a	0	0	0
3850940	START	n/a	LTP362	ltpFR2	16	n/a	n/a	n/a	29	n/a	n/a	n/a	n/a
3850957	PROB	n/a	LTP362	ltpFR2	16	n/a	n/a	n/a	29	14	6	5	3
3852490	PROB	n/a	LTP362	ltpFR2	16	n/a	n/a	n/a	29	11	4	2	5
3854705	PROB	n/a	LTP362	ltpFR2	16	n/a	n/a	n/a	29	15	1	9	5
3856088	PROB	n/a	LTP362	ltpFR2	16	n/a	n/a	n/a	29	9	2	4	3
3858204	PROB	n/a	LTP362	ltpFR2	16	n/a	n/a	n/a	29	18	7	7	4
3859769	PROB	n/a	LTP362	ltpFR2	16	n/a	n/a	n/a	29	13	8	1	4
3862202	PROB	n/a	LTP362	ltpFR2	16	n/a	n/a	n/a	29	17	6	4	7
3863468	PROB	n/a	LTP362	ltpFR2	16	n/a	n/a	n/a	29	14	5	6	3
3864933	PROB	n/a	LTP362	ltpFR2	16	n/a	n/a	n/a	29	10	1	4	5
3866201	PROB	n/a	LTP362	ltpFR2	16	n/a	n/a	n/a	29	13	3	6	4
3867383	PROB	n/a	LTP362	ltpFR2	16	n/a	n/a	n/a	29	15	7	5	3
3868732	PROB	n/a	LTP362	ltpFR2	16	n/a	n/a	n/a	29	11	2	6	3
3870315	PROB	n/a	LTP362	ltpFR2	16	n/a	n/a	n/a	29	20	8	7	5
3873888	STOP	n/a	LTP362	ltpFR2	16	n/a	n/a	n/a	29	n/a	n/a	n/a	n/a
3875995	WORD	wordpools/wasnorm_wordpool_576.txt	LTP362	ltpFR2	16	20	TROUT	1511	n/a	n/a	0	0	0
3878777	WORD	wordpools/wasnorm_wordpool_576.txt	LTP362	ltpFR2	16	20	UMPIRE	1535	n/a	n/a	0	0	0
3881227	WORD	wordpools/wasnorm_wordpool_576.txt	LTP362	ltpFR2	16	20	FLUTE	585	n/a	n/a	0	0	0
3883725	WORD	wordpools/wasnorm_wordpool_576.txt	LTP362	ltpFR2	16	20	SPONGE	1355	n/a	n/a	0	0	0
3886175	WORD	wordpools/wasnorm_wordpool_576.txt	LTP362	ltpFR2	16	20	FLASK	576	n/a	n/a	0	0	0
3888906	WORD	wordpools/wasnorm_wordpool_576.txt	LTP362	ltpFR2	16	20	PAIL	1002	n/a	n/a	0	0	0
3891372	WORD	wordpools/wasnorm_wordpool_576.txt	LTP362	ltpFR2	16	20	CHEMIST	292	n/a	n/a	0	0	0
3893970	WORD	wordpools/wasnorm_wordpool_576.txt	LTP362	ltpFR2	16	20	NAPKIN	937	n/a	n/a	0	0	0
3896520	WORD	wordpools/wasnorm_wordpool_576.txt	LTP362	ltpFR2	16	20	GRAVEL	659	n/a	n/a	0	0	0
3899219	WORD	wordpools/wasnorm_wordpool_576.txt	LTP362	ltpFR2	16	20	BURGLAR	200	n/a	n/a	0	0	0
3901733	WORD	wordpools/wasnorm_wordpool_576.txt	LTP362	ltpFR2	16	20	TUBA	1515	n/a	n/a	0	0	0
3904367	WORD	wordpools/wasnorm_wordpool_576.txt	LTP362	ltpFR2	16	20	GUARD	667	n/a	n/a	0	0	0
3906964	WORD	wordpools/wasnorm_wordpool_576.txt	LTP362	ltpFR2	16	20	SMOG	1330	n/a	n/a	0	0	0
3909481	WORD	wordpools/wasnorm_wordpool_576.txt	LTP362	ltpFR2	16	20	CLOUD	328	n/a	n/a	0	0	0
3912196	WORD	wordpools/wasnorm_wordpool_576.txt	LTP362	ltpFR2	16	20	PATROL	1027	n/a	n/a	0	0	0
3914728	WORD	wordpools/wasnorm_wordpool_576.txt	LTP362	ltpFR2	16	20	BINDER	127	n/a	n/a	0	0	0
3917294	WORD	wordpools/wasnorm_wordpool_576.txt	LTP362	ltpFR2	16	20	NOTEBOOK	959	n/a	n/a	0	0	0
3920042	WORD	wordpools/wasnorm_wordpool_576.txt	LTP362	ltpFR2	16	20	BANKER	84	n/a	n/a	0	0	0
3922691	WORD	wordpools/wasnorm_wordpool_576.txt	LTP362	ltpFR2	16	20	BLOCKADE	137	n/a	n/a	0	0	0
3925474	WORD	wordpools/wasnorm_wordpool_576.txt	LTP362	ltpFR2	16	20	DRIVER	499	n/a	n/a	0	0	0
3928022	WORD	wordpools/wasnorm_wordpool_576.txt	LTP362	ltpFR2	16	20	NURSE	963	n/a	n/a	0	0	0
3930770	WORD	wordpools/wasnorm_wordpool_576.txt	LTP362	ltpFR2	16	20	PASTA	1021	n/a	n/a	0	0	0
3933387	WORD	wordpools/wasnorm_wordpool_576.txt	LTP362	ltpFR2	16	20	YACHT	1629	n/a	n/a	0	0	0
3935851	WORD	wordpools/wasnorm_wordpool_576.txt	LTP362	ltpFR2	16	20	CONTRACT	368	n/a	n/a	0	0	0
3937468	START	n/a	LTP362	ltpFR2	16	n/a	n/a	n/a	30	n/a	n/a	n/a	n/a
3938408	DISTRACTOR	n/a	LTP362	ltpFR2	16	20	n/a	n/a	n/a	n/a	0	0	0
3938418	PROB	n/a	LTP362	ltpFR2	16	n/a	n/a	n/a	30	19	9	5	5
3940167	PROB	n/a	LTP362	ltpFR2	16	n/a	n/a	n/a	30	18	4	8	6
3941566	PROB	n/a	LTP362	ltpFR2	16	n/a	n/a	n/a	30	14	7	3	4
3961468	STOP	n/a	LTP362	ltpFR2	16	n/a	n/a	n/a	30	n/a	n/a	n/a	n/a
3963390	REC_START	n/a	LTP362	ltpFR2	16	20	n/a	n/a	n/a	n/a	0	0	0
4033638	REC_WORD	wordpools/wasnorm_wordpool_576.txt	LTP362	ltpFR2	16	20	BURGLAR	200	n/a	n/a	0	0	0
4053831	WORD	wordpools/wasnorm_wordpool_576.txt	LTP362	ltpFR2	16	21	NEUTRON	947	n/a	n/a	0	0	0
4056514	WORD	wordpools/wasnorm_wordpool_576.txt	LTP362	ltpFR2	16	21	SUBWAY	1400	n/a	n/a	0	0	0
4058996	WORD	wordpools/wasnorm_wordpool_576.txt	LTP362	ltpFR2	16	21	LAGOON	795	n/a	n/a	0	0	0
4061512	WORD	wordpools/wasnorm_wordpool_576.txt	LTP362	ltpFR2	16	21	PLAYGROUND	1087	n/a	n/a	0	0	0
4064077	WORD	wordpools/wasnorm_wordpool_576.txt	LTP362	ltpFR2	16	21	APPLE	33	n/a	n/a	0	0	0
4066742	WORD	wordpools/wasnorm_wordpool_576.txt	LTP362	ltpFR2	16	21	BACON	67	n/a	n/a	0	0	0
4069508	WORD	wordpools/wasnorm_wordpool_576.txt	LTP362	ltpFR2	16	21	HEADBAND	696	n/a	n/a	0	0	0
4072324	WORD	wordpools/wasnorm_wordpool_576.txt	LTP362	ltpFR2	16	21	VELVET	1555	n/a	n/a	0	0	0
4074988	WORD	wordpools/wasnorm_wordpool_576.txt	LTP362	ltpFR2	16	21	ROBBER	1197	n/a	n/a	0	0	0
4077505	WORD	wordpools/wasnorm_wordpool_576.txt	LTP362	ltpFR2	16	21	CANDY	230	n/a	n/a	0	0	0
4080069	WORD	wordpools/wasnorm_wordpool_576.txt	LTP362	ltpFR2	16	21	BEAKER	104	n/a	n/a	0	0	0
4082735	WORD	wordpools/wasnorm_wordpool_576.txt	LTP362	ltpFR2	16	21	BRAKE	166	n/a	n/a	0	0	0
4085251	WORD	wordpools/wasnorm_wordpool_576.txt	LTP362	ltpFR2	16	21	BOUQUET	157	n/a	n/a	0	0	0
4087849	WORD	wordpools/wasnorm_wordpool_576.txt	LTP362	ltpFR2	16	21	JUGGLER	763	n/a	n/a	0	0	0
4090649	WORD	wordpools/wasnorm_wordpool_576.txt	LTP362	ltpFR2	16	21	BALLOON	75	n/a	n/a	0	0	0
4093113	WORD	wordpools/wasnorm_wordpool_576.txt	LTP362	ltpFR2	16	21	SUMMIT	1405	n/a	n/a	0	0	0
4095563	WORD	wordpools/wasnorm_wordpool_576.txt	LTP362	ltpFR2	16	21	CLIMBER	323	n/a	n/a	0	0	0
4098095	WORD	wordpools/wasnorm_wordpool_576.txt	LTP362	ltpFR2	16	21	MACHINE	852	n/a	n/a	0	0	0
4100528	WORD	wordpools/wasnorm_wordpool_576.txt	LTP362	ltpFR2	16	21	SUSPECT	1415	n/a	n/a	0	0	0
4103076	WORD	wordpools/wasnorm_wordpool_576.txt	LTP362	ltpFR2	16	21	SWIMMER	1420	n/a	n/a	0	0	0
4105808	WORD	wordpools/wasnorm_wordpool_576.txt	LTP362	ltpFR2	16	21	COLONEL	348	n/a	n/a	0	0	0
4108441	WORD	wordpools/wasnorm_wordpool_576.txt	LTP362	ltpFR2	16	21	EUROPE	541	n/a	n/a	0	0	0
4111122	WORD	wordpools/wasnorm_wordpool_576.txt	LTP362	ltpFR2	16	21	FRANCE	601	n/a	n/a	0	0	0
4113854	WORD	wordpools/wasnorm_wordpool_576.txt	LTP362	ltpFR2	16	21	PEACH	1031	n/a	n/a	0	0	0
4115471	START	n/a	LTP362	ltpFR2	16	n/a	n/a	n/a	31	n/a	n/a	n/a	n/a
4116408	DISTRACTOR	n/a	LTP362	ltpFR2	16	21	n/a	n/a	n/a	n/a	0	0	0
4116421	PROB	n/a	LTP362	ltpFR2	16	n/a	n/a	n/a	31	11	6	2	3
4119269	PROB	n/a	LTP362	ltpFR2	16	n/a	n/a	n/a	31	17	8	6	3
4121185	PROB	n/a	LTP362	ltpFR2	16	n/a	n/a	n/a	31	14	3	3	8
4122783	PROB	n/a	LTP362	ltpFR2	16	n/a	n/a	n/a	31	11	3	4	4
4124584	PROB	n/a	LTP362	ltpFR2	16	n/a	n/a	n/a	31	10	2	2	6
4126065	PROB	n/a	LTP362	ltpFR2	16	n/a	n/a	n/a	31	10	1	4	5
4127466	PROB	n/a	LTP362	ltpFR2	16	n/a	n/a	n/a	31	12	1	3	8
4128997	PROB	n/a	LTP362	ltpFR2	16	n/a	n/a	n/a	31	15	2	5	8
4130631	PROB	n/a	LTP362	ltpFR2	16	n/a	n/a	n/a	31	16	4	5	7
4132630	PROB	n/a	LTP362	ltpFR2	16	n/a	n/a	n/a	31	17	3	9	5
4134861	PROB	n/a	LTP362	ltpFR2	16	n/a	n/a	n/a	31	17	6	8	3
4139471	STOP	n/a	LTP362	ltpFR2	16	n/a	n/a	n/a	31	n/a	n/a	n/a	n/a
4141327	REC_START	n/a	LTP362	ltpFR2	16	21	n/a	n/a	n/a	n/a	0	0	0
4147208	REC_WORD	wordpools/wasnorm_wordpool_576.txt	LTP362	ltpFR2	16	21	EUROPE	541	n/a	n/a	0	0	0
4150204	REC_WORD	wordpools/wasnorm_wordpool_576.txt	LTP362	ltpFR2	16	21	PREACH	-1	n/a	n/a	0	0	0
4231751	DISTRACTOR	n/a	LTP362	ltpFR2	16	22	n/a	n/a	n/a	n/a	0	0	0
4231751	START	n/a	LTP362	ltpFR2	16	n/a	n/a	n/a	32	n/a	n/a	n/a	n/a
4231767	PROB	n/a	LTP362	ltpFR2	16	n/a	n/a	n/a	32	13	9	2	2
4233067	PROB	n/a	LTP362	ltpFR2	16	n/a	n/a	n/a	32	17	2	9	6
4235200	PROB	n/a	LTP362	ltpFR2	16	n/a	n/a	n/a	32	18	7	7	4
4237166	PROB	n/a	LTP362	ltpFR2	16	n/a	n/a	n/a	32	4	1	1	2
4238149	PROB	n/a	LTP362	ltpFR2	16	n/a	n/a	n/a	32	9	2	1	6
4239448	PROB	n/a	LTP362	ltpFR2	16	n/a	n/a	n/a	32	16	5	8	3
4241331	PROB	n/a	LTP362	ltpFR2	16	n/a	n/a	n/a	32	14	5	8	1
4243029	PROB	n/a	LTP362	ltpFR2	16	n/a	n/a	n/a	32	20	9	2	9
4244695	PROB	n/a	LTP362	ltpFR2	16	n/a	n/a	n/a	32	9	3	4	2
4248194	PROB	n/a	LTP362	ltpFR2	16	n/a	n/a	n/a	32	18	3	6	9
4250326	PROB	n/a	LTP362	ltpFR2	16	n/a	n/a	n/a	32	8	6	1	1
4251526	PROB	n/a	LTP362	ltpFR2	16	n/a	n/a	n/a	32	14	5	1	8
4253642	PROB	n/a	LTP362	ltpFR2	16	n/a	n/a	n/a	32	12	6	1	5
4254916	STOP	n/a	LTP362	ltpFR2	16	n/a	n/a	n/a	32	n/a	n/a	n/a	n/a
4256607	WORD	wordpools/wasnorm_wordpool_576.txt	LTP362	ltpFR2	16	22	BRANDY	169	n/a	n/a	0	0	0
4259256	WORD	wordpools/wasnorm_wordpool_576.txt	LTP362	ltpFR2	16	22	COIN	343	n/a	n/a	0	0	0
4261770	WORD	wordpools/wasnorm_wordpool_576.txt	LTP362	ltpFR2	16	22	KNIFE	785	n/a	n/a	0	0	0
4264254	WORD	wordpools/wasnorm_wordpool_576.txt	LTP362	ltpFR2	16	22	CREVICE	405	n/a	n/a	0	0	0
4267051	WORD	wordpools/wasnorm_wordpool_576.txt	LTP362	ltpFR2	16	22	TUTU	1524	n/a	n/a	0	0	0
4269867	WORD	wordpools/wasnorm_wordpool_576.txt	LTP362	ltpFR2	16	22	ELBOW	520	n/a	n/a	0	0	0
4272383	WORD	wordpools/wasnorm_wordpool_576.txt	LTP362	ltpFR2	16	22	ARM	38	n/a	n/a	0	0	0
4275098	WORD	wordpools/wasnorm_wordpool_576.txt	LTP362	ltpFR2	16	22	THRONE	1461	n/a	n/a	0	0	0
4277647	WORD	wordpools/wasnorm_wordpool_576.txt	LTP362	ltpFR2	16	22	SUPPER	1411	n/a	n/a	0	0	0
4280263	WORD	wordpools/wasnorm_wordpool_576.txt	LTP362	ltpFR2	16	22	HOOD	714	n/a	n/a	0	0	0
4282927	WORD	wordpools/wasnorm_wordpool_576.txt	LTP362	ltpFR2	16	22	CORAL	378	n/a	n/a	0	0	0
4285709	WORD	wordpools/wasnorm_wordpool_576.txt	LTP362	ltpFR2	16	22	PEBBLE	1035	n/a	n/a	0	0	0
4288193	WORD	wordpools/wasnorm_wordpool_576.txt	LTP362	ltpFR2	16	22	TURKEY	1520	n/a	n/a	0	0	0
4290874	WORD	wordpools/wasnorm_wordpool_576.txt	LTP362	ltpFR2	16	22	GRILL	661	n/a	n/a	0	0	0
4293689	WORD	wordpools/wasnorm_wordpool_576.txt	LTP362	ltpFR2	16	22	MONEY	908	n/a	n/a	0	0	0
4296222	WORD	wordpools/wasnorm_wordpool_576.txt	LTP362	ltpFR2	16	22	BULLET	194	n/a	n/a	0	0	0
4298870	WORD	wordpools/wasnorm_wordpool_576.txt	LTP362	ltpFR2	16	22	GARDEN	623	n/a	n/a	0	0	0
4301387	WORD	wordpools/wasnorm_wordpool_576.txt	LTP362	ltpFR2	16	22	NECKLACE	940	n/a	n/a	0	0	0
4304135	WORD	wordpools/wasnorm_wordpool_576.txt	LTP362	ltpFR2	16	22	AWARD	63	n/a	n/a	0	0	0
4306817	WORD	wordpools/wasnorm_wordpool_576.txt	LTP362	ltpFR2	16	22	BANK	83	n/a	n/a	0	0	0
4309316	WORD	wordpools/wasnorm_wordpool_576.txt	LTP362	ltpFR2	16	22	PORK	1108	n/a	n/a	0	0	0
4311781	WORD	wordpools/wasnorm_wordpool_576.txt	LTP362	ltpFR2	16	22	WIDOW	1608	n/a	n/a	0	0	0
4314514	WORD	wordpools/wasnorm_wordpool_576.txt	LTP362	ltpFR2	16	22	PEPPER	1047	n/a	n/a	0	0	0
4317180	WORD	wordpools/wasnorm_wordpool_576.txt	LTP362	ltpFR2	16	22	HATCHET	691	n/a	n/a	0	0	0
4318795	START	n/a	LTP362	ltpFR2	16	n/a	n/a	n/a	33	n/a	n/a	n/a	n/a
4319808	DISTRACTOR	n/a	LTP362	ltpFR2	16	22	n/a	n/a	n/a	n/a	0	0	0
4319811	PROB	n/a	LTP362	ltpFR2	16	n/a	n/a	n/a	33	25	8	9	8
4322261	PROB	n/a	LTP362	ltpFR2	16	n/a	n/a	n/a	33	20	3	9	8
4327707	PROB	n/a	LTP362	ltpFR2	16	n/a	n/a	n/a	33	143	9	1	4
4329524	PROB	n/a	LTP362	ltpFR2	16	n/a	n/a	n/a	33	10	6	1	3
4331190	PROB	n/a	LTP362	ltpFR2	16	n/a	n/a	n/a	33	13	4	1	8
4333038	PROB	n/a	LTP362	ltpFR2	16	n/a	n/a	n/a	33	13	1	3	9
4339220	PROB	n/a	LTP362	ltpFR2	16	n/a	n/a	n/a	33	12	4	6	2
4342795	STOP	n/a	LTP362	ltpFR2	16	n/a	n/a	n/a	33	n/a	n/a	n/a	n/a
4344634	REC_START	n/a	LTP362	ltpFR2	16	22	n/a	n/a	n/a	n/a	0	0	0
4345868	REC_WORD	wordpools/wasnorm_wordpool_576.txt	LTP362	ltpFR2	16	22	BRANDY	169	n/a	n/a	0	0	0
4347320	REC_WORD	wordpools/wasnorm_wordpool_576.txt	LTP362	ltpFR2	16	22	KNIFE	785	n/a	n/a	0	0	0
4347762	REC_WORD	wordpools/wasnorm_wordpool_576.txt	LTP362	ltpFR2	16	22	COIN	343	n/a	n/a	0	0	0
4348151	REC_WORD	wordpools/wasnorm_wordpool_576.txt	LTP362	ltpFR2	16	22	CREVICE	405	n/a	n/a	0	0	0
4435058	DISTRACTOR	n/a	LTP362	ltpFR2	16	23	n/a	n/a	n/a	n/a	0	0	0
4435059	START	n/a	LTP362	ltpFR2	16	n/a	n/a	n/a	34	n/a	n/a	n/a	n/a
4435075	PROB	n/a	LTP362	ltpFR2	16	n/a	n/a	n/a	34	14	9	4	1
4437258	PROB	n/a	LTP362	ltpFR2	16	n/a	n/a	n/a	34	46	5	8	1
4441022	PROB	n/a	LTP362	ltpFR2	16	n/a	n/a	n/a	34	17	4	9	4
4443655	PROB	n/a	LTP362	ltpFR2	16	n/a	n/a	n/a	34	16	6	9	1
4445305	PROB	n/a	LTP362	ltpFR2	16	n/a	n/a	n/a	34	10	7	2	1
4447020	PROB	n/a	LTP362	ltpFR2	16	n/a	n/a	n/a	34	14	3	4	7
4448769	PROB	n/a	LTP362	ltpFR2	16	n/a	n/a	n/a	34	19	6	7	6
4451984	PROB	n/a	LTP362	ltpFR2	16	n/a	n/a	n/a	34	18	4	9	5
4454401	PROB	n/a	LTP362	ltpFR2	16	n/a	n/a	n/a	34	16	2	9	5
4456383	PROB	n/a	LTP362	ltpFR2	16	n/a	n/a	n/a	34	14	7	1	6
4458114	STOP	n/a	LTP362	ltpFR2	16	n/a	n/a	n/a	34	n/a	n/a	n/a	n/a
4459930	WORD	wordpools/wasnorm_wordpool_576.txt	LTP362	ltpFR2	16	23	LEADER	807	n/a	n/a	0	0	0
4462480	WORD	wordpools/wasnorm_wordpool_576.txt	LTP362	ltpFR2	16	23	SPACE	1345	n/a	n/a	0	0	0
4464928	WORD	wordpools/wasnorm_wordpool_576.txt	LTP362	ltpFR2	16	23	MASK	876	n/a	n/a	0	0	0
4467495	WORD	wordpools/wasnorm_wordpool_576.txt	LTP362	ltpFR2	16	23	PRIMATE	1123	n/a	n/a	0	0	0
4470160	WORD	wordpools/wasnorm_wordpool_576.txt	LTP362	ltpFR2	16	23	CYCLONE	431	n/a	n/a	0	0	0
4472626	WORD	wordpools/wasnorm_wordpool_576.txt	LTP362	ltpFR2	16	23	FIREMAN	569	n/a	n/a	0	0	0
4475158	WORD	wordpools/wasnorm_wordpool_576.txt	LTP362	ltpFR2	16	23	PECAN	1036	n/a	n/a	0	0	0
4477689	WORD	wordpools/wasnorm_wordpool_576.txt	LTP362	ltpFR2	16	23	CUSTARD	429	n/a	n/a	0	0	0
4480455	WORD	wordpools/wasnorm_wordpool_576.txt	LTP362	ltpFR2	16	23	SERVER	1272	n/a	n/a	0	0	0
4483204	WORD	wordpools/wasnorm_wordpool_576.txt	LTP362	ltpFR2	16	23	WAITER	1580	n/a	n/a	0	0	0
4485835	WORD	wordpools/wasnorm_wordpool_576.txt	LTP362	ltpFR2	16	23	MUSTARD	935	n/a	n/a	0	0	0
4488402	WORD	wordpools/wasnorm_wordpool_576.txt	LTP362	ltpFR2	16	23	BUNNY	198	n/a	n/a	0	0	0
4490850	WORD	wordpools/wasnorm_wordpool_576.txt	LTP362	ltpFR2	16	23	DANDRUFF	439	n/a	n/a	0	0	0
4493516	WORD	wordpools/wasnorm_wordpool_576.txt	LTP362	ltpFR2	16	23	RIFLE	1192	n/a	n/a	0	0	0
4496148	WORD	wordpools/wasnorm_wordpool_576.txt	LTP362	ltpFR2	16	23	CRATER	400	n/a	n/a	0	0	0
4498879	WORD	wordpools/wasnorm_wordpool_576.txt	LTP362	ltpFR2	16	23	LIPSTICK	829	n/a	n/a	0	0	0
4501529	WORD	wordpools/wasnorm_wordpool_576.txt	LTP362	ltpFR2	16	23	EMPIRE	530	n/a	n/a	0	0	0
4504245	WORD	wordpools/wasnorm_wordpool_576.txt	LTP362	ltpFR2	16	23	FOREHEAD	592	n/a	n/a	0	0	0
4506776	WORD	wordpools/wasnorm_wordpool_576.txt	LTP362	ltpFR2	16	23	TILE	1468	n/a	n/a	0	0	0
4509209	WORD	wordpools/wasnorm_wordpool_576.txt	LTP362	ltpFR2	16	23	PUDDLE	1140	n/a	n/a	0	0	0
4511774	WORD	wordpools/wasnorm_wordpool_576.txt	LTP362	ltpFR2	16	23	RAFT	1159	n/a	n/a	0	0	0
4514473	WORD	wordpools/wasnorm_wordpool_576.txt	LTP362	ltpFR2	16	23	TWISTER	1530	n/a	n/a	0	0	0
4517038	WORD	wordpools/wasnorm_wordpool_576.txt	LTP362	ltpFR2	16	23	GHETTO	633	n/a	n/a	0	0	0
4519703	WORD	wordpools/wasnorm_wordpool_576.txt	LTP362	ltpFR2	16	23	TERMITE	1451	n/a	n/a	0	0	0
4521321	START	n/a	LTP362	ltpFR2	16	n/a	n/a	n/a	35	n/a	n/a	n/a	n/a
4522187	DISTRACTOR	n/a	LTP362	ltpFR2	16	23	n/a	n/a	n/a	n/a	0	0	0
4522203	PROB	n/a	LTP362	ltpFR2	16	n/a	n/a	n/a	35	11	1	5	5
4525667	PROB	n/a	LTP362	ltpFR2	16	n/a	n/a	n/a	35	10	2	3	5
4528334	PROB	n/a	LTP362	ltpFR2	16	n/a	n/a	n/a	35	17	2	7	8
4530115	PROB	n/a	LTP362	ltpFR2	16	n/a	n/a	n/a	35	25	7	9	9
4532031	PROB	n/a	LTP362	ltpFR2	16	n/a	n/a	n/a	35	13	3	5	5
4533465	PROB	n/a	LTP362	ltpFR2	16	n/a	n/a	n/a	35	19	7	8	4
4535314	PROB	n/a	LTP362	ltpFR2	16	n/a	n/a	n/a	35	16	7	7	2
4538012	PROB	n/a	LTP362	ltpFR2	16	n/a	n/a	n/a	35	21	4	9	8
4540877	PROB	n/a	LTP362	ltpFR2	16	n/a	n/a	n/a	35	15	6	6	3
4544485	STOP	n/a	LTP362	ltpFR2	16	n/a	n/a	n/a	35	n/a	n/a	n/a	n/a
4547209	REC_START	n/a	LTP362	ltpFR2	16	23	n/a	n/a	n/a	n/a	0	0	0
4548692	REC_WORD	wordpools/wasnorm_wordpool_576.txt	LTP362	ltpFR2	16	23	SPACE	1345	n/a	n/a	0	0	0
4549302	REC_WORD	wordpools/wasnorm_wordpool_576.txt	LTP362	ltpFR2	16	23	LEADER	807	n/a	n/a	0	0	0
4549710	REC_WORD	wordpools/wasnorm_wordpool_576.txt	LTP362	ltpFR2	16	23	MASK	876	n/a	n/a	0	0	0
4550324	REC_WORD	wordpools/wasnorm_wordpool_576.txt	LTP362	ltpFR2	16	23	PRIMATE	1123	n/a	n/a	0	0	0
4551564	REC_WORD	wordpools/wasnorm_wordpool_576.txt	LTP362	ltpFR2	16	23	CYCLONE	431	n/a	n/a	0	0	0
4552207	REC_WORD	wordpools/wasnorm_wordpool_576.txt	LTP362	ltpFR2	16	23	FIREMAN	569	n/a	n/a	0	0	0
4552884	REC_WORD	wordpools/wasnorm_wordpool_576.txt	LTP362	ltpFR2	16	23	TWISTER	1530	n/a	n/a	0	0	0
4553561	REC_WORD	wordpools/wasnorm_wordpool_576.txt	LTP362	ltpFR2	16	23	GHETTO	633	n/a	n/a	0	0	0
4558978	REC_WORD	wordpools/wasnorm_wordpool_576.txt	LTP362	ltpFR2	16	23	MONKEY	911	n/a	n/a	0	0	0
4637651	WORD	wordpools/wasnorm_wordpool_576.txt	LTP362	ltpFR2	16	24	ACTRESS	6	n/a	n/a	0	0	0
