onset	duration	trial_type	sample	stim_file	subject	experiment	session	trial	task	item_name	item_num	recog_conf	resp	color_b	color_g	color_r	case	font
335.534	n/a	SESS_START	167767	n/a	LTP230	ltpFR	5	n/a	n/a	n/a	n/a	3	n/a	n/a	n/a	n/a	n/a	n/a
364.774	n/a	WORD	182387	wordpools/wasnorm_wordpool_less_exclusions.txt	LTP230	ltpFR	5	1	1	TUBA	1515	1	0	0	0.5869140625	0.422607421875	lower	../fonts/zerothre.ttf
369.002	n/a	WORD	184501	wordpools/wasnorm_wordpool_less_exclusions.txt	LTP230	ltpFR	5	1	1	HERB	704	n/a	0	0	0.5869140625	0.422607421875	lower	../fonts/zerothre.ttf
372.928	n/a	WORD	186464	wordpools/wasnorm_wordpool_less_exclusions.txt	LTP230	ltpFR	5	1	1	COMMANDER	354	n/a	1	0	0.5869140625	0.422607421875	lower	../fonts/zerothre.ttf
376.89	n/a	WORD	188445	wordpools/wasnorm_wordpool_less_exclusions.txt	LTP230	ltpFR	5	1	1	MULE	931	n/a	1	0	0.5869140625	0.422607421875	lower	../fonts/zerothre.ttf
380.916	n/a	WORD	190458	wordpools/wasnorm_wordpool_less_exclusions.txt	LTP230	ltpFR	5	1	0	RACK	1154	n/a	1	1	0.412841796875	0.57763671875	upper	../fonts/amplitud.ttf
384.81	n/a	WORD	192405	wordpools/wasnorm_wordpool_less_exclusions.txt	LTP230	ltpFR	5	1	0	PASTRY	1022	n/a	0	1	0.412841796875	0.57763671875	upper	../fonts/amplitud.ttf
388.954	n/a	WORD	194477	wordpools/wasnorm_wordpool_less_exclusions.txt	LTP230	ltpFR	5	1	0	BEET	115	n/a	0	1	0.412841796875	0.57763671875	upper	../fonts/amplitud.ttf
393.098	n/a	WORD	196549	wordpools/wasnorm_wordpool_less_exclusions.txt	LTP230	ltpFR	5	1	0	LADY	794	n/a	1	1	0.412841796875	0.57763671875	upper	../fonts/amplitud.ttf
397.142	n/a	WORD	198571	wordpools/wasnorm_wordpool_less_exclusions.txt	LTP230	ltpFR	5	1	0	WOMAN	1620	n/a	1	1	0.412841796875	0.57763671875	upper	../fonts/amplitud.ttf
401.02	n/a	WORD	200510	wordpools/wasnorm_wordpool_less_exclusions.txt	LTP230	ltpFR	5	1	1	CROSS	413	n/a	0	0	0.5869140625	0.422607421875	lower	../fonts/zerothre.ttf
405.096	n/a	WORD	202548	wordpools/wasnorm_wordpool_less_exclusions.txt	LTP230	ltpFR	5	1	1	SAUSAGE	1238	n/a	0	0	0.5869140625	0.422607421875	lower	../fonts/zerothre.ttf
409.308	n/a	WORD	204654	wordpools/wasnorm_wordpool_less_exclusions.txt	LTP230	ltpFR	5	1	1	BANDANNA	80	n/a	0	0	0.5869140625	0.422607421875	lower	../fonts/zerothre.ttf
413.284	n/a	WORD	206642	wordpools/wasnorm_wordpool_less_exclusions.txt	LTP230	ltpFR	5	1	1	COLT	349	n/a	1	0	0.5869140625	0.422607421875	lower	../fonts/zerothre.ttf
417.262	n/a	WORD	208631	wordpools/wasnorm_wordpool_less_exclusions.txt	LTP230	ltpFR	5	1	0	SUNRISE	1407	n/a	0	1	0.412841796875	0.57763671875	upper	../fonts/amplitud.ttf
421.19	n/a	WORD	210595	wordpools/wasnorm_wordpool_less_exclusions.txt	LTP230	ltpFR	5	1	0	SUN	1406	n/a	1	1	0.412841796875	0.57763671875	upper	../fonts/amplitud.ttf
425.052	n/a	WORD	212526	wordpools/wasnorm_wordpool_less_exclusions.txt	LTP230	ltpFR	5	1	0	SHRINE	1298	n/a	1	1	0.412841796875	0.57763671875	upper	../fonts/amplitud.ttf
430.844	n/a	REC_START	215422	n/a	LTP230	ltpFR	5	1	n/a	n/a	n/a	n/a	n/a	n/a	n/a	n/a	n/a	n/a
435.912	n/a	REC_WORD	217956	wordpools/wasnorm_wordpool_less_exclusions.txt	LTP230	ltpFR	5	1	1	COMMANDER	354	n/a	1	n/a	n/a	n/a	n/a	n/a
437.852	n/a	REC_WORD	218926	wordpools/wasnorm_wordpool_less_exclusions.txt	LTP230	ltpFR	5	1	1	MULE	931	n/a	1	n/a	n/a	n/a	n/a	n/a
448.758	n/a	REC_WORD	224379	wordpools/wasnorm_wordpool_less_exclusions.txt	LTP230	ltpFR	5	1	1	TUBA	1515	n/a	0	n/a	n/a	n/a	n/a	n/a
451.236	n/a	REC_WORD	225618	wordpools/wasnorm_wordpool_less_exclusions.txt	LTP230	ltpFR	5	1	1	HERB	704	n/a	0	n/a	n/a	n/a	n/a	n/a
456.27	n/a	REC_WORD	228135	wordpools/wasnorm_wordpool_less_exclusions.txt	LTP230	ltpFR	5	1	0	LADY	794	n/a	1	n/a	n/a	n/a	n/a	n/a
457.224	n/a	REC_WORD	228612	wordpools/wasnorm_wordpool_less_exclusions.txt	LTP230	ltpFR	5	1	0	WOMAN	1620	n/a	1	n/a	n/a	n/a	n/a	n/a
459.718	n/a	REC_WORD	229859	wordpools/wasnorm_wordpool_less_exclusions.txt	LTP230	ltpFR	5	1	0	RACK	1154	n/a	1	n/a	n/a	n/a	n/a	n/a
461.24	n/a	REC_WORD	230620	wordpools/wasnorm_wordpool_less_exclusions.txt	LTP230	ltpFR	5	1	0	SUNRISE	1407	n/a	0	n/a	n/a	n/a	n/a	n/a
462.746	n/a	REC_WORD	231373	wordpools/wasnorm_wordpool_less_exclusions.txt	LTP230	ltpFR	5	1	0	SUN	1406	n/a	1	n/a	n/a	n/a	n/a	n/a
464.128	n/a	REC_WORD	232064	wordpools/wasnorm_wordpool_less_exclusions.txt	LTP230	ltpFR	5	1	0	SHRINE	1298	n/a	1	n/a	n/a	n/a	n/a	n/a
468.174	n/a	REC_WORD	234087	wordpools/wasnorm_wordpool_less_exclusions.txt	LTP230	ltpFR	5	1	0	BEET	115	n/a	0	n/a	n/a	n/a	n/a	n/a
472.664	n/a	REC_WORD	236332	wordpools/wasnorm_wordpool_less_exclusions.txt	LTP230	ltpFR	5	1	0	PASTRY	1022	n/a	0	n/a	n/a	n/a	n/a	n/a
514.986	n/a	WORD	257493	wordpools/wasnorm_wordpool_less_exclusions.txt	LTP230	ltpFR	5	2	0	BALLOON	75	n/a	0	1	0.412841796875	0.57763671875	upper	../fonts/amplitud.ttf
518.83	n/a	WORD	259415	wordpools/wasnorm_wordpool_less_exclusions.txt	LTP230	ltpFR	5	2	0	JUGGLER	763	n/a	1	1	0.412841796875	0.57763671875	upper	../fonts/amplitud.ttf
522.824	n/a	WORD	261412	wordpools/wasnorm_wordpool_less_exclusions.txt	LTP230	ltpFR	5	2	1	SEAGULL	1261	n/a	1	0	0.5869140625	0.422607421875	lower	../fonts/zerothre.ttf
526.966	n/a	WORD	263483	wordpools/wasnorm_wordpool_less_exclusions.txt	LTP230	ltpFR	5	2	1	LID	817	n/a	0	0	0.5869140625	0.422607421875	lower	../fonts/zerothre.ttf
530.928	n/a	WORD	265464	wordpools/wasnorm_wordpool_less_exclusions.txt	LTP230	ltpFR	5	2	0	ANCHOR	21	n/a	0	1	0.412841796875	0.57763671875	upper	../fonts/amplitud.ttf
534.788	n/a	WORD	267394	wordpools/wasnorm_wordpool_less_exclusions.txt	LTP230	ltpFR	5	2	0	SERVER	1272	n/a	1	1	0.412841796875	0.57763671875	upper	../fonts/amplitud.ttf
538.616	n/a	WORD	269308	wordpools/wasnorm_wordpool_less_exclusions.txt	LTP230	ltpFR	5	2	0	WINGS	1614	n/a	1	1	0.412841796875	0.57763671875	upper	../fonts/amplitud.ttf
542.594	n/a	WORD	271297	wordpools/wasnorm_wordpool_less_exclusions.txt	LTP230	ltpFR	5	2	0	DANDRUFF	439	n/a	n/a	1	0.412841796875	0.57763671875	upper	../fonts/amplitud.ttf
545.622	n/a	SLOW_MSG	272811	n/a	LTP230	ltpFR	5	2	n/a	n/a	n/a	n/a	n/a	n/a	n/a	n/a	n/a	n/a
548.236	n/a	WORD	274118	wordpools/wasnorm_wordpool_less_exclusions.txt	LTP230	ltpFR	5	2	1	BANQUET	86	n/a	0	0	0.5869140625	0.422607421875	lower	../fonts/zerothre.ttf
552.112	n/a	WORD	276056	wordpools/wasnorm_wordpool_less_exclusions.txt	LTP230	ltpFR	5	2	1	COURT	391	n/a	0	0	0.5869140625	0.422607421875	lower	../fonts/zerothre.ttf
556.324	n/a	WORD	278162	wordpools/wasnorm_wordpool_less_exclusions.txt	LTP230	ltpFR	5	2	1	CYCLONE	431	n/a	0	0	0.5869140625	0.422607421875	lower	../fonts/zerothre.ttf
560.518	n/a	WORD	280259	wordpools/wasnorm_wordpool_less_exclusions.txt	LTP230	ltpFR	5	2	1	TOOTHBRUSH	1482	n/a	0	0	0.5869140625	0.422607421875	lower	../fonts/zerothre.ttf
564.644	n/a	WORD	282322	wordpools/wasnorm_wordpool_less_exclusions.txt	LTP230	ltpFR	5	2	1	RANCH	1166	n/a	0	0	0.5869140625	0.422607421875	lower	../fonts/zerothre.ttf
568.772	n/a	WORD	284386	wordpools/wasnorm_wordpool_less_exclusions.txt	LTP230	ltpFR	5	2	1	WAGON	1578	n/a	0	0	0.5869140625	0.422607421875	lower	../fonts/zerothre.ttf
572.916	n/a	WORD	286458	wordpools/wasnorm_wordpool_less_exclusions.txt	LTP230	ltpFR	5	2	0	ROBIN	1199	n/a	1	1	0.412841796875	0.57763671875	upper	../fonts/amplitud.ttf
576.744	n/a	WORD	288372	wordpools/wasnorm_wordpool_less_exclusions.txt	LTP230	ltpFR	5	2	0	BIRD	129	n/a	1	1	0.412841796875	0.57763671875	upper	../fonts/amplitud.ttf
582.468	n/a	REC_START	291234	n/a	LTP230	ltpFR	5	2	n/a	n/a	n/a	n/a	n/a	n/a	n/a	n/a	n/a	n/a
586.194	n/a	REC_WORD	293097	wordpools/wasnorm_wordpool_less_exclusions.txt	LTP230	ltpFR	5	2	1	COURT	391	n/a	0	n/a	n/a	n/a	n/a	n/a
589.578	n/a	REC_WORD	294789	wordpools/wasnorm_wordpool_less_exclusions.txt	LTP230	ltpFR	5	2	1	BANQUET	86	n/a	0	n/a	n/a	n/a	n/a	n/a
591.662	n/a	REC_WORD	295831	wordpools/wasnorm_wordpool_less_exclusions.txt	LTP230	ltpFR	5	2	0	ROBIN	1199	n/a	1	n/a	n/a	n/a	n/a	n/a
592.704	n/a	REC_WORD	296352	wordpools/wasnorm_wordpool_less_exclusions.txt	LTP230	ltpFR	5	2	0	BIRD	129	n/a	1	n/a	n/a	n/a	n/a	n/a
595.104	n/a	REC_WORD	297552	wordpools/wasnorm_wordpool_less_exclusions.txt	LTP230	ltpFR	5	2	1	SEAGULL	1261	n/a	1	n/a	n/a	n/a	n/a	n/a
596.75	n/a	REC_WORD	298375	wordpools/wasnorm_wordpool_less_exclusions.txt	LTP230	ltpFR	5	2	0	WINGS	1614	n/a	1	n/a	n/a	n/a	n/a	n/a
603.192	n/a	REC_WORD	301596	wordpools/wasnorm_wordpool_less_exclusions.txt	LTP230	ltpFR	5	2	0	JUGGLER	763	n/a	1	n/a	n/a	n/a	n/a	n/a
604.448	n/a	REC_WORD	302224	wordpools/wasnorm_wordpool_less_exclusions.txt	LTP230	ltpFR	5	2	0	BALLOON	75	n/a	0	n/a	n/a	n/a	n/a	n/a
612.09	n/a	REC_WORD	306045	wordpools/wasnorm_wordpool_less_exclusions.txt	LTP230	ltpFR	5	2	1	CYCLONE	431	n/a	0	n/a	n/a	n/a	n/a	n/a
672.818	n/a	WORD	336409	wordpools/wasnorm_wordpool_less_exclusions.txt	LTP230	ltpFR	5	3	0	UNIFORM	1539	n/a	0	1	0.412841796875	0.57763671875	upper	../fonts/amplitud.ttf
676.712	n/a	WORD	338356	wordpools/wasnorm_wordpool_less_exclusions.txt	LTP230	ltpFR	5	3	0	PADDING	999	n/a	0	1	0.412841796875	0.57763671875	upper	../fonts/amplitud.ttf
680.888	n/a	WORD	340444	wordpools/wasnorm_wordpool_less_exclusions.txt	LTP230	ltpFR	5	3	0	DIAL	457	n/a	0	1	0.412841796875	0.57763671875	upper	../fonts/amplitud.ttf
685.066	n/a	WORD	342533	wordpools/wasnorm_wordpool_less_exclusions.txt	LTP230	ltpFR	5	3	0	CREAM	402	n/a	0	1	0.412841796875	0.57763671875	upper	../fonts/amplitud.ttf
688.894	n/a	WORD	344447	wordpools/wasnorm_wordpool_less_exclusions.txt	LTP230	ltpFR	5	3	0	HUMAN	726	n/a	1	1	0.412841796875	0.57763671875	upper	../fonts/amplitud.ttf
693.104	n/a	WORD	346552	wordpools/wasnorm_wordpool_less_exclusions.txt	LTP230	ltpFR	5	3	0	STOMACH	1384	n/a	1	1	0.412841796875	0.57763671875	upper	../fonts/amplitud.ttf
696.982	n/a	WORD	348491	wordpools/wasnorm_wordpool_less_exclusions.txt	LTP230	ltpFR	5	3	0	ANTEATER	26	n/a	1	1	0.412841796875	0.57763671875	upper	../fonts/amplitud.ttf
700.926	n/a	WORD	350463	wordpools/wasnorm_wordpool_less_exclusions.txt	LTP230	ltpFR	5	3	0	BISON	131	n/a	1	1	0.412841796875	0.57763671875	upper	../fonts/amplitud.ttf
705.07	n/a	WORD	352535	wordpools/wasnorm_wordpool_less_exclusions.txt	LTP230	ltpFR	5	3	0	JOURNAL	760	n/a	0	1	0.412841796875	0.57763671875	upper	../fonts/amplitud.ttf
709.114	n/a	WORD	354557	wordpools/wasnorm_wordpool_less_exclusions.txt	LTP230	ltpFR	5	3	0	WORKER	1621	n/a	1	1	0.412841796875	0.57763671875	upper	../fonts/amplitud.ttf
713.026	n/a	WORD	356513	wordpools/wasnorm_wordpool_less_exclusions.txt	LTP230	ltpFR	5	3	0	CARAVAN	242	n/a	1	1	0.412841796875	0.57763671875	upper	../fonts/amplitud.ttf
717.12	n/a	WORD	358560	wordpools/wasnorm_wordpool_less_exclusions.txt	LTP230	ltpFR	5	3	0	CAB	209	n/a	1	1	0.412841796875	0.57763671875	upper	../fonts/amplitud.ttf
720.998	n/a	WORD	360499	wordpools/wasnorm_wordpool_less_exclusions.txt	LTP230	ltpFR	5	3	0	PAGE	1001	n/a	1	1	0.412841796875	0.57763671875	upper	../fonts/amplitud.ttf
724.992	n/a	WORD	362496	wordpools/wasnorm_wordpool_less_exclusions.txt	LTP230	ltpFR	5	3	0	CLOSET	326	n/a	0	1	0.412841796875	0.57763671875	upper	../fonts/amplitud.ttf
728.902	n/a	WORD	364451	wordpools/wasnorm_wordpool_less_exclusions.txt	LTP230	ltpFR	5	3	0	FLAG	573	n/a	1	1	0.412841796875	0.57763671875	upper	../fonts/amplitud.ttf
733.03	n/a	WORD	366515	wordpools/wasnorm_wordpool_less_exclusions.txt	LTP230	ltpFR	5	3	0	BUTLER	204	n/a	1	1	0.412841796875	0.57763671875	upper	../fonts/amplitud.ttf
739.022	n/a	REC_START	369511	n/a	LTP230	ltpFR	5	3	n/a	n/a	n/a	n/a	n/a	n/a	n/a	n/a	n/a	n/a
745.532	n/a	REC_WORD	372766	wordpools/wasnorm_wordpool_less_exclusions.txt	LTP230	ltpFR	5	3	0	HUMAN	726	n/a	1	n/a	n/a	n/a	n/a	n/a
746.514	n/a	REC_WORD	373257	wordpools/wasnorm_wordpool_less_exclusions.txt	LTP230	ltpFR	5	3	0	UNIFORM	1539	n/a	0	n/a	n/a	n/a	n/a	n/a
747.372	n/a	REC_WORD	373686	wordpools/wasnorm_wordpool_less_exclusions.txt	LTP230	ltpFR	5	3	0	PADDING	999	n/a	0	n/a	n/a	n/a	n/a	n/a
748.19	n/a	REC_WORD	374095	wordpools/wasnorm_wordpool_less_exclusions.txt	LTP230	ltpFR	5	3	0	STOMACH	1384	n/a	1	n/a	n/a	n/a	n/a	n/a
749.658	n/a	REC_WORD	374829	wordpools/wasnorm_wordpool_less_exclusions.txt	LTP230	ltpFR	5	3	0	ANTEATER	26	n/a	1	n/a	n/a	n/a	n/a	n/a
750.794	n/a	REC_WORD	375397	wordpools/wasnorm_wordpool_less_exclusions.txt	LTP230	ltpFR	5	3	0	BISON	131	n/a	1	n/a	n/a	n/a	n/a	n/a
759.032	n/a	REC_WORD	379516	wordpools/wasnorm_wordpool_less_exclusions.txt	LTP230	ltpFR	5	3	0	FLAG	573	n/a	1	n/a	n/a	n/a	n/a	n/a
763.252	n/a	REC_WORD	381626	wordpools/wasnorm_wordpool_less_exclusions.txt	LTP230	ltpFR	5	3	0	WORKER	1621	n/a	1	n/a	n/a	n/a	n/a	n/a
826.822	n/a	WORD	413411	wordpools/wasnorm_wordpool_less_exclusions.txt	LTP230	ltpFR	5	4	1	OLIVE	975	n/a	0	0	0.5869140625	0.422607421875	lower	../fonts/zerothre.ttf
830.984	n/a	WORD	415492	wordpools/wasnorm_wordpool_less_exclusions.txt	LTP230	ltpFR	5	4	1	GRASSHOPPER	656	n/a	0	0	0.5869140625	0.422607421875	lower	../fonts/zerothre.ttf
834.846	n/a	WORD	417423	wordpools/wasnorm_wordpool_less_exclusions.txt	LTP230	ltpFR	5	4	1	RAFT	1159	n/a	0	0	0.5869140625	0.422607421875	lower	../fonts/zerothre.ttf
839.04	n/a	WORD	419520	wordpools/wasnorm_wordpool_less_exclusions.txt	LTP230	ltpFR	5	4	1	ISLAND	745	n/a	0	0	0.5869140625	0.422607421875	lower	../fonts/zerothre.ttf
843.232	n/a	WORD	421616	wordpools/wasnorm_wordpool_less_exclusions.txt	LTP230	ltpFR	5	4	1	DICTIONARY	463	n/a	0	0	0.5869140625	0.422607421875	lower	../fonts/zerothre.ttf
847.078	n/a	WORD	423539	wordpools/wasnorm_wordpool_less_exclusions.txt	LTP230	ltpFR	5	4	1	REPTILE	1185	n/a	1	0	0.5869140625	0.422607421875	lower	../fonts/zerothre.ttf
850.904	n/a	WORD	425452	wordpools/wasnorm_wordpool_less_exclusions.txt	LTP230	ltpFR	5	4	1	TRICYCLE	1506	n/a	1	0	0.5869140625	0.422607421875	lower	../fonts/zerothre.ttf
854.832	n/a	WORD	427416	wordpools/wasnorm_wordpool_less_exclusions.txt	LTP230	ltpFR	5	4	1	CARDINAL	244	n/a	1	0	0.5869140625	0.422607421875	lower	../fonts/zerothre.ttf
858.692	n/a	WORD	429346	wordpools/wasnorm_wordpool_less_exclusions.txt	LTP230	ltpFR	5	4	1	PUPPY	1144	n/a	1	0	0.5869140625	0.422607421875	lower	../fonts/zerothre.ttf
862.704	n/a	WORD	431352	wordpools/wasnorm_wordpool_less_exclusions.txt	LTP230	ltpFR	5	4	1	NEST	945	n/a	0	0	0.5869140625	0.422607421875	lower	../fonts/zerothre.ttf
866.614	n/a	WORD	433307	wordpools/wasnorm_wordpool_less_exclusions.txt	LTP230	ltpFR	5	4	1	CANARY	227	n/a	1	0	0.5869140625	0.422607421875	lower	../fonts/zerothre.ttf
870.658	n/a	WORD	435329	wordpools/wasnorm_wordpool_less_exclusions.txt	LTP230	ltpFR	5	4	1	CROW	414	n/a	1	0	0.5869140625	0.422607421875	lower	../fonts/zerothre.ttf
874.836	n/a	WORD	437418	wordpools/wasnorm_wordpool_less_exclusions.txt	LTP230	ltpFR	5	4	1	CROCODILE	411	n/a	1	0	0.5869140625	0.422607421875	lower	../fonts/zerothre.ttf
878.664	n/a	WORD	439332	wordpools/wasnorm_wordpool_less_exclusions.txt	LTP230	ltpFR	5	4	1	CHILD	299	n/a	1	0	0.5869140625	0.422607421875	lower	../fonts/zerothre.ttf
882.806	n/a	WORD	441403	wordpools/wasnorm_wordpool_less_exclusions.txt	LTP230	ltpFR	5	4	1	PHOTO	1055	n/a	0	0	0.5869140625	0.422607421875	lower	../fonts/zerothre.ttf
887.002	n/a	WORD	443501	wordpools/wasnorm_wordpool_less_exclusions.txt	LTP230	ltpFR	5	4	1	SOCKET	1340	n/a	0	0	0.5869140625	0.422607421875	lower	../fonts/zerothre.ttf
892.792	n/a	REC_START	446396	n/a	LTP230	ltpFR	5	4	n/a	n/a	n/a	n/a	n/a	n/a	n/a	n/a	n/a	n/a
893.076	n/a	REC_WORD	446538	wordpools/wasnorm_wordpool_less_exclusions.txt	LTP230	ltpFR	5	4	1	PHOTO	1055	n/a	0	n/a	n/a	n/a	n/a	n/a
893.794	n/a	REC_WORD	446897	wordpools/wasnorm_wordpool_less_exclusions.txt	LTP230	ltpFR	5	4	1	CHILD	299	n/a	1	n/a	n/a	n/a	n/a	n/a
894.368	n/a	REC_WORD	447184	wordpools/wasnorm_wordpool_less_exclusions.txt	LTP230	ltpFR	5	4	1	SOCKET	1340	n/a	0	n/a	n/a	n/a	n/a	n/a
896.5	n/a	REC_WORD_VV	448250	wordpools/wasnorm_wordpool_less_exclusions.txt	LTP230	ltpFR	5	4	n/a	<>	-1	n/a	n/a	n/a	n/a	n/a	n/a	n/a
901.138	n/a	REC_WORD_VV	450569	wordpools/wasnorm_wordpool_less_exclusions.txt	LTP230	ltpFR	5	4	n/a	<>	-1	n/a	n/a	n/a	n/a	n/a	n/a	n/a
902.506	n/a	REC_WORD	451253	wordpools/wasnorm_wordpool_less_exclusions.txt	LTP230	ltpFR	5	4	1	GRASSHOPPER	656	n/a	0	n/a	n/a	n/a	n/a	n/a
903.434	n/a	REC_WORD	451717	wordpools/wasnorm_wordpool_less_exclusions.txt	LTP230	ltpFR	5	4	1	OLIVE	975	n/a	0	n/a	n/a	n/a	n/a	n/a
904.516	n/a	REC_WORD	452258	wordpools/wasnorm_wordpool_less_exclusions.txt	LTP230	ltpFR	5	4	1	ISLAND	745	n/a	0	n/a	n/a	n/a	n/a	n/a
905.354	n/a	REC_WORD	452677	wordpools/wasnorm_wordpool_less_exclusions.txt	LTP230	ltpFR	5	4	1	RAFT	1159	n/a	0	n/a	n/a	n/a	n/a	n/a
974.988	n/a	WORD	487494	wordpools/wasnorm_wordpool_less_exclusions.txt	LTP230	ltpFR	5	5	0	DRAGON	492	n/a	1	1	0.412841796875	0.57763671875	upper	../fonts/amplitud.ttf
978.832	n/a	WORD	489416	wordpools/wasnorm_wordpool_less_exclusions.txt	LTP230	ltpFR	5	5	0	CITRUS	313	n/a	0	1	0.412841796875	0.57763671875	upper	../fonts/amplitud.ttf
982.942	n/a	WORD	491471	wordpools/wasnorm_wordpool_less_exclusions.txt	LTP230	ltpFR	5	5	0	BAKER	71	n/a	1	1	0.412841796875	0.57763671875	upper	../fonts/amplitud.ttf
987.02	n/a	WORD	493510	wordpools/wasnorm_wordpool_less_exclusions.txt	LTP230	ltpFR	5	5	0	WICK	1607	n/a	0	1	0.412841796875	0.57763671875	upper	../fonts/amplitud.ttf
991.032	n/a	WORD	495516	wordpools/wasnorm_wordpool_less_exclusions.txt	LTP230	ltpFR	5	5	0	TORCH	1484	n/a	0	1	0.412841796875	0.57763671875	upper	../fonts/amplitud.ttf
995.092	n/a	WORD	497546	wordpools/wasnorm_wordpool_less_exclusions.txt	LTP230	ltpFR	5	5	0	GORILLA	650	n/a	1	1	0.412841796875	0.57763671875	upper	../fonts/amplitud.ttf
998.952	n/a	WORD	499476	wordpools/wasnorm_wordpool_less_exclusions.txt	LTP230	ltpFR	5	5	1	MICROWAVE	892	n/a	0	0	0.5869140625	0.422607421875	lower	../fonts/zerothre.ttf
1002.78	n/a	WORD	501390	wordpools/wasnorm_wordpool_less_exclusions.txt	LTP230	ltpFR	5	5	1	CHESS	294	n/a	0	0	0.5869140625	0.422607421875	lower	../fonts/zerothre.ttf
1006.924	n/a	WORD	503462	wordpools/wasnorm_wordpool_less_exclusions.txt	LTP230	ltpFR	5	5	1	RAIL	1161	n/a	0	0	0.5869140625	0.422607421875	lower	../fonts/zerothre.ttf
1010.918	n/a	WORD	505459	wordpools/wasnorm_wordpool_less_exclusions.txt	LTP230	ltpFR	5	5	1	COACH	331	n/a	1	0	0.5869140625	0.422607421875	lower	../fonts/zerothre.ttf
1014.996	n/a	WORD	507498	wordpools/wasnorm_wordpool_less_exclusions.txt	LTP230	ltpFR	5	5	0	THRONE	1461	n/a	1	1	0.412841796875	0.57763671875	upper	../fonts/amplitud.ttf
1019.156	n/a	WORD	509578	wordpools/wasnorm_wordpool_less_exclusions.txt	LTP230	ltpFR	5	5	0	GUARDIAN	668	n/a	1	1	0.412841796875	0.57763671875	upper	../fonts/amplitud.ttf
1023.282	n/a	WORD	511641	wordpools/wasnorm_wordpool_less_exclusions.txt	LTP230	ltpFR	5	5	1	LIMOUSINE	824	n/a	2	0	0.5869140625	0.422607421875	lower	../fonts/zerothre.ttf
1023.332	n/a	KEY_MSG	511666	n/a	LTP230	ltpFR	5	5	n/a	n/a	n/a	n/a	n/a	n/a	n/a	n/a	n/a	n/a
1027.46	n/a	WORD	513730	wordpools/wasnorm_wordpool_less_exclusions.txt	LTP230	ltpFR	5	5	1	FRUIT	610	n/a	1	0	0.5869140625	0.422607421875	lower	../fonts/zerothre.ttf
1031.554	n/a	WORD	515777	wordpools/wasnorm_wordpool_less_exclusions.txt	LTP230	ltpFR	5	5	1	ALBUM	14	n/a	0	0	0.5869140625	0.422607421875	lower	../fonts/zerothre.ttf
1035.398	n/a	WORD	517699	wordpools/wasnorm_wordpool_less_exclusions.txt	LTP230	ltpFR	5	5	1	PAINTING	1005	n/a	0	0	0.5869140625	0.422607421875	lower	../fonts/zerothre.ttf
1041.39	n/a	REC_START	520695	n/a	LTP230	ltpFR	5	5	n/a	n/a	n/a	n/a	n/a	n/a	n/a	n/a	n/a	n/a
1043.566	n/a	REC_WORD_VV	521783	wordpools/wasnorm_wordpool_less_exclusions.txt	LTP230	ltpFR	5	5	n/a	<>	-1	n/a	n/a	n/a	n/a	n/a	n/a	n/a
1045.022	n/a	REC_WORD	522511	wordpools/wasnorm_wordpool_less_exclusions.txt	LTP230	ltpFR	5	5	1	ALBUM	14	n/a	0	n/a	n/a	n/a	n/a	n/a
1045.61	n/a	REC_WORD	522805	wordpools/wasnorm_wordpool_less_exclusions.txt	LTP230	ltpFR	5	5	1	FRUIT	610	n/a	1	n/a	n/a	n/a	n/a	n/a
1046.744	n/a	REC_WORD	523372	wordpools/wasnorm_wordpool_less_exclusions.txt	LTP230	ltpFR	5	5	1	PAINTING	1005	n/a	0	n/a	n/a	n/a	n/a	n/a
1048.908	n/a	REC_WORD	524454	wordpools/wasnorm_wordpool_less_exclusions.txt	LTP230	ltpFR	5	5	0	DRAGON	492	n/a	1	n/a	n/a	n/a	n/a	n/a
1050.05	n/a	REC_WORD	525025	wordpools/wasnorm_wordpool_less_exclusions.txt	LTP230	ltpFR	5	5	0	GORILLA	650	n/a	1	n/a	n/a	n/a	n/a	n/a
1051.104	n/a	REC_WORD	525552	wordpools/wasnorm_wordpool_less_exclusions.txt	LTP230	ltpFR	5	5	0	BAKER	71	n/a	1	n/a	n/a	n/a	n/a	n/a
1052.02	n/a	REC_WORD	526010	wordpools/wasnorm_wordpool_less_exclusions.txt	LTP230	ltpFR	5	5	0	WICK	1607	n/a	0	n/a	n/a	n/a	n/a	n/a
1054.076	n/a	REC_WORD	527038	wordpools/wasnorm_wordpool_less_exclusions.txt	LTP230	ltpFR	5	5	0	TORCH	1484	n/a	0	n/a	n/a	n/a	n/a	n/a
1120.44	n/a	WORD	560220	wordpools/wasnorm_wordpool_less_exclusions.txt	LTP230	ltpFR	5	6	-1	PLATE	1086	n/a	-1	1	1.0	1.0	upper	../fonts/Verdana.ttf
1124.384	n/a	WORD	562192	wordpools/wasnorm_wordpool_less_exclusions.txt	LTP230	ltpFR	5	6	-1	SHORTCAKE	1292	n/a	-1	1	1.0	1.0	upper	../fonts/Verdana.ttf
1128.31	n/a	WORD	564155	wordpools/wasnorm_wordpool_less_exclusions.txt	LTP230	ltpFR	5	6	-1	PAPER	1011	n/a	-1	1	1.0	1.0	upper	../fonts/Verdana.ttf
1132.254	n/a	WORD	566127	wordpools/wasnorm_wordpool_less_exclusions.txt	LTP230	ltpFR	5	6	-1	LIST	830	n/a	-1	1	1.0	1.0	upper	../fonts/Verdana.ttf
1136.232	n/a	WORD	568116	wordpools/wasnorm_wordpool_less_exclusions.txt	LTP230	ltpFR	5	6	-1	DILL	465	n/a	-1	1	1.0	1.0	upper	../fonts/Verdana.ttf
1140.126	n/a	WORD	570063	wordpools/wasnorm_wordpool_less_exclusions.txt	LTP230	ltpFR	5	6	-1	BINDER	127	n/a	-1	1	1.0	1.0	upper	../fonts/Verdana.ttf
1144.238	n/a	WORD	572119	wordpools/wasnorm_wordpool_less_exclusions.txt	LTP230	ltpFR	5	6	-1	BOULDER	155	n/a	-1	1	1.0	1.0	upper	../fonts/Verdana.ttf
1148.43	n/a	WORD	574215	wordpools/wasnorm_wordpool_less_exclusions.txt	LTP230	ltpFR	5	6	-1	SHACK	1273	n/a	-1	1	1.0	1.0	upper	../fonts/Verdana.ttf
1152.442	n/a	WORD	576221	wordpools/wasnorm_wordpool_less_exclusions.txt	LTP230	ltpFR	5	6	-1	WASHER	1592	n/a	-1	1	1.0	1.0	upper	../fonts/Verdana.ttf
1156.418	n/a	WORD	578209	wordpools/wasnorm_wordpool_less_exclusions.txt	LTP230	ltpFR	5	6	-1	ATTIRE	57	n/a	-1	1	1.0	1.0	upper	../fonts/Verdana.ttf
1160.296	n/a	WORD	580148	wordpools/wasnorm_wordpool_less_exclusions.txt	LTP230	ltpFR	5	6	-1	HOUSE	725	n/a	-1	1	1.0	1.0	upper	../fonts/Verdana.ttf
1164.358	n/a	WORD	582179	wordpools/wasnorm_wordpool_less_exclusions.txt	LTP230	ltpFR	5	6	-1	MAYONNAISE	880	n/a	-1	1	1.0	1.0	upper	../fonts/Verdana.ttf
1168.218	n/a	WORD	584109	wordpools/wasnorm_wordpool_less_exclusions.txt	LTP230	ltpFR	5	6	-1	CORAL	378	n/a	-1	1	1.0	1.0	upper	../fonts/Verdana.ttf
1172.378	n/a	WORD	586189	wordpools/wasnorm_wordpool_less_exclusions.txt	LTP230	ltpFR	5	6	-1	BOOT	150	n/a	-1	1	1.0	1.0	upper	../fonts/Verdana.ttf
1176.272	n/a	WORD	588136	wordpools/wasnorm_wordpool_less_exclusions.txt	LTP230	ltpFR	5	6	-1	BUTTON	207	n/a	-1	1	1.0	1.0	upper	../fonts/Verdana.ttf
1180.268	n/a	WORD	590134	wordpools/wasnorm_wordpool_less_exclusions.txt	LTP230	ltpFR	5	6	-1	ARTICLE	42	n/a	-1	1	1.0	1.0	upper	../fonts/Verdana.ttf
1186.226	n/a	REC_START	593113	n/a	LTP230	ltpFR	5	6	n/a	n/a	n/a	n/a	n/a	n/a	n/a	n/a	n/a	n/a
1188.75	n/a	REC_WORD	594375	wordpools/wasnorm_wordpool_less_exclusions.txt	LTP230	ltpFR	5	6	-1	BUTTON	207	n/a	-1	n/a	n/a	n/a	n/a	n/a
1189.628	n/a	REC_WORD	594814	wordpools/wasnorm_wordpool_less_exclusions.txt	LTP230	ltpFR	5	6	-1	ARTICLE	42	n/a	-1	n/a	n/a	n/a	n/a	n/a
1191.432	n/a	REC_WORD	595716	wordpools/wasnorm_wordpool_less_exclusions.txt	LTP230	ltpFR	5	6	-1	ATTIRE	57	n/a	-1	n/a	n/a	n/a	n/a	n/a
1192.282	n/a	REC_WORD	596141	wordpools/wasnorm_wordpool_less_exclusions.txt	LTP230	ltpFR	5	6	-1	WASHER	1592	n/a	-1	n/a	n/a	n/a	n/a	n/a
1192.9	n/a	REC_WORD	596450	wordpools/wasnorm_wordpool_less_exclusions.txt	LTP230	ltpFR	5	6	-1	HOUSE	725	n/a	-1	n/a	n/a	n/a	n/a	n/a
1195.524	n/a	REC_WORD	597762	wordpools/wasnorm_wordpool_less_exclusions.txt	LTP230	ltpFR	5	6	-1	PAPER	1011	n/a	-1	n/a	n/a	n/a	n/a	n/a
1196.268	n/a	REC_WORD	598134	wordpools/wasnorm_wordpool_less_exclusions.txt	LTP230	ltpFR	5	6	-1	PLATE	1086	n/a	-1	n/a	n/a	n/a	n/a	n/a
1197.09	n/a	REC_WORD	598545	wordpools/wasnorm_wordpool_less_exclusions.txt	LTP230	ltpFR	5	6	-1	SHORTCAKE	1292	n/a	-1	n/a	n/a	n/a	n/a	n/a
1198.592	n/a	REC_WORD	599296	wordpools/wasnorm_wordpool_less_exclusions.txt	LTP230	ltpFR	5	6	-1	DILL	465	n/a	-1	n/a	n/a	n/a	n/a	n/a
1202.408	n/a	REC_WORD	601204	wordpools/wasnorm_wordpool_less_exclusions.txt	LTP230	ltpFR	5	6	-1	MAYONNAISE	880	n/a	-1	n/a	n/a	n/a	n/a	n/a
1292.168	n/a	WORD	646084	wordpools/wasnorm_wordpool_less_exclusions.txt	LTP230	ltpFR	5	7	1	MANAGER	863	n/a	1	0	0.5869140625	0.422607421875	lower	../fonts/zerothre.ttf
1296.046	n/a	WORD	648023	wordpools/wasnorm_wordpool_less_exclusions.txt	LTP230	ltpFR	5	7	1	PRESIDENT	1121	n/a	1	0	0.5869140625	0.422607421875	lower	../fonts/zerothre.ttf
1300.04	n/a	WORD	650020	wordpools/wasnorm_wordpool_less_exclusions.txt	LTP230	ltpFR	5	7	1	TULIP	1517	n/a	1	0	0.5869140625	0.422607421875	lower	../fonts/zerothre.ttf
1304.25	n/a	WORD	652125	wordpools/wasnorm_wordpool_less_exclusions.txt	LTP230	ltpFR	5	7	1	FIDDLE	561	n/a	1	0	0.5869140625	0.422607421875	lower	../fonts/zerothre.ttf
1308.444	n/a	WORD	654222	wordpools/wasnorm_wordpool_less_exclusions.txt	LTP230	ltpFR	5	7	1	JET	756	n/a	0	0	0.5869140625	0.422607421875	lower	../fonts/zerothre.ttf
1312.57	n/a	WORD	656285	wordpools/wasnorm_wordpool_less_exclusions.txt	LTP230	ltpFR	5	7	1	ORCHID	982	n/a	1	0	0.5869140625	0.422607421875	lower	../fonts/zerothre.ttf
1316.748	n/a	WORD	658374	wordpools/wasnorm_wordpool_less_exclusions.txt	LTP230	ltpFR	5	7	1	FARMER	553	n/a	1	0	0.5869140625	0.422607421875	lower	../fonts/zerothre.ttf
1320.61	n/a	WORD	660305	wordpools/wasnorm_wordpool_less_exclusions.txt	LTP230	ltpFR	5	7	1	RICE	1190	n/a	0	0	0.5869140625	0.422607421875	lower	../fonts/zerothre.ttf
1324.454	n/a	WORD	662227	wordpools/wasnorm_wordpool_less_exclusions.txt	LTP230	ltpFR	5	7	1	CARROT	249	n/a	0	0	0.5869140625	0.422607421875	lower	../fonts/zerothre.ttf
1328.332	n/a	WORD	664166	wordpools/wasnorm_wordpool_less_exclusions.txt	LTP230	ltpFR	5	7	1	FLY	586	n/a	0	0	0.5869140625	0.422607421875	lower	../fonts/zerothre.ttf
1332.426	n/a	WORD	666213	wordpools/wasnorm_wordpool_less_exclusions.txt	LTP230	ltpFR	5	7	1	FARM	552	n/a	0	0	0.5869140625	0.422607421875	lower	../fonts/zerothre.ttf
1336.436	n/a	WORD	668218	wordpools/wasnorm_wordpool_less_exclusions.txt	LTP230	ltpFR	5	7	1	BLACKBERRY	132	n/a	1	0	0.5869140625	0.422607421875	lower	../fonts/zerothre.ttf
1340.33	n/a	WORD	670165	wordpools/wasnorm_wordpool_less_exclusions.txt	LTP230	ltpFR	5	7	1	BUYER	208	n/a	1	0	0.5869140625	0.422607421875	lower	../fonts/zerothre.ttf
1344.274	n/a	WORD	672137	wordpools/wasnorm_wordpool_less_exclusions.txt	LTP230	ltpFR	5	7	1	MONSTER	912	n/a	1	0	0.5869140625	0.422607421875	lower	../fonts/zerothre.ttf
1348.302	n/a	WORD	674151	wordpools/wasnorm_wordpool_less_exclusions.txt	LTP230	ltpFR	5	7	1	APPLE	33	n/a	1	0	0.5869140625	0.422607421875	lower	../fonts/zerothre.ttf
1352.296	n/a	WORD	676148	wordpools/wasnorm_wordpool_less_exclusions.txt	LTP230	ltpFR	5	7	1	COBBLER	335	n/a	0	0	0.5869140625	0.422607421875	lower	../fonts/zerothre.ttf
1358.338	n/a	REC_START	679169	n/a	LTP230	ltpFR	5	7	n/a	n/a	n/a	n/a	n/a	n/a	n/a	n/a	n/a	n/a
1360.796	n/a	REC_WORD	680398	wordpools/wasnorm_wordpool_less_exclusions.txt	LTP230	ltpFR	5	7	1	APPLE	33	n/a	1	n/a	n/a	n/a	n/a	n/a
1361.944	n/a	REC_WORD	680972	wordpools/wasnorm_wordpool_less_exclusions.txt	LTP230	ltpFR	5	7	1	COBBLER	335	n/a	0	n/a	n/a	n/a	n/a	n/a
1362.972	n/a	REC_WORD	681486	wordpools/wasnorm_wordpool_less_exclusions.txt	LTP230	ltpFR	5	7	1	CARROT	249	n/a	0	n/a	n/a	n/a	n/a	n/a
1363.844	n/a	REC_WORD	681922	wordpools/wasnorm_wordpool_less_exclusions.txt	LTP230	ltpFR	5	7	1	FARM	552	n/a	0	n/a	n/a	n/a	n/a	n/a
1365.002	n/a	REC_WORD	682501	wordpools/wasnorm_wordpool_less_exclusions.txt	LTP230	ltpFR	5	7	1	FARMER	553	n/a	1	n/a	n/a	n/a	n/a	n/a
1366.03	n/a	REC_WORD	683015	wordpools/wasnorm_wordpool_less_exclusions.txt	LTP230	ltpFR	5	7	1	RICE	1190	n/a	0	n/a	n/a	n/a	n/a	n/a
1367.048	n/a	REC_WORD	683524	wordpools/wasnorm_wordpool_less_exclusions.txt	LTP230	ltpFR	5	7	1	PRESIDENT	1121	n/a	1	n/a	n/a	n/a	n/a	n/a
1368.13	n/a	REC_WORD	684065	wordpools/wasnorm_wordpool_less_exclusions.txt	LTP230	ltpFR	5	7	1	MANAGER	863	n/a	1	n/a	n/a	n/a	n/a	n/a
1369.96	n/a	REC_WORD	684980	wordpools/wasnorm_wordpool_less_exclusions.txt	LTP230	ltpFR	5	7	1	JET	756	n/a	0	n/a	n/a	n/a	n/a	n/a
1370.968	n/a	REC_WORD	685484	wordpools/wasnorm_wordpool_less_exclusions.txt	LTP230	ltpFR	5	7	1	FIDDLE	561	n/a	1	n/a	n/a	n/a	n/a	n/a
1372.096	n/a	REC_WORD	686048	wordpools/wasnorm_wordpool_less_exclusions.txt	LTP230	ltpFR	5	7	1	FLY	586	n/a	0	n/a	n/a	n/a	n/a	n/a
1374.71	n/a	REC_WORD	687355	wordpools/wasnorm_wordpool_less_exclusions.txt	LTP230	ltpFR	5	7	1	BLACKBERRY	132	n/a	1	n/a	n/a	n/a	n/a	n/a
1446.49	n/a	WORD	723245	wordpools/wasnorm_wordpool_less_exclusions.txt	LTP230	ltpFR	5	8	-1	YACHT	1629	n/a	-1	1	1.0	1.0	upper	../fonts/Verdana.ttf
1450.318	n/a	WORD	725159	wordpools/wasnorm_wordpool_less_exclusions.txt	LTP230	ltpFR	5	8	-1	PADDLE	1000	n/a	-1	1	1.0	1.0	upper	../fonts/Verdana.ttf
1454.362	n/a	WORD	727181	wordpools/wasnorm_wordpool_less_exclusions.txt	LTP230	ltpFR	5	8	-1	ANIMAL	23	n/a	-1	1	1.0	1.0	upper	../fonts/Verdana.ttf
1458.222	n/a	WORD	729111	wordpools/wasnorm_wordpool_less_exclusions.txt	LTP230	ltpFR	5	8	-1	SUPERMARKET	1409	n/a	-1	1	1.0	1.0	upper	../fonts/Verdana.ttf
1462.384	n/a	WORD	731192	wordpools/wasnorm_wordpool_less_exclusions.txt	LTP230	ltpFR	5	8	-1	LOFT	840	n/a	-1	1	1.0	1.0	upper	../fonts/Verdana.ttf
1466.478	n/a	WORD	733239	wordpools/wasnorm_wordpool_less_exclusions.txt	LTP230	ltpFR	5	8	-1	AUTHOR	61	n/a	-1	1	1.0	1.0	upper	../fonts/Verdana.ttf
1470.438	n/a	WORD	735219	wordpools/wasnorm_wordpool_less_exclusions.txt	LTP230	ltpFR	5	8	-1	BEAN	105	n/a	-1	1	1.0	1.0	upper	../fonts/Verdana.ttf
1474.482	n/a	WORD	737241	wordpools/wasnorm_wordpool_less_exclusions.txt	LTP230	ltpFR	5	8	-1	VET	1560	n/a	-1	1	1.0	1.0	upper	../fonts/Verdana.ttf
1478.576	n/a	WORD	739288	wordpools/wasnorm_wordpool_less_exclusions.txt	LTP230	ltpFR	5	8	-1	FIREMAN	569	n/a	-1	1	1.0	1.0	upper	../fonts/Verdana.ttf
1482.686	n/a	WORD	741343	wordpools/wasnorm_wordpool_less_exclusions.txt	LTP230	ltpFR	5	8	-1	HEATER	698	n/a	-1	1	1.0	1.0	upper	../fonts/Verdana.ttf
1486.73	n/a	WORD	743365	wordpools/wasnorm_wordpool_less_exclusions.txt	LTP230	ltpFR	5	8	-1	TOY	1492	n/a	-1	1	1.0	1.0	upper	../fonts/Verdana.ttf
1490.908	n/a	WORD	745454	wordpools/wasnorm_wordpool_less_exclusions.txt	LTP230	ltpFR	5	8	-1	DOLL	481	n/a	-1	1	1.0	1.0	upper	../fonts/Verdana.ttf
1495.018	n/a	WORD	747509	wordpools/wasnorm_wordpool_less_exclusions.txt	LTP230	ltpFR	5	8	-1	SALIVA	1226	n/a	-1	1	1.0	1.0	upper	../fonts/Verdana.ttf
1499.046	n/a	WORD	749523	wordpools/wasnorm_wordpool_less_exclusions.txt	LTP230	ltpFR	5	8	-1	NEWSSTAND	949	n/a	-1	1	1.0	1.0	upper	../fonts/Verdana.ttf
1503.106	n/a	WORD	751553	wordpools/wasnorm_wordpool_less_exclusions.txt	LTP230	ltpFR	5	8	-1	CLASS	318	n/a	-1	1	1.0	1.0	upper	../fonts/Verdana.ttf
1507.15	n/a	WORD	753575	wordpools/wasnorm_wordpool_less_exclusions.txt	LTP230	ltpFR	5	8	-1	TIGER	1467	n/a	-1	1	1.0	1.0	upper	../fonts/Verdana.ttf
1513.158	n/a	REC_START	756579	n/a	LTP230	ltpFR	5	8	n/a	n/a	n/a	n/a	n/a	n/a	n/a	n/a	n/a	n/a
1516.036	n/a	REC_WORD	758018	wordpools/wasnorm_wordpool_less_exclusions.txt	LTP230	ltpFR	5	8	-1	TIGER	1467	n/a	-1	n/a	n/a	n/a	n/a	n/a
1516.742	n/a	REC_WORD	758371	wordpools/wasnorm_wordpool_less_exclusions.txt	LTP230	ltpFR	5	8	-1	CLASS	318	n/a	-1	n/a	n/a	n/a	n/a	n/a
1517.318	n/a	REC_WORD	758659	wordpools/wasnorm_wordpool_less_exclusions.txt	LTP230	ltpFR	5	8	-1	NEWSSTAND	949	n/a	-1	n/a	n/a	n/a	n/a	n/a
1518.322	n/a	REC_WORD	759161	wordpools/wasnorm_wordpool_less_exclusions.txt	LTP230	ltpFR	5	8	-1	SALIVA	1226	n/a	-1	n/a	n/a	n/a	n/a	n/a
1525.936	n/a	REC_WORD	762968	wordpools/wasnorm_wordpool_less_exclusions.txt	LTP230	ltpFR	5	8	-1	YACHT	1629	n/a	-1	n/a	n/a	n/a	n/a	n/a
1527.692	n/a	REC_WORD	763846	wordpools/wasnorm_wordpool_less_exclusions.txt	LTP230	ltpFR	5	8	-1	PADDLE	1000	n/a	-1	n/a	n/a	n/a	n/a	n/a
1528.688	n/a	REC_WORD	764344	wordpools/wasnorm_wordpool_less_exclusions.txt	LTP230	ltpFR	5	8	-1	ANIMAL	23	n/a	-1	n/a	n/a	n/a	n/a	n/a
1534.096	n/a	REC_WORD	767048	wordpools/wasnorm_wordpool_less_exclusions.txt	LTP230	ltpFR	5	8	-1	SUPERMARKET	1409	n/a	-1	n/a	n/a	n/a	n/a	n/a
1598.782	n/a	WORD	799391	wordpools/wasnorm_wordpool_less_exclusions.txt	LTP230	ltpFR	5	9	1	BUSH	202	n/a	1	0	0.5869140625	0.422607421875	lower	../fonts/zerothre.ttf
1602.742	n/a	WORD	801371	wordpools/wasnorm_wordpool_less_exclusions.txt	LTP230	ltpFR	5	9	1	LACE	792	n/a	0	0	0.5869140625	0.422607421875	lower	../fonts/zerothre.ttf
1606.77	n/a	WORD	803385	wordpools/wasnorm_wordpool_less_exclusions.txt	LTP230	ltpFR	5	9	1	TYPEWRITER	1531	n/a	0	0	0.5869140625	0.422607421875	lower	../fonts/zerothre.ttf
1610.714	n/a	WORD	805357	wordpools/wasnorm_wordpool_less_exclusions.txt	LTP230	ltpFR	5	9	1	CENT	270	n/a	0	0	0.5869140625	0.422607421875	lower	../fonts/zerothre.ttf
1614.792	n/a	WORD	807396	wordpools/wasnorm_wordpool_less_exclusions.txt	LTP230	ltpFR	5	9	1	SCOTCH	1251	n/a	0	0	0.5869140625	0.422607421875	lower	../fonts/zerothre.ttf
1619.002	n/a	WORD	809501	wordpools/wasnorm_wordpool_less_exclusions.txt	LTP230	ltpFR	5	9	1	LOUNGE	845	n/a	0	0	0.5869140625	0.422607421875	lower	../fonts/zerothre.ttf
1623.212	n/a	WORD	811606	wordpools/wasnorm_wordpool_less_exclusions.txt	LTP230	ltpFR	5	9	1	RADIATOR	1156	n/a	0	0	0.5869140625	0.422607421875	lower	../fonts/zerothre.ttf
1627.24	n/a	WORD	813620	wordpools/wasnorm_wordpool_less_exclusions.txt	LTP230	ltpFR	5	9	1	OWNER	993	n/a	1	0	0.5869140625	0.422607421875	lower	../fonts/zerothre.ttf
1631.066	n/a	WORD	815533	wordpools/wasnorm_wordpool_less_exclusions.txt	LTP230	ltpFR	5	9	1	PLUM	1090	n/a	1	0	0.5869140625	0.422607421875	lower	../fonts/zerothre.ttf
1634.994	n/a	WORD	817497	wordpools/wasnorm_wordpool_less_exclusions.txt	LTP230	ltpFR	5	9	1	KEY	773	n/a	0	0	0.5869140625	0.422607421875	lower	../fonts/zerothre.ttf
1639.172	n/a	WORD	819586	wordpools/wasnorm_wordpool_less_exclusions.txt	LTP230	ltpFR	5	9	1	CANDIDATE	228	n/a	1	0	0.5869140625	0.422607421875	lower	../fonts/zerothre.ttf
1643.248	n/a	WORD	821624	wordpools/wasnorm_wordpool_less_exclusions.txt	LTP230	ltpFR	5	9	1	TUNA	1518	n/a	0	0	0.5869140625	0.422607421875	lower	../fonts/zerothre.ttf
1647.21	n/a	WORD	823605	wordpools/wasnorm_wordpool_less_exclusions.txt	LTP230	ltpFR	5	9	1	HALL	677	n/a	0	0	0.5869140625	0.422607421875	lower	../fonts/zerothre.ttf
1651.386	n/a	WORD	825693	wordpools/wasnorm_wordpool_less_exclusions.txt	LTP230	ltpFR	5	9	1	AUTOMOBILE	62	n/a	0	0	0.5869140625	0.422607421875	lower	../fonts/zerothre.ttf
1655.348	n/a	WORD	827674	wordpools/wasnorm_wordpool_less_exclusions.txt	LTP230	ltpFR	5	9	1	DRIVER	499	n/a	1	0	0.5869140625	0.422607421875	lower	../fonts/zerothre.ttf
1659.442	n/a	WORD	829721	wordpools/wasnorm_wordpool_less_exclusions.txt	LTP230	ltpFR	5	9	1	COD	340	n/a	0	0	0.5869140625	0.422607421875	lower	../fonts/zerothre.ttf
1665.4	n/a	REC_START	832700	n/a	LTP230	ltpFR	5	9	n/a	n/a	n/a	n/a	n/a	n/a	n/a	n/a	n/a	n/a
1668.982	n/a	REC_WORD	834491	wordpools/wasnorm_wordpool_less_exclusions.txt	LTP230	ltpFR	5	9	1	DRIVER	499	n/a	1	n/a	n/a	n/a	n/a	n/a
1670.338	n/a	REC_WORD	835169	wordpools/wasnorm_wordpool_less_exclusions.txt	LTP230	ltpFR	5	9	1	AUTOMOBILE	62	n/a	0	n/a	n/a	n/a	n/a	n/a
1672.096	n/a	REC_WORD	836048	wordpools/wasnorm_wordpool_less_exclusions.txt	LTP230	ltpFR	5	9	1	COD	340	n/a	0	n/a	n/a	n/a	n/a	n/a
1673.516	n/a	REC_WORD	836758	wordpools/wasnorm_wordpool_less_exclusions.txt	LTP230	ltpFR	5	9	1	TUNA	1518	n/a	0	n/a	n/a	n/a	n/a	n/a
1675.892	n/a	REC_WORD	837946	wordpools/wasnorm_wordpool_less_exclusions.txt	LTP230	ltpFR	5	9	1	CANDIDATE	228	n/a	1	n/a	n/a	n/a	n/a	n/a
1708.392	n/a	REC_WORD	854196	wordpools/wasnorm_wordpool_less_exclusions.txt	LTP230	ltpFR	5	9	1	TYPEWRITER	1531	n/a	0	n/a	n/a	n/a	n/a	n/a
1714.16	n/a	REC_WORD	857080	wordpools/wasnorm_wordpool_less_exclusions.txt	LTP230	ltpFR	5	9	1	SCOTCH	1251	n/a	0	n/a	n/a	n/a	n/a	n/a
1715.366	n/a	REC_WORD	857683	wordpools/wasnorm_wordpool_less_exclusions.txt	LTP230	ltpFR	5	9	1	CENT	270	n/a	0	n/a	n/a	n/a	n/a	n/a
1754.02	n/a	WORD	877010	wordpools/wasnorm_wordpool_less_exclusions.txt	LTP230	ltpFR	5	10	1	ALMANAC	17	n/a	0	0	0.5869140625	0.422607421875	lower	../fonts/zerothre.ttf
1757.846	n/a	WORD	878923	wordpools/wasnorm_wordpool_less_exclusions.txt	LTP230	ltpFR	5	10	1	KEEPER	769	n/a	1	0	0.5869140625	0.422607421875	lower	../fonts/zerothre.ttf
1761.84	n/a	WORD	880920	wordpools/wasnorm_wordpool_less_exclusions.txt	LTP230	ltpFR	5	10	1	TICK	1463	n/a	1	0	0.5869140625	0.422607421875	lower	../fonts/zerothre.ttf
1765.868	n/a	WORD	882934	wordpools/wasnorm_wordpool_less_exclusions.txt	LTP230	ltpFR	5	10	0	TWIG	1527	n/a	0	1	0.412841796875	0.57763671875	upper	../fonts/amplitud.ttf
1770.028	n/a	WORD	885014	wordpools/wasnorm_wordpool_less_exclusions.txt	LTP230	ltpFR	5	10	0	HEDGE	699	n/a	1	1	0.412841796875	0.57763671875	upper	../fonts/amplitud.ttf
1774.04	n/a	WORD	887020	wordpools/wasnorm_wordpool_less_exclusions.txt	LTP230	ltpFR	5	10	0	DAM	436	n/a	1	1	0.412841796875	0.57763671875	upper	../fonts/amplitud.ttf
1778.182	n/a	WORD	889091	wordpools/wasnorm_wordpool_less_exclusions.txt	LTP230	ltpFR	5	10	0	RIVER	1194	n/a	1	1	0.412841796875	0.57763671875	upper	../fonts/amplitud.ttf
1782.01	n/a	WORD	891005	wordpools/wasnorm_wordpool_less_exclusions.txt	LTP230	ltpFR	5	10	0	FLEA	577	n/a	0	1	0.412841796875	0.57763671875	upper	../fonts/amplitud.ttf
1785.97	n/a	WORD	892985	wordpools/wasnorm_wordpool_less_exclusions.txt	LTP230	ltpFR	5	10	1	CANOE	233	n/a	3	0	0.5869140625	0.422607421875	lower	../fonts/zerothre.ttf
1787.652	n/a	KEY_MSG	893826	n/a	LTP230	ltpFR	5	10	n/a	n/a	n/a	n/a	n/a	n/a	n/a	n/a	n/a	n/a
1790.082	n/a	WORD	895041	wordpools/wasnorm_wordpool_less_exclusions.txt	LTP230	ltpFR	5	10	1	DESK	452	n/a	3	0	0.5869140625	0.422607421875	lower	../fonts/zerothre.ttf
1791.112	n/a	KEY_MSG	895556	n/a	LTP230	ltpFR	5	10	n/a	n/a	n/a	n/a	n/a	n/a	n/a	n/a	n/a	n/a
1794.176	n/a	WORD	897088	wordpools/wasnorm_wordpool_less_exclusions.txt	LTP230	ltpFR	5	10	1	PRINCE	1124	n/a	1	0	0.5869140625	0.422607421875	lower	../fonts/zerothre.ttf
1798.27	n/a	WORD	899135	wordpools/wasnorm_wordpool_less_exclusions.txt	LTP230	ltpFR	5	10	1	PEBBLE	1035	n/a	0	0	0.5869140625	0.422607421875	lower	../fonts/zerothre.ttf
1802.48	n/a	WORD	901240	wordpools/wasnorm_wordpool_less_exclusions.txt	LTP230	ltpFR	5	10	1	WAITER	1580	n/a	1	0	0.5869140625	0.422607421875	lower	../fonts/zerothre.ttf
1806.54	n/a	WORD	903270	wordpools/wasnorm_wordpool_less_exclusions.txt	LTP230	ltpFR	5	10	0	TUXEDO	1525	n/a	0	1	0.412841796875	0.57763671875	upper	../fonts/amplitud.ttf
1810.718	n/a	WORD	905359	wordpools/wasnorm_wordpool_less_exclusions.txt	LTP230	ltpFR	5	10	0	FACTORY	548	n/a	1	1	0.412841796875	0.57763671875	upper	../fonts/amplitud.ttf
1814.812	n/a	WORD	907406	wordpools/wasnorm_wordpool_less_exclusions.txt	LTP230	ltpFR	5	10	0	WATER	1594	n/a	1	1	0.412841796875	0.57763671875	upper	../fonts/amplitud.ttf
1820.438	n/a	REC_START	910219	n/a	LTP230	ltpFR	5	10	n/a	n/a	n/a	n/a	n/a	n/a	n/a	n/a	n/a	n/a
1822.124	n/a	REC_WORD	911062	wordpools/wasnorm_wordpool_less_exclusions.txt	LTP230	ltpFR	5	10	0	WATER	1594	n/a	1	n/a	n/a	n/a	n/a	n/a
1822.936	n/a	REC_WORD	911468	wordpools/wasnorm_wordpool_less_exclusions.txt	LTP230	ltpFR	5	10	0	RIVER	1194	n/a	1	n/a	n/a	n/a	n/a	n/a
1823.674	n/a	REC_WORD	911837	wordpools/wasnorm_wordpool_less_exclusions.txt	LTP230	ltpFR	5	10	1	PEBBLE	1035	n/a	0	n/a	n/a	n/a	n/a	n/a
1826.12	n/a	REC_WORD	913060	wordpools/wasnorm_wordpool_less_exclusions.txt	LTP230	ltpFR	5	10	0	TUXEDO	1525	n/a	0	n/a	n/a	n/a	n/a	n/a
1833.712	n/a	REC_WORD	916856	wordpools/wasnorm_wordpool_less_exclusions.txt	LTP230	ltpFR	5	10	1	PRINCE	1124	n/a	1	n/a	n/a	n/a	n/a	n/a
1842.158	n/a	REC_WORD	921079	wordpools/wasnorm_wordpool_less_exclusions.txt	LTP230	ltpFR	5	10	0	DAM	436	n/a	1	n/a	n/a	n/a	n/a	n/a
1845.506	n/a	REC_WORD	922753	wordpools/wasnorm_wordpool_less_exclusions.txt	LTP230	ltpFR	5	10	1	KEEPER	769	n/a	1	n/a	n/a	n/a	n/a	n/a
1846.414	n/a	REC_WORD	923207	wordpools/wasnorm_wordpool_less_exclusions.txt	LTP230	ltpFR	5	10	1	ALMANAC	17	n/a	0	n/a	n/a	n/a	n/a	n/a
1905.876	n/a	WORD	952938	wordpools/wasnorm_wordpool_less_exclusions.txt	LTP230	ltpFR	5	11	0	GARDEN	623	n/a	1	1	0.412841796875	0.57763671875	upper	../fonts/amplitud.ttf
1910.088	n/a	WORD	955044	wordpools/wasnorm_wordpool_less_exclusions.txt	LTP230	ltpFR	5	11	0	NICKEL	950	n/a	0	1	0.412841796875	0.57763671875	upper	../fonts/amplitud.ttf
1914.048	n/a	WORD	957024	wordpools/wasnorm_wordpool_less_exclusions.txt	LTP230	ltpFR	5	11	0	BILL	126	n/a	0	1	0.412841796875	0.57763671875	upper	../fonts/amplitud.ttf
1917.926	n/a	WORD	958963	wordpools/wasnorm_wordpool_less_exclusions.txt	LTP230	ltpFR	5	11	1	FOX	598	n/a	2	0	0.5869140625	0.422607421875	lower	../fonts/zerothre.ttf
1920.854	n/a	KEY_MSG	960427	n/a	LTP230	ltpFR	5	11	n/a	n/a	n/a	n/a	n/a	n/a	n/a	n/a	n/a	n/a
1923.334	n/a	WORD	961667	wordpools/wasnorm_wordpool_less_exclusions.txt	LTP230	ltpFR	5	11	1	TRUMPET	1513	n/a	0	0	0.5869140625	0.422607421875	lower	../fonts/zerothre.ttf
1927.178	n/a	WORD	963589	wordpools/wasnorm_wordpool_less_exclusions.txt	LTP230	ltpFR	5	11	1	CHAMBER	277	n/a	0	0	0.5869140625	0.422607421875	lower	../fonts/zerothre.ttf
1931.09	n/a	WORD	965545	wordpools/wasnorm_wordpool_less_exclusions.txt	LTP230	ltpFR	5	11	1	RACCOON	1153	n/a	1	0	0.5869140625	0.422607421875	lower	../fonts/zerothre.ttf
1935.2	n/a	WORD	967600	wordpools/wasnorm_wordpool_less_exclusions.txt	LTP230	ltpFR	5	11	1	MINK	897	n/a	1	0	0.5869140625	0.422607421875	lower	../fonts/zerothre.ttf
1939.162	n/a	WORD	969581	wordpools/wasnorm_wordpool_less_exclusions.txt	LTP230	ltpFR	5	11	0	BULL	193	n/a	1	1	0.412841796875	0.57763671875	upper	../fonts/amplitud.ttf
1943.006	n/a	WORD	971503	wordpools/wasnorm_wordpool_less_exclusions.txt	LTP230	ltpFR	5	11	0	OWL	992	n/a	1	1	0.412841796875	0.57763671875	upper	../fonts/amplitud.ttf
1946.916	n/a	WORD	973458	wordpools/wasnorm_wordpool_less_exclusions.txt	LTP230	ltpFR	5	11	0	GROCERIES	663	n/a	1	1	0.412841796875	0.57763671875	upper	../fonts/amplitud.ttf
1951.11	n/a	WORD	975555	wordpools/wasnorm_wordpool_less_exclusions.txt	LTP230	ltpFR	5	11	1	ANTENNA	28	n/a	0	0	0.5869140625	0.422607421875	lower	../fonts/zerothre.ttf
1955.238	n/a	WORD	977619	wordpools/wasnorm_wordpool_less_exclusions.txt	LTP230	ltpFR	5	11	1	OTTER	986	n/a	1	0	0.5869140625	0.422607421875	lower	../fonts/zerothre.ttf
1959.164	n/a	WORD	979582	wordpools/wasnorm_wordpool_less_exclusions.txt	LTP230	ltpFR	5	11	1	FEAST	556	n/a	1	0	0.5869140625	0.422607421875	lower	../fonts/zerothre.ttf
1963.376	n/a	WORD	981688	wordpools/wasnorm_wordpool_less_exclusions.txt	LTP230	ltpFR	5	11	0	CHAUFFEUR	283	n/a	1	1	0.412841796875	0.57763671875	upper	../fonts/amplitud.ttf
1967.252	n/a	WORD	983626	wordpools/wasnorm_wordpool_less_exclusions.txt	LTP230	ltpFR	5	11	0	THERMOMETER	1453	n/a	0	1	0.412841796875	0.57763671875	upper	../fonts/amplitud.ttf
1973.078	n/a	REC_START	986539	n/a	LTP230	ltpFR	5	11	n/a	n/a	n/a	n/a	n/a	n/a	n/a	n/a	n/a	n/a
1975.892	n/a	REC_WORD	987946	wordpools/wasnorm_wordpool_less_exclusions.txt	LTP230	ltpFR	5	11	0	CHAUFFEUR	283	n/a	1	n/a	n/a	n/a	n/a	n/a
1976.764	n/a	REC_WORD	988382	wordpools/wasnorm_wordpool_less_exclusions.txt	LTP230	ltpFR	5	11	0	THERMOMETER	1453	n/a	0	n/a	n/a	n/a	n/a	n/a
1978.276	n/a	REC_WORD_VV	989138	wordpools/wasnorm_wordpool_less_exclusions.txt	LTP230	ltpFR	5	11	n/a	<>	-1	n/a	n/a	n/a	n/a	n/a	n/a	n/a
1985.016	n/a	REC_WORD	992508	wordpools/wasnorm_wordpool_less_exclusions.txt	LTP230	ltpFR	5	11	1	ANTENNA	28	n/a	0	n/a	n/a	n/a	n/a	n/a
2015.836	n/a	REC_WORD	1007918	wordpools/wasnorm_wordpool_less_exclusions.txt	LTP230	ltpFR	5	11	n/a	FUR	615	n/a	n/a	n/a	n/a	n/a	n/a	n/a
2060.998	n/a	WORD	1030499	wordpools/wasnorm_wordpool_less_exclusions.txt	LTP230	ltpFR	5	12	1	WORLD	1622	n/a	0	0	0.5869140625	0.422607421875	lower	../fonts/zerothre.ttf
2065.108	n/a	WORD	1032554	wordpools/wasnorm_wordpool_less_exclusions.txt	LTP230	ltpFR	5	12	1	VOLUNTEER	1577	n/a	1	0	0.5869140625	0.422607421875	lower	../fonts/zerothre.ttf
2069.252	n/a	WORD	1034626	wordpools/wasnorm_wordpool_less_exclusions.txt	LTP230	ltpFR	5	12	1	DRESS	495	n/a	0	0	0.5869140625	0.422607421875	lower	../fonts/zerothre.ttf
2073.38	n/a	WORD	1036690	wordpools/wasnorm_wordpool_less_exclusions.txt	LTP230	ltpFR	5	12	1	TEAPOT	1442	n/a	0	0	0.5869140625	0.422607421875	lower	../fonts/zerothre.ttf
2077.274	n/a	WORD	1038637	wordpools/wasnorm_wordpool_less_exclusions.txt	LTP230	ltpFR	5	12	0	NECKLACE	940	n/a	0	1	0.412841796875	0.57763671875	upper	../fonts/amplitud.ttf
2081.468	n/a	WORD	1040734	wordpools/wasnorm_wordpool_less_exclusions.txt	LTP230	ltpFR	5	12	0	EYELASH	546	n/a	0	1	0.412841796875	0.57763671875	upper	../fonts/amplitud.ttf
2085.396	n/a	WORD	1042698	wordpools/wasnorm_wordpool_less_exclusions.txt	LTP230	ltpFR	5	12	0	DEPUTY	450	n/a	1	1	0.412841796875	0.57763671875	upper	../fonts/amplitud.ttf
2089.488	n/a	WORD	1044744	wordpools/wasnorm_wordpool_less_exclusions.txt	LTP230	ltpFR	5	12	1	AGENT	10	n/a	1	0	0.5869140625	0.422607421875	lower	../fonts/zerothre.ttf
2093.532	n/a	WORD	1046766	wordpools/wasnorm_wordpool_less_exclusions.txt	LTP230	ltpFR	5	12	1	TROUSERS	1510	n/a	0	0	0.5869140625	0.422607421875	lower	../fonts/zerothre.ttf
2097.544	n/a	WORD	1048772	wordpools/wasnorm_wordpool_less_exclusions.txt	LTP230	ltpFR	5	12	0	REFRIGERATOR	1179	n/a	1	1	0.412841796875	0.57763671875	upper	../fonts/amplitud.ttf
2101.404	n/a	WORD	1050702	wordpools/wasnorm_wordpool_less_exclusions.txt	LTP230	ltpFR	5	12	0	CHAIN	273	n/a	0	1	0.412841796875	0.57763671875	upper	../fonts/amplitud.ttf
2105.466	n/a	WORD	1052733	wordpools/wasnorm_wordpool_less_exclusions.txt	LTP230	ltpFR	5	12	0	TIE	1466	n/a	1	1	0.412841796875	0.57763671875	upper	../fonts/amplitud.ttf
2109.526	n/a	WORD	1054763	wordpools/wasnorm_wordpool_less_exclusions.txt	LTP230	ltpFR	5	12	0	STRAW	1390	n/a	1	1	0.412841796875	0.57763671875	upper	../fonts/amplitud.ttf
2113.67	n/a	WORD	1056835	wordpools/wasnorm_wordpool_less_exclusions.txt	LTP230	ltpFR	5	12	0	BEVERAGE	123	n/a	1	1	0.412841796875	0.57763671875	upper	../fonts/amplitud.ttf
2117.546	n/a	WORD	1058773	wordpools/wasnorm_wordpool_less_exclusions.txt	LTP230	ltpFR	5	12	1	EYE	545	n/a	3	0	0.5869140625	0.422607421875	lower	../fonts/zerothre.ttf
2119.112	n/a	KEY_MSG	1059556	n/a	LTP230	ltpFR	5	12	n/a	n/a	n/a	n/a	n/a	n/a	n/a	n/a	n/a	n/a
2121.708	n/a	WORD	1060854	wordpools/wasnorm_wordpool_less_exclusions.txt	LTP230	ltpFR	5	12	1	VINE	1568	n/a	1	0	0.5869140625	0.422607421875	lower	../fonts/zerothre.ttf
2127.632	n/a	REC_START	1063816	n/a	LTP230	ltpFR	5	12	n/a	n/a	n/a	n/a	n/a	n/a	n/a	n/a	n/a	n/a
2130.312	n/a	REC_WORD	1065156	wordpools/wasnorm_wordpool_less_exclusions.txt	LTP230	ltpFR	5	12	1	VINE	1568	n/a	1	n/a	n/a	n/a	n/a	n/a
2146.36	n/a	REC_WORD	1073180	wordpools/wasnorm_wordpool_less_exclusions.txt	LTP230	ltpFR	5	12	1	WORLD	1622	n/a	0	n/a	n/a	n/a	n/a	n/a
2152.85	n/a	REC_WORD	1076425	wordpools/wasnorm_wordpool_less_exclusions.txt	LTP230	ltpFR	5	12	1	TROUSERS	1510	n/a	0	n/a	n/a	n/a	n/a	n/a
2154.912	n/a	REC_WORD	1077456	wordpools/wasnorm_wordpool_less_exclusions.txt	LTP230	ltpFR	5	12	1	AGENT	10	n/a	1	n/a	n/a	n/a	n/a	n/a
2203.236	n/a	REST_REWET	1101618	n/a	LTP230	ltpFR	5	12	n/a	n/a	n/a	n/a	n/a	n/a	n/a	n/a	n/a	n/a
2552.92	n/a	WORD	1276460	wordpools/wasnorm_wordpool_less_exclusions.txt	LTP230	ltpFR	5	13	0	COLESLAW	344	n/a	0	1	0.412841796875	0.57763671875	upper	../fonts/amplitud.ttf
2556.964	n/a	WORD	1278482	wordpools/wasnorm_wordpool_less_exclusions.txt	LTP230	ltpFR	5	13	0	KEYBOARD	774	n/a	1	1	0.412841796875	0.57763671875	upper	../fonts/amplitud.ttf
2561.026	n/a	WORD	1280513	wordpools/wasnorm_wordpool_less_exclusions.txt	LTP230	ltpFR	5	13	0	NEUTRON	947	n/a	0	1	0.412841796875	0.57763671875	upper	../fonts/amplitud.ttf
2565.02	n/a	WORD	1282510	wordpools/wasnorm_wordpool_less_exclusions.txt	LTP230	ltpFR	5	13	0	SKATE	1313	n/a	1	1	0.412841796875	0.57763671875	upper	../fonts/amplitud.ttf
2568.914	n/a	WORD	1284457	wordpools/wasnorm_wordpool_less_exclusions.txt	LTP230	ltpFR	5	13	0	BULLETIN	195	n/a	1	1	0.412841796875	0.57763671875	upper	../fonts/amplitud.ttf
2572.858	n/a	WORD	1286429	wordpools/wasnorm_wordpool_less_exclusions.txt	LTP230	ltpFR	5	13	0	MARBLE	867	n/a	1	1	0.412841796875	0.57763671875	upper	../fonts/amplitud.ttf
2576.868	n/a	WORD	1288434	wordpools/wasnorm_wordpool_less_exclusions.txt	LTP230	ltpFR	5	13	0	YOLK	1633	n/a	1	1	0.412841796875	0.57763671875	upper	../fonts/amplitud.ttf
2580.978	n/a	WORD	1290489	wordpools/wasnorm_wordpool_less_exclusions.txt	LTP230	ltpFR	5	13	0	COMPUTER	359	n/a	1	1	0.412841796875	0.57763671875	upper	../fonts/amplitud.ttf
2585.106	n/a	WORD	1292553	wordpools/wasnorm_wordpool_less_exclusions.txt	LTP230	ltpFR	5	13	0	CASH	252	n/a	1	1	0.412841796875	0.57763671875	upper	../fonts/amplitud.ttf
2589.282	n/a	WORD	1294641	wordpools/wasnorm_wordpool_less_exclusions.txt	LTP230	ltpFR	5	13	0	EAR	513	n/a	0	1	0.412841796875	0.57763671875	upper	../fonts/amplitud.ttf
2593.244	n/a	WORD	1296622	wordpools/wasnorm_wordpool_less_exclusions.txt	LTP230	ltpFR	5	13	0	CUSTOMER	430	n/a	1	1	0.412841796875	0.57763671875	upper	../fonts/amplitud.ttf
2597.138	n/a	WORD	1298569	wordpools/wasnorm_wordpool_less_exclusions.txt	LTP230	ltpFR	5	13	0	TREASURE	1500	n/a	0	1	0.412841796875	0.57763671875	upper	../fonts/amplitud.ttf
2601.148	n/a	WORD	1300574	wordpools/wasnorm_wordpool_less_exclusions.txt	LTP230	ltpFR	5	13	0	SPRINKLE	1359	n/a	n/a	1	0.412841796875	0.57763671875	upper	../fonts/amplitud.ttf
2604.178	n/a	SLOW_MSG	1302089	n/a	LTP230	ltpFR	5	13	n/a	n/a	n/a	n/a	n/a	n/a	n/a	n/a	n/a	n/a
2606.674	n/a	WORD	1303337	wordpools/wasnorm_wordpool_less_exclusions.txt	LTP230	ltpFR	5	13	0	TIDE	1465	n/a	1	1	0.412841796875	0.57763671875	upper	../fonts/amplitud.ttf
2610.784	n/a	WORD	1305392	wordpools/wasnorm_wordpool_less_exclusions.txt	LTP230	ltpFR	5	13	0	ROOST	1208	n/a	1	1	0.412841796875	0.57763671875	upper	../fonts/amplitud.ttf
2614.862	n/a	WORD	1307431	wordpools/wasnorm_wordpool_less_exclusions.txt	LTP230	ltpFR	5	13	0	CANYON	235	n/a	1	1	0.412841796875	0.57763671875	upper	../fonts/amplitud.ttf
2620.604	n/a	REC_START	1310302	n/a	LTP230	ltpFR	5	13	n/a	n/a	n/a	n/a	n/a	n/a	n/a	n/a	n/a	n/a
2622.558	n/a	REC_WORD	1311279	wordpools/wasnorm_wordpool_less_exclusions.txt	LTP230	ltpFR	5	13	0	TIDE	1465	n/a	1	n/a	n/a	n/a	n/a	n/a
2623.392	n/a	REC_WORD	1311696	wordpools/wasnorm_wordpool_less_exclusions.txt	LTP230	ltpFR	5	13	0	ROOST	1208	n/a	1	n/a	n/a	n/a	n/a	n/a
2624.276	n/a	REC_WORD	1312138	wordpools/wasnorm_wordpool_less_exclusions.txt	LTP230	ltpFR	5	13	0	CANYON	235	n/a	1	n/a	n/a	n/a	n/a	n/a
2624.964	n/a	REC_WORD	1312482	wordpools/wasnorm_wordpool_less_exclusions.txt	LTP230	ltpFR	5	13	n/a	SPRINKLER	-1	n/a	n/a	n/a	n/a	n/a	n/a	n/a
2631.404	n/a	REC_WORD	1315702	wordpools/wasnorm_wordpool_less_exclusions.txt	LTP230	ltpFR	5	13	0	MARBLE	867	n/a	1	n/a	n/a	n/a	n/a	n/a
2715.812	n/a	WORD	1357906	wordpools/wasnorm_wordpool_less_exclusions.txt	LTP230	ltpFR	5	14	-1	COMMITTEE	355	n/a	-1	1	1.0	1.0	upper	../fonts/Verdana.ttf
2719.94	n/a	WORD	1359970	wordpools/wasnorm_wordpool_less_exclusions.txt	LTP230	ltpFR	5	14	-1	IGLOO	734	n/a	-1	1	1.0	1.0	upper	../fonts/Verdana.ttf
2724.034	n/a	WORD	1362017	wordpools/wasnorm_wordpool_less_exclusions.txt	LTP230	ltpFR	5	14	-1	NOSE	957	n/a	-1	1	1.0	1.0	upper	../fonts/Verdana.ttf
2727.878	n/a	WORD	1363939	wordpools/wasnorm_wordpool_less_exclusions.txt	LTP230	ltpFR	5	14	-1	CONTINENT	367	n/a	-1	1	1.0	1.0	upper	../fonts/Verdana.ttf
2731.806	n/a	WORD	1365903	wordpools/wasnorm_wordpool_less_exclusions.txt	LTP230	ltpFR	5	14	-1	CHAIRPERSON	275	n/a	-1	1	1.0	1.0	upper	../fonts/Verdana.ttf
2736.016	n/a	WORD	1368008	wordpools/wasnorm_wordpool_less_exclusions.txt	LTP230	ltpFR	5	14	-1	STAGE	1366	n/a	-1	1	1.0	1.0	upper	../fonts/Verdana.ttf
2739.86	n/a	WORD	1369930	wordpools/wasnorm_wordpool_less_exclusions.txt	LTP230	ltpFR	5	14	-1	PIER	1063	n/a	-1	1	1.0	1.0	upper	../fonts/Verdana.ttf
2743.754	n/a	WORD	1371877	wordpools/wasnorm_wordpool_less_exclusions.txt	LTP230	ltpFR	5	14	-1	LITTER	832	n/a	-1	1	1.0	1.0	upper	../fonts/Verdana.ttf
2747.848	n/a	WORD	1373924	wordpools/wasnorm_wordpool_less_exclusions.txt	LTP230	ltpFR	5	14	-1	MUSHROOM	934	n/a	-1	1	1.0	1.0	upper	../fonts/Verdana.ttf
2751.958	n/a	WORD	1375979	wordpools/wasnorm_wordpool_less_exclusions.txt	LTP230	ltpFR	5	14	-1	VEAL	1551	n/a	-1	1	1.0	1.0	upper	../fonts/Verdana.ttf
2756.02	n/a	WORD	1378010	wordpools/wasnorm_wordpool_less_exclusions.txt	LTP230	ltpFR	5	14	-1	LIVER	833	n/a	-1	1	1.0	1.0	upper	../fonts/Verdana.ttf
2760.146	n/a	WORD	1380073	wordpools/wasnorm_wordpool_less_exclusions.txt	LTP230	ltpFR	5	14	-1	BARK	87	n/a	-1	1	1.0	1.0	upper	../fonts/Verdana.ttf
2764.258	n/a	WORD	1382129	wordpools/wasnorm_wordpool_less_exclusions.txt	LTP230	ltpFR	5	14	-1	COUNTRY	388	n/a	-1	1	1.0	1.0	upper	../fonts/Verdana.ttf
2768.118	n/a	WORD	1384059	wordpools/wasnorm_wordpool_less_exclusions.txt	LTP230	ltpFR	5	14	-1	WILDERNESS	1610	n/a	-1	1	1.0	1.0	upper	../fonts/Verdana.ttf
2772.162	n/a	WORD	1386081	wordpools/wasnorm_wordpool_less_exclusions.txt	LTP230	ltpFR	5	14	-1	ANGEL	22	n/a	-1	1	1.0	1.0	upper	../fonts/Verdana.ttf
2776.074	n/a	WORD	1388037	wordpools/wasnorm_wordpool_less_exclusions.txt	LTP230	ltpFR	5	14	-1	PITCHFORK	1078	n/a	-1	1	1.0	1.0	upper	../fonts/Verdana.ttf
2781.832	n/a	REC_START	1390916	n/a	LTP230	ltpFR	5	14	n/a	n/a	n/a	n/a	n/a	n/a	n/a	n/a	n/a	n/a
2783.996	n/a	REC_WORD_VV	1391998	wordpools/wasnorm_wordpool_less_exclusions.txt	LTP230	ltpFR	5	14	n/a	<>	-1	n/a	n/a	n/a	n/a	n/a	n/a	n/a
2784.55	n/a	REC_WORD	1392275	wordpools/wasnorm_wordpool_less_exclusions.txt	LTP230	ltpFR	5	14	-1	COMMITTEE	355	n/a	-1	n/a	n/a	n/a	n/a	n/a
2786.366	n/a	REC_WORD	1393183	wordpools/wasnorm_wordpool_less_exclusions.txt	LTP230	ltpFR	5	14	-1	IGLOO	734	n/a	-1	n/a	n/a	n/a	n/a	n/a
2787.348	n/a	REC_WORD	1393674	wordpools/wasnorm_wordpool_less_exclusions.txt	LTP230	ltpFR	5	14	-1	NOSE	957	n/a	-1	n/a	n/a	n/a	n/a	n/a
2788.502	n/a	REC_WORD	1394251	wordpools/wasnorm_wordpool_less_exclusions.txt	LTP230	ltpFR	5	14	-1	CONTINENT	367	n/a	-1	n/a	n/a	n/a	n/a	n/a
2789.628	n/a	REC_WORD	1394814	wordpools/wasnorm_wordpool_less_exclusions.txt	LTP230	ltpFR	5	14	-1	COUNTRY	388	n/a	-1	n/a	n/a	n/a	n/a	n/a
2794.742	n/a	REC_WORD	1397371	wordpools/wasnorm_wordpool_less_exclusions.txt	LTP230	ltpFR	5	14	-1	VEAL	1551	n/a	-1	n/a	n/a	n/a	n/a	n/a
2798.906	n/a	REC_WORD	1399453	wordpools/wasnorm_wordpool_less_exclusions.txt	LTP230	ltpFR	5	14	-1	LIVER	833	n/a	-1	n/a	n/a	n/a	n/a	n/a
2800.534	n/a	REC_WORD	1400267	wordpools/wasnorm_wordpool_less_exclusions.txt	LTP230	ltpFR	5	14	-1	BARK	87	n/a	-1	n/a	n/a	n/a	n/a	n/a
2805.706	n/a	REC_WORD	1402853	wordpools/wasnorm_wordpool_less_exclusions.txt	LTP230	ltpFR	5	14	-1	WILDERNESS	1610	n/a	-1	n/a	n/a	n/a	n/a	n/a
2863.46	n/a	WORD	1431730	wordpools/wasnorm_wordpool_less_exclusions.txt	LTP230	ltpFR	5	15	0	STONE	1385	n/a	0	1	0.412841796875	0.57763671875	upper	../fonts/amplitud.ttf
2867.404	n/a	WORD	1433702	wordpools/wasnorm_wordpool_less_exclusions.txt	LTP230	ltpFR	5	15	0	STEREO	1378	n/a	1	1	0.412841796875	0.57763671875	upper	../fonts/amplitud.ttf
2871.432	n/a	WORD	1435716	wordpools/wasnorm_wordpool_less_exclusions.txt	LTP230	ltpFR	5	15	0	SURF	1412	n/a	1	1	0.412841796875	0.57763671875	upper	../fonts/amplitud.ttf
2875.41	n/a	WORD	1437705	wordpools/wasnorm_wordpool_less_exclusions.txt	LTP230	ltpFR	5	15	0	VASE	1549	n/a	1	1	0.412841796875	0.57763671875	upper	../fonts/amplitud.ttf
2879.27	n/a	WORD	1439635	wordpools/wasnorm_wordpool_less_exclusions.txt	LTP230	ltpFR	5	15	0	THORN	1459	n/a	1	1	0.412841796875	0.57763671875	upper	../fonts/amplitud.ttf
2883.298	n/a	WORD	1441649	wordpools/wasnorm_wordpool_less_exclusions.txt	LTP230	ltpFR	5	15	0	BASEBALL	93	n/a	0	1	0.412841796875	0.57763671875	upper	../fonts/amplitud.ttf
2887.458	n/a	WORD	1443729	wordpools/wasnorm_wordpool_less_exclusions.txt	LTP230	ltpFR	5	15	0	TIMBER	1469	n/a	1	1	0.412841796875	0.57763671875	upper	../fonts/amplitud.ttf
2891.584	n/a	WORD	1445792	wordpools/wasnorm_wordpool_less_exclusions.txt	LTP230	ltpFR	5	15	0	STRAWBERRY	1391	n/a	0	1	0.412841796875	0.57763671875	upper	../fonts/amplitud.ttf
2895.53	n/a	WORD	1447765	wordpools/wasnorm_wordpool_less_exclusions.txt	LTP230	ltpFR	5	15	0	PECAN	1036	n/a	0	1	0.412841796875	0.57763671875	upper	../fonts/amplitud.ttf
2899.658	n/a	WORD	1449829	wordpools/wasnorm_wordpool_less_exclusions.txt	LTP230	ltpFR	5	15	0	CHISEL	305	n/a	1	1	0.412841796875	0.57763671875	upper	../fonts/amplitud.ttf
2903.85	n/a	WORD	1451925	wordpools/wasnorm_wordpool_less_exclusions.txt	LTP230	ltpFR	5	15	0	TACK	1428	n/a	0	1	0.412841796875	0.57763671875	upper	../fonts/amplitud.ttf
2907.778	n/a	WORD	1453889	wordpools/wasnorm_wordpool_less_exclusions.txt	LTP230	ltpFR	5	15	0	CAGE	218	n/a	0	1	0.412841796875	0.57763671875	upper	../fonts/amplitud.ttf
2911.672	n/a	WORD	1455836	wordpools/wasnorm_wordpool_less_exclusions.txt	LTP230	ltpFR	5	15	0	EMERALD	528	n/a	1	1	0.412841796875	0.57763671875	upper	../fonts/amplitud.ttf
2915.7	n/a	WORD	1457850	wordpools/wasnorm_wordpool_less_exclusions.txt	LTP230	ltpFR	5	15	0	PELT	1040	n/a	0	1	0.412841796875	0.57763671875	upper	../fonts/amplitud.ttf
2919.86	n/a	WORD	1459930	wordpools/wasnorm_wordpool_less_exclusions.txt	LTP230	ltpFR	5	15	0	BAY	102	n/a	0	1	0.412841796875	0.57763671875	upper	../fonts/amplitud.ttf
2923.954	n/a	WORD	1461977	wordpools/wasnorm_wordpool_less_exclusions.txt	LTP230	ltpFR	5	15	0	PIGEON	1065	n/a	1	1	0.412841796875	0.57763671875	upper	../fonts/amplitud.ttf
2929.862	n/a	REC_START	1464931	n/a	LTP230	ltpFR	5	15	n/a	n/a	n/a	n/a	n/a	n/a	n/a	n/a	n/a	n/a
2933.114	n/a	REC_WORD	1466557	wordpools/wasnorm_wordpool_less_exclusions.txt	LTP230	ltpFR	5	15	0	EMERALD	528	n/a	1	n/a	n/a	n/a	n/a	n/a
2934.032	n/a	REC_WORD	1467016	wordpools/wasnorm_wordpool_less_exclusions.txt	LTP230	ltpFR	5	15	0	PELT	1040	n/a	0	n/a	n/a	n/a	n/a	n/a
2934.692	n/a	REC_WORD	1467346	wordpools/wasnorm_wordpool_less_exclusions.txt	LTP230	ltpFR	5	15	0	PIGEON	1065	n/a	1	n/a	n/a	n/a	n/a	n/a
3015.884	n/a	WORD	1507942	wordpools/wasnorm_wordpool_less_exclusions.txt	LTP230	ltpFR	5	16	-1	FRANCE	601	n/a	-1	1	1.0	1.0	upper	../fonts/Verdana.ttf
3020.062	n/a	WORD	1510031	wordpools/wasnorm_wordpool_less_exclusions.txt	LTP230	ltpFR	5	16	-1	SUGAR	1401	n/a	-1	1	1.0	1.0	upper	../fonts/Verdana.ttf
3024.122	n/a	WORD	1512061	wordpools/wasnorm_wordpool_less_exclusions.txt	LTP230	ltpFR	5	16	-1	DRAWING	494	n/a	-1	1	1.0	1.0	upper	../fonts/Verdana.ttf
3028.084	n/a	WORD	1514042	wordpools/wasnorm_wordpool_less_exclusions.txt	LTP230	ltpFR	5	16	-1	ARROW	40	n/a	-1	1	1.0	1.0	upper	../fonts/Verdana.ttf
3031.928	n/a	WORD	1515964	wordpools/wasnorm_wordpool_less_exclusions.txt	LTP230	ltpFR	5	16	-1	COIN	343	n/a	-1	1	1.0	1.0	upper	../fonts/Verdana.ttf
3035.954	n/a	WORD	1517977	wordpools/wasnorm_wordpool_less_exclusions.txt	LTP230	ltpFR	5	16	-1	DOUGH	489	n/a	-1	1	1.0	1.0	upper	../fonts/Verdana.ttf
3039.8	n/a	WORD	1519900	wordpools/wasnorm_wordpool_less_exclusions.txt	LTP230	ltpFR	5	16	-1	SKIRT	1319	n/a	-1	1	1.0	1.0	upper	../fonts/Verdana.ttf
3043.91	n/a	WORD	1521955	wordpools/wasnorm_wordpool_less_exclusions.txt	LTP230	ltpFR	5	16	-1	PLAID	1080	n/a	-1	1	1.0	1.0	upper	../fonts/Verdana.ttf
3048.004	n/a	WORD	1524002	wordpools/wasnorm_wordpool_less_exclusions.txt	LTP230	ltpFR	5	16	-1	GOO	648	n/a	-1	1	1.0	1.0	upper	../fonts/Verdana.ttf
3052.082	n/a	WORD	1526041	wordpools/wasnorm_wordpool_less_exclusions.txt	LTP230	ltpFR	5	16	-1	TART	1436	n/a	-1	1	1.0	1.0	upper	../fonts/Verdana.ttf
3055.96	n/a	WORD	1527980	wordpools/wasnorm_wordpool_less_exclusions.txt	LTP230	ltpFR	5	16	-1	STAFF	1365	n/a	-1	1	1.0	1.0	upper	../fonts/Verdana.ttf
3059.936	n/a	WORD	1529968	wordpools/wasnorm_wordpool_less_exclusions.txt	LTP230	ltpFR	5	16	-1	GREASE	660	n/a	-1	1	1.0	1.0	upper	../fonts/Verdana.ttf
3064.114	n/a	WORD	1532057	wordpools/wasnorm_wordpool_less_exclusions.txt	LTP230	ltpFR	5	16	-1	PARIS	1014	n/a	-1	1	1.0	1.0	upper	../fonts/Verdana.ttf
3068.208	n/a	WORD	1534104	wordpools/wasnorm_wordpool_less_exclusions.txt	LTP230	ltpFR	5	16	-1	PEANUT	1032	n/a	-1	1	1.0	1.0	upper	../fonts/Verdana.ttf
3072.168	n/a	WORD	1536084	wordpools/wasnorm_wordpool_less_exclusions.txt	LTP230	ltpFR	5	16	-1	LOAF	835	n/a	-1	1	1.0	1.0	upper	../fonts/Verdana.ttf
3076.378	n/a	WORD	1538189	wordpools/wasnorm_wordpool_less_exclusions.txt	LTP230	ltpFR	5	16	-1	TONGUE	1479	n/a	-1	1	1.0	1.0	upper	../fonts/Verdana.ttf
3082.138	n/a	REC_START	1541069	n/a	LTP230	ltpFR	5	16	n/a	n/a	n/a	n/a	n/a	n/a	n/a	n/a	n/a	n/a
3084.716	n/a	REC_WORD	1542358	wordpools/wasnorm_wordpool_less_exclusions.txt	LTP230	ltpFR	5	16	-1	FRANCE	601	n/a	-1	n/a	n/a	n/a	n/a	n/a
3085.474	n/a	REC_WORD	1542737	wordpools/wasnorm_wordpool_less_exclusions.txt	LTP230	ltpFR	5	16	-1	PARIS	1014	n/a	-1	n/a	n/a	n/a	n/a	n/a
3087.76	n/a	REC_WORD	1543880	wordpools/wasnorm_wordpool_less_exclusions.txt	LTP230	ltpFR	5	16	-1	PLAID	1080	n/a	-1	n/a	n/a	n/a	n/a	n/a
3088.268	n/a	REC_WORD	1544134	wordpools/wasnorm_wordpool_less_exclusions.txt	LTP230	ltpFR	5	16	-1	SKIRT	1319	n/a	-1	n/a	n/a	n/a	n/a	n/a
3089.28	n/a	REC_WORD	1544640	wordpools/wasnorm_wordpool_less_exclusions.txt	LTP230	ltpFR	5	16	-1	COIN	343	n/a	-1	n/a	n/a	n/a	n/a	n/a
3089.964	n/a	REC_WORD	1544982	wordpools/wasnorm_wordpool_less_exclusions.txt	LTP230	ltpFR	5	16	-1	DOUGH	489	n/a	-1	n/a	n/a	n/a	n/a	n/a
3090.568	n/a	REC_WORD	1545284	wordpools/wasnorm_wordpool_less_exclusions.txt	LTP230	ltpFR	5	16	-1	GOO	648	n/a	-1	n/a	n/a	n/a	n/a	n/a
3094.424	n/a	REC_WORD	1547212	wordpools/wasnorm_wordpool_less_exclusions.txt	LTP230	ltpFR	5	16	-1	GREASE	660	n/a	-1	n/a	n/a	n/a	n/a	n/a
3095.936	n/a	REC_WORD	1547968	wordpools/wasnorm_wordpool_less_exclusions.txt	LTP230	ltpFR	5	16	-1	PEANUT	1032	n/a	-1	n/a	n/a	n/a	n/a	n/a
3098.79	n/a	REC_WORD	1549395	wordpools/wasnorm_wordpool_less_exclusions.txt	LTP230	ltpFR	5	16	-1	LOAF	835	n/a	-1	n/a	n/a	n/a	n/a	n/a
3099.728	n/a	REC_WORD	1549864	wordpools/wasnorm_wordpool_less_exclusions.txt	LTP230	ltpFR	5	16	-1	TONGUE	1479	n/a	-1	n/a	n/a	n/a	n/a	n/a
3169.958	n/a	REC_START	1584979	n/a	LTP230	ltpFR	5	1	n/a	n/a	n/a	n/a	n/a	n/a	n/a	n/a	n/a	n/a
3169.99	n/a	RECOG_TARGET	1584995	n/a	LTP230	ltpFR	5	1	0	PELT	1040	5	0	n/a	n/a	n/a	n/a	n/a
3171.962	n/a	RECOG_RESP_VV	1585981	n/a	LTP230	ltpFR	5	1	0	PELT	1040	n/a	0	n/a	n/a	n/a	n/a	n/a
3173.556	n/a	RECOG_RESP_VV	1586778	n/a	LTP230	ltpFR	5	1	0	PELT	1040	n/a	0	n/a	n/a	n/a	n/a	n/a
3174.71	n/a	RECOG_RESP	1587355	n/a	LTP230	ltpFR	5	1	0	PELT	1040	n/a	0	n/a	n/a	n/a	n/a	n/a
3177.81	n/a	RECOG_CONF	1588905	n/a	LTP230	ltpFR	5	1	0	PELT	1040	5	0	n/a	n/a	n/a	n/a	n/a
3180.108	n/a	RECOG_TARGET	1590054	n/a	LTP230	ltpFR	5	1	0	GORILLA	650	5	1	n/a	n/a	n/a	n/a	n/a
3180.886	n/a	RECOG_RESP	1590443	n/a	LTP230	ltpFR	5	1	0	GORILLA	650	n/a	1	n/a	n/a	n/a	n/a	n/a
3182.428	n/a	RECOG_CONF	1591214	n/a	LTP230	ltpFR	5	1	0	GORILLA	650	5	1	n/a	n/a	n/a	n/a	n/a
3184.486	n/a	RECOG_TARGET	1592243	n/a	LTP230	ltpFR	5	1	1	FARMER	553	5	1	n/a	n/a	n/a	n/a	n/a
3185.24	n/a	RECOG_RESP	1592620	n/a	LTP230	ltpFR	5	1	1	FARMER	553	n/a	1	n/a	n/a	n/a	n/a	n/a
3186.59	n/a	RECOG_CONF	1593295	n/a	LTP230	ltpFR	5	1	1	FARMER	553	5	1	n/a	n/a	n/a	n/a	n/a
3188.68	n/a	RECOG_LURE	1594340	n/a	LTP230	ltpFR	5	1	n/a	CHIMPANZEE	302	5	n/a	n/a	n/a	n/a	n/a	n/a
3189.582	n/a	RECOG_RESP	1594791	n/a	LTP230	ltpFR	5	1	n/a	CHIMPANZEE	302	n/a	n/a	n/a	n/a	n/a	n/a	n/a
3191.166	n/a	RECOG_CONF	1595583	n/a	LTP230	ltpFR	5	1	n/a	CHIMPANZEE	302	5	n/a	n/a	n/a	n/a	n/a	n/a
3193.206	n/a	RECOG_TARGET	1596603	n/a	LTP230	ltpFR	5	1	0	SPRINKLE	1359	3	n/a	n/a	n/a	n/a	n/a	n/a
3194.64	n/a	RECOG_RESP	1597320	n/a	LTP230	ltpFR	5	1	0	SPRINKLE	1359	n/a	n/a	n/a	n/a	n/a	n/a	n/a
3196.008	n/a	RECOG_CONF	1598004	n/a	LTP230	ltpFR	5	1	0	SPRINKLE	1359	3	n/a	n/a	n/a	n/a	n/a	n/a
3198.098	n/a	RECOG_TARGET	1599049	n/a	LTP230	ltpFR	5	1	0	BALLOON	75	4	0	n/a	n/a	n/a	n/a	n/a
3199.054	n/a	RECOG_RESP	1599527	n/a	LTP230	ltpFR	5	1	0	BALLOON	75	n/a	0	n/a	n/a	n/a	n/a	n/a
3200.264	n/a	RECOG_CONF	1600132	n/a	LTP230	ltpFR	5	1	0	BALLOON	75	4	0	n/a	n/a	n/a	n/a	n/a
3202.226	n/a	RECOG_TARGET	1601113	n/a	LTP230	ltpFR	5	1	0	LADY	794	3	1	n/a	n/a	n/a	n/a	n/a
3202.844	n/a	RECOG_RESP	1601422	n/a	LTP230	ltpFR	5	1	0	LADY	794	n/a	1	n/a	n/a	n/a	n/a	n/a
3204.534	n/a	RECOG_CONF	1602267	n/a	LTP230	ltpFR	5	1	0	LADY	794	3	1	n/a	n/a	n/a	n/a	n/a
3206.436	n/a	RECOG_TARGET	1603218	n/a	LTP230	ltpFR	5	1	0	WOMAN	1620	5	1	n/a	n/a	n/a	n/a	n/a
3207.022	n/a	RECOG_RESP	1603511	n/a	LTP230	ltpFR	5	1	0	WOMAN	1620	n/a	1	n/a	n/a	n/a	n/a	n/a
3208.084	n/a	RECOG_CONF	1604042	n/a	LTP230	ltpFR	5	1	0	WOMAN	1620	5	1	n/a	n/a	n/a	n/a	n/a
3210.082	n/a	RECOG_TARGET	1605041	n/a	LTP230	ltpFR	5	1	0	CHAUFFEUR	283	5	1	n/a	n/a	n/a	n/a	n/a
3210.822	n/a	RECOG_RESP	1605411	n/a	LTP230	ltpFR	5	1	0	CHAUFFEUR	283	n/a	1	n/a	n/a	n/a	n/a	n/a
3211.922	n/a	RECOG_CONF	1605961	n/a	LTP230	ltpFR	5	1	0	CHAUFFEUR	283	5	1	n/a	n/a	n/a	n/a	n/a
3213.926	n/a	RECOG_TARGET	1606963	n/a	LTP230	ltpFR	5	1	1	PHOTO	1055	2	0	n/a	n/a	n/a	n/a	n/a
3215.326	n/a	RECOG_RESP	1607663	n/a	LTP230	ltpFR	5	1	1	PHOTO	1055	n/a	0	n/a	n/a	n/a	n/a	n/a
3216.408	n/a	RECOG_CONF	1608204	n/a	LTP230	ltpFR	5	1	1	PHOTO	1055	2	0	n/a	n/a	n/a	n/a	n/a
3218.102	n/a	RECOG_TARGET	1609051	n/a	LTP230	ltpFR	5	1	0	CHISEL	305	5	1	n/a	n/a	n/a	n/a	n/a
3218.904	n/a	RECOG_RESP	1609452	n/a	LTP230	ltpFR	5	1	0	CHISEL	305	n/a	1	n/a	n/a	n/a	n/a	n/a
3220.068	n/a	RECOG_CONF	1610034	n/a	LTP230	ltpFR	5	1	0	CHISEL	305	5	1	n/a	n/a	n/a	n/a	n/a
3221.896	n/a	RECOG_LURE	1610948	n/a	LTP230	ltpFR	5	1	n/a	KIDNEY	776	1	n/a	n/a	n/a	n/a	n/a	n/a
3223.288	n/a	RECOG_RESP	1611644	n/a	LTP230	ltpFR	5	1	n/a	KIDNEY	776	n/a	n/a	n/a	n/a	n/a	n/a	n/a
3224.34	n/a	RECOG_CONF	1612170	n/a	LTP230	ltpFR	5	1	n/a	KIDNEY	776	1	n/a	n/a	n/a	n/a	n/a	n/a
3226.274	n/a	RECOG_TARGET	1613137	n/a	LTP230	ltpFR	5	1	0	BAKER	71	4	1	n/a	n/a	n/a	n/a	n/a
3227.122	n/a	RECOG_RESP	1613561	n/a	LTP230	ltpFR	5	1	0	BAKER	71	n/a	1	n/a	n/a	n/a	n/a	n/a
3228.43	n/a	RECOG_CONF	1614215	n/a	LTP230	ltpFR	5	1	0	BAKER	71	4	1	n/a	n/a	n/a	n/a	n/a
3230.15	n/a	RECOG_TARGET	1615075	n/a	LTP230	ltpFR	5	1	0	SHRINE	1298	5	1	n/a	n/a	n/a	n/a	n/a
3230.768	n/a	RECOG_RESP	1615384	n/a	LTP230	ltpFR	5	1	0	SHRINE	1298	n/a	1	n/a	n/a	n/a	n/a	n/a
3231.844	n/a	RECOG_CONF	1615922	n/a	LTP230	ltpFR	5	1	0	SHRINE	1298	5	1	n/a	n/a	n/a	n/a	n/a
3233.828	n/a	RECOG_LURE	1616914	n/a	LTP230	ltpFR	5	1	n/a	COMET	353	2	n/a	n/a	n/a	n/a	n/a	n/a
3234.252	n/a	RECOG_RESP_VV	1617126	n/a	LTP230	ltpFR	5	1	n/a	COMET	353	n/a	n/a	n/a	n/a	n/a	n/a	n/a
3235.134	n/a	RECOG_RESP	1617567	n/a	LTP230	ltpFR	5	1	n/a	COMET	353	n/a	n/a	n/a	n/a	n/a	n/a	n/a
3236.996	n/a	RECOG_CONF	1618498	n/a	LTP230	ltpFR	5	1	n/a	COMET	353	2	n/a	n/a	n/a	n/a	n/a	n/a
3238.738	n/a	RECOG_TARGET	1619369	n/a	LTP230	ltpFR	5	1	0	ANTEATER	26	3	1	n/a	n/a	n/a	n/a	n/a
3239.614	n/a	RECOG_RESP	1619807	n/a	LTP230	ltpFR	5	1	0	ANTEATER	26	n/a	1	n/a	n/a	n/a	n/a	n/a
3240.774	n/a	RECOG_CONF	1620387	n/a	LTP230	ltpFR	5	1	0	ANTEATER	26	3	1	n/a	n/a	n/a	n/a	n/a
3242.466	n/a	RECOG_TARGET	1621233	n/a	LTP230	ltpFR	5	1	-1	SHORTCAKE	1292	4	-1	n/a	n/a	n/a	n/a	n/a
3243.228	n/a	RECOG_RESP	1621614	n/a	LTP230	ltpFR	5	1	-1	SHORTCAKE	1292	n/a	-1	n/a	n/a	n/a	n/a	n/a
3244.286	n/a	RECOG_CONF	1622143	n/a	LTP230	ltpFR	5	1	-1	SHORTCAKE	1292	4	-1	n/a	n/a	n/a	n/a	n/a
3246.194	n/a	RECOG_TARGET	1623097	n/a	LTP230	ltpFR	5	1	0	BAY	102	5	0	n/a	n/a	n/a	n/a	n/a
3247.222	n/a	RECOG_RESP	1623611	n/a	LTP230	ltpFR	5	1	0	BAY	102	n/a	0	n/a	n/a	n/a	n/a	n/a
3248.266	n/a	RECOG_CONF	1624133	n/a	LTP230	ltpFR	5	1	0	BAY	102	5	0	n/a	n/a	n/a	n/a	n/a
3250.056	n/a	RECOG_TARGET	1625028	n/a	LTP230	ltpFR	5	1	1	NEST	945	1	0	n/a	n/a	n/a	n/a	n/a
3251.046	n/a	RECOG_RESP	1625523	n/a	LTP230	ltpFR	5	1	1	NEST	945	n/a	0	n/a	n/a	n/a	n/a	n/a
3252.792	n/a	RECOG_CONF	1626396	n/a	LTP230	ltpFR	5	1	1	NEST	945	1	0	n/a	n/a	n/a	n/a	n/a
3254.648	n/a	RECOG_TARGET	1627324	n/a	LTP230	ltpFR	5	1	-1	HOUSE	725	3	-1	n/a	n/a	n/a	n/a	n/a
3256.306	n/a	RECOG_RESP	1628153	n/a	LTP230	ltpFR	5	1	-1	HOUSE	725	n/a	-1	n/a	n/a	n/a	n/a	n/a
3257.608	n/a	RECOG_CONF	1628804	n/a	LTP230	ltpFR	5	1	-1	HOUSE	725	3	-1	n/a	n/a	n/a	n/a	n/a
3261.288	n/a	REC_START	1630644	n/a	LTP230	ltpFR	5	2	n/a	n/a	n/a	n/a	n/a	n/a	n/a	n/a	n/a	n/a
3261.322	n/a	RECOG_LURE	1630661	n/a	LTP230	ltpFR	5	2	n/a	BOXER	160	3	n/a	n/a	n/a	n/a	n/a	n/a
3263.188	n/a	RECOG_RESP	1631594	n/a	LTP230	ltpFR	5	2	n/a	BOXER	160	n/a	n/a	n/a	n/a	n/a	n/a	n/a
3264.44	n/a	RECOG_CONF	1632220	n/a	LTP230	ltpFR	5	2	n/a	BOXER	160	3	n/a	n/a	n/a	n/a	n/a	n/a
3266.198	n/a	RECOG_TARGET	1633099	n/a	LTP230	ltpFR	5	2	1	PRINCE	1124	3	1	n/a	n/a	n/a	n/a	n/a
3267.178	n/a	RECOG_RESP	1633589	n/a	LTP230	ltpFR	5	2	1	PRINCE	1124	n/a	1	n/a	n/a	n/a	n/a	n/a
3268.602	n/a	RECOG_CONF	1634301	n/a	LTP230	ltpFR	5	2	1	PRINCE	1124	3	1	n/a	n/a	n/a	n/a	n/a
3270.574	n/a	RECOG_TARGET	1635287	n/a	LTP230	ltpFR	5	2	1	DRESS	495	3	0	n/a	n/a	n/a	n/a	n/a
3271.678	n/a	RECOG_RESP	1635839	n/a	LTP230	ltpFR	5	2	1	DRESS	495	n/a	0	n/a	n/a	n/a	n/a	n/a
3272.806	n/a	RECOG_CONF	1636403	n/a	LTP230	ltpFR	5	2	1	DRESS	495	3	0	n/a	n/a	n/a	n/a	n/a
3274.636	n/a	RECOG_TARGET	1637318	n/a	LTP230	ltpFR	5	2	-1	FIREMAN	569	4	-1	n/a	n/a	n/a	n/a	n/a
3275.394	n/a	RECOG_RESP	1637697	n/a	LTP230	ltpFR	5	2	-1	FIREMAN	569	n/a	-1	n/a	n/a	n/a	n/a	n/a
3276.556	n/a	RECOG_CONF	1638278	n/a	LTP230	ltpFR	5	2	-1	FIREMAN	569	4	-1	n/a	n/a	n/a	n/a	n/a
3278.596	n/a	RECOG_TARGET	1639298	n/a	LTP230	ltpFR	5	2	1	KEY	773	3	0	n/a	n/a	n/a	n/a	n/a
3279.778	n/a	RECOG_RESP	1639889	n/a	LTP230	ltpFR	5	2	1	KEY	773	n/a	0	n/a	n/a	n/a	n/a	n/a
3281.228	n/a	RECOG_CONF	1640614	n/a	LTP230	ltpFR	5	2	1	KEY	773	3	0	n/a	n/a	n/a	n/a	n/a
3283.972	n/a	RECOG_LURE	1641986	n/a	LTP230	ltpFR	5	2	n/a	PERISCOPE	1050	3	n/a	n/a	n/a	n/a	n/a	n/a
3285.322	n/a	RECOG_RESP	1642661	n/a	LTP230	ltpFR	5	2	n/a	PERISCOPE	1050	n/a	n/a	n/a	n/a	n/a	n/a	n/a
3286.894	n/a	RECOG_CONF	1643447	n/a	LTP230	ltpFR	5	2	n/a	PERISCOPE	1050	3	n/a	n/a	n/a	n/a	n/a	n/a
3288.682	n/a	RECOG_TARGET	1644341	n/a	LTP230	ltpFR	5	2	1	LACE	792	4	0	n/a	n/a	n/a	n/a	n/a
3290.692	n/a	RECOG_RESP	1645346	n/a	LTP230	ltpFR	5	2	1	LACE	792	n/a	0	n/a	n/a	n/a	n/a	n/a
3291.884	n/a	RECOG_CONF	1645942	n/a	LTP230	ltpFR	5	2	1	LACE	792	4	0	n/a	n/a	n/a	n/a	n/a
3293.806	n/a	RECOG_TARGET	1646903	n/a	LTP230	ltpFR	5	2	1	COURT	391	5	0	n/a	n/a	n/a	n/a	n/a
3294.444	n/a	RECOG_RESP	1647222	n/a	LTP230	ltpFR	5	2	1	COURT	391	n/a	0	n/a	n/a	n/a	n/a	n/a
3295.47	n/a	RECOG_CONF	1647735	n/a	LTP230	ltpFR	5	2	1	COURT	391	5	0	n/a	n/a	n/a	n/a	n/a
3297.152	n/a	RECOG_TARGET	1648576	n/a	LTP230	ltpFR	5	2	1	BLACKBERRY	132	5	1	n/a	n/a	n/a	n/a	n/a
3298.71	n/a	RECOG_RESP	1649355	n/a	LTP230	ltpFR	5	2	1	BLACKBERRY	132	n/a	1	n/a	n/a	n/a	n/a	n/a
3299.946	n/a	RECOG_CONF	1649973	n/a	LTP230	ltpFR	5	2	1	BLACKBERRY	132	5	1	n/a	n/a	n/a	n/a	n/a
3301.778	n/a	RECOG_TARGET	1650889	n/a	LTP230	ltpFR	5	2	1	ANTENNA	28	5	0	n/a	n/a	n/a	n/a	n/a
3302.828	n/a	RECOG_RESP	1651414	n/a	LTP230	ltpFR	5	2	1	ANTENNA	28	n/a	0	n/a	n/a	n/a	n/a	n/a
3303.96	n/a	RECOG_CONF	1651980	n/a	LTP230	ltpFR	5	2	1	ANTENNA	28	5	0	n/a	n/a	n/a	n/a	n/a
3305.922	n/a	RECOG_TARGET	1652961	n/a	LTP230	ltpFR	5	2	1	TRICYCLE	1506	5	1	n/a	n/a	n/a	n/a	n/a
3306.732	n/a	RECOG_RESP	1653366	n/a	LTP230	ltpFR	5	2	1	TRICYCLE	1506	n/a	1	n/a	n/a	n/a	n/a	n/a
3307.816	n/a	RECOG_CONF	1653908	n/a	LTP230	ltpFR	5	2	1	TRICYCLE	1506	5	1	n/a	n/a	n/a	n/a	n/a
3309.932	n/a	RECOG_LURE	1654966	n/a	LTP230	ltpFR	5	2	n/a	ACTOR	5	2	n/a	n/a	n/a	n/a	n/a	n/a
3310.646	n/a	RECOG_RESP	1655323	n/a	LTP230	ltpFR	5	2	n/a	ACTOR	5	n/a	n/a	n/a	n/a	n/a	n/a	n/a
3311.97	n/a	RECOG_CONF	1655985	n/a	LTP230	ltpFR	5	2	n/a	ACTOR	5	2	n/a	n/a	n/a	n/a	n/a	n/a
3313.728	n/a	RECOG_TARGET	1656864	n/a	LTP230	ltpFR	5	2	0	STRAWBERRY	1391	4	0	n/a	n/a	n/a	n/a	n/a
3314.516	n/a	RECOG_RESP_VV	1657258	n/a	LTP230	ltpFR	5	2	0	STRAWBERRY	1391	n/a	0	n/a	n/a	n/a	n/a	n/a
3316.13	n/a	RECOG_RESP	1658065	n/a	LTP230	ltpFR	5	2	0	STRAWBERRY	1391	n/a	0	n/a	n/a	n/a	n/a	n/a
3317.178	n/a	RECOG_CONF	1658589	n/a	LTP230	ltpFR	5	2	0	STRAWBERRY	1391	4	0	n/a	n/a	n/a	n/a	n/a
3318.92	n/a	RECOG_TARGET	1659460	n/a	LTP230	ltpFR	5	2	0	WORKER	1621	5	1	n/a	n/a	n/a	n/a	n/a
3320.214	n/a	RECOG_RESP	1660107	n/a	LTP230	ltpFR	5	2	0	WORKER	1621	n/a	1	n/a	n/a	n/a	n/a	n/a
3321.226	n/a	RECOG_CONF	1660613	n/a	LTP230	ltpFR	5	2	0	WORKER	1621	5	1	n/a	n/a	n/a	n/a	n/a
3323.13	n/a	RECOG_TARGET	1661565	n/a	LTP230	ltpFR	5	2	1	PRESIDENT	1121	5	1	n/a	n/a	n/a	n/a	n/a
3323.792	n/a	RECOG_RESP	1661896	n/a	LTP230	ltpFR	5	2	1	PRESIDENT	1121	n/a	1	n/a	n/a	n/a	n/a	n/a
3325.048	n/a	RECOG_CONF	1662524	n/a	LTP230	ltpFR	5	2	1	PRESIDENT	1121	5	1	n/a	n/a	n/a	n/a	n/a
3327.258	n/a	RECOG_LURE	1663629	n/a	LTP230	ltpFR	5	2	n/a	CHEESE	289	3	n/a	n/a	n/a	n/a	n/a	n/a
3328.052	n/a	RECOG_RESP	1664026	n/a	LTP230	ltpFR	5	2	n/a	CHEESE	289	n/a	n/a	n/a	n/a	n/a	n/a	n/a
3329.062	n/a	RECOG_CONF	1664531	n/a	LTP230	ltpFR	5	2	n/a	CHEESE	289	3	n/a	n/a	n/a	n/a	n/a	n/a
3330.586	n/a	RECOG_LURE	1665293	n/a	LTP230	ltpFR	5	2	n/a	LIBRARY	816	3	n/a	n/a	n/a	n/a	n/a	n/a
3331.36	n/a	RECOG_RESP	1665680	n/a	LTP230	ltpFR	5	2	n/a	LIBRARY	816	n/a	n/a	n/a	n/a	n/a	n/a	n/a
3332.692	n/a	RECOG_CONF	1666346	n/a	LTP230	ltpFR	5	2	n/a	LIBRARY	816	3	n/a	n/a	n/a	n/a	n/a	n/a
3334.514	n/a	RECOG_TARGET	1667257	n/a	LTP230	ltpFR	5	2	0	WICK	1607	4	0	n/a	n/a	n/a	n/a	n/a
3335.314	n/a	RECOG_RESP	1667657	n/a	LTP230	ltpFR	5	2	0	WICK	1607	n/a	0	n/a	n/a	n/a	n/a	n/a
3336.48	n/a	RECOG_CONF	1668240	n/a	LTP230	ltpFR	5	2	0	WICK	1607	4	0	n/a	n/a	n/a	n/a	n/a
3338.292	n/a	RECOG_TARGET	1669146	n/a	LTP230	ltpFR	5	2	-1	BEAN	105	5	-1	n/a	n/a	n/a	n/a	n/a
3339.18	n/a	RECOG_RESP	1669590	n/a	LTP230	ltpFR	5	2	-1	BEAN	105	n/a	-1	n/a	n/a	n/a	n/a	n/a
3340.348	n/a	RECOG_CONF	1670174	n/a	LTP230	ltpFR	5	2	-1	BEAN	105	5	-1	n/a	n/a	n/a	n/a	n/a
3342.452	n/a	RECOG_TARGET	1671226	n/a	LTP230	ltpFR	5	2	1	FRUIT	610	4	1	n/a	n/a	n/a	n/a	n/a
3343.838	n/a	RECOG_RESP	1671919	n/a	LTP230	ltpFR	5	2	1	FRUIT	610	n/a	1	n/a	n/a	n/a	n/a	n/a
3345.21	n/a	RECOG_CONF	1672605	n/a	LTP230	ltpFR	5	2	1	FRUIT	610	4	1	n/a	n/a	n/a	n/a	n/a
3348.806	n/a	REC_START	1674403	n/a	LTP230	ltpFR	5	3	n/a	n/a	n/a	n/a	n/a	n/a	n/a	n/a	n/a	n/a
3348.842	n/a	RECOG_LURE	1674421	n/a	LTP230	ltpFR	5	3	n/a	MERMAID	887	3	n/a	n/a	n/a	n/a	n/a	n/a
3349.906	n/a	RECOG_RESP	1674953	n/a	LTP230	ltpFR	5	3	n/a	MERMAID	887	n/a	n/a	n/a	n/a	n/a	n/a	n/a
3350.974	n/a	RECOG_CONF	1675487	n/a	LTP230	ltpFR	5	3	n/a	MERMAID	887	3	n/a	n/a	n/a	n/a	n/a	n/a
3352.704	n/a	RECOG_TARGET	1676352	n/a	LTP230	ltpFR	5	3	0	ROOST	1208	3	1	n/a	n/a	n/a	n/a	n/a
3354.936	n/a	RECOG_RESP	1677468	n/a	LTP230	ltpFR	5	3	0	ROOST	1208	n/a	1	n/a	n/a	n/a	n/a	n/a
3356.19	n/a	RECOG_CONF	1678095	n/a	LTP230	ltpFR	5	3	0	ROOST	1208	3	1	n/a	n/a	n/a	n/a	n/a
3358.128	n/a	RECOG_LURE	1679064	n/a	LTP230	ltpFR	5	3	n/a	CHIP	303	4	n/a	n/a	n/a	n/a	n/a	n/a
3359.22	n/a	RECOG_RESP	1679610	n/a	LTP230	ltpFR	5	3	n/a	CHIP	303	n/a	n/a	n/a	n/a	n/a	n/a	n/a
3360.194	n/a	RECOG_CONF	1680097	n/a	LTP230	ltpFR	5	3	n/a	CHIP	303	4	n/a	n/a	n/a	n/a	n/a	n/a
3361.922	n/a	RECOG_LURE	1680961	n/a	LTP230	ltpFR	5	3	n/a	VAN	1548	4	n/a	n/a	n/a	n/a	n/a	n/a
3362.852	n/a	RECOG_RESP	1681426	n/a	LTP230	ltpFR	5	3	n/a	VAN	1548	n/a	n/a	n/a	n/a	n/a	n/a	n/a
3363.656	n/a	RECOG_CONF	1681828	n/a	LTP230	ltpFR	5	3	n/a	VAN	1548	4	n/a	n/a	n/a	n/a	n/a	n/a
3365.584	n/a	RECOG_TARGET	1682792	n/a	LTP230	ltpFR	5	3	0	PASTRY	1022	5	0	n/a	n/a	n/a	n/a	n/a
3366.302	n/a	RECOG_RESP	1683151	n/a	LTP230	ltpFR	5	3	0	PASTRY	1022	n/a	0	n/a	n/a	n/a	n/a	n/a
3367.28	n/a	RECOG_CONF	1683640	n/a	LTP230	ltpFR	5	3	0	PASTRY	1022	5	0	n/a	n/a	n/a	n/a	n/a
3369.196	n/a	RECOG_TARGET	1684598	n/a	LTP230	ltpFR	5	3	0	UNIFORM	1539	5	0	n/a	n/a	n/a	n/a	n/a
3370.184	n/a	RECOG_RESP	1685092	n/a	LTP230	ltpFR	5	3	0	UNIFORM	1539	n/a	0	n/a	n/a	n/a	n/a	n/a
3371.35	n/a	RECOG_CONF	1685675	n/a	LTP230	ltpFR	5	3	0	UNIFORM	1539	5	0	n/a	n/a	n/a	n/a	n/a
3373.19	n/a	RECOG_TARGET	1686595	n/a	LTP230	ltpFR	5	3	0	EYELASH	546	5	0	n/a	n/a	n/a	n/a	n/a
3374.122	n/a	RECOG_RESP	1687061	n/a	LTP230	ltpFR	5	3	0	EYELASH	546	n/a	0	n/a	n/a	n/a	n/a	n/a
3375.172	n/a	RECOG_CONF	1687586	n/a	LTP230	ltpFR	5	3	0	EYELASH	546	5	0	n/a	n/a	n/a	n/a	n/a
3377.052	n/a	RECOG_TARGET	1688526	n/a	LTP230	ltpFR	5	3	0	CHAIN	273	5	0	n/a	n/a	n/a	n/a	n/a
3379.252	n/a	RECOG_RESP	1689626	n/a	LTP230	ltpFR	5	3	0	CHAIN	273	n/a	0	n/a	n/a	n/a	n/a	n/a
3380.368	n/a	RECOG_CONF	1690184	n/a	LTP230	ltpFR	5	3	0	CHAIN	273	5	0	n/a	n/a	n/a	n/a	n/a
3382.31	n/a	RECOG_LURE	1691155	n/a	LTP230	ltpFR	5	3	n/a	EMPLOYER	532	3	n/a	n/a	n/a	n/a	n/a	n/a
3383.686	n/a	RECOG_RESP	1691843	n/a	LTP230	ltpFR	5	3	n/a	EMPLOYER	532	n/a	n/a	n/a	n/a	n/a	n/a	n/a
3384.744	n/a	RECOG_CONF	1692372	n/a	LTP230	ltpFR	5	3	n/a	EMPLOYER	532	3	n/a	n/a	n/a	n/a	n/a	n/a
3386.82	n/a	RECOG_TARGET	1693410	n/a	LTP230	ltpFR	5	3	1	FOX	598	4	2	n/a	n/a	n/a	n/a	n/a
3387.718	n/a	RECOG_RESP	1693859	n/a	LTP230	ltpFR	5	3	1	FOX	598	n/a	2	n/a	n/a	n/a	n/a	n/a
3388.61	n/a	RECOG_CONF	1694305	n/a	LTP230	ltpFR	5	3	1	FOX	598	4	2	n/a	n/a	n/a	n/a	n/a
3390.564	n/a	RECOG_TARGET	1695282	n/a	LTP230	ltpFR	5	3	1	CANARY	227	5	1	n/a	n/a	n/a	n/a	n/a
3391.808	n/a	RECOG_RESP	1695904	n/a	LTP230	ltpFR	5	3	1	CANARY	227	n/a	1	n/a	n/a	n/a	n/a	n/a
3392.858	n/a	RECOG_CONF	1696429	n/a	LTP230	ltpFR	5	3	1	CANARY	227	5	1	n/a	n/a	n/a	n/a	n/a
3395.174	n/a	RECOG_TARGET	1697587	n/a	LTP230	ltpFR	5	3	0	FLAG	573	5	1	n/a	n/a	n/a	n/a	n/a
3395.984	n/a	RECOG_RESP	1697992	n/a	LTP230	ltpFR	5	3	0	FLAG	573	n/a	1	n/a	n/a	n/a	n/a	n/a
3397.192	n/a	RECOG_CONF	1698596	n/a	LTP230	ltpFR	5	3	0	FLAG	573	5	1	n/a	n/a	n/a	n/a	n/a
3399.036	n/a	RECOG_TARGET	1699518	n/a	LTP230	ltpFR	5	3	1	HERB	704	5	0	n/a	n/a	n/a	n/a	n/a
3400.178	n/a	RECOG_RESP	1700089	n/a	LTP230	ltpFR	5	3	1	HERB	704	n/a	0	n/a	n/a	n/a	n/a	n/a
3402.58	n/a	RECOG_CONF	1701290	n/a	LTP230	ltpFR	5	3	1	HERB	704	5	0	n/a	n/a	n/a	n/a	n/a
3404.56	n/a	RECOG_TARGET	1702280	n/a	LTP230	ltpFR	5	3	-1	PITCHFORK	1078	5	-1	n/a	n/a	n/a	n/a	n/a
3409.04	n/a	RECOG_RESP	1704520	n/a	LTP230	ltpFR	5	3	-1	PITCHFORK	1078	n/a	-1	n/a	n/a	n/a	n/a	n/a
3410.086	n/a	RECOG_CONF	1705043	n/a	LTP230	ltpFR	5	3	-1	PITCHFORK	1078	5	-1	n/a	n/a	n/a	n/a	n/a
3411.882	n/a	RECOG_TARGET	1705941	n/a	LTP230	ltpFR	5	3	0	CITRUS	313	5	0	n/a	n/a	n/a	n/a	n/a
3412.606	n/a	RECOG_RESP	1706303	n/a	LTP230	ltpFR	5	3	0	CITRUS	313	n/a	0	n/a	n/a	n/a	n/a	n/a
3413.5	n/a	RECOG_CONF	1706750	n/a	LTP230	ltpFR	5	3	0	CITRUS	313	5	0	n/a	n/a	n/a	n/a	n/a
3415.378	n/a	RECOG_TARGET	1707689	n/a	LTP230	ltpFR	5	3	1	TULIP	1517	5	1	n/a	n/a	n/a	n/a	n/a
3416.454	n/a	RECOG_RESP	1708227	n/a	LTP230	ltpFR	5	3	1	TULIP	1517	n/a	1	n/a	n/a	n/a	n/a	n/a
3417.506	n/a	RECOG_CONF	1708753	n/a	LTP230	ltpFR	5	3	1	TULIP	1517	5	1	n/a	n/a	n/a	n/a	n/a
3419.338	n/a	RECOG_TARGET	1709669	n/a	LTP230	ltpFR	5	3	-1	WILDERNESS	1610	5	-1	n/a	n/a	n/a	n/a	n/a
3419.94	n/a	RECOG_RESP	1709970	n/a	LTP230	ltpFR	5	3	-1	WILDERNESS	1610	n/a	-1	n/a	n/a	n/a	n/a	n/a
3421.014	n/a	RECOG_CONF	1710507	n/a	LTP230	ltpFR	5	3	-1	WILDERNESS	1610	5	-1	n/a	n/a	n/a	n/a	n/a
3422.9	n/a	RECOG_TARGET	1711450	n/a	LTP230	ltpFR	5	3	0	BASEBALL	93	5	0	n/a	n/a	n/a	n/a	n/a
3425.354	n/a	RECOG_RESP	1712677	n/a	LTP230	ltpFR	5	3	0	BASEBALL	93	n/a	0	n/a	n/a	n/a	n/a	n/a
3426.412	n/a	RECOG_CONF	1713206	n/a	LTP230	ltpFR	5	3	0	BASEBALL	93	5	0	n/a	n/a	n/a	n/a	n/a
3428.358	n/a	RECOG_TARGET	1714179	n/a	LTP230	ltpFR	5	3	-1	COIN	343	5	-1	n/a	n/a	n/a	n/a	n/a
3429.1	n/a	RECOG_RESP	1714550	n/a	LTP230	ltpFR	5	3	-1	COIN	343	n/a	-1	n/a	n/a	n/a	n/a	n/a
3430.378	n/a	RECOG_CONF	1715189	n/a	LTP230	ltpFR	5	3	-1	COIN	343	5	-1	n/a	n/a	n/a	n/a	n/a
3432.186	n/a	RECOG_TARGET	1716093	n/a	LTP230	ltpFR	5	3	-1	ATTIRE	57	5	-1	n/a	n/a	n/a	n/a	n/a
3432.782	n/a	RECOG_RESP	1716391	n/a	LTP230	ltpFR	5	3	-1	ATTIRE	57	n/a	-1	n/a	n/a	n/a	n/a	n/a
3433.844	n/a	RECOG_CONF	1716922	n/a	LTP230	ltpFR	5	3	-1	ATTIRE	57	5	-1	n/a	n/a	n/a	n/a	n/a
3437.766	n/a	REC_START	1718883	n/a	LTP230	ltpFR	5	4	n/a	n/a	n/a	n/a	n/a	n/a	n/a	n/a	n/a	n/a
3437.794	n/a	RECOG_TARGET	1718897	n/a	LTP230	ltpFR	5	4	-1	BOOT	150	3	-1	n/a	n/a	n/a	n/a	n/a
3438.702	n/a	RECOG_RESP	1719351	n/a	LTP230	ltpFR	5	4	-1	BOOT	150	n/a	-1	n/a	n/a	n/a	n/a	n/a
3439.684	n/a	RECOG_CONF	1719842	n/a	LTP230	ltpFR	5	4	-1	BOOT	150	3	-1	n/a	n/a	n/a	n/a	n/a
3441.538	n/a	RECOG_LURE	1720769	n/a	LTP230	ltpFR	5	4	n/a	PLUMBER	1091	4	n/a	n/a	n/a	n/a	n/a	n/a
3442.382	n/a	RECOG_RESP	1721191	n/a	LTP230	ltpFR	5	4	n/a	PLUMBER	1091	n/a	n/a	n/a	n/a	n/a	n/a	n/a
3443.37	n/a	RECOG_CONF	1721685	n/a	LTP230	ltpFR	5	4	n/a	PLUMBER	1091	4	n/a	n/a	n/a	n/a	n/a	n/a
3445.366	n/a	RECOG_TARGET	1722683	n/a	LTP230	ltpFR	5	4	-1	FRANCE	601	5	-1	n/a	n/a	n/a	n/a	n/a
3446.112	n/a	RECOG_RESP	1723056	n/a	LTP230	ltpFR	5	4	-1	FRANCE	601	n/a	-1	n/a	n/a	n/a	n/a	n/a
3447.216	n/a	RECOG_CONF	1723608	n/a	LTP230	ltpFR	5	4	-1	FRANCE	601	5	-1	n/a	n/a	n/a	n/a	n/a
3449.194	n/a	RECOG_TARGET	1724597	n/a	LTP230	ltpFR	5	4	-1	TONGUE	1479	1	-1	n/a	n/a	n/a	n/a	n/a
3450.836	n/a	RECOG_RESP	1725418	n/a	LTP230	ltpFR	5	4	-1	TONGUE	1479	n/a	-1	n/a	n/a	n/a	n/a	n/a
3453.756	n/a	RECOG_CONF	1726878	n/a	LTP230	ltpFR	5	4	-1	TONGUE	1479	1	-1	n/a	n/a	n/a	n/a	n/a
3455.618	n/a	RECOG_TARGET	1727809	n/a	LTP230	ltpFR	5	4	-1	MUSHROOM	934	3	-1	n/a	n/a	n/a	n/a	n/a
3456.6	n/a	RECOG_RESP	1728300	n/a	LTP230	ltpFR	5	4	-1	MUSHROOM	934	n/a	-1	n/a	n/a	n/a	n/a	n/a
3457.796	n/a	RECOG_CONF	1728898	n/a	LTP230	ltpFR	5	4	-1	MUSHROOM	934	3	-1	n/a	n/a	n/a	n/a	n/a
3459.696	n/a	RECOG_TARGET	1729848	n/a	LTP230	ltpFR	5	4	-1	CORAL	378	5	-1	n/a	n/a	n/a	n/a	n/a
3460.52	n/a	RECOG_RESP	1730260	n/a	LTP230	ltpFR	5	4	-1	CORAL	378	n/a	-1	n/a	n/a	n/a	n/a	n/a
3461.616	n/a	RECOG_CONF	1730808	n/a	LTP230	ltpFR	5	4	-1	CORAL	378	5	-1	n/a	n/a	n/a	n/a	n/a
3463.872	n/a	RECOG_TARGET	1731936	n/a	LTP230	ltpFR	5	4	0	DIAL	457	5	0	n/a	n/a	n/a	n/a	n/a
3464.938	n/a	RECOG_RESP	1732469	n/a	LTP230	ltpFR	5	4	0	DIAL	457	n/a	0	n/a	n/a	n/a	n/a	n/a
3466.078	n/a	RECOG_CONF	1733039	n/a	LTP230	ltpFR	5	4	0	DIAL	457	5	0	n/a	n/a	n/a	n/a	n/a
3468.216	n/a	RECOG_TARGET	1734108	n/a	LTP230	ltpFR	5	4	1	JET	756	5	0	n/a	n/a	n/a	n/a	n/a
3468.856	n/a	RECOG_RESP	1734428	n/a	LTP230	ltpFR	5	4	1	JET	756	n/a	0	n/a	n/a	n/a	n/a	n/a
3469.95	n/a	RECOG_CONF	1734975	n/a	LTP230	ltpFR	5	4	1	JET	756	5	0	n/a	n/a	n/a	n/a	n/a
3471.76	n/a	RECOG_TARGET	1735880	n/a	LTP230	ltpFR	5	4	0	PAGE	1001	3	1	n/a	n/a	n/a	n/a	n/a
3472.902	n/a	RECOG_RESP	1736451	n/a	LTP230	ltpFR	5	4	0	PAGE	1001	n/a	1	n/a	n/a	n/a	n/a	n/a
3473.856	n/a	RECOG_CONF	1736928	n/a	LTP230	ltpFR	5	4	0	PAGE	1001	3	1	n/a	n/a	n/a	n/a	n/a
3475.554	n/a	RECOG_TARGET	1737777	n/a	LTP230	ltpFR	5	4	0	CREAM	402	5	0	n/a	n/a	n/a	n/a	n/a
3476.188	n/a	RECOG_RESP	1738094	n/a	LTP230	ltpFR	5	4	0	CREAM	402	n/a	0	n/a	n/a	n/a	n/a	n/a
3477.282	n/a	RECOG_CONF	1738641	n/a	LTP230	ltpFR	5	4	0	CREAM	402	5	0	n/a	n/a	n/a	n/a	n/a
3479.084	n/a	RECOG_LURE	1739542	n/a	LTP230	ltpFR	5	4	n/a	TANK	1432	4	n/a	n/a	n/a	n/a	n/a	n/a
3481.568	n/a	RECOG_RESP	1740784	n/a	LTP230	ltpFR	5	4	n/a	TANK	1432	n/a	n/a	n/a	n/a	n/a	n/a	n/a
3482.98	n/a	RECOG_CONF	1741490	n/a	LTP230	ltpFR	5	4	n/a	TANK	1432	4	n/a	n/a	n/a	n/a	n/a	n/a
3484.842	n/a	RECOG_TARGET	1742421	n/a	LTP230	ltpFR	5	4	1	KEEPER	769	5	1	n/a	n/a	n/a	n/a	n/a
3485.54	n/a	RECOG_RESP	1742770	n/a	LTP230	ltpFR	5	4	1	KEEPER	769	n/a	1	n/a	n/a	n/a	n/a	n/a
3486.756	n/a	RECOG_CONF	1743378	n/a	LTP230	ltpFR	5	4	1	KEEPER	769	5	1	n/a	n/a	n/a	n/a	n/a
3488.802	n/a	RECOG_TARGET	1744401	n/a	LTP230	ltpFR	5	4	-1	DOLL	481	5	-1	n/a	n/a	n/a	n/a	n/a
3490.228	n/a	RECOG_RESP	1745114	n/a	LTP230	ltpFR	5	4	-1	DOLL	481	n/a	-1	n/a	n/a	n/a	n/a	n/a
3491.53	n/a	RECOG_CONF	1745765	n/a	LTP230	ltpFR	5	4	-1	DOLL	481	5	-1	n/a	n/a	n/a	n/a	n/a
3493.262	n/a	RECOG_TARGET	1746631	n/a	LTP230	ltpFR	5	4	1	FIDDLE	561	5	1	n/a	n/a	n/a	n/a	n/a
3493.878	n/a	RECOG_RESP	1746939	n/a	LTP230	ltpFR	5	4	1	FIDDLE	561	n/a	1	n/a	n/a	n/a	n/a	n/a
3494.99	n/a	RECOG_CONF	1747495	n/a	LTP230	ltpFR	5	4	1	FIDDLE	561	5	1	n/a	n/a	n/a	n/a	n/a
3496.906	n/a	RECOG_LURE	1748453	n/a	LTP230	ltpFR	5	4	n/a	NEPTUNE	943	5	n/a	n/a	n/a	n/a	n/a	n/a
3497.794	n/a	RECOG_RESP	1748897	n/a	LTP230	ltpFR	5	4	n/a	NEPTUNE	943	n/a	n/a	n/a	n/a	n/a	n/a	n/a
3498.768	n/a	RECOG_CONF	1749384	n/a	LTP230	ltpFR	5	4	n/a	NEPTUNE	943	5	n/a	n/a	n/a	n/a	n/a	n/a
3500.6	n/a	RECOG_LURE	1750300	n/a	LTP230	ltpFR	5	4	n/a	SUSPECT	1415	4	n/a	n/a	n/a	n/a	n/a	n/a
3501.246	n/a	RECOG_RESP	1750623	n/a	LTP230	ltpFR	5	4	n/a	SUSPECT	1415	n/a	n/a	n/a	n/a	n/a	n/a	n/a
3502.246	n/a	RECOG_CONF	1751123	n/a	LTP230	ltpFR	5	4	n/a	SUSPECT	1415	4	n/a	n/a	n/a	n/a	n/a	n/a
3503.93	n/a	RECOG_TARGET	1751965	n/a	LTP230	ltpFR	5	4	1	AUTOMOBILE	62	5	0	n/a	n/a	n/a	n/a	n/a
3505.418	n/a	RECOG_RESP	1752709	n/a	LTP230	ltpFR	5	4	1	AUTOMOBILE	62	n/a	0	n/a	n/a	n/a	n/a	n/a
3506.276	n/a	RECOG_CONF	1753138	n/a	LTP230	ltpFR	5	4	1	AUTOMOBILE	62	5	0	n/a	n/a	n/a	n/a	n/a
3508.09	n/a	RECOG_TARGET	1754045	n/a	LTP230	ltpFR	5	4	1	MULE	931	5	1	n/a	n/a	n/a	n/a	n/a
3508.864	n/a	RECOG_RESP	1754432	n/a	LTP230	ltpFR	5	4	1	MULE	931	n/a	1	n/a	n/a	n/a	n/a	n/a
3509.614	n/a	RECOG_CONF	1754807	n/a	LTP230	ltpFR	5	4	1	MULE	931	5	1	n/a	n/a	n/a	n/a	n/a
3511.502	n/a	RECOG_TARGET	1755751	n/a	LTP230	ltpFR	5	4	0	STOMACH	1384	5	1	n/a	n/a	n/a	n/a	n/a
3512.04	n/a	RECOG_RESP	1756020	n/a	LTP230	ltpFR	5	4	0	STOMACH	1384	n/a	1	n/a	n/a	n/a	n/a	n/a
3513.072	n/a	RECOG_CONF	1756536	n/a	LTP230	ltpFR	5	4	0	STOMACH	1384	5	1	n/a	n/a	n/a	n/a	n/a
3514.814	n/a	RECOG_LURE	1757407	n/a	LTP230	ltpFR	5	4	n/a	MOB	904	3	n/a	n/a	n/a	n/a	n/a	n/a
3518.648	n/a	RECOG_CONF	1759324	n/a	LTP230	ltpFR	5	4	n/a	MOB	904	3	n/a	n/a	n/a	n/a	n/a	n/a
3532.184	n/a	REC_START	1766092	n/a	LTP230	ltpFR	5	5	n/a	n/a	n/a	n/a	n/a	n/a	n/a	n/a	n/a	n/a
3532.222	n/a	RECOG_TARGET	1766111	n/a	LTP230	ltpFR	5	5	0	ANCHOR	21	5	0	n/a	n/a	n/a	n/a	n/a
3533.05	n/a	RECOG_RESP	1766525	n/a	LTP230	ltpFR	5	5	0	ANCHOR	21	n/a	0	n/a	n/a	n/a	n/a	n/a
3534.234	n/a	RECOG_CONF	1767117	n/a	LTP230	ltpFR	5	5	0	ANCHOR	21	5	0	n/a	n/a	n/a	n/a	n/a
3535.932	n/a	RECOG_TARGET	1767966	n/a	LTP230	ltpFR	5	5	-1	ANGEL	22	3	-1	n/a	n/a	n/a	n/a	n/a
3536.644	n/a	RECOG_RESP	1768322	n/a	LTP230	ltpFR	5	5	-1	ANGEL	22	n/a	-1	n/a	n/a	n/a	n/a	n/a
3537.56	n/a	RECOG_CONF	1768780	n/a	LTP230	ltpFR	5	5	-1	ANGEL	22	3	-1	n/a	n/a	n/a	n/a	n/a
3539.46	n/a	RECOG_TARGET	1769730	n/a	LTP230	ltpFR	5	5	0	CUSTOMER	430	3	1	n/a	n/a	n/a	n/a	n/a
3540.106	n/a	RECOG_RESP	1770053	n/a	LTP230	ltpFR	5	5	0	CUSTOMER	430	n/a	1	n/a	n/a	n/a	n/a	n/a
3540.938	n/a	RECOG_CONF	1770469	n/a	LTP230	ltpFR	5	5	0	CUSTOMER	430	3	1	n/a	n/a	n/a	n/a	n/a
3542.788	n/a	RECOG_TARGET	1771394	n/a	LTP230	ltpFR	5	5	0	YOLK	1633	3	1	n/a	n/a	n/a	n/a	n/a
3543.57	n/a	RECOG_RESP	1771785	n/a	LTP230	ltpFR	5	5	0	YOLK	1633	n/a	1	n/a	n/a	n/a	n/a	n/a
3544.574	n/a	RECOG_CONF	1772287	n/a	LTP230	ltpFR	5	5	0	YOLK	1633	3	1	n/a	n/a	n/a	n/a	n/a
3546.316	n/a	RECOG_TARGET	1773158	n/a	LTP230	ltpFR	5	5	0	NEUTRON	947	4	0	n/a	n/a	n/a	n/a	n/a
3547.156	n/a	RECOG_RESP	1773578	n/a	LTP230	ltpFR	5	5	0	NEUTRON	947	n/a	0	n/a	n/a	n/a	n/a	n/a
3547.992	n/a	RECOG_CONF	1773996	n/a	LTP230	ltpFR	5	5	0	NEUTRON	947	4	0	n/a	n/a	n/a	n/a	n/a
3549.812	n/a	RECOG_TARGET	1774906	n/a	LTP230	ltpFR	5	5	-1	BOULDER	155	4	-1	n/a	n/a	n/a	n/a	n/a
3551.058	n/a	RECOG_RESP	1775529	n/a	LTP230	ltpFR	5	5	-1	BOULDER	155	n/a	-1	n/a	n/a	n/a	n/a	n/a
3551.916	n/a	RECOG_CONF	1775958	n/a	LTP230	ltpFR	5	5	-1	BOULDER	155	4	-1	n/a	n/a	n/a	n/a	n/a
3553.79	n/a	RECOG_TARGET	1776895	n/a	LTP230	ltpFR	5	5	0	THORN	1459	5	1	n/a	n/a	n/a	n/a	n/a
3554.448	n/a	RECOG_RESP	1777224	n/a	LTP230	ltpFR	5	5	0	THORN	1459	n/a	1	n/a	n/a	n/a	n/a	n/a
3555.388	n/a	RECOG_CONF	1777694	n/a	LTP230	ltpFR	5	5	0	THORN	1459	5	1	n/a	n/a	n/a	n/a	n/a
3557.218	n/a	RECOG_TARGET	1778609	n/a	LTP230	ltpFR	5	5	0	TIMBER	1469	5	1	n/a	n/a	n/a	n/a	n/a
3557.774	n/a	RECOG_RESP	1778887	n/a	LTP230	ltpFR	5	5	0	TIMBER	1469	n/a	1	n/a	n/a	n/a	n/a	n/a
3558.726	n/a	RECOG_CONF	1779363	n/a	LTP230	ltpFR	5	5	0	TIMBER	1469	5	1	n/a	n/a	n/a	n/a	n/a
3560.678	n/a	RECOG_TARGET	1780339	n/a	LTP230	ltpFR	5	5	1	VINE	1568	5	1	n/a	n/a	n/a	n/a	n/a
3561.304	n/a	RECOG_RESP	1780652	n/a	LTP230	ltpFR	5	5	1	VINE	1568	n/a	1	n/a	n/a	n/a	n/a	n/a
3562.3	n/a	RECOG_CONF	1781150	n/a	LTP230	ltpFR	5	5	1	VINE	1568	5	1	n/a	n/a	n/a	n/a	n/a
3564.722	n/a	RECOG_TARGET	1782361	n/a	LTP230	ltpFR	5	5	-1	TOY	1492	5	-1	n/a	n/a	n/a	n/a	n/a
3565.152	n/a	RECOG_RESP	1782576	n/a	LTP230	ltpFR	5	5	-1	TOY	1492	n/a	-1	n/a	n/a	n/a	n/a	n/a
3566.28	n/a	RECOG_CONF	1783140	n/a	LTP230	ltpFR	5	5	-1	TOY	1492	5	-1	n/a	n/a	n/a	n/a	n/a
3568.3	n/a	RECOG_TARGET	1784150	n/a	LTP230	ltpFR	5	5	1	COMMANDER	354	5	1	n/a	n/a	n/a	n/a	n/a
3568.882	n/a	RECOG_RESP	1784441	n/a	LTP230	ltpFR	5	5	1	COMMANDER	354	n/a	1	n/a	n/a	n/a	n/a	n/a
3569.862	n/a	RECOG_CONF	1784931	n/a	LTP230	ltpFR	5	5	1	COMMANDER	354	5	1	n/a	n/a	n/a	n/a	n/a
3571.712	n/a	RECOG_TARGET	1785856	n/a	LTP230	ltpFR	5	5	1	BUYER	208	5	1	n/a	n/a	n/a	n/a	n/a
3572.284	n/a	RECOG_RESP	1786142	n/a	LTP230	ltpFR	5	5	1	BUYER	208	n/a	1	n/a	n/a	n/a	n/a	n/a
3573.16	n/a	RECOG_CONF	1786580	n/a	LTP230	ltpFR	5	5	1	BUYER	208	5	1	n/a	n/a	n/a	n/a	n/a
3575.14	n/a	RECOG_TARGET	1787570	n/a	LTP230	ltpFR	5	5	1	CYCLONE	431	5	0	n/a	n/a	n/a	n/a	n/a
3575.856	n/a	RECOG_RESP	1787928	n/a	LTP230	ltpFR	5	5	1	CYCLONE	431	n/a	0	n/a	n/a	n/a	n/a	n/a
3576.736	n/a	RECOG_CONF	1788368	n/a	LTP230	ltpFR	5	5	1	CYCLONE	431	5	0	n/a	n/a	n/a	n/a	n/a
3579.966	n/a	RECOG_LURE	1789983	n/a	LTP230	ltpFR	5	5	n/a	SHEARS	1276	5	n/a	n/a	n/a	n/a	n/a	n/a
3581.362	n/a	RECOG_RESP	1790681	n/a	LTP230	ltpFR	5	5	n/a	SHEARS	1276	n/a	n/a	n/a	n/a	n/a	n/a	n/a
3582.206	n/a	RECOG_CONF	1791103	n/a	LTP230	ltpFR	5	5	n/a	SHEARS	1276	5	n/a	n/a	n/a	n/a	n/a	n/a
3584.128	n/a	RECOG_TARGET	1792064	n/a	LTP230	ltpFR	5	5	1	COD	340	5	0	n/a	n/a	n/a	n/a	n/a
3584.772	n/a	RECOG_RESP	1792386	n/a	LTP230	ltpFR	5	5	1	COD	340	n/a	0	n/a	n/a	n/a	n/a	n/a
3585.652	n/a	RECOG_CONF	1792826	n/a	LTP230	ltpFR	5	5	1	COD	340	5	0	n/a	n/a	n/a	n/a	n/a
3587.722	n/a	RECOG_TARGET	1793861	n/a	LTP230	ltpFR	5	5	0	TIE	1466	2	1	n/a	n/a	n/a	n/a	n/a
3588.998	n/a	RECOG_RESP	1794499	n/a	LTP230	ltpFR	5	5	0	TIE	1466	n/a	1	n/a	n/a	n/a	n/a	n/a
3590.034	n/a	RECOG_CONF	1795017	n/a	LTP230	ltpFR	5	5	0	TIE	1466	2	1	n/a	n/a	n/a	n/a	n/a
3591.9	n/a	RECOG_TARGET	1795950	n/a	LTP230	ltpFR	5	5	1	LID	817	3	0	n/a	n/a	n/a	n/a	n/a
3595.616	n/a	RECOG_RESP	1797808	n/a	LTP230	ltpFR	5	5	1	LID	817	n/a	0	n/a	n/a	n/a	n/a	n/a
3596.566	n/a	RECOG_CONF	1798283	n/a	LTP230	ltpFR	5	5	1	LID	817	3	0	n/a	n/a	n/a	n/a	n/a
3598.456	n/a	RECOG_LURE	1799228	n/a	LTP230	ltpFR	5	5	n/a	ROBBER	1197	3	n/a	n/a	n/a	n/a	n/a	n/a
3599.582	n/a	RECOG_RESP	1799791	n/a	LTP230	ltpFR	5	5	n/a	ROBBER	1197	n/a	n/a	n/a	n/a	n/a	n/a	n/a
3600.462	n/a	RECOG_CONF	1800231	n/a	LTP230	ltpFR	5	5	n/a	ROBBER	1197	3	n/a	n/a	n/a	n/a	n/a	n/a
3602.368	n/a	RECOG_TARGET	1801184	n/a	LTP230	ltpFR	5	5	0	PECAN	1036	4	0	n/a	n/a	n/a	n/a	n/a
3603.482	n/a	RECOG_RESP	1801741	n/a	LTP230	ltpFR	5	5	0	PECAN	1036	n/a	0	n/a	n/a	n/a	n/a	n/a
3604.534	n/a	RECOG_CONF	1802267	n/a	LTP230	ltpFR	5	5	0	PECAN	1036	4	0	n/a	n/a	n/a	n/a	n/a
3606.478	n/a	RECOG_TARGET	1803239	n/a	LTP230	ltpFR	5	5	1	TYPEWRITER	1531	5	0	n/a	n/a	n/a	n/a	n/a
3607.41	n/a	RECOG_RESP	1803705	n/a	LTP230	ltpFR	5	5	1	TYPEWRITER	1531	n/a	0	n/a	n/a	n/a	n/a	n/a
3608.186	n/a	RECOG_CONF	1804093	n/a	LTP230	ltpFR	5	5	1	TYPEWRITER	1531	5	0	n/a	n/a	n/a	n/a	n/a
3611.594	n/a	REC_START	1805797	n/a	LTP230	ltpFR	5	6	n/a	n/a	n/a	n/a	n/a	n/a	n/a	n/a	n/a	n/a
3611.62	n/a	RECOG_TARGET	1805810	n/a	LTP230	ltpFR	5	6	1	COBBLER	335	5	0	n/a	n/a	n/a	n/a	n/a
3612.288	n/a	RECOG_RESP	1806144	n/a	LTP230	ltpFR	5	6	1	COBBLER	335	n/a	0	n/a	n/a	n/a	n/a	n/a
3613.224	n/a	RECOG_CONF	1806612	n/a	LTP230	ltpFR	5	6	1	COBBLER	335	5	0	n/a	n/a	n/a	n/a	n/a
3615.016	n/a	RECOG_TARGET	1807508	n/a	LTP230	ltpFR	5	6	-1	CONTINENT	367	4	-1	n/a	n/a	n/a	n/a	n/a
3615.968	n/a	RECOG_RESP	1807984	n/a	LTP230	ltpFR	5	6	-1	CONTINENT	367	n/a	-1	n/a	n/a	n/a	n/a	n/a
3616.978	n/a	RECOG_CONF	1808489	n/a	LTP230	ltpFR	5	6	-1	CONTINENT	367	4	-1	n/a	n/a	n/a	n/a	n/a
3618.694	n/a	RECOG_TARGET	1809347	n/a	LTP230	ltpFR	5	6	1	ORCHID	982	5	1	n/a	n/a	n/a	n/a	n/a
3619.284	n/a	RECOG_RESP	1809642	n/a	LTP230	ltpFR	5	6	1	ORCHID	982	n/a	1	n/a	n/a	n/a	n/a	n/a
3620.172	n/a	RECOG_CONF	1810086	n/a	LTP230	ltpFR	5	6	1	ORCHID	982	5	1	n/a	n/a	n/a	n/a	n/a
3622.022	n/a	RECOG_TARGET	1811011	n/a	LTP230	ltpFR	5	6	0	PIGEON	1065	3	1	n/a	n/a	n/a	n/a	n/a
3622.506	n/a	RECOG_RESP	1811253	n/a	LTP230	ltpFR	5	6	0	PIGEON	1065	n/a	1	n/a	n/a	n/a	n/a	n/a
3623.88	n/a	RECOG_CONF	1811940	n/a	LTP230	ltpFR	5	6	0	PIGEON	1065	3	1	n/a	n/a	n/a	n/a	n/a
3625.65	n/a	RECOG_LURE	1812825	n/a	LTP230	ltpFR	5	6	n/a	TOAST	1471	1	n/a	n/a	n/a	n/a	n/a	n/a
3626.466	n/a	RECOG_RESP_VV	1813233	n/a	LTP230	ltpFR	5	6	n/a	TOAST	1471	n/a	n/a	n/a	n/a	n/a	n/a	n/a
3627.216	n/a	RECOG_RESP_VV	1813608	n/a	LTP230	ltpFR	5	6	n/a	TOAST	1471	5	n/a	n/a	n/a	n/a	n/a	n/a
3628.21	n/a	RECOG_RESP	1814105	n/a	LTP230	ltpFR	5	6	n/a	TOAST	1471	n/a	n/a	n/a	n/a	n/a	n/a	n/a
3630.166	n/a	RECOG_CONF	1815083	n/a	LTP230	ltpFR	5	6	n/a	TOAST	1471	1	n/a	n/a	n/a	n/a	n/a	n/a
3632.006	n/a	RECOG_TARGET	1816003	n/a	LTP230	ltpFR	5	6	0	RACK	1154	4	1	n/a	n/a	n/a	n/a	n/a
3633.09	n/a	RECOG_RESP	1816545	n/a	LTP230	ltpFR	5	6	0	RACK	1154	n/a	1	n/a	n/a	n/a	n/a	n/a
3634.066	n/a	RECOG_CONF	1817033	n/a	LTP230	ltpFR	5	6	0	RACK	1154	4	1	n/a	n/a	n/a	n/a	n/a
3635.968	n/a	RECOG_TARGET	1817984	n/a	LTP230	ltpFR	5	6	0	BULLETIN	195	3	1	n/a	n/a	n/a	n/a	n/a
3637.092	n/a	RECOG_RESP	1818546	n/a	LTP230	ltpFR	5	6	0	BULLETIN	195	n/a	1	n/a	n/a	n/a	n/a	n/a
3638.02	n/a	RECOG_CONF	1819010	n/a	LTP230	ltpFR	5	6	0	BULLETIN	195	3	1	n/a	n/a	n/a	n/a	n/a
3639.844	n/a	RECOG_LURE	1819922	n/a	LTP230	ltpFR	5	6	n/a	LAMB	797	3	n/a	n/a	n/a	n/a	n/a	n/a
3640.586	n/a	RECOG_RESP	1820293	n/a	LTP230	ltpFR	5	6	n/a	LAMB	797	n/a	n/a	n/a	n/a	n/a	n/a	n/a
3641.46	n/a	RECOG_CONF	1820730	n/a	LTP230	ltpFR	5	6	n/a	LAMB	797	3	n/a	n/a	n/a	n/a	n/a	n/a
3643.274	n/a	RECOG_TARGET	1821637	n/a	LTP230	ltpFR	5	6	-1	CHAIRPERSON	275	5	-1	n/a	n/a	n/a	n/a	n/a
3644.27	n/a	RECOG_RESP	1822135	n/a	LTP230	ltpFR	5	6	-1	CHAIRPERSON	275	n/a	-1	n/a	n/a	n/a	n/a	n/a
3645.176	n/a	RECOG_CONF	1822588	n/a	LTP230	ltpFR	5	6	-1	CHAIRPERSON	275	5	-1	n/a	n/a	n/a	n/a	n/a
3647.068	n/a	RECOG_TARGET	1823534	n/a	LTP230	ltpFR	5	6	-1	NOSE	957	4	-1	n/a	n/a	n/a	n/a	n/a
3647.802	n/a	RECOG_RESP	1823901	n/a	LTP230	ltpFR	5	6	-1	NOSE	957	n/a	-1	n/a	n/a	n/a	n/a	n/a
3648.766	n/a	RECOG_CONF	1824383	n/a	LTP230	ltpFR	5	6	-1	NOSE	957	4	-1	n/a	n/a	n/a	n/a	n/a
3650.646	n/a	RECOG_TARGET	1825323	n/a	LTP230	ltpFR	5	6	1	TEAPOT	1442	5	0	n/a	n/a	n/a	n/a	n/a
3651.22	n/a	RECOG_RESP	1825610	n/a	LTP230	ltpFR	5	6	1	TEAPOT	1442	n/a	0	n/a	n/a	n/a	n/a	n/a
3652.236	n/a	RECOG_CONF	1826118	n/a	LTP230	ltpFR	5	6	1	TEAPOT	1442	5	0	n/a	n/a	n/a	n/a	n/a
3653.974	n/a	RECOG_TARGET	1826987	n/a	LTP230	ltpFR	5	6	0	CAGE	218	3	0	n/a	n/a	n/a	n/a	n/a
3655.026	n/a	RECOG_RESP	1827513	n/a	LTP230	ltpFR	5	6	0	CAGE	218	n/a	0	n/a	n/a	n/a	n/a	n/a
3656.066	n/a	RECOG_CONF	1828033	n/a	LTP230	ltpFR	5	6	0	CAGE	218	3	0	n/a	n/a	n/a	n/a	n/a
3657.87	n/a	RECOG_TARGET	1828935	n/a	LTP230	ltpFR	5	6	-1	BINDER	127	3	-1	n/a	n/a	n/a	n/a	n/a
3658.72	n/a	RECOG_RESP	1829360	n/a	LTP230	ltpFR	5	6	-1	BINDER	127	n/a	-1	n/a	n/a	n/a	n/a	n/a
3659.734	n/a	RECOG_CONF	1829867	n/a	LTP230	ltpFR	5	6	-1	BINDER	127	3	-1	n/a	n/a	n/a	n/a	n/a
3661.464	n/a	RECOG_TARGET	1830732	n/a	LTP230	ltpFR	5	6	0	BULL	193	3	1	n/a	n/a	n/a	n/a	n/a
3662.192	n/a	RECOG_RESP	1831096	n/a	LTP230	ltpFR	5	6	0	BULL	193	n/a	1	n/a	n/a	n/a	n/a	n/a
3663.27	n/a	RECOG_CONF	1831635	n/a	LTP230	ltpFR	5	6	0	BULL	193	3	1	n/a	n/a	n/a	n/a	n/a
3665.258	n/a	RECOG_TARGET	1832629	n/a	LTP230	ltpFR	5	6	-1	ARTICLE	42	2	-1	n/a	n/a	n/a	n/a	n/a
3667.47	n/a	RECOG_RESP	1833735	n/a	LTP230	ltpFR	5	6	-1	ARTICLE	42	n/a	-1	n/a	n/a	n/a	n/a	n/a
3668.612	n/a	RECOG_CONF	1834306	n/a	LTP230	ltpFR	5	6	-1	ARTICLE	42	2	-1	n/a	n/a	n/a	n/a	n/a
3670.366	n/a	RECOG_TARGET	1835183	n/a	LTP230	ltpFR	5	6	0	BIRD	129	5	1	n/a	n/a	n/a	n/a	n/a
3672.324	n/a	RECOG_RESP	1836162	n/a	LTP230	ltpFR	5	6	0	BIRD	129	n/a	1	n/a	n/a	n/a	n/a	n/a
3673.988	n/a	RECOG_CONF	1836994	n/a	LTP230	ltpFR	5	6	0	BIRD	129	5	1	n/a	n/a	n/a	n/a	n/a
3675.792	n/a	RECOG_TARGET	1837896	n/a	LTP230	ltpFR	5	6	-1	VET	1560	5	-1	n/a	n/a	n/a	n/a	n/a
3676.46	n/a	RECOG_RESP	1838230	n/a	LTP230	ltpFR	5	6	-1	VET	1560	n/a	-1	n/a	n/a	n/a	n/a	n/a
3677.306	n/a	RECOG_CONF	1838653	n/a	LTP230	ltpFR	5	6	-1	VET	1560	5	-1	n/a	n/a	n/a	n/a	n/a
3679.088	n/a	RECOG_LURE	1839544	n/a	LTP230	ltpFR	5	6	n/a	MARS	873	1	n/a	n/a	n/a	n/a	n/a	n/a
3679.9	n/a	RECOG_RESP	1839950	n/a	LTP230	ltpFR	5	6	n/a	MARS	873	n/a	n/a	n/a	n/a	n/a	n/a	n/a
3681.76	n/a	RECOG_CONF	1840880	n/a	LTP230	ltpFR	5	6	n/a	MARS	873	1	n/a	n/a	n/a	n/a	n/a	n/a
3683.614	n/a	RECOG_TARGET	1841807	n/a	LTP230	ltpFR	5	6	-1	PIER	1063	5	-1	n/a	n/a	n/a	n/a	n/a
3684.426	n/a	RECOG_RESP	1842213	n/a	LTP230	ltpFR	5	6	-1	PIER	1063	n/a	-1	n/a	n/a	n/a	n/a	n/a
3685.334	n/a	RECOG_CONF	1842667	n/a	LTP230	ltpFR	5	6	-1	PIER	1063	5	-1	n/a	n/a	n/a	n/a	n/a
3687.044	n/a	RECOG_LURE	1843522	n/a	LTP230	ltpFR	5	6	n/a	COLLEGE	346	4	n/a	n/a	n/a	n/a	n/a	n/a
3688.708	n/a	RECOG_RESP_VV	1844354	n/a	LTP230	ltpFR	5	6	n/a	COLLEGE	346	n/a	n/a	n/a	n/a	n/a	n/a	n/a
3689.582	n/a	RECOG_RESP	1844791	n/a	LTP230	ltpFR	5	6	n/a	COLLEGE	346	n/a	n/a	n/a	n/a	n/a	n/a	n/a
3690.51	n/a	RECOG_CONF	1845255	n/a	LTP230	ltpFR	5	6	n/a	COLLEGE	346	4	n/a	n/a	n/a	n/a	n/a	n/a
3694.382	n/a	REC_START	1847191	n/a	LTP230	ltpFR	5	7	n/a	n/a	n/a	n/a	n/a	n/a	n/a	n/a	n/a	n/a
3694.414	n/a	RECOG_TARGET	1847207	n/a	LTP230	ltpFR	5	7	1	PLUM	1090	5	1	n/a	n/a	n/a	n/a	n/a
3695.188	n/a	RECOG_RESP	1847594	n/a	LTP230	ltpFR	5	7	1	PLUM	1090	n/a	1	n/a	n/a	n/a	n/a	n/a
3698.702	n/a	RECOG_CONF	1849351	n/a	LTP230	ltpFR	5	7	1	PLUM	1090	5	1	n/a	n/a	n/a	n/a	n/a
3700.672	n/a	RECOG_LURE	1850336	n/a	LTP230	ltpFR	5	7	n/a	LETTER	813	4	n/a	n/a	n/a	n/a	n/a	n/a
3702.052	n/a	RECOG_RESP_VV	1851026	n/a	LTP230	ltpFR	5	7	n/a	LETTER	813	n/a	n/a	n/a	n/a	n/a	n/a	n/a
3702.95	n/a	RECOG_RESP	1851475	n/a	LTP230	ltpFR	5	7	n/a	LETTER	813	n/a	n/a	n/a	n/a	n/a	n/a	n/a
3703.892	n/a	RECOG_CONF	1851946	n/a	LTP230	ltpFR	5	7	n/a	LETTER	813	4	n/a	n/a	n/a	n/a	n/a	n/a
3705.78	n/a	RECOG_TARGET	1852890	n/a	LTP230	ltpFR	5	7	1	RAIL	1161	4	0	n/a	n/a	n/a	n/a	n/a
3706.802	n/a	RECOG_RESP	1853401	n/a	LTP230	ltpFR	5	7	1	RAIL	1161	n/a	0	n/a	n/a	n/a	n/a	n/a
3707.692	n/a	RECOG_CONF	1853846	n/a	LTP230	ltpFR	5	7	1	RAIL	1161	4	0	n/a	n/a	n/a	n/a	n/a
3709.542	n/a	RECOG_TARGET	1854771	n/a	LTP230	ltpFR	5	7	1	SEAGULL	1261	4	1	n/a	n/a	n/a	n/a	n/a
3710.722	n/a	RECOG_RESP	1855361	n/a	LTP230	ltpFR	5	7	1	SEAGULL	1261	n/a	1	n/a	n/a	n/a	n/a	n/a
3711.538	n/a	RECOG_CONF	1855769	n/a	LTP230	ltpFR	5	7	1	SEAGULL	1261	4	1	n/a	n/a	n/a	n/a	n/a
3713.536	n/a	RECOG_TARGET	1856768	n/a	LTP230	ltpFR	5	7	1	TUNA	1518	4	0	n/a	n/a	n/a	n/a	n/a
3714.164	n/a	RECOG_RESP	1857082	n/a	LTP230	ltpFR	5	7	1	TUNA	1518	n/a	0	n/a	n/a	n/a	n/a	n/a
3715.022	n/a	RECOG_CONF	1857511	n/a	LTP230	ltpFR	5	7	1	TUNA	1518	4	0	n/a	n/a	n/a	n/a	n/a
3716.814	n/a	RECOG_TARGET	1858407	n/a	LTP230	ltpFR	5	7	0	RIVER	1194	5	1	n/a	n/a	n/a	n/a	n/a
3717.56	n/a	RECOG_RESP	1858780	n/a	LTP230	ltpFR	5	7	0	RIVER	1194	n/a	1	n/a	n/a	n/a	n/a	n/a
3718.502	n/a	RECOG_CONF	1859251	n/a	LTP230	ltpFR	5	7	0	RIVER	1194	5	1	n/a	n/a	n/a	n/a	n/a
3720.458	n/a	RECOG_LURE	1860229	n/a	LTP230	ltpFR	5	7	n/a	ROAD	1196	3	n/a	n/a	n/a	n/a	n/a	n/a
3721.204	n/a	RECOG_RESP	1860602	n/a	LTP230	ltpFR	5	7	n/a	ROAD	1196	n/a	n/a	n/a	n/a	n/a	n/a	n/a
3722.402	n/a	RECOG_CONF	1861201	n/a	LTP230	ltpFR	5	7	n/a	ROAD	1196	3	n/a	n/a	n/a	n/a	n/a	n/a
3724.186	n/a	RECOG_TARGET	1862093	n/a	LTP230	ltpFR	5	7	0	EAR	513	3	0	n/a	n/a	n/a	n/a	n/a
3725.166	n/a	RECOG_RESP	1862583	n/a	LTP230	ltpFR	5	7	0	EAR	513	n/a	0	n/a	n/a	n/a	n/a	n/a
3726.116	n/a	RECOG_CONF	1863058	n/a	LTP230	ltpFR	5	7	0	EAR	513	3	0	n/a	n/a	n/a	n/a	n/a
3727.932	n/a	RECOG_TARGET	1863966	n/a	LTP230	ltpFR	5	7	1	CENT	270	4	0	n/a	n/a	n/a	n/a	n/a
3728.692	n/a	RECOG_RESP	1864346	n/a	LTP230	ltpFR	5	7	1	CENT	270	n/a	0	n/a	n/a	n/a	n/a	n/a
3729.568	n/a	RECOG_CONF	1864784	n/a	LTP230	ltpFR	5	7	1	CENT	270	4	0	n/a	n/a	n/a	n/a	n/a
3731.742	n/a	RECOG_TARGET	1865871	n/a	LTP230	ltpFR	5	7	0	NECKLACE	940	5	0	n/a	n/a	n/a	n/a	n/a
3733.138	n/a	RECOG_RESP	1866569	n/a	LTP230	ltpFR	5	7	0	NECKLACE	940	n/a	0	n/a	n/a	n/a	n/a	n/a
3734.134	n/a	RECOG_CONF	1867067	n/a	LTP230	ltpFR	5	7	0	NECKLACE	940	5	0	n/a	n/a	n/a	n/a	n/a
3736.104	n/a	RECOG_TARGET	1868052	n/a	LTP230	ltpFR	5	7	0	BEET	115	5	0	n/a	n/a	n/a	n/a	n/a
3737.064	n/a	RECOG_RESP	1868532	n/a	LTP230	ltpFR	5	7	0	BEET	115	n/a	0	n/a	n/a	n/a	n/a	n/a
3738.056	n/a	RECOG_CONF	1869028	n/a	LTP230	ltpFR	5	7	0	BEET	115	5	0	n/a	n/a	n/a	n/a	n/a
3739.914	n/a	RECOG_TARGET	1869957	n/a	LTP230	ltpFR	5	7	-1	SHACK	1273	3	-1	n/a	n/a	n/a	n/a	n/a
3741.052	n/a	RECOG_RESP	1870526	n/a	LTP230	ltpFR	5	7	-1	SHACK	1273	n/a	-1	n/a	n/a	n/a	n/a	n/a
3741.98	n/a	RECOG_CONF	1870990	n/a	LTP230	ltpFR	5	7	-1	SHACK	1273	3	-1	n/a	n/a	n/a	n/a	n/a
3743.808	n/a	RECOG_LURE	1871904	n/a	LTP230	ltpFR	5	7	n/a	BONE	148	4	n/a	n/a	n/a	n/a	n/a	n/a
3744.946	n/a	RECOG_RESP_VV	1872473	n/a	LTP230	ltpFR	5	7	n/a	BONE	148	n/a	n/a	n/a	n/a	n/a	n/a	n/a
3746.044	n/a	RECOG_RESP	1873022	n/a	LTP230	ltpFR	5	7	n/a	BONE	148	n/a	n/a	n/a	n/a	n/a	n/a	n/a
3747.128	n/a	RECOG_CONF	1873564	n/a	LTP230	ltpFR	5	7	n/a	BONE	148	4	n/a	n/a	n/a	n/a	n/a	n/a
3748.918	n/a	RECOG_TARGET	1874459	n/a	LTP230	ltpFR	5	7	1	OWNER	993	4	1	n/a	n/a	n/a	n/a	n/a
3752.932	n/a	RECOG_RESP	1876466	n/a	LTP230	ltpFR	5	7	1	OWNER	993	n/a	1	n/a	n/a	n/a	n/a	n/a
3753.998	n/a	RECOG_CONF	1876999	n/a	LTP230	ltpFR	5	7	1	OWNER	993	4	1	n/a	n/a	n/a	n/a	n/a
3755.974	n/a	RECOG_TARGET	1877987	n/a	LTP230	ltpFR	5	7	0	EMERALD	528	4	1	n/a	n/a	n/a	n/a	n/a
3756.66	n/a	RECOG_RESP	1878330	n/a	LTP230	ltpFR	5	7	0	EMERALD	528	n/a	1	n/a	n/a	n/a	n/a	n/a
