mstime	trial_type	stim_file	subject	experiment	session	trial	task	item_name	item_num	recog_resp	recog_conf	resp	color_r	color_g	color_b	case	font
0	SESS_START	n/a	LTP335	ltpFR	6	n/a	n/a	n/a	n/a	1	3	n/a	n/a	n/a	n/a	n/a	n/a
25238	WORD	wordpools/wasnorm_wordpool_less_exclusions.txt	LTP335	ltpFR	6	1	0	CROW	414	1	n/a	0	0.57763671875	0.412841796875	1	upper	amplitud.ttf
29104	WORD	wordpools/wasnorm_wordpool_less_exclusions.txt	LTP335	ltpFR	6	1	0	SUMMIT	1405	n/a	n/a	1	0.57763671875	0.412841796875	1	upper	amplitud.ttf
33168	WORD	wordpools/wasnorm_wordpool_less_exclusions.txt	LTP335	ltpFR	6	1	1	BEAST	108	n/a	n/a	1	0.422607421875	0.5869140625	0	lower	zerothre.ttf
37167	WORD	wordpools/wasnorm_wordpool_less_exclusions.txt	LTP335	ltpFR	6	1	1	QUAIL	1147	n/a	n/a	1	0.422607421875	0.5869140625	0	lower	zerothre.ttf
41048	WORD	wordpools/wasnorm_wordpool_less_exclusions.txt	LTP335	ltpFR	6	1	0	SERPENT	1270	n/a	n/a	1	0.57763671875	0.412841796875	1	upper	amplitud.ttf
45080	WORD	wordpools/wasnorm_wordpool_less_exclusions.txt	LTP335	ltpFR	6	1	0	RESTAURANT	1187	n/a	n/a	1	0.57763671875	0.412841796875	1	upper	amplitud.ttf
49128	WORD	wordpools/wasnorm_wordpool_less_exclusions.txt	LTP335	ltpFR	6	1	0	PROTON	1132	n/a	n/a	0	0.57763671875	0.412841796875	1	upper	amplitud.ttf
53143	WORD	wordpools/wasnorm_wordpool_less_exclusions.txt	LTP335	ltpFR	6	1	0	LIST	830	n/a	n/a	0	0.57763671875	0.412841796875	1	upper	amplitud.ttf
57124	WORD	wordpools/wasnorm_wordpool_less_exclusions.txt	LTP335	ltpFR	6	1	1	BROCCOLI	176	n/a	n/a	0	0.422607421875	0.5869140625	0	lower	zerothre.ttf
61022	WORD	wordpools/wasnorm_wordpool_less_exclusions.txt	LTP335	ltpFR	6	1	1	SPIT	1354	n/a	n/a	0	0.422607421875	0.5869140625	0	lower	zerothre.ttf
65186	WORD	wordpools/wasnorm_wordpool_less_exclusions.txt	LTP335	ltpFR	6	1	1	PIER	1063	n/a	n/a	0	0.422607421875	0.5869140625	0	lower	zerothre.ttf
69085	WORD	wordpools/wasnorm_wordpool_less_exclusions.txt	LTP335	ltpFR	6	1	1	SAILOR	1223	n/a	n/a	1	0.422607421875	0.5869140625	0	lower	zerothre.ttf
73067	WORD	wordpools/wasnorm_wordpool_less_exclusions.txt	LTP335	ltpFR	6	1	1	SCROLL	1257	n/a	n/a	0	0.422607421875	0.5869140625	0	lower	zerothre.ttf
77231	WORD	wordpools/wasnorm_wordpool_less_exclusions.txt	LTP335	ltpFR	6	1	1	PAPER	1011	n/a	n/a	0	0.422607421875	0.5869140625	0	lower	zerothre.ttf
81395	WORD	wordpools/wasnorm_wordpool_less_exclusions.txt	LTP335	ltpFR	6	1	0	RAM	1165	n/a	n/a	1	0.57763671875	0.412841796875	1	upper	amplitud.ttf
85260	WORD	wordpools/wasnorm_wordpool_less_exclusions.txt	LTP335	ltpFR	6	1	0	AUTHOR	61	n/a	n/a	1	0.57763671875	0.412841796875	1	upper	amplitud.ttf
91159	REC_START	n/a	LTP335	ltpFR	6	1	n/a	n/a	n/a	n/a	n/a	n/a	n/a	n/a	n/a	n/a	n/a
92833	REC_WORD	wordpools/wasnorm_wordpool_less_exclusions.txt	LTP335	ltpFR	6	1	0	RAM	1165	n/a	n/a	1	n/a	n/a	n/a	n/a	n/a
93769	REC_WORD	wordpools/wasnorm_wordpool_less_exclusions.txt	LTP335	ltpFR	6	1	0	AUTHOR	61	n/a	n/a	1	n/a	n/a	n/a	n/a	n/a
96592	REC_WORD	wordpools/wasnorm_wordpool_less_exclusions.txt	LTP335	ltpFR	6	1	1	PIER	1063	n/a	n/a	0	n/a	n/a	n/a	n/a	n/a
97497	REC_WORD	wordpools/wasnorm_wordpool_less_exclusions.txt	LTP335	ltpFR	6	1	1	SAILOR	1223	n/a	n/a	1	n/a	n/a	n/a	n/a	n/a
98573	REC_WORD	wordpools/wasnorm_wordpool_less_exclusions.txt	LTP335	ltpFR	6	1	1	PAPER	1011	n/a	n/a	0	n/a	n/a	n/a	n/a	n/a
99529	REC_WORD	wordpools/wasnorm_wordpool_less_exclusions.txt	LTP335	ltpFR	6	1	1	SCROLL	1257	n/a	n/a	0	n/a	n/a	n/a	n/a	n/a
101227	REC_WORD_VV	wordpools/wasnorm_wordpool_less_exclusions.txt	LTP335	ltpFR	6	1	n/a	<>	-1	n/a	n/a	n/a	n/a	n/a	n/a	n/a	n/a
107092	REC_WORD	wordpools/wasnorm_wordpool_less_exclusions.txt	LTP335	ltpFR	6	1	0	CROW	414	n/a	n/a	0	n/a	n/a	n/a	n/a	n/a
108518	REC_WORD	wordpools/wasnorm_wordpool_less_exclusions.txt	LTP335	ltpFR	6	1	0	SUMMIT	1405	n/a	n/a	1	n/a	n/a	n/a	n/a	n/a
111829	REC_WORD	wordpools/wasnorm_wordpool_less_exclusions.txt	LTP335	ltpFR	6	1	1	BEAST	108	n/a	n/a	1	n/a	n/a	n/a	n/a	n/a
112760	REC_WORD	wordpools/wasnorm_wordpool_less_exclusions.txt	LTP335	ltpFR	6	1	1	QUAIL	1147	n/a	n/a	1	n/a	n/a	n/a	n/a	n/a
113586	REC_WORD	wordpools/wasnorm_wordpool_less_exclusions.txt	LTP335	ltpFR	6	1	0	SERPENT	1270	n/a	n/a	1	n/a	n/a	n/a	n/a	n/a
120367	REC_WORD	wordpools/wasnorm_wordpool_less_exclusions.txt	LTP335	ltpFR	6	1	0	LIST	830	n/a	n/a	0	n/a	n/a	n/a	n/a	n/a
121157	REC_WORD	wordpools/wasnorm_wordpool_less_exclusions.txt	LTP335	ltpFR	6	1	1	BROCCOLI	176	n/a	n/a	0	n/a	n/a	n/a	n/a	n/a
122019	REC_WORD	wordpools/wasnorm_wordpool_less_exclusions.txt	LTP335	ltpFR	6	1	1	SPIT	1354	n/a	n/a	0	n/a	n/a	n/a	n/a	n/a
159714	REC_WORD	wordpools/wasnorm_wordpool_less_exclusions.txt	LTP335	ltpFR	6	1	0	RESTAURANT	1187	n/a	n/a	1	n/a	n/a	n/a	n/a	n/a
169289	WORD	wordpools/wasnorm_wordpool_less_exclusions.txt	LTP335	ltpFR	6	2	1	NET	946	n/a	n/a	0	0.422607421875	0.5869140625	0	lower	zerothre.ttf
173337	WORD	wordpools/wasnorm_wordpool_less_exclusions.txt	LTP335	ltpFR	6	2	1	OCTOPUS	971	n/a	n/a	1	0.422607421875	0.5869140625	0	lower	zerothre.ttf
177352	WORD	wordpools/wasnorm_wordpool_less_exclusions.txt	LTP335	ltpFR	6	2	0	MOSQUITO	917	n/a	n/a	0	0.57763671875	0.412841796875	1	upper	amplitud.ttf
181500	WORD	wordpools/wasnorm_wordpool_less_exclusions.txt	LTP335	ltpFR	6	2	0	CHART	282	n/a	n/a	1	0.57763671875	0.412841796875	1	upper	amplitud.ttf
185415	WORD	wordpools/wasnorm_wordpool_less_exclusions.txt	LTP335	ltpFR	6	2	1	HAMPER	682	n/a	n/a	0	0.422607421875	0.5869140625	0	lower	zerothre.ttf
189296	WORD	wordpools/wasnorm_wordpool_less_exclusions.txt	LTP335	ltpFR	6	2	1	ESCALATOR	539	n/a	n/a	0	0.422607421875	0.5869140625	0	lower	zerothre.ttf
193444	WORD	wordpools/wasnorm_wordpool_less_exclusions.txt	LTP335	ltpFR	6	2	1	RADIO	1157	n/a	n/a	0	0.422607421875	0.5869140625	0	lower	zerothre.ttf
197559	WORD	wordpools/wasnorm_wordpool_less_exclusions.txt	LTP335	ltpFR	6	2	1	PADDLE	1000	n/a	n/a	0	0.422607421875	0.5869140625	0	lower	zerothre.ttf
201607	WORD	wordpools/wasnorm_wordpool_less_exclusions.txt	LTP335	ltpFR	6	2	0	TUBA	1515	n/a	n/a	0	0.57763671875	0.412841796875	1	upper	amplitud.ttf
205657	WORD	wordpools/wasnorm_wordpool_less_exclusions.txt	LTP335	ltpFR	6	2	0	TRUMPET	1513	n/a	n/a	0	0.57763671875	0.412841796875	1	upper	amplitud.ttf
209554	WORD	wordpools/wasnorm_wordpool_less_exclusions.txt	LTP335	ltpFR	6	2	0	BEETLE	116	n/a	n/a	0	0.57763671875	0.412841796875	1	upper	amplitud.ttf
213502	WORD	wordpools/wasnorm_wordpool_less_exclusions.txt	LTP335	ltpFR	6	2	0	PRODUCER	1129	n/a	n/a	1	0.57763671875	0.412841796875	1	upper	amplitud.ttf
217718	WORD	wordpools/wasnorm_wordpool_less_exclusions.txt	LTP335	ltpFR	6	2	0	NAVIGATOR	938	n/a	n/a	1	0.57763671875	0.412841796875	1	upper	amplitud.ttf
221749	WORD	wordpools/wasnorm_wordpool_less_exclusions.txt	LTP335	ltpFR	6	2	0	POLITICIAN	1099	n/a	n/a	1	0.57763671875	0.412841796875	1	upper	amplitud.ttf
225613	WORD	wordpools/wasnorm_wordpool_less_exclusions.txt	LTP335	ltpFR	6	2	1	CITY	314	n/a	n/a	0	0.422607421875	0.5869140625	0	lower	zerothre.ttf
229762	WORD	wordpools/wasnorm_wordpool_less_exclusions.txt	LTP335	ltpFR	6	2	1	BUTTERFLY	206	n/a	n/a	1	0.422607421875	0.5869140625	0	lower	zerothre.ttf
235592	REC_START	n/a	LTP335	ltpFR	6	2	n/a	n/a	n/a	n/a	n/a	n/a	n/a	n/a	n/a	n/a	n/a
237627	REC_WORD	wordpools/wasnorm_wordpool_less_exclusions.txt	LTP335	ltpFR	6	2	1	CITY	314	n/a	n/a	0	n/a	n/a	n/a	n/a	n/a
238569	REC_WORD_VV	wordpools/wasnorm_wordpool_less_exclusions.txt	LTP335	ltpFR	6	2	n/a	<>	-1	n/a	n/a	n/a	n/a	n/a	n/a	n/a	n/a
239140	REC_WORD	wordpools/wasnorm_wordpool_less_exclusions.txt	LTP335	ltpFR	6	2	1	BUTTERFLY	206	n/a	n/a	1	n/a	n/a	n/a	n/a	n/a
240927	REC_WORD	wordpools/wasnorm_wordpool_less_exclusions.txt	LTP335	ltpFR	6	2	0	NAVIGATOR	938	n/a	n/a	1	n/a	n/a	n/a	n/a	n/a
241968	REC_WORD	wordpools/wasnorm_wordpool_less_exclusions.txt	LTP335	ltpFR	6	2	0	POLITICIAN	1099	n/a	n/a	1	n/a	n/a	n/a	n/a	n/a
245325	REC_WORD	wordpools/wasnorm_wordpool_less_exclusions.txt	LTP335	ltpFR	6	2	0	MOSQUITO	917	n/a	n/a	0	n/a	n/a	n/a	n/a	n/a
246831	REC_WORD	wordpools/wasnorm_wordpool_less_exclusions.txt	LTP335	ltpFR	6	2	1	NET	946	n/a	n/a	0	n/a	n/a	n/a	n/a	n/a
248023	REC_WORD	wordpools/wasnorm_wordpool_less_exclusions.txt	LTP335	ltpFR	6	2	1	OCTOPUS	971	n/a	n/a	1	n/a	n/a	n/a	n/a	n/a
252109	REC_WORD	wordpools/wasnorm_wordpool_less_exclusions.txt	LTP335	ltpFR	6	2	1	HAMPER	682	n/a	n/a	0	n/a	n/a	n/a	n/a	n/a
253563	REC_WORD	wordpools/wasnorm_wordpool_less_exclusions.txt	LTP335	ltpFR	6	2	1	RADIO	1157	n/a	n/a	0	n/a	n/a	n/a	n/a	n/a
254852	REC_WORD	wordpools/wasnorm_wordpool_less_exclusions.txt	LTP335	ltpFR	6	2	1	ESCALATOR	539	n/a	n/a	0	n/a	n/a	n/a	n/a	n/a
263519	REC_WORD	wordpools/wasnorm_wordpool_less_exclusions.txt	LTP335	ltpFR	6	2	0	BEETLE	116	n/a	n/a	0	n/a	n/a	n/a	n/a	n/a
264937	REC_WORD	wordpools/wasnorm_wordpool_less_exclusions.txt	LTP335	ltpFR	6	2	0	TUBA	1515	n/a	n/a	0	n/a	n/a	n/a	n/a	n/a
266258	REC_WORD	wordpools/wasnorm_wordpool_less_exclusions.txt	LTP335	ltpFR	6	2	0	TRUMPET	1513	n/a	n/a	0	n/a	n/a	n/a	n/a	n/a
314290	WORD	wordpools/wasnorm_wordpool_less_exclusions.txt	LTP335	ltpFR	6	3	0	PICTURE	1061	n/a	n/a	0	0.57763671875	0.412841796875	1	upper	amplitud.ttf
318471	WORD	wordpools/wasnorm_wordpool_less_exclusions.txt	LTP335	ltpFR	6	3	0	BATHTUB	100	n/a	n/a	1	0.57763671875	0.412841796875	1	upper	amplitud.ttf
322353	WORD	wordpools/wasnorm_wordpool_less_exclusions.txt	LTP335	ltpFR	6	3	0	KNAPSACK	783	n/a	n/a	0	0.57763671875	0.412841796875	1	upper	amplitud.ttf
326401	WORD	wordpools/wasnorm_wordpool_less_exclusions.txt	LTP335	ltpFR	6	3	0	WOLF	1619	n/a	n/a	1	0.57763671875	0.412841796875	1	upper	amplitud.ttf
330432	WORD	wordpools/wasnorm_wordpool_less_exclusions.txt	LTP335	ltpFR	6	3	0	DOG	480	n/a	n/a	1	0.57763671875	0.412841796875	1	upper	amplitud.ttf
334447	WORD	wordpools/wasnorm_wordpool_less_exclusions.txt	LTP335	ltpFR	6	3	0	HAY	693	n/a	n/a	1	0.57763671875	0.412841796875	1	upper	amplitud.ttf
338312	WORD	wordpools/wasnorm_wordpool_less_exclusions.txt	LTP335	ltpFR	6	3	0	DUSTPAN	509	n/a	n/a	0	0.57763671875	0.412841796875	1	upper	amplitud.ttf
342260	WORD	wordpools/wasnorm_wordpool_less_exclusions.txt	LTP335	ltpFR	6	3	0	BUG	187	n/a	n/a	0	0.57763671875	0.412841796875	1	upper	amplitud.ttf
346325	WORD	wordpools/wasnorm_wordpool_less_exclusions.txt	LTP335	ltpFR	6	3	0	SWATTER	1418	n/a	n/a	1	0.57763671875	0.412841796875	1	upper	amplitud.ttf
350473	WORD	wordpools/wasnorm_wordpool_less_exclusions.txt	LTP335	ltpFR	6	3	0	ELK	526	n/a	n/a	1	0.57763671875	0.412841796875	1	upper	amplitud.ttf
354405	WORD	wordpools/wasnorm_wordpool_less_exclusions.txt	LTP335	ltpFR	6	3	0	HURRICANE	727	n/a	n/a	1	0.57763671875	0.412841796875	1	upper	amplitud.ttf
358436	WORD	wordpools/wasnorm_wordpool_less_exclusions.txt	LTP335	ltpFR	6	3	0	MESSAGE	888	n/a	n/a	0	0.57763671875	0.412841796875	1	upper	amplitud.ttf
362501	WORD	wordpools/wasnorm_wordpool_less_exclusions.txt	LTP335	ltpFR	6	3	0	EDITOR	516	n/a	n/a	1	0.57763671875	0.412841796875	1	upper	amplitud.ttf
366366	WORD	wordpools/wasnorm_wordpool_less_exclusions.txt	LTP335	ltpFR	6	3	0	ZEBRA	1635	n/a	n/a	1	0.57763671875	0.412841796875	1	upper	amplitud.ttf
370497	WORD	wordpools/wasnorm_wordpool_less_exclusions.txt	LTP335	ltpFR	6	3	0	SCENERY	1247	n/a	n/a	1	0.57763671875	0.412841796875	1	upper	amplitud.ttf
374646	WORD	wordpools/wasnorm_wordpool_less_exclusions.txt	LTP335	ltpFR	6	3	0	CLARINET	317	n/a	n/a	1	0.57763671875	0.412841796875	1	upper	amplitud.ttf
380627	REC_START	n/a	LTP335	ltpFR	6	3	n/a	n/a	n/a	n/a	n/a	n/a	n/a	n/a	n/a	n/a	n/a
382018	REC_WORD	wordpools/wasnorm_wordpool_less_exclusions.txt	LTP335	ltpFR	6	3	0	ZEBRA	1635	n/a	n/a	1	n/a	n/a	n/a	n/a	n/a
384230	REC_WORD	wordpools/wasnorm_wordpool_less_exclusions.txt	LTP335	ltpFR	6	3	0	SCENERY	1247	n/a	n/a	1	n/a	n/a	n/a	n/a	n/a
385472	REC_WORD	wordpools/wasnorm_wordpool_less_exclusions.txt	LTP335	ltpFR	6	3	0	CLARINET	317	n/a	n/a	1	n/a	n/a	n/a	n/a	n/a
390959	REC_WORD	wordpools/wasnorm_wordpool_less_exclusions.txt	LTP335	ltpFR	6	3	0	HURRICANE	727	n/a	n/a	1	n/a	n/a	n/a	n/a	n/a
392002	REC_WORD	wordpools/wasnorm_wordpool_less_exclusions.txt	LTP335	ltpFR	6	3	0	MESSAGE	888	n/a	n/a	0	n/a	n/a	n/a	n/a	n/a
393417	REC_WORD	wordpools/wasnorm_wordpool_less_exclusions.txt	LTP335	ltpFR	6	3	0	EDITOR	516	n/a	n/a	1	n/a	n/a	n/a	n/a	n/a
395163	REC_WORD	wordpools/wasnorm_wordpool_less_exclusions.txt	LTP335	ltpFR	6	3	0	ELK	526	n/a	n/a	1	n/a	n/a	n/a	n/a	n/a
404212	REC_WORD	wordpools/wasnorm_wordpool_less_exclusions.txt	LTP335	ltpFR	6	3	0	PICTURE	1061	n/a	n/a	0	n/a	n/a	n/a	n/a	n/a
405442	REC_WORD	wordpools/wasnorm_wordpool_less_exclusions.txt	LTP335	ltpFR	6	3	0	BATHTUB	100	n/a	n/a	1	n/a	n/a	n/a	n/a	n/a
406749	REC_WORD	wordpools/wasnorm_wordpool_less_exclusions.txt	LTP335	ltpFR	6	3	0	KNAPSACK	783	n/a	n/a	0	n/a	n/a	n/a	n/a	n/a
412439	REC_WORD	wordpools/wasnorm_wordpool_less_exclusions.txt	LTP335	ltpFR	6	3	0	WOLF	1619	n/a	n/a	1	n/a	n/a	n/a	n/a	n/a
433164	REC_WORD	wordpools/wasnorm_wordpool_less_exclusions.txt	LTP335	ltpFR	6	3	0	DOG	480	n/a	n/a	1	n/a	n/a	n/a	n/a	n/a
440335	REC_WORD	wordpools/wasnorm_wordpool_less_exclusions.txt	LTP335	ltpFR	6	3	0	BUG	187	n/a	n/a	0	n/a	n/a	n/a	n/a	n/a
441808	REC_WORD	wordpools/wasnorm_wordpool_less_exclusions.txt	LTP335	ltpFR	6	3	0	HAY	693	n/a	n/a	1	n/a	n/a	n/a	n/a	n/a
445210	REC_WORD	wordpools/wasnorm_wordpool_less_exclusions.txt	LTP335	ltpFR	6	3	0	DUSTPAN	509	n/a	n/a	0	n/a	n/a	n/a	n/a	n/a
450701	REC_WORD	wordpools/wasnorm_wordpool_less_exclusions.txt	LTP335	ltpFR	6	3	0	SWATTER	1418	n/a	n/a	1	n/a	n/a	n/a	n/a	n/a
458692	WORD	wordpools/wasnorm_wordpool_less_exclusions.txt	LTP335	ltpFR	6	4	1	POT	1114	n/a	n/a	0	0.422607421875	0.5869140625	0	lower	zerothre.ttf
462556	WORD	wordpools/wasnorm_wordpool_less_exclusions.txt	LTP335	ltpFR	6	4	1	JET	756	n/a	n/a	0	0.422607421875	0.5869140625	0	lower	zerothre.ttf
466688	WORD	wordpools/wasnorm_wordpool_less_exclusions.txt	LTP335	ltpFR	6	4	1	ENGINE	535	n/a	n/a	0	0.422607421875	0.5869140625	0	lower	zerothre.ttf
470635	WORD	wordpools/wasnorm_wordpool_less_exclusions.txt	LTP335	ltpFR	6	4	1	CATERPILLAR	259	n/a	n/a	1	0.422607421875	0.5869140625	0	lower	zerothre.ttf
474467	WORD	wordpools/wasnorm_wordpool_less_exclusions.txt	LTP335	ltpFR	6	4	1	JAW	751	n/a	n/a	0	0.422607421875	0.5869140625	0	lower	zerothre.ttf
478498	WORD	wordpools/wasnorm_wordpool_less_exclusions.txt	LTP335	ltpFR	6	4	1	PISTON	1076	n/a	n/a	1	0.422607421875	0.5869140625	0	lower	zerothre.ttf
482530	WORD	wordpools/wasnorm_wordpool_less_exclusions.txt	LTP335	ltpFR	6	4	1	ANGEL	22	n/a	n/a	1	0.422607421875	0.5869140625	0	lower	zerothre.ttf
486395	WORD	wordpools/wasnorm_wordpool_less_exclusions.txt	LTP335	ltpFR	6	4	1	JUGGLER	763	n/a	n/a	1	0.422607421875	0.5869140625	0	lower	zerothre.ttf
490343	WORD	wordpools/wasnorm_wordpool_less_exclusions.txt	LTP335	ltpFR	6	4	1	ATHLETE	52	n/a	n/a	1	0.422607421875	0.5869140625	0	lower	zerothre.ttf
494424	WORD	wordpools/wasnorm_wordpool_less_exclusions.txt	LTP335	ltpFR	6	4	1	HOOD	714	n/a	n/a	0	0.422607421875	0.5869140625	0	lower	zerothre.ttf
498639	WORD	wordpools/wasnorm_wordpool_less_exclusions.txt	LTP335	ltpFR	6	4	1	EMPLOYER	532	n/a	n/a	1	0.422607421875	0.5869140625	0	lower	zerothre.ttf
502838	WORD	wordpools/wasnorm_wordpool_less_exclusions.txt	LTP335	ltpFR	6	4	1	CLERK	321	n/a	n/a	0	0.422607421875	0.5869140625	0	lower	zerothre.ttf
507020	WORD	wordpools/wasnorm_wordpool_less_exclusions.txt	LTP335	ltpFR	6	4	1	GAVEL	627	n/a	n/a	0	0.422607421875	0.5869140625	0	lower	zerothre.ttf
511084	WORD	wordpools/wasnorm_wordpool_less_exclusions.txt	LTP335	ltpFR	6	4	1	LAWYER	806	n/a	n/a	1	0.422607421875	0.5869140625	0	lower	zerothre.ttf
515016	WORD	wordpools/wasnorm_wordpool_less_exclusions.txt	LTP335	ltpFR	6	4	1	AUTOMOBILE	62	n/a	n/a	0	0.422607421875	0.5869140625	0	lower	zerothre.ttf
519048	WORD	wordpools/wasnorm_wordpool_less_exclusions.txt	LTP335	ltpFR	6	4	1	WARRIOR	1589	n/a	n/a	1	0.422607421875	0.5869140625	0	lower	zerothre.ttf
524995	REC_START	n/a	LTP335	ltpFR	6	4	n/a	n/a	n/a	n/a	n/a	n/a	n/a	n/a	n/a	n/a	n/a
526010	REC_WORD	wordpools/wasnorm_wordpool_less_exclusions.txt	LTP335	ltpFR	6	4	1	AUTOMOBILE	62	n/a	n/a	0	n/a	n/a	n/a	n/a	n/a
527430	REC_WORD	wordpools/wasnorm_wordpool_less_exclusions.txt	LTP335	ltpFR	6	4	1	WARRIOR	1589	n/a	n/a	1	n/a	n/a	n/a	n/a	n/a
535414	REC_WORD	wordpools/wasnorm_wordpool_less_exclusions.txt	LTP335	ltpFR	6	4	1	EMPLOYER	532	n/a	n/a	1	n/a	n/a	n/a	n/a	n/a
536649	REC_WORD	wordpools/wasnorm_wordpool_less_exclusions.txt	LTP335	ltpFR	6	4	1	CLERK	321	n/a	n/a	0	n/a	n/a	n/a	n/a	n/a
537649	REC_WORD_VV	wordpools/wasnorm_wordpool_less_exclusions.txt	LTP335	ltpFR	6	4	n/a	<>	-1	n/a	n/a	n/a	n/a	n/a	n/a	n/a	n/a
542643	REC_WORD	wordpools/wasnorm_wordpool_less_exclusions.txt	LTP335	ltpFR	6	4	1	GAVEL	627	n/a	n/a	0	n/a	n/a	n/a	n/a	n/a
547879	REC_WORD	wordpools/wasnorm_wordpool_less_exclusions.txt	LTP335	ltpFR	6	4	1	HOOD	714	n/a	n/a	0	n/a	n/a	n/a	n/a	n/a
551114	REC_WORD	wordpools/wasnorm_wordpool_less_exclusions.txt	LTP335	ltpFR	6	4	1	JET	756	n/a	n/a	0	n/a	n/a	n/a	n/a	n/a
552480	REC_WORD	wordpools/wasnorm_wordpool_less_exclusions.txt	LTP335	ltpFR	6	4	1	POT	1114	n/a	n/a	0	n/a	n/a	n/a	n/a	n/a
554389	REC_WORD	wordpools/wasnorm_wordpool_less_exclusions.txt	LTP335	ltpFR	6	4	1	CATERPILLAR	259	n/a	n/a	1	n/a	n/a	n/a	n/a	n/a
558214	REC_WORD	wordpools/wasnorm_wordpool_less_exclusions.txt	LTP335	ltpFR	6	4	1	ENGINE	535	n/a	n/a	0	n/a	n/a	n/a	n/a	n/a
559539	REC_WORD	wordpools/wasnorm_wordpool_less_exclusions.txt	LTP335	ltpFR	6	4	1	PISTON	1076	n/a	n/a	1	n/a	n/a	n/a	n/a	n/a
568307	REC_WORD	wordpools/wasnorm_wordpool_less_exclusions.txt	LTP335	ltpFR	6	4	1	ATHLETE	52	n/a	n/a	1	n/a	n/a	n/a	n/a	n/a
569419	REC_WORD	wordpools/wasnorm_wordpool_less_exclusions.txt	LTP335	ltpFR	6	4	1	JUGGLER	763	n/a	n/a	1	n/a	n/a	n/a	n/a	n/a
570713	REC_WORD	wordpools/wasnorm_wordpool_less_exclusions.txt	LTP335	ltpFR	6	4	1	ANGEL	22	n/a	n/a	1	n/a	n/a	n/a	n/a	n/a
603192	WORD	wordpools/wasnorm_wordpool_less_exclusions.txt	LTP335	ltpFR	6	5	-1	RAILROAD	1162	n/a	n/a	-1	1.0	1.0	1	upper	Verdana.ttf
607157	WORD	wordpools/wasnorm_wordpool_less_exclusions.txt	LTP335	ltpFR	6	5	-1	TURNIP	1521	n/a	n/a	-1	1.0	1.0	1	upper	Verdana.ttf
611056	WORD	wordpools/wasnorm_wordpool_less_exclusions.txt	LTP335	ltpFR	6	5	-1	HARP	689	n/a	n/a	-1	1.0	1.0	1	upper	Verdana.ttf
615203	WORD	wordpools/wasnorm_wordpool_less_exclusions.txt	LTP335	ltpFR	6	5	-1	PITCHFORK	1078	n/a	n/a	-1	1.0	1.0	1	upper	Verdana.ttf
619119	WORD	wordpools/wasnorm_wordpool_less_exclusions.txt	LTP335	ltpFR	6	5	-1	BANK	83	n/a	n/a	-1	1.0	1.0	1	upper	Verdana.ttf
623266	WORD	wordpools/wasnorm_wordpool_less_exclusions.txt	LTP335	ltpFR	6	5	-1	ORCHESTRA	981	n/a	n/a	-1	1.0	1.0	1	upper	Verdana.ttf
627431	WORD	wordpools/wasnorm_wordpool_less_exclusions.txt	LTP335	ltpFR	6	5	-1	ARMY	39	n/a	n/a	-1	1.0	1.0	1	upper	Verdana.ttf
631646	WORD	wordpools/wasnorm_wordpool_less_exclusions.txt	LTP335	ltpFR	6	5	-1	UNIFORM	1539	n/a	n/a	-1	1.0	1.0	1	upper	Verdana.ttf
635728	WORD	wordpools/wasnorm_wordpool_less_exclusions.txt	LTP335	ltpFR	6	5	-1	NECK	939	n/a	n/a	-1	1.0	1.0	1	upper	Verdana.ttf
639809	WORD	wordpools/wasnorm_wordpool_less_exclusions.txt	LTP335	ltpFR	6	5	-1	APPLE	33	n/a	n/a	-1	1.0	1.0	1	upper	Verdana.ttf
643757	WORD	wordpools/wasnorm_wordpool_less_exclusions.txt	LTP335	ltpFR	6	5	-1	BERRY	122	n/a	n/a	-1	1.0	1.0	1	upper	Verdana.ttf
647806	WORD	wordpools/wasnorm_wordpool_less_exclusions.txt	LTP335	ltpFR	6	5	-1	TOOTH	1481	n/a	n/a	-1	1.0	1.0	1	upper	Verdana.ttf
651937	WORD	wordpools/wasnorm_wordpool_less_exclusions.txt	LTP335	ltpFR	6	5	-1	SHOP	1290	n/a	n/a	-1	1.0	1.0	1	upper	Verdana.ttf
656102	WORD	wordpools/wasnorm_wordpool_less_exclusions.txt	LTP335	ltpFR	6	5	-1	ROBOT	1200	n/a	n/a	-1	1.0	1.0	1	upper	Verdana.ttf
660033	WORD	wordpools/wasnorm_wordpool_less_exclusions.txt	LTP335	ltpFR	6	5	-1	OFFICE	972	n/a	n/a	-1	1.0	1.0	1	upper	Verdana.ttf
664032	WORD	wordpools/wasnorm_wordpool_less_exclusions.txt	LTP335	ltpFR	6	5	-1	TWINE	1529	n/a	n/a	-1	1.0	1.0	1	upper	Verdana.ttf
669979	REC_START	n/a	LTP335	ltpFR	6	5	n/a	n/a	n/a	n/a	n/a	n/a	n/a	n/a	n/a	n/a	n/a
671494	REC_WORD	wordpools/wasnorm_wordpool_less_exclusions.txt	LTP335	ltpFR	6	5	-1	SHOP	1290	n/a	n/a	-1	n/a	n/a	n/a	n/a	n/a
672616	REC_WORD	wordpools/wasnorm_wordpool_less_exclusions.txt	LTP335	ltpFR	6	5	-1	ROBOT	1200	n/a	n/a	-1	n/a	n/a	n/a	n/a	n/a
673691	REC_WORD	wordpools/wasnorm_wordpool_less_exclusions.txt	LTP335	ltpFR	6	5	-1	OFFICE	972	n/a	n/a	-1	n/a	n/a	n/a	n/a	n/a
674786	REC_WORD	wordpools/wasnorm_wordpool_less_exclusions.txt	LTP335	ltpFR	6	5	-1	TWINE	1529	n/a	n/a	-1	n/a	n/a	n/a	n/a	n/a
675985	REC_WORD	wordpools/wasnorm_wordpool_less_exclusions.txt	LTP335	ltpFR	6	5	-1	TOOTH	1481	n/a	n/a	-1	n/a	n/a	n/a	n/a	n/a
677034	REC_WORD	wordpools/wasnorm_wordpool_less_exclusions.txt	LTP335	ltpFR	6	5	-1	NECK	939	n/a	n/a	-1	n/a	n/a	n/a	n/a	n/a
678065	REC_WORD	wordpools/wasnorm_wordpool_less_exclusions.txt	LTP335	ltpFR	6	5	-1	APPLE	33	n/a	n/a	-1	n/a	n/a	n/a	n/a	n/a
679112	REC_WORD	wordpools/wasnorm_wordpool_less_exclusions.txt	LTP335	ltpFR	6	5	-1	BERRY	122	n/a	n/a	-1	n/a	n/a	n/a	n/a	n/a
680201	REC_WORD	wordpools/wasnorm_wordpool_less_exclusions.txt	LTP335	ltpFR	6	5	-1	TURNIP	1521	n/a	n/a	-1	n/a	n/a	n/a	n/a	n/a
683725	REC_WORD	wordpools/wasnorm_wordpool_less_exclusions.txt	LTP335	ltpFR	6	5	-1	RAILROAD	1162	n/a	n/a	-1	n/a	n/a	n/a	n/a	n/a
688503	REC_WORD	wordpools/wasnorm_wordpool_less_exclusions.txt	LTP335	ltpFR	6	5	-1	ARMY	39	n/a	n/a	-1	n/a	n/a	n/a	n/a	n/a
689401	REC_WORD	wordpools/wasnorm_wordpool_less_exclusions.txt	LTP335	ltpFR	6	5	-1	UNIFORM	1539	n/a	n/a	-1	n/a	n/a	n/a	n/a	n/a
690569	REC_WORD	wordpools/wasnorm_wordpool_less_exclusions.txt	LTP335	ltpFR	6	5	-1	PITCHFORK	1078	n/a	n/a	-1	n/a	n/a	n/a	n/a	n/a
692235	REC_WORD	wordpools/wasnorm_wordpool_less_exclusions.txt	LTP335	ltpFR	6	5	-1	BANK	83	n/a	n/a	-1	n/a	n/a	n/a	n/a	n/a
748376	WORD	wordpools/wasnorm_wordpool_less_exclusions.txt	LTP335	ltpFR	6	6	-1	HOSE	720	n/a	n/a	-1	1.0	1.0	1	upper	Verdana.ttf
752524	WORD	wordpools/wasnorm_wordpool_less_exclusions.txt	LTP335	ltpFR	6	6	-1	MUSHROOM	934	n/a	n/a	-1	1.0	1.0	1	upper	Verdana.ttf
756372	WORD	wordpools/wasnorm_wordpool_less_exclusions.txt	LTP335	ltpFR	6	6	-1	PELICAN	1039	n/a	n/a	-1	1.0	1.0	1	upper	Verdana.ttf
760387	WORD	wordpools/wasnorm_wordpool_less_exclusions.txt	LTP335	ltpFR	6	6	-1	LACE	792	n/a	n/a	-1	1.0	1.0	1	upper	Verdana.ttf
764385	WORD	wordpools/wasnorm_wordpool_less_exclusions.txt	LTP335	ltpFR	6	6	-1	BEET	115	n/a	n/a	-1	1.0	1.0	1	upper	Verdana.ttf
768267	WORD	wordpools/wasnorm_wordpool_less_exclusions.txt	LTP335	ltpFR	6	6	-1	CAULIFLOWER	262	n/a	n/a	-1	1.0	1.0	1	upper	Verdana.ttf
772166	WORD	wordpools/wasnorm_wordpool_less_exclusions.txt	LTP335	ltpFR	6	6	-1	SWAN	1417	n/a	n/a	-1	1.0	1.0	1	upper	Verdana.ttf
775997	WORD	wordpools/wasnorm_wordpool_less_exclusions.txt	LTP335	ltpFR	6	6	-1	COLESLAW	344	n/a	n/a	-1	1.0	1.0	1	upper	Verdana.ttf
780095	WORD	wordpools/wasnorm_wordpool_less_exclusions.txt	LTP335	ltpFR	6	6	-1	BASKETBALL	96	n/a	n/a	-1	1.0	1.0	1	upper	Verdana.ttf
784110	WORD	wordpools/wasnorm_wordpool_less_exclusions.txt	LTP335	ltpFR	6	6	-1	BIRD	129	n/a	n/a	-1	1.0	1.0	1	upper	Verdana.ttf
788291	WORD	wordpools/wasnorm_wordpool_less_exclusions.txt	LTP335	ltpFR	6	6	-1	WAITRESS	1581	n/a	n/a	-1	1.0	1.0	1	upper	Verdana.ttf
792222	WORD	wordpools/wasnorm_wordpool_less_exclusions.txt	LTP335	ltpFR	6	6	-1	BLUEPRINT	142	n/a	n/a	-1	1.0	1.0	1	upper	Verdana.ttf
796320	WORD	wordpools/wasnorm_wordpool_less_exclusions.txt	LTP335	ltpFR	6	6	-1	PADDING	999	n/a	n/a	-1	1.0	1.0	1	upper	Verdana.ttf
800153	WORD	wordpools/wasnorm_wordpool_less_exclusions.txt	LTP335	ltpFR	6	6	-1	WALL	1582	n/a	n/a	-1	1.0	1.0	1	upper	Verdana.ttf
804118	WORD	wordpools/wasnorm_wordpool_less_exclusions.txt	LTP335	ltpFR	6	6	-1	LOBSTER	837	n/a	n/a	-1	1.0	1.0	1	upper	Verdana.ttf
807999	WORD	wordpools/wasnorm_wordpool_less_exclusions.txt	LTP335	ltpFR	6	6	-1	SHRIMP	1297	n/a	n/a	-1	1.0	1.0	1	upper	Verdana.ttf
813747	REC_START	n/a	LTP335	ltpFR	6	6	n/a	n/a	n/a	n/a	n/a	n/a	n/a	n/a	n/a	n/a	n/a
814640	REC_WORD	wordpools/wasnorm_wordpool_less_exclusions.txt	LTP335	ltpFR	6	6	-1	LOBSTER	837	n/a	n/a	-1	n/a	n/a	n/a	n/a	n/a
815650	REC_WORD	wordpools/wasnorm_wordpool_less_exclusions.txt	LTP335	ltpFR	6	6	-1	SHRIMP	1297	n/a	n/a	-1	n/a	n/a	n/a	n/a	n/a
816979	REC_WORD	wordpools/wasnorm_wordpool_less_exclusions.txt	LTP335	ltpFR	6	6	-1	BLUEPRINT	142	n/a	n/a	-1	n/a	n/a	n/a	n/a	n/a
818020	REC_WORD	wordpools/wasnorm_wordpool_less_exclusions.txt	LTP335	ltpFR	6	6	-1	PADDING	999	n/a	n/a	-1	n/a	n/a	n/a	n/a	n/a
819217	REC_WORD	wordpools/wasnorm_wordpool_less_exclusions.txt	LTP335	ltpFR	6	6	-1	WALL	1582	n/a	n/a	-1	n/a	n/a	n/a	n/a	n/a
820415	REC_WORD	wordpools/wasnorm_wordpool_less_exclusions.txt	LTP335	ltpFR	6	6	-1	WAITRESS	1581	n/a	n/a	-1	n/a	n/a	n/a	n/a	n/a
823798	REC_WORD	wordpools/wasnorm_wordpool_less_exclusions.txt	LTP335	ltpFR	6	6	-1	BASKETBALL	96	n/a	n/a	-1	n/a	n/a	n/a	n/a	n/a
829737	REC_WORD	wordpools/wasnorm_wordpool_less_exclusions.txt	LTP335	ltpFR	6	6	-1	BIRD	129	n/a	n/a	-1	n/a	n/a	n/a	n/a	n/a
835552	REC_WORD	wordpools/wasnorm_wordpool_less_exclusions.txt	LTP335	ltpFR	6	6	-1	PELICAN	1039	n/a	n/a	-1	n/a	n/a	n/a	n/a	n/a
838142	REC_WORD	wordpools/wasnorm_wordpool_less_exclusions.txt	LTP335	ltpFR	6	6	-1	SWAN	1417	n/a	n/a	-1	n/a	n/a	n/a	n/a	n/a
839542	REC_WORD	wordpools/wasnorm_wordpool_less_exclusions.txt	LTP335	ltpFR	6	6	-1	COLESLAW	344	n/a	n/a	-1	n/a	n/a	n/a	n/a	n/a
850494	REC_WORD	wordpools/wasnorm_wordpool_less_exclusions.txt	LTP335	ltpFR	6	6	-1	MUSHROOM	934	n/a	n/a	-1	n/a	n/a	n/a	n/a	n/a
851328	REC_WORD	wordpools/wasnorm_wordpool_less_exclusions.txt	LTP335	ltpFR	6	6	-1	BEET	115	n/a	n/a	-1	n/a	n/a	n/a	n/a	n/a
851994	REC_WORD	wordpools/wasnorm_wordpool_less_exclusions.txt	LTP335	ltpFR	6	6	-1	CAULIFLOWER	262	n/a	n/a	-1	n/a	n/a	n/a	n/a	n/a
855224	REC_WORD	wordpools/wasnorm_wordpool_less_exclusions.txt	LTP335	ltpFR	6	6	-1	LACE	792	n/a	n/a	-1	n/a	n/a	n/a	n/a	n/a
856110	REC_WORD	wordpools/wasnorm_wordpool_less_exclusions.txt	LTP335	ltpFR	6	6	-1	HOSE	720	n/a	n/a	-1	n/a	n/a	n/a	n/a	n/a
894459	WORD	wordpools/wasnorm_wordpool_less_exclusions.txt	LTP335	ltpFR	6	7	-1	NAIL	936	n/a	n/a	-1	1.0	1.0	1	upper	Verdana.ttf
898324	WORD	wordpools/wasnorm_wordpool_less_exclusions.txt	LTP335	ltpFR	6	7	-1	TICKET	1464	n/a	n/a	-1	1.0	1.0	1	upper	Verdana.ttf
902422	WORD	wordpools/wasnorm_wordpool_less_exclusions.txt	LTP335	ltpFR	6	7	-1	ESSAY	540	n/a	n/a	-1	1.0	1.0	1	upper	Verdana.ttf
906337	WORD	wordpools/wasnorm_wordpool_less_exclusions.txt	LTP335	ltpFR	6	7	-1	CHIPMUNK	304	n/a	n/a	-1	1.0	1.0	1	upper	Verdana.ttf
910202	WORD	wordpools/wasnorm_wordpool_less_exclusions.txt	LTP335	ltpFR	6	7	-1	PLIERS	1089	n/a	n/a	-1	1.0	1.0	1	upper	Verdana.ttf
914183	WORD	wordpools/wasnorm_wordpool_less_exclusions.txt	LTP335	ltpFR	6	7	-1	LAMB	797	n/a	n/a	-1	1.0	1.0	1	upper	Verdana.ttf
918049	WORD	wordpools/wasnorm_wordpool_less_exclusions.txt	LTP335	ltpFR	6	7	-1	GOAT	644	n/a	n/a	-1	1.0	1.0	1	upper	Verdana.ttf
921931	WORD	wordpools/wasnorm_wordpool_less_exclusions.txt	LTP335	ltpFR	6	7	-1	SWORD	1423	n/a	n/a	-1	1.0	1.0	1	upper	Verdana.ttf
926096	WORD	wordpools/wasnorm_wordpool_less_exclusions.txt	LTP335	ltpFR	6	7	-1	MINK	897	n/a	n/a	-1	1.0	1.0	1	upper	Verdana.ttf
929994	WORD	wordpools/wasnorm_wordpool_less_exclusions.txt	LTP335	ltpFR	6	7	-1	BUS	201	n/a	n/a	-1	1.0	1.0	1	upper	Verdana.ttf
933909	WORD	wordpools/wasnorm_wordpool_less_exclusions.txt	LTP335	ltpFR	6	7	-1	SPY	1360	n/a	n/a	-1	1.0	1.0	1	upper	Verdana.ttf
937824	WORD	wordpools/wasnorm_wordpool_less_exclusions.txt	LTP335	ltpFR	6	7	-1	TOMATO	1476	n/a	n/a	-1	1.0	1.0	1	upper	Verdana.ttf
941872	WORD	wordpools/wasnorm_wordpool_less_exclusions.txt	LTP335	ltpFR	6	7	-1	GARLIC	624	n/a	n/a	-1	1.0	1.0	1	upper	Verdana.ttf
945937	WORD	wordpools/wasnorm_wordpool_less_exclusions.txt	LTP335	ltpFR	6	7	-1	ONION	977	n/a	n/a	-1	1.0	1.0	1	upper	Verdana.ttf
949818	WORD	wordpools/wasnorm_wordpool_less_exclusions.txt	LTP335	ltpFR	6	7	-1	BINDER	127	n/a	n/a	-1	1.0	1.0	1	upper	Verdana.ttf
953833	WORD	wordpools/wasnorm_wordpool_less_exclusions.txt	LTP335	ltpFR	6	7	-1	CAKE	219	n/a	n/a	-1	1.0	1.0	1	upper	Verdana.ttf
959648	REC_START	n/a	LTP335	ltpFR	6	7	n/a	n/a	n/a	n/a	n/a	n/a	n/a	n/a	n/a	n/a	n/a
960958	REC_WORD	wordpools/wasnorm_wordpool_less_exclusions.txt	LTP335	ltpFR	6	7	-1	BINDER	127	n/a	n/a	-1	n/a	n/a	n/a	n/a	n/a
961939	REC_WORD	wordpools/wasnorm_wordpool_less_exclusions.txt	LTP335	ltpFR	6	7	-1	CAKE	219	n/a	n/a	-1	n/a	n/a	n/a	n/a	n/a
963828	REC_WORD	wordpools/wasnorm_wordpool_less_exclusions.txt	LTP335	ltpFR	6	7	-1	TOMATO	1476	n/a	n/a	-1	n/a	n/a	n/a	n/a	n/a
964503	REC_WORD	wordpools/wasnorm_wordpool_less_exclusions.txt	LTP335	ltpFR	6	7	-1	ONION	977	n/a	n/a	-1	n/a	n/a	n/a	n/a	n/a
965165	REC_WORD	wordpools/wasnorm_wordpool_less_exclusions.txt	LTP335	ltpFR	6	7	-1	GARLIC	624	n/a	n/a	-1	n/a	n/a	n/a	n/a	n/a
966766	REC_WORD	wordpools/wasnorm_wordpool_less_exclusions.txt	LTP335	ltpFR	6	7	-1	BUS	201	n/a	n/a	-1	n/a	n/a	n/a	n/a	n/a
968171	REC_WORD	wordpools/wasnorm_wordpool_less_exclusions.txt	LTP335	ltpFR	6	7	-1	SPY	1360	n/a	n/a	-1	n/a	n/a	n/a	n/a	n/a
969381	REC_WORD	wordpools/wasnorm_wordpool_less_exclusions.txt	LTP335	ltpFR	6	7	-1	SWORD	1423	n/a	n/a	-1	n/a	n/a	n/a	n/a	n/a
971014	REC_WORD	wordpools/wasnorm_wordpool_less_exclusions.txt	LTP335	ltpFR	6	7	-1	MINK	897	n/a	n/a	-1	n/a	n/a	n/a	n/a	n/a
972271	REC_WORD	wordpools/wasnorm_wordpool_less_exclusions.txt	LTP335	ltpFR	6	7	-1	CHIPMUNK	304	n/a	n/a	-1	n/a	n/a	n/a	n/a	n/a
973469	REC_WORD	wordpools/wasnorm_wordpool_less_exclusions.txt	LTP335	ltpFR	6	7	-1	PLIERS	1089	n/a	n/a	-1	n/a	n/a	n/a	n/a	n/a
980818	REC_WORD	wordpools/wasnorm_wordpool_less_exclusions.txt	LTP335	ltpFR	6	7	-1	NAIL	936	n/a	n/a	-1	n/a	n/a	n/a	n/a	n/a
984790	REC_WORD	wordpools/wasnorm_wordpool_less_exclusions.txt	LTP335	ltpFR	6	7	-1	ESSAY	540	n/a	n/a	-1	n/a	n/a	n/a	n/a	n/a
1038162	WORD	wordpools/wasnorm_wordpool_less_exclusions.txt	LTP335	ltpFR	6	8	0	RODENT	1204	n/a	n/a	0	0.57763671875	0.412841796875	1	upper	amplitud.ttf
1042175	WORD	wordpools/wasnorm_wordpool_less_exclusions.txt	LTP335	ltpFR	6	8	0	SAXOPHONE	1240	n/a	n/a	1	0.57763671875	0.412841796875	1	upper	amplitud.ttf
1046323	WORD	wordpools/wasnorm_wordpool_less_exclusions.txt	LTP335	ltpFR	6	8	0	MAPLE	866	n/a	n/a	1	0.57763671875	0.412841796875	1	upper	amplitud.ttf
1050338	WORD	wordpools/wasnorm_wordpool_less_exclusions.txt	LTP335	ltpFR	6	8	0	SHED	1277	n/a	n/a	1	0.57763671875	0.412841796875	1	upper	amplitud.ttf
1054303	WORD	wordpools/wasnorm_wordpool_less_exclusions.txt	LTP335	ltpFR	6	8	0	SUITCASE	1403	n/a	n/a	1	0.57763671875	0.412841796875	1	upper	amplitud.ttf
1058335	WORD	wordpools/wasnorm_wordpool_less_exclusions.txt	LTP335	ltpFR	6	8	0	PAW	1029	n/a	n/a	1	0.57763671875	0.412841796875	1	upper	amplitud.ttf
1062333	WORD	wordpools/wasnorm_wordpool_less_exclusions.txt	LTP335	ltpFR	6	8	0	MOSS	918	n/a	n/a	1	0.57763671875	0.412841796875	1	upper	amplitud.ttf
1066514	WORD	wordpools/wasnorm_wordpool_less_exclusions.txt	LTP335	ltpFR	6	8	0	DICTATOR	462	n/a	n/a	1	0.57763671875	0.412841796875	1	upper	amplitud.ttf
1070663	WORD	wordpools/wasnorm_wordpool_less_exclusions.txt	LTP335	ltpFR	6	8	0	EMPEROR	529	n/a	n/a	1	0.57763671875	0.412841796875	1	upper	amplitud.ttf
1074594	WORD	wordpools/wasnorm_wordpool_less_exclusions.txt	LTP335	ltpFR	6	8	0	COIN	343	n/a	n/a	0	0.57763671875	0.412841796875	1	upper	amplitud.ttf
1078776	WORD	wordpools/wasnorm_wordpool_less_exclusions.txt	LTP335	ltpFR	6	8	0	PUB	1135	n/a	n/a	1	0.57763671875	0.412841796875	1	upper	amplitud.ttf
1082858	WORD	wordpools/wasnorm_wordpool_less_exclusions.txt	LTP335	ltpFR	6	8	0	INSECT	740	n/a	n/a	0	0.57763671875	0.412841796875	1	upper	amplitud.ttf
1086856	WORD	wordpools/wasnorm_wordpool_less_exclusions.txt	LTP335	ltpFR	6	8	0	LETTER	813	n/a	n/a	1	0.57763671875	0.412841796875	1	upper	amplitud.ttf
1090887	WORD	wordpools/wasnorm_wordpool_less_exclusions.txt	LTP335	ltpFR	6	8	0	RECORD	1176	n/a	n/a	1	0.57763671875	0.412841796875	1	upper	amplitud.ttf
1095052	WORD	wordpools/wasnorm_wordpool_less_exclusions.txt	LTP335	ltpFR	6	8	0	MERMAID	887	n/a	n/a	1	0.57763671875	0.412841796875	1	upper	amplitud.ttf
1099117	WORD	wordpools/wasnorm_wordpool_less_exclusions.txt	LTP335	ltpFR	6	8	0	COD	340	n/a	n/a	1	0.57763671875	0.412841796875	1	upper	amplitud.ttf
1104815	REC_START	n/a	LTP335	ltpFR	6	8	n/a	n/a	n/a	n/a	n/a	n/a	n/a	n/a	n/a	n/a	n/a
1106166	REC_WORD	wordpools/wasnorm_wordpool_less_exclusions.txt	LTP335	ltpFR	6	8	0	MERMAID	887	n/a	n/a	1	n/a	n/a	n/a	n/a	n/a
1107468	REC_WORD	wordpools/wasnorm_wordpool_less_exclusions.txt	LTP335	ltpFR	6	8	0	COD	340	n/a	n/a	1	n/a	n/a	n/a	n/a	n/a
1108575	REC_WORD	wordpools/wasnorm_wordpool_less_exclusions.txt	LTP335	ltpFR	6	8	0	RECORD	1176	n/a	n/a	1	n/a	n/a	n/a	n/a	n/a
1109864	REC_WORD	wordpools/wasnorm_wordpool_less_exclusions.txt	LTP335	ltpFR	6	8	0	LETTER	813	n/a	n/a	1	n/a	n/a	n/a	n/a	n/a
1111132	REC_WORD	wordpools/wasnorm_wordpool_less_exclusions.txt	LTP335	ltpFR	6	8	0	PAW	1029	n/a	n/a	1	n/a	n/a	n/a	n/a	n/a
1112226	REC_WORD	wordpools/wasnorm_wordpool_less_exclusions.txt	LTP335	ltpFR	6	8	0	MOSS	918	n/a	n/a	1	n/a	n/a	n/a	n/a	n/a
1113520	REC_WORD	wordpools/wasnorm_wordpool_less_exclusions.txt	LTP335	ltpFR	6	8	0	EMPEROR	529	n/a	n/a	1	n/a	n/a	n/a	n/a	n/a
1114552	REC_WORD	wordpools/wasnorm_wordpool_less_exclusions.txt	LTP335	ltpFR	6	8	0	DICTATOR	462	n/a	n/a	1	n/a	n/a	n/a	n/a	n/a
1115714	REC_WORD	wordpools/wasnorm_wordpool_less_exclusions.txt	LTP335	ltpFR	6	8	0	COIN	343	n/a	n/a	0	n/a	n/a	n/a	n/a	n/a
1116853	REC_WORD	wordpools/wasnorm_wordpool_less_exclusions.txt	LTP335	ltpFR	6	8	0	PUB	1135	n/a	n/a	1	n/a	n/a	n/a	n/a	n/a
1128166	REC_WORD	wordpools/wasnorm_wordpool_less_exclusions.txt	LTP335	ltpFR	6	8	0	RODENT	1204	n/a	n/a	0	n/a	n/a	n/a	n/a	n/a
1129362	REC_WORD	wordpools/wasnorm_wordpool_less_exclusions.txt	LTP335	ltpFR	6	8	0	SAXOPHONE	1240	n/a	n/a	1	n/a	n/a	n/a	n/a	n/a
1130720	REC_WORD	wordpools/wasnorm_wordpool_less_exclusions.txt	LTP335	ltpFR	6	8	0	SUITCASE	1403	n/a	n/a	1	n/a	n/a	n/a	n/a	n/a
1132020	REC_WORD	wordpools/wasnorm_wordpool_less_exclusions.txt	LTP335	ltpFR	6	8	0	MAPLE	866	n/a	n/a	1	n/a	n/a	n/a	n/a	n/a
1132988	REC_WORD	wordpools/wasnorm_wordpool_less_exclusions.txt	LTP335	ltpFR	6	8	0	SHED	1277	n/a	n/a	1	n/a	n/a	n/a	n/a	n/a
1171675	REC_WORD	wordpools/wasnorm_wordpool_less_exclusions.txt	LTP335	ltpFR	6	8	0	INSECT	740	n/a	n/a	0	n/a	n/a	n/a	n/a	n/a
1180396	REST_REWET	n/a	LTP335	ltpFR	6	8	n/a	n/a	n/a	n/a	n/a	n/a	n/a	n/a	n/a	n/a	n/a
1382838	WORD	wordpools/wasnorm_wordpool_less_exclusions.txt	LTP335	ltpFR	6	9	1	BRUNETTE	181	n/a	n/a	1	0.422607421875	0.5869140625	0	lower	zerothre.ttf
1386936	WORD	wordpools/wasnorm_wordpool_less_exclusions.txt	LTP335	ltpFR	6	9	1	LION	827	n/a	n/a	1	0.422607421875	0.5869140625	0	lower	zerothre.ttf
1390901	WORD	wordpools/wasnorm_wordpool_less_exclusions.txt	LTP335	ltpFR	6	9	1	FLASK	576	n/a	n/a	0	0.422607421875	0.5869140625	0	lower	zerothre.ttf
1395049	WORD	wordpools/wasnorm_wordpool_less_exclusions.txt	LTP335	ltpFR	6	9	1	FLUTE	585	n/a	n/a	0	0.422607421875	0.5869140625	0	lower	zerothre.ttf
1399014	WORD	wordpools/wasnorm_wordpool_less_exclusions.txt	LTP335	ltpFR	6	9	1	STEREO	1378	n/a	n/a	0	0.422607421875	0.5869140625	0	lower	zerothre.ttf
1403178	WORD	wordpools/wasnorm_wordpool_less_exclusions.txt	LTP335	ltpFR	6	9	1	COMMUNITY	356	n/a	n/a	0	0.422607421875	0.5869140625	0	lower	zerothre.ttf
1407293	WORD	wordpools/wasnorm_wordpool_less_exclusions.txt	LTP335	ltpFR	6	9	0	BRUSH	182	n/a	n/a	0	0.57763671875	0.412841796875	1	upper	amplitud.ttf
1411441	WORD	wordpools/wasnorm_wordpool_less_exclusions.txt	LTP335	ltpFR	6	9	0	PAINTER	1004	n/a	n/a	1	0.57763671875	0.412841796875	1	upper	amplitud.ttf
1415622	WORD	wordpools/wasnorm_wordpool_less_exclusions.txt	LTP335	ltpFR	6	9	0	DOLL	481	n/a	n/a	0	0.57763671875	0.412841796875	1	upper	amplitud.ttf
1419655	WORD	wordpools/wasnorm_wordpool_less_exclusions.txt	LTP335	ltpFR	6	9	1	PEOPLE	1046	n/a	n/a	1	0.422607421875	0.5869140625	0	lower	zerothre.ttf
1423569	WORD	wordpools/wasnorm_wordpool_less_exclusions.txt	LTP335	ltpFR	6	9	1	MALL	860	n/a	n/a	0	0.422607421875	0.5869140625	0	lower	zerothre.ttf
1427701	WORD	wordpools/wasnorm_wordpool_less_exclusions.txt	LTP335	ltpFR	6	9	0	TICK	1463	n/a	n/a	0	0.57763671875	0.412841796875	1	upper	amplitud.ttf
1431849	WORD	wordpools/wasnorm_wordpool_less_exclusions.txt	LTP335	ltpFR	6	9	0	COCOON	339	n/a	n/a	0	0.57763671875	0.412841796875	1	upper	amplitud.ttf
1435697	WORD	wordpools/wasnorm_wordpool_less_exclusions.txt	LTP335	ltpFR	6	9	0	GROCERIES	663	n/a	n/a	1	0.57763671875	0.412841796875	1	upper	amplitud.ttf
1439779	WORD	wordpools/wasnorm_wordpool_less_exclusions.txt	LTP335	ltpFR	6	9	0	CREATURE	403	n/a	n/a	1	0.57763671875	0.412841796875	1	upper	amplitud.ttf
1443644	WORD	wordpools/wasnorm_wordpool_less_exclusions.txt	LTP335	ltpFR	6	9	0	CHAMPAGNE	278	n/a	n/a	0	0.57763671875	0.412841796875	1	upper	amplitud.ttf
1449558	REC_START	n/a	LTP335	ltpFR	6	9	n/a	n/a	n/a	n/a	n/a	n/a	n/a	n/a	n/a	n/a	n/a
1451490	REC_WORD	wordpools/wasnorm_wordpool_less_exclusions.txt	LTP335	ltpFR	6	9	0	GROCERIES	663	n/a	n/a	1	n/a	n/a	n/a	n/a	n/a
1452641	REC_WORD	wordpools/wasnorm_wordpool_less_exclusions.txt	LTP335	ltpFR	6	9	0	CREATURE	403	n/a	n/a	1	n/a	n/a	n/a	n/a	n/a
1453734	REC_WORD	wordpools/wasnorm_wordpool_less_exclusions.txt	LTP335	ltpFR	6	9	0	CHAMPAGNE	278	n/a	n/a	0	n/a	n/a	n/a	n/a	n/a
1455546	REC_WORD	wordpools/wasnorm_wordpool_less_exclusions.txt	LTP335	ltpFR	6	9	0	TICK	1463	n/a	n/a	0	n/a	n/a	n/a	n/a	n/a
1456551	REC_WORD	wordpools/wasnorm_wordpool_less_exclusions.txt	LTP335	ltpFR	6	9	0	COCOON	339	n/a	n/a	0	n/a	n/a	n/a	n/a	n/a
1462894	REC_WORD	wordpools/wasnorm_wordpool_less_exclusions.txt	LTP335	ltpFR	6	9	1	PEOPLE	1046	n/a	n/a	1	n/a	n/a	n/a	n/a	n/a
1464801	REC_WORD	wordpools/wasnorm_wordpool_less_exclusions.txt	LTP335	ltpFR	6	9	1	MALL	860	n/a	n/a	0	n/a	n/a	n/a	n/a	n/a
1468651	REC_WORD	wordpools/wasnorm_wordpool_less_exclusions.txt	LTP335	ltpFR	6	9	0	PAINTER	1004	n/a	n/a	1	n/a	n/a	n/a	n/a	n/a
1469805	REC_WORD	wordpools/wasnorm_wordpool_less_exclusions.txt	LTP335	ltpFR	6	9	0	BRUSH	182	n/a	n/a	0	n/a	n/a	n/a	n/a	n/a
1470719	REC_WORD	wordpools/wasnorm_wordpool_less_exclusions.txt	LTP335	ltpFR	6	9	1	COMMUNITY	356	n/a	n/a	0	n/a	n/a	n/a	n/a	n/a
1472043	REC_WORD	wordpools/wasnorm_wordpool_less_exclusions.txt	LTP335	ltpFR	6	9	0	DOLL	481	n/a	n/a	0	n/a	n/a	n/a	n/a	n/a
1499990	REC_WORD	wordpools/wasnorm_wordpool_less_exclusions.txt	LTP335	ltpFR	6	9	1	BRUNETTE	181	n/a	n/a	1	n/a	n/a	n/a	n/a	n/a
1501898	REC_WORD	wordpools/wasnorm_wordpool_less_exclusions.txt	LTP335	ltpFR	6	9	1	LION	827	n/a	n/a	1	n/a	n/a	n/a	n/a	n/a
1528039	WORD	wordpools/wasnorm_wordpool_less_exclusions.txt	LTP335	ltpFR	6	10	1	TURKEY	1520	n/a	n/a	1	0.422607421875	0.5869140625	0	lower	zerothre.ttf
1532219	WORD	wordpools/wasnorm_wordpool_less_exclusions.txt	LTP335	ltpFR	6	10	1	ROBIN	1199	n/a	n/a	1	0.422607421875	0.5869140625	0	lower	zerothre.ttf
1536118	WORD	wordpools/wasnorm_wordpool_less_exclusions.txt	LTP335	ltpFR	6	10	0	VENUS	1557	n/a	n/a	1	0.57763671875	0.412841796875	1	upper	amplitud.ttf
1539983	WORD	wordpools/wasnorm_wordpool_less_exclusions.txt	LTP335	ltpFR	6	10	0	HERD	705	n/a	n/a	1	0.57763671875	0.412841796875	1	upper	amplitud.ttf
1544081	WORD	wordpools/wasnorm_wordpool_less_exclusions.txt	LTP335	ltpFR	6	10	0	PASTA	1021	n/a	n/a	0	0.57763671875	0.412841796875	1	upper	amplitud.ttf
1548229	WORD	wordpools/wasnorm_wordpool_less_exclusions.txt	LTP335	ltpFR	6	10	0	NAPKIN	937	n/a	n/a	0	0.57763671875	0.412841796875	1	upper	amplitud.ttf
1552144	WORD	wordpools/wasnorm_wordpool_less_exclusions.txt	LTP335	ltpFR	6	10	1	STAPLE	1371	n/a	n/a	0	0.422607421875	0.5869140625	0	lower	zerothre.ttf
1556059	WORD	wordpools/wasnorm_wordpool_less_exclusions.txt	LTP335	ltpFR	6	10	1	PASSAGE	1019	n/a	n/a	0	0.422607421875	0.5869140625	0	lower	zerothre.ttf
1560158	WORD	wordpools/wasnorm_wordpool_less_exclusions.txt	LTP335	ltpFR	6	10	0	NEPTUNE	943	n/a	n/a	1	0.57763671875	0.412841796875	1	upper	amplitud.ttf
1564056	WORD	wordpools/wasnorm_wordpool_less_exclusions.txt	LTP335	ltpFR	6	10	0	NUN	962	n/a	n/a	1	0.57763671875	0.412841796875	1	upper	amplitud.ttf
1567954	WORD	wordpools/wasnorm_wordpool_less_exclusions.txt	LTP335	ltpFR	6	10	0	CONSUMER	365	n/a	n/a	1	0.57763671875	0.412841796875	1	upper	amplitud.ttf
1571802	WORD	wordpools/wasnorm_wordpool_less_exclusions.txt	LTP335	ltpFR	6	10	0	LIMOUSINE	824	n/a	n/a	1	0.57763671875	0.412841796875	1	upper	amplitud.ttf
1575650	WORD	wordpools/wasnorm_wordpool_less_exclusions.txt	LTP335	ltpFR	6	10	1	DRUM	502	n/a	n/a	0	0.422607421875	0.5869140625	0	lower	zerothre.ttf
1579815	WORD	wordpools/wasnorm_wordpool_less_exclusions.txt	LTP335	ltpFR	6	10	1	OBOE	969	n/a	n/a	0	0.422607421875	0.5869140625	0	lower	zerothre.ttf
1584030	WORD	wordpools/wasnorm_wordpool_less_exclusions.txt	LTP335	ltpFR	6	10	1	LIVER	833	n/a	n/a	0	0.422607421875	0.5869140625	0	lower	zerothre.ttf
1587911	WORD	wordpools/wasnorm_wordpool_less_exclusions.txt	LTP335	ltpFR	6	10	1	KNOB	787	n/a	n/a	0	0.422607421875	0.5869140625	0	lower	zerothre.ttf
1593726	REC_START	n/a	LTP335	ltpFR	6	10	n/a	n/a	n/a	n/a	n/a	n/a	n/a	n/a	n/a	n/a	n/a
1595459	REC_WORD	wordpools/wasnorm_wordpool_less_exclusions.txt	LTP335	ltpFR	6	10	1	LIVER	833	n/a	n/a	0	n/a	n/a	n/a	n/a	n/a
1596418	REC_WORD	wordpools/wasnorm_wordpool_less_exclusions.txt	LTP335	ltpFR	6	10	1	KNOB	787	n/a	n/a	0	n/a	n/a	n/a	n/a	n/a
1598329	REC_WORD	wordpools/wasnorm_wordpool_less_exclusions.txt	LTP335	ltpFR	6	10	1	DRUM	502	n/a	n/a	0	n/a	n/a	n/a	n/a	n/a
1601572	REC_WORD	wordpools/wasnorm_wordpool_less_exclusions.txt	LTP335	ltpFR	6	10	0	NUN	962	n/a	n/a	1	n/a	n/a	n/a	n/a	n/a
1603506	REC_WORD	wordpools/wasnorm_wordpool_less_exclusions.txt	LTP335	ltpFR	6	10	0	CONSUMER	365	n/a	n/a	1	n/a	n/a	n/a	n/a	n/a
1605446	REC_WORD	wordpools/wasnorm_wordpool_less_exclusions.txt	LTP335	ltpFR	6	10	0	LIMOUSINE	824	n/a	n/a	1	n/a	n/a	n/a	n/a	n/a
1612027	REC_WORD	wordpools/wasnorm_wordpool_less_exclusions.txt	LTP335	ltpFR	6	10	1	STAPLE	1371	n/a	n/a	0	n/a	n/a	n/a	n/a	n/a
1621491	REC_WORD	wordpools/wasnorm_wordpool_less_exclusions.txt	LTP335	ltpFR	6	10	1	OBOE	969	n/a	n/a	0	n/a	n/a	n/a	n/a	n/a
1674022	WORD	wordpools/wasnorm_wordpool_less_exclusions.txt	LTP335	ltpFR	6	11	0	TEAM	1441	n/a	n/a	1	0.57763671875	0.412841796875	1	upper	amplitud.ttf
1677904	WORD	wordpools/wasnorm_wordpool_less_exclusions.txt	LTP335	ltpFR	6	11	0	PLANET	1082	n/a	n/a	0	0.57763671875	0.412841796875	1	upper	amplitud.ttf
1682019	WORD	wordpools/wasnorm_wordpool_less_exclusions.txt	LTP335	ltpFR	6	11	0	CENT	270	n/a	n/a	0	0.57763671875	0.412841796875	1	upper	amplitud.ttf
1685850	WORD	wordpools/wasnorm_wordpool_less_exclusions.txt	LTP335	ltpFR	6	11	0	TREASURE	1500	n/a	n/a	1	0.57763671875	0.412841796875	1	upper	amplitud.ttf
1689948	WORD	wordpools/wasnorm_wordpool_less_exclusions.txt	LTP335	ltpFR	6	11	0	HEN	703	n/a	n/a	1	0.57763671875	0.412841796875	1	upper	amplitud.ttf
1694063	WORD	wordpools/wasnorm_wordpool_less_exclusions.txt	LTP335	ltpFR	6	11	0	BEAKER	104	n/a	n/a	0	0.57763671875	0.412841796875	1	upper	amplitud.ttf
1698277	WORD	wordpools/wasnorm_wordpool_less_exclusions.txt	LTP335	ltpFR	6	11	1	SIGN	1305	n/a	n/a	0	0.422607421875	0.5869140625	0	lower	zerothre.ttf
1702442	WORD	wordpools/wasnorm_wordpool_less_exclusions.txt	LTP335	ltpFR	6	11	1	ROOSTER	1209	n/a	n/a	1	0.422607421875	0.5869140625	0	lower	zerothre.ttf
1706573	WORD	wordpools/wasnorm_wordpool_less_exclusions.txt	LTP335	ltpFR	6	11	1	CATCHER	258	n/a	n/a	1	0.422607421875	0.5869140625	0	lower	zerothre.ttf
1710621	WORD	wordpools/wasnorm_wordpool_less_exclusions.txt	LTP335	ltpFR	6	11	1	TAR	1435	n/a	n/a	1	0.422607421875	0.5869140625	0	lower	zerothre.ttf
1714520	WORD	wordpools/wasnorm_wordpool_less_exclusions.txt	LTP335	ltpFR	6	11	1	GLOBE	641	n/a	n/a	0	0.422607421875	0.5869140625	0	lower	zerothre.ttf
1718384	WORD	wordpools/wasnorm_wordpool_less_exclusions.txt	LTP335	ltpFR	6	11	1	DEPUTY	450	n/a	n/a	0	0.422607421875	0.5869140625	0	lower	zerothre.ttf
1722516	WORD	wordpools/wasnorm_wordpool_less_exclusions.txt	LTP335	ltpFR	6	11	0	SHERIFF	1284	n/a	n/a	3	0.57763671875	0.412841796875	1	upper	amplitud.ttf
1723482	KEY_MSG	n/a	LTP335	ltpFR	6	11	n/a	n/a	n/a	n/a	n/a	n/a	n/a	n/a	n/a	n/a	n/a
1726715	WORD	wordpools/wasnorm_wordpool_less_exclusions.txt	LTP335	ltpFR	6	11	0	TWEEZERS	1526	n/a	n/a	0	0.57763671875	0.412841796875	1	upper	amplitud.ttf
1730846	WORD	wordpools/wasnorm_wordpool_less_exclusions.txt	LTP335	ltpFR	6	11	1	ROOST	1208	n/a	n/a	1	0.422607421875	0.5869140625	0	lower	zerothre.ttf
1734995	WORD	wordpools/wasnorm_wordpool_less_exclusions.txt	LTP335	ltpFR	6	11	1	SPHINX	1349	n/a	n/a	1	0.422607421875	0.5869140625	0	lower	zerothre.ttf
1740643	REC_START	n/a	LTP335	ltpFR	6	11	n/a	n/a	n/a	n/a	n/a	n/a	n/a	n/a	n/a	n/a	n/a
1743921	REC_WORD	wordpools/wasnorm_wordpool_less_exclusions.txt	LTP335	ltpFR	6	11	0	TWEEZERS	1526	n/a	n/a	0	n/a	n/a	n/a	n/a	n/a
1748553	REC_WORD	wordpools/wasnorm_wordpool_less_exclusions.txt	LTP335	ltpFR	6	11	1	SPHINX	1349	n/a	n/a	1	n/a	n/a	n/a	n/a	n/a
1749948	REC_WORD	wordpools/wasnorm_wordpool_less_exclusions.txt	LTP335	ltpFR	6	11	1	ROOST	1208	n/a	n/a	1	n/a	n/a	n/a	n/a	n/a
1751155	REC_WORD	wordpools/wasnorm_wordpool_less_exclusions.txt	LTP335	ltpFR	6	11	1	ROOSTER	1209	n/a	n/a	1	n/a	n/a	n/a	n/a	n/a
1752262	REC_WORD	wordpools/wasnorm_wordpool_less_exclusions.txt	LTP335	ltpFR	6	11	0	HEN	703	n/a	n/a	1	n/a	n/a	n/a	n/a	n/a
1753509	REC_WORD	wordpools/wasnorm_wordpool_less_exclusions.txt	LTP335	ltpFR	6	11	0	BEAKER	104	n/a	n/a	0	n/a	n/a	n/a	n/a	n/a
1762085	REC_WORD	wordpools/wasnorm_wordpool_less_exclusions.txt	LTP335	ltpFR	6	11	0	TEAM	1441	n/a	n/a	1	n/a	n/a	n/a	n/a	n/a
1763389	REC_WORD	wordpools/wasnorm_wordpool_less_exclusions.txt	LTP335	ltpFR	6	11	0	PLANET	1082	n/a	n/a	0	n/a	n/a	n/a	n/a	n/a
1819272	WORD	wordpools/wasnorm_wordpool_less_exclusions.txt	LTP335	ltpFR	6	12	1	MEADOW	881	n/a	n/a	1	0.422607421875	0.5869140625	0	lower	zerothre.ttf
1823403	WORD	wordpools/wasnorm_wordpool_less_exclusions.txt	LTP335	ltpFR	6	12	1	CHURCH	307	n/a	n/a	0	0.422607421875	0.5869140625	0	lower	zerothre.ttf
1827568	WORD	wordpools/wasnorm_wordpool_less_exclusions.txt	LTP335	ltpFR	6	12	1	CARTON	251	n/a	n/a	0	0.422607421875	0.5869140625	0	lower	zerothre.ttf
1831533	WORD	wordpools/wasnorm_wordpool_less_exclusions.txt	LTP335	ltpFR	6	12	1	DIAL	457	n/a	n/a	0	0.422607421875	0.5869140625	0	lower	zerothre.ttf
1835749	WORD	wordpools/wasnorm_wordpool_less_exclusions.txt	LTP335	ltpFR	6	12	1	RECEPTIONIST	1174	n/a	n/a	1	0.422607421875	0.5869140625	0	lower	zerothre.ttf
1839930	WORD	wordpools/wasnorm_wordpool_less_exclusions.txt	LTP335	ltpFR	6	12	1	STEM	1376	n/a	n/a	0	0.422607421875	0.5869140625	0	lower	zerothre.ttf
1844145	WORD	wordpools/wasnorm_wordpool_less_exclusions.txt	LTP335	ltpFR	6	12	1	INN	739	n/a	n/a	1	0.422607421875	0.5869140625	0	lower	zerothre.ttf
1848160	WORD	wordpools/wasnorm_wordpool_less_exclusions.txt	LTP335	ltpFR	6	12	1	DRAGON	492	n/a	n/a	1	0.422607421875	0.5869140625	0	lower	zerothre.ttf
1852108	WORD	wordpools/wasnorm_wordpool_less_exclusions.txt	LTP335	ltpFR	6	12	1	SCALE	1241	n/a	n/a	0	0.422607421875	0.5869140625	0	lower	zerothre.ttf
1856123	WORD	wordpools/wasnorm_wordpool_less_exclusions.txt	LTP335	ltpFR	6	12	1	HIGHWAY	707	n/a	n/a	0	0.422607421875	0.5869140625	0	lower	zerothre.ttf
1860138	WORD	wordpools/wasnorm_wordpool_less_exclusions.txt	LTP335	ltpFR	6	12	1	FEMALE	559	n/a	n/a	1	0.422607421875	0.5869140625	0	lower	zerothre.ttf
1864103	WORD	wordpools/wasnorm_wordpool_less_exclusions.txt	LTP335	ltpFR	6	12	1	WOMAN	1620	n/a	n/a	1	0.422607421875	0.5869140625	0	lower	zerothre.ttf
1868333	WORD	wordpools/wasnorm_wordpool_less_exclusions.txt	LTP335	ltpFR	6	12	1	MONK	910	n/a	n/a	1	0.422607421875	0.5869140625	0	lower	zerothre.ttf
1872448	WORD	wordpools/wasnorm_wordpool_less_exclusions.txt	LTP335	ltpFR	6	12	1	COURSE	390	n/a	n/a	0	0.422607421875	0.5869140625	0	lower	zerothre.ttf
1876429	WORD	wordpools/wasnorm_wordpool_less_exclusions.txt	LTP335	ltpFR	6	12	1	YOLK	1633	n/a	n/a	0	0.422607421875	0.5869140625	0	lower	zerothre.ttf
1880394	WORD	wordpools/wasnorm_wordpool_less_exclusions.txt	LTP335	ltpFR	6	12	1	EGG	518	n/a	n/a	0	0.422607421875	0.5869140625	0	lower	zerothre.ttf
1886342	REC_START	n/a	LTP335	ltpFR	6	12	n/a	n/a	n/a	n/a	n/a	n/a	n/a	n/a	n/a	n/a	n/a
1887757	REC_WORD	wordpools/wasnorm_wordpool_less_exclusions.txt	LTP335	ltpFR	6	12	1	YOLK	1633	n/a	n/a	0	n/a	n/a	n/a	n/a	n/a
1888766	REC_WORD	wordpools/wasnorm_wordpool_less_exclusions.txt	LTP335	ltpFR	6	12	1	EGG	518	n/a	n/a	0	n/a	n/a	n/a	n/a	n/a
1889790	REC_WORD	wordpools/wasnorm_wordpool_less_exclusions.txt	LTP335	ltpFR	6	12	1	MONK	910	n/a	n/a	1	n/a	n/a	n/a	n/a	n/a
1890785	REC_WORD	wordpools/wasnorm_wordpool_less_exclusions.txt	LTP335	ltpFR	6	12	1	COURSE	390	n/a	n/a	0	n/a	n/a	n/a	n/a	n/a
1892027	REC_WORD	wordpools/wasnorm_wordpool_less_exclusions.txt	LTP335	ltpFR	6	12	1	FEMALE	559	n/a	n/a	1	n/a	n/a	n/a	n/a	n/a
1893264	REC_WORD	wordpools/wasnorm_wordpool_less_exclusions.txt	LTP335	ltpFR	6	12	1	WOMAN	1620	n/a	n/a	1	n/a	n/a	n/a	n/a	n/a
1900204	REC_WORD	wordpools/wasnorm_wordpool_less_exclusions.txt	LTP335	ltpFR	6	12	1	DIAL	457	n/a	n/a	0	n/a	n/a	n/a	n/a	n/a
1901219	REC_WORD	wordpools/wasnorm_wordpool_less_exclusions.txt	LTP335	ltpFR	6	12	1	RECEPTIONIST	1174	n/a	n/a	1	n/a	n/a	n/a	n/a	n/a
1905331	REC_WORD	wordpools/wasnorm_wordpool_less_exclusions.txt	LTP335	ltpFR	6	12	1	INN	739	n/a	n/a	1	n/a	n/a	n/a	n/a	n/a
1911770	REC_WORD	wordpools/wasnorm_wordpool_less_exclusions.txt	LTP335	ltpFR	6	12	1	CARTON	251	n/a	n/a	0	n/a	n/a	n/a	n/a	n/a
1921154	REC_WORD	wordpools/wasnorm_wordpool_less_exclusions.txt	LTP335	ltpFR	6	12	1	CHURCH	307	n/a	n/a	0	n/a	n/a	n/a	n/a	n/a
1924669	REC_WORD	wordpools/wasnorm_wordpool_less_exclusions.txt	LTP335	ltpFR	6	12	1	MEADOW	881	n/a	n/a	1	n/a	n/a	n/a	n/a	n/a
1966956	WORD	wordpools/wasnorm_wordpool_less_exclusions.txt	LTP335	ltpFR	6	13	0	RADIATOR	1156	n/a	n/a	0	0.57763671875	0.412841796875	1	upper	amplitud.ttf
1970821	WORD	wordpools/wasnorm_wordpool_less_exclusions.txt	LTP335	ltpFR	6	13	0	SUPPER	1411	n/a	n/a	0	0.57763671875	0.412841796875	1	upper	amplitud.ttf
1974986	WORD	wordpools/wasnorm_wordpool_less_exclusions.txt	LTP335	ltpFR	6	13	0	ABDOMEN	1	n/a	n/a	0	0.57763671875	0.412841796875	1	upper	amplitud.ttf
1979117	WORD	wordpools/wasnorm_wordpool_less_exclusions.txt	LTP335	ltpFR	6	13	0	BELL	118	n/a	n/a	0	0.57763671875	0.412841796875	1	upper	amplitud.ttf
1982965	WORD	wordpools/wasnorm_wordpool_less_exclusions.txt	LTP335	ltpFR	6	13	0	WINDSHIELD	1612	n/a	n/a	1	0.57763671875	0.412841796875	1	upper	amplitud.ttf
1987013	WORD	wordpools/wasnorm_wordpool_less_exclusions.txt	LTP335	ltpFR	6	13	0	INVENTOR	743	n/a	n/a	1	0.57763671875	0.412841796875	1	upper	amplitud.ttf
1991162	WORD	wordpools/wasnorm_wordpool_less_exclusions.txt	LTP335	ltpFR	6	13	0	COFFEE	341	n/a	n/a	0	0.57763671875	0.412841796875	1	upper	amplitud.ttf
1995126	WORD	wordpools/wasnorm_wordpool_less_exclusions.txt	LTP335	ltpFR	6	13	0	CAFE	216	n/a	n/a	1	0.57763671875	0.412841796875	1	upper	amplitud.ttf
1999025	WORD	wordpools/wasnorm_wordpool_less_exclusions.txt	LTP335	ltpFR	6	13	0	SLEEVE	1324	n/a	n/a	0	0.57763671875	0.412841796875	1	upper	amplitud.ttf
2002856	WORD	wordpools/wasnorm_wordpool_less_exclusions.txt	LTP335	ltpFR	6	13	0	SUGAR	1401	n/a	n/a	0	0.57763671875	0.412841796875	1	upper	amplitud.ttf
2006888	WORD	wordpools/wasnorm_wordpool_less_exclusions.txt	LTP335	ltpFR	6	13	0	CANDY	230	n/a	n/a	0	0.57763671875	0.412841796875	1	upper	amplitud.ttf
2010719	WORD	wordpools/wasnorm_wordpool_less_exclusions.txt	LTP335	ltpFR	6	13	0	CELERY	266	n/a	n/a	0	0.57763671875	0.412841796875	1	upper	amplitud.ttf
2014717	WORD	wordpools/wasnorm_wordpool_less_exclusions.txt	LTP335	ltpFR	6	13	0	BEAN	105	n/a	n/a	0	0.57763671875	0.412841796875	1	upper	amplitud.ttf
2018615	WORD	wordpools/wasnorm_wordpool_less_exclusions.txt	LTP335	ltpFR	6	13	0	SHARK	1275	n/a	n/a	1	0.57763671875	0.412841796875	1	upper	amplitud.ttf
2022731	WORD	wordpools/wasnorm_wordpool_less_exclusions.txt	LTP335	ltpFR	6	13	0	CONE	363	n/a	n/a	0	0.57763671875	0.412841796875	1	upper	amplitud.ttf
2026929	WORD	wordpools/wasnorm_wordpool_less_exclusions.txt	LTP335	ltpFR	6	13	0	PENDULUM	1043	n/a	n/a	1	0.57763671875	0.412841796875	1	upper	amplitud.ttf
2032876	REC_START	n/a	LTP335	ltpFR	6	13	n/a	n/a	n/a	n/a	n/a	n/a	n/a	n/a	n/a	n/a	n/a
2034156	REC_WORD	wordpools/wasnorm_wordpool_less_exclusions.txt	LTP335	ltpFR	6	13	0	SHARK	1275	n/a	n/a	1	n/a	n/a	n/a	n/a	n/a
2035463	REC_WORD	wordpools/wasnorm_wordpool_less_exclusions.txt	LTP335	ltpFR	6	13	0	CONE	363	n/a	n/a	0	n/a	n/a	n/a	n/a	n/a
2036694	REC_WORD	wordpools/wasnorm_wordpool_less_exclusions.txt	LTP335	ltpFR	6	13	0	PENDULUM	1043	n/a	n/a	1	n/a	n/a	n/a	n/a	n/a
2037874	REC_WORD	wordpools/wasnorm_wordpool_less_exclusions.txt	LTP335	ltpFR	6	13	0	SLEEVE	1324	n/a	n/a	0	n/a	n/a	n/a	n/a	n/a
2040010	REC_WORD	wordpools/wasnorm_wordpool_less_exclusions.txt	LTP335	ltpFR	6	13	0	SUGAR	1401	n/a	n/a	0	n/a	n/a	n/a	n/a	n/a
2041228	REC_WORD	wordpools/wasnorm_wordpool_less_exclusions.txt	LTP335	ltpFR	6	13	0	CANDY	230	n/a	n/a	0	n/a	n/a	n/a	n/a	n/a
2042358	REC_WORD	wordpools/wasnorm_wordpool_less_exclusions.txt	LTP335	ltpFR	6	13	0	CELERY	266	n/a	n/a	0	n/a	n/a	n/a	n/a	n/a
2044281	REC_WORD	wordpools/wasnorm_wordpool_less_exclusions.txt	LTP335	ltpFR	6	13	0	CAFE	216	n/a	n/a	1	n/a	n/a	n/a	n/a	n/a
2045871	REC_WORD	wordpools/wasnorm_wordpool_less_exclusions.txt	LTP335	ltpFR	6	13	0	COFFEE	341	n/a	n/a	0	n/a	n/a	n/a	n/a	n/a
2047114	REC_WORD	wordpools/wasnorm_wordpool_less_exclusions.txt	LTP335	ltpFR	6	13	0	SUPPER	1411	n/a	n/a	0	n/a	n/a	n/a	n/a	n/a
2048449	REC_WORD	wordpools/wasnorm_wordpool_less_exclusions.txt	LTP335	ltpFR	6	13	0	RADIATOR	1156	n/a	n/a	0	n/a	n/a	n/a	n/a	n/a
2049800	REC_WORD	wordpools/wasnorm_wordpool_less_exclusions.txt	LTP335	ltpFR	6	13	0	ABDOMEN	1	n/a	n/a	0	n/a	n/a	n/a	n/a	n/a
2058797	REC_WORD	wordpools/wasnorm_wordpool_less_exclusions.txt	LTP335	ltpFR	6	13	0	INVENTOR	743	n/a	n/a	1	n/a	n/a	n/a	n/a	n/a
2060258	REC_WORD	wordpools/wasnorm_wordpool_less_exclusions.txt	LTP335	ltpFR	6	13	0	BELL	118	n/a	n/a	0	n/a	n/a	n/a	n/a	n/a
2061254	REC_WORD	wordpools/wasnorm_wordpool_less_exclusions.txt	LTP335	ltpFR	6	13	0	WINDSHIELD	1612	n/a	n/a	1	n/a	n/a	n/a	n/a	n/a
2111940	WORD	wordpools/wasnorm_wordpool_less_exclusions.txt	LTP335	ltpFR	6	14	0	CHAMBER	277	n/a	n/a	1	0.57763671875	0.412841796875	1	upper	amplitud.ttf
2116155	WORD	wordpools/wasnorm_wordpool_less_exclusions.txt	LTP335	ltpFR	6	14	0	SUSPECT	1415	n/a	n/a	1	0.57763671875	0.412841796875	1	upper	amplitud.ttf
2119986	WORD	wordpools/wasnorm_wordpool_less_exclusions.txt	LTP335	ltpFR	6	14	1	LUNCH	849	n/a	n/a	0	0.422607421875	0.5869140625	0	lower	zerothre.ttf
2123868	WORD	wordpools/wasnorm_wordpool_less_exclusions.txt	LTP335	ltpFR	6	14	1	KANGAROO	768	n/a	n/a	1	0.422607421875	0.5869140625	0	lower	zerothre.ttf
2127933	WORD	wordpools/wasnorm_wordpool_less_exclusions.txt	LTP335	ltpFR	6	14	0	CHEERLEADER	288	n/a	n/a	1	0.57763671875	0.412841796875	1	upper	amplitud.ttf
2131981	WORD	wordpools/wasnorm_wordpool_less_exclusions.txt	LTP335	ltpFR	6	14	0	INSTRUCTOR	741	n/a	n/a	1	0.57763671875	0.412841796875	1	upper	amplitud.ttf
2135996	WORD	wordpools/wasnorm_wordpool_less_exclusions.txt	LTP335	ltpFR	6	14	0	LANDSCAPE	799	n/a	n/a	1	0.57763671875	0.412841796875	1	upper	amplitud.ttf
2139827	WORD	wordpools/wasnorm_wordpool_less_exclusions.txt	LTP335	ltpFR	6	14	1	SCALPEL	1243	n/a	n/a	0	0.422607421875	0.5869140625	0	lower	zerothre.ttf
2143992	WORD	wordpools/wasnorm_wordpool_less_exclusions.txt	LTP335	ltpFR	6	14	1	GODDESS	646	n/a	n/a	1	0.422607421875	0.5869140625	0	lower	zerothre.ttf
2147907	WORD	wordpools/wasnorm_wordpool_less_exclusions.txt	LTP335	ltpFR	6	14	1	COCKTAIL	338	n/a	n/a	0	0.422607421875	0.5869140625	0	lower	zerothre.ttf
2151922	WORD	wordpools/wasnorm_wordpool_less_exclusions.txt	LTP335	ltpFR	6	14	1	MICROPHONE	890	n/a	n/a	0	0.422607421875	0.5869140625	0	lower	zerothre.ttf
2156103	WORD	wordpools/wasnorm_wordpool_less_exclusions.txt	LTP335	ltpFR	6	14	1	FLASHLIGHT	575	n/a	n/a	0	0.422607421875	0.5869140625	0	lower	zerothre.ttf
2160234	WORD	wordpools/wasnorm_wordpool_less_exclusions.txt	LTP335	ltpFR	6	14	1	FRIAR	605	n/a	n/a	0	0.422607421875	0.5869140625	0	lower	zerothre.ttf
2164348	WORD	wordpools/wasnorm_wordpool_less_exclusions.txt	LTP335	ltpFR	6	14	0	MONASTERY	907	n/a	n/a	1	0.57763671875	0.412841796875	1	upper	amplitud.ttf
2168247	WORD	wordpools/wasnorm_wordpool_less_exclusions.txt	LTP335	ltpFR	6	14	0	SCREWDRIVER	1255	n/a	n/a	0	0.57763671875	0.412841796875	1	upper	amplitud.ttf
2172311	WORD	wordpools/wasnorm_wordpool_less_exclusions.txt	LTP335	ltpFR	6	14	0	LASER	801	n/a	n/a	1	0.57763671875	0.412841796875	1	upper	amplitud.ttf
2178127	REC_START	n/a	LTP335	ltpFR	6	14	n/a	n/a	n/a	n/a	n/a	n/a	n/a	n/a	n/a	n/a	n/a
2180084	REC_WORD	wordpools/wasnorm_wordpool_less_exclusions.txt	LTP335	ltpFR	6	14	0	MONASTERY	907	n/a	n/a	1	n/a	n/a	n/a	n/a	n/a
2181320	REC_WORD	wordpools/wasnorm_wordpool_less_exclusions.txt	LTP335	ltpFR	6	14	0	SCREWDRIVER	1255	n/a	n/a	0	n/a	n/a	n/a	n/a	n/a
2182989	REC_WORD	wordpools/wasnorm_wordpool_less_exclusions.txt	LTP335	ltpFR	6	14	0	LASER	801	n/a	n/a	1	n/a	n/a	n/a	n/a	n/a
2184391	REC_WORD	wordpools/wasnorm_wordpool_less_exclusions.txt	LTP335	ltpFR	6	14	1	GODDESS	646	n/a	n/a	1	n/a	n/a	n/a	n/a	n/a
2185615	REC_WORD	wordpools/wasnorm_wordpool_less_exclusions.txt	LTP335	ltpFR	6	14	1	FLASHLIGHT	575	n/a	n/a	0	n/a	n/a	n/a	n/a	n/a
2187294	REC_WORD	wordpools/wasnorm_wordpool_less_exclusions.txt	LTP335	ltpFR	6	14	1	MICROPHONE	890	n/a	n/a	0	n/a	n/a	n/a	n/a	n/a
2190379	REC_WORD	wordpools/wasnorm_wordpool_less_exclusions.txt	LTP335	ltpFR	6	14	0	LANDSCAPE	799	n/a	n/a	1	n/a	n/a	n/a	n/a	n/a
2205295	REC_WORD	wordpools/wasnorm_wordpool_less_exclusions.txt	LTP335	ltpFR	6	14	n/a	CONVICT	371	n/a	n/a	n/a	n/a	n/a	n/a	n/a	n/a
2207123	REC_WORD	wordpools/wasnorm_wordpool_less_exclusions.txt	LTP335	ltpFR	6	14	0	CHAMBER	277	n/a	n/a	1	n/a	n/a	n/a	n/a	n/a
2209110	REC_WORD	wordpools/wasnorm_wordpool_less_exclusions.txt	LTP335	ltpFR	6	14	1	LUNCH	849	n/a	n/a	0	n/a	n/a	n/a	n/a	n/a
2210288	REC_WORD	wordpools/wasnorm_wordpool_less_exclusions.txt	LTP335	ltpFR	6	14	1	KANGAROO	768	n/a	n/a	1	n/a	n/a	n/a	n/a	n/a
2212067	REC_WORD	wordpools/wasnorm_wordpool_less_exclusions.txt	LTP335	ltpFR	6	14	0	CHEERLEADER	288	n/a	n/a	1	n/a	n/a	n/a	n/a	n/a
2213606	REC_WORD	wordpools/wasnorm_wordpool_less_exclusions.txt	LTP335	ltpFR	6	14	0	INSTRUCTOR	741	n/a	n/a	1	n/a	n/a	n/a	n/a	n/a
2215125	REC_WORD	wordpools/wasnorm_wordpool_less_exclusions.txt	LTP335	ltpFR	6	14	1	SCALPEL	1243	n/a	n/a	0	n/a	n/a	n/a	n/a	n/a
2256891	WORD	wordpools/wasnorm_wordpool_less_exclusions.txt	LTP335	ltpFR	6	15	-1	OZONE	996	n/a	n/a	-1	1.0	1.0	1	upper	Verdana.ttf
2260972	WORD	wordpools/wasnorm_wordpool_less_exclusions.txt	LTP335	ltpFR	6	15	-1	CUE	422	n/a	n/a	-1	1.0	1.0	1	upper	Verdana.ttf
2265120	WORD	wordpools/wasnorm_wordpool_less_exclusions.txt	LTP335	ltpFR	6	15	-1	COUGAR	387	n/a	n/a	-1	1.0	1.0	1	upper	Verdana.ttf
2269267	WORD	wordpools/wasnorm_wordpool_less_exclusions.txt	LTP335	ltpFR	6	15	-1	BLOSSOM	138	n/a	n/a	-1	1.0	1.0	1	upper	Verdana.ttf
2273182	WORD	wordpools/wasnorm_wordpool_less_exclusions.txt	LTP335	ltpFR	6	15	-1	SEED	1266	n/a	n/a	-1	1.0	1.0	1	upper	Verdana.ttf
2277364	WORD	wordpools/wasnorm_wordpool_less_exclusions.txt	LTP335	ltpFR	6	15	-1	LODGE	839	n/a	n/a	-1	1.0	1.0	1	upper	Verdana.ttf
2281412	WORD	wordpools/wasnorm_wordpool_less_exclusions.txt	LTP335	ltpFR	6	15	-1	NITROGEN	954	n/a	n/a	-1	1.0	1.0	1	upper	Verdana.ttf
2285493	WORD	wordpools/wasnorm_wordpool_less_exclusions.txt	LTP335	ltpFR	6	15	-1	LETTUCE	814	n/a	n/a	-1	1.0	1.0	1	upper	Verdana.ttf
2289408	WORD	wordpools/wasnorm_wordpool_less_exclusions.txt	LTP335	ltpFR	6	15	-1	EXPERT	543	n/a	n/a	-1	1.0	1.0	1	upper	Verdana.ttf
2293456	WORD	wordpools/wasnorm_wordpool_less_exclusions.txt	LTP335	ltpFR	6	15	-1	SENATE	1267	n/a	n/a	-1	1.0	1.0	1	upper	Verdana.ttf
2297604	WORD	wordpools/wasnorm_wordpool_less_exclusions.txt	LTP335	ltpFR	6	15	-1	CABBAGE	210	n/a	n/a	-1	1.0	1.0	1	upper	Verdana.ttf
2301569	WORD	wordpools/wasnorm_wordpool_less_exclusions.txt	LTP335	ltpFR	6	15	-1	SCRIBBLE	1256	n/a	n/a	-1	1.0	1.0	1	upper	Verdana.ttf
2305518	WORD	wordpools/wasnorm_wordpool_less_exclusions.txt	LTP335	ltpFR	6	15	-1	DIAGRAM	456	n/a	n/a	-1	1.0	1.0	1	upper	Verdana.ttf
2309616	WORD	wordpools/wasnorm_wordpool_less_exclusions.txt	LTP335	ltpFR	6	15	-1	CRAB	397	n/a	n/a	-1	1.0	1.0	1	upper	Verdana.ttf
2313665	WORD	wordpools/wasnorm_wordpool_less_exclusions.txt	LTP335	ltpFR	6	15	-1	SALMON	1227	n/a	n/a	-1	1.0	1.0	1	upper	Verdana.ttf
2317746	WORD	wordpools/wasnorm_wordpool_less_exclusions.txt	LTP335	ltpFR	6	15	-1	VEGETABLE	1552	n/a	n/a	-1	1.0	1.0	1	upper	Verdana.ttf
2323694	REC_START	n/a	LTP335	ltpFR	6	15	n/a	n/a	n/a	n/a	n/a	n/a	n/a	n/a	n/a	n/a	n/a
2325459	REC_WORD	wordpools/wasnorm_wordpool_less_exclusions.txt	LTP335	ltpFR	6	15	-1	CRAB	397	n/a	n/a	-1	n/a	n/a	n/a	n/a	n/a
2326329	REC_WORD	wordpools/wasnorm_wordpool_less_exclusions.txt	LTP335	ltpFR	6	15	-1	SALMON	1227	n/a	n/a	-1	n/a	n/a	n/a	n/a	n/a
2327443	REC_WORD	wordpools/wasnorm_wordpool_less_exclusions.txt	LTP335	ltpFR	6	15	-1	VEGETABLE	1552	n/a	n/a	-1	n/a	n/a	n/a	n/a	n/a
2329452	REC_WORD	wordpools/wasnorm_wordpool_less_exclusions.txt	LTP335	ltpFR	6	15	-1	DIAGRAM	456	n/a	n/a	-1	n/a	n/a	n/a	n/a	n/a
2330471	REC_WORD	wordpools/wasnorm_wordpool_less_exclusions.txt	LTP335	ltpFR	6	15	-1	SCRIBBLE	1256	n/a	n/a	-1	n/a	n/a	n/a	n/a	n/a
2332306	REC_WORD	wordpools/wasnorm_wordpool_less_exclusions.txt	LTP335	ltpFR	6	15	-1	EXPERT	543	n/a	n/a	-1	n/a	n/a	n/a	n/a	n/a
2334025	REC_WORD	wordpools/wasnorm_wordpool_less_exclusions.txt	LTP335	ltpFR	6	15	-1	LETTUCE	814	n/a	n/a	-1	n/a	n/a	n/a	n/a	n/a
2334918	REC_WORD	wordpools/wasnorm_wordpool_less_exclusions.txt	LTP335	ltpFR	6	15	-1	NITROGEN	954	n/a	n/a	-1	n/a	n/a	n/a	n/a	n/a
2336145	REC_WORD	wordpools/wasnorm_wordpool_less_exclusions.txt	LTP335	ltpFR	6	15	-1	CABBAGE	210	n/a	n/a	-1	n/a	n/a	n/a	n/a	n/a
2337219	REC_WORD	wordpools/wasnorm_wordpool_less_exclusions.txt	LTP335	ltpFR	6	15	-1	SENATE	1267	n/a	n/a	-1	n/a	n/a	n/a	n/a	n/a
2342039	REC_WORD	wordpools/wasnorm_wordpool_less_exclusions.txt	LTP335	ltpFR	6	15	-1	CUE	422	n/a	n/a	-1	n/a	n/a	n/a	n/a	n/a
2343058	REC_WORD	wordpools/wasnorm_wordpool_less_exclusions.txt	LTP335	ltpFR	6	15	-1	COUGAR	387	n/a	n/a	-1	n/a	n/a	n/a	n/a	n/a
2344232	REC_WORD	wordpools/wasnorm_wordpool_less_exclusions.txt	LTP335	ltpFR	6	15	-1	OZONE	996	n/a	n/a	-1	n/a	n/a	n/a	n/a	n/a
2403058	WORD	wordpools/wasnorm_wordpool_less_exclusions.txt	LTP335	ltpFR	6	16	1	DOLPHIN	483	n/a	n/a	3	0.422607421875	0.5869140625	0	lower	zerothre.ttf
2404790	KEY_MSG	n/a	LTP335	ltpFR	6	16	n/a	n/a	n/a	n/a	n/a	n/a	n/a	n/a	n/a	n/a	n/a
2407405	WORD	wordpools/wasnorm_wordpool_less_exclusions.txt	LTP335	ltpFR	6	16	1	TEACHER	1440	n/a	n/a	1	0.422607421875	0.5869140625	0	lower	zerothre.ttf
2411353	WORD	wordpools/wasnorm_wordpool_less_exclusions.txt	LTP335	ltpFR	6	16	1	HORNET	718	n/a	n/a	1	0.422607421875	0.5869140625	0	lower	zerothre.ttf
2415351	WORD	wordpools/wasnorm_wordpool_less_exclusions.txt	LTP335	ltpFR	6	16	1	GATE	625	n/a	n/a	0	0.422607421875	0.5869140625	0	lower	zerothre.ttf
2419333	WORD	wordpools/wasnorm_wordpool_less_exclusions.txt	LTP335	ltpFR	6	16	1	VACUUM	1543	n/a	n/a	0	0.422607421875	0.5869140625	0	lower	zerothre.ttf
2423297	WORD	wordpools/wasnorm_wordpool_less_exclusions.txt	LTP335	ltpFR	6	16	1	SURF	1412	n/a	n/a	0	0.422607421875	0.5869140625	0	lower	zerothre.ttf
2427462	WORD	wordpools/wasnorm_wordpool_less_exclusions.txt	LTP335	ltpFR	6	16	1	WATERFALL	1595	n/a	n/a	0	0.422607421875	0.5869140625	0	lower	zerothre.ttf
2431394	WORD	wordpools/wasnorm_wordpool_less_exclusions.txt	LTP335	ltpFR	6	16	1	TIMBER	1469	n/a	n/a	1	0.422607421875	0.5869140625	0	lower	zerothre.ttf
2435409	WORD	wordpools/wasnorm_wordpool_less_exclusions.txt	LTP335	ltpFR	6	16	1	FIG	563	n/a	n/a	0	0.422607421875	0.5869140625	0	lower	zerothre.ttf
2439457	WORD	wordpools/wasnorm_wordpool_less_exclusions.txt	LTP335	ltpFR	6	16	1	GOOSE	649	n/a	n/a	1	0.422607421875	0.5869140625	0	lower	zerothre.ttf
2443638	WORD	wordpools/wasnorm_wordpool_less_exclusions.txt	LTP335	ltpFR	6	16	1	CLAW	319	n/a	n/a	0	0.422607421875	0.5869140625	0	lower	zerothre.ttf
2447553	WORD	wordpools/wasnorm_wordpool_less_exclusions.txt	LTP335	ltpFR	6	16	1	ROCK	1201	n/a	n/a	0	0.422607421875	0.5869140625	0	lower	zerothre.ttf
2451601	WORD	wordpools/wasnorm_wordpool_less_exclusions.txt	LTP335	ltpFR	6	16	1	CANYON	235	n/a	n/a	0	0.422607421875	0.5869140625	0	lower	zerothre.ttf
2455499	WORD	wordpools/wasnorm_wordpool_less_exclusions.txt	LTP335	ltpFR	6	16	1	TAIL	1430	n/a	n/a	0	0.422607421875	0.5869140625	0	lower	zerothre.ttf
2459381	WORD	wordpools/wasnorm_wordpool_less_exclusions.txt	LTP335	ltpFR	6	16	1	FLIPPER	580	n/a	n/a	0	0.422607421875	0.5869140625	0	lower	zerothre.ttf
2463546	WORD	wordpools/wasnorm_wordpool_less_exclusions.txt	LTP335	ltpFR	6	16	1	HINGE	709	n/a	n/a	0	0.422607421875	0.5869140625	0	lower	zerothre.ttf
2469177	REC_START	n/a	LTP335	ltpFR	6	16	n/a	n/a	n/a	n/a	n/a	n/a	n/a	n/a	n/a	n/a	n/a
2473291	REC_WORD	wordpools/wasnorm_wordpool_less_exclusions.txt	LTP335	ltpFR	6	16	1	ROCK	1201	n/a	n/a	0	n/a	n/a	n/a	n/a	n/a
2474608	REC_WORD	wordpools/wasnorm_wordpool_less_exclusions.txt	LTP335	ltpFR	6	16	1	CANYON	235	n/a	n/a	0	n/a	n/a	n/a	n/a	n/a
2476891	REC_WORD	wordpools/wasnorm_wordpool_less_exclusions.txt	LTP335	ltpFR	6	16	1	HINGE	709	n/a	n/a	0	n/a	n/a	n/a	n/a	n/a
2482967	REC_WORD	wordpools/wasnorm_wordpool_less_exclusions.txt	LTP335	ltpFR	6	16	1	GATE	625	n/a	n/a	0	n/a	n/a	n/a	n/a	n/a
2484594	REC_WORD	wordpools/wasnorm_wordpool_less_exclusions.txt	LTP335	ltpFR	6	16	1	HORNET	718	n/a	n/a	1	n/a	n/a	n/a	n/a	n/a
2486330	REC_WORD	wordpools/wasnorm_wordpool_less_exclusions.txt	LTP335	ltpFR	6	16	1	VACUUM	1543	n/a	n/a	0	n/a	n/a	n/a	n/a	n/a
2564984	REC_START	n/a	LTP335	ltpFR	6	n/a	n/a	n/a	n/a	n/a	n/a	n/a	n/a	n/a	n/a	n/a	n/a
2567135	FFR_REC_WORD	wordpools/wasnorm_wordpool_less_exclusions.txt	LTP335	ltpFR	6	n/a	1	HORNET	718	n/a	n/a	1	n/a	n/a	n/a	n/a	n/a
2568435	FFR_REC_WORD	wordpools/wasnorm_wordpool_less_exclusions.txt	LTP335	ltpFR	6	n/a	1	GATE	625	n/a	n/a	0	n/a	n/a	n/a	n/a	n/a
2570163	FFR_REC_WORD	wordpools/wasnorm_wordpool_less_exclusions.txt	LTP335	ltpFR	6	n/a	1	VACUUM	1543	n/a	n/a	0	n/a	n/a	n/a	n/a	n/a
2571724	FFR_REC_WORD	wordpools/wasnorm_wordpool_less_exclusions.txt	LTP335	ltpFR	6	n/a	1	HINGE	709	n/a	n/a	0	n/a	n/a	n/a	n/a	n/a
2573276	FFR_REC_WORD	wordpools/wasnorm_wordpool_less_exclusions.txt	LTP335	ltpFR	6	n/a	1	ROCK	1201	n/a	n/a	0	n/a	n/a	n/a	n/a	n/a
2577499	FFR_REC_WORD	wordpools/wasnorm_wordpool_less_exclusions.txt	LTP335	ltpFR	6	n/a	-1	WAITRESS	1581	n/a	n/a	-1	n/a	n/a	n/a	n/a	n/a
2578455	FFR_REC_WORD	wordpools/wasnorm_wordpool_less_exclusions.txt	LTP335	ltpFR	6	n/a	0	CAFE	216	n/a	n/a	1	n/a	n/a	n/a	n/a	n/a
2579642	FFR_REC_WORD	wordpools/wasnorm_wordpool_less_exclusions.txt	LTP335	ltpFR	6	n/a	0	COFFEE	341	n/a	n/a	0	n/a	n/a	n/a	n/a	n/a
2581895	FFR_REC_WORD	wordpools/wasnorm_wordpool_less_exclusions.txt	LTP335	ltpFR	6	n/a	1	JUGGLER	763	n/a	n/a	1	n/a	n/a	n/a	n/a	n/a
2587522	FFR_REC_WORD	wordpools/wasnorm_wordpool_less_exclusions.txt	LTP335	ltpFR	6	n/a	-1	EXPERT	543	n/a	n/a	-1	n/a	n/a	n/a	n/a	n/a
2588735	FFR_REC_WORD	wordpools/wasnorm_wordpool_less_exclusions.txt	LTP335	ltpFR	6	n/a	-1	NITROGEN	954	n/a	n/a	-1	n/a	n/a	n/a	n/a	n/a
2589816	FFR_REC_WORD	wordpools/wasnorm_wordpool_less_exclusions.txt	LTP335	ltpFR	6	n/a	-1	CABBAGE	210	n/a	n/a	-1	n/a	n/a	n/a	n/a	n/a
2590718	FFR_REC_WORD	wordpools/wasnorm_wordpool_less_exclusions.txt	LTP335	ltpFR	6	n/a	-1	LETTUCE	814	n/a	n/a	-1	n/a	n/a	n/a	n/a	n/a
2591593	FFR_REC_WORD	wordpools/wasnorm_wordpool_less_exclusions.txt	LTP335	ltpFR	6	n/a	-1	SENATE	1267	n/a	n/a	-1	n/a	n/a	n/a	n/a	n/a
2592717	FFR_REC_WORD	wordpools/wasnorm_wordpool_less_exclusions.txt	LTP335	ltpFR	6	n/a	-1	DIAGRAM	456	n/a	n/a	-1	n/a	n/a	n/a	n/a	n/a
2593553	FFR_REC_WORD	wordpools/wasnorm_wordpool_less_exclusions.txt	LTP335	ltpFR	6	n/a	-1	SCRIBBLE	1256	n/a	n/a	-1	n/a	n/a	n/a	n/a	n/a
2597300	FFR_REC_WORD	wordpools/wasnorm_wordpool_less_exclusions.txt	LTP335	ltpFR	6	n/a	0	INVENTOR	743	n/a	n/a	1	n/a	n/a	n/a	n/a	n/a
2599591	FFR_REC_WORD	wordpools/wasnorm_wordpool_less_exclusions.txt	LTP335	ltpFR	6	n/a	0	BELL	118	n/a	n/a	0	n/a	n/a	n/a	n/a	n/a
2600405	FFR_REC_WORD	wordpools/wasnorm_wordpool_less_exclusions.txt	LTP335	ltpFR	6	n/a	0	WINDSHIELD	1612	n/a	n/a	1	n/a	n/a	n/a	n/a	n/a
2602788	FFR_REC_WORD	wordpools/wasnorm_wordpool_less_exclusions.txt	LTP335	ltpFR	6	n/a	-1	WALL	1582	n/a	n/a	-1	n/a	n/a	n/a	n/a	n/a
2604094	FFR_REC_WORD	wordpools/wasnorm_wordpool_less_exclusions.txt	LTP335	ltpFR	6	n/a	n/a	PLASTER	1085	n/a	n/a	n/a	n/a	n/a	n/a	n/a	n/a
2605307	FFR_REC_WORD	wordpools/wasnorm_wordpool_less_exclusions.txt	LTP335	ltpFR	6	n/a	-1	BLUEPRINT	142	n/a	n/a	-1	n/a	n/a	n/a	n/a	n/a
2609973	FFR_REC_WORD	wordpools/wasnorm_wordpool_less_exclusions.txt	LTP335	ltpFR	6	n/a	-1	RAILROAD	1162	n/a	n/a	-1	n/a	n/a	n/a	n/a	n/a
2615260	FFR_REC_WORD	wordpools/wasnorm_wordpool_less_exclusions.txt	LTP335	ltpFR	6	n/a	-1	TURNIP	1521	n/a	n/a	-1	n/a	n/a	n/a	n/a	n/a
2617671	FFR_REC_WORD	wordpools/wasnorm_wordpool_less_exclusions.txt	LTP335	ltpFR	6	n/a	-1	ONION	977	n/a	n/a	-1	n/a	n/a	n/a	n/a	n/a
2618303	FFR_REC_WORD	wordpools/wasnorm_wordpool_less_exclusions.txt	LTP335	ltpFR	6	n/a	-1	GARLIC	624	n/a	n/a	-1	n/a	n/a	n/a	n/a	n/a
2618863	FFR_REC_WORD	wordpools/wasnorm_wordpool_less_exclusions.txt	LTP335	ltpFR	6	n/a	-1	TOMATO	1476	n/a	n/a	-1	n/a	n/a	n/a	n/a	n/a
2626379	FFR_REC_WORD	wordpools/wasnorm_wordpool_less_exclusions.txt	LTP335	ltpFR	6	n/a	-1	BEET	115	n/a	n/a	-1	n/a	n/a	n/a	n/a	n/a
2627079	FFR_REC_WORD	wordpools/wasnorm_wordpool_less_exclusions.txt	LTP335	ltpFR	6	n/a	-1	CAULIFLOWER	262	n/a	n/a	-1	n/a	n/a	n/a	n/a	n/a
2631281	FFR_REC_WORD	wordpools/wasnorm_wordpool_less_exclusions.txt	LTP335	ltpFR	6	n/a	-1	COLESLAW	344	n/a	n/a	-1	n/a	n/a	n/a	n/a	n/a
2634042	FFR_REC_WORD	wordpools/wasnorm_wordpool_less_exclusions.txt	LTP335	ltpFR	6	n/a	-1	BIRD	129	n/a	n/a	-1	n/a	n/a	n/a	n/a	n/a
2639447	FFR_REC_WORD	wordpools/wasnorm_wordpool_less_exclusions.txt	LTP335	ltpFR	6	n/a	n/a	CONVICT	371	n/a	n/a	n/a	n/a	n/a	n/a	n/a	n/a
2640690	FFR_REC_WORD	wordpools/wasnorm_wordpool_less_exclusions.txt	LTP335	ltpFR	6	n/a	0	CHAMBER	277	n/a	n/a	1	n/a	n/a	n/a	n/a	n/a
2642381	FFR_REC_WORD	wordpools/wasnorm_wordpool_less_exclusions.txt	LTP335	ltpFR	6	n/a	1	LUNCH	849	n/a	n/a	0	n/a	n/a	n/a	n/a	n/a
2643393	FFR_REC_WORD	wordpools/wasnorm_wordpool_less_exclusions.txt	LTP335	ltpFR	6	n/a	1	KANGAROO	768	n/a	n/a	1	n/a	n/a	n/a	n/a	n/a
2645257	FFR_REC_WORD	wordpools/wasnorm_wordpool_less_exclusions.txt	LTP335	ltpFR	6	n/a	1	SCALPEL	1243	n/a	n/a	0	n/a	n/a	n/a	n/a	n/a
2646355	FFR_REC_WORD	wordpools/wasnorm_wordpool_less_exclusions.txt	LTP335	ltpFR	6	n/a	1	GODDESS	646	n/a	n/a	1	n/a	n/a	n/a	n/a	n/a
2648286	FFR_REC_WORD	wordpools/wasnorm_wordpool_less_exclusions.txt	LTP335	ltpFR	6	n/a	1	ANGEL	22	n/a	n/a	1	n/a	n/a	n/a	n/a	n/a
2649655	FFR_REC_WORD	wordpools/wasnorm_wordpool_less_exclusions.txt	LTP335	ltpFR	6	n/a	1	MEADOW	881	n/a	n/a	1	n/a	n/a	n/a	n/a	n/a
2651871	FFR_REC_WORD	wordpools/wasnorm_wordpool_less_exclusions.txt	LTP335	ltpFR	6	n/a	1	CHURCH	307	n/a	n/a	0	n/a	n/a	n/a	n/a	n/a
2654054	FFR_REC_WORD	wordpools/wasnorm_wordpool_less_exclusions.txt	LTP335	ltpFR	6	n/a	0	LANDSCAPE	799	n/a	n/a	1	n/a	n/a	n/a	n/a	n/a
2661793	FFR_REC_WORD	wordpools/wasnorm_wordpool_less_exclusions.txt	LTP335	ltpFR	6	n/a	0	INSECT	740	n/a	n/a	0	n/a	n/a	n/a	n/a	n/a
2663094	FFR_REC_WORD	wordpools/wasnorm_wordpool_less_exclusions.txt	LTP335	ltpFR	6	n/a	0	PAW	1029	n/a	n/a	1	n/a	n/a	n/a	n/a	n/a
2664152	FFR_REC_WORD	wordpools/wasnorm_wordpool_less_exclusions.txt	LTP335	ltpFR	6	n/a	0	MOSS	918	n/a	n/a	1	n/a	n/a	n/a	n/a	n/a
2667165	FFR_REC_WORD	wordpools/wasnorm_wordpool_less_exclusions.txt	LTP335	ltpFR	6	n/a	0	RODENT	1204	n/a	n/a	0	n/a	n/a	n/a	n/a	n/a
2669313	FFR_REC_WORD	wordpools/wasnorm_wordpool_less_exclusions.txt	LTP335	ltpFR	6	n/a	0	SAXOPHONE	1240	n/a	n/a	1	n/a	n/a	n/a	n/a	n/a
2670345	FFR_REC_WORD	wordpools/wasnorm_wordpool_less_exclusions.txt	LTP335	ltpFR	6	n/a	0	CLARINET	317	n/a	n/a	1	n/a	n/a	n/a	n/a	n/a
2671503	FFR_REC_WORD	wordpools/wasnorm_wordpool_less_exclusions.txt	LTP335	ltpFR	6	n/a	1	OBOE	969	n/a	n/a	0	n/a	n/a	n/a	n/a	n/a
2672459	FFR_REC_WORD	wordpools/wasnorm_wordpool_less_exclusions.txt	LTP335	ltpFR	6	n/a	-1	HARP	689	n/a	n/a	-1	n/a	n/a	n/a	n/a	n/a
2673629	FFR_REC_WORD	wordpools/wasnorm_wordpool_less_exclusions.txt	LTP335	ltpFR	6	n/a	-1	ORCHESTRA	981	n/a	n/a	-1	n/a	n/a	n/a	n/a	n/a
2678749	FFR_REC_WORD	wordpools/wasnorm_wordpool_less_exclusions.txt	LTP335	ltpFR	6	n/a	0	SUITCASE	1403	n/a	n/a	1	n/a	n/a	n/a	n/a	n/a
2679746	FFR_REC_WORD	wordpools/wasnorm_wordpool_less_exclusions.txt	LTP335	ltpFR	6	n/a	0	MAPLE	866	n/a	n/a	1	n/a	n/a	n/a	n/a	n/a
2680915	FFR_REC_WORD	wordpools/wasnorm_wordpool_less_exclusions.txt	LTP335	ltpFR	6	n/a	0	SHED	1277	n/a	n/a	1	n/a	n/a	n/a	n/a	n/a
2692527	FFR_REC_WORD	wordpools/wasnorm_wordpool_less_exclusions.txt	LTP335	ltpFR	6	n/a	0	INSECT	740	n/a	n/a	0	n/a	n/a	n/a	n/a	n/a
2693799	FFR_REC_WORD	wordpools/wasnorm_wordpool_less_exclusions.txt	LTP335	ltpFR	6	n/a	0	BEETLE	116	n/a	n/a	0	n/a	n/a	n/a	n/a	n/a
2710608	FFR_REC_WORD	wordpools/wasnorm_wordpool_less_exclusions.txt	LTP335	ltpFR	6	n/a	1	DRAGON	492	n/a	n/a	1	n/a	n/a	n/a	n/a	n/a
2711766	FFR_REC_WORD	wordpools/wasnorm_wordpool_less_exclusions.txt	LTP335	ltpFR	6	n/a	1	INN	739	n/a	n/a	1	n/a	n/a	n/a	n/a	n/a
2722519	FFR_REC_WORD	wordpools/wasnorm_wordpool_less_exclusions.txt	LTP335	ltpFR	6	n/a	0	MOSQUITO	917	n/a	n/a	0	n/a	n/a	n/a	n/a	n/a
2723845	FFR_REC_WORD	wordpools/wasnorm_wordpool_less_exclusions.txt	LTP335	ltpFR	6	n/a	1	NET	946	n/a	n/a	0	n/a	n/a	n/a	n/a	n/a
2725328	FFR_REC_WORD	wordpools/wasnorm_wordpool_less_exclusions.txt	LTP335	ltpFR	6	n/a	0	SHARK	1275	n/a	n/a	1	n/a	n/a	n/a	n/a	n/a
2733618	FFR_REC_WORD	wordpools/wasnorm_wordpool_less_exclusions.txt	LTP335	ltpFR	6	n/a	1	OCTOPUS	971	n/a	n/a	1	n/a	n/a	n/a	n/a	n/a
2740232	FFR_REC_WORD	wordpools/wasnorm_wordpool_less_exclusions.txt	LTP335	ltpFR	6	n/a	0	SCREWDRIVER	1255	n/a	n/a	0	n/a	n/a	n/a	n/a	n/a
2741671	FFR_REC_WORD	wordpools/wasnorm_wordpool_less_exclusions.txt	LTP335	ltpFR	6	n/a	1	FLASHLIGHT	575	n/a	n/a	0	n/a	n/a	n/a	n/a	n/a
2743615	FFR_REC_WORD	wordpools/wasnorm_wordpool_less_exclusions.txt	LTP335	ltpFR	6	n/a	-1	NAIL	936	n/a	n/a	-1	n/a	n/a	n/a	n/a	n/a
2744612	FFR_REC_WORD	wordpools/wasnorm_wordpool_less_exclusions.txt	LTP335	ltpFR	6	n/a	-1	ESSAY	540	n/a	n/a	-1	n/a	n/a	n/a	n/a	n/a
2764138	FFR_REC_WORD	wordpools/wasnorm_wordpool_less_exclusions.txt	LTP335	ltpFR	6	n/a	n/a	SCENT	-1	n/a	n/a	n/a	n/a	n/a	n/a	n/a	n/a
2776028	FFR_REC_WORD	wordpools/wasnorm_wordpool_less_exclusions.txt	LTP335	ltpFR	6	n/a	0	PLANET	1082	n/a	n/a	0	n/a	n/a	n/a	n/a	n/a
2792727	FFR_REC_WORD	wordpools/wasnorm_wordpool_less_exclusions.txt	LTP335	ltpFR	6	n/a	0	RADIATOR	1156	n/a	n/a	0	n/a	n/a	n/a	n/a	n/a
2794570	FFR_REC_WORD	wordpools/wasnorm_wordpool_less_exclusions.txt	LTP335	ltpFR	6	n/a	0	SUPPER	1411	n/a	n/a	0	n/a	n/a	n/a	n/a	n/a
2821044	FFR_REC_WORD	wordpools/wasnorm_wordpool_less_exclusions.txt	LTP335	ltpFR	6	n/a	1	WATERFALL	1595	n/a	n/a	0	n/a	n/a	n/a	n/a	n/a
2831775	FFR_REC_WORD	wordpools/wasnorm_wordpool_less_exclusions.txt	LTP335	ltpFR	6	n/a	0	SLEEVE	1324	n/a	n/a	0	n/a	n/a	n/a	n/a	n/a
2833073	FFR_REC_WORD	wordpools/wasnorm_wordpool_less_exclusions.txt	LTP335	ltpFR	6	n/a	0	CANDY	230	n/a	n/a	0	n/a	n/a	n/a	n/a	n/a
2834095	FFR_REC_WORD	wordpools/wasnorm_wordpool_less_exclusions.txt	LTP335	ltpFR	6	n/a	0	SUGAR	1401	n/a	n/a	0	n/a	n/a	n/a	n/a	n/a
2835181	FFR_REC_WORD	wordpools/wasnorm_wordpool_less_exclusions.txt	LTP335	ltpFR	6	n/a	0	CELERY	266	n/a	n/a	0	n/a	n/a	n/a	n/a	n/a
2855948	FFR_REC_WORD	wordpools/wasnorm_wordpool_less_exclusions.txt	LTP335	ltpFR	6	n/a	0	TWEEZERS	1526	n/a	n/a	0	n/a	n/a	n/a	n/a	n/a
2858457	FFR_REC_WORD	wordpools/wasnorm_wordpool_less_exclusions.txt	LTP335	ltpFR	6	n/a	-1	PLIERS	1089	n/a	n/a	-1	n/a	n/a	n/a	n/a	n/a
2864842	FFR_REC_WORD_VV	wordpools/wasnorm_wordpool_less_exclusions.txt	LTP335	ltpFR	6	n/a	n/a	<>	-1	n/a	n/a	n/a	n/a	n/a	n/a	n/a	n/a
2865546	REST_REWET	n/a	LTP335	ltpFR	6	16	n/a	n/a	n/a	n/a	n/a	n/a	n/a	n/a	n/a	n/a	n/a
3093997	REC_START	n/a	LTP335	ltpFR	6	1	n/a	n/a	n/a	n/a	n/a	n/a	n/a	n/a	n/a	n/a	n/a
3094027	RECOG_TARGET	n/a	LTP335	ltpFR	6	1	0	MAPLE	866	1	5	1	n/a	n/a	n/a	n/a	n/a
3095211	RECOG_RESP	n/a	LTP335	ltpFR	6	1	0	MAPLE	866	1	n/a	1	n/a	n/a	n/a	n/a	n/a
3096444	RECOG_CONF	n/a	LTP335	ltpFR	6	1	0	MAPLE	866	n/a	5	1	n/a	n/a	n/a	n/a	n/a
3097975	RECOG_TARGET	n/a	LTP335	ltpFR	6	1	1	HAMPER	682	1	3	0	n/a	n/a	n/a	n/a	n/a
3099451	RECOG_RESP	n/a	LTP335	ltpFR	6	1	1	HAMPER	682	1	n/a	0	n/a	n/a	n/a	n/a	n/a
3100312	RECOG_CONF	n/a	LTP335	ltpFR	6	1	1	HAMPER	682	n/a	3	0	n/a	n/a	n/a	n/a	n/a
3101823	RECOG_TARGET	n/a	LTP335	ltpFR	6	1	0	CHART	282	1	2	1	n/a	n/a	n/a	n/a	n/a
3104421	RECOG_RESP	n/a	LTP335	ltpFR	6	1	0	CHART	282	1	n/a	1	n/a	n/a	n/a	n/a	n/a
3105299	RECOG_CONF	n/a	LTP335	ltpFR	6	1	0	CHART	282	n/a	2	1	n/a	n/a	n/a	n/a	n/a
3106954	RECOG_TARGET	n/a	LTP335	ltpFR	6	1	-1	MUSHROOM	934	1	4	-1	n/a	n/a	n/a	n/a	n/a
3107641	RECOG_RESP	n/a	LTP335	ltpFR	6	1	-1	MUSHROOM	934	1	n/a	-1	n/a	n/a	n/a	n/a	n/a
3108284	RECOG_CONF	n/a	LTP335	ltpFR	6	1	-1	MUSHROOM	934	n/a	4	-1	n/a	n/a	n/a	n/a	n/a
3109803	RECOG_TARGET	n/a	LTP335	ltpFR	6	1	1	ROOST	1208	1	5	1	n/a	n/a	n/a	n/a	n/a
3110491	RECOG_RESP	n/a	LTP335	ltpFR	6	1	1	ROOST	1208	1	n/a	1	n/a	n/a	n/a	n/a	n/a
3111154	RECOG_CONF	n/a	LTP335	ltpFR	6	1	1	ROOST	1208	n/a	5	1	n/a	n/a	n/a	n/a	n/a
3112517	RECOG_LURE	n/a	LTP335	ltpFR	6	1	n/a	TIE	1466	1	2	n/a	n/a	n/a	n/a	n/a	n/a
3113361	RECOG_RESP	n/a	LTP335	ltpFR	6	1	n/a	TIE	1466	1	n/a	n/a	n/a	n/a	n/a	n/a	n/a
3114239	RECOG_CONF	n/a	LTP335	ltpFR	6	1	n/a	TIE	1466	n/a	2	n/a	n/a	n/a	n/a	n/a	n/a
3115717	RECOG_LURE	n/a	LTP335	ltpFR	6	1	n/a	UNIVERSITY	1541	0	5	n/a	n/a	n/a	n/a	n/a	n/a
3116650	RECOG_RESP	n/a	LTP335	ltpFR	6	1	n/a	UNIVERSITY	1541	0	n/a	n/a	n/a	n/a	n/a	n/a	n/a
3117354	RECOG_CONF	n/a	LTP335	ltpFR	6	1	n/a	UNIVERSITY	1541	n/a	5	n/a	n/a	n/a	n/a	n/a	n/a
3118866	RECOG_TARGET	n/a	LTP335	ltpFR	6	1	1	KNOB	787	1	5	0	n/a	n/a	n/a	n/a	n/a
3120481	RECOG_RESP	n/a	LTP335	ltpFR	6	1	1	KNOB	787	1	n/a	0	n/a	n/a	n/a	n/a	n/a
3121084	RECOG_CONF	n/a	LTP335	ltpFR	6	1	1	KNOB	787	n/a	5	0	n/a	n/a	n/a	n/a	n/a
3122647	RECOG_TARGET	n/a	LTP335	ltpFR	6	1	0	CONSUMER	365	1	5	1	n/a	n/a	n/a	n/a	n/a
3123361	RECOG_RESP	n/a	LTP335	ltpFR	6	1	0	CONSUMER	365	1	n/a	1	n/a	n/a	n/a	n/a	n/a
3124004	RECOG_CONF	n/a	LTP335	ltpFR	6	1	0	CONSUMER	365	n/a	5	1	n/a	n/a	n/a	n/a	n/a
3125511	RECOG_TARGET	n/a	LTP335	ltpFR	6	1	-1	ONION	977	1	5	-1	n/a	n/a	n/a	n/a	n/a
3126661	RECOG_RESP	n/a	LTP335	ltpFR	6	1	-1	ONION	977	1	n/a	-1	n/a	n/a	n/a	n/a	n/a
3127124	RECOG_CONF	n/a	LTP335	ltpFR	6	1	-1	ONION	977	n/a	5	-1	n/a	n/a	n/a	n/a	n/a
3128678	RECOG_LURE	n/a	LTP335	ltpFR	6	1	n/a	BASKET	95	0	3	n/a	n/a	n/a	n/a	n/a	n/a
3130070	RECOG_RESP	n/a	LTP335	ltpFR	6	1	n/a	BASKET	95	0	n/a	n/a	n/a	n/a	n/a	n/a	n/a
3130562	RECOG_CONF	n/a	LTP335	ltpFR	6	1	n/a	BASKET	95	n/a	3	n/a	n/a	n/a	n/a	n/a	n/a
3132392	RECOG_TARGET	n/a	LTP335	ltpFR	6	1	-1	LETTUCE	814	1	2	-1	n/a	n/a	n/a	n/a	n/a
3133561	RECOG_RESP	n/a	LTP335	ltpFR	6	1	-1	LETTUCE	814	1	n/a	-1	n/a	n/a	n/a	n/a	n/a
3134839	RECOG_CONF	n/a	LTP335	ltpFR	6	1	-1	LETTUCE	814	n/a	2	-1	n/a	n/a	n/a	n/a	n/a
3136390	RECOG_LURE	n/a	LTP335	ltpFR	6	1	n/a	AUNT	60	0	5	n/a	n/a	n/a	n/a	n/a	n/a
3137160	RECOG_RESP	n/a	LTP335	ltpFR	6	1	n/a	AUNT	60	0	n/a	n/a	n/a	n/a	n/a	n/a	n/a
3137784	RECOG_CONF	n/a	LTP335	ltpFR	6	1	n/a	AUNT	60	n/a	5	n/a	n/a	n/a	n/a	n/a	n/a
3139422	RECOG_LURE	n/a	LTP335	ltpFR	6	1	n/a	GYMNAST	675	1	1	n/a	n/a	n/a	n/a	n/a	n/a
3140121	RECOG_RESP	n/a	LTP335	ltpFR	6	1	n/a	GYMNAST	675	1	n/a	n/a	n/a	n/a	n/a	n/a	n/a
3141379	RECOG_CONF	n/a	LTP335	ltpFR	6	1	n/a	GYMNAST	675	n/a	1	n/a	n/a	n/a	n/a	n/a	n/a
3142905	RECOG_TARGET	n/a	LTP335	ltpFR	6	1	1	YOLK	1633	1	5	0	n/a	n/a	n/a	n/a	n/a
3144081	RECOG_RESP_VV	n/a	LTP335	ltpFR	6	1	1	YOLK	1633	1	n/a	0	n/a	n/a	n/a	n/a	n/a
3144731	RECOG_RESP	n/a	LTP335	ltpFR	6	1	1	YOLK	1633	1	n/a	0	n/a	n/a	n/a	n/a	n/a
3145434	RECOG_CONF	n/a	LTP335	ltpFR	6	1	1	YOLK	1633	n/a	5	0	n/a	n/a	n/a	n/a	n/a
3146986	RECOG_TARGET	n/a	LTP335	ltpFR	6	1	1	SAILOR	1223	1	2	1	n/a	n/a	n/a	n/a	n/a
3150601	RECOG_RESP	n/a	LTP335	ltpFR	6	1	1	SAILOR	1223	1	n/a	1	n/a	n/a	n/a	n/a	n/a
3152119	RECOG_CONF	n/a	LTP335	ltpFR	6	1	1	SAILOR	1223	n/a	2	1	n/a	n/a	n/a	n/a	n/a
3153716	RECOG_TARGET	n/a	LTP335	ltpFR	6	1	1	JAW	751	1	4	0	n/a	n/a	n/a	n/a	n/a
3154521	RECOG_RESP	n/a	LTP335	ltpFR	6	1	1	JAW	751	1	n/a	0	n/a	n/a	n/a	n/a	n/a
3155264	RECOG_CONF	n/a	LTP335	ltpFR	6	1	1	JAW	751	n/a	4	0	n/a	n/a	n/a	n/a	n/a
3156932	RECOG_TARGET	n/a	LTP335	ltpFR	6	1	-1	BANK	83	1	5	-1	n/a	n/a	n/a	n/a	n/a
3157591	RECOG_RESP	n/a	LTP335	ltpFR	6	1	-1	BANK	83	1	n/a	-1	n/a	n/a	n/a	n/a	n/a
3158224	RECOG_CONF	n/a	LTP335	ltpFR	6	1	-1	BANK	83	n/a	5	-1	n/a	n/a	n/a	n/a	n/a
3159947	RECOG_LURE	n/a	LTP335	ltpFR	6	1	n/a	CAPTIVE	240	1	3	n/a	n/a	n/a	n/a	n/a	n/a
3165091	RECOG_RESP	n/a	LTP335	ltpFR	6	1	n/a	CAPTIVE	240	1	n/a	n/a	n/a	n/a	n/a	n/a	n/a
3167332	RECOG_CONF	n/a	LTP335	ltpFR	6	1	n/a	CAPTIVE	240	n/a	3	n/a	n/a	n/a	n/a	n/a	n/a
3168876	RECOG_TARGET	n/a	LTP335	ltpFR	6	1	0	PRODUCER	1129	0	3	1	n/a	n/a	n/a	n/a	n/a
3172350	RECOG_RESP	n/a	LTP335	ltpFR	6	1	0	PRODUCER	1129	0	n/a	1	n/a	n/a	n/a	n/a	n/a
3173032	RECOG_CONF	n/a	LTP335	ltpFR	6	1	0	PRODUCER	1129	n/a	3	1	n/a	n/a	n/a	n/a	n/a
3176014	REC_START	n/a	LTP335	ltpFR	6	2	n/a	n/a	n/a	n/a	n/a	n/a	n/a	n/a	n/a	n/a	n/a
3176040	RECOG_TARGET	n/a	LTP335	ltpFR	6	2	-1	MINK	897	1	5	-1	n/a	n/a	n/a	n/a	n/a
3177068	RECOG_RESP	n/a	LTP335	ltpFR	6	2	-1	MINK	897	1	n/a	-1	n/a	n/a	n/a	n/a	n/a
3177721	RECOG_CONF	n/a	LTP335	ltpFR	6	2	-1	MINK	897	n/a	5	-1	n/a	n/a	n/a	n/a	n/a
3179237	RECOG_TARGET	n/a	LTP335	ltpFR	6	2	1	SCALE	1241	1	5	0	n/a	n/a	n/a	n/a	n/a
3182658	RECOG_RESP	n/a	LTP335	ltpFR	6	2	1	SCALE	1241	1	n/a	0	n/a	n/a	n/a	n/a	n/a
3183221	RECOG_CONF	n/a	LTP335	ltpFR	6	2	1	SCALE	1241	n/a	5	0	n/a	n/a	n/a	n/a	n/a
3184719	RECOG_TARGET	n/a	LTP335	ltpFR	6	2	1	COMMUNITY	356	1	5	0	n/a	n/a	n/a	n/a	n/a
3185408	RECOG_RESP	n/a	LTP335	ltpFR	6	2	1	COMMUNITY	356	1	n/a	0	n/a	n/a	n/a	n/a	n/a
3186078	RECOG_CONF	n/a	LTP335	ltpFR	6	2	1	COMMUNITY	356	n/a	5	0	n/a	n/a	n/a	n/a	n/a
3187433	RECOG_LURE	n/a	LTP335	ltpFR	6	2	n/a	GULL	671	0	5	n/a	n/a	n/a	n/a	n/a	n/a
3188347	RECOG_RESP	n/a	LTP335	ltpFR	6	2	n/a	GULL	671	0	n/a	n/a	n/a	n/a	n/a	n/a	n/a
3189051	RECOG_CONF	n/a	LTP335	ltpFR	6	2	n/a	GULL	671	n/a	5	n/a	n/a	n/a	n/a	n/a	n/a
3190666	RECOG_TARGET	n/a	LTP335	ltpFR	6	2	0	LIMOUSINE	824	1	5	1	n/a	n/a	n/a	n/a	n/a
3191368	RECOG_RESP	n/a	LTP335	ltpFR	6	2	0	LIMOUSINE	824	1	n/a	1	n/a	n/a	n/a	n/a	n/a
3191981	RECOG_CONF	n/a	LTP335	ltpFR	6	2	0	LIMOUSINE	824	n/a	5	1	n/a	n/a	n/a	n/a	n/a
3193514	RECOG_TARGET	n/a	LTP335	ltpFR	6	2	-1	BINDER	127	1	4	-1	n/a	n/a	n/a	n/a	n/a
3194278	RECOG_RESP	n/a	LTP335	ltpFR	6	2	-1	BINDER	127	1	n/a	-1	n/a	n/a	n/a	n/a	n/a
3194911	RECOG_CONF	n/a	LTP335	ltpFR	6	2	-1	BINDER	127	n/a	4	-1	n/a	n/a	n/a	n/a	n/a
3196429	RECOG_TARGET	n/a	LTP335	ltpFR	6	2	-1	CUE	422	1	3	-1	n/a	n/a	n/a	n/a	n/a
3198428	RECOG_RESP	n/a	LTP335	ltpFR	6	2	-1	CUE	422	1	n/a	-1	n/a	n/a	n/a	n/a	n/a
3199099	RECOG_CONF	n/a	LTP335	ltpFR	6	2	-1	CUE	422	n/a	3	-1	n/a	n/a	n/a	n/a	n/a
3200611	RECOG_TARGET	n/a	LTP335	ltpFR	6	2	0	LANDSCAPE	799	1	5	1	n/a	n/a	n/a	n/a	n/a
3201278	RECOG_RESP	n/a	LTP335	ltpFR	6	2	0	LANDSCAPE	799	1	n/a	1	n/a	n/a	n/a	n/a	n/a
3201891	RECOG_CONF	n/a	LTP335	ltpFR	6	2	0	LANDSCAPE	799	n/a	5	1	n/a	n/a	n/a	n/a	n/a
3203309	RECOG_TARGET	n/a	LTP335	ltpFR	6	2	1	GOOSE	649	0	3	1	n/a	n/a	n/a	n/a	n/a
3204867	RECOG_RESP	n/a	LTP335	ltpFR	6	2	1	GOOSE	649	0	n/a	1	n/a	n/a	n/a	n/a	n/a
3205539	RECOG_CONF	n/a	LTP335	ltpFR	6	2	1	GOOSE	649	n/a	3	1	n/a	n/a	n/a	n/a	n/a
3207009	RECOG_TARGET	n/a	LTP335	ltpFR	6	2	0	COCOON	339	1	5	0	n/a	n/a	n/a	n/a	n/a
3207758	RECOG_RESP	n/a	LTP335	ltpFR	6	2	0	COCOON	339	1	n/a	0	n/a	n/a	n/a	n/a	n/a
3208408	RECOG_CONF	n/a	LTP335	ltpFR	6	2	0	COCOON	339	n/a	5	0	n/a	n/a	n/a	n/a	n/a
3209874	RECOG_TARGET	n/a	LTP335	ltpFR	6	2	0	SWATTER	1418	1	5	1	n/a	n/a	n/a	n/a	n/a
3210588	RECOG_RESP	n/a	LTP335	ltpFR	6	2	0	SWATTER	1418	1	n/a	1	n/a	n/a	n/a	n/a	n/a
3211221	RECOG_CONF	n/a	LTP335	ltpFR	6	2	0	SWATTER	1418	n/a	5	1	n/a	n/a	n/a	n/a	n/a
3212639	RECOG_TARGET	n/a	LTP335	ltpFR	6	2	1	FLASK	576	1	5	0	n/a	n/a	n/a	n/a	n/a
3213468	RECOG_RESP	n/a	LTP335	ltpFR	6	2	1	FLASK	576	1	n/a	0	n/a	n/a	n/a	n/a	n/a
3214051	RECOG_CONF	n/a	LTP335	ltpFR	6	2	1	FLASK	576	n/a	5	0	n/a	n/a	n/a	n/a	n/a
3215672	RECOG_TARGET	n/a	LTP335	ltpFR	6	2	1	GODDESS	646	1	5	1	n/a	n/a	n/a	n/a	n/a
3216478	RECOG_RESP	n/a	LTP335	ltpFR	6	2	1	GODDESS	646	1	n/a	1	n/a	n/a	n/a	n/a	n/a
3217071	RECOG_CONF	n/a	LTP335	ltpFR	6	2	1	GODDESS	646	n/a	5	1	n/a	n/a	n/a	n/a	n/a
3218619	RECOG_TARGET	n/a	LTP335	ltpFR	6	2	0	NEPTUNE	943	1	3	1	n/a	n/a	n/a	n/a	n/a
3220448	RECOG_RESP	n/a	LTP335	ltpFR	6	2	0	NEPTUNE	943	1	n/a	1	n/a	n/a	n/a	n/a	n/a
3221239	RECOG_CONF	n/a	LTP335	ltpFR	6	2	0	NEPTUNE	943	n/a	3	1	n/a	n/a	n/a	n/a	n/a
3222818	RECOG_TARGET	n/a	LTP335	ltpFR	6	2	1	OBOE	969	1	4	0	n/a	n/a	n/a	n/a	n/a
3223468	RECOG_RESP	n/a	LTP335	ltpFR	6	2	1	OBOE	969	1	n/a	0	n/a	n/a	n/a	n/a	n/a
3223981	RECOG_CONF	n/a	LTP335	ltpFR	6	2	1	OBOE	969	n/a	4	0	n/a	n/a	n/a	n/a	n/a
3225750	RECOG_TARGET	n/a	LTP335	ltpFR	6	2	1	MALL	860	1	5	0	n/a	n/a	n/a	n/a	n/a
3226348	RECOG_RESP	n/a	LTP335	ltpFR	6	2	1	MALL	860	1	n/a	0	n/a	n/a	n/a	n/a	n/a
3226941	RECOG_CONF	n/a	LTP335	ltpFR	6	2	1	MALL	860	n/a	5	0	n/a	n/a	n/a	n/a	n/a
3228615	RECOG_LURE	n/a	LTP335	ltpFR	6	2	n/a	PISTOL	1075	1	2	n/a	n/a	n/a	n/a	n/a	n/a
3233018	RECOG_RESP	n/a	LTP335	ltpFR	6	2	n/a	PISTOL	1075	1	n/a	n/a	n/a	n/a	n/a	n/a	n/a
3233976	RECOG_CONF	n/a	LTP335	ltpFR	6	2	n/a	PISTOL	1075	n/a	2	n/a	n/a	n/a	n/a	n/a	n/a
3235495	RECOG_TARGET	n/a	LTP335	ltpFR	6	2	0	PENDULUM	1043	1	5	1	n/a	n/a	n/a	n/a	n/a
3236698	RECOG_RESP	n/a	LTP335	ltpFR	6	2	0	PENDULUM	1043	1	n/a	1	n/a	n/a	n/a	n/a	n/a
3237111	RECOG_CONF	n/a	LTP335	ltpFR	6	2	0	PENDULUM	1043	n/a	5	1	n/a	n/a	n/a	n/a	n/a
3238794	RECOG_TARGET	n/a	LTP335	ltpFR	6	2	1	EGG	518	1	5	0	n/a	n/a	n/a	n/a	n/a
3239408	RECOG_RESP	n/a	LTP335	ltpFR	6	2	1	EGG	518	1	n/a	0	n/a	n/a	n/a	n/a	n/a
3240048	RECOG_CONF	n/a	LTP335	ltpFR	6	2	1	EGG	518	n/a	5	0	n/a	n/a	n/a	n/a	n/a
3241625	RECOG_TARGET	n/a	LTP335	ltpFR	6	2	-1	UNIFORM	1539	1	5	-1	n/a	n/a	n/a	n/a	n/a
3244458	RECOG_RESP	n/a	LTP335	ltpFR	6	2	-1	UNIFORM	1539	1	n/a	-1	n/a	n/a	n/a	n/a	n/a
3245111	RECOG_CONF	n/a	LTP335	ltpFR	6	2	-1	UNIFORM	1539	n/a	5	-1	n/a	n/a	n/a	n/a	n/a
3248447	REC_START	n/a	LTP335	ltpFR	6	3	n/a	n/a	n/a	n/a	n/a	n/a	n/a	n/a	n/a	n/a	n/a
3248472	RECOG_LURE	n/a	LTP335	ltpFR	6	3	n/a	UNIVERSE	1540	1	1	n/a	n/a	n/a	n/a	n/a	n/a
3252321	RECOG_RESP	n/a	LTP335	ltpFR	6	3	n/a	UNIVERSE	1540	1	n/a	n/a	n/a	n/a	n/a	n/a	n/a
3253829	RECOG_CONF	n/a	LTP335	ltpFR	6	3	n/a	UNIVERSE	1540	n/a	1	n/a	n/a	n/a	n/a	n/a	n/a
3255502	RECOG_TARGET	n/a	LTP335	ltpFR	6	3	0	DUSTPAN	509	1	5	0	n/a	n/a	n/a	n/a	n/a
3256271	RECOG_RESP	n/a	LTP335	ltpFR	6	3	0	DUSTPAN	509	1	n/a	0	n/a	n/a	n/a	n/a	n/a
3256864	RECOG_CONF	n/a	LTP335	ltpFR	6	3	0	DUSTPAN	509	n/a	5	0	n/a	n/a	n/a	n/a	n/a
3258351	RECOG_TARGET	n/a	LTP335	ltpFR	6	3	-1	TURNIP	1521	1	5	-1	n/a	n/a	n/a	n/a	n/a
3258851	RECOG_RESP	n/a	LTP335	ltpFR	6	3	-1	TURNIP	1521	1	n/a	-1	n/a	n/a	n/a	n/a	n/a
3259504	RECOG_CONF	n/a	LTP335	ltpFR	6	3	-1	TURNIP	1521	n/a	5	-1	n/a	n/a	n/a	n/a	n/a
3261134	RECOG_LURE	n/a	LTP335	ltpFR	6	3	n/a	FAIRY	549	0	4	n/a	n/a	n/a	n/a	n/a	n/a
3261950	RECOG_RESP	n/a	LTP335	ltpFR	6	3	n/a	FAIRY	549	0	n/a	n/a	n/a	n/a	n/a	n/a	n/a
3262424	RECOG_CONF	n/a	LTP335	ltpFR	6	3	n/a	FAIRY	549	n/a	4	n/a	n/a	n/a	n/a	n/a	n/a
3264066	RECOG_LURE	n/a	LTP335	ltpFR	6	3	n/a	CHAIR	274	0	3	n/a	n/a	n/a	n/a	n/a	n/a
3266180	RECOG_RESP	n/a	LTP335	ltpFR	6	3	n/a	CHAIR	274	0	n/a	n/a	n/a	n/a	n/a	n/a	n/a
3266702	RECOG_CONF	n/a	LTP335	ltpFR	6	3	n/a	CHAIR	274	n/a	3	n/a	n/a	n/a	n/a	n/a	n/a
3268330	RECOG_TARGET	n/a	LTP335	ltpFR	6	3	-1	OFFICE	972	0	2	-1	n/a	n/a	n/a	n/a	n/a
3270520	RECOG_RESP	n/a	LTP335	ltpFR	6	3	-1	OFFICE	972	0	n/a	-1	n/a	n/a	n/a	n/a	n/a
3271209	RECOG_CONF	n/a	LTP335	ltpFR	6	3	-1	OFFICE	972	n/a	2	-1	n/a	n/a	n/a	n/a	n/a
3272662	RECOG_TARGET	n/a	LTP335	ltpFR	6	3	1	WATERFALL	1595	1	5	0	n/a	n/a	n/a	n/a	n/a
3273311	RECOG_RESP	n/a	LTP335	ltpFR	6	3	1	WATERFALL	1595	1	n/a	0	n/a	n/a	n/a	n/a	n/a
3273974	RECOG_CONF	n/a	LTP335	ltpFR	6	3	1	WATERFALL	1595	n/a	5	0	n/a	n/a	n/a	n/a	n/a
3275427	RECOG_LURE	n/a	LTP335	ltpFR	6	3	n/a	WAREHOUSE	1588	0	3	n/a	n/a	n/a	n/a	n/a	n/a
3278370	RECOG_RESP	n/a	LTP335	ltpFR	6	3	n/a	WAREHOUSE	1588	0	n/a	n/a	n/a	n/a	n/a	n/a	n/a
3279082	RECOG_CONF	n/a	LTP335	ltpFR	6	3	n/a	WAREHOUSE	1588	n/a	3	n/a	n/a	n/a	n/a	n/a	n/a
3280675	RECOG_TARGET	n/a	LTP335	ltpFR	6	3	-1	COUGAR	387	1	5	-1	n/a	n/a	n/a	n/a	n/a
3281531	RECOG_RESP	n/a	LTP335	ltpFR	6	3	-1	COUGAR	387	1	n/a	-1	n/a	n/a	n/a	n/a	n/a
3282124	RECOG_CONF	n/a	LTP335	ltpFR	6	3	-1	COUGAR	387	n/a	5	-1	n/a	n/a	n/a	n/a	n/a
3283674	RECOG_TARGET	n/a	LTP335	ltpFR	6	3	-1	NITROGEN	954	1	5	-1	n/a	n/a	n/a	n/a	n/a
3284361	RECOG_RESP	n/a	LTP335	ltpFR	6	3	-1	NITROGEN	954	1	n/a	-1	n/a	n/a	n/a	n/a	n/a
3284864	RECOG_CONF	n/a	LTP335	ltpFR	6	3	-1	NITROGEN	954	n/a	5	-1	n/a	n/a	n/a	n/a	n/a
3286438	RECOG_TARGET	n/a	LTP335	ltpFR	6	3	1	CATERPILLAR	259	1	5	1	n/a	n/a	n/a	n/a	n/a
3287691	RECOG_RESP	n/a	LTP335	ltpFR	6	3	1	CATERPILLAR	259	1	n/a	1	n/a	n/a	n/a	n/a	n/a
3288304	RECOG_CONF	n/a	LTP335	ltpFR	6	3	1	CATERPILLAR	259	n/a	5	1	n/a	n/a	n/a	n/a	n/a
3289821	RECOG_TARGET	n/a	LTP335	ltpFR	6	3	0	SUSPECT	1415	0	3	1	n/a	n/a	n/a	n/a	n/a
3290740	RECOG_RESP	n/a	LTP335	ltpFR	6	3	0	SUSPECT	1415	0	n/a	1	n/a	n/a	n/a	n/a	n/a
3291332	RECOG_CONF	n/a	LTP335	ltpFR	6	3	0	SUSPECT	1415	n/a	3	1	n/a	n/a	n/a	n/a	n/a
3293020	RECOG_TARGET	n/a	LTP335	ltpFR	6	3	-1	CAULIFLOWER	262	1	5	-1	n/a	n/a	n/a	n/a	n/a
3293651	RECOG_RESP	n/a	LTP335	ltpFR	6	3	-1	CAULIFLOWER	262	1	n/a	-1	n/a	n/a	n/a	n/a	n/a
3294174	RECOG_CONF	n/a	LTP335	ltpFR	6	3	-1	CAULIFLOWER	262	n/a	5	-1	n/a	n/a	n/a	n/a	n/a
3295852	RECOG_TARGET	n/a	LTP335	ltpFR	6	3	0	HAY	693	1	5	1	n/a	n/a	n/a	n/a	n/a
3296471	RECOG_RESP	n/a	LTP335	ltpFR	6	3	0	HAY	693	1	n/a	1	n/a	n/a	n/a	n/a	n/a
3296974	RECOG_CONF	n/a	LTP335	ltpFR	6	3	0	HAY	693	n/a	5	1	n/a	n/a	n/a	n/a	n/a
3298650	RECOG_TARGET	n/a	LTP335	ltpFR	6	3	-1	WALL	1582	1	5	-1	n/a	n/a	n/a	n/a	n/a
3299841	RECOG_RESP	n/a	LTP335	ltpFR	6	3	-1	WALL	1582	1	n/a	-1	n/a	n/a	n/a	n/a	n/a
3300304	RECOG_CONF	n/a	LTP335	ltpFR	6	3	-1	WALL	1582	n/a	5	-1	n/a	n/a	n/a	n/a	n/a
3301949	RECOG_TARGET	n/a	LTP335	ltpFR	6	3	0	SUGAR	1401	1	5	0	n/a	n/a	n/a	n/a	n/a
3302481	RECOG_RESP	n/a	LTP335	ltpFR	6	3	0	SUGAR	1401	1	n/a	0	n/a	n/a	n/a	n/a	n/a
3303084	RECOG_CONF	n/a	LTP335	ltpFR	6	3	0	SUGAR	1401	n/a	5	0	n/a	n/a	n/a	n/a	n/a
3304597	RECOG_TARGET	n/a	LTP335	ltpFR	6	3	0	TWEEZERS	1526	1	5	0	n/a	n/a	n/a	n/a	n/a
3305201	RECOG_RESP	n/a	LTP335	ltpFR	6	3	0	TWEEZERS	1526	1	n/a	0	n/a	n/a	n/a	n/a	n/a
3305801	RECOG_CONF	n/a	LTP335	ltpFR	6	3	0	TWEEZERS	1526	n/a	5	0	n/a	n/a	n/a	n/a	n/a
3307229	RECOG_TARGET	n/a	LTP335	ltpFR	6	3	0	MONASTERY	907	1	4	1	n/a	n/a	n/a	n/a	n/a
3307931	RECOG_RESP	n/a	LTP335	ltpFR	6	3	0	MONASTERY	907	1	n/a	1	n/a	n/a	n/a	n/a	n/a
3308504	RECOG_CONF	n/a	LTP335	ltpFR	6	3	0	MONASTERY	907	n/a	4	1	n/a	n/a	n/a	n/a	n/a
3310045	RECOG_TARGET	n/a	LTP335	ltpFR	6	3	0	RESTAURANT	1187	1	4	1	n/a	n/a	n/a	n/a	n/a
3310891	RECOG_RESP	n/a	LTP335	ltpFR	6	3	0	RESTAURANT	1187	1	n/a	1	n/a	n/a	n/a	n/a	n/a
3312244	RECOG_CONF	n/a	LTP335	ltpFR	6	3	0	RESTAURANT	1187	n/a	4	1	n/a	n/a	n/a	n/a	n/a
3313677	RECOG_TARGET	n/a	LTP335	ltpFR	6	3	0	INSECT	740	1	5	0	n/a	n/a	n/a	n/a	n/a
3314331	RECOG_RESP	n/a	LTP335	ltpFR	6	3	0	INSECT	740	1	n/a	0	n/a	n/a	n/a	n/a	n/a
3314844	RECOG_CONF	n/a	LTP335	ltpFR	6	3	0	INSECT	740	n/a	5	0	n/a	n/a	n/a	n/a	n/a
3317834	REC_START	n/a	LTP335	ltpFR	6	4	n/a	n/a	n/a	n/a	n/a	n/a	n/a	n/a	n/a	n/a	n/a
3317858	RECOG_LURE	n/a	LTP335	ltpFR	6	4	n/a	SIBLING	1301	0	4	n/a	n/a	n/a	n/a	n/a	n/a
3318927	RECOG_RESP	n/a	LTP335	ltpFR	6	4	n/a	SIBLING	1301	0	n/a	n/a	n/a	n/a	n/a	n/a	n/a
3319421	RECOG_CONF	n/a	LTP335	ltpFR	6	4	n/a	SIBLING	1301	n/a	4	n/a	n/a	n/a	n/a	n/a	n/a
3320974	RECOG_TARGET	n/a	LTP335	ltpFR	6	4	0	PASTA	1021	0	4	0	n/a	n/a	n/a	n/a	n/a
3321627	RECOG_RESP	n/a	LTP335	ltpFR	6	4	0	PASTA	1021	0	n/a	0	n/a	n/a	n/a	n/a	n/a
3322131	RECOG_CONF	n/a	LTP335	ltpFR	6	4	0	PASTA	1021	n/a	4	0	n/a	n/a	n/a	n/a	n/a
3323739	RECOG_TARGET	n/a	LTP335	ltpFR	6	4	0	TEAM	1441	1	5	1	n/a	n/a	n/a	n/a	n/a
3324398	RECOG_RESP	n/a	LTP335	ltpFR	6	4	0	TEAM	1441	1	n/a	1	n/a	n/a	n/a	n/a	n/a
3324871	RECOG_CONF	n/a	LTP335	ltpFR	6	4	0	TEAM	1441	n/a	5	1	n/a	n/a	n/a	n/a	n/a
3326304	RECOG_TARGET	n/a	LTP335	ltpFR	6	4	1	PIER	1063	0	3	0	n/a	n/a	n/a	n/a	n/a
3328687	RECOG_RESP	n/a	LTP335	ltpFR	6	4	1	PIER	1063	0	n/a	0	n/a	n/a	n/a	n/a	n/a
3329199	RECOG_CONF	n/a	LTP335	ltpFR	6	4	1	PIER	1063	n/a	3	0	n/a	n/a	n/a	n/a	n/a
3330836	RECOG_TARGET	n/a	LTP335	ltpFR	6	4	1	CLERK	321	1	5	0	n/a	n/a	n/a	n/a	n/a
3333108	RECOG_RESP	n/a	LTP335	ltpFR	6	4	1	CLERK	321	1	n/a	0	n/a	n/a	n/a	n/a	n/a
3333641	RECOG_CONF	n/a	LTP335	ltpFR	6	4	1	CLERK	321	n/a	5	0	n/a	n/a	n/a	n/a	n/a
3335233	RECOG_TARGET	n/a	LTP335	ltpFR	6	4	1	ROBIN	1199	1	5	1	n/a	n/a	n/a	n/a	n/a
3335808	RECOG_RESP	n/a	LTP335	ltpFR	6	4	1	ROBIN	1199	1	n/a	1	n/a	n/a	n/a	n/a	n/a
3336311	RECOG_CONF	n/a	LTP335	ltpFR	6	4	1	ROBIN	1199	n/a	5	1	n/a	n/a	n/a	n/a	n/a
3337683	RECOG_TARGET	n/a	LTP335	ltpFR	6	4	1	SPHINX	1349	1	5	1	n/a	n/a	n/a	n/a	n/a
3338338	RECOG_RESP	n/a	LTP335	ltpFR	6	4	1	SPHINX	1349	1	n/a	1	n/a	n/a	n/a	n/a	n/a
3338801	RECOG_CONF	n/a	LTP335	ltpFR	6	4	1	SPHINX	1349	n/a	5	1	n/a	n/a	n/a	n/a	n/a
3340347	RECOG_TARGET	n/a	LTP335	ltpFR	6	4	0	RADIATOR	1156	1	5	0	n/a	n/a	n/a	n/a	n/a
3340978	RECOG_RESP	n/a	LTP335	ltpFR	6	4	0	RADIATOR	1156	1	n/a	0	n/a	n/a	n/a	n/a	n/a
3341481	RECOG_CONF	n/a	LTP335	ltpFR	6	4	0	RADIATOR	1156	n/a	5	0	n/a	n/a	n/a	n/a	n/a
3342997	RECOG_TARGET	n/a	LTP335	ltpFR	6	4	1	TIMBER	1469	1	5	1	n/a	n/a	n/a	n/a	n/a
3343488	RECOG_RESP	n/a	LTP335	ltpFR	6	4	1	TIMBER	1469	1	n/a	1	n/a	n/a	n/a	n/a	n/a
3343921	RECOG_CONF	n/a	LTP335	ltpFR	6	4	1	TIMBER	1469	n/a	5	1	n/a	n/a	n/a	n/a	n/a
3345528	RECOG_LURE	n/a	LTP335	ltpFR	6	4	n/a	RUM	1217	0	5	n/a	n/a	n/a	n/a	n/a	n/a
3347437	RECOG_RESP	n/a	LTP335	ltpFR	6	4	n/a	RUM	1217	0	n/a	n/a	n/a	n/a	n/a	n/a	n/a
3347901	RECOG_CONF	n/a	LTP335	ltpFR	6	4	n/a	RUM	1217	n/a	5	n/a	n/a	n/a	n/a	n/a	n/a
3349393	RECOG_TARGET	n/a	LTP335	ltpFR	6	4	-1	SEED	1266	1	5	-1	n/a	n/a	n/a	n/a	n/a
3349948	RECOG_RESP	n/a	LTP335	ltpFR	6	4	-1	SEED	1266	1	n/a	-1	n/a	n/a	n/a	n/a	n/a
3350361	RECOG_CONF	n/a	LTP335	ltpFR	6	4	-1	SEED	1266	n/a	5	-1	n/a	n/a	n/a	n/a	n/a
3351843	RECOG_TARGET	n/a	LTP335	ltpFR	6	4	0	RAM	1165	1	5	1	n/a	n/a	n/a	n/a	n/a
3352488	RECOG_RESP	n/a	LTP335	ltpFR	6	4	0	RAM	1165	1	n/a	1	n/a	n/a	n/a	n/a	n/a
3353081	RECOG_CONF	n/a	LTP335	ltpFR	6	4	0	RAM	1165	n/a	5	1	n/a	n/a	n/a	n/a	n/a
3354457	RECOG_TARGET	n/a	LTP335	ltpFR	6	4	1	FLIPPER	580	1	5	0	n/a	n/a	n/a	n/a	n/a
3355068	RECOG_RESP	n/a	LTP335	ltpFR	6	4	1	FLIPPER	580	1	n/a	0	n/a	n/a	n/a	n/a	n/a
3355501	RECOG_CONF	n/a	LTP335	ltpFR	6	4	1	FLIPPER	580	n/a	5	0	n/a	n/a	n/a	n/a	n/a
3357057	RECOG_TARGET	n/a	LTP335	ltpFR	6	4	1	STEREO	1378	1	5	0	n/a	n/a	n/a	n/a	n/a
3357578	RECOG_RESP	n/a	LTP335	ltpFR	6	4	1	STEREO	1378	1	n/a	0	n/a	n/a	n/a	n/a	n/a
3358128	RECOG_CONF	n/a	LTP335	ltpFR	6	4	1	STEREO	1378	n/a	5	0	n/a	n/a	n/a	n/a	n/a
3359472	RECOG_TARGET	n/a	LTP335	ltpFR	6	4	-1	SHRIMP	1297	1	5	-1	n/a	n/a	n/a	n/a	n/a
3359998	RECOG_RESP	n/a	LTP335	ltpFR	6	4	-1	SHRIMP	1297	1	n/a	-1	n/a	n/a	n/a	n/a	n/a
3360551	RECOG_CONF	n/a	LTP335	ltpFR	6	4	-1	SHRIMP	1297	n/a	5	-1	n/a	n/a	n/a	n/a	n/a
3361872	RECOG_LURE	n/a	LTP335	ltpFR	6	4	n/a	BREAD	170	0	4	n/a	n/a	n/a	n/a	n/a	n/a
3362677	RECOG_RESP	n/a	LTP335	ltpFR	6	4	n/a	BREAD	170	0	n/a	n/a	n/a	n/a	n/a	n/a	n/a
3363101	RECOG_CONF	n/a	LTP335	ltpFR	6	4	n/a	BREAD	170	n/a	4	n/a	n/a	n/a	n/a	n/a	n/a
3364687	RECOG_TARGET	n/a	LTP335	ltpFR	6	4	0	DICTATOR	462	1	5	1	n/a	n/a	n/a	n/a	n/a
3365308	RECOG_RESP	n/a	LTP335	ltpFR	6	4	0	DICTATOR	462	1	n/a	1	n/a	n/a	n/a	n/a	n/a
3365641	RECOG_CONF	n/a	LTP335	ltpFR	6	4	0	DICTATOR	462	n/a	5	1	n/a	n/a	n/a	n/a	n/a
3367218	RECOG_TARGET	n/a	LTP335	ltpFR	6	4	1	DRUM	502	1	5	0	n/a	n/a	n/a	n/a	n/a
3367848	RECOG_RESP	n/a	LTP335	ltpFR	6	4	1	DRUM	502	1	n/a	0	n/a	n/a	n/a	n/a	n/a
3368291	RECOG_CONF	n/a	LTP335	ltpFR	6	4	1	DRUM	502	n/a	5	0	n/a	n/a	n/a	n/a	n/a
3369735	RECOG_TARGET	n/a	LTP335	ltpFR	6	4	0	EMPEROR	529	1	5	1	n/a	n/a	n/a	n/a	n/a
3370258	RECOG_RESP	n/a	LTP335	ltpFR	6	4	0	EMPEROR	529	1	n/a	1	n/a	n/a	n/a	n/a	n/a
3370711	RECOG_CONF	n/a	LTP335	ltpFR	6	4	0	EMPEROR	529	n/a	5	1	n/a	n/a	n/a	n/a	n/a
3372216	RECOG_TARGET	n/a	LTP335	ltpFR	6	4	0	MOSS	918	1	5	1	n/a	n/a	n/a	n/a	n/a
3373008	RECOG_RESP	n/a	LTP335	ltpFR	6	4	0	MOSS	918	1	n/a	1	n/a	n/a	n/a	n/a	n/a
3373481	RECOG_CONF	n/a	LTP335	ltpFR	6	4	0	MOSS	918	n/a	5	1	n/a	n/a	n/a	n/a	n/a
3376640	REC_START	n/a	LTP335	ltpFR	6	5	n/a	n/a	n/a	n/a	n/a	n/a	n/a	n/a	n/a	n/a	n/a
3376665	RECOG_TARGET	n/a	LTP335	ltpFR	6	5	0	DOLL	481	1	5	0	n/a	n/a	n/a	n/a	n/a
3377444	RECOG_RESP	n/a	LTP335	ltpFR	6	5	0	DOLL	481	1	n/a	0	n/a	n/a	n/a	n/a	n/a
3377967	RECOG_CONF	n/a	LTP335	ltpFR	6	5	0	DOLL	481	n/a	5	0	n/a	n/a	n/a	n/a	n/a
3379446	RECOG_TARGET	n/a	LTP335	ltpFR	6	5	0	SERPENT	1270	1	5	1	n/a	n/a	n/a	n/a	n/a
3379984	RECOG_RESP	n/a	LTP335	ltpFR	6	5	0	SERPENT	1270	1	n/a	1	n/a	n/a	n/a	n/a	n/a
3380544	RECOG_CONF	n/a	LTP335	ltpFR	6	5	0	SERPENT	1270	n/a	5	1	n/a	n/a	n/a	n/a	n/a
3381846	RECOG_TARGET	n/a	LTP335	ltpFR	6	5	0	CANDY	230	1	5	0	n/a	n/a	n/a	n/a	n/a
3382554	RECOG_RESP	n/a	LTP335	ltpFR	6	5	0	CANDY	230	1	n/a	0	n/a	n/a	n/a	n/a	n/a
3382987	RECOG_CONF	n/a	LTP335	ltpFR	6	5	0	CANDY	230	n/a	5	0	n/a	n/a	n/a	n/a	n/a
3384477	RECOG_TARGET	n/a	LTP335	ltpFR	6	5	1	SPIT	1354	1	5	0	n/a	n/a	n/a	n/a	n/a
3384934	RECOG_RESP	n/a	LTP335	ltpFR	6	5	1	SPIT	1354	1	n/a	0	n/a	n/a	n/a	n/a	n/a
3385514	RECOG_CONF	n/a	LTP335	ltpFR	6	5	1	SPIT	1354	n/a	5	0	n/a	n/a	n/a	n/a	n/a
3387010	RECOG_TARGET	n/a	LTP335	ltpFR	6	5	1	DIAL	457	1	5	0	n/a	n/a	n/a	n/a	n/a
3387494	RECOG_RESP	n/a	LTP335	ltpFR	6	5	1	DIAL	457	1	n/a	0	n/a	n/a	n/a	n/a	n/a
3387947	RECOG_CONF	n/a	LTP335	ltpFR	6	5	1	DIAL	457	n/a	5	0	n/a	n/a	n/a	n/a	n/a
3389575	RECOG_LURE	n/a	LTP335	ltpFR	6	5	n/a	CLIPPERS	324	0	5	n/a	n/a	n/a	n/a	n/a	n/a
3391063	RECOG_RESP	n/a	LTP335	ltpFR	6	5	n/a	CLIPPERS	324	0	n/a	n/a	n/a	n/a	n/a	n/a	n/a
3391497	RECOG_CONF	n/a	LTP335	ltpFR	6	5	n/a	CLIPPERS	324	n/a	5	n/a	n/a	n/a	n/a	n/a	n/a
3393157	RECOG_TARGET	n/a	LTP335	ltpFR	6	5	1	ATHLETE	52	1	5	1	n/a	n/a	n/a	n/a	n/a
3393854	RECOG_RESP	n/a	LTP335	ltpFR	6	5	1	ATHLETE	52	1	n/a	1	n/a	n/a	n/a	n/a	n/a
3394394	RECOG_CONF	n/a	LTP335	ltpFR	6	5	1	ATHLETE	52	n/a	5	1	n/a	n/a	n/a	n/a	n/a
3395806	RECOG_TARGET	n/a	LTP335	ltpFR	6	5	0	PROTON	1132	1	4	0	n/a	n/a	n/a	n/a	n/a
3396424	RECOG_RESP	n/a	LTP335	ltpFR	6	5	0	PROTON	1132	1	n/a	0	n/a	n/a	n/a	n/a	n/a
3396867	RECOG_CONF	n/a	LTP335	ltpFR	6	5	0	PROTON	1132	n/a	4	0	n/a	n/a	n/a	n/a	n/a
3398454	RECOG_TARGET	n/a	LTP335	ltpFR	6	5	-1	NECK	939	1	5	-1	n/a	n/a	n/a	n/a	n/a
3399004	RECOG_RESP	n/a	LTP335	ltpFR	6	5	-1	NECK	939	1	n/a	-1	n/a	n/a	n/a	n/a	n/a
3399514	RECOG_CONF	n/a	LTP335	ltpFR	6	5	-1	NECK	939	n/a	5	-1	n/a	n/a	n/a	n/a	n/a
3400937	RECOG_TARGET	n/a	LTP335	ltpFR	6	5	1	RECEPTIONIST	1174	1	2	1	n/a	n/a	n/a	n/a	n/a
3401614	RECOG_RESP	n/a	LTP335	ltpFR	6	5	1	RECEPTIONIST	1174	1	n/a	1	n/a	n/a	n/a	n/a	n/a
3402412	RECOG_CONF	n/a	LTP335	ltpFR	6	5	1	RECEPTIONIST	1174	n/a	2	1	n/a	n/a	n/a	n/a	n/a
3403836	RECOG_TARGET	n/a	LTP335	ltpFR	6	5	1	DOLPHIN	483	1	3	3	n/a	n/a	n/a	n/a	n/a
3404754	RECOG_RESP	n/a	LTP335	ltpFR	6	5	1	DOLPHIN	483	1	n/a	3	n/a	n/a	n/a	n/a	n/a
3405255	RECOG_CONF	n/a	LTP335	ltpFR	6	5	1	DOLPHIN	483	n/a	3	3	n/a	n/a	n/a	n/a	n/a
3406751	RECOG_TARGET	n/a	LTP335	ltpFR	6	5	0	PAW	1029	1	5	1	n/a	n/a	n/a	n/a	n/a
3407504	RECOG_RESP	n/a	LTP335	ltpFR	6	5	0	PAW	1029	1	n/a	1	n/a	n/a	n/a	n/a	n/a
3407927	RECOG_CONF	n/a	LTP335	ltpFR	6	5	0	PAW	1029	n/a	5	1	n/a	n/a	n/a	n/a	n/a
3409399	RECOG_TARGET	n/a	LTP335	ltpFR	6	5	1	LION	827	1	5	1	n/a	n/a	n/a	n/a	n/a
3409944	RECOG_RESP	n/a	LTP335	ltpFR	6	5	1	LION	827	1	n/a	1	n/a	n/a	n/a	n/a	n/a
3410447	RECOG_CONF	n/a	LTP335	ltpFR	6	5	1	LION	827	n/a	5	1	n/a	n/a	n/a	n/a	n/a
3411849	RECOG_TARGET	n/a	LTP335	ltpFR	6	5	0	PAINTER	1004	1	5	1	n/a	n/a	n/a	n/a	n/a
3412344	RECOG_RESP	n/a	LTP335	ltpFR	6	5	0	PAINTER	1004	1	n/a	1	n/a	n/a	n/a	n/a	n/a
3412817	RECOG_CONF	n/a	LTP335	ltpFR	6	5	0	PAINTER	1004	n/a	5	1	n/a	n/a	n/a	n/a	n/a
3414364	RECOG_TARGET	n/a	LTP335	ltpFR	6	5	0	CAFE	216	1	5	1	n/a	n/a	n/a	n/a	n/a
3414874	RECOG_RESP	n/a	LTP335	ltpFR	6	5	0	CAFE	216	1	n/a	1	n/a	n/a	n/a	n/a	n/a
3415287	RECOG_CONF	n/a	LTP335	ltpFR	6	5	0	CAFE	216	n/a	5	1	n/a	n/a	n/a	n/a	n/a
3416629	RECOG_TARGET	n/a	LTP335	ltpFR	6	5	1	JUGGLER	763	1	5	1	n/a	n/a	n/a	n/a	n/a
3417224	RECOG_RESP	n/a	LTP335	ltpFR	6	5	1	JUGGLER	763	1	n/a	1	n/a	n/a	n/a	n/a	n/a
3417664	RECOG_CONF	n/a	LTP335	ltpFR	6	5	1	JUGGLER	763	n/a	5	1	n/a	n/a	n/a	n/a	n/a
3419195	RECOG_TARGET	n/a	LTP335	ltpFR	6	5	-1	SPY	1360	1	5	-1	n/a	n/a	n/a	n/a	n/a
3419664	RECOG_RESP	n/a	LTP335	ltpFR	6	5	-1	SPY	1360	1	n/a	-1	n/a	n/a	n/a	n/a	n/a
3420207	RECOG_CONF	n/a	LTP335	ltpFR	6	5	-1	SPY	1360	n/a	5	-1	n/a	n/a	n/a	n/a	n/a
3421794	RECOG_TARGET	n/a	LTP335	ltpFR	6	5	1	TEACHER	1440	1	5	1	n/a	n/a	n/a	n/a	n/a
3422284	RECOG_RESP	n/a	LTP335	ltpFR	6	5	1	TEACHER	1440	1	n/a	1	n/a	n/a	n/a	n/a	n/a
3422904	RECOG_CONF	n/a	LTP335	ltpFR	6	5	1	TEACHER	1440	n/a	5	1	n/a	n/a	n/a	n/a	n/a
