onset	duration	trial_type	sample	stim_file	subject	experiment	session	trial	item_name	item_num	list	answer	test_x	test_y	test_z
375.264	n/a	SESS_START	187632	n/a	LTP324	ltpFR2	12	n/a	n/a	n/a	n/a	n/a	0	0	0
411.68	n/a	START	205840	n/a	LTP324	ltpFR2	12	n/a	n/a	n/a	-1	n/a	n/a	n/a	n/a
411.71	n/a	PROB	205855	n/a	LTP324	ltpFR2	12	n/a	n/a	n/a	-1	11	5	4	7
412.978	n/a	PROB	206489	n/a	LTP324	ltpFR2	12	n/a	n/a	n/a	-1	5	2	2	1
413.73	n/a	PROB	206865	n/a	LTP324	ltpFR2	12	n/a	n/a	n/a	-1	14	1	6	7
414.914	n/a	PROB	207457	n/a	LTP324	ltpFR2	12	n/a	n/a	n/a	-1	19	7	4	8
417.082	n/a	PROB	208541	n/a	LTP324	ltpFR2	12	n/a	n/a	n/a	-1	13	4	2	7
418.266	n/a	PROB	209133	n/a	LTP324	ltpFR2	12	n/a	n/a	n/a	-1	17	9	4	4
419.402	n/a	PROB	209701	n/a	LTP324	ltpFR2	12	n/a	n/a	n/a	-1	19	8	7	5
420.686	n/a	PROB	210343	n/a	LTP324	ltpFR2	12	n/a	n/a	n/a	-1	19	7	9	3
422.744	n/a	STOP	211372	n/a	LTP324	ltpFR2	12	n/a	n/a	n/a	-1	n/a	n/a	n/a	n/a
456.566	n/a	WORD	228283	wordpools/wasnorm_wordpool_576.txt	LTP324	ltpFR2	12	1	JELLO	754	n/a	n/a	0	0	0
459.37	n/a	WORD	229685	wordpools/wasnorm_wordpool_576.txt	LTP324	ltpFR2	12	1	SNACK	1331	n/a	n/a	0	0	0
461.904	n/a	WORD	230952	wordpools/wasnorm_wordpool_576.txt	LTP324	ltpFR2	12	1	DANCER	437	n/a	n/a	0	0	0
464.69	n/a	WORD	232345	wordpools/wasnorm_wordpool_576.txt	LTP324	ltpFR2	12	1	SHARK	1275	n/a	n/a	0	0	0
467.124	n/a	WORD	233562	wordpools/wasnorm_wordpool_576.txt	LTP324	ltpFR2	12	1	WAITER	1580	n/a	n/a	0	0	0
469.944	n/a	WORD	234972	wordpools/wasnorm_wordpool_576.txt	LTP324	ltpFR2	12	1	MAMMAL	861	n/a	n/a	0	0	0
472.764	n/a	WORD	236382	wordpools/wasnorm_wordpool_576.txt	LTP324	ltpFR2	12	1	EAGLE	512	n/a	n/a	0	0	0
475.566	n/a	WORD	237783	wordpools/wasnorm_wordpool_576.txt	LTP324	ltpFR2	12	1	ROBIN	1199	n/a	n/a	0	0	0
478.334	n/a	WORD	239167	wordpools/wasnorm_wordpool_576.txt	LTP324	ltpFR2	12	1	FRIAR	605	n/a	n/a	0	0	0
481.138	n/a	WORD	240569	wordpools/wasnorm_wordpool_576.txt	LTP324	ltpFR2	12	1	XEROX	1628	n/a	n/a	0	0	0
483.722	n/a	WORD	241861	wordpools/wasnorm_wordpool_576.txt	LTP324	ltpFR2	12	1	BOARD	143	n/a	n/a	0	0	0
486.192	n/a	WORD	243096	wordpools/wasnorm_wordpool_576.txt	LTP324	ltpFR2	12	1	PISTON	1076	n/a	n/a	0	0	0
488.994	n/a	WORD	244497	wordpools/wasnorm_wordpool_576.txt	LTP324	ltpFR2	12	1	TOMBSTONE	1478	n/a	n/a	0	0	0
491.43	n/a	WORD	245715	wordpools/wasnorm_wordpool_576.txt	LTP324	ltpFR2	12	1	BANJO	82	n/a	n/a	0	0	0
493.864	n/a	WORD	246932	wordpools/wasnorm_wordpool_576.txt	LTP324	ltpFR2	12	1	SMOG	1330	n/a	n/a	0	0	0
496.6	n/a	WORD	248300	wordpools/wasnorm_wordpool_576.txt	LTP324	ltpFR2	12	1	LIZARD	834	n/a	n/a	0	0	0
499.252	n/a	WORD	249626	wordpools/wasnorm_wordpool_576.txt	LTP324	ltpFR2	12	1	PIZZA	1079	n/a	n/a	0	0	0
501.87	n/a	WORD	250935	wordpools/wasnorm_wordpool_576.txt	LTP324	ltpFR2	12	1	BADGE	68	n/a	n/a	0	0	0
504.54	n/a	WORD	252270	wordpools/wasnorm_wordpool_576.txt	LTP324	ltpFR2	12	1	CAPTIVE	240	n/a	n/a	0	0	0
506.976	n/a	WORD	253488	wordpools/wasnorm_wordpool_576.txt	LTP324	ltpFR2	12	1	GRAPE	654	n/a	n/a	0	0	0
509.596	n/a	WORD	254798	wordpools/wasnorm_wordpool_576.txt	LTP324	ltpFR2	12	1	PREACHER	1119	n/a	n/a	0	0	0
512.13	n/a	WORD	256065	wordpools/wasnorm_wordpool_576.txt	LTP324	ltpFR2	12	1	WIDOW	1608	n/a	n/a	0	0	0
514.682	n/a	WORD	257341	wordpools/wasnorm_wordpool_576.txt	LTP324	ltpFR2	12	1	RUG	1215	n/a	n/a	0	0	0
517.168	n/a	WORD	258584	wordpools/wasnorm_wordpool_576.txt	LTP324	ltpFR2	12	1	GROUND	666	n/a	n/a	0	0	0
518.786	n/a	START	259393	n/a	LTP324	ltpFR2	12	n/a	n/a	n/a	1	n/a	n/a	n/a	n/a
519.646	n/a	DISTRACTOR	259823	n/a	LTP324	ltpFR2	12	1	n/a	n/a	n/a	n/a	0	0	0
519.654	n/a	PROB	259827	n/a	LTP324	ltpFR2	12	n/a	n/a	n/a	1	20	8	3	9
520.988	n/a	PROB	260494	n/a	LTP324	ltpFR2	12	n/a	n/a	n/a	1	20	7	6	7
522.522	n/a	PROB	261261	n/a	LTP324	ltpFR2	12	n/a	n/a	n/a	1	16	2	5	9
523.74	n/a	PROB	261870	n/a	LTP324	ltpFR2	12	n/a	n/a	n/a	1	22	5	8	9
525.09	n/a	PROB	262545	n/a	LTP324	ltpFR2	12	n/a	n/a	n/a	1	20	9	7	4
526.36	n/a	PROB	263180	n/a	LTP324	ltpFR2	12	n/a	n/a	n/a	1	15	4	9	2
527.326	n/a	PROB	263663	n/a	LTP324	ltpFR2	12	n/a	n/a	n/a	1	11	3	2	6
528.462	n/a	PROB	264231	n/a	LTP324	ltpFR2	12	n/a	n/a	n/a	1	15	4	3	8
529.53	n/a	PROB	264765	n/a	LTP324	ltpFR2	12	n/a	n/a	n/a	1	16	2	5	9
530.796	n/a	PROB	265398	n/a	LTP324	ltpFR2	12	n/a	n/a	n/a	1	16	4	6	6
531.912	n/a	PROB	265956	n/a	LTP324	ltpFR2	12	n/a	n/a	n/a	1	8	1	3	4
532.696	n/a	PROB	266348	n/a	LTP324	ltpFR2	12	n/a	n/a	n/a	1	3	1	1	1
533.464	n/a	PROB	266732	n/a	LTP324	ltpFR2	12	n/a	n/a	n/a	1	13	7	2	4
535.048	n/a	PROB	267524	n/a	LTP324	ltpFR2	12	n/a	n/a	n/a	1	6	1	2	3
535.732	n/a	PROB	267866	n/a	LTP324	ltpFR2	12	n/a	n/a	n/a	1	22	9	5	8
537.25	n/a	PROB	268625	n/a	LTP324	ltpFR2	12	n/a	n/a	n/a	1	18	2	7	9
538.502	n/a	PROB	269251	n/a	LTP324	ltpFR2	12	n/a	n/a	n/a	1	21	6	8	7
539.67	n/a	PROB	269835	n/a	LTP324	ltpFR2	12	n/a	n/a	n/a	1	24	9	7	8
540.788	n/a	PROB	270394	n/a	LTP324	ltpFR2	12	n/a	n/a	n/a	1	12	6	1	5
541.706	n/a	STOP	270853	n/a	LTP324	ltpFR2	12	n/a	n/a	n/a	1	n/a	n/a	n/a	n/a
544.626	n/a	REC_START	272313	n/a	LTP324	ltpFR2	12	1	n/a	n/a	n/a	n/a	0	0	0
545.134	n/a	REC_WORD	272567	wordpools/wasnorm_wordpool_576.txt	LTP324	ltpFR2	12	1	WIDOW	1608	n/a	n/a	0	0	0
546.018	n/a	REC_WORD	273009	wordpools/wasnorm_wordpool_576.txt	LTP324	ltpFR2	12	1	RUG	1215	n/a	n/a	0	0	0
547.11	n/a	REC_WORD	273555	wordpools/wasnorm_wordpool_576.txt	LTP324	ltpFR2	12	1	PREACHER	1119	n/a	n/a	0	0	0
547.982	n/a	REC_WORD	273991	wordpools/wasnorm_wordpool_576.txt	LTP324	ltpFR2	12	1	FRIAR	605	n/a	n/a	0	0	0
548.982	n/a	REC_WORD	274491	wordpools/wasnorm_wordpool_576.txt	LTP324	ltpFR2	12	1	XEROX	1628	n/a	n/a	0	0	0
550.122	n/a	REC_WORD	275061	wordpools/wasnorm_wordpool_576.txt	LTP324	ltpFR2	12	1	BOARD	143	n/a	n/a	0	0	0
556.026	n/a	REC_WORD	278013	wordpools/wasnorm_wordpool_576.txt	LTP324	ltpFR2	12	1	GRAPE	654	n/a	n/a	0	0	0
675.62	n/a	WORD	337810	wordpools/wasnorm_wordpool_576.txt	LTP324	ltpFR2	12	2	TUBA	1515	n/a	n/a	0	0	0
678.388	n/a	WORD	339194	wordpools/wasnorm_wordpool_576.txt	LTP324	ltpFR2	12	2	ZEBRA	1635	n/a	n/a	0	0	0
681.19	n/a	WORD	340595	wordpools/wasnorm_wordpool_576.txt	LTP324	ltpFR2	12	2	RELISH	1183	n/a	n/a	0	0	0
683.808	n/a	WORD	341904	wordpools/wasnorm_wordpool_576.txt	LTP324	ltpFR2	12	2	HARP	689	n/a	n/a	0	0	0
686.328	n/a	WORD	343164	wordpools/wasnorm_wordpool_576.txt	LTP324	ltpFR2	12	2	ORANGE	980	n/a	n/a	0	0	0
689.114	n/a	WORD	344557	wordpools/wasnorm_wordpool_576.txt	LTP324	ltpFR2	12	2	SUSPECT	1415	n/a	n/a	0	0	0
691.616	n/a	WORD	345808	wordpools/wasnorm_wordpool_576.txt	LTP324	ltpFR2	12	2	LIVER	833	n/a	n/a	0	0	0
694.318	n/a	WORD	347159	wordpools/wasnorm_wordpool_576.txt	LTP324	ltpFR2	12	2	TYPIST	1532	n/a	n/a	0	0	0
697.07	n/a	WORD	348535	wordpools/wasnorm_wordpool_576.txt	LTP324	ltpFR2	12	2	BELLY	119	n/a	n/a	0	0	0
699.738	n/a	WORD	349869	wordpools/wasnorm_wordpool_576.txt	LTP324	ltpFR2	12	2	BODY	145	n/a	n/a	0	0	0
702.258	n/a	WORD	351129	wordpools/wasnorm_wordpool_576.txt	LTP324	ltpFR2	12	2	LASER	801	n/a	n/a	0	0	0
704.91	n/a	WORD	352455	wordpools/wasnorm_wordpool_576.txt	LTP324	ltpFR2	12	2	LAMP	798	n/a	n/a	0	0	0
707.362	n/a	WORD	353681	wordpools/wasnorm_wordpool_576.txt	LTP324	ltpFR2	12	2	WOMAN	1620	n/a	n/a	0	0	0
709.848	n/a	WORD	354924	wordpools/wasnorm_wordpool_576.txt	LTP324	ltpFR2	12	2	SUMMIT	1405	n/a	n/a	0	0	0
712.5	n/a	WORD	356250	wordpools/wasnorm_wordpool_576.txt	LTP324	ltpFR2	12	2	SHELF	1280	n/a	n/a	0	0	0
715.102	n/a	WORD	357551	wordpools/wasnorm_wordpool_576.txt	LTP324	ltpFR2	12	2	BROTHER	179	n/a	n/a	0	0	0
717.754	n/a	WORD	358877	wordpools/wasnorm_wordpool_576.txt	LTP324	ltpFR2	12	2	CLAMP	316	n/a	n/a	0	0	0
720.558	n/a	WORD	360279	wordpools/wasnorm_wordpool_576.txt	LTP324	ltpFR2	12	2	CHAUFFEUR	283	n/a	n/a	0	0	0
723.36	n/a	WORD	361680	wordpools/wasnorm_wordpool_576.txt	LTP324	ltpFR2	12	2	NOVEL	960	n/a	n/a	0	0	0
726.062	n/a	WORD	363031	wordpools/wasnorm_wordpool_576.txt	LTP324	ltpFR2	12	2	JUNGLE	764	n/a	n/a	0	0	0
728.714	n/a	WORD	364357	wordpools/wasnorm_wordpool_576.txt	LTP324	ltpFR2	12	2	COMPASS	358	n/a	n/a	0	0	0
731.484	n/a	WORD	365742	wordpools/wasnorm_wordpool_576.txt	LTP324	ltpFR2	12	2	SLOPE	1328	n/a	n/a	0	0	0
733.984	n/a	WORD	366992	wordpools/wasnorm_wordpool_576.txt	LTP324	ltpFR2	12	2	FIREMAN	569	n/a	n/a	0	0	0
736.688	n/a	WORD	368344	wordpools/wasnorm_wordpool_576.txt	LTP324	ltpFR2	12	2	SCULPTURE	1258	n/a	n/a	0	0	0
738.304	n/a	START	369152	n/a	LTP324	ltpFR2	12	n/a	n/a	n/a	2	n/a	n/a	n/a	n/a
739.448	n/a	DISTRACTOR	369724	n/a	LTP324	ltpFR2	12	2	n/a	n/a	n/a	n/a	0	0	0
739.456	n/a	PROB	369728	n/a	LTP324	ltpFR2	12	n/a	n/a	n/a	2	8	2	1	5
740.922	n/a	PROB	370461	n/a	LTP324	ltpFR2	12	n/a	n/a	n/a	2	20	8	5	7
742.258	n/a	PROB	371129	n/a	LTP324	ltpFR2	12	n/a	n/a	n/a	2	15	5	1	9
743.308	n/a	PROB	371654	n/a	LTP324	ltpFR2	12	n/a	n/a	n/a	2	15	1	5	9
744.042	n/a	PROB	372021	n/a	LTP324	ltpFR2	12	n/a	n/a	n/a	2	10	8	1	1
744.81	n/a	PROB	372405	n/a	LTP324	ltpFR2	12	n/a	n/a	n/a	2	15	5	9	1
745.512	n/a	PROB	372756	n/a	LTP324	ltpFR2	12	n/a	n/a	n/a	2	13	4	2	7
746.528	n/a	PROB	373264	n/a	LTP324	ltpFR2	12	n/a	n/a	n/a	2	23	8	6	9
747.996	n/a	PROB	373998	n/a	LTP324	ltpFR2	12	n/a	n/a	n/a	2	17	6	5	5
749.064	n/a	PROB	374532	n/a	LTP324	ltpFR2	12	n/a	n/a	n/a	2	11	9	1	2
751.016	n/a	PROB	375508	n/a	LTP324	ltpFR2	12	n/a	n/a	n/a	2	12	3	1	8
752.766	n/a	PROB	376383	n/a	LTP324	ltpFR2	12	n/a	n/a	n/a	2	14	4	8	2
753.768	n/a	PROB	376884	n/a	LTP324	ltpFR2	12	n/a	n/a	n/a	2	15	5	3	7
755.036	n/a	PROB	377518	n/a	LTP324	ltpFR2	12	n/a	n/a	n/a	2	11	1	2	8
756.304	n/a	PROB	378152	n/a	LTP324	ltpFR2	12	n/a	n/a	n/a	2	22	4	9	9
757.338	n/a	PROB	378669	n/a	LTP324	ltpFR2	12	n/a	n/a	n/a	2	24	7	8	9
758.34	n/a	PROB	379170	n/a	LTP324	ltpFR2	12	n/a	n/a	n/a	2	12	1	2	9
759.39	n/a	PROB	379695	n/a	LTP324	ltpFR2	12	n/a	n/a	n/a	2	18	4	6	8
760.408	n/a	PROB	380204	n/a	LTP324	ltpFR2	12	n/a	n/a	n/a	2	25	9	7	9
762.124	n/a	STOP	381062	n/a	LTP324	ltpFR2	12	n/a	n/a	n/a	2	n/a	n/a	n/a	n/a
764.094	n/a	REC_START	382047	n/a	LTP324	ltpFR2	12	2	n/a	n/a	n/a	n/a	0	0	0
767.448	n/a	REC_WORD	383724	wordpools/wasnorm_wordpool_576.txt	LTP324	ltpFR2	12	2	NOVEL	960	n/a	n/a	0	0	0
769.814	n/a	REC_WORD	384907	wordpools/wasnorm_wordpool_576.txt	LTP324	ltpFR2	12	2	JUNGLE	764	n/a	n/a	0	0	0
772.814	n/a	REC_WORD	386407	wordpools/wasnorm_wordpool_576.txt	LTP324	ltpFR2	12	2	RELISH	1183	n/a	n/a	0	0	0
774.02	n/a	REC_WORD	387010	wordpools/wasnorm_wordpool_576.txt	LTP324	ltpFR2	12	2	HARP	689	n/a	n/a	0	0	0
775.402	n/a	REC_WORD	387701	wordpools/wasnorm_wordpool_576.txt	LTP324	ltpFR2	12	2	ZEBRA	1635	n/a	n/a	0	0	0
776.816	n/a	REC_WORD	388408	wordpools/wasnorm_wordpool_576.txt	LTP324	ltpFR2	12	2	TUBA	1515	n/a	n/a	0	0	0
777.838	n/a	REC_WORD	388919	wordpools/wasnorm_wordpool_576.txt	LTP324	ltpFR2	12	2	ORANGE	980	n/a	n/a	0	0	0
891.386	n/a	DISTRACTOR	445693	n/a	LTP324	ltpFR2	12	3	n/a	n/a	n/a	n/a	0	0	0
891.386	n/a	START	445693	n/a	LTP324	ltpFR2	12	n/a	n/a	n/a	3	n/a	n/a	n/a	n/a
891.418	n/a	PROB	445709	n/a	LTP324	ltpFR2	12	n/a	n/a	n/a	3	10	2	5	3
892.286	n/a	PROB	446143	n/a	LTP324	ltpFR2	12	n/a	n/a	n/a	3	5	2	2	1
892.902	n/a	PROB	446451	n/a	LTP324	ltpFR2	12	n/a	n/a	n/a	3	20	5	7	8
893.986	n/a	PROB	446993	n/a	LTP324	ltpFR2	12	n/a	n/a	n/a	3	6	1	2	3
894.688	n/a	PROB	447344	n/a	LTP324	ltpFR2	12	n/a	n/a	n/a	3	19	8	5	6
896.072	n/a	PROB	448036	n/a	LTP324	ltpFR2	12	n/a	n/a	n/a	3	20	2	9	9
897.006	n/a	PROB	448503	n/a	LTP324	ltpFR2	12	n/a	n/a	n/a	3	14	9	1	4
898.124	n/a	PROB	449062	n/a	LTP324	ltpFR2	12	n/a	n/a	n/a	3	26	7	9	9
899.674	n/a	PROB	449837	n/a	LTP324	ltpFR2	12	n/a	n/a	n/a	3	20	7	8	5
901.226	n/a	PROB	450613	n/a	LTP324	ltpFR2	12	n/a	n/a	n/a	3	199	9	3	7
902.894	n/a	PROB	451447	n/a	LTP324	ltpFR2	12	n/a	n/a	n/a	3	18	5	8	5
904.312	n/a	PROB	452156	n/a	LTP324	ltpFR2	12	n/a	n/a	n/a	3	10	3	4	3
905.58	n/a	PROB	452790	n/a	LTP324	ltpFR2	12	n/a	n/a	n/a	3	21	7	9	5
907.198	n/a	PROB	453599	n/a	LTP324	ltpFR2	12	n/a	n/a	n/a	3	20	9	7	4
908.666	n/a	PROB	454333	n/a	LTP324	ltpFR2	12	n/a	n/a	n/a	3	6	3	2	1
909.782	n/a	PROB	454891	n/a	LTP324	ltpFR2	12	n/a	n/a	n/a	3	1	7	1	8
910.552	n/a	PROB	455276	n/a	LTP324	ltpFR2	12	n/a	n/a	n/a	3	22	7	7	8
912.068	n/a	PROB	456034	n/a	LTP324	ltpFR2	12	n/a	n/a	n/a	3	19	7	3	9
913.846	n/a	STOP	456923	n/a	LTP324	ltpFR2	12	n/a	n/a	n/a	3	n/a	n/a	n/a	n/a
916.372	n/a	WORD	458186	wordpools/wasnorm_wordpool_576.txt	LTP324	ltpFR2	12	3	INMATE	738	n/a	n/a	0	0	0
918.94	n/a	WORD	459470	wordpools/wasnorm_wordpool_576.txt	LTP324	ltpFR2	12	3	CARROT	249	n/a	n/a	0	0	0
921.694	n/a	WORD	460847	wordpools/wasnorm_wordpool_576.txt	LTP324	ltpFR2	12	3	WITNESS	1618	n/a	n/a	0	0	0
924.162	n/a	WORD	462081	wordpools/wasnorm_wordpool_576.txt	LTP324	ltpFR2	12	3	DANDRUFF	439	n/a	n/a	0	0	0
926.964	n/a	WORD	463482	wordpools/wasnorm_wordpool_576.txt	LTP324	ltpFR2	12	3	IDOL	733	n/a	n/a	0	0	0
929.734	n/a	WORD	464867	wordpools/wasnorm_wordpool_576.txt	LTP324	ltpFR2	12	3	SPACE	1345	n/a	n/a	0	0	0
932.47	n/a	WORD	466235	wordpools/wasnorm_wordpool_576.txt	LTP324	ltpFR2	12	3	PACKAGE	997	n/a	n/a	0	0	0
935.038	n/a	WORD	467519	wordpools/wasnorm_wordpool_576.txt	LTP324	ltpFR2	12	3	FRECKLE	602	n/a	n/a	0	0	0
937.642	n/a	WORD	468821	wordpools/wasnorm_wordpool_576.txt	LTP324	ltpFR2	12	3	MEDAL	885	n/a	n/a	0	0	0
940.076	n/a	WORD	470038	wordpools/wasnorm_wordpool_576.txt	LTP324	ltpFR2	12	3	CRAB	397	n/a	n/a	0	0	0
942.812	n/a	WORD	471406	wordpools/wasnorm_wordpool_576.txt	LTP324	ltpFR2	12	3	HOOD	714	n/a	n/a	0	0	0
945.312	n/a	WORD	472656	wordpools/wasnorm_wordpool_576.txt	LTP324	ltpFR2	12	3	TRENCH	1503	n/a	n/a	0	0	0
947.816	n/a	WORD	473908	wordpools/wasnorm_wordpool_576.txt	LTP324	ltpFR2	12	3	CRATER	400	n/a	n/a	0	0	0
950.584	n/a	WORD	475292	wordpools/wasnorm_wordpool_576.txt	LTP324	ltpFR2	12	3	FOREHEAD	592	n/a	n/a	0	0	0
953.12	n/a	WORD	476560	wordpools/wasnorm_wordpool_576.txt	LTP324	ltpFR2	12	3	TWEEZERS	1526	n/a	n/a	0	0	0
955.888	n/a	WORD	477944	wordpools/wasnorm_wordpool_576.txt	LTP324	ltpFR2	12	3	BLENDER	136	n/a	n/a	0	0	0
958.408	n/a	WORD	479204	wordpools/wasnorm_wordpool_576.txt	LTP324	ltpFR2	12	3	BUGGY	188	n/a	n/a	0	0	0
960.976	n/a	WORD	480488	wordpools/wasnorm_wordpool_576.txt	LTP324	ltpFR2	12	3	PUPPY	1144	n/a	n/a	0	0	0
963.696	n/a	WORD	481848	wordpools/wasnorm_wordpool_576.txt	LTP324	ltpFR2	12	3	CITRUS	313	n/a	n/a	0	0	0
966.248	n/a	WORD	483124	wordpools/wasnorm_wordpool_576.txt	LTP324	ltpFR2	12	3	BANK	83	n/a	n/a	0	0	0
968.966	n/a	WORD	484483	wordpools/wasnorm_wordpool_576.txt	LTP324	ltpFR2	12	3	DIME	466	n/a	n/a	0	0	0
971.736	n/a	WORD	485868	wordpools/wasnorm_wordpool_576.txt	LTP324	ltpFR2	12	3	PEACH	1031	n/a	n/a	0	0	0
974.356	n/a	WORD	487178	wordpools/wasnorm_wordpool_576.txt	LTP324	ltpFR2	12	3	ITEM	746	n/a	n/a	0	0	0
976.99	n/a	WORD	488495	wordpools/wasnorm_wordpool_576.txt	LTP324	ltpFR2	12	3	TURNIP	1521	n/a	n/a	0	0	0
978.61	n/a	START	489305	n/a	LTP324	ltpFR2	12	n/a	n/a	n/a	4	n/a	n/a	n/a	n/a
979.426	n/a	DISTRACTOR	489713	n/a	LTP324	ltpFR2	12	3	n/a	n/a	n/a	n/a	0	0	0
979.444	n/a	PROB	489722	n/a	LTP324	ltpFR2	12	n/a	n/a	n/a	4	10	3	3	4
980.628	n/a	PROB	490314	n/a	LTP324	ltpFR2	12	n/a	n/a	n/a	4	14	4	9	1
981.596	n/a	PROB	490798	n/a	LTP324	ltpFR2	12	n/a	n/a	n/a	4	19	8	4	7
982.728	n/a	PROB	491364	n/a	LTP324	ltpFR2	12	n/a	n/a	n/a	4	14	9	3	2
983.914	n/a	PROB	491957	n/a	LTP324	ltpFR2	12	n/a	n/a	n/a	4	13	6	5	2
984.914	n/a	PROB	492457	n/a	LTP324	ltpFR2	12	n/a	n/a	n/a	4	6	2	1	3
985.632	n/a	PROB	492816	n/a	LTP324	ltpFR2	12	n/a	n/a	n/a	4	19	4	9	6
986.964	n/a	PROB	493482	n/a	LTP324	ltpFR2	12	n/a	n/a	n/a	4	26	9	9	8
988.468	n/a	PROB	494234	n/a	LTP324	ltpFR2	12	n/a	n/a	n/a	4	6	2	3	1
989.334	n/a	PROB	494667	n/a	LTP324	ltpFR2	12	n/a	n/a	n/a	4	8	3	2	2
990.168	n/a	PROB	495084	n/a	LTP324	ltpFR2	12	n/a	n/a	n/a	4	18	8	8	2
991.386	n/a	PROB	495693	n/a	LTP324	ltpFR2	12	n/a	n/a	n/a	4	20	9	2	9
992.454	n/a	PROB	496227	n/a	LTP324	ltpFR2	12	n/a	n/a	n/a	4	15	7	3	5
993.488	n/a	PROB	496744	n/a	LTP324	ltpFR2	12	n/a	n/a	n/a	4	18	7	2	9
995.222	n/a	PROB	497611	n/a	LTP324	ltpFR2	12	n/a	n/a	n/a	4	17	6	7	4
996.408	n/a	PROB	498204	n/a	LTP324	ltpFR2	12	n/a	n/a	n/a	4	12	2	5	5
997.224	n/a	PROB	498612	n/a	LTP324	ltpFR2	12	n/a	n/a	n/a	4	10	2	5	3
998.708	n/a	PROB	499354	n/a	LTP324	ltpFR2	12	n/a	n/a	n/a	4	13	2	3	8
1000.51	n/a	PROB	500255	n/a	LTP324	ltpFR2	12	n/a	n/a	n/a	4	16	3	4	9
1001.658	n/a	STOP	500829	n/a	LTP324	ltpFR2	12	n/a	n/a	n/a	4	n/a	n/a	n/a	n/a
1004.498	n/a	REC_START	502249	n/a	LTP324	ltpFR2	12	3	n/a	n/a	n/a	n/a	0	0	0
1004.888	n/a	REC_WORD	502444	wordpools/wasnorm_wordpool_576.txt	LTP324	ltpFR2	12	3	BUGGY	188	n/a	n/a	0	0	0
1005.658	n/a	REC_WORD	502829	wordpools/wasnorm_wordpool_576.txt	LTP324	ltpFR2	12	3	PUPPY	1144	n/a	n/a	0	0	0
1006.368	n/a	REC_WORD	503184	wordpools/wasnorm_wordpool_576.txt	LTP324	ltpFR2	12	3	CITRUS	313	n/a	n/a	0	0	0
1007.438	n/a	REC_WORD	503719	wordpools/wasnorm_wordpool_576.txt	LTP324	ltpFR2	12	3	PEACH	1031	n/a	n/a	0	0	0
1008.372	n/a	REC_WORD	504186	wordpools/wasnorm_wordpool_576.txt	LTP324	ltpFR2	12	3	ITEM	746	n/a	n/a	0	0	0
1012.528	n/a	REC_WORD	506264	wordpools/wasnorm_wordpool_576.txt	LTP324	ltpFR2	12	3	CRATER	400	n/a	n/a	0	0	0
1013.498	n/a	REC_WORD	506749	wordpools/wasnorm_wordpool_576.txt	LTP324	ltpFR2	12	3	TRENCH	1503	n/a	n/a	0	0	0
1014.58	n/a	REC_WORD	507290	wordpools/wasnorm_wordpool_576.txt	LTP324	ltpFR2	12	3	FOREHEAD	592	n/a	n/a	0	0	0
1122.348	n/a	DISTRACTOR	561174	n/a	LTP324	ltpFR2	12	4	n/a	n/a	n/a	n/a	0	0	0
1122.348	n/a	START	561174	n/a	LTP324	ltpFR2	12	n/a	n/a	n/a	5	n/a	n/a	n/a	n/a
1122.38	n/a	PROB	561190	n/a	LTP324	ltpFR2	12	n/a	n/a	n/a	5	10	4	3	3
1123.098	n/a	PROB	561549	n/a	LTP324	ltpFR2	12	n/a	n/a	n/a	5	7	2	3	1
1124.466	n/a	PROB	562233	n/a	LTP324	ltpFR2	12	n/a	n/a	n/a	5	21	8	4	9
1126.316	n/a	PROB	563158	n/a	LTP324	ltpFR2	12	n/a	n/a	n/a	5	11	2	4	5
1127.168	n/a	PROB	563584	n/a	LTP324	ltpFR2	12	n/a	n/a	n/a	5	18	8	1	9
1128.252	n/a	PROB	564126	n/a	LTP324	ltpFR2	12	n/a	n/a	n/a	5	11	5	2	4
1129.136	n/a	PROB	564568	n/a	LTP324	ltpFR2	12	n/a	n/a	n/a	5	17	7	8	2
1130.12	n/a	PROB	565060	n/a	LTP324	ltpFR2	12	n/a	n/a	n/a	5	14	4	5	5
1130.988	n/a	PROB	565494	n/a	LTP324	ltpFR2	12	n/a	n/a	n/a	5	14	3	9	2
1131.904	n/a	PROB	565952	n/a	LTP324	ltpFR2	12	n/a	n/a	n/a	5	9	1	7	1
1132.624	n/a	PROB	566312	n/a	LTP324	ltpFR2	12	n/a	n/a	n/a	5	16	8	2	6
1133.558	n/a	PROB	566779	n/a	LTP324	ltpFR2	12	n/a	n/a	n/a	5	8	1	5	2
1134.492	n/a	PROB	567246	n/a	LTP324	ltpFR2	12	n/a	n/a	n/a	5	9	3	2	4
1136.308	n/a	PROB	568154	n/a	LTP324	ltpFR2	12	n/a	n/a	n/a	5	20	2	9	9
1138.494	n/a	PROB	569247	n/a	LTP324	ltpFR2	12	n/a	n/a	n/a	5	16	1	9	6
1139.728	n/a	PROB	569864	n/a	LTP324	ltpFR2	12	n/a	n/a	n/a	5	18	7	6	5
1140.796	n/a	PROB	570398	n/a	LTP324	ltpFR2	12	n/a	n/a	n/a	5	27	9	9	9
1141.696	n/a	PROB	570848	n/a	LTP324	ltpFR2	12	n/a	n/a	n/a	5	13	3	7	3
1142.898	n/a	PROB	571449	n/a	LTP324	ltpFR2	12	n/a	n/a	n/a	5	19	6	8	5
1143.966	n/a	PROB	571983	n/a	LTP324	ltpFR2	12	n/a	n/a	n/a	5	17	4	9	4
1145.124	n/a	STOP	572562	n/a	LTP324	ltpFR2	12	n/a	n/a	n/a	5	n/a	n/a	n/a	n/a
1147.302	n/a	WORD	573651	wordpools/wasnorm_wordpool_576.txt	LTP324	ltpFR2	12	4	LION	827	n/a	n/a	0	0	0
1149.786	n/a	WORD	574893	wordpools/wasnorm_wordpool_576.txt	LTP324	ltpFR2	12	4	LEOPARD	812	n/a	n/a	0	0	0
1152.44	n/a	WORD	576220	wordpools/wasnorm_wordpool_576.txt	LTP324	ltpFR2	12	4	PIGMENT	1066	n/a	n/a	0	0	0
1155.108	n/a	WORD	577554	wordpools/wasnorm_wordpool_576.txt	LTP324	ltpFR2	12	4	SCALPEL	1243	n/a	n/a	0	0	0
1157.76	n/a	WORD	578880	wordpools/wasnorm_wordpool_576.txt	LTP324	ltpFR2	12	4	BLADE	134	n/a	n/a	0	0	0
1160.312	n/a	WORD	580156	wordpools/wasnorm_wordpool_576.txt	LTP324	ltpFR2	12	4	FLESH	579	n/a	n/a	0	0	0
1162.848	n/a	WORD	581424	wordpools/wasnorm_wordpool_576.txt	LTP324	ltpFR2	12	4	CYCLONE	431	n/a	n/a	0	0	0
1165.634	n/a	WORD	582817	wordpools/wasnorm_wordpool_576.txt	LTP324	ltpFR2	12	4	NURSE	963	n/a	n/a	0	0	0
1168.404	n/a	WORD	584202	wordpools/wasnorm_wordpool_576.txt	LTP324	ltpFR2	12	4	REBEL	1172	n/a	n/a	0	0	0
1171.038	n/a	WORD	585519	wordpools/wasnorm_wordpool_576.txt	LTP324	ltpFR2	12	4	LUGGAGE	847	n/a	n/a	0	0	0
1173.74	n/a	WORD	586870	wordpools/wasnorm_wordpool_576.txt	LTP324	ltpFR2	12	4	FIREPLACE	570	n/a	n/a	0	0	0
1176.292	n/a	WORD	588146	wordpools/wasnorm_wordpool_576.txt	LTP324	ltpFR2	12	4	MASK	876	n/a	n/a	0	0	0
1178.944	n/a	WORD	589472	wordpools/wasnorm_wordpool_576.txt	LTP324	ltpFR2	12	4	PECAN	1036	n/a	n/a	0	0	0
1181.614	n/a	WORD	590807	wordpools/wasnorm_wordpool_576.txt	LTP324	ltpFR2	12	4	MATTRESS	879	n/a	n/a	0	0	0
1184.166	n/a	WORD	592083	wordpools/wasnorm_wordpool_576.txt	LTP324	ltpFR2	12	4	BLOUSE	139	n/a	n/a	0	0	0
1186.818	n/a	WORD	593409	wordpools/wasnorm_wordpool_576.txt	LTP324	ltpFR2	12	4	WORLD	1622	n/a	n/a	0	0	0
1189.356	n/a	WORD	594678	wordpools/wasnorm_wordpool_576.txt	LTP324	ltpFR2	12	4	SERVER	1272	n/a	n/a	0	0	0
1191.906	n/a	WORD	595953	wordpools/wasnorm_wordpool_576.txt	LTP324	ltpFR2	12	4	LODGE	839	n/a	n/a	0	0	0
1194.74	n/a	WORD	597370	wordpools/wasnorm_wordpool_576.txt	LTP324	ltpFR2	12	4	DORM	488	n/a	n/a	0	0	0
1197.462	n/a	WORD	598731	wordpools/wasnorm_wordpool_576.txt	LTP324	ltpFR2	12	4	EMPIRE	530	n/a	n/a	0	0	0
1199.962	n/a	WORD	599981	wordpools/wasnorm_wordpool_576.txt	LTP324	ltpFR2	12	4	DUST	508	n/a	n/a	0	0	0
1202.416	n/a	WORD	601208	wordpools/wasnorm_wordpool_576.txt	LTP324	ltpFR2	12	4	COMET	353	n/a	n/a	0	0	0
1205.15	n/a	WORD	602575	wordpools/wasnorm_wordpool_576.txt	LTP324	ltpFR2	12	4	FARMER	553	n/a	n/a	0	0	0
1207.668	n/a	WORD	603834	wordpools/wasnorm_wordpool_576.txt	LTP324	ltpFR2	12	4	JAPAN	749	n/a	n/a	0	0	0
1209.288	n/a	START	604644	n/a	LTP324	ltpFR2	12	n/a	n/a	n/a	6	n/a	n/a	n/a	n/a
1210.402	n/a	DISTRACTOR	605201	n/a	LTP324	ltpFR2	12	4	n/a	n/a	n/a	n/a	0	0	0
1210.422	n/a	PROB	605211	n/a	LTP324	ltpFR2	12	n/a	n/a	n/a	6	16	9	3	4
1211.806	n/a	PROB	605903	n/a	LTP324	ltpFR2	12	n/a	n/a	n/a	6	11	1	5	5
1212.524	n/a	PROB	606262	n/a	LTP324	ltpFR2	12	n/a	n/a	n/a	6	16	3	8	5
1214.326	n/a	PROB	607163	n/a	LTP324	ltpFR2	12	n/a	n/a	n/a	6	10	3	4	3
1215.076	n/a	PROB	607538	n/a	LTP324	ltpFR2	12	n/a	n/a	n/a	6	14	3	3	8
1216.562	n/a	PROB	608281	n/a	LTP324	ltpFR2	12	n/a	n/a	n/a	6	21	6	8	7
1217.744	n/a	PROB	608872	n/a	LTP324	ltpFR2	12	n/a	n/a	n/a	6	12	3	4	5
1218.562	n/a	PROB	609281	n/a	LTP324	ltpFR2	12	n/a	n/a	n/a	6	16	8	7	1
1219.33	n/a	PROB	609665	n/a	LTP324	ltpFR2	12	n/a	n/a	n/a	6	6	2	2	2
1220.03	n/a	PROB	610015	n/a	LTP324	ltpFR2	12	n/a	n/a	n/a	6	15	4	8	3
1221.914	n/a	PROB	610957	n/a	LTP324	ltpFR2	12	n/a	n/a	n/a	6	9	1	7	1
1222.866	n/a	PROB	611433	n/a	LTP324	ltpFR2	12	n/a	n/a	n/a	6	15	4	2	9
1224.484	n/a	PROB	612242	n/a	LTP324	ltpFR2	12	n/a	n/a	n/a	6	13	6	3	4
1226.136	n/a	PROB	613068	n/a	LTP324	ltpFR2	12	n/a	n/a	n/a	6	16	7	8	1
1226.902	n/a	PROB	613451	n/a	LTP324	ltpFR2	12	n/a	n/a	n/a	6	12	4	7	1
1227.77	n/a	PROB	613885	n/a	LTP324	ltpFR2	12	n/a	n/a	n/a	6	22	8	9	5
1229.104	n/a	PROB	614552	n/a	LTP324	ltpFR2	12	n/a	n/a	n/a	6	16	4	9	3
1230.34	n/a	PROB	615170	n/a	LTP324	ltpFR2	12	n/a	n/a	n/a	6	16	5	9	2
1233.286	n/a	STOP	616643	n/a	LTP324	ltpFR2	12	n/a	n/a	n/a	6	n/a	n/a	n/a	n/a
1235.176	n/a	REC_START	617588	n/a	LTP324	ltpFR2	12	4	n/a	n/a	n/a	n/a	0	0	0
1237.368	n/a	REC_WORD	618684	wordpools/wasnorm_wordpool_576.txt	LTP324	ltpFR2	12	4	MATTRESS	879	n/a	n/a	0	0	0
1238.718	n/a	REC_WORD	619359	wordpools/wasnorm_wordpool_576.txt	LTP324	ltpFR2	12	4	SERVER	1272	n/a	n/a	0	0	0
1239.644	n/a	REC_WORD	619822	wordpools/wasnorm_wordpool_576.txt	LTP324	ltpFR2	12	4	LODGE	839	n/a	n/a	0	0	0
1240.51	n/a	REC_WORD	620255	wordpools/wasnorm_wordpool_576.txt	LTP324	ltpFR2	12	4	DORM	488	n/a	n/a	0	0	0
1241.8	n/a	REC_WORD	620900	wordpools/wasnorm_wordpool_576.txt	LTP324	ltpFR2	12	4	WORLD	1622	n/a	n/a	0	0	0
1365.786	n/a	WORD	682893	wordpools/wasnorm_wordpool_576.txt	LTP324	ltpFR2	12	5	CIGAR	308	n/a	n/a	0	0	0
1368.406	n/a	WORD	684203	wordpools/wasnorm_wordpool_576.txt	LTP324	ltpFR2	12	5	SHOULDER	1294	n/a	n/a	0	0	0
1370.974	n/a	WORD	685487	wordpools/wasnorm_wordpool_576.txt	LTP324	ltpFR2	12	5	YOLK	1633	n/a	n/a	0	0	0
1373.478	n/a	WORD	686739	wordpools/wasnorm_wordpool_576.txt	LTP324	ltpFR2	12	5	PROTON	1132	n/a	n/a	0	0	0
1376.044	n/a	WORD	688022	wordpools/wasnorm_wordpool_576.txt	LTP324	ltpFR2	12	5	LAKE	796	n/a	n/a	0	0	0
1378.532	n/a	WORD	689266	wordpools/wasnorm_wordpool_576.txt	LTP324	ltpFR2	12	5	CROSS	413	n/a	n/a	0	0	0
1381.334	n/a	WORD	690667	wordpools/wasnorm_wordpool_576.txt	LTP324	ltpFR2	12	5	MARKER	870	n/a	n/a	0	0	0
1383.902	n/a	WORD	691951	wordpools/wasnorm_wordpool_576.txt	LTP324	ltpFR2	12	5	PASTA	1021	n/a	n/a	0	0	0
1386.654	n/a	WORD	693327	wordpools/wasnorm_wordpool_576.txt	LTP324	ltpFR2	12	5	DRINK	498	n/a	n/a	0	0	0
1389.124	n/a	WORD	694562	wordpools/wasnorm_wordpool_576.txt	LTP324	ltpFR2	12	5	GYMNAST	675	n/a	n/a	0	0	0
1391.592	n/a	WORD	695796	wordpools/wasnorm_wordpool_576.txt	LTP324	ltpFR2	12	5	FOOTBALL	591	n/a	n/a	0	0	0
1394.128	n/a	WORD	697064	wordpools/wasnorm_wordpool_576.txt	LTP324	ltpFR2	12	5	BLOCKADE	137	n/a	n/a	0	0	0
1396.762	n/a	WORD	698381	wordpools/wasnorm_wordpool_576.txt	LTP324	ltpFR2	12	5	BEAKER	104	n/a	n/a	0	0	0
1399.398	n/a	WORD	699699	wordpools/wasnorm_wordpool_576.txt	LTP324	ltpFR2	12	5	GLOVE	642	n/a	n/a	0	0	0
1401.884	n/a	WORD	700942	wordpools/wasnorm_wordpool_576.txt	LTP324	ltpFR2	12	5	RECORD	1176	n/a	n/a	0	0	0
1404.486	n/a	WORD	702243	wordpools/wasnorm_wordpool_576.txt	LTP324	ltpFR2	12	5	FLUTE	585	n/a	n/a	0	0	0
1407.188	n/a	WORD	703594	wordpools/wasnorm_wordpool_576.txt	LTP324	ltpFR2	12	5	PEPPER	1047	n/a	n/a	0	0	0
1409.94	n/a	WORD	704970	wordpools/wasnorm_wordpool_576.txt	LTP324	ltpFR2	12	5	ELBOW	520	n/a	n/a	0	0	0
1412.56	n/a	WORD	706280	wordpools/wasnorm_wordpool_576.txt	LTP324	ltpFR2	12	5	FINGER	567	n/a	n/a	0	0	0
1415.294	n/a	WORD	707647	wordpools/wasnorm_wordpool_576.txt	LTP324	ltpFR2	12	5	SLIDE	1326	n/a	n/a	0	0	0
1418.098	n/a	WORD	709049	wordpools/wasnorm_wordpool_576.txt	LTP324	ltpFR2	12	5	SWIMMER	1420	n/a	n/a	0	0	0
1420.618	n/a	WORD	710309	wordpools/wasnorm_wordpool_576.txt	LTP324	ltpFR2	12	5	THREAD	1460	n/a	n/a	0	0	0
1423.218	n/a	WORD	711609	wordpools/wasnorm_wordpool_576.txt	LTP324	ltpFR2	12	5	VICTIM	1562	n/a	n/a	0	0	0
1425.72	n/a	WORD	712860	wordpools/wasnorm_wordpool_576.txt	LTP324	ltpFR2	12	5	TEMPLE	1448	n/a	n/a	0	0	0
1427.34	n/a	START	713670	n/a	LTP324	ltpFR2	12	n/a	n/a	n/a	7	n/a	n/a	n/a	n/a
1428.354	n/a	DISTRACTOR	714177	n/a	LTP324	ltpFR2	12	5	n/a	n/a	n/a	n/a	0	0	0
1428.374	n/a	PROB	714187	n/a	LTP324	ltpFR2	12	n/a	n/a	n/a	7	12	1	4	7
1429.408	n/a	PROB	714704	n/a	LTP324	ltpFR2	12	n/a	n/a	n/a	7	12	2	6	4
1430.192	n/a	PROB	715096	n/a	LTP324	ltpFR2	12	n/a	n/a	n/a	7	14	5	4	5
1431.344	n/a	PROB	715672	n/a	LTP324	ltpFR2	12	n/a	n/a	n/a	7	13	4	5	4
1432.876	n/a	PROB	716438	n/a	LTP324	ltpFR2	12	n/a	n/a	n/a	7	12	1	7	4
1433.744	n/a	PROB	716872	n/a	LTP324	ltpFR2	12	n/a	n/a	n/a	7	20	9	2	9
1434.928	n/a	PROB	717464	n/a	LTP324	ltpFR2	12	n/a	n/a	n/a	7	9	3	3	3
1435.696	n/a	PROB	717848	n/a	LTP324	ltpFR2	12	n/a	n/a	n/a	7	18	5	7	6
1436.93	n/a	PROB	718465	n/a	LTP324	ltpFR2	12	n/a	n/a	n/a	7	6	1	1	4
1438.148	n/a	PROB	719074	n/a	LTP324	ltpFR2	12	n/a	n/a	n/a	7	9	5	3	4
1439.55	n/a	PROB	719775	n/a	LTP324	ltpFR2	12	n/a	n/a	n/a	7	12	2	8	2
1440.634	n/a	PROB	720317	n/a	LTP324	ltpFR2	12	n/a	n/a	n/a	7	26	8	8	9
1442.386	n/a	PROB	721193	n/a	LTP324	ltpFR2	12	n/a	n/a	n/a	7	18	7	6	5
1443.57	n/a	PROB	721785	n/a	LTP324	ltpFR2	12	n/a	n/a	n/a	7	15	2	4	9
1445.404	n/a	PROB	722702	n/a	LTP324	ltpFR2	12	n/a	n/a	n/a	7	24	7	9	8
1446.804	n/a	PROB	723402	n/a	LTP324	ltpFR2	12	n/a	n/a	n/a	7	15	5	5	5
1447.624	n/a	PROB	723812	n/a	LTP324	ltpFR2	12	n/a	n/a	n/a	7	18	9	5	4
1449.458	n/a	PROB	724729	n/a	LTP324	ltpFR2	12	n/a	n/a	n/a	7	9	1	5	3
1450.672	n/a	STOP	725336	n/a	LTP324	ltpFR2	12	n/a	n/a	n/a	7	n/a	n/a	n/a	n/a
1453.278	n/a	REC_START	726639	n/a	LTP324	ltpFR2	12	5	n/a	n/a	n/a	n/a	0	0	0
1458.692	n/a	REC_WORD	729346	wordpools/wasnorm_wordpool_576.txt	LTP324	ltpFR2	12	5	SHOULDER	1294	n/a	n/a	0	0	0
1459.64	n/a	REC_WORD	729820	wordpools/wasnorm_wordpool_576.txt	LTP324	ltpFR2	12	5	CIGAR	308	n/a	n/a	0	0	0
1462.026	n/a	REC_WORD	731013	wordpools/wasnorm_wordpool_576.txt	LTP324	ltpFR2	12	5	YOLK	1633	n/a	n/a	0	0	0
1465.162	n/a	REC_WORD	732581	wordpools/wasnorm_wordpool_576.txt	LTP324	ltpFR2	12	5	LAKE	796	n/a	n/a	0	0	0
1466.604	n/a	REC_WORD	733302	wordpools/wasnorm_wordpool_576.txt	LTP324	ltpFR2	12	5	CROSS	413	n/a	n/a	0	0	0
1470.314	n/a	REC_WORD	735157	wordpools/wasnorm_wordpool_576.txt	LTP324	ltpFR2	12	5	DANCER	437	n/a	n/a	0	0	0
1471.004	n/a	REC_WORD	735502	wordpools/wasnorm_wordpool_576.txt	LTP324	ltpFR2	12	5	GYMNAST	675	n/a	n/a	0	0	0
1472.45	n/a	REC_WORD	736225	wordpools/wasnorm_wordpool_576.txt	LTP324	ltpFR2	12	5	FOOTBALL	591	n/a	n/a	0	0	0
1475.95	n/a	REC_WORD	737975	wordpools/wasnorm_wordpool_576.txt	LTP324	ltpFR2	12	5	BLOCKADE	137	n/a	n/a	0	0	0
1477.51	n/a	REC_WORD	738755	wordpools/wasnorm_wordpool_576.txt	LTP324	ltpFR2	12	5	KEEPER	769	n/a	n/a	0	0	0
1484.602	n/a	REC_WORD	742301	wordpools/wasnorm_wordpool_576.txt	LTP324	ltpFR2	12	5	GLOVE	642	n/a	n/a	0	0	0
1488.346	n/a	REC_WORD	744173	wordpools/wasnorm_wordpool_576.txt	LTP324	ltpFR2	12	5	FLASK	576	n/a	n/a	0	0	0
1489.424	n/a	REC_WORD	744712	wordpools/wasnorm_wordpool_576.txt	LTP324	ltpFR2	12	5	RECORD	1176	n/a	n/a	0	0	0
1490.886	n/a	REC_WORD	745443	wordpools/wasnorm_wordpool_576.txt	LTP324	ltpFR2	12	5	FLUTE	585	n/a	n/a	0	0	0
1496.398	n/a	REC_WORD	748199	wordpools/wasnorm_wordpool_576.txt	LTP324	ltpFR2	12	5	ELBOW	520	n/a	n/a	0	0	0
1497.324	n/a	REC_WORD	748662	wordpools/wasnorm_wordpool_576.txt	LTP324	ltpFR2	12	5	FINGER	567	n/a	n/a	0	0	0
1498.204	n/a	REC_WORD	749102	wordpools/wasnorm_wordpool_576.txt	LTP324	ltpFR2	12	5	SLIDE	1326	n/a	n/a	0	0	0
1580.37	n/a	WORD	790185	wordpools/wasnorm_wordpool_576.txt	LTP324	ltpFR2	12	6	CONTRACT	368	n/a	n/a	0	0	0
1582.87	n/a	WORD	791435	wordpools/wasnorm_wordpool_576.txt	LTP324	ltpFR2	12	6	CRITIC	410	n/a	n/a	0	0	0
1585.374	n/a	WORD	792687	wordpools/wasnorm_wordpool_576.txt	LTP324	ltpFR2	12	6	CASKET	255	n/a	n/a	0	0	0
1587.892	n/a	WORD	793946	wordpools/wasnorm_wordpool_576.txt	LTP324	ltpFR2	12	6	BATHTUB	100	n/a	n/a	0	0	0
1590.578	n/a	WORD	795289	wordpools/wasnorm_wordpool_576.txt	LTP324	ltpFR2	12	6	SHERIFF	1284	n/a	n/a	0	0	0
1593.398	n/a	WORD	796699	wordpools/wasnorm_wordpool_576.txt	LTP324	ltpFR2	12	6	KETCHUP	771	n/a	n/a	0	0	0
1596.048	n/a	WORD	798024	wordpools/wasnorm_wordpool_576.txt	LTP324	ltpFR2	12	6	BANQUET	86	n/a	n/a	0	0	0
1598.868	n/a	WORD	799434	wordpools/wasnorm_wordpool_576.txt	LTP324	ltpFR2	12	6	GLOBE	641	n/a	n/a	0	0	0
1601.67	n/a	WORD	800835	wordpools/wasnorm_wordpool_576.txt	LTP324	ltpFR2	12	6	AIRPLANE	12	n/a	n/a	0	0	0
1604.49	n/a	WORD	802245	wordpools/wasnorm_wordpool_576.txt	LTP324	ltpFR2	12	6	THIEF	1456	n/a	n/a	0	0	0
1607.274	n/a	WORD	803637	wordpools/wasnorm_wordpool_576.txt	LTP324	ltpFR2	12	6	SCALLOP	1242	n/a	n/a	0	0	0
1609.826	n/a	WORD	804913	wordpools/wasnorm_wordpool_576.txt	LTP324	ltpFR2	12	6	CEILING	265	n/a	n/a	0	0	0
1612.48	n/a	WORD	806240	wordpools/wasnorm_wordpool_576.txt	LTP324	ltpFR2	12	6	RUST	1219	n/a	n/a	0	0	0
1615.316	n/a	WORD	807658	wordpools/wasnorm_wordpool_576.txt	LTP324	ltpFR2	12	6	CASHIER	254	n/a	n/a	0	0	0
1617.866	n/a	WORD	808933	wordpools/wasnorm_wordpool_576.txt	LTP324	ltpFR2	12	6	WORKER	1621	n/a	n/a	0	0	0
1620.536	n/a	WORD	810268	wordpools/wasnorm_wordpool_576.txt	LTP324	ltpFR2	12	6	HORSE	719	n/a	n/a	0	0	0
1623.356	n/a	WORD	811678	wordpools/wasnorm_wordpool_576.txt	LTP324	ltpFR2	12	6	DENIM	446	n/a	n/a	0	0	0
1626.158	n/a	WORD	813079	wordpools/wasnorm_wordpool_576.txt	LTP324	ltpFR2	12	6	PAIL	1002	n/a	n/a	0	0	0
1628.842	n/a	WORD	814421	wordpools/wasnorm_wordpool_576.txt	LTP324	ltpFR2	12	6	SWAMP	1416	n/a	n/a	0	0	0
1631.546	n/a	WORD	815773	wordpools/wasnorm_wordpool_576.txt	LTP324	ltpFR2	12	6	BRACES	164	n/a	n/a	0	0	0
1634.03	n/a	WORD	817015	wordpools/wasnorm_wordpool_576.txt	LTP324	ltpFR2	12	6	ACTRESS	6	n/a	n/a	0	0	0
1636.618	n/a	WORD	818309	wordpools/wasnorm_wordpool_576.txt	LTP324	ltpFR2	12	6	ACTOR	5	n/a	n/a	0	0	0
1639.252	n/a	WORD	819626	wordpools/wasnorm_wordpool_576.txt	LTP324	ltpFR2	12	6	SKIRT	1319	n/a	n/a	0	0	0
1641.938	n/a	WORD	820969	wordpools/wasnorm_wordpool_576.txt	LTP324	ltpFR2	12	6	SPONGE	1355	n/a	n/a	0	0	0
1643.54	n/a	START	821770	n/a	LTP324	ltpFR2	12	n/a	n/a	n/a	8	n/a	n/a	n/a	n/a
1644.422	n/a	DISTRACTOR	822211	n/a	LTP324	ltpFR2	12	6	n/a	n/a	n/a	n/a	0	0	0
1644.44	n/a	PROB	822220	n/a	LTP324	ltpFR2	12	n/a	n/a	n/a	8	14	5	5	4
1645.806	n/a	PROB	822903	n/a	LTP324	ltpFR2	12	n/a	n/a	n/a	8	12	4	1	7
1647.392	n/a	PROB	823696	n/a	LTP324	ltpFR2	12	n/a	n/a	n/a	8	17	9	7	1
1648.876	n/a	PROB	824438	n/a	LTP324	ltpFR2	12	n/a	n/a	n/a	8	17	8	3	6
1650.026	n/a	PROB	825013	n/a	LTP324	ltpFR2	12	n/a	n/a	n/a	8	19	7	8	4
1652.046	n/a	PROB	826023	n/a	LTP324	ltpFR2	12	n/a	n/a	n/a	8	14	5	5	4
1652.946	n/a	PROB	826473	n/a	LTP324	ltpFR2	12	n/a	n/a	n/a	8	15	6	5	4
1653.896	n/a	PROB	826948	n/a	LTP324	ltpFR2	12	n/a	n/a	n/a	8	15	5	1	9
1654.698	n/a	PROB	827349	n/a	LTP324	ltpFR2	12	n/a	n/a	n/a	8	12	7	3	2
1656.116	n/a	PROB	828058	n/a	LTP324	ltpFR2	12	n/a	n/a	n/a	8	13	1	7	5
1657.884	n/a	PROB	828942	n/a	LTP324	ltpFR2	12	n/a	n/a	n/a	8	19	3	9	7
1659.234	n/a	PROB	829617	n/a	LTP324	ltpFR2	12	n/a	n/a	n/a	8	15	6	2	7
1660.252	n/a	PROB	830126	n/a	LTP324	ltpFR2	12	n/a	n/a	n/a	8	14	5	6	3
1661.322	n/a	PROB	830661	n/a	LTP324	ltpFR2	12	n/a	n/a	n/a	8	13	4	5	4
1663.606	n/a	PROB	831803	n/a	LTP324	ltpFR2	12	n/a	n/a	n/a	8	16	2	8	6
1664.74	n/a	PROB	832370	n/a	LTP324	ltpFR2	12	n/a	n/a	n/a	8	18	9	4	5
1665.908	n/a	PROB	832954	n/a	LTP324	ltpFR2	12	n/a	n/a	n/a	8	14	3	2	9
1666.924	n/a	STOP	833462	n/a	LTP324	ltpFR2	12	n/a	n/a	n/a	8	n/a	n/a	n/a	n/a
1669.378	n/a	REC_START	834689	n/a	LTP324	ltpFR2	12	6	n/a	n/a	n/a	n/a	0	0	0
1669.812	n/a	REC_WORD	834906	wordpools/wasnorm_wordpool_576.txt	LTP324	ltpFR2	12	6	ACTRESS	6	n/a	n/a	0	0	0
1670.32	n/a	REC_WORD	835160	wordpools/wasnorm_wordpool_576.txt	LTP324	ltpFR2	12	6	ACTRESS	6	n/a	n/a	0	0	0
1670.826	n/a	REC_WORD	835413	wordpools/wasnorm_wordpool_576.txt	LTP324	ltpFR2	12	6	PAIL	1002	n/a	n/a	0	0	0
1671.154	n/a	REC_WORD	835577	wordpools/wasnorm_wordpool_576.txt	LTP324	ltpFR2	12	6	SWAMP	1416	n/a	n/a	0	0	0
1675.918	n/a	REC_WORD	837959	wordpools/wasnorm_wordpool_576.txt	LTP324	ltpFR2	12	6	DENIM	446	n/a	n/a	0	0	0
1676.264	n/a	REC_WORD	838132	wordpools/wasnorm_wordpool_576.txt	LTP324	ltpFR2	12	6	HORSE	719	n/a	n/a	0	0	0
1677.906	n/a	REC_WORD	838953	wordpools/wasnorm_wordpool_576.txt	LTP324	ltpFR2	12	6	WORKER	1621	n/a	n/a	0	0	0
1678.346	n/a	REC_WORD	839173	wordpools/wasnorm_wordpool_576.txt	LTP324	ltpFR2	12	6	CASHIER	254	n/a	n/a	0	0	0
1679.384	n/a	REC_WORD	839692	wordpools/wasnorm_wordpool_576.txt	LTP324	ltpFR2	12	6	RUST	1219	n/a	n/a	0	0	0
1680.138	n/a	REC_WORD	840069	wordpools/wasnorm_wordpool_576.txt	LTP324	ltpFR2	12	6	AIRPLANE	12	n/a	n/a	0	0	0
1681.14	n/a	REC_WORD	840570	wordpools/wasnorm_wordpool_576.txt	LTP324	ltpFR2	12	6	THIEF	1456	n/a	n/a	0	0	0
1681.942	n/a	REC_WORD	840971	wordpools/wasnorm_wordpool_576.txt	LTP324	ltpFR2	12	6	SCALLOP	1242	n/a	n/a	0	0	0
1682.51	n/a	REC_WORD	841255	wordpools/wasnorm_wordpool_576.txt	LTP324	ltpFR2	12	6	CEILING	265	n/a	n/a	0	0	0
1687.024	n/a	REC_WORD	843512	wordpools/wasnorm_wordpool_576.txt	LTP324	ltpFR2	12	6	WORLD	1622	n/a	n/a	0	0	0
1697.376	n/a	REC_WORD	848688	wordpools/wasnorm_wordpool_576.txt	LTP324	ltpFR2	12	6	CRITIC	410	n/a	n/a	0	0	0
1698.346	n/a	REC_WORD	849173	wordpools/wasnorm_wordpool_576.txt	LTP324	ltpFR2	12	6	CONTRACT	368	n/a	n/a	0	0	0
1699.144	n/a	REC_WORD	849572	wordpools/wasnorm_wordpool_576.txt	LTP324	ltpFR2	12	6	CASKET	255	n/a	n/a	0	0	0
1699.826	n/a	REC_WORD	849913	wordpools/wasnorm_wordpool_576.txt	LTP324	ltpFR2	12	6	BATHTUB	100	n/a	n/a	0	0	0
1701.036	n/a	REC_WORD	850518	wordpools/wasnorm_wordpool_576.txt	LTP324	ltpFR2	12	6	SHERIFF	1284	n/a	n/a	0	0	0
1701.822	n/a	REC_WORD	850911	wordpools/wasnorm_wordpool_576.txt	LTP324	ltpFR2	12	6	KETCHUP	771	n/a	n/a	0	0	0
1702.364	n/a	REC_WORD	851182	wordpools/wasnorm_wordpool_576.txt	LTP324	ltpFR2	12	6	BANQUET	86	n/a	n/a	0	0	0
1704.094	n/a	REC_WORD	852047	wordpools/wasnorm_wordpool_576.txt	LTP324	ltpFR2	12	6	GLOBE	641	n/a	n/a	0	0	0
1779.714	n/a	DISTRACTOR	889857	n/a	LTP324	ltpFR2	12	7	n/a	n/a	n/a	n/a	0	0	0
1779.714	n/a	START	889857	n/a	LTP324	ltpFR2	12	n/a	n/a	n/a	9	n/a	n/a	n/a	n/a
1779.728	n/a	PROB	889864	n/a	LTP324	ltpFR2	12	n/a	n/a	n/a	9	16	5	5	6
1780.532	n/a	PROB	890266	n/a	LTP324	ltpFR2	12	n/a	n/a	n/a	9	12	6	4	2
1781.632	n/a	PROB	890816	n/a	LTP324	ltpFR2	12	n/a	n/a	n/a	9	19	7	8	4
1782.532	n/a	PROB	891266	n/a	LTP324	ltpFR2	12	n/a	n/a	n/a	9	7	1	1	5
1783.384	n/a	PROB	891692	n/a	LTP324	ltpFR2	12	n/a	n/a	n/a	9	8	4	2	2
1784.866	n/a	PROB	892433	n/a	LTP324	ltpFR2	12	n/a	n/a	n/a	9	18	7	6	5
1785.886	n/a	PROB	892943	n/a	LTP324	ltpFR2	12	n/a	n/a	n/a	9	18	6	3	9
1787.018	n/a	PROB	893509	n/a	LTP324	ltpFR2	12	n/a	n/a	n/a	9	17	4	4	9
1788.102	n/a	PROB	894051	n/a	LTP324	ltpFR2	12	n/a	n/a	n/a	9	21	9	9	3
1789.252	n/a	PROB	894626	n/a	LTP324	ltpFR2	12	n/a	n/a	n/a	9	18	5	4	9
1790.188	n/a	PROB	895094	n/a	LTP324	ltpFR2	12	n/a	n/a	n/a	9	20	2	9	9
1791.204	n/a	PROB	895602	n/a	LTP324	ltpFR2	12	n/a	n/a	n/a	9	14	5	7	2
1792.358	n/a	PROB	896179	n/a	LTP324	ltpFR2	12	n/a	n/a	n/a	9	19	3	7	9
1794.474	n/a	PROB	897237	n/a	LTP324	ltpFR2	12	n/a	n/a	n/a	9	22	4	9	9
1795.526	n/a	PROB	897763	n/a	LTP324	ltpFR2	12	n/a	n/a	n/a	9	17	8	3	6
1796.776	n/a	PROB	898388	n/a	LTP324	ltpFR2	12	n/a	n/a	n/a	9	14	1	9	4
1797.794	n/a	PROB	898897	n/a	LTP324	ltpFR2	12	n/a	n/a	n/a	9	16	6	3	7
1799.996	n/a	PROB	899998	n/a	LTP324	ltpFR2	12	n/a	n/a	n/a	9	11	2	8	1
1801.43	n/a	PROB	900715	n/a	LTP324	ltpFR2	12	n/a	n/a	n/a	9	14	6	4	8
1802.83	n/a	STOP	901415	n/a	LTP324	ltpFR2	12	n/a	n/a	n/a	9	n/a	n/a	n/a	n/a
1804.578	n/a	WORD	902289	wordpools/wasnorm_wordpool_576.txt	LTP324	ltpFR2	12	7	PICNIC	1060	n/a	n/a	0	0	0
1807.37	n/a	WORD	903685	wordpools/wasnorm_wordpool_576.txt	LTP324	ltpFR2	12	7	PLATE	1086	n/a	n/a	0	0	0
1809.966	n/a	WORD	904983	wordpools/wasnorm_wordpool_576.txt	LTP324	ltpFR2	12	7	GRIZZLY	662	n/a	n/a	0	0	0
1812.672	n/a	WORD	906336	wordpools/wasnorm_wordpool_576.txt	LTP324	ltpFR2	12	7	TAXI	1438	n/a	n/a	0	0	0
1815.27	n/a	WORD	907635	wordpools/wasnorm_wordpool_576.txt	LTP324	ltpFR2	12	7	GAVEL	627	n/a	n/a	0	0	0
1818.056	n/a	WORD	909028	wordpools/wasnorm_wordpool_576.txt	LTP324	ltpFR2	12	7	SAUSAGE	1238	n/a	n/a	0	0	0
1820.524	n/a	WORD	910262	wordpools/wasnorm_wordpool_576.txt	LTP324	ltpFR2	12	7	MUFFIN	929	n/a	n/a	0	0	0
1822.942	n/a	WORD	911471	wordpools/wasnorm_wordpool_576.txt	LTP324	ltpFR2	12	7	POSSUM	1112	n/a	n/a	0	0	0
1825.396	n/a	WORD	912698	wordpools/wasnorm_wordpool_576.txt	LTP324	ltpFR2	12	7	SUNRISE	1407	n/a	n/a	0	0	0
1828.03	n/a	WORD	914015	wordpools/wasnorm_wordpool_576.txt	LTP324	ltpFR2	12	7	EUROPE	541	n/a	n/a	0	0	0
1830.466	n/a	WORD	915233	wordpools/wasnorm_wordpool_576.txt	LTP324	ltpFR2	12	7	INFANT	737	n/a	n/a	0	0	0
1832.968	n/a	WORD	916484	wordpools/wasnorm_wordpool_576.txt	LTP324	ltpFR2	12	7	STATUE	1374	n/a	n/a	0	0	0
1835.472	n/a	WORD	917736	wordpools/wasnorm_wordpool_576.txt	LTP324	ltpFR2	12	7	BEAVER	109	n/a	n/a	0	0	0
1838.006	n/a	WORD	919003	wordpools/wasnorm_wordpool_576.txt	LTP324	ltpFR2	12	7	TROMBONE	1508	n/a	n/a	0	0	0
1840.678	n/a	WORD	920339	wordpools/wasnorm_wordpool_576.txt	LTP324	ltpFR2	12	7	ASIA	46	n/a	n/a	0	0	0
1843.38	n/a	WORD	921690	wordpools/wasnorm_wordpool_576.txt	LTP324	ltpFR2	12	7	BARREL	91	n/a	n/a	0	0	0
1846.012	n/a	WORD	923006	wordpools/wasnorm_wordpool_576.txt	LTP324	ltpFR2	12	7	BOUQUET	157	n/a	n/a	0	0	0
1848.6	n/a	WORD	924300	wordpools/wasnorm_wordpool_576.txt	LTP324	ltpFR2	12	7	LIPSTICK	829	n/a	n/a	0	0	0
1851.352	n/a	WORD	925676	wordpools/wasnorm_wordpool_576.txt	LTP324	ltpFR2	12	7	FRANCE	601	n/a	n/a	0	0	0
1853.852	n/a	WORD	926926	wordpools/wasnorm_wordpool_576.txt	LTP324	ltpFR2	12	7	BUNNY	198	n/a	n/a	0	0	0
1856.654	n/a	WORD	928327	wordpools/wasnorm_wordpool_576.txt	LTP324	ltpFR2	12	7	GHETTO	633	n/a	n/a	0	0	0
1859.374	n/a	WORD	929687	wordpools/wasnorm_wordpool_576.txt	LTP324	ltpFR2	12	7	DRIVER	499	n/a	n/a	0	0	0
1862.094	n/a	WORD	931047	wordpools/wasnorm_wordpool_576.txt	LTP324	ltpFR2	12	7	TRUCK	1512	n/a	n/a	0	0	0
1864.878	n/a	WORD	932439	wordpools/wasnorm_wordpool_576.txt	LTP324	ltpFR2	12	7	EYELASH	546	n/a	n/a	0	0	0
1866.5	n/a	START	933250	n/a	LTP324	ltpFR2	12	n/a	n/a	n/a	10	n/a	n/a	n/a	n/a
1867.464	n/a	DISTRACTOR	933732	n/a	LTP324	ltpFR2	12	7	n/a	n/a	n/a	n/a	0	0	0
1867.482	n/a	PROB	933741	n/a	LTP324	ltpFR2	12	n/a	n/a	n/a	10	7	2	1	4
1868.732	n/a	PROB	934366	n/a	LTP324	ltpFR2	12	n/a	n/a	n/a	10	17	3	5	9
1871.202	n/a	PROB	935601	n/a	LTP324	ltpFR2	12	n/a	n/a	n/a	10	9	4	1	4
1872.068	n/a	PROB	936034	n/a	LTP324	ltpFR2	12	n/a	n/a	n/a	10	10	1	3	6
1875.088	n/a	PROB	937544	n/a	LTP324	ltpFR2	12	n/a	n/a	n/a	10	14	1	9	4
1876.756	n/a	PROB	938378	n/a	LTP324	ltpFR2	12	n/a	n/a	n/a	10	20	9	8	3
1878.324	n/a	PROB	939162	n/a	LTP324	ltpFR2	12	n/a	n/a	n/a	10	22	9	4	9
1880.826	n/a	PROB	940413	n/a	LTP324	ltpFR2	12	n/a	n/a	n/a	10	18	9	3	6
1882.076	n/a	PROB	941038	n/a	LTP324	ltpFR2	12	n/a	n/a	n/a	10	13	2	2	9
1883.512	n/a	PROB	941756	n/a	LTP324	ltpFR2	12	n/a	n/a	n/a	10	18	8	6	4
1884.944	n/a	PROB	942472	n/a	LTP324	ltpFR2	12	n/a	n/a	n/a	10	12	3	5	4
1886.796	n/a	PROB	943398	n/a	LTP324	ltpFR2	12	n/a	n/a	n/a	10	11	2	5	4
1888.016	n/a	PROB	944008	n/a	LTP324	ltpFR2	12	n/a	n/a	n/a	10	22	7	6	9
1889.8	n/a	STOP	944900	n/a	LTP324	ltpFR2	12	n/a	n/a	n/a	10	n/a	n/a	n/a	n/a
1892.318	n/a	REC_START	946159	n/a	LTP324	ltpFR2	12	7	n/a	n/a	n/a	n/a	0	0	0
1893.692	n/a	REC_WORD	946846	wordpools/wasnorm_wordpool_576.txt	LTP324	ltpFR2	12	7	GHETTO	633	n/a	n/a	0	0	0
1894.658	n/a	REC_WORD	947329	wordpools/wasnorm_wordpool_576.txt	LTP324	ltpFR2	12	7	TRUCK	1512	n/a	n/a	0	0	0
1897.27	n/a	REC_WORD	948635	wordpools/wasnorm_wordpool_576.txt	LTP324	ltpFR2	12	7	ASIA	46	n/a	n/a	0	0	0
1899.988	n/a	REC_WORD	949994	wordpools/wasnorm_wordpool_576.txt	LTP324	ltpFR2	12	7	EUROPE	541	n/a	n/a	0	0	0
1902.104	n/a	REC_WORD	951052	wordpools/wasnorm_wordpool_576.txt	LTP324	ltpFR2	12	7	BEAR	106	n/a	n/a	0	0	0
1903.064	n/a	REC_WORD	951532	wordpools/wasnorm_wordpool_576.txt	LTP324	ltpFR2	12	7	PICNIC	1060	n/a	n/a	0	0	0
1903.808	n/a	REC_WORD	951904	wordpools/wasnorm_wordpool_576.txt	LTP324	ltpFR2	12	7	BEAVER	109	n/a	n/a	0	0	0
2004.424	n/a	DISTRACTOR	1002212	n/a	LTP324	ltpFR2	12	8	n/a	n/a	n/a	n/a	0	0	0
2004.424	n/a	START	1002212	n/a	LTP324	ltpFR2	12	n/a	n/a	n/a	11	n/a	n/a	n/a	n/a
2004.438	n/a	PROB	1002219	n/a	LTP324	ltpFR2	12	n/a	n/a	n/a	11	12	4	7	1
2005.222	n/a	PROB	1002611	n/a	LTP324	ltpFR2	12	n/a	n/a	n/a	11	13	5	1	7
2006.524	n/a	PROB	1003262	n/a	LTP324	ltpFR2	12	n/a	n/a	n/a	11	7	3	1	3
2007.374	n/a	PROB	1003687	n/a	LTP324	ltpFR2	12	n/a	n/a	n/a	11	24	7	8	9
2008.274	n/a	PROB	1004137	n/a	LTP324	ltpFR2	12	n/a	n/a	n/a	11	10	3	3	4
2009.16	n/a	PROB	1004580	n/a	LTP324	ltpFR2	12	n/a	n/a	n/a	11	13	3	1	9
2011.528	n/a	PROB	1005764	n/a	LTP324	ltpFR2	12	n/a	n/a	n/a	11	13	6	1	6
2012.514	n/a	PROB	1006257	n/a	LTP324	ltpFR2	12	n/a	n/a	n/a	11	15	7	6	2
2013.88	n/a	PROB	1006940	n/a	LTP324	ltpFR2	12	n/a	n/a	n/a	11	12	4	5	3
2014.928	n/a	PROB	1007464	n/a	LTP324	ltpFR2	12	n/a	n/a	n/a	11	18	3	9	6
2016.28	n/a	PROB	1008140	n/a	LTP324	ltpFR2	12	n/a	n/a	n/a	11	7	3	1	3
2017.046	n/a	PROB	1008523	n/a	LTP324	ltpFR2	12	n/a	n/a	n/a	11	20	8	3	9
2018.732	n/a	PROB	1009366	n/a	LTP324	ltpFR2	12	n/a	n/a	n/a	11	14	5	5	3
2019.882	n/a	PROB	1009941	n/a	LTP324	ltpFR2	12	n/a	n/a	n/a	11	17	9	1	7
2021.234	n/a	PROB	1010617	n/a	LTP324	ltpFR2	12	n/a	n/a	n/a	11	4	1	1	2
2022.134	n/a	PROB	1011067	n/a	LTP324	ltpFR2	12	n/a	n/a	n/a	11	11	1	7	3
2023.118	n/a	PROB	1011559	n/a	LTP324	ltpFR2	12	n/a	n/a	n/a	11	14	6	6	2
2024.286	n/a	PROB	1012143	n/a	LTP324	ltpFR2	12	n/a	n/a	n/a	11	21	5	8	8
2025.556	n/a	PROB	1012778	n/a	LTP324	ltpFR2	12	n/a	n/a	n/a	11	18	9	2	7
2026.856	n/a	PROB	1013428	n/a	LTP324	ltpFR2	12	n/a	n/a	n/a	11	25	9	8	8
2028.386	n/a	STOP	1014193	n/a	LTP324	ltpFR2	12	n/a	n/a	n/a	11	n/a	n/a	n/a	n/a
2029.636	n/a	WORD	1014818	wordpools/wasnorm_wordpool_576.txt	LTP324	ltpFR2	12	8	APRON	35	n/a	n/a	0	0	0
2032.288	n/a	WORD	1016144	wordpools/wasnorm_wordpool_576.txt	LTP324	ltpFR2	12	8	GREASE	660	n/a	n/a	0	0	0
2034.89	n/a	WORD	1017445	wordpools/wasnorm_wordpool_576.txt	LTP324	ltpFR2	12	8	COCOON	339	n/a	n/a	0	0	0
2037.576	n/a	WORD	1018788	wordpools/wasnorm_wordpool_576.txt	LTP324	ltpFR2	12	8	TERMITE	1451	n/a	n/a	0	0	0
2040.06	n/a	WORD	1020030	wordpools/wasnorm_wordpool_576.txt	LTP324	ltpFR2	12	8	GANGSTER	620	n/a	n/a	0	0	0
2042.88	n/a	WORD	1021440	wordpools/wasnorm_wordpool_576.txt	LTP324	ltpFR2	12	8	COURSE	390	n/a	n/a	0	0	0
2045.416	n/a	WORD	1022708	wordpools/wasnorm_wordpool_576.txt	LTP324	ltpFR2	12	8	CAFE	216	n/a	n/a	0	0	0
2048.068	n/a	WORD	1024034	wordpools/wasnorm_wordpool_576.txt	LTP324	ltpFR2	12	8	DINER	467	n/a	n/a	0	0	0
2050.62	n/a	WORD	1025310	wordpools/wasnorm_wordpool_576.txt	LTP324	ltpFR2	12	8	TABLET	1427	n/a	n/a	0	0	0
2053.122	n/a	WORD	1026561	wordpools/wasnorm_wordpool_576.txt	LTP324	ltpFR2	12	8	REPORT	1184	n/a	n/a	0	0	0
2055.894	n/a	WORD	1027947	wordpools/wasnorm_wordpool_576.txt	LTP324	ltpFR2	12	8	MAPLE	866	n/a	n/a	0	0	0
2058.676	n/a	WORD	1029338	wordpools/wasnorm_wordpool_576.txt	LTP324	ltpFR2	12	8	SPOOL	1356	n/a	n/a	0	0	0
2061.43	n/a	WORD	1030715	wordpools/wasnorm_wordpool_576.txt	LTP324	ltpFR2	12	8	UMPIRE	1535	n/a	n/a	0	0	0
2063.88	n/a	WORD	1031940	wordpools/wasnorm_wordpool_576.txt	LTP324	ltpFR2	12	8	POWDER	1117	n/a	n/a	0	0	0
2066.6	n/a	WORD	1033300	wordpools/wasnorm_wordpool_576.txt	LTP324	ltpFR2	12	8	POPCORN	1104	n/a	n/a	0	0	0
2069.084	n/a	WORD	1034542	wordpools/wasnorm_wordpool_576.txt	LTP324	ltpFR2	12	8	ARMY	39	n/a	n/a	0	0	0
2071.838	n/a	WORD	1035919	wordpools/wasnorm_wordpool_576.txt	LTP324	ltpFR2	12	8	MARINE	869	n/a	n/a	0	0	0
2074.624	n/a	WORD	1037312	wordpools/wasnorm_wordpool_576.txt	LTP324	ltpFR2	12	8	ISLAND	745	n/a	n/a	0	0	0
2077.292	n/a	WORD	1038646	wordpools/wasnorm_wordpool_576.txt	LTP324	ltpFR2	12	8	LETTUCE	814	n/a	n/a	0	0	0
2079.878	n/a	WORD	1039939	wordpools/wasnorm_wordpool_576.txt	LTP324	ltpFR2	12	8	CLOCK	325	n/a	n/a	0	0	0
2082.382	n/a	WORD	1041191	wordpools/wasnorm_wordpool_576.txt	LTP324	ltpFR2	12	8	YARN	1631	n/a	n/a	0	0	0
2084.832	n/a	WORD	1042416	wordpools/wasnorm_wordpool_576.txt	LTP324	ltpFR2	12	8	LEADER	807	n/a	n/a	0	0	0
2087.606	n/a	WORD	1043803	wordpools/wasnorm_wordpool_576.txt	LTP324	ltpFR2	12	8	FLAG	573	n/a	n/a	0	0	0
2090.154	n/a	WORD	1045077	wordpools/wasnorm_wordpool_576.txt	LTP324	ltpFR2	12	8	PUPIL	1143	n/a	n/a	0	0	0
2091.772	n/a	START	1045886	n/a	LTP324	ltpFR2	12	n/a	n/a	n/a	12	n/a	n/a	n/a	n/a
2092.932	n/a	DISTRACTOR	1046466	n/a	LTP324	ltpFR2	12	8	n/a	n/a	n/a	n/a	0	0	0
2092.94	n/a	PROB	1046470	n/a	LTP324	ltpFR2	12	n/a	n/a	n/a	12	12	3	7	2
2094.19	n/a	PROB	1047095	n/a	LTP324	ltpFR2	12	n/a	n/a	n/a	12	13	6	1	6
2095.058	n/a	PROB	1047529	n/a	LTP324	ltpFR2	12	n/a	n/a	n/a	12	13	7	5	1
2095.944	n/a	PROB	1047972	n/a	LTP324	ltpFR2	12	n/a	n/a	n/a	12	18	5	8	5
2096.744	n/a	PROB	1048372	n/a	LTP324	ltpFR2	12	n/a	n/a	n/a	12	10	1	3	6
2097.658	n/a	PROB	1048829	n/a	LTP324	ltpFR2	12	n/a	n/a	n/a	12	9	5	1	3
2098.842	n/a	PROB	1049421	n/a	LTP324	ltpFR2	12	n/a	n/a	n/a	12	20	6	5	9
2099.96	n/a	PROB	1049980	n/a	LTP324	ltpFR2	12	n/a	n/a	n/a	12	17	1	9	7
2101.362	n/a	PROB	1050681	n/a	LTP324	ltpFR2	12	n/a	n/a	n/a	12	19	9	2	8
2102.55	n/a	PROB	1051275	n/a	LTP324	ltpFR2	12	n/a	n/a	n/a	12	13	1	8	4
2106.084	n/a	PROB	1053042	n/a	LTP324	ltpFR2	12	n/a	n/a	n/a	12	24	9	9	5
2107.686	n/a	PROB	1053843	n/a	LTP324	ltpFR2	12	n/a	n/a	n/a	12	11	1	5	5
2108.836	n/a	PROB	1054418	n/a	LTP324	ltpFR2	12	n/a	n/a	n/a	12	18	4	7	7
2110.786	n/a	PROB	1055393	n/a	LTP324	ltpFR2	12	n/a	n/a	n/a	12	20	7	7	6
2112.288	n/a	PROB	1056144	n/a	LTP324	ltpFR2	12	n/a	n/a	n/a	12	11	3	2	6
2114.29	n/a	STOP	1057145	n/a	LTP324	ltpFR2	12	n/a	n/a	n/a	12	n/a	n/a	n/a	n/a
2117.678	n/a	REC_START	1058839	n/a	LTP324	ltpFR2	12	8	n/a	n/a	n/a	n/a	0	0	0
2118.466	n/a	REC_WORD	1059233	wordpools/wasnorm_wordpool_576.txt	LTP324	ltpFR2	12	8	SPOOL	1356	n/a	n/a	0	0	0
2122.964	n/a	REC_WORD	1061482	wordpools/wasnorm_wordpool_576.txt	LTP324	ltpFR2	12	8	APRON	35	n/a	n/a	0	0	0
2123.91	n/a	REC_WORD	1061955	wordpools/wasnorm_wordpool_576.txt	LTP324	ltpFR2	12	8	GREASE	660	n/a	n/a	0	0	0
2124.774	n/a	REC_WORD	1062387	wordpools/wasnorm_wordpool_576.txt	LTP324	ltpFR2	12	8	GANGSTER	620	n/a	n/a	0	0	0
2125.656	n/a	REC_WORD	1062828	wordpools/wasnorm_wordpool_576.txt	LTP324	ltpFR2	12	8	CAFE	216	n/a	n/a	0	0	0
2126.366	n/a	REC_WORD	1063183	wordpools/wasnorm_wordpool_576.txt	LTP324	ltpFR2	12	8	DINER	467	n/a	n/a	0	0	0
2129.506	n/a	REC_WORD	1064753	wordpools/wasnorm_wordpool_576.txt	LTP324	ltpFR2	12	8	TERMITE	1451	n/a	n/a	0	0	0
2194.202	n/a	REST_REWET	1097101	n/a	LTP324	ltpFR2	12	8	n/a	n/a	n/a	n/a	0	0	0
2406.036	n/a	DISTRACTOR	1203018	n/a	LTP324	ltpFR2	12	9	n/a	n/a	n/a	n/a	0	0	0
2406.036	n/a	START	1203018	n/a	LTP324	ltpFR2	12	n/a	n/a	n/a	13	n/a	n/a	n/a	n/a
2406.05	n/a	PROB	1203025	n/a	LTP324	ltpFR2	12	n/a	n/a	n/a	13	18	8	5	5
2406.918	n/a	PROB	1203459	n/a	LTP324	ltpFR2	12	n/a	n/a	n/a	13	12	2	7	3
2407.936	n/a	PROB	1203968	n/a	LTP324	ltpFR2	12	n/a	n/a	n/a	13	17	2	8	7
2409.136	n/a	PROB	1204568	n/a	LTP324	ltpFR2	12	n/a	n/a	n/a	13	20	7	7	6
2410.54	n/a	PROB	1205270	n/a	LTP324	ltpFR2	12	n/a	n/a	n/a	13	17	7	6	4
2411.822	n/a	PROB	1205911	n/a	LTP324	ltpFR2	12	n/a	n/a	n/a	13	15	2	9	4
2413.022	n/a	PROB	1206511	n/a	LTP324	ltpFR2	12	n/a	n/a	n/a	13	15	7	1	7
2413.956	n/a	PROB	1206978	n/a	LTP324	ltpFR2	12	n/a	n/a	n/a	13	9	2	4	3
2415.19	n/a	PROB	1207595	n/a	LTP324	ltpFR2	12	n/a	n/a	n/a	13	17	1	9	7
2416.142	n/a	PROB	1208071	n/a	LTP324	ltpFR2	12	n/a	n/a	n/a	13	1	6	6	1
2416.908	n/a	PROB	1208454	n/a	LTP324	ltpFR2	12	n/a	n/a	n/a	13	9	1	7	1
2417.86	n/a	PROB	1208930	n/a	LTP324	ltpFR2	12	n/a	n/a	n/a	13	9	4	2	3
2419.026	n/a	PROB	1209513	n/a	LTP324	ltpFR2	12	n/a	n/a	n/a	13	21	7	7	7
2420.012	n/a	PROB	1210006	n/a	LTP324	ltpFR2	12	n/a	n/a	n/a	13	19	9	7	3
2421.88	n/a	PROB	1210940	n/a	LTP324	ltpFR2	12	n/a	n/a	n/a	13	21	8	9	4
2423.198	n/a	PROB	1211599	n/a	LTP324	ltpFR2	12	n/a	n/a	n/a	13	10	4	2	4
2425.55	n/a	PROB	1212775	n/a	LTP324	ltpFR2	12	n/a	n/a	n/a	13	17	7	4	6
2426.882	n/a	PROB	1213441	n/a	LTP324	ltpFR2	12	n/a	n/a	n/a	13	16	9	1	6
2427.95	n/a	PROB	1213975	n/a	LTP324	ltpFR2	12	n/a	n/a	n/a	13	5	1	1	3
2429.238	n/a	STOP	1214619	n/a	LTP324	ltpFR2	12	n/a	n/a	n/a	13	n/a	n/a	n/a	n/a
2431.02	n/a	WORD	1215510	wordpools/wasnorm_wordpool_576.txt	LTP324	ltpFR2	12	9	JURY	766	n/a	n/a	0	0	0
2433.59	n/a	WORD	1216795	wordpools/wasnorm_wordpool_576.txt	LTP324	ltpFR2	12	9	LILY	821	n/a	n/a	0	0	0
2436.04	n/a	WORD	1218020	wordpools/wasnorm_wordpool_576.txt	LTP324	ltpFR2	12	9	PARROT	1015	n/a	n/a	0	0	0
2438.826	n/a	WORD	1219413	wordpools/wasnorm_wordpool_576.txt	LTP324	ltpFR2	12	9	COOKBOOK	373	n/a	n/a	0	0	0
2441.514	n/a	WORD	1220757	wordpools/wasnorm_wordpool_576.txt	LTP324	ltpFR2	12	9	GRILL	661	n/a	n/a	0	0	0
2444.248	n/a	WORD	1222124	wordpools/wasnorm_wordpool_576.txt	LTP324	ltpFR2	12	9	FLASK	576	n/a	n/a	0	0	0
2446.9	n/a	WORD	1223450	wordpools/wasnorm_wordpool_576.txt	LTP324	ltpFR2	12	9	SUPPER	1411	n/a	n/a	0	0	0
2449.652	n/a	WORD	1224826	wordpools/wasnorm_wordpool_576.txt	LTP324	ltpFR2	12	9	CUSTARD	429	n/a	n/a	0	0	0
2452.338	n/a	WORD	1226169	wordpools/wasnorm_wordpool_576.txt	LTP324	ltpFR2	12	9	PICTURE	1061	n/a	n/a	0	0	0
2455.012	n/a	WORD	1227506	wordpools/wasnorm_wordpool_576.txt	LTP324	ltpFR2	12	9	TILE	1468	n/a	n/a	0	0	0
2457.674	n/a	WORD	1228837	wordpools/wasnorm_wordpool_576.txt	LTP324	ltpFR2	12	9	POCKET	1093	n/a	n/a	0	0	0
2460.278	n/a	WORD	1230139	wordpools/wasnorm_wordpool_576.txt	LTP324	ltpFR2	12	9	ROBOT	1200	n/a	n/a	0	0	0
2462.73	n/a	WORD	1231365	wordpools/wasnorm_wordpool_576.txt	LTP324	ltpFR2	12	9	JUDGE	761	n/a	n/a	0	0	0
2465.23	n/a	WORD	1232615	wordpools/wasnorm_wordpool_576.txt	LTP324	ltpFR2	12	9	BISON	131	n/a	n/a	0	0	0
2467.858	n/a	WORD	1233929	wordpools/wasnorm_wordpool_576.txt	LTP324	ltpFR2	12	9	NOTEBOOK	959	n/a	n/a	0	0	0
2470.568	n/a	WORD	1235284	wordpools/wasnorm_wordpool_576.txt	LTP324	ltpFR2	12	9	DRILL	497	n/a	n/a	0	0	0
2473.178	n/a	WORD	1236589	wordpools/wasnorm_wordpool_576.txt	LTP324	ltpFR2	12	9	FREEZER	604	n/a	n/a	0	0	0
2475.696	n/a	WORD	1237848	wordpools/wasnorm_wordpool_576.txt	LTP324	ltpFR2	12	9	ICEBERG	731	n/a	n/a	0	0	0
2478.316	n/a	WORD	1239158	wordpools/wasnorm_wordpool_576.txt	LTP324	ltpFR2	12	9	SLUG	1329	n/a	n/a	0	0	0
2481.126	n/a	WORD	1240563	wordpools/wasnorm_wordpool_576.txt	LTP324	ltpFR2	12	9	AIRPORT	13	n/a	n/a	0	0	0
2483.902	n/a	WORD	1241951	wordpools/wasnorm_wordpool_576.txt	LTP324	ltpFR2	12	9	FOOT	590	n/a	n/a	0	0	0
2486.706	n/a	WORD	1243353	wordpools/wasnorm_wordpool_576.txt	LTP324	ltpFR2	12	9	DONKEY	484	n/a	n/a	0	0	0
2489.366	n/a	WORD	1244683	wordpools/wasnorm_wordpool_576.txt	LTP324	ltpFR2	12	9	TABLE	1426	n/a	n/a	0	0	0
2492.06	n/a	WORD	1246030	wordpools/wasnorm_wordpool_576.txt	LTP324	ltpFR2	12	9	SCOTCH	1251	n/a	n/a	0	0	0
2493.672	n/a	START	1246836	n/a	LTP324	ltpFR2	12	n/a	n/a	n/a	14	n/a	n/a	n/a	n/a
2494.832	n/a	DISTRACTOR	1247416	n/a	LTP324	ltpFR2	12	9	n/a	n/a	n/a	n/a	0	0	0
2494.836	n/a	PROB	1247418	n/a	LTP324	ltpFR2	12	n/a	n/a	n/a	14	17	6	2	9
2497.206	n/a	PROB	1248603	n/a	LTP324	ltpFR2	12	n/a	n/a	n/a	14	20	5	9	6
2498.688	n/a	PROB	1249344	n/a	LTP324	ltpFR2	12	n/a	n/a	n/a	14	20	6	8	6
2499.858	n/a	PROB	1249929	n/a	LTP324	ltpFR2	12	n/a	n/a	n/a	14	13	3	9	1
2500.824	n/a	PROB	1250412	n/a	LTP324	ltpFR2	12	n/a	n/a	n/a	14	16	7	7	2
2502.312	n/a	PROB	1251156	n/a	LTP324	ltpFR2	12	n/a	n/a	n/a	14	11	4	4	3
2503.578	n/a	PROB	1251789	n/a	LTP324	ltpFR2	12	n/a	n/a	n/a	14	16	7	7	2
2504.412	n/a	PROB	1252206	n/a	LTP324	ltpFR2	12	n/a	n/a	n/a	14	19	7	5	7
2506.512	n/a	PROB	1253256	n/a	LTP324	ltpFR2	12	n/a	n/a	n/a	14	17	2	6	9
2507.98	n/a	PROB	1253990	n/a	LTP324	ltpFR2	12	n/a	n/a	n/a	14	14	8	3	3
2509.448	n/a	PROB	1254724	n/a	LTP324	ltpFR2	12	n/a	n/a	n/a	14	14	7	2	5
2511.014	n/a	PROB	1255507	n/a	LTP324	ltpFR2	12	n/a	n/a	n/a	14	7	4	2	1
2511.816	n/a	PROB	1255908	n/a	LTP324	ltpFR2	12	n/a	n/a	n/a	14	9	7	1	1
2512.75	n/a	PROB	1256375	n/a	LTP324	ltpFR2	12	n/a	n/a	n/a	14	15	4	3	8
2514.518	n/a	PROB	1257259	n/a	LTP324	ltpFR2	12	n/a	n/a	n/a	14	19	9	5	5
2515.486	n/a	PROB	1257743	n/a	LTP324	ltpFR2	12	n/a	n/a	n/a	14	16	9	2	5
2517.112	n/a	STOP	1258556	n/a	LTP324	ltpFR2	12	n/a	n/a	n/a	14	n/a	n/a	n/a	n/a
2519.458	n/a	REC_START	1259729	n/a	LTP324	ltpFR2	12	9	n/a	n/a	n/a	n/a	0	0	0
2523.586	n/a	REC_WORD	1261793	wordpools/wasnorm_wordpool_576.txt	LTP324	ltpFR2	12	9	JURY	766	n/a	n/a	0	0	0
2524.494	n/a	REC_WORD	1262247	wordpools/wasnorm_wordpool_576.txt	LTP324	ltpFR2	12	9	LILY	821	n/a	n/a	0	0	0
2527.602	n/a	REC_WORD	1263801	wordpools/wasnorm_wordpool_576.txt	LTP324	ltpFR2	12	9	JUDGE	761	n/a	n/a	0	0	0
2530.928	n/a	REC_WORD	1265464	wordpools/wasnorm_wordpool_576.txt	LTP324	ltpFR2	12	9	PARROT	1015	n/a	n/a	0	0	0
2534.936	n/a	REC_WORD	1267468	wordpools/wasnorm_wordpool_576.txt	LTP324	ltpFR2	12	9	FLASK	576	n/a	n/a	0	0	0
2535.692	n/a	REC_WORD	1267846	wordpools/wasnorm_wordpool_576.txt	LTP324	ltpFR2	12	9	SUPPER	1411	n/a	n/a	0	0	0
2540.202	n/a	REC_WORD	1270101	wordpools/wasnorm_wordpool_576.txt	LTP324	ltpFR2	12	9	CUSTARD	429	n/a	n/a	0	0	0
2542.934	n/a	REC_WORD	1271467	wordpools/wasnorm_wordpool_576.txt	LTP324	ltpFR2	12	9	PICTURE	1061	n/a	n/a	0	0	0
2546.652	n/a	REC_WORD	1273326	wordpools/wasnorm_wordpool_576.txt	LTP324	ltpFR2	12	9	TILE	1468	n/a	n/a	0	0	0
2549.014	n/a	REC_WORD	1274507	wordpools/wasnorm_wordpool_576.txt	LTP324	ltpFR2	12	9	POCKET	1093	n/a	n/a	0	0	0
2550.326	n/a	REC_WORD	1275163	wordpools/wasnorm_wordpool_576.txt	LTP324	ltpFR2	12	9	BISON	131	n/a	n/a	0	0	0
2552.566	n/a	REC_WORD	1276283	wordpools/wasnorm_wordpool_576.txt	LTP324	ltpFR2	12	9	ROBOT	1200	n/a	n/a	0	0	0
2554.038	n/a	REC_WORD	1277019	wordpools/wasnorm_wordpool_576.txt	LTP324	ltpFR2	12	9	NOTEBOOK	959	n/a	n/a	0	0	0
2556.886	n/a	REC_WORD	1278443	wordpools/wasnorm_wordpool_576.txt	LTP324	ltpFR2	12	9	DRILL	497	n/a	n/a	0	0	0
2557.642	n/a	REC_WORD	1278821	wordpools/wasnorm_wordpool_576.txt	LTP324	ltpFR2	12	9	FREEZER	604	n/a	n/a	0	0	0
2558.964	n/a	REC_WORD	1279482	wordpools/wasnorm_wordpool_576.txt	LTP324	ltpFR2	12	9	ICEBERG	731	n/a	n/a	0	0	0
2560.4	n/a	REC_WORD	1280200	wordpools/wasnorm_wordpool_576.txt	LTP324	ltpFR2	12	9	SLUG	1329	n/a	n/a	0	0	0
2562.776	n/a	REC_WORD	1281388	wordpools/wasnorm_wordpool_576.txt	LTP324	ltpFR2	12	9	FOOT	590	n/a	n/a	0	0	0
2564.1	n/a	REC_WORD	1282050	wordpools/wasnorm_wordpool_576.txt	LTP324	ltpFR2	12	9	HORSE	719	n/a	n/a	0	0	0
2567.36	n/a	REC_WORD	1283680	wordpools/wasnorm_wordpool_576.txt	LTP324	ltpFR2	12	9	TABLE	1426	n/a	n/a	0	0	0
2568.356	n/a	REC_WORD	1284178	wordpools/wasnorm_wordpool_576.txt	LTP324	ltpFR2	12	9	SCOTCH	1251	n/a	n/a	0	0	0
2572.528	n/a	REC_WORD	1286264	wordpools/wasnorm_wordpool_576.txt	LTP324	ltpFR2	12	9	COOKBOOK	373	n/a	n/a	0	0	0
2577.942	n/a	REC_WORD	1288971	wordpools/wasnorm_wordpool_576.txt	LTP324	ltpFR2	12	9	FLASK	576	n/a	n/a	0	0	0
2580.366	n/a	REC_WORD	1290183	wordpools/wasnorm_wordpool_576.txt	LTP324	ltpFR2	12	9	GRILL	661	n/a	n/a	0	0	0
2581.206	n/a	REC_WORD	1290603	wordpools/wasnorm_wordpool_576.txt	LTP324	ltpFR2	12	9	SUPPER	1411	n/a	n/a	0	0	0
2588.394	n/a	REC_WORD	1294197	wordpools/wasnorm_wordpool_576.txt	LTP324	ltpFR2	12	9	BISON	131	n/a	n/a	0	0	0
2589.4	n/a	REC_WORD	1294700	wordpools/wasnorm_wordpool_576.txt	LTP324	ltpFR2	12	9	BUFFALO	186	n/a	n/a	0	0	0
2649.722	n/a	WORD	1324861	wordpools/wasnorm_wordpool_576.txt	LTP324	ltpFR2	12	10	TOASTER	1472	n/a	n/a	0	0	0
2652.31	n/a	WORD	1326155	wordpools/wasnorm_wordpool_576.txt	LTP324	ltpFR2	12	10	COLLEGE	346	n/a	n/a	0	0	0
2655.0	n/a	WORD	1327500	wordpools/wasnorm_wordpool_576.txt	LTP324	ltpFR2	12	10	MARROW	872	n/a	n/a	0	0	0
2657.714	n/a	WORD	1328857	wordpools/wasnorm_wordpool_576.txt	LTP324	ltpFR2	12	10	BOYFRIEND	162	n/a	n/a	0	0	0
2660.166	n/a	WORD	1330083	wordpools/wasnorm_wordpool_576.txt	LTP324	ltpFR2	12	10	COUCH	386	n/a	n/a	0	0	0
2662.802	n/a	WORD	1331401	wordpools/wasnorm_wordpool_576.txt	LTP324	ltpFR2	12	10	PISTOL	1075	n/a	n/a	0	0	0
2665.604	n/a	WORD	1332802	wordpools/wasnorm_wordpool_576.txt	LTP324	ltpFR2	12	10	STAPLE	1371	n/a	n/a	0	0	0
2668.372	n/a	WORD	1334186	wordpools/wasnorm_wordpool_576.txt	LTP324	ltpFR2	12	10	STOMACH	1384	n/a	n/a	0	0	0
2670.84	n/a	WORD	1335420	wordpools/wasnorm_wordpool_576.txt	LTP324	ltpFR2	12	10	LOVER	846	n/a	n/a	0	0	0
2673.562	n/a	WORD	1336781	wordpools/wasnorm_wordpool_576.txt	LTP324	ltpFR2	12	10	LADDER	793	n/a	n/a	0	0	0
2676.244	n/a	WORD	1338122	wordpools/wasnorm_wordpool_576.txt	LTP324	ltpFR2	12	10	BIKE	125	n/a	n/a	0	0	0
2678.73	n/a	WORD	1339365	wordpools/wasnorm_wordpool_576.txt	LTP324	ltpFR2	12	10	CLOUD	328	n/a	n/a	0	0	0
2681.254	n/a	WORD	1340627	wordpools/wasnorm_wordpool_576.txt	LTP324	ltpFR2	12	10	THRONE	1461	n/a	n/a	0	0	0
2683.8	n/a	WORD	1341900	wordpools/wasnorm_wordpool_576.txt	LTP324	ltpFR2	12	10	CHILD	299	n/a	n/a	0	0	0
2686.492	n/a	WORD	1343246	wordpools/wasnorm_wordpool_576.txt	LTP324	ltpFR2	12	10	CLOTHES	327	n/a	n/a	0	0	0
2689.272	n/a	WORD	1344636	wordpools/wasnorm_wordpool_576.txt	LTP324	ltpFR2	12	10	CABBAGE	210	n/a	n/a	0	0	0
2691.974	n/a	WORD	1345987	wordpools/wasnorm_wordpool_576.txt	LTP324	ltpFR2	12	10	PASSAGE	1019	n/a	n/a	0	0	0
2694.6	n/a	WORD	1347300	wordpools/wasnorm_wordpool_576.txt	LTP324	ltpFR2	12	10	BACKBONE	66	n/a	n/a	0	0	0
2697.084	n/a	WORD	1348542	wordpools/wasnorm_wordpool_576.txt	LTP324	ltpFR2	12	10	RECEIPT	1173	n/a	n/a	0	0	0
2699.622	n/a	WORD	1349811	wordpools/wasnorm_wordpool_576.txt	LTP324	ltpFR2	12	10	BANKER	84	n/a	n/a	0	0	0
2702.088	n/a	WORD	1351044	wordpools/wasnorm_wordpool_576.txt	LTP324	ltpFR2	12	10	LONDON	843	n/a	n/a	0	0	0
2704.65	n/a	WORD	1352325	wordpools/wasnorm_wordpool_576.txt	LTP324	ltpFR2	12	10	FRAME	600	n/a	n/a	0	0	0
2707.21	n/a	WORD	1353605	wordpools/wasnorm_wordpool_576.txt	LTP324	ltpFR2	12	10	CRAYON	401	n/a	n/a	0	0	0
2709.73	n/a	WORD	1354865	wordpools/wasnorm_wordpool_576.txt	LTP324	ltpFR2	12	10	DRAWING	494	n/a	n/a	0	0	0
2711.34	n/a	START	1355670	n/a	LTP324	ltpFR2	12	n/a	n/a	n/a	15	n/a	n/a	n/a	n/a
2712.188	n/a	DISTRACTOR	1356094	n/a	LTP324	ltpFR2	12	10	n/a	n/a	n/a	n/a	0	0	0
2712.198	n/a	PROB	1356099	n/a	LTP324	ltpFR2	12	n/a	n/a	n/a	15	10	2	7	1
2713.79	n/a	PROB	1356895	n/a	LTP324	ltpFR2	12	n/a	n/a	n/a	15	14	3	2	9
2715.256	n/a	PROB	1357628	n/a	LTP324	ltpFR2	12	n/a	n/a	n/a	15	19	8	4	7
2716.594	n/a	PROB	1358297	n/a	LTP324	ltpFR2	12	n/a	n/a	n/a	15	9	3	1	5
2717.658	n/a	PROB	1358829	n/a	LTP324	ltpFR2	12	n/a	n/a	n/a	15	17	4	6	7
2719.01	n/a	PROB	1359505	n/a	LTP324	ltpFR2	12	n/a	n/a	n/a	15	19	9	8	2
2720.01	n/a	PROB	1360005	n/a	LTP324	ltpFR2	12	n/a	n/a	n/a	15	11	3	5	3
2720.978	n/a	PROB	1360489	n/a	LTP324	ltpFR2	12	n/a	n/a	n/a	15	14	3	2	9
2722.514	n/a	PROB	1361257	n/a	LTP324	ltpFR2	12	n/a	n/a	n/a	15	9	6	1	2
2723.466	n/a	PROB	1361733	n/a	LTP324	ltpFR2	12	n/a	n/a	n/a	15	13	3	1	9
2724.514	n/a	PROB	1362257	n/a	LTP324	ltpFR2	12	n/a	n/a	n/a	15	16	8	6	2
2725.432	n/a	PROB	1362716	n/a	LTP324	ltpFR2	12	n/a	n/a	n/a	15	9	1	7	1
2726.518	n/a	PROB	1363259	n/a	LTP324	ltpFR2	12	n/a	n/a	n/a	15	12	4	2	6
2727.684	n/a	PROB	1363842	n/a	LTP324	ltpFR2	12	n/a	n/a	n/a	15	12	2	8	2
2729.05	n/a	PROB	1364525	n/a	LTP324	ltpFR2	12	n/a	n/a	n/a	15	12	2	7	3
2730.018	n/a	PROB	1365009	n/a	LTP324	ltpFR2	12	n/a	n/a	n/a	15	10	2	6	2
2731.488	n/a	PROB	1365744	n/a	LTP324	ltpFR2	12	n/a	n/a	n/a	15	19	7	8	4
2735.34	n/a	STOP	1367670	n/a	LTP324	ltpFR2	12	n/a	n/a	n/a	15	n/a	n/a	n/a	n/a
2737.092	n/a	REC_START	1368546	n/a	LTP324	ltpFR2	12	10	n/a	n/a	n/a	n/a	0	0	0
2739.94	n/a	REC_WORD	1369970	wordpools/wasnorm_wordpool_576.txt	LTP324	ltpFR2	12	10	MARROW	872	n/a	n/a	0	0	0
2740.674	n/a	REC_WORD	1370337	wordpools/wasnorm_wordpool_576.txt	LTP324	ltpFR2	12	10	TOASTER	1472	n/a	n/a	0	0	0
2741.534	n/a	REC_WORD	1370767	wordpools/wasnorm_wordpool_576.txt	LTP324	ltpFR2	12	10	COLLEGE	346	n/a	n/a	0	0	0
2745.068	n/a	REC_WORD	1372534	wordpools/wasnorm_wordpool_576.txt	LTP324	ltpFR2	12	10	CABBAGE	210	n/a	n/a	0	0	0
2745.776	n/a	REC_WORD	1372888	wordpools/wasnorm_wordpool_576.txt	LTP324	ltpFR2	12	10	PASSAGE	1019	n/a	n/a	0	0	0
2862.206	n/a	DISTRACTOR	1431103	n/a	LTP324	ltpFR2	12	11	n/a	n/a	n/a	n/a	0	0	0
2862.208	n/a	START	1431104	n/a	LTP324	ltpFR2	12	n/a	n/a	n/a	16	n/a	n/a	n/a	n/a
2862.222	n/a	PROB	1431111	n/a	LTP324	ltpFR2	12	n/a	n/a	n/a	16	15	3	7	5
2863.492	n/a	PROB	1431746	n/a	LTP324	ltpFR2	12	n/a	n/a	n/a	16	20	7	6	7
2865.158	n/a	PROB	1432579	n/a	LTP324	ltpFR2	12	n/a	n/a	n/a	16	5	2	2	1
2866.11	n/a	PROB	1433055	n/a	LTP324	ltpFR2	12	n/a	n/a	n/a	16	19	9	8	2
2867.044	n/a	PROB	1433522	n/a	LTP324	ltpFR2	12	n/a	n/a	n/a	16	15	8	6	1
2868.778	n/a	PROB	1434389	n/a	LTP324	ltpFR2	12	n/a	n/a	n/a	16	11	5	1	5
2869.878	n/a	PROB	1434939	n/a	LTP324	ltpFR2	12	n/a	n/a	n/a	16	18	7	8	3
2871.03	n/a	PROB	1435515	n/a	LTP324	ltpFR2	12	n/a	n/a	n/a	16	14	6	5	3
2871.998	n/a	PROB	1435999	n/a	LTP324	ltpFR2	12	n/a	n/a	n/a	16	14	6	2	7
2873.214	n/a	PROB	1436607	n/a	LTP324	ltpFR2	12	n/a	n/a	n/a	16	15	8	1	6
2874.5	n/a	PROB	1437250	n/a	LTP324	ltpFR2	12	n/a	n/a	n/a	16	10	5	3	2
2875.232	n/a	PROB	1437616	n/a	LTP324	ltpFR2	12	n/a	n/a	n/a	16	12	2	5	5
2876.386	n/a	PROB	1438193	n/a	LTP324	ltpFR2	12	n/a	n/a	n/a	16	14	5	2	7
2877.736	n/a	PROB	1438868	n/a	LTP324	ltpFR2	12	n/a	n/a	n/a	16	18	9	8	1
2878.884	n/a	PROB	1439442	n/a	LTP324	ltpFR2	12	n/a	n/a	n/a	16	20	6	7	7
2880.386	n/a	PROB	1440193	n/a	LTP324	ltpFR2	12	n/a	n/a	n/a	16	15	6	7	2
2881.822	n/a	PROB	1440911	n/a	LTP324	ltpFR2	12	n/a	n/a	n/a	16	12	1	9	2
2883.422	n/a	PROB	1441711	n/a	LTP324	ltpFR2	12	n/a	n/a	n/a	16	13	5	1	7
2885.006	n/a	STOP	1442503	n/a	LTP324	ltpFR2	12	n/a	n/a	n/a	16	n/a	n/a	n/a	n/a
2887.078	n/a	WORD	1443539	wordpools/wasnorm_wordpool_576.txt	LTP324	ltpFR2	12	11	HAND	683	n/a	n/a	0	0	0
2889.71	n/a	WORD	1444855	wordpools/wasnorm_wordpool_576.txt	LTP324	ltpFR2	12	11	CATTLE	261	n/a	n/a	0	0	0
2892.53	n/a	WORD	1446265	wordpools/wasnorm_wordpool_576.txt	LTP324	ltpFR2	12	11	SLIME	1327	n/a	n/a	0	0	0
2895.164	n/a	WORD	1447582	wordpools/wasnorm_wordpool_576.txt	LTP324	ltpFR2	12	11	HEDGE	699	n/a	n/a	0	0	0
2897.938	n/a	WORD	1448969	wordpools/wasnorm_wordpool_576.txt	LTP324	ltpFR2	12	11	MUMMY	932	n/a	n/a	0	0	0
2900.474	n/a	WORD	1450237	wordpools/wasnorm_wordpool_576.txt	LTP324	ltpFR2	12	11	SODA	1341	n/a	n/a	0	0	0
2903.254	n/a	WORD	1451627	wordpools/wasnorm_wordpool_576.txt	LTP324	ltpFR2	12	11	BALLOON	75	n/a	n/a	0	0	0
2905.94	n/a	WORD	1452970	wordpools/wasnorm_wordpool_576.txt	LTP324	ltpFR2	12	11	PLAZA	1088	n/a	n/a	0	0	0
2908.578	n/a	WORD	1454289	wordpools/wasnorm_wordpool_576.txt	LTP324	ltpFR2	12	11	SURVEY	1414	n/a	n/a	0	0	0
2911.216	n/a	WORD	1455608	wordpools/wasnorm_wordpool_576.txt	LTP324	ltpFR2	12	11	BEEF	113	n/a	n/a	0	0	0
2913.918	n/a	WORD	1456959	wordpools/wasnorm_wordpool_576.txt	LTP324	ltpFR2	12	11	PERCH	1048	n/a	n/a	0	0	0
2916.472	n/a	WORD	1458236	wordpools/wasnorm_wordpool_576.txt	LTP324	ltpFR2	12	11	CASHEW	253	n/a	n/a	0	0	0
2919.072	n/a	WORD	1459536	wordpools/wasnorm_wordpool_576.txt	LTP324	ltpFR2	12	11	IGLOO	734	n/a	n/a	0	0	0
2921.686	n/a	WORD	1460843	wordpools/wasnorm_wordpool_576.txt	LTP324	ltpFR2	12	11	AGENT	10	n/a	n/a	0	0	0
2924.188	n/a	WORD	1462094	wordpools/wasnorm_wordpool_576.txt	LTP324	ltpFR2	12	11	ONION	977	n/a	n/a	0	0	0
2926.812	n/a	WORD	1463406	wordpools/wasnorm_wordpool_576.txt	LTP324	ltpFR2	12	11	WIFE	1609	n/a	n/a	0	0	0
2929.24	n/a	WORD	1464620	wordpools/wasnorm_wordpool_576.txt	LTP324	ltpFR2	12	11	RIVER	1194	n/a	n/a	0	0	0
2931.81	n/a	WORD	1465905	wordpools/wasnorm_wordpool_576.txt	LTP324	ltpFR2	12	11	BUCKET	184	n/a	n/a	0	0	0
2934.502	n/a	WORD	1467251	wordpools/wasnorm_wordpool_576.txt	LTP324	ltpFR2	12	11	SANDWICH	1232	n/a	n/a	0	0	0
2937.016	n/a	WORD	1468508	wordpools/wasnorm_wordpool_576.txt	LTP324	ltpFR2	12	11	LABEL	790	n/a	n/a	0	0	0
2939.534	n/a	WORD	1469767	wordpools/wasnorm_wordpool_576.txt	LTP324	ltpFR2	12	11	SHRUB	1299	n/a	n/a	0	0	0
2942.17	n/a	WORD	1471085	wordpools/wasnorm_wordpool_576.txt	LTP324	ltpFR2	12	11	PIGEON	1065	n/a	n/a	0	0	0
2944.91	n/a	WORD	1472455	wordpools/wasnorm_wordpool_576.txt	LTP324	ltpFR2	12	11	TRACTOR	1493	n/a	n/a	0	0	0
2947.408	n/a	WORD	1473704	wordpools/wasnorm_wordpool_576.txt	LTP324	ltpFR2	12	11	PORK	1108	n/a	n/a	0	0	0
2949.014	n/a	START	1474507	n/a	LTP324	ltpFR2	12	n/a	n/a	n/a	17	n/a	n/a	n/a	n/a
2950.0	n/a	DISTRACTOR	1475000	n/a	LTP324	ltpFR2	12	11	n/a	n/a	n/a	n/a	0	0	0
2950.008	n/a	PROB	1475004	n/a	LTP324	ltpFR2	12	n/a	n/a	n/a	17	11	5	3	3
2950.876	n/a	PROB	1475438	n/a	LTP324	ltpFR2	12	n/a	n/a	n/a	17	17	5	3	6
2952.742	n/a	PROB	1476371	n/a	LTP324	ltpFR2	12	n/a	n/a	n/a	17	9	2	4	3
2954.494	n/a	PROB	1477247	n/a	LTP324	ltpFR2	12	n/a	n/a	n/a	17	18	8	3	7
2956.114	n/a	PROB	1478057	n/a	LTP324	ltpFR2	12	n/a	n/a	n/a	17	9	5	3	1
2957.532	n/a	PROB	1478766	n/a	LTP324	ltpFR2	12	n/a	n/a	n/a	17	26	9	8	9
2959.248	n/a	PROB	1479624	n/a	LTP324	ltpFR2	12	n/a	n/a	n/a	17	24	9	9	6
2960.566	n/a	PROB	1480283	n/a	LTP324	ltpFR2	12	n/a	n/a	n/a	17	12	2	1	9
2961.568	n/a	PROB	1480784	n/a	LTP324	ltpFR2	12	n/a	n/a	n/a	17	13	4	8	1
2962.568	n/a	PROB	1481284	n/a	LTP324	ltpFR2	12	n/a	n/a	n/a	17	20	9	6	5
2963.85	n/a	PROB	1481925	n/a	LTP324	ltpFR2	12	n/a	n/a	n/a	17	9	6	2	1
2965.22	n/a	PROB	1482610	n/a	LTP324	ltpFR2	12	n/a	n/a	n/a	17	17	2	8	7
2966.17	n/a	PROB	1483085	n/a	LTP324	ltpFR2	12	n/a	n/a	n/a	17	18	7	7	4
2967.92	n/a	PROB	1483960	n/a	LTP324	ltpFR2	12	n/a	n/a	n/a	17	20	6	7	7
2969.34	n/a	PROB	1484670	n/a	LTP324	ltpFR2	12	n/a	n/a	n/a	17	18	6	5	7
2970.774	n/a	PROB	1485387	n/a	LTP324	ltpFR2	12	n/a	n/a	n/a	17	15	2	8	5
2972.528	n/a	STOP	1486264	n/a	LTP324	ltpFR2	12	n/a	n/a	n/a	17	n/a	n/a	n/a	n/a
2974.81	n/a	REC_START	1487405	n/a	LTP324	ltpFR2	12	11	n/a	n/a	n/a	n/a	0	0	0
2976.208	n/a	REC_WORD	1488104	wordpools/wasnorm_wordpool_576.txt	LTP324	ltpFR2	12	11	AGENT	10	n/a	n/a	0	0	0
2976.876	n/a	REC_WORD	1488438	wordpools/wasnorm_wordpool_576.txt	LTP324	ltpFR2	12	11	WIFE	1609	n/a	n/a	0	0	0
2977.7	n/a	REC_WORD	1488850	wordpools/wasnorm_wordpool_576.txt	LTP324	ltpFR2	12	11	CASHEW	253	n/a	n/a	0	0	0
2978.516	n/a	REC_WORD	1489258	wordpools/wasnorm_wordpool_576.txt	LTP324	ltpFR2	12	11	ONION	977	n/a	n/a	0	0	0
2979.49	n/a	REC_WORD	1489745	wordpools/wasnorm_wordpool_576.txt	LTP324	ltpFR2	12	11	SANDWICH	1232	n/a	n/a	0	0	0
3098.44	n/a	WORD	1549220	wordpools/wasnorm_wordpool_576.txt	LTP324	ltpFR2	12	12	FOREST	593	n/a	n/a	0	0	0
3101.042	n/a	WORD	1550521	wordpools/wasnorm_wordpool_576.txt	LTP324	ltpFR2	12	12	LAVA	804	n/a	n/a	0	0	0
3103.594	n/a	WORD	1551797	wordpools/wasnorm_wordpool_576.txt	LTP324	ltpFR2	12	12	BRANDY	169	n/a	n/a	0	0	0
3106.164	n/a	WORD	1553082	wordpools/wasnorm_wordpool_576.txt	LTP324	ltpFR2	12	12	CABIN	211	n/a	n/a	0	0	0
3108.898	n/a	WORD	1554449	wordpools/wasnorm_wordpool_576.txt	LTP324	ltpFR2	12	12	PADDLE	1000	n/a	n/a	0	0	0
3111.65	n/a	WORD	1555825	wordpools/wasnorm_wordpool_576.txt	LTP324	ltpFR2	12	12	HUMAN	726	n/a	n/a	0	0	0
3114.388	n/a	WORD	1557194	wordpools/wasnorm_wordpool_576.txt	LTP324	ltpFR2	12	12	GAZELLE	628	n/a	n/a	0	0	0
3116.822	n/a	WORD	1558411	wordpools/wasnorm_wordpool_576.txt	LTP324	ltpFR2	12	12	SOFTBALL	1343	n/a	n/a	0	0	0
3119.576	n/a	WORD	1559788	wordpools/wasnorm_wordpool_576.txt	LTP324	ltpFR2	12	12	MISTER	901	n/a	n/a	0	0	0
3122.058	n/a	WORD	1561029	wordpools/wasnorm_wordpool_576.txt	LTP324	ltpFR2	12	12	LADY	794	n/a	n/a	0	0	0
3124.482	n/a	WORD	1562241	wordpools/wasnorm_wordpool_576.txt	LTP324	ltpFR2	12	12	LAGOON	795	n/a	n/a	0	0	0
3127.296	n/a	WORD	1563648	wordpools/wasnorm_wordpool_576.txt	LTP324	ltpFR2	12	12	FLIPPER	580	n/a	n/a	0	0	0
3129.764	n/a	WORD	1564882	wordpools/wasnorm_wordpool_576.txt	LTP324	ltpFR2	12	12	WHISTLE	1606	n/a	n/a	0	0	0
3132.25	n/a	WORD	1566125	wordpools/wasnorm_wordpool_576.txt	LTP324	ltpFR2	12	12	HORNET	718	n/a	n/a	0	0	0
3134.806	n/a	WORD	1567403	wordpools/wasnorm_wordpool_576.txt	LTP324	ltpFR2	12	12	WHISKERS	1605	n/a	n/a	0	0	0
3137.554	n/a	WORD	1568777	wordpools/wasnorm_wordpool_576.txt	LTP324	ltpFR2	12	12	HANDBAG	684	n/a	n/a	0	0	0
3139.988	n/a	WORD	1569994	wordpools/wasnorm_wordpool_576.txt	LTP324	ltpFR2	12	12	TROUT	1511	n/a	n/a	0	0	0
3142.758	n/a	WORD	1571379	wordpools/wasnorm_wordpool_576.txt	LTP324	ltpFR2	12	12	BRICK	172	n/a	n/a	0	0	0
3145.394	n/a	WORD	1572697	wordpools/wasnorm_wordpool_576.txt	LTP324	ltpFR2	12	12	KEEPER	769	n/a	n/a	0	0	0
3148.03	n/a	WORD	1574015	wordpools/wasnorm_wordpool_576.txt	LTP324	ltpFR2	12	12	DRUG	501	n/a	n/a	0	0	0
3150.682	n/a	WORD	1575341	wordpools/wasnorm_wordpool_576.txt	LTP324	ltpFR2	12	12	PRIMATE	1123	n/a	n/a	0	0	0
3153.116	n/a	WORD	1576558	wordpools/wasnorm_wordpool_576.txt	LTP324	ltpFR2	12	12	PUDDING	1139	n/a	n/a	0	0	0
3155.558	n/a	WORD	1577779	wordpools/wasnorm_wordpool_576.txt	LTP324	ltpFR2	12	12	SHELTER	1282	n/a	n/a	0	0	0
3158.088	n/a	WORD	1579044	wordpools/wasnorm_wordpool_576.txt	LTP324	ltpFR2	12	12	CHIPMUNK	304	n/a	n/a	0	0	0
3159.694	n/a	START	1579847	n/a	LTP324	ltpFR2	12	n/a	n/a	n/a	18	n/a	n/a	n/a	n/a
3160.838	n/a	DISTRACTOR	1580419	n/a	LTP324	ltpFR2	12	12	n/a	n/a	n/a	n/a	0	0	0
3160.844	n/a	PROB	1580422	n/a	LTP324	ltpFR2	12	n/a	n/a	n/a	18	23	6	8	9
3162.558	n/a	PROB	1581279	n/a	LTP324	ltpFR2	12	n/a	n/a	n/a	18	13	2	4	7
3163.84	n/a	PROB	1581920	n/a	LTP324	ltpFR2	12	n/a	n/a	n/a	18	21	7	8	6
3165.578	n/a	PROB	1582789	n/a	LTP324	ltpFR2	12	n/a	n/a	n/a	18	14	4	2	8
3166.726	n/a	PROB	1583363	n/a	LTP324	ltpFR2	12	n/a	n/a	n/a	18	7	4	1	2
3167.91	n/a	PROB	1583955	n/a	LTP324	ltpFR2	12	n/a	n/a	n/a	18	17	7	3	7
3170.528	n/a	PROB	1585264	n/a	LTP324	ltpFR2	12	n/a	n/a	n/a	18	15	1	8	6
3171.33	n/a	PROB	1585665	n/a	LTP324	ltpFR2	12	n/a	n/a	n/a	18	15	4	2	9
3173.114	n/a	PROB	1586557	n/a	LTP324	ltpFR2	12	n/a	n/a	n/a	18	13	2	7	4
3174.418	n/a	PROB	1587209	n/a	LTP324	ltpFR2	12	n/a	n/a	n/a	18	13	1	4	8
3176.0	n/a	PROB	1588000	n/a	LTP324	ltpFR2	12	n/a	n/a	n/a	18	13	9	3	1
3177.1	n/a	PROB	1588550	n/a	LTP324	ltpFR2	12	n/a	n/a	n/a	18	2	8	7	5
3178.886	n/a	PROB	1589443	n/a	LTP324	ltpFR2	12	n/a	n/a	n/a	18	11	7	1	3
3180.488	n/a	PROB	1590244	n/a	LTP324	ltpFR2	12	n/a	n/a	n/a	18	12	8	2	2
3181.888	n/a	PROB	1590944	n/a	LTP324	ltpFR2	12	n/a	n/a	n/a	18	8	2	1	5
3183.396	n/a	STOP	1591698	n/a	LTP324	ltpFR2	12	n/a	n/a	n/a	18	n/a	n/a	n/a	n/a
3185.558	n/a	REC_START	1592779	n/a	LTP324	ltpFR2	12	12	n/a	n/a	n/a	n/a	0	0	0
3188.262	n/a	REC_WORD	1594131	wordpools/wasnorm_wordpool_576.txt	LTP324	ltpFR2	12	12	CHIPMUNK	304	n/a	n/a	0	0	0
3190.924	n/a	REC_WORD	1595462	wordpools/wasnorm_wordpool_576.txt	LTP324	ltpFR2	12	12	LAVA	804	n/a	n/a	0	0	0
3191.784	n/a	REC_WORD	1595892	wordpools/wasnorm_wordpool_576.txt	LTP324	ltpFR2	12	12	FOREST	593	n/a	n/a	0	0	0
3192.698	n/a	REC_WORD	1596349	wordpools/wasnorm_wordpool_576.txt	LTP324	ltpFR2	12	12	BRANDY	169	n/a	n/a	0	0	0
3193.652	n/a	REC_WORD	1596826	wordpools/wasnorm_wordpool_576.txt	LTP324	ltpFR2	12	12	SHELTER	1282	n/a	n/a	0	0	0
3196.656	n/a	REC_WORD	1598328	wordpools/wasnorm_wordpool_576.txt	LTP324	ltpFR2	12	12	LADY	794	n/a	n/a	0	0	0
3197.422	n/a	REC_WORD	1598711	wordpools/wasnorm_wordpool_576.txt	LTP324	ltpFR2	12	12	MISTER	901	n/a	n/a	0	0	0
3351.606	n/a	DISTRACTOR	1675803	n/a	LTP324	ltpFR2	12	13	n/a	n/a	n/a	n/a	0	0	0
3351.606	n/a	START	1675803	n/a	LTP324	ltpFR2	12	n/a	n/a	n/a	19	n/a	n/a	n/a	n/a
3351.62	n/a	PROB	1675810	n/a	LTP324	ltpFR2	12	n/a	n/a	n/a	19	12	2	1	9
3352.354	n/a	PROB	1676177	n/a	LTP324	ltpFR2	12	n/a	n/a	n/a	19	12	3	3	6
3353.506	n/a	PROB	1676753	n/a	LTP324	ltpFR2	12	n/a	n/a	n/a	19	17	7	1	9
3354.442	n/a	PROB	1677221	n/a	LTP324	ltpFR2	12	n/a	n/a	n/a	19	24	6	9	9
3355.574	n/a	PROB	1677787	n/a	LTP324	ltpFR2	12	n/a	n/a	n/a	19	17	9	6	2
3356.958	n/a	PROB	1678479	n/a	LTP324	ltpFR2	12	n/a	n/a	n/a	19	10	6	1	3
3357.69	n/a	PROB	1678845	n/a	LTP324	ltpFR2	12	n/a	n/a	n/a	19	18	1	8	9
3358.46	n/a	PROB	1679230	n/a	LTP324	ltpFR2	12	n/a	n/a	n/a	19	4	1	2	2
3359.26	n/a	PROB	1679630	n/a	LTP324	ltpFR2	12	n/a	n/a	n/a	19	15	5	1	9
3360.628	n/a	PROB	1680314	n/a	LTP324	ltpFR2	12	n/a	n/a	n/a	19	18	4	5	9
3361.61	n/a	PROB	1680805	n/a	LTP324	ltpFR2	12	n/a	n/a	n/a	19	19	8	6	5
3362.78	n/a	PROB	1681390	n/a	LTP324	ltpFR2	12	n/a	n/a	n/a	19	13	2	6	5
3363.696	n/a	PROB	1681848	n/a	LTP324	ltpFR2	12	n/a	n/a	n/a	19	19	4	6	9
3365.18	n/a	PROB	1682590	n/a	LTP324	ltpFR2	12	n/a	n/a	n/a	19	11	5	5	1
3366.264	n/a	PROB	1683132	n/a	LTP324	ltpFR2	12	n/a	n/a	n/a	19	15	5	1	9
3367.45	n/a	PROB	1683725	n/a	LTP324	ltpFR2	12	n/a	n/a	n/a	19	19	3	7	9
3369.234	n/a	PROB	1684617	n/a	LTP324	ltpFR2	12	n/a	n/a	n/a	19	15	8	3	4
3370.718	n/a	PROB	1685359	n/a	LTP324	ltpFR2	12	n/a	n/a	n/a	19	20	7	9	4
3372.138	n/a	PROB	1686069	n/a	LTP324	ltpFR2	12	n/a	n/a	n/a	19	15	2	9	4
3373.754	n/a	PROB	1686877	n/a	LTP324	ltpFR2	12	n/a	n/a	n/a	19	22	6	9	7
3375.238	n/a	STOP	1687619	n/a	LTP324	ltpFR2	12	n/a	n/a	n/a	19	n/a	n/a	n/a	n/a
3376.592	n/a	WORD	1688296	wordpools/wasnorm_wordpool_576.txt	LTP324	ltpFR2	12	13	MESSAGE	888	n/a	n/a	0	0	0
3379.312	n/a	WORD	1689656	wordpools/wasnorm_wordpool_576.txt	LTP324	ltpFR2	12	13	KITCHEN	778	n/a	n/a	0	0	0
3381.998	n/a	WORD	1690999	wordpools/wasnorm_wordpool_576.txt	LTP324	ltpFR2	12	13	FEMALE	559	n/a	n/a	0	0	0
3384.6	n/a	WORD	1692300	wordpools/wasnorm_wordpool_576.txt	LTP324	ltpFR2	12	13	BRAKE	166	n/a	n/a	0	0	0
3387.264	n/a	WORD	1693632	wordpools/wasnorm_wordpool_576.txt	LTP324	ltpFR2	12	13	SWORD	1423	n/a	n/a	0	0	0
3389.75	n/a	WORD	1694875	wordpools/wasnorm_wordpool_576.txt	LTP324	ltpFR2	12	13	TART	1436	n/a	n/a	0	0	0
3392.374	n/a	WORD	1696187	wordpools/wasnorm_wordpool_576.txt	LTP324	ltpFR2	12	13	TRANSPLANT	1496	n/a	n/a	0	0	0
3394.938	n/a	WORD	1697469	wordpools/wasnorm_wordpool_576.txt	LTP324	ltpFR2	12	13	MOTEL	919	n/a	n/a	0	0	0
3397.69	n/a	WORD	1698845	wordpools/wasnorm_wordpool_576.txt	LTP324	ltpFR2	12	13	NIGHTGOWN	953	n/a	n/a	0	0	0
3400.364	n/a	WORD	1700182	wordpools/wasnorm_wordpool_576.txt	LTP324	ltpFR2	12	13	FRAGRANCE	599	n/a	n/a	0	0	0
3403.11	n/a	WORD	1701555	wordpools/wasnorm_wordpool_576.txt	LTP324	ltpFR2	12	13	SNAIL	1332	n/a	n/a	0	0	0
3405.852	n/a	WORD	1702926	wordpools/wasnorm_wordpool_576.txt	LTP324	ltpFR2	12	13	HATCHET	691	n/a	n/a	0	0	0
3408.366	n/a	WORD	1704183	wordpools/wasnorm_wordpool_576.txt	LTP324	ltpFR2	12	13	AUTHOR	61	n/a	n/a	0	0	0
3410.868	n/a	WORD	1705434	wordpools/wasnorm_wordpool_576.txt	LTP324	ltpFR2	12	13	SIDEWALK	1303	n/a	n/a	0	0	0
3413.336	n/a	WORD	1706668	wordpools/wasnorm_wordpool_576.txt	LTP324	ltpFR2	12	13	ANTLER	29	n/a	n/a	0	0	0
3415.904	n/a	WORD	1707952	wordpools/wasnorm_wordpool_576.txt	LTP324	ltpFR2	12	13	TUNNEL	1519	n/a	n/a	0	0	0
3418.674	n/a	WORD	1709337	wordpools/wasnorm_wordpool_576.txt	LTP324	ltpFR2	12	13	SUBWAY	1400	n/a	n/a	0	0	0
3421.192	n/a	WORD	1710596	wordpools/wasnorm_wordpool_576.txt	LTP324	ltpFR2	12	13	STREAM	1392	n/a	n/a	0	0	0
3423.766	n/a	WORD	1711883	wordpools/wasnorm_wordpool_576.txt	LTP324	ltpFR2	12	13	BOX	159	n/a	n/a	0	0	0
3426.53	n/a	WORD	1713265	wordpools/wasnorm_wordpool_576.txt	LTP324	ltpFR2	12	13	SEAFOOD	1260	n/a	n/a	0	0	0
3429.348	n/a	WORD	1714674	wordpools/wasnorm_wordpool_576.txt	LTP324	ltpFR2	12	13	SALMON	1227	n/a	n/a	0	0	0
3432.04	n/a	WORD	1716020	wordpools/wasnorm_wordpool_576.txt	LTP324	ltpFR2	12	13	DOLPHIN	483	n/a	n/a	0	0	0
3434.792	n/a	WORD	1717396	wordpools/wasnorm_wordpool_576.txt	LTP324	ltpFR2	12	13	OUTDOORS	987	n/a	n/a	0	0	0
3437.572	n/a	WORD	1718786	wordpools/wasnorm_wordpool_576.txt	LTP324	ltpFR2	12	13	TURTLE	1522	n/a	n/a	0	0	0
3439.182	n/a	START	1719591	n/a	LTP324	ltpFR2	12	n/a	n/a	n/a	20	n/a	n/a	n/a	n/a
3440.202	n/a	DISTRACTOR	1720101	n/a	LTP324	ltpFR2	12	13	n/a	n/a	n/a	n/a	0	0	0
3440.206	n/a	PROB	1720103	n/a	LTP324	ltpFR2	12	n/a	n/a	n/a	20	10	4	5	1
3441.474	n/a	PROB	1720737	n/a	LTP324	ltpFR2	12	n/a	n/a	n/a	20	13	4	2	7
3444.044	n/a	PROB	1722022	n/a	LTP324	ltpFR2	12	n/a	n/a	n/a	20	17	9	7	1
3445.094	n/a	PROB	1722547	n/a	LTP324	ltpFR2	12	n/a	n/a	n/a	20	10	3	5	2
3446.176	n/a	PROB	1723088	n/a	LTP324	ltpFR2	12	n/a	n/a	n/a	20	6	4	1	1
3446.878	n/a	PROB	1723439	n/a	LTP324	ltpFR2	12	n/a	n/a	n/a	20	13	3	9	1
3447.696	n/a	PROB	1723848	n/a	LTP324	ltpFR2	12	n/a	n/a	n/a	20	7	1	5	1
3448.464	n/a	PROB	1724232	n/a	LTP324	ltpFR2	12	n/a	n/a	n/a	20	5	2	2	1
3449.448	n/a	PROB	1724724	n/a	LTP324	ltpFR2	12	n/a	n/a	n/a	20	13	6	5	2
3450.314	n/a	PROB	1725157	n/a	LTP324	ltpFR2	12	n/a	n/a	n/a	20	21	7	9	5
3451.848	n/a	PROB	1725924	n/a	LTP324	ltpFR2	12	n/a	n/a	n/a	20	22	8	9	5
3452.898	n/a	PROB	1726449	n/a	LTP324	ltpFR2	12	n/a	n/a	n/a	20	22	6	7	9
3454.666	n/a	PROB	1727333	n/a	LTP324	ltpFR2	12	n/a	n/a	n/a	20	15	1	8	6
3455.586	n/a	PROB	1727793	n/a	LTP324	ltpFR2	12	n/a	n/a	n/a	20	13	4	1	8
3457.036	n/a	PROB	1728518	n/a	LTP324	ltpFR2	12	n/a	n/a	n/a	20	20	4	8	8
3458.388	n/a	PROB	1729194	n/a	LTP324	ltpFR2	12	n/a	n/a	n/a	20	21	7	9	5
3460.704	n/a	PROB	1730352	n/a	LTP324	ltpFR2	12	n/a	n/a	n/a	20	8	2	4	2
3462.408	n/a	STOP	1731204	n/a	LTP324	ltpFR2	12	n/a	n/a	n/a	20	n/a	n/a	n/a	n/a
3465.024	n/a	REC_START	1732512	n/a	LTP324	ltpFR2	12	13	n/a	n/a	n/a	n/a	0	0	0
3465.72	n/a	REC_WORD	1732860	wordpools/wasnorm_wordpool_576.txt	LTP324	ltpFR2	12	13	SALMON	1227	n/a	n/a	0	0	0
3467.202	n/a	REC_WORD	1733601	wordpools/wasnorm_wordpool_576.txt	LTP324	ltpFR2	12	13	BOX	159	n/a	n/a	0	0	0
3468.172	n/a	REC_WORD	1734086	wordpools/wasnorm_wordpool_576.txt	LTP324	ltpFR2	12	13	OUTDOORS	987	n/a	n/a	0	0	0
3588.122	n/a	DISTRACTOR	1794061	n/a	LTP324	ltpFR2	12	14	n/a	n/a	n/a	n/a	0	0	0
3588.122	n/a	START	1794061	n/a	LTP324	ltpFR2	12	n/a	n/a	n/a	21	n/a	n/a	n/a	n/a
3588.138	n/a	PROB	1794069	n/a	LTP324	ltpFR2	12	n/a	n/a	n/a	21	20	7	7	6
3589.254	n/a	PROB	1794627	n/a	LTP324	ltpFR2	12	n/a	n/a	n/a	21	11	2	8	1
3590.638	n/a	PROB	1795319	n/a	LTP324	ltpFR2	12	n/a	n/a	n/a	21	16	9	1	6
3591.524	n/a	PROB	1795762	n/a	LTP324	ltpFR2	12	n/a	n/a	n/a	21	18	6	3	9
3592.74	n/a	PROB	1796370	n/a	LTP324	ltpFR2	12	n/a	n/a	n/a	21	14	4	2	8
3594.378	n/a	PROB	1797189	n/a	LTP324	ltpFR2	12	n/a	n/a	n/a	21	18	9	8	1
3595.21	n/a	PROB	1797605	n/a	LTP324	ltpFR2	12	n/a	n/a	n/a	21	22	7	8	7
3596.778	n/a	PROB	1798389	n/a	LTP324	ltpFR2	12	n/a	n/a	n/a	21	15	9	3	3
3597.878	n/a	PROB	1798939	n/a	LTP324	ltpFR2	12	n/a	n/a	n/a	21	12	7	1	4
3598.846	n/a	PROB	1799423	n/a	LTP324	ltpFR2	12	n/a	n/a	n/a	21	10	2	7	1
3600.398	n/a	PROB	1800199	n/a	LTP324	ltpFR2	12	n/a	n/a	n/a	21	12	6	1	5
3601.198	n/a	PROB	1800599	n/a	LTP324	ltpFR2	12	n/a	n/a	n/a	21	16	1	8	7
3602.2	n/a	PROB	1801100	n/a	LTP324	ltpFR2	12	n/a	n/a	n/a	21	13	3	2	8
3603.6	n/a	PROB	1801800	n/a	LTP324	ltpFR2	12	n/a	n/a	n/a	21	12	2	8	2
3604.768	n/a	PROB	1802384	n/a	LTP324	ltpFR2	12	n/a	n/a	n/a	21	10	2	5	3
3606.168	n/a	PROB	1803084	n/a	LTP324	ltpFR2	12	n/a	n/a	n/a	21	12	4	2	6
3607.036	n/a	PROB	1803518	n/a	LTP324	ltpFR2	12	n/a	n/a	n/a	21	6	1	2	3
3608.254	n/a	PROB	1804127	n/a	LTP324	ltpFR2	12	n/a	n/a	n/a	21	17	4	7	6
3609.82	n/a	PROB	1804910	n/a	LTP324	ltpFR2	12	n/a	n/a	n/a	21	9	1	3	5
3610.666	n/a	STOP	1805333	n/a	LTP324	ltpFR2	12	n/a	n/a	n/a	21	n/a	n/a	n/a	n/a
3612.94	n/a	WORD	1806470	wordpools/wasnorm_wordpool_576.txt	LTP324	ltpFR2	12	14	STALLION	1369	n/a	n/a	0	0	0
3615.678	n/a	WORD	1807839	wordpools/wasnorm_wordpool_576.txt	LTP324	ltpFR2	12	14	WINDOW	1611	n/a	n/a	0	0	0
3618.464	n/a	WORD	1809232	wordpools/wasnorm_wordpool_576.txt	LTP324	ltpFR2	12	14	CELLAR	267	n/a	n/a	0	0	0
3621.0	n/a	WORD	1810500	wordpools/wasnorm_wordpool_576.txt	LTP324	ltpFR2	12	14	CHEST	295	n/a	n/a	0	0	0
3623.716	n/a	WORD	1811858	wordpools/wasnorm_wordpool_576.txt	LTP324	ltpFR2	12	14	DRESSER	496	n/a	n/a	0	0	0
3626.25	n/a	WORD	1813125	wordpools/wasnorm_wordpool_576.txt	LTP324	ltpFR2	12	14	VAGRANT	1544	n/a	n/a	0	0	0
3628.82	n/a	WORD	1814410	wordpools/wasnorm_wordpool_576.txt	LTP324	ltpFR2	12	14	SUNSET	1408	n/a	n/a	0	0	0
3631.572	n/a	WORD	1815786	wordpools/wasnorm_wordpool_576.txt	LTP324	ltpFR2	12	14	CRICKET	408	n/a	n/a	0	0	0
3633.99	n/a	WORD	1816995	wordpools/wasnorm_wordpool_576.txt	LTP324	ltpFR2	12	14	PADDING	999	n/a	n/a	0	0	0
3636.442	n/a	WORD	1818221	wordpools/wasnorm_wordpool_576.txt	LTP324	ltpFR2	12	14	SHIRT	1287	n/a	n/a	0	0	0
3638.894	n/a	WORD	1819447	wordpools/wasnorm_wordpool_576.txt	LTP324	ltpFR2	12	14	SEAL	1262	n/a	n/a	0	0	0
3641.482	n/a	WORD	1820741	wordpools/wasnorm_wordpool_576.txt	LTP324	ltpFR2	12	14	NOMAD	955	n/a	n/a	0	0	0
3644.166	n/a	WORD	1822083	wordpools/wasnorm_wordpool_576.txt	LTP324	ltpFR2	12	14	GLASS	639	n/a	n/a	0	0	0
3646.788	n/a	WORD	1823394	wordpools/wasnorm_wordpool_576.txt	LTP324	ltpFR2	12	14	CATCHER	258	n/a	n/a	0	0	0
3649.342	n/a	WORD	1824671	wordpools/wasnorm_wordpool_576.txt	LTP324	ltpFR2	12	14	DRESS	495	n/a	n/a	0	0	0
3651.956	n/a	WORD	1825978	wordpools/wasnorm_wordpool_576.txt	LTP324	ltpFR2	12	14	BASEMENT	94	n/a	n/a	0	0	0
3654.408	n/a	WORD	1827204	wordpools/wasnorm_wordpool_576.txt	LTP324	ltpFR2	12	14	PALACE	1006	n/a	n/a	0	0	0
3657.176	n/a	WORD	1828588	wordpools/wasnorm_wordpool_576.txt	LTP324	ltpFR2	12	14	ROBBER	1197	n/a	n/a	0	0	0
3659.794	n/a	WORD	1829897	wordpools/wasnorm_wordpool_576.txt	LTP324	ltpFR2	12	14	OUTLAW	989	n/a	n/a	0	0	0
3662.414	n/a	WORD	1831207	wordpools/wasnorm_wordpool_576.txt	LTP324	ltpFR2	12	14	HAMPER	682	n/a	n/a	0	0	0
3664.886	n/a	WORD	1832443	wordpools/wasnorm_wordpool_576.txt	LTP324	ltpFR2	12	14	BUBBLE	183	n/a	n/a	0	0	0
3667.616	n/a	WORD	1833808	wordpools/wasnorm_wordpool_576.txt	LTP324	ltpFR2	12	14	SCARECROW	1245	n/a	n/a	0	0	0
3670.152	n/a	WORD	1835076	wordpools/wasnorm_wordpool_576.txt	LTP324	ltpFR2	12	14	ROCKET	1202	n/a	n/a	0	0	0
3672.778	n/a	WORD	1836389	wordpools/wasnorm_wordpool_576.txt	LTP324	ltpFR2	12	14	VELVET	1555	n/a	n/a	0	0	0
3674.39	n/a	START	1837195	n/a	LTP324	ltpFR2	12	n/a	n/a	n/a	22	n/a	n/a	n/a	n/a
3675.196	n/a	DISTRACTOR	1837598	n/a	LTP324	ltpFR2	12	14	n/a	n/a	n/a	n/a	0	0	0
3675.206	n/a	PROB	1837603	n/a	LTP324	ltpFR2	12	n/a	n/a	n/a	22	14	5	4	8
3676.472	n/a	PROB	1838236	n/a	LTP324	ltpFR2	12	n/a	n/a	n/a	22	14	5	4	5
3678.124	n/a	PROB	1839062	n/a	LTP324	ltpFR2	12	n/a	n/a	n/a	22	17	8	4	5
3679.442	n/a	PROB	1839721	n/a	LTP324	ltpFR2	12	n/a	n/a	n/a	22	20	8	6	8
3680.576	n/a	PROB	1840288	n/a	LTP324	ltpFR2	12	n/a	n/a	n/a	22	17	6	5	6
3682.844	n/a	PROB	1841422	n/a	LTP324	ltpFR2	12	n/a	n/a	n/a	22	15	8	6	1
3685.046	n/a	PROB	1842523	n/a	LTP324	ltpFR2	12	n/a	n/a	n/a	22	15	2	7	6
3686.098	n/a	PROB	1843049	n/a	LTP324	ltpFR2	12	n/a	n/a	n/a	22	10	2	1	7
3687.282	n/a	PROB	1843641	n/a	LTP324	ltpFR2	12	n/a	n/a	n/a	22	18	9	6	3
3688.332	n/a	PROB	1844166	n/a	LTP324	ltpFR2	12	n/a	n/a	n/a	22	20	5	9	6
3690.484	n/a	PROB	1845242	n/a	LTP324	ltpFR2	12	n/a	n/a	n/a	22	5	1	2	2
3691.168	n/a	PROB	1845584	n/a	LTP324	ltpFR2	12	n/a	n/a	n/a	22	15	4	2	9
3692.988	n/a	PROB	1846494	n/a	LTP324	ltpFR2	12	n/a	n/a	n/a	22	17	8	7	2
3694.27	n/a	PROB	1847135	n/a	LTP324	ltpFR2	12	n/a	n/a	n/a	22	6	2	3	1
3695.888	n/a	PROB	1847944	n/a	LTP324	ltpFR2	12	n/a	n/a	n/a	22	14	9	4	1
3697.396	n/a	STOP	1848698	n/a	LTP324	ltpFR2	12	n/a	n/a	n/a	22	n/a	n/a	n/a	n/a
3700.226	n/a	REC_START	1850113	n/a	LTP324	ltpFR2	12	14	n/a	n/a	n/a	n/a	0	0	0
3702.476	n/a	REC_WORD	1851238	wordpools/wasnorm_wordpool_576.txt	LTP324	ltpFR2	12	14	BASEMENT	94	n/a	n/a	0	0	0
3703.754	n/a	REC_WORD	1851877	wordpools/wasnorm_wordpool_576.txt	LTP324	ltpFR2	12	14	VAGRANT	1544	n/a	n/a	0	0	0
3704.38	n/a	REC_WORD	1852190	wordpools/wasnorm_wordpool_576.txt	LTP324	ltpFR2	12	14	NOMAD	955	n/a	n/a	0	0	0
3704.924	n/a	REC_WORD	1852462	wordpools/wasnorm_wordpool_576.txt	LTP324	ltpFR2	12	14	GLASS	639	n/a	n/a	0	0	0
3705.992	n/a	REC_WORD	1852996	wordpools/wasnorm_wordpool_576.txt	LTP324	ltpFR2	12	14	CELLAR	267	n/a	n/a	0	0	0
3709.53	n/a	REC_WORD	1854765	wordpools/wasnorm_wordpool_576.txt	LTP324	ltpFR2	12	14	CHEST	295	n/a	n/a	0	0	0
3712.132	n/a	REC_WORD	1856066	wordpools/wasnorm_wordpool_576.txt	LTP324	ltpFR2	12	14	DRESSER	496	n/a	n/a	0	0	0
3807.21	n/a	DISTRACTOR	1903605	n/a	LTP324	ltpFR2	12	15	n/a	n/a	n/a	n/a	0	0	0
3807.21	n/a	START	1903605	n/a	LTP324	ltpFR2	12	n/a	n/a	n/a	23	n/a	n/a	n/a	n/a
3807.224	n/a	PROB	1903612	n/a	LTP324	ltpFR2	12	n/a	n/a	n/a	23	20	9	3	8
3809.26	n/a	PROB	1904630	n/a	LTP324	ltpFR2	12	n/a	n/a	n/a	23	16	3	4	6
3810.562	n/a	PROB	1905281	n/a	LTP324	ltpFR2	12	n/a	n/a	n/a	23	13	4	4	5
3811.714	n/a	PROB	1905857	n/a	LTP324	ltpFR2	12	n/a	n/a	n/a	23	18	4	7	7
3812.996	n/a	PROB	1906498	n/a	LTP324	ltpFR2	12	n/a	n/a	n/a	23	16	2	8	6
3814.464	n/a	PROB	1907232	n/a	LTP324	ltpFR2	12	n/a	n/a	n/a	23	21	5	7	9
3816.034	n/a	PROB	1908017	n/a	LTP324	ltpFR2	12	n/a	n/a	n/a	23	19	9	2	8
3817.266	n/a	PROB	1908633	n/a	LTP324	ltpFR2	12	n/a	n/a	n/a	23	11	2	1	8
3818.536	n/a	PROB	1909268	n/a	LTP324	ltpFR2	12	n/a	n/a	n/a	23	13	7	5	1
3819.418	n/a	PROB	1909709	n/a	LTP324	ltpFR2	12	n/a	n/a	n/a	23	10	3	2	5
3820.586	n/a	PROB	1910293	n/a	LTP324	ltpFR2	12	n/a	n/a	n/a	23	10	6	2	2
3821.372	n/a	PROB	1910686	n/a	LTP324	ltpFR2	12	n/a	n/a	n/a	23	18	1	8	7
3822.472	n/a	PROB	1911236	n/a	LTP324	ltpFR2	12	n/a	n/a	n/a	23	17	3	8	6
3824.02	n/a	PROB	1912010	n/a	LTP324	ltpFR2	12	n/a	n/a	n/a	23	14	4	1	9
3824.956	n/a	PROB	1912478	n/a	LTP324	ltpFR2	12	n/a	n/a	n/a	23	21	9	9	3
3826.14	n/a	PROB	1913070	n/a	LTP324	ltpFR2	12	n/a	n/a	n/a	23	7	1	5	1
3827.19	n/a	PROB	1913595	n/a	LTP324	ltpFR2	12	n/a	n/a	n/a	23	11	4	1	6
3827.924	n/a	PROB	1913962	n/a	LTP324	ltpFR2	12	n/a	n/a	n/a	23	21	7	7	7
3828.74	n/a	PROB	1914370	n/a	LTP324	ltpFR2	12	n/a	n/a	n/a	23	14	9	2	3
3830.078	n/a	STOP	1915039	n/a	LTP324	ltpFR2	12	n/a	n/a	n/a	23	n/a	n/a	n/a	n/a
3832.33	n/a	WORD	1916165	wordpools/wasnorm_wordpool_576.txt	LTP324	ltpFR2	12	15	SHOVEL	1295	n/a	n/a	0	0	0
3834.762	n/a	WORD	1917381	wordpools/wasnorm_wordpool_576.txt	LTP324	ltpFR2	12	15	VALLEY	1545	n/a	n/a	0	0	0
3837.466	n/a	WORD	1918733	wordpools/wasnorm_wordpool_576.txt	LTP324	ltpFR2	12	15	VIKING	1565	n/a	n/a	0	0	0
3840.016	n/a	WORD	1920008	wordpools/wasnorm_wordpool_576.txt	LTP324	ltpFR2	12	15	PRINCESS	1125	n/a	n/a	0	0	0
3842.47	n/a	WORD	1921235	wordpools/wasnorm_wordpool_576.txt	LTP324	ltpFR2	12	15	BURGLAR	200	n/a	n/a	0	0	0
3845.154	n/a	WORD	1922577	wordpools/wasnorm_wordpool_576.txt	LTP324	ltpFR2	12	15	NECKLACE	940	n/a	n/a	0	0	0
3847.824	n/a	WORD	1923912	wordpools/wasnorm_wordpool_576.txt	LTP324	ltpFR2	12	15	HAWK	692	n/a	n/a	0	0	0
3850.444	n/a	WORD	1925222	wordpools/wasnorm_wordpool_576.txt	LTP324	ltpFR2	12	15	TWISTER	1530	n/a	n/a	0	0	0
3853.194	n/a	WORD	1926597	wordpools/wasnorm_wordpool_576.txt	LTP324	ltpFR2	12	15	BULLET	194	n/a	n/a	0	0	0
3855.848	n/a	WORD	1927924	wordpools/wasnorm_wordpool_576.txt	LTP324	ltpFR2	12	15	RIFLE	1192	n/a	n/a	0	0	0
3858.584	n/a	WORD	1929292	wordpools/wasnorm_wordpool_576.txt	LTP324	ltpFR2	12	15	SPARROW	1347	n/a	n/a	0	0	0
3861.402	n/a	WORD	1930701	wordpools/wasnorm_wordpool_576.txt	LTP324	ltpFR2	12	15	SPOUSE	1358	n/a	n/a	0	0	0
3864.024	n/a	WORD	1932012	wordpools/wasnorm_wordpool_576.txt	LTP324	ltpFR2	12	15	TEACHER	1440	n/a	n/a	0	0	0
3866.738	n/a	WORD	1933369	wordpools/wasnorm_wordpool_576.txt	LTP324	ltpFR2	12	15	POISON	1096	n/a	n/a	0	0	0
3869.174	n/a	WORD	1934587	wordpools/wasnorm_wordpool_576.txt	LTP324	ltpFR2	12	15	GRAVE	658	n/a	n/a	0	0	0
3871.942	n/a	WORD	1935971	wordpools/wasnorm_wordpool_576.txt	LTP324	ltpFR2	12	15	GALLON	618	n/a	n/a	0	0	0
3874.594	n/a	WORD	1937297	wordpools/wasnorm_wordpool_576.txt	LTP324	ltpFR2	12	15	DENTIST	447	n/a	n/a	0	0	0
3877.196	n/a	WORD	1938598	wordpools/wasnorm_wordpool_576.txt	LTP324	ltpFR2	12	15	PATIENT	1024	n/a	n/a	0	0	0
3879.748	n/a	WORD	1939874	wordpools/wasnorm_wordpool_576.txt	LTP324	ltpFR2	12	15	SCARF	1246	n/a	n/a	0	0	0
3882.402	n/a	WORD	1941201	wordpools/wasnorm_wordpool_576.txt	LTP324	ltpFR2	12	15	ZIPPER	1636	n/a	n/a	0	0	0
3885.018	n/a	WORD	1942509	wordpools/wasnorm_wordpool_576.txt	LTP324	ltpFR2	12	15	LIGHTNING	820	n/a	n/a	0	0	0
3887.788	n/a	WORD	1943894	wordpools/wasnorm_wordpool_576.txt	LTP324	ltpFR2	12	15	SILK	1307	n/a	n/a	0	0	0
3890.424	n/a	WORD	1945212	wordpools/wasnorm_wordpool_576.txt	LTP324	ltpFR2	12	15	PLAID	1080	n/a	n/a	0	0	0
3893.042	n/a	WORD	1946521	wordpools/wasnorm_wordpool_576.txt	LTP324	ltpFR2	12	15	MAILMAN	858	n/a	n/a	0	0	0
3894.65	n/a	START	1947325	n/a	LTP324	ltpFR2	12	n/a	n/a	n/a	24	n/a	n/a	n/a	n/a
3895.732	n/a	DISTRACTOR	1947866	n/a	LTP324	ltpFR2	12	15	n/a	n/a	n/a	n/a	0	0	0
3895.744	n/a	PROB	1947872	n/a	LTP324	ltpFR2	12	n/a	n/a	n/a	24	25	7	9	9
3897.396	n/a	PROB	1948698	n/a	LTP324	ltpFR2	12	n/a	n/a	n/a	24	15	8	2	5
3898.88	n/a	PROB	1949440	n/a	LTP324	ltpFR2	12	n/a	n/a	n/a	24	16	4	6	6
3900.13	n/a	PROB	1950065	n/a	LTP324	ltpFR2	12	n/a	n/a	n/a	24	17	7	5	5
3901.216	n/a	PROB	1950608	n/a	LTP324	ltpFR2	12	n/a	n/a	n/a	24	17	6	5	6
3903.05	n/a	PROB	1951525	n/a	LTP324	ltpFR2	12	n/a	n/a	n/a	24	10	1	6	3
3904.452	n/a	PROB	1952226	n/a	LTP324	ltpFR2	12	n/a	n/a	n/a	24	7	1	4	2
3905.37	n/a	PROB	1952685	n/a	LTP324	ltpFR2	12	n/a	n/a	n/a	24	10	2	1	7
3906.154	n/a	PROB	1953077	n/a	LTP324	ltpFR2	12	n/a	n/a	n/a	24	17	9	6	2
3908.32	n/a	PROB	1954160	n/a	LTP324	ltpFR2	12	n/a	n/a	n/a	24	13	1	5	7
3909.254	n/a	PROB	1954627	n/a	LTP324	ltpFR2	12	n/a	n/a	n/a	24	18	4	5	9
3910.39	n/a	PROB	1955195	n/a	LTP324	ltpFR2	12	n/a	n/a	n/a	24	19	9	2	8
3911.604	n/a	PROB	1955802	n/a	LTP324	ltpFR2	12	n/a	n/a	n/a	24	19	7	9	3
3913.038	n/a	PROB	1956519	n/a	LTP324	ltpFR2	12	n/a	n/a	n/a	24	15	6	4	5
3914.692	n/a	PROB	1957346	n/a	LTP324	ltpFR2	12	n/a	n/a	n/a	24	13	2	3	8
3916.16	n/a	PROB	1958080	n/a	LTP324	ltpFR2	12	n/a	n/a	n/a	24	12	2	4	6
3918.19	n/a	STOP	1959095	n/a	LTP324	ltpFR2	12	n/a	n/a	n/a	24	n/a	n/a	n/a	n/a
3920.396	n/a	REC_START	1960198	n/a	LTP324	ltpFR2	12	15	n/a	n/a	n/a	n/a	0	0	0
3924.99	n/a	REC_WORD	1962495	wordpools/wasnorm_wordpool_576.txt	LTP324	ltpFR2	12	15	DENTIST	447	n/a	n/a	0	0	0
3926.192	n/a	REC_WORD	1963096	wordpools/wasnorm_wordpool_576.txt	LTP324	ltpFR2	12	15	PATIENT	1024	n/a	n/a	0	0	0
3927.698	n/a	REC_WORD	1963849	wordpools/wasnorm_wordpool_576.txt	LTP324	ltpFR2	12	15	SCARF	1246	n/a	n/a	0	0	0
3929.748	n/a	REC_WORD	1964874	wordpools/wasnorm_wordpool_576.txt	LTP324	ltpFR2	12	15	ZIPPER	1636	n/a	n/a	0	0	0
3931.122	n/a	REC_WORD	1965561	wordpools/wasnorm_wordpool_576.txt	LTP324	ltpFR2	12	15	SILK	1307	n/a	n/a	0	0	0
3932.33	n/a	REC_WORD	1966165	wordpools/wasnorm_wordpool_576.txt	LTP324	ltpFR2	12	15	LIGHTNING	820	n/a	n/a	0	0	0
3933.19	n/a	REC_WORD	1966595	wordpools/wasnorm_wordpool_576.txt	LTP324	ltpFR2	12	15	PLAID	1080	n/a	n/a	0	0	0
3934.946	n/a	REC_WORD	1967473	wordpools/wasnorm_wordpool_576.txt	LTP324	ltpFR2	12	15	MAILMAN	858	n/a	n/a	0	0	0
3935.946	n/a	REC_WORD_VV	1967973	wordpools/wasnorm_wordpool_576.txt	LTP324	ltpFR2	12	15	<>	-1	n/a	n/a	0	0	0
4085.69	n/a	WORD	2042845	wordpools/wasnorm_wordpool_576.txt	LTP324	ltpFR2	12	16	FRIEND	606	n/a	n/a	0	0	0
4088.346	n/a	WORD	2044173	wordpools/wasnorm_wordpool_576.txt	LTP324	ltpFR2	12	16	BLUEPRINT	142	n/a	n/a	0	0	0
4090.982	n/a	WORD	2045491	wordpools/wasnorm_wordpool_576.txt	LTP324	ltpFR2	12	16	WRENCH	1625	n/a	n/a	0	0	0
4093.782	n/a	WORD	2046891	wordpools/wasnorm_wordpool_576.txt	LTP324	ltpFR2	12	16	OZONE	996	n/a	n/a	0	0	0
4096.334	n/a	WORD	2048167	wordpools/wasnorm_wordpool_576.txt	LTP324	ltpFR2	12	16	ANKLE	24	n/a	n/a	0	0	0
4098.94	n/a	WORD	2049470	wordpools/wasnorm_wordpool_576.txt	LTP324	ltpFR2	12	16	POLICE	1098	n/a	n/a	0	0	0
4101.674	n/a	WORD	2050837	wordpools/wasnorm_wordpool_576.txt	LTP324	ltpFR2	12	16	DUSTPAN	509	n/a	n/a	0	0	0
4104.24	n/a	WORD	2052120	wordpools/wasnorm_wordpool_576.txt	LTP324	ltpFR2	12	16	TORTOISE	1486	n/a	n/a	0	0	0
4106.728	n/a	WORD	2053364	wordpools/wasnorm_wordpool_576.txt	LTP324	ltpFR2	12	16	WARDROBE	1587	n/a	n/a	0	0	0
4109.278	n/a	WORD	2054639	wordpools/wasnorm_wordpool_576.txt	LTP324	ltpFR2	12	16	GARLIC	624	n/a	n/a	0	0	0
4111.78	n/a	WORD	2055890	wordpools/wasnorm_wordpool_576.txt	LTP324	ltpFR2	12	16	PARTNER	1017	n/a	n/a	0	0	0
4114.534	n/a	WORD	2057267	wordpools/wasnorm_wordpool_576.txt	LTP324	ltpFR2	12	16	STUDENT	1395	n/a	n/a	0	0	0
4117.032	n/a	WORD	2058516	wordpools/wasnorm_wordpool_576.txt	LTP324	ltpFR2	12	16	SCRIBBLE	1256	n/a	n/a	0	0	0
4119.502	n/a	WORD	2059751	wordpools/wasnorm_wordpool_576.txt	LTP324	ltpFR2	12	16	SKETCH	1315	n/a	n/a	0	0	0
4122.17	n/a	WORD	2061085	wordpools/wasnorm_wordpool_576.txt	LTP324	ltpFR2	12	16	CHAMPAGNE	278	n/a	n/a	0	0	0
4124.694	n/a	WORD	2062347	wordpools/wasnorm_wordpool_576.txt	LTP324	ltpFR2	12	16	BARLEY	88	n/a	n/a	0	0	0
4127.442	n/a	WORD	2063721	wordpools/wasnorm_wordpool_576.txt	LTP324	ltpFR2	12	16	MACHINE	852	n/a	n/a	0	0	0
4130.226	n/a	WORD	2065113	wordpools/wasnorm_wordpool_576.txt	LTP324	ltpFR2	12	16	COBRA	336	n/a	n/a	0	0	0
4132.834	n/a	WORD	2066417	wordpools/wasnorm_wordpool_576.txt	LTP324	ltpFR2	12	16	RATTLE	1170	n/a	n/a	0	0	0
4135.398	n/a	WORD	2067699	wordpools/wasnorm_wordpool_576.txt	LTP324	ltpFR2	12	16	GRAVEL	659	n/a	n/a	0	0	0
4137.872	n/a	WORD	2068936	wordpools/wasnorm_wordpool_576.txt	LTP324	ltpFR2	12	16	PERFUME	1049	n/a	n/a	0	0	0
4140.352	n/a	WORD	2070176	wordpools/wasnorm_wordpool_576.txt	LTP324	ltpFR2	12	16	KLEENEX	782	n/a	n/a	0	0	0
4142.842	n/a	WORD	2071421	wordpools/wasnorm_wordpool_576.txt	LTP324	ltpFR2	12	16	HIGHWAY	707	n/a	n/a	0	0	0
4145.424	n/a	WORD	2072712	wordpools/wasnorm_wordpool_576.txt	LTP324	ltpFR2	12	16	OFFICE	972	n/a	n/a	0	0	0
4147.032	n/a	START	2073516	n/a	LTP324	ltpFR2	12	n/a	n/a	n/a	25	n/a	n/a	n/a	n/a
4147.93	n/a	DISTRACTOR	2073965	n/a	LTP324	ltpFR2	12	16	n/a	n/a	n/a	n/a	0	0	0
4147.94	n/a	PROB	2073970	n/a	LTP324	ltpFR2	12	n/a	n/a	n/a	25	4	2	1	1
4149.04	n/a	PROB	2074520	n/a	LTP324	ltpFR2	12	n/a	n/a	n/a	25	12	4	1	7
4150.11	n/a	PROB	2075055	n/a	LTP324	ltpFR2	12	n/a	n/a	n/a	25	11	7	3	1
4151.16	n/a	PROB	2075580	n/a	LTP324	ltpFR2	12	n/a	n/a	n/a	25	16	8	2	6
4152.994	n/a	PROB	2076497	n/a	LTP324	ltpFR2	12	n/a	n/a	n/a	25	6	3	1	2
4153.944	n/a	PROB	2076972	n/a	LTP324	ltpFR2	12	n/a	n/a	n/a	25	17	7	7	3
4155.348	n/a	PROB	2077674	n/a	LTP324	ltpFR2	12	n/a	n/a	n/a	25	21	9	4	8
4156.948	n/a	PROB	2078474	n/a	LTP324	ltpFR2	12	n/a	n/a	n/a	25	11	1	6	4
4157.898	n/a	PROB	2078949	n/a	LTP324	ltpFR2	12	n/a	n/a	n/a	25	11	1	2	8
4158.914	n/a	PROB	2079457	n/a	LTP324	ltpFR2	12	n/a	n/a	n/a	25	6	1	4	1
4159.684	n/a	PROB	2079842	n/a	LTP324	ltpFR2	12	n/a	n/a	n/a	25	20	5	6	9
4160.666	n/a	PROB	2080333	n/a	LTP324	ltpFR2	12	n/a	n/a	n/a	25	11	3	3	5
4161.516	n/a	PROB	2080758	n/a	LTP324	ltpFR2	12	n/a	n/a	n/a	25	21	9	4	8
4162.902	n/a	PROB	2081451	n/a	LTP324	ltpFR2	12	n/a	n/a	n/a	25	17	1	7	9
4163.934	n/a	PROB	2081967	n/a	LTP324	ltpFR2	12	n/a	n/a	n/a	25	15	6	1	8
4164.818	n/a	PROB	2082409	n/a	LTP324	ltpFR2	12	n/a	n/a	n/a	25	7	2	3	2
4166.088	n/a	PROB	2083044	n/a	LTP324	ltpFR2	12	n/a	n/a	n/a	25	20	8	8	4
4167.54	n/a	PROB	2083770	n/a	LTP324	ltpFR2	12	n/a	n/a	n/a	25	23	9	9	5
4168.906	n/a	PROB	2084453	n/a	LTP324	ltpFR2	12	n/a	n/a	n/a	25	15	5	3	7
4169.922	n/a	STOP	2084961	n/a	LTP324	ltpFR2	12	n/a	n/a	n/a	25	n/a	n/a	n/a	n/a
4172.776	n/a	REC_START	2086388	n/a	LTP324	ltpFR2	12	16	n/a	n/a	n/a	n/a	0	0	0
4173.906	n/a	REC_WORD	2086953	wordpools/wasnorm_wordpool_576.txt	LTP324	ltpFR2	12	16	PEBBLE	1035	n/a	n/a	0	0	0
4174.494	n/a	REC_WORD	2087247	wordpools/wasnorm_wordpool_576.txt	LTP324	ltpFR2	12	16	COBRA	336	n/a	n/a	0	0	0
4175.196	n/a	REC_WORD	2087598	wordpools/wasnorm_wordpool_576.txt	LTP324	ltpFR2	12	16	RATTLE	1170	n/a	n/a	0	0	0
4176.564	n/a	REC_WORD	2088282	wordpools/wasnorm_wordpool_576.txt	LTP324	ltpFR2	12	16	GRAVEL	659	n/a	n/a	0	0	0
4177.124	n/a	REC_WORD	2088562	wordpools/wasnorm_wordpool_576.txt	LTP324	ltpFR2	12	16	PERFUME	1049	n/a	n/a	0	0	0
4187.852	n/a	REC_WORD	2093926	wordpools/wasnorm_wordpool_576.txt	LTP324	ltpFR2	12	16	CHAMPAGNE	278	n/a	n/a	0	0	0
4188.728	n/a	REC_WORD	2094364	wordpools/wasnorm_wordpool_576.txt	LTP324	ltpFR2	12	16	SKETCH	1315	n/a	n/a	0	0	0
4189.592	n/a	REC_WORD	2094796	wordpools/wasnorm_wordpool_576.txt	LTP324	ltpFR2	12	16	BARLEY	88	n/a	n/a	0	0	0
4249.318	n/a	REST_REWET	2124659	n/a	LTP324	ltpFR2	12	16	n/a	n/a	n/a	n/a	0	0	0
4693.648	n/a	DISTRACTOR	2346824	n/a	LTP324	ltpFR2	12	17	n/a	n/a	n/a	n/a	0	0	0
4693.648	n/a	START	2346824	n/a	LTP324	ltpFR2	12	n/a	n/a	n/a	26	n/a	n/a	n/a	n/a
4693.666	n/a	PROB	2346833	n/a	LTP324	ltpFR2	12	n/a	n/a	n/a	26	15	9	3	3
4695.182	n/a	PROB	2347591	n/a	LTP324	ltpFR2	12	n/a	n/a	n/a	26	15	3	4	8
4696.45	n/a	PROB	2348225	n/a	LTP324	ltpFR2	12	n/a	n/a	n/a	26	17	8	8	1
4697.766	n/a	PROB	2348883	n/a	LTP324	ltpFR2	12	n/a	n/a	n/a	26	17	9	3	5
4698.884	n/a	PROB	2349442	n/a	LTP324	ltpFR2	12	n/a	n/a	n/a	26	23	5	9	9
4700.586	n/a	PROB	2350293	n/a	LTP324	ltpFR2	12	n/a	n/a	n/a	26	13	5	2	6
4702.356	n/a	PROB	2351178	n/a	LTP324	ltpFR2	12	n/a	n/a	n/a	26	14	4	3	7
4703.838	n/a	PROB	2351919	n/a	LTP324	ltpFR2	12	n/a	n/a	n/a	26	22	6	8	8
4705.106	n/a	PROB	2352553	n/a	LTP324	ltpFR2	12	n/a	n/a	n/a	26	20	6	9	5
4707.758	n/a	PROB	2353879	n/a	LTP324	ltpFR2	12	n/a	n/a	n/a	26	19	6	9	4
4709.626	n/a	PROB	2354813	n/a	LTP324	ltpFR2	12	n/a	n/a	n/a	26	18	6	5	7
4711.246	n/a	PROB	2355623	n/a	LTP324	ltpFR2	12	n/a	n/a	n/a	26	6	1	3	2
4712.028	n/a	PROB	2356014	n/a	LTP324	ltpFR2	12	n/a	n/a	n/a	26	10	5	2	3
4712.962	n/a	PROB	2356481	n/a	LTP324	ltpFR2	12	n/a	n/a	n/a	26	17	6	8	3
4714.08	n/a	PROB	2357040	n/a	LTP324	ltpFR2	12	n/a	n/a	n/a	26	9	2	6	1
4714.964	n/a	PROB	2357482	n/a	LTP324	ltpFR2	12	n/a	n/a	n/a	26	11	8	2	1
4716.164	n/a	STOP	2358082	n/a	LTP324	ltpFR2	12	n/a	n/a	n/a	26	n/a	n/a	n/a	n/a
4718.714	n/a	WORD	2359357	wordpools/wasnorm_wordpool_576.txt	LTP324	ltpFR2	12	17	PIANO	1057	n/a	n/a	0	0	0
4721.236	n/a	WORD	2360618	wordpools/wasnorm_wordpool_576.txt	LTP324	ltpFR2	12	17	ROOSTER	1209	n/a	n/a	0	0	0
4723.836	n/a	WORD	2361918	wordpools/wasnorm_wordpool_576.txt	LTP324	ltpFR2	12	17	SNAKE	1333	n/a	n/a	0	0	0
4726.422	n/a	WORD	2363211	wordpools/wasnorm_wordpool_576.txt	LTP324	ltpFR2	12	17	CHAPEL	280	n/a	n/a	0	0	0
4729.124	n/a	WORD	2364562	wordpools/wasnorm_wordpool_576.txt	LTP324	ltpFR2	12	17	CHURCH	307	n/a	n/a	0	0	0
4731.726	n/a	WORD	2365863	wordpools/wasnorm_wordpool_576.txt	LTP324	ltpFR2	12	17	MARSH	874	n/a	n/a	0	0	0
4734.38	n/a	WORD	2367190	wordpools/wasnorm_wordpool_576.txt	LTP324	ltpFR2	12	17	COIN	343	n/a	n/a	0	0	0
4737.014	n/a	WORD	2368507	wordpools/wasnorm_wordpool_576.txt	LTP324	ltpFR2	12	17	GIRL	637	n/a	n/a	0	0	0
4739.764	n/a	WORD	2369882	wordpools/wasnorm_wordpool_576.txt	LTP324	ltpFR2	12	17	FLEET	578	n/a	n/a	0	0	0
4742.352	n/a	WORD	2371176	wordpools/wasnorm_wordpool_576.txt	LTP324	ltpFR2	12	17	MILDEW	893	n/a	n/a	0	0	0
4744.986	n/a	WORD	2372493	wordpools/wasnorm_wordpool_576.txt	LTP324	ltpFR2	12	17	CONVICT	371	n/a	n/a	0	0	0
4747.572	n/a	WORD	2373786	wordpools/wasnorm_wordpool_576.txt	LTP324	ltpFR2	12	17	SWITCH	1422	n/a	n/a	0	0	0
4750.31	n/a	WORD	2375155	wordpools/wasnorm_wordpool_576.txt	LTP324	ltpFR2	12	17	TUTU	1524	n/a	n/a	0	0	0
4753.042	n/a	WORD	2376521	wordpools/wasnorm_wordpool_576.txt	LTP324	ltpFR2	12	17	CHEMIST	292	n/a	n/a	0	0	0
4755.594	n/a	WORD	2377797	wordpools/wasnorm_wordpool_576.txt	LTP324	ltpFR2	12	17	BUG	187	n/a	n/a	0	0	0
4758.398	n/a	WORD	2379199	wordpools/wasnorm_wordpool_576.txt	LTP324	ltpFR2	12	17	COUNTY	389	n/a	n/a	0	0	0
4761.05	n/a	WORD	2380525	wordpools/wasnorm_wordpool_576.txt	LTP324	ltpFR2	12	17	COUNTRY	388	n/a	n/a	0	0	0
4763.752	n/a	WORD	2381876	wordpools/wasnorm_wordpool_576.txt	LTP324	ltpFR2	12	17	CANAL	226	n/a	n/a	0	0	0
4766.188	n/a	WORD	2383094	wordpools/wasnorm_wordpool_576.txt	LTP324	ltpFR2	12	17	TRIBE	1505	n/a	n/a	0	0	0
4768.906	n/a	WORD	2384453	wordpools/wasnorm_wordpool_576.txt	LTP324	ltpFR2	12	17	MEAT	883	n/a	n/a	0	0	0
4771.41	n/a	WORD	2385705	wordpools/wasnorm_wordpool_576.txt	LTP324	ltpFR2	12	17	STAKE	1368	n/a	n/a	0	0	0
4774.11	n/a	WORD	2387055	wordpools/wasnorm_wordpool_576.txt	LTP324	ltpFR2	12	17	KNAPSACK	783	n/a	n/a	0	0	0
4776.63	n/a	WORD	2388315	wordpools/wasnorm_wordpool_576.txt	LTP324	ltpFR2	12	17	EGYPT	519	n/a	n/a	0	0	0
4779.316	n/a	WORD	2389658	wordpools/wasnorm_wordpool_576.txt	LTP324	ltpFR2	12	17	FUNGUS	614	n/a	n/a	0	0	0
4780.934	n/a	START	2390467	n/a	LTP324	ltpFR2	12	n/a	n/a	n/a	27	n/a	n/a	n/a	n/a
4781.986	n/a	DISTRACTOR	2390993	n/a	LTP324	ltpFR2	12	17	n/a	n/a	n/a	n/a	0	0	0
4782.0	n/a	PROB	2391000	n/a	LTP324	ltpFR2	12	n/a	n/a	n/a	27	10	5	3	2
4783.15	n/a	PROB	2391575	n/a	LTP324	ltpFR2	12	n/a	n/a	n/a	27	18	8	7	3
4784.186	n/a	PROB	2392093	n/a	LTP324	ltpFR2	12	n/a	n/a	n/a	27	22	5	9	8
4786.218	n/a	PROB	2393109	n/a	LTP324	ltpFR2	12	n/a	n/a	n/a	27	16	6	8	2
4787.456	n/a	PROB	2393728	n/a	LTP324	ltpFR2	12	n/a	n/a	n/a	27	2	7	9	7
4788.656	n/a	PROB	2394328	n/a	LTP324	ltpFR2	12	n/a	n/a	n/a	27	13	5	6	2
4789.704	n/a	PROB	2394852	n/a	LTP324	ltpFR2	12	n/a	n/a	n/a	27	20	4	8	8
