mstime	trial_type	stim_file	subject	experiment	session	trial	task	item_name	item_num	recog_resp	recog_conf	resp	color_r	color_g	color_b	case	font
0	SESS_START	n/a	LTP145	ltpFR	19	n/a	n/a	n/a	n/a	0	1	n/a	n/a	n/a	n/a	n/a	n/a
38516	WORD	wordpools/wasnorm_wordpool.txt	LTP145	ltpFR	19	1	1	CHILD	299	0	n/a	1	0.422607421875	0.5869140625	0	upper	amplitud.ttf
42636	WORD	wordpools/wasnorm_wordpool.txt	LTP145	ltpFR	19	1	1	COOK	372	n/a	n/a	1	0.422607421875	0.5869140625	0	upper	amplitud.ttf
46723	WORD	wordpools/wasnorm_wordpool.txt	LTP145	ltpFR	19	1	1	ROBOT	1200	n/a	n/a	1	0.422607421875	0.5869140625	0	upper	amplitud.ttf
50918	WORD	wordpools/wasnorm_wordpool.txt	LTP145	ltpFR	19	1	1	HOOD	714	n/a	n/a	0	0.422607421875	0.5869140625	0	upper	amplitud.ttf
54947	WORD	wordpools/wasnorm_wordpool.txt	LTP145	ltpFR	19	1	0	BUGGY	188	n/a	n/a	1	0.57763671875	0.412841796875	1	lower	zerothre.ttf
59034	WORD	wordpools/wasnorm_wordpool.txt	LTP145	ltpFR	19	1	0	CACTUS	215	n/a	n/a	1	0.57763671875	0.412841796875	1	lower	zerothre.ttf
62947	WORD	wordpools/wasnorm_wordpool.txt	LTP145	ltpFR	19	1	0	MICROWAVE	892	n/a	n/a	1	0.57763671875	0.412841796875	1	lower	zerothre.ttf
66833	WORD	wordpools/wasnorm_wordpool.txt	LTP145	ltpFR	19	1	0	DISC	473	n/a	n/a	0	0.57763671875	0.412841796875	1	lower	zerothre.ttf
70745	WORD	wordpools/wasnorm_wordpool.txt	LTP145	ltpFR	19	1	0	LANDSCAPE	799	n/a	n/a	1	0.57763671875	0.412841796875	1	lower	zerothre.ttf
74565	WORD	wordpools/wasnorm_wordpool.txt	LTP145	ltpFR	19	1	1	VINE	1568	n/a	n/a	0	0.422607421875	0.5869140625	0	upper	amplitud.ttf
78744	WORD	wordpools/wasnorm_wordpool.txt	LTP145	ltpFR	19	1	1	SEED	1266	n/a	n/a	0	0.422607421875	0.5869140625	0	upper	amplitud.ttf
82606	WORD	wordpools/wasnorm_wordpool.txt	LTP145	ltpFR	19	1	1	RATTLE	1170	n/a	n/a	0	0.422607421875	0.5869140625	0	upper	amplitud.ttf
86560	WORD	wordpools/wasnorm_wordpool.txt	LTP145	ltpFR	19	1	1	PUPPY	1144	n/a	n/a	1	0.422607421875	0.5869140625	0	upper	amplitud.ttf
90614	WORD	wordpools/wasnorm_wordpool.txt	LTP145	ltpFR	19	1	0	CONVICT	371	n/a	n/a	1	0.57763671875	0.412841796875	1	lower	zerothre.ttf
94717	WORD	wordpools/wasnorm_wordpool.txt	LTP145	ltpFR	19	1	0	DUNGEON	507	n/a	n/a	1	0.57763671875	0.412841796875	1	lower	zerothre.ttf
98829	WORD	wordpools/wasnorm_wordpool.txt	LTP145	ltpFR	19	1	0	THERMOMETER	1453	n/a	n/a	0	0.57763671875	0.412841796875	1	lower	zerothre.ttf
104565	REC_START	n/a	LTP145	ltpFR	19	1	n/a	n/a	n/a	n/a	n/a	n/a	n/a	n/a	n/a	n/a	n/a
105662	REC_WORD	wordpools/wasnorm_wordpool.txt	LTP145	ltpFR	19	1	0	THERMOMETER	1453	n/a	n/a	0	n/a	n/a	n/a	n/a	n/a
106900	REC_WORD	wordpools/wasnorm_wordpool.txt	LTP145	ltpFR	19	1	0	DUNGEON	507	n/a	n/a	1	n/a	n/a	n/a	n/a	n/a
107842	REC_WORD	wordpools/wasnorm_wordpool.txt	LTP145	ltpFR	19	1	0	CONVICT	371	n/a	n/a	1	n/a	n/a	n/a	n/a	n/a
109169	REC_WORD	wordpools/wasnorm_wordpool.txt	LTP145	ltpFR	19	1	0	MICROWAVE	892	n/a	n/a	1	n/a	n/a	n/a	n/a	n/a
110169	REC_WORD_VV	wordpools/wasnorm_wordpool.txt	LTP145	ltpFR	19	1	n/a	<>	-1	n/a	n/a	n/a	n/a	n/a	n/a	n/a	n/a
111389	REC_WORD	wordpools/wasnorm_wordpool.txt	LTP145	ltpFR	19	1	0	LANDSCAPE	799	n/a	n/a	1	n/a	n/a	n/a	n/a	n/a
112389	REC_WORD_VV	wordpools/wasnorm_wordpool.txt	LTP145	ltpFR	19	1	n/a	<>	-1	n/a	n/a	n/a	n/a	n/a	n/a	n/a	n/a
113325	REC_WORD	wordpools/wasnorm_wordpool.txt	LTP145	ltpFR	19	1	1	ROBOT	1200	n/a	n/a	1	n/a	n/a	n/a	n/a	n/a
114452	REC_WORD	wordpools/wasnorm_wordpool.txt	LTP145	ltpFR	19	1	1	COOK	372	n/a	n/a	1	n/a	n/a	n/a	n/a	n/a
116488	REC_WORD	wordpools/wasnorm_wordpool.txt	LTP145	ltpFR	19	1	1	HOOD	714	n/a	n/a	0	n/a	n/a	n/a	n/a	n/a
118179	REC_WORD	wordpools/wasnorm_wordpool.txt	LTP145	ltpFR	19	1	1	CHILD	299	n/a	n/a	1	n/a	n/a	n/a	n/a	n/a
127776	REC_WORD	wordpools/wasnorm_wordpool.txt	LTP145	ltpFR	19	1	1	SEED	1266	n/a	n/a	0	n/a	n/a	n/a	n/a	n/a
128870	REC_WORD	wordpools/wasnorm_wordpool.txt	LTP145	ltpFR	19	1	0	CACTUS	215	n/a	n/a	1	n/a	n/a	n/a	n/a	n/a
177958	REC_WORD	wordpools/wasnorm_wordpool.txt	LTP145	ltpFR	19	1	0	DISC	473	n/a	n/a	0	n/a	n/a	n/a	n/a	n/a
185238	WORD	wordpools/wasnorm_wordpool.txt	LTP145	ltpFR	19	2	0	DILL	465	n/a	n/a	0	0.57763671875	0.412841796875	1	lower	zerothre.ttf
189125	WORD	wordpools/wasnorm_wordpool.txt	LTP145	ltpFR	19	2	0	SPIDER	1351	n/a	n/a	0	0.57763671875	0.412841796875	1	lower	zerothre.ttf
192954	WORD	wordpools/wasnorm_wordpool.txt	LTP145	ltpFR	19	2	1	CEREAL	272	n/a	n/a	0	0.422607421875	0.5869140625	0	upper	amplitud.ttf
196857	WORD	wordpools/wasnorm_wordpool.txt	LTP145	ltpFR	19	2	1	BRAN	167	n/a	n/a	0	0.422607421875	0.5869140625	0	upper	amplitud.ttf
200827	WORD	wordpools/wasnorm_wordpool.txt	LTP145	ltpFR	19	2	1	ICEBERG	731	n/a	n/a	0	0.422607421875	0.5869140625	0	upper	amplitud.ttf
204923	WORD	wordpools/wasnorm_wordpool.txt	LTP145	ltpFR	19	2	1	YOUTH	1634	n/a	n/a	1	0.422607421875	0.5869140625	0	upper	amplitud.ttf
208952	WORD	wordpools/wasnorm_wordpool.txt	LTP145	ltpFR	19	2	0	INFANT	737	n/a	n/a	0	0.57763671875	0.412841796875	1	lower	zerothre.ttf
212839	WORD	wordpools/wasnorm_wordpool.txt	LTP145	ltpFR	19	2	0	SCROLL	1257	n/a	n/a	0	0.57763671875	0.412841796875	1	lower	zerothre.ttf
216993	WORD	wordpools/wasnorm_wordpool.txt	LTP145	ltpFR	19	2	0	LIEUTENANT	818	n/a	n/a	1	0.57763671875	0.412841796875	1	lower	zerothre.ttf
220896	WORD	wordpools/wasnorm_wordpool.txt	LTP145	ltpFR	19	2	1	VETERAN	1561	n/a	n/a	1	0.422607421875	0.5869140625	0	upper	amplitud.ttf
224942	WORD	wordpools/wasnorm_wordpool.txt	LTP145	ltpFR	19	2	1	BUTTERFLY	206	n/a	n/a	1	0.422607421875	0.5869140625	0	upper	amplitud.ttf
228762	WORD	wordpools/wasnorm_wordpool.txt	LTP145	ltpFR	19	2	1	BOOK	149	n/a	n/a	0	0.422607421875	0.5869140625	0	upper	amplitud.ttf
232924	WORD	wordpools/wasnorm_wordpool.txt	LTP145	ltpFR	19	2	1	QUILL	1150	n/a	n/a	0	0.422607421875	0.5869140625	0	upper	amplitud.ttf
236945	WORD	wordpools/wasnorm_wordpool.txt	LTP145	ltpFR	19	2	0	GRAPE	654	n/a	n/a	0	0.57763671875	0.412841796875	1	lower	zerothre.ttf
241057	WORD	wordpools/wasnorm_wordpool.txt	LTP145	ltpFR	19	2	0	RIB	1188	n/a	n/a	0	0.57763671875	0.412841796875	1	lower	zerothre.ttf
244986	WORD	wordpools/wasnorm_wordpool.txt	LTP145	ltpFR	19	2	0	GAZELLE	628	n/a	n/a	1	0.57763671875	0.412841796875	1	lower	zerothre.ttf
250779	REC_START	n/a	LTP145	ltpFR	19	2	n/a	n/a	n/a	n/a	n/a	n/a	n/a	n/a	n/a	n/a	n/a
251976	REC_WORD	wordpools/wasnorm_wordpool.txt	LTP145	ltpFR	19	2	0	GAZELLE	628	n/a	n/a	1	n/a	n/a	n/a	n/a	n/a
253328	REC_WORD	wordpools/wasnorm_wordpool.txt	LTP145	ltpFR	19	2	0	RIB	1188	n/a	n/a	0	n/a	n/a	n/a	n/a	n/a
254260	REC_WORD	wordpools/wasnorm_wordpool.txt	LTP145	ltpFR	19	2	0	SPIDER	1351	n/a	n/a	0	n/a	n/a	n/a	n/a	n/a
257114	REC_WORD	wordpools/wasnorm_wordpool.txt	LTP145	ltpFR	19	2	n/a	FLY	586	n/a	n/a	n/a	n/a	n/a	n/a	n/a	n/a
260591	REC_WORD	wordpools/wasnorm_wordpool.txt	LTP145	ltpFR	19	2	1	BUTTERFLY	206	n/a	n/a	1	n/a	n/a	n/a	n/a	n/a
261591	REC_WORD_VV	wordpools/wasnorm_wordpool.txt	LTP145	ltpFR	19	2	n/a	<>	-1	n/a	n/a	n/a	n/a	n/a	n/a	n/a	n/a
264882	REC_WORD	wordpools/wasnorm_wordpool.txt	LTP145	ltpFR	19	2	0	INFANT	737	n/a	n/a	0	n/a	n/a	n/a	n/a	n/a
265983	REC_WORD	wordpools/wasnorm_wordpool.txt	LTP145	ltpFR	19	2	0	SCROLL	1257	n/a	n/a	0	n/a	n/a	n/a	n/a	n/a
267131	REC_WORD	wordpools/wasnorm_wordpool.txt	LTP145	ltpFR	19	2	1	QUILL	1150	n/a	n/a	0	n/a	n/a	n/a	n/a	n/a
270194	REC_WORD	wordpools/wasnorm_wordpool.txt	LTP145	ltpFR	19	2	1	CEREAL	272	n/a	n/a	0	n/a	n/a	n/a	n/a	n/a
271167	REC_WORD	wordpools/wasnorm_wordpool.txt	LTP145	ltpFR	19	2	1	BRAN	167	n/a	n/a	0	n/a	n/a	n/a	n/a	n/a
275433	REC_WORD	wordpools/wasnorm_wordpool.txt	LTP145	ltpFR	19	2	1	YOUTH	1634	n/a	n/a	1	n/a	n/a	n/a	n/a	n/a
277413	REC_WORD	wordpools/wasnorm_wordpool.txt	LTP145	ltpFR	19	2	1	BOOK	149	n/a	n/a	0	n/a	n/a	n/a	n/a	n/a
299637	REC_WORD	wordpools/wasnorm_wordpool.txt	LTP145	ltpFR	19	2	0	DILL	465	n/a	n/a	0	n/a	n/a	n/a	n/a	n/a
324022	REC_WORD	wordpools/wasnorm_wordpool.txt	LTP145	ltpFR	19	2	0	LIEUTENANT	818	n/a	n/a	1	n/a	n/a	n/a	n/a	n/a
329363	WORD	wordpools/wasnorm_wordpool.txt	LTP145	ltpFR	19	3	1	JUPITER	765	n/a	n/a	0	0.422607421875	0.5869140625	0	upper	amplitud.ttf
333183	WORD	wordpools/wasnorm_wordpool.txt	LTP145	ltpFR	19	3	1	TWISTER	1530	n/a	n/a	0	0.422607421875	0.5869140625	0	upper	amplitud.ttf
337162	WORD	wordpools/wasnorm_wordpool.txt	LTP145	ltpFR	19	3	0	ROSE	1212	n/a	n/a	0	0.57763671875	0.412841796875	1	lower	zerothre.ttf
341000	WORD	wordpools/wasnorm_wordpool.txt	LTP145	ltpFR	19	3	0	BASKETBALL	96	n/a	n/a	0	0.57763671875	0.412841796875	1	lower	zerothre.ttf
344911	WORD	wordpools/wasnorm_wordpool.txt	LTP145	ltpFR	19	3	0	NICKEL	950	n/a	n/a	0	0.57763671875	0.412841796875	1	lower	zerothre.ttf
349098	WORD	wordpools/wasnorm_wordpool.txt	LTP145	ltpFR	19	3	1	QUARTER	1148	n/a	n/a	0	0.422607421875	0.5869140625	0	upper	amplitud.ttf
353052	WORD	wordpools/wasnorm_wordpool.txt	LTP145	ltpFR	19	3	1	TURKEY	1520	n/a	n/a	1	0.422607421875	0.5869140625	0	upper	amplitud.ttf
357197	WORD	wordpools/wasnorm_wordpool.txt	LTP145	ltpFR	19	3	1	BLOSSOM	138	n/a	n/a	0	0.422607421875	0.5869140625	0	upper	amplitud.ttf
361392	WORD	wordpools/wasnorm_wordpool.txt	LTP145	ltpFR	19	3	1	CATCHER	258	n/a	n/a	1	0.422607421875	0.5869140625	0	upper	amplitud.ttf
365528	WORD	wordpools/wasnorm_wordpool.txt	LTP145	ltpFR	19	3	0	HAMMER	680	n/a	n/a	0	0.57763671875	0.412841796875	1	lower	zerothre.ttf
369615	WORD	wordpools/wasnorm_wordpool.txt	LTP145	ltpFR	19	3	0	CANARY	227	n/a	n/a	0	0.57763671875	0.412841796875	1	lower	zerothre.ttf
373462	WORD	wordpools/wasnorm_wordpool.txt	LTP145	ltpFR	19	3	0	BREAST	171	n/a	n/a	0	0.57763671875	0.412841796875	1	lower	zerothre.ttf
377623	WORD	wordpools/wasnorm_wordpool.txt	LTP145	ltpFR	19	3	0	COWARD	394	n/a	n/a	1	0.57763671875	0.412841796875	1	lower	zerothre.ttf
381527	WORD	wordpools/wasnorm_wordpool.txt	LTP145	ltpFR	19	3	0	MOSS	918	n/a	n/a	0	0.57763671875	0.412841796875	1	lower	zerothre.ttf
385647	WORD	wordpools/wasnorm_wordpool.txt	LTP145	ltpFR	19	3	1	PALM	1007	n/a	n/a	0	0.422607421875	0.5869140625	0	upper	amplitud.ttf
389509	WORD	wordpools/wasnorm_wordpool.txt	LTP145	ltpFR	19	3	1	STUMP	1396	n/a	n/a	0	0.422607421875	0.5869140625	0	upper	amplitud.ttf
395412	REC_START	n/a	LTP145	ltpFR	19	3	n/a	n/a	n/a	n/a	n/a	n/a	n/a	n/a	n/a	n/a	n/a
396349	REC_WORD	wordpools/wasnorm_wordpool.txt	LTP145	ltpFR	19	3	1	STUMP	1396	n/a	n/a	0	n/a	n/a	n/a	n/a	n/a
397771	REC_WORD	wordpools/wasnorm_wordpool.txt	LTP145	ltpFR	19	3	1	PALM	1007	n/a	n/a	0	n/a	n/a	n/a	n/a	n/a
399477	REC_WORD	wordpools/wasnorm_wordpool.txt	LTP145	ltpFR	19	3	0	MOSS	918	n/a	n/a	0	n/a	n/a	n/a	n/a	n/a
402949	REC_WORD	wordpools/wasnorm_wordpool.txt	LTP145	ltpFR	19	3	0	BREAST	171	n/a	n/a	0	n/a	n/a	n/a	n/a	n/a
473911	WORD	wordpools/wasnorm_wordpool.txt	LTP145	ltpFR	19	4	0	BALLOT	76	n/a	n/a	0	0.57763671875	0.412841796875	1	lower	zerothre.ttf
477848	WORD	wordpools/wasnorm_wordpool.txt	LTP145	ltpFR	19	4	0	COLLEGE	346	n/a	n/a	1	0.57763671875	0.412841796875	1	lower	zerothre.ttf
481727	WORD	wordpools/wasnorm_wordpool.txt	LTP145	ltpFR	19	4	0	WORM	1623	n/a	n/a	0	0.57763671875	0.412841796875	1	lower	zerothre.ttf
485589	WORD	wordpools/wasnorm_wordpool.txt	LTP145	ltpFR	19	4	0	NUN	962	n/a	n/a	1	0.57763671875	0.412841796875	1	lower	zerothre.ttf
489676	WORD	wordpools/wasnorm_wordpool.txt	LTP145	ltpFR	19	4	1	LADY	794	n/a	n/a	1	0.422607421875	0.5869140625	0	upper	amplitud.ttf
493821	WORD	wordpools/wasnorm_wordpool.txt	LTP145	ltpFR	19	4	1	CHART	282	n/a	n/a	0	0.422607421875	0.5869140625	0	upper	amplitud.ttf
497993	WORD	wordpools/wasnorm_wordpool.txt	LTP145	ltpFR	19	4	1	MONASTERY	907	n/a	n/a	1	0.422607421875	0.5869140625	0	upper	amplitud.ttf
501938	WORD	wordpools/wasnorm_wordpool.txt	LTP145	ltpFR	19	4	1	DIPLOMA	470	n/a	n/a	0	0.422607421875	0.5869140625	0	upper	amplitud.ttf
505882	WORD	wordpools/wasnorm_wordpool.txt	LTP145	ltpFR	19	4	1	CAP	236	n/a	n/a	0	0.422607421875	0.5869140625	0	upper	amplitud.ttf
509886	WORD	wordpools/wasnorm_wordpool.txt	LTP145	ltpFR	19	4	1	PORTRAIT	1111	n/a	n/a	0	0.422607421875	0.5869140625	0	upper	amplitud.ttf
513923	WORD	wordpools/wasnorm_wordpool.txt	LTP145	ltpFR	19	4	0	BINDER	127	n/a	n/a	0	0.57763671875	0.412841796875	1	lower	zerothre.ttf
517969	WORD	wordpools/wasnorm_wordpool.txt	LTP145	ltpFR	19	4	0	STATUE	1374	n/a	n/a	1	0.57763671875	0.412841796875	1	lower	zerothre.ttf
522048	WORD	wordpools/wasnorm_wordpool.txt	LTP145	ltpFR	19	4	1	CLERK	321	n/a	n/a	1	0.422607421875	0.5869140625	0	upper	amplitud.ttf
526135	WORD	wordpools/wasnorm_wordpool.txt	LTP145	ltpFR	19	4	1	EMPLOYER	532	n/a	n/a	1	0.422607421875	0.5869140625	0	upper	amplitud.ttf
529972	WORD	wordpools/wasnorm_wordpool.txt	LTP145	ltpFR	19	4	0	BOULEVARD	156	n/a	n/a	1	0.57763671875	0.412841796875	1	lower	zerothre.ttf
534184	WORD	wordpools/wasnorm_wordpool.txt	LTP145	ltpFR	19	4	0	ALLEY	15	n/a	n/a	1	0.57763671875	0.412841796875	1	lower	zerothre.ttf
539885	REC_START	n/a	LTP145	ltpFR	19	4	n/a	n/a	n/a	n/a	n/a	n/a	n/a	n/a	n/a	n/a	n/a
541556	REC_WORD	wordpools/wasnorm_wordpool.txt	LTP145	ltpFR	19	4	0	BOULEVARD	156	n/a	n/a	1	n/a	n/a	n/a	n/a	n/a
542556	REC_WORD_VV	wordpools/wasnorm_wordpool.txt	LTP145	ltpFR	19	4	n/a	<>	-1	n/a	n/a	n/a	n/a	n/a	n/a	n/a	n/a
542778	REC_WORD	wordpools/wasnorm_wordpool.txt	LTP145	ltpFR	19	4	0	ALLEY	15	n/a	n/a	1	n/a	n/a	n/a	n/a	n/a
547956	REC_WORD	wordpools/wasnorm_wordpool.txt	LTP145	ltpFR	19	4	1	LADY	794	n/a	n/a	1	n/a	n/a	n/a	n/a	n/a
549438	REC_WORD	wordpools/wasnorm_wordpool.txt	LTP145	ltpFR	19	4	0	WORM	1623	n/a	n/a	0	n/a	n/a	n/a	n/a	n/a
550371	REC_WORD	wordpools/wasnorm_wordpool.txt	LTP145	ltpFR	19	4	1	PORTRAIT	1111	n/a	n/a	0	n/a	n/a	n/a	n/a	n/a
552167	REC_WORD	wordpools/wasnorm_wordpool.txt	LTP145	ltpFR	19	4	0	COLLEGE	346	n/a	n/a	1	n/a	n/a	n/a	n/a	n/a
553024	REC_WORD	wordpools/wasnorm_wordpool.txt	LTP145	ltpFR	19	4	1	DIPLOMA	470	n/a	n/a	0	n/a	n/a	n/a	n/a	n/a
554202	REC_WORD	wordpools/wasnorm_wordpool.txt	LTP145	ltpFR	19	4	0	BALLOT	76	n/a	n/a	0	n/a	n/a	n/a	n/a	n/a
559844	REC_WORD	wordpools/wasnorm_wordpool.txt	LTP145	ltpFR	19	4	1	CAP	236	n/a	n/a	0	n/a	n/a	n/a	n/a	n/a
562628	REC_WORD	wordpools/wasnorm_wordpool.txt	LTP145	ltpFR	19	4	0	BASKETBALL	96	n/a	n/a	0	n/a	n/a	n/a	n/a	n/a
572112	REC_WORD	wordpools/wasnorm_wordpool.txt	LTP145	ltpFR	19	4	1	EMPLOYER	532	n/a	n/a	1	n/a	n/a	n/a	n/a	n/a
573279	REC_WORD	wordpools/wasnorm_wordpool.txt	LTP145	ltpFR	19	4	1	CLERK	321	n/a	n/a	1	n/a	n/a	n/a	n/a	n/a
618461	WORD	wordpools/wasnorm_wordpool.txt	LTP145	ltpFR	19	5	1	POCKETBOOK	1094	n/a	n/a	0	0.422607421875	0.5869140625	0	upper	amplitud.ttf
622606	WORD	wordpools/wasnorm_wordpool.txt	LTP145	ltpFR	19	5	1	CHIPMUNK	304	n/a	n/a	1	0.422607421875	0.5869140625	0	upper	amplitud.ttf
626717	WORD	wordpools/wasnorm_wordpool.txt	LTP145	ltpFR	19	5	1	GANGSTER	620	n/a	n/a	1	0.422607421875	0.5869140625	0	upper	amplitud.ttf
630679	WORD	wordpools/wasnorm_wordpool.txt	LTP145	ltpFR	19	5	1	TOTE	1487	n/a	n/a	0	0.422607421875	0.5869140625	0	upper	amplitud.ttf
634875	WORD	wordpools/wasnorm_wordpool.txt	LTP145	ltpFR	19	5	1	CLOTHES	327	n/a	n/a	0	0.422607421875	0.5869140625	0	upper	amplitud.ttf
638837	WORD	wordpools/wasnorm_wordpool.txt	LTP145	ltpFR	19	5	1	VEST	1559	n/a	n/a	0	0.422607421875	0.5869140625	0	upper	amplitud.ttf
642699	WORD	wordpools/wasnorm_wordpool.txt	LTP145	ltpFR	19	5	1	LION	827	n/a	n/a	1	0.422607421875	0.5869140625	0	upper	amplitud.ttf
646877	WORD	wordpools/wasnorm_wordpool.txt	LTP145	ltpFR	19	5	1	KING	777	n/a	n/a	1	0.422607421875	0.5869140625	0	upper	amplitud.ttf
650781	WORD	wordpools/wasnorm_wordpool.txt	LTP145	ltpFR	19	5	1	PAWN	1030	n/a	n/a	0	0.422607421875	0.5869140625	0	upper	amplitud.ttf
654668	WORD	wordpools/wasnorm_wordpool.txt	LTP145	ltpFR	19	5	1	INMATE	738	n/a	n/a	1	0.422607421875	0.5869140625	0	upper	amplitud.ttf
658789	WORD	wordpools/wasnorm_wordpool.txt	LTP145	ltpFR	19	5	1	CROOK	412	n/a	n/a	1	0.422607421875	0.5869140625	0	upper	amplitud.ttf
662884	WORD	wordpools/wasnorm_wordpool.txt	LTP145	ltpFR	19	5	1	TOE	1473	n/a	n/a	0	0.422607421875	0.5869140625	0	upper	amplitud.ttf
666997	WORD	wordpools/wasnorm_wordpool.txt	LTP145	ltpFR	19	5	1	OATS	968	n/a	n/a	0	0.422607421875	0.5869140625	0	upper	amplitud.ttf
671092	WORD	wordpools/wasnorm_wordpool.txt	LTP145	ltpFR	19	5	1	MEADOW	881	n/a	n/a	0	0.422607421875	0.5869140625	0	upper	amplitud.ttf
675204	WORD	wordpools/wasnorm_wordpool.txt	LTP145	ltpFR	19	5	1	MOWER	928	n/a	n/a	0	0.422607421875	0.5869140625	0	upper	amplitud.ttf
679091	WORD	wordpools/wasnorm_wordpool.txt	LTP145	ltpFR	19	5	1	PALACE	1006	n/a	n/a	1	0.422607421875	0.5869140625	0	upper	amplitud.ttf
685068	REC_START	n/a	LTP145	ltpFR	19	5	n/a	n/a	n/a	n/a	n/a	n/a	n/a	n/a	n/a	n/a	n/a
687078	REC_WORD	wordpools/wasnorm_wordpool.txt	LTP145	ltpFR	19	5	1	PALACE	1006	n/a	n/a	1	n/a	n/a	n/a	n/a	n/a
688121	REC_WORD	wordpools/wasnorm_wordpool.txt	LTP145	ltpFR	19	5	1	KING	777	n/a	n/a	1	n/a	n/a	n/a	n/a	n/a
689079	REC_WORD	wordpools/wasnorm_wordpool.txt	LTP145	ltpFR	19	5	1	MOWER	928	n/a	n/a	0	n/a	n/a	n/a	n/a	n/a
690084	REC_WORD	wordpools/wasnorm_wordpool.txt	LTP145	ltpFR	19	5	n/a	PRAIRIE	1118	n/a	n/a	n/a	n/a	n/a	n/a	n/a	n/a
691084	REC_WORD_VV	wordpools/wasnorm_wordpool.txt	LTP145	ltpFR	19	5	n/a	<>	-1	n/a	n/a	n/a	n/a	n/a	n/a	n/a	n/a
691778	REC_WORD	wordpools/wasnorm_wordpool.txt	LTP145	ltpFR	19	5	1	PAWN	1030	n/a	n/a	0	n/a	n/a	n/a	n/a	n/a
693339	REC_WORD	wordpools/wasnorm_wordpool.txt	LTP145	ltpFR	19	5	1	TOE	1473	n/a	n/a	0	n/a	n/a	n/a	n/a	n/a
694661	REC_WORD	wordpools/wasnorm_wordpool.txt	LTP145	ltpFR	19	5	1	CROOK	412	n/a	n/a	1	n/a	n/a	n/a	n/a	n/a
696527	REC_WORD	wordpools/wasnorm_wordpool.txt	LTP145	ltpFR	19	5	1	INMATE	738	n/a	n/a	1	n/a	n/a	n/a	n/a	n/a
697527	REC_WORD_VV	wordpools/wasnorm_wordpool.txt	LTP145	ltpFR	19	5	n/a	<>	-1	n/a	n/a	n/a	n/a	n/a	n/a	n/a	n/a
701211	REC_WORD	wordpools/wasnorm_wordpool.txt	LTP145	ltpFR	19	5	1	VEST	1559	n/a	n/a	0	n/a	n/a	n/a	n/a	n/a
702214	REC_WORD	wordpools/wasnorm_wordpool.txt	LTP145	ltpFR	19	5	1	CLOTHES	327	n/a	n/a	0	n/a	n/a	n/a	n/a	n/a
703214	REC_WORD_VV	wordpools/wasnorm_wordpool.txt	LTP145	ltpFR	19	5	n/a	<>	-1	n/a	n/a	n/a	n/a	n/a	n/a	n/a	n/a
763984	WORD	wordpools/wasnorm_wordpool.txt	LTP145	ltpFR	19	6	0	SLEEVE	1324	n/a	n/a	0	0.57763671875	0.412841796875	1	lower	zerothre.ttf
768155	WORD	wordpools/wasnorm_wordpool.txt	LTP145	ltpFR	19	6	0	GARAGE	621	n/a	n/a	1	0.57763671875	0.412841796875	1	lower	zerothre.ttf
772217	WORD	wordpools/wasnorm_wordpool.txt	LTP145	ltpFR	19	6	0	CONSOLE	364	n/a	n/a	1	0.57763671875	0.412841796875	1	lower	zerothre.ttf
776262	WORD	wordpools/wasnorm_wordpool.txt	LTP145	ltpFR	19	6	0	SUBWAY	1400	n/a	n/a	1	0.57763671875	0.412841796875	1	lower	zerothre.ttf
780099	WORD	wordpools/wasnorm_wordpool.txt	LTP145	ltpFR	19	6	0	LUNCH	849	n/a	n/a	0	0.57763671875	0.412841796875	1	lower	zerothre.ttf
784211	WORD	wordpools/wasnorm_wordpool.txt	LTP145	ltpFR	19	6	0	NEST	945	n/a	n/a	0	0.57763671875	0.412841796875	1	lower	zerothre.ttf
788348	WORD	wordpools/wasnorm_wordpool.txt	LTP145	ltpFR	19	6	0	PADDLE	1000	n/a	n/a	0	0.57763671875	0.412841796875	1	lower	zerothre.ttf
792260	WORD	wordpools/wasnorm_wordpool.txt	LTP145	ltpFR	19	6	0	BULLY	196	n/a	n/a	1	0.57763671875	0.412841796875	1	lower	zerothre.ttf
796430	WORD	wordpools/wasnorm_wordpool.txt	LTP145	ltpFR	19	6	0	KNOB	787	n/a	n/a	0	0.57763671875	0.412841796875	1	lower	zerothre.ttf
800491	WORD	wordpools/wasnorm_wordpool.txt	LTP145	ltpFR	19	6	0	HINGE	709	n/a	n/a	0	0.57763671875	0.412841796875	1	lower	zerothre.ttf
804321	WORD	wordpools/wasnorm_wordpool.txt	LTP145	ltpFR	19	6	0	DECK	443	n/a	n/a	1	0.57763671875	0.412841796875	1	lower	zerothre.ttf
808283	WORD	wordpools/wasnorm_wordpool.txt	LTP145	ltpFR	19	6	0	TRAITOR	1495	n/a	n/a	1	0.57763671875	0.412841796875	1	lower	zerothre.ttf
812170	WORD	wordpools/wasnorm_wordpool.txt	LTP145	ltpFR	19	6	0	EMPLOYEE	531	n/a	n/a	1	0.57763671875	0.412841796875	1	lower	zerothre.ttf
816307	WORD	wordpools/wasnorm_wordpool.txt	LTP145	ltpFR	19	6	0	THIEF	1456	n/a	n/a	1	0.57763671875	0.412841796875	1	lower	zerothre.ttf
820203	WORD	wordpools/wasnorm_wordpool.txt	LTP145	ltpFR	19	6	0	TAPIOCA	1434	n/a	n/a	0	0.57763671875	0.412841796875	1	lower	zerothre.ttf
824198	WORD	wordpools/wasnorm_wordpool.txt	LTP145	ltpFR	19	6	0	LEG	809	n/a	n/a	0	0.57763671875	0.412841796875	1	lower	zerothre.ttf
830258	REC_START	n/a	LTP145	ltpFR	19	6	n/a	n/a	n/a	n/a	n/a	n/a	n/a	n/a	n/a	n/a	n/a
831300	REC_WORD	wordpools/wasnorm_wordpool.txt	LTP145	ltpFR	19	6	0	THIEF	1456	n/a	n/a	1	n/a	n/a	n/a	n/a	n/a
832084	REC_WORD	wordpools/wasnorm_wordpool.txt	LTP145	ltpFR	19	6	0	EMPLOYEE	531	n/a	n/a	1	n/a	n/a	n/a	n/a	n/a
833066	REC_WORD	wordpools/wasnorm_wordpool.txt	LTP145	ltpFR	19	6	0	TAPIOCA	1434	n/a	n/a	0	n/a	n/a	n/a	n/a	n/a
834066	REC_WORD_VV	wordpools/wasnorm_wordpool.txt	LTP145	ltpFR	19	6	n/a	<>	-1	n/a	n/a	n/a	n/a	n/a	n/a	n/a	n/a
834388	REC_WORD	wordpools/wasnorm_wordpool.txt	LTP145	ltpFR	19	6	0	LEG	809	n/a	n/a	0	n/a	n/a	n/a	n/a	n/a
838139	REC_WORD	wordpools/wasnorm_wordpool.txt	LTP145	ltpFR	19	6	0	SLEEVE	1324	n/a	n/a	0	n/a	n/a	n/a	n/a	n/a
839139	REC_WORD_VV	wordpools/wasnorm_wordpool.txt	LTP145	ltpFR	19	6	n/a	<>	-1	n/a	n/a	n/a	n/a	n/a	n/a	n/a	n/a
910922	WORD	wordpools/wasnorm_wordpool.txt	LTP145	ltpFR	19	7	-1	COMMITTEE	355	n/a	n/a	-1	1.0	1.0	1	upper	Verdana.ttf
914933	WORD	wordpools/wasnorm_wordpool.txt	LTP145	ltpFR	19	7	-1	CAFE	216	n/a	n/a	-1	1.0	1.0	1	upper	Verdana.ttf
918946	WORD	wordpools/wasnorm_wordpool.txt	LTP145	ltpFR	19	7	-1	HOSTESS	723	n/a	n/a	-1	1.0	1.0	1	upper	Verdana.ttf
922866	WORD	wordpools/wasnorm_wordpool.txt	LTP145	ltpFR	19	7	-1	FRIEND	606	n/a	n/a	-1	1.0	1.0	1	upper	Verdana.ttf
927054	WORD	wordpools/wasnorm_wordpool.txt	LTP145	ltpFR	19	7	-1	CONTAINER	366	n/a	n/a	-1	1.0	1.0	1	upper	Verdana.ttf
931041	WORD	wordpools/wasnorm_wordpool.txt	LTP145	ltpFR	19	7	-1	NAIL	936	n/a	n/a	-1	1.0	1.0	1	upper	Verdana.ttf
934869	WORD	wordpools/wasnorm_wordpool.txt	LTP145	ltpFR	19	7	-1	WRENCH	1625	n/a	n/a	-1	1.0	1.0	1	upper	Verdana.ttf
938922	WORD	wordpools/wasnorm_wordpool.txt	LTP145	ltpFR	19	7	-1	SPINACH	1352	n/a	n/a	-1	1.0	1.0	1	upper	Verdana.ttf
943110	WORD	wordpools/wasnorm_wordpool.txt	LTP145	ltpFR	19	7	-1	PAIL	1002	n/a	n/a	-1	1.0	1.0	1	upper	Verdana.ttf
947214	WORD	wordpools/wasnorm_wordpool.txt	LTP145	ltpFR	19	7	-1	PUMP	1141	n/a	n/a	-1	1.0	1.0	1	upper	Verdana.ttf
951118	WORD	wordpools/wasnorm_wordpool.txt	LTP145	ltpFR	19	7	-1	DUNE	506	n/a	n/a	-1	1.0	1.0	1	upper	Verdana.ttf
955063	WORD	wordpools/wasnorm_wordpool.txt	LTP145	ltpFR	19	7	-1	COCOON	339	n/a	n/a	-1	1.0	1.0	1	upper	Verdana.ttf
959008	WORD	wordpools/wasnorm_wordpool.txt	LTP145	ltpFR	19	7	-1	CARNIVAL	245	n/a	n/a	-1	1.0	1.0	1	upper	Verdana.ttf
962971	WORD	wordpools/wasnorm_wordpool.txt	LTP145	ltpFR	19	7	-1	TEA	1439	n/a	n/a	-1	1.0	1.0	1	upper	Verdana.ttf
967008	WORD	wordpools/wasnorm_wordpool.txt	LTP145	ltpFR	19	7	-1	FOE	587	n/a	n/a	-1	1.0	1.0	1	upper	Verdana.ttf
970927	WORD	wordpools/wasnorm_wordpool.txt	LTP145	ltpFR	19	7	-1	LUMBER	848	n/a	n/a	-1	1.0	1.0	1	upper	Verdana.ttf
976663	REC_START	n/a	LTP145	ltpFR	19	7	n/a	n/a	n/a	n/a	n/a	n/a	n/a	n/a	n/a	n/a	n/a
977845	REC_WORD	wordpools/wasnorm_wordpool.txt	LTP145	ltpFR	19	7	-1	LUMBER	848	n/a	n/a	-1	n/a	n/a	n/a	n/a	n/a
978845	REC_WORD_VV	wordpools/wasnorm_wordpool.txt	LTP145	ltpFR	19	7	n/a	<>	-1	n/a	n/a	n/a	n/a	n/a	n/a	n/a	n/a
979297	REC_WORD	wordpools/wasnorm_wordpool.txt	LTP145	ltpFR	19	7	-1	TEA	1439	n/a	n/a	-1	n/a	n/a	n/a	n/a	n/a
981382	REC_WORD	wordpools/wasnorm_wordpool.txt	LTP145	ltpFR	19	7	-1	COMMITTEE	355	n/a	n/a	-1	n/a	n/a	n/a	n/a	n/a
983378	REC_WORD	wordpools/wasnorm_wordpool.txt	LTP145	ltpFR	19	7	-1	CAFE	216	n/a	n/a	-1	n/a	n/a	n/a	n/a	n/a
986575	REC_WORD	wordpools/wasnorm_wordpool.txt	LTP145	ltpFR	19	7	-1	HOSTESS	723	n/a	n/a	-1	n/a	n/a	n/a	n/a	n/a
987575	REC_WORD_VV	wordpools/wasnorm_wordpool.txt	LTP145	ltpFR	19	7	n/a	<>	-1	n/a	n/a	n/a	n/a	n/a	n/a	n/a	n/a
987767	REC_WORD	wordpools/wasnorm_wordpool.txt	LTP145	ltpFR	19	7	-1	FRIEND	606	n/a	n/a	-1	n/a	n/a	n/a	n/a	n/a
988735	REC_WORD	wordpools/wasnorm_wordpool.txt	LTP145	ltpFR	19	7	-1	FOE	587	n/a	n/a	-1	n/a	n/a	n/a	n/a	n/a
991060	REC_WORD	wordpools/wasnorm_wordpool.txt	LTP145	ltpFR	19	7	-1	DUNE	506	n/a	n/a	-1	n/a	n/a	n/a	n/a	n/a
992627	REC_WORD	wordpools/wasnorm_wordpool.txt	LTP145	ltpFR	19	7	-1	CARNIVAL	245	n/a	n/a	-1	n/a	n/a	n/a	n/a	n/a
1055280	WORD	wordpools/wasnorm_wordpool.txt	LTP145	ltpFR	19	8	-1	TANK	1432	n/a	n/a	-1	1.0	1.0	1	upper	Verdana.ttf
1059442	WORD	wordpools/wasnorm_wordpool.txt	LTP145	ltpFR	19	8	-1	FISH	571	n/a	n/a	-1	1.0	1.0	1	upper	Verdana.ttf
1063296	WORD	wordpools/wasnorm_wordpool.txt	LTP145	ltpFR	19	8	-1	CATERPILLAR	259	n/a	n/a	-1	1.0	1.0	1	upper	Verdana.ttf
1067266	WORD	wordpools/wasnorm_wordpool.txt	LTP145	ltpFR	19	8	-1	SOCKET	1340	n/a	n/a	-1	1.0	1.0	1	upper	Verdana.ttf
1071137	WORD	wordpools/wasnorm_wordpool.txt	LTP145	ltpFR	19	8	-1	CAVITY	264	n/a	n/a	-1	1.0	1.0	1	upper	Verdana.ttf
1074982	WORD	wordpools/wasnorm_wordpool.txt	LTP145	ltpFR	19	8	-1	SHEPHERD	1283	n/a	n/a	-1	1.0	1.0	1	upper	Verdana.ttf
1079161	WORD	wordpools/wasnorm_wordpool.txt	LTP145	ltpFR	19	8	-1	COOKIE	374	n/a	n/a	-1	1.0	1.0	1	upper	Verdana.ttf
1083331	WORD	wordpools/wasnorm_wordpool.txt	LTP145	ltpFR	19	8	-1	APRON	35	n/a	n/a	-1	1.0	1.0	1	upper	Verdana.ttf
1087426	WORD	wordpools/wasnorm_wordpool.txt	LTP145	ltpFR	19	8	-1	PAINTING	1005	n/a	n/a	-1	1.0	1.0	1	upper	Verdana.ttf
1091487	WORD	wordpools/wasnorm_wordpool.txt	LTP145	ltpFR	19	8	-1	PLUM	1090	n/a	n/a	-1	1.0	1.0	1	upper	Verdana.ttf
1095583	WORD	wordpools/wasnorm_wordpool.txt	LTP145	ltpFR	19	8	-1	NOTEBOOK	959	n/a	n/a	-1	1.0	1.0	1	upper	Verdana.ttf
1099603	WORD	wordpools/wasnorm_wordpool.txt	LTP145	ltpFR	19	8	-1	FRAME	600	n/a	n/a	-1	1.0	1.0	1	upper	Verdana.ttf
1103748	WORD	wordpools/wasnorm_wordpool.txt	LTP145	ltpFR	19	8	-1	DIGGER	464	n/a	n/a	-1	1.0	1.0	1	upper	Verdana.ttf
1107818	WORD	wordpools/wasnorm_wordpool.txt	LTP145	ltpFR	19	8	-1	PUMPKIN	1142	n/a	n/a	-1	1.0	1.0	1	upper	Verdana.ttf
1111940	WORD	wordpools/wasnorm_wordpool.txt	LTP145	ltpFR	19	8	-1	MEDICINE	886	n/a	n/a	-1	1.0	1.0	1	upper	Verdana.ttf
1115901	WORD	wordpools/wasnorm_wordpool.txt	LTP145	ltpFR	19	8	-1	OINTMENT	974	n/a	n/a	-1	1.0	1.0	1	upper	Verdana.ttf
1121761	REC_START	n/a	LTP145	ltpFR	19	8	n/a	n/a	n/a	n/a	n/a	n/a	n/a	n/a	n/a	n/a	n/a
1122998	REC_WORD	wordpools/wasnorm_wordpool.txt	LTP145	ltpFR	19	8	-1	OINTMENT	974	n/a	n/a	-1	n/a	n/a	n/a	n/a	n/a
1123901	REC_WORD	wordpools/wasnorm_wordpool.txt	LTP145	ltpFR	19	8	-1	MEDICINE	886	n/a	n/a	-1	n/a	n/a	n/a	n/a	n/a
1124901	REC_WORD_VV	wordpools/wasnorm_wordpool.txt	LTP145	ltpFR	19	8	n/a	<>	-1	n/a	n/a	n/a	n/a	n/a	n/a	n/a	n/a
1125318	REC_WORD	wordpools/wasnorm_wordpool.txt	LTP145	ltpFR	19	8	-1	DIGGER	464	n/a	n/a	-1	n/a	n/a	n/a	n/a	n/a
1127173	REC_WORD	wordpools/wasnorm_wordpool.txt	LTP145	ltpFR	19	8	-1	FISH	571	n/a	n/a	-1	n/a	n/a	n/a	n/a	n/a
1128061	REC_WORD	wordpools/wasnorm_wordpool.txt	LTP145	ltpFR	19	8	-1	TANK	1432	n/a	n/a	-1	n/a	n/a	n/a	n/a	n/a
1128849	REC_WORD	wordpools/wasnorm_wordpool.txt	LTP145	ltpFR	19	8	1	PORTRAIT	1111	n/a	n/a	0	n/a	n/a	n/a	n/a	n/a
1129732	REC_WORD	wordpools/wasnorm_wordpool.txt	LTP145	ltpFR	19	8	-1	FRAME	600	n/a	n/a	-1	n/a	n/a	n/a	n/a	n/a
1131279	REC_WORD	wordpools/wasnorm_wordpool.txt	LTP145	ltpFR	19	8	-1	SOCKET	1340	n/a	n/a	-1	n/a	n/a	n/a	n/a	n/a
1132279	REC_WORD_VV	wordpools/wasnorm_wordpool.txt	LTP145	ltpFR	19	8	n/a	<>	-1	n/a	n/a	n/a	n/a	n/a	n/a	n/a	n/a
1134058	REC_WORD	wordpools/wasnorm_wordpool.txt	LTP145	ltpFR	19	8	-1	CAVITY	264	n/a	n/a	-1	n/a	n/a	n/a	n/a	n/a
1134717	REC_WORD	wordpools/wasnorm_wordpool.txt	LTP145	ltpFR	19	8	-1	NOTEBOOK	959	n/a	n/a	-1	n/a	n/a	n/a	n/a	n/a
1144679	REC_WORD	wordpools/wasnorm_wordpool.txt	LTP145	ltpFR	19	8	-1	PLUM	1090	n/a	n/a	-1	n/a	n/a	n/a	n/a	n/a
1148310	REC_WORD	wordpools/wasnorm_wordpool.txt	LTP145	ltpFR	19	8	-1	CATERPILLAR	259	n/a	n/a	-1	n/a	n/a	n/a	n/a	n/a
1152581	REC_WORD	wordpools/wasnorm_wordpool.txt	LTP145	ltpFR	19	8	-1	PUMPKIN	1142	n/a	n/a	-1	n/a	n/a	n/a	n/a	n/a
1168933	REC_WORD	wordpools/wasnorm_wordpool.txt	LTP145	ltpFR	19	8	-1	SHEPHERD	1283	n/a	n/a	-1	n/a	n/a	n/a	n/a	n/a
1207188	WORD	wordpools/wasnorm_wordpool.txt	LTP145	ltpFR	19	9	0	SUITE	1404	n/a	n/a	0	0.57763671875	0.412841796875	1	lower	zerothre.ttf
1211200	WORD	wordpools/wasnorm_wordpool.txt	LTP145	ltpFR	19	9	0	INN	739	n/a	n/a	1	0.57763671875	0.412841796875	1	lower	zerothre.ttf
1215378	WORD	wordpools/wasnorm_wordpool.txt	LTP145	ltpFR	19	9	0	STOMACH	1384	n/a	n/a	0	0.57763671875	0.412841796875	1	lower	zerothre.ttf
1219448	WORD	wordpools/wasnorm_wordpool.txt	LTP145	ltpFR	19	9	0	PASTA	1021	n/a	n/a	0	0.57763671875	0.412841796875	1	lower	zerothre.ttf
1223460	WORD	wordpools/wasnorm_wordpool.txt	LTP145	ltpFR	19	9	0	ACORN	3	n/a	n/a	0	0.57763671875	0.412841796875	1	lower	zerothre.ttf
1227646	WORD	wordpools/wasnorm_wordpool.txt	LTP145	ltpFR	19	9	0	GLASS	639	n/a	n/a	0	0.57763671875	0.412841796875	1	lower	zerothre.ttf
1231550	WORD	wordpools/wasnorm_wordpool.txt	LTP145	ltpFR	19	9	0	WINDOW	1611	n/a	n/a	0	0.57763671875	0.412841796875	1	lower	zerothre.ttf
1235487	WORD	wordpools/wasnorm_wordpool.txt	LTP145	ltpFR	19	9	0	MACARONI	851	n/a	n/a	0	0.57763671875	0.412841796875	1	lower	zerothre.ttf
1239367	WORD	wordpools/wasnorm_wordpool.txt	LTP145	ltpFR	19	9	0	BRANCH	168	n/a	n/a	0	0.57763671875	0.412841796875	1	lower	zerothre.ttf
1243371	WORD	wordpools/wasnorm_wordpool.txt	LTP145	ltpFR	19	9	0	BISCUIT	130	n/a	n/a	0	0.57763671875	0.412841796875	1	lower	zerothre.ttf
1247216	WORD	wordpools/wasnorm_wordpool.txt	LTP145	ltpFR	19	9	0	STRAWBERRY	1391	n/a	n/a	0	0.57763671875	0.412841796875	1	lower	zerothre.ttf
1251095	WORD	wordpools/wasnorm_wordpool.txt	LTP145	ltpFR	19	9	0	BROOK	177	n/a	n/a	1	0.57763671875	0.412841796875	1	lower	zerothre.ttf
1254974	WORD	wordpools/wasnorm_wordpool.txt	LTP145	ltpFR	19	9	0	DEER	444	n/a	n/a	1	0.57763671875	0.412841796875	1	lower	zerothre.ttf
1258802	WORD	wordpools/wasnorm_wordpool.txt	LTP145	ltpFR	19	9	0	COLOGNE	347	n/a	n/a	0	0.57763671875	0.412841796875	1	lower	zerothre.ttf
1262631	WORD	wordpools/wasnorm_wordpool.txt	LTP145	ltpFR	19	9	0	DRUG	501	n/a	n/a	0	0.57763671875	0.412841796875	1	lower	zerothre.ttf
1266618	WORD	wordpools/wasnorm_wordpool.txt	LTP145	ltpFR	19	9	0	OAR	966	n/a	n/a	0	0.57763671875	0.412841796875	1	lower	zerothre.ttf
1272603	REC_START	n/a	LTP145	ltpFR	19	9	n/a	n/a	n/a	n/a	n/a	n/a	n/a	n/a	n/a	n/a	n/a
1273596	REC_WORD	wordpools/wasnorm_wordpool.txt	LTP145	ltpFR	19	9	0	DRUG	501	n/a	n/a	0	n/a	n/a	n/a	n/a	n/a
1274638	REC_WORD	wordpools/wasnorm_wordpool.txt	LTP145	ltpFR	19	9	0	OAR	966	n/a	n/a	0	n/a	n/a	n/a	n/a	n/a
1275486	REC_WORD	wordpools/wasnorm_wordpool.txt	LTP145	ltpFR	19	9	0	PADDLE	1000	n/a	n/a	0	n/a	n/a	n/a	n/a	n/a
1279981	REC_WORD	wordpools/wasnorm_wordpool.txt	LTP145	ltpFR	19	9	0	SUITE	1404	n/a	n/a	0	n/a	n/a	n/a	n/a	n/a
1280981	REC_WORD_VV	wordpools/wasnorm_wordpool.txt	LTP145	ltpFR	19	9	n/a	<>	-1	n/a	n/a	n/a	n/a	n/a	n/a	n/a	n/a
1281358	REC_WORD	wordpools/wasnorm_wordpool.txt	LTP145	ltpFR	19	9	0	INN	739	n/a	n/a	1	n/a	n/a	n/a	n/a	n/a
1286640	REC_WORD	wordpools/wasnorm_wordpool.txt	LTP145	ltpFR	19	9	0	STRAWBERRY	1391	n/a	n/a	0	n/a	n/a	n/a	n/a	n/a
1287803	REC_WORD	wordpools/wasnorm_wordpool.txt	LTP145	ltpFR	19	9	0	BISCUIT	130	n/a	n/a	0	n/a	n/a	n/a	n/a	n/a
1288486	REC_WORD	wordpools/wasnorm_wordpool.txt	LTP145	ltpFR	19	9	0	STOMACH	1384	n/a	n/a	0	n/a	n/a	n/a	n/a	n/a
1298494	REC_WORD	wordpools/wasnorm_wordpool.txt	LTP145	ltpFR	19	9	-1	PAIL	1002	n/a	n/a	-1	n/a	n/a	n/a	n/a	n/a
1314931	REC_WORD	wordpools/wasnorm_wordpool.txt	LTP145	ltpFR	19	9	0	DEER	444	n/a	n/a	1	n/a	n/a	n/a	n/a	n/a
1353193	WORD	wordpools/wasnorm_wordpool.txt	LTP145	ltpFR	19	10	-1	ASH	44	n/a	n/a	-1	1.0	1.0	1	upper	Verdana.ttf
1357355	WORD	wordpools/wasnorm_wordpool.txt	LTP145	ltpFR	19	10	-1	NICOTINE	951	n/a	n/a	-1	1.0	1.0	1	upper	Verdana.ttf
1361251	WORD	wordpools/wasnorm_wordpool.txt	LTP145	ltpFR	19	10	-1	BARREL	91	n/a	n/a	-1	1.0	1.0	1	upper	Verdana.ttf
1365071	WORD	wordpools/wasnorm_wordpool.txt	LTP145	ltpFR	19	10	-1	BEAVER	109	n/a	n/a	-1	1.0	1.0	1	upper	Verdana.ttf
1369133	WORD	wordpools/wasnorm_wordpool.txt	LTP145	ltpFR	19	10	-1	SHED	1277	n/a	n/a	-1	1.0	1.0	1	upper	Verdana.ttf
1372946	WORD	wordpools/wasnorm_wordpool.txt	LTP145	ltpFR	19	10	-1	FLOOR	581	n/a	n/a	-1	1.0	1.0	1	upper	Verdana.ttf
1376790	WORD	wordpools/wasnorm_wordpool.txt	LTP145	ltpFR	19	10	-1	HERD	705	n/a	n/a	-1	1.0	1.0	1	upper	Verdana.ttf
1380835	WORD	wordpools/wasnorm_wordpool.txt	LTP145	ltpFR	19	10	-1	CELLO	268	n/a	n/a	-1	1.0	1.0	1	upper	Verdana.ttf
1384673	WORD	wordpools/wasnorm_wordpool.txt	LTP145	ltpFR	19	10	-1	MAT	877	n/a	n/a	-1	1.0	1.0	1	upper	Verdana.ttf
1388485	WORD	wordpools/wasnorm_wordpool.txt	LTP145	ltpFR	19	10	-1	SANDWICH	1232	n/a	n/a	-1	1.0	1.0	1	upper	Verdana.ttf
1392663	WORD	wordpools/wasnorm_wordpool.txt	LTP145	ltpFR	19	10	-1	LIST	830	n/a	n/a	-1	1.0	1.0	1	upper	Verdana.ttf
1396509	WORD	wordpools/wasnorm_wordpool.txt	LTP145	ltpFR	19	10	-1	PAPER	1011	n/a	n/a	-1	1.0	1.0	1	upper	Verdana.ttf
1400521	WORD	wordpools/wasnorm_wordpool.txt	LTP145	ltpFR	19	10	-1	MASCARA	875	n/a	n/a	-1	1.0	1.0	1	upper	Verdana.ttf
1404359	WORD	wordpools/wasnorm_wordpool.txt	LTP145	ltpFR	19	10	-1	WHISTLE	1606	n/a	n/a	-1	1.0	1.0	1	upper	Verdana.ttf
1408570	WORD	wordpools/wasnorm_wordpool.txt	LTP145	ltpFR	19	10	-1	SAXOPHONE	1240	n/a	n/a	-1	1.0	1.0	1	upper	Verdana.ttf
1412515	WORD	wordpools/wasnorm_wordpool.txt	LTP145	ltpFR	19	10	-1	BOUILLON	154	n/a	n/a	-1	1.0	1.0	1	upper	Verdana.ttf
1418335	REC_START	n/a	LTP145	ltpFR	19	10	n/a	n/a	n/a	n/a	n/a	n/a	n/a	n/a	n/a	n/a	n/a
1419751	REC_WORD	wordpools/wasnorm_wordpool.txt	LTP145	ltpFR	19	10	-1	BOUILLON	154	n/a	n/a	-1	n/a	n/a	n/a	n/a	n/a
1420751	REC_WORD_VV	wordpools/wasnorm_wordpool.txt	LTP145	ltpFR	19	10	n/a	<>	-1	n/a	n/a	n/a	n/a	n/a	n/a	n/a	n/a
1422226	REC_WORD	wordpools/wasnorm_wordpool.txt	LTP145	ltpFR	19	10	-1	SAXOPHONE	1240	n/a	n/a	-1	n/a	n/a	n/a	n/a	n/a
1423226	REC_WORD_VV	wordpools/wasnorm_wordpool.txt	LTP145	ltpFR	19	10	n/a	<>	-1	n/a	n/a	n/a	n/a	n/a	n/a	n/a	n/a
1423897	REC_WORD	wordpools/wasnorm_wordpool.txt	LTP145	ltpFR	19	10	-1	CELLO	268	n/a	n/a	-1	n/a	n/a	n/a	n/a	n/a
1425368	REC_WORD	wordpools/wasnorm_wordpool.txt	LTP145	ltpFR	19	10	-1	SANDWICH	1232	n/a	n/a	-1	n/a	n/a	n/a	n/a	n/a
1426368	REC_WORD_VV	wordpools/wasnorm_wordpool.txt	LTP145	ltpFR	19	10	n/a	<>	-1	n/a	n/a	n/a	n/a	n/a	n/a	n/a	n/a
1426601	REC_WORD	wordpools/wasnorm_wordpool.txt	LTP145	ltpFR	19	10	-1	WHISTLE	1606	n/a	n/a	-1	n/a	n/a	n/a	n/a	n/a
1429968	REC_WORD	wordpools/wasnorm_wordpool.txt	LTP145	ltpFR	19	10	-1	BEAVER	109	n/a	n/a	-1	n/a	n/a	n/a	n/a	n/a
1430939	REC_WORD	wordpools/wasnorm_wordpool.txt	LTP145	ltpFR	19	10	-1	SHED	1277	n/a	n/a	-1	n/a	n/a	n/a	n/a	n/a
1434099	REC_WORD	wordpools/wasnorm_wordpool.txt	LTP145	ltpFR	19	10	-1	NICOTINE	951	n/a	n/a	-1	n/a	n/a	n/a	n/a	n/a
1435099	REC_WORD_VV	wordpools/wasnorm_wordpool.txt	LTP145	ltpFR	19	10	n/a	<>	-1	n/a	n/a	n/a	n/a	n/a	n/a	n/a	n/a
1435471	REC_WORD	wordpools/wasnorm_wordpool.txt	LTP145	ltpFR	19	10	-1	ASH	44	n/a	n/a	-1	n/a	n/a	n/a	n/a	n/a
1436433	REC_WORD	wordpools/wasnorm_wordpool.txt	LTP145	ltpFR	19	10	-1	BARREL	91	n/a	n/a	-1	n/a	n/a	n/a	n/a	n/a
1440035	REC_WORD	wordpools/wasnorm_wordpool.txt	LTP145	ltpFR	19	10	-1	FLOOR	581	n/a	n/a	-1	n/a	n/a	n/a	n/a	n/a
1441035	REC_WORD_VV	wordpools/wasnorm_wordpool.txt	LTP145	ltpFR	19	10	n/a	<>	-1	n/a	n/a	n/a	n/a	n/a	n/a	n/a	n/a
1442061	REC_WORD	wordpools/wasnorm_wordpool.txt	LTP145	ltpFR	19	10	-1	LIST	830	n/a	n/a	-1	n/a	n/a	n/a	n/a	n/a
1443318	REC_WORD	wordpools/wasnorm_wordpool.txt	LTP145	ltpFR	19	10	-1	PAPER	1011	n/a	n/a	-1	n/a	n/a	n/a	n/a	n/a
1469054	REC_WORD	wordpools/wasnorm_wordpool.txt	LTP145	ltpFR	19	10	-1	HERD	705	n/a	n/a	-1	n/a	n/a	n/a	n/a	n/a
1503776	WORD	wordpools/wasnorm_wordpool.txt	LTP145	ltpFR	19	11	0	NECKLACE	940	n/a	n/a	0	0.57763671875	0.412841796875	1	lower	zerothre.ttf
1507905	WORD	wordpools/wasnorm_wordpool.txt	LTP145	ltpFR	19	11	0	GYM	674	n/a	n/a	1	0.57763671875	0.412841796875	1	lower	zerothre.ttf
1511917	WORD	wordpools/wasnorm_wordpool.txt	LTP145	ltpFR	19	11	0	RACCOON	1153	n/a	n/a	0	0.57763671875	0.412841796875	1	lower	zerothre.ttf
1516021	WORD	wordpools/wasnorm_wordpool.txt	LTP145	ltpFR	19	11	0	HOUND	724	n/a	n/a	1	0.57763671875	0.412841796875	1	lower	zerothre.ttf
1519924	WORD	wordpools/wasnorm_wordpool.txt	LTP145	ltpFR	19	11	1	LIP	828	n/a	n/a	0	0.422607421875	0.5869140625	0	upper	amplitud.ttf
1523778	WORD	wordpools/wasnorm_wordpool.txt	LTP145	ltpFR	19	11	1	CHEEK	287	n/a	n/a	0	0.422607421875	0.5869140625	0	upper	amplitud.ttf
1527782	WORD	wordpools/wasnorm_wordpool.txt	LTP145	ltpFR	19	11	1	DOUGHNUT	490	n/a	n/a	0	0.422607421875	0.5869140625	0	upper	amplitud.ttf
1531794	WORD	wordpools/wasnorm_wordpool.txt	LTP145	ltpFR	19	11	0	CREATURE	403	n/a	n/a	1	0.57763671875	0.412841796875	1	lower	zerothre.ttf
1535897	WORD	wordpools/wasnorm_wordpool.txt	LTP145	ltpFR	19	11	0	BUFFALO	186	n/a	n/a	1	0.57763671875	0.412841796875	1	lower	zerothre.ttf
1540035	WORD	wordpools/wasnorm_wordpool.txt	LTP145	ltpFR	19	11	0	SHOVEL	1295	n/a	n/a	1	0.57763671875	0.412841796875	1	lower	zerothre.ttf
1543905	WORD	wordpools/wasnorm_wordpool.txt	LTP145	ltpFR	19	11	0	BRACELET	163	n/a	n/a	0	0.57763671875	0.412841796875	1	lower	zerothre.ttf
1547968	WORD	wordpools/wasnorm_wordpool.txt	LTP145	ltpFR	19	11	1	CANYON	235	n/a	n/a	0	0.422607421875	0.5869140625	0	upper	amplitud.ttf
1551870	WORD	wordpools/wasnorm_wordpool.txt	LTP145	ltpFR	19	11	1	SERVANT	1271	n/a	n/a	1	0.422607421875	0.5869140625	0	upper	amplitud.ttf
1555932	WORD	wordpools/wasnorm_wordpool.txt	LTP145	ltpFR	19	11	1	RADIATOR	1156	n/a	n/a	0	0.422607421875	0.5869140625	0	upper	amplitud.ttf
1559853	WORD	wordpools/wasnorm_wordpool.txt	LTP145	ltpFR	19	11	1	TUNNEL	1519	n/a	n/a	0	0.422607421875	0.5869140625	0	upper	amplitud.ttf
1564041	WORD	wordpools/wasnorm_wordpool.txt	LTP145	ltpFR	19	11	1	MOTH	920	n/a	n/a	0	0.422607421875	0.5869140625	0	upper	amplitud.ttf
1569800	REC_START	n/a	LTP145	ltpFR	19	11	n/a	n/a	n/a	n/a	n/a	n/a	n/a	n/a	n/a	n/a	n/a
1570743	REC_WORD	wordpools/wasnorm_wordpool.txt	LTP145	ltpFR	19	11	1	MOTH	920	n/a	n/a	0	n/a	n/a	n/a	n/a	n/a
1571611	REC_WORD	wordpools/wasnorm_wordpool.txt	LTP145	ltpFR	19	11	1	TUNNEL	1519	n/a	n/a	0	n/a	n/a	n/a	n/a	n/a
1572349	REC_WORD	wordpools/wasnorm_wordpool.txt	LTP145	ltpFR	19	11	1	CANYON	235	n/a	n/a	0	n/a	n/a	n/a	n/a	n/a
1574150	REC_WORD	wordpools/wasnorm_wordpool.txt	LTP145	ltpFR	19	11	1	LIP	828	n/a	n/a	0	n/a	n/a	n/a	n/a	n/a
1574808	REC_WORD	wordpools/wasnorm_wordpool.txt	LTP145	ltpFR	19	11	1	CHEEK	287	n/a	n/a	0	n/a	n/a	n/a	n/a	n/a
1575547	REC_WORD	wordpools/wasnorm_wordpool.txt	LTP145	ltpFR	19	11	1	DOUGHNUT	490	n/a	n/a	0	n/a	n/a	n/a	n/a	n/a
1577457	REC_WORD	wordpools/wasnorm_wordpool.txt	LTP145	ltpFR	19	11	0	CREATURE	403	n/a	n/a	1	n/a	n/a	n/a	n/a	n/a
1578424	REC_WORD	wordpools/wasnorm_wordpool.txt	LTP145	ltpFR	19	11	0	HOUND	724	n/a	n/a	1	n/a	n/a	n/a	n/a	n/a
1579203	REC_WORD	wordpools/wasnorm_wordpool.txt	LTP145	ltpFR	19	11	0	RACCOON	1153	n/a	n/a	0	n/a	n/a	n/a	n/a	n/a
1648866	WORD	wordpools/wasnorm_wordpool.txt	LTP145	ltpFR	19	12	1	CONDUCTOR	362	n/a	n/a	1	0.422607421875	0.5869140625	0	upper	amplitud.ttf
1653004	WORD	wordpools/wasnorm_wordpool.txt	LTP145	ltpFR	19	12	1	DEODORANT	448	n/a	n/a	0	0.422607421875	0.5869140625	0	upper	amplitud.ttf
1657116	WORD	wordpools/wasnorm_wordpool.txt	LTP145	ltpFR	19	12	1	FRAGRANCE	599	n/a	n/a	0	0.422607421875	0.5869140625	0	upper	amplitud.ttf
1661278	WORD	wordpools/wasnorm_wordpool.txt	LTP145	ltpFR	19	12	1	RULER	1216	n/a	n/a	0	0.422607421875	0.5869140625	0	upper	amplitud.ttf
1665365	WORD	wordpools/wasnorm_wordpool.txt	LTP145	ltpFR	19	12	0	ENEMY	534	n/a	n/a	1	0.57763671875	0.412841796875	1	lower	zerothre.ttf
1669427	WORD	wordpools/wasnorm_wordpool.txt	LTP145	ltpFR	19	12	0	ARM	38	n/a	n/a	0	0.57763671875	0.412841796875	1	lower	zerothre.ttf
1673439	WORD	wordpools/wasnorm_wordpool.txt	LTP145	ltpFR	19	12	0	CHAMBER	277	n/a	n/a	0	0.57763671875	0.412841796875	1	lower	zerothre.ttf
1677542	WORD	wordpools/wasnorm_wordpool.txt	LTP145	ltpFR	19	12	0	TYPEWRITER	1531	n/a	n/a	1	0.57763671875	0.412841796875	1	lower	zerothre.ttf
1681562	WORD	wordpools/wasnorm_wordpool.txt	LTP145	ltpFR	19	12	0	TYPIST	1532	n/a	n/a	0	0.57763671875	0.412841796875	1	lower	zerothre.ttf
1685458	WORD	wordpools/wasnorm_wordpool.txt	LTP145	ltpFR	19	12	0	CRUTCH	417	n/a	n/a	0	0.57763671875	0.412841796875	1	lower	zerothre.ttf
1689470	WORD	wordpools/wasnorm_wordpool.txt	LTP145	ltpFR	19	12	1	SHOP	1290	n/a	n/a	0	0.422607421875	0.5869140625	0	upper	amplitud.ttf
1693590	WORD	wordpools/wasnorm_wordpool.txt	LTP145	ltpFR	19	12	1	ANT	25	n/a	n/a	1	0.422607421875	0.5869140625	0	upper	amplitud.ttf
1697627	WORD	wordpools/wasnorm_wordpool.txt	LTP145	ltpFR	19	12	1	HIGHWAY	707	n/a	n/a	0	0.422607421875	0.5869140625	0	upper	amplitud.ttf
1701530	WORD	wordpools/wasnorm_wordpool.txt	LTP145	ltpFR	19	12	1	ROOMMATE	1207	n/a	n/a	1	0.422607421875	0.5869140625	0	upper	amplitud.ttf
1705584	WORD	wordpools/wasnorm_wordpool.txt	LTP145	ltpFR	19	12	0	CALCULATOR	220	n/a	n/a	0	0.57763671875	0.412841796875	1	lower	zerothre.ttf
1709480	WORD	wordpools/wasnorm_wordpool.txt	LTP145	ltpFR	19	12	0	COMPUTER	359	n/a	n/a	1	0.57763671875	0.412841796875	1	lower	zerothre.ttf
1715200	REC_START	n/a	LTP145	ltpFR	19	12	n/a	n/a	n/a	n/a	n/a	n/a	n/a	n/a	n/a	n/a	n/a
1716282	REC_WORD	wordpools/wasnorm_wordpool.txt	LTP145	ltpFR	19	12	0	COMPUTER	359	n/a	n/a	1	n/a	n/a	n/a	n/a	n/a
1717453	REC_WORD	wordpools/wasnorm_wordpool.txt	LTP145	ltpFR	19	12	1	SHOP	1290	n/a	n/a	0	n/a	n/a	n/a	n/a	n/a
1718891	REC_WORD	wordpools/wasnorm_wordpool.txt	LTP145	ltpFR	19	12	1	ANT	25	n/a	n/a	1	n/a	n/a	n/a	n/a	n/a
1720767	REC_WORD	wordpools/wasnorm_wordpool.txt	LTP145	ltpFR	19	12	1	HIGHWAY	707	n/a	n/a	0	n/a	n/a	n/a	n/a	n/a
1735968	REC_WORD	wordpools/wasnorm_wordpool.txt	LTP145	ltpFR	19	12	0	CHAMBER	277	n/a	n/a	0	n/a	n/a	n/a	n/a	n/a
1752490	REC_WORD	wordpools/wasnorm_wordpool.txt	LTP145	ltpFR	19	12	0	BUFFALO	186	n/a	n/a	1	n/a	n/a	n/a	n/a	n/a
1790785	REST_REWET	n/a	LTP145	ltpFR	19	12	n/a	n/a	n/a	n/a	n/a	n/a	n/a	n/a	n/a	n/a	n/a
2178246	WORD	wordpools/wasnorm_wordpool.txt	LTP145	ltpFR	19	13	1	BLANKET	135	n/a	n/a	0	0.422607421875	0.5869140625	0	upper	amplitud.ttf
2182175	WORD	wordpools/wasnorm_wordpool.txt	LTP145	ltpFR	19	13	1	GRILL	661	n/a	n/a	0	0.422607421875	0.5869140625	0	upper	amplitud.ttf
2186178	WORD	wordpools/wasnorm_wordpool.txt	LTP145	ltpFR	19	13	1	DINER	467	n/a	n/a	0	0.422607421875	0.5869140625	0	upper	amplitud.ttf
2190024	WORD	wordpools/wasnorm_wordpool.txt	LTP145	ltpFR	19	13	1	MONUMENT	913	n/a	n/a	0	0.422607421875	0.5869140625	0	upper	amplitud.ttf
2194027	WORD	wordpools/wasnorm_wordpool.txt	LTP145	ltpFR	19	13	1	FREEZER	604	n/a	n/a	0	0.422607421875	0.5869140625	0	upper	amplitud.ttf
2197956	WORD	wordpools/wasnorm_wordpool.txt	LTP145	ltpFR	19	13	1	KANGAROO	768	n/a	n/a	1	0.422607421875	0.5869140625	0	upper	amplitud.ttf
2202118	WORD	wordpools/wasnorm_wordpool.txt	LTP145	ltpFR	19	13	1	ANCHOR	21	n/a	n/a	0	0.422607421875	0.5869140625	0	upper	amplitud.ttf
2205964	WORD	wordpools/wasnorm_wordpool.txt	LTP145	ltpFR	19	13	1	CAMEL	223	n/a	n/a	1	0.422607421875	0.5869140625	0	upper	amplitud.ttf
2209976	WORD	wordpools/wasnorm_wordpool.txt	LTP145	ltpFR	19	13	1	BEAST	108	n/a	n/a	1	0.422607421875	0.5869140625	0	upper	amplitud.ttf
2213903	WORD	wordpools/wasnorm_wordpool.txt	LTP145	ltpFR	19	13	1	HEATER	698	n/a	n/a	0	0.422607421875	0.5869140625	0	upper	amplitud.ttf
2218075	WORD	wordpools/wasnorm_wordpool.txt	LTP145	ltpFR	19	13	1	CRATER	400	n/a	n/a	0	0.422607421875	0.5869140625	0	upper	amplitud.ttf
2221903	WORD	wordpools/wasnorm_wordpool.txt	LTP145	ltpFR	19	13	1	CHIME	300	n/a	n/a	0	0.422607421875	0.5869140625	0	upper	amplitud.ttf
2225990	WORD	wordpools/wasnorm_wordpool.txt	LTP145	ltpFR	19	13	1	VIKING	1565	n/a	n/a	1	0.422607421875	0.5869140625	0	upper	amplitud.ttf
2230152	WORD	wordpools/wasnorm_wordpool.txt	LTP145	ltpFR	19	13	1	JUNGLE	764	n/a	n/a	0	0.422607421875	0.5869140625	0	upper	amplitud.ttf
2234098	WORD	wordpools/wasnorm_wordpool.txt	LTP145	ltpFR	19	13	1	GORILLA	650	n/a	n/a	1	0.422607421875	0.5869140625	0	upper	amplitud.ttf
2238002	WORD	wordpools/wasnorm_wordpool.txt	LTP145	ltpFR	19	13	1	OFFICER	973	n/a	n/a	1	0.422607421875	0.5869140625	0	upper	amplitud.ttf
2243945	REC_START	n/a	LTP145	ltpFR	19	13	n/a	n/a	n/a	n/a	n/a	n/a	n/a	n/a	n/a	n/a	n/a
2245676	REC_WORD	wordpools/wasnorm_wordpool.txt	LTP145	ltpFR	19	13	1	VIKING	1565	n/a	n/a	1	n/a	n/a	n/a	n/a	n/a
2246534	REC_WORD	wordpools/wasnorm_wordpool.txt	LTP145	ltpFR	19	13	1	CHIME	300	n/a	n/a	0	n/a	n/a	n/a	n/a	n/a
2247457	REC_WORD	wordpools/wasnorm_wordpool.txt	LTP145	ltpFR	19	13	1	JUNGLE	764	n/a	n/a	0	n/a	n/a	n/a	n/a	n/a
2248337	REC_WORD	wordpools/wasnorm_wordpool.txt	LTP145	ltpFR	19	13	1	GORILLA	650	n/a	n/a	1	n/a	n/a	n/a	n/a	n/a
2249537	REC_WORD	wordpools/wasnorm_wordpool.txt	LTP145	ltpFR	19	13	1	OFFICER	973	n/a	n/a	1	n/a	n/a	n/a	n/a	n/a
2250537	REC_WORD_VV	wordpools/wasnorm_wordpool.txt	LTP145	ltpFR	19	13	n/a	<>	-1	n/a	n/a	n/a	n/a	n/a	n/a	n/a	n/a
2263630	REC_WORD	wordpools/wasnorm_wordpool.txt	LTP145	ltpFR	19	13	1	FREEZER	604	n/a	n/a	0	n/a	n/a	n/a	n/a	n/a
2272654	REC_WORD	wordpools/wasnorm_wordpool.txt	LTP145	ltpFR	19	13	1	BLANKET	135	n/a	n/a	0	n/a	n/a	n/a	n/a	n/a
2273487	REC_WORD	wordpools/wasnorm_wordpool.txt	LTP145	ltpFR	19	13	1	GRILL	661	n/a	n/a	0	n/a	n/a	n/a	n/a	n/a
2276037	REC_WORD	wordpools/wasnorm_wordpool.txt	LTP145	ltpFR	19	13	1	MONUMENT	913	n/a	n/a	0	n/a	n/a	n/a	n/a	n/a
2322345	WORD	wordpools/wasnorm_wordpool.txt	LTP145	ltpFR	19	14	-1	FEAST	556	n/a	n/a	-1	1.0	1.0	1	upper	Verdana.ttf
2326316	WORD	wordpools/wasnorm_wordpool.txt	LTP145	ltpFR	19	14	-1	OATMEAL	967	n/a	n/a	-1	1.0	1.0	1	upper	Verdana.ttf
2330510	WORD	wordpools/wasnorm_wordpool.txt	LTP145	ltpFR	19	14	-1	CYCLONE	431	n/a	n/a	-1	1.0	1.0	1	upper	Verdana.ttf
2334415	WORD	wordpools/wasnorm_wordpool.txt	LTP145	ltpFR	19	14	-1	VALLEY	1545	n/a	n/a	-1	1.0	1.0	1	upper	Verdana.ttf
2338559	WORD	wordpools/wasnorm_wordpool.txt	LTP145	ltpFR	19	14	-1	BLOUSE	139	n/a	n/a	-1	1.0	1.0	1	upper	Verdana.ttf
2342422	WORD	wordpools/wasnorm_wordpool.txt	LTP145	ltpFR	19	14	-1	STONE	1385	n/a	n/a	-1	1.0	1.0	1	upper	Verdana.ttf
2346608	WORD	wordpools/wasnorm_wordpool.txt	LTP145	ltpFR	19	14	-1	PEBBLE	1035	n/a	n/a	-1	1.0	1.0	1	upper	Verdana.ttf
2350562	WORD	wordpools/wasnorm_wordpool.txt	LTP145	ltpFR	19	14	-1	TROUSERS	1510	n/a	n/a	-1	1.0	1.0	1	upper	Verdana.ttf
2354425	WORD	wordpools/wasnorm_wordpool.txt	LTP145	ltpFR	19	14	-1	SIRLOIN	1311	n/a	n/a	-1	1.0	1.0	1	upper	Verdana.ttf
2358387	WORD	wordpools/wasnorm_wordpool.txt	LTP145	ltpFR	19	14	-1	TRAY	1498	n/a	n/a	-1	1.0	1.0	1	upper	Verdana.ttf
2362316	WORD	wordpools/wasnorm_wordpool.txt	LTP145	ltpFR	19	14	-1	PIKE	1067	n/a	n/a	-1	1.0	1.0	1	upper	Verdana.ttf
2366319	WORD	wordpools/wasnorm_wordpool.txt	LTP145	ltpFR	19	14	-1	VENUS	1557	n/a	n/a	-1	1.0	1.0	1	upper	Verdana.ttf
2370323	WORD	wordpools/wasnorm_wordpool.txt	LTP145	ltpFR	19	14	-1	CANE	231	n/a	n/a	-1	1.0	1.0	1	upper	Verdana.ttf
2374460	WORD	wordpools/wasnorm_wordpool.txt	LTP145	ltpFR	19	14	-1	SLACKS	1323	n/a	n/a	-1	1.0	1.0	1	upper	Verdana.ttf
2378356	WORD	wordpools/wasnorm_wordpool.txt	LTP145	ltpFR	19	14	-1	UNIVERSE	1540	n/a	n/a	-1	1.0	1.0	1	upper	Verdana.ttf
2382326	WORD	wordpools/wasnorm_wordpool.txt	LTP145	ltpFR	19	14	-1	CHOCOLATE	306	n/a	n/a	-1	1.0	1.0	1	upper	Verdana.ttf
2388028	REC_START	n/a	LTP145	ltpFR	19	14	n/a	n/a	n/a	n/a	n/a	n/a	n/a	n/a	n/a	n/a	n/a
2388886	REC_WORD	wordpools/wasnorm_wordpool.txt	LTP145	ltpFR	19	14	-1	CHOCOLATE	306	n/a	n/a	-1	n/a	n/a	n/a	n/a	n/a
2389819	REC_WORD	wordpools/wasnorm_wordpool.txt	LTP145	ltpFR	19	14	-1	UNIVERSE	1540	n/a	n/a	-1	n/a	n/a	n/a	n/a	n/a
2390881	REC_WORD	wordpools/wasnorm_wordpool.txt	LTP145	ltpFR	19	14	-1	CANE	231	n/a	n/a	-1	n/a	n/a	n/a	n/a	n/a
2391784	REC_WORD	wordpools/wasnorm_wordpool.txt	LTP145	ltpFR	19	14	-1	VENUS	1557	n/a	n/a	-1	n/a	n/a	n/a	n/a	n/a
2394687	REC_WORD	wordpools/wasnorm_wordpool.txt	LTP145	ltpFR	19	14	-1	STONE	1385	n/a	n/a	-1	n/a	n/a	n/a	n/a	n/a
2395687	REC_WORD_VV	wordpools/wasnorm_wordpool.txt	LTP145	ltpFR	19	14	n/a	<>	-1	n/a	n/a	n/a	n/a	n/a	n/a	n/a	n/a
2396000	REC_WORD	wordpools/wasnorm_wordpool.txt	LTP145	ltpFR	19	14	-1	PEBBLE	1035	n/a	n/a	-1	n/a	n/a	n/a	n/a	n/a
2397691	REC_WORD	wordpools/wasnorm_wordpool.txt	LTP145	ltpFR	19	14	-1	VALLEY	1545	n/a	n/a	-1	n/a	n/a	n/a	n/a	n/a
2399591	REC_WORD	wordpools/wasnorm_wordpool.txt	LTP145	ltpFR	19	14	-1	CYCLONE	431	n/a	n/a	-1	n/a	n/a	n/a	n/a	n/a
2400591	REC_WORD_VV	wordpools/wasnorm_wordpool.txt	LTP145	ltpFR	19	14	n/a	<>	-1	n/a	n/a	n/a	n/a	n/a	n/a	n/a	n/a
2414158	REC_WORD	wordpools/wasnorm_wordpool.txt	LTP145	ltpFR	19	14	-1	PIKE	1067	n/a	n/a	-1	n/a	n/a	n/a	n/a	n/a
2466337	WORD	wordpools/wasnorm_wordpool.txt	LTP145	ltpFR	19	15	0	TRUCK	1512	n/a	n/a	1	0.57763671875	0.412841796875	1	lower	zerothre.ttf
2470324	WORD	wordpools/wasnorm_wordpool.txt	LTP145	ltpFR	19	15	0	JEEP	753	n/a	n/a	1	0.57763671875	0.412841796875	1	lower	zerothre.ttf
2474361	WORD	wordpools/wasnorm_wordpool.txt	LTP145	ltpFR	19	15	0	MASK	876	n/a	n/a	0	0.57763671875	0.412841796875	1	lower	zerothre.ttf
2478306	WORD	wordpools/wasnorm_wordpool.txt	LTP145	ltpFR	19	15	0	CHESS	294	n/a	n/a	0	0.57763671875	0.412841796875	1	lower	zerothre.ttf
2482335	WORD	wordpools/wasnorm_wordpool.txt	LTP145	ltpFR	19	15	0	UMPIRE	1535	n/a	n/a	1	0.57763671875	0.412841796875	1	lower	zerothre.ttf
2486197	WORD	wordpools/wasnorm_wordpool.txt	LTP145	ltpFR	19	15	0	PAINT	1003	n/a	n/a	0	0.57763671875	0.412841796875	1	lower	zerothre.ttf
2490134	WORD	wordpools/wasnorm_wordpool.txt	LTP145	ltpFR	19	15	0	HEADBAND	696	n/a	n/a	0	0.57763671875	0.412841796875	1	lower	zerothre.ttf
2494196	WORD	wordpools/wasnorm_wordpool.txt	LTP145	ltpFR	19	15	0	CANDY	230	n/a	n/a	0	0.57763671875	0.412841796875	1	lower	zerothre.ttf
2498217	WORD	wordpools/wasnorm_wordpool.txt	LTP145	ltpFR	19	15	0	TOAST	1471	n/a	n/a	0	0.57763671875	0.412841796875	1	lower	zerothre.ttf
2502187	WORD	wordpools/wasnorm_wordpool.txt	LTP145	ltpFR	19	15	0	SHRINE	1298	n/a	n/a	0	0.57763671875	0.412841796875	1	lower	zerothre.ttf
2506249	WORD	wordpools/wasnorm_wordpool.txt	LTP145	ltpFR	19	15	0	FACE	547	n/a	n/a	0	0.57763671875	0.412841796875	1	lower	zerothre.ttf
2510427	WORD	wordpools/wasnorm_wordpool.txt	LTP145	ltpFR	19	15	0	PRINCE	1124	n/a	n/a	1	0.57763671875	0.412841796875	1	lower	zerothre.ttf
2514563	WORD	wordpools/wasnorm_wordpool.txt	LTP145	ltpFR	19	15	0	SPHINX	1349	n/a	n/a	1	0.57763671875	0.412841796875	1	lower	zerothre.ttf
2518692	WORD	wordpools/wasnorm_wordpool.txt	LTP145	ltpFR	19	15	0	BUTTER	205	n/a	n/a	0	0.57763671875	0.412841796875	1	lower	zerothre.ttf
2522538	WORD	wordpools/wasnorm_wordpool.txt	LTP145	ltpFR	19	15	0	BANNER	85	n/a	n/a	0	0.57763671875	0.412841796875	1	lower	zerothre.ttf
2526691	WORD	wordpools/wasnorm_wordpool.txt	LTP145	ltpFR	19	15	0	STAR	1373	n/a	n/a	0	0.57763671875	0.412841796875	1	lower	zerothre.ttf
2532295	REC_START	n/a	LTP145	ltpFR	19	15	n/a	n/a	n/a	n/a	n/a	n/a	n/a	n/a	n/a	n/a	n/a
2533117	REC_WORD	wordpools/wasnorm_wordpool.txt	LTP145	ltpFR	19	15	0	STAR	1373	n/a	n/a	0	n/a	n/a	n/a	n/a	n/a
2534370	REC_WORD	wordpools/wasnorm_wordpool.txt	LTP145	ltpFR	19	15	0	BANNER	85	n/a	n/a	0	n/a	n/a	n/a	n/a	n/a
2543848	REC_WORD	wordpools/wasnorm_wordpool.txt	LTP145	ltpFR	19	15	0	SPHINX	1349	n/a	n/a	1	n/a	n/a	n/a	n/a	n/a
2570916	REC_WORD	wordpools/wasnorm_wordpool.txt	LTP145	ltpFR	19	15	-1	SIRLOIN	1311	n/a	n/a	-1	n/a	n/a	n/a	n/a	n/a
2577108	REC_WORD	wordpools/wasnorm_wordpool.txt	LTP145	ltpFR	19	15	0	JEEP	753	n/a	n/a	1	n/a	n/a	n/a	n/a	n/a
2577841	REC_WORD	wordpools/wasnorm_wordpool.txt	LTP145	ltpFR	19	15	0	TRUCK	1512	n/a	n/a	1	n/a	n/a	n/a	n/a	n/a
2614166	WORD	wordpools/wasnorm_wordpool.txt	LTP145	ltpFR	19	16	1	SALESMAN	1225	n/a	n/a	1	0.422607421875	0.5869140625	0	upper	amplitud.ttf
2618178	WORD	wordpools/wasnorm_wordpool.txt	LTP145	ltpFR	19	16	1	DRIVER	499	n/a	n/a	1	0.422607421875	0.5869140625	0	upper	amplitud.ttf
2622265	WORD	wordpools/wasnorm_wordpool.txt	LTP145	ltpFR	19	16	1	SUPPER	1411	n/a	n/a	0	0.422607421875	0.5869140625	0	upper	amplitud.ttf
2626393	WORD	wordpools/wasnorm_wordpool.txt	LTP145	ltpFR	19	16	1	UNICORN	1538	n/a	n/a	1	0.422607421875	0.5869140625	0	upper	amplitud.ttf
2630364	WORD	wordpools/wasnorm_wordpool.txt	LTP145	ltpFR	19	16	1	MOTHER	921	n/a	n/a	1	0.422607421875	0.5869140625	0	upper	amplitud.ttf
2634342	WORD	wordpools/wasnorm_wordpool.txt	LTP145	ltpFR	19	16	1	DART	440	n/a	n/a	0	0.422607421875	0.5869140625	0	upper	amplitud.ttf
2638413	WORD	wordpools/wasnorm_wordpool.txt	LTP145	ltpFR	19	16	1	PLAID	1080	n/a	n/a	0	0.422607421875	0.5869140625	0	upper	amplitud.ttf
2642557	WORD	wordpools/wasnorm_wordpool.txt	LTP145	ltpFR	19	16	1	DRESS	495	n/a	n/a	0	0.422607421875	0.5869140625	0	upper	amplitud.ttf
2646619	WORD	wordpools/wasnorm_wordpool.txt	LTP145	ltpFR	19	16	1	MANSION	864	n/a	n/a	0	0.422607421875	0.5869140625	0	upper	amplitud.ttf
2650689	WORD	wordpools/wasnorm_wordpool.txt	LTP145	ltpFR	19	16	1	BALL	73	n/a	n/a	0	0.422607421875	0.5869140625	0	upper	amplitud.ttf
2654668	WORD	wordpools/wasnorm_wordpool.txt	LTP145	ltpFR	19	16	1	DIAPER	459	n/a	n/a	0	0.422607421875	0.5869140625	0	upper	amplitud.ttf
2658655	WORD	wordpools/wasnorm_wordpool.txt	LTP145	ltpFR	19	16	1	PLUMBER	1091	n/a	n/a	1	0.422607421875	0.5869140625	0	upper	amplitud.ttf
2662675	WORD	wordpools/wasnorm_wordpool.txt	LTP145	ltpFR	19	16	1	CARPENTER	246	n/a	n/a	1	0.422607421875	0.5869140625	0	upper	amplitud.ttf
2666529	WORD	wordpools/wasnorm_wordpool.txt	LTP145	ltpFR	19	16	1	BASSINET	97	n/a	n/a	1	0.422607421875	0.5869140625	0	upper	amplitud.ttf
2670608	WORD	wordpools/wasnorm_wordpool.txt	LTP145	ltpFR	19	16	1	DIARY	460	n/a	n/a	0	0.422607421875	0.5869140625	0	upper	amplitud.ttf
2674553	WORD	wordpools/wasnorm_wordpool.txt	LTP145	ltpFR	19	16	1	SHINGLE	1285	n/a	n/a	0	0.422607421875	0.5869140625	0	upper	amplitud.ttf
2680381	REC_START	n/a	LTP145	ltpFR	19	16	n/a	n/a	n/a	n/a	n/a	n/a	n/a	n/a	n/a	n/a	n/a
2681563	REC_WORD	wordpools/wasnorm_wordpool.txt	LTP145	ltpFR	19	16	1	SHINGLE	1285	n/a	n/a	0	n/a	n/a	n/a	n/a	n/a
2682535	REC_WORD	wordpools/wasnorm_wordpool.txt	LTP145	ltpFR	19	16	1	SALESMAN	1225	n/a	n/a	1	n/a	n/a	n/a	n/a	n/a
2683535	REC_WORD_VV	wordpools/wasnorm_wordpool.txt	LTP145	ltpFR	19	16	n/a	<>	-1	n/a	n/a	n/a	n/a	n/a	n/a	n/a	n/a
2685185	REC_WORD	wordpools/wasnorm_wordpool.txt	LTP145	ltpFR	19	16	1	DRIVER	499	n/a	n/a	1	n/a	n/a	n/a	n/a	n/a
2686185	REC_WORD_VV	wordpools/wasnorm_wordpool.txt	LTP145	ltpFR	19	16	n/a	<>	-1	n/a	n/a	n/a	n/a	n/a	n/a	n/a	n/a
2686622	REC_WORD	wordpools/wasnorm_wordpool.txt	LTP145	ltpFR	19	16	1	CARPENTER	246	n/a	n/a	1	n/a	n/a	n/a	n/a	n/a
2693775	REC_WORD	wordpools/wasnorm_wordpool.txt	LTP145	ltpFR	19	16	1	BASSINET	97	n/a	n/a	1	n/a	n/a	n/a	n/a	n/a
2777028	REC_START	n/a	LTP145	ltpFR	19	1	n/a	n/a	n/a	n/a	n/a	n/a	n/a	n/a	n/a	n/a	n/a
2777060	RECOG_TARGET	n/a	LTP145	ltpFR	19	1	1	CAMEL	223	1	5	1	n/a	n/a	n/a	n/a	n/a
2778698	RECOG_RESP	n/a	LTP145	ltpFR	19	1	1	CAMEL	223	1	n/a	1	n/a	n/a	n/a	n/a	n/a
2779517	RECOG_CONF	n/a	LTP145	ltpFR	19	1	1	CAMEL	223	n/a	5	1	n/a	n/a	n/a	n/a	n/a
2781072	RECOG_TARGET	n/a	LTP145	ltpFR	19	1	1	BALL	73	0	1	0	n/a	n/a	n/a	n/a	n/a
2782631	RECOG_RESP	n/a	LTP145	ltpFR	19	1	1	BALL	73	0	n/a	0	n/a	n/a	n/a	n/a	n/a
2783322	RECOG_CONF	n/a	LTP145	ltpFR	19	1	1	BALL	73	n/a	1	0	n/a	n/a	n/a	n/a	n/a
2784817	RECOG_TARGET	n/a	LTP145	ltpFR	19	1	-1	MAT	877	1	5	-1	n/a	n/a	n/a	n/a	n/a
2785431	RECOG_RESP	n/a	LTP145	ltpFR	19	1	-1	MAT	877	1	n/a	-1	n/a	n/a	n/a	n/a	n/a
2786100	RECOG_CONF	n/a	LTP145	ltpFR	19	1	-1	MAT	877	n/a	5	-1	n/a	n/a	n/a	n/a	n/a
2787589	RECOG_LURE	n/a	LTP145	ltpFR	19	1	n/a	FUDGE	611	0	2	n/a	n/a	n/a	n/a	n/a	n/a
2788255	RECOG_RESP	n/a	LTP145	ltpFR	19	1	n/a	FUDGE	611	0	n/a	n/a	n/a	n/a	n/a	n/a	n/a
2788928	RECOG_CONF	n/a	LTP145	ltpFR	19	1	n/a	FUDGE	611	n/a	2	n/a	n/a	n/a	n/a	n/a	n/a
2790420	RECOG_TARGET	n/a	LTP145	ltpFR	19	1	-1	CARNIVAL	245	1	5	-1	n/a	n/a	n/a	n/a	n/a
2791126	RECOG_RESP	n/a	LTP145	ltpFR	19	1	-1	CARNIVAL	245	1	n/a	-1	n/a	n/a	n/a	n/a	n/a
2791818	RECOG_CONF	n/a	LTP145	ltpFR	19	1	-1	CARNIVAL	245	n/a	5	-1	n/a	n/a	n/a	n/a	n/a
2793366	RECOG_TARGET	n/a	LTP145	ltpFR	19	1	1	KANGAROO	768	1	5	1	n/a	n/a	n/a	n/a	n/a
2794026	RECOG_RESP	n/a	LTP145	ltpFR	19	1	1	KANGAROO	768	1	n/a	1	n/a	n/a	n/a	n/a	n/a
2794792	RECOG_CONF	n/a	LTP145	ltpFR	19	1	1	KANGAROO	768	n/a	5	1	n/a	n/a	n/a	n/a	n/a
2796147	RECOG_TARGET	n/a	LTP145	ltpFR	19	1	1	SALESMAN	1225	1	5	1	n/a	n/a	n/a	n/a	n/a
2797168	RECOG_RESP	n/a	LTP145	ltpFR	19	1	1	SALESMAN	1225	1	n/a	1	n/a	n/a	n/a	n/a	n/a
2797995	RECOG_CONF	n/a	LTP145	ltpFR	19	1	1	SALESMAN	1225	n/a	5	1	n/a	n/a	n/a	n/a	n/a
2799558	RECOG_TARGET	n/a	LTP145	ltpFR	19	1	-1	NOTEBOOK	959	1	5	-1	n/a	n/a	n/a	n/a	n/a
2800234	RECOG_RESP	n/a	LTP145	ltpFR	19	1	-1	NOTEBOOK	959	1	n/a	-1	n/a	n/a	n/a	n/a	n/a
2800948	RECOG_CONF	n/a	LTP145	ltpFR	19	1	-1	NOTEBOOK	959	n/a	5	-1	n/a	n/a	n/a	n/a	n/a
2802439	RECOG_TARGET	n/a	LTP145	ltpFR	19	1	0	CALCULATOR	220	1	5	0	n/a	n/a	n/a	n/a	n/a
2803182	RECOG_RESP	n/a	LTP145	ltpFR	19	1	0	CALCULATOR	220	1	n/a	0	n/a	n/a	n/a	n/a	n/a
2803894	RECOG_CONF	n/a	LTP145	ltpFR	19	1	0	CALCULATOR	220	n/a	5	0	n/a	n/a	n/a	n/a	n/a
2805444	RECOG_TARGET	n/a	LTP145	ltpFR	19	1	0	NICKEL	950	1	3	0	n/a	n/a	n/a	n/a	n/a
2806543	RECOG_RESP	n/a	LTP145	ltpFR	19	1	0	NICKEL	950	1	n/a	0	n/a	n/a	n/a	n/a	n/a
2808119	RECOG_CONF	n/a	LTP145	ltpFR	19	1	0	NICKEL	950	n/a	3	0	n/a	n/a	n/a	n/a	n/a
2809713	RECOG_TARGET	n/a	LTP145	ltpFR	19	1	0	ARM	38	1	4	0	n/a	n/a	n/a	n/a	n/a
2810620	RECOG_RESP	n/a	LTP145	ltpFR	19	1	0	ARM	38	1	n/a	0	n/a	n/a	n/a	n/a	n/a
2811595	RECOG_CONF	n/a	LTP145	ltpFR	19	1	0	ARM	38	n/a	4	0	n/a	n/a	n/a	n/a	n/a
2813335	RECOG_TARGET	n/a	LTP145	ltpFR	19	1	1	CARPENTER	246	1	5	1	n/a	n/a	n/a	n/a	n/a
2813932	RECOG_RESP	n/a	LTP145	ltpFR	19	1	1	CARPENTER	246	1	n/a	1	n/a	n/a	n/a	n/a	n/a
2814678	RECOG_CONF	n/a	LTP145	ltpFR	19	1	1	CARPENTER	246	n/a	5	1	n/a	n/a	n/a	n/a	n/a
2816273	RECOG_TARGET	n/a	LTP145	ltpFR	19	1	1	ANT	25	1	5	1	n/a	n/a	n/a	n/a	n/a
2816894	RECOG_RESP	n/a	LTP145	ltpFR	19	1	1	ANT	25	1	n/a	1	n/a	n/a	n/a	n/a	n/a
2817561	RECOG_CONF	n/a	LTP145	ltpFR	19	1	1	ANT	25	n/a	5	1	n/a	n/a	n/a	n/a	n/a
2819162	RECOG_LURE	n/a	LTP145	ltpFR	19	1	n/a	PRINTER	1126	0	1	n/a	n/a	n/a	n/a	n/a	n/a
2822149	RECOG_RESP	n/a	LTP145	ltpFR	19	1	n/a	PRINTER	1126	0	n/a	n/a	n/a	n/a	n/a	n/a	n/a
2822988	RECOG_CONF	n/a	LTP145	ltpFR	19	1	n/a	PRINTER	1126	n/a	1	n/a	n/a	n/a	n/a	n/a	n/a
2824571	RECOG_LURE	n/a	LTP145	ltpFR	19	1	n/a	JAPAN	749	0	2	n/a	n/a	n/a	n/a	n/a	n/a
2825398	RECOG_RESP	n/a	LTP145	ltpFR	19	1	n/a	JAPAN	749	0	n/a	n/a	n/a	n/a	n/a	n/a	n/a
2826095	RECOG_CONF	n/a	LTP145	ltpFR	19	1	n/a	JAPAN	749	n/a	2	n/a	n/a	n/a	n/a	n/a	n/a
2827592	RECOG_TARGET	n/a	LTP145	ltpFR	19	1	1	CEREAL	272	1	5	0	n/a	n/a	n/a	n/a	n/a
2828376	RECOG_RESP	n/a	LTP145	ltpFR	19	1	1	CEREAL	272	1	n/a	0	n/a	n/a	n/a	n/a	n/a
2829069	RECOG_CONF	n/a	LTP145	ltpFR	19	1	1	CEREAL	272	n/a	5	0	n/a	n/a	n/a	n/a	n/a
2830672	RECOG_TARGET	n/a	LTP145	ltpFR	19	1	1	BUTTERFLY	206	1	5	1	n/a	n/a	n/a	n/a	n/a
2831250	RECOG_RESP	n/a	LTP145	ltpFR	19	1	1	BUTTERFLY	206	1	n/a	1	n/a	n/a	n/a	n/a	n/a
2831998	RECOG_CONF	n/a	LTP145	ltpFR	19	1	1	BUTTERFLY	206	n/a	5	1	n/a	n/a	n/a	n/a	n/a
2833395	RECOG_TARGET	n/a	LTP145	ltpFR	19	1	0	CRUTCH	417	1	5	0	n/a	n/a	n/a	n/a	n/a
2834065	RECOG_RESP	n/a	LTP145	ltpFR	19	1	0	CRUTCH	417	1	n/a	0	n/a	n/a	n/a	n/a	n/a
2834797	RECOG_CONF	n/a	LTP145	ltpFR	19	1	0	CRUTCH	417	n/a	5	0	n/a	n/a	n/a	n/a	n/a
2836225	RECOG_TARGET	n/a	LTP145	ltpFR	19	1	-1	SHEPHERD	1283	1	5	-1	n/a	n/a	n/a	n/a	n/a
2836765	RECOG_RESP	n/a	LTP145	ltpFR	19	1	-1	SHEPHERD	1283	1	n/a	-1	n/a	n/a	n/a	n/a	n/a
2837506	RECOG_CONF	n/a	LTP145	ltpFR	19	1	-1	SHEPHERD	1283	n/a	5	-1	n/a	n/a	n/a	n/a	n/a
2838829	RECOG_TARGET	n/a	LTP145	ltpFR	19	1	-1	CYCLONE	431	1	5	-1	n/a	n/a	n/a	n/a	n/a
2839383	RECOG_RESP	n/a	LTP145	ltpFR	19	1	-1	CYCLONE	431	1	n/a	-1	n/a	n/a	n/a	n/a	n/a
2840121	RECOG_CONF	n/a	LTP145	ltpFR	19	1	-1	CYCLONE	431	n/a	5	-1	n/a	n/a	n/a	n/a	n/a
2845733	REC_START	n/a	LTP145	ltpFR	19	2	n/a	n/a	n/a	n/a	n/a	n/a	n/a	n/a	n/a	n/a	n/a
2845763	RECOG_TARGET	n/a	LTP145	ltpFR	19	2	1	CAP	236	1	5	0	n/a	n/a	n/a	n/a	n/a
2846406	RECOG_RESP	n/a	LTP145	ltpFR	19	2	1	CAP	236	1	n/a	0	n/a	n/a	n/a	n/a	n/a
2847138	RECOG_CONF	n/a	LTP145	ltpFR	19	2	1	CAP	236	n/a	5	0	n/a	n/a	n/a	n/a	n/a
2848685	RECOG_TARGET	n/a	LTP145	ltpFR	19	2	-1	CAVITY	264	1	5	-1	n/a	n/a	n/a	n/a	n/a
2849239	RECOG_RESP	n/a	LTP145	ltpFR	19	2	-1	CAVITY	264	1	n/a	-1	n/a	n/a	n/a	n/a	n/a
2849930	RECOG_CONF	n/a	LTP145	ltpFR	19	2	-1	CAVITY	264	n/a	5	-1	n/a	n/a	n/a	n/a	n/a
2851506	RECOG_LURE	n/a	LTP145	ltpFR	19	2	n/a	FOREST	593	1	2	n/a	n/a	n/a	n/a	n/a	n/a
2852067	RECOG_RESP	n/a	LTP145	ltpFR	19	2	n/a	FOREST	593	1	n/a	n/a	n/a	n/a	n/a	n/a	n/a
2852875	RECOG_CONF	n/a	LTP145	ltpFR	19	2	n/a	FOREST	593	n/a	2	n/a	n/a	n/a	n/a	n/a	n/a
2854454	RECOG_TARGET	n/a	LTP145	ltpFR	19	2	1	RATTLE	1170	1	5	0	n/a	n/a	n/a	n/a	n/a
2855060	RECOG_RESP	n/a	LTP145	ltpFR	19	2	1	RATTLE	1170	1	n/a	0	n/a	n/a	n/a	n/a	n/a
2855768	RECOG_CONF	n/a	LTP145	ltpFR	19	2	1	RATTLE	1170	n/a	5	0	n/a	n/a	n/a	n/a	n/a
2857326	RECOG_TARGET	n/a	LTP145	ltpFR	19	2	0	SPIDER	1351	1	5	0	n/a	n/a	n/a	n/a	n/a
2857871	RECOG_RESP	n/a	LTP145	ltpFR	19	2	0	SPIDER	1351	1	n/a	0	n/a	n/a	n/a	n/a	n/a
2858510	RECOG_CONF	n/a	LTP145	ltpFR	19	2	0	SPIDER	1351	n/a	5	0	n/a	n/a	n/a	n/a	n/a
2860023	RECOG_TARGET	n/a	LTP145	ltpFR	19	2	0	WINDOW	1611	1	5	0	n/a	n/a	n/a	n/a	n/a
2860442	RECOG_RESP	n/a	LTP145	ltpFR	19	2	0	WINDOW	1611	1	n/a	0	n/a	n/a	n/a	n/a	n/a
2861188	RECOG_CONF	n/a	LTP145	ltpFR	19	2	0	WINDOW	1611	n/a	5	0	n/a	n/a	n/a	n/a	n/a
2862544	RECOG_TARGET	n/a	LTP145	ltpFR	19	2	1	YOUTH	1634	1	5	1	n/a	n/a	n/a	n/a	n/a
2863093	RECOG_RESP	n/a	LTP145	ltpFR	19	2	1	YOUTH	1634	1	n/a	1	n/a	n/a	n/a	n/a	n/a
2863783	RECOG_CONF	n/a	LTP145	ltpFR	19	2	1	YOUTH	1634	n/a	5	1	n/a	n/a	n/a	n/a	n/a
2865250	RECOG_TARGET	n/a	LTP145	ltpFR	19	2	0	MICROWAVE	892	1	5	1	n/a	n/a	n/a	n/a	n/a
2865833	RECOG_RESP	n/a	LTP145	ltpFR	19	2	0	MICROWAVE	892	1	n/a	1	n/a	n/a	n/a	n/a	n/a
2866517	RECOG_CONF	n/a	LTP145	ltpFR	19	2	0	MICROWAVE	892	n/a	5	1	n/a	n/a	n/a	n/a	n/a
2867921	RECOG_LURE	n/a	LTP145	ltpFR	19	2	n/a	SALOON	1228	0	1	n/a	n/a	n/a	n/a	n/a	n/a
2869087	RECOG_RESP	n/a	LTP145	ltpFR	19	2	n/a	SALOON	1228	0	n/a	n/a	n/a	n/a	n/a	n/a	n/a
2869762	RECOG_CONF	n/a	LTP145	ltpFR	19	2	n/a	SALOON	1228	n/a	1	n/a	n/a	n/a	n/a	n/a	n/a
2871293	RECOG_TARGET	n/a	LTP145	ltpFR	19	2	1	CHILD	299	0	1	1	n/a	n/a	n/a	n/a	n/a
2871983	RECOG_RESP	n/a	LTP145	ltpFR	19	2	1	CHILD	299	0	n/a	1	n/a	n/a	n/a	n/a	n/a
2872668	RECOG_CONF	n/a	LTP145	ltpFR	19	2	1	CHILD	299	n/a	1	1	n/a	n/a	n/a	n/a	n/a
2874181	RECOG_TARGET	n/a	LTP145	ltpFR	19	2	0	TRAITOR	1495	1	2	1	n/a	n/a	n/a	n/a	n/a
2874928	RECOG_RESP	n/a	LTP145	ltpFR	19	2	0	TRAITOR	1495	1	n/a	1	n/a	n/a	n/a	n/a	n/a
2875657	RECOG_CONF	n/a	LTP145	ltpFR	19	2	0	TRAITOR	1495	n/a	2	1	n/a	n/a	n/a	n/a	n/a
2877169	RECOG_TARGET	n/a	LTP145	ltpFR	19	2	-1	PUMP	1141	1	5	-1	n/a	n/a	n/a	n/a	n/a
2877791	RECOG_RESP	n/a	LTP145	ltpFR	19	2	-1	PUMP	1141	1	n/a	-1	n/a	n/a	n/a	n/a	n/a
2878434	RECOG_CONF	n/a	LTP145	ltpFR	19	2	-1	PUMP	1141	n/a	5	-1	n/a	n/a	n/a	n/a	n/a
2879958	RECOG_LURE	n/a	LTP145	ltpFR	19	2	n/a	DAD	433	1	1	n/a	n/a	n/a	n/a	n/a	n/a
2881453	RECOG_RESP	n/a	LTP145	ltpFR	19	2	n/a	DAD	433	1	n/a	n/a	n/a	n/a	n/a	n/a	n/a
2882223	RECOG_CONF	n/a	LTP145	ltpFR	19	2	n/a	DAD	433	n/a	1	n/a	n/a	n/a	n/a	n/a	n/a
2883844	RECOG_TARGET	n/a	LTP145	ltpFR	19	2	1	KING	777	1	5	1	n/a	n/a	n/a	n/a	n/a
2884616	RECOG_RESP	n/a	LTP145	ltpFR	19	2	1	KING	777	1	n/a	1	n/a	n/a	n/a	n/a	n/a
2885339	RECOG_CONF	n/a	LTP145	ltpFR	19	2	1	KING	777	n/a	5	1	n/a	n/a	n/a	n/a	n/a
2886915	RECOG_LURE	n/a	LTP145	ltpFR	19	2	n/a	SHAMPOO	1274	0	2	n/a	n/a	n/a	n/a	n/a	n/a
2887816	RECOG_RESP	n/a	LTP145	ltpFR	19	2	n/a	SHAMPOO	1274	0	n/a	n/a	n/a	n/a	n/a	n/a	n/a
2888523	RECOG_CONF	n/a	LTP145	ltpFR	19	2	n/a	SHAMPOO	1274	n/a	2	n/a	n/a	n/a	n/a	n/a	n/a
2890079	RECOG_TARGET	n/a	LTP145	ltpFR	19	2	0	TYPEWRITER	1531	1	5	1	n/a	n/a	n/a	n/a	n/a
2890780	RECOG_RESP	n/a	LTP145	ltpFR	19	2	0	TYPEWRITER	1531	1	n/a	1	n/a	n/a	n/a	n/a	n/a
2891554	RECOG_CONF	n/a	LTP145	ltpFR	19	2	0	TYPEWRITER	1531	n/a	5	1	n/a	n/a	n/a	n/a	n/a
2893018	RECOG_TARGET	n/a	LTP145	ltpFR	19	2	-1	SAXOPHONE	1240	1	5	-1	n/a	n/a	n/a	n/a	n/a
2893627	RECOG_RESP	n/a	LTP145	ltpFR	19	2	-1	SAXOPHONE	1240	1	n/a	-1	n/a	n/a	n/a	n/a	n/a
2894251	RECOG_CONF	n/a	LTP145	ltpFR	19	2	-1	SAXOPHONE	1240	n/a	5	-1	n/a	n/a	n/a	n/a	n/a
2895822	RECOG_LURE	n/a	LTP145	ltpFR	19	2	n/a	ACROBAT	4	0	2	n/a	n/a	n/a	n/a	n/a	n/a
2896562	RECOG_RESP	n/a	LTP145	ltpFR	19	2	n/a	ACROBAT	4	0	n/a	n/a	n/a	n/a	n/a	n/a	n/a
2897190	RECOG_CONF	n/a	LTP145	ltpFR	19	2	n/a	ACROBAT	4	n/a	2	n/a	n/a	n/a	n/a	n/a	n/a
2898735	RECOG_TARGET	n/a	LTP145	ltpFR	19	2	0	UMPIRE	1535	1	5	1	n/a	n/a	n/a	n/a	n/a
2899514	RECOG_RESP	n/a	LTP145	ltpFR	19	2	0	UMPIRE	1535	1	n/a	1	n/a	n/a	n/a	n/a	n/a
2900202	RECOG_CONF	n/a	LTP145	ltpFR	19	2	0	UMPIRE	1535	n/a	5	1	n/a	n/a	n/a	n/a	n/a
2901698	RECOG_LURE	n/a	LTP145	ltpFR	19	2	n/a	CREW	406	0	2	n/a	n/a	n/a	n/a	n/a	n/a
2902342	RECOG_RESP	n/a	LTP145	ltpFR	19	2	n/a	CREW	406	0	n/a	n/a	n/a	n/a	n/a	n/a	n/a
2903082	RECOG_CONF	n/a	LTP145	ltpFR	19	2	n/a	CREW	406	n/a	2	n/a	n/a	n/a	n/a	n/a	n/a
2906226	REC_START	n/a	LTP145	ltpFR	19	3	n/a	n/a	n/a	n/a	n/a	n/a	n/a	n/a	n/a	n/a	n/a
2906252	RECOG_TARGET	n/a	LTP145	ltpFR	19	3	0	SCROLL	1257	1	5	0	n/a	n/a	n/a	n/a	n/a
2906926	RECOG_RESP	n/a	LTP145	ltpFR	19	3	0	SCROLL	1257	1	n/a	0	n/a	n/a	n/a	n/a	n/a
2907567	RECOG_CONF	n/a	LTP145	ltpFR	19	3	0	SCROLL	1257	n/a	5	0	n/a	n/a	n/a	n/a	n/a
2909107	RECOG_TARGET	n/a	LTP145	ltpFR	19	3	1	VEST	1559	1	5	0	n/a	n/a	n/a	n/a	n/a
2909734	RECOG_RESP	n/a	LTP145	ltpFR	19	3	1	VEST	1559	1	n/a	0	n/a	n/a	n/a	n/a	n/a
2910524	RECOG_CONF	n/a	LTP145	ltpFR	19	3	1	VEST	1559	n/a	5	0	n/a	n/a	n/a	n/a	n/a
2911812	RECOG_LURE	n/a	LTP145	ltpFR	19	3	n/a	REEF	1177	0	1	n/a	n/a	n/a	n/a	n/a	n/a
2912614	RECOG_RESP	n/a	LTP145	ltpFR	19	3	n/a	REEF	1177	0	n/a	n/a	n/a	n/a	n/a	n/a	n/a
2913345	RECOG_CONF	n/a	LTP145	ltpFR	19	3	n/a	REEF	1177	n/a	1	n/a	n/a	n/a	n/a	n/a	n/a
2914800	RECOG_TARGET	n/a	LTP145	ltpFR	19	3	1	SUPPER	1411	1	2	0	n/a	n/a	n/a	n/a	n/a
2915503	RECOG_RESP	n/a	LTP145	ltpFR	19	3	1	SUPPER	1411	1	n/a	0	n/a	n/a	n/a	n/a	n/a
2916218	RECOG_CONF	n/a	LTP145	ltpFR	19	3	1	SUPPER	1411	n/a	2	0	n/a	n/a	n/a	n/a	n/a
2917680	RECOG_TARGET	n/a	LTP145	ltpFR	19	3	-1	NAIL	936	1	2	-1	n/a	n/a	n/a	n/a	n/a
2918323	RECOG_RESP	n/a	LTP145	ltpFR	19	3	-1	NAIL	936	1	n/a	-1	n/a	n/a	n/a	n/a	n/a
2919104	RECOG_CONF	n/a	LTP145	ltpFR	19	3	-1	NAIL	936	n/a	2	-1	n/a	n/a	n/a	n/a	n/a
2920626	RECOG_TARGET	n/a	LTP145	ltpFR	19	3	-1	NICOTINE	951	1	5	-1	n/a	n/a	n/a	n/a	n/a
2921261	RECOG_RESP	n/a	LTP145	ltpFR	19	3	-1	NICOTINE	951	1	n/a	-1	n/a	n/a	n/a	n/a	n/a
2921965	RECOG_CONF	n/a	LTP145	ltpFR	19	3	-1	NICOTINE	951	n/a	5	-1	n/a	n/a	n/a	n/a	n/a
2923374	RECOG_TARGET	n/a	LTP145	ltpFR	19	3	0	GAZELLE	628	1	5	1	n/a	n/a	n/a	n/a	n/a
2923951	RECOG_RESP	n/a	LTP145	ltpFR	19	3	0	GAZELLE	628	1	n/a	1	n/a	n/a	n/a	n/a	n/a
2924709	RECOG_CONF	n/a	LTP145	ltpFR	19	3	0	GAZELLE	628	n/a	5	1	n/a	n/a	n/a	n/a	n/a
2925988	RECOG_TARGET	n/a	LTP145	ltpFR	19	3	1	GANGSTER	620	1	5	1	n/a	n/a	n/a	n/a	n/a
2926533	RECOG_RESP	n/a	LTP145	ltpFR	19	3	1	GANGSTER	620	1	n/a	1	n/a	n/a	n/a	n/a	n/a
2927221	RECOG_CONF	n/a	LTP145	ltpFR	19	3	1	GANGSTER	620	n/a	5	1	n/a	n/a	n/a	n/a	n/a
2928684	RECOG_TARGET	n/a	LTP145	ltpFR	19	3	0	BUTTER	205	1	5	0	n/a	n/a	n/a	n/a	n/a
2929238	RECOG_RESP	n/a	LTP145	ltpFR	19	3	0	BUTTER	205	1	n/a	0	n/a	n/a	n/a	n/a	n/a
2929965	RECOG_CONF	n/a	LTP145	ltpFR	19	3	0	BUTTER	205	n/a	5	0	n/a	n/a	n/a	n/a	n/a
2931382	RECOG_TARGET	n/a	LTP145	ltpFR	19	3	-1	FOE	587	1	5	-1	n/a	n/a	n/a	n/a	n/a
2932191	RECOG_RESP	n/a	LTP145	ltpFR	19	3	-1	FOE	587	1	n/a	-1	n/a	n/a	n/a	n/a	n/a
2932880	RECOG_CONF	n/a	LTP145	ltpFR	19	3	-1	FOE	587	n/a	5	-1	n/a	n/a	n/a	n/a	n/a
2934345	RECOG_TARGET	n/a	LTP145	ltpFR	19	3	1	PUPPY	1144	1	5	1	n/a	n/a	n/a	n/a	n/a
2934945	RECOG_RESP	n/a	LTP145	ltpFR	19	3	1	PUPPY	1144	1	n/a	1	n/a	n/a	n/a	n/a	n/a
2935618	RECOG_CONF	n/a	LTP145	ltpFR	19	3	1	PUPPY	1144	n/a	5	1	n/a	n/a	n/a	n/a	n/a
2937116	RECOG_TARGET	n/a	LTP145	ltpFR	19	3	0	THIEF	1456	1	5	1	n/a	n/a	n/a	n/a	n/a
2937629	RECOG_RESP	n/a	LTP145	ltpFR	19	3	0	THIEF	1456	1	n/a	1	n/a	n/a	n/a	n/a	n/a
2938263	RECOG_CONF	n/a	LTP145	ltpFR	19	3	0	THIEF	1456	n/a	5	1	n/a	n/a	n/a	n/a	n/a
2939762	RECOG_TARGET	n/a	LTP145	ltpFR	19	3	0	RACCOON	1153	1	5	0	n/a	n/a	n/a	n/a	n/a
2940283	RECOG_RESP	n/a	LTP145	ltpFR	19	3	0	RACCOON	1153	1	n/a	0	n/a	n/a	n/a	n/a	n/a
2940948	RECOG_CONF	n/a	LTP145	ltpFR	19	3	0	RACCOON	1153	n/a	5	0	n/a	n/a	n/a	n/a	n/a
2942277	RECOG_TARGET	n/a	LTP145	ltpFR	19	3	-1	UNIVERSE	1540	1	5	-1	n/a	n/a	n/a	n/a	n/a
2942876	RECOG_RESP	n/a	LTP145	ltpFR	19	3	-1	UNIVERSE	1540	1	n/a	-1	n/a	n/a	n/a	n/a	n/a
2943532	RECOG_CONF	n/a	LTP145	ltpFR	19	3	-1	UNIVERSE	1540	n/a	5	-1	n/a	n/a	n/a	n/a	n/a
2944974	RECOG_TARGET	n/a	LTP145	ltpFR	19	3	1	CATCHER	258	1	1	1	n/a	n/a	n/a	n/a	n/a
2947222	RECOG_RESP	n/a	LTP145	ltpFR	19	3	1	CATCHER	258	1	n/a	1	n/a	n/a	n/a	n/a	n/a
2948063	RECOG_CONF	n/a	LTP145	ltpFR	19	3	1	CATCHER	258	n/a	1	1	n/a	n/a	n/a	n/a	n/a
2949634	RECOG_TARGET	n/a	LTP145	ltpFR	19	3	-1	LIST	830	1	5	-1	n/a	n/a	n/a	n/a	n/a
2950277	RECOG_RESP	n/a	LTP145	ltpFR	19	3	-1	LIST	830	1	n/a	-1	n/a	n/a	n/a	n/a	n/a
2950950	RECOG_CONF	n/a	LTP145	ltpFR	19	3	-1	LIST	830	n/a	5	-1	n/a	n/a	n/a	n/a	n/a
2952324	RECOG_LURE	n/a	LTP145	ltpFR	19	3	n/a	STORE	1387	1	1	n/a	n/a	n/a	n/a	n/a	n/a
2954311	RECOG_RESP	n/a	LTP145	ltpFR	19	3	n/a	STORE	1387	1	n/a	n/a	n/a	n/a	n/a	n/a	n/a
2955073	RECOG_CONF	n/a	LTP145	ltpFR	19	3	n/a	STORE	1387	n/a	1	n/a	n/a	n/a	n/a	n/a	n/a
2956601	RECOG_TARGET	n/a	LTP145	ltpFR	19	3	-1	CHOCOLATE	306	1	5	-1	n/a	n/a	n/a	n/a	n/a
2957293	RECOG_RESP	n/a	LTP145	ltpFR	19	3	-1	CHOCOLATE	306	1	n/a	-1	n/a	n/a	n/a	n/a	n/a
2958073	RECOG_CONF	n/a	LTP145	ltpFR	19	3	-1	CHOCOLATE	306	n/a	5	-1	n/a	n/a	n/a	n/a	n/a
2959357	RECOG_TARGET	n/a	LTP145	ltpFR	19	3	0	TAPIOCA	1434	1	5	0	n/a	n/a	n/a	n/a	n/a
2959958	RECOG_RESP	n/a	LTP145	ltpFR	19	3	0	TAPIOCA	1434	1	n/a	0	n/a	n/a	n/a	n/a	n/a
2960622	RECOG_CONF	n/a	LTP145	ltpFR	19	3	0	TAPIOCA	1434	n/a	5	0	n/a	n/a	n/a	n/a	n/a
2962096	RECOG_TARGET	n/a	LTP145	ltpFR	19	3	-1	OATMEAL	967	1	5	-1	n/a	n/a	n/a	n/a	n/a
2962614	RECOG_RESP	n/a	LTP145	ltpFR	19	3	-1	OATMEAL	967	1	n/a	-1	n/a	n/a	n/a	n/a	n/a
2963248	RECOG_CONF	n/a	LTP145	ltpFR	19	3	-1	OATMEAL	967	n/a	5	-1	n/a	n/a	n/a	n/a	n/a
2966324	REC_START	n/a	LTP145	ltpFR	19	4	n/a	n/a	n/a	n/a	n/a	n/a	n/a	n/a	n/a	n/a	n/a
2966349	RECOG_TARGET	n/a	LTP145	ltpFR	19	4	1	PORTRAIT	1111	1	5	0	n/a	n/a	n/a	n/a	n/a
2967031	RECOG_RESP	n/a	LTP145	ltpFR	19	4	1	PORTRAIT	1111	1	n/a	0	n/a	n/a	n/a	n/a	n/a
2967700	RECOG_CONF	n/a	LTP145	ltpFR	19	4	1	PORTRAIT	1111	n/a	5	0	n/a	n/a	n/a	n/a	n/a
2969254	RECOG_TARGET	n/a	LTP145	ltpFR	19	4	0	DECK	443	1	5	1	n/a	n/a	n/a	n/a	n/a
2969945	RECOG_RESP	n/a	LTP145	ltpFR	19	4	0	DECK	443	1	n/a	1	n/a	n/a	n/a	n/a	n/a
2970699	RECOG_CONF	n/a	LTP145	ltpFR	19	4	0	DECK	443	n/a	5	1	n/a	n/a	n/a	n/a	n/a
2972093	RECOG_TARGET	n/a	LTP145	ltpFR	19	4	0	GYM	674	1	5	1	n/a	n/a	n/a	n/a	n/a
2972635	RECOG_RESP	n/a	LTP145	ltpFR	19	4	0	GYM	674	1	n/a	1	n/a	n/a	n/a	n/a	n/a
2973266	RECOG_CONF	n/a	LTP145	ltpFR	19	4	0	GYM	674	n/a	5	1	n/a	n/a	n/a	n/a	n/a
2974764	RECOG_TARGET	n/a	LTP145	ltpFR	19	4	0	MOSS	918	1	5	0	n/a	n/a	n/a	n/a	n/a
2975399	RECOG_RESP	n/a	LTP145	ltpFR	19	4	0	MOSS	918	1	n/a	0	n/a	n/a	n/a	n/a	n/a
2976082	RECOG_CONF	n/a	LTP145	ltpFR	19	4	0	MOSS	918	n/a	5	0	n/a	n/a	n/a	n/a	n/a
2977494	RECOG_TARGET	n/a	LTP145	ltpFR	19	4	1	HEATER	698	1	5	0	n/a	n/a	n/a	n/a	n/a
2978029	RECOG_RESP	n/a	LTP145	ltpFR	19	4	1	HEATER	698	1	n/a	0	n/a	n/a	n/a	n/a	n/a
2978711	RECOG_CONF	n/a	LTP145	ltpFR	19	4	1	HEATER	698	n/a	5	0	n/a	n/a	n/a	n/a	n/a
2980183	RECOG_TARGET	n/a	LTP145	ltpFR	19	4	-1	CONTAINER	366	1	5	-1	n/a	n/a	n/a	n/a	n/a
2980819	RECOG_RESP	n/a	LTP145	ltpFR	19	4	-1	CONTAINER	366	1	n/a	-1	n/a	n/a	n/a	n/a	n/a
2981362	RECOG_CONF	n/a	LTP145	ltpFR	19	4	-1	CONTAINER	366	n/a	5	-1	n/a	n/a	n/a	n/a	n/a
2982904	RECOG_LURE	n/a	LTP145	ltpFR	19	4	n/a	WARRIOR	1589	0	1	n/a	n/a	n/a	n/a	n/a	n/a
2983599	RECOG_RESP	n/a	LTP145	ltpFR	19	4	n/a	WARRIOR	1589	0	n/a	n/a	n/a	n/a	n/a	n/a	n/a
2984263	RECOG_CONF	n/a	LTP145	ltpFR	19	4	n/a	WARRIOR	1589	n/a	1	n/a	n/a	n/a	n/a	n/a	n/a
2985842	RECOG_LURE	n/a	LTP145	ltpFR	19	4	n/a	OREGANO	983	0	2	n/a	n/a	n/a	n/a	n/a	n/a
2986673	RECOG_RESP	n/a	LTP145	ltpFR	19	4	n/a	OREGANO	983	0	n/a	n/a	n/a	n/a	n/a	n/a	n/a
2987397	RECOG_CONF	n/a	LTP145	ltpFR	19	4	n/a	OREGANO	983	n/a	2	n/a	n/a	n/a	n/a	n/a	n/a
2988889	RECOG_LURE	n/a	LTP145	ltpFR	19	4	n/a	BOMB	147	0	2	n/a	n/a	n/a	n/a	n/a	n/a
2989628	RECOG_RESP	n/a	LTP145	ltpFR	19	4	n/a	BOMB	147	0	n/a	n/a	n/a	n/a	n/a	n/a	n/a
2990273	RECOG_CONF	n/a	LTP145	ltpFR	19	4	n/a	BOMB	147	n/a	2	n/a	n/a	n/a	n/a	n/a	n/a
2991702	RECOG_LURE	n/a	LTP145	ltpFR	19	4	n/a	GROUND	666	1	5	n/a	n/a	n/a	n/a	n/a	n/a
2992435	RECOG_RESP	n/a	LTP145	ltpFR	19	4	n/a	GROUND	666	1	n/a	n/a	n/a	n/a	n/a	n/a	n/a
2992999	RECOG_CONF	n/a	LTP145	ltpFR	19	4	n/a	GROUND	666	n/a	5	n/a	n/a	n/a	n/a	n/a	n/a
2994516	RECOG_TARGET	n/a	LTP145	ltpFR	19	4	-1	PAIL	1002	1	5	-1	n/a	n/a	n/a	n/a	n/a
2995260	RECOG_RESP	n/a	LTP145	ltpFR	19	4	-1	PAIL	1002	1	n/a	-1	n/a	n/a	n/a	n/a	n/a
2995961	RECOG_CONF	n/a	LTP145	ltpFR	19	4	-1	PAIL	1002	n/a	5	-1	n/a	n/a	n/a	n/a	n/a
2997447	RECOG_TARGET	n/a	LTP145	ltpFR	19	4	1	MANSION	864	1	5	0	n/a	n/a	n/a	n/a	n/a
2997997	RECOG_RESP	n/a	LTP145	ltpFR	19	4	1	MANSION	864	1	n/a	0	n/a	n/a	n/a	n/a	n/a
2998765	RECOG_CONF	n/a	LTP145	ltpFR	19	4	1	MANSION	864	n/a	5	0	n/a	n/a	n/a	n/a	n/a
3000168	RECOG_TARGET	n/a	LTP145	ltpFR	19	4	-1	CANE	231	1	2	-1	n/a	n/a	n/a	n/a	n/a
3000839	RECOG_RESP	n/a	LTP145	ltpFR	19	4	-1	CANE	231	1	n/a	-1	n/a	n/a	n/a	n/a	n/a
3001492	RECOG_CONF	n/a	LTP145	ltpFR	19	4	-1	CANE	231	n/a	2	-1	n/a	n/a	n/a	n/a	n/a
3003023	RECOG_TARGET	n/a	LTP145	ltpFR	19	4	1	LIP	828	1	5	0	n/a	n/a	n/a	n/a	n/a
3003571	RECOG_RESP	n/a	LTP145	ltpFR	19	4	1	LIP	828	1	n/a	0	n/a	n/a	n/a	n/a	n/a
3004223	RECOG_CONF	n/a	LTP145	ltpFR	19	4	1	LIP	828	n/a	5	0	n/a	n/a	n/a	n/a	n/a
3005728	RECOG_TARGET	n/a	LTP145	ltpFR	19	4	0	NECKLACE	940	1	5	0	n/a	n/a	n/a	n/a	n/a
3006391	RECOG_RESP	n/a	LTP145	ltpFR	19	4	0	NECKLACE	940	1	n/a	0	n/a	n/a	n/a	n/a	n/a
3007086	RECOG_CONF	n/a	LTP145	ltpFR	19	4	0	NECKLACE	940	n/a	5	0	n/a	n/a	n/a	n/a	n/a
3008483	RECOG_TARGET	n/a	LTP145	ltpFR	19	4	1	CHIPMUNK	304	1	5	1	n/a	n/a	n/a	n/a	n/a
3009069	RECOG_RESP	n/a	LTP145	ltpFR	19	4	1	CHIPMUNK	304	1	n/a	1	n/a	n/a	n/a	n/a	n/a
3009730	RECOG_CONF	n/a	LTP145	ltpFR	19	4	1	CHIPMUNK	304	n/a	5	1	n/a	n/a	n/a	n/a	n/a
3011314	RECOG_TARGET	n/a	LTP145	ltpFR	19	4	1	MOTH	920	1	5	0	n/a	n/a	n/a	n/a	n/a
3011803	RECOG_RESP	n/a	LTP145	ltpFR	19	4	1	MOTH	920	1	n/a	0	n/a	n/a	n/a	n/a	n/a
3012404	RECOG_CONF	n/a	LTP145	ltpFR	19	4	1	MOTH	920	n/a	5	0	n/a	n/a	n/a	n/a	n/a
3013818	RECOG_TARGET	n/a	LTP145	ltpFR	19	4	0	ROSE	1212	1	5	0	n/a	n/a	n/a	n/a	n/a
3014364	RECOG_RESP	n/a	LTP145	ltpFR	19	4	0	ROSE	1212	1	n/a	0	n/a	n/a	n/a	n/a	n/a
3014968	RECOG_CONF	n/a	LTP145	ltpFR	19	4	0	ROSE	1212	n/a	5	0	n/a	n/a	n/a	n/a	n/a
3016408	RECOG_TARGET	n/a	LTP145	ltpFR	19	4	1	MOWER	928	1	2	0	n/a	n/a	n/a	n/a	n/a
3016895	RECOG_RESP	n/a	LTP145	ltpFR	19	4	1	MOWER	928	1	n/a	0	n/a	n/a	n/a	n/a	n/a
3017544	RECOG_CONF	n/a	LTP145	ltpFR	19	4	1	MOWER	928	n/a	2	0	n/a	n/a	n/a	n/a	n/a
3019030	RECOG_TARGET	n/a	LTP145	ltpFR	19	4	0	HEADBAND	696	1	2	0	n/a	n/a	n/a	n/a	n/a
3019498	RECOG_RESP	n/a	LTP145	ltpFR	19	4	0	HEADBAND	696	1	n/a	0	n/a	n/a	n/a	n/a	n/a
3020043	RECOG_CONF	n/a	LTP145	ltpFR	19	4	0	HEADBAND	696	n/a	2	0	n/a	n/a	n/a	n/a	n/a
3025614	REC_START	n/a	LTP145	ltpFR	19	5	n/a	n/a	n/a	n/a	n/a	n/a	n/a	n/a	n/a	n/a	n/a
3025638	RECOG_TARGET	n/a	LTP145	ltpFR	19	5	0	JEEP	753	1	5	1	n/a	n/a	n/a	n/a	n/a
3026305	RECOG_RESP	n/a	LTP145	ltpFR	19	5	0	JEEP	753	1	n/a	1	n/a	n/a	n/a	n/a	n/a
3026896	RECOG_CONF	n/a	LTP145	ltpFR	19	5	0	JEEP	753	n/a	5	1	n/a	n/a	n/a	n/a	n/a
3028294	RECOG_TARGET	n/a	LTP145	ltpFR	19	5	0	DILL	465	1	5	0	n/a	n/a	n/a	n/a	n/a
3028793	RECOG_RESP	n/a	LTP145	ltpFR	19	5	0	DILL	465	1	n/a	0	n/a	n/a	n/a	n/a	n/a
3029370	RECOG_CONF	n/a	LTP145	ltpFR	19	5	0	DILL	465	n/a	5	0	n/a	n/a	n/a	n/a	n/a
3030724	RECOG_TARGET	n/a	LTP145	ltpFR	19	5	-1	STONE	1385	1	5	-1	n/a	n/a	n/a	n/a	n/a
3031237	RECOG_RESP	n/a	LTP145	ltpFR	19	5	-1	STONE	1385	1	n/a	-1	n/a	n/a	n/a	n/a	n/a
3031805	RECOG_CONF	n/a	LTP145	ltpFR	19	5	-1	STONE	1385	n/a	5	-1	n/a	n/a	n/a	n/a	n/a
3033288	RECOG_TARGET	n/a	LTP145	ltpFR	19	5	-1	CATERPILLAR	259	1	5	-1	n/a	n/a	n/a	n/a	n/a
3033642	RECOG_RESP	n/a	LTP145	ltpFR	19	5	-1	CATERPILLAR	259	1	n/a	-1	n/a	n/a	n/a	n/a	n/a
3034249	RECOG_CONF	n/a	LTP145	ltpFR	19	5	-1	CATERPILLAR	259	n/a	5	-1	n/a	n/a	n/a	n/a	n/a
3035809	RECOG_TARGET	n/a	LTP145	ltpFR	19	5	0	BREAST	171	1	5	0	n/a	n/a	n/a	n/a	n/a
3036359	RECOG_RESP	n/a	LTP145	ltpFR	19	5	0	BREAST	171	1	n/a	0	n/a	n/a	n/a	n/a	n/a
3036963	RECOG_CONF	n/a	LTP145	ltpFR	19	5	0	BREAST	171	n/a	5	0	n/a	n/a	n/a	n/a	n/a
3038473	RECOG_TARGET	n/a	LTP145	ltpFR	19	5	-1	COMMITTEE	355	1	5	-1	n/a	n/a	n/a	n/a	n/a
3039183	RECOG_RESP	n/a	LTP145	ltpFR	19	5	-1	COMMITTEE	355	1	n/a	-1	n/a	n/a	n/a	n/a	n/a
3039757	RECOG_CONF	n/a	LTP145	ltpFR	19	5	-1	COMMITTEE	355	n/a	5	-1	n/a	n/a	n/a	n/a	n/a
3041221	RECOG_TARGET	n/a	LTP145	ltpFR	19	5	0	LEG	809	0	1	0	n/a	n/a	n/a	n/a	n/a
3041800	RECOG_RESP_VV	n/a	LTP145	ltpFR	19	5	0	LEG	809	1	n/a	0	n/a	n/a	n/a	n/a	n/a
3042753	RECOG_RESP	n/a	LTP145	ltpFR	19	5	0	LEG	809	0	n/a	0	n/a	n/a	n/a	n/a	n/a
3043264	RECOG_CONF	n/a	LTP145	ltpFR	19	5	0	LEG	809	n/a	1	0	n/a	n/a	n/a	n/a	n/a
3044967	RECOG_TARGET	n/a	LTP145	ltpFR	19	5	0	INN	739	1	5	1	n/a	n/a	n/a	n/a	n/a
3045579	RECOG_RESP	n/a	LTP145	ltpFR	19	5	0	INN	739	1	n/a	1	n/a	n/a	n/a	n/a	n/a
3046202	RECOG_CONF	n/a	LTP145	ltpFR	19	5	0	INN	739	n/a	5	1	n/a	n/a	n/a	n/a	n/a
3047687	RECOG_LURE	n/a	LTP145	ltpFR	19	5	n/a	COMPASS	358	0	1	n/a	n/a	n/a	n/a	n/a	n/a
3048418	RECOG_RESP	n/a	LTP145	ltpFR	19	5	n/a	COMPASS	358	0	n/a	n/a	n/a	n/a	n/a	n/a	n/a
3048975	RECOG_CONF	n/a	LTP145	ltpFR	19	5	n/a	COMPASS	358	n/a	1	n/a	n/a	n/a	n/a	n/a	n/a
3050443	RECOG_TARGET	n/a	LTP145	ltpFR	19	5	0	CREATURE	403	1	5	1	n/a	n/a	n/a	n/a	n/a
3051041	RECOG_RESP	n/a	LTP145	ltpFR	19	5	0	CREATURE	403	1	n/a	1	n/a	n/a	n/a	n/a	n/a
3051640	RECOG_CONF	n/a	LTP145	ltpFR	19	5	0	CREATURE	403	n/a	5	1	n/a	n/a	n/a	n/a	n/a
3053132	RECOG_TARGET	n/a	LTP145	ltpFR	19	5	-1	MASCARA	875	1	5	-1	n/a	n/a	n/a	n/a	n/a
3053611	RECOG_RESP	n/a	LTP145	ltpFR	19	5	-1	MASCARA	875	1	n/a	-1	n/a	n/a	n/a	n/a	n/a
3054194	RECOG_CONF	n/a	LTP145	ltpFR	19	5	-1	MASCARA	875	n/a	5	-1	n/a	n/a	n/a	n/a	n/a
3055578	RECOG_TARGET	n/a	LTP145	ltpFR	19	5	0	STATUE	1374	1	5	1	n/a	n/a	n/a	n/a	n/a
3056079	RECOG_RESP	n/a	LTP145	ltpFR	19	5	0	STATUE	1374	1	n/a	1	n/a	n/a	n/a	n/a	n/a
3056638	RECOG_CONF	n/a	LTP145	ltpFR	19	5	0	STATUE	1374	n/a	5	1	n/a	n/a	n/a	n/a	n/a
3058076	RECOG_TARGET	n/a	LTP145	ltpFR	19	5	-1	CAFE	216	1	5	-1	n/a	n/a	n/a	n/a	n/a
3058600	RECOG_RESP	n/a	LTP145	ltpFR	19	5	-1	CAFE	216	1	n/a	-1	n/a	n/a	n/a	n/a	n/a
3059153	RECOG_CONF	n/a	LTP145	ltpFR	19	5	-1	CAFE	216	n/a	5	-1	n/a	n/a	n/a	n/a	n/a
3060489	RECOG_TARGET	n/a	LTP145	ltpFR	19	5	1	SERVANT	1271	1	5	1	n/a	n/a	n/a	n/a	n/a
3060973	RECOG_RESP	n/a	LTP145	ltpFR	19	5	1	SERVANT	1271	1	n/a	1	n/a	n/a	n/a	n/a	n/a
3061597	RECOG_CONF	n/a	LTP145	ltpFR	19	5	1	SERVANT	1271	n/a	5	1	n/a	n/a	n/a	n/a	n/a
3063071	RECOG_TARGET	n/a	LTP145	ltpFR	19	5	0	WORM	1623	1	5	0	n/a	n/a	n/a	n/a	n/a
3063557	RECOG_RESP	n/a	LTP145	ltpFR	19	5	0	WORM	1623	1	n/a	0	n/a	n/a	n/a	n/a	n/a
3064191	RECOG_CONF	n/a	LTP145	ltpFR	19	5	0	WORM	1623	n/a	5	0	n/a	n/a	n/a	n/a	n/a
3065725	RECOG_LURE	n/a	LTP145	ltpFR	19	5	n/a	PRISONER	1128	0	1	n/a	n/a	n/a	n/a	n/a	n/a
3067171	RECOG_RESP	n/a	LTP145	ltpFR	19	5	n/a	PRISONER	1128	0	n/a	n/a	n/a	n/a	n/a	n/a	n/a
3067775	RECOG_CONF	n/a	LTP145	ltpFR	19	5	n/a	PRISONER	1128	n/a	1	n/a	n/a	n/a	n/a	n/a	n/a
3069455	RECOG_TARGET	n/a	LTP145	ltpFR	19	5	0	TRUCK	1512	1	2	1	n/a	n/a	n/a	n/a	n/a
3070054	RECOG_RESP	n/a	LTP145	ltpFR	19	5	0	TRUCK	1512	1	n/a	1	n/a	n/a	n/a	n/a	n/a
3070658	RECOG_CONF	n/a	LTP145	ltpFR	19	5	0	TRUCK	1512	n/a	2	1	n/a	n/a	n/a	n/a	n/a
3072235	RECOG_LURE	n/a	LTP145	ltpFR	19	5	n/a	PELICAN	1039	0	2	n/a	n/a	n/a	n/a	n/a	n/a
3072972	RECOG_RESP	n/a	LTP145	ltpFR	19	5	n/a	PELICAN	1039	0	n/a	n/a	n/a	n/a	n/a	n/a	n/a
3073576	RECOG_CONF	n/a	LTP145	ltpFR	19	5	n/a	PELICAN	1039	n/a	2	n/a	n/a	n/a	n/a	n/a	n/a
3075165	RECOG_TARGET	n/a	LTP145	ltpFR	19	5	-1	SPINACH	1352	1	5	-1	n/a	n/a	n/a	n/a	n/a
3075849	RECOG_RESP	n/a	LTP145	ltpFR	19	5	-1	SPINACH	1352	1	n/a	-1	n/a	n/a	n/a	n/a	n/a
3076463	RECOG_CONF	n/a	LTP145	ltpFR	19	5	-1	SPINACH	1352	n/a	5	-1	n/a	n/a	n/a	n/a	n/a
3077869	RECOG_TARGET	n/a	LTP145	ltpFR	19	5	1	TWISTER	1530	1	5	0	n/a	n/a	n/a	n/a	n/a
3078359	RECOG_RESP	n/a	LTP145	ltpFR	19	5	1	TWISTER	1530	1	n/a	0	n/a	n/a	n/a	n/a	n/a
3078997	RECOG_CONF	n/a	LTP145	ltpFR	19	5	1	TWISTER	1530	n/a	5	0	n/a	n/a	n/a	n/a	n/a
3082059	REC_START	n/a	LTP145	ltpFR	19	6	n/a	n/a	n/a	n/a	n/a	n/a	n/a	n/a	n/a	n/a	n/a
3082090	RECOG_TARGET	n/a	LTP145	ltpFR	19	6	1	VETERAN	1561	1	2	1	n/a	n/a	n/a	n/a	n/a
3082800	RECOG_RESP	n/a	LTP145	ltpFR	19	6	1	VETERAN	1561	1	n/a	1	n/a	n/a	n/a	n/a	n/a
3083372	RECOG_CONF	n/a	LTP145	ltpFR	19	6	1	VETERAN	1561	n/a	2	1	n/a	n/a	n/a	n/a	n/a
3084778	RECOG_TARGET	n/a	LTP145	ltpFR	19	6	1	GORILLA	650	1	5	1	n/a	n/a	n/a	n/a	n/a
3085415	RECOG_RESP	n/a	LTP145	ltpFR	19	6	1	GORILLA	650	1	n/a	1	n/a	n/a	n/a	n/a	n/a
3086125	RECOG_CONF	n/a	LTP145	ltpFR	19	6	1	GORILLA	650	n/a	5	1	n/a	n/a	n/a	n/a	n/a
3087683	RECOG_TARGET	n/a	LTP145	ltpFR	19	6	0	GRAPE	654	1	2	0	n/a	n/a	n/a	n/a	n/a
3088251	RECOG_RESP	n/a	LTP145	ltpFR	19	6	0	GRAPE	654	1	n/a	0	n/a	n/a	n/a	n/a	n/a
3088799	RECOG_CONF	n/a	LTP145	ltpFR	19	6	0	GRAPE	654	n/a	2	0	n/a	n/a	n/a	n/a	n/a
3090131	RECOG_TARGET	n/a	LTP145	ltpFR	19	6	-1	BOUILLON	154	1	5	-1	n/a	n/a	n/a	n/a	n/a
3090712	RECOG_RESP	n/a	LTP145	ltpFR	19	6	-1	BOUILLON	154	1	n/a	-1	n/a	n/a	n/a	n/a	n/a
3091283	RECOG_CONF	n/a	LTP145	ltpFR	19	6	-1	BOUILLON	154	n/a	5	-1	n/a	n/a	n/a	n/a	n/a
3092710	RECOG_TARGET	n/a	LTP145	ltpFR	19	6	1	INMATE	738	1	5	1	n/a	n/a	n/a	n/a	n/a
3093230	RECOG_RESP	n/a	LTP145	ltpFR	19	6	1	INMATE	738	1	n/a	1	n/a	n/a	n/a	n/a	n/a
3093797	RECOG_CONF	n/a	LTP145	ltpFR	19	6	1	INMATE	738	n/a	5	1	n/a	n/a	n/a	n/a	n/a
3095175	RECOG_TARGET	n/a	LTP145	ltpFR	19	6	1	DIPLOMA	470	1	2	0	n/a	n/a	n/a	n/a	n/a
3095614	RECOG_RESP	n/a	LTP145	ltpFR	19	6	1	DIPLOMA	470	1	n/a	0	n/a	n/a	n/a	n/a	n/a
3096139	RECOG_CONF	n/a	LTP145	ltpFR	19	6	1	DIPLOMA	470	n/a	2	0	n/a	n/a	n/a	n/a	n/a
3097796	RECOG_LURE	n/a	LTP145	ltpFR	19	6	n/a	DOCTOR	478	0	2	n/a	n/a	n/a	n/a	n/a	n/a
3098557	RECOG_RESP	n/a	LTP145	ltpFR	19	6	n/a	DOCTOR	478	0	n/a	n/a	n/a	n/a	n/a	n/a	n/a
3099045	RECOG_CONF	n/a	LTP145	ltpFR	19	6	n/a	DOCTOR	478	n/a	2	n/a	n/a	n/a	n/a	n/a	n/a
3100584	RECOG_TARGET	n/a	LTP145	ltpFR	19	6	0	SUBWAY	1400	1	5	1	n/a	n/a	n/a	n/a	n/a
3101172	RECOG_RESP	n/a	LTP145	ltpFR	19	6	0	SUBWAY	1400	1	n/a	1	n/a	n/a	n/a	n/a	n/a
3101729	RECOG_CONF	n/a	LTP145	ltpFR	19	6	0	SUBWAY	1400	n/a	5	1	n/a	n/a	n/a	n/a	n/a
3103166	RECOG_TARGET	n/a	LTP145	ltpFR	19	6	1	BASSINET	97	1	5	1	n/a	n/a	n/a	n/a	n/a
3103712	RECOG_RESP	n/a	LTP145	ltpFR	19	6	1	BASSINET	97	1	n/a	1	n/a	n/a	n/a	n/a	n/a
3104273	RECOG_CONF	n/a	LTP145	ltpFR	19	6	1	BASSINET	97	n/a	5	1	n/a	n/a	n/a	n/a	n/a
3105629	RECOG_TARGET	n/a	LTP145	ltpFR	19	6	0	CHAMBER	277	1	5	0	n/a	n/a	n/a	n/a	n/a
3106266	RECOG_RESP	n/a	LTP145	ltpFR	19	6	0	CHAMBER	277	1	n/a	0	n/a	n/a	n/a	n/a	n/a
3106788	RECOG_CONF	n/a	LTP145	ltpFR	19	6	0	CHAMBER	277	n/a	5	0	n/a	n/a	n/a	n/a	n/a
3108210	RECOG_TARGET	n/a	LTP145	ltpFR	19	6	0	RIB	1188	1	5	0	n/a	n/a	n/a	n/a	n/a
3108790	RECOG_RESP	n/a	LTP145	ltpFR	19	6	0	RIB	1188	1	n/a	0	n/a	n/a	n/a	n/a	n/a
3109352	RECOG_CONF	n/a	LTP145	ltpFR	19	6	0	RIB	1188	n/a	5	0	n/a	n/a	n/a	n/a	n/a
3110789	RECOG_TARGET	n/a	LTP145	ltpFR	19	6	1	SHOP	1290	1	1	0	n/a	n/a	n/a	n/a	n/a
3112252	RECOG_RESP	n/a	LTP145	ltpFR	19	6	1	SHOP	1290	1	n/a	0	n/a	n/a	n/a	n/a	n/a
3112862	RECOG_CONF	n/a	LTP145	ltpFR	19	6	1	SHOP	1290	n/a	1	0	n/a	n/a	n/a	n/a	n/a
3114344	RECOG_LURE	n/a	LTP145	ltpFR	19	6	n/a	LABYRINTH	791	0	2	n/a	n/a	n/a	n/a	n/a	n/a
3115178	RECOG_RESP	n/a	LTP145	ltpFR	19	6	n/a	LABYRINTH	791	0	n/a	n/a	n/a	n/a	n/a	n/a	n/a
3115771	RECOG_CONF	n/a	LTP145	ltpFR	19	6	n/a	LABYRINTH	791	n/a	2	n/a	n/a	n/a	n/a	n/a	n/a
3117216	RECOG_TARGET	n/a	LTP145	ltpFR	19	6	1	CHEEK	287	1	5	0	n/a	n/a	n/a	n/a	n/a
3117820	RECOG_RESP	n/a	LTP145	ltpFR	19	6	1	CHEEK	287	1	n/a	0	n/a	n/a	n/a	n/a	n/a
3118391	RECOG_CONF	n/a	LTP145	ltpFR	19	6	1	CHEEK	287	n/a	5	0	n/a	n/a	n/a	n/a	n/a
3119787	RECOG_LURE	n/a	LTP145	ltpFR	19	6	n/a	SWEATER	1419	1	1	n/a	n/a	n/a	n/a	n/a	n/a
3120493	RECOG_RESP_VV	n/a	LTP145	ltpFR	19	6	n/a	SWEATER	1419	0	n/a	n/a	n/a	n/a	n/a	n/a	n/a
3122041	RECOG_RESP	n/a	LTP145	ltpFR	19	6	n/a	SWEATER	1419	1	n/a	n/a	n/a	n/a	n/a	n/a	n/a
3122641	RECOG_CONF	n/a	LTP145	ltpFR	19	6	n/a	SWEATER	1419	n/a	1	n/a	n/a	n/a	n/a	n/a	n/a
3124325	RECOG_TARGET	n/a	LTP145	ltpFR	19	6	0	SHOVEL	1295	1	5	1	n/a	n/a	n/a	n/a	n/a
3125245	RECOG_RESP	n/a	LTP145	ltpFR	19	6	0	SHOVEL	1295	1	n/a	1	n/a	n/a	n/a	n/a	n/a
3125834	RECOG_CONF	n/a	LTP145	ltpFR	19	6	0	SHOVEL	1295	n/a	5	1	n/a	n/a	n/a	n/a	n/a
3127246	RECOG_TARGET	n/a	LTP145	ltpFR	19	6	0	SLEEVE	1324	1	5	0	n/a	n/a	n/a	n/a	n/a
3127858	RECOG_RESP	n/a	LTP145	ltpFR	19	6	0	SLEEVE	1324	1	n/a	0	n/a	n/a	n/a	n/a	n/a
3128379	RECOG_CONF	n/a	LTP145	ltpFR	19	6	0	SLEEVE	1324	n/a	5	0	n/a	n/a	n/a	n/a	n/a
3129742	RECOG_LURE	n/a	LTP145	ltpFR	19	6	n/a	TRIANGLE	1504	0	2	n/a	n/a	n/a	n/a	n/a	n/a
3130465	RECOG_RESP	n/a	LTP145	ltpFR	19	6	n/a	TRIANGLE	1504	0	n/a	n/a	n/a	n/a	n/a	n/a	n/a
3130929	RECOG_CONF	n/a	LTP145	ltpFR	19	6	n/a	TRIANGLE	1504	n/a	2	n/a	n/a	n/a	n/a	n/a	n/a
3132357	RECOG_TARGET	n/a	LTP145	ltpFR	19	6	0	SUITE	1404	1	5	0	n/a	n/a	n/a	n/a	n/a
3133020	RECOG_RESP	n/a	LTP145	ltpFR	19	6	0	SUITE	1404	1	n/a	0	n/a	n/a	n/a	n/a	n/a
3133527	RECOG_CONF	n/a	LTP145	ltpFR	19	6	0	SUITE	1404	n/a	5	0	n/a	n/a	n/a	n/a	n/a
3134996	RECOG_TARGET	n/a	LTP145	ltpFR	19	6	-1	SANDWICH	1232	1	5	-1	n/a	n/a	n/a	n/a	n/a
3135567	RECOG_RESP	n/a	LTP145	ltpFR	19	6	-1	SANDWICH	1232	1	n/a	-1	n/a	n/a	n/a	n/a	n/a
3136081	RECOG_CONF	n/a	LTP145	ltpFR	19	6	-1	SANDWICH	1232	n/a	5	-1	n/a	n/a	n/a	n/a	n/a
3138915	REC_START	n/a	LTP145	ltpFR	19	7	n/a	n/a	n/a	n/a	n/a	n/a	n/a	n/a	n/a	n/a	n/a
3138941	RECOG_TARGET	n/a	LTP145	ltpFR	19	7	0	FACE	547	1	5	0	n/a	n/a	n/a	n/a	n/a
3139521	RECOG_RESP	n/a	LTP145	ltpFR	19	7	0	FACE	547	1	n/a	0	n/a	n/a	n/a	n/a	n/a
3140437	RECOG_CONF	n/a	LTP145	ltpFR	19	7	0	FACE	547	n/a	5	0	n/a	n/a	n/a	n/a	n/a
3141670	RECOG_TARGET	n/a	LTP145	ltpFR	19	7	1	SHINGLE	1285	1	5	0	n/a	n/a	n/a	n/a	n/a
3142200	RECOG_RESP	n/a	LTP145	ltpFR	19	7	1	SHINGLE	1285	1	n/a	0	n/a	n/a	n/a	n/a	n/a
3142761	RECOG_CONF	n/a	LTP145	ltpFR	19	7	1	SHINGLE	1285	n/a	5	0	n/a	n/a	n/a	n/a	n/a
3144268	RECOG_TARGET	n/a	LTP145	ltpFR	19	7	0	KNOB	787	1	5	0	n/a	n/a	n/a	n/a	n/a
3144866	RECOG_RESP	n/a	LTP145	ltpFR	19	7	0	KNOB	787	1	n/a	0	n/a	n/a	n/a	n/a	n/a
3145315	RECOG_CONF	n/a	LTP145	ltpFR	19	7	0	KNOB	787	n/a	5	0	n/a	n/a	n/a	n/a	n/a
3146639	RECOG_LURE	n/a	LTP145	ltpFR	19	7	n/a	CERAMICS	271	0	2	n/a	n/a	n/a	n/a	n/a	n/a
3147530	RECOG_RESP	n/a	LTP145	ltpFR	19	7	n/a	CERAMICS	271	0	n/a	n/a	n/a	n/a	n/a	n/a	n/a
3148085	RECOG_CONF	n/a	LTP145	ltpFR	19	7	n/a	CERAMICS	271	n/a	2	n/a	n/a	n/a	n/a	n/a	n/a
3149478	RECOG_TARGET	n/a	LTP145	ltpFR	19	7	1	ANCHOR	21	1	2	0	n/a	n/a	n/a	n/a	n/a
3150291	RECOG_RESP	n/a	LTP145	ltpFR	19	7	1	ANCHOR	21	1	n/a	0	n/a	n/a	n/a	n/a	n/a
3150903	RECOG_CONF	n/a	LTP145	ltpFR	19	7	1	ANCHOR	21	n/a	2	0	n/a	n/a	n/a	n/a	n/a
3152375	RECOG_LURE	n/a	LTP145	ltpFR	19	7	n/a	RECIPE	1175	0	2	n/a	n/a	n/a	n/a	n/a	n/a
3153656	RECOG_RESP	n/a	LTP145	ltpFR	19	7	n/a	RECIPE	1175	0	n/a	n/a	n/a	n/a	n/a	n/a	n/a
3154358	RECOG_CONF	n/a	LTP145	ltpFR	19	7	n/a	RECIPE	1175	n/a	2	n/a	n/a	n/a	n/a	n/a	n/a
3155704	RECOG_LURE	n/a	LTP145	ltpFR	19	7	n/a	DOCK	477	0	1	n/a	n/a	n/a	n/a	n/a	n/a
3156700	RECOG_RESP	n/a	LTP145	ltpFR	19	7	n/a	DOCK	477	0	n/a	n/a	n/a	n/a	n/a	n/a	n/a
3157314	RECOG_CONF	n/a	LTP145	ltpFR	19	7	n/a	DOCK	477	n/a	1	n/a	n/a	n/a	n/a	n/a	n/a
3158817	RECOG_TARGET	n/a	LTP145	ltpFR	19	7	-1	CELLO	268	1	2	-1	n/a	n/a	n/a	n/a	n/a
3159596	RECOG_RESP	n/a	LTP145	ltpFR	19	7	-1	CELLO	268	1	n/a	-1	n/a	n/a	n/a	n/a	n/a
3160245	RECOG_CONF	n/a	LTP145	ltpFR	19	7	-1	CELLO	268	n/a	2	-1	n/a	n/a	n/a	n/a	n/a
3161780	RECOG_LURE	n/a	LTP145	ltpFR	19	7	n/a	PUBLISHER	1137	0	2	n/a	n/a	n/a	n/a	n/a	n/a
3162615	RECOG_RESP	n/a	LTP145	ltpFR	19	7	n/a	PUBLISHER	1137	0	n/a	n/a	n/a	n/a	n/a	n/a	n/a
3163181	RECOG_CONF	n/a	LTP145	ltpFR	19	7	n/a	PUBLISHER	1137	n/a	2	n/a	n/a	n/a	n/a	n/a	n/a
3164660	RECOG_TARGET	n/a	LTP145	ltpFR	19	7	1	STUMP	1396	1	5	0	n/a	n/a	n/a	n/a	n/a
3165349	RECOG_RESP	n/a	LTP145	ltpFR	19	7	1	STUMP	1396	1	n/a	0	n/a	n/a	n/a	n/a	n/a
3165958	RECOG_CONF	n/a	LTP145	ltpFR	19	7	1	STUMP	1396	n/a	5	0	n/a	n/a	n/a	n/a	n/a
3167425	RECOG_TARGET	n/a	LTP145	ltpFR	19	7	-1	BEAVER	109	1	5	-1	n/a	n/a	n/a	n/a	n/a
3168008	RECOG_RESP	n/a	LTP145	ltpFR	19	7	-1	BEAVER	109	1	n/a	-1	n/a	n/a	n/a	n/a	n/a
3168622	RECOG_CONF	n/a	LTP145	ltpFR	19	7	-1	BEAVER	109	n/a	5	-1	n/a	n/a	n/a	n/a	n/a
3170005	RECOG_TARGET	n/a	LTP145	ltpFR	19	7	-1	SHED	1277	1	5	-1	n/a	n/a	n/a	n/a	n/a
3170541	RECOG_RESP	n/a	LTP145	ltpFR	19	7	-1	SHED	1277	1	n/a	-1	n/a	n/a	n/a	n/a	n/a
3171137	RECOG_CONF	n/a	LTP145	ltpFR	19	7	-1	SHED	1277	n/a	5	-1	n/a	n/a	n/a	n/a	n/a
3172601	RECOG_LURE	n/a	LTP145	ltpFR	19	7	n/a	CRIB	407	0	2	n/a	n/a	n/a	n/a	n/a	n/a
3173366	RECOG_RESP	n/a	LTP145	ltpFR	19	7	n/a	CRIB	407	0	n/a	n/a	n/a	n/a	n/a	n/a	n/a
3173896	RECOG_CONF	n/a	LTP145	ltpFR	19	7	n/a	CRIB	407	n/a	2	n/a	n/a	n/a	n/a	n/a	n/a
3175357	RECOG_TARGET	n/a	LTP145	ltpFR	19	7	-1	WRENCH	1625	1	5	-1	n/a	n/a	n/a	n/a	n/a
3176136	RECOG_RESP	n/a	LTP145	ltpFR	19	7	-1	WRENCH	1625	1	n/a	-1	n/a	n/a	n/a	n/a	n/a
3176704	RECOG_CONF	n/a	LTP145	ltpFR	19	7	-1	WRENCH	1625	n/a	5	-1	n/a	n/a	n/a	n/a	n/a
3178154	RECOG_TARGET	n/a	LTP145	ltpFR	19	7	1	CHART	282	0	2	0	n/a	n/a	n/a	n/a	n/a
3178831	RECOG_RESP	n/a	LTP145	ltpFR	19	7	1	CHART	282	0	n/a	0	n/a	n/a	n/a	n/a	n/a
3179358	RECOG_CONF	n/a	LTP145	ltpFR	19	7	1	CHART	282	n/a	2	0	n/a	n/a	n/a	n/a	n/a
3180825	RECOG_TARGET	n/a	LTP145	ltpFR	19	7	0	CONVICT	371	1	2	1	n/a	n/a	n/a	n/a	n/a
3181650	RECOG_RESP	n/a	LTP145	ltpFR	19	7	0	CONVICT	371	1	n/a	1	n/a	n/a	n/a	n/a	n/a
3182251	RECOG_CONF	n/a	LTP145	ltpFR	19	7	0	CONVICT	371	n/a	2	1	n/a	n/a	n/a	n/a	n/a
3183771	RECOG_TARGET	n/a	LTP145	ltpFR	19	7	1	HIGHWAY	707	1	1	0	n/a	n/a	n/a	n/a	n/a
3184451	RECOG_RESP	n/a	LTP145	ltpFR	19	7	1	HIGHWAY	707	1	n/a	0	n/a	n/a	n/a	n/a	n/a
3185267	RECOG_CONF	n/a	LTP145	ltpFR	19	7	1	HIGHWAY	707	n/a	1	0	n/a	n/a	n/a	n/a	n/a
3186751	RECOG_LURE	n/a	LTP145	ltpFR	19	7	n/a	CHECKERS	285	0	2	n/a	n/a	n/a	n/a	n/a	n/a
3187619	RECOG_RESP	n/a	LTP145	ltpFR	19	7	n/a	CHECKERS	285	0	n/a	n/a	n/a	n/a	n/a	n/a	n/a
3188228	RECOG_CONF	n/a	LTP145	ltpFR	19	7	n/a	CHECKERS	285	n/a	2	n/a	n/a	n/a	n/a	n/a	n/a
3189731	RECOG_TARGET	n/a	LTP145	ltpFR	19	7	1	SEED	1266	1	2	0	n/a	n/a	n/a	n/a	n/a
3190394	RECOG_RESP	n/a	LTP145	ltpFR	19	7	1	SEED	1266	1	n/a	0	n/a	n/a	n/a	n/a	n/a
3190962	RECOG_CONF	n/a	LTP145	ltpFR	19	7	1	SEED	1266	n/a	2	0	n/a	n/a	n/a	n/a	n/a
3192429	RECOG_TARGET	n/a	LTP145	ltpFR	19	7	0	BUGGY	188	1	5	1	n/a	n/a	n/a	n/a	n/a
3193095	RECOG_RESP	n/a	LTP145	ltpFR	19	7	0	BUGGY	188	1	n/a	1	n/a	n/a	n/a	n/a	n/a
3193695	RECOG_CONF	n/a	LTP145	ltpFR	19	7	0	BUGGY	188	n/a	5	1	n/a	n/a	n/a	n/a	n/a
3201661	REC_START	n/a	LTP145	ltpFR	19	8	n/a	n/a	n/a	n/a	n/a	n/a	n/a	n/a	n/a	n/a	n/a
3201684	RECOG_TARGET	n/a	LTP145	ltpFR	19	8	-1	DUNE	506	1	5	-1	n/a	n/a	n/a	n/a	n/a
3202310	RECOG_RESP	n/a	LTP145	ltpFR	19	8	-1	DUNE	506	1	n/a	-1	n/a	n/a	n/a	n/a	n/a
3202913	RECOG_CONF	n/a	LTP145	ltpFR	19	8	-1	DUNE	506	n/a	5	-1	n/a	n/a	n/a	n/a	n/a
3204265	RECOG_LURE	n/a	LTP145	ltpFR	19	8	n/a	SMOG	1330	0	2	n/a	n/a	n/a	n/a	n/a	n/a
3204931	RECOG_RESP	n/a	LTP145	ltpFR	19	8	n/a	SMOG	1330	0	n/a	n/a	n/a	n/a	n/a	n/a	n/a
3205476	RECOG_CONF	n/a	LTP145	ltpFR	19	8	n/a	SMOG	1330	n/a	2	n/a	n/a	n/a	n/a	n/a	n/a
3206970	RECOG_TARGET	n/a	LTP145	ltpFR	19	8	1	POCKETBOOK	1094	1	2	0	n/a	n/a	n/a	n/a	n/a
3207613	RECOG_RESP	n/a	LTP145	ltpFR	19	8	1	POCKETBOOK	1094	1	n/a	0	n/a	n/a	n/a	n/a	n/a
3208225	RECOG_CONF	n/a	LTP145	ltpFR	19	8	1	POCKETBOOK	1094	n/a	2	0	n/a	n/a	n/a	n/a	n/a
3209716	RECOG_TARGET	n/a	LTP145	ltpFR	19	8	1	BOOK	149	1	1	0	n/a	n/a	n/a	n/a	n/a
3211074	RECOG_RESP	n/a	LTP145	ltpFR	19	8	1	BOOK	149	1	n/a	0	n/a	n/a	n/a	n/a	n/a
3211593	RECOG_CONF	n/a	LTP145	ltpFR	19	8	1	BOOK	149	n/a	1	0	n/a	n/a	n/a	n/a	n/a
3213072	RECOG_TARGET	n/a	LTP145	ltpFR	19	8	0	NUN	962	1	2	1	n/a	n/a	n/a	n/a	n/a
3213690	RECOG_RESP	n/a	LTP145	ltpFR	19	8	0	NUN	962	1	n/a	1	n/a	n/a	n/a	n/a	n/a
3214286	RECOG_CONF	n/a	LTP145	ltpFR	19	8	0	NUN	962	n/a	2	1	n/a	n/a	n/a	n/a	n/a
3215543	RECOG_TARGET	n/a	LTP145	ltpFR	19	8	1	DOUGHNUT	490	1	5	0	n/a	n/a	n/a	n/a	n/a
3216140	RECOG_RESP	n/a	LTP145	ltpFR	19	8	1	DOUGHNUT	490	1	n/a	0	n/a	n/a	n/a	n/a	n/a
3216732	RECOG_CONF	n/a	LTP145	ltpFR	19	8	1	DOUGHNUT	490	n/a	5	0	n/a	n/a	n/a	n/a	n/a
3218191	RECOG_TARGET	n/a	LTP145	ltpFR	19	8	1	DEODORANT	448	1	1	0	n/a	n/a	n/a	n/a	n/a
3218668	RECOG_RESP	n/a	LTP145	ltpFR	19	8	1	DEODORANT	448	1	n/a	0	n/a	n/a	n/a	n/a	n/a
3219254	RECOG_CONF	n/a	LTP145	ltpFR	19	8	1	DEODORANT	448	n/a	1	0	n/a	n/a	n/a	n/a	n/a
3220853	RECOG_TARGET	n/a	LTP145	ltpFR	19	8	0	DUNGEON	507	1	2	1	n/a	n/a	n/a	n/a	n/a
3221371	RECOG_RESP	n/a	LTP145	ltpFR	19	8	0	DUNGEON	507	1	n/a	1	n/a	n/a	n/a	n/a	n/a
3222045	RECOG_CONF	n/a	LTP145	ltpFR	19	8	0	DUNGEON	507	n/a	2	1	n/a	n/a	n/a	n/a	n/a
3223559	RECOG_TARGET	n/a	LTP145	ltpFR	19	8	1	MONASTERY	907	1	3	1	n/a	n/a	n/a	n/a	n/a
3224550	RECOG_RESP	n/a	LTP145	ltpFR	19	8	1	MONASTERY	907	1	n/a	1	n/a	n/a	n/a	n/a	n/a
3225376	RECOG_CONF	n/a	LTP145	ltpFR	19	8	1	MONASTERY	907	n/a	3	1	n/a	n/a	n/a	n/a	n/a
3226913	RECOG_TARGET	n/a	LTP145	ltpFR	19	8	1	JUPITER	765	1	5	0	n/a	n/a	n/a	n/a	n/a
3227635	RECOG_RESP	n/a	LTP145	ltpFR	19	8	1	JUPITER	765	1	n/a	0	n/a	n/a	n/a	n/a	n/a
3228196	RECOG_CONF	n/a	LTP145	ltpFR	19	8	1	JUPITER	765	n/a	5	0	n/a	n/a	n/a	n/a	n/a
3229643	RECOG_TARGET	n/a	LTP145	ltpFR	19	8	0	GLASS	639	1	2	0	n/a	n/a	n/a	n/a	n/a
3230350	RECOG_RESP	n/a	LTP145	ltpFR	19	8	0	GLASS	639	1	n/a	0	n/a	n/a	n/a	n/a	n/a
3230898	RECOG_CONF	n/a	LTP145	ltpFR	19	8	0	GLASS	639	n/a	2	0	n/a	n/a	n/a	n/a	n/a
3232424	RECOG_LURE	n/a	LTP145	ltpFR	19	8	n/a	FRANCE	601	0	2	n/a	n/a	n/a	n/a	n/a	n/a
3233242	RECOG_RESP	n/a	LTP145	ltpFR	19	8	n/a	FRANCE	601	0	n/a	n/a	n/a	n/a	n/a	n/a	n/a
3233764	RECOG_CONF	n/a	LTP145	ltpFR	19	8	n/a	FRANCE	601	n/a	2	n/a	n/a	n/a	n/a	n/a	n/a
3235363	RECOG_TARGET	n/a	LTP145	ltpFR	19	8	1	COOK	372	1	5	1	n/a	n/a	n/a	n/a	n/a
3236081	RECOG_RESP	n/a	LTP145	ltpFR	19	8	1	COOK	372	1	n/a	1	n/a	n/a	n/a	n/a	n/a
3236596	RECOG_CONF	n/a	LTP145	ltpFR	19	8	1	COOK	372	n/a	5	1	n/a	n/a	n/a	n/a	n/a
3238034	RECOG_LURE	n/a	LTP145	ltpFR	19	8	n/a	CRICKET	408	0	2	n/a	n/a	n/a	n/a	n/a	n/a
3238795	RECOG_RESP	n/a	LTP145	ltpFR	19	8	n/a	CRICKET	408	0	n/a	n/a	n/a	n/a	n/a	n/a	n/a
3239295	RECOG_CONF	n/a	LTP145	ltpFR	19	8	n/a	CRICKET	408	n/a	2	n/a	n/a	n/a	n/a	n/a	n/a
3240948	RECOG_TARGET	n/a	LTP145	ltpFR	19	8	-1	FISH	571	1	5	-1	n/a	n/a	n/a	n/a	n/a
3241503	RECOG_RESP	n/a	LTP145	ltpFR	19	8	-1	FISH	571	1	n/a	-1	n/a	n/a	n/a	n/a	n/a
3242024	RECOG_CONF	n/a	LTP145	ltpFR	19	8	-1	FISH	571	n/a	5	-1	n/a	n/a	n/a	n/a	n/a
3243619	RECOG_TARGET	n/a	LTP145	ltpFR	19	8	1	ROBOT	1200	1	5	1	n/a	n/a	n/a	n/a	n/a
3244331	RECOG_RESP	n/a	LTP145	ltpFR	19	8	1	ROBOT	1200	1	n/a	1	n/a	n/a	n/a	n/a	n/a
3244947	RECOG_CONF	n/a	LTP145	ltpFR	19	8	1	ROBOT	1200	n/a	5	1	n/a	n/a	n/a	n/a	n/a
3246325	RECOG_TARGET	n/a	LTP145	ltpFR	19	8	0	STAR	1373	1	5	0	n/a	n/a	n/a	n/a	n/a
3246920	RECOG_RESP	n/a	LTP145	ltpFR	19	8	0	STAR	1373	1	n/a	0	n/a	n/a	n/a	n/a	n/a
3247442	RECOG_CONF	n/a	LTP145	ltpFR	19	8	0	STAR	1373	n/a	5	0	n/a	n/a	n/a	n/a	n/a
3248804	RECOG_TARGET	n/a	LTP145	ltpFR	19	8	-1	BLOUSE	139	1	5	-1	n/a	n/a	n/a	n/a	n/a
3249367	RECOG_RESP	n/a	LTP145	ltpFR	19	8	-1	BLOUSE	139	1	n/a	-1	n/a	n/a	n/a	n/a	n/a
3249936	RECOG_CONF	n/a	LTP145	ltpFR	19	8	-1	BLOUSE	139	n/a	5	-1	n/a	n/a	n/a	n/a	n/a
3251402	RECOG_TARGET	n/a	LTP145	ltpFR	19	8	0	ACORN	3	1	5	0	n/a	n/a	n/a	n/a	n/a
3251817	RECOG_RESP	n/a	LTP145	ltpFR	19	8	0	ACORN	3	1	n/a	0	n/a	n/a	n/a	n/a	n/a
3252321	RECOG_CONF	n/a	LTP145	ltpFR	19	8	0	ACORN	3	n/a	5	0	n/a	n/a	n/a	n/a	n/a
3253724	RECOG_TARGET	n/a	LTP145	ltpFR	19	8	-1	SIRLOIN	1311	1	5	-1	n/a	n/a	n/a	n/a	n/a
3254266	RECOG_RESP	n/a	LTP145	ltpFR	19	8	-1	SIRLOIN	1311	1	n/a	-1	n/a	n/a	n/a	n/a	n/a
3254855	RECOG_CONF	n/a	LTP145	ltpFR	19	8	-1	SIRLOIN	1311	n/a	5	-1	n/a	n/a	n/a	n/a	n/a
3264185	REC_START	n/a	LTP145	ltpFR	19	9	n/a	n/a	n/a	n/a	n/a	n/a	n/a	n/a	n/a	n/a	n/a
3264212	RECOG_TARGET	n/a	LTP145	ltpFR	19	9	0	LUNCH	849	1	5	0	n/a	n/a	n/a	n/a	n/a
3265293	RECOG_RESP	n/a	LTP145	ltpFR	19	9	0	LUNCH	849	1	n/a	0	n/a	n/a	n/a	n/a	n/a
3265886	RECOG_CONF	n/a	LTP145	ltpFR	19	9	0	LUNCH	849	n/a	5	0	n/a	n/a	n/a	n/a	n/a
3267259	RECOG_TARGET	n/a	LTP145	ltpFR	19	9	0	NEST	945	1	5	0	n/a	n/a	n/a	n/a	n/a
3267883	RECOG_RESP	n/a	LTP145	ltpFR	19	9	0	NEST	945	1	n/a	0	n/a	n/a	n/a	n/a	n/a
3268420	RECOG_CONF	n/a	LTP145	ltpFR	19	9	0	NEST	945	n/a	5	0	n/a	n/a	n/a	n/a	n/a
3269913	RECOG_TARGET	n/a	LTP145	ltpFR	19	9	1	TURKEY	1520	1	5	1	n/a	n/a	n/a	n/a	n/a
3270421	RECOG_RESP	n/a	LTP145	ltpFR	19	9	1	TURKEY	1520	1	n/a	1	n/a	n/a	n/a	n/a	n/a
3270974	RECOG_CONF	n/a	LTP145	ltpFR	19	9	1	TURKEY	1520	n/a	5	1	n/a	n/a	n/a	n/a	n/a
3272370	RECOG_TARGET	n/a	LTP145	ltpFR	19	9	-1	APRON	35	1	5	-1	n/a	n/a	n/a	n/a	n/a
3273312	RECOG_RESP	n/a	LTP145	ltpFR	19	9	-1	APRON	35	1	n/a	-1	n/a	n/a	n/a	n/a	n/a
3273838	RECOG_CONF	n/a	LTP145	ltpFR	19	9	-1	APRON	35	n/a	5	-1	n/a	n/a	n/a	n/a	n/a
3275316	RECOG_LURE	n/a	LTP145	ltpFR	19	9	n/a	BANKER	84	0	2	n/a	n/a	n/a	n/a	n/a	n/a
3276071	RECOG_RESP	n/a	LTP145	ltpFR	19	9	n/a	BANKER	84	0	n/a	n/a	n/a	n/a	n/a	n/a	n/a
3276525	RECOG_CONF	n/a	LTP145	ltpFR	19	9	n/a	BANKER	84	n/a	2	n/a	n/a	n/a	n/a	n/a	n/a
3278130	RECOG_TARGET	n/a	LTP145	ltpFR	19	9	0	GARAGE	621	1	5	1	n/a	n/a	n/a	n/a	n/a
3278682	RECOG_RESP	n/a	LTP145	ltpFR	19	9	0	GARAGE	621	1	n/a	1	n/a	n/a	n/a	n/a	n/a
3279236	RECOG_CONF	n/a	LTP145	ltpFR	19	9	0	GARAGE	621	n/a	5	1	n/a	n/a	n/a	n/a	n/a
3280584	RECOG_LURE	n/a	LTP145	ltpFR	19	9	n/a	FLASK	576	0	1	n/a	n/a	n/a	n/a	n/a	n/a
3281337	RECOG_RESP	n/a	LTP145	ltpFR	19	9	n/a	FLASK	576	0	n/a	n/a	n/a	n/a	n/a	n/a	n/a
3281917	RECOG_CONF	n/a	LTP145	ltpFR	19	9	n/a	FLASK	576	n/a	1	n/a	n/a	n/a	n/a	n/a	n/a
3283531	RECOG_TARGET	n/a	LTP145	ltpFR	19	9	0	BROOK	177	1	5	1	n/a	n/a	n/a	n/a	n/a
3284310	RECOG_RESP	n/a	LTP145	ltpFR	19	9	0	BROOK	177	1	n/a	1	n/a	n/a	n/a	n/a	n/a
3284823	RECOG_CONF	n/a	LTP145	ltpFR	19	9	0	BROOK	177	n/a	5	1	n/a	n/a	n/a	n/a	n/a
3286279	RECOG_TARGET	n/a	LTP145	ltpFR	19	9	0	CONSOLE	364	1	5	1	n/a	n/a	n/a	n/a	n/a
3286903	RECOG_RESP	n/a	LTP145	ltpFR	19	9	0	CONSOLE	364	1	n/a	1	n/a	n/a	n/a	n/a	n/a
3287447	RECOG_CONF	n/a	LTP145	ltpFR	19	9	0	CONSOLE	364	n/a	5	1	n/a	n/a	n/a	n/a	n/a
3288900	RECOG_TARGET	n/a	LTP145	ltpFR	19	9	1	CROOK	412	1	2	1	n/a	n/a	n/a	n/a	n/a
3290356	RECOG_RESP	n/a	LTP145	ltpFR	19	9	1	CROOK	412	1	n/a	1	n/a	n/a	n/a	n/a	n/a
3291057	RECOG_CONF	n/a	LTP145	ltpFR	19	9	1	CROOK	412	n/a	2	1	n/a	n/a	n/a	n/a	n/a
3292554	RECOG_TARGET	n/a	LTP145	ltpFR	19	9	0	PAINT	1003	1	5	0	n/a	n/a	n/a	n/a	n/a
3293164	RECOG_RESP	n/a	LTP145	ltpFR	19	9	0	PAINT	1003	1	n/a	0	n/a	n/a	n/a	n/a	n/a
3293735	RECOG_CONF	n/a	LTP145	ltpFR	19	9	0	PAINT	1003	n/a	5	0	n/a	n/a	n/a	n/a	n/a
3295218	RECOG_TARGET	n/a	LTP145	ltpFR	19	9	1	TOTE	1487	1	5	0	n/a	n/a	n/a	n/a	n/a
3295778	RECOG_RESP	n/a	LTP145	ltpFR	19	9	1	TOTE	1487	1	n/a	0	n/a	n/a	n/a	n/a	n/a
3296295	RECOG_CONF	n/a	LTP145	ltpFR	19	9	1	TOTE	1487	n/a	5	0	n/a	n/a	n/a	n/a	n/a
3297598	RECOG_TARGET	n/a	LTP145	ltpFR	19	9	1	VINE	1568	1	1	0	n/a	n/a	n/a	n/a	n/a
3298413	RECOG_RESP	n/a	LTP145	ltpFR	19	9	1	VINE	1568	1	n/a	0	n/a	n/a	n/a	n/a	n/a
3298991	RECOG_CONF	n/a	LTP145	ltpFR	19	9	1	VINE	1568	n/a	1	0	n/a	n/a	n/a	n/a	n/a
3300519	RECOG_TARGET	n/a	LTP145	ltpFR	19	9	1	GRILL	661	1	5	0	n/a	n/a	n/a	n/a	n/a
3301071	RECOG_RESP	n/a	LTP145	ltpFR	19	9	1	GRILL	661	1	n/a	0	n/a	n/a	n/a	n/a	n/a
3301675	RECOG_CONF	n/a	LTP145	ltpFR	19	9	1	GRILL	661	n/a	5	0	n/a	n/a	n/a	n/a	n/a
3303134	RECOG_TARGET	n/a	LTP145	ltpFR	19	9	0	COLOGNE	347	1	5	0	n/a	n/a	n/a	n/a	n/a
3303610	RECOG_RESP	n/a	LTP145	ltpFR	19	9	0	COLOGNE	347	1	n/a	0	n/a	n/a	n/a	n/a	n/a
3304209	RECOG_CONF	n/a	LTP145	ltpFR	19	9	0	COLOGNE	347	n/a	5	0	n/a	n/a	n/a	n/a	n/a
3305522	RECOG_TARGET	n/a	LTP145	ltpFR	19	9	1	DINER	467	1	5	0	n/a	n/a	n/a	n/a	n/a
3306038	RECOG_RESP	n/a	LTP145	ltpFR	19	9	1	DINER	467	1	n/a	0	n/a	n/a	n/a	n/a	n/a
3306683	RECOG_CONF	n/a	LTP145	ltpFR	19	9	1	DINER	467	n/a	5	0	n/a	n/a	n/a	n/a	n/a
3308178	RECOG_LURE	n/a	LTP145	ltpFR	19	9	n/a	SERPENT	1270	0	2	n/a	n/a	n/a	n/a	n/a	n/a
3308992	RECOG_RESP	n/a	LTP145	ltpFR	19	9	n/a	SERPENT	1270	0	n/a	n/a	n/a	n/a	n/a	n/a	n/a
3309509	RECOG_CONF	n/a	LTP145	ltpFR	19	9	n/a	SERPENT	1270	n/a	2	n/a	n/a	n/a	n/a	n/a	n/a
3311100	RECOG_TARGET	n/a	LTP145	ltpFR	19	9	0	SHRINE	1298	1	5	0	n/a	n/a	n/a	n/a	n/a
3312900	RECOG_RESP	n/a	LTP145	ltpFR	19	9	0	SHRINE	1298	1	n/a	0	n/a	n/a	n/a	n/a	n/a
3313480	RECOG_CONF	n/a	LTP145	ltpFR	19	9	0	SHRINE	1298	n/a	5	0	n/a	n/a	n/a	n/a	n/a
3315020	RECOG_TARGET	n/a	LTP145	ltpFR	19	9	1	QUILL	1150	1	5	0	n/a	n/a	n/a	n/a	n/a
3315593	RECOG_RESP	n/a	LTP145	ltpFR	19	9	1	QUILL	1150	1	n/a	0	n/a	n/a	n/a	n/a	n/a
3316162	RECOG_CONF	n/a	LTP145	ltpFR	19	9	1	QUILL	1150	n/a	5	0	n/a	n/a	n/a	n/a	n/a
3317491	RECOG_TARGET	n/a	LTP145	ltpFR	19	9	-1	PLUM	1090	1	5	-1	n/a	n/a	n/a	n/a	n/a
3318022	RECOG_RESP	n/a	LTP145	ltpFR	19	9	-1	PLUM	1090	1	n/a	-1	n/a	n/a	n/a	n/a	n/a
3318576	RECOG_CONF	n/a	LTP145	ltpFR	19	9	-1	PLUM	1090	n/a	5	-1	n/a	n/a	n/a	n/a	n/a
3321526	REC_START	n/a	LTP145	ltpFR	19	10	n/a	n/a	n/a	n/a	n/a	n/a	n/a	n/a	n/a	n/a	n/a
3321553	RECOG_TARGET	n/a	LTP145	ltpFR	19	10	-1	MEDICINE	886	1	5	-1	n/a	n/a	n/a	n/a	n/a
3322303	RECOG_RESP	n/a	LTP145	ltpFR	19	10	-1	MEDICINE	886	1	n/a	-1	n/a	n/a	n/a	n/a	n/a
