mstime	trial_type	stim_file	subject	experiment	session	trial	task	item_name	item_num	recog_conf	resp	color_b	color_g	color_r	case	font
0	SESS_START	n/a	LTP148	ltpFR	16	n/a	n/a	n/a	n/a	2	n/a	n/a	n/a	n/a	n/a	n/a
71406	WORD	wordpools/wasnorm_wordpool.txt	LTP148	ltpFR	16	1	1	RELATIVE	1182	5	1	0	0.5869140625	0.422607421875	lower	../fonts/zerothre.ttf
75360	WORD	wordpools/wasnorm_wordpool.txt	LTP148	ltpFR	16	1	1	SHOVEL	1295	n/a	0	0	0.5869140625	0.422607421875	lower	../fonts/zerothre.ttf
79289	WORD	wordpools/wasnorm_wordpool.txt	LTP148	ltpFR	16	1	1	DIRT	472	n/a	0	0	0.5869140625	0.422607421875	lower	../fonts/zerothre.ttf
83367	WORD	wordpools/wasnorm_wordpool.txt	LTP148	ltpFR	16	1	1	BARRACUDA	90	n/a	1	0	0.5869140625	0.422607421875	lower	../fonts/zerothre.ttf
87288	WORD	wordpools/wasnorm_wordpool.txt	LTP148	ltpFR	16	1	1	BED	110	n/a	0	0	0.5869140625	0.422607421875	lower	../fonts/zerothre.ttf
91366	WORD	wordpools/wasnorm_wordpool.txt	LTP148	ltpFR	16	1	1	SALMON	1227	n/a	1	0	0.5869140625	0.422607421875	lower	../fonts/zerothre.ttf
95212	WORD	wordpools/wasnorm_wordpool.txt	LTP148	ltpFR	16	1	0	BLUEPRINT	142	n/a	0	1	0.412841796875	0.57763671875	upper	../fonts/amplitud.ttf
99399	WORD	wordpools/wasnorm_wordpool.txt	LTP148	ltpFR	16	1	0	GUEST	669	n/a	1	1	0.412841796875	0.57763671875	upper	../fonts/amplitud.ttf
103461	WORD	wordpools/wasnorm_wordpool.txt	LTP148	ltpFR	16	1	0	ELECTRICIAN	521	n/a	1	1	0.412841796875	0.57763671875	upper	../fonts/amplitud.ttf
107530	WORD	wordpools/wasnorm_wordpool.txt	LTP148	ltpFR	16	1	1	FRECKLE	602	n/a	0	0	0.5869140625	0.422607421875	lower	../fonts/zerothre.ttf
111418	WORD	wordpools/wasnorm_wordpool.txt	LTP148	ltpFR	16	1	1	MASK	876	n/a	0	0	0.5869140625	0.422607421875	lower	../fonts/zerothre.ttf
115612	WORD	wordpools/wasnorm_wordpool.txt	LTP148	ltpFR	16	1	0	SCALLOP	1242	n/a	0	1	0.412841796875	0.57763671875	upper	../fonts/amplitud.ttf
119732	WORD	wordpools/wasnorm_wordpool.txt	LTP148	ltpFR	16	1	0	SARDINE	1235	n/a	0	1	0.412841796875	0.57763671875	upper	../fonts/amplitud.ttf
123920	WORD	wordpools/wasnorm_wordpool.txt	LTP148	ltpFR	16	1	0	COIN	343	n/a	0	1	0.412841796875	0.57763671875	upper	../fonts/amplitud.ttf
128090	WORD	wordpools/wasnorm_wordpool.txt	LTP148	ltpFR	16	1	0	KING	777	n/a	1	1	0.412841796875	0.57763671875	upper	../fonts/amplitud.ttf
132236	WORD	wordpools/wasnorm_wordpool.txt	LTP148	ltpFR	16	1	0	SIRLOIN	1311	n/a	0	1	0.412841796875	0.57763671875	upper	../fonts/amplitud.ttf
137938	REC_START	n/a	LTP148	ltpFR	16	1	n/a	n/a	n/a	n/a	n/a	n/a	n/a	n/a	n/a	n/a
140212	REC_WORD	wordpools/wasnorm_wordpool.txt	LTP148	ltpFR	16	1	0	SIRLOIN	1311	n/a	0	n/a	n/a	n/a	n/a	n/a
141310	REC_WORD	wordpools/wasnorm_wordpool.txt	LTP148	ltpFR	16	1	0	SCALLOP	1242	n/a	0	n/a	n/a	n/a	n/a	n/a
142417	REC_WORD	wordpools/wasnorm_wordpool.txt	LTP148	ltpFR	16	1	0	SARDINE	1235	n/a	0	n/a	n/a	n/a	n/a	n/a
143924	REC_WORD	wordpools/wasnorm_wordpool.txt	LTP148	ltpFR	16	1	0	BLUEPRINT	142	n/a	0	n/a	n/a	n/a	n/a	n/a
147302	REC_WORD	wordpools/wasnorm_wordpool.txt	LTP148	ltpFR	16	1	0	GUEST	669	n/a	1	n/a	n/a	n/a	n/a	n/a
148100	REC_WORD	wordpools/wasnorm_wordpool.txt	LTP148	ltpFR	16	1	0	KING	777	n/a	1	n/a	n/a	n/a	n/a	n/a
148693	REC_WORD	wordpools/wasnorm_wordpool.txt	LTP148	ltpFR	16	1	0	ELECTRICIAN	521	n/a	1	n/a	n/a	n/a	n/a	n/a
150115	REC_WORD	wordpools/wasnorm_wordpool.txt	LTP148	ltpFR	16	1	1	RELATIVE	1182	n/a	1	n/a	n/a	n/a	n/a	n/a
150833	REC_WORD	wordpools/wasnorm_wordpool.txt	LTP148	ltpFR	16	1	1	FRECKLE	602	n/a	0	n/a	n/a	n/a	n/a	n/a
151462	REC_WORD	wordpools/wasnorm_wordpool.txt	LTP148	ltpFR	16	1	1	SHOVEL	1295	n/a	0	n/a	n/a	n/a	n/a	n/a
152106	REC_WORD	wordpools/wasnorm_wordpool.txt	LTP148	ltpFR	16	1	1	DIRT	472	n/a	0	n/a	n/a	n/a	n/a	n/a
153592	REC_WORD	wordpools/wasnorm_wordpool.txt	LTP148	ltpFR	16	1	1	BARRACUDA	90	n/a	1	n/a	n/a	n/a	n/a	n/a
155558	REC_WORD	wordpools/wasnorm_wordpool.txt	LTP148	ltpFR	16	1	1	SALMON	1227	n/a	1	n/a	n/a	n/a	n/a	n/a
156979	REC_WORD	wordpools/wasnorm_wordpool.txt	LTP148	ltpFR	16	1	1	MASK	876	n/a	0	n/a	n/a	n/a	n/a	n/a
162073	REC_WORD_VV	wordpools/wasnorm_wordpool.txt	LTP148	ltpFR	16	1	n/a	<>	-1	n/a	n/a	n/a	n/a	n/a	n/a	n/a
192693	REC_WORD	wordpools/wasnorm_wordpool.txt	LTP148	ltpFR	16	1	1	BARRACUDA	90	n/a	1	n/a	n/a	n/a	n/a	n/a
193821	REC_WORD	wordpools/wasnorm_wordpool.txt	LTP148	ltpFR	16	1	1	MASK	876	n/a	0	n/a	n/a	n/a	n/a	n/a
203888	REC_WORD	wordpools/wasnorm_wordpool.txt	LTP148	ltpFR	16	1	0	BLUEPRINT	142	n/a	0	n/a	n/a	n/a	n/a	n/a
210662	REC_WORD	wordpools/wasnorm_wordpool.txt	LTP148	ltpFR	16	1	0	GUEST	669	n/a	1	n/a	n/a	n/a	n/a	n/a
218543	WORD	wordpools/wasnorm_wordpool.txt	LTP148	ltpFR	16	2	0	SHELTER	1282	n/a	1	1	0.412841796875	0.57763671875	upper	../fonts/amplitud.ttf
222406	WORD	wordpools/wasnorm_wordpool.txt	LTP148	ltpFR	16	2	0	BRICK	172	n/a	0	1	0.412841796875	0.57763671875	upper	../fonts/amplitud.ttf
226426	WORD	wordpools/wasnorm_wordpool.txt	LTP148	ltpFR	16	2	0	WASHER	1592	n/a	0	1	0.412841796875	0.57763671875	upper	../fonts/amplitud.ttf
230372	WORD	wordpools/wasnorm_wordpool.txt	LTP148	ltpFR	16	2	0	WOUND	1624	n/a	0	1	0.412841796875	0.57763671875	upper	../fonts/amplitud.ttf
234367	WORD	wordpools/wasnorm_wordpool.txt	LTP148	ltpFR	16	2	0	HOOK	715	n/a	0	1	0.412841796875	0.57763671875	upper	../fonts/amplitud.ttf
238388	WORD	wordpools/wasnorm_wordpool.txt	LTP148	ltpFR	16	2	1	KETTLE	772	n/a	0	0	0.5869140625	0.422607421875	lower	../fonts/zerothre.ttf
242565	WORD	wordpools/wasnorm_wordpool.txt	LTP148	ltpFR	16	2	1	FORT	595	n/a	0	0	0.5869140625	0.422607421875	lower	../fonts/zerothre.ttf
246627	WORD	wordpools/wasnorm_wordpool.txt	LTP148	ltpFR	16	2	1	BUREAU	199	n/a	0	0	0.5869140625	0.422607421875	lower	../fonts/zerothre.ttf
250474	WORD	wordpools/wasnorm_wordpool.txt	LTP148	ltpFR	16	2	0	WHALE	1601	n/a	1	1	0.412841796875	0.57763671875	upper	../fonts/amplitud.ttf
254411	WORD	wordpools/wasnorm_wordpool.txt	LTP148	ltpFR	16	2	0	DELINQUENT	445	n/a	1	1	0.412841796875	0.57763671875	upper	../fonts/amplitud.ttf
258555	WORD	wordpools/wasnorm_wordpool.txt	LTP148	ltpFR	16	2	0	INMATE	738	n/a	1	1	0.412841796875	0.57763671875	upper	../fonts/amplitud.ttf
262401	WORD	wordpools/wasnorm_wordpool.txt	LTP148	ltpFR	16	2	1	UNDERWEAR	1537	n/a	0	0	0.5869140625	0.422607421875	lower	../fonts/zerothre.ttf
266272	WORD	wordpools/wasnorm_wordpool.txt	LTP148	ltpFR	16	2	1	LINT	826	n/a	0	0	0.5869140625	0.422607421875	lower	../fonts/zerothre.ttf
270284	WORD	wordpools/wasnorm_wordpool.txt	LTP148	ltpFR	16	2	1	FLOUR	583	n/a	0	0	0.5869140625	0.422607421875	lower	../fonts/zerothre.ttf
274171	WORD	wordpools/wasnorm_wordpool.txt	LTP148	ltpFR	16	2	1	SKUNK	1321	n/a	1	0	0.5869140625	0.422607421875	lower	../fonts/zerothre.ttf
278208	WORD	wordpools/wasnorm_wordpool.txt	LTP148	ltpFR	16	2	1	CAPTIVE	240	n/a	1	0	0.5869140625	0.422607421875	lower	../fonts/zerothre.ttf
284094	REC_START	n/a	LTP148	ltpFR	16	2	n/a	n/a	n/a	n/a	n/a	n/a	n/a	n/a	n/a	n/a
284757	REC_WORD	wordpools/wasnorm_wordpool.txt	LTP148	ltpFR	16	2	1	CAPTIVE	240	n/a	1	n/a	n/a	n/a	n/a	n/a
285670	REC_WORD	wordpools/wasnorm_wordpool.txt	LTP148	ltpFR	16	2	0	DELINQUENT	445	n/a	1	n/a	n/a	n/a	n/a	n/a
286468	REC_WORD	wordpools/wasnorm_wordpool.txt	LTP148	ltpFR	16	2	0	INMATE	738	n/a	1	n/a	n/a	n/a	n/a	n/a
287835	REC_WORD	wordpools/wasnorm_wordpool.txt	LTP148	ltpFR	16	2	1	FLOUR	583	n/a	0	n/a	n/a	n/a	n/a	n/a
290180	REC_WORD	wordpools/wasnorm_wordpool.txt	LTP148	ltpFR	16	2	0	WASHER	1592	n/a	0	n/a	n/a	n/a	n/a	n/a
290727	REC_WORD	wordpools/wasnorm_wordpool.txt	LTP148	ltpFR	16	2	1	LINT	826	n/a	0	n/a	n/a	n/a	n/a	n/a
293418	REC_WORD	wordpools/wasnorm_wordpool.txt	LTP148	ltpFR	16	2	1	UNDERWEAR	1537	n/a	0	n/a	n/a	n/a	n/a	n/a
295872	REC_WORD	wordpools/wasnorm_wordpool.txt	LTP148	ltpFR	16	2	0	BRICK	172	n/a	0	n/a	n/a	n/a	n/a	n/a
296635	REC_WORD	wordpools/wasnorm_wordpool.txt	LTP148	ltpFR	16	2	0	WOUND	1624	n/a	0	n/a	n/a	n/a	n/a	n/a
299564	REC_WORD	wordpools/wasnorm_wordpool.txt	LTP148	ltpFR	16	2	0	SHELTER	1282	n/a	1	n/a	n/a	n/a	n/a	n/a
301305	REC_WORD	wordpools/wasnorm_wordpool.txt	LTP148	ltpFR	16	2	1	FORT	595	n/a	0	n/a	n/a	n/a	n/a	n/a
302437	REC_WORD	wordpools/wasnorm_wordpool.txt	LTP148	ltpFR	16	2	1	KETTLE	772	n/a	0	n/a	n/a	n/a	n/a	n/a
307710	REC_WORD	wordpools/wasnorm_wordpool.txt	LTP148	ltpFR	16	2	1	SKUNK	1321	n/a	1	n/a	n/a	n/a	n/a	n/a
311282	REC_WORD	wordpools/wasnorm_wordpool.txt	LTP148	ltpFR	16	2	1	UNDERWEAR	1537	n/a	0	n/a	n/a	n/a	n/a	n/a
316360	REC_WORD	wordpools/wasnorm_wordpool.txt	LTP148	ltpFR	16	2	0	WASHER	1592	n/a	0	n/a	n/a	n/a	n/a	n/a
330014	REC_WORD	wordpools/wasnorm_wordpool.txt	LTP148	ltpFR	16	2	0	WHALE	1601	n/a	1	n/a	n/a	n/a	n/a	n/a
345240	REC_WORD	wordpools/wasnorm_wordpool.txt	LTP148	ltpFR	16	2	1	RELATIVE	1182	n/a	1	n/a	n/a	n/a	n/a	n/a
369020	WORD	wordpools/wasnorm_wordpool.txt	LTP148	ltpFR	16	3	-1	PADDING	999	n/a	-1	1	1.0	1.0	upper	../fonts/Verdana.ttf
372932	WORD	wordpools/wasnorm_wordpool.txt	LTP148	ltpFR	16	3	-1	PREACHER	1119	n/a	-1	1	1.0	1.0	upper	../fonts/Verdana.ttf
376777	WORD	wordpools/wasnorm_wordpool.txt	LTP148	ltpFR	16	3	-1	SEAGULL	1261	n/a	-1	1	1.0	1.0	upper	../fonts/Verdana.ttf
380688	WORD	wordpools/wasnorm_wordpool.txt	LTP148	ltpFR	16	3	-1	DOUGH	489	n/a	-1	1	1.0	1.0	upper	../fonts/Verdana.ttf
384667	WORD	wordpools/wasnorm_wordpool.txt	LTP148	ltpFR	16	3	-1	RECEIPT	1173	n/a	-1	1	1.0	1.0	upper	../fonts/Verdana.ttf
388755	WORD	wordpools/wasnorm_wordpool.txt	LTP148	ltpFR	16	3	-1	LINEN	825	n/a	-1	1	1.0	1.0	upper	../fonts/Verdana.ttf
392742	WORD	wordpools/wasnorm_wordpool.txt	LTP148	ltpFR	16	3	-1	COUCH	386	n/a	-1	1	1.0	1.0	upper	../fonts/Verdana.ttf
396846	WORD	wordpools/wasnorm_wordpool.txt	LTP148	ltpFR	16	3	-1	MAP	865	n/a	-1	1	1.0	1.0	upper	../fonts/Verdana.ttf
400724	WORD	wordpools/wasnorm_wordpool.txt	LTP148	ltpFR	16	3	-1	WORLD	1622	n/a	-1	1	1.0	1.0	upper	../fonts/Verdana.ttf
404911	WORD	wordpools/wasnorm_wordpool.txt	LTP148	ltpFR	16	3	-1	VIOLA	1570	n/a	-1	1	1.0	1.0	upper	../fonts/Verdana.ttf
408890	WORD	wordpools/wasnorm_wordpool.txt	LTP148	ltpFR	16	3	-1	SPONGE	1355	n/a	-1	1	1.0	1.0	upper	../fonts/Verdana.ttf
412752	WORD	wordpools/wasnorm_wordpool.txt	LTP148	ltpFR	16	3	-1	UMPIRE	1535	n/a	-1	1	1.0	1.0	upper	../fonts/Verdana.ttf
416748	WORD	wordpools/wasnorm_wordpool.txt	LTP148	ltpFR	16	3	-1	COACH	331	n/a	-1	1	1.0	1.0	upper	../fonts/Verdana.ttf
420885	WORD	wordpools/wasnorm_wordpool.txt	LTP148	ltpFR	16	3	-1	LILY	821	n/a	-1	1	1.0	1.0	upper	../fonts/Verdana.ttf
424797	WORD	wordpools/wasnorm_wordpool.txt	LTP148	ltpFR	16	3	-1	CABLE	213	n/a	-1	1	1.0	1.0	upper	../fonts/Verdana.ttf
428650	WORD	wordpools/wasnorm_wordpool.txt	LTP148	ltpFR	16	3	-1	LAGOON	795	n/a	-1	1	1.0	1.0	upper	../fonts/Verdana.ttf
434453	REC_START	n/a	LTP148	ltpFR	16	3	n/a	n/a	n/a	n/a	n/a	n/a	n/a	n/a	n/a	n/a
435495	REC_WORD	wordpools/wasnorm_wordpool.txt	LTP148	ltpFR	16	3	-1	LAGOON	795	n/a	-1	n/a	n/a	n/a	n/a	n/a
436159	REC_WORD	wordpools/wasnorm_wordpool.txt	LTP148	ltpFR	16	3	-1	CABLE	213	n/a	-1	n/a	n/a	n/a	n/a	n/a
437142	REC_WORD	wordpools/wasnorm_wordpool.txt	LTP148	ltpFR	16	3	-1	LILY	821	n/a	-1	n/a	n/a	n/a	n/a	n/a
438434	REC_WORD	wordpools/wasnorm_wordpool.txt	LTP148	ltpFR	16	3	-1	UMPIRE	1535	n/a	-1	n/a	n/a	n/a	n/a	n/a
439496	REC_WORD	wordpools/wasnorm_wordpool.txt	LTP148	ltpFR	16	3	-1	COACH	331	n/a	-1	n/a	n/a	n/a	n/a	n/a
441587	REC_WORD	wordpools/wasnorm_wordpool.txt	LTP148	ltpFR	16	3	-1	PREACHER	1119	n/a	-1	n/a	n/a	n/a	n/a	n/a
442385	REC_WORD	wordpools/wasnorm_wordpool.txt	LTP148	ltpFR	16	3	-1	PADDING	999	n/a	-1	n/a	n/a	n/a	n/a	n/a
443472	REC_WORD	wordpools/wasnorm_wordpool.txt	LTP148	ltpFR	16	3	-1	DOUGH	489	n/a	-1	n/a	n/a	n/a	n/a	n/a
445552	REC_WORD	wordpools/wasnorm_wordpool.txt	LTP148	ltpFR	16	3	-1	LINEN	825	n/a	-1	n/a	n/a	n/a	n/a	n/a
446815	REC_WORD	wordpools/wasnorm_wordpool.txt	LTP148	ltpFR	16	3	-1	RECEIPT	1173	n/a	-1	n/a	n/a	n/a	n/a	n/a
447643	REC_WORD	wordpools/wasnorm_wordpool.txt	LTP148	ltpFR	16	3	-1	MAP	865	n/a	-1	n/a	n/a	n/a	n/a	n/a
448147	REC_WORD	wordpools/wasnorm_wordpool.txt	LTP148	ltpFR	16	3	-1	WORLD	1622	n/a	-1	n/a	n/a	n/a	n/a	n/a
449149	REC_WORD	wordpools/wasnorm_wordpool.txt	LTP148	ltpFR	16	3	-1	COUCH	386	n/a	-1	n/a	n/a	n/a	n/a	n/a
451379	REC_WORD	wordpools/wasnorm_wordpool.txt	LTP148	ltpFR	16	3	-1	VIOLA	1570	n/a	-1	n/a	n/a	n/a	n/a	n/a
452666	REC_WORD	wordpools/wasnorm_wordpool.txt	LTP148	ltpFR	16	3	-1	SEAGULL	1261	n/a	-1	n/a	n/a	n/a	n/a	n/a
465068	REC_WORD	wordpools/wasnorm_wordpool.txt	LTP148	ltpFR	16	3	-1	LILY	821	n/a	-1	n/a	n/a	n/a	n/a	n/a
499330	REC_WORD	wordpools/wasnorm_wordpool.txt	LTP148	ltpFR	16	3	-1	PREACHER	1119	n/a	-1	n/a	n/a	n/a	n/a	n/a
515941	WORD	wordpools/wasnorm_wordpool.txt	LTP148	ltpFR	16	4	1	NEWSPAPER	948	n/a	0	0	0.5869140625	0.422607421875	lower	../fonts/zerothre.ttf
519961	WORD	wordpools/wasnorm_wordpool.txt	LTP148	ltpFR	16	4	1	HOSTAGE	722	n/a	1	0	0.5869140625	0.422607421875	lower	../fonts/zerothre.ttf
524015	WORD	wordpools/wasnorm_wordpool.txt	LTP148	ltpFR	16	4	0	GANGSTER	620	n/a	1	1	0.412841796875	0.57763671875	upper	../fonts/amplitud.ttf
527877	WORD	wordpools/wasnorm_wordpool.txt	LTP148	ltpFR	16	4	0	TERMITE	1451	n/a	0	1	0.412841796875	0.57763671875	upper	../fonts/amplitud.ttf
531831	WORD	wordpools/wasnorm_wordpool.txt	LTP148	ltpFR	16	4	0	HIKER	708	n/a	1	1	0.412841796875	0.57763671875	upper	../fonts/amplitud.ttf
536018	WORD	wordpools/wasnorm_wordpool.txt	LTP148	ltpFR	16	4	0	FAN	551	n/a	1	1	0.412841796875	0.57763671875	upper	../fonts/amplitud.ttf
539938	WORD	wordpools/wasnorm_wordpool.txt	LTP148	ltpFR	16	4	1	BUTTERFLY	206	n/a	1	0	0.5869140625	0.422607421875	lower	../fonts/zerothre.ttf
544034	WORD	wordpools/wasnorm_wordpool.txt	LTP148	ltpFR	16	4	1	KIWI	781	n/a	1	0	0.5869140625	0.422607421875	lower	../fonts/zerothre.ttf
548220	WORD	wordpools/wasnorm_wordpool.txt	LTP148	ltpFR	16	4	0	VINE	1568	n/a	1	1	0.412841796875	0.57763671875	upper	../fonts/amplitud.ttf
552307	WORD	wordpools/wasnorm_wordpool.txt	LTP148	ltpFR	16	4	0	APARTMENT	30	n/a	1	1	0.412841796875	0.57763671875	upper	../fonts/amplitud.ttf
556461	WORD	wordpools/wasnorm_wordpool.txt	LTP148	ltpFR	16	4	0	COTTAGE	384	n/a	1	1	0.412841796875	0.57763671875	upper	../fonts/amplitud.ttf
560622	WORD	wordpools/wasnorm_wordpool.txt	LTP148	ltpFR	16	4	0	TAR	1435	n/a	0	1	0.412841796875	0.57763671875	upper	../fonts/amplitud.ttf
564692	WORD	wordpools/wasnorm_wordpool.txt	LTP148	ltpFR	16	4	1	CHIME	300	n/a	0	0	0.5869140625	0.422607421875	lower	../fonts/zerothre.ttf
568571	WORD	wordpools/wasnorm_wordpool.txt	LTP148	ltpFR	16	4	1	DRAWER	493	n/a	0	0	0.5869140625	0.422607421875	lower	../fonts/zerothre.ttf
572575	WORD	wordpools/wasnorm_wordpool.txt	LTP148	ltpFR	16	4	1	COFFIN	342	n/a	0	0	0.5869140625	0.422607421875	lower	../fonts/zerothre.ttf
576446	WORD	wordpools/wasnorm_wordpool.txt	LTP148	ltpFR	16	4	1	PEARL	1034	n/a	0	0	0.5869140625	0.422607421875	lower	../fonts/zerothre.ttf
582265	REC_START	n/a	LTP148	ltpFR	16	4	n/a	n/a	n/a	n/a	n/a	n/a	n/a	n/a	n/a	n/a
583572	REC_WORD	wordpools/wasnorm_wordpool.txt	LTP148	ltpFR	16	4	1	PEARL	1034	n/a	0	n/a	n/a	n/a	n/a	n/a
584604	REC_WORD	wordpools/wasnorm_wordpool.txt	LTP148	ltpFR	16	4	1	COFFIN	342	n/a	0	n/a	n/a	n/a	n/a	n/a
587802	REC_WORD	wordpools/wasnorm_wordpool.txt	LTP148	ltpFR	16	4	1	DRAWER	493	n/a	0	n/a	n/a	n/a	n/a	n/a
589932	REC_WORD	wordpools/wasnorm_wordpool.txt	LTP148	ltpFR	16	4	1	HOSTAGE	722	n/a	1	n/a	n/a	n/a	n/a	n/a
590681	REC_WORD	wordpools/wasnorm_wordpool.txt	LTP148	ltpFR	16	4	1	NEWSPAPER	948	n/a	0	n/a	n/a	n/a	n/a	n/a
592746	REC_WORD	wordpools/wasnorm_wordpool.txt	LTP148	ltpFR	16	4	1	CHIME	300	n/a	0	n/a	n/a	n/a	n/a	n/a
594093	REC_WORD	wordpools/wasnorm_wordpool.txt	LTP148	ltpFR	16	4	1	BUTTERFLY	206	n/a	1	n/a	n/a	n/a	n/a	n/a
596273	REC_WORD	wordpools/wasnorm_wordpool.txt	LTP148	ltpFR	16	4	0	COTTAGE	384	n/a	1	n/a	n/a	n/a	n/a	n/a
597545	REC_WORD	wordpools/wasnorm_wordpool.txt	LTP148	ltpFR	16	4	0	APARTMENT	30	n/a	1	n/a	n/a	n/a	n/a	n/a
599735	REC_WORD	wordpools/wasnorm_wordpool.txt	LTP148	ltpFR	16	4	0	GANGSTER	620	n/a	1	n/a	n/a	n/a	n/a	n/a
601117	REC_WORD	wordpools/wasnorm_wordpool.txt	LTP148	ltpFR	16	4	0	HIKER	708	n/a	1	n/a	n/a	n/a	n/a	n/a
602389	REC_WORD	wordpools/wasnorm_wordpool.txt	LTP148	ltpFR	16	4	0	TERMITE	1451	n/a	0	n/a	n/a	n/a	n/a	n/a
606634	REC_WORD	wordpools/wasnorm_wordpool.txt	LTP148	ltpFR	16	4	-1	MAP	865	n/a	-1	n/a	n/a	n/a	n/a	n/a
650131	REC_WORD	wordpools/wasnorm_wordpool.txt	LTP148	ltpFR	16	4	0	GANGSTER	620	n/a	1	n/a	n/a	n/a	n/a	n/a
670745	WORD	wordpools/wasnorm_wordpool.txt	LTP148	ltpFR	16	5	1	SLIME	1327	n/a	0	0	0.5869140625	0.422607421875	lower	../fonts/zerothre.ttf
674857	WORD	wordpools/wasnorm_wordpool.txt	LTP148	ltpFR	16	5	1	GOAT	644	n/a	1	0	0.5869140625	0.422607421875	lower	../fonts/zerothre.ttf
679010	WORD	wordpools/wasnorm_wordpool.txt	LTP148	ltpFR	16	5	1	VAGRANT	1544	n/a	1	0	0.5869140625	0.422607421875	lower	../fonts/zerothre.ttf
683147	WORD	wordpools/wasnorm_wordpool.txt	LTP148	ltpFR	16	5	1	CELERY	266	n/a	0	0	0.5869140625	0.422607421875	lower	../fonts/zerothre.ttf
687218	WORD	wordpools/wasnorm_wordpool.txt	LTP148	ltpFR	16	5	1	PICKLE	1059	n/a	0	0	0.5869140625	0.422607421875	lower	../fonts/zerothre.ttf
691429	WORD	wordpools/wasnorm_wordpool.txt	LTP148	ltpFR	16	5	0	ZUCCHINI	1638	n/a	0	1	0.412841796875	0.57763671875	upper	../fonts/amplitud.ttf
695475	WORD	wordpools/wasnorm_wordpool.txt	LTP148	ltpFR	16	5	0	STEM	1376	n/a	0	1	0.412841796875	0.57763671875	upper	../fonts/amplitud.ttf
699552	WORD	wordpools/wasnorm_wordpool.txt	LTP148	ltpFR	16	5	1	POLICE	1098	n/a	1	0	0.5869140625	0.422607421875	lower	../fonts/zerothre.ttf
703515	WORD	wordpools/wasnorm_wordpool.txt	LTP148	ltpFR	16	5	1	SCULPTURE	1258	n/a	0	0	0.5869140625	0.422607421875	lower	../fonts/zerothre.ttf
707378	WORD	wordpools/wasnorm_wordpool.txt	LTP148	ltpFR	16	5	1	ANIMAL	23	n/a	1	0	0.5869140625	0.422607421875	lower	../fonts/zerothre.ttf
711356	WORD	wordpools/wasnorm_wordpool.txt	LTP148	ltpFR	16	5	0	BEAVER	109	n/a	1	1	0.412841796875	0.57763671875	upper	../fonts/amplitud.ttf
715393	WORD	wordpools/wasnorm_wordpool.txt	LTP148	ltpFR	16	5	0	DRAWING	494	n/a	0	1	0.412841796875	0.57763671875	upper	../fonts/amplitud.ttf
719206	WORD	wordpools/wasnorm_wordpool.txt	LTP148	ltpFR	16	5	0	BOAT	144	n/a	1	1	0.412841796875	0.57763671875	upper	../fonts/amplitud.ttf
723093	WORD	wordpools/wasnorm_wordpool.txt	LTP148	ltpFR	16	5	0	FOUNTAIN	597	n/a	1	1	0.412841796875	0.57763671875	upper	../fonts/amplitud.ttf
727088	WORD	wordpools/wasnorm_wordpool.txt	LTP148	ltpFR	16	5	0	CANAL	226	n/a	1	1	0.412841796875	0.57763671875	upper	../fonts/amplitud.ttf
731250	WORD	wordpools/wasnorm_wordpool.txt	LTP148	ltpFR	16	5	0	LAKE	796	n/a	1	1	0.412841796875	0.57763671875	upper	../fonts/amplitud.ttf
737086	REC_START	n/a	LTP148	ltpFR	16	5	n/a	n/a	n/a	n/a	n/a	n/a	n/a	n/a	n/a	n/a
739136	REC_WORD	wordpools/wasnorm_wordpool.txt	LTP148	ltpFR	16	5	0	LAKE	796	n/a	1	n/a	n/a	n/a	n/a	n/a
740294	REC_WORD	wordpools/wasnorm_wordpool.txt	LTP148	ltpFR	16	5	0	CANAL	226	n/a	1	n/a	n/a	n/a	n/a	n/a
741152	REC_WORD	wordpools/wasnorm_wordpool.txt	LTP148	ltpFR	16	5	0	FOUNTAIN	597	n/a	1	n/a	n/a	n/a	n/a	n/a
742479	REC_WORD	wordpools/wasnorm_wordpool.txt	LTP148	ltpFR	16	5	0	BOAT	144	n/a	1	n/a	n/a	n/a	n/a	n/a
745242	REC_WORD	wordpools/wasnorm_wordpool.txt	LTP148	ltpFR	16	5	0	TERMITE	1451	n/a	0	n/a	n/a	n/a	n/a	n/a
748674	REC_WORD	wordpools/wasnorm_wordpool.txt	LTP148	ltpFR	16	5	1	VAGRANT	1544	n/a	1	n/a	n/a	n/a	n/a	n/a
750515	REC_WORD	wordpools/wasnorm_wordpool.txt	LTP148	ltpFR	16	5	1	POLICE	1098	n/a	1	n/a	n/a	n/a	n/a	n/a
752291	REC_WORD	wordpools/wasnorm_wordpool.txt	LTP148	ltpFR	16	5	1	GOAT	644	n/a	1	n/a	n/a	n/a	n/a	n/a
753139	REC_WORD	wordpools/wasnorm_wordpool.txt	LTP148	ltpFR	16	5	1	ANIMAL	23	n/a	1	n/a	n/a	n/a	n/a	n/a
754486	REC_WORD	wordpools/wasnorm_wordpool.txt	LTP148	ltpFR	16	5	1	SLIME	1327	n/a	0	n/a	n/a	n/a	n/a	n/a
755818	REC_WORD	wordpools/wasnorm_wordpool.txt	LTP148	ltpFR	16	5	0	STEM	1376	n/a	0	n/a	n/a	n/a	n/a	n/a
757708	REC_WORD	wordpools/wasnorm_wordpool.txt	LTP148	ltpFR	16	5	0	ZUCCHINI	1638	n/a	0	n/a	n/a	n/a	n/a	n/a
758612	REC_WORD	wordpools/wasnorm_wordpool.txt	LTP148	ltpFR	16	5	1	CELERY	266	n/a	0	n/a	n/a	n/a	n/a	n/a
760318	REC_WORD	wordpools/wasnorm_wordpool.txt	LTP148	ltpFR	16	5	n/a	CUCUMBER	421	n/a	n/a	n/a	n/a	n/a	n/a	n/a
767851	REC_WORD	wordpools/wasnorm_wordpool.txt	LTP148	ltpFR	16	5	1	KIWI	781	n/a	1	n/a	n/a	n/a	n/a	n/a
771034	REC_WORD	wordpools/wasnorm_wordpool.txt	LTP148	ltpFR	16	5	1	HOSTAGE	722	n/a	1	n/a	n/a	n/a	n/a	n/a
787706	REC_WORD	wordpools/wasnorm_wordpool.txt	LTP148	ltpFR	16	5	0	BEAVER	109	n/a	1	n/a	n/a	n/a	n/a	n/a
794106	REC_WORD	wordpools/wasnorm_wordpool.txt	LTP148	ltpFR	16	5	-1	LAGOON	795	n/a	-1	n/a	n/a	n/a	n/a	n/a
815885	WORD	wordpools/wasnorm_wordpool.txt	LTP148	ltpFR	16	6	1	TWIG	1527	n/a	0	0	0.5869140625	0.422607421875	lower	../fonts/zerothre.ttf
820047	WORD	wordpools/wasnorm_wordpool.txt	LTP148	ltpFR	16	6	1	SHRUB	1299	n/a	1	0	0.5869140625	0.422607421875	lower	../fonts/zerothre.ttf
824076	WORD	wordpools/wasnorm_wordpool.txt	LTP148	ltpFR	16	6	1	THESAURUS	1454	n/a	0	0	0.5869140625	0.422607421875	lower	../fonts/zerothre.ttf
828088	WORD	wordpools/wasnorm_wordpool.txt	LTP148	ltpFR	16	6	1	BARREL	91	n/a	0	0	0.5869140625	0.422607421875	lower	../fonts/zerothre.ttf
831975	WORD	wordpools/wasnorm_wordpool.txt	LTP148	ltpFR	16	6	1	REFRIGERATOR	1179	n/a	0	0	0.5869140625	0.422607421875	lower	../fonts/zerothre.ttf
836095	WORD	wordpools/wasnorm_wordpool.txt	LTP148	ltpFR	16	6	1	SWAMP	1416	n/a	0	0	0.5869140625	0.422607421875	lower	../fonts/zerothre.ttf
840091	WORD	wordpools/wasnorm_wordpool.txt	LTP148	ltpFR	16	6	1	VIDEO	1564	n/a	0	0	0.5869140625	0.422607421875	lower	../fonts/zerothre.ttf
844227	WORD	wordpools/wasnorm_wordpool.txt	LTP148	ltpFR	16	6	1	TAPE	1433	n/a	0	0	0.5869140625	0.422607421875	lower	../fonts/zerothre.ttf
848248	WORD	wordpools/wasnorm_wordpool.txt	LTP148	ltpFR	16	6	1	PARTNER	1017	n/a	1	0	0.5869140625	0.422607421875	lower	../fonts/zerothre.ttf
852368	WORD	wordpools/wasnorm_wordpool.txt	LTP148	ltpFR	16	6	1	PAN	1008	n/a	0	0	0.5869140625	0.422607421875	lower	../fonts/zerothre.ttf
856280	WORD	wordpools/wasnorm_wordpool.txt	LTP148	ltpFR	16	6	1	TOWEL	1489	n/a	0	0	0.5869140625	0.422607421875	lower	../fonts/zerothre.ttf
860234	WORD	wordpools/wasnorm_wordpool.txt	LTP148	ltpFR	16	6	1	COMPANION	357	n/a	1	0	0.5869140625	0.422607421875	lower	../fonts/zerothre.ttf
864179	WORD	wordpools/wasnorm_wordpool.txt	LTP148	ltpFR	16	6	1	CHEF	290	n/a	1	0	0.5869140625	0.422607421875	lower	../fonts/zerothre.ttf
868033	WORD	wordpools/wasnorm_wordpool.txt	LTP148	ltpFR	16	6	1	HORSE	719	n/a	1	0	0.5869140625	0.422607421875	lower	../fonts/zerothre.ttf
872095	WORD	wordpools/wasnorm_wordpool.txt	LTP148	ltpFR	16	6	1	GROCERY	664	n/a	0	0	0.5869140625	0.422607421875	lower	../fonts/zerothre.ttf
876107	WORD	wordpools/wasnorm_wordpool.txt	LTP148	ltpFR	16	6	1	RESTAURANT	1187	n/a	0	0	0.5869140625	0.422607421875	lower	../fonts/zerothre.ttf
881684	REC_START	n/a	LTP148	ltpFR	16	6	n/a	n/a	n/a	n/a	n/a	n/a	n/a	n/a	n/a	n/a
882731	REC_WORD	wordpools/wasnorm_wordpool.txt	LTP148	ltpFR	16	6	1	GROCERY	664	n/a	0	n/a	n/a	n/a	n/a	n/a
883964	REC_WORD	wordpools/wasnorm_wordpool.txt	LTP148	ltpFR	16	6	1	RESTAURANT	1187	n/a	0	n/a	n/a	n/a	n/a	n/a
885525	REC_WORD	wordpools/wasnorm_wordpool.txt	LTP148	ltpFR	16	6	1	PAN	1008	n/a	0	n/a	n/a	n/a	n/a	n/a
886682	REC_WORD	wordpools/wasnorm_wordpool.txt	LTP148	ltpFR	16	6	1	CHEF	290	n/a	1	n/a	n/a	n/a	n/a	n/a
888608	REC_WORD	wordpools/wasnorm_wordpool.txt	LTP148	ltpFR	16	6	1	REFRIGERATOR	1179	n/a	0	n/a	n/a	n/a	n/a	n/a
890444	REC_WORD	wordpools/wasnorm_wordpool.txt	LTP148	ltpFR	16	6	1	BARREL	91	n/a	0	n/a	n/a	n/a	n/a	n/a
891571	REC_WORD	wordpools/wasnorm_wordpool.txt	LTP148	ltpFR	16	6	1	PICKLE	1059	n/a	0	n/a	n/a	n/a	n/a	n/a
892409	REC_WORD	wordpools/wasnorm_wordpool.txt	LTP148	ltpFR	16	6	1	THESAURUS	1454	n/a	0	n/a	n/a	n/a	n/a	n/a
893920	REC_WORD	wordpools/wasnorm_wordpool.txt	LTP148	ltpFR	16	6	1	SWAMP	1416	n/a	0	n/a	n/a	n/a	n/a	n/a
915077	REC_WORD	wordpools/wasnorm_wordpool.txt	LTP148	ltpFR	16	6	1	COMPANION	357	n/a	1	n/a	n/a	n/a	n/a	n/a
926422	REC_WORD	wordpools/wasnorm_wordpool.txt	LTP148	ltpFR	16	6	1	TAPE	1433	n/a	0	n/a	n/a	n/a	n/a	n/a
927016	REC_WORD	wordpools/wasnorm_wordpool.txt	LTP148	ltpFR	16	6	1	VIDEO	1564	n/a	0	n/a	n/a	n/a	n/a	n/a
944451	REC_WORD	wordpools/wasnorm_wordpool.txt	LTP148	ltpFR	16	6	1	TOWEL	1489	n/a	0	n/a	n/a	n/a	n/a	n/a
952033	REC_WORD	wordpools/wasnorm_wordpool.txt	LTP148	ltpFR	16	6	1	VAGRANT	1544	n/a	1	n/a	n/a	n/a	n/a	n/a
954613	REC_WORD	wordpools/wasnorm_wordpool.txt	LTP148	ltpFR	16	6	1	GOAT	644	n/a	1	n/a	n/a	n/a	n/a	n/a
979071	WORD	wordpools/wasnorm_wordpool.txt	LTP148	ltpFR	16	7	0	CACTUS	215	n/a	1	1	0.412841796875	0.57763671875	upper	../fonts/amplitud.ttf
983000	WORD	wordpools/wasnorm_wordpool.txt	LTP148	ltpFR	16	7	0	ROSE	1212	n/a	0	1	0.412841796875	0.57763671875	upper	../fonts/amplitud.ttf
987203	WORD	wordpools/wasnorm_wordpool.txt	LTP148	ltpFR	16	7	0	PIANO	1057	n/a	1	1	0.412841796875	0.57763671875	upper	../fonts/amplitud.ttf
991232	WORD	wordpools/wasnorm_wordpool.txt	LTP148	ltpFR	16	7	1	KNIGHT	786	n/a	1	0	0.5869140625	0.422607421875	lower	../fonts/zerothre.ttf
995294	WORD	wordpools/wasnorm_wordpool.txt	LTP148	ltpFR	16	7	1	ROOSTER	1209	n/a	1	0	0.5869140625	0.422607421875	lower	../fonts/zerothre.ttf
999381	WORD	wordpools/wasnorm_wordpool.txt	LTP148	ltpFR	16	7	1	SNAIL	1332	n/a	1	0	0.5869140625	0.422607421875	lower	../fonts/zerothre.ttf
1003351	WORD	wordpools/wasnorm_wordpool.txt	LTP148	ltpFR	16	7	1	SKELETON	1314	n/a	0	0	0.5869140625	0.422607421875	lower	../fonts/zerothre.ttf
1007355	WORD	wordpools/wasnorm_wordpool.txt	LTP148	ltpFR	16	7	0	RIVER	1194	n/a	1	1	0.412841796875	0.57763671875	upper	../fonts/amplitud.ttf
1011226	WORD	wordpools/wasnorm_wordpool.txt	LTP148	ltpFR	16	7	0	TIDE	1465	n/a	1	1	0.412841796875	0.57763671875	upper	../fonts/amplitud.ttf
1015354	WORD	wordpools/wasnorm_wordpool.txt	LTP148	ltpFR	16	7	1	ROOT	1210	n/a	1	0	0.5869140625	0.422607421875	lower	../fonts/zerothre.ttf
1019283	WORD	wordpools/wasnorm_wordpool.txt	LTP148	ltpFR	16	7	1	CHARCOAL	281	n/a	0	0	0.5869140625	0.422607421875	lower	../fonts/zerothre.ttf
1023486	WORD	wordpools/wasnorm_wordpool.txt	LTP148	ltpFR	16	7	1	FOSSIL	596	n/a	0	0	0.5869140625	0.422607421875	lower	../fonts/zerothre.ttf
1027490	WORD	wordpools/wasnorm_wordpool.txt	LTP148	ltpFR	16	7	1	PLAID	1080	n/a	0	0	0.5869140625	0.422607421875	lower	../fonts/zerothre.ttf
1031469	WORD	wordpools/wasnorm_wordpool.txt	LTP148	ltpFR	16	7	0	MOSS	918	n/a	0	1	0.412841796875	0.57763671875	upper	../fonts/amplitud.ttf
1035538	WORD	wordpools/wasnorm_wordpool.txt	LTP148	ltpFR	16	7	0	COSTUME	383	n/a	1	1	0.412841796875	0.57763671875	upper	../fonts/amplitud.ttf
1039493	WORD	wordpools/wasnorm_wordpool.txt	LTP148	ltpFR	16	7	0	LAUNDRY	803	n/a	1	1	0.412841796875	0.57763671875	upper	../fonts/amplitud.ttf
1045154	REC_START	n/a	LTP148	ltpFR	16	7	n/a	n/a	n/a	n/a	n/a	n/a	n/a	n/a	n/a	n/a
1046950	REC_WORD	wordpools/wasnorm_wordpool.txt	LTP148	ltpFR	16	7	0	COSTUME	383	n/a	1	n/a	n/a	n/a	n/a	n/a
1047773	REC_WORD	wordpools/wasnorm_wordpool.txt	LTP148	ltpFR	16	7	0	LAUNDRY	803	n/a	1	n/a	n/a	n/a	n/a	n/a
1049499	REC_WORD	wordpools/wasnorm_wordpool.txt	LTP148	ltpFR	16	7	0	CACTUS	215	n/a	1	n/a	n/a	n/a	n/a	n/a
1050551	REC_WORD	wordpools/wasnorm_wordpool.txt	LTP148	ltpFR	16	7	0	ROSE	1212	n/a	0	n/a	n/a	n/a	n/a	n/a
1058793	REC_WORD	wordpools/wasnorm_wordpool.txt	LTP148	ltpFR	16	7	0	MOSS	918	n/a	0	n/a	n/a	n/a	n/a	n/a
1077051	REC_WORD	wordpools/wasnorm_wordpool.txt	LTP148	ltpFR	16	7	1	ROOT	1210	n/a	1	n/a	n/a	n/a	n/a	n/a
1082703	REC_WORD	wordpools/wasnorm_wordpool.txt	LTP148	ltpFR	16	7	1	TWIG	1527	n/a	0	n/a	n/a	n/a	n/a	n/a
1083462	REC_WORD	wordpools/wasnorm_wordpool.txt	LTP148	ltpFR	16	7	1	SHRUB	1299	n/a	1	n/a	n/a	n/a	n/a	n/a
1091967	REC_WORD	wordpools/wasnorm_wordpool.txt	LTP148	ltpFR	16	7	1	SKELETON	1314	n/a	0	n/a	n/a	n/a	n/a	n/a
1093065	REC_WORD	wordpools/wasnorm_wordpool.txt	LTP148	ltpFR	16	7	1	FOSSIL	596	n/a	0	n/a	n/a	n/a	n/a	n/a
1097789	REC_WORD	wordpools/wasnorm_wordpool.txt	LTP148	ltpFR	16	7	1	CHARCOAL	281	n/a	0	n/a	n/a	n/a	n/a	n/a
1101770	REC_WORD	wordpools/wasnorm_wordpool.txt	LTP148	ltpFR	16	7	1	CELERY	266	n/a	0	n/a	n/a	n/a	n/a	n/a
1125110	WORD	wordpools/wasnorm_wordpool.txt	LTP148	ltpFR	16	8	-1	GROCERIES	663	n/a	-1	1	1.0	1.0	upper	../fonts/Verdana.ttf
1129081	WORD	wordpools/wasnorm_wordpool.txt	LTP148	ltpFR	16	8	-1	COOLER	375	n/a	-1	1	1.0	1.0	upper	../fonts/Verdana.ttf
1133001	WORD	wordpools/wasnorm_wordpool.txt	LTP148	ltpFR	16	8	-1	CORK	380	n/a	-1	1	1.0	1.0	upper	../fonts/Verdana.ttf
1137213	WORD	wordpools/wasnorm_wordpool.txt	LTP148	ltpFR	16	8	-1	PUDDLE	1140	n/a	-1	1	1.0	1.0	upper	../fonts/Verdana.ttf
1141283	WORD	wordpools/wasnorm_wordpool.txt	LTP148	ltpFR	16	8	-1	MAILMAN	858	n/a	-1	1	1.0	1.0	upper	../fonts/Verdana.ttf
1145495	WORD	wordpools/wasnorm_wordpool.txt	LTP148	ltpFR	16	8	-1	BEAST	108	n/a	-1	1	1.0	1.0	upper	../fonts/Verdana.ttf
1149424	WORD	wordpools/wasnorm_wordpool.txt	LTP148	ltpFR	16	8	-1	HEADBAND	696	n/a	-1	1	1.0	1.0	upper	../fonts/Verdana.ttf
1153269	WORD	wordpools/wasnorm_wordpool.txt	LTP148	ltpFR	16	8	-1	AFRICA	9	n/a	-1	1	1.0	1.0	upper	../fonts/Verdana.ttf
1157273	WORD	wordpools/wasnorm_wordpool.txt	LTP148	ltpFR	16	8	-1	TRIBE	1505	n/a	-1	1	1.0	1.0	upper	../fonts/Verdana.ttf
1161418	WORD	wordpools/wasnorm_wordpool.txt	LTP148	ltpFR	16	8	-1	GODDESS	646	n/a	-1	1	1.0	1.0	upper	../fonts/Verdana.ttf
1165447	WORD	wordpools/wasnorm_wordpool.txt	LTP148	ltpFR	16	8	-1	FIREMAN	569	n/a	-1	1	1.0	1.0	upper	../fonts/Verdana.ttf
1169434	WORD	wordpools/wasnorm_wordpool.txt	LTP148	ltpFR	16	8	-1	CAFETERIA	217	n/a	-1	1	1.0	1.0	upper	../fonts/Verdana.ttf
1173488	WORD	wordpools/wasnorm_wordpool.txt	LTP148	ltpFR	16	8	-1	PIE	1062	n/a	-1	1	1.0	1.0	upper	../fonts/Verdana.ttf
1177383	WORD	wordpools/wasnorm_wordpool.txt	LTP148	ltpFR	16	8	-1	PACKAGE	997	n/a	-1	1	1.0	1.0	upper	../fonts/Verdana.ttf
1181245	WORD	wordpools/wasnorm_wordpool.txt	LTP148	ltpFR	16	8	-1	CRADLE	399	n/a	-1	1	1.0	1.0	upper	../fonts/Verdana.ttf
1185274	WORD	wordpools/wasnorm_wordpool.txt	LTP148	ltpFR	16	8	-1	BASSINET	97	n/a	-1	1	1.0	1.0	upper	../fonts/Verdana.ttf
1191226	REC_START	n/a	LTP148	ltpFR	16	8	n/a	n/a	n/a	n/a	n/a	n/a	n/a	n/a	n/a	n/a
1192154	REC_WORD	wordpools/wasnorm_wordpool.txt	LTP148	ltpFR	16	8	-1	CRADLE	399	n/a	-1	n/a	n/a	n/a	n/a	n/a
1193191	REC_WORD	wordpools/wasnorm_wordpool.txt	LTP148	ltpFR	16	8	-1	BASSINET	97	n/a	-1	n/a	n/a	n/a	n/a	n/a
1194478	REC_WORD	wordpools/wasnorm_wordpool.txt	LTP148	ltpFR	16	8	-1	COOLER	375	n/a	-1	n/a	n/a	n/a	n/a	n/a
1195317	REC_WORD	wordpools/wasnorm_wordpool.txt	LTP148	ltpFR	16	8	-1	GROCERIES	663	n/a	-1	n/a	n/a	n/a	n/a	n/a
1196317	REC_WORD_VV	wordpools/wasnorm_wordpool.txt	LTP148	ltpFR	16	8	n/a	<>	-1	n/a	n/a	n/a	n/a	n/a	n/a	n/a
1197282	REC_WORD	wordpools/wasnorm_wordpool.txt	LTP148	ltpFR	16	8	-1	MAILMAN	858	n/a	-1	n/a	n/a	n/a	n/a	n/a
1198040	REC_WORD	wordpools/wasnorm_wordpool.txt	LTP148	ltpFR	16	8	-1	FIREMAN	569	n/a	-1	n/a	n/a	n/a	n/a	n/a
1199806	REC_WORD	wordpools/wasnorm_wordpool.txt	LTP148	ltpFR	16	8	-1	CAFETERIA	217	n/a	-1	n/a	n/a	n/a	n/a	n/a
1200806	REC_WORD_VV	wordpools/wasnorm_wordpool.txt	LTP148	ltpFR	16	8	n/a	<>	-1	n/a	n/a	n/a	n/a	n/a	n/a	n/a
1203009	REC_WORD	wordpools/wasnorm_wordpool.txt	LTP148	ltpFR	16	8	-1	BEAST	108	n/a	-1	n/a	n/a	n/a	n/a	n/a
1205433	REC_WORD	wordpools/wasnorm_wordpool.txt	LTP148	ltpFR	16	8	-1	TRIBE	1505	n/a	-1	n/a	n/a	n/a	n/a	n/a
1206142	REC_WORD	wordpools/wasnorm_wordpool.txt	LTP148	ltpFR	16	8	-1	AFRICA	9	n/a	-1	n/a	n/a	n/a	n/a	n/a
1210272	REC_WORD	wordpools/wasnorm_wordpool.txt	LTP148	ltpFR	16	8	-1	PACKAGE	997	n/a	-1	n/a	n/a	n/a	n/a	n/a
1213515	REC_WORD	wordpools/wasnorm_wordpool.txt	LTP148	ltpFR	16	8	-1	PUDDLE	1140	n/a	-1	n/a	n/a	n/a	n/a	n/a
1231295	REC_WORD	wordpools/wasnorm_wordpool.txt	LTP148	ltpFR	16	8	-1	CORK	380	n/a	-1	n/a	n/a	n/a	n/a	n/a
1248181	REC_WORD	wordpools/wasnorm_wordpool.txt	LTP148	ltpFR	16	8	-1	GODDESS	646	n/a	-1	n/a	n/a	n/a	n/a	n/a
1253798	REC_WORD	wordpools/wasnorm_wordpool.txt	LTP148	ltpFR	16	8	-1	PUDDLE	1140	n/a	-1	n/a	n/a	n/a	n/a	n/a
1277792	WORD	wordpools/wasnorm_wordpool.txt	LTP148	ltpFR	16	9	-1	OX	994	n/a	-1	1	1.0	1.0	upper	../fonts/Verdana.ttf
1281845	WORD	wordpools/wasnorm_wordpool.txt	LTP148	ltpFR	16	9	-1	HERD	705	n/a	-1	1	1.0	1.0	upper	../fonts/Verdana.ttf
1285799	WORD	wordpools/wasnorm_wordpool.txt	LTP148	ltpFR	16	9	-1	VASE	1549	n/a	-1	1	1.0	1.0	upper	../fonts/Verdana.ttf
1289870	WORD	wordpools/wasnorm_wordpool.txt	LTP148	ltpFR	16	9	-1	WALL	1582	n/a	-1	1	1.0	1.0	upper	../fonts/Verdana.ttf
1294015	WORD	wordpools/wasnorm_wordpool.txt	LTP148	ltpFR	16	9	-1	BEET	115	n/a	-1	1	1.0	1.0	upper	../fonts/Verdana.ttf
1298210	WORD	wordpools/wasnorm_wordpool.txt	LTP148	ltpFR	16	9	-1	BARN	89	n/a	-1	1	1.0	1.0	upper	../fonts/Verdana.ttf
1302055	WORD	wordpools/wasnorm_wordpool.txt	LTP148	ltpFR	16	9	-1	RIBBON	1189	n/a	-1	1	1.0	1.0	upper	../fonts/Verdana.ttf
1306059	WORD	wordpools/wasnorm_wordpool.txt	LTP148	ltpFR	16	9	-1	CORN	381	n/a	-1	1	1.0	1.0	upper	../fonts/Verdana.ttf
1310163	WORD	wordpools/wasnorm_wordpool.txt	LTP148	ltpFR	16	9	-1	BABY	64	n/a	-1	1	1.0	1.0	upper	../fonts/Verdana.ttf
1314158	WORD	wordpools/wasnorm_wordpool.txt	LTP148	ltpFR	16	9	-1	BANDIT	81	n/a	-1	1	1.0	1.0	upper	../fonts/Verdana.ttf
1317979	WORD	wordpools/wasnorm_wordpool.txt	LTP148	ltpFR	16	9	-1	TRACTOR	1493	n/a	-1	1	1.0	1.0	upper	../fonts/Verdana.ttf
1322149	WORD	wordpools/wasnorm_wordpool.txt	LTP148	ltpFR	16	9	-1	SPHINX	1349	n/a	-1	1	1.0	1.0	upper	../fonts/Verdana.ttf
1326019	WORD	wordpools/wasnorm_wordpool.txt	LTP148	ltpFR	16	9	-1	BUTTER	205	n/a	-1	1	1.0	1.0	upper	../fonts/Verdana.ttf
1330056	WORD	wordpools/wasnorm_wordpool.txt	LTP148	ltpFR	16	9	-1	GRASSHOPPER	656	n/a	-1	1	1.0	1.0	upper	../fonts/Verdana.ttf
1334093	WORD	wordpools/wasnorm_wordpool.txt	LTP148	ltpFR	16	9	-1	FUNGUS	614	n/a	-1	1	1.0	1.0	upper	../fonts/Verdana.ttf
1338064	WORD	wordpools/wasnorm_wordpool.txt	LTP148	ltpFR	16	9	-1	DIAPER	459	n/a	-1	1	1.0	1.0	upper	../fonts/Verdana.ttf
1343958	REC_START	n/a	LTP148	ltpFR	16	9	n/a	n/a	n/a	n/a	n/a	n/a	n/a	n/a	n/a	n/a
1344950	REC_WORD	wordpools/wasnorm_wordpool.txt	LTP148	ltpFR	16	9	-1	DIAPER	459	n/a	-1	n/a	n/a	n/a	n/a	n/a
1345744	REC_WORD	wordpools/wasnorm_wordpool.txt	LTP148	ltpFR	16	9	-1	BABY	64	n/a	-1	n/a	n/a	n/a	n/a	n/a
1347525	REC_WORD	wordpools/wasnorm_wordpool.txt	LTP148	ltpFR	16	9	-1	FUNGUS	614	n/a	-1	n/a	n/a	n/a	n/a	n/a
1348457	REC_WORD	wordpools/wasnorm_wordpool.txt	LTP148	ltpFR	16	9	-1	GRASSHOPPER	656	n/a	-1	n/a	n/a	n/a	n/a	n/a
1350468	REC_WORD	wordpools/wasnorm_wordpool.txt	LTP148	ltpFR	16	9	-1	CORN	381	n/a	-1	n/a	n/a	n/a	n/a	n/a
1351171	REC_WORD	wordpools/wasnorm_wordpool.txt	LTP148	ltpFR	16	9	-1	TRACTOR	1493	n/a	-1	n/a	n/a	n/a	n/a	n/a
1352039	REC_WORD	wordpools/wasnorm_wordpool.txt	LTP148	ltpFR	16	9	-1	BARN	89	n/a	-1	n/a	n/a	n/a	n/a	n/a
1352608	REC_WORD	wordpools/wasnorm_wordpool.txt	LTP148	ltpFR	16	9	-1	HERD	705	n/a	-1	n/a	n/a	n/a	n/a	n/a
1354155	REC_WORD	wordpools/wasnorm_wordpool.txt	LTP148	ltpFR	16	9	-1	OX	994	n/a	-1	n/a	n/a	n/a	n/a	n/a
1356340	REC_WORD	wordpools/wasnorm_wordpool.txt	LTP148	ltpFR	16	9	-1	VASE	1549	n/a	-1	n/a	n/a	n/a	n/a	n/a
1357452	REC_WORD	wordpools/wasnorm_wordpool.txt	LTP148	ltpFR	16	9	-1	WALL	1582	n/a	-1	n/a	n/a	n/a	n/a	n/a
1358919	REC_WORD	wordpools/wasnorm_wordpool.txt	LTP148	ltpFR	16	9	-1	BUTTER	205	n/a	-1	n/a	n/a	n/a	n/a	n/a
1359672	REC_WORD	wordpools/wasnorm_wordpool.txt	LTP148	ltpFR	16	9	-1	BEET	115	n/a	-1	n/a	n/a	n/a	n/a	n/a
1368876	REC_WORD	wordpools/wasnorm_wordpool.txt	LTP148	ltpFR	16	9	-1	BANDIT	81	n/a	-1	n/a	n/a	n/a	n/a	n/a
1384081	REC_WORD	wordpools/wasnorm_wordpool.txt	LTP148	ltpFR	16	9	-1	BEET	115	n/a	-1	n/a	n/a	n/a	n/a	n/a
1392687	REC_WORD	wordpools/wasnorm_wordpool.txt	LTP148	ltpFR	16	9	-1	OX	994	n/a	-1	n/a	n/a	n/a	n/a	n/a
1395989	REC_WORD	wordpools/wasnorm_wordpool.txt	LTP148	ltpFR	16	9	-1	HERD	705	n/a	-1	n/a	n/a	n/a	n/a	n/a
1414053	REC_WORD	wordpools/wasnorm_wordpool.txt	LTP148	ltpFR	16	9	-1	VASE	1549	n/a	-1	n/a	n/a	n/a	n/a	n/a
1414787	REC_WORD	wordpools/wasnorm_wordpool.txt	LTP148	ltpFR	16	9	-1	WALL	1582	n/a	-1	n/a	n/a	n/a	n/a	n/a
1417291	REC_WORD	wordpools/wasnorm_wordpool.txt	LTP148	ltpFR	16	9	-1	BABY	64	n/a	-1	n/a	n/a	n/a	n/a	n/a
1423688	WORD	wordpools/wasnorm_wordpool.txt	LTP148	ltpFR	16	10	1	FOE	587	n/a	1	0	0.5869140625	0.422607421875	lower	../fonts/zerothre.ttf
1427876	WORD	wordpools/wasnorm_wordpool.txt	LTP148	ltpFR	16	10	1	FELLOW	558	n/a	1	0	0.5869140625	0.422607421875	lower	../fonts/zerothre.ttf
1431830	WORD	wordpools/wasnorm_wordpool.txt	LTP148	ltpFR	16	10	1	ENGINEER	536	n/a	1	0	0.5869140625	0.422607421875	lower	../fonts/zerothre.ttf
1435650	WORD	wordpools/wasnorm_wordpool.txt	LTP148	ltpFR	16	10	1	CLAW	319	n/a	0	0	0.5869140625	0.422607421875	lower	../fonts/zerothre.ttf
1439520	WORD	wordpools/wasnorm_wordpool.txt	LTP148	ltpFR	16	10	1	FLASHLIGHT	575	n/a	0	0	0.5869140625	0.422607421875	lower	../fonts/zerothre.ttf
1443707	WORD	wordpools/wasnorm_wordpool.txt	LTP148	ltpFR	16	10	1	TORCH	1484	n/a	0	0	0.5869140625	0.422607421875	lower	../fonts/zerothre.ttf
1447652	WORD	wordpools/wasnorm_wordpool.txt	LTP148	ltpFR	16	10	1	FLASK	576	n/a	0	0	0.5869140625	0.422607421875	lower	../fonts/zerothre.ttf
1451765	WORD	wordpools/wasnorm_wordpool.txt	LTP148	ltpFR	16	10	1	WALLET	1583	n/a	0	0	0.5869140625	0.422607421875	lower	../fonts/zerothre.ttf
1455860	WORD	wordpools/wasnorm_wordpool.txt	LTP148	ltpFR	16	10	1	SPARROW	1347	n/a	1	0	0.5869140625	0.422607421875	lower	../fonts/zerothre.ttf
1459798	WORD	wordpools/wasnorm_wordpool.txt	LTP148	ltpFR	16	10	1	DENTIST	447	n/a	1	0	0.5869140625	0.422607421875	lower	../fonts/zerothre.ttf
1463785	WORD	wordpools/wasnorm_wordpool.txt	LTP148	ltpFR	16	10	1	INN	739	n/a	0	0	0.5869140625	0.422607421875	lower	../fonts/zerothre.ttf
1467679	WORD	wordpools/wasnorm_wordpool.txt	LTP148	ltpFR	16	10	1	PITCHFORK	1078	n/a	0	0	0.5869140625	0.422607421875	lower	../fonts/zerothre.ttf
1471825	WORD	wordpools/wasnorm_wordpool.txt	LTP148	ltpFR	16	10	1	BEER	114	n/a	0	0	0.5869140625	0.422607421875	lower	../fonts/zerothre.ttf
1475746	WORD	wordpools/wasnorm_wordpool.txt	LTP148	ltpFR	16	10	1	FEATHER	557	n/a	0	0	0.5869140625	0.422607421875	lower	../fonts/zerothre.ttf
1479858	WORD	wordpools/wasnorm_wordpool.txt	LTP148	ltpFR	16	10	1	NOOSE	956	n/a	0	0	0.5869140625	0.422607421875	lower	../fonts/zerothre.ttf
1483845	WORD	wordpools/wasnorm_wordpool.txt	LTP148	ltpFR	16	10	1	OUTFIT	988	n/a	0	0	0.5869140625	0.422607421875	lower	../fonts/zerothre.ttf
1489621	REC_START	n/a	LTP148	ltpFR	16	10	n/a	n/a	n/a	n/a	n/a	n/a	n/a	n/a	n/a	n/a
1491576	REC_WORD	wordpools/wasnorm_wordpool.txt	LTP148	ltpFR	16	10	1	OUTFIT	988	n/a	0	n/a	n/a	n/a	n/a	n/a
1494390	REC_WORD	wordpools/wasnorm_wordpool.txt	LTP148	ltpFR	16	10	1	OUTFIT	988	n/a	0	n/a	n/a	n/a	n/a	n/a
1498700	REC_WORD	wordpools/wasnorm_wordpool.txt	LTP148	ltpFR	16	10	-1	RIBBON	1189	n/a	-1	n/a	n/a	n/a	n/a	n/a
1499628	REC_WORD	wordpools/wasnorm_wordpool.txt	LTP148	ltpFR	16	10	-1	HEADBAND	696	n/a	-1	n/a	n/a	n/a	n/a	n/a
1504961	REC_WORD	wordpools/wasnorm_wordpool.txt	LTP148	ltpFR	16	10	1	TORCH	1484	n/a	0	n/a	n/a	n/a	n/a	n/a
1505898	REC_WORD	wordpools/wasnorm_wordpool.txt	LTP148	ltpFR	16	10	1	FLASHLIGHT	575	n/a	0	n/a	n/a	n/a	n/a	n/a
1507385	REC_WORD	wordpools/wasnorm_wordpool.txt	LTP148	ltpFR	16	10	1	CLAW	319	n/a	0	n/a	n/a	n/a	n/a	n/a
1508233	REC_WORD	wordpools/wasnorm_wordpool.txt	LTP148	ltpFR	16	10	1	FEATHER	557	n/a	0	n/a	n/a	n/a	n/a	n/a
1509511	REC_WORD	wordpools/wasnorm_wordpool.txt	LTP148	ltpFR	16	10	1	PITCHFORK	1078	n/a	0	n/a	n/a	n/a	n/a	n/a
1513671	REC_WORD	wordpools/wasnorm_wordpool.txt	LTP148	ltpFR	16	10	1	ENGINEER	536	n/a	1	n/a	n/a	n/a	n/a	n/a
1515058	REC_WORD	wordpools/wasnorm_wordpool.txt	LTP148	ltpFR	16	10	1	FELLOW	558	n/a	1	n/a	n/a	n/a	n/a	n/a
1515971	REC_WORD	wordpools/wasnorm_wordpool.txt	LTP148	ltpFR	16	10	1	FOE	587	n/a	1	n/a	n/a	n/a	n/a	n/a
1534858	REC_WORD	wordpools/wasnorm_wordpool.txt	LTP148	ltpFR	16	10	-1	GROCERIES	663	n/a	-1	n/a	n/a	n/a	n/a	n/a
1535858	REC_WORD_VV	wordpools/wasnorm_wordpool.txt	LTP148	ltpFR	16	10	n/a	<>	-1	n/a	n/a	n/a	n/a	n/a	n/a	n/a
1540814	REC_WORD	wordpools/wasnorm_wordpool.txt	LTP148	ltpFR	16	10	1	DENTIST	447	n/a	1	n/a	n/a	n/a	n/a	n/a
1555820	REC_WORD	wordpools/wasnorm_wordpool.txt	LTP148	ltpFR	16	10	-1	BARN	89	n/a	-1	n/a	n/a	n/a	n/a	n/a
1580083	WORD	wordpools/wasnorm_wordpool.txt	LTP148	ltpFR	16	11	0	MONUMENT	913	n/a	1	1	0.412841796875	0.57763671875	upper	../fonts/amplitud.ttf
1584104	WORD	wordpools/wasnorm_wordpool.txt	LTP148	ltpFR	16	11	0	EXPLOSION	544	n/a	1	1	0.412841796875	0.57763671875	upper	../fonts/amplitud.ttf
1588024	WORD	wordpools/wasnorm_wordpool.txt	LTP148	ltpFR	16	11	0	LIMB	822	n/a	1	1	0.412841796875	0.57763671875	upper	../fonts/amplitud.ttf
1592203	WORD	wordpools/wasnorm_wordpool.txt	LTP148	ltpFR	16	11	0	ORNAMENT	985	n/a	0	1	0.412841796875	0.57763671875	upper	../fonts/amplitud.ttf
1596098	WORD	wordpools/wasnorm_wordpool.txt	LTP148	ltpFR	16	11	0	TOAST	1471	n/a	0	1	0.412841796875	0.57763671875	upper	../fonts/amplitud.ttf
1600293	WORD	wordpools/wasnorm_wordpool.txt	LTP148	ltpFR	16	11	0	STOCKING	1383	n/a	0	1	0.412841796875	0.57763671875	upper	../fonts/amplitud.ttf
1604222	WORD	wordpools/wasnorm_wordpool.txt	LTP148	ltpFR	16	11	0	BLUEJAY	141	n/a	0	1	0.412841796875	0.57763671875	upper	../fonts/amplitud.ttf
1608059	WORD	wordpools/wasnorm_wordpool.txt	LTP148	ltpFR	16	11	0	GORILLA	650	n/a	1	1	0.412841796875	0.57763671875	upper	../fonts/amplitud.ttf
1611971	WORD	wordpools/wasnorm_wordpool.txt	LTP148	ltpFR	16	11	0	CRAB	397	n/a	1	1	0.412841796875	0.57763671875	upper	../fonts/amplitud.ttf
1616116	WORD	wordpools/wasnorm_wordpool.txt	LTP148	ltpFR	16	11	0	CAFE	216	n/a	1	1	0.412841796875	0.57763671875	upper	../fonts/amplitud.ttf
1620095	WORD	wordpools/wasnorm_wordpool.txt	LTP148	ltpFR	16	11	0	MEAL	882	n/a	1	1	0.412841796875	0.57763671875	upper	../fonts/amplitud.ttf
1624099	WORD	wordpools/wasnorm_wordpool.txt	LTP148	ltpFR	16	11	0	SUPERMARKET	1409	n/a	1	1	0.412841796875	0.57763671875	upper	../fonts/amplitud.ttf
1628153	WORD	wordpools/wasnorm_wordpool.txt	LTP148	ltpFR	16	11	0	ROOF	1205	n/a	1	1	0.412841796875	0.57763671875	upper	../fonts/amplitud.ttf
1632273	WORD	wordpools/wasnorm_wordpool.txt	LTP148	ltpFR	16	11	0	CARPET	247	n/a	1	1	0.412841796875	0.57763671875	upper	../fonts/amplitud.ttf
1636376	WORD	wordpools/wasnorm_wordpool.txt	LTP148	ltpFR	16	11	0	CASKET	255	n/a	1	1	0.412841796875	0.57763671875	upper	../fonts/amplitud.ttf
1640472	WORD	wordpools/wasnorm_wordpool.txt	LTP148	ltpFR	16	11	0	HAWK	692	n/a	1	1	0.412841796875	0.57763671875	upper	../fonts/amplitud.ttf
1646341	REC_START	n/a	LTP148	ltpFR	16	11	n/a	n/a	n/a	n/a	n/a	n/a	n/a	n/a	n/a	n/a
1649139	REC_WORD	wordpools/wasnorm_wordpool.txt	LTP148	ltpFR	16	11	0	CASKET	255	n/a	1	n/a	n/a	n/a	n/a	n/a
1650880	REC_WORD	wordpools/wasnorm_wordpool.txt	LTP148	ltpFR	16	11	0	HAWK	692	n/a	1	n/a	n/a	n/a	n/a	n/a
1653130	REC_WORD	wordpools/wasnorm_wordpool.txt	LTP148	ltpFR	16	11	0	SUPERMARKET	1409	n/a	1	n/a	n/a	n/a	n/a	n/a
1654507	REC_WORD	wordpools/wasnorm_wordpool.txt	LTP148	ltpFR	16	11	0	ROOF	1205	n/a	1	n/a	n/a	n/a	n/a	n/a
1655320	REC_WORD	wordpools/wasnorm_wordpool.txt	LTP148	ltpFR	16	11	0	CARPET	247	n/a	1	n/a	n/a	n/a	n/a	n/a
1656757	REC_WORD	wordpools/wasnorm_wordpool.txt	LTP148	ltpFR	16	11	0	CAFE	216	n/a	1	n/a	n/a	n/a	n/a	n/a
1657710	REC_WORD	wordpools/wasnorm_wordpool.txt	LTP148	ltpFR	16	11	0	MEAL	882	n/a	1	n/a	n/a	n/a	n/a	n/a
1659301	REC_WORD	wordpools/wasnorm_wordpool.txt	LTP148	ltpFR	16	11	0	MONUMENT	913	n/a	1	n/a	n/a	n/a	n/a	n/a
1659994	REC_WORD	wordpools/wasnorm_wordpool.txt	LTP148	ltpFR	16	11	0	EXPLOSION	544	n/a	1	n/a	n/a	n/a	n/a	n/a
1661950	REC_WORD	wordpools/wasnorm_wordpool.txt	LTP148	ltpFR	16	11	0	STOCKING	1383	n/a	0	n/a	n/a	n/a	n/a	n/a
1663417	REC_WORD	wordpools/wasnorm_wordpool.txt	LTP148	ltpFR	16	11	0	ORNAMENT	985	n/a	0	n/a	n/a	n/a	n/a	n/a
1664310	REC_WORD	wordpools/wasnorm_wordpool.txt	LTP148	ltpFR	16	11	0	TOAST	1471	n/a	0	n/a	n/a	n/a	n/a	n/a
1666814	REC_WORD	wordpools/wasnorm_wordpool.txt	LTP148	ltpFR	16	11	0	GORILLA	650	n/a	1	n/a	n/a	n/a	n/a	n/a
1669842	REC_WORD	wordpools/wasnorm_wordpool.txt	LTP148	ltpFR	16	11	0	BLUEJAY	141	n/a	0	n/a	n/a	n/a	n/a	n/a
1679086	REC_WORD	wordpools/wasnorm_wordpool.txt	LTP148	ltpFR	16	11	0	CARPET	247	n/a	1	n/a	n/a	n/a	n/a	n/a
1686764	REC_WORD	wordpools/wasnorm_wordpool.txt	LTP148	ltpFR	16	11	0	TAR	1435	n/a	0	n/a	n/a	n/a	n/a	n/a
1688539	REC_WORD	wordpools/wasnorm_wordpool.txt	LTP148	ltpFR	16	11	1	SLIME	1327	n/a	0	n/a	n/a	n/a	n/a	n/a
1698178	REC_WORD	wordpools/wasnorm_wordpool.txt	LTP148	ltpFR	16	11	0	LIMB	822	n/a	1	n/a	n/a	n/a	n/a	n/a
1713249	REC_WORD	wordpools/wasnorm_wordpool.txt	LTP148	ltpFR	16	11	1	OUTFIT	988	n/a	0	n/a	n/a	n/a	n/a	n/a
1725057	WORD	wordpools/wasnorm_wordpool.txt	LTP148	ltpFR	16	12	-1	EARRING	514	n/a	-1	1	1.0	1.0	upper	../fonts/Verdana.ttf
1729002	WORD	wordpools/wasnorm_wordpool.txt	LTP148	ltpFR	16	12	-1	MARSH	874	n/a	-1	1	1.0	1.0	upper	../fonts/Verdana.ttf
1733139	WORD	wordpools/wasnorm_wordpool.txt	LTP148	ltpFR	16	12	-1	DOORBELL	487	n/a	-1	1	1.0	1.0	upper	../fonts/Verdana.ttf
1737093	WORD	wordpools/wasnorm_wordpool.txt	LTP148	ltpFR	16	12	-1	AUTOMOBILE	62	n/a	-1	1	1.0	1.0	upper	../fonts/Verdana.ttf
1741080	WORD	wordpools/wasnorm_wordpool.txt	LTP148	ltpFR	16	12	-1	TENT	1449	n/a	-1	1	1.0	1.0	upper	../fonts/Verdana.ttf
1744942	WORD	wordpools/wasnorm_wordpool.txt	LTP148	ltpFR	16	12	-1	QUEEN	1149	n/a	-1	1	1.0	1.0	upper	../fonts/Verdana.ttf
1749104	WORD	wordpools/wasnorm_wordpool.txt	LTP148	ltpFR	16	12	-1	BRAKE	166	n/a	-1	1	1.0	1.0	upper	../fonts/Verdana.ttf
1752983	WORD	wordpools/wasnorm_wordpool.txt	LTP148	ltpFR	16	12	-1	ALMANAC	17	n/a	-1	1	1.0	1.0	upper	../fonts/Verdana.ttf
1757112	WORD	wordpools/wasnorm_wordpool.txt	LTP148	ltpFR	16	12	-1	ATLAS	53	n/a	-1	1	1.0	1.0	upper	../fonts/Verdana.ttf
1761265	WORD	wordpools/wasnorm_wordpool.txt	LTP148	ltpFR	16	12	-1	GEM	629	n/a	-1	1	1.0	1.0	upper	../fonts/Verdana.ttf
1765294	WORD	wordpools/wasnorm_wordpool.txt	LTP148	ltpFR	16	12	-1	AWARD	63	n/a	-1	1	1.0	1.0	upper	../fonts/Verdana.ttf
1769381	WORD	wordpools/wasnorm_wordpool.txt	LTP148	ltpFR	16	12	-1	IRON	744	n/a	-1	1	1.0	1.0	upper	../fonts/Verdana.ttf
1773259	WORD	wordpools/wasnorm_wordpool.txt	LTP148	ltpFR	16	12	-1	SPIT	1354	n/a	-1	1	1.0	1.0	upper	../fonts/Verdana.ttf
1777213	WORD	wordpools/wasnorm_wordpool.txt	LTP148	ltpFR	16	12	-1	JAW	751	n/a	-1	1	1.0	1.0	upper	../fonts/Verdana.ttf
1781317	WORD	wordpools/wasnorm_wordpool.txt	LTP148	ltpFR	16	12	-1	MOTEL	919	n/a	-1	1	1.0	1.0	upper	../fonts/Verdana.ttf
1785171	WORD	wordpools/wasnorm_wordpool.txt	LTP148	ltpFR	16	12	-1	LOBBY	836	n/a	-1	1	1.0	1.0	upper	../fonts/Verdana.ttf
1791031	REC_START	n/a	LTP148	ltpFR	16	12	n/a	n/a	n/a	n/a	n/a	n/a	n/a	n/a	n/a	n/a
1792173	REC_WORD	wordpools/wasnorm_wordpool.txt	LTP148	ltpFR	16	12	-1	MOTEL	919	n/a	-1	n/a	n/a	n/a	n/a	n/a
1793106	REC_WORD	wordpools/wasnorm_wordpool.txt	LTP148	ltpFR	16	12	-1	LOBBY	836	n/a	-1	n/a	n/a	n/a	n/a	n/a
1793954	REC_WORD	wordpools/wasnorm_wordpool.txt	LTP148	ltpFR	16	12	-1	BRAKE	166	n/a	-1	n/a	n/a	n/a	n/a	n/a
1794677	REC_WORD	wordpools/wasnorm_wordpool.txt	LTP148	ltpFR	16	12	-1	QUEEN	1149	n/a	-1	n/a	n/a	n/a	n/a	n/a
1795351	REC_WORD	wordpools/wasnorm_wordpool.txt	LTP148	ltpFR	16	12	-1	IRON	744	n/a	-1	n/a	n/a	n/a	n/a	n/a
1796194	REC_WORD	wordpools/wasnorm_wordpool.txt	LTP148	ltpFR	16	12	-1	AWARD	63	n/a	-1	n/a	n/a	n/a	n/a	n/a
1798389	REC_WORD	wordpools/wasnorm_wordpool.txt	LTP148	ltpFR	16	12	-1	EARRING	514	n/a	-1	n/a	n/a	n/a	n/a	n/a
1799242	REC_WORD	wordpools/wasnorm_wordpool.txt	LTP148	ltpFR	16	12	-1	DOORBELL	487	n/a	-1	n/a	n/a	n/a	n/a	n/a
1804809	REC_WORD	wordpools/wasnorm_wordpool.txt	LTP148	ltpFR	16	12	n/a	VEHICLE	1553	n/a	n/a	n/a	n/a	n/a	n/a	n/a
1817465	REC_WORD	wordpools/wasnorm_wordpool.txt	LTP148	ltpFR	16	12	-1	QUEEN	1149	n/a	-1	n/a	n/a	n/a	n/a	n/a
1844050	REC_WORD	wordpools/wasnorm_wordpool.txt	LTP148	ltpFR	16	12	-1	MARSH	874	n/a	-1	n/a	n/a	n/a	n/a	n/a
1852765	REC_WORD	wordpools/wasnorm_wordpool.txt	LTP148	ltpFR	16	12	-1	RIBBON	1189	n/a	-1	n/a	n/a	n/a	n/a	n/a
1859770	REC_WORD	wordpools/wasnorm_wordpool.txt	LTP148	ltpFR	16	12	1	KIWI	781	n/a	1	n/a	n/a	n/a	n/a	n/a
1866609	REST_REWET	n/a	LTP148	ltpFR	16	12	n/a	n/a	n/a	n/a	n/a	n/a	n/a	n/a	n/a	n/a
2235133	WORD	wordpools/wasnorm_wordpool.txt	LTP148	ltpFR	16	13	0	MUSHROOM	934	n/a	0	1	0.412841796875	0.57763671875	upper	../fonts/amplitud.ttf
2239245	WORD	wordpools/wasnorm_wordpool.txt	LTP148	ltpFR	16	13	0	STAR	1373	n/a	1	1	0.412841796875	0.57763671875	upper	../fonts/amplitud.ttf
2243315	WORD	wordpools/wasnorm_wordpool.txt	LTP148	ltpFR	16	13	0	TELESCOPE	1446	n/a	1	1	0.412841796875	0.57763671875	upper	../fonts/amplitud.ttf
2247227	WORD	wordpools/wasnorm_wordpool.txt	LTP148	ltpFR	16	13	0	BUBBLE	183	n/a	0	1	0.412841796875	0.57763671875	upper	../fonts/amplitud.ttf
2251422	WORD	wordpools/wasnorm_wordpool.txt	LTP148	ltpFR	16	13	0	CORPORATION	382	n/a	1	1	0.412841796875	0.57763671875	upper	../fonts/amplitud.ttf
2255443	WORD	wordpools/wasnorm_wordpool.txt	LTP148	ltpFR	16	13	0	TRAY	1498	n/a	1	1	0.412841796875	0.57763671875	upper	../fonts/amplitud.ttf
2259562	WORD	wordpools/wasnorm_wordpool.txt	LTP148	ltpFR	16	13	0	MONEY	908	n/a	0	1	0.412841796875	0.57763671875	upper	../fonts/amplitud.ttf
2263425	WORD	wordpools/wasnorm_wordpool.txt	LTP148	ltpFR	16	13	0	MANAGER	863	n/a	1	1	0.412841796875	0.57763671875	upper	../fonts/amplitud.ttf
2267536	WORD	wordpools/wasnorm_wordpool.txt	LTP148	ltpFR	16	13	0	SOAP	1337	n/a	0	1	0.412841796875	0.57763671875	upper	../fonts/amplitud.ttf
2271491	WORD	wordpools/wasnorm_wordpool.txt	LTP148	ltpFR	16	13	0	TROMBONE	1508	n/a	1	1	0.412841796875	0.57763671875	upper	../fonts/amplitud.ttf
2275394	WORD	wordpools/wasnorm_wordpool.txt	LTP148	ltpFR	16	13	0	BUGLE	189	n/a	1	1	0.412841796875	0.57763671875	upper	../fonts/amplitud.ttf
2279207	WORD	wordpools/wasnorm_wordpool.txt	LTP148	ltpFR	16	13	0	KEEPER	769	n/a	1	1	0.412841796875	0.57763671875	upper	../fonts/amplitud.ttf
2283110	WORD	wordpools/wasnorm_wordpool.txt	LTP148	ltpFR	16	13	0	NOSE	957	n/a	0	1	0.412841796875	0.57763671875	upper	../fonts/amplitud.ttf
2287039	WORD	wordpools/wasnorm_wordpool.txt	LTP148	ltpFR	16	13	0	LOG	841	n/a	1	1	0.412841796875	0.57763671875	upper	../fonts/amplitud.ttf
2291168	WORD	wordpools/wasnorm_wordpool.txt	LTP148	ltpFR	16	13	0	CENT	270	n/a	0	1	0.412841796875	0.57763671875	upper	../fonts/amplitud.ttf
2295371	WORD	wordpools/wasnorm_wordpool.txt	LTP148	ltpFR	16	13	0	WORKER	1621	n/a	1	1	0.412841796875	0.57763671875	upper	../fonts/amplitud.ttf
2301415	REC_START	n/a	LTP148	ltpFR	16	13	n/a	n/a	n/a	n/a	n/a	n/a	n/a	n/a	n/a	n/a
2302432	REC_WORD	wordpools/wasnorm_wordpool.txt	LTP148	ltpFR	16	13	0	WORKER	1621	n/a	1	n/a	n/a	n/a	n/a	n/a
2303111	REC_WORD	wordpools/wasnorm_wordpool.txt	LTP148	ltpFR	16	13	0	CORPORATION	382	n/a	1	n/a	n/a	n/a	n/a	n/a
2304138	REC_WORD	wordpools/wasnorm_wordpool.txt	LTP148	ltpFR	16	13	0	MANAGER	863	n/a	1	n/a	n/a	n/a	n/a	n/a
2304803	REC_WORD	wordpools/wasnorm_wordpool.txt	LTP148	ltpFR	16	13	0	MONEY	908	n/a	0	n/a	n/a	n/a	n/a	n/a
2305445	REC_WORD	wordpools/wasnorm_wordpool.txt	LTP148	ltpFR	16	13	0	CENT	270	n/a	0	n/a	n/a	n/a	n/a	n/a
2306972	REC_WORD	wordpools/wasnorm_wordpool.txt	LTP148	ltpFR	16	13	0	MUSHROOM	934	n/a	0	n/a	n/a	n/a	n/a	n/a
2307636	REC_WORD	wordpools/wasnorm_wordpool.txt	LTP148	ltpFR	16	13	0	BUBBLE	183	n/a	0	n/a	n/a	n/a	n/a	n/a
2308494	REC_WORD	wordpools/wasnorm_wordpool.txt	LTP148	ltpFR	16	13	0	TRAY	1498	n/a	1	n/a	n/a	n/a	n/a	n/a
2310050	REC_WORD	wordpools/wasnorm_wordpool.txt	LTP148	ltpFR	16	13	0	LOG	841	n/a	1	n/a	n/a	n/a	n/a	n/a
2311861	REC_WORD	wordpools/wasnorm_wordpool.txt	LTP148	ltpFR	16	13	0	TROMBONE	1508	n/a	1	n/a	n/a	n/a	n/a	n/a
2313767	REC_WORD	wordpools/wasnorm_wordpool.txt	LTP148	ltpFR	16	13	0	BUGLE	189	n/a	1	n/a	n/a	n/a	n/a	n/a
2314864	REC_WORD	wordpools/wasnorm_wordpool.txt	LTP148	ltpFR	16	13	0	STAR	1373	n/a	1	n/a	n/a	n/a	n/a	n/a
2316027	REC_WORD	wordpools/wasnorm_wordpool.txt	LTP148	ltpFR	16	13	0	TELESCOPE	1446	n/a	1	n/a	n/a	n/a	n/a	n/a
2319329	REC_WORD	wordpools/wasnorm_wordpool.txt	LTP148	ltpFR	16	13	0	SOAP	1337	n/a	0	n/a	n/a	n/a	n/a	n/a
2325337	REC_WORD_VV	wordpools/wasnorm_wordpool.txt	LTP148	ltpFR	16	13	n/a	<>	-1	n/a	n/a	n/a	n/a	n/a	n/a	n/a
2333437	REC_WORD_VV	wordpools/wasnorm_wordpool.txt	LTP148	ltpFR	16	13	n/a	<>	-1	n/a	n/a	n/a	n/a	n/a	n/a	n/a
2354818	REC_WORD	wordpools/wasnorm_wordpool.txt	LTP148	ltpFR	16	13	0	KEEPER	769	n/a	1	n/a	n/a	n/a	n/a	n/a
2355751	REC_WORD_VV	wordpools/wasnorm_wordpool.txt	LTP148	ltpFR	16	13	n/a	<>	-1	n/a	n/a	n/a	n/a	n/a	n/a	n/a
2362471	REC_WORD	wordpools/wasnorm_wordpool.txt	LTP148	ltpFR	16	13	0	STAR	1373	n/a	1	n/a	n/a	n/a	n/a	n/a
2380373	WORD	wordpools/wasnorm_wordpool.txt	LTP148	ltpFR	16	14	0	FLOWER	584	n/a	0	1	0.412841796875	0.57763671875	upper	../fonts/amplitud.ttf
2384360	WORD	wordpools/wasnorm_wordpool.txt	LTP148	ltpFR	16	14	0	HOME	712	n/a	1	1	0.412841796875	0.57763671875	upper	../fonts/amplitud.ttf
2388422	WORD	wordpools/wasnorm_wordpool.txt	LTP148	ltpFR	16	14	0	CUP	424	n/a	0	1	0.412841796875	0.57763671875	upper	../fonts/amplitud.ttf
2392267	WORD	wordpools/wasnorm_wordpool.txt	LTP148	ltpFR	16	14	0	WIDOW	1608	n/a	1	1	0.412841796875	0.57763671875	upper	../fonts/amplitud.ttf
2396404	WORD	wordpools/wasnorm_wordpool.txt	LTP148	ltpFR	16	14	0	LABYRINTH	791	n/a	1	1	0.412841796875	0.57763671875	upper	../fonts/amplitud.ttf
2400291	WORD	wordpools/wasnorm_wordpool.txt	LTP148	ltpFR	16	14	0	RAM	1165	n/a	1	1	0.412841796875	0.57763671875	upper	../fonts/amplitud.ttf
2404387	WORD	wordpools/wasnorm_wordpool.txt	LTP148	ltpFR	16	14	1	PENGUIN	1044	n/a	1	0	0.5869140625	0.422607421875	lower	../fonts/zerothre.ttf
2408257	WORD	wordpools/wasnorm_wordpool.txt	LTP148	ltpFR	16	14	1	TACK	1428	n/a	0	0	0.5869140625	0.422607421875	lower	../fonts/zerothre.ttf
2412086	WORD	wordpools/wasnorm_wordpool.txt	LTP148	ltpFR	16	14	1	NAIL	936	n/a	0	0	0.5869140625	0.422607421875	lower	../fonts/zerothre.ttf
2415990	WORD	wordpools/wasnorm_wordpool.txt	LTP148	ltpFR	16	14	1	FINGERNAIL	568	n/a	0	0	0.5869140625	0.422607421875	lower	../fonts/zerothre.ttf
2420077	WORD	wordpools/wasnorm_wordpool.txt	LTP148	ltpFR	16	14	1	ANKLE	24	n/a	0	0	0.5869140625	0.422607421875	lower	../fonts/zerothre.ttf
2424230	WORD	wordpools/wasnorm_wordpool.txt	LTP148	ltpFR	16	14	1	BIRD	129	n/a	1	0	0.5869140625	0.422607421875	lower	../fonts/zerothre.ttf
2428076	WORD	wordpools/wasnorm_wordpool.txt	LTP148	ltpFR	16	14	0	BUILDER	190	n/a	1	1	0.412841796875	0.57763671875	upper	../fonts/amplitud.ttf
2432221	WORD	wordpools/wasnorm_wordpool.txt	LTP148	ltpFR	16	14	0	WALRUS	1585	n/a	1	1	0.412841796875	0.57763671875	upper	../fonts/amplitud.ttf
2436308	WORD	wordpools/wasnorm_wordpool.txt	LTP148	ltpFR	16	14	1	FARMER	553	n/a	1	0	0.5869140625	0.422607421875	lower	../fonts/zerothre.ttf
2440403	WORD	wordpools/wasnorm_wordpool.txt	LTP148	ltpFR	16	14	1	FILM	565	n/a	0	0	0.5869140625	0.422607421875	lower	../fonts/zerothre.ttf
2446247	REC_START	n/a	LTP148	ltpFR	16	14	n/a	n/a	n/a	n/a	n/a	n/a	n/a	n/a	n/a	n/a
2448032	REC_WORD	wordpools/wasnorm_wordpool.txt	LTP148	ltpFR	16	14	1	FILM	565	n/a	0	n/a	n/a	n/a	n/a	n/a
2448906	REC_WORD	wordpools/wasnorm_wordpool.txt	LTP148	ltpFR	16	14	0	HOME	712	n/a	1	n/a	n/a	n/a	n/a	n/a
2453071	REC_WORD	wordpools/wasnorm_wordpool.txt	LTP148	ltpFR	16	14	n/a	BANKER	84	n/a	n/a	n/a	n/a	n/a	n/a	n/a
2454967	REC_WORD	wordpools/wasnorm_wordpool.txt	LTP148	ltpFR	16	14	1	FARMER	553	n/a	1	n/a	n/a	n/a	n/a	n/a
2456883	REC_WORD	wordpools/wasnorm_wordpool.txt	LTP148	ltpFR	16	14	1	TACK	1428	n/a	0	n/a	n/a	n/a	n/a	n/a
2457571	REC_WORD	wordpools/wasnorm_wordpool.txt	LTP148	ltpFR	16	14	1	NAIL	936	n/a	0	n/a	n/a	n/a	n/a	n/a
2458225	REC_WORD	wordpools/wasnorm_wordpool.txt	LTP148	ltpFR	16	14	1	ANKLE	24	n/a	0	n/a	n/a	n/a	n/a	n/a
2460085	REC_WORD	wordpools/wasnorm_wordpool.txt	LTP148	ltpFR	16	14	0	LABYRINTH	791	n/a	1	n/a	n/a	n/a	n/a	n/a
2461148	REC_WORD	wordpools/wasnorm_wordpool.txt	LTP148	ltpFR	16	14	0	BUILDER	190	n/a	1	n/a	n/a	n/a	n/a	n/a
2466611	REC_WORD	wordpools/wasnorm_wordpool.txt	LTP148	ltpFR	16	14	0	CUP	424	n/a	0	n/a	n/a	n/a	n/a	n/a
2467164	REC_WORD	wordpools/wasnorm_wordpool.txt	LTP148	ltpFR	16	14	0	FLOWER	584	n/a	0	n/a	n/a	n/a	n/a	n/a
2471619	REC_WORD	wordpools/wasnorm_wordpool.txt	LTP148	ltpFR	16	14	0	WALRUS	1585	n/a	1	n/a	n/a	n/a	n/a	n/a
2472502	REC_WORD	wordpools/wasnorm_wordpool.txt	LTP148	ltpFR	16	14	1	PENGUIN	1044	n/a	1	n/a	n/a	n/a	n/a	n/a
2485782	REC_WORD	wordpools/wasnorm_wordpool.txt	LTP148	ltpFR	16	14	0	WIDOW	1608	n/a	1	n/a	n/a	n/a	n/a	n/a
2492132	REC_WORD	wordpools/wasnorm_wordpool.txt	LTP148	ltpFR	16	14	n/a	WINDOW	1611	n/a	n/a	n/a	n/a	n/a	n/a	n/a
2494826	REC_WORD	wordpools/wasnorm_wordpool.txt	LTP148	ltpFR	16	14	n/a	WINDSHIELD	1612	n/a	n/a	n/a	n/a	n/a	n/a	n/a
2502229	REC_WORD	wordpools/wasnorm_wordpool.txt	LTP148	ltpFR	16	14	-1	GRASSHOPPER	656	n/a	-1	n/a	n/a	n/a	n/a	n/a
2514172	REC_WORD	wordpools/wasnorm_wordpool.txt	LTP148	ltpFR	16	14	0	RAM	1165	n/a	1	n/a	n/a	n/a	n/a	n/a
2532455	WORD	wordpools/wasnorm_wordpool.txt	LTP148	ltpFR	16	15	1	SHRIMP	1297	n/a	1	0	0.5869140625	0.422607421875	lower	../fonts/zerothre.ttf
2536566	WORD	wordpools/wasnorm_wordpool.txt	LTP148	ltpFR	16	15	1	BONE	148	n/a	0	0	0.5869140625	0.422607421875	lower	../fonts/zerothre.ttf
2540678	WORD	wordpools/wasnorm_wordpool.txt	LTP148	ltpFR	16	15	1	POLITICIAN	1099	n/a	1	0	0.5869140625	0.422607421875	lower	../fonts/zerothre.ttf
2544890	WORD	wordpools/wasnorm_wordpool.txt	LTP148	ltpFR	16	15	1	WATER	1594	n/a	0	0	0.5869140625	0.422607421875	lower	../fonts/zerothre.ttf
2549061	WORD	wordpools/wasnorm_wordpool.txt	LTP148	ltpFR	16	15	1	MAILBOX	857	n/a	0	0	0.5869140625	0.422607421875	lower	../fonts/zerothre.ttf
2553039	WORD	wordpools/wasnorm_wordpool.txt	LTP148	ltpFR	16	15	1	FLY	586	n/a	1	0	0.5869140625	0.422607421875	lower	../fonts/zerothre.ttf
2556927	WORD	wordpools/wasnorm_wordpool.txt	LTP148	ltpFR	16	15	1	RIB	1188	n/a	0	0	0.5869140625	0.422607421875	lower	../fonts/zerothre.ttf
2561130	WORD	wordpools/wasnorm_wordpool.txt	LTP148	ltpFR	16	15	1	HEART	697	n/a	0	0	0.5869140625	0.422607421875	lower	../fonts/zerothre.ttf
2565284	WORD	wordpools/wasnorm_wordpool.txt	LTP148	ltpFR	16	15	1	ARTERY	41	n/a	n/a	0	0.5869140625	0.422607421875	lower	../fonts/zerothre.ttf
2568305	SLOW_MSG	n/a	LTP148	ltpFR	16	15	n/a	n/a	n/a	n/a	n/a	n/a	n/a	n/a	n/a	n/a
2570819	WORD	wordpools/wasnorm_wordpool.txt	LTP148	ltpFR	16	15	1	KITE	779	n/a	0	0	0.5869140625	0.422607421875	lower	../fonts/zerothre.ttf
2574764	WORD	wordpools/wasnorm_wordpool.txt	LTP148	ltpFR	16	15	1	FEAST	556	n/a	0	0	0.5869140625	0.422607421875	lower	../fonts/zerothre.ttf
2578959	WORD	wordpools/wasnorm_wordpool.txt	LTP148	ltpFR	16	15	1	SHED	1277	n/a	0	0	0.5869140625	0.422607421875	lower	../fonts/zerothre.ttf
2583096	WORD	wordpools/wasnorm_wordpool.txt	LTP148	ltpFR	16	15	1	PEOPLE	1046	n/a	1	0	0.5869140625	0.422607421875	lower	../fonts/zerothre.ttf
2587025	WORD	wordpools/wasnorm_wordpool.txt	LTP148	ltpFR	16	15	1	PEDESTRIAN	1038	n/a	1	0	0.5869140625	0.422607421875	lower	../fonts/zerothre.ttf
2590846	WORD	wordpools/wasnorm_wordpool.txt	LTP148	ltpFR	16	15	1	VETERAN	1561	n/a	1	0	0.5869140625	0.422607421875	lower	../fonts/zerothre.ttf
2594673	WORD	wordpools/wasnorm_wordpool.txt	LTP148	ltpFR	16	15	1	SERGEANT	1269	n/a	1	0	0.5869140625	0.422607421875	lower	../fonts/zerothre.ttf
2600502	REC_START	n/a	LTP148	ltpFR	16	15	n/a	n/a	n/a	n/a	n/a	n/a	n/a	n/a	n/a	n/a
2601754	REC_WORD	wordpools/wasnorm_wordpool.txt	LTP148	ltpFR	16	15	1	SERGEANT	1269	n/a	1	n/a	n/a	n/a	n/a	n/a
2602522	REC_WORD	wordpools/wasnorm_wordpool.txt	LTP148	ltpFR	16	15	1	VETERAN	1561	n/a	1	n/a	n/a	n/a	n/a	n/a
2603081	REC_WORD	wordpools/wasnorm_wordpool.txt	LTP148	ltpFR	16	15	1	PEDESTRIAN	1038	n/a	1	n/a	n/a	n/a	n/a	n/a
2603971	REC_WORD	wordpools/wasnorm_wordpool.txt	LTP148	ltpFR	16	15	1	SHED	1277	n/a	0	n/a	n/a	n/a	n/a	n/a
2604607	REC_WORD	wordpools/wasnorm_wordpool.txt	LTP148	ltpFR	16	15	1	FEAST	556	n/a	0	n/a	n/a	n/a	n/a	n/a
2605500	REC_WORD	wordpools/wasnorm_wordpool.txt	LTP148	ltpFR	16	15	1	PEOPLE	1046	n/a	1	n/a	n/a	n/a	n/a	n/a
2606648	REC_WORD	wordpools/wasnorm_wordpool.txt	LTP148	ltpFR	16	15	1	HEART	697	n/a	0	n/a	n/a	n/a	n/a	n/a
2607276	REC_WORD	wordpools/wasnorm_wordpool.txt	LTP148	ltpFR	16	15	1	ARTERY	41	n/a	n/a	n/a	n/a	n/a	n/a	n/a
2607970	REC_WORD	wordpools/wasnorm_wordpool.txt	LTP148	ltpFR	16	15	1	SHRIMP	1297	n/a	1	n/a	n/a	n/a	n/a	n/a
2609681	REC_WORD	wordpools/wasnorm_wordpool.txt	LTP148	ltpFR	16	15	1	RIB	1188	n/a	0	n/a	n/a	n/a	n/a	n/a
2611651	REC_WORD	wordpools/wasnorm_wordpool.txt	LTP148	ltpFR	16	15	1	BONE	148	n/a	0	n/a	n/a	n/a	n/a	n/a
2612355	REC_WORD	wordpools/wasnorm_wordpool.txt	LTP148	ltpFR	16	15	1	POLITICIAN	1099	n/a	1	n/a	n/a	n/a	n/a	n/a
2613762	REC_WORD	wordpools/wasnorm_wordpool.txt	LTP148	ltpFR	16	15	1	WATER	1594	n/a	0	n/a	n/a	n/a	n/a	n/a
2616296	REC_WORD	wordpools/wasnorm_wordpool.txt	LTP148	ltpFR	16	15	1	MAILBOX	857	n/a	0	n/a	n/a	n/a	n/a	n/a
2620237	REC_WORD	wordpools/wasnorm_wordpool.txt	LTP148	ltpFR	16	15	1	KITE	779	n/a	0	n/a	n/a	n/a	n/a	n/a
2620895	REC_WORD	wordpools/wasnorm_wordpool.txt	LTP148	ltpFR	16	15	1	FLY	586	n/a	1	n/a	n/a	n/a	n/a	n/a
2668582	REC_WORD	wordpools/wasnorm_wordpool.txt	LTP148	ltpFR	16	15	1	SHRIMP	1297	n/a	1	n/a	n/a	n/a	n/a	n/a
2679318	WORD	wordpools/wasnorm_wordpool.txt	LTP148	ltpFR	16	16	0	STEREO	1378	n/a	1	1	0.412841796875	0.57763671875	upper	../fonts/amplitud.ttf
2683164	WORD	wordpools/wasnorm_wordpool.txt	LTP148	ltpFR	16	16	0	PARSLEY	1016	n/a	0	1	0.412841796875	0.57763671875	upper	../fonts/amplitud.ttf
2687334	WORD	wordpools/wasnorm_wordpool.txt	LTP148	ltpFR	16	16	0	STOVE	1388	n/a	1	1	0.412841796875	0.57763671875	upper	../fonts/amplitud.ttf
2691338	WORD	wordpools/wasnorm_wordpool.txt	LTP148	ltpFR	16	16	0	SWEATER	1419	n/a	1	1	0.412841796875	0.57763671875	upper	../fonts/amplitud.ttf
2695441	WORD	wordpools/wasnorm_wordpool.txt	LTP148	ltpFR	16	16	0	CARROT	249	n/a	0	1	0.412841796875	0.57763671875	upper	../fonts/amplitud.ttf
2699602	WORD	wordpools/wasnorm_wordpool.txt	LTP148	ltpFR	16	16	0	LETTUCE	814	n/a	0	1	0.412841796875	0.57763671875	upper	../fonts/amplitud.ttf
2703680	WORD	wordpools/wasnorm_wordpool.txt	LTP148	ltpFR	16	16	0	POET	1095	n/a	1	1	0.412841796875	0.57763671875	upper	../fonts/amplitud.ttf
2707726	WORD	wordpools/wasnorm_wordpool.txt	LTP148	ltpFR	16	16	0	DIARY	460	n/a	0	1	0.412841796875	0.57763671875	upper	../fonts/amplitud.ttf
2711721	WORD	wordpools/wasnorm_wordpool.txt	LTP148	ltpFR	16	16	0	CANDIDATE	228	n/a	1	1	0.412841796875	0.57763671875	upper	../fonts/amplitud.ttf
2715892	WORD	wordpools/wasnorm_wordpool.txt	LTP148	ltpFR	16	16	0	BUTTON	207	n/a	0	1	0.412841796875	0.57763671875	upper	../fonts/amplitud.ttf
2719929	WORD	wordpools/wasnorm_wordpool.txt	LTP148	ltpFR	16	16	0	CUCUMBER	421	n/a	0	1	0.412841796875	0.57763671875	upper	../fonts/amplitud.ttf
2723908	WORD	wordpools/wasnorm_wordpool.txt	LTP148	ltpFR	16	16	0	BIBLE	124	n/a	0	1	0.412841796875	0.57763671875	upper	../fonts/amplitud.ttf
2727912	WORD	wordpools/wasnorm_wordpool.txt	LTP148	ltpFR	16	16	0	ARTICLE	42	n/a	0	1	0.412841796875	0.57763671875	upper	../fonts/amplitud.ttf
2731782	WORD	wordpools/wasnorm_wordpool.txt	LTP148	ltpFR	16	16	0	BUFFALO	186	n/a	1	1	0.412841796875	0.57763671875	upper	../fonts/amplitud.ttf
2735794	WORD	wordpools/wasnorm_wordpool.txt	LTP148	ltpFR	16	16	0	OTTER	986	n/a	1	1	0.412841796875	0.57763671875	upper	../fonts/amplitud.ttf
2739823	WORD	wordpools/wasnorm_wordpool.txt	LTP148	ltpFR	16	16	0	BANJO	82	n/a	1	1	0.412841796875	0.57763671875	upper	../fonts/amplitud.ttf
2745492	REC_START	n/a	LTP148	ltpFR	16	16	n/a	n/a	n/a	n/a	n/a	n/a	n/a	n/a	n/a	n/a
2747592	REC_WORD	wordpools/wasnorm_wordpool.txt	LTP148	ltpFR	16	16	0	BANJO	82	n/a	1	n/a	n/a	n/a	n/a	n/a
2748490	REC_WORD	wordpools/wasnorm_wordpool.txt	LTP148	ltpFR	16	16	0	POET	1095	n/a	1	n/a	n/a	n/a	n/a	n/a
2749288	REC_WORD	wordpools/wasnorm_wordpool.txt	LTP148	ltpFR	16	16	0	SWEATER	1419	n/a	1	n/a	n/a	n/a	n/a	n/a
2750870	REC_WORD	wordpools/wasnorm_wordpool.txt	LTP148	ltpFR	16	16	0	BUTTON	207	n/a	0	n/a	n/a	n/a	n/a	n/a
2751967	REC_WORD	wordpools/wasnorm_wordpool.txt	LTP148	ltpFR	16	16	0	ARTICLE	42	n/a	0	n/a	n/a	n/a	n/a	n/a
2752955	REC_WORD	wordpools/wasnorm_wordpool.txt	LTP148	ltpFR	16	16	0	BIBLE	124	n/a	0	n/a	n/a	n/a	n/a	n/a
2755240	REC_WORD	wordpools/wasnorm_wordpool.txt	LTP148	ltpFR	16	16	0	BUFFALO	186	n/a	1	n/a	n/a	n/a	n/a	n/a
2758467	REC_WORD	wordpools/wasnorm_wordpool.txt	LTP148	ltpFR	16	16	0	CANDIDATE	228	n/a	1	n/a	n/a	n/a	n/a	n/a
2761939	REC_WORD	wordpools/wasnorm_wordpool.txt	LTP148	ltpFR	16	16	0	STOVE	1388	n/a	1	n/a	n/a	n/a	n/a	n/a
2763730	REC_WORD	wordpools/wasnorm_wordpool.txt	LTP148	ltpFR	16	16	0	CARROT	249	n/a	0	n/a	n/a	n/a	n/a	n/a
2764793	REC_WORD	wordpools/wasnorm_wordpool.txt	LTP148	ltpFR	16	16	0	PARSLEY	1016	n/a	0	n/a	n/a	n/a	n/a	n/a
2765751	REC_WORD	wordpools/wasnorm_wordpool.txt	LTP148	ltpFR	16	16	0	LETTUCE	814	n/a	0	n/a	n/a	n/a	n/a	n/a
2766653	REC_WORD	wordpools/wasnorm_wordpool.txt	LTP148	ltpFR	16	16	0	CUCUMBER	421	n/a	0	n/a	n/a	n/a	n/a	n/a
2769596	REC_WORD	wordpools/wasnorm_wordpool.txt	LTP148	ltpFR	16	16	0	STEREO	1378	n/a	1	n/a	n/a	n/a	n/a	n/a
2792365	REC_WORD	wordpools/wasnorm_wordpool.txt	LTP148	ltpFR	16	16	0	BANJO	82	n/a	1	n/a	n/a	n/a	n/a	n/a
2810978	REC_WORD	wordpools/wasnorm_wordpool.txt	LTP148	ltpFR	16	16	0	OTTER	986	n/a	1	n/a	n/a	n/a	n/a	n/a
2819393	REC_WORD	wordpools/wasnorm_wordpool.txt	LTP148	ltpFR	16	16	0	BEAVER	109	n/a	1	n/a	n/a	n/a	n/a	n/a
2849805	REC_START	n/a	LTP148	ltpFR	16	1	n/a	n/a	n/a	n/a	n/a	n/a	n/a	n/a	n/a	n/a
2849846	RECOG_TARGET	n/a	LTP148	ltpFR	16	1	-1	VIOLA	1570	5	-1	n/a	n/a	n/a	n/a	n/a
2850937	RECOG_RESP	n/a	LTP148	ltpFR	16	1	-1	VIOLA	1570	n/a	-1	n/a	n/a	n/a	n/a	n/a
2852015	RECOG_CONF	n/a	LTP148	ltpFR	16	1	-1	VIOLA	1570	5	-1	n/a	n/a	n/a	n/a	n/a
2853450	RECOG_TARGET	n/a	LTP148	ltpFR	16	1	0	MOSS	918	5	0	n/a	n/a	n/a	n/a	n/a
2854135	RECOG_RESP	n/a	LTP148	ltpFR	16	1	0	MOSS	918	n/a	0	n/a	n/a	n/a	n/a	n/a
2854928	RECOG_CONF	n/a	LTP148	ltpFR	16	1	0	MOSS	918	5	0	n/a	n/a	n/a	n/a	n/a
2856396	RECOG_TARGET	n/a	LTP148	ltpFR	16	1	1	HEART	697	5	0	n/a	n/a	n/a	n/a	n/a
2857113	RECOG_RESP	n/a	LTP148	ltpFR	16	1	1	HEART	697	n/a	0	n/a	n/a	n/a	n/a	n/a
2857812	RECOG_CONF	n/a	LTP148	ltpFR	16	1	1	HEART	697	5	0	n/a	n/a	n/a	n/a	n/a
2859210	RECOG_LURE	n/a	LTP148	ltpFR	16	1	n/a	VOLCANO	1575	3	n/a	n/a	n/a	n/a	n/a	n/a
2859947	RECOG_RESP	n/a	LTP148	ltpFR	16	1	n/a	VOLCANO	1575	n/a	n/a	n/a	n/a	n/a	n/a	n/a
2860645	RECOG_CONF	n/a	LTP148	ltpFR	16	1	n/a	VOLCANO	1575	3	n/a	n/a	n/a	n/a	n/a	n/a
2861898	RECOG_TARGET	n/a	LTP148	ltpFR	16	1	1	CHEF	290	4	1	n/a	n/a	n/a	n/a	n/a
2862541	RECOG_RESP	n/a	LTP148	ltpFR	16	1	1	CHEF	290	n/a	1	n/a	n/a	n/a	n/a	n/a
2863189	RECOG_CONF	n/a	LTP148	ltpFR	16	1	1	CHEF	290	4	1	n/a	n/a	n/a	n/a	n/a
2864602	RECOG_LURE	n/a	LTP148	ltpFR	16	1	n/a	HARP	689	5	n/a	n/a	n/a	n/a	n/a	n/a
2865260	RECOG_RESP	n/a	LTP148	ltpFR	16	1	n/a	HARP	689	n/a	n/a	n/a	n/a	n/a	n/a	n/a
2865923	RECOG_CONF	n/a	LTP148	ltpFR	16	1	n/a	HARP	689	5	n/a	n/a	n/a	n/a	n/a	n/a
2867350	RECOG_TARGET	n/a	LTP148	ltpFR	16	1	-1	SPHINX	1349	5	-1	n/a	n/a	n/a	n/a	n/a
2868068	RECOG_RESP	n/a	LTP148	ltpFR	16	1	-1	SPHINX	1349	n/a	-1	n/a	n/a	n/a	n/a	n/a
2868697	RECOG_CONF	n/a	LTP148	ltpFR	16	1	-1	SPHINX	1349	5	-1	n/a	n/a	n/a	n/a	n/a
2870105	RECOG_TARGET	n/a	LTP148	ltpFR	16	1	1	TAPE	1433	5	0	n/a	n/a	n/a	n/a	n/a
2870752	RECOG_RESP	n/a	LTP148	ltpFR	16	1	1	TAPE	1433	n/a	0	n/a	n/a	n/a	n/a	n/a
2871361	RECOG_CONF	n/a	LTP148	ltpFR	16	1	1	TAPE	1433	5	0	n/a	n/a	n/a	n/a	n/a
2872693	RECOG_TARGET	n/a	LTP148	ltpFR	16	1	-1	GEM	629	5	-1	n/a	n/a	n/a	n/a	n/a
2873351	RECOG_RESP	n/a	LTP148	ltpFR	16	1	-1	GEM	629	n/a	-1	n/a	n/a	n/a	n/a	n/a
2873955	RECOG_CONF	n/a	LTP148	ltpFR	16	1	-1	GEM	629	5	-1	n/a	n/a	n/a	n/a	n/a
2875308	RECOG_TARGET	n/a	LTP148	ltpFR	16	1	1	KETTLE	772	5	0	n/a	n/a	n/a	n/a	n/a
2876010	RECOG_RESP	n/a	LTP148	ltpFR	16	1	1	KETTLE	772	n/a	0	n/a	n/a	n/a	n/a	n/a
2876639	RECOG_CONF	n/a	LTP148	ltpFR	16	1	1	KETTLE	772	5	0	n/a	n/a	n/a	n/a	n/a
2877863	RECOG_TARGET	n/a	LTP148	ltpFR	16	1	0	FLOWER	584	5	0	n/a	n/a	n/a	n/a	n/a
2878480	RECOG_RESP	n/a	LTP148	ltpFR	16	1	0	FLOWER	584	n/a	0	n/a	n/a	n/a	n/a	n/a
2879053	RECOG_CONF	n/a	LTP148	ltpFR	16	1	0	FLOWER	584	5	0	n/a	n/a	n/a	n/a	n/a
2880327	RECOG_TARGET	n/a	LTP148	ltpFR	16	1	-1	CAFETERIA	217	5	-1	n/a	n/a	n/a	n/a	n/a
2880899	RECOG_RESP	n/a	LTP148	ltpFR	16	1	-1	CAFETERIA	217	n/a	-1	n/a	n/a	n/a	n/a	n/a
2881468	RECOG_CONF	n/a	LTP148	ltpFR	16	1	-1	CAFETERIA	217	5	-1	n/a	n/a	n/a	n/a	n/a
2882799	RECOG_TARGET	n/a	LTP148	ltpFR	16	1	1	BEER	114	5	0	n/a	n/a	n/a	n/a	n/a
2883438	RECOG_RESP	n/a	LTP148	ltpFR	16	1	1	BEER	114	n/a	0	n/a	n/a	n/a	n/a	n/a
2884042	RECOG_CONF	n/a	LTP148	ltpFR	16	1	1	BEER	114	5	0	n/a	n/a	n/a	n/a	n/a
2885404	RECOG_TARGET	n/a	LTP148	ltpFR	16	1	1	KITE	779	5	0	n/a	n/a	n/a	n/a	n/a
2885918	RECOG_RESP	n/a	LTP148	ltpFR	16	1	1	KITE	779	n/a	0	n/a	n/a	n/a	n/a	n/a
2886526	RECOG_CONF	n/a	LTP148	ltpFR	16	1	1	KITE	779	5	0	n/a	n/a	n/a	n/a	n/a
2887876	RECOG_TARGET	n/a	LTP148	ltpFR	16	1	0	DELINQUENT	445	5	1	n/a	n/a	n/a	n/a	n/a
2888597	RECOG_RESP	n/a	LTP148	ltpFR	16	1	0	DELINQUENT	445	n/a	1	n/a	n/a	n/a	n/a	n/a
2889210	RECOG_CONF	n/a	LTP148	ltpFR	16	1	0	DELINQUENT	445	5	1	n/a	n/a	n/a	n/a	n/a
2890631	RECOG_TARGET	n/a	LTP148	ltpFR	16	1	1	SPARROW	1347	4	1	n/a	n/a	n/a	n/a	n/a
2891216	RECOG_RESP	n/a	LTP148	ltpFR	16	1	1	SPARROW	1347	n/a	1	n/a	n/a	n/a	n/a	n/a
2891864	RECOG_CONF	n/a	LTP148	ltpFR	16	1	1	SPARROW	1347	4	1	n/a	n/a	n/a	n/a	n/a
2893287	RECOG_TARGET	n/a	LTP148	ltpFR	16	1	-1	TENT	1449	4	-1	n/a	n/a	n/a	n/a	n/a
2894034	RECOG_RESP	n/a	LTP148	ltpFR	16	1	-1	TENT	1449	n/a	-1	n/a	n/a	n/a	n/a	n/a
2894698	RECOG_CONF	n/a	LTP148	ltpFR	16	1	-1	TENT	1449	4	-1	n/a	n/a	n/a	n/a	n/a
2896050	RECOG_TARGET	n/a	LTP148	ltpFR	16	1	1	BARREL	91	5	0	n/a	n/a	n/a	n/a	n/a
2897132	RECOG_RESP	n/a	LTP148	ltpFR	16	1	1	BARREL	91	n/a	0	n/a	n/a	n/a	n/a	n/a
2897711	RECOG_CONF	n/a	LTP148	ltpFR	16	1	1	BARREL	91	5	0	n/a	n/a	n/a	n/a	n/a
2899155	RECOG_TARGET	n/a	LTP148	ltpFR	16	1	-1	HEADBAND	696	5	-1	n/a	n/a	n/a	n/a	n/a
2899856	RECOG_RESP	n/a	LTP148	ltpFR	16	1	-1	HEADBAND	696	n/a	-1	n/a	n/a	n/a	n/a	n/a
2900415	RECOG_CONF	n/a	LTP148	ltpFR	16	1	-1	HEADBAND	696	5	-1	n/a	n/a	n/a	n/a	n/a
2901827	RECOG_TARGET	n/a	LTP148	ltpFR	16	1	1	FEAST	556	5	0	n/a	n/a	n/a	n/a	n/a
2902370	RECOG_RESP	n/a	LTP148	ltpFR	16	1	1	FEAST	556	n/a	0	n/a	n/a	n/a	n/a	n/a
2902919	RECOG_CONF	n/a	LTP148	ltpFR	16	1	1	FEAST	556	5	0	n/a	n/a	n/a	n/a	n/a
2906319	REC_START	n/a	LTP148	ltpFR	16	2	n/a	n/a	n/a	n/a	n/a	n/a	n/a	n/a	n/a	n/a
2906347	RECOG_TARGET	n/a	LTP148	ltpFR	16	2	1	SKELETON	1314	5	0	n/a	n/a	n/a	n/a	n/a
2907082	RECOG_RESP	n/a	LTP148	ltpFR	16	2	1	SKELETON	1314	n/a	0	n/a	n/a	n/a	n/a	n/a
2907691	RECOG_CONF	n/a	LTP148	ltpFR	16	2	1	SKELETON	1314	5	0	n/a	n/a	n/a	n/a	n/a
2909110	RECOG_TARGET	n/a	LTP148	ltpFR	16	2	1	SERGEANT	1269	5	1	n/a	n/a	n/a	n/a	n/a
2909721	RECOG_RESP	n/a	LTP148	ltpFR	16	2	1	SERGEANT	1269	n/a	1	n/a	n/a	n/a	n/a	n/a
2910255	RECOG_CONF	n/a	LTP148	ltpFR	16	2	1	SERGEANT	1269	5	1	n/a	n/a	n/a	n/a	n/a
2911631	RECOG_LURE	n/a	LTP148	ltpFR	16	2	n/a	PIPE	1073	4	n/a	n/a	n/a	n/a	n/a	n/a
2912290	RECOG_RESP	n/a	LTP148	ltpFR	16	2	n/a	PIPE	1073	n/a	n/a	n/a	n/a	n/a	n/a	n/a
2912949	RECOG_CONF	n/a	LTP148	ltpFR	16	2	n/a	PIPE	1073	4	n/a	n/a	n/a	n/a	n/a	n/a
2914271	RECOG_LURE	n/a	LTP148	ltpFR	16	2	n/a	SCREWDRIVER	1255	4	n/a	n/a	n/a	n/a	n/a	n/a
2915094	RECOG_RESP	n/a	LTP148	ltpFR	16	2	n/a	SCREWDRIVER	1255	n/a	n/a	n/a	n/a	n/a	n/a	n/a
2915752	RECOG_CONF	n/a	LTP148	ltpFR	16	2	n/a	SCREWDRIVER	1255	4	n/a	n/a	n/a	n/a	n/a	n/a
2917068	RECOG_TARGET	n/a	LTP148	ltpFR	16	2	1	PLAID	1080	5	0	n/a	n/a	n/a	n/a	n/a
2917708	RECOG_RESP	n/a	LTP148	ltpFR	16	2	1	PLAID	1080	n/a	0	n/a	n/a	n/a	n/a	n/a
2918257	RECOG_CONF	n/a	LTP148	ltpFR	16	2	1	PLAID	1080	5	0	n/a	n/a	n/a	n/a	n/a
2919697	RECOG_LURE	n/a	LTP148	ltpFR	16	2	n/a	LUMBER	848	3	n/a	n/a	n/a	n/a	n/a	n/a
2920961	RECOG_RESP	n/a	LTP148	ltpFR	16	2	n/a	LUMBER	848	n/a	n/a	n/a	n/a	n/a	n/a	n/a
2921539	RECOG_CONF	n/a	LTP148	ltpFR	16	2	n/a	LUMBER	848	3	n/a	n/a	n/a	n/a	n/a	n/a
2922861	RECOG_TARGET	n/a	LTP148	ltpFR	16	2	0	STEREO	1378	5	1	n/a	n/a	n/a	n/a	n/a
2923500	RECOG_RESP	n/a	LTP148	ltpFR	16	2	0	STEREO	1378	n/a	1	n/a	n/a	n/a	n/a	n/a
2924044	RECOG_CONF	n/a	LTP148	ltpFR	16	2	0	STEREO	1378	5	1	n/a	n/a	n/a	n/a	n/a
2925275	RECOG_LURE	n/a	LTP148	ltpFR	16	2	n/a	DANCER	437	4	n/a	n/a	n/a	n/a	n/a	n/a
2926383	RECOG_RESP	n/a	LTP148	ltpFR	16	2	n/a	DANCER	437	n/a	n/a	n/a	n/a	n/a	n/a	n/a
2926987	RECOG_CONF	n/a	LTP148	ltpFR	16	2	n/a	DANCER	437	4	n/a	n/a	n/a	n/a	n/a	n/a
2928338	RECOG_TARGET	n/a	LTP148	ltpFR	16	2	0	TAR	1435	5	0	n/a	n/a	n/a	n/a	n/a
2929027	RECOG_RESP_VV	n/a	LTP148	ltpFR	16	2	0	TAR	1435	n/a	0	n/a	n/a	n/a	n/a	n/a
2929386	RECOG_RESP	n/a	LTP148	ltpFR	16	2	0	TAR	1435	n/a	0	n/a	n/a	n/a	n/a	n/a
2929990	RECOG_CONF	n/a	LTP148	ltpFR	16	2	0	TAR	1435	5	0	n/a	n/a	n/a	n/a	n/a
2931393	RECOG_TARGET	n/a	LTP148	ltpFR	16	2	0	APARTMENT	30	5	1	n/a	n/a	n/a	n/a	n/a
2932010	RECOG_RESP	n/a	LTP148	ltpFR	16	2	0	APARTMENT	30	n/a	1	n/a	n/a	n/a	n/a	n/a
2932554	RECOG_CONF	n/a	LTP148	ltpFR	16	2	0	APARTMENT	30	5	1	n/a	n/a	n/a	n/a	n/a
2934015	RECOG_LURE	n/a	LTP148	ltpFR	16	2	n/a	HANGER	687	3	n/a	n/a	n/a	n/a	n/a	n/a
2935258	RECOG_RESP	n/a	LTP148	ltpFR	16	2	n/a	HANGER	687	n/a	n/a	n/a	n/a	n/a	n/a	n/a
2935907	RECOG_CONF	n/a	LTP148	ltpFR	16	2	n/a	HANGER	687	3	n/a	n/a	n/a	n/a	n/a	n/a
2937203	RECOG_LURE	n/a	LTP148	ltpFR	16	2	n/a	NOVEL	960	3	n/a	n/a	n/a	n/a	n/a	n/a
2937807	RECOG_RESP	n/a	LTP148	ltpFR	16	2	n/a	NOVEL	960	n/a	n/a	n/a	n/a	n/a	n/a	n/a
2938381	RECOG_CONF	n/a	LTP148	ltpFR	16	2	n/a	NOVEL	960	3	n/a	n/a	n/a	n/a	n/a	n/a
2939715	RECOG_TARGET	n/a	LTP148	ltpFR	16	2	0	POET	1095	5	1	n/a	n/a	n/a	n/a	n/a
2940272	RECOG_RESP	n/a	LTP148	ltpFR	16	2	0	POET	1095	n/a	1	n/a	n/a	n/a	n/a	n/a
2940805	RECOG_CONF	n/a	LTP148	ltpFR	16	2	0	POET	1095	5	1	n/a	n/a	n/a	n/a	n/a
2942105	RECOG_LURE	n/a	LTP148	ltpFR	16	2	n/a	BELL	118	3	n/a	n/a	n/a	n/a	n/a	n/a
2942751	RECOG_RESP	n/a	LTP148	ltpFR	16	2	n/a	BELL	118	n/a	n/a	n/a	n/a	n/a	n/a	n/a
2943300	RECOG_CONF	n/a	LTP148	ltpFR	16	2	n/a	BELL	118	3	n/a	n/a	n/a	n/a	n/a	n/a
2944676	RECOG_LURE	n/a	LTP148	ltpFR	16	2	n/a	GARBAGE	622	4	n/a	n/a	n/a	n/a	n/a	n/a
2945530	RECOG_RESP	n/a	LTP148	ltpFR	16	2	n/a	GARBAGE	622	n/a	n/a	n/a	n/a	n/a	n/a	n/a
2946123	RECOG_CONF	n/a	LTP148	ltpFR	16	2	n/a	GARBAGE	622	4	n/a	n/a	n/a	n/a	n/a	n/a
2947548	RECOG_TARGET	n/a	LTP148	ltpFR	16	2	1	SHRIMP	1297	5	1	n/a	n/a	n/a	n/a	n/a
2948283	RECOG_RESP	n/a	LTP148	ltpFR	16	2	1	SHRIMP	1297	n/a	1	n/a	n/a	n/a	n/a	n/a
2948797	RECOG_CONF	n/a	LTP148	ltpFR	16	2	1	SHRIMP	1297	5	1	n/a	n/a	n/a	n/a	n/a
2950146	RECOG_TARGET	n/a	LTP148	ltpFR	16	2	1	HOSTAGE	722	5	1	n/a	n/a	n/a	n/a	n/a
2950708	RECOG_RESP	n/a	LTP148	ltpFR	16	2	1	HOSTAGE	722	n/a	1	n/a	n/a	n/a	n/a	n/a
2951202	RECOG_CONF	n/a	LTP148	ltpFR	16	2	1	HOSTAGE	722	5	1	n/a	n/a	n/a	n/a	n/a
2952601	RECOG_LURE	n/a	LTP148	ltpFR	16	2	n/a	FLUTE	585	4	n/a	n/a	n/a	n/a	n/a	n/a
2953322	RECOG_RESP	n/a	LTP148	ltpFR	16	2	n/a	FLUTE	585	n/a	n/a	n/a	n/a	n/a	n/a	n/a
2953876	RECOG_CONF	n/a	LTP148	ltpFR	16	2	n/a	FLUTE	585	4	n/a	n/a	n/a	n/a	n/a	n/a
2955182	RECOG_TARGET	n/a	LTP148	ltpFR	16	2	-1	LAGOON	795	5	-1	n/a	n/a	n/a	n/a	n/a
2955876	RECOG_RESP	n/a	LTP148	ltpFR	16	2	-1	LAGOON	795	n/a	-1	n/a	n/a	n/a	n/a	n/a
2956400	RECOG_CONF	n/a	LTP148	ltpFR	16	2	-1	LAGOON	795	5	-1	n/a	n/a	n/a	n/a	n/a
2957779	RECOG_LURE	n/a	LTP148	ltpFR	16	2	n/a	RASPBERRY	1168	5	n/a	n/a	n/a	n/a	n/a	n/a
2958600	RECOG_RESP	n/a	LTP148	ltpFR	16	2	n/a	RASPBERRY	1168	n/a	n/a	n/a	n/a	n/a	n/a	n/a
2959154	RECOG_CONF	n/a	LTP148	ltpFR	16	2	n/a	RASPBERRY	1168	5	n/a	n/a	n/a	n/a	n/a	n/a
2966531	REC_START	n/a	LTP148	ltpFR	16	3	n/a	n/a	n/a	n/a	n/a	n/a	n/a	n/a	n/a	n/a
2966559	RECOG_TARGET	n/a	LTP148	ltpFR	16	3	0	RAM	1165	5	1	n/a	n/a	n/a	n/a	n/a
2967264	RECOG_RESP	n/a	LTP148	ltpFR	16	3	0	RAM	1165	n/a	1	n/a	n/a	n/a	n/a	n/a
2967763	RECOG_CONF	n/a	LTP148	ltpFR	16	3	0	RAM	1165	5	1	n/a	n/a	n/a	n/a	n/a
2969141	RECOG_TARGET	n/a	LTP148	ltpFR	16	3	0	CENT	270	5	0	n/a	n/a	n/a	n/a	n/a
2969793	RECOG_RESP	n/a	LTP148	ltpFR	16	3	0	CENT	270	n/a	0	n/a	n/a	n/a	n/a	n/a
2970307	RECOG_CONF	n/a	LTP148	ltpFR	16	3	0	CENT	270	5	0	n/a	n/a	n/a	n/a	n/a
2971620	RECOG_LURE	n/a	LTP148	ltpFR	16	3	n/a	WOMAN	1620	3	n/a	n/a	n/a	n/a	n/a	n/a
2972318	RECOG_RESP	n/a	LTP148	ltpFR	16	3	n/a	WOMAN	1620	n/a	n/a	n/a	n/a	n/a	n/a	n/a
2972921	RECOG_CONF	n/a	LTP148	ltpFR	16	3	n/a	WOMAN	1620	3	n/a	n/a	n/a	n/a	n/a	n/a
2974243	RECOG_TARGET	n/a	LTP148	ltpFR	16	3	-1	SPONGE	1355	4	-1	n/a	n/a	n/a	n/a	n/a
2974997	RECOG_RESP	n/a	LTP148	ltpFR	16	3	-1	SPONGE	1355	n/a	-1	n/a	n/a	n/a	n/a	n/a
2975495	RECOG_CONF	n/a	LTP148	ltpFR	16	3	-1	SPONGE	1355	4	-1	n/a	n/a	n/a	n/a	n/a
2976782	RECOG_TARGET	n/a	LTP148	ltpFR	16	3	0	FOUNTAIN	597	5	1	n/a	n/a	n/a	n/a	n/a
2978169	RECOG_RESP	n/a	LTP148	ltpFR	16	3	0	FOUNTAIN	597	n/a	1	n/a	n/a	n/a	n/a	n/a
2978648	RECOG_CONF	n/a	LTP148	ltpFR	16	3	0	FOUNTAIN	597	5	1	n/a	n/a	n/a	n/a	n/a
2979978	RECOG_TARGET	n/a	LTP148	ltpFR	16	3	0	CASKET	255	5	1	n/a	n/a	n/a	n/a	n/a
2982370	RECOG_RESP	n/a	LTP148	ltpFR	16	3	0	CASKET	255	n/a	1	n/a	n/a	n/a	n/a	n/a
2982869	RECOG_CONF	n/a	LTP148	ltpFR	16	3	0	CASKET	255	5	1	n/a	n/a	n/a	n/a	n/a
2984248	RECOG_TARGET	n/a	LTP148	ltpFR	16	3	0	OTTER	986	5	1	n/a	n/a	n/a	n/a	n/a
2984824	RECOG_RESP	n/a	LTP148	ltpFR	16	3	0	OTTER	986	n/a	1	n/a	n/a	n/a	n/a	n/a
2985343	RECOG_CONF	n/a	LTP148	ltpFR	16	3	0	OTTER	986	5	1	n/a	n/a	n/a	n/a	n/a
2986661	RECOG_TARGET	n/a	LTP148	ltpFR	16	3	1	MASK	876	5	0	n/a	n/a	n/a	n/a	n/a
2987249	RECOG_RESP	n/a	LTP148	ltpFR	16	3	1	MASK	876	n/a	0	n/a	n/a	n/a	n/a	n/a
2987728	RECOG_CONF	n/a	LTP148	ltpFR	16	3	1	MASK	876	5	0	n/a	n/a	n/a	n/a	n/a
2989026	RECOG_TARGET	n/a	LTP148	ltpFR	16	3	0	BIBLE	124	5	0	n/a	n/a	n/a	n/a	n/a
2989563	RECOG_RESP	n/a	LTP148	ltpFR	16	3	0	BIBLE	124	n/a	0	n/a	n/a	n/a	n/a	n/a
2990092	RECOG_CONF	n/a	LTP148	ltpFR	16	3	0	BIBLE	124	5	0	n/a	n/a	n/a	n/a	n/a
2991448	RECOG_LURE	n/a	LTP148	ltpFR	16	3	n/a	UNCLE	1536	4	n/a	n/a	n/a	n/a	n/a	n/a
2992058	RECOG_RESP	n/a	LTP148	ltpFR	16	3	n/a	UNCLE	1536	n/a	n/a	n/a	n/a	n/a	n/a	n/a
2992676	RECOG_CONF	n/a	LTP148	ltpFR	16	3	n/a	UNCLE	1536	4	n/a	n/a	n/a	n/a	n/a	n/a
2994020	RECOG_TARGET	n/a	LTP148	ltpFR	16	3	1	TORCH	1484	5	0	n/a	n/a	n/a	n/a	n/a
2994677	RECOG_RESP	n/a	LTP148	ltpFR	16	3	1	TORCH	1484	n/a	0	n/a	n/a	n/a	n/a	n/a
2995211	RECOG_CONF	n/a	LTP148	ltpFR	16	3	1	TORCH	1484	5	0	n/a	n/a	n/a	n/a	n/a
2996533	RECOG_TARGET	n/a	LTP148	ltpFR	16	3	-1	WALL	1582	5	-1	n/a	n/a	n/a	n/a	n/a
2997096	RECOG_RESP	n/a	LTP148	ltpFR	16	3	-1	WALL	1582	n/a	-1	n/a	n/a	n/a	n/a	n/a
2997625	RECOG_CONF	n/a	LTP148	ltpFR	16	3	-1	WALL	1582	5	-1	n/a	n/a	n/a	n/a	n/a
2998956	RECOG_TARGET	n/a	LTP148	ltpFR	16	3	1	POLICE	1098	4	1	n/a	n/a	n/a	n/a	n/a
2999586	RECOG_RESP	n/a	LTP148	ltpFR	16	3	1	POLICE	1098	n/a	1	n/a	n/a	n/a	n/a	n/a
3000149	RECOG_CONF	n/a	LTP148	ltpFR	16	3	1	POLICE	1098	4	1	n/a	n/a	n/a	n/a	n/a
3001569	RECOG_TARGET	n/a	LTP148	ltpFR	16	3	-1	CORK	380	5	-1	n/a	n/a	n/a	n/a	n/a
3002080	RECOG_RESP	n/a	LTP148	ltpFR	16	3	-1	CORK	380	n/a	-1	n/a	n/a	n/a	n/a	n/a
3002584	RECOG_CONF	n/a	LTP148	ltpFR	16	3	-1	CORK	380	5	-1	n/a	n/a	n/a	n/a	n/a
3003925	RECOG_TARGET	n/a	LTP148	ltpFR	16	3	0	CACTUS	215	5	1	n/a	n/a	n/a	n/a	n/a
3004400	RECOG_RESP	n/a	LTP148	ltpFR	16	3	0	CACTUS	215	n/a	1	n/a	n/a	n/a	n/a	n/a
3004879	RECOG_CONF	n/a	LTP148	ltpFR	16	3	0	CACTUS	215	5	1	n/a	n/a	n/a	n/a	n/a
3006214	RECOG_TARGET	n/a	LTP148	ltpFR	16	3	-1	VASE	1549	5	-1	n/a	n/a	n/a	n/a	n/a
3006759	RECOG_RESP	n/a	LTP148	ltpFR	16	3	-1	VASE	1549	n/a	-1	n/a	n/a	n/a	n/a	n/a
3007253	RECOG_CONF	n/a	LTP148	ltpFR	16	3	-1	VASE	1549	5	-1	n/a	n/a	n/a	n/a	n/a
3008636	RECOG_TARGET	n/a	LTP148	ltpFR	16	3	-1	DOUGH	489	5	-1	n/a	n/a	n/a	n/a	n/a
3009119	RECOG_RESP	n/a	LTP148	ltpFR	16	3	-1	DOUGH	489	n/a	-1	n/a	n/a	n/a	n/a	n/a
3009618	RECOG_CONF	n/a	LTP148	ltpFR	16	3	-1	DOUGH	489	5	-1	n/a	n/a	n/a	n/a	n/a
3011025	RECOG_TARGET	n/a	LTP148	ltpFR	16	3	1	FOSSIL	596	5	0	n/a	n/a	n/a	n/a	n/a
3011509	RECOG_RESP	n/a	LTP148	ltpFR	16	3	1	FOSSIL	596	n/a	0	n/a	n/a	n/a	n/a	n/a
3012022	RECOG_CONF	n/a	LTP148	ltpFR	16	3	1	FOSSIL	596	5	0	n/a	n/a	n/a	n/a	n/a
3013389	RECOG_TARGET	n/a	LTP148	ltpFR	16	3	0	EXPLOSION	544	5	1	n/a	n/a	n/a	n/a	n/a
3014302	RECOG_RESP	n/a	LTP148	ltpFR	16	3	0	EXPLOSION	544	n/a	1	n/a	n/a	n/a	n/a	n/a
3014816	RECOG_CONF	n/a	LTP148	ltpFR	16	3	0	EXPLOSION	544	5	1	n/a	n/a	n/a	n/a	n/a
3016236	RECOG_TARGET	n/a	LTP148	ltpFR	16	3	1	FLOUR	583	4	0	n/a	n/a	n/a	n/a	n/a
3016687	RECOG_RESP	n/a	LTP148	ltpFR	16	3	1	FLOUR	583	n/a	0	n/a	n/a	n/a	n/a	n/a
3017261	RECOG_CONF	n/a	LTP148	ltpFR	16	3	1	FLOUR	583	4	0	n/a	n/a	n/a	n/a	n/a
3020758	REC_START	n/a	LTP148	ltpFR	16	4	n/a	n/a	n/a	n/a	n/a	n/a	n/a	n/a	n/a	n/a
3020789	RECOG_TARGET	n/a	LTP148	ltpFR	16	4	0	CANDIDATE	228	5	1	n/a	n/a	n/a	n/a	n/a
3021471	RECOG_RESP	n/a	LTP148	ltpFR	16	4	0	CANDIDATE	228	n/a	1	n/a	n/a	n/a	n/a	n/a
3022010	RECOG_CONF	n/a	LTP148	ltpFR	16	4	0	CANDIDATE	228	5	1	n/a	n/a	n/a	n/a	n/a
3023261	RECOG_LURE	n/a	LTP148	ltpFR	16	4	n/a	SERVER	1272	4	n/a	n/a	n/a	n/a	n/a	n/a
3024005	RECOG_RESP	n/a	LTP148	ltpFR	16	4	n/a	SERVER	1272	n/a	n/a	n/a	n/a	n/a	n/a	n/a
3024604	RECOG_CONF	n/a	LTP148	ltpFR	16	4	n/a	SERVER	1272	4	n/a	n/a	n/a	n/a	n/a	n/a
3025858	RECOG_LURE	n/a	LTP148	ltpFR	16	4	n/a	BUTLER	204	5	n/a	n/a	n/a	n/a	n/a	n/a
3026420	RECOG_RESP	n/a	LTP148	ltpFR	16	4	n/a	BUTLER	204	n/a	n/a	n/a	n/a	n/a	n/a	n/a
3027019	RECOG_CONF	n/a	LTP148	ltpFR	16	4	n/a	BUTLER	204	5	n/a	n/a	n/a	n/a	n/a	n/a
3028347	RECOG_TARGET	n/a	LTP148	ltpFR	16	4	1	DRAWER	493	4	0	n/a	n/a	n/a	n/a	n/a
3028994	RECOG_RESP	n/a	LTP148	ltpFR	16	4	1	DRAWER	493	n/a	0	n/a	n/a	n/a	n/a	n/a
3029543	RECOG_CONF	n/a	LTP148	ltpFR	16	4	1	DRAWER	493	4	0	n/a	n/a	n/a	n/a	n/a
3030894	RECOG_TARGET	n/a	LTP148	ltpFR	16	4	-1	BARN	89	5	-1	n/a	n/a	n/a	n/a	n/a
3032227	RECOG_RESP	n/a	LTP148	ltpFR	16	4	-1	BARN	89	n/a	-1	n/a	n/a	n/a	n/a	n/a
3032716	RECOG_CONF	n/a	LTP148	ltpFR	16	4	-1	BARN	89	5	-1	n/a	n/a	n/a	n/a	n/a
3033991	RECOG_TARGET	n/a	LTP148	ltpFR	16	4	1	RELATIVE	1182	5	1	n/a	n/a	n/a	n/a	n/a
3035489	RECOG_RESP	n/a	LTP148	ltpFR	16	4	1	RELATIVE	1182	n/a	1	n/a	n/a	n/a	n/a	n/a
3035988	RECOG_CONF	n/a	LTP148	ltpFR	16	4	1	RELATIVE	1182	5	1	n/a	n/a	n/a	n/a	n/a
3037370	RECOG_TARGET	n/a	LTP148	ltpFR	16	4	1	MAILBOX	857	5	0	n/a	n/a	n/a	n/a	n/a
3037844	RECOG_RESP	n/a	LTP148	ltpFR	16	4	1	MAILBOX	857	n/a	0	n/a	n/a	n/a	n/a	n/a
3038323	RECOG_CONF	n/a	LTP148	ltpFR	16	4	1	MAILBOX	857	5	0	n/a	n/a	n/a	n/a	n/a
3039691	RECOG_LURE	n/a	LTP148	ltpFR	16	4	n/a	BLACKBOARD	133	4	n/a	n/a	n/a	n/a	n/a	n/a
3040348	RECOG_RESP	n/a	LTP148	ltpFR	16	4	n/a	BLACKBOARD	133	n/a	n/a	n/a	n/a	n/a	n/a	n/a
3040917	RECOG_CONF	n/a	LTP148	ltpFR	16	4	n/a	BLACKBOARD	133	4	n/a	n/a	n/a	n/a	n/a	n/a
3042189	RECOG_TARGET	n/a	LTP148	ltpFR	16	4	-1	LILY	821	5	-1	n/a	n/a	n/a	n/a	n/a
3042763	RECOG_RESP	n/a	LTP148	ltpFR	16	4	-1	LILY	821	n/a	-1	n/a	n/a	n/a	n/a	n/a
3043252	RECOG_CONF	n/a	LTP148	ltpFR	16	4	-1	LILY	821	5	-1	n/a	n/a	n/a	n/a	n/a
3044594	RECOG_TARGET	n/a	LTP148	ltpFR	16	4	0	BOAT	144	5	1	n/a	n/a	n/a	n/a	n/a
3045147	RECOG_RESP	n/a	LTP148	ltpFR	16	4	0	BOAT	144	n/a	1	n/a	n/a	n/a	n/a	n/a
3045646	RECOG_CONF	n/a	LTP148	ltpFR	16	4	0	BOAT	144	5	1	n/a	n/a	n/a	n/a	n/a
3046984	RECOG_TARGET	n/a	LTP148	ltpFR	16	4	0	LAUNDRY	803	4	1	n/a	n/a	n/a	n/a	n/a
3047472	RECOG_RESP	n/a	LTP148	ltpFR	16	4	0	LAUNDRY	803	n/a	1	n/a	n/a	n/a	n/a	n/a
3047931	RECOG_CONF	n/a	LTP148	ltpFR	16	4	0	LAUNDRY	803	4	1	n/a	n/a	n/a	n/a	n/a
3049323	RECOG_TARGET	n/a	LTP148	ltpFR	16	4	-1	SPIT	1354	3	-1	n/a	n/a	n/a	n/a	n/a
3049951	RECOG_RESP	n/a	LTP148	ltpFR	16	4	-1	SPIT	1354	n/a	-1	n/a	n/a	n/a	n/a	n/a
3050525	RECOG_CONF	n/a	LTP148	ltpFR	16	4	-1	SPIT	1354	3	-1	n/a	n/a	n/a	n/a	n/a
3051778	RECOG_LURE	n/a	LTP148	ltpFR	16	4	n/a	MOUNTAIN	924	4	n/a	n/a	n/a	n/a	n/a	n/a
3052955	RECOG_RESP	n/a	LTP148	ltpFR	16	4	n/a	MOUNTAIN	924	n/a	n/a	n/a	n/a	n/a	n/a	n/a
3053568	RECOG_CONF	n/a	LTP148	ltpFR	16	4	n/a	MOUNTAIN	924	4	n/a	n/a	n/a	n/a	n/a	n/a
3054858	RECOG_TARGET	n/a	LTP148	ltpFR	16	4	0	ARTICLE	42	5	0	n/a	n/a	n/a	n/a	n/a
3055559	RECOG_RESP	n/a	LTP148	ltpFR	16	4	0	ARTICLE	42	n/a	0	n/a	n/a	n/a	n/a	n/a
3056013	RECOG_CONF	n/a	LTP148	ltpFR	16	4	0	ARTICLE	42	5	0	n/a	n/a	n/a	n/a	n/a
3057438	RECOG_TARGET	n/a	LTP148	ltpFR	16	4	0	BRICK	172	5	0	n/a	n/a	n/a	n/a	n/a
3057933	RECOG_RESP	n/a	LTP148	ltpFR	16	4	0	BRICK	172	n/a	0	n/a	n/a	n/a	n/a	n/a
3058447	RECOG_CONF	n/a	LTP148	ltpFR	16	4	0	BRICK	172	5	0	n/a	n/a	n/a	n/a	n/a
3059852	RECOG_TARGET	n/a	LTP148	ltpFR	16	4	1	DENTIST	447	5	1	n/a	n/a	n/a	n/a	n/a
3060497	RECOG_RESP	n/a	LTP148	ltpFR	16	4	1	DENTIST	447	n/a	1	n/a	n/a	n/a	n/a	n/a
3061031	RECOG_CONF	n/a	LTP148	ltpFR	16	4	1	DENTIST	447	5	1	n/a	n/a	n/a	n/a	n/a
3062466	RECOG_TARGET	n/a	LTP148	ltpFR	16	4	1	FLY	586	5	1	n/a	n/a	n/a	n/a	n/a
3063002	RECOG_RESP	n/a	LTP148	ltpFR	16	4	1	FLY	586	n/a	1	n/a	n/a	n/a	n/a	n/a
3063536	RECOG_CONF	n/a	LTP148	ltpFR	16	4	1	FLY	586	5	1	n/a	n/a	n/a	n/a	n/a
3064913	RECOG_LURE	n/a	LTP148	ltpFR	16	4	n/a	WAITER	1580	3	n/a	n/a	n/a	n/a	n/a	n/a
3065641	RECOG_RESP	n/a	LTP148	ltpFR	16	4	n/a	WAITER	1580	n/a	n/a	n/a	n/a	n/a	n/a	n/a
3066239	RECOG_CONF	n/a	LTP148	ltpFR	16	4	n/a	WAITER	1580	3	n/a	n/a	n/a	n/a	n/a	n/a
3067485	RECOG_TARGET	n/a	LTP148	ltpFR	16	4	-1	BRAKE	166	5	-1	n/a	n/a	n/a	n/a	n/a
3068205	RECOG_RESP	n/a	LTP148	ltpFR	16	4	-1	BRAKE	166	n/a	-1	n/a	n/a	n/a	n/a	n/a
3068694	RECOG_CONF	n/a	LTP148	ltpFR	16	4	-1	BRAKE	166	5	-1	n/a	n/a	n/a	n/a	n/a
3069990	RECOG_TARGET	n/a	LTP148	ltpFR	16	4	0	STOCKING	1383	5	0	n/a	n/a	n/a	n/a	n/a
3070643	RECOG_RESP	n/a	LTP148	ltpFR	16	4	0	STOCKING	1383	n/a	0	n/a	n/a	n/a	n/a	n/a
3071108	RECOG_CONF	n/a	LTP148	ltpFR	16	4	0	STOCKING	1383	5	0	n/a	n/a	n/a	n/a	n/a
3078475	REC_START	n/a	LTP148	ltpFR	16	5	n/a	n/a	n/a	n/a	n/a	n/a	n/a	n/a	n/a	n/a
3078506	RECOG_TARGET	n/a	LTP148	ltpFR	16	5	1	OUTFIT	988	5	0	n/a	n/a	n/a	n/a	n/a
3079143	RECOG_RESP	n/a	LTP148	ltpFR	16	5	1	OUTFIT	988	n/a	0	n/a	n/a	n/a	n/a	n/a
3079597	RECOG_CONF	n/a	LTP148	ltpFR	16	5	1	OUTFIT	988	5	0	n/a	n/a	n/a	n/a	n/a
3080911	RECOG_TARGET	n/a	LTP148	ltpFR	16	5	1	FEATHER	557	5	0	n/a	n/a	n/a	n/a	n/a
3081493	RECOG_RESP	n/a	LTP148	ltpFR	16	5	1	FEATHER	557	n/a	0	n/a	n/a	n/a	n/a	n/a
3081987	RECOG_CONF	n/a	LTP148	ltpFR	16	5	1	FEATHER	557	5	0	n/a	n/a	n/a	n/a	n/a
3083392	RECOG_TARGET	n/a	LTP148	ltpFR	16	5	1	CAPTIVE	240	3	1	n/a	n/a	n/a	n/a	n/a
3085100	RECOG_RESP	n/a	LTP148	ltpFR	16	5	1	CAPTIVE	240	n/a	1	n/a	n/a	n/a	n/a	n/a
3085783	RECOG_CONF	n/a	LTP148	ltpFR	16	5	1	CAPTIVE	240	3	1	n/a	n/a	n/a	n/a	n/a
3087137	RECOG_LURE	n/a	LTP148	ltpFR	16	5	n/a	ORCHESTRA	981	4	n/a	n/a	n/a	n/a	n/a	n/a
3088008	RECOG_RESP	n/a	LTP148	ltpFR	16	5	n/a	ORCHESTRA	981	n/a	n/a	n/a	n/a	n/a	n/a	n/a
3088577	RECOG_CONF	n/a	LTP148	ltpFR	16	5	n/a	ORCHESTRA	981	4	n/a	n/a	n/a	n/a	n/a	n/a
3089809	RECOG_TARGET	n/a	LTP148	ltpFR	16	5	-1	COACH	331	5	-1	n/a	n/a	n/a	n/a	n/a
3090358	RECOG_RESP	n/a	LTP148	ltpFR	16	5	-1	COACH	331	n/a	-1	n/a	n/a	n/a	n/a	n/a
3090792	RECOG_CONF	n/a	LTP148	ltpFR	16	5	-1	COACH	331	5	-1	n/a	n/a	n/a	n/a	n/a
3092115	RECOG_LURE	n/a	LTP148	ltpFR	16	5	n/a	MICROPHONE	890	4	n/a	n/a	n/a	n/a	n/a	n/a
3092842	RECOG_RESP	n/a	LTP148	ltpFR	16	5	n/a	MICROPHONE	890	n/a	n/a	n/a	n/a	n/a	n/a	n/a
3093386	RECOG_CONF	n/a	LTP148	ltpFR	16	5	n/a	MICROPHONE	890	4	n/a	n/a	n/a	n/a	n/a	n/a
3094795	RECOG_TARGET	n/a	LTP148	ltpFR	16	5	1	PARTNER	1017	2	1	n/a	n/a	n/a	n/a	n/a
3097467	RECOG_RESP	n/a	LTP148	ltpFR	16	5	1	PARTNER	1017	n/a	1	n/a	n/a	n/a	n/a	n/a
3098055	RECOG_CONF	n/a	LTP148	ltpFR	16	5	1	PARTNER	1017	2	1	n/a	n/a	n/a	n/a	n/a
3099431	RECOG_TARGET	n/a	LTP148	ltpFR	16	5	0	PIANO	1057	4	1	n/a	n/a	n/a	n/a	n/a
3100285	RECOG_RESP	n/a	LTP148	ltpFR	16	5	0	PIANO	1057	n/a	1	n/a	n/a	n/a	n/a	n/a
3100799	RECOG_CONF	n/a	LTP148	ltpFR	16	5	0	PIANO	1057	4	1	n/a	n/a	n/a	n/a	n/a
3102028	RECOG_TARGET	n/a	LTP148	ltpFR	16	5	0	SUPERMARKET	1409	5	1	n/a	n/a	n/a	n/a	n/a
3102665	RECOG_RESP	n/a	LTP148	ltpFR	16	5	0	SUPERMARKET	1409	n/a	1	n/a	n/a	n/a	n/a	n/a
3103104	RECOG_CONF	n/a	LTP148	ltpFR	16	5	0	SUPERMARKET	1409	5	1	n/a	n/a	n/a	n/a	n/a
3104401	RECOG_TARGET	n/a	LTP148	ltpFR	16	5	1	TWIG	1527	5	0	n/a	n/a	n/a	n/a	n/a
3104940	RECOG_RESP	n/a	LTP148	ltpFR	16	5	1	TWIG	1527	n/a	0	n/a	n/a	n/a	n/a	n/a
3105389	RECOG_CONF	n/a	LTP148	ltpFR	16	5	1	TWIG	1527	5	0	n/a	n/a	n/a	n/a	n/a
3106773	RECOG_TARGET	n/a	LTP148	ltpFR	16	5	0	SARDINE	1235	5	0	n/a	n/a	n/a	n/a	n/a
3107444	RECOG_RESP	n/a	LTP148	ltpFR	16	5	0	SARDINE	1235	n/a	0	n/a	n/a	n/a	n/a	n/a
3107923	RECOG_CONF	n/a	LTP148	ltpFR	16	5	0	SARDINE	1235	5	0	n/a	n/a	n/a	n/a	n/a
3109337	RECOG_TARGET	n/a	LTP148	ltpFR	16	5	1	NAIL	936	5	0	n/a	n/a	n/a	n/a	n/a
3109898	RECOG_RESP	n/a	LTP148	ltpFR	16	5	1	NAIL	936	n/a	0	n/a	n/a	n/a	n/a	n/a
3110387	RECOG_CONF	n/a	LTP148	ltpFR	16	5	1	NAIL	936	5	0	n/a	n/a	n/a	n/a	n/a
3111625	RECOG_TARGET	n/a	LTP148	ltpFR	16	5	-1	BUTTER	205	5	-1	n/a	n/a	n/a	n/a	n/a
3112507	RECOG_RESP	n/a	LTP148	ltpFR	16	5	-1	BUTTER	205	n/a	-1	n/a	n/a	n/a	n/a	n/a
3112981	RECOG_CONF	n/a	LTP148	ltpFR	16	5	-1	BUTTER	205	5	-1	n/a	n/a	n/a	n/a	n/a
3114414	RECOG_TARGET	n/a	LTP148	ltpFR	16	5	-1	DOORBELL	487	5	-1	n/a	n/a	n/a	n/a	n/a
3115201	RECOG_RESP	n/a	LTP148	ltpFR	16	5	-1	DOORBELL	487	n/a	-1	n/a	n/a	n/a	n/a	n/a
3115725	RECOG_CONF	n/a	LTP148	ltpFR	16	5	-1	DOORBELL	487	5	-1	n/a	n/a	n/a	n/a	n/a
3116969	RECOG_TARGET	n/a	LTP148	ltpFR	16	5	0	SIRLOIN	1311	5	0	n/a	n/a	n/a	n/a	n/a
3117646	RECOG_RESP	n/a	LTP148	ltpFR	16	5	0	SIRLOIN	1311	n/a	0	n/a	n/a	n/a	n/a	n/a
3118150	RECOG_CONF	n/a	LTP148	ltpFR	16	5	0	SIRLOIN	1311	5	0	n/a	n/a	n/a	n/a	n/a
3119540	RECOG_TARGET	n/a	LTP148	ltpFR	16	5	0	CARROT	249	5	0	n/a	n/a	n/a	n/a	n/a
3120090	RECOG_RESP	n/a	LTP148	ltpFR	16	5	0	CARROT	249	n/a	0	n/a	n/a	n/a	n/a	n/a
3120564	RECOG_CONF	n/a	LTP148	ltpFR	16	5	0	CARROT	249	5	0	n/a	n/a	n/a	n/a	n/a
3121847	RECOG_TARGET	n/a	LTP148	ltpFR	16	5	1	PEDESTRIAN	1038	5	1	n/a	n/a	n/a	n/a	n/a
3122405	RECOG_RESP	n/a	LTP148	ltpFR	16	5	1	PEDESTRIAN	1038	n/a	1	n/a	n/a	n/a	n/a	n/a
3122879	RECOG_CONF	n/a	LTP148	ltpFR	16	5	1	PEDESTRIAN	1038	5	1	n/a	n/a	n/a	n/a	n/a
3124286	RECOG_TARGET	n/a	LTP148	ltpFR	16	5	0	KING	777	5	1	n/a	n/a	n/a	n/a	n/a
3124864	RECOG_RESP	n/a	LTP148	ltpFR	16	5	0	KING	777	n/a	1	n/a	n/a	n/a	n/a	n/a
3125363	RECOG_CONF	n/a	LTP148	ltpFR	16	5	0	KING	777	5	1	n/a	n/a	n/a	n/a	n/a
3126616	RECOG_LURE	n/a	LTP148	ltpFR	16	5	n/a	FIREPLACE	570	5	n/a	n/a	n/a	n/a	n/a	n/a
3127324	RECOG_RESP	n/a	LTP148	ltpFR	16	5	n/a	FIREPLACE	570	n/a	n/a	n/a	n/a	n/a	n/a	n/a
3127868	RECOG_CONF	n/a	LTP148	ltpFR	16	5	n/a	FIREPLACE	570	5	n/a	n/a	n/a	n/a	n/a	n/a
3129105	RECOG_TARGET	n/a	LTP148	ltpFR	16	5	-1	EARRING	514	5	-1	n/a	n/a	n/a	n/a	n/a
3129678	RECOG_RESP	n/a	LTP148	ltpFR	16	5	-1	EARRING	514	n/a	-1	n/a	n/a	n/a	n/a	n/a
3130152	RECOG_CONF	n/a	LTP148	ltpFR	16	5	-1	EARRING	514	5	-1	n/a	n/a	n/a	n/a	n/a
3133373	REC_START	n/a	LTP148	ltpFR	16	6	n/a	n/a	n/a	n/a	n/a	n/a	n/a	n/a	n/a	n/a
3133400	RECOG_TARGET	n/a	LTP148	ltpFR	16	6	0	BLUEPRINT	142	5	0	n/a	n/a	n/a	n/a	n/a
3134066	RECOG_RESP	n/a	LTP148	ltpFR	16	6	0	BLUEPRINT	142	n/a	0	n/a	n/a	n/a	n/a	n/a
3134515	RECOG_CONF	n/a	LTP148	ltpFR	16	6	0	BLUEPRINT	142	5	0	n/a	n/a	n/a	n/a	n/a
3135814	RECOG_TARGET	n/a	LTP148	ltpFR	16	6	0	COIN	343	5	0	n/a	n/a	n/a	n/a	n/a
3136276	RECOG_RESP	n/a	LTP148	ltpFR	16	6	0	COIN	343	n/a	0	n/a	n/a	n/a	n/a	n/a
3136760	RECOG_CONF	n/a	LTP148	ltpFR	16	6	0	COIN	343	5	0	n/a	n/a	n/a	n/a	n/a
3138128	RECOG_TARGET	n/a	LTP148	ltpFR	16	6	1	NEWSPAPER	948	5	0	n/a	n/a	n/a	n/a	n/a
3138656	RECOG_RESP	n/a	LTP148	ltpFR	16	6	1	NEWSPAPER	948	n/a	0	n/a	n/a	n/a	n/a	n/a
3139135	RECOG_CONF	n/a	LTP148	ltpFR	16	6	1	NEWSPAPER	948	5	0	n/a	n/a	n/a	n/a	n/a
3140392	RECOG_LURE	n/a	LTP148	ltpFR	16	6	n/a	SKIRT	1319	4	n/a	n/a	n/a	n/a	n/a	n/a
3141075	RECOG_RESP	n/a	LTP148	ltpFR	16	6	n/a	SKIRT	1319	n/a	n/a	n/a	n/a	n/a	n/a	n/a
3141639	RECOG_CONF	n/a	LTP148	ltpFR	16	6	n/a	SKIRT	1319	4	n/a	n/a	n/a	n/a	n/a	n/a
3142964	RECOG_TARGET	n/a	LTP148	ltpFR	16	6	0	MONUMENT	913	5	1	n/a	n/a	n/a	n/a	n/a
3143624	RECOG_RESP	n/a	LTP148	ltpFR	16	6	0	MONUMENT	913	n/a	1	n/a	n/a	n/a	n/a	n/a
3144103	RECOG_CONF	n/a	LTP148	ltpFR	16	6	0	MONUMENT	913	5	1	n/a	n/a	n/a	n/a	n/a
3145336	RECOG_TARGET	n/a	LTP148	ltpFR	16	6	0	TROMBONE	1508	5	1	n/a	n/a	n/a	n/a	n/a
3145879	RECOG_RESP	n/a	LTP148	ltpFR	16	6	0	TROMBONE	1508	n/a	1	n/a	n/a	n/a	n/a	n/a
3146348	RECOG_CONF	n/a	LTP148	ltpFR	16	6	0	TROMBONE	1508	5	1	n/a	n/a	n/a	n/a	n/a
3147775	RECOG_TARGET	n/a	LTP148	ltpFR	16	6	0	WALRUS	1585	5	1	n/a	n/a	n/a	n/a	n/a
3148279	RECOG_RESP	n/a	LTP148	ltpFR	16	6	0	WALRUS	1585	n/a	1	n/a	n/a	n/a	n/a	n/a
3148723	RECOG_CONF	n/a	LTP148	ltpFR	16	6	0	WALRUS	1585	5	1	n/a	n/a	n/a	n/a	n/a
3150181	RECOG_TARGET	n/a	LTP148	ltpFR	16	6	0	MUSHROOM	934	5	0	n/a	n/a	n/a	n/a	n/a
3150649	RECOG_RESP	n/a	LTP148	ltpFR	16	6	0	MUSHROOM	934	n/a	0	n/a	n/a	n/a	n/a	n/a
3151127	RECOG_CONF	n/a	LTP148	ltpFR	16	6	0	MUSHROOM	934	5	0	n/a	n/a	n/a	n/a	n/a
3152535	RECOG_TARGET	n/a	LTP148	ltpFR	16	6	1	COMPANION	357	5	1	n/a	n/a	n/a	n/a	n/a
3153258	RECOG_RESP	n/a	LTP148	ltpFR	16	6	1	COMPANION	357	n/a	1	n/a	n/a	n/a	n/a	n/a
3153761	RECOG_CONF	n/a	LTP148	ltpFR	16	6	1	COMPANION	357	5	1	n/a	n/a	n/a	n/a	n/a
3155117	RECOG_LURE	n/a	LTP148	ltpFR	16	6	n/a	MISTER	901	3	n/a	n/a	n/a	n/a	n/a	n/a
3155762	RECOG_RESP	n/a	LTP148	ltpFR	16	6	n/a	MISTER	901	n/a	n/a	n/a	n/a	n/a	n/a	n/a
3156286	RECOG_CONF	n/a	LTP148	ltpFR	16	6	n/a	MISTER	901	3	n/a	n/a	n/a	n/a	n/a	n/a
3157621	RECOG_LURE	n/a	LTP148	ltpFR	16	6	n/a	LADDER	793	4	n/a	n/a	n/a	n/a	n/a	n/a
3158231	RECOG_RESP	n/a	LTP148	ltpFR	16	6	n/a	LADDER	793	n/a	n/a	n/a	n/a	n/a	n/a	n/a
3158730	RECOG_CONF	n/a	LTP148	ltpFR	16	6	n/a	LADDER	793	4	n/a	n/a	n/a	n/a	n/a	n/a
3160028	RECOG_TARGET	n/a	LTP148	ltpFR	16	6	1	KNIGHT	786	5	1	n/a	n/a	n/a	n/a	n/a
3160721	RECOG_RESP	n/a	LTP148	ltpFR	16	6	1	KNIGHT	786	n/a	1	n/a	n/a	n/a	n/a	n/a
3161205	RECOG_CONF	n/a	LTP148	ltpFR	16	6	1	KNIGHT	786	5	1	n/a	n/a	n/a	n/a	n/a
3162632	RECOG_TARGET	n/a	LTP148	ltpFR	16	6	1	ANIMAL	23	4	1	n/a	n/a	n/a	n/a	n/a
3163110	RECOG_RESP	n/a	LTP148	ltpFR	16	6	1	ANIMAL	23	n/a	1	n/a	n/a	n/a	n/a	n/a
3163609	RECOG_CONF	n/a	LTP148	ltpFR	16	6	1	ANIMAL	23	4	1	n/a	n/a	n/a	n/a	n/a
3164889	RECOG_TARGET	n/a	LTP148	ltpFR	16	6	0	KEEPER	769	5	1	n/a	n/a	n/a	n/a	n/a
3165480	RECOG_RESP	n/a	LTP148	ltpFR	16	6	0	KEEPER	769	n/a	1	n/a	n/a	n/a	n/a	n/a
3165924	RECOG_CONF	n/a	LTP148	ltpFR	16	6	0	KEEPER	769	5	1	n/a	n/a	n/a	n/a	n/a
3167211	RECOG_TARGET	n/a	LTP148	ltpFR	16	6	0	PARSLEY	1016	5	0	n/a	n/a	n/a	n/a	n/a
3167760	RECOG_RESP	n/a	LTP148	ltpFR	16	6	0	PARSLEY	1016	n/a	0	n/a	n/a	n/a	n/a	n/a
3168229	RECOG_CONF	n/a	LTP148	ltpFR	16	6	0	PARSLEY	1016	5	0	n/a	n/a	n/a	n/a	n/a
3169557	RECOG_TARGET	n/a	LTP148	ltpFR	16	6	0	ORNAMENT	985	5	0	n/a	n/a	n/a	n/a	n/a
3170304	RECOG_RESP	n/a	LTP148	ltpFR	16	6	0	ORNAMENT	985	n/a	0	n/a	n/a	n/a	n/a	n/a
3170783	RECOG_CONF	n/a	LTP148	ltpFR	16	6	0	ORNAMENT	985	5	0	n/a	n/a	n/a	n/a	n/a
3172072	RECOG_TARGET	n/a	LTP148	ltpFR	16	6	1	FELLOW	558	5	1	n/a	n/a	n/a	n/a	n/a
3172569	RECOG_RESP	n/a	LTP148	ltpFR	16	6	1	FELLOW	558	n/a	1	n/a	n/a	n/a	n/a	n/a
3173018	RECOG_CONF	n/a	LTP148	ltpFR	16	6	1	FELLOW	558	5	1	n/a	n/a	n/a	n/a	n/a
3174303	RECOG_TARGET	n/a	LTP148	ltpFR	16	6	-1	WORLD	1622	5	-1	n/a	n/a	n/a	n/a	n/a
3174918	RECOG_RESP	n/a	LTP148	ltpFR	16	6	-1	WORLD	1622	n/a	-1	n/a	n/a	n/a	n/a	n/a
3175352	RECOG_CONF	n/a	LTP148	ltpFR	16	6	-1	WORLD	1622	5	-1	n/a	n/a	n/a	n/a	n/a
3176699	RECOG_TARGET	n/a	LTP148	ltpFR	16	6	1	COFFIN	342	5	0	n/a	n/a	n/a	n/a	n/a
3177483	RECOG_RESP	n/a	LTP148	ltpFR	16	6	1	COFFIN	342	n/a	0	n/a	n/a	n/a	n/a	n/a
3178016	RECOG_CONF	n/a	LTP148	ltpFR	16	6	1	COFFIN	342	5	0	n/a	n/a	n/a	n/a	n/a
3179306	RECOG_LURE	n/a	LTP148	ltpFR	16	6	n/a	BAIT	70	3	n/a	n/a	n/a	n/a	n/a	n/a
3180097	RECOG_RESP	n/a	LTP148	ltpFR	16	6	n/a	BAIT	70	n/a	n/a	n/a	n/a	n/a	n/a	n/a
3180650	RECOG_CONF	n/a	LTP148	ltpFR	16	6	n/a	BAIT	70	3	n/a	n/a	n/a	n/a	n/a	n/a
3188675	REC_START	n/a	LTP148	ltpFR	16	7	n/a	n/a	n/a	n/a	n/a	n/a	n/a	n/a	n/a	n/a
3188702	RECOG_TARGET	n/a	LTP148	ltpFR	16	7	1	SHRUB	1299	5	1	n/a	n/a	n/a	n/a	n/a
3189383	RECOG_RESP	n/a	LTP148	ltpFR	16	7	1	SHRUB	1299	n/a	1	n/a	n/a	n/a	n/a	n/a
3189837	RECOG_CONF	n/a	LTP148	ltpFR	16	7	1	SHRUB	1299	5	1	n/a	n/a	n/a	n/a	n/a
3191208	RECOG_TARGET	n/a	LTP148	ltpFR	16	7	1	FINGERNAIL	568	5	0	n/a	n/a	n/a	n/a	n/a
3191818	RECOG_RESP	n/a	LTP148	ltpFR	16	7	1	FINGERNAIL	568	n/a	0	n/a	n/a	n/a	n/a	n/a
3192272	RECOG_CONF	n/a	LTP148	ltpFR	16	7	1	FINGERNAIL	568	5	0	n/a	n/a	n/a	n/a	n/a
3193621	RECOG_TARGET	n/a	LTP148	ltpFR	16	7	1	KIWI	781	5	1	n/a	n/a	n/a	n/a	n/a
3194412	RECOG_RESP	n/a	LTP148	ltpFR	16	7	1	KIWI	781	n/a	1	n/a	n/a	n/a	n/a	n/a
3194876	RECOG_CONF	n/a	LTP148	ltpFR	16	7	1	KIWI	781	5	1	n/a	n/a	n/a	n/a	n/a
3196128	RECOG_TARGET	n/a	LTP148	ltpFR	16	7	0	BUFFALO	186	5	1	n/a	n/a	n/a	n/a	n/a
3196652	RECOG_RESP	n/a	LTP148	ltpFR	16	7	0	BUFFALO	186	n/a	1	n/a	n/a	n/a	n/a	n/a
3197131	RECOG_CONF	n/a	LTP148	ltpFR	16	7	0	BUFFALO	186	5	1	n/a	n/a	n/a	n/a	n/a
3198492	RECOG_LURE	n/a	LTP148	ltpFR	16	7	n/a	INSTRUCTOR	741	3	n/a	n/a	n/a	n/a	n/a	n/a
3199291	RECOG_RESP	n/a	LTP148	ltpFR	16	7	n/a	INSTRUCTOR	741	n/a	n/a	n/a	n/a	n/a	n/a	n/a
3199815	RECOG_CONF	n/a	LTP148	ltpFR	16	7	n/a	INSTRUCTOR	741	3	n/a	n/a	n/a	n/a	n/a	n/a
3201005	RECOG_TARGET	n/a	LTP148	ltpFR	16	7	0	TRAY	1498	5	1	n/a	n/a	n/a	n/a	n/a
3201640	RECOG_RESP	n/a	LTP148	ltpFR	16	7	0	TRAY	1498	n/a	1	n/a	n/a	n/a	n/a	n/a
3202089	RECOG_CONF	n/a	LTP148	ltpFR	16	7	0	TRAY	1498	5	1	n/a	n/a	n/a	n/a	n/a
3203378	RECOG_LURE	n/a	LTP148	ltpFR	16	7	n/a	LOAF	835	3	n/a	n/a	n/a	n/a	n/a	n/a
3203731	RECOG_RESP_VV	n/a	LTP148	ltpFR	16	7	n/a	LOAF	835	n/a	n/a	n/a	n/a	n/a	n/a	n/a
3204115	RECOG_RESP	n/a	LTP148	ltpFR	16	7	n/a	LOAF	835	n/a	n/a	n/a	n/a	n/a	n/a	n/a
3204843	RECOG_CONF	n/a	LTP148	ltpFR	16	7	n/a	LOAF	835	3	n/a	n/a	n/a	n/a	n/a	n/a
3206074	RECOG_TARGET	n/a	LTP148	ltpFR	16	7	-1	COOLER	375	5	-1	n/a	n/a	n/a	n/a	n/a
3206739	RECOG_RESP	n/a	LTP148	ltpFR	16	7	-1	COOLER	375	n/a	-1	n/a	n/a	n/a	n/a	n/a
3207178	RECOG_CONF	n/a	LTP148	ltpFR	16	7	-1	COOLER	375	5	-1	n/a	n/a	n/a	n/a	n/a
3208505	RECOG_LURE	n/a	LTP148	ltpFR	16	7	n/a	COLT	349	3	n/a	n/a	n/a	n/a	n/a	n/a
3209173	RECOG_RESP	n/a	LTP148	ltpFR	16	7	n/a	COLT	349	n/a	n/a	n/a	n/a	n/a	n/a	n/a
3209702	RECOG_CONF	n/a	LTP148	ltpFR	16	7	n/a	COLT	349	3	n/a	n/a	n/a	n/a	n/a	n/a
3211069	RECOG_TARGET	n/a	LTP148	ltpFR	16	7	0	GUEST	669	5	1	n/a	n/a	n/a	n/a	n/a
3211623	RECOG_RESP	n/a	LTP148	ltpFR	16	7	0	GUEST	669	n/a	1	n/a	n/a	n/a	n/a	n/a
3212087	RECOG_CONF	n/a	LTP148	ltpFR	16	7	0	GUEST	669	5	1	n/a	n/a	n/a	n/a	n/a
3213408	RECOG_TARGET	n/a	LTP148	ltpFR	16	7	1	ENGINEER	536	5	1	n/a	n/a	n/a	n/a	n/a
3214002	RECOG_RESP	n/a	LTP148	ltpFR	16	7	1	ENGINEER	536	n/a	1	n/a	n/a	n/a	n/a	n/a
3214930	RECOG_CONF	n/a	LTP148	ltpFR	16	7	1	ENGINEER	536	5	1	n/a	n/a	n/a	n/a	n/a
3216204	RECOG_TARGET	n/a	LTP148	ltpFR	16	7	1	VIDEO	1564	5	0	n/a	n/a	n/a	n/a	n/a
3217664	RECOG_RESP	n/a	LTP148	ltpFR	16	7	1	VIDEO	1564	n/a	0	n/a	n/a	n/a	n/a	n/a
3218163	RECOG_CONF	n/a	LTP148	ltpFR	16	7	1	VIDEO	1564	5	0	n/a	n/a	n/a	n/a	n/a
3219541	RECOG_TARGET	n/a	LTP148	ltpFR	16	7	1	RESTAURANT	1187	4	0	n/a	n/a	n/a	n/a	n/a
3220393	RECOG_RESP	n/a	LTP148	ltpFR	16	7	1	RESTAURANT	1187	n/a	0	n/a	n/a	n/a	n/a	n/a
3221156	RECOG_CONF	n/a	LTP148	ltpFR	16	7	1	RESTAURANT	1187	4	0	n/a	n/a	n/a	n/a	n/a
3222381	RECOG_TARGET	n/a	LTP148	ltpFR	16	7	1	SALMON	1227	5	1	n/a	n/a	n/a	n/a	n/a
3223356	RECOG_RESP	n/a	LTP148	ltpFR	16	7	1	SALMON	1227	n/a	1	n/a	n/a	n/a	n/a	n/a
3223810	RECOG_CONF	n/a	LTP148	ltpFR	16	7	1	SALMON	1227	5	1	n/a	n/a	n/a	n/a	n/a
3225078	RECOG_TARGET	n/a	LTP148	ltpFR	16	7	1	BARRACUDA	90	5	1	n/a	n/a	n/a	n/a	n/a
3225736	RECOG_RESP	n/a	LTP148	ltpFR	16	7	1	BARRACUDA	90	n/a	1	n/a	n/a	n/a	n/a	n/a
3226234	RECOG_CONF	n/a	LTP148	ltpFR	16	7	1	BARRACUDA	90	5	1	n/a	n/a	n/a	n/a	n/a
3227690	RECOG_LURE	n/a	LTP148	ltpFR	16	7	n/a	MILDEW	893	3	n/a	n/a	n/a	n/a	n/a	n/a
3228998	RECOG_RESP	n/a	LTP148	ltpFR	16	7	n/a	MILDEW	893	n/a	n/a	n/a	n/a	n/a	n/a	n/a
3229567	RECOG_CONF	n/a	LTP148	ltpFR	16	7	n/a	MILDEW	893	3	n/a	n/a	n/a	n/a	n/a	n/a
3230821	RECOG_TARGET	n/a	LTP148	ltpFR	16	7	1	SKUNK	1321	5	1	n/a	n/a	n/a	n/a	n/a
3231463	RECOG_RESP	n/a	LTP148	ltpFR	16	7	1	SKUNK	1321	n/a	1	n/a	n/a	n/a	n/a	n/a
3231902	RECOG_CONF	n/a	LTP148	ltpFR	16	7	1	SKUNK	1321	5	1	n/a	n/a	n/a	n/a	n/a
3233235	RECOG_LURE	n/a	LTP148	ltpFR	16	7	n/a	MAPLE	866	3	n/a	n/a	n/a	n/a	n/a	n/a
3233837	RECOG_RESP	n/a	LTP148	ltpFR	16	7	n/a	MAPLE	866	n/a	n/a	n/a	n/a	n/a	n/a	n/a
3234386	RECOG_CONF	n/a	LTP148	ltpFR	16	7	n/a	MAPLE	866	3	n/a	n/a	n/a	n/a	n/a	n/a
3235639	RECOG_TARGET	n/a	LTP148	ltpFR	16	7	0	LETTUCE	814	5	0	n/a	n/a	n/a	n/a	n/a
3236232	RECOG_RESP	n/a	LTP148	ltpFR	16	7	0	LETTUCE	814	n/a	0	n/a	n/a	n/a	n/a	n/a
3236701	RECOG_CONF	n/a	LTP148	ltpFR	16	7	0	LETTUCE	814	5	0	n/a	n/a	n/a	n/a	n/a
3238012	RECOG_TARGET	n/a	LTP148	ltpFR	16	7	1	ROOT	1210	5	1	n/a	n/a	n/a	n/a	n/a
3238606	RECOG_RESP	n/a	LTP148	ltpFR	16	7	1	ROOT	1210	n/a	1	n/a	n/a	n/a	n/a	n/a
3239175	RECOG_CONF	n/a	LTP148	ltpFR	16	7	1	ROOT	1210	5	1	n/a	n/a	n/a	n/a	n/a
3242104	REC_START	n/a	LTP148	ltpFR	16	8	n/a	n/a	n/a	n/a	n/a	n/a	n/a	n/a	n/a	n/a
3242133	RECOG_TARGET	n/a	LTP148	ltpFR	16	8	-1	ATLAS	53	5	-1	n/a	n/a	n/a	n/a	n/a
3242772	RECOG_RESP	n/a	LTP148	ltpFR	16	8	-1	ATLAS	53	n/a	-1	n/a	n/a	n/a	n/a	n/a
3243266	RECOG_CONF	n/a	LTP148	ltpFR	16	8	-1	ATLAS	53	5	-1	n/a	n/a	n/a	n/a	n/a
3244554	RECOG_TARGET	n/a	LTP148	ltpFR	16	8	0	CUCUMBER	421	5	0	n/a	n/a	n/a	n/a	n/a
3245037	RECOG_RESP	n/a	LTP148	ltpFR	16	8	0	CUCUMBER	421	n/a	0	n/a	n/a	n/a	n/a	n/a
3245501	RECOG_CONF	n/a	LTP148	ltpFR	16	8	0	CUCUMBER	421	5	0	n/a	n/a	n/a	n/a	n/a
3246819	RECOG_TARGET	n/a	LTP148	ltpFR	16	8	-1	BEAST	108	5	-1	n/a	n/a	n/a	n/a	n/a
3247347	RECOG_RESP	n/a	LTP148	ltpFR	16	8	-1	BEAST	108	n/a	-1	n/a	n/a	n/a	n/a	n/a
