onset	duration	trial_type	sample	stim_file	subject	experiment	session	trial	item_name	item_num	list	answer	test_x	test_y	test_z
314.946	n/a	SESS_START	157473	n/a	LTP328	ltpFR2	15	n/a	n/a	n/a	n/a	n/a	0	0	0
329.322	n/a	START	164661	n/a	LTP328	ltpFR2	15	n/a	n/a	n/a	-1	n/a	n/a	n/a	n/a
329.372	n/a	PROB	164686	n/a	LTP328	ltpFR2	15	n/a	n/a	n/a	-1	13	1	4	8
330.872	n/a	PROB	165436	n/a	LTP328	ltpFR2	15	n/a	n/a	n/a	-1	14	5	8	1
331.988	n/a	PROB	165994	n/a	LTP328	ltpFR2	15	n/a	n/a	n/a	-1	19	9	5	5
333.354	n/a	PROB	166677	n/a	LTP328	ltpFR2	15	n/a	n/a	n/a	-1	15	2	5	8
334.888	n/a	PROB	167444	n/a	LTP328	ltpFR2	15	n/a	n/a	n/a	-1	12	7	4	1
335.954	n/a	PROB	167977	n/a	LTP328	ltpFR2	15	n/a	n/a	n/a	-1	9	4	2	3
338.536	n/a	PROB	169268	n/a	LTP328	ltpFR2	15	n/a	n/a	n/a	-1	11	4	3	4
339.804	n/a	STOP	169902	n/a	LTP328	ltpFR2	15	n/a	n/a	n/a	-1	n/a	n/a	n/a	n/a
370.654	n/a	WORD	185327	wordpools/wasnorm_wordpool_576.txt	LTP328	ltpFR2	15	1	LAKE	796	n/a	n/a	0	0	0
373.268	n/a	WORD	186634	wordpools/wasnorm_wordpool_576.txt	LTP328	ltpFR2	15	1	BARLEY	88	n/a	n/a	0	0	0
375.902	n/a	WORD	187951	wordpools/wasnorm_wordpool_576.txt	LTP328	ltpFR2	15	1	CRITIC	410	n/a	n/a	0	0	0
378.434	n/a	WORD	189217	wordpools/wasnorm_wordpool_576.txt	LTP328	ltpFR2	15	1	TWISTER	1530	n/a	n/a	0	0	0
381.066	n/a	WORD	190533	wordpools/wasnorm_wordpool_576.txt	LTP328	ltpFR2	15	1	VALLEY	1545	n/a	n/a	0	0	0
383.798	n/a	WORD	191899	wordpools/wasnorm_wordpool_576.txt	LTP328	ltpFR2	15	1	FRUIT	610	n/a	n/a	0	0	0
386.262	n/a	WORD	193131	wordpools/wasnorm_wordpool_576.txt	LTP328	ltpFR2	15	1	SEAGULL	1261	n/a	n/a	0	0	0
388.928	n/a	WORD	194464	wordpools/wasnorm_wordpool_576.txt	LTP328	ltpFR2	15	1	PARROT	1015	n/a	n/a	0	0	0
391.494	n/a	WORD	195747	wordpools/wasnorm_wordpool_576.txt	LTP328	ltpFR2	15	1	COFFEE	341	n/a	n/a	0	0	0
394.008	n/a	WORD	197004	wordpools/wasnorm_wordpool_576.txt	LTP328	ltpFR2	15	1	CAFE	216	n/a	n/a	0	0	0
396.708	n/a	WORD	198354	wordpools/wasnorm_wordpool_576.txt	LTP328	ltpFR2	15	1	PASTRY	1022	n/a	n/a	0	0	0
399.372	n/a	WORD	199686	wordpools/wasnorm_wordpool_576.txt	LTP328	ltpFR2	15	1	KNAPSACK	783	n/a	n/a	0	0	0
401.988	n/a	WORD	200994	wordpools/wasnorm_wordpool_576.txt	LTP328	ltpFR2	15	1	HIGHWAY	707	n/a	n/a	0	0	0
404.77	n/a	WORD	202385	wordpools/wasnorm_wordpool_576.txt	LTP328	ltpFR2	15	1	SIDEWALK	1303	n/a	n/a	0	0	0
407.286	n/a	WORD	203643	wordpools/wasnorm_wordpool_576.txt	LTP328	ltpFR2	15	1	CITRUS	313	n/a	n/a	0	0	0
409.934	n/a	WORD	204967	wordpools/wasnorm_wordpool_576.txt	LTP328	ltpFR2	15	1	TUNNEL	1519	n/a	n/a	0	0	0
412.384	n/a	WORD	206192	wordpools/wasnorm_wordpool_576.txt	LTP328	ltpFR2	15	1	SCARECROW	1245	n/a	n/a	0	0	0
415.016	n/a	WORD	207508	wordpools/wasnorm_wordpool_576.txt	LTP328	ltpFR2	15	1	GYMNAST	675	n/a	n/a	0	0	0
417.532	n/a	WORD	208766	wordpools/wasnorm_wordpool_576.txt	LTP328	ltpFR2	15	1	ANKLE	24	n/a	n/a	0	0	0
420.164	n/a	WORD	210082	wordpools/wasnorm_wordpool_576.txt	LTP328	ltpFR2	15	1	VENUS	1557	n/a	n/a	0	0	0
422.828	n/a	WORD	211414	wordpools/wasnorm_wordpool_576.txt	LTP328	ltpFR2	15	1	MAMMAL	861	n/a	n/a	0	0	0
425.578	n/a	WORD	212789	wordpools/wasnorm_wordpool_576.txt	LTP328	ltpFR2	15	1	WAITRESS	1581	n/a	n/a	0	0	0
428.292	n/a	WORD	214146	wordpools/wasnorm_wordpool_576.txt	LTP328	ltpFR2	15	1	CRAYON	401	n/a	n/a	0	0	0
431.126	n/a	WORD	215563	wordpools/wasnorm_wordpool_576.txt	LTP328	ltpFR2	15	1	MARROW	872	n/a	n/a	0	0	0
432.758	n/a	START	216379	n/a	LTP328	ltpFR2	15	n/a	n/a	n/a	1	n/a	n/a	n/a	n/a
433.74	n/a	DISTRACTOR	216870	n/a	LTP328	ltpFR2	15	1	n/a	n/a	n/a	n/a	0	0	0
433.774	n/a	PROB	216887	n/a	LTP328	ltpFR2	15	n/a	n/a	n/a	1	11	4	6	1
435.472	n/a	PROB	217736	n/a	LTP328	ltpFR2	15	n/a	n/a	n/a	1	12	4	6	2
436.472	n/a	PROB	218236	n/a	LTP328	ltpFR2	15	n/a	n/a	n/a	1	21	7	6	8
438.222	n/a	PROB	219111	n/a	LTP328	ltpFR2	15	n/a	n/a	n/a	1	20	6	8	6
440.736	n/a	PROB	220368	n/a	LTP328	ltpFR2	15	n/a	n/a	n/a	1	17	2	7	8
442.302	n/a	PROB	221151	n/a	LTP328	ltpFR2	15	n/a	n/a	n/a	1	16	6	9	1
443.452	n/a	PROB	221726	n/a	LTP328	ltpFR2	15	n/a	n/a	n/a	1	18	2	9	7
444.902	n/a	PROB	222451	n/a	LTP328	ltpFR2	15	n/a	n/a	n/a	1	22	9	9	3
446.534	n/a	PROB	223267	n/a	LTP328	ltpFR2	15	n/a	n/a	n/a	1	12	8	1	3
447.65	n/a	PROB	223825	n/a	LTP328	ltpFR2	15	n/a	n/a	n/a	1	22	9	4	9
449.448	n/a	PROB	224724	n/a	LTP328	ltpFR2	15	n/a	n/a	n/a	1	15	6	8	1
450.648	n/a	PROB	225324	n/a	LTP328	ltpFR2	15	n/a	n/a	n/a	1	9	3	1	5
451.864	n/a	PROB	225932	n/a	LTP328	ltpFR2	15	n/a	n/a	n/a	1	22	5	9	8
453.43	n/a	PROB	226715	n/a	LTP328	ltpFR2	15	n/a	n/a	n/a	1	17	8	3	6
454.86	n/a	PROB	227430	n/a	LTP328	ltpFR2	15	n/a	n/a	n/a	1	16	1	9	6
455.886	n/a	STOP	227943	n/a	LTP328	ltpFR2	15	n/a	n/a	n/a	1	n/a	n/a	n/a	n/a
458.596	n/a	REC_START	229298	n/a	LTP328	ltpFR2	15	1	n/a	n/a	n/a	n/a	0	0	0
460.36	n/a	REC_WORD	230180	wordpools/wasnorm_wordpool_576.txt	LTP328	ltpFR2	15	1	LAKE	796	n/a	n/a	0	0	0
460.98	n/a	REC_WORD	230490	wordpools/wasnorm_wordpool_576.txt	LTP328	ltpFR2	15	1	BARLEY	88	n/a	n/a	0	0	0
461.688	n/a	REC_WORD	230844	wordpools/wasnorm_wordpool_576.txt	LTP328	ltpFR2	15	1	CRITIC	410	n/a	n/a	0	0	0
464.334	n/a	REC_WORD	232167	wordpools/wasnorm_wordpool_576.txt	LTP328	ltpFR2	15	1	TWISTER	1530	n/a	n/a	0	0	0
465.108	n/a	REC_WORD	232554	wordpools/wasnorm_wordpool_576.txt	LTP328	ltpFR2	15	1	FRUIT	610	n/a	n/a	0	0	0
465.68	n/a	REC_WORD	232840	wordpools/wasnorm_wordpool_576.txt	LTP328	ltpFR2	15	1	SEAGULL	1261	n/a	n/a	0	0	0
466.386	n/a	REC_WORD	233193	wordpools/wasnorm_wordpool_576.txt	LTP328	ltpFR2	15	1	PARROT	1015	n/a	n/a	0	0	0
469.068	n/a	REC_WORD	234534	wordpools/wasnorm_wordpool_576.txt	LTP328	ltpFR2	15	1	PASTRY	1022	n/a	n/a	0	0	0
470.634	n/a	REC_WORD	235317	wordpools/wasnorm_wordpool_576.txt	LTP328	ltpFR2	15	1	COFFEE	341	n/a	n/a	0	0	0
472.866	n/a	REC_WORD	236433	wordpools/wasnorm_wordpool_576.txt	LTP328	ltpFR2	15	1	CAFE	216	n/a	n/a	0	0	0
473.81	n/a	REC_WORD	236905	wordpools/wasnorm_wordpool_576.txt	LTP328	ltpFR2	15	1	TUNNEL	1519	n/a	n/a	0	0	0
474.468	n/a	REC_WORD	237234	wordpools/wasnorm_wordpool_576.txt	LTP328	ltpFR2	15	1	SCARECROW	1245	n/a	n/a	0	0	0
475.51	n/a	REC_WORD	237755	wordpools/wasnorm_wordpool_576.txt	LTP328	ltpFR2	15	1	GYMNAST	675	n/a	n/a	0	0	0
476.938	n/a	REC_WORD	238469	wordpools/wasnorm_wordpool_576.txt	LTP328	ltpFR2	15	1	ANKLE	24	n/a	n/a	0	0	0
480.328	n/a	REC_WORD	240164	wordpools/wasnorm_wordpool_576.txt	LTP328	ltpFR2	15	1	MAMMAL	861	n/a	n/a	0	0	0
481.502	n/a	REC_WORD	240751	wordpools/wasnorm_wordpool_576.txt	LTP328	ltpFR2	15	1	VENUS	1557	n/a	n/a	0	0	0
483.606	n/a	REC_WORD	241803	wordpools/wasnorm_wordpool_576.txt	LTP328	ltpFR2	15	1	WAITRESS	1581	n/a	n/a	0	0	0
485.07	n/a	REC_WORD	242535	wordpools/wasnorm_wordpool_576.txt	LTP328	ltpFR2	15	1	CRAYON	401	n/a	n/a	0	0	0
549.302	n/a	WORD	274651	wordpools/wasnorm_wordpool_576.txt	LTP328	ltpFR2	15	2	TOMBSTONE	1478	n/a	n/a	0	0	0
551.95	n/a	WORD	275975	wordpools/wasnorm_wordpool_576.txt	LTP328	ltpFR2	15	2	CASKET	255	n/a	n/a	0	0	0
554.45	n/a	WORD	277225	wordpools/wasnorm_wordpool_576.txt	LTP328	ltpFR2	15	2	GRAVE	658	n/a	n/a	0	0	0
556.982	n/a	WORD	278491	wordpools/wasnorm_wordpool_576.txt	LTP328	ltpFR2	15	2	PLATE	1086	n/a	n/a	0	0	0
559.614	n/a	WORD	279807	wordpools/wasnorm_wordpool_576.txt	LTP328	ltpFR2	15	2	SODA	1341	n/a	n/a	0	0	0
562.214	n/a	WORD	281107	wordpools/wasnorm_wordpool_576.txt	LTP328	ltpFR2	15	2	CREATURE	403	n/a	n/a	0	0	0
564.978	n/a	WORD	282489	wordpools/wasnorm_wordpool_576.txt	LTP328	ltpFR2	15	2	WIDOW	1608	n/a	n/a	0	0	0
567.76	n/a	WORD	283880	wordpools/wasnorm_wordpool_576.txt	LTP328	ltpFR2	15	2	DRINK	498	n/a	n/a	0	0	0
570.342	n/a	WORD	285171	wordpools/wasnorm_wordpool_576.txt	LTP328	ltpFR2	15	2	WAGON	1578	n/a	n/a	0	0	0
573.024	n/a	WORD	286512	wordpools/wasnorm_wordpool_576.txt	LTP328	ltpFR2	15	2	FLEET	578	n/a	n/a	0	0	0
575.756	n/a	WORD	287878	wordpools/wasnorm_wordpool_576.txt	LTP328	ltpFR2	15	2	CORAL	378	n/a	n/a	0	0	0
578.454	n/a	WORD	289227	wordpools/wasnorm_wordpool_576.txt	LTP328	ltpFR2	15	2	HORSE	719	n/a	n/a	0	0	0
580.92	n/a	WORD	290460	wordpools/wasnorm_wordpool_576.txt	LTP328	ltpFR2	15	2	CABIN	211	n/a	n/a	0	0	0
583.536	n/a	WORD	291768	wordpools/wasnorm_wordpool_576.txt	LTP328	ltpFR2	15	2	DUSTPAN	509	n/a	n/a	0	0	0
586.0	n/a	WORD	293000	wordpools/wasnorm_wordpool_576.txt	LTP328	ltpFR2	15	2	PEPPER	1047	n/a	n/a	0	0	0
588.716	n/a	WORD	294358	wordpools/wasnorm_wordpool_576.txt	LTP328	ltpFR2	15	2	TEMPLE	1448	n/a	n/a	0	0	0
591.248	n/a	WORD	295624	wordpools/wasnorm_wordpool_576.txt	LTP328	ltpFR2	15	2	PASSAGE	1019	n/a	n/a	0	0	0
593.864	n/a	WORD	296932	wordpools/wasnorm_wordpool_576.txt	LTP328	ltpFR2	15	2	COLLEGE	346	n/a	n/a	0	0	0
596.646	n/a	WORD	298323	wordpools/wasnorm_wordpool_576.txt	LTP328	ltpFR2	15	2	EXPERT	543	n/a	n/a	0	0	0
599.212	n/a	WORD	299606	wordpools/wasnorm_wordpool_576.txt	LTP328	ltpFR2	15	2	BRICK	172	n/a	n/a	0	0	0
601.778	n/a	WORD	300889	wordpools/wasnorm_wordpool_576.txt	LTP328	ltpFR2	15	2	STONE	1385	n/a	n/a	0	0	0
604.242	n/a	WORD	302121	wordpools/wasnorm_wordpool_576.txt	LTP328	ltpFR2	15	2	KIDNEY	776	n/a	n/a	0	0	0
606.742	n/a	WORD	303371	wordpools/wasnorm_wordpool_576.txt	LTP328	ltpFR2	15	2	JUDGE	761	n/a	n/a	0	0	0
609.192	n/a	WORD	304596	wordpools/wasnorm_wordpool_576.txt	LTP328	ltpFR2	15	2	EGYPT	519	n/a	n/a	0	0	0
610.806	n/a	START	305403	n/a	LTP328	ltpFR2	15	n/a	n/a	n/a	2	n/a	n/a	n/a	n/a
611.838	n/a	DISTRACTOR	305919	n/a	LTP328	ltpFR2	15	2	n/a	n/a	n/a	n/a	0	0	0
611.856	n/a	PROB	305928	n/a	LTP328	ltpFR2	15	n/a	n/a	n/a	2	22	7	6	9
613.904	n/a	PROB	306952	n/a	LTP328	ltpFR2	15	n/a	n/a	n/a	2	11	2	5	3
615.238	n/a	PROB	307619	n/a	LTP328	ltpFR2	15	n/a	n/a	n/a	2	23	6	9	8
618.518	n/a	PROB	309259	n/a	LTP328	ltpFR2	15	n/a	n/a	n/a	2	14	3	3	8
620.284	n/a	PROB	310142	n/a	LTP328	ltpFR2	15	n/a	n/a	n/a	2	9	2	1	6
622.85	n/a	PROB	311425	n/a	LTP328	ltpFR2	15	n/a	n/a	n/a	2	21	7	7	7
625.082	n/a	PROB	312541	n/a	LTP328	ltpFR2	15	n/a	n/a	n/a	2	17	4	8	5
627.216	n/a	PROB	313608	n/a	LTP328	ltpFR2	15	n/a	n/a	n/a	2	6	2	3	1
628.498	n/a	PROB	314249	n/a	LTP328	ltpFR2	15	n/a	n/a	n/a	2	11	6	2	3
629.846	n/a	PROB	314923	n/a	LTP328	ltpFR2	15	n/a	n/a	n/a	2	17	7	4	6
631.446	n/a	PROB	315723	n/a	LTP328	ltpFR2	15	n/a	n/a	n/a	2	15	5	4	6
632.862	n/a	PROB	316431	n/a	LTP328	ltpFR2	15	n/a	n/a	n/a	2	19	3	9	7
634.306	n/a	STOP	317153	n/a	LTP328	ltpFR2	15	n/a	n/a	n/a	2	n/a	n/a	n/a	n/a
636.728	n/a	REC_START	318364	n/a	LTP328	ltpFR2	15	2	n/a	n/a	n/a	n/a	0	0	0
641.45	n/a	REC_WORD	320725	wordpools/wasnorm_wordpool_576.txt	LTP328	ltpFR2	15	2	TOMBSTONE	1478	n/a	n/a	0	0	0
642.306	n/a	REC_WORD	321153	wordpools/wasnorm_wordpool_576.txt	LTP328	ltpFR2	15	2	GRAVE	658	n/a	n/a	0	0	0
642.844	n/a	REC_WORD	321422	wordpools/wasnorm_wordpool_576.txt	LTP328	ltpFR2	15	2	CASKET	255	n/a	n/a	0	0	0
643.724	n/a	REC_WORD	321862	wordpools/wasnorm_wordpool_576.txt	LTP328	ltpFR2	15	2	PLATE	1086	n/a	n/a	0	0	0
644.182	n/a	REC_WORD	322091	wordpools/wasnorm_wordpool_576.txt	LTP328	ltpFR2	15	2	SODA	1341	n/a	n/a	0	0	0
645.134	n/a	REC_WORD	322567	wordpools/wasnorm_wordpool_576.txt	LTP328	ltpFR2	15	2	WIDOW	1608	n/a	n/a	0	0	0
646.316	n/a	REC_WORD	323158	wordpools/wasnorm_wordpool_576.txt	LTP328	ltpFR2	15	2	CREATURE	403	n/a	n/a	0	0	0
647.112	n/a	REC_WORD	323556	wordpools/wasnorm_wordpool_576.txt	LTP328	ltpFR2	15	2	DRINK	498	n/a	n/a	0	0	0
648.182	n/a	REC_WORD	324091	wordpools/wasnorm_wordpool_576.txt	LTP328	ltpFR2	15	2	FLEET	578	n/a	n/a	0	0	0
648.742	n/a	REC_WORD	324371	wordpools/wasnorm_wordpool_576.txt	LTP328	ltpFR2	15	2	WAGON	1578	n/a	n/a	0	0	0
652.21	n/a	REC_WORD	326105	wordpools/wasnorm_wordpool_576.txt	LTP328	ltpFR2	15	2	HORSE	719	n/a	n/a	0	0	0
653.056	n/a	REC_WORD	326528	wordpools/wasnorm_wordpool_576.txt	LTP328	ltpFR2	15	2	CABIN	211	n/a	n/a	0	0	0
656.438	n/a	REC_WORD	328219	wordpools/wasnorm_wordpool_576.txt	LTP328	ltpFR2	15	2	EXPERT	543	n/a	n/a	0	0	0
666.19	n/a	REC_WORD	333095	wordpools/wasnorm_wordpool_576.txt	LTP328	ltpFR2	15	2	BRICK	172	n/a	n/a	0	0	0
669.152	n/a	REC_WORD	334576	wordpools/wasnorm_wordpool_576.txt	LTP328	ltpFR2	15	2	DUSTPAN	509	n/a	n/a	0	0	0
670.738	n/a	REC_WORD	335369	wordpools/wasnorm_wordpool_576.txt	LTP328	ltpFR2	15	2	PEPPER	1047	n/a	n/a	0	0	0
671.512	n/a	REC_WORD	335756	wordpools/wasnorm_wordpool_576.txt	LTP328	ltpFR2	15	2	TEMPLE	1448	n/a	n/a	0	0	0
672.172	n/a	REC_WORD	336086	wordpools/wasnorm_wordpool_576.txt	LTP328	ltpFR2	15	2	PASSAGE	1019	n/a	n/a	0	0	0
673.0	n/a	REC_WORD	336500	wordpools/wasnorm_wordpool_576.txt	LTP328	ltpFR2	15	2	COLLEGE	346	n/a	n/a	0	0	0
727.384	n/a	DISTRACTOR	363692	n/a	LTP328	ltpFR2	15	3	n/a	n/a	n/a	n/a	0	0	0
727.384	n/a	START	363692	n/a	LTP328	ltpFR2	15	n/a	n/a	n/a	3	n/a	n/a	n/a	n/a
727.418	n/a	PROB	363709	n/a	LTP328	ltpFR2	15	n/a	n/a	n/a	3	11	7	1	3
728.834	n/a	PROB	364417	n/a	LTP328	ltpFR2	15	n/a	n/a	n/a	3	10	4	3	3
730.6	n/a	PROB	365300	n/a	LTP328	ltpFR2	15	n/a	n/a	n/a	3	10	7	1	2
731.982	n/a	PROB	365991	n/a	LTP328	ltpFR2	15	n/a	n/a	n/a	3	14	4	8	2
733.264	n/a	PROB	366632	n/a	LTP328	ltpFR2	15	n/a	n/a	n/a	3	4	1	2	1
734.38	n/a	PROB	367190	n/a	LTP328	ltpFR2	15	n/a	n/a	n/a	3	7	4	2	1
735.63	n/a	PROB	367815	n/a	LTP328	ltpFR2	15	n/a	n/a	n/a	3	20	7	8	5
737.546	n/a	PROB	368773	n/a	LTP328	ltpFR2	15	n/a	n/a	n/a	3	15	6	5	4
739.096	n/a	PROB	369548	n/a	LTP328	ltpFR2	15	n/a	n/a	n/a	3	7	4	1	2
740.328	n/a	PROB	370164	n/a	LTP328	ltpFR2	15	n/a	n/a	n/a	3	13	3	7	3
741.46	n/a	PROB	370730	n/a	LTP328	ltpFR2	15	n/a	n/a	n/a	3	23	8	6	9
742.894	n/a	PROB	371447	n/a	LTP328	ltpFR2	15	n/a	n/a	n/a	3	11	7	2	2
744.144	n/a	PROB	372072	n/a	LTP328	ltpFR2	15	n/a	n/a	n/a	3	14	3	4	7
745.726	n/a	PROB	372863	n/a	LTP328	ltpFR2	15	n/a	n/a	n/a	3	25	9	7	9
747.69	n/a	PROB	373845	n/a	LTP328	ltpFR2	15	n/a	n/a	n/a	3	6	2	3	1
748.99	n/a	PROB	374495	n/a	LTP328	ltpFR2	15	n/a	n/a	n/a	3	21	8	7	6
750.316	n/a	STOP	375158	n/a	LTP328	ltpFR2	15	n/a	n/a	n/a	3	n/a	n/a	n/a	n/a
752.238	n/a	WORD	376119	wordpools/wasnorm_wordpool_576.txt	LTP328	ltpFR2	15	3	BRAKE	166	n/a	n/a	0	0	0
754.954	n/a	WORD	377477	wordpools/wasnorm_wordpool_576.txt	LTP328	ltpFR2	15	3	TRACTOR	1493	n/a	n/a	0	0	0
757.52	n/a	WORD	378760	wordpools/wasnorm_wordpool_576.txt	LTP328	ltpFR2	15	3	SCALLOP	1242	n/a	n/a	0	0	0
760.352	n/a	WORD	380176	wordpools/wasnorm_wordpool_576.txt	LTP328	ltpFR2	15	3	VELVET	1555	n/a	n/a	0	0	0
763.05	n/a	WORD	381525	wordpools/wasnorm_wordpool_576.txt	LTP328	ltpFR2	15	3	BACON	67	n/a	n/a	0	0	0
765.532	n/a	WORD	382766	wordpools/wasnorm_wordpool_576.txt	LTP328	ltpFR2	15	3	SAUSAGE	1238	n/a	n/a	0	0	0
768.066	n/a	WORD	384033	wordpools/wasnorm_wordpool_576.txt	LTP328	ltpFR2	15	3	PILOT	1070	n/a	n/a	0	0	0
770.68	n/a	WORD	385340	wordpools/wasnorm_wordpool_576.txt	LTP328	ltpFR2	15	3	ROCKET	1202	n/a	n/a	0	0	0
773.246	n/a	WORD	386623	wordpools/wasnorm_wordpool_576.txt	LTP328	ltpFR2	15	3	MARINE	869	n/a	n/a	0	0	0
775.694	n/a	WORD	387847	wordpools/wasnorm_wordpool_576.txt	LTP328	ltpFR2	15	3	RAFT	1159	n/a	n/a	0	0	0
778.444	n/a	WORD	389222	wordpools/wasnorm_wordpool_576.txt	LTP328	ltpFR2	15	3	PIGMENT	1066	n/a	n/a	0	0	0
780.958	n/a	WORD	390479	wordpools/wasnorm_wordpool_576.txt	LTP328	ltpFR2	15	3	POCKET	1093	n/a	n/a	0	0	0
783.49	n/a	WORD	391745	wordpools/wasnorm_wordpool_576.txt	LTP328	ltpFR2	15	3	PLASTER	1085	n/a	n/a	0	0	0
786.34	n/a	WORD	393170	wordpools/wasnorm_wordpool_576.txt	LTP328	ltpFR2	15	3	RIFLE	1192	n/a	n/a	0	0	0
788.804	n/a	WORD	394402	wordpools/wasnorm_wordpool_576.txt	LTP328	ltpFR2	15	3	BULLET	194	n/a	n/a	0	0	0
791.604	n/a	WORD	395802	wordpools/wasnorm_wordpool_576.txt	LTP328	ltpFR2	15	3	COTTAGE	384	n/a	n/a	0	0	0
794.268	n/a	WORD	397134	wordpools/wasnorm_wordpool_576.txt	LTP328	ltpFR2	15	3	ASIA	46	n/a	n/a	0	0	0
797.084	n/a	WORD	398542	wordpools/wasnorm_wordpool_576.txt	LTP328	ltpFR2	15	3	STICKER	1382	n/a	n/a	0	0	0
799.832	n/a	WORD	399916	wordpools/wasnorm_wordpool_576.txt	LTP328	ltpFR2	15	3	YACHT	1629	n/a	n/a	0	0	0
802.514	n/a	WORD	401257	wordpools/wasnorm_wordpool_576.txt	LTP328	ltpFR2	15	3	EUROPE	541	n/a	n/a	0	0	0
804.996	n/a	WORD	402498	wordpools/wasnorm_wordpool_576.txt	LTP328	ltpFR2	15	3	CANYON	235	n/a	n/a	0	0	0
807.528	n/a	WORD	403764	wordpools/wasnorm_wordpool_576.txt	LTP328	ltpFR2	15	3	BUBBLE	183	n/a	n/a	0	0	0
810.196	n/a	WORD	405098	wordpools/wasnorm_wordpool_576.txt	LTP328	ltpFR2	15	3	SALMON	1227	n/a	n/a	0	0	0
812.978	n/a	WORD	406489	wordpools/wasnorm_wordpool_576.txt	LTP328	ltpFR2	15	3	CREVICE	405	n/a	n/a	0	0	0
814.594	n/a	START	407297	n/a	LTP328	ltpFR2	15	n/a	n/a	n/a	4	n/a	n/a	n/a	n/a
815.67	n/a	DISTRACTOR	407835	n/a	LTP328	ltpFR2	15	3	n/a	n/a	n/a	n/a	0	0	0
815.692	n/a	PROB	407846	n/a	LTP328	ltpFR2	15	n/a	n/a	n/a	4	18	5	7	6
818.608	n/a	PROB	409304	n/a	LTP328	ltpFR2	15	n/a	n/a	n/a	4	18	4	7	7
820.406	n/a	PROB	410203	n/a	LTP328	ltpFR2	15	n/a	n/a	n/a	4	13	5	5	3
821.522	n/a	PROB	410761	n/a	LTP328	ltpFR2	15	n/a	n/a	n/a	4	26	8	9	9
823.482	n/a	PROB	411741	n/a	LTP328	ltpFR2	15	n/a	n/a	n/a	4	16	4	9	3
825.172	n/a	PROB	412586	n/a	LTP328	ltpFR2	15	n/a	n/a	n/a	4	12	4	4	4
826.568	n/a	PROB	413284	n/a	LTP328	ltpFR2	15	n/a	n/a	n/a	4	12	2	7	3
827.936	n/a	PROB	413968	n/a	LTP328	ltpFR2	15	n/a	n/a	n/a	4	16	4	3	9
829.402	n/a	PROB	414701	n/a	LTP328	ltpFR2	15	n/a	n/a	n/a	4	17	8	1	8
830.734	n/a	PROB	415367	n/a	LTP328	ltpFR2	15	n/a	n/a	n/a	4	16	9	2	5
832.318	n/a	PROB	416159	n/a	LTP328	ltpFR2	15	n/a	n/a	n/a	4	10	5	4	1
833.734	n/a	PROB	416867	n/a	LTP328	ltpFR2	15	n/a	n/a	n/a	4	8	3	2	3
835.45	n/a	PROB	417725	n/a	LTP328	ltpFR2	15	n/a	n/a	n/a	4	14	5	6	3
836.866	n/a	PROB	418433	n/a	LTP328	ltpFR2	15	n/a	n/a	n/a	4	7	3	1	3
838.438	n/a	STOP	419219	n/a	LTP328	ltpFR2	15	n/a	n/a	n/a	4	n/a	n/a	n/a	n/a
840.406	n/a	REC_START	420203	n/a	LTP328	ltpFR2	15	3	n/a	n/a	n/a	n/a	0	0	0
844.17	n/a	REC_WORD	422085	wordpools/wasnorm_wordpool_576.txt	LTP328	ltpFR2	15	3	BRAKE	166	n/a	n/a	0	0	0
844.644	n/a	REC_WORD	422322	wordpools/wasnorm_wordpool_576.txt	LTP328	ltpFR2	15	3	TRACTOR	1493	n/a	n/a	0	0	0
846.406	n/a	REC_WORD	423203	wordpools/wasnorm_wordpool_576.txt	LTP328	ltpFR2	15	3	SCALLOP	1242	n/a	n/a	0	0	0
847.138	n/a	REC_WORD	423569	wordpools/wasnorm_wordpool_576.txt	LTP328	ltpFR2	15	3	VELVET	1555	n/a	n/a	0	0	0
848.406	n/a	REC_WORD	424203	wordpools/wasnorm_wordpool_576.txt	LTP328	ltpFR2	15	3	BACON	67	n/a	n/a	0	0	0
849.01	n/a	REC_WORD	424505	wordpools/wasnorm_wordpool_576.txt	LTP328	ltpFR2	15	3	SAUSAGE	1238	n/a	n/a	0	0	0
851.132	n/a	REC_WORD	425566	wordpools/wasnorm_wordpool_576.txt	LTP328	ltpFR2	15	3	PILOT	1070	n/a	n/a	0	0	0
851.794	n/a	REC_WORD	425897	wordpools/wasnorm_wordpool_576.txt	LTP328	ltpFR2	15	3	ROCKET	1202	n/a	n/a	0	0	0
853.614	n/a	REC_WORD	426807	wordpools/wasnorm_wordpool_576.txt	LTP328	ltpFR2	15	3	MARINE	869	n/a	n/a	0	0	0
854.738	n/a	REC_WORD	427369	wordpools/wasnorm_wordpool_576.txt	LTP328	ltpFR2	15	3	RAFT	1159	n/a	n/a	0	0	0
855.32	n/a	REC_WORD	427660	wordpools/wasnorm_wordpool_576.txt	LTP328	ltpFR2	15	3	PIGMENT	1066	n/a	n/a	0	0	0
855.886	n/a	REC_WORD	427943	wordpools/wasnorm_wordpool_576.txt	LTP328	ltpFR2	15	3	POCKET	1093	n/a	n/a	0	0	0
862.184	n/a	REC_WORD	431092	wordpools/wasnorm_wordpool_576.txt	LTP328	ltpFR2	15	3	BULLET	194	n/a	n/a	0	0	0
862.644	n/a	REC_WORD	431322	wordpools/wasnorm_wordpool_576.txt	LTP328	ltpFR2	15	3	RIFLE	1192	n/a	n/a	0	0	0
863.408	n/a	REC_WORD	431704	wordpools/wasnorm_wordpool_576.txt	LTP328	ltpFR2	15	3	COTTAGE	384	n/a	n/a	0	0	0
864.138	n/a	REC_WORD	432069	wordpools/wasnorm_wordpool_576.txt	LTP328	ltpFR2	15	3	ASIA	46	n/a	n/a	0	0	0
864.83	n/a	REC_WORD	432415	wordpools/wasnorm_wordpool_576.txt	LTP328	ltpFR2	15	3	YACHT	1629	n/a	n/a	0	0	0
865.912	n/a	REC_WORD	432956	wordpools/wasnorm_wordpool_576.txt	LTP328	ltpFR2	15	3	EUROPE	541	n/a	n/a	0	0	0
866.464	n/a	REC_WORD	433232	wordpools/wasnorm_wordpool_576.txt	LTP328	ltpFR2	15	3	STICKER	1382	n/a	n/a	0	0	0
867.614	n/a	REC_WORD	433807	wordpools/wasnorm_wordpool_576.txt	LTP328	ltpFR2	15	3	CREVICE	405	n/a	n/a	0	0	0
868.382	n/a	REC_WORD	434191	wordpools/wasnorm_wordpool_576.txt	LTP328	ltpFR2	15	3	BUBBLE	183	n/a	n/a	0	0	0
869.366	n/a	REC_WORD	434683	wordpools/wasnorm_wordpool_576.txt	LTP328	ltpFR2	15	3	SALMON	1227	n/a	n/a	0	0	0
931.054	n/a	DISTRACTOR	465527	n/a	LTP328	ltpFR2	15	4	n/a	n/a	n/a	n/a	0	0	0
931.054	n/a	START	465527	n/a	LTP328	ltpFR2	15	n/a	n/a	n/a	5	n/a	n/a	n/a	n/a
931.104	n/a	PROB	465552	n/a	LTP328	ltpFR2	15	n/a	n/a	n/a	5	16	4	3	9
932.786	n/a	PROB	466393	n/a	LTP328	ltpFR2	15	n/a	n/a	n/a	5	17	7	2	8
934.418	n/a	PROB	467209	n/a	LTP328	ltpFR2	15	n/a	n/a	n/a	5	12	3	5	4
935.768	n/a	PROB	467884	n/a	LTP328	ltpFR2	15	n/a	n/a	n/a	5	15	7	5	3
937.6	n/a	PROB	468800	n/a	LTP328	ltpFR2	15	n/a	n/a	n/a	5	12	4	4	4
938.784	n/a	PROB	469392	n/a	LTP328	ltpFR2	15	n/a	n/a	n/a	5	16	7	2	7
940.332	n/a	PROB	470166	n/a	LTP328	ltpFR2	15	n/a	n/a	n/a	5	10	5	1	4
941.432	n/a	PROB	470716	n/a	LTP328	ltpFR2	15	n/a	n/a	n/a	5	10	2	5	3
943.598	n/a	PROB	471799	n/a	LTP328	ltpFR2	15	n/a	n/a	n/a	5	15	5	5	5
944.632	n/a	PROB	472316	n/a	LTP328	ltpFR2	15	n/a	n/a	n/a	5	19	6	8	5
946.08	n/a	PROB	473040	n/a	LTP328	ltpFR2	15	n/a	n/a	n/a	5	23	9	9	5
947.73	n/a	PROB	473865	n/a	LTP328	ltpFR2	15	n/a	n/a	n/a	5	20	4	8	8
950.028	n/a	PROB	475014	n/a	LTP328	ltpFR2	15	n/a	n/a	n/a	5	10	2	4	4
951.562	n/a	PROB	475781	n/a	LTP328	ltpFR2	15	n/a	n/a	n/a	5	21	7	5	9
955.054	n/a	STOP	477527	n/a	LTP328	ltpFR2	15	n/a	n/a	n/a	5	n/a	n/a	n/a	n/a
956.292	n/a	WORD	478146	wordpools/wasnorm_wordpool_576.txt	LTP328	ltpFR2	15	4	BELLY	119	n/a	n/a	0	0	0
958.94	n/a	WORD	479470	wordpools/wasnorm_wordpool_576.txt	LTP328	ltpFR2	15	4	TWEEZERS	1526	n/a	n/a	0	0	0
961.522	n/a	WORD	480761	wordpools/wasnorm_wordpool_576.txt	LTP328	ltpFR2	15	4	SLUG	1329	n/a	n/a	0	0	0
963.956	n/a	WORD	481978	wordpools/wasnorm_wordpool_576.txt	LTP328	ltpFR2	15	4	PENGUIN	1044	n/a	n/a	0	0	0
966.62	n/a	WORD	483310	wordpools/wasnorm_wordpool_576.txt	LTP328	ltpFR2	15	4	TOASTER	1472	n/a	n/a	0	0	0
969.186	n/a	WORD	484593	wordpools/wasnorm_wordpool_576.txt	LTP328	ltpFR2	15	4	DANDRUFF	439	n/a	n/a	0	0	0
971.768	n/a	WORD	485884	wordpools/wasnorm_wordpool_576.txt	LTP328	ltpFR2	15	4	VIRUS	1572	n/a	n/a	0	0	0
974.516	n/a	WORD	487258	wordpools/wasnorm_wordpool_576.txt	LTP328	ltpFR2	15	4	ICEBERG	731	n/a	n/a	0	0	0
976.982	n/a	WORD	488491	wordpools/wasnorm_wordpool_576.txt	LTP328	ltpFR2	15	4	NOTEBOOK	959	n/a	n/a	0	0	0
979.614	n/a	WORD	489807	wordpools/wasnorm_wordpool_576.txt	LTP328	ltpFR2	15	4	REPORT	1184	n/a	n/a	0	0	0
982.28	n/a	WORD	491140	wordpools/wasnorm_wordpool_576.txt	LTP328	ltpFR2	15	4	BANQUET	86	n/a	n/a	0	0	0
984.778	n/a	WORD	492389	wordpools/wasnorm_wordpool_576.txt	LTP328	ltpFR2	15	4	COOK	372	n/a	n/a	0	0	0
987.294	n/a	WORD	493647	wordpools/wasnorm_wordpool_576.txt	LTP328	ltpFR2	15	4	BURGLAR	200	n/a	n/a	0	0	0
989.826	n/a	WORD	494913	wordpools/wasnorm_wordpool_576.txt	LTP328	ltpFR2	15	4	HOOD	714	n/a	n/a	0	0	0
992.276	n/a	WORD	496138	wordpools/wasnorm_wordpool_576.txt	LTP328	ltpFR2	15	4	MONSTER	912	n/a	n/a	0	0	0
994.924	n/a	WORD	497462	wordpools/wasnorm_wordpool_576.txt	LTP328	ltpFR2	15	4	BEAST	108	n/a	n/a	0	0	0
997.606	n/a	WORD	498803	wordpools/wasnorm_wordpool_576.txt	LTP328	ltpFR2	15	4	SHOVEL	1295	n/a	n/a	0	0	0
1000.222	n/a	WORD	500111	wordpools/wasnorm_wordpool_576.txt	LTP328	ltpFR2	15	4	CRAB	397	n/a	n/a	0	0	0
1002.954	n/a	WORD	501477	wordpools/wasnorm_wordpool_576.txt	LTP328	ltpFR2	15	4	PLAYGROUND	1087	n/a	n/a	0	0	0
1005.418	n/a	WORD	502709	wordpools/wasnorm_wordpool_576.txt	LTP328	ltpFR2	15	4	HUSBAND	728	n/a	n/a	0	0	0
1008.234	n/a	WORD	504117	wordpools/wasnorm_wordpool_576.txt	LTP328	ltpFR2	15	4	DIME	466	n/a	n/a	0	0	0
1010.882	n/a	WORD	505441	wordpools/wasnorm_wordpool_576.txt	LTP328	ltpFR2	15	4	STOMACH	1384	n/a	n/a	0	0	0
1013.698	n/a	WORD	506849	wordpools/wasnorm_wordpool_576.txt	LTP328	ltpFR2	15	4	BOYFRIEND	162	n/a	n/a	0	0	0
1016.182	n/a	WORD	508091	wordpools/wasnorm_wordpool_576.txt	LTP328	ltpFR2	15	4	MEAT	883	n/a	n/a	0	0	0
1017.812	n/a	START	508906	n/a	LTP328	ltpFR2	15	n/a	n/a	n/a	6	n/a	n/a	n/a	n/a
1018.822	n/a	DISTRACTOR	509411	n/a	LTP328	ltpFR2	15	4	n/a	n/a	n/a	n/a	0	0	0
1018.846	n/a	PROB	509423	n/a	LTP328	ltpFR2	15	n/a	n/a	n/a	6	18	2	8	8
1021.044	n/a	PROB	510522	n/a	LTP328	ltpFR2	15	n/a	n/a	n/a	6	23	7	9	6
1023.71	n/a	PROB	511855	n/a	LTP328	ltpFR2	15	n/a	n/a	n/a	6	10	1	1	8
1024.792	n/a	PROB	512396	n/a	LTP328	ltpFR2	15	n/a	n/a	n/a	6	13	3	6	4
1026.026	n/a	PROB	513013	n/a	LTP328	ltpFR2	15	n/a	n/a	n/a	6	19	3	7	9
1027.308	n/a	PROB	513654	n/a	LTP328	ltpFR2	15	n/a	n/a	n/a	6	11	2	7	4
1028.808	n/a	PROB	514404	n/a	LTP328	ltpFR2	15	n/a	n/a	n/a	6	12	4	6	2
1030.674	n/a	PROB	515337	n/a	LTP328	ltpFR2	15	n/a	n/a	n/a	6	20	8	3	9
1031.94	n/a	PROB	515970	n/a	LTP328	ltpFR2	15	n/a	n/a	n/a	6	9	4	3	2
1033.406	n/a	PROB	516703	n/a	LTP328	ltpFR2	15	n/a	n/a	n/a	6	7	2	3	2
1035.472	n/a	PROB	517736	n/a	LTP328	ltpFR2	15	n/a	n/a	n/a	6	14	1	8	5
1036.838	n/a	PROB	518419	n/a	LTP328	ltpFR2	15	n/a	n/a	n/a	6	21	7	5	9
1038.47	n/a	PROB	519235	n/a	LTP328	ltpFR2	15	n/a	n/a	n/a	6	20	4	8	8
1040.484	n/a	STOP	520242	n/a	LTP328	ltpFR2	15	n/a	n/a	n/a	6	n/a	n/a	n/a	n/a
1043.802	n/a	REC_START	521901	n/a	LTP328	ltpFR2	15	4	n/a	n/a	n/a	n/a	0	0	0
1045.2	n/a	REC_WORD	522600	wordpools/wasnorm_wordpool_576.txt	LTP328	ltpFR2	15	4	TWEEZERS	1526	n/a	n/a	0	0	0
1046.022	n/a	REC_WORD	523011	wordpools/wasnorm_wordpool_576.txt	LTP328	ltpFR2	15	4	BELLY	119	n/a	n/a	0	0	0
1047.196	n/a	REC_WORD	523598	wordpools/wasnorm_wordpool_576.txt	LTP328	ltpFR2	15	4	SLUG	1329	n/a	n/a	0	0	0
1048.06	n/a	REC_WORD	524030	wordpools/wasnorm_wordpool_576.txt	LTP328	ltpFR2	15	4	PENGUIN	1044	n/a	n/a	0	0	0
1049.586	n/a	REC_WORD	524793	wordpools/wasnorm_wordpool_576.txt	LTP328	ltpFR2	15	4	DANDRUFF	439	n/a	n/a	0	0	0
1050.498	n/a	REC_WORD	525249	wordpools/wasnorm_wordpool_576.txt	LTP328	ltpFR2	15	4	TOASTER	1472	n/a	n/a	0	0	0
1051.972	n/a	REC_WORD	525986	wordpools/wasnorm_wordpool_576.txt	LTP328	ltpFR2	15	4	VIRUS	1572	n/a	n/a	0	0	0
1052.854	n/a	REC_WORD	526427	wordpools/wasnorm_wordpool_576.txt	LTP328	ltpFR2	15	4	ICEBERG	731	n/a	n/a	0	0	0
1053.744	n/a	REC_WORD	526872	wordpools/wasnorm_wordpool_576.txt	LTP328	ltpFR2	15	4	NOTEBOOK	959	n/a	n/a	0	0	0
1054.504	n/a	REC_WORD	527252	wordpools/wasnorm_wordpool_576.txt	LTP328	ltpFR2	15	4	JOURNAL	760	n/a	n/a	0	0	0
1055.816	n/a	REC_WORD	527908	wordpools/wasnorm_wordpool_576.txt	LTP328	ltpFR2	15	4	REPORT	1184	n/a	n/a	0	0	0
1057.228	n/a	REC_WORD	528614	wordpools/wasnorm_wordpool_576.txt	LTP328	ltpFR2	15	4	BANQUET	86	n/a	n/a	0	0	0
1058.894	n/a	REC_WORD	529447	wordpools/wasnorm_wordpool_576.txt	LTP328	ltpFR2	15	4	COOK	372	n/a	n/a	0	0	0
1060.662	n/a	REC_WORD	530331	wordpools/wasnorm_wordpool_576.txt	LTP328	ltpFR2	15	4	BEAST	108	n/a	n/a	0	0	0
1061.204	n/a	REC_WORD	530602	wordpools/wasnorm_wordpool_576.txt	LTP328	ltpFR2	15	4	MONSTER	912	n/a	n/a	0	0	0
1062.868	n/a	REC_WORD	531434	wordpools/wasnorm_wordpool_576.txt	LTP328	ltpFR2	15	4	SHOVEL	1295	n/a	n/a	0	0	0
1064.748	n/a	REC_WORD	532374	wordpools/wasnorm_wordpool_576.txt	LTP328	ltpFR2	15	4	HUSBAND	728	n/a	n/a	0	0	0
1065.406	n/a	REC_WORD	532703	wordpools/wasnorm_wordpool_576.txt	LTP328	ltpFR2	15	4	PLAYGROUND	1087	n/a	n/a	0	0	0
1068.308	n/a	REC_WORD	534154	wordpools/wasnorm_wordpool_576.txt	LTP328	ltpFR2	15	4	STOMACH	1384	n/a	n/a	0	0	0
1070.488	n/a	REC_WORD_VV	535244	wordpools/wasnorm_wordpool_576.txt	LTP328	ltpFR2	15	4	<>	-1	n/a	n/a	0	0	0
1071.646	n/a	REC_WORD	535823	wordpools/wasnorm_wordpool_576.txt	LTP328	ltpFR2	15	4	BOYFRIEND	162	n/a	n/a	0	0	0
1072.5	n/a	REC_WORD	536250	wordpools/wasnorm_wordpool_576.txt	LTP328	ltpFR2	15	4	MEAT	883	n/a	n/a	0	0	0
1079.492	n/a	REC_WORD	539746	wordpools/wasnorm_wordpool_576.txt	LTP328	ltpFR2	15	4	CRAB	397	n/a	n/a	0	0	0
1085.012	n/a	REC_WORD	542506	wordpools/wasnorm_wordpool_576.txt	LTP328	ltpFR2	15	4	DIME	466	n/a	n/a	0	0	0
1134.508	n/a	WORD	567254	wordpools/wasnorm_wordpool_576.txt	LTP328	ltpFR2	15	5	TRENCH	1503	n/a	n/a	0	0	0
1137.306	n/a	WORD	568653	wordpools/wasnorm_wordpool_576.txt	LTP328	ltpFR2	15	5	RECEIPT	1173	n/a	n/a	0	0	0
1139.904	n/a	WORD	569952	wordpools/wasnorm_wordpool_576.txt	LTP328	ltpFR2	15	5	CHEMIST	292	n/a	n/a	0	0	0
1142.37	n/a	WORD	571185	wordpools/wasnorm_wordpool_576.txt	LTP328	ltpFR2	15	5	TRUCK	1512	n/a	n/a	0	0	0
1145.036	n/a	WORD	572518	wordpools/wasnorm_wordpool_576.txt	LTP328	ltpFR2	15	5	OUTLAW	989	n/a	n/a	0	0	0
1147.668	n/a	WORD	573834	wordpools/wasnorm_wordpool_576.txt	LTP328	ltpFR2	15	5	BADGE	68	n/a	n/a	0	0	0
1150.45	n/a	WORD	575225	wordpools/wasnorm_wordpool_576.txt	LTP328	ltpFR2	15	5	DASHBOARD	441	n/a	n/a	0	0	0
1153.066	n/a	WORD	576533	wordpools/wasnorm_wordpool_576.txt	LTP328	ltpFR2	15	5	DOUGHNUT	490	n/a	n/a	0	0	0
1155.78	n/a	WORD	577890	wordpools/wasnorm_wordpool_576.txt	LTP328	ltpFR2	15	5	CLIMBER	323	n/a	n/a	0	0	0
1158.312	n/a	WORD	579156	wordpools/wasnorm_wordpool_576.txt	LTP328	ltpFR2	15	5	SUMMIT	1405	n/a	n/a	0	0	0
1160.912	n/a	WORD	580456	wordpools/wasnorm_wordpool_576.txt	LTP328	ltpFR2	15	5	PADDLE	1000	n/a	n/a	0	0	0
1163.51	n/a	WORD	581755	wordpools/wasnorm_wordpool_576.txt	LTP328	ltpFR2	15	5	BINDER	127	n/a	n/a	0	0	0
1166.228	n/a	WORD	583114	wordpools/wasnorm_wordpool_576.txt	LTP328	ltpFR2	15	5	ZEBRA	1635	n/a	n/a	0	0	0
1169.058	n/a	WORD	584529	wordpools/wasnorm_wordpool_576.txt	LTP328	ltpFR2	15	5	SADDLE	1221	n/a	n/a	0	0	0
1171.524	n/a	WORD	585762	wordpools/wasnorm_wordpool_576.txt	LTP328	ltpFR2	15	5	FRECKLE	602	n/a	n/a	0	0	0
1174.122	n/a	WORD	587061	wordpools/wasnorm_wordpool_576.txt	LTP328	ltpFR2	15	5	PECAN	1036	n/a	n/a	0	0	0
1176.804	n/a	WORD	588402	wordpools/wasnorm_wordpool_576.txt	LTP328	ltpFR2	15	5	FLASK	576	n/a	n/a	0	0	0
1179.32	n/a	WORD	589660	wordpools/wasnorm_wordpool_576.txt	LTP328	ltpFR2	15	5	FLIPPER	580	n/a	n/a	0	0	0
1182.118	n/a	WORD	591059	wordpools/wasnorm_wordpool_576.txt	LTP328	ltpFR2	15	5	HANDBAG	684	n/a	n/a	0	0	0
1184.6	n/a	WORD	592300	wordpools/wasnorm_wordpool_576.txt	LTP328	ltpFR2	15	5	SWITCH	1422	n/a	n/a	0	0	0
1187.366	n/a	WORD	593683	wordpools/wasnorm_wordpool_576.txt	LTP328	ltpFR2	15	5	PASTA	1021	n/a	n/a	0	0	0
1190.166	n/a	WORD	595083	wordpools/wasnorm_wordpool_576.txt	LTP328	ltpFR2	15	5	KLEENEX	782	n/a	n/a	0	0	0
1192.98	n/a	WORD	596490	wordpools/wasnorm_wordpool_576.txt	LTP328	ltpFR2	15	5	LOFT	840	n/a	n/a	0	0	0
1195.728	n/a	WORD	597864	wordpools/wasnorm_wordpool_576.txt	LTP328	ltpFR2	15	5	CONTRACT	368	n/a	n/a	0	0	0
1197.344	n/a	START	598672	n/a	LTP328	ltpFR2	15	n/a	n/a	n/a	7	n/a	n/a	n/a	n/a
1198.186	n/a	DISTRACTOR	599093	n/a	LTP328	ltpFR2	15	5	n/a	n/a	n/a	n/a	0	0	0
1198.212	n/a	PROB	599106	n/a	LTP328	ltpFR2	15	n/a	n/a	n/a	7	17	4	7	6
1200.742	n/a	PROB	600371	n/a	LTP328	ltpFR2	15	n/a	n/a	n/a	7	11	2	4	5
1202.092	n/a	PROB	601046	n/a	LTP328	ltpFR2	15	n/a	n/a	n/a	7	12	1	8	3
1203.208	n/a	PROB	601604	n/a	LTP328	ltpFR2	15	n/a	n/a	n/a	7	17	8	6	3
1204.758	n/a	PROB	602379	n/a	LTP328	ltpFR2	15	n/a	n/a	n/a	7	21	9	7	5
1206.858	n/a	PROB	603429	n/a	LTP328	ltpFR2	15	n/a	n/a	n/a	7	18	7	7	4
1208.922	n/a	PROB	604461	n/a	LTP328	ltpFR2	15	n/a	n/a	n/a	7	17	8	7	2
1210.806	n/a	PROB	605403	n/a	LTP328	ltpFR2	15	n/a	n/a	n/a	7	12	3	6	3
1212.188	n/a	PROB	606094	n/a	LTP328	ltpFR2	15	n/a	n/a	n/a	7	16	6	6	4
1213.72	n/a	PROB	606860	n/a	LTP328	ltpFR2	15	n/a	n/a	n/a	7	16	3	4	9
1215.07	n/a	PROB	607535	n/a	LTP328	ltpFR2	15	n/a	n/a	n/a	7	7	1	2	4
1216.352	n/a	PROB	608176	n/a	LTP328	ltpFR2	15	n/a	n/a	n/a	7	19	7	3	9
1217.536	n/a	PROB	608768	n/a	LTP328	ltpFR2	15	n/a	n/a	n/a	7	18	4	7	7
1219.728	n/a	STOP	609864	n/a	LTP328	ltpFR2	15	n/a	n/a	n/a	7	n/a	n/a	n/a	n/a
1223.198	n/a	REC_START	611599	n/a	LTP328	ltpFR2	15	5	n/a	n/a	n/a	n/a	0	0	0
1228.858	n/a	REC_WORD	614429	wordpools/wasnorm_wordpool_576.txt	LTP328	ltpFR2	15	5	CREVICE	405	n/a	n/a	0	0	0
1229.78	n/a	REC_WORD	614890	wordpools/wasnorm_wordpool_576.txt	LTP328	ltpFR2	15	5	RECEIPT	1173	n/a	n/a	0	0	0
1230.524	n/a	REC_WORD	615262	wordpools/wasnorm_wordpool_576.txt	LTP328	ltpFR2	15	5	TRUCK	1512	n/a	n/a	0	0	0
1231.892	n/a	REC_WORD	615946	wordpools/wasnorm_wordpool_576.txt	LTP328	ltpFR2	15	5	CHEMIST	292	n/a	n/a	0	0	0
1237.252	n/a	REC_WORD	618626	wordpools/wasnorm_wordpool_576.txt	LTP328	ltpFR2	15	5	HOOD	714	n/a	n/a	0	0	0
1238.084	n/a	REC_WORD_VV	619042	wordpools/wasnorm_wordpool_576.txt	LTP328	ltpFR2	15	5	<>	-1	n/a	n/a	0	0	0
1240.628	n/a	REC_WORD	620314	wordpools/wasnorm_wordpool_576.txt	LTP328	ltpFR2	15	5	BADGE	68	n/a	n/a	0	0	0
1242.206	n/a	REC_WORD	621103	wordpools/wasnorm_wordpool_576.txt	LTP328	ltpFR2	15	5	DASHBOARD	441	n/a	n/a	0	0	0
1243.062	n/a	REC_WORD	621531	wordpools/wasnorm_wordpool_576.txt	LTP328	ltpFR2	15	5	DOUGHNUT	490	n/a	n/a	0	0	0
1245.442	n/a	REC_WORD	622721	wordpools/wasnorm_wordpool_576.txt	LTP328	ltpFR2	15	5	OUTLAW	989	n/a	n/a	0	0	0
1250.292	n/a	REC_WORD	625146	wordpools/wasnorm_wordpool_576.txt	LTP328	ltpFR2	15	5	BINDER	127	n/a	n/a	0	0	0
1250.954	n/a	REC_WORD	625477	wordpools/wasnorm_wordpool_576.txt	LTP328	ltpFR2	15	5	ZEBRA	1635	n/a	n/a	0	0	0
1251.546	n/a	REC_WORD	625773	wordpools/wasnorm_wordpool_576.txt	LTP328	ltpFR2	15	5	SADDLE	1221	n/a	n/a	0	0	0
1252.272	n/a	REC_WORD	626136	wordpools/wasnorm_wordpool_576.txt	LTP328	ltpFR2	15	5	FLASK	576	n/a	n/a	0	0	0
1253.07	n/a	REC_WORD	626535	wordpools/wasnorm_wordpool_576.txt	LTP328	ltpFR2	15	5	PECAN	1036	n/a	n/a	0	0	0
1277.954	n/a	REC_WORD	638977	wordpools/wasnorm_wordpool_576.txt	LTP328	ltpFR2	15	5	CONTRACT	368	n/a	n/a	0	0	0
1279.74	n/a	REC_WORD	639870	wordpools/wasnorm_wordpool_576.txt	LTP328	ltpFR2	15	5	PASTA	1021	n/a	n/a	0	0	0
1280.918	n/a	REC_WORD	640459	wordpools/wasnorm_wordpool_576.txt	LTP328	ltpFR2	15	5	SWITCH	1422	n/a	n/a	0	0	0
1282.494	n/a	REC_WORD	641247	wordpools/wasnorm_wordpool_576.txt	LTP328	ltpFR2	15	5	KLEENEX	782	n/a	n/a	0	0	0
1283.296	n/a	REC_WORD	641648	wordpools/wasnorm_wordpool_576.txt	LTP328	ltpFR2	15	5	LOFT	840	n/a	n/a	0	0	0
1313.872	n/a	WORD	656936	wordpools/wasnorm_wordpool_576.txt	LTP328	ltpFR2	15	6	SUNRISE	1407	n/a	n/a	0	0	0
1316.522	n/a	WORD	658261	wordpools/wasnorm_wordpool_576.txt	LTP328	ltpFR2	15	6	COBRA	336	n/a	n/a	0	0	0
1319.086	n/a	WORD	659543	wordpools/wasnorm_wordpool_576.txt	LTP328	ltpFR2	15	6	SUNSET	1408	n/a	n/a	0	0	0
1321.586	n/a	WORD	660793	wordpools/wasnorm_wordpool_576.txt	LTP328	ltpFR2	15	6	PEANUT	1032	n/a	n/a	0	0	0
1324.218	n/a	WORD	662109	wordpools/wasnorm_wordpool_576.txt	LTP328	ltpFR2	15	6	PRIMATE	1123	n/a	n/a	0	0	0
1326.882	n/a	WORD	663441	wordpools/wasnorm_wordpool_576.txt	LTP328	ltpFR2	15	6	JELLY	755	n/a	n/a	0	0	0
1329.348	n/a	WORD	664674	wordpools/wasnorm_wordpool_576.txt	LTP328	ltpFR2	15	6	GREASE	660	n/a	n/a	0	0	0
1331.98	n/a	WORD	665990	wordpools/wasnorm_wordpool_576.txt	LTP328	ltpFR2	15	6	CARRIAGE	248	n/a	n/a	0	0	0
1334.796	n/a	WORD	667398	wordpools/wasnorm_wordpool_576.txt	LTP328	ltpFR2	15	6	PRINCE	1124	n/a	n/a	0	0	0
1337.446	n/a	WORD	668723	wordpools/wasnorm_wordpool_576.txt	LTP328	ltpFR2	15	6	HAMPER	682	n/a	n/a	0	0	0
1339.91	n/a	WORD	669955	wordpools/wasnorm_wordpool_576.txt	LTP328	ltpFR2	15	6	FREEZER	604	n/a	n/a	0	0	0
1342.576	n/a	WORD	671288	wordpools/wasnorm_wordpool_576.txt	LTP328	ltpFR2	15	6	PISTON	1076	n/a	n/a	0	0	0
1345.342	n/a	WORD	672671	wordpools/wasnorm_wordpool_576.txt	LTP328	ltpFR2	15	6	CHAUFFEUR	283	n/a	n/a	0	0	0
1347.806	n/a	WORD	673903	wordpools/wasnorm_wordpool_576.txt	LTP328	ltpFR2	15	6	BUREAU	199	n/a	n/a	0	0	0
1350.638	n/a	WORD	675319	wordpools/wasnorm_wordpool_576.txt	LTP328	ltpFR2	15	6	DAISY	435	n/a	n/a	0	0	0
1353.354	n/a	WORD	676677	wordpools/wasnorm_wordpool_576.txt	LTP328	ltpFR2	15	6	LAPEL	800	n/a	n/a	0	0	0
1355.836	n/a	WORD	677918	wordpools/wasnorm_wordpool_576.txt	LTP328	ltpFR2	15	6	DRESS	495	n/a	n/a	0	0	0
1358.634	n/a	WORD	679317	wordpools/wasnorm_wordpool_576.txt	LTP328	ltpFR2	15	6	SEAFOOD	1260	n/a	n/a	0	0	0
1361.202	n/a	WORD	680601	wordpools/wasnorm_wordpool_576.txt	LTP328	ltpFR2	15	6	OYSTER	995	n/a	n/a	0	0	0
1363.916	n/a	WORD	681958	wordpools/wasnorm_wordpool_576.txt	LTP328	ltpFR2	15	6	YARN	1631	n/a	n/a	0	0	0
1366.748	n/a	WORD	683374	wordpools/wasnorm_wordpool_576.txt	LTP328	ltpFR2	15	6	IGLOO	734	n/a	n/a	0	0	0
1369.346	n/a	WORD	684673	wordpools/wasnorm_wordpool_576.txt	LTP328	ltpFR2	15	6	RACKET	1155	n/a	n/a	0	0	0
1372.062	n/a	WORD	686031	wordpools/wasnorm_wordpool_576.txt	LTP328	ltpFR2	15	6	NOVEL	960	n/a	n/a	0	0	0
1374.526	n/a	WORD	687263	wordpools/wasnorm_wordpool_576.txt	LTP328	ltpFR2	15	6	QUARTER	1148	n/a	n/a	0	0	0
1376.142	n/a	START	688071	n/a	LTP328	ltpFR2	15	n/a	n/a	n/a	8	n/a	n/a	n/a	n/a
1377.128	n/a	DISTRACTOR	688564	n/a	LTP328	ltpFR2	15	6	n/a	n/a	n/a	n/a	0	0	0
1377.142	n/a	PROB	688571	n/a	LTP328	ltpFR2	15	n/a	n/a	n/a	8	12	2	3	7
1378.842	n/a	PROB	689421	n/a	LTP328	ltpFR2	15	n/a	n/a	n/a	8	16	7	4	5
1380.69	n/a	PROB	690345	n/a	LTP328	ltpFR2	15	n/a	n/a	n/a	8	24	7	8	9
1383.774	n/a	PROB	691887	n/a	LTP328	ltpFR2	15	n/a	n/a	n/a	8	15	5	3	7
1385.39	n/a	PROB	692695	n/a	LTP328	ltpFR2	15	n/a	n/a	n/a	8	14	4	1	9
1386.688	n/a	PROB	693344	n/a	LTP328	ltpFR2	15	n/a	n/a	n/a	8	13	8	2	3
1388.77	n/a	PROB	694385	n/a	LTP328	ltpFR2	15	n/a	n/a	n/a	8	9	4	3	2
1390.42	n/a	PROB	695210	n/a	LTP328	ltpFR2	15	n/a	n/a	n/a	8	23	5	9	9
1392.154	n/a	PROB	696077	n/a	LTP328	ltpFR2	15	n/a	n/a	n/a	8	6	1	3	2
1393.484	n/a	PROB	696742	n/a	LTP328	ltpFR2	15	n/a	n/a	n/a	8	13	7	1	5
1394.734	n/a	PROB	697367	n/a	LTP328	ltpFR2	15	n/a	n/a	n/a	8	16	4	8	4
1396.1	n/a	PROB	698050	n/a	LTP328	ltpFR2	15	n/a	n/a	n/a	8	15	7	7	1
1397.266	n/a	PROB	698633	n/a	LTP328	ltpFR2	15	n/a	n/a	n/a	8	6	2	2	2
1400.142	n/a	STOP	700071	n/a	LTP328	ltpFR2	15	n/a	n/a	n/a	8	n/a	n/a	n/a	n/a
1402.148	n/a	REC_START	701074	n/a	LTP328	ltpFR2	15	6	n/a	n/a	n/a	n/a	0	0	0
1403.628	n/a	REC_WORD	701814	wordpools/wasnorm_wordpool_576.txt	LTP328	ltpFR2	15	6	SUNRISE	1407	n/a	n/a	0	0	0
1404.39	n/a	REC_WORD	702195	wordpools/wasnorm_wordpool_576.txt	LTP328	ltpFR2	15	6	COBRA	336	n/a	n/a	0	0	0
1404.938	n/a	REC_WORD	702469	wordpools/wasnorm_wordpool_576.txt	LTP328	ltpFR2	15	6	SUNSET	1408	n/a	n/a	0	0	0
1405.748	n/a	REC_WORD	702874	wordpools/wasnorm_wordpool_576.txt	LTP328	ltpFR2	15	6	PEANUT	1032	n/a	n/a	0	0	0
1410.19	n/a	REC_WORD	705095	wordpools/wasnorm_wordpool_576.txt	LTP328	ltpFR2	15	6	JELLY	755	n/a	n/a	0	0	0
1410.75	n/a	REC_WORD	705375	wordpools/wasnorm_wordpool_576.txt	LTP328	ltpFR2	15	6	GREASE	660	n/a	n/a	0	0	0
1412.354	n/a	REC_WORD	706177	wordpools/wasnorm_wordpool_576.txt	LTP328	ltpFR2	15	6	PRINCE	1124	n/a	n/a	0	0	0
1412.98	n/a	REC_WORD	706490	wordpools/wasnorm_wordpool_576.txt	LTP328	ltpFR2	15	6	CARRIAGE	248	n/a	n/a	0	0	0
1414.064	n/a	REC_WORD	707032	wordpools/wasnorm_wordpool_576.txt	LTP328	ltpFR2	15	6	HAMPER	682	n/a	n/a	0	0	0
1415.596	n/a	REC_WORD	707798	wordpools/wasnorm_wordpool_576.txt	LTP328	ltpFR2	15	6	FREEZER	604	n/a	n/a	0	0	0
1419.102	n/a	REC_WORD	709551	wordpools/wasnorm_wordpool_576.txt	LTP328	ltpFR2	15	6	PISTON	1076	n/a	n/a	0	0	0
1419.998	n/a	REC_WORD	709999	wordpools/wasnorm_wordpool_576.txt	LTP328	ltpFR2	15	6	CHAUFFEUR	283	n/a	n/a	0	0	0
1421.532	n/a	REC_WORD	710766	wordpools/wasnorm_wordpool_576.txt	LTP328	ltpFR2	15	6	BUREAU	199	n/a	n/a	0	0	0
1422.238	n/a	REC_WORD	711119	wordpools/wasnorm_wordpool_576.txt	LTP328	ltpFR2	15	6	DAISY	435	n/a	n/a	0	0	0
1422.944	n/a	REC_WORD	711472	wordpools/wasnorm_wordpool_576.txt	LTP328	ltpFR2	15	6	LAPEL	800	n/a	n/a	0	0	0
1424.268	n/a	REC_WORD	712134	wordpools/wasnorm_wordpool_576.txt	LTP328	ltpFR2	15	6	DRESS	495	n/a	n/a	0	0	0
1427.644	n/a	REC_WORD	713822	wordpools/wasnorm_wordpool_576.txt	LTP328	ltpFR2	15	6	SEAFOOD	1260	n/a	n/a	0	0	0
1428.832	n/a	REC_WORD	714416	wordpools/wasnorm_wordpool_576.txt	LTP328	ltpFR2	15	6	OYSTER	995	n/a	n/a	0	0	0
1430.302	n/a	REC_WORD	715151	wordpools/wasnorm_wordpool_576.txt	LTP328	ltpFR2	15	6	IGLOO	734	n/a	n/a	0	0	0
1432.826	n/a	REC_WORD	716413	wordpools/wasnorm_wordpool_576.txt	LTP328	ltpFR2	15	6	RACKET	1155	n/a	n/a	0	0	0
1434.778	n/a	REC_WORD	717389	wordpools/wasnorm_wordpool_576.txt	LTP328	ltpFR2	15	6	QUARTER	1148	n/a	n/a	0	0	0
1436.44	n/a	REC_WORD	718220	wordpools/wasnorm_wordpool_576.txt	LTP328	ltpFR2	15	6	NOVEL	960	n/a	n/a	0	0	0
1492.818	n/a	WORD	746409	wordpools/wasnorm_wordpool_576.txt	LTP328	ltpFR2	15	7	BUNNY	198	n/a	n/a	0	0	0
1495.536	n/a	WORD	747768	wordpools/wasnorm_wordpool_576.txt	LTP328	ltpFR2	15	7	GLOVE	642	n/a	n/a	0	0	0
1498.118	n/a	WORD	749059	wordpools/wasnorm_wordpool_576.txt	LTP328	ltpFR2	15	7	PREACHER	1119	n/a	n/a	0	0	0
1500.884	n/a	WORD	750442	wordpools/wasnorm_wordpool_576.txt	LTP328	ltpFR2	15	7	KEEPER	769	n/a	n/a	0	0	0
1503.466	n/a	WORD	751733	wordpools/wasnorm_wordpool_576.txt	LTP328	ltpFR2	15	7	BRANDY	169	n/a	n/a	0	0	0
1506.148	n/a	WORD	753074	wordpools/wasnorm_wordpool_576.txt	LTP328	ltpFR2	15	7	BALLOON	75	n/a	n/a	0	0	0
1508.73	n/a	WORD	754365	wordpools/wasnorm_wordpool_576.txt	LTP328	ltpFR2	15	7	OZONE	996	n/a	n/a	0	0	0
1511.562	n/a	WORD	755781	wordpools/wasnorm_wordpool_576.txt	LTP328	ltpFR2	15	7	SUBWAY	1400	n/a	n/a	0	0	0
1514.094	n/a	WORD	757047	wordpools/wasnorm_wordpool_576.txt	LTP328	ltpFR2	15	7	COUNTY	389	n/a	n/a	0	0	0
1516.826	n/a	WORD	758413	wordpools/wasnorm_wordpool_576.txt	LTP328	ltpFR2	15	7	TEACHER	1440	n/a	n/a	0	0	0
1519.626	n/a	WORD	759813	wordpools/wasnorm_wordpool_576.txt	LTP328	ltpFR2	15	7	BLACKBOARD	133	n/a	n/a	0	0	0
1522.108	n/a	WORD	761054	wordpools/wasnorm_wordpool_576.txt	LTP328	ltpFR2	15	7	IDOL	733	n/a	n/a	0	0	0
1524.656	n/a	WORD	762328	wordpools/wasnorm_wordpool_576.txt	LTP328	ltpFR2	15	7	MAPLE	866	n/a	n/a	0	0	0
1527.472	n/a	WORD	763736	wordpools/wasnorm_wordpool_576.txt	LTP328	ltpFR2	15	7	THREAD	1460	n/a	n/a	0	0	0
1530.154	n/a	WORD	765077	wordpools/wasnorm_wordpool_576.txt	LTP328	ltpFR2	15	7	PERCH	1048	n/a	n/a	0	0	0
1532.636	n/a	WORD	766318	wordpools/wasnorm_wordpool_576.txt	LTP328	ltpFR2	15	7	ROBIN	1199	n/a	n/a	0	0	0
1535.4	n/a	WORD	767700	wordpools/wasnorm_wordpool_576.txt	LTP328	ltpFR2	15	7	BEEF	113	n/a	n/a	0	0	0
1537.866	n/a	WORD	768933	wordpools/wasnorm_wordpool_576.txt	LTP328	ltpFR2	15	7	BISON	131	n/a	n/a	0	0	0
1540.382	n/a	WORD	770191	wordpools/wasnorm_wordpool_576.txt	LTP328	ltpFR2	15	7	HAND	683	n/a	n/a	0	0	0
1542.946	n/a	WORD	771473	wordpools/wasnorm_wordpool_576.txt	LTP328	ltpFR2	15	7	PORK	1108	n/a	n/a	0	0	0
1545.63	n/a	WORD	772815	wordpools/wasnorm_wordpool_576.txt	LTP328	ltpFR2	15	7	ROD	1203	n/a	n/a	0	0	0
1548.344	n/a	WORD	774172	wordpools/wasnorm_wordpool_576.txt	LTP328	ltpFR2	15	7	PICTURE	1061	n/a	n/a	0	0	0
1550.91	n/a	WORD	775455	wordpools/wasnorm_wordpool_576.txt	LTP328	ltpFR2	15	7	PIMPLE	1071	n/a	n/a	0	0	0
1553.476	n/a	WORD	776738	wordpools/wasnorm_wordpool_576.txt	LTP328	ltpFR2	15	7	STATUE	1374	n/a	n/a	0	0	0
1555.108	n/a	START	777554	n/a	LTP328	ltpFR2	15	n/a	n/a	n/a	9	n/a	n/a	n/a	n/a
1555.934	n/a	DISTRACTOR	777967	n/a	LTP328	ltpFR2	15	7	n/a	n/a	n/a	n/a	0	0	0
1555.958	n/a	PROB	777979	n/a	LTP328	ltpFR2	15	n/a	n/a	n/a	9	16	6	7	3
1557.69	n/a	PROB	778845	n/a	LTP328	ltpFR2	15	n/a	n/a	n/a	9	12	3	7	2
1559.074	n/a	PROB	779537	n/a	LTP328	ltpFR2	15	n/a	n/a	n/a	9	16	6	7	3
1560.972	n/a	PROB	780486	n/a	LTP328	ltpFR2	15	n/a	n/a	n/a	9	11	4	1	6
1562.072	n/a	PROB	781036	n/a	LTP328	ltpFR2	15	n/a	n/a	n/a	9	14	8	5	1
1563.272	n/a	PROB	781636	n/a	LTP328	ltpFR2	15	n/a	n/a	n/a	9	21	8	8	5
1564.72	n/a	PROB	782360	n/a	LTP328	ltpFR2	15	n/a	n/a	n/a	9	6	4	1	1
1565.886	n/a	PROB	782943	n/a	LTP328	ltpFR2	15	n/a	n/a	n/a	9	19	3	8	8
1567.27	n/a	PROB	783635	n/a	LTP328	ltpFR2	15	n/a	n/a	n/a	9	18	9	7	2
1568.968	n/a	PROB	784484	n/a	LTP328	ltpFR2	15	n/a	n/a	n/a	9	14	4	3	7
1570.468	n/a	PROB	785234	n/a	LTP328	ltpFR2	15	n/a	n/a	n/a	9	20	2	9	9
1572.202	n/a	PROB	786101	n/a	LTP328	ltpFR2	15	n/a	n/a	n/a	9	15	3	5	7
1573.7	n/a	PROB	786850	n/a	LTP328	ltpFR2	15	n/a	n/a	n/a	9	18	9	3	6
1575.466	n/a	PROB	787733	n/a	LTP328	ltpFR2	15	n/a	n/a	n/a	9	20	8	9	3
1578.912	n/a	STOP	789456	n/a	LTP328	ltpFR2	15	n/a	n/a	n/a	9	n/a	n/a	n/a	n/a
1581.03	n/a	REC_START	790515	n/a	LTP328	ltpFR2	15	7	n/a	n/a	n/a	n/a	0	0	0
1582.994	n/a	REC_WORD	791497	wordpools/wasnorm_wordpool_576.txt	LTP328	ltpFR2	15	7	RABBIT	1152	n/a	n/a	0	0	0
1583.686	n/a	REC_WORD	791843	wordpools/wasnorm_wordpool_576.txt	LTP328	ltpFR2	15	7	GLOVE	642	n/a	n/a	0	0	0
1584.358	n/a	REC_WORD	792179	wordpools/wasnorm_wordpool_576.txt	LTP328	ltpFR2	15	7	PREACHER	1119	n/a	n/a	0	0	0
1585.066	n/a	REC_WORD	792533	wordpools/wasnorm_wordpool_576.txt	LTP328	ltpFR2	15	7	KEEPER	769	n/a	n/a	0	0	0
1587.334	n/a	REC_WORD	793667	wordpools/wasnorm_wordpool_576.txt	LTP328	ltpFR2	15	7	BRANDY	169	n/a	n/a	0	0	0
1588.166	n/a	REC_WORD	794083	wordpools/wasnorm_wordpool_576.txt	LTP328	ltpFR2	15	7	BALLOON	75	n/a	n/a	0	0	0
1588.796	n/a	REC_WORD	794398	wordpools/wasnorm_wordpool_576.txt	LTP328	ltpFR2	15	7	OZONE	996	n/a	n/a	0	0	0
1589.338	n/a	REC_WORD	794669	wordpools/wasnorm_wordpool_576.txt	LTP328	ltpFR2	15	7	SUBWAY	1400	n/a	n/a	0	0	0
1590.06	n/a	REC_WORD	795030	wordpools/wasnorm_wordpool_576.txt	LTP328	ltpFR2	15	7	COUNTY	389	n/a	n/a	0	0	0
1590.652	n/a	REC_WORD	795326	wordpools/wasnorm_wordpool_576.txt	LTP328	ltpFR2	15	7	TEACHER	1440	n/a	n/a	0	0	0
1591.902	n/a	REC_WORD	795951	wordpools/wasnorm_wordpool_576.txt	LTP328	ltpFR2	15	7	BLACKBOARD	133	n/a	n/a	0	0	0
1593.966	n/a	REC_WORD	796983	wordpools/wasnorm_wordpool_576.txt	LTP328	ltpFR2	15	7	IDOL	733	n/a	n/a	0	0	0
1595.328	n/a	REC_WORD	797664	wordpools/wasnorm_wordpool_576.txt	LTP328	ltpFR2	15	7	MAPLE	866	n/a	n/a	0	0	0
1596.538	n/a	REC_WORD	798269	wordpools/wasnorm_wordpool_576.txt	LTP328	ltpFR2	15	7	THREAD	1460	n/a	n/a	0	0	0
1597.494	n/a	REC_WORD	798747	wordpools/wasnorm_wordpool_576.txt	LTP328	ltpFR2	15	7	PERCH	1048	n/a	n/a	0	0	0
1598.394	n/a	REC_WORD	799197	wordpools/wasnorm_wordpool_576.txt	LTP328	ltpFR2	15	7	ROBIN	1199	n/a	n/a	0	0	0
1671.686	n/a	DISTRACTOR	835843	n/a	LTP328	ltpFR2	15	8	n/a	n/a	n/a	n/a	0	0	0
1671.686	n/a	START	835843	n/a	LTP328	ltpFR2	15	n/a	n/a	n/a	10	n/a	n/a	n/a	n/a
1671.736	n/a	PROB	835868	n/a	LTP328	ltpFR2	15	n/a	n/a	n/a	10	11	4	1	6
1673.186	n/a	PROB	836593	n/a	LTP328	ltpFR2	15	n/a	n/a	n/a	10	9	3	1	5
1674.434	n/a	PROB	837217	n/a	LTP328	ltpFR2	15	n/a	n/a	n/a	10	18	4	8	6
1676.534	n/a	PROB	838267	n/a	LTP328	ltpFR2	15	n/a	n/a	n/a	10	15	6	6	3
1679.366	n/a	PROB	839683	n/a	LTP328	ltpFR2	15	n/a	n/a	n/a	10	13	4	2	7
1681.032	n/a	PROB	840516	n/a	LTP328	ltpFR2	15	n/a	n/a	n/a	10	19	7	9	3
1683.064	n/a	PROB	841532	n/a	LTP328	ltpFR2	15	n/a	n/a	n/a	10	23	9	7	7
1684.612	n/a	PROB	842306	n/a	LTP328	ltpFR2	15	n/a	n/a	n/a	10	10	2	1	7
1685.83	n/a	PROB	842915	n/a	LTP328	ltpFR2	15	n/a	n/a	n/a	10	22	9	8	5
1687.478	n/a	PROB	843739	n/a	LTP328	ltpFR2	15	n/a	n/a	n/a	10	6	2	1	3
1688.812	n/a	PROB	844406	n/a	LTP328	ltpFR2	15	n/a	n/a	n/a	10	13	1	3	9
1690.094	n/a	PROB	845047	n/a	LTP328	ltpFR2	15	n/a	n/a	n/a	10	18	8	6	4
1691.444	n/a	PROB	845722	n/a	LTP328	ltpFR2	15	n/a	n/a	n/a	10	23	6	8	9
1695.688	n/a	STOP	847844	n/a	LTP328	ltpFR2	15	n/a	n/a	n/a	10	n/a	n/a	n/a	n/a
1696.874	n/a	WORD	848437	wordpools/wasnorm_wordpool_576.txt	LTP328	ltpFR2	15	8	CLOCK	325	n/a	n/a	0	0	0
1699.606	n/a	WORD	849803	wordpools/wasnorm_wordpool_576.txt	LTP328	ltpFR2	15	8	PIANO	1057	n/a	n/a	0	0	0
1702.306	n/a	WORD	851153	wordpools/wasnorm_wordpool_576.txt	LTP328	ltpFR2	15	8	SPONGE	1355	n/a	n/a	0	0	0
1705.07	n/a	WORD	852535	wordpools/wasnorm_wordpool_576.txt	LTP328	ltpFR2	15	8	DAUGHTER	442	n/a	n/a	0	0	0
1707.786	n/a	WORD	853893	wordpools/wasnorm_wordpool_576.txt	LTP328	ltpFR2	15	8	BROTHER	179	n/a	n/a	0	0	0
1710.5	n/a	WORD	855250	wordpools/wasnorm_wordpool_576.txt	LTP328	ltpFR2	15	8	WASHER	1592	n/a	n/a	0	0	0
1712.984	n/a	WORD	856492	wordpools/wasnorm_wordpool_576.txt	LTP328	ltpFR2	15	8	CHURCH	307	n/a	n/a	0	0	0
1715.582	n/a	WORD	857791	wordpools/wasnorm_wordpool_576.txt	LTP328	ltpFR2	15	8	LADDER	793	n/a	n/a	0	0	0
1718.214	n/a	WORD	859107	wordpools/wasnorm_wordpool_576.txt	LTP328	ltpFR2	15	8	RELISH	1183	n/a	n/a	0	0	0
1720.796	n/a	WORD	860398	wordpools/wasnorm_wordpool_576.txt	LTP328	ltpFR2	15	8	POET	1095	n/a	n/a	0	0	0
1723.328	n/a	WORD	861664	wordpools/wasnorm_wordpool_576.txt	LTP328	ltpFR2	15	8	LETTUCE	814	n/a	n/a	0	0	0
1726.026	n/a	WORD	863013	wordpools/wasnorm_wordpool_576.txt	LTP328	ltpFR2	15	8	RADISH	1158	n/a	n/a	0	0	0
1728.576	n/a	WORD	864288	wordpools/wasnorm_wordpool_576.txt	LTP328	ltpFR2	15	8	LEADER	807	n/a	n/a	0	0	0
1731.408	n/a	WORD	865704	wordpools/wasnorm_wordpool_576.txt	LTP328	ltpFR2	15	8	PEBBLE	1035	n/a	n/a	0	0	0
1734.158	n/a	WORD	867079	wordpools/wasnorm_wordpool_576.txt	LTP328	ltpFR2	15	8	JOURNAL	760	n/a	n/a	0	0	0
1736.788	n/a	WORD	868394	wordpools/wasnorm_wordpool_576.txt	LTP328	ltpFR2	15	8	GANGSTER	620	n/a	n/a	0	0	0
1739.354	n/a	WORD	869677	wordpools/wasnorm_wordpool_576.txt	LTP328	ltpFR2	15	8	PISTOL	1075	n/a	n/a	0	0	0
1741.986	n/a	WORD	870993	wordpools/wasnorm_wordpool_576.txt	LTP328	ltpFR2	15	8	DONOR	485	n/a	n/a	0	0	0
1744.786	n/a	WORD	872393	wordpools/wasnorm_wordpool_576.txt	LTP328	ltpFR2	15	8	CRICKET	408	n/a	n/a	0	0	0
1747.5	n/a	WORD	873750	wordpools/wasnorm_wordpool_576.txt	LTP328	ltpFR2	15	8	CHAMPAGNE	278	n/a	n/a	0	0	0
1750.316	n/a	WORD	875158	wordpools/wasnorm_wordpool_576.txt	LTP328	ltpFR2	15	8	BROOK	177	n/a	n/a	0	0	0
1753.03	n/a	WORD	876515	wordpools/wasnorm_wordpool_576.txt	LTP328	ltpFR2	15	8	MISSILE	900	n/a	n/a	0	0	0
1755.662	n/a	WORD	877831	wordpools/wasnorm_wordpool_576.txt	LTP328	ltpFR2	15	8	BATHTUB	100	n/a	n/a	0	0	0
1758.444	n/a	WORD	879222	wordpools/wasnorm_wordpool_576.txt	LTP328	ltpFR2	15	8	SHORTCAKE	1292	n/a	n/a	0	0	0
1760.062	n/a	START	880031	n/a	LTP328	ltpFR2	15	n/a	n/a	n/a	11	n/a	n/a	n/a	n/a
1761.142	n/a	DISTRACTOR	880571	n/a	LTP328	ltpFR2	15	8	n/a	n/a	n/a	n/a	0	0	0
1761.162	n/a	PROB	880581	n/a	LTP328	ltpFR2	15	n/a	n/a	n/a	11	17	8	8	1
1762.942	n/a	PROB	881471	n/a	LTP328	ltpFR2	15	n/a	n/a	n/a	11	6	2	2	2
1763.992	n/a	PROB	881996	n/a	LTP328	ltpFR2	15	n/a	n/a	n/a	11	16	9	6	1
1765.16	n/a	PROB	882580	n/a	LTP328	ltpFR2	15	n/a	n/a	n/a	11	16	8	1	7
1766.424	n/a	PROB	883212	n/a	LTP328	ltpFR2	15	n/a	n/a	n/a	11	17	2	7	8
1768.69	n/a	PROB	884345	n/a	LTP328	ltpFR2	15	n/a	n/a	n/a	11	11	1	2	8
1770.022	n/a	PROB	885011	n/a	LTP328	ltpFR2	15	n/a	n/a	n/a	11	20	3	9	8
1771.972	n/a	PROB	885986	n/a	LTP328	ltpFR2	15	n/a	n/a	n/a	11	17	6	3	8
1773.838	n/a	PROB	886919	n/a	LTP328	ltpFR2	15	n/a	n/a	n/a	11	10	1	2	7
1775.77	n/a	PROB	887885	n/a	LTP328	ltpFR2	15	n/a	n/a	n/a	11	14	6	1	7
1777.204	n/a	PROB	888602	n/a	LTP328	ltpFR2	15	n/a	n/a	n/a	11	17	5	8	4
1778.902	n/a	PROB	889451	n/a	LTP328	ltpFR2	15	n/a	n/a	n/a	11	17	4	6	7
1780.318	n/a	PROB	890159	n/a	LTP328	ltpFR2	15	n/a	n/a	n/a	11	21	6	6	9
1783.484	n/a	STOP	891742	n/a	LTP328	ltpFR2	15	n/a	n/a	n/a	11	n/a	n/a	n/a	n/a
1785.982	n/a	REC_START	892991	n/a	LTP328	ltpFR2	15	8	n/a	n/a	n/a	n/a	0	0	0
1790.582	n/a	REC_WORD	895291	wordpools/wasnorm_wordpool_576.txt	LTP328	ltpFR2	15	8	CRICKET	408	n/a	n/a	0	0	0
1791.052	n/a	REC_WORD	895526	wordpools/wasnorm_wordpool_576.txt	LTP328	ltpFR2	15	8	CHAMPAGNE	278	n/a	n/a	0	0	0
1792.06	n/a	REC_WORD	896030	wordpools/wasnorm_wordpool_576.txt	LTP328	ltpFR2	15	8	BROOK	177	n/a	n/a	0	0	0
1793.35	n/a	REC_WORD	896675	wordpools/wasnorm_wordpool_576.txt	LTP328	ltpFR2	15	8	MISSILE	900	n/a	n/a	0	0	0
1793.938	n/a	REC_WORD	896969	wordpools/wasnorm_wordpool_576.txt	LTP328	ltpFR2	15	8	BATHTUB	100	n/a	n/a	0	0	0
1798.362	n/a	REC_WORD	899181	wordpools/wasnorm_wordpool_576.txt	LTP328	ltpFR2	15	8	CLOCK	325	n/a	n/a	0	0	0
1799.222	n/a	REC_WORD	899611	wordpools/wasnorm_wordpool_576.txt	LTP328	ltpFR2	15	8	SPONGE	1355	n/a	n/a	0	0	0
1800.14	n/a	REC_WORD	900070	wordpools/wasnorm_wordpool_576.txt	LTP328	ltpFR2	15	8	PIANO	1057	n/a	n/a	0	0	0
1801.894	n/a	REC_WORD	900947	wordpools/wasnorm_wordpool_576.txt	LTP328	ltpFR2	15	8	DAUGHTER	442	n/a	n/a	0	0	0
1802.618	n/a	REC_WORD	901309	wordpools/wasnorm_wordpool_576.txt	LTP328	ltpFR2	15	8	BROTHER	179	n/a	n/a	0	0	0
1807.064	n/a	REC_WORD	903532	wordpools/wasnorm_wordpool_576.txt	LTP328	ltpFR2	15	8	LADDER	793	n/a	n/a	0	0	0
1807.988	n/a	REC_WORD	903994	wordpools/wasnorm_wordpool_576.txt	LTP328	ltpFR2	15	8	CHURCH	307	n/a	n/a	0	0	0
1812.27	n/a	REC_WORD	906135	wordpools/wasnorm_wordpool_576.txt	LTP328	ltpFR2	15	8	RAP	-1	n/a	n/a	0	0	0
1813.15	n/a	REC_WORD_VV	906575	wordpools/wasnorm_wordpool_576.txt	LTP328	ltpFR2	15	8	<>	-1	n/a	n/a	0	0	0
1815.85	n/a	REC_WORD	907925	wordpools/wasnorm_wordpool_576.txt	LTP328	ltpFR2	15	8	POET	1095	n/a	n/a	0	0	0
1818.448	n/a	REC_WORD	909224	wordpools/wasnorm_wordpool_576.txt	LTP328	ltpFR2	15	8	LETTUCE	814	n/a	n/a	0	0	0
1819.094	n/a	REC_WORD	909547	wordpools/wasnorm_wordpool_576.txt	LTP328	ltpFR2	15	8	RADISH	1158	n/a	n/a	0	0	0
1819.916	n/a	REC_WORD	909958	wordpools/wasnorm_wordpool_576.txt	LTP328	ltpFR2	15	8	RELISH	1183	n/a	n/a	0	0	0
1826.61	n/a	REC_WORD	913305	wordpools/wasnorm_wordpool_576.txt	LTP328	ltpFR2	15	8	DONOR	485	n/a	n/a	0	0	0
1831.528	n/a	REC_WORD	915764	wordpools/wasnorm_wordpool_576.txt	LTP328	ltpFR2	15	8	GANGSTER	620	n/a	n/a	0	0	0
1832.292	n/a	REC_WORD	916146	wordpools/wasnorm_wordpool_576.txt	LTP328	ltpFR2	15	8	PISTOL	1075	n/a	n/a	0	0	0
1862.528	n/a	REST_REWET	931264	n/a	LTP328	ltpFR2	15	8	n/a	n/a	n/a	n/a	0	0	0
2266.328	n/a	WORD	1133164	wordpools/wasnorm_wordpool_576.txt	LTP328	ltpFR2	15	9	BUG	187	n/a	n/a	0	0	0
2268.986	n/a	WORD	1134493	wordpools/wasnorm_wordpool_576.txt	LTP328	ltpFR2	15	9	SPIDER	1351	n/a	n/a	0	0	0
2271.618	n/a	WORD	1135809	wordpools/wasnorm_wordpool_576.txt	LTP328	ltpFR2	15	9	DINER	467	n/a	n/a	0	0	0
2274.4	n/a	WORD	1137200	wordpools/wasnorm_wordpool_576.txt	LTP328	ltpFR2	15	9	PALACE	1006	n/a	n/a	0	0	0
2277.234	n/a	WORD	1138617	wordpools/wasnorm_wordpool_576.txt	LTP328	ltpFR2	15	9	STREAM	1392	n/a	n/a	0	0	0
2279.964	n/a	WORD	1139982	wordpools/wasnorm_wordpool_576.txt	LTP328	ltpFR2	15	9	KETCHUP	771	n/a	n/a	0	0	0
2282.414	n/a	WORD	1141207	wordpools/wasnorm_wordpool_576.txt	LTP328	ltpFR2	15	9	TWIG	1527	n/a	n/a	0	0	0
2285.096	n/a	WORD	1142548	wordpools/wasnorm_wordpool_576.txt	LTP328	ltpFR2	15	9	RIVER	1194	n/a	n/a	0	0	0
2287.678	n/a	WORD	1143839	wordpools/wasnorm_wordpool_576.txt	LTP328	ltpFR2	15	9	THRONE	1461	n/a	n/a	0	0	0
2290.21	n/a	WORD	1145105	wordpools/wasnorm_wordpool_576.txt	LTP328	ltpFR2	15	9	MASK	876	n/a	n/a	0	0	0
2292.924	n/a	WORD	1146462	wordpools/wasnorm_wordpool_576.txt	LTP328	ltpFR2	15	9	SHERIFF	1284	n/a	n/a	0	0	0
2295.674	n/a	WORD	1147837	wordpools/wasnorm_wordpool_576.txt	LTP328	ltpFR2	15	9	POISON	1096	n/a	n/a	0	0	0
2298.156	n/a	WORD	1149078	wordpools/wasnorm_wordpool_576.txt	LTP328	ltpFR2	15	9	OINTMENT	974	n/a	n/a	0	0	0
2300.838	n/a	WORD	1150419	wordpools/wasnorm_wordpool_576.txt	LTP328	ltpFR2	15	9	ISLAND	745	n/a	n/a	0	0	0
2303.554	n/a	WORD	1151777	wordpools/wasnorm_wordpool_576.txt	LTP328	ltpFR2	15	9	TERMITE	1451	n/a	n/a	0	0	0
2306.136	n/a	WORD	1153068	wordpools/wasnorm_wordpool_576.txt	LTP328	ltpFR2	15	9	JURY	766	n/a	n/a	0	0	0
2308.634	n/a	WORD	1154317	wordpools/wasnorm_wordpool_576.txt	LTP328	ltpFR2	15	9	GLASS	639	n/a	n/a	0	0	0
2311.2	n/a	WORD	1155600	wordpools/wasnorm_wordpool_576.txt	LTP328	ltpFR2	15	9	CANAL	226	n/a	n/a	0	0	0
2313.882	n/a	WORD	1156941	wordpools/wasnorm_wordpool_576.txt	LTP328	ltpFR2	15	9	SOFTBALL	1343	n/a	n/a	0	0	0
2316.614	n/a	WORD	1158307	wordpools/wasnorm_wordpool_576.txt	LTP328	ltpFR2	15	9	FOOTBALL	591	n/a	n/a	0	0	0
2319.412	n/a	WORD	1159706	wordpools/wasnorm_wordpool_576.txt	LTP328	ltpFR2	15	9	WARDROBE	1587	n/a	n/a	0	0	0
2322.178	n/a	WORD	1161089	wordpools/wasnorm_wordpool_576.txt	LTP328	ltpFR2	15	9	MARSH	874	n/a	n/a	0	0	0
2324.976	n/a	WORD	1162488	wordpools/wasnorm_wordpool_576.txt	LTP328	ltpFR2	15	9	FIREMAN	569	n/a	n/a	0	0	0
2327.574	n/a	WORD	1163787	wordpools/wasnorm_wordpool_576.txt	LTP328	ltpFR2	15	9	MAILMAN	858	n/a	n/a	0	0	0
2329.192	n/a	START	1164596	n/a	LTP328	ltpFR2	15	n/a	n/a	n/a	12	n/a	n/a	n/a	n/a
2330.062	n/a	DISTRACTOR	1165031	n/a	LTP328	ltpFR2	15	9	n/a	n/a	n/a	n/a	0	0	0
2330.074	n/a	PROB	1165037	n/a	LTP328	ltpFR2	15	n/a	n/a	n/a	12	23	8	9	6
2332.556	n/a	PROB	1166278	n/a	LTP328	ltpFR2	15	n/a	n/a	n/a	12	13	3	4	6
2334.404	n/a	PROB	1167202	n/a	LTP328	ltpFR2	15	n/a	n/a	n/a	12	6	1	2	3
2335.622	n/a	PROB	1167811	n/a	LTP328	ltpFR2	15	n/a	n/a	n/a	12	13	1	8	4
2336.836	n/a	PROB	1168418	n/a	LTP328	ltpFR2	15	n/a	n/a	n/a	12	17	7	1	9
2338.104	n/a	PROB	1169052	n/a	LTP328	ltpFR2	15	n/a	n/a	n/a	12	21	7	9	5
2339.886	n/a	PROB	1169943	n/a	LTP328	ltpFR2	15	n/a	n/a	n/a	12	19	9	8	2
2341.318	n/a	PROB	1170659	n/a	LTP328	ltpFR2	15	n/a	n/a	n/a	12	23	5	9	9
2343.05	n/a	PROB	1171525	n/a	LTP328	ltpFR2	15	n/a	n/a	n/a	12	17	4	6	7
2344.4	n/a	PROB	1172200	n/a	LTP328	ltpFR2	15	n/a	n/a	n/a	12	14	4	5	5
2346.084	n/a	PROB	1173042	n/a	LTP328	ltpFR2	15	n/a	n/a	n/a	12	16	9	3	4
2347.982	n/a	PROB	1173991	n/a	LTP328	ltpFR2	15	n/a	n/a	n/a	12	27	9	8	8
2350.932	n/a	PROB	1175466	n/a	LTP328	ltpFR2	15	n/a	n/a	n/a	12	10	1	4	5
2352.002	n/a	STOP	1176001	n/a	LTP328	ltpFR2	15	n/a	n/a	n/a	12	n/a	n/a	n/a	n/a
2355.198	n/a	REC_START	1177599	n/a	LTP328	ltpFR2	15	9	n/a	n/a	n/a	n/a	0	0	0
2356.074	n/a	REC_WORD	1178037	wordpools/wasnorm_wordpool_576.txt	LTP328	ltpFR2	15	9	BUG	187	n/a	n/a	0	0	0
2356.452	n/a	REC_WORD	1178226	wordpools/wasnorm_wordpool_576.txt	LTP328	ltpFR2	15	9	SPIDER	1351	n/a	n/a	0	0	0
2357.496	n/a	REC_WORD	1178748	wordpools/wasnorm_wordpool_576.txt	LTP328	ltpFR2	15	9	DINER	467	n/a	n/a	0	0	0
2359.126	n/a	REC_WORD	1179563	wordpools/wasnorm_wordpool_576.txt	LTP328	ltpFR2	15	9	PALACE	1006	n/a	n/a	0	0	0
2363.14	n/a	REC_WORD	1181570	wordpools/wasnorm_wordpool_576.txt	LTP328	ltpFR2	15	9	TWIG	1527	n/a	n/a	0	0	0
2364.042	n/a	REC_WORD	1182021	wordpools/wasnorm_wordpool_576.txt	LTP328	ltpFR2	15	9	STREAM	1392	n/a	n/a	0	0	0
2365.404	n/a	REC_WORD	1182702	wordpools/wasnorm_wordpool_576.txt	LTP328	ltpFR2	15	9	MASK	876	n/a	n/a	0	0	0
2366.622	n/a	REC_WORD	1183311	wordpools/wasnorm_wordpool_576.txt	LTP328	ltpFR2	15	9	SHERIFF	1284	n/a	n/a	0	0	0
2367.858	n/a	REC_WORD	1183929	wordpools/wasnorm_wordpool_576.txt	LTP328	ltpFR2	15	9	POISON	1096	n/a	n/a	0	0	0
2368.528	n/a	REC_WORD	1184264	wordpools/wasnorm_wordpool_576.txt	LTP328	ltpFR2	15	9	OINTMENT	974	n/a	n/a	0	0	0
2369.25	n/a	REC_WORD	1184625	wordpools/wasnorm_wordpool_576.txt	LTP328	ltpFR2	15	9	ISLAND	745	n/a	n/a	0	0	0
2369.92	n/a	REC_WORD	1184960	wordpools/wasnorm_wordpool_576.txt	LTP328	ltpFR2	15	9	TERMITE	1451	n/a	n/a	0	0	0
2372.126	n/a	REC_WORD	1186063	wordpools/wasnorm_wordpool_576.txt	LTP328	ltpFR2	15	9	JURY	766	n/a	n/a	0	0	0
2372.908	n/a	REC_WORD	1186454	wordpools/wasnorm_wordpool_576.txt	LTP328	ltpFR2	15	9	GLASS	639	n/a	n/a	0	0	0
2373.564	n/a	REC_WORD	1186782	wordpools/wasnorm_wordpool_576.txt	LTP328	ltpFR2	15	9	CANAL	226	n/a	n/a	0	0	0
2382.222	n/a	REC_WORD_VV	1191111	wordpools/wasnorm_wordpool_576.txt	LTP328	ltpFR2	15	9	<>	-1	n/a	n/a	0	0	0
2384.782	n/a	REC_WORD	1192391	wordpools/wasnorm_wordpool_576.txt	LTP328	ltpFR2	15	9	MAILMAN	858	n/a	n/a	0	0	0
2385.534	n/a	REC_WORD	1192767	wordpools/wasnorm_wordpool_576.txt	LTP328	ltpFR2	15	9	FIREMAN	569	n/a	n/a	0	0	0
2386.354	n/a	REC_WORD	1193177	wordpools/wasnorm_wordpool_576.txt	LTP328	ltpFR2	15	9	WARDROBE	1587	n/a	n/a	0	0	0
2388.402	n/a	REC_WORD	1194201	wordpools/wasnorm_wordpool_576.txt	LTP328	ltpFR2	15	9	DRESSER	496	n/a	n/a	0	0	0
2445.87	n/a	WORD	1222935	wordpools/wasnorm_wordpool_576.txt	LTP328	ltpFR2	15	10	GHETTO	633	n/a	n/a	0	0	0
2448.484	n/a	WORD	1224242	wordpools/wasnorm_wordpool_576.txt	LTP328	ltpFR2	15	10	DRAGON	492	n/a	n/a	0	0	0
2451.284	n/a	WORD	1225642	wordpools/wasnorm_wordpool_576.txt	LTP328	ltpFR2	15	10	SLIDE	1326	n/a	n/a	0	0	0
2453.882	n/a	WORD	1226941	wordpools/wasnorm_wordpool_576.txt	LTP328	ltpFR2	15	10	DIVER	476	n/a	n/a	0	0	0
2456.564	n/a	WORD	1228282	wordpools/wasnorm_wordpool_576.txt	LTP328	ltpFR2	15	10	BRANCH	168	n/a	n/a	0	0	0
2459.112	n/a	WORD	1229556	wordpools/wasnorm_wordpool_576.txt	LTP328	ltpFR2	15	10	BACKBONE	66	n/a	n/a	0	0	0
2461.662	n/a	WORD	1230831	wordpools/wasnorm_wordpool_576.txt	LTP328	ltpFR2	15	10	DOLPHIN	483	n/a	n/a	0	0	0
2464.344	n/a	WORD	1232172	wordpools/wasnorm_wordpool_576.txt	LTP328	ltpFR2	15	10	OUTFIT	988	n/a	n/a	0	0	0
2466.792	n/a	WORD	1233396	wordpools/wasnorm_wordpool_576.txt	LTP328	ltpFR2	15	10	BRIEFCASE	175	n/a	n/a	0	0	0
2469.258	n/a	WORD	1234629	wordpools/wasnorm_wordpool_576.txt	LTP328	ltpFR2	15	10	PADDING	999	n/a	n/a	0	0	0
2472.006	n/a	WORD	1236003	wordpools/wasnorm_wordpool_576.txt	LTP328	ltpFR2	15	10	BODY	145	n/a	n/a	0	0	0
2474.588	n/a	WORD	1237294	wordpools/wasnorm_wordpool_576.txt	LTP328	ltpFR2	15	10	JELLO	754	n/a	n/a	0	0	0
2477.088	n/a	WORD	1238544	wordpools/wasnorm_wordpool_576.txt	LTP328	ltpFR2	15	10	SNAIL	1332	n/a	n/a	0	0	0
2479.654	n/a	WORD	1239827	wordpools/wasnorm_wordpool_576.txt	LTP328	ltpFR2	15	10	OFFICE	972	n/a	n/a	0	0	0
2482.286	n/a	WORD	1241143	wordpools/wasnorm_wordpool_576.txt	LTP328	ltpFR2	15	10	FIREPLACE	570	n/a	n/a	0	0	0
2484.818	n/a	WORD	1242409	wordpools/wasnorm_wordpool_576.txt	LTP328	ltpFR2	15	10	CASHIER	254	n/a	n/a	0	0	0
2487.6	n/a	WORD	1243800	wordpools/wasnorm_wordpool_576.txt	LTP328	ltpFR2	15	10	MACHINE	852	n/a	n/a	0	0	0
2490.348	n/a	WORD	1245174	wordpools/wasnorm_wordpool_576.txt	LTP328	ltpFR2	15	10	WHISTLE	1606	n/a	n/a	0	0	0
2493.064	n/a	WORD	1246532	wordpools/wasnorm_wordpool_576.txt	LTP328	ltpFR2	15	10	LIVER	833	n/a	n/a	0	0	0
2495.846	n/a	WORD	1247923	wordpools/wasnorm_wordpool_576.txt	LTP328	ltpFR2	15	10	PICNIC	1060	n/a	n/a	0	0	0
2498.278	n/a	WORD	1249139	wordpools/wasnorm_wordpool_576.txt	LTP328	ltpFR2	15	10	LUNCH	849	n/a	n/a	0	0	0
2501.076	n/a	WORD	1250538	wordpools/wasnorm_wordpool_576.txt	LTP328	ltpFR2	15	10	ATLAS	53	n/a	n/a	0	0	0
2503.792	n/a	WORD	1251896	wordpools/wasnorm_wordpool_576.txt	LTP328	ltpFR2	15	10	SISTER	1312	n/a	n/a	0	0	0
2506.258	n/a	WORD	1253129	wordpools/wasnorm_wordpool_576.txt	LTP328	ltpFR2	15	10	STALLION	1369	n/a	n/a	0	0	0
2507.89	n/a	START	1253945	n/a	LTP328	ltpFR2	15	n/a	n/a	n/a	13	n/a	n/a	n/a	n/a
2508.808	n/a	DISTRACTOR	1254404	n/a	LTP328	ltpFR2	15	10	n/a	n/a	n/a	n/a	0	0	0
2508.838	n/a	PROB	1254419	n/a	LTP328	ltpFR2	15	n/a	n/a	n/a	13	19	3	9	7
2510.872	n/a	PROB	1255436	n/a	LTP328	ltpFR2	15	n/a	n/a	n/a	13	14	7	1	6
2512.238	n/a	PROB	1256119	n/a	LTP328	ltpFR2	15	n/a	n/a	n/a	13	15	9	5	1
2513.37	n/a	PROB	1256685	n/a	LTP328	ltpFR2	15	n/a	n/a	n/a	13	19	7	3	9
2514.52	n/a	PROB	1257260	n/a	LTP328	ltpFR2	15	n/a	n/a	n/a	13	21	8	8	5
2516.186	n/a	PROB	1258093	n/a	LTP328	ltpFR2	15	n/a	n/a	n/a	13	7	5	1	1
2517.252	n/a	PROB	1258626	n/a	LTP328	ltpFR2	15	n/a	n/a	n/a	13	24	7	9	8
2519.366	n/a	PROB	1259683	n/a	LTP328	ltpFR2	15	n/a	n/a	n/a	13	8	3	4	1
2520.55	n/a	PROB	1260275	n/a	LTP328	ltpFR2	15	n/a	n/a	n/a	13	13	4	5	4
2522.75	n/a	PROB	1261375	n/a	LTP328	ltpFR2	15	n/a	n/a	n/a	13	11	1	9	1
2523.832	n/a	PROB	1261916	n/a	LTP328	ltpFR2	15	n/a	n/a	n/a	13	18	6	6	6
2525.464	n/a	PROB	1262732	n/a	LTP328	ltpFR2	15	n/a	n/a	n/a	13	18	9	8	1
2527.398	n/a	PROB	1263699	n/a	LTP328	ltpFR2	15	n/a	n/a	n/a	13	15	3	7	5
2528.564	n/a	PROB	1264282	n/a	LTP328	ltpFR2	15	n/a	n/a	n/a	13	17	9	1	7
2529.746	n/a	PROB	1264873	n/a	LTP328	ltpFR2	15	n/a	n/a	n/a	13	17	8	6	3
2531.294	n/a	STOP	1265647	n/a	LTP328	ltpFR2	15	n/a	n/a	n/a	13	n/a	n/a	n/a	n/a
2533.806	n/a	REC_START	1266903	n/a	LTP328	ltpFR2	15	10	n/a	n/a	n/a	n/a	0	0	0
2536.0	n/a	REC_WORD	1268000	wordpools/wasnorm_wordpool_576.txt	LTP328	ltpFR2	15	10	DRAGON	492	n/a	n/a	0	0	0
2537.08	n/a	REC_WORD	1268540	wordpools/wasnorm_wordpool_576.txt	LTP328	ltpFR2	15	10	GHETTO	633	n/a	n/a	0	0	0
2538.158	n/a	REC_WORD	1269079	wordpools/wasnorm_wordpool_576.txt	LTP328	ltpFR2	15	10	BRANCH	168	n/a	n/a	0	0	0
2538.87	n/a	REC_WORD	1269435	wordpools/wasnorm_wordpool_576.txt	LTP328	ltpFR2	15	10	SLIDE	1326	n/a	n/a	0	0	0
2540.08	n/a	REC_WORD	1270040	wordpools/wasnorm_wordpool_576.txt	LTP328	ltpFR2	15	10	DIVER	476	n/a	n/a	0	0	0
2541.828	n/a	REC_WORD	1270914	wordpools/wasnorm_wordpool_576.txt	LTP328	ltpFR2	15	10	DOLPHIN	483	n/a	n/a	0	0	0
2546.674	n/a	REC_WORD	1273337	wordpools/wasnorm_wordpool_576.txt	LTP328	ltpFR2	15	10	WARDROBE	1587	n/a	n/a	0	0	0
2548.052	n/a	REC_WORD	1274026	wordpools/wasnorm_wordpool_576.txt	LTP328	ltpFR2	15	10	SUITCASE	1403	n/a	n/a	0	0	0
2548.984	n/a	REC_WORD	1274492	wordpools/wasnorm_wordpool_576.txt	LTP328	ltpFR2	15	10	PADDING	999	n/a	n/a	0	0	0
2549.834	n/a	REC_WORD	1274917	wordpools/wasnorm_wordpool_576.txt	LTP328	ltpFR2	15	10	BODY	145	n/a	n/a	0	0	0
2550.486	n/a	REC_WORD	1275243	wordpools/wasnorm_wordpool_576.txt	LTP328	ltpFR2	15	10	JELLO	754	n/a	n/a	0	0	0
2551.8	n/a	REC_WORD	1275900	wordpools/wasnorm_wordpool_576.txt	LTP328	ltpFR2	15	10	BACKBONE	66	n/a	n/a	0	0	0
2563.586	n/a	REC_WORD	1281793	wordpools/wasnorm_wordpool_576.txt	LTP328	ltpFR2	15	10	KIDNEY	776	n/a	n/a	0	0	0
2564.284	n/a	REC_WORD	1282142	wordpools/wasnorm_wordpool_576.txt	LTP328	ltpFR2	15	10	PICNIC	1060	n/a	n/a	0	0	0
2564.958	n/a	REC_WORD	1282479	wordpools/wasnorm_wordpool_576.txt	LTP328	ltpFR2	15	10	ATLAS	53	n/a	n/a	0	0	0
2565.706	n/a	REC_WORD	1282853	wordpools/wasnorm_wordpool_576.txt	LTP328	ltpFR2	15	10	SISTER	1312	n/a	n/a	0	0	0
2566.04	n/a	REC_WORD	1283020	wordpools/wasnorm_wordpool_576.txt	LTP328	ltpFR2	15	10	SISTER	1312	n/a	n/a	0	0	0
2566.364	n/a	REC_WORD	1283182	wordpools/wasnorm_wordpool_576.txt	LTP328	ltpFR2	15	10	STALLION	1369	n/a	n/a	0	0	0
2567.912	n/a	REC_WORD	1283956	wordpools/wasnorm_wordpool_576.txt	LTP328	ltpFR2	15	10	LUNCH	849	n/a	n/a	0	0	0
2624.452	n/a	DISTRACTOR	1312226	n/a	LTP328	ltpFR2	15	11	n/a	n/a	n/a	n/a	0	0	0
2624.452	n/a	START	1312226	n/a	LTP328	ltpFR2	15	n/a	n/a	n/a	14	n/a	n/a	n/a	n/a
2624.502	n/a	PROB	1312251	n/a	LTP328	ltpFR2	15	n/a	n/a	n/a	14	12	3	8	1
2626.218	n/a	PROB	1313109	n/a	LTP328	ltpFR2	15	n/a	n/a	n/a	14	13	6	5	2
2627.95	n/a	PROB	1313975	n/a	LTP328	ltpFR2	15	n/a	n/a	n/a	14	24	9	8	7
2629.798	n/a	PROB	1314899	n/a	LTP328	ltpFR2	15	n/a	n/a	n/a	14	19	7	3	9
2632.896	n/a	PROB	1316448	n/a	LTP328	ltpFR2	15	n/a	n/a	n/a	14	13	1	7	5
2634.198	n/a	PROB	1317099	n/a	LTP328	ltpFR2	15	n/a	n/a	n/a	14	16	7	5	4
2636.278	n/a	PROB	1318139	n/a	LTP328	ltpFR2	15	n/a	n/a	n/a	14	19	3	8	8
2637.612	n/a	PROB	1318806	n/a	LTP328	ltpFR2	15	n/a	n/a	n/a	14	19	3	7	9
2638.828	n/a	PROB	1319414	n/a	LTP328	ltpFR2	15	n/a	n/a	n/a	14	16	8	7	1
2640.094	n/a	PROB	1320047	n/a	LTP328	ltpFR2	15	n/a	n/a	n/a	14	15	5	6	4
2641.542	n/a	PROB	1320771	n/a	LTP328	ltpFR2	15	n/a	n/a	n/a	14	14	2	4	8
2643.108	n/a	PROB	1321554	n/a	LTP328	ltpFR2	15	n/a	n/a	n/a	14	16	1	9	6
2644.342	n/a	PROB	1322171	n/a	LTP328	ltpFR2	15	n/a	n/a	n/a	14	18	8	3	7
2648.452	n/a	STOP	1324226	n/a	LTP328	ltpFR2	15	n/a	n/a	n/a	14	n/a	n/a	n/a	n/a
2649.556	n/a	WORD	1324778	wordpools/wasnorm_wordpool_576.txt	LTP328	ltpFR2	15	11	PERFUME	1049	n/a	n/a	0	0	0
2652.338	n/a	WORD	1326169	wordpools/wasnorm_wordpool_576.txt	LTP328	ltpFR2	15	11	FRAGRANCE	599	n/a	n/a	0	0	0
2654.904	n/a	WORD	1327452	wordpools/wasnorm_wordpool_576.txt	LTP328	ltpFR2	15	11	SKILLET	1317	n/a	n/a	0	0	0
2657.486	n/a	WORD	1328743	wordpools/wasnorm_wordpool_576.txt	LTP328	ltpFR2	15	11	GRILL	661	n/a	n/a	0	0	0
2660.3	n/a	WORD	1330150	wordpools/wasnorm_wordpool_576.txt	LTP328	ltpFR2	15	11	MUFFIN	929	n/a	n/a	0	0	0
2663.116	n/a	WORD	1331558	wordpools/wasnorm_wordpool_576.txt	LTP328	ltpFR2	15	11	AUTHOR	61	n/a	n/a	0	0	0
2665.932	n/a	WORD	1332966	wordpools/wasnorm_wordpool_576.txt	LTP328	ltpFR2	15	11	POSSUM	1112	n/a	n/a	0	0	0
2668.664	n/a	WORD	1334332	wordpools/wasnorm_wordpool_576.txt	LTP328	ltpFR2	15	11	LUMBER	848	n/a	n/a	0	0	0
2671.278	n/a	WORD	1335639	wordpools/wasnorm_wordpool_576.txt	LTP328	ltpFR2	15	11	GARDEN	623	n/a	n/a	0	0	0
2674.11	n/a	WORD	1337055	wordpools/wasnorm_wordpool_576.txt	LTP328	ltpFR2	15	11	TRIBE	1505	n/a	n/a	0	0	0
2676.742	n/a	WORD	1338371	wordpools/wasnorm_wordpool_576.txt	LTP328	ltpFR2	15	11	COWBOY	395	n/a	n/a	0	0	0
2679.492	n/a	WORD	1339746	wordpools/wasnorm_wordpool_576.txt	LTP328	ltpFR2	15	11	NOMAD	955	n/a	n/a	0	0	0
2681.974	n/a	WORD	1340987	wordpools/wasnorm_wordpool_576.txt	LTP328	ltpFR2	15	11	MEDAL	885	n/a	n/a	0	0	0
2684.672	n/a	WORD	1342336	wordpools/wasnorm_wordpool_576.txt	LTP328	ltpFR2	15	11	FLOWER	584	n/a	n/a	0	0	0
2687.47	n/a	WORD	1343735	wordpools/wasnorm_wordpool_576.txt	LTP328	ltpFR2	15	11	FLESH	579	n/a	n/a	0	0	0
2690.238	n/a	WORD	1345119	wordpools/wasnorm_wordpool_576.txt	LTP328	ltpFR2	15	11	COUCH	386	n/a	n/a	0	0	0
2692.784	n/a	WORD	1346392	wordpools/wasnorm_wordpool_576.txt	LTP328	ltpFR2	15	11	GARLIC	624	n/a	n/a	0	0	0
2695.484	n/a	WORD	1347742	wordpools/wasnorm_wordpool_576.txt	LTP328	ltpFR2	15	11	REBEL	1172	n/a	n/a	0	0	0
2697.984	n/a	WORD	1348992	wordpools/wasnorm_wordpool_576.txt	LTP328	ltpFR2	15	11	BOARD	143	n/a	n/a	0	0	0
2700.732	n/a	WORD	1350366	wordpools/wasnorm_wordpool_576.txt	LTP328	ltpFR2	15	11	BUGGY	188	n/a	n/a	0	0	0
2703.214	n/a	WORD	1351607	wordpools/wasnorm_wordpool_576.txt	LTP328	ltpFR2	15	11	HERO	706	n/a	n/a	0	0	0
2705.846	n/a	WORD	1352923	wordpools/wasnorm_wordpool_576.txt	LTP328	ltpFR2	15	11	FRAME	600	n/a	n/a	0	0	0
2708.562	n/a	WORD	1354281	wordpools/wasnorm_wordpool_576.txt	LTP328	ltpFR2	15	11	ROBBER	1197	n/a	n/a	0	0	0
2711.344	n/a	WORD	1355672	wordpools/wasnorm_wordpool_576.txt	LTP328	ltpFR2	15	11	CASHEW	253	n/a	n/a	0	0	0
2712.96	n/a	START	1356480	n/a	LTP328	ltpFR2	15	n/a	n/a	n/a	15	n/a	n/a	n/a	n/a
2713.982	n/a	DISTRACTOR	1356991	n/a	LTP328	ltpFR2	15	11	n/a	n/a	n/a	n/a	0	0	0
2713.992	n/a	PROB	1356996	n/a	LTP328	ltpFR2	15	n/a	n/a	n/a	15	15	1	5	9
2715.408	n/a	PROB	1357704	n/a	LTP328	ltpFR2	15	n/a	n/a	n/a	15	19	4	7	8
2717.79	n/a	PROB	1358895	n/a	LTP328	ltpFR2	15	n/a	n/a	n/a	15	20	6	7	7
2719.19	n/a	PROB	1359595	n/a	LTP328	ltpFR2	15	n/a	n/a	n/a	15	15	9	1	5
2720.322	n/a	PROB	1360161	n/a	LTP328	ltpFR2	15	n/a	n/a	n/a	15	13	5	4	4
2721.654	n/a	PROB	1360827	n/a	LTP328	ltpFR2	15	n/a	n/a	n/a	15	22	6	9	7
2723.254	n/a	PROB	1361627	n/a	LTP328	ltpFR2	15	n/a	n/a	n/a	15	18	7	5	6
2725.752	n/a	PROB	1362876	n/a	LTP328	ltpFR2	15	n/a	n/a	n/a	15	14	2	9	3
2727.436	n/a	PROB	1363718	n/a	LTP328	ltpFR2	15	n/a	n/a	n/a	15	23	7	7	9
2728.784	n/a	PROB	1364392	n/a	LTP328	ltpFR2	15	n/a	n/a	n/a	15	17	5	8	4
2730.484	n/a	PROB	1365242	n/a	LTP328	ltpFR2	15	n/a	n/a	n/a	15	15	4	7	4
2732.65	n/a	PROB	1366325	n/a	LTP328	ltpFR2	15	n/a	n/a	n/a	15	20	4	9	7
2734.298	n/a	PROB	1367149	n/a	LTP328	ltpFR2	15	n/a	n/a	n/a	15	13	6	3	4
2736.674	n/a	STOP	1368337	n/a	LTP328	ltpFR2	15	n/a	n/a	n/a	15	n/a	n/a	n/a	n/a
2738.932	n/a	REC_START	1369466	n/a	LTP328	ltpFR2	15	11	n/a	n/a	n/a	n/a	0	0	0
2743.064	n/a	REC_WORD	1371532	wordpools/wasnorm_wordpool_576.txt	LTP328	ltpFR2	15	11	FRAGRANCE	599	n/a	n/a	0	0	0
2743.73	n/a	REC_WORD	1371865	wordpools/wasnorm_wordpool_576.txt	LTP328	ltpFR2	15	11	PERFUME	1049	n/a	n/a	0	0	0
2746.602	n/a	REC_WORD	1373301	wordpools/wasnorm_wordpool_576.txt	LTP328	ltpFR2	15	11	SKILLET	1317	n/a	n/a	0	0	0
2747.416	n/a	REC_WORD	1373708	wordpools/wasnorm_wordpool_576.txt	LTP328	ltpFR2	15	11	GRILL	661	n/a	n/a	0	0	0
2747.912	n/a	REC_WORD	1373956	wordpools/wasnorm_wordpool_576.txt	LTP328	ltpFR2	15	11	MUFFIN	929	n/a	n/a	0	0	0
2749.324	n/a	REC_WORD	1374662	wordpools/wasnorm_wordpool_576.txt	LTP328	ltpFR2	15	11	POSSUM	1112	n/a	n/a	0	0	0
2750.416	n/a	REC_WORD	1375208	wordpools/wasnorm_wordpool_576.txt	LTP328	ltpFR2	15	11	COOKBOOK	373	n/a	n/a	0	0	0
2829.57	n/a	DISTRACTOR	1414785	n/a	LTP328	ltpFR2	15	12	n/a	n/a	n/a	n/a	0	0	0
2829.572	n/a	START	1414786	n/a	LTP328	ltpFR2	15	n/a	n/a	n/a	16	n/a	n/a	n/a	n/a
2829.604	n/a	PROB	1414802	n/a	LTP328	ltpFR2	15	n/a	n/a	n/a	16	5	2	2	1
2831.054	n/a	PROB	1415527	n/a	LTP328	ltpFR2	15	n/a	n/a	n/a	16	20	4	7	9
2832.702	n/a	PROB	1416351	n/a	LTP328	ltpFR2	15	n/a	n/a	n/a	16	21	4	9	8
2834.436	n/a	PROB	1417218	n/a	LTP328	ltpFR2	15	n/a	n/a	n/a	16	17	9	1	7
2835.702	n/a	PROB	1417851	n/a	LTP328	ltpFR2	15	n/a	n/a	n/a	16	13	6	1	6
2836.884	n/a	PROB	1418442	n/a	LTP328	ltpFR2	15	n/a	n/a	n/a	16	4	1	2	1
2837.966	n/a	PROB	1418983	n/a	LTP328	ltpFR2	15	n/a	n/a	n/a	16	18	6	4	8
2839.466	n/a	PROB	1419733	n/a	LTP328	ltpFR2	15	n/a	n/a	n/a	16	13	3	4	6
2841.082	n/a	PROB	1420541	n/a	LTP328	ltpFR2	15	n/a	n/a	n/a	16	13	6	2	5
2842.598	n/a	PROB	1421299	n/a	LTP328	ltpFR2	15	n/a	n/a	n/a	16	19	6	5	8
2845.73	n/a	PROB	1422865	n/a	LTP328	ltpFR2	15	n/a	n/a	n/a	16	19	6	7	6
2847.878	n/a	PROB	1423939	n/a	LTP328	ltpFR2	15	n/a	n/a	n/a	16	18	4	9	5
2849.394	n/a	PROB	1424697	n/a	LTP328	ltpFR2	15	n/a	n/a	n/a	16	21	6	9	6
2851.194	n/a	PROB	1425597	n/a	LTP328	ltpFR2	15	n/a	n/a	n/a	16	14	1	7	6
2852.356	n/a	STOP	1426178	n/a	LTP328	ltpFR2	15	n/a	n/a	n/a	16	n/a	n/a	n/a	n/a
2854.458	n/a	WORD	1427229	wordpools/wasnorm_wordpool_576.txt	LTP328	ltpFR2	15	12	STAKE	1368	n/a	n/a	0	0	0
2857.174	n/a	WORD	1428587	wordpools/wasnorm_wordpool_576.txt	LTP328	ltpFR2	15	12	UNCLE	1536	n/a	n/a	0	0	0
2859.74	n/a	WORD	1429870	wordpools/wasnorm_wordpool_576.txt	LTP328	ltpFR2	15	12	GOBLIN	645	n/a	n/a	0	0	0
2862.388	n/a	WORD	1431194	wordpools/wasnorm_wordpool_576.txt	LTP328	ltpFR2	15	12	BLUEPRINT	142	n/a	n/a	0	0	0
2865.12	n/a	WORD	1432560	wordpools/wasnorm_wordpool_576.txt	LTP328	ltpFR2	15	12	PACKAGE	997	n/a	n/a	0	0	0
2867.718	n/a	WORD	1433859	wordpools/wasnorm_wordpool_576.txt	LTP328	ltpFR2	15	12	RABBIT	1152	n/a	n/a	0	0	0
2870.234	n/a	WORD	1435117	wordpools/wasnorm_wordpool_576.txt	LTP328	ltpFR2	15	12	BEAKER	104	n/a	n/a	0	0	0
2872.7	n/a	WORD	1436350	wordpools/wasnorm_wordpool_576.txt	LTP328	ltpFR2	15	12	LILY	821	n/a	n/a	0	0	0
2875.216	n/a	WORD	1437608	wordpools/wasnorm_wordpool_576.txt	LTP328	ltpFR2	15	12	NURSE	963	n/a	n/a	0	0	0
2878.032	n/a	WORD	1439016	wordpools/wasnorm_wordpool_576.txt	LTP328	ltpFR2	15	12	SURVEY	1414	n/a	n/a	0	0	0
2880.464	n/a	WORD	1440232	wordpools/wasnorm_wordpool_576.txt	LTP328	ltpFR2	15	12	CANDY	230	n/a	n/a	0	0	0
2883.046	n/a	WORD	1441523	wordpools/wasnorm_wordpool_576.txt	LTP328	ltpFR2	15	12	GRIZZLY	662	n/a	n/a	0	0	0
2885.51	n/a	WORD	1442755	wordpools/wasnorm_wordpool_576.txt	LTP328	ltpFR2	15	12	PUPPY	1144	n/a	n/a	0	0	0
2888.21	n/a	WORD	1444105	wordpools/wasnorm_wordpool_576.txt	LTP328	ltpFR2	15	12	FOX	598	n/a	n/a	0	0	0
2890.808	n/a	WORD	1445404	wordpools/wasnorm_wordpool_576.txt	LTP328	ltpFR2	15	12	ACTRESS	6	n/a	n/a	0	0	0
2893.34	n/a	WORD	1446670	wordpools/wasnorm_wordpool_576.txt	LTP328	ltpFR2	15	12	COURSE	390	n/a	n/a	0	0	0
2895.806	n/a	WORD	1447903	wordpools/wasnorm_wordpool_576.txt	LTP328	ltpFR2	15	12	JUGGLER	763	n/a	n/a	0	0	0
2898.638	n/a	WORD	1449319	wordpools/wasnorm_wordpool_576.txt	LTP328	ltpFR2	15	12	SEAL	1262	n/a	n/a	0	0	0
2901.352	n/a	WORD	1450676	wordpools/wasnorm_wordpool_576.txt	LTP328	ltpFR2	15	12	PEACH	1031	n/a	n/a	0	0	0
2904.018	n/a	WORD	1452009	wordpools/wasnorm_wordpool_576.txt	LTP328	ltpFR2	15	12	APPLE	33	n/a	n/a	0	0	0
2906.666	n/a	WORD	1453333	wordpools/wasnorm_wordpool_576.txt	LTP328	ltpFR2	15	12	SHELF	1280	n/a	n/a	0	0	0
2909.382	n/a	WORD	1454691	wordpools/wasnorm_wordpool_576.txt	LTP328	ltpFR2	15	12	CARROT	249	n/a	n/a	0	0	0
2911.88	n/a	WORD	1455940	wordpools/wasnorm_wordpool_576.txt	LTP328	ltpFR2	15	12	COLONEL	348	n/a	n/a	0	0	0
2914.648	n/a	WORD	1457324	wordpools/wasnorm_wordpool_576.txt	LTP328	ltpFR2	15	12	POSTAGE	1113	n/a	n/a	0	0	0
2916.264	n/a	START	1458132	n/a	LTP328	ltpFR2	15	n/a	n/a	n/a	17	n/a	n/a	n/a	n/a
2917.08	n/a	DISTRACTOR	1458540	n/a	LTP328	ltpFR2	15	12	n/a	n/a	n/a	n/a	0	0	0
2917.096	n/a	PROB	1458548	n/a	LTP328	ltpFR2	15	n/a	n/a	n/a	17	18	8	6	4
2918.796	n/a	PROB	1459398	n/a	LTP328	ltpFR2	15	n/a	n/a	n/a	17	12	2	6	4
2920.444	n/a	PROB	1460222	n/a	LTP328	ltpFR2	15	n/a	n/a	n/a	17	19	9	6	4
2922.376	n/a	PROB	1461188	n/a	LTP328	ltpFR2	15	n/a	n/a	n/a	17	16	5	4	7
2925.21	n/a	PROB	1462605	n/a	LTP328	ltpFR2	15	n/a	n/a	n/a	17	12	3	8	1
2926.592	n/a	PROB	1463296	n/a	LTP328	ltpFR2	15	n/a	n/a	n/a	17	24	9	9	6
2928.974	n/a	PROB	1464487	n/a	LTP328	ltpFR2	15	n/a	n/a	n/a	17	20	9	8	3
2930.79	n/a	PROB	1465395	n/a	LTP328	ltpFR2	15	n/a	n/a	n/a	17	27	9	9	9
2932.348	n/a	PROB	1466174	n/a	LTP328	ltpFR2	15	n/a	n/a	n/a	17	19	6	4	9
2933.538	n/a	PROB	1466769	n/a	LTP328	ltpFR2	15	n/a	n/a	n/a	17	23	6	8	9
2935.554	n/a	PROB	1467777	n/a	LTP328	ltpFR2	15	n/a	n/a	n/a	17	16	4	9	3
2938.318	n/a	PROB	1469159	n/a	LTP328	ltpFR2	15	n/a	n/a	n/a	17	16	2	9	5
2940.166	n/a	STOP	1470083	n/a	LTP328	ltpFR2	15	n/a	n/a	n/a	17	n/a	n/a	n/a	n/a
2942.236	n/a	REC_START	1471118	n/a	LTP328	ltpFR2	15	12	n/a	n/a	n/a	n/a	0	0	0
2944.116	n/a	REC_WORD	1472058	wordpools/wasnorm_wordpool_576.txt	LTP328	ltpFR2	15	12	UNCLE	1536	n/a	n/a	0	0	0
2945.084	n/a	REC_WORD	1472542	wordpools/wasnorm_wordpool_576.txt	LTP328	ltpFR2	15	12	GOBLIN	645	n/a	n/a	0	0	0
2945.7	n/a	REC_WORD	1472850	wordpools/wasnorm_wordpool_576.txt	LTP328	ltpFR2	15	12	STAKE	1368	n/a	n/a	0	0	0
2947.248	n/a	REC_WORD	1473624	wordpools/wasnorm_wordpool_576.txt	LTP328	ltpFR2	15	12	BLUEPRINT	142	n/a	n/a	0	0	0
2948.204	n/a	REC_WORD	1474102	wordpools/wasnorm_wordpool_576.txt	LTP328	ltpFR2	15	12	PACKAGE	997	n/a	n/a	0	0	0
2949.092	n/a	REC_WORD	1474546	wordpools/wasnorm_wordpool_576.txt	LTP328	ltpFR2	15	12	RABBIT	1152	n/a	n/a	0	0	0
2952.284	n/a	REC_WORD	1476142	wordpools/wasnorm_wordpool_576.txt	LTP328	ltpFR2	15	12	BEAKER	104	n/a	n/a	0	0	0
2954.656	n/a	REC_WORD	1477328	wordpools/wasnorm_wordpool_576.txt	LTP328	ltpFR2	15	12	LILY	821	n/a	n/a	0	0	0
2955.492	n/a	REC_WORD	1477746	wordpools/wasnorm_wordpool_576.txt	LTP328	ltpFR2	15	12	NURSE	963	n/a	n/a	0	0	0
2959.41	n/a	REC_WORD	1479705	wordpools/wasnorm_wordpool_576.txt	LTP328	ltpFR2	15	12	ACTRESS	6	n/a	n/a	0	0	0
2960.208	n/a	REC_WORD	1480104	wordpools/wasnorm_wordpool_576.txt	LTP328	ltpFR2	15	12	COURSE	390	n/a	n/a	0	0	0
2961.228	n/a	REC_WORD	1480614	wordpools/wasnorm_wordpool_576.txt	LTP328	ltpFR2	15	12	SHELF	1280	n/a	n/a	0	0	0
2966.818	n/a	REC_WORD	1483409	wordpools/wasnorm_wordpool_576.txt	LTP328	ltpFR2	15	12	SEAL	1262	n/a	n/a	0	0	0
2968.446	n/a	REC_WORD	1484223	wordpools/wasnorm_wordpool_576.txt	LTP328	ltpFR2	15	12	JUGGLER	763	n/a	n/a	0	0	0
2970.488	n/a	REC_WORD	1485244	wordpools/wasnorm_wordpool_576.txt	LTP328	ltpFR2	15	12	APPLE	33	n/a	n/a	0	0	0
2971.102	n/a	REC_WORD	1485551	wordpools/wasnorm_wordpool_576.txt	LTP328	ltpFR2	15	12	PEACH	1031	n/a	n/a	0	0	0
2977.542	n/a	REC_WORD	1488771	wordpools/wasnorm_wordpool_576.txt	LTP328	ltpFR2	15	12	NURSE	963	n/a	n/a	0	0	0
3032.89	n/a	WORD	1516445	wordpools/wasnorm_wordpool_576.txt	LTP328	ltpFR2	15	13	INMATE	738	n/a	n/a	0	0	0
3035.706	n/a	WORD	1517853	wordpools/wasnorm_wordpool_576.txt	LTP328	ltpFR2	15	13	VICTIM	1562	n/a	n/a	0	0	0
3038.388	n/a	WORD	1519194	wordpools/wasnorm_wordpool_576.txt	LTP328	ltpFR2	15	13	NIGHTGOWN	953	n/a	n/a	0	0	0
3040.904	n/a	WORD	1520452	wordpools/wasnorm_wordpool_576.txt	LTP328	ltpFR2	15	13	LUGGAGE	847	n/a	n/a	0	0	0
3043.668	n/a	WORD	1521834	wordpools/wasnorm_wordpool_576.txt	LTP328	ltpFR2	15	13	ORANGE	980	n/a	n/a	0	0	0
3046.118	n/a	WORD	1523059	wordpools/wasnorm_wordpool_576.txt	LTP328	ltpFR2	15	13	CLAMP	316	n/a	n/a	0	0	0
3048.65	n/a	WORD	1524325	wordpools/wasnorm_wordpool_576.txt	LTP328	ltpFR2	15	13	SILK	1307	n/a	n/a	0	0	0
3051.2	n/a	WORD	1525600	wordpools/wasnorm_wordpool_576.txt	LTP328	ltpFR2	15	13	LACE	792	n/a	n/a	0	0	0
3053.782	n/a	WORD	1526891	wordpools/wasnorm_wordpool_576.txt	LTP328	ltpFR2	15	13	ARM	38	n/a	n/a	0	0	0
3056.462	n/a	WORD	1528231	wordpools/wasnorm_wordpool_576.txt	LTP328	ltpFR2	15	13	BRACES	164	n/a	n/a	0	0	0
3059.196	n/a	WORD	1529598	wordpools/wasnorm_wordpool_576.txt	LTP328	ltpFR2	15	13	PIGEON	1065	n/a	n/a	0	0	0
3061.894	n/a	WORD	1530947	wordpools/wasnorm_wordpool_576.txt	LTP328	ltpFR2	15	13	SPARROW	1347	n/a	n/a	0	0	0
3064.442	n/a	WORD	1532221	wordpools/wasnorm_wordpool_576.txt	LTP328	ltpFR2	15	13	DENTIST	447	n/a	n/a	0	0	0
3067.208	n/a	WORD	1533604	wordpools/wasnorm_wordpool_576.txt	LTP328	ltpFR2	15	13	GUARD	667	n/a	n/a	0	0	0
3069.774	n/a	WORD	1534887	wordpools/wasnorm_wordpool_576.txt	LTP328	ltpFR2	15	13	DRIVER	499	n/a	n/a	0	0	0
3072.256	n/a	WORD	1536128	wordpools/wasnorm_wordpool_576.txt	LTP328	ltpFR2	15	13	MONEY	908	n/a	n/a	0	0	0
3074.97	n/a	WORD	1537485	wordpools/wasnorm_wordpool_576.txt	LTP328	ltpFR2	15	13	MATCH	878	n/a	n/a	0	0	0
3077.686	n/a	WORD	1538843	wordpools/wasnorm_wordpool_576.txt	LTP328	ltpFR2	15	13	AWARD	63	n/a	n/a	0	0	0
3080.168	n/a	WORD	1540084	wordpools/wasnorm_wordpool_576.txt	LTP328	ltpFR2	15	13	COD	340	n/a	n/a	0	0	0
3082.616	n/a	WORD	1541308	wordpools/wasnorm_wordpool_576.txt	LTP328	ltpFR2	15	13	SWIMMER	1420	n/a	n/a	0	0	0
3085.316	n/a	WORD	1542658	wordpools/wasnorm_wordpool_576.txt	LTP328	ltpFR2	15	13	CHEST	295	n/a	n/a	0	0	0
3088.114	n/a	WORD	1544057	wordpools/wasnorm_wordpool_576.txt	LTP328	ltpFR2	15	13	LASER	801	n/a	n/a	0	0	0
3090.596	n/a	WORD	1545298	wordpools/wasnorm_wordpool_576.txt	LTP328	ltpFR2	15	13	BANKER	84	n/a	n/a	0	0	0
3093.28	n/a	WORD	1546640	wordpools/wasnorm_wordpool_576.txt	LTP328	ltpFR2	15	13	FINGER	567	n/a	n/a	0	0	0
3094.896	n/a	START	1547448	n/a	LTP328	ltpFR2	15	n/a	n/a	n/a	18	n/a	n/a	n/a	n/a
3096.038	n/a	DISTRACTOR	1548019	n/a	LTP328	ltpFR2	15	13	n/a	n/a	n/a	n/a	0	0	0
3096.044	n/a	PROB	1548022	n/a	LTP328	ltpFR2	15	n/a	n/a	n/a	18	6	1	3	2
3098.36	n/a	PROB	1549180	n/a	LTP328	ltpFR2	15	n/a	n/a	n/a	18	15	2	8	5
3099.976	n/a	PROB	1549988	n/a	LTP328	ltpFR2	15	n/a	n/a	n/a	18	8	2	4	2
3101.758	n/a	PROB	1550879	n/a	LTP328	ltpFR2	15	n/a	n/a	n/a	18	20	8	9	3
3104.242	n/a	PROB	1552121	n/a	LTP328	ltpFR2	15	n/a	n/a	n/a	18	21	9	4	8
3106.322	n/a	PROB	1553161	n/a	LTP328	ltpFR2	15	n/a	n/a	n/a	18	18	7	9	2
3108.572	n/a	PROB	1554286	n/a	LTP328	ltpFR2	15	n/a	n/a	n/a	18	14	1	9	4
3109.788	n/a	PROB	1554894	n/a	LTP328	ltpFR2	15	n/a	n/a	n/a	18	12	4	7	1
3110.986	n/a	PROB	1555493	n/a	LTP328	ltpFR2	15	n/a	n/a	n/a	18	14	7	2	5
3112.3	n/a	PROB	1556150	n/a	LTP328	ltpFR2	15	n/a	n/a	n/a	18	17	2	9	6
3114.612	n/a	PROB	1557306	n/a	LTP328	ltpFR2	15	n/a	n/a	n/a	18	11	2	4	5
3116.252	n/a	PROB	1558126	n/a	LTP328	ltpFR2	15	n/a	n/a	n/a	18	18	6	6	6
3117.498	n/a	STOP	1558749	n/a	LTP328	ltpFR2	15	n/a	n/a	n/a	18	n/a	n/a	n/a	n/a
3120.75	n/a	REC_START	1560375	n/a	LTP328	ltpFR2	15	13	n/a	n/a	n/a	n/a	0	0	0
3122.576	n/a	REC_WORD	1561288	wordpools/wasnorm_wordpool_576.txt	LTP328	ltpFR2	15	13	LASER	801	n/a	n/a	0	0	0
3123.312	n/a	REC_WORD	1561656	wordpools/wasnorm_wordpool_576.txt	LTP328	ltpFR2	15	13	BANKER	84	n/a	n/a	0	0	0
3123.836	n/a	REC_WORD	1561918	wordpools/wasnorm_wordpool_576.txt	LTP328	ltpFR2	15	13	FINGER	567	n/a	n/a	0	0	0
3131.828	n/a	REC_WORD	1565914	wordpools/wasnorm_wordpool_576.txt	LTP328	ltpFR2	15	13	DENTIST	447	n/a	n/a	0	0	0
3132.692	n/a	REC_WORD	1566346	wordpools/wasnorm_wordpool_576.txt	LTP328	ltpFR2	15	13	GUARD	667	n/a	n/a	0	0	0
3134.46	n/a	REC_WORD	1567230	wordpools/wasnorm_wordpool_576.txt	LTP328	ltpFR2	15	13	PIGEON	1065	n/a	n/a	0	0	0
3135.014	n/a	REC_WORD	1567507	wordpools/wasnorm_wordpool_576.txt	LTP328	ltpFR2	15	13	SPARROW	1347	n/a	n/a	0	0	0
3145.018	n/a	REC_WORD	1572509	wordpools/wasnorm_wordpool_576.txt	LTP328	ltpFR2	15	13	CHEST	295	n/a	n/a	0	0	0
3145.682	n/a	REC_WORD	1572841	wordpools/wasnorm_wordpool_576.txt	LTP328	ltpFR2	15	13	SWIMMER	1420	n/a	n/a	0	0	0
3146.96	n/a	REC_WORD	1573480	wordpools/wasnorm_wordpool_576.txt	LTP328	ltpFR2	15	13	COD	340	n/a	n/a	0	0	0
3147.474	n/a	REC_WORD	1573737	wordpools/wasnorm_wordpool_576.txt	LTP328	ltpFR2	15	13	AWARD	63	n/a	n/a	0	0	0
3148.23	n/a	REC_WORD	1574115	wordpools/wasnorm_wordpool_576.txt	LTP328	ltpFR2	15	13	MATCH	878	n/a	n/a	0	0	0
3151.856	n/a	REC_WORD	1575928	wordpools/wasnorm_wordpool_576.txt	LTP328	ltpFR2	15	13	CHEST	295	n/a	n/a	0	0	0
3161.114	n/a	REC_WORD	1580557	wordpools/wasnorm_wordpool_576.txt	LTP328	ltpFR2	15	13	BRACES	164	n/a	n/a	0	0	0
3162.406	n/a	REC_WORD	1581203	wordpools/wasnorm_wordpool_576.txt	LTP328	ltpFR2	15	13	ORANGE	980	n/a	n/a	0	0	0
3193.778	n/a	REC_WORD	1596889	wordpools/wasnorm_wordpool_576.txt	LTP328	ltpFR2	15	13	VICTIM	1562	n/a	n/a	0	0	0
3195.064	n/a	REC_WORD	1597532	wordpools/wasnorm_wordpool_576.txt	LTP328	ltpFR2	15	13	NIGHTGOWN	953	n/a	n/a	0	0	0
3211.438	n/a	WORD	1605719	wordpools/wasnorm_wordpool_576.txt	LTP328	ltpFR2	15	14	BLOCKADE	137	n/a	n/a	0	0	0
3214.17	n/a	WORD	1607085	wordpools/wasnorm_wordpool_576.txt	LTP328	ltpFR2	15	14	LAVA	804	n/a	n/a	0	0	0
3216.72	n/a	WORD	1608360	wordpools/wasnorm_wordpool_576.txt	LTP328	ltpFR2	15	14	ACTOR	5	n/a	n/a	0	0	0
3219.402	n/a	WORD	1609701	wordpools/wasnorm_wordpool_576.txt	LTP328	ltpFR2	15	14	SMOG	1330	n/a	n/a	0	0	0
3222.052	n/a	WORD	1611026	wordpools/wasnorm_wordpool_576.txt	LTP328	ltpFR2	15	14	HEDGE	699	n/a	n/a	0	0	0
3224.55	n/a	WORD	1612275	wordpools/wasnorm_wordpool_576.txt	LTP328	ltpFR2	15	14	HEART	697	n/a	n/a	0	0	0
3227.148	n/a	WORD	1613574	wordpools/wasnorm_wordpool_576.txt	LTP328	ltpFR2	15	14	FRIAR	605	n/a	n/a	0	0	0
3229.798	n/a	WORD	1614899	wordpools/wasnorm_wordpool_576.txt	LTP328	ltpFR2	15	14	BASEMENT	94	n/a	n/a	0	0	0
3232.446	n/a	WORD	1616223	wordpools/wasnorm_wordpool_576.txt	LTP328	ltpFR2	15	14	CLOUD	328	n/a	n/a	0	0	0
3234.962	n/a	WORD	1617481	wordpools/wasnorm_wordpool_576.txt	LTP328	ltpFR2	15	14	ARMY	39	n/a	n/a	0	0	0
3237.76	n/a	WORD	1618880	wordpools/wasnorm_wordpool_576.txt	LTP328	ltpFR2	15	14	BLENDER	136	n/a	n/a	0	0	0
3240.608	n/a	WORD	1620304	wordpools/wasnorm_wordpool_576.txt	LTP328	ltpFR2	15	14	COOKBOOK	373	n/a	n/a	0	0	0
3243.124	n/a	WORD	1621562	wordpools/wasnorm_wordpool_576.txt	LTP328	ltpFR2	15	14	TORTOISE	1486	n/a	n/a	0	0	0
3245.706	n/a	WORD	1622853	wordpools/wasnorm_wordpool_576.txt	LTP328	ltpFR2	15	14	WHISKERS	1605	n/a	n/a	0	0	0
3248.24	n/a	WORD	1624120	wordpools/wasnorm_wordpool_576.txt	LTP328	ltpFR2	15	14	TRANSPLANT	1496	n/a	n/a	0	0	0
3250.97	n/a	WORD	1625485	wordpools/wasnorm_wordpool_576.txt	LTP328	ltpFR2	15	14	SLOPE	1328	n/a	n/a	0	0	0
3253.686	n/a	WORD	1626843	wordpools/wasnorm_wordpool_576.txt	LTP328	ltpFR2	15	14	HIKER	708	n/a	n/a	0	0	0
3256.218	n/a	WORD	1628109	wordpools/wasnorm_wordpool_576.txt	LTP328	ltpFR2	15	14	CRIB	407	n/a	n/a	0	0	0
3258.934	n/a	WORD	1629467	wordpools/wasnorm_wordpool_576.txt	LTP328	ltpFR2	15	14	CHILD	299	n/a	n/a	0	0	0
3261.714	n/a	WORD	1630857	wordpools/wasnorm_wordpool_576.txt	LTP328	ltpFR2	15	14	MESSAGE	888	n/a	n/a	0	0	0
3264.53	n/a	WORD	1632265	wordpools/wasnorm_wordpool_576.txt	LTP328	ltpFR2	15	14	PROTON	1132	n/a	n/a	0	0	0
3267.03	n/a	WORD	1633515	wordpools/wasnorm_wordpool_576.txt	LTP328	ltpFR2	15	14	GRAPE	654	n/a	n/a	0	0	0
3269.562	n/a	WORD	1634781	wordpools/wasnorm_wordpool_576.txt	LTP328	ltpFR2	15	14	DORM	488	n/a	n/a	0	0	0
3272.044	n/a	WORD	1636022	wordpools/wasnorm_wordpool_576.txt	LTP328	ltpFR2	15	14	COMET	353	n/a	n/a	0	0	0
3273.678	n/a	START	1636839	n/a	LTP328	ltpFR2	15	n/a	n/a	n/a	19	n/a	n/a	n/a	n/a
3274.648	n/a	DISTRACTOR	1637324	n/a	LTP328	ltpFR2	15	14	n/a	n/a	n/a	n/a	0	0	0
3274.676	n/a	PROB	1637338	n/a	LTP328	ltpFR2	15	n/a	n/a	n/a	19	23	9	9	5
3277.21	n/a	PROB	1638605	n/a	LTP328	ltpFR2	15	n/a	n/a	n/a	19	7	4	1	2
3278.524	n/a	PROB	1639262	n/a	LTP328	ltpFR2	15	n/a	n/a	n/a	19	19	6	5	8
3280.108	n/a	PROB	1640054	n/a	LTP328	ltpFR2	15	n/a	n/a	n/a	19	10	7	1	2
3281.34	n/a	PROB	1640670	n/a	LTP328	ltpFR2	15	n/a	n/a	n/a	19	21	7	9	5
3284.672	n/a	PROB	1642336	n/a	LTP328	ltpFR2	15	n/a	n/a	n/a	19	14	5	5	4
3285.838	n/a	PROB	1642919	n/a	LTP328	ltpFR2	15	n/a	n/a	n/a	19	12	1	7	4
3288.286	n/a	PROB	1644143	n/a	LTP328	ltpFR2	15	n/a	n/a	n/a	19	18	7	3	8
3289.902	n/a	PROB	1644951	n/a	LTP328	ltpFR2	15	n/a	n/a	n/a	19	16	4	5	7
3291.27	n/a	PROB	1645635	n/a	LTP328	ltpFR2	15	n/a	n/a	n/a	19	12	1	7	4
3292.45	n/a	PROB	1646225	n/a	LTP328	ltpFR2	15	n/a	n/a	n/a	19	19	7	5	7
3293.984	n/a	PROB	1646992	n/a	LTP328	ltpFR2	15	n/a	n/a	n/a	19	15	7	1	7
3295.132	n/a	PROB	1647566	n/a	LTP328	ltpFR2	15	n/a	n/a	n/a	19	13	8	3	2
3296.758	n/a	STOP	1648379	n/a	LTP328	ltpFR2	15	n/a	n/a	n/a	19	n/a	n/a	n/a	n/a
3299.532	n/a	REC_START	1649766	n/a	LTP328	ltpFR2	15	14	n/a	n/a	n/a	n/a	0	0	0
3304.464	n/a	REC_WORD	1652232	wordpools/wasnorm_wordpool_576.txt	LTP328	ltpFR2	15	14	BLOCKADE	137	n/a	n/a	0	0	0
3305.32	n/a	REC_WORD	1652660	wordpools/wasnorm_wordpool_576.txt	LTP328	ltpFR2	15	14	LAVA	804	n/a	n/a	0	0	0
3306.088	n/a	REC_WORD	1653044	wordpools/wasnorm_wordpool_576.txt	LTP328	ltpFR2	15	14	ACTOR	5	n/a	n/a	0	0	0
3308.468	n/a	REC_WORD	1654234	wordpools/wasnorm_wordpool_576.txt	LTP328	ltpFR2	15	14	SMOG	1330	n/a	n/a	0	0	0
3309.05	n/a	REC_WORD	1654525	wordpools/wasnorm_wordpool_576.txt	LTP328	ltpFR2	15	14	HEDGE	699	n/a	n/a	0	0	0
3310.212	n/a	REC_WORD	1655106	wordpools/wasnorm_wordpool_576.txt	LTP328	ltpFR2	15	14	HEART	697	n/a	n/a	0	0	0
3310.66	n/a	REC_WORD	1655330	wordpools/wasnorm_wordpool_576.txt	LTP328	ltpFR2	15	14	FRIAR	605	n/a	n/a	0	0	0
3311.378	n/a	REC_WORD	1655689	wordpools/wasnorm_wordpool_576.txt	LTP328	ltpFR2	15	14	BASEMENT	94	n/a	n/a	0	0	0
3312.072	n/a	REC_WORD	1656036	wordpools/wasnorm_wordpool_576.txt	LTP328	ltpFR2	15	14	CLOUD	328	n/a	n/a	0	0	0
3313.662	n/a	REC_WORD	1656831	wordpools/wasnorm_wordpool_576.txt	LTP328	ltpFR2	15	14	ARMY	39	n/a	n/a	0	0	0
3320.138	n/a	REC_WORD	1660069	wordpools/wasnorm_wordpool_576.txt	LTP328	ltpFR2	15	14	COOKBOOK	373	n/a	n/a	0	0	0
3321.406	n/a	REC_WORD	1660703	wordpools/wasnorm_wordpool_576.txt	LTP328	ltpFR2	15	14	BLENDER	136	n/a	n/a	0	0	0
3322.502	n/a	REC_WORD	1661251	wordpools/wasnorm_wordpool_576.txt	LTP328	ltpFR2	15	14	TORTOISE	1486	n/a	n/a	0	0	0
3323.14	n/a	REC_WORD	1661570	wordpools/wasnorm_wordpool_576.txt	LTP328	ltpFR2	15	14	WHISKERS	1605	n/a	n/a	0	0	0
3323.9	n/a	REC_WORD	1661950	wordpools/wasnorm_wordpool_576.txt	LTP328	ltpFR2	15	14	TRANSPLANT	1496	n/a	n/a	0	0	0
3324.738	n/a	REC_WORD	1662369	wordpools/wasnorm_wordpool_576.txt	LTP328	ltpFR2	15	14	SLOPE	1328	n/a	n/a	0	0	0
3325.398	n/a	REC_WORD	1662699	wordpools/wasnorm_wordpool_576.txt	LTP328	ltpFR2	15	14	HIKER	708	n/a	n/a	0	0	0
3326.046	n/a	REC_WORD	1663023	wordpools/wasnorm_wordpool_576.txt	LTP328	ltpFR2	15	14	CRIB	407	n/a	n/a	0	0	0
3326.584	n/a	REC_WORD	1663292	wordpools/wasnorm_wordpool_576.txt	LTP328	ltpFR2	15	14	CHILD	299	n/a	n/a	0	0	0
3327.54	n/a	REC_WORD	1663770	wordpools/wasnorm_wordpool_576.txt	LTP328	ltpFR2	15	14	MESSAGE	888	n/a	n/a	0	0	0
3390.222	n/a	DISTRACTOR	1695111	n/a	LTP328	ltpFR2	15	15	n/a	n/a	n/a	n/a	0	0	0
3390.222	n/a	START	1695111	n/a	LTP328	ltpFR2	15	n/a	n/a	n/a	20	n/a	n/a	n/a	n/a
3390.272	n/a	PROB	1695136	n/a	LTP328	ltpFR2	15	n/a	n/a	n/a	20	18	6	6	6
3391.554	n/a	PROB	1695777	n/a	LTP328	ltpFR2	15	n/a	n/a	n/a	20	6	1	4	1
3392.736	n/a	PROB	1696368	n/a	LTP328	ltpFR2	15	n/a	n/a	n/a	20	11	1	8	2
3393.92	n/a	PROB	1696960	n/a	LTP328	ltpFR2	15	n/a	n/a	n/a	20	22	9	7	6
3395.652	n/a	PROB	1697826	n/a	LTP328	ltpFR2	15	n/a	n/a	n/a	20	15	2	5	8
3397.834	n/a	PROB	1698917	n/a	LTP328	ltpFR2	15	n/a	n/a	n/a	20	18	2	7	9
3399.334	n/a	PROB	1699667	n/a	LTP328	ltpFR2	15	n/a	n/a	n/a	20	18	2	7	9
3400.45	n/a	PROB	1700225	n/a	LTP328	ltpFR2	15	n/a	n/a	n/a	20	15	9	1	5
3401.55	n/a	PROB	1700775	n/a	LTP328	ltpFR2	15	n/a	n/a	n/a	20	17	2	8	7
3403.016	n/a	PROB	1701508	n/a	LTP328	ltpFR2	15	n/a	n/a	n/a	20	7	2	4	1
3404.25	n/a	PROB	1702125	n/a	LTP328	ltpFR2	15	n/a	n/a	n/a	20	17	6	8	3
3405.964	n/a	PROB	1702982	n/a	LTP328	ltpFR2	15	n/a	n/a	n/a	20	19	9	2	8
3407.746	n/a	PROB	1703873	n/a	LTP328	ltpFR2	15	n/a	n/a	n/a	20	16	2	7	7
3409.412	n/a	PROB	1704706	n/a	LTP328	ltpFR2	15	n/a	n/a	n/a	20	15	4	2	9
3410.762	n/a	PROB	1705381	n/a	LTP328	ltpFR2	15	n/a	n/a	n/a	20	19	9	1	9
3412.278	n/a	PROB	1706139	n/a	LTP328	ltpFR2	15	n/a	n/a	n/a	20	21	9	4	8
3413.826	n/a	STOP	1706913	n/a	LTP328	ltpFR2	15	n/a	n/a	n/a	20	n/a	n/a	n/a	n/a
3415.326	n/a	WORD	1707663	wordpools/wasnorm_wordpool_576.txt	LTP328	ltpFR2	15	15	SHRUB	1299	n/a	n/a	0	0	0
3417.808	n/a	WORD	1708904	wordpools/wasnorm_wordpool_576.txt	LTP328	ltpFR2	15	15	RECORD	1176	n/a	n/a	0	0	0
3420.506	n/a	WORD	1710253	wordpools/wasnorm_wordpool_576.txt	LTP328	ltpFR2	15	15	INFANT	737	n/a	n/a	0	0	0
3423.306	n/a	WORD	1711653	wordpools/wasnorm_wordpool_576.txt	LTP328	ltpFR2	15	15	BABY	64	n/a	n/a	0	0	0
3426.154	n/a	WORD	1713077	wordpools/wasnorm_wordpool_576.txt	LTP328	ltpFR2	15	15	FRANCE	601	n/a	n/a	0	0	0
3428.97	n/a	WORD	1714485	wordpools/wasnorm_wordpool_576.txt	LTP328	ltpFR2	15	15	SLIME	1327	n/a	n/a	0	0	0
3431.418	n/a	WORD	1715709	wordpools/wasnorm_wordpool_576.txt	LTP328	ltpFR2	15	15	COMPASS	358	n/a	n/a	0	0	0
3434.166	n/a	WORD	1717083	wordpools/wasnorm_wordpool_576.txt	LTP328	ltpFR2	15	15	TABLE	1426	n/a	n/a	0	0	0
3436.916	n/a	WORD	1718458	wordpools/wasnorm_wordpool_576.txt	LTP328	ltpFR2	15	15	GAVEL	627	n/a	n/a	0	0	0
3439.614	n/a	WORD	1719807	wordpools/wasnorm_wordpool_576.txt	LTP328	ltpFR2	15	15	SPACE	1345	n/a	n/a	0	0	0
3442.164	n/a	WORD	1721082	wordpools/wasnorm_wordpool_576.txt	LTP328	ltpFR2	15	15	CRATER	400	n/a	n/a	0	0	0
3444.812	n/a	WORD	1722406	wordpools/wasnorm_wordpool_576.txt	LTP328	ltpFR2	15	15	KNIFE	785	n/a	n/a	0	0	0
3447.294	n/a	WORD	1723647	wordpools/wasnorm_wordpool_576.txt	LTP328	ltpFR2	15	15	FLAG	573	n/a	n/a	0	0	0
3449.744	n/a	WORD	1724872	wordpools/wasnorm_wordpool_576.txt	LTP328	ltpFR2	15	15	SHELTER	1282	n/a	n/a	0	0	0
3452.21	n/a	WORD	1726105	wordpools/wasnorm_wordpool_576.txt	LTP328	ltpFR2	15	15	FOREST	593	n/a	n/a	0	0	0
3454.758	n/a	WORD	1727379	wordpools/wasnorm_wordpool_576.txt	LTP328	ltpFR2	15	15	CATCHER	258	n/a	n/a	0	0	0
3457.208	n/a	WORD	1728604	wordpools/wasnorm_wordpool_576.txt	LTP328	ltpFR2	15	15	TREAT	1501	n/a	n/a	0	0	0
3460.004	n/a	WORD	1730002	wordpools/wasnorm_wordpool_576.txt	LTP328	ltpFR2	15	15	OMELET	976	n/a	n/a	0	0	0
3462.704	n/a	WORD	1731352	wordpools/wasnorm_wordpool_576.txt	LTP328	ltpFR2	15	15	TURKEY	1520	n/a	n/a	0	0	0
3465.436	n/a	WORD	1732718	wordpools/wasnorm_wordpool_576.txt	LTP328	ltpFR2	15	15	UMPIRE	1535	n/a	n/a	0	0	0
3468.184	n/a	WORD	1734092	wordpools/wasnorm_wordpool_576.txt	LTP328	ltpFR2	15	15	FIDDLE	561	n/a	n/a	0	0	0
3470.766	n/a	WORD	1735383	wordpools/wasnorm_wordpool_576.txt	LTP328	ltpFR2	15	15	OUTDOORS	987	n/a	n/a	0	0	0
3473.232	n/a	WORD	1736616	wordpools/wasnorm_wordpool_576.txt	LTP328	ltpFR2	15	15	GROUND	666	n/a	n/a	0	0	0
3476.064	n/a	WORD	1738032	wordpools/wasnorm_wordpool_576.txt	LTP328	ltpFR2	15	15	LIGHTNING	820	n/a	n/a	0	0	0
3477.696	n/a	START	1738848	n/a	LTP328	ltpFR2	15	n/a	n/a	n/a	21	n/a	n/a	n/a	n/a
3478.872	n/a	DISTRACTOR	1739436	n/a	LTP328	ltpFR2	15	15	n/a	n/a	n/a	n/a	0	0	0
3478.896	n/a	PROB	1739448	n/a	LTP328	ltpFR2	15	n/a	n/a	n/a	21	16	5	4	7
3480.994	n/a	PROB	1740497	n/a	LTP328	ltpFR2	15	n/a	n/a	n/a	21	6	3	1	2
3482.494	n/a	PROB	1741247	n/a	LTP328	ltpFR2	15	n/a	n/a	n/a	21	19	7	7	5
3484.41	n/a	PROB	1742205	n/a	LTP328	ltpFR2	15	n/a	n/a	n/a	21	11	3	7	1
3485.51	n/a	PROB	1742755	n/a	LTP328	ltpFR2	15	n/a	n/a	n/a	21	16	4	3	8
3487.158	n/a	PROB	1743579	n/a	LTP328	ltpFR2	15	n/a	n/a	n/a	21	9	3	1	5
3489.542	n/a	PROB	1744771	n/a	LTP328	ltpFR2	15	n/a	n/a	n/a	21	18	8	5	5
3490.974	n/a	PROB	1745487	n/a	LTP328	ltpFR2	15	n/a	n/a	n/a	21	13	5	1	7
3492.406	n/a	PROB	1746203	n/a	LTP328	ltpFR2	15	n/a	n/a	n/a	21	19	6	6	7
3493.856	n/a	PROB	1746928	n/a	LTP328	ltpFR2	15	n/a	n/a	n/a	21	15	6	4	5
3495.172	n/a	PROB	1747586	n/a	LTP328	ltpFR2	15	n/a	n/a	n/a	21	15	4	8	3
3496.77	n/a	PROB	1748385	n/a	LTP328	ltpFR2	15	n/a	n/a	n/a	21	19	2	8	9
3498.17	n/a	PROB	1749085	n/a	LTP328	ltpFR2	15	n/a	n/a	n/a	21	16	9	1	6
3499.288	n/a	PROB	1749644	n/a	LTP328	ltpFR2	15	n/a	n/a	n/a	21	19	3	9	7
3501.444	n/a	STOP	1750722	n/a	LTP328	ltpFR2	15	n/a	n/a	n/a	21	n/a	n/a	n/a	n/a
3503.584	n/a	REC_START	1751792	n/a	LTP328	ltpFR2	15	15	n/a	n/a	n/a	n/a	0	0	0
3505.856	n/a	REC_WORD	1752928	wordpools/wasnorm_wordpool_576.txt	LTP328	ltpFR2	15	15	SHRUB	1299	n/a	n/a	0	0	0
3506.666	n/a	REC_WORD	1753333	wordpools/wasnorm_wordpool_576.txt	LTP328	ltpFR2	15	15	RECORD	1176	n/a	n/a	0	0	0
3507.368	n/a	REC_WORD	1753684	wordpools/wasnorm_wordpool_576.txt	LTP328	ltpFR2	15	15	INFANT	737	n/a	n/a	0	0	0
3508.022	n/a	REC_WORD	1754011	wordpools/wasnorm_wordpool_576.txt	LTP328	ltpFR2	15	15	BABY	64	n/a	n/a	0	0	0
3511.56	n/a	REC_WORD	1755780	wordpools/wasnorm_wordpool_576.txt	LTP328	ltpFR2	15	15	FRANCE	601	n/a	n/a	0	0	0
3512.442	n/a	REC_WORD	1756221	wordpools/wasnorm_wordpool_576.txt	LTP328	ltpFR2	15	15	SLIME	1327	n/a	n/a	0	0	0
3513.338	n/a	REC_WORD	1756669	wordpools/wasnorm_wordpool_576.txt	LTP328	ltpFR2	15	15	COMPASS	358	n/a	n/a	0	0	0
3517.456	n/a	REC_WORD	1758728	wordpools/wasnorm_wordpool_576.txt	LTP328	ltpFR2	15	15	CRATER	400	n/a	n/a	0	0	0
3518.15	n/a	REC_WORD	1759075	wordpools/wasnorm_wordpool_576.txt	LTP328	ltpFR2	15	15	KNIFE	785	n/a	n/a	0	0	0
3518.812	n/a	REC_WORD	1759406	wordpools/wasnorm_wordpool_576.txt	LTP328	ltpFR2	15	15	FLAG	573	n/a	n/a	0	0	0
3521.596	n/a	REC_WORD	1760798	wordpools/wasnorm_wordpool_576.txt	LTP328	ltpFR2	15	15	CATCHER	258	n/a	n/a	0	0	0
3522.298	n/a	REC_WORD	1761149	wordpools/wasnorm_wordpool_576.txt	LTP328	ltpFR2	15	15	TREAT	1501	n/a	n/a	0	0	0
3522.802	n/a	REC_WORD	1761401	wordpools/wasnorm_wordpool_576.txt	LTP328	ltpFR2	15	15	OMELET	976	n/a	n/a	0	0	0
3523.44	n/a	REC_WORD	1761720	wordpools/wasnorm_wordpool_576.txt	LTP328	ltpFR2	15	15	TURKEY	1520	n/a	n/a	0	0	0
3524.144	n/a	REC_WORD	1762072	wordpools/wasnorm_wordpool_576.txt	LTP328	ltpFR2	15	15	UMPIRE	1535	n/a	n/a	0	0	0
3524.674	n/a	REC_WORD	1762337	wordpools/wasnorm_wordpool_576.txt	LTP328	ltpFR2	15	15	FIDDLE	561	n/a	n/a	0	0	0
3525.25	n/a	REC_WORD	1762625	wordpools/wasnorm_wordpool_576.txt	LTP328	ltpFR2	15	15	OUTDOORS	987	n/a	n/a	0	0	0
3594.242	n/a	DISTRACTOR	1797121	n/a	LTP328	ltpFR2	15	16	n/a	n/a	n/a	n/a	0	0	0
3594.242	n/a	START	1797121	n/a	LTP328	ltpFR2	15	n/a	n/a	n/a	22	n/a	n/a	n/a	n/a
3594.292	n/a	PROB	1797146	n/a	LTP328	ltpFR2	15	n/a	n/a	n/a	22	11	6	2	3
3595.774	n/a	PROB	1797887	n/a	LTP328	ltpFR2	15	n/a	n/a	n/a	22	20	7	5	8
3597.704	n/a	PROB	1798852	n/a	LTP328	ltpFR2	15	n/a	n/a	n/a	22	26	8	9	9
3599.606	n/a	PROB	1799803	n/a	LTP328	ltpFR2	15	n/a	n/a	n/a	22	10	4	4	2
3600.854	n/a	PROB	1800427	n/a	LTP328	ltpFR2	15	n/a	n/a	n/a	22	17	3	9	6
3602.536	n/a	PROB	1801268	n/a	LTP328	ltpFR2	15	n/a	n/a	n/a	22	19	9	7	3
3603.952	n/a	PROB	1801976	n/a	LTP328	ltpFR2	15	n/a	n/a	n/a	22	9	5	3	1
3605.052	n/a	PROB	1802526	n/a	LTP328	ltpFR2	15	n/a	n/a	n/a	22	17	8	2	7
3606.484	n/a	PROB	1803242	n/a	LTP328	ltpFR2	15	n/a	n/a	n/a	22	20	9	4	7
3608.65	n/a	PROB	1804325	n/a	LTP328	ltpFR2	15	n/a	n/a	n/a	22	22	9	6	7
3610.25	n/a	PROB	1805125	n/a	LTP328	ltpFR2	15	n/a	n/a	n/a	22	21	8	6	7
3612.866	n/a	PROB	1806433	n/a	LTP328	ltpFR2	15	n/a	n/a	n/a	22	9	2	6	1
3614.148	n/a	PROB	1807074	n/a	LTP328	ltpFR2	15	n/a	n/a	n/a	22	7	4	2	1
3615.474	n/a	PROB	1807737	n/a	LTP328	ltpFR2	15	n/a	n/a	n/a	22	15	2	9	4
3617.062	n/a	STOP	1808531	n/a	LTP328	ltpFR2	15	n/a	n/a	n/a	22	n/a	n/a	n/a	n/a
3619.296	n/a	WORD	1809648	wordpools/wasnorm_wordpool_576.txt	LTP328	ltpFR2	15	16	WIFE	1609	n/a	n/a	0	0	0
3621.746	n/a	WORD	1810873	wordpools/wasnorm_wordpool_576.txt	LTP328	ltpFR2	15	16	FRIEND	606	n/a	n/a	0	0	0
3624.378	n/a	WORD	1812189	wordpools/wasnorm_wordpool_576.txt	LTP328	ltpFR2	15	16	KITCHEN	778	n/a	n/a	0	0	0
3626.86	n/a	WORD	1813430	wordpools/wasnorm_wordpool_576.txt	LTP328	ltpFR2	15	16	PERMIT	1051	n/a	n/a	0	0	0
3629.358	n/a	WORD	1814679	wordpools/wasnorm_wordpool_576.txt	LTP328	ltpFR2	15	16	WITNESS	1618	n/a	n/a	0	0	0
3631.94	n/a	WORD	1815970	wordpools/wasnorm_wordpool_576.txt	LTP328	ltpFR2	15	16	CONVICT	371	n/a	n/a	0	0	0
3634.738	n/a	WORD	1817369	wordpools/wasnorm_wordpool_576.txt	LTP328	ltpFR2	15	16	STAPLE	1371	n/a	n/a	0	0	0
3637.438	n/a	WORD	1818719	wordpools/wasnorm_wordpool_576.txt	LTP328	ltpFR2	15	16	TUBA	1515	n/a	n/a	0	0	0
3640.07	n/a	WORD	1820035	wordpools/wasnorm_wordpool_576.txt	LTP328	ltpFR2	15	16	SUITCASE	1403	n/a	n/a	0	0	0
3642.784	n/a	WORD	1821392	wordpools/wasnorm_wordpool_576.txt	LTP328	ltpFR2	15	16	SCULPTURE	1258	n/a	n/a	0	0	0
3645.384	n/a	WORD	1822692	wordpools/wasnorm_wordpool_576.txt	LTP328	ltpFR2	15	16	FLUTE	585	n/a	n/a	0	0	0
3647.898	n/a	WORD	1823949	wordpools/wasnorm_wordpool_576.txt	LTP328	ltpFR2	15	16	HOUND	724	n/a	n/a	0	0	0
3650.448	n/a	WORD	1825224	wordpools/wasnorm_wordpool_576.txt	LTP328	ltpFR2	15	16	SPOUSE	1358	n/a	n/a	0	0	0
3653.062	n/a	WORD	1826531	wordpools/wasnorm_wordpool_576.txt	LTP328	ltpFR2	15	16	SUPPER	1411	n/a	n/a	0	0	0
3655.894	n/a	WORD	1827947	wordpools/wasnorm_wordpool_576.txt	LTP328	ltpFR2	15	16	EYELASH	546	n/a	n/a	0	0	0
3658.56	n/a	WORD	1829280	wordpools/wasnorm_wordpool_576.txt	LTP328	ltpFR2	15	16	STAMP	1370	n/a	n/a	0	0	0
3661.144	n/a	WORD	1830572	wordpools/wasnorm_wordpool_576.txt	LTP328	ltpFR2	15	16	MARKET	871	n/a	n/a	0	0	0
3663.842	n/a	WORD	1831921	wordpools/wasnorm_wordpool_576.txt	LTP328	ltpFR2	15	16	WORLD	1622	n/a	n/a	0	0	0
3666.39	n/a	WORD	1833195	wordpools/wasnorm_wordpool_576.txt	LTP328	ltpFR2	15	16	GLOBE	641	n/a	n/a	0	0	0
3668.956	n/a	WORD	1834478	wordpools/wasnorm_wordpool_576.txt	LTP328	ltpFR2	15	16	CLAM	315	n/a	n/a	0	0	0
3671.422	n/a	WORD	1835711	wordpools/wasnorm_wordpool_576.txt	LTP328	ltpFR2	15	16	TURTLE	1522	n/a	n/a	0	0	0
3674.17	n/a	WORD	1837085	wordpools/wasnorm_wordpool_576.txt	LTP328	ltpFR2	15	16	SANDWICH	1232	n/a	n/a	0	0	0
3676.768	n/a	WORD	1838384	wordpools/wasnorm_wordpool_576.txt	LTP328	ltpFR2	15	16	MOTOR	922	n/a	n/a	0	0	0
3679.252	n/a	WORD	1839626	wordpools/wasnorm_wordpool_576.txt	LTP328	ltpFR2	15	16	EAGLE	512	n/a	n/a	0	0	0
3680.866	n/a	START	1840433	n/a	LTP328	ltpFR2	15	n/a	n/a	n/a	23	n/a	n/a	n/a	n/a
3681.704	n/a	DISTRACTOR	1840852	n/a	LTP328	ltpFR2	15	16	n/a	n/a	n/a	n/a	0	0	0
3681.716	n/a	PROB	1840858	n/a	LTP328	ltpFR2	15	n/a	n/a	n/a	23	6	1	3	2
3683.316	n/a	PROB	1841658	n/a	LTP328	ltpFR2	15	n/a	n/a	n/a	23	22	9	7	6
3684.914	n/a	PROB	1842457	n/a	LTP328	ltpFR2	15	n/a	n/a	n/a	23	22	8	8	6
3686.98	n/a	PROB	1843490	n/a	LTP328	ltpFR2	15	n/a	n/a	n/a	23	16	9	5	2
3688.762	n/a	PROB	1844381	n/a	LTP328	ltpFR2	15	n/a	n/a	n/a	23	18	3	9	6
3691.078	n/a	PROB	1845539	n/a	LTP328	ltpFR2	15	n/a	n/a	n/a	23	16	6	5	5
3692.394	n/a	PROB	1846197	n/a	LTP328	ltpFR2	15	n/a	n/a	n/a	23	13	7	2	4
3693.994	n/a	PROB	1846997	n/a	LTP328	ltpFR2	15	n/a	n/a	n/a	23	15	2	4	9
3695.71	n/a	PROB	1847855	n/a	LTP328	ltpFR2	15	n/a	n/a	n/a	23	16	8	3	5
3697.252	n/a	PROB	1848626	n/a	LTP328	ltpFR2	15	n/a	n/a	n/a	23	19	8	6	5
3698.892	n/a	PROB	1849446	n/a	LTP328	ltpFR2	15	n/a	n/a	n/a	23	15	3	7	5
3700.058	n/a	PROB	1850029	n/a	LTP328	ltpFR2	15	n/a	n/a	n/a	23	16	6	4	6
3701.39	n/a	PROB	1850695	n/a	LTP328	ltpFR2	15	n/a	n/a	n/a	23	15	2	5	8
3704.866	n/a	STOP	1852433	n/a	LTP328	ltpFR2	15	n/a	n/a	n/a	23	n/a	n/a	n/a	n/a
3706.822	n/a	REC_START	1853411	n/a	LTP328	ltpFR2	15	16	n/a	n/a	n/a	n/a	0	0	0
3707.82	n/a	REC_WORD	1853910	wordpools/wasnorm_wordpool_576.txt	LTP328	ltpFR2	15	16	WIFE	1609	n/a	n/a	0	0	0
3708.396	n/a	REC_WORD	1854198	wordpools/wasnorm_wordpool_576.txt	LTP328	ltpFR2	15	16	FRIEND	606	n/a	n/a	0	0	0
