mstime	trial_type	stim_file	subject	experiment	session	trial	item_name	item_num	list	answer	test_x	test_y	test_z
0	SESS_START	n/a	LTP317	ltpFR2	8	n/a	n/a	n/a	n/a	n/a	0	0	0
12559	START	n/a	LTP317	ltpFR2	8	n/a	n/a	n/a	-1	n/a	n/a	n/a	n/a
12588	PROB	n/a	LTP317	ltpFR2	8	n/a	n/a	n/a	-1	24	8	9	7
16141	PROB	n/a	LTP317	ltpFR2	8	n/a	n/a	n/a	-1	16	6	2	8
18941	PROB	n/a	LTP317	ltpFR2	8	n/a	n/a	n/a	-1	21	7	6	8
20893	PROB	n/a	LTP317	ltpFR2	8	n/a	n/a	n/a	-1	18	2	8	8
22329	PROB	n/a	LTP317	ltpFR2	8	n/a	n/a	n/a	-1	25	9	9	7
24177	STOP	n/a	LTP317	ltpFR2	8	n/a	n/a	n/a	-1	n/a	n/a	n/a	n/a
54788	WORD	wordpools/wasnorm_wordpool_576.txt	LTP317	ltpFR2	8	1	LUNCH	849	n/a	n/a	0	0	0
57359	WORD	wordpools/wasnorm_wordpool_576.txt	LTP317	ltpFR2	8	1	POET	1095	n/a	n/a	0	0	0
59978	WORD	wordpools/wasnorm_wordpool_576.txt	LTP317	ltpFR2	8	1	HORSE	719	n/a	n/a	0	0	0
62745	WORD	wordpools/wasnorm_wordpool_576.txt	LTP317	ltpFR2	8	1	WIFE	1609	n/a	n/a	0	0	0
65432	WORD	wordpools/wasnorm_wordpool_576.txt	LTP317	ltpFR2	8	1	SPOUSE	1358	n/a	n/a	0	0	0
67900	WORD	wordpools/wasnorm_wordpool_576.txt	LTP317	ltpFR2	8	1	CYCLONE	431	n/a	n/a	0	0	0
70437	WORD	wordpools/wasnorm_wordpool_576.txt	LTP317	ltpFR2	8	1	CLOUD	328	n/a	n/a	0	0	0
73171	WORD	wordpools/wasnorm_wordpool_576.txt	LTP317	ltpFR2	8	1	FRAME	600	n/a	n/a	0	0	0
75790	WORD	wordpools/wasnorm_wordpool_576.txt	LTP317	ltpFR2	8	1	SUPPER	1411	n/a	n/a	0	0	0
78607	WORD	wordpools/wasnorm_wordpool_576.txt	LTP317	ltpFR2	8	1	RADISH	1158	n/a	n/a	0	0	0
81211	WORD	wordpools/wasnorm_wordpool_576.txt	LTP317	ltpFR2	8	1	ANTLER	29	n/a	n/a	0	0	0
83879	WORD	wordpools/wasnorm_wordpool_576.txt	LTP317	ltpFR2	8	1	AUTHOR	61	n/a	n/a	0	0	0
86482	WORD	wordpools/wasnorm_wordpool_576.txt	LTP317	ltpFR2	8	1	SHIRT	1287	n/a	n/a	0	0	0
89251	WORD	wordpools/wasnorm_wordpool_576.txt	LTP317	ltpFR2	8	1	HUSBAND	728	n/a	n/a	0	0	0
91936	WORD	wordpools/wasnorm_wordpool_576.txt	LTP317	ltpFR2	8	1	JUNGLE	764	n/a	n/a	0	0	0
94520	WORD	wordpools/wasnorm_wordpool_576.txt	LTP317	ltpFR2	8	1	DRILL	497	n/a	n/a	0	0	0
97106	WORD	wordpools/wasnorm_wordpool_576.txt	LTP317	ltpFR2	8	1	CUPBOARD	425	n/a	n/a	0	0	0
99942	WORD	wordpools/wasnorm_wordpool_576.txt	LTP317	ltpFR2	8	1	CREVICE	405	n/a	n/a	0	0	0
102709	WORD	wordpools/wasnorm_wordpool_576.txt	LTP317	ltpFR2	8	1	PIZZA	1079	n/a	n/a	0	0	0
105234	WORD	wordpools/wasnorm_wordpool_576.txt	LTP317	ltpFR2	8	1	LODGE	839	n/a	n/a	0	0	0
107935	WORD	wordpools/wasnorm_wordpool_576.txt	LTP317	ltpFR2	8	1	NAPKIN	937	n/a	n/a	0	0	0
110416	WORD	wordpools/wasnorm_wordpool_576.txt	LTP317	ltpFR2	8	1	YARN	1631	n/a	n/a	0	0	0
113052	WORD	wordpools/wasnorm_wordpool_576.txt	LTP317	ltpFR2	8	1	POCKET	1093	n/a	n/a	0	0	0
115720	WORD	wordpools/wasnorm_wordpool_576.txt	LTP317	ltpFR2	8	1	KNAPSACK	783	n/a	n/a	0	0	0
117327	START	n/a	LTP317	ltpFR2	8	n/a	n/a	n/a	1	n/a	n/a	n/a	n/a
118275	DISTRACTOR	n/a	LTP317	ltpFR2	8	1	n/a	n/a	n/a	n/a	0	0	0
118289	PROB	n/a	LTP317	ltpFR2	8	n/a	n/a	n/a	1	15	9	2	4
121506	PROB	n/a	LTP317	ltpFR2	8	n/a	n/a	n/a	1	15	5	4	6
123273	PROB	n/a	LTP317	ltpFR2	8	n/a	n/a	n/a	1	15	7	1	7
124606	PROB	n/a	LTP317	ltpFR2	8	n/a	n/a	n/a	1	15	4	5	6
126159	PROB	n/a	LTP317	ltpFR2	8	n/a	n/a	n/a	1	23	9	7	7
127951	PROB	n/a	LTP317	ltpFR2	8	n/a	n/a	n/a	1	13	7	4	2
129599	PROB	n/a	LTP317	ltpFR2	8	n/a	n/a	n/a	1	9	2	5	2
130963	PROB	n/a	LTP317	ltpFR2	8	n/a	n/a	n/a	1	14	7	1	6
132936	PROB	n/a	LTP317	ltpFR2	8	n/a	n/a	n/a	1	13	4	6	3
134338	PROB	n/a	LTP317	ltpFR2	8	n/a	n/a	n/a	1	8	3	3	2
136457	PROB	n/a	LTP317	ltpFR2	8	n/a	n/a	n/a	1	16	6	4	6
137908	PROB	n/a	LTP317	ltpFR2	8	n/a	n/a	n/a	1	24	7	9	6
139776	PROB	n/a	LTP317	ltpFR2	8	n/a	n/a	n/a	1	15	5	3	7
140953	STOP	n/a	LTP317	ltpFR2	8	n/a	n/a	n/a	1	n/a	n/a	n/a	n/a
143164	REC_START	n/a	LTP317	ltpFR2	8	1	n/a	n/a	n/a	n/a	0	0	0
146923	REC_WORD	wordpools/wasnorm_wordpool_576.txt	LTP317	ltpFR2	8	1	LUNCH	849	n/a	n/a	0	0	0
148215	REC_WORD	wordpools/wasnorm_wordpool_576.txt	LTP317	ltpFR2	8	1	HORSE	719	n/a	n/a	0	0	0
150402	REC_WORD	wordpools/wasnorm_wordpool_576.txt	LTP317	ltpFR2	8	1	WIFE	1609	n/a	n/a	0	0	0
153958	REC_WORD	wordpools/wasnorm_wordpool_576.txt	LTP317	ltpFR2	8	1	SPOUSE	1358	n/a	n/a	0	0	0
154958	REC_WORD_VV	wordpools/wasnorm_wordpool_576.txt	LTP317	ltpFR2	8	1	<>	-1	n/a	n/a	0	0	0
155690	REC_WORD	wordpools/wasnorm_wordpool_576.txt	LTP317	ltpFR2	8	1	CREVICE	405	n/a	n/a	0	0	0
156869	REC_WORD	wordpools/wasnorm_wordpool_576.txt	LTP317	ltpFR2	8	1	RADISH	1158	n/a	n/a	0	0	0
159431	REC_WORD	wordpools/wasnorm_wordpool_576.txt	LTP317	ltpFR2	8	1	CYCLONE	431	n/a	n/a	0	0	0
161076	REC_WORD	wordpools/wasnorm_wordpool_576.txt	LTP317	ltpFR2	8	1	CLOUD	328	n/a	n/a	0	0	0
163096	REC_WORD	wordpools/wasnorm_wordpool_576.txt	LTP317	ltpFR2	8	1	LODGE	839	n/a	n/a	0	0	0
184722	REC_WORD	wordpools/wasnorm_wordpool_576.txt	LTP317	ltpFR2	8	1	POCKET	1093	n/a	n/a	0	0	0
233635	WORD	wordpools/wasnorm_wordpool_576.txt	LTP317	ltpFR2	8	2	MILK	895	n/a	n/a	0	0	0
236275	WORD	wordpools/wasnorm_wordpool_576.txt	LTP317	ltpFR2	8	2	GALLON	618	n/a	n/a	0	0	0
238977	WORD	wordpools/wasnorm_wordpool_576.txt	LTP317	ltpFR2	8	2	STOVE	1388	n/a	n/a	0	0	0
241780	WORD	wordpools/wasnorm_wordpool_576.txt	LTP317	ltpFR2	8	2	RATTLE	1170	n/a	n/a	0	0	0
244248	WORD	wordpools/wasnorm_wordpool_576.txt	LTP317	ltpFR2	8	2	CIGAR	308	n/a	n/a	0	0	0
246884	WORD	wordpools/wasnorm_wordpool_576.txt	LTP317	ltpFR2	8	2	ASIA	46	n/a	n/a	0	0	0
249470	WORD	wordpools/wasnorm_wordpool_576.txt	LTP317	ltpFR2	8	2	CONCERT	360	n/a	n/a	0	0	0
252106	WORD	wordpools/wasnorm_wordpool_576.txt	LTP317	ltpFR2	8	2	RIFLE	1192	n/a	n/a	0	0	0
254690	WORD	wordpools/wasnorm_wordpool_576.txt	LTP317	ltpFR2	8	2	NOVEL	960	n/a	n/a	0	0	0
257510	WORD	wordpools/wasnorm_wordpool_576.txt	LTP317	ltpFR2	8	2	MAILMAN	858	n/a	n/a	0	0	0
260245	WORD	wordpools/wasnorm_wordpool_576.txt	LTP317	ltpFR2	8	2	PERMIT	1051	n/a	n/a	0	0	0
262998	WORD	wordpools/wasnorm_wordpool_576.txt	LTP317	ltpFR2	8	2	LIVER	833	n/a	n/a	0	0	0
265682	WORD	wordpools/wasnorm_wordpool_576.txt	LTP317	ltpFR2	8	2	PEDAL	1037	n/a	n/a	0	0	0
268286	WORD	wordpools/wasnorm_wordpool_576.txt	LTP317	ltpFR2	8	2	CEILING	265	n/a	n/a	0	0	0
270921	WORD	wordpools/wasnorm_wordpool_576.txt	LTP317	ltpFR2	8	2	GROUND	666	n/a	n/a	0	0	0
273672	WORD	wordpools/wasnorm_wordpool_576.txt	LTP317	ltpFR2	8	2	TOURIST	1488	n/a	n/a	0	0	0
276259	WORD	wordpools/wasnorm_wordpool_576.txt	LTP317	ltpFR2	8	2	HOSTESS	723	n/a	n/a	0	0	0
278810	WORD	wordpools/wasnorm_wordpool_576.txt	LTP317	ltpFR2	8	2	DANCER	437	n/a	n/a	0	0	0
281313	WORD	wordpools/wasnorm_wordpool_576.txt	LTP317	ltpFR2	8	2	RECORD	1176	n/a	n/a	0	0	0
283781	WORD	wordpools/wasnorm_wordpool_576.txt	LTP317	ltpFR2	8	2	GANGSTER	620	n/a	n/a	0	0	0
286217	WORD	wordpools/wasnorm_wordpool_576.txt	LTP317	ltpFR2	8	2	SKETCH	1315	n/a	n/a	0	0	0
288935	WORD	wordpools/wasnorm_wordpool_576.txt	LTP317	ltpFR2	8	2	COUSIN	392	n/a	n/a	0	0	0
291553	WORD	wordpools/wasnorm_wordpool_576.txt	LTP317	ltpFR2	8	2	EUROPE	541	n/a	n/a	0	0	0
294374	WORD	wordpools/wasnorm_wordpool_576.txt	LTP317	ltpFR2	8	2	ONION	977	n/a	n/a	0	0	0
295992	START	n/a	LTP317	ltpFR2	8	n/a	n/a	n/a	2	n/a	n/a	n/a	n/a
296894	DISTRACTOR	n/a	LTP317	ltpFR2	8	2	n/a	n/a	n/a	n/a	0	0	0
296908	PROB	n/a	LTP317	ltpFR2	8	n/a	n/a	n/a	2	19	5	9	5
298807	PROB	n/a	LTP317	ltpFR2	8	n/a	n/a	n/a	2	13	8	2	3
300226	PROB	n/a	LTP317	ltpFR2	8	n/a	n/a	n/a	2	9	6	2	1
301693	PROB	n/a	LTP317	ltpFR2	8	n/a	n/a	n/a	2	10	1	8	1
303144	PROB	n/a	LTP317	ltpFR2	8	n/a	n/a	n/a	2	6	2	2	2
304229	PROB	n/a	LTP317	ltpFR2	8	n/a	n/a	n/a	2	13	6	4	3
305483	PROB	n/a	LTP317	ltpFR2	8	n/a	n/a	n/a	2	18	7	9	2
307449	PROB	n/a	LTP317	ltpFR2	8	n/a	n/a	n/a	2	10	5	2	3
308983	PROB	n/a	LTP317	ltpFR2	8	n/a	n/a	n/a	2	17	9	5	3
310834	PROB	n/a	LTP317	ltpFR2	8	n/a	n/a	n/a	2	17	8	7	2
312372	PROB	n/a	LTP317	ltpFR2	8	n/a	n/a	n/a	2	21	7	7	7
313686	PROB	n/a	LTP317	ltpFR2	8	n/a	n/a	n/a	2	8	4	1	3
315024	PROB	n/a	LTP317	ltpFR2	8	n/a	n/a	n/a	2	15	2	4	9
316458	PROB	n/a	LTP317	ltpFR2	8	n/a	n/a	n/a	2	15	4	8	3
317893	PROB	n/a	LTP317	ltpFR2	8	n/a	n/a	n/a	2	16	8	6	2
319129	STOP	n/a	LTP317	ltpFR2	8	n/a	n/a	n/a	2	n/a	n/a	n/a	n/a
321763	REC_START	n/a	LTP317	ltpFR2	8	2	n/a	n/a	n/a	n/a	0	0	0
322816	REC_WORD	wordpools/wasnorm_wordpool_576.txt	LTP317	ltpFR2	8	2	MILK	895	n/a	n/a	0	0	0
323854	REC_WORD	wordpools/wasnorm_wordpool_576.txt	LTP317	ltpFR2	8	2	GALLON	618	n/a	n/a	0	0	0
324671	REC_WORD	wordpools/wasnorm_wordpool_576.txt	LTP317	ltpFR2	8	2	STOVE	1388	n/a	n/a	0	0	0
325904	REC_WORD	wordpools/wasnorm_wordpool_576.txt	LTP317	ltpFR2	8	2	RATTLE	1170	n/a	n/a	0	0	0
328852	REC_WORD	wordpools/wasnorm_wordpool_576.txt	LTP317	ltpFR2	8	2	LIVER	833	n/a	n/a	0	0	0
329478	REC_WORD	wordpools/wasnorm_wordpool_576.txt	LTP317	ltpFR2	8	2	CEILING	265	n/a	n/a	0	0	0
330280	REC_WORD	wordpools/wasnorm_wordpool_576.txt	LTP317	ltpFR2	8	2	GROUND	666	n/a	n/a	0	0	0
335712	REC_WORD	wordpools/wasnorm_wordpool_576.txt	LTP317	ltpFR2	8	2	MAILMAN	858	n/a	n/a	0	0	0
338636	REC_WORD	wordpools/wasnorm_wordpool_576.txt	LTP317	ltpFR2	8	2	PEDAL	1037	n/a	n/a	0	0	0
412219	WORD	wordpools/wasnorm_wordpool_576.txt	LTP317	ltpFR2	8	3	MISTER	901	n/a	n/a	0	0	0
415016	WORD	wordpools/wasnorm_wordpool_576.txt	LTP317	ltpFR2	8	3	LUMBER	848	n/a	n/a	0	0	0
417459	WORD	wordpools/wasnorm_wordpool_576.txt	LTP317	ltpFR2	8	3	CHIPMUNK	304	n/a	n/a	0	0	0
420053	WORD	wordpools/wasnorm_wordpool_576.txt	LTP317	ltpFR2	8	3	HEDGE	699	n/a	n/a	0	0	0
422586	WORD	wordpools/wasnorm_wordpool_576.txt	LTP317	ltpFR2	8	3	KEEPER	769	n/a	n/a	0	0	0
425115	WORD	wordpools/wasnorm_wordpool_576.txt	LTP317	ltpFR2	8	3	SWITCH	1422	n/a	n/a	0	0	0
427667	WORD	wordpools/wasnorm_wordpool_576.txt	LTP317	ltpFR2	8	3	PUDDLE	1140	n/a	n/a	0	0	0
430371	WORD	wordpools/wasnorm_wordpool_576.txt	LTP317	ltpFR2	8	3	PROTON	1132	n/a	n/a	0	0	0
432912	WORD	wordpools/wasnorm_wordpool_576.txt	LTP317	ltpFR2	8	3	NEUTRON	947	n/a	n/a	0	0	0
435514	WORD	wordpools/wasnorm_wordpool_576.txt	LTP317	ltpFR2	8	3	MOTOR	922	n/a	n/a	0	0	0
438059	WORD	wordpools/wasnorm_wordpool_576.txt	LTP317	ltpFR2	8	3	TOASTER	1472	n/a	n/a	0	0	0
440828	WORD	wordpools/wasnorm_wordpool_576.txt	LTP317	ltpFR2	8	3	KITCHEN	778	n/a	n/a	0	0	0
443280	WORD	wordpools/wasnorm_wordpool_576.txt	LTP317	ltpFR2	8	3	KIDNEY	776	n/a	n/a	0	0	0
445999	WORD	wordpools/wasnorm_wordpool_576.txt	LTP317	ltpFR2	8	3	SHORTCAKE	1292	n/a	n/a	0	0	0
448469	WORD	wordpools/wasnorm_wordpool_576.txt	LTP317	ltpFR2	8	3	PIGMENT	1066	n/a	n/a	0	0	0
451060	WORD	wordpools/wasnorm_wordpool_576.txt	LTP317	ltpFR2	8	3	LAGOON	795	n/a	n/a	0	0	0
453755	WORD	wordpools/wasnorm_wordpool_576.txt	LTP317	ltpFR2	8	3	COSTUME	383	n/a	n/a	0	0	0
456540	WORD	wordpools/wasnorm_wordpool_576.txt	LTP317	ltpFR2	8	3	PACKAGE	997	n/a	n/a	0	0	0
459195	WORD	wordpools/wasnorm_wordpool_576.txt	LTP317	ltpFR2	8	3	ICING	732	n/a	n/a	0	0	0
461662	WORD	wordpools/wasnorm_wordpool_576.txt	LTP317	ltpFR2	8	3	APRON	35	n/a	n/a	0	0	0
464286	WORD	wordpools/wasnorm_wordpool_576.txt	LTP317	ltpFR2	8	3	SPACE	1345	n/a	n/a	0	0	0
466766	WORD	wordpools/wasnorm_wordpool_576.txt	LTP317	ltpFR2	8	3	MARSH	874	n/a	n/a	0	0	0
469186	WORD	wordpools/wasnorm_wordpool_576.txt	LTP317	ltpFR2	8	3	MEDAL	885	n/a	n/a	0	0	0
471736	WORD	wordpools/wasnorm_wordpool_576.txt	LTP317	ltpFR2	8	3	TRANSPLANT	1496	n/a	n/a	0	0	0
473344	START	n/a	LTP317	ltpFR2	8	n/a	n/a	n/a	3	n/a	n/a	n/a	n/a
474223	DISTRACTOR	n/a	LTP317	ltpFR2	8	3	n/a	n/a	n/a	n/a	0	0	0
474240	PROB	n/a	LTP317	ltpFR2	8	n/a	n/a	n/a	3	16	9	1	6
475889	PROB	n/a	LTP317	ltpFR2	8	n/a	n/a	n/a	3	15	6	4	5
477190	PROB	n/a	LTP317	ltpFR2	8	n/a	n/a	n/a	3	20	4	9	7
480108	PROB	n/a	LTP317	ltpFR2	8	n/a	n/a	n/a	3	9	1	6	2
481477	PROB	n/a	LTP317	ltpFR2	8	n/a	n/a	n/a	3	6	3	2	1
482577	PROB	n/a	LTP317	ltpFR2	8	n/a	n/a	n/a	3	1	6	6	2
484829	PROB	n/a	LTP317	ltpFR2	8	n/a	n/a	n/a	3	20	3	9	8
486814	PROB	n/a	LTP317	ltpFR2	8	n/a	n/a	n/a	3	15	4	4	7
488165	PROB	n/a	LTP317	ltpFR2	8	n/a	n/a	n/a	3	15	2	9	4
489598	PROB	n/a	LTP317	ltpFR2	8	n/a	n/a	n/a	3	15	3	9	3
491101	PROB	n/a	LTP317	ltpFR2	8	n/a	n/a	n/a	3	7	1	2	4
492751	PROB	n/a	LTP317	ltpFR2	8	n/a	n/a	n/a	3	17	9	3	5
494254	PROB	n/a	LTP317	ltpFR2	8	n/a	n/a	n/a	3	11	8	1	3
496576	STOP	n/a	LTP317	ltpFR2	8	n/a	n/a	n/a	3	n/a	n/a	n/a	n/a
499177	REC_START	n/a	LTP317	ltpFR2	8	3	n/a	n/a	n/a	n/a	0	0	0
503441	REC_WORD	wordpools/wasnorm_wordpool_576.txt	LTP317	ltpFR2	8	3	HEDGE	699	n/a	n/a	0	0	0
506446	REC_WORD	wordpools/wasnorm_wordpool_576.txt	LTP317	ltpFR2	8	3	MISTER	901	n/a	n/a	0	0	0
507247	REC_WORD	wordpools/wasnorm_wordpool_576.txt	LTP317	ltpFR2	8	3	LUMBER	848	n/a	n/a	0	0	0
510961	REC_WORD	wordpools/wasnorm_wordpool_576.txt	LTP317	ltpFR2	8	3	KITCHEN	778	n/a	n/a	0	0	0
512567	REC_WORD	wordpools/wasnorm_wordpool_576.txt	LTP317	ltpFR2	8	3	TOASTER	1472	n/a	n/a	0	0	0
514206	REC_WORD	wordpools/wasnorm_wordpool_576.txt	LTP317	ltpFR2	8	3	APRON	35	n/a	n/a	0	0	0
521018	REC_WORD	wordpools/wasnorm_wordpool_576.txt	LTP317	ltpFR2	8	3	MARSH	874	n/a	n/a	0	0	0
526932	REC_WORD	wordpools/wasnorm_wordpool_576.txt	LTP317	ltpFR2	8	3	TRANSPLANT	1496	n/a	n/a	0	0	0
531107	REC_WORD	wordpools/wasnorm_wordpool_576.txt	LTP317	ltpFR2	8	3	PROTON	1132	n/a	n/a	0	0	0
532107	REC_WORD	wordpools/wasnorm_wordpool_576.txt	LTP317	ltpFR2	8	3	NEUTRON	947	n/a	n/a	0	0	0
589645	WORD	wordpools/wasnorm_wordpool_576.txt	LTP317	ltpFR2	8	4	PRINCE	1124	n/a	n/a	0	0	0
592288	WORD	wordpools/wasnorm_wordpool_576.txt	LTP317	ltpFR2	8	4	PALACE	1006	n/a	n/a	0	0	0
595103	WORD	wordpools/wasnorm_wordpool_576.txt	LTP317	ltpFR2	8	4	SEAL	1262	n/a	n/a	0	0	0
597889	WORD	wordpools/wasnorm_wordpool_576.txt	LTP317	ltpFR2	8	4	FUNGUS	614	n/a	n/a	0	0	0
600356	WORD	wordpools/wasnorm_wordpool_576.txt	LTP317	ltpFR2	8	4	SWORD	1423	n/a	n/a	0	0	0
602925	WORD	wordpools/wasnorm_wordpool_576.txt	LTP317	ltpFR2	8	4	CABIN	211	n/a	n/a	0	0	0
605366	WORD	wordpools/wasnorm_wordpool_576.txt	LTP317	ltpFR2	8	4	GAZELLE	628	n/a	n/a	0	0	0
607996	WORD	wordpools/wasnorm_wordpool_576.txt	LTP317	ltpFR2	8	4	FLEET	578	n/a	n/a	0	0	0
610702	WORD	wordpools/wasnorm_wordpool_576.txt	LTP317	ltpFR2	8	4	ARMY	39	n/a	n/a	0	0	0
613239	WORD	wordpools/wasnorm_wordpool_576.txt	LTP317	ltpFR2	8	4	ATOM	55	n/a	n/a	0	0	0
615907	WORD	wordpools/wasnorm_wordpool_576.txt	LTP317	ltpFR2	8	4	PASTA	1021	n/a	n/a	0	0	0
618409	WORD	wordpools/wasnorm_wordpool_576.txt	LTP317	ltpFR2	8	4	DONKEY	484	n/a	n/a	0	0	0
620956	WORD	wordpools/wasnorm_wordpool_576.txt	LTP317	ltpFR2	8	4	DUSTPAN	509	n/a	n/a	0	0	0
623740	WORD	wordpools/wasnorm_wordpool_576.txt	LTP317	ltpFR2	8	4	HIGHWAY	707	n/a	n/a	0	0	0
626476	WORD	wordpools/wasnorm_wordpool_576.txt	LTP317	ltpFR2	8	4	SEAGULL	1261	n/a	n/a	0	0	0
629019	WORD	wordpools/wasnorm_wordpool_576.txt	LTP317	ltpFR2	8	4	ROOSTER	1209	n/a	n/a	0	0	0
631529	WORD	wordpools/wasnorm_wordpool_576.txt	LTP317	ltpFR2	8	4	WINDOW	1611	n/a	n/a	0	0	0
634200	WORD	wordpools/wasnorm_wordpool_576.txt	LTP317	ltpFR2	8	4	OUTDOORS	987	n/a	n/a	0	0	0
636667	WORD	wordpools/wasnorm_wordpool_576.txt	LTP317	ltpFR2	8	4	SIDEWALK	1303	n/a	n/a	0	0	0
639219	WORD	wordpools/wasnorm_wordpool_576.txt	LTP317	ltpFR2	8	4	SCARF	1246	n/a	n/a	0	0	0
641644	WORD	wordpools/wasnorm_wordpool_576.txt	LTP317	ltpFR2	8	4	FOOTBALL	591	n/a	n/a	0	0	0
644249	WORD	wordpools/wasnorm_wordpool_576.txt	LTP317	ltpFR2	8	4	PUPPY	1144	n/a	n/a	0	0	0
646725	WORD	wordpools/wasnorm_wordpool_576.txt	LTP317	ltpFR2	8	4	BEAKER	104	n/a	n/a	0	0	0
649461	WORD	wordpools/wasnorm_wordpool_576.txt	LTP317	ltpFR2	8	4	BEAVER	109	n/a	n/a	0	0	0
651072	START	n/a	LTP317	ltpFR2	8	n/a	n/a	n/a	4	n/a	n/a	n/a	n/a
652110	DISTRACTOR	n/a	LTP317	ltpFR2	8	4	n/a	n/a	n/a	n/a	0	0	0
652121	PROB	n/a	LTP317	ltpFR2	8	n/a	n/a	n/a	4	13	7	4	2
654203	PROB	n/a	LTP317	ltpFR2	8	n/a	n/a	n/a	4	15	6	6	3
655488	PROB	n/a	LTP317	ltpFR2	8	n/a	n/a	n/a	4	18	1	8	9
656923	PROB	n/a	LTP317	ltpFR2	8	n/a	n/a	n/a	4	6	1	1	4
658140	PROB	n/a	LTP317	ltpFR2	8	n/a	n/a	n/a	4	13	8	1	4
659942	PROB	n/a	LTP317	ltpFR2	8	n/a	n/a	n/a	4	19	9	2	8
661526	PROB	n/a	LTP317	ltpFR2	8	n/a	n/a	n/a	4	24	9	6	9
663811	PROB	n/a	LTP317	ltpFR2	8	n/a	n/a	n/a	4	5	3	1	1
664862	PROB	n/a	LTP317	ltpFR2	8	n/a	n/a	n/a	4	10	1	2	7
666314	PROB	n/a	LTP317	ltpFR2	8	n/a	n/a	n/a	4	14	6	3	5
667814	PROB	n/a	LTP317	ltpFR2	8	n/a	n/a	n/a	4	10	3	1	6
670135	PROB	n/a	LTP317	ltpFR2	8	n/a	n/a	n/a	4	11	4	3	4
671700	PROB	n/a	LTP317	ltpFR2	8	n/a	n/a	n/a	4	19	9	3	7
675071	STOP	n/a	LTP317	ltpFR2	8	n/a	n/a	n/a	4	n/a	n/a	n/a	n/a
676959	REC_START	n/a	LTP317	ltpFR2	8	4	n/a	n/a	n/a	n/a	0	0	0
696367	REC_WORD	wordpools/wasnorm_wordpool_576.txt	LTP317	ltpFR2	8	4	SEAL	1262	n/a	n/a	0	0	0
697233	REC_WORD	wordpools/wasnorm_wordpool_576.txt	LTP317	ltpFR2	8	4	FUNGUS	614	n/a	n/a	0	0	0
698373	REC_WORD	wordpools/wasnorm_wordpool_576.txt	LTP317	ltpFR2	8	4	ATOM	55	n/a	n/a	0	0	0
699327	REC_WORD	wordpools/wasnorm_wordpool_576.txt	LTP317	ltpFR2	8	4	BEAKER	104	n/a	n/a	0	0	0
700559	REC_WORD	wordpools/wasnorm_wordpool_576.txt	LTP317	ltpFR2	8	4	WINDOW	1611	n/a	n/a	0	0	0
704838	REC_WORD	wordpools/wasnorm_wordpool_576.txt	LTP317	ltpFR2	8	4	SIDEWALK	1303	n/a	n/a	0	0	0
707967	REC_WORD	wordpools/wasnorm_wordpool_576.txt	LTP317	ltpFR2	8	4	OUTDOORS	987	n/a	n/a	0	0	0
710619	REC_WORD	wordpools/wasnorm_wordpool_576.txt	LTP317	ltpFR2	8	4	BEAVER	109	n/a	n/a	0	0	0
767432	WORD	wordpools/wasnorm_wordpool_576.txt	LTP317	ltpFR2	8	5	FOX	598	n/a	n/a	0	0	0
769869	WORD	wordpools/wasnorm_wordpool_576.txt	LTP317	ltpFR2	8	5	WAGON	1578	n/a	n/a	0	0	0
772355	WORD	wordpools/wasnorm_wordpool_576.txt	LTP317	ltpFR2	8	5	WARDROBE	1587	n/a	n/a	0	0	0
774823	WORD	wordpools/wasnorm_wordpool_576.txt	LTP317	ltpFR2	8	5	WASHER	1592	n/a	n/a	0	0	0
777475	WORD	wordpools/wasnorm_wordpool_576.txt	LTP317	ltpFR2	8	5	BOUQUET	157	n/a	n/a	0	0	0
779993	WORD	wordpools/wasnorm_wordpool_576.txt	LTP317	ltpFR2	8	5	DRESSER	496	n/a	n/a	0	0	0
782496	WORD	wordpools/wasnorm_wordpool_576.txt	LTP317	ltpFR2	8	5	BRIEFCASE	175	n/a	n/a	0	0	0
785114	WORD	wordpools/wasnorm_wordpool_576.txt	LTP317	ltpFR2	8	5	SLUG	1329	n/a	n/a	0	0	0
787599	WORD	wordpools/wasnorm_wordpool_576.txt	LTP317	ltpFR2	8	5	CASKET	255	n/a	n/a	0	0	0
790034	WORD	wordpools/wasnorm_wordpool_576.txt	LTP317	ltpFR2	8	5	BADGE	68	n/a	n/a	0	0	0
792487	WORD	wordpools/wasnorm_wordpool_576.txt	LTP317	ltpFR2	8	5	VELVET	1555	n/a	n/a	0	0	0
795172	WORD	wordpools/wasnorm_wordpool_576.txt	LTP317	ltpFR2	8	5	CONTRACT	368	n/a	n/a	0	0	0
797690	WORD	wordpools/wasnorm_wordpool_576.txt	LTP317	ltpFR2	8	5	PISTON	1076	n/a	n/a	0	0	0
800510	WORD	wordpools/wasnorm_wordpool_576.txt	LTP317	ltpFR2	8	5	UNCLE	1536	n/a	n/a	0	0	0
803295	WORD	wordpools/wasnorm_wordpool_576.txt	LTP317	ltpFR2	8	5	COLLEGE	346	n/a	n/a	0	0	0
806047	WORD	wordpools/wasnorm_wordpool_576.txt	LTP317	ltpFR2	8	5	DAISY	435	n/a	n/a	0	0	0
808547	WORD	wordpools/wasnorm_wordpool_576.txt	LTP317	ltpFR2	8	5	SNAIL	1332	n/a	n/a	0	0	0
811203	WORD	wordpools/wasnorm_wordpool_576.txt	LTP317	ltpFR2	8	5	FILM	565	n/a	n/a	0	0	0
813953	WORD	wordpools/wasnorm_wordpool_576.txt	LTP317	ltpFR2	8	5	CRATER	400	n/a	n/a	0	0	0
816587	WORD	wordpools/wasnorm_wordpool_576.txt	LTP317	ltpFR2	8	5	NOTEBOOK	959	n/a	n/a	0	0	0
819260	WORD	wordpools/wasnorm_wordpool_576.txt	LTP317	ltpFR2	8	5	MASK	876	n/a	n/a	0	0	0
822062	WORD	wordpools/wasnorm_wordpool_576.txt	LTP317	ltpFR2	8	5	TURTLE	1522	n/a	n/a	0	0	0
824610	WORD	wordpools/wasnorm_wordpool_576.txt	LTP317	ltpFR2	8	5	RABBIT	1152	n/a	n/a	0	0	0
827050	WORD	wordpools/wasnorm_wordpool_576.txt	LTP317	ltpFR2	8	5	HELMET	702	n/a	n/a	0	0	0
828664	START	n/a	LTP317	ltpFR2	8	n/a	n/a	n/a	5	n/a	n/a	n/a	n/a
829820	DISTRACTOR	n/a	LTP317	ltpFR2	8	5	n/a	n/a	n/a	n/a	0	0	0
829831	PROB	n/a	LTP317	ltpFR2	8	n/a	n/a	n/a	5	16	2	6	8
832184	PROB	n/a	LTP317	ltpFR2	8	n/a	n/a	n/a	5	18	6	5	7
833664	PROB	n/a	LTP317	ltpFR2	8	n/a	n/a	n/a	5	5	3	1	1
834702	PROB	n/a	LTP317	ltpFR2	8	n/a	n/a	n/a	5	10	7	1	2
836370	PROB	n/a	LTP317	ltpFR2	8	n/a	n/a	n/a	5	20	5	9	6
839336	PROB	n/a	LTP317	ltpFR2	8	n/a	n/a	n/a	5	14	6	6	2
842644	PROB	n/a	LTP317	ltpFR2	8	n/a	n/a	n/a	5	19	8	2	9
843940	PROB	n/a	LTP317	ltpFR2	8	n/a	n/a	n/a	5	21	9	8	4
845946	PROB	n/a	LTP317	ltpFR2	8	n/a	n/a	n/a	5	20	9	2	9
847714	PROB	n/a	LTP317	ltpFR2	8	n/a	n/a	n/a	5	11	6	3	2
849033	PROB	n/a	LTP317	ltpFR2	8	n/a	n/a	n/a	5	13	2	5	6
850851	PROB	n/a	LTP317	ltpFR2	8	n/a	n/a	n/a	5	19	7	5	7
852536	STOP	n/a	LTP317	ltpFR2	8	n/a	n/a	n/a	5	n/a	n/a	n/a	n/a
854588	REC_START	n/a	LTP317	ltpFR2	8	5	n/a	n/a	n/a	n/a	0	0	0
857162	REC_WORD	wordpools/wasnorm_wordpool_576.txt	LTP317	ltpFR2	8	5	FOX	598	n/a	n/a	0	0	0
858340	REC_WORD	wordpools/wasnorm_wordpool_576.txt	LTP317	ltpFR2	8	5	WAGON	1578	n/a	n/a	0	0	0
859652	REC_WORD	wordpools/wasnorm_wordpool_576.txt	LTP317	ltpFR2	8	5	WARDROBE	1587	n/a	n/a	0	0	0
860860	REC_WORD	wordpools/wasnorm_wordpool_576.txt	LTP317	ltpFR2	8	5	WASHER	1592	n/a	n/a	0	0	0
866432	REC_WORD	wordpools/wasnorm_wordpool_576.txt	LTP317	ltpFR2	8	5	TURTLE	1522	n/a	n/a	0	0	0
868498	REC_WORD	wordpools/wasnorm_wordpool_576.txt	LTP317	ltpFR2	8	5	RABBIT	1152	n/a	n/a	0	0	0
945020	DISTRACTOR	n/a	LTP317	ltpFR2	8	6	n/a	n/a	n/a	n/a	0	0	0
945020	START	n/a	LTP317	ltpFR2	8	n/a	n/a	n/a	6	n/a	n/a	n/a	n/a
945034	PROB	n/a	LTP317	ltpFR2	8	n/a	n/a	n/a	6	24	8	8	8
946963	PROB	n/a	LTP317	ltpFR2	8	n/a	n/a	n/a	6	13	1	8	4
948415	PROB	n/a	LTP317	ltpFR2	8	n/a	n/a	n/a	6	12	3	4	5
949799	PROB	n/a	LTP317	ltpFR2	8	n/a	n/a	n/a	6	18	5	9	4
954304	PROB	n/a	LTP317	ltpFR2	8	n/a	n/a	n/a	6	21	8	9	4
955974	PROB	n/a	LTP317	ltpFR2	8	n/a	n/a	n/a	6	13	1	4	8
957409	PROB	n/a	LTP317	ltpFR2	8	n/a	n/a	n/a	6	1	3	6	7
959409	PROB	n/a	LTP317	ltpFR2	8	n/a	n/a	n/a	6	10	2	7	1
960976	PROB	n/a	LTP317	ltpFR2	8	n/a	n/a	n/a	6	16	8	2	6
962309	PROB	n/a	LTP317	ltpFR2	8	n/a	n/a	n/a	6	22	8	6	8
969020	STOP	n/a	LTP317	ltpFR2	8	n/a	n/a	n/a	6	n/a	n/a	n/a	n/a
969852	WORD	wordpools/wasnorm_wordpool_576.txt	LTP317	ltpFR2	8	6	BOX	159	n/a	n/a	0	0	0
972570	WORD	wordpools/wasnorm_wordpool_576.txt	LTP317	ltpFR2	8	6	ATLAS	53	n/a	n/a	0	0	0
975191	WORD	wordpools/wasnorm_wordpool_576.txt	LTP317	ltpFR2	8	6	WORLD	1622	n/a	n/a	0	0	0
977825	WORD	wordpools/wasnorm_wordpool_576.txt	LTP317	ltpFR2	8	6	EMPIRE	530	n/a	n/a	0	0	0
980510	WORD	wordpools/wasnorm_wordpool_576.txt	LTP317	ltpFR2	8	6	MILDEW	893	n/a	n/a	0	0	0
983013	WORD	wordpools/wasnorm_wordpool_576.txt	LTP317	ltpFR2	8	6	BANJO	82	n/a	n/a	0	0	0
985714	WORD	wordpools/wasnorm_wordpool_576.txt	LTP317	ltpFR2	8	6	SHORTS	1293	n/a	n/a	0	0	0
988417	WORD	wordpools/wasnorm_wordpool_576.txt	LTP317	ltpFR2	8	6	POSTAGE	1113	n/a	n/a	0	0	0
991054	WORD	wordpools/wasnorm_wordpool_576.txt	LTP317	ltpFR2	8	6	RUST	1219	n/a	n/a	0	0	0
993873	WORD	wordpools/wasnorm_wordpool_576.txt	LTP317	ltpFR2	8	6	BRAKE	166	n/a	n/a	0	0	0
996623	WORD	wordpools/wasnorm_wordpool_576.txt	LTP317	ltpFR2	8	6	PARROT	1015	n/a	n/a	0	0	0
999394	WORD	wordpools/wasnorm_wordpool_576.txt	LTP317	ltpFR2	8	6	JUGGLER	763	n/a	n/a	0	0	0
1002096	WORD	wordpools/wasnorm_wordpool_576.txt	LTP317	ltpFR2	8	6	PRINCESS	1125	n/a	n/a	0	0	0
1004831	WORD	wordpools/wasnorm_wordpool_576.txt	LTP317	ltpFR2	8	6	BULLET	194	n/a	n/a	0	0	0
1007284	WORD	wordpools/wasnorm_wordpool_576.txt	LTP317	ltpFR2	8	6	GHETTO	633	n/a	n/a	0	0	0
1010018	WORD	wordpools/wasnorm_wordpool_576.txt	LTP317	ltpFR2	8	6	FIDDLE	561	n/a	n/a	0	0	0
1012654	WORD	wordpools/wasnorm_wordpool_576.txt	LTP317	ltpFR2	8	6	CARROT	249	n/a	n/a	0	0	0
1015256	WORD	wordpools/wasnorm_wordpool_576.txt	LTP317	ltpFR2	8	6	FINGER	567	n/a	n/a	0	0	0
1017790	WORD	wordpools/wasnorm_wordpool_576.txt	LTP317	ltpFR2	8	6	CRITIC	410	n/a	n/a	0	0	0
1020443	WORD	wordpools/wasnorm_wordpool_576.txt	LTP317	ltpFR2	8	6	ACTRESS	6	n/a	n/a	0	0	0
1022945	WORD	wordpools/wasnorm_wordpool_576.txt	LTP317	ltpFR2	8	6	GIFT	635	n/a	n/a	0	0	0
1025646	WORD	wordpools/wasnorm_wordpool_576.txt	LTP317	ltpFR2	8	6	GYMNAST	675	n/a	n/a	0	0	0
1028449	WORD	wordpools/wasnorm_wordpool_576.txt	LTP317	ltpFR2	8	6	BARLEY	88	n/a	n/a	0	0	0
1031219	WORD	wordpools/wasnorm_wordpool_576.txt	LTP317	ltpFR2	8	6	HIKER	708	n/a	n/a	0	0	0
1032836	START	n/a	LTP317	ltpFR2	8	n/a	n/a	n/a	7	n/a	n/a	n/a	n/a
1033745	DISTRACTOR	n/a	LTP317	ltpFR2	8	6	n/a	n/a	n/a	n/a	0	0	0
1033752	PROB	n/a	LTP317	ltpFR2	8	n/a	n/a	n/a	7	18	2	8	8
1036673	PROB	n/a	LTP317	ltpFR2	8	n/a	n/a	n/a	7	8	1	4	3
1038788	PROB	n/a	LTP317	ltpFR2	8	n/a	n/a	n/a	7	20	9	6	5
1042910	PROB	n/a	LTP317	ltpFR2	8	n/a	n/a	n/a	7	15	5	8	2
1044378	PROB	n/a	LTP317	ltpFR2	8	n/a	n/a	n/a	7	21	3	9	9
1045930	PROB	n/a	LTP317	ltpFR2	8	n/a	n/a	n/a	7	12	9	2	1
1047428	PROB	n/a	LTP317	ltpFR2	8	n/a	n/a	n/a	7	19	4	7	8
1048934	PROB	n/a	LTP317	ltpFR2	8	n/a	n/a	n/a	7	7	1	5	1
1050147	PROB	n/a	LTP317	ltpFR2	8	n/a	n/a	n/a	7	10	6	3	1
1051816	PROB	n/a	LTP317	ltpFR2	8	n/a	n/a	n/a	7	10	3	4	3
1054020	PROB	n/a	LTP317	ltpFR2	8	n/a	n/a	n/a	7	16	9	4	3
1056640	STOP	n/a	LTP317	ltpFR2	8	n/a	n/a	n/a	7	n/a	n/a	n/a	n/a
1058636	REC_START	n/a	LTP317	ltpFR2	8	6	n/a	n/a	n/a	n/a	0	0	0
1059386	REC_WORD	wordpools/wasnorm_wordpool_576.txt	LTP317	ltpFR2	8	6	BOX	159	n/a	n/a	0	0	0
1060060	REC_WORD	wordpools/wasnorm_wordpool_576.txt	LTP317	ltpFR2	8	6	ATLAS	53	n/a	n/a	0	0	0
1064531	REC_WORD	wordpools/wasnorm_wordpool_576.txt	LTP317	ltpFR2	8	6	WORLD	1622	n/a	n/a	0	0	0
1065645	REC_WORD	wordpools/wasnorm_wordpool_576.txt	LTP317	ltpFR2	8	6	EMPIRE	530	n/a	n/a	0	0	0
1069882	REC_WORD	wordpools/wasnorm_wordpool_576.txt	LTP317	ltpFR2	8	6	BANJO	82	n/a	n/a	0	0	0
1070984	REC_WORD	wordpools/wasnorm_wordpool_576.txt	LTP317	ltpFR2	8	6	FIDDLE	561	n/a	n/a	0	0	0
1124494	REC_WORD	wordpools/wasnorm_wordpool_576.txt	LTP317	ltpFR2	8	6	BULLET	194	n/a	n/a	0	0	0
1149059	DISTRACTOR	n/a	LTP317	ltpFR2	8	7	n/a	n/a	n/a	n/a	0	0	0
1149060	START	n/a	LTP317	ltpFR2	8	n/a	n/a	n/a	8	n/a	n/a	n/a	n/a
1149073	PROB	n/a	LTP317	ltpFR2	8	n/a	n/a	n/a	8	12	5	5	2
1150734	PROB	n/a	LTP317	ltpFR2	8	n/a	n/a	n/a	8	20	7	9	4
1153187	PROB	n/a	LTP317	ltpFR2	8	n/a	n/a	n/a	8	22	6	7	9
1155991	PROB	n/a	LTP317	ltpFR2	8	n/a	n/a	n/a	8	14	1	5	8
1157704	PROB	n/a	LTP317	ltpFR2	8	n/a	n/a	n/a	8	12	5	6	1
1160258	PROB	n/a	LTP317	ltpFR2	8	n/a	n/a	n/a	8	8	2	1	5
1161641	PROB	n/a	LTP317	ltpFR2	8	n/a	n/a	n/a	8	17	8	8	1
1162860	PROB	n/a	LTP317	ltpFR2	8	n/a	n/a	n/a	8	9	3	5	1
1164145	PROB	n/a	LTP317	ltpFR2	8	n/a	n/a	n/a	8	13	9	1	3
1165646	PROB	n/a	LTP317	ltpFR2	8	n/a	n/a	n/a	8	8	3	2	3
1167132	PROB	n/a	LTP317	ltpFR2	8	n/a	n/a	n/a	8	11	5	3	3
1169449	PROB	n/a	LTP317	ltpFR2	8	n/a	n/a	n/a	8	15	9	5	1
1172321	STOP	n/a	LTP317	ltpFR2	8	n/a	n/a	n/a	8	n/a	n/a	n/a	n/a
1174123	WORD	wordpools/wasnorm_wordpool_576.txt	LTP317	ltpFR2	8	7	TABLE	1426	n/a	n/a	0	0	0
1176774	WORD	wordpools/wasnorm_wordpool_576.txt	LTP317	ltpFR2	8	7	SUNRISE	1407	n/a	n/a	0	0	0
1179509	WORD	wordpools/wasnorm_wordpool_576.txt	LTP317	ltpFR2	8	7	WORKER	1621	n/a	n/a	0	0	0
1182028	WORD	wordpools/wasnorm_wordpool_576.txt	LTP317	ltpFR2	8	7	TEACHER	1440	n/a	n/a	0	0	0
1184679	WORD	wordpools/wasnorm_wordpool_576.txt	LTP317	ltpFR2	8	7	FRECKLE	602	n/a	n/a	0	0	0
1187267	WORD	wordpools/wasnorm_wordpool_576.txt	LTP317	ltpFR2	8	7	TORTOISE	1486	n/a	n/a	0	0	0
1190073	WORD	wordpools/wasnorm_wordpool_576.txt	LTP317	ltpFR2	8	7	ELBOW	520	n/a	n/a	0	0	0
1192736	WORD	wordpools/wasnorm_wordpool_576.txt	LTP317	ltpFR2	8	7	ARM	38	n/a	n/a	0	0	0
1195323	WORD	wordpools/wasnorm_wordpool_576.txt	LTP317	ltpFR2	8	7	JAPAN	749	n/a	n/a	0	0	0
1198029	WORD	wordpools/wasnorm_wordpool_576.txt	LTP317	ltpFR2	8	7	PENGUIN	1044	n/a	n/a	0	0	0
1200527	WORD	wordpools/wasnorm_wordpool_576.txt	LTP317	ltpFR2	8	7	FEMALE	559	n/a	n/a	0	0	0
1203099	WORD	wordpools/wasnorm_wordpool_576.txt	LTP317	ltpFR2	8	7	CHEST	295	n/a	n/a	0	0	0
1205747	WORD	wordpools/wasnorm_wordpool_576.txt	LTP317	ltpFR2	8	7	MARKER	870	n/a	n/a	0	0	0
1208233	WORD	wordpools/wasnorm_wordpool_576.txt	LTP317	ltpFR2	8	7	FLESH	579	n/a	n/a	0	0	0
1210937	WORD	wordpools/wasnorm_wordpool_576.txt	LTP317	ltpFR2	8	7	HERO	706	n/a	n/a	0	0	0
1213705	WORD	wordpools/wasnorm_wordpool_576.txt	LTP317	ltpFR2	8	7	BUTCHER	203	n/a	n/a	0	0	0
1216240	WORD	wordpools/wasnorm_wordpool_576.txt	LTP317	ltpFR2	8	7	TYPIST	1532	n/a	n/a	0	0	0
1218977	WORD	wordpools/wasnorm_wordpool_576.txt	LTP317	ltpFR2	8	7	EYELASH	546	n/a	n/a	0	0	0
1221543	WORD	wordpools/wasnorm_wordpool_576.txt	LTP317	ltpFR2	8	7	FLAG	573	n/a	n/a	0	0	0
1224131	WORD	wordpools/wasnorm_wordpool_576.txt	LTP317	ltpFR2	8	7	TRIBE	1505	n/a	n/a	0	0	0
1226832	WORD	wordpools/wasnorm_wordpool_576.txt	LTP317	ltpFR2	8	7	POSSUM	1112	n/a	n/a	0	0	0
1229352	WORD	wordpools/wasnorm_wordpool_576.txt	LTP317	ltpFR2	8	7	CANYON	235	n/a	n/a	0	0	0
1232171	WORD	wordpools/wasnorm_wordpool_576.txt	LTP317	ltpFR2	8	7	SUMMIT	1405	n/a	n/a	0	0	0
1234672	WORD	wordpools/wasnorm_wordpool_576.txt	LTP317	ltpFR2	8	7	MEAT	883	n/a	n/a	0	0	0
1236291	START	n/a	LTP317	ltpFR2	8	n/a	n/a	n/a	9	n/a	n/a	n/a	n/a
1237301	DISTRACTOR	n/a	LTP317	ltpFR2	8	7	n/a	n/a	n/a	n/a	0	0	0
1237308	PROB	n/a	LTP317	ltpFR2	8	n/a	n/a	n/a	9	9	1	2	6
1238976	PROB	n/a	LTP317	ltpFR2	8	n/a	n/a	n/a	9	5	2	1	2
1240444	PROB	n/a	LTP317	ltpFR2	8	n/a	n/a	n/a	9	15	1	5	9
1241808	PROB	n/a	LTP317	ltpFR2	8	n/a	n/a	n/a	9	17	6	4	7
1243444	PROB	n/a	LTP317	ltpFR2	8	n/a	n/a	n/a	9	5	2	2	1
1244660	PROB	n/a	LTP317	ltpFR2	8	n/a	n/a	n/a	9	23	9	5	9
1247317	PROB	n/a	LTP317	ltpFR2	8	n/a	n/a	n/a	9	16	4	7	5
1248746	PROB	n/a	LTP317	ltpFR2	8	n/a	n/a	n/a	9	11	1	2	8
1250349	PROB	n/a	LTP317	ltpFR2	8	n/a	n/a	n/a	9	22	7	6	9
1253903	PROB	n/a	LTP317	ltpFR2	8	n/a	n/a	n/a	9	9	7	1	1
1255739	PROB	n/a	LTP317	ltpFR2	8	n/a	n/a	n/a	9	19	2	9	8
1260291	STOP	n/a	LTP317	ltpFR2	8	n/a	n/a	n/a	9	n/a	n/a	n/a	n/a
1262226	REC_START	n/a	LTP317	ltpFR2	8	7	n/a	n/a	n/a	n/a	0	0	0
1263742	REC_WORD	wordpools/wasnorm_wordpool_576.txt	LTP317	ltpFR2	8	7	PAPER	1011	n/a	n/a	0	0	0
1264367	REC_WORD	wordpools/wasnorm_wordpool_576.txt	LTP317	ltpFR2	8	7	SUNRISE	1407	n/a	n/a	0	0	0
1265469	REC_WORD	wordpools/wasnorm_wordpool_576.txt	LTP317	ltpFR2	8	7	WORKER	1621	n/a	n/a	0	0	0
1266377	REC_WORD	wordpools/wasnorm_wordpool_576.txt	LTP317	ltpFR2	8	7	TEACHER	1440	n/a	n/a	0	0	0
1268669	REC_WORD	wordpools/wasnorm_wordpool_576.txt	LTP317	ltpFR2	8	7	ELBOW	520	n/a	n/a	0	0	0
1270312	REC_WORD	wordpools/wasnorm_wordpool_576.txt	LTP317	ltpFR2	8	7	ARM	38	n/a	n/a	0	0	0
1271057	REC_WORD	wordpools/wasnorm_wordpool_576.txt	LTP317	ltpFR2	8	7	TORTOISE	1486	n/a	n/a	0	0	0
1272407	REC_WORD	wordpools/wasnorm_wordpool_576.txt	LTP317	ltpFR2	8	7	PEN	1041	n/a	n/a	0	0	0
1273197	REC_WORD	wordpools/wasnorm_wordpool_576.txt	LTP317	ltpFR2	8	7	CHEST	295	n/a	n/a	0	0	0
1274632	REC_WORD	wordpools/wasnorm_wordpool_576.txt	LTP317	ltpFR2	8	7	EYELASH	546	n/a	n/a	0	0	0
1352653	DISTRACTOR	n/a	LTP317	ltpFR2	8	8	n/a	n/a	n/a	n/a	0	0	0
1352653	START	n/a	LTP317	ltpFR2	8	n/a	n/a	n/a	10	n/a	n/a	n/a	n/a
1352670	PROB	n/a	LTP317	ltpFR2	8	n/a	n/a	n/a	10	17	3	8	6
1354737	PROB	n/a	LTP317	ltpFR2	8	n/a	n/a	n/a	10	11	1	9	1
1356455	PROB	n/a	LTP317	ltpFR2	8	n/a	n/a	n/a	10	12	6	2	4
1358005	PROB	n/a	LTP317	ltpFR2	8	n/a	n/a	n/a	10	21	8	5	8
1360690	PROB	n/a	LTP317	ltpFR2	8	n/a	n/a	n/a	10	11	8	1	2
1362243	PROB	n/a	LTP317	ltpFR2	8	n/a	n/a	n/a	10	13	4	3	6
1363761	PROB	n/a	LTP317	ltpFR2	8	n/a	n/a	n/a	10	14	6	7	1
1365764	PROB	n/a	LTP317	ltpFR2	8	n/a	n/a	n/a	10	17	9	1	7
1367196	PROB	n/a	LTP317	ltpFR2	8	n/a	n/a	n/a	10	20	8	4	8
1368916	PROB	n/a	LTP317	ltpFR2	8	n/a	n/a	n/a	10	17	7	9	1
1371017	PROB	n/a	LTP317	ltpFR2	8	n/a	n/a	n/a	10	9	1	5	3
1372784	PROB	n/a	LTP317	ltpFR2	8	n/a	n/a	n/a	10	20	6	7	7
1376652	STOP	n/a	LTP317	ltpFR2	8	n/a	n/a	n/a	10	n/a	n/a	n/a	n/a
1377573	WORD	wordpools/wasnorm_wordpool_576.txt	LTP317	ltpFR2	8	8	KETCHUP	771	n/a	n/a	0	0	0
1380259	WORD	wordpools/wasnorm_wordpool_576.txt	LTP317	ltpFR2	8	8	GARLIC	624	n/a	n/a	0	0	0
1382752	WORD	wordpools/wasnorm_wordpool_576.txt	LTP317	ltpFR2	8	8	FRUIT	610	n/a	n/a	0	0	0
1385537	WORD	wordpools/wasnorm_wordpool_576.txt	LTP317	ltpFR2	8	8	BELLY	119	n/a	n/a	0	0	0
1388316	WORD	wordpools/wasnorm_wordpool_576.txt	LTP317	ltpFR2	8	8	MACHINE	852	n/a	n/a	0	0	0
1390893	WORD	wordpools/wasnorm_wordpool_576.txt	LTP317	ltpFR2	8	8	LETTUCE	814	n/a	n/a	0	0	0
1393388	WORD	wordpools/wasnorm_wordpool_576.txt	LTP317	ltpFR2	8	8	PERCH	1048	n/a	n/a	0	0	0
1395863	WORD	wordpools/wasnorm_wordpool_576.txt	LTP317	ltpFR2	8	8	SUNSET	1408	n/a	n/a	0	0	0
1398642	WORD	wordpools/wasnorm_wordpool_576.txt	LTP317	ltpFR2	8	8	CABBAGE	210	n/a	n/a	0	0	0
1401301	WORD	wordpools/wasnorm_wordpool_576.txt	LTP317	ltpFR2	8	8	ULCER	1533	n/a	n/a	0	0	0
1404013	WORD	wordpools/wasnorm_wordpool_576.txt	LTP317	ltpFR2	8	8	PUDDING	1139	n/a	n/a	0	0	0
1406530	WORD	wordpools/wasnorm_wordpool_576.txt	LTP317	ltpFR2	8	8	BOYFRIEND	162	n/a	n/a	0	0	0
1409350	WORD	wordpools/wasnorm_wordpool_576.txt	LTP317	ltpFR2	8	8	BACKBONE	66	n/a	n/a	0	0	0
1411902	WORD	wordpools/wasnorm_wordpool_576.txt	LTP317	ltpFR2	8	8	MARROW	872	n/a	n/a	0	0	0
1414406	WORD	wordpools/wasnorm_wordpool_576.txt	LTP317	ltpFR2	8	8	CANAL	226	n/a	n/a	0	0	0
1416991	WORD	wordpools/wasnorm_wordpool_576.txt	LTP317	ltpFR2	8	8	FRIEND	606	n/a	n/a	0	0	0
1419658	WORD	wordpools/wasnorm_wordpool_576.txt	LTP317	ltpFR2	8	8	HEART	697	n/a	n/a	0	0	0
1422145	WORD	wordpools/wasnorm_wordpool_576.txt	LTP317	ltpFR2	8	8	CITRUS	313	n/a	n/a	0	0	0
1424662	WORD	wordpools/wasnorm_wordpool_576.txt	LTP317	ltpFR2	8	8	GRAPE	654	n/a	n/a	0	0	0
1427100	WORD	wordpools/wasnorm_wordpool_576.txt	LTP317	ltpFR2	8	8	MATCH	878	n/a	n/a	0	0	0
1429683	WORD	wordpools/wasnorm_wordpool_576.txt	LTP317	ltpFR2	8	8	FIREMAN	569	n/a	n/a	0	0	0
1432224	WORD	wordpools/wasnorm_wordpool_576.txt	LTP317	ltpFR2	8	8	ISLAND	745	n/a	n/a	0	0	0
1435006	WORD	wordpools/wasnorm_wordpool_576.txt	LTP317	ltpFR2	8	8	TWISTER	1530	n/a	n/a	0	0	0
1437624	WORD	wordpools/wasnorm_wordpool_576.txt	LTP317	ltpFR2	8	8	VIRUS	1572	n/a	n/a	0	0	0
1439231	START	n/a	LTP317	ltpFR2	8	n/a	n/a	n/a	11	n/a	n/a	n/a	n/a
1440247	DISTRACTOR	n/a	LTP317	ltpFR2	8	8	n/a	n/a	n/a	n/a	0	0	0
1440260	PROB	n/a	LTP317	ltpFR2	8	n/a	n/a	n/a	11	21	8	7	6
1442192	PROB	n/a	LTP317	ltpFR2	8	n/a	n/a	n/a	11	12	7	3	2
1443575	PROB	n/a	LTP317	ltpFR2	8	n/a	n/a	n/a	11	17	3	6	8
1445146	PROB	n/a	LTP317	ltpFR2	8	n/a	n/a	n/a	11	9	4	4	1
1446729	PROB	n/a	LTP317	ltpFR2	8	n/a	n/a	n/a	11	18	5	4	9
1448631	PROB	n/a	LTP317	ltpFR2	8	n/a	n/a	n/a	11	12	5	5	2
1450015	PROB	n/a	LTP317	ltpFR2	8	n/a	n/a	n/a	11	15	6	6	3
1451399	PROB	n/a	LTP317	ltpFR2	8	n/a	n/a	n/a	11	7	3	3	1
1453268	PROB	n/a	LTP317	ltpFR2	8	n/a	n/a	n/a	11	7	1	2	4
1454735	PROB	n/a	LTP317	ltpFR2	8	n/a	n/a	n/a	11	17	9	5	3
1456854	PROB	n/a	LTP317	ltpFR2	8	n/a	n/a	n/a	11	8	4	3	1
1458055	PROB	n/a	LTP317	ltpFR2	8	n/a	n/a	n/a	11	5	2	1	1
1459091	PROB	n/a	LTP317	ltpFR2	8	n/a	n/a	n/a	11	13	9	1	3
1461784	STOP	n/a	LTP317	ltpFR2	8	n/a	n/a	n/a	11	n/a	n/a	n/a	n/a
1465045	REC_START	n/a	LTP317	ltpFR2	8	8	n/a	n/a	n/a	n/a	0	0	0
1468163	REC_WORD	wordpools/wasnorm_wordpool_576.txt	LTP317	ltpFR2	8	8	CHIP	303	n/a	n/a	0	0	0
1468841	REC_WORD	wordpools/wasnorm_wordpool_576.txt	LTP317	ltpFR2	8	8	KETCHUP	771	n/a	n/a	0	0	0
1470080	REC_WORD	wordpools/wasnorm_wordpool_576.txt	LTP317	ltpFR2	8	8	GARLIC	624	n/a	n/a	0	0	0
1474401	REC_WORD	wordpools/wasnorm_wordpool_576.txt	LTP317	ltpFR2	8	8	FRUIT	610	n/a	n/a	0	0	0
1476331	REC_WORD	wordpools/wasnorm_wordpool_576.txt	LTP317	ltpFR2	8	8	BELLY	119	n/a	n/a	0	0	0
1478344	REC_WORD	wordpools/wasnorm_wordpool_576.txt	LTP317	ltpFR2	8	8	LETTUCE	814	n/a	n/a	0	0	0
1480259	REC_WORD	wordpools/wasnorm_wordpool_576.txt	LTP317	ltpFR2	8	8	CABBAGE	210	n/a	n/a	0	0	0
1486505	REC_WORD	wordpools/wasnorm_wordpool_576.txt	LTP317	ltpFR2	8	8	ISLAND	745	n/a	n/a	0	0	0
1487374	REC_WORD	wordpools/wasnorm_wordpool_576.txt	LTP317	ltpFR2	8	8	TWISTER	1530	n/a	n/a	0	0	0
1488549	REC_WORD	wordpools/wasnorm_wordpool_576.txt	LTP317	ltpFR2	8	8	CITRUS	313	n/a	n/a	0	0	0
1490060	REC_WORD	wordpools/wasnorm_wordpool_576.txt	LTP317	ltpFR2	8	8	GRAPE	654	n/a	n/a	0	0	0
1541590	REST_REWET	n/a	LTP317	ltpFR2	8	8	n/a	n/a	n/a	n/a	0	0	0
1810218	DISTRACTOR	n/a	LTP317	ltpFR2	8	9	n/a	n/a	n/a	n/a	0	0	0
1810218	START	n/a	LTP317	ltpFR2	8	n/a	n/a	n/a	12	n/a	n/a	n/a	n/a
1810232	PROB	n/a	LTP317	ltpFR2	8	n/a	n/a	n/a	12	13	6	1	6
1811776	PROB	n/a	LTP317	ltpFR2	8	n/a	n/a	n/a	12	15	8	3	2
1813129	PROB	n/a	LTP317	ltpFR2	8	n/a	n/a	n/a	12	24	6	9	9
1815371	PROB	n/a	LTP317	ltpFR2	8	n/a	n/a	n/a	12	12	6	2	4
1817039	PROB	n/a	LTP317	ltpFR2	8	n/a	n/a	n/a	12	14	6	6	2
1819656	PROB	n/a	LTP317	ltpFR2	8	n/a	n/a	n/a	12	13	8	1	4
1821451	PROB	n/a	LTP317	ltpFR2	8	n/a	n/a	n/a	12	17	9	5	3
1823258	PROB	n/a	LTP317	ltpFR2	8	n/a	n/a	n/a	12	11	3	3	5
1825480	PROB	n/a	LTP317	ltpFR2	8	n/a	n/a	n/a	12	5	1	3	1
1826560	PROB	n/a	LTP317	ltpFR2	8	n/a	n/a	n/a	12	20	8	4	8
1828231	PROB	n/a	LTP317	ltpFR2	8	n/a	n/a	n/a	12	18	8	2	8
1830931	PROB	n/a	LTP317	ltpFR2	8	n/a	n/a	n/a	12	21	7	7	7
1832150	PROB	n/a	LTP317	ltpFR2	8	n/a	n/a	n/a	12	19	4	7	8
1833640	STOP	n/a	LTP317	ltpFR2	8	n/a	n/a	n/a	12	n/a	n/a	n/a	n/a
1835055	WORD	wordpools/wasnorm_wordpool_576.txt	LTP317	ltpFR2	8	9	VALLEY	1545	n/a	n/a	0	0	0
1837523	WORD	wordpools/wasnorm_wordpool_576.txt	LTP317	ltpFR2	8	9	HUMAN	726	n/a	n/a	0	0	0
1840169	WORD	wordpools/wasnorm_wordpool_576.txt	LTP317	ltpFR2	8	9	MONSTER	912	n/a	n/a	0	0	0
1842736	WORD	wordpools/wasnorm_wordpool_576.txt	LTP317	ltpFR2	8	9	COBRA	336	n/a	n/a	0	0	0
1845263	WORD	wordpools/wasnorm_wordpool_576.txt	LTP317	ltpFR2	8	9	SANDWICH	1232	n/a	n/a	0	0	0
1847892	WORD	wordpools/wasnorm_wordpool_576.txt	LTP317	ltpFR2	8	9	SKIRT	1319	n/a	n/a	0	0	0
1850327	WORD	wordpools/wasnorm_wordpool_576.txt	LTP317	ltpFR2	8	9	OUTFIT	988	n/a	n/a	0	0	0
1852929	WORD	wordpools/wasnorm_wordpool_576.txt	LTP317	ltpFR2	8	9	SOFTBALL	1343	n/a	n/a	0	0	0
1855473	WORD	wordpools/wasnorm_wordpool_576.txt	LTP317	ltpFR2	8	9	OMELET	976	n/a	n/a	0	0	0
1858100	WORD	wordpools/wasnorm_wordpool_576.txt	LTP317	ltpFR2	8	9	BALLOON	75	n/a	n/a	0	0	0
1860616	WORD	wordpools/wasnorm_wordpool_576.txt	LTP317	ltpFR2	8	9	TAXI	1438	n/a	n/a	0	0	0
1863211	WORD	wordpools/wasnorm_wordpool_576.txt	LTP317	ltpFR2	8	9	RACKET	1155	n/a	n/a	0	0	0
1865654	WORD	wordpools/wasnorm_wordpool_576.txt	LTP317	ltpFR2	8	9	CRUTCH	417	n/a	n/a	0	0	0
1868140	WORD	wordpools/wasnorm_wordpool_576.txt	LTP317	ltpFR2	8	9	GRAVEL	659	n/a	n/a	0	0	0
1870807	WORD	wordpools/wasnorm_wordpool_576.txt	LTP317	ltpFR2	8	9	STICKER	1382	n/a	n/a	0	0	0
1873404	WORD	wordpools/wasnorm_wordpool_576.txt	LTP317	ltpFR2	8	9	RELISH	1183	n/a	n/a	0	0	0
1875872	WORD	wordpools/wasnorm_wordpool_576.txt	LTP317	ltpFR2	8	9	BACON	67	n/a	n/a	0	0	0
1878382	WORD	wordpools/wasnorm_wordpool_576.txt	LTP317	ltpFR2	8	9	OUTLAW	989	n/a	n/a	0	0	0
1880893	WORD	wordpools/wasnorm_wordpool_576.txt	LTP317	ltpFR2	8	9	CAPTIVE	240	n/a	n/a	0	0	0
1883694	WORD	wordpools/wasnorm_wordpool_576.txt	LTP317	ltpFR2	8	9	BODY	145	n/a	n/a	0	0	0
1886247	WORD	wordpools/wasnorm_wordpool_576.txt	LTP317	ltpFR2	8	9	DOLPHIN	483	n/a	n/a	0	0	0
1889033	WORD	wordpools/wasnorm_wordpool_576.txt	LTP317	ltpFR2	8	9	SALT	1229	n/a	n/a	0	0	0
1891541	WORD	wordpools/wasnorm_wordpool_576.txt	LTP317	ltpFR2	8	9	PEPPER	1047	n/a	n/a	0	0	0
1894105	WORD	wordpools/wasnorm_wordpool_576.txt	LTP317	ltpFR2	8	9	FREEZER	604	n/a	n/a	0	0	0
1895722	START	n/a	LTP317	ltpFR2	8	n/a	n/a	n/a	13	n/a	n/a	n/a	n/a
1896794	DISTRACTOR	n/a	LTP317	ltpFR2	8	9	n/a	n/a	n/a	n/a	0	0	0
1896806	PROB	n/a	LTP317	ltpFR2	8	n/a	n/a	n/a	13	15	1	8	6
1899738	PROB	n/a	LTP317	ltpFR2	8	n/a	n/a	n/a	13	21	8	9	4
1902474	PROB	n/a	LTP317	ltpFR2	8	n/a	n/a	n/a	13	20	7	8	5
1905093	PROB	n/a	LTP317	ltpFR2	8	n/a	n/a	n/a	13	12	4	5	3
1906794	PROB	n/a	LTP317	ltpFR2	8	n/a	n/a	n/a	13	20	8	3	9
1908745	PROB	n/a	LTP317	ltpFR2	8	n/a	n/a	n/a	13	19	6	7	6
1911218	PROB	n/a	LTP317	ltpFR2	8	n/a	n/a	n/a	13	17	8	2	7
1913103	PROB	n/a	LTP317	ltpFR2	8	n/a	n/a	n/a	13	15	9	5	1
1915002	PROB	n/a	LTP317	ltpFR2	8	n/a	n/a	n/a	13	20	5	7	8
1916670	PROB	n/a	LTP317	ltpFR2	8	n/a	n/a	n/a	13	11	1	1	9
1919721	STOP	n/a	LTP317	ltpFR2	8	n/a	n/a	n/a	13	n/a	n/a	n/a	n/a
1921624	REC_START	n/a	LTP317	ltpFR2	8	9	n/a	n/a	n/a	n/a	0	0	0
1923004	REC_WORD	wordpools/wasnorm_wordpool_576.txt	LTP317	ltpFR2	8	9	VALLEY	1545	n/a	n/a	0	0	0
1923508	REC_WORD	wordpools/wasnorm_wordpool_576.txt	LTP317	ltpFR2	8	9	HUMAN	726	n/a	n/a	0	0	0
1924059	REC_WORD	wordpools/wasnorm_wordpool_576.txt	LTP317	ltpFR2	8	9	MONSTER	912	n/a	n/a	0	0	0
1924643	REC_WORD	wordpools/wasnorm_wordpool_576.txt	LTP317	ltpFR2	8	9	COBRA	336	n/a	n/a	0	0	0
1925439	REC_WORD	wordpools/wasnorm_wordpool_576.txt	LTP317	ltpFR2	8	9	SANDWICH	1232	n/a	n/a	0	0	0
1926452	REC_WORD	wordpools/wasnorm_wordpool_576.txt	LTP317	ltpFR2	8	9	SKIRT	1319	n/a	n/a	0	0	0
1927004	REC_WORD	wordpools/wasnorm_wordpool_576.txt	LTP317	ltpFR2	8	9	OUTFIT	988	n/a	n/a	0	0	0
1931639	REC_WORD	wordpools/wasnorm_wordpool_576.txt	LTP317	ltpFR2	8	9	TAXI	1438	n/a	n/a	0	0	0
1932332	REC_WORD	wordpools/wasnorm_wordpool_576.txt	LTP317	ltpFR2	8	9	BALLOON	75	n/a	n/a	0	0	0
2012066	DISTRACTOR	n/a	LTP317	ltpFR2	8	10	n/a	n/a	n/a	n/a	0	0	0
2012067	START	n/a	LTP317	ltpFR2	8	n/a	n/a	n/a	14	n/a	n/a	n/a	n/a
2012085	PROB	n/a	LTP317	ltpFR2	8	n/a	n/a	n/a	14	9	3	3	3
2013115	PROB	n/a	LTP317	ltpFR2	8	n/a	n/a	n/a	14	6	2	2	2
2014101	PROB	n/a	LTP317	ltpFR2	8	n/a	n/a	n/a	14	18	8	2	8
2015649	PROB	n/a	LTP317	ltpFR2	8	n/a	n/a	n/a	14	15	8	1	6
2017634	PROB	n/a	LTP317	ltpFR2	8	n/a	n/a	n/a	14	20	6	5	9
2019887	PROB	n/a	LTP317	ltpFR2	8	n/a	n/a	n/a	14	11	3	3	5
2022022	PROB	n/a	LTP317	ltpFR2	8	n/a	n/a	n/a	14	12	5	2	5
2023256	PROB	n/a	LTP317	ltpFR2	8	n/a	n/a	n/a	14	17	4	6	7
2024775	PROB	n/a	LTP317	ltpFR2	8	n/a	n/a	n/a	14	12	1	4	7
2026027	PROB	n/a	LTP317	ltpFR2	8	n/a	n/a	n/a	14	19	8	8	3
2027641	PROB	n/a	LTP317	ltpFR2	8	n/a	n/a	n/a	14	8	4	2	2
2029296	PROB	n/a	LTP317	ltpFR2	8	n/a	n/a	n/a	14	17	7	4	6
2030778	PROB	n/a	LTP317	ltpFR2	8	n/a	n/a	n/a	14	19	6	5	8
2032380	PROB	n/a	LTP317	ltpFR2	8	n/a	n/a	n/a	14	14	2	6	6
2034365	PROB	n/a	LTP317	ltpFR2	8	n/a	n/a	n/a	14	15	8	3	2
2035592	STOP	n/a	LTP317	ltpFR2	8	n/a	n/a	n/a	14	n/a	n/a	n/a	n/a
2037186	WORD	wordpools/wasnorm_wordpool_576.txt	LTP317	ltpFR2	8	10	STATUE	1374	n/a	n/a	0	0	0
2039674	WORD	wordpools/wasnorm_wordpool_576.txt	LTP317	ltpFR2	8	10	TOMBSTONE	1478	n/a	n/a	0	0	0
2042128	WORD	wordpools/wasnorm_wordpool_576.txt	LTP317	ltpFR2	8	10	BLOUSE	139	n/a	n/a	0	0	0
2044640	WORD	wordpools/wasnorm_wordpool_576.txt	LTP317	ltpFR2	8	10	OYSTER	995	n/a	n/a	0	0	0
2047210	WORD	wordpools/wasnorm_wordpool_576.txt	LTP317	ltpFR2	8	10	TUTU	1524	n/a	n/a	0	0	0
2049901	WORD	wordpools/wasnorm_wordpool_576.txt	LTP317	ltpFR2	8	10	SPARROW	1347	n/a	n/a	0	0	0
2052579	WORD	wordpools/wasnorm_wordpool_576.txt	LTP317	ltpFR2	8	10	INFANT	737	n/a	n/a	0	0	0
2055283	WORD	wordpools/wasnorm_wordpool_576.txt	LTP317	ltpFR2	8	10	FLIPPER	580	n/a	n/a	0	0	0
2057755	WORD	wordpools/wasnorm_wordpool_576.txt	LTP317	ltpFR2	8	10	HOOK	715	n/a	n/a	0	0	0
2060475	WORD	wordpools/wasnorm_wordpool_576.txt	LTP317	ltpFR2	8	10	PLIERS	1089	n/a	n/a	0	0	0
2063056	WORD	wordpools/wasnorm_wordpool_576.txt	LTP317	ltpFR2	8	10	WRENCH	1625	n/a	n/a	0	0	0
2065530	WORD	wordpools/wasnorm_wordpool_576.txt	LTP317	ltpFR2	8	10	LAPEL	800	n/a	n/a	0	0	0
2068149	WORD	wordpools/wasnorm_wordpool_576.txt	LTP317	ltpFR2	8	10	WAITER	1580	n/a	n/a	0	0	0
2070667	WORD	wordpools/wasnorm_wordpool_576.txt	LTP317	ltpFR2	8	10	BLOCKADE	137	n/a	n/a	0	0	0
2073364	WORD	wordpools/wasnorm_wordpool_576.txt	LTP317	ltpFR2	8	10	DRUG	501	n/a	n/a	0	0	0
2076081	WORD	wordpools/wasnorm_wordpool_576.txt	LTP317	ltpFR2	8	10	PLAID	1080	n/a	n/a	0	0	0
2078508	WORD	wordpools/wasnorm_wordpool_576.txt	LTP317	ltpFR2	8	10	SUSPECT	1415	n/a	n/a	0	0	0
2080953	WORD	wordpools/wasnorm_wordpool_576.txt	LTP317	ltpFR2	8	10	GRIZZLY	662	n/a	n/a	0	0	0
2083603	WORD	wordpools/wasnorm_wordpool_576.txt	LTP317	ltpFR2	8	10	SPHINX	1349	n/a	n/a	0	0	0
2086123	WORD	wordpools/wasnorm_wordpool_576.txt	LTP317	ltpFR2	8	10	SNACK	1331	n/a	n/a	0	0	0
2088740	WORD	wordpools/wasnorm_wordpool_576.txt	LTP317	ltpFR2	8	10	WIDOW	1608	n/a	n/a	0	0	0
2091443	WORD	wordpools/wasnorm_wordpool_576.txt	LTP317	ltpFR2	8	10	CURTAIN	427	n/a	n/a	0	0	0
2093995	WORD	wordpools/wasnorm_wordpool_576.txt	LTP317	ltpFR2	8	10	ROD	1203	n/a	n/a	0	0	0
2096647	WORD	wordpools/wasnorm_wordpool_576.txt	LTP317	ltpFR2	8	10	LEG	809	n/a	n/a	0	0	0
2098257	START	n/a	LTP317	ltpFR2	8	n/a	n/a	n/a	15	n/a	n/a	n/a	n/a
2099093	DISTRACTOR	n/a	LTP317	ltpFR2	8	10	n/a	n/a	n/a	n/a	0	0	0
2099100	PROB	n/a	LTP317	ltpFR2	8	n/a	n/a	n/a	15	20	7	7	6
2101073	PROB	n/a	LTP317	ltpFR2	8	n/a	n/a	n/a	15	16	3	4	9
2102656	PROB	n/a	LTP317	ltpFR2	8	n/a	n/a	n/a	15	21	9	9	3
2104643	PROB	n/a	LTP317	ltpFR2	8	n/a	n/a	n/a	15	14	6	3	5
2107429	PROB	n/a	LTP317	ltpFR2	8	n/a	n/a	n/a	15	16	7	8	1
2108946	PROB	n/a	LTP317	ltpFR2	8	n/a	n/a	n/a	15	15	8	6	1
2110465	PROB	n/a	LTP317	ltpFR2	8	n/a	n/a	n/a	15	22	5	9	8
2113667	PROB	n/a	LTP317	ltpFR2	8	n/a	n/a	n/a	15	9	5	2	2
2115185	PROB	n/a	LTP317	ltpFR2	8	n/a	n/a	n/a	15	15	3	8	4
2116502	PROB	n/a	LTP317	ltpFR2	8	n/a	n/a	n/a	15	13	1	6	6
2122256	STOP	n/a	LTP317	ltpFR2	8	n/a	n/a	n/a	15	n/a	n/a	n/a	n/a
2124026	REC_START	n/a	LTP317	ltpFR2	8	10	n/a	n/a	n/a	n/a	0	0	0
2144945	REC_WORD	wordpools/wasnorm_wordpool_576.txt	LTP317	ltpFR2	8	10	BLOUSE	139	n/a	n/a	0	0	0
2146038	REC_WORD	wordpools/wasnorm_wordpool_576.txt	LTP317	ltpFR2	8	10	OYSTER	995	n/a	n/a	0	0	0
2155083	REC_WORD	wordpools/wasnorm_wordpool_576.txt	LTP317	ltpFR2	8	10	GRIZZLY	662	n/a	n/a	0	0	0
2157629	REC_WORD	wordpools/wasnorm_wordpool_576.txt	LTP317	ltpFR2	8	10	SANDWICH	1232	n/a	n/a	0	0	0
2184797	REC_WORD	wordpools/wasnorm_wordpool_576.txt	LTP317	ltpFR2	8	10	WIDOW	1608	n/a	n/a	0	0	0
2214502	WORD	wordpools/wasnorm_wordpool_576.txt	LTP317	ltpFR2	8	11	ANKLE	24	n/a	n/a	0	0	0
2217040	WORD	wordpools/wasnorm_wordpool_576.txt	LTP317	ltpFR2	8	11	CROWN	415	n/a	n/a	0	0	0
2219724	WORD	wordpools/wasnorm_wordpool_576.txt	LTP317	ltpFR2	8	11	THRONE	1461	n/a	n/a	0	0	0
2222494	WORD	wordpools/wasnorm_wordpool_576.txt	LTP317	ltpFR2	8	11	TROUT	1511	n/a	n/a	0	0	0
2225212	WORD	wordpools/wasnorm_wordpool_576.txt	LTP317	ltpFR2	8	11	CHEMIST	292	n/a	n/a	0	0	0
2228032	WORD	wordpools/wasnorm_wordpool_576.txt	LTP317	ltpFR2	8	11	LION	827	n/a	n/a	0	0	0
2230698	WORD	wordpools/wasnorm_wordpool_576.txt	LTP317	ltpFR2	8	11	CRICKET	408	n/a	n/a	0	0	0
2233286	WORD	wordpools/wasnorm_wordpool_576.txt	LTP317	ltpFR2	8	11	LOFT	840	n/a	n/a	0	0	0
2235853	WORD	wordpools/wasnorm_wordpool_576.txt	LTP317	ltpFR2	8	11	WASP	1593	n/a	n/a	0	0	0
2238506	WORD	wordpools/wasnorm_wordpool_576.txt	LTP317	ltpFR2	8	11	OINTMENT	974	n/a	n/a	0	0	0
2241308	WORD	wordpools/wasnorm_wordpool_576.txt	LTP317	ltpFR2	8	11	COCOON	339	n/a	n/a	0	0	0
2243945	WORD	wordpools/wasnorm_wordpool_576.txt	LTP317	ltpFR2	8	11	ITEM	746	n/a	n/a	0	0	0
2246578	WORD	wordpools/wasnorm_wordpool_576.txt	LTP317	ltpFR2	8	11	UMPIRE	1535	n/a	n/a	0	0	0
2249013	WORD	wordpools/wasnorm_wordpool_576.txt	LTP317	ltpFR2	8	11	DASHBOARD	441	n/a	n/a	0	0	0
2251565	WORD	wordpools/wasnorm_wordpool_576.txt	LTP317	ltpFR2	8	11	DRIVER	499	n/a	n/a	0	0	0
2254102	WORD	wordpools/wasnorm_wordpool_576.txt	LTP317	ltpFR2	8	11	HOOD	714	n/a	n/a	0	0	0
2256904	WORD	wordpools/wasnorm_wordpool_576.txt	LTP317	ltpFR2	8	11	NIGHTGOWN	953	n/a	n/a	0	0	0
2259371	WORD	wordpools/wasnorm_wordpool_576.txt	LTP317	ltpFR2	8	11	BRANDY	169	n/a	n/a	0	0	0
2262040	WORD	wordpools/wasnorm_wordpool_576.txt	LTP317	ltpFR2	8	11	GOBLIN	645	n/a	n/a	0	0	0
2264510	WORD	wordpools/wasnorm_wordpool_576.txt	LTP317	ltpFR2	8	11	SLIME	1327	n/a	n/a	0	0	0
2267295	WORD	wordpools/wasnorm_wordpool_576.txt	LTP317	ltpFR2	8	11	COURSE	390	n/a	n/a	0	0	0
2270097	WORD	wordpools/wasnorm_wordpool_576.txt	LTP317	ltpFR2	8	11	TURKEY	1520	n/a	n/a	0	0	0
2272665	WORD	wordpools/wasnorm_wordpool_576.txt	LTP317	ltpFR2	8	11	MAILBOX	857	n/a	n/a	0	0	0
2275134	WORD	wordpools/wasnorm_wordpool_576.txt	LTP317	ltpFR2	8	11	JELLY	755	n/a	n/a	0	0	0
2276752	START	n/a	LTP317	ltpFR2	8	n/a	n/a	n/a	16	n/a	n/a	n/a	n/a
2277602	DISTRACTOR	n/a	LTP317	ltpFR2	8	11	n/a	n/a	n/a	n/a	0	0	0
2277618	PROB	n/a	LTP317	ltpFR2	8	n/a	n/a	n/a	16	22	7	9	6
2280421	PROB	n/a	LTP317	ltpFR2	8	n/a	n/a	n/a	16	17	4	4	9
2282053	PROB	n/a	LTP317	ltpFR2	8	n/a	n/a	n/a	16	14	3	9	2
2283536	PROB	n/a	LTP317	ltpFR2	8	n/a	n/a	n/a	16	20	2	9	9
2285046	PROB	n/a	LTP317	ltpFR2	8	n/a	n/a	n/a	16	16	8	5	3
2286739	PROB	n/a	LTP317	ltpFR2	8	n/a	n/a	n/a	16	23	9	7	7
2288961	PROB	n/a	LTP317	ltpFR2	8	n/a	n/a	n/a	16	20	4	9	7
2291016	PROB	n/a	LTP317	ltpFR2	8	n/a	n/a	n/a	16	17	1	8	8
2294694	PROB	n/a	LTP317	ltpFR2	8	n/a	n/a	n/a	16	21	7	9	5
2297652	PROB	n/a	LTP317	ltpFR2	8	n/a	n/a	n/a	16	12	4	4	4
2300750	STOP	n/a	LTP317	ltpFR2	8	n/a	n/a	n/a	16	n/a	n/a	n/a	n/a
2302568	REC_START	n/a	LTP317	ltpFR2	8	11	n/a	n/a	n/a	n/a	0	0	0
2308616	REC_WORD	wordpools/wasnorm_wordpool_576.txt	LTP317	ltpFR2	8	11	ANKLE	24	n/a	n/a	0	0	0
2309322	REC_WORD	wordpools/wasnorm_wordpool_576.txt	LTP317	ltpFR2	8	11	CROWN	415	n/a	n/a	0	0	0
2310079	REC_WORD	wordpools/wasnorm_wordpool_576.txt	LTP317	ltpFR2	8	11	THRONE	1461	n/a	n/a	0	0	0
2311622	REC_WORD	wordpools/wasnorm_wordpool_576.txt	LTP317	ltpFR2	8	11	TROUT	1511	n/a	n/a	0	0	0
2313057	REC_WORD	wordpools/wasnorm_wordpool_576.txt	LTP317	ltpFR2	8	11	CHEMIST	292	n/a	n/a	0	0	0
2314225	REC_WORD	wordpools/wasnorm_wordpool_576.txt	LTP317	ltpFR2	8	11	TURKEY	1520	n/a	n/a	0	0	0
2315261	REC_WORD	wordpools/wasnorm_wordpool_576.txt	LTP317	ltpFR2	8	11	MAILBOX	857	n/a	n/a	0	0	0
2316412	REC_WORD	wordpools/wasnorm_wordpool_576.txt	LTP317	ltpFR2	8	11	DASHBOARD	441	n/a	n/a	0	0	0
2393003	DISTRACTOR	n/a	LTP317	ltpFR2	8	12	n/a	n/a	n/a	n/a	0	0	0
2393003	START	n/a	LTP317	ltpFR2	8	n/a	n/a	n/a	17	n/a	n/a	n/a	n/a
2393016	PROB	n/a	LTP317	ltpFR2	8	n/a	n/a	n/a	17	18	9	3	4
2396103	PROB	n/a	LTP317	ltpFR2	8	n/a	n/a	n/a	17	16	6	1	9
2398539	PROB	n/a	LTP317	ltpFR2	8	n/a	n/a	n/a	17	14	1	4	9
2400704	PROB	n/a	LTP317	ltpFR2	8	n/a	n/a	n/a	17	18	4	7	7
2402240	PROB	n/a	LTP317	ltpFR2	8	n/a	n/a	n/a	17	8	2	3	3
2403758	PROB	n/a	LTP317	ltpFR2	8	n/a	n/a	n/a	17	12	1	8	3
2405328	PROB	n/a	LTP317	ltpFR2	8	n/a	n/a	n/a	17	21	5	7	9
2407045	PROB	n/a	LTP317	ltpFR2	8	n/a	n/a	n/a	17	14	3	8	3
2408829	PROB	n/a	LTP317	ltpFR2	8	n/a	n/a	n/a	17	10	8	1	1
2410164	PROB	n/a	LTP317	ltpFR2	8	n/a	n/a	n/a	17	16	3	8	5
2411547	PROB	n/a	LTP317	ltpFR2	8	n/a	n/a	n/a	17	24	9	7	9
2416993	STOP	n/a	LTP317	ltpFR2	8	n/a	n/a	n/a	17	n/a	n/a	n/a	n/a
2418108	WORD	wordpools/wasnorm_wordpool_576.txt	LTP317	ltpFR2	8	12	MESSAGE	888	n/a	n/a	0	0	0
2420862	WORD	wordpools/wasnorm_wordpool_576.txt	LTP317	ltpFR2	8	12	STAMP	1370	n/a	n/a	0	0	0
2423611	WORD	wordpools/wasnorm_wordpool_576.txt	LTP317	ltpFR2	8	12	ZIPPER	1636	n/a	n/a	0	0	0
2426114	WORD	wordpools/wasnorm_wordpool_576.txt	LTP317	ltpFR2	8	12	BANK	83	n/a	n/a	0	0	0
2428748	WORD	wordpools/wasnorm_wordpool_576.txt	LTP317	ltpFR2	8	12	SWIMMER	1420	n/a	n/a	0	0	0
2431534	WORD	wordpools/wasnorm_wordpool_576.txt	LTP317	ltpFR2	8	12	SHARK	1275	n/a	n/a	0	0	0
2434221	WORD	wordpools/wasnorm_wordpool_576.txt	LTP317	ltpFR2	8	12	FLOWER	584	n/a	n/a	0	0	0
2436974	WORD	wordpools/wasnorm_wordpool_576.txt	LTP317	ltpFR2	8	12	GARDEN	623	n/a	n/a	0	0	0
2439674	WORD	wordpools/wasnorm_wordpool_576.txt	LTP317	ltpFR2	8	12	QUARTER	1148	n/a	n/a	0	0	0
2442361	WORD	wordpools/wasnorm_wordpool_576.txt	LTP317	ltpFR2	8	12	SKILLET	1317	n/a	n/a	0	0	0
2445129	WORD	wordpools/wasnorm_wordpool_576.txt	LTP317	ltpFR2	8	12	ORCHID	982	n/a	n/a	0	0	0
2447848	WORD	wordpools/wasnorm_wordpool_576.txt	LTP317	ltpFR2	8	12	PRIMATE	1123	n/a	n/a	0	0	0
2450666	WORD	wordpools/wasnorm_wordpool_576.txt	LTP317	ltpFR2	8	12	AGENT	10	n/a	n/a	0	0	0
2453335	WORD	wordpools/wasnorm_wordpool_576.txt	LTP317	ltpFR2	8	12	SEAFOOD	1260	n/a	n/a	0	0	0
2455838	WORD	wordpools/wasnorm_wordpool_576.txt	LTP317	ltpFR2	8	12	AIRPLANE	12	n/a	n/a	0	0	0
2458540	WORD	wordpools/wasnorm_wordpool_576.txt	LTP317	ltpFR2	8	12	HAWK	692	n/a	n/a	0	0	0
2461109	WORD	wordpools/wasnorm_wordpool_576.txt	LTP317	ltpFR2	8	12	SODA	1341	n/a	n/a	0	0	0
2463928	WORD	wordpools/wasnorm_wordpool_576.txt	LTP317	ltpFR2	8	12	RIVER	1194	n/a	n/a	0	0	0
2466380	WORD	wordpools/wasnorm_wordpool_576.txt	LTP317	ltpFR2	8	12	SPIDER	1351	n/a	n/a	0	0	0
2469216	WORD	wordpools/wasnorm_wordpool_576.txt	LTP317	ltpFR2	8	12	REPORT	1184	n/a	n/a	0	0	0
2471749	WORD	wordpools/wasnorm_wordpool_576.txt	LTP317	ltpFR2	8	12	SUITCASE	1403	n/a	n/a	0	0	0
2474552	WORD	wordpools/wasnorm_wordpool_576.txt	LTP317	ltpFR2	8	12	DRINK	498	n/a	n/a	0	0	0
2477338	WORD	wordpools/wasnorm_wordpool_576.txt	LTP317	ltpFR2	8	12	BATHTUB	100	n/a	n/a	0	0	0
2480007	WORD	wordpools/wasnorm_wordpool_576.txt	LTP317	ltpFR2	8	12	COIN	343	n/a	n/a	0	0	0
2481624	START	n/a	LTP317	ltpFR2	8	n/a	n/a	n/a	18	n/a	n/a	n/a	n/a
2482744	DISTRACTOR	n/a	LTP317	ltpFR2	8	12	n/a	n/a	n/a	n/a	0	0	0
2482758	PROB	n/a	LTP317	ltpFR2	8	n/a	n/a	n/a	18	22	5	9	8
2486808	PROB	n/a	LTP317	ltpFR2	8	n/a	n/a	n/a	18	19	8	2	9
2488112	PROB	n/a	LTP317	ltpFR2	8	n/a	n/a	n/a	18	17	5	6	6
2490280	PROB	n/a	LTP317	ltpFR2	8	n/a	n/a	n/a	18	16	6	9	1
2491749	PROB	n/a	LTP317	ltpFR2	8	n/a	n/a	n/a	18	15	8	3	4
2494167	PROB	n/a	LTP317	ltpFR2	8	n/a	n/a	n/a	18	14	5	6	3
2495720	PROB	n/a	LTP317	ltpFR2	8	n/a	n/a	n/a	18	12	1	3	8
2497116	PROB	n/a	LTP317	ltpFR2	8	n/a	n/a	n/a	18	12	3	1	8
2498653	PROB	n/a	LTP317	ltpFR2	8	n/a	n/a	n/a	18	17	7	2	8
2501406	PROB	n/a	LTP317	ltpFR2	8	n/a	n/a	n/a	18	21	4	9	8
2504969	STOP	n/a	LTP317	ltpFR2	8	n/a	n/a	n/a	18	n/a	n/a	n/a	n/a
2507594	REC_START	n/a	LTP317	ltpFR2	8	12	n/a	n/a	n/a	n/a	0	0	0
2533900	REC_WORD	wordpools/wasnorm_wordpool_576.txt	LTP317	ltpFR2	8	12	BANK	83	n/a	n/a	0	0	0
2534815	REC_WORD	wordpools/wasnorm_wordpool_576.txt	LTP317	ltpFR2	8	12	SWIMMER	1420	n/a	n/a	0	0	0
2598021	WORD	wordpools/wasnorm_wordpool_576.txt	LTP317	ltpFR2	8	13	HANDBAG	684	n/a	n/a	0	0	0
2600466	WORD	wordpools/wasnorm_wordpool_576.txt	LTP317	ltpFR2	8	13	SALMON	1227	n/a	n/a	0	0	0
2602961	WORD	wordpools/wasnorm_wordpool_576.txt	LTP317	ltpFR2	8	13	ROCKET	1202	n/a	n/a	0	0	0
2605413	WORD	wordpools/wasnorm_wordpool_576.txt	LTP317	ltpFR2	8	13	COLONEL	348	n/a	n/a	0	0	0
2607887	WORD	wordpools/wasnorm_wordpool_576.txt	LTP317	ltpFR2	8	13	SCALPEL	1243	n/a	n/a	0	0	0
2610483	WORD	wordpools/wasnorm_wordpool_576.txt	LTP317	ltpFR2	8	13	VICTIM	1562	n/a	n/a	0	0	0
2613218	WORD	wordpools/wasnorm_wordpool_576.txt	LTP317	ltpFR2	8	13	HAND	683	n/a	n/a	0	0	0
2615653	WORD	wordpools/wasnorm_wordpool_576.txt	LTP317	ltpFR2	8	13	HORNET	718	n/a	n/a	0	0	0
2618396	WORD	wordpools/wasnorm_wordpool_576.txt	LTP317	ltpFR2	8	13	SCRIBBLE	1256	n/a	n/a	0	0	0
2621143	WORD	wordpools/wasnorm_wordpool_576.txt	LTP317	ltpFR2	8	13	SCOTCH	1251	n/a	n/a	0	0	0
2623900	WORD	wordpools/wasnorm_wordpool_576.txt	LTP317	ltpFR2	8	13	MAMMAL	861	n/a	n/a	0	0	0
2626595	WORD	wordpools/wasnorm_wordpool_576.txt	LTP317	ltpFR2	8	13	FOREHEAD	592	n/a	n/a	0	0	0
2629383	WORD	wordpools/wasnorm_wordpool_576.txt	LTP317	ltpFR2	8	13	POWDER	1117	n/a	n/a	0	0	0
2632101	WORD	wordpools/wasnorm_wordpool_576.txt	LTP317	ltpFR2	8	13	TABLET	1427	n/a	n/a	0	0	0
2634653	WORD	wordpools/wasnorm_wordpool_576.txt	LTP317	ltpFR2	8	13	FLASHLIGHT	575	n/a	n/a	0	0	0
2637171	WORD	wordpools/wasnorm_wordpool_576.txt	LTP317	ltpFR2	8	13	NURSE	963	n/a	n/a	0	0	0
2639744	WORD	wordpools/wasnorm_wordpool_576.txt	LTP317	ltpFR2	8	13	BEAST	108	n/a	n/a	0	0	0
2642448	WORD	wordpools/wasnorm_wordpool_576.txt	LTP317	ltpFR2	8	13	YACHT	1629	n/a	n/a	0	0	0
2645216	WORD	wordpools/wasnorm_wordpool_576.txt	LTP317	ltpFR2	8	13	MARINE	869	n/a	n/a	0	0	0
2647848	WORD	wordpools/wasnorm_wordpool_576.txt	LTP317	ltpFR2	8	13	PIGEON	1065	n/a	n/a	0	0	0
2650299	WORD	wordpools/wasnorm_wordpool_576.txt	LTP317	ltpFR2	8	13	QUAIL	1147	n/a	n/a	0	0	0
2652751	WORD	wordpools/wasnorm_wordpool_576.txt	LTP317	ltpFR2	8	13	LABEL	790	n/a	n/a	0	0	0
2655420	WORD	wordpools/wasnorm_wordpool_576.txt	LTP317	ltpFR2	8	13	WHISKERS	1605	n/a	n/a	0	0	0
2658040	WORD	wordpools/wasnorm_wordpool_576.txt	LTP317	ltpFR2	8	13	BUNNY	198	n/a	n/a	0	0	0
2659657	START	n/a	LTP317	ltpFR2	8	n/a	n/a	n/a	19	n/a	n/a	n/a	n/a
2660768	DISTRACTOR	n/a	LTP317	ltpFR2	8	13	n/a	n/a	n/a	n/a	0	0	0
2660775	PROB	n/a	LTP317	ltpFR2	8	n/a	n/a	n/a	19	14	3	4	7
2662539	PROB	n/a	LTP317	ltpFR2	8	n/a	n/a	n/a	19	16	8	6	2
2664960	PROB	n/a	LTP317	ltpFR2	8	n/a	n/a	n/a	19	18	4	8	6
2666493	PROB	n/a	LTP317	ltpFR2	8	n/a	n/a	n/a	19	13	3	1	9
2668828	PROB	n/a	LTP317	ltpFR2	8	n/a	n/a	n/a	19	19	9	5	5
2670183	PROB	n/a	LTP317	ltpFR2	8	n/a	n/a	n/a	19	9	3	3	3
2671282	PROB	n/a	LTP317	ltpFR2	8	n/a	n/a	n/a	19	20	9	8	3
2672785	PROB	n/a	LTP317	ltpFR2	8	n/a	n/a	n/a	19	8	2	3	3
2674782	PROB	n/a	LTP317	ltpFR2	8	n/a	n/a	n/a	19	21	8	9	4
2676353	PROB	n/a	LTP317	ltpFR2	8	n/a	n/a	n/a	19	13	3	6	4
2678187	PROB	n/a	LTP317	ltpFR2	8	n/a	n/a	n/a	19	20	6	6	8
2680289	PROB	n/a	LTP317	ltpFR2	8	n/a	n/a	n/a	19	14	2	7	5
2681840	PROB	n/a	LTP317	ltpFR2	8	n/a	n/a	n/a	19	16	4	3	9
2683512	STOP	n/a	LTP317	ltpFR2	8	n/a	n/a	n/a	19	n/a	n/a	n/a	n/a
2685476	REC_START	n/a	LTP317	ltpFR2	8	13	n/a	n/a	n/a	n/a	0	0	0
2686496	REC_WORD	wordpools/wasnorm_wordpool_576.txt	LTP317	ltpFR2	8	13	FOREHEAD	592	n/a	n/a	0	0	0
2687248	REC_WORD	wordpools/wasnorm_wordpool_576.txt	LTP317	ltpFR2	8	13	POWDER	1117	n/a	n/a	0	0	0
2687845	REC_WORD	wordpools/wasnorm_wordpool_576.txt	LTP317	ltpFR2	8	13	FLASHLIGHT	575	n/a	n/a	0	0	0
2696895	REC_WORD	wordpools/wasnorm_wordpool_576.txt	LTP317	ltpFR2	8	13	SCALPEL	1243	n/a	n/a	0	0	0
2719255	REC_WORD	wordpools/wasnorm_wordpool_576.txt	LTP317	ltpFR2	8	13	HAND	683	n/a	n/a	0	0	0
2720134	REC_WORD	wordpools/wasnorm_wordpool_576.txt	LTP317	ltpFR2	8	13	HANDBAG	684	n/a	n/a	0	0	0
2775935	WORD	wordpools/wasnorm_wordpool_576.txt	LTP317	ltpFR2	8	14	WRIST	1626	n/a	n/a	0	0	0
2778717	WORD	wordpools/wasnorm_wordpool_576.txt	LTP317	ltpFR2	8	14	PLAYGROUND	1087	n/a	n/a	0	0	0
2781209	WORD	wordpools/wasnorm_wordpool_576.txt	LTP317	ltpFR2	8	14	CRAYON	401	n/a	n/a	0	0	0
2783955	WORD	wordpools/wasnorm_wordpool_576.txt	LTP317	ltpFR2	8	14	CHAUFFEUR	283	n/a	n/a	0	0	0
2786447	WORD	wordpools/wasnorm_wordpool_576.txt	LTP317	ltpFR2	8	14	FOOT	590	n/a	n/a	0	0	0
2789109	WORD	wordpools/wasnorm_wordpool_576.txt	LTP317	ltpFR2	8	14	COOK	372	n/a	n/a	0	0	0
2791884	WORD	wordpools/wasnorm_wordpool_576.txt	LTP317	ltpFR2	8	14	IDOL	733	n/a	n/a	0	0	0
2794497	WORD	wordpools/wasnorm_wordpool_576.txt	LTP317	ltpFR2	8	14	JOURNAL	760	n/a	n/a	0	0	0
2797299	WORD	wordpools/wasnorm_wordpool_576.txt	LTP317	ltpFR2	8	14	SPOON	1357	n/a	n/a	0	0	0
2799767	WORD	wordpools/wasnorm_wordpool_576.txt	LTP317	ltpFR2	8	14	PIMPLE	1071	n/a	n/a	0	0	0
2802259	WORD	wordpools/wasnorm_wordpool_576.txt	LTP317	ltpFR2	8	14	SHOULDER	1294	n/a	n/a	0	0	0
2804978	WORD	wordpools/wasnorm_wordpool_576.txt	LTP317	ltpFR2	8	14	SCISSORS	1250	n/a	n/a	0	0	0
2807507	WORD	wordpools/wasnorm_wordpool_576.txt	LTP317	ltpFR2	8	14	PARSLEY	1016	n/a	n/a	0	0	0
2810032	WORD	wordpools/wasnorm_wordpool_576.txt	LTP317	ltpFR2	8	14	BLENDER	136	n/a	n/a	0	0	0
2812609	WORD	wordpools/wasnorm_wordpool_576.txt	LTP317	ltpFR2	8	14	PASTRY	1022	n/a	n/a	0	0	0
2815286	WORD	wordpools/wasnorm_wordpool_576.txt	LTP317	ltpFR2	8	14	RAFT	1159	n/a	n/a	0	0	0
2817940	WORD	wordpools/wasnorm_wordpool_576.txt	LTP317	ltpFR2	8	14	BUCKET	184	n/a	n/a	0	0	0
2820640	WORD	wordpools/wasnorm_wordpool_576.txt	LTP317	ltpFR2	8	14	HATCHET	691	n/a	n/a	0	0	0
2823219	WORD	wordpools/wasnorm_wordpool_576.txt	LTP317	ltpFR2	8	14	LONDON	843	n/a	n/a	0	0	0
2825669	WORD	wordpools/wasnorm_wordpool_576.txt	LTP317	ltpFR2	8	14	PLASTER	1085	n/a	n/a	0	0	0
2828139	WORD	wordpools/wasnorm_wordpool_576.txt	LTP317	ltpFR2	8	14	ORANGE	980	n/a	n/a	0	0	0
2830941	WORD	wordpools/wasnorm_wordpool_576.txt	LTP317	ltpFR2	8	14	BREAST	171	n/a	n/a	0	0	0
2833584	WORD	wordpools/wasnorm_wordpool_576.txt	LTP317	ltpFR2	8	14	BABY	64	n/a	n/a	0	0	0
2836270	WORD	wordpools/wasnorm_wordpool_576.txt	LTP317	ltpFR2	8	14	PORK	1108	n/a	n/a	0	0	0
2837881	START	n/a	LTP317	ltpFR2	8	n/a	n/a	n/a	20	n/a	n/a	n/a	n/a
2838835	DISTRACTOR	n/a	LTP317	ltpFR2	8	14	n/a	n/a	n/a	n/a	0	0	0
2838847	PROB	n/a	LTP317	ltpFR2	8	n/a	n/a	n/a	20	14	3	4	7
2841006	PROB	n/a	LTP317	ltpFR2	8	n/a	n/a	n/a	20	18	8	7	3
2842639	PROB	n/a	LTP317	ltpFR2	8	n/a	n/a	n/a	20	10	1	6	3
2844207	PROB	n/a	LTP317	ltpFR2	8	n/a	n/a	n/a	20	10	2	7	1
2845942	PROB	n/a	LTP317	ltpFR2	8	n/a	n/a	n/a	20	15	4	2	9
2847593	PROB	n/a	LTP317	ltpFR2	8	n/a	n/a	n/a	20	17	5	8	4
2849979	PROB	n/a	LTP317	ltpFR2	8	n/a	n/a	n/a	20	15	3	5	7
2851214	PROB	n/a	LTP317	ltpFR2	8	n/a	n/a	n/a	20	8	2	4	2
2852597	PROB	n/a	LTP317	ltpFR2	8	n/a	n/a	n/a	20	17	6	9	2
2854200	PROB	n/a	LTP317	ltpFR2	8	n/a	n/a	n/a	20	18	6	3	9
2855636	PROB	n/a	LTP317	ltpFR2	8	n/a	n/a	n/a	20	12	2	4	6
2857020	PROB	n/a	LTP317	ltpFR2	8	n/a	n/a	n/a	20	25	9	9	7
2860071	PROB	n/a	LTP317	ltpFR2	8	n/a	n/a	n/a	20	11	7	3	1
2861784	STOP	n/a	LTP317	ltpFR2	8	n/a	n/a	n/a	20	n/a	n/a	n/a	n/a
2863707	REC_START	n/a	LTP317	ltpFR2	8	14	n/a	n/a	n/a	n/a	0	0	0
2866775	REC_WORD	wordpools/wasnorm_wordpool_576.txt	LTP317	ltpFR2	8	14	FOOT	590	n/a	n/a	0	0	0
2867550	REC_WORD	wordpools/wasnorm_wordpool_576.txt	LTP317	ltpFR2	8	14	COOK	372	n/a	n/a	0	0	0
2868892	REC_WORD	wordpools/wasnorm_wordpool_576.txt	LTP317	ltpFR2	8	14	IDOL	733	n/a	n/a	0	0	0
2869688	REC_WORD	wordpools/wasnorm_wordpool_576.txt	LTP317	ltpFR2	8	14	JOURNAL	760	n/a	n/a	0	0	0
2870556	REC_WORD	wordpools/wasnorm_wordpool_576.txt	LTP317	ltpFR2	8	14	SPOON	1357	n/a	n/a	0	0	0
2875629	REC_WORD	wordpools/wasnorm_wordpool_576.txt	LTP317	ltpFR2	8	14	CHAUFFEUR	283	n/a	n/a	0	0	0
2886388	REC_WORD	wordpools/wasnorm_wordpool_576.txt	LTP317	ltpFR2	8	14	PLAYGROUND	1087	n/a	n/a	0	0	0
2887394	REC_WORD	wordpools/wasnorm_wordpool_576.txt	LTP317	ltpFR2	8	14	WRIST	1626	n/a	n/a	0	0	0
2954199	WORD	wordpools/wasnorm_wordpool_576.txt	LTP317	ltpFR2	8	15	PARENT	1013	n/a	n/a	0	0	0
2956971	WORD	wordpools/wasnorm_wordpool_576.txt	LTP317	ltpFR2	8	15	CONVICT	371	n/a	n/a	0	0	0
2959506	WORD	wordpools/wasnorm_wordpool_576.txt	LTP317	ltpFR2	8	15	BUREAU	199	n/a	n/a	0	0	0
2962108	WORD	wordpools/wasnorm_wordpool_576.txt	LTP317	ltpFR2	8	15	EGYPT	519	n/a	n/a	0	0	0
2964809	WORD	wordpools/wasnorm_wordpool_576.txt	LTP317	ltpFR2	8	15	FRANCE	601	n/a	n/a	0	0	0
2967627	WORD	wordpools/wasnorm_wordpool_576.txt	LTP317	ltpFR2	8	15	MUSTARD	935	n/a	n/a	0	0	0
2970313	WORD	wordpools/wasnorm_wordpool_576.txt	LTP317	ltpFR2	8	15	GRILL	661	n/a	n/a	0	0	0
2973016	WORD	wordpools/wasnorm_wordpool_576.txt	LTP317	ltpFR2	8	15	LADY	794	n/a	n/a	0	0	0
2975584	WORD	wordpools/wasnorm_wordpool_576.txt	LTP317	ltpFR2	8	15	QUEEN	1149	n/a	n/a	0	0	0
2978022	WORD	wordpools/wasnorm_wordpool_576.txt	LTP317	ltpFR2	8	15	STAR	1373	n/a	n/a	0	0	0
2980841	WORD	wordpools/wasnorm_wordpool_576.txt	LTP317	ltpFR2	8	15	CLOTHES	327	n/a	n/a	0	0	0
2983474	WORD	wordpools/wasnorm_wordpool_576.txt	LTP317	ltpFR2	8	15	OX	994	n/a	n/a	0	0	0
2986076	WORD	wordpools/wasnorm_wordpool_576.txt	LTP317	ltpFR2	8	15	MISSILE	900	n/a	n/a	0	0	0
2988879	WORD	wordpools/wasnorm_wordpool_576.txt	LTP317	ltpFR2	8	15	FLUTE	585	n/a	n/a	0	0	0
2991480	WORD	wordpools/wasnorm_wordpool_576.txt	LTP317	ltpFR2	8	15	LAKE	796	n/a	n/a	0	0	0
2994316	WORD	wordpools/wasnorm_wordpool_576.txt	LTP317	ltpFR2	8	15	DIVER	476	n/a	n/a	0	0	0
2997051	WORD	wordpools/wasnorm_wordpool_576.txt	LTP317	ltpFR2	8	15	SPOOL	1356	n/a	n/a	0	0	0
2999869	WORD	wordpools/wasnorm_wordpool_576.txt	LTP317	ltpFR2	8	15	COFFEE	341	n/a	n/a	0	0	0
3002492	WORD	wordpools/wasnorm_wordpool_576.txt	LTP317	ltpFR2	8	15	TART	1436	n/a	n/a	0	0	0
3005174	WORD	wordpools/wasnorm_wordpool_576.txt	LTP317	ltpFR2	8	15	TREAT	1501	n/a	n/a	0	0	0
3007608	WORD	wordpools/wasnorm_wordpool_576.txt	LTP317	ltpFR2	8	15	WOMAN	1620	n/a	n/a	0	0	0
3010127	WORD	wordpools/wasnorm_wordpool_576.txt	LTP317	ltpFR2	8	15	OZONE	996	n/a	n/a	0	0	0
3012596	WORD	wordpools/wasnorm_wordpool_576.txt	LTP317	ltpFR2	8	15	BUBBLE	183	n/a	n/a	0	0	0
3015199	WORD	wordpools/wasnorm_wordpool_576.txt	LTP317	ltpFR2	8	15	TRACTOR	1493	n/a	n/a	0	0	0
3016816	START	n/a	LTP317	ltpFR2	8	n/a	n/a	n/a	21	n/a	n/a	n/a	n/a
3017870	DISTRACTOR	n/a	LTP317	ltpFR2	8	15	n/a	n/a	n/a	n/a	0	0	0
3017884	PROB	n/a	LTP317	ltpFR2	8	n/a	n/a	n/a	21	17	4	6	7
3019899	PROB	n/a	LTP317	ltpFR2	8	n/a	n/a	n/a	21	21	9	6	6
3022307	PROB	n/a	LTP317	ltpFR2	8	n/a	n/a	n/a	21	12	6	4	2
3023640	PROB	n/a	LTP317	ltpFR2	8	n/a	n/a	n/a	21	17	9	7	1
3026344	PROB	n/a	LTP317	ltpFR2	8	n/a	n/a	n/a	21	10	2	1	7
3027760	PROB	n/a	LTP317	ltpFR2	8	n/a	n/a	n/a	21	14	5	2	7
3029248	PROB	n/a	LTP317	ltpFR2	8	n/a	n/a	n/a	21	11	4	6	1
3030449	PROB	n/a	LTP317	ltpFR2	8	n/a	n/a	n/a	21	8	1	1	6
3031764	PROB	n/a	LTP317	ltpFR2	8	n/a	n/a	n/a	21	21	8	9	4
3033265	PROB	n/a	LTP317	ltpFR2	8	n/a	n/a	n/a	21	10	1	2	7
3034582	PROB	n/a	LTP317	ltpFR2	8	n/a	n/a	n/a	21	7	1	3	3
3035903	PROB	n/a	LTP317	ltpFR2	8	n/a	n/a	n/a	21	13	8	3	2
3038920	PROB	n/a	LTP317	ltpFR2	8	n/a	n/a	n/a	21	14	1	6	7
3040385	STOP	n/a	LTP317	ltpFR2	8	n/a	n/a	n/a	21	n/a	n/a	n/a	n/a
3042706	REC_START	n/a	LTP317	ltpFR2	8	15	n/a	n/a	n/a	n/a	0	0	0
3055159	REC_WORD	wordpools/wasnorm_wordpool_576.txt	LTP317	ltpFR2	8	15	PARENT	1013	n/a	n/a	0	0	0
3056093	REC_WORD	wordpools/wasnorm_wordpool_576.txt	LTP317	ltpFR2	8	15	CONVICT	371	n/a	n/a	0	0	0
3057832	REC_WORD	wordpools/wasnorm_wordpool_576.txt	LTP317	ltpFR2	8	15	EGYPT	519	n/a	n/a	0	0	0
3058881	REC_WORD	wordpools/wasnorm_wordpool_576.txt	LTP317	ltpFR2	8	15	FRANCE	601	n/a	n/a	0	0	0
3062390	REC_WORD	wordpools/wasnorm_wordpool_576.txt	LTP317	ltpFR2	8	15	CLOTHES	327	n/a	n/a	0	0	0
3071131	REC_WORD	wordpools/wasnorm_wordpool_576.txt	LTP317	ltpFR2	8	15	SPOOL	1356	n/a	n/a	0	0	0
3072131	REC_WORD_VV	wordpools/wasnorm_wordpool_576.txt	LTP317	ltpFR2	8	15	<>	-1	n/a	n/a	0	0	0
3072727	REC_WORD	wordpools/wasnorm_wordpool_576.txt	LTP317	ltpFR2	8	15	COFFEE	341	n/a	n/a	0	0	0
3073949	REC_WORD	wordpools/wasnorm_wordpool_576.txt	LTP317	ltpFR2	8	15	TART	1436	n/a	n/a	0	0	0
3074924	REC_WORD	wordpools/wasnorm_wordpool_576.txt	LTP317	ltpFR2	8	15	TREAT	1501	n/a	n/a	0	0	0
3133155	DISTRACTOR	n/a	LTP317	ltpFR2	8	16	n/a	n/a	n/a	n/a	0	0	0
3133155	START	n/a	LTP317	ltpFR2	8	n/a	n/a	n/a	22	n/a	n/a	n/a	n/a
3133168	PROB	n/a	LTP317	ltpFR2	8	n/a	n/a	n/a	22	15	6	1	9
3135266	PROB	n/a	LTP317	ltpFR2	8	n/a	n/a	n/a	22	9	6	2	1
3137120	PROB	n/a	LTP317	ltpFR2	8	n/a	n/a	n/a	22	21	4	8	9
3138956	PROB	n/a	LTP317	ltpFR2	8	n/a	n/a	n/a	22	12	6	2	4
3140488	PROB	n/a	LTP317	ltpFR2	8	n/a	n/a	n/a	22	14	5	5	4
3141822	PROB	n/a	LTP317	ltpFR2	8	n/a	n/a	n/a	22	17	9	1	7
3143189	PROB	n/a	LTP317	ltpFR2	8	n/a	n/a	n/a	22	14	8	2	4
3144992	PROB	n/a	LTP317	ltpFR2	8	n/a	n/a	n/a	22	17	9	1	7
3146377	PROB	n/a	LTP317	ltpFR2	8	n/a	n/a	n/a	22	12	4	1	7
3147943	PROB	n/a	LTP317	ltpFR2	8	n/a	n/a	n/a	22	10	6	5	9
3149962	PROB	n/a	LTP317	ltpFR2	8	n/a	n/a	n/a	22	15	8	1	6
3152533	PROB	n/a	LTP317	ltpFR2	8	n/a	n/a	n/a	22	7	4	1	2
3154167	PROB	n/a	LTP317	ltpFR2	8	n/a	n/a	n/a	22	14	6	7	1
3155532	PROB	n/a	LTP317	ltpFR2	8	n/a	n/a	n/a	22	11	5	1	5
3156792	STOP	n/a	LTP317	ltpFR2	8	n/a	n/a	n/a	22	n/a	n/a	n/a	n/a
3158172	WORD	wordpools/wasnorm_wordpool_576.txt	LTP317	ltpFR2	8	16	JELLO	754	n/a	n/a	0	0	0
3160823	WORD	wordpools/wasnorm_wordpool_576.txt	LTP317	ltpFR2	8	16	TURNIP	1521	n/a	n/a	0	0	0
3163526	WORD	wordpools/wasnorm_wordpool_576.txt	LTP317	ltpFR2	8	16	LILY	821	n/a	n/a	0	0	0
3166196	WORD	wordpools/wasnorm_wordpool_576.txt	LTP317	ltpFR2	8	16	PEBBLE	1035	n/a	n/a	0	0	0
3168847	WORD	wordpools/wasnorm_wordpool_576.txt	LTP317	ltpFR2	8	16	STREAM	1392	n/a	n/a	0	0	0
3171615	WORD	wordpools/wasnorm_wordpool_576.txt	LTP317	ltpFR2	8	16	TWEEZERS	1526	n/a	n/a	0	0	0
3174168	WORD	wordpools/wasnorm_wordpool_576.txt	LTP317	ltpFR2	8	16	POISON	1096	n/a	n/a	0	0	0
3176971	WORD	wordpools/wasnorm_wordpool_576.txt	LTP317	ltpFR2	8	16	DAUGHTER	442	n/a	n/a	0	0	0
3179573	WORD	wordpools/wasnorm_wordpool_576.txt	LTP317	ltpFR2	8	16	CLAM	315	n/a	n/a	0	0	0
3182026	WORD	wordpools/wasnorm_wordpool_576.txt	LTP317	ltpFR2	8	16	FIREPLACE	570	n/a	n/a	0	0	0
3184827	WORD	wordpools/wasnorm_wordpool_576.txt	LTP317	ltpFR2	8	16	PADDING	999	n/a	n/a	0	0	0
3187346	WORD	wordpools/wasnorm_wordpool_576.txt	LTP317	ltpFR2	8	16	SCARECROW	1245	n/a	n/a	0	0	0
3190114	WORD	wordpools/wasnorm_wordpool_576.txt	LTP317	ltpFR2	8	16	COTTAGE	384	n/a	n/a	0	0	0
3192867	WORD	wordpools/wasnorm_wordpool_576.txt	LTP317	ltpFR2	8	16	DORM	488	n/a	n/a	0	0	0
3195652	WORD	wordpools/wasnorm_wordpool_576.txt	LTP317	ltpFR2	8	16	WHISTLE	1606	n/a	n/a	0	0	0
3198155	WORD	wordpools/wasnorm_wordpool_576.txt	LTP317	ltpFR2	8	16	DRAGON	492	n/a	n/a	0	0	0
3200605	WORD	wordpools/wasnorm_wordpool_576.txt	LTP317	ltpFR2	8	16	XEROX	1628	n/a	n/a	0	0	0
3203309	WORD	wordpools/wasnorm_wordpool_576.txt	LTP317	ltpFR2	8	16	BLUEPRINT	142	n/a	n/a	0	0	0
3205994	WORD	wordpools/wasnorm_wordpool_576.txt	LTP317	ltpFR2	8	16	FARMER	553	n/a	n/a	0	0	0
3208644	WORD	wordpools/wasnorm_wordpool_576.txt	LTP317	ltpFR2	8	16	CLIMBER	323	n/a	n/a	0	0	0
3211183	WORD	wordpools/wasnorm_wordpool_576.txt	LTP317	ltpFR2	8	16	TROMBONE	1508	n/a	n/a	0	0	0
3213732	WORD	wordpools/wasnorm_wordpool_576.txt	LTP317	ltpFR2	8	16	HONEY	713	n/a	n/a	0	0	0
3216434	WORD	wordpools/wasnorm_wordpool_576.txt	LTP317	ltpFR2	8	16	CHILD	299	n/a	n/a	0	0	0
3219103	WORD	wordpools/wasnorm_wordpool_576.txt	LTP317	ltpFR2	8	16	STUDENT	1395	n/a	n/a	0	0	0
3220721	START	n/a	LTP317	ltpFR2	8	n/a	n/a	n/a	23	n/a	n/a	n/a	n/a
3221688	DISTRACTOR	n/a	LTP317	ltpFR2	8	16	n/a	n/a	n/a	n/a	0	0	0
3221704	PROB	n/a	LTP317	ltpFR2	8	n/a	n/a	n/a	23	3	1	1	1
3222886	PROB	n/a	LTP317	ltpFR2	8	n/a	n/a	n/a	23	9	1	4	4
3225105	PROB	n/a	LTP317	ltpFR2	8	n/a	n/a	n/a	23	15	8	6	1
3226443	PROB	n/a	LTP317	ltpFR2	8	n/a	n/a	n/a	23	14	1	9	4
3227841	PROB	n/a	LTP317	ltpFR2	8	n/a	n/a	n/a	23	17	2	8	7
3229180	PROB	n/a	LTP317	ltpFR2	8	n/a	n/a	n/a	23	19	4	6	9
3230443	PROB	n/a	LTP317	ltpFR2	8	n/a	n/a	n/a	23	13	4	8	1
3232244	PROB	n/a	LTP317	ltpFR2	8	n/a	n/a	n/a	23	15	6	4	5
3233544	PROB	n/a	LTP317	ltpFR2	8	n/a	n/a	n/a	23	11	5	2	4
3235247	PROB	n/a	LTP317	ltpFR2	8	n/a	n/a	n/a	23	17	4	5	8
3236801	PROB	n/a	LTP317	ltpFR2	8	n/a	n/a	n/a	23	17	1	8	8
3239020	PROB	n/a	LTP317	ltpFR2	8	n/a	n/a	n/a	23	7	3	1	3
3240649	PROB	n/a	LTP317	ltpFR2	8	n/a	n/a	n/a	23	20	5	8	7
3242288	PROB	n/a	LTP317	ltpFR2	8	n/a	n/a	n/a	23	10	2	3	5
3243672	STOP	n/a	LTP317	ltpFR2	8	n/a	n/a	n/a	23	n/a	n/a	n/a	n/a
3246588	REC_START	n/a	LTP317	ltpFR2	8	16	n/a	n/a	n/a	n/a	0	0	0
3248359	REC_WORD	wordpools/wasnorm_wordpool_576.txt	LTP317	ltpFR2	8	16	FARMER	553	n/a	n/a	0	0	0
3249032	REC_WORD	wordpools/wasnorm_wordpool_576.txt	LTP317	ltpFR2	8	16	CLIMBER	323	n/a	n/a	0	0	0
3249767	REC_WORD	wordpools/wasnorm_wordpool_576.txt	LTP317	ltpFR2	8	16	TROMBONE	1508	n/a	n/a	0	0	0
3250601	REC_WORD	wordpools/wasnorm_wordpool_576.txt	LTP317	ltpFR2	8	16	STUDENT	1395	n/a	n/a	0	0	0
3251601	REC_WORD_VV	wordpools/wasnorm_wordpool_576.txt	LTP317	ltpFR2	8	16	<>	-1	n/a	n/a	0	0	0
3281985	REC_WORD	wordpools/wasnorm_wordpool_576.txt	LTP317	ltpFR2	8	16	JELLO	754	n/a	n/a	0	0	0
3286643	REC_WORD	wordpools/wasnorm_wordpool_576.txt	LTP317	ltpFR2	8	16	XEROX	1628	n/a	n/a	0	0	0
3323116	REST_REWET	n/a	LTP317	ltpFR2	8	16	n/a	n/a	n/a	n/a	0	0	0
3474329	WORD	wordpools/wasnorm_wordpool_576.txt	LTP317	ltpFR2	8	17	SLOPE	1328	n/a	n/a	0	0	0
3476934	WORD	wordpools/wasnorm_wordpool_576.txt	LTP317	ltpFR2	8	17	TRENCH	1503	n/a	n/a	0	0	0
3479538	WORD	wordpools/wasnorm_wordpool_576.txt	LTP317	ltpFR2	8	17	DANDRUFF	439	n/a	n/a	0	0	0
3482088	WORD	wordpools/wasnorm_wordpool_576.txt	LTP317	ltpFR2	8	17	SNAKE	1333	n/a	n/a	0	0	0
3484588	WORD	wordpools/wasnorm_wordpool_576.txt	LTP317	ltpFR2	8	17	BLACKBOARD	133	n/a	n/a	0	0	0
3487292	WORD	wordpools/wasnorm_wordpool_576.txt	LTP317	ltpFR2	8	17	CARRIAGE	248	n/a	n/a	0	0	0
3490061	WORD	wordpools/wasnorm_wordpool_576.txt	LTP317	ltpFR2	8	17	ICEBERG	731	n/a	n/a	0	0	0
3492527	WORD	wordpools/wasnorm_wordpool_576.txt	LTP317	ltpFR2	8	17	CELLAR	267	n/a	n/a	0	0	0
3495131	WORD	wordpools/wasnorm_wordpool_576.txt	LTP317	ltpFR2	8	17	ZEBRA	1635	n/a	n/a	0	0	0
3497765	WORD	wordpools/wasnorm_wordpool_576.txt	LTP317	ltpFR2	8	17	SALAD	1224	n/a	n/a	0	0	0
3500451	WORD	wordpools/wasnorm_wordpool_576.txt	LTP317	ltpFR2	8	17	KNIFE	785	n/a	n/a	0	0	0
3503186	WORD	wordpools/wasnorm_wordpool_576.txt	LTP317	ltpFR2	8	17	GLASS	639	n/a	n/a	0	0	0
3505738	WORD	wordpools/wasnorm_wordpool_576.txt	LTP317	ltpFR2	8	17	CRIB	407	n/a	n/a	0	0	0
3508275	WORD	wordpools/wasnorm_wordpool_576.txt	LTP317	ltpFR2	8	17	EXPERT	543	n/a	n/a	0	0	0
3510798	WORD	wordpools/wasnorm_wordpool_576.txt	LTP317	ltpFR2	8	17	GRAVE	658	n/a	n/a	0	0	0
3513527	WORD	wordpools/wasnorm_wordpool_576.txt	LTP317	ltpFR2	8	17	RAZOR	1171	n/a	n/a	0	0	0
3516219	WORD	wordpools/wasnorm_wordpool_576.txt	LTP317	ltpFR2	8	17	BLADE	134	n/a	n/a	0	0	0
3518670	WORD	wordpools/wasnorm_wordpool_576.txt	LTP317	ltpFR2	8	17	BANQUET	86	n/a	n/a	0	0	0
3521191	WORD	wordpools/wasnorm_wordpool_576.txt	LTP317	ltpFR2	8	17	LEADER	807	n/a	n/a	0	0	0
3523791	WORD	wordpools/wasnorm_wordpool_576.txt	LTP317	ltpFR2	8	17	SADDLE	1221	n/a	n/a	0	0	0
3526395	WORD	wordpools/wasnorm_wordpool_576.txt	LTP317	ltpFR2	8	17	JURY	766	n/a	n/a	0	0	0
3529213	WORD	wordpools/wasnorm_wordpool_576.txt	LTP317	ltpFR2	8	17	DINER	467	n/a	n/a	0	0	0
3531892	WORD	wordpools/wasnorm_wordpool_576.txt	LTP317	ltpFR2	8	17	MARKET	871	n/a	n/a	0	0	0
3534428	WORD	wordpools/wasnorm_wordpool_576.txt	LTP317	ltpFR2	8	17	LOVER	846	n/a	n/a	0	0	0
3536037	START	n/a	LTP317	ltpFR2	8	n/a	n/a	n/a	24	n/a	n/a	n/a	n/a
3537110	DISTRACTOR	n/a	LTP317	ltpFR2	8	17	n/a	n/a	n/a	n/a	0	0	0
3537120	PROB	n/a	LTP317	ltpFR2	8	n/a	n/a	n/a	24	16	9	1	6
3538852	PROB	n/a	LTP317	ltpFR2	8	n/a	n/a	n/a	24	14	7	6	1
3540288	PROB	n/a	LTP317	ltpFR2	8	n/a	n/a	n/a	24	19	8	7	4
3541791	PROB	n/a	LTP317	ltpFR2	8	n/a	n/a	n/a	24	21	5	8	8
3544676	PROB	n/a	LTP317	ltpFR2	8	n/a	n/a	n/a	24	19	9	4	6
3546774	PROB	n/a	LTP317	ltpFR2	8	n/a	n/a	n/a	24	9	6	1	2
3548609	PROB	n/a	LTP317	ltpFR2	8	n/a	n/a	n/a	24	19	9	7	3
3552147	PROB	n/a	LTP317	ltpFR2	8	n/a	n/a	n/a	24	21	5	9	7
3554418	PROB	n/a	LTP317	ltpFR2	8	n/a	n/a	n/a	24	16	4	8	8
3556002	PROB	n/a	LTP317	ltpFR2	8	n/a	n/a	n/a	24	18	6	9	3
3557734	PROB	n/a	LTP317	ltpFR2	8	n/a	n/a	n/a	24	5	2	1	2
3558865	STOP	n/a	LTP317	ltpFR2	8	n/a	n/a	n/a	24	n/a	n/a	n/a	n/a
3561875	REC_START	n/a	LTP317	ltpFR2	8	17	n/a	n/a	n/a	n/a	0	0	0
3565903	REC_WORD	wordpools/wasnorm_wordpool_576.txt	LTP317	ltpFR2	8	17	DANDRUFF	439	n/a	n/a	0	0	0
3566888	REC_WORD	wordpools/wasnorm_wordpool_576.txt	LTP317	ltpFR2	8	17	CARRIAGE	248	n/a	n/a	0	0	0
3571448	REC_WORD	wordpools/wasnorm_wordpool_576.txt	LTP317	ltpFR2	8	17	RAZOR	1171	n/a	n/a	0	0	0
3571998	REC_WORD	wordpools/wasnorm_wordpool_576.txt	LTP317	ltpFR2	8	17	BLADE	134	n/a	n/a	0	0	0
3575207	REC_WORD	wordpools/wasnorm_wordpool_576.txt	LTP317	ltpFR2	8	17	BANQUET	86	n/a	n/a	0	0	0
3576046	REC_WORD	wordpools/wasnorm_wordpool_576.txt	LTP317	ltpFR2	8	17	LEADER	807	n/a	n/a	0	0	0
3595643	REC_WORD	wordpools/wasnorm_wordpool_576.txt	LTP317	ltpFR2	8	17	GRAVE	658	n/a	n/a	0	0	0
3652333	DISTRACTOR	n/a	LTP317	ltpFR2	8	18	n/a	n/a	n/a	n/a	0	0	0
3652333	START	n/a	LTP317	ltpFR2	8	n/a	n/a	n/a	25	n/a	n/a	n/a	n/a
3652347	PROB	n/a	LTP317	ltpFR2	8	n/a	n/a	n/a	25	15	5	6	4
3654214	PROB	n/a	LTP317	ltpFR2	8	n/a	n/a	n/a	25	13	7	5	1
3655719	PROB	n/a	LTP317	ltpFR2	8	n/a	n/a	n/a	25	17	8	8	1
3657234	PROB	n/a	LTP317	ltpFR2	8	n/a	n/a	n/a	25	11	1	8	2
3658905	PROB	n/a	LTP317	ltpFR2	8	n/a	n/a	n/a	25	12	8	2	2
3660286	PROB	n/a	LTP317	ltpFR2	8	n/a	n/a	n/a	25	17	7	4	6
3661854	PROB	n/a	LTP317	ltpFR2	8	n/a	n/a	n/a	25	16	3	1	9
3663240	PROB	n/a	LTP317	ltpFR2	8	n/a	n/a	n/a	25	18	9	1	8
3664706	PROB	n/a	LTP317	ltpFR2	8	n/a	n/a	n/a	25	10	3	2	5
3666075	PROB	n/a	LTP317	ltpFR2	8	n/a	n/a	n/a	25	18	2	8	8
3667545	PROB	n/a	LTP317	ltpFR2	8	n/a	n/a	n/a	25	13	5	3	5
3669144	PROB	n/a	LTP317	ltpFR2	8	n/a	n/a	n/a	25	27	9	9	9
3670946	PROB	n/a	LTP317	ltpFR2	8	n/a	n/a	n/a	25	13	3	2	8
3672663	PROB	n/a	LTP317	ltpFR2	8	n/a	n/a	n/a	25	16	4	4	8
3675153	STOP	n/a	LTP317	ltpFR2	8	n/a	n/a	n/a	25	n/a	n/a	n/a	n/a
3677403	WORD	wordpools/wasnorm_wordpool_576.txt	LTP317	ltpFR2	8	18	SMOG	1330	n/a	n/a	0	0	0
3680105	WORD	wordpools/wasnorm_wordpool_576.txt	LTP317	ltpFR2	8	18	COMPASS	358	n/a	n/a	0	0	0
3682572	WORD	wordpools/wasnorm_wordpool_576.txt	LTP317	ltpFR2	8	18	REBEL	1172	n/a	n/a	0	0	0
3685192	WORD	wordpools/wasnorm_wordpool_576.txt	LTP317	ltpFR2	8	18	BRICK	172	n/a	n/a	0	0	0
3687945	WORD	wordpools/wasnorm_wordpool_576.txt	LTP317	ltpFR2	8	18	MATTRESS	879	n/a	n/a	0	0	0
3690596	WORD	wordpools/wasnorm_wordpool_576.txt	LTP317	ltpFR2	8	18	CORAL	378	n/a	n/a	0	0	0
3693048	WORD	wordpools/wasnorm_wordpool_576.txt	LTP317	ltpFR2	8	18	PISTOL	1075	n/a	n/a	0	0	0
3695550	WORD	wordpools/wasnorm_wordpool_576.txt	LTP317	ltpFR2	8	18	LADDER	793	n/a	n/a	0	0	0
3698136	WORD	wordpools/wasnorm_wordpool_576.txt	LTP317	ltpFR2	8	18	COD	340	n/a	n/a	0	0	0
3700669	WORD	wordpools/wasnorm_wordpool_576.txt	LTP317	ltpFR2	8	18	OFFICE	972	n/a	n/a	0	0	0
3703156	WORD	wordpools/wasnorm_wordpool_576.txt	LTP317	ltpFR2	8	18	THREAD	1460	n/a	n/a	0	0	0
3705641	WORD	wordpools/wasnorm_wordpool_576.txt	LTP317	ltpFR2	8	18	LASER	801	n/a	n/a	0	0	0
3708377	WORD	wordpools/wasnorm_wordpool_576.txt	LTP317	ltpFR2	8	18	FOREST	593	n/a	n/a	0	0	0
3711116	WORD	wordpools/wasnorm_wordpool_576.txt	LTP317	ltpFR2	8	18	STAPLE	1371	n/a	n/a	0	0	0
3713931	WORD	wordpools/wasnorm_wordpool_576.txt	LTP317	ltpFR2	8	18	PAPER	1011	n/a	n/a	0	0	0
3716648	WORD	wordpools/wasnorm_wordpool_576.txt	LTP317	ltpFR2	8	18	SCALLOP	1242	n/a	n/a	0	0	0
3719218	WORD	wordpools/wasnorm_wordpool_576.txt	LTP317	ltpFR2	8	18	SHELTER	1282	n/a	n/a	0	0	0
3721723	WORD	wordpools/wasnorm_wordpool_576.txt	LTP317	ltpFR2	8	18	TUBA	1515	n/a	n/a	0	0	0
3724509	WORD	wordpools/wasnorm_wordpool_576.txt	LTP317	ltpFR2	8	18	SHERIFF	1284	n/a	n/a	0	0	0
3727129	WORD	wordpools/wasnorm_wordpool_576.txt	LTP317	ltpFR2	8	18	PATROL	1027	n/a	n/a	0	0	0
3729847	WORD	wordpools/wasnorm_wordpool_576.txt	LTP317	ltpFR2	8	18	GUARD	667	n/a	n/a	0	0	0
3732577	WORD	wordpools/wasnorm_wordpool_576.txt	LTP317	ltpFR2	8	18	DRAWING	494	n/a	n/a	0	0	0
3735163	WORD	wordpools/wasnorm_wordpool_576.txt	LTP317	ltpFR2	8	18	BUGGY	188	n/a	n/a	0	0	0
3737836	WORD	wordpools/wasnorm_wordpool_576.txt	LTP317	ltpFR2	8	18	LAVA	804	n/a	n/a	0	0	0
3739451	START	n/a	LTP317	ltpFR2	8	n/a	n/a	n/a	26	n/a	n/a	n/a	n/a
3740496	DISTRACTOR	n/a	LTP317	ltpFR2	8	18	n/a	n/a	n/a	n/a	0	0	0
3740506	PROB	n/a	LTP317	ltpFR2	8	n/a	n/a	n/a	26	13	6	3	4
3742457	PROB	n/a	LTP317	ltpFR2	8	n/a	n/a	n/a	26	12	5	5	2
3743591	PROB	n/a	LTP317	ltpFR2	8	n/a	n/a	n/a	26	19	9	2	8
3745208	PROB	n/a	LTP317	ltpFR2	8	n/a	n/a	n/a	26	22	9	9	4
3746959	PROB	n/a	LTP317	ltpFR2	8	n/a	n/a	n/a	26	10	6	2	2
3749097	PROB	n/a	LTP317	ltpFR2	8	n/a	n/a	n/a	26	12	3	7	2
3750431	PROB	n/a	LTP317	ltpFR2	8	n/a	n/a	n/a	26	7	1	3	3
3751728	PROB	n/a	LTP317	ltpFR2	8	n/a	n/a	n/a	26	15	3	8	4
3753066	PROB	n/a	LTP317	ltpFR2	8	n/a	n/a	n/a	26	9	3	3	3
3754167	PROB	n/a	LTP317	ltpFR2	8	n/a	n/a	n/a	26	12	3	1	8
3755514	PROB	n/a	LTP317	ltpFR2	8	n/a	n/a	n/a	26	17	8	8	1
3757700	PROB	n/a	LTP317	ltpFR2	8	n/a	n/a	n/a	26	7	5	1	1
3759053	PROB	n/a	LTP317	ltpFR2	8	n/a	n/a	n/a	26	18	8	8	2
3760354	PROB	n/a	LTP317	ltpFR2	8	n/a	n/a	n/a	26	15	5	4	6
3763451	STOP	n/a	LTP317	ltpFR2	8	n/a	n/a	n/a	26	n/a	n/a	n/a	n/a
3765259	REC_START	n/a	LTP317	ltpFR2	8	18	n/a	n/a	n/a	n/a	0	0	0
3769550	REC_WORD	wordpools/wasnorm_wordpool_576.txt	LTP317	ltpFR2	8	18	TUBA	1515	n/a	n/a	0	0	0
3770672	REC_WORD	wordpools/wasnorm_wordpool_576.txt	LTP317	ltpFR2	8	18	SHERIFF	1284	n/a	n/a	0	0	0
3777843	REC_WORD	wordpools/wasnorm_wordpool_576.txt	LTP317	ltpFR2	8	18	COD	340	n/a	n/a	0	0	0
3781513	REC_WORD	wordpools/wasnorm_wordpool_576.txt	LTP317	ltpFR2	8	18	CORAL	378	n/a	n/a	0	0	0
3782384	REC_WORD	wordpools/wasnorm_wordpool_576.txt	LTP317	ltpFR2	8	18	PISTOL	1075	n/a	n/a	0	0	0
3831094	REC_WORD	wordpools/wasnorm_wordpool_576.txt	LTP317	ltpFR2	8	18	PATROL	1027	n/a	n/a	0	0	0
3836768	REC_WORD	wordpools/wasnorm_wordpool_576.txt	LTP317	ltpFR2	8	18	POLICE	1098	n/a	n/a	0	0	0
3839013	REC_WORD	wordpools/wasnorm_wordpool_576.txt	LTP317	ltpFR2	8	18	GUARD	667	n/a	n/a	0	0	0
3855703	DISTRACTOR	n/a	LTP317	ltpFR2	8	19	n/a	n/a	n/a	n/a	0	0	0
3855703	START	n/a	LTP317	ltpFR2	8	n/a	n/a	n/a	27	n/a	n/a	n/a	n/a
3855715	PROB	n/a	LTP317	ltpFR2	8	n/a	n/a	n/a	27	20	8	4	8
3857386	PROB	n/a	LTP317	ltpFR2	8	n/a	n/a	n/a	27	14	7	6	1
3859585	PROB	n/a	LTP317	ltpFR2	8	n/a	n/a	n/a	27	22	5	9	8
3862521	PROB	n/a	LTP317	ltpFR2	8	n/a	n/a	n/a	27	20	5	9	6
3864642	PROB	n/a	LTP317	ltpFR2	8	n/a	n/a	n/a	27	9	5	1	3
3866292	PROB	n/a	LTP317	ltpFR2	8	n/a	n/a	n/a	27	16	4	5	7
3867724	PROB	n/a	LTP317	ltpFR2	8	n/a	n/a	n/a	27	17	7	7	3
3869328	PROB	n/a	LTP317	ltpFR2	8	n/a	n/a	n/a	27	12	2	7	3
3870965	PROB	n/a	LTP317	ltpFR2	8	n/a	n/a	n/a	27	13	1	5	7
3872680	PROB	n/a	LTP317	ltpFR2	8	n/a	n/a	n/a	27	17	8	2	7
3874097	PROB	n/a	LTP317	ltpFR2	8	n/a	n/a	n/a	27	1	6	5	2
3875416	PROB	n/a	LTP317	ltpFR2	8	n/a	n/a	n/a	27	9	5	1	3
3877350	PROB	n/a	LTP317	ltpFR2	8	n/a	n/a	n/a	27	5	1	3	1
3878361	STOP	n/a	LTP317	ltpFR2	8	n/a	n/a	n/a	27	n/a	n/a	n/a	n/a
3880706	WORD	wordpools/wasnorm_wordpool_576.txt	LTP317	ltpFR2	8	19	MUMMY	932	n/a	n/a	0	0	0
3883291	WORD	wordpools/wasnorm_wordpool_576.txt	LTP317	ltpFR2	8	19	SHELF	1280	n/a	n/a	0	0	0
3886095	WORD	wordpools/wasnorm_wordpool_576.txt	LTP317	ltpFR2	8	19	TEMPLE	1448	n/a	n/a	0	0	0
3888778	WORD	wordpools/wasnorm_wordpool_576.txt	LTP317	ltpFR2	8	19	LIZARD	834	n/a	n/a	0	0	0
3891598	WORD	wordpools/wasnorm_wordpool_576.txt	LTP317	ltpFR2	8	19	CASHIER	254	n/a	n/a	0	0	0
3894218	WORD	wordpools/wasnorm_wordpool_576.txt	LTP317	ltpFR2	8	19	HOUND	724	n/a	n/a	0	0	0
3896719	WORD	wordpools/wasnorm_wordpool_576.txt	LTP317	ltpFR2	8	19	PEACH	1031	n/a	n/a	0	0	0
3899189	WORD	wordpools/wasnorm_wordpool_576.txt	LTP317	ltpFR2	8	19	SLIDE	1326	n/a	n/a	0	0	0
3901655	WORD	wordpools/wasnorm_wordpool_576.txt	LTP317	ltpFR2	8	19	CANDY	230	n/a	n/a	0	0	0
3904393	WORD	wordpools/wasnorm_wordpool_576.txt	LTP317	ltpFR2	8	19	DUST	508	n/a	n/a	0	0	0
3907095	WORD	wordpools/wasnorm_wordpool_576.txt	LTP317	ltpFR2	8	19	SHOVEL	1295	n/a	n/a	0	0	0
3909680	WORD	wordpools/wasnorm_wordpool_576.txt	LTP317	ltpFR2	8	19	DOUGHNUT	490	n/a	n/a	0	0	0
3912466	WORD	wordpools/wasnorm_wordpool_576.txt	LTP317	ltpFR2	8	19	MARS	873	n/a	n/a	0	0	0
3914985	WORD	wordpools/wasnorm_wordpool_576.txt	LTP317	ltpFR2	8	19	VENUS	1557	n/a	n/a	0	0	0
3917585	WORD	wordpools/wasnorm_wordpool_576.txt	LTP317	ltpFR2	8	19	PLUTO	1092	n/a	n/a	0	0	0
3920354	WORD	wordpools/wasnorm_wordpool_576.txt	LTP317	ltpFR2	8	19	DENTIST	447	n/a	n/a	0	0	0
3923173	WORD	wordpools/wasnorm_wordpool_576.txt	LTP317	ltpFR2	8	19	SUBWAY	1400	n/a	n/a	0	0	0
3925843	WORD	wordpools/wasnorm_wordpool_576.txt	LTP317	ltpFR2	8	19	INMATE	738	n/a	n/a	0	0	0
3928378	WORD	wordpools/wasnorm_wordpool_576.txt	LTP317	ltpFR2	8	19	APPLE	33	n/a	n/a	0	0	0
3930980	WORD	wordpools/wasnorm_wordpool_576.txt	LTP317	ltpFR2	8	19	CRAB	397	n/a	n/a	0	0	0
3933467	WORD	wordpools/wasnorm_wordpool_576.txt	LTP317	ltpFR2	8	19	DENIM	446	n/a	n/a	0	0	0
3936283	WORD	wordpools/wasnorm_wordpool_576.txt	LTP317	ltpFR2	8	19	HAMPER	682	n/a	n/a	0	0	0
3939085	WORD	wordpools/wasnorm_wordpool_576.txt	LTP317	ltpFR2	8	19	AIRPORT	13	n/a	n/a	0	0	0
3941636	WORD	wordpools/wasnorm_wordpool_576.txt	LTP317	ltpFR2	8	19	PAIL	1002	n/a	n/a	0	0	0
3943257	START	n/a	LTP317	ltpFR2	8	n/a	n/a	n/a	28	n/a	n/a	n/a	n/a
3944297	DISTRACTOR	n/a	LTP317	ltpFR2	8	19	n/a	n/a	n/a	n/a	0	0	0
3944307	PROB	n/a	LTP317	ltpFR2	8	n/a	n/a	n/a	28	24	8	7	9
3948608	PROB	n/a	LTP317	ltpFR2	8	n/a	n/a	n/a	28	18	5	7	3
3950408	PROB	n/a	LTP317	ltpFR2	8	n/a	n/a	n/a	28	14	8	1	5
3952227	PROB	n/a	LTP317	ltpFR2	8	n/a	n/a	n/a	28	20	6	6	8
3955095	PROB	n/a	LTP317	ltpFR2	8	n/a	n/a	n/a	28	14	3	9	2
3956530	PROB	n/a	LTP317	ltpFR2	8	n/a	n/a	n/a	28	23	8	9	6
3959382	PROB	n/a	LTP317	ltpFR2	8	n/a	n/a	n/a	28	14	4	4	6
3960986	PROB	n/a	LTP317	ltpFR2	8	n/a	n/a	n/a	28	15	1	6	9
3963700	PROB	n/a	LTP317	ltpFR2	8	n/a	n/a	n/a	28	15	2	5	8
3965189	PROB	n/a	LTP317	ltpFR2	8	n/a	n/a	n/a	28	8	3	2	3
3966560	STOP	n/a	LTP317	ltpFR2	8	n/a	n/a	n/a	28	n/a	n/a	n/a	n/a
3969026	REC_START	n/a	LTP317	ltpFR2	8	19	n/a	n/a	n/a	n/a	0	0	0
3972272	REC_WORD	wordpools/wasnorm_wordpool_576.txt	LTP317	ltpFR2	8	19	DUST	508	n/a	n/a	0	0	0
3973057	REC_WORD	wordpools/wasnorm_wordpool_576.txt	LTP317	ltpFR2	8	19	SHOVEL	1295	n/a	n/a	0	0	0
3974299	REC_WORD	wordpools/wasnorm_wordpool_576.txt	LTP317	ltpFR2	8	19	MARS	873	n/a	n/a	0	0	0
3975329	REC_WORD	wordpools/wasnorm_wordpool_576.txt	LTP317	ltpFR2	8	19	VENUS	1557	n/a	n/a	0	0	0
3976350	REC_WORD	wordpools/wasnorm_wordpool_576.txt	LTP317	ltpFR2	8	19	PLUTO	1092	n/a	n/a	0	0	0
3977450	REC_WORD	wordpools/wasnorm_wordpool_576.txt	LTP317	ltpFR2	8	19	DOUGHNUT	490	n/a	n/a	0	0	0
3990056	REC_WORD	wordpools/wasnorm_wordpool_576.txt	LTP317	ltpFR2	8	19	LIZARD	834	n/a	n/a	0	0	0
4001603	REC_WORD	wordpools/wasnorm_wordpool_576.txt	LTP317	ltpFR2	8	19	TEMPLE	1448	n/a	n/a	0	0	0
4006241	REC_WORD	wordpools/wasnorm_wordpool_576.txt	LTP317	ltpFR2	8	19	MUMMY	932	n/a	n/a	0	0	0
4017276	REC_WORD	wordpools/wasnorm_wordpool_576.txt	LTP317	ltpFR2	8	19	SLIDE	1326	n/a	n/a	0	0	0
4059472	WORD	wordpools/wasnorm_wordpool_576.txt	LTP317	ltpFR2	8	20	PARTNER	1017	n/a	n/a	0	0	0
4061979	WORD	wordpools/wasnorm_wordpool_576.txt	LTP317	ltpFR2	8	20	VAGRANT	1544	n/a	n/a	0	0	0
4064709	WORD	wordpools/wasnorm_wordpool_576.txt	LTP317	ltpFR2	8	20	SIBLING	1301	n/a	n/a	0	0	0
4067428	WORD	wordpools/wasnorm_wordpool_576.txt	LTP317	ltpFR2	8	20	CHURCH	307	n/a	n/a	0	0	0
4070136	WORD	wordpools/wasnorm_wordpool_576.txt	LTP317	ltpFR2	8	20	COUCH	386	n/a	n/a	0	0	0
4072955	WORD	wordpools/wasnorm_wordpool_576.txt	LTP317	ltpFR2	8	20	JUDGE	761	n/a	n/a	0	0	0
4075606	WORD	wordpools/wasnorm_wordpool_576.txt	LTP317	ltpFR2	8	20	PLATE	1086	n/a	n/a	0	0	0
4078403	WORD	wordpools/wasnorm_wordpool_576.txt	LTP317	ltpFR2	8	20	TRUCK	1512	n/a	n/a	0	0	0
4081072	WORD	wordpools/wasnorm_wordpool_576.txt	LTP317	ltpFR2	8	20	PLAZA	1088	n/a	n/a	0	0	0
4083859	WORD	wordpools/wasnorm_wordpool_576.txt	LTP317	ltpFR2	8	20	RECEIPT	1173	n/a	n/a	0	0	0
4086432	WORD	wordpools/wasnorm_wordpool_576.txt	LTP317	ltpFR2	8	20	SERVANT	1271	n/a	n/a	0	0	0
4089263	WORD	wordpools/wasnorm_wordpool_576.txt	LTP317	ltpFR2	8	20	VALVE	1546	n/a	n/a	0	0	0
4091848	WORD	wordpools/wasnorm_wordpool_576.txt	LTP317	ltpFR2	8	20	PREACHER	1119	n/a	n/a	0	0	0
4094534	WORD	wordpools/wasnorm_wordpool_576.txt	LTP317	ltpFR2	8	20	PUPIL	1143	n/a	n/a	0	0	0
4097052	WORD	wordpools/wasnorm_wordpool_576.txt	LTP317	ltpFR2	8	20	SAUSAGE	1238	n/a	n/a	0	0	0
4099856	WORD	wordpools/wasnorm_wordpool_576.txt	LTP317	ltpFR2	8	20	PICNIC	1060	n/a	n/a	0	0	0
4102526	WORD	wordpools/wasnorm_wordpool_576.txt	LTP317	ltpFR2	8	20	GAVEL	627	n/a	n/a	0	0	0
4105109	WORD	wordpools/wasnorm_wordpool_576.txt	LTP317	ltpFR2	8	20	GREASE	660	n/a	n/a	0	0	0
4107611	WORD	wordpools/wasnorm_wordpool_576.txt	LTP317	ltpFR2	8	20	YOLK	1633	n/a	n/a	0	0	0
4110413	WORD	wordpools/wasnorm_wordpool_576.txt	LTP317	ltpFR2	8	20	DONOR	485	n/a	n/a	0	0	0
4113016	WORD	wordpools/wasnorm_wordpool_576.txt	LTP317	ltpFR2	8	20	SERVER	1272	n/a	n/a	0	0	0
4115768	WORD	wordpools/wasnorm_wordpool_576.txt	LTP317	ltpFR2	8	20	WAITRESS	1581	n/a	n/a	0	0	0
4118221	WORD	wordpools/wasnorm_wordpool_576.txt	LTP317	ltpFR2	8	20	ROBIN	1199	n/a	n/a	0	0	0
4120755	WORD	wordpools/wasnorm_wordpool_576.txt	LTP317	ltpFR2	8	20	CHAPEL	280	n/a	n/a	0	0	0
4122374	START	n/a	LTP317	ltpFR2	8	n/a	n/a	n/a	29	n/a	n/a	n/a	n/a
4123374	DISTRACTOR	n/a	LTP317	ltpFR2	8	20	n/a	n/a	n/a	n/a	0	0	0
4123392	PROB	n/a	LTP317	ltpFR2	8	n/a	n/a	n/a	29	23	9	6	8
4127976	PROB	n/a	LTP317	ltpFR2	8	n/a	n/a	n/a	29	21	7	7	7
4129327	PROB	n/a	LTP317	ltpFR2	8	n/a	n/a	n/a	29	15	3	5	7
4130559	PROB	n/a	LTP317	ltpFR2	8	n/a	n/a	n/a	29	12	2	7	3
4131896	PROB	n/a	LTP317	ltpFR2	8	n/a	n/a	n/a	29	12	2	6	4
4133296	PROB	n/a	LTP317	ltpFR2	8	n/a	n/a	n/a	29	14	8	5	1
4135265	PROB	n/a	LTP317	ltpFR2	8	n/a	n/a	n/a	29	17	8	8	1
4137334	PROB	n/a	LTP317	ltpFR2	8	n/a	n/a	n/a	29	6	2	3	1
4138700	PROB	n/a	LTP317	ltpFR2	8	n/a	n/a	n/a	29	18	5	6	7
4140306	PROB	n/a	LTP317	ltpFR2	8	n/a	n/a	n/a	29	10	1	8	1
4141920	PROB	n/a	LTP317	ltpFR2	8	n/a	n/a	n/a	29	18	7	4	7
4143537	PROB	n/a	LTP317	ltpFR2	8	n/a	n/a	n/a	29	19	4	8	7
4145065	STOP	n/a	LTP317	ltpFR2	8	n/a	n/a	n/a	29	n/a	n/a	n/a	n/a
4148209	REC_START	n/a	LTP317	ltpFR2	8	20	n/a	n/a	n/a	n/a	0	0	0
4157867	REC_WORD	wordpools/wasnorm_wordpool_576.txt	LTP317	ltpFR2	8	20	GREASY	-1	n/a	n/a	0	0	0
4159131	REC_WORD_VV	wordpools/wasnorm_wordpool_576.txt	LTP317	ltpFR2	8	20	<>	-1	n/a	n/a	0	0	0
4159593	REC_WORD	wordpools/wasnorm_wordpool_576.txt	LTP317	ltpFR2	8	20	GREASE	660	n/a	n/a	0	0	0
4160723	REC_WORD	wordpools/wasnorm_wordpool_576.txt	LTP317	ltpFR2	8	20	YOLK	1633	n/a	n/a	0	0	0
4175786	REC_WORD	wordpools/wasnorm_wordpool_576.txt	LTP317	ltpFR2	8	20	CHURCH	307	n/a	n/a	0	0	0
4177053	REC_WORD	wordpools/wasnorm_wordpool_576.txt	LTP317	ltpFR2	8	20	CHAPEL	280	n/a	n/a	0	0	0
4179168	REC_WORD	wordpools/wasnorm_wordpool_576.txt	LTP317	ltpFR2	8	20	PREACHER	1119	n/a	n/a	0	0	0
4181989	REC_WORD	wordpools/wasnorm_wordpool_576.txt	LTP317	ltpFR2	8	20	PUPIL	1143	n/a	n/a	0	0	0
4238653	DISTRACTOR	n/a	LTP317	ltpFR2	8	21	n/a	n/a	n/a	n/a	0	0	0
4238653	START	n/a	LTP317	ltpFR2	8	n/a	n/a	n/a	30	n/a	n/a	n/a	n/a
4238667	PROB	n/a	LTP317	ltpFR2	8	n/a	n/a	n/a	30	10	1	1	8
4240187	PROB	n/a	LTP317	ltpFR2	8	n/a	n/a	n/a	30	13	2	6	5
4242506	PROB	n/a	LTP317	ltpFR2	8	n/a	n/a	n/a	30	16	7	7	2
4243989	PROB	n/a	LTP317	ltpFR2	8	n/a	n/a	n/a	30	24	8	9	7
4248193	PROB	n/a	LTP317	ltpFR2	8	n/a	n/a	n/a	30	7	1	2	4
4250212	PROB	n/a	LTP317	ltpFR2	8	n/a	n/a	n/a	30	21	8	5	8
4252113	PROB	n/a	LTP317	ltpFR2	8	n/a	n/a	n/a	30	15	4	5	6
4253564	PROB	n/a	LTP317	ltpFR2	8	n/a	n/a	n/a	30	9	1	6	2
4255331	PROB	n/a	LTP317	ltpFR2	8	n/a	n/a	n/a	30	14	4	9	1
4257416	PROB	n/a	LTP317	ltpFR2	8	n/a	n/a	n/a	30	17	8	4	5
4259118	PROB	n/a	LTP317	ltpFR2	8	n/a	n/a	n/a	30	18	3	7	8
4260386	PROB	n/a	LTP317	ltpFR2	8	n/a	n/a	n/a	30	20	9	9	2
4261736	STOP	n/a	LTP317	ltpFR2	8	n/a	n/a	n/a	30	n/a	n/a	n/a	n/a
4263733	WORD	wordpools/wasnorm_wordpool_576.txt	LTP317	ltpFR2	8	21	PIANO	1057	n/a	n/a	0	0	0
4266326	WORD	wordpools/wasnorm_wordpool_576.txt	LTP317	ltpFR2	8	21	CAFE	216	n/a	n/a	0	0	0
4268962	WORD	wordpools/wasnorm_wordpool_576.txt	LTP317	ltpFR2	8	21	HEADBAND	696	n/a	n/a	0	0	0
4271755	WORD	wordpools/wasnorm_wordpool_576.txt	LTP317	ltpFR2	8	21	GIRL	637	n/a	n/a	0	0	0
4274409	WORD	wordpools/wasnorm_wordpool_576.txt	LTP317	ltpFR2	8	21	PATIENT	1024	n/a	n/a	0	0	0
4277177	WORD	wordpools/wasnorm_wordpool_576.txt	LTP317	ltpFR2	8	21	ROBBER	1197	n/a	n/a	0	0	0
4279971	WORD	wordpools/wasnorm_wordpool_576.txt	LTP317	ltpFR2	8	21	ROBOT	1200	n/a	n/a	0	0	0
4282723	WORD	wordpools/wasnorm_wordpool_576.txt	LTP317	ltpFR2	8	21	GUITAR	670	n/a	n/a	0	0	0
4285360	WORD	wordpools/wasnorm_wordpool_576.txt	LTP317	ltpFR2	8	21	LUGGAGE	847	n/a	n/a	0	0	0
4287879	WORD	wordpools/wasnorm_wordpool_576.txt	LTP317	ltpFR2	8	21	POPCORN	1104	n/a	n/a	0	0	0
4290570	WORD	wordpools/wasnorm_wordpool_576.txt	LTP317	ltpFR2	8	21	DRESS	495	n/a	n/a	0	0	0
4293256	WORD	wordpools/wasnorm_wordpool_576.txt	LTP317	ltpFR2	8	21	BARREL	91	n/a	n/a	0	0	0
4295934	WORD	wordpools/wasnorm_wordpool_576.txt	LTP317	ltpFR2	8	21	COUNTY	389	n/a	n/a	0	0	0
4298609	WORD	wordpools/wasnorm_wordpool_576.txt	LTP317	ltpFR2	8	21	COUNTRY	388	n/a	n/a	0	0	0
4301339	WORD	wordpools/wasnorm_wordpool_576.txt	LTP317	ltpFR2	8	21	COOKBOOK	373	n/a	n/a	0	0	0
4304014	WORD	wordpools/wasnorm_wordpool_576.txt	LTP317	ltpFR2	8	21	AWARD	63	n/a	n/a	0	0	0
4306710	WORD	wordpools/wasnorm_wordpool_576.txt	LTP317	ltpFR2	8	21	MONEY	908	n/a	n/a	0	0	0
4309435	WORD	wordpools/wasnorm_wordpool_576.txt	LTP317	ltpFR2	8	21	PECAN	1036	n/a	n/a	0	0	0
4311904	WORD	wordpools/wasnorm_wordpool_576.txt	LTP317	ltpFR2	8	21	TILE	1468	n/a	n/a	0	0	0
4314434	WORD	wordpools/wasnorm_wordpool_576.txt	LTP317	ltpFR2	8	21	MOP	916	n/a	n/a	0	0	0
4317253	WORD	wordpools/wasnorm_wordpool_576.txt	LTP317	ltpFR2	8	21	TWIG	1527	n/a	n/a	0	0	0
4319754	WORD	wordpools/wasnorm_wordpool_576.txt	LTP317	ltpFR2	8	21	BRANCH	168	n/a	n/a	0	0	0
4322511	WORD	wordpools/wasnorm_wordpool_576.txt	LTP317	ltpFR2	8	21	RUG	1215	n/a	n/a	0	0	0
4325164	WORD	wordpools/wasnorm_wordpool_576.txt	LTP317	ltpFR2	8	21	STOMACH	1384	n/a	n/a	0	0	0
4326777	START	n/a	LTP317	ltpFR2	8	n/a	n/a	n/a	31	n/a	n/a	n/a	n/a
4327742	DISTRACTOR	n/a	LTP317	ltpFR2	8	21	n/a	n/a	n/a	n/a	0	0	0
4327748	PROB	n/a	LTP317	ltpFR2	8	n/a	n/a	n/a	31	16	7	6	3
4331364	PROB	n/a	LTP317	ltpFR2	8	n/a	n/a	n/a	31	13	9	3	1
4333980	PROB	n/a	LTP317	ltpFR2	8	n/a	n/a	n/a	31	6	3	1	2
4335700	PROB	n/a	LTP317	ltpFR2	8	n/a	n/a	n/a	31	19	5	7	7
4337116	PROB	n/a	LTP317	ltpFR2	8	n/a	n/a	n/a	31	7	2	3	2
4339567	PROB	n/a	LTP317	ltpFR2	8	n/a	n/a	n/a	31	11	6	1	4
4341871	PROB	n/a	LTP317	ltpFR2	8	n/a	n/a	n/a	31	16	3	6	7
4343272	PROB	n/a	LTP317	ltpFR2	8	n/a	n/a	n/a	31	11	7	2	2
4344956	PROB	n/a	LTP317	ltpFR2	8	n/a	n/a	n/a	31	15	2	7	6
4346273	PROB	n/a	LTP317	ltpFR2	8	n/a	n/a	n/a	31	13	5	5	3
4347508	PROB	n/a	LTP317	ltpFR2	8	n/a	n/a	n/a	31	18	6	4	8
4348742	PROB	n/a	LTP317	ltpFR2	8	n/a	n/a	n/a	31	20	4	7	9
4350520	STOP	n/a	LTP317	ltpFR2	8	n/a	n/a	n/a	31	n/a	n/a	n/a	n/a
4352598	REC_START	n/a	LTP317	ltpFR2	8	21	n/a	n/a	n/a	n/a	0	0	0
4354163	REC_WORD	wordpools/wasnorm_wordpool_576.txt	LTP317	ltpFR2	8	21	PIANO	1057	n/a	n/a	0	0	0
4355368	REC_WORD	wordpools/wasnorm_wordpool_576.txt	LTP317	ltpFR2	8	21	CAFE	216	n/a	n/a	0	0	0
4356581	REC_WORD	wordpools/wasnorm_wordpool_576.txt	LTP317	ltpFR2	8	21	HEADBAND	696	n/a	n/a	0	0	0
4357799	REC_WORD	wordpools/wasnorm_wordpool_576.txt	LTP317	ltpFR2	8	21	GIRL	637	n/a	n/a	0	0	0
4366193	REC_WORD	wordpools/wasnorm_wordpool_576.txt	LTP317	ltpFR2	8	21	ROBBER	1197	n/a	n/a	0	0	0
4369521	REC_WORD	wordpools/wasnorm_wordpool_576.txt	LTP317	ltpFR2	8	21	COUNTY	389	n/a	n/a	0	0	0
4370698	REC_WORD	wordpools/wasnorm_wordpool_576.txt	LTP317	ltpFR2	8	21	COUNTRY	388	n/a	n/a	0	0	0
4371971	REC_WORD	wordpools/wasnorm_wordpool_576.txt	LTP317	ltpFR2	8	21	COOKBOOK	373	n/a	n/a	0	0	0
4443041	DISTRACTOR	n/a	LTP317	ltpFR2	8	22	n/a	n/a	n/a	n/a	0	0	0
4443041	START	n/a	LTP317	ltpFR2	8	n/a	n/a	n/a	32	n/a	n/a	n/a	n/a
4443055	PROB	n/a	LTP317	ltpFR2	8	n/a	n/a	n/a	32	7	1	2	4
4445002	PROB	n/a	LTP317	ltpFR2	8	n/a	n/a	n/a	32	7	2	1	4
4447154	PROB	n/a	LTP317	ltpFR2	8	n/a	n/a	n/a	32	21	8	7	6
4448790	PROB	n/a	LTP317	ltpFR2	8	n/a	n/a	n/a	32	14	9	1	4
4450606	PROB	n/a	LTP317	ltpFR2	8	n/a	n/a	n/a	32	9	5	3	1
4451940	PROB	n/a	LTP317	ltpFR2	8	n/a	n/a	n/a	32	15	9	3	3
4453362	PROB	n/a	LTP317	ltpFR2	8	n/a	n/a	n/a	32	12	3	4	5
4454763	PROB	n/a	LTP317	ltpFR2	8	n/a	n/a	n/a	32	8	2	4	2
4456577	PROB	n/a	LTP317	ltpFR2	8	n/a	n/a	n/a	32	16	6	1	9
4458066	PROB	n/a	LTP317	ltpFR2	8	n/a	n/a	n/a	32	18	9	4	5
4459695	PROB	n/a	LTP317	ltpFR2	8	n/a	n/a	n/a	32	1	7	8	3
4461465	PROB	n/a	LTP317	ltpFR2	8	n/a	n/a	n/a	32	18	7	8	3
4465544	STOP	n/a	LTP317	ltpFR2	8	n/a	n/a	n/a	32	n/a	n/a	n/a	n/a
4468023	WORD	wordpools/wasnorm_wordpool_576.txt	LTP317	ltpFR2	8	22	SHRUB	1299	n/a	n/a	0	0	0
4470680	WORD	wordpools/wasnorm_wordpool_576.txt	LTP317	ltpFR2	8	22	MAPLE	866	n/a	n/a	0	0	0
4473277	WORD	wordpools/wasnorm_wordpool_576.txt	LTP317	ltpFR2	8	22	FRIAR	605	n/a	n/a	0	0	0
4475745	WORD	wordpools/wasnorm_wordpool_576.txt	LTP317	ltpFR2	8	22	COWBOY	395	n/a	n/a	0	0	0
4478354	WORD	wordpools/wasnorm_wordpool_576.txt	LTP317	ltpFR2	8	22	PICTURE	1061	n/a	n/a	0	0	0
4481033	WORD	wordpools/wasnorm_wordpool_576.txt	LTP317	ltpFR2	8	22	PORTRAIT	1111	n/a	n/a	0	0	0
4483617	WORD	wordpools/wasnorm_wordpool_576.txt	LTP317	ltpFR2	8	22	VIKING	1565	n/a	n/a	0	0	0
4486119	WORD	wordpools/wasnorm_wordpool_576.txt	LTP317	ltpFR2	8	22	NOMAD	955	n/a	n/a	0	0	0
4488688	WORD	wordpools/wasnorm_wordpool_576.txt	LTP317	ltpFR2	8	22	STALLION	1369	n/a	n/a	0	0	0
4491207	WORD	wordpools/wasnorm_wordpool_576.txt	LTP317	ltpFR2	8	22	IGLOO	734	n/a	n/a	0	0	0
4493875	WORD	wordpools/wasnorm_wordpool_576.txt	LTP317	ltpFR2	8	22	PASSAGE	1019	n/a	n/a	0	0	0
4496510	WORD	wordpools/wasnorm_wordpool_576.txt	LTP317	ltpFR2	8	22	MOTEL	919	n/a	n/a	0	0	0
4499246	WORD	wordpools/wasnorm_wordpool_576.txt	LTP317	ltpFR2	8	22	NECKLACE	940	n/a	n/a	0	0	0
4501731	WORD	wordpools/wasnorm_wordpool_576.txt	LTP317	ltpFR2	8	22	CREATURE	403	n/a	n/a	0	0	0
4504491	WORD	wordpools/wasnorm_wordpool_576.txt	LTP317	ltpFR2	8	22	CAMEL	223	n/a	n/a	0	0	0
4507153	WORD	wordpools/wasnorm_wordpool_576.txt	LTP317	ltpFR2	8	22	PADDLE	1000	n/a	n/a	0	0	0
4509778	WORD	wordpools/wasnorm_wordpool_576.txt	LTP317	ltpFR2	8	22	CLOCK	325	n/a	n/a	0	0	0
4512264	WORD	wordpools/wasnorm_wordpool_576.txt	LTP317	ltpFR2	8	22	TUNNEL	1519	n/a	n/a	0	0	0
4514783	WORD	wordpools/wasnorm_wordpool_576.txt	LTP317	ltpFR2	8	22	LIPSTICK	829	n/a	n/a	0	0	0
4517426	WORD	wordpools/wasnorm_wordpool_576.txt	LTP317	ltpFR2	8	22	KLEENEX	782	n/a	n/a	0	0	0
4520054	WORD	wordpools/wasnorm_wordpool_576.txt	LTP317	ltpFR2	8	22	SURVEY	1414	n/a	n/a	0	0	0
4522614	WORD	wordpools/wasnorm_wordpool_576.txt	LTP317	ltpFR2	8	22	BOARD	143	n/a	n/a	0	0	0
4525158	WORD	wordpools/wasnorm_wordpool_576.txt	LTP317	ltpFR2	8	22	JEANS	752	n/a	n/a	0	0	0
4527633	WORD	wordpools/wasnorm_wordpool_576.txt	LTP317	ltpFR2	8	22	BASEMENT	94	n/a	n/a	0	0	0
4529246	START	n/a	LTP317	ltpFR2	8	n/a	n/a	n/a	33	n/a	n/a	n/a	n/a
4530393	DISTRACTOR	n/a	LTP317	ltpFR2	8	22	n/a	n/a	n/a	n/a	0	0	0
4530404	PROB	n/a	LTP317	ltpFR2	8	n/a	n/a	n/a	33	14	4	7	3
4532511	PROB	n/a	LTP317	ltpFR2	8	n/a	n/a	n/a	33	23	7	9	8
4538500	PROB	n/a	LTP317	ltpFR2	8	n/a	n/a	n/a	33	4	1	2	1
4540302	PROB	n/a	LTP317	ltpFR2	8	n/a	n/a	n/a	33	14	3	9	2
4541853	PROB	n/a	LTP317	ltpFR2	8	n/a	n/a	n/a	33	9	4	4	1
4544071	PROB	n/a	LTP317	ltpFR2	8	n/a	n/a	n/a	33	9	2	6	1
4546323	PROB	n/a	LTP317	ltpFR2	8	n/a	n/a	n/a	33	12	6	3	3
4548425	PROB	n/a	LTP317	ltpFR2	8	n/a	n/a	n/a	33	13	8	4	1
4550160	PROB	n/a	LTP317	ltpFR2	8	n/a	n/a	n/a	33	15	1	5	9
4551712	STOP	n/a	LTP317	ltpFR2	8	n/a	n/a	n/a	33	n/a	n/a	n/a	n/a
4555182	REC_START	n/a	LTP317	ltpFR2	8	22	n/a	n/a	n/a	n/a	0	0	0
4556885	REC_WORD	wordpools/wasnorm_wordpool_576.txt	LTP317	ltpFR2	8	22	KLEENEX	782	n/a	n/a	0	0	0
4558022	REC_WORD	wordpools/wasnorm_wordpool_576.txt	LTP317	ltpFR2	8	22	SURVEY	1414	n/a	n/a	0	0	0
4559427	REC_WORD	wordpools/wasnorm_wordpool_576.txt	LTP317	ltpFR2	8	22	BOARD	143	n/a	n/a	0	0	0
4567225	REC_WORD	wordpools/wasnorm_wordpool_576.txt	LTP317	ltpFR2	8	22	PICTURE	1061	n/a	n/a	0	0	0
4568887	REC_WORD	wordpools/wasnorm_wordpool_576.txt	LTP317	ltpFR2	8	22	PORTRAIT	1111	n/a	n/a	0	0	0
4645658	WORD	wordpools/wasnorm_wordpool_576.txt	LTP317	ltpFR2	8	23	SWAMP	1416	n/a	n/a	0	0	0
4648260	WORD	wordpools/wasnorm_wordpool_576.txt	LTP317	ltpFR2	8	23	TERMITE	1451	n/a	n/a	0	0	0
4650962	WORD	wordpools/wasnorm_wordpool_576.txt	LTP317	ltpFR2	8	23	THIEF	1456	n/a	n/a	0	0	0
4653447	WORD	wordpools/wasnorm_wordpool_576.txt	LTP317	ltpFR2	8	23	SPONGE	1355	n/a	n/a	0	0	0
4655899	WORD	wordpools/wasnorm_wordpool_576.txt	LTP317	ltpFR2	8	23	PANTHER	1009	n/a	n/a	0	0	0
4658502	WORD	wordpools/wasnorm_wordpool_576.txt	LTP317	ltpFR2	8	23	BISON	131	n/a	n/a	0	0	0
4661104	WORD	wordpools/wasnorm_wordpool_576.txt	LTP317	ltpFR2	8	23	BIKE	125	n/a	n/a	0	0	0
4663924	WORD	wordpools/wasnorm_wordpool_576.txt	LTP317	ltpFR2	8	23	CUSTARD	429	n/a	n/a	0	0	0
4666573	WORD	wordpools/wasnorm_wordpool_576.txt	LTP317	ltpFR2	8	23	BUG	187	n/a	n/a	0	0	0
4669159	WORD	wordpools/wasnorm_wordpool_576.txt	LTP317	ltpFR2	8	23	BANKER	84	n/a	n/a	0	0	0
4671760	WORD	wordpools/wasnorm_wordpool_576.txt	LTP317	ltpFR2	8	23	DIME	466	n/a	n/a	0	0	0
4674264	WORD	wordpools/wasnorm_wordpool_576.txt	LTP317	ltpFR2	8	23	BRACES	164	n/a	n/a	0	0	0
4676800	WORD	wordpools/wasnorm_wordpool_576.txt	LTP317	ltpFR2	8	23	EAGLE	512	n/a	n/a	0	0	0
4679434	WORD	wordpools/wasnorm_wordpool_576.txt	LTP317	ltpFR2	8	23	CROSS	413	n/a	n/a	0	0	0
4682003	WORD	wordpools/wasnorm_wordpool_576.txt	LTP317	ltpFR2	8	23	LEOPARD	812	n/a	n/a	0	0	0
4684637	WORD	wordpools/wasnorm_wordpool_576.txt	LTP317	ltpFR2	8	23	GLOVE	642	n/a	n/a	0	0	0
4687110	WORD	wordpools/wasnorm_wordpool_576.txt	LTP317	ltpFR2	8	23	LACE	792	n/a	n/a	0	0	0
4689573	WORD	wordpools/wasnorm_wordpool_576.txt	LTP317	ltpFR2	8	23	SILK	1307	n/a	n/a	0	0	0
4692094	WORD	wordpools/wasnorm_wordpool_576.txt	LTP317	ltpFR2	8	23	GARBAGE	622	n/a	n/a	0	0	0
4694827	WORD	wordpools/wasnorm_wordpool_576.txt	LTP317	ltpFR2	8	23	COMET	353	n/a	n/a	0	0	0
4697381	WORD	wordpools/wasnorm_wordpool_576.txt	LTP317	ltpFR2	8	23	BURGLAR	200	n/a	n/a	0	0	0
4699970	WORD	wordpools/wasnorm_wordpool_576.txt	LTP317	ltpFR2	8	23	ACTOR	5	n/a	n/a	0	0	0
4702755	WORD	wordpools/wasnorm_wordpool_576.txt	LTP317	ltpFR2	8	23	STAKE	1368	n/a	n/a	0	0	0
4705553	WORD	wordpools/wasnorm_wordpool_576.txt	LTP317	ltpFR2	8	23	FRAGRANCE	599	n/a	n/a	0	0	0
4707161	START	n/a	LTP317	ltpFR2	8	n/a	n/a	n/a	34	n/a	n/a	n/a	n/a
4708015	DISTRACTOR	n/a	LTP317	ltpFR2	8	23	n/a	n/a	n/a	n/a	0	0	0
4708023	PROB	n/a	LTP317	ltpFR2	8	n/a	n/a	n/a	34	10	3	3	4
4710276	PROB	n/a	LTP317	ltpFR2	8	n/a	n/a	n/a	34	17	4	9	4
4712163	PROB	n/a	LTP317	ltpFR2	8	n/a	n/a	n/a	34	13	5	4	4
4714814	PROB	n/a	LTP317	ltpFR2	8	n/a	n/a	n/a	34	16	1	8	7
4717217	PROB	n/a	LTP317	ltpFR2	8	n/a	n/a	n/a	34	16	2	8	6
4718483	PROB	n/a	LTP317	ltpFR2	8	n/a	n/a	n/a	34	11	4	6	1
4719785	PROB	n/a	LTP317	ltpFR2	8	n/a	n/a	n/a	34	14	6	4	4
4721253	PROB	n/a	LTP317	ltpFR2	8	n/a	n/a	n/a	34	10	5	2	3
4723388	PROB	n/a	LTP317	ltpFR2	8	n/a	n/a	n/a	34	17	5	6	6
4725090	PROB	n/a	LTP317	ltpFR2	8	n/a	n/a	n/a	34	16	2	5	9
4726623	PROB	n/a	LTP317	ltpFR2	8	n/a	n/a	n/a	34	15	4	4	7
4728009	PROB	n/a	LTP317	ltpFR2	8	n/a	n/a	n/a	34	12	4	2	6
4729477	PROB	n/a	LTP317	ltpFR2	8	n/a	n/a	n/a	34	15	6	4	5
4730824	STOP	n/a	LTP317	ltpFR2	8	n/a	n/a	n/a	34	n/a	n/a	n/a	n/a
4733048	REC_START	n/a	LTP317	ltpFR2	8	23	n/a	n/a	n/a	n/a	0	0	0
4734014	REC_WORD	wordpools/wasnorm_wordpool_576.txt	LTP317	ltpFR2	8	23	SWAMP	1416	n/a	n/a	0	0	0
4734914	REC_WORD	wordpools/wasnorm_wordpool_576.txt	LTP317	ltpFR2	8	23	TERMITE	1451	n/a	n/a	0	0	0
4736198	REC_WORD	wordpools/wasnorm_wordpool_576.txt	LTP317	ltpFR2	8	23	THIEF	1456	n/a	n/a	0	0	0
4737533	REC_WORD	wordpools/wasnorm_wordpool_576.txt	LTP317	ltpFR2	8	23	SPONGE	1355	n/a	n/a	0	0	0
4739916	REC_WORD	wordpools/wasnorm_wordpool_576.txt	LTP317	ltpFR2	8	23	BURGLAR	200	n/a	n/a	0	0	0
4756355	REC_WORD	wordpools/wasnorm_wordpool_576.txt	LTP317	ltpFR2	8	23	FRAGRANCE	599	n/a	n/a	0	0	0
4757355	REC_WORD_VV	wordpools/wasnorm_wordpool_576.txt	LTP317	ltpFR2	8	23	<>	-1	n/a	n/a	0	0	0
4823507	DISTRACTOR	n/a	LTP317	ltpFR2	8	24	n/a	n/a	n/a	n/a	0	0	0
4823507	START	n/a	LTP317	ltpFR2	8	n/a	n/a	n/a	35	n/a	n/a	n/a	n/a
4823520	PROB	n/a	LTP317	ltpFR2	8	n/a	n/a	n/a	35	7	1	4	2
4825222	PROB	n/a	LTP317	ltpFR2	8	n/a	n/a	n/a	35	16	3	4	9
4827390	PROB	n/a	LTP317	ltpFR2	8	n/a	n/a	n/a	35	14	3	8	3
