onset	duration	trial_type	sample	stim_file	subject	experiment	session	trial	task	item_name	item_num	recog_resp	recog_conf	resp	color_r	color_g	color_b	case	font
286.06	n/a	SESS_START	143030	n/a	LTP237	ltpFR	0	n/a	n/a	n/a	n/a	1	n/a	n/a	n/a	n/a	n/a	n/a	n/a
385.65	n/a	WORD	192825	wordpools/wasnorm_wordpool_less_exclusions.txt	LTP237	ltpFR	0	1	-1	HARP	689	n/a	n/a	-1	1.0	1.0	1	upper	Verdana.ttf
389.866	n/a	WORD	194933	wordpools/wasnorm_wordpool_less_exclusions.txt	LTP237	ltpFR	0	1	-1	TUBA	1515	n/a	n/a	-1	1.0	1.0	1	upper	Verdana.ttf
393.798	n/a	WORD	196899	wordpools/wasnorm_wordpool_less_exclusions.txt	LTP237	ltpFR	0	1	-1	GAZELLE	628	n/a	n/a	-1	1.0	1.0	1	upper	Verdana.ttf
397.762	n/a	WORD	198881	wordpools/wasnorm_wordpool_less_exclusions.txt	LTP237	ltpFR	0	1	-1	FARMER	553	n/a	n/a	-1	1.0	1.0	1	upper	Verdana.ttf
401.928	n/a	WORD	200964	wordpools/wasnorm_wordpool_less_exclusions.txt	LTP237	ltpFR	0	1	-1	RAM	1165	n/a	n/a	-1	1.0	1.0	1	upper	Verdana.ttf
405.944	n/a	WORD	202972	wordpools/wasnorm_wordpool_less_exclusions.txt	LTP237	ltpFR	0	1	-1	COFFEE	341	n/a	n/a	-1	1.0	1.0	1	upper	Verdana.ttf
410.144	n/a	WORD	205072	wordpools/wasnorm_wordpool_less_exclusions.txt	LTP237	ltpFR	0	1	-1	RADISH	1158	n/a	n/a	-1	1.0	1.0	1	upper	Verdana.ttf
414.276	n/a	WORD	207138	wordpools/wasnorm_wordpool_less_exclusions.txt	LTP237	ltpFR	0	1	-1	SWIMMER	1420	n/a	n/a	-1	1.0	1.0	1	upper	Verdana.ttf
418.14	n/a	WORD	209070	wordpools/wasnorm_wordpool_less_exclusions.txt	LTP237	ltpFR	0	1	-1	BROOK	177	n/a	n/a	-1	1.0	1.0	1	upper	Verdana.ttf
422.34	n/a	WORD	211170	wordpools/wasnorm_wordpool_less_exclusions.txt	LTP237	ltpFR	0	1	-1	RACCOON	1153	n/a	n/a	-1	1.0	1.0	1	upper	Verdana.ttf
426.272	n/a	WORD	213136	wordpools/wasnorm_wordpool_less_exclusions.txt	LTP237	ltpFR	0	1	-1	WRITER	1627	n/a	n/a	-1	1.0	1.0	1	upper	Verdana.ttf
430.102	n/a	WORD	215051	wordpools/wasnorm_wordpool_less_exclusions.txt	LTP237	ltpFR	0	1	-1	POOL	1103	n/a	n/a	-1	1.0	1.0	1	upper	Verdana.ttf
433.934	n/a	WORD	216967	wordpools/wasnorm_wordpool_less_exclusions.txt	LTP237	ltpFR	0	1	-1	SPONGE	1355	n/a	n/a	-1	1.0	1.0	1	upper	Verdana.ttf
438.134	n/a	WORD	219067	wordpools/wasnorm_wordpool_less_exclusions.txt	LTP237	ltpFR	0	1	-1	WALRUS	1585	n/a	n/a	-1	1.0	1.0	1	upper	Verdana.ttf
442.032	n/a	WORD	221016	wordpools/wasnorm_wordpool_less_exclusions.txt	LTP237	ltpFR	0	1	-1	STREAM	1392	n/a	n/a	-1	1.0	1.0	1	upper	Verdana.ttf
445.864	n/a	WORD	222932	wordpools/wasnorm_wordpool_less_exclusions.txt	LTP237	ltpFR	0	1	-1	MUG	930	n/a	n/a	-1	1.0	1.0	1	upper	Verdana.ttf
451.922	n/a	REC_START	225961	n/a	LTP237	ltpFR	0	1	n/a	n/a	n/a	n/a	n/a	n/a	n/a	n/a	n/a	n/a	n/a
453.332	n/a	REC_WORD	226666	wordpools/wasnorm_wordpool_less_exclusions.txt	LTP237	ltpFR	0	1	-1	HARP	689	n/a	n/a	-1	n/a	n/a	n/a	n/a	n/a
454.894	n/a	REC_WORD	227447	wordpools/wasnorm_wordpool_less_exclusions.txt	LTP237	ltpFR	0	1	-1	TUBA	1515	n/a	n/a	-1	n/a	n/a	n/a	n/a	n/a
456.914	n/a	REC_WORD	228457	wordpools/wasnorm_wordpool_less_exclusions.txt	LTP237	ltpFR	0	1	-1	GAZELLE	628	n/a	n/a	-1	n/a	n/a	n/a	n/a	n/a
458.96	n/a	REC_WORD	229480	wordpools/wasnorm_wordpool_less_exclusions.txt	LTP237	ltpFR	0	1	-1	FARMER	553	n/a	n/a	-1	n/a	n/a	n/a	n/a	n/a
461.596	n/a	REC_WORD	230798	wordpools/wasnorm_wordpool_less_exclusions.txt	LTP237	ltpFR	0	1	-1	RAM	1165	n/a	n/a	-1	n/a	n/a	n/a	n/a	n/a
463.162	n/a	REC_WORD	231581	wordpools/wasnorm_wordpool_less_exclusions.txt	LTP237	ltpFR	0	1	-1	COFFEE	341	n/a	n/a	-1	n/a	n/a	n/a	n/a	n/a
466.798	n/a	REC_WORD	233399	wordpools/wasnorm_wordpool_less_exclusions.txt	LTP237	ltpFR	0	1	-1	WALRUS	1585	n/a	n/a	-1	n/a	n/a	n/a	n/a	n/a
467.782	n/a	REC_WORD	233891	wordpools/wasnorm_wordpool_less_exclusions.txt	LTP237	ltpFR	0	1	-1	STREAM	1392	n/a	n/a	-1	n/a	n/a	n/a	n/a	n/a
470.614	n/a	REC_WORD	235307	wordpools/wasnorm_wordpool_less_exclusions.txt	LTP237	ltpFR	0	1	-1	POOL	1103	n/a	n/a	-1	n/a	n/a	n/a	n/a	n/a
471.718	n/a	REC_WORD	235859	wordpools/wasnorm_wordpool_less_exclusions.txt	LTP237	ltpFR	0	1	-1	SPONGE	1355	n/a	n/a	-1	n/a	n/a	n/a	n/a	n/a
540.61	n/a	WORD	270305	wordpools/wasnorm_wordpool_less_exclusions.txt	LTP237	ltpFR	0	2	-1	BUTLER	204	n/a	n/a	-1	1.0	1.0	1	upper	Verdana.ttf
544.54	n/a	WORD	272270	wordpools/wasnorm_wordpool_less_exclusions.txt	LTP237	ltpFR	0	2	-1	BARREL	91	n/a	n/a	-1	1.0	1.0	1	upper	Verdana.ttf
548.706	n/a	WORD	274353	wordpools/wasnorm_wordpool_less_exclusions.txt	LTP237	ltpFR	0	2	-1	SPINACH	1352	n/a	n/a	-1	1.0	1.0	1	upper	Verdana.ttf
552.738	n/a	WORD	276369	wordpools/wasnorm_wordpool_less_exclusions.txt	LTP237	ltpFR	0	2	-1	HANDKERCHIEF	686	n/a	n/a	-1	1.0	1.0	1	upper	Verdana.ttf
556.82	n/a	WORD	278410	wordpools/wasnorm_wordpool_less_exclusions.txt	LTP237	ltpFR	0	2	-1	HAMPER	682	n/a	n/a	-1	1.0	1.0	1	upper	Verdana.ttf
561.038	n/a	WORD	280519	wordpools/wasnorm_wordpool_less_exclusions.txt	LTP237	ltpFR	0	2	-1	WASHER	1592	n/a	n/a	-1	1.0	1.0	1	upper	Verdana.ttf
565.254	n/a	WORD	282627	wordpools/wasnorm_wordpool_less_exclusions.txt	LTP237	ltpFR	0	2	-1	HANGER	687	n/a	n/a	-1	1.0	1.0	1	upper	Verdana.ttf
569.352	n/a	WORD	284676	wordpools/wasnorm_wordpool_less_exclusions.txt	LTP237	ltpFR	0	2	-1	CUFF	423	n/a	n/a	-1	1.0	1.0	1	upper	Verdana.ttf
573.284	n/a	WORD	286642	wordpools/wasnorm_wordpool_less_exclusions.txt	LTP237	ltpFR	0	2	-1	OFFICE	972	n/a	n/a	-1	1.0	1.0	1	upper	Verdana.ttf
577.35	n/a	WORD	288675	wordpools/wasnorm_wordpool_less_exclusions.txt	LTP237	ltpFR	0	2	-1	SALAD	1224	n/a	n/a	-1	1.0	1.0	1	upper	Verdana.ttf
581.382	n/a	WORD	290691	wordpools/wasnorm_wordpool_less_exclusions.txt	LTP237	ltpFR	0	2	-1	OATMEAL	967	n/a	n/a	-1	1.0	1.0	1	upper	Verdana.ttf
585.296	n/a	WORD	292648	wordpools/wasnorm_wordpool_less_exclusions.txt	LTP237	ltpFR	0	2	-1	SIGN	1305	n/a	n/a	-1	1.0	1.0	1	upper	Verdana.ttf
589.496	n/a	WORD	294748	wordpools/wasnorm_wordpool_less_exclusions.txt	LTP237	ltpFR	0	2	-1	NAPKIN	937	n/a	n/a	-1	1.0	1.0	1	upper	Verdana.ttf
593.712	n/a	WORD	296856	wordpools/wasnorm_wordpool_less_exclusions.txt	LTP237	ltpFR	0	2	-1	GLASS	639	n/a	n/a	-1	1.0	1.0	1	upper	Verdana.ttf
597.776	n/a	WORD	298888	wordpools/wasnorm_wordpool_less_exclusions.txt	LTP237	ltpFR	0	2	-1	DISH	474	n/a	n/a	-1	1.0	1.0	1	upper	Verdana.ttf
601.792	n/a	WORD	300896	wordpools/wasnorm_wordpool_less_exclusions.txt	LTP237	ltpFR	0	2	-1	RECIPE	1175	n/a	n/a	-1	1.0	1.0	1	upper	Verdana.ttf
607.364	n/a	REC_START	303682	n/a	LTP237	ltpFR	0	2	n/a	n/a	n/a	n/a	n/a	n/a	n/a	n/a	n/a	n/a	n/a
610.098	n/a	REC_WORD	305049	wordpools/wasnorm_wordpool_less_exclusions.txt	LTP237	ltpFR	0	2	-1	BUTLER	204	n/a	n/a	-1	n/a	n/a	n/a	n/a	n/a
611.316	n/a	REC_WORD	305658	wordpools/wasnorm_wordpool_less_exclusions.txt	LTP237	ltpFR	0	2	-1	RECIPE	1175	n/a	n/a	-1	n/a	n/a	n/a	n/a	n/a
613.362	n/a	REC_WORD	306681	wordpools/wasnorm_wordpool_less_exclusions.txt	LTP237	ltpFR	0	2	-1	HANDKERCHIEF	686	n/a	n/a	-1	n/a	n/a	n/a	n/a	n/a
617.228	n/a	REC_WORD	308614	wordpools/wasnorm_wordpool_less_exclusions.txt	LTP237	ltpFR	0	2	-1	DISH	474	n/a	n/a	-1	n/a	n/a	n/a	n/a	n/a
641.21	n/a	REC_WORD	320605	wordpools/wasnorm_wordpool_less_exclusions.txt	LTP237	ltpFR	0	2	-1	RACCOON	1153	n/a	n/a	-1	n/a	n/a	n/a	n/a	n/a
644.222	n/a	REC_WORD	322111	wordpools/wasnorm_wordpool_less_exclusions.txt	LTP237	ltpFR	0	2	-1	HANGER	687	n/a	n/a	-1	n/a	n/a	n/a	n/a	n/a
687.888	n/a	WORD	343944	wordpools/wasnorm_wordpool_less_exclusions.txt	LTP237	ltpFR	0	3	-1	STABLE	1363	n/a	n/a	-1	1.0	1.0	1	upper	Verdana.ttf
691.736	n/a	WORD	345868	wordpools/wasnorm_wordpool_less_exclusions.txt	LTP237	ltpFR	0	3	-1	CARRIAGE	248	n/a	n/a	-1	1.0	1.0	1	upper	Verdana.ttf
695.686	n/a	WORD	347843	wordpools/wasnorm_wordpool_less_exclusions.txt	LTP237	ltpFR	0	3	-1	DOCK	477	n/a	n/a	-1	1.0	1.0	1	upper	Verdana.ttf
699.516	n/a	WORD	349758	wordpools/wasnorm_wordpool_less_exclusions.txt	LTP237	ltpFR	0	3	-1	GOLD	647	n/a	n/a	-1	1.0	1.0	1	upper	Verdana.ttf
703.616	n/a	WORD	351808	wordpools/wasnorm_wordpool_less_exclusions.txt	LTP237	ltpFR	0	3	-1	POTATO	1115	n/a	n/a	-1	1.0	1.0	1	upper	Verdana.ttf
707.664	n/a	WORD	353832	wordpools/wasnorm_wordpool_less_exclusions.txt	LTP237	ltpFR	0	3	-1	SUPPER	1411	n/a	n/a	-1	1.0	1.0	1	upper	Verdana.ttf
711.746	n/a	WORD	355873	wordpools/wasnorm_wordpool_less_exclusions.txt	LTP237	ltpFR	0	3	-1	PUDDLE	1140	n/a	n/a	-1	1.0	1.0	1	upper	Verdana.ttf
715.678	n/a	WORD	357839	wordpools/wasnorm_wordpool_less_exclusions.txt	LTP237	ltpFR	0	3	-1	UMBRELLA	1534	n/a	n/a	-1	1.0	1.0	1	upper	Verdana.ttf
719.842	n/a	WORD	359921	wordpools/wasnorm_wordpool_less_exclusions.txt	LTP237	ltpFR	0	3	-1	RING	1193	n/a	n/a	-1	1.0	1.0	1	upper	Verdana.ttf
723.942	n/a	WORD	361971	wordpools/wasnorm_wordpool_less_exclusions.txt	LTP237	ltpFR	0	3	-1	THRONE	1461	n/a	n/a	-1	1.0	1.0	1	upper	Verdana.ttf
727.992	n/a	WORD	363996	wordpools/wasnorm_wordpool_less_exclusions.txt	LTP237	ltpFR	0	3	-1	PADDLE	1000	n/a	n/a	-1	1.0	1.0	1	upper	Verdana.ttf
732.108	n/a	WORD	366054	wordpools/wasnorm_wordpool_less_exclusions.txt	LTP237	ltpFR	0	3	-1	STAFF	1365	n/a	n/a	-1	1.0	1.0	1	upper	Verdana.ttf
736.308	n/a	WORD	368154	wordpools/wasnorm_wordpool_less_exclusions.txt	LTP237	ltpFR	0	3	-1	LETTER	813	n/a	n/a	-1	1.0	1.0	1	upper	Verdana.ttf
740.39	n/a	WORD	370195	wordpools/wasnorm_wordpool_less_exclusions.txt	LTP237	ltpFR	0	3	-1	CANVAS	234	n/a	n/a	-1	1.0	1.0	1	upper	Verdana.ttf
744.488	n/a	WORD	372244	wordpools/wasnorm_wordpool_less_exclusions.txt	LTP237	ltpFR	0	3	-1	CHAMBER	277	n/a	n/a	-1	1.0	1.0	1	upper	Verdana.ttf
748.386	n/a	WORD	374193	wordpools/wasnorm_wordpool_less_exclusions.txt	LTP237	ltpFR	0	3	-1	COMMITTEE	355	n/a	n/a	-1	1.0	1.0	1	upper	Verdana.ttf
754.26	n/a	REC_START	377130	n/a	LTP237	ltpFR	0	3	n/a	n/a	n/a	n/a	n/a	n/a	n/a	n/a	n/a	n/a	n/a
756.096	n/a	REC_WORD	378048	wordpools/wasnorm_wordpool_less_exclusions.txt	LTP237	ltpFR	0	3	-1	COMMITTEE	355	n/a	n/a	-1	n/a	n/a	n/a	n/a	n/a
756.908	n/a	REC_WORD	378454	wordpools/wasnorm_wordpool_less_exclusions.txt	LTP237	ltpFR	0	3	-1	RING	1193	n/a	n/a	-1	n/a	n/a	n/a	n/a	n/a
758.814	n/a	REC_WORD	379407	wordpools/wasnorm_wordpool_less_exclusions.txt	LTP237	ltpFR	0	3	-1	CANVAS	234	n/a	n/a	-1	n/a	n/a	n/a	n/a	n/a
760.594	n/a	REC_WORD	380297	wordpools/wasnorm_wordpool_less_exclusions.txt	LTP237	ltpFR	0	3	-1	DOCK	477	n/a	n/a	-1	n/a	n/a	n/a	n/a	n/a
779.982	n/a	REC_WORD	389991	wordpools/wasnorm_wordpool_less_exclusions.txt	LTP237	ltpFR	0	3	-1	SALAD	1224	n/a	n/a	-1	n/a	n/a	n/a	n/a	n/a
799.518	n/a	REC_WORD	399759	wordpools/wasnorm_wordpool_less_exclusions.txt	LTP237	ltpFR	0	3	-1	OFFICE	972	n/a	n/a	-1	n/a	n/a	n/a	n/a	n/a
834.264	n/a	WORD	417132	wordpools/wasnorm_wordpool_less_exclusions.txt	LTP237	ltpFR	0	4	-1	CANAL	226	n/a	n/a	-1	1.0	1.0	1	upper	Verdana.ttf
838.28	n/a	WORD	419140	wordpools/wasnorm_wordpool_less_exclusions.txt	LTP237	ltpFR	0	4	-1	LUNCH	849	n/a	n/a	-1	1.0	1.0	1	upper	Verdana.ttf
842.312	n/a	WORD	421156	wordpools/wasnorm_wordpool_less_exclusions.txt	LTP237	ltpFR	0	4	-1	MACHINE	852	n/a	n/a	-1	1.0	1.0	1	upper	Verdana.ttf
846.378	n/a	WORD	423189	wordpools/wasnorm_wordpool_less_exclusions.txt	LTP237	ltpFR	0	4	-1	IRON	744	n/a	n/a	-1	1.0	1.0	1	upper	Verdana.ttf
850.242	n/a	WORD	425121	wordpools/wasnorm_wordpool_less_exclusions.txt	LTP237	ltpFR	0	4	-1	FLASK	576	n/a	n/a	-1	1.0	1.0	1	upper	Verdana.ttf
854.424	n/a	WORD	427212	wordpools/wasnorm_wordpool_less_exclusions.txt	LTP237	ltpFR	0	4	-1	ROBE	1198	n/a	n/a	-1	1.0	1.0	1	upper	Verdana.ttf
858.424	n/a	WORD	429212	wordpools/wasnorm_wordpool_less_exclusions.txt	LTP237	ltpFR	0	4	-1	SUNRISE	1407	n/a	n/a	-1	1.0	1.0	1	upper	Verdana.ttf
862.338	n/a	WORD	431169	wordpools/wasnorm_wordpool_less_exclusions.txt	LTP237	ltpFR	0	4	-1	FIREMAN	569	n/a	n/a	-1	1.0	1.0	1	upper	Verdana.ttf
866.304	n/a	WORD	433152	wordpools/wasnorm_wordpool_less_exclusions.txt	LTP237	ltpFR	0	4	-1	CHARCOAL	281	n/a	n/a	-1	1.0	1.0	1	upper	Verdana.ttf
870.336	n/a	WORD	435168	wordpools/wasnorm_wordpool_less_exclusions.txt	LTP237	ltpFR	0	4	-1	SIRLOIN	1311	n/a	n/a	-1	1.0	1.0	1	upper	Verdana.ttf
874.184	n/a	WORD	437092	wordpools/wasnorm_wordpool_less_exclusions.txt	LTP237	ltpFR	0	4	-1	RECEPTIONIST	1174	n/a	n/a	-1	1.0	1.0	1	upper	Verdana.ttf
878.35	n/a	WORD	439175	wordpools/wasnorm_wordpool_less_exclusions.txt	LTP237	ltpFR	0	4	-1	LAKE	796	n/a	n/a	-1	1.0	1.0	1	upper	Verdana.ttf
882.282	n/a	WORD	441141	wordpools/wasnorm_wordpool_less_exclusions.txt	LTP237	ltpFR	0	4	-1	BUCKET	184	n/a	n/a	-1	1.0	1.0	1	upper	Verdana.ttf
886.18	n/a	WORD	443090	wordpools/wasnorm_wordpool_less_exclusions.txt	LTP237	ltpFR	0	4	-1	CLERK	321	n/a	n/a	-1	1.0	1.0	1	upper	Verdana.ttf
890.212	n/a	WORD	445106	wordpools/wasnorm_wordpool_less_exclusions.txt	LTP237	ltpFR	0	4	-1	SANDWICH	1232	n/a	n/a	-1	1.0	1.0	1	upper	Verdana.ttf
894.126	n/a	WORD	447063	wordpools/wasnorm_wordpool_less_exclusions.txt	LTP237	ltpFR	0	4	-1	EMPIRE	530	n/a	n/a	-1	1.0	1.0	1	upper	Verdana.ttf
900.068	n/a	REC_START	450034	n/a	LTP237	ltpFR	0	4	n/a	n/a	n/a	n/a	n/a	n/a	n/a	n/a	n/a	n/a	n/a
902.102	n/a	REC_WORD	451051	wordpools/wasnorm_wordpool_less_exclusions.txt	LTP237	ltpFR	0	4	-1	EMPIRE	530	n/a	n/a	-1	n/a	n/a	n/a	n/a	n/a
903.51	n/a	REC_WORD	451755	wordpools/wasnorm_wordpool_less_exclusions.txt	LTP237	ltpFR	0	4	-1	SANDWICH	1232	n/a	n/a	-1	n/a	n/a	n/a	n/a	n/a
905.326	n/a	REC_WORD	452663	wordpools/wasnorm_wordpool_less_exclusions.txt	LTP237	ltpFR	0	4	-1	CLERK	321	n/a	n/a	-1	n/a	n/a	n/a	n/a	n/a
906.528	n/a	REC_WORD	453264	wordpools/wasnorm_wordpool_less_exclusions.txt	LTP237	ltpFR	0	4	-1	RECEPTIONIST	1174	n/a	n/a	-1	n/a	n/a	n/a	n/a	n/a
909.846	n/a	REC_WORD	454923	wordpools/wasnorm_wordpool_less_exclusions.txt	LTP237	ltpFR	0	4	-1	CANAL	226	n/a	n/a	-1	n/a	n/a	n/a	n/a	n/a
914.654	n/a	REC_WORD	457327	wordpools/wasnorm_wordpool_less_exclusions.txt	LTP237	ltpFR	0	4	-1	LUNCH	849	n/a	n/a	-1	n/a	n/a	n/a	n/a	n/a
916.456	n/a	REC_WORD	458228	wordpools/wasnorm_wordpool_less_exclusions.txt	LTP237	ltpFR	0	4	-1	SUNRISE	1407	n/a	n/a	-1	n/a	n/a	n/a	n/a	n/a
1177.292	n/a	WORD	588646	wordpools/wasnorm_wordpool_less_exclusions.txt	LTP237	ltpFR	0	5	1	MAILMAN	858	n/a	n/a	1	0.422607421875	0.5869140625	0	upper	zerothre.ttf
1181.19	n/a	WORD	590595	wordpools/wasnorm_wordpool_less_exclusions.txt	LTP237	ltpFR	0	5	1	CHIEF	298	n/a	n/a	1	0.422607421875	0.5869140625	0	upper	zerothre.ttf
1185.34	n/a	WORD	592670	wordpools/wasnorm_wordpool_less_exclusions.txt	LTP237	ltpFR	0	5	1	LOOP	844	n/a	n/a	0	0.422607421875	0.5869140625	0	upper	zerothre.ttf
1189.304	n/a	WORD	594652	wordpools/wasnorm_wordpool_less_exclusions.txt	LTP237	ltpFR	0	5	1	CAGE	218	n/a	n/a	0	0.422607421875	0.5869140625	0	upper	zerothre.ttf
1193.304	n/a	WORD	596652	wordpools/wasnorm_wordpool_less_exclusions.txt	LTP237	ltpFR	0	5	1	MAMMAL	861	n/a	n/a	1	0.422607421875	0.5869140625	0	upper	zerothre.ttf
1197.218	n/a	WORD	598609	wordpools/wasnorm_wordpool_less_exclusions.txt	LTP237	ltpFR	0	5	1	UNCLE	1536	n/a	n/a	1	0.422607421875	0.5869140625	0	upper	zerothre.ttf
1201.1	n/a	WORD	600550	wordpools/wasnorm_wordpool_less_exclusions.txt	LTP237	ltpFR	0	5	1	COUNTY	389	n/a	n/a	0	0.422607421875	0.5869140625	0	upper	zerothre.ttf
1205.25	n/a	WORD	602625	wordpools/wasnorm_wordpool_less_exclusions.txt	LTP237	ltpFR	0	5	1	ROOF	1205	n/a	n/a	0	0.422607421875	0.5869140625	0	upper	zerothre.ttf
1209.13	n/a	WORD	604565	wordpools/wasnorm_wordpool_less_exclusions.txt	LTP237	ltpFR	0	5	1	CORPORATION	382	n/a	n/a	0	0.422607421875	0.5869140625	0	upper	zerothre.ttf
1212.978	n/a	WORD	606489	wordpools/wasnorm_wordpool_less_exclusions.txt	LTP237	ltpFR	0	5	1	MAILBOX	857	n/a	n/a	0	0.422607421875	0.5869140625	0	upper	zerothre.ttf
1216.926	n/a	WORD	608463	wordpools/wasnorm_wordpool_less_exclusions.txt	LTP237	ltpFR	0	5	1	ROBOT	1200	n/a	n/a	0	0.422607421875	0.5869140625	0	upper	zerothre.ttf
1220.742	n/a	WORD	610371	wordpools/wasnorm_wordpool_less_exclusions.txt	LTP237	ltpFR	0	5	1	DOCUMENT	479	n/a	n/a	0	0.422607421875	0.5869140625	0	upper	zerothre.ttf
1224.89	n/a	WORD	612445	wordpools/wasnorm_wordpool_less_exclusions.txt	LTP237	ltpFR	0	5	1	CHICK	296	n/a	n/a	1	0.422607421875	0.5869140625	0	upper	zerothre.ttf
1228.854	n/a	WORD	614427	wordpools/wasnorm_wordpool_less_exclusions.txt	LTP237	ltpFR	0	5	1	ROOSTER	1209	n/a	n/a	1	0.422607421875	0.5869140625	0	upper	zerothre.ttf
1232.72	n/a	WORD	616360	wordpools/wasnorm_wordpool_less_exclusions.txt	LTP237	ltpFR	0	5	1	CARPENTER	246	n/a	n/a	1	0.422607421875	0.5869140625	0	upper	zerothre.ttf
1236.586	n/a	WORD	618293	wordpools/wasnorm_wordpool_less_exclusions.txt	LTP237	ltpFR	0	5	1	STRING	1394	n/a	n/a	0	0.422607421875	0.5869140625	0	upper	zerothre.ttf
1242.292	n/a	REC_START	621146	n/a	LTP237	ltpFR	0	5	n/a	n/a	n/a	n/a	n/a	n/a	n/a	n/a	n/a	n/a	n/a
1244.138	n/a	REC_WORD	622069	wordpools/wasnorm_wordpool_less_exclusions.txt	LTP237	ltpFR	0	5	1	MAMMAL	861	n/a	n/a	1	n/a	n/a	n/a	n/a	n/a
1245.658	n/a	REC_WORD	622829	wordpools/wasnorm_wordpool_less_exclusions.txt	LTP237	ltpFR	0	5	1	MAILMAN	858	n/a	n/a	1	n/a	n/a	n/a	n/a	n/a
1248.108	n/a	REC_WORD	624054	wordpools/wasnorm_wordpool_less_exclusions.txt	LTP237	ltpFR	0	5	1	ROOF	1205	n/a	n/a	0	n/a	n/a	n/a	n/a	n/a
1251.046	n/a	REC_WORD	625523	wordpools/wasnorm_wordpool_less_exclusions.txt	LTP237	ltpFR	0	5	1	CORPORATION	382	n/a	n/a	0	n/a	n/a	n/a	n/a	n/a
1252.134	n/a	REC_WORD	626067	wordpools/wasnorm_wordpool_less_exclusions.txt	LTP237	ltpFR	0	5	1	UNCLE	1536	n/a	n/a	1	n/a	n/a	n/a	n/a	n/a
1258.944	n/a	REC_WORD	629472	wordpools/wasnorm_wordpool_less_exclusions.txt	LTP237	ltpFR	0	5	1	STRING	1394	n/a	n/a	0	n/a	n/a	n/a	n/a	n/a
1280.002	n/a	REC_WORD	640001	wordpools/wasnorm_wordpool_less_exclusions.txt	LTP237	ltpFR	0	5	1	CARPENTER	246	n/a	n/a	1	n/a	n/a	n/a	n/a	n/a
1288.688	n/a	REC_WORD	644344	wordpools/wasnorm_wordpool_less_exclusions.txt	LTP237	ltpFR	0	5	1	CHICK	296	n/a	n/a	1	n/a	n/a	n/a	n/a	n/a
1308.24	n/a	REC_WORD	654120	wordpools/wasnorm_wordpool_less_exclusions.txt	LTP237	ltpFR	0	5	1	COUNTY	389	n/a	n/a	0	n/a	n/a	n/a	n/a	n/a
1352.846	n/a	WORD	676423	wordpools/wasnorm_wordpool_less_exclusions.txt	LTP237	ltpFR	0	6	1	TORTOISE	1486	n/a	n/a	3	0.422607421875	0.5869140625	0	upper	zerothre.ttf
1354.47	n/a	KEY_MSG	677235	n/a	LTP237	ltpFR	0	6	n/a	n/a	n/a	n/a	n/a	n/a	n/a	n/a	n/a	n/a	n/a
1356.98	n/a	WORD	678490	wordpools/wasnorm_wordpool_less_exclusions.txt	LTP237	ltpFR	0	6	1	PLANT	1083	n/a	n/a	1	0.422607421875	0.5869140625	0	upper	zerothre.ttf
1361.144	n/a	WORD	680572	wordpools/wasnorm_wordpool_less_exclusions.txt	LTP237	ltpFR	0	6	1	MINT	898	n/a	n/a	0	0.422607421875	0.5869140625	0	upper	zerothre.ttf
1365.126	n/a	WORD	682563	wordpools/wasnorm_wordpool_less_exclusions.txt	LTP237	ltpFR	0	6	1	BANANA	77	n/a	n/a	0	0.422607421875	0.5869140625	0	upper	zerothre.ttf
1369.258	n/a	WORD	684629	wordpools/wasnorm_wordpool_less_exclusions.txt	LTP237	ltpFR	0	6	1	PEAR	1033	n/a	n/a	0	0.422607421875	0.5869140625	0	upper	zerothre.ttf
1373.192	n/a	WORD	686596	wordpools/wasnorm_wordpool_less_exclusions.txt	LTP237	ltpFR	0	6	1	BANK	83	n/a	n/a	0	0.422607421875	0.5869140625	0	upper	zerothre.ttf
1377.172	n/a	WORD	688586	wordpools/wasnorm_wordpool_less_exclusions.txt	LTP237	ltpFR	0	6	1	PLAID	1080	n/a	n/a	0	0.422607421875	0.5869140625	0	upper	zerothre.ttf
1381.104	n/a	WORD	690552	wordpools/wasnorm_wordpool_less_exclusions.txt	LTP237	ltpFR	0	6	1	VELVET	1555	n/a	n/a	0	0.422607421875	0.5869140625	0	upper	zerothre.ttf
1385.036	n/a	WORD	692518	wordpools/wasnorm_wordpool_less_exclusions.txt	LTP237	ltpFR	0	6	1	ZUCCHINI	1638	n/a	n/a	1	0.422607421875	0.5869140625	0	upper	zerothre.ttf
1389.068	n/a	WORD	694534	wordpools/wasnorm_wordpool_less_exclusions.txt	LTP237	ltpFR	0	6	1	BERRY	122	n/a	n/a	1	0.422607421875	0.5869140625	0	upper	zerothre.ttf
1393.218	n/a	WORD	696609	wordpools/wasnorm_wordpool_less_exclusions.txt	LTP237	ltpFR	0	6	1	SOCK	1339	n/a	n/a	0	0.422607421875	0.5869140625	0	upper	zerothre.ttf
1397.316	n/a	WORD	698658	wordpools/wasnorm_wordpool_less_exclusions.txt	LTP237	ltpFR	0	6	1	PICNIC	1060	n/a	n/a	0	0.422607421875	0.5869140625	0	upper	zerothre.ttf
1401.182	n/a	WORD	700591	wordpools/wasnorm_wordpool_less_exclusions.txt	LTP237	ltpFR	0	6	1	FEMALE	559	n/a	n/a	1	0.422607421875	0.5869140625	0	upper	zerothre.ttf
1405.364	n/a	WORD	702682	wordpools/wasnorm_wordpool_less_exclusions.txt	LTP237	ltpFR	0	6	1	COLT	349	n/a	n/a	1	0.422607421875	0.5869140625	0	upper	zerothre.ttf
1409.212	n/a	WORD	704606	wordpools/wasnorm_wordpool_less_exclusions.txt	LTP237	ltpFR	0	6	1	MULE	931	n/a	n/a	1	0.422607421875	0.5869140625	0	upper	zerothre.ttf
1413.194	n/a	WORD	706597	wordpools/wasnorm_wordpool_less_exclusions.txt	LTP237	ltpFR	0	6	1	PLUM	1090	n/a	n/a	1	0.422607421875	0.5869140625	0	upper	zerothre.ttf
1419.05	n/a	REC_START	709525	n/a	LTP237	ltpFR	0	6	n/a	n/a	n/a	n/a	n/a	n/a	n/a	n/a	n/a	n/a	n/a
1421.316	n/a	REC_WORD	710658	wordpools/wasnorm_wordpool_less_exclusions.txt	LTP237	ltpFR	0	6	1	PLUM	1090	n/a	n/a	1	n/a	n/a	n/a	n/a	n/a
1422.688	n/a	REC_WORD	711344	wordpools/wasnorm_wordpool_less_exclusions.txt	LTP237	ltpFR	0	6	1	BANANA	77	n/a	n/a	0	n/a	n/a	n/a	n/a	n/a
1424.892	n/a	REC_WORD	712446	wordpools/wasnorm_wordpool_less_exclusions.txt	LTP237	ltpFR	0	6	1	PEAR	1033	n/a	n/a	0	n/a	n/a	n/a	n/a	n/a
1431.768	n/a	REC_WORD	715884	wordpools/wasnorm_wordpool_less_exclusions.txt	LTP237	ltpFR	0	6	1	BERRY	122	n/a	n/a	1	n/a	n/a	n/a	n/a	n/a
1445.486	n/a	REC_WORD	722743	wordpools/wasnorm_wordpool_less_exclusions.txt	LTP237	ltpFR	0	6	1	FEMALE	559	n/a	n/a	1	n/a	n/a	n/a	n/a	n/a
1490.462	n/a	REC_WORD	745231	wordpools/wasnorm_wordpool_less_exclusions.txt	LTP237	ltpFR	0	6	1	PLANT	1083	n/a	n/a	1	n/a	n/a	n/a	n/a	n/a
1501.514	n/a	WORD	750757	wordpools/wasnorm_wordpool_less_exclusions.txt	LTP237	ltpFR	0	7	1	BATTERY	101	n/a	n/a	0	0.422607421875	0.5869140625	0	upper	zerothre.ttf
1505.414	n/a	WORD	752707	wordpools/wasnorm_wordpool_less_exclusions.txt	LTP237	ltpFR	0	7	1	AUTOMOBILE	62	n/a	n/a	0	0.422607421875	0.5869140625	0	upper	zerothre.ttf
1509.578	n/a	WORD	754789	wordpools/wasnorm_wordpool_less_exclusions.txt	LTP237	ltpFR	0	7	1	SKILLET	1317	n/a	n/a	0	0.422607421875	0.5869140625	0	upper	zerothre.ttf
1513.528	n/a	WORD	756764	wordpools/wasnorm_wordpool_less_exclusions.txt	LTP237	ltpFR	0	7	1	CATERPILLAR	259	n/a	n/a	1	0.422607421875	0.5869140625	0	upper	zerothre.ttf
1517.542	n/a	WORD	758771	wordpools/wasnorm_wordpool_less_exclusions.txt	LTP237	ltpFR	0	7	1	IGLOO	734	n/a	n/a	0	0.422607421875	0.5869140625	0	upper	zerothre.ttf
1521.674	n/a	WORD	760837	wordpools/wasnorm_wordpool_less_exclusions.txt	LTP237	ltpFR	0	7	1	BUSH	202	n/a	n/a	1	0.422607421875	0.5869140625	0	upper	zerothre.ttf
1525.606	n/a	WORD	762803	wordpools/wasnorm_wordpool_less_exclusions.txt	LTP237	ltpFR	0	7	1	SERPENT	1270	n/a	n/a	1	0.422607421875	0.5869140625	0	upper	zerothre.ttf
1529.538	n/a	WORD	764769	wordpools/wasnorm_wordpool_less_exclusions.txt	LTP237	ltpFR	0	7	1	RACK	1154	n/a	n/a	0	0.422607421875	0.5869140625	0	upper	zerothre.ttf
1533.47	n/a	WORD	766735	wordpools/wasnorm_wordpool_less_exclusions.txt	LTP237	ltpFR	0	7	1	TOURIST	1488	n/a	n/a	1	0.422607421875	0.5869140625	0	upper	zerothre.ttf
1537.452	n/a	WORD	768726	wordpools/wasnorm_wordpool_less_exclusions.txt	LTP237	ltpFR	0	7	1	PONY	1102	n/a	n/a	1	0.422607421875	0.5869140625	0	upper	zerothre.ttf
1541.45	n/a	WORD	770725	wordpools/wasnorm_wordpool_less_exclusions.txt	LTP237	ltpFR	0	7	1	CART	250	n/a	n/a	0	0.422607421875	0.5869140625	0	upper	zerothre.ttf
1545.566	n/a	WORD	772783	wordpools/wasnorm_wordpool_less_exclusions.txt	LTP237	ltpFR	0	7	1	LITTER	832	n/a	n/a	0	0.422607421875	0.5869140625	0	upper	zerothre.ttf
1549.716	n/a	WORD	774858	wordpools/wasnorm_wordpool_less_exclusions.txt	LTP237	ltpFR	0	7	1	TWIG	1527	n/a	n/a	0	0.422607421875	0.5869140625	0	upper	zerothre.ttf
1553.896	n/a	WORD	776948	wordpools/wasnorm_wordpool_less_exclusions.txt	LTP237	ltpFR	0	7	1	REFRIGERATOR	1179	n/a	n/a	0	0.422607421875	0.5869140625	0	upper	zerothre.ttf
1557.762	n/a	WORD	778881	wordpools/wasnorm_wordpool_less_exclusions.txt	LTP237	ltpFR	0	7	1	EAGLE	512	n/a	n/a	1	0.422607421875	0.5869140625	0	upper	zerothre.ttf
1561.944	n/a	WORD	780972	wordpools/wasnorm_wordpool_less_exclusions.txt	LTP237	ltpFR	0	7	1	FINGER	567	n/a	n/a	0	0.422607421875	0.5869140625	0	upper	zerothre.ttf
1567.752	n/a	REC_START	783876	n/a	LTP237	ltpFR	0	7	n/a	n/a	n/a	n/a	n/a	n/a	n/a	n/a	n/a	n/a	n/a
1569.776	n/a	REC_WORD	784888	wordpools/wasnorm_wordpool_less_exclusions.txt	LTP237	ltpFR	0	7	1	FINGER	567	n/a	n/a	0	n/a	n/a	n/a	n/a	n/a
1570.954	n/a	REC_WORD	785477	wordpools/wasnorm_wordpool_less_exclusions.txt	LTP237	ltpFR	0	7	1	BATTERY	101	n/a	n/a	0	n/a	n/a	n/a	n/a	n/a
1572.646	n/a	REC_WORD	786323	wordpools/wasnorm_wordpool_less_exclusions.txt	LTP237	ltpFR	0	7	1	AUTOMOBILE	62	n/a	n/a	0	n/a	n/a	n/a	n/a	n/a
1574.68	n/a	REC_WORD	787340	wordpools/wasnorm_wordpool_less_exclusions.txt	LTP237	ltpFR	0	7	1	SERPENT	1270	n/a	n/a	1	n/a	n/a	n/a	n/a	n/a
1577.31	n/a	REC_WORD	788655	wordpools/wasnorm_wordpool_less_exclusions.txt	LTP237	ltpFR	0	7	1	TWIG	1527	n/a	n/a	0	n/a	n/a	n/a	n/a	n/a
1584.36	n/a	REC_WORD	792180	wordpools/wasnorm_wordpool_less_exclusions.txt	LTP237	ltpFR	0	7	1	REFRIGERATOR	1179	n/a	n/a	0	n/a	n/a	n/a	n/a	n/a
1629.694	n/a	REC_WORD	814847	wordpools/wasnorm_wordpool_less_exclusions.txt	LTP237	ltpFR	0	7	1	BUSH	202	n/a	n/a	1	n/a	n/a	n/a	n/a	n/a
1647.222	n/a	WORD	823611	wordpools/wasnorm_wordpool_less_exclusions.txt	LTP237	ltpFR	0	8	1	MINK	897	n/a	n/a	0	0.422607421875	0.5869140625	0	upper	zerothre.ttf
1651.42	n/a	WORD	825710	wordpools/wasnorm_wordpool_less_exclusions.txt	LTP237	ltpFR	0	8	1	NICOTINE	951	n/a	n/a	0	0.422607421875	0.5869140625	0	upper	zerothre.ttf
1655.52	n/a	WORD	827760	wordpools/wasnorm_wordpool_less_exclusions.txt	LTP237	ltpFR	0	8	1	CIGAR	308	n/a	n/a	0	0.422607421875	0.5869140625	0	upper	zerothre.ttf
1659.384	n/a	WORD	829692	wordpools/wasnorm_wordpool_less_exclusions.txt	LTP237	ltpFR	0	8	1	TRIANGLE	1504	n/a	n/a	0	0.422607421875	0.5869140625	0	upper	zerothre.ttf
1663.568	n/a	WORD	831784	wordpools/wasnorm_wordpool_less_exclusions.txt	LTP237	ltpFR	0	8	1	ANTELOPE	27	n/a	n/a	1	0.422607421875	0.5869140625	0	upper	zerothre.ttf
1667.782	n/a	WORD	833891	wordpools/wasnorm_wordpool_less_exclusions.txt	LTP237	ltpFR	0	8	1	CRAYON	401	n/a	n/a	0	0.422607421875	0.5869140625	0	upper	zerothre.ttf
1671.998	n/a	WORD	835999	wordpools/wasnorm_wordpool_less_exclusions.txt	LTP237	ltpFR	0	8	1	POSSUM	1112	n/a	n/a	1	0.422607421875	0.5869140625	0	upper	zerothre.ttf
1676.116	n/a	WORD	838058	wordpools/wasnorm_wordpool_less_exclusions.txt	LTP237	ltpFR	0	8	1	BISON	131	n/a	n/a	1	0.422607421875	0.5869140625	0	upper	zerothre.ttf
1680.298	n/a	WORD	840149	wordpools/wasnorm_wordpool_less_exclusions.txt	LTP237	ltpFR	0	8	1	FAUCET	555	n/a	n/a	0	0.422607421875	0.5869140625	0	upper	zerothre.ttf
1684.13	n/a	WORD	842065	wordpools/wasnorm_wordpool_less_exclusions.txt	LTP237	ltpFR	0	8	1	MARKER	870	n/a	n/a	0	0.422607421875	0.5869140625	0	upper	zerothre.ttf
1688.244	n/a	WORD	844122	wordpools/wasnorm_wordpool_less_exclusions.txt	LTP237	ltpFR	0	8	1	COOLER	375	n/a	n/a	0	0.422607421875	0.5869140625	0	upper	zerothre.ttf
1692.36	n/a	WORD	846180	wordpools/wasnorm_wordpool_less_exclusions.txt	LTP237	ltpFR	0	8	1	ZOO	1637	n/a	n/a	0	0.422607421875	0.5869140625	0	upper	zerothre.ttf
1696.26	n/a	WORD	848130	wordpools/wasnorm_wordpool_less_exclusions.txt	LTP237	ltpFR	0	8	1	GROUND	666	n/a	n/a	0	0.422607421875	0.5869140625	0	upper	zerothre.ttf
1700.324	n/a	WORD	850162	wordpools/wasnorm_wordpool_less_exclusions.txt	LTP237	ltpFR	0	8	1	ISLAND	745	n/a	n/a	0	0.422607421875	0.5869140625	0	upper	zerothre.ttf
1704.506	n/a	WORD	852253	wordpools/wasnorm_wordpool_less_exclusions.txt	LTP237	ltpFR	0	8	1	RIBBON	1189	n/a	n/a	0	0.422607421875	0.5869140625	0	upper	zerothre.ttf
1708.472	n/a	WORD	854236	wordpools/wasnorm_wordpool_less_exclusions.txt	LTP237	ltpFR	0	8	1	PORCUPINE	1107	n/a	n/a	1	0.422607421875	0.5869140625	0	upper	zerothre.ttf
1714.496	n/a	REC_START	857248	n/a	LTP237	ltpFR	0	8	n/a	n/a	n/a	n/a	n/a	n/a	n/a	n/a	n/a	n/a	n/a
1716.142	n/a	REC_WORD	858071	wordpools/wasnorm_wordpool_less_exclusions.txt	LTP237	ltpFR	0	8	1	PORCUPINE	1107	n/a	n/a	1	n/a	n/a	n/a	n/a	n/a
1717.464	n/a	REC_WORD	858732	wordpools/wasnorm_wordpool_less_exclusions.txt	LTP237	ltpFR	0	8	1	ANTELOPE	27	n/a	n/a	1	n/a	n/a	n/a	n/a	n/a
1719.738	n/a	REC_WORD	859869	wordpools/wasnorm_wordpool_less_exclusions.txt	LTP237	ltpFR	0	8	1	NICOTINE	951	n/a	n/a	0	n/a	n/a	n/a	n/a	n/a
1721.186	n/a	REC_WORD	860593	wordpools/wasnorm_wordpool_less_exclusions.txt	LTP237	ltpFR	0	8	1	CIGAR	308	n/a	n/a	0	n/a	n/a	n/a	n/a	n/a
1745.002	n/a	REC_WORD	872501	wordpools/wasnorm_wordpool_less_exclusions.txt	LTP237	ltpFR	0	8	1	ISLAND	745	n/a	n/a	0	n/a	n/a	n/a	n/a	n/a
1784.246	n/a	REC_WORD	892123	wordpools/wasnorm_wordpool_less_exclusions.txt	LTP237	ltpFR	0	8	1	GROUND	666	n/a	n/a	0	n/a	n/a	n/a	n/a	n/a
1794.618	n/a	WORD	897309	wordpools/wasnorm_wordpool_less_exclusions.txt	LTP237	ltpFR	0	9	0	SIDEWALK	1303	n/a	n/a	1	0.57763671875	0.412841796875	1	lower	amplitud.ttf
1798.566	n/a	WORD	899283	wordpools/wasnorm_wordpool_less_exclusions.txt	LTP237	ltpFR	0	9	0	FEAST	556	n/a	n/a	1	0.57763671875	0.412841796875	1	lower	amplitud.ttf
1802.448	n/a	WORD	901224	wordpools/wasnorm_wordpool_less_exclusions.txt	LTP237	ltpFR	0	9	0	BRAKE	166	n/a	n/a	1	0.57763671875	0.412841796875	1	lower	amplitud.ttf
1806.614	n/a	WORD	903307	wordpools/wasnorm_wordpool_less_exclusions.txt	LTP237	ltpFR	0	9	0	RUST	1219	n/a	n/a	0	0.57763671875	0.412841796875	1	lower	amplitud.ttf
1810.53	n/a	WORD	905265	wordpools/wasnorm_wordpool_less_exclusions.txt	LTP237	ltpFR	0	9	0	THORN	1459	n/a	n/a	0	0.57763671875	0.412841796875	1	lower	amplitud.ttf
1814.744	n/a	WORD	907372	wordpools/wasnorm_wordpool_less_exclusions.txt	LTP237	ltpFR	0	9	0	APARTMENT	30	n/a	n/a	1	0.57763671875	0.412841796875	1	lower	amplitud.ttf
1818.76	n/a	WORD	909380	wordpools/wasnorm_wordpool_less_exclusions.txt	LTP237	ltpFR	0	9	0	COTTAGE	384	n/a	n/a	1	0.57763671875	0.412841796875	1	lower	amplitud.ttf
1822.674	n/a	WORD	911337	wordpools/wasnorm_wordpool_less_exclusions.txt	LTP237	ltpFR	0	9	0	BUTTER	205	n/a	n/a	0	0.57763671875	0.412841796875	1	lower	amplitud.ttf
1826.724	n/a	WORD	913362	wordpools/wasnorm_wordpool_less_exclusions.txt	LTP237	ltpFR	0	9	0	TOASTER	1472	n/a	n/a	1	0.57763671875	0.412841796875	1	lower	amplitud.ttf
1830.74	n/a	WORD	915370	wordpools/wasnorm_wordpool_less_exclusions.txt	LTP237	ltpFR	0	9	0	DOUGHNUT	490	n/a	n/a	0	0.57763671875	0.412841796875	1	lower	amplitud.ttf
1834.804	n/a	WORD	917402	wordpools/wasnorm_wordpool_less_exclusions.txt	LTP237	ltpFR	0	9	0	MONARCH	906	n/a	n/a	0	0.57763671875	0.412841796875	1	lower	amplitud.ttf
1838.72	n/a	WORD	919360	wordpools/wasnorm_wordpool_less_exclusions.txt	LTP237	ltpFR	0	9	0	MEDAL	885	n/a	n/a	0	0.57763671875	0.412841796875	1	lower	amplitud.ttf
1842.584	n/a	WORD	921292	wordpools/wasnorm_wordpool_less_exclusions.txt	LTP237	ltpFR	0	9	0	CEILING	265	n/a	n/a	1	0.57763671875	0.412841796875	1	lower	amplitud.ttf
1846.75	n/a	WORD	923375	wordpools/wasnorm_wordpool_less_exclusions.txt	LTP237	ltpFR	0	9	0	MICROSCOPE	891	n/a	n/a	0	0.57763671875	0.412841796875	1	lower	amplitud.ttf
1850.682	n/a	WORD	925341	wordpools/wasnorm_wordpool_less_exclusions.txt	LTP237	ltpFR	0	9	0	TREASURE	1500	n/a	n/a	1	0.57763671875	0.412841796875	1	lower	amplitud.ttf
1854.714	n/a	WORD	927357	wordpools/wasnorm_wordpool_less_exclusions.txt	LTP237	ltpFR	0	9	0	PALACE	1006	n/a	n/a	1	0.57763671875	0.412841796875	1	lower	amplitud.ttf
1860.654	n/a	REC_START	930327	n/a	LTP237	ltpFR	0	9	n/a	n/a	n/a	n/a	n/a	n/a	n/a	n/a	n/a	n/a	n/a
1862.39	n/a	REC_WORD	931195	wordpools/wasnorm_wordpool_less_exclusions.txt	LTP237	ltpFR	0	9	0	PALACE	1006	n/a	n/a	1	n/a	n/a	n/a	n/a	n/a
1863.176	n/a	REC_WORD	931588	wordpools/wasnorm_wordpool_less_exclusions.txt	LTP237	ltpFR	0	9	0	MICROSCOPE	891	n/a	n/a	0	n/a	n/a	n/a	n/a	n/a
1865.874	n/a	REC_WORD	932937	wordpools/wasnorm_wordpool_less_exclusions.txt	LTP237	ltpFR	0	9	0	CEILING	265	n/a	n/a	1	n/a	n/a	n/a	n/a	n/a
1867.978	n/a	REC_WORD	933989	wordpools/wasnorm_wordpool_less_exclusions.txt	LTP237	ltpFR	0	9	0	TREASURE	1500	n/a	n/a	1	n/a	n/a	n/a	n/a	n/a
1872.596	n/a	REC_WORD	936298	wordpools/wasnorm_wordpool_less_exclusions.txt	LTP237	ltpFR	0	9	0	FEAST	556	n/a	n/a	1	n/a	n/a	n/a	n/a	n/a
1875.372	n/a	REC_WORD	937686	wordpools/wasnorm_wordpool_less_exclusions.txt	LTP237	ltpFR	0	9	0	APARTMENT	30	n/a	n/a	1	n/a	n/a	n/a	n/a	n/a
1886.752	n/a	REC_WORD	943376	wordpools/wasnorm_wordpool_less_exclusions.txt	LTP237	ltpFR	0	9	0	THORN	1459	n/a	n/a	0	n/a	n/a	n/a	n/a	n/a
1892.962	n/a	REC_WORD	946481	wordpools/wasnorm_wordpool_less_exclusions.txt	LTP237	ltpFR	0	9	0	TOASTER	1472	n/a	n/a	1	n/a	n/a	n/a	n/a	n/a
1940.476	n/a	WORD	970238	wordpools/wasnorm_wordpool_less_exclusions.txt	LTP237	ltpFR	0	10	0	FRAGRANCE	599	n/a	n/a	0	0.57763671875	0.412841796875	1	lower	amplitud.ttf
1944.606	n/a	WORD	972303	wordpools/wasnorm_wordpool_less_exclusions.txt	LTP237	ltpFR	0	10	0	NIECE	952	n/a	n/a	1	0.57763671875	0.412841796875	1	lower	amplitud.ttf
1948.64	n/a	WORD	974320	wordpools/wasnorm_wordpool_less_exclusions.txt	LTP237	ltpFR	0	10	0	COUSIN	392	n/a	n/a	1	0.57763671875	0.412841796875	1	lower	amplitud.ttf
1952.788	n/a	WORD	976394	wordpools/wasnorm_wordpool_less_exclusions.txt	LTP237	ltpFR	0	10	0	ELECTRICIAN	521	n/a	n/a	1	0.57763671875	0.412841796875	1	lower	amplitud.ttf
1956.686	n/a	WORD	978343	wordpools/wasnorm_wordpool_less_exclusions.txt	LTP237	ltpFR	0	10	0	OPERATOR	979	n/a	n/a	1	0.57763671875	0.412841796875	1	lower	amplitud.ttf
1960.586	n/a	WORD	980293	wordpools/wasnorm_wordpool_less_exclusions.txt	LTP237	ltpFR	0	10	0	CHEMICAL	291	n/a	n/a	0	0.57763671875	0.412841796875	1	lower	amplitud.ttf
1964.734	n/a	WORD	982367	wordpools/wasnorm_wordpool_less_exclusions.txt	LTP237	ltpFR	0	10	0	VETERAN	1561	n/a	n/a	1	0.57763671875	0.412841796875	1	lower	amplitud.ttf
1968.716	n/a	WORD	984358	wordpools/wasnorm_wordpool_less_exclusions.txt	LTP237	ltpFR	0	10	0	COMPASS	358	n/a	n/a	0	0.57763671875	0.412841796875	1	lower	amplitud.ttf
1972.564	n/a	WORD	986282	wordpools/wasnorm_wordpool_less_exclusions.txt	LTP237	ltpFR	0	10	0	PLUMBER	1091	n/a	n/a	1	0.57763671875	0.412841796875	1	lower	amplitud.ttf
1976.714	n/a	WORD	988357	wordpools/wasnorm_wordpool_less_exclusions.txt	LTP237	ltpFR	0	10	0	SPICE	1350	n/a	n/a	0	0.57763671875	0.412841796875	1	lower	amplitud.ttf
1980.912	n/a	WORD	990456	wordpools/wasnorm_wordpool_less_exclusions.txt	LTP237	ltpFR	0	10	0	MAPLE	866	n/a	n/a	0	0.57763671875	0.412841796875	1	lower	amplitud.ttf
1984.96	n/a	WORD	992480	wordpools/wasnorm_wordpool_less_exclusions.txt	LTP237	ltpFR	0	10	0	CHEMIST	292	n/a	n/a	1	0.57763671875	0.412841796875	1	lower	amplitud.ttf
1988.86	n/a	WORD	994430	wordpools/wasnorm_wordpool_less_exclusions.txt	LTP237	ltpFR	0	10	0	GARLIC	624	n/a	n/a	0	0.57763671875	0.412841796875	1	lower	amplitud.ttf
1992.79	n/a	WORD	996395	wordpools/wasnorm_wordpool_less_exclusions.txt	LTP237	ltpFR	0	10	0	VINEGAR	1569	n/a	n/a	0	0.57763671875	0.412841796875	1	lower	amplitud.ttf
1996.64	n/a	WORD	998320	wordpools/wasnorm_wordpool_less_exclusions.txt	LTP237	ltpFR	0	10	0	MARINE	869	n/a	n/a	1	0.57763671875	0.412841796875	1	lower	amplitud.ttf
2000.74	n/a	WORD	1000370	wordpools/wasnorm_wordpool_less_exclusions.txt	LTP237	ltpFR	0	10	0	DAM	436	n/a	n/a	1	0.57763671875	0.412841796875	1	lower	amplitud.ttf
2006.712	n/a	REC_START	1003356	n/a	LTP237	ltpFR	0	10	n/a	n/a	n/a	n/a	n/a	n/a	n/a	n/a	n/a	n/a	n/a
2008.652	n/a	REC_WORD	1004326	wordpools/wasnorm_wordpool_less_exclusions.txt	LTP237	ltpFR	0	10	0	DAM	436	n/a	n/a	1	n/a	n/a	n/a	n/a	n/a
2009.55	n/a	REC_WORD	1004775	wordpools/wasnorm_wordpool_less_exclusions.txt	LTP237	ltpFR	0	10	0	MARINE	869	n/a	n/a	1	n/a	n/a	n/a	n/a	n/a
2011.83	n/a	REC_WORD	1005915	wordpools/wasnorm_wordpool_less_exclusions.txt	LTP237	ltpFR	0	10	0	VINEGAR	1569	n/a	n/a	0	n/a	n/a	n/a	n/a	n/a
2013.228	n/a	REC_WORD	1006614	wordpools/wasnorm_wordpool_less_exclusions.txt	LTP237	ltpFR	0	10	0	SPICE	1350	n/a	n/a	0	n/a	n/a	n/a	n/a	n/a
2015.188	n/a	REC_WORD	1007594	wordpools/wasnorm_wordpool_less_exclusions.txt	LTP237	ltpFR	0	10	0	FRAGRANCE	599	n/a	n/a	0	n/a	n/a	n/a	n/a	n/a
2017.664	n/a	REC_WORD	1008832	wordpools/wasnorm_wordpool_less_exclusions.txt	LTP237	ltpFR	0	10	0	OPERATOR	979	n/a	n/a	1	n/a	n/a	n/a	n/a	n/a
2019.628	n/a	REC_WORD	1009814	wordpools/wasnorm_wordpool_less_exclusions.txt	LTP237	ltpFR	0	10	0	CHEMIST	292	n/a	n/a	1	n/a	n/a	n/a	n/a	n/a
2022.268	n/a	REC_WORD	1011134	wordpools/wasnorm_wordpool_less_exclusions.txt	LTP237	ltpFR	0	10	0	NIECE	952	n/a	n/a	1	n/a	n/a	n/a	n/a	n/a
2034.746	n/a	REC_WORD	1017373	wordpools/wasnorm_wordpool_less_exclusions.txt	LTP237	ltpFR	0	10	0	VETERAN	1561	n/a	n/a	1	n/a	n/a	n/a	n/a	n/a
2064.71	n/a	REC_WORD	1032355	wordpools/wasnorm_wordpool_less_exclusions.txt	LTP237	ltpFR	0	10	0	PLUMBER	1091	n/a	n/a	1	n/a	n/a	n/a	n/a	n/a
2086.718	n/a	WORD	1043359	wordpools/wasnorm_wordpool_less_exclusions.txt	LTP237	ltpFR	0	11	0	RAIL	1161	n/a	n/a	1	0.57763671875	0.412841796875	1	lower	amplitud.ttf
2090.898	n/a	WORD	1045449	wordpools/wasnorm_wordpool_less_exclusions.txt	LTP237	ltpFR	0	11	0	COD	340	n/a	n/a	0	0.57763671875	0.412841796875	1	lower	amplitud.ttf
2094.814	n/a	WORD	1047407	wordpools/wasnorm_wordpool_less_exclusions.txt	LTP237	ltpFR	0	11	0	BRANCH	168	n/a	n/a	0	0.57763671875	0.412841796875	1	lower	amplitud.ttf
2098.796	n/a	WORD	1049398	wordpools/wasnorm_wordpool_less_exclusions.txt	LTP237	ltpFR	0	11	0	SILVERWARE	1308	n/a	n/a	0	0.57763671875	0.412841796875	1	lower	amplitud.ttf
2102.978	n/a	WORD	1051489	wordpools/wasnorm_wordpool_less_exclusions.txt	LTP237	ltpFR	0	11	0	PEDESTRIAN	1038	n/a	n/a	1	0.57763671875	0.412841796875	1	lower	amplitud.ttf
2106.926	n/a	WORD	1053463	wordpools/wasnorm_wordpool_less_exclusions.txt	LTP237	ltpFR	0	11	0	TILE	1468	n/a	n/a	0	0.57763671875	0.412841796875	1	lower	amplitud.ttf
2110.91	n/a	WORD	1055455	wordpools/wasnorm_wordpool_less_exclusions.txt	LTP237	ltpFR	0	11	0	MONSTER	912	n/a	n/a	1	0.57763671875	0.412841796875	1	lower	amplitud.ttf
2115.01	n/a	WORD	1057505	wordpools/wasnorm_wordpool_less_exclusions.txt	LTP237	ltpFR	0	11	0	SEA	1259	n/a	n/a	1	0.57763671875	0.412841796875	1	lower	amplitud.ttf
2118.84	n/a	WORD	1059420	wordpools/wasnorm_wordpool_less_exclusions.txt	LTP237	ltpFR	0	11	0	CHEESE	289	n/a	n/a	1	0.57763671875	0.412841796875	1	lower	amplitud.ttf
2122.772	n/a	WORD	1061386	wordpools/wasnorm_wordpool_less_exclusions.txt	LTP237	ltpFR	0	11	0	PILOT	1070	n/a	n/a	1	0.57763671875	0.412841796875	1	lower	amplitud.ttf
2126.97	n/a	WORD	1063485	wordpools/wasnorm_wordpool_less_exclusions.txt	LTP237	ltpFR	0	11	0	FLY	586	n/a	n/a	0	0.57763671875	0.412841796875	1	lower	amplitud.ttf
2130.852	n/a	WORD	1065426	wordpools/wasnorm_wordpool_less_exclusions.txt	LTP237	ltpFR	0	11	0	BOYFRIEND	162	n/a	n/a	1	0.57763671875	0.412841796875	1	lower	amplitud.ttf
2134.784	n/a	WORD	1067392	wordpools/wasnorm_wordpool_less_exclusions.txt	LTP237	ltpFR	0	11	0	ASSOCIATE	49	n/a	n/a	1	0.57763671875	0.412841796875	1	lower	amplitud.ttf
2138.816	n/a	WORD	1069408	wordpools/wasnorm_wordpool_less_exclusions.txt	LTP237	ltpFR	0	11	0	ACORN	3	n/a	n/a	0	0.57763671875	0.412841796875	1	lower	amplitud.ttf
2142.764	n/a	WORD	1071382	wordpools/wasnorm_wordpool_less_exclusions.txt	LTP237	ltpFR	0	11	0	DRUM	502	n/a	n/a	1	0.57763671875	0.412841796875	1	lower	amplitud.ttf
2146.862	n/a	WORD	1073431	wordpools/wasnorm_wordpool_less_exclusions.txt	LTP237	ltpFR	0	11	0	OBOE	969	n/a	n/a	1	0.57763671875	0.412841796875	1	lower	amplitud.ttf
2152.452	n/a	REC_START	1076226	n/a	LTP237	ltpFR	0	11	n/a	n/a	n/a	n/a	n/a	n/a	n/a	n/a	n/a	n/a	n/a
2154.208	n/a	REC_WORD	1077104	wordpools/wasnorm_wordpool_less_exclusions.txt	LTP237	ltpFR	0	11	0	DRUM	502	n/a	n/a	1	n/a	n/a	n/a	n/a	n/a
2155.122	n/a	REC_WORD	1077561	wordpools/wasnorm_wordpool_less_exclusions.txt	LTP237	ltpFR	0	11	0	OBOE	969	n/a	n/a	1	n/a	n/a	n/a	n/a	n/a
2157.616	n/a	REC_WORD	1078808	wordpools/wasnorm_wordpool_less_exclusions.txt	LTP237	ltpFR	0	11	0	PILOT	1070	n/a	n/a	1	n/a	n/a	n/a	n/a	n/a
2159.482	n/a	REC_WORD	1079741	wordpools/wasnorm_wordpool_less_exclusions.txt	LTP237	ltpFR	0	11	0	PEDESTRIAN	1038	n/a	n/a	1	n/a	n/a	n/a	n/a	n/a
2162.844	n/a	REC_WORD	1081422	wordpools/wasnorm_wordpool_less_exclusions.txt	LTP237	ltpFR	0	11	0	ACORN	3	n/a	n/a	0	n/a	n/a	n/a	n/a	n/a
2182.274	n/a	REC_WORD	1091137	wordpools/wasnorm_wordpool_less_exclusions.txt	LTP237	ltpFR	0	11	0	FLY	586	n/a	n/a	0	n/a	n/a	n/a	n/a	n/a
2232.676	n/a	WORD	1116338	wordpools/wasnorm_wordpool_less_exclusions.txt	LTP237	ltpFR	0	12	0	SKETCH	1315	n/a	n/a	0	0.57763671875	0.412841796875	1	lower	amplitud.ttf
2236.874	n/a	WORD	1118437	wordpools/wasnorm_wordpool_less_exclusions.txt	LTP237	ltpFR	0	12	0	WATER	1594	n/a	n/a	1	0.57763671875	0.412841796875	1	lower	amplitud.ttf
2240.988	n/a	WORD	1120494	wordpools/wasnorm_wordpool_less_exclusions.txt	LTP237	ltpFR	0	12	0	FRIEND	606	n/a	n/a	1	0.57763671875	0.412841796875	1	lower	amplitud.ttf
2244.82	n/a	WORD	1122410	wordpools/wasnorm_wordpool_less_exclusions.txt	LTP237	ltpFR	0	12	0	BASKET	95	n/a	n/a	1	0.57763671875	0.412841796875	1	lower	amplitud.ttf
2249.022	n/a	WORD	1124511	wordpools/wasnorm_wordpool_less_exclusions.txt	LTP237	ltpFR	0	12	0	SPHINX	1349	n/a	n/a	1	0.57763671875	0.412841796875	1	lower	amplitud.ttf
2253.236	n/a	WORD	1126618	wordpools/wasnorm_wordpool_less_exclusions.txt	LTP237	ltpFR	0	12	0	SWAMP	1416	n/a	n/a	1	0.57763671875	0.412841796875	1	lower	amplitud.ttf
2257.052	n/a	WORD	1128526	wordpools/wasnorm_wordpool_less_exclusions.txt	LTP237	ltpFR	0	12	0	PAINT	1003	n/a	n/a	0	0.57763671875	0.412841796875	1	lower	amplitud.ttf
2260.898	n/a	WORD	1130449	wordpools/wasnorm_wordpool_less_exclusions.txt	LTP237	ltpFR	0	12	0	COUGAR	387	n/a	n/a	1	0.57763671875	0.412841796875	1	lower	amplitud.ttf
2264.814	n/a	WORD	1132407	wordpools/wasnorm_wordpool_less_exclusions.txt	LTP237	ltpFR	0	12	0	SCALLOP	1242	n/a	n/a	0	0.57763671875	0.412841796875	1	lower	amplitud.ttf
2268.646	n/a	WORD	1134323	wordpools/wasnorm_wordpool_less_exclusions.txt	LTP237	ltpFR	0	12	0	BAIT	70	n/a	n/a	0	0.57763671875	0.412841796875	1	lower	amplitud.ttf
2272.762	n/a	WORD	1136381	wordpools/wasnorm_wordpool_less_exclusions.txt	LTP237	ltpFR	0	12	0	DIVER	476	n/a	n/a	1	0.57763671875	0.412841796875	1	lower	amplitud.ttf
2276.776	n/a	WORD	1138388	wordpools/wasnorm_wordpool_less_exclusions.txt	LTP237	ltpFR	0	12	0	CRAB	397	n/a	n/a	0	0.57763671875	0.412841796875	1	lower	amplitud.ttf
2280.842	n/a	WORD	1140421	wordpools/wasnorm_wordpool_less_exclusions.txt	LTP237	ltpFR	0	12	0	DRESS	495	n/a	n/a	1	0.57763671875	0.412841796875	1	lower	amplitud.ttf
2284.806	n/a	WORD	1142403	wordpools/wasnorm_wordpool_less_exclusions.txt	LTP237	ltpFR	0	12	0	TUXEDO	1525	n/a	n/a	1	0.57763671875	0.412841796875	1	lower	amplitud.ttf
2288.856	n/a	WORD	1144428	wordpools/wasnorm_wordpool_less_exclusions.txt	LTP237	ltpFR	0	12	0	RAKE	1164	n/a	n/a	1	0.57763671875	0.412841796875	1	lower	amplitud.ttf
2293.056	n/a	WORD	1146528	wordpools/wasnorm_wordpool_less_exclusions.txt	LTP237	ltpFR	0	12	0	TIMBER	1469	n/a	n/a	1	0.57763671875	0.412841796875	1	lower	amplitud.ttf
2299.146	n/a	REC_START	1149573	n/a	LTP237	ltpFR	0	12	n/a	n/a	n/a	n/a	n/a	n/a	n/a	n/a	n/a	n/a	n/a
2300.738	n/a	REC_WORD	1150369	wordpools/wasnorm_wordpool_less_exclusions.txt	LTP237	ltpFR	0	12	0	TIMBER	1469	n/a	n/a	1	n/a	n/a	n/a	n/a	n/a
2301.702	n/a	REC_WORD	1150851	wordpools/wasnorm_wordpool_less_exclusions.txt	LTP237	ltpFR	0	12	0	RAKE	1164	n/a	n/a	1	n/a	n/a	n/a	n/a	n/a
2303.398	n/a	REC_WORD	1151699	wordpools/wasnorm_wordpool_less_exclusions.txt	LTP237	ltpFR	0	12	0	FRIEND	606	n/a	n/a	1	n/a	n/a	n/a	n/a	n/a
2305.872	n/a	REC_WORD	1152936	wordpools/wasnorm_wordpool_less_exclusions.txt	LTP237	ltpFR	0	12	0	DIVER	476	n/a	n/a	1	n/a	n/a	n/a	n/a	n/a
2317.486	n/a	REC_WORD	1158743	wordpools/wasnorm_wordpool_less_exclusions.txt	LTP237	ltpFR	0	12	0	SWAMP	1416	n/a	n/a	1	n/a	n/a	n/a	n/a	n/a
2320.11	n/a	REC_WORD	1160055	wordpools/wasnorm_wordpool_less_exclusions.txt	LTP237	ltpFR	0	12	0	WATER	1594	n/a	n/a	1	n/a	n/a	n/a	n/a	n/a
2330.218	n/a	REC_WORD	1165109	wordpools/wasnorm_wordpool_less_exclusions.txt	LTP237	ltpFR	0	12	0	SCALLOP	1242	n/a	n/a	0	n/a	n/a	n/a	n/a	n/a
2374.802	n/a	REST_REWET	1187401	n/a	LTP237	ltpFR	0	12	n/a	n/a	n/a	n/a	n/a	n/a	n/a	n/a	n/a	n/a	n/a
2574.062	n/a	WORD	1287031	wordpools/wasnorm_wordpool_less_exclusions.txt	LTP237	ltpFR	0	13	1	CLIFF	322	n/a	n/a	0	0.422607421875	0.5869140625	0	upper	zerothre.ttf
2578.196	n/a	WORD	1289098	wordpools/wasnorm_wordpool_less_exclusions.txt	LTP237	ltpFR	0	13	1	RAZOR	1171	n/a	n/a	0	0.422607421875	0.5869140625	0	upper	zerothre.ttf
2582.042	n/a	WORD	1291021	wordpools/wasnorm_wordpool_less_exclusions.txt	LTP237	ltpFR	0	13	1	EMPLOYER	532	n/a	n/a	1	0.422607421875	0.5869140625	0	upper	zerothre.ttf
2585.906	n/a	WORD	1292953	wordpools/wasnorm_wordpool_less_exclusions.txt	LTP237	ltpFR	0	13	0	STRAW	1390	n/a	n/a	0	0.57763671875	0.412841796875	1	lower	amplitud.ttf
2589.74	n/a	WORD	1294870	wordpools/wasnorm_wordpool_less_exclusions.txt	LTP237	ltpFR	0	13	0	TIDE	1465	n/a	n/a	1	0.57763671875	0.412841796875	1	lower	amplitud.ttf
2593.822	n/a	WORD	1296911	wordpools/wasnorm_wordpool_less_exclusions.txt	LTP237	ltpFR	0	13	0	STORE	1387	n/a	n/a	0	0.57763671875	0.412841796875	1	lower	amplitud.ttf
2597.652	n/a	WORD	1298826	wordpools/wasnorm_wordpool_less_exclusions.txt	LTP237	ltpFR	0	13	0	WAGON	1578	n/a	n/a	1	0.57763671875	0.412841796875	1	lower	amplitud.ttf
2601.5	n/a	WORD	1300750	wordpools/wasnorm_wordpool_less_exclusions.txt	LTP237	ltpFR	0	13	1	SHRUB	1299	n/a	n/a	1	0.422607421875	0.5869140625	0	upper	zerothre.ttf
2605.668	n/a	WORD	1302834	wordpools/wasnorm_wordpool_less_exclusions.txt	LTP237	ltpFR	0	13	1	LEAF	808	n/a	n/a	1	0.422607421875	0.5869140625	0	upper	zerothre.ttf
2609.498	n/a	WORD	1304749	wordpools/wasnorm_wordpool_less_exclusions.txt	LTP237	ltpFR	0	13	1	ANIMAL	23	n/a	n/a	1	0.422607421875	0.5869140625	0	upper	zerothre.ttf
2613.612	n/a	WORD	1306806	wordpools/wasnorm_wordpool_less_exclusions.txt	LTP237	ltpFR	0	13	0	BAY	102	n/a	n/a	0	0.57763671875	0.412841796875	1	lower	amplitud.ttf
2617.73	n/a	WORD	1308865	wordpools/wasnorm_wordpool_less_exclusions.txt	LTP237	ltpFR	0	13	0	TYPIST	1532	n/a	n/a	1	0.57763671875	0.412841796875	1	lower	amplitud.ttf
2621.78	n/a	WORD	1310890	wordpools/wasnorm_wordpool_less_exclusions.txt	LTP237	ltpFR	0	13	0	STRAWBERRY	1391	n/a	n/a	0	0.57763671875	0.412841796875	1	lower	amplitud.ttf
2625.894	n/a	WORD	1312947	wordpools/wasnorm_wordpool_less_exclusions.txt	LTP237	ltpFR	0	13	0	MARKET	871	n/a	n/a	1	0.57763671875	0.412841796875	1	lower	amplitud.ttf
2629.876	n/a	WORD	1314938	wordpools/wasnorm_wordpool_less_exclusions.txt	LTP237	ltpFR	0	13	1	COCOON	339	n/a	n/a	0	0.422607421875	0.5869140625	0	upper	zerothre.ttf
2633.724	n/a	WORD	1316862	wordpools/wasnorm_wordpool_less_exclusions.txt	LTP237	ltpFR	0	13	1	ANT	25	n/a	n/a	1	0.422607421875	0.5869140625	0	upper	zerothre.ttf
2639.43	n/a	REC_START	1319715	n/a	LTP237	ltpFR	0	13	n/a	n/a	n/a	n/a	n/a	n/a	n/a	n/a	n/a	n/a	n/a
2641.43	n/a	REC_WORD	1320715	wordpools/wasnorm_wordpool_less_exclusions.txt	LTP237	ltpFR	0	13	1	ANT	25	n/a	n/a	1	n/a	n/a	n/a	n/a	n/a
2642.094	n/a	REC_WORD	1321047	wordpools/wasnorm_wordpool_less_exclusions.txt	LTP237	ltpFR	0	13	1	COCOON	339	n/a	n/a	0	n/a	n/a	n/a	n/a	n/a
2647.048	n/a	REC_WORD	1323524	wordpools/wasnorm_wordpool_less_exclusions.txt	LTP237	ltpFR	0	13	1	SHRUB	1299	n/a	n/a	1	n/a	n/a	n/a	n/a	n/a
2653.014	n/a	REC_WORD	1326507	wordpools/wasnorm_wordpool_less_exclusions.txt	LTP237	ltpFR	0	13	0	MARKET	871	n/a	n/a	1	n/a	n/a	n/a	n/a	n/a
2697.616	n/a	REC_WORD	1348808	wordpools/wasnorm_wordpool_less_exclusions.txt	LTP237	ltpFR	0	13	1	LEAF	808	n/a	n/a	1	n/a	n/a	n/a	n/a	n/a
2723.634	n/a	WORD	1361817	wordpools/wasnorm_wordpool_less_exclusions.txt	LTP237	ltpFR	0	14	0	FAMILY	550	n/a	n/a	1	0.57763671875	0.412841796875	1	lower	amplitud.ttf
2727.818	n/a	WORD	1363909	wordpools/wasnorm_wordpool_less_exclusions.txt	LTP237	ltpFR	0	14	0	COUCH	386	n/a	n/a	1	0.57763671875	0.412841796875	1	lower	amplitud.ttf
2731.914	n/a	WORD	1365957	wordpools/wasnorm_wordpool_less_exclusions.txt	LTP237	ltpFR	0	14	0	STOOL	1386	n/a	n/a	1	0.57763671875	0.412841796875	1	lower	amplitud.ttf
2735.964	n/a	WORD	1367982	wordpools/wasnorm_wordpool_less_exclusions.txt	LTP237	ltpFR	0	14	0	TOY	1492	n/a	n/a	0	0.57763671875	0.412841796875	1	lower	amplitud.ttf
2739.944	n/a	WORD	1369972	wordpools/wasnorm_wordpool_less_exclusions.txt	LTP237	ltpFR	0	14	0	DOLL	481	n/a	n/a	0	0.57763671875	0.412841796875	1	lower	amplitud.ttf
2743.928	n/a	WORD	1371964	wordpools/wasnorm_wordpool_less_exclusions.txt	LTP237	ltpFR	0	14	1	DANDRUFF	439	n/a	n/a	0	0.422607421875	0.5869140625	0	upper	zerothre.ttf
2747.76	n/a	WORD	1373880	wordpools/wasnorm_wordpool_less_exclusions.txt	LTP237	ltpFR	0	14	1	CLIPPERS	324	n/a	n/a	0	0.422607421875	0.5869140625	0	upper	zerothre.ttf
2751.692	n/a	WORD	1375846	wordpools/wasnorm_wordpool_less_exclusions.txt	LTP237	ltpFR	0	14	1	SAILOR	1223	n/a	n/a	1	0.422607421875	0.5869140625	0	upper	zerothre.ttf
2755.708	n/a	WORD	1377854	wordpools/wasnorm_wordpool_less_exclusions.txt	LTP237	ltpFR	0	14	1	CORAL	378	n/a	n/a	0	0.422607421875	0.5869140625	0	upper	zerothre.ttf
2759.622	n/a	WORD	1379811	wordpools/wasnorm_wordpool_less_exclusions.txt	LTP237	ltpFR	0	14	0	TUNNEL	1519	n/a	n/a	1	0.57763671875	0.412841796875	1	lower	amplitud.ttf
2763.52	n/a	WORD	1381760	wordpools/wasnorm_wordpool_less_exclusions.txt	LTP237	ltpFR	0	14	0	SHRIMP	1297	n/a	n/a	0	0.57763671875	0.412841796875	1	lower	amplitud.ttf
2767.736	n/a	WORD	1383868	wordpools/wasnorm_wordpool_less_exclusions.txt	LTP237	ltpFR	0	14	0	FIST	572	n/a	n/a	0	0.57763671875	0.412841796875	1	lower	amplitud.ttf
2771.616	n/a	WORD	1385808	wordpools/wasnorm_wordpool_less_exclusions.txt	LTP237	ltpFR	0	14	1	DAUGHTER	442	n/a	n/a	1	0.422607421875	0.5869140625	0	upper	zerothre.ttf
2775.45	n/a	WORD	1387725	wordpools/wasnorm_wordpool_less_exclusions.txt	LTP237	ltpFR	0	14	1	PATIO	1025	n/a	n/a	0	0.422607421875	0.5869140625	0	upper	zerothre.ttf
2779.298	n/a	WORD	1389649	wordpools/wasnorm_wordpool_less_exclusions.txt	LTP237	ltpFR	0	14	1	HOOK	715	n/a	n/a	0	0.422607421875	0.5869140625	0	upper	zerothre.ttf
2783.212	n/a	WORD	1391606	wordpools/wasnorm_wordpool_less_exclusions.txt	LTP237	ltpFR	0	14	1	PEBBLE	1035	n/a	n/a	0	0.422607421875	0.5869140625	0	upper	zerothre.ttf
2789.118	n/a	REC_START	1394559	n/a	LTP237	ltpFR	0	14	n/a	n/a	n/a	n/a	n/a	n/a	n/a	n/a	n/a	n/a	n/a
2791.188	n/a	REC_WORD	1395594	wordpools/wasnorm_wordpool_less_exclusions.txt	LTP237	ltpFR	0	14	1	HOOK	715	n/a	n/a	0	n/a	n/a	n/a	n/a	n/a
2792.062	n/a	REC_WORD	1396031	wordpools/wasnorm_wordpool_less_exclusions.txt	LTP237	ltpFR	0	14	1	PEBBLE	1035	n/a	n/a	0	n/a	n/a	n/a	n/a	n/a
2793.044	n/a	REC_WORD	1396522	wordpools/wasnorm_wordpool_less_exclusions.txt	LTP237	ltpFR	0	14	0	FAMILY	550	n/a	n/a	1	n/a	n/a	n/a	n/a	n/a
2796.636	n/a	REC_WORD	1398318	wordpools/wasnorm_wordpool_less_exclusions.txt	LTP237	ltpFR	0	14	0	FIST	572	n/a	n/a	0	n/a	n/a	n/a	n/a	n/a
2799.466	n/a	REC_WORD	1399733	wordpools/wasnorm_wordpool_less_exclusions.txt	LTP237	ltpFR	0	14	0	STRAWBERRY	1391	n/a	n/a	0	n/a	n/a	n/a	n/a	n/a
2820.364	n/a	REC_WORD	1410182	wordpools/wasnorm_wordpool_less_exclusions.txt	LTP237	ltpFR	0	14	1	PATIO	1025	n/a	n/a	0	n/a	n/a	n/a	n/a	n/a
2886.674	n/a	WORD	1443337	wordpools/wasnorm_wordpool_less_exclusions.txt	LTP237	ltpFR	0	15	1	SEED	1266	n/a	n/a	1	0.422607421875	0.5869140625	0	upper	zerothre.ttf
2890.872	n/a	WORD	1445436	wordpools/wasnorm_wordpool_less_exclusions.txt	LTP237	ltpFR	0	15	1	CHAUFFEUR	283	n/a	n/a	1	0.422607421875	0.5869140625	0	upper	zerothre.ttf
2894.704	n/a	WORD	1447352	wordpools/wasnorm_wordpool_less_exclusions.txt	LTP237	ltpFR	0	15	1	PISTON	1076	n/a	n/a	1	0.422607421875	0.5869140625	0	upper	zerothre.ttf
2898.586	n/a	WORD	1449293	wordpools/wasnorm_wordpool_less_exclusions.txt	LTP237	ltpFR	0	15	0	TURNIP	1521	n/a	n/a	0	0.57763671875	0.412841796875	1	lower	amplitud.ttf
2902.668	n/a	WORD	1451334	wordpools/wasnorm_wordpool_less_exclusions.txt	LTP237	ltpFR	0	15	0	SHIP	1286	n/a	n/a	1	0.57763671875	0.412841796875	1	lower	amplitud.ttf
2906.6	n/a	WORD	1453300	wordpools/wasnorm_wordpool_less_exclusions.txt	LTP237	ltpFR	0	15	0	SUBURB	1399	n/a	n/a	1	0.57763671875	0.412841796875	1	lower	amplitud.ttf
2910.734	n/a	WORD	1455367	wordpools/wasnorm_wordpool_less_exclusions.txt	LTP237	ltpFR	0	15	0	REPTILE	1185	n/a	n/a	0	0.57763671875	0.412841796875	1	lower	amplitud.ttf
2914.714	n/a	WORD	1457357	wordpools/wasnorm_wordpool_less_exclusions.txt	LTP237	ltpFR	0	15	1	FEATHER	557	n/a	n/a	0	0.422607421875	0.5869140625	0	upper	zerothre.ttf
2918.662	n/a	WORD	1459331	wordpools/wasnorm_wordpool_less_exclusions.txt	LTP237	ltpFR	0	15	1	DILL	465	n/a	n/a	1	0.422607421875	0.5869140625	0	upper	zerothre.ttf
2922.844	n/a	WORD	1461422	wordpools/wasnorm_wordpool_less_exclusions.txt	LTP237	ltpFR	0	15	1	CHAMPAGNE	278	n/a	n/a	0	0.422607421875	0.5869140625	0	upper	zerothre.ttf
2926.828	n/a	WORD	1463414	wordpools/wasnorm_wordpool_less_exclusions.txt	LTP237	ltpFR	0	15	1	PIGEON	1065	n/a	n/a	1	0.422607421875	0.5869140625	0	upper	zerothre.ttf
2930.976	n/a	WORD	1465488	wordpools/wasnorm_wordpool_less_exclusions.txt	LTP237	ltpFR	0	15	1	TOE	1473	n/a	n/a	0	0.422607421875	0.5869140625	0	upper	zerothre.ttf
2935.076	n/a	WORD	1467538	wordpools/wasnorm_wordpool_less_exclusions.txt	LTP237	ltpFR	0	15	0	THUMB	1462	n/a	n/a	0	0.57763671875	0.412841796875	1	lower	amplitud.ttf
2938.99	n/a	WORD	1469495	wordpools/wasnorm_wordpool_less_exclusions.txt	LTP237	ltpFR	0	15	0	TRAY	1498	n/a	n/a	1	0.57763671875	0.412841796875	1	lower	amplitud.ttf
2943.09	n/a	WORD	1471545	wordpools/wasnorm_wordpool_less_exclusions.txt	LTP237	ltpFR	0	15	0	WAITER	1580	n/a	n/a	1	0.57763671875	0.412841796875	1	lower	amplitud.ttf
2947.19	n/a	WORD	1473595	wordpools/wasnorm_wordpool_less_exclusions.txt	LTP237	ltpFR	0	15	0	RAISIN	1163	n/a	n/a	0	0.57763671875	0.412841796875	1	lower	amplitud.ttf
2953.046	n/a	REC_START	1476523	n/a	LTP237	ltpFR	0	15	n/a	n/a	n/a	n/a	n/a	n/a	n/a	n/a	n/a	n/a	n/a
2955.256	n/a	REC_WORD	1477628	wordpools/wasnorm_wordpool_less_exclusions.txt	LTP237	ltpFR	0	15	0	RAISIN	1163	n/a	n/a	0	n/a	n/a	n/a	n/a	n/a
2956.312	n/a	REC_WORD	1478156	wordpools/wasnorm_wordpool_less_exclusions.txt	LTP237	ltpFR	0	15	0	THUMB	1462	n/a	n/a	0	n/a	n/a	n/a	n/a	n/a
2957.25	n/a	REC_WORD	1478625	wordpools/wasnorm_wordpool_less_exclusions.txt	LTP237	ltpFR	0	15	1	TOE	1473	n/a	n/a	0	n/a	n/a	n/a	n/a	n/a
2959.186	n/a	REC_WORD	1479593	wordpools/wasnorm_wordpool_less_exclusions.txt	LTP237	ltpFR	0	15	0	WAITER	1580	n/a	n/a	1	n/a	n/a	n/a	n/a	n/a
2965.648	n/a	REC_WORD	1482824	wordpools/wasnorm_wordpool_less_exclusions.txt	LTP237	ltpFR	0	15	1	CHAUFFEUR	283	n/a	n/a	1	n/a	n/a	n/a	n/a	n/a
3020.072	n/a	REC_WORD	1510036	wordpools/wasnorm_wordpool_less_exclusions.txt	LTP237	ltpFR	0	15	1	DILL	465	n/a	n/a	1	n/a	n/a	n/a	n/a	n/a
3022.706	n/a	REC_WORD	1511353	wordpools/wasnorm_wordpool_less_exclusions.txt	LTP237	ltpFR	0	15	1	PISTON	1076	n/a	n/a	1	n/a	n/a	n/a	n/a	n/a
3032.732	n/a	WORD	1516366	wordpools/wasnorm_wordpool_less_exclusions.txt	LTP237	ltpFR	0	16	0	BULL	193	n/a	n/a	1	0.57763671875	0.412841796875	1	lower	amplitud.ttf
3036.914	n/a	WORD	1518457	wordpools/wasnorm_wordpool_less_exclusions.txt	LTP237	ltpFR	0	16	0	FARM	552	n/a	n/a	1	0.57763671875	0.412841796875	1	lower	amplitud.ttf
3040.83	n/a	WORD	1520415	wordpools/wasnorm_wordpool_less_exclusions.txt	LTP237	ltpFR	0	16	1	VET	1560	n/a	n/a	1	0.422607421875	0.5869140625	0	upper	zerothre.ttf
3044.862	n/a	WORD	1522431	wordpools/wasnorm_wordpool_less_exclusions.txt	LTP237	ltpFR	0	16	1	HOUND	724	n/a	n/a	1	0.422607421875	0.5869140625	0	upper	zerothre.ttf
3048.76	n/a	WORD	1524380	wordpools/wasnorm_wordpool_less_exclusions.txt	LTP237	ltpFR	0	16	0	DOVE	491	n/a	n/a	1	0.57763671875	0.412841796875	1	lower	amplitud.ttf
3052.642	n/a	WORD	1526321	wordpools/wasnorm_wordpool_less_exclusions.txt	LTP237	ltpFR	0	16	0	KIWI	781	n/a	n/a	0	0.57763671875	0.412841796875	1	lower	amplitud.ttf
3056.74	n/a	WORD	1528370	wordpools/wasnorm_wordpool_less_exclusions.txt	LTP237	ltpFR	0	16	0	STOVE	1388	n/a	n/a	1	0.57763671875	0.412841796875	1	lower	amplitud.ttf
3060.706	n/a	WORD	1530353	wordpools/wasnorm_wordpool_less_exclusions.txt	LTP237	ltpFR	0	16	0	ENVELOPE	537	n/a	n/a	0	0.57763671875	0.412841796875	1	lower	amplitud.ttf
3064.654	n/a	WORD	1532327	wordpools/wasnorm_wordpool_less_exclusions.txt	LTP237	ltpFR	0	16	1	WINDSHIELD	1612	n/a	n/a	0	0.422607421875	0.5869140625	0	upper	zerothre.ttf
3068.486	n/a	WORD	1534243	wordpools/wasnorm_wordpool_less_exclusions.txt	LTP237	ltpFR	0	16	1	KNOT	788	n/a	n/a	0	0.422607421875	0.5869140625	0	upper	zerothre.ttf
3072.652	n/a	WORD	1536326	wordpools/wasnorm_wordpool_less_exclusions.txt	LTP237	ltpFR	0	16	1	AUDIENCE	59	n/a	n/a	1	0.422607421875	0.5869140625	0	upper	zerothre.ttf
3076.734	n/a	WORD	1538367	wordpools/wasnorm_wordpool_less_exclusions.txt	LTP237	ltpFR	0	16	1	SCROLL	1257	n/a	n/a	0	0.422607421875	0.5869140625	0	upper	zerothre.ttf
3080.632	n/a	WORD	1540316	wordpools/wasnorm_wordpool_less_exclusions.txt	LTP237	ltpFR	0	16	1	GREASE	660	n/a	n/a	0	0.422607421875	0.5869140625	0	upper	zerothre.ttf
3084.614	n/a	WORD	1542307	wordpools/wasnorm_wordpool_less_exclusions.txt	LTP237	ltpFR	0	16	1	GANG	619	n/a	n/a	1	0.422607421875	0.5869140625	0	upper	zerothre.ttf
3088.712	n/a	WORD	1544356	wordpools/wasnorm_wordpool_less_exclusions.txt	LTP237	ltpFR	0	16	0	MOTEL	919	n/a	n/a	1	0.57763671875	0.412841796875	1	lower	amplitud.ttf
3092.794	n/a	WORD	1546397	wordpools/wasnorm_wordpool_less_exclusions.txt	LTP237	ltpFR	0	16	0	BACKBONE	66	n/a	n/a	0	0.57763671875	0.412841796875	1	lower	amplitud.ttf
3098.384	n/a	REC_START	1549192	n/a	LTP237	ltpFR	0	16	n/a	n/a	n/a	n/a	n/a	n/a	n/a	n/a	n/a	n/a	n/a
3100.68	n/a	REC_WORD	1550340	wordpools/wasnorm_wordpool_less_exclusions.txt	LTP237	ltpFR	0	16	0	MOTEL	919	n/a	n/a	1	n/a	n/a	n/a	n/a	n/a
3101.442	n/a	REC_WORD	1550721	wordpools/wasnorm_wordpool_less_exclusions.txt	LTP237	ltpFR	0	16	n/a	BACK	65	n/a	n/a	n/a	n/a	n/a	n/a	n/a	n/a
3101.9	n/a	REC_WORD_VV	1550950	wordpools/wasnorm_wordpool_less_exclusions.txt	LTP237	ltpFR	0	16	n/a	<>	-1	n/a	n/a	n/a	n/a	n/a	n/a	n/a	n/a
3102.336	n/a	REC_WORD	1551168	wordpools/wasnorm_wordpool_less_exclusions.txt	LTP237	ltpFR	0	16	0	BACKBONE	66	n/a	n/a	0	n/a	n/a	n/a	n/a	n/a
3105.544	n/a	REC_WORD	1552772	wordpools/wasnorm_wordpool_less_exclusions.txt	LTP237	ltpFR	0	16	1	GREASE	660	n/a	n/a	0	n/a	n/a	n/a	n/a	n/a
3109.014	n/a	REC_WORD	1554507	wordpools/wasnorm_wordpool_less_exclusions.txt	LTP237	ltpFR	0	16	1	AUDIENCE	59	n/a	n/a	1	n/a	n/a	n/a	n/a	n/a
3110.382	n/a	REC_WORD	1555191	wordpools/wasnorm_wordpool_less_exclusions.txt	LTP237	ltpFR	0	16	1	GANG	619	n/a	n/a	1	n/a	n/a	n/a	n/a	n/a
3220.45	n/a	REC_START	1610225	n/a	LTP237	ltpFR	0	n/a	n/a	n/a	n/a	n/a	n/a	n/a	n/a	n/a	n/a	n/a	n/a
3223.04	n/a	FFR_REC_WORD	1611520	wordpools/wasnorm_wordpool_less_exclusions.txt	LTP237	ltpFR	0	n/a	0	THUMB	1462	n/a	n/a	0	n/a	n/a	n/a	n/a	n/a
3224.91	n/a	FFR_REC_WORD	1612455	wordpools/wasnorm_wordpool_less_exclusions.txt	LTP237	ltpFR	0	n/a	0	FAMILY	550	n/a	n/a	1	n/a	n/a	n/a	n/a	n/a
3226.602	n/a	FFR_REC_WORD	1613301	wordpools/wasnorm_wordpool_less_exclusions.txt	LTP237	ltpFR	0	n/a	0	SUBURB	1399	n/a	n/a	1	n/a	n/a	n/a	n/a	n/a
3230.798	n/a	FFR_REC_WORD	1615399	wordpools/wasnorm_wordpool_less_exclusions.txt	LTP237	ltpFR	0	n/a	0	FIST	572	n/a	n/a	0	n/a	n/a	n/a	n/a	n/a
3231.966	n/a	FFR_REC_WORD	1615983	wordpools/wasnorm_wordpool_less_exclusions.txt	LTP237	ltpFR	0	n/a	1	TOE	1473	n/a	n/a	0	n/a	n/a	n/a	n/a	n/a
3233.936	n/a	FFR_REC_WORD	1616968	wordpools/wasnorm_wordpool_less_exclusions.txt	LTP237	ltpFR	0	n/a	1	CIGAR	308	n/a	n/a	0	n/a	n/a	n/a	n/a	n/a
3234.862	n/a	FFR_REC_WORD	1617431	wordpools/wasnorm_wordpool_less_exclusions.txt	LTP237	ltpFR	0	n/a	1	NICOTINE	951	n/a	n/a	0	n/a	n/a	n/a	n/a	n/a
3240.486	n/a	FFR_REC_WORD	1620243	wordpools/wasnorm_wordpool_less_exclusions.txt	LTP237	ltpFR	0	n/a	0	MONSTER	912	n/a	n/a	1	n/a	n/a	n/a	n/a	n/a
3243.634	n/a	FFR_REC_WORD	1621817	wordpools/wasnorm_wordpool_less_exclusions.txt	LTP237	ltpFR	0	n/a	1	AUDIENCE	59	n/a	n/a	1	n/a	n/a	n/a	n/a	n/a
3245.0	n/a	FFR_REC_WORD	1622500	wordpools/wasnorm_wordpool_less_exclusions.txt	LTP237	ltpFR	0	n/a	1	CHAUFFEUR	283	n/a	n/a	1	n/a	n/a	n/a	n/a	n/a
3248.328	n/a	FFR_REC_WORD	1624164	wordpools/wasnorm_wordpool_less_exclusions.txt	LTP237	ltpFR	0	n/a	-1	CANAL	226	n/a	n/a	-1	n/a	n/a	n/a	n/a	n/a
3253.876	n/a	FFR_REC_WORD	1626938	wordpools/wasnorm_wordpool_less_exclusions.txt	LTP237	ltpFR	0	n/a	1	SHRUB	1299	n/a	n/a	1	n/a	n/a	n/a	n/a	n/a
3254.954	n/a	FFR_REC_WORD	1627477	wordpools/wasnorm_wordpool_less_exclusions.txt	LTP237	ltpFR	0	n/a	1	BUSH	202	n/a	n/a	1	n/a	n/a	n/a	n/a	n/a
3256.276	n/a	FFR_REC_WORD	1628138	wordpools/wasnorm_wordpool_less_exclusions.txt	LTP237	ltpFR	0	n/a	1	LEAF	808	n/a	n/a	1	n/a	n/a	n/a	n/a	n/a
3272.644	n/a	FFR_REC_WORD	1636322	wordpools/wasnorm_wordpool_less_exclusions.txt	LTP237	ltpFR	0	n/a	1	TWIG	1527	n/a	n/a	0	n/a	n/a	n/a	n/a	n/a
3292.376	n/a	FFR_REC_WORD	1646188	wordpools/wasnorm_wordpool_less_exclusions.txt	LTP237	ltpFR	0	n/a	-1	WALRUS	1585	n/a	n/a	-1	n/a	n/a	n/a	n/a	n/a
3293.444	n/a	FFR_REC_WORD	1646722	wordpools/wasnorm_wordpool_less_exclusions.txt	LTP237	ltpFR	0	n/a	0	WATER	1594	n/a	n/a	1	n/a	n/a	n/a	n/a	n/a
3295.254	n/a	FFR_REC_WORD	1647627	wordpools/wasnorm_wordpool_less_exclusions.txt	LTP237	ltpFR	0	n/a	0	SWAMP	1416	n/a	n/a	1	n/a	n/a	n/a	n/a	n/a
3296.99	n/a	FFR_REC_WORD	1648495	wordpools/wasnorm_wordpool_less_exclusions.txt	LTP237	ltpFR	0	n/a	-1	STREAM	1392	n/a	n/a	-1	n/a	n/a	n/a	n/a	n/a
3299.41	n/a	FFR_REC_WORD	1649705	wordpools/wasnorm_wordpool_less_exclusions.txt	LTP237	ltpFR	0	n/a	-1	SPONGE	1355	n/a	n/a	-1	n/a	n/a	n/a	n/a	n/a
3314.95	n/a	FFR_REC_WORD	1657475	wordpools/wasnorm_wordpool_less_exclusions.txt	LTP237	ltpFR	0	n/a	-1	HARP	689	n/a	n/a	-1	n/a	n/a	n/a	n/a	n/a
3317.286	n/a	FFR_REC_WORD	1658643	wordpools/wasnorm_wordpool_less_exclusions.txt	LTP237	ltpFR	0	n/a	1	STRING	1394	n/a	n/a	0	n/a	n/a	n/a	n/a	n/a
3324.31	n/a	FFR_REC_WORD	1662155	wordpools/wasnorm_wordpool_less_exclusions.txt	LTP237	ltpFR	0	n/a	0	DOVE	491	n/a	n/a	1	n/a	n/a	n/a	n/a	n/a
3327.668	n/a	FFR_REC_WORD	1663834	wordpools/wasnorm_wordpool_less_exclusions.txt	LTP237	ltpFR	0	n/a	1	DILL	465	n/a	n/a	1	n/a	n/a	n/a	n/a	n/a
3328.156	n/a	FFR_REC_WORD	1664078	wordpools/wasnorm_wordpool_less_exclusions.txt	LTP237	ltpFR	0	n/a	1	PISTON	1076	n/a	n/a	1	n/a	n/a	n/a	n/a	n/a
3338.108	n/a	FFR_REC_WORD	1669054	wordpools/wasnorm_wordpool_less_exclusions.txt	LTP237	ltpFR	0	n/a	-1	BUTLER	204	n/a	n/a	-1	n/a	n/a	n/a	n/a	n/a
3352.782	n/a	FFR_REC_WORD	1676391	wordpools/wasnorm_wordpool_less_exclusions.txt	LTP237	ltpFR	0	n/a	0	SEA	1259	n/a	n/a	1	n/a	n/a	n/a	n/a	n/a
3363.458	n/a	FFR_REC_WORD	1681729	wordpools/wasnorm_wordpool_less_exclusions.txt	LTP237	ltpFR	0	n/a	1	REFRIGERATOR	1179	n/a	n/a	0	n/a	n/a	n/a	n/a	n/a
3377.412	n/a	FFR_REC_WORD	1688706	wordpools/wasnorm_wordpool_less_exclusions.txt	LTP237	ltpFR	0	n/a	0	STRAWBERRY	1391	n/a	n/a	0	n/a	n/a	n/a	n/a	n/a
3381.942	n/a	FFR_REC_WORD	1690971	wordpools/wasnorm_wordpool_less_exclusions.txt	LTP237	ltpFR	0	n/a	0	TOY	1492	n/a	n/a	0	n/a	n/a	n/a	n/a	n/a
3383.704	n/a	FFR_REC_WORD	1691852	wordpools/wasnorm_wordpool_less_exclusions.txt	LTP237	ltpFR	0	n/a	1	DAUGHTER	442	n/a	n/a	1	n/a	n/a	n/a	n/a	n/a
3412.634	n/a	FFR_REC_WORD	1706317	wordpools/wasnorm_wordpool_less_exclusions.txt	LTP237	ltpFR	0	n/a	0	PLUMBER	1091	n/a	n/a	1	n/a	n/a	n/a	n/a	n/a
3420.756	n/a	FFR_REC_WORD	1710378	wordpools/wasnorm_wordpool_less_exclusions.txt	LTP237	ltpFR	0	n/a	-1	RECEPTIONIST	1174	n/a	n/a	-1	n/a	n/a	n/a	n/a	n/a
3421.756	n/a	FFR_REC_WORD_VV	1710878	wordpools/wasnorm_wordpool_less_exclusions.txt	LTP237	ltpFR	0	n/a	n/a	<>	-1	n/a	n/a	n/a	n/a	n/a	n/a	n/a	n/a
3427.126	n/a	FFR_REC_WORD	1713563	wordpools/wasnorm_wordpool_less_exclusions.txt	LTP237	ltpFR	0	n/a	-1	RAM	1165	n/a	n/a	-1	n/a	n/a	n/a	n/a	n/a
3434.046	n/a	FFR_REC_WORD	1717023	wordpools/wasnorm_wordpool_less_exclusions.txt	LTP237	ltpFR	0	n/a	-1	CLERK	321	n/a	n/a	-1	n/a	n/a	n/a	n/a	n/a
3439.364	n/a	FFR_REC_WORD	1719682	wordpools/wasnorm_wordpool_less_exclusions.txt	LTP237	ltpFR	0	n/a	-1	OFFICE	972	n/a	n/a	-1	n/a	n/a	n/a	n/a	n/a
3448.1	n/a	FFR_REC_WORD	1724050	wordpools/wasnorm_wordpool_less_exclusions.txt	LTP237	ltpFR	0	n/a	-1	RACCOON	1153	n/a	n/a	-1	n/a	n/a	n/a	n/a	n/a
3450.34	n/a	FFR_REC_WORD	1725170	wordpools/wasnorm_wordpool_less_exclusions.txt	LTP237	ltpFR	0	n/a	-1	HANGER	687	n/a	n/a	-1	n/a	n/a	n/a	n/a	n/a
3467.406	n/a	FFR_REC_WORD	1733703	wordpools/wasnorm_wordpool_less_exclusions.txt	LTP237	ltpFR	0	n/a	-1	FIREMAN	569	n/a	n/a	-1	n/a	n/a	n/a	n/a	n/a
3468.664	n/a	FFR_REC_WORD	1734332	wordpools/wasnorm_wordpool_less_exclusions.txt	LTP237	ltpFR	0	n/a	n/a	COAL	332	n/a	n/a	n/a	n/a	n/a	n/a	n/a	n/a
3519.716	n/a	FFR_REC_WORD	1759858	wordpools/wasnorm_wordpool_less_exclusions.txt	LTP237	ltpFR	0	n/a	1	GANG	619	n/a	n/a	1	n/a	n/a	n/a	n/a	n/a
3823.438	n/a	REC_START	1911719	n/a	LTP237	ltpFR	0	1	n/a	n/a	n/a	n/a	n/a	n/a	n/a	n/a	n/a	n/a	n/a
3823.488	n/a	RECOG_TARGET	1911744	n/a	LTP237	ltpFR	0	1	-1	CHARCOAL	281	0	3	-1	n/a	n/a	n/a	n/a	n/a
3826.2	n/a	RECOG_RESP	1913100	n/a	LTP237	ltpFR	0	1	-1	CHARCOAL	281	0	n/a	-1	n/a	n/a	n/a	n/a	n/a
3829.388	n/a	RECOG_CONF	1914694	n/a	LTP237	ltpFR	0	1	-1	CHARCOAL	281	n/a	3	-1	n/a	n/a	n/a	n/a	n/a
3831.618	n/a	RECOG_TARGET	1915809	n/a	LTP237	ltpFR	0	1	1	AUTOMOBILE	62	1	5	0	n/a	n/a	n/a	n/a	n/a
3833.772	n/a	RECOG_RESP	1916886	n/a	LTP237	ltpFR	0	1	1	AUTOMOBILE	62	1	n/a	0	n/a	n/a	n/a	n/a	n/a
3835.136	n/a	RECOG_CONF	1917568	n/a	LTP237	ltpFR	0	1	1	AUTOMOBILE	62	n/a	5	0	n/a	n/a	n/a	n/a	n/a
3837.274	n/a	RECOG_LURE	1918637	n/a	LTP237	ltpFR	0	1	n/a	DASHBOARD	441	0	3	n/a	n/a	n/a	n/a	n/a	n/a
3838.9	n/a	RECOG_RESP	1919450	n/a	LTP237	ltpFR	0	1	n/a	DASHBOARD	441	0	n/a	n/a	n/a	n/a	n/a	n/a	n/a
3841.006	n/a	RECOG_CONF	1920503	n/a	LTP237	ltpFR	0	1	n/a	DASHBOARD	441	n/a	3	n/a	n/a	n/a	n/a	n/a	n/a
3842.794	n/a	RECOG_TARGET	1921397	n/a	LTP237	ltpFR	0	1	-1	STAFF	1365	1	4	-1	n/a	n/a	n/a	n/a	n/a
3844.858	n/a	RECOG_RESP	1922429	n/a	LTP237	ltpFR	0	1	-1	STAFF	1365	1	n/a	-1	n/a	n/a	n/a	n/a	n/a
3846.586	n/a	RECOG_CONF	1923293	n/a	LTP237	ltpFR	0	1	-1	STAFF	1365	n/a	4	-1	n/a	n/a	n/a	n/a	n/a
3848.382	n/a	RECOG_TARGET	1924191	n/a	LTP237	ltpFR	0	1	-1	CANVAS	234	1	5	-1	n/a	n/a	n/a	n/a	n/a
3849.694	n/a	RECOG_RESP	1924847	n/a	LTP237	ltpFR	0	1	-1	CANVAS	234	1	n/a	-1	n/a	n/a	n/a	n/a	n/a
3850.962	n/a	RECOG_CONF	1925481	n/a	LTP237	ltpFR	0	1	-1	CANVAS	234	n/a	5	-1	n/a	n/a	n/a	n/a	n/a
3852.914	n/a	RECOG_TARGET	1926457	n/a	LTP237	ltpFR	0	1	0	SWAMP	1416	1	5	1	n/a	n/a	n/a	n/a	n/a
3854.05	n/a	RECOG_RESP	1927025	n/a	LTP237	ltpFR	0	1	0	SWAMP	1416	1	n/a	1	n/a	n/a	n/a	n/a	n/a
3855.208	n/a	RECOG_CONF	1927604	n/a	LTP237	ltpFR	0	1	0	SWAMP	1416	n/a	5	1	n/a	n/a	n/a	n/a	n/a
3857.064	n/a	RECOG_TARGET	1928532	n/a	LTP237	ltpFR	0	1	-1	BUTLER	204	1	5	-1	n/a	n/a	n/a	n/a	n/a
3858.196	n/a	RECOG_RESP	1929098	n/a	LTP237	ltpFR	0	1	-1	BUTLER	204	1	n/a	-1	n/a	n/a	n/a	n/a	n/a
3859.486	n/a	RECOG_CONF	1929743	n/a	LTP237	ltpFR	0	1	-1	BUTLER	204	n/a	5	-1	n/a	n/a	n/a	n/a	n/a
3861.466	n/a	RECOG_TARGET	1930733	n/a	LTP237	ltpFR	0	1	-1	RECIPE	1175	1	5	-1	n/a	n/a	n/a	n/a	n/a
3862.684	n/a	RECOG_RESP	1931342	n/a	LTP237	ltpFR	0	1	-1	RECIPE	1175	1	n/a	-1	n/a	n/a	n/a	n/a	n/a
3863.74	n/a	RECOG_CONF	1931870	n/a	LTP237	ltpFR	0	1	-1	RECIPE	1175	n/a	5	-1	n/a	n/a	n/a	n/a	n/a
3865.748	n/a	RECOG_TARGET	1932874	n/a	LTP237	ltpFR	0	1	-1	SALAD	1224	1	5	-1	n/a	n/a	n/a	n/a	n/a
3867.166	n/a	RECOG_RESP	1933583	n/a	LTP237	ltpFR	0	1	-1	SALAD	1224	1	n/a	-1	n/a	n/a	n/a	n/a	n/a
3868.244	n/a	RECOG_CONF	1934122	n/a	LTP237	ltpFR	0	1	-1	SALAD	1224	n/a	5	-1	n/a	n/a	n/a	n/a	n/a
3870.198	n/a	RECOG_TARGET	1935099	n/a	LTP237	ltpFR	0	1	0	SHRIMP	1297	1	5	0	n/a	n/a	n/a	n/a	n/a
3871.5	n/a	RECOG_RESP	1935750	n/a	LTP237	ltpFR	0	1	0	SHRIMP	1297	1	n/a	0	n/a	n/a	n/a	n/a	n/a
3872.678	n/a	RECOG_CONF	1936339	n/a	LTP237	ltpFR	0	1	0	SHRIMP	1297	n/a	5	0	n/a	n/a	n/a	n/a	n/a
3874.516	n/a	RECOG_TARGET	1937258	n/a	LTP237	ltpFR	0	1	-1	SPINACH	1352	0	3	-1	n/a	n/a	n/a	n/a	n/a
3876.74	n/a	RECOG_RESP	1938370	n/a	LTP237	ltpFR	0	1	-1	SPINACH	1352	0	n/a	-1	n/a	n/a	n/a	n/a	n/a
3878.048	n/a	RECOG_CONF	1939024	n/a	LTP237	ltpFR	0	1	-1	SPINACH	1352	n/a	3	-1	n/a	n/a	n/a	n/a	n/a
3880.22	n/a	RECOG_TARGET	1940110	n/a	LTP237	ltpFR	0	1	0	STRAWBERRY	1391	1	5	0	n/a	n/a	n/a	n/a	n/a
3881.466	n/a	RECOG_RESP	1940733	n/a	LTP237	ltpFR	0	1	0	STRAWBERRY	1391	1	n/a	0	n/a	n/a	n/a	n/a	n/a
3882.614	n/a	RECOG_CONF	1941307	n/a	LTP237	ltpFR	0	1	0	STRAWBERRY	1391	n/a	5	0	n/a	n/a	n/a	n/a	n/a
3884.704	n/a	RECOG_TARGET	1942352	n/a	LTP237	ltpFR	0	1	0	PALACE	1006	1	5	1	n/a	n/a	n/a	n/a	n/a
3886.308	n/a	RECOG_RESP	1943154	n/a	LTP237	ltpFR	0	1	0	PALACE	1006	1	n/a	1	n/a	n/a	n/a	n/a	n/a
3887.68	n/a	RECOG_CONF	1943840	n/a	LTP237	ltpFR	0	1	0	PALACE	1006	n/a	5	1	n/a	n/a	n/a	n/a	n/a
3889.506	n/a	RECOG_LURE	1944753	n/a	LTP237	ltpFR	0	1	n/a	SPAGHETTI	1346	0	4	n/a	n/a	n/a	n/a	n/a	n/a
3890.774	n/a	RECOG_RESP	1945387	n/a	LTP237	ltpFR	0	1	n/a	SPAGHETTI	1346	0	n/a	n/a	n/a	n/a	n/a	n/a	n/a
3892.556	n/a	RECOG_CONF	1946278	n/a	LTP237	ltpFR	0	1	n/a	SPAGHETTI	1346	n/a	4	n/a	n/a	n/a	n/a	n/a	n/a
3894.324	n/a	RECOG_TARGET	1947162	n/a	LTP237	ltpFR	0	1	0	VINEGAR	1569	0	5	0	n/a	n/a	n/a	n/a	n/a
3895.564	n/a	RECOG_RESP	1947782	n/a	LTP237	ltpFR	0	1	0	VINEGAR	1569	0	n/a	0	n/a	n/a	n/a	n/a	n/a
3897.02	n/a	RECOG_CONF	1948510	n/a	LTP237	ltpFR	0	1	0	VINEGAR	1569	n/a	5	0	n/a	n/a	n/a	n/a	n/a
3898.758	n/a	RECOG_LURE	1949379	n/a	LTP237	ltpFR	0	1	n/a	NAIL	936	0	3	n/a	n/a	n/a	n/a	n/a	n/a
3901.868	n/a	RECOG_RESP	1950934	n/a	LTP237	ltpFR	0	1	n/a	NAIL	936	0	n/a	n/a	n/a	n/a	n/a	n/a	n/a
3903.314	n/a	RECOG_CONF	1951657	n/a	LTP237	ltpFR	0	1	n/a	NAIL	936	n/a	3	n/a	n/a	n/a	n/a	n/a	n/a
3905.4	n/a	RECOG_TARGET	1952700	n/a	LTP237	ltpFR	0	1	1	CHICK	296	1	5	1	n/a	n/a	n/a	n/a	n/a
3906.884	n/a	RECOG_RESP	1953442	n/a	LTP237	ltpFR	0	1	1	CHICK	296	1	n/a	1	n/a	n/a	n/a	n/a	n/a
3908.314	n/a	RECOG_CONF	1954157	n/a	LTP237	ltpFR	0	1	1	CHICK	296	n/a	5	1	n/a	n/a	n/a	n/a	n/a
3910.354	n/a	RECOG_TARGET	1955177	n/a	LTP237	ltpFR	0	1	1	COUNTY	389	1	5	0	n/a	n/a	n/a	n/a	n/a
3911.542	n/a	RECOG_RESP	1955771	n/a	LTP237	ltpFR	0	1	1	COUNTY	389	1	n/a	0	n/a	n/a	n/a	n/a	n/a
3913.04	n/a	RECOG_CONF	1956520	n/a	LTP237	ltpFR	0	1	1	COUNTY	389	n/a	5	0	n/a	n/a	n/a	n/a	n/a
3914.97	n/a	RECOG_TARGET	1957485	n/a	LTP237	ltpFR	0	1	1	BERRY	122	1	5	1	n/a	n/a	n/a	n/a	n/a
3916.282	n/a	RECOG_RESP	1958141	n/a	LTP237	ltpFR	0	1	1	BERRY	122	1	n/a	1	n/a	n/a	n/a	n/a	n/a
3917.762	n/a	RECOG_CONF	1958881	n/a	LTP237	ltpFR	0	1	1	BERRY	122	n/a	5	1	n/a	n/a	n/a	n/a	n/a
3919.638	n/a	RECOG_TARGET	1959819	n/a	LTP237	ltpFR	0	1	0	APARTMENT	30	1	3	1	n/a	n/a	n/a	n/a	n/a
3921.404	n/a	RECOG_RESP	1960702	n/a	LTP237	ltpFR	0	1	0	APARTMENT	30	1	n/a	1	n/a	n/a	n/a	n/a	n/a
3923.046	n/a	RECOG_CONF	1961523	n/a	LTP237	ltpFR	0	1	0	APARTMENT	30	n/a	3	1	n/a	n/a	n/a	n/a	n/a
3954.074	n/a	REC_START	1977037	n/a	LTP237	ltpFR	0	2	n/a	n/a	n/a	n/a	n/a	n/a	n/a	n/a	n/a	n/a	n/a
3954.136	n/a	RECOG_LURE	1977068	n/a	LTP237	ltpFR	0	2	n/a	CHIMPANZEE	302	0	5	n/a	n/a	n/a	n/a	n/a	n/a
3955.508	n/a	RECOG_RESP	1977754	n/a	LTP237	ltpFR	0	2	n/a	CHIMPANZEE	302	0	n/a	n/a	n/a	n/a	n/a	n/a	n/a
3956.734	n/a	RECOG_CONF	1978367	n/a	LTP237	ltpFR	0	2	n/a	CHIMPANZEE	302	n/a	5	n/a	n/a	n/a	n/a	n/a	n/a
3958.586	n/a	RECOG_LURE	1979293	n/a	LTP237	ltpFR	0	2	n/a	RESTAURANT	1187	1	5	n/a	n/a	n/a	n/a	n/a	n/a
3959.884	n/a	RECOG_RESP	1979942	n/a	LTP237	ltpFR	0	2	n/a	RESTAURANT	1187	1	n/a	n/a	n/a	n/a	n/a	n/a	n/a
3960.998	n/a	RECOG_CONF	1980499	n/a	LTP237	ltpFR	0	2	n/a	RESTAURANT	1187	n/a	5	n/a	n/a	n/a	n/a	n/a	n/a
3962.652	n/a	RECOG_TARGET	1981326	n/a	LTP237	ltpFR	0	2	0	SPICE	1350	0	1	0	n/a	n/a	n/a	n/a	n/a
3964.578	n/a	RECOG_RESP	1982289	n/a	LTP237	ltpFR	0	2	0	SPICE	1350	0	n/a	0	n/a	n/a	n/a	n/a	n/a
3966.54	n/a	RECOG_CONF	1983270	n/a	LTP237	ltpFR	0	2	0	SPICE	1350	n/a	1	0	n/a	n/a	n/a	n/a	n/a
3968.108	n/a	RECOG_TARGET	1984054	n/a	LTP237	ltpFR	0	2	1	MAILMAN	858	1	3	1	n/a	n/a	n/a	n/a	n/a
3970.686	n/a	RECOG_RESP	1985343	n/a	LTP237	ltpFR	0	2	1	MAILMAN	858	1	n/a	1	n/a	n/a	n/a	n/a	n/a
3971.848	n/a	RECOG_CONF	1985924	n/a	LTP237	ltpFR	0	2	1	MAILMAN	858	n/a	3	1	n/a	n/a	n/a	n/a	n/a
3973.594	n/a	RECOG_TARGET	1986797	n/a	LTP237	ltpFR	0	2	0	COD	340	1	5	0	n/a	n/a	n/a	n/a	n/a
3974.808	n/a	RECOG_RESP	1987404	n/a	LTP237	ltpFR	0	2	0	COD	340	1	n/a	0	n/a	n/a	n/a	n/a	n/a
3975.872	n/a	RECOG_CONF	1987936	n/a	LTP237	ltpFR	0	2	0	COD	340	n/a	5	0	n/a	n/a	n/a	n/a	n/a
3977.492	n/a	RECOG_TARGET	1988746	n/a	LTP237	ltpFR	0	2	-1	FIREMAN	569	1	5	-1	n/a	n/a	n/a	n/a	n/a
3978.598	n/a	RECOG_RESP	1989299	n/a	LTP237	ltpFR	0	2	-1	FIREMAN	569	1	n/a	-1	n/a	n/a	n/a	n/a	n/a
3979.758	n/a	RECOG_CONF	1989879	n/a	LTP237	ltpFR	0	2	-1	FIREMAN	569	n/a	5	-1	n/a	n/a	n/a	n/a	n/a
3981.674	n/a	RECOG_TARGET	1990837	n/a	LTP237	ltpFR	0	2	1	IGLOO	734	0	3	0	n/a	n/a	n/a	n/a	n/a
3983.128	n/a	RECOG_RESP	1991564	n/a	LTP237	ltpFR	0	2	1	IGLOO	734	0	n/a	0	n/a	n/a	n/a	n/a	n/a
3984.716	n/a	RECOG_CONF	1992358	n/a	LTP237	ltpFR	0	2	1	IGLOO	734	n/a	3	0	n/a	n/a	n/a	n/a	n/a
3986.478	n/a	RECOG_LURE	1993239	n/a	LTP237	ltpFR	0	2	n/a	CABBAGE	210	0	2	n/a	n/a	n/a	n/a	n/a	n/a
3988.052	n/a	RECOG_RESP	1994026	n/a	LTP237	ltpFR	0	2	n/a	CABBAGE	210	0	n/a	n/a	n/a	n/a	n/a	n/a	n/a
3989.748	n/a	RECOG_CONF	1994874	n/a	LTP237	ltpFR	0	2	n/a	CABBAGE	210	n/a	2	n/a	n/a	n/a	n/a	n/a	n/a
3991.446	n/a	RECOG_LURE	1995723	n/a	LTP237	ltpFR	0	2	n/a	JEEP	753	0	4	n/a	n/a	n/a	n/a	n/a	n/a
3993.022	n/a	RECOG_RESP	1996511	n/a	LTP237	ltpFR	0	2	n/a	JEEP	753	0	n/a	n/a	n/a	n/a	n/a	n/a	n/a
3994.26	n/a	RECOG_CONF	1997130	n/a	LTP237	ltpFR	0	2	n/a	JEEP	753	n/a	4	n/a	n/a	n/a	n/a	n/a	n/a
3996.13	n/a	RECOG_LURE	1998065	n/a	LTP237	ltpFR	0	2	n/a	PACKAGE	997	0	5	n/a	n/a	n/a	n/a	n/a	n/a
3997.578	n/a	RECOG_RESP	1998789	n/a	LTP237	ltpFR	0	2	n/a	PACKAGE	997	0	n/a	n/a	n/a	n/a	n/a	n/a	n/a
3998.996	n/a	RECOG_CONF	1999498	n/a	LTP237	ltpFR	0	2	n/a	PACKAGE	997	n/a	5	n/a	n/a	n/a	n/a	n/a	n/a
4001.014	n/a	RECOG_TARGET	2000507	n/a	LTP237	ltpFR	0	2	-1	WRITER	1627	1	3	-1	n/a	n/a	n/a	n/a	n/a
4002.636	n/a	RECOG_RESP	2001318	n/a	LTP237	ltpFR	0	2	-1	WRITER	1627	1	n/a	-1	n/a	n/a	n/a	n/a	n/a
4004.572	n/a	RECOG_CONF	2002286	n/a	LTP237	ltpFR	0	2	-1	WRITER	1627	n/a	3	-1	n/a	n/a	n/a	n/a	n/a
4006.202	n/a	RECOG_TARGET	2003101	n/a	LTP237	ltpFR	0	2	-1	HANDKERCHIEF	686	1	5	-1	n/a	n/a	n/a	n/a	n/a
4007.486	n/a	RECOG_RESP	2003743	n/a	LTP237	ltpFR	0	2	-1	HANDKERCHIEF	686	1	n/a	-1	n/a	n/a	n/a	n/a	n/a
4008.71	n/a	RECOG_CONF	2004355	n/a	LTP237	ltpFR	0	2	-1	HANDKERCHIEF	686	n/a	5	-1	n/a	n/a	n/a	n/a	n/a
4010.702	n/a	RECOG_LURE	2005351	n/a	LTP237	ltpFR	0	2	n/a	PREACHER	1119	0	3	n/a	n/a	n/a	n/a	n/a	n/a
4012.344	n/a	RECOG_RESP	2006172	n/a	LTP237	ltpFR	0	2	n/a	PREACHER	1119	0	n/a	n/a	n/a	n/a	n/a	n/a	n/a
4013.892	n/a	RECOG_CONF	2006946	n/a	LTP237	ltpFR	0	2	n/a	PREACHER	1119	n/a	3	n/a	n/a	n/a	n/a	n/a	n/a
4015.738	n/a	RECOG_LURE	2007869	n/a	LTP237	ltpFR	0	2	n/a	LID	817	0	3	n/a	n/a	n/a	n/a	n/a	n/a
4017.38	n/a	RECOG_RESP	2008690	n/a	LTP237	ltpFR	0	2	n/a	LID	817	0	n/a	n/a	n/a	n/a	n/a	n/a	n/a
4019.662	n/a	RECOG_CONF	2009831	n/a	LTP237	ltpFR	0	2	n/a	LID	817	n/a	3	n/a	n/a	n/a	n/a	n/a	n/a
4021.308	n/a	RECOG_LURE	2010654	n/a	LTP237	ltpFR	0	2	n/a	IDOL	733	0	3	n/a	n/a	n/a	n/a	n/a	n/a
4022.946	n/a	RECOG_RESP	2011473	n/a	LTP237	ltpFR	0	2	n/a	IDOL	733	0	n/a	n/a	n/a	n/a	n/a	n/a	n/a
4024.522	n/a	RECOG_CONF	2012261	n/a	LTP237	ltpFR	0	2	n/a	IDOL	733	n/a	3	n/a	n/a	n/a	n/a	n/a	n/a
4026.428	n/a	RECOG_TARGET	2013214	n/a	LTP237	ltpFR	0	2	-1	BROOK	177	1	5	-1	n/a	n/a	n/a	n/a	n/a
4027.974	n/a	RECOG_RESP	2013987	n/a	LTP237	ltpFR	0	2	-1	BROOK	177	1	n/a	-1	n/a	n/a	n/a	n/a	n/a
4029.348	n/a	RECOG_CONF	2014674	n/a	LTP237	ltpFR	0	2	-1	BROOK	177	n/a	5	-1	n/a	n/a	n/a	n/a	n/a
4031.332	n/a	RECOG_TARGET	2015666	n/a	LTP237	ltpFR	0	2	1	COCOON	339	1	5	0	n/a	n/a	n/a	n/a	n/a
4032.464	n/a	RECOG_RESP	2016232	n/a	LTP237	ltpFR	0	2	1	COCOON	339	1	n/a	0	n/a	n/a	n/a	n/a	n/a
4034.008	n/a	RECOG_CONF	2017004	n/a	LTP237	ltpFR	0	2	1	COCOON	339	n/a	5	0	n/a	n/a	n/a	n/a	n/a
4036.082	n/a	RECOG_LURE	2018041	n/a	LTP237	ltpFR	0	2	n/a	AIRPORT	13	1	3	n/a	n/a	n/a	n/a	n/a	n/a
4037.876	n/a	RECOG_RESP	2018938	n/a	LTP237	ltpFR	0	2	n/a	AIRPORT	13	1	n/a	n/a	n/a	n/a	n/a	n/a	n/a
4039.348	n/a	RECOG_CONF	2019674	n/a	LTP237	ltpFR	0	2	n/a	AIRPORT	13	n/a	3	n/a	n/a	n/a	n/a	n/a	n/a
4041.136	n/a	RECOG_TARGET	2020568	n/a	LTP237	ltpFR	0	2	1	DOCUMENT	479	1	3	0	n/a	n/a	n/a	n/a	n/a
4043.262	n/a	RECOG_RESP	2021631	n/a	LTP237	ltpFR	0	2	1	DOCUMENT	479	1	n/a	0	n/a	n/a	n/a	n/a	n/a
4044.928	n/a	RECOG_CONF	2022464	n/a	LTP237	ltpFR	0	2	1	DOCUMENT	479	n/a	3	0	n/a	n/a	n/a	n/a	n/a
4046.808	n/a	RECOG_TARGET	2023404	n/a	LTP237	ltpFR	0	2	0	ACORN	3	1	5	0	n/a	n/a	n/a	n/a	n/a
4048.12	n/a	RECOG_RESP	2024060	n/a	LTP237	ltpFR	0	2	0	ACORN	3	1	n/a	0	n/a	n/a	n/a	n/a	n/a
4049.744	n/a	RECOG_CONF	2024872	n/a	LTP237	ltpFR	0	2	0	ACORN	3	n/a	5	0	n/a	n/a	n/a	n/a	n/a
4055.442	n/a	REC_START	2027721	n/a	LTP237	ltpFR	0	3	n/a	n/a	n/a	n/a	n/a	n/a	n/a	n/a	n/a	n/a	n/a
4055.508	n/a	RECOG_TARGET	2027754	n/a	LTP237	ltpFR	0	3	1	CLIFF	322	1	3	0	n/a	n/a	n/a	n/a	n/a
4057.426	n/a	RECOG_RESP	2028713	n/a	LTP237	ltpFR	0	3	1	CLIFF	322	1	n/a	0	n/a	n/a	n/a	n/a	n/a
4058.942	n/a	RECOG_CONF	2029471	n/a	LTP237	ltpFR	0	3	1	CLIFF	322	n/a	3	0	n/a	n/a	n/a	n/a	n/a
4060.81	n/a	RECOG_TARGET	2030405	n/a	LTP237	ltpFR	0	3	-1	SPONGE	1355	1	3	-1	n/a	n/a	n/a	n/a	n/a
4062.092	n/a	RECOG_RESP	2031046	n/a	LTP237	ltpFR	0	3	-1	SPONGE	1355	1	n/a	-1	n/a	n/a	n/a	n/a	n/a
4064.002	n/a	RECOG_CONF	2032001	n/a	LTP237	ltpFR	0	3	-1	SPONGE	1355	n/a	3	-1	n/a	n/a	n/a	n/a	n/a
4065.73	n/a	RECOG_TARGET	2032865	n/a	LTP237	ltpFR	0	3	1	LEAF	808	1	5	1	n/a	n/a	n/a	n/a	n/a
4066.79	n/a	RECOG_RESP	2033395	n/a	LTP237	ltpFR	0	3	1	LEAF	808	1	n/a	1	n/a	n/a	n/a	n/a	n/a
4068.498	n/a	RECOG_CONF	2034249	n/a	LTP237	ltpFR	0	3	1	LEAF	808	n/a	5	1	n/a	n/a	n/a	n/a	n/a
4070.598	n/a	RECOG_TARGET	2035299	n/a	LTP237	ltpFR	0	3	-1	HAMPER	682	1	2	-1	n/a	n/a	n/a	n/a	n/a
4071.758	n/a	RECOG_RESP	2035879	n/a	LTP237	ltpFR	0	3	-1	HAMPER	682	1	n/a	-1	n/a	n/a	n/a	n/a	n/a
4074.532	n/a	RECOG_CONF	2037266	n/a	LTP237	ltpFR	0	3	-1	HAMPER	682	n/a	2	-1	n/a	n/a	n/a	n/a	n/a
4076.386	n/a	RECOG_TARGET	2038193	n/a	LTP237	ltpFR	0	3	0	RAIL	1161	1	3	1	n/a	n/a	n/a	n/a	n/a
4078.088	n/a	RECOG_RESP	2039044	n/a	LTP237	ltpFR	0	3	0	RAIL	1161	1	n/a	1	n/a	n/a	n/a	n/a	n/a
4080.146	n/a	RECOG_CONF	2040073	n/a	LTP237	ltpFR	0	3	0	RAIL	1161	n/a	3	1	n/a	n/a	n/a	n/a	n/a
4081.942	n/a	RECOG_TARGET	2040971	n/a	LTP237	ltpFR	0	3	1	MULE	931	1	4	1	n/a	n/a	n/a	n/a	n/a
4082.93	n/a	RECOG_RESP	2041465	n/a	LTP237	ltpFR	0	3	1	MULE	931	1	n/a	1	n/a	n/a	n/a	n/a	n/a
4085.132	n/a	RECOG_CONF	2042566	n/a	LTP237	ltpFR	0	3	1	MULE	931	n/a	4	1	n/a	n/a	n/a	n/a	n/a
4086.944	n/a	RECOG_TARGET	2043472	n/a	LTP237	ltpFR	0	3	1	EAGLE	512	1	2	1	n/a	n/a	n/a	n/a	n/a
4088.67	n/a	RECOG_RESP	2044335	n/a	LTP237	ltpFR	0	3	1	EAGLE	512	1	n/a	1	n/a	n/a	n/a	n/a	n/a
4091.098	n/a	RECOG_CONF	2045549	n/a	LTP237	ltpFR	0	3	1	EAGLE	512	n/a	2	1	n/a	n/a	n/a	n/a	n/a
4092.85	n/a	RECOG_LURE	2046425	n/a	LTP237	ltpFR	0	3	n/a	NEUTRON	947	0	5	n/a	n/a	n/a	n/a	n/a	n/a
4094.182	n/a	RECOG_RESP	2047091	n/a	LTP237	ltpFR	0	3	n/a	NEUTRON	947	0	n/a	n/a	n/a	n/a	n/a	n/a	n/a
4095.69	n/a	RECOG_CONF	2047845	n/a	LTP237	ltpFR	0	3	n/a	NEUTRON	947	n/a	5	n/a	n/a	n/a	n/a	n/a	n/a
4097.55	n/a	RECOG_TARGET	2048775	n/a	LTP237	ltpFR	0	3	1	PLUM	1090	1	4	1	n/a	n/a	n/a	n/a	n/a
4098.786	n/a	RECOG_RESP	2049393	n/a	LTP237	ltpFR	0	3	1	PLUM	1090	1	n/a	1	n/a	n/a	n/a	n/a	n/a
4100.758	n/a	RECOG_CONF	2050379	n/a	LTP237	ltpFR	0	3	1	PLUM	1090	n/a	4	1	n/a	n/a	n/a	n/a	n/a
4102.722	n/a	RECOG_TARGET	2051361	n/a	LTP237	ltpFR	0	3	1	MARKER	870	0	2	0	n/a	n/a	n/a	n/a	n/a
4104.348	n/a	RECOG_RESP	2052174	n/a	LTP237	ltpFR	0	3	1	MARKER	870	0	n/a	0	n/a	n/a	n/a	n/a	n/a
4106.072	n/a	RECOG_CONF	2053036	n/a	LTP237	ltpFR	0	3	1	MARKER	870	n/a	2	0	n/a	n/a	n/a	n/a	n/a
4107.99	n/a	RECOG_LURE	2053995	n/a	LTP237	ltpFR	0	3	n/a	SEAL	1262	1	3	n/a	n/a	n/a	n/a	n/a	n/a
4109.596	n/a	RECOG_RESP	2054798	n/a	LTP237	ltpFR	0	3	n/a	SEAL	1262	1	n/a	n/a	n/a	n/a	n/a	n/a	n/a
4111.162	n/a	RECOG_CONF	2055581	n/a	LTP237	ltpFR	0	3	n/a	SEAL	1262	n/a	3	n/a	n/a	n/a	n/a	n/a	n/a
4113.06	n/a	RECOG_LURE	2056530	n/a	LTP237	ltpFR	0	3	n/a	ORCHID	982	1	2	n/a	n/a	n/a	n/a	n/a	n/a
4115.076	n/a	RECOG_RESP	2057538	n/a	LTP237	ltpFR	0	3	n/a	ORCHID	982	1	n/a	n/a	n/a	n/a	n/a	n/a	n/a
4116.748	n/a	RECOG_CONF	2058374	n/a	LTP237	ltpFR	0	3	n/a	ORCHID	982	n/a	2	n/a	n/a	n/a	n/a	n/a	n/a
4118.648	n/a	RECOG_LURE	2059324	n/a	LTP237	ltpFR	0	3	n/a	PAD	998	0	2	n/a	n/a	n/a	n/a	n/a	n/a
4120.784	n/a	RECOG_RESP	2060392	n/a	LTP237	ltpFR	0	3	n/a	PAD	998	0	n/a	n/a	n/a	n/a	n/a	n/a	n/a
4123.132	n/a	RECOG_CONF	2061566	n/a	LTP237	ltpFR	0	3	n/a	PAD	998	n/a	2	n/a	n/a	n/a	n/a	n/a	n/a
4124.722	n/a	RECOG_TARGET	2062361	n/a	LTP237	ltpFR	0	3	-1	CANAL	226	1	5	-1	n/a	n/a	n/a	n/a	n/a
4126.24	n/a	RECOG_RESP	2063120	n/a	LTP237	ltpFR	0	3	-1	CANAL	226	1	n/a	-1	n/a	n/a	n/a	n/a	n/a
4127.59	n/a	RECOG_CONF	2063795	n/a	LTP237	ltpFR	0	3	-1	CANAL	226	n/a	5	-1	n/a	n/a	n/a	n/a	n/a
4129.808	n/a	RECOG_TARGET	2064904	n/a	LTP237	ltpFR	0	3	1	SHRUB	1299	1	5	1	n/a	n/a	n/a	n/a	n/a
4130.792	n/a	RECOG_RESP	2065396	n/a	LTP237	ltpFR	0	3	1	SHRUB	1299	1	n/a	1	n/a	n/a	n/a	n/a	n/a
4132.23	n/a	RECOG_CONF	2066115	n/a	LTP237	ltpFR	0	3	1	SHRUB	1299	n/a	5	1	n/a	n/a	n/a	n/a	n/a
4134.09	n/a	RECOG_TARGET	2067045	n/a	LTP237	ltpFR	0	3	0	STOOL	1386	1	3	1	n/a	n/a	n/a	n/a	n/a
4136.128	n/a	RECOG_RESP	2068064	n/a	LTP237	ltpFR	0	3	0	STOOL	1386	1	n/a	1	n/a	n/a	n/a	n/a	n/a
4138.0	n/a	RECOG_CONF	2069000	n/a	LTP237	ltpFR	0	3	0	STOOL	1386	n/a	3	1	n/a	n/a	n/a	n/a	n/a
4139.88	n/a	RECOG_TARGET	2069940	n/a	LTP237	ltpFR	0	3	0	BAY	102	1	5	0	n/a	n/a	n/a	n/a	n/a
4141.052	n/a	RECOG_RESP	2070526	n/a	LTP237	ltpFR	0	3	0	BAY	102	1	n/a	0	n/a	n/a	n/a	n/a	n/a
4142.676	n/a	RECOG_CONF	2071338	n/a	LTP237	ltpFR	0	3	0	BAY	102	n/a	5	0	n/a	n/a	n/a	n/a	n/a
4144.832	n/a	RECOG_TARGET	2072416	n/a	LTP237	ltpFR	0	3	0	ASSOCIATE	49	1	2	1	n/a	n/a	n/a	n/a	n/a
4146.576	n/a	RECOG_RESP	2073288	n/a	LTP237	ltpFR	0	3	0	ASSOCIATE	49	1	n/a	1	n/a	n/a	n/a	n/a	n/a
4148.238	n/a	RECOG_CONF	2074119	n/a	LTP237	ltpFR	0	3	0	ASSOCIATE	49	n/a	2	1	n/a	n/a	n/a	n/a	n/a
4150.352	n/a	RECOG_TARGET	2075176	n/a	LTP237	ltpFR	0	3	1	MAMMAL	861	1	5	1	n/a	n/a	n/a	n/a	n/a
4151.344	n/a	RECOG_RESP	2075672	n/a	LTP237	ltpFR	0	3	1	MAMMAL	861	1	n/a	1	n/a	n/a	n/a	n/a	n/a
4153.046	n/a	RECOG_CONF	2076523	n/a	LTP237	ltpFR	0	3	1	MAMMAL	861	n/a	5	1	n/a	n/a	n/a	n/a	n/a
4155.138	n/a	RECOG_TARGET	2077569	n/a	LTP237	ltpFR	0	3	-1	DISH	474	1	5	-1	n/a	n/a	n/a	n/a	n/a
4156.146	n/a	RECOG_RESP	2078073	n/a	LTP237	ltpFR	0	3	-1	DISH	474	1	n/a	-1	n/a	n/a	n/a	n/a	n/a
4157.538	n/a	RECOG_CONF	2078769	n/a	LTP237	ltpFR	0	3	-1	DISH	474	n/a	5	-1	n/a	n/a	n/a	n/a	n/a
4240.132	n/a	REC_START	2120066	n/a	LTP237	ltpFR	0	4	n/a	n/a	n/a	n/a	n/a	n/a	n/a	n/a	n/a	n/a	n/a
4240.18	n/a	RECOG_TARGET	2120090	n/a	LTP237	ltpFR	0	4	-1	OATMEAL	967	0	3	-1	n/a	n/a	n/a	n/a	n/a
4241.516	n/a	RECOG_RESP	2120758	n/a	LTP237	ltpFR	0	4	-1	OATMEAL	967	0	n/a	-1	n/a	n/a	n/a	n/a	n/a
4243.434	n/a	RECOG_CONF	2121717	n/a	LTP237	ltpFR	0	4	-1	OATMEAL	967	n/a	3	-1	n/a	n/a	n/a	n/a	n/a
4245.114	n/a	RECOG_TARGET	2122557	n/a	LTP237	ltpFR	0	4	0	BASKET	95	1	2	1	n/a	n/a	n/a	n/a	n/a
4246.256	n/a	RECOG_RESP	2123128	n/a	LTP237	ltpFR	0	4	0	BASKET	95	1	n/a	1	n/a	n/a	n/a	n/a	n/a
4247.976	n/a	RECOG_CONF	2123988	n/a	LTP237	ltpFR	0	4	0	BASKET	95	n/a	2	1	n/a	n/a	n/a	n/a	n/a
4249.732	n/a	RECOG_LURE	2124866	n/a	LTP237	ltpFR	0	4	n/a	CACTUS	215	1	4	n/a	n/a	n/a	n/a	n/a	n/a
4251.498	n/a	RECOG_RESP	2125749	n/a	LTP237	ltpFR	0	4	n/a	CACTUS	215	1	n/a	n/a	n/a	n/a	n/a	n/a	n/a
4253.122	n/a	RECOG_CONF	2126561	n/a	LTP237	ltpFR	0	4	n/a	CACTUS	215	n/a	4	n/a	n/a	n/a	n/a	n/a	n/a
4255.27	n/a	RECOG_TARGET	2127635	n/a	LTP237	ltpFR	0	4	1	DAUGHTER	442	1	5	1	n/a	n/a	n/a	n/a	n/a
4256.332	n/a	RECOG_RESP	2128166	n/a	LTP237	ltpFR	0	4	1	DAUGHTER	442	1	n/a	1	n/a	n/a	n/a	n/a	n/a
4258.06	n/a	RECOG_CONF	2129030	n/a	LTP237	ltpFR	0	4	1	DAUGHTER	442	n/a	5	1	n/a	n/a	n/a	n/a	n/a
4260.508	n/a	RECOG_LURE	2130254	n/a	LTP237	ltpFR	0	4	n/a	RUBY	1214	0	3	n/a	n/a	n/a	n/a	n/a	n/a
4262.16	n/a	RECOG_RESP	2131080	n/a	LTP237	ltpFR	0	4	n/a	RUBY	1214	0	n/a	n/a	n/a	n/a	n/a	n/a	n/a
4263.886	n/a	RECOG_CONF	2131943	n/a	LTP237	ltpFR	0	4	n/a	RUBY	1214	n/a	3	n/a	n/a	n/a	n/a	n/a	n/a
4265.576	n/a	RECOG_LURE	2132788	n/a	LTP237	ltpFR	0	4	n/a	WORM	1623	0	3	n/a	n/a	n/a	n/a	n/a	n/a
4266.634	n/a	RECOG_RESP	2133317	n/a	LTP237	ltpFR	0	4	n/a	WORM	1623	0	n/a	n/a	n/a	n/a	n/a	n/a	n/a
4268.634	n/a	RECOG_CONF	2134317	n/a	LTP237	ltpFR	0	4	n/a	WORM	1623	n/a	3	n/a	n/a	n/a	n/a	n/a	n/a
4270.614	n/a	RECOG_TARGET	2135307	n/a	LTP237	ltpFR	0	4	0	RUST	1219	1	5	0	n/a	n/a	n/a	n/a	n/a
4271.77	n/a	RECOG_RESP	2135885	n/a	LTP237	ltpFR	0	4	0	RUST	1219	1	n/a	0	n/a	n/a	n/a	n/a	n/a
4273.256	n/a	RECOG_CONF	2136628	n/a	LTP237	ltpFR	0	4	0	RUST	1219	n/a	5	0	n/a	n/a	n/a	n/a	n/a
4275.18	n/a	RECOG_LURE	2137590	n/a	LTP237	ltpFR	0	4	n/a	BANKER	84	1	5	n/a	n/a	n/a	n/a	n/a	n/a
4276.14	n/a	RECOG_RESP	2138070	n/a	LTP237	ltpFR	0	4	n/a	BANKER	84	1	n/a	n/a	n/a	n/a	n/a	n/a	n/a
4277.838	n/a	RECOG_CONF	2138919	n/a	LTP237	ltpFR	0	4	n/a	BANKER	84	n/a	5	n/a	n/a	n/a	n/a	n/a	n/a
4279.764	n/a	RECOG_TARGET	2139882	n/a	LTP237	ltpFR	0	4	0	STORE	1387	1	4	0	n/a	n/a	n/a	n/a	n/a
4280.934	n/a	RECOG_RESP	2140467	n/a	LTP237	ltpFR	0	4	0	STORE	1387	1	n/a	0	n/a	n/a	n/a	n/a	n/a
4282.75	n/a	RECOG_CONF	2141375	n/a	LTP237	ltpFR	0	4	0	STORE	1387	n/a	4	0	n/a	n/a	n/a	n/a	n/a
4284.682	n/a	RECOG_TARGET	2142341	n/a	LTP237	ltpFR	0	4	0	VETERAN	1561	1	5	1	n/a	n/a	n/a	n/a	n/a
4285.61	n/a	RECOG_RESP	2142805	n/a	LTP237	ltpFR	0	4	0	VETERAN	1561	1	n/a	1	n/a	n/a	n/a	n/a	n/a
4287.208	n/a	RECOG_CONF	2143604	n/a	LTP237	ltpFR	0	4	0	VETERAN	1561	n/a	5	1	n/a	n/a	n/a	n/a	n/a
4289.318	n/a	RECOG_LURE	2144659	n/a	LTP237	ltpFR	0	4	n/a	MIRROR	899	0	1	n/a	n/a	n/a	n/a	n/a	n/a
4290.974	n/a	RECOG_RESP	2145487	n/a	LTP237	ltpFR	0	4	n/a	MIRROR	899	0	n/a	n/a	n/a	n/a	n/a	n/a	n/a
4292.92	n/a	RECOG_CONF	2146460	n/a	LTP237	ltpFR	0	4	n/a	MIRROR	899	n/a	1	n/a	n/a	n/a	n/a	n/a	n/a
4294.722	n/a	RECOG_TARGET	2147361	n/a	LTP237	ltpFR	0	4	1	KNOT	788	1	5	0	n/a	n/a	n/a	n/a	n/a
4296.322	n/a	RECOG_RESP	2148161	n/a	LTP237	ltpFR	0	4	1	KNOT	788	1	n/a	0	n/a	n/a	n/a	n/a	n/a
4297.994	n/a	RECOG_CONF	2148997	n/a	LTP237	ltpFR	0	4	1	KNOT	788	n/a	5	0	n/a	n/a	n/a	n/a	n/a
4299.824	n/a	RECOG_TARGET	2149912	n/a	LTP237	ltpFR	0	4	0	RAKE	1164	1	5	1	n/a	n/a	n/a	n/a	n/a
4300.782	n/a	RECOG_RESP	2150391	n/a	LTP237	ltpFR	0	4	0	RAKE	1164	1	n/a	1	n/a	n/a	n/a	n/a	n/a
4302.326	n/a	RECOG_CONF	2151163	n/a	LTP237	ltpFR	0	4	0	RAKE	1164	n/a	5	1	n/a	n/a	n/a	n/a	n/a
4304.174	n/a	RECOG_TARGET	2152087	n/a	LTP237	ltpFR	0	4	1	MINK	897	1	5	0	n/a	n/a	n/a	n/a	n/a
4305.256	n/a	RECOG_RESP	2152628	n/a	LTP237	ltpFR	0	4	1	MINK	897	1	n/a	0	n/a	n/a	n/a	n/a	n/a
4307.008	n/a	RECOG_CONF	2153504	n/a	LTP237	ltpFR	0	4	1	MINK	897	n/a	5	0	n/a	n/a	n/a	n/a	n/a
4308.976	n/a	RECOG_TARGET	2154488	n/a	LTP237	ltpFR	0	4	1	WINDSHIELD	1612	1	5	0	n/a	n/a	n/a	n/a	n/a
4310.114	n/a	RECOG_RESP	2155057	n/a	LTP237	ltpFR	0	4	1	WINDSHIELD	1612	1	n/a	0	n/a	n/a	n/a	n/a	n/a
4311.612	n/a	RECOG_CONF	2155806	n/a	LTP237	ltpFR	0	4	1	WINDSHIELD	1612	n/a	5	0	n/a	n/a	n/a	n/a	n/a
4313.444	n/a	RECOG_LURE	2156722	n/a	LTP237	ltpFR	0	4	n/a	COIN	343	1	2	n/a	n/a	n/a	n/a	n/a	n/a
4314.984	n/a	RECOG_RESP	2157492	n/a	LTP237	ltpFR	0	4	n/a	COIN	343	1	n/a	n/a	n/a	n/a	n/a	n/a	n/a
4316.696	n/a	RECOG_CONF	2158348	n/a	LTP237	ltpFR	0	4	n/a	COIN	343	n/a	2	n/a	n/a	n/a	n/a	n/a	n/a
4318.53	n/a	RECOG_TARGET	2159265	n/a	LTP237	ltpFR	0	4	0	SCALLOP	1242	1	5	0	n/a	n/a	n/a	n/a	n/a
4319.438	n/a	RECOG_RESP	2159719	n/a	LTP237	ltpFR	0	4	0	SCALLOP	1242	1	n/a	0	n/a	n/a	n/a	n/a	n/a
4321.032	n/a	RECOG_CONF	2160516	n/a	LTP237	ltpFR	0	4	0	SCALLOP	1242	n/a	5	0	n/a	n/a	n/a	n/a	n/a
4322.962	n/a	RECOG_TARGET	2161481	n/a	LTP237	ltpFR	0	4	0	SPHINX	1349	1	4	1	n/a	n/a	n/a	n/a	n/a
4324.066	n/a	RECOG_RESP	2162033	n/a	LTP237	ltpFR	0	4	0	SPHINX	1349	1	n/a	1	n/a	n/a	n/a	n/a	n/a
4325.756	n/a	RECOG_CONF	2162878	n/a	LTP237	ltpFR	0	4	0	SPHINX	1349	n/a	4	1	n/a	n/a	n/a	n/a	n/a
4327.548	n/a	RECOG_TARGET	2163774	n/a	LTP237	ltpFR	0	4	1	FEATHER	557	1	4	0	n/a	n/a	n/a	n/a	n/a
4328.674	n/a	RECOG_RESP	2164337	n/a	LTP237	ltpFR	0	4	1	FEATHER	557	1	n/a	0	n/a	n/a	n/a	n/a	n/a
4330.322	n/a	RECOG_CONF	2165161	n/a	LTP237	ltpFR	0	4	1	FEATHER	557	n/a	4	0	n/a	n/a	n/a	n/a	n/a
4332.014	n/a	RECOG_TARGET	2166007	n/a	LTP237	ltpFR	0	4	1	POSSUM	1112	1	5	1	n/a	n/a	n/a	n/a	n/a
4332.974	n/a	RECOG_RESP	2166487	n/a	LTP237	ltpFR	0	4	1	POSSUM	1112	1	n/a	1	n/a	n/a	n/a	n/a	n/a
4334.494	n/a	RECOG_CONF	2167247	n/a	LTP237	ltpFR	0	4	1	POSSUM	1112	n/a	5	1	n/a	n/a	n/a	n/a	n/a
4340.608	n/a	REC_START	2170304	n/a	LTP237	ltpFR	0	5	n/a	n/a	n/a	n/a	n/a	n/a	n/a	n/a	n/a	n/a	n/a
4340.664	n/a	RECOG_TARGET	2170332	n/a	LTP237	ltpFR	0	5	0	THORN	1459	1	5	0	n/a	n/a	n/a	n/a	n/a
4341.59	n/a	RECOG_RESP	2170795	n/a	LTP237	ltpFR	0	5	0	THORN	1459	1	n/a	0	n/a	n/a	n/a	n/a	n/a
4343.162	n/a	RECOG_CONF	2171581	n/a	LTP237	ltpFR	0	5	0	THORN	1459	n/a	5	0	n/a	n/a	n/a	n/a	n/a
4345.246	n/a	RECOG_TARGET	2172623	n/a	LTP237	ltpFR	0	5	0	TREASURE	1500	1	4	1	n/a	n/a	n/a	n/a	n/a
4346.094	n/a	RECOG_RESP	2173047	n/a	LTP237	ltpFR	0	5	0	TREASURE	1500	1	n/a	1	n/a	n/a	n/a	n/a	n/a
4347.688	n/a	RECOG_CONF	2173844	n/a	LTP237	ltpFR	0	5	0	TREASURE	1500	n/a	4	1	n/a	n/a	n/a	n/a	n/a
4349.766	n/a	RECOG_TARGET	2174883	n/a	LTP237	ltpFR	0	5	-1	BARREL	91	1	5	-1	n/a	n/a	n/a	n/a	n/a
4350.816	n/a	RECOG_RESP	2175408	n/a	LTP237	ltpFR	0	5	-1	BARREL	91	1	n/a	-1	n/a	n/a	n/a	n/a	n/a
4352.642	n/a	RECOG_CONF	2176321	n/a	LTP237	ltpFR	0	5	-1	BARREL	91	n/a	5	-1	n/a	n/a	n/a	n/a	n/a
4355.034	n/a	RECOG_TARGET	2177517	n/a	LTP237	ltpFR	0	5	0	ELECTRICIAN	521	0	3	1	n/a	n/a	n/a	n/a	n/a
4356.47	n/a	RECOG_RESP	2178235	n/a	LTP237	ltpFR	0	5	0	ELECTRICIAN	521	0	n/a	1	n/a	n/a	n/a	n/a	n/a
4358.548	n/a	RECOG_CONF	2179274	n/a	LTP237	ltpFR	0	5	0	ELECTRICIAN	521	n/a	3	1	n/a	n/a	n/a	n/a	n/a
4360.272	n/a	RECOG_TARGET	2180136	n/a	LTP237	ltpFR	0	5	1	PISTON	1076	1	5	1	n/a	n/a	n/a	n/a	n/a
4361.208	n/a	RECOG_RESP	2180604	n/a	LTP237	ltpFR	0	5	1	PISTON	1076	1	n/a	1	n/a	n/a	n/a	n/a	n/a
4362.952	n/a	RECOG_CONF	2181476	n/a	LTP237	ltpFR	0	5	1	PISTON	1076	n/a	5	1	n/a	n/a	n/a	n/a	n/a
4364.938	n/a	RECOG_TARGET	2182469	n/a	LTP237	ltpFR	0	5	1	DANDRUFF	439	1	5	0	n/a	n/a	n/a	n/a	n/a
4365.876	n/a	RECOG_RESP	2182938	n/a	LTP237	ltpFR	0	5	1	DANDRUFF	439	1	n/a	0	n/a	n/a	n/a	n/a	n/a
4367.668	n/a	RECOG_CONF	2183834	n/a	LTP237	ltpFR	0	5	1	DANDRUFF	439	n/a	5	0	n/a	n/a	n/a	n/a	n/a
4369.49	n/a	RECOG_TARGET	2184745	n/a	LTP237	ltpFR	0	5	0	KIWI	781	1	5	0	n/a	n/a	n/a	n/a	n/a
4370.706	n/a	RECOG_RESP	2185353	n/a	LTP237	ltpFR	0	5	0	KIWI	781	1	n/a	0	n/a	n/a	n/a	n/a	n/a
4372.56	n/a	RECOG_CONF	2186280	n/a	LTP237	ltpFR	0	5	0	KIWI	781	n/a	5	0	n/a	n/a	n/a	n/a	n/a
4374.594	n/a	RECOG_TARGET	2187297	n/a	LTP237	ltpFR	0	5	-1	WALRUS	1585	1	5	-1	n/a	n/a	n/a	n/a	n/a
4375.44	n/a	RECOG_RESP	2187720	n/a	LTP237	ltpFR	0	5	-1	WALRUS	1585	1	n/a	-1	n/a	n/a	n/a	n/a	n/a
4377.064	n/a	RECOG_CONF	2188532	n/a	LTP237	ltpFR	0	5	-1	WALRUS	1585	n/a	5	-1	n/a	n/a	n/a	n/a	n/a
4378.958	n/a	RECOG_LURE	2189479	n/a	LTP237	ltpFR	0	5	n/a	MOOSE	915	1	3	n/a	n/a	n/a	n/a	n/a	n/a
4379.95	n/a	RECOG_RESP	2189975	n/a	LTP237	ltpFR	0	5	n/a	MOOSE	915	1	n/a	n/a	n/a	n/a	n/a	n/a	n/a
4382.286	n/a	RECOG_CONF	2191143	n/a	LTP237	ltpFR	0	5	n/a	MOOSE	915	n/a	3	n/a	n/a	n/a	n/a	n/a	n/a
4383.944	n/a	RECOG_TARGET	2191972	n/a	LTP237	ltpFR	0	5	1	BISON	131	1	2	1	n/a	n/a	n/a	n/a	n/a
4385.076	n/a	RECOG_RESP	2192538	n/a	LTP237	ltpFR	0	5	1	BISON	131	1	n/a	1	n/a	n/a	n/a	n/a	n/a
4387.072	n/a	RECOG_CONF	2193536	n/a	LTP237	ltpFR	0	5	1	BISON	131	n/a	2	1	n/a	n/a	n/a	n/a	n/a
4389.048	n/a	RECOG_TARGET	2194524	n/a	LTP237	ltpFR	0	5	1	UNCLE	1536	1	5	1	n/a	n/a	n/a	n/a	n/a
4390.122	n/a	RECOG_RESP	2195061	n/a	LTP237	ltpFR	0	5	1	UNCLE	1536	1	n/a	1	n/a	n/a	n/a	n/a	n/a
4391.948	n/a	RECOG_CONF	2195974	n/a	LTP237	ltpFR	0	5	1	UNCLE	1536	n/a	5	1	n/a	n/a	n/a	n/a	n/a
4393.732	n/a	RECOG_TARGET	2196866	n/a	LTP237	ltpFR	0	5	0	MONARCH	906	0	1	0	n/a	n/a	n/a	n/a	n/a
4395.544	n/a	RECOG_RESP	2197772	n/a	LTP237	ltpFR	0	5	0	MONARCH	906	0	n/a	0	n/a	n/a	n/a	n/a	n/a
4397.358	n/a	RECOG_CONF	2198679	n/a	LTP237	ltpFR	0	5	0	MONARCH	906	n/a	1	0	n/a	n/a	n/a	n/a	n/a
4399.638	n/a	RECOG_LURE	2199819	n/a	LTP237	ltpFR	0	5	n/a	BARLEY	88	0	1	n/a	n/a	n/a	n/a	n/a	n/a
4401.624	n/a	RECOG_RESP	2200812	n/a	LTP237	ltpFR	0	5	n/a	BARLEY	88	0	n/a	n/a	n/a	n/a	n/a	n/a	n/a
4403.166	n/a	RECOG_CONF	2201583	n/a	LTP237	ltpFR	0	5	n/a	BARLEY	88	n/a	1	n/a	n/a	n/a	n/a	n/a	n/a
4405.11	n/a	RECOG_TARGET	2202555	n/a	LTP237	ltpFR	0	5	1	DILL	465	1	5	1	n/a	n/a	n/a	n/a	n/a
4406.024	n/a	RECOG_RESP	2203012	n/a	LTP237	ltpFR	0	5	1	DILL	465	1	n/a	1	n/a	n/a	n/a	n/a	n/a
4407.642	n/a	RECOG_CONF	2203821	n/a	LTP237	ltpFR	0	5	1	DILL	465	n/a	5	1	n/a	n/a	n/a	n/a	n/a
4409.576	n/a	RECOG_TARGET	2204788	n/a	LTP237	ltpFR	0	5	1	PICNIC	1060	1	5	0	n/a	n/a	n/a	n/a	n/a
4410.518	n/a	RECOG_RESP	2205259	n/a	LTP237	ltpFR	0	5	1	PICNIC	1060	1	n/a	0	n/a	n/a	n/a	n/a	n/a
4412.462	n/a	RECOG_CONF	2206231	n/a	LTP237	ltpFR	0	5	1	PICNIC	1060	n/a	5	0	n/a	n/a	n/a	n/a	n/a
4414.512	n/a	RECOG_TARGET	2207256	n/a	LTP237	ltpFR	0	5	0	WAGON	1578	1	5	1	n/a	n/a	n/a	n/a	n/a
4415.772	n/a	RECOG_RESP	2207886	n/a	LTP237	ltpFR	0	5	0	WAGON	1578	1	n/a	1	n/a	n/a	n/a	n/a	n/a
4417.508	n/a	RECOG_CONF	2208754	n/a	LTP237	ltpFR	0	5	0	WAGON	1578	n/a	5	1	n/a	n/a	n/a	n/a	n/a
4419.548	n/a	RECOG_LURE	2209774	n/a	LTP237	ltpFR	0	5	n/a	BOULEVARD	156	0	4	n/a	n/a	n/a	n/a	n/a	n/a
4420.668	n/a	RECOG_RESP	2210334	n/a	LTP237	ltpFR	0	5	n/a	BOULEVARD	156	0	n/a	n/a	n/a	n/a	n/a	n/a	n/a
4422.552	n/a	RECOG_CONF	2211276	n/a	LTP237	ltpFR	0	5	n/a	BOULEVARD	156	n/a	4	n/a	n/a	n/a	n/a	n/a	n/a
4424.45	n/a	RECOG_LURE	2212225	n/a	LTP237	ltpFR	0	5	n/a	COWBOY	395	0	1	n/a	n/a	n/a	n/a	n/a	n/a
4425.494	n/a	RECOG_RESP	2212747	n/a	LTP237	ltpFR	0	5	n/a	COWBOY	395	0	n/a	n/a	n/a	n/a	n/a	n/a	n/a
4427.64	n/a	RECOG_CONF	2213820	n/a	LTP237	ltpFR	0	5	n/a	COWBOY	395	n/a	1	n/a	n/a	n/a	n/a	n/a	n/a
4429.486	n/a	RECOG_LURE	2214743	n/a	LTP237	ltpFR	0	5	n/a	METEOR	889	0	2	n/a	n/a	n/a	n/a	n/a	n/a
4430.84	n/a	RECOG_RESP	2215420	n/a	LTP237	ltpFR	0	5	n/a	METEOR	889	0	n/a	n/a	n/a	n/a	n/a	n/a	n/a
4432.784	n/a	RECOG_CONF	2216392	n/a	LTP237	ltpFR	0	5	n/a	METEOR	889	n/a	2	n/a	n/a	n/a	n/a	n/a	n/a
4435.04	n/a	RECOG_TARGET	2217520	n/a	LTP237	ltpFR	0	5	0	TRAY	1498	1	3	1	n/a	n/a	n/a	n/a	n/a
4436.332	n/a	RECOG_RESP	2218166	n/a	LTP237	ltpFR	0	5	0	TRAY	1498	1	n/a	1	n/a	n/a	n/a	n/a	n/a
4438.276	n/a	RECOG_CONF	2219138	n/a	LTP237	ltpFR	0	5	0	TRAY	1498	n/a	3	1	n/a	n/a	n/a	n/a	n/a
4443.316	n/a	REC_START	2221658	n/a	LTP237	ltpFR	0	6	n/a	n/a	n/a	n/a	n/a	n/a	n/a	n/a	n/a	n/a	n/a
4443.374	n/a	RECOG_TARGET	2221687	n/a	LTP237	ltpFR	0	6	1	PIGEON	1065	1	2	1	n/a	n/a	n/a	n/a	n/a
4444.686	n/a	RECOG_RESP	2222343	n/a	LTP237	ltpFR	0	6	1	PIGEON	1065	1	n/a	1	n/a	n/a	n/a	n/a	n/a
4446.71	n/a	RECOG_CONF	2223355	n/a	LTP237	ltpFR	0	6	1	PIGEON	1065	n/a	2	1	n/a	n/a	n/a	n/a	n/a
4448.526	n/a	RECOG_TARGET	2224263	n/a	LTP237	ltpFR	0	6	-1	LUNCH	849	1	5	-1	n/a	n/a	n/a	n/a	n/a
4449.386	n/a	RECOG_RESP	2224693	n/a	LTP237	ltpFR	0	6	-1	LUNCH	849	1	n/a	-1	n/a	n/a	n/a	n/a	n/a
4451.132	n/a	RECOG_CONF	2225566	n/a	LTP237	ltpFR	0	6	-1	LUNCH	849	n/a	5	-1	n/a	n/a	n/a	n/a	n/a
4452.91	n/a	RECOG_TARGET	2226455	n/a	LTP237	ltpFR	0	6	0	CEILING	265	1	5	1	n/a	n/a	n/a	n/a	n/a
4453.772	n/a	RECOG_RESP	2226886	n/a	LTP237	ltpFR	0	6	0	CEILING	265	1	n/a	1	n/a	n/a	n/a	n/a	n/a
4455.458	n/a	RECOG_CONF	2227729	n/a	LTP237	ltpFR	0	6	0	CEILING	265	n/a	5	1	n/a	n/a	n/a	n/a	n/a
4457.374	n/a	RECOG_TARGET	2228687	n/a	LTP237	ltpFR	0	6	0	CRAB	397	1	4	0	n/a	n/a	n/a	n/a	n/a
4458.748	n/a	RECOG_RESP	2229374	n/a	LTP237	ltpFR	0	6	0	CRAB	397	1	n/a	0	n/a	n/a	n/a	n/a	n/a
4460.418	n/a	RECOG_CONF	2230209	n/a	LTP237	ltpFR	0	6	0	CRAB	397	n/a	4	0	n/a	n/a	n/a	n/a	n/a
4462.244	n/a	RECOG_TARGET	2231122	n/a	LTP237	ltpFR	0	6	-1	RADISH	1158	0	3	-1	n/a	n/a	n/a	n/a	n/a
4463.792	n/a	RECOG_RESP	2231896	n/a	LTP237	ltpFR	0	6	-1	RADISH	1158	0	n/a	-1	n/a	n/a	n/a	n/a	n/a
4465.774	n/a	RECOG_CONF	2232887	n/a	LTP237	ltpFR	0	6	-1	RADISH	1158	n/a	3	-1	n/a	n/a	n/a	n/a	n/a
4467.598	n/a	RECOG_LURE	2233799	n/a	LTP237	ltpFR	0	6	n/a	MONEY	908	0	2	n/a	n/a	n/a	n/a	n/a	n/a
4468.666	n/a	RECOG_RESP	2234333	n/a	LTP237	ltpFR	0	6	n/a	MONEY	908	0	n/a	n/a	n/a	n/a	n/a	n/a	n/a
4470.386	n/a	RECOG_CONF	2235193	n/a	LTP237	ltpFR	0	6	n/a	MONEY	908	n/a	2	n/a	n/a	n/a	n/a	n/a	n/a
4472.366	n/a	RECOG_TARGET	2236183	n/a	LTP237	ltpFR	0	6	0	FRAGRANCE	599	1	5	0	n/a	n/a	n/a	n/a	n/a
4473.388	n/a	RECOG_RESP	2236694	n/a	LTP237	ltpFR	0	6	0	FRAGRANCE	599	1	n/a	0	n/a	n/a	n/a	n/a	n/a
4475.034	n/a	RECOG_CONF	2237517	n/a	LTP237	ltpFR	0	6	0	FRAGRANCE	599	n/a	5	0	n/a	n/a	n/a	n/a	n/a
4476.966	n/a	RECOG_TARGET	2238483	n/a	LTP237	ltpFR	0	6	1	BATTERY	101	1	5	0	n/a	n/a	n/a	n/a	n/a
4477.868	n/a	RECOG_RESP	2238934	n/a	LTP237	ltpFR	0	6	1	BATTERY	101	1	n/a	0	n/a	n/a	n/a	n/a	n/a
4479.14	n/a	RECOG_CONF	2239570	n/a	LTP237	ltpFR	0	6	1	BATTERY	101	n/a	5	0	n/a	n/a	n/a	n/a	n/a
4480.95	n/a	RECOG_TARGET	2240475	n/a	LTP237	ltpFR	0	6	0	DOUGHNUT	490	1	5	0	n/a	n/a	n/a	n/a	n/a
4482.046	n/a	RECOG_RESP	2241023	n/a	LTP237	ltpFR	0	6	0	DOUGHNUT	490	1	n/a	0	n/a	n/a	n/a	n/a	n/a
4483.74	n/a	RECOG_CONF	2241870	n/a	LTP237	ltpFR	0	6	0	DOUGHNUT	490	n/a	5	0	n/a	n/a	n/a	n/a	n/a
4485.518	n/a	RECOG_LURE	2242759	n/a	LTP237	ltpFR	0	6	n/a	RUM	1217	0	1	n/a	n/a	n/a	n/a	n/a	n/a
4487.136	n/a	RECOG_RESP	2243568	n/a	LTP237	ltpFR	0	6	n/a	RUM	1217	0	n/a	n/a	n/a	n/a	n/a	n/a	n/a
4488.884	n/a	RECOG_CONF	2244442	n/a	LTP237	ltpFR	0	6	n/a	RUM	1217	n/a	1	n/a	n/a	n/a	n/a	n/a	n/a
4490.888	n/a	RECOG_LURE	2245444	n/a	LTP237	ltpFR	0	6	n/a	MATTRESS	879	0	1	n/a	n/a	n/a	n/a	n/a	n/a
4492.546	n/a	RECOG_RESP	2246273	n/a	LTP237	ltpFR	0	6	n/a	MATTRESS	879	0	n/a	n/a	n/a	n/a	n/a	n/a	n/a
4494.92	n/a	RECOG_CONF	2247460	n/a	LTP237	ltpFR	0	6	n/a	MATTRESS	879	n/a	1	n/a	n/a	n/a	n/a	n/a	n/a
4496.942	n/a	RECOG_TARGET	2248471	n/a	LTP237	ltpFR	0	6	0	ENVELOPE	537	1	5	0	n/a	n/a	n/a	n/a	n/a
4498.482	n/a	RECOG_RESP	2249241	n/a	LTP237	ltpFR	0	6	0	ENVELOPE	537	1	n/a	0	n/a	n/a	n/a	n/a	n/a
4500.172	n/a	RECOG_CONF	2250086	n/a	LTP237	ltpFR	0	6	0	ENVELOPE	537	n/a	5	0	n/a	n/a	n/a	n/a	n/a
4502.382	n/a	RECOG_LURE	2251191	n/a	LTP237	ltpFR	0	6	n/a	PROTON	1132	0	3	n/a	n/a	n/a	n/a	n/a	n/a
4504.466	n/a	RECOG_RESP	2252233	n/a	LTP237	ltpFR	0	6	n/a	PROTON	1132	0	n/a	n/a	n/a	n/a	n/a	n/a	n/a
4506.714	n/a	RECOG_CONF	2253357	n/a	LTP237	ltpFR	0	6	n/a	PROTON	1132	n/a	3	n/a	n/a	n/a	n/a	n/a	n/a
4508.504	n/a	RECOG_TARGET	2254252	n/a	LTP237	ltpFR	0	6	1	BANK	83	1	3	0	n/a	n/a	n/a	n/a	n/a
4509.946	n/a	RECOG_RESP	2254973	n/a	LTP237	ltpFR	0	6	1	BANK	83	1	n/a	0	n/a	n/a	n/a	n/a	n/a
4512.526	n/a	RECOG_CONF	2256263	n/a	LTP237	ltpFR	0	6	1	BANK	83	n/a	3	0	n/a	n/a	n/a	n/a	n/a
4514.226	n/a	RECOG_TARGET	2257113	n/a	LTP237	ltpFR	0	6	0	FRIEND	606	1	5	1	n/a	n/a	n/a	n/a	n/a
4515.342	n/a	RECOG_RESP	2257671	n/a	LTP237	ltpFR	0	6	0	FRIEND	606	1	n/a	1	n/a	n/a	n/a	n/a	n/a
4516.976	n/a	RECOG_CONF	2258488	n/a	LTP237	ltpFR	0	6	0	FRIEND	606	n/a	5	1	n/a	n/a	n/a	n/a	n/a
4518.794	n/a	RECOG_TARGET	2259397	n/a	LTP237	ltpFR	0	6	0	MARKET	871	1	3	1	n/a	n/a	n/a	n/a	n/a
4519.962	n/a	RECOG_RESP	2259981	n/a	LTP237	ltpFR	0	6	0	MARKET	871	1	n/a	1	n/a	n/a	n/a	n/a	n/a
4521.946	n/a	RECOG_CONF	2260973	n/a	LTP237	ltpFR	0	6	0	MARKET	871	n/a	3	1	n/a	n/a	n/a	n/a	n/a
4523.864	n/a	RECOG_TARGET	2261932	n/a	LTP237	ltpFR	0	6	0	PAINT	1003	1	4	0	n/a	n/a	n/a	n/a	n/a
4525.548	n/a	RECOG_RESP	2262774	n/a	LTP237	ltpFR	0	6	0	PAINT	1003	1	n/a	0	n/a	n/a	n/a	n/a	n/a
4527.934	n/a	RECOG_CONF	2263967	n/a	LTP237	ltpFR	0	6	0	PAINT	1003	n/a	4	0	n/a	n/a	n/a	n/a	n/a
4529.752	n/a	RECOG_TARGET	2264876	n/a	LTP237	ltpFR	0	6	1	RAZOR	1171	1	3	0	n/a	n/a	n/a	n/a	n/a
4530.718	n/a	RECOG_RESP	2265359	n/a	LTP237	ltpFR	0	6	1	RAZOR	1171	1	n/a	0	n/a	n/a	n/a	n/a	n/a
4532.914	n/a	RECOG_CONF	2266457	n/a	LTP237	ltpFR	0	6	1	RAZOR	1171	n/a	3	0	n/a	n/a	n/a	n/a	n/a
4534.688	n/a	RECOG_LURE	2267344	n/a	LTP237	ltpFR	0	6	n/a	BINDER	127	0	2	n/a	n/a	n/a	n/a	n/a	n/a
4535.91	n/a	RECOG_RESP	2267955	n/a	LTP237	ltpFR	0	6	n/a	BINDER	127	0	n/a	n/a	n/a	n/a	n/a	n/a	n/a
4538.444	n/a	RECOG_CONF	2269222	n/a	LTP237	ltpFR	0	6	n/a	BINDER	127	n/a	2	n/a	n/a	n/a	n/a	n/a	n/a
4540.244	n/a	RECOG_TARGET	2270122	n/a	LTP237	ltpFR	0	6	1	STRING	1394	1	5	0	n/a	n/a	n/a	n/a	n/a
4541.696	n/a	RECOG_RESP	2270848	n/a	LTP237	ltpFR	0	6	1	STRING	1394	1	n/a	0	n/a	n/a	n/a	n/a	n/a
4543.618	n/a	RECOG_CONF	2271809	n/a	LTP237	ltpFR	0	6	1	STRING	1394	n/a	5	0	n/a	n/a	n/a	n/a	n/a
4552.494	n/a	REC_START	2276247	n/a	LTP237	ltpFR	0	7	n/a	n/a	n/a	n/a	n/a	n/a	n/a	n/a	n/a	n/a	n/a
4552.54	n/a	RECOG_TARGET	2276270	n/a	LTP237	ltpFR	0	7	1	MINT	898	1	3	0	n/a	n/a	n/a	n/a	n/a
4553.822	n/a	RECOG_RESP	2276911	n/a	LTP237	ltpFR	0	7	1	MINT	898	1	n/a	0	n/a	n/a	n/a	n/a	n/a
4556.81	n/a	RECOG_CONF	2278405	n/a	LTP237	ltpFR	0	7	1	MINT	898	n/a	3	0	n/a	n/a	n/a	n/a	n/a
4558.564	n/a	RECOG_TARGET	2279282	n/a	LTP237	ltpFR	0	7	1	ROBOT	1200	1	4	0	n/a	n/a	n/a	n/a	n/a
4559.872	n/a	RECOG_RESP	2279936	n/a	LTP237	ltpFR	0	7	1	ROBOT	1200	1	n/a	0	n/a	n/a	n/a	n/a	n/a
4561.89	n/a	RECOG_CONF	2280945	n/a	LTP237	ltpFR	0	7	1	ROBOT	1200	n/a	4	0	n/a	n/a	n/a	n/a	n/a
4563.782	n/a	RECOG_TARGET	2281891	n/a	LTP237	ltpFR	0	7	1	VELVET	1555	0	2	0	n/a	n/a	n/a	n/a	n/a
4564.9	n/a	RECOG_RESP	2282450	n/a	LTP237	ltpFR	0	7	1	VELVET	1555	0	n/a	0	n/a	n/a	n/a	n/a	n/a
4567.01	n/a	RECOG_CONF	2283505	n/a	LTP237	ltpFR	0	7	1	VELVET	1555	n/a	2	0	n/a	n/a	n/a	n/a	n/a
4568.95	n/a	RECOG_TARGET	2284475	n/a	LTP237	ltpFR	0	7	-1	SUNRISE	1407	1	1	-1	n/a	n/a	n/a	n/a	n/a
4569.852	n/a	RECOG_RESP	2284926	n/a	LTP237	ltpFR	0	7	-1	SUNRISE	1407	1	n/a	-1	n/a	n/a	n/a	n/a	n/a
