onset	duration	trial_type	sample	stim_file	subject	experiment	session	trial	task	item_name	item_num	recog_conf	resp	color_b	color_g	color_r	case	font
253.052	n/a	SESS_START	126526	n/a	LTP095	ltpFR	14	n/a	n/a	n/a	n/a	2	n/a	n/a	n/a	n/a	n/a	n/a
296.858	n/a	WORD	148429	wordpools/wasnorm_wordpool.txt	LTP095	ltpFR	14	1	0	COLLAR	345	3	0	0	0.5869140625	0.422607421875	lower	../fonts/amplitud.ttf
300.67	n/a	WORD	150335	wordpools/wasnorm_wordpool.txt	LTP095	ltpFR	14	1	0	CAPTAIN	239	n/a	1	0	0.5869140625	0.422607421875	lower	../fonts/amplitud.ttf
304.582	n/a	WORD	152291	wordpools/wasnorm_wordpool.txt	LTP095	ltpFR	14	1	1	BLENDER	136	n/a	0	1	0.412841796875	0.57763671875	upper	../fonts/zerothre.ttf
308.472	n/a	WORD	154236	wordpools/wasnorm_wordpool.txt	LTP095	ltpFR	14	1	1	CONTAINER	366	n/a	0	1	0.412841796875	0.57763671875	upper	../fonts/zerothre.ttf
312.316	n/a	WORD	156158	wordpools/wasnorm_wordpool.txt	LTP095	ltpFR	14	1	0	VICTIM	1562	n/a	1	0	0.5869140625	0.422607421875	lower	../fonts/amplitud.ttf
316.478	n/a	WORD	158239	wordpools/wasnorm_wordpool.txt	LTP095	ltpFR	14	1	0	TREE	1502	n/a	1	0	0.5869140625	0.422607421875	lower	../fonts/amplitud.ttf
320.666	n/a	WORD	160333	wordpools/wasnorm_wordpool.txt	LTP095	ltpFR	14	1	1	BROCCOLI	176	n/a	0	1	0.412841796875	0.57763671875	upper	../fonts/zerothre.ttf
324.502	n/a	WORD	162251	wordpools/wasnorm_wordpool.txt	LTP095	ltpFR	14	1	1	SCULPTURE	1258	n/a	0	1	0.412841796875	0.57763671875	upper	../fonts/zerothre.ttf
328.64	n/a	WORD	164320	wordpools/wasnorm_wordpool.txt	LTP095	ltpFR	14	1	1	CLAY	320	n/a	0	1	0.412841796875	0.57763671875	upper	../fonts/zerothre.ttf
332.826	n/a	WORD	166413	wordpools/wasnorm_wordpool.txt	LTP095	ltpFR	14	1	1	ATTIRE	57	n/a	0	1	0.412841796875	0.57763671875	upper	../fonts/zerothre.ttf
336.772	n/a	WORD	168386	wordpools/wasnorm_wordpool.txt	LTP095	ltpFR	14	1	1	DESIGNER	451	n/a	1	1	0.412841796875	0.57763671875	upper	../fonts/zerothre.ttf
340.884	n/a	WORD	170442	wordpools/wasnorm_wordpool.txt	LTP095	ltpFR	14	1	1	VIKING	1565	n/a	1	1	0.412841796875	0.57763671875	upper	../fonts/zerothre.ttf
344.87	n/a	WORD	172435	wordpools/wasnorm_wordpool.txt	LTP095	ltpFR	14	1	0	WOUND	1624	n/a	0	0	0.5869140625	0.422607421875	lower	../fonts/amplitud.ttf
348.774	n/a	WORD	174387	wordpools/wasnorm_wordpool.txt	LTP095	ltpFR	14	1	0	SILVERWARE	1308	n/a	0	0	0.5869140625	0.422607421875	lower	../fonts/amplitud.ttf
352.912	n/a	WORD	176456	wordpools/wasnorm_wordpool.txt	LTP095	ltpFR	14	1	0	TIE	1466	n/a	0	0	0.5869140625	0.422607421875	lower	../fonts/amplitud.ttf
356.724	n/a	WORD	178362	wordpools/wasnorm_wordpool.txt	LTP095	ltpFR	14	1	0	TRANSPLANT	1496	n/a	0	0	0.5869140625	0.422607421875	lower	../fonts/amplitud.ttf
362.676	n/a	REC_START	181338	n/a	LTP095	ltpFR	14	1	n/a	n/a	n/a	n/a	n/a	n/a	n/a	n/a	n/a	n/a
364.956	n/a	REC_WORD	182478	wordpools/wasnorm_wordpool.txt	LTP095	ltpFR	14	1	0	TRANSPLANT	1496	n/a	0	n/a	n/a	n/a	n/a	n/a
366.556	n/a	REC_WORD	183278	wordpools/wasnorm_wordpool.txt	LTP095	ltpFR	14	1	0	TIE	1466	n/a	0	n/a	n/a	n/a	n/a	n/a
367.778	n/a	REC_WORD	183889	wordpools/wasnorm_wordpool.txt	LTP095	ltpFR	14	1	0	SILVERWARE	1308	n/a	0	n/a	n/a	n/a	n/a	n/a
370.692	n/a	REC_WORD	185346	wordpools/wasnorm_wordpool.txt	LTP095	ltpFR	14	1	1	DESIGNER	451	n/a	1	n/a	n/a	n/a	n/a	n/a
372.518	n/a	REC_WORD	186259	wordpools/wasnorm_wordpool.txt	LTP095	ltpFR	14	1	1	ATTIRE	57	n/a	0	n/a	n/a	n/a	n/a	n/a
374.882	n/a	REC_WORD	187441	wordpools/wasnorm_wordpool.txt	LTP095	ltpFR	14	1	0	COLLAR	345	n/a	0	n/a	n/a	n/a	n/a	n/a
376.758	n/a	REC_WORD	188379	wordpools/wasnorm_wordpool.txt	LTP095	ltpFR	14	1	0	CAPTAIN	239	n/a	1	n/a	n/a	n/a	n/a	n/a
378.37	n/a	REC_WORD	189185	wordpools/wasnorm_wordpool.txt	LTP095	ltpFR	14	1	1	BROCCOLI	176	n/a	0	n/a	n/a	n/a	n/a	n/a
386.048	n/a	REC_WORD	193024	wordpools/wasnorm_wordpool.txt	LTP095	ltpFR	14	1	0	VICTIM	1562	n/a	1	n/a	n/a	n/a	n/a	n/a
387.7	n/a	REC_WORD	193850	wordpools/wasnorm_wordpool.txt	LTP095	ltpFR	14	1	0	WOUND	1624	n/a	0	n/a	n/a	n/a	n/a	n/a
392.918	n/a	REC_WORD	196459	wordpools/wasnorm_wordpool.txt	LTP095	ltpFR	14	1	0	TREE	1502	n/a	1	n/a	n/a	n/a	n/a	n/a
456.126	n/a	WORD	228063	wordpools/wasnorm_wordpool.txt	LTP095	ltpFR	14	2	1	MOUTH	926	n/a	1	1	0.412841796875	0.57763671875	upper	../fonts/zerothre.ttf
460.28	n/a	WORD	230140	wordpools/wasnorm_wordpool.txt	LTP095	ltpFR	14	2	1	STRANGER	1389	n/a	1	1	0.412841796875	0.57763671875	upper	../fonts/zerothre.ttf
464.258	n/a	WORD	232129	wordpools/wasnorm_wordpool.txt	LTP095	ltpFR	14	2	0	COMPASS	358	n/a	0	0	0.5869140625	0.422607421875	lower	../fonts/amplitud.ttf
468.33	n/a	WORD	234165	wordpools/wasnorm_wordpool.txt	LTP095	ltpFR	14	2	0	SHORE	1291	n/a	1	0	0.5869140625	0.422607421875	lower	../fonts/amplitud.ttf
472.308	n/a	WORD	236154	wordpools/wasnorm_wordpool.txt	LTP095	ltpFR	14	2	0	QUARTER	1148	n/a	0	0	0.5869140625	0.422607421875	lower	../fonts/amplitud.ttf
476.352	n/a	WORD	238176	wordpools/wasnorm_wordpool.txt	LTP095	ltpFR	14	2	1	PHOTO	1055	n/a	0	1	0.412841796875	0.57763671875	upper	../fonts/zerothre.ttf
480.556	n/a	WORD	240278	wordpools/wasnorm_wordpool.txt	LTP095	ltpFR	14	2	1	CLERK	321	n/a	1	1	0.412841796875	0.57763671875	upper	../fonts/zerothre.ttf
484.602	n/a	WORD	242301	wordpools/wasnorm_wordpool.txt	LTP095	ltpFR	14	2	1	EMPLOYEE	531	n/a	1	1	0.412841796875	0.57763671875	upper	../fonts/zerothre.ttf
488.448	n/a	WORD	244224	wordpools/wasnorm_wordpool.txt	LTP095	ltpFR	14	2	1	CANAL	226	n/a	0	1	0.412841796875	0.57763671875	upper	../fonts/zerothre.ttf
492.334	n/a	WORD	246167	wordpools/wasnorm_wordpool.txt	LTP095	ltpFR	14	2	1	HOUSE	725	n/a	0	1	0.412841796875	0.57763671875	upper	../fonts/zerothre.ttf
496.488	n/a	WORD	248244	wordpools/wasnorm_wordpool.txt	LTP095	ltpFR	14	2	1	TOOTHBRUSH	1482	n/a	0	1	0.412841796875	0.57763671875	upper	../fonts/zerothre.ttf
500.3	n/a	WORD	250150	wordpools/wasnorm_wordpool.txt	LTP095	ltpFR	14	2	0	VISITOR	1573	n/a	1	0	0.5869140625	0.422607421875	lower	../fonts/amplitud.ttf
504.404	n/a	WORD	252202	wordpools/wasnorm_wordpool.txt	LTP095	ltpFR	14	2	0	DRESSER	496	n/a	0	0	0.5869140625	0.422607421875	lower	../fonts/amplitud.ttf
508.316	n/a	WORD	254158	wordpools/wasnorm_wordpool.txt	LTP095	ltpFR	14	2	0	RECEPTIONIST	1174	n/a	1	0	0.5869140625	0.422607421875	lower	../fonts/amplitud.ttf
512.444	n/a	WORD	256222	wordpools/wasnorm_wordpool.txt	LTP095	ltpFR	14	2	0	NOVEL	960	n/a	0	0	0.5869140625	0.422607421875	lower	../fonts/amplitud.ttf
516.64	n/a	WORD	258320	wordpools/wasnorm_wordpool.txt	LTP095	ltpFR	14	2	0	PAGE	1001	n/a	0	0	0.5869140625	0.422607421875	lower	../fonts/amplitud.ttf
522.376	n/a	REC_START	261188	n/a	LTP095	ltpFR	14	2	n/a	n/a	n/a	n/a	n/a	n/a	n/a	n/a	n/a	n/a
524.99	n/a	REC_WORD	262495	wordpools/wasnorm_wordpool.txt	LTP095	ltpFR	14	2	0	NOVEL	960	n/a	0	n/a	n/a	n/a	n/a	n/a
526.312	n/a	REC_WORD	263156	wordpools/wasnorm_wordpool.txt	LTP095	ltpFR	14	2	0	PAGE	1001	n/a	0	n/a	n/a	n/a	n/a	n/a
527.668	n/a	REC_WORD	263834	wordpools/wasnorm_wordpool.txt	LTP095	ltpFR	14	2	0	RECEPTIONIST	1174	n/a	1	n/a	n/a	n/a	n/a	n/a
538.064	n/a	REC_WORD	269032	wordpools/wasnorm_wordpool.txt	LTP095	ltpFR	14	2	1	CLERK	321	n/a	1	n/a	n/a	n/a	n/a	n/a
540.026	n/a	REC_WORD_VV	270013	wordpools/wasnorm_wordpool.txt	LTP095	ltpFR	14	2	n/a	<>	-1	n/a	n/a	n/a	n/a	n/a	n/a	n/a
546.37	n/a	REC_WORD	273185	wordpools/wasnorm_wordpool.txt	LTP095	ltpFR	14	2	1	HOUSE	725	n/a	0	n/a	n/a	n/a	n/a	n/a
547.758	n/a	REC_WORD	273879	wordpools/wasnorm_wordpool.txt	LTP095	ltpFR	14	2	1	TOOTHBRUSH	1482	n/a	0	n/a	n/a	n/a	n/a	n/a
550.388	n/a	REC_WORD	275194	wordpools/wasnorm_wordpool.txt	LTP095	ltpFR	14	2	0	SHORE	1291	n/a	1	n/a	n/a	n/a	n/a	n/a
576.374	n/a	REC_WORD	288187	wordpools/wasnorm_wordpool.txt	LTP095	ltpFR	14	2	0	DRESSER	496	n/a	0	n/a	n/a	n/a	n/a	n/a
578.024	n/a	REC_WORD_VV	289012	wordpools/wasnorm_wordpool.txt	LTP095	ltpFR	14	2	n/a	<>	-1	n/a	n/a	n/a	n/a	n/a	n/a	n/a
600.976	n/a	WORD	300488	wordpools/wasnorm_wordpool.txt	LTP095	ltpFR	14	3	-1	HIGHWAY	707	n/a	-1	1	1.0	1.0	upper	../fonts/Verdana.ttf
604.88	n/a	WORD	302440	wordpools/wasnorm_wordpool.txt	LTP095	ltpFR	14	3	-1	BUBBLE	183	n/a	-1	1	1.0	1.0	upper	../fonts/Verdana.ttf
608.966	n/a	WORD	304483	wordpools/wasnorm_wordpool.txt	LTP095	ltpFR	14	3	-1	PELT	1040	n/a	-1	1	1.0	1.0	upper	../fonts/Verdana.ttf
612.812	n/a	WORD	306406	wordpools/wasnorm_wordpool.txt	LTP095	ltpFR	14	3	-1	OZONE	996	n/a	-1	1	1.0	1.0	upper	../fonts/Verdana.ttf
616.898	n/a	WORD	308449	wordpools/wasnorm_wordpool.txt	LTP095	ltpFR	14	3	-1	CLOUD	328	n/a	-1	1	1.0	1.0	upper	../fonts/Verdana.ttf
620.802	n/a	WORD	310401	wordpools/wasnorm_wordpool.txt	LTP095	ltpFR	14	3	-1	FREEWAY	603	n/a	-1	1	1.0	1.0	upper	../fonts/Verdana.ttf
624.922	n/a	WORD	312461	wordpools/wasnorm_wordpool.txt	LTP095	ltpFR	14	3	-1	SHOWER	1296	n/a	-1	1	1.0	1.0	upper	../fonts/Verdana.ttf
628.91	n/a	WORD	314455	wordpools/wasnorm_wordpool.txt	LTP095	ltpFR	14	3	-1	MOLECULE	905	n/a	-1	1	1.0	1.0	upper	../fonts/Verdana.ttf
632.948	n/a	WORD	316474	wordpools/wasnorm_wordpool.txt	LTP095	ltpFR	14	3	-1	SHINGLE	1285	n/a	-1	1	1.0	1.0	upper	../fonts/Verdana.ttf
636.768	n/a	WORD	318384	wordpools/wasnorm_wordpool.txt	LTP095	ltpFR	14	3	-1	HOME	712	n/a	-1	1	1.0	1.0	upper	../fonts/Verdana.ttf
640.88	n/a	WORD	320440	wordpools/wasnorm_wordpool.txt	LTP095	ltpFR	14	3	-1	FUDGE	611	n/a	-1	1	1.0	1.0	upper	../fonts/Verdana.ttf
645.05	n/a	WORD	322525	wordpools/wasnorm_wordpool.txt	LTP095	ltpFR	14	3	-1	CONE	363	n/a	-1	1	1.0	1.0	upper	../fonts/Verdana.ttf
649.096	n/a	WORD	324548	wordpools/wasnorm_wordpool.txt	LTP095	ltpFR	14	3	-1	CABLE	213	n/a	-1	1	1.0	1.0	upper	../fonts/Verdana.ttf
653.292	n/a	WORD	326646	wordpools/wasnorm_wordpool.txt	LTP095	ltpFR	14	3	-1	CURTAIN	427	n/a	-1	1	1.0	1.0	upper	../fonts/Verdana.ttf
657.362	n/a	WORD	328681	wordpools/wasnorm_wordpool.txt	LTP095	ltpFR	14	3	-1	CAP	236	n/a	-1	1	1.0	1.0	upper	../fonts/Verdana.ttf
661.274	n/a	WORD	330637	wordpools/wasnorm_wordpool.txt	LTP095	ltpFR	14	3	-1	GATE	625	n/a	-1	1	1.0	1.0	upper	../fonts/Verdana.ttf
667.134	n/a	REC_START	333567	n/a	LTP095	ltpFR	14	3	n/a	n/a	n/a	n/a	n/a	n/a	n/a	n/a	n/a	n/a
669.582	n/a	REC_WORD	334791	wordpools/wasnorm_wordpool.txt	LTP095	ltpFR	14	3	-1	GATE	625	n/a	-1	n/a	n/a	n/a	n/a	n/a
670.95	n/a	REC_WORD	335475	wordpools/wasnorm_wordpool.txt	LTP095	ltpFR	14	3	-1	OZONE	996	n/a	-1	n/a	n/a	n/a	n/a	n/a
674.222	n/a	REC_WORD	337111	wordpools/wasnorm_wordpool.txt	LTP095	ltpFR	14	3	-1	PELT	1040	n/a	-1	n/a	n/a	n/a	n/a	n/a
679.046	n/a	REC_WORD	339523	wordpools/wasnorm_wordpool.txt	LTP095	ltpFR	14	3	-1	SHINGLE	1285	n/a	-1	n/a	n/a	n/a	n/a	n/a
681.496	n/a	REC_WORD	340748	wordpools/wasnorm_wordpool.txt	LTP095	ltpFR	14	3	-1	FUDGE	611	n/a	-1	n/a	n/a	n/a	n/a	n/a
683.346	n/a	REC_WORD	341673	wordpools/wasnorm_wordpool.txt	LTP095	ltpFR	14	3	-1	CONE	363	n/a	-1	n/a	n/a	n/a	n/a	n/a
712.282	n/a	REC_WORD	356141	wordpools/wasnorm_wordpool.txt	LTP095	ltpFR	14	3	-1	MOLECULE	905	n/a	-1	n/a	n/a	n/a	n/a	n/a
925.094	n/a	WORD	462547	wordpools/wasnorm_wordpool.txt	LTP095	ltpFR	14	4	1	VIDEO	1564	n/a	0	1	0.412841796875	0.57763671875	upper	../fonts/zerothre.ttf
929.25	n/a	WORD	464625	wordpools/wasnorm_wordpool.txt	LTP095	ltpFR	14	4	1	SALOON	1228	n/a	0	1	0.412841796875	0.57763671875	upper	../fonts/zerothre.ttf
933.36	n/a	WORD	466680	wordpools/wasnorm_wordpool.txt	LTP095	ltpFR	14	4	1	RIBBON	1189	n/a	0	1	0.412841796875	0.57763671875	upper	../fonts/zerothre.ttf
937.248	n/a	WORD	468624	wordpools/wasnorm_wordpool.txt	LTP095	ltpFR	14	4	1	FELLOW	558	n/a	1	1	0.412841796875	0.57763671875	upper	../fonts/zerothre.ttf
941.426	n/a	WORD	470713	wordpools/wasnorm_wordpool.txt	LTP095	ltpFR	14	4	1	SHRUB	1299	n/a	1	1	0.412841796875	0.57763671875	upper	../fonts/zerothre.ttf
945.256	n/a	WORD	472628	wordpools/wasnorm_wordpool.txt	LTP095	ltpFR	14	4	1	MARSH	874	n/a	1	1	0.412841796875	0.57763671875	upper	../fonts/zerothre.ttf
949.324	n/a	WORD	474662	wordpools/wasnorm_wordpool.txt	LTP095	ltpFR	14	4	1	WIFE	1609	n/a	1	1	0.412841796875	0.57763671875	upper	../fonts/zerothre.ttf
953.346	n/a	WORD	476673	wordpools/wasnorm_wordpool.txt	LTP095	ltpFR	14	4	1	SLUG	1329	n/a	1	1	0.412841796875	0.57763671875	upper	../fonts/zerothre.ttf
957.35	n/a	WORD	478675	wordpools/wasnorm_wordpool.txt	LTP095	ltpFR	14	4	1	PATRIOT	1026	n/a	1	1	0.412841796875	0.57763671875	upper	../fonts/zerothre.ttf
961.346	n/a	WORD	480673	wordpools/wasnorm_wordpool.txt	LTP095	ltpFR	14	4	1	BANNER	85	n/a	0	1	0.412841796875	0.57763671875	upper	../fonts/zerothre.ttf
965.424	n/a	WORD	482712	wordpools/wasnorm_wordpool.txt	LTP095	ltpFR	14	4	1	TREAD	1499	n/a	0	1	0.412841796875	0.57763671875	upper	../fonts/zerothre.ttf
969.578	n/a	WORD	484789	wordpools/wasnorm_wordpool.txt	LTP095	ltpFR	14	4	1	ANTENNA	28	n/a	n/a	1	0.412841796875	0.57763671875	upper	../fonts/zerothre.ttf
972.598	n/a	SLOW_MSG	486299	n/a	LTP095	ltpFR	14	4	n/a	n/a	n/a	n/a	n/a	n/a	n/a	n/a	n/a	n/a
975.096	n/a	WORD	487548	wordpools/wasnorm_wordpool.txt	LTP095	ltpFR	14	4	1	OFFICER	973	n/a	1	1	0.412841796875	0.57763671875	upper	../fonts/zerothre.ttf
979.268	n/a	WORD	489634	wordpools/wasnorm_wordpool.txt	LTP095	ltpFR	14	4	1	UNIFORM	1539	n/a	1	1	0.412841796875	0.57763671875	upper	../fonts/zerothre.ttf
983.436	n/a	WORD	491718	wordpools/wasnorm_wordpool.txt	LTP095	ltpFR	14	4	1	SERGEANT	1269	n/a	1	1	0.412841796875	0.57763671875	upper	../fonts/zerothre.ttf
987.332	n/a	WORD	493666	wordpools/wasnorm_wordpool.txt	LTP095	ltpFR	14	4	1	FOREST	593	n/a	1	1	0.412841796875	0.57763671875	upper	../fonts/zerothre.ttf
993.084	n/a	REC_START	496542	n/a	LTP095	ltpFR	14	4	n/a	n/a	n/a	n/a	n/a	n/a	n/a	n/a	n/a	n/a
996.516	n/a	REC_WORD	498258	wordpools/wasnorm_wordpool.txt	LTP095	ltpFR	14	4	1	UNIFORM	1539	n/a	1	n/a	n/a	n/a	n/a	n/a
998.73	n/a	REC_WORD	499365	wordpools/wasnorm_wordpool.txt	LTP095	ltpFR	14	4	1	FOREST	593	n/a	1	n/a	n/a	n/a	n/a	n/a
1003.02	n/a	REC_WORD_VV	501510	wordpools/wasnorm_wordpool.txt	LTP095	ltpFR	14	4	n/a	<>	-1	n/a	n/a	n/a	n/a	n/a	n/a	n/a
1016.076	n/a	REC_WORD	508038	wordpools/wasnorm_wordpool.txt	LTP095	ltpFR	14	4	1	SERGEANT	1269	n/a	1	n/a	n/a	n/a	n/a	n/a
1027.744	n/a	REC_WORD	513872	wordpools/wasnorm_wordpool.txt	LTP095	ltpFR	14	4	1	ANTENNA	28	n/a	n/a	n/a	n/a	n/a	n/a	n/a
1033.182	n/a	REC_WORD	516591	wordpools/wasnorm_wordpool.txt	LTP095	ltpFR	14	4	1	MARSH	874	n/a	1	n/a	n/a	n/a	n/a	n/a
1064.632	n/a	REC_WORD	532316	wordpools/wasnorm_wordpool.txt	LTP095	ltpFR	14	4	1	WIFE	1609	n/a	1	n/a	n/a	n/a	n/a	n/a
1074.166	n/a	WORD	537083	wordpools/wasnorm_wordpool.txt	LTP095	ltpFR	14	5	1	COLUMN	350	n/a	0	1	0.412841796875	0.57763671875	upper	../fonts/zerothre.ttf
1078.152	n/a	WORD	539076	wordpools/wasnorm_wordpool.txt	LTP095	ltpFR	14	5	1	DANDELION	438	n/a	1	1	0.412841796875	0.57763671875	upper	../fonts/zerothre.ttf
1082.232	n/a	WORD	541116	wordpools/wasnorm_wordpool.txt	LTP095	ltpFR	14	5	0	TURNIP	1521	n/a	0	0	0.5869140625	0.422607421875	lower	../fonts/amplitud.ttf
1086.092	n/a	WORD	543046	wordpools/wasnorm_wordpool.txt	LTP095	ltpFR	14	5	0	PUBLISHER	1137	n/a	1	0	0.5869140625	0.422607421875	lower	../fonts/amplitud.ttf
1090.172	n/a	WORD	545086	wordpools/wasnorm_wordpool.txt	LTP095	ltpFR	14	5	0	DRUG	501	n/a	0	0	0.5869140625	0.422607421875	lower	../fonts/amplitud.ttf
1094.176	n/a	WORD	547088	wordpools/wasnorm_wordpool.txt	LTP095	ltpFR	14	5	0	BEAVER	109	n/a	1	0	0.5869140625	0.422607421875	lower	../fonts/amplitud.ttf
1098.23	n/a	WORD	549115	wordpools/wasnorm_wordpool.txt	LTP095	ltpFR	14	5	0	MAMMAL	861	n/a	1	0	0.5869140625	0.422607421875	lower	../fonts/amplitud.ttf
1102.234	n/a	WORD	551117	wordpools/wasnorm_wordpool.txt	LTP095	ltpFR	14	5	1	PIER	1063	n/a	0	1	0.412841796875	0.57763671875	upper	../fonts/zerothre.ttf
1106.07	n/a	WORD	553035	wordpools/wasnorm_wordpool.txt	LTP095	ltpFR	14	5	1	SEASHORE	1263	n/a	0	1	0.412841796875	0.57763671875	upper	../fonts/zerothre.ttf
1110.174	n/a	WORD	555087	wordpools/wasnorm_wordpool.txt	LTP095	ltpFR	14	5	0	COMMITTEE	355	n/a	1	0	0.5869140625	0.422607421875	lower	../fonts/amplitud.ttf
1114.36	n/a	WORD	557180	wordpools/wasnorm_wordpool.txt	LTP095	ltpFR	14	5	0	UMBRELLA	1534	n/a	1	0	0.5869140625	0.422607421875	lower	../fonts/amplitud.ttf
1118.506	n/a	WORD	559253	wordpools/wasnorm_wordpool.txt	LTP095	ltpFR	14	5	0	PATH	1023	n/a	1	0	0.5869140625	0.422607421875	lower	../fonts/amplitud.ttf
1122.576	n/a	WORD	561288	wordpools/wasnorm_wordpool.txt	LTP095	ltpFR	14	5	1	LIP	828	n/a	n/a	1	0.412841796875	0.57763671875	upper	../fonts/zerothre.ttf
1125.598	n/a	SLOW_MSG	562799	n/a	LTP095	ltpFR	14	5	n/a	n/a	n/a	n/a	n/a	n/a	n/a	n/a	n/a	n/a
1128.204	n/a	WORD	564102	wordpools/wasnorm_wordpool.txt	LTP095	ltpFR	14	5	1	COMMUNITY	356	n/a	0	1	0.412841796875	0.57763671875	upper	../fonts/zerothre.ttf
1132.016	n/a	WORD	566008	wordpools/wasnorm_wordpool.txt	LTP095	ltpFR	14	5	1	SPRINKLE	1359	n/a	0	1	0.412841796875	0.57763671875	upper	../fonts/zerothre.ttf
1136.16	n/a	WORD	568080	wordpools/wasnorm_wordpool.txt	LTP095	ltpFR	14	5	1	LOG	841	n/a	1	1	0.412841796875	0.57763671875	upper	../fonts/zerothre.ttf
1142.012	n/a	REC_START	571006	n/a	LTP095	ltpFR	14	5	n/a	n/a	n/a	n/a	n/a	n/a	n/a	n/a	n/a	n/a
1145.638	n/a	REC_WORD	572819	wordpools/wasnorm_wordpool.txt	LTP095	ltpFR	14	5	1	LOG	841	n/a	1	n/a	n/a	n/a	n/a	n/a
1148.618	n/a	REC_WORD_VV	574309	wordpools/wasnorm_wordpool.txt	LTP095	ltpFR	14	5	n/a	<>	-1	n/a	n/a	n/a	n/a	n/a	n/a	n/a
1151.226	n/a	REC_WORD	575613	wordpools/wasnorm_wordpool.txt	LTP095	ltpFR	14	5	1	FOREST	593	n/a	1	n/a	n/a	n/a	n/a	n/a
1155.476	n/a	REC_WORD_VV	577738	wordpools/wasnorm_wordpool.txt	LTP095	ltpFR	14	5	n/a	<>	-1	n/a	n/a	n/a	n/a	n/a	n/a	n/a
1176.414	n/a	REC_WORD	588207	wordpools/wasnorm_wordpool.txt	LTP095	ltpFR	14	5	1	OFFICER	973	n/a	1	n/a	n/a	n/a	n/a	n/a
1181.462	n/a	REC_WORD	590731	wordpools/wasnorm_wordpool.txt	LTP095	ltpFR	14	5	0	TURNIP	1521	n/a	0	n/a	n/a	n/a	n/a	n/a
1184.95	n/a	REC_WORD	592475	wordpools/wasnorm_wordpool.txt	LTP095	ltpFR	14	5	0	UMBRELLA	1534	n/a	1	n/a	n/a	n/a	n/a	n/a
1212.598	n/a	REC_WORD	606299	wordpools/wasnorm_wordpool.txt	LTP095	ltpFR	14	5	1	DANDELION	438	n/a	1	n/a	n/a	n/a	n/a	n/a
1216.838	n/a	REC_WORD_VV	608419	wordpools/wasnorm_wordpool.txt	LTP095	ltpFR	14	5	n/a	<>	-1	n/a	n/a	n/a	n/a	n/a	n/a	n/a
1275.374	n/a	WORD	637687	wordpools/wasnorm_wordpool.txt	LTP095	ltpFR	14	6	0	TOWEL	1489	n/a	1	0	0.5869140625	0.422607421875	lower	../fonts/amplitud.ttf
1279.504	n/a	WORD	639752	wordpools/wasnorm_wordpool.txt	LTP095	ltpFR	14	6	0	BUG	187	n/a	0	0	0.5869140625	0.422607421875	lower	../fonts/amplitud.ttf
1283.358	n/a	WORD	641679	wordpools/wasnorm_wordpool.txt	LTP095	ltpFR	14	6	0	FORT	595	n/a	1	0	0.5869140625	0.422607421875	lower	../fonts/amplitud.ttf
1287.272	n/a	WORD	643636	wordpools/wasnorm_wordpool.txt	LTP095	ltpFR	14	6	0	PUDDLE	1140	n/a	1	0	0.5869140625	0.422607421875	lower	../fonts/amplitud.ttf
1291.25	n/a	WORD	645625	wordpools/wasnorm_wordpool.txt	LTP095	ltpFR	14	6	0	REGISTER	1180	n/a	1	0	0.5869140625	0.422607421875	lower	../fonts/amplitud.ttf
1295.128	n/a	WORD	647564	wordpools/wasnorm_wordpool.txt	LTP095	ltpFR	14	6	0	BALLOT	76	n/a	0	0	0.5869140625	0.422607421875	lower	../fonts/amplitud.ttf
1299.282	n/a	WORD	649641	wordpools/wasnorm_wordpool.txt	LTP095	ltpFR	14	6	0	PLASTER	1085	n/a	0	0	0.5869140625	0.422607421875	lower	../fonts/amplitud.ttf
1303.16	n/a	WORD	651580	wordpools/wasnorm_wordpool.txt	LTP095	ltpFR	14	6	0	MISSILE	900	n/a	1	0	0.5869140625	0.422607421875	lower	../fonts/amplitud.ttf
1307.322	n/a	WORD	653661	wordpools/wasnorm_wordpool.txt	LTP095	ltpFR	14	6	0	HOSE	720	n/a	1	0	0.5869140625	0.422607421875	lower	../fonts/amplitud.ttf
1311.368	n/a	WORD	655684	wordpools/wasnorm_wordpool.txt	LTP095	ltpFR	14	6	0	LODGE	839	n/a	1	0	0.5869140625	0.422607421875	lower	../fonts/amplitud.ttf
1315.322	n/a	WORD	657661	wordpools/wasnorm_wordpool.txt	LTP095	ltpFR	14	6	0	LOBBY	836	n/a	1	0	0.5869140625	0.422607421875	lower	../fonts/amplitud.ttf
1319.392	n/a	WORD	659696	wordpools/wasnorm_wordpool.txt	LTP095	ltpFR	14	6	0	CUP	424	n/a	0	0	0.5869140625	0.422607421875	lower	../fonts/amplitud.ttf
1323.246	n/a	WORD	661623	wordpools/wasnorm_wordpool.txt	LTP095	ltpFR	14	6	0	STEW	1380	n/a	1	0	0.5869140625	0.422607421875	lower	../fonts/amplitud.ttf
1327.416	n/a	WORD	663708	wordpools/wasnorm_wordpool.txt	LTP095	ltpFR	14	6	0	AUTHOR	61	n/a	1	0	0.5869140625	0.422607421875	lower	../fonts/amplitud.ttf
1331.228	n/a	WORD	665614	wordpools/wasnorm_wordpool.txt	LTP095	ltpFR	14	6	0	CAB	209	n/a	1	0	0.5869140625	0.422607421875	lower	../fonts/amplitud.ttf
1335.282	n/a	WORD	667641	wordpools/wasnorm_wordpool.txt	LTP095	ltpFR	14	6	0	BROOK	177	n/a	1	0	0.5869140625	0.422607421875	lower	../fonts/amplitud.ttf
1341.016	n/a	REC_START	670508	n/a	LTP095	ltpFR	14	6	n/a	n/a	n/a	n/a	n/a	n/a	n/a	n/a	n/a	n/a
1343.062	n/a	REC_WORD	671531	wordpools/wasnorm_wordpool.txt	LTP095	ltpFR	14	6	0	BROOK	177	n/a	1	n/a	n/a	n/a	n/a	n/a
1344.848	n/a	REC_WORD	672424	wordpools/wasnorm_wordpool.txt	LTP095	ltpFR	14	6	0	AUTHOR	61	n/a	1	n/a	n/a	n/a	n/a	n/a
1348.29	n/a	REC_WORD	674145	wordpools/wasnorm_wordpool.txt	LTP095	ltpFR	14	6	0	PUDDLE	1140	n/a	1	n/a	n/a	n/a	n/a	n/a
1351.058	n/a	REC_WORD	675529	wordpools/wasnorm_wordpool.txt	LTP095	ltpFR	14	6	n/a	BATH	98	n/a	n/a	n/a	n/a	n/a	n/a	n/a
1354.222	n/a	REC_WORD	677111	wordpools/wasnorm_wordpool.txt	LTP095	ltpFR	14	6	0	TOWEL	1489	n/a	1	n/a	n/a	n/a	n/a	n/a
1358.562	n/a	REC_WORD	679281	wordpools/wasnorm_wordpool.txt	LTP095	ltpFR	14	6	0	MISSILE	900	n/a	1	n/a	n/a	n/a	n/a	n/a
1372.576	n/a	REC_WORD	686288	wordpools/wasnorm_wordpool.txt	LTP095	ltpFR	14	6	0	BALLOT	76	n/a	0	n/a	n/a	n/a	n/a	n/a
1420.566	n/a	WORD	710283	wordpools/wasnorm_wordpool.txt	LTP095	ltpFR	14	7	-1	NEEDLE	941	n/a	-1	1	1.0	1.0	upper	../fonts/Verdana.ttf
1424.42	n/a	WORD	712210	wordpools/wasnorm_wordpool.txt	LTP095	ltpFR	14	7	-1	BEAST	108	n/a	-1	1	1.0	1.0	upper	../fonts/Verdana.ttf
1428.382	n/a	WORD	714191	wordpools/wasnorm_wordpool.txt	LTP095	ltpFR	14	7	-1	VITAMIN	1574	n/a	-1	1	1.0	1.0	upper	../fonts/Verdana.ttf
1432.22	n/a	WORD	716110	wordpools/wasnorm_wordpool.txt	LTP095	ltpFR	14	7	-1	NERVE	944	n/a	-1	1	1.0	1.0	upper	../fonts/Verdana.ttf
1436.132	n/a	WORD	718066	wordpools/wasnorm_wordpool.txt	LTP095	ltpFR	14	7	-1	COAT	333	n/a	-1	1	1.0	1.0	upper	../fonts/Verdana.ttf
1440.02	n/a	WORD	720010	wordpools/wasnorm_wordpool.txt	LTP095	ltpFR	14	7	-1	CANNON	232	n/a	-1	1	1.0	1.0	upper	../fonts/Verdana.ttf
1444.066	n/a	WORD	722033	wordpools/wasnorm_wordpool.txt	LTP095	ltpFR	14	7	-1	RELISH	1183	n/a	-1	1	1.0	1.0	upper	../fonts/Verdana.ttf
1448.002	n/a	WORD	724001	wordpools/wasnorm_wordpool.txt	LTP095	ltpFR	14	7	-1	SILK	1307	n/a	-1	1	1.0	1.0	upper	../fonts/Verdana.ttf
1451.99	n/a	WORD	725995	wordpools/wasnorm_wordpool.txt	LTP095	ltpFR	14	7	-1	POLYESTER	1100	n/a	-1	1	1.0	1.0	upper	../fonts/Verdana.ttf
1455.968	n/a	WORD	727984	wordpools/wasnorm_wordpool.txt	LTP095	ltpFR	14	7	-1	POTATO	1115	n/a	-1	1	1.0	1.0	upper	../fonts/Verdana.ttf
1459.888	n/a	WORD	729944	wordpools/wasnorm_wordpool.txt	LTP095	ltpFR	14	7	-1	BLOCKADE	137	n/a	-1	1	1.0	1.0	upper	../fonts/Verdana.ttf
1464.026	n/a	WORD	732013	wordpools/wasnorm_wordpool.txt	LTP095	ltpFR	14	7	-1	OPERA	978	n/a	-1	1	1.0	1.0	upper	../fonts/Verdana.ttf
1467.93	n/a	WORD	733965	wordpools/wasnorm_wordpool.txt	LTP095	ltpFR	14	7	-1	DRINK	498	n/a	-1	1	1.0	1.0	upper	../fonts/Verdana.ttf
1472.066	n/a	WORD	736033	wordpools/wasnorm_wordpool.txt	LTP095	ltpFR	14	7	-1	SPOOL	1356	n/a	-1	1	1.0	1.0	upper	../fonts/Verdana.ttf
1476.178	n/a	WORD	738089	wordpools/wasnorm_wordpool.txt	LTP095	ltpFR	14	7	-1	COD	340	n/a	-1	1	1.0	1.0	upper	../fonts/Verdana.ttf
1480.39	n/a	WORD	740195	wordpools/wasnorm_wordpool.txt	LTP095	ltpFR	14	7	-1	SHRIMP	1297	n/a	-1	1	1.0	1.0	upper	../fonts/Verdana.ttf
1486.026	n/a	REC_START	743013	n/a	LTP095	ltpFR	14	7	n/a	n/a	n/a	n/a	n/a	n/a	n/a	n/a	n/a	n/a
1487.398	n/a	REC_WORD	743699	wordpools/wasnorm_wordpool.txt	LTP095	ltpFR	14	7	-1	SHRIMP	1297	n/a	-1	n/a	n/a	n/a	n/a	n/a
1495.624	n/a	REC_WORD	747812	wordpools/wasnorm_wordpool.txt	LTP095	ltpFR	14	7	n/a	BANDAGE	79	n/a	n/a	n/a	n/a	n/a	n/a	n/a
1499.974	n/a	REC_WORD_VV	749987	wordpools/wasnorm_wordpool.txt	LTP095	ltpFR	14	7	n/a	<>	-1	n/a	n/a	n/a	n/a	n/a	n/a	n/a
1507.706	n/a	REC_WORD	753853	wordpools/wasnorm_wordpool.txt	LTP095	ltpFR	14	7	n/a	BOAT	144	n/a	n/a	n/a	n/a	n/a	n/a	n/a
1515.064	n/a	REC_WORD	757532	wordpools/wasnorm_wordpool.txt	LTP095	ltpFR	14	7	-1	NEEDLE	941	n/a	-1	n/a	n/a	n/a	n/a	n/a
1564.134	n/a	WORD	782067	wordpools/wasnorm_wordpool.txt	LTP095	ltpFR	14	8	0	BOX	159	n/a	1	0	0.5869140625	0.422607421875	lower	../fonts/amplitud.ttf
1567.988	n/a	WORD	783994	wordpools/wasnorm_wordpool.txt	LTP095	ltpFR	14	8	0	STAMP	1370	n/a	0	0	0.5869140625	0.422607421875	lower	../fonts/amplitud.ttf
1571.918	n/a	WORD	785959	wordpools/wasnorm_wordpool.txt	LTP095	ltpFR	14	8	0	HEATER	698	n/a	1	0	0.5869140625	0.422607421875	lower	../fonts/amplitud.ttf
1575.98	n/a	WORD	787990	wordpools/wasnorm_wordpool.txt	LTP095	ltpFR	14	8	0	MICROWAVE	892	n/a	1	0	0.5869140625	0.422607421875	lower	../fonts/amplitud.ttf
1580.132	n/a	WORD	790066	wordpools/wasnorm_wordpool.txt	LTP095	ltpFR	14	8	0	MAILMAN	858	n/a	1	0	0.5869140625	0.422607421875	lower	../fonts/amplitud.ttf
1584.144	n/a	WORD	792072	wordpools/wasnorm_wordpool.txt	LTP095	ltpFR	14	8	0	LANDSCAPE	799	n/a	1	0	0.5869140625	0.422607421875	lower	../fonts/amplitud.ttf
1588.14	n/a	WORD	794070	wordpools/wasnorm_wordpool.txt	LTP095	ltpFR	14	8	0	MARS	873	n/a	n/a	0	0.5869140625	0.422607421875	lower	../fonts/amplitud.ttf
1591.162	n/a	SLOW_MSG	795581	n/a	LTP095	ltpFR	14	8	n/a	n/a	n/a	n/a	n/a	n/a	n/a	n/a	n/a	n/a
1593.842	n/a	WORD	796921	wordpools/wasnorm_wordpool.txt	LTP095	ltpFR	14	8	0	JUPITER	765	n/a	1	0	0.5869140625	0.422607421875	lower	../fonts/amplitud.ttf
1597.838	n/a	WORD	798919	wordpools/wasnorm_wordpool.txt	LTP095	ltpFR	14	8	0	SALAD	1224	n/a	0	0	0.5869140625	0.422607421875	lower	../fonts/amplitud.ttf
1601.742	n/a	WORD	800871	wordpools/wasnorm_wordpool.txt	LTP095	ltpFR	14	8	0	ANTELOPE	27	n/a	1	0	0.5869140625	0.422607421875	lower	../fonts/amplitud.ttf
1605.72	n/a	WORD	802860	wordpools/wasnorm_wordpool.txt	LTP095	ltpFR	14	8	0	MARGARINE	868	n/a	0	0	0.5869140625	0.422607421875	lower	../fonts/amplitud.ttf
1609.666	n/a	WORD	804833	wordpools/wasnorm_wordpool.txt	LTP095	ltpFR	14	8	0	TRASH	1497	n/a	1	0	0.5869140625	0.422607421875	lower	../fonts/amplitud.ttf
1613.478	n/a	WORD	806739	wordpools/wasnorm_wordpool.txt	LTP095	ltpFR	14	8	0	RODENT	1204	n/a	0	0	0.5869140625	0.422607421875	lower	../fonts/amplitud.ttf
1617.608	n/a	WORD	808804	wordpools/wasnorm_wordpool.txt	LTP095	ltpFR	14	8	0	LABYRINTH	791	n/a	n/a	0	0.5869140625	0.422607421875	lower	../fonts/amplitud.ttf
1620.628	n/a	SLOW_MSG	810314	n/a	LTP095	ltpFR	14	8	n/a	n/a	n/a	n/a	n/a	n/a	n/a	n/a	n/a	n/a
1623.302	n/a	WORD	811651	wordpools/wasnorm_wordpool.txt	LTP095	ltpFR	14	8	0	SHORTS	1293	n/a	0	0	0.5869140625	0.422607421875	lower	../fonts/amplitud.ttf
1627.32	n/a	WORD	813660	wordpools/wasnorm_wordpool.txt	LTP095	ltpFR	14	8	0	MUSHROOM	934	n/a	0	0	0.5869140625	0.422607421875	lower	../fonts/amplitud.ttf
1633.014	n/a	REC_START	816507	n/a	LTP095	ltpFR	14	8	n/a	n/a	n/a	n/a	n/a	n/a	n/a	n/a	n/a	n/a
1634.496	n/a	REC_WORD	817248	wordpools/wasnorm_wordpool.txt	LTP095	ltpFR	14	8	0	SHORTS	1293	n/a	0	n/a	n/a	n/a	n/a	n/a
1635.496	n/a	REC_WORD_VV	817748	wordpools/wasnorm_wordpool.txt	LTP095	ltpFR	14	8	n/a	<>	-1	n/a	n/a	n/a	n/a	n/a	n/a	n/a
1637.618	n/a	REC_WORD	818809	wordpools/wasnorm_wordpool.txt	LTP095	ltpFR	14	8	0	MUSHROOM	934	n/a	0	n/a	n/a	n/a	n/a	n/a
1640.228	n/a	REC_WORD	820114	wordpools/wasnorm_wordpool.txt	LTP095	ltpFR	14	8	0	TRASH	1497	n/a	1	n/a	n/a	n/a	n/a	n/a
1672.514	n/a	REC_WORD	836257	wordpools/wasnorm_wordpool.txt	LTP095	ltpFR	14	8	0	STAMP	1370	n/a	0	n/a	n/a	n/a	n/a	n/a
1681.942	n/a	REC_WORD	840971	wordpools/wasnorm_wordpool.txt	LTP095	ltpFR	14	8	0	ANTELOPE	27	n/a	1	n/a	n/a	n/a	n/a	n/a
1682.944	n/a	REC_WORD_VV	841472	wordpools/wasnorm_wordpool.txt	LTP095	ltpFR	14	8	n/a	<>	-1	n/a	n/a	n/a	n/a	n/a	n/a	n/a
1711.982	n/a	WORD	855991	wordpools/wasnorm_wordpool.txt	LTP095	ltpFR	14	9	-1	UNIVERSITY	1541	n/a	-1	1	1.0	1.0	upper	../fonts/Verdana.ttf
1715.944	n/a	WORD	857972	wordpools/wasnorm_wordpool.txt	LTP095	ltpFR	14	9	-1	CRAB	397	n/a	-1	1	1.0	1.0	upper	../fonts/Verdana.ttf
1719.972	n/a	WORD	859986	wordpools/wasnorm_wordpool.txt	LTP095	ltpFR	14	9	-1	STONE	1385	n/a	-1	1	1.0	1.0	upper	../fonts/Verdana.ttf
1724.002	n/a	WORD	862001	wordpools/wasnorm_wordpool.txt	LTP095	ltpFR	14	9	-1	CREVICE	405	n/a	-1	1	1.0	1.0	upper	../fonts/Verdana.ttf
1727.822	n/a	WORD	863911	wordpools/wasnorm_wordpool.txt	LTP095	ltpFR	14	9	-1	SPAGHETTI	1346	n/a	-1	1	1.0	1.0	upper	../fonts/Verdana.ttf
1731.726	n/a	WORD	865863	wordpools/wasnorm_wordpool.txt	LTP095	ltpFR	14	9	-1	BAY	102	n/a	-1	1	1.0	1.0	upper	../fonts/Verdana.ttf
1735.896	n/a	WORD	867948	wordpools/wasnorm_wordpool.txt	LTP095	ltpFR	14	9	-1	BIRD	129	n/a	-1	1	1.0	1.0	upper	../fonts/Verdana.ttf
1739.9	n/a	WORD	869950	wordpools/wasnorm_wordpool.txt	LTP095	ltpFR	14	9	-1	CROW	414	n/a	-1	1	1.0	1.0	upper	../fonts/Verdana.ttf
1743.828	n/a	WORD	871914	wordpools/wasnorm_wordpool.txt	LTP095	ltpFR	14	9	-1	GORILLA	650	n/a	-1	1	1.0	1.0	upper	../fonts/Verdana.ttf
1747.682	n/a	WORD	873841	wordpools/wasnorm_wordpool.txt	LTP095	ltpFR	14	9	-1	BACK	65	n/a	-1	1	1.0	1.0	upper	../fonts/Verdana.ttf
1751.652	n/a	WORD	875826	wordpools/wasnorm_wordpool.txt	LTP095	ltpFR	14	9	-1	LETTUCE	814	n/a	-1	1	1.0	1.0	upper	../fonts/Verdana.ttf
1755.64	n/a	WORD	877820	wordpools/wasnorm_wordpool.txt	LTP095	ltpFR	14	9	-1	SEA	1259	n/a	-1	1	1.0	1.0	upper	../fonts/Verdana.ttf
1759.76	n/a	WORD	879880	wordpools/wasnorm_wordpool.txt	LTP095	ltpFR	14	9	-1	REEF	1177	n/a	-1	1	1.0	1.0	upper	../fonts/Verdana.ttf
1763.63	n/a	WORD	881815	wordpools/wasnorm_wordpool.txt	LTP095	ltpFR	14	9	-1	MERMAID	887	n/a	-1	1	1.0	1.0	upper	../fonts/Verdana.ttf
1767.444	n/a	WORD	883722	wordpools/wasnorm_wordpool.txt	LTP095	ltpFR	14	9	-1	PASTA	1021	n/a	-1	1	1.0	1.0	upper	../fonts/Verdana.ttf
1771.372	n/a	WORD	885686	wordpools/wasnorm_wordpool.txt	LTP095	ltpFR	14	9	-1	PATROL	1027	n/a	-1	1	1.0	1.0	upper	../fonts/Verdana.ttf
1777.0	n/a	REC_START	888500	n/a	LTP095	ltpFR	14	9	n/a	n/a	n/a	n/a	n/a	n/a	n/a	n/a	n/a	n/a
1778.352	n/a	REC_WORD	889176	wordpools/wasnorm_wordpool.txt	LTP095	ltpFR	14	9	-1	PATROL	1027	n/a	-1	n/a	n/a	n/a	n/a	n/a
1780.038	n/a	REC_WORD	890019	wordpools/wasnorm_wordpool.txt	LTP095	ltpFR	14	9	-1	GORILLA	650	n/a	-1	n/a	n/a	n/a	n/a	n/a
1781.724	n/a	REC_WORD	890862	wordpools/wasnorm_wordpool.txt	LTP095	ltpFR	14	9	-1	SEA	1259	n/a	-1	n/a	n/a	n/a	n/a	n/a
1783.33	n/a	REC_WORD	891665	wordpools/wasnorm_wordpool.txt	LTP095	ltpFR	14	9	-1	REEF	1177	n/a	-1	n/a	n/a	n/a	n/a	n/a
1786.858	n/a	REC_WORD	893429	wordpools/wasnorm_wordpool.txt	LTP095	ltpFR	14	9	n/a	CONTROL	-1	n/a	n/a	n/a	n/a	n/a	n/a	n/a
1833.51	n/a	REC_WORD	916755	wordpools/wasnorm_wordpool.txt	LTP095	ltpFR	14	9	0	SALAD	1224	n/a	0	n/a	n/a	n/a	n/a	n/a
1844.176	n/a	REC_WORD	922088	wordpools/wasnorm_wordpool.txt	LTP095	ltpFR	14	9	n/a	JEWELERY	-1	n/a	n/a	n/a	n/a	n/a	n/a	n/a
1855.184	n/a	WORD	927592	wordpools/wasnorm_wordpool.txt	LTP095	ltpFR	14	10	1	BARK	87	n/a	1	1	0.412841796875	0.57763671875	upper	../fonts/zerothre.ttf
1859.138	n/a	WORD	929569	wordpools/wasnorm_wordpool.txt	LTP095	ltpFR	14	10	1	LEAF	808	n/a	1	1	0.412841796875	0.57763671875	upper	../fonts/zerothre.ttf
1863.142	n/a	WORD	931571	wordpools/wasnorm_wordpool.txt	LTP095	ltpFR	14	10	1	STABLE	1363	n/a	0	1	0.412841796875	0.57763671875	upper	../fonts/zerothre.ttf
1867.344	n/a	WORD	933672	wordpools/wasnorm_wordpool.txt	LTP095	ltpFR	14	10	1	RECEIPT	1173	n/a	0	1	0.412841796875	0.57763671875	upper	../fonts/zerothre.ttf
1871.482	n/a	WORD	935741	wordpools/wasnorm_wordpool.txt	LTP095	ltpFR	14	10	1	STORE	1387	n/a	0	1	0.412841796875	0.57763671875	upper	../fonts/zerothre.ttf
1875.502	n/a	WORD	937751	wordpools/wasnorm_wordpool.txt	LTP095	ltpFR	14	10	1	ANIMAL	23	n/a	1	1	0.412841796875	0.57763671875	upper	../fonts/zerothre.ttf
1879.43	n/a	WORD	939715	wordpools/wasnorm_wordpool.txt	LTP095	ltpFR	14	10	1	PIE	1062	n/a	0	1	0.412841796875	0.57763671875	upper	../fonts/zerothre.ttf
1883.41	n/a	WORD	941705	wordpools/wasnorm_wordpool.txt	LTP095	ltpFR	14	10	1	TICK	1463	n/a	0	1	0.412841796875	0.57763671875	upper	../fonts/zerothre.ttf
1887.572	n/a	WORD	943786	wordpools/wasnorm_wordpool.txt	LTP095	ltpFR	14	10	1	DINNER	468	n/a	1	1	0.412841796875	0.57763671875	upper	../fonts/zerothre.ttf
1891.466	n/a	WORD	945733	wordpools/wasnorm_wordpool.txt	LTP095	ltpFR	14	10	1	HERO	706	n/a	1	1	0.412841796875	0.57763671875	upper	../fonts/zerothre.ttf
1895.57	n/a	WORD	947785	wordpools/wasnorm_wordpool.txt	LTP095	ltpFR	14	10	1	MAPLE	866	n/a	0	1	0.412841796875	0.57763671875	upper	../fonts/zerothre.ttf
1899.682	n/a	WORD	949841	wordpools/wasnorm_wordpool.txt	LTP095	ltpFR	14	10	1	RASPBERRY	1168	n/a	1	1	0.412841796875	0.57763671875	upper	../fonts/zerothre.ttf
1903.586	n/a	WORD	951793	wordpools/wasnorm_wordpool.txt	LTP095	ltpFR	14	10	1	CANARY	227	n/a	1	1	0.412841796875	0.57763671875	upper	../fonts/zerothre.ttf
1907.622	n/a	WORD	953811	wordpools/wasnorm_wordpool.txt	LTP095	ltpFR	14	10	1	FLEA	577	n/a	1	1	0.412841796875	0.57763671875	upper	../fonts/zerothre.ttf
1911.784	n/a	WORD	955892	wordpools/wasnorm_wordpool.txt	LTP095	ltpFR	14	10	1	SENATOR	1268	n/a	1	1	0.412841796875	0.57763671875	upper	../fonts/zerothre.ttf
1915.83	n/a	WORD	957915	wordpools/wasnorm_wordpool.txt	LTP095	ltpFR	14	10	1	POLITICIAN	1099	n/a	n/a	1	0.412841796875	0.57763671875	upper	../fonts/zerothre.ttf
1918.852	n/a	SLOW_MSG	959426	n/a	LTP095	ltpFR	14	10	n/a	n/a	n/a	n/a	n/a	n/a	n/a	n/a	n/a	n/a
1923.348	n/a	REC_START	961674	n/a	LTP095	ltpFR	14	10	n/a	n/a	n/a	n/a	n/a	n/a	n/a	n/a	n/a	n/a
1936.818	n/a	REC_WORD	968409	wordpools/wasnorm_wordpool.txt	LTP095	ltpFR	14	10	1	BROCCOLI	176	n/a	0	n/a	n/a	n/a	n/a	n/a
1944.236	n/a	REC_WORD	972118	wordpools/wasnorm_wordpool.txt	LTP095	ltpFR	14	10	1	FLEA	577	n/a	1	n/a	n/a	n/a	n/a	n/a
1975.784	n/a	REC_WORD	987892	wordpools/wasnorm_wordpool.txt	LTP095	ltpFR	14	10	n/a	CORN	381	n/a	n/a	n/a	n/a	n/a	n/a	n/a
2014.584	n/a	WORD	1007292	wordpools/wasnorm_wordpool.txt	LTP095	ltpFR	14	11	0	MINER	896	n/a	1	0	0.5869140625	0.422607421875	lower	../fonts/amplitud.ttf
2018.422	n/a	WORD	1009211	wordpools/wasnorm_wordpool.txt	LTP095	ltpFR	14	11	0	SALESMAN	1225	n/a	1	0	0.5869140625	0.422607421875	lower	../fonts/amplitud.ttf
2022.424	n/a	WORD	1011212	wordpools/wasnorm_wordpool.txt	LTP095	ltpFR	14	11	0	WASHER	1592	n/a	1	0	0.5869140625	0.422607421875	lower	../fonts/amplitud.ttf
2026.504	n/a	WORD	1013252	wordpools/wasnorm_wordpool.txt	LTP095	ltpFR	14	11	0	MEDAL	885	n/a	0	0	0.5869140625	0.422607421875	lower	../fonts/amplitud.ttf
2030.556	n/a	WORD	1015278	wordpools/wasnorm_wordpool.txt	LTP095	ltpFR	14	11	0	VICTOR	1563	n/a	0	0	0.5869140625	0.422607421875	lower	../fonts/amplitud.ttf
2034.586	n/a	WORD	1017293	wordpools/wasnorm_wordpool.txt	LTP095	ltpFR	14	11	0	EUROPE	541	n/a	1	0	0.5869140625	0.422607421875	lower	../fonts/amplitud.ttf
2038.73	n/a	WORD	1019365	wordpools/wasnorm_wordpool.txt	LTP095	ltpFR	14	11	0	DISHWASHER	475	n/a	0	0	0.5869140625	0.422607421875	lower	../fonts/amplitud.ttf
2042.576	n/a	WORD	1021288	wordpools/wasnorm_wordpool.txt	LTP095	ltpFR	14	11	0	DISH	474	n/a	0	0	0.5869140625	0.422607421875	lower	../fonts/amplitud.ttf
2046.388	n/a	WORD	1023194	wordpools/wasnorm_wordpool.txt	LTP095	ltpFR	14	11	0	INTESTINE	742	n/a	1	0	0.5869140625	0.422607421875	lower	../fonts/amplitud.ttf
2050.376	n/a	WORD	1025188	wordpools/wasnorm_wordpool.txt	LTP095	ltpFR	14	11	0	SAGE	1222	n/a	0	0	0.5869140625	0.422607421875	lower	../fonts/amplitud.ttf
2054.388	n/a	WORD	1027194	wordpools/wasnorm_wordpool.txt	LTP095	ltpFR	14	11	0	DOOR	486	n/a	n/a	0	0.5869140625	0.422607421875	lower	../fonts/amplitud.ttf
2057.41	n/a	SLOW_MSG	1028705	n/a	LTP095	ltpFR	14	11	n/a	n/a	n/a	n/a	n/a	n/a	n/a	n/a	n/a	n/a
2060.048	n/a	WORD	1030024	wordpools/wasnorm_wordpool.txt	LTP095	ltpFR	14	11	0	LOCK	838	n/a	0	0	0.5869140625	0.422607421875	lower	../fonts/amplitud.ttf
2063.86	n/a	WORD	1031930	wordpools/wasnorm_wordpool.txt	LTP095	ltpFR	14	11	0	CORAL	378	n/a	n/a	0	0.5869140625	0.422607421875	lower	../fonts/amplitud.ttf
2066.882	n/a	SLOW_MSG	1033441	n/a	LTP095	ltpFR	14	11	n/a	n/a	n/a	n/a	n/a	n/a	n/a	n/a	n/a	n/a
2069.578	n/a	WORD	1034789	wordpools/wasnorm_wordpool.txt	LTP095	ltpFR	14	11	0	HOOK	715	n/a	0	0	0.5869140625	0.422607421875	lower	../fonts/amplitud.ttf
2073.566	n/a	WORD	1036783	wordpools/wasnorm_wordpool.txt	LTP095	ltpFR	14	11	0	COMB	351	n/a	0	0	0.5869140625	0.422607421875	lower	../fonts/amplitud.ttf
2077.71	n/a	WORD	1038855	wordpools/wasnorm_wordpool.txt	LTP095	ltpFR	14	11	0	ASIA	46	n/a	n/a	0	0.5869140625	0.422607421875	lower	../fonts/amplitud.ttf
2080.732	n/a	SLOW_MSG	1040366	n/a	LTP095	ltpFR	14	11	n/a	n/a	n/a	n/a	n/a	n/a	n/a	n/a	n/a	n/a
2085.094	n/a	REC_START	1042547	n/a	LTP095	ltpFR	14	11	n/a	n/a	n/a	n/a	n/a	n/a	n/a	n/a	n/a	n/a
2117.322	n/a	REC_WORD_VV	1058661	wordpools/wasnorm_wordpool.txt	LTP095	ltpFR	14	11	n/a	<>	-1	n/a	n/a	n/a	n/a	n/a	n/a	n/a
2133.29	n/a	REC_WORD	1066645	wordpools/wasnorm_wordpool.txt	LTP095	ltpFR	14	11	-1	NEEDLE	941	n/a	-1	n/a	n/a	n/a	n/a	n/a
2165.368	n/a	WORD	1082684	wordpools/wasnorm_wordpool.txt	LTP095	ltpFR	14	12	-1	LACE	792	n/a	-1	1	1.0	1.0	upper	../fonts/Verdana.ttf
2169.298	n/a	WORD	1084649	wordpools/wasnorm_wordpool.txt	LTP095	ltpFR	14	12	-1	DRESS	495	n/a	-1	1	1.0	1.0	upper	../fonts/Verdana.ttf
2173.278	n/a	WORD	1086639	wordpools/wasnorm_wordpool.txt	LTP095	ltpFR	14	12	-1	PERMIT	1051	n/a	-1	1	1.0	1.0	upper	../fonts/Verdana.ttf
2177.282	n/a	WORD	1088641	wordpools/wasnorm_wordpool.txt	LTP095	ltpFR	14	12	-1	PEANUT	1032	n/a	-1	1	1.0	1.0	upper	../fonts/Verdana.ttf
2181.434	n/a	WORD	1090717	wordpools/wasnorm_wordpool.txt	LTP095	ltpFR	14	12	-1	SEAGULL	1261	n/a	-1	1	1.0	1.0	upper	../fonts/Verdana.ttf
2185.346	n/a	WORD	1092673	wordpools/wasnorm_wordpool.txt	LTP095	ltpFR	14	12	-1	SCRIBBLE	1256	n/a	-1	1	1.0	1.0	upper	../fonts/Verdana.ttf
2189.358	n/a	WORD	1094679	wordpools/wasnorm_wordpool.txt	LTP095	ltpFR	14	12	-1	CHERRY	293	n/a	-1	1	1.0	1.0	upper	../fonts/Verdana.ttf
2193.22	n/a	WORD	1096610	wordpools/wasnorm_wordpool.txt	LTP095	ltpFR	14	12	-1	FROST	609	n/a	-1	1	1.0	1.0	upper	../fonts/Verdana.ttf
2197.432	n/a	WORD	1098716	wordpools/wasnorm_wordpool.txt	LTP095	ltpFR	14	12	-1	CLIPPERS	324	n/a	-1	1	1.0	1.0	upper	../fonts/Verdana.ttf
2201.636	n/a	WORD	1100818	wordpools/wasnorm_wordpool.txt	LTP095	ltpFR	14	12	-1	SAW	1239	n/a	-1	1	1.0	1.0	upper	../fonts/Verdana.ttf
2205.614	n/a	WORD	1102807	wordpools/wasnorm_wordpool.txt	LTP095	ltpFR	14	12	-1	PLUM	1090	n/a	-1	1	1.0	1.0	upper	../fonts/Verdana.ttf
2209.592	n/a	WORD	1104796	wordpools/wasnorm_wordpool.txt	LTP095	ltpFR	14	12	-1	PUMP	1141	n/a	-1	1	1.0	1.0	upper	../fonts/Verdana.ttf
2213.654	n/a	WORD	1106827	wordpools/wasnorm_wordpool.txt	LTP095	ltpFR	14	12	-1	PAPER	1011	n/a	-1	1	1.0	1.0	upper	../fonts/Verdana.ttf
2217.542	n/a	WORD	1108771	wordpools/wasnorm_wordpool.txt	LTP095	ltpFR	14	12	-1	BUS	201	n/a	-1	1	1.0	1.0	upper	../fonts/Verdana.ttf
2221.504	n/a	WORD	1110752	wordpools/wasnorm_wordpool.txt	LTP095	ltpFR	14	12	-1	SUITCASE	1403	n/a	-1	1	1.0	1.0	upper	../fonts/Verdana.ttf
2225.416	n/a	WORD	1112708	wordpools/wasnorm_wordpool.txt	LTP095	ltpFR	14	12	-1	SUBWAY	1400	n/a	-1	1	1.0	1.0	upper	../fonts/Verdana.ttf
2231.334	n/a	REC_START	1115667	n/a	LTP095	ltpFR	14	12	n/a	n/a	n/a	n/a	n/a	n/a	n/a	n/a	n/a	n/a
2233.384	n/a	REC_WORD	1116692	wordpools/wasnorm_wordpool.txt	LTP095	ltpFR	14	12	-1	SUBWAY	1400	n/a	-1	n/a	n/a	n/a	n/a	n/a
2246.984	n/a	REC_WORD	1123492	wordpools/wasnorm_wordpool.txt	LTP095	ltpFR	14	12	n/a	EAT	-1	n/a	n/a	n/a	n/a	n/a	n/a	n/a
2286.45	n/a	REC_WORD	1143225	wordpools/wasnorm_wordpool.txt	LTP095	ltpFR	14	12	n/a	HEDGE	699	n/a	n/a	n/a	n/a	n/a	n/a	n/a
2292.82	n/a	REC_WORD	1146410	wordpools/wasnorm_wordpool.txt	LTP095	ltpFR	14	12	-1	BUS	201	n/a	-1	n/a	n/a	n/a	n/a	n/a
2306.93	n/a	REST_REWET	1153465	n/a	LTP095	ltpFR	14	12	n/a	n/a	n/a	n/a	n/a	n/a	n/a	n/a	n/a	n/a
2734.954	n/a	WORD	1367477	wordpools/wasnorm_wordpool.txt	LTP095	ltpFR	14	13	1	PILLOW	1069	n/a	0	1	0.412841796875	0.57763671875	upper	../fonts/zerothre.ttf
2739.134	n/a	WORD	1369567	wordpools/wasnorm_wordpool.txt	LTP095	ltpFR	14	13	1	DOCK	477	n/a	0	1	0.412841796875	0.57763671875	upper	../fonts/zerothre.ttf
2743.03	n/a	WORD	1371515	wordpools/wasnorm_wordpool.txt	LTP095	ltpFR	14	13	1	PAW	1029	n/a	1	1	0.412841796875	0.57763671875	upper	../fonts/zerothre.ttf
2746.942	n/a	WORD	1373471	wordpools/wasnorm_wordpool.txt	LTP095	ltpFR	14	13	1	VEHICLE	1553	n/a	0	1	0.412841796875	0.57763671875	upper	../fonts/zerothre.ttf
2750.97	n/a	WORD	1375485	wordpools/wasnorm_wordpool.txt	LTP095	ltpFR	14	13	1	HOOD	714	n/a	0	1	0.412841796875	0.57763671875	upper	../fonts/zerothre.ttf
2754.898	n/a	WORD	1377449	wordpools/wasnorm_wordpool.txt	LTP095	ltpFR	14	13	1	COBRA	336	n/a	1	1	0.412841796875	0.57763671875	upper	../fonts/zerothre.ttf
2758.986	n/a	WORD	1379493	wordpools/wasnorm_wordpool.txt	LTP095	ltpFR	14	13	1	HAM	678	n/a	0	1	0.412841796875	0.57763671875	upper	../fonts/zerothre.ttf
2762.824	n/a	WORD	1381412	wordpools/wasnorm_wordpool.txt	LTP095	ltpFR	14	13	1	HEART	697	n/a	0	1	0.412841796875	0.57763671875	upper	../fonts/zerothre.ttf
2766.66	n/a	WORD	1383330	wordpools/wasnorm_wordpool.txt	LTP095	ltpFR	14	13	1	AIRPORT	13	n/a	n/a	1	0.412841796875	0.57763671875	upper	../fonts/zerothre.ttf
2769.682	n/a	SLOW_MSG	1384841	n/a	LTP095	ltpFR	14	13	n/a	n/a	n/a	n/a	n/a	n/a	n/a	n/a	n/a	n/a
2772.128	n/a	WORD	1386064	wordpools/wasnorm_wordpool.txt	LTP095	ltpFR	14	13	1	PASSENGER	1020	n/a	1	1	0.412841796875	0.57763671875	upper	../fonts/zerothre.ttf
2776.3	n/a	WORD	1388150	wordpools/wasnorm_wordpool.txt	LTP095	ltpFR	14	13	1	LIVER	833	n/a	1	1	0.412841796875	0.57763671875	upper	../fonts/zerothre.ttf
2780.304	n/a	WORD	1390152	wordpools/wasnorm_wordpool.txt	LTP095	ltpFR	14	13	1	DOG	480	n/a	1	1	0.412841796875	0.57763671875	upper	../fonts/zerothre.ttf
2784.356	n/a	WORD	1392178	wordpools/wasnorm_wordpool.txt	LTP095	ltpFR	14	13	1	SWAMP	1416	n/a	1	1	0.412841796875	0.57763671875	upper	../fonts/zerothre.ttf
2788.484	n/a	WORD	1394242	wordpools/wasnorm_wordpool.txt	LTP095	ltpFR	14	13	1	BRAN	167	n/a	1	1	0.412841796875	0.57763671875	upper	../fonts/zerothre.ttf
2792.406	n/a	WORD	1396203	wordpools/wasnorm_wordpool.txt	LTP095	ltpFR	14	13	1	DINER	467	n/a	1	1	0.412841796875	0.57763671875	upper	../fonts/zerothre.ttf
2796.408	n/a	WORD	1398204	wordpools/wasnorm_wordpool.txt	LTP095	ltpFR	14	13	1	MONARCH	906	n/a	0	1	0.412841796875	0.57763671875	upper	../fonts/zerothre.ttf
2802.486	n/a	REC_START	1401243	n/a	LTP095	ltpFR	14	13	n/a	n/a	n/a	n/a	n/a	n/a	n/a	n/a	n/a	n/a
2812.722	n/a	REC_WORD	1406361	wordpools/wasnorm_wordpool.txt	LTP095	ltpFR	14	13	1	STABLE	1363	n/a	0	n/a	n/a	n/a	n/a	n/a
2817.332	n/a	REC_WORD	1408666	wordpools/wasnorm_wordpool.txt	LTP095	ltpFR	14	13	1	HEART	697	n/a	0	n/a	n/a	n/a	n/a	n/a
2819.144	n/a	REC_WORD	1409572	wordpools/wasnorm_wordpool.txt	LTP095	ltpFR	14	13	1	LIVER	833	n/a	1	n/a	n/a	n/a	n/a	n/a
2857.068	n/a	REC_WORD_VV	1428534	wordpools/wasnorm_wordpool.txt	LTP095	ltpFR	14	13	n/a	<>	-1	n/a	n/a	n/a	n/a	n/a	n/a	n/a
2859.896	n/a	REC_WORD	1429948	wordpools/wasnorm_wordpool.txt	LTP095	ltpFR	14	13	1	DOCK	477	n/a	0	n/a	n/a	n/a	n/a	n/a
2862.674	n/a	REC_WORD_VV	1431337	wordpools/wasnorm_wordpool.txt	LTP095	ltpFR	14	13	n/a	<>	-1	n/a	n/a	n/a	n/a	n/a	n/a	n/a
2869.31	n/a	REC_WORD	1434655	wordpools/wasnorm_wordpool.txt	LTP095	ltpFR	14	13	1	PIER	1063	n/a	0	n/a	n/a	n/a	n/a	n/a
2874.294	n/a	REC_WORD	1437147	wordpools/wasnorm_wordpool.txt	LTP095	ltpFR	14	13	1	DOCK	477	n/a	0	n/a	n/a	n/a	n/a	n/a
2880.646	n/a	WORD	1440323	wordpools/wasnorm_wordpool.txt	LTP095	ltpFR	14	14	0	PERSONNEL	1053	n/a	1	0	0.5869140625	0.422607421875	lower	../fonts/amplitud.ttf
2884.782	n/a	WORD	1442391	wordpools/wasnorm_wordpool.txt	LTP095	ltpFR	14	14	0	MOB	904	n/a	1	0	0.5869140625	0.422607421875	lower	../fonts/amplitud.ttf
2888.736	n/a	WORD	1444368	wordpools/wasnorm_wordpool.txt	LTP095	ltpFR	14	14	0	PIGEON	1065	n/a	0	0	0.5869140625	0.422607421875	lower	../fonts/amplitud.ttf
2892.832	n/a	WORD	1446416	wordpools/wasnorm_wordpool.txt	LTP095	ltpFR	14	14	0	COMPANION	357	n/a	1	0	0.5869140625	0.422607421875	lower	../fonts/amplitud.ttf
2896.718	n/a	WORD	1448359	wordpools/wasnorm_wordpool.txt	LTP095	ltpFR	14	14	1	CONSOLE	364	n/a	n/a	1	0.412841796875	0.57763671875	upper	../fonts/zerothre.ttf
2899.74	n/a	SLOW_MSG	1449870	n/a	LTP095	ltpFR	14	14	n/a	n/a	n/a	n/a	n/a	n/a	n/a	n/a	n/a	n/a
2902.13	n/a	WORD	1451065	wordpools/wasnorm_wordpool.txt	LTP095	ltpFR	14	14	1	FOSSIL	596	n/a	0	1	0.412841796875	0.57763671875	upper	../fonts/zerothre.ttf
2906.058	n/a	WORD	1453029	wordpools/wasnorm_wordpool.txt	LTP095	ltpFR	14	14	1	STOMACH	1384	n/a	1	1	0.412841796875	0.57763671875	upper	../fonts/zerothre.ttf
2909.88	n/a	WORD	1454940	wordpools/wasnorm_wordpool.txt	LTP095	ltpFR	14	14	0	RIDER	1191	n/a	1	0	0.5869140625	0.422607421875	lower	../fonts/amplitud.ttf
2913.924	n/a	WORD	1456962	wordpools/wasnorm_wordpool.txt	LTP095	ltpFR	14	14	0	THIGH	1457	n/a	n/a	0	0.5869140625	0.422607421875	lower	../fonts/amplitud.ttf
2916.946	n/a	SLOW_MSG	1458473	n/a	LTP095	ltpFR	14	14	n/a	n/a	n/a	n/a	n/a	n/a	n/a	n/a	n/a	n/a
2919.434	n/a	WORD	1459717	wordpools/wasnorm_wordpool.txt	LTP095	ltpFR	14	14	0	TRAIN	1494	n/a	1	0	0.5869140625	0.422607421875	lower	../fonts/amplitud.ttf
2923.596	n/a	WORD	1461798	wordpools/wasnorm_wordpool.txt	LTP095	ltpFR	14	14	0	DASHBOARD	441	n/a	1	0	0.5869140625	0.422607421875	lower	../fonts/amplitud.ttf
2927.676	n/a	WORD	1463838	wordpools/wasnorm_wordpool.txt	LTP095	ltpFR	14	14	1	COLT	349	n/a	n/a	1	0.412841796875	0.57763671875	upper	../fonts/zerothre.ttf
2930.696	n/a	SLOW_MSG	1465348	n/a	LTP095	ltpFR	14	14	n/a	n/a	n/a	n/a	n/a	n/a	n/a	n/a	n/a	n/a
2933.128	n/a	WORD	1466564	wordpools/wasnorm_wordpool.txt	LTP095	ltpFR	14	14	1	YARD	1630	n/a	1	1	0.412841796875	0.57763671875	upper	../fonts/zerothre.ttf
2937.048	n/a	WORD	1468524	wordpools/wasnorm_wordpool.txt	LTP095	ltpFR	14	14	1	HEEL	700	n/a	n/a	1	0.412841796875	0.57763671875	upper	../fonts/zerothre.ttf
2940.068	n/a	SLOW_MSG	1470034	n/a	LTP095	ltpFR	14	14	n/a	n/a	n/a	n/a	n/a	n/a	n/a	n/a	n/a	n/a
2942.516	n/a	WORD	1471258	wordpools/wasnorm_wordpool.txt	LTP095	ltpFR	14	14	1	DEODORANT	448	n/a	0	1	0.412841796875	0.57763671875	upper	../fonts/zerothre.ttf
2946.604	n/a	WORD	1473302	wordpools/wasnorm_wordpool.txt	LTP095	ltpFR	14	14	1	INCENSE	735	n/a	0	1	0.412841796875	0.57763671875	upper	../fonts/zerothre.ttf
2952.348	n/a	REC_START	1476174	n/a	LTP095	ltpFR	14	14	n/a	n/a	n/a	n/a	n/a	n/a	n/a	n/a	n/a	n/a
2954.598	n/a	REC_WORD	1477299	wordpools/wasnorm_wordpool.txt	LTP095	ltpFR	14	14	1	DEODORANT	448	n/a	0	n/a	n/a	n/a	n/a	n/a
2993.52	n/a	REC_WORD	1496760	wordpools/wasnorm_wordpool.txt	LTP095	ltpFR	14	14	0	PERSONNEL	1053	n/a	1	n/a	n/a	n/a	n/a	n/a
3031.29	n/a	WORD	1515645	wordpools/wasnorm_wordpool.txt	LTP095	ltpFR	14	15	1	COLESLAW	344	n/a	0	1	0.412841796875	0.57763671875	upper	../fonts/zerothre.ttf
3035.126	n/a	WORD	1517563	wordpools/wasnorm_wordpool.txt	LTP095	ltpFR	14	15	1	BANQUET	86	n/a	0	1	0.412841796875	0.57763671875	upper	../fonts/zerothre.ttf
3039.204	n/a	WORD	1519602	wordpools/wasnorm_wordpool.txt	LTP095	ltpFR	14	15	1	COP	376	n/a	1	1	0.412841796875	0.57763671875	upper	../fonts/zerothre.ttf
3043.076	n/a	WORD	1521538	wordpools/wasnorm_wordpool.txt	LTP095	ltpFR	14	15	1	SIREN	1310	n/a	0	1	0.412841796875	0.57763671875	upper	../fonts/zerothre.ttf
3047.178	n/a	WORD	1523589	wordpools/wasnorm_wordpool.txt	LTP095	ltpFR	14	15	0	RADIATOR	1156	n/a	1	0	0.5869140625	0.422607421875	lower	../fonts/amplitud.ttf
3051.216	n/a	WORD	1525608	wordpools/wasnorm_wordpool.txt	LTP095	ltpFR	14	15	0	EXPLOSION	544	n/a	1	0	0.5869140625	0.422607421875	lower	../fonts/amplitud.ttf
3055.42	n/a	WORD	1527710	wordpools/wasnorm_wordpool.txt	LTP095	ltpFR	14	15	0	QUAIL	1147	n/a	1	0	0.5869140625	0.422607421875	lower	../fonts/amplitud.ttf
3059.24	n/a	WORD	1529620	wordpools/wasnorm_wordpool.txt	LTP095	ltpFR	14	15	0	CHEDDAR	286	n/a	0	0	0.5869140625	0.422607421875	lower	../fonts/amplitud.ttf
3063.228	n/a	WORD	1531614	wordpools/wasnorm_wordpool.txt	LTP095	ltpFR	14	15	1	RAG	1160	n/a	0	1	0.412841796875	0.57763671875	upper	../fonts/zerothre.ttf
3067.148	n/a	WORD	1533574	wordpools/wasnorm_wordpool.txt	LTP095	ltpFR	14	15	1	VETERAN	1561	n/a	0	1	0.412841796875	0.57763671875	upper	../fonts/zerothre.ttf
3071.052	n/a	WORD	1535526	wordpools/wasnorm_wordpool.txt	LTP095	ltpFR	14	15	1	VAN	1548	n/a	1	1	0.412841796875	0.57763671875	upper	../fonts/zerothre.ttf
3074.914	n/a	WORD	1537457	wordpools/wasnorm_wordpool.txt	LTP095	ltpFR	14	15	1	SHERIFF	1284	n/a	n/a	1	0.412841796875	0.57763671875	upper	../fonts/zerothre.ttf
3077.936	n/a	SLOW_MSG	1538968	n/a	LTP095	ltpFR	14	15	n/a	n/a	n/a	n/a	n/a	n/a	n/a	n/a	n/a	n/a
3080.558	n/a	WORD	1540279	wordpools/wasnorm_wordpool.txt	LTP095	ltpFR	14	15	0	DRIVEWAY	500	n/a	1	0	0.5869140625	0.422607421875	lower	../fonts/amplitud.ttf
3084.47	n/a	WORD	1542235	wordpools/wasnorm_wordpool.txt	LTP095	ltpFR	14	15	0	DRAWING	494	n/a	1	0	0.5869140625	0.422607421875	lower	../fonts/amplitud.ttf
3088.456	n/a	WORD	1544228	wordpools/wasnorm_wordpool.txt	LTP095	ltpFR	14	15	0	SCENERY	1247	n/a	1	0	0.5869140625	0.422607421875	lower	../fonts/amplitud.ttf
3092.428	n/a	WORD	1546214	wordpools/wasnorm_wordpool.txt	LTP095	ltpFR	14	15	0	SPY	1360	n/a	n/a	0	0.5869140625	0.422607421875	lower	../fonts/amplitud.ttf
3095.448	n/a	SLOW_MSG	1547724	n/a	LTP095	ltpFR	14	15	n/a	n/a	n/a	n/a	n/a	n/a	n/a	n/a	n/a	n/a
3099.902	n/a	REC_START	1549951	n/a	LTP095	ltpFR	14	15	n/a	n/a	n/a	n/a	n/a	n/a	n/a	n/a	n/a	n/a
3107.496	n/a	REC_WORD	1553748	wordpools/wasnorm_wordpool.txt	LTP095	ltpFR	14	15	-1	BUS	201	n/a	-1	n/a	n/a	n/a	n/a	n/a
3112.16	n/a	REC_WORD	1556080	wordpools/wasnorm_wordpool.txt	LTP095	ltpFR	14	15	0	DRIVEWAY	500	n/a	1	n/a	n/a	n/a	n/a	n/a
3113.46	n/a	REC_WORD	1556730	wordpools/wasnorm_wordpool.txt	LTP095	ltpFR	14	15	0	SCENERY	1247	n/a	1	n/a	n/a	n/a	n/a	n/a
3132.754	n/a	REC_WORD	1566377	wordpools/wasnorm_wordpool.txt	LTP095	ltpFR	14	15	n/a	EXERCISE	-1	n/a	n/a	n/a	n/a	n/a	n/a	n/a
3178.902	n/a	WORD	1589451	wordpools/wasnorm_wordpool.txt	LTP095	ltpFR	14	16	0	KITE	779	n/a	0	0	0.5869140625	0.422607421875	lower	../fonts/amplitud.ttf
3182.814	n/a	WORD	1591407	wordpools/wasnorm_wordpool.txt	LTP095	ltpFR	14	16	0	NOOSE	956	n/a	0	0	0.5869140625	0.422607421875	lower	../fonts/amplitud.ttf
3186.818	n/a	WORD	1593409	wordpools/wasnorm_wordpool.txt	LTP095	ltpFR	14	16	0	MAJOR	859	n/a	1	0	0.5869140625	0.422607421875	lower	../fonts/amplitud.ttf
3190.864	n/a	WORD	1595432	wordpools/wasnorm_wordpool.txt	LTP095	ltpFR	14	16	1	ABDOMEN	1	n/a	1	1	0.412841796875	0.57763671875	upper	../fonts/zerothre.ttf
3194.768	n/a	WORD	1597384	wordpools/wasnorm_wordpool.txt	LTP095	ltpFR	14	16	1	HARE	688	n/a	1	1	0.412841796875	0.57763671875	upper	../fonts/zerothre.ttf
3198.946	n/a	WORD	1599473	wordpools/wasnorm_wordpool.txt	LTP095	ltpFR	14	16	1	WHEEL	1603	n/a	0	1	0.412841796875	0.57763671875	upper	../fonts/zerothre.ttf
3203.0	n/a	WORD	1601500	wordpools/wasnorm_wordpool.txt	LTP095	ltpFR	14	16	1	AUTOMOBILE	62	n/a	0	1	0.412841796875	0.57763671875	upper	../fonts/zerothre.ttf
3207.054	n/a	WORD	1603527	wordpools/wasnorm_wordpool.txt	LTP095	ltpFR	14	16	1	RAIL	1161	n/a	n/a	1	0.412841796875	0.57763671875	upper	../fonts/zerothre.ttf
3210.074	n/a	SLOW_MSG	1605037	n/a	LTP095	ltpFR	14	16	n/a	n/a	n/a	n/a	n/a	n/a	n/a	n/a	n/a	n/a
3212.414	n/a	WORD	1606207	wordpools/wasnorm_wordpool.txt	LTP095	ltpFR	14	16	1	TAR	1435	n/a	0	1	0.412841796875	0.57763671875	upper	../fonts/zerothre.ttf
3216.558	n/a	WORD	1608279	wordpools/wasnorm_wordpool.txt	LTP095	ltpFR	14	16	0	BOOTH	151	n/a	n/a	0	0.5869140625	0.422607421875	lower	../fonts/amplitud.ttf
3219.58	n/a	SLOW_MSG	1609790	n/a	LTP095	ltpFR	14	16	n/a	n/a	n/a	n/a	n/a	n/a	n/a	n/a	n/a	n/a
3222.128	n/a	WORD	1611064	wordpools/wasnorm_wordpool.txt	LTP095	ltpFR	14	16	0	TURTLE	1522	n/a	1	0	0.5869140625	0.422607421875	lower	../fonts/amplitud.ttf
3226.316	n/a	WORD	1613158	wordpools/wasnorm_wordpool.txt	LTP095	ltpFR	14	16	0	PARENT	1013	n/a	1	0	0.5869140625	0.422607421875	lower	../fonts/amplitud.ttf
3230.178	n/a	WORD	1615089	wordpools/wasnorm_wordpool.txt	LTP095	ltpFR	14	16	1	ULCER	1533	n/a	0	1	0.412841796875	0.57763671875	upper	../fonts/zerothre.ttf
3234.282	n/a	WORD	1617141	wordpools/wasnorm_wordpool.txt	LTP095	ltpFR	14	16	1	FUNGUS	614	n/a	1	1	0.412841796875	0.57763671875	upper	../fonts/zerothre.ttf
3238.484	n/a	WORD	1619242	wordpools/wasnorm_wordpool.txt	LTP095	ltpFR	14	16	0	COUNTRY	388	n/a	1	0	0.5869140625	0.422607421875	lower	../fonts/amplitud.ttf
3242.654	n/a	WORD	1621327	wordpools/wasnorm_wordpool.txt	LTP095	ltpFR	14	16	0	MUSEUM	933	n/a	2	0	0.5869140625	0.422607421875	lower	../fonts/amplitud.ttf
3244.02	n/a	KEY_MSG	1622010	n/a	LTP095	ltpFR	14	16	n/a	n/a	n/a	n/a	n/a	n/a	n/a	n/a	n/a	n/a
3248.516	n/a	REC_START	1624258	n/a	LTP095	ltpFR	14	16	n/a	n/a	n/a	n/a	n/a	n/a	n/a	n/a	n/a	n/a
3305.616	n/a	REC_WORD_VV	1652808	wordpools/wasnorm_wordpool.txt	LTP095	ltpFR	14	16	n/a	<>	-1	n/a	n/a	n/a	n/a	n/a	n/a	n/a
3311.698	n/a	REC_WORD	1655849	wordpools/wasnorm_wordpool.txt	LTP095	ltpFR	14	16	n/a	FIRETRUCK	-1	n/a	n/a	n/a	n/a	n/a	n/a	n/a
3346.254	n/a	REC_START	1673127	n/a	LTP095	ltpFR	14	1	n/a	n/a	n/a	n/a	n/a	n/a	n/a	n/a	n/a	n/a
3346.278	n/a	RECOG_TARGET	1673139	n/a	LTP095	ltpFR	14	1	-1	PUMP	1141	2	-1	n/a	n/a	n/a	n/a	n/a
3350.044	n/a	RECOG_RESP	1675022	n/a	LTP095	ltpFR	14	1	-1	PUMP	1141	n/a	-1	n/a	n/a	n/a	n/a	n/a
3351.008	n/a	RECOG_CONF	1675504	n/a	LTP095	ltpFR	14	1	-1	PUMP	1141	2	-1	n/a	n/a	n/a	n/a	n/a
3352.602	n/a	RECOG_TARGET	1676301	n/a	LTP095	ltpFR	14	1	1	BROCCOLI	176	4	0	n/a	n/a	n/a	n/a	n/a
3353.418	n/a	RECOG_RESP	1676709	n/a	LTP095	ltpFR	14	1	1	BROCCOLI	176	n/a	0	n/a	n/a	n/a	n/a	n/a
3354.03	n/a	RECOG_CONF	1677015	n/a	LTP095	ltpFR	14	1	1	BROCCOLI	176	4	0	n/a	n/a	n/a	n/a	n/a
3355.366	n/a	RECOG_TARGET	1677683	n/a	LTP095	ltpFR	14	1	-1	GORILLA	650	4	-1	n/a	n/a	n/a	n/a	n/a
3356.076	n/a	RECOG_RESP	1678038	n/a	LTP095	ltpFR	14	1	-1	GORILLA	650	n/a	-1	n/a	n/a	n/a	n/a	n/a
3356.594	n/a	RECOG_CONF	1678297	n/a	LTP095	ltpFR	14	1	-1	GORILLA	650	4	-1	n/a	n/a	n/a	n/a	n/a
3357.996	n/a	RECOG_LURE	1678998	n/a	LTP095	ltpFR	14	1	n/a	BARN	89	3	n/a	n/a	n/a	n/a	n/a	n/a
3358.784	n/a	RECOG_RESP	1679392	n/a	LTP095	ltpFR	14	1	n/a	BARN	89	n/a	n/a	n/a	n/a	n/a	n/a	n/a
3359.298	n/a	RECOG_CONF	1679649	n/a	LTP095	ltpFR	14	1	n/a	BARN	89	3	n/a	n/a	n/a	n/a	n/a	n/a
3360.486	n/a	RECOG_TARGET	1680243	n/a	LTP095	ltpFR	14	1	1	MOUTH	926	4	1	n/a	n/a	n/a	n/a	n/a
3361.304	n/a	RECOG_RESP	1680652	n/a	LTP095	ltpFR	14	1	1	MOUTH	926	n/a	1	n/a	n/a	n/a	n/a	n/a
3361.902	n/a	RECOG_CONF	1680951	n/a	LTP095	ltpFR	14	1	1	MOUTH	926	4	1	n/a	n/a	n/a	n/a	n/a
3363.398	n/a	RECOG_TARGET	1681699	n/a	LTP095	ltpFR	14	1	0	NOOSE	956	4	0	n/a	n/a	n/a	n/a	n/a
3364.398	n/a	RECOG_RESP	1682199	n/a	LTP095	ltpFR	14	1	0	NOOSE	956	n/a	0	n/a	n/a	n/a	n/a	n/a
3365.026	n/a	RECOG_CONF	1682513	n/a	LTP095	ltpFR	14	1	0	NOOSE	956	4	0	n/a	n/a	n/a	n/a	n/a
3366.554	n/a	RECOG_LURE	1683277	n/a	LTP095	ltpFR	14	1	n/a	ACORN	3	2	n/a	n/a	n/a	n/a	n/a	n/a
3368.018	n/a	RECOG_RESP	1684009	n/a	LTP095	ltpFR	14	1	n/a	ACORN	3	n/a	n/a	n/a	n/a	n/a	n/a	n/a
3368.798	n/a	RECOG_CONF	1684399	n/a	LTP095	ltpFR	14	1	n/a	ACORN	3	2	n/a	n/a	n/a	n/a	n/a	n/a
3370.19	n/a	RECOG_TARGET	1685095	n/a	LTP095	ltpFR	14	1	0	RODENT	1204	3	0	n/a	n/a	n/a	n/a	n/a
3371.012	n/a	RECOG_RESP	1685506	n/a	LTP095	ltpFR	14	1	0	RODENT	1204	n/a	0	n/a	n/a	n/a	n/a	n/a
3371.58	n/a	RECOG_CONF	1685790	n/a	LTP095	ltpFR	14	1	0	RODENT	1204	3	0	n/a	n/a	n/a	n/a	n/a
3372.82	n/a	RECOG_LURE	1686410	n/a	LTP095	ltpFR	14	1	n/a	BEER	114	3	n/a	n/a	n/a	n/a	n/a	n/a
3373.8	n/a	RECOG_RESP	1686900	n/a	LTP095	ltpFR	14	1	n/a	BEER	114	n/a	n/a	n/a	n/a	n/a	n/a	n/a
3374.346	n/a	RECOG_CONF	1687173	n/a	LTP095	ltpFR	14	1	n/a	BEER	114	3	n/a	n/a	n/a	n/a	n/a	n/a
3375.718	n/a	RECOG_TARGET	1687859	n/a	LTP095	ltpFR	14	1	-1	FUDGE	611	5	-1	n/a	n/a	n/a	n/a	n/a
3376.42	n/a	RECOG_RESP	1688210	n/a	LTP095	ltpFR	14	1	-1	FUDGE	611	n/a	-1	n/a	n/a	n/a	n/a	n/a
3376.958	n/a	RECOG_CONF	1688479	n/a	LTP095	ltpFR	14	1	-1	FUDGE	611	5	-1	n/a	n/a	n/a	n/a	n/a
3378.14	n/a	RECOG_TARGET	1689070	n/a	LTP095	ltpFR	14	1	0	CHEDDAR	286	2	0	n/a	n/a	n/a	n/a	n/a
3379.104	n/a	RECOG_RESP	1689552	n/a	LTP095	ltpFR	14	1	0	CHEDDAR	286	n/a	0	n/a	n/a	n/a	n/a	n/a
3379.812	n/a	RECOG_CONF	1689906	n/a	LTP095	ltpFR	14	1	0	CHEDDAR	286	2	0	n/a	n/a	n/a	n/a	n/a
3381.552	n/a	RECOG_LURE	1690776	n/a	LTP095	ltpFR	14	1	n/a	OWNER	993	2	n/a	n/a	n/a	n/a	n/a	n/a
3384.048	n/a	RECOG_RESP	1692024	n/a	LTP095	ltpFR	14	1	n/a	OWNER	993	n/a	n/a	n/a	n/a	n/a	n/a	n/a
3385.22	n/a	RECOG_CONF	1692610	n/a	LTP095	ltpFR	14	1	n/a	OWNER	993	2	n/a	n/a	n/a	n/a	n/a	n/a
3386.706	n/a	RECOG_TARGET	1693353	n/a	LTP095	ltpFR	14	1	0	TREE	1502	3	1	n/a	n/a	n/a	n/a	n/a
3387.296	n/a	RECOG_RESP	1693648	n/a	LTP095	ltpFR	14	1	0	TREE	1502	n/a	1	n/a	n/a	n/a	n/a	n/a
3387.864	n/a	RECOG_CONF	1693932	n/a	LTP095	ltpFR	14	1	0	TREE	1502	3	1	n/a	n/a	n/a	n/a	n/a
3389.296	n/a	RECOG_LURE	1694648	n/a	LTP095	ltpFR	14	1	n/a	BULL	193	2	n/a	n/a	n/a	n/a	n/a	n/a
3390.468	n/a	RECOG_RESP	1695234	n/a	LTP095	ltpFR	14	1	n/a	BULL	193	n/a	n/a	n/a	n/a	n/a	n/a	n/a
3391.008	n/a	RECOG_CONF	1695504	n/a	LTP095	ltpFR	14	1	n/a	BULL	193	2	n/a	n/a	n/a	n/a	n/a	n/a
3392.84	n/a	RECOG_LURE	1696420	n/a	LTP095	ltpFR	14	1	n/a	WRITER	1627	3	n/a	n/a	n/a	n/a	n/a	n/a
3393.462	n/a	RECOG_RESP	1696731	n/a	LTP095	ltpFR	14	1	n/a	WRITER	1627	n/a	n/a	n/a	n/a	n/a	n/a	n/a
3394.0	n/a	RECOG_CONF	1697000	n/a	LTP095	ltpFR	14	1	n/a	WRITER	1627	3	n/a	n/a	n/a	n/a	n/a	n/a
3395.188	n/a	RECOG_TARGET	1697594	n/a	LTP095	ltpFR	14	1	0	PIGEON	1065	3	0	n/a	n/a	n/a	n/a	n/a
3396.316	n/a	RECOG_RESP	1698158	n/a	LTP095	ltpFR	14	1	0	PIGEON	1065	n/a	0	n/a	n/a	n/a	n/a	n/a
3396.942	n/a	RECOG_CONF	1698471	n/a	LTP095	ltpFR	14	1	0	PIGEON	1065	3	0	n/a	n/a	n/a	n/a	n/a
3398.442	n/a	RECOG_TARGET	1699221	n/a	LTP095	ltpFR	14	1	0	BALLOT	76	5	0	n/a	n/a	n/a	n/a	n/a
3399.528	n/a	RECOG_RESP	1699764	n/a	LTP095	ltpFR	14	1	0	BALLOT	76	n/a	0	n/a	n/a	n/a	n/a	n/a
3400.196	n/a	RECOG_CONF	1700098	n/a	LTP095	ltpFR	14	1	0	BALLOT	76	5	0	n/a	n/a	n/a	n/a	n/a
3401.198	n/a	RECOG_TARGET	1700599	n/a	LTP095	ltpFR	14	1	0	FORT	595	4	1	n/a	n/a	n/a	n/a	n/a
3401.864	n/a	RECOG_RESP	1700932	n/a	LTP095	ltpFR	14	1	0	FORT	595	n/a	1	n/a	n/a	n/a	n/a	n/a
3402.452	n/a	RECOG_CONF	1701226	n/a	LTP095	ltpFR	14	1	0	FORT	595	4	1	n/a	n/a	n/a	n/a	n/a
3403.778	n/a	RECOG_TARGET	1701889	n/a	LTP095	ltpFR	14	1	1	PIE	1062	2	0	n/a	n/a	n/a	n/a	n/a
3404.816	n/a	RECOG_RESP	1702408	n/a	LTP095	ltpFR	14	1	1	PIE	1062	n/a	0	n/a	n/a	n/a	n/a	n/a
3405.374	n/a	RECOG_CONF	1702687	n/a	LTP095	ltpFR	14	1	1	PIE	1062	2	0	n/a	n/a	n/a	n/a	n/a
3406.716	n/a	RECOG_TARGET	1703358	n/a	LTP095	ltpFR	14	1	0	TRAIN	1494	4	1	n/a	n/a	n/a	n/a	n/a
3407.48	n/a	RECOG_RESP	1703740	n/a	LTP095	ltpFR	14	1	0	TRAIN	1494	n/a	1	n/a	n/a	n/a	n/a	n/a
3408.01	n/a	RECOG_CONF	1704005	n/a	LTP095	ltpFR	14	1	0	TRAIN	1494	4	1	n/a	n/a	n/a	n/a	n/a
3411.28	n/a	REC_START	1705640	n/a	LTP095	ltpFR	14	2	n/a	n/a	n/a	n/a	n/a	n/a	n/a	n/a	n/a	n/a
3411.312	n/a	RECOG_LURE	1705656	n/a	LTP095	ltpFR	14	2	n/a	CHURCH	307	2	n/a	n/a	n/a	n/a	n/a	n/a
3412.732	n/a	RECOG_RESP	1706366	n/a	LTP095	ltpFR	14	2	n/a	CHURCH	307	n/a	n/a	n/a	n/a	n/a	n/a	n/a
3413.32	n/a	RECOG_CONF	1706660	n/a	LTP095	ltpFR	14	2	n/a	CHURCH	307	2	n/a	n/a	n/a	n/a	n/a	n/a
3414.674	n/a	RECOG_TARGET	1707337	n/a	LTP095	ltpFR	14	2	0	BROOK	177	3	1	n/a	n/a	n/a	n/a	n/a
3416.098	n/a	RECOG_RESP	1708049	n/a	LTP095	ltpFR	14	2	0	BROOK	177	n/a	1	n/a	n/a	n/a	n/a	n/a
3416.642	n/a	RECOG_CONF	1708321	n/a	LTP095	ltpFR	14	2	0	BROOK	177	3	1	n/a	n/a	n/a	n/a	n/a
3418.144	n/a	RECOG_TARGET	1709072	n/a	LTP095	ltpFR	14	2	0	QUAIL	1147	4	1	n/a	n/a	n/a	n/a	n/a
3419.092	n/a	RECOG_RESP	1709546	n/a	LTP095	ltpFR	14	2	0	QUAIL	1147	n/a	1	n/a	n/a	n/a	n/a	n/a
3419.614	n/a	RECOG_CONF	1709807	n/a	LTP095	ltpFR	14	2	0	QUAIL	1147	4	1	n/a	n/a	n/a	n/a	n/a
3420.75	n/a	RECOG_LURE	1710375	n/a	LTP095	ltpFR	14	2	n/a	ATOM	55	2	n/a	n/a	n/a	n/a	n/a	n/a
3422.29	n/a	RECOG_RESP	1711145	n/a	LTP095	ltpFR	14	2	n/a	ATOM	55	n/a	n/a	n/a	n/a	n/a	n/a	n/a
3423.436	n/a	RECOG_CONF	1711718	n/a	LTP095	ltpFR	14	2	n/a	ATOM	55	2	n/a	n/a	n/a	n/a	n/a	n/a
3424.762	n/a	RECOG_LURE	1712381	n/a	LTP095	ltpFR	14	2	n/a	NUN	962	3	n/a	n/a	n/a	n/a	n/a	n/a
3425.812	n/a	RECOG_RESP	1712906	n/a	LTP095	ltpFR	14	2	n/a	NUN	962	n/a	n/a	n/a	n/a	n/a	n/a	n/a
3426.7	n/a	RECOG_CONF	1713350	n/a	LTP095	ltpFR	14	2	n/a	NUN	962	3	n/a	n/a	n/a	n/a	n/a	n/a
3427.9	n/a	RECOG_TARGET	1713950	n/a	LTP095	ltpFR	14	2	0	SALESMAN	1225	2	1	n/a	n/a	n/a	n/a	n/a
3429.328	n/a	RECOG_RESP	1714664	n/a	LTP095	ltpFR	14	2	0	SALESMAN	1225	n/a	1	n/a	n/a	n/a	n/a	n/a
3429.882	n/a	RECOG_CONF	1714941	n/a	LTP095	ltpFR	14	2	0	SALESMAN	1225	2	1	n/a	n/a	n/a	n/a	n/a
3431.196	n/a	RECOG_TARGET	1715598	n/a	LTP095	ltpFR	14	2	-1	CABLE	213	3	-1	n/a	n/a	n/a	n/a	n/a
3432.212	n/a	RECOG_RESP	1716106	n/a	LTP095	ltpFR	14	2	-1	CABLE	213	n/a	-1	n/a	n/a	n/a	n/a	n/a
3432.766	n/a	RECOG_CONF	1716383	n/a	LTP095	ltpFR	14	2	-1	CABLE	213	3	-1	n/a	n/a	n/a	n/a	n/a
3433.968	n/a	RECOG_TARGET	1716984	n/a	LTP095	ltpFR	14	2	0	MICROWAVE	892	4	1	n/a	n/a	n/a	n/a	n/a
3434.88	n/a	RECOG_RESP	1717440	n/a	LTP095	ltpFR	14	2	0	MICROWAVE	892	n/a	1	n/a	n/a	n/a	n/a	n/a
3435.338	n/a	RECOG_CONF	1717669	n/a	LTP095	ltpFR	14	2	0	MICROWAVE	892	4	1	n/a	n/a	n/a	n/a	n/a
3436.598	n/a	RECOG_TARGET	1718299	n/a	LTP095	ltpFR	14	2	-1	SUBWAY	1400	5	-1	n/a	n/a	n/a	n/a	n/a
3437.48	n/a	RECOG_RESP	1718740	n/a	LTP095	ltpFR	14	2	-1	SUBWAY	1400	n/a	-1	n/a	n/a	n/a	n/a	n/a
3437.994	n/a	RECOG_CONF	1718997	n/a	LTP095	ltpFR	14	2	-1	SUBWAY	1400	5	-1	n/a	n/a	n/a	n/a	n/a
3439.362	n/a	RECOG_TARGET	1719681	n/a	LTP095	ltpFR	14	2	0	BEAVER	109	5	1	n/a	n/a	n/a	n/a	n/a
3440.314	n/a	RECOG_RESP	1720157	n/a	LTP095	ltpFR	14	2	0	BEAVER	109	n/a	1	n/a	n/a	n/a	n/a	n/a
3440.828	n/a	RECOG_CONF	1720414	n/a	LTP095	ltpFR	14	2	0	BEAVER	109	5	1	n/a	n/a	n/a	n/a	n/a
3442.508	n/a	RECOG_TARGET	1721254	n/a	LTP095	ltpFR	14	2	0	STEW	1380	4	1	n/a	n/a	n/a	n/a	n/a
3444.828	n/a	RECOG_RESP	1722414	n/a	LTP095	ltpFR	14	2	0	STEW	1380	n/a	1	n/a	n/a	n/a	n/a	n/a
3445.406	n/a	RECOG_CONF	1722703	n/a	LTP095	ltpFR	14	2	0	STEW	1380	4	1	n/a	n/a	n/a	n/a	n/a
3446.878	n/a	RECOG_TARGET	1723439	n/a	LTP095	ltpFR	14	2	1	TREAD	1499	4	0	n/a	n/a	n/a	n/a	n/a
3447.702	n/a	RECOG_RESP	1723851	n/a	LTP095	ltpFR	14	2	1	TREAD	1499	n/a	0	n/a	n/a	n/a	n/a	n/a
3448.34	n/a	RECOG_CONF	1724170	n/a	LTP095	ltpFR	14	2	1	TREAD	1499	4	0	n/a	n/a	n/a	n/a	n/a
3449.69	n/a	RECOG_TARGET	1724845	n/a	LTP095	ltpFR	14	2	1	ATTIRE	57	5	0	n/a	n/a	n/a	n/a	n/a
3450.804	n/a	RECOG_RESP	1725402	n/a	LTP095	ltpFR	14	2	1	ATTIRE	57	n/a	0	n/a	n/a	n/a	n/a	n/a
3451.314	n/a	RECOG_CONF	1725657	n/a	LTP095	ltpFR	14	2	1	ATTIRE	57	5	0	n/a	n/a	n/a	n/a	n/a
3452.754	n/a	RECOG_TARGET	1726377	n/a	LTP095	ltpFR	14	2	1	BRAN	167	4	1	n/a	n/a	n/a	n/a	n/a
3453.538	n/a	RECOG_RESP	1726769	n/a	LTP095	ltpFR	14	2	1	BRAN	167	n/a	1	n/a	n/a	n/a	n/a	n/a
3454.078	n/a	RECOG_CONF	1727039	n/a	LTP095	ltpFR	14	2	1	BRAN	167	4	1	n/a	n/a	n/a	n/a	n/a
3455.168	n/a	RECOG_TARGET	1727584	n/a	LTP095	ltpFR	14	2	0	UMBRELLA	1534	5	1	n/a	n/a	n/a	n/a	n/a
3455.992	n/a	RECOG_RESP	1727996	n/a	LTP095	ltpFR	14	2	0	UMBRELLA	1534	n/a	1	n/a	n/a	n/a	n/a	n/a
3456.442	n/a	RECOG_CONF	1728221	n/a	LTP095	ltpFR	14	2	0	UMBRELLA	1534	5	1	n/a	n/a	n/a	n/a	n/a
3457.898	n/a	RECOG_TARGET	1728949	n/a	LTP095	ltpFR	14	2	1	LEAF	808	5	1	n/a	n/a	n/a	n/a	n/a
3458.786	n/a	RECOG_RESP	1729393	n/a	LTP095	ltpFR	14	2	1	LEAF	808	n/a	1	n/a	n/a	n/a	n/a	n/a
3459.266	n/a	RECOG_CONF	1729633	n/a	LTP095	ltpFR	14	2	1	LEAF	808	5	1	n/a	n/a	n/a	n/a	n/a
3460.762	n/a	RECOG_TARGET	1730381	n/a	LTP095	ltpFR	14	2	1	HARE	688	4	1	n/a	n/a	n/a	n/a	n/a
3461.85	n/a	RECOG_RESP	1730925	n/a	LTP095	ltpFR	14	2	1	HARE	688	n/a	1	n/a	n/a	n/a	n/a	n/a
3462.478	n/a	RECOG_CONF	1731239	n/a	LTP095	ltpFR	14	2	1	HARE	688	4	1	n/a	n/a	n/a	n/a	n/a
3463.882	n/a	RECOG_TARGET	1731941	n/a	LTP095	ltpFR	14	2	1	SEASHORE	1263	3	0	n/a	n/a	n/a	n/a	n/a
3465.018	n/a	RECOG_RESP	1732509	n/a	LTP095	ltpFR	14	2	1	SEASHORE	1263	n/a	0	n/a	n/a	n/a	n/a	n/a
3465.592	n/a	RECOG_CONF	1732796	n/a	LTP095	ltpFR	14	2	1	SEASHORE	1263	3	0	n/a	n/a	n/a	n/a	n/a
3466.68	n/a	RECOG_LURE	1733340	n/a	LTP095	ltpFR	14	2	n/a	DART	440	2	n/a	n/a	n/a	n/a	n/a	n/a
3468.076	n/a	RECOG_RESP	1734038	n/a	LTP095	ltpFR	14	2	n/a	DART	440	n/a	n/a	n/a	n/a	n/a	n/a	n/a
3468.58	n/a	RECOG_CONF	1734290	n/a	LTP095	ltpFR	14	2	n/a	DART	440	2	n/a	n/a	n/a	n/a	n/a	n/a
3469.852	n/a	RECOG_LURE	1734926	n/a	LTP095	ltpFR	14	2	n/a	SCALPEL	1243	3	n/a	n/a	n/a	n/a	n/a	n/a
3471.194	n/a	RECOG_RESP	1735597	n/a	LTP095	ltpFR	14	2	n/a	SCALPEL	1243	n/a	n/a	n/a	n/a	n/a	n/a	n/a
3471.818	n/a	RECOG_CONF	1735909	n/a	LTP095	ltpFR	14	2	n/a	SCALPEL	1243	3	n/a	n/a	n/a	n/a	n/a	n/a
3475.712	n/a	REC_START	1737856	n/a	LTP095	ltpFR	14	3	n/a	n/a	n/a	n/a	n/a	n/a	n/a	n/a	n/a	n/a
3475.736	n/a	RECOG_LURE	1737868	n/a	LTP095	ltpFR	14	3	n/a	DISC	473	2	n/a	n/a	n/a	n/a	n/a	n/a
3476.914	n/a	RECOG_RESP	1738457	n/a	LTP095	ltpFR	14	3	n/a	DISC	473	n/a	n/a	n/a	n/a	n/a	n/a	n/a
3477.368	n/a	RECOG_CONF	1738684	n/a	LTP095	ltpFR	14	3	n/a	DISC	473	2	n/a	n/a	n/a	n/a	n/a	n/a
3478.7	n/a	RECOG_TARGET	1739350	n/a	LTP095	ltpFR	14	3	-1	BLOCKADE	137	3	-1	n/a	n/a	n/a	n/a	n/a
3479.896	n/a	RECOG_RESP	1739948	n/a	LTP095	ltpFR	14	3	-1	BLOCKADE	137	n/a	-1	n/a	n/a	n/a	n/a	n/a
3480.636	n/a	RECOG_CONF	1740318	n/a	LTP095	ltpFR	14	3	-1	BLOCKADE	137	3	-1	n/a	n/a	n/a	n/a	n/a
3481.846	n/a	RECOG_TARGET	1740923	n/a	LTP095	ltpFR	14	3	0	CUP	424	4	0	n/a	n/a	n/a	n/a	n/a
3482.6	n/a	RECOG_RESP	1741300	n/a	LTP095	ltpFR	14	3	0	CUP	424	n/a	0	n/a	n/a	n/a	n/a	n/a
3483.16	n/a	RECOG_CONF	1741580	n/a	LTP095	ltpFR	14	3	0	CUP	424	4	0	n/a	n/a	n/a	n/a	n/a
3484.32	n/a	RECOG_TARGET	1742160	n/a	LTP095	ltpFR	14	3	1	TICK	1463	4	0	n/a	n/a	n/a	n/a	n/a
3485.538	n/a	RECOG_RESP	1742769	n/a	LTP095	ltpFR	14	3	1	TICK	1463	n/a	0	n/a	n/a	n/a	n/a	n/a
3486.122	n/a	RECOG_CONF	1743061	n/a	LTP095	ltpFR	14	3	1	TICK	1463	4	0	n/a	n/a	n/a	n/a	n/a
3487.482	n/a	RECOG_LURE	1743741	n/a	LTP095	ltpFR	14	3	n/a	CAN	225	3	n/a	n/a	n/a	n/a	n/a	n/a
3488.712	n/a	RECOG_RESP	1744356	n/a	LTP095	ltpFR	14	3	n/a	CAN	225	n/a	n/a	n/a	n/a	n/a	n/a	n/a
3489.326	n/a	RECOG_CONF	1744663	n/a	LTP095	ltpFR	14	3	n/a	CAN	225	3	n/a	n/a	n/a	n/a	n/a	n/a
3490.744	n/a	RECOG_TARGET	1745372	n/a	LTP095	ltpFR	14	3	1	ULCER	1533	5	0	n/a	n/a	n/a	n/a	n/a
3491.84	n/a	RECOG_RESP	1745920	n/a	LTP095	ltpFR	14	3	1	ULCER	1533	n/a	0	n/a	n/a	n/a	n/a	n/a
3492.34	n/a	RECOG_CONF	1746170	n/a	LTP095	ltpFR	14	3	1	ULCER	1533	5	0	n/a	n/a	n/a	n/a	n/a
3493.616	n/a	RECOG_TARGET	1746808	n/a	LTP095	ltpFR	14	3	0	MISSILE	900	4	1	n/a	n/a	n/a	n/a	n/a
3494.684	n/a	RECOG_RESP	1747342	n/a	LTP095	ltpFR	14	3	0	MISSILE	900	n/a	1	n/a	n/a	n/a	n/a	n/a
3495.23	n/a	RECOG_CONF	1747615	n/a	LTP095	ltpFR	14	3	0	MISSILE	900	4	1	n/a	n/a	n/a	n/a	n/a
3496.546	n/a	RECOG_TARGET	1748273	n/a	LTP095	ltpFR	14	3	1	SCULPTURE	1258	4	0	n/a	n/a	n/a	n/a	n/a
3497.402	n/a	RECOG_RESP	1748701	n/a	LTP095	ltpFR	14	3	1	SCULPTURE	1258	n/a	0	n/a	n/a	n/a	n/a	n/a
3498.076	n/a	RECOG_CONF	1749038	n/a	LTP095	ltpFR	14	3	1	SCULPTURE	1258	4	0	n/a	n/a	n/a	n/a	n/a
3499.45	n/a	RECOG_TARGET	1749725	n/a	LTP095	ltpFR	14	3	1	SALOON	1228	5	0	n/a	n/a	n/a	n/a	n/a
3500.34	n/a	RECOG_RESP	1750170	n/a	LTP095	ltpFR	14	3	1	SALOON	1228	n/a	0	n/a	n/a	n/a	n/a	n/a
3501.128	n/a	RECOG_CONF	1750564	n/a	LTP095	ltpFR	14	3	1	SALOON	1228	5	0	n/a	n/a	n/a	n/a	n/a
3502.372	n/a	RECOG_TARGET	1751186	n/a	LTP095	ltpFR	14	3	1	HAM	678	4	0	n/a	n/a	n/a	n/a	n/a
3503.248	n/a	RECOG_RESP	1751624	n/a	LTP095	ltpFR	14	3	1	HAM	678	n/a	0	n/a	n/a	n/a	n/a	n/a
3503.912	n/a	RECOG_CONF	1751956	n/a	LTP095	ltpFR	14	3	1	HAM	678	4	0	n/a	n/a	n/a	n/a	n/a
3505.32	n/a	RECOG_TARGET	1752660	n/a	LTP095	ltpFR	14	3	1	FOSSIL	596	4	0	n/a	n/a	n/a	n/a	n/a
3505.938	n/a	RECOG_RESP	1752969	n/a	LTP095	ltpFR	14	3	1	FOSSIL	596	n/a	0	n/a	n/a	n/a	n/a	n/a
3506.466	n/a	RECOG_CONF	1753233	n/a	LTP095	ltpFR	14	3	1	FOSSIL	596	4	0	n/a	n/a	n/a	n/a	n/a
3507.558	n/a	RECOG_TARGET	1753779	n/a	LTP095	ltpFR	14	3	1	CLAY	320	5	0	n/a	n/a	n/a	n/a	n/a
3508.486	n/a	RECOG_RESP	1754243	n/a	LTP095	ltpFR	14	3	1	CLAY	320	n/a	0	n/a	n/a	n/a	n/a	n/a
3509.01	n/a	RECOG_CONF	1754505	n/a	LTP095	ltpFR	14	3	1	CLAY	320	5	0	n/a	n/a	n/a	n/a	n/a
3510.346	n/a	RECOG_TARGET	1755173	n/a	LTP095	ltpFR	14	3	-1	PELT	1040	4	-1	n/a	n/a	n/a	n/a	n/a
3511.29	n/a	RECOG_RESP	1755645	n/a	LTP095	ltpFR	14	3	-1	PELT	1040	n/a	-1	n/a	n/a	n/a	n/a	n/a
3511.884	n/a	RECOG_CONF	1755942	n/a	LTP095	ltpFR	14	3	-1	PELT	1040	4	-1	n/a	n/a	n/a	n/a	n/a
3513.168	n/a	RECOG_TARGET	1756584	n/a	LTP095	ltpFR	14	3	1	PILLOW	1069	3	0	n/a	n/a	n/a	n/a	n/a
3514.288	n/a	RECOG_RESP	1757144	n/a	LTP095	ltpFR	14	3	1	PILLOW	1069	n/a	0	n/a	n/a	n/a	n/a	n/a
3514.808	n/a	RECOG_CONF	1757404	n/a	LTP095	ltpFR	14	3	1	PILLOW	1069	3	0	n/a	n/a	n/a	n/a	n/a
3516.198	n/a	RECOG_TARGET	1758099	n/a	LTP095	ltpFR	14	3	1	PASSENGER	1020	2	1	n/a	n/a	n/a	n/a	n/a
3517.466	n/a	RECOG_RESP	1758733	n/a	LTP095	ltpFR	14	3	1	PASSENGER	1020	n/a	1	n/a	n/a	n/a	n/a	n/a
3517.9	n/a	RECOG_CONF	1758950	n/a	LTP095	ltpFR	14	3	1	PASSENGER	1020	2	1	n/a	n/a	n/a	n/a	n/a
3519.304	n/a	RECOG_TARGET	1759652	n/a	LTP095	ltpFR	14	3	0	TURNIP	1521	4	0	n/a	n/a	n/a	n/a	n/a
3520.56	n/a	RECOG_RESP	1760280	n/a	LTP095	ltpFR	14	3	0	TURNIP	1521	n/a	0	n/a	n/a	n/a	n/a	n/a
3521.632	n/a	RECOG_CONF	1760816	n/a	LTP095	ltpFR	14	3	0	TURNIP	1521	4	0	n/a	n/a	n/a	n/a	n/a
3523.14	n/a	RECOG_TARGET	1761570	n/a	LTP095	ltpFR	14	3	-1	COAT	333	3	-1	n/a	n/a	n/a	n/a	n/a
3524.68	n/a	RECOG_RESP	1762340	n/a	LTP095	ltpFR	14	3	-1	COAT	333	n/a	-1	n/a	n/a	n/a	n/a	n/a
3526.282	n/a	RECOG_CONF	1763141	n/a	LTP095	ltpFR	14	3	-1	COAT	333	3	-1	n/a	n/a	n/a	n/a	n/a
3529.366	n/a	RECOG_TARGET	1764683	n/a	LTP095	ltpFR	14	3	-1	CURTAIN	427	2	-1	n/a	n/a	n/a	n/a	n/a
3531.944	n/a	RECOG_RESP_VV	1765972	n/a	LTP095	ltpFR	14	3	-1	CURTAIN	427	n/a	-1	n/a	n/a	n/a	n/a	n/a
3533.874	n/a	RECOG_RESP	1766937	n/a	LTP095	ltpFR	14	3	-1	CURTAIN	427	n/a	-1	n/a	n/a	n/a	n/a	n/a
3534.612	n/a	RECOG_CONF	1767306	n/a	LTP095	ltpFR	14	3	-1	CURTAIN	427	2	-1	n/a	n/a	n/a	n/a	n/a
3536.058	n/a	RECOG_TARGET	1768029	n/a	LTP095	ltpFR	14	3	1	RECEIPT	1173	4	0	n/a	n/a	n/a	n/a	n/a
3536.872	n/a	RECOG_RESP	1768436	n/a	LTP095	ltpFR	14	3	1	RECEIPT	1173	n/a	0	n/a	n/a	n/a	n/a	n/a
3537.342	n/a	RECOG_CONF	1768671	n/a	LTP095	ltpFR	14	3	1	RECEIPT	1173	4	0	n/a	n/a	n/a	n/a	n/a
3538.788	n/a	RECOG_LURE	1769394	n/a	LTP095	ltpFR	14	3	n/a	PLANET	1082	2	n/a	n/a	n/a	n/a	n/a	n/a
3540.33	n/a	RECOG_RESP	1770165	n/a	LTP095	ltpFR	14	3	n/a	PLANET	1082	n/a	n/a	n/a	n/a	n/a	n/a	n/a
3540.858	n/a	RECOG_CONF	1770429	n/a	LTP095	ltpFR	14	3	n/a	PLANET	1082	2	n/a	n/a	n/a	n/a	n/a	n/a
3549.592	n/a	REC_START	1774796	n/a	LTP095	ltpFR	14	4	n/a	n/a	n/a	n/a	n/a	n/a	n/a	n/a	n/a	n/a
3549.618	n/a	RECOG_TARGET	1774809	n/a	LTP095	ltpFR	14	4	1	DOCK	477	3	0	n/a	n/a	n/a	n/a	n/a
3550.5	n/a	RECOG_RESP	1775250	n/a	LTP095	ltpFR	14	4	1	DOCK	477	n/a	0	n/a	n/a	n/a	n/a	n/a
3551.224	n/a	RECOG_CONF	1775612	n/a	LTP095	ltpFR	14	4	1	DOCK	477	3	0	n/a	n/a	n/a	n/a	n/a
3553.156	n/a	RECOG_LURE	1776578	n/a	LTP095	ltpFR	14	4	n/a	BABY	64	2	n/a	n/a	n/a	n/a	n/a	n/a
3553.992	n/a	RECOG_RESP	1776996	n/a	LTP095	ltpFR	14	4	n/a	BABY	64	n/a	n/a	n/a	n/a	n/a	n/a	n/a
3554.806	n/a	RECOG_CONF	1777403	n/a	LTP095	ltpFR	14	4	n/a	BABY	64	2	n/a	n/a	n/a	n/a	n/a	n/a
3556.194	n/a	RECOG_TARGET	1778097	n/a	LTP095	ltpFR	14	4	-1	SHRIMP	1297	4	-1	n/a	n/a	n/a	n/a	n/a
3556.88	n/a	RECOG_RESP	1778440	n/a	LTP095	ltpFR	14	4	-1	SHRIMP	1297	n/a	-1	n/a	n/a	n/a	n/a	n/a
3557.43	n/a	RECOG_CONF	1778715	n/a	LTP095	ltpFR	14	4	-1	SHRIMP	1297	4	-1	n/a	n/a	n/a	n/a	n/a
3558.574	n/a	RECOG_TARGET	1779287	n/a	LTP095	ltpFR	14	4	0	DRAWING	494	2	1	n/a	n/a	n/a	n/a	n/a
3559.326	n/a	RECOG_RESP_VV	1779663	n/a	LTP095	ltpFR	14	4	0	DRAWING	494	n/a	1	n/a	n/a	n/a	n/a	n/a
3560.094	n/a	RECOG_RESP	1780047	n/a	LTP095	ltpFR	14	4	0	DRAWING	494	n/a	1	n/a	n/a	n/a	n/a	n/a
3560.762	n/a	RECOG_CONF	1780381	n/a	LTP095	ltpFR	14	4	0	DRAWING	494	2	1	n/a	n/a	n/a	n/a	n/a
3562.304	n/a	RECOG_TARGET	1781152	n/a	LTP095	ltpFR	14	4	0	CORAL	378	3	n/a	n/a	n/a	n/a	n/a	n/a
3562.952	n/a	RECOG_RESP	1781476	n/a	LTP095	ltpFR	14	4	0	CORAL	378	n/a	n/a	n/a	n/a	n/a	n/a	n/a
3563.406	n/a	RECOG_CONF	1781703	n/a	LTP095	ltpFR	14	4	0	CORAL	378	3	n/a	n/a	n/a	n/a	n/a	n/a
3564.718	n/a	RECOG_TARGET	1782359	n/a	LTP095	ltpFR	14	4	-1	BAY	102	2	-1	n/a	n/a	n/a	n/a	n/a
3565.59	n/a	RECOG_RESP	1782795	n/a	LTP095	ltpFR	14	4	-1	BAY	102	n/a	-1	n/a	n/a	n/a	n/a	n/a
3566.488	n/a	RECOG_CONF	1783244	n/a	LTP095	ltpFR	14	4	-1	BAY	102	2	-1	n/a	n/a	n/a	n/a	n/a
3567.656	n/a	RECOG_TARGET	1783828	n/a	LTP095	ltpFR	14	4	1	TAR	1435	4	0	n/a	n/a	n/a	n/a	n/a
3568.544	n/a	RECOG_RESP	1784272	n/a	LTP095	ltpFR	14	4	1	TAR	1435	n/a	0	n/a	n/a	n/a	n/a	n/a
3569.172	n/a	RECOG_CONF	1784586	n/a	LTP095	ltpFR	14	4	1	TAR	1435	4	0	n/a	n/a	n/a	n/a	n/a
3570.394	n/a	RECOG_TARGET	1785197	n/a	LTP095	ltpFR	14	4	0	MARS	873	5	n/a	n/a	n/a	n/a	n/a	n/a
3571.518	n/a	RECOG_RESP	1785759	n/a	LTP095	ltpFR	14	4	0	MARS	873	n/a	n/a	n/a	n/a	n/a	n/a	n/a
3572.036	n/a	RECOG_CONF	1786018	n/a	LTP095	ltpFR	14	4	0	MARS	873	5	n/a	n/a	n/a	n/a	n/a	n/a
3573.208	n/a	RECOG_TARGET	1786604	n/a	LTP095	ltpFR	14	4	-1	VITAMIN	1574	2	-1	n/a	n/a	n/a	n/a	n/a
3574.696	n/a	RECOG_RESP	1787348	n/a	LTP095	ltpFR	14	4	-1	VITAMIN	1574	n/a	-1	n/a	n/a	n/a	n/a	n/a
3575.378	n/a	RECOG_CONF	1787689	n/a	LTP095	ltpFR	14	4	-1	VITAMIN	1574	2	-1	n/a	n/a	n/a	n/a	n/a
3576.886	n/a	RECOG_LURE	1788443	n/a	LTP095	ltpFR	14	4	n/a	PUPPY	1144	3	n/a	n/a	n/a	n/a	n/a	n/a
3578.332	n/a	RECOG_RESP	1789166	n/a	LTP095	ltpFR	14	4	n/a	PUPPY	1144	n/a	n/a	n/a	n/a	n/a	n/a	n/a
3578.87	n/a	RECOG_CONF	1789435	n/a	LTP095	ltpFR	14	4	n/a	PUPPY	1144	3	n/a	n/a	n/a	n/a	n/a	n/a
3580.716	n/a	RECOG_TARGET	1790358	n/a	LTP095	ltpFR	14	4	-1	NERVE	944	4	-1	n/a	n/a	n/a	n/a	n/a
3582.876	n/a	RECOG_RESP	1791438	n/a	LTP095	ltpFR	14	4	-1	NERVE	944	n/a	-1	n/a	n/a	n/a	n/a	n/a
3583.46	n/a	RECOG_CONF	1791730	n/a	LTP095	ltpFR	14	4	-1	NERVE	944	4	-1	n/a	n/a	n/a	n/a	n/a
3584.594	n/a	RECOG_LURE	1792297	n/a	LTP095	ltpFR	14	4	n/a	BOMB	147	3	n/a	n/a	n/a	n/a	n/a	n/a
3585.9	n/a	RECOG_RESP	1792950	n/a	LTP095	ltpFR	14	4	n/a	BOMB	147	n/a	n/a	n/a	n/a	n/a	n/a	n/a
3586.414	n/a	RECOG_CONF	1793207	n/a	LTP095	ltpFR	14	4	n/a	BOMB	147	3	n/a	n/a	n/a	n/a	n/a	n/a
3587.732	n/a	RECOG_LURE	1793866	n/a	LTP095	ltpFR	14	4	n/a	JAR	750	3	n/a	n/a	n/a	n/a	n/a	n/a
3590.16	n/a	RECOG_RESP_VV	1795080	n/a	LTP095	ltpFR	14	4	n/a	JAR	750	n/a	n/a	n/a	n/a	n/a	n/a	n/a
3591.522	n/a	RECOG_RESP	1795761	n/a	LTP095	ltpFR	14	4	n/a	JAR	750	n/a	n/a	n/a	n/a	n/a	n/a	n/a
3592.14	n/a	RECOG_CONF	1796070	n/a	LTP095	ltpFR	14	4	n/a	JAR	750	3	n/a	n/a	n/a	n/a	n/a	n/a
3593.55	n/a	RECOG_TARGET	1796775	n/a	LTP095	ltpFR	14	4	0	JUPITER	765	5	1	n/a	n/a	n/a	n/a	n/a
3594.52	n/a	RECOG_RESP	1797260	n/a	LTP095	ltpFR	14	4	0	JUPITER	765	n/a	1	n/a	n/a	n/a	n/a	n/a
3594.984	n/a	RECOG_CONF	1797492	n/a	LTP095	ltpFR	14	4	0	JUPITER	765	5	1	n/a	n/a	n/a	n/a	n/a
3596.04	n/a	RECOG_LURE	1798020	n/a	LTP095	ltpFR	14	4	n/a	BIOLOGIST	128	3	n/a	n/a	n/a	n/a	n/a	n/a
3597.782	n/a	RECOG_RESP	1798891	n/a	LTP095	ltpFR	14	4	n/a	BIOLOGIST	128	n/a	n/a	n/a	n/a	n/a	n/a	n/a
3598.682	n/a	RECOG_CONF	1799341	n/a	LTP095	ltpFR	14	4	n/a	BIOLOGIST	128	3	n/a	n/a	n/a	n/a	n/a	n/a
3600.034	n/a	RECOG_LURE	1800017	n/a	LTP095	ltpFR	14	4	n/a	COOLER	375	2	n/a	n/a	n/a	n/a	n/a	n/a
3600.9	n/a	RECOG_RESP	1800450	n/a	LTP095	ltpFR	14	4	n/a	COOLER	375	n/a	n/a	n/a	n/a	n/a	n/a	n/a
3601.56	n/a	RECOG_CONF	1800780	n/a	LTP095	ltpFR	14	4	n/a	COOLER	375	2	n/a	n/a	n/a	n/a	n/a	n/a
3602.874	n/a	RECOG_TARGET	1801437	n/a	LTP095	ltpFR	14	4	1	ANTENNA	28	4	n/a	n/a	n/a	n/a	n/a	n/a
3603.774	n/a	RECOG_RESP	1801887	n/a	LTP095	ltpFR	14	4	1	ANTENNA	28	n/a	n/a	n/a	n/a	n/a	n/a	n/a
3604.322	n/a	RECOG_CONF	1802161	n/a	LTP095	ltpFR	14	4	1	ANTENNA	28	4	n/a	n/a	n/a	n/a	n/a	n/a
3605.346	n/a	RECOG_TARGET	1802673	n/a	LTP095	ltpFR	14	4	0	MINER	896	2	1	n/a	n/a	n/a	n/a	n/a
3606.0	n/a	RECOG_RESP	1803000	n/a	LTP095	ltpFR	14	4	0	MINER	896	n/a	1	n/a	n/a	n/a	n/a	n/a
3606.558	n/a	RECOG_CONF	1803279	n/a	LTP095	ltpFR	14	4	0	MINER	896	2	1	n/a	n/a	n/a	n/a	n/a
3607.808	n/a	RECOG_TARGET	1803904	n/a	LTP095	ltpFR	14	4	0	COLLAR	345	4	0	n/a	n/a	n/a	n/a	n/a
3608.464	n/a	RECOG_RESP	1804232	n/a	LTP095	ltpFR	14	4	0	COLLAR	345	n/a	0	n/a	n/a	n/a	n/a	n/a
3609.132	n/a	RECOG_CONF	1804566	n/a	LTP095	ltpFR	14	4	0	COLLAR	345	4	0	n/a	n/a	n/a	n/a	n/a
3611.264	n/a	RECOG_TARGET	1805632	n/a	LTP095	ltpFR	14	4	0	PUDDLE	1140	5	1	n/a	n/a	n/a	n/a	n/a
3612.444	n/a	RECOG_RESP	1806222	n/a	LTP095	ltpFR	14	4	0	PUDDLE	1140	n/a	1	n/a	n/a	n/a	n/a	n/a
3613.142	n/a	RECOG_RESP_VV	1806571	n/a	LTP095	ltpFR	14	4	0	PUDDLE	1140	5	1	n/a	n/a	n/a	n/a	n/a
3614.258	n/a	RECOG_CONF	1807129	n/a	LTP095	ltpFR	14	4	0	PUDDLE	1140	5	1	n/a	n/a	n/a	n/a	n/a
3619.288	n/a	REC_START	1809644	n/a	LTP095	ltpFR	14	5	n/a	n/a	n/a	n/a	n/a	n/a	n/a	n/a	n/a	n/a
3619.314	n/a	RECOG_TARGET	1809657	n/a	LTP095	ltpFR	14	5	0	COMB	351	4	0	n/a	n/a	n/a	n/a	n/a
3620.17	n/a	RECOG_RESP	1810085	n/a	LTP095	ltpFR	14	5	0	COMB	351	n/a	0	n/a	n/a	n/a	n/a	n/a
3620.814	n/a	RECOG_CONF	1810407	n/a	LTP095	ltpFR	14	5	0	COMB	351	4	0	n/a	n/a	n/a	n/a	n/a
3621.95	n/a	RECOG_TARGET	1810975	n/a	LTP095	ltpFR	14	5	0	SPY	1360	3	n/a	n/a	n/a	n/a	n/a	n/a
3624.182	n/a	RECOG_RESP	1812091	n/a	LTP095	ltpFR	14	5	0	SPY	1360	n/a	n/a	n/a	n/a	n/a	n/a	n/a
3625.05	n/a	RECOG_CONF	1812525	n/a	LTP095	ltpFR	14	5	0	SPY	1360	3	n/a	n/a	n/a	n/a	n/a	n/a
3626.306	n/a	RECOG_TARGET	1813153	n/a	LTP095	ltpFR	14	5	1	ANIMAL	23	2	1	n/a	n/a	n/a	n/a	n/a
3627.13	n/a	RECOG_RESP	1813565	n/a	LTP095	ltpFR	14	5	1	ANIMAL	23	n/a	1	n/a	n/a	n/a	n/a	n/a
3627.624	n/a	RECOG_CONF	1813812	n/a	LTP095	ltpFR	14	5	1	ANIMAL	23	2	1	n/a	n/a	n/a	n/a	n/a
3629.144	n/a	RECOG_TARGET	1814572	n/a	LTP095	ltpFR	14	5	0	PARENT	1013	3	1	n/a	n/a	n/a	n/a	n/a
3629.86	n/a	RECOG_RESP	1814930	n/a	LTP095	ltpFR	14	5	0	PARENT	1013	n/a	1	n/a	n/a	n/a	n/a	n/a
3630.428	n/a	RECOG_CONF	1815214	n/a	LTP095	ltpFR	14	5	0	PARENT	1013	3	1	n/a	n/a	n/a	n/a	n/a
3631.55	n/a	RECOG_LURE	1815775	n/a	LTP095	ltpFR	14	5	n/a	HARP	689	4	n/a	n/a	n/a	n/a	n/a	n/a
3632.604	n/a	RECOG_RESP	1816302	n/a	LTP095	ltpFR	14	5	n/a	HARP	689	n/a	n/a	n/a	n/a	n/a	n/a	n/a
3633.242	n/a	RECOG_CONF	1816621	n/a	LTP095	ltpFR	14	5	n/a	HARP	689	4	n/a	n/a	n/a	n/a	n/a	n/a
3634.678	n/a	RECOG_LURE	1817339	n/a	LTP095	ltpFR	14	5	n/a	PUDDING	1139	3	n/a	n/a	n/a	n/a	n/a	n/a
3635.492	n/a	RECOG_RESP	1817746	n/a	LTP095	ltpFR	14	5	n/a	PUDDING	1139	n/a	n/a	n/a	n/a	n/a	n/a	n/a
3636.136	n/a	RECOG_CONF	1818068	n/a	LTP095	ltpFR	14	5	n/a	PUDDING	1139	3	n/a	n/a	n/a	n/a	n/a	n/a
3637.476	n/a	RECOG_TARGET	1818738	n/a	LTP095	ltpFR	14	5	-1	SHINGLE	1285	5	-1	n/a	n/a	n/a	n/a	n/a
3638.52	n/a	RECOG_RESP	1819260	n/a	LTP095	ltpFR	14	5	-1	SHINGLE	1285	n/a	-1	n/a	n/a	n/a	n/a	n/a
3639.058	n/a	RECOG_CONF	1819529	n/a	LTP095	ltpFR	14	5	-1	SHINGLE	1285	5	-1	n/a	n/a	n/a	n/a	n/a
3640.324	n/a	RECOG_TARGET	1820162	n/a	LTP095	ltpFR	14	5	0	INTESTINE	742	4	1	n/a	n/a	n/a	n/a	n/a
3641.298	n/a	RECOG_RESP	1820649	n/a	LTP095	ltpFR	14	5	0	INTESTINE	742	n/a	1	n/a	n/a	n/a	n/a	n/a
3641.892	n/a	RECOG_CONF	1820946	n/a	LTP095	ltpFR	14	5	0	INTESTINE	742	4	1	n/a	n/a	n/a	n/a	n/a
3643.262	n/a	RECOG_TARGET	1821631	n/a	LTP095	ltpFR	14	5	0	WASHER	1592	4	1	n/a	n/a	n/a	n/a	n/a
3644.266	n/a	RECOG_RESP	1822133	n/a	LTP095	ltpFR	14	5	0	WASHER	1592	n/a	1	n/a	n/a	n/a	n/a	n/a
3644.866	n/a	RECOG_CONF	1822433	n/a	LTP095	ltpFR	14	5	0	WASHER	1592	4	1	n/a	n/a	n/a	n/a	n/a
3646.048	n/a	RECOG_TARGET	1823024	n/a	LTP095	ltpFR	14	5	-1	SILK	1307	3	-1	n/a	n/a	n/a	n/a	n/a
3648.776	n/a	RECOG_RESP	1824388	n/a	LTP095	ltpFR	14	5	-1	SILK	1307	n/a	-1	n/a	n/a	n/a	n/a	n/a
3649.464	n/a	RECOG_CONF	1824732	n/a	LTP095	ltpFR	14	5	-1	SILK	1307	3	-1	n/a	n/a	n/a	n/a	n/a
3651.21	n/a	RECOG_TARGET	1825605	n/a	LTP095	ltpFR	14	5	0	RIDER	1191	2	1	n/a	n/a	n/a	n/a	n/a
3651.92	n/a	RECOG_RESP	1825960	n/a	LTP095	ltpFR	14	5	0	RIDER	1191	n/a	1	n/a	n/a	n/a	n/a	n/a
3652.398	n/a	RECOG_CONF	1826199	n/a	LTP095	ltpFR	14	5	0	RIDER	1191	2	1	n/a	n/a	n/a	n/a	n/a
3653.84	n/a	RECOG_LURE	1826920	n/a	LTP095	ltpFR	14	5	n/a	LENS	811	3	n/a	n/a	n/a	n/a	n/a	n/a
3654.448	n/a	RECOG_RESP	1827224	n/a	LTP095	ltpFR	14	5	n/a	LENS	811	n/a	n/a	n/a	n/a	n/a	n/a	n/a
3655.022	n/a	RECOG_CONF	1827511	n/a	LTP095	ltpFR	14	5	n/a	LENS	811	3	n/a	n/a	n/a	n/a	n/a	n/a
3656.246	n/a	RECOG_TARGET	1828123	n/a	LTP095	ltpFR	14	5	0	PATH	1023	4	1	n/a	n/a	n/a	n/a	n/a
3656.968	n/a	RECOG_RESP	1828484	n/a	LTP095	ltpFR	14	5	0	PATH	1023	n/a	1	n/a	n/a	n/a	n/a	n/a
3657.526	n/a	RECOG_CONF	1828763	n/a	LTP095	ltpFR	14	5	0	PATH	1023	4	1	n/a	n/a	n/a	n/a	n/a
3658.734	n/a	RECOG_TARGET	1829367	n/a	LTP095	ltpFR	14	5	-1	BEAST	108	3	-1	n/a	n/a	n/a	n/a	n/a
3659.872	n/a	RECOG_RESP	1829936	n/a	LTP095	ltpFR	14	5	-1	BEAST	108	n/a	-1	n/a	n/a	n/a	n/a	n/a
3660.71	n/a	RECOG_CONF	1830355	n/a	LTP095	ltpFR	14	5	-1	BEAST	108	3	-1	n/a	n/a	n/a	n/a	n/a
3661.856	n/a	RECOG_TARGET	1830928	n/a	LTP095	ltpFR	14	5	0	CAPTAIN	239	5	1	n/a	n/a	n/a	n/a	n/a
3663.104	n/a	RECOG_RESP	1831552	n/a	LTP095	ltpFR	14	5	0	CAPTAIN	239	n/a	1	n/a	n/a	n/a	n/a	n/a
3663.742	n/a	RECOG_CONF	1831871	n/a	LTP095	ltpFR	14	5	0	CAPTAIN	239	5	1	n/a	n/a	n/a	n/a	n/a
3665.136	n/a	RECOG_TARGET	1832568	n/a	LTP095	ltpFR	14	5	1	YARD	1630	3	1	n/a	n/a	n/a	n/a	n/a
3667.738	n/a	RECOG_RESP	1833869	n/a	LTP095	ltpFR	14	5	1	YARD	1630	n/a	1	n/a	n/a	n/a	n/a	n/a
3668.532	n/a	RECOG_CONF	1834266	n/a	LTP095	ltpFR	14	5	1	YARD	1630	3	1	n/a	n/a	n/a	n/a	n/a
3669.904	n/a	RECOG_TARGET	1834952	n/a	LTP095	ltpFR	14	5	-1	SCRIBBLE	1256	3	-1	n/a	n/a	n/a	n/a	n/a
3674.592	n/a	RECOG_RESP	1837296	n/a	LTP095	ltpFR	14	5	-1	SCRIBBLE	1256	n/a	-1	n/a	n/a	n/a	n/a	n/a
3675.296	n/a	RECOG_CONF	1837648	n/a	LTP095	ltpFR	14	5	-1	SCRIBBLE	1256	3	-1	n/a	n/a	n/a	n/a	n/a
3676.78	n/a	RECOG_LURE	1838390	n/a	LTP095	ltpFR	14	5	n/a	ELEVATOR	524	2	n/a	n/a	n/a	n/a	n/a	n/a
3677.87	n/a	RECOG_RESP	1838935	n/a	LTP095	ltpFR	14	5	n/a	ELEVATOR	524	n/a	n/a	n/a	n/a	n/a	n/a	n/a
3678.32	n/a	RECOG_CONF	1839160	n/a	LTP095	ltpFR	14	5	n/a	ELEVATOR	524	2	n/a	n/a	n/a	n/a	n/a	n/a
3679.294	n/a	RECOG_LURE	1839647	n/a	LTP095	ltpFR	14	5	n/a	TELEPHONE	1445	2	n/a	n/a	n/a	n/a	n/a	n/a
3680.574	n/a	RECOG_RESP_VV	1840287	n/a	LTP095	ltpFR	14	5	n/a	TELEPHONE	1445	n/a	n/a	n/a	n/a	n/a	n/a	n/a
3682.354	n/a	RECOG_RESP	1841177	n/a	LTP095	ltpFR	14	5	n/a	TELEPHONE	1445	n/a	n/a	n/a	n/a	n/a	n/a	n/a
3682.898	n/a	RECOG_CONF	1841449	n/a	LTP095	ltpFR	14	5	n/a	TELEPHONE	1445	2	n/a	n/a	n/a	n/a	n/a	n/a
3684.146	n/a	RECOG_TARGET	1842073	n/a	LTP095	ltpFR	14	5	1	CANAL	226	4	0	n/a	n/a	n/a	n/a	n/a
3685.054	n/a	RECOG_RESP	1842527	n/a	LTP095	ltpFR	14	5	1	CANAL	226	n/a	0	n/a	n/a	n/a	n/a	n/a
3685.592	n/a	RECOG_CONF	1842796	n/a	LTP095	ltpFR	14	5	1	CANAL	226	4	0	n/a	n/a	n/a	n/a	n/a
3688.554	n/a	REC_START	1844277	n/a	LTP095	ltpFR	14	6	n/a	n/a	n/a	n/a	n/a	n/a	n/a	n/a	n/a	n/a
3688.582	n/a	RECOG_TARGET	1844291	n/a	LTP095	ltpFR	14	6	0	PUBLISHER	1137	3	1	n/a	n/a	n/a	n/a	n/a
3689.632	n/a	RECOG_RESP	1844816	n/a	LTP095	ltpFR	14	6	0	PUBLISHER	1137	n/a	1	n/a	n/a	n/a	n/a	n/a
3690.346	n/a	RECOG_CONF	1845173	n/a	LTP095	ltpFR	14	6	0	PUBLISHER	1137	3	1	n/a	n/a	n/a	n/a	n/a
3691.896	n/a	RECOG_LURE	1845948	n/a	LTP095	ltpFR	14	6	n/a	DOORBELL	487	2	n/a	n/a	n/a	n/a	n/a	n/a
3694.98	n/a	RECOG_RESP	1847490	n/a	LTP095	ltpFR	14	6	n/a	DOORBELL	487	n/a	n/a	n/a	n/a	n/a	n/a	n/a
3695.584	n/a	RECOG_CONF	1847792	n/a	LTP095	ltpFR	14	6	n/a	DOORBELL	487	2	n/a	n/a	n/a	n/a	n/a	n/a
3697.19	n/a	RECOG_TARGET	1848595	n/a	LTP095	ltpFR	14	6	0	EXPLOSION	544	3	1	n/a	n/a	n/a	n/a	n/a
3698.008	n/a	RECOG_RESP	1849004	n/a	LTP095	ltpFR	14	6	0	EXPLOSION	544	n/a	1	n/a	n/a	n/a	n/a	n/a
3698.566	n/a	RECOG_CONF	1849283	n/a	LTP095	ltpFR	14	6	0	EXPLOSION	544	3	1	n/a	n/a	n/a	n/a	n/a
3700.246	n/a	RECOG_TARGET	1850123	n/a	LTP095	ltpFR	14	6	-1	CLOUD	328	3	-1	n/a	n/a	n/a	n/a	n/a
3701.594	n/a	RECOG_RESP	1850797	n/a	LTP095	ltpFR	14	6	-1	CLOUD	328	n/a	-1	n/a	n/a	n/a	n/a	n/a
3702.248	n/a	RECOG_CONF	1851124	n/a	LTP095	ltpFR	14	6	-1	CLOUD	328	3	-1	n/a	n/a	n/a	n/a	n/a
3703.398	n/a	RECOG_TARGET	1851699	n/a	LTP095	ltpFR	14	6	-1	CREVICE	405	4	-1	n/a	n/a	n/a	n/a	n/a
3704.752	n/a	RECOG_RESP	1852376	n/a	LTP095	ltpFR	14	6	-1	CREVICE	405	n/a	-1	n/a	n/a	n/a	n/a	n/a
3705.36	n/a	RECOG_CONF	1852680	n/a	LTP095	ltpFR	14	6	-1	CREVICE	405	4	-1	n/a	n/a	n/a	n/a	n/a
3706.786	n/a	RECOG_TARGET	1853393	n/a	LTP095	ltpFR	14	6	-1	SPOOL	1356	5	-1	n/a	n/a	n/a	n/a	n/a
3709.558	n/a	RECOG_RESP	1854779	n/a	LTP095	ltpFR	14	6	-1	SPOOL	1356	n/a	-1	n/a	n/a	n/a	n/a	n/a
3710.162	n/a	RECOG_CONF	1855081	n/a	LTP095	ltpFR	14	6	-1	SPOOL	1356	5	-1	n/a	n/a	n/a	n/a	n/a
3711.348	n/a	RECOG_TARGET	1855674	n/a	LTP095	ltpFR	14	6	1	VIDEO	1564	4	0	n/a	n/a	n/a	n/a	n/a
3715.38	n/a	RECOG_RESP	1857690	n/a	LTP095	ltpFR	14	6	1	VIDEO	1564	n/a	0	n/a	n/a	n/a	n/a	n/a
3715.908	n/a	RECOG_CONF	1857954	n/a	LTP095	ltpFR	14	6	1	VIDEO	1564	4	0	n/a	n/a	n/a	n/a	n/a
3717.252	n/a	RECOG_LURE	1858626	n/a	LTP095	ltpFR	14	6	n/a	ENGINEER	536	3	n/a	n/a	n/a	n/a	n/a	n/a
3718.292	n/a	RECOG_RESP	1859146	n/a	LTP095	ltpFR	14	6	n/a	ENGINEER	536	n/a	n/a	n/a	n/a	n/a	n/a	n/a
3718.726	n/a	RECOG_CONF	1859363	n/a	LTP095	ltpFR	14	6	n/a	ENGINEER	536	3	n/a	n/a	n/a	n/a	n/a	n/a
3719.988	n/a	RECOG_TARGET	1859994	n/a	LTP095	ltpFR	14	6	0	COUNTRY	388	4	1	n/a	n/a	n/a	n/a	n/a
3720.952	n/a	RECOG_RESP	1860476	n/a	LTP095	ltpFR	14	6	0	COUNTRY	388	n/a	1	n/a	n/a	n/a	n/a	n/a
3721.506	n/a	RECOG_CONF	1860753	n/a	LTP095	ltpFR	14	6	0	COUNTRY	388	4	1	n/a	n/a	n/a	n/a	n/a
3722.536	n/a	RECOG_TARGET	1861268	n/a	LTP095	ltpFR	14	6	-1	BACK	65	3	-1	n/a	n/a	n/a	n/a	n/a
3724.862	n/a	RECOG_RESP_VV	1862431	n/a	LTP095	ltpFR	14	6	-1	BACK	65	n/a	-1	n/a	n/a	n/a	n/a	n/a
3725.326	n/a	RECOG_RESP	1862663	n/a	LTP095	ltpFR	14	6	-1	BACK	65	n/a	-1	n/a	n/a	n/a	n/a	n/a
3726.204	n/a	RECOG_CONF	1863102	n/a	LTP095	ltpFR	14	6	-1	BACK	65	3	-1	n/a	n/a	n/a	n/a	n/a
3727.214	n/a	RECOG_TARGET	1863607	n/a	LTP095	ltpFR	14	6	1	RAG	1160	4	0	n/a	n/a	n/a	n/a	n/a
3727.896	n/a	RECOG_RESP	1863948	n/a	LTP095	ltpFR	14	6	1	RAG	1160	n/a	0	n/a	n/a	n/a	n/a	n/a
3728.44	n/a	RECOG_CONF	1864220	n/a	LTP095	ltpFR	14	6	1	RAG	1160	4	0	n/a	n/a	n/a	n/a	n/a
3729.486	n/a	RECOG_TARGET	1864743	n/a	LTP095	ltpFR	14	6	0	TURTLE	1522	3	1	n/a	n/a	n/a	n/a	n/a
3730.486	n/a	RECOG_RESP	1865243	n/a	LTP095	ltpFR	14	6	0	TURTLE	1522	n/a	1	n/a	n/a	n/a	n/a	n/a
3731.074	n/a	RECOG_CONF	1865537	n/a	LTP095	ltpFR	14	6	0	TURTLE	1522	3	1	n/a	n/a	n/a	n/a	n/a
3732.2	n/a	RECOG_TARGET	1866100	n/a	LTP095	ltpFR	14	6	-1	CLIPPERS	324	3	-1	n/a	n/a	n/a	n/a	n/a
3735.734	n/a	RECOG_RESP	1867867	n/a	LTP095	ltpFR	14	6	-1	CLIPPERS	324	n/a	-1	n/a	n/a	n/a	n/a	n/a
3736.432	n/a	RECOG_CONF	1868216	n/a	LTP095	ltpFR	14	6	-1	CLIPPERS	324	3	-1	n/a	n/a	n/a	n/a	n/a
3737.726	n/a	RECOG_TARGET	1868863	n/a	LTP095	ltpFR	14	6	-1	MERMAID	887	5	-1	n/a	n/a	n/a	n/a	n/a
3739.704	n/a	RECOG_RESP	1869852	n/a	LTP095	ltpFR	14	6	-1	MERMAID	887	n/a	-1	n/a	n/a	n/a	n/a	n/a
3740.302	n/a	RECOG_CONF	1870151	n/a	LTP095	ltpFR	14	6	-1	MERMAID	887	5	-1	n/a	n/a	n/a	n/a	n/a
3741.988	n/a	RECOG_TARGET	1870994	n/a	LTP095	ltpFR	14	6	1	TOOTHBRUSH	1482	3	0	n/a	n/a	n/a	n/a	n/a
3747.342	n/a	RECOG_RESP	1873671	n/a	LTP095	ltpFR	14	6	1	TOOTHBRUSH	1482	n/a	0	n/a	n/a	n/a	n/a	n/a
3747.856	n/a	RECOG_CONF	1873928	n/a	LTP095	ltpFR	14	6	1	TOOTHBRUSH	1482	3	0	n/a	n/a	n/a	n/a	n/a
3749.63	n/a	RECOG_TARGET	1874815	n/a	LTP095	ltpFR	14	6	1	PAW	1029	4	1	n/a	n/a	n/a	n/a	n/a
3750.734	n/a	RECOG_RESP	1875367	n/a	LTP095	ltpFR	14	6	1	PAW	1029	n/a	1	n/a	n/a	n/a	n/a	n/a
3751.358	n/a	RECOG_CONF	1875679	n/a	LTP095	ltpFR	14	6	1	PAW	1029	4	1	n/a	n/a	n/a	n/a	n/a
3752.91	n/a	RECOG_TARGET	1876455	n/a	LTP095	ltpFR	14	6	1	WHEEL	1603	3	0	n/a	n/a	n/a	n/a	n/a
3755.258	n/a	RECOG_RESP	1877629	n/a	LTP095	ltpFR	14	6	1	WHEEL	1603	n/a	0	n/a	n/a	n/a	n/a	n/a
3755.938	n/a	RECOG_CONF	1877969	n/a	LTP095	ltpFR	14	6	1	WHEEL	1603	3	0	n/a	n/a	n/a	n/a	n/a
3757.346	n/a	RECOG_TARGET	1878673	n/a	LTP095	ltpFR	14	6	0	AUTHOR	61	4	1	n/a	n/a	n/a	n/a	n/a
3758.506	n/a	RECOG_RESP	1879253	n/a	LTP095	ltpFR	14	6	0	AUTHOR	61	n/a	1	n/a	n/a	n/a	n/a	n/a
3759.12	n/a	RECOG_CONF	1879560	n/a	LTP095	ltpFR	14	6	0	AUTHOR	61	4	1	n/a	n/a	n/a	n/a	n/a
3760.476	n/a	RECOG_TARGET	1880238	n/a	LTP095	ltpFR	14	6	-1	FREEWAY	603	3	-1	n/a	n/a	n/a	n/a	n/a
3761.978	n/a	RECOG_RESP	1880989	n/a	LTP095	ltpFR	14	6	-1	FREEWAY	603	n/a	-1	n/a	n/a	n/a	n/a	n/a
3762.572	n/a	RECOG_CONF	1881286	n/a	LTP095	ltpFR	14	6	-1	FREEWAY	603	3	-1	n/a	n/a	n/a	n/a	n/a
3763.88	n/a	RECOG_TARGET	1881940	n/a	LTP095	ltpFR	14	6	1	PHOTO	1055	4	0	n/a	n/a	n/a	n/a	n/a
3765.006	n/a	RECOG_RESP	1882503	n/a	LTP095	ltpFR	14	6	1	PHOTO	1055	n/a	0	n/a	n/a	n/a	n/a	n/a
3765.626	n/a	RECOG_CONF	1882813	n/a	LTP095	ltpFR	14	6	1	PHOTO	1055	4	0	n/a	n/a	n/a	n/a	n/a
3768.414	n/a	REC_START	1884207	n/a	LTP095	ltpFR	14	7	n/a	n/a	n/a	n/a	n/a	n/a	n/a	n/a	n/a	n/a
3768.44	n/a	RECOG_LURE	1884220	n/a	LTP095	ltpFR	14	7	n/a	ICEBERG	731	2	n/a	n/a	n/a	n/a	n/a	n/a
3773.448	n/a	RECOG_RESP	1886724	n/a	LTP095	ltpFR	14	7	n/a	ICEBERG	731	n/a	n/a	n/a	n/a	n/a	n/a	n/a
3774.296	n/a	RECOG_CONF	1887148	n/a	LTP095	ltpFR	14	7	n/a	ICEBERG	731	2	n/a	n/a	n/a	n/a	n/a	n/a
3776.174	n/a	RECOG_TARGET	1888087	n/a	LTP095	ltpFR	14	7	1	MARSH	874	4	1	n/a	n/a	n/a	n/a	n/a
3777.0	n/a	RECOG_RESP	1888500	n/a	LTP095	ltpFR	14	7	1	MARSH	874	n/a	1	n/a	n/a	n/a	n/a	n/a
3777.568	n/a	RECOG_CONF	1888784	n/a	LTP095	ltpFR	14	7	1	MARSH	874	4	1	n/a	n/a	n/a	n/a	n/a
3778.728	n/a	RECOG_TARGET	1889364	n/a	LTP095	ltpFR	14	7	1	SWAMP	1416	3	1	n/a	n/a	n/a	n/a	n/a
3780.302	n/a	RECOG_RESP	1890151	n/a	LTP095	ltpFR	14	7	1	SWAMP	1416	n/a	1	n/a	n/a	n/a	n/a	n/a
3781.39	n/a	RECOG_CONF	1890695	n/a	LTP095	ltpFR	14	7	1	SWAMP	1416	3	1	n/a	n/a	n/a	n/a	n/a
3782.932	n/a	RECOG_TARGET	1891466	n/a	LTP095	ltpFR	14	7	1	SHERIFF	1284	2	n/a	n/a	n/a	n/a	n/a	n/a
3784.178	n/a	RECOG_RESP	1892089	n/a	LTP095	ltpFR	14	7	1	SHERIFF	1284	n/a	n/a	n/a	n/a	n/a	n/a	n/a
3784.66	n/a	RECOG_CONF	1892330	n/a	LTP095	ltpFR	14	7	1	SHERIFF	1284	2	n/a	n/a	n/a	n/a	n/a	n/a
3786.444	n/a	RECOG_TARGET	1893222	n/a	LTP095	ltpFR	14	7	1	DANDELION	438	2	1	n/a	n/a	n/a	n/a	n/a
3788.564	n/a	RECOG_CONF	1894282	n/a	LTP095	ltpFR	14	7	1	DANDELION	438	2	1	n/a	n/a	n/a	n/a	n/a
3789.8	n/a	RECOG_TARGET	1894900	n/a	LTP095	ltpFR	14	7	1	RIBBON	1189	3	0	n/a	n/a	n/a	n/a	n/a
3790.7	n/a	RECOG_RESP	1895350	n/a	LTP095	ltpFR	14	7	1	RIBBON	1189	n/a	0	n/a	n/a	n/a	n/a	n/a
3791.238	n/a	RECOG_CONF	1895619	n/a	LTP095	ltpFR	14	7	1	RIBBON	1189	3	0	n/a	n/a	n/a	n/a	n/a
3792.44	n/a	RECOG_TARGET	1896220	n/a	LTP095	ltpFR	14	7	-1	COD	340	4	-1	n/a	n/a	n/a	n/a	n/a
3793.718	n/a	RECOG_RESP	1896859	n/a	LTP095	ltpFR	14	7	-1	COD	340	n/a	-1	n/a	n/a	n/a	n/a	n/a
3794.312	n/a	RECOG_CONF	1897156	n/a	LTP095	ltpFR	14	7	-1	COD	340	4	-1	n/a	n/a	n/a	n/a	n/a
3795.768	n/a	RECOG_LURE	1897884	n/a	LTP095	ltpFR	14	7	n/a	LEADER	807	3	n/a	n/a	n/a	n/a	n/a	n/a
3798.502	n/a	RECOG_RESP	1899251	n/a	LTP095	ltpFR	14	7	n/a	LEADER	807	n/a	n/a	n/a	n/a	n/a	n/a	n/a
3799.03	n/a	RECOG_CONF	1899515	n/a	LTP095	ltpFR	14	7	n/a	LEADER	807	3	n/a	n/a	n/a	n/a	n/a	n/a
3800.504	n/a	RECOG_LURE	1900252	n/a	LTP095	ltpFR	14	7	n/a	CRIB	407	2	n/a	n/a	n/a	n/a	n/a	n/a
3801.406	n/a	RECOG_RESP	1900703	n/a	LTP095	ltpFR	14	7	n/a	CRIB	407	n/a	n/a	n/a	n/a	n/a	n/a	n/a
3801.954	n/a	RECOG_CONF	1900977	n/a	LTP095	ltpFR	14	7	n/a	CRIB	407	2	n/a	n/a	n/a	n/a	n/a	n/a
3803.726	n/a	RECOG_TARGET	1901863	n/a	LTP095	ltpFR	14	7	1	FLEA	577	4	1	n/a	n/a	n/a	n/a	n/a
3804.722	n/a	RECOG_RESP	1902361	n/a	LTP095	ltpFR	14	7	1	FLEA	577	n/a	1	n/a	n/a	n/a	n/a	n/a
3805.476	n/a	RECOG_CONF	1902738	n/a	LTP095	ltpFR	14	7	1	FLEA	577	4	1	n/a	n/a	n/a	n/a	n/a
3807.138	n/a	RECOG_LURE	1903569	n/a	LTP095	ltpFR	14	7	n/a	COIN	343	3	n/a	n/a	n/a	n/a	n/a	n/a
3808.938	n/a	RECOG_RESP	1904469	n/a	LTP095	ltpFR	14	7	n/a	COIN	343	n/a	n/a	n/a	n/a	n/a	n/a	n/a
3809.486	n/a	RECOG_CONF	1904743	n/a	LTP095	ltpFR	14	7	n/a	COIN	343	3	n/a	n/a	n/a	n/a	n/a	n/a
3810.726	n/a	RECOG_TARGET	1905363	n/a	LTP095	ltpFR	14	7	1	SERGEANT	1269	3	1	n/a	n/a	n/a	n/a	n/a
3811.888	n/a	RECOG_RESP	1905944	n/a	LTP095	ltpFR	14	7	1	SERGEANT	1269	n/a	1	n/a	n/a	n/a	n/a	n/a
3812.5	n/a	RECOG_CONF	1906250	n/a	LTP095	ltpFR	14	7	1	SERGEANT	1269	3	1	n/a	n/a	n/a	n/a	n/a
3814.18	n/a	RECOG_TARGET	1907090	n/a	LTP095	ltpFR	14	7	0	DRUG	501	1	0	n/a	n/a	n/a	n/a	n/a
3815.01	n/a	RECOG_RESP	1907505	n/a	LTP095	ltpFR	14	7	0	DRUG	501	n/a	0	n/a	n/a	n/a	n/a	n/a
3816.68	n/a	RECOG_CONF	1908340	n/a	LTP095	ltpFR	14	7	0	DRUG	501	1	0	n/a	n/a	n/a	n/a	n/a
3817.992	n/a	RECOG_TARGET	1908996	n/a	LTP095	ltpFR	14	7	0	HEATER	698	2	1	n/a	n/a	n/a	n/a	n/a
3819.664	n/a	RECOG_RESP	1909832	n/a	LTP095	ltpFR	14	7	0	HEATER	698	n/a	1	n/a	n/a	n/a	n/a	n/a
3820.292	n/a	RECOG_CONF	1910146	n/a	LTP095	ltpFR	14	7	0	HEATER	698	2	1	n/a	n/a	n/a	n/a	n/a
3821.514	n/a	RECOG_TARGET	1910757	n/a	LTP095	ltpFR	14	7	1	AIRPORT	13	3	n/a	n/a	n/a	n/a	n/a	n/a
3822.478	n/a	RECOG_RESP	1911239	n/a	LTP095	ltpFR	14	7	1	AIRPORT	13	n/a	n/a	n/a	n/a	n/a	n/a	n/a
3823.186	n/a	RECOG_CONF	1911593	n/a	LTP095	ltpFR	14	7	1	AIRPORT	13	3	n/a	n/a	n/a	n/a	n/a	n/a
3824.768	n/a	RECOG_TARGET	1912384	n/a	LTP095	ltpFR	14	7	1	RASPBERRY	1168	3	1	n/a	n/a	n/a	n/a	n/a
3828.284	n/a	RECOG_RESP	1914142	n/a	LTP095	ltpFR	14	7	1	RASPBERRY	1168	n/a	1	n/a	n/a	n/a	n/a	n/a
3828.922	n/a	RECOG_CONF	1914461	n/a	LTP095	ltpFR	14	7	1	RASPBERRY	1168	3	1	n/a	n/a	n/a	n/a	n/a
3830.304	n/a	RECOG_TARGET	1915152	n/a	LTP095	ltpFR	14	7	-1	PASTA	1021	4	-1	n/a	n/a	n/a	n/a	n/a
3831.696	n/a	RECOG_RESP	1915848	n/a	LTP095	ltpFR	14	7	-1	PASTA	1021	n/a	-1	n/a	n/a	n/a	n/a	n/a
3832.36	n/a	RECOG_CONF	1916180	n/a	LTP095	ltpFR	14	7	-1	PASTA	1021	4	-1	n/a	n/a	n/a	n/a	n/a
3833.642	n/a	RECOG_LURE	1916821	n/a	LTP095	ltpFR	14	7	n/a	ARENA	37	3	n/a	n/a	n/a	n/a	n/a	n/a
3837.05	n/a	RECOG_RESP	1918525	n/a	LTP095	ltpFR	14	7	n/a	ARENA	37	n/a	n/a	n/a	n/a	n/a	n/a	n/a
3837.682	n/a	RECOG_CONF	1918841	n/a	LTP095	ltpFR	14	7	n/a	ARENA	37	3	n/a	n/a	n/a	n/a	n/a	n/a
3839.084	n/a	RECOG_TARGET	1919542	n/a	LTP095	ltpFR	14	7	0	VICTIM	1562	5	1	n/a	n/a	n/a	n/a	n/a
3839.988	n/a	RECOG_RESP	1919994	n/a	LTP095	ltpFR	14	7	0	VICTIM	1562	n/a	1	n/a	n/a	n/a	n/a	n/a
3840.476	n/a	RECOG_CONF	1920238	n/a	LTP095	ltpFR	14	7	0	VICTIM	1562	5	1	n/a	n/a	n/a	n/a	n/a
3841.648	n/a	RECOG_TARGET	1920824	n/a	LTP095	ltpFR	14	7	0	EUROPE	541	2	1	n/a	n/a	n/a	n/a	n/a
3842.218	n/a	RECOG_RESP	1921109	n/a	LTP095	ltpFR	14	7	0	EUROPE	541	n/a	1	n/a	n/a	n/a	n/a	n/a
3842.842	n/a	RECOG_CONF	1921421	n/a	LTP095	ltpFR	14	7	0	EUROPE	541	2	1	n/a	n/a	n/a	n/a	n/a
3847.058	n/a	REC_START	1923529	n/a	LTP095	ltpFR	14	8	n/a	n/a	n/a	n/a	n/a	n/a	n/a	n/a	n/a	n/a
3847.092	n/a	RECOG_TARGET	1923546	n/a	LTP095	ltpFR	14	8	1	DEODORANT	448	4	0	n/a	n/a	n/a	n/a	n/a
3847.896	n/a	RECOG_RESP	1923948	n/a	LTP095	ltpFR	14	8	1	DEODORANT	448	n/a	0	n/a	n/a	n/a	n/a	n/a
3848.5	n/a	RECOG_CONF	1924250	n/a	LTP095	ltpFR	14	8	1	DEODORANT	448	4	0	n/a	n/a	n/a	n/a	n/a
3849.648	n/a	RECOG_TARGET	1924824	n/a	LTP095	ltpFR	14	8	1	COMMUNITY	356	5	0	n/a	n/a	n/a	n/a	n/a
3850.35	n/a	RECOG_RESP	1925175	n/a	LTP095	ltpFR	14	8	1	COMMUNITY	356	n/a	0	n/a	n/a	n/a	n/a	n/a
3850.894	n/a	RECOG_CONF	1925447	n/a	LTP095	ltpFR	14	8	1	COMMUNITY	356	5	0	n/a	n/a	n/a	n/a	n/a
3852.112	n/a	RECOG_TARGET	1926056	n/a	LTP095	ltpFR	14	8	0	WOUND	1624	4	0	n/a	n/a	n/a	n/a	n/a
3852.71	n/a	RECOG_RESP	1926355	n/a	LTP095	ltpFR	14	8	0	WOUND	1624	n/a	0	n/a	n/a	n/a	n/a	n/a
3853.28	n/a	RECOG_CONF	1926640	n/a	LTP095	ltpFR	14	8	0	WOUND	1624	4	0	n/a	n/a	n/a	n/a	n/a
3854.642	n/a	RECOG_TARGET	1927321	n/a	LTP095	ltpFR	14	8	-1	PAPER	1011	4	-1	n/a	n/a	n/a	n/a	n/a
3855.264	n/a	RECOG_RESP	1927632	n/a	LTP095	ltpFR	14	8	-1	PAPER	1011	n/a	-1	n/a	n/a	n/a	n/a	n/a
3855.864	n/a	RECOG_CONF	1927932	n/a	LTP095	ltpFR	14	8	-1	PAPER	1011	4	-1	n/a	n/a	n/a	n/a	n/a
3857.048	n/a	RECOG_TARGET	1928524	n/a	LTP095	ltpFR	14	8	-1	CRAB	397	4	-1	n/a	n/a	n/a	n/a	n/a
3857.898	n/a	RECOG_RESP	1928949	n/a	LTP095	ltpFR	14	8	-1	CRAB	397	n/a	-1	n/a	n/a	n/a	n/a	n/a
3858.468	n/a	RECOG_CONF	1929234	n/a	LTP095	ltpFR	14	8	-1	CRAB	397	4	-1	n/a	n/a	n/a	n/a	n/a
3859.868	n/a	RECOG_TARGET	1929934	n/a	LTP095	ltpFR	14	8	1	DINER	467	3	1	n/a	n/a	n/a	n/a	n/a
3860.552	n/a	RECOG_RESP	1930276	n/a	LTP095	ltpFR	14	8	1	DINER	467	n/a	1	n/a	n/a	n/a	n/a	n/a
3861.142	n/a	RECOG_CONF	1930571	n/a	LTP095	ltpFR	14	8	1	DINER	467	3	1	n/a	n/a	n/a	n/a	n/a
3862.374	n/a	RECOG_TARGET	1931187	n/a	LTP095	ltpFR	14	8	1	STORE	1387	4	0	n/a	n/a	n/a	n/a	n/a
3863.028	n/a	RECOG_RESP	1931514	n/a	LTP095	ltpFR	14	8	1	STORE	1387	n/a	0	n/a	n/a	n/a	n/a	n/a
3863.586	n/a	RECOG_CONF	1931793	n/a	LTP095	ltpFR	14	8	1	STORE	1387	4	0	n/a	n/a	n/a	n/a	n/a
3864.764	n/a	RECOG_TARGET	1932382	n/a	LTP095	ltpFR	14	8	-1	SHOWER	1296	2	-1	n/a	n/a	n/a	n/a	n/a
3865.836	n/a	RECOG_RESP	1932918	n/a	LTP095	ltpFR	14	8	-1	SHOWER	1296	n/a	-1	n/a	n/a	n/a	n/a	n/a
3867.118	n/a	RECOG_CONF	1933559	n/a	LTP095	ltpFR	14	8	-1	SHOWER	1296	2	-1	n/a	n/a	n/a	n/a	n/a
3868.484	n/a	RECOG_TARGET	1934242	n/a	LTP095	ltpFR	14	8	0	RADIATOR	1156	3	1	n/a	n/a	n/a	n/a	n/a
3869.712	n/a	RECOG_RESP_VV	1934856	n/a	LTP095	ltpFR	14	8	0	RADIATOR	1156	n/a	1	n/a	n/a	n/a	n/a	n/a
3870.306	n/a	RECOG_RESP	1935153	n/a	LTP095	ltpFR	14	8	0	RADIATOR	1156	n/a	1	n/a	n/a	n/a	n/a	n/a
3870.85	n/a	RECOG_CONF	1935425	n/a	LTP095	ltpFR	14	8	0	RADIATOR	1156	3	1	n/a	n/a	n/a	n/a	n/a
3871.914	n/a	RECOG_TARGET	1935957	n/a	LTP095	ltpFR	14	8	1	LIP	828	2	n/a	n/a	n/a	n/a	n/a	n/a
3872.486	n/a	RECOG_RESP	1936243	n/a	LTP095	ltpFR	14	8	1	LIP	828	n/a	n/a	n/a	n/a	n/a	n/a	n/a
3873.194	n/a	RECOG_CONF	1936597	n/a	LTP095	ltpFR	14	8	1	LIP	828	2	n/a	n/a	n/a	n/a	n/a	n/a
3874.478	n/a	RECOG_LURE	1937239	n/a	LTP095	ltpFR	14	8	n/a	BASSINET	97	3	n/a	n/a	n/a	n/a	n/a	n/a
3875.848	n/a	RECOG_RESP_VV	1937924	n/a	LTP095	ltpFR	14	8	n/a	BASSINET	97	2	n/a	n/a	n/a	n/a	n/a	n/a
3876.338	n/a	RECOG_RESP	1938169	n/a	LTP095	ltpFR	14	8	n/a	BASSINET	97	n/a	n/a	n/a	n/a	n/a	n/a	n/a
3877.136	n/a	RECOG_CONF	1938568	n/a	LTP095	ltpFR	14	8	n/a	BASSINET	97	3	n/a	n/a	n/a	n/a	n/a	n/a
3878.382	n/a	RECOG_LURE	1939191	n/a	LTP095	ltpFR	14	8	n/a	INMATE	738	3	n/a	n/a	n/a	n/a	n/a	n/a
3879.172	n/a	RECOG_RESP	1939586	n/a	LTP095	ltpFR	14	8	n/a	INMATE	738	n/a	n/a	n/a	n/a	n/a	n/a	n/a
3880.578	n/a	RECOG_CONF	1940289	n/a	LTP095	ltpFR	14	8	n/a	INMATE	738	3	n/a	n/a	n/a	n/a	n/a	n/a
3881.678	n/a	RECOG_TARGET	1940839	n/a	LTP095	ltpFR	14	8	0	THIGH	1457	4	n/a	n/a	n/a	n/a	n/a	n/a
3882.484	n/a	RECOG_RESP	1941242	n/a	LTP095	ltpFR	14	8	0	THIGH	1457	n/a	n/a	n/a	n/a	n/a	n/a	n/a
3883.222	n/a	RECOG_CONF	1941611	n/a	LTP095	ltpFR	14	8	0	THIGH	1457	4	n/a	n/a	n/a	n/a	n/a	n/a
3884.45	n/a	RECOG_TARGET	1942225	n/a	LTP095	ltpFR	14	8	-1	MOLECULE	905	3	-1	n/a	n/a	n/a	n/a	n/a
3885.388	n/a	RECOG_RESP	1942694	n/a	LTP095	ltpFR	14	8	-1	MOLECULE	905	n/a	-1	n/a	n/a	n/a	n/a	n/a
3886.216	n/a	RECOG_CONF	1943108	n/a	LTP095	ltpFR	14	8	-1	MOLECULE	905	3	-1	n/a	n/a	n/a	n/a	n/a
3887.43	n/a	RECOG_TARGET	1943715	n/a	LTP095	ltpFR	14	8	1	HEART	697	4	0	n/a	n/a	n/a	n/a	n/a
3888.54	n/a	RECOG_RESP	1944270	n/a	LTP095	ltpFR	14	8	1	HEART	697	n/a	0	n/a	n/a	n/a	n/a	n/a
3889.358	n/a	RECOG_CONF	1944679	n/a	LTP095	ltpFR	14	8	1	HEART	697	4	0	n/a	n/a	n/a	n/a	n/a
3890.742	n/a	RECOG_TARGET	1945371	n/a	LTP095	ltpFR	14	8	1	DOG	480	3	1	n/a	n/a	n/a	n/a	n/a
3893.344	n/a	RECOG_RESP	1946672	n/a	LTP095	ltpFR	14	8	1	DOG	480	n/a	1	n/a	n/a	n/a	n/a	n/a
3893.928	n/a	RECOG_CONF	1946964	n/a	LTP095	ltpFR	14	8	1	DOG	480	3	1	n/a	n/a	n/a	n/a	n/a
3895.536	n/a	RECOG_LURE	1947768	n/a	LTP095	ltpFR	14	8	n/a	TIDE	1465	n/a	n/a	n/a	n/a	n/a	n/a	n/a
3896.506	n/a	RECOG_RESP	1948253	n/a	LTP095	ltpFR	14	8	n/a	TIDE	1465	n/a	n/a	n/a	n/a	n/a	n/a	n/a
3898.392	n/a	RECOG_LURE	1949196	n/a	LTP095	ltpFR	14	8	n/a	CUSTARD	429	3	n/a	n/a	n/a	n/a	n/a	n/a
3899.286	n/a	RECOG_RESP	1949643	n/a	LTP095	ltpFR	14	8	n/a	CUSTARD	429	n/a	n/a	n/a	n/a	n/a	n/a	n/a
3899.932	n/a	RECOG_CONF	1949966	n/a	LTP095	ltpFR	14	8	n/a	CUSTARD	429	3	n/a	n/a	n/a	n/a	n/a	n/a
3900.988	n/a	RECOG_LURE	1950494	n/a	LTP095	ltpFR	14	8	n/a	HALL	677	2	n/a	n/a	n/a	n/a	n/a	n/a
3902.388	n/a	RECOG_RESP	1951194	n/a	LTP095	ltpFR	14	8	n/a	HALL	677	n/a	n/a	n/a	n/a	n/a	n/a	n/a
3902.876	n/a	RECOG_CONF	1951438	n/a	LTP095	ltpFR	14	8	n/a	HALL	677	2	n/a	n/a	n/a	n/a	n/a	n/a
3904.168	n/a	RECOG_TARGET	1952084	n/a	LTP095	ltpFR	14	8	0	BOOTH	151	3	n/a	n/a	n/a	n/a	n/a	n/a
3905.276	n/a	RECOG_RESP	1952638	n/a	LTP095	ltpFR	14	8	0	BOOTH	151	n/a	n/a	n/a	n/a	n/a	n/a	n/a
3906.23	n/a	RECOG_CONF	1953115	n/a	LTP095	ltpFR	14	8	0	BOOTH	151	3	n/a	n/a	n/a	n/a	n/a	n/a
3911.688	n/a	REC_START	1955844	n/a	LTP095	ltpFR	14	9	n/a	n/a	n/a	n/a	n/a	n/a	n/a	n/a	n/a	n/a
3911.718	n/a	RECOG_TARGET	1955859	n/a	LTP095	ltpFR	14	9	0	LOCK	838	3	0	n/a	n/a	n/a	n/a	n/a
3913.03	n/a	RECOG_RESP	1956515	n/a	LTP095	ltpFR	14	9	0	LOCK	838	n/a	0	n/a	n/a	n/a	n/a	n/a
3913.608	n/a	RECOG_CONF	1956804	n/a	LTP095	ltpFR	14	9	0	LOCK	838	3	0	n/a	n/a	n/a	n/a	n/a
3915.064	n/a	RECOG_TARGET	1957532	n/a	LTP095	ltpFR	14	9	1	EMPLOYEE	531	2	1	n/a	n/a	n/a	n/a	n/a
3915.924	n/a	RECOG_RESP	1957962	n/a	LTP095	ltpFR	14	9	1	EMPLOYEE	531	n/a	1	n/a	n/a	n/a	n/a	n/a
3916.552	n/a	RECOG_CONF	1958276	n/a	LTP095	ltpFR	14	9	1	EMPLOYEE	531	2	1	n/a	n/a	n/a	n/a	n/a
3917.686	n/a	RECOG_TARGET	1958843	n/a	LTP095	ltpFR	14	9	0	COMPANION	357	3	1	n/a	n/a	n/a	n/a	n/a
3919.146	n/a	RECOG_RESP	1959573	n/a	LTP095	ltpFR	14	9	0	COMPANION	357	n/a	1	n/a	n/a	n/a	n/a	n/a
3919.794	n/a	RECOG_CONF	1959897	n/a	LTP095	ltpFR	14	9	0	COMPANION	357	3	1	n/a	n/a	n/a	n/a	n/a
3920.898	n/a	RECOG_TARGET	1960449	n/a	LTP095	ltpFR	14	9	0	QUARTER	1148	3	0	n/a	n/a	n/a	n/a	n/a
3921.442	n/a	RECOG_RESP	1960721	n/a	LTP095	ltpFR	14	9	0	QUARTER	1148	n/a	0	n/a	n/a	n/a	n/a	n/a
3922.02	n/a	RECOG_CONF	1961010	n/a	LTP095	ltpFR	14	9	0	QUARTER	1148	3	0	n/a	n/a	n/a	n/a	n/a
3923.264	n/a	RECOG_TARGET	1961632	n/a	LTP095	ltpFR	14	9	-1	SAW	1239	4	-1	n/a	n/a	n/a	n/a	n/a
3924.19	n/a	RECOG_RESP	1962095	n/a	LTP095	ltpFR	14	9	-1	SAW	1239	n/a	-1	n/a	n/a	n/a	n/a	n/a
