mstime	trial_type	stim_file	subject	experiment	session	trial	task	item_name	item_num	recog_conf	resp	color_b	color_g	color_r	case	font
0	SESS_START	n/a	LTP186	ltpFR	3	n/a	n/a	n/a	n/a	1	n/a	n/a	n/a	n/a	n/a	n/a
81592	WORD	wordpools/wasnorm_wordpool_less_exclusions.txt	LTP186	ltpFR	3	1	0	CONDUCTOR	362	n/a	1	1	0.412841796875	0.57763671875	lower	../fonts/zerothre.ttf
85507	WORD	wordpools/wasnorm_wordpool_less_exclusions.txt	LTP186	ltpFR	3	1	0	BATTERY	101	n/a	0	1	0.412841796875	0.57763671875	lower	../fonts/zerothre.ttf
89505	WORD	wordpools/wasnorm_wordpool_less_exclusions.txt	LTP186	ltpFR	3	1	0	GRASS	655	n/a	1	1	0.412841796875	0.57763671875	lower	../fonts/zerothre.ttf
93571	WORD	wordpools/wasnorm_wordpool_less_exclusions.txt	LTP186	ltpFR	3	1	0	COWBOY	395	n/a	1	1	0.412841796875	0.57763671875	lower	../fonts/zerothre.ttf
97519	WORD	wordpools/wasnorm_wordpool_less_exclusions.txt	LTP186	ltpFR	3	1	1	ZEBRA	1635	n/a	1	0	0.5869140625	0.422607421875	upper	../fonts/amplitud.ttf
101501	WORD	wordpools/wasnorm_wordpool_less_exclusions.txt	LTP186	ltpFR	3	1	1	BEGGAR	117	n/a	1	0	0.5869140625	0.422607421875	upper	../fonts/amplitud.ttf
105466	WORD	wordpools/wasnorm_wordpool_less_exclusions.txt	LTP186	ltpFR	3	1	0	UNICORN	1538	n/a	1	1	0.412841796875	0.57763671875	lower	../fonts/zerothre.ttf
109564	WORD	wordpools/wasnorm_wordpool_less_exclusions.txt	LTP186	ltpFR	3	1	0	SEAL	1262	n/a	1	1	0.412841796875	0.57763671875	lower	../fonts/zerothre.ttf
113730	WORD	wordpools/wasnorm_wordpool_less_exclusions.txt	LTP186	ltpFR	3	1	0	KETCHUP	771	n/a	0	1	0.412841796875	0.57763671875	lower	../fonts/zerothre.ttf
117578	WORD	wordpools/wasnorm_wordpool_less_exclusions.txt	LTP186	ltpFR	3	1	0	ESSAY	540	n/a	0	1	0.412841796875	0.57763671875	lower	../fonts/zerothre.ttf
121777	WORD	wordpools/wasnorm_wordpool_less_exclusions.txt	LTP186	ltpFR	3	1	1	STAPLE	1371	n/a	0	0	0.5869140625	0.422607421875	upper	../fonts/amplitud.ttf
125642	WORD	wordpools/wasnorm_wordpool_less_exclusions.txt	LTP186	ltpFR	3	1	1	SUPERMARKET	1409	n/a	0	0	0.5869140625	0.422607421875	upper	../fonts/amplitud.ttf
129807	WORD	wordpools/wasnorm_wordpool_less_exclusions.txt	LTP186	ltpFR	3	1	1	COOKBOOK	373	n/a	0	0	0.5869140625	0.422607421875	upper	../fonts/amplitud.ttf
133794	WORD	wordpools/wasnorm_wordpool_less_exclusions.txt	LTP186	ltpFR	3	1	1	FRIES	607	n/a	0	0	0.5869140625	0.422607421875	upper	../fonts/amplitud.ttf
137873	WORD	wordpools/wasnorm_wordpool_less_exclusions.txt	LTP186	ltpFR	3	1	1	BASKETBALL	96	n/a	0	0	0.5869140625	0.422607421875	upper	../fonts/amplitud.ttf
141886	WORD	wordpools/wasnorm_wordpool_less_exclusions.txt	LTP186	ltpFR	3	1	1	CABOOSE	214	n/a	0	0	0.5869140625	0.422607421875	upper	../fonts/amplitud.ttf
147692	REC_START	n/a	LTP186	ltpFR	3	1	n/a	n/a	n/a	n/a	n/a	n/a	n/a	n/a	n/a	n/a
148146	REC_WORD	wordpools/wasnorm_wordpool_less_exclusions.txt	LTP186	ltpFR	3	1	1	CABOOSE	214	n/a	0	n/a	n/a	n/a	n/a	n/a
149054	REC_WORD	wordpools/wasnorm_wordpool_less_exclusions.txt	LTP186	ltpFR	3	1	1	BASKETBALL	96	n/a	0	n/a	n/a	n/a	n/a	n/a
149972	REC_WORD	wordpools/wasnorm_wordpool_less_exclusions.txt	LTP186	ltpFR	3	1	0	KETCHUP	771	n/a	0	n/a	n/a	n/a	n/a	n/a
151578	REC_WORD	wordpools/wasnorm_wordpool_less_exclusions.txt	LTP186	ltpFR	3	1	0	UNICORN	1538	n/a	1	n/a	n/a	n/a	n/a	n/a
152421	REC_WORD	wordpools/wasnorm_wordpool_less_exclusions.txt	LTP186	ltpFR	3	1	0	COWBOY	395	n/a	1	n/a	n/a	n/a	n/a	n/a
153116	REC_WORD	wordpools/wasnorm_wordpool_less_exclusions.txt	LTP186	ltpFR	3	1	n/a	STAPLER	1372	n/a	n/a	n/a	n/a	n/a	n/a	n/a
154476	REC_WORD	wordpools/wasnorm_wordpool_less_exclusions.txt	LTP186	ltpFR	3	1	1	BEGGAR	117	n/a	1	n/a	n/a	n/a	n/a	n/a
156327	REC_WORD	wordpools/wasnorm_wordpool_less_exclusions.txt	LTP186	ltpFR	3	1	0	ESSAY	540	n/a	0	n/a	n/a	n/a	n/a	n/a
172919	REC_WORD	wordpools/wasnorm_wordpool_less_exclusions.txt	LTP186	ltpFR	3	1	0	GRASS	655	n/a	1	n/a	n/a	n/a	n/a	n/a
176865	REC_WORD	wordpools/wasnorm_wordpool_less_exclusions.txt	LTP186	ltpFR	3	1	0	SEAL	1262	n/a	1	n/a	n/a	n/a	n/a	n/a
193188	REC_WORD	wordpools/wasnorm_wordpool_less_exclusions.txt	LTP186	ltpFR	3	1	1	SUPERMARKET	1409	n/a	0	n/a	n/a	n/a	n/a	n/a
200995	REC_WORD	wordpools/wasnorm_wordpool_less_exclusions.txt	LTP186	ltpFR	3	1	1	ZEBRA	1635	n/a	1	n/a	n/a	n/a	n/a	n/a
241109	WORD	wordpools/wasnorm_wordpool_less_exclusions.txt	LTP186	ltpFR	3	2	1	PAINTER	1004	n/a	1	0	0.5869140625	0.422607421875	upper	../fonts/amplitud.ttf
245208	WORD	wordpools/wasnorm_wordpool_less_exclusions.txt	LTP186	ltpFR	3	2	1	FLIPPER	580	n/a	0	0	0.5869140625	0.422607421875	upper	../fonts/amplitud.ttf
249340	WORD	wordpools/wasnorm_wordpool_less_exclusions.txt	LTP186	ltpFR	3	2	0	TABLET	1427	n/a	1	1	0.412841796875	0.57763671875	lower	../fonts/zerothre.ttf
253440	WORD	wordpools/wasnorm_wordpool_less_exclusions.txt	LTP186	ltpFR	3	2	0	DOUGHNUT	490	n/a	0	1	0.412841796875	0.57763671875	lower	../fonts/zerothre.ttf
257337	WORD	wordpools/wasnorm_wordpool_less_exclusions.txt	LTP186	ltpFR	3	2	0	BOY	161	n/a	1	1	0.412841796875	0.57763671875	lower	../fonts/zerothre.ttf
261239	WORD	wordpools/wasnorm_wordpool_less_exclusions.txt	LTP186	ltpFR	3	2	0	SCOUT	1252	n/a	1	1	0.412841796875	0.57763671875	lower	../fonts/zerothre.ttf
265367	WORD	wordpools/wasnorm_wordpool_less_exclusions.txt	LTP186	ltpFR	3	2	1	FIREMAN	569	n/a	1	0	0.5869140625	0.422607421875	upper	../fonts/amplitud.ttf
269399	WORD	wordpools/wasnorm_wordpool_less_exclusions.txt	LTP186	ltpFR	3	2	1	SPRINKLE	1359	n/a	0	0	0.5869140625	0.422607421875	upper	../fonts/amplitud.ttf
273398	WORD	wordpools/wasnorm_wordpool_less_exclusions.txt	LTP186	ltpFR	3	2	0	DOUGH	489	n/a	0	1	0.412841796875	0.57763671875	lower	../fonts/zerothre.ttf
277346	WORD	wordpools/wasnorm_wordpool_less_exclusions.txt	LTP186	ltpFR	3	2	0	TROUT	1511	n/a	1	1	0.412841796875	0.57763671875	lower	../fonts/zerothre.ttf
281546	WORD	wordpools/wasnorm_wordpool_less_exclusions.txt	LTP186	ltpFR	3	2	0	POLITICIAN	1099	n/a	1	1	0.412841796875	0.57763671875	lower	../fonts/zerothre.ttf
285745	WORD	wordpools/wasnorm_wordpool_less_exclusions.txt	LTP186	ltpFR	3	2	0	SKATE	1313	n/a	0	1	0.412841796875	0.57763671875	lower	../fonts/zerothre.ttf
289910	WORD	wordpools/wasnorm_wordpool_less_exclusions.txt	LTP186	ltpFR	3	2	1	MUSEUM	933	n/a	0	0	0.5869140625	0.422607421875	upper	../fonts/amplitud.ttf
293859	WORD	wordpools/wasnorm_wordpool_less_exclusions.txt	LTP186	ltpFR	3	2	1	LOOP	844	n/a	0	0	0.5869140625	0.422607421875	upper	../fonts/amplitud.ttf
297940	WORD	wordpools/wasnorm_wordpool_less_exclusions.txt	LTP186	ltpFR	3	2	1	COACH	331	n/a	1	0	0.5869140625	0.422607421875	upper	../fonts/amplitud.ttf
302039	WORD	wordpools/wasnorm_wordpool_less_exclusions.txt	LTP186	ltpFR	3	2	1	CHEERLEADER	288	n/a	1	0	0.5869140625	0.422607421875	upper	../fonts/amplitud.ttf
307879	REC_START	n/a	LTP186	ltpFR	3	2	n/a	n/a	n/a	n/a	n/a	n/a	n/a	n/a	n/a	n/a
308323	REC_WORD	wordpools/wasnorm_wordpool_less_exclusions.txt	LTP186	ltpFR	3	2	1	CHEERLEADER	288	n/a	1	n/a	n/a	n/a	n/a	n/a
309400	REC_WORD	wordpools/wasnorm_wordpool_less_exclusions.txt	LTP186	ltpFR	3	2	0	BOY	161	n/a	1	n/a	n/a	n/a	n/a	n/a
310233	REC_WORD	wordpools/wasnorm_wordpool_less_exclusions.txt	LTP186	ltpFR	3	2	0	SCOUT	1252	n/a	1	n/a	n/a	n/a	n/a	n/a
311233	REC_WORD_VV	wordpools/wasnorm_wordpool_less_exclusions.txt	LTP186	ltpFR	3	2	n/a	<>	-1	n/a	n/a	n/a	n/a	n/a	n/a	n/a
311496	REC_WORD	wordpools/wasnorm_wordpool_less_exclusions.txt	LTP186	ltpFR	3	2	1	FIREMAN	569	n/a	1	n/a	n/a	n/a	n/a	n/a
313346	REC_WORD	wordpools/wasnorm_wordpool_less_exclusions.txt	LTP186	ltpFR	3	2	0	DOUGHNUT	490	n/a	0	n/a	n/a	n/a	n/a	n/a
314304	REC_WORD	wordpools/wasnorm_wordpool_less_exclusions.txt	LTP186	ltpFR	3	2	1	SPRINKLE	1359	n/a	0	n/a	n/a	n/a	n/a	n/a
318769	REC_WORD	wordpools/wasnorm_wordpool_less_exclusions.txt	LTP186	ltpFR	3	2	0	DOUGH	489	n/a	0	n/a	n/a	n/a	n/a	n/a
325658	REC_WORD	wordpools/wasnorm_wordpool_less_exclusions.txt	LTP186	ltpFR	3	2	0	BOY	161	n/a	1	n/a	n/a	n/a	n/a	n/a
332962	REC_WORD	wordpools/wasnorm_wordpool_less_exclusions.txt	LTP186	ltpFR	3	2	1	CHEERLEADER	288	n/a	1	n/a	n/a	n/a	n/a	n/a
372392	REC_WORD	wordpools/wasnorm_wordpool_less_exclusions.txt	LTP186	ltpFR	3	2	0	POLITICIAN	1099	n/a	1	n/a	n/a	n/a	n/a	n/a
380933	REC_WORD	wordpools/wasnorm_wordpool_less_exclusions.txt	LTP186	ltpFR	3	2	0	TROUT	1511	n/a	1	n/a	n/a	n/a	n/a	n/a
402753	WORD	wordpools/wasnorm_wordpool_less_exclusions.txt	LTP186	ltpFR	3	3	0	BASEBALL	93	n/a	0	1	0.412841796875	0.57763671875	lower	../fonts/zerothre.ttf
406851	WORD	wordpools/wasnorm_wordpool_less_exclusions.txt	LTP186	ltpFR	3	3	0	ASTRONAUT	51	n/a	1	1	0.412841796875	0.57763671875	lower	../fonts/zerothre.ttf
410867	WORD	wordpools/wasnorm_wordpool_less_exclusions.txt	LTP186	ltpFR	3	3	0	WAIST	1579	n/a	1	1	0.412841796875	0.57763671875	lower	../fonts/zerothre.ttf
414914	WORD	wordpools/wasnorm_wordpool_less_exclusions.txt	LTP186	ltpFR	3	3	0	MEADOW	881	n/a	1	1	0.412841796875	0.57763671875	lower	../fonts/zerothre.ttf
418763	WORD	wordpools/wasnorm_wordpool_less_exclusions.txt	LTP186	ltpFR	3	3	0	CLAW	319	n/a	1	1	0.412841796875	0.57763671875	lower	../fonts/zerothre.ttf
422895	WORD	wordpools/wasnorm_wordpool_less_exclusions.txt	LTP186	ltpFR	3	3	0	CAVE	263	n/a	1	1	0.412841796875	0.57763671875	lower	../fonts/zerothre.ttf
426793	WORD	wordpools/wasnorm_wordpool_less_exclusions.txt	LTP186	ltpFR	3	3	0	CASHEW	253	n/a	0	1	0.412841796875	0.57763671875	lower	../fonts/zerothre.ttf
430842	WORD	wordpools/wasnorm_wordpool_less_exclusions.txt	LTP186	ltpFR	3	3	0	SQUIRREL	1362	n/a	1	1	0.412841796875	0.57763671875	lower	../fonts/zerothre.ttf
434723	WORD	wordpools/wasnorm_wordpool_less_exclusions.txt	LTP186	ltpFR	3	3	0	HEDGE	699	n/a	1	1	0.412841796875	0.57763671875	lower	../fonts/zerothre.ttf
438571	WORD	wordpools/wasnorm_wordpool_less_exclusions.txt	LTP186	ltpFR	3	3	0	REFEREE	1178	n/a	1	1	0.412841796875	0.57763671875	lower	../fonts/zerothre.ttf
442670	WORD	wordpools/wasnorm_wordpool_less_exclusions.txt	LTP186	ltpFR	3	3	0	ABDOMEN	1	n/a	1	1	0.412841796875	0.57763671875	lower	../fonts/zerothre.ttf
446819	WORD	wordpools/wasnorm_wordpool_less_exclusions.txt	LTP186	ltpFR	3	3	0	CHIEF	298	n/a	1	1	0.412841796875	0.57763671875	lower	../fonts/zerothre.ttf
450803	WORD	wordpools/wasnorm_wordpool_less_exclusions.txt	LTP186	ltpFR	3	3	0	FOLLOWER	589	n/a	1	1	0.412841796875	0.57763671875	lower	../fonts/zerothre.ttf
454782	WORD	wordpools/wasnorm_wordpool_less_exclusions.txt	LTP186	ltpFR	3	3	0	SWEATER	1419	n/a	1	1	0.412841796875	0.57763671875	lower	../fonts/zerothre.ttf
458647	WORD	wordpools/wasnorm_wordpool_less_exclusions.txt	LTP186	ltpFR	3	3	0	BRUSH	182	n/a	0	1	0.412841796875	0.57763671875	lower	../fonts/zerothre.ttf
462695	WORD	wordpools/wasnorm_wordpool_less_exclusions.txt	LTP186	ltpFR	3	3	0	FLASK	576	n/a	0	1	0.412841796875	0.57763671875	lower	../fonts/zerothre.ttf
468249	REC_START	n/a	LTP186	ltpFR	3	3	n/a	n/a	n/a	n/a	n/a	n/a	n/a	n/a	n/a	n/a
468807	REC_WORD	wordpools/wasnorm_wordpool_less_exclusions.txt	LTP186	ltpFR	3	3	n/a	FLOWER	584	n/a	n/a	n/a	n/a	n/a	n/a	n/a
469528	REC_WORD	wordpools/wasnorm_wordpool_less_exclusions.txt	LTP186	ltpFR	3	3	0	FLASK	576	n/a	0	n/a	n/a	n/a	n/a	n/a
470933	REC_WORD	wordpools/wasnorm_wordpool_less_exclusions.txt	LTP186	ltpFR	3	3	0	FOLLOWER	589	n/a	1	n/a	n/a	n/a	n/a	n/a
471756	REC_WORD	wordpools/wasnorm_wordpool_less_exclusions.txt	LTP186	ltpFR	3	3	0	CHIEF	298	n/a	1	n/a	n/a	n/a	n/a	n/a
473168	REC_WORD	wordpools/wasnorm_wordpool_less_exclusions.txt	LTP186	ltpFR	3	3	0	SQUIRREL	1362	n/a	1	n/a	n/a	n/a	n/a	n/a
474280	REC_WORD	wordpools/wasnorm_wordpool_less_exclusions.txt	LTP186	ltpFR	3	3	0	CLAW	319	n/a	1	n/a	n/a	n/a	n/a	n/a
477069	REC_WORD	wordpools/wasnorm_wordpool_less_exclusions.txt	LTP186	ltpFR	3	3	0	MEADOW	881	n/a	1	n/a	n/a	n/a	n/a	n/a
478061	REC_WORD	wordpools/wasnorm_wordpool_less_exclusions.txt	LTP186	ltpFR	3	3	0	BASEBALL	93	n/a	0	n/a	n/a	n/a	n/a	n/a
483619	REC_WORD	wordpools/wasnorm_wordpool_less_exclusions.txt	LTP186	ltpFR	3	3	0	WAIST	1579	n/a	1	n/a	n/a	n/a	n/a	n/a
484986	REC_WORD	wordpools/wasnorm_wordpool_less_exclusions.txt	LTP186	ltpFR	3	3	0	ABDOMEN	1	n/a	1	n/a	n/a	n/a	n/a	n/a
488243	REC_WORD	wordpools/wasnorm_wordpool_less_exclusions.txt	LTP186	ltpFR	3	3	0	CAVE	263	n/a	1	n/a	n/a	n/a	n/a	n/a
556150	WORD	wordpools/wasnorm_wordpool_less_exclusions.txt	LTP186	ltpFR	3	4	0	TEMPLE	1448	n/a	1	1	0.412841796875	0.57763671875	lower	../fonts/zerothre.ttf
560362	WORD	wordpools/wasnorm_wordpool_less_exclusions.txt	LTP186	ltpFR	3	4	0	LAWN	805	n/a	1	1	0.412841796875	0.57763671875	lower	../fonts/zerothre.ttf
564512	WORD	wordpools/wasnorm_wordpool_less_exclusions.txt	LTP186	ltpFR	3	4	0	VIKING	1565	n/a	1	1	0.412841796875	0.57763671875	lower	../fonts/zerothre.ttf
568711	WORD	wordpools/wasnorm_wordpool_less_exclusions.txt	LTP186	ltpFR	3	4	0	POLE	1097	n/a	0	1	0.412841796875	0.57763671875	lower	../fonts/zerothre.ttf
572727	WORD	wordpools/wasnorm_wordpool_less_exclusions.txt	LTP186	ltpFR	3	4	0	ORANGE	980	n/a	1	1	0.412841796875	0.57763671875	lower	../fonts/zerothre.ttf
576743	WORD	wordpools/wasnorm_wordpool_less_exclusions.txt	LTP186	ltpFR	3	4	0	ZUCCHINI	1638	n/a	0	1	0.412841796875	0.57763671875	lower	../fonts/zerothre.ttf
580790	WORD	wordpools/wasnorm_wordpool_less_exclusions.txt	LTP186	ltpFR	3	4	0	PLANT	1083	n/a	0	1	0.412841796875	0.57763671875	lower	../fonts/zerothre.ttf
584638	WORD	wordpools/wasnorm_wordpool_less_exclusions.txt	LTP186	ltpFR	3	4	0	SAILOR	1223	n/a	1	1	0.412841796875	0.57763671875	lower	../fonts/zerothre.ttf
588854	WORD	wordpools/wasnorm_wordpool_less_exclusions.txt	LTP186	ltpFR	3	4	0	CONVENT	370	n/a	1	1	0.412841796875	0.57763671875	lower	../fonts/zerothre.ttf
592918	WORD	wordpools/wasnorm_wordpool_less_exclusions.txt	LTP186	ltpFR	3	4	0	CUSHION	428	n/a	1	1	0.412841796875	0.57763671875	lower	../fonts/zerothre.ttf
596817	WORD	wordpools/wasnorm_wordpool_less_exclusions.txt	LTP186	ltpFR	3	4	0	NOMAD	955	n/a	1	1	0.412841796875	0.57763671875	lower	../fonts/zerothre.ttf
600682	WORD	wordpools/wasnorm_wordpool_less_exclusions.txt	LTP186	ltpFR	3	4	0	VAN	1548	n/a	1	1	0.412841796875	0.57763671875	lower	../fonts/zerothre.ttf
604781	WORD	wordpools/wasnorm_wordpool_less_exclusions.txt	LTP186	ltpFR	3	4	0	DIME	466	n/a	0	1	0.412841796875	0.57763671875	lower	../fonts/zerothre.ttf
608996	WORD	wordpools/wasnorm_wordpool_less_exclusions.txt	LTP186	ltpFR	3	4	0	CASH	252	n/a	0	1	0.412841796875	0.57763671875	lower	../fonts/zerothre.ttf
612833	WORD	wordpools/wasnorm_wordpool_less_exclusions.txt	LTP186	ltpFR	3	4	0	KEYBOARD	774	n/a	1	1	0.412841796875	0.57763671875	lower	../fonts/zerothre.ttf
616826	WORD	wordpools/wasnorm_wordpool_less_exclusions.txt	LTP186	ltpFR	3	4	0	FLUTE	585	n/a	1	1	0.412841796875	0.57763671875	lower	../fonts/zerothre.ttf
622599	REC_START	n/a	LTP186	ltpFR	3	4	n/a	n/a	n/a	n/a	n/a	n/a	n/a	n/a	n/a	n/a
623197	REC_WORD	wordpools/wasnorm_wordpool_less_exclusions.txt	LTP186	ltpFR	3	4	0	FLUTE	585	n/a	1	n/a	n/a	n/a	n/a	n/a
624070	REC_WORD	wordpools/wasnorm_wordpool_less_exclusions.txt	LTP186	ltpFR	3	4	0	KEYBOARD	774	n/a	1	n/a	n/a	n/a	n/a	n/a
625672	REC_WORD	wordpools/wasnorm_wordpool_less_exclusions.txt	LTP186	ltpFR	3	4	0	VIKING	1565	n/a	1	n/a	n/a	n/a	n/a	n/a
626434	REC_WORD	wordpools/wasnorm_wordpool_less_exclusions.txt	LTP186	ltpFR	3	4	0	ZUCCHINI	1638	n/a	0	n/a	n/a	n/a	n/a	n/a
627508	REC_WORD	wordpools/wasnorm_wordpool_less_exclusions.txt	LTP186	ltpFR	3	4	0	ORANGE	980	n/a	1	n/a	n/a	n/a	n/a	n/a
631129	REC_WORD	wordpools/wasnorm_wordpool_less_exclusions.txt	LTP186	ltpFR	3	4	0	POLE	1097	n/a	0	n/a	n/a	n/a	n/a	n/a
636183	REC_WORD	wordpools/wasnorm_wordpool_less_exclusions.txt	LTP186	ltpFR	3	4	0	TEMPLE	1448	n/a	1	n/a	n/a	n/a	n/a	n/a
638034	REC_WORD	wordpools/wasnorm_wordpool_less_exclusions.txt	LTP186	ltpFR	3	4	0	LAWN	805	n/a	1	n/a	n/a	n/a	n/a	n/a
640493	REC_WORD	wordpools/wasnorm_wordpool_less_exclusions.txt	LTP186	ltpFR	3	4	0	DIME	466	n/a	0	n/a	n/a	n/a	n/a	n/a
642753	REC_WORD	wordpools/wasnorm_wordpool_less_exclusions.txt	LTP186	ltpFR	3	4	0	CASH	252	n/a	0	n/a	n/a	n/a	n/a	n/a
645601	REC_WORD	wordpools/wasnorm_wordpool_less_exclusions.txt	LTP186	ltpFR	3	4	0	SAILOR	1223	n/a	1	n/a	n/a	n/a	n/a	n/a
712137	WORD	wordpools/wasnorm_wordpool_less_exclusions.txt	LTP186	ltpFR	3	5	1	CLOWN	330	n/a	1	0	0.5869140625	0.422607421875	upper	../fonts/amplitud.ttf
716099	WORD	wordpools/wasnorm_wordpool_less_exclusions.txt	LTP186	ltpFR	3	5	1	TORTOISE	1486	n/a	1	0	0.5869140625	0.422607421875	upper	../fonts/amplitud.ttf
720298	WORD	wordpools/wasnorm_wordpool_less_exclusions.txt	LTP186	ltpFR	3	5	1	CLARINET	317	n/a	0	0	0.5869140625	0.422607421875	upper	../fonts/amplitud.ttf
724364	WORD	wordpools/wasnorm_wordpool_less_exclusions.txt	LTP186	ltpFR	3	5	1	MULE	931	n/a	1	0	0.5869140625	0.422607421875	upper	../fonts/amplitud.ttf
728262	WORD	wordpools/wasnorm_wordpool_less_exclusions.txt	LTP186	ltpFR	3	5	1	SHELF	1280	n/a	0	0	0.5869140625	0.422607421875	upper	../fonts/amplitud.ttf
732080	WORD	wordpools/wasnorm_wordpool_less_exclusions.txt	LTP186	ltpFR	3	5	1	STEW	1380	n/a	0	0	0.5869140625	0.422607421875	upper	../fonts/amplitud.ttf
736058	WORD	wordpools/wasnorm_wordpool_less_exclusions.txt	LTP186	ltpFR	3	5	1	ORCHESTRA	981	n/a	1	0	0.5869140625	0.422607421875	upper	../fonts/amplitud.ttf
740140	WORD	wordpools/wasnorm_wordpool_less_exclusions.txt	LTP186	ltpFR	3	5	1	ITEM	746	n/a	0	0	0.5869140625	0.422607421875	upper	../fonts/amplitud.ttf
744071	WORD	wordpools/wasnorm_wordpool_less_exclusions.txt	LTP186	ltpFR	3	5	1	CUSTOMER	430	n/a	1	0	0.5869140625	0.422607421875	upper	../fonts/amplitud.ttf
748237	WORD	wordpools/wasnorm_wordpool_less_exclusions.txt	LTP186	ltpFR	3	5	1	VEAL	1551	n/a	0	0	0.5869140625	0.422607421875	upper	../fonts/amplitud.ttf
752252	WORD	wordpools/wasnorm_wordpool_less_exclusions.txt	LTP186	ltpFR	3	5	1	CHAUFFEUR	283	n/a	1	0	0.5869140625	0.422607421875	upper	../fonts/amplitud.ttf
756267	WORD	wordpools/wasnorm_wordpool_less_exclusions.txt	LTP186	ltpFR	3	5	1	FREEWAY	603	n/a	0	0	0.5869140625	0.422607421875	upper	../fonts/amplitud.ttf
760383	WORD	wordpools/wasnorm_wordpool_less_exclusions.txt	LTP186	ltpFR	3	5	1	ENGINE	535	n/a	0	0	0.5869140625	0.422607421875	upper	../fonts/amplitud.ttf
764533	WORD	wordpools/wasnorm_wordpool_less_exclusions.txt	LTP186	ltpFR	3	5	1	PRAIRIE	1118	n/a	1	0	0.5869140625	0.422607421875	upper	../fonts/amplitud.ttf
768498	WORD	wordpools/wasnorm_wordpool_less_exclusions.txt	LTP186	ltpFR	3	5	1	FLEA	577	n/a	1	0	0.5869140625	0.422607421875	upper	../fonts/amplitud.ttf
772680	WORD	wordpools/wasnorm_wordpool_less_exclusions.txt	LTP186	ltpFR	3	5	1	TOURIST	1488	n/a	1	0	0.5869140625	0.422607421875	upper	../fonts/amplitud.ttf
778401	REC_START	n/a	LTP186	ltpFR	3	5	n/a	n/a	n/a	n/a	n/a	n/a	n/a	n/a	n/a	n/a
778974	REC_WORD	wordpools/wasnorm_wordpool_less_exclusions.txt	LTP186	ltpFR	3	5	1	ENGINE	535	n/a	0	n/a	n/a	n/a	n/a	n/a
779662	REC_WORD	wordpools/wasnorm_wordpool_less_exclusions.txt	LTP186	ltpFR	3	5	1	FLEA	577	n/a	1	n/a	n/a	n/a	n/a	n/a
780541	REC_WORD	wordpools/wasnorm_wordpool_less_exclusions.txt	LTP186	ltpFR	3	5	1	TOURIST	1488	n/a	1	n/a	n/a	n/a	n/a	n/a
783983	REC_WORD	wordpools/wasnorm_wordpool_less_exclusions.txt	LTP186	ltpFR	3	5	1	STEW	1380	n/a	0	n/a	n/a	n/a	n/a	n/a
785694	REC_WORD	wordpools/wasnorm_wordpool_less_exclusions.txt	LTP186	ltpFR	3	5	1	CLOWN	330	n/a	1	n/a	n/a	n/a	n/a	n/a
787211	REC_WORD	wordpools/wasnorm_wordpool_less_exclusions.txt	LTP186	ltpFR	3	5	1	CHAUFFEUR	283	n/a	1	n/a	n/a	n/a	n/a	n/a
790119	REC_WORD	wordpools/wasnorm_wordpool_less_exclusions.txt	LTP186	ltpFR	3	5	1	MULE	931	n/a	1	n/a	n/a	n/a	n/a	n/a
791134	REC_WORD	wordpools/wasnorm_wordpool_less_exclusions.txt	LTP186	ltpFR	3	5	1	TORTOISE	1486	n/a	1	n/a	n/a	n/a	n/a	n/a
800131	REC_WORD	wordpools/wasnorm_wordpool_less_exclusions.txt	LTP186	ltpFR	3	5	1	FREEWAY	603	n/a	0	n/a	n/a	n/a	n/a	n/a
829744	REC_WORD	wordpools/wasnorm_wordpool_less_exclusions.txt	LTP186	ltpFR	3	5	1	VEAL	1551	n/a	0	n/a	n/a	n/a	n/a	n/a
830537	REC_WORD	wordpools/wasnorm_wordpool_less_exclusions.txt	LTP186	ltpFR	3	5	1	CUSTOMER	430	n/a	1	n/a	n/a	n/a	n/a	n/a
831839	REC_WORD	wordpools/wasnorm_wordpool_less_exclusions.txt	LTP186	ltpFR	3	5	1	ITEM	746	n/a	0	n/a	n/a	n/a	n/a	n/a
851415	REC_WORD	wordpools/wasnorm_wordpool_less_exclusions.txt	LTP186	ltpFR	3	5	1	CLARINET	317	n/a	0	n/a	n/a	n/a	n/a	n/a
863773	WORD	wordpools/wasnorm_wordpool_less_exclusions.txt	LTP186	ltpFR	3	6	-1	ELECTRICIAN	521	n/a	-1	1	1.0	1.0	upper	../fonts/Verdana.ttf
867759	WORD	wordpools/wasnorm_wordpool_less_exclusions.txt	LTP186	ltpFR	3	6	-1	OLIVE	975	n/a	-1	1	1.0	1.0	upper	../fonts/Verdana.ttf
871854	WORD	wordpools/wasnorm_wordpool_less_exclusions.txt	LTP186	ltpFR	3	6	-1	CRAYON	401	n/a	-1	1	1.0	1.0	upper	../fonts/Verdana.ttf
875869	WORD	wordpools/wasnorm_wordpool_less_exclusions.txt	LTP186	ltpFR	3	6	-1	VINE	1568	n/a	-1	1	1.0	1.0	upper	../fonts/Verdana.ttf
880017	WORD	wordpools/wasnorm_wordpool_less_exclusions.txt	LTP186	ltpFR	3	6	-1	CORD	379	n/a	-1	1	1.0	1.0	upper	../fonts/Verdana.ttf
884065	WORD	wordpools/wasnorm_wordpool_less_exclusions.txt	LTP186	ltpFR	3	6	-1	TELEPHONE	1445	n/a	-1	1	1.0	1.0	upper	../fonts/Verdana.ttf
888265	WORD	wordpools/wasnorm_wordpool_less_exclusions.txt	LTP186	ltpFR	3	6	-1	FINGERNAIL	568	n/a	-1	1	1.0	1.0	upper	../fonts/Verdana.ttf
892146	WORD	wordpools/wasnorm_wordpool_less_exclusions.txt	LTP186	ltpFR	3	6	-1	CLIMBER	323	n/a	-1	1	1.0	1.0	upper	../fonts/Verdana.ttf
895994	WORD	wordpools/wasnorm_wordpool_less_exclusions.txt	LTP186	ltpFR	3	6	-1	SKI	1316	n/a	-1	1	1.0	1.0	upper	../fonts/Verdana.ttf
900042	WORD	wordpools/wasnorm_wordpool_less_exclusions.txt	LTP186	ltpFR	3	6	-1	HEART	697	n/a	-1	1	1.0	1.0	upper	../fonts/Verdana.ttf
904191	WORD	wordpools/wasnorm_wordpool_less_exclusions.txt	LTP186	ltpFR	3	6	-1	PUMP	1141	n/a	-1	1	1.0	1.0	upper	../fonts/Verdana.ttf
908273	WORD	wordpools/wasnorm_wordpool_less_exclusions.txt	LTP186	ltpFR	3	6	-1	CORPORATION	382	n/a	-1	1	1.0	1.0	upper	../fonts/Verdana.ttf
912188	WORD	wordpools/wasnorm_wordpool_less_exclusions.txt	LTP186	ltpFR	3	6	-1	SHORE	1291	n/a	-1	1	1.0	1.0	upper	../fonts/Verdana.ttf
916103	WORD	wordpools/wasnorm_wordpool_less_exclusions.txt	LTP186	ltpFR	3	6	-1	PIGMENT	1066	n/a	-1	1	1.0	1.0	upper	../fonts/Verdana.ttf
920302	WORD	wordpools/wasnorm_wordpool_less_exclusions.txt	LTP186	ltpFR	3	6	-1	COLLEGE	346	n/a	-1	1	1.0	1.0	upper	../fonts/Verdana.ttf
924183	WORD	wordpools/wasnorm_wordpool_less_exclusions.txt	LTP186	ltpFR	3	6	-1	MITTEN	902	n/a	-1	1	1.0	1.0	upper	../fonts/Verdana.ttf
929873	REC_START	n/a	LTP186	ltpFR	3	6	n/a	n/a	n/a	n/a	n/a	n/a	n/a	n/a	n/a	n/a
930262	REC_WORD	wordpools/wasnorm_wordpool_less_exclusions.txt	LTP186	ltpFR	3	6	-1	MITTEN	902	n/a	-1	n/a	n/a	n/a	n/a	n/a
931015	REC_WORD	wordpools/wasnorm_wordpool_less_exclusions.txt	LTP186	ltpFR	3	6	-1	COLLEGE	346	n/a	-1	n/a	n/a	n/a	n/a	n/a
931768	REC_WORD	wordpools/wasnorm_wordpool_less_exclusions.txt	LTP186	ltpFR	3	6	-1	CORPORATION	382	n/a	-1	n/a	n/a	n/a	n/a	n/a
932752	REC_WORD	wordpools/wasnorm_wordpool_less_exclusions.txt	LTP186	ltpFR	3	6	-1	SHORE	1291	n/a	-1	n/a	n/a	n/a	n/a	n/a
934812	REC_WORD	wordpools/wasnorm_wordpool_less_exclusions.txt	LTP186	ltpFR	3	6	-1	FINGERNAIL	568	n/a	-1	n/a	n/a	n/a	n/a	n/a
935934	REC_WORD	wordpools/wasnorm_wordpool_less_exclusions.txt	LTP186	ltpFR	3	6	-1	CLIMBER	323	n/a	-1	n/a	n/a	n/a	n/a	n/a
937036	REC_WORD	wordpools/wasnorm_wordpool_less_exclusions.txt	LTP186	ltpFR	3	6	-1	HEART	697	n/a	-1	n/a	n/a	n/a	n/a	n/a
938089	REC_WORD	wordpools/wasnorm_wordpool_less_exclusions.txt	LTP186	ltpFR	3	6	-1	PUMP	1141	n/a	-1	n/a	n/a	n/a	n/a	n/a
940219	REC_WORD	wordpools/wasnorm_wordpool_less_exclusions.txt	LTP186	ltpFR	3	6	-1	SKI	1316	n/a	-1	n/a	n/a	n/a	n/a	n/a
955440	REC_WORD	wordpools/wasnorm_wordpool_less_exclusions.txt	LTP186	ltpFR	3	6	-1	MITTEN	902	n/a	-1	n/a	n/a	n/a	n/a	n/a
959974	REC_WORD	wordpools/wasnorm_wordpool_less_exclusions.txt	LTP186	ltpFR	3	6	-1	TELEPHONE	1445	n/a	-1	n/a	n/a	n/a	n/a	n/a
961167	REC_WORD	wordpools/wasnorm_wordpool_less_exclusions.txt	LTP186	ltpFR	3	6	-1	CORD	379	n/a	-1	n/a	n/a	n/a	n/a	n/a
971832	REC_WORD	wordpools/wasnorm_wordpool_less_exclusions.txt	LTP186	ltpFR	3	6	-1	ELECTRICIAN	521	n/a	-1	n/a	n/a	n/a	n/a	n/a
978283	REC_WORD	wordpools/wasnorm_wordpool_less_exclusions.txt	LTP186	ltpFR	3	6	-1	VINE	1568	n/a	-1	n/a	n/a	n/a	n/a	n/a
984758	REC_WORD	wordpools/wasnorm_wordpool_less_exclusions.txt	LTP186	ltpFR	3	6	-1	CRAYON	401	n/a	-1	n/a	n/a	n/a	n/a	n/a
1013386	WORD	wordpools/wasnorm_wordpool_less_exclusions.txt	LTP186	ltpFR	3	7	1	CHAMPAGNE	278	n/a	0	0	0.5869140625	0.422607421875	upper	../fonts/amplitud.ttf
1017486	WORD	wordpools/wasnorm_wordpool_less_exclusions.txt	LTP186	ltpFR	3	7	1	TULIP	1517	n/a	1	0	0.5869140625	0.422607421875	upper	../fonts/amplitud.ttf
1021585	WORD	wordpools/wasnorm_wordpool_less_exclusions.txt	LTP186	ltpFR	3	7	1	HOE	711	n/a	0	0	0.5869140625	0.422607421875	upper	../fonts/amplitud.ttf
1025550	WORD	wordpools/wasnorm_wordpool_less_exclusions.txt	LTP186	ltpFR	3	7	1	LEVER	815	n/a	0	0	0.5869140625	0.422607421875	upper	../fonts/amplitud.ttf
1029538	WORD	wordpools/wasnorm_wordpool_less_exclusions.txt	LTP186	ltpFR	3	7	1	SILVERWARE	1308	n/a	0	0	0.5869140625	0.422607421875	upper	../fonts/amplitud.ttf
1033680	WORD	wordpools/wasnorm_wordpool_less_exclusions.txt	LTP186	ltpFR	3	7	1	PANTHER	1009	n/a	1	0	0.5869140625	0.422607421875	upper	../fonts/amplitud.ttf
1037628	WORD	wordpools/wasnorm_wordpool_less_exclusions.txt	LTP186	ltpFR	3	7	0	STRAW	1390	n/a	1	1	0.412841796875	0.57763671875	lower	../fonts/zerothre.ttf
1041694	WORD	wordpools/wasnorm_wordpool_less_exclusions.txt	LTP186	ltpFR	3	7	0	TUSK	1523	n/a	1	1	0.412841796875	0.57763671875	lower	../fonts/zerothre.ttf
1045644	WORD	wordpools/wasnorm_wordpool_less_exclusions.txt	LTP186	ltpFR	3	7	0	DOG	480	n/a	n/a	1	0.412841796875	0.57763671875	lower	../fonts/zerothre.ttf
1048674	SLOW_MSG	n/a	LTP186	ltpFR	3	7	n/a	n/a	n/a	n/a	n/a	n/a	n/a	n/a	n/a	n/a
1051363	WORD	wordpools/wasnorm_wordpool_less_exclusions.txt	LTP186	ltpFR	3	7	1	ASSISTANT	48	n/a	1	0	0.5869140625	0.422607421875	upper	../fonts/amplitud.ttf
1055194	WORD	wordpools/wasnorm_wordpool_less_exclusions.txt	LTP186	ltpFR	3	7	1	SUPERVISOR	1410	n/a	1	0	0.5869140625	0.422607421875	upper	../fonts/amplitud.ttf
1059310	WORD	wordpools/wasnorm_wordpool_less_exclusions.txt	LTP186	ltpFR	3	7	0	JUNGLE	764	n/a	0	1	0.412841796875	0.57763671875	lower	../fonts/zerothre.ttf
1063391	WORD	wordpools/wasnorm_wordpool_less_exclusions.txt	LTP186	ltpFR	3	7	0	CHIMPANZEE	302	n/a	1	1	0.412841796875	0.57763671875	lower	../fonts/zerothre.ttf
1067323	WORD	wordpools/wasnorm_wordpool_less_exclusions.txt	LTP186	ltpFR	3	7	0	NITROGEN	954	n/a	0	1	0.412841796875	0.57763671875	lower	../fonts/zerothre.ttf
1071221	WORD	wordpools/wasnorm_wordpool_less_exclusions.txt	LTP186	ltpFR	3	7	0	CLIPPERS	324	n/a	0	1	0.412841796875	0.57763671875	lower	../fonts/zerothre.ttf
1075052	WORD	wordpools/wasnorm_wordpool_less_exclusions.txt	LTP186	ltpFR	3	7	0	WINDSHIELD	1612	n/a	1	1	0.412841796875	0.57763671875	lower	../fonts/zerothre.ttf
1080941	REC_START	n/a	LTP186	ltpFR	3	7	n/a	n/a	n/a	n/a	n/a	n/a	n/a	n/a	n/a	n/a
1081155	REC_WORD	wordpools/wasnorm_wordpool_less_exclusions.txt	LTP186	ltpFR	3	7	0	NITROGEN	954	n/a	0	n/a	n/a	n/a	n/a	n/a
1081983	REC_WORD	wordpools/wasnorm_wordpool_less_exclusions.txt	LTP186	ltpFR	3	7	0	CLIPPERS	324	n/a	0	n/a	n/a	n/a	n/a	n/a
1082652	REC_WORD	wordpools/wasnorm_wordpool_less_exclusions.txt	LTP186	ltpFR	3	7	0	WINDSHIELD	1612	n/a	1	n/a	n/a	n/a	n/a	n/a
1088459	REC_WORD	wordpools/wasnorm_wordpool_less_exclusions.txt	LTP186	ltpFR	3	7	1	ASSISTANT	48	n/a	1	n/a	n/a	n/a	n/a	n/a
1089192	REC_WORD	wordpools/wasnorm_wordpool_less_exclusions.txt	LTP186	ltpFR	3	7	1	SUPERVISOR	1410	n/a	1	n/a	n/a	n/a	n/a	n/a
1093936	REC_WORD	wordpools/wasnorm_wordpool_less_exclusions.txt	LTP186	ltpFR	3	7	0	CHIMPANZEE	302	n/a	1	n/a	n/a	n/a	n/a	n/a
1106822	REC_WORD	wordpools/wasnorm_wordpool_less_exclusions.txt	LTP186	ltpFR	3	7	0	STRAW	1390	n/a	1	n/a	n/a	n/a	n/a	n/a
1111277	REC_WORD	wordpools/wasnorm_wordpool_less_exclusions.txt	LTP186	ltpFR	3	7	1	HOE	711	n/a	0	n/a	n/a	n/a	n/a	n/a
1169492	WORD	wordpools/wasnorm_wordpool_less_exclusions.txt	LTP186	ltpFR	3	8	-1	GRILL	661	n/a	-1	1	1.0	1.0	upper	../fonts/Verdana.ttf
1173474	WORD	wordpools/wasnorm_wordpool_less_exclusions.txt	LTP186	ltpFR	3	8	-1	VOLLEYBALL	1576	n/a	-1	1	1.0	1.0	upper	../fonts/Verdana.ttf
1177539	WORD	wordpools/wasnorm_wordpool_less_exclusions.txt	LTP186	ltpFR	3	8	-1	SENATOR	1268	n/a	-1	1	1.0	1.0	upper	../fonts/Verdana.ttf
1181572	WORD	wordpools/wasnorm_wordpool_less_exclusions.txt	LTP186	ltpFR	3	8	-1	MARROW	872	n/a	-1	1	1.0	1.0	upper	../fonts/Verdana.ttf
1185519	WORD	wordpools/wasnorm_wordpool_less_exclusions.txt	LTP186	ltpFR	3	8	-1	SAND	1230	n/a	-1	1	1.0	1.0	upper	../fonts/Verdana.ttf
1189421	WORD	wordpools/wasnorm_wordpool_less_exclusions.txt	LTP186	ltpFR	3	8	-1	CAFE	216	n/a	-1	1	1.0	1.0	upper	../fonts/Verdana.ttf
1193516	WORD	wordpools/wasnorm_wordpool_less_exclusions.txt	LTP186	ltpFR	3	8	-1	FEAST	556	n/a	-1	1	1.0	1.0	upper	../fonts/Verdana.ttf
1197598	WORD	wordpools/wasnorm_wordpool_less_exclusions.txt	LTP186	ltpFR	3	8	-1	HIKER	708	n/a	-1	1	1.0	1.0	upper	../fonts/Verdana.ttf
1201431	WORD	wordpools/wasnorm_wordpool_less_exclusions.txt	LTP186	ltpFR	3	8	-1	RAM	1165	n/a	-1	1	1.0	1.0	upper	../fonts/Verdana.ttf
1205411	WORD	wordpools/wasnorm_wordpool_less_exclusions.txt	LTP186	ltpFR	3	8	-1	LINT	826	n/a	-1	1	1.0	1.0	upper	../fonts/Verdana.ttf
1209375	WORD	wordpools/wasnorm_wordpool_less_exclusions.txt	LTP186	ltpFR	3	8	-1	RACK	1154	n/a	-1	1	1.0	1.0	upper	../fonts/Verdana.ttf
1213558	WORD	wordpools/wasnorm_wordpool_less_exclusions.txt	LTP186	ltpFR	3	8	-1	VALLEY	1545	n/a	-1	1	1.0	1.0	upper	../fonts/Verdana.ttf
1217623	WORD	wordpools/wasnorm_wordpool_less_exclusions.txt	LTP186	ltpFR	3	8	-1	WAX	1597	n/a	-1	1	1.0	1.0	upper	../fonts/Verdana.ttf
1221840	WORD	wordpools/wasnorm_wordpool_less_exclusions.txt	LTP186	ltpFR	3	8	-1	WHISKERS	1605	n/a	-1	1	1.0	1.0	upper	../fonts/Verdana.ttf
1225754	WORD	wordpools/wasnorm_wordpool_less_exclusions.txt	LTP186	ltpFR	3	8	-1	SCENERY	1247	n/a	-1	1	1.0	1.0	upper	../fonts/Verdana.ttf
1229836	WORD	wordpools/wasnorm_wordpool_less_exclusions.txt	LTP186	ltpFR	3	8	-1	SEED	1266	n/a	-1	1	1.0	1.0	upper	../fonts/Verdana.ttf
1235642	REC_START	n/a	LTP186	ltpFR	3	8	n/a	n/a	n/a	n/a	n/a	n/a	n/a	n/a	n/a	n/a
1236176	REC_WORD	wordpools/wasnorm_wordpool_less_exclusions.txt	LTP186	ltpFR	3	8	-1	SCENERY	1247	n/a	-1	n/a	n/a	n/a	n/a	n/a
1237054	REC_WORD	wordpools/wasnorm_wordpool_less_exclusions.txt	LTP186	ltpFR	3	8	n/a	SCENE	-1	n/a	n/a	n/a	n/a	n/a	n/a	n/a
1238361	REC_WORD	wordpools/wasnorm_wordpool_less_exclusions.txt	LTP186	ltpFR	3	8	-1	WAX	1597	n/a	-1	n/a	n/a	n/a	n/a	n/a
1240062	REC_WORD	wordpools/wasnorm_wordpool_less_exclusions.txt	LTP186	ltpFR	3	8	-1	VOLLEYBALL	1576	n/a	-1	n/a	n/a	n/a	n/a	n/a
1245079	REC_WORD	wordpools/wasnorm_wordpool_less_exclusions.txt	LTP186	ltpFR	3	8	-1	LINT	826	n/a	-1	n/a	n/a	n/a	n/a	n/a
1254863	REC_WORD	wordpools/wasnorm_wordpool_less_exclusions.txt	LTP186	ltpFR	3	8	-1	VALLEY	1545	n/a	-1	n/a	n/a	n/a	n/a	n/a
1256385	REC_WORD	wordpools/wasnorm_wordpool_less_exclusions.txt	LTP186	ltpFR	3	8	-1	RAM	1165	n/a	-1	n/a	n/a	n/a	n/a	n/a
1275621	REC_WORD	wordpools/wasnorm_wordpool_less_exclusions.txt	LTP186	ltpFR	3	8	-1	SENATOR	1268	n/a	-1	n/a	n/a	n/a	n/a	n/a
1281976	REC_WORD	wordpools/wasnorm_wordpool_less_exclusions.txt	LTP186	ltpFR	3	8	-1	MARROW	872	n/a	-1	n/a	n/a	n/a	n/a	n/a
1315110	WORD	wordpools/wasnorm_wordpool_less_exclusions.txt	LTP186	ltpFR	3	9	0	MOVIE	927	n/a	1	1	0.412841796875	0.57763671875	lower	../fonts/zerothre.ttf
1319239	WORD	wordpools/wasnorm_wordpool_less_exclusions.txt	LTP186	ltpFR	3	9	0	RANCH	1166	n/a	1	1	0.412841796875	0.57763671875	lower	../fonts/zerothre.ttf
1323287	WORD	wordpools/wasnorm_wordpool_less_exclusions.txt	LTP186	ltpFR	3	9	0	OPERATOR	979	n/a	1	1	0.412841796875	0.57763671875	lower	../fonts/zerothre.ttf
1327253	WORD	wordpools/wasnorm_wordpool_less_exclusions.txt	LTP186	ltpFR	3	9	0	DRESSER	496	n/a	1	1	0.412841796875	0.57763671875	lower	../fonts/zerothre.ttf
1331234	WORD	wordpools/wasnorm_wordpool_less_exclusions.txt	LTP186	ltpFR	3	9	0	FILM	565	n/a	1	1	0.412841796875	0.57763671875	lower	../fonts/zerothre.ttf
1335400	WORD	wordpools/wasnorm_wordpool_less_exclusions.txt	LTP186	ltpFR	3	9	0	OPERA	978	n/a	1	1	0.412841796875	0.57763671875	lower	../fonts/zerothre.ttf
1339281	WORD	wordpools/wasnorm_wordpool_less_exclusions.txt	LTP186	ltpFR	3	9	1	MOP	916	n/a	0	0	0.5869140625	0.422607421875	upper	../fonts/amplitud.ttf
1343263	WORD	wordpools/wasnorm_wordpool_less_exclusions.txt	LTP186	ltpFR	3	9	1	DIRT	472	n/a	0	0	0.5869140625	0.422607421875	upper	../fonts/amplitud.ttf
1347113	WORD	wordpools/wasnorm_wordpool_less_exclusions.txt	LTP186	ltpFR	3	9	1	THIMBLE	1458	n/a	0	0	0.5869140625	0.422607421875	upper	../fonts/amplitud.ttf
1351008	WORD	wordpools/wasnorm_wordpool_less_exclusions.txt	LTP186	ltpFR	3	9	1	THREAD	1460	n/a	0	0	0.5869140625	0.422607421875	upper	../fonts/amplitud.ttf
1354923	WORD	wordpools/wasnorm_wordpool_less_exclusions.txt	LTP186	ltpFR	3	9	0	MAJOR	859	n/a	1	1	0.412841796875	0.57763671875	lower	../fonts/zerothre.ttf
1359005	WORD	wordpools/wasnorm_wordpool_less_exclusions.txt	LTP186	ltpFR	3	9	0	STEREO	1378	n/a	0	1	0.412841796875	0.57763671875	lower	../fonts/zerothre.ttf
1363054	WORD	wordpools/wasnorm_wordpool_less_exclusions.txt	LTP186	ltpFR	3	9	1	MIRROR	899	n/a	0	0	0.5869140625	0.422607421875	upper	../fonts/amplitud.ttf
1366902	WORD	wordpools/wasnorm_wordpool_less_exclusions.txt	LTP186	ltpFR	3	9	1	SERPENT	1270	n/a	1	0	0.5869140625	0.422607421875	upper	../fonts/amplitud.ttf
1370784	WORD	wordpools/wasnorm_wordpool_less_exclusions.txt	LTP186	ltpFR	3	9	1	WORM	1623	n/a	1	0	0.5869140625	0.422607421875	upper	../fonts/amplitud.ttf
1374789	WORD	wordpools/wasnorm_wordpool_less_exclusions.txt	LTP186	ltpFR	3	9	1	COW	393	n/a	1	0	0.5869140625	0.422607421875	upper	../fonts/amplitud.ttf
1380521	REC_START	n/a	LTP186	ltpFR	3	9	n/a	n/a	n/a	n/a	n/a	n/a	n/a	n/a	n/a	n/a
1382052	REC_WORD	wordpools/wasnorm_wordpool_less_exclusions.txt	LTP186	ltpFR	3	9	1	SERPENT	1270	n/a	1	n/a	n/a	n/a	n/a	n/a
1382835	REC_WORD	wordpools/wasnorm_wordpool_less_exclusions.txt	LTP186	ltpFR	3	9	1	WORM	1623	n/a	1	n/a	n/a	n/a	n/a	n/a
1384207	REC_WORD	wordpools/wasnorm_wordpool_less_exclusions.txt	LTP186	ltpFR	3	9	1	COW	393	n/a	1	n/a	n/a	n/a	n/a	n/a
1385624	REC_WORD	wordpools/wasnorm_wordpool_less_exclusions.txt	LTP186	ltpFR	3	9	1	THIMBLE	1458	n/a	0	n/a	n/a	n/a	n/a	n/a
1386607	REC_WORD	wordpools/wasnorm_wordpool_less_exclusions.txt	LTP186	ltpFR	3	9	n/a	NEEDLE	941	n/a	n/a	n/a	n/a	n/a	n/a	n/a
1387939	REC_WORD	wordpools/wasnorm_wordpool_less_exclusions.txt	LTP186	ltpFR	3	9	0	OPERATOR	979	n/a	1	n/a	n/a	n/a	n/a	n/a
1391246	REC_WORD	wordpools/wasnorm_wordpool_less_exclusions.txt	LTP186	ltpFR	3	9	0	FILM	565	n/a	1	n/a	n/a	n/a	n/a	n/a
1392289	REC_WORD	wordpools/wasnorm_wordpool_less_exclusions.txt	LTP186	ltpFR	3	9	0	MOVIE	927	n/a	1	n/a	n/a	n/a	n/a	n/a
1405459	REC_WORD	wordpools/wasnorm_wordpool_less_exclusions.txt	LTP186	ltpFR	3	9	n/a	BRANCH	168	n/a	n/a	n/a	n/a	n/a	n/a	n/a
1425937	REC_WORD	wordpools/wasnorm_wordpool_less_exclusions.txt	LTP186	ltpFR	3	9	1	DIRT	472	n/a	0	n/a	n/a	n/a	n/a	n/a
1469107	WORD	wordpools/wasnorm_wordpool_less_exclusions.txt	LTP186	ltpFR	3	10	0	HOSTESS	723	n/a	1	1	0.412841796875	0.57763671875	lower	../fonts/zerothre.ttf
1473102	WORD	wordpools/wasnorm_wordpool_less_exclusions.txt	LTP186	ltpFR	3	10	0	SERVER	1272	n/a	1	1	0.412841796875	0.57763671875	lower	../fonts/zerothre.ttf
1477000	WORD	wordpools/wasnorm_wordpool_less_exclusions.txt	LTP186	ltpFR	3	10	1	GUARD	667	n/a	1	0	0.5869140625	0.422607421875	upper	../fonts/amplitud.ttf
1480899	WORD	wordpools/wasnorm_wordpool_less_exclusions.txt	LTP186	ltpFR	3	10	1	MARGARINE	868	n/a	0	0	0.5869140625	0.422607421875	upper	../fonts/amplitud.ttf
1484730	WORD	wordpools/wasnorm_wordpool_less_exclusions.txt	LTP186	ltpFR	3	10	1	JURY	766	n/a	1	0	0.5869140625	0.422607421875	upper	../fonts/amplitud.ttf
1488801	WORD	wordpools/wasnorm_wordpool_less_exclusions.txt	LTP186	ltpFR	3	10	1	DISH	474	n/a	0	0	0.5869140625	0.422607421875	upper	../fonts/amplitud.ttf
1492844	WORD	wordpools/wasnorm_wordpool_less_exclusions.txt	LTP186	ltpFR	3	10	1	ATHLETE	52	n/a	1	0	0.5869140625	0.422607421875	upper	../fonts/amplitud.ttf
1496809	WORD	wordpools/wasnorm_wordpool_less_exclusions.txt	LTP186	ltpFR	3	10	0	BLUEJAY	141	n/a	1	1	0.412841796875	0.57763671875	lower	../fonts/zerothre.ttf
1500757	WORD	wordpools/wasnorm_wordpool_less_exclusions.txt	LTP186	ltpFR	3	10	0	NECK	939	n/a	1	1	0.412841796875	0.57763671875	lower	../fonts/zerothre.ttf
1504655	WORD	wordpools/wasnorm_wordpool_less_exclusions.txt	LTP186	ltpFR	3	10	0	AGENT	10	n/a	1	1	0.412841796875	0.57763671875	lower	../fonts/zerothre.ttf
1508804	WORD	wordpools/wasnorm_wordpool_less_exclusions.txt	LTP186	ltpFR	3	10	0	CAGE	218	n/a	1	1	0.412841796875	0.57763671875	lower	../fonts/zerothre.ttf
1512689	WORD	wordpools/wasnorm_wordpool_less_exclusions.txt	LTP186	ltpFR	3	10	1	STADIUM	1364	n/a	1	0	0.5869140625	0.422607421875	upper	../fonts/amplitud.ttf
1516851	WORD	wordpools/wasnorm_wordpool_less_exclusions.txt	LTP186	ltpFR	3	10	1	FUR	615	n/a	0	0	0.5869140625	0.422607421875	upper	../fonts/amplitud.ttf
1521019	WORD	wordpools/wasnorm_wordpool_less_exclusions.txt	LTP186	ltpFR	3	10	1	VET	1560	n/a	1	0	0.5869140625	0.422607421875	upper	../fonts/amplitud.ttf
1525148	WORD	wordpools/wasnorm_wordpool_less_exclusions.txt	LTP186	ltpFR	3	10	0	BOULDER	155	n/a	1	1	0.412841796875	0.57763671875	lower	../fonts/zerothre.ttf
1529247	WORD	wordpools/wasnorm_wordpool_less_exclusions.txt	LTP186	ltpFR	3	10	0	MARBLE	867	n/a	0	1	0.412841796875	0.57763671875	lower	../fonts/zerothre.ttf
1535103	REC_START	n/a	LTP186	ltpFR	3	10	n/a	n/a	n/a	n/a	n/a	n/a	n/a	n/a	n/a	n/a
1535307	REC_WORD	wordpools/wasnorm_wordpool_less_exclusions.txt	LTP186	ltpFR	3	10	0	BOULDER	155	n/a	1	n/a	n/a	n/a	n/a	n/a
1536050	REC_WORD	wordpools/wasnorm_wordpool_less_exclusions.txt	LTP186	ltpFR	3	10	0	MARBLE	867	n/a	0	n/a	n/a	n/a	n/a	n/a
1536658	REC_WORD	wordpools/wasnorm_wordpool_less_exclusions.txt	LTP186	ltpFR	3	10	1	VET	1560	n/a	1	n/a	n/a	n/a	n/a	n/a
1537547	REC_WORD	wordpools/wasnorm_wordpool_less_exclusions.txt	LTP186	ltpFR	3	10	1	MARGARINE	868	n/a	0	n/a	n/a	n/a	n/a	n/a
1538729	REC_WORD	wordpools/wasnorm_wordpool_less_exclusions.txt	LTP186	ltpFR	3	10	1	DISH	474	n/a	0	n/a	n/a	n/a	n/a	n/a
1541698	REC_WORD	wordpools/wasnorm_wordpool_less_exclusions.txt	LTP186	ltpFR	3	10	1	ATHLETE	52	n/a	1	n/a	n/a	n/a	n/a	n/a
1542431	REC_WORD	wordpools/wasnorm_wordpool_less_exclusions.txt	LTP186	ltpFR	3	10	1	GUARD	667	n/a	1	n/a	n/a	n/a	n/a	n/a
1543085	REC_WORD	wordpools/wasnorm_wordpool_less_exclusions.txt	LTP186	ltpFR	3	10	0	AGENT	10	n/a	1	n/a	n/a	n/a	n/a	n/a
1548976	REC_WORD	wordpools/wasnorm_wordpool_less_exclusions.txt	LTP186	ltpFR	3	10	0	NECK	939	n/a	1	n/a	n/a	n/a	n/a	n/a
1549710	REC_WORD	wordpools/wasnorm_wordpool_less_exclusions.txt	LTP186	ltpFR	3	10	0	BLUEJAY	141	n/a	1	n/a	n/a	n/a	n/a	n/a
1569415	REC_WORD	wordpools/wasnorm_wordpool_less_exclusions.txt	LTP186	ltpFR	3	10	0	CAGE	218	n/a	1	n/a	n/a	n/a	n/a	n/a
1619538	WORD	wordpools/wasnorm_wordpool_less_exclusions.txt	LTP186	ltpFR	3	11	-1	POOL	1103	n/a	-1	1	1.0	1.0	upper	../fonts/Verdana.ttf
1623587	WORD	wordpools/wasnorm_wordpool_less_exclusions.txt	LTP186	ltpFR	3	11	-1	HOSE	720	n/a	-1	1	1.0	1.0	upper	../fonts/Verdana.ttf
1627719	WORD	wordpools/wasnorm_wordpool_less_exclusions.txt	LTP186	ltpFR	3	11	-1	SHED	1277	n/a	-1	1	1.0	1.0	upper	../fonts/Verdana.ttf
1631583	WORD	wordpools/wasnorm_wordpool_less_exclusions.txt	LTP186	ltpFR	3	11	-1	FACTORY	548	n/a	-1	1	1.0	1.0	upper	../fonts/Verdana.ttf
1635632	WORD	wordpools/wasnorm_wordpool_less_exclusions.txt	LTP186	ltpFR	3	11	-1	SLIDE	1326	n/a	-1	1	1.0	1.0	upper	../fonts/Verdana.ttf
1639547	WORD	wordpools/wasnorm_wordpool_less_exclusions.txt	LTP186	ltpFR	3	11	-1	CORAL	378	n/a	-1	1	1.0	1.0	upper	../fonts/Verdana.ttf
1643714	WORD	wordpools/wasnorm_wordpool_less_exclusions.txt	LTP186	ltpFR	3	11	-1	ROOM	1206	n/a	-1	1	1.0	1.0	upper	../fonts/Verdana.ttf
1647711	WORD	wordpools/wasnorm_wordpool_less_exclusions.txt	LTP186	ltpFR	3	11	-1	TRACTOR	1493	n/a	-1	1	1.0	1.0	upper	../fonts/Verdana.ttf
1651592	WORD	wordpools/wasnorm_wordpool_less_exclusions.txt	LTP186	ltpFR	3	11	-1	MECHANIC	884	n/a	-1	1	1.0	1.0	upper	../fonts/Verdana.ttf
1655423	WORD	wordpools/wasnorm_wordpool_less_exclusions.txt	LTP186	ltpFR	3	11	-1	DRIVER	499	n/a	-1	1	1.0	1.0	upper	../fonts/Verdana.ttf
1659253	WORD	wordpools/wasnorm_wordpool_less_exclusions.txt	LTP186	ltpFR	3	11	-1	CONTINENT	367	n/a	-1	1	1.0	1.0	upper	../fonts/Verdana.ttf
1663223	WORD	wordpools/wasnorm_wordpool_less_exclusions.txt	LTP186	ltpFR	3	11	-1	BELLY	119	n/a	-1	1	1.0	1.0	upper	../fonts/Verdana.ttf
1667135	WORD	wordpools/wasnorm_wordpool_less_exclusions.txt	LTP186	ltpFR	3	11	-1	CHAMPION	279	n/a	-1	1	1.0	1.0	upper	../fonts/Verdana.ttf
1670998	WORD	wordpools/wasnorm_wordpool_less_exclusions.txt	LTP186	ltpFR	3	11	-1	WAVE	1596	n/a	-1	1	1.0	1.0	upper	../fonts/Verdana.ttf
1675063	WORD	wordpools/wasnorm_wordpool_less_exclusions.txt	LTP186	ltpFR	3	11	-1	DORM	488	n/a	-1	1	1.0	1.0	upper	../fonts/Verdana.ttf
1678927	WORD	wordpools/wasnorm_wordpool_less_exclusions.txt	LTP186	ltpFR	3	11	-1	SUITCASE	1403	n/a	-1	1	1.0	1.0	upper	../fonts/Verdana.ttf
1684885	REC_START	n/a	LTP186	ltpFR	3	11	n/a	n/a	n/a	n/a	n/a	n/a	n/a	n/a	n/a	n/a
1685204	REC_WORD	wordpools/wasnorm_wordpool_less_exclusions.txt	LTP186	ltpFR	3	11	-1	CHAMPION	279	n/a	-1	n/a	n/a	n/a	n/a	n/a
1685931	REC_WORD	wordpools/wasnorm_wordpool_less_exclusions.txt	LTP186	ltpFR	3	11	-1	WAVE	1596	n/a	-1	n/a	n/a	n/a	n/a	n/a
1686566	REC_WORD	wordpools/wasnorm_wordpool_less_exclusions.txt	LTP186	ltpFR	3	11	-1	DORM	488	n/a	-1	n/a	n/a	n/a	n/a	n/a
1687239	REC_WORD	wordpools/wasnorm_wordpool_less_exclusions.txt	LTP186	ltpFR	3	11	-1	SUITCASE	1403	n/a	-1	n/a	n/a	n/a	n/a	n/a
1694268	REC_WORD	wordpools/wasnorm_wordpool_less_exclusions.txt	LTP186	ltpFR	3	11	-1	MECHANIC	884	n/a	-1	n/a	n/a	n/a	n/a	n/a
1695486	REC_WORD	wordpools/wasnorm_wordpool_less_exclusions.txt	LTP186	ltpFR	3	11	-1	TRACTOR	1493	n/a	-1	n/a	n/a	n/a	n/a	n/a
1708491	REC_WORD	wordpools/wasnorm_wordpool_less_exclusions.txt	LTP186	ltpFR	3	11	-1	TRACTOR	1493	n/a	-1	n/a	n/a	n/a	n/a	n/a
1709264	REC_WORD	wordpools/wasnorm_wordpool_less_exclusions.txt	LTP186	ltpFR	3	11	-1	HOSE	720	n/a	-1	n/a	n/a	n/a	n/a	n/a
1710287	REC_WORD	wordpools/wasnorm_wordpool_less_exclusions.txt	LTP186	ltpFR	3	11	-1	SHED	1277	n/a	-1	n/a	n/a	n/a	n/a	n/a
1711105	REC_WORD	wordpools/wasnorm_wordpool_less_exclusions.txt	LTP186	ltpFR	3	11	-1	ROOM	1206	n/a	-1	n/a	n/a	n/a	n/a	n/a
1745233	REC_WORD	wordpools/wasnorm_wordpool_less_exclusions.txt	LTP186	ltpFR	3	11	-1	FACTORY	548	n/a	-1	n/a	n/a	n/a	n/a	n/a
1835786	WORD	wordpools/wasnorm_wordpool_less_exclusions.txt	LTP186	ltpFR	3	12	-1	HELICOPTER	701	n/a	-1	1	1.0	1.0	upper	../fonts/Verdana.ttf
1839785	WORD	wordpools/wasnorm_wordpool_less_exclusions.txt	LTP186	ltpFR	3	12	-1	FLY	586	n/a	-1	1	1.0	1.0	upper	../fonts/Verdana.ttf
1843949	WORD	wordpools/wasnorm_wordpool_less_exclusions.txt	LTP186	ltpFR	3	12	-1	GARDEN	623	n/a	-1	1	1.0	1.0	upper	../fonts/Verdana.ttf
1847832	WORD	wordpools/wasnorm_wordpool_less_exclusions.txt	LTP186	ltpFR	3	12	-1	WEED	1599	n/a	-1	1	1.0	1.0	upper	../fonts/Verdana.ttf
1851647	WORD	wordpools/wasnorm_wordpool_less_exclusions.txt	LTP186	ltpFR	3	12	-1	TOASTER	1472	n/a	-1	1	1.0	1.0	upper	../fonts/Verdana.ttf
1855829	WORD	wordpools/wasnorm_wordpool_less_exclusions.txt	LTP186	ltpFR	3	12	-1	CRAB	397	n/a	-1	1	1.0	1.0	upper	../fonts/Verdana.ttf
1859660	WORD	wordpools/wasnorm_wordpool_less_exclusions.txt	LTP186	ltpFR	3	12	-1	KEEPER	769	n/a	-1	1	1.0	1.0	upper	../fonts/Verdana.ttf
1863675	WORD	wordpools/wasnorm_wordpool_less_exclusions.txt	LTP186	ltpFR	3	12	-1	BUILDER	190	n/a	-1	1	1.0	1.0	upper	../fonts/Verdana.ttf
1867523	WORD	wordpools/wasnorm_wordpool_less_exclusions.txt	LTP186	ltpFR	3	12	-1	CROSS	413	n/a	-1	1	1.0	1.0	upper	../fonts/Verdana.ttf
1871489	WORD	wordpools/wasnorm_wordpool_less_exclusions.txt	LTP186	ltpFR	3	12	-1	PICKLE	1059	n/a	-1	1	1.0	1.0	upper	../fonts/Verdana.ttf
1875559	WORD	wordpools/wasnorm_wordpool_less_exclusions.txt	LTP186	ltpFR	3	12	-1	SPATULA	1348	n/a	-1	1	1.0	1.0	upper	../fonts/Verdana.ttf
1879585	WORD	wordpools/wasnorm_wordpool_less_exclusions.txt	LTP186	ltpFR	3	12	-1	SHRIMP	1297	n/a	-1	1	1.0	1.0	upper	../fonts/Verdana.ttf
1883583	WORD	wordpools/wasnorm_wordpool_less_exclusions.txt	LTP186	ltpFR	3	12	-1	BEAN	105	n/a	-1	1	1.0	1.0	upper	../fonts/Verdana.ttf
1887515	WORD	wordpools/wasnorm_wordpool_less_exclusions.txt	LTP186	ltpFR	3	12	-1	GENERAL	630	n/a	-1	1	1.0	1.0	upper	../fonts/Verdana.ttf
1891582	WORD	wordpools/wasnorm_wordpool_less_exclusions.txt	LTP186	ltpFR	3	12	-1	FAMILY	550	n/a	-1	1	1.0	1.0	upper	../fonts/Verdana.ttf
1895796	WORD	wordpools/wasnorm_wordpool_less_exclusions.txt	LTP186	ltpFR	3	12	-1	NECKLACE	940	n/a	-1	1	1.0	1.0	upper	../fonts/Verdana.ttf
1901769	REC_START	n/a	LTP186	ltpFR	3	12	n/a	n/a	n/a	n/a	n/a	n/a	n/a	n/a	n/a	n/a
1903141	REC_WORD	wordpools/wasnorm_wordpool_less_exclusions.txt	LTP186	ltpFR	3	12	-1	BEAN	105	n/a	-1	n/a	n/a	n/a	n/a	n/a
1903764	REC_WORD	wordpools/wasnorm_wordpool_less_exclusions.txt	LTP186	ltpFR	3	12	-1	GENERAL	630	n/a	-1	n/a	n/a	n/a	n/a	n/a
1904587	REC_WORD	wordpools/wasnorm_wordpool_less_exclusions.txt	LTP186	ltpFR	3	12	-1	NECKLACE	940	n/a	-1	n/a	n/a	n/a	n/a	n/a
1906663	REC_WORD	wordpools/wasnorm_wordpool_less_exclusions.txt	LTP186	ltpFR	3	12	-1	GARDEN	623	n/a	-1	n/a	n/a	n/a	n/a	n/a
1907561	REC_WORD	wordpools/wasnorm_wordpool_less_exclusions.txt	LTP186	ltpFR	3	12	-1	WEED	1599	n/a	-1	n/a	n/a	n/a	n/a	n/a
1909965	REC_WORD	wordpools/wasnorm_wordpool_less_exclusions.txt	LTP186	ltpFR	3	12	-1	FAMILY	550	n/a	-1	n/a	n/a	n/a	n/a	n/a
1920202	REC_WORD	wordpools/wasnorm_wordpool_less_exclusions.txt	LTP186	ltpFR	3	12	-1	FLY	586	n/a	-1	n/a	n/a	n/a	n/a	n/a
1936470	REC_WORD	wordpools/wasnorm_wordpool_less_exclusions.txt	LTP186	ltpFR	3	12	-1	KEEPER	769	n/a	-1	n/a	n/a	n/a	n/a	n/a
1962501	REC_WORD	wordpools/wasnorm_wordpool_less_exclusions.txt	LTP186	ltpFR	3	12	-1	GENERAL	630	n/a	-1	n/a	n/a	n/a	n/a	n/a
1965224	REC_WORD	wordpools/wasnorm_wordpool_less_exclusions.txt	LTP186	ltpFR	3	12	-1	BEAN	105	n/a	-1	n/a	n/a	n/a	n/a	n/a
1977386	REST_REWET	n/a	LTP186	ltpFR	3	12	n/a	n/a	n/a	n/a	n/a	n/a	n/a	n/a	n/a	n/a
2332942	WORD	wordpools/wasnorm_wordpool_less_exclusions.txt	LTP186	ltpFR	3	13	1	DANDELION	438	n/a	1	0	0.5869140625	0.422607421875	upper	../fonts/amplitud.ttf
2336960	WORD	wordpools/wasnorm_wordpool_less_exclusions.txt	LTP186	ltpFR	3	13	1	DOCUMENT	479	n/a	0	0	0.5869140625	0.422607421875	upper	../fonts/amplitud.ttf
2340823	WORD	wordpools/wasnorm_wordpool_less_exclusions.txt	LTP186	ltpFR	3	13	0	CHART	282	n/a	1	1	0.412841796875	0.57763671875	lower	../fonts/zerothre.ttf
2344721	WORD	wordpools/wasnorm_wordpool_less_exclusions.txt	LTP186	ltpFR	3	13	0	HAMMER	680	n/a	0	1	0.412841796875	0.57763671875	lower	../fonts/zerothre.ttf
2348572	WORD	wordpools/wasnorm_wordpool_less_exclusions.txt	LTP186	ltpFR	3	13	0	THUMB	1462	n/a	0	1	0.412841796875	0.57763671875	lower	../fonts/zerothre.ttf
2352416	WORD	wordpools/wasnorm_wordpool_less_exclusions.txt	LTP186	ltpFR	3	13	0	PLAYGROUND	1087	n/a	1	1	0.412841796875	0.57763671875	lower	../fonts/zerothre.ttf
2356313	WORD	wordpools/wasnorm_wordpool_less_exclusions.txt	LTP186	ltpFR	3	13	0	NAVIGATOR	938	n/a	1	1	0.412841796875	0.57763671875	lower	../fonts/zerothre.ttf
2360329	WORD	wordpools/wasnorm_wordpool_less_exclusions.txt	LTP186	ltpFR	3	13	0	SAW	1239	n/a	0	1	0.412841796875	0.57763671875	lower	../fonts/zerothre.ttf
2364512	WORD	wordpools/wasnorm_wordpool_less_exclusions.txt	LTP186	ltpFR	3	13	1	DEPUTY	450	n/a	1	0	0.5869140625	0.422607421875	upper	../fonts/amplitud.ttf
2368678	WORD	wordpools/wasnorm_wordpool_less_exclusions.txt	LTP186	ltpFR	3	13	1	ANCHOR	21	n/a	0	0	0.5869140625	0.422607421875	upper	../fonts/amplitud.ttf
2372526	WORD	wordpools/wasnorm_wordpool_less_exclusions.txt	LTP186	ltpFR	3	13	0	THESAURUS	1454	n/a	1	1	0.412841796875	0.57763671875	lower	../fonts/zerothre.ttf
2376608	WORD	wordpools/wasnorm_wordpool_less_exclusions.txt	LTP186	ltpFR	3	13	0	DICTIONARY	463	n/a	1	1	0.412841796875	0.57763671875	lower	../fonts/zerothre.ttf
2380475	WORD	wordpools/wasnorm_wordpool_less_exclusions.txt	LTP186	ltpFR	3	13	1	BEAD	103	n/a	0	0	0.5869140625	0.422607421875	upper	../fonts/amplitud.ttf
2384454	WORD	wordpools/wasnorm_wordpool_less_exclusions.txt	LTP186	ltpFR	3	13	1	BLOSSOM	138	n/a	1	0	0.5869140625	0.422607421875	upper	../fonts/amplitud.ttf
2388401	WORD	wordpools/wasnorm_wordpool_less_exclusions.txt	LTP186	ltpFR	3	13	1	VOLUNTEER	1577	n/a	1	0	0.5869140625	0.422607421875	upper	../fonts/amplitud.ttf
2392318	WORD	wordpools/wasnorm_wordpool_less_exclusions.txt	LTP186	ltpFR	3	13	1	CHICKEN	297	n/a	1	0	0.5869140625	0.422607421875	upper	../fonts/amplitud.ttf
2398205	REC_START	n/a	LTP186	ltpFR	3	13	n/a	n/a	n/a	n/a	n/a	n/a	n/a	n/a	n/a	n/a
2398594	REC_WORD	wordpools/wasnorm_wordpool_less_exclusions.txt	LTP186	ltpFR	3	13	1	BEAD	103	n/a	0	n/a	n/a	n/a	n/a	n/a
2399302	REC_WORD	wordpools/wasnorm_wordpool_less_exclusions.txt	LTP186	ltpFR	3	13	1	BLOSSOM	138	n/a	1	n/a	n/a	n/a	n/a	n/a
2400115	REC_WORD	wordpools/wasnorm_wordpool_less_exclusions.txt	LTP186	ltpFR	3	13	1	VOLUNTEER	1577	n/a	1	n/a	n/a	n/a	n/a	n/a
2401113	REC_WORD	wordpools/wasnorm_wordpool_less_exclusions.txt	LTP186	ltpFR	3	13	1	CHICKEN	297	n/a	1	n/a	n/a	n/a	n/a	n/a
2403198	REC_WORD	wordpools/wasnorm_wordpool_less_exclusions.txt	LTP186	ltpFR	3	13	1	DEPUTY	450	n/a	1	n/a	n/a	n/a	n/a	n/a
2404385	REC_WORD	wordpools/wasnorm_wordpool_less_exclusions.txt	LTP186	ltpFR	3	13	0	DICTIONARY	463	n/a	1	n/a	n/a	n/a	n/a	n/a
2405244	REC_WORD	wordpools/wasnorm_wordpool_less_exclusions.txt	LTP186	ltpFR	3	13	0	THESAURUS	1454	n/a	1	n/a	n/a	n/a	n/a	n/a
2415171	REC_WORD	wordpools/wasnorm_wordpool_less_exclusions.txt	LTP186	ltpFR	3	13	0	CHART	282	n/a	1	n/a	n/a	n/a	n/a	n/a
2416488	REC_WORD	wordpools/wasnorm_wordpool_less_exclusions.txt	LTP186	ltpFR	3	13	0	NAVIGATOR	938	n/a	1	n/a	n/a	n/a	n/a	n/a
2431928	REC_WORD	wordpools/wasnorm_wordpool_less_exclusions.txt	LTP186	ltpFR	3	13	0	SAW	1239	n/a	0	n/a	n/a	n/a	n/a	n/a
2434777	REC_WORD	wordpools/wasnorm_wordpool_less_exclusions.txt	LTP186	ltpFR	3	13	0	HAMMER	680	n/a	0	n/a	n/a	n/a	n/a	n/a
2447317	REC_WORD	wordpools/wasnorm_wordpool_less_exclusions.txt	LTP186	ltpFR	3	13	1	DANDELION	438	n/a	1	n/a	n/a	n/a	n/a	n/a
2465801	REC_WORD	wordpools/wasnorm_wordpool_less_exclusions.txt	LTP186	ltpFR	3	13	0	THUMB	1462	n/a	0	n/a	n/a	n/a	n/a	n/a
2472645	REC_WORD	wordpools/wasnorm_wordpool_less_exclusions.txt	LTP186	ltpFR	3	13	-1	SHRIMP	1297	n/a	-1	n/a	n/a	n/a	n/a	n/a
2489735	WORD	wordpools/wasnorm_wordpool_less_exclusions.txt	LTP186	ltpFR	3	14	1	BRANDY	169	n/a	0	0	0.5869140625	0.422607421875	upper	../fonts/amplitud.ttf
2493615	WORD	wordpools/wasnorm_wordpool_less_exclusions.txt	LTP186	ltpFR	3	14	1	NICOTINE	951	n/a	0	0	0.5869140625	0.422607421875	upper	../fonts/amplitud.ttf
2497731	WORD	wordpools/wasnorm_wordpool_less_exclusions.txt	LTP186	ltpFR	3	14	1	LIP	828	n/a	1	0	0.5869140625	0.422607421875	upper	../fonts/amplitud.ttf
2501729	WORD	wordpools/wasnorm_wordpool_less_exclusions.txt	LTP186	ltpFR	3	14	1	BEVERAGE	123	n/a	0	0	0.5869140625	0.422607421875	upper	../fonts/amplitud.ttf
2505711	WORD	wordpools/wasnorm_wordpool_less_exclusions.txt	LTP186	ltpFR	3	14	1	GLUE	643	n/a	0	0	0.5869140625	0.422607421875	upper	../fonts/amplitud.ttf
2509728	WORD	wordpools/wasnorm_wordpool_less_exclusions.txt	LTP186	ltpFR	3	14	1	DOLL	481	n/a	1	0	0.5869140625	0.422607421875	upper	../fonts/amplitud.ttf
2513775	WORD	wordpools/wasnorm_wordpool_less_exclusions.txt	LTP186	ltpFR	3	14	1	SWING	1421	n/a	0	0	0.5869140625	0.422607421875	upper	../fonts/amplitud.ttf
2517689	WORD	wordpools/wasnorm_wordpool_less_exclusions.txt	LTP186	ltpFR	3	14	1	TWIG	1527	n/a	0	0	0.5869140625	0.422607421875	upper	../fonts/amplitud.ttf
2521904	WORD	wordpools/wasnorm_wordpool_less_exclusions.txt	LTP186	ltpFR	3	14	1	JUGGLER	763	n/a	1	0	0.5869140625	0.422607421875	upper	../fonts/amplitud.ttf
2525936	WORD	wordpools/wasnorm_wordpool_less_exclusions.txt	LTP186	ltpFR	3	14	1	GROOM	665	n/a	1	0	0.5869140625	0.422607421875	upper	../fonts/amplitud.ttf
2530135	WORD	wordpools/wasnorm_wordpool_less_exclusions.txt	LTP186	ltpFR	3	14	1	JUDGE	761	n/a	1	0	0.5869140625	0.422607421875	upper	../fonts/amplitud.ttf
2534305	WORD	wordpools/wasnorm_wordpool_less_exclusions.txt	LTP186	ltpFR	3	14	1	ATTORNEY	58	n/a	1	0	0.5869140625	0.422607421875	upper	../fonts/amplitud.ttf
2538249	WORD	wordpools/wasnorm_wordpool_less_exclusions.txt	LTP186	ltpFR	3	14	1	CIRCUS	311	n/a	0	0	0.5869140625	0.422607421875	upper	../fonts/amplitud.ttf
2542181	WORD	wordpools/wasnorm_wordpool_less_exclusions.txt	LTP186	ltpFR	3	14	1	BUTTON	207	n/a	0	0	0.5869140625	0.422607421875	upper	../fonts/amplitud.ttf
2546346	WORD	wordpools/wasnorm_wordpool_less_exclusions.txt	LTP186	ltpFR	3	14	1	SLACKS	1323	n/a	0	0	0.5869140625	0.422607421875	upper	../fonts/amplitud.ttf
2550496	WORD	wordpools/wasnorm_wordpool_less_exclusions.txt	LTP186	ltpFR	3	14	1	LOUNGE	845	n/a	0	0	0.5869140625	0.422607421875	upper	../fonts/amplitud.ttf
2556537	REC_START	n/a	LTP186	ltpFR	3	14	n/a	n/a	n/a	n/a	n/a	n/a	n/a	n/a	n/a	n/a
2556657	REC_WORD	wordpools/wasnorm_wordpool_less_exclusions.txt	LTP186	ltpFR	3	14	1	CIRCUS	311	n/a	0	n/a	n/a	n/a	n/a	n/a
2557520	REC_WORD	wordpools/wasnorm_wordpool_less_exclusions.txt	LTP186	ltpFR	3	14	1	BUTTON	207	n/a	0	n/a	n/a	n/a	n/a	n/a
2558098	REC_WORD	wordpools/wasnorm_wordpool_less_exclusions.txt	LTP186	ltpFR	3	14	1	SLACKS	1323	n/a	0	n/a	n/a	n/a	n/a	n/a
2559191	REC_WORD	wordpools/wasnorm_wordpool_less_exclusions.txt	LTP186	ltpFR	3	14	1	LOUNGE	845	n/a	0	n/a	n/a	n/a	n/a	n/a
2564868	REC_WORD	wordpools/wasnorm_wordpool_less_exclusions.txt	LTP186	ltpFR	3	14	1	TWIG	1527	n/a	0	n/a	n/a	n/a	n/a	n/a
2565581	REC_WORD	wordpools/wasnorm_wordpool_less_exclusions.txt	LTP186	ltpFR	3	14	1	SWING	1421	n/a	0	n/a	n/a	n/a	n/a	n/a
2573823	REC_WORD	wordpools/wasnorm_wordpool_less_exclusions.txt	LTP186	ltpFR	3	14	0	PLAYGROUND	1087	n/a	1	n/a	n/a	n/a	n/a	n/a
2593732	REC_WORD	wordpools/wasnorm_wordpool_less_exclusions.txt	LTP186	ltpFR	3	14	1	GROOM	665	n/a	1	n/a	n/a	n/a	n/a	n/a
2598366	REC_WORD	wordpools/wasnorm_wordpool_less_exclusions.txt	LTP186	ltpFR	3	14	1	ATTORNEY	58	n/a	1	n/a	n/a	n/a	n/a	n/a
2599175	REC_WORD	wordpools/wasnorm_wordpool_less_exclusions.txt	LTP186	ltpFR	3	14	1	JUDGE	761	n/a	1	n/a	n/a	n/a	n/a	n/a
2603829	REC_WORD	wordpools/wasnorm_wordpool_less_exclusions.txt	LTP186	ltpFR	3	14	1	JUGGLER	763	n/a	1	n/a	n/a	n/a	n/a	n/a
2623824	REC_WORD	wordpools/wasnorm_wordpool_less_exclusions.txt	LTP186	ltpFR	3	14	1	BUTTON	207	n/a	0	n/a	n/a	n/a	n/a	n/a
2628827	REC_WORD	wordpools/wasnorm_wordpool_less_exclusions.txt	LTP186	ltpFR	3	14	1	SLACKS	1323	n/a	0	n/a	n/a	n/a	n/a	n/a
2629411	REC_WORD	wordpools/wasnorm_wordpool_less_exclusions.txt	LTP186	ltpFR	3	14	1	LOUNGE	845	n/a	0	n/a	n/a	n/a	n/a	n/a
2636738	WORD	wordpools/wasnorm_wordpool_less_exclusions.txt	LTP186	ltpFR	3	15	0	OVAL	990	n/a	0	1	0.412841796875	0.57763671875	lower	../fonts/zerothre.ttf
2640903	WORD	wordpools/wasnorm_wordpool_less_exclusions.txt	LTP186	ltpFR	3	15	0	PLUM	1090	n/a	0	1	0.412841796875	0.57763671875	lower	../fonts/zerothre.ttf
2645001	WORD	wordpools/wasnorm_wordpool_less_exclusions.txt	LTP186	ltpFR	3	15	0	MOSS	918	n/a	0	1	0.412841796875	0.57763671875	lower	../fonts/zerothre.ttf
2649050	WORD	wordpools/wasnorm_wordpool_less_exclusions.txt	LTP186	ltpFR	3	15	0	PONY	1102	n/a	1	1	0.412841796875	0.57763671875	lower	../fonts/zerothre.ttf
2653253	WORD	wordpools/wasnorm_wordpool_less_exclusions.txt	LTP186	ltpFR	3	15	0	STALLION	1369	n/a	1	1	0.412841796875	0.57763671875	lower	../fonts/zerothre.ttf
2657348	WORD	wordpools/wasnorm_wordpool_less_exclusions.txt	LTP186	ltpFR	3	15	0	TAG	1429	n/a	0	1	0.412841796875	0.57763671875	lower	../fonts/zerothre.ttf
2661519	WORD	wordpools/wasnorm_wordpool_less_exclusions.txt	LTP186	ltpFR	3	15	0	STOVE	1388	n/a	0	1	0.412841796875	0.57763671875	lower	../fonts/zerothre.ttf
2665531	WORD	wordpools/wasnorm_wordpool_less_exclusions.txt	LTP186	ltpFR	3	15	0	PARSLEY	1016	n/a	0	1	0.412841796875	0.57763671875	lower	../fonts/zerothre.ttf
2669746	WORD	wordpools/wasnorm_wordpool_less_exclusions.txt	LTP186	ltpFR	3	15	0	ENVELOPE	537	n/a	0	1	0.412841796875	0.57763671875	lower	../fonts/zerothre.ttf
2673846	WORD	wordpools/wasnorm_wordpool_less_exclusions.txt	LTP186	ltpFR	3	15	0	CINNAMON	310	n/a	0	1	0.412841796875	0.57763671875	lower	../fonts/zerothre.ttf
2678059	WORD	wordpools/wasnorm_wordpool_less_exclusions.txt	LTP186	ltpFR	3	15	0	TURNIP	1521	n/a	0	1	0.412841796875	0.57763671875	lower	../fonts/zerothre.ttf
2681957	WORD	wordpools/wasnorm_wordpool_less_exclusions.txt	LTP186	ltpFR	3	15	0	POSTAGE	1113	n/a	0	1	0.412841796875	0.57763671875	lower	../fonts/zerothre.ttf
2686157	WORD	wordpools/wasnorm_wordpool_less_exclusions.txt	LTP186	ltpFR	3	15	0	SHACK	1273	n/a	1	1	0.412841796875	0.57763671875	lower	../fonts/zerothre.ttf
2690192	WORD	wordpools/wasnorm_wordpool_less_exclusions.txt	LTP186	ltpFR	3	15	0	SUSPECT	1415	n/a	1	1	0.412841796875	0.57763671875	lower	../fonts/zerothre.ttf
2694321	WORD	wordpools/wasnorm_wordpool_less_exclusions.txt	LTP186	ltpFR	3	15	0	PIANO	1057	n/a	1	1	0.412841796875	0.57763671875	lower	../fonts/zerothre.ttf
2698269	WORD	wordpools/wasnorm_wordpool_less_exclusions.txt	LTP186	ltpFR	3	15	0	TWINE	1529	n/a	0	1	0.412841796875	0.57763671875	lower	../fonts/zerothre.ttf
2704342	REC_START	n/a	LTP186	ltpFR	3	15	n/a	n/a	n/a	n/a	n/a	n/a	n/a	n/a	n/a	n/a
2704616	REC_WORD	wordpools/wasnorm_wordpool_less_exclusions.txt	LTP186	ltpFR	3	15	0	TWINE	1529	n/a	0	n/a	n/a	n/a	n/a	n/a
2705250	REC_WORD	wordpools/wasnorm_wordpool_less_exclusions.txt	LTP186	ltpFR	3	15	0	POSTAGE	1113	n/a	0	n/a	n/a	n/a	n/a	n/a
2706168	REC_WORD	wordpools/wasnorm_wordpool_less_exclusions.txt	LTP186	ltpFR	3	15	0	PIANO	1057	n/a	1	n/a	n/a	n/a	n/a	n/a
2714833	REC_WORD	wordpools/wasnorm_wordpool_less_exclusions.txt	LTP186	ltpFR	3	15	0	PLUM	1090	n/a	0	n/a	n/a	n/a	n/a	n/a
2715472	REC_WORD	wordpools/wasnorm_wordpool_less_exclusions.txt	LTP186	ltpFR	3	15	0	OVAL	990	n/a	0	n/a	n/a	n/a	n/a	n/a
2717821	REC_WORD	wordpools/wasnorm_wordpool_less_exclusions.txt	LTP186	ltpFR	3	15	0	STOVE	1388	n/a	0	n/a	n/a	n/a	n/a	n/a
2718821	REC_WORD_VV	wordpools/wasnorm_wordpool_less_exclusions.txt	LTP186	ltpFR	3	15	n/a	<>	-1	n/a	n/a	n/a	n/a	n/a	n/a	n/a
2721268	REC_WORD	wordpools/wasnorm_wordpool_less_exclusions.txt	LTP186	ltpFR	3	15	0	ENVELOPE	537	n/a	0	n/a	n/a	n/a	n/a	n/a
2728212	REC_WORD	wordpools/wasnorm_wordpool_less_exclusions.txt	LTP186	ltpFR	3	15	0	STALLION	1369	n/a	1	n/a	n/a	n/a	n/a	n/a
2729091	REC_WORD	wordpools/wasnorm_wordpool_less_exclusions.txt	LTP186	ltpFR	3	15	0	PONY	1102	n/a	1	n/a	n/a	n/a	n/a	n/a
2754568	REC_WORD	wordpools/wasnorm_wordpool_less_exclusions.txt	LTP186	ltpFR	3	15	0	TURNIP	1521	n/a	0	n/a	n/a	n/a	n/a	n/a
2761347	REC_WORD	wordpools/wasnorm_wordpool_less_exclusions.txt	LTP186	ltpFR	3	15	0	TWINE	1529	n/a	0	n/a	n/a	n/a	n/a	n/a
2774632	REC_WORD	wordpools/wasnorm_wordpool_less_exclusions.txt	LTP186	ltpFR	3	15	1	CIRCUS	311	n/a	0	n/a	n/a	n/a	n/a	n/a
2784112	WORD	wordpools/wasnorm_wordpool_less_exclusions.txt	LTP186	ltpFR	3	16	1	SCROLL	1257	n/a	0	0	0.5869140625	0.422607421875	upper	../fonts/amplitud.ttf
2788308	WORD	wordpools/wasnorm_wordpool_less_exclusions.txt	LTP186	ltpFR	3	16	1	SARDINE	1235	n/a	1	0	0.5869140625	0.422607421875	upper	../fonts/amplitud.ttf
2792407	WORD	wordpools/wasnorm_wordpool_less_exclusions.txt	LTP186	ltpFR	3	16	1	WHALE	1601	n/a	1	0	0.5869140625	0.422607421875	upper	../fonts/amplitud.ttf
2796423	WORD	wordpools/wasnorm_wordpool_less_exclusions.txt	LTP186	ltpFR	3	16	1	SPOOL	1356	n/a	0	0	0.5869140625	0.422607421875	upper	../fonts/amplitud.ttf
2800387	WORD	wordpools/wasnorm_wordpool_less_exclusions.txt	LTP186	ltpFR	3	16	1	THORN	1459	n/a	0	0	0.5869140625	0.422607421875	upper	../fonts/amplitud.ttf
2804554	WORD	wordpools/wasnorm_wordpool_less_exclusions.txt	LTP186	ltpFR	3	16	1	BUFFALO	186	n/a	1	0	0.5869140625	0.422607421875	upper	../fonts/amplitud.ttf
2808669	WORD	wordpools/wasnorm_wordpool_less_exclusions.txt	LTP186	ltpFR	3	16	1	CITY	314	n/a	1	0	0.5869140625	0.422607421875	upper	../fonts/amplitud.ttf
2812801	WORD	wordpools/wasnorm_wordpool_less_exclusions.txt	LTP186	ltpFR	3	16	1	ALMOND	18	n/a	0	0	0.5869140625	0.422607421875	upper	../fonts/amplitud.ttf
2816916	WORD	wordpools/wasnorm_wordpool_less_exclusions.txt	LTP186	ltpFR	3	16	1	PORTRAIT	1111	n/a	0	0	0.5869140625	0.422607421875	upper	../fonts/amplitud.ttf
2821034	WORD	wordpools/wasnorm_wordpool_less_exclusions.txt	LTP186	ltpFR	3	16	1	MONSTER	912	n/a	1	0	0.5869140625	0.422607421875	upper	../fonts/amplitud.ttf
2825113	WORD	wordpools/wasnorm_wordpool_less_exclusions.txt	LTP186	ltpFR	3	16	1	SLEEVE	1324	n/a	0	0	0.5869140625	0.422607421875	upper	../fonts/amplitud.ttf
2829313	WORD	wordpools/wasnorm_wordpool_less_exclusions.txt	LTP186	ltpFR	3	16	1	RELATIVE	1182	n/a	1	0	0.5869140625	0.422607421875	upper	../fonts/amplitud.ttf
2833463	WORD	wordpools/wasnorm_wordpool_less_exclusions.txt	LTP186	ltpFR	3	16	1	PICTURE	1061	n/a	0	0	0.5869140625	0.422607421875	upper	../fonts/amplitud.ttf
2837645	WORD	wordpools/wasnorm_wordpool_less_exclusions.txt	LTP186	ltpFR	3	16	1	FURNITURE	616	n/a	0	0	0.5869140625	0.422607421875	upper	../fonts/amplitud.ttf
2841660	WORD	wordpools/wasnorm_wordpool_less_exclusions.txt	LTP186	ltpFR	3	16	1	BASKET	95	n/a	0	0	0.5869140625	0.422607421875	upper	../fonts/amplitud.ttf
2845541	WORD	wordpools/wasnorm_wordpool_less_exclusions.txt	LTP186	ltpFR	3	16	1	NEPHEW	942	n/a	1	0	0.5869140625	0.422607421875	upper	../fonts/amplitud.ttf
2851346	REC_START	n/a	LTP186	ltpFR	3	16	n/a	n/a	n/a	n/a	n/a	n/a	n/a	n/a	n/a	n/a
2852054	REC_WORD	wordpools/wasnorm_wordpool_less_exclusions.txt	LTP186	ltpFR	3	16	1	ALMOND	18	n/a	0	n/a	n/a	n/a	n/a	n/a
2854848	REC_WORD	wordpools/wasnorm_wordpool_less_exclusions.txt	LTP186	ltpFR	3	16	1	THORN	1459	n/a	0	n/a	n/a	n/a	n/a	n/a
2855970	REC_WORD	wordpools/wasnorm_wordpool_less_exclusions.txt	LTP186	ltpFR	3	16	1	NEPHEW	942	n/a	1	n/a	n/a	n/a	n/a	n/a
2857856	REC_WORD	wordpools/wasnorm_wordpool_less_exclusions.txt	LTP186	ltpFR	3	16	1	PICTURE	1061	n/a	0	n/a	n/a	n/a	n/a	n/a
2859851	REC_WORD	wordpools/wasnorm_wordpool_less_exclusions.txt	LTP186	ltpFR	3	16	1	SLEEVE	1324	n/a	0	n/a	n/a	n/a	n/a	n/a
2866596	REC_WORD	wordpools/wasnorm_wordpool_less_exclusions.txt	LTP186	ltpFR	3	16	1	PORTRAIT	1111	n/a	0	n/a	n/a	n/a	n/a	n/a
2872553	REC_WORD	wordpools/wasnorm_wordpool_less_exclusions.txt	LTP186	ltpFR	3	16	1	BASKET	95	n/a	0	n/a	n/a	n/a	n/a	n/a
2890542	REC_WORD	wordpools/wasnorm_wordpool_less_exclusions.txt	LTP186	ltpFR	3	16	1	FURNITURE	616	n/a	0	n/a	n/a	n/a	n/a	n/a
2904889	REC_WORD	wordpools/wasnorm_wordpool_less_exclusions.txt	LTP186	ltpFR	3	16	1	SPOOL	1356	n/a	0	n/a	n/a	n/a	n/a	n/a
2951391	REC_START	n/a	LTP186	ltpFR	3	1	n/a	n/a	n/a	n/a	n/a	n/a	n/a	n/a	n/a	n/a
2951441	RECOG_LURE	n/a	LTP186	ltpFR	3	1	n/a	OWL	992	4	n/a	n/a	n/a	n/a	n/a	n/a
2952737	RECOG_RESP	n/a	LTP186	ltpFR	3	1	n/a	OWL	992	n/a	n/a	n/a	n/a	n/a	n/a	n/a
2959017	RECOG_CONF	n/a	LTP186	ltpFR	3	1	n/a	OWL	992	4	n/a	n/a	n/a	n/a	n/a	n/a
2961462	RECOG_TARGET	n/a	LTP186	ltpFR	3	1	0	CUSHION	428	n/a	1	n/a	n/a	n/a	n/a	n/a
2962894	RECOG_RESP	n/a	LTP186	ltpFR	3	1	0	CUSHION	428	n/a	1	n/a	n/a	n/a	n/a	n/a
2968657	RECOG_TARGET	n/a	LTP186	ltpFR	3	1	-1	RAM	1165	n/a	-1	n/a	n/a	n/a	n/a	n/a
2972005	RECOG_RESP	n/a	LTP186	ltpFR	3	1	-1	RAM	1165	n/a	-1	n/a	n/a	n/a	n/a	n/a
2980332	RECOG_LURE	n/a	LTP186	ltpFR	3	1	n/a	BRICK	172	1	n/a	n/a	n/a	n/a	n/a	n/a
2982607	RECOG_RESP	n/a	LTP186	ltpFR	3	1	n/a	BRICK	172	n/a	n/a	n/a	n/a	n/a	n/a	n/a
2984854	RECOG_CONF	n/a	LTP186	ltpFR	3	1	n/a	BRICK	172	1	n/a	n/a	n/a	n/a	n/a	n/a
2986777	RECOG_LURE	n/a	LTP186	ltpFR	3	1	n/a	BALCONY	72	5	n/a	n/a	n/a	n/a	n/a	n/a
2987832	RECOG_RESP	n/a	LTP186	ltpFR	3	1	n/a	BALCONY	72	n/a	n/a	n/a	n/a	n/a	n/a	n/a
2988871	RECOG_CONF	n/a	LTP186	ltpFR	3	1	n/a	BALCONY	72	5	n/a	n/a	n/a	n/a	n/a	n/a
2990772	RECOG_TARGET	n/a	LTP186	ltpFR	3	1	-1	PUMP	1141	3	-1	n/a	n/a	n/a	n/a	n/a
2992029	RECOG_RESP	n/a	LTP186	ltpFR	3	1	-1	PUMP	1141	n/a	-1	n/a	n/a	n/a	n/a	n/a
2993146	RECOG_CONF	n/a	LTP186	ltpFR	3	1	-1	PUMP	1141	3	-1	n/a	n/a	n/a	n/a	n/a
2994987	RECOG_TARGET	n/a	LTP186	ltpFR	3	1	0	SKATE	1313	3	0	n/a	n/a	n/a	n/a	n/a
2995575	RECOG_RESP	n/a	LTP186	ltpFR	3	1	0	SKATE	1313	n/a	0	n/a	n/a	n/a	n/a	n/a
2996613	RECOG_CONF	n/a	LTP186	ltpFR	3	1	0	SKATE	1313	3	0	n/a	n/a	n/a	n/a	n/a
2998199	RECOG_LURE	n/a	LTP186	ltpFR	3	1	n/a	PORK	1108	4	n/a	n/a	n/a	n/a	n/a	n/a
2999127	RECOG_RESP	n/a	LTP186	ltpFR	3	1	n/a	PORK	1108	n/a	n/a	n/a	n/a	n/a	n/a	n/a
3000136	RECOG_CONF	n/a	LTP186	ltpFR	3	1	n/a	PORK	1108	4	n/a	n/a	n/a	n/a	n/a	n/a
3002016	RECOG_TARGET	n/a	LTP186	ltpFR	3	1	1	PORTRAIT	1111	5	0	n/a	n/a	n/a	n/a	n/a
3002651	RECOG_RESP	n/a	LTP186	ltpFR	3	1	1	PORTRAIT	1111	n/a	0	n/a	n/a	n/a	n/a	n/a
3003542	RECOG_CONF	n/a	LTP186	ltpFR	3	1	1	PORTRAIT	1111	5	0	n/a	n/a	n/a	n/a	n/a
3005326	RECOG_LURE	n/a	LTP186	ltpFR	3	1	n/a	DUST	508	3	n/a	n/a	n/a	n/a	n/a	n/a
3006212	RECOG_RESP	n/a	LTP186	ltpFR	3	1	n/a	DUST	508	n/a	n/a	n/a	n/a	n/a	n/a	n/a
3007003	RECOG_CONF	n/a	LTP186	ltpFR	3	1	n/a	DUST	508	3	n/a	n/a	n/a	n/a	n/a	n/a
3008790	RECOG_TARGET	n/a	LTP186	ltpFR	3	1	-1	HIKER	708	5	-1	n/a	n/a	n/a	n/a	n/a
3009374	RECOG_RESP	n/a	LTP186	ltpFR	3	1	-1	HIKER	708	n/a	-1	n/a	n/a	n/a	n/a	n/a
3010202	RECOG_CONF	n/a	LTP186	ltpFR	3	1	-1	HIKER	708	5	-1	n/a	n/a	n/a	n/a	n/a
3011934	RECOG_LURE	n/a	LTP186	ltpFR	3	1	n/a	ELK	526	5	n/a	n/a	n/a	n/a	n/a	n/a
3012729	RECOG_RESP	n/a	LTP186	ltpFR	3	1	n/a	ELK	526	n/a	n/a	n/a	n/a	n/a	n/a	n/a
3013465	RECOG_CONF	n/a	LTP186	ltpFR	3	1	n/a	ELK	526	5	n/a	n/a	n/a	n/a	n/a	n/a
3015230	RECOG_TARGET	n/a	LTP186	ltpFR	3	1	0	TWINE	1529	5	0	n/a	n/a	n/a	n/a	n/a
3015940	RECOG_RESP	n/a	LTP186	ltpFR	3	1	0	TWINE	1529	n/a	0	n/a	n/a	n/a	n/a	n/a
3016676	RECOG_CONF	n/a	LTP186	ltpFR	3	1	0	TWINE	1529	5	0	n/a	n/a	n/a	n/a	n/a
3018577	RECOG_TARGET	n/a	LTP186	ltpFR	3	1	-1	CAFE	216	5	-1	n/a	n/a	n/a	n/a	n/a
3019186	RECOG_RESP	n/a	LTP186	ltpFR	3	1	-1	CAFE	216	n/a	-1	n/a	n/a	n/a	n/a	n/a
3020006	RECOG_CONF	n/a	LTP186	ltpFR	3	1	-1	CAFE	216	5	-1	n/a	n/a	n/a	n/a	n/a
3021942	RECOG_TARGET	n/a	LTP186	ltpFR	3	1	0	WINDSHIELD	1612	5	1	n/a	n/a	n/a	n/a	n/a
3022785	RECOG_RESP	n/a	LTP186	ltpFR	3	1	0	WINDSHIELD	1612	n/a	1	n/a	n/a	n/a	n/a	n/a
3023610	RECOG_CONF	n/a	LTP186	ltpFR	3	1	0	WINDSHIELD	1612	5	1	n/a	n/a	n/a	n/a	n/a
3025653	RECOG_LURE	n/a	LTP186	ltpFR	3	1	n/a	MAYONNAISE	880	4	n/a	n/a	n/a	n/a	n/a	n/a
3026589	RECOG_RESP	n/a	LTP186	ltpFR	3	1	n/a	MAYONNAISE	880	n/a	n/a	n/a	n/a	n/a	n/a	n/a
3027403	RECOG_CONF	n/a	LTP186	ltpFR	3	1	n/a	MAYONNAISE	880	4	n/a	n/a	n/a	n/a	n/a	n/a
3029418	RECOG_LURE	n/a	LTP186	ltpFR	3	1	n/a	BABY	64	5	n/a	n/a	n/a	n/a	n/a	n/a
3030121	RECOG_RESP	n/a	LTP186	ltpFR	3	1	n/a	BABY	64	n/a	n/a	n/a	n/a	n/a	n/a	n/a
3030833	RECOG_CONF	n/a	LTP186	ltpFR	3	1	n/a	BABY	64	5	n/a	n/a	n/a	n/a	n/a	n/a
3032947	RECOG_LURE	n/a	LTP186	ltpFR	3	1	n/a	MINT	898	2	n/a	n/a	n/a	n/a	n/a	n/a
3033817	RECOG_RESP	n/a	LTP186	ltpFR	3	1	n/a	MINT	898	n/a	n/a	n/a	n/a	n/a	n/a	n/a
3034804	RECOG_CONF	n/a	LTP186	ltpFR	3	1	n/a	MINT	898	2	n/a	n/a	n/a	n/a	n/a	n/a
3036833	RECOG_TARGET	n/a	LTP186	ltpFR	3	1	1	LIP	828	5	1	n/a	n/a	n/a	n/a	n/a
3037465	RECOG_RESP	n/a	LTP186	ltpFR	3	1	1	LIP	828	n/a	1	n/a	n/a	n/a	n/a	n/a
3038638	RECOG_CONF	n/a	LTP186	ltpFR	3	1	1	LIP	828	5	1	n/a	n/a	n/a	n/a	n/a
3040579	RECOG_LURE	n/a	LTP186	ltpFR	3	1	n/a	FEMALE	559	5	n/a	n/a	n/a	n/a	n/a	n/a
3041388	RECOG_RESP	n/a	LTP186	ltpFR	3	1	n/a	FEMALE	559	n/a	n/a	n/a	n/a	n/a	n/a	n/a
3042274	RECOG_CONF	n/a	LTP186	ltpFR	3	1	n/a	FEMALE	559	5	n/a	n/a	n/a	n/a	n/a	n/a
3047301	REC_START	n/a	LTP186	ltpFR	3	2	n/a	n/a	n/a	n/a	n/a	n/a	n/a	n/a	n/a	n/a
3047351	RECOG_TARGET	n/a	LTP186	ltpFR	3	2	0	ORANGE	980	4	1	n/a	n/a	n/a	n/a	n/a
3048193	RECOG_RESP	n/a	LTP186	ltpFR	3	2	0	ORANGE	980	n/a	1	n/a	n/a	n/a	n/a	n/a
3048978	RECOG_CONF	n/a	LTP186	ltpFR	3	2	0	ORANGE	980	4	1	n/a	n/a	n/a	n/a	n/a
3050965	RECOG_LURE	n/a	LTP186	ltpFR	3	2	n/a	CANVAS	234	5	n/a	n/a	n/a	n/a	n/a	n/a
3051785	RECOG_RESP	n/a	LTP186	ltpFR	3	2	n/a	CANVAS	234	n/a	n/a	n/a	n/a	n/a	n/a	n/a
3052634	RECOG_CONF	n/a	LTP186	ltpFR	3	2	n/a	CANVAS	234	5	n/a	n/a	n/a	n/a	n/a	n/a
3054579	RECOG_LURE	n/a	LTP186	ltpFR	3	2	n/a	GAVEL	627	5	n/a	n/a	n/a	n/a	n/a	n/a
3055315	RECOG_RESP	n/a	LTP186	ltpFR	3	2	n/a	GAVEL	627	n/a	n/a	n/a	n/a	n/a	n/a	n/a
3056157	RECOG_CONF	n/a	LTP186	ltpFR	3	2	n/a	GAVEL	627	5	n/a	n/a	n/a	n/a	n/a	n/a
3058142	RECOG_LURE	n/a	LTP186	ltpFR	3	2	n/a	SPINE	1353	4	n/a	n/a	n/a	n/a	n/a	n/a
3058803	RECOG_RESP	n/a	LTP186	ltpFR	3	2	n/a	SPINE	1353	n/a	n/a	n/a	n/a	n/a	n/a	n/a
3059763	RECOG_CONF	n/a	LTP186	ltpFR	3	2	n/a	SPINE	1353	4	n/a	n/a	n/a	n/a	n/a	n/a
3061706	RECOG_TARGET	n/a	LTP186	ltpFR	3	2	1	BASKET	95	5	0	n/a	n/a	n/a	n/a	n/a
3062381	RECOG_RESP	n/a	LTP186	ltpFR	3	2	1	BASKET	95	n/a	0	n/a	n/a	n/a	n/a	n/a
3063255	RECOG_CONF	n/a	LTP186	ltpFR	3	2	1	BASKET	95	5	0	n/a	n/a	n/a	n/a	n/a
3065017	RECOG_LURE	n/a	LTP186	ltpFR	3	2	n/a	BOMB	147	5	n/a	n/a	n/a	n/a	n/a	n/a
3066004	RECOG_RESP	n/a	LTP186	ltpFR	3	2	n/a	BOMB	147	n/a	n/a	n/a	n/a	n/a	n/a	n/a
3066732	RECOG_CONF	n/a	LTP186	ltpFR	3	2	n/a	BOMB	147	5	n/a	n/a	n/a	n/a	n/a	n/a
3068482	RECOG_TARGET	n/a	LTP186	ltpFR	3	2	1	STAPLE	1371	5	0	n/a	n/a	n/a	n/a	n/a
3069679	RECOG_RESP	n/a	LTP186	ltpFR	3	2	1	STAPLE	1371	n/a	0	n/a	n/a	n/a	n/a	n/a
3070524	RECOG_CONF	n/a	LTP186	ltpFR	3	2	1	STAPLE	1371	5	0	n/a	n/a	n/a	n/a	n/a
3072362	RECOG_LURE	n/a	LTP186	ltpFR	3	2	n/a	BALL	73	3	n/a	n/a	n/a	n/a	n/a	n/a
3074350	RECOG_RESP	n/a	LTP186	ltpFR	3	2	n/a	BALL	73	n/a	n/a	n/a	n/a	n/a	n/a	n/a
3075279	RECOG_CONF	n/a	LTP186	ltpFR	3	2	n/a	BALL	73	3	n/a	n/a	n/a	n/a	n/a	n/a
3077013	RECOG_TARGET	n/a	LTP186	ltpFR	3	2	1	FLIPPER	580	5	0	n/a	n/a	n/a	n/a	n/a
3077638	RECOG_RESP	n/a	LTP186	ltpFR	3	2	1	FLIPPER	580	n/a	0	n/a	n/a	n/a	n/a	n/a
3078395	RECOG_CONF	n/a	LTP186	ltpFR	3	2	1	FLIPPER	580	5	0	n/a	n/a	n/a	n/a	n/a
3080191	RECOG_LURE	n/a	LTP186	ltpFR	3	2	n/a	BUBBLE	183	2	n/a	n/a	n/a	n/a	n/a	n/a
3081156	RECOG_RESP	n/a	LTP186	ltpFR	3	2	n/a	BUBBLE	183	n/a	n/a	n/a	n/a	n/a	n/a	n/a
3081953	RECOG_CONF	n/a	LTP186	ltpFR	3	2	n/a	BUBBLE	183	2	n/a	n/a	n/a	n/a	n/a	n/a
3083773	RECOG_TARGET	n/a	LTP186	ltpFR	3	2	0	TABLET	1427	5	1	n/a	n/a	n/a	n/a	n/a
3084312	RECOG_RESP	n/a	LTP186	ltpFR	3	2	0	TABLET	1427	n/a	1	n/a	n/a	n/a	n/a	n/a
3085032	RECOG_CONF	n/a	LTP186	ltpFR	3	2	0	TABLET	1427	5	1	n/a	n/a	n/a	n/a	n/a
3086955	RECOG_LURE	n/a	LTP186	ltpFR	3	2	n/a	INN	739	4	n/a	n/a	n/a	n/a	n/a	n/a
3087804	RECOG_RESP	n/a	LTP186	ltpFR	3	2	n/a	INN	739	n/a	n/a	n/a	n/a	n/a	n/a	n/a
3088692	RECOG_CONF	n/a	LTP186	ltpFR	3	2	n/a	INN	739	4	n/a	n/a	n/a	n/a	n/a	n/a
3090464	RECOG_LURE	n/a	LTP186	ltpFR	3	2	n/a	LIME	823	3	n/a	n/a	n/a	n/a	n/a	n/a
3091437	RECOG_RESP	n/a	LTP186	ltpFR	3	2	n/a	LIME	823	n/a	n/a	n/a	n/a	n/a	n/a	n/a
3092224	RECOG_CONF	n/a	LTP186	ltpFR	3	2	n/a	LIME	823	3	n/a	n/a	n/a	n/a	n/a	n/a
3093977	RECOG_LURE	n/a	LTP186	ltpFR	3	2	n/a	GRADUATE	653	2	n/a	n/a	n/a	n/a	n/a	n/a
3094667	RECOG_RESP	n/a	LTP186	ltpFR	3	2	n/a	GRADUATE	653	n/a	n/a	n/a	n/a	n/a	n/a	n/a
3095562	RECOG_CONF	n/a	LTP186	ltpFR	3	2	n/a	GRADUATE	653	2	n/a	n/a	n/a	n/a	n/a	n/a
3097443	RECOG_LURE	n/a	LTP186	ltpFR	3	2	n/a	FUNGUS	614	3	n/a	n/a	n/a	n/a	n/a	n/a
3098743	RECOG_RESP	n/a	LTP186	ltpFR	3	2	n/a	FUNGUS	614	n/a	n/a	n/a	n/a	n/a	n/a	n/a
3099527	RECOG_CONF	n/a	LTP186	ltpFR	3	2	n/a	FUNGUS	614	3	n/a	n/a	n/a	n/a	n/a	n/a
3101371	RECOG_TARGET	n/a	LTP186	ltpFR	3	2	-1	SHRIMP	1297	5	-1	n/a	n/a	n/a	n/a	n/a
3101993	RECOG_RESP	n/a	LTP186	ltpFR	3	2	-1	SHRIMP	1297	n/a	-1	n/a	n/a	n/a	n/a	n/a
3102720	RECOG_CONF	n/a	LTP186	ltpFR	3	2	-1	SHRIMP	1297	5	-1	n/a	n/a	n/a	n/a	n/a
3104602	RECOG_TARGET	n/a	LTP186	ltpFR	3	2	1	CABOOSE	214	5	0	n/a	n/a	n/a	n/a	n/a
3105206	RECOG_RESP	n/a	LTP186	ltpFR	3	2	1	CABOOSE	214	n/a	0	n/a	n/a	n/a	n/a	n/a
3106024	RECOG_CONF	n/a	LTP186	ltpFR	3	2	1	CABOOSE	214	5	0	n/a	n/a	n/a	n/a	n/a
3107764	RECOG_TARGET	n/a	LTP186	ltpFR	3	2	0	CAGE	218	5	1	n/a	n/a	n/a	n/a	n/a
3108438	RECOG_RESP	n/a	LTP186	ltpFR	3	2	0	CAGE	218	n/a	1	n/a	n/a	n/a	n/a	n/a
3109220	RECOG_CONF	n/a	LTP186	ltpFR	3	2	0	CAGE	218	5	1	n/a	n/a	n/a	n/a	n/a
3111109	RECOG_LURE	n/a	LTP186	ltpFR	3	2	n/a	BUYER	208	2	n/a	n/a	n/a	n/a	n/a	n/a
3112091	RECOG_RESP	n/a	LTP186	ltpFR	3	2	n/a	BUYER	208	n/a	n/a	n/a	n/a	n/a	n/a	n/a
3112910	RECOG_CONF	n/a	LTP186	ltpFR	3	2	n/a	BUYER	208	2	n/a	n/a	n/a	n/a	n/a	n/a
3114856	RECOG_LURE	n/a	LTP186	ltpFR	3	2	n/a	GLASS	639	2	n/a	n/a	n/a	n/a	n/a	n/a
3116437	RECOG_RESP	n/a	LTP186	ltpFR	3	2	n/a	GLASS	639	n/a	n/a	n/a	n/a	n/a	n/a	n/a
3117271	RECOG_CONF	n/a	LTP186	ltpFR	3	2	n/a	GLASS	639	2	n/a	n/a	n/a	n/a	n/a	n/a
3121943	REC_START	n/a	LTP186	ltpFR	3	3	n/a	n/a	n/a	n/a	n/a	n/a	n/a	n/a	n/a	n/a
3121982	RECOG_TARGET	n/a	LTP186	ltpFR	3	3	0	TUSK	1523	5	1	n/a	n/a	n/a	n/a	n/a
3122582	RECOG_RESP	n/a	LTP186	ltpFR	3	3	0	TUSK	1523	n/a	1	n/a	n/a	n/a	n/a	n/a
3123434	RECOG_CONF	n/a	LTP186	ltpFR	3	3	0	TUSK	1523	5	1	n/a	n/a	n/a	n/a	n/a
3125217	RECOG_TARGET	n/a	LTP186	ltpFR	3	3	0	CHIEF	298	5	1	n/a	n/a	n/a	n/a	n/a
3125866	RECOG_RESP	n/a	LTP186	ltpFR	3	3	0	CHIEF	298	n/a	1	n/a	n/a	n/a	n/a	n/a
3126662	RECOG_CONF	n/a	LTP186	ltpFR	3	3	0	CHIEF	298	5	1	n/a	n/a	n/a	n/a	n/a
3128642	RECOG_LURE	n/a	LTP186	ltpFR	3	3	n/a	DIAMOND	458	4	n/a	n/a	n/a	n/a	n/a	n/a
3129583	RECOG_RESP	n/a	LTP186	ltpFR	3	3	n/a	DIAMOND	458	n/a	n/a	n/a	n/a	n/a	n/a	n/a
3130349	RECOG_CONF	n/a	LTP186	ltpFR	3	3	n/a	DIAMOND	458	4	n/a	n/a	n/a	n/a	n/a	n/a
3132304	RECOG_TARGET	n/a	LTP186	ltpFR	3	3	0	FILM	565	5	1	n/a	n/a	n/a	n/a	n/a
3132938	RECOG_RESP	n/a	LTP186	ltpFR	3	3	0	FILM	565	n/a	1	n/a	n/a	n/a	n/a	n/a
3133694	RECOG_CONF	n/a	LTP186	ltpFR	3	3	0	FILM	565	5	1	n/a	n/a	n/a	n/a	n/a
3135417	RECOG_LURE	n/a	LTP186	ltpFR	3	3	n/a	TOY	1492	4	n/a	n/a	n/a	n/a	n/a	n/a
3136177	RECOG_RESP	n/a	LTP186	ltpFR	3	3	n/a	TOY	1492	n/a	n/a	n/a	n/a	n/a	n/a	n/a
3136960	RECOG_CONF	n/a	LTP186	ltpFR	3	3	n/a	TOY	1492	4	n/a	n/a	n/a	n/a	n/a	n/a
3138830	RECOG_LURE	n/a	LTP186	ltpFR	3	3	n/a	BATH	98	2	n/a	n/a	n/a	n/a	n/a	n/a
3139389	RECOG_RESP	n/a	LTP186	ltpFR	3	3	n/a	BATH	98	n/a	n/a	n/a	n/a	n/a	n/a	n/a
3140396	RECOG_CONF	n/a	LTP186	ltpFR	3	3	n/a	BATH	98	2	n/a	n/a	n/a	n/a	n/a	n/a
3142292	RECOG_TARGET	n/a	LTP186	ltpFR	3	3	0	SERVER	1272	5	1	n/a	n/a	n/a	n/a	n/a
3142869	RECOG_RESP	n/a	LTP186	ltpFR	3	3	0	SERVER	1272	n/a	1	n/a	n/a	n/a	n/a	n/a
3143590	RECOG_CONF	n/a	LTP186	ltpFR	3	3	0	SERVER	1272	5	1	n/a	n/a	n/a	n/a	n/a
3145326	RECOG_LURE	n/a	LTP186	ltpFR	3	3	n/a	POWDER	1117	1	n/a	n/a	n/a	n/a	n/a	n/a
3146302	RECOG_RESP	n/a	LTP186	ltpFR	3	3	n/a	POWDER	1117	n/a	n/a	n/a	n/a	n/a	n/a	n/a
3147210	RECOG_CONF	n/a	LTP186	ltpFR	3	3	n/a	POWDER	1117	1	n/a	n/a	n/a	n/a	n/a	n/a
3148950	RECOG_LURE	n/a	LTP186	ltpFR	3	3	n/a	PAINTING	1005	5	n/a	n/a	n/a	n/a	n/a	n/a
3149650	RECOG_RESP	n/a	LTP186	ltpFR	3	3	n/a	PAINTING	1005	n/a	n/a	n/a	n/a	n/a	n/a	n/a
3150503	RECOG_CONF	n/a	LTP186	ltpFR	3	3	n/a	PAINTING	1005	5	n/a	n/a	n/a	n/a	n/a	n/a
3152296	RECOG_LURE	n/a	LTP186	ltpFR	3	3	n/a	TICKET	1464	3	n/a	n/a	n/a	n/a	n/a	n/a
3154240	RECOG_RESP	n/a	LTP186	ltpFR	3	3	n/a	TICKET	1464	n/a	n/a	n/a	n/a	n/a	n/a	n/a
3155220	RECOG_CONF	n/a	LTP186	ltpFR	3	3	n/a	TICKET	1464	3	n/a	n/a	n/a	n/a	n/a	n/a
3157198	RECOG_TARGET	n/a	LTP186	ltpFR	3	3	-1	CORPORATION	382	5	-1	n/a	n/a	n/a	n/a	n/a
3157844	RECOG_RESP	n/a	LTP186	ltpFR	3	3	-1	CORPORATION	382	n/a	-1	n/a	n/a	n/a	n/a	n/a
3158555	RECOG_CONF	n/a	LTP186	ltpFR	3	3	-1	CORPORATION	382	5	-1	n/a	n/a	n/a	n/a	n/a
3160277	RECOG_LURE	n/a	LTP186	ltpFR	3	3	n/a	TAR	1435	2	n/a	n/a	n/a	n/a	n/a	n/a
3161584	RECOG_RESP	n/a	LTP186	ltpFR	3	3	n/a	TAR	1435	n/a	n/a	n/a	n/a	n/a	n/a	n/a
3162856	RECOG_CONF	n/a	LTP186	ltpFR	3	3	n/a	TAR	1435	2	n/a	n/a	n/a	n/a	n/a	n/a
3164579	RECOG_LURE	n/a	LTP186	ltpFR	3	3	n/a	CHAPEL	280	4	n/a	n/a	n/a	n/a	n/a	n/a
3165459	RECOG_RESP	n/a	LTP186	ltpFR	3	3	n/a	CHAPEL	280	n/a	n/a	n/a	n/a	n/a	n/a	n/a
3166270	RECOG_CONF	n/a	LTP186	ltpFR	3	3	n/a	CHAPEL	280	4	n/a	n/a	n/a	n/a	n/a	n/a
3168056	RECOG_LURE	n/a	LTP186	ltpFR	3	3	n/a	BELL	118	5	n/a	n/a	n/a	n/a	n/a	n/a
3168852	RECOG_RESP	n/a	LTP186	ltpFR	3	3	n/a	BELL	118	n/a	n/a	n/a	n/a	n/a	n/a	n/a
3169669	RECOG_CONF	n/a	LTP186	ltpFR	3	3	n/a	BELL	118	5	n/a	n/a	n/a	n/a	n/a	n/a
3171503	RECOG_LURE	n/a	LTP186	ltpFR	3	3	n/a	CRIMINAL	409	5	n/a	n/a	n/a	n/a	n/a	n/a
3172330	RECOG_RESP	n/a	LTP186	ltpFR	3	3	n/a	CRIMINAL	409	n/a	n/a	n/a	n/a	n/a	n/a	n/a
3173052	RECOG_CONF	n/a	LTP186	ltpFR	3	3	n/a	CRIMINAL	409	5	n/a	n/a	n/a	n/a	n/a	n/a
3174899	RECOG_LURE	n/a	LTP186	ltpFR	3	3	n/a	FIDDLE	561	3	n/a	n/a	n/a	n/a	n/a	n/a
3176476	RECOG_RESP	n/a	LTP186	ltpFR	3	3	n/a	FIDDLE	561	n/a	n/a	n/a	n/a	n/a	n/a	n/a
3177206	RECOG_CONF	n/a	LTP186	ltpFR	3	3	n/a	FIDDLE	561	3	n/a	n/a	n/a	n/a	n/a	n/a
3179014	RECOG_LURE	n/a	LTP186	ltpFR	3	3	n/a	MATCH	878	3	n/a	n/a	n/a	n/a	n/a	n/a
3179902	RECOG_RESP	n/a	LTP186	ltpFR	3	3	n/a	MATCH	878	n/a	n/a	n/a	n/a	n/a	n/a	n/a
3180764	RECOG_CONF	n/a	LTP186	ltpFR	3	3	n/a	MATCH	878	3	n/a	n/a	n/a	n/a	n/a	n/a
3182616	RECOG_LURE	n/a	LTP186	ltpFR	3	3	n/a	GALLON	618	2	n/a	n/a	n/a	n/a	n/a	n/a
3183550	RECOG_RESP	n/a	LTP186	ltpFR	3	3	n/a	GALLON	618	n/a	n/a	n/a	n/a	n/a	n/a	n/a
3184362	RECOG_CONF	n/a	LTP186	ltpFR	3	3	n/a	GALLON	618	2	n/a	n/a	n/a	n/a	n/a	n/a
3186191	RECOG_TARGET	n/a	LTP186	ltpFR	3	3	1	COOKBOOK	373	3	0	n/a	n/a	n/a	n/a	n/a
3187066	RECOG_RESP	n/a	LTP186	ltpFR	3	3	1	COOKBOOK	373	n/a	0	n/a	n/a	n/a	n/a	n/a
3187875	RECOG_CONF	n/a	LTP186	ltpFR	3	3	1	COOKBOOK	373	3	0	n/a	n/a	n/a	n/a	n/a
3189839	RECOG_TARGET	n/a	LTP186	ltpFR	3	3	-1	CRAB	397	5	-1	n/a	n/a	n/a	n/a	n/a
3190545	RECOG_RESP	n/a	LTP186	ltpFR	3	3	-1	CRAB	397	n/a	-1	n/a	n/a	n/a	n/a	n/a
3191229	RECOG_CONF	n/a	LTP186	ltpFR	3	3	-1	CRAB	397	5	-1	n/a	n/a	n/a	n/a	n/a
3196213	REC_START	n/a	LTP186	ltpFR	3	4	n/a	n/a	n/a	n/a	n/a	n/a	n/a	n/a	n/a	n/a
3196262	RECOG_LURE	n/a	LTP186	ltpFR	3	4	n/a	RIDER	1191	5	n/a	n/a	n/a	n/a	n/a	n/a
3196978	RECOG_RESP	n/a	LTP186	ltpFR	3	4	n/a	RIDER	1191	n/a	n/a	n/a	n/a	n/a	n/a	n/a
3197767	RECOG_CONF	n/a	LTP186	ltpFR	3	4	n/a	RIDER	1191	5	n/a	n/a	n/a	n/a	n/a	n/a
3199609	RECOG_LURE	n/a	LTP186	ltpFR	3	4	n/a	KNIFE	785	4	n/a	n/a	n/a	n/a	n/a	n/a
3200888	RECOG_RESP	n/a	LTP186	ltpFR	3	4	n/a	KNIFE	785	n/a	n/a	n/a	n/a	n/a	n/a	n/a
3201740	RECOG_CONF	n/a	LTP186	ltpFR	3	4	n/a	KNIFE	785	4	n/a	n/a	n/a	n/a	n/a	n/a
3203541	RECOG_TARGET	n/a	LTP186	ltpFR	3	4	0	SQUIRREL	1362	5	1	n/a	n/a	n/a	n/a	n/a
3204312	RECOG_RESP	n/a	LTP186	ltpFR	3	4	0	SQUIRREL	1362	n/a	1	n/a	n/a	n/a	n/a	n/a
3205038	RECOG_CONF	n/a	LTP186	ltpFR	3	4	0	SQUIRREL	1362	5	1	n/a	n/a	n/a	n/a	n/a
3206736	RECOG_TARGET	n/a	LTP186	ltpFR	3	4	0	ZUCCHINI	1638	5	0	n/a	n/a	n/a	n/a	n/a
3207313	RECOG_RESP	n/a	LTP186	ltpFR	3	4	0	ZUCCHINI	1638	n/a	0	n/a	n/a	n/a	n/a	n/a
3207988	RECOG_CONF	n/a	LTP186	ltpFR	3	4	0	ZUCCHINI	1638	5	0	n/a	n/a	n/a	n/a	n/a
3209816	RECOG_TARGET	n/a	LTP186	ltpFR	3	4	1	DISH	474	5	0	n/a	n/a	n/a	n/a	n/a
3210417	RECOG_RESP	n/a	LTP186	ltpFR	3	4	1	DISH	474	n/a	0	n/a	n/a	n/a	n/a	n/a
3211094	RECOG_CONF	n/a	LTP186	ltpFR	3	4	1	DISH	474	5	0	n/a	n/a	n/a	n/a	n/a
3212809	RECOG_TARGET	n/a	LTP186	ltpFR	3	4	0	SCOUT	1252	5	1	n/a	n/a	n/a	n/a	n/a
3213412	RECOG_RESP	n/a	LTP186	ltpFR	3	4	0	SCOUT	1252	n/a	1	n/a	n/a	n/a	n/a	n/a
3214085	RECOG_CONF	n/a	LTP186	ltpFR	3	4	0	SCOUT	1252	5	1	n/a	n/a	n/a	n/a	n/a
3215986	RECOG_LURE	n/a	LTP186	ltpFR	3	4	n/a	BOAT	144	2	n/a	n/a	n/a	n/a	n/a	n/a
3217229	RECOG_RESP	n/a	LTP186	ltpFR	3	4	n/a	BOAT	144	n/a	n/a	n/a	n/a	n/a	n/a	n/a
3218071	RECOG_CONF	n/a	LTP186	ltpFR	3	4	n/a	BOAT	144	2	n/a	n/a	n/a	n/a	n/a	n/a
3219852	RECOG_LURE	n/a	LTP186	ltpFR	3	4	n/a	RULER	1216	2	n/a	n/a	n/a	n/a	n/a	n/a
3220993	RECOG_RESP	n/a	LTP186	ltpFR	3	4	n/a	RULER	1216	n/a	n/a	n/a	n/a	n/a	n/a	n/a
3221805	RECOG_CONF	n/a	LTP186	ltpFR	3	4	n/a	RULER	1216	2	n/a	n/a	n/a	n/a	n/a	n/a
3223784	RECOG_TARGET	n/a	LTP186	ltpFR	3	4	0	PLANT	1083	5	0	n/a	n/a	n/a	n/a	n/a
3224561	RECOG_RESP_VV	n/a	LTP186	ltpFR	3	4	0	PLANT	1083	n/a	0	n/a	n/a	n/a	n/a	n/a
3225724	RECOG_RESP	n/a	LTP186	ltpFR	3	4	0	PLANT	1083	n/a	0	n/a	n/a	n/a	n/a	n/a
3226877	RECOG_RESP_VV	n/a	LTP186	ltpFR	3	4	0	PLANT	1083	5	0	n/a	n/a	n/a	n/a	n/a
3228631	RECOG_CONF	n/a	LTP186	ltpFR	3	4	0	PLANT	1083	5	0	n/a	n/a	n/a	n/a	n/a
3230609	RECOG_TARGET	n/a	LTP186	ltpFR	3	4	-1	OLIVE	975	5	-1	n/a	n/a	n/a	n/a	n/a
3231273	RECOG_RESP	n/a	LTP186	ltpFR	3	4	-1	OLIVE	975	n/a	-1	n/a	n/a	n/a	n/a	n/a
3232076	RECOG_CONF	n/a	LTP186	ltpFR	3	4	-1	OLIVE	975	5	-1	n/a	n/a	n/a	n/a	n/a
3233805	RECOG_TARGET	n/a	LTP186	ltpFR	3	4	-1	SEED	1266	5	-1	n/a	n/a	n/a	n/a	n/a
3234503	RECOG_RESP	n/a	LTP186	ltpFR	3	4	-1	SEED	1266	n/a	-1	n/a	n/a	n/a	n/a	n/a
3235130	RECOG_CONF	n/a	LTP186	ltpFR	3	4	-1	SEED	1266	5	-1	n/a	n/a	n/a	n/a	n/a
3237099	RECOG_TARGET	n/a	LTP186	ltpFR	3	4	1	DIRT	472	5	0	n/a	n/a	n/a	n/a	n/a
3237647	RECOG_RESP	n/a	LTP186	ltpFR	3	4	1	DIRT	472	n/a	0	n/a	n/a	n/a	n/a	n/a
3238221	RECOG_CONF	n/a	LTP186	ltpFR	3	4	1	DIRT	472	5	0	n/a	n/a	n/a	n/a	n/a
3239927	RECOG_TARGET	n/a	LTP186	ltpFR	3	4	1	FLEA	577	5	1	n/a	n/a	n/a	n/a	n/a
3240681	RECOG_RESP	n/a	LTP186	ltpFR	3	4	1	FLEA	577	n/a	1	n/a	n/a	n/a	n/a	n/a
3241416	RECOG_CONF	n/a	LTP186	ltpFR	3	4	1	FLEA	577	5	1	n/a	n/a	n/a	n/a	n/a
3243072	RECOG_LURE	n/a	LTP186	ltpFR	3	4	n/a	COBBLER	335	3	n/a	n/a	n/a	n/a	n/a	n/a
3244254	RECOG_RESP	n/a	LTP186	ltpFR	3	4	n/a	COBBLER	335	n/a	n/a	n/a	n/a	n/a	n/a	n/a
3244910	RECOG_CONF	n/a	LTP186	ltpFR	3	4	n/a	COBBLER	335	3	n/a	n/a	n/a	n/a	n/a	n/a
3246753	RECOG_LURE	n/a	LTP186	ltpFR	3	4	n/a	HATCHET	691	4	n/a	n/a	n/a	n/a	n/a	n/a
3247964	RECOG_RESP	n/a	LTP186	ltpFR	3	4	n/a	HATCHET	691	n/a	n/a	n/a	n/a	n/a	n/a	n/a
3248646	RECOG_CONF	n/a	LTP186	ltpFR	3	4	n/a	HATCHET	691	4	n/a	n/a	n/a	n/a	n/a	n/a
3250534	RECOG_LURE	n/a	LTP186	ltpFR	3	4	n/a	SOCKET	1340	4	n/a	n/a	n/a	n/a	n/a	n/a
3251496	RECOG_RESP	n/a	LTP186	ltpFR	3	4	n/a	SOCKET	1340	n/a	n/a	n/a	n/a	n/a	n/a	n/a
3253049	RECOG_CONF	n/a	LTP186	ltpFR	3	4	n/a	SOCKET	1340	4	n/a	n/a	n/a	n/a	n/a	n/a
3254650	RECOG_TARGET	n/a	LTP186	ltpFR	3	4	0	SUSPECT	1415	4	1	n/a	n/a	n/a	n/a	n/a
3255523	RECOG_RESP	n/a	LTP186	ltpFR	3	4	0	SUSPECT	1415	n/a	1	n/a	n/a	n/a	n/a	n/a
3256359	RECOG_CONF	n/a	LTP186	ltpFR	3	4	0	SUSPECT	1415	4	1	n/a	n/a	n/a	n/a	n/a
3258045	RECOG_TARGET	n/a	LTP186	ltpFR	3	4	1	SILVERWARE	1308	5	0	n/a	n/a	n/a	n/a	n/a
3258602	RECOG_RESP	n/a	LTP186	ltpFR	3	4	1	SILVERWARE	1308	n/a	0	n/a	n/a	n/a	n/a	n/a
3259235	RECOG_CONF	n/a	LTP186	ltpFR	3	4	1	SILVERWARE	1308	5	0	n/a	n/a	n/a	n/a	n/a
3261173	RECOG_TARGET	n/a	LTP186	ltpFR	3	4	1	WORM	1623	5	1	n/a	n/a	n/a	n/a	n/a
3261829	RECOG_RESP	n/a	LTP186	ltpFR	3	4	1	WORM	1623	n/a	1	n/a	n/a	n/a	n/a	n/a
3262362	RECOG_CONF	n/a	LTP186	ltpFR	3	4	1	WORM	1623	5	1	n/a	n/a	n/a	n/a	n/a
3264168	RECOG_TARGET	n/a	LTP186	ltpFR	3	4	1	NICOTINE	951	5	0	n/a	n/a	n/a	n/a	n/a
3264782	RECOG_RESP	n/a	LTP186	ltpFR	3	4	1	NICOTINE	951	n/a	0	n/a	n/a	n/a	n/a	n/a
3265421	RECOG_CONF	n/a	LTP186	ltpFR	3	4	1	NICOTINE	951	5	0	n/a	n/a	n/a	n/a	n/a
3273068	REC_START	n/a	LTP186	ltpFR	3	5	n/a	n/a	n/a	n/a	n/a	n/a	n/a	n/a	n/a	n/a
3273118	RECOG_TARGET	n/a	LTP186	ltpFR	3	5	1	ATHLETE	52	5	1	n/a	n/a	n/a	n/a	n/a
3273779	RECOG_RESP	n/a	LTP186	ltpFR	3	5	1	ATHLETE	52	n/a	1	n/a	n/a	n/a	n/a	n/a
3274430	RECOG_CONF	n/a	LTP186	ltpFR	3	5	1	ATHLETE	52	5	1	n/a	n/a	n/a	n/a	n/a
3276297	RECOG_TARGET	n/a	LTP186	ltpFR	3	5	1	ANCHOR	21	5	0	n/a	n/a	n/a	n/a	n/a
3276934	RECOG_RESP	n/a	LTP186	ltpFR	3	5	1	ANCHOR	21	n/a	0	n/a	n/a	n/a	n/a	n/a
3277489	RECOG_CONF	n/a	LTP186	ltpFR	3	5	1	ANCHOR	21	5	0	n/a	n/a	n/a	n/a	n/a
3279359	RECOG_TARGET	n/a	LTP186	ltpFR	3	5	1	BEVERAGE	123	5	0	n/a	n/a	n/a	n/a	n/a
3279916	RECOG_RESP	n/a	LTP186	ltpFR	3	5	1	BEVERAGE	123	n/a	0	n/a	n/a	n/a	n/a	n/a
3280566	RECOG_CONF	n/a	LTP186	ltpFR	3	5	1	BEVERAGE	123	5	0	n/a	n/a	n/a	n/a	n/a
3282353	RECOG_LURE	n/a	LTP186	ltpFR	3	5	n/a	MERMAID	887	3	n/a	n/a	n/a	n/a	n/a	n/a
3283967	RECOG_RESP	n/a	LTP186	ltpFR	3	5	n/a	MERMAID	887	n/a	n/a	n/a	n/a	n/a	n/a	n/a
3284567	RECOG_CONF	n/a	LTP186	ltpFR	3	5	n/a	MERMAID	887	3	n/a	n/a	n/a	n/a	n/a	n/a
3286587	RECOG_TARGET	n/a	LTP186	ltpFR	3	5	-1	TOASTER	1472	5	-1	n/a	n/a	n/a	n/a	n/a
3287179	RECOG_RESP	n/a	LTP186	ltpFR	3	5	-1	TOASTER	1472	n/a	-1	n/a	n/a	n/a	n/a	n/a
3287779	RECOG_CONF	n/a	LTP186	ltpFR	3	5	-1	TOASTER	1472	5	-1	n/a	n/a	n/a	n/a	n/a
3289715	RECOG_TARGET	n/a	LTP186	ltpFR	3	5	1	TULIP	1517	5	1	n/a	n/a	n/a	n/a	n/a
3290301	RECOG_RESP	n/a	LTP186	ltpFR	3	5	1	TULIP	1517	n/a	1	n/a	n/a	n/a	n/a	n/a
3290932	RECOG_CONF	n/a	LTP186	ltpFR	3	5	1	TULIP	1517	5	1	n/a	n/a	n/a	n/a	n/a
3292943	RECOG_LURE	n/a	LTP186	ltpFR	3	5	n/a	APPENDAGE	32	4	n/a	n/a	n/a	n/a	n/a	n/a
3294298	RECOG_RESP	n/a	LTP186	ltpFR	3	5	n/a	APPENDAGE	32	n/a	n/a	n/a	n/a	n/a	n/a	n/a
3295268	RECOG_CONF	n/a	LTP186	ltpFR	3	5	n/a	APPENDAGE	32	4	n/a	n/a	n/a	n/a	n/a	n/a
3296943	RECOG_TARGET	n/a	LTP186	ltpFR	3	5	0	OPERATOR	979	5	1	n/a	n/a	n/a	n/a	n/a
3297527	RECOG_RESP	n/a	LTP186	ltpFR	3	5	0	OPERATOR	979	n/a	1	n/a	n/a	n/a	n/a	n/a
3298126	RECOG_CONF	n/a	LTP186	ltpFR	3	5	0	OPERATOR	979	5	1	n/a	n/a	n/a	n/a	n/a
3300006	RECOG_TARGET	n/a	LTP186	ltpFR	3	5	1	CUSTOMER	430	5	1	n/a	n/a	n/a	n/a	n/a
3300648	RECOG_RESP	n/a	LTP186	ltpFR	3	5	1	CUSTOMER	430	n/a	1	n/a	n/a	n/a	n/a	n/a
3301349	RECOG_CONF	n/a	LTP186	ltpFR	3	5	1	CUSTOMER	430	5	1	n/a	n/a	n/a	n/a	n/a
3303169	RECOG_LURE	n/a	LTP186	ltpFR	3	5	n/a	PEARL	1034	3	n/a	n/a	n/a	n/a	n/a	n/a
3304203	RECOG_RESP	n/a	LTP186	ltpFR	3	5	n/a	PEARL	1034	n/a	n/a	n/a	n/a	n/a	n/a	n/a
3305080	RECOG_CONF	n/a	LTP186	ltpFR	3	5	n/a	PEARL	1034	3	n/a	n/a	n/a	n/a	n/a	n/a
3306766	RECOG_TARGET	n/a	LTP186	ltpFR	3	5	0	DOUGH	489	5	0	n/a	n/a	n/a	n/a	n/a
3307367	RECOG_RESP	n/a	LTP186	ltpFR	3	5	0	DOUGH	489	n/a	0	n/a	n/a	n/a	n/a	n/a
3307939	RECOG_CONF	n/a	LTP186	ltpFR	3	5	0	DOUGH	489	5	0	n/a	n/a	n/a	n/a	n/a
3309796	RECOG_TARGET	n/a	LTP186	ltpFR	3	5	-1	SAND	1230	5	-1	n/a	n/a	n/a	n/a	n/a
3310351	RECOG_RESP	n/a	LTP186	ltpFR	3	5	-1	SAND	1230	n/a	-1	n/a	n/a	n/a	n/a	n/a
3310977	RECOG_CONF	n/a	LTP186	ltpFR	3	5	-1	SAND	1230	5	-1	n/a	n/a	n/a	n/a	n/a
3312935	RECOG_LURE	n/a	LTP186	ltpFR	3	5	n/a	NURSERY	964	4	n/a	n/a	n/a	n/a	n/a	n/a
3313832	RECOG_RESP	n/a	LTP186	ltpFR	3	5	n/a	NURSERY	964	n/a	n/a	n/a	n/a	n/a	n/a	n/a
3314648	RECOG_CONF	n/a	LTP186	ltpFR	3	5	n/a	NURSERY	964	4	n/a	n/a	n/a	n/a	n/a	n/a
3316454	RECOG_TARGET	n/a	LTP186	ltpFR	3	5	-1	FAMILY	550	5	-1	n/a	n/a	n/a	n/a	n/a
3317081	RECOG_RESP	n/a	LTP186	ltpFR	3	5	-1	FAMILY	550	n/a	-1	n/a	n/a	n/a	n/a	n/a
3317841	RECOG_CONF	n/a	LTP186	ltpFR	3	5	-1	FAMILY	550	5	-1	n/a	n/a	n/a	n/a	n/a
3319578	RECOG_TARGET	n/a	LTP186	ltpFR	3	5	1	MARGARINE	868	5	0	n/a	n/a	n/a	n/a	n/a
3320187	RECOG_RESP	n/a	LTP186	ltpFR	3	5	1	MARGARINE	868	n/a	0	n/a	n/a	n/a	n/a	n/a
3320913	RECOG_CONF	n/a	LTP186	ltpFR	3	5	1	MARGARINE	868	5	0	n/a	n/a	n/a	n/a	n/a
3322857	RECOG_TARGET	n/a	LTP186	ltpFR	3	5	0	BASEBALL	93	3	0	n/a	n/a	n/a	n/a	n/a
3323942	RECOG_RESP	n/a	LTP186	ltpFR	3	5	0	BASEBALL	93	n/a	0	n/a	n/a	n/a	n/a	n/a
3325250	RECOG_CONF	n/a	LTP186	ltpFR	3	5	0	BASEBALL	93	3	0	n/a	n/a	n/a	n/a	n/a
3327274	RECOG_LURE	n/a	LTP186	ltpFR	3	5	n/a	SOFTBALL	1343	5	n/a	n/a	n/a	n/a	n/a	n/a
3328044	RECOG_RESP	n/a	LTP186	ltpFR	3	5	n/a	SOFTBALL	1343	n/a	n/a	n/a	n/a	n/a	n/a	n/a
3328746	RECOG_CONF	n/a	LTP186	ltpFR	3	5	n/a	SOFTBALL	1343	5	n/a	n/a	n/a	n/a	n/a	n/a
3330737	RECOG_TARGET	n/a	LTP186	ltpFR	3	5	0	FLASK	576	5	0	n/a	n/a	n/a	n/a	n/a
3331401	RECOG_RESP	n/a	LTP186	ltpFR	3	5	0	FLASK	576	n/a	0	n/a	n/a	n/a	n/a	n/a
3332079	RECOG_CONF	n/a	LTP186	ltpFR	3	5	0	FLASK	576	5	0	n/a	n/a	n/a	n/a	n/a
3333914	RECOG_LURE	n/a	LTP186	ltpFR	3	5	n/a	DIVER	476	3	n/a	n/a	n/a	n/a	n/a	n/a
3334755	RECOG_RESP	n/a	LTP186	ltpFR	3	5	n/a	DIVER	476	n/a	n/a	n/a	n/a	n/a	n/a	n/a
3335451	RECOG_CONF	n/a	LTP186	ltpFR	3	5	n/a	DIVER	476	3	n/a	n/a	n/a	n/a	n/a	n/a
3337227	RECOG_LURE	n/a	LTP186	ltpFR	3	5	n/a	FRANCE	601	5	n/a	n/a	n/a	n/a	n/a	n/a
3337967	RECOG_RESP	n/a	LTP186	ltpFR	3	5	n/a	FRANCE	601	n/a	n/a	n/a	n/a	n/a	n/a	n/a
3338565	RECOG_CONF	n/a	LTP186	ltpFR	3	5	n/a	FRANCE	601	5	n/a	n/a	n/a	n/a	n/a	n/a
3343863	REC_START	n/a	LTP186	ltpFR	3	6	n/a	n/a	n/a	n/a	n/a	n/a	n/a	n/a	n/a	n/a
3343903	RECOG_LURE	n/a	LTP186	ltpFR	3	6	n/a	JOINT	758	5	n/a	n/a	n/a	n/a	n/a	n/a
3345102	RECOG_RESP	n/a	LTP186	ltpFR	3	6	n/a	JOINT	758	n/a	n/a	n/a	n/a	n/a	n/a	n/a
3345998	RECOG_CONF	n/a	LTP186	ltpFR	3	6	n/a	JOINT	758	5	n/a	n/a	n/a	n/a	n/a	n/a
3347734	RECOG_LURE	n/a	LTP186	ltpFR	3	6	n/a	TAIL	1430	2	n/a	n/a	n/a	n/a	n/a	n/a
3348670	RECOG_RESP	n/a	LTP186	ltpFR	3	6	n/a	TAIL	1430	n/a	n/a	n/a	n/a	n/a	n/a	n/a
3349443	RECOG_CONF	n/a	LTP186	ltpFR	3	6	n/a	TAIL	1430	2	n/a	n/a	n/a	n/a	n/a	n/a
3351313	RECOG_LURE	n/a	LTP186	ltpFR	3	6	n/a	DOCTOR	478	5	n/a	n/a	n/a	n/a	n/a	n/a
3352122	RECOG_RESP	n/a	LTP186	ltpFR	3	6	n/a	DOCTOR	478	n/a	n/a	n/a	n/a	n/a	n/a	n/a
3352718	RECOG_CONF	n/a	LTP186	ltpFR	3	6	n/a	DOCTOR	478	5	n/a	n/a	n/a	n/a	n/a	n/a
3354526	RECOG_LURE	n/a	LTP186	ltpFR	3	6	n/a	LIEUTENANT	818	4	n/a	n/a	n/a	n/a	n/a	n/a
3355454	RECOG_RESP	n/a	LTP186	ltpFR	3	6	n/a	LIEUTENANT	818	n/a	n/a	n/a	n/a	n/a	n/a	n/a
3356026	RECOG_CONF	n/a	LTP186	ltpFR	3	6	n/a	LIEUTENANT	818	4	n/a	n/a	n/a	n/a	n/a	n/a
3358055	RECOG_LURE	n/a	LTP186	ltpFR	3	6	n/a	PHYSICIAN	1056	5	n/a	n/a	n/a	n/a	n/a	n/a
3358756	RECOG_RESP	n/a	LTP186	ltpFR	3	6	n/a	PHYSICIAN	1056	n/a	n/a	n/a	n/a	n/a	n/a	n/a
3359225	RECOG_CONF	n/a	LTP186	ltpFR	3	6	n/a	PHYSICIAN	1056	5	n/a	n/a	n/a	n/a	n/a	n/a
3361351	RECOG_LURE	n/a	LTP186	ltpFR	3	6	n/a	BRUISE	180	4	n/a	n/a	n/a	n/a	n/a	n/a
3362295	RECOG_RESP	n/a	LTP186	ltpFR	3	6	n/a	BRUISE	180	n/a	n/a	n/a	n/a	n/a	n/a	n/a
3362865	RECOG_CONF	n/a	LTP186	ltpFR	3	6	n/a	BRUISE	180	4	n/a	n/a	n/a	n/a	n/a	n/a
3364765	RECOG_TARGET	n/a	LTP186	ltpFR	3	6	0	PARSLEY	1016	5	0	n/a	n/a	n/a	n/a	n/a
3365511	RECOG_RESP	n/a	LTP186	ltpFR	3	6	0	PARSLEY	1016	n/a	0	n/a	n/a	n/a	n/a	n/a
3366081	RECOG_CONF	n/a	LTP186	ltpFR	3	6	0	PARSLEY	1016	5	0	n/a	n/a	n/a	n/a	n/a
3368026	RECOG_TARGET	n/a	LTP186	ltpFR	3	6	0	DRESSER	496	5	1	n/a	n/a	n/a	n/a	n/a
3368882	RECOG_RESP	n/a	LTP186	ltpFR	3	6	0	DRESSER	496	n/a	1	n/a	n/a	n/a	n/a	n/a
3369350	RECOG_CONF	n/a	LTP186	ltpFR	3	6	0	DRESSER	496	5	1	n/a	n/a	n/a	n/a	n/a
3371423	RECOG_LURE	n/a	LTP186	ltpFR	3	6	n/a	FATHER	554	5	n/a	n/a	n/a	n/a	n/a	n/a
3373535	RECOG_RESP	n/a	LTP186	ltpFR	3	6	n/a	FATHER	554	n/a	n/a	n/a	n/a	n/a	n/a	n/a
3374598	RECOG_CONF	n/a	LTP186	ltpFR	3	6	n/a	FATHER	554	5	n/a	n/a	n/a	n/a	n/a	n/a
3376532	RECOG_TARGET	n/a	LTP186	ltpFR	3	6	0	GRASS	655	5	1	n/a	n/a	n/a	n/a	n/a
3377091	RECOG_RESP	n/a	LTP186	ltpFR	3	6	0	GRASS	655	n/a	1	n/a	n/a	n/a	n/a	n/a
3377839	RECOG_CONF	n/a	LTP186	ltpFR	3	6	0	GRASS	655	5	1	n/a	n/a	n/a	n/a	n/a
3379671	RECOG_TARGET	n/a	LTP186	ltpFR	3	6	1	BUFFALO	186	5	1	n/a	n/a	n/a	n/a	n/a
3380249	RECOG_RESP	n/a	LTP186	ltpFR	3	6	1	BUFFALO	186	n/a	1	n/a	n/a	n/a	n/a	n/a
3380954	RECOG_CONF	n/a	LTP186	ltpFR	3	6	1	BUFFALO	186	5	1	n/a	n/a	n/a	n/a	n/a
3382699	RECOG_TARGET	n/a	LTP186	ltpFR	3	6	-1	ROOM	1206	5	-1	n/a	n/a	n/a	n/a	n/a
3383382	RECOG_RESP	n/a	LTP186	ltpFR	3	6	-1	ROOM	1206	n/a	-1	n/a	n/a	n/a	n/a	n/a
3383946	RECOG_CONF	n/a	LTP186	ltpFR	3	6	-1	ROOM	1206	5	-1	n/a	n/a	n/a	n/a	n/a
3385812	RECOG_TARGET	n/a	LTP186	ltpFR	3	6	1	FUR	615	5	0	n/a	n/a	n/a	n/a	n/a
3386415	RECOG_RESP	n/a	LTP186	ltpFR	3	6	1	FUR	615	n/a	0	n/a	n/a	n/a	n/a	n/a
3387070	RECOG_CONF	n/a	LTP186	ltpFR	3	6	1	FUR	615	5	0	n/a	n/a	n/a	n/a	n/a
3389041	RECOG_TARGET	n/a	LTP186	ltpFR	3	6	-1	WAVE	1596	5	-1	n/a	n/a	n/a	n/a	n/a
3389639	RECOG_RESP	n/a	LTP186	ltpFR	3	6	-1	WAVE	1596	n/a	-1	n/a	n/a	n/a	n/a	n/a
3390244	RECOG_CONF	n/a	LTP186	ltpFR	3	6	-1	WAVE	1596	5	-1	n/a	n/a	n/a	n/a	n/a
3392067	RECOG_LURE	n/a	LTP186	ltpFR	3	6	n/a	COMPASS	358	3	n/a	n/a	n/a	n/a	n/a	n/a
3394032	RECOG_RESP	n/a	LTP186	ltpFR	3	6	n/a	COMPASS	358	n/a	n/a	n/a	n/a	n/a	n/a	n/a
3394633	RECOG_CONF	n/a	LTP186	ltpFR	3	6	n/a	COMPASS	358	3	n/a	n/a	n/a	n/a	n/a	n/a
3396752	RECOG_LURE	n/a	LTP186	ltpFR	3	6	n/a	PORCH	1106	3	n/a	n/a	n/a	n/a	n/a	n/a
3397810	RECOG_RESP	n/a	LTP186	ltpFR	3	6	n/a	PORCH	1106	n/a	n/a	n/a	n/a	n/a	n/a	n/a
3398843	RECOG_CONF	n/a	LTP186	ltpFR	3	6	n/a	PORCH	1106	3	n/a	n/a	n/a	n/a	n/a	n/a
3400619	RECOG_TARGET	n/a	LTP186	ltpFR	3	6	0	ASTRONAUT	51	5	1	n/a	n/a	n/a	n/a	n/a
3401159	RECOG_RESP	n/a	LTP186	ltpFR	3	6	0	ASTRONAUT	51	n/a	1	n/a	n/a	n/a	n/a	n/a
3401836	RECOG_CONF	n/a	LTP186	ltpFR	3	6	0	ASTRONAUT	51	5	1	n/a	n/a	n/a	n/a	n/a
3403594	RECOG_LURE	n/a	LTP186	ltpFR	3	6	n/a	POTTERY	1116	1	n/a	n/a	n/a	n/a	n/a	n/a
3404364	RECOG_RESP	n/a	LTP186	ltpFR	3	6	n/a	POTTERY	1116	n/a	n/a	n/a	n/a	n/a	n/a	n/a
3406783	RECOG_CONF	n/a	LTP186	ltpFR	3	6	n/a	POTTERY	1116	1	n/a	n/a	n/a	n/a	n/a	n/a
3408781	RECOG_LURE	n/a	LTP186	ltpFR	3	6	n/a	KNIGHT	786	5	n/a	n/a	n/a	n/a	n/a	n/a
3409564	RECOG_RESP	n/a	LTP186	ltpFR	3	6	n/a	KNIGHT	786	n/a	n/a	n/a	n/a	n/a	n/a	n/a
3410217	RECOG_CONF	n/a	LTP186	ltpFR	3	6	n/a	KNIGHT	786	5	n/a	n/a	n/a	n/a	n/a	n/a
3411996	RECOG_LURE	n/a	LTP186	ltpFR	3	6	n/a	MILITARY	894	5	n/a	n/a	n/a	n/a	n/a	n/a
3412829	RECOG_RESP	n/a	LTP186	ltpFR	3	6	n/a	MILITARY	894	n/a	n/a	n/a	n/a	n/a	n/a	n/a
3413510	RECOG_CONF	n/a	LTP186	ltpFR	3	6	n/a	MILITARY	894	5	n/a	n/a	n/a	n/a	n/a	n/a
3418397	REC_START	n/a	LTP186	ltpFR	3	7	n/a	n/a	n/a	n/a	n/a	n/a	n/a	n/a	n/a	n/a
3418450	RECOG_LURE	n/a	LTP186	ltpFR	3	7	n/a	COMET	353	5	n/a	n/a	n/a	n/a	n/a	n/a
3419244	RECOG_RESP	n/a	LTP186	ltpFR	3	7	n/a	COMET	353	n/a	n/a	n/a	n/a	n/a	n/a	n/a
3419729	RECOG_CONF	n/a	LTP186	ltpFR	3	7	n/a	COMET	353	5	n/a	n/a	n/a	n/a	n/a	n/a
3421646	RECOG_TARGET	n/a	LTP186	ltpFR	3	7	0	SWEATER	1419	5	1	n/a	n/a	n/a	n/a	n/a
3422291	RECOG_RESP	n/a	LTP186	ltpFR	3	7	0	SWEATER	1419	n/a	1	n/a	n/a	n/a	n/a	n/a
3422932	RECOG_CONF	n/a	LTP186	ltpFR	3	7	0	SWEATER	1419	5	1	n/a	n/a	n/a	n/a	n/a
3424724	RECOG_LURE	n/a	LTP186	ltpFR	3	7	n/a	TEA	1439	1	n/a	n/a	n/a	n/a	n/a	n/a
3425306	RECOG_RESP	n/a	LTP186	ltpFR	3	7	n/a	TEA	1439	n/a	n/a	n/a	n/a	n/a	n/a	n/a
3427116	RECOG_CONF	n/a	LTP186	ltpFR	3	7	n/a	TEA	1439	1	n/a	n/a	n/a	n/a	n/a	n/a
3428890	RECOG_LURE	n/a	LTP186	ltpFR	3	7	n/a	SISTER	1312	5	n/a	n/a	n/a	n/a	n/a	n/a
3429726	RECOG_RESP	n/a	LTP186	ltpFR	3	7	n/a	SISTER	1312	n/a	n/a	n/a	n/a	n/a	n/a	n/a
3430325	RECOG_CONF	n/a	LTP186	ltpFR	3	7	n/a	SISTER	1312	5	n/a	n/a	n/a	n/a	n/a	n/a
3432151	RECOG_LURE	n/a	LTP186	ltpFR	3	7	n/a	COMEDIAN	352	5	n/a	n/a	n/a	n/a	n/a	n/a
3432866	RECOG_RESP	n/a	LTP186	ltpFR	3	7	n/a	COMEDIAN	352	n/a	n/a	n/a	n/a	n/a	n/a	n/a
3433388	RECOG_CONF	n/a	LTP186	ltpFR	3	7	n/a	COMEDIAN	352	5	n/a	n/a	n/a	n/a	n/a	n/a
3435296	RECOG_LURE	n/a	LTP186	ltpFR	3	7	n/a	COCKTAIL	338	3	n/a	n/a	n/a	n/a	n/a	n/a
3436296	RECOG_RESP	n/a	LTP186	ltpFR	3	7	n/a	COCKTAIL	338	n/a	n/a	n/a	n/a	n/a	n/a	n/a
3436949	RECOG_CONF	n/a	LTP186	ltpFR	3	7	n/a	COCKTAIL	338	3	n/a	n/a	n/a	n/a	n/a	n/a
3438777	RECOG_TARGET	n/a	LTP186	ltpFR	3	7	1	SPOOL	1356	5	0	n/a	n/a	n/a	n/a	n/a
3439503	RECOG_RESP	n/a	LTP186	ltpFR	3	7	1	SPOOL	1356	n/a	0	n/a	n/a	n/a	n/a	n/a
3440132	RECOG_CONF	n/a	LTP186	ltpFR	3	7	1	SPOOL	1356	5	0	n/a	n/a	n/a	n/a	n/a
3441872	RECOG_TARGET	n/a	LTP186	ltpFR	3	7	0	THESAURUS	1454	5	1	n/a	n/a	n/a	n/a	n/a
3442516	RECOG_RESP	n/a	LTP186	ltpFR	3	7	0	THESAURUS	1454	n/a	1	n/a	n/a	n/a	n/a	n/a
3443228	RECOG_CONF	n/a	LTP186	ltpFR	3	7	0	THESAURUS	1454	5	1	n/a	n/a	n/a	n/a	n/a
3445100	RECOG_TARGET	n/a	LTP186	ltpFR	3	7	1	RELATIVE	1182	5	1	n/a	n/a	n/a	n/a	n/a
3445800	RECOG_RESP	n/a	LTP186	ltpFR	3	7	1	RELATIVE	1182	n/a	1	n/a	n/a	n/a	n/a	n/a
3446418	RECOG_CONF	n/a	LTP186	ltpFR	3	7	1	RELATIVE	1182	5	1	n/a	n/a	n/a	n/a	n/a
3448145	RECOG_LURE	n/a	LTP186	ltpFR	3	7	n/a	VILLAGE	1566	4	n/a	n/a	n/a	n/a	n/a	n/a
3449516	RECOG_RESP	n/a	LTP186	ltpFR	3	7	n/a	VILLAGE	1566	n/a	n/a	n/a	n/a	n/a	n/a	n/a
3450379	RECOG_CONF	n/a	LTP186	ltpFR	3	7	n/a	VILLAGE	1566	4	n/a	n/a	n/a	n/a	n/a	n/a
3452160	RECOG_LURE	n/a	LTP186	ltpFR	3	7	n/a	SHOELACE	1289	4	n/a	n/a	n/a	n/a	n/a	n/a
3453050	RECOG_RESP	n/a	LTP186	ltpFR	3	7	n/a	SHOELACE	1289	n/a	n/a	n/a	n/a	n/a	n/a	n/a
3453822	RECOG_CONF	n/a	LTP186	ltpFR	3	7	n/a	SHOELACE	1289	4	n/a	n/a	n/a	n/a	n/a	n/a
3455724	RECOG_TARGET	n/a	LTP186	ltpFR	3	7	0	CLIPPERS	324	5	0	n/a	n/a	n/a	n/a	n/a
3456365	RECOG_RESP	n/a	LTP186	ltpFR	3	7	0	CLIPPERS	324	n/a	0	n/a	n/a	n/a	n/a	n/a
3457054	RECOG_CONF	n/a	LTP186	ltpFR	3	7	0	CLIPPERS	324	5	0	n/a	n/a	n/a	n/a	n/a
3458853	RECOG_TARGET	n/a	LTP186	ltpFR	3	7	1	MULE	931	5	1	n/a	n/a	n/a	n/a	n/a
3459603	RECOG_RESP	n/a	LTP186	ltpFR	3	7	1	MULE	931	n/a	1	n/a	n/a	n/a	n/a	n/a
3460259	RECOG_CONF	n/a	LTP186	ltpFR	3	7	1	MULE	931	5	1	n/a	n/a	n/a	n/a	n/a
3462064	RECOG_LURE	n/a	LTP186	ltpFR	3	7	n/a	TICK	1463	5	n/a	n/a	n/a	n/a	n/a	n/a
3462987	RECOG_RESP	n/a	LTP186	ltpFR	3	7	n/a	TICK	1463	n/a	n/a	n/a	n/a	n/a	n/a	n/a
3463619	RECOG_CONF	n/a	LTP186	ltpFR	3	7	n/a	TICK	1463	5	n/a	n/a	n/a	n/a	n/a	n/a
3465478	RECOG_LURE	n/a	LTP186	ltpFR	3	7	n/a	DAISY	435	5	n/a	n/a	n/a	n/a	n/a	n/a
3466356	RECOG_RESP	n/a	LTP186	ltpFR	3	7	n/a	DAISY	435	n/a	n/a	n/a	n/a	n/a	n/a	n/a
3466992	RECOG_CONF	n/a	LTP186	ltpFR	3	7	n/a	DAISY	435	5	n/a	n/a	n/a	n/a	n/a	n/a
3468757	RECOG_LURE	n/a	LTP186	ltpFR	3	7	n/a	RASH	1167	5	n/a	n/a	n/a	n/a	n/a	n/a
3469673	RECOG_RESP	n/a	LTP186	ltpFR	3	7	n/a	RASH	1167	n/a	n/a	n/a	n/a	n/a	n/a	n/a
3470328	RECOG_CONF	n/a	LTP186	ltpFR	3	7	n/a	RASH	1167	5	n/a	n/a	n/a	n/a	n/a	n/a
3472185	RECOG_LURE	n/a	LTP186	ltpFR	3	7	n/a	SILK	1307	4	n/a	n/a	n/a	n/a	n/a	n/a
3472990	RECOG_RESP	n/a	LTP186	ltpFR	3	7	n/a	SILK	1307	n/a	n/a	n/a	n/a	n/a	n/a	n/a
3473681	RECOG_CONF	n/a	LTP186	ltpFR	3	7	n/a	SILK	1307	4	n/a	n/a	n/a	n/a	n/a	n/a
3475599	RECOG_LURE	n/a	LTP186	ltpFR	3	7	n/a	COMB	351	1	n/a	n/a	n/a	n/a	n/a	n/a
3476441	RECOG_RESP	n/a	LTP186	ltpFR	3	7	n/a	COMB	351	n/a	n/a	n/a	n/a	n/a	n/a	n/a
3477329	RECOG_CONF	n/a	LTP186	ltpFR	3	7	n/a	COMB	351	1	n/a	n/a	n/a	n/a	n/a	n/a
3479212	RECOG_TARGET	n/a	LTP186	ltpFR	3	7	1	PANTHER	1009	5	1	n/a	n/a	n/a	n/a	n/a
3480111	RECOG_RESP_VV	n/a	LTP186	ltpFR	3	7	1	PANTHER	1009	n/a	1	n/a	n/a	n/a	n/a	n/a
3481067	RECOG_RESP	n/a	LTP186	ltpFR	3	7	1	PANTHER	1009	n/a	1	n/a	n/a	n/a	n/a	n/a
3482351	RECOG_CONF	n/a	LTP186	ltpFR	3	7	1	PANTHER	1009	5	1	n/a	n/a	n/a	n/a	n/a
3484281	RECOG_TARGET	n/a	LTP186	ltpFR	3	7	0	STRAW	1390	5	1	n/a	n/a	n/a	n/a	n/a
3484931	RECOG_RESP	n/a	LTP186	ltpFR	3	7	0	STRAW	1390	n/a	1	n/a	n/a	n/a	n/a	n/a
3485518	RECOG_CONF	n/a	LTP186	ltpFR	3	7	0	STRAW	1390	5	1	n/a	n/a	n/a	n/a	n/a
3498719	REC_START	n/a	LTP186	ltpFR	3	8	n/a	n/a	n/a	n/a	n/a	n/a	n/a	n/a	n/a	n/a
3498770	RECOG_TARGET	n/a	LTP186	ltpFR	3	8	0	OVAL	990	5	0	n/a	n/a	n/a	n/a	n/a
3499363	RECOG_RESP	n/a	LTP186	ltpFR	3	8	0	OVAL	990	n/a	0	n/a	n/a	n/a	n/a	n/a
3500071	RECOG_CONF	n/a	LTP186	ltpFR	3	8	0	OVAL	990	5	0	n/a	n/a	n/a	n/a	n/a
3502065	RECOG_LURE	n/a	LTP186	ltpFR	3	8	n/a	RUST	1219	4	n/a	n/a	n/a	n/a	n/a	n/a
3502720	RECOG_RESP	n/a	LTP186	ltpFR	3	8	n/a	RUST	1219	n/a	n/a	n/a	n/a	n/a	n/a	n/a
3503527	RECOG_CONF	n/a	LTP186	ltpFR	3	8	n/a	RUST	1219	4	n/a	n/a	n/a	n/a	n/a	n/a
3505394	RECOG_TARGET	n/a	LTP186	ltpFR	3	8	1	VEAL	1551	5	0	n/a	n/a	n/a	n/a	n/a
3505972	RECOG_RESP	n/a	LTP186	ltpFR	3	8	1	VEAL	1551	n/a	0	n/a	n/a	n/a	n/a	n/a
3506626	RECOG_CONF	n/a	LTP186	ltpFR	3	8	1	VEAL	1551	5	0	n/a	n/a	n/a	n/a	n/a
3508456	RECOG_LURE	n/a	LTP186	ltpFR	3	8	n/a	GLACIER	638	4	n/a	n/a	n/a	n/a	n/a	n/a
3509479	RECOG_RESP	n/a	LTP186	ltpFR	3	8	n/a	GLACIER	638	n/a	n/a	n/a	n/a	n/a	n/a	n/a
3510084	RECOG_CONF	n/a	LTP186	ltpFR	3	8	n/a	GLACIER	638	4	n/a	n/a	n/a	n/a	n/a	n/a
3511952	RECOG_TARGET	n/a	LTP186	ltpFR	3	8	0	BOULDER	155	5	1	n/a	n/a	n/a	n/a	n/a
3512603	RECOG_RESP	n/a	LTP186	ltpFR	3	8	0	BOULDER	155	n/a	1	n/a	n/a	n/a	n/a	n/a
3513173	RECOG_CONF	n/a	LTP186	ltpFR	3	8	0	BOULDER	155	5	1	n/a	n/a	n/a	n/a	n/a
3515147	RECOG_LURE	n/a	LTP186	ltpFR	3	8	n/a	SURF	1412	5	n/a	n/a	n/a	n/a	n/a	n/a
3516053	RECOG_RESP	n/a	LTP186	ltpFR	3	8	n/a	SURF	1412	n/a	n/a	n/a	n/a	n/a	n/a	n/a
3516668	RECOG_CONF	n/a	LTP186	ltpFR	3	8	n/a	SURF	1412	5	n/a	n/a	n/a	n/a	n/a	n/a
3518511	RECOG_TARGET	n/a	LTP186	ltpFR	3	8	0	THUMB	1462	5	0	n/a	n/a	n/a	n/a	n/a
3519135	RECOG_RESP	n/a	LTP186	ltpFR	3	8	0	THUMB	1462	n/a	0	n/a	n/a	n/a	n/a	n/a
3519699	RECOG_CONF	n/a	LTP186	ltpFR	3	8	0	THUMB	1462	5	0	n/a	n/a	n/a	n/a	n/a
3521740	RECOG_TARGET	n/a	LTP186	ltpFR	3	8	1	CLARINET	317	1	0	n/a	n/a	n/a	n/a	n/a
3522919	RECOG_RESP	n/a	LTP186	ltpFR	3	8	1	CLARINET	317	n/a	0	n/a	n/a	n/a	n/a	n/a
3525732	RECOG_CONF	n/a	LTP186	ltpFR	3	8	1	CLARINET	317	1	0	n/a	n/a	n/a	n/a	n/a
3527899	RECOG_LURE	n/a	LTP186	ltpFR	3	8	n/a	FIG	563	5	n/a	n/a	n/a	n/a	n/a	n/a
3528674	RECOG_RESP	n/a	LTP186	ltpFR	3	8	n/a	FIG	563	n/a	n/a	n/a	n/a	n/a	n/a	n/a
3529441	RECOG_CONF	n/a	LTP186	ltpFR	3	8	n/a	FIG	563	5	n/a	n/a	n/a	n/a	n/a	n/a
3531194	RECOG_LURE	n/a	LTP186	ltpFR	3	8	n/a	ARTICLE	42	1	n/a	n/a	n/a	n/a	n/a	n/a
3533143	RECOG_RESP	n/a	LTP186	ltpFR	3	8	n/a	ARTICLE	42	n/a	n/a	n/a	n/a	n/a	n/a	n/a
3534343	RECOG_CONF	n/a	LTP186	ltpFR	3	8	n/a	ARTICLE	42	1	n/a	n/a	n/a	n/a	n/a	n/a
3536344	RECOG_LURE	n/a	LTP186	ltpFR	3	8	n/a	SPARROW	1347	5	n/a	n/a	n/a	n/a	n/a	n/a
3537168	RECOG_RESP	n/a	LTP186	ltpFR	3	8	n/a	SPARROW	1347	n/a	n/a	n/a	n/a	n/a	n/a	n/a
3537775	RECOG_CONF	n/a	LTP186	ltpFR	3	8	n/a	SPARROW	1347	5	n/a	n/a	n/a	n/a	n/a	n/a
3539523	RECOG_TARGET	n/a	LTP186	ltpFR	3	8	1	ALMOND	18	5	0	n/a	n/a	n/a	n/a	n/a
3540164	RECOG_RESP	n/a	LTP186	ltpFR	3	8	1	ALMOND	18	n/a	0	n/a	n/a	n/a	n/a	n/a
3540778	RECOG_CONF	n/a	LTP186	ltpFR	3	8	1	ALMOND	18	5	0	n/a	n/a	n/a	n/a	n/a
3542585	RECOG_LURE	n/a	LTP186	ltpFR	3	8	n/a	FOLDER	588	4	n/a	n/a	n/a	n/a	n/a	n/a
3543441	RECOG_RESP	n/a	LTP186	ltpFR	3	8	n/a	FOLDER	588	n/a	n/a	n/a	n/a	n/a	n/a	n/a
3544041	RECOG_CONF	n/a	LTP186	ltpFR	3	8	n/a	FOLDER	588	4	n/a	n/a	n/a	n/a	n/a	n/a
3545897	RECOG_TARGET	n/a	LTP186	ltpFR	3	8	1	GLUE	643	5	0	n/a	n/a	n/a	n/a	n/a
