mstime	trial_type	stim_file	subject	experiment	session	trial	task	item_name	item_num	recog_conf	resp	answer	test_x	test_y	test_z	color_b	color_g	color_r	case	font
0	SESS_START	n/a	LTP138	ltpFR	13	n/a	n/a	n/a	n/a	4	n/a	n/a	0	0	0	n/a	n/a	n/a	n/a	n/a
44042	START	n/a	LTP138	ltpFR	13	n/a	n/a	n/a	n/a	n/a	n/a	n/a	n/a	n/a	n/a	n/a	n/a	n/a	n/a	n/a
44067	PROB	n/a	LTP138	ltpFR	13	n/a	n/a	n/a	n/a	n/a	n/a	5	2	1	2	n/a	n/a	n/a	n/a	n/a
45915	PROB	n/a	LTP138	ltpFR	13	n/a	n/a	n/a	n/a	n/a	n/a	10	3	5	2	n/a	n/a	n/a	n/a	n/a
47620	PROB	n/a	LTP138	ltpFR	13	n/a	n/a	n/a	n/a	n/a	n/a	10	2	5	3	n/a	n/a	n/a	n/a	n/a
49286	PROB	n/a	LTP138	ltpFR	13	n/a	n/a	n/a	n/a	n/a	n/a	14	3	7	4	n/a	n/a	n/a	n/a	n/a
51383	PROB	n/a	LTP138	ltpFR	13	n/a	n/a	n/a	n/a	n/a	n/a	17	6	9	2	n/a	n/a	n/a	n/a	n/a
53290	PROB	n/a	LTP138	ltpFR	13	n/a	n/a	n/a	n/a	n/a	n/a	14	7	4	3	n/a	n/a	n/a	n/a	n/a
55345	PROB	n/a	LTP138	ltpFR	13	n/a	n/a	n/a	n/a	n/a	n/a	11	1	9	1	n/a	n/a	n/a	n/a	n/a
56560	PROB	n/a	LTP138	ltpFR	13	n/a	n/a	n/a	n/a	n/a	n/a	10	2	4	4	n/a	n/a	n/a	n/a	n/a
58134	PROB	n/a	LTP138	ltpFR	13	n/a	n/a	n/a	n/a	n/a	n/a	11	5	3	3	n/a	n/a	n/a	n/a	n/a
59881	PROB	n/a	LTP138	ltpFR	13	n/a	n/a	n/a	n/a	n/a	n/a	17	8	2	7	n/a	n/a	n/a	n/a	n/a
61596	PROB	n/a	LTP138	ltpFR	13	n/a	n/a	n/a	n/a	n/a	n/a	10	2	7	1	n/a	n/a	n/a	n/a	n/a
63488	STOP	n/a	LTP138	ltpFR	13	n/a	n/a	n/a	n/a	n/a	n/a	n/a	n/a	n/a	n/a	n/a	n/a	n/a	n/a	n/a
121269	WORD	wordpools/wasnorm_wordpool.txt	LTP138	ltpFR	13	1	1	VISITOR	1573	n/a	1	n/a	0	0	0	0	0.5869140625	0.422607421875	lower	../fonts/zerothre.ttf
125181	WORD	wordpools/wasnorm_wordpool.txt	LTP138	ltpFR	13	1	1	LOCK	838	n/a	0	n/a	0	0	0	0	0.5869140625	0.422607421875	lower	../fonts/zerothre.ttf
129351	WORD	wordpools/wasnorm_wordpool.txt	LTP138	ltpFR	13	1	1	KNOB	787	n/a	0	n/a	0	0	0	0	0.5869140625	0.422607421875	lower	../fonts/zerothre.ttf
133537	WORD	wordpools/wasnorm_wordpool.txt	LTP138	ltpFR	13	1	0	TURKEY	1520	n/a	1	n/a	0	0	0	1	0.412841796875	0.57763671875	upper	../fonts/amplitud.ttf
137657	WORD	wordpools/wasnorm_wordpool.txt	LTP138	ltpFR	13	1	0	ENEMY	534	n/a	1	n/a	0	0	0	1	0.412841796875	0.57763671875	upper	../fonts/amplitud.ttf
141711	WORD	wordpools/wasnorm_wordpool.txt	LTP138	ltpFR	13	1	0	LOBSTER	837	n/a	0	n/a	0	0	0	1	0.412841796875	0.57763671875	upper	../fonts/amplitud.ttf
145790	WORD	wordpools/wasnorm_wordpool.txt	LTP138	ltpFR	13	1	0	NEWSPAPER	948	n/a	0	n/a	0	0	0	1	0.412841796875	0.57763671875	upper	../fonts/amplitud.ttf
149910	WORD	wordpools/wasnorm_wordpool.txt	LTP138	ltpFR	13	1	0	SUPPER	1411	n/a	0	n/a	0	0	0	1	0.412841796875	0.57763671875	upper	../fonts/amplitud.ttf
154106	WORD	wordpools/wasnorm_wordpool.txt	LTP138	ltpFR	13	1	1	HOUSE	725	n/a	1	n/a	0	0	0	0	0.5869140625	0.422607421875	lower	../fonts/zerothre.ttf
157927	WORD	wordpools/wasnorm_wordpool.txt	LTP138	ltpFR	13	1	1	TOWN	1491	n/a	0	n/a	0	0	0	0	0.5869140625	0.422607421875	lower	../fonts/zerothre.ttf
161888	WORD	wordpools/wasnorm_wordpool.txt	LTP138	ltpFR	13	1	0	RAISIN	1163	n/a	0	n/a	0	0	0	1	0.412841796875	0.57763671875	upper	../fonts/amplitud.ttf
165959	WORD	wordpools/wasnorm_wordpool.txt	LTP138	ltpFR	13	1	0	STOMACH	1384	n/a	0	n/a	0	0	0	1	0.412841796875	0.57763671875	upper	../fonts/amplitud.ttf
169812	WORD	wordpools/wasnorm_wordpool.txt	LTP138	ltpFR	13	1	0	RIB	1188	n/a	0	n/a	0	0	0	1	0.412841796875	0.57763671875	upper	../fonts/amplitud.ttf
173749	WORD	wordpools/wasnorm_wordpool.txt	LTP138	ltpFR	13	1	1	APE	31	n/a	1	n/a	0	0	0	0	0.5869140625	0.422607421875	lower	../fonts/zerothre.ttf
177778	WORD	wordpools/wasnorm_wordpool.txt	LTP138	ltpFR	13	1	1	PEN	1041	n/a	0	n/a	0	0	0	0	0.5869140625	0.422607421875	lower	../fonts/zerothre.ttf
181648	WORD	wordpools/wasnorm_wordpool.txt	LTP138	ltpFR	13	1	1	SCROLL	1257	n/a	0	n/a	0	0	0	0	0.5869140625	0.422607421875	lower	../fonts/zerothre.ttf
184653	START	n/a	LTP138	ltpFR	13	n/a	n/a	n/a	n/a	n/a	n/a	n/a	n/a	n/a	n/a	n/a	n/a	n/a	n/a	n/a
185835	PROB	n/a	LTP138	ltpFR	13	n/a	n/a	n/a	n/a	n/a	n/a	16	4	8	4	n/a	n/a	n/a	n/a	n/a
187758	PROB	n/a	LTP138	ltpFR	13	n/a	n/a	n/a	n/a	n/a	n/a	15	1	7	7	n/a	n/a	n/a	n/a	n/a
189232	PROB	n/a	LTP138	ltpFR	13	n/a	n/a	n/a	n/a	n/a	n/a	13	3	7	3	n/a	n/a	n/a	n/a	n/a
190646	PROB	n/a	LTP138	ltpFR	13	n/a	n/a	n/a	n/a	n/a	n/a	6	1	2	3	n/a	n/a	n/a	n/a	n/a
192177	STOP	n/a	LTP138	ltpFR	13	n/a	n/a	n/a	n/a	n/a	n/a	n/a	n/a	n/a	n/a	n/a	n/a	n/a	n/a	n/a
194459	REC_START	n/a	LTP138	ltpFR	13	1	n/a	n/a	n/a	n/a	n/a	n/a	0	0	0	n/a	n/a	n/a	n/a	n/a
195326	REC_WORD	wordpools/wasnorm_wordpool.txt	LTP138	ltpFR	13	1	0	STOMACH	1384	n/a	0	n/a	0	0	0	n/a	n/a	n/a	n/a	n/a
196449	REC_WORD	wordpools/wasnorm_wordpool.txt	LTP138	ltpFR	13	1	0	RIB	1188	n/a	0	n/a	0	0	0	n/a	n/a	n/a	n/a	n/a
197447	REC_WORD	wordpools/wasnorm_wordpool.txt	LTP138	ltpFR	13	1	1	APE	31	n/a	1	n/a	0	0	0	n/a	n/a	n/a	n/a	n/a
198310	REC_WORD	wordpools/wasnorm_wordpool.txt	LTP138	ltpFR	13	1	0	RAISIN	1163	n/a	0	n/a	0	0	0	n/a	n/a	n/a	n/a	n/a
199452	REC_WORD_VV	wordpools/wasnorm_wordpool.txt	LTP138	ltpFR	13	1	n/a	<>	-1	n/a	n/a	n/a	0	0	0	n/a	n/a	n/a	n/a	n/a
199772	REC_WORD	wordpools/wasnorm_wordpool.txt	LTP138	ltpFR	13	1	0	LOBSTER	837	n/a	0	n/a	0	0	0	n/a	n/a	n/a	n/a	n/a
201122	REC_WORD	wordpools/wasnorm_wordpool.txt	LTP138	ltpFR	13	1	0	NEWSPAPER	948	n/a	0	n/a	0	0	0	n/a	n/a	n/a	n/a	n/a
202436	REC_WORD	wordpools/wasnorm_wordpool.txt	LTP138	ltpFR	13	1	1	HOUSE	725	n/a	1	n/a	0	0	0	n/a	n/a	n/a	n/a	n/a
203359	REC_WORD	wordpools/wasnorm_wordpool.txt	LTP138	ltpFR	13	1	1	TOWN	1491	n/a	0	n/a	0	0	0	n/a	n/a	n/a	n/a	n/a
205045	REC_WORD	wordpools/wasnorm_wordpool.txt	LTP138	ltpFR	13	1	0	ENEMY	534	n/a	1	n/a	0	0	0	n/a	n/a	n/a	n/a	n/a
206226	REC_WORD	wordpools/wasnorm_wordpool.txt	LTP138	ltpFR	13	1	1	VISITOR	1573	n/a	1	n/a	0	0	0	n/a	n/a	n/a	n/a	n/a
207389	REC_WORD	wordpools/wasnorm_wordpool.txt	LTP138	ltpFR	13	1	1	KNOB	787	n/a	0	n/a	0	0	0	n/a	n/a	n/a	n/a	n/a
208721	REC_WORD	wordpools/wasnorm_wordpool.txt	LTP138	ltpFR	13	1	1	LOCK	838	n/a	0	n/a	0	0	0	n/a	n/a	n/a	n/a	n/a
211565	REC_WORD	wordpools/wasnorm_wordpool.txt	LTP138	ltpFR	13	1	0	TURKEY	1520	n/a	1	n/a	0	0	0	n/a	n/a	n/a	n/a	n/a
213669	REC_WORD	wordpools/wasnorm_wordpool.txt	LTP138	ltpFR	13	1	0	SUPPER	1411	n/a	0	n/a	0	0	0	n/a	n/a	n/a	n/a	n/a
218204	REC_WORD	wordpools/wasnorm_wordpool.txt	LTP138	ltpFR	13	1	1	SCROLL	1257	n/a	0	n/a	0	0	0	n/a	n/a	n/a	n/a	n/a
219781	REC_WORD	wordpools/wasnorm_wordpool.txt	LTP138	ltpFR	13	1	1	PEN	1041	n/a	0	n/a	0	0	0	n/a	n/a	n/a	n/a	n/a
292878	START	n/a	LTP138	ltpFR	13	n/a	n/a	n/a	n/a	n/a	n/a	n/a	n/a	n/a	n/a	n/a	n/a	n/a	n/a	n/a
294385	PROB	n/a	LTP138	ltpFR	13	n/a	n/a	n/a	n/a	n/a	n/a	10	1	7	2	n/a	n/a	n/a	n/a	n/a
296698	PROB	n/a	LTP138	ltpFR	13	n/a	n/a	n/a	n/a	n/a	n/a	18	7	6	5	n/a	n/a	n/a	n/a	n/a
298663	PROB	n/a	LTP138	ltpFR	13	n/a	n/a	n/a	n/a	n/a	n/a	17	7	3	7	n/a	n/a	n/a	n/a	n/a
300528	STOP	n/a	LTP138	ltpFR	13	n/a	n/a	n/a	n/a	n/a	n/a	n/a	n/a	n/a	n/a	n/a	n/a	n/a	n/a	n/a
301901	WORD	wordpools/wasnorm_wordpool.txt	LTP138	ltpFR	13	2	0	KID	775	n/a	0	n/a	0	0	0	1	0.412841796875	0.57763671875	upper	../fonts/amplitud.ttf
304906	START	n/a	LTP138	ltpFR	13	n/a	n/a	n/a	n/a	n/a	n/a	n/a	n/a	n/a	n/a	n/a	n/a	n/a	n/a	n/a
306072	PROB	n/a	LTP138	ltpFR	13	n/a	n/a	n/a	n/a	n/a	n/a	14	4	4	6	n/a	n/a	n/a	n/a	n/a
308968	PROB	n/a	LTP138	ltpFR	13	n/a	n/a	n/a	n/a	n/a	n/a	13	2	8	3	n/a	n/a	n/a	n/a	n/a
310699	PROB	n/a	LTP138	ltpFR	13	n/a	n/a	n/a	n/a	n/a	n/a	9	1	5	3	n/a	n/a	n/a	n/a	n/a
312193	STOP	n/a	LTP138	ltpFR	13	n/a	n/a	n/a	n/a	n/a	n/a	n/a	n/a	n/a	n/a	n/a	n/a	n/a	n/a	n/a
313878	WORD	wordpools/wasnorm_wordpool.txt	LTP138	ltpFR	13	2	0	GOBLIN	645	n/a	0	n/a	0	0	0	1	0.412841796875	0.57763671875	upper	../fonts/amplitud.ttf
316884	START	n/a	LTP138	ltpFR	13	n/a	n/a	n/a	n/a	n/a	n/a	n/a	n/a	n/a	n/a	n/a	n/a	n/a	n/a	n/a
318033	PROB	n/a	LTP138	ltpFR	13	n/a	n/a	n/a	n/a	n/a	n/a	13	1	5	7	n/a	n/a	n/a	n/a	n/a
319513	PROB	n/a	LTP138	ltpFR	13	n/a	n/a	n/a	n/a	n/a	n/a	15	3	2	9	n/a	n/a	n/a	n/a	n/a
321054	PROB	n/a	LTP138	ltpFR	13	n/a	n/a	n/a	n/a	n/a	n/a	13	2	8	3	n/a	n/a	n/a	n/a	n/a
322493	PROB	n/a	LTP138	ltpFR	13	n/a	n/a	n/a	n/a	n/a	n/a	17	9	7	1	n/a	n/a	n/a	n/a	n/a
323848	STOP	n/a	LTP138	ltpFR	13	n/a	n/a	n/a	n/a	n/a	n/a	n/a	n/a	n/a	n/a	n/a	n/a	n/a	n/a	n/a
325990	WORD	wordpools/wasnorm_wordpool.txt	LTP138	ltpFR	13	2	0	CANE	231	n/a	0	n/a	0	0	0	1	0.412841796875	0.57763671875	upper	../fonts/amplitud.ttf
328996	START	n/a	LTP138	ltpFR	13	n/a	n/a	n/a	n/a	n/a	n/a	n/a	n/a	n/a	n/a	n/a	n/a	n/a	n/a	n/a
330077	PROB	n/a	LTP138	ltpFR	13	n/a	n/a	n/a	n/a	n/a	n/a	21	9	3	9	n/a	n/a	n/a	n/a	n/a
332823	PROB	n/a	LTP138	ltpFR	13	n/a	n/a	n/a	n/a	n/a	n/a	16	6	3	7	n/a	n/a	n/a	n/a	n/a
334447	PROB	n/a	LTP138	ltpFR	13	n/a	n/a	n/a	n/a	n/a	n/a	6	1	2	3	n/a	n/a	n/a	n/a	n/a
335520	STOP	n/a	LTP138	ltpFR	13	n/a	n/a	n/a	n/a	n/a	n/a	n/a	n/a	n/a	n/a	n/a	n/a	n/a	n/a	n/a
337926	WORD	wordpools/wasnorm_wordpool.txt	LTP138	ltpFR	13	2	0	OPERA	978	n/a	1	n/a	0	0	0	1	0.412841796875	0.57763671875	upper	../fonts/amplitud.ttf
340932	START	n/a	LTP138	ltpFR	13	n/a	n/a	n/a	n/a	n/a	n/a	n/a	n/a	n/a	n/a	n/a	n/a	n/a	n/a	n/a
341838	PROB	n/a	LTP138	ltpFR	13	n/a	n/a	n/a	n/a	n/a	n/a	16	7	5	4	n/a	n/a	n/a	n/a	n/a
343619	PROB	n/a	LTP138	ltpFR	13	n/a	n/a	n/a	n/a	n/a	n/a	18	7	8	3	n/a	n/a	n/a	n/a	n/a
345708	PROB	n/a	LTP138	ltpFR	13	n/a	n/a	n/a	n/a	n/a	n/a	13	4	8	1	n/a	n/a	n/a	n/a	n/a
347624	STOP	n/a	LTP138	ltpFR	13	n/a	n/a	n/a	n/a	n/a	n/a	n/a	n/a	n/a	n/a	n/a	n/a	n/a	n/a	n/a
349988	WORD	wordpools/wasnorm_wordpool.txt	LTP138	ltpFR	13	2	0	RADISH	1158	n/a	0	n/a	0	0	0	1	0.412841796875	0.57763671875	upper	../fonts/amplitud.ttf
352993	START	n/a	LTP138	ltpFR	13	n/a	n/a	n/a	n/a	n/a	n/a	n/a	n/a	n/a	n/a	n/a	n/a	n/a	n/a	n/a
353983	PROB	n/a	LTP138	ltpFR	13	n/a	n/a	n/a	n/a	n/a	n/a	11	2	4	5	n/a	n/a	n/a	n/a	n/a
355605	PROB	n/a	LTP138	ltpFR	13	n/a	n/a	n/a	n/a	n/a	n/a	15	3	8	4	n/a	n/a	n/a	n/a	n/a
358468	PROB	n/a	LTP138	ltpFR	13	n/a	n/a	n/a	n/a	n/a	n/a	12	3	1	8	n/a	n/a	n/a	n/a	n/a
360113	STOP	n/a	LTP138	ltpFR	13	n/a	n/a	n/a	n/a	n/a	n/a	n/a	n/a	n/a	n/a	n/a	n/a	n/a	n/a	n/a
362098	WORD	wordpools/wasnorm_wordpool.txt	LTP138	ltpFR	13	2	0	TEACHER	1440	n/a	1	n/a	0	0	0	1	0.412841796875	0.57763671875	upper	../fonts/amplitud.ttf
365104	START	n/a	LTP138	ltpFR	13	n/a	n/a	n/a	n/a	n/a	n/a	n/a	n/a	n/a	n/a	n/a	n/a	n/a	n/a	n/a
366136	PROB	n/a	LTP138	ltpFR	13	n/a	n/a	n/a	n/a	n/a	n/a	9	2	1	6	n/a	n/a	n/a	n/a	n/a
367566	PROB	n/a	LTP138	ltpFR	13	n/a	n/a	n/a	n/a	n/a	n/a	14	1	8	5	n/a	n/a	n/a	n/a	n/a
370197	PROB	n/a	LTP138	ltpFR	13	n/a	n/a	n/a	n/a	n/a	n/a	20	4	9	7	n/a	n/a	n/a	n/a	n/a
372305	STOP	n/a	LTP138	ltpFR	13	n/a	n/a	n/a	n/a	n/a	n/a	n/a	n/a	n/a	n/a	n/a	n/a	n/a	n/a	n/a
374243	WORD	wordpools/wasnorm_wordpool.txt	LTP138	ltpFR	13	2	0	STUDENT	1395	n/a	1	n/a	0	0	0	1	0.412841796875	0.57763671875	upper	../fonts/amplitud.ttf
377248	START	n/a	LTP138	ltpFR	13	n/a	n/a	n/a	n/a	n/a	n/a	n/a	n/a	n/a	n/a	n/a	n/a	n/a	n/a	n/a
378197	PROB	n/a	LTP138	ltpFR	13	n/a	n/a	n/a	n/a	n/a	n/a	16	7	6	3	n/a	n/a	n/a	n/a	n/a
380078	PROB	n/a	LTP138	ltpFR	13	n/a	n/a	n/a	n/a	n/a	n/a	14	4	4	6	n/a	n/a	n/a	n/a	n/a
381567	PROB	n/a	LTP138	ltpFR	13	n/a	n/a	n/a	n/a	n/a	n/a	19	5	8	6	n/a	n/a	n/a	n/a	n/a
384512	STOP	n/a	LTP138	ltpFR	13	n/a	n/a	n/a	n/a	n/a	n/a	n/a	n/a	n/a	n/a	n/a	n/a	n/a	n/a	n/a
386146	WORD	wordpools/wasnorm_wordpool.txt	LTP138	ltpFR	13	2	0	OBOE	969	n/a	0	n/a	0	0	0	1	0.412841796875	0.57763671875	upper	../fonts/amplitud.ttf
389151	START	n/a	LTP138	ltpFR	13	n/a	n/a	n/a	n/a	n/a	n/a	n/a	n/a	n/a	n/a	n/a	n/a	n/a	n/a	n/a
390066	PROB	n/a	LTP138	ltpFR	13	n/a	n/a	n/a	n/a	n/a	n/a	14	3	6	5	n/a	n/a	n/a	n/a	n/a
394103	PROB	n/a	LTP138	ltpFR	13	n/a	n/a	n/a	n/a	n/a	n/a	12	4	7	1	n/a	n/a	n/a	n/a	n/a
396177	STOP	n/a	LTP138	ltpFR	13	n/a	n/a	n/a	n/a	n/a	n/a	n/a	n/a	n/a	n/a	n/a	n/a	n/a	n/a	n/a
398157	WORD	wordpools/wasnorm_wordpool.txt	LTP138	ltpFR	13	2	0	CABBAGE	210	n/a	0	n/a	0	0	0	1	0.412841796875	0.57763671875	upper	../fonts/amplitud.ttf
401162	START	n/a	LTP138	ltpFR	13	n/a	n/a	n/a	n/a	n/a	n/a	n/a	n/a	n/a	n/a	n/a	n/a	n/a	n/a	n/a
402169	PROB	n/a	LTP138	ltpFR	13	n/a	n/a	n/a	n/a	n/a	n/a	18	2	9	7	n/a	n/a	n/a	n/a	n/a
405282	PROB	n/a	LTP138	ltpFR	13	n/a	n/a	n/a	n/a	n/a	n/a	16	6	7	3	n/a	n/a	n/a	n/a	n/a
406796	PROB	n/a	LTP138	ltpFR	13	n/a	n/a	n/a	n/a	n/a	n/a	11	4	6	1	n/a	n/a	n/a	n/a	n/a
408337	STOP	n/a	LTP138	ltpFR	13	n/a	n/a	n/a	n/a	n/a	n/a	n/a	n/a	n/a	n/a	n/a	n/a	n/a	n/a	n/a
410085	WORD	wordpools/wasnorm_wordpool.txt	LTP138	ltpFR	13	2	0	YARN	1631	n/a	0	n/a	0	0	0	1	0.412841796875	0.57763671875	upper	../fonts/amplitud.ttf
413090	START	n/a	LTP138	ltpFR	13	n/a	n/a	n/a	n/a	n/a	n/a	n/a	n/a	n/a	n/a	n/a	n/a	n/a	n/a	n/a
414097	PROB	n/a	LTP138	ltpFR	13	n/a	n/a	n/a	n/a	n/a	n/a	16	5	2	9	n/a	n/a	n/a	n/a	n/a
415910	PROB	n/a	LTP138	ltpFR	13	n/a	n/a	n/a	n/a	n/a	n/a	13	3	7	3	n/a	n/a	n/a	n/a	n/a
417591	PROB	n/a	LTP138	ltpFR	13	n/a	n/a	n/a	n/a	n/a	n/a	9	2	2	5	n/a	n/a	n/a	n/a	n/a
418966	PROB	n/a	LTP138	ltpFR	13	n/a	n/a	n/a	n/a	n/a	n/a	9	4	4	1	n/a	n/a	n/a	n/a	n/a
420393	STOP	n/a	LTP138	ltpFR	13	n/a	n/a	n/a	n/a	n/a	n/a	n/a	n/a	n/a	n/a	n/a	n/a	n/a	n/a	n/a
421954	WORD	wordpools/wasnorm_wordpool.txt	LTP138	ltpFR	13	2	0	GROCERIES	663	n/a	1	n/a	0	0	0	1	0.412841796875	0.57763671875	upper	../fonts/amplitud.ttf
424959	START	n/a	LTP138	ltpFR	13	n/a	n/a	n/a	n/a	n/a	n/a	n/a	n/a	n/a	n/a	n/a	n/a	n/a	n/a	n/a
425832	PROB	n/a	LTP138	ltpFR	13	n/a	n/a	n/a	n/a	n/a	n/a	7	4	1	2	n/a	n/a	n/a	n/a	n/a
427281	PROB	n/a	LTP138	ltpFR	13	n/a	n/a	n/a	n/a	n/a	n/a	6	3	1	2	n/a	n/a	n/a	n/a	n/a
429337	PROB	n/a	LTP138	ltpFR	13	n/a	n/a	n/a	n/a	n/a	n/a	14	7	6	1	n/a	n/a	n/a	n/a	n/a
430826	PROB	n/a	LTP138	ltpFR	13	n/a	n/a	n/a	n/a	n/a	n/a	12	9	2	1	n/a	n/a	n/a	n/a	n/a
431984	STOP	n/a	LTP138	ltpFR	13	n/a	n/a	n/a	n/a	n/a	n/a	n/a	n/a	n/a	n/a	n/a	n/a	n/a	n/a	n/a
433906	WORD	wordpools/wasnorm_wordpool.txt	LTP138	ltpFR	13	2	0	RICE	1190	n/a	0	n/a	0	0	0	1	0.412841796875	0.57763671875	upper	../fonts/amplitud.ttf
436911	START	n/a	LTP138	ltpFR	13	n/a	n/a	n/a	n/a	n/a	n/a	n/a	n/a	n/a	n/a	n/a	n/a	n/a	n/a	n/a
438044	PROB	n/a	LTP138	ltpFR	13	n/a	n/a	n/a	n/a	n/a	n/a	20	8	3	9	n/a	n/a	n/a	n/a	n/a
440000	PROB	n/a	LTP138	ltpFR	13	n/a	n/a	n/a	n/a	n/a	n/a	26	9	8	9	n/a	n/a	n/a	n/a	n/a
442322	PROB	n/a	LTP138	ltpFR	13	n/a	n/a	n/a	n/a	n/a	n/a	15	7	7	1	n/a	n/a	n/a	n/a	n/a
443528	STOP	n/a	LTP138	ltpFR	13	n/a	n/a	n/a	n/a	n/a	n/a	n/a	n/a	n/a	n/a	n/a	n/a	n/a	n/a	n/a
445809	WORD	wordpools/wasnorm_wordpool.txt	LTP138	ltpFR	13	2	0	STOVE	1388	n/a	1	n/a	0	0	0	1	0.412841796875	0.57763671875	upper	../fonts/amplitud.ttf
448814	START	n/a	LTP138	ltpFR	13	n/a	n/a	n/a	n/a	n/a	n/a	n/a	n/a	n/a	n/a	n/a	n/a	n/a	n/a	n/a
449930	PROB	n/a	LTP138	ltpFR	13	n/a	n/a	n/a	n/a	n/a	n/a	18	5	9	4	n/a	n/a	n/a	n/a	n/a
451527	PROB	n/a	LTP138	ltpFR	13	n/a	n/a	n/a	n/a	n/a	n/a	12	2	7	3	n/a	n/a	n/a	n/a	n/a
453151	PROB	n/a	LTP138	ltpFR	13	n/a	n/a	n/a	n/a	n/a	n/a	8	3	1	4	n/a	n/a	n/a	n/a	n/a
454408	PROB	n/a	LTP138	ltpFR	13	n/a	n/a	n/a	n/a	n/a	n/a	17	7	2	8	n/a	n/a	n/a	n/a	n/a
456217	STOP	n/a	LTP138	ltpFR	13	n/a	n/a	n/a	n/a	n/a	n/a	n/a	n/a	n/a	n/a	n/a	n/a	n/a	n/a	n/a
457820	WORD	wordpools/wasnorm_wordpool.txt	LTP138	ltpFR	13	2	0	BUTTER	205	n/a	0	n/a	0	0	0	1	0.412841796875	0.57763671875	upper	../fonts/amplitud.ttf
460825	START	n/a	LTP138	ltpFR	13	n/a	n/a	n/a	n/a	n/a	n/a	n/a	n/a	n/a	n/a	n/a	n/a	n/a	n/a	n/a
461732	PROB	n/a	LTP138	ltpFR	13	n/a	n/a	n/a	n/a	n/a	n/a	16	1	7	8	n/a	n/a	n/a	n/a	n/a
462973	PROB	n/a	LTP138	ltpFR	13	n/a	n/a	n/a	n/a	n/a	n/a	14	1	7	6	n/a	n/a	n/a	n/a	n/a
464637	PROB	n/a	LTP138	ltpFR	13	n/a	n/a	n/a	n/a	n/a	n/a	6	1	3	2	n/a	n/a	n/a	n/a	n/a
466178	PROB	n/a	LTP138	ltpFR	13	n/a	n/a	n/a	n/a	n/a	n/a	13	8	1	4	n/a	n/a	n/a	n/a	n/a
467712	STOP	n/a	LTP138	ltpFR	13	n/a	n/a	n/a	n/a	n/a	n/a	n/a	n/a	n/a	n/a	n/a	n/a	n/a	n/a	n/a
469957	WORD	wordpools/wasnorm_wordpool.txt	LTP138	ltpFR	13	2	0	SWEATER	1419	n/a	1	n/a	0	0	0	1	0.412841796875	0.57763671875	upper	../fonts/amplitud.ttf
472962	START	n/a	LTP138	ltpFR	13	n/a	n/a	n/a	n/a	n/a	n/a	n/a	n/a	n/a	n/a	n/a	n/a	n/a	n/a	n/a
474044	PROB	n/a	LTP138	ltpFR	13	n/a	n/a	n/a	n/a	n/a	n/a	14	5	1	8	n/a	n/a	n/a	n/a	n/a
475591	PROB	n/a	LTP138	ltpFR	13	n/a	n/a	n/a	n/a	n/a	n/a	11	3	3	5	n/a	n/a	n/a	n/a	n/a
476798	PROB	n/a	LTP138	ltpFR	13	n/a	n/a	n/a	n/a	n/a	n/a	12	5	3	4	n/a	n/a	n/a	n/a	n/a
480962	STOP	n/a	LTP138	ltpFR	13	n/a	n/a	n/a	n/a	n/a	n/a	n/a	n/a	n/a	n/a	n/a	n/a	n/a	n/a	n/a
481834	WORD	wordpools/wasnorm_wordpool.txt	LTP138	ltpFR	13	2	0	OLIVE	975	n/a	0	n/a	0	0	0	1	0.412841796875	0.57763671875	upper	../fonts/amplitud.ttf
484839	START	n/a	LTP138	ltpFR	13	n/a	n/a	n/a	n/a	n/a	n/a	n/a	n/a	n/a	n/a	n/a	n/a	n/a	n/a	n/a
485804	PROB	n/a	LTP138	ltpFR	13	n/a	n/a	n/a	n/a	n/a	n/a	17	9	3	5	n/a	n/a	n/a	n/a	n/a
489558	PROB	n/a	LTP138	ltpFR	13	n/a	n/a	n/a	n/a	n/a	n/a	17	4	5	8	n/a	n/a	n/a	n/a	n/a
491024	PROB	n/a	LTP138	ltpFR	13	n/a	n/a	n/a	n/a	n/a	n/a	13	4	2	7	n/a	n/a	n/a	n/a	n/a
492720	STOP	n/a	LTP138	ltpFR	13	n/a	n/a	n/a	n/a	n/a	n/a	n/a	n/a	n/a	n/a	n/a	n/a	n/a	n/a	n/a
494661	REC_START	n/a	LTP138	ltpFR	13	2	n/a	n/a	n/a	n/a	n/a	n/a	0	0	0	n/a	n/a	n/a	n/a	n/a
495887	REC_WORD	wordpools/wasnorm_wordpool.txt	LTP138	ltpFR	13	2	0	SWEATER	1419	n/a	1	n/a	0	0	0	n/a	n/a	n/a	n/a	n/a
497350	REC_WORD_VV	wordpools/wasnorm_wordpool.txt	LTP138	ltpFR	13	2	n/a	<>	-1	n/a	n/a	n/a	0	0	0	n/a	n/a	n/a	n/a	n/a
497730	REC_WORD	wordpools/wasnorm_wordpool.txt	LTP138	ltpFR	13	2	0	OLIVE	975	n/a	0	n/a	0	0	0	n/a	n/a	n/a	n/a	n/a
498656	REC_WORD	wordpools/wasnorm_wordpool.txt	LTP138	ltpFR	13	2	0	BUTTER	205	n/a	0	n/a	0	0	0	n/a	n/a	n/a	n/a	n/a
499340	REC_WORD	wordpools/wasnorm_wordpool.txt	LTP138	ltpFR	13	2	0	STOVE	1388	n/a	1	n/a	0	0	0	n/a	n/a	n/a	n/a	n/a
500368	REC_WORD	wordpools/wasnorm_wordpool.txt	LTP138	ltpFR	13	2	0	RICE	1190	n/a	0	n/a	0	0	0	n/a	n/a	n/a	n/a	n/a
501640	REC_WORD	wordpools/wasnorm_wordpool.txt	LTP138	ltpFR	13	2	0	GROCERIES	663	n/a	1	n/a	0	0	0	n/a	n/a	n/a	n/a	n/a
502807	REC_WORD	wordpools/wasnorm_wordpool.txt	LTP138	ltpFR	13	2	0	CABBAGE	210	n/a	0	n/a	0	0	0	n/a	n/a	n/a	n/a	n/a
503805	REC_WORD	wordpools/wasnorm_wordpool.txt	LTP138	ltpFR	13	2	0	RADISH	1158	n/a	0	n/a	0	0	0	n/a	n/a	n/a	n/a	n/a
505416	REC_WORD	wordpools/wasnorm_wordpool.txt	LTP138	ltpFR	13	2	0	OBOE	969	n/a	0	n/a	0	0	0	n/a	n/a	n/a	n/a	n/a
506817	REC_WORD	wordpools/wasnorm_wordpool.txt	LTP138	ltpFR	13	2	0	STUDENT	1395	n/a	1	n/a	0	0	0	n/a	n/a	n/a	n/a	n/a
507930	REC_WORD	wordpools/wasnorm_wordpool.txt	LTP138	ltpFR	13	2	0	TEACHER	1440	n/a	1	n/a	0	0	0	n/a	n/a	n/a	n/a	n/a
509237	REC_WORD	wordpools/wasnorm_wordpool.txt	LTP138	ltpFR	13	2	0	KID	775	n/a	0	n/a	0	0	0	n/a	n/a	n/a	n/a	n/a
510664	REC_WORD	wordpools/wasnorm_wordpool.txt	LTP138	ltpFR	13	2	0	YARN	1631	n/a	0	n/a	0	0	0	n/a	n/a	n/a	n/a	n/a
512445	REC_WORD	wordpools/wasnorm_wordpool.txt	LTP138	ltpFR	13	2	0	CANE	231	n/a	0	n/a	0	0	0	n/a	n/a	n/a	n/a	n/a
515219	REC_WORD	wordpools/wasnorm_wordpool.txt	LTP138	ltpFR	13	2	0	OPERA	978	n/a	1	n/a	0	0	0	n/a	n/a	n/a	n/a	n/a
516701	REC_WORD	wordpools/wasnorm_wordpool.txt	LTP138	ltpFR	13	2	0	GOBLIN	645	n/a	0	n/a	0	0	0	n/a	n/a	n/a	n/a	n/a
596219	WORD	wordpools/wasnorm_wordpool.txt	LTP138	ltpFR	13	3	1	SLIME	1327	n/a	0	n/a	0	0	0	0	0.5869140625	0.422607421875	lower	../fonts/zerothre.ttf
600173	WORD	wordpools/wasnorm_wordpool.txt	LTP138	ltpFR	13	3	1	OYSTER	995	n/a	1	n/a	0	0	0	0	0.5869140625	0.422607421875	lower	../fonts/zerothre.ttf
603993	WORD	wordpools/wasnorm_wordpool.txt	LTP138	ltpFR	13	3	0	SIDING	1304	n/a	0	n/a	0	0	0	1	0.412841796875	0.57763671875	upper	../fonts/amplitud.ttf
607838	WORD	wordpools/wasnorm_wordpool.txt	LTP138	ltpFR	13	3	0	DASHBOARD	441	n/a	1	n/a	0	0	0	1	0.412841796875	0.57763671875	upper	../fonts/amplitud.ttf
611667	WORD	wordpools/wasnorm_wordpool.txt	LTP138	ltpFR	13	3	0	HEN	703	n/a	1	n/a	0	0	0	1	0.412841796875	0.57763671875	upper	../fonts/amplitud.ttf
615679	WORD	wordpools/wasnorm_wordpool.txt	LTP138	ltpFR	13	3	0	LIME	823	n/a	0	n/a	0	0	0	1	0.412841796875	0.57763671875	upper	../fonts/amplitud.ttf
619641	WORD	wordpools/wasnorm_wordpool.txt	LTP138	ltpFR	13	3	0	STORE	1387	n/a	1	n/a	0	0	0	1	0.412841796875	0.57763671875	upper	../fonts/amplitud.ttf
623703	WORD	wordpools/wasnorm_wordpool.txt	LTP138	ltpFR	13	3	0	COPIER	377	n/a	1	n/a	0	0	0	1	0.412841796875	0.57763671875	upper	../fonts/amplitud.ttf
627748	WORD	wordpools/wasnorm_wordpool.txt	LTP138	ltpFR	13	3	1	TYPEWRITER	1531	n/a	0	n/a	0	0	0	0	0.5869140625	0.422607421875	lower	../fonts/zerothre.ttf
631944	WORD	wordpools/wasnorm_wordpool.txt	LTP138	ltpFR	13	3	1	CHICKEN	297	n/a	1	n/a	0	0	0	0	0.5869140625	0.422607421875	lower	../fonts/zerothre.ttf
635864	WORD	wordpools/wasnorm_wordpool.txt	LTP138	ltpFR	13	3	1	CLOTHES	327	n/a	0	n/a	0	0	0	0	0.5869140625	0.422607421875	lower	../fonts/zerothre.ttf
639935	WORD	wordpools/wasnorm_wordpool.txt	LTP138	ltpFR	13	3	1	PALACE	1006	n/a	0	n/a	0	0	0	0	0.5869140625	0.422607421875	lower	../fonts/zerothre.ttf
644138	WORD	wordpools/wasnorm_wordpool.txt	LTP138	ltpFR	13	3	1	TANGERINE	1431	n/a	0	n/a	0	0	0	0	0.5869140625	0.422607421875	lower	../fonts/zerothre.ttf
648059	WORD	wordpools/wasnorm_wordpool.txt	LTP138	ltpFR	13	3	1	ADOLESCENT	7	n/a	1	n/a	0	0	0	0	0.5869140625	0.422607421875	lower	../fonts/zerothre.ttf
652013	WORD	wordpools/wasnorm_wordpool.txt	LTP138	ltpFR	13	3	0	YOUTH	1634	n/a	1	n/a	0	0	0	1	0.412841796875	0.57763671875	upper	../fonts/amplitud.ttf
656058	WORD	wordpools/wasnorm_wordpool.txt	LTP138	ltpFR	13	3	0	CHEF	290	n/a	1	n/a	0	0	0	1	0.412841796875	0.57763671875	upper	../fonts/amplitud.ttf
659063	START	n/a	LTP138	ltpFR	13	n/a	n/a	n/a	n/a	n/a	n/a	n/a	n/a	n/a	n/a	n/a	n/a	n/a	n/a	n/a
660220	PROB	n/a	LTP138	ltpFR	13	n/a	n/a	n/a	n/a	n/a	n/a	13	3	3	7	n/a	n/a	n/a	n/a	n/a
661784	PROB	n/a	LTP138	ltpFR	13	n/a	n/a	n/a	n/a	n/a	n/a	20	7	6	7	n/a	n/a	n/a	n/a	n/a
663632	PROB	n/a	LTP138	ltpFR	13	n/a	n/a	n/a	n/a	n/a	n/a	21	8	8	5	n/a	n/a	n/a	n/a	n/a
665985	STOP	n/a	LTP138	ltpFR	13	n/a	n/a	n/a	n/a	n/a	n/a	n/a	n/a	n/a	n/a	n/a	n/a	n/a	n/a	n/a
668859	REC_START	n/a	LTP138	ltpFR	13	3	n/a	n/a	n/a	n/a	n/a	n/a	0	0	0	n/a	n/a	n/a	n/a	n/a
670051	REC_WORD	wordpools/wasnorm_wordpool.txt	LTP138	ltpFR	13	3	1	SLIME	1327	n/a	0	n/a	0	0	0	n/a	n/a	n/a	n/a	n/a
671458	REC_WORD	wordpools/wasnorm_wordpool.txt	LTP138	ltpFR	13	3	1	OYSTER	995	n/a	1	n/a	0	0	0	n/a	n/a	n/a	n/a	n/a
672944	REC_WORD	wordpools/wasnorm_wordpool.txt	LTP138	ltpFR	13	3	0	CHEF	290	n/a	1	n/a	0	0	0	n/a	n/a	n/a	n/a	n/a
674306	REC_WORD	wordpools/wasnorm_wordpool.txt	LTP138	ltpFR	13	3	1	TANGERINE	1431	n/a	0	n/a	0	0	0	n/a	n/a	n/a	n/a	n/a
677140	REC_WORD	wordpools/wasnorm_wordpool.txt	LTP138	ltpFR	13	3	1	ADOLESCENT	7	n/a	1	n/a	0	0	0	n/a	n/a	n/a	n/a	n/a
678751	REC_WORD	wordpools/wasnorm_wordpool.txt	LTP138	ltpFR	13	3	0	YOUTH	1634	n/a	1	n/a	0	0	0	n/a	n/a	n/a	n/a	n/a
683021	REC_WORD	wordpools/wasnorm_wordpool.txt	LTP138	ltpFR	13	3	n/a	TEENAGER	1444	n/a	n/a	n/a	0	0	0	n/a	n/a	n/a	n/a	n/a
685860	REC_WORD	wordpools/wasnorm_wordpool.txt	LTP138	ltpFR	13	3	0	HEN	703	n/a	1	n/a	0	0	0	n/a	n/a	n/a	n/a	n/a
687701	REC_WORD	wordpools/wasnorm_wordpool.txt	LTP138	ltpFR	13	3	1	CHICKEN	297	n/a	1	n/a	0	0	0	n/a	n/a	n/a	n/a	n/a
690739	REC_WORD	wordpools/wasnorm_wordpool.txt	LTP138	ltpFR	13	3	0	DASHBOARD	441	n/a	1	n/a	0	0	0	n/a	n/a	n/a	n/a	n/a
691876	REC_WORD	wordpools/wasnorm_wordpool.txt	LTP138	ltpFR	13	3	0	SIDING	1304	n/a	0	n/a	0	0	0	n/a	n/a	n/a	n/a	n/a
710315	REC_WORD	wordpools/wasnorm_wordpool.txt	LTP138	ltpFR	13	3	1	TYPEWRITER	1531	n/a	0	n/a	0	0	0	n/a	n/a	n/a	n/a	n/a
713423	REC_WORD	wordpools/wasnorm_wordpool.txt	LTP138	ltpFR	13	3	0	COPIER	377	n/a	1	n/a	0	0	0	n/a	n/a	n/a	n/a	n/a
762210	START	n/a	LTP138	ltpFR	13	n/a	n/a	n/a	n/a	n/a	n/a	n/a	n/a	n/a	n/a	n/a	n/a	n/a	n/a	n/a
763716	PROB	n/a	LTP138	ltpFR	13	n/a	n/a	n/a	n/a	n/a	n/a	24	8	8	8	n/a	n/a	n/a	n/a	n/a
766230	PROB	n/a	LTP138	ltpFR	13	n/a	n/a	n/a	n/a	n/a	n/a	16	2	6	8	n/a	n/a	n/a	n/a	n/a
767877	PROB	n/a	LTP138	ltpFR	13	n/a	n/a	n/a	n/a	n/a	n/a	6	2	1	3	n/a	n/a	n/a	n/a	n/a
769169	STOP	n/a	LTP138	ltpFR	13	n/a	n/a	n/a	n/a	n/a	n/a	n/a	n/a	n/a	n/a	n/a	n/a	n/a	n/a	n/a
771208	WORD	wordpools/wasnorm_wordpool.txt	LTP138	ltpFR	13	4	1	STEAM	1375	n/a	0	n/a	0	0	0	0	0.5869140625	0.422607421875	lower	../fonts/zerothre.ttf
774213	START	n/a	LTP138	ltpFR	13	n/a	n/a	n/a	n/a	n/a	n/a	n/a	n/a	n/a	n/a	n/a	n/a	n/a	n/a	n/a
775220	PROB	n/a	LTP138	ltpFR	13	n/a	n/a	n/a	n/a	n/a	n/a	16	7	3	6	n/a	n/a	n/a	n/a	n/a
776551	PROB	n/a	LTP138	ltpFR	13	n/a	n/a	n/a	n/a	n/a	n/a	18	6	9	3	n/a	n/a	n/a	n/a	n/a
778540	PROB	n/a	LTP138	ltpFR	13	n/a	n/a	n/a	n/a	n/a	n/a	13	5	2	6	n/a	n/a	n/a	n/a	n/a
780414	PROB	n/a	LTP138	ltpFR	13	n/a	n/a	n/a	n/a	n/a	n/a	11	4	1	6	n/a	n/a	n/a	n/a	n/a
781816	STOP	n/a	LTP138	ltpFR	13	n/a	n/a	n/a	n/a	n/a	n/a	n/a	n/a	n/a	n/a	n/a	n/a	n/a	n/a	n/a
783286	WORD	wordpools/wasnorm_wordpool.txt	LTP138	ltpFR	13	4	1	DOLPHIN	483	n/a	1	n/a	0	0	0	0	0.5869140625	0.422607421875	lower	../fonts/zerothre.ttf
786291	START	n/a	LTP138	ltpFR	13	n/a	n/a	n/a	n/a	n/a	n/a	n/a	n/a	n/a	n/a	n/a	n/a	n/a	n/a	n/a
787339	PROB	n/a	LTP138	ltpFR	13	n/a	n/a	n/a	n/a	n/a	n/a	15	9	3	2	n/a	n/a	n/a	n/a	n/a
790751	PROB	n/a	LTP138	ltpFR	13	n/a	n/a	n/a	n/a	n/a	n/a	18	8	2	8	n/a	n/a	n/a	n/a	n/a
794290	STOP	n/a	LTP138	ltpFR	13	n/a	n/a	n/a	n/a	n/a	n/a	n/a	n/a	n/a	n/a	n/a	n/a	n/a	n/a	n/a
795205	WORD	wordpools/wasnorm_wordpool.txt	LTP138	ltpFR	13	4	1	FIN	566	n/a	0	n/a	0	0	0	0	0.5869140625	0.422607421875	lower	../fonts/zerothre.ttf
798210	START	n/a	LTP138	ltpFR	13	n/a	n/a	n/a	n/a	n/a	n/a	n/a	n/a	n/a	n/a	n/a	n/a	n/a	n/a	n/a
799034	PROB	n/a	LTP138	ltpFR	13	n/a	n/a	n/a	n/a	n/a	n/a	15	7	2	6	n/a	n/a	n/a	n/a	n/a
801273	PROB	n/a	LTP138	ltpFR	13	n/a	n/a	n/a	n/a	n/a	n/a	19	8	9	2	n/a	n/a	n/a	n/a	n/a
803063	PROB	n/a	LTP138	ltpFR	13	n/a	n/a	n/a	n/a	n/a	n/a	15	2	9	4	n/a	n/a	n/a	n/a	n/a
805169	STOP	n/a	LTP138	ltpFR	13	n/a	n/a	n/a	n/a	n/a	n/a	n/a	n/a	n/a	n/a	n/a	n/a	n/a	n/a	n/a
807183	WORD	wordpools/wasnorm_wordpool.txt	LTP138	ltpFR	13	4	1	FAIRY	549	n/a	0	n/a	0	0	0	0	0.5869140625	0.422607421875	lower	../fonts/zerothre.ttf
810188	START	n/a	LTP138	ltpFR	13	n/a	n/a	n/a	n/a	n/a	n/a	n/a	n/a	n/a	n/a	n/a	n/a	n/a	n/a	n/a
811378	PROB	n/a	LTP138	ltpFR	13	n/a	n/a	n/a	n/a	n/a	n/a	13	1	3	9	n/a	n/a	n/a	n/a	n/a
812884	PROB	n/a	LTP138	ltpFR	13	n/a	n/a	n/a	n/a	n/a	n/a	11	8	2	1	n/a	n/a	n/a	n/a	n/a
814565	PROB	n/a	LTP138	ltpFR	13	n/a	n/a	n/a	n/a	n/a	n/a	12	8	3	1	n/a	n/a	n/a	n/a	n/a
818188	STOP	n/a	LTP138	ltpFR	13	n/a	n/a	n/a	n/a	n/a	n/a	n/a	n/a	n/a	n/a	n/a	n/a	n/a	n/a	n/a
819119	WORD	wordpools/wasnorm_wordpool.txt	LTP138	ltpFR	13	4	1	PENGUIN	1044	n/a	0	n/a	0	0	0	0	0.5869140625	0.422607421875	lower	../fonts/zerothre.ttf
822124	START	n/a	LTP138	ltpFR	13	n/a	n/a	n/a	n/a	n/a	n/a	n/a	n/a	n/a	n/a	n/a	n/a	n/a	n/a	n/a
823289	PROB	n/a	LTP138	ltpFR	13	n/a	n/a	n/a	n/a	n/a	n/a	17	2	6	9	n/a	n/a	n/a	n/a	n/a
824921	PROB	n/a	LTP138	ltpFR	13	n/a	n/a	n/a	n/a	n/a	n/a	18	8	2	8	n/a	n/a	n/a	n/a	n/a
826327	PROB	n/a	LTP138	ltpFR	13	n/a	n/a	n/a	n/a	n/a	n/a	11	1	1	9	n/a	n/a	n/a	n/a	n/a
828100	PROB	n/a	LTP138	ltpFR	13	n/a	n/a	n/a	n/a	n/a	n/a	13	1	9	3	n/a	n/a	n/a	n/a	n/a
829441	STOP	n/a	LTP138	ltpFR	13	n/a	n/a	n/a	n/a	n/a	n/a	n/a	n/a	n/a	n/a	n/a	n/a	n/a	n/a	n/a
831322	WORD	wordpools/wasnorm_wordpool.txt	LTP138	ltpFR	13	4	1	DIARY	460	n/a	0	n/a	0	0	0	0	0.5869140625	0.422607421875	lower	../fonts/zerothre.ttf
834327	START	n/a	LTP138	ltpFR	13	n/a	n/a	n/a	n/a	n/a	n/a	n/a	n/a	n/a	n/a	n/a	n/a	n/a	n/a	n/a
835392	PROB	n/a	LTP138	ltpFR	13	n/a	n/a	n/a	n/a	n/a	n/a	16	2	6	8	n/a	n/a	n/a	n/a	n/a
837048	PROB	n/a	LTP138	ltpFR	13	n/a	n/a	n/a	n/a	n/a	n/a	14	1	5	8	n/a	n/a	n/a	n/a	n/a
838712	PROB	n/a	LTP138	ltpFR	13	n/a	n/a	n/a	n/a	n/a	n/a	11	5	5	1	n/a	n/a	n/a	n/a	n/a
839802	PROB	n/a	LTP138	ltpFR	13	n/a	n/a	n/a	n/a	n/a	n/a	19	8	8	3	n/a	n/a	n/a	n/a	n/a
841417	STOP	n/a	LTP138	ltpFR	13	n/a	n/a	n/a	n/a	n/a	n/a	n/a	n/a	n/a	n/a	n/a	n/a	n/a	n/a	n/a
843424	WORD	wordpools/wasnorm_wordpool.txt	LTP138	ltpFR	13	4	1	PASSAGE	1019	n/a	0	n/a	0	0	0	0	0.5869140625	0.422607421875	lower	../fonts/zerothre.ttf
846430	START	n/a	LTP138	ltpFR	13	n/a	n/a	n/a	n/a	n/a	n/a	n/a	n/a	n/a	n/a	n/a	n/a	n/a	n/a	n/a
847236	PROB	n/a	LTP138	ltpFR	13	n/a	n/a	n/a	n/a	n/a	n/a	15	6	8	1	n/a	n/a	n/a	n/a	n/a
849326	PROB	n/a	LTP138	ltpFR	13	n/a	n/a	n/a	n/a	n/a	n/a	13	8	1	4	n/a	n/a	n/a	n/a	n/a
850731	PROB	n/a	LTP138	ltpFR	13	n/a	n/a	n/a	n/a	n/a	n/a	11	2	6	3	n/a	n/a	n/a	n/a	n/a
853113	STOP	n/a	LTP138	ltpFR	13	n/a	n/a	n/a	n/a	n/a	n/a	n/a	n/a	n/a	n/a	n/a	n/a	n/a	n/a	n/a
855476	WORD	wordpools/wasnorm_wordpool.txt	LTP138	ltpFR	13	4	1	VIOLIN	1571	n/a	0	n/a	0	0	0	0	0.5869140625	0.422607421875	lower	../fonts/zerothre.ttf
858481	START	n/a	LTP138	ltpFR	13	n/a	n/a	n/a	n/a	n/a	n/a	n/a	n/a	n/a	n/a	n/a	n/a	n/a	n/a	n/a
859456	PROB	n/a	LTP138	ltpFR	13	n/a	n/a	n/a	n/a	n/a	n/a	9	5	3	1	n/a	n/a	n/a	n/a	n/a
861428	PROB	n/a	LTP138	ltpFR	13	n/a	n/a	n/a	n/a	n/a	n/a	22	7	8	7	n/a	n/a	n/a	n/a	n/a
866481	STOP	n/a	LTP138	ltpFR	13	n/a	n/a	n/a	n/a	n/a	n/a	n/a	n/a	n/a	n/a	n/a	n/a	n/a	n/a	n/a
867355	WORD	wordpools/wasnorm_wordpool.txt	LTP138	ltpFR	13	4	1	SAXOPHONE	1240	n/a	0	n/a	0	0	0	0	0.5869140625	0.422607421875	lower	../fonts/zerothre.ttf
870360	START	n/a	LTP138	ltpFR	13	n/a	n/a	n/a	n/a	n/a	n/a	n/a	n/a	n/a	n/a	n/a	n/a	n/a	n/a	n/a
871184	PROB	n/a	LTP138	ltpFR	13	n/a	n/a	n/a	n/a	n/a	n/a	9	1	2	6	n/a	n/a	n/a	n/a	n/a
872540	PROB	n/a	LTP138	ltpFR	13	n/a	n/a	n/a	n/a	n/a	n/a	18	7	7	4	n/a	n/a	n/a	n/a	n/a
873964	PROB	n/a	LTP138	ltpFR	13	n/a	n/a	n/a	n/a	n/a	n/a	21	3	9	9	n/a	n/a	n/a	n/a	n/a
876353	PROB	n/a	LTP138	ltpFR	13	n/a	n/a	n/a	n/a	n/a	n/a	10	1	4	5	n/a	n/a	n/a	n/a	n/a
877656	STOP	n/a	LTP138	ltpFR	13	n/a	n/a	n/a	n/a	n/a	n/a	n/a	n/a	n/a	n/a	n/a	n/a	n/a	n/a	n/a
879457	WORD	wordpools/wasnorm_wordpool.txt	LTP138	ltpFR	13	4	1	STREAM	1392	n/a	0	n/a	0	0	0	0	0.5869140625	0.422607421875	lower	../fonts/zerothre.ttf
882462	START	n/a	LTP138	ltpFR	13	n/a	n/a	n/a	n/a	n/a	n/a	n/a	n/a	n/a	n/a	n/a	n/a	n/a	n/a	n/a
883510	PROB	n/a	LTP138	ltpFR	13	n/a	n/a	n/a	n/a	n/a	n/a	16	6	1	9	n/a	n/a	n/a	n/a	n/a
885608	PROB	n/a	LTP138	ltpFR	13	n/a	n/a	n/a	n/a	n/a	n/a	23	7	7	9	n/a	n/a	n/a	n/a	n/a
889752	STOP	n/a	LTP138	ltpFR	13	n/a	n/a	n/a	n/a	n/a	n/a	n/a	n/a	n/a	n/a	n/a	n/a	n/a	n/a	n/a
891626	WORD	wordpools/wasnorm_wordpool.txt	LTP138	ltpFR	13	4	1	CHIMPANZEE	302	n/a	1	n/a	0	0	0	0	0.5869140625	0.422607421875	lower	../fonts/zerothre.ttf
894631	START	n/a	LTP138	ltpFR	13	n/a	n/a	n/a	n/a	n/a	n/a	n/a	n/a	n/a	n/a	n/a	n/a	n/a	n/a	n/a
895471	PROB	n/a	LTP138	ltpFR	13	n/a	n/a	n/a	n/a	n/a	n/a	23	9	8	6	n/a	n/a	n/a	n/a	n/a
898302	PROB	n/a	LTP138	ltpFR	13	n/a	n/a	n/a	n/a	n/a	n/a	21	7	6	8	n/a	n/a	n/a	n/a	n/a
902568	STOP	n/a	LTP138	ltpFR	13	n/a	n/a	n/a	n/a	n/a	n/a	n/a	n/a	n/a	n/a	n/a	n/a	n/a	n/a	n/a
903446	WORD	wordpools/wasnorm_wordpool.txt	LTP138	ltpFR	13	4	1	ITEM	746	n/a	0	n/a	0	0	0	0	0.5869140625	0.422607421875	lower	../fonts/zerothre.ttf
906452	START	n/a	LTP138	ltpFR	13	n/a	n/a	n/a	n/a	n/a	n/a	n/a	n/a	n/a	n/a	n/a	n/a	n/a	n/a	n/a
907417	PROB	n/a	LTP138	ltpFR	13	n/a	n/a	n/a	n/a	n/a	n/a	10	4	2	4	n/a	n/a	n/a	n/a	n/a
909048	PROB	n/a	LTP138	ltpFR	13	n/a	n/a	n/a	n/a	n/a	n/a	13	7	2	4	n/a	n/a	n/a	n/a	n/a
913600	STOP	n/a	LTP138	ltpFR	13	n/a	n/a	n/a	n/a	n/a	n/a	n/a	n/a	n/a	n/a	n/a	n/a	n/a	n/a	n/a
915515	WORD	wordpools/wasnorm_wordpool.txt	LTP138	ltpFR	13	4	1	HOSE	720	n/a	0	n/a	0	0	0	0	0.5869140625	0.422607421875	lower	../fonts/zerothre.ttf
918520	START	n/a	LTP138	ltpFR	13	n/a	n/a	n/a	n/a	n/a	n/a	n/a	n/a	n/a	n/a	n/a	n/a	n/a	n/a	n/a
919445	PROB	n/a	LTP138	ltpFR	13	n/a	n/a	n/a	n/a	n/a	n/a	19	8	6	5	n/a	n/a	n/a	n/a	n/a
921641	PROB	n/a	LTP138	ltpFR	13	n/a	n/a	n/a	n/a	n/a	n/a	15	9	1	5	n/a	n/a	n/a	n/a	n/a
922890	PROB	n/a	LTP138	ltpFR	13	n/a	n/a	n/a	n/a	n/a	n/a	19	9	3	7	n/a	n/a	n/a	n/a	n/a
925177	STOP	n/a	LTP138	ltpFR	13	n/a	n/a	n/a	n/a	n/a	n/a	n/a	n/a	n/a	n/a	n/a	n/a	n/a	n/a	n/a
927559	WORD	wordpools/wasnorm_wordpool.txt	LTP138	ltpFR	13	4	1	FRAGRANCE	599	n/a	0	n/a	0	0	0	0	0.5869140625	0.422607421875	lower	../fonts/zerothre.ttf
930564	START	n/a	LTP138	ltpFR	13	n/a	n/a	n/a	n/a	n/a	n/a	n/a	n/a	n/a	n/a	n/a	n/a	n/a	n/a	n/a
931439	PROB	n/a	LTP138	ltpFR	13	n/a	n/a	n/a	n/a	n/a	n/a	14	5	7	2	n/a	n/a	n/a	n/a	n/a
933677	PROB	n/a	LTP138	ltpFR	13	n/a	n/a	n/a	n/a	n/a	n/a	6	1	4	1	n/a	n/a	n/a	n/a	n/a
935010	PROB	n/a	LTP138	ltpFR	13	n/a	n/a	n/a	n/a	n/a	n/a	16	8	2	6	n/a	n/a	n/a	n/a	n/a
936433	PROB	n/a	LTP138	ltpFR	13	n/a	n/a	n/a	n/a	n/a	n/a	18	4	5	9	n/a	n/a	n/a	n/a	n/a
938369	STOP	n/a	LTP138	ltpFR	13	n/a	n/a	n/a	n/a	n/a	n/a	n/a	n/a	n/a	n/a	n/a	n/a	n/a	n/a	n/a
939529	WORD	wordpools/wasnorm_wordpool.txt	LTP138	ltpFR	13	4	1	ROOSTER	1209	n/a	1	n/a	0	0	0	0	0.5869140625	0.422607421875	lower	../fonts/zerothre.ttf
942534	START	n/a	LTP138	ltpFR	13	n/a	n/a	n/a	n/a	n/a	n/a	n/a	n/a	n/a	n/a	n/a	n/a	n/a	n/a	n/a
943674	PROB	n/a	LTP138	ltpFR	13	n/a	n/a	n/a	n/a	n/a	n/a	14	8	3	3	n/a	n/a	n/a	n/a	n/a
945423	PROB	n/a	LTP138	ltpFR	13	n/a	n/a	n/a	n/a	n/a	n/a	13	4	8	1	n/a	n/a	n/a	n/a	n/a
947187	PROB	n/a	LTP138	ltpFR	13	n/a	n/a	n/a	n/a	n/a	n/a	16	7	7	2	n/a	n/a	n/a	n/a	n/a
948643	PROB	n/a	LTP138	ltpFR	13	n/a	n/a	n/a	n/a	n/a	n/a	9	1	3	5	n/a	n/a	n/a	n/a	n/a
949848	STOP	n/a	LTP138	ltpFR	13	n/a	n/a	n/a	n/a	n/a	n/a	n/a	n/a	n/a	n/a	n/a	n/a	n/a	n/a	n/a
951441	WORD	wordpools/wasnorm_wordpool.txt	LTP138	ltpFR	13	4	1	FAUCET	555	n/a	0	n/a	0	0	0	0	0.5869140625	0.422607421875	lower	../fonts/zerothre.ttf
954446	START	n/a	LTP138	ltpFR	13	n/a	n/a	n/a	n/a	n/a	n/a	n/a	n/a	n/a	n/a	n/a	n/a	n/a	n/a	n/a
955444	PROB	n/a	LTP138	ltpFR	13	n/a	n/a	n/a	n/a	n/a	n/a	14	7	4	3	n/a	n/a	n/a	n/a	n/a
956968	PROB	n/a	LTP138	ltpFR	13	n/a	n/a	n/a	n/a	n/a	n/a	16	6	2	8	n/a	n/a	n/a	n/a	n/a
958408	PROB	n/a	LTP138	ltpFR	13	n/a	n/a	n/a	n/a	n/a	n/a	8	1	3	4	n/a	n/a	n/a	n/a	n/a
959597	PROB	n/a	LTP138	ltpFR	13	n/a	n/a	n/a	n/a	n/a	n/a	26	9	9	8	n/a	n/a	n/a	n/a	n/a
962265	STOP	n/a	LTP138	ltpFR	13	n/a	n/a	n/a	n/a	n/a	n/a	n/a	n/a	n/a	n/a	n/a	n/a	n/a	n/a	n/a
964193	REC_START	n/a	LTP138	ltpFR	13	4	n/a	n/a	n/a	n/a	n/a	n/a	0	0	0	n/a	n/a	n/a	n/a	n/a
965375	REC_WORD	wordpools/wasnorm_wordpool.txt	LTP138	ltpFR	13	4	1	FAUCET	555	n/a	0	n/a	0	0	0	n/a	n/a	n/a	n/a	n/a
966582	REC_WORD_VV	wordpools/wasnorm_wordpool.txt	LTP138	ltpFR	13	4	n/a	<>	-1	n/a	n/a	n/a	0	0	0	n/a	n/a	n/a	n/a	n/a
967051	REC_WORD	wordpools/wasnorm_wordpool.txt	LTP138	ltpFR	13	4	1	ROOSTER	1209	n/a	1	n/a	0	0	0	n/a	n/a	n/a	n/a	n/a
967928	REC_WORD	wordpools/wasnorm_wordpool.txt	LTP138	ltpFR	13	4	1	CHIMPANZEE	302	n/a	1	n/a	0	0	0	n/a	n/a	n/a	n/a	n/a
970279	REC_WORD	wordpools/wasnorm_wordpool.txt	LTP138	ltpFR	13	4	1	ITEM	746	n/a	0	n/a	0	0	0	n/a	n/a	n/a	n/a	n/a
970947	REC_WORD	wordpools/wasnorm_wordpool.txt	LTP138	ltpFR	13	4	1	FRAGRANCE	599	n/a	0	n/a	0	0	0	n/a	n/a	n/a	n/a	n/a
971935	REC_WORD	wordpools/wasnorm_wordpool.txt	LTP138	ltpFR	13	4	1	HOSE	720	n/a	0	n/a	0	0	0	n/a	n/a	n/a	n/a	n/a
973062	REC_WORD	wordpools/wasnorm_wordpool.txt	LTP138	ltpFR	13	4	1	STEAM	1375	n/a	0	n/a	0	0	0	n/a	n/a	n/a	n/a	n/a
973980	REC_WORD	wordpools/wasnorm_wordpool.txt	LTP138	ltpFR	13	4	1	STREAM	1392	n/a	0	n/a	0	0	0	n/a	n/a	n/a	n/a	n/a
975677	REC_WORD	wordpools/wasnorm_wordpool.txt	LTP138	ltpFR	13	4	1	DIARY	460	n/a	0	n/a	0	0	0	n/a	n/a	n/a	n/a	n/a
976784	REC_WORD	wordpools/wasnorm_wordpool.txt	LTP138	ltpFR	13	4	1	FAIRY	549	n/a	0	n/a	0	0	0	n/a	n/a	n/a	n/a	n/a
977817	REC_WORD	wordpools/wasnorm_wordpool.txt	LTP138	ltpFR	13	4	1	VIOLIN	1571	n/a	0	n/a	0	0	0	n/a	n/a	n/a	n/a	n/a
979069	REC_WORD	wordpools/wasnorm_wordpool.txt	LTP138	ltpFR	13	4	1	SAXOPHONE	1240	n/a	0	n/a	0	0	0	n/a	n/a	n/a	n/a	n/a
980905	REC_WORD	wordpools/wasnorm_wordpool.txt	LTP138	ltpFR	13	4	1	PENGUIN	1044	n/a	0	n/a	0	0	0	n/a	n/a	n/a	n/a	n/a
982097	REC_WORD	wordpools/wasnorm_wordpool.txt	LTP138	ltpFR	13	4	1	DOLPHIN	483	n/a	1	n/a	0	0	0	n/a	n/a	n/a	n/a	n/a
984775	REC_WORD_VV	wordpools/wasnorm_wordpool.txt	LTP138	ltpFR	13	4	n/a	<>	-1	n/a	n/a	n/a	0	0	0	n/a	n/a	n/a	n/a	n/a
985191	REC_WORD	wordpools/wasnorm_wordpool.txt	LTP138	ltpFR	13	4	1	FIN	566	n/a	0	n/a	0	0	0	n/a	n/a	n/a	n/a	n/a
1004754	REC_WORD	wordpools/wasnorm_wordpool.txt	LTP138	ltpFR	13	4	1	CHIMPANZEE	302	n/a	1	n/a	0	0	0	n/a	n/a	n/a	n/a	n/a
1052631	WORD	wordpools/wasnorm_wordpool.txt	LTP138	ltpFR	13	5	0	BRANCH	168	n/a	0	n/a	0	0	0	1	0.412841796875	0.57763671875	upper	../fonts/amplitud.ttf
1056743	WORD	wordpools/wasnorm_wordpool.txt	LTP138	ltpFR	13	5	0	DISH	474	n/a	1	n/a	0	0	0	1	0.412841796875	0.57763671875	upper	../fonts/amplitud.ttf
1060630	WORD	wordpools/wasnorm_wordpool.txt	LTP138	ltpFR	13	5	0	SOAP	1337	n/a	0	n/a	0	0	0	1	0.412841796875	0.57763671875	upper	../fonts/amplitud.ttf
1064600	WORD	wordpools/wasnorm_wordpool.txt	LTP138	ltpFR	13	5	0	WINDOW	1611	n/a	1	n/a	0	0	0	1	0.412841796875	0.57763671875	upper	../fonts/amplitud.ttf
1068621	WORD	wordpools/wasnorm_wordpool.txt	LTP138	ltpFR	13	5	0	BUG	187	n/a	0	n/a	0	0	0	1	0.412841796875	0.57763671875	upper	../fonts/amplitud.ttf
1072724	WORD	wordpools/wasnorm_wordpool.txt	LTP138	ltpFR	13	5	0	CHERRY	293	n/a	0	n/a	0	0	0	1	0.412841796875	0.57763671875	upper	../fonts/amplitud.ttf
1076770	WORD	wordpools/wasnorm_wordpool.txt	LTP138	ltpFR	13	5	0	VEST	1559	n/a	0	n/a	0	0	0	1	0.412841796875	0.57763671875	upper	../fonts/amplitud.ttf
1080881	WORD	wordpools/wasnorm_wordpool.txt	LTP138	ltpFR	13	5	0	BANDANNA	80	n/a	0	n/a	0	0	0	1	0.412841796875	0.57763671875	upper	../fonts/amplitud.ttf
1084844	WORD	wordpools/wasnorm_wordpool.txt	LTP138	ltpFR	13	5	0	WALLET	1583	n/a	0	n/a	0	0	0	1	0.412841796875	0.57763671875	upper	../fonts/amplitud.ttf
1088747	WORD	wordpools/wasnorm_wordpool.txt	LTP138	ltpFR	13	5	0	PIE	1062	n/a	1	n/a	0	0	0	1	0.412841796875	0.57763671875	upper	../fonts/amplitud.ttf
1092859	WORD	wordpools/wasnorm_wordpool.txt	LTP138	ltpFR	13	5	0	STUMP	1396	n/a	1	n/a	0	0	0	1	0.412841796875	0.57763671875	upper	../fonts/amplitud.ttf
1096930	WORD	wordpools/wasnorm_wordpool.txt	LTP138	ltpFR	13	5	0	HEDGE	699	n/a	1	n/a	0	0	0	1	0.412841796875	0.57763671875	upper	../fonts/amplitud.ttf
1100918	WORD	wordpools/wasnorm_wordpool.txt	LTP138	ltpFR	13	5	0	COBBLER	335	n/a	1	n/a	0	0	0	1	0.412841796875	0.57763671875	upper	../fonts/amplitud.ttf
1104795	WORD	wordpools/wasnorm_wordpool.txt	LTP138	ltpFR	13	5	0	MANAGER	863	n/a	1	n/a	0	0	0	1	0.412841796875	0.57763671875	upper	../fonts/amplitud.ttf
1108874	WORD	wordpools/wasnorm_wordpool.txt	LTP138	ltpFR	13	5	0	POCKETBOOK	1094	n/a	0	n/a	0	0	0	1	0.412841796875	0.57763671875	upper	../fonts/amplitud.ttf
1112769	WORD	wordpools/wasnorm_wordpool.txt	LTP138	ltpFR	13	5	0	ZUCCHINI	1638	n/a	0	n/a	0	0	0	1	0.412841796875	0.57763671875	upper	../fonts/amplitud.ttf
1115775	START	n/a	LTP138	ltpFR	13	n/a	n/a	n/a	n/a	n/a	n/a	n/a	n/a	n/a	n/a	n/a	n/a	n/a	n/a	n/a
1116640	PROB	n/a	LTP138	ltpFR	13	n/a	n/a	n/a	n/a	n/a	n/a	16	7	3	6	n/a	n/a	n/a	n/a	n/a
1119038	PROB	n/a	LTP138	ltpFR	13	n/a	n/a	n/a	n/a	n/a	n/a	9	2	6	1	n/a	n/a	n/a	n/a	n/a
1120893	PROB	n/a	LTP138	ltpFR	13	n/a	n/a	n/a	n/a	n/a	n/a	10	2	3	5	n/a	n/a	n/a	n/a	n/a
1122683	PROB	n/a	LTP138	ltpFR	13	n/a	n/a	n/a	n/a	n/a	n/a	16	7	4	5	n/a	n/a	n/a	n/a	n/a
1124232	PROB	n/a	LTP138	ltpFR	13	n/a	n/a	n/a	n/a	n/a	n/a	7	4	1	2	n/a	n/a	n/a	n/a	n/a
1125838	PROB	n/a	LTP138	ltpFR	13	n/a	n/a	n/a	n/a	n/a	n/a	8	1	1	6	n/a	n/a	n/a	n/a	n/a
1127320	PROB	n/a	LTP138	ltpFR	13	n/a	n/a	n/a	n/a	n/a	n/a	19	9	9	1	n/a	n/a	n/a	n/a	n/a
1129035	PROB	n/a	LTP138	ltpFR	13	n/a	n/a	n/a	n/a	n/a	n/a	17	7	1	9	n/a	n/a	n/a	n/a	n/a
1130417	STOP	n/a	LTP138	ltpFR	13	n/a	n/a	n/a	n/a	n/a	n/a	n/a	n/a	n/a	n/a	n/a	n/a	n/a	n/a	n/a
1133546	REC_START	n/a	LTP138	ltpFR	13	5	n/a	n/a	n/a	n/a	n/a	n/a	0	0	0	n/a	n/a	n/a	n/a	n/a
1134373	REC_WORD	wordpools/wasnorm_wordpool.txt	LTP138	ltpFR	13	5	0	ZUCCHINI	1638	n/a	0	n/a	0	0	0	n/a	n/a	n/a	n/a	n/a
1135686	REC_WORD	wordpools/wasnorm_wordpool.txt	LTP138	ltpFR	13	5	0	BRANCH	168	n/a	0	n/a	0	0	0	n/a	n/a	n/a	n/a	n/a
1136654	REC_WORD	wordpools/wasnorm_wordpool.txt	LTP138	ltpFR	13	5	0	WINDOW	1611	n/a	1	n/a	0	0	0	n/a	n/a	n/a	n/a	n/a
1138085	REC_WORD	wordpools/wasnorm_wordpool.txt	LTP138	ltpFR	13	5	0	DISH	474	n/a	1	n/a	0	0	0	n/a	n/a	n/a	n/a	n/a
1139267	REC_WORD	wordpools/wasnorm_wordpool.txt	LTP138	ltpFR	13	5	0	SOAP	1337	n/a	0	n/a	0	0	0	n/a	n/a	n/a	n/a	n/a
1140465	REC_WORD	wordpools/wasnorm_wordpool.txt	LTP138	ltpFR	13	5	0	BUG	187	n/a	0	n/a	0	0	0	n/a	n/a	n/a	n/a	n/a
1141662	REC_WORD_VV	wordpools/wasnorm_wordpool.txt	LTP138	ltpFR	13	5	n/a	<>	-1	n/a	n/a	n/a	0	0	0	n/a	n/a	n/a	n/a	n/a
1142191	REC_WORD	wordpools/wasnorm_wordpool.txt	LTP138	ltpFR	13	5	0	VEST	1559	n/a	0	n/a	0	0	0	n/a	n/a	n/a	n/a	n/a
1143508	REC_WORD	wordpools/wasnorm_wordpool.txt	LTP138	ltpFR	13	5	0	WALLET	1583	n/a	0	n/a	0	0	0	n/a	n/a	n/a	n/a	n/a
1144710	REC_WORD	wordpools/wasnorm_wordpool.txt	LTP138	ltpFR	13	5	0	POCKETBOOK	1094	n/a	0	n/a	0	0	0	n/a	n/a	n/a	n/a	n/a
1148542	REC_WORD	wordpools/wasnorm_wordpool.txt	LTP138	ltpFR	13	5	n/a	SHIRT	1287	n/a	n/a	n/a	0	0	0	n/a	n/a	n/a	n/a	n/a
1153555	REC_WORD	wordpools/wasnorm_wordpool.txt	LTP138	ltpFR	13	5	0	BANDANNA	80	n/a	0	n/a	0	0	0	n/a	n/a	n/a	n/a	n/a
1155990	REC_WORD_VV	wordpools/wasnorm_wordpool.txt	LTP138	ltpFR	13	5	n/a	<>	-1	n/a	n/a	n/a	0	0	0	n/a	n/a	n/a	n/a	n/a
1158719	REC_WORD	wordpools/wasnorm_wordpool.txt	LTP138	ltpFR	13	5	0	CHERRY	293	n/a	0	n/a	0	0	0	n/a	n/a	n/a	n/a	n/a
1160524	REC_WORD	wordpools/wasnorm_wordpool.txt	LTP138	ltpFR	13	5	0	COBBLER	335	n/a	1	n/a	0	0	0	n/a	n/a	n/a	n/a	n/a
1162016	REC_WORD	wordpools/wasnorm_wordpool.txt	LTP138	ltpFR	13	5	0	PIE	1062	n/a	1	n/a	0	0	0	n/a	n/a	n/a	n/a	n/a
1163213	REC_WORD	wordpools/wasnorm_wordpool.txt	LTP138	ltpFR	13	5	0	HEDGE	699	n/a	1	n/a	0	0	0	n/a	n/a	n/a	n/a	n/a
1166061	REC_WORD	wordpools/wasnorm_wordpool.txt	LTP138	ltpFR	13	5	0	STUMP	1396	n/a	1	n/a	0	0	0	n/a	n/a	n/a	n/a	n/a
1221668	WORD	wordpools/wasnorm_wordpool.txt	LTP138	ltpFR	13	6	1	CUPBOARD	425	n/a	2	n/a	0	0	0	0	0.5869140625	0.422607421875	lower	../fonts/zerothre.ttf
1222294	KEY_MSG	n/a	LTP138	ltpFR	13	6	n/a	n/a	n/a	n/a	n/a	n/a	0	0	0	n/a	n/a	n/a	n/a	n/a
1225839	WORD	wordpools/wasnorm_wordpool.txt	LTP138	ltpFR	13	6	1	TOWEL	1489	n/a	0	n/a	0	0	0	0	0.5869140625	0.422607421875	lower	../fonts/zerothre.ttf
1229784	WORD	wordpools/wasnorm_wordpool.txt	LTP138	ltpFR	13	6	1	ROBIN	1199	n/a	1	n/a	0	0	0	0	0.5869140625	0.422607421875	lower	../fonts/zerothre.ttf
1233679	WORD	wordpools/wasnorm_wordpool.txt	LTP138	ltpFR	13	6	1	COMMUNITY	356	n/a	1	n/a	0	0	0	0	0.5869140625	0.422607421875	lower	../fonts/zerothre.ttf
1237808	WORD	wordpools/wasnorm_wordpool.txt	LTP138	ltpFR	13	6	1	MECHANIC	884	n/a	1	n/a	0	0	0	0	0.5869140625	0.422607421875	lower	../fonts/zerothre.ttf
1241887	WORD	wordpools/wasnorm_wordpool.txt	LTP138	ltpFR	13	6	1	LIMOUSINE	824	n/a	0	n/a	0	0	0	0	0.5869140625	0.422607421875	lower	../fonts/zerothre.ttf
1246083	WORD	wordpools/wasnorm_wordpool.txt	LTP138	ltpFR	13	6	1	BELL	118	n/a	0	n/a	0	0	0	0	0.5869140625	0.422607421875	lower	../fonts/zerothre.ttf
1250236	WORD	wordpools/wasnorm_wordpool.txt	LTP138	ltpFR	13	6	1	FOX	598	n/a	1	n/a	0	0	0	0	0.5869140625	0.422607421875	lower	../fonts/zerothre.ttf
1254215	WORD	wordpools/wasnorm_wordpool.txt	LTP138	ltpFR	13	6	1	BUCKLE	185	n/a	0	n/a	0	0	0	0	0.5869140625	0.422607421875	lower	../fonts/zerothre.ttf
1258194	WORD	wordpools/wasnorm_wordpool.txt	LTP138	ltpFR	13	6	1	CUSTARD	429	n/a	0	n/a	0	0	0	0	0.5869140625	0.422607421875	lower	../fonts/zerothre.ttf
1262081	WORD	wordpools/wasnorm_wordpool.txt	LTP138	ltpFR	13	6	1	MONSTER	912	n/a	1	n/a	0	0	0	0	0.5869140625	0.422607421875	lower	../fonts/zerothre.ttf
1266026	WORD	wordpools/wasnorm_wordpool.txt	LTP138	ltpFR	13	6	1	BEAST	108	n/a	1	n/a	0	0	0	0	0.5869140625	0.422607421875	lower	../fonts/zerothre.ttf
1269863	WORD	wordpools/wasnorm_wordpool.txt	LTP138	ltpFR	13	6	1	CITY	314	n/a	0	n/a	0	0	0	0	0.5869140625	0.422607421875	lower	../fonts/zerothre.ttf
1273934	WORD	wordpools/wasnorm_wordpool.txt	LTP138	ltpFR	13	6	1	CHIP	303	n/a	0	n/a	0	0	0	0	0.5869140625	0.422607421875	lower	../fonts/zerothre.ttf
1277778	WORD	wordpools/wasnorm_wordpool.txt	LTP138	ltpFR	13	6	1	TRENCH	1503	n/a	0	n/a	0	0	0	0	0.5869140625	0.422607421875	lower	../fonts/zerothre.ttf
1281790	WORD	wordpools/wasnorm_wordpool.txt	LTP138	ltpFR	13	6	1	RING	1193	n/a	0	n/a	0	0	0	0	0.5869140625	0.422607421875	lower	../fonts/zerothre.ttf
1287784	REC_START	n/a	LTP138	ltpFR	13	6	n/a	n/a	n/a	n/a	n/a	n/a	0	0	0	n/a	n/a	n/a	n/a	n/a
1288781	REC_WORD	wordpools/wasnorm_wordpool.txt	LTP138	ltpFR	13	6	1	TRENCH	1503	n/a	0	n/a	0	0	0	n/a	n/a	n/a	n/a	n/a
1289789	REC_WORD	wordpools/wasnorm_wordpool.txt	LTP138	ltpFR	13	6	1	RING	1193	n/a	0	n/a	0	0	0	n/a	n/a	n/a	n/a	n/a
1290682	REC_WORD	wordpools/wasnorm_wordpool.txt	LTP138	ltpFR	13	6	1	CUSTARD	429	n/a	0	n/a	0	0	0	n/a	n/a	n/a	n/a	n/a
1292079	REC_WORD	wordpools/wasnorm_wordpool.txt	LTP138	ltpFR	13	6	1	LIMOUSINE	824	n/a	0	n/a	0	0	0	n/a	n/a	n/a	n/a	n/a
1293426	REC_WORD_VV	wordpools/wasnorm_wordpool.txt	LTP138	ltpFR	13	6	n/a	<>	-1	n/a	n/a	n/a	0	0	0	n/a	n/a	n/a	n/a	n/a
1293730	REC_WORD	wordpools/wasnorm_wordpool.txt	LTP138	ltpFR	13	6	1	CITY	314	n/a	0	n/a	0	0	0	n/a	n/a	n/a	n/a	n/a
1294538	REC_WORD	wordpools/wasnorm_wordpool.txt	LTP138	ltpFR	13	6	1	COMMUNITY	356	n/a	1	n/a	0	0	0	n/a	n/a	n/a	n/a	n/a
1295810	REC_WORD	wordpools/wasnorm_wordpool.txt	LTP138	ltpFR	13	6	1	FOX	598	n/a	1	n/a	0	0	0	n/a	n/a	n/a	n/a	n/a
1297177	REC_WORD	wordpools/wasnorm_wordpool.txt	LTP138	ltpFR	13	6	1	MONSTER	912	n/a	1	n/a	0	0	0	n/a	n/a	n/a	n/a	n/a
1299955	REC_WORD	wordpools/wasnorm_wordpool.txt	LTP138	ltpFR	13	6	n/a	CREATURE	403	n/a	n/a	n/a	0	0	0	n/a	n/a	n/a	n/a	n/a
1302979	REC_WORD	wordpools/wasnorm_wordpool.txt	LTP138	ltpFR	13	6	1	MECHANIC	884	n/a	1	n/a	0	0	0	n/a	n/a	n/a	n/a	n/a
1306651	REC_WORD	wordpools/wasnorm_wordpool.txt	LTP138	ltpFR	13	6	1	CHIP	303	n/a	0	n/a	0	0	0	n/a	n/a	n/a	n/a	n/a
1311964	REC_WORD	wordpools/wasnorm_wordpool.txt	LTP138	ltpFR	13	6	1	CUPBOARD	425	n/a	2	n/a	0	0	0	n/a	n/a	n/a	n/a	n/a
1313760	REC_WORD	wordpools/wasnorm_wordpool.txt	LTP138	ltpFR	13	6	1	TOWEL	1489	n/a	0	n/a	0	0	0	n/a	n/a	n/a	n/a	n/a
1316020	REC_WORD	wordpools/wasnorm_wordpool.txt	LTP138	ltpFR	13	6	1	ROBIN	1199	n/a	1	n/a	0	0	0	n/a	n/a	n/a	n/a	n/a
1321183	REC_WORD	wordpools/wasnorm_wordpool.txt	LTP138	ltpFR	13	6	1	BELL	118	n/a	0	n/a	0	0	0	n/a	n/a	n/a	n/a	n/a
1377239	START	n/a	LTP138	ltpFR	13	n/a	n/a	n/a	n/a	n/a	n/a	n/a	n/a	n/a	n/a	n/a	n/a	n/a	n/a	n/a
1378745	PROB	n/a	LTP138	ltpFR	13	n/a	n/a	n/a	n/a	n/a	n/a	19	7	4	8	n/a	n/a	n/a	n/a	n/a
1381293	PROB	n/a	LTP138	ltpFR	13	n/a	n/a	n/a	n/a	n/a	n/a	13	2	2	9	n/a	n/a	n/a	n/a	n/a
1382574	PROB	n/a	LTP138	ltpFR	13	n/a	n/a	n/a	n/a	n/a	n/a	20	3	8	9	n/a	n/a	n/a	n/a	n/a
1384298	PROB	n/a	LTP138	ltpFR	13	n/a	n/a	n/a	n/a	n/a	n/a	15	4	8	3	n/a	n/a	n/a	n/a	n/a
1387651	PROB	n/a	LTP138	ltpFR	13	n/a	n/a	n/a	n/a	n/a	n/a	26	7	9	6	n/a	n/a	n/a	n/a	n/a
1390539	PROB	n/a	LTP138	ltpFR	13	n/a	n/a	n/a	n/a	n/a	n/a	8	1	2	5	n/a	n/a	n/a	n/a	n/a
1391792	STOP	n/a	LTP138	ltpFR	13	n/a	n/a	n/a	n/a	n/a	n/a	n/a	n/a	n/a	n/a	n/a	n/a	n/a	n/a	n/a
1394136	WORD	wordpools/wasnorm_wordpool.txt	LTP138	ltpFR	13	7	1	CAB	209	n/a	0	n/a	0	0	0	0	0.5869140625	0.422607421875	lower	../fonts/zerothre.ttf
1397142	START	n/a	LTP138	ltpFR	13	n/a	n/a	n/a	n/a	n/a	n/a	n/a	n/a	n/a	n/a	n/a	n/a	n/a	n/a	n/a
1398123	PROB	n/a	LTP138	ltpFR	13	n/a	n/a	n/a	n/a	n/a	n/a	10	3	1	6	n/a	n/a	n/a	n/a	n/a
1401003	PROB	n/a	LTP138	ltpFR	13	n/a	n/a	n/a	n/a	n/a	n/a	15	5	1	9	n/a	n/a	n/a	n/a	n/a
1402592	PROB	n/a	LTP138	ltpFR	13	n/a	n/a	n/a	n/a	n/a	n/a	18	5	7	6	n/a	n/a	n/a	n/a	n/a
1404915	PROB	n/a	LTP138	ltpFR	13	n/a	n/a	n/a	n/a	n/a	n/a	13	8	3	2	n/a	n/a	n/a	n/a	n/a
1406604	PROB	n/a	LTP138	ltpFR	13	n/a	n/a	n/a	n/a	n/a	n/a	8	2	2	4	n/a	n/a	n/a	n/a	n/a
1407844	PROB	n/a	LTP138	ltpFR	13	n/a	n/a	n/a	n/a	n/a	n/a	20	7	4	9	n/a	n/a	n/a	n/a	n/a
1409825	PROB	n/a	LTP138	ltpFR	13	n/a	n/a	n/a	n/a	n/a	n/a	11	3	6	2	n/a	n/a	n/a	n/a	n/a
1412289	STOP	n/a	LTP138	ltpFR	13	n/a	n/a	n/a	n/a	n/a	n/a	n/a	n/a	n/a	n/a	n/a	n/a	n/a	n/a	n/a
1414088	WORD	wordpools/wasnorm_wordpool.txt	LTP138	ltpFR	13	7	1	TAXI	1438	n/a	0	n/a	0	0	0	0	0.5869140625	0.422607421875	lower	../fonts/zerothre.ttf
1417093	START	n/a	LTP138	ltpFR	13	n/a	n/a	n/a	n/a	n/a	n/a	n/a	n/a	n/a	n/a	n/a	n/a	n/a	n/a	n/a
1418225	PROB	n/a	LTP138	ltpFR	13	n/a	n/a	n/a	n/a	n/a	n/a	18	9	1	8	n/a	n/a	n/a	n/a	n/a
1419547	PROB	n/a	LTP138	ltpFR	13	n/a	n/a	n/a	n/a	n/a	n/a	13	5	2	6	n/a	n/a	n/a	n/a	n/a
1420980	PROB	n/a	LTP138	ltpFR	13	n/a	n/a	n/a	n/a	n/a	n/a	15	8	1	6	n/a	n/a	n/a	n/a	n/a
1422420	PROB	n/a	LTP138	ltpFR	13	n/a	n/a	n/a	n/a	n/a	n/a	18	9	7	2	n/a	n/a	n/a	n/a	n/a
1424426	PROB	n/a	LTP138	ltpFR	13	n/a	n/a	n/a	n/a	n/a	n/a	14	5	7	2	n/a	n/a	n/a	n/a	n/a
1426789	PROB	n/a	LTP138	ltpFR	13	n/a	n/a	n/a	n/a	n/a	n/a	19	8	9	2	n/a	n/a	n/a	n/a	n/a
1428438	PROB	n/a	LTP138	ltpFR	13	n/a	n/a	n/a	n/a	n/a	n/a	6	3	1	2	n/a	n/a	n/a	n/a	n/a
1429894	PROB	n/a	LTP138	ltpFR	13	n/a	n/a	n/a	n/a	n/a	n/a	20	9	8	3	n/a	n/a	n/a	n/a	n/a
1431736	STOP	n/a	LTP138	ltpFR	13	n/a	n/a	n/a	n/a	n/a	n/a	n/a	n/a	n/a	n/a	n/a	n/a	n/a	n/a	n/a
1434256	WORD	wordpools/wasnorm_wordpool.txt	LTP138	ltpFR	13	7	0	WAGON	1578	n/a	0	n/a	0	0	0	1	0.412841796875	0.57763671875	upper	../fonts/amplitud.ttf
1437262	START	n/a	LTP138	ltpFR	13	n/a	n/a	n/a	n/a	n/a	n/a	n/a	n/a	n/a	n/a	n/a	n/a	n/a	n/a	n/a
1438335	PROB	n/a	LTP138	ltpFR	13	n/a	n/a	n/a	n/a	n/a	n/a	23	9	8	6	n/a	n/a	n/a	n/a	n/a
1440982	PROB	n/a	LTP138	ltpFR	13	n/a	n/a	n/a	n/a	n/a	n/a	11	4	5	2	n/a	n/a	n/a	n/a	n/a
1442912	PROB	n/a	LTP138	ltpFR	13	n/a	n/a	n/a	n/a	n/a	n/a	15	6	6	3	n/a	n/a	n/a	n/a	n/a
1444494	PROB	n/a	LTP138	ltpFR	13	n/a	n/a	n/a	n/a	n/a	n/a	13	6	5	2	n/a	n/a	n/a	n/a	n/a
1446508	PROB	n/a	LTP138	ltpFR	13	n/a	n/a	n/a	n/a	n/a	n/a	10	1	3	6	n/a	n/a	n/a	n/a	n/a
1447924	PROB	n/a	LTP138	ltpFR	13	n/a	n/a	n/a	n/a	n/a	n/a	20	5	6	9	n/a	n/a	n/a	n/a	n/a
1449546	PROB	n/a	LTP138	ltpFR	13	n/a	n/a	n/a	n/a	n/a	n/a	19	3	8	8	n/a	n/a	n/a	n/a	n/a
1452648	STOP	n/a	LTP138	ltpFR	13	n/a	n/a	n/a	n/a	n/a	n/a	n/a	n/a	n/a	n/a	n/a	n/a	n/a	n/a	n/a
1454275	WORD	wordpools/wasnorm_wordpool.txt	LTP138	ltpFR	13	7	0	PAPER	1011	n/a	0	n/a	0	0	0	1	0.412841796875	0.57763671875	upper	../fonts/amplitud.ttf
1457280	START	n/a	LTP138	ltpFR	13	n/a	n/a	n/a	n/a	n/a	n/a	n/a	n/a	n/a	n/a	n/a	n/a	n/a	n/a	n/a
1458370	PROB	n/a	LTP138	ltpFR	13	n/a	n/a	n/a	n/a	n/a	n/a	14	3	8	3	n/a	n/a	n/a	n/a	n/a
1460110	PROB	n/a	LTP138	ltpFR	13	n/a	n/a	n/a	n/a	n/a	n/a	26	9	9	8	n/a	n/a	n/a	n/a	n/a
1462266	PROB	n/a	LTP138	ltpFR	13	n/a	n/a	n/a	n/a	n/a	n/a	15	3	2	9	n/a	n/a	n/a	n/a	n/a
1463804	PROB	n/a	LTP138	ltpFR	13	n/a	n/a	n/a	n/a	n/a	n/a	24	8	8	8	n/a	n/a	n/a	n/a	n/a
1465337	PROB	n/a	LTP138	ltpFR	13	n/a	n/a	n/a	n/a	n/a	n/a	15	8	1	6	n/a	n/a	n/a	n/a	n/a
1467285	PROB	n/a	LTP138	ltpFR	13	n/a	n/a	n/a	n/a	n/a	n/a	12	8	2	2	n/a	n/a	n/a	n/a	n/a
1468624	PROB	n/a	LTP138	ltpFR	13	n/a	n/a	n/a	n/a	n/a	n/a	21	9	5	7	n/a	n/a	n/a	n/a	n/a
1471405	PROB	n/a	LTP138	ltpFR	13	n/a	n/a	n/a	n/a	n/a	n/a	14	2	3	8	n/a	n/a	n/a	n/a	n/a
1472736	STOP	n/a	LTP138	ltpFR	13	n/a	n/a	n/a	n/a	n/a	n/a	n/a	n/a	n/a	n/a	n/a	n/a	n/a	n/a	n/a
1474185	WORD	wordpools/wasnorm_wordpool.txt	LTP138	ltpFR	13	7	0	TRAY	1498	n/a	1	n/a	0	0	0	1	0.412841796875	0.57763671875	upper	../fonts/amplitud.ttf
1477190	START	n/a	LTP138	ltpFR	13	n/a	n/a	n/a	n/a	n/a	n/a	n/a	n/a	n/a	n/a	n/a	n/a	n/a	n/a	n/a
1478147	PROB	n/a	LTP138	ltpFR	13	n/a	n/a	n/a	n/a	n/a	n/a	19	8	6	5	n/a	n/a	n/a	n/a	n/a
1479694	PROB	n/a	LTP138	ltpFR	13	n/a	n/a	n/a	n/a	n/a	n/a	16	9	6	1	n/a	n/a	n/a	n/a	n/a
1480986	PROB	n/a	LTP138	ltpFR	13	n/a	n/a	n/a	n/a	n/a	n/a	10	2	3	4	n/a	n/a	n/a	n/a	n/a
1482451	PROB	n/a	LTP138	ltpFR	13	n/a	n/a	n/a	n/a	n/a	n/a	8	2	1	5	n/a	n/a	n/a	n/a	n/a
1485955	PROB	n/a	LTP138	ltpFR	13	n/a	n/a	n/a	n/a	n/a	n/a	17	6	9	2	n/a	n/a	n/a	n/a	n/a
1488684	PROB	n/a	LTP138	ltpFR	13	n/a	n/a	n/a	n/a	n/a	n/a	13	3	5	5	n/a	n/a	n/a	n/a	n/a
1489874	PROB	n/a	LTP138	ltpFR	13	n/a	n/a	n/a	n/a	n/a	n/a	11	8	2	1	n/a	n/a	n/a	n/a	n/a
1493190	STOP	n/a	LTP138	ltpFR	13	n/a	n/a	n/a	n/a	n/a	n/a	n/a	n/a	n/a	n/a	n/a	n/a	n/a	n/a	n/a
1494179	WORD	wordpools/wasnorm_wordpool.txt	LTP138	ltpFR	13	7	0	SPOUSE	1358	n/a	1	n/a	0	0	0	1	0.412841796875	0.57763671875	upper	../fonts/amplitud.ttf
1497184	START	n/a	LTP138	ltpFR	13	n/a	n/a	n/a	n/a	n/a	n/a	n/a	n/a	n/a	n/a	n/a	n/a	n/a	n/a	n/a
1498224	PROB	n/a	LTP138	ltpFR	13	n/a	n/a	n/a	n/a	n/a	n/a	20	6	6	8	n/a	n/a	n/a	n/a	n/a
1499964	PROB	n/a	LTP138	ltpFR	13	n/a	n/a	n/a	n/a	n/a	n/a	10	1	5	4	n/a	n/a	n/a	n/a	n/a
1501561	PROB	n/a	LTP138	ltpFR	13	n/a	n/a	n/a	n/a	n/a	n/a	13	3	1	9	n/a	n/a	n/a	n/a	n/a
1502826	PROB	n/a	LTP138	ltpFR	13	n/a	n/a	n/a	n/a	n/a	n/a	17	3	8	6	n/a	n/a	n/a	n/a	n/a
1504949	PROB	n/a	LTP138	ltpFR	13	n/a	n/a	n/a	n/a	n/a	n/a	13	6	6	1	n/a	n/a	n/a	n/a	n/a
1506323	PROB	n/a	LTP138	ltpFR	13	n/a	n/a	n/a	n/a	n/a	n/a	12	3	6	3	n/a	n/a	n/a	n/a	n/a
1507996	PROB	n/a	LTP138	ltpFR	13	n/a	n/a	n/a	n/a	n/a	n/a	21	9	9	3	n/a	n/a	n/a	n/a	n/a
1513184	STOP	n/a	LTP138	ltpFR	13	n/a	n/a	n/a	n/a	n/a	n/a	n/a	n/a	n/a	n/a	n/a	n/a	n/a	n/a	n/a
1514222	WORD	wordpools/wasnorm_wordpool.txt	LTP138	ltpFR	13	7	1	RUST	1219	n/a	0	n/a	0	0	0	0	0.5869140625	0.422607421875	lower	../fonts/zerothre.ttf
1517227	START	n/a	LTP138	ltpFR	13	n/a	n/a	n/a	n/a	n/a	n/a	n/a	n/a	n/a	n/a	n/a	n/a	n/a	n/a	n/a
1518259	PROB	n/a	LTP138	ltpFR	13	n/a	n/a	n/a	n/a	n/a	n/a	16	9	2	5	n/a	n/a	n/a	n/a	n/a
1519949	PROB	n/a	LTP138	ltpFR	13	n/a	n/a	n/a	n/a	n/a	n/a	18	9	8	1	n/a	n/a	n/a	n/a	n/a
1521762	PROB	n/a	LTP138	ltpFR	13	n/a	n/a	n/a	n/a	n/a	n/a	17	1	8	8	n/a	n/a	n/a	n/a	n/a
1523802	PROB	n/a	LTP138	ltpFR	13	n/a	n/a	n/a	n/a	n/a	n/a	15	7	5	3	n/a	n/a	n/a	n/a	n/a
1525384	PROB	n/a	LTP138	ltpFR	13	n/a	n/a	n/a	n/a	n/a	n/a	13	1	5	7	n/a	n/a	n/a	n/a	n/a
1530045	PROB	n/a	LTP138	ltpFR	13	n/a	n/a	n/a	n/a	n/a	n/a	24	9	7	8	n/a	n/a	n/a	n/a	n/a
1531864	STOP	n/a	LTP138	ltpFR	13	n/a	n/a	n/a	n/a	n/a	n/a	n/a	n/a	n/a	n/a	n/a	n/a	n/a	n/a	n/a
1534315	WORD	wordpools/wasnorm_wordpool.txt	LTP138	ltpFR	13	7	1	PUPPY	1144	n/a	1	n/a	0	0	0	0	0.5869140625	0.422607421875	lower	../fonts/zerothre.ttf
1537321	START	n/a	LTP138	ltpFR	13	n/a	n/a	n/a	n/a	n/a	n/a	n/a	n/a	n/a	n/a	n/a	n/a	n/a	n/a	n/a
1538169	PROB	n/a	LTP138	ltpFR	13	n/a	n/a	n/a	n/a	n/a	n/a	17	1	9	7	n/a	n/a	n/a	n/a	n/a
1539558	PROB	n/a	LTP138	ltpFR	13	n/a	n/a	n/a	n/a	n/a	n/a	15	7	1	7	n/a	n/a	n/a	n/a	n/a
1541349	PROB	n/a	LTP138	ltpFR	13	n/a	n/a	n/a	n/a	n/a	n/a	14	6	3	5	n/a	n/a	n/a	n/a	n/a
1543405	PROB	n/a	LTP138	ltpFR	13	n/a	n/a	n/a	n/a	n/a	n/a	13	2	2	9	n/a	n/a	n/a	n/a	n/a
1544636	PROB	n/a	LTP138	ltpFR	13	n/a	n/a	n/a	n/a	n/a	n/a	18	5	8	5	n/a	n/a	n/a	n/a	n/a
1545969	PROB	n/a	LTP138	ltpFR	13	n/a	n/a	n/a	n/a	n/a	n/a	13	6	4	3	n/a	n/a	n/a	n/a	n/a
1548149	PROB	n/a	LTP138	ltpFR	13	n/a	n/a	n/a	n/a	n/a	n/a	8	5	2	1	n/a	n/a	n/a	n/a	n/a
1549440	PROB	n/a	LTP138	ltpFR	13	n/a	n/a	n/a	n/a	n/a	n/a	12	6	5	1	n/a	n/a	n/a	n/a	n/a
1550921	PROB	n/a	LTP138	ltpFR	13	n/a	n/a	n/a	n/a	n/a	n/a	13	3	9	1	n/a	n/a	n/a	n/a	n/a
1552201	STOP	n/a	LTP138	ltpFR	13	n/a	n/a	n/a	n/a	n/a	n/a	n/a	n/a	n/a	n/a	n/a	n/a	n/a	n/a	n/a
1554334	WORD	wordpools/wasnorm_wordpool.txt	LTP138	ltpFR	13	7	1	BOXER	160	n/a	1	n/a	0	0	0	0	0.5869140625	0.422607421875	lower	../fonts/zerothre.ttf
1557339	START	n/a	LTP138	ltpFR	13	n/a	n/a	n/a	n/a	n/a	n/a	n/a	n/a	n/a	n/a	n/a	n/a	n/a	n/a	n/a
1558346	PROB	n/a	LTP138	ltpFR	13	n/a	n/a	n/a	n/a	n/a	n/a	11	2	2	7	n/a	n/a	n/a	n/a	n/a
1559893	PROB	n/a	LTP138	ltpFR	13	n/a	n/a	n/a	n/a	n/a	n/a	10	2	6	2	n/a	n/a	n/a	n/a	n/a
1561666	PROB	n/a	LTP138	ltpFR	13	n/a	n/a	n/a	n/a	n/a	n/a	16	4	3	9	n/a	n/a	n/a	n/a	n/a
1563082	PROB	n/a	LTP138	ltpFR	13	n/a	n/a	n/a	n/a	n/a	n/a	11	6	1	4	n/a	n/a	n/a	n/a	n/a
1564513	PROB	n/a	LTP138	ltpFR	13	n/a	n/a	n/a	n/a	n/a	n/a	14	6	3	5	n/a	n/a	n/a	n/a	n/a
1565937	PROB	n/a	LTP138	ltpFR	13	n/a	n/a	n/a	n/a	n/a	n/a	15	3	2	9	n/a	n/a	n/a	n/a	n/a
1567361	PROB	n/a	LTP138	ltpFR	13	n/a	n/a	n/a	n/a	n/a	n/a	12	5	1	6	n/a	n/a	n/a	n/a	n/a
1568650	PROB	n/a	LTP138	ltpFR	13	n/a	n/a	n/a	n/a	n/a	n/a	8	1	3	4	n/a	n/a	n/a	n/a	n/a
1570681	PROB	n/a	LTP138	ltpFR	13	n/a	n/a	n/a	n/a	n/a	n/a	17	6	5	6	n/a	n/a	n/a	n/a	n/a
1572888	STOP	n/a	LTP138	ltpFR	13	n/a	n/a	n/a	n/a	n/a	n/a	n/a	n/a	n/a	n/a	n/a	n/a	n/a	n/a	n/a
1574153	WORD	wordpools/wasnorm_wordpool.txt	LTP138	ltpFR	13	7	0	PANTHER	1009	n/a	1	n/a	0	0	0	1	0.412841796875	0.57763671875	upper	../fonts/amplitud.ttf
1577158	START	n/a	LTP138	ltpFR	13	n/a	n/a	n/a	n/a	n/a	n/a	n/a	n/a	n/a	n/a	n/a	n/a	n/a	n/a	n/a
1578007	PROB	n/a	LTP138	ltpFR	13	n/a	n/a	n/a	n/a	n/a	n/a	15	9	4	2	n/a	n/a	n/a	n/a	n/a
1580312	PROB	n/a	LTP138	ltpFR	13	n/a	n/a	n/a	n/a	n/a	n/a	19	8	4	7	n/a	n/a	n/a	n/a	n/a
1582118	PROB	n/a	LTP138	ltpFR	13	n/a	n/a	n/a	n/a	n/a	n/a	11	5	3	2	n/a	n/a	n/a	n/a	n/a
1585265	PROB	n/a	LTP138	ltpFR	13	n/a	n/a	n/a	n/a	n/a	n/a	15	3	5	7	n/a	n/a	n/a	n/a	n/a
1587104	PROB	n/a	LTP138	ltpFR	13	n/a	n/a	n/a	n/a	n/a	n/a	18	5	4	9	n/a	n/a	n/a	n/a	n/a
1589060	PROB	n/a	LTP138	ltpFR	13	n/a	n/a	n/a	n/a	n/a	n/a	10	7	1	2	n/a	n/a	n/a	n/a	n/a
1590608	PROB	n/a	LTP138	ltpFR	13	n/a	n/a	n/a	n/a	n/a	n/a	13	4	5	4	n/a	n/a	n/a	n/a	n/a
1592217	STOP	n/a	LTP138	ltpFR	13	n/a	n/a	n/a	n/a	n/a	n/a	n/a	n/a	n/a	n/a	n/a	n/a	n/a	n/a	n/a
1594229	WORD	wordpools/wasnorm_wordpool.txt	LTP138	ltpFR	13	7	0	CART	250	n/a	1	n/a	0	0	0	1	0.412841796875	0.57763671875	upper	../fonts/amplitud.ttf
1597235	START	n/a	LTP138	ltpFR	13	n/a	n/a	n/a	n/a	n/a	n/a	n/a	n/a	n/a	n/a	n/a	n/a	n/a	n/a	n/a
1598191	PROB	n/a	LTP138	ltpFR	13	n/a	n/a	n/a	n/a	n/a	n/a	12	3	8	1	n/a	n/a	n/a	n/a	n/a
1599989	PROB	n/a	LTP138	ltpFR	13	n/a	n/a	n/a	n/a	n/a	n/a	9	1	2	6	n/a	n/a	n/a	n/a	n/a
1601528	PROB	n/a	LTP138	ltpFR	13	n/a	n/a	n/a	n/a	n/a	n/a	14	5	7	2	n/a	n/a	n/a	n/a	n/a
1604185	PROB	n/a	LTP138	ltpFR	13	n/a	n/a	n/a	n/a	n/a	n/a	19	8	7	4	n/a	n/a	n/a	n/a	n/a
1605723	PROB	n/a	LTP138	ltpFR	13	n/a	n/a	n/a	n/a	n/a	n/a	13	5	4	4	n/a	n/a	n/a	n/a	n/a
1608346	PROB	n/a	LTP138	ltpFR	13	n/a	n/a	n/a	n/a	n/a	n/a	15	7	2	6	n/a	n/a	n/a	n/a	n/a
1612552	STOP	n/a	LTP138	ltpFR	13	n/a	n/a	n/a	n/a	n/a	n/a	n/a	n/a	n/a	n/a	n/a	n/a	n/a	n/a	n/a
1614231	WORD	wordpools/wasnorm_wordpool.txt	LTP138	ltpFR	13	7	0	TAR	1435	n/a	1	n/a	0	0	0	1	0.412841796875	0.57763671875	upper	../fonts/amplitud.ttf
1617237	START	n/a	LTP138	ltpFR	13	n/a	n/a	n/a	n/a	n/a	n/a	n/a	n/a	n/a	n/a	n/a	n/a	n/a	n/a	n/a
1618077	PROB	n/a	LTP138	ltpFR	13	n/a	n/a	n/a	n/a	n/a	n/a	22	7	8	7	n/a	n/a	n/a	n/a	n/a
1622388	PROB	n/a	LTP138	ltpFR	13	n/a	n/a	n/a	n/a	n/a	n/a	11	6	3	2	n/a	n/a	n/a	n/a	n/a
1624635	PROB	n/a	LTP138	ltpFR	13	n/a	n/a	n/a	n/a	n/a	n/a	12	3	3	6	n/a	n/a	n/a	n/a	n/a
1625918	PROB	n/a	LTP138	ltpFR	13	n/a	n/a	n/a	n/a	n/a	n/a	21	9	6	6	n/a	n/a	n/a	n/a	n/a
1628157	PROB	n/a	LTP138	ltpFR	13	n/a	n/a	n/a	n/a	n/a	n/a	19	4	9	6	n/a	n/a	n/a	n/a	n/a
1630229	PROB	n/a	LTP138	ltpFR	13	n/a	n/a	n/a	n/a	n/a	n/a	14	8	5	1	n/a	n/a	n/a	n/a	n/a
1631643	PROB	n/a	LTP138	ltpFR	13	n/a	n/a	n/a	n/a	n/a	n/a	13	2	5	6	n/a	n/a	n/a	n/a	n/a
1633169	STOP	n/a	LTP138	ltpFR	13	n/a	n/a	n/a	n/a	n/a	n/a	n/a	n/a	n/a	n/a	n/a	n/a	n/a	n/a	n/a
1634425	WORD	wordpools/wasnorm_wordpool.txt	LTP138	ltpFR	13	7	0	SHOULDER	1294	n/a	1	n/a	0	0	0	1	0.412841796875	0.57763671875	upper	../fonts/amplitud.ttf
1637430	START	n/a	LTP138	ltpFR	13	n/a	n/a	n/a	n/a	n/a	n/a	n/a	n/a	n/a	n/a	n/a	n/a	n/a	n/a	n/a
1638544	PROB	n/a	LTP138	ltpFR	13	n/a	n/a	n/a	n/a	n/a	n/a	16	8	1	7	n/a	n/a	n/a	n/a	n/a
1640001	PROB	n/a	LTP138	ltpFR	13	n/a	n/a	n/a	n/a	n/a	n/a	23	6	8	9	n/a	n/a	n/a	n/a	n/a
1648857	PROB	n/a	LTP138	ltpFR	13	n/a	n/a	n/a	n/a	n/a	n/a	19	9	8	2	n/a	n/a	n/a	n/a	n/a
1653430	STOP	n/a	LTP138	ltpFR	13	n/a	n/a	n/a	n/a	n/a	n/a	n/a	n/a	n/a	n/a	n/a	n/a	n/a	n/a	n/a
1654443	WORD	wordpools/wasnorm_wordpool.txt	LTP138	ltpFR	13	7	1	BLUEBERRY	140	n/a	1	n/a	0	0	0	0	0.5869140625	0.422607421875	lower	../fonts/zerothre.ttf
1657448	START	n/a	LTP138	ltpFR	13	n/a	n/a	n/a	n/a	n/a	n/a	n/a	n/a	n/a	n/a	n/a	n/a	n/a	n/a	n/a
1658272	PROB	n/a	LTP138	ltpFR	13	n/a	n/a	n/a	n/a	n/a	n/a	21	5	6	9	n/a	n/a	n/a	n/a	n/a
1660560	PROB	n/a	LTP138	ltpFR	13	n/a	n/a	n/a	n/a	n/a	n/a	16	8	2	6	n/a	n/a	n/a	n/a	n/a
1662001	PROB	n/a	LTP138	ltpFR	13	n/a	n/a	n/a	n/a	n/a	n/a	19	7	6	6	n/a	n/a	n/a	n/a	n/a
1664323	PROB	n/a	LTP138	ltpFR	13	n/a	n/a	n/a	n/a	n/a	n/a	10	6	1	3	n/a	n/a	n/a	n/a	n/a
1665921	PROB	n/a	LTP138	ltpFR	13	n/a	n/a	n/a	n/a	n/a	n/a	15	4	2	9	n/a	n/a	n/a	n/a	n/a
1667977	PROB	n/a	LTP138	ltpFR	13	n/a	n/a	n/a	n/a	n/a	n/a	15	7	1	7	n/a	n/a	n/a	n/a	n/a
1669434	PROB	n/a	LTP138	ltpFR	13	n/a	n/a	n/a	n/a	n/a	n/a	13	2	7	4	n/a	n/a	n/a	n/a	n/a
1673447	STOP	n/a	LTP138	ltpFR	13	n/a	n/a	n/a	n/a	n/a	n/a	n/a	n/a	n/a	n/a	n/a	n/a	n/a	n/a	n/a
1674378	WORD	wordpools/wasnorm_wordpool.txt	LTP138	ltpFR	13	7	1	MAGICIAN	854	n/a	1	n/a	0	0	0	0	0.5869140625	0.422607421875	lower	../fonts/zerothre.ttf
1677383	START	n/a	LTP138	ltpFR	13	n/a	n/a	n/a	n/a	n/a	n/a	n/a	n/a	n/a	n/a	n/a	n/a	n/a	n/a	n/a
1678357	PROB	n/a	LTP138	ltpFR	13	n/a	n/a	n/a	n/a	n/a	n/a	17	3	6	8	n/a	n/a	n/a	n/a	n/a
1680487	PROB	n/a	LTP138	ltpFR	13	n/a	n/a	n/a	n/a	n/a	n/a	19	8	7	4	n/a	n/a	n/a	n/a	n/a
1682269	PROB	n/a	LTP138	ltpFR	13	n/a	n/a	n/a	n/a	n/a	n/a	14	5	2	7	n/a	n/a	n/a	n/a	n/a
1685207	PROB	n/a	LTP138	ltpFR	13	n/a	n/a	n/a	n/a	n/a	n/a	21	8	8	5	n/a	n/a	n/a	n/a	n/a
1687371	PROB	n/a	LTP138	ltpFR	13	n/a	n/a	n/a	n/a	n/a	n/a	19	3	8	8	n/a	n/a	n/a	n/a	n/a
1689303	PROB	n/a	LTP138	ltpFR	13	n/a	n/a	n/a	n/a	n/a	n/a	17	7	6	4	n/a	n/a	n/a	n/a	n/a
1691616	PROB	n/a	LTP138	ltpFR	13	n/a	n/a	n/a	n/a	n/a	n/a	16	1	8	7	n/a	n/a	n/a	n/a	n/a
1693113	STOP	n/a	LTP138	ltpFR	13	n/a	n/a	n/a	n/a	n/a	n/a	n/a	n/a	n/a	n/a	n/a	n/a	n/a	n/a	n/a
1694338	WORD	wordpools/wasnorm_wordpool.txt	LTP138	ltpFR	13	7	1	DOG	480	n/a	0	n/a	0	0	0	0	0.5869140625	0.422607421875	lower	../fonts/zerothre.ttf
1697343	START	n/a	LTP138	ltpFR	13	n/a	n/a	n/a	n/a	n/a	n/a	n/a	n/a	n/a	n/a	n/a	n/a	n/a	n/a	n/a
1698458	PROB	n/a	LTP138	ltpFR	13	n/a	n/a	n/a	n/a	n/a	n/a	15	7	2	6	n/a	n/a	n/a	n/a	n/a
1701512	PROB	n/a	LTP138	ltpFR	13	n/a	n/a	n/a	n/a	n/a	n/a	25	8	8	9	n/a	n/a	n/a	n/a	n/a
1705068	PROB	n/a	LTP138	ltpFR	13	n/a	n/a	n/a	n/a	n/a	n/a	22	5	9	8	n/a	n/a	n/a	n/a	n/a
1707780	PROB	n/a	LTP138	ltpFR	13	n/a	n/a	n/a	n/a	n/a	n/a	15	5	7	3	n/a	n/a	n/a	n/a	n/a
1709329	PROB	n/a	LTP138	ltpFR	13	n/a	n/a	n/a	n/a	n/a	n/a	17	4	4	9	n/a	n/a	n/a	n/a	n/a
1710785	PROB	n/a	LTP138	ltpFR	13	n/a	n/a	n/a	n/a	n/a	n/a	11	1	7	3	n/a	n/a	n/a	n/a	n/a
1712824	STOP	n/a	LTP138	ltpFR	13	n/a	n/a	n/a	n/a	n/a	n/a	n/a	n/a	n/a	n/a	n/a	n/a	n/a	n/a	n/a
1715173	REC_START	n/a	LTP138	ltpFR	13	7	n/a	n/a	n/a	n/a	n/a	n/a	0	0	0	n/a	n/a	n/a	n/a	n/a
1716654	REC_WORD	wordpools/wasnorm_wordpool.txt	LTP138	ltpFR	13	7	1	BLUEBERRY	140	n/a	1	n/a	0	0	0	n/a	n/a	n/a	n/a	n/a
1717492	REC_WORD	wordpools/wasnorm_wordpool.txt	LTP138	ltpFR	13	7	0	SPOUSE	1358	n/a	1	n/a	0	0	0	n/a	n/a	n/a	n/a	n/a
1718580	REC_WORD	wordpools/wasnorm_wordpool.txt	LTP138	ltpFR	13	7	0	SHOULDER	1294	n/a	1	n/a	0	0	0	n/a	n/a	n/a	n/a	n/a
1721164	REC_WORD	wordpools/wasnorm_wordpool.txt	LTP138	ltpFR	13	7	0	CART	250	n/a	1	n/a	0	0	0	n/a	n/a	n/a	n/a	n/a
1721982	REC_WORD	wordpools/wasnorm_wordpool.txt	LTP138	ltpFR	13	7	0	TRAY	1498	n/a	1	n/a	0	0	0	n/a	n/a	n/a	n/a	n/a
1722875	REC_WORD	wordpools/wasnorm_wordpool.txt	LTP138	ltpFR	13	7	0	PAPER	1011	n/a	0	n/a	0	0	0	n/a	n/a	n/a	n/a	n/a
1727659	REC_WORD	wordpools/wasnorm_wordpool.txt	LTP138	ltpFR	13	7	1	BOXER	160	n/a	1	n/a	0	0	0	n/a	n/a	n/a	n/a	n/a
1728976	REC_WORD	wordpools/wasnorm_wordpool.txt	LTP138	ltpFR	13	7	1	PUPPY	1144	n/a	1	n/a	0	0	0	n/a	n/a	n/a	n/a	n/a
1729924	REC_WORD	wordpools/wasnorm_wordpool.txt	LTP138	ltpFR	13	7	1	DOG	480	n/a	0	n/a	0	0	0	n/a	n/a	n/a	n/a	n/a
1743942	REC_WORD	wordpools/wasnorm_wordpool.txt	LTP138	ltpFR	13	7	0	WAGON	1578	n/a	0	n/a	0	0	0	n/a	n/a	n/a	n/a	n/a
1745070	REC_WORD	wordpools/wasnorm_wordpool.txt	LTP138	ltpFR	13	7	1	RUST	1219	n/a	0	n/a	0	0	0	n/a	n/a	n/a	n/a	n/a
1746901	REC_WORD	wordpools/wasnorm_wordpool.txt	LTP138	ltpFR	13	7	1	TAXI	1438	n/a	0	n/a	0	0	0	n/a	n/a	n/a	n/a	n/a
1748607	REC_WORD	wordpools/wasnorm_wordpool.txt	LTP138	ltpFR	13	7	1	CAB	209	n/a	0	n/a	0	0	0	n/a	n/a	n/a	n/a	n/a
1788621	REC_WORD	wordpools/wasnorm_wordpool.txt	LTP138	ltpFR	13	7	1	MAGICIAN	854	n/a	1	n/a	0	0	0	n/a	n/a	n/a	n/a	n/a
1809562	WORD	wordpools/wasnorm_wordpool.txt	LTP138	ltpFR	13	8	0	CAN	225	n/a	0	n/a	0	0	0	1	0.412841796875	0.57763671875	upper	../fonts/amplitud.ttf
1813624	WORD	wordpools/wasnorm_wordpool.txt	LTP138	ltpFR	13	8	0	BASKET	95	n/a	1	n/a	0	0	0	1	0.412841796875	0.57763671875	upper	../fonts/amplitud.ttf
1817653	WORD	wordpools/wasnorm_wordpool.txt	LTP138	ltpFR	13	8	0	CREAM	402	n/a	0	n/a	0	0	0	1	0.412841796875	0.57763671875	upper	../fonts/amplitud.ttf
1821748	WORD	wordpools/wasnorm_wordpool.txt	LTP138	ltpFR	13	8	0	PORPOISE	1109	n/a	1	n/a	0	0	0	1	0.412841796875	0.57763671875	upper	../fonts/amplitud.ttf
1825702	WORD	wordpools/wasnorm_wordpool.txt	LTP138	ltpFR	13	8	0	ROSE	1212	n/a	1	n/a	0	0	0	1	0.412841796875	0.57763671875	upper	../fonts/amplitud.ttf
1829514	WORD	wordpools/wasnorm_wordpool.txt	LTP138	ltpFR	13	8	0	DESIGNER	451	n/a	1	n/a	0	0	0	1	0.412841796875	0.57763671875	upper	../fonts/amplitud.ttf
1833452	WORD	wordpools/wasnorm_wordpool.txt	LTP138	ltpFR	13	8	0	CAFETERIA	217	n/a	1	n/a	0	0	0	1	0.412841796875	0.57763671875	upper	../fonts/amplitud.ttf
1837605	WORD	wordpools/wasnorm_wordpool.txt	LTP138	ltpFR	13	8	0	GARDEN	623	n/a	1	n/a	0	0	0	1	0.412841796875	0.57763671875	upper	../fonts/amplitud.ttf
1841492	WORD	wordpools/wasnorm_wordpool.txt	LTP138	ltpFR	13	8	0	FROST	609	n/a	0	n/a	0	0	0	1	0.412841796875	0.57763671875	upper	../fonts/amplitud.ttf
1845487	WORD	wordpools/wasnorm_wordpool.txt	LTP138	ltpFR	13	8	0	SIBLING	1301	n/a	1	n/a	0	0	0	1	0.412841796875	0.57763671875	upper	../fonts/amplitud.ttf
1849392	WORD	wordpools/wasnorm_wordpool.txt	LTP138	ltpFR	13	8	0	SALMON	1227	n/a	0	n/a	0	0	0	1	0.412841796875	0.57763671875	upper	../fonts/amplitud.ttf
1853412	WORD	wordpools/wasnorm_wordpool.txt	LTP138	ltpFR	13	8	0	BAIT	70	n/a	0	n/a	0	0	0	1	0.412841796875	0.57763671875	upper	../fonts/amplitud.ttf
1857366	WORD	wordpools/wasnorm_wordpool.txt	LTP138	ltpFR	13	8	0	SEAFOOD	1260	n/a	0	n/a	0	0	0	1	0.412841796875	0.57763671875	upper	../fonts/amplitud.ttf
1861178	WORD	wordpools/wasnorm_wordpool.txt	LTP138	ltpFR	13	8	0	CLOVE	329	n/a	0	n/a	0	0	0	1	0.412841796875	0.57763671875	upper	../fonts/amplitud.ttf
1865249	WORD	wordpools/wasnorm_wordpool.txt	LTP138	ltpFR	13	8	0	RECORD	1176	n/a	1	n/a	0	0	0	1	0.412841796875	0.57763671875	upper	../fonts/amplitud.ttf
1869153	WORD	wordpools/wasnorm_wordpool.txt	LTP138	ltpFR	13	8	0	DIAGRAM	456	n/a	0	n/a	0	0	0	1	0.412841796875	0.57763671875	upper	../fonts/amplitud.ttf
1872158	START	n/a	LTP138	ltpFR	13	n/a	n/a	n/a	n/a	n/a	n/a	n/a	n/a	n/a	n/a	n/a	n/a	n/a	n/a	n/a
1873023	PROB	n/a	LTP138	ltpFR	13	n/a	n/a	n/a	n/a	n/a	n/a	15	5	4	6	n/a	n/a	n/a	n/a	n/a
1874921	PROB	n/a	LTP138	ltpFR	13	n/a	n/a	n/a	n/a	n/a	n/a	15	8	1	6	n/a	n/a	n/a	n/a	n/a
1876968	PROB	n/a	LTP138	ltpFR	13	n/a	n/a	n/a	n/a	n/a	n/a	13	1	6	6	n/a	n/a	n/a	n/a	n/a
1878450	PROB	n/a	LTP138	ltpFR	13	n/a	n/a	n/a	n/a	n/a	n/a	15	2	4	9	n/a	n/a	n/a	n/a	n/a
1879847	PROB	n/a	LTP138	ltpFR	13	n/a	n/a	n/a	n/a	n/a	n/a	15	3	2	9	n/a	n/a	n/a	n/a	n/a
1881222	PROB	n/a	LTP138	ltpFR	13	n/a	n/a	n/a	n/a	n/a	n/a	18	9	3	6	n/a	n/a	n/a	n/a	n/a
1883294	PROB	n/a	LTP138	ltpFR	13	n/a	n/a	n/a	n/a	n/a	n/a	15	6	6	3	n/a	n/a	n/a	n/a	n/a
1884934	PROB	n/a	LTP138	ltpFR	13	n/a	n/a	n/a	n/a	n/a	n/a	10	4	3	3	n/a	n/a	n/a	n/a	n/a
1888158	STOP	n/a	LTP138	ltpFR	13	n/a	n/a	n/a	n/a	n/a	n/a	n/a	n/a	n/a	n/a	n/a	n/a	n/a	n/a	n/a
1889929	REC_START	n/a	LTP138	ltpFR	13	8	n/a	n/a	n/a	n/a	n/a	n/a	0	0	0	n/a	n/a	n/a	n/a	n/a
1890892	REC_WORD	wordpools/wasnorm_wordpool.txt	LTP138	ltpFR	13	8	0	CAN	225	n/a	0	n/a	0	0	0	n/a	n/a	n/a	n/a	n/a
1892343	REC_WORD	wordpools/wasnorm_wordpool.txt	LTP138	ltpFR	13	8	0	CREAM	402	n/a	0	n/a	0	0	0	n/a	n/a	n/a	n/a	n/a
1893550	REC_WORD	wordpools/wasnorm_wordpool.txt	LTP138	ltpFR	13	8	0	CLOVE	329	n/a	0	n/a	0	0	0	n/a	n/a	n/a	n/a	n/a
1894858	REC_WORD	wordpools/wasnorm_wordpool.txt	LTP138	ltpFR	13	8	0	DIAGRAM	456	n/a	0	n/a	0	0	0	n/a	n/a	n/a	n/a	n/a
1896224	REC_WORD	wordpools/wasnorm_wordpool.txt	LTP138	ltpFR	13	8	0	RECORD	1176	n/a	1	n/a	0	0	0	n/a	n/a	n/a	n/a	n/a
1897481	REC_WORD	wordpools/wasnorm_wordpool.txt	LTP138	ltpFR	13	8	0	SALMON	1227	n/a	0	n/a	0	0	0	n/a	n/a	n/a	n/a	n/a
1899287	REC_WORD	wordpools/wasnorm_wordpool.txt	LTP138	ltpFR	13	8	0	SEAFOOD	1260	n/a	0	n/a	0	0	0	n/a	n/a	n/a	n/a	n/a
1901138	REC_WORD	wordpools/wasnorm_wordpool.txt	LTP138	ltpFR	13	8	0	BAIT	70	n/a	0	n/a	0	0	0	n/a	n/a	n/a	n/a	n/a
1902430	REC_WORD	wordpools/wasnorm_wordpool.txt	LTP138	ltpFR	13	8	0	BASKET	95	n/a	1	n/a	0	0	0	n/a	n/a	n/a	n/a	n/a
1903747	REC_WORD	wordpools/wasnorm_wordpool.txt	LTP138	ltpFR	13	8	0	PORPOISE	1109	n/a	1	n/a	0	0	0	n/a	n/a	n/a	n/a	n/a
1906145	REC_WORD	wordpools/wasnorm_wordpool.txt	LTP138	ltpFR	13	8	0	SIBLING	1301	n/a	1	n/a	0	0	0	n/a	n/a	n/a	n/a	n/a
1908432	REC_WORD	wordpools/wasnorm_wordpool.txt	LTP138	ltpFR	13	8	0	ROSE	1212	n/a	1	n/a	0	0	0	n/a	n/a	n/a	n/a	n/a
1984336	WORD	wordpools/wasnorm_wordpool.txt	LTP138	ltpFR	13	9	1	REEF	1177	n/a	0	n/a	0	0	0	0	0.5869140625	0.422607421875	lower	../fonts/zerothre.ttf
1988398	WORD	wordpools/wasnorm_wordpool.txt	LTP138	ltpFR	13	9	1	ELK	526	n/a	1	n/a	0	0	0	0	0.5869140625	0.422607421875	lower	../fonts/zerothre.ttf
1992343	WORD	wordpools/wasnorm_wordpool.txt	LTP138	ltpFR	13	9	1	ICEBERG	731	n/a	0	n/a	0	0	0	0	0.5869140625	0.422607421875	lower	../fonts/zerothre.ttf
1996230	WORD	wordpools/wasnorm_wordpool.txt	LTP138	ltpFR	13	9	1	BASEMENT	94	n/a	0	n/a	0	0	0	0	0.5869140625	0.422607421875	lower	../fonts/zerothre.ttf
2000367	WORD	wordpools/wasnorm_wordpool.txt	LTP138	ltpFR	13	9	1	PEACH	1031	n/a	0	n/a	0	0	0	0	0.5869140625	0.422607421875	lower	../fonts/zerothre.ttf
2004271	WORD	wordpools/wasnorm_wordpool.txt	LTP138	ltpFR	13	9	1	EWE	542	n/a	1	n/a	0	0	0	0	0.5869140625	0.422607421875	lower	../fonts/zerothre.ttf
2008141	WORD	wordpools/wasnorm_wordpool.txt	LTP138	ltpFR	13	9	1	MOUSE	925	n/a	1	n/a	0	0	0	0	0.5869140625	0.422607421875	lower	../fonts/zerothre.ttf
2012037	WORD	wordpools/wasnorm_wordpool.txt	LTP138	ltpFR	13	9	1	RAT	1169	n/a	1	n/a	0	0	0	0	0.5869140625	0.422607421875	lower	../fonts/zerothre.ttf
2016091	WORD	wordpools/wasnorm_wordpool.txt	LTP138	ltpFR	13	9	1	FOUNTAIN	597	n/a	0	n/a	0	0	0	0	0.5869140625	0.422607421875	lower	../fonts/zerothre.ttf
2020277	WORD	wordpools/wasnorm_wordpool.txt	LTP138	ltpFR	13	9	1	PANTS	1010	n/a	0	n/a	0	0	0	0	0.5869140625	0.422607421875	lower	../fonts/zerothre.ttf
2024381	WORD	wordpools/wasnorm_wordpool.txt	LTP138	ltpFR	13	9	1	APPLE	33	n/a	0	n/a	0	0	0	0	0.5869140625	0.422607421875	lower	../fonts/zerothre.ttf
2028418	WORD	wordpools/wasnorm_wordpool.txt	LTP138	ltpFR	13	9	1	GENERAL	630	n/a	1	n/a	0	0	0	0	0.5869140625	0.422607421875	lower	../fonts/zerothre.ttf
2032305	WORD	wordpools/wasnorm_wordpool.txt	LTP138	ltpFR	13	9	1	TANK	1432	n/a	0	n/a	0	0	0	0	0.5869140625	0.422607421875	lower	../fonts/zerothre.ttf
2036417	WORD	wordpools/wasnorm_wordpool.txt	LTP138	ltpFR	13	9	1	PATH	1023	n/a	0	n/a	0	0	0	0	0.5869140625	0.422607421875	lower	../fonts/zerothre.ttf
2040561	WORD	wordpools/wasnorm_wordpool.txt	LTP138	ltpFR	13	9	1	PROTRACTOR	1133	n/a	0	n/a	0	0	0	0	0.5869140625	0.422607421875	lower	../fonts/zerothre.ttf
2044582	WORD	wordpools/wasnorm_wordpool.txt	LTP138	ltpFR	13	9	1	ZOO	1637	n/a	0	n/a	0	0	0	0	0.5869140625	0.422607421875	lower	../fonts/zerothre.ttf
2047587	START	n/a	LTP138	ltpFR	13	n/a	n/a	n/a	n/a	n/a	n/a	n/a	n/a	n/a	n/a	n/a	n/a	n/a	n/a	n/a
2048411	PROB	n/a	LTP138	ltpFR	13	n/a	n/a	n/a	n/a	n/a	n/a	9	4	4	1	n/a	n/a	n/a	n/a	n/a
2050418	PROB	n/a	LTP138	ltpFR	13	n/a	n/a	n/a	n/a	n/a	n/a	18	7	6	5	n/a	n/a	n/a	n/a	n/a
2052232	PROB	n/a	LTP138	ltpFR	13	n/a	n/a	n/a	n/a	n/a	n/a	21	6	9	6	n/a	n/a	n/a	n/a	n/a
2054649	STOP	n/a	LTP138	ltpFR	13	n/a	n/a	n/a	n/a	n/a	n/a	n/a	n/a	n/a	n/a	n/a	n/a	n/a	n/a	n/a
2057360	REC_START	n/a	LTP138	ltpFR	13	9	n/a	n/a	n/a	n/a	n/a	n/a	0	0	0	n/a	n/a	n/a	n/a	n/a
2058407	REC_WORD	wordpools/wasnorm_wordpool.txt	LTP138	ltpFR	13	9	1	PROTRACTOR	1133	n/a	0	n/a	0	0	0	n/a	n/a	n/a	n/a	n/a
2059989	REC_WORD	wordpools/wasnorm_wordpool.txt	LTP138	ltpFR	13	9	1	BASEMENT	94	n/a	0	n/a	0	0	0	n/a	n/a	n/a	n/a	n/a
2060987	REC_WORD	wordpools/wasnorm_wordpool.txt	LTP138	ltpFR	13	9	1	PATH	1023	n/a	0	n/a	0	0	0	n/a	n/a	n/a	n/a	n/a
2062139	REC_WORD	wordpools/wasnorm_wordpool.txt	LTP138	ltpFR	13	9	1	TANK	1432	n/a	0	n/a	0	0	0	n/a	n/a	n/a	n/a	n/a
2063127	REC_WORD	wordpools/wasnorm_wordpool.txt	LTP138	ltpFR	13	9	1	GENERAL	630	n/a	1	n/a	0	0	0	n/a	n/a	n/a	n/a	n/a
2064114	REC_WORD	wordpools/wasnorm_wordpool.txt	LTP138	ltpFR	13	9	n/a	CONTRACTOR	369	n/a	n/a	n/a	0	0	0	n/a	n/a	n/a	n/a	n/a
2066299	REC_WORD	wordpools/wasnorm_wordpool.txt	LTP138	ltpFR	13	9	1	FOUNTAIN	597	n/a	0	n/a	0	0	0	n/a	n/a	n/a	n/a	n/a
2068105	REC_WORD	wordpools/wasnorm_wordpool.txt	LTP138	ltpFR	13	9	1	ICEBERG	731	n/a	0	n/a	0	0	0	n/a	n/a	n/a	n/a	n/a
2072904	REC_WORD	wordpools/wasnorm_wordpool.txt	LTP138	ltpFR	13	9	1	APPLE	33	n/a	0	n/a	0	0	0	n/a	n/a	n/a	n/a	n/a
2074026	REC_WORD	wordpools/wasnorm_wordpool.txt	LTP138	ltpFR	13	9	1	PEACH	1031	n/a	0	n/a	0	0	0	n/a	n/a	n/a	n/a	n/a
2075369	REC_WORD	wordpools/wasnorm_wordpool.txt	LTP138	ltpFR	13	9	1	ZOO	1637	n/a	0	n/a	0	0	0	n/a	n/a	n/a	n/a	n/a
2077519	REC_WORD	wordpools/wasnorm_wordpool.txt	LTP138	ltpFR	13	9	1	RAT	1169	n/a	1	n/a	0	0	0	n/a	n/a	n/a	n/a	n/a
2078492	REC_WORD	wordpools/wasnorm_wordpool.txt	LTP138	ltpFR	13	9	1	MOUSE	925	n/a	1	n/a	0	0	0	n/a	n/a	n/a	n/a	n/a
2079819	REC_WORD	wordpools/wasnorm_wordpool.txt	LTP138	ltpFR	13	9	1	EWE	542	n/a	1	n/a	0	0	0	n/a	n/a	n/a	n/a	n/a
2083351	REC_WORD	wordpools/wasnorm_wordpool.txt	LTP138	ltpFR	13	9	1	ELK	526	n/a	1	n/a	0	0	0	n/a	n/a	n/a	n/a	n/a
2107840	REC_WORD	wordpools/wasnorm_wordpool.txt	LTP138	ltpFR	13	9	1	PANTS	1010	n/a	0	n/a	0	0	0	n/a	n/a	n/a	n/a	n/a
2152715	START	n/a	LTP138	ltpFR	13	n/a	n/a	n/a	n/a	n/a	n/a	n/a	n/a	n/a	n/a	n/a	n/a	n/a	n/a	n/a
2154222	PROB	n/a	LTP138	ltpFR	13	n/a	n/a	n/a	n/a	n/a	n/a	18	8	5	5	n/a	n/a	n/a	n/a	n/a
2155720	PROB	n/a	LTP138	ltpFR	13	n/a	n/a	n/a	n/a	n/a	n/a	10	1	8	1	n/a	n/a	n/a	n/a	n/a
2158624	PROB	n/a	LTP138	ltpFR	13	n/a	n/a	n/a	n/a	n/a	n/a	17	5	9	3	n/a	n/a	n/a	n/a	n/a
2161006	PROB	n/a	LTP138	ltpFR	13	n/a	n/a	n/a	n/a	n/a	n/a	22	7	7	8	n/a	n/a	n/a	n/a	n/a
2162903	PROB	n/a	LTP138	ltpFR	13	n/a	n/a	n/a	n/a	n/a	n/a	18	1	8	9	n/a	n/a	n/a	n/a	n/a
2164410	PROB	n/a	LTP138	ltpFR	13	n/a	n/a	n/a	n/a	n/a	n/a	19	4	7	8	n/a	n/a	n/a	n/a	n/a
2166408	PROB	n/a	LTP138	ltpFR	13	n/a	n/a	n/a	n/a	n/a	n/a	23	7	9	7	n/a	n/a	n/a	n/a	n/a
2168505	STOP	n/a	LTP138	ltpFR	13	n/a	n/a	n/a	n/a	n/a	n/a	n/a	n/a	n/a	n/a	n/a	n/a	n/a	n/a	n/a
2169762	WORD	wordpools/wasnorm_wordpool.txt	LTP138	ltpFR	13	10	0	BOLT	146	n/a	0	n/a	0	0	0	1	0.412841796875	0.57763671875	upper	../fonts/amplitud.ttf
2172767	START	n/a	LTP138	ltpFR	13	n/a	n/a	n/a	n/a	n/a	n/a	n/a	n/a	n/a	n/a	n/a	n/a	n/a	n/a	n/a
2173582	PROB	n/a	LTP138	ltpFR	13	n/a	n/a	n/a	n/a	n/a	n/a	16	9	6	1	n/a	n/a	n/a	n/a	n/a
2175206	PROB	n/a	LTP138	ltpFR	13	n/a	n/a	n/a	n/a	n/a	n/a	9	2	5	2	n/a	n/a	n/a	n/a	n/a
2177486	PROB	n/a	LTP138	ltpFR	13	n/a	n/a	n/a	n/a	n/a	n/a	13	5	1	7	n/a	n/a	n/a	n/a	n/a
2178726	PROB	n/a	LTP138	ltpFR	13	n/a	n/a	n/a	n/a	n/a	n/a	21	6	8	7	n/a	n/a	n/a	n/a	n/a
2183812	PROB	n/a	LTP138	ltpFR	13	n/a	n/a	n/a	n/a	n/a	n/a	18	4	8	6	n/a	n/a	n/a	n/a	n/a
2185278	PROB	n/a	LTP138	ltpFR	13	n/a	n/a	n/a	n/a	n/a	n/a	16	4	7	5	n/a	n/a	n/a	n/a	n/a
2187426	STOP	n/a	LTP138	ltpFR	13	n/a	n/a	n/a	n/a	n/a	n/a	n/a	n/a	n/a	n/a	n/a	n/a	n/a	n/a	n/a
2189597	WORD	wordpools/wasnorm_wordpool.txt	LTP138	ltpFR	13	10	0	WALNUT	1584	n/a	0	n/a	0	0	0	1	0.412841796875	0.57763671875	upper	../fonts/amplitud.ttf
2192602	START	n/a	LTP138	ltpFR	13	n/a	n/a	n/a	n/a	n/a	n/a	n/a	n/a	n/a	n/a	n/a	n/a	n/a	n/a	n/a
2193717	PROB	n/a	LTP138	ltpFR	13	n/a	n/a	n/a	n/a	n/a	n/a	13	2	9	2	n/a	n/a	n/a	n/a	n/a
2195982	PROB	n/a	LTP138	ltpFR	13	n/a	n/a	n/a	n/a	n/a	n/a	12	6	4	2	n/a	n/a	n/a	n/a	n/a
2197513	PROB	n/a	LTP138	ltpFR	13	n/a	n/a	n/a	n/a	n/a	n/a	16	6	1	9	n/a	n/a	n/a	n/a	n/a
2198979	PROB	n/a	LTP138	ltpFR	13	n/a	n/a	n/a	n/a	n/a	n/a	11	6	1	4	n/a	n/a	n/a	n/a	n/a
2200534	PROB	n/a	LTP138	ltpFR	13	n/a	n/a	n/a	n/a	n/a	n/a	21	6	7	8	n/a	n/a	n/a	n/a	n/a
2203923	PROB	n/a	LTP138	ltpFR	13	n/a	n/a	n/a	n/a	n/a	n/a	16	8	3	5	n/a	n/a	n/a	n/a	n/a
2205495	PROB	n/a	LTP138	ltpFR	13	n/a	n/a	n/a	n/a	n/a	n/a	21	7	5	6	n/a	n/a	n/a	n/a	n/a
2207282	STOP	n/a	LTP138	ltpFR	13	n/a	n/a	n/a	n/a	n/a	n/a	n/a	n/a	n/a	n/a	n/a	n/a	n/a	n/a	n/a
2209499	WORD	wordpools/wasnorm_wordpool.txt	LTP138	ltpFR	13	10	0	AMBULANCE	19	n/a	1	n/a	0	0	0	1	0.412841796875	0.57763671875	upper	../fonts/amplitud.ttf
2212504	START	n/a	LTP138	ltpFR	13	n/a	n/a	n/a	n/a	n/a	n/a	n/a	n/a	n/a	n/a	n/a	n/a	n/a	n/a	n/a
2213686	PROB	n/a	LTP138	ltpFR	13	n/a	n/a	n/a	n/a	n/a	n/a	16	3	9	4	n/a	n/a	n/a	n/a	n/a
2215293	PROB	n/a	LTP138	ltpFR	13	n/a	n/a	n/a	n/a	n/a	n/a	10	3	3	4	n/a	n/a	n/a	n/a	n/a
2217016	PROB	n/a	LTP138	ltpFR	13	n/a	n/a	n/a	n/a	n/a	n/a	5	1	2	2	n/a	n/a	n/a	n/a	n/a
2218273	PROB	n/a	LTP138	ltpFR	13	n/a	n/a	n/a	n/a	n/a	n/a	10	3	2	5	n/a	n/a	n/a	n/a	n/a
2219946	PROB	n/a	LTP138	ltpFR	13	n/a	n/a	n/a	n/a	n/a	n/a	15	2	7	6	n/a	n/a	n/a	n/a	n/a
2221676	PROB	n/a	LTP138	ltpFR	13	n/a	n/a	n/a	n/a	n/a	n/a	15	3	7	5	n/a	n/a	n/a	n/a	n/a
2223076	PROB	n/a	LTP138	ltpFR	13	n/a	n/a	n/a	n/a	n/a	n/a	19	6	8	5	n/a	n/a	n/a	n/a	n/a
2225148	PROB	n/a	LTP138	ltpFR	13	n/a	n/a	n/a	n/a	n/a	n/a	13	4	6	3	n/a	n/a	n/a	n/a	n/a
2227114	STOP	n/a	LTP138	ltpFR	13	n/a	n/a	n/a	n/a	n/a	n/a	n/a	n/a	n/a	n/a	n/a	n/a	n/a	n/a	n/a
2229534	WORD	wordpools/wasnorm_wordpool.txt	LTP138	ltpFR	13	10	1	BIRD	129	n/a	1	n/a	0	0	0	0	0.5869140625	0.422607421875	lower	../fonts/zerothre.ttf
2232539	START	n/a	LTP138	ltpFR	13	n/a	n/a	n/a	n/a	n/a	n/a	n/a	n/a	n/a	n/a	n/a	n/a	n/a	n/a	n/a
2233463	PROB	n/a	LTP138	ltpFR	13	n/a	n/a	n/a	n/a	n/a	n/a	17	9	5	3	n/a	n/a	n/a	n/a	n/a
2235295	PROB	n/a	LTP138	ltpFR	13	n/a	n/a	n/a	n/a	n/a	n/a	17	4	4	9	n/a	n/a	n/a	n/a	n/a
2237891	PROB	n/a	LTP138	ltpFR	13	n/a	n/a	n/a	n/a	n/a	n/a	10	1	8	1	n/a	n/a	n/a	n/a	n/a
2239440	PROB	n/a	LTP138	ltpFR	13	n/a	n/a	n/a	n/a	n/a	n/a	17	6	8	3	n/a	n/a	n/a	n/a	n/a
2241745	PROB	n/a	LTP138	ltpFR	13	n/a	n/a	n/a	n/a	n/a	n/a	3	1	1	1	n/a	n/a	n/a	n/a	n/a
2242777	PROB	n/a	LTP138	ltpFR	13	n/a	n/a	n/a	n/a	n/a	n/a	10	5	3	2	n/a	n/a	n/a	n/a	n/a
2244650	PROB	n/a	LTP138	ltpFR	13	n/a	n/a	n/a	n/a	n/a	n/a	8	3	1	4	n/a	n/a	n/a	n/a	n/a
2246024	PROB	n/a	LTP138	ltpFR	13	n/a	n/a	n/a	n/a	n/a	n/a	13	3	3	7	n/a	n/a	n/a	n/a	n/a
2247234	STOP	n/a	LTP138	ltpFR	13	n/a	n/a	n/a	n/a	n/a	n/a	n/a	n/a	n/a	n/a	n/a	n/a	n/a	n/a	n/a
2249477	WORD	wordpools/wasnorm_wordpool.txt	LTP138	ltpFR	13	10	1	PIRATE	1074	n/a	1	n/a	0	0	0	0	0.5869140625	0.422607421875	lower	../fonts/zerothre.ttf
2252483	START	n/a	LTP138	ltpFR	13	n/a	n/a	n/a	n/a	n/a	n/a	n/a	n/a	n/a	n/a	n/a	n/a	n/a	n/a	n/a
2253606	PROB	n/a	LTP138	ltpFR	13	n/a	n/a	n/a	n/a	n/a	n/a	13	4	6	3	n/a	n/a	n/a	n/a	n/a
2256661	PROB	n/a	LTP138	ltpFR	13	n/a	n/a	n/a	n/a	n/a	n/a	15	5	3	7	n/a	n/a	n/a	n/a	n/a
2258035	PROB	n/a	LTP138	ltpFR	13	n/a	n/a	n/a	n/a	n/a	n/a	13	9	1	3	n/a	n/a	n/a	n/a	n/a
2259226	PROB	n/a	LTP138	ltpFR	13	n/a	n/a	n/a	n/a	n/a	n/a	8	6	1	1	n/a	n/a	n/a	n/a	n/a
2260640	PROB	n/a	LTP138	ltpFR	13	n/a	n/a	n/a	n/a	n/a	n/a	17	1	9	7	n/a	n/a	n/a	n/a	n/a
2262047	PROB	n/a	LTP138	ltpFR	13	n/a	n/a	n/a	n/a	n/a	n/a	9	2	4	3	n/a	n/a	n/a	n/a	n/a
2263736	PROB	n/a	LTP138	ltpFR	13	n/a	n/a	n/a	n/a	n/a	n/a	14	1	8	5	n/a	n/a	n/a	n/a	n/a
2267226	STOP	n/a	LTP138	ltpFR	13	n/a	n/a	n/a	n/a	n/a	n/a	n/a	n/a	n/a	n/a	n/a	n/a	n/a	n/a	n/a
2269488	WORD	wordpools/wasnorm_wordpool.txt	LTP138	ltpFR	13	10	1	ANIMAL	23	n/a	1	n/a	0	0	0	0	0.5869140625	0.422607421875	lower	../fonts/zerothre.ttf
2272493	START	n/a	LTP138	ltpFR	13	n/a	n/a	n/a	n/a	n/a	n/a	n/a	n/a	n/a	n/a	n/a	n/a	n/a	n/a	n/a
2273658	PROB	n/a	LTP138	ltpFR	13	n/a	n/a	n/a	n/a	n/a	n/a	9	1	5	3	n/a	n/a	n/a	n/a	n/a
2275074	PROB	n/a	LTP138	ltpFR	13	n/a	n/a	n/a	n/a	n/a	n/a	12	1	9	2	n/a	n/a	n/a	n/a	n/a
2276231	PROB	n/a	LTP138	ltpFR	13	n/a	n/a	n/a	n/a	n/a	n/a	19	9	2	8	n/a	n/a	n/a	n/a	n/a
2278627	PROB	n/a	LTP138	ltpFR	13	n/a	n/a	n/a	n/a	n/a	n/a	5	2	1	2	n/a	n/a	n/a	n/a	n/a
2280093	PROB	n/a	LTP138	ltpFR	13	n/a	n/a	n/a	n/a	n/a	n/a	13	6	3	4	n/a	n/a	n/a	n/a	n/a
2281408	PROB	n/a	LTP138	ltpFR	13	n/a	n/a	n/a	n/a	n/a	n/a	16	3	8	5	n/a	n/a	n/a	n/a	n/a
2283231	PROB	n/a	LTP138	ltpFR	13	n/a	n/a	n/a	n/a	n/a	n/a	7	3	2	2	n/a	n/a	n/a	n/a	n/a
2284753	PROB	n/a	LTP138	ltpFR	13	n/a	n/a	n/a	n/a	n/a	n/a	12	3	6	2	n/a	n/a	n/a	n/a	n/a
2287346	STOP	n/a	LTP138	ltpFR	13	n/a	n/a	n/a	n/a	n/a	n/a	n/a	n/a	n/a	n/a	n/a	n/a	n/a	n/a	n/a
2289316	WORD	wordpools/wasnorm_wordpool.txt	LTP138	ltpFR	13	10	1	QUAIL	1147	n/a	3	n/a	0	0	0	0	0.5869140625	0.422607421875	lower	../fonts/zerothre.ttf
2290198	KEY_MSG	n/a	LTP138	ltpFR	13	10	n/a	n/a	n/a	n/a	n/a	n/a	0	0	0	n/a	n/a	n/a	n/a	n/a
2292321	START	n/a	LTP138	ltpFR	13	n/a	n/a	n/a	n/a	n/a	n/a	n/a	n/a	n/a	n/a	n/a	n/a	n/a	n/a	n/a
2293153	PROB	n/a	LTP138	ltpFR	13	n/a	n/a	n/a	n/a	n/a	n/a	24	9	9	6	n/a	n/a	n/a	n/a	n/a
2295558	PROB	n/a	LTP138	ltpFR	13	n/a	n/a	n/a	n/a	n/a	n/a	13	5	3	5	n/a	n/a	n/a	n/a	n/a
2296932	PROB	n/a	LTP138	ltpFR	13	n/a	n/a	n/a	n/a	n/a	n/a	18	9	3	6	n/a	n/a	n/a	n/a	n/a
2299296	PROB	n/a	LTP138	ltpFR	13	n/a	n/a	n/a	n/a	n/a	n/a	13	5	5	3	n/a	n/a	n/a	n/a	n/a
2300403	PROB	n/a	LTP138	ltpFR	13	n/a	n/a	n/a	n/a	n/a	n/a	12	4	7	1	n/a	n/a	n/a	n/a	n/a
2301817	PROB	n/a	LTP138	ltpFR	13	n/a	n/a	n/a	n/a	n/a	n/a	13	5	3	5	n/a	n/a	n/a	n/a	n/a
2302967	PROB	n/a	LTP138	ltpFR	13	n/a	n/a	n/a	n/a	n/a	n/a	15	2	9	3	n/a	n/a	n/a	n/a	n/a
2308321	STOP	n/a	LTP138	ltpFR	13	n/a	n/a	n/a	n/a	n/a	n/a	n/a	n/a	n/a	n/a	n/a	n/a	n/a	n/a	n/a
2309451	WORD	wordpools/wasnorm_wordpool.txt	LTP138	ltpFR	13	10	1	ROBOT	1200	n/a	1	n/a	0	0	0	0	0.5869140625	0.422607421875	lower	../fonts/zerothre.ttf
2312456	START	n/a	LTP138	ltpFR	13	n/a	n/a	n/a	n/a	n/a	n/a	n/a	n/a	n/a	n/a	n/a	n/a	n/a	n/a	n/a
2313263	PROB	n/a	LTP138	ltpFR	13	n/a	n/a	n/a	n/a	n/a	n/a	15	6	1	8	n/a	n/a	n/a	n/a	n/a
2314619	PROB	n/a	LTP138	ltpFR	13	n/a	n/a	n/a	n/a	n/a	n/a	15	7	6	2	n/a	n/a	n/a	n/a	n/a
2316708	PROB	n/a	LTP138	ltpFR	13	n/a	n/a	n/a	n/a	n/a	n/a	12	1	4	7	n/a	n/a	n/a	n/a	n/a
2318889	PROB	n/a	LTP138	ltpFR	13	n/a	n/a	n/a	n/a	n/a	n/a	15	7	4	4	n/a	n/a	n/a	n/a	n/a
2320247	PROB	n/a	LTP138	ltpFR	13	n/a	n/a	n/a	n/a	n/a	n/a	14	4	9	1	n/a	n/a	n/a	n/a	n/a
2321477	PROB	n/a	LTP138	ltpFR	13	n/a	n/a	n/a	n/a	n/a	n/a	19	7	7	5	n/a	n/a	n/a	n/a	n/a
2323018	PROB	n/a	LTP138	ltpFR	13	n/a	n/a	n/a	n/a	n/a	n/a	10	1	2	7	n/a	n/a	n/a	n/a	n/a
2325033	PROB	n/a	LTP138	ltpFR	13	n/a	n/a	n/a	n/a	n/a	n/a	22	4	9	9	n/a	n/a	n/a	n/a	n/a
2328154	STOP	n/a	LTP138	ltpFR	13	n/a	n/a	n/a	n/a	n/a	n/a	n/a	n/a	n/a	n/a	n/a	n/a	n/a	n/a	n/a
2329294	WORD	wordpools/wasnorm_wordpool.txt	LTP138	ltpFR	13	10	1	STRAW	1390	n/a	1	n/a	0	0	0	0	0.5869140625	0.422607421875	lower	../fonts/zerothre.ttf
2332300	START	n/a	LTP138	ltpFR	13	n/a	n/a	n/a	n/a	n/a	n/a	n/a	n/a	n/a	n/a	n/a	n/a	n/a	n/a	n/a
2333215	PROB	n/a	LTP138	ltpFR	13	n/a	n/a	n/a	n/a	n/a	n/a	18	6	5	7	n/a	n/a	n/a	n/a	n/a
2337027	PROB	n/a	LTP138	ltpFR	13	n/a	n/a	n/a	n/a	n/a	n/a	16	7	6	3	n/a	n/a	n/a	n/a	n/a
2338991	PROB	n/a	LTP138	ltpFR	13	n/a	n/a	n/a	n/a	n/a	n/a	11	3	1	7	n/a	n/a	n/a	n/a	n/a
2340215	PROB	n/a	LTP138	ltpFR	13	n/a	n/a	n/a	n/a	n/a	n/a	17	6	6	5	n/a	n/a	n/a	n/a	n/a
2342171	PROB	n/a	LTP138	ltpFR	13	n/a	n/a	n/a	n/a	n/a	n/a	5	1	3	1	n/a	n/a	n/a	n/a	n/a
2343793	PROB	n/a	LTP138	ltpFR	13	n/a	n/a	n/a	n/a	n/a	n/a	20	2	9	9	n/a	n/a	n/a	n/a	n/a
2346108	PROB	n/a	LTP138	ltpFR	13	n/a	n/a	n/a	n/a	n/a	n/a	7	3	2	2	n/a	n/a	n/a	n/a	n/a
2347481	STOP	n/a	LTP138	ltpFR	13	n/a	n/a	n/a	n/a	n/a	n/a	n/a	n/a	n/a	n/a	n/a	n/a	n/a	n/a	n/a
2349246	WORD	wordpools/wasnorm_wordpool.txt	LTP138	ltpFR	13	10	0	ANCHOR	21	n/a	0	n/a	0	0	0	1	0.412841796875	0.57763671875	upper	../fonts/amplitud.ttf
2352252	START	n/a	LTP138	ltpFR	13	n/a	n/a	n/a	n/a	n/a	n/a	n/a	n/a	n/a	n/a	n/a	n/a	n/a	n/a	n/a
2353067	PROB	n/a	LTP138	ltpFR	13	n/a	n/a	n/a	n/a	n/a	n/a	15	2	8	5	n/a	n/a	n/a	n/a	n/a
2354457	PROB	n/a	LTP138	ltpFR	13	n/a	n/a	n/a	n/a	n/a	n/a	15	8	2	5	n/a	n/a	n/a	n/a	n/a
2355671	PROB	n/a	LTP138	ltpFR	13	n/a	n/a	n/a	n/a	n/a	n/a	10	3	4	3	n/a	n/a	n/a	n/a	n/a
2358768	PROB	n/a	LTP138	ltpFR	13	n/a	n/a	n/a	n/a	n/a	n/a	11	7	2	2	n/a	n/a	n/a	n/a	n/a
2360242	PROB	n/a	LTP138	ltpFR	13	n/a	n/a	n/a	n/a	n/a	n/a	13	6	5	2	n/a	n/a	n/a	n/a	n/a
2362098	PROB	n/a	LTP138	ltpFR	13	n/a	n/a	n/a	n/a	n/a	n/a	23	9	8	6	n/a	n/a	n/a	n/a	n/a
2368252	STOP	n/a	LTP138	ltpFR	13	n/a	n/a	n/a	n/a	n/a	n/a	n/a	n/a	n/a	n/a	n/a	n/a	n/a	n/a	n/a
2369090	WORD	wordpools/wasnorm_wordpool.txt	LTP138	ltpFR	13	10	0	SUBMARINE	1398	n/a	1	n/a	0	0	0	1	0.412841796875	0.57763671875	upper	../fonts/amplitud.ttf
2372095	START	n/a	LTP138	ltpFR	13	n/a	n/a	n/a	n/a	n/a	n/a	n/a	n/a	n/a	n/a	n/a	n/a	n/a	n/a	n/a
2373052	PROB	n/a	LTP138	ltpFR	13	n/a	n/a	n/a	n/a	n/a	n/a	20	6	9	6	n/a	n/a	n/a	n/a	n/a
2375715	PROB	n/a	LTP138	ltpFR	13	n/a	n/a	n/a	n/a	n/a	n/a	12	9	2	1	n/a	n/a	n/a	n/a	n/a
2378720	PROB	n/a	LTP138	ltpFR	13	n/a	n/a	n/a	n/a	n/a	n/a	18	9	7	2	n/a	n/a	n/a	n/a	n/a
2380800	PROB	n/a	LTP138	ltpFR	13	n/a	n/a	n/a	n/a	n/a	n/a	16	3	4	9	n/a	n/a	n/a	n/a	n/a
2382458	PROB	n/a	LTP138	ltpFR	13	n/a	n/a	n/a	n/a	n/a	n/a	18	8	3	7	n/a	n/a	n/a	n/a	n/a
2384871	PROB	n/a	LTP138	ltpFR	13	n/a	n/a	n/a	n/a	n/a	n/a	17	5	4	8	n/a	n/a	n/a	n/a	n/a
2386270	PROB	n/a	LTP138	ltpFR	13	n/a	n/a	n/a	n/a	n/a	n/a	16	2	5	9	n/a	n/a	n/a	n/a	n/a
2388066	STOP	n/a	LTP138	ltpFR	13	n/a	n/a	n/a	n/a	n/a	n/a	n/a	n/a	n/a	n/a	n/a	n/a	n/a	n/a	n/a
2388992	WORD	wordpools/wasnorm_wordpool.txt	LTP138	ltpFR	13	10	0	LACE	792	n/a	0	n/a	0	0	0	1	0.412841796875	0.57763671875	upper	../fonts/amplitud.ttf
2391997	START	n/a	LTP138	ltpFR	13	n/a	n/a	n/a	n/a	n/a	n/a	n/a	n/a	n/a	n/a	n/a	n/a	n/a	n/a	n/a
2393046	PROB	n/a	LTP138	ltpFR	13	n/a	n/a	n/a	n/a	n/a	n/a	21	9	9	3	n/a	n/a	n/a	n/a	n/a
2395393	PROB	n/a	LTP138	ltpFR	13	n/a	n/a	n/a	n/a	n/a	n/a	23	9	8	6	n/a	n/a	n/a	n/a	n/a
2398148	PROB	n/a	LTP138	ltpFR	13	n/a	n/a	n/a	n/a	n/a	n/a	9	5	2	2	n/a	n/a	n/a	n/a	n/a
2399537	PROB	n/a	LTP138	ltpFR	13	n/a	n/a	n/a	n/a	n/a	n/a	16	1	9	6	n/a	n/a	n/a	n/a	n/a
2400744	PROB	n/a	LTP138	ltpFR	13	n/a	n/a	n/a	n/a	n/a	n/a	18	7	3	8	n/a	n/a	n/a	n/a	n/a
2404906	PROB	n/a	LTP138	ltpFR	13	n/a	n/a	n/a	n/a	n/a	n/a	17	8	1	8	n/a	n/a	n/a	n/a	n/a
2406817	STOP	n/a	LTP138	ltpFR	13	n/a	n/a	n/a	n/a	n/a	n/a	n/a	n/a	n/a	n/a	n/a	n/a	n/a	n/a	n/a
2409010	WORD	wordpools/wasnorm_wordpool.txt	LTP138	ltpFR	13	10	0	SANDPAPER	1231	n/a	0	n/a	0	0	0	1	0.412841796875	0.57763671875	upper	../fonts/amplitud.ttf
2412016	START	n/a	LTP138	ltpFR	13	n/a	n/a	n/a	n/a	n/a	n/a	n/a	n/a	n/a	n/a	n/a	n/a	n/a	n/a	n/a
2413089	PROB	n/a	LTP138	ltpFR	13	n/a	n/a	n/a	n/a	n/a	n/a	16	4	7	5	n/a	n/a	n/a	n/a	n/a
2416135	PROB	n/a	LTP138	ltpFR	13	n/a	n/a	n/a	n/a	n/a	n/a	8	4	3	1	n/a	n/a	n/a	n/a	n/a
2417891	PROB	n/a	LTP138	ltpFR	13	n/a	n/a	n/a	n/a	n/a	n/a	12	4	5	3	n/a	n/a	n/a	n/a	n/a
2420521	PROB	n/a	LTP138	ltpFR	13	n/a	n/a	n/a	n/a	n/a	n/a	15	9	4	2	n/a	n/a	n/a	n/a	n/a
2422278	PROB	n/a	LTP138	ltpFR	13	n/a	n/a	n/a	n/a	n/a	n/a	14	9	1	4	n/a	n/a	n/a	n/a	n/a
2423601	PROB	n/a	LTP138	ltpFR	13	n/a	n/a	n/a	n/a	n/a	n/a	10	6	1	3	n/a	n/a	n/a	n/a	n/a
2428015	STOP	n/a	LTP138	ltpFR	13	n/a	n/a	n/a	n/a	n/a	n/a	n/a	n/a	n/a	n/a	n/a	n/a	n/a	n/a	n/a
2428954	WORD	wordpools/wasnorm_wordpool.txt	LTP138	ltpFR	13	10	0	COYOTE	396	n/a	1	n/a	0	0	0	1	0.412841796875	0.57763671875	upper	../fonts/amplitud.ttf
2431959	START	n/a	LTP138	ltpFR	13	n/a	n/a	n/a	n/a	n/a	n/a	n/a	n/a	n/a	n/a	n/a	n/a	n/a	n/a	n/a
2433157	PROB	n/a	LTP138	ltpFR	13	n/a	n/a	n/a	n/a	n/a	n/a	18	9	8	1	n/a	n/a	n/a	n/a	n/a
2434431	PROB	n/a	LTP138	ltpFR	13	n/a	n/a	n/a	n/a	n/a	n/a	8	4	3	1	n/a	n/a	n/a	n/a	n/a
2436229	PROB	n/a	LTP138	ltpFR	13	n/a	n/a	n/a	n/a	n/a	n/a	18	5	7	6	n/a	n/a	n/a	n/a	n/a
2438043	PROB	n/a	LTP138	ltpFR	13	n/a	n/a	n/a	n/a	n/a	n/a	19	9	8	2	n/a	n/a	n/a	n/a	n/a
2440016	PROB	n/a	LTP138	ltpFR	13	n/a	n/a	n/a	n/a	n/a	n/a	14	4	4	6	n/a	n/a	n/a	n/a	n/a
2441415	PROB	n/a	LTP138	ltpFR	13	n/a	n/a	n/a	n/a	n/a	n/a	7	3	3	1	n/a	n/a	n/a	n/a	n/a
2443154	PROB	n/a	LTP138	ltpFR	13	n/a	n/a	n/a	n/a	n/a	n/a	13	1	7	5	n/a	n/a	n/a	n/a	n/a
2446109	PROB	n/a	LTP138	ltpFR	13	n/a	n/a	n/a	n/a	n/a	n/a	17	7	4	6	n/a	n/a	n/a	n/a	n/a
2447793	STOP	n/a	LTP138	ltpFR	13	n/a	n/a	n/a	n/a	n/a	n/a	n/a	n/a	n/a	n/a	n/a	n/a	n/a	n/a	n/a
2449022	WORD	wordpools/wasnorm_wordpool.txt	LTP138	ltpFR	13	10	1	VAN	1548	n/a	1	n/a	0	0	0	0	0.5869140625	0.422607421875	lower	../fonts/zerothre.ttf
2452028	START	n/a	LTP138	ltpFR	13	n/a	n/a	n/a	n/a	n/a	n/a	n/a	n/a	n/a	n/a	n/a	n/a	n/a	n/a	n/a
2453209	PROB	n/a	LTP138	ltpFR	13	n/a	n/a	n/a	n/a	n/a	n/a	13	6	6	1	n/a	n/a	n/a	n/a	n/a
2454873	PROB	n/a	LTP138	ltpFR	13	n/a	n/a	n/a	n/a	n/a	n/a	12	3	5	4	n/a	n/a	n/a	n/a	n/a
2457388	PROB	n/a	LTP138	ltpFR	13	n/a	n/a	n/a	n/a	n/a	n/a	12	2	5	5	n/a	n/a	n/a	n/a	n/a
2458469	PROB	n/a	LTP138	ltpFR	13	n/a	n/a	n/a	n/a	n/a	n/a	13	3	4	6	n/a	n/a	n/a	n/a	n/a
2460118	PROB	n/a	LTP138	ltpFR	13	n/a	n/a	n/a	n/a	n/a	n/a	12	6	4	2	n/a	n/a	n/a	n/a	n/a
2461856	PROB	n/a	LTP138	ltpFR	13	n/a	n/a	n/a	n/a	n/a	n/a	12	2	1	9	n/a	n/a	n/a	n/a	n/a
2463947	PROB	n/a	LTP138	ltpFR	13	n/a	n/a	n/a	n/a	n/a	n/a	11	1	6	4	n/a	n/a	n/a	n/a	n/a
2465486	PROB	n/a	LTP138	ltpFR	13	n/a	n/a	n/a	n/a	n/a	n/a	19	8	9	2	n/a	n/a	n/a	n/a	n/a
2467841	STOP	n/a	LTP138	ltpFR	13	n/a	n/a	n/a	n/a	n/a	n/a	n/a	n/a	n/a	n/a	n/a	n/a	n/a	n/a	n/a
2468865	WORD	wordpools/wasnorm_wordpool.txt	LTP138	ltpFR	13	10	1	CONSOLE	364	n/a	0	n/a	0	0	0	0	0.5869140625	0.422607421875	lower	../fonts/zerothre.ttf
2471870	START	n/a	LTP138	ltpFR	13	n/a	n/a	n/a	n/a	n/a	n/a	n/a	n/a	n/a	n/a	n/a	n/a	n/a	n/a	n/a
2472860	PROB	n/a	LTP138	ltpFR	13	n/a	n/a	n/a	n/a	n/a	n/a	20	6	8	6	n/a	n/a	n/a	n/a	n/a
2474942	PROB	n/a	LTP138	ltpFR	13	n/a	n/a	n/a	n/a	n/a	n/a	9	6	1	2	n/a	n/a	n/a	n/a	n/a
2476764	PROB	n/a	LTP138	ltpFR	13	n/a	n/a	n/a	n/a	n/a	n/a	10	3	6	1	n/a	n/a	n/a	n/a	n/a
2478712	PROB	n/a	LTP138	ltpFR	13	n/a	n/a	n/a	n/a	n/a	n/a	10	3	1	6	n/a	n/a	n/a	n/a	n/a
2480128	PROB	n/a	LTP138	ltpFR	13	n/a	n/a	n/a	n/a	n/a	n/a	18	4	7	8	n/a	n/a	n/a	n/a	n/a
2481825	PROB	n/a	LTP138	ltpFR	13	n/a	n/a	n/a	n/a	n/a	n/a	11	8	1	2	n/a	n/a	n/a	n/a	n/a
2483598	PROB	n/a	LTP138	ltpFR	13	n/a	n/a	n/a	n/a	n/a	n/a	10	6	1	3	n/a	n/a	n/a	n/a	n/a
2485264	PROB	n/a	LTP138	ltpFR	13	n/a	n/a	n/a	n/a	n/a	n/a	18	6	4	8	n/a	n/a	n/a	n/a	n/a
2486930	STOP	n/a	LTP138	ltpFR	13	n/a	n/a	n/a	n/a	n/a	n/a	n/a	n/a	n/a	n/a	n/a	n/a	n/a	n/a	n/a
2489616	REC_START	n/a	LTP138	ltpFR	13	10	n/a	n/a	n/a	n/a	n/a	n/a	0	0	0	n/a	n/a	n/a	n/a	n/a
2490868	REC_WORD	wordpools/wasnorm_wordpool.txt	LTP138	ltpFR	13	10	1	VAN	1548	n/a	1	n/a	0	0	0	n/a	n/a	n/a	n/a	n/a
2491926	REC_WORD	wordpools/wasnorm_wordpool.txt	LTP138	ltpFR	13	10	1	CONSOLE	364	n/a	0	n/a	0	0	0	n/a	n/a	n/a	n/a	n/a
2493821	REC_WORD	wordpools/wasnorm_wordpool.txt	LTP138	ltpFR	13	10	1	ROBOT	1200	n/a	1	n/a	0	0	0	n/a	n/a	n/a	n/a	n/a
2495921	REC_WORD	wordpools/wasnorm_wordpool.txt	LTP138	ltpFR	13	10	0	ANCHOR	21	n/a	0	n/a	0	0	0	n/a	n/a	n/a	n/a	n/a
2497328	REC_WORD	wordpools/wasnorm_wordpool.txt	LTP138	ltpFR	13	10	1	PIRATE	1074	n/a	1	n/a	0	0	0	n/a	n/a	n/a	n/a	n/a
2498790	REC_WORD	wordpools/wasnorm_wordpool.txt	LTP138	ltpFR	13	10	1	ANIMAL	23	n/a	1	n/a	0	0	0	n/a	n/a	n/a	n/a	n/a
2500895	REC_WORD	wordpools/wasnorm_wordpool.txt	LTP138	ltpFR	13	10	1	QUAIL	1147	n/a	3	n/a	0	0	0	n/a	n/a	n/a	n/a	n/a
2505774	REC_WORD	wordpools/wasnorm_wordpool.txt	LTP138	ltpFR	13	10	0	COYOTE	396	n/a	1	n/a	0	0	0	n/a	n/a	n/a	n/a	n/a
2516739	REC_WORD	wordpools/wasnorm_wordpool.txt	LTP138	ltpFR	13	10	0	LIME	823	n/a	0	n/a	0	0	0	n/a	n/a	n/a	n/a	n/a
2520326	REC_WORD	wordpools/wasnorm_wordpool.txt	LTP138	ltpFR	13	10	0	LACE	792	n/a	0	n/a	0	0	0	n/a	n/a	n/a	n/a	n/a
2521214	REC_WORD	wordpools/wasnorm_wordpool.txt	LTP138	ltpFR	13	10	0	SANDPAPER	1231	n/a	0	n/a	0	0	0	n/a	n/a	n/a	n/a	n/a
2547409	REC_WORD	wordpools/wasnorm_wordpool.txt	LTP138	ltpFR	13	10	0	BOLT	146	n/a	0	n/a	0	0	0	n/a	n/a	n/a	n/a	n/a
2565196	REST_REWET	n/a	LTP138	ltpFR	13	10	n/a	n/a	n/a	n/a	n/a	n/a	0	0	0	n/a	n/a	n/a	n/a	n/a
2925819	WORD	wordpools/wasnorm_wordpool.txt	LTP138	ltpFR	13	11	0	FIST	572	n/a	1	n/a	0	0	0	1	0.412841796875	0.57763671875	upper	../fonts/amplitud.ttf
2929631	WORD	wordpools/wasnorm_wordpool.txt	LTP138	ltpFR	13	11	0	RIDER	1191	n/a	1	n/a	0	0	0	1	0.412841796875	0.57763671875	upper	../fonts/amplitud.ttf
2933735	WORD	wordpools/wasnorm_wordpool.txt	LTP138	ltpFR	13	11	0	MULE	931	n/a	1	n/a	0	0	0	1	0.412841796875	0.57763671875	upper	../fonts/amplitud.ttf
2937923	WORD	wordpools/wasnorm_wordpool.txt	LTP138	ltpFR	13	11	0	SWAMP	1416	n/a	1	n/a	0	0	0	1	0.412841796875	0.57763671875	upper	../fonts/amplitud.ttf
2941918	WORD	wordpools/wasnorm_wordpool.txt	LTP138	ltpFR	13	11	1	LEADER	807	n/a	1	n/a	0	0	0	0	0.5869140625	0.422607421875	lower	../fonts/zerothre.ttf
2945912	WORD	wordpools/wasnorm_wordpool.txt	LTP138	ltpFR	13	11	1	COMMANDER	354	n/a	1	n/a	0	0	0	0	0.5869140625	0.422607421875	lower	../fonts/zerothre.ttf
2950050	WORD	wordpools/wasnorm_wordpool.txt	LTP138	ltpFR	13	11	1	SHELF	1280	n/a	0	n/a	0	0	0	0	0.5869140625	0.422607421875	lower	../fonts/zerothre.ttf
2953971	WORD	wordpools/wasnorm_wordpool.txt	LTP138	ltpFR	13	11	1	SPRINKLE	1359	n/a	0	n/a	0	0	0	0	0.5869140625	0.422607421875	lower	../fonts/zerothre.ttf
2957916	WORD	wordpools/wasnorm_wordpool.txt	LTP138	ltpFR	13	11	1	HARP	689	n/a	0	n/a	0	0	0	0	0.5869140625	0.422607421875	lower	../fonts/zerothre.ttf
2961861	WORD	wordpools/wasnorm_wordpool.txt	LTP138	ltpFR	13	11	0	KEEPER	769	n/a	1	n/a	0	0	0	1	0.412841796875	0.57763671875	upper	../fonts/amplitud.ttf
2965773	WORD	wordpools/wasnorm_wordpool.txt	LTP138	ltpFR	13	11	0	GAUZE	626	n/a	0	n/a	0	0	0	1	0.412841796875	0.57763671875	upper	../fonts/amplitud.ttf
2969893	WORD	wordpools/wasnorm_wordpool.txt	LTP138	ltpFR	13	11	0	PIANO	1057	n/a	1	n/a	0	0	0	1	0.412841796875	0.57763671875	upper	../fonts/amplitud.ttf
2973973	WORD	wordpools/wasnorm_wordpool.txt	LTP138	ltpFR	13	11	0	MICROWAVE	892	n/a	1	n/a	0	0	0	1	0.412841796875	0.57763671875	upper	../fonts/amplitud.ttf
2977926	WORD	wordpools/wasnorm_wordpool.txt	LTP138	ltpFR	13	11	1	GARLIC	624	n/a	0	n/a	0	0	0	0	0.5869140625	0.422607421875	lower	../fonts/zerothre.ttf
2981922	WORD	wordpools/wasnorm_wordpool.txt	LTP138	ltpFR	13	11	1	REBEL	1172	n/a	1	n/a	0	0	0	0	0.5869140625	0.422607421875	lower	../fonts/zerothre.ttf
2985967	WORD	wordpools/wasnorm_wordpool.txt	LTP138	ltpFR	13	11	1	CHISEL	305	n/a	0	n/a	0	0	0	0	0.5869140625	0.422607421875	lower	../fonts/zerothre.ttf
2991685	REC_START	n/a	LTP138	ltpFR	13	11	n/a	n/a	n/a	n/a	n/a	n/a	0	0	0	n/a	n/a	n/a	n/a	n/a
2992702	REC_WORD	wordpools/wasnorm_wordpool.txt	LTP138	ltpFR	13	11	1	REBEL	1172	n/a	1	n/a	0	0	0	n/a	n/a	n/a	n/a	n/a
2993535	REC_WORD	wordpools/wasnorm_wordpool.txt	LTP138	ltpFR	13	11	1	CHISEL	305	n/a	0	n/a	0	0	0	n/a	n/a	n/a	n/a	n/a
2994533	REC_WORD	wordpools/wasnorm_wordpool.txt	LTP138	ltpFR	13	11	1	GARLIC	624	n/a	0	n/a	0	0	0	n/a	n/a	n/a	n/a	n/a
2995486	REC_WORD	wordpools/wasnorm_wordpool.txt	LTP138	ltpFR	13	11	0	MICROWAVE	892	n/a	1	n/a	0	0	0	n/a	n/a	n/a	n/a	n/a
2997117	REC_WORD	wordpools/wasnorm_wordpool.txt	LTP138	ltpFR	13	11	0	PIANO	1057	n/a	1	n/a	0	0	0	n/a	n/a	n/a	n/a	n/a
2998245	REC_WORD	wordpools/wasnorm_wordpool.txt	LTP138	ltpFR	13	11	1	HARP	689	n/a	0	n/a	0	0	0	n/a	n/a	n/a	n/a	n/a
2999367	REC_WORD	wordpools/wasnorm_wordpool.txt	LTP138	ltpFR	13	11	n/a	SHELTER	1282	n/a	n/a	n/a	0	0	0	n/a	n/a	n/a	n/a	n/a
3000988	REC_WORD	wordpools/wasnorm_wordpool.txt	LTP138	ltpFR	13	11	1	SPRINKLE	1359	n/a	0	n/a	0	0	0	n/a	n/a	n/a	n/a	n/a
3003054	REC_WORD_VV	wordpools/wasnorm_wordpool.txt	LTP138	ltpFR	13	11	n/a	<>	-1	n/a	n/a	n/a	0	0	0	n/a	n/a	n/a	n/a	n/a
3004860	REC_WORD	wordpools/wasnorm_wordpool.txt	LTP138	ltpFR	13	11	0	FIST	572	n/a	1	n/a	0	0	0	n/a	n/a	n/a	n/a	n/a
3007398	REC_WORD	wordpools/wasnorm_wordpool.txt	LTP138	ltpFR	13	11	0	SWAMP	1416	n/a	1	n/a	0	0	0	n/a	n/a	n/a	n/a	n/a
3008751	REC_WORD	wordpools/wasnorm_wordpool.txt	LTP138	ltpFR	13	11	0	RIDER	1191	n/a	1	n/a	0	0	0	n/a	n/a	n/a	n/a	n/a
3009878	REC_WORD	wordpools/wasnorm_wordpool.txt	LTP138	ltpFR	13	11	0	MULE	931	n/a	1	n/a	0	0	0	n/a	n/a	n/a	n/a	n/a
3011330	REC_WORD	wordpools/wasnorm_wordpool.txt	LTP138	ltpFR	13	11	1	COMMANDER	354	n/a	1	n/a	0	0	0	n/a	n/a	n/a	n/a	n/a
3012951	REC_WORD	wordpools/wasnorm_wordpool.txt	LTP138	ltpFR	13	11	1	LEADER	807	n/a	1	n/a	0	0	0	n/a	n/a	n/a	n/a	n/a
3016843	REC_WORD	wordpools/wasnorm_wordpool.txt	LTP138	ltpFR	13	11	1	REBEL	1172	n/a	1	n/a	0	0	0	n/a	n/a	n/a	n/a	n/a
3031678	REC_WORD_VV	wordpools/wasnorm_wordpool.txt	LTP138	ltpFR	13	11	n/a	<>	-1	n/a	n/a	n/a	0	0	0	n/a	n/a	n/a	n/a	n/a
3084378	START	n/a	LTP138	ltpFR	13	n/a	n/a	n/a	n/a	n/a	n/a	n/a	n/a	n/a	n/a	n/a	n/a	n/a	n/a	n/a
3085883	PROB	n/a	LTP138	ltpFR	13	n/a	n/a	n/a	n/a	n/a	n/a	23	9	7	9	n/a	n/a	n/a	n/a	n/a
3089430	PROB	n/a	LTP138	ltpFR	13	n/a	n/a	n/a	n/a	n/a	n/a	10	6	2	2	n/a	n/a	n/a	n/a	n/a
3090881	STOP	n/a	LTP138	ltpFR	13	n/a	n/a	n/a	n/a	n/a	n/a	n/a	n/a	n/a	n/a	n/a	n/a	n/a	n/a	n/a
3093334	WORD	wordpools/wasnorm_wordpool.txt	LTP138	ltpFR	13	12	0	BROCCOLI	176	n/a	1	n/a	0	0	0	1	0.412841796875	0.57763671875	upper	../fonts/amplitud.ttf
3096340	START	n/a	LTP138	ltpFR	13	n/a	n/a	n/a	n/a	n/a	n/a	n/a	n/a	n/a	n/a	n/a	n/a	n/a	n/a	n/a
3097321	PROB	n/a	LTP138	ltpFR	13	n/a	n/a	n/a	n/a	n/a	n/a	18	4	5	9	n/a	n/a	n/a	n/a	n/a
3099584	PROB	n/a	LTP138	ltpFR	13	n/a	n/a	n/a	n/a	n/a	n/a	15	8	3	4	n/a	n/a	n/a	n/a	n/a
3101208	PROB	n/a	LTP138	ltpFR	13	n/a	n/a	n/a	n/a	n/a	n/a	9	1	5	3	n/a	n/a	n/a	n/a	n/a
3104340	STOP	n/a	LTP138	ltpFR	13	n/a	n/a	n/a	n/a	n/a	n/a	n/a	n/a	n/a	n/a	n/a	n/a	n/a	n/a	n/a
3105212	WORD	wordpools/wasnorm_wordpool.txt	LTP138	ltpFR	13	12	0	GRATE	657	n/a	1	n/a	0	0	0	1	0.412841796875	0.57763671875	upper	../fonts/amplitud.ttf
3108217	START	n/a	LTP138	ltpFR	13	n/a	n/a	n/a	n/a	n/a	n/a	n/a	n/a	n/a	n/a	n/a	n/a	n/a	n/a	n/a
3109041	PROB	n/a	LTP138	ltpFR	13	n/a	n/a	n/a	n/a	n/a	n/a	10	1	5	4	n/a	n/a	n/a	n/a	n/a
3110373	PROB	n/a	LTP138	ltpFR	13	n/a	n/a	n/a	n/a	n/a	n/a	12	1	6	5	n/a	n/a	n/a	n/a	n/a
3111988	PROB	n/a	LTP138	ltpFR	13	n/a	n/a	n/a	n/a	n/a	n/a	14	2	7	5	n/a	n/a	n/a	n/a	n/a
3116217	STOP	n/a	LTP138	ltpFR	13	n/a	n/a	n/a	n/a	n/a	n/a	n/a	n/a	n/a	n/a	n/a	n/a	n/a	n/a	n/a
3117231	WORD	wordpools/wasnorm_wordpool.txt	LTP138	ltpFR	13	12	1	SCIENTIST	1249	n/a	1	n/a	0	0	0	0	0.5869140625	0.422607421875	lower	../fonts/zerothre.ttf
3120237	START	n/a	LTP138	ltpFR	13	n/a	n/a	n/a	n/a	n/a	n/a	n/a	n/a	n/a	n/a	n/a	n/a	n/a	n/a	n/a
3121152	PROB	n/a	LTP138	ltpFR	13	n/a	n/a	n/a	n/a	n/a	n/a	22	5	9	8	n/a	n/a	n/a	n/a	n/a
3124547	PROB	n/a	LTP138	ltpFR	13	n/a	n/a	n/a	n/a	n/a	n/a	16	6	9	1	n/a	n/a	n/a	n/a	n/a
3126096	PROB	n/a	LTP138	ltpFR	13	n/a	n/a	n/a	n/a	n/a	n/a	13	5	2	6	n/a	n/a	n/a	n/a	n/a
3127857	STOP	n/a	LTP138	ltpFR	13	n/a	n/a	n/a	n/a	n/a	n/a	n/a	n/a	n/a	n/a	n/a	n/a	n/a	n/a	n/a
3129367	WORD	wordpools/wasnorm_wordpool.txt	LTP138	ltpFR	13	12	1	FIGHTER	564	n/a	3	n/a	0	0	0	0	0.5869140625	0.422607421875	lower	../fonts/zerothre.ttf
3130366	KEY_MSG	n/a	LTP138	ltpFR	13	12	n/a	n/a	n/a	n/a	n/a	n/a	0	0	0	n/a	n/a	n/a	n/a	n/a
3132373	START	n/a	LTP138	ltpFR	13	n/a	n/a	n/a	n/a	n/a	n/a	n/a	n/a	n/a	n/a	n/a	n/a	n/a	n/a	n/a
3133371	PROB	n/a	LTP138	ltpFR	13	n/a	n/a	n/a	n/a	n/a	n/a	14	1	4	9	n/a	n/a	n/a	n/a	n/a
3135985	PROB	n/a	LTP138	ltpFR	13	n/a	n/a	n/a	n/a	n/a	n/a	7	1	1	5	n/a	n/a	n/a	n/a	n/a
3137549	PROB	n/a	LTP138	ltpFR	13	n/a	n/a	n/a	n/a	n/a	n/a	20	8	8	4	n/a	n/a	n/a	n/a	n/a
3139226	STOP	n/a	LTP138	ltpFR	13	n/a	n/a	n/a	n/a	n/a	n/a	n/a	n/a	n/a	n/a	n/a	n/a	n/a	n/a	n/a
3141536	WORD	wordpools/wasnorm_wordpool.txt	LTP138	ltpFR	13	12	1	OATS	968	n/a	0	n/a	0	0	0	0	0.5869140625	0.422607421875	lower	../fonts/zerothre.ttf
3144541	START	n/a	LTP138	ltpFR	13	n/a	n/a	n/a	n/a	n/a	n/a	n/a	n/a	n/a	n/a	n/a	n/a	n/a	n/a	n/a
3145706	PROB	n/a	LTP138	ltpFR	13	n/a	n/a	n/a	n/a	n/a	n/a	17	1	8	8	n/a	n/a	n/a	n/a	n/a
3147272	PROB	n/a	LTP138	ltpFR	13	n/a	n/a	n/a	n/a	n/a	n/a	15	7	5	3	n/a	n/a	n/a	n/a	n/a
3149593	PROB	n/a	LTP138	ltpFR	13	n/a	n/a	n/a	n/a	n/a	n/a	18	7	7	4	n/a	n/a	n/a	n/a	n/a
3150984	PROB	n/a	LTP138	ltpFR	13	n/a	n/a	n/a	n/a	n/a	n/a	12	8	2	2	n/a	n/a	n/a	n/a	n/a
3152202	STOP	n/a	LTP138	ltpFR	13	n/a	n/a	n/a	n/a	n/a	n/a	n/a	n/a	n/a	n/a	n/a	n/a	n/a	n/a	n/a
3153647	WORD	wordpools/wasnorm_wordpool.txt	LTP138	ltpFR	13	12	1	SHRINE	1298	n/a	0	n/a	0	0	0	0	0.5869140625	0.422607421875	lower	../fonts/zerothre.ttf
3156652	START	n/a	LTP138	ltpFR	13	n/a	n/a	n/a	n/a	n/a	n/a	n/a	n/a	n/a	n/a	n/a	n/a	n/a	n/a	n/a
3157575	PROB	n/a	LTP138	ltpFR	13	n/a	n/a	n/a	n/a	n/a	n/a	14	7	2	5	n/a	n/a	n/a	n/a	n/a
3159773	PROB	n/a	LTP138	ltpFR	13	n/a	n/a	n/a	n/a	n/a	n/a	20	9	4	7	n/a	n/a	n/a	n/a	n/a
3162038	PROB	n/a	LTP138	ltpFR	13	n/a	n/a	n/a	n/a	n/a	n/a	13	3	3	7	n/a	n/a	n/a	n/a	n/a
3163258	STOP	n/a	LTP138	ltpFR	13	n/a	n/a	n/a	n/a	n/a	n/a	n/a	n/a	n/a	n/a	n/a	n/a	n/a	n/a	n/a
3165766	WORD	wordpools/wasnorm_wordpool.txt	LTP138	ltpFR	13	12	1	RASPBERRY	1168	n/a	0	n/a	0	0	0	0	0.5869140625	0.422607421875	lower	../fonts/zerothre.ttf
3168771	START	n/a	LTP138	ltpFR	13	n/a	n/a	n/a	n/a	n/a	n/a	n/a	n/a	n/a	n/a	n/a	n/a	n/a	n/a	n/a
3169628	PROB	n/a	LTP138	ltpFR	13	n/a	n/a	n/a	n/a	n/a	n/a	14	7	1	6	n/a	n/a	n/a	n/a	n/a
3171236	PROB	n/a	LTP138	ltpFR	13	n/a	n/a	n/a	n/a	n/a	n/a	17	5	6	6	n/a	n/a	n/a	n/a	n/a
3176771	STOP	n/a	LTP138	ltpFR	13	n/a	n/a	n/a	n/a	n/a	n/a	n/a	n/a	n/a	n/a	n/a	n/a	n/a	n/a	n/a
3177910	WORD	wordpools/wasnorm_wordpool.txt	LTP138	ltpFR	13	12	1	GIRAFFE	636	n/a	1	n/a	0	0	0	0	0.5869140625	0.422607421875	lower	../fonts/zerothre.ttf
3180917	START	n/a	LTP138	ltpFR	13	n/a	n/a	n/a	n/a	n/a	n/a	n/a	n/a	n/a	n/a	n/a	n/a	n/a	n/a	n/a
3182073	PROB	n/a	LTP138	ltpFR	13	n/a	n/a	n/a	n/a	n/a	n/a	11	7	3	1	n/a	n/a	n/a	n/a	n/a
3185403	PROB	n/a	LTP138	ltpFR	13	n/a	n/a	n/a	n/a	n/a	n/a	9	1	6	2	n/a	n/a	n/a	n/a	n/a
3188916	STOP	n/a	LTP138	ltpFR	13	n/a	n/a	n/a	n/a	n/a	n/a	n/a	n/a	n/a	n/a	n/a	n/a	n/a	n/a	n/a
3189780	WORD	wordpools/wasnorm_wordpool.txt	LTP138	ltpFR	13	12	0	DIRECTOR	471	n/a	1	n/a	0	0	0	1	0.412841796875	0.57763671875	upper	../fonts/amplitud.ttf
3192785	START	n/a	LTP138	ltpFR	13	n/a	n/a	n/a	n/a	n/a	n/a	n/a	n/a	n/a	n/a	n/a	n/a	n/a	n/a	n/a
3193734	PROB	n/a	LTP138	ltpFR	13	n/a	n/a	n/a	n/a	n/a	n/a	19	6	9	4	n/a	n/a	n/a	n/a	n/a
3195856	PROB	n/a	LTP138	ltpFR	13	n/a	n/a	n/a	n/a	n/a	n/a	19	9	2	8	n/a	n/a	n/a	n/a	n/a
3198346	PROB	n/a	LTP138	ltpFR	13	n/a	n/a	n/a	n/a	n/a	n/a	17	5	9	3	n/a	n/a	n/a	n/a	n/a
3200442	STOP	n/a	LTP138	ltpFR	13	n/a	n/a	n/a	n/a	n/a	n/a	n/a	n/a	n/a	n/a	n/a	n/a	n/a	n/a	n/a
3201724	WORD	wordpools/wasnorm_wordpool.txt	LTP138	ltpFR	13	12	0	FILM	565	n/a	2	n/a	0	0	0	1	0.412841796875	0.57763671875	upper	../fonts/amplitud.ttf
3202756	KEY_MSG	n/a	LTP138	ltpFR	13	12	n/a	n/a	n/a	n/a	n/a	n/a	0	0	0	n/a	n/a	n/a	n/a	n/a
