mstime	trial_type	stim_file	subject	experiment	session	trial	item_name	item_num	list	answer	test_x	test_y	test_z
0	SESS_START	n/a	LTP376	ltpFR2	4	n/a	n/a	n/a	n/a	n/a	0	0	0
26459	START	n/a	LTP376	ltpFR2	4	n/a	n/a	n/a	-1	n/a	n/a	n/a	n/a
26489	PROB	n/a	LTP376	ltpFR2	4	n/a	n/a	n/a	-1	17	2	7	8
28921	PROB	n/a	LTP376	ltpFR2	4	n/a	n/a	n/a	-1	18	8	2	8
30671	PROB	n/a	LTP376	ltpFR2	4	n/a	n/a	n/a	-1	11	1	3	7
32336	PROB	n/a	LTP376	ltpFR2	4	n/a	n/a	n/a	-1	17	2	8	7
34118	PROB	n/a	LTP376	ltpFR2	4	n/a	n/a	n/a	-1	13	6	1	6
36051	PROB	n/a	LTP376	ltpFR2	4	n/a	n/a	n/a	-1	16	9	1	6
38154	STOP	n/a	LTP376	ltpFR2	4	n/a	n/a	n/a	-1	n/a	n/a	n/a	n/a
133074	WORD	wordpools/wasnorm_wordpool_576.txt	LTP376	ltpFR2	4	1	PATIENT	1024	n/a	n/a	0	0	0
135690	WORD	wordpools/wasnorm_wordpool_576.txt	LTP376	ltpFR2	4	1	BEEF	113	n/a	n/a	0	0	0
138188	WORD	wordpools/wasnorm_wordpool_576.txt	LTP376	ltpFR2	4	1	BODY	145	n/a	n/a	0	0	0
140888	WORD	wordpools/wasnorm_wordpool_576.txt	LTP376	ltpFR2	4	1	POSTAGE	1113	n/a	n/a	0	0	0
143369	WORD	wordpools/wasnorm_wordpool_576.txt	LTP376	ltpFR2	4	1	GRILL	661	n/a	n/a	0	0	0
145985	WORD	wordpools/wasnorm_wordpool_576.txt	LTP376	ltpFR2	4	1	PILOT	1070	n/a	n/a	0	0	0
148651	WORD	wordpools/wasnorm_wordpool_576.txt	LTP376	ltpFR2	4	1	MISTER	901	n/a	n/a	0	0	0
151349	WORD	wordpools/wasnorm_wordpool_576.txt	LTP376	ltpFR2	4	1	DRESSER	496	n/a	n/a	0	0	0
154014	WORD	wordpools/wasnorm_wordpool_576.txt	LTP376	ltpFR2	4	1	CRATER	400	n/a	n/a	0	0	0
156514	WORD	wordpools/wasnorm_wordpool_576.txt	LTP376	ltpFR2	4	1	SPACE	1345	n/a	n/a	0	0	0
159129	WORD	wordpools/wasnorm_wordpool_576.txt	LTP376	ltpFR2	4	1	POET	1095	n/a	n/a	0	0	0
161795	WORD	wordpools/wasnorm_wordpool_576.txt	LTP376	ltpFR2	4	1	MAILMAN	858	n/a	n/a	0	0	0
164276	WORD	wordpools/wasnorm_wordpool_576.txt	LTP376	ltpFR2	4	1	ACTOR	5	n/a	n/a	0	0	0
166843	WORD	wordpools/wasnorm_wordpool_576.txt	LTP376	ltpFR2	4	1	SPHINX	1349	n/a	n/a	0	0	0
169357	WORD	wordpools/wasnorm_wordpool_576.txt	LTP376	ltpFR2	4	1	SALT	1229	n/a	n/a	0	0	0
171956	WORD	wordpools/wasnorm_wordpool_576.txt	LTP376	ltpFR2	4	1	PEPPER	1047	n/a	n/a	0	0	0
174706	WORD	wordpools/wasnorm_wordpool_576.txt	LTP376	ltpFR2	4	1	BREAST	171	n/a	n/a	0	0	0
177521	WORD	wordpools/wasnorm_wordpool_576.txt	LTP376	ltpFR2	4	1	TREAT	1501	n/a	n/a	0	0	0
180269	WORD	wordpools/wasnorm_wordpool_576.txt	LTP376	ltpFR2	4	1	SPIDER	1351	n/a	n/a	0	0	0
182951	WORD	wordpools/wasnorm_wordpool_576.txt	LTP376	ltpFR2	4	1	MAILBOX	857	n/a	n/a	0	0	0
185484	WORD	wordpools/wasnorm_wordpool_576.txt	LTP376	ltpFR2	4	1	EYELASH	546	n/a	n/a	0	0	0
188249	WORD	wordpools/wasnorm_wordpool_576.txt	LTP376	ltpFR2	4	1	FRECKLE	602	n/a	n/a	0	0	0
190914	WORD	wordpools/wasnorm_wordpool_576.txt	LTP376	ltpFR2	4	1	BASEMENT	94	n/a	n/a	0	0	0
193647	WORD	wordpools/wasnorm_wordpool_576.txt	LTP376	ltpFR2	4	1	TILE	1468	n/a	n/a	0	0	0
195262	START	n/a	LTP376	ltpFR2	4	n/a	n/a	n/a	1	n/a	n/a	n/a	n/a
196235	DISTRACTOR	n/a	LTP376	ltpFR2	4	1	n/a	n/a	n/a	n/a	0	0	0
196245	PROB	n/a	LTP376	ltpFR2	4	n/a	n/a	n/a	1	12	4	6	2
200077	PROB	n/a	LTP376	ltpFR2	4	n/a	n/a	n/a	1	16	1	9	6
201494	PROB	n/a	LTP376	ltpFR2	4	n/a	n/a	n/a	1	17	1	8	8
203309	PROB	n/a	LTP376	ltpFR2	4	n/a	n/a	n/a	1	9	3	5	1
205408	PROB	n/a	LTP376	ltpFR2	4	n/a	n/a	n/a	1	12	3	5	4
208923	PROB	n/a	LTP376	ltpFR2	4	n/a	n/a	n/a	1	17	9	1	7
211038	PROB	n/a	LTP376	ltpFR2	4	n/a	n/a	n/a	1	13	6	3	4
213387	PROB	n/a	LTP376	ltpFR2	4	n/a	n/a	n/a	1	15	5	9	1
219261	STOP	n/a	LTP376	ltpFR2	4	n/a	n/a	n/a	1	n/a	n/a	n/a	n/a
221034	REC_START	n/a	LTP376	ltpFR2	4	1	n/a	n/a	n/a	n/a	0	0	0
222306	REC_WORD	wordpools/wasnorm_wordpool_576.txt	LTP376	ltpFR2	4	1	MAILMAN	858	n/a	n/a	0	0	0
223553	REC_WORD	wordpools/wasnorm_wordpool_576.txt	LTP376	ltpFR2	4	1	MAILBOX	857	n/a	n/a	0	0	0
225182	REC_WORD	wordpools/wasnorm_wordpool_576.txt	LTP376	ltpFR2	4	1	ACTOR	5	n/a	n/a	0	0	0
226672	REC_WORD	wordpools/wasnorm_wordpool_576.txt	LTP376	ltpFR2	4	1	POET	1095	n/a	n/a	0	0	0
228024	REC_WORD	wordpools/wasnorm_wordpool_576.txt	LTP376	ltpFR2	4	1	BEEF	113	n/a	n/a	0	0	0
229069	REC_WORD	wordpools/wasnorm_wordpool_576.txt	LTP376	ltpFR2	4	1	PATIENT	1024	n/a	n/a	0	0	0
230610	REC_WORD	wordpools/wasnorm_wordpool_576.txt	LTP376	ltpFR2	4	1	SALT	1229	n/a	n/a	0	0	0
231270	REC_WORD	wordpools/wasnorm_wordpool_576.txt	LTP376	ltpFR2	4	1	PEPPER	1047	n/a	n/a	0	0	0
232755	REC_WORD	wordpools/wasnorm_wordpool_576.txt	LTP376	ltpFR2	4	1	BODY	145	n/a	n/a	0	0	0
260747	REC_WORD	wordpools/wasnorm_wordpool_576.txt	LTP376	ltpFR2	4	1	BREAST	171	n/a	n/a	0	0	0
262056	REC_WORD	wordpools/wasnorm_wordpool_576.txt	LTP376	ltpFR2	4	1	EYELASH	546	n/a	n/a	0	0	0
327520	DISTRACTOR	n/a	LTP376	ltpFR2	4	2	n/a	n/a	n/a	n/a	0	0	0
327520	START	n/a	LTP376	ltpFR2	4	n/a	n/a	n/a	2	n/a	n/a	n/a	n/a
327537	PROB	n/a	LTP376	ltpFR2	4	n/a	n/a	n/a	2	15	3	8	4
330185	PROB	n/a	LTP376	ltpFR2	4	n/a	n/a	n/a	2	8	1	2	5
332818	PROB	n/a	LTP376	ltpFR2	4	n/a	n/a	n/a	2	18	7	3	8
335099	PROB	n/a	LTP376	ltpFR2	4	n/a	n/a	n/a	2	21	9	3	9
338565	PROB	n/a	LTP376	ltpFR2	4	n/a	n/a	n/a	2	18	9	8	1
340213	PROB	n/a	LTP376	ltpFR2	4	n/a	n/a	n/a	2	18	6	4	8
342046	PROB	n/a	LTP376	ltpFR2	4	n/a	n/a	n/a	2	17	4	6	7
345679	PROB	n/a	LTP376	ltpFR2	4	n/a	n/a	n/a	2	11	5	1	5
347110	PROB	n/a	LTP376	ltpFR2	4	n/a	n/a	n/a	2	15	5	3	7
351508	STOP	n/a	LTP376	ltpFR2	4	n/a	n/a	n/a	2	n/a	n/a	n/a	n/a
352526	WORD	wordpools/wasnorm_wordpool_576.txt	LTP376	ltpFR2	4	2	CASKET	255	n/a	n/a	0	0	0
355257	WORD	wordpools/wasnorm_wordpool_576.txt	LTP376	ltpFR2	4	2	POISON	1096	n/a	n/a	0	0	0
357955	WORD	wordpools/wasnorm_wordpool_576.txt	LTP376	ltpFR2	4	2	TRENCH	1503	n/a	n/a	0	0	0
360421	WORD	wordpools/wasnorm_wordpool_576.txt	LTP376	ltpFR2	4	2	TURKEY	1520	n/a	n/a	0	0	0
363186	WORD	wordpools/wasnorm_wordpool_576.txt	LTP376	ltpFR2	4	2	SWITCH	1422	n/a	n/a	0	0	0
365753	WORD	wordpools/wasnorm_wordpool_576.txt	LTP376	ltpFR2	4	2	PERCH	1048	n/a	n/a	0	0	0
368251	WORD	wordpools/wasnorm_wordpool_576.txt	LTP376	ltpFR2	4	2	EGYPT	519	n/a	n/a	0	0	0
370884	WORD	wordpools/wasnorm_wordpool_576.txt	LTP376	ltpFR2	4	2	HELMET	702	n/a	n/a	0	0	0
373382	WORD	wordpools/wasnorm_wordpool_576.txt	LTP376	ltpFR2	4	2	SCARF	1246	n/a	n/a	0	0	0
375947	WORD	wordpools/wasnorm_wordpool_576.txt	LTP376	ltpFR2	4	2	VALVE	1546	n/a	n/a	0	0	0
378730	WORD	wordpools/wasnorm_wordpool_576.txt	LTP376	ltpFR2	4	2	TROUT	1511	n/a	n/a	0	0	0
381328	WORD	wordpools/wasnorm_wordpool_576.txt	LTP376	ltpFR2	4	2	MILDEW	893	n/a	n/a	0	0	0
383927	WORD	wordpools/wasnorm_wordpool_576.txt	LTP376	ltpFR2	4	2	FOREHEAD	592	n/a	n/a	0	0	0
386610	WORD	wordpools/wasnorm_wordpool_576.txt	LTP376	ltpFR2	4	2	PISTON	1076	n/a	n/a	0	0	0
389141	WORD	wordpools/wasnorm_wordpool_576.txt	LTP376	ltpFR2	4	2	OUTLAW	989	n/a	n/a	0	0	0
391708	WORD	wordpools/wasnorm_wordpool_576.txt	LTP376	ltpFR2	4	2	GALLON	618	n/a	n/a	0	0	0
394289	WORD	wordpools/wasnorm_wordpool_576.txt	LTP376	ltpFR2	4	2	CURTAIN	427	n/a	n/a	0	0	0
396855	WORD	wordpools/wasnorm_wordpool_576.txt	LTP376	ltpFR2	4	2	COCKTAIL	338	n/a	n/a	0	0	0
399521	WORD	wordpools/wasnorm_wordpool_576.txt	LTP376	ltpFR2	4	2	COFFEE	341	n/a	n/a	0	0	0
402202	WORD	wordpools/wasnorm_wordpool_576.txt	LTP376	ltpFR2	4	2	PIMPLE	1071	n/a	n/a	0	0	0
404984	WORD	wordpools/wasnorm_wordpool_576.txt	LTP376	ltpFR2	4	2	HEART	697	n/a	n/a	0	0	0
407467	WORD	wordpools/wasnorm_wordpool_576.txt	LTP376	ltpFR2	4	2	SNAIL	1332	n/a	n/a	0	0	0
410032	WORD	wordpools/wasnorm_wordpool_576.txt	LTP376	ltpFR2	4	2	TORTOISE	1486	n/a	n/a	0	0	0
412865	WORD	wordpools/wasnorm_wordpool_576.txt	LTP376	ltpFR2	4	2	FLESH	579	n/a	n/a	0	0	0
414481	START	n/a	LTP376	ltpFR2	4	n/a	n/a	n/a	3	n/a	n/a	n/a	n/a
415354	DISTRACTOR	n/a	LTP376	ltpFR2	4	2	n/a	n/a	n/a	n/a	0	0	0
415363	PROB	n/a	LTP376	ltpFR2	4	n/a	n/a	n/a	3	10	3	4	3
419128	PROB	n/a	LTP376	ltpFR2	4	n/a	n/a	n/a	3	21	7	9	5
423193	PROB	n/a	LTP376	ltpFR2	4	n/a	n/a	n/a	3	11	6	1	4
424626	PROB	n/a	LTP376	ltpFR2	4	n/a	n/a	n/a	3	15	6	8	1
427141	PROB	n/a	LTP376	ltpFR2	4	n/a	n/a	n/a	3	16	7	7	2
428957	PROB	n/a	LTP376	ltpFR2	4	n/a	n/a	n/a	3	15	8	6	1
431006	PROB	n/a	LTP376	ltpFR2	4	n/a	n/a	n/a	3	18	9	6	3
438481	STOP	n/a	LTP376	ltpFR2	4	n/a	n/a	n/a	3	n/a	n/a	n/a	n/a
440419	REC_START	n/a	LTP376	ltpFR2	4	2	n/a	n/a	n/a	n/a	0	0	0
441545	REC_WORD	wordpools/wasnorm_wordpool_576.txt	LTP376	ltpFR2	4	2	TRENCH	1503	n/a	n/a	0	0	0
442678	REC_WORD	wordpools/wasnorm_wordpool_576.txt	LTP376	ltpFR2	4	2	CASKET	255	n/a	n/a	0	0	0
444127	REC_WORD	wordpools/wasnorm_wordpool_576.txt	LTP376	ltpFR2	4	2	POISON	1096	n/a	n/a	0	0	0
448092	REC_WORD	wordpools/wasnorm_wordpool_576.txt	LTP376	ltpFR2	4	2	PISTON	1076	n/a	n/a	0	0	0
451994	REC_WORD	wordpools/wasnorm_wordpool_576.txt	LTP376	ltpFR2	4	2	SNAIL	1332	n/a	n/a	0	0	0
453381	REC_WORD	wordpools/wasnorm_wordpool_576.txt	LTP376	ltpFR2	4	2	TORTOISE	1486	n/a	n/a	0	0	0
457135	REC_WORD	wordpools/wasnorm_wordpool_576.txt	LTP376	ltpFR2	4	2	COCKTAIL	338	n/a	n/a	0	0	0
458529	REC_WORD	wordpools/wasnorm_wordpool_576.txt	LTP376	ltpFR2	4	2	COFFEE	341	n/a	n/a	0	0	0
461457	REC_WORD	wordpools/wasnorm_wordpool_576.txt	LTP376	ltpFR2	4	2	PIMPLE	1071	n/a	n/a	0	0	0
575141	WORD	wordpools/wasnorm_wordpool_576.txt	LTP376	ltpFR2	4	3	WINDOW	1611	n/a	n/a	0	0	0
577774	WORD	wordpools/wasnorm_wordpool_576.txt	LTP376	ltpFR2	4	3	BUG	187	n/a	n/a	0	0	0
580489	WORD	wordpools/wasnorm_wordpool_576.txt	LTP376	ltpFR2	4	3	COSTUME	383	n/a	n/a	0	0	0
582954	WORD	wordpools/wasnorm_wordpool_576.txt	LTP376	ltpFR2	4	3	GAZELLE	628	n/a	n/a	0	0	0
585703	WORD	wordpools/wasnorm_wordpool_576.txt	LTP376	ltpFR2	4	3	CROSS	413	n/a	n/a	0	0	0
588201	WORD	wordpools/wasnorm_wordpool_576.txt	LTP376	ltpFR2	4	3	BROOK	177	n/a	n/a	0	0	0
590684	WORD	wordpools/wasnorm_wordpool_576.txt	LTP376	ltpFR2	4	3	TERMITE	1451	n/a	n/a	0	0	0
593282	WORD	wordpools/wasnorm_wordpool_576.txt	LTP376	ltpFR2	4	3	FOREST	593	n/a	n/a	0	0	0
595732	WORD	wordpools/wasnorm_wordpool_576.txt	LTP376	ltpFR2	4	3	HEDGE	699	n/a	n/a	0	0	0
598397	WORD	wordpools/wasnorm_wordpool_576.txt	LTP376	ltpFR2	4	3	PECAN	1036	n/a	n/a	0	0	0
601212	WORD	wordpools/wasnorm_wordpool_576.txt	LTP376	ltpFR2	4	3	CELLAR	267	n/a	n/a	0	0	0
603911	WORD	wordpools/wasnorm_wordpool_576.txt	LTP376	ltpFR2	4	3	DRIVER	499	n/a	n/a	0	0	0
606544	WORD	wordpools/wasnorm_wordpool_576.txt	LTP376	ltpFR2	4	3	ROOSTER	1209	n/a	n/a	0	0	0
609208	WORD	wordpools/wasnorm_wordpool_576.txt	LTP376	ltpFR2	4	3	DENIM	446	n/a	n/a	0	0	0
611991	WORD	wordpools/wasnorm_wordpool_576.txt	LTP376	ltpFR2	4	3	PEANUT	1032	n/a	n/a	0	0	0
614657	WORD	wordpools/wasnorm_wordpool_576.txt	LTP376	ltpFR2	4	3	MEAT	883	n/a	n/a	0	0	0
617405	WORD	wordpools/wasnorm_wordpool_576.txt	LTP376	ltpFR2	4	3	WIDOW	1608	n/a	n/a	0	0	0
620220	WORD	wordpools/wasnorm_wordpool_576.txt	LTP376	ltpFR2	4	3	TOMBSTONE	1478	n/a	n/a	0	0	0
622820	WORD	wordpools/wasnorm_wordpool_576.txt	LTP376	ltpFR2	4	3	GRIZZLY	662	n/a	n/a	0	0	0
625519	WORD	wordpools/wasnorm_wordpool_576.txt	LTP376	ltpFR2	4	3	DRAWING	494	n/a	n/a	0	0	0
628266	WORD	wordpools/wasnorm_wordpool_576.txt	LTP376	ltpFR2	4	3	GLASS	639	n/a	n/a	0	0	0
630883	WORD	wordpools/wasnorm_wordpool_576.txt	LTP376	ltpFR2	4	3	RABBIT	1152	n/a	n/a	0	0	0
633548	WORD	wordpools/wasnorm_wordpool_576.txt	LTP376	ltpFR2	4	3	BOARD	143	n/a	n/a	0	0	0
635996	WORD	wordpools/wasnorm_wordpool_576.txt	LTP376	ltpFR2	4	3	DOLPHIN	483	n/a	n/a	0	0	0
637613	START	n/a	LTP376	ltpFR2	4	n/a	n/a	n/a	4	n/a	n/a	n/a	n/a
638638	DISTRACTOR	n/a	LTP376	ltpFR2	4	3	n/a	n/a	n/a	n/a	0	0	0
638646	PROB	n/a	LTP376	ltpFR2	4	n/a	n/a	n/a	4	17	8	6	3
641628	PROB	n/a	LTP376	ltpFR2	4	n/a	n/a	n/a	4	24	7	6	9
646542	PROB	n/a	LTP376	ltpFR2	4	n/a	n/a	n/a	4	16	9	1	6
648224	PROB	n/a	LTP376	ltpFR2	4	n/a	n/a	n/a	4	14	4	3	7
649758	PROB	n/a	LTP376	ltpFR2	4	n/a	n/a	n/a	4	24	3	6	5
655888	PROB	n/a	LTP376	ltpFR2	4	n/a	n/a	n/a	4	12	2	1	9
657604	PROB	n/a	LTP376	ltpFR2	4	n/a	n/a	n/a	4	13	1	6	6
661598	STOP	n/a	LTP376	ltpFR2	4	n/a	n/a	n/a	4	n/a	n/a	n/a	n/a
663502	REC_START	n/a	LTP376	ltpFR2	4	3	n/a	n/a	n/a	n/a	0	0	0
665002	REC_WORD	wordpools/wasnorm_wordpool_576.txt	LTP376	ltpFR2	4	3	GAZELLE	628	n/a	n/a	0	0	0
666238	REC_WORD	wordpools/wasnorm_wordpool_576.txt	LTP376	ltpFR2	4	3	GRIZZLY	662	n/a	n/a	0	0	0
667751	REC_WORD	wordpools/wasnorm_wordpool_576.txt	LTP376	ltpFR2	4	3	TERMITE	1451	n/a	n/a	0	0	0
669116	REC_WORD	wordpools/wasnorm_wordpool_576.txt	LTP376	ltpFR2	4	3	FOREST	593	n/a	n/a	0	0	0
670513	REC_WORD	wordpools/wasnorm_wordpool_576.txt	LTP376	ltpFR2	4	3	BUG	187	n/a	n/a	0	0	0
671875	REC_WORD	wordpools/wasnorm_wordpool_576.txt	LTP376	ltpFR2	4	3	WINDOW	1611	n/a	n/a	0	0	0
673688	REC_WORD	wordpools/wasnorm_wordpool_576.txt	LTP376	ltpFR2	4	3	WIDOW	1608	n/a	n/a	0	0	0
678563	REC_WORD	wordpools/wasnorm_wordpool_576.txt	LTP376	ltpFR2	4	3	TOMBSTONE	1478	n/a	n/a	0	0	0
716711	REC_WORD	wordpools/wasnorm_wordpool_576.txt	LTP376	ltpFR2	4	3	ROOSTER	1209	n/a	n/a	0	0	0
726971	REC_WORD	wordpools/wasnorm_wordpool_576.txt	LTP376	ltpFR2	4	3	DENIM	446	n/a	n/a	0	0	0
753976	WORD	wordpools/wasnorm_wordpool_576.txt	LTP376	ltpFR2	4	4	COUNTRY	388	n/a	n/a	0	0	0
756759	WORD	wordpools/wasnorm_wordpool_576.txt	LTP376	ltpFR2	4	4	CATCHER	258	n/a	n/a	0	0	0
759257	WORD	wordpools/wasnorm_wordpool_576.txt	LTP376	ltpFR2	4	4	STOMACH	1384	n/a	n/a	0	0	0
761807	WORD	wordpools/wasnorm_wordpool_576.txt	LTP376	ltpFR2	4	4	BACON	67	n/a	n/a	0	0	0
764523	WORD	wordpools/wasnorm_wordpool_576.txt	LTP376	ltpFR2	4	4	MUMMY	932	n/a	n/a	0	0	0
767320	WORD	wordpools/wasnorm_wordpool_576.txt	LTP376	ltpFR2	4	4	WOMAN	1620	n/a	n/a	0	0	0
769870	WORD	wordpools/wasnorm_wordpool_576.txt	LTP376	ltpFR2	4	4	RELISH	1183	n/a	n/a	0	0	0
772552	WORD	wordpools/wasnorm_wordpool_576.txt	LTP376	ltpFR2	4	4	FLOWER	584	n/a	n/a	0	0	0
775250	WORD	wordpools/wasnorm_wordpool_576.txt	LTP376	ltpFR2	4	4	SAUSAGE	1238	n/a	n/a	0	0	0
777767	WORD	wordpools/wasnorm_wordpool_576.txt	LTP376	ltpFR2	4	4	BELLY	119	n/a	n/a	0	0	0
780515	WORD	wordpools/wasnorm_wordpool_576.txt	LTP376	ltpFR2	4	4	JELLY	755	n/a	n/a	0	0	0
783063	WORD	wordpools/wasnorm_wordpool_576.txt	LTP376	ltpFR2	4	4	SEAFOOD	1260	n/a	n/a	0	0	0
785730	WORD	wordpools/wasnorm_wordpool_576.txt	LTP376	ltpFR2	4	4	CLOUD	328	n/a	n/a	0	0	0
788227	WORD	wordpools/wasnorm_wordpool_576.txt	LTP376	ltpFR2	4	4	SLOPE	1328	n/a	n/a	0	0	0
790910	WORD	wordpools/wasnorm_wordpool_576.txt	LTP376	ltpFR2	4	4	RACKET	1155	n/a	n/a	0	0	0
793676	WORD	wordpools/wasnorm_wordpool_576.txt	LTP376	ltpFR2	4	4	LIZARD	834	n/a	n/a	0	0	0
796440	WORD	wordpools/wasnorm_wordpool_576.txt	LTP376	ltpFR2	4	4	BEAST	108	n/a	n/a	0	0	0
798874	WORD	wordpools/wasnorm_wordpool_576.txt	LTP376	ltpFR2	4	4	FIDDLE	561	n/a	n/a	0	0	0
801656	WORD	wordpools/wasnorm_wordpool_576.txt	LTP376	ltpFR2	4	4	ORANGE	980	n/a	n/a	0	0	0
804220	WORD	wordpools/wasnorm_wordpool_576.txt	LTP376	ltpFR2	4	4	CITRUS	313	n/a	n/a	0	0	0
807002	WORD	wordpools/wasnorm_wordpool_576.txt	LTP376	ltpFR2	4	4	KLEENEX	782	n/a	n/a	0	0	0
809735	WORD	wordpools/wasnorm_wordpool_576.txt	LTP376	ltpFR2	4	4	MONEY	908	n/a	n/a	0	0	0
812367	WORD	wordpools/wasnorm_wordpool_576.txt	LTP376	ltpFR2	4	4	SALAD	1224	n/a	n/a	0	0	0
814783	WORD	wordpools/wasnorm_wordpool_576.txt	LTP376	ltpFR2	4	4	PARSLEY	1016	n/a	n/a	0	0	0
816398	START	n/a	LTP376	ltpFR2	4	n/a	n/a	n/a	5	n/a	n/a	n/a	n/a
817522	DISTRACTOR	n/a	LTP376	ltpFR2	4	4	n/a	n/a	n/a	n/a	0	0	0
817532	PROB	n/a	LTP376	ltpFR2	4	n/a	n/a	n/a	5	11	5	4	2
822546	PROB	n/a	LTP376	ltpFR2	4	n/a	n/a	n/a	5	24	9	9	8
828494	PROB	n/a	LTP376	ltpFR2	4	n/a	n/a	n/a	5	7	1	5	1
830175	PROB	n/a	LTP376	ltpFR2	4	n/a	n/a	n/a	5	20	6	6	8
833458	PROB	n/a	LTP376	ltpFR2	4	n/a	n/a	n/a	5	15	3	4	8
837055	PROB	n/a	LTP376	ltpFR2	4	n/a	n/a	n/a	5	13	1	3	9
840398	STOP	n/a	LTP376	ltpFR2	4	n/a	n/a	n/a	5	n/a	n/a	n/a	n/a
842254	REC_START	n/a	LTP376	ltpFR2	4	4	n/a	n/a	n/a	n/a	0	0	0
843241	REC_WORD	wordpools/wasnorm_wordpool_576.txt	LTP376	ltpFR2	4	4	STOMACH	1384	n/a	n/a	0	0	0
844498	REC_WORD	wordpools/wasnorm_wordpool_576.txt	LTP376	ltpFR2	4	4	BACON	67	n/a	n/a	0	0	0
845897	REC_WORD	wordpools/wasnorm_wordpool_576.txt	LTP376	ltpFR2	4	4	BELLY	119	n/a	n/a	0	0	0
847135	REC_WORD	wordpools/wasnorm_wordpool_576.txt	LTP376	ltpFR2	4	4	JELLY	755	n/a	n/a	0	0	0
851904	REC_WORD	wordpools/wasnorm_wordpool_576.txt	LTP376	ltpFR2	4	4	ORANGE	980	n/a	n/a	0	0	0
853786	REC_WORD	wordpools/wasnorm_wordpool_576.txt	LTP376	ltpFR2	4	4	CITRUS	313	n/a	n/a	0	0	0
885581	REC_WORD	wordpools/wasnorm_wordpool_576.txt	LTP376	ltpFR2	4	4	LIZARD	834	n/a	n/a	0	0	0
887434	REC_WORD	wordpools/wasnorm_wordpool_576.txt	LTP376	ltpFR2	4	4	BEAST	108	n/a	n/a	0	0	0
1022988	WORD	wordpools/wasnorm_wordpool_576.txt	LTP376	ltpFR2	4	5	QUAIL	1147	n/a	n/a	0	0	0
1025704	WORD	wordpools/wasnorm_wordpool_576.txt	LTP376	ltpFR2	4	5	PIZZA	1079	n/a	n/a	0	0	0
1028152	WORD	wordpools/wasnorm_wordpool_576.txt	LTP376	ltpFR2	4	5	APPLE	33	n/a	n/a	0	0	0
1030769	WORD	wordpools/wasnorm_wordpool_576.txt	LTP376	ltpFR2	4	5	SHARK	1275	n/a	n/a	0	0	0
1033217	WORD	wordpools/wasnorm_wordpool_576.txt	LTP376	ltpFR2	4	5	KEEPER	769	n/a	n/a	0	0	0
1035883	WORD	wordpools/wasnorm_wordpool_576.txt	LTP376	ltpFR2	4	5	STAMP	1370	n/a	n/a	0	0	0
1038515	WORD	wordpools/wasnorm_wordpool_576.txt	LTP376	ltpFR2	4	5	RIFLE	1192	n/a	n/a	0	0	0
1041113	WORD	wordpools/wasnorm_wordpool_576.txt	LTP376	ltpFR2	4	5	PISTOL	1075	n/a	n/a	0	0	0
1043779	WORD	wordpools/wasnorm_wordpool_576.txt	LTP376	ltpFR2	4	5	SCALLOP	1242	n/a	n/a	0	0	0
1046411	WORD	wordpools/wasnorm_wordpool_576.txt	LTP376	ltpFR2	4	5	PADDLE	1000	n/a	n/a	0	0	0
1049076	WORD	wordpools/wasnorm_wordpool_576.txt	LTP376	ltpFR2	4	5	CASHEW	253	n/a	n/a	0	0	0
1051593	WORD	wordpools/wasnorm_wordpool_576.txt	LTP376	ltpFR2	4	5	CHEST	295	n/a	n/a	0	0	0
1054340	WORD	wordpools/wasnorm_wordpool_576.txt	LTP376	ltpFR2	4	5	BUTCHER	203	n/a	n/a	0	0	0
1056906	WORD	wordpools/wasnorm_wordpool_576.txt	LTP376	ltpFR2	4	5	BEAKER	104	n/a	n/a	0	0	0
1059722	WORD	wordpools/wasnorm_wordpool_576.txt	LTP376	ltpFR2	4	5	POCKET	1093	n/a	n/a	0	0	0
1062237	WORD	wordpools/wasnorm_wordpool_576.txt	LTP376	ltpFR2	4	5	ZIPPER	1636	n/a	n/a	0	0	0
1064870	WORD	wordpools/wasnorm_wordpool_576.txt	LTP376	ltpFR2	4	5	MOP	916	n/a	n/a	0	0	0
1067452	WORD	wordpools/wasnorm_wordpool_576.txt	LTP376	ltpFR2	4	5	VENUS	1557	n/a	n/a	0	0	0
1069983	WORD	wordpools/wasnorm_wordpool_576.txt	LTP376	ltpFR2	4	5	SCARECROW	1245	n/a	n/a	0	0	0
1072800	WORD	wordpools/wasnorm_wordpool_576.txt	LTP376	ltpFR2	4	5	HOOK	715	n/a	n/a	0	0	0
1075248	WORD	wordpools/wasnorm_wordpool_576.txt	LTP376	ltpFR2	4	5	MARKER	870	n/a	n/a	0	0	0
1077946	WORD	wordpools/wasnorm_wordpool_576.txt	LTP376	ltpFR2	4	5	GRAVE	658	n/a	n/a	0	0	0
1080480	WORD	wordpools/wasnorm_wordpool_576.txt	LTP376	ltpFR2	4	5	PEACH	1031	n/a	n/a	0	0	0
1083227	WORD	wordpools/wasnorm_wordpool_576.txt	LTP376	ltpFR2	4	5	ANKLE	24	n/a	n/a	0	0	0
1084844	START	n/a	LTP376	ltpFR2	4	n/a	n/a	n/a	6	n/a	n/a	n/a	n/a
1085952	DISTRACTOR	n/a	LTP376	ltpFR2	4	5	n/a	n/a	n/a	n/a	0	0	0
1085959	PROB	n/a	LTP376	ltpFR2	4	n/a	n/a	n/a	6	9	6	1	2
1088459	PROB	n/a	LTP376	ltpFR2	4	n/a	n/a	n/a	6	14	6	5	3
1091390	PROB	n/a	LTP376	ltpFR2	4	n/a	n/a	n/a	6	15	4	9	2
1093873	PROB	n/a	LTP376	ltpFR2	4	n/a	n/a	n/a	6	13	2	2	9
1095756	PROB	n/a	LTP376	ltpFR2	4	n/a	n/a	n/a	6	14	3	2	9
1098337	PROB	n/a	LTP376	ltpFR2	4	n/a	n/a	n/a	6	20	9	7	4
1102302	PROB	n/a	LTP376	ltpFR2	4	n/a	n/a	n/a	6	16	5	4	7
1105735	PROB	n/a	LTP376	ltpFR2	4	n/a	n/a	n/a	6	7	1	5	1
1107333	PROB	n/a	LTP376	ltpFR2	4	n/a	n/a	n/a	6	11	1	2	8
1108716	STOP	n/a	LTP376	ltpFR2	4	n/a	n/a	n/a	6	n/a	n/a	n/a	n/a
1110616	REC_START	n/a	LTP376	ltpFR2	4	5	n/a	n/a	n/a	n/a	0	0	0
1112057	REC_WORD	wordpools/wasnorm_wordpool_576.txt	LTP376	ltpFR2	4	5	QUAIL	1147	n/a	n/a	0	0	0
1113039	REC_WORD	wordpools/wasnorm_wordpool_576.txt	LTP376	ltpFR2	4	5	SHARK	1275	n/a	n/a	0	0	0
1115486	REC_WORD	wordpools/wasnorm_wordpool_576.txt	LTP376	ltpFR2	4	5	RIFLE	1192	n/a	n/a	0	0	0
1116712	REC_WORD	wordpools/wasnorm_wordpool_576.txt	LTP376	ltpFR2	4	5	PISTOL	1075	n/a	n/a	0	0	0
1118516	REC_WORD	wordpools/wasnorm_wordpool_576.txt	LTP376	ltpFR2	4	5	PIZZA	1079	n/a	n/a	0	0	0
1120420	REC_WORD	wordpools/wasnorm_wordpool_576.txt	LTP376	ltpFR2	4	5	APPLE	33	n/a	n/a	0	0	0
1122506	REC_WORD	wordpools/wasnorm_wordpool_576.txt	LTP376	ltpFR2	4	5	CASHEW	253	n/a	n/a	0	0	0
1124789	REC_WORD	wordpools/wasnorm_wordpool_576.txt	LTP376	ltpFR2	4	5	VENUS	1557	n/a	n/a	0	0	0
1127256	REC_WORD	wordpools/wasnorm_wordpool_576.txt	LTP376	ltpFR2	4	5	SCARECROW	1245	n/a	n/a	0	0	0
1128256	REC_WORD_VV	wordpools/wasnorm_wordpool_576.txt	LTP376	ltpFR2	4	5	<>	-1	n/a	n/a	0	0	0
1135799	REC_WORD	wordpools/wasnorm_wordpool_576.txt	LTP376	ltpFR2	4	5	KEEPER	769	n/a	n/a	0	0	0
1230645	WORD	wordpools/wasnorm_wordpool_576.txt	LTP376	ltpFR2	4	6	FLIPPER	580	n/a	n/a	0	0	0
1233093	WORD	wordpools/wasnorm_wordpool_576.txt	LTP376	ltpFR2	4	6	AGENT	10	n/a	n/a	0	0	0
1235908	WORD	wordpools/wasnorm_wordpool_576.txt	LTP376	ltpFR2	4	6	CRITIC	410	n/a	n/a	0	0	0
1238641	WORD	wordpools/wasnorm_wordpool_576.txt	LTP376	ltpFR2	4	6	SERVER	1272	n/a	n/a	0	0	0
1241356	WORD	wordpools/wasnorm_wordpool_576.txt	LTP376	ltpFR2	4	6	CUSTARD	429	n/a	n/a	0	0	0
1244121	WORD	wordpools/wasnorm_wordpool_576.txt	LTP376	ltpFR2	4	6	LAPEL	800	n/a	n/a	0	0	0
1246688	WORD	wordpools/wasnorm_wordpool_576.txt	LTP376	ltpFR2	4	6	DAISY	435	n/a	n/a	0	0	0
1249503	WORD	wordpools/wasnorm_wordpool_576.txt	LTP376	ltpFR2	4	6	STALLION	1369	n/a	n/a	0	0	0
1252301	WORD	wordpools/wasnorm_wordpool_576.txt	LTP376	ltpFR2	4	6	COD	340	n/a	n/a	0	0	0
1254801	WORD	wordpools/wasnorm_wordpool_576.txt	LTP376	ltpFR2	4	6	CAMEL	223	n/a	n/a	0	0	0
1257633	WORD	wordpools/wasnorm_wordpool_576.txt	LTP376	ltpFR2	4	6	BRACES	164	n/a	n/a	0	0	0
1260414	WORD	wordpools/wasnorm_wordpool_576.txt	LTP376	ltpFR2	4	6	FIREMAN	569	n/a	n/a	0	0	0
1263062	WORD	wordpools/wasnorm_wordpool_576.txt	LTP376	ltpFR2	4	6	DRILL	497	n/a	n/a	0	0	0
1265862	WORD	wordpools/wasnorm_wordpool_576.txt	LTP376	ltpFR2	4	6	SOFTBALL	1343	n/a	n/a	0	0	0
1268410	WORD	wordpools/wasnorm_wordpool_576.txt	LTP376	ltpFR2	4	6	UMPIRE	1535	n/a	n/a	0	0	0
1270976	WORD	wordpools/wasnorm_wordpool_576.txt	LTP376	ltpFR2	4	6	OUTFIT	988	n/a	n/a	0	0	0
1273475	WORD	wordpools/wasnorm_wordpool_576.txt	LTP376	ltpFR2	4	6	PEBBLE	1035	n/a	n/a	0	0	0
1276257	WORD	wordpools/wasnorm_wordpool_576.txt	LTP376	ltpFR2	4	6	COOKBOOK	373	n/a	n/a	0	0	0
1278922	WORD	wordpools/wasnorm_wordpool_576.txt	LTP376	ltpFR2	4	6	CASHIER	254	n/a	n/a	0	0	0
1281438	WORD	wordpools/wasnorm_wordpool_576.txt	LTP376	ltpFR2	4	6	RECEIPT	1173	n/a	n/a	0	0	0
1283936	WORD	wordpools/wasnorm_wordpool_576.txt	LTP376	ltpFR2	4	6	PUDDING	1139	n/a	n/a	0	0	0
1286703	WORD	wordpools/wasnorm_wordpool_576.txt	LTP376	ltpFR2	4	6	ELBOW	520	n/a	n/a	0	0	0
1289267	WORD	wordpools/wasnorm_wordpool_576.txt	LTP376	ltpFR2	4	6	JUDGE	761	n/a	n/a	0	0	0
1291717	WORD	wordpools/wasnorm_wordpool_576.txt	LTP376	ltpFR2	4	6	OMELET	976	n/a	n/a	0	0	0
1293332	START	n/a	LTP376	ltpFR2	4	n/a	n/a	n/a	7	n/a	n/a	n/a	n/a
1294160	DISTRACTOR	n/a	LTP376	ltpFR2	4	6	n/a	n/a	n/a	n/a	0	0	0
1294165	PROB	n/a	LTP376	ltpFR2	4	n/a	n/a	n/a	7	13	9	1	3
1296381	PROB	n/a	LTP376	ltpFR2	4	n/a	n/a	n/a	7	26	7	7	8
1299464	PROB	n/a	LTP376	ltpFR2	4	n/a	n/a	n/a	7	25	9	8	8
1303178	PROB	n/a	LTP376	ltpFR2	4	n/a	n/a	n/a	7	18	7	6	5
1310208	PROB	n/a	LTP376	ltpFR2	4	n/a	n/a	n/a	7	11	2	7	2
1312423	PROB	n/a	LTP376	ltpFR2	4	n/a	n/a	n/a	7	19	4	6	9
1316466	STOP	n/a	LTP376	ltpFR2	4	n/a	n/a	n/a	7	n/a	n/a	n/a	n/a
1319204	REC_START	n/a	LTP376	ltpFR2	4	6	n/a	n/a	n/a	n/a	0	0	0
1320625	REC_WORD	wordpools/wasnorm_wordpool_576.txt	LTP376	ltpFR2	4	6	OMELET	976	n/a	n/a	0	0	0
1322188	REC_WORD	wordpools/wasnorm_wordpool_576.txt	LTP376	ltpFR2	4	6	BRACES	164	n/a	n/a	0	0	0
1323188	REC_WORD_VV	wordpools/wasnorm_wordpool_576.txt	LTP376	ltpFR2	4	6	<>	-1	n/a	n/a	0	0	0
1323973	REC_WORD	wordpools/wasnorm_wordpool_576.txt	LTP376	ltpFR2	4	6	JUDGE	761	n/a	n/a	0	0	0
1325860	REC_WORD	wordpools/wasnorm_wordpool_576.txt	LTP376	ltpFR2	4	6	FIREMAN	569	n/a	n/a	0	0	0
1327890	REC_WORD	wordpools/wasnorm_wordpool_576.txt	LTP376	ltpFR2	4	6	PEBBLE	1035	n/a	n/a	0	0	0
1333642	REC_WORD	wordpools/wasnorm_wordpool_576.txt	LTP376	ltpFR2	4	6	CASHIER	254	n/a	n/a	0	0	0
1335317	REC_WORD	wordpools/wasnorm_wordpool_576.txt	LTP376	ltpFR2	4	6	RECEIPT	1173	n/a	n/a	0	0	0
1356052	REC_WORD	wordpools/wasnorm_wordpool_576.txt	LTP376	ltpFR2	4	6	UMPIRE	1535	n/a	n/a	0	0	0
1363396	REC_WORD	wordpools/wasnorm_wordpool_576.txt	LTP376	ltpFR2	4	6	CUSTARD	429	n/a	n/a	0	0	0
1424923	DISTRACTOR	n/a	LTP376	ltpFR2	4	7	n/a	n/a	n/a	n/a	0	0	0
1424923	START	n/a	LTP376	ltpFR2	4	n/a	n/a	n/a	8	n/a	n/a	n/a	n/a
1424939	PROB	n/a	LTP376	ltpFR2	4	n/a	n/a	n/a	8	16	6	8	2
1427055	PROB	n/a	LTP376	ltpFR2	4	n/a	n/a	n/a	8	13	6	4	3
1428705	PROB	n/a	LTP376	ltpFR2	4	n/a	n/a	n/a	8	25	7	8	8
1432687	PROB	n/a	LTP376	ltpFR2	4	n/a	n/a	n/a	8	19	6	4	9
1435018	PROB	n/a	LTP376	ltpFR2	4	n/a	n/a	n/a	8	13	3	5	5
1437684	PROB	n/a	LTP376	ltpFR2	4	n/a	n/a	n/a	8	12	1	5	6
1440716	PROB	n/a	LTP376	ltpFR2	4	n/a	n/a	n/a	8	11	6	3	2
1443031	PROB	n/a	LTP376	ltpFR2	4	n/a	n/a	n/a	8	12	6	5	1
1448923	STOP	n/a	LTP376	ltpFR2	4	n/a	n/a	n/a	8	n/a	n/a	n/a	n/a
1449928	WORD	wordpools/wasnorm_wordpool_576.txt	LTP376	ltpFR2	4	7	COUSIN	392	n/a	n/a	0	0	0
1452377	WORD	wordpools/wasnorm_wordpool_576.txt	LTP376	ltpFR2	4	7	ONION	977	n/a	n/a	0	0	0
1454926	WORD	wordpools/wasnorm_wordpool_576.txt	LTP376	ltpFR2	4	7	PARTNER	1017	n/a	n/a	0	0	0
1457358	WORD	wordpools/wasnorm_wordpool_576.txt	LTP376	ltpFR2	4	7	YOLK	1633	n/a	n/a	0	0	0
1459824	WORD	wordpools/wasnorm_wordpool_576.txt	LTP376	ltpFR2	4	7	BUREAU	199	n/a	n/a	0	0	0
1462607	WORD	wordpools/wasnorm_wordpool_576.txt	LTP376	ltpFR2	4	7	SNAKE	1333	n/a	n/a	0	0	0
1465204	WORD	wordpools/wasnorm_wordpool_576.txt	LTP376	ltpFR2	4	7	FRIAR	605	n/a	n/a	0	0	0
1468020	WORD	wordpools/wasnorm_wordpool_576.txt	LTP376	ltpFR2	4	7	CRIB	407	n/a	n/a	0	0	0
1470836	WORD	wordpools/wasnorm_wordpool_576.txt	LTP376	ltpFR2	4	7	BUGGY	188	n/a	n/a	0	0	0
1473401	WORD	wordpools/wasnorm_wordpool_576.txt	LTP376	ltpFR2	4	7	PARENT	1013	n/a	n/a	0	0	0
1475834	WORD	wordpools/wasnorm_wordpool_576.txt	LTP376	ltpFR2	4	7	WORLD	1622	n/a	n/a	0	0	0
1478282	WORD	wordpools/wasnorm_wordpool_576.txt	LTP376	ltpFR2	4	7	NAPKIN	937	n/a	n/a	0	0	0
1480947	WORD	wordpools/wasnorm_wordpool_576.txt	LTP376	ltpFR2	4	7	CHURCH	307	n/a	n/a	0	0	0
1483446	WORD	wordpools/wasnorm_wordpool_576.txt	LTP376	ltpFR2	4	7	HUSBAND	728	n/a	n/a	0	0	0
1486145	WORD	wordpools/wasnorm_wordpool_576.txt	LTP376	ltpFR2	4	7	WARDROBE	1587	n/a	n/a	0	0	0
1488960	WORD	wordpools/wasnorm_wordpool_576.txt	LTP376	ltpFR2	4	7	INFANT	737	n/a	n/a	0	0	0
1491409	WORD	wordpools/wasnorm_wordpool_576.txt	LTP376	ltpFR2	4	7	BLADE	134	n/a	n/a	0	0	0
1494191	WORD	wordpools/wasnorm_wordpool_576.txt	LTP376	ltpFR2	4	7	SNACK	1331	n/a	n/a	0	0	0
1496658	WORD	wordpools/wasnorm_wordpool_576.txt	LTP376	ltpFR2	4	7	BLOCKADE	137	n/a	n/a	0	0	0
1499272	WORD	wordpools/wasnorm_wordpool_576.txt	LTP376	ltpFR2	4	7	BALLOON	75	n/a	n/a	0	0	0
1501889	WORD	wordpools/wasnorm_wordpool_576.txt	LTP376	ltpFR2	4	7	OZONE	996	n/a	n/a	0	0	0
1504370	WORD	wordpools/wasnorm_wordpool_576.txt	LTP376	ltpFR2	4	7	FIREPLACE	570	n/a	n/a	0	0	0
1506985	WORD	wordpools/wasnorm_wordpool_576.txt	LTP376	ltpFR2	4	7	DRAGON	492	n/a	n/a	0	0	0
1509718	WORD	wordpools/wasnorm_wordpool_576.txt	LTP376	ltpFR2	4	7	COBRA	336	n/a	n/a	0	0	0
1511334	START	n/a	LTP376	ltpFR2	4	n/a	n/a	n/a	9	n/a	n/a	n/a	n/a
1512155	DISTRACTOR	n/a	LTP376	ltpFR2	4	7	n/a	n/a	n/a	n/a	0	0	0
1512166	PROB	n/a	LTP376	ltpFR2	4	n/a	n/a	n/a	9	16	3	7	6
1514449	PROB	n/a	LTP376	ltpFR2	4	n/a	n/a	n/a	9	18	8	5	5
1516682	PROB	n/a	LTP376	ltpFR2	4	n/a	n/a	n/a	9	20	6	5	7
1521696	PROB	n/a	LTP376	ltpFR2	4	n/a	n/a	n/a	9	14	3	7	4
1524294	PROB	n/a	LTP376	ltpFR2	4	n/a	n/a	n/a	9	9	2	4	3
1529209	PROB	n/a	LTP376	ltpFR2	4	n/a	n/a	n/a	9	16	9	3	4
1532525	PROB	n/a	LTP376	ltpFR2	4	n/a	n/a	n/a	9	10	1	3	6
1535184	STOP	n/a	LTP376	ltpFR2	4	n/a	n/a	n/a	9	n/a	n/a	n/a	n/a
1537172	REC_START	n/a	LTP376	ltpFR2	4	7	n/a	n/a	n/a	n/a	0	0	0
1539093	REC_WORD	wordpools/wasnorm_wordpool_576.txt	LTP376	ltpFR2	4	7	OMELET	976	n/a	n/a	0	0	0
1540211	REC_WORD	wordpools/wasnorm_wordpool_576.txt	LTP376	ltpFR2	4	7	ONION	977	n/a	n/a	0	0	0
1541446	REC_WORD	wordpools/wasnorm_wordpool_576.txt	LTP376	ltpFR2	4	7	PARENT	1013	n/a	n/a	0	0	0
1543096	REC_WORD	wordpools/wasnorm_wordpool_576.txt	LTP376	ltpFR2	4	7	PARTNER	1017	n/a	n/a	0	0	0
1545074	REC_WORD	wordpools/wasnorm_wordpool_576.txt	LTP376	ltpFR2	4	7	COUSIN	392	n/a	n/a	0	0	0
1547867	REC_WORD	wordpools/wasnorm_wordpool_576.txt	LTP376	ltpFR2	4	7	INFANT	737	n/a	n/a	0	0	0
1549852	REC_WORD	wordpools/wasnorm_wordpool_576.txt	LTP376	ltpFR2	4	7	CARRIAGE	248	n/a	n/a	0	0	0
1577048	REC_WORD	wordpools/wasnorm_wordpool_576.txt	LTP376	ltpFR2	4	7	SNAKE	1333	n/a	n/a	0	0	0
1627615	WORD	wordpools/wasnorm_wordpool_576.txt	LTP376	ltpFR2	4	8	BEAVER	109	n/a	n/a	0	0	0
1630396	WORD	wordpools/wasnorm_wordpool_576.txt	LTP376	ltpFR2	4	8	MEDAL	885	n/a	n/a	0	0	0
1632912	WORD	wordpools/wasnorm_wordpool_576.txt	LTP376	ltpFR2	4	8	FINGER	567	n/a	n/a	0	0	0
1635545	WORD	wordpools/wasnorm_wordpool_576.txt	LTP376	ltpFR2	4	8	GOBLIN	645	n/a	n/a	0	0	0
1638193	WORD	wordpools/wasnorm_wordpool_576.txt	LTP376	ltpFR2	4	8	CHAPEL	280	n/a	n/a	0	0	0
1640626	WORD	wordpools/wasnorm_wordpool_576.txt	LTP376	ltpFR2	4	8	BANKER	84	n/a	n/a	0	0	0
1643057	WORD	wordpools/wasnorm_wordpool_576.txt	LTP376	ltpFR2	4	8	THREAD	1460	n/a	n/a	0	0	0
1645490	WORD	wordpools/wasnorm_wordpool_576.txt	LTP376	ltpFR2	4	8	GAVEL	627	n/a	n/a	0	0	0
1648305	WORD	wordpools/wasnorm_wordpool_576.txt	LTP376	ltpFR2	4	8	ICING	732	n/a	n/a	0	0	0
1650755	WORD	wordpools/wasnorm_wordpool_576.txt	LTP376	ltpFR2	4	8	THIEF	1456	n/a	n/a	0	0	0
1653202	WORD	wordpools/wasnorm_wordpool_576.txt	LTP376	ltpFR2	4	8	CARRIAGE	248	n/a	n/a	0	0	0
1655669	WORD	wordpools/wasnorm_wordpool_576.txt	LTP376	ltpFR2	4	8	RATTLE	1170	n/a	n/a	0	0	0
1658217	WORD	wordpools/wasnorm_wordpool_576.txt	LTP376	ltpFR2	4	8	SANDWICH	1232	n/a	n/a	0	0	0
1660949	WORD	wordpools/wasnorm_wordpool_576.txt	LTP376	ltpFR2	4	8	DRESS	495	n/a	n/a	0	0	0
1663532	WORD	wordpools/wasnorm_wordpool_576.txt	LTP376	ltpFR2	4	8	POPCORN	1104	n/a	n/a	0	0	0
1666147	WORD	wordpools/wasnorm_wordpool_576.txt	LTP376	ltpFR2	4	8	ACTRESS	6	n/a	n/a	0	0	0
1668596	WORD	wordpools/wasnorm_wordpool_576.txt	LTP376	ltpFR2	4	8	SODA	1341	n/a	n/a	0	0	0
1671411	WORD	wordpools/wasnorm_wordpool_576.txt	LTP376	ltpFR2	4	8	YARN	1631	n/a	n/a	0	0	0
1674193	WORD	wordpools/wasnorm_wordpool_576.txt	LTP376	ltpFR2	4	8	SEAGULL	1261	n/a	n/a	0	0	0
1676942	WORD	wordpools/wasnorm_wordpool_576.txt	LTP376	ltpFR2	4	8	STUDENT	1395	n/a	n/a	0	0	0
1679458	WORD	wordpools/wasnorm_wordpool_576.txt	LTP376	ltpFR2	4	8	HONEY	713	n/a	n/a	0	0	0
1681989	WORD	wordpools/wasnorm_wordpool_576.txt	LTP376	ltpFR2	4	8	WASP	1593	n/a	n/a	0	0	0
1684506	WORD	wordpools/wasnorm_wordpool_576.txt	LTP376	ltpFR2	4	8	SHIRT	1287	n/a	n/a	0	0	0
1687087	WORD	wordpools/wasnorm_wordpool_576.txt	LTP376	ltpFR2	4	8	WAITER	1580	n/a	n/a	0	0	0
1688704	START	n/a	LTP376	ltpFR2	4	n/a	n/a	n/a	10	n/a	n/a	n/a	n/a
1689655	DISTRACTOR	n/a	LTP376	ltpFR2	4	8	n/a	n/a	n/a	n/a	0	0	0
1689670	PROB	n/a	LTP376	ltpFR2	4	n/a	n/a	n/a	10	15	5	5	5
1691503	PROB	n/a	LTP376	ltpFR2	4	n/a	n/a	n/a	10	9	1	3	5
1694200	PROB	n/a	LTP376	ltpFR2	4	n/a	n/a	n/a	10	16	6	9	1
1696016	PROB	n/a	LTP376	ltpFR2	4	n/a	n/a	n/a	10	11	7	1	3
1697667	PROB	n/a	LTP376	ltpFR2	4	n/a	n/a	n/a	10	24	6	1	7
1701914	PROB	n/a	LTP376	ltpFR2	4	n/a	n/a	n/a	10	23	9	7	7
1707411	PROB	n/a	LTP376	ltpFR2	4	n/a	n/a	n/a	10	14	7	2	5
1712704	STOP	n/a	LTP376	ltpFR2	4	n/a	n/a	n/a	10	n/a	n/a	n/a	n/a
1714576	REC_START	n/a	LTP376	ltpFR2	4	8	n/a	n/a	n/a	n/a	0	0	0
1716432	REC_WORD	wordpools/wasnorm_wordpool_576.txt	LTP376	ltpFR2	4	8	BANKER	84	n/a	n/a	0	0	0
1718124	REC_WORD	wordpools/wasnorm_wordpool_576.txt	LTP376	ltpFR2	4	8	GOBLIN	645	n/a	n/a	0	0	0
1724305	REC_WORD	wordpools/wasnorm_wordpool_576.txt	LTP376	ltpFR2	4	8	ACTOR	5	n/a	n/a	0	0	0
1726583	REC_WORD	wordpools/wasnorm_wordpool_576.txt	LTP376	ltpFR2	4	8	GAVEL	627	n/a	n/a	0	0	0
1728863	REC_WORD	wordpools/wasnorm_wordpool_576.txt	LTP376	ltpFR2	4	8	POPCORN	1104	n/a	n/a	0	0	0
1731496	REC_WORD	wordpools/wasnorm_wordpool_576.txt	LTP376	ltpFR2	4	8	SODA	1341	n/a	n/a	0	0	0
1733517	REC_WORD	wordpools/wasnorm_wordpool_576.txt	LTP376	ltpFR2	4	8	HONEY	713	n/a	n/a	0	0	0
1735761	REC_WORD	wordpools/wasnorm_wordpool_576.txt	LTP376	ltpFR2	4	8	CARRIAGE	248	n/a	n/a	0	0	0
1791107	REST_REWET	n/a	LTP376	ltpFR2	4	8	n/a	n/a	n/a	n/a	0	0	0
1949385	DISTRACTOR	n/a	LTP376	ltpFR2	4	9	n/a	n/a	n/a	n/a	0	0	0
1949385	START	n/a	LTP376	ltpFR2	4	n/a	n/a	n/a	11	n/a	n/a	n/a	n/a
1949401	PROB	n/a	LTP376	ltpFR2	4	n/a	n/a	n/a	11	13	6	1	6
1951535	PROB	n/a	LTP376	ltpFR2	4	n/a	n/a	n/a	11	13	2	2	9
1953949	PROB	n/a	LTP376	ltpFR2	4	n/a	n/a	n/a	11	14	4	7	3
1955432	PROB	n/a	LTP376	ltpFR2	4	n/a	n/a	n/a	11	13	3	8	2
1957882	PROB	n/a	LTP376	ltpFR2	4	n/a	n/a	n/a	11	17	9	4	4
1962146	PROB	n/a	LTP376	ltpFR2	4	n/a	n/a	n/a	11	17	9	7	1
1966294	PROB	n/a	LTP376	ltpFR2	4	n/a	n/a	n/a	11	18	9	8	1
1968943	PROB	n/a	LTP376	ltpFR2	4	n/a	n/a	n/a	11	10	4	2	4
1972502	STOP	n/a	LTP376	ltpFR2	4	n/a	n/a	n/a	11	n/a	n/a	n/a	n/a
1974357	WORD	wordpools/wasnorm_wordpool_576.txt	LTP376	ltpFR2	4	9	BUCKET	184	n/a	n/a	0	0	0
1977072	WORD	wordpools/wasnorm_wordpool_576.txt	LTP376	ltpFR2	4	9	NOTEBOOK	959	n/a	n/a	0	0	0
1979789	WORD	wordpools/wasnorm_wordpool_576.txt	LTP376	ltpFR2	4	9	NECKLACE	940	n/a	n/a	0	0	0
1982554	WORD	wordpools/wasnorm_wordpool_576.txt	LTP376	ltpFR2	4	9	LABEL	790	n/a	n/a	0	0	0
1985302	WORD	wordpools/wasnorm_wordpool_576.txt	LTP376	ltpFR2	4	9	MAMMAL	861	n/a	n/a	0	0	0
1988001	WORD	wordpools/wasnorm_wordpool_576.txt	LTP376	ltpFR2	4	9	SERVANT	1271	n/a	n/a	0	0	0
1990433	WORD	wordpools/wasnorm_wordpool_576.txt	LTP376	ltpFR2	4	9	WAITRESS	1581	n/a	n/a	0	0	0
1993248	WORD	wordpools/wasnorm_wordpool_576.txt	LTP376	ltpFR2	4	9	LILY	821	n/a	n/a	0	0	0
1995748	WORD	wordpools/wasnorm_wordpool_576.txt	LTP376	ltpFR2	4	9	BOX	159	n/a	n/a	0	0	0
1998530	WORD	wordpools/wasnorm_wordpool_576.txt	LTP376	ltpFR2	4	9	STREAM	1392	n/a	n/a	0	0	0
2001195	WORD	wordpools/wasnorm_wordpool_576.txt	LTP376	ltpFR2	4	9	TUBA	1515	n/a	n/a	0	0	0
2003910	WORD	wordpools/wasnorm_wordpool_576.txt	LTP376	ltpFR2	4	9	HEADBAND	696	n/a	n/a	0	0	0
2006543	WORD	wordpools/wasnorm_wordpool_576.txt	LTP376	ltpFR2	4	9	BLOUSE	139	n/a	n/a	0	0	0
2009358	WORD	wordpools/wasnorm_wordpool_576.txt	LTP376	ltpFR2	4	9	AUTHOR	61	n/a	n/a	0	0	0
2011973	WORD	wordpools/wasnorm_wordpool_576.txt	LTP376	ltpFR2	4	9	HIGHWAY	707	n/a	n/a	0	0	0
2014773	WORD	wordpools/wasnorm_wordpool_576.txt	LTP376	ltpFR2	4	9	VIRUS	1572	n/a	n/a	0	0	0
2017387	WORD	wordpools/wasnorm_wordpool_576.txt	LTP376	ltpFR2	4	9	SHORTCAKE	1292	n/a	n/a	0	0	0
2020119	WORD	wordpools/wasnorm_wordpool_576.txt	LTP376	ltpFR2	4	9	FRUIT	610	n/a	n/a	0	0	0
2022569	WORD	wordpools/wasnorm_wordpool_576.txt	LTP376	ltpFR2	4	9	RECORD	1176	n/a	n/a	0	0	0
2025384	WORD	wordpools/wasnorm_wordpool_576.txt	LTP376	ltpFR2	4	9	FRANCE	601	n/a	n/a	0	0	0
2027850	WORD	wordpools/wasnorm_wordpool_576.txt	LTP376	ltpFR2	4	9	PUDDLE	1140	n/a	n/a	0	0	0
2030682	WORD	wordpools/wasnorm_wordpool_576.txt	LTP376	ltpFR2	4	9	SUPPER	1411	n/a	n/a	0	0	0
2033347	WORD	wordpools/wasnorm_wordpool_576.txt	LTP376	ltpFR2	4	9	CLOCK	325	n/a	n/a	0	0	0
2035797	WORD	wordpools/wasnorm_wordpool_576.txt	LTP376	ltpFR2	4	9	CANAL	226	n/a	n/a	0	0	0
2037412	START	n/a	LTP376	ltpFR2	4	n/a	n/a	n/a	12	n/a	n/a	n/a	n/a
2038455	DISTRACTOR	n/a	LTP376	ltpFR2	4	9	n/a	n/a	n/a	n/a	0	0	0
2038462	PROB	n/a	LTP376	ltpFR2	4	n/a	n/a	n/a	12	16	1	6	9
2040344	PROB	n/a	LTP376	ltpFR2	4	n/a	n/a	n/a	12	16	5	5	6
2041827	PROB	n/a	LTP376	ltpFR2	4	n/a	n/a	n/a	12	10	1	2	7
2043392	PROB	n/a	LTP376	ltpFR2	4	n/a	n/a	n/a	12	11	4	4	3
2046091	PROB	n/a	LTP376	ltpFR2	4	n/a	n/a	n/a	12	9	2	4	3
2049707	PROB	n/a	LTP376	ltpFR2	4	n/a	n/a	n/a	12	20	9	9	2
2052138	PROB	n/a	LTP376	ltpFR2	4	n/a	n/a	n/a	12	17	8	7	2
2056236	PROB	n/a	LTP376	ltpFR2	4	n/a	n/a	n/a	12	19	9	7	3
2059235	PROB	n/a	LTP376	ltpFR2	4	n/a	n/a	n/a	12	16	2	6	8
2061007	STOP	n/a	LTP376	ltpFR2	4	n/a	n/a	n/a	12	n/a	n/a	n/a	n/a
2063250	REC_START	n/a	LTP376	ltpFR2	4	9	n/a	n/a	n/a	n/a	0	0	0
2064654	REC_WORD	wordpools/wasnorm_wordpool_576.txt	LTP376	ltpFR2	4	9	PUDDLE	1140	n/a	n/a	0	0	0
2065994	REC_WORD	wordpools/wasnorm_wordpool_576.txt	LTP376	ltpFR2	4	9	AUTHOR	61	n/a	n/a	0	0	0
2067853	REC_WORD	wordpools/wasnorm_wordpool_576.txt	LTP376	ltpFR2	4	9	WAITRESS	1581	n/a	n/a	0	0	0
2070004	REC_WORD	wordpools/wasnorm_wordpool_576.txt	LTP376	ltpFR2	4	9	LILY	821	n/a	n/a	0	0	0
2076509	REC_WORD	wordpools/wasnorm_wordpool_576.txt	LTP376	ltpFR2	4	9	BLOUSE	139	n/a	n/a	0	0	0
2094330	REC_WORD	wordpools/wasnorm_wordpool_576.txt	LTP376	ltpFR2	4	9	VIRUS	1572	n/a	n/a	0	0	0
2153693	WORD	wordpools/wasnorm_wordpool_576.txt	LTP376	ltpFR2	4	10	APRON	35	n/a	n/a	0	0	0
2156158	WORD	wordpools/wasnorm_wordpool_576.txt	LTP376	ltpFR2	4	10	CRAB	397	n/a	n/a	0	0	0
2158791	WORD	wordpools/wasnorm_wordpool_576.txt	LTP376	ltpFR2	4	10	FRAME	600	n/a	n/a	0	0	0
2161590	WORD	wordpools/wasnorm_wordpool_576.txt	LTP376	ltpFR2	4	10	HUMAN	726	n/a	n/a	0	0	0
2164221	WORD	wordpools/wasnorm_wordpool_576.txt	LTP376	ltpFR2	4	10	PASTRY	1022	n/a	n/a	0	0	0
2166903	WORD	wordpools/wasnorm_wordpool_576.txt	LTP376	ltpFR2	4	10	CANDY	230	n/a	n/a	0	0	0
2169352	WORD	wordpools/wasnorm_wordpool_576.txt	LTP376	ltpFR2	4	10	CRICKET	408	n/a	n/a	0	0	0
2171785	WORD	wordpools/wasnorm_wordpool_576.txt	LTP376	ltpFR2	4	10	CONTRACT	368	n/a	n/a	0	0	0
2174350	WORD	wordpools/wasnorm_wordpool_576.txt	LTP376	ltpFR2	4	10	PRINCE	1124	n/a	n/a	0	0	0
2177098	WORD	wordpools/wasnorm_wordpool_576.txt	LTP376	ltpFR2	4	10	BANK	83	n/a	n/a	0	0	0
2179748	WORD	wordpools/wasnorm_wordpool_576.txt	LTP376	ltpFR2	4	10	STONE	1385	n/a	n/a	0	0	0
2182213	WORD	wordpools/wasnorm_wordpool_576.txt	LTP376	ltpFR2	4	10	NURSE	963	n/a	n/a	0	0	0
2184863	WORD	wordpools/wasnorm_wordpool_576.txt	LTP376	ltpFR2	4	10	TABLET	1427	n/a	n/a	0	0	0
2187595	WORD	wordpools/wasnorm_wordpool_576.txt	LTP376	ltpFR2	4	10	PLASTER	1085	n/a	n/a	0	0	0
2190109	WORD	wordpools/wasnorm_wordpool_576.txt	LTP376	ltpFR2	4	10	SLIME	1327	n/a	n/a	0	0	0
2192726	WORD	wordpools/wasnorm_wordpool_576.txt	LTP376	ltpFR2	4	10	MATCH	878	n/a	n/a	0	0	0
2195157	WORD	wordpools/wasnorm_wordpool_576.txt	LTP376	ltpFR2	4	10	SLIDE	1326	n/a	n/a	0	0	0
2197723	WORD	wordpools/wasnorm_wordpool_576.txt	LTP376	ltpFR2	4	10	SCALPEL	1243	n/a	n/a	0	0	0
2200489	WORD	wordpools/wasnorm_wordpool_576.txt	LTP376	ltpFR2	4	10	KIDNEY	776	n/a	n/a	0	0	0
2203237	WORD	wordpools/wasnorm_wordpool_576.txt	LTP376	ltpFR2	4	10	TEMPLE	1448	n/a	n/a	0	0	0
2205853	WORD	wordpools/wasnorm_wordpool_576.txt	LTP376	ltpFR2	4	10	SALMON	1227	n/a	n/a	0	0	0
2208618	WORD	wordpools/wasnorm_wordpool_576.txt	LTP376	ltpFR2	4	10	SUITCASE	1403	n/a	n/a	0	0	0
2211150	WORD	wordpools/wasnorm_wordpool_576.txt	LTP376	ltpFR2	4	10	LUGGAGE	847	n/a	n/a	0	0	0
2213799	WORD	wordpools/wasnorm_wordpool_576.txt	LTP376	ltpFR2	4	10	CLAMP	316	n/a	n/a	0	0	0
2215415	START	n/a	LTP376	ltpFR2	4	n/a	n/a	n/a	13	n/a	n/a	n/a	n/a
2216613	DISTRACTOR	n/a	LTP376	ltpFR2	4	10	n/a	n/a	n/a	n/a	0	0	0
2216615	PROB	n/a	LTP376	ltpFR2	4	n/a	n/a	n/a	13	15	8	2	5
2218647	PROB	n/a	LTP376	ltpFR2	4	n/a	n/a	n/a	13	14	4	3	7
2220046	PROB	n/a	LTP376	ltpFR2	4	n/a	n/a	n/a	13	16	4	5	7
2223444	PROB	n/a	LTP376	ltpFR2	4	n/a	n/a	n/a	13	19	3	8	8
2225727	PROB	n/a	LTP376	ltpFR2	4	n/a	n/a	n/a	13	18	8	1	9
2227510	PROB	n/a	LTP376	ltpFR2	4	n/a	n/a	n/a	13	14	4	6	4
2228893	PROB	n/a	LTP376	ltpFR2	4	n/a	n/a	n/a	13	8	5	2	1
2231057	PROB	n/a	LTP376	ltpFR2	4	n/a	n/a	n/a	13	22	5	9	8
2236222	PROB	n/a	LTP376	ltpFR2	4	n/a	n/a	n/a	13	16	7	2	7
2238973	STOP	n/a	LTP376	ltpFR2	4	n/a	n/a	n/a	13	n/a	n/a	n/a	n/a
2241336	REC_START	n/a	LTP376	ltpFR2	4	10	n/a	n/a	n/a	n/a	0	0	0
2242944	REC_WORD	wordpools/wasnorm_wordpool_576.txt	LTP376	ltpFR2	4	10	CRAB	397	n/a	n/a	0	0	0
2245120	REC_WORD	wordpools/wasnorm_wordpool_576.txt	LTP376	ltpFR2	4	10	CRICKET	408	n/a	n/a	0	0	0
2246831	REC_WORD	wordpools/wasnorm_wordpool_576.txt	LTP376	ltpFR2	4	10	SALMON	1227	n/a	n/a	0	0	0
2250759	REC_WORD	wordpools/wasnorm_wordpool_576.txt	LTP376	ltpFR2	4	10	PASTRY	1022	n/a	n/a	0	0	0
2253306	REC_WORD	wordpools/wasnorm_wordpool_576.txt	LTP376	ltpFR2	4	10	LUGGAGE	847	n/a	n/a	0	0	0
2254786	REC_WORD	wordpools/wasnorm_wordpool_576.txt	LTP376	ltpFR2	4	10	SUITCASE	1403	n/a	n/a	0	0	0
2255786	REC_WORD_VV	wordpools/wasnorm_wordpool_576.txt	LTP376	ltpFR2	4	10	<>	-1	n/a	n/a	0	0	0
2256976	REC_WORD	wordpools/wasnorm_wordpool_576.txt	LTP376	ltpFR2	4	10	PRINCE	1124	n/a	n/a	0	0	0
2258974	REC_WORD	wordpools/wasnorm_wordpool_576.txt	LTP376	ltpFR2	4	10	BANK	83	n/a	n/a	0	0	0
2261485	REC_WORD	wordpools/wasnorm_wordpool_576.txt	LTP376	ltpFR2	4	10	NURSE	963	n/a	n/a	0	0	0
2504501	DISTRACTOR	n/a	LTP376	ltpFR2	4	11	n/a	n/a	n/a	n/a	0	0	0
2504501	START	n/a	LTP376	ltpFR2	4	n/a	n/a	n/a	14	n/a	n/a	n/a	n/a
2504518	PROB	n/a	LTP376	ltpFR2	4	n/a	n/a	n/a	14	13	7	1	5
2507533	PROB	n/a	LTP376	ltpFR2	4	n/a	n/a	n/a	14	16	5	5	6
2508948	PROB	n/a	LTP376	ltpFR2	4	n/a	n/a	n/a	14	16	2	6	8
2512380	PROB	n/a	LTP376	ltpFR2	4	n/a	n/a	n/a	14	21	9	3	9
2514830	PROB	n/a	LTP376	ltpFR2	4	n/a	n/a	n/a	14	22	5	9	8
2522359	PROB	n/a	LTP376	ltpFR2	4	n/a	n/a	n/a	14	20	3	9	8
2528501	STOP	n/a	LTP376	ltpFR2	4	n/a	n/a	n/a	14	n/a	n/a	n/a	n/a
2529623	WORD	wordpools/wasnorm_wordpool_576.txt	LTP376	ltpFR2	4	11	CHILD	299	n/a	n/a	0	0	0
2532271	WORD	wordpools/wasnorm_wordpool_576.txt	LTP376	ltpFR2	4	11	PASTA	1021	n/a	n/a	0	0	0
2535069	WORD	wordpools/wasnorm_wordpool_576.txt	LTP376	ltpFR2	4	11	LETTUCE	814	n/a	n/a	0	0	0
2537586	WORD	wordpools/wasnorm_wordpool_576.txt	LTP376	ltpFR2	4	11	GUITAR	670	n/a	n/a	0	0	0
2540400	WORD	wordpools/wasnorm_wordpool_576.txt	LTP376	ltpFR2	4	11	DRUG	501	n/a	n/a	0	0	0
2543082	WORD	wordpools/wasnorm_wordpool_576.txt	LTP376	ltpFR2	4	11	SHERIFF	1284	n/a	n/a	0	0	0
2545766	WORD	wordpools/wasnorm_wordpool_576.txt	LTP376	ltpFR2	4	11	ATOM	55	n/a	n/a	0	0	0
2548498	WORD	wordpools/wasnorm_wordpool_576.txt	LTP376	ltpFR2	4	11	NEUTRON	947	n/a	n/a	0	0	0
2551129	WORD	wordpools/wasnorm_wordpool_576.txt	LTP376	ltpFR2	4	11	ORCHID	982	n/a	n/a	0	0	0
2553562	WORD	wordpools/wasnorm_wordpool_576.txt	LTP376	ltpFR2	4	11	FLUTE	585	n/a	n/a	0	0	0
2556326	WORD	wordpools/wasnorm_wordpool_576.txt	LTP376	ltpFR2	4	11	HARP	689	n/a	n/a	0	0	0
2558975	WORD	wordpools/wasnorm_wordpool_576.txt	LTP376	ltpFR2	4	11	MASK	876	n/a	n/a	0	0	0
2561725	WORD	wordpools/wasnorm_wordpool_576.txt	LTP376	ltpFR2	4	11	FEMALE	559	n/a	n/a	0	0	0
2564474	WORD	wordpools/wasnorm_wordpool_576.txt	LTP376	ltpFR2	4	11	CARROT	249	n/a	n/a	0	0	0
2566988	WORD	wordpools/wasnorm_wordpool_576.txt	LTP376	ltpFR2	4	11	BRAKE	166	n/a	n/a	0	0	0
2569688	WORD	wordpools/wasnorm_wordpool_576.txt	LTP376	ltpFR2	4	11	BABY	64	n/a	n/a	0	0	0
2572269	WORD	wordpools/wasnorm_wordpool_576.txt	LTP376	ltpFR2	4	11	SMOG	1330	n/a	n/a	0	0	0
2574886	WORD	wordpools/wasnorm_wordpool_576.txt	LTP376	ltpFR2	4	11	DINER	467	n/a	n/a	0	0	0
2577485	WORD	wordpools/wasnorm_wordpool_576.txt	LTP376	ltpFR2	4	11	PUPPY	1144	n/a	n/a	0	0	0
2580249	WORD	wordpools/wasnorm_wordpool_576.txt	LTP376	ltpFR2	4	11	INMATE	738	n/a	n/a	0	0	0
2582964	WORD	wordpools/wasnorm_wordpool_576.txt	LTP376	ltpFR2	4	11	MUSTARD	935	n/a	n/a	0	0	0
2585531	WORD	wordpools/wasnorm_wordpool_576.txt	LTP376	ltpFR2	4	11	CABBAGE	210	n/a	n/a	0	0	0
2588145	WORD	wordpools/wasnorm_wordpool_576.txt	LTP376	ltpFR2	4	11	CHAMPAGNE	278	n/a	n/a	0	0	0
2590728	WORD	wordpools/wasnorm_wordpool_576.txt	LTP376	ltpFR2	4	11	BARREL	91	n/a	n/a	0	0	0
2592344	START	n/a	LTP376	ltpFR2	4	n/a	n/a	n/a	15	n/a	n/a	n/a	n/a
2593163	DISTRACTOR	n/a	LTP376	ltpFR2	4	11	n/a	n/a	n/a	n/a	0	0	0
2593176	PROB	n/a	LTP376	ltpFR2	4	n/a	n/a	n/a	15	14	6	3	5
2597058	PROB	n/a	LTP376	ltpFR2	4	n/a	n/a	n/a	15	18	9	4	5
2600107	PROB	n/a	LTP376	ltpFR2	4	n/a	n/a	n/a	15	15	7	7	1
2602289	PROB	n/a	LTP376	ltpFR2	4	n/a	n/a	n/a	15	8	2	2	4
2604489	PROB	n/a	LTP376	ltpFR2	4	n/a	n/a	n/a	15	11	1	6	4
2606087	PROB	n/a	LTP376	ltpFR2	4	n/a	n/a	n/a	15	11	2	8	1
2607837	PROB	n/a	LTP376	ltpFR2	4	n/a	n/a	n/a	15	10	6	2	2
2610470	PROB	n/a	LTP376	ltpFR2	4	n/a	n/a	n/a	15	7	1	2	4
2613551	PROB	n/a	LTP376	ltpFR2	4	n/a	n/a	n/a	15	8	2	4	3
2616056	STOP	n/a	LTP376	ltpFR2	4	n/a	n/a	n/a	15	n/a	n/a	n/a	n/a
2618249	REC_START	n/a	LTP376	ltpFR2	4	11	n/a	n/a	n/a	n/a	0	0	0
2622850	REC_WORD	wordpools/wasnorm_wordpool_576.txt	LTP376	ltpFR2	4	11	ATOM	55	n/a	n/a	0	0	0
2624687	REC_WORD	wordpools/wasnorm_wordpool_576.txt	LTP376	ltpFR2	4	11	NEUTRON	947	n/a	n/a	0	0	0
2627873	REC_WORD	wordpools/wasnorm_wordpool_576.txt	LTP376	ltpFR2	4	11	CHILD	299	n/a	n/a	0	0	0
2629848	REC_WORD	wordpools/wasnorm_wordpool_576.txt	LTP376	ltpFR2	4	11	DINER	467	n/a	n/a	0	0	0
2631070	REC_WORD	wordpools/wasnorm_wordpool_576.txt	LTP376	ltpFR2	4	11	PASTA	1021	n/a	n/a	0	0	0
2634218	REC_WORD	wordpools/wasnorm_wordpool_576.txt	LTP376	ltpFR2	4	11	BABY	64	n/a	n/a	0	0	0
2636224	REC_WORD	wordpools/wasnorm_wordpool_576.txt	LTP376	ltpFR2	4	11	PUPPY	1144	n/a	n/a	0	0	0
2639005	REC_WORD	wordpools/wasnorm_wordpool_576.txt	LTP376	ltpFR2	4	11	SHERIFF	1284	n/a	n/a	0	0	0
2741877	WORD	wordpools/wasnorm_wordpool_576.txt	LTP376	ltpFR2	4	12	LASER	801	n/a	n/a	0	0	0
2744492	WORD	wordpools/wasnorm_wordpool_576.txt	LTP376	ltpFR2	4	12	TUNNEL	1519	n/a	n/a	0	0	0
2747090	WORD	wordpools/wasnorm_wordpool_576.txt	LTP376	ltpFR2	4	12	DUST	508	n/a	n/a	0	0	0
2749557	WORD	wordpools/wasnorm_wordpool_576.txt	LTP376	ltpFR2	4	12	PLUTO	1092	n/a	n/a	0	0	0
2752238	WORD	wordpools/wasnorm_wordpool_576.txt	LTP376	ltpFR2	4	12	MUFFIN	929	n/a	n/a	0	0	0
2755053	WORD	wordpools/wasnorm_wordpool_576.txt	LTP376	ltpFR2	4	12	GARLIC	624	n/a	n/a	0	0	0
2757620	WORD	wordpools/wasnorm_wordpool_576.txt	LTP376	ltpFR2	4	12	PASSAGE	1019	n/a	n/a	0	0	0
2760101	WORD	wordpools/wasnorm_wordpool_576.txt	LTP376	ltpFR2	4	12	RADISH	1158	n/a	n/a	0	0	0
2762851	WORD	wordpools/wasnorm_wordpool_576.txt	LTP376	ltpFR2	4	12	DUSTPAN	509	n/a	n/a	0	0	0
2765633	WORD	wordpools/wasnorm_wordpool_576.txt	LTP376	ltpFR2	4	12	CONVICT	371	n/a	n/a	0	0	0
2768097	WORD	wordpools/wasnorm_wordpool_576.txt	LTP376	ltpFR2	4	12	SUNSET	1408	n/a	n/a	0	0	0
2770814	WORD	wordpools/wasnorm_wordpool_576.txt	LTP376	ltpFR2	4	12	SPOOL	1356	n/a	n/a	0	0	0
2773445	WORD	wordpools/wasnorm_wordpool_576.txt	LTP376	ltpFR2	4	12	ROBBER	1197	n/a	n/a	0	0	0
2776077	WORD	wordpools/wasnorm_wordpool_576.txt	LTP376	ltpFR2	4	12	RAZOR	1171	n/a	n/a	0	0	0
2778760	WORD	wordpools/wasnorm_wordpool_576.txt	LTP376	ltpFR2	4	12	SUNRISE	1407	n/a	n/a	0	0	0
2781424	WORD	wordpools/wasnorm_wordpool_576.txt	LTP376	ltpFR2	4	12	HOSTESS	723	n/a	n/a	0	0	0
2784090	WORD	wordpools/wasnorm_wordpool_576.txt	LTP376	ltpFR2	4	12	FILM	565	n/a	n/a	0	0	0
2786790	WORD	wordpools/wasnorm_wordpool_576.txt	LTP376	ltpFR2	4	12	FLASK	576	n/a	n/a	0	0	0
2789555	WORD	wordpools/wasnorm_wordpool_576.txt	LTP376	ltpFR2	4	12	BUNNY	198	n/a	n/a	0	0	0
2792320	WORD	wordpools/wasnorm_wordpool_576.txt	LTP376	ltpFR2	4	12	EUROPE	541	n/a	n/a	0	0	0
2795018	WORD	wordpools/wasnorm_wordpool_576.txt	LTP376	ltpFR2	4	12	ASIA	46	n/a	n/a	0	0	0
2797601	WORD	wordpools/wasnorm_wordpool_576.txt	LTP376	ltpFR2	4	12	BISON	131	n/a	n/a	0	0	0
2800366	WORD	wordpools/wasnorm_wordpool_576.txt	LTP376	ltpFR2	4	12	SHELTER	1282	n/a	n/a	0	0	0
2802799	WORD	wordpools/wasnorm_wordpool_576.txt	LTP376	ltpFR2	4	12	HOUND	724	n/a	n/a	0	0	0
2804414	START	n/a	LTP376	ltpFR2	4	n/a	n/a	n/a	16	n/a	n/a	n/a	n/a
2805489	DISTRACTOR	n/a	LTP376	ltpFR2	4	12	n/a	n/a	n/a	n/a	0	0	0
2805498	PROB	n/a	LTP376	ltpFR2	4	n/a	n/a	n/a	16	12	3	6	3
2808530	PROB	n/a	LTP376	ltpFR2	4	n/a	n/a	n/a	16	18	8	9	1
2810345	PROB	n/a	LTP376	ltpFR2	4	n/a	n/a	n/a	16	14	3	8	3
2813594	PROB	n/a	LTP376	ltpFR2	4	n/a	n/a	n/a	16	18	5	7	6
2817408	PROB	n/a	LTP376	ltpFR2	4	n/a	n/a	n/a	16	17	7	5	5
2818941	PROB	n/a	LTP376	ltpFR2	4	n/a	n/a	n/a	16	19	8	7	4
2823756	PROB	n/a	LTP376	ltpFR2	4	n/a	n/a	n/a	16	16	2	9	4
2828414	STOP	n/a	LTP376	ltpFR2	4	n/a	n/a	n/a	16	n/a	n/a	n/a	n/a
2830170	REC_START	n/a	LTP376	ltpFR2	4	12	n/a	n/a	n/a	n/a	0	0	0
2831951	REC_WORD	wordpools/wasnorm_wordpool_576.txt	LTP376	ltpFR2	4	12	TUNNEL	1519	n/a	n/a	0	0	0
2833182	REC_WORD	wordpools/wasnorm_wordpool_576.txt	LTP376	ltpFR2	4	12	LASER	801	n/a	n/a	0	0	0
2841089	REC_WORD	wordpools/wasnorm_wordpool_576.txt	LTP376	ltpFR2	4	12	CONVICT	371	n/a	n/a	0	0	0
2842089	REC_WORD_VV	wordpools/wasnorm_wordpool_576.txt	LTP376	ltpFR2	4	12	<>	-1	n/a	n/a	0	0	0
2853916	REC_WORD	wordpools/wasnorm_wordpool_576.txt	LTP376	ltpFR2	4	12	MUFFIN	929	n/a	n/a	0	0	0
2855751	REC_WORD	wordpools/wasnorm_wordpool_576.txt	LTP376	ltpFR2	4	12	RADISH	1158	n/a	n/a	0	0	0
2866692	REC_WORD	wordpools/wasnorm_wordpool_576.txt	LTP376	ltpFR2	4	12	GARLIC	624	n/a	n/a	0	0	0
2881690	REC_WORD	wordpools/wasnorm_wordpool_576.txt	LTP376	ltpFR2	4	12	PASSAGE	1019	n/a	n/a	0	0	0
2898594	REC_WORD	wordpools/wasnorm_wordpool_576.txt	LTP376	ltpFR2	4	12	SUNRISE	1407	n/a	n/a	0	0	0
2899427	REC_WORD	wordpools/wasnorm_wordpool_576.txt	LTP376	ltpFR2	4	12	SUNSET	1408	n/a	n/a	0	0	0
2920596	DISTRACTOR	n/a	LTP376	ltpFR2	4	13	n/a	n/a	n/a	n/a	0	0	0
2920596	START	n/a	LTP376	ltpFR2	4	n/a	n/a	n/a	17	n/a	n/a	n/a	n/a
2920612	PROB	n/a	LTP376	ltpFR2	4	n/a	n/a	n/a	17	10	1	6	3
2923728	PROB	n/a	LTP376	ltpFR2	4	n/a	n/a	n/a	17	17	9	5	3
2926908	PROB	n/a	LTP376	ltpFR2	4	n/a	n/a	n/a	17	14	2	9	3
2932140	PROB	n/a	LTP376	ltpFR2	4	n/a	n/a	n/a	17	16	5	5	6
2933607	PROB	n/a	LTP376	ltpFR2	4	n/a	n/a	n/a	17	17	9	2	6
2936154	PROB	n/a	LTP376	ltpFR2	4	n/a	n/a	n/a	17	9	1	3	5
2940470	PROB	n/a	LTP376	ltpFR2	4	n/a	n/a	n/a	17	18	4	8	6
2943986	STOP	n/a	LTP376	ltpFR2	4	n/a	n/a	n/a	17	n/a	n/a	n/a	n/a
2945668	WORD	wordpools/wasnorm_wordpool_576.txt	LTP376	ltpFR2	4	13	CLOTHES	327	n/a	n/a	0	0	0
2948432	WORD	wordpools/wasnorm_wordpool_576.txt	LTP376	ltpFR2	4	13	VIKING	1565	n/a	n/a	0	0	0
2951114	WORD	wordpools/wasnorm_wordpool_576.txt	LTP376	ltpFR2	4	13	REPORT	1184	n/a	n/a	0	0	0
2953930	WORD	wordpools/wasnorm_wordpool_576.txt	LTP376	ltpFR2	4	13	STAPLE	1371	n/a	n/a	0	0	0
2956463	WORD	wordpools/wasnorm_wordpool_576.txt	LTP376	ltpFR2	4	13	BADGE	68	n/a	n/a	0	0	0
2958994	WORD	wordpools/wasnorm_wordpool_576.txt	LTP376	ltpFR2	4	13	OFFICE	972	n/a	n/a	0	0	0
2961760	WORD	wordpools/wasnorm_wordpool_576.txt	LTP376	ltpFR2	4	13	GROUND	666	n/a	n/a	0	0	0
2964492	WORD	wordpools/wasnorm_wordpool_576.txt	LTP376	ltpFR2	4	13	COURSE	390	n/a	n/a	0	0	0
2967090	WORD	wordpools/wasnorm_wordpool_576.txt	LTP376	ltpFR2	4	13	OYSTER	995	n/a	n/a	0	0	0
2969906	WORD	wordpools/wasnorm_wordpool_576.txt	LTP376	ltpFR2	4	13	ROBOT	1200	n/a	n/a	0	0	0
2972456	WORD	wordpools/wasnorm_wordpool_576.txt	LTP376	ltpFR2	4	13	SCULPTURE	1258	n/a	n/a	0	0	0
2975220	WORD	wordpools/wasnorm_wordpool_576.txt	LTP376	ltpFR2	4	13	GUARD	667	n/a	n/a	0	0	0
2977703	WORD	wordpools/wasnorm_wordpool_576.txt	LTP376	ltpFR2	4	13	FRAGRANCE	599	n/a	n/a	0	0	0
2980351	WORD	wordpools/wasnorm_wordpool_576.txt	LTP376	ltpFR2	4	13	PERFUME	1049	n/a	n/a	0	0	0
2982916	WORD	wordpools/wasnorm_wordpool_576.txt	LTP376	ltpFR2	4	13	NOMAD	955	n/a	n/a	0	0	0
2985483	WORD	wordpools/wasnorm_wordpool_576.txt	LTP376	ltpFR2	4	13	TOURIST	1488	n/a	n/a	0	0	0
2987997	WORD	wordpools/wasnorm_wordpool_576.txt	LTP376	ltpFR2	4	13	DIME	466	n/a	n/a	0	0	0
2990446	WORD	wordpools/wasnorm_wordpool_576.txt	LTP376	ltpFR2	4	13	BOUQUET	157	n/a	n/a	0	0	0
2993062	WORD	wordpools/wasnorm_wordpool_576.txt	LTP376	ltpFR2	4	13	PORTRAIT	1111	n/a	n/a	0	0	0
2995528	WORD	wordpools/wasnorm_wordpool_576.txt	LTP376	ltpFR2	4	13	BATHTUB	100	n/a	n/a	0	0	0
2997976	WORD	wordpools/wasnorm_wordpool_576.txt	LTP376	ltpFR2	4	13	SKIRT	1319	n/a	n/a	0	0	0
3000409	WORD	wordpools/wasnorm_wordpool_576.txt	LTP376	ltpFR2	4	13	ROCKET	1202	n/a	n/a	0	0	0
3002842	WORD	wordpools/wasnorm_wordpool_576.txt	LTP376	ltpFR2	4	13	TYPIST	1532	n/a	n/a	0	0	0
3005356	WORD	wordpools/wasnorm_wordpool_576.txt	LTP376	ltpFR2	4	13	GLOVE	642	n/a	n/a	0	0	0
3006972	START	n/a	LTP376	ltpFR2	4	n/a	n/a	n/a	18	n/a	n/a	n/a	n/a
3007847	DISTRACTOR	n/a	LTP376	ltpFR2	4	13	n/a	n/a	n/a	n/a	0	0	0
3007856	PROB	n/a	LTP376	ltpFR2	4	n/a	n/a	n/a	18	18	7	8	3
3009789	PROB	n/a	LTP376	ltpFR2	4	n/a	n/a	n/a	18	21	8	4	9
3012704	PROB	n/a	LTP376	ltpFR2	4	n/a	n/a	n/a	18	18	9	4	5
3016135	PROB	n/a	LTP376	ltpFR2	4	n/a	n/a	n/a	18	15	4	3	8
3020050	PROB	n/a	LTP376	ltpFR2	4	n/a	n/a	n/a	18	15	6	5	4
3021650	PROB	n/a	LTP376	ltpFR2	4	n/a	n/a	n/a	18	20	8	8	4
3025798	PROB	n/a	LTP376	ltpFR2	4	n/a	n/a	n/a	18	9	2	4	3
3030972	STOP	n/a	LTP376	ltpFR2	4	n/a	n/a	n/a	18	n/a	n/a	n/a	n/a
3032795	REC_START	n/a	LTP376	ltpFR2	4	13	n/a	n/a	n/a	n/a	0	0	0
3033999	REC_WORD	wordpools/wasnorm_wordpool_576.txt	LTP376	ltpFR2	4	13	VIKING	1565	n/a	n/a	0	0	0
3035679	REC_WORD	wordpools/wasnorm_wordpool_576.txt	LTP376	ltpFR2	4	13	NOMAD	955	n/a	n/a	0	0	0
3038096	REC_WORD	wordpools/wasnorm_wordpool_576.txt	LTP376	ltpFR2	4	13	GROUND	666	n/a	n/a	0	0	0
3040521	REC_WORD	wordpools/wasnorm_wordpool_576.txt	LTP376	ltpFR2	4	13	OFFICE	972	n/a	n/a	0	0	0
3042092	REC_WORD	wordpools/wasnorm_wordpool_576.txt	LTP376	ltpFR2	4	13	STAPLE	1371	n/a	n/a	0	0	0
3044192	REC_WORD	wordpools/wasnorm_wordpool_576.txt	LTP376	ltpFR2	4	13	TYPIST	1532	n/a	n/a	0	0	0
3046654	REC_WORD	wordpools/wasnorm_wordpool_576.txt	LTP376	ltpFR2	4	13	GUARD	667	n/a	n/a	0	0	0
3152356	DISTRACTOR	n/a	LTP376	ltpFR2	4	14	n/a	n/a	n/a	n/a	0	0	0
3152356	START	n/a	LTP376	ltpFR2	4	n/a	n/a	n/a	19	n/a	n/a	n/a	n/a
3152373	PROB	n/a	LTP376	ltpFR2	4	n/a	n/a	n/a	19	13	1	3	9
3154889	PROB	n/a	LTP376	ltpFR2	4	n/a	n/a	n/a	19	17	8	4	5
3157755	PROB	n/a	LTP376	ltpFR2	4	n/a	n/a	n/a	19	16	3	4	9
3161736	PROB	n/a	LTP376	ltpFR2	4	n/a	n/a	n/a	19	19	8	8	3
3164134	PROB	n/a	LTP376	ltpFR2	4	n/a	n/a	n/a	19	12	9	1	2
3165701	PROB	n/a	LTP376	ltpFR2	4	n/a	n/a	n/a	19	13	3	8	2
3167433	PROB	n/a	LTP376	ltpFR2	4	n/a	n/a	n/a	19	28	7	4	7
3171815	PROB	n/a	LTP376	ltpFR2	4	n/a	n/a	n/a	19	20	8	8	4
3176185	STOP	n/a	LTP376	ltpFR2	4	n/a	n/a	n/a	19	n/a	n/a	n/a	n/a
3177479	WORD	wordpools/wasnorm_wordpool_576.txt	LTP376	ltpFR2	4	14	LEG	809	n/a	n/a	0	0	0
3179927	WORD	wordpools/wasnorm_wordpool_576.txt	LTP376	ltpFR2	4	14	MARS	873	n/a	n/a	0	0	0
3182694	WORD	wordpools/wasnorm_wordpool_576.txt	LTP376	ltpFR2	4	14	HORSE	719	n/a	n/a	0	0	0
3185509	WORD	wordpools/wasnorm_wordpool_576.txt	LTP376	ltpFR2	4	14	PERMIT	1051	n/a	n/a	0	0	0
3187940	WORD	wordpools/wasnorm_wordpool_576.txt	LTP376	ltpFR2	4	14	CAFE	216	n/a	n/a	0	0	0
3190657	WORD	wordpools/wasnorm_wordpool_576.txt	LTP376	ltpFR2	4	14	KNAPSACK	783	n/a	n/a	0	0	0
3193138	WORD	wordpools/wasnorm_wordpool_576.txt	LTP376	ltpFR2	4	14	PAPER	1011	n/a	n/a	0	0	0
3195738	WORD	wordpools/wasnorm_wordpool_576.txt	LTP376	ltpFR2	4	14	POWDER	1117	n/a	n/a	0	0	0
3198385	WORD	wordpools/wasnorm_wordpool_576.txt	LTP376	ltpFR2	4	14	RUG	1215	n/a	n/a	0	0	0
3201168	WORD	wordpools/wasnorm_wordpool_576.txt	LTP376	ltpFR2	4	14	STICKER	1382	n/a	n/a	0	0	0
3203851	WORD	wordpools/wasnorm_wordpool_576.txt	LTP376	ltpFR2	4	14	LONDON	843	n/a	n/a	0	0	0
3206399	WORD	wordpools/wasnorm_wordpool_576.txt	LTP376	ltpFR2	4	14	TUTU	1524	n/a	n/a	0	0	0
3209031	WORD	wordpools/wasnorm_wordpool_576.txt	LTP376	ltpFR2	4	14	RIVER	1194	n/a	n/a	0	0	0
3211830	WORD	wordpools/wasnorm_wordpool_576.txt	LTP376	ltpFR2	4	14	ISLAND	745	n/a	n/a	0	0	0
3214361	WORD	wordpools/wasnorm_wordpool_576.txt	LTP376	ltpFR2	4	14	SUMMIT	1405	n/a	n/a	0	0	0
3217160	WORD	wordpools/wasnorm_wordpool_576.txt	LTP376	ltpFR2	4	14	LAKE	796	n/a	n/a	0	0	0
3219959	WORD	wordpools/wasnorm_wordpool_576.txt	LTP376	ltpFR2	4	14	SWIMMER	1420	n/a	n/a	0	0	0
3222742	WORD	wordpools/wasnorm_wordpool_576.txt	LTP376	ltpFR2	4	14	CANYON	235	n/a	n/a	0	0	0
3225290	WORD	wordpools/wasnorm_wordpool_576.txt	LTP376	ltpFR2	4	14	ZEBRA	1635	n/a	n/a	0	0	0
3227955	WORD	wordpools/wasnorm_wordpool_576.txt	LTP376	ltpFR2	4	14	DASHBOARD	441	n/a	n/a	0	0	0
3230622	WORD	wordpools/wasnorm_wordpool_576.txt	LTP376	ltpFR2	4	14	TURNIP	1521	n/a	n/a	0	0	0
3233436	WORD	wordpools/wasnorm_wordpool_576.txt	LTP376	ltpFR2	4	14	ANTLER	29	n/a	n/a	0	0	0
3236018	WORD	wordpools/wasnorm_wordpool_576.txt	LTP376	ltpFR2	4	14	HANDBAG	684	n/a	n/a	0	0	0
3238752	WORD	wordpools/wasnorm_wordpool_576.txt	LTP376	ltpFR2	4	14	FRIEND	606	n/a	n/a	0	0	0
3240367	START	n/a	LTP376	ltpFR2	4	n/a	n/a	n/a	20	n/a	n/a	n/a	n/a
3241188	DISTRACTOR	n/a	LTP376	ltpFR2	4	14	n/a	n/a	n/a	n/a	0	0	0
3241199	PROB	n/a	LTP376	ltpFR2	4	n/a	n/a	n/a	20	20	9	6	5
3244315	PROB	n/a	LTP376	ltpFR2	4	n/a	n/a	n/a	20	14	2	3	9
3247363	PROB	n/a	LTP376	ltpFR2	4	n/a	n/a	n/a	20	23	7	8	8
3264367	STOP	n/a	LTP376	ltpFR2	4	n/a	n/a	n/a	20	n/a	n/a	n/a	n/a
3266305	REC_START	n/a	LTP376	ltpFR2	4	14	n/a	n/a	n/a	n/a	0	0	0
3268565	REC_WORD	wordpools/wasnorm_wordpool_576.txt	LTP376	ltpFR2	4	14	HANDBAG	684	n/a	n/a	0	0	0
3273743	REC_WORD	wordpools/wasnorm_wordpool_576.txt	LTP376	ltpFR2	4	14	LONDON	843	n/a	n/a	0	0	0
3275454	REC_WORD	wordpools/wasnorm_wordpool_576.txt	LTP376	ltpFR2	4	14	ISLAND	745	n/a	n/a	0	0	0
3277577	REC_WORD	wordpools/wasnorm_wordpool_576.txt	LTP376	ltpFR2	4	14	RIVER	1194	n/a	n/a	0	0	0
3279752	REC_WORD	wordpools/wasnorm_wordpool_576.txt	LTP376	ltpFR2	4	14	SWIMMER	1420	n/a	n/a	0	0	0
3418086	WORD	wordpools/wasnorm_wordpool_576.txt	LTP376	ltpFR2	4	15	COOK	372	n/a	n/a	0	0	0
3420519	WORD	wordpools/wasnorm_wordpool_576.txt	LTP376	ltpFR2	4	15	PAIL	1002	n/a	n/a	0	0	0
3422984	WORD	wordpools/wasnorm_wordpool_576.txt	LTP376	ltpFR2	4	15	CAPTIVE	240	n/a	n/a	0	0	0
3425750	WORD	wordpools/wasnorm_wordpool_576.txt	LTP376	ltpFR2	4	15	JELLO	754	n/a	n/a	0	0	0
3428365	WORD	wordpools/wasnorm_wordpool_576.txt	LTP376	ltpFR2	4	15	PIGMENT	1066	n/a	n/a	0	0	0
3431097	WORD	wordpools/wasnorm_wordpool_576.txt	LTP376	ltpFR2	4	15	LIVER	833	n/a	n/a	0	0	0
3433663	WORD	wordpools/wasnorm_wordpool_576.txt	LTP376	ltpFR2	4	15	BRIEFCASE	175	n/a	n/a	0	0	0
3436228	WORD	wordpools/wasnorm_wordpool_576.txt	LTP376	ltpFR2	4	15	SUSPECT	1415	n/a	n/a	0	0	0
3438943	WORD	wordpools/wasnorm_wordpool_576.txt	LTP376	ltpFR2	4	15	JEANS	752	n/a	n/a	0	0	0
3441660	WORD	wordpools/wasnorm_wordpool_576.txt	LTP376	ltpFR2	4	15	SHORTS	1293	n/a	n/a	0	0	0
3444107	WORD	wordpools/wasnorm_wordpool_576.txt	LTP376	ltpFR2	4	15	JUNGLE	764	n/a	n/a	0	0	0
3446874	WORD	wordpools/wasnorm_wordpool_576.txt	LTP376	ltpFR2	4	15	HORNET	718	n/a	n/a	0	0	0
3449405	WORD	wordpools/wasnorm_wordpool_576.txt	LTP376	ltpFR2	4	15	CONCERT	360	n/a	n/a	0	0	0
3451921	WORD	wordpools/wasnorm_wordpool_576.txt	LTP376	ltpFR2	4	15	PRIMATE	1123	n/a	n/a	0	0	0
3454520	WORD	wordpools/wasnorm_wordpool_576.txt	LTP376	ltpFR2	4	15	LADY	794	n/a	n/a	0	0	0
3457218	WORD	wordpools/wasnorm_wordpool_576.txt	LTP376	ltpFR2	4	15	SLUG	1329	n/a	n/a	0	0	0
3459818	WORD	wordpools/wasnorm_wordpool_576.txt	LTP376	ltpFR2	4	15	GIFT	635	n/a	n/a	0	0	0
3462550	WORD	wordpools/wasnorm_wordpool_576.txt	LTP376	ltpFR2	4	15	DANCER	437	n/a	n/a	0	0	0
3465031	WORD	wordpools/wasnorm_wordpool_576.txt	LTP376	ltpFR2	4	15	CUPBOARD	425	n/a	n/a	0	0	0
3467698	WORD	wordpools/wasnorm_wordpool_576.txt	LTP376	ltpFR2	4	15	BRANCH	168	n/a	n/a	0	0	0
3470196	WORD	wordpools/wasnorm_wordpool_576.txt	LTP376	ltpFR2	4	15	CLIMBER	323	n/a	n/a	0	0	0
3472629	WORD	wordpools/wasnorm_wordpool_576.txt	LTP376	ltpFR2	4	15	FLASHLIGHT	575	n/a	n/a	0	0	0
3475243	WORD	wordpools/wasnorm_wordpool_576.txt	LTP376	ltpFR2	4	15	LAMP	798	n/a	n/a	0	0	0
3477942	WORD	wordpools/wasnorm_wordpool_576.txt	LTP376	ltpFR2	4	15	TRIBE	1505	n/a	n/a	0	0	0
3479559	START	n/a	LTP376	ltpFR2	4	n/a	n/a	n/a	21	n/a	n/a	n/a	n/a
3480602	DISTRACTOR	n/a	LTP376	ltpFR2	4	15	n/a	n/a	n/a	n/a	0	0	0
3480609	PROB	n/a	LTP376	ltpFR2	4	n/a	n/a	n/a	21	12	7	1	4
3483724	PROB	n/a	LTP376	ltpFR2	4	n/a	n/a	n/a	21	17	7	3	7
3485723	PROB	n/a	LTP376	ltpFR2	4	n/a	n/a	n/a	21	16	2	8	7
3488888	PROB	n/a	LTP376	ltpFR2	4	n/a	n/a	n/a	21	16	6	5	5
3491787	PROB	n/a	LTP376	ltpFR2	4	n/a	n/a	n/a	21	11	2	1	8
3493869	PROB	n/a	LTP376	ltpFR2	4	n/a	n/a	n/a	21	22	9	7	6
3498567	PROB	n/a	LTP376	ltpFR2	4	n/a	n/a	n/a	21	17	7	5	5
3500749	PROB	n/a	LTP376	ltpFR2	4	n/a	n/a	n/a	21	9	1	4	4
3502379	STOP	n/a	LTP376	ltpFR2	4	n/a	n/a	n/a	21	n/a	n/a	n/a	n/a
3505413	REC_START	n/a	LTP376	ltpFR2	4	15	n/a	n/a	n/a	n/a	0	0	0
3506531	REC_WORD	wordpools/wasnorm_wordpool_576.txt	LTP376	ltpFR2	4	15	JUNGLE	764	n/a	n/a	0	0	0
3508316	REC_WORD	wordpools/wasnorm_wordpool_576.txt	LTP376	ltpFR2	4	15	CLIMBER	323	n/a	n/a	0	0	0
3510881	REC_WORD	wordpools/wasnorm_wordpool_576.txt	LTP376	ltpFR2	4	15	TREE	1502	n/a	n/a	0	0	0
3512649	REC_WORD	wordpools/wasnorm_wordpool_576.txt	LTP376	ltpFR2	4	15	TRIBE	1505	n/a	n/a	0	0	0
3517245	REC_WORD	wordpools/wasnorm_wordpool_576.txt	LTP376	ltpFR2	4	15	BRIEFCASE	175	n/a	n/a	0	0	0
3518245	REC_WORD_VV	wordpools/wasnorm_wordpool_576.txt	LTP376	ltpFR2	4	15	<>	-1	n/a	n/a	0	0	0
3518976	REC_WORD	wordpools/wasnorm_wordpool_576.txt	LTP376	ltpFR2	4	15	LIVER	833	n/a	n/a	0	0	0
3532443	REC_WORD	wordpools/wasnorm_wordpool_576.txt	LTP376	ltpFR2	4	15	PIGMENT	1066	n/a	n/a	0	0	0
3595856	WORD	wordpools/wasnorm_wordpool_576.txt	LTP376	ltpFR2	4	16	FARMER	553	n/a	n/a	0	0	0
3598605	WORD	wordpools/wasnorm_wordpool_576.txt	LTP376	ltpFR2	4	16	CRAYON	401	n/a	n/a	0	0	0
3601086	WORD	wordpools/wasnorm_wordpool_576.txt	LTP376	ltpFR2	4	16	VELVET	1555	n/a	n/a	0	0	0
3603886	WORD	wordpools/wasnorm_wordpool_576.txt	LTP376	ltpFR2	4	16	MISSILE	900	n/a	n/a	0	0	0
3606501	WORD	wordpools/wasnorm_wordpool_576.txt	LTP376	ltpFR2	4	16	JAPAN	749	n/a	n/a	0	0	0
3609183	WORD	wordpools/wasnorm_wordpool_576.txt	LTP376	ltpFR2	4	16	PATROL	1027	n/a	n/a	0	0	0
3611749	WORD	wordpools/wasnorm_wordpool_576.txt	LTP376	ltpFR2	4	16	STAKE	1368	n/a	n/a	0	0	0
3614214	WORD	wordpools/wasnorm_wordpool_576.txt	LTP376	ltpFR2	4	16	SCRIBBLE	1256	n/a	n/a	0	0	0
3616897	WORD	wordpools/wasnorm_wordpool_576.txt	LTP376	ltpFR2	4	16	JOURNAL	760	n/a	n/a	0	0	0
3619495	WORD	wordpools/wasnorm_wordpool_576.txt	LTP376	ltpFR2	4	16	PORK	1108	n/a	n/a	0	0	0
3622193	WORD	wordpools/wasnorm_wordpool_576.txt	LTP376	ltpFR2	4	16	LUMBER	848	n/a	n/a	0	0	0
3624975	WORD	wordpools/wasnorm_wordpool_576.txt	LTP376	ltpFR2	4	16	MARKET	871	n/a	n/a	0	0	0
3627592	WORD	wordpools/wasnorm_wordpool_576.txt	LTP376	ltpFR2	4	16	PLAZA	1088	n/a	n/a	0	0	0
3630306	WORD	wordpools/wasnorm_wordpool_576.txt	LTP376	ltpFR2	4	16	PICTURE	1061	n/a	n/a	0	0	0
3632740	WORD	wordpools/wasnorm_wordpool_576.txt	LTP376	ltpFR2	4	16	FOOTBALL	591	n/a	n/a	0	0	0
3635387	WORD	wordpools/wasnorm_wordpool_576.txt	LTP376	ltpFR2	4	16	PADDING	999	n/a	n/a	0	0	0
3637821	WORD	wordpools/wasnorm_wordpool_576.txt	LTP376	ltpFR2	4	16	MACHINE	852	n/a	n/a	0	0	0
3640352	WORD	wordpools/wasnorm_wordpool_576.txt	LTP376	ltpFR2	4	16	NIGHTGOWN	953	n/a	n/a	0	0	0
3642885	WORD	wordpools/wasnorm_wordpool_576.txt	LTP376	ltpFR2	4	16	POLICE	1098	n/a	n/a	0	0	0
3645484	WORD	wordpools/wasnorm_wordpool_576.txt	LTP376	ltpFR2	4	16	MESSAGE	888	n/a	n/a	0	0	0
3648015	WORD	wordpools/wasnorm_wordpool_576.txt	LTP376	ltpFR2	4	16	UNCLE	1536	n/a	n/a	0	0	0
3650648	WORD	wordpools/wasnorm_wordpool_576.txt	LTP376	ltpFR2	4	16	SPONGE	1355	n/a	n/a	0	0	0
3653229	WORD	wordpools/wasnorm_wordpool_576.txt	LTP376	ltpFR2	4	16	FUNGUS	614	n/a	n/a	0	0	0
3655978	WORD	wordpools/wasnorm_wordpool_576.txt	LTP376	ltpFR2	4	16	GREASE	660	n/a	n/a	0	0	0
3657595	START	n/a	LTP376	ltpFR2	4	n/a	n/a	n/a	22	n/a	n/a	n/a	n/a
3658588	DISTRACTOR	n/a	LTP376	ltpFR2	4	16	n/a	n/a	n/a	n/a	0	0	0
3658595	PROB	n/a	LTP376	ltpFR2	4	n/a	n/a	n/a	22	14	9	2	3
3661543	PROB	n/a	LTP376	ltpFR2	4	n/a	n/a	n/a	22	19	7	9	3
3664441	PROB	n/a	LTP376	ltpFR2	4	n/a	n/a	n/a	22	20	3	9	8
3668189	PROB	n/a	LTP376	ltpFR2	4	n/a	n/a	n/a	22	24	8	8	6
3670954	PROB	n/a	LTP376	ltpFR2	4	n/a	n/a	n/a	22	12	4	4	4
3673554	PROB	n/a	LTP376	ltpFR2	4	n/a	n/a	n/a	22	8	1	1	6
3675153	PROB	n/a	LTP376	ltpFR2	4	n/a	n/a	n/a	22	10	3	6	1
3681595	STOP	n/a	LTP376	ltpFR2	4	n/a	n/a	n/a	22	n/a	n/a	n/a	n/a
3683467	REC_START	n/a	LTP376	ltpFR2	4	16	n/a	n/a	n/a	n/a	0	0	0
3684520	REC_WORD	wordpools/wasnorm_wordpool_576.txt	LTP376	ltpFR2	4	16	JAPAN	749	n/a	n/a	0	0	0
3685906	REC_WORD	wordpools/wasnorm_wordpool_576.txt	LTP376	ltpFR2	4	16	SPONGE	1355	n/a	n/a	0	0	0
3687955	REC_WORD	wordpools/wasnorm_wordpool_576.txt	LTP376	ltpFR2	4	16	GREASE	660	n/a	n/a	0	0	0
3689436	REC_WORD	wordpools/wasnorm_wordpool_576.txt	LTP376	ltpFR2	4	16	FUNGUS	614	n/a	n/a	0	0	0
3690436	REC_WORD_VV	wordpools/wasnorm_wordpool_576.txt	LTP376	ltpFR2	4	16	<>	-1	n/a	n/a	0	0	0
3696401	REC_WORD	wordpools/wasnorm_wordpool_576.txt	LTP376	ltpFR2	4	16	VELVET	1555	n/a	n/a	0	0	0
3759998	REST_REWET	n/a	LTP376	ltpFR2	4	16	n/a	n/a	n/a	n/a	0	0	0
4172411	DISTRACTOR	n/a	LTP376	ltpFR2	4	17	n/a	n/a	n/a	n/a	0	0	0
4172411	START	n/a	LTP376	ltpFR2	4	n/a	n/a	n/a	23	n/a	n/a	n/a	n/a
4172427	PROB	n/a	LTP376	ltpFR2	4	n/a	n/a	n/a	23	16	4	4	8
4175076	PROB	n/a	LTP376	ltpFR2	4	n/a	n/a	n/a	23	23	7	9	7
4180491	PROB	n/a	LTP376	ltpFR2	4	n/a	n/a	n/a	23	21	7	5	9
4187204	PROB	n/a	LTP376	ltpFR2	4	n/a	n/a	n/a	23	19	1	9	9
4189403	PROB	n/a	LTP376	ltpFR2	4	n/a	n/a	n/a	23	28	7	7	4
4193018	PROB	n/a	LTP376	ltpFR2	4	n/a	n/a	n/a	23	14	3	7	4
4196351	STOP	n/a	LTP376	ltpFR2	4	n/a	n/a	n/a	23	n/a	n/a	n/a	n/a
4197366	WORD	wordpools/wasnorm_wordpool_576.txt	LTP376	ltpFR2	4	17	LIGHTNING	820	n/a	n/a	0	0	0
4199816	WORD	wordpools/wasnorm_wordpool_576.txt	LTP376	ltpFR2	4	17	COLLEGE	346	n/a	n/a	0	0	0
4202380	WORD	wordpools/wasnorm_wordpool_576.txt	LTP376	ltpFR2	4	17	MOTEL	919	n/a	n/a	0	0	0
4204912	WORD	wordpools/wasnorm_wordpool_576.txt	LTP376	ltpFR2	4	17	MILK	895	n/a	n/a	0	0	0
4207712	WORD	wordpools/wasnorm_wordpool_576.txt	LTP376	ltpFR2	4	17	SPOON	1357	n/a	n/a	0	0	0
4210143	WORD	wordpools/wasnorm_wordpool_576.txt	LTP376	ltpFR2	4	17	PALACE	1006	n/a	n/a	0	0	0
4212876	WORD	wordpools/wasnorm_wordpool_576.txt	LTP376	ltpFR2	4	17	PLATE	1086	n/a	n/a	0	0	0
4215341	WORD	wordpools/wasnorm_wordpool_576.txt	LTP376	ltpFR2	4	17	KITCHEN	778	n/a	n/a	0	0	0
4217973	WORD	wordpools/wasnorm_wordpool_576.txt	LTP376	ltpFR2	4	17	LAVA	804	n/a	n/a	0	0	0
4220490	WORD	wordpools/wasnorm_wordpool_576.txt	LTP376	ltpFR2	4	17	TRACTOR	1493	n/a	n/a	0	0	0
4222971	WORD	wordpools/wasnorm_wordpool_576.txt	LTP376	ltpFR2	4	17	CIGAR	308	n/a	n/a	0	0	0
4225637	WORD	wordpools/wasnorm_wordpool_576.txt	LTP376	ltpFR2	4	17	SIBLING	1301	n/a	n/a	0	0	0
4228285	WORD	wordpools/wasnorm_wordpool_576.txt	LTP376	ltpFR2	4	17	BROTHER	179	n/a	n/a	0	0	0
4231034	WORD	wordpools/wasnorm_wordpool_576.txt	LTP376	ltpFR2	4	17	PLAYGROUND	1087	n/a	n/a	0	0	0
4233617	WORD	wordpools/wasnorm_wordpool_576.txt	LTP376	ltpFR2	4	17	OINTMENT	974	n/a	n/a	0	0	0
4236381	WORD	wordpools/wasnorm_wordpool_576.txt	LTP376	ltpFR2	4	17	CATTLE	261	n/a	n/a	0	0	0
4239114	WORD	wordpools/wasnorm_wordpool_576.txt	LTP376	ltpFR2	4	17	LADDER	793	n/a	n/a	0	0	0
4241880	WORD	wordpools/wasnorm_wordpool_576.txt	LTP376	ltpFR2	4	17	CEILING	265	n/a	n/a	0	0	0
4244562	WORD	wordpools/wasnorm_wordpool_576.txt	LTP376	ltpFR2	4	17	XEROX	1628	n/a	n/a	0	0	0
4246993	WORD	wordpools/wasnorm_wordpool_576.txt	LTP376	ltpFR2	4	17	SPARROW	1347	n/a	n/a	0	0	0
4249442	WORD	wordpools/wasnorm_wordpool_576.txt	LTP376	ltpFR2	4	17	STOVE	1388	n/a	n/a	0	0	0
4252174	WORD	wordpools/wasnorm_wordpool_576.txt	LTP376	ltpFR2	4	17	HATCHET	691	n/a	n/a	0	0	0
4254808	WORD	wordpools/wasnorm_wordpool_576.txt	LTP376	ltpFR2	4	17	PENGUIN	1044	n/a	n/a	0	0	0
4257305	WORD	wordpools/wasnorm_wordpool_576.txt	LTP376	ltpFR2	4	17	ROD	1203	n/a	n/a	0	0	0
4258921	START	n/a	LTP376	ltpFR2	4	n/a	n/a	n/a	24	n/a	n/a	n/a	n/a
4260045	DISTRACTOR	n/a	LTP376	ltpFR2	4	17	n/a	n/a	n/a	n/a	0	0	0
4260054	PROB	n/a	LTP376	ltpFR2	4	n/a	n/a	n/a	24	23	7	9	7
4264236	PROB	n/a	LTP376	ltpFR2	4	n/a	n/a	n/a	24	10	1	8	1
4265968	PROB	n/a	LTP376	ltpFR2	4	n/a	n/a	n/a	24	11	1	3	7
4267384	PROB	n/a	LTP376	ltpFR2	4	n/a	n/a	n/a	24	20	6	8	6
4271316	PROB	n/a	LTP376	ltpFR2	4	n/a	n/a	n/a	24	9	2	1	6
4275064	PROB	n/a	LTP376	ltpFR2	4	n/a	n/a	n/a	24	11	6	4	1
4276464	PROB	n/a	LTP376	ltpFR2	4	n/a	n/a	n/a	24	14	7	2	5
4282921	STOP	n/a	LTP376	ltpFR2	4	n/a	n/a	n/a	24	n/a	n/a	n/a	n/a
4284711	REC_START	n/a	LTP376	ltpFR2	4	17	n/a	n/a	n/a	n/a	0	0	0
4286436	REC_WORD	wordpools/wasnorm_wordpool_576.txt	LTP376	ltpFR2	4	17	LIGHTNING	820	n/a	n/a	0	0	0
4288373	REC_WORD	wordpools/wasnorm_wordpool_576.txt	LTP376	ltpFR2	4	17	COLLEGE	346	n/a	n/a	0	0	0
4312972	REC_WORD	wordpools/wasnorm_wordpool_576.txt	LTP376	ltpFR2	4	17	PLATE	1086	n/a	n/a	0	0	0
4314864	REC_WORD	wordpools/wasnorm_wordpool_576.txt	LTP376	ltpFR2	4	17	KITCHEN	778	n/a	n/a	0	0	0
4375169	WORD	wordpools/wasnorm_wordpool_576.txt	LTP376	ltpFR2	4	18	PUPIL	1143	n/a	n/a	0	0	0
4377852	WORD	wordpools/wasnorm_wordpool_576.txt	LTP376	ltpFR2	4	18	BUBBLE	183	n/a	n/a	0	0	0
4380534	WORD	wordpools/wasnorm_wordpool_576.txt	LTP376	ltpFR2	4	18	IGLOO	734	n/a	n/a	0	0	0
4383198	WORD	wordpools/wasnorm_wordpool_576.txt	LTP376	ltpFR2	4	18	GIRL	637	n/a	n/a	0	0	0
4385665	WORD	wordpools/wasnorm_wordpool_576.txt	LTP376	ltpFR2	4	18	PIANO	1057	n/a	n/a	0	0	0
4388296	WORD	wordpools/wasnorm_wordpool_576.txt	LTP376	ltpFR2	4	18	PLIERS	1089	n/a	n/a	0	0	0
4390945	WORD	wordpools/wasnorm_wordpool_576.txt	LTP376	ltpFR2	4	18	FOOT	590	n/a	n/a	0	0	0
4393495	WORD	wordpools/wasnorm_wordpool_576.txt	LTP376	ltpFR2	4	18	LEADER	807	n/a	n/a	0	0	0
4396209	WORD	wordpools/wasnorm_wordpool_576.txt	LTP376	ltpFR2	4	18	GARBAGE	622	n/a	n/a	0	0	0
4398892	WORD	wordpools/wasnorm_wordpool_576.txt	LTP376	ltpFR2	4	18	DONKEY	484	n/a	n/a	0	0	0
4401507	WORD	wordpools/wasnorm_wordpool_576.txt	LTP376	ltpFR2	4	18	TWIG	1527	n/a	n/a	0	0	0
4404172	WORD	wordpools/wasnorm_wordpool_576.txt	LTP376	ltpFR2	4	18	MAPLE	866	n/a	n/a	0	0	0
4406789	WORD	wordpools/wasnorm_wordpool_576.txt	LTP376	ltpFR2	4	18	BLACKBOARD	133	n/a	n/a	0	0	0
4409471	WORD	wordpools/wasnorm_wordpool_576.txt	LTP376	ltpFR2	4	18	SADDLE	1221	n/a	n/a	0	0	0
4412118	WORD	wordpools/wasnorm_wordpool_576.txt	LTP376	ltpFR2	4	18	AIRPLANE	12	n/a	n/a	0	0	0
4414785	WORD	wordpools/wasnorm_wordpool_576.txt	LTP376	ltpFR2	4	18	WRENCH	1625	n/a	n/a	0	0	0
4417316	WORD	wordpools/wasnorm_wordpool_576.txt	LTP376	ltpFR2	4	18	WORKER	1621	n/a	n/a	0	0	0
4419866	WORD	wordpools/wasnorm_wordpool_576.txt	LTP376	ltpFR2	4	18	BARLEY	88	n/a	n/a	0	0	0
4422631	WORD	wordpools/wasnorm_wordpool_576.txt	LTP376	ltpFR2	4	18	COWBOY	395	n/a	n/a	0	0	0
4425129	WORD	wordpools/wasnorm_wordpool_576.txt	LTP376	ltpFR2	4	18	DENTIST	447	n/a	n/a	0	0	0
4427779	WORD	wordpools/wasnorm_wordpool_576.txt	LTP376	ltpFR2	4	18	MARSH	874	n/a	n/a	0	0	0
4430360	WORD	wordpools/wasnorm_wordpool_576.txt	LTP376	ltpFR2	4	18	SWAMP	1416	n/a	n/a	0	0	0
4432827	WORD	wordpools/wasnorm_wordpool_576.txt	LTP376	ltpFR2	4	18	LACE	792	n/a	n/a	0	0	0
4435559	WORD	wordpools/wasnorm_wordpool_576.txt	LTP376	ltpFR2	4	18	DONOR	485	n/a	n/a	0	0	0
4437174	START	n/a	LTP376	ltpFR2	4	n/a	n/a	n/a	25	n/a	n/a	n/a	n/a
4438193	DISTRACTOR	n/a	LTP376	ltpFR2	4	18	n/a	n/a	n/a	n/a	0	0	0
4438207	PROB	n/a	LTP376	ltpFR2	4	n/a	n/a	n/a	25	12	4	5	3
4441556	PROB	n/a	LTP376	ltpFR2	4	n/a	n/a	n/a	25	16	4	9	3
4445986	PROB	n/a	LTP376	ltpFR2	4	n/a	n/a	n/a	25	14	5	4	4
4450434	PROB	n/a	LTP376	ltpFR2	4	n/a	n/a	n/a	25	12	4	4	4
4453266	PROB	n/a	LTP376	ltpFR2	4	n/a	n/a	n/a	25	16	9	5	2
4461174	STOP	n/a	LTP376	ltpFR2	4	n/a	n/a	n/a	25	n/a	n/a	n/a	n/a
4462996	REC_START	n/a	LTP376	ltpFR2	4	18	n/a	n/a	n/a	n/a	0	0	0
4464101	REC_WORD	wordpools/wasnorm_wordpool_576.txt	LTP376	ltpFR2	4	18	IGLOO	734	n/a	n/a	0	0	0
4465336	REC_WORD	wordpools/wasnorm_wordpool_576.txt	LTP376	ltpFR2	4	18	GIRL	637	n/a	n/a	0	0	0
4468080	REC_WORD	wordpools/wasnorm_wordpool_576.txt	LTP376	ltpFR2	4	18	AIRPLANE	12	n/a	n/a	0	0	0
4469396	REC_WORD	wordpools/wasnorm_wordpool_576.txt	LTP376	ltpFR2	4	18	GARBAGE	622	n/a	n/a	0	0	0
4470798	REC_WORD	wordpools/wasnorm_wordpool_576.txt	LTP376	ltpFR2	4	18	WRENCH	1625	n/a	n/a	0	0	0
4474049	REC_WORD	wordpools/wasnorm_wordpool_576.txt	LTP376	ltpFR2	4	18	MAPLE	866	n/a	n/a	0	0	0
4484604	REC_WORD	wordpools/wasnorm_wordpool_576.txt	LTP376	ltpFR2	4	18	BUBBLE	183	n/a	n/a	0	0	0
4600634	WORD	wordpools/wasnorm_wordpool_576.txt	LTP376	ltpFR2	4	19	SPOUSE	1358	n/a	n/a	0	0	0
4603082	WORD	wordpools/wasnorm_wordpool_576.txt	LTP376	ltpFR2	4	19	CORAL	378	n/a	n/a	0	0	0
4605848	WORD	wordpools/wasnorm_wordpool_576.txt	LTP376	ltpFR2	4	19	EMPIRE	530	n/a	n/a	0	0	0
4608296	WORD	wordpools/wasnorm_wordpool_576.txt	LTP376	ltpFR2	4	19	SCISSORS	1250	n/a	n/a	0	0	0
4610729	WORD	wordpools/wasnorm_wordpool_576.txt	LTP376	ltpFR2	4	19	CROWN	415	n/a	n/a	0	0	0
4613461	WORD	wordpools/wasnorm_wordpool_576.txt	LTP376	ltpFR2	4	19	GANGSTER	620	n/a	n/a	0	0	0
4616243	WORD	wordpools/wasnorm_wordpool_576.txt	LTP376	ltpFR2	4	19	SHRUB	1299	n/a	n/a	0	0	0
4619008	WORD	wordpools/wasnorm_wordpool_576.txt	LTP376	ltpFR2	4	19	LODGE	839	n/a	n/a	0	0	0
4621674	WORD	wordpools/wasnorm_wordpool_576.txt	LTP376	ltpFR2	4	19	DRINK	498	n/a	n/a	0	0	0
4624239	WORD	wordpools/wasnorm_wordpool_576.txt	LTP376	ltpFR2	4	19	WIFE	1609	n/a	n/a	0	0	0
4626705	WORD	wordpools/wasnorm_wordpool_576.txt	LTP376	ltpFR2	4	19	CREATURE	403	n/a	n/a	0	0	0
4629487	WORD	wordpools/wasnorm_wordpool_576.txt	LTP376	ltpFR2	4	19	SEAL	1262	n/a	n/a	0	0	0
4631935	WORD	wordpools/wasnorm_wordpool_576.txt	LTP376	ltpFR2	4	19	JUGGLER	763	n/a	n/a	0	0	0
4634619	WORD	wordpools/wasnorm_wordpool_576.txt	LTP376	ltpFR2	4	19	GRAPE	654	n/a	n/a	0	0	0
4637200	WORD	wordpools/wasnorm_wordpool_576.txt	LTP376	ltpFR2	4	19	GRAVEL	659	n/a	n/a	0	0	0
4639948	WORD	wordpools/wasnorm_wordpool_576.txt	LTP376	ltpFR2	4	19	ULCER	1533	n/a	n/a	0	0	0
4642397	WORD	wordpools/wasnorm_wordpool_576.txt	LTP376	ltpFR2	4	19	DORM	488	n/a	n/a	0	0	0
4645163	WORD	wordpools/wasnorm_wordpool_576.txt	LTP376	ltpFR2	4	19	YACHT	1629	n/a	n/a	0	0	0
4647613	WORD	wordpools/wasnorm_wordpool_576.txt	LTP376	ltpFR2	4	19	MOTOR	922	n/a	n/a	0	0	0
4650061	WORD	wordpools/wasnorm_wordpool_576.txt	LTP376	ltpFR2	4	19	TWISTER	1530	n/a	n/a	0	0	0
4652710	WORD	wordpools/wasnorm_wordpool_576.txt	LTP376	ltpFR2	4	19	CYCLONE	431	n/a	n/a	0	0	0
4655275	WORD	wordpools/wasnorm_wordpool_576.txt	LTP376	ltpFR2	4	19	WHISTLE	1606	n/a	n/a	0	0	0
4657907	WORD	wordpools/wasnorm_wordpool_576.txt	LTP376	ltpFR2	4	19	HAWK	692	n/a	n/a	0	0	0
4660490	WORD	wordpools/wasnorm_wordpool_576.txt	LTP376	ltpFR2	4	19	SILK	1307	n/a	n/a	0	0	0
4662105	START	n/a	LTP376	ltpFR2	4	n/a	n/a	n/a	26	n/a	n/a	n/a	n/a
4663231	DISTRACTOR	n/a	LTP376	ltpFR2	4	19	n/a	n/a	n/a	n/a	0	0	0
4663238	PROB	n/a	LTP376	ltpFR2	4	n/a	n/a	n/a	26	19	6	5	8
4667403	PROB	n/a	LTP376	ltpFR2	4	n/a	n/a	n/a	26	13	4	7	2
4670918	PROB	n/a	LTP376	ltpFR2	4	n/a	n/a	n/a	26	12	2	5	5
4673518	PROB	n/a	LTP376	ltpFR2	4	n/a	n/a	n/a	26	12	4	1	7
4678499	PROB	n/a	LTP376	ltpFR2	4	n/a	n/a	n/a	26	18	2	7	9
4681146	PROB	n/a	LTP376	ltpFR2	4	n/a	n/a	n/a	26	7	3	1	3
4683112	PROB	n/a	LTP376	ltpFR2	4	n/a	n/a	n/a	26	19	6	3	9
4686078	STOP	n/a	LTP376	ltpFR2	4	n/a	n/a	n/a	26	n/a	n/a	n/a	n/a
4688027	REC_START	n/a	LTP376	ltpFR2	4	19	n/a	n/a	n/a	n/a	0	0	0
4689588	REC_WORD	wordpools/wasnorm_wordpool_576.txt	LTP376	ltpFR2	4	19	EMPIRE	530	n/a	n/a	0	0	0
4691917	REC_WORD	wordpools/wasnorm_wordpool_576.txt	LTP376	ltpFR2	4	19	CROWN	415	n/a	n/a	0	0	0
4693733	REC_WORD	wordpools/wasnorm_wordpool_576.txt	LTP376	ltpFR2	4	19	GANGSTER	620	n/a	n/a	0	0	0
4695710	REC_WORD	wordpools/wasnorm_wordpool_576.txt	LTP376	ltpFR2	4	19	WIFE	1609	n/a	n/a	0	0	0
4702954	REC_WORD	wordpools/wasnorm_wordpool_576.txt	LTP376	ltpFR2	4	19	SEAL	1262	n/a	n/a	0	0	0
4723024	REC_WORD	wordpools/wasnorm_wordpool_576.txt	LTP376	ltpFR2	4	19	ULCER	1533	n/a	n/a	0	0	0
4724929	REC_WORD	wordpools/wasnorm_wordpool_576.txt	LTP376	ltpFR2	4	19	DORM	488	n/a	n/a	0	0	0
4728636	REC_WORD	wordpools/wasnorm_wordpool_576.txt	LTP376	ltpFR2	4	19	PALACE	1006	n/a	n/a	0	0	0
4778453	DISTRACTOR	n/a	LTP376	ltpFR2	4	20	n/a	n/a	n/a	n/a	0	0	0
4778453	START	n/a	LTP376	ltpFR2	4	n/a	n/a	n/a	27	n/a	n/a	n/a	n/a
4778470	PROB	n/a	LTP376	ltpFR2	4	n/a	n/a	n/a	27	14	9	2	3
4782001	PROB	n/a	LTP376	ltpFR2	4	n/a	n/a	n/a	27	17	7	2	8
4784800	PROB	n/a	LTP376	ltpFR2	4	n/a	n/a	n/a	27	20	4	7	9
4789064	PROB	n/a	LTP376	ltpFR2	4	n/a	n/a	n/a	27	15	5	7	1
4792146	PROB	n/a	LTP376	ltpFR2	4	n/a	n/a	n/a	27	18	2	9	7
4796211	PROB	n/a	LTP376	ltpFR2	4	n/a	n/a	n/a	27	7	1	3	3
4798093	PROB	n/a	LTP376	ltpFR2	4	n/a	n/a	n/a	27	13	3	9	1
4802453	STOP	n/a	LTP376	ltpFR2	4	n/a	n/a	n/a	27	n/a	n/a	n/a	n/a
4803274	WORD	wordpools/wasnorm_wordpool_576.txt	LTP376	ltpFR2	4	20	LAGOON	795	n/a	n/a	0	0	0
4805957	WORD	wordpools/wasnorm_wordpool_576.txt	LTP376	ltpFR2	4	20	WRIST	1626	n/a	n/a	0	0	0
4808523	WORD	wordpools/wasnorm_wordpool_576.txt	LTP376	ltpFR2	4	20	FREEZER	604	n/a	n/a	0	0	0
4811237	WORD	wordpools/wasnorm_wordpool_576.txt	LTP376	ltpFR2	4	20	WAGON	1578	n/a	n/a	0	0	0
4813903	WORD	wordpools/wasnorm_wordpool_576.txt	LTP376	ltpFR2	4	20	PLAID	1080	n/a	n/a	0	0	0
4816553	WORD	wordpools/wasnorm_wordpool_576.txt	LTP376	ltpFR2	4	20	LOVER	846	n/a	n/a	0	0	0
4819150	WORD	wordpools/wasnorm_wordpool_576.txt	LTP376	ltpFR2	4	20	ATLAS	53	n/a	n/a	0	0	0
4821834	WORD	wordpools/wasnorm_wordpool_576.txt	LTP376	ltpFR2	4	20	SKILLET	1317	n/a	n/a	0	0	0
4824265	WORD	wordpools/wasnorm_wordpool_576.txt	LTP376	ltpFR2	4	20	SISTER	1312	n/a	n/a	0	0	0
4827030	WORD	wordpools/wasnorm_wordpool_576.txt	LTP376	ltpFR2	4	20	DAUGHTER	442	n/a	n/a	0	0	0
4829797	WORD	wordpools/wasnorm_wordpool_576.txt	LTP376	ltpFR2	4	20	BANQUET	86	n/a	n/a	0	0	0
4832545	WORD	wordpools/wasnorm_wordpool_576.txt	LTP376	ltpFR2	4	20	OUTDOORS	987	n/a	n/a	0	0	0
4835010	WORD	wordpools/wasnorm_wordpool_576.txt	LTP376	ltpFR2	4	20	SURVEY	1414	n/a	n/a	0	0	0
4837776	WORD	wordpools/wasnorm_wordpool_576.txt	LTP376	ltpFR2	4	20	HAMPER	682	n/a	n/a	0	0	0
4840424	WORD	wordpools/wasnorm_wordpool_576.txt	LTP376	ltpFR2	4	20	EAGLE	512	n/a	n/a	0	0	0
4843040	WORD	wordpools/wasnorm_wordpool_576.txt	LTP376	ltpFR2	4	20	COTTAGE	384	n/a	n/a	0	0	0
4845540	WORD	wordpools/wasnorm_wordpool_576.txt	LTP376	ltpFR2	4	20	OX	994	n/a	n/a	0	0	0
4848171	WORD	wordpools/wasnorm_wordpool_576.txt	LTP376	ltpFR2	4	20	CHIPMUNK	304	n/a	n/a	0	0	0
4850654	WORD	wordpools/wasnorm_wordpool_576.txt	LTP376	ltpFR2	4	20	BIKE	125	n/a	n/a	0	0	0
4853402	WORD	wordpools/wasnorm_wordpool_576.txt	LTP376	ltpFR2	4	20	PEDAL	1037	n/a	n/a	0	0	0
4856117	WORD	wordpools/wasnorm_wordpool_576.txt	LTP376	ltpFR2	4	20	TEACHER	1440	n/a	n/a	0	0	0
4858600	WORD	wordpools/wasnorm_wordpool_576.txt	LTP376	ltpFR2	4	20	SHELF	1280	n/a	n/a	0	0	0
4861115	WORD	wordpools/wasnorm_wordpool_576.txt	LTP376	ltpFR2	4	20	GLOBE	641	n/a	n/a	0	0	0
4863631	WORD	wordpools/wasnorm_wordpool_576.txt	LTP376	ltpFR2	4	20	CRUTCH	417	n/a	n/a	0	0	0
4865246	START	n/a	LTP376	ltpFR2	4	n/a	n/a	n/a	28	n/a	n/a	n/a	n/a
4866383	DISTRACTOR	n/a	LTP376	ltpFR2	4	20	n/a	n/a	n/a	n/a	0	0	0
4866396	PROB	n/a	LTP376	ltpFR2	4	n/a	n/a	n/a	28	15	4	9	2
4869211	PROB	n/a	LTP376	ltpFR2	4	n/a	n/a	n/a	28	19	6	6	7
4872544	PROB	n/a	LTP376	ltpFR2	4	n/a	n/a	n/a	28	16	6	9	1
4874876	PROB	n/a	LTP376	ltpFR2	4	n/a	n/a	n/a	28	15	1	6	8
4877074	PROB	n/a	LTP376	ltpFR2	4	n/a	n/a	n/a	28	10	3	3	4
4879290	PROB	n/a	LTP376	ltpFR2	4	n/a	n/a	n/a	28	13	2	7	4
4883172	PROB	n/a	LTP376	ltpFR2	4	n/a	n/a	n/a	28	8	1	6	1
4884655	PROB	n/a	LTP376	ltpFR2	4	n/a	n/a	n/a	28	16	9	1	6
4886571	PROB	n/a	LTP376	ltpFR2	4	n/a	n/a	n/a	28	8	5	1	2
4888813	STOP	n/a	LTP376	ltpFR2	4	n/a	n/a	n/a	28	n/a	n/a	n/a	n/a
4891135	REC_START	n/a	LTP376	ltpFR2	4	20	n/a	n/a	n/a	n/a	0	0	0
4892223	REC_WORD	wordpools/wasnorm_wordpool_576.txt	LTP376	ltpFR2	4	20	LAGOON	795	n/a	n/a	0	0	0
4893844	REC_WORD	wordpools/wasnorm_wordpool_576.txt	LTP376	ltpFR2	4	20	OUTDOORS	987	n/a	n/a	0	0	0
4894844	REC_WORD_VV	wordpools/wasnorm_wordpool_576.txt	LTP376	ltpFR2	4	20	<>	-1	n/a	n/a	0	0	0
4895282	REC_WORD	wordpools/wasnorm_wordpool_576.txt	LTP376	ltpFR2	4	20	SISTER	1312	n/a	n/a	0	0	0
4897126	REC_WORD	wordpools/wasnorm_wordpool_576.txt	LTP376	ltpFR2	4	20	DAUGHTER	442	n/a	n/a	0	0	0
4898976	REC_WORD	wordpools/wasnorm_wordpool_576.txt	LTP376	ltpFR2	4	20	SKILLET	1317	n/a	n/a	0	0	0
4906155	REC_WORD	wordpools/wasnorm_wordpool_576.txt	LTP376	ltpFR2	4	20	TEACHER	1440	n/a	n/a	0	0	0
4909966	REC_WORD	wordpools/wasnorm_wordpool_576.txt	LTP376	ltpFR2	4	20	PEDAL	1037	n/a	n/a	0	0	0
4911863	REC_WORD	wordpools/wasnorm_wordpool_576.txt	LTP376	ltpFR2	4	20	BIKE	125	n/a	n/a	0	0	0
4924078	REC_WORD	wordpools/wasnorm_wordpool_576.txt	LTP376	ltpFR2	4	20	CHIPMUNK	304	n/a	n/a	0	0	0
4925778	REC_WORD	wordpools/wasnorm_wordpool_576.txt	LTP376	ltpFR2	4	20	OX	994	n/a	n/a	0	0	0
4927746	REC_WORD	wordpools/wasnorm_wordpool_576.txt	LTP376	ltpFR2	4	20	EAGLE	512	n/a	n/a	0	0	0
4929492	REC_WORD	wordpools/wasnorm_wordpool_576.txt	LTP376	ltpFR2	4	20	COTTAGE	384	n/a	n/a	0	0	0
4931783	REC_WORD	wordpools/wasnorm_wordpool_576.txt	LTP376	ltpFR2	4	20	SHELF	1280	n/a	n/a	0	0	0
5044282	DISTRACTOR	n/a	LTP376	ltpFR2	4	21	n/a	n/a	n/a	n/a	0	0	0
5044282	START	n/a	LTP376	ltpFR2	4	n/a	n/a	n/a	29	n/a	n/a	n/a	n/a
5044298	PROB	n/a	LTP376	ltpFR2	4	n/a	n/a	n/a	29	11	1	9	1
5045981	PROB	n/a	LTP376	ltpFR2	4	n/a	n/a	n/a	29	20	8	8	4
5048464	PROB	n/a	LTP376	ltpFR2	4	n/a	n/a	n/a	29	18	8	8	2
5050813	PROB	n/a	LTP376	ltpFR2	4	n/a	n/a	n/a	29	10	4	5	1
5056060	PROB	n/a	LTP376	ltpFR2	4	n/a	n/a	n/a	29	15	7	6	2
5059842	PROB	n/a	LTP376	ltpFR2	4	n/a	n/a	n/a	29	9	4	1	4
5061407	PROB	n/a	LTP376	ltpFR2	4	n/a	n/a	n/a	29	19	7	9	2
5065356	PROB	n/a	LTP376	ltpFR2	4	n/a	n/a	n/a	29	10	6	2	2
5067562	STOP	n/a	LTP376	ltpFR2	4	n/a	n/a	n/a	29	n/a	n/a	n/a	n/a
5069304	WORD	wordpools/wasnorm_wordpool_576.txt	LTP376	ltpFR2	4	21	CABIN	211	n/a	n/a	0	0	0
5071986	WORD	wordpools/wasnorm_wordpool_576.txt	LTP376	ltpFR2	4	21	FLEET	578	n/a	n/a	0	0	0
5074486	WORD	wordpools/wasnorm_wordpool_576.txt	LTP376	ltpFR2	4	21	ITEM	746	n/a	n/a	0	0	0
5076934	WORD	wordpools/wasnorm_wordpool_576.txt	LTP376	ltpFR2	4	21	PICNIC	1060	n/a	n/a	0	0	0
5079432	WORD	wordpools/wasnorm_wordpool_576.txt	LTP376	ltpFR2	4	21	BLUEPRINT	142	n/a	n/a	0	0	0
5082148	WORD	wordpools/wasnorm_wordpool_576.txt	LTP376	ltpFR2	4	21	BRICK	172	n/a	n/a	0	0	0
5084648	WORD	wordpools/wasnorm_wordpool_576.txt	LTP376	ltpFR2	4	21	STATUE	1374	n/a	n/a	0	0	0
5087129	WORD	wordpools/wasnorm_wordpool_576.txt	LTP376	ltpFR2	4	21	BRANDY	169	n/a	n/a	0	0	0
5089846	WORD	wordpools/wasnorm_wordpool_576.txt	LTP376	ltpFR2	4	21	SCOTCH	1251	n/a	n/a	0	0	0
5092427	WORD	wordpools/wasnorm_wordpool_576.txt	LTP376	ltpFR2	4	21	EXPERT	543	n/a	n/a	0	0	0
5094909	WORD	wordpools/wasnorm_wordpool_576.txt	LTP376	ltpFR2	4	21	JURY	766	n/a	n/a	0	0	0
5097475	WORD	wordpools/wasnorm_wordpool_576.txt	LTP376	ltpFR2	4	21	VICTIM	1562	n/a	n/a	0	0	0
5100240	WORD	wordpools/wasnorm_wordpool_576.txt	LTP376	ltpFR2	4	21	THRONE	1461	n/a	n/a	0	0	0
5102806	WORD	wordpools/wasnorm_wordpool_576.txt	LTP376	ltpFR2	4	21	KNIFE	785	n/a	n/a	0	0	0
5105304	WORD	wordpools/wasnorm_wordpool_576.txt	LTP376	ltpFR2	4	21	QUARTER	1148	n/a	n/a	0	0	0
5107854	WORD	wordpools/wasnorm_wordpool_576.txt	LTP376	ltpFR2	4	21	LOFT	840	n/a	n/a	0	0	0
5110686	WORD	wordpools/wasnorm_wordpool_576.txt	LTP376	ltpFR2	4	21	KETCHUP	771	n/a	n/a	0	0	0
5113201	WORD	wordpools/wasnorm_wordpool_576.txt	LTP376	ltpFR2	4	21	SHOVEL	1295	n/a	n/a	0	0	0
5115867	WORD	wordpools/wasnorm_wordpool_576.txt	LTP376	ltpFR2	4	21	ICEBERG	731	n/a	n/a	0	0	0
5118682	WORD	wordpools/wasnorm_wordpool_576.txt	LTP376	ltpFR2	4	21	VALLEY	1545	n/a	n/a	0	0	0
5121481	WORD	wordpools/wasnorm_wordpool_576.txt	LTP376	ltpFR2	4	21	GYMNAST	675	n/a	n/a	0	0	0
5124029	WORD	wordpools/wasnorm_wordpool_576.txt	LTP376	ltpFR2	4	21	DIVER	476	n/a	n/a	0	0	0
5126529	WORD	wordpools/wasnorm_wordpool_576.txt	LTP376	ltpFR2	4	21	PRINCESS	1125	n/a	n/a	0	0	0
5129060	WORD	wordpools/wasnorm_wordpool_576.txt	LTP376	ltpFR2	4	21	MATTRESS	879	n/a	n/a	0	0	0
5130677	START	n/a	LTP376	ltpFR2	4	n/a	n/a	n/a	30	n/a	n/a	n/a	n/a
5131537	DISTRACTOR	n/a	LTP376	ltpFR2	4	21	n/a	n/a	n/a	n/a	0	0	0
5131543	PROB	n/a	LTP376	ltpFR2	4	n/a	n/a	n/a	30	12	2	2	8
5134224	PROB	n/a	LTP376	ltpFR2	4	n/a	n/a	n/a	30	17	9	8	8
5137740	PROB	n/a	LTP376	ltpFR2	4	n/a	n/a	n/a	30	18	7	8	3
5140955	PROB	n/a	LTP376	ltpFR2	4	n/a	n/a	n/a	30	10	8	1	1
5142254	PROB	n/a	LTP376	ltpFR2	4	n/a	n/a	n/a	30	20	6	9	5
5148002	PROB	n/a	LTP376	ltpFR2	4	n/a	n/a	n/a	30	25	7	9	9
5154020	STOP	n/a	LTP376	ltpFR2	4	n/a	n/a	n/a	30	n/a	n/a	n/a	n/a
5156431	REC_START	n/a	LTP376	ltpFR2	4	21	n/a	n/a	n/a	n/a	0	0	0
5164059	REC_WORD	wordpools/wasnorm_wordpool_576.txt	LTP376	ltpFR2	4	21	CABIN	211	n/a	n/a	0	0	0
5165905	REC_WORD	wordpools/wasnorm_wordpool_576.txt	LTP376	ltpFR2	4	21	BRANDY	169	n/a	n/a	0	0	0
5167592	REC_WORD	wordpools/wasnorm_wordpool_576.txt	LTP376	ltpFR2	4	21	SCOTCH	1251	n/a	n/a	0	0	0
5246874	DISTRACTOR	n/a	LTP376	ltpFR2	4	22	n/a	n/a	n/a	n/a	0	0	0
5246874	START	n/a	LTP376	ltpFR2	4	n/a	n/a	n/a	31	n/a	n/a	n/a	n/a
5246891	PROB	n/a	LTP376	ltpFR2	4	n/a	n/a	n/a	31	13	4	5	4
5251355	PROB	n/a	LTP376	ltpFR2	4	n/a	n/a	n/a	31	4	1	1	2
5253387	PROB	n/a	LTP376	ltpFR2	4	n/a	n/a	n/a	31	6	2	1	3
5256069	PROB	n/a	LTP376	ltpFR2	4	n/a	n/a	n/a	31	16	2	6	8
5259034	PROB	n/a	LTP376	ltpFR2	4	n/a	n/a	n/a	31	18	9	1	8
5262350	PROB	n/a	LTP376	ltpFR2	4	n/a	n/a	n/a	31	17	5	8	4
5270874	STOP	n/a	LTP376	ltpFR2	4	n/a	n/a	n/a	31	n/a	n/a	n/a	n/a
5271780	WORD	wordpools/wasnorm_wordpool_576.txt	LTP376	ltpFR2	4	22	BLENDER	136	n/a	n/a	0	0	0
5274545	WORD	wordpools/wasnorm_wordpool_576.txt	LTP376	ltpFR2	4	22	POSSUM	1112	n/a	n/a	0	0	0
5277376	WORD	wordpools/wasnorm_wordpool_576.txt	LTP376	ltpFR2	4	22	BACKBONE	66	n/a	n/a	0	0	0
5280175	WORD	wordpools/wasnorm_wordpool_576.txt	LTP376	ltpFR2	4	22	MARROW	872	n/a	n/a	0	0	0
5282691	WORD	wordpools/wasnorm_wordpool_576.txt	LTP376	ltpFR2	4	22	BURGLAR	200	n/a	n/a	0	0	0
5285239	WORD	wordpools/wasnorm_wordpool_576.txt	LTP376	ltpFR2	4	22	HIKER	708	n/a	n/a	0	0	0
5287988	WORD	wordpools/wasnorm_wordpool_576.txt	LTP376	ltpFR2	4	22	SIDEWALK	1303	n/a	n/a	0	0	0
5290804	WORD	wordpools/wasnorm_wordpool_576.txt	LTP376	ltpFR2	4	22	DOUGHNUT	490	n/a	n/a	0	0	0
5293302	WORD	wordpools/wasnorm_wordpool_576.txt	LTP376	ltpFR2	4	22	SHOULDER	1294	n/a	n/a	0	0	0
5295786	WORD	wordpools/wasnorm_wordpool_576.txt	LTP376	ltpFR2	4	22	TOASTER	1472	n/a	n/a	0	0	0
5298233	WORD	wordpools/wasnorm_wordpool_576.txt	LTP376	ltpFR2	4	22	HAND	683	n/a	n/a	0	0	0
5300982	WORD	wordpools/wasnorm_wordpool_576.txt	LTP376	ltpFR2	4	22	GARDEN	623	n/a	n/a	0	0	0
5303482	WORD	wordpools/wasnorm_wordpool_576.txt	LTP376	ltpFR2	4	22	COCOON	339	n/a	n/a	0	0	0
5306097	WORD	wordpools/wasnorm_wordpool_576.txt	LTP376	ltpFR2	4	22	TWEEZERS	1526	n/a	n/a	0	0	0
5308613	WORD	wordpools/wasnorm_wordpool_576.txt	LTP376	ltpFR2	4	22	ARM	38	n/a	n/a	0	0	0
5311327	WORD	wordpools/wasnorm_wordpool_576.txt	LTP376	ltpFR2	4	22	PACKAGE	997	n/a	n/a	0	0	0
5313861	WORD	wordpools/wasnorm_wordpool_576.txt	LTP376	ltpFR2	4	22	QUEEN	1149	n/a	n/a	0	0	0
5316425	WORD	wordpools/wasnorm_wordpool_576.txt	LTP376	ltpFR2	4	22	WHISKERS	1605	n/a	n/a	0	0	0
5319157	WORD	wordpools/wasnorm_wordpool_576.txt	LTP376	ltpFR2	4	22	HOOD	714	n/a	n/a	0	0	0
5321607	WORD	wordpools/wasnorm_wordpool_576.txt	LTP376	ltpFR2	4	22	FLAG	573	n/a	n/a	0	0	0
5324388	WORD	wordpools/wasnorm_wordpool_576.txt	LTP376	ltpFR2	4	22	PARROT	1015	n/a	n/a	0	0	0
5326855	WORD	wordpools/wasnorm_wordpool_576.txt	LTP376	ltpFR2	4	22	PIGEON	1065	n/a	n/a	0	0	0
5329319	WORD	wordpools/wasnorm_wordpool_576.txt	LTP376	ltpFR2	4	22	LIPSTICK	829	n/a	n/a	0	0	0
5332101	WORD	wordpools/wasnorm_wordpool_576.txt	LTP376	ltpFR2	4	22	LEOPARD	812	n/a	n/a	0	0	0
5333718	START	n/a	LTP376	ltpFR2	4	n/a	n/a	n/a	32	n/a	n/a	n/a	n/a
5334756	DISTRACTOR	n/a	LTP376	ltpFR2	4	22	n/a	n/a	n/a	n/a	0	0	0
5334768	PROB	n/a	LTP376	ltpFR2	4	n/a	n/a	n/a	32	18	9	7	2
5338633	PROB	n/a	LTP376	ltpFR2	4	n/a	n/a	n/a	32	16	2	5	9
5340931	PROB	n/a	LTP376	ltpFR2	4	n/a	n/a	n/a	32	16	6	3	7
5343413	PROB	n/a	LTP376	ltpFR2	4	n/a	n/a	n/a	32	8	1	6	1
5344780	PROB	n/a	LTP376	ltpFR2	4	n/a	n/a	n/a	32	24	9	8	9
5352626	PROB	n/a	LTP376	ltpFR2	4	n/a	n/a	n/a	32	3	1	1	1
5353941	PROB	n/a	LTP376	ltpFR2	4	n/a	n/a	n/a	32	12	1	2	9
5357718	STOP	n/a	LTP376	ltpFR2	4	n/a	n/a	n/a	32	n/a	n/a	n/a	n/a
5359490	REC_START	n/a	LTP376	ltpFR2	4	22	n/a	n/a	n/a	n/a	0	0	0
5361315	REC_WORD	wordpools/wasnorm_wordpool_576.txt	LTP376	ltpFR2	4	22	POSSUM	1112	n/a	n/a	0	0	0
5363408	REC_WORD	wordpools/wasnorm_wordpool_576.txt	LTP376	ltpFR2	4	22	LEOPARD	812	n/a	n/a	0	0	0
5365376	REC_WORD	wordpools/wasnorm_wordpool_576.txt	LTP376	ltpFR2	4	22	PARROT	1015	n/a	n/a	0	0	0
5366554	REC_WORD	wordpools/wasnorm_wordpool_576.txt	LTP376	ltpFR2	4	22	PIGEON	1065	n/a	n/a	0	0	0
5371851	REC_WORD	wordpools/wasnorm_wordpool_576.txt	LTP376	ltpFR2	4	22	BACKBONE	66	n/a	n/a	0	0	0
5373300	REC_WORD	wordpools/wasnorm_wordpool_576.txt	LTP376	ltpFR2	4	22	SHOULDER	1294	n/a	n/a	0	0	0
5375382	REC_WORD	wordpools/wasnorm_wordpool_576.txt	LTP376	ltpFR2	4	22	MARROW	872	n/a	n/a	0	0	0
5379118	REC_WORD	wordpools/wasnorm_wordpool_576.txt	LTP376	ltpFR2	4	22	BLENDER	136	n/a	n/a	0	0	0
5383067	REC_WORD	wordpools/wasnorm_wordpool_576.txt	LTP376	ltpFR2	4	22	HIKER	708	n/a	n/a	0	0	0
5387137	REC_WORD	wordpools/wasnorm_wordpool_576.txt	LTP376	ltpFR2	4	22	ROBBER	1197	n/a	n/a	0	0	0
5389346	REC_WORD	wordpools/wasnorm_wordpool_576.txt	LTP376	ltpFR2	4	22	BURGLAR	200	n/a	n/a	0	0	0
5449931	DISTRACTOR	n/a	LTP376	ltpFR2	4	23	n/a	n/a	n/a	n/a	0	0	0
5449931	START	n/a	LTP376	ltpFR2	4	n/a	n/a	n/a	33	n/a	n/a	n/a	n/a
5449948	PROB	n/a	LTP376	ltpFR2	4	n/a	n/a	n/a	33	10	1	3	6
5452764	PROB	n/a	LTP376	ltpFR2	4	n/a	n/a	n/a	33	11	1	1	9
5455079	PROB	n/a	LTP376	ltpFR2	4	n/a	n/a	n/a	33	12	4	2	6
5456813	PROB	n/a	LTP376	ltpFR2	4	n/a	n/a	n/a	33	10	1	7	2
5459360	PROB	n/a	LTP376	ltpFR2	4	n/a	n/a	n/a	33	10	2	7	1
5460993	PROB	n/a	LTP376	ltpFR2	4	n/a	n/a	n/a	33	18	4	9	5
5464825	PROB	n/a	LTP376	ltpFR2	4	n/a	n/a	n/a	33	16	6	5	5
5466525	PROB	n/a	LTP376	ltpFR2	4	n/a	n/a	n/a	33	8	1	1	6
5467807	PROB	n/a	LTP376	ltpFR2	4	n/a	n/a	n/a	33	14	8	3	3
5473931	STOP	n/a	LTP376	ltpFR2	4	n/a	n/a	n/a	33	n/a	n/a	n/a	n/a
5474754	WORD	wordpools/wasnorm_wordpool_576.txt	LTP376	ltpFR2	4	23	BULLET	194	n/a	n/a	0	0	0
5477202	WORD	wordpools/wasnorm_wordpool_576.txt	LTP376	ltpFR2	4	23	GHETTO	633	n/a	n/a	0	0	0
5479852	WORD	wordpools/wasnorm_wordpool_576.txt	LTP376	ltpFR2	4	23	COUCH	386	n/a	n/a	0	0	0
5482667	WORD	wordpools/wasnorm_wordpool_576.txt	LTP376	ltpFR2	4	23	BINDER	127	n/a	n/a	0	0	0
5485249	WORD	wordpools/wasnorm_wordpool_576.txt	LTP376	ltpFR2	4	23	SUBWAY	1400	n/a	n/a	0	0	0
5487748	WORD	wordpools/wasnorm_wordpool_576.txt	LTP376	ltpFR2	4	23	TRANSPLANT	1496	n/a	n/a	0	0	0
5490413	WORD	wordpools/wasnorm_wordpool_576.txt	LTP376	ltpFR2	4	23	COMET	353	n/a	n/a	0	0	0
5493045	WORD	wordpools/wasnorm_wordpool_576.txt	LTP376	ltpFR2	4	23	HERO	706	n/a	n/a	0	0	0
5495478	WORD	wordpools/wasnorm_wordpool_576.txt	LTP376	ltpFR2	4	23	AIRPORT	13	n/a	n/a	0	0	0
5497909	WORD	wordpools/wasnorm_wordpool_576.txt	LTP376	ltpFR2	4	23	RAFT	1159	n/a	n/a	0	0	0
5500626	WORD	wordpools/wasnorm_wordpool_576.txt	LTP376	ltpFR2	4	23	SKETCH	1315	n/a	n/a	0	0	0
5503290	WORD	wordpools/wasnorm_wordpool_576.txt	LTP376	ltpFR2	4	23	TABLE	1426	n/a	n/a	0	0	0
5505890	WORD	wordpools/wasnorm_wordpool_576.txt	LTP376	ltpFR2	4	23	CHAUFFEUR	283	n/a	n/a	0	0	0
5508572	WORD	wordpools/wasnorm_wordpool_576.txt	LTP376	ltpFR2	4	23	TRUCK	1512	n/a	n/a	0	0	0
5511237	WORD	wordpools/wasnorm_wordpool_576.txt	LTP376	ltpFR2	4	23	PROTON	1132	n/a	n/a	0	0	0
5514002	WORD	wordpools/wasnorm_wordpool_576.txt	LTP376	ltpFR2	4	23	STAR	1373	n/a	n/a	0	0	0
5516519	WORD	wordpools/wasnorm_wordpool_576.txt	LTP376	ltpFR2	4	23	DANDRUFF	439	n/a	n/a	0	0	0
5519250	WORD	wordpools/wasnorm_wordpool_576.txt	LTP376	ltpFR2	4	23	BOYFRIEND	162	n/a	n/a	0	0	0
5521766	WORD	wordpools/wasnorm_wordpool_576.txt	LTP376	ltpFR2	4	23	CLAM	315	n/a	n/a	0	0	0
5524248	WORD	wordpools/wasnorm_wordpool_576.txt	LTP376	ltpFR2	4	23	TURTLE	1522	n/a	n/a	0	0	0
5527046	WORD	wordpools/wasnorm_wordpool_576.txt	LTP376	ltpFR2	4	23	IDOL	733	n/a	n/a	0	0	0
5529663	WORD	wordpools/wasnorm_wordpool_576.txt	LTP376	ltpFR2	4	23	VAGRANT	1544	n/a	n/a	0	0	0
5532211	WORD	wordpools/wasnorm_wordpool_576.txt	LTP376	ltpFR2	4	23	AWARD	63	n/a	n/a	0	0	0
5535009	WORD	wordpools/wasnorm_wordpool_576.txt	LTP376	ltpFR2	4	23	ROBIN	1199	n/a	n/a	0	0	0
5536626	START	n/a	LTP376	ltpFR2	4	n/a	n/a	n/a	34	n/a	n/a	n/a	n/a
5537426	DISTRACTOR	n/a	LTP376	ltpFR2	4	23	n/a	n/a	n/a	n/a	0	0	0
5537442	PROB	n/a	LTP376	ltpFR2	4	n/a	n/a	n/a	34	12	4	5	3
5541140	PROB	n/a	LTP376	ltpFR2	4	n/a	n/a	n/a	34	18	7	6	5
5547120	PROB	n/a	LTP376	ltpFR2	4	n/a	n/a	n/a	34	15	7	2	6
5549369	PROB	n/a	LTP376	ltpFR2	4	n/a	n/a	n/a	34	18	3	7	8
5551453	PROB	n/a	LTP376	ltpFR2	4	n/a	n/a	n/a	34	19	8	9	2
5554518	PROB	n/a	LTP376	ltpFR2	4	n/a	n/a	n/a	34	6	1	3	2
5560626	STOP	n/a	LTP376	ltpFR2	4	n/a	n/a	n/a	34	n/a	n/a	n/a	n/a
5562498	REC_START	n/a	LTP376	ltpFR2	4	23	n/a	n/a	n/a	n/a	0	0	0
5564063	REC_WORD	wordpools/wasnorm_wordpool_576.txt	LTP376	ltpFR2	4	23	GHETTO	633	n/a	n/a	0	0	0
5565390	REC_WORD	wordpools/wasnorm_wordpool_576.txt	LTP376	ltpFR2	4	23	BULLET	194	n/a	n/a	0	0	0
5567318	REC_WORD	wordpools/wasnorm_wordpool_576.txt	LTP376	ltpFR2	4	23	HERO	706	n/a	n/a	0	0	0
5588847	REC_WORD	wordpools/wasnorm_wordpool_576.txt	LTP376	ltpFR2	4	23	SKETCH	1315	n/a	n/a	0	0	0
5652939	DISTRACTOR	n/a	LTP376	ltpFR2	4	24	n/a	n/a	n/a	n/a	0	0	0
5652939	START	n/a	LTP376	ltpFR2	4	n/a	n/a	n/a	35	n/a	n/a	n/a	n/a
5652956	PROB	n/a	LTP376	ltpFR2	4	n/a	n/a	n/a	35	16	8	4	4
5656489	PROB	n/a	LTP376	ltpFR2	4	n/a	n/a	n/a	35	12	1	5	7
5663184	PROB	n/a	LTP376	ltpFR2	4	n/a	n/a	n/a	35	12	5	3	4
5667149	PROB	n/a	LTP376	ltpFR2	4	n/a	n/a	n/a	35	17	7	4	6
5670882	PROB	n/a	LTP376	ltpFR2	4	n/a	n/a	n/a	35	16	8	3	5
5673564	PROB	n/a	LTP376	ltpFR2	4	n/a	n/a	n/a	35	13	5	5	3
5676939	STOP	n/a	LTP376	ltpFR2	4	n/a	n/a	n/a	35	n/a	n/a	n/a	n/a
5678044	WORD	wordpools/wasnorm_wordpool_576.txt	LTP376	ltpFR2	4	24	WITNESS	1618	n/a	n/a	0	0	0
5680861	WORD	wordpools/wasnorm_wordpool_576.txt	LTP376	ltpFR2	4	24	LUNCH	849	n/a	n/a	0	0	0
5683676	WORD	wordpools/wasnorm_wordpool_576.txt	LTP376	ltpFR2	4	24	COIN	343	n/a	n/a	0	0	0
5686407	WORD	wordpools/wasnorm_wordpool_576.txt	LTP376	ltpFR2	4	24	RUST	1219	n/a	n/a	0	0	0
5688973	WORD	wordpools/wasnorm_wordpool_576.txt	LTP376	ltpFR2	4	24	TAXI	1438	n/a	n/a	0	0	0
5691623	WORD	wordpools/wasnorm_wordpool_576.txt	LTP376	ltpFR2	4	24	REBEL	1172	n/a	n/a	0	0	0
5694304	WORD	wordpools/wasnorm_wordpool_576.txt	LTP376	ltpFR2	4	24	NOVEL	960	n/a	n/a	0	0	0
5696770	WORD	wordpools/wasnorm_wordpool_576.txt	LTP376	ltpFR2	4	24	MONSTER	912	n/a	n/a	0	0	0
5699418	WORD	wordpools/wasnorm_wordpool_576.txt	LTP376	ltpFR2	4	24	COUNTY	389	n/a	n/a	0	0	0
5702184	WORD	wordpools/wasnorm_wordpool_576.txt	LTP376	ltpFR2	4	24	TROMBONE	1508	n/a	n/a	0	0	0
5704817	WORD	wordpools/wasnorm_wordpool_576.txt	LTP376	ltpFR2	4	24	PREACHER	1119	n/a	n/a	0	0	0
5707615	WORD	wordpools/wasnorm_wordpool_576.txt	LTP376	ltpFR2	4	24	FOX	598	n/a	n/a	0	0	0
5710430	WORD	wordpools/wasnorm_wordpool_576.txt	LTP376	ltpFR2	4	24	BANJO	82	n/a	n/a	0	0	0
5712945	WORD	wordpools/wasnorm_wordpool_576.txt	LTP376	ltpFR2	4	24	PANTHER	1009	n/a	n/a	0	0	0
5715745	WORD	wordpools/wasnorm_wordpool_576.txt	LTP376	ltpFR2	4	24	TART	1436	n/a	n/a	0	0	0
5718544	WORD	wordpools/wasnorm_wordpool_576.txt	LTP376	ltpFR2	4	24	COMPASS	358	n/a	n/a	0	0	0
5721358	WORD	wordpools/wasnorm_wordpool_576.txt	LTP376	ltpFR2	4	24	COLONEL	348	n/a	n/a	0	0	0
5724090	WORD	wordpools/wasnorm_wordpool_576.txt	LTP376	ltpFR2	4	24	ARMY	39	n/a	n/a	0	0	0
5726790	WORD	wordpools/wasnorm_wordpool_576.txt	LTP376	ltpFR2	4	24	CREVICE	405	n/a	n/a	0	0	0
5729221	WORD	wordpools/wasnorm_wordpool_576.txt	LTP376	ltpFR2	4	24	WASHER	1592	n/a	n/a	0	0	0
5732003	WORD	wordpools/wasnorm_wordpool_576.txt	LTP376	ltpFR2	4	24	CHEMIST	292	n/a	n/a	0	0	0
5734553	WORD	wordpools/wasnorm_wordpool_576.txt	LTP376	ltpFR2	4	24	MARINE	869	n/a	n/a	0	0	0
5737334	WORD	wordpools/wasnorm_wordpool_576.txt	LTP376	ltpFR2	4	24	SWORD	1423	n/a	n/a	0	0	0
5739784	WORD	wordpools/wasnorm_wordpool_576.txt	LTP376	ltpFR2	4	24	LION	827	n/a	n/a	0	0	0
5741399	START	n/a	LTP376	ltpFR2	4	n/a	n/a	n/a	36	n/a	n/a	n/a	n/a
5742466	DISTRACTOR	n/a	LTP376	ltpFR2	4	24	n/a	n/a	n/a	n/a	0	0	0
5742483	PROB	n/a	LTP376	ltpFR2	4	n/a	n/a	n/a	36	11	3	6	2
5745631	PROB	n/a	LTP376	ltpFR2	4	n/a	n/a	n/a	36	11	1	7	3
5747180	PROB	n/a	LTP376	ltpFR2	4	n/a	n/a	n/a	36	18	9	4	5
5749445	PROB	n/a	LTP376	ltpFR2	4	n/a	n/a	n/a	36	21	9	4	8
5753077	PROB	n/a	LTP376	ltpFR2	4	n/a	n/a	n/a	36	23	7	5	9
5756743	PROB	n/a	LTP376	ltpFR2	4	n/a	n/a	n/a	36	16	1	7	8
5758958	PROB	n/a	LTP376	ltpFR2	4	n/a	n/a	n/a	36	24	9	7	9
5762807	PROB	n/a	LTP376	ltpFR2	4	n/a	n/a	n/a	36	9	5	3	1
5765206	STOP	n/a	LTP376	ltpFR2	4	n/a	n/a	n/a	36	n/a	n/a	n/a	n/a
5767188	REC_START	n/a	LTP376	ltpFR2	4	24	n/a	n/a	n/a	n/a	0	0	0
5768594	REC_WORD	wordpools/wasnorm_wordpool_576.txt	LTP376	ltpFR2	4	24	COLONEL	348	n/a	n/a	0	0	0
5769856	REC_WORD	wordpools/wasnorm_wordpool_576.txt	LTP376	ltpFR2	4	24	MARINE	869	n/a	n/a	0	0	0
5771397	REC_WORD	wordpools/wasnorm_wordpool_576.txt	LTP376	ltpFR2	4	24	ARMY	39	n/a	n/a	0	0	0
5772824	REC_WORD	wordpools/wasnorm_wordpool_576.txt	LTP376	ltpFR2	4	24	BANJO	82	n/a	n/a	0	0	0
5775671	REC_WORD	wordpools/wasnorm_wordpool_576.txt	LTP376	ltpFR2	4	24	COIN	343	n/a	n/a	0	0	0
5777361	REC_WORD	wordpools/wasnorm_wordpool_576.txt	LTP376	ltpFR2	4	24	RUST	1219	n/a	n/a	0	0	0
5817756	REC_WORD	wordpools/wasnorm_wordpool_576.txt	LTP376	ltpFR2	4	24	CHEMIST	292	n/a	n/a	0	0	0
5847352	SESS_END	n/a	LTP376	ltpFR2	4	24	n/a	n/a	n/a	n/a	0	0	0
